LTriangleOpac,LCircleOpac,LHexagonOpac,LStarOpac,RTriangleOpac,RCircleOpac,RHexagonOpac,RStarOpac,LShape_ID,RShape_ID,training_blocks.thisRepN,training_blocks.thisTrialN,training_blocks.thisN,training_blocks.thisIndex,training.thisRepN,training.thisTrialN,training.thisN,training.thisIndex,task1_prac_redo.thisRepN,task1_prac_redo.thisTrialN,task1_prac_redo.thisN,task1_prac_redo.thisIndex,task1_prac_trials.thisRepN,task1_prac_trials.thisTrialN,task1_prac_trials.thisN,task1_prac_trials.thisIndex,task2_prac_redo.thisRepN,task2_prac_redo.thisTrialN,task2_prac_redo.thisN,task2_prac_redo.thisIndex,task2_praac_trials.thisRepN,task2_praac_trials.thisTrialN,task2_praac_trials.thisN,task2_praac_trials.thisIndex,vts_prac_redo.thisRepN,vts_prac_redo.thisTrialN,vts_prac_redo.thisN,vts_prac_redo.thisIndex,vts_practice_trials.thisRepN,vts_practice_trials.thisTrialN,vts_practice_trials.thisN,vts_practice_trials.thisIndex,trials_norew.thisRepN,trials_norew.thisTrialN,trials_norew.thisN,trials_norew.thisIndex,block.thisRepN,block.thisTrialN,block.thisN,block.thisIndex,trials_rew.thisRepN,trials_rew.thisTrialN,trials_rew.thisN,trials_rew.thisIndex,key_resp.started,key_resp.keys,key_resp.rt,left_circle.started,right_circle.started,left_triangle.started,right_triangle.started,left_star.started,right_star.started,left_hexagon.started,right_hexagon.started,training_fix.started,training_resp.started,training_resp.keys,training_resp.rt,points_trial,points_cumul,trainBlock,training_feedback_txt.started,fix.started,training_feedback_txt.stopped,fix.stopped,curr_topStim,curr_bottStim,curr_shape,ISI.started,tgt_fix_prac1.started,top_target_prac1.started,bott_target_prac1.started,target_resp_prac1.started,acc,E1,target_resp_prac1.keys,target_resp_prac1.rt,pracBlock,prac_fback_text.started,prac_fback_text.stopped,tgt_fix_prac2.started,top_target_prac2.started,bott_target_prac2.started,target_resp_prac2.started,target_resp_prac2.keys,target_resp_prac2.rt,star.started,hegagon.started,triangle.started,circle.started,top_target.started,tgt_fix.started,bot_target.started,target_resp.started,star.stopped,hegagon.stopped,triangle.stopped,circle.stopped,alt,task,condition,target_resp.keys,target_resp.rt,rewCond,vts_fback.started,vts_fback.stopped,blockNum,norew_fback.started,norew_fback.stopped,key_resp_2.keys,key_resp_2.rt,rewExpectancy,feedbk_text.started,feedbk_text.stopped,text_3.started,debrief.started,text_3.stopped,button.started,debrief.index,debrief.itemText,debrief.type,debrief.granularity,debrief.font,debrief.markerColor,debrief.response,debrief.rt,button.numClicks,button.timesOn,button.timesOff,participant,date,expName,psychopyVersion,frameRate,
,,,,,,,,,,,,,,,,,,,,,,,,,,,,,,,,,,,,,,,,,,,,,,,,,,,,,,11.633956848992966,space,46.92530123400502,,,,,,,,,,,,,,,,,,,,,,,,,,,,,,,,,,,,,,,,,,,,,,,,,,,,,,,,,,,,,,,,,,,,,,,,,,,,,,,,,,,,99099,2022-11-03_14h14.51.471,vts_reward_expectancy_bt_OFFLINE,2022.2.4,60.13734898220535,
0,0,0,1,1,0,0,0,star,triangle,0,0,0,0,0,0,0,9,,,,,,,,,,,,,,,,,,,,,,,,,,,,,,,,,,,,,,,,100.60460811597295,100.60460811597295,100.60460811597295,100.60460811597295,100.60460811597295,100.60460811597295,100.60460811597295,100.60460811597295,100.60460811597295,100.60460811597295,a,2.8657539299456403,10,10,0,103.4983623540029,105.01349399494939,,,,,,,,,,,,,,,,,,,,,,,,,,,,,,,,,,,,,,,,,,,,,,,,,,,,,,,,,,,,,,,,,,,99099,2022-11-03_14h14.51.471,vts_reward_expectancy_bt_OFFLINE,2022.2.4,60.13734898220535,
1,0,0,0,0,0,0,1,triangle,star,0,0,0,0,0,1,1,2,,,,,,,,,,,,,,,,,,,,,,,,,,,,,,,,,,,,,,,,105.51375770999584,105.51375770999584,105.51375770999584,105.51375770999584,105.51375770999584,105.51375770999584,105.51375770999584,105.51375770999584,105.51375770999584,105.51375770999584,l,3.8521812499966472,10,20,0,109.38359995302744,110.88411037693731,110.88411037693731,111.38423409301322,,,,,,,,,,,,,,,,,,,,,,,,,,,,,,,,,,,,,,,,,,,,,,,,,,,,,,,,,,,,,,,,,99099,2022-11-03_14h14.51.471,vts_reward_expectancy_bt_OFFLINE,2022.2.4,60.13734898220535,
1,0,0,0,0,0,1,0,triangle,hexagon,0,0,0,0,0,2,2,1,,,,,,,,,,,,,,,,,,,,,,,,,,,,,,,,,,,,,,,,111.38423409301322,111.38423409301322,111.38423409301322,111.38423409301322,111.38423409301322,111.38423409301322,111.38423409301322,111.38423409301322,111.38423409301322,111.38423409301322,l,1.8738082109484822,1,21,0,113.28586580196861,114.78770795697346,,,,,,,,,,,,,,,,,,,,,,,,,,,,,,,,,,,,,,,,,,,,,,,,,,,,,,,,,,,,,,,,,,,99099,2022-11-03_14h14.51.471,vts_reward_expectancy_bt_OFFLINE,2022.2.4,60.13734898220535,
0,0,0,1,0,0,1,0,star,hexagon,0,0,0,0,0,3,3,11,,,,,,,,,,,,,,,,,,,,,,,,,,,,,,,,,,,,,,,,115.28787487302907,115.28787487302907,115.28787487302907,115.28787487302907,115.28787487302907,115.28787487302907,115.28787487302907,115.28787487302907,115.28787487302907,115.28787487302907,a,2.8750947100343183,10,31,0,118.18954061798286,119.69092407100834,,,,,,,,,,,,,,,,,,,,,,,,,,,,,,,,,,,,,,,,,,,,,,,,,,,,,,,,,,,,,,,,,,,99099,2022-11-03_14h14.51.471,vts_reward_expectancy_bt_OFFLINE,2022.2.4,60.13734898220535,
0,0,1,0,0,0,0,1,hexagon,star,0,0,0,0,0,4,4,8,,,,,,,,,,,,,,,,,,,,,,,,,,,,,,,,,,,,,,,,120.19132132700179,120.19132132700179,120.19132132700179,120.19132132700179,120.19132132700179,120.19132132700179,120.19132132700179,120.19132132700179,120.19132132700179,120.19132132700179,l,1.032495365012437,10,41,0,121.24147648504004,122.7421024889918,122.7421024889918,123.24198214197531,,,,,,,,,,,,,,,,,,,,,,,,,,,,,,,,,,,,,,,,,,,,,,,,,,,,,,,,,,,,,,,,,99099,2022-11-03_14h14.51.471,vts_reward_expectancy_bt_OFFLINE,2022.2.4,60.13734898220535,
0,0,1,0,0,1,0,0,hexagon,circle,0,0,0,0,0,5,5,7,,,,,,,,,,,,,,,,,,,,,,,,,,,,,,,,,,,,,,,,123.24198214197531,123.24198214197531,123.24198214197531,123.24198214197531,123.24198214197531,123.24198214197531,123.24198214197531,123.24198214197531,123.24198214197531,123.24198214197531,a,1.5813567510340363,1,42,0,124.84566998004448,126.3455267540412,126.3455267540412,126.845594579936,,,,,,,,,,,,,,,,,,,,,,,,,,,,,,,,,,,,,,,,,,,,,,,,,,,,,,,,,,,,,,,,,99099,2022-11-03_14h14.51.471,vts_reward_expectancy_bt_OFFLINE,2022.2.4,60.13734898220535,
1,0,0,0,0,1,0,0,triangle,circle,0,0,0,0,0,6,6,0,,,,,,,,,,,,,,,,,,,,,,,,,,,,,,,,,,,,,,,,126.845594579936,126.845594579936,126.845594579936,126.845594579936,126.845594579936,126.845594579936,126.845594579936,126.845594579936,126.845594579936,126.845594579936,l,0.9146168460138142,1,43,0,127.77885339804925,129.2811840909999,,,,,,,,,,,,,,,,,,,,,,,,,,,,,,,,,,,,,,,,,,,,,,,,,,,,,,,,,,,,,,,,,,,99099,2022-11-03_14h14.51.471,vts_reward_expectancy_bt_OFFLINE,2022.2.4,60.13734898220535,
0,1,0,0,0,0,1,0,circle,hexagon,0,0,0,0,0,7,7,4,,,,,,,,,,,,,,,,,,,,,,,,,,,,,,,,,,,,,,,,129.78151200897992,129.78151200897992,129.78151200897992,129.78151200897992,129.78151200897992,129.78151200897992,129.78151200897992,129.78151200897992,129.78151200897992,129.78151200897992,l,1.6918609730200842,1,44,0,131.49890178604983,132.99938247096725,132.99938247096725,,,,,,,,,,,,,,,,,,,,,,,,,,,,,,,,,,,,,,,,,,,,,,,,,,,,,,,,,,,,,,,,,,99099,2022-11-03_14h14.51.471,vts_reward_expectancy_bt_OFFLINE,2022.2.4,60.13734898220535,
0,0,0,1,0,1,0,0,star ,circle,0,0,0,0,0,8,8,10,,,,,,,,,,,,,,,,,,,,,,,,,,,,,,,,,,,,,,,,133.5018262109952,133.5018262109952,133.5018262109952,133.5018262109952,133.5018262109952,133.5018262109952,133.5018262109952,133.5018262109952,133.5018262109952,133.5018262109952,a,1.0530385839520022,1,45,0,134.58529291395098,136.0857659779722,136.0857659779722,,,,,,,,,,,,,,,,,,,,,,,,,,,,,,,,,,,,,,,,,,,,,,,,,,,,,,,,,,,,,,,,,,99099,2022-11-03_14h14.51.471,vts_reward_expectancy_bt_OFFLINE,2022.2.4,60.13734898220535,
0,1,0,0,1,0,0,0,circle,triangle,0,0,0,0,0,9,9,3,,,,,,,,,,,,,,,,,,,,,,,,,,,,,,,,,,,,,,,,136.58582757902332,136.58582757902332,136.58582757902332,136.58582757902332,136.58582757902332,136.58582757902332,136.58582757902332,136.58582757902332,136.58582757902332,136.58582757902332,l,1.9516734729986638,10,55,0,138.5558576079784,140.05560849502217,140.05560849502217,140.55577679898124,,,,,,,,,,,,,,,,,,,,,,,,,,,,,,,,,,,,,,,,,,,,,,,,,,,,,,,,,,,,,,,,,99099,2022-11-03_14h14.51.471,vts_reward_expectancy_bt_OFFLINE,2022.2.4,60.13734898220535,
0,0,1,0,1,0,0,0,hexagon,triangle,0,0,0,0,0,10,10,6,,,,,,,,,,,,,,,,,,,,,,,,,,,,,,,,,,,,,,,,140.55577679898124,140.55577679898124,140.55577679898124,140.55577679898124,140.55577679898124,140.55577679898124,140.55577679898124,140.55577679898124,140.55577679898124,140.55577679898124,l,1.9418808099580929,10,65,0,142.52333362598438,144.0256008709548,,,,,,,,,,,,,,,,,,,,,,,,,,,,,,,,,,,,,,,,,,,,,,,,,,,,,,,,,,,,,,,,,,,99099,2022-11-03_14h14.51.471,vts_reward_expectancy_bt_OFFLINE,2022.2.4,60.13734898220535,
0,1,0,0,0,0,0,1,circle,star,0,0,0,0,0,11,11,5,,,,,,,,,,,,,,,,,,,,,,,,,,,,,,,,,,,,,,,,144.5257718010107,144.5257718010107,144.5257718010107,144.5257718010107,144.5257718010107,144.5257718010107,144.5257718010107,144.5257718010107,144.5257718010107,144.5257718010107,a,2.5626344790216535,1,66,0,147.11116627801675,148.6122303919401,,,,,,,,,,,,,,,,,,,,,,,,,,,,,,,,,,,,,,,,,,,,,,,,,,,,,,,,,,,,,,,,,,,99099,2022-11-03_14h14.51.471,vts_reward_expectancy_bt_OFFLINE,2022.2.4,60.13734898220535,
1,0,0,0,0,0,0,1,triangle,star,0,0,0,0,1,0,12,2,,,,,,,,,,,,,,,,,,,,,,,,,,,,,,,,,,,,,,,,149.11249603901524,149.11249603901524,149.11249603901524,149.11249603901524,149.11249603901524,149.11249603901524,149.11249603901524,149.11249603901524,149.11249603901524,149.11249603901524,l,1.9586639310000464,10,76,0,151.09738970000762,152.5972614600323,152.5972614600323,153.0973081040429,,,,,,,,,,,,,,,,,,,,,,,,,,,,,,,,,,,,,,,,,,,,,,,,,,,,,,,,,,,,,,,,,99099,2022-11-03_14h14.51.471,vts_reward_expectancy_bt_OFFLINE,2022.2.4,60.13734898220535,
0,0,1,0,0,1,0,0,hexagon,circle,0,0,0,0,1,1,13,7,,,,,,,,,,,,,,,,,,,,,,,,,,,,,,,,,,,,,,,,153.0973081040429,153.0973081040429,153.0973081040429,153.0973081040429,153.0973081040429,153.0973081040429,153.0973081040429,153.0973081040429,153.0973081040429,153.0973081040429,l,1.787080273963511,1,77,0,154.91686475195456,156.41736366797704,156.41736366797704,156.91773806593847,,,,,,,,,,,,,,,,,,,,,,,,,,,,,,,,,,,,,,,,,,,,,,,,,,,,,,,,,,,,,,,,,99099,2022-11-03_14h14.51.471,vts_reward_expectancy_bt_OFFLINE,2022.2.4,60.13734898220535,
0,1,0,0,1,0,0,0,circle,triangle,0,0,0,0,1,2,14,3,,,,,,,,,,,,,,,,,,,,,,,,,,,,,,,,,,,,,,,,156.91773806593847,156.91773806593847,156.91773806593847,156.91773806593847,156.91773806593847,156.91773806593847,156.91773806593847,156.91773806593847,156.91773806593847,156.91773806593847,a,1.8148238629801199,1,78,0,158.75299963494763,160.25379244599026,160.25379244599026,,,,,,,,,,,,,,,,,,,,,,,,,,,,,,,,,,,,,,,,,,,,,,,,,,,,,,,,,,,,,,,,,,99099,2022-11-03_14h14.51.471,vts_reward_expectancy_bt_OFFLINE,2022.2.4,60.13734898220535,
0,1,0,0,0,0,0,1,circle,star,0,0,0,0,1,3,15,5,,,,,,,,,,,,,,,,,,,,,,,,,,,,,,,,,,,,,,,,160.7539350449806,160.7539350449806,160.7539350449806,160.7539350449806,160.7539350449806,160.7539350449806,160.7539350449806,160.7539350449806,160.7539350449806,160.7539350449806,l,1.1057802200084552,10,88,0,161.88873444101773,163.38596332794987,163.38596332794987,,,,,,,,,,,,,,,,,,,,,,,,,,,,,,,,,,,,,,,,,,,,,,,,,,,,,,,,,,,,,,,,,,99099,2022-11-03_14h14.51.471,vts_reward_expectancy_bt_OFFLINE,2022.2.4,60.13734898220535,
0,0,0,1,0,1,0,0,star ,circle,0,0,0,0,1,4,16,10,,,,,,,,,,,,,,,,,,,,,,,,,,,,,,,,,,,,,,,,163.88992757594679,163.88992757594679,163.88992757594679,163.88992757594679,163.88992757594679,163.88992757594679,163.88992757594679,163.88992757594679,163.88992757594679,163.88992757594679,a,1.029433130985126,10,98,0,164.94031688396353,166.44086614996195,166.44086614996195,166.9409069570247,,,,,,,,,,,,,,,,,,,,,,,,,,,,,,,,,,,,,,,,,,,,,,,,,,,,,,,,,,,,,,,,,99099,2022-11-03_14h14.51.471,vts_reward_expectancy_bt_OFFLINE,2022.2.4,60.13734898220535,
0,1,0,0,0,0,1,0,circle,hexagon,0,0,0,0,1,5,17,4,,,,,,,,,,,,,,,,,,,,,,,,,,,,,,,,,,,,,,,,166.9409069570247,166.9409069570247,166.9409069570247,166.9409069570247,166.9409069570247,166.9409069570247,166.9409069570247,166.9409069570247,166.9409069570247,166.9409069570247,l,2.186640653060749,1,99,0,169.16053092095535,170.66082277998794,170.66082277998794,171.1611458309926,,,,,,,,,,,,,,,,,,,,,,,,,,,,,,,,,,,,,,,,,,,,,,,,,,,,,,,,,,,,,,,,,99099,2022-11-03_14h14.51.471,vts_reward_expectancy_bt_OFFLINE,2022.2.4,60.13734898220535,
0,0,1,0,0,0,0,1,hexagon,star,0,0,0,0,1,6,18,8,,,,,,,,,,,,,,,,,,,,,,,,,,,,,,,,,,,,,,,,171.1611458309926,171.1611458309926,171.1611458309926,171.1611458309926,171.1611458309926,171.1611458309926,171.1611458309926,171.1611458309926,171.1611458309926,171.1611458309926,a,3.7262444710358977,1,100,0,174.91456276294775,176.41485174302943,176.41485174302943,,,,,,,,,,,,,,,,,,,,,,,,,,,,,,,,,,,,,,,,,,,,,,,,,,,,,,,,,,,,,,,,,,99099,2022-11-03_14h14.51.471,vts_reward_expectancy_bt_OFFLINE,2022.2.4,60.13734898220535,
1,0,0,0,0,0,1,0,triangle,hexagon,0,0,0,0,1,7,19,1,,,,,,,,,,,,,,,,,,,,,,,,,,,,,,,,,,,,,,,,176.9149928720435,176.9149928720435,176.9149928720435,176.9149928720435,176.9149928720435,176.9149928720435,176.9149928720435,176.9149928720435,176.9149928720435,176.9149928720435,l,2.8790214830078185,1,101,0,179.81791301001795,181.3186999609461,181.3186999609461,181.81843896501232,,,,,,,,,,,,,,,,,,,,,,,,,,,,,,,,,,,,,,,,,,,,,,,,,,,,,,,,,,,,,,,,,99099,2022-11-03_14h14.51.471,vts_reward_expectancy_bt_OFFLINE,2022.2.4,60.13734898220535,
0,0,0,1,0,0,1,0,star,hexagon,0,0,0,0,1,8,20,11,,,,,,,,,,,,,,,,,,,,,,,,,,,,,,,,,,,,,,,,181.81843896501232,181.81843896501232,181.81843896501232,181.81843896501232,181.81843896501232,181.81843896501232,181.81843896501232,181.81843896501232,181.81843896501232,181.81843896501232,a,1.2598623089725152,10,111,0,183.1035976719577,184.60481757402886,,,,,,,,,,,,,,,,,,,,,,,,,,,,,,,,,,,,,,,,,,,,,,,,,,,,,,,,,,,,,,,,,,,99099,2022-11-03_14h14.51.471,vts_reward_expectancy_bt_OFFLINE,2022.2.4,60.13734898220535,
0,0,0,1,1,0,0,0,star,triangle,0,0,0,0,1,9,21,9,,,,,,,,,,,,,,,,,,,,,,,,,,,,,,,,,,,,,,,,185.10497437196318,185.10497437196318,185.10497437196318,185.10497437196318,185.10497437196318,185.10497437196318,185.10497437196318,185.10497437196318,185.10497437196318,185.10497437196318,a,0.9428651030175388,10,121,0,186.07211947301403,187.57279617805034,187.57279617805034,188.0729699259391,,,,,,,,,,,,,,,,,,,,,,,,,,,,,,,,,,,,,,,,,,,,,,,,,,,,,,,,,,,,,,,,,99099,2022-11-03_14h14.51.471,vts_reward_expectancy_bt_OFFLINE,2022.2.4,60.13734898220535,
0,0,1,0,1,0,0,0,hexagon,triangle,0,0,0,0,1,10,22,6,,,,,,,,,,,,,,,,,,,,,,,,,,,,,,,,,,,,,,,,188.0729699259391,188.0729699259391,188.0729699259391,188.0729699259391,188.0729699259391,188.0729699259391,188.0729699259391,188.0729699259391,188.0729699259391,188.0729699259391,l,3.1283917009131983,10,131,0,191.2257231080439,192.7262426839443,192.7262426839443,,,,,,,,,,,,,,,,,,,,,,,,,,,,,,,,,,,,,,,,,,,,,,,,,,,,,,,,,,,,,,,,,,99099,2022-11-03_14h14.51.471,vts_reward_expectancy_bt_OFFLINE,2022.2.4,60.13734898220535,
1,0,0,0,0,1,0,0,triangle,circle,0,0,0,0,1,11,23,0,,,,,,,,,,,,,,,,,,,,,,,,,,,,,,,,,,,,,,,,193.22651822096668,193.22651822096668,193.22651822096668,193.22651822096668,193.22651822096668,193.22651822096668,193.22651822096668,193.22651822096668,193.22651822096668,193.22651822096668,l,2.3173649669624865,1,132,0,195.56363675696775,197.06309761095326,197.06309761095326,197.5631772580091,,,,,,,,,,,,,,,,,,,,,,,,,,,,,,,,,,,,,,,,,,,,,,,,,,,,,,,,,,,,,,,,,99099,2022-11-03_14h14.51.471,vts_reward_expectancy_bt_OFFLINE,2022.2.4,60.13734898220535,
1,0,0,0,0,0,1,0,triangle,hexagon,0,0,0,0,2,0,24,1,,,,,,,,,,,,,,,,,,,,,,,,,,,,,,,,,,,,,,,,197.5631772580091,197.5631772580091,197.5631772580091,197.5631772580091,197.5631772580091,197.5631772580091,197.5631772580091,197.5631772580091,197.5631772580091,197.5631772580091,l,1.5462532369419932,10,142,0,199.13325697404798,200.63297573605087,200.63297573605087,201.13311169703957,,,,,,,,,,,,,,,,,,,,,,,,,,,,,,,,,,,,,,,,,,,,,,,,,,,,,,,,,,,,,,,,,99099,2022-11-03_14h14.51.471,vts_reward_expectancy_bt_OFFLINE,2022.2.4,60.13734898220535,
0,0,0,1,0,0,1,0,star,hexagon,0,0,0,0,2,1,25,11,,,,,,,,,,,,,,,,,,,,,,,,,,,,,,,,,,,,,,,,201.13311169703957,201.13311169703957,201.13311169703957,201.13311169703957,201.13311169703957,201.13311169703957,201.13311169703957,201.13311169703957,201.13311169703957,201.13311169703957,a,1.2848138570552692,1,143,0,202.45020374294836,203.95291918504518,,,,,,,,,,,,,,,,,,,,,,,,,,,,,,,,,,,,,,,,,,,,,,,,,,,,,,,,,,,,,,,,,,,99099,2022-11-03_14h14.51.471,vts_reward_expectancy_bt_OFFLINE,2022.2.4,60.13734898220535,
0,1,0,0,0,0,1,0,circle,hexagon,0,0,0,0,2,2,26,4,,,,,,,,,,,,,,,,,,,,,,,,,,,,,,,,,,,,,,,,204.45307223603595,204.45307223603595,204.45307223603595,204.45307223603595,204.45307223603595,204.45307223603595,204.45307223603595,204.45307223603595,204.45307223603595,204.45307223603595,l,1.7441380060045049,10,153,0,206.22192130296025,207.73704808903858,,,,,,,,,,,,,,,,,,,,,,,,,,,,,,,,,,,,,,,,,,,,,,,,,,,,,,,,,,,,,,,,,,,99099,2022-11-03_14h14.51.471,vts_reward_expectancy_bt_OFFLINE,2022.2.4,60.13734898220535,
0,1,0,0,0,0,0,1,circle,star,0,0,0,0,2,3,27,5,,,,,,,,,,,,,,,,,,,,,,,,,,,,,,,,,,,,,,,,208.23719459504355,208.23719459504355,208.23719459504355,208.23719459504355,208.23719459504355,208.23719459504355,208.23719459504355,208.23719459504355,208.23719459504355,208.23719459504355,l,2.3709151970688254,1,154,0,210.64011091494467,212.14081320294645,212.14081320294645,212.64086866099387,,,,,,,,,,,,,,,,,,,,,,,,,,,,,,,,,,,,,,,,,,,,,,,,,,,,,,,,,,,,,,,,,99099,2022-11-03_14h14.51.471,vts_reward_expectancy_bt_OFFLINE,2022.2.4,60.13734898220535,
0,0,1,0,0,1,0,0,hexagon,circle,0,0,0,0,2,4,28,7,,,,,,,,,,,,,,,,,,,,,,,,,,,,,,,,,,,,,,,,212.64086866099387,212.64086866099387,212.64086866099387,212.64086866099387,212.64086866099387,212.64086866099387,212.64086866099387,212.64086866099387,212.64086866099387,212.64086866099387,a,2.298749246983789,10,164,0,214.9612095199991,216.46087681199424,216.46087681199424,216.96104483597446,,,,,,,,,,,,,,,,,,,,,,,,,,,,,,,,,,,,,,,,,,,,,,,,,,,,,,,,,,,,,,,,,99099,2022-11-03_14h14.51.471,vts_reward_expectancy_bt_OFFLINE,2022.2.4,60.13734898220535,
0,0,0,1,0,1,0,0,star ,circle,0,0,0,0,2,5,29,10,,,,,,,,,,,,,,,,,,,,,,,,,,,,,,,,,,,,,,,,216.96104483597446,216.96104483597446,216.96104483597446,216.96104483597446,216.96104483597446,216.96104483597446,216.96104483597446,216.96104483597446,216.96104483597446,216.96104483597446,l,1.9164723809808493,1,165,0,218.89775155193638,220.39743468095548,220.39743468095548,220.89737746701576,,,,,,,,,,,,,,,,,,,,,,,,,,,,,,,,,,,,,,,,,,,,,,,,,,,,,,,,,,,,,,,,,99099,2022-11-03_14h14.51.471,vts_reward_expectancy_bt_OFFLINE,2022.2.4,60.13734898220535,
0,0,1,0,1,0,0,0,hexagon,triangle,0,0,0,0,2,6,30,6,,,,,,,,,,,,,,,,,,,,,,,,,,,,,,,,,,,,,,,,220.89737746701576,220.89737746701576,220.89737746701576,220.89737746701576,220.89737746701576,220.89737746701576,220.89737746701576,220.89737746701576,220.89737746701576,220.89737746701576,a,2.8844480629777536,1,166,0,223.80025698803365,225.30087318003643,225.30087318003643,225.8011373160407,,,,,,,,,,,,,,,,,,,,,,,,,,,,,,,,,,,,,,,,,,,,,,,,,,,,,,,,,,,,,,,,,99099,2022-11-03_14h14.51.471,vts_reward_expectancy_bt_OFFLINE,2022.2.4,60.13734898220535,
1,0,0,0,0,0,0,1,triangle,star,0,0,0,0,2,7,31,2,,,,,,,,,,,,,,,,,,,,,,,,,,,,,,,,,,,,,,,,225.8011373160407,225.8011373160407,225.8011373160407,225.8011373160407,225.8011373160407,225.8011373160407,225.8011373160407,225.8011373160407,225.8011373160407,225.8011373160407,l,1.8505008011125028,10,176,0,227.66950790397823,229.17060094699264,,,,,,,,,,,,,,,,,,,,,,,,,,,,,,,,,,,,,,,,,,,,,,,,,,,,,,,,,,,,,,,,,,,99099,2022-11-03_14h14.51.471,vts_reward_expectancy_bt_OFFLINE,2022.2.4,60.13734898220535,
0,1,0,0,1,0,0,0,circle,triangle,0,0,0,0,2,8,32,3,,,,,,,,,,,,,,,,,,,,,,,,,,,,,,,,,,,,,,,,229.6711150240153,229.6711150240153,229.6711150240153,229.6711150240153,229.6711150240153,229.6711150240153,229.6711150240153,229.6711150240153,229.6711150240153,229.6711150240153,l,3.7187919560819864,10,186,0,233.42204980400857,234.9249970719684,,,,,,,,,,,,,,,,,,,,,,,,,,,,,,,,,,,,,,,,,,,,,,,,,,,,,,,,,,,,,,,,,,,99099,2022-11-03_14h14.51.471,vts_reward_expectancy_bt_OFFLINE,2022.2.4,60.13734898220535,
0,0,0,1,1,0,0,0,star,triangle,0,0,0,0,2,9,33,9,,,,,,,,,,,,,,,,,,,,,,,,,,,,,,,,,,,,,,,,235.42525706801098,235.42525706801098,235.42525706801098,235.42525706801098,235.42525706801098,235.42525706801098,235.42525706801098,235.42525706801098,235.42525706801098,235.42525706801098,l,2.1049921229714528,10,196,0,237.5588403410511,239.061173983966,,,,,,,,,,,,,,,,,,,,,,,,,,,,,,,,,,,,,,,,,,,,,,,,,,,,,,,,,,,,,,,,,,,99099,2022-11-03_14h14.51.471,vts_reward_expectancy_bt_OFFLINE,2022.2.4,60.13734898220535,
1,0,0,0,0,1,0,0,triangle,circle,0,0,0,0,2,10,34,0,,,,,,,,,,,,,,,,,,,,,,,,,,,,,,,,,,,,,,,,239.5616215839982,239.5616215839982,239.5616215839982,239.5616215839982,239.5616215839982,239.5616215839982,239.5616215839982,239.5616215839982,239.5616215839982,239.5616215839982,a,1.3881090030772611,10,206,0,240.97880740393884,242.4791720409412,242.4791720409412,242.97943724493962,,,,,,,,,,,,,,,,,,,,,,,,,,,,,,,,,,,,,,,,,,,,,,,,,,,,,,,,,,,,,,,,,99099,2022-11-03_14h14.51.471,vts_reward_expectancy_bt_OFFLINE,2022.2.4,60.13734898220535,
0,0,1,0,0,0,0,1,hexagon,star,0,0,0,0,2,11,35,8,,,,,,,,,,,,,,,,,,,,,,,,,,,,,,,,,,,,,,,,242.97943724493962,242.97943724493962,242.97943724493962,242.97943724493962,242.97943724493962,242.97943724493962,242.97943724493962,242.97943724493962,242.97943724493962,242.97943724493962,l,2.864861701033078,10,216,0,245.8656034549931,247.36631876102183,247.36631876102183,247.86670376197435,,,,,,,,,,,,,,,,,,,,,,,,,,,,,,,,,,,,,,,,,,,,,,,,,,,,,,,,,,,,,,,,,99099,2022-11-03_14h14.51.471,vts_reward_expectancy_bt_OFFLINE,2022.2.4,60.13734898220535,
0,1,0,0,1,0,0,0,circle,triangle,0,0,0,0,3,0,36,3,,,,,,,,,,,,,,,,,,,,,,,,,,,,,,,,,,,,,,,,247.86670376197435,247.86670376197435,247.86670376197435,247.86670376197435,247.86670376197435,247.86670376197435,247.86670376197435,247.86670376197435,247.86670376197435,247.86670376197435,a,4.36715085292235,1,217,0,252.25438431999646,253.7558136100415,,,,,,,,,,,,,,,,,,,,,,,,,,,,,,,,,,,,,,,,,,,,,,,,,,,,,,,,,,,,,,,,,,,99099,2022-11-03_14h14.51.471,vts_reward_expectancy_bt_OFFLINE,2022.2.4,60.13734898220535,
0,0,1,0,1,0,0,0,hexagon,triangle,0,0,0,0,3,1,37,6,,,,,,,,,,,,,,,,,,,,,,,,,,,,,,,,,,,,,,,,254.2560497620143,254.2560497620143,254.2560497620143,254.2560497620143,254.2560497620143,254.2560497620143,254.2560497620143,254.2560497620143,254.2560497620143,254.2560497620143,l,0.9705651740077883,10,227,0,255.25923830200918,256.75649545993656,,,,,,,,,,,,,,,,,,,,,,,,,,,,,,,,,,,,,,,,,,,,,,,,,,,,,,,,,,,,,,,,,,,99099,2022-11-03_14h14.51.471,vts_reward_expectancy_bt_OFFLINE,2022.2.4,60.13734898220535,
0,0,0,1,1,0,0,0,star,triangle,0,0,0,0,3,2,38,9,,,,,,,,,,,,,,,,,,,,,,,,,,,,,,,,,,,,,,,,257.2568562380038,257.2568562380038,257.2568562380038,257.2568562380038,257.2568562380038,257.2568562380038,257.2568562380038,257.2568562380038,257.2568562380038,257.2568562380038,l,2.8523244010284543,10,237,0,260.1261911019683,261.6268698120257,261.6268698120257,262.12695473397616,,,,,,,,,,,,,,,,,,,,,,,,,,,,,,,,,,,,,,,,,,,,,,,,,,,,,,,,,,,,,,,,,99099,2022-11-03_14h14.51.471,vts_reward_expectancy_bt_OFFLINE,2022.2.4,60.13734898220535,
0,0,0,1,0,0,1,0,star,hexagon,0,0,0,0,3,3,39,11,,,,,,,,,,,,,,,,,,,,,,,,,,,,,,,,,,,,,,,,262.12695473397616,262.12695473397616,262.12695473397616,262.12695473397616,262.12695473397616,262.12695473397616,262.12695473397616,262.12695473397616,262.12695473397616,262.12695473397616,a,2.2462138379924,10,247,0,264.3967994429404,265.89718998095486,265.89718998095486,266.39702518400736,,,,,,,,,,,,,,,,,,,,,,,,,,,,,,,,,,,,,,,,,,,,,,,,,,,,,,,,,,,,,,,,,99099,2022-11-03_14h14.51.471,vts_reward_expectancy_bt_OFFLINE,2022.2.4,60.13734898220535,
1,0,0,0,0,0,1,0,triangle,hexagon,0,0,0,0,3,4,40,1,,,,,,,,,,,,,,,,,,,,,,,,,,,,,,,,,,,,,,,,266.39702518400736,266.39702518400736,266.39702518400736,266.39702518400736,266.39702518400736,266.39702518400736,266.39702518400736,266.39702518400736,266.39702518400736,266.39702518400736,a,2.915357604972087,10,257,0,269.33322598203085,270.8338267230429,270.8338267230429,271.3339986290084,,,,,,,,,,,,,,,,,,,,,,,,,,,,,,,,,,,,,,,,,,,,,,,,,,,,,,,,,,,,,,,,,99099,2022-11-03_14h14.51.471,vts_reward_expectancy_bt_OFFLINE,2022.2.4,60.13734898220535,
0,0,0,1,0,1,0,0,star ,circle,0,0,0,0,3,5,41,10,,,,,,,,,,,,,,,,,,,,,,,,,,,,,,,,,,,,,,,,271.3339986290084,271.3339986290084,271.3339986290084,271.3339986290084,271.3339986290084,271.3339986290084,271.3339986290084,271.3339986290084,271.3339986290084,271.3339986290084,l,3.7941403640434146,1,258,0,275.1551682440331,276.6548305590404,276.6548305590404,277.15504255797714,,,,,,,,,,,,,,,,,,,,,,,,,,,,,,,,,,,,,,,,,,,,,,,,,,,,,,,,,,,,,,,,,99099,2022-11-03_14h14.51.471,vts_reward_expectancy_bt_OFFLINE,2022.2.4,60.13734898220535,
0,1,0,0,0,0,1,0,circle,hexagon,0,0,0,0,3,6,42,4,,,,,,,,,,,,,,,,,,,,,,,,,,,,,,,,,,,,,,,,277.15504255797714,277.15504255797714,277.15504255797714,277.15504255797714,277.15504255797714,277.15504255797714,277.15504255797714,277.15504255797714,277.15504255797714,277.15504255797714,l,0.8985646860674024,1,259,0,278.07169984898064,279.57437054696493,,,,,,,,,,,,,,,,,,,,,,,,,,,,,,,,,,,,,,,,,,,,,,,,,,,,,,,,,,,,,,,,,,,99099,2022-11-03_14h14.51.471,vts_reward_expectancy_bt_OFFLINE,2022.2.4,60.13734898220535,
0,0,1,0,0,1,0,0,hexagon,circle,0,0,0,0,3,7,43,7,,,,,,,,,,,,,,,,,,,,,,,,,,,,,,,,,,,,,,,,280.0747982970206,280.0747982970206,280.0747982970206,280.0747982970206,280.0747982970206,280.0747982970206,280.0747982970206,280.0747982970206,280.0747982970206,280.0747982970206,l,1.0389152569696307,10,269,0,281.14277747203596,282.6418639710173,282.6418639710173,283.1419798959978,,,,,,,,,,,,,,,,,,,,,,,,,,,,,,,,,,,,,,,,,,,,,,,,,,,,,,,,,,,,,,,,,99099,2022-11-03_14h14.51.471,vts_reward_expectancy_bt_OFFLINE,2022.2.4,60.13734898220535,
1,0,0,0,0,0,0,1,triangle,star,0,0,0,0,3,8,44,2,,,,,,,,,,,,,,,,,,,,,,,,,,,,,,,,,,,,,,,,283.1419798959978,283.1419798959978,283.1419798959978,283.1419798959978,283.1419798959978,283.1419798959978,283.1419798959978,283.1419798959978,283.1419798959978,283.1419798959978,l,2.0668617809424177,10,279,0,285.22779078397434,286.7282773240004,286.7282773240004,287.22832367697265,,,,,,,,,,,,,,,,,,,,,,,,,,,,,,,,,,,,,,,,,,,,,,,,,,,,,,,,,,,,,,,,,99099,2022-11-03_14h14.51.471,vts_reward_expectancy_bt_OFFLINE,2022.2.4,60.13734898220535,
0,1,0,0,0,0,0,1,circle,star,0,0,0,0,3,9,45,5,,,,,,,,,,,,,,,,,,,,,,,,,,,,,,,,,,,,,,,,287.22832367697265,287.22832367697265,287.22832367697265,287.22832367697265,287.22832367697265,287.22832367697265,287.22832367697265,287.22832367697265,287.22832367697265,287.22832367697265,l,1.2436202130047604,10,289,0,288.4909917230252,289.99818418896757,,,,,,,,,,,,,,,,,,,,,,,,,,,,,,,,,,,,,,,,,,,,,,,,,,,,,,,,,,,,,,,,,,,99099,2022-11-03_14h14.51.471,vts_reward_expectancy_bt_OFFLINE,2022.2.4,60.13734898220535,
0,0,1,0,0,0,0,1,hexagon,star,0,0,0,0,3,10,46,8,,,,,,,,,,,,,,,,,,,,,,,,,,,,,,,,,,,,,,,,290.4981518080458,290.4981518080458,290.4981518080458,290.4981518080458,290.4981518080458,290.4981518080458,290.4981518080458,290.4981518080458,290.4981518080458,290.4981518080458,a,0.9213878390146419,1,290,0,291.4498721229611,292.9490893080365,292.9490893080365,,,,,,,,,,,,,,,,,,,,,,,,,,,,,,,,,,,,,,,,,,,,,,,,,,,,,,,,,,,,,,,,,,99099,2022-11-03_14h14.51.471,vts_reward_expectancy_bt_OFFLINE,2022.2.4,60.13734898220535,
1,0,0,0,0,1,0,0,triangle,circle,0,0,0,0,3,11,47,0,,,,,,,,,,,,,,,,,,,,,,,,,,,,,,,,,,,,,,,,293.44956878595985,293.44956878595985,293.44956878595985,293.44956878595985,293.44956878595985,293.44956878595985,293.44956878595985,293.44956878595985,293.44956878595985,293.44956878595985,a,2.6718965959735215,10,300,0,296.15237264800817,297.6525870630285,297.6525870630285,298.15923760295846,,,,,,,,,,,,,,,,,,,,,,,,,,,,,,,,,,,,,,,,,,,,,,,,,,,,,,,,,,,,,,,,,99099,2022-11-03_14h14.51.471,vts_reward_expectancy_bt_OFFLINE,2022.2.4,60.13734898220535,
1,0,0,0,0,1,0,0,triangle,circle,1,0,1,0,0,0,0,0,,,,,,,,,,,,,,,,,,,,,,,,,,,,,,,,,,,,,,,,305.152705488028,305.152705488028,305.152705488028,305.152705488028,305.152705488028,305.152705488028,305.152705488028,305.152705488028,305.152705488028,305.152705488028,a,2.67026105010882,1,301,1,307.84454352094326,309.34556528995745,,,,,,,,,,,,,,,,,,,,,,,,,,,,,,,,,,,,,,,,,,,,,,,,,,,,,,,,,,,,,,,,,,,99099,2022-11-03_14h14.51.471,vts_reward_expectancy_bt_OFFLINE,2022.2.4,60.13734898220535,
0,0,0,1,0,1,0,0,star ,circle,1,0,1,0,0,1,1,10,,,,,,,,,,,,,,,,,,,,,,,,,,,,,,,,,,,,,,,,309.8459575959714,309.8459575959714,309.8459575959714,309.8459575959714,309.8459575959714,309.8459575959714,309.8459575959714,309.8459575959714,309.8459575959714,309.8459575959714,a,0.856095805997029,1,302,1,310.72973499202635,312.2303687930107,312.2303687930107,312.73084950400516,,,,,,,,,,,,,,,,,,,,,,,,,,,,,,,,,,,,,,,,,,,,,,,,,,,,,,,,,,,,,,,,,99099,2022-11-03_14h14.51.471,vts_reward_expectancy_bt_OFFLINE,2022.2.4,60.13734898220535,
0,1,0,0,0,0,0,1,circle,star,1,0,1,0,0,2,2,5,,,,,,,,,,,,,,,,,,,,,,,,,,,,,,,,,,,,,,,,312.73084950400516,312.73084950400516,312.73084950400516,312.73084950400516,312.73084950400516,312.73084950400516,312.73084950400516,312.73084950400516,312.73084950400516,312.73084950400516,a,1.0648308279924095,10,312,1,313.8173959789565,315.31636706599966,315.31636706599966,315.8165786470054,,,,,,,,,,,,,,,,,,,,,,,,,,,,,,,,,,,,,,,,,,,,,,,,,,,,,,,,,,,,,,,,,99099,2022-11-03_14h14.51.471,vts_reward_expectancy_bt_OFFLINE,2022.2.4,60.13734898220535,
1,0,0,0,0,0,0,1,triangle,star,1,0,1,0,0,3,3,2,,,,,,,,,,,,,,,,,,,,,,,,,,,,,,,,,,,,,,,,315.8165786470054,315.8165786470054,315.8165786470054,315.8165786470054,315.8165786470054,315.8165786470054,315.8165786470054,315.8165786470054,315.8165786470054,315.8165786470054,a,1.2434708279324695,10,322,1,317.083635302959,318.5864334560465,,,,,,,,,,,,,,,,,,,,,,,,,,,,,,,,,,,,,,,,,,,,,,,,,,,,,,,,,,,,,,,,,,,99099,2022-11-03_14h14.51.471,vts_reward_expectancy_bt_OFFLINE,2022.2.4,60.13734898220535,
0,0,0,1,1,0,0,0,star,triangle,1,0,1,0,0,4,4,9,,,,,,,,,,,,,,,,,,,,,,,,,,,,,,,,,,,,,,,,319.0865701229777,319.0865701229777,319.0865701229777,319.0865701229777,319.0865701229777,319.0865701229777,319.0865701229777,319.0865701229777,319.0865701229777,319.0865701229777,l,1.257503104978241,1,323,1,320.371353731025,321.8707741999533,321.8707741999533,322.3709951710189,,,,,,,,,,,,,,,,,,,,,,,,,,,,,,,,,,,,,,,,,,,,,,,,,,,,,,,,,,,,,,,,,99099,2022-11-03_14h14.51.471,vts_reward_expectancy_bt_OFFLINE,2022.2.4,60.13734898220535,
0,0,1,0,0,1,0,0,hexagon,circle,1,0,1,0,0,5,5,7,,,,,,,,,,,,,,,,,,,,,,,,,,,,,,,,,,,,,,,,322.3709951710189,322.3709951710189,322.3709951710189,322.3709951710189,322.3709951710189,322.3709951710189,322.3709951710189,322.3709951710189,322.3709951710189,322.3709951710189,a,1.3475600850069895,1,324,1,323.7398562160088,325.2404286370147,325.2404286370147,325.74072091502603,,,,,,,,,,,,,,,,,,,,,,,,,,,,,,,,,,,,,,,,,,,,,,,,,,,,,,,,,,,,,,,,,99099,2022-11-03_14h14.51.471,vts_reward_expectancy_bt_OFFLINE,2022.2.4,60.13734898220535,
1,0,0,0,0,0,1,0,triangle,hexagon,1,0,1,0,0,6,6,1,,,,,,,,,,,,,,,,,,,,,,,,,,,,,,,,,,,,,,,,325.74072091502603,325.74072091502603,325.74072091502603,325.74072091502603,325.74072091502603,325.74072091502603,325.74072091502603,325.74072091502603,325.74072091502603,325.74072091502603,l,0.982375327963382,1,325,1,326.7408558749594,328.2415322739398,328.2415322739398,,,,,,,,,,,,,,,,,,,,,,,,,,,,,,,,,,,,,,,,,,,,,,,,,,,,,,,,,,,,,,,,,,99099,2022-11-03_14h14.51.471,vts_reward_expectancy_bt_OFFLINE,2022.2.4,60.13734898220535,
0,1,0,0,0,0,1,0,circle,hexagon,1,0,1,0,0,7,7,4,,,,,,,,,,,,,,,,,,,,,,,,,,,,,,,,,,,,,,,,328.74399582401384,328.74399582401384,328.74399582401384,328.74399582401384,328.74399582401384,328.74399582401384,328.74399582401384,328.74399582401384,328.74399582401384,328.74399582401384,a,1.8036820020060986,10,335,1,330.5781512110261,332.0778824710287,332.0778824710287,332.57821683504153,,,,,,,,,,,,,,,,,,,,,,,,,,,,,,,,,,,,,,,,,,,,,,,,,,,,,,,,,,,,,,,,,99099,2022-11-03_14h14.51.471,vts_reward_expectancy_bt_OFFLINE,2022.2.4,60.13734898220535,
0,0,1,0,1,0,0,0,hexagon,triangle,1,0,1,0,0,8,8,6,,,,,,,,,,,,,,,,,,,,,,,,,,,,,,,,,,,,,,,,332.57821683504153,332.57821683504153,332.57821683504153,332.57821683504153,332.57821683504153,332.57821683504153,332.57821683504153,332.57821683504153,332.57821683504153,332.57821683504153,a,1.434731432935223,10,345,1,334.03034783597104,335.53091481199954,335.53091481199954,,,,,,,,,,,,,,,,,,,,,,,,,,,,,,,,,,,,,,,,,,,,,,,,,,,,,,,,,,,,,,,,,,99099,2022-11-03_14h14.51.471,vts_reward_expectancy_bt_OFFLINE,2022.2.4,60.13734898220535,
0,0,0,1,0,0,1,0,star,hexagon,1,0,1,0,0,9,9,11,,,,,,,,,,,,,,,,,,,,,,,,,,,,,,,,,,,,,,,,336.03127577598207,336.03127577598207,336.03127577598207,336.03127577598207,336.03127577598207,336.03127577598207,336.03127577598207,336.03127577598207,336.03127577598207,336.03127577598207,l,1.7390971459681168,1,346,1,337.7997303339653,339.3013285989873,,,,,,,,,,,,,,,,,,,,,,,,,,,,,,,,,,,,,,,,,,,,,,,,,,,,,,,,,,,,,,,,,,,99099,2022-11-03_14h14.51.471,vts_reward_expectancy_bt_OFFLINE,2022.2.4,60.13734898220535,
0,0,1,0,0,0,0,1,hexagon,star,1,0,1,0,0,10,10,8,,,,,,,,,,,,,,,,,,,,,,,,,,,,,,,,,,,,,,,,339.8014737749472,339.8014737749472,339.8014737749472,339.8014737749472,339.8014737749472,339.8014737749472,339.8014737749472,339.8014737749472,339.8014737749472,339.8014737749472,l,1.4339837500592694,1,347,1,341.2681637009373,342.76886895496864,342.76886895496864,343.26886769896373,,,,,,,,,,,,,,,,,,,,,,,,,,,,,,,,,,,,,,,,,,,,,,,,,,,,,,,,,,,,,,,,,99099,2022-11-03_14h14.51.471,vts_reward_expectancy_bt_OFFLINE,2022.2.4,60.13734898220535,
0,1,0,0,1,0,0,0,circle,triangle,1,0,1,0,0,11,11,3,,,,,,,,,,,,,,,,,,,,,,,,,,,,,,,,,,,,,,,,343.26886769896373,343.26886769896373,343.26886769896373,343.26886769896373,343.26886769896373,343.26886769896373,343.26886769896373,343.26886769896373,343.26886769896373,343.26886769896373,a,4.875418551033363,1,348,1,348.17252419900615,349.67485257494263,,,,,,,,,,,,,,,,,,,,,,,,,,,,,,,,,,,,,,,,,,,,,,,,,,,,,,,,,,,,,,,,,,,99099,2022-11-03_14h14.51.471,vts_reward_expectancy_bt_OFFLINE,2022.2.4,60.13734898220535,
0,0,0,1,0,1,0,0,star ,circle,1,0,1,0,1,0,12,10,,,,,,,,,,,,,,,,,,,,,,,,,,,,,,,,,,,,,,,,350.1753330839565,350.1753330839565,350.1753330839565,350.1753330839565,350.1753330839565,350.1753330839565,350.1753330839565,350.1753330839565,350.1753330839565,350.1753330839565,l,1.1404383908957243,1,349,1,351.3423554779729,352.8427303089993,352.8427303089993,353.3429510400165,,,,,,,,,,,,,,,,,,,,,,,,,,,,,,,,,,,,,,,,,,,,,,,,,,,,,,,,,,,,,,,,,99099,2022-11-03_14h14.51.471,vts_reward_expectancy_bt_OFFLINE,2022.2.4,60.13734898220535,
0,1,0,0,0,0,1,0,circle,hexagon,1,0,1,0,1,1,13,4,,,,,,,,,,,,,,,,,,,,,,,,,,,,,,,,,,,,,,,,353.3429510400165,353.3429510400165,353.3429510400165,353.3429510400165,353.3429510400165,353.3429510400165,353.3429510400165,353.3429510400165,353.3429510400165,353.3429510400165,l,1.6413744420278817,1,350,1,355.01206111104693,356.5127242299495,356.5127242299495,357.0127738240408,,,,,,,,,,,,,,,,,,,,,,,,,,,,,,,,,,,,,,,,,,,,,,,,,,,,,,,,,,,,,,,,,99099,2022-11-03_14h14.51.471,vts_reward_expectancy_bt_OFFLINE,2022.2.4,60.13734898220535,
0,0,0,1,0,0,1,0,star,hexagon,1,0,1,0,1,2,14,11,,,,,,,,,,,,,,,,,,,,,,,,,,,,,,,,,,,,,,,,357.0127738240408,357.0127738240408,357.0127738240408,357.0127738240408,357.0127738240408,357.0127738240408,357.0127738240408,357.0127738240408,357.0127738240408,357.0127738240408,a,0.8517818769905716,10,360,1,357.8964371449547,359.3987746220082,,,,,,,,,,,,,,,,,,,,,,,,,,,,,,,,,,,,,,,,,,,,,,,,,,,,,,,,,,,,,,,,,,,99099,2022-11-03_14h14.51.471,vts_reward_expectancy_bt_OFFLINE,2022.2.4,60.13734898220535,
0,0,1,0,1,0,0,0,hexagon,triangle,1,0,1,0,1,3,15,6,,,,,,,,,,,,,,,,,,,,,,,,,,,,,,,,,,,,,,,,359.89897952903993,359.89897952903993,359.89897952903993,359.89897952903993,359.89897952903993,359.89897952903993,359.89897952903993,359.89897952903993,359.89897952903993,359.89897952903993,a,1.2504503260133788,1,361,1,361.1676831590012,362.66676585702226,362.66676585702226,363.1670776050305,,,,,,,,,,,,,,,,,,,,,,,,,,,,,,,,,,,,,,,,,,,,,,,,,,,,,,,,,,,,,,,,,99099,2022-11-03_14h14.51.471,vts_reward_expectancy_bt_OFFLINE,2022.2.4,60.13734898220535,
0,0,0,1,1,0,0,0,star,triangle,1,0,1,0,1,4,16,9,,,,,,,,,,,,,,,,,,,,,,,,,,,,,,,,,,,,,,,,363.1670776050305,363.1670776050305,363.1670776050305,363.1670776050305,363.1670776050305,363.1670776050305,363.1670776050305,363.1670776050305,363.1670776050305,363.1670776050305,l,0.7939367690123618,10,371,1,363.9869920229539,365.4864533749642,365.4864533749642,365.98672133800574,,,,,,,,,,,,,,,,,,,,,,,,,,,,,,,,,,,,,,,,,,,,,,,,,,,,,,,,,,,,,,,,,99099,2022-11-03_14h14.51.471,vts_reward_expectancy_bt_OFFLINE,2022.2.4,60.13734898220535,
1,0,0,0,0,0,1,0,triangle,hexagon,1,0,1,0,1,5,17,1,,,,,,,,,,,,,,,,,,,,,,,,,,,,,,,,,,,,,,,,365.98672133800574,365.98672133800574,365.98672133800574,365.98672133800574,365.98672133800574,365.98672133800574,365.98672133800574,365.98672133800574,365.98672133800574,365.98672133800574,l,0.7881863709772006,1,372,1,366.80496985604987,368.3040772449458,368.3040772449458,,,,,,,,,,,,,,,,,,,,,,,,,,,,,,,,,,,,,,,,,,,,,,,,,,,,,,,,,,,,,,,,,,99099,2022-11-03_14h14.51.471,vts_reward_expectancy_bt_OFFLINE,2022.2.4,60.13734898220535,
0,1,0,0,1,0,0,0,circle,triangle,1,0,1,0,1,6,18,3,,,,,,,,,,,,,,,,,,,,,,,,,,,,,,,,,,,,,,,,368.8059077359503,368.8059077359503,368.8059077359503,368.8059077359503,368.8059077359503,368.8059077359503,368.8059077359503,368.8059077359503,368.8059077359503,368.8059077359503,a,1.029143197927624,10,382,1,369.85785815503914,371.35677010798827,371.35677010798827,371.8568143110024,,,,,,,,,,,,,,,,,,,,,,,,,,,,,,,,,,,,,,,,,,,,,,,,,,,,,,,,,,,,,,,,,99099,2022-11-03_14h14.51.471,vts_reward_expectancy_bt_OFFLINE,2022.2.4,60.13734898220535,
1,0,0,0,0,0,0,1,triangle,star,1,0,1,0,1,7,19,2,,,,,,,,,,,,,,,,,,,,,,,,,,,,,,,,,,,,,,,,371.8568143110024,371.8568143110024,371.8568143110024,371.8568143110024,371.8568143110024,371.8568143110024,371.8568143110024,371.8568143110024,371.8568143110024,371.8568143110024,a,1.2858143970370293,10,392,1,373.17434431798756,374.6764183549676,,,,,,,,,,,,,,,,,,,,,,,,,,,,,,,,,,,,,,,,,,,,,,,,,,,,,,,,,,,,,,,,,,,99099,2022-11-03_14h14.51.471,vts_reward_expectancy_bt_OFFLINE,2022.2.4,60.13734898220535,
0,0,1,0,0,1,0,0,hexagon,circle,1,0,1,0,1,8,20,7,,,,,,,,,,,,,,,,,,,,,,,,,,,,,,,,,,,,,,,,375.1768488009693,375.1768488009693,375.1768488009693,375.1768488009693,375.1768488009693,375.1768488009693,375.1768488009693,375.1768488009693,375.1768488009693,375.1768488009693,l,1.6556659450288862,1,393,1,376.8624345900025,378.3777171380352,,,,,,,,,,,,,,,,,,,,,,,,,,,,,,,,,,,,,,,,,,,,,,,,,,,,,,,,,,,,,,,,,,,99099,2022-11-03_14h14.51.471,vts_reward_expectancy_bt_OFFLINE,2022.2.4,60.13734898220535,
1,0,0,0,0,1,0,0,triangle,circle,1,0,1,0,1,9,21,0,,,,,,,,,,,,,,,,,,,,,,,,,,,,,,,,,,,,,,,,378.86302894505206,378.86302894505206,378.86302894505206,378.86302894505206,378.86302894505206,378.86302894505206,378.86302894505206,378.86302894505206,378.86302894505206,378.86302894505206,a,1.8392136129550636,10,403,1,380.7322344100103,382.24778453598265,,,,,,,,,,,,,,,,,,,,,,,,,,,,,,,,,,,,,,,,,,,,,,,,,,,,,,,,,,,,,,,,,,,99099,2022-11-03_14h14.51.471,vts_reward_expectancy_bt_OFFLINE,2022.2.4,60.13734898220535,
0,1,0,0,0,0,0,1,circle,star,1,0,1,0,1,10,22,5,,,,,,,,,,,,,,,,,,,,,,,,,,,,,,,,,,,,,,,,382.7316646720283,382.7316646720283,382.7316646720283,382.7316646720283,382.7316646720283,382.7316646720283,382.7316646720283,382.7316646720283,382.7316646720283,382.7316646720283,a,1.3228155229007825,10,413,1,384.0835649620276,385.584138487,385.584138487,386.0844646890182,,,,,,,,,,,,,,,,,,,,,,,,,,,,,,,,,,,,,,,,,,,,,,,,,,,,,,,,,,,,,,,,,99099,2022-11-03_14h14.51.471,vts_reward_expectancy_bt_OFFLINE,2022.2.4,60.13734898220535,
0,0,1,0,0,0,0,1,hexagon,star,1,0,1,0,1,11,23,8,,,,,,,,,,,,,,,,,,,,,,,,,,,,,,,,,,,,,,,,386.0844646890182,386.0844646890182,386.0844646890182,386.0844646890182,386.0844646890182,386.0844646890182,386.0844646890182,386.0844646890182,386.0844646890182,386.0844646890182,l,3.505293096997775,10,423,1,389.6206800090149,391.12150555604603,391.12150555604603,391.6213961869944,,,,,,,,,,,,,,,,,,,,,,,,,,,,,,,,,,,,,,,,,,,,,,,,,,,,,,,,,,,,,,,,,99099,2022-11-03_14h14.51.471,vts_reward_expectancy_bt_OFFLINE,2022.2.4,60.13734898220535,
0,1,0,0,0,0,1,0,circle,hexagon,1,0,1,0,2,0,24,4,,,,,,,,,,,,,,,,,,,,,,,,,,,,,,,,,,,,,,,,391.6213961869944,391.6213961869944,391.6213961869944,391.6213961869944,391.6213961869944,391.6213961869944,391.6213961869944,391.6213961869944,391.6213961869944,391.6213961869944,l,2.0857177259167656,1,424,1,393.72557203797624,395.22466167993844,395.22466167993844,395.72472632699646,,,,,,,,,,,,,,,,,,,,,,,,,,,,,,,,,,,,,,,,,,,,,,,,,,,,,,,,,,,,,,,,,99099,2022-11-03_14h14.51.471,vts_reward_expectancy_bt_OFFLINE,2022.2.4,60.13734898220535,
0,0,1,0,1,0,0,0,hexagon,triangle,1,0,1,0,2,1,25,6,,,,,,,,,,,,,,,,,,,,,,,,,,,,,,,,,,,,,,,,395.72472632699646,395.72472632699646,395.72472632699646,395.72472632699646,395.72472632699646,395.72472632699646,395.72472632699646,395.72472632699646,395.72472632699646,395.72472632699646,a,1.7852089239750057,10,434,1,397.54205308295786,399.0448521010112,,,,,,,,,,,,,,,,,,,,,,,,,,,,,,,,,,,,,,,,,,,,,,,,,,,,,,,,,,,,,,,,,,,99099,2022-11-03_14h14.51.471,vts_reward_expectancy_bt_OFFLINE,2022.2.4,60.13734898220535,
1,0,0,0,0,0,0,1,triangle,star,1,0,1,0,2,2,26,2,,,,,,,,,,,,,,,,,,,,,,,,,,,,,,,,,,,,,,,,399.5448079339694,399.5448079339694,399.5448079339694,399.5448079339694,399.5448079339694,399.5448079339694,399.5448079339694,399.5448079339694,399.5448079339694,399.5448079339694,a,3.050928528071381,10,444,1,402.6123266130453,404.1147480730433,,,,,,,,,,,,,,,,,,,,,,,,,,,,,,,,,,,,,,,,,,,,,,,,,,,,,,,,,,,,,,,,,,,99099,2022-11-03_14h14.51.471,vts_reward_expectancy_bt_OFFLINE,2022.2.4,60.13734898220535,
0,0,1,0,0,1,0,0,hexagon,circle,1,0,1,0,2,3,27,7,,,,,,,,,,,,,,,,,,,,,,,,,,,,,,,,,,,,,,,,404.6153732249513,404.6153732249513,404.6153732249513,404.6153732249513,404.6153732249513,404.6153732249513,404.6153732249513,404.6153732249513,404.6153732249513,404.6153732249513,l,2.4350741730304435,10,454,1,407.08254049904644,408.5878472960321,,,,,,,,,,,,,,,,,,,,,,,,,,,,,,,,,,,,,,,,,,,,,,,,,,,,,,,,,,,,,,,,,,,99099,2022-11-03_14h14.51.471,vts_reward_expectancy_bt_OFFLINE,2022.2.4,60.13734898220535,
0,0,1,0,0,0,0,1,hexagon,star,1,0,1,0,2,4,28,8,,,,,,,,,,,,,,,,,,,,,,,,,,,,,,,,,,,,,,,,409.08498610102106,409.08498610102106,409.08498610102106,409.08498610102106,409.08498610102106,409.08498610102106,409.08498610102106,409.08498610102106,409.08498610102106,409.08498610102106,l,1.3740238540340215,10,464,1,410.48548596398905,411.9861204329645,411.9861204329645,412.48640464805067,,,,,,,,,,,,,,,,,,,,,,,,,,,,,,,,,,,,,,,,,,,,,,,,,,,,,,,,,,,,,,,,,99099,2022-11-03_14h14.51.471,vts_reward_expectancy_bt_OFFLINE,2022.2.4,60.13734898220535,
0,1,0,0,0,0,0,1,circle,star,1,0,1,0,2,5,29,5,,,,,,,,,,,,,,,,,,,,,,,,,,,,,,,,,,,,,,,,412.48640464805067,412.48640464805067,412.48640464805067,412.48640464805067,412.48640464805067,412.48640464805067,412.48640464805067,412.48640464805067,412.48640464805067,412.48640464805067,a,2.720521260984242,1,465,1,415.239131832961,416.7394942230312,416.7394942230312,417.23971152701415,,,,,,,,,,,,,,,,,,,,,,,,,,,,,,,,,,,,,,,,,,,,,,,,,,,,,,,,,,,,,,,,,99099,2022-11-03_14h14.51.471,vts_reward_expectancy_bt_OFFLINE,2022.2.4,60.13734898220535,
0,1,0,0,1,0,0,0,circle,triangle,1,0,1,0,2,6,30,3,,,,,,,,,,,,,,,,,,,,,,,,,,,,,,,,,,,,,,,,417.23971152701415,417.23971152701415,417.23971152701415,417.23971152701415,417.23971152701415,417.23971152701415,417.23971152701415,417.23971152701415,417.23971152701415,417.23971152701415,l,2.8836491190595552,10,475,1,420.14378450100776,421.64299262303393,421.64299262303393,422.14328289800324,,,,,,,,,,,,,,,,,,,,,,,,,,,,,,,,,,,,,,,,,,,,,,,,,,,,,,,,,,,,,,,,,99099,2022-11-03_14h14.51.471,vts_reward_expectancy_bt_OFFLINE,2022.2.4,60.13734898220535,
1,0,0,0,0,1,0,0,triangle,circle,1,0,1,0,2,7,31,0,,,,,,,,,,,,,,,,,,,,,,,,,,,,,,,,,,,,,,,,422.14328289800324,422.14328289800324,422.14328289800324,422.14328289800324,422.14328289800324,422.14328289800324,422.14328289800324,422.14328289800324,422.14328289800324,422.14328289800324,a,0.9959089070325717,10,485,1,423.1609800020233,424.6628279950237,,,,,,,,,,,,,,,,,,,,,,,,,,,,,,,,,,,,,,,,,,,,,,,,,,,,,,,,,,,,,,,,,,,99099,2022-11-03_14h14.51.471,vts_reward_expectancy_bt_OFFLINE,2022.2.4,60.13734898220535,
0,0,0,1,0,0,1,0,star,hexagon,1,0,1,0,2,8,32,11,,,,,,,,,,,,,,,,,,,,,,,,,,,,,,,,,,,,,,,,425.1630477060098,425.1630477060098,425.1630477060098,425.1630477060098,425.1630477060098,425.1630477060098,425.1630477060098,425.1630477060098,425.1630477060098,425.1630477060098,l,1.3841294039739296,1,486,1,426.58023853204213,428.08098040602636,428.08098040602636,428.57888055196963,,,,,,,,,,,,,,,,,,,,,,,,,,,,,,,,,,,,,,,,,,,,,,,,,,,,,,,,,,,,,,,,,99099,2022-11-03_14h14.51.471,vts_reward_expectancy_bt_OFFLINE,2022.2.4,60.13734898220535,
0,0,0,1,0,1,0,0,star ,circle,1,0,1,0,2,9,33,10,,,,,,,,,,,,,,,,,,,,,,,,,,,,,,,,,,,,,,,,428.57888055196963,428.57888055196963,428.57888055196963,428.57888055196963,428.57888055196963,428.57888055196963,428.57888055196963,428.57888055196963,428.57888055196963,428.57888055196963,a,3.4584362900350243,1,487,1,432.0673796290066,433.5677245670231,433.5677245670231,,,,,,,,,,,,,,,,,,,,,,,,,,,,,,,,,,,,,,,,,,,,,,,,,,,,,,,,,,,,,,,,,,99099,2022-11-03_14h14.51.471,vts_reward_expectancy_bt_OFFLINE,2022.2.4,60.13734898220535,
0,0,0,1,1,0,0,0,star,triangle,1,0,1,0,2,10,34,9,,,,,,,,,,,,,,,,,,,,,,,,,,,,,,,,,,,,,,,,434.07029076793697,434.07029076793697,434.07029076793697,434.07029076793697,434.07029076793697,434.07029076793697,434.07029076793697,434.07029076793697,434.07029076793697,434.07029076793697,l,0.8472383810440078,10,497,1,434.9387181729544,436.43737037002575,436.43737037002575,436.9373491129372,,,,,,,,,,,,,,,,,,,,,,,,,,,,,,,,,,,,,,,,,,,,,,,,,,,,,,,,,,,,,,,,,99099,2022-11-03_14h14.51.471,vts_reward_expectancy_bt_OFFLINE,2022.2.4,60.13734898220535,
1,0,0,0,0,0,1,0,triangle,hexagon,1,0,1,0,2,11,35,1,,,,,,,,,,,,,,,,,,,,,,,,,,,,,,,,,,,,,,,,436.9373491129372,436.9373491129372,436.9373491129372,436.9373491129372,436.9373491129372,436.9373491129372,436.9373491129372,436.9373491129372,436.9373491129372,436.9373491129372,l,2.750869645969942,10,507,1,439.7072360010352,441.2075331460219,441.2075331460219,,,,,,,,,,,,,,,,,,,,,,,,,,,,,,,,,,,,,,,,,,,,,,,,,,,,,,,,,,,,,,,,,,99099,2022-11-03_14h14.51.471,vts_reward_expectancy_bt_OFFLINE,2022.2.4,60.13734898220535,
0,1,0,0,1,0,0,0,circle,triangle,1,0,1,0,3,0,36,3,,,,,,,,,,,,,,,,,,,,,,,,,,,,,,,,,,,,,,,,441.70751693705097,441.70751693705097,441.70751693705097,441.70751693705097,441.70751693705097,441.70751693705097,441.70751693705097,441.70751693705097,441.70751693705097,441.70751693705097,l,2.9752470159437507,1,508,1,444.71249861002434,446.2277570080478,,,,,,,,,,,,,,,,,,,,,,,,,,,,,,,,,,,,,,,,,,,,,,,,,,,,,,,,,,,,,,,,,,,99099,2022-11-03_14h14.51.471,vts_reward_expectancy_bt_OFFLINE,2022.2.4,60.13734898220535,
1,0,0,0,0,1,0,0,triangle,circle,1,0,1,0,3,1,37,0,,,,,,,,,,,,,,,,,,,,,,,,,,,,,,,,,,,,,,,,446.72825416503474,446.72825416503474,446.72825416503474,446.72825416503474,446.72825416503474,446.72825416503474,446.72825416503474,446.72825416503474,446.72825416503474,446.72825416503474,l,1.610905957990326,1,509,1,448.36182491795626,449.86436980601866,,,,,,,,,,,,,,,,,,,,,,,,,,,,,,,,,,,,,,,,,,,,,,,,,,,,,,,,,,,,,,,,,,,99099,2022-11-03_14h14.51.471,vts_reward_expectancy_bt_OFFLINE,2022.2.4,60.13734898220535,
0,0,1,0,1,0,0,0,hexagon,triangle,1,0,1,0,3,2,38,6,,,,,,,,,,,,,,,,,,,,,,,,,,,,,,,,,,,,,,,,450.3646879439475,450.3646879439475,450.3646879439475,450.3646879439475,450.3646879439475,450.3646879439475,450.3646879439475,450.3646879439475,450.3646879439475,450.3646879439475,l,10.316792170982808,10,519,1,460.7073674959829,462.2224147040397,,,,,,,,,,,,,,,,,,,,,,,,,,,,,,,,,,,,,,,,,,,,,,,,,,,,,,,,,,,,,,,,,,,99099,2022-11-03_14h14.51.471,vts_reward_expectancy_bt_OFFLINE,2022.2.4,60.13734898220535,
1,0,0,0,0,0,1,0,triangle,hexagon,1,0,1,0,3,3,39,1,,,,,,,,,,,,,,,,,,,,,,,,,,,,,,,,,,,,,,,,462.70586572994944,462.70586572994944,462.70586572994944,462.70586572994944,462.70586572994944,462.70586572994944,462.70586572994944,462.70586572994944,462.70586572994944,462.70586572994944,a,1.3725462070433423,10,529,1,464.1087626060471,465.6094567340333,,,,,,,,,,,,,,,,,,,,,,,,,,,,,,,,,,,,,,,,,,,,,,,,,,,,,,,,,,,,,,,,,,,99099,2022-11-03_14h14.51.471,vts_reward_expectancy_bt_OFFLINE,2022.2.4,60.13734898220535,
1,0,0,0,0,0,0,1,triangle,star,1,0,1,0,3,4,40,2,,,,,,,,,,,,,,,,,,,,,,,,,,,,,,,,,,,,,,,,466.10943723795936,466.10943723795936,466.10943723795936,466.10943723795936,466.10943723795936,466.10943723795936,466.10943723795936,466.10943723795936,466.10943723795936,466.10943723795936,a,4.876670381985605,10,539,1,471.01265904994216,472.5132434719708,472.5132434719708,473.0133249530336,,,,,,,,,,,,,,,,,,,,,,,,,,,,,,,,,,,,,,,,,,,,,,,,,,,,,,,,,,,,,,,,,99099,2022-11-03_14h14.51.471,vts_reward_expectancy_bt_OFFLINE,2022.2.4,60.13734898220535,
0,0,0,1,0,0,1,0,star,hexagon,1,0,1,0,3,5,41,11,,,,,,,,,,,,,,,,,,,,,,,,,,,,,,,,,,,,,,,,473.0133249530336,473.0133249530336,473.0133249530336,473.0133249530336,473.0133249530336,473.0133249530336,473.0133249530336,473.0133249530336,473.0133249530336,473.0133249530336,l,1.5164523160783574,1,540,1,474.5512478649616,476.0666635449743,,,,,,,,,,,,,,,,,,,,,,,,,,,,,,,,,,,,,,,,,,,,,,,,,,,,,,,,,,,,,,,,,,,99099,2022-11-03_14h14.51.471,vts_reward_expectancy_bt_OFFLINE,2022.2.4,60.13734898220535,
0,0,1,0,0,1,0,0,hexagon,circle,1,0,1,0,3,6,42,7,,,,,,,,,,,,,,,,,,,,,,,,,,,,,,,,,,,,,,,,476.5668393239612,476.5668393239612,476.5668393239612,476.5668393239612,476.5668393239612,476.5668393239612,476.5668393239612,476.5668393239612,476.5668393239612,476.5668393239612,a,2.148185180965811,1,541,1,478.7356601640349,480.23637054802384,480.23637054802384,480.73634864995256,,,,,,,,,,,,,,,,,,,,,,,,,,,,,,,,,,,,,,,,,,,,,,,,,,,,,,,,,,,,,,,,,99099,2022-11-03_14h14.51.471,vts_reward_expectancy_bt_OFFLINE,2022.2.4,60.13734898220535,
0,0,1,0,0,0,0,1,hexagon,star,1,0,1,0,3,7,43,8,,,,,,,,,,,,,,,,,,,,,,,,,,,,,,,,,,,,,,,,480.73634864995256,480.73634864995256,480.73634864995256,480.73634864995256,480.73634864995256,480.73634864995256,480.73634864995256,480.73634864995256,480.73634864995256,480.73634864995256,a,3.615316080977209,1,542,1,484.37336496496573,485.87417805497535,485.87417805497535,486.3739766300423,,,,,,,,,,,,,,,,,,,,,,,,,,,,,,,,,,,,,,,,,,,,,,,,,,,,,,,,,,,,,,,,,99099,2022-11-03_14h14.51.471,vts_reward_expectancy_bt_OFFLINE,2022.2.4,60.13734898220535,
0,1,0,0,0,0,0,1,circle,star,1,0,1,0,3,8,44,5,,,,,,,,,,,,,,,,,,,,,,,,,,,,,,,,,,,,,,,,486.3739766300423,486.3739766300423,486.3739766300423,486.3739766300423,486.3739766300423,486.3739766300423,486.3739766300423,486.3739766300423,486.3739766300423,486.3739766300423,a,8.62065843003802,1,543,1,495.0138684590347,496.5141506959917,496.5141506959917,497.01456342695747,,,,,,,,,,,,,,,,,,,,,,,,,,,,,,,,,,,,,,,,,,,,,,,,,,,,,,,,,,,,,,,,,99099,2022-11-03_14h14.51.471,vts_reward_expectancy_bt_OFFLINE,2022.2.4,60.13734898220535,
0,0,0,1,0,1,0,0,star ,circle,1,0,1,0,3,9,45,10,,,,,,,,,,,,,,,,,,,,,,,,,,,,,,,,,,,,,,,,497.01456342695747,497.01456342695747,497.01456342695747,497.01456342695747,497.01456342695747,497.01456342695747,497.01456342695747,497.01456342695747,497.01456342695747,497.01456342695747,l,3.8188943810528144,1,544,1,500.8513115430251,502.3517652710434,502.3517652710434,502.8519741159398,,,,,,,,,,,,,,,,,,,,,,,,,,,,,,,,,,,,,,,,,,,,,,,,,,,,,,,,,,,,,,,,,99099,2022-11-03_14h14.51.471,vts_reward_expectancy_bt_OFFLINE,2022.2.4,60.13734898220535,
0,1,0,0,0,0,1,0,circle,hexagon,1,0,1,0,3,10,46,4,,,,,,,,,,,,,,,,,,,,,,,,,,,,,,,,,,,,,,,,502.8519741159398,502.8519741159398,502.8519741159398,502.8519741159398,502.8519741159398,502.8519741159398,502.8519741159398,502.8519741159398,502.8519741159398,502.8519741159398,a,1.9425816279836,1,545,1,504.821182191954,506.321628147969,506.321628147969,506.82180990697816,,,,,,,,,,,,,,,,,,,,,,,,,,,,,,,,,,,,,,,,,,,,,,,,,,,,,,,,,,,,,,,,,99099,2022-11-03_14h14.51.471,vts_reward_expectancy_bt_OFFLINE,2022.2.4,60.13734898220535,
0,0,0,1,1,0,0,0,star,triangle,1,0,1,0,3,11,47,9,,,,,,,,,,,,,,,,,,,,,,,,,,,,,,,,,,,,,,,,506.82180990697816,506.82180990697816,506.82180990697816,506.82180990697816,506.82180990697816,506.82180990697816,506.82180990697816,506.82180990697816,506.82180990697816,506.82180990697816,l,5.814189860015176,10,555,1,512.66105005797,514.161403118982,,,,,,,,,,,,,,,,,,,,,,,,,,,,,,,,,,,,,,,,,,,,,,,,,,,,,,,,,,,,,,,,,,,99099,2022-11-03_14h14.51.471,vts_reward_expectancy_bt_OFFLINE,2022.2.4,60.13734898220535,
0,0,1,0,1,0,0,0,hexagon,triangle,2,0,2,0,0,0,0,6,,,,,,,,,,,,,,,,,,,,,,,,,,,,,,,,,,,,,,,,519.877174463938,519.877174463938,519.877174463938,519.877174463938,519.877174463938,519.877174463938,519.877174463938,519.877174463938,519.877174463938,519.877174463938,a,3.3895626709563658,1,556,2,523.2853796120035,524.7859840289457,,,,,,,,,,,,,,,,,,,,,,,,,,,,,,,,,,,,,,,,,,,,,,,,,,,,,,,,,,,,,,,,,,,99099,2022-11-03_14h14.51.471,vts_reward_expectancy_bt_OFFLINE,2022.2.4,60.13734898220535,
1,0,0,0,0,0,0,1,triangle,star,2,0,2,0,0,1,1,2,,,,,,,,,,,,,,,,,,,,,,,,,,,,,,,,,,,,,,,,525.2860878109932,525.2860878109932,525.2860878109932,525.2860878109932,525.2860878109932,525.2860878109932,525.2860878109932,525.2860878109932,525.2860878109932,525.2860878109932,l,1.2431116979569197,10,566,2,526.5548277710332,528.0702578700148,,,,,,,,,,,,,,,,,,,,,,,,,,,,,,,,,,,,,,,,,,,,,,,,,,,,,,,,,,,,,,,,,,,99099,2022-11-03_14h14.51.471,vts_reward_expectancy_bt_OFFLINE,2022.2.4,60.13734898220535,
0,0,0,1,0,1,0,0,star ,circle,2,0,2,0,0,2,2,10,,,,,,,,,,,,,,,,,,,,,,,,,,,,,,,,,,,,,,,,528.5702463249909,528.5702463249909,528.5702463249909,528.5702463249909,528.5702463249909,528.5702463249909,528.5702463249909,528.5702463249909,528.5702463249909,528.5702463249909,l,1.3348389060702175,1,567,2,529.9247387939831,531.4398060949752,,,,,,,,,,,,,,,,,,,,,,,,,,,,,,,,,,,,,,,,,,,,,,,,,,,,,,,,,,,,,,,,,,,99099,2022-11-03_14h14.51.471,vts_reward_expectancy_bt_OFFLINE,2022.2.4,60.13734898220535,
1,0,0,0,0,1,0,0,triangle,circle,2,0,2,0,0,3,3,0,,,,,,,,,,,,,,,,,,,,,,,,,,,,,,,,,,,,,,,,531.9400039620232,531.9400039620232,531.9400039620232,531.9400039620232,531.9400039620232,531.9400039620232,531.9400039620232,531.9400039620232,531.9400039620232,531.9400039620232,l,1.1707062299828976,1,568,2,533.1401952119777,534.6431800989667,,,,,,,,,,,,,,,,,,,,,,,,,,,,,,,,,,,,,,,,,,,,,,,,,,,,,,,,,,,,,,,,,,,99099,2022-11-03_14h14.51.471,vts_reward_expectancy_bt_OFFLINE,2022.2.4,60.13734898220535,
1,0,0,0,0,0,1,0,triangle,hexagon,2,0,2,0,0,4,4,1,,,,,,,,,,,,,,,,,,,,,,,,,,,,,,,,,,,,,,,,535.1433700449998,535.1433700449998,535.1433700449998,535.1433700449998,535.1433700449998,535.1433700449998,535.1433700449998,535.1433700449998,535.1433700449998,535.1433700449998,a,0.6224221249576658,10,578,2,535.7954401170136,537.3106885580346,,,,,,,,,,,,,,,,,,,,,,,,,,,,,,,,,,,,,,,,,,,,,,,,,,,,,,,,,,,,,,,,,,,99099,2022-11-03_14h14.51.471,vts_reward_expectancy_bt_OFFLINE,2022.2.4,60.13734898220535,
0,0,1,0,0,1,0,0,hexagon,circle,2,0,2,0,0,5,5,7,,,,,,,,,,,,,,,,,,,,,,,,,,,,,,,,,,,,,,,,537.8107395289699,537.8107395289699,537.8107395289699,537.8107395289699,537.8107395289699,537.8107395289699,537.8107395289699,537.8107395289699,537.8107395289699,537.8107395289699,a,0.6550938979489729,1,579,2,538.4961089839926,539.9966064150212,,,,,,,,,,,,,,,,,,,,,,,,,,,,,,,,,,,,,,,,,,,,,,,,,,,,,,,,,,,,,,,,,,,99099,2022-11-03_14h14.51.471,vts_reward_expectancy_bt_OFFLINE,2022.2.4,60.13734898220535,
0,0,0,1,0,0,1,0,star,hexagon,2,0,2,0,0,6,6,11,,,,,,,,,,,,,,,,,,,,,,,,,,,,,,,,,,,,,,,,540.4967299719574,540.4967299719574,540.4967299719574,540.4967299719574,540.4967299719574,540.4967299719574,540.4967299719574,540.4967299719574,540.4967299719574,540.4967299719574,a,0.8725127030629665,10,589,2,541.3991353310412,542.9144955950323,,,,,,,,,,,,,,,,,,,,,,,,,,,,,,,,,,,,,,,,,,,,,,,,,,,,,,,,,,,,,,,,,,,99099,2022-11-03_14h14.51.471,vts_reward_expectancy_bt_OFFLINE,2022.2.4,60.13734898220535,
0,1,0,0,0,0,1,0,circle,hexagon,2,0,2,0,0,7,7,4,,,,,,,,,,,,,,,,,,,,,,,,,,,,,,,,,,,,,,,,543.4146668040194,543.4146668040194,543.4146668040194,543.4146668040194,543.4146668040194,543.4146668040194,543.4146668040194,543.4146668040194,543.4146668040194,543.4146668040194,a,1.3522870630258694,1,590,2,544.7858395089861,546.3011616830481,,,,,,,,,,,,,,,,,,,,,,,,,,,,,,,,,,,,,,,,,,,,,,,,,,,,,,,,,,,,,,,,,,,99099,2022-11-03_14h14.51.471,vts_reward_expectancy_bt_OFFLINE,2022.2.4,60.13734898220535,
0,1,0,0,0,0,0,1,circle,star,2,0,2,0,0,8,8,5,,,,,,,,,,,,,,,,,,,,,,,,,,,,,,,,,,,,,,,,546.8009965589736,546.8009965589736,546.8009965589736,546.8009965589736,546.8009965589736,546.8009965589736,546.8009965589736,546.8009965589736,546.8009965589736,546.8009965589736,l,0.8913536419859156,10,600,2,547.7199286429677,549.2204112469917,,,,,,,,,,,,,,,,,,,,,,,,,,,,,,,,,,,,,,,,,,,,,,,,,,,,,,,,,,,,,,,,,,,99099,2022-11-03_14h14.51.471,vts_reward_expectancy_bt_OFFLINE,2022.2.4,60.13734898220535,
0,0,0,1,1,0,0,0,star,triangle,2,0,2,0,0,9,9,9,,,,,,,,,,,,,,,,,,,,,,,,,,,,,,,,,,,,,,,,549.7205778870266,549.7205778870266,549.7205778870266,549.7205778870266,549.7205778870266,549.7205778870266,549.7205778870266,549.7205778870266,549.7205778870266,549.7205778870266,a,0.9181710650445893,10,610,2,550.6712464899756,552.1712885419838,552.1712885419838,552.6716468540253,,,,,,,,,,,,,,,,,,,,,,,,,,,,,,,,,,,,,,,,,,,,,,,,,,,,,,,,,,,,,,,,,99099,2022-11-03_14h14.51.471,vts_reward_expectancy_bt_OFFLINE,2022.2.4,60.13734898220535,
0,0,1,0,0,0,0,1,hexagon,star,2,0,2,0,0,10,10,8,,,,,,,,,,,,,,,,,,,,,,,,,,,,,,,,,,,,,,,,552.6716468540253,552.6716468540253,552.6716468540253,552.6716468540253,552.6716468540253,552.6716468540253,552.6716468540253,552.6716468540253,552.6716468540253,552.6716468540253,l,0.5553214100655168,10,620,2,553.2551933439681,554.7576939050341,,,,,,,,,,,,,,,,,,,,,,,,,,,,,,,,,,,,,,,,,,,,,,,,,,,,,,,,,,,,,,,,,,,99099,2022-11-03_14h14.51.471,vts_reward_expectancy_bt_OFFLINE,2022.2.4,60.13734898220535,
0,1,0,0,1,0,0,0,circle,triangle,2,0,2,0,0,11,11,3,,,,,,,,,,,,,,,,,,,,,,,,,,,,,,,,,,,,,,,,555.2579540249426,555.2579540249426,555.2579540249426,555.2579540249426,555.2579540249426,555.2579540249426,555.2579540249426,555.2579540249426,555.2579540249426,555.2579540249426,l,0.681143429945223,10,630,2,555.9583897970151,557.458674008958,557.458674008958,557.958911804948,,,,,,,,,,,,,,,,,,,,,,,,,,,,,,,,,,,,,,,,,,,,,,,,,,,,,,,,,,,,,,,,,99099,2022-11-03_14h14.51.471,vts_reward_expectancy_bt_OFFLINE,2022.2.4,60.13734898220535,
0,1,0,0,1,0,0,0,circle,triangle,2,0,2,0,1,0,12,3,,,,,,,,,,,,,,,,,,,,,,,,,,,,,,,,,,,,,,,,557.958911804948,557.958911804948,557.958911804948,557.958911804948,557.958911804948,557.958911804948,557.958911804948,557.958911804948,557.958911804948,557.958911804948,l,0.701461200020276,1,631,2,558.6882966390112,560.1945184710203,,,,,,,,,,,,,,,,,,,,,,,,,,,,,,,,,,,,,,,,,,,,,,,,,,,,,,,,,,,,,,,,,,,99099,2022-11-03_14h14.51.471,vts_reward_expectancy_bt_OFFLINE,2022.2.4,60.13734898220535,
0,1,0,0,0,0,1,0,circle,hexagon,2,0,2,0,1,1,13,4,,,,,,,,,,,,,,,,,,,,,,,,,,,,,,,,,,,,,,,,560.6948718560161,560.6948718560161,560.6948718560161,560.6948718560161,560.6948718560161,560.6948718560161,560.6948718560161,560.6948718560161,560.6948718560161,560.6948718560161,l,1.2506119259633124,1,632,2,561.9786014719866,563.4795425420161,563.4795425420161,,,,,,,,,,,,,,,,,,,,,,,,,,,,,,,,,,,,,,,,,,,,,,,,,,,,,,,,,,,,,,,,,,99099,2022-11-03_14h14.51.471,vts_reward_expectancy_bt_OFFLINE,2022.2.4,60.13734898220535,
0,0,1,0,1,0,0,0,hexagon,triangle,2,0,2,0,1,2,14,6,,,,,,,,,,,,,,,,,,,,,,,,,,,,,,,,,,,,,,,,563.9810505489586,563.9810505489586,563.9810505489586,563.9810505489586,563.9810505489586,563.9810505489586,563.9810505489586,563.9810505489586,563.9810505489586,563.9810505489586,a,1.8802508069202304,1,633,2,565.8817716880003,567.3823500029976,567.3823500029976,567.8825170119526,,,,,,,,,,,,,,,,,,,,,,,,,,,,,,,,,,,,,,,,,,,,,,,,,,,,,,,,,,,,,,,,,99099,2022-11-03_14h14.51.471,vts_reward_expectancy_bt_OFFLINE,2022.2.4,60.13734898220535,
1,0,0,0,0,1,0,0,triangle,circle,2,0,2,0,1,3,15,0,,,,,,,,,,,,,,,,,,,,,,,,,,,,,,,,,,,,,,,,567.8825170119526,567.8825170119526,567.8825170119526,567.8825170119526,567.8825170119526,567.8825170119526,567.8825170119526,567.8825170119526,567.8825170119526,567.8825170119526,a,2.703204615972936,10,643,2,570.604777897941,572.1191673340509,,,,,,,,,,,,,,,,,,,,,,,,,,,,,,,,,,,,,,,,,,,,,,,,,,,,,,,,,,,,,,,,,,,99099,2022-11-03_14h14.51.471,vts_reward_expectancy_bt_OFFLINE,2022.2.4,60.13734898220535,
1,0,0,0,0,0,0,1,triangle,star,2,0,2,0,1,4,16,2,,,,,,,,,,,,,,,,,,,,,,,,,,,,,,,,,,,,,,,,572.6192190049915,572.6192190049915,572.6192190049915,572.6192190049915,572.6192190049915,572.6192190049915,572.6192190049915,572.6192190049915,572.6192190049915,572.6192190049915,a,1.7027347339317203,10,653,2,574.3390297880396,575.8390869620489,575.8390869620489,576.3391087730415,,,,,,,,,,,,,,,,,,,,,,,,,,,,,,,,,,,,,,,,,,,,,,,,,,,,,,,,,,,,,,,,,99099,2022-11-03_14h14.51.471,vts_reward_expectancy_bt_OFFLINE,2022.2.4,60.13734898220535,
0,0,0,1,0,1,0,0,star ,circle,2,0,2,0,1,5,17,10,,,,,,,,,,,,,,,,,,,,,,,,,,,,,,,,,,,,,,,,576.3391087730415,576.3391087730415,576.3391087730415,576.3391087730415,576.3391087730415,576.3391087730415,576.3391087730415,576.3391087730415,576.3391087730415,576.3391087730415,l,1.8300662280526012,1,654,2,578.1925681169378,579.6928015679587,,,,,,,,,,,,,,,,,,,,,,,,,,,,,,,,,,,,,,,,,,,,,,,,,,,,,,,,,,,,,,,,,,,99099,2022-11-03_14h14.51.471,vts_reward_expectancy_bt_OFFLINE,2022.2.4,60.13734898220535,
1,0,0,0,0,0,1,0,triangle,hexagon,2,0,2,0,1,6,18,1,,,,,,,,,,,,,,,,,,,,,,,,,,,,,,,,,,,,,,,,580.1928504050011,580.1928504050011,580.1928504050011,580.1928504050011,580.1928504050011,580.1928504050011,580.1928504050011,580.1928504050011,580.1928504050011,580.1928504050011,a,2.229513290920295,1,655,2,582.4437813699478,583.9454339719377,,,,,,,,,,,,,,,,,,,,,,,,,,,,,,,,,,,,,,,,,,,,,,,,,,,,,,,,,,,,,,,,,,,99099,2022-11-03_14h14.51.471,vts_reward_expectancy_bt_OFFLINE,2022.2.4,60.13734898220535,
0,1,0,0,0,0,0,1,circle,star,2,0,2,0,1,7,19,5,,,,,,,,,,,,,,,,,,,,,,,,,,,,,,,,,,,,,,,,584.4456737129949,584.4456737129949,584.4456737129949,584.4456737129949,584.4456737129949,584.4456737129949,584.4456737129949,584.4456737129949,584.4456737129949,584.4456737129949,l,2.2623083560029045,10,665,2,586.7321697470034,588.2469918009592,,,,,,,,,,,,,,,,,,,,,,,,,,,,,,,,,,,,,,,,,,,,,,,,,,,,,,,,,,,,,,,,,,,99099,2022-11-03_14h14.51.471,vts_reward_expectancy_bt_OFFLINE,2022.2.4,60.13734898220535,
0,0,1,0,0,1,0,0,hexagon,circle,2,0,2,0,1,8,20,7,,,,,,,,,,,,,,,,,,,,,,,,,,,,,,,,,,,,,,,,588.7336664419854,588.7336664419854,588.7336664419854,588.7336664419854,588.7336664419854,588.7336664419854,588.7336664419854,588.7336664419854,588.7336664419854,588.7336664419854,a,1.4164790069917217,10,675,2,590.1672804630361,591.66691936797,591.66691936797,592.1668691389496,,,,,,,,,,,,,,,,,,,,,,,,,,,,,,,,,,,,,,,,,,,,,,,,,,,,,,,,,,,,,,,,,99099,2022-11-03_14h14.51.471,vts_reward_expectancy_bt_OFFLINE,2022.2.4,60.13734898220535,
0,0,0,1,0,0,1,0,star,hexagon,2,0,2,0,1,9,21,11,,,,,,,,,,,,,,,,,,,,,,,,,,,,,,,,,,,,,,,,592.1668691389496,592.1668691389496,592.1668691389496,592.1668691389496,592.1668691389496,592.1668691389496,592.1668691389496,592.1668691389496,592.1668691389496,592.1668691389496,a,0.8415854700142518,10,685,2,593.033919821959,594.5366312470287,,,,,,,,,,,,,,,,,,,,,,,,,,,,,,,,,,,,,,,,,,,,,,,,,,,,,,,,,,,,,,,,,,,99099,2022-11-03_14h14.51.471,vts_reward_expectancy_bt_OFFLINE,2022.2.4,60.13734898220535,
0,0,1,0,0,0,0,1,hexagon,star,2,0,2,0,1,10,22,8,,,,,,,,,,,,,,,,,,,,,,,,,,,,,,,,,,,,,,,,595.0370465200394,595.0370465200394,595.0370465200394,595.0370465200394,595.0370465200394,595.0370465200394,595.0370465200394,595.0370465200394,595.0370465200394,595.0370465200394,l,2.290974410949275,10,695,2,597.3543278760044,598.8567323510069,,,,,,,,,,,,,,,,,,,,,,,,,,,,,,,,,,,,,,,,,,,,,,,,,,,,,,,,,,,,,,,,,,,99099,2022-11-03_14h14.51.471,vts_reward_expectancy_bt_OFFLINE,2022.2.4,60.13734898220535,
0,0,0,1,1,0,0,0,star,triangle,2,0,2,0,1,11,23,9,,,,,,,,,,,,,,,,,,,,,,,,,,,,,,,,,,,,,,,,599.3569740039529,599.3569740039529,599.3569740039529,599.3569740039529,599.3569740039529,599.3569740039529,599.3569740039529,599.3569740039529,599.3569740039529,599.3569740039529,a,1.3464042670093477,10,705,2,600.7239494869718,602.224463055958,,,,,,,,,,,,,,,,,,,,,,,,,,,,,,,,,,,,,,,,,,,,,,,,,,,,,,,,,,,,,,,,,,,99099,2022-11-03_14h14.51.471,vts_reward_expectancy_bt_OFFLINE,2022.2.4,60.13734898220535,
0,0,0,1,0,0,1,0,star,hexagon,2,0,2,0,2,0,24,11,,,,,,,,,,,,,,,,,,,,,,,,,,,,,,,,,,,,,,,,602.7246625169646,602.7246625169646,602.7246625169646,602.7246625169646,602.7246625169646,602.7246625169646,602.7246625169646,602.7246625169646,602.7246625169646,602.7246625169646,a,1.1292134389514104,10,715,2,603.8769611070165,605.3771473920206,605.3771473920206,605.8774885960156,,,,,,,,,,,,,,,,,,,,,,,,,,,,,,,,,,,,,,,,,,,,,,,,,,,,,,,,,,,,,,,,,99099,2022-11-03_14h14.51.471,vts_reward_expectancy_bt_OFFLINE,2022.2.4,60.13734898220535,
0,1,0,0,1,0,0,0,circle,triangle,2,0,2,0,2,1,25,3,,,,,,,,,,,,,,,,,,,,,,,,,,,,,,,,,,,,,,,,605.8774885960156,605.8774885960156,605.8774885960156,605.8774885960156,605.8774885960156,605.8774885960156,605.8774885960156,605.8774885960156,605.8774885960156,605.8774885960156,a,1.3739561309339479,10,725,2,607.278330079047,608.7803267289419,,,,,,,,,,,,,,,,,,,,,,,,,,,,,,,,,,,,,,,,,,,,,,,,,,,,,,,,,,,,,,,,,,,99099,2022-11-03_14h14.51.471,vts_reward_expectancy_bt_OFFLINE,2022.2.4,60.13734898220535,
1,0,0,0,0,0,1,0,triangle,hexagon,2,0,2,0,2,2,26,1,,,,,,,,,,,,,,,,,,,,,,,,,,,,,,,,,,,,,,,,609.2806290820008,609.2806290820008,609.2806290820008,609.2806290820008,609.2806290820008,609.2806290820008,609.2806290820008,609.2806290820008,609.2806290820008,609.2806290820008,a,0.8731592299882323,10,735,2,610.181653512991,611.6815861100331,611.6815861100331,612.1817131859716,,,,,,,,,,,,,,,,,,,,,,,,,,,,,,,,,,,,,,,,,,,,,,,,,,,,,,,,,,,,,,,,,99099,2022-11-03_14h14.51.471,vts_reward_expectancy_bt_OFFLINE,2022.2.4,60.13734898220535,
0,0,1,0,1,0,0,0,hexagon,triangle,2,0,2,0,2,3,27,6,,,,,,,,,,,,,,,,,,,,,,,,,,,,,,,,,,,,,,,,612.1817131859716,612.1817131859716,612.1817131859716,612.1817131859716,612.1817131859716,612.1817131859716,612.1817131859716,612.1817131859716,612.1817131859716,612.1817131859716,a,3.170265613938682,10,745,2,615.3845394590171,616.8851489999797,616.8851489999797,617.3854683480458,,,,,,,,,,,,,,,,,,,,,,,,,,,,,,,,,,,,,,,,,,,,,,,,,,,,,,,,,,,,,,,,,99099,2022-11-03_14h14.51.471,vts_reward_expectancy_bt_OFFLINE,2022.2.4,60.13734898220535,
0,0,0,1,0,1,0,0,star ,circle,2,0,2,0,2,4,28,10,,,,,,,,,,,,,,,,,,,,,,,,,,,,,,,,,,,,,,,,617.3854683480458,617.3854683480458,617.3854683480458,617.3854683480458,617.3854683480458,617.3854683480458,617.3854683480458,617.3854683480458,617.3854683480458,617.3854683480458,l,2.330959568032995,1,746,2,619.7405222719535,621.2553092800081,,,,,,,,,,,,,,,,,,,,,,,,,,,,,,,,,,,,,,,,,,,,,,,,,,,,,,,,,,,,,,,,,,,99099,2022-11-03_14h14.51.471,vts_reward_expectancy_bt_OFFLINE,2022.2.4,60.13734898220535,
1,0,0,0,0,0,0,1,triangle,star,2,0,2,0,2,5,29,2,,,,,,,,,,,,,,,,,,,,,,,,,,,,,,,,,,,,,,,,621.755217829952,621.755217829952,621.755217829952,621.755217829952,621.755217829952,621.755217829952,621.755217829952,621.755217829952,621.755217829952,621.755217829952,a,1.7636704329634085,10,756,2,623.5417731340276,625.041778765968,,,,,,,,,,,,,,,,,,,,,,,,,,,,,,,,,,,,,,,,,,,,,,,,,,,,,,,,,,,,,,,,,,,99099,2022-11-03_14h14.51.471,vts_reward_expectancy_bt_OFFLINE,2022.2.4,60.13734898220535,
0,1,0,0,0,0,1,0,circle,hexagon,2,0,2,0,2,6,30,4,,,,,,,,,,,,,,,,,,,,,,,,,,,,,,,,,,,,,,,,625.541908307001,625.541908307001,625.541908307001,625.541908307001,625.541908307001,625.541908307001,625.541908307001,625.541908307001,625.541908307001,625.541908307001,l,1.1497407699935138,1,757,2,626.7120939659653,628.2262335120467,,,,,,,,,,,,,,,,,,,,,,,,,,,,,,,,,,,,,,,,,,,,,,,,,,,,,,,,,,,,,,,,,,,99099,2022-11-03_14h14.51.471,vts_reward_expectancy_bt_OFFLINE,2022.2.4,60.13734898220535,
1,0,0,0,0,1,0,0,triangle,circle,2,0,2,0,2,7,31,0,,,,,,,,,,,,,,,,,,,,,,,,,,,,,,,,,,,,,,,,628.7239161699545,628.7239161699545,628.7239161699545,628.7239161699545,628.7239161699545,628.7239161699545,628.7239161699545,628.7239161699545,628.7239161699545,628.7239161699545,a,2.5135178900090978,10,767,2,631.2648532959865,632.7800065019401,,,,,,,,,,,,,,,,,,,,,,,,,,,,,,,,,,,,,,,,,,,,,,,,,,,,,,,,,,,,,,,,,,,99099,2022-11-03_14h14.51.471,vts_reward_expectancy_bt_OFFLINE,2022.2.4,60.13734898220535,
0,0,0,1,1,0,0,0,star,triangle,2,0,2,0,2,8,32,9,,,,,,,,,,,,,,,,,,,,,,,,,,,,,,,,,,,,,,,,633.2803058519494,633.2803058519494,633.2803058519494,633.2803058519494,633.2803058519494,633.2803058519494,633.2803058519494,633.2803058519494,633.2803058519494,633.2803058519494,a,1.1740686299744993,10,777,2,634.4828558069421,635.9827465380076,635.9827465380076,636.4827964489814,,,,,,,,,,,,,,,,,,,,,,,,,,,,,,,,,,,,,,,,,,,,,,,,,,,,,,,,,,,,,,,,,99099,2022-11-03_14h14.51.471,vts_reward_expectancy_bt_OFFLINE,2022.2.4,60.13734898220535,
0,1,0,0,0,0,0,1,circle,star,2,0,2,0,2,9,33,5,,,,,,,,,,,,,,,,,,,,,,,,,,,,,,,,,,,,,,,,636.4827964489814,636.4827964489814,636.4827964489814,636.4827964489814,636.4827964489814,636.4827964489814,636.4827964489814,636.4827964489814,636.4827964489814,636.4827964489814,a,0.9642478510504588,1,778,2,637.4692059030058,638.9689932100009,,,,,,,,,,,,,,,,,,,,,,,,,,,,,,,,,,,,,,,,,,,,,,,,,,,,,,,,,,,,,,,,,,,99099,2022-11-03_14h14.51.471,vts_reward_expectancy_bt_OFFLINE,2022.2.4,60.13734898220535,
0,0,1,0,0,1,0,0,hexagon,circle,2,0,2,0,2,10,34,7,,,,,,,,,,,,,,,,,,,,,,,,,,,,,,,,,,,,,,,,639.4689762979979,639.4689762979979,639.4689762979979,639.4689762979979,639.4689762979979,639.4689762979979,639.4689762979979,639.4689762979979,639.4689762979979,639.4689762979979,a,1.4434248830657452,1,779,2,640.9371079680277,642.437348715961,642.437348715961,642.9373829059768,,,,,,,,,,,,,,,,,,,,,,,,,,,,,,,,,,,,,,,,,,,,,,,,,,,,,,,,,,,,,,,,,99099,2022-11-03_14h14.51.471,vts_reward_expectancy_bt_OFFLINE,2022.2.4,60.13734898220535,
0,0,1,0,0,0,0,1,hexagon,star,2,0,2,0,2,11,35,8,,,,,,,,,,,,,,,,,,,,,,,,,,,,,,,,,,,,,,,,642.9373829059768,642.9373829059768,642.9373829059768,642.9373829059768,642.9373829059768,642.9373829059768,642.9373829059768,642.9373829059768,642.9373829059768,642.9373829059768,a,1.2377404710277915,1,780,2,644.205924496986,645.706586588989,645.706586588989,646.2066613540519,,,,,,,,,,,,,,,,,,,,,,,,,,,,,,,,,,,,,,,,,,,,,,,,,,,,,,,,,,,,,,,,,99099,2022-11-03_14h14.51.471,vts_reward_expectancy_bt_OFFLINE,2022.2.4,60.13734898220535,
0,1,0,0,0,0,0,1,circle,star,2,0,2,0,3,0,36,5,,,,,,,,,,,,,,,,,,,,,,,,,,,,,,,,,,,,,,,,646.2066613540519,646.2066613540519,646.2066613540519,646.2066613540519,646.2066613540519,646.2066613540519,646.2066613540519,646.2066613540519,646.2066613540519,646.2066613540519,a,1.27596467488911,10,790,2,647.5101912729442,649.0097128769848,,,,,,,,,,,,,,,,,,,,,,,,,,,,,,,,,,,,,,,,,,,,,,,,,,,,,,,,,,,,,,,,,,,99099,2022-11-03_14h14.51.471,vts_reward_expectancy_bt_OFFLINE,2022.2.4,60.13734898220535,
1,0,0,0,0,0,1,0,triangle,hexagon,2,0,2,0,3,1,37,1,,,,,,,,,,,,,,,,,,,,,,,,,,,,,,,,,,,,,,,,649.5096580759855,649.5096580759855,649.5096580759855,649.5096580759855,649.5096580759855,649.5096580759855,649.5096580759855,649.5096580759855,649.5096580759855,649.5096580759855,a,1.6174820739543065,10,800,2,651.1448129590135,652.6445318119368,652.6445318119368,653.1447987710126,,,,,,,,,,,,,,,,,,,,,,,,,,,,,,,,,,,,,,,,,,,,,,,,,,,,,,,,,,,,,,,,,99099,2022-11-03_14h14.51.471,vts_reward_expectancy_bt_OFFLINE,2022.2.4,60.13734898220535,
0,0,0,1,0,1,0,0,star ,circle,2,0,2,0,3,2,38,10,,,,,,,,,,,,,,,,,,,,,,,,,,,,,,,,,,,,,,,,653.1447987710126,653.1447987710126,653.1447987710126,653.1447987710126,653.1447987710126,653.1447987710126,653.1447987710126,653.1447987710126,653.1447987710126,653.1447987710126,a,2.0113999150926247,10,810,2,655.1808720839908,656.6812287559733,656.6812287559733,657.1813891320489,,,,,,,,,,,,,,,,,,,,,,,,,,,,,,,,,,,,,,,,,,,,,,,,,,,,,,,,,,,,,,,,,99099,2022-11-03_14h14.51.471,vts_reward_expectancy_bt_OFFLINE,2022.2.4,60.13734898220535,
1,0,0,0,0,1,0,0,triangle,circle,2,0,2,0,3,3,39,0,,,,,,,,,,,,,,,,,,,,,,,,,,,,,,,,,,,,,,,,657.1813891320489,657.1813891320489,657.1813891320489,657.1813891320489,657.1813891320489,657.1813891320489,657.1813891320489,657.1813891320489,657.1813891320489,657.1813891320489,a,1.618749529006891,10,820,2,658.8174297920195,660.3173435749486,660.3173435749486,660.8176070949994,,,,,,,,,,,,,,,,,,,,,,,,,,,,,,,,,,,,,,,,,,,,,,,,,,,,,,,,,,,,,,,,,99099,2022-11-03_14h14.51.471,vts_reward_expectancy_bt_OFFLINE,2022.2.4,60.13734898220535,
0,0,1,0,1,0,0,0,hexagon,triangle,2,0,2,0,3,4,40,6,,,,,,,,,,,,,,,,,,,,,,,,,,,,,,,,,,,,,,,,660.8176070949994,660.8176070949994,660.8176070949994,660.8176070949994,660.8176070949994,660.8176070949994,660.8176070949994,660.8176070949994,660.8176070949994,660.8176070949994,a,2.9552356660133228,1,821,2,663.7913697289769,665.304341766052,,,,,,,,,,,,,,,,,,,,,,,,,,,,,,,,,,,,,,,,,,,,,,,,,,,,,,,,,,,,,,,,,,,99099,2022-11-03_14h14.51.471,vts_reward_expectancy_bt_OFFLINE,2022.2.4,60.13734898220535,
0,0,1,0,0,1,0,0,hexagon,circle,2,0,2,0,3,5,41,7,,,,,,,,,,,,,,,,,,,,,,,,,,,,,,,,,,,,,,,,665.8044382369844,665.8044382369844,665.8044382369844,665.8044382369844,665.8044382369844,665.8044382369844,665.8044382369844,665.8044382369844,665.8044382369844,665.8044382369844,a,3.2786770309321582,10,831,2,669.1106486120261,670.624664027011,,,,,,,,,,,,,,,,,,,,,,,,,,,,,,,,,,,,,,,,,,,,,,,,,,,,,,,,,,,,,,,,,,,99099,2022-11-03_14h14.51.471,vts_reward_expectancy_bt_OFFLINE,2022.2.4,60.13734898220535,
0,1,0,0,1,0,0,0,circle,triangle,2,0,2,0,3,6,42,3,,,,,,,,,,,,,,,,,,,,,,,,,,,,,,,,,,,,,,,,671.1250469250372,671.1250469250372,671.1250469250372,671.1250469250372,671.1250469250372,671.1250469250372,671.1250469250372,671.1250469250372,671.1250469250372,671.1250469250372,a,1.0413586880313233,1,832,2,672.1945554240374,673.709132618038,,,,,,,,,,,,,,,,,,,,,,,,,,,,,,,,,,,,,,,,,,,,,,,,,,,,,,,,,,,,,,,,,,,99099,2022-11-03_14h14.51.471,vts_reward_expectancy_bt_OFFLINE,2022.2.4,60.13734898220535,
0,0,0,1,1,0,0,0,star,triangle,2,0,2,0,3,7,43,9,,,,,,,,,,,,,,,,,,,,,,,,,,,,,,,,,,,,,,,,674.1942712400341,674.1942712400341,674.1942712400341,674.1942712400341,674.1942712400341,674.1942712400341,674.1942712400341,674.1942712400341,674.1942712400341,674.1942712400341,a,4.2937369759893045,10,842,2,678.5277680349536,680.0150616239989,,,,,,,,,,,,,,,,,,,,,,,,,,,,,,,,,,,,,,,,,,,,,,,,,,,,,,,,,,,,,,,,,,,99099,2022-11-03_14h14.51.471,vts_reward_expectancy_bt_OFFLINE,2022.2.4,60.13734898220535,
1,0,0,0,0,0,0,1,triangle,star,2,0,2,0,3,8,44,2,,,,,,,,,,,,,,,,,,,,,,,,,,,,,,,,,,,,,,,,680.5152421400417,680.5152421400417,680.5152421400417,680.5152421400417,680.5152421400417,680.5152421400417,680.5152421400417,680.5152421400417,680.5152421400417,680.5152421400417,a,4.6564211610239,10,852,2,685.2022433480015,686.7026016330346,686.7026016330346,687.2028934370028,,,,,,,,,,,,,,,,,,,,,,,,,,,,,,,,,,,,,,,,,,,,,,,,,,,,,,,,,,,,,,,,,99099,2022-11-03_14h14.51.471,vts_reward_expectancy_bt_OFFLINE,2022.2.4,60.13734898220535,
0,1,0,0,0,0,1,0,circle,hexagon,2,0,2,0,3,9,45,4,,,,,,,,,,,,,,,,,,,,,,,,,,,,,,,,,,,,,,,,687.2028934370028,687.2028934370028,687.2028934370028,687.2028934370028,687.2028934370028,687.2028934370028,687.2028934370028,687.2028934370028,687.2028934370028,687.2028934370028,l,4.539188587921672,1,853,2,691.7736146260286,693.2733603699598,693.2733603699598,693.7712707839673,,,,,,,,,,,,,,,,,,,,,,,,,,,,,,,,,,,,,,,,,,,,,,,,,,,,,,,,,,,,,,,,,99099,2022-11-03_14h14.51.471,vts_reward_expectancy_bt_OFFLINE,2022.2.4,60.13734898220535,
0,0,1,0,0,0,0,1,hexagon,star,2,0,2,0,3,10,46,8,,,,,,,,,,,,,,,,,,,,,,,,,,,,,,,,,,,,,,,,693.7712707839673,693.7712707839673,693.7712707839673,693.7712707839673,693.7712707839673,693.7712707839673,693.7712707839673,693.7712707839673,693.7712707839673,693.7712707839673,l,3.6178682319587097,10,863,2,697.4125853850273,698.912800102029,,,,,,,,,,,,,,,,,,,,,,,,,,,,,,,,,,,,,,,,,,,,,,,,,,,,,,,,,,,,,,,,,,,99099,2022-11-03_14h14.51.471,vts_reward_expectancy_bt_OFFLINE,2022.2.4,60.13734898220535,
0,0,0,1,0,0,1,0,star,hexagon,2,0,2,0,3,11,47,11,,,,,,,,,,,,,,,,,,,,,,,,,,,,,,,,,,,,,,,,699.4129045209847,699.4129045209847,699.4129045209847,699.4129045209847,699.4129045209847,699.4129045209847,699.4129045209847,699.4129045209847,699.4129045209847,699.4129045209847,a,1.7569368100957945,10,873,2,701.1970606530085,702.6972861950053,702.6972861950053,703.2037817710079,,,,,,,,,,,,,,,,,,,,,,,,,,,,,,,,,,,,,,,,,,,,,,,,,,,,,,,,,,,,,,,,,99099,2022-11-03_14h14.51.471,vts_reward_expectancy_bt_OFFLINE,2022.2.4,60.13734898220535,
,,,,,,,,,,,,,,,,,,0,0,0,0,0,0,0,0,,,,,,,,,,,,,,,,,,,,,,,,,,,,,,,,,,,,,,,,,,,,,,,,750.199709002045,,,139,W,hexagon,0.002089733025059104,745.8757358930307,747.3631687270245,747.3631687270245,747.3631687270245,1,0,d,1.304917935980484,0,748.7005751630059,,,,,,,,,,,,,,,,,,,,,,,,,,,,,,,,,,,,,,,,,,,,,,,,,,,99099,2022-11-03_14h14.51.471,vts_reward_expectancy_bt_OFFLINE,2022.2.4,60.13734898220535,
,,,,,,,,,,,,,,,,,,0,0,0,0,1,0,1,0,,,,,,,,,,,,,,,,,,,,,,,,,,,,,,,,,,,,,,,,,,,,,,,,754.869960726006,,,132,Y,circle,0.0016947600524872541,751.1953293730039,752.6836927540135,752.6836927540135,752.6836927540135,1,0,d,0.664642057963647,0,753.3678567579482,,,,,,,,,,,,,,,,,,,,,,,,,,,,,,,,,,,,,,,,,,,,,,,,,,,99099,2022-11-03_14h14.51.471,vts_reward_expectancy_bt_OFFLINE,2022.2.4,60.13734898220535,
,,,,,,,,,,,,,,,,,,0,0,0,0,2,0,2,0,,,,,,,,,,,,,,,,,,,,,,,,,,,,,,,,,,,,,,,,,,,,,,,,759.4897468299605,,,160,S,star,0.0017296059522777796,755.8654993979726,757.3537127779564,757.3537127779564,757.3537127779564,1,0,f,0.6072496769484133,0,757.9882445699768,,,,,,,,,,,,,,,,,,,,,,,,,,,,,,,,,,,,,,,,,,,,,,,,,,,99099,2022-11-03_14h14.51.471,vts_reward_expectancy_bt_OFFLINE,2022.2.4,60.13734898220535,
,,,,,,,,,,,,,,,,,,0,0,0,0,3,0,3,0,,,,,,,,,,,,,,,,,,,,,,,,,,,,,,,,,,,,,,,,,,,,,,,,764.1432580039836,,,181,H,triangle,0.0016201420221477747,760.4854138899827,761.9738793879515,761.9738793879515,761.9738793879515,1,0,f,0.6447577140061185,0,762.6421240640339,,,,,,,,,,,,,,,,,,,,,,,,,,,,,,,,,,,,,,,,,,,,,,,,,,,99099,2022-11-03_14h14.51.471,vts_reward_expectancy_bt_OFFLINE,2022.2.4,60.13734898220535,
,,,,,,,,,,,,,,,,,,0,0,0,0,4,0,4,0,,,,,,,,,,,,,,,,,,,,,,,,,,,,,,,,,,,,,,,,,,,,,,,,768.9139556050068,,,146,F,star,0.001678074011579156,765.1389890300343,766.6274760150118,766.6274760150118,766.6274760150118,1,0,d,0.7619626229861751,0,767.4119705860503,,,,,,,,,,,,,,,,,,,,,,,,,,,,,,,,,,,,,,,,,,,,,,,,,,,99099,2022-11-03_14h14.51.471,vts_reward_expectancy_bt_OFFLINE,2022.2.4,60.13734898220535,
,,,,,,,,,,,,,,,,,,0,0,0,0,5,0,5,0,,,,,,,,,,,,,,,,,,,,,,,,,,,,,,,,,,,,,,,,,,,,,,,,773.4817659649998,,,125,D,triangle,0.0017135690432041883,769.9087352339411,771.3977907450171,771.3977907450171,771.3977907450171,1,0,d,0.5594366010045633,0,771.9822477300186,773.4817659649998,,,,,,,,,,,,,,,,,,,,,,,,,,,,,,,,,,,,,,,,,,,,,,,,,,99099,2022-11-03_14h14.51.471,vts_reward_expectancy_bt_OFFLINE,2022.2.4,60.13734898220535,
,,,,,,,,,,,,,,,,,,0,0,0,0,6,0,6,0,,,,,,,,,,,,,,,,,,,,,,,,,,,,,,,,,,,,,,,,,,,,,,,,778.3685310559813,,,167,U,hexagon,0.0017088489839807153,774.4789744579466,775.9678423099685,775.9678423099685,775.9678423099685,1,0,f,0.8718366579851136,0,776.8693724039476,778.3685310559813,,,,,,,,,,,,,,,,,,,,,,,,,,,,,,,,,,,,,,,,,,,,,,,,,,99099,2022-11-03_14h14.51.471,vts_reward_expectancy_bt_OFFLINE,2022.2.4,60.13734898220535,
,,,,,,,,,,,,,,,,,,0,0,0,0,7,0,7,0,,,,,,,,,,,,,,,,,,,,,,,,,,,,,,,,,,,,,,,,,,,,,,,,783.3388889710186,,,174,B,circle,0.004337836988270283,779.3680200349772,780.8550818469375,780.8550818469375,780.8550818469375,1,0,f,0.9572533800965175,0,781.8392359139398,,,,,,,,,,,,,,,,,,,,,,,,,,,,,,,,,,,,,,,,,,,,,,,,,,,99099,2022-11-03_14h14.51.471,vts_reward_expectancy_bt_OFFLINE,2022.2.4,60.13734898220535,
,,,,,,,,,,,,,,,,,,0,0,0,0,8,0,8,0,,,,,,,,,,,,,,,,,,,,,,,,,,,,,,,,,,,,,,,,,,,,,,,,787.9592893329682,,788.4595095580444,139,W,circle,0.0003844610182568431,784.3465413840022,785.8254416240379,785.8254416240379,785.8254416240379,1,0,d,0.6104335449635983,0,786.4596887589432,787.9592893329682,,,,,,,,,,,,,,,,,,,,,,,,,,,,,,,,,,,,,,,,,,,,,,,,,,99099,2022-11-03_14h14.51.471,vts_reward_expectancy_bt_OFFLINE,2022.2.4,60.13734898220535,
,,,,,,,,,,,,,,,,,,0,0,0,0,9,0,9,0,,,,,,,,,,,,,,,,,,,,,,,,,,,,,,,,,,,,,,,,,,,,,,,,792.5456990660168,,793.056356039946,132,Y,hexagon,0.0004803379997611046,788.955017633969,790.4450571839698,790.4450571839698,790.4450571839698,1,0,d,0.5814994709799066,0,791.0466999260243,792.5456990660168,,,,,,,,,,,,,,,,,,,,,,,,,,,,,,,,,,,,,,,,,,,,,,,,,,99099,2022-11-03_14h14.51.471,vts_reward_expectancy_bt_OFFLINE,2022.2.4,60.13734898220535,
,,,,,,,,,,,,,,,,,,,,,,,,,,0,0,0,0,0,0,0,0,,,,,,,,,,,,,,,,,,,,,,,,,,,,,,,,,,,,,,,,818.1312814209377,,818.631230019033,167,D,hexagon,0.017458762042224407,,,,,1,0,,,1,816.631370635936,818.1312814209377,813.9081692110049,815.3801036339719,815.3801036339719,815.3801036339719,j,1.229530052980408,,,,,,,,,,,,,,,,,,,,,,,,,,,,,,,,,,,,,,,,,,,,99099,2022-11-03_14h14.51.471,vts_reward_expectancy_bt_OFFLINE,2022.2.4,60.13734898220535,
,,,,,,,,,,,,,,,,,,,,,,,,,,0,0,0,0,1,0,1,0,,,,,,,,,,,,,,,,,,,,,,,,,,,,,,,,,,,,,,,,823.2677438040264,,823.7683084120508,146,F,triangle,0.0005757369799539447,,,,,1,0,,,1,821.7685710639926,823.2677438040264,819.1270134459483,820.6170438190456,820.6170438190456,820.6170438190456,j,1.1223133499734104,,,,,,,,,,,,,,,,,,,,,,,,,,,,,,,,,,,,,,,,,,,,99099,2022-11-03_14h14.51.471,vts_reward_expectancy_bt_OFFLINE,2022.2.4,60.13734898220535,
,,,,,,,,,,,,,,,,,,,,,,,,,,0,0,0,0,2,0,2,0,,,,,,,,,,,,,,,,,,,,,,,,,,,,,,,,,,,,,,,,829.4570060949773,,,132,S,circle,0.0004979550139978528,,,,,1,0,,,1,827.9564799170475,,824.2763430590276,825.7545187879587,825.7545187879587,825.7545187879587,k,2.1837173380190507,,,,,,,,,,,,,,,,,,,,,,,,,,,,,,,,,,,,,,,,,,,,99099,2022-11-03_14h14.51.471,vts_reward_expectancy_bt_OFFLINE,2022.2.4,60.13734898220535,
,,,,,,,,,,,,,,,,,,,,,,,,,,0,0,0,0,3,0,3,0,,,,,,,,,,,,,,,,,,,,,,,,,,,,,,,,,,,,,,,,834.2107472389471,,,181,H,star,0.0016462979838252068,,,,,1,0,,,1,832.7096298750257,,830.4529532629531,831.9414692709688,831.9414692709688,831.9414692709688,j,0.7452954889740795,,,,,,,,,,,,,,,,,,,,,,,,,,,,,,,,,,,,,,,,,,,,99099,2022-11-03_14h14.51.471,vts_reward_expectancy_bt_OFFLINE,2022.2.4,60.13734898220535,
,,,,,,,,,,,,,,,,,,,,,,,,,,0,0,0,0,4,0,4,0,,,,,,,,,,,,,,,,,,,,,,,,,,,,,,,,,,,,,,,,839.2479551619617,,,125,W,hexagon,0.0019098699558526278,,,,,1,0,,,1,837.746758049936,,835.2062665929552,836.6949157509953,836.6949157509953,836.6949157509953,k,1.031331403995864,,,,,,,,,,,,,,,,,,,,,,,,,,,,,,,,,,,,,,,,,,,,99099,2022-11-03_14h14.51.471,vts_reward_expectancy_bt_OFFLINE,2022.2.4,60.13734898220535,
,,,,,,,,,,,,,,,,,,,,,,,,,,0,0,0,0,5,0,5,0,,,,,,,,,,,,,,,,,,,,,,,,,,,,,,,,,,,,,,,,844.1851370090153,,,160,U,star,0.0016018350142985582,,,,,1,0,,,1,842.6838389809709,,840.2431395900203,841.7320475419983,841.7320475419983,841.7320475419983,k,0.9222621819935739,,,,,,,,,,,,,,,,,,,,,,,,,,,,,,,,,,,,,,,,,,,,99099,2022-11-03_14h14.51.471,vts_reward_expectancy_bt_OFFLINE,2022.2.4,60.13734898220535,
,,,,,,,,,,,,,,,,,,,,,,,,,,0,0,0,0,6,0,6,0,,,,,,,,,,,,,,,,,,,,,,,,,,,,,,,,,,,,,,,,848.9549787349533,,,174,Y,circle,0.0011577680706977844,,,,,1,0,,,1,847.4538081829669,,845.1799949209671,846.6690421720268,846.6690421720268,846.6690421720268,k,0.7550237529212609,,,,,,,,,,,,,,,,,,,,,,,,,,,,,,,,,,,,,,,,,,,,99099,2022-11-03_14h14.51.471,vts_reward_expectancy_bt_OFFLINE,2022.2.4,60.13734898220535,
,,,,,,,,,,,,,,,,,,,,,,,,,,0,0,0,0,7,0,7,0,,,,,,,,,,,,,,,,,,,,,,,,,,,,,,,,,,,,,,,,853.64002406504,,,139,B,triangle,0.0019942980725318193,,,,,1,0,,,1,852.1405034599593,853.64002406504,849.950321470038,851.4392474869965,851.4392474869965,851.4392474869965,j,0.6766807190142572,,,,,,,,,,,,,,,,,,,,,,,,,,,,,,,,,,,,,,,,,,,,99099,2022-11-03_14h14.51.471,vts_reward_expectancy_bt_OFFLINE,2022.2.4,60.13734898220535,
,,,,,,,,,,,,,,,,,,,,,,,,,,0,0,0,0,8,0,8,0,,,,,,,,,,,,,,,,,,,,,,,,,,,,,,,,,,,,,,,,858.4102279950166,,,167,D,circle,0.002140031079761684,,,,,1,0,,,1,856.9108770280145,858.4102279950166,854.6374046360143,856.126402363996,856.126402363996,856.126402363996,j,0.7591647339286283,,,,,,,,,,,,,,,,,,,,,,,,,,,,,,,,,,,,,,,,,,,,99099,2022-11-03_14h14.51.471,vts_reward_expectancy_bt_OFFLINE,2022.2.4,60.13734898220535,
,,,,,,,,,,,,,,,,,,,,,,,,,,0,0,0,0,9,0,9,0,,,,,,,,,,,,,,,,,,,,,,,,,,,,,,,,,,,,,,,,863.3139858220238,,863.8173537040129,146,F,hexagon,0.009183648973703384,,,,,1,0,,,1,861.814538998995,863.3139858220238,859.4098724239739,860.8966203760356,860.8966203760356,860.8966203760356,j,0.8943500310415402,,,,,,,,,,,,,,,,,,,,,,,,,,,,,,,,,,,,,,,,,,,,99099,2022-11-03_14h14.51.471,vts_reward_expectancy_bt_OFFLINE,2022.2.4,60.13734898220535,
,,,,,,,,,,,,,,,,,,,,,,,,,,,,,,,,,,0,0,0,0,0,0,0,0,,,,,,,,,,,,,,,,,,,,,,,,,,,,0,873,,,935.2671037400141,,,139,Y,hexagon,0.002326795016415417,,,,,1,0,,,2,,,,,,,,,931.4443994399626,931.4443994399626,931.4443994399626,931.4443994399626,932.9311659339583,932.9311659339583,932.9311659339583,932.9311659339583,932.9482405120507,932.9482405120507,932.9482405120507,932.9482405120507,-1,number,NA,d,0.8173614590195939,vtsPrac,933.7690915829735,,,,,,,,,,,,,,,,,,,,,,,,,99099,2022-11-03_14h14.51.471,vts_reward_expectancy_bt_OFFLINE,2022.2.4,60.13734898220535,
,,,,,,,,,,,,,,,,,,,,,,,,,,,,,,,,,,0,0,0,0,1,0,1,0,,,,,,,,,,,,,,,,,,,,,,,,,,,,0,873,,,940.4208245299524,,,181,U,circle,0.0012558690505102277,,,,,1,0,,,2,,,,,,,,,936.2636940359371,936.2636940359371,936.2636940359371,936.2636940359371,937.7514845459955,937.7514845459955,937.7514845459955,937.7514845459955,937.7683566849446,937.7683566849446,937.7683566849446,937.7683566849446,repeat,number,numRpt,f,1.1492750350153074,vtsPrac,938.920673731016,,,,,,,,,,,,,,,,,,,,,,,,,99099,2022-11-03_14h14.51.471,vts_reward_expectancy_bt_OFFLINE,2022.2.4,60.13734898220535,
,,,,,,,,,,,,,,,,,,,,,,,,,,,,,,,,,,0,0,0,0,2,0,2,0,,,,,,,,,,,,,,,,,,,,,,,,,,,,0,873,,,945.191693183966,,,174,B,hexagon,0.0015643220394849777,,,,,1,0,,,2,,,,,,,,,941.4172593780095,941.4172593780095,941.4172593780095,941.4172593780095,942.9051797019783,942.9051797019783,942.9051797019783,942.9051797019783,942.9222101289779,942.9222101289779,942.9222101289779,942.9222101289779,repeat,number,numRpt,f,0.765710212988779,vtsPrac,943.6903579110513,,,,,,,,,,,,,,,,,,,,,,,,,99099,2022-11-03_14h14.51.471,vts_reward_expectancy_bt_OFFLINE,2022.2.4,60.13734898220535,
,,,,,,,,,,,,,,,,,,,,,,,,,,,,,,,,,,0,0,0,0,3,0,3,0,,,,,,,,,,,,,,,,,,,,,,,,,,,,0,873,,,949.8780476619722,,,125,D,circle,0.00166553002782166,,,,,1,0,,,2,,,,,,,,,946.1873827149393,946.1873827149393,946.1873827149393,946.1873827149393,947.6754737900337,947.6754737900337,947.6754737900337,947.6754737900337,947.6925883820513,947.6925883820513,947.6925883820513,947.6925883820513,switch,letter,lettSwt,j,0.6757276519201696,vtsPrac,948.3768301870441,,,,,,,,,,,,,,,,,,,,,,,,,99099,2022-11-03_14h14.51.471,vts_reward_expectancy_bt_OFFLINE,2022.2.4,60.13734898220535,
,,,,,,,,,,,,,,,,,,,,,,,,,,,,,,,,,,0,0,0,0,4,0,4,0,,,,,,,,,,,,,,,,,,,,,,,,,,,,0,873,,,954.5646906469483,,,139,Y,triangle,0.002211997052654624,,,,,1,0,,,2,,,,,,,,,950.8742077170173,950.8742077170173,950.8742077170173,950.8742077170173,952.3622874349821,952.3622874349821,952.3622874349821,952.3622874349821,952.3788579809479,952.3788579809479,952.3788579809479,952.3788579809479,repeat,letter,lettRpt,k,0.6695364309707657,vtsPrac,953.0639795749448,,,,,,,,,,,,,,,,,,,,,,,,,99099,2022-11-03_14h14.51.471,vts_reward_expectancy_bt_OFFLINE,2022.2.4,60.13734898220535,
,,,,,,,,,,,,,,,,,,,,,,,,,,,,,,,,,,0,0,0,0,5,0,5,0,,,,,,,,,,,,,,,,,,,,,,,,,,,,0,873,,,959.2015791940503,,,181,U,circle,0.0022404579212889075,,,,,1,0,,,2,,,,,,,,,955.560760051012,955.560760051012,955.560760051012,955.560760051012,957.0494001810439,957.0494001810439,957.0494001810439,957.0494001810439,957.0657161419513,957.0657161419513,957.0657161419513,957.0657161419513,repeat,letter,lettRpt,k,0.6169582849834114,vtsPrac,957.6997010359773,,,,,,,,,,,,,,,,,,,,,,,,,99099,2022-11-03_14h14.51.471,vts_reward_expectancy_bt_OFFLINE,2022.2.4,60.13734898220535,
,,,,,,,,,,,,,,,,,,,,,,,,,,,,,,,,,,0,0,0,0,6,0,6,0,,,,,,,,,,,,,,,,,,,,,,,,,,,,0,873,,,964.0386894369731,,,174,B,circle,0.0012196819297969341,,,,,1,0,,,2,,,,,,,,,960.1970776970265,960.1970776970265,960.1970776970265,960.1970776970265,961.6859950129874,961.6859950129874,961.6859950129874,961.6859950129874,961.7030047710286,961.7030047710286,961.7030047710286,961.7030047710286,switch,number,numSwt,f,0.8183916609268636,vtsPrac,962.536291504046,,,,,,,,,,,,,,,,,,,,,,,,,99099,2022-11-03_14h14.51.471,vts_reward_expectancy_bt_OFFLINE,2022.2.4,60.13734898220535,
,,,,,,,,,,,,,,,,,,,,,,,,,,,,,,,,,,0,0,0,0,7,0,7,0,,,,,,,,,,,,,,,,,,,,,,,,,,,,0,873,,,968.8067455539713,,,125,D,hexagon,0.0008084899745881557,,,,,1,0,,,2,,,,,,,,,965.0347746569896,965.0347746569896,965.0347746569896,965.0347746569896,966.5233325980371,966.5233325980371,966.5233325980371,966.5233325980371,966.5394988219487,966.5394988219487,966.5394988219487,966.5394988219487,repeat,number,numRpt,d,0.7628776429919526,vtsPrac,967.3076719919918,968.8067455539713,,,,,,,,,,,,,,,,,,,,,,,,99099,2022-11-03_14h14.51.471,vts_reward_expectancy_bt_OFFLINE,2022.2.4,60.13734898220535,
,,,,,,,,,,,,,,,,,,,,,,,,,,,,,,,,,,0,0,0,0,8,0,8,0,,,,,,,,,,,,,,,,,,,,,,,,,,,,0,873,,,973.7772581379395,,,125,S,triangle,0.0019019989995285869,,,,,1,0,,,2,,,,,,,,,969.8041584210005,969.8041584210005,969.8041584210005,969.8041584210005,971.2929566530511,971.2929566530511,971.2929566530511,971.2929566530511,971.3098591680173,971.3098591680173,971.3098591680173,971.3098591680173,repeat,number,numRpt,d,0.9661270610522479,vtsPrac,972.2778548080241,973.7772581379395,,,,,,,,,,,,,,,,,,,,,,,,99099,2022-11-03_14h14.51.471,vts_reward_expectancy_bt_OFFLINE,2022.2.4,60.13734898220535,
,,,,,,,,,,,,,,,,,,,,,,,,,,,,,,,,,,0,0,0,0,9,0,9,0,,,,,,,,,,,,,,,,,,,,,,,,,,,,0,873,,,978.414246815024,,978.9142190850107,160,W,star,0.0016642860136926174,,,,,1,0,,,2,,,,,,,,,974.7752075759927,974.7752075759927,974.7752075759927,974.7752075759927,976.2633647579933,976.2633647579933,976.2633647579933,976.2633647579933,976.2802316469606,976.2802316469606,976.2802316469606,976.2802316469606,switch,letter,lettSwt,k,0.6184475540649146,vtsPrac,976.9134000289487,978.414246815024,,,,,,,,,,,,,,,,,,,,,,,,99099,2022-11-03_14h14.51.471,vts_reward_expectancy_bt_OFFLINE,2022.2.4,60.13734898220535,
,,,,,,,,,,,,,,,,,,,,,,,,,,,,,,,,,,0,0,0,0,10,0,10,0,,,,,,,,,,,,,,,,,,,,,,,,,,,,0,873,,,983.1176478599664,,983.6179076109547,181,H,hexagon,0.014217937015928328,,,,,1,0,,,2,,,,,,,,,979.427096444997,979.427096444997,979.427096444997,979.427096444997,980.9006608149502,980.9006608149502,980.9006608149502,980.9006608149502,980.9338429319905,980.9338429319905,980.9338429319905,980.9338429319905,repeat,letter,lettRpt,j,0.684148482978344,vtsPrac,981.6172942089615,983.1176478599664,,,,,,,,,,,,,,,,,,,,,,,,99099,2022-11-03_14h14.51.471,vts_reward_expectancy_bt_OFFLINE,2022.2.4,60.13734898220535,
,,,,,,,,,,,,,,,,,,,,,,,,,,,,,,,,,,0,0,0,0,11,0,11,0,,,,,,,,,,,,,,,,,,,,,,,,,,,,0,873,,,987.670936814975,,988.1713554529706,139,Y,circle,-0.0005175509722903371,,,,,1,0,,,2,,,,,,,,,984.1256866359618,984.1256866359618,984.1256866359618,984.1256866359618,985.6040752569679,985.6040752569679,985.6040752569679,985.6040752569679,985.6370379199507,985.6370379199507,985.6370379199507,985.6370379199507,repeat,letter,lettRpt,k,0.5495230470551178,vtsPrac,986.1722232280299,987.670936814975,,,,,,,,,,,,,,,,,,,,,,,,99099,2022-11-03_14h14.51.471,vts_reward_expectancy_bt_OFFLINE,2022.2.4,60.13734898220535,
,,,,,,,,,,,,,,,,,,,,,,,,,,,,,,,,,,0,0,0,0,12,0,12,0,,,,,,,,,,,,,,,,,,,,,,,,,,,,0,873,,,992.7081664319849,,,174,Y,hexagon,0.0004432470304891467,,,,,1,0,,,2,,,,,,,,,988.6780839710264,988.6780839710264,988.6780839710264,988.6780839710264,990.1569769650232,990.1569769650232,990.1569769650232,990.1569769650232,990.1906805860344,990.1906805860344,990.1906805860344,990.1906805860344,switch,number,numSwt,f,1.0138440870214254,vtsPrac,991.1928711479995,,,,,,,,,,,,,,,,,,,,,,,,,99099,2022-11-03_14h14.51.471,vts_reward_expectancy_bt_OFFLINE,2022.2.4,60.13734898220535,
,,,,,,,,,,,,,,,,,,,,,,,,,,,,,,,,,,0,0,0,0,13,0,13,0,,,,,,,,,,,,,,,,,,,,,,,,,,,,0,873,,,997.6116777609568,,,125,B,triangle,0.016467585926875472,,,,,1,0,,,2,,,,,,,,,993.7040144240018,993.7040144240018,993.7040144240018,993.7040144240018,995.1778711000225,995.1778711000225,995.1778711000225,995.1778711000225,995.210867951042,995.210867951042,995.210867951042,995.210867951042,repeat,number,numRpt,d,0.8974415850825608,vtsPrac,996.096378776012,,,,,,,,,,,,,,,,,,,,,,,,,99099,2022-11-03_14h14.51.471,vts_reward_expectancy_bt_OFFLINE,2022.2.4,60.13734898220535,
,,,,,,,,,,,,,,,,,,,,,,,,,,,,,,,,,,0,0,0,0,14,0,14,0,,,,,,,,,,,,,,,,,,,,,,,,,,,,0,873,,,1002.3652156710159,,1002.8653264449676,139,D,star,0.016258415998890996,,,,,1,0,,,2,,,,,,,,,998.6077304199571,998.6077304199571,998.6077304199571,998.6077304199571,1000.0812978449976,1000.0812978449976,1000.0812978449976,1000.0812978449976,1000.1144851569552,1000.1144851569552,1000.1144851569552,1000.1144851569552,repeat,number,numRpt,d,0.7643405419075862,vtsPrac,1000.8661528000375,1002.3652156710159,,,,,,,,,,,,,,,,,,,,,,,,99099,2022-11-03_14h14.51.471,vts_reward_expectancy_bt_OFFLINE,2022.2.4,60.13734898220535,
,,,,,,,,,,,,,,,,,,,,,,,,,,,,,,,,,,0,0,0,0,15,0,15,0,,,,,,,,,,,,,,,,,,,,,,,,,,,,0,873,,,1007.085413638968,,,160,F,triangle,0.0005451489705592394,,,,,1,0,,,2,,,,,,,,,1003.3729927870445,1003.3729927870445,1003.3729927870445,1003.3729927870445,1004.8515680179698,1004.8515680179698,1004.8515680179698,1004.8515680179698,1004.884920889046,1004.884920889046,1004.884920889046,1004.884920889046,switch,letter,lettSwt,j,0.6859495220705867,vtsPrac,1005.5697719169548,,,,,,,,,,,,,,,,,,,,,,,,,99099,2022-11-03_14h14.51.471,vts_reward_expectancy_bt_OFFLINE,2022.2.4,60.13734898220535,
,,,,,,,,,,,,,,,,,,,,,,,,,,,,,,,,,,0,0,0,0,16,0,16,0,,,,,,,,,,,,,,,,,,,,,,,,,,,,0,873,,,1011.5889071989805,,1012.089015422971,125,W,star,0.016975354054011405,,,,,1,0,,,2,,,,,,,,,1008.0811288700206,1008.0811288700206,1008.0811288700206,1008.0811288700206,1009.5552483090432,1009.5552483090432,1009.5552483090432,1009.5552483090432,1009.5879063770408,1009.5879063770408,1009.5879063770408,1009.5879063770408,repeat,letter,lettRpt,k,0.5053564589470625,vtsPrac,1010.0894191679545,1011.5889071989805,,,,,,,,,,,,,,,,,,,,,,,,99099,2022-11-03_14h14.51.471,vts_reward_expectancy_bt_OFFLINE,2022.2.4,60.13734898220535,
,,,,,,,,,,,,,,,,,,,,,,,,,,,,,,,,,,0,0,0,0,17,0,17,0,,,,,,,,,,,,,,,,,,,,,,,,,,,,0,873,,,1016.1423710579984,,1016.6425830009393,139,H,hexagon,0.0003566939849406481,,,,,1,0,,,2,,,,,,,,,1012.5848912990186,1012.5848912990186,1012.5848912990186,1012.5848912990186,1014.0748729009647,1014.0748729009647,1014.0748729009647,1014.0748729009647,1014.0916298369411,1014.0916298369411,1014.0916298369411,1014.0916298369411,repeat,letter,lettRpt,j,0.5409110080217943,vtsPrac,1014.6429656529799,1016.1423710579984,,,,,,,,,,,,,,,,,,,,,,,,99099,2022-11-03_14h14.51.471,vts_reward_expectancy_bt_OFFLINE,2022.2.4,60.13734898220535,
,,,,,,,,,,,,,,,,,,,,,,,,,,,,,,,,,,0,0,0,0,18,0,18,0,,,,,,,,,,,,,,,,,,,,,,,,,,,,0,873,,,1020.9961529789725,,,146,S,hexagon,0.00025587494019418955,,,,,1,0,,,2,,,,,,,,,1017.138224749011,1017.138224749011,1017.138224749011,1017.138224749011,1018.626740933978,1018.626740933978,1018.626740933978,1018.626740933978,1018.6435352669796,1018.6435352669796,1018.6435352669796,1018.6435352669796,switch,number,numSwt,d,0.8492470650235191,vtsPrac,1019.4964515159372,1020.9961529789725,,,,,,,,,,,,,,,,,,,,,,,,99099,2022-11-03_14h14.51.471,vts_reward_expectancy_bt_OFFLINE,2022.2.4,60.13734898220535,
,,,,,,,,,,,,,,,,,,,,,,,,,,,,,,,,,,0,0,0,0,19,0,19,0,,,,,,,,,,,,,,,,,,,,,,,,,,,,0,873,,,1025.8664771090262,,,167,U,triangle,0.0005728380056098104,,,,,1,0,,,2,,,,,,,,,1021.991723499028,1021.991723499028,1021.991723499028,1021.991723499028,1023.4801648450084,1023.4801648450084,1023.4801648450084,1023.4801648450084,1023.4970673279604,1023.4970673279604,1023.4970673279604,1023.4970673279604,repeat,number,numRpt,f,0.8558640059782192,vtsPrac,1024.3670676889597,1025.8664771090262,,,,,,,,,,,,,,,,,,,,,,,,99099,2022-11-03_14h14.51.471,vts_reward_expectancy_bt_OFFLINE,2022.2.4,60.13734898220535,
,,,,,,,,,,,,,,,,,,,,,,,,,,,,,,,,,,0,0,0,0,20,0,20,0,,,,,,,,,,,,,,,,,,,,,,,,,,,,0,873,,,1030.8035144199384,,,125,U,triangle,0.00043282797560095787,,,,,1,0,,,2,,,,,,,,,1026.861187221948,1026.861187221948,1026.861187221948,1026.861187221948,1028.3503722510068,1028.3503722510068,1028.3503722510068,1028.3503722510068,1028.3673229679698,1028.3673229679698,1028.3673229679698,1028.3673229679698,switch,letter,lettSwt,k,0.9133394589880481,vtsPrac,1029.2876231599366,,,,,,,,,,,,,,,,,,,,,,,,,99099,2022-11-03_14h14.51.471,vts_reward_expectancy_bt_OFFLINE,2022.2.4,60.13734898220535,
,,,,,,,,,,,,,,,,,,,,,,,,,,,,,,,,,,0,0,0,0,21,0,21,0,,,,,,,,,,,,,,,,,,,,,,,,,,,,0,873,,,1035.5736941429786,,,181,S,star,0.0168395999353379,,,,,1,0,,,2,,,,,,,,,1031.7989116129465,1031.7989116129465,1031.7989116129465,1031.7989116129465,1033.2707595200045,1033.2707595200045,1033.2707595200045,1033.2707595200045,1033.3043209910393,1033.3043209910393,1033.3043209910393,1033.3043209910393,repeat,letter,lettRpt,k,0.7640045980224386,vtsPrac,1034.0595248179743,,,,,,,,,,,,,,,,,,,,,,,,,99099,2022-11-03_14h14.51.471,vts_reward_expectancy_bt_OFFLINE,2022.2.4,60.13734898220535,
,,,,,,,,,,,,,,,,,,,,,,,,,,,,,,,,,,0,0,0,0,22,0,22,0,,,,,,,,,,,,,,,,,,,,,,,,,,,,0,873,,,1040.3937683090335,,,139,D,hexagon,0.013904510997235775,,,,,1,0,,,2,,,,,,,,,1036.569326514029,1036.569326514029,1036.569326514029,1036.569326514029,1038.0576716299402,1038.0576716299402,1038.0576716299402,1038.0576716299402,1038.074781334959,1038.074781334959,1038.074781334959,1038.074781334959,switch,number,numSwt,d,0.8026723980437964,vtsPrac,1038.8935271690134,,,,,,,,,,,,,,,,,,,,,,,,,99099,2022-11-03_14h14.51.471,vts_reward_expectancy_bt_OFFLINE,2022.2.4,60.13734898220535,
,,,,,,,,,,,,,,,,,,,,,,,,,,,,,,,,,,0,0,0,0,23,0,23,0,,,,,,,,,,,,,,,,,,,,,,,,,,,,0,873,,,1045.197141814977,,,174,F,circle,0.00135089794639498,,,,,1,0,,,2,,,,,,,,,1041.3886922099628,1041.3886922099628,1041.3886922099628,1041.3886922099628,1042.8779735589633,1042.8779735589633,1042.8779735589633,1042.8779735589633,1042.8949498910224,1042.8949498910224,1042.8949498910224,1042.8949498910224,switch,letter,lettSwt,j,0.7975113219581544,vtsPrac,1043.6960771590238,,,,,,,,,,,,,,,,,,,,,,,,,99099,2022-11-03_14h14.51.471,vts_reward_expectancy_bt_OFFLINE,2022.2.4,60.13734898220535,
,,,,,,,,,,,,,,,,,,,,,,,,,,,,,,,,,,0,0,0,0,24,0,24,0,,,,,,,,,,,,,,,,,,,,,,,,,,,,0,873,,,1049.8175606910372,,,125,B,star,0.002278164029121399,,,,,1,0,,,2,,,,,,,,,1046.1928928790148,1046.1928928790148,1046.1928928790148,1046.1928928790148,1047.6813566200435,1047.6813566200435,1047.6813566200435,1047.6813566200435,1047.6981948500033,1047.6981948500033,1047.6981948500033,1047.6981948500033,switch,number,numSwt,d,0.6069724920671433,vtsPrac,1048.3167259519687,,,,,,,,,,,,,,,,,,,,,,,,,99099,2022-11-03_14h14.51.471,vts_reward_expectancy_bt_OFFLINE,2022.2.4,60.13734898220535,
,,,,,,,,,,,,,,,,,,,,,,,,,,,,,,,,,,0,0,0,0,25,0,25,0,,,,,,,,,,,,,,,,,,,,,,,,,,,,0,873,,,1054.4207137839403,,,132,D,circle,0.0016191230388358235,,,,,1,0,,,2,,,,,,,,,1050.8129241489805,1050.8129241489805,1050.8129241489805,1050.8129241489805,1052.3013596379897,1052.3013596379897,1052.3013596379897,1052.3013596379897,1052.3186430330388,1052.3186430330388,1052.3186430330388,1052.3186430330388,repeat,number,numRpt,d,0.6000895500183105,vtsPrac,1052.9204785369802,,,,,,,,,,,,,,,,,,,,,,,,,99099,2022-11-03_14h14.51.471,vts_reward_expectancy_bt_OFFLINE,2022.2.4,60.13734898220535,
