LTriangleOpac,LCircleOpac,LHexagonOpac,LStarOpac,RTriangleOpac,RCircleOpac,RHexagonOpac,RStarOpac,LShape_ID,RShape_ID,training_blocks.thisRepN,training_blocks.thisTrialN,training_blocks.thisN,training_blocks.thisIndex,training.thisRepN,training.thisTrialN,training.thisN,training.thisIndex,task1_prac_redo.thisRepN,task1_prac_redo.thisTrialN,task1_prac_redo.thisN,task1_prac_redo.thisIndex,task1_prac_trials.thisRepN,task1_prac_trials.thisTrialN,task1_prac_trials.thisN,task1_prac_trials.thisIndex,task2_prac_redo.thisRepN,task2_prac_redo.thisTrialN,task2_prac_redo.thisN,task2_prac_redo.thisIndex,task2_praac_trials.thisRepN,task2_praac_trials.thisTrialN,task2_praac_trials.thisN,task2_praac_trials.thisIndex,vts_prac_redo.thisRepN,vts_prac_redo.thisTrialN,vts_prac_redo.thisN,vts_prac_redo.thisIndex,vts_practice_trials.thisRepN,vts_practice_trials.thisTrialN,vts_practice_trials.thisN,vts_practice_trials.thisIndex,trials_norew.thisRepN,trials_norew.thisTrialN,trials_norew.thisN,trials_norew.thisIndex,block.thisRepN,block.thisTrialN,block.thisN,block.thisIndex,trials_rew.thisRepN,trials_rew.thisTrialN,trials_rew.thisN,trials_rew.thisIndex,key_resp.started,key_resp.keys,key_resp.rt,left_circle.started,right_circle.started,left_triangle.started,right_triangle.started,left_star.started,right_star.started,left_hexagon.started,right_hexagon.started,training_fix.started,training_resp.started,training_resp.keys,training_resp.rt,points_trial,points_cumul,trainBlock,training_feedback_txt.started,fix.started,training_feedback_txt.stopped,curr_topStim,curr_bottStim,curr_shape,ISI.started,tgt_fix_prac1.started,top_target_prac1.started,bott_target_prac1.started,target_resp_prac1.started,acc,E1,target_resp_prac1.keys,target_resp_prac1.rt,pracBlock,prac_fback_text.started,prac_fback_text.stopped,tgt_fix_prac2.started,top_target_prac2.started,bott_target_prac2.started,target_resp_prac2.started,target_resp_prac2.keys,target_resp_prac2.rt,star.started,hegagon.started,triangle.started,circle.started,top_target.started,tgt_fix.started,bot_target.started,target_resp.started,star.stopped,hegagon.stopped,triangle.stopped,circle.stopped,alt,task,condition,target_resp.keys,target_resp.rt,rewCond,vts_fback.started,vts_fback.stopped,fix.stopped,blockNum,norew_fback.started,norew_fback.stopped,key_resp_2.keys,key_resp_2.rt,rewExpectancy,feedbk_text.started,feedbk_text.stopped,top_target.stopped,tgt_fix.stopped,bot_target.stopped,target_resp.stopped,text_3.started,debrief.started,text_3.stopped,button.started,debrief.index,debrief.itemText,debrief.type,debrief.granularity,debrief.font,debrief.markerColor,debrief.response,debrief.rt,button.numClicks,button.timesOn,button.timesOff,participant,date,expName,psychopyVersion,frameRate,
,,,,,,,,,,,,,,,,,,,,,,,,,,,,,,,,,,,,,,,,,,,,,,,,,,,,,,32.032086248043925,space,23.61041821888648,,,,,,,,,,,,,,,,,,,,,,,,,,,,,,,,,,,,,,,,,,,,,,,,,,,,,,,,,,,,,,,,,,,,,,,,,,,,,,,,,,,,,,,,99640,2022-11-10_14h07.36.122,vts_reward_expectancy_bt_OFFLINE,2022.2.4,60.10686973656437,
0,0,0,1,1,0,0,0,star,triangle,0,0,0,0,0,0,0,9,,,,,,,,,,,,,,,,,,,,,,,,,,,,,,,,,,,,,,,,82.70481752511114,82.70481752511114,82.70481752511114,82.70481752511114,82.70481752511114,82.70481752511114,82.70481752511114,82.70481752511114,82.70481752511114,82.70481752511114,l,2.14384324895218,10,10,0,84.87341104703955,86.37527335714549,,,,,,,,,,,,,,,,,,,,,,,,,,,,,,,,,,,,,,,,,,,,,,,,,,,,,,,,,,,,,,,,,,,,,,,99640,2022-11-10_14h07.36.122,vts_reward_expectancy_bt_OFFLINE,2022.2.4,60.10686973656437,
0,0,1,0,0,0,0,1,hexagon,star,0,0,0,0,0,1,1,8,,,,,,,,,,,,,,,,,,,,,,,,,,,,,,,,,,,,,,,,86.87583556305617,86.87583556305617,86.87583556305617,86.87583556305617,86.87583556305617,86.87583556305617,86.87583556305617,86.87583556305617,86.87583556305617,86.87583556305617,a,2.090570850064978,10,20,0,88.99488247698173,90.49664225801826,,,,,,,,,,,,,,,,,,,,,,,,,,,,,,,,,,,,,,,,,,,,,,,,,,,,,,,,,,,,,,,,,,,,,,,99640,2022-11-10_14h07.36.122,vts_reward_expectancy_bt_OFFLINE,2022.2.4,60.10686973656437,
0,0,0,1,0,1,0,0,star ,circle,0,0,0,0,0,2,2,10,,,,,,,,,,,,,,,,,,,,,,,,,,,,,,,,,,,,,,,,90.99735264503397,90.99735264503397,90.99735264503397,90.99735264503397,90.99735264503397,90.99735264503397,90.99735264503397,90.99735264503397,90.99735264503397,90.99735264503397,l,2.7054944499395788,10,30,0,93.73344083712436,95.23539445712231,,,,,,,,,,,,,,,,,,,,,,,,,,,,,,,,,,,,,,,,,,,,,,,,,,,,,,,,,,,,,,,,,,,,,,,99640,2022-11-10_14h07.36.122,vts_reward_expectancy_bt_OFFLINE,2022.2.4,60.10686973656437,
1,0,0,0,0,0,0,1,triangle,star,0,0,0,0,0,3,3,2,,,,,,,,,,,,,,,,,,,,,,,,,,,,,,,,,,,,,,,,95.73583198012784,95.73583198012784,95.73583198012784,95.73583198012784,95.73583198012784,95.73583198012784,95.73583198012784,95.73583198012784,95.73583198012784,95.73583198012784,a,0.9160400801338255,10,40,0,96.67005378310569,98.17172361211851,,,,,,,,,,,,,,,,,,,,,,,,,,,,,,,,,,,,,,,,,,,,,,,,,,,,,,,,,,,,,,,,,,,,,,,99640,2022-11-10_14h07.36.122,vts_reward_expectancy_bt_OFFLINE,2022.2.4,60.10686973656437,
0,0,0,1,0,0,1,0,star,hexagon,0,0,0,0,0,4,4,11,,,,,,,,,,,,,,,,,,,,,,,,,,,,,,,,,,,,,,,,98.67235950008035,98.67235950008035,98.67235950008035,98.67235950008035,98.67235950008035,98.67235950008035,98.67235950008035,98.67235950008035,98.67235950008035,98.67235950008035,l,0.8353526948485523,1,41,0,99.54009870695882,101.04151983303018,,,,,,,,,,,,,,,,,,,,,,,,,,,,,,,,,,,,,,,,,,,,,,,,,,,,,,,,,,,,,,,,,,,,,,,99640,2022-11-10_14h07.36.122,vts_reward_expectancy_bt_OFFLINE,2022.2.4,60.10686973656437,
0,0,1,0,1,0,0,0,hexagon,triangle,0,0,0,0,0,5,5,6,,,,,,,,,,,,,,,,,,,,,,,,,,,,,,,,,,,,,,,,101.54206040804274,101.54206040804274,101.54206040804274,101.54206040804274,101.54206040804274,101.54206040804274,101.54206040804274,101.54206040804274,101.54206040804274,101.54206040804274,l,1.8478709131013602,10,51,0,103.41093058115803,104.91253621713258,,,,,,,,,,,,,,,,,,,,,,,,,,,,,,,,,,,,,,,,,,,,,,,,,,,,,,,,,,,,,,,,,,,,,,,99640,2022-11-10_14h07.36.122,vts_reward_expectancy_bt_OFFLINE,2022.2.4,60.10686973656437,
0,1,0,0,1,0,0,0,circle,triangle,0,0,0,0,0,6,6,3,,,,,,,,,,,,,,,,,,,,,,,,,,,,,,,,,,,,,,,,105.41315768612549,105.41315768612549,105.41315768612549,105.41315768612549,105.41315768612549,105.41315768612549,105.41315768612549,105.41315768612549,105.41315768612549,105.41315768612549,l,1.5877303590532392,1,52,0,107.03135175304487,108.53302564215846,,,,,,,,,,,,,,,,,,,,,,,,,,,,,,,,,,,,,,,,,,,,,,,,,,,,,,,,,,,,,,,,,,,,,,,99640,2022-11-10_14h07.36.122,vts_reward_expectancy_bt_OFFLINE,2022.2.4,60.10686973656437,
0,0,1,0,0,1,0,0,hexagon,circle,0,0,0,0,0,7,7,7,,,,,,,,,,,,,,,,,,,,,,,,,,,,,,,,,,,,,,,,109.03360252105631,109.03360252105631,109.03360252105631,109.03360252105631,109.03360252105631,109.03360252105631,109.03360252105631,109.03360252105631,109.03360252105631,109.03360252105631,l,2.9740103830117732,1,53,0,112.03699717507698,113.53863586205989,,,,,,,,,,,,,,,,,,,,,,,,,,,,,,,,,,,,,,,,,,,,,,,,,,,,,,,,,,,,,,,,,,,,,,,99640,2022-11-10_14h07.36.122,vts_reward_expectancy_bt_OFFLINE,2022.2.4,60.10686973656437,
0,1,0,0,0,0,1,0,circle,hexagon,0,0,0,0,0,8,8,4,,,,,,,,,,,,,,,,,,,,,,,,,,,,,,,,,,,,,,,,114.03914975607768,114.03914975607768,114.03914975607768,114.03914975607768,114.03914975607768,114.03914975607768,114.03914975607768,114.03914975607768,114.03914975607768,114.03914975607768,l,2.3115313888993114,1,54,0,116.37514473195188,117.87661556317471,,,,,,,,,,,,,,,,,,,,,,,,,,,,,,,,,,,,,,,,,,,,,,,,,,,,,,,,,,,,,,,,,,,,,,,99640,2022-11-10_14h07.36.122,vts_reward_expectancy_bt_OFFLINE,2022.2.4,60.10686973656437,
1,0,0,0,0,0,1,0,triangle,hexagon,0,0,0,0,0,9,9,1,,,,,,,,,,,,,,,,,,,,,,,,,,,,,,,,,,,,,,,,118.37737512099557,118.37737512099557,118.37737512099557,118.37737512099557,118.37737512099557,118.37737512099557,118.37737512099557,118.37737512099557,118.37737512099557,118.37737512099557,a,1.4165032478049397,10,64,0,119.81219063000754,121.31412888597697,,,,,,,,,,,,,,,,,,,,,,,,,,,,,,,,,,,,,,,,,,,,,,,,,,,,,,,,,,,,,,,,,,,,,,,99640,2022-11-10_14h07.36.122,vts_reward_expectancy_bt_OFFLINE,2022.2.4,60.10686973656437,
1,0,0,0,0,1,0,0,triangle,circle,0,0,0,0,0,10,10,0,,,,,,,,,,,,,,,,,,,,,,,,,,,,,,,,,,,,,,,,121.81439727614634,121.81439727614634,121.81439727614634,121.81439727614634,121.81439727614634,121.81439727614634,121.81439727614634,121.81439727614634,121.81439727614634,121.81439727614634,l,1.275557465851307,10,74,0,123.1158796029631,124.617607770022,,,,,,,,,,,,,,,,,,,,,,,,,,,,,,,,,,,,,,,,,,,,,,,,,,,,,,,,,,,,,,,,,,,,,,,99640,2022-11-10_14h07.36.122,vts_reward_expectancy_bt_OFFLINE,2022.2.4,60.10686973656437,
0,1,0,0,0,0,0,1,circle,star,0,0,0,0,0,11,11,5,,,,,,,,,,,,,,,,,,,,,,,,,,,,,,,,,,,,,,,,125.11818590504117,125.11818590504117,125.11818590504117,125.11818590504117,125.11818590504117,125.11818590504117,125.11818590504117,125.11818590504117,125.11818590504117,125.11818590504117,a,3.6422346951439977,10,84,0,128.78894881810993,130.29056857712567,,,,,,,,,,,,,,,,,,,,,,,,,,,,,,,,,,,,,,,,,,,,,,,,,,,,,,,,,,,,,,,,,,,,,,,99640,2022-11-10_14h07.36.122,vts_reward_expectancy_bt_OFFLINE,2022.2.4,60.10686973656437,
0,0,0,1,1,0,0,0,star,triangle,0,0,0,0,1,0,12,9,,,,,,,,,,,,,,,,,,,,,,,,,,,,,,,,,,,,,,,,130.79114929703064,130.79114929703064,130.79114929703064,130.79114929703064,130.79114929703064,130.79114929703064,130.79114929703064,130.79114929703064,130.79114929703064,130.79114929703064,l,0.9949953679461032,10,94,0,131.80899644014426,133.31060399813578,,,,,,,,,,,,,,,,,,,,,,,,,,,,,,,,,,,,,,,,,,,,,,,,,,,,,,,,,,,,,,,,,,,,,,,99640,2022-11-10_14h07.36.122,vts_reward_expectancy_bt_OFFLINE,2022.2.4,60.10686973656437,
0,0,1,0,0,0,0,1,hexagon,star,0,0,0,0,1,1,13,8,,,,,,,,,,,,,,,,,,,,,,,,,,,,,,,,,,,,,,,,133.81102801696397,133.81102801696397,133.81102801696397,133.81102801696397,133.81102801696397,133.81102801696397,133.81102801696397,133.81102801696397,133.81102801696397,133.81102801696397,a,1.318606142885983,1,95,0,135.1624990720302,136.66416401602328,,,,,,,,,,,,,,,,,,,,,,,,,,,,,,,,,,,,,,,,,,,,,,,,,,,,,,,,,,,,,,,,,,,,,,,99640,2022-11-10_14h07.36.122,vts_reward_expectancy_bt_OFFLINE,2022.2.4,60.10686973656437,
1,0,0,0,0,0,1,0,triangle,hexagon,0,0,0,0,1,2,14,1,,,,,,,,,,,,,,,,,,,,,,,,,,,,,,,,,,,,,,,,137.16461115307175,137.16461115307175,137.16461115307175,137.16461115307175,137.16461115307175,137.16461115307175,137.16461115307175,137.16461115307175,137.16461115307175,137.16461115307175,a,1.3948116248939186,1,96,0,138.5830482461024,140.08468049112707,,,,,,,,,,,,,,,,,,,,,,,,,,,,,,,,,,,,,,,,,,,,,,,,,,,,,,,,,,,,,,,,,,,,,,,99640,2022-11-10_14h07.36.122,vts_reward_expectancy_bt_OFFLINE,2022.2.4,60.10686973656437,
0,1,0,0,0,0,0,1,circle,star,0,0,0,0,1,3,15,5,,,,,,,,,,,,,,,,,,,,,,,,,,,,,,,,,,,,,,,,140.58522795513272,140.58522795513272,140.58522795513272,140.58522795513272,140.58522795513272,140.58522795513272,140.58522795513272,140.58522795513272,140.58522795513272,140.58522795513272,a,1.1025065609719604,1,97,0,141.72000341117382,143.22129513602704,,,,,,,,,,,,,,,,,,,,,,,,,,,,,,,,,,,,,,,,,,,,,,,,,,,,,,,,,,,,,,,,,,,,,,,99640,2022-11-10_14h07.36.122,vts_reward_expectancy_bt_OFFLINE,2022.2.4,60.10686973656437,
1,0,0,0,0,0,0,1,triangle,star,0,0,0,0,1,4,16,2,,,,,,,,,,,,,,,,,,,,,,,,,,,,,,,,,,,,,,,,143.7219688850455,143.7219688850455,143.7219688850455,143.7219688850455,143.7219688850455,143.7219688850455,143.7219688850455,143.7219688850455,143.7219688850455,143.7219688850455,a,1.6106298938393593,1,98,0,145.35713770100847,146.8587757050991,,,,,,,,,,,,,,,,,,,,,,,,,,,,,,,,,,,,,,,,,,,,,,,,,,,,,,,,,,,,,,,,,,,,,,,99640,2022-11-10_14h07.36.122,vts_reward_expectancy_bt_OFFLINE,2022.2.4,60.10686973656437,
0,0,1,0,0,1,0,0,hexagon,circle,0,0,0,0,1,5,17,7,,,,,,,,,,,,,,,,,,,,,,,,,,,,,,,,,,,,,,,,147.3591755030211,147.3591755030211,147.3591755030211,147.3591755030211,147.3591755030211,147.3591755030211,147.3591755030211,147.3591755030211,147.3591755030211,147.3591755030211,l,1.460651753935963,10,108,0,148.84420133102685,150.34598128008656,,,,,,,,,,,,,,,,,,,,,,,,,,,,,,,,,,,,,,,,,,,,,,,,,,,,,,,,,,,,,,,,,,,,,,,99640,2022-11-10_14h07.36.122,vts_reward_expectancy_bt_OFFLINE,2022.2.4,60.10686973656437,
0,1,0,0,1,0,0,0,circle,triangle,0,0,0,0,1,6,18,3,,,,,,,,,,,,,,,,,,,,,,,,,,,,,,,,,,,,,,,,150.8464637680445,150.8464637680445,150.8464637680445,150.8464637680445,150.8464637680445,150.8464637680445,150.8464637680445,150.8464637680445,150.8464637680445,150.8464637680445,l,1.0110026590991765,1,109,0,151.88085532700643,153.38275839108974,153.38275839108974,,,,,,,,,,,,,,,,,,,,,,,,,,,,,,,,,,,,,,,,,,,,,,,,,,,,,,,,,,,,,,,,,,,,,,99640,2022-11-10_14h07.36.122,vts_reward_expectancy_bt_OFFLINE,2022.2.4,60.10686973656437,
1,0,0,0,0,1,0,0,triangle,circle,0,0,0,0,1,7,19,0,,,,,,,,,,,,,,,,,,,,,,,,,,,,,,,,,,,,,,,,153.8832320671063,153.8832320671063,153.8832320671063,153.8832320671063,153.8832320671063,153.8832320671063,153.8832320671063,153.8832320671063,153.8832320671063,153.8832320671063,l,0.9444587759207934,10,119,0,154.85089496709406,156.35279827797785,,,,,,,,,,,,,,,,,,,,,,,,,,,,,,,,,,,,,,,,,,,,,,,,,,,,,,,,,,,,,,,,,,,,,,,99640,2022-11-10_14h07.36.122,vts_reward_expectancy_bt_OFFLINE,2022.2.4,60.10686973656437,
0,1,0,0,0,0,1,0,circle,hexagon,0,0,0,0,1,8,20,4,,,,,,,,,,,,,,,,,,,,,,,,,,,,,,,,,,,,,,,,156.8531451600138,156.8531451600138,156.8531451600138,156.8531451600138,156.8531451600138,156.8531451600138,156.8531451600138,156.8531451600138,156.8531451600138,156.8531451600138,l,3.814165700925514,1,120,0,160.6906861010939,162.19237323710695,,,,,,,,,,,,,,,,,,,,,,,,,,,,,,,,,,,,,,,,,,,,,,,,,,,,,,,,,,,,,,,,,,,,,,,99640,2022-11-10_14h07.36.122,vts_reward_expectancy_bt_OFFLINE,2022.2.4,60.10686973656437,
0,0,0,1,0,1,0,0,star ,circle,0,0,0,0,1,9,21,10,,,,,,,,,,,,,,,,,,,,,,,,,,,,,,,,,,,,,,,,162.69304426014423,162.69304426014423,162.69304426014423,162.69304426014423,162.69304426014423,162.69304426014423,162.69304426014423,162.69304426014423,162.69304426014423,162.69304426014423,a,1.4062755941413343,1,121,0,164.12775472505018,165.62947199610062,,,,,,,,,,,,,,,,,,,,,,,,,,,,,,,,,,,,,,,,,,,,,,,,,,,,,,,,,,,,,,,,,,,,,,,99640,2022-11-10_14h07.36.122,vts_reward_expectancy_bt_OFFLINE,2022.2.4,60.10686973656437,
0,0,0,1,0,0,1,0,star,hexagon,0,0,0,0,1,10,22,11,,,,,,,,,,,,,,,,,,,,,,,,,,,,,,,,,,,,,,,,166.1299515760038,166.1299515760038,166.1299515760038,166.1299515760038,166.1299515760038,166.1299515760038,166.1299515760038,166.1299515760038,166.1299515760038,166.1299515760038,l,2.920582754071802,1,122,0,169.08324658707716,170.58480517496355,,,,,,,,,,,,,,,,,,,,,,,,,,,,,,,,,,,,,,,,,,,,,,,,,,,,,,,,,,,,,,,,,,,,,,,99640,2022-11-10_14h07.36.122,vts_reward_expectancy_bt_OFFLINE,2022.2.4,60.10686973656437,
0,0,1,0,1,0,0,0,hexagon,triangle,0,0,0,0,1,11,23,6,,,,,,,,,,,,,,,,,,,,,,,,,,,,,,,,,,,,,,,,171.08542547514662,171.08542547514662,171.08542547514662,171.08542547514662,171.08542547514662,171.08542547514662,171.08542547514662,171.08542547514662,171.08542547514662,171.08542547514662,l,5.073964104056358,10,132,0,176.191058116965,177.6928205450531,,,,,,,,,,,,,,,,,,,,,,,,,,,,,,,,,,,,,,,,,,,,,,,,,,,,,,,,,,,,,,,,,,,,,,,99640,2022-11-10_14h07.36.122,vts_reward_expectancy_bt_OFFLINE,2022.2.4,60.10686973656437,
0,0,0,1,0,1,0,0,star ,circle,0,0,0,0,2,0,24,10,,,,,,,,,,,,,,,,,,,,,,,,,,,,,,,,,,,,,,,,178.19338651211,178.19338651211,178.19338651211,178.19338651211,178.19338651211,178.19338651211,178.19338651211,178.19338651211,178.19338651211,178.19338651211,l,1.2184036909602582,1,133,0,179.44477401999757,180.94620061316527,,,,,,,,,,,,,,,,,,,,,,,,,,,,,,,,,,,,,,,,,,,,,,,,,,,,,,,,,,,,,,,,,,,,,,,99640,2022-11-10_14h07.36.122,vts_reward_expectancy_bt_OFFLINE,2022.2.4,60.10686973656437,
1,0,0,0,0,0,1,0,triangle,hexagon,0,0,0,0,2,1,25,1,,,,,,,,,,,,,,,,,,,,,,,,,,,,,,,,,,,,,,,,181.44674806599505,181.44674806599505,181.44674806599505,181.44674806599505,181.44674806599505,181.44674806599505,181.44674806599505,181.44674806599505,181.44674806599505,181.44674806599505,a,0.9461378189735115,1,134,0,182.41479082615115,183.9161196569912,,,,,,,,,,,,,,,,,,,,,,,,,,,,,,,,,,,,,,,,,,,,,,,,,,,,,,,,,,,,,,,,,,,,,,,99640,2022-11-10_14h07.36.122,vts_reward_expectancy_bt_OFFLINE,2022.2.4,60.10686973656437,
0,0,1,0,0,1,0,0,hexagon,circle,0,0,0,0,2,2,26,7,,,,,,,,,,,,,,,,,,,,,,,,,,,,,,,,,,,,,,,,184.41684023314156,184.41684023314156,184.41684023314156,184.41684023314156,184.41684023314156,184.41684023314156,184.41684023314156,184.41684023314156,184.41684023314156,184.41684023314156,l,2.5553261120803654,1,135,0,187.0029142901767,188.50458701816387,188.50458701816387,,,,,,,,,,,,,,,,,,,,,,,,,,,,,,,,,,,,,,,,,,,,,,,,,,,,,,,,,,,,,,,,,,,,,,99640,2022-11-10_14h07.36.122,vts_reward_expectancy_bt_OFFLINE,2022.2.4,60.10686973656437,
1,0,0,0,0,1,0,0,triangle,circle,0,0,0,0,2,3,27,0,,,,,,,,,,,,,,,,,,,,,,,,,,,,,,,,,,,,,,,,189.00519971107133,189.00519971107133,189.00519971107133,189.00519971107133,189.00519971107133,189.00519971107133,189.00519971107133,189.00519971107133,189.00519971107133,189.00519971107133,l,2.7821868187747896,1,136,0,191.80852768197656,193.31019822112285,,,,,,,,,,,,,,,,,,,,,,,,,,,,,,,,,,,,,,,,,,,,,,,,,,,,,,,,,,,,,,,,,,,,,,,99640,2022-11-10_14h07.36.122,vts_reward_expectancy_bt_OFFLINE,2022.2.4,60.10686973656437,
1,0,0,0,0,0,0,1,triangle,star,0,0,0,0,2,4,28,2,,,,,,,,,,,,,,,,,,,,,,,,,,,,,,,,,,,,,,,,193.8107601860538,193.8107601860538,193.8107601860538,193.8107601860538,193.8107601860538,193.8107601860538,193.8107601860538,193.8107601860538,193.8107601860538,193.8107601860538,a,0.8576744650490582,10,146,0,194.6948700870853,196.19652838702314,,,,,,,,,,,,,,,,,,,,,,,,,,,,,,,,,,,,,,,,,,,,,,,,,,,,,,,,,,,,,,,,,,,,,,,99640,2022-11-10_14h07.36.122,vts_reward_expectancy_bt_OFFLINE,2022.2.4,60.10686973656437,
0,1,0,0,0,0,1,0,circle,hexagon,0,0,0,0,2,5,29,4,,,,,,,,,,,,,,,,,,,,,,,,,,,,,,,,,,,,,,,,196.69703788706101,196.69703788706101,196.69703788706101,196.69703788706101,196.69703788706101,196.69703788706101,196.69703788706101,196.69703788706101,196.69703788706101,196.69703788706101,a,0.7037030968349427,1,147,0,197.431187907001,198.93297952017747,198.93297952017747,,,,,,,,,,,,,,,,,,,,,,,,,,,,,,,,,,,,,,,,,,,,,,,,,,,,,,,,,,,,,,,,,,,,,,99640,2022-11-10_14h07.36.122,vts_reward_expectancy_bt_OFFLINE,2022.2.4,60.10686973656437,
0,1,0,0,1,0,0,0,circle,triangle,0,0,0,0,2,6,30,3,,,,,,,,,,,,,,,,,,,,,,,,,,,,,,,,,,,,,,,,199.43336178711616,199.43336178711616,199.43336178711616,199.43336178711616,199.43336178711616,199.43336178711616,199.43336178711616,199.43336178711616,199.43336178711616,199.43336178711616,l,0.9941653087735176,1,148,0,200.45120114600286,201.95263473014347,,,,,,,,,,,,,,,,,,,,,,,,,,,,,,,,,,,,,,,,,,,,,,,,,,,,,,,,,,,,,,,,,,,,,,,99640,2022-11-10_14h07.36.122,vts_reward_expectancy_bt_OFFLINE,2022.2.4,60.10686973656437,
0,0,1,0,0,0,0,1,hexagon,star,0,0,0,0,2,7,31,8,,,,,,,,,,,,,,,,,,,,,,,,,,,,,,,,,,,,,,,,202.4533203979954,202.4533203979954,202.4533203979954,202.4533203979954,202.4533203979954,202.4533203979954,202.4533203979954,202.4533203979954,202.4533203979954,202.4533203979954,a,2.5206790978554636,10,158,0,205.0063081199769,206.50785797811113,,,,,,,,,,,,,,,,,,,,,,,,,,,,,,,,,,,,,,,,,,,,,,,,,,,,,,,,,,,,,,,,,,,,,,,99640,2022-11-10_14h07.36.122,vts_reward_expectancy_bt_OFFLINE,2022.2.4,60.10686973656437,
0,0,0,1,0,0,1,0,star,hexagon,0,0,0,0,2,8,32,11,,,,,,,,,,,,,,,,,,,,,,,,,,,,,,,,,,,,,,,,207.00839086715132,207.00839086715132,207.00839086715132,207.00839086715132,207.00839086715132,207.00839086715132,207.00839086715132,207.00839086715132,207.00839086715132,207.00839086715132,l,1.002219090005383,10,168,0,208.04294543596916,209.54455702006817,,,,,,,,,,,,,,,,,,,,,,,,,,,,,,,,,,,,,,,,,,,,,,,,,,,,,,,,,,,,,,,,,,,,,,,99640,2022-11-10_14h07.36.122,vts_reward_expectancy_bt_OFFLINE,2022.2.4,60.10686973656437,
0,0,0,1,1,0,0,0,star,triangle,0,0,0,0,2,9,33,9,,,,,,,,,,,,,,,,,,,,,,,,,,,,,,,,,,,,,,,,210.04525612201542,210.04525612201542,210.04525612201542,210.04525612201542,210.04525612201542,210.04525612201542,210.04525612201542,210.04525612201542,210.04525612201542,210.04525612201542,l,0.8581411698833108,10,178,0,210.92933099996299,212.43099050712772,,,,,,,,,,,,,,,,,,,,,,,,,,,,,,,,,,,,,,,,,,,,,,,,,,,,,,,,,,,,,,,,,,,,,,,99640,2022-11-10_14h07.36.122,vts_reward_expectancy_bt_OFFLINE,2022.2.4,60.10686973656437,
0,1,0,0,0,0,0,1,circle,star,0,0,0,0,2,10,34,5,,,,,,,,,,,,,,,,,,,,,,,,,,,,,,,,,,,,,,,,212.93151761498302,212.93151761498302,212.93151761498302,212.93151761498302,212.93151761498302,212.93151761498302,212.93151761498302,212.93151761498302,212.93151761498302,212.93151761498302,a,0.6929236059077084,10,188,0,213.64900497114286,215.15081111108884,,,,,,,,,,,,,,,,,,,,,,,,,,,,,,,,,,,,,,,,,,,,,,,,,,,,,,,,,,,,,,,,,,,,,,,99640,2022-11-10_14h07.36.122,vts_reward_expectancy_bt_OFFLINE,2022.2.4,60.10686973656437,
0,0,1,0,1,0,0,0,hexagon,triangle,0,0,0,0,2,11,35,6,,,,,,,,,,,,,,,,,,,,,,,,,,,,,,,,,,,,,,,,215.65116627095267,215.65116627095267,215.65116627095267,215.65116627095267,215.65116627095267,215.65116627095267,215.65116627095267,215.65116627095267,215.65116627095267,215.65116627095267,l,0.7753587630577385,10,198,0,216.45220233197324,217.95387697103433,,,,,,,,,,,,,,,,,,,,,,,,,,,,,,,,,,,,,,,,,,,,,,,,,,,,,,,,,,,,,,,,,,,,,,,99640,2022-11-10_14h07.36.122,vts_reward_expectancy_bt_OFFLINE,2022.2.4,60.10686973656437,
0,0,0,1,1,0,0,0,star,triangle,0,0,0,0,3,0,36,9,,,,,,,,,,,,,,,,,,,,,,,,,,,,,,,,,,,,,,,,218.4544299361296,218.4544299361296,218.4544299361296,218.4544299361296,218.4544299361296,218.4544299361296,218.4544299361296,218.4544299361296,218.4544299361296,218.4544299361296,l,0.4694377579726279,1,199,0,218.95487109804526,220.4566517630592,,,,,,,,,,,,,,,,,,,,,,,,,,,,,,,,,,,,,,,,,,,,,,,,,,,,,,,,,,,,,,,,,,,,,,,99640,2022-11-10_14h07.36.122,vts_reward_expectancy_bt_OFFLINE,2022.2.4,60.10686973656437,
0,0,1,0,0,0,0,1,hexagon,star,0,0,0,0,3,1,37,8,,,,,,,,,,,,,,,,,,,,,,,,,,,,,,,,,,,,,,,,220.95727424300276,220.95727424300276,220.95727424300276,220.95727424300276,220.95727424300276,220.95727424300276,220.95727424300276,220.95727424300276,220.95727424300276,220.95727424300276,a,0.6220974358730018,1,200,0,221.60817672708072,223.10949178109877,,,,,,,,,,,,,,,,,,,,,,,,,,,,,,,,,,,,,,,,,,,,,,,,,,,,,,,,,,,,,,,,,,,,,,,99640,2022-11-10_14h07.36.122,vts_reward_expectancy_bt_OFFLINE,2022.2.4,60.10686973656437,
0,1,0,0,0,0,1,0,circle,hexagon,0,0,0,0,3,2,38,4,,,,,,,,,,,,,,,,,,,,,,,,,,,,,,,,,,,,,,,,223.61004777112976,223.61004777112976,223.61004777112976,223.61004777112976,223.61004777112976,223.61004777112976,223.61004777112976,223.61004777112976,223.61004777112976,223.61004777112976,a,1.5694320451002568,10,210,0,225.21208991110325,226.71349619003013,,,,,,,,,,,,,,,,,,,,,,,,,,,,,,,,,,,,,,,,,,,,,,,,,,,,,,,,,,,,,,,,,,,,,,,99640,2022-11-10_14h07.36.122,vts_reward_expectancy_bt_OFFLINE,2022.2.4,60.10686973656437,
0,0,1,0,1,0,0,0,hexagon,triangle,0,0,0,0,3,3,39,6,,,,,,,,,,,,,,,,,,,,,,,,,,,,,,,,,,,,,,,,227.21410967805423,227.21410967805423,227.21410967805423,227.21410967805423,227.21410967805423,227.21410967805423,227.21410967805423,227.21410967805423,227.21410967805423,227.21410967805423,l,0.6206230758689344,10,220,0,227.86492464807816,229.36644232203253,,,,,,,,,,,,,,,,,,,,,,,,,,,,,,,,,,,,,,,,,,,,,,,,,,,,,,,,,,,,,,,,,,,,,,,99640,2022-11-10_14h07.36.122,vts_reward_expectancy_bt_OFFLINE,2022.2.4,60.10686973656437,
0,0,0,1,0,1,0,0,star ,circle,0,0,0,0,3,4,40,10,,,,,,,,,,,,,,,,,,,,,,,,,,,,,,,,,,,,,,,,229.86694978014566,229.86694978014566,229.86694978014566,229.86694978014566,229.86694978014566,229.86694978014566,229.86694978014566,229.86694978014566,229.86694978014566,229.86694978014566,l,0.7806681401561946,10,230,0,230.6680662680883,232.16956644016318,,,,,,,,,,,,,,,,,,,,,,,,,,,,,,,,,,,,,,,,,,,,,,,,,,,,,,,,,,,,,,,,,,,,,,,99640,2022-11-10_14h07.36.122,vts_reward_expectancy_bt_OFFLINE,2022.2.4,60.10686973656437,
0,0,0,1,0,0,1,0,star,hexagon,0,0,0,0,3,5,41,11,,,,,,,,,,,,,,,,,,,,,,,,,,,,,,,,,,,,,,,,232.67005583294667,232.67005583294667,232.67005583294667,232.67005583294667,232.67005583294667,232.67005583294667,232.67005583294667,232.67005583294667,232.67005583294667,232.67005583294667,a,0.9700503870844841,10,240,0,233.67132731713355,235.17295355116948,,,,,,,,,,,,,,,,,,,,,,,,,,,,,,,,,,,,,,,,,,,,,,,,,,,,,,,,,,,,,,,,,,,,,,,99640,2022-11-10_14h07.36.122,vts_reward_expectancy_bt_OFFLINE,2022.2.4,60.10686973656437,
0,1,0,0,1,0,0,0,circle,triangle,0,0,0,0,3,6,42,3,,,,,,,,,,,,,,,,,,,,,,,,,,,,,,,,,,,,,,,,235.67335568601266,235.67335568601266,235.67335568601266,235.67335568601266,235.67335568601266,235.67335568601266,235.67335568601266,235.67335568601266,235.67335568601266,235.67335568601266,l,1.6120304900687188,1,241,0,237.30848960997537,238.8103211831767,,,,,,,,,,,,,,,,,,,,,,,,,,,,,,,,,,,,,,,,,,,,,,,,,,,,,,,,,,,,,,,,,,,,,,,99640,2022-11-10_14h07.36.122,vts_reward_expectancy_bt_OFFLINE,2022.2.4,60.10686973656437,
1,0,0,0,0,1,0,0,triangle,circle,0,0,0,0,3,7,43,0,,,,,,,,,,,,,,,,,,,,,,,,,,,,,,,,,,,,,,,,239.31067086709663,239.31067086709663,239.31067086709663,239.31067086709663,239.31067086709663,239.31067086709663,239.31067086709663,239.31067086709663,239.31067086709663,239.31067086709663,a,0.8544434260111302,10,251,0,240.1952107900288,241.69663756201044,,,,,,,,,,,,,,,,,,,,,,,,,,,,,,,,,,,,,,,,,,,,,,,,,,,,,,,,,,,,,,,,,,,,,,,99640,2022-11-10_14h07.36.122,vts_reward_expectancy_bt_OFFLINE,2022.2.4,60.10686973656437,
0,0,1,0,0,1,0,0,hexagon,circle,0,0,0,0,3,8,44,7,,,,,,,,,,,,,,,,,,,,,,,,,,,,,,,,,,,,,,,,242.19720275816508,242.19720275816508,242.19720275816508,242.19720275816508,242.19720275816508,242.19720275816508,242.19720275816508,242.19720275816508,242.19720275816508,242.19720275816508,l,1.3206280109006912,10,261,0,243.5488586409483,245.05042841704562,,,,,,,,,,,,,,,,,,,,,,,,,,,,,,,,,,,,,,,,,,,,,,,,,,,,,,,,,,,,,,,,,,,,,,,99640,2022-11-10_14h07.36.122,vts_reward_expectancy_bt_OFFLINE,2022.2.4,60.10686973656437,
0,1,0,0,0,0,0,1,circle,star,0,0,0,0,3,9,45,5,,,,,,,,,,,,,,,,,,,,,,,,,,,,,,,,,,,,,,,,245.55097181000747,245.55097181000747,245.55097181000747,245.55097181000747,245.55097181000747,245.55097181000747,245.55097181000747,245.55097181000747,245.55097181000747,245.55097181000747,a,1.0179564009886235,10,271,0,246.58544554305263,248.08730065496638,248.08730065496638,,,,,,,,,,,,,,,,,,,,,,,,,,,,,,,,,,,,,,,,,,,,,,,,,,,,,,,,,,,,,,,,,,,,,,99640,2022-11-10_14h07.36.122,vts_reward_expectancy_bt_OFFLINE,2022.2.4,60.10686973656437,
1,0,0,0,0,0,1,0,triangle,hexagon,0,0,0,0,3,10,46,1,,,,,,,,,,,,,,,,,,,,,,,,,,,,,,,,,,,,,,,,248.58767165313475,248.58767165313475,248.58767165313475,248.58767165313475,248.58767165313475,248.58767165313475,248.58767165313475,248.58767165313475,248.58767165313475,248.58767165313475,l,0.9388377559371293,1,272,0,249.55543998302892,251.05726489517838,,,,,,,,,,,,,,,,,,,,,,,,,,,,,,,,,,,,,,,,,,,,,,,,,,,,,,,,,,,,,,,,,,,,,,,99640,2022-11-10_14h07.36.122,vts_reward_expectancy_bt_OFFLINE,2022.2.4,60.10686973656437,
1,0,0,0,0,0,0,1,triangle,star,0,0,0,0,3,11,47,2,,,,,,,,,,,,,,,,,,,,,,,,,,,,,,,,,,,,,,,,251.55763949500397,251.55763949500397,251.55763949500397,251.55763949500397,251.55763949500397,251.55763949500397,251.55763949500397,251.55763949500397,251.55763949500397,251.55763949500397,a,1.4019793281331658,10,282,0,252.99254396208562,254.49433695711195,,,,,,,,,,,,,,,,,,,,,,,,,,,,,,,,,,,,,,,,,,,,,,,,,,,,,,,,,,,,,,,,,,,,,,,99640,2022-11-10_14h07.36.122,vts_reward_expectancy_bt_OFFLINE,2022.2.4,60.10686973656437,
0,1,0,0,1,0,0,0,circle,triangle,1,0,1,0,0,0,0,3,,,,,,,,,,,,,,,,,,,,,,,,,,,,,,,,,,,,,,,,259.9503991070669,259.9503991070669,259.9503991070669,259.9503991070669,259.9503991070669,259.9503991070669,259.9503991070669,259.9503991070669,259.9503991070669,259.9503991070669,l,1.0628970200195909,10,292,1,261.0346980181057,262.5363663751632,,,,,,,,,,,,,,,,,,,,,,,,,,,,,,,,,,,,,,,,,,,,,,,,,,,,,,,,,,,,,,,,,,,,,,,99640,2022-11-10_14h07.36.122,vts_reward_expectancy_bt_OFFLINE,2022.2.4,60.10686973656437,
0,0,1,0,0,1,0,0,hexagon,circle,1,0,1,0,0,1,1,7,,,,,,,,,,,,,,,,,,,,,,,,,,,,,,,,,,,,,,,,263.03706472809426,263.03706472809426,263.03706472809426,263.03706472809426,263.03706472809426,263.03706472809426,263.03706472809426,263.03706472809426,263.03706472809426,263.03706472809426,l,0.8010223798919469,1,293,1,263.85454363701865,265.35605170507915,265.35605170507915,,,,,,,,,,,,,,,,,,,,,,,,,,,,,,,,,,,,,,,,,,,,,,,,,,,,,,,,,,,,,,,,,,,,,,99640,2022-11-10_14h07.36.122,vts_reward_expectancy_bt_OFFLINE,2022.2.4,60.10686973656437,
0,0,0,1,0,1,0,0,star ,circle,1,0,1,0,0,2,2,10,,,,,,,,,,,,,,,,,,,,,,,,,,,,,,,,,,,,,,,,265.85668431804515,265.85668431804515,265.85668431804515,265.85668431804515,265.85668431804515,265.85668431804515,265.85668431804515,265.85668431804515,265.85668431804515,265.85668431804515,l,0.7159065748564899,10,303,1,266.5909160899464,268.0924884160049,,,,,,,,,,,,,,,,,,,,,,,,,,,,,,,,,,,,,,,,,,,,,,,,,,,,,,,,,,,,,,,,,,,,,,,99640,2022-11-10_14h07.36.122,vts_reward_expectancy_bt_OFFLINE,2022.2.4,60.10686973656437,
1,0,0,0,0,0,0,1,triangle,star,1,0,1,0,0,3,3,2,,,,,,,,,,,,,,,,,,,,,,,,,,,,,,,,,,,,,,,,268.59316267003305,268.59316267003305,268.59316267003305,268.59316267003305,268.59316267003305,268.59316267003305,268.59316267003305,268.59316267003305,268.59316267003305,268.59316267003305,a,0.6348860990256071,10,313,1,269.2605357761495,270.7623144760728,,,,,,,,,,,,,,,,,,,,,,,,,,,,,,,,,,,,,,,,,,,,,,,,,,,,,,,,,,,,,,,,,,,,,,,99640,2022-11-10_14h07.36.122,vts_reward_expectancy_bt_OFFLINE,2022.2.4,60.10686973656437,
0,0,0,1,0,0,1,0,star,hexagon,1,0,1,0,0,4,4,11,,,,,,,,,,,,,,,,,,,,,,,,,,,,,,,,,,,,,,,,271.2626942100469,271.2626942100469,271.2626942100469,271.2626942100469,271.2626942100469,271.2626942100469,271.2626942100469,271.2626942100469,271.2626942100469,271.2626942100469,a,0.9111282711382955,1,314,1,272.19706095708534,273.6985686151311,,,,,,,,,,,,,,,,,,,,,,,,,,,,,,,,,,,,,,,,,,,,,,,,,,,,,,,,,,,,,,,,,,,,,,,99640,2022-11-10_14h07.36.122,vts_reward_expectancy_bt_OFFLINE,2022.2.4,60.10686973656437,
0,0,0,1,1,0,0,0,star,triangle,1,0,1,0,0,5,5,9,,,,,,,,,,,,,,,,,,,,,,,,,,,,,,,,,,,,,,,,274.19913768814877,274.19913768814877,274.19913768814877,274.19913768814877,274.19913768814877,274.19913768814877,274.19913768814877,274.19913768814877,274.19913768814877,274.19913768814877,l,0.7871552130673081,1,315,1,275.01708645303734,276.5184295871295,276.5184295871295,,,,,,,,,,,,,,,,,,,,,,,,,,,,,,,,,,,,,,,,,,,,,,,,,,,,,,,,,,,,,,,,,,,,,,99640,2022-11-10_14h07.36.122,vts_reward_expectancy_bt_OFFLINE,2022.2.4,60.10686973656437,
0,1,0,0,0,0,0,1,circle,star,1,0,1,0,0,6,6,5,,,,,,,,,,,,,,,,,,,,,,,,,,,,,,,,,,,,,,,,277.0192527801264,277.0192527801264,277.0192527801264,277.0192527801264,277.0192527801264,277.0192527801264,277.0192527801264,277.0192527801264,277.0192527801264,277.0192527801264,a,0.8584606279619038,10,325,1,277.9033149750903,279.40509596304037,,,,,,,,,,,,,,,,,,,,,,,,,,,,,,,,,,,,,,,,,,,,,,,,,,,,,,,,,,,,,,,,,,,,,,,99640,2022-11-10_14h07.36.122,vts_reward_expectancy_bt_OFFLINE,2022.2.4,60.10686973656437,
1,0,0,0,0,0,1,0,triangle,hexagon,1,0,1,0,0,7,7,1,,,,,,,,,,,,,,,,,,,,,,,,,,,,,,,,,,,,,,,,279.9055499699898,279.9055499699898,279.9055499699898,279.9055499699898,279.9055499699898,279.9055499699898,279.9055499699898,279.9055499699898,279.9055499699898,279.9055499699898,a,2.1700308460276574,10,335,1,282.10796331614256,283.60968187707476,,,,,,,,,,,,,,,,,,,,,,,,,,,,,,,,,,,,,,,,,,,,,,,,,,,,,,,,,,,,,,,,,,,,,,,99640,2022-11-10_14h07.36.122,vts_reward_expectancy_bt_OFFLINE,2022.2.4,60.10686973656437,
0,0,1,0,0,0,0,1,hexagon,star,1,0,1,0,0,8,8,8,,,,,,,,,,,,,,,,,,,,,,,,,,,,,,,,,,,,,,,,284.1100520770997,284.1100520770997,284.1100520770997,284.1100520770997,284.1100520770997,284.1100520770997,284.1100520770997,284.1100520770997,284.1100520770997,284.1100520770997,a,0.9351897009182721,10,345,1,285.0781370231416,286.5795230071526,,,,,,,,,,,,,,,,,,,,,,,,,,,,,,,,,,,,,,,,,,,,,,,,,,,,,,,,,,,,,,,,,,,,,,,99640,2022-11-10_14h07.36.122,vts_reward_expectancy_bt_OFFLINE,2022.2.4,60.10686973656437,
1,0,0,0,0,1,0,0,triangle,circle,1,0,1,0,0,9,9,0,,,,,,,,,,,,,,,,,,,,,,,,,,,,,,,,,,,,,,,,287.0802125071641,287.0802125071641,287.0802125071641,287.0802125071641,287.0802125071641,287.0802125071641,287.0802125071641,287.0802125071641,287.0802125071641,287.0802125071641,a,0.7209116159938276,10,355,1,287.83091151108965,289.3328206760343,,,,,,,,,,,,,,,,,,,,,,,,,,,,,,,,,,,,,,,,,,,,,,,,,,,,,,,,,,,,,,,,,,,,,,,99640,2022-11-10_14h07.36.122,vts_reward_expectancy_bt_OFFLINE,2022.2.4,60.10686973656437,
0,0,1,0,1,0,0,0,hexagon,triangle,1,0,1,0,0,10,10,6,,,,,,,,,,,,,,,,,,,,,,,,,,,,,,,,,,,,,,,,289.8330618930049,289.8330618930049,289.8330618930049,289.8330618930049,289.8330618930049,289.8330618930049,289.8330618930049,289.8330618930049,289.8330618930049,289.8330618930049,l,0.6348500151652843,10,365,1,290.5006914820988,292.00209157308564,,,,,,,,,,,,,,,,,,,,,,,,,,,,,,,,,,,,,,,,,,,,,,,,,,,,,,,,,,,,,,,,,,,,,,,99640,2022-11-10_14h07.36.122,vts_reward_expectancy_bt_OFFLINE,2022.2.4,60.10686973656437,
0,1,0,0,0,0,1,0,circle,hexagon,1,0,1,0,0,11,11,4,,,,,,,,,,,,,,,,,,,,,,,,,,,,,,,,,,,,,,,,292.50270273699425,292.50270273699425,292.50270273699425,292.50270273699425,292.50270273699425,292.50270273699425,292.50270273699425,292.50270273699425,292.50270273699425,292.50270273699425,a,0.7894309870898724,1,366,1,293.3203224099707,294.8221355569549,,,,,,,,,,,,,,,,,,,,,,,,,,,,,,,,,,,,,,,,,,,,,,,,,,,,,,,,,,,,,,,,,,,,,,,99640,2022-11-10_14h07.36.122,vts_reward_expectancy_bt_OFFLINE,2022.2.4,60.10686973656437,
1,0,0,0,0,0,0,1,triangle,star,1,0,1,0,1,0,12,2,,,,,,,,,,,,,,,,,,,,,,,,,,,,,,,,,,,,,,,,295.3225991670042,295.3225991670042,295.3225991670042,295.3225991670042,295.3225991670042,295.3225991670042,295.3225991670042,295.3225991670042,295.3225991670042,295.3225991670042,a,1.3014255159068853,10,376,1,296.64072612999007,298.14232883998193,298.14232883998193,,,,,,,,,,,,,,,,,,,,,,,,,,,,,,,,,,,,,,,,,,,,,,,,,,,,,,,,,,,,,,,,,,,,,,99640,2022-11-10_14h07.36.122,vts_reward_expectancy_bt_OFFLINE,2022.2.4,60.10686973656437,
0,1,0,0,0,0,0,1,circle,star,1,0,1,0,1,1,13,5,,,,,,,,,,,,,,,,,,,,,,,,,,,,,,,,,,,,,,,,298.643069608137,298.643069608137,298.643069608137,298.643069608137,298.643069608137,298.643069608137,298.643069608137,298.643069608137,298.643069608137,298.643069608137,a,0.7915049041621387,10,386,1,299.4603805730585,300.9621118430514,,,,,,,,,,,,,,,,,,,,,,,,,,,,,,,,,,,,,,,,,,,,,,,,,,,,,,,,,,,,,,,,,,,,,,,99640,2022-11-10_14h07.36.122,vts_reward_expectancy_bt_OFFLINE,2022.2.4,60.10686973656437,
0,1,0,0,0,0,1,0,circle,hexagon,1,0,1,0,1,2,14,4,,,,,,,,,,,,,,,,,,,,,,,,,,,,,,,,,,,,,,,,301.46253415197134,301.46253415197134,301.46253415197134,301.46253415197134,301.46253415197134,301.46253415197134,301.46253415197134,301.46253415197134,301.46253415197134,301.46253415197134,a,0.852178115863353,10,396,1,302.34698111610487,303.84863836108707,,,,,,,,,,,,,,,,,,,,,,,,,,,,,,,,,,,,,,,,,,,,,,,,,,,,,,,,,,,,,,,,,,,,,,,99640,2022-11-10_14h07.36.122,vts_reward_expectancy_bt_OFFLINE,2022.2.4,60.10686973656437,
1,0,0,0,0,0,1,0,triangle,hexagon,1,0,1,0,1,3,15,1,,,,,,,,,,,,,,,,,,,,,,,,,,,,,,,,,,,,,,,,304.3492779971566,304.3492779971566,304.3492779971566,304.3492779971566,304.3492779971566,304.3492779971566,304.3492779971566,304.3492779971566,304.3492779971566,304.3492779971566,a,0.7447220000904053,10,406,1,305.1167470230721,306.61823890311643,,,,,,,,,,,,,,,,,,,,,,,,,,,,,,,,,,,,,,,,,,,,,,,,,,,,,,,,,,,,,,,,,,,,,,,99640,2022-11-10_14h07.36.122,vts_reward_expectancy_bt_OFFLINE,2022.2.4,60.10686973656437,
0,0,0,1,1,0,0,0,star,triangle,1,0,1,0,1,4,16,9,,,,,,,,,,,,,,,,,,,,,,,,,,,,,,,,,,,,,,,,307.11902865511365,307.11902865511365,307.11902865511365,307.11902865511365,307.11902865511365,307.11902865511365,307.11902865511365,307.11902865511365,307.11902865511365,307.11902865511365,l,0.6983409989625216,10,416,1,307.83644595812075,309.338189690141,,,,,,,,,,,,,,,,,,,,,,,,,,,,,,,,,,,,,,,,,,,,,,,,,,,,,,,,,,,,,,,,,,,,,,,99640,2022-11-10_14h07.36.122,vts_reward_expectancy_bt_OFFLINE,2022.2.4,60.10686973656437,
0,0,1,0,0,0,0,1,hexagon,star,1,0,1,0,1,5,17,8,,,,,,,,,,,,,,,,,,,,,,,,,,,,,,,,,,,,,,,,309.83857934596017,309.83857934596017,309.83857934596017,309.83857934596017,309.83857934596017,309.83857934596017,309.83857934596017,309.83857934596017,309.83857934596017,309.83857934596017,a,0.7012662191409618,10,426,1,310.57254543714225,312.0743994701188,,,,,,,,,,,,,,,,,,,,,,,,,,,,,,,,,,,,,,,,,,,,,,,,,,,,,,,,,,,,,,,,,,,,,,,99640,2022-11-10_14h07.36.122,vts_reward_expectancy_bt_OFFLINE,2022.2.4,60.10686973656437,
0,0,0,1,0,0,1,0,star,hexagon,1,0,1,0,1,6,18,11,,,,,,,,,,,,,,,,,,,,,,,,,,,,,,,,,,,,,,,,312.5748168779537,312.5748168779537,312.5748168779537,312.5748168779537,312.5748168779537,312.5748168779537,312.5748168779537,312.5748168779537,312.5748168779537,312.5748168779537,l,0.4743149750865996,10,436,1,313.075498605147,314.5769763251301,,,,,,,,,,,,,,,,,,,,,,,,,,,,,,,,,,,,,,,,,,,,,,,,,,,,,,,,,,,,,,,,,,,,,,,99640,2022-11-10_14h07.36.122,vts_reward_expectancy_bt_OFFLINE,2022.2.4,60.10686973656437,
0,0,1,0,1,0,0,0,hexagon,triangle,1,0,1,0,1,7,19,6,,,,,,,,,,,,,,,,,,,,,,,,,,,,,,,,,,,,,,,,315.0774709270336,315.0774709270336,315.0774709270336,315.0774709270336,315.0774709270336,315.0774709270336,315.0774709270336,315.0774709270336,315.0774709270336,315.0774709270336,l,0.7948673497885466,1,437,1,315.89521838817745,317.39708485803567,,,,,,,,,,,,,,,,,,,,,,,,,,,,,,,,,,,,,,,,,,,,,,,,,,,,,,,,,,,,,,,,,,,,,,,99640,2022-11-10_14h07.36.122,vts_reward_expectancy_bt_OFFLINE,2022.2.4,60.10686973656437,
0,0,1,0,0,1,0,0,hexagon,circle,1,0,1,0,1,8,20,7,,,,,,,,,,,,,,,,,,,,,,,,,,,,,,,,,,,,,,,,317.8972455379553,317.8972455379553,317.8972455379553,317.8972455379553,317.8972455379553,317.8972455379553,317.8972455379553,317.8972455379553,317.8972455379553,317.8972455379553,l,0.8209414149168879,1,438,1,318.7483726560604,320.24990546214394,,,,,,,,,,,,,,,,,,,,,,,,,,,,,,,,,,,,,,,,,,,,,,,,,,,,,,,,,,,,,,,,,,,,,,,99640,2022-11-10_14h07.36.122,vts_reward_expectancy_bt_OFFLINE,2022.2.4,60.10686973656437,
1,0,0,0,0,1,0,0,triangle,circle,1,0,1,0,1,9,21,0,,,,,,,,,,,,,,,,,,,,,,,,,,,,,,,,,,,,,,,,320.7506889901124,320.7506889901124,320.7506889901124,320.7506889901124,320.7506889901124,320.7506889901124,320.7506889901124,320.7506889901124,320.7506889901124,320.7506889901124,a,0.7590206428430974,1,439,1,321.53486528713256,323.03640941297635,,,,,,,,,,,,,,,,,,,,,,,,,,,,,,,,,,,,,,,,,,,,,,,,,,,,,,,,,,,,,,,,,,,,,,,99640,2022-11-10_14h07.36.122,vts_reward_expectancy_bt_OFFLINE,2022.2.4,60.10686973656437,
0,1,0,0,1,0,0,0,circle,triangle,1,0,1,0,1,10,22,3,,,,,,,,,,,,,,,,,,,,,,,,,,,,,,,,,,,,,,,,323.53691430203617,323.53691430203617,323.53691430203617,323.53691430203617,323.53691430203617,323.53691430203617,323.53691430203617,323.53691430203617,323.53691430203617,323.53691430203617,a,1.1564608609769493,10,449,1,324.7216595900245,326.2233121909667,,,,,,,,,,,,,,,,,,,,,,,,,,,,,,,,,,,,,,,,,,,,,,,,,,,,,,,,,,,,,,,,,,,,,,,99640,2022-11-10_14h07.36.122,vts_reward_expectancy_bt_OFFLINE,2022.2.4,60.10686973656437,
0,0,0,1,0,1,0,0,star ,circle,1,0,1,0,1,11,23,10,,,,,,,,,,,,,,,,,,,,,,,,,,,,,,,,,,,,,,,,326.7238036810886,326.7238036810886,326.7238036810886,326.7238036810886,326.7238036810886,326.7238036810886,326.7238036810886,326.7238036810886,326.7238036810886,326.7238036810886,l,0.8268432039767504,1,450,1,327.5747264770325,329.0765491849743,,,,,,,,,,,,,,,,,,,,,,,,,,,,,,,,,,,,,,,,,,,,,,,,,,,,,,,,,,,,,,,,,,,,,,,99640,2022-11-10_14h07.36.122,vts_reward_expectancy_bt_OFFLINE,2022.2.4,60.10686973656437,
0,0,0,1,1,0,0,0,star,triangle,1,0,1,0,2,0,24,9,,,,,,,,,,,,,,,,,,,,,,,,,,,,,,,,,,,,,,,,329.57692730613053,329.57692730613053,329.57692730613053,329.57692730613053,329.57692730613053,329.57692730613053,329.57692730613053,329.57692730613053,329.57692730613053,329.57692730613053,l,0.8764646628405899,10,460,1,330.4781517209485,331.979857185157,,,,,,,,,,,,,,,,,,,,,,,,,,,,,,,,,,,,,,,,,,,,,,,,,,,,,,,,,,,,,,,,,,,,,,,99640,2022-11-10_14h07.36.122,vts_reward_expectancy_bt_OFFLINE,2022.2.4,60.10686973656437,
0,0,1,0,0,0,0,1,hexagon,star,1,0,1,0,2,1,25,8,,,,,,,,,,,,,,,,,,,,,,,,,,,,,,,,,,,,,,,,332.4802267381456,332.4802267381456,332.4802267381456,332.4802267381456,332.4802267381456,332.4802267381456,332.4802267381456,332.4802267381456,332.4802267381456,332.4802267381456,a,2.575010493863374,1,461,1,335.0829277471639,336.58476897212677,,,,,,,,,,,,,,,,,,,,,,,,,,,,,,,,,,,,,,,,,,,,,,,,,,,,,,,,,,,,,,,,,,,,,,,99640,2022-11-10_14h07.36.122,vts_reward_expectancy_bt_OFFLINE,2022.2.4,60.10686973656437,
0,1,0,0,1,0,0,0,circle,triangle,1,0,1,0,2,2,26,3,,,,,,,,,,,,,,,,,,,,,,,,,,,,,,,,,,,,,,,,337.08545407513157,337.08545407513157,337.08545407513157,337.08545407513157,337.08545407513157,337.08545407513157,337.08545407513157,337.08545407513157,337.08545407513157,337.08545407513157,l,0.6362670308444649,10,471,1,337.75267817196436,339.25455074803904,,,,,,,,,,,,,,,,,,,,,,,,,,,,,,,,,,,,,,,,,,,,,,,,,,,,,,,,,,,,,,,,,,,,,,,99640,2022-11-10_14h07.36.122,vts_reward_expectancy_bt_OFFLINE,2022.2.4,60.10686973656437,
0,0,1,0,1,0,0,0,hexagon,triangle,1,0,1,0,2,3,27,6,,,,,,,,,,,,,,,,,,,,,,,,,,,,,,,,,,,,,,,,339.75507940212265,339.75507940212265,339.75507940212265,339.75507940212265,339.75507940212265,339.75507940212265,339.75507940212265,339.75507940212265,339.75507940212265,339.75507940212265,l,0.7682705649640411,1,472,1,340.5559218211565,342.0573866830673,,,,,,,,,,,,,,,,,,,,,,,,,,,,,,,,,,,,,,,,,,,,,,,,,,,,,,,,,,,,,,,,,,,,,,,99640,2022-11-10_14h07.36.122,vts_reward_expectancy_bt_OFFLINE,2022.2.4,60.10686973656437,
0,1,0,0,0,0,1,0,circle,hexagon,1,0,1,0,2,4,28,4,,,,,,,,,,,,,,,,,,,,,,,,,,,,,,,,,,,,,,,,342.5579966311343,342.5579966311343,342.5579966311343,342.5579966311343,342.5579966311343,342.5579966311343,342.5579966311343,342.5579966311343,342.5579966311343,342.5579966311343,a,0.8570547187700868,10,482,1,343.4424180269707,344.94384106015787,,,,,,,,,,,,,,,,,,,,,,,,,,,,,,,,,,,,,,,,,,,,,,,,,,,,,,,,,,,,,,,,,,,,,,,99640,2022-11-10_14h07.36.122,vts_reward_expectancy_bt_OFFLINE,2022.2.4,60.10686973656437,
0,0,0,1,0,1,0,0,star ,circle,1,0,1,0,2,5,29,10,,,,,,,,,,,,,,,,,,,,,,,,,,,,,,,,,,,,,,,,345.4445823831484,345.4445823831484,345.4445823831484,345.4445823831484,345.4445823831484,345.4445823831484,345.4445823831484,345.4445823831484,345.4445823831484,345.4445823831484,l,0.5683228969573975,10,492,1,346.0453699771315,347.5467177431565,,,,,,,,,,,,,,,,,,,,,,,,,,,,,,,,,,,,,,,,,,,,,,,,,,,,,,,,,,,,,,,,,,,,,,,99640,2022-11-10_14h07.36.122,vts_reward_expectancy_bt_OFFLINE,2022.2.4,60.10686973656437,
0,0,0,1,0,0,1,0,star,hexagon,1,0,1,0,2,6,30,11,,,,,,,,,,,,,,,,,,,,,,,,,,,,,,,,,,,,,,,,348.0474591399543,348.0474591399543,348.0474591399543,348.0474591399543,348.0474591399543,348.0474591399543,348.0474591399543,348.0474591399543,348.0474591399543,348.0474591399543,a,1.5204712310805917,1,493,1,349.5990220250096,351.10073298495263,,,,,,,,,,,,,,,,,,,,,,,,,,,,,,,,,,,,,,,,,,,,,,,,,,,,,,,,,,,,,,,,,,,,,,,99640,2022-11-10_14h07.36.122,vts_reward_expectancy_bt_OFFLINE,2022.2.4,60.10686973656437,
0,0,1,0,0,1,0,0,hexagon,circle,1,0,1,0,2,7,31,7,,,,,,,,,,,,,,,,,,,,,,,,,,,,,,,,,,,,,,,,351.60129344509915,351.60129344509915,351.60129344509915,351.60129344509915,351.60129344509915,351.60129344509915,351.60129344509915,351.60129344509915,351.60129344509915,351.60129344509915,l,0.6443964799400419,1,494,1,352.26885932195,353.7704133770894,,,,,,,,,,,,,,,,,,,,,,,,,,,,,,,,,,,,,,,,,,,,,,,,,,,,,,,,,,,,,,,,,,,,,,,99640,2022-11-10_14h07.36.122,vts_reward_expectancy_bt_OFFLINE,2022.2.4,60.10686973656437,
1,0,0,0,0,0,0,1,triangle,star,1,0,1,0,2,8,32,2,,,,,,,,,,,,,,,,,,,,,,,,,,,,,,,,,,,,,,,,354.2708961311728,354.2708961311728,354.2708961311728,354.2708961311728,354.2708961311728,354.2708961311728,354.2708961311728,354.2708961311728,354.2708961311728,354.2708961311728,a,0.5624358591157943,1,495,1,354.8549416970927,356.3566092371475,356.3566092371475,,,,,,,,,,,,,,,,,,,,,,,,,,,,,,,,,,,,,,,,,,,,,,,,,,,,,,,,,,,,,,,,,,,,,,99640,2022-11-10_14h07.36.122,vts_reward_expectancy_bt_OFFLINE,2022.2.4,60.10686973656437,
1,0,0,0,0,0,1,0,triangle,hexagon,1,0,1,0,2,9,33,1,,,,,,,,,,,,,,,,,,,,,,,,,,,,,,,,,,,,,,,,356.8569506101776,356.8569506101776,356.8569506101776,356.8569506101776,356.8569506101776,356.8569506101776,356.8569506101776,356.8569506101776,356.8569506101776,356.8569506101776,a,0.8350283878389746,10,505,1,357.7246072720736,359.2263294879813,,,,,,,,,,,,,,,,,,,,,,,,,,,,,,,,,,,,,,,,,,,,,,,,,,,,,,,,,,,,,,,,,,,,,,,99640,2022-11-10_14h07.36.122,vts_reward_expectancy_bt_OFFLINE,2022.2.4,60.10686973656437,
0,1,0,0,0,0,0,1,circle,star,1,0,1,0,2,10,34,5,,,,,,,,,,,,,,,,,,,,,,,,,,,,,,,,,,,,,,,,359.72687377617694,359.72687377617694,359.72687377617694,359.72687377617694,359.72687377617694,359.72687377617694,359.72687377617694,359.72687377617694,359.72687377617694,359.72687377617694,a,0.9021939900703728,1,506,1,360.6612528159749,362.16302090114914,,,,,,,,,,,,,,,,,,,,,,,,,,,,,,,,,,,,,,,,,,,,,,,,,,,,,,,,,,,,,,,,,,,,,,,99640,2022-11-10_14h07.36.122,vts_reward_expectancy_bt_OFFLINE,2022.2.4,60.10686973656437,
1,0,0,0,0,1,0,0,triangle,circle,1,0,1,0,2,11,35,0,,,,,,,,,,,,,,,,,,,,,,,,,,,,,,,,,,,,,,,,362.66374581004493,362.66374581004493,362.66374581004493,362.66374581004493,362.66374581004493,362.66374581004493,362.66374581004493,362.66374581004493,362.66374581004493,362.66374581004493,l,0.7088235218543559,10,516,1,363.397712407168,364.8994708559476,,,,,,,,,,,,,,,,,,,,,,,,,,,,,,,,,,,,,,,,,,,,,,,,,,,,,,,,,,,,,,,,,,,,,,,99640,2022-11-10_14h07.36.122,vts_reward_expectancy_bt_OFFLINE,2022.2.4,60.10686973656437,
0,0,1,0,0,0,0,1,hexagon,star,1,0,1,0,3,0,36,8,,,,,,,,,,,,,,,,,,,,,,,,,,,,,,,,,,,,,,,,365.39976826217026,365.39976826217026,365.39976826217026,365.39976826217026,365.39976826217026,365.39976826217026,365.39976826217026,365.39976826217026,365.39976826217026,365.39976826217026,l,1.0688752448186278,10,526,1,366.5009824761655,368.0025880811736,,,,,,,,,,,,,,,,,,,,,,,,,,,,,,,,,,,,,,,,,,,,,,,,,,,,,,,,,,,,,,,,,,,,,,,99640,2022-11-10_14h07.36.122,vts_reward_expectancy_bt_OFFLINE,2022.2.4,60.10686973656437,
0,0,0,1,1,0,0,0,star,triangle,1,0,1,0,3,1,37,9,,,,,,,,,,,,,,,,,,,,,,,,,,,,,,,,,,,,,,,,368.50324216112494,368.50324216112494,368.50324216112494,368.50324216112494,368.50324216112494,368.50324216112494,368.50324216112494,368.50324216112494,368.50324216112494,368.50324216112494,l,0.6864170730113983,10,536,1,369.2208892060444,370.7223460669629,,,,,,,,,,,,,,,,,,,,,,,,,,,,,,,,,,,,,,,,,,,,,,,,,,,,,,,,,,,,,,,,,,,,,,,99640,2022-11-10_14h07.36.122,vts_reward_expectancy_bt_OFFLINE,2022.2.4,60.10686973656437,
1,0,0,0,0,1,0,0,triangle,circle,1,0,1,0,3,2,38,0,,,,,,,,,,,,,,,,,,,,,,,,,,,,,,,,,,,,,,,,371.22290414595045,371.22290414595045,371.22290414595045,371.22290414595045,371.22290414595045,371.22290414595045,371.22290414595045,371.22290414595045,371.22290414595045,371.22290414595045,l,1.3430471217725426,10,546,1,372.59114804607816,374.0928046130575,,,,,,,,,,,,,,,,,,,,,,,,,,,,,,,,,,,,,,,,,,,,,,,,,,,,,,,,,,,,,,,,,,,,,,,99640,2022-11-10_14h07.36.122,vts_reward_expectancy_bt_OFFLINE,2022.2.4,60.10686973656437,
1,0,0,0,0,0,0,1,triangle,star,1,0,1,0,3,3,39,2,,,,,,,,,,,,,,,,,,,,,,,,,,,,,,,,,,,,,,,,374.59343814314343,374.59343814314343,374.59343814314343,374.59343814314343,374.59343814314343,374.59343814314343,374.59343814314343,374.59343814314343,374.59343814314343,374.59343814314343,a,1.0200865080114454,10,556,1,375.64430772606283,377.1459467050154,,,,,,,,,,,,,,,,,,,,,,,,,,,,,,,,,,,,,,,,,,,,,,,,,,,,,,,,,,,,,,,,,,,,,,,99640,2022-11-10_14h07.36.122,vts_reward_expectancy_bt_OFFLINE,2022.2.4,60.10686973656437,
0,0,1,0,0,1,0,0,hexagon,circle,1,0,1,0,3,4,40,7,,,,,,,,,,,,,,,,,,,,,,,,,,,,,,,,,,,,,,,,377.6466631030198,377.6466631030198,377.6466631030198,377.6466631030198,377.6466631030198,377.6466631030198,377.6466631030198,377.6466631030198,377.6466631030198,377.6466631030198,a,1.3421818760689348,10,566,1,379.01481065806,380.5165902110748,,,,,,,,,,,,,,,,,,,,,,,,,,,,,,,,,,,,,,,,,,,,,,,,,,,,,,,,,,,,,,,,,,,,,,,99640,2022-11-10_14h07.36.122,vts_reward_expectancy_bt_OFFLINE,2022.2.4,60.10686973656437,
0,0,1,0,1,0,0,0,hexagon,triangle,1,0,1,0,3,5,41,6,,,,,,,,,,,,,,,,,,,,,,,,,,,,,,,,,,,,,,,,381.01704785600305,381.01704785600305,381.01704785600305,381.01704785600305,381.01704785600305,381.01704785600305,381.01704785600305,381.01704785600305,381.01704785600305,381.01704785600305,l,0.7850961599033326,10,576,1,381.8345481969882,383.33630867814645,,,,,,,,,,,,,,,,,,,,,,,,,,,,,,,,,,,,,,,,,,,,,,,,,,,,,,,,,,,,,,,,,,,,,,,99640,2022-11-10_14h07.36.122,vts_reward_expectancy_bt_OFFLINE,2022.2.4,60.10686973656437,
0,1,0,0,0,0,1,0,circle,hexagon,1,0,1,0,3,6,42,4,,,,,,,,,,,,,,,,,,,,,,,,,,,,,,,,,,,,,,,,383.83706945716403,383.83706945716403,383.83706945716403,383.83706945716403,383.83706945716403,383.83706945716403,383.83706945716403,383.83706945716403,383.83706945716403,383.83706945716403,a,1.4525413031224161,1,577,1,385.3218581599649,386.8235041310545,,,,,,,,,,,,,,,,,,,,,,,,,,,,,,,,,,,,,,,,,,,,,,,,,,,,,,,,,,,,,,,,,,,,,,,99640,2022-11-10_14h07.36.122,vts_reward_expectancy_bt_OFFLINE,2022.2.4,60.10686973656437,
0,1,0,0,1,0,0,0,circle,triangle,1,0,1,0,3,7,43,3,,,,,,,,,,,,,,,,,,,,,,,,,,,,,,,,,,,,,,,,387.3239703751169,387.3239703751169,387.3239703751169,387.3239703751169,387.3239703751169,387.3239703751169,387.3239703751169,387.3239703751169,387.3239703751169,387.3239703751169,l,0.7449591038748622,1,578,1,388.09150693006814,389.59333890513517,,,,,,,,,,,,,,,,,,,,,,,,,,,,,,,,,,,,,,,,,,,,,,,,,,,,,,,,,,,,,,,,,,,,,,,99640,2022-11-10_14h07.36.122,vts_reward_expectancy_bt_OFFLINE,2022.2.4,60.10686973656437,
0,0,0,1,0,1,0,0,star ,circle,1,0,1,0,3,8,44,10,,,,,,,,,,,,,,,,,,,,,,,,,,,,,,,,,,,,,,,,390.09382823016495,390.09382823016495,390.09382823016495,390.09382823016495,390.09382823016495,390.09382823016495,390.09382823016495,390.09382823016495,390.09382823016495,390.09382823016495,l,0.9351630150340497,10,588,1,391.06156342616305,392.5632578909863,,,,,,,,,,,,,,,,,,,,,,,,,,,,,,,,,,,,,,,,,,,,,,,,,,,,,,,,,,,,,,,,,,,,,,,99640,2022-11-10_14h07.36.122,vts_reward_expectancy_bt_OFFLINE,2022.2.4,60.10686973656437,
0,1,0,0,0,0,0,1,circle,star,1,0,1,0,3,9,45,5,,,,,,,,,,,,,,,,,,,,,,,,,,,,,,,,,,,,,,,,393.06348251295276,393.06348251295276,393.06348251295276,393.06348251295276,393.06348251295276,393.06348251295276,393.06348251295276,393.06348251295276,393.06348251295276,393.06348251295276,a,0.686613691970706,1,589,1,393.7811386671383,395.2827694430016,,,,,,,,,,,,,,,,,,,,,,,,,,,,,,,,,,,,,,,,,,,,,,,,,,,,,,,,,,,,,,,,,,,,,,,99640,2022-11-10_14h07.36.122,vts_reward_expectancy_bt_OFFLINE,2022.2.4,60.10686973656437,
0,0,0,1,0,0,1,0,star,hexagon,1,0,1,0,3,10,46,11,,,,,,,,,,,,,,,,,,,,,,,,,,,,,,,,,,,,,,,,395.78326896298677,395.78326896298677,395.78326896298677,395.78326896298677,395.78326896298677,395.78326896298677,395.78326896298677,395.78326896298677,395.78326896298677,395.78326896298677,l,1.051715997979045,10,599,1,396.8677444830537,398.3695025430061,,,,,,,,,,,,,,,,,,,,,,,,,,,,,,,,,,,,,,,,,,,,,,,,,,,,,,,,,,,,,,,,,,,,,,,99640,2022-11-10_14h07.36.122,vts_reward_expectancy_bt_OFFLINE,2022.2.4,60.10686973656437,
1,0,0,0,0,0,1,0,triangle,hexagon,1,0,1,0,3,11,47,1,,,,,,,,,,,,,,,,,,,,,,,,,,,,,,,,,,,,,,,,398.87013947498053,398.87013947498053,398.87013947498053,398.87013947498053,398.87013947498053,398.87013947498053,398.87013947498053,398.87013947498053,398.87013947498053,398.87013947498053,a,0.7650700248777866,10,609,1,399.6543196970597,401.15592596307397,,,,,,,,,,,,,,,,,,,,,,,,,,,,,,,,,,,,,,,,,,,,,,,,,,,,,,,,,,,,,,,,,,,,,,,99640,2022-11-10_14h07.36.122,vts_reward_expectancy_bt_OFFLINE,2022.2.4,60.10686973656437,
0,0,1,0,0,0,0,1,hexagon,star,2,0,2,0,0,0,0,8,,,,,,,,,,,,,,,,,,,,,,,,,,,,,,,,,,,,,,,,413.0524461751338,413.0524461751338,413.0524461751338,413.0524461751338,413.0524461751338,413.0524461751338,413.0524461751338,413.0524461751338,413.0524461751338,413.0524461751338,a,1.0960191111080348,1,610,2,414.1703664229717,415.67212781799026,415.67212781799026,,,,,,,,,,,,,,,,,,,,,,,,,,,,,,,,,,,,,,,,,,,,,,,,,,,,,,,,,,,,,,,,,,,,,,99640,2022-11-10_14h07.36.122,vts_reward_expectancy_bt_OFFLINE,2022.2.4,60.10686973656437,
0,0,1,0,1,0,0,0,hexagon,triangle,2,0,2,0,0,1,1,6,,,,,,,,,,,,,,,,,,,,,,,,,,,,,,,,,,,,,,,,416.17243472114205,416.17243472114205,416.17243472114205,416.17243472114205,416.17243472114205,416.17243472114205,416.17243472114205,416.17243472114205,416.17243472114205,416.17243472114205,l,0.9799136589281261,1,611,2,417.1737053520046,418.6752877251711,,,,,,,,,,,,,,,,,,,,,,,,,,,,,,,,,,,,,,,,,,,,,,,,,,,,,,,,,,,,,,,,,,,,,,,99640,2022-11-10_14h07.36.122,vts_reward_expectancy_bt_OFFLINE,2022.2.4,60.10686973656437,
0,1,0,0,1,0,0,0,circle,triangle,2,0,2,0,0,2,2,3,,,,,,,,,,,,,,,,,,,,,,,,,,,,,,,,,,,,,,,,419.17556185508147,419.17556185508147,419.17556185508147,419.17556185508147,419.17556185508147,419.17556185508147,419.17556185508147,419.17556185508147,419.17556185508147,419.17556185508147,a,0.5189944049343467,10,621,2,419.72642321814783,421.22806049813516,421.22806049813516,,,,,,,,,,,,,,,,,,,,,,,,,,,,,,,,,,,,,,,,,,,,,,,,,,,,,,,,,,,,,,,,,,,,,,99640,2022-11-10_14h07.36.122,vts_reward_expectancy_bt_OFFLINE,2022.2.4,60.10686973656437,
0,0,1,0,0,1,0,0,hexagon,circle,2,0,2,0,0,3,3,7,,,,,,,,,,,,,,,,,,,,,,,,,,,,,,,,,,,,,,,,421.72828856203705,421.72828856203705,421.72828856203705,421.72828856203705,421.72828856203705,421.72828856203705,421.72828856203705,421.72828856203705,421.72828856203705,421.72828856203705,l,0.8688493191730231,1,622,2,422.6295818509534,424.13148002303205,,,,,,,,,,,,,,,,,,,,,,,,,,,,,,,,,,,,,,,,,,,,,,,,,,,,,,,,,,,,,,,,,,,,,,,99640,2022-11-10_14h07.36.122,vts_reward_expectancy_bt_OFFLINE,2022.2.4,60.10686973656437,
0,1,0,0,0,0,0,1,circle,star,2,0,2,0,0,4,4,5,,,,,,,,,,,,,,,,,,,,,,,,,,,,,,,,,,,,,,,,424.63169682817534,424.63169682817534,424.63169682817534,424.63169682817534,424.63169682817534,424.63169682817534,424.63169682817534,424.63169682817534,424.63169682817534,424.63169682817534,a,0.8582653049379587,1,623,2,425.51625023200177,427.0177695520688,,,,,,,,,,,,,,,,,,,,,,,,,,,,,,,,,,,,,,,,,,,,,,,,,,,,,,,,,,,,,,,,,,,,,,,99640,2022-11-10_14h07.36.122,vts_reward_expectancy_bt_OFFLINE,2022.2.4,60.10686973656437,
0,0,0,1,0,0,1,0,star,hexagon,2,0,2,0,0,5,5,11,,,,,,,,,,,,,,,,,,,,,,,,,,,,,,,,,,,,,,,,427.51829731301405,427.51829731301405,427.51829731301405,427.51829731301405,427.51829731301405,427.51829731301405,427.51829731301405,427.51829731301405,427.51829731301405,427.51829731301405,l,0.6364758000709116,1,624,2,428.18573753815144,429.68747762194835,,,,,,,,,,,,,,,,,,,,,,,,,,,,,,,,,,,,,,,,,,,,,,,,,,,,,,,,,,,,,,,,,,,,,,,99640,2022-11-10_14h07.36.122,vts_reward_expectancy_bt_OFFLINE,2022.2.4,60.10686973656437,
1,0,0,0,0,0,0,1,triangle,star,2,0,2,0,0,6,6,2,,,,,,,,,,,,,,,,,,,,,,,,,,,,,,,,,,,,,,,,430.18818420008756,430.18818420008756,430.18818420008756,430.18818420008756,430.18818420008756,430.18818420008756,430.18818420008756,430.18818420008756,430.18818420008756,430.18818420008756,a,0.7015053378418088,1,625,2,430.92219963506795,432.4237596420571,,,,,,,,,,,,,,,,,,,,,,,,,,,,,,,,,,,,,,,,,,,,,,,,,,,,,,,,,,,,,,,,,,,,,,,99640,2022-11-10_14h07.36.122,vts_reward_expectancy_bt_OFFLINE,2022.2.4,60.10686973656437,
1,0,0,0,0,1,0,0,triangle,circle,2,0,2,0,0,7,7,0,,,,,,,,,,,,,,,,,,,,,,,,,,,,,,,,,,,,,,,,432.9242412620224,432.9242412620224,432.9242412620224,432.9242412620224,432.9242412620224,432.9242412620224,432.9242412620224,432.9242412620224,432.9242412620224,432.9242412620224,l,1.442403714871034,10,635,2,434.3923944470007,435.89429463096894,,,,,,,,,,,,,,,,,,,,,,,,,,,,,,,,,,,,,,,,,,,,,,,,,,,,,,,,,,,,,,,,,,,,,,,99640,2022-11-10_14h07.36.122,vts_reward_expectancy_bt_OFFLINE,2022.2.4,60.10686973656437,
1,0,0,0,0,0,1,0,triangle,hexagon,2,0,2,0,0,8,8,1,,,,,,,,,,,,,,,,,,,,,,,,,,,,,,,,,,,,,,,,436.39484625007026,436.39484625007026,436.39484625007026,436.39484625007026,436.39484625007026,436.39484625007026,436.39484625007026,436.39484625007026,436.39484625007026,436.39484625007026,a,1.0763384068850428,1,636,2,437.49605315108784,438.9979063719511,,,,,,,,,,,,,,,,,,,,,,,,,,,,,,,,,,,,,,,,,,,,,,,,,,,,,,,,,,,,,,,,,,,,,,,99640,2022-11-10_14h07.36.122,vts_reward_expectancy_bt_OFFLINE,2022.2.4,60.10686973656437,
0,0,0,1,1,0,0,0,star,triangle,2,0,2,0,0,9,9,9,,,,,,,,,,,,,,,,,,,,,,,,,,,,,,,,,,,,,,,,439.49819365516305,439.49819365516305,439.49819365516305,439.49819365516305,439.49819365516305,439.49819365516305,439.49819365516305,439.49819365516305,439.49819365516305,439.49819365516305,l,0.6516343429684639,1,637,2,440.1823948719539,441.68401212315075,,,,,,,,,,,,,,,,,,,,,,,,,,,,,,,,,,,,,,,,,,,,,,,,,,,,,,,,,,,,,,,,,,,,,,,99640,2022-11-10_14h07.36.122,vts_reward_expectancy_bt_OFFLINE,2022.2.4,60.10686973656437,
0,0,0,1,0,1,0,0,star ,circle,2,0,2,0,0,10,10,10,,,,,,,,,,,,,,,,,,,,,,,,,,,,,,,,,,,,,,,,442.184366441099,442.184366441099,442.184366441099,442.184366441099,442.184366441099,442.184366441099,442.184366441099,442.184366441099,442.184366441099,442.184366441099,l,0.855512211099267,10,647,2,443.0689083680045,444.57043775497004,,,,,,,,,,,,,,,,,,,,,,,,,,,,,,,,,,,,,,,,,,,,,,,,,,,,,,,,,,,,,,,,,,,,,,,99640,2022-11-10_14h07.36.122,vts_reward_expectancy_bt_OFFLINE,2022.2.4,60.10686973656437,
0,1,0,0,0,0,1,0,circle,hexagon,2,0,2,0,0,11,11,4,,,,,,,,,,,,,,,,,,,,,,,,,,,,,,,,,,,,,,,,445.07115533505566,445.07115533505566,445.07115533505566,445.07115533505566,445.07115533505566,445.07115533505566,445.07115533505566,445.07115533505566,445.07115533505566,445.07115533505566,a,0.5572931319475174,10,657,2,445.65510888095014,447.15662489808165,,,,,,,,,,,,,,,,,,,,,,,,,,,,,,,,,,,,,,,,,,,,,,,,,,,,,,,,,,,,,,,,,,,,,,,99640,2022-11-10_14h07.36.122,vts_reward_expectancy_bt_OFFLINE,2022.2.4,60.10686973656437,
0,0,1,0,0,0,0,1,hexagon,star,2,0,2,0,1,0,12,8,,,,,,,,,,,,,,,,,,,,,,,,,,,,,,,,,,,,,,,,447.65742572699673,447.65742572699673,447.65742572699673,447.65742572699673,447.65742572699673,447.65742572699673,447.65742572699673,447.65742572699673,447.65742572699673,447.65742572699673,a,0.929222950944677,1,658,2,448.60810968116857,450.11003510514274,,,,,,,,,,,,,,,,,,,,,,,,,,,,,,,,,,,,,,,,,,,,,,,,,,,,,,,,,,,,,,,,,,,,,,,99640,2022-11-10_14h07.36.122,vts_reward_expectancy_bt_OFFLINE,2022.2.4,60.10686973656437,
0,0,0,1,0,1,0,0,star ,circle,2,0,2,0,1,1,13,10,,,,,,,,,,,,,,,,,,,,,,,,,,,,,,,,,,,,,,,,450.61047576298006,450.61047576298006,450.61047576298006,450.61047576298006,450.61047576298006,450.61047576298006,450.61047576298006,450.61047576298006,450.61047576298006,450.61047576298006,l,0.8108554331120104,10,668,2,451.4449921150226,452.9467258360237,,,,,,,,,,,,,,,,,,,,,,,,,,,,,,,,,,,,,,,,,,,,,,,,,,,,,,,,,,,,,,,,,,,,,,,99640,2022-11-10_14h07.36.122,vts_reward_expectancy_bt_OFFLINE,2022.2.4,60.10686973656437,
1,0,0,0,0,0,0,1,triangle,star,2,0,2,0,1,2,14,2,,,,,,,,,,,,,,,,,,,,,,,,,,,,,,,,,,,,,,,,453.44704750715755,453.44704750715755,453.44704750715755,453.44704750715755,453.44704750715755,453.44704750715755,453.44704750715755,453.44704750715755,453.44704750715755,453.44704750715755,a,0.6296895388513803,1,669,2,454.09780647209845,455.5995841671247,,,,,,,,,,,,,,,,,,,,,,,,,,,,,,,,,,,,,,,,,,,,,,,,,,,,,,,,,,,,,,,,,,,,,,,99640,2022-11-10_14h07.36.122,vts_reward_expectancy_bt_OFFLINE,2022.2.4,60.10686973656437,
0,0,1,0,1,0,0,0,hexagon,triangle,2,0,2,0,1,3,15,6,,,,,,,,,,,,,,,,,,,,,,,,,,,,,,,,,,,,,,,,456.100104334997,456.100104334997,456.100104334997,456.100104334997,456.100104334997,456.100104334997,456.100104334997,456.100104334997,456.100104334997,456.100104334997,l,0.8242635289207101,1,670,2,456.95083709806204,458.45245557511225,,,,,,,,,,,,,,,,,,,,,,,,,,,,,,,,,,,,,,,,,,,,,,,,,,,,,,,,,,,,,,,,,,,,,,,99640,2022-11-10_14h07.36.122,vts_reward_expectancy_bt_OFFLINE,2022.2.4,60.10686973656437,
0,1,0,0,0,0,0,1,circle,star,2,0,2,0,1,4,16,5,,,,,,,,,,,,,,,,,,,,,,,,,,,,,,,,,,,,,,,,458.9531384019647,458.9531384019647,458.9531384019647,458.9531384019647,458.9531384019647,458.9531384019647,458.9531384019647,458.9531384019647,458.9531384019647,458.9531384019647,l,0.7379910771269351,1,671,2,459.7208491261117,461.222325141076,,,,,,,,,,,,,,,,,,,,,,,,,,,,,,,,,,,,,,,,,,,,,,,,,,,,,,,,,,,,,,,,,,,,,,,99640,2022-11-10_14h07.36.122,vts_reward_expectancy_bt_OFFLINE,2022.2.4,60.10686973656437,
0,1,0,0,0,0,1,0,circle,hexagon,2,0,2,0,1,5,17,4,,,,,,,,,,,,,,,,,,,,,,,,,,,,,,,,,,,,,,,,461.7229641410522,461.7229641410522,461.7229641410522,461.7229641410522,461.7229641410522,461.7229641410522,461.7229641410522,461.7229641410522,461.7229641410522,461.7229641410522,a,0.7356918440200388,10,681,2,462.4902125969529,463.99201688100584,,,,,,,,,,,,,,,,,,,,,,,,,,,,,,,,,,,,,,,,,,,,,,,,,,,,,,,,,,,,,,,,,,,,,,,99640,2022-11-10_14h07.36.122,vts_reward_expectancy_bt_OFFLINE,2022.2.4,60.10686973656437,
0,0,0,1,0,0,1,0,star,hexagon,2,0,2,0,1,6,18,11,,,,,,,,,,,,,,,,,,,,,,,,,,,,,,,,,,,,,,,,464.49248711997643,464.49248711997643,464.49248711997643,464.49248711997643,464.49248711997643,464.49248711997643,464.49248711997643,464.49248711997643,464.49248711997643,464.49248711997643,l,0.8466570531018078,1,682,2,465.3601641780697,466.8619196310174,,,,,,,,,,,,,,,,,,,,,,,,,,,,,,,,,,,,,,,,,,,,,,,,,,,,,,,,,,,,,,,,,,,,,,,99640,2022-11-10_14h07.36.122,vts_reward_expectancy_bt_OFFLINE,2022.2.4,60.10686973656437,
0,1,0,0,1,0,0,0,circle,triangle,2,0,2,0,1,7,19,3,,,,,,,,,,,,,,,,,,,,,,,,,,,,,,,,,,,,,,,,467.3624147679657,467.3624147679657,467.3624147679657,467.3624147679657,467.3624147679657,467.3624147679657,467.3624147679657,467.3624147679657,467.3624147679657,467.3624147679657,a,1.4756589019671082,1,683,2,468.8639326109551,470.36574320006184,,,,,,,,,,,,,,,,,,,,,,,,,,,,,,,,,,,,,,,,,,,,,,,,,,,,,,,,,,,,,,,,,,,,,,,99640,2022-11-10_14h07.36.122,vts_reward_expectancy_bt_OFFLINE,2022.2.4,60.10686973656437,
1,0,0,0,0,1,0,0,triangle,circle,2,0,2,0,1,8,20,0,,,,,,,,,,,,,,,,,,,,,,,,,,,,,,,,,,,,,,,,470.86609423696063,470.86609423696063,470.86609423696063,470.86609423696063,470.86609423696063,470.86609423696063,470.86609423696063,470.86609423696063,470.86609423696063,470.86609423696063,a,0.9305878230370581,10,693,2,471.817045587115,473.3188708801754,,,,,,,,,,,,,,,,,,,,,,,,,,,,,,,,,,,,,,,,,,,,,,,,,,,,,,,,,,,,,,,,,,,,,,,99640,2022-11-10_14h07.36.122,vts_reward_expectancy_bt_OFFLINE,2022.2.4,60.10686973656437,
0,0,0,1,1,0,0,0,star,triangle,2,0,2,0,1,9,21,9,,,,,,,,,,,,,,,,,,,,,,,,,,,,,,,,,,,,,,,,473.8194461201783,473.8194461201783,473.8194461201783,473.8194461201783,473.8194461201783,473.8194461201783,473.8194461201783,473.8194461201783,473.8194461201783,473.8194461201783,l,0.6008115350268781,10,703,2,474.4367948300205,475.9383952401113,475.9383952401113,,,,,,,,,,,,,,,,,,,,,,,,,,,,,,,,,,,,,,,,,,,,,,,,,,,,,,,,,,,,,,,,,,,,,,99640,2022-11-10_14h07.36.122,vts_reward_expectancy_bt_OFFLINE,2022.2.4,60.10686973656437,
0,0,1,0,0,1,0,0,hexagon,circle,2,0,2,0,1,10,22,7,,,,,,,,,,,,,,,,,,,,,,,,,,,,,,,,,,,,,,,,476.43890513596125,476.43890513596125,476.43890513596125,476.43890513596125,476.43890513596125,476.43890513596125,476.43890513596125,476.43890513596125,476.43890513596125,476.43890513596125,l,0.88371019391343,10,713,2,477.3399732070975,478.84168388997205,,,,,,,,,,,,,,,,,,,,,,,,,,,,,,,,,,,,,,,,,,,,,,,,,,,,,,,,,,,,,,,,,,,,,,,99640,2022-11-10_14h07.36.122,vts_reward_expectancy_bt_OFFLINE,2022.2.4,60.10686973656437,
1,0,0,0,0,0,1,0,triangle,hexagon,2,0,2,0,1,11,23,1,,,,,,,,,,,,,,,,,,,,,,,,,,,,,,,,,,,,,,,,479.3421046161093,479.3421046161093,479.3421046161093,479.3421046161093,479.3421046161093,479.3421046161093,479.3421046161093,479.3421046161093,479.3421046161093,479.3421046161093,a,1.242302950937301,10,723,2,480.6102344719693,482.11205162503757,,,,,,,,,,,,,,,,,,,,,,,,,,,,,,,,,,,,,,,,,,,,,,,,,,,,,,,,,,,,,,,,,,,,,,,99640,2022-11-10_14h07.36.122,vts_reward_expectancy_bt_OFFLINE,2022.2.4,60.10686973656437,
1,0,0,0,0,0,0,1,triangle,star,2,0,2,0,2,0,24,2,,,,,,,,,,,,,,,,,,,,,,,,,,,,,,,,,,,,,,,,482.61226336704567,482.61226336704567,482.61226336704567,482.61226336704567,482.61226336704567,482.61226336704567,482.61226336704567,482.61226336704567,482.61226336704567,482.61226336704567,a,0.7744853179901838,1,724,2,483.41325060115196,484.91489618015476,,,,,,,,,,,,,,,,,,,,,,,,,,,,,,,,,,,,,,,,,,,,,,,,,,,,,,,,,,,,,,,,,,,,,,,99640,2022-11-10_14h07.36.122,vts_reward_expectancy_bt_OFFLINE,2022.2.4,60.10686973656437,
0,0,0,1,1,0,0,0,star,triangle,2,0,2,0,2,1,25,9,,,,,,,,,,,,,,,,,,,,,,,,,,,,,,,,,,,,,,,,485.415639890125,485.415639890125,485.415639890125,485.415639890125,485.415639890125,485.415639890125,485.415639890125,485.415639890125,485.415639890125,485.415639890125,l,0.5684671578928828,10,734,2,486.01634425809607,487.51789749995805,,,,,,,,,,,,,,,,,,,,,,,,,,,,,,,,,,,,,,,,,,,,,,,,,,,,,,,,,,,,,,,,,,,,,,,99640,2022-11-10_14h07.36.122,vts_reward_expectancy_bt_OFFLINE,2022.2.4,60.10686973656437,
0,1,0,0,0,0,1,0,circle,hexagon,2,0,2,0,2,2,26,4,,,,,,,,,,,,,,,,,,,,,,,,,,,,,,,,,,,,,,,,488.01837783306837,488.01837783306837,488.01837783306837,488.01837783306837,488.01837783306837,488.01837783306837,488.01837783306837,488.01837783306837,488.01837783306837,488.01837783306837,a,0.6544067768845707,10,744,2,488.7025806060992,490.20416455506347,,,,,,,,,,,,,,,,,,,,,,,,,,,,,,,,,,,,,,,,,,,,,,,,,,,,,,,,,,,,,,,,,,,,,,,99640,2022-11-10_14h07.36.122,vts_reward_expectancy_bt_OFFLINE,2022.2.4,60.10686973656437,
0,1,0,0,1,0,0,0,circle,triangle,2,0,2,0,2,3,27,3,,,,,,,,,,,,,,,,,,,,,,,,,,,,,,,,,,,,,,,,490.70486820698716,490.70486820698716,490.70486820698716,490.70486820698716,490.70486820698716,490.70486820698716,490.70486820698716,490.70486820698716,490.70486820698716,490.70486820698716,a,0.5788150378502905,1,745,2,491.30557238217443,492.8071285879705,,,,,,,,,,,,,,,,,,,,,,,,,,,,,,,,,,,,,,,,,,,,,,,,,,,,,,,,,,,,,,,,,,,,,,,99640,2022-11-10_14h07.36.122,vts_reward_expectancy_bt_OFFLINE,2022.2.4,60.10686973656437,
0,0,1,0,1,0,0,0,hexagon,triangle,2,0,2,0,2,4,28,6,,,,,,,,,,,,,,,,,,,,,,,,,,,,,,,,,,,,,,,,493.30771399801597,493.30771399801597,493.30771399801597,493.30771399801597,493.30771399801597,493.30771399801597,493.30771399801597,493.30771399801597,493.30771399801597,493.30771399801597,l,0.5968898409046233,10,755,2,493.92514937510714,495.4267942381557,,,,,,,,,,,,,,,,,,,,,,,,,,,,,,,,,,,,,,,,,,,,,,,,,,,,,,,,,,,,,,,,,,,,,,,99640,2022-11-10_14h07.36.122,vts_reward_expectancy_bt_OFFLINE,2022.2.4,60.10686973656437,
1,0,0,0,0,1,0,0,triangle,circle,2,0,2,0,2,5,29,0,,,,,,,,,,,,,,,,,,,,,,,,,,,,,,,,,,,,,,,,495.92706918809563,495.92706918809563,495.92706918809563,495.92706918809563,495.92706918809563,495.92706918809563,495.92706918809563,495.92706918809563,495.92706918809563,495.92706918809563,l,1.2416298729367554,10,765,2,497.19519967003725,498.6969341770746,,,,,,,,,,,,,,,,,,,,,,,,,,,,,,,,,,,,,,,,,,,,,,,,,,,,,,,,,,,,,,,,,,,,,,,99640,2022-11-10_14h07.36.122,vts_reward_expectancy_bt_OFFLINE,2022.2.4,60.10686973656437,
0,0,1,0,0,1,0,0,hexagon,circle,2,0,2,0,2,6,30,7,,,,,,,,,,,,,,,,,,,,,,,,,,,,,,,,,,,,,,,,499.1975512159988,499.1975512159988,499.1975512159988,499.1975512159988,499.1975512159988,499.1975512159988,499.1975512159988,499.1975512159988,499.1975512159988,499.1975512159988,l,0.6834819770883769,1,766,2,499.8982646651566,501.3997702500783,,,,,,,,,,,,,,,,,,,,,,,,,,,,,,,,,,,,,,,,,,,,,,,,,,,,,,,,,,,,,,,,,,,,,,,99640,2022-11-10_14h07.36.122,vts_reward_expectancy_bt_OFFLINE,2022.2.4,60.10686973656437,
1,0,0,0,0,0,1,0,triangle,hexagon,2,0,2,0,2,7,31,1,,,,,,,,,,,,,,,,,,,,,,,,,,,,,,,,,,,,,,,,501.90049141203053,501.90049141203053,501.90049141203053,501.90049141203053,501.90049141203053,501.90049141203053,501.90049141203053,501.90049141203053,501.90049141203053,501.90049141203053,a,0.7465214917901903,1,767,2,502.6679530320689,504.16963070095517,,,,,,,,,,,,,,,,,,,,,,,,,,,,,,,,,,,,,,,,,,,,,,,,,,,,,,,,,,,,,,,,,,,,,,,99640,2022-11-10_14h07.36.122,vts_reward_expectancy_bt_OFFLINE,2022.2.4,60.10686973656437,
0,1,0,0,0,0,0,1,circle,star,2,0,2,0,2,8,32,5,,,,,,,,,,,,,,,,,,,,,,,,,,,,,,,,,,,,,,,,504.6702106730081,504.6702106730081,504.6702106730081,504.6702106730081,504.6702106730081,504.6702106730081,504.6702106730081,504.6702106730081,504.6702106730081,504.6702106730081,l,0.8347041378729045,1,768,2,505.5378014431335,507.03939766809344,,,,,,,,,,,,,,,,,,,,,,,,,,,,,,,,,,,,,,,,,,,,,,,,,,,,,,,,,,,,,,,,,,,,,,,99640,2022-11-10_14h07.36.122,vts_reward_expectancy_bt_OFFLINE,2022.2.4,60.10686973656437,
0,0,0,1,0,1,0,0,star ,circle,2,0,2,0,2,9,33,10,,,,,,,,,,,,,,,,,,,,,,,,,,,,,,,,,,,,,,,,507.54000478517264,507.54000478517264,507.54000478517264,507.54000478517264,507.54000478517264,507.54000478517264,507.54000478517264,507.54000478517264,507.54000478517264,507.54000478517264,l,0.6315774950198829,1,769,2,508.190772352973,509.69226913596503,,,,,,,,,,,,,,,,,,,,,,,,,,,,,,,,,,,,,,,,,,,,,,,,,,,,,,,,,,,,,,,,,,,,,,,99640,2022-11-10_14h07.36.122,vts_reward_expectancy_bt_OFFLINE,2022.2.4,60.10686973656437,
0,0,1,0,0,0,0,1,hexagon,star,2,0,2,0,2,10,34,8,,,,,,,,,,,,,,,,,,,,,,,,,,,,,,,,,,,,,,,,510.192857446149,510.192857446149,510.192857446149,510.192857446149,510.192857446149,510.192857446149,510.192857446149,510.192857446149,510.192857446149,510.192857446149,a,0.5773065991234034,1,770,2,510.7935300259851,512.2951155810151,,,,,,,,,,,,,,,,,,,,,,,,,,,,,,,,,,,,,,,,,,,,,,,,,,,,,,,,,,,,,,,,,,,,,,,99640,2022-11-10_14h07.36.122,vts_reward_expectancy_bt_OFFLINE,2022.2.4,60.10686973656437,
0,0,0,1,0,0,1,0,star,hexagon,2,0,2,0,2,11,35,11,,,,,,,,,,,,,,,,,,,,,,,,,,,,,,,,,,,,,,,,512.7958282399923,512.7958282399923,512.7958282399923,512.7958282399923,512.7958282399923,512.7958282399923,512.7958282399923,512.7958282399923,512.7958282399923,512.7958282399923,a,0.5848821809049696,10,780,2,513.4130632400047,514.9149446170777,,,,,,,,,,,,,,,,,,,,,,,,,,,,,,,,,,,,,,,,,,,,,,,,,,,,,,,,,,,,,,,,,,,,,,,99640,2022-11-10_14h07.36.122,vts_reward_expectancy_bt_OFFLINE,2022.2.4,60.10686973656437,
0,0,1,0,0,0,0,1,hexagon,star,2,0,2,0,3,0,36,8,,,,,,,,,,,,,,,,,,,,,,,,,,,,,,,,,,,,,,,,515.4152457721066,515.4152457721066,515.4152457721066,515.4152457721066,515.4152457721066,515.4152457721066,515.4152457721066,515.4152457721066,515.4152457721066,515.4152457721066,l,1.2045752969570458,10,790,2,516.6501642800868,518.1516458950937,,,,,,,,,,,,,,,,,,,,,,,,,,,,,,,,,,,,,,,,,,,,,,,,,,,,,,,,,,,,,,,,,,,,,,,99640,2022-11-10_14h07.36.122,vts_reward_expectancy_bt_OFFLINE,2022.2.4,60.10686973656437,
1,0,0,0,0,1,0,0,triangle,circle,2,0,2,0,3,1,37,0,,,,,,,,,,,,,,,,,,,,,,,,,,,,,,,,,,,,,,,,518.6522147930227,518.6522147930227,518.6522147930227,518.6522147930227,518.6522147930227,518.6522147930227,518.6522147930227,518.6522147930227,518.6522147930227,518.6522147930227,a,0.815661309985444,10,800,2,519.4864064860158,520.9881490401458,,,,,,,,,,,,,,,,,,,,,,,,,,,,,,,,,,,,,,,,,,,,,,,,,,,,,,,,,,,,,,,,,,,,,,,99640,2022-11-10_14h07.36.122,vts_reward_expectancy_bt_OFFLINE,2022.2.4,60.10686973656437,
0,0,0,1,0,0,1,0,star,hexagon,2,0,2,0,3,2,38,11,,,,,,,,,,,,,,,,,,,,,,,,,,,,,,,,,,,,,,,,521.4888115650974,521.4888115650974,521.4888115650974,521.4888115650974,521.4888115650974,521.4888115650974,521.4888115650974,521.4888115650974,521.4888115650974,521.4888115650974,l,0.903549144975841,10,810,2,522.4230527561158,523.9248154070228,,,,,,,,,,,,,,,,,,,,,,,,,,,,,,,,,,,,,,,,,,,,,,,,,,,,,,,,,,,,,,,,,,,,,,,99640,2022-11-10_14h07.36.122,vts_reward_expectancy_bt_OFFLINE,2022.2.4,60.10686973656437,
0,0,1,0,0,1,0,0,hexagon,circle,2,0,2,0,3,3,39,7,,,,,,,,,,,,,,,,,,,,,,,,,,,,,,,,,,,,,,,,524.4254163671285,524.4254163671285,524.4254163671285,524.4254163671285,524.4254163671285,524.4254163671285,524.4254163671285,524.4254163671285,524.4254163671285,524.4254163671285,a,1.5002178638242185,1,811,2,525.9437882560305,527.4453190551139,527.4453190551139,,,,,,,,,,,,,,,,,,,,,,,,,,,,,,,,,,,,,,,,,,,,,,,,,,,,,,,,,,,,,,,,,,,,,,99640,2022-11-10_14h07.36.122,vts_reward_expectancy_bt_OFFLINE,2022.2.4,60.10686973656437,
0,1,0,0,1,0,0,0,circle,triangle,2,0,2,0,3,4,40,3,,,,,,,,,,,,,,,,,,,,,,,,,,,,,,,,,,,,,,,,527.9458518901374,527.9458518901374,527.9458518901374,527.9458518901374,527.9458518901374,527.9458518901374,527.9458518901374,527.9458518901374,527.9458518901374,527.9458518901374,l,0.6240153647959232,10,821,2,528.5966294321697,530.0982004660182,,,,,,,,,,,,,,,,,,,,,,,,,,,,,,,,,,,,,,,,,,,,,,,,,,,,,,,,,,,,,,,,,,,,,,,99640,2022-11-10_14h07.36.122,vts_reward_expectancy_bt_OFFLINE,2022.2.4,60.10686973656437,
0,0,0,1,1,0,0,0,star,triangle,2,0,2,0,3,5,41,9,,,,,,,,,,,,,,,,,,,,,,,,,,,,,,,,,,,,,,,,530.598801227985,530.598801227985,530.598801227985,530.598801227985,530.598801227985,530.598801227985,530.598801227985,530.598801227985,530.598801227985,530.598801227985,l,0.9068704079836607,10,831,2,531.5329992170446,533.0345632131211,,,,,,,,,,,,,,,,,,,,,,,,,,,,,,,,,,,,,,,,,,,,,,,,,,,,,,,,,,,,,,,,,,,,,,,99640,2022-11-10_14h07.36.122,vts_reward_expectancy_bt_OFFLINE,2022.2.4,60.10686973656437,
1,0,0,0,0,0,1,0,triangle,hexagon,2,0,2,0,3,6,42,1,,,,,,,,,,,,,,,,,,,,,,,,,,,,,,,,,,,,,,,,533.5352223431692,533.5352223431692,533.5352223431692,533.5352223431692,533.5352223431692,533.5352223431692,533.5352223431692,533.5352223431692,533.5352223431692,533.5352223431692,a,0.7264144821092486,10,841,2,534.2860015970655,535.7879404670093,,,,,,,,,,,,,,,,,,,,,,,,,,,,,,,,,,,,,,,,,,,,,,,,,,,,,,,,,,,,,,,,,,,,,,,99640,2022-11-10_14h07.36.122,vts_reward_expectancy_bt_OFFLINE,2022.2.4,60.10686973656437,
0,1,0,0,0,0,1,0,circle,hexagon,2,0,2,0,3,7,43,4,,,,,,,,,,,,,,,,,,,,,,,,,,,,,,,,,,,,,,,,536.2885102571454,536.2885102571454,536.2885102571454,536.2885102571454,536.2885102571454,536.2885102571454,536.2885102571454,536.2885102571454,536.2885102571454,536.2885102571454,l,0.741400359896943,10,851,2,537.0558922700584,538.5576378069818,,,,,,,,,,,,,,,,,,,,,,,,,,,,,,,,,,,,,,,,,,,,,,,,,,,,,,,,,,,,,,,,,,,,,,,99640,2022-11-10_14h07.36.122,vts_reward_expectancy_bt_OFFLINE,2022.2.4,60.10686973656437,
1,0,0,0,0,0,0,1,triangle,star,2,0,2,0,3,8,44,2,,,,,,,,,,,,,,,,,,,,,,,,,,,,,,,,,,,,,,,,539.0582668830175,539.0582668830175,539.0582668830175,539.0582668830175,539.0582668830175,539.0582668830175,539.0582668830175,539.0582668830175,539.0582668830175,539.0582668830175,l,0.6707304429728538,1,852,2,539.758955263067,541.2606473071501,,,,,,,,,,,,,,,,,,,,,,,,,,,,,,,,,,,,,,,,,,,,,,,,,,,,,,,,,,,,,,,,,,,,,,,99640,2022-11-10_14h07.36.122,vts_reward_expectancy_bt_OFFLINE,2022.2.4,60.10686973656437,
0,0,0,1,0,1,0,0,star ,circle,2,0,2,0,3,9,45,10,,,,,,,,,,,,,,,,,,,,,,,,,,,,,,,,,,,,,,,,541.7611109900754,541.7611109900754,541.7611109900754,541.7611109900754,541.7611109900754,541.7611109900754,541.7611109900754,541.7611109900754,541.7611109900754,541.7611109900754,l,0.568251569988206,10,862,2,542.3619006751105,543.8634679750539,,,,,,,,,,,,,,,,,,,,,,,,,,,,,,,,,,,,,,,,,,,,,,,,,,,,,,,,,,,,,,,,,,,,,,,99640,2022-11-10_14h07.36.122,vts_reward_expectancy_bt_OFFLINE,2022.2.4,60.10686973656437,
0,1,0,0,0,0,0,1,circle,star,2,0,2,0,3,10,46,5,,,,,,,,,,,,,,,,,,,,,,,,,,,,,,,,,,,,,,,,544.3641316660214,544.3641316660214,544.3641316660214,544.3641316660214,544.3641316660214,544.3641316660214,544.3641316660214,544.3641316660214,544.3641316660214,544.3641316660214,a,0.5516010299324989,10,872,2,544.9480265511665,546.4496146650054,,,,,,,,,,,,,,,,,,,,,,,,,,,,,,,,,,,,,,,,,,,,,,,,,,,,,,,,,,,,,,,,,,,,,,,99640,2022-11-10_14h07.36.122,vts_reward_expectancy_bt_OFFLINE,2022.2.4,60.10686973656437,
0,0,1,0,1,0,0,0,hexagon,triangle,2,0,2,0,3,11,47,6,,,,,,,,,,,,,,,,,,,,,,,,,,,,,,,,,,,,,,,,546.950286192121,546.950286192121,546.950286192121,546.950286192121,546.950286192121,546.950286192121,546.950286192121,546.950286192121,546.950286192121,546.950286192121,l,0.5658971439115703,10,882,2,547.534365199972,549.035844263155,,,,,,,,,,,,,,,,,,,,,,,,,,,,,,,,,,,,,,,,,,,,,,,,,,,,,,,,,,,,,,,,,,,,,,,99640,2022-11-10_14h07.36.122,vts_reward_expectancy_bt_OFFLINE,2022.2.4,60.10686973656437,
,,,,,,,,,,,,,,,,,,0,0,0,0,0,0,0,0,,,,,,,,,,,,,,,,,,,,,,,,,,,,,,,,,,,,,,,,,,,,,,,,597.922951556975,,125,F,circle,0.0020051950123161077,592.7677613450214,594.2691246711183,594.2691246711183,594.2691246711183,1,0,d,2.1198755430523306,0,596.4223097320646,597.922951556975,,,,,,,,,,,,,,,,,,,,,,,,,,,,,,,,,,,,,,,,,,,,,,,,,,,,,,,99640,2022-11-10_14h07.36.122,vts_reward_expectancy_bt_OFFLINE,2022.2.4,60.10686973656437,
,,,,,,,,,,,,,,,,,,0,0,0,0,1,0,1,0,,,,,,,,,,,,,,,,,,,,,,,,,,,,,,,,,,,,,,,,,,,,,,,,602.528126492165,,174,W,hexagon,0.0009368599858134985,598.9087889960501,600.4093158701435,600.4093158701435,600.4093158701435,1,0,f,0.5924664170015603,0,601.0265604599845,,,,,,,,,,,,,,,,,,,,,,,,,,,,,,,,,,,,,,,,,,,,,,,,,,,,,,,,99640,2022-11-10_14h07.36.122,vts_reward_expectancy_bt_OFFLINE,2022.2.4,60.10686973656437,
,,,,,,,,,,,,,,,,,,0,0,0,0,2,0,2,0,,,,,,,,,,,,,,,,,,,,,,,,,,,,,,,,,,,,,,,,,,,,,,,,607.0497925400268,,181,B,triangle,0.0014734708238393068,603.5131537751295,605.014327842975,605.014327842975,605.014327842975,1,0,f,0.5099319440778345,0,605.5482539059594,,,,,,,,,,,,,,,,,,,,,,,,,,,,,,,,,,,,,,,,,,,,,,,,,,,,,,,,99640,2022-11-10_14h07.36.122,vts_reward_expectancy_bt_OFFLINE,2022.2.4,60.10686973656437,
,,,,,,,,,,,,,,,,,,0,0,0,0,3,0,3,0,,,,,,,,,,,,,,,,,,,,,,,,,,,,,,,,,,,,,,,,,,,,,,,,611.688483529957,,160,Y,star,0.0008788190316408873,608.0339266820811,609.5358005750459,609.5358005750459,609.5358005750459,1,0,f,0.6245647659525275,0,610.1865379370283,,,,,,,,,,,,,,,,,,,,,,,,,,,,,,,,,,,,,,,,,,,,,,,,,,,,,,,,99640,2022-11-10_14h07.36.122,vts_reward_expectancy_bt_OFFLINE,2022.2.4,60.10686973656437,
,,,,,,,,,,,,,,,,,,0,0,0,0,4,0,4,0,,,,,,,,,,,,,,,,,,,,,,,,,,,,,,,,,,,,,,,,,,,,,,,,616.1434034910053,,146,H,triangle,0.001407478004693985,612.6726772480179,614.1745826881379,614.1745826881379,614.1745826881379,1,0,d,0.4402767850551754,0,614.6415072230157,,,,,,,,,,,,,,,,,,,,,,,,,,,,,,,,,,,,,,,,,,,,,,,,,,,,,,,,99640,2022-11-10_14h07.36.122,vts_reward_expectancy_bt_OFFLINE,2022.2.4,60.10686973656437,
,,,,,,,,,,,,,,,,,,0,0,0,0,5,0,5,0,,,,,,,,,,,,,,,,,,,,,,,,,,,,,,,,,,,,,,,,,,,,,,,,620.6814802470617,,167,D,hexagon,0.0014655878767371178,617.127624147106,618.6294079371728,618.6294079371728,618.6294079371728,1,0,f,0.5195331098511815,0,619.1799205250572,,,,,,,,,,,,,,,,,,,,,,,,,,,,,,,,,,,,,,,,,,,,,,,,,,,,,,,,99640,2022-11-10_14h07.36.122,vts_reward_expectancy_bt_OFFLINE,2022.2.4,60.10686973656437,
,,,,,,,,,,,,,,,,,,0,0,0,0,6,0,6,0,,,,,,,,,,,,,,,,,,,,,,,,,,,,,,,,,,,,,,,,,,,,,,,,625.3699466050602,,139,U,star,0.001219509867951274,621.6662943281699,623.1673610180151,623.1673610180151,623.1673610180151,1,0,d,0.6737466249614954,0,623.8684198369738,,,,,,,,,,,,,,,,,,,,,,,,,,,,,,,,,,,,,,,,,,,,,,,,,,,,,,,,99640,2022-11-10_14h07.36.122,vts_reward_expectancy_bt_OFFLINE,2022.2.4,60.10686973656437,
,,,,,,,,,,,,,,,,,,0,0,0,0,7,0,7,0,,,,,,,,,,,,,,,,,,,,,,,,,,,,,,,,,,,,,,,,,,,,,,,,629.8748558470979,,132,S,circle,0.0012452499940991402,626.3543735709973,627.8561860551126,627.8561860551126,627.8561860551126,1,0,d,0.4848441530484706,0,628.3733936580829,,,,,,,,,,,,,,,,,,,,,,,,,,,,,,,,,,,,,,,,,,,,,,,,,,,,,,,,99640,2022-11-10_14h07.36.122,vts_reward_expectancy_bt_OFFLINE,2022.2.4,60.10686973656437,
,,,,,,,,,,,,,,,,,,0,0,0,0,8,0,8,0,,,,,,,,,,,,,,,,,,,,,,,,,,,,,,,,,,,,,,,,,,,,,,,,634.396612846991,,125,F,circle,0.0013365959748625755,630.8594603461679,632.3609343350399,632.3609343350399,632.3609343350399,1,0,d,0.514913939870894,0,632.894978136057,,,,,,,,,,,,,,,,,,,,,,,,,,,,,,,,,,,,,,,,,,,,,,,,,,,,,,,,99640,2022-11-10_14h07.36.122,vts_reward_expectancy_bt_OFFLINE,2022.2.4,60.10686973656437,
,,,,,,,,,,,,,,,,,,0,0,0,0,9,0,9,0,,,,,,,,,,,,,,,,,,,,,,,,,,,,,,,,,,,,,,,,,,,,,,,,638.9348682509735,,174,W,triangle,0.0014926849398761988,635.3810080080293,636.8828056349885,636.8828056349885,636.8828056349885,1,0,f,0.5267543538939208,0,637.4331146050245,,,,,,,,,,,,,,,,,,,,,,,,,,,,,,,,,,,,,,,,,,,,,,,,,,,,,,,,99640,2022-11-10_14h07.36.122,vts_reward_expectancy_bt_OFFLINE,2022.2.4,60.10686973656437,
,,,,,,,,,,,,,,,,,,,,,,,,,,0,0,0,0,0,0,0,0,,,,,,,,,,,,,,,,,,,,,,,,,,,,,,,,,,,,,,,,673.5733136651106,,125,U,triangle,0.0019982322119176388,,,,,1,0,,,1,672.0716314630117,,670.0697493599728,671.571183933178,671.571183933178,671.571183933178,k,0.4679903890937567,,,,,,,,,,,,,,,,,,,,,,,,,,,,,,,,,,,,,,,,,,,,,,,,,99640,2022-11-10_14h07.36.122,vts_reward_expectancy_bt_OFFLINE,2022.2.4,60.10686973656437,
,,,,,,,,,,,,,,,,,,,,,,,,,,0,0,0,0,1,0,1,0,,,,,,,,,,,,,,,,,,,,,,,,,,,,,,,,,,,,,,,,678.0113871400245,,146,D,hexagon,0.0009733559563755989,,,,,1,0,,,1,676.5097386750858,,674.5575512980577,676.0593919921666,676.0593919921666,676.0593919921666,j,0.42357571003958583,,,,,,,,,,,,,,,,,,,,,,,,,,,,,,,,,,,,,,,,,,,,,,,,,99640,2022-11-10_14h07.36.122,vts_reward_expectancy_bt_OFFLINE,2022.2.4,60.10686973656437,
,,,,,,,,,,,,,,,,,,,,,,,,,,0,0,0,0,2,0,2,0,,,,,,,,,,,,,,,,,,,,,,,,,,,,,,,,,,,,,,,,682.6500388409477,,181,H,star,0.0012593078427016735,,,,,1,0,,,1,681.1482819211669,,678.9957455960102,680.4976918830071,680.4976918830071,680.4976918830071,j,0.6204661140218377,,,,,,,,,,,,,,,,,,,,,,,,,,,,,,,,,,,,,,,,,,,,,,,,,99640,2022-11-10_14h07.36.122,vts_reward_expectancy_bt_OFFLINE,2022.2.4,60.10686973656437,
,,,,,,,,,,,,,,,,,,,,,,,,,,0,0,0,0,3,0,3,0,,,,,,,,,,,,,,,,,,,,,,,,,,,,,,,,,,,,,,,,687.2548627411015,,139,Y,circle,0.0014837351627647877,,,,,1,0,,,1,685.7532841670327,,683.6343894251622,685.1359087021556,685.1359087021556,685.1359087021556,k,0.594903910998255,,,,,,,,,,,,,,,,,,,,,,,,,,,,,,,,,,,,,,,,,,,,,,,,,99640,2022-11-10_14h07.36.122,vts_reward_expectancy_bt_OFFLINE,2022.2.4,60.10686973656437,
,,,,,,,,,,,,,,,,,,,,,,,,,,0,0,0,0,4,0,4,0,,,,,,,,,,,,,,,,,,,,,,,,,,,,,,,,,,,,,,,,691.8767685301136,,160,W,star,0.0010843330528587103,,,,,1,0,,,1,690.3750263210386,,688.2394948611036,689.7410999301355,689.7410999301355,689.7410999301355,k,0.6030410998500884,,,,,,,,,,,,,,,,,,,,,,,,,,,,,,,,,,,,,,,,,,,,,,,,,99640,2022-11-10_14h07.36.122,vts_reward_expectancy_bt_OFFLINE,2022.2.4,60.10686973656437,
,,,,,,,,,,,,,,,,,,,,,,,,,,0,0,0,0,5,0,5,0,,,,,,,,,,,,,,,,,,,,,,,,,,,,,,,,,,,,,,,,696.4150618480053,,167,S,triangle,0.0013079820200800896,,,,,1,0,,,1,694.9133395301178,,692.8611533781514,694.3628936430905,694.3628936430905,694.3628936430905,k,0.5257868131157011,,,,,,,,,,,,,,,,,,,,,,,,,,,,,,,,,,,,,,,,,,,,,,,,,99640,2022-11-10_14h07.36.122,vts_reward_expectancy_bt_OFFLINE,2022.2.4,60.10686973656437,
,,,,,,,,,,,,,,,,,,,,,,,,,,0,0,0,0,6,0,6,0,,,,,,,,,,,,,,,,,,,,,,,,,,,,,,,,,,,,,,,,700.9369027120993,,132,B,hexagon,0.0016383160836994648,,,,,1,0,,,1,699.4350009961054,,697.3994393059984,698.9009716310538,698.9009716310538,698.9009716310538,j,0.51096475799568,,,,,,,,,,,,,,,,,,,,,,,,,,,,,,,,,,,,,,,,,,,,,,,,,99640,2022-11-10_14h07.36.122,vts_reward_expectancy_bt_OFFLINE,2022.2.4,60.10686973656437,
,,,,,,,,,,,,,,,,,,,,,,,,,,0,0,0,0,7,0,7,0,,,,,,,,,,,,,,,,,,,,,,,,,,,,,,,,,,,,,,,,705.6917633861303,,174,F,circle,0.001571857137605548,,,,,1,0,,,1,704.1903791781515,,701.9210139131173,703.4229372781701,703.4229372781701,703.4229372781701,j,0.736423172056675,,,,,,,,,,,,,,,,,,,,,,,,,,,,,,,,,,,,,,,,,,,,,,,,,99640,2022-11-10_14h07.36.122,vts_reward_expectancy_bt_OFFLINE,2022.2.4,60.10686973656437,
,,,,,,,,,,,,,,,,,,,,,,,,,,0,0,0,0,8,0,8,0,,,,,,,,,,,,,,,,,,,,,,,,,,,,,,,,,,,,,,,,710.2968536710832,,125,U,triangle,0.001258644973859191,,,,,1,0,,,1,708.7952659770381,,706.6763027701527,708.1779958661646,708.1779958661646,708.1779958661646,k,0.5953090339899063,,,,,,,,,,,,,,,,,,,,,,,,,,,,,,,,,,,,,,,,,,,,,,,,,99640,2022-11-10_14h07.36.122,vts_reward_expectancy_bt_OFFLINE,2022.2.4,60.10686973656437,
,,,,,,,,,,,,,,,,,,,,,,,,,,0,0,0,0,9,0,9,0,,,,,,,,,,,,,,,,,,,,,,,,,,,,,,,,,,,,,,,,715.0355418170802,,146,D,circle,0.0012849420309066772,,,,,1,0,,,1,713.5338417319581,,711.2815460951533,712.7832611561753,712.7832611561753,712.7832611561753,j,0.7262557980138808,,,,,,,,,,,,,,,,,,,,,,,,,,,,,,,,,,,,,,,,,,,,,,,,,99640,2022-11-10_14h07.36.122,vts_reward_expectancy_bt_OFFLINE,2022.2.4,60.10686973656437,
,,,,,,,,,,,,,,,,,,,,,,,,,,,,,,,,,,0,0,0,0,0,0,0,0,,,,,,,,,,,,,,,,,,,,,,,,,,,,0,882,,,754.4624736551195,,174,F,triangle,0.00215012114495039,,,,,1,0,,,2,,,,,,,,,749.9075972570572,749.9075972570572,749.9075972570572,749.9075972570572,751.3924837759696,751.3924837759696,751.3924837759696,751.3924837759696,751.4089622250758,751.4089622250758,751.4089622250758,751.4089622250758,-1,number,NA,f,1.528273263014853,vtsPrac,752.9608366179746,,,,,,,,,,,,,,,,,,,,,,,,,,,,,,99640,2022-11-10_14h07.36.122,vts_reward_expectancy_bt_OFFLINE,2022.2.4,60.10686973656437,
,,,,,,,,,,,,,,,,,,,,,,,,,,,,,,,,,,0,0,0,0,1,0,1,0,,,,,,,,,,,,,,,,,,,,,,,,,,,,0,882,,,760.268911842024,,146,S,hexagon,0.001034703105688095,,,,,1,0,,,2,,,,,,,,,755.4311118209735,755.4311118209735,755.4311118209735,755.4311118209735,756.9316271820571,756.9316271820571,756.9316271820571,756.9316271820571,756.9316271820571,756.9316271820571,756.9316271820571,756.9316271820571,switch,letter,lettSwt,k,1.8192319888621569,vtsPrac,758.7675504731014,760.268911842024,760.7693965230137,,,,,,,,,,,,,,,,,,,,,,,,,,,,99640,2022-11-10_14h07.36.122,vts_reward_expectancy_bt_OFFLINE,2022.2.4,60.10686973656437,
,,,,,,,,,,,,,,,,,,,,,,,,,,,,,,,,,,0,0,0,0,2,0,2,0,,,,,,,,,,,,,,,,,,,,,,,,,,,,0,882,,,764.8071606180165,,125,U,hexagon,0.001036244910210371,,,,,1,0,,,2,,,,,,,,,761.2549547320232,761.2549547320232,761.2549547320232,761.2549547320232,762.7550054560415,762.7550054560415,762.7550054560415,762.7550054560415,762.7550054560415,762.7550054560415,762.7550054560415,762.7550054560415,repeat,letter,lettRpt,k,0.5277392899151891,vtsPrac,763.3058682950214,,,,,,,,,,,,,,,,,,,,,,,,,,,,,,99640,2022-11-10_14h07.36.122,vts_reward_expectancy_bt_OFFLINE,2022.2.4,60.10686973656437,
,,,,,,,,,,,,,,,,,,,,,,,,,,,,,,,,,,0,0,0,0,3,0,3,0,,,,,,,,,,,,,,,,,,,,,,,,,,,,0,882,,,769.4289603901561,,132,W,circle,0.00113285006955266,,,,,1,0,,,2,,,,,,,,,765.7929459800944,765.7929459800944,765.7929459800944,765.7929459800944,767.2932548620738,767.2932548620738,767.2932548620738,767.2932548620738,767.2932548620738,767.2932548620738,767.2932548620738,767.2932548620738,repeat,letter,lettRpt,k,0.6027486009988934,vtsPrac,767.9273808549624,,,,,,,,,,,,,,,,,,,,,,,,,,,,,,99640,2022-11-10_14h07.36.122,vts_reward_expectancy_bt_OFFLINE,2022.2.4,60.10686973656437,
,,,,,,,,,,,,,,,,,,,,,,,,,,,,,,,,,,0,0,0,0,4,0,4,0,,,,,,,,,,,,,,,,,,,,,,,,,,,,0,882,,,774.0172997070476,,174,F,circle,0.0012531948741525412,,,,,1,0,,,2,,,,,,,,,770.413321465021,770.413321465021,770.413321465021,770.413321465021,771.915025484981,771.915025484981,771.915025484981,771.915025484981,771.915025484981,771.915025484981,771.915025484981,771.915025484981,switch,number,numSwt,f,0.5842256888281554,vtsPrac,772.5156101330649,774.0172997070476,,,,,,,,,,,,,,,,,,,,,,,,,,,,,99640,2022-11-10_14h07.36.122,vts_reward_expectancy_bt_OFFLINE,2022.2.4,60.10686973656437,
,,,,,,,,,,,,,,,,,,,,,,,,,,,,,,,,,,0,0,0,0,5,0,5,0,,,,,,,,,,,,,,,,,,,,,,,,,,,,0,882,,,778.6727057520766,,146,S,triangle,0.0008898850064724684,,,,,1,0,,,2,,,,,,,,,775.0019299450796,775.0019299450796,775.0019299450796,775.0019299450796,776.5035926110577,776.5035926110577,776.5035926110577,776.5035926110577,776.5035926110577,776.5035926110577,776.5035926110577,776.5035926110577,repeat,number,numRpt,d,0.6403823199216276,vtsPrac,777.1711385450326,,,,,,,,,,,,,,,,,,,,,,,,,,,,,,99640,2022-11-10_14h07.36.122,vts_reward_expectancy_bt_OFFLINE,2022.2.4,60.10686973656437,
,,,,,,,,,,,,,,,,,,,,,,,,,,,,,,,,,,0,0,0,0,6,0,6,0,,,,,,,,,,,,,,,,,,,,,,,,,,,,0,882,,,783.1776221520267,,125,U,triangle,0.0014273910783231258,,,,,0,0,,,2,,,,,,,,,779.6570132670458,779.6570132670458,779.6570132670458,779.6570132670458,781.1585827111267,781.1585827111267,781.1585827111267,781.1585827111267,781.1585827111267,781.1585827111267,781.1585827111267,781.1585827111267,switch,letter,NA,j,0.4852535710670054,vtsPrac,781.6758834430948,,,,,,,,,,,,,,,,,,,,,,,,,,,,,,99640,2022-11-10_14h07.36.122,vts_reward_expectancy_bt_OFFLINE,2022.2.4,60.10686973656437,
,,,,,,,,,,,,,,,,,,,,,,,,,,,,,,,,,,0,0,0,0,7,0,7,0,,,,,,,,,,,,,,,,,,,,,,,,,,,,0,882,,,787.9992774920538,,132,W,star,0.001152730081230402,,,,,1,1,,,2,,,,,,,,,784.1619685329497,784.1619685329497,784.1619685329497,784.1619685329497,785.6635740560014,785.6635740560014,785.6635740560014,785.6635740560014,785.6635740560014,785.6635740560014,785.6635740560014,785.6635740560014,repeat,letter,lettRpt,k,0.8081188669893891,vtsPrac,786.4986920361407,,,,,,,,,,,,,,,,,,,,,,,,,,,,,,99640,2022-11-10_14h07.36.122,vts_reward_expectancy_bt_OFFLINE,2022.2.4,60.10686973656437,
,,,,,,,,,,,,,,,,,,,,,,,,,,,,,,,,,,0,0,0,0,8,0,8,0,,,,,,,,,,,,,,,,,,,,,,,,,,,,0,882,,,792.6210719870869,,146,U,triangle,0.001168190035969019,,,,,0,0,,,2,,,,,,,,,788.9840471951757,788.9840471951757,788.9840471951757,788.9840471951757,790.485561190173,790.485561190173,790.485561190173,790.485561190173,790.485561190173,790.485561190173,790.485561190173,790.485561190173,switch,number,NA,f,0.6100053370464593,vtsPrac,791.1203544370364,,,,,,,,,,,,,,,,,,,,,,,,,,,,,,99640,2022-11-10_14h07.36.122,vts_reward_expectancy_bt_OFFLINE,2022.2.4,60.10686973656437,
,,,,,,,,,,,,,,,,,,,,,,,,,,,,,,,,,,0,0,0,0,9,0,9,0,,,,,,,,,,,,,,,,,,,,,,,,,,,,0,882,,,797.2758961620275,,125,B,hexagon,0.001382133923470974,,,,,1,1,,,2,,,,,,,,,793.605458335951,793.605458335951,793.605458335951,793.605458335951,795.1073529119603,795.1073529119603,795.1073529119603,795.1073529119603,795.1073529119603,795.1073529119603,795.1073529119603,795.1073529119603,repeat,number,numRpt,d,0.6350086838938296,vtsPrac,795.7747015801724,797.2758961620275,,,,,,,,,,,,,,,,,,,,,,,,,,,,,99640,2022-11-10_14h07.36.122,vts_reward_expectancy_bt_OFFLINE,2022.2.4,60.10686973656437,
,,,,,,,,,,,,,,,,,,,,,,,,,,,,,,,,,,0,0,0,0,10,0,10,0,,,,,,,,,,,,,,,,,,,,,,,,,,,,0,882,,,801.781244816957,,139,S,hexagon,0.0007426519878208637,,,,,1,0,,,2,,,,,,,,,798.2608105430845,798.2608105430845,798.2608105430845,798.2608105430845,799.7623618231155,799.7623618231155,799.7623618231155,799.7623618231155,799.7623618231155,799.7623618231155,799.7623618231155,799.7623618231155,repeat,number,numRpt,d,0.490739765111357,vtsPrac,800.2795460319612,801.781244816957,,,,,,,,,,,,,,,,,,,,,,,,,,,,,99640,2022-11-10_14h07.36.122,vts_reward_expectancy_bt_OFFLINE,2022.2.4,60.10686973656437,
,,,,,,,,,,,,,,,,,,,,,,,,,,,,,,,,,,0,0,0,0,11,0,11,0,,,,,,,,,,,,,,,,,,,,,,,,,,,,0,882,,,806.4531023250893,,181,Y,triangle,0.0011583140585571527,,,,,1,0,,,2,,,,,,,,,802.7662917471025,802.7662917471025,802.7662917471025,802.7662917471025,804.2673153020442,804.2673153020442,804.2673153020442,804.2673153020442,804.2673153020442,804.2673153020442,804.2673153020442,804.2673153020442,switch,letter,lettSwt,k,0.6547971311956644,vtsPrac,804.9515669159591,,,,,,,,,,,,,,,,,,,,,,,,,,,,,,99640,2022-11-10_14h07.36.122,vts_reward_expectancy_bt_OFFLINE,2022.2.4,60.10686973656437,
,,,,,,,,,,,,,,,,,,,,,,,,,,,,,,,,,,0,0,0,0,12,0,12,0,,,,,,,,,,,,,,,,,,,,,,,,,,,,0,882,,,811.3584721731022,,146,U,hexagon,0.0010907910764217377,,,,,1,0,,,2,,,,,,,,,807.4374299130868,807.4374299130868,807.4374299130868,807.4374299130868,808.9391069610137,808.9391069610137,808.9391069610137,808.9391069610137,808.9391069610137,808.9391069610137,808.9391069610137,808.9391069610137,switch,number,numSwt,d,0.8885468521621078,vtsPrac,809.856680136174,,,,,,,,,,,,,,,,,,,,,,,,,,,,,,99640,2022-11-10_14h07.36.122,vts_reward_expectancy_bt_OFFLINE,2022.2.4,60.10686973656437,
,,,,,,,,,,,,,,,,,,,,,,,,,,,,,,,,,,0,0,0,0,13,0,13,0,,,,,,,,,,,,,,,,,,,,,,,,,,,,0,882,,,816.1304918800015,,160,H,circle,0.0012827359605580568,,,,,1,0,,,2,,,,,,,,,812.3426787571516,812.3426787571516,812.3426787571516,812.3426787571516,813.8447402331512,813.8447402331512,813.8447402331512,813.8447402331512,813.8447402331512,813.8447402331512,813.8447402331512,813.8447402331512,repeat,number,numRpt,f,0.7532131290063262,vtsPrac,814.6289032830391,,,,,,,,,,,,,,,,,,,,,,,,,,,,,,99640,2022-11-10_14h07.36.122,vts_reward_expectancy_bt_OFFLINE,2022.2.4,60.10686973656437,
,,,,,,,,,,,,,,,,,,,,,,,,,,,,,,,,,,0,0,0,0,14,0,14,0,,,,,,,,,,,,,,,,,,,,,,,,,,,,0,882,,,820.7688559270464,,167,W,triangle,0.0014773791190236807,,,,,1,0,,,2,,,,,,,,,817.1150323820766,817.1150323820766,817.1150323820766,817.1150323820766,818.6166964019649,818.6166964019649,818.6166964019649,818.6166964019649,818.6166964019649,818.6166964019649,818.6166964019649,818.6166964019649,switch,letter,lettSwt,k,0.627664997940883,vtsPrac,819.2674276251346,,,,,,,,,,,,,,,,,,,,,,,,,,,,,,99640,2022-11-10_14h07.36.122,vts_reward_expectancy_bt_OFFLINE,2022.2.4,60.10686973656437,
,,,,,,,,,,,,,,,,,,,,,,,,,,,,,,,,,,0,0,0,0,15,0,15,0,,,,,,,,,,,,,,,,,,,,,,,,,,,,0,882,,,825.3573323311284,,125,B,circle,0.0010978600475937128,,,,,1,0,,,2,,,,,,,,,821.7532364551444,821.7532364551444,821.7532364551444,821.7532364551444,823.254988878034,823.254988878034,823.254988878034,823.254988878034,823.254988878034,823.254988878034,823.254988878034,823.254988878034,switch,number,numSwt,d,0.5793129098601639,vtsPrac,823.85553664295,,,,,,,,,,,,,,,,,,,,,,,,,,,,,,99640,2022-11-10_14h07.36.122,vts_reward_expectancy_bt_OFFLINE,2022.2.4,60.10686973656437,
,,,,,,,,,,,,,,,,,,,,,,,,,,,,,,,,,,0,0,0,0,16,0,16,0,,,,,,,,,,,,,,,,,,,,,,,,,,,,0,882,,,829.9291068620514,,146,W,triangle,0.0014567130710929632,,,,,1,0,,,2,,,,,,,,,826.3418244379573,826.3418244379573,826.3418244379573,826.3418244379573,827.843408657005,827.843408657005,827.843408657005,827.843408657005,827.843408657005,827.843408657005,827.843408657005,827.843408657005,repeat,number,numRpt,d,0.5597498510032892,vtsPrac,828.4273923849687,,,,,,,,,,,,,,,,,,,,,,,,,,,,,,99640,2022-11-10_14h07.36.122,vts_reward_expectancy_bt_OFFLINE,2022.2.4,60.10686973656437,
,,,,,,,,,,,,,,,,,,,,,,,,,,,,,,,,,,0,0,0,0,17,0,17,0,,,,,,,,,,,,,,,,,,,,,,,,,,,,0,882,,,835.1347684271168,,125,S,circle,0.001252494053915143,,,,,1,0,,,2,,,,,,,,,830.9133950420655,830.9133950420655,830.9133950420655,830.9133950420655,832.4150032079779,832.4150032079779,832.4150032079779,832.4150032079779,832.4150032079779,832.4150032079779,832.4150032079779,832.4150032079779,switch,letter,lettSwt,k,1.1965114218182862,vtsPrac,833.633151617134,,,,,,,,,,,,,,,,,,,,,,,,,,,,,,99640,2022-11-10_14h07.36.122,vts_reward_expectancy_bt_OFFLINE,2022.2.4,60.10686973656437,
,,,,,,,,,,,,,,,,,,,,,,,,,,,,,,,,,,0,0,0,0,18,0,18,0,,,,,,,,,,,,,,,,,,,,,,,,,,,,0,882,,,839.8899831220042,,132,F,circle,0.001104423077777028,,,,,1,0,,,2,,,,,,,,,836.119135182118,836.119135182118,836.119135182118,836.119135182118,837.6210973050911,837.6210973050911,837.6210973050911,837.6210973050911,837.6210973050911,837.6210973050911,837.6210973050911,837.6210973050911,repeat,letter,lettRpt,j,0.7397055889014155,vtsPrac,838.3882399429567,,,,,,,,,,,,,,,,,,,,,,,,,,,,,,99640,2022-11-10_14h07.36.122,vts_reward_expectancy_bt_OFFLINE,2022.2.4,60.10686973656437,
,,,,,,,,,,,,,,,,,,,,,,,,,,,,,,,,,,0,0,0,0,19,0,19,0,,,,,,,,,,,,,,,,,,,,,,,,,,,,0,882,,,844.3950255450327,,160,H,triangle,0.0010401841718703508,,,,,1,0,,,2,,,,,,,,,840.8746939850971,840.8746939850971,840.8746939850971,840.8746939850971,842.376201126026,842.376201126026,842.376201126026,842.376201126026,842.376201126026,842.376201126026,842.376201126026,842.376201126026,switch,number,numSwt,f,0.4848192660138011,vtsPrac,842.8933157101274,,,,,,,,,,,,,,,,,,,,,,,,,,,,,,99640,2022-11-10_14h07.36.122,vts_reward_expectancy_bt_OFFLINE,2022.2.4,60.10686973656437,
,,,,,,,,,,,,,,,,,,,,,,,,,,,,,,,,,,0,0,0,0,20,0,20,0,,,,,,,,,,,,,,,,,,,,,,,,,,,,0,882,,,849.2668743601535,,125,U,triangle,0.0013213919010013342,,,,,1,0,,,2,,,,,,,,,845.379438444972,845.379438444972,845.379438444972,845.379438444972,846.8809730021749,846.8809730021749,846.8809730021749,846.8809730021749,846.8809730021749,846.8809730021749,846.8809730021749,846.8809730021749,switch,letter,lettSwt,k,0.8612161299679428,vtsPrac,847.7652922130655,,,,,,,,,,,,,,,,,,,,,,,,,,,,,,99640,2022-11-10_14h07.36.122,vts_reward_expectancy_bt_OFFLINE,2022.2.4,60.10686973656437,
,,,,,,,,,,,,,,,,,,,,,,,,,,,,,,,,,,0,0,0,0,21,0,21,0,,,,,,,,,,,,,,,,,,,,,,,,,,,,0,882,,,853.9554312659893,,167,D,hexagon,0.001143899979069829,,,,,1,0,,,2,,,,,,,,,850.2515052149538,850.2515052149538,850.2515052149538,850.2515052149538,851.7532170910854,851.7532170910854,851.7532170910854,851.7532170910854,851.7532170910854,851.7532170910854,851.7532170910854,851.7532170910854,switch,number,numSwt,f,0.6693947669118643,vtsPrac,852.4540173059795,,,,,,,,,,,,,,,,,,,,,,,,,,,,,,99640,2022-11-10_14h07.36.122,vts_reward_expectancy_bt_OFFLINE,2022.2.4,60.10686973656437,
,,,,,,,,,,,,,,,,,,,,,,,,,,,,,,,,,,0,0,0,0,22,0,22,0,,,,,,,,,,,,,,,,,,,,,,,,,,,,0,882,,,858.2104180799797,,160,Y,triangle,0.0014795288443565369,,,,,0,0,,,2,,,,,,,,,854.9398085330613,854.9398085330613,854.9398085330613,854.9398085330613,856.4417746609543,856.4417746609543,856.4417746609543,856.4417746609543,856.4417746609543,856.4417746609543,856.4417746609543,856.4417746609543,repeat,number,NA,d,0.23449383699335158,vtsPrac,856.7086285799742,,,,,,,,,,,,,,,,,,,,,,,,,,,,,,99640,2022-11-10_14h07.36.122,vts_reward_expectancy_bt_OFFLINE,2022.2.4,60.10686973656437,
,,,,,,,,,,,,,,,,,,,,,,,,,,,,,,,,,,0,0,0,0,23,0,23,0,,,,,,,,,,,,,,,,,,,,,,,,,,,,0,882,,,863.0656837869901,,146,H,star,0.0012539790477603674,,,,,1,1,,,2,,,,,,,,,859.1946561820805,859.1946561820805,859.1946561820805,859.1946561820805,860.6963814510964,860.6963814510964,860.6963814510964,860.6963814510964,860.6963814510964,860.6963814510964,860.6963814510964,860.6963814510964,switch,letter,lettSwt,j,0.8409564581234008,vtsPrac,861.56533420505,863.0656837869901,,,,,,,,,,,,,,,,,,,,,,,,,,,,,99640,2022-11-10_14h07.36.122,vts_reward_expectancy_bt_OFFLINE,2022.2.4,60.10686973656437,
,,,,,,,,,,,,,,,,,,,,,,,,,,,,,,,,,,0,0,0,0,24,0,24,0,,,,,,,,,,,,,,,,,,,,,,,,,,,,0,882,,,868.0044128650334,,167,U,circle,0.0012375661171972752,,,,,1,0,,,2,,,,,,,,,864.0501681570895,864.0501681570895,864.0501681570895,864.0501681570895,865.5515373570379,865.5515373570379,865.5515373570379,865.5515373570379,865.5515373570379,865.5515373570379,865.5515373570379,865.5515373570379,repeat,letter,lettRpt,k,0.9243442770093679,vtsPrac,866.5027866761666,,,,,,,,,,,,,,,,,,,,,,,,,,,,,,99640,2022-11-10_14h07.36.122,vts_reward_expectancy_bt_OFFLINE,2022.2.4,60.10686973656437,
,,,,,,,,,,,,,,,,,,,,,,,,,,,,,,,,,,0,0,0,0,25,0,25,0,,,,,,,,,,,,,,,,,,,,,,,,,,,,0,882,,,874.161144901067,,160,F,star,0.0013156819622963667,,,,,1,0,,,2,,,,,,,,,868.9885917920619,868.9885917920619,868.9885917920619,868.9885917920619,870.4905214160681,870.4905214160681,870.4905214160681,870.4905214160681,870.4905214160681,870.4905214160681,870.4905214160681,870.4905214160681,switch,number,numSwt,f,2.1388262640684843,vtsPrac,872.6595026981086,874.161144901067,,,,,,,,,,,,,,,,,,,,,,,,,,,,,99640,2022-11-10_14h07.36.122,vts_reward_expectancy_bt_OFFLINE,2022.2.4,60.10686973656437,
,,,,,,,,,,,,,,,,,,,,,,,,,,,,,,,,,,0,0,0,0,26,0,26,0,,,,,,,,,,,,,,,,,,,,,,,,,,,,0,882,,,879.3001583470032,,174,W,circle,0.0010852620471268892,,,,,1,0,,,2,,,,,,,,,875.1457064519636,875.1457064519636,875.1457064519636,875.1457064519636,876.6471306001768,876.6471306001768,876.6471306001768,876.6471306001768,876.6471306001768,876.6471306001768,876.6471306001768,876.6471306001768,repeat,number,numRpt,f,1.1244354411028326,vtsPrac,877.7983664099593,,,,,,,,,,,,,,,,,,,,,,,,,,,,,,99640,2022-11-10_14h07.36.122,vts_reward_expectancy_bt_OFFLINE,2022.2.4,60.10686973656437,
,,,,,,,,,,,,,,,,,,,,,,,,,,,,,,,,,,0,0,0,0,27,0,27,0,,,,,,,,,,,,,,,,,,,,,,,,,,,,0,882,,,883.9717590659857,,132,B,star,0.0011728068348020315,,,,,1,0,,,2,,,,,,,,,880.2844858770259,880.2844858770259,880.2844858770259,880.2844858770259,881.7863432869781,881.7863432869781,881.7863432869781,881.7863432869781,881.7863432869781,881.7863432869781,881.7863432869781,881.7863432869781,switch,letter,lettSwt,j,0.6538229689467698,vtsPrac,882.470132014947,,,,,,,,,,,,,,,,,,,,,,,,,,,,,,99640,2022-11-10_14h07.36.122,vts_reward_expectancy_bt_OFFLINE,2022.2.4,60.10686973656437,
,,,,,,,,,,,,,,,,,,,,,,,,,,,,,,,,,,0,0,0,0,28,0,28,0,,,,,,,,,,,,,,,,,,,,,,,,,,,,0,882,,,888.793894357048,,181,H,triangle,0.0010973929893225431,,,,,1,0,,,2,,,,,,,,,884.9563146631699,884.9563146631699,884.9563146631699,884.9563146631699,886.4581152710598,886.4581152710598,886.4581152710598,886.4581152710598,886.4581152710598,886.4581152710598,886.4581152710598,886.4581152710598,repeat,letter,lettRpt,j,0.8081637499853969,vtsPrac,887.2924189299811,,,,,,,,,,,,,,,,,,,,,,,,,,,,,,99640,2022-11-10_14h07.36.122,vts_reward_expectancy_bt_OFFLINE,2022.2.4,60.10686973656437,
,,,,,,,,,,,,,,,,,,,,,,,,,,,,,,,,,,0,0,0,0,29,0,29,0,,,,,,,,,,,,,,,,,,,,,,,,,,,,0,882,,,893.8662195631769,,160,U,circle,0.0012036659754812717,,,,,1,0,,,2,,,,,,,,,889.7783500461373,889.7783500461373,889.7783500461373,889.7783500461373,891.279972897144,891.279972897144,891.279972897144,891.279972897144,891.279972897144,891.279972897144,891.279972897144,891.279972897144,repeat,letter,lettRpt,k,1.051678751828149,vtsPrac,892.3645970411599,,,,,,,,,,,,,,,,,,,,,,,,,,,,,,99640,2022-11-10_14h07.36.122,vts_reward_expectancy_bt_OFFLINE,2022.2.4,60.10686973656437,
