participant,date,expName,psychopyVersion,OS,frameRate,browser,xResolution,yResolution,key_resp.keys,key_resp.rt,training_resp.keys,training_resp.rt,points_trial,points_cumul,trainBlock,training.thisRepN,training.thisTrialN,training.thisN,training.thisIndex,training.ran,LTriangleOpac,LCircleOpac,LHexagonOpac,LStarOpac,RTriangleOpac,RCircleOpac,RHexagonOpac,RStarOpac,LShape_ID,RShape_ID,curr_topStim,curr_bottStim,curr_shape,acc,E1,target_resp_prac1.keys,target_resp_prac1.rt,pracBlock,task1_prac_trials.thisRepN,task1_prac_trials.thisTrialN,task1_prac_trials.thisN,task1_prac_trials.thisIndex,task1_prac_trials.ran,target_resp_prac2.keys,target_resp_prac2.rt,task2_praac_trials.thisRepN,task2_praac_trials.thisTrialN,task2_praac_trials.thisN,task2_praac_trials.thisIndex,task2_praac_trials.ran,alt,task,condition,target_resp.keys,target_resp.rt,rewCond,vts_practice_trials.thisRepN,vts_practice_trials.thisTrialN,vts_practice_trials.thisN,vts_practice_trials.thisIndex,vts_practice_trials.ran,blockNum,trials_norew.thisRepN,trials_norew.thisTrialN,trials_norew.thisN,trials_norew.thisIndex,trials_norew.ran,key_resp_2.keys,key_resp_2.rt,rewExpectancy,trials_rew.thisRepN,trials_rew.thisTrialN,trials_rew.thisN,trials_rew.thisIndex,trials_rew.ran,Q1,Q2,Q2_text,Q3,Q4,Q5_text,Q5,xRes,yRes
292384,2022-11-30_09h05.49.561,vts_reward_expectancy_bt,2022.2.4,MacIntel,59.99880002,Chrome,1440,900,,,,,,,,,,,,,,,,,,,,,,,,,,,,,,,,,,,,,,,,,,,,,,,,,,,,,,,,,,,,,,,,,,,,,,,,,,,,
292384,2022-11-30_09h05.49.561,vts_reward_expectancy_bt,2022.2.4,MacIntel,59.99880002,Chrome,1440,900,space,10.5396,,,,,,,,,,,,,,,,,,,,,,,,,,,,,,,,,,,,,,,,,,,,,,,,,,,,,,,,,,,,,,,,,,,,,,,,,,
292384,2022-11-30_09h05.49.561,vts_reward_expectancy_bt,2022.2.4,MacIntel,59.99880002,Chrome,1440,900,,,,,,,,,,,,,,,,,,,,,,,,,,,,,,,,,,,,,,,,,,,,,,,,,,,,,,,,,,,,,,,,,,,,,,,,,,,,
292384,2022-11-30_09h05.49.561,vts_reward_expectancy_bt,2022.2.4,MacIntel,59.99880002,Chrome,1440,900,,,l,2.577,1,1,0,0,0,0,7,1,0,0,1,0,0,1,0,0,hexagon,circle,,,,,,,,,,,,,,,,,,,,,,,,,,,,,,,,,,,,,,,,,,,,,,,,,,,,,,
292384,2022-11-30_09h05.49.561,vts_reward_expectancy_bt,2022.2.4,MacIntel,59.99880002,Chrome,1440,900,,,l,1.6338,1,2,0,0,1,1,5,1,0,1,0,0,0,0,0,1,circle,star,,,,,,,,,,,,,,,,,,,,,,,,,,,,,,,,,,,,,,,,,,,,,,,,,,,,,,
292384,2022-11-30_09h05.49.561,vts_reward_expectancy_bt,2022.2.4,MacIntel,59.99880002,Chrome,1440,900,,,l,1.4602,10,12,0,0,2,2,4,1,0,1,0,0,0,0,1,0,circle,hexagon,,,,,,,,,,,,,,,,,,,,,,,,,,,,,,,,,,,,,,,,,,,,,,,,,,,,,,
292384,2022-11-30_09h05.49.561,vts_reward_expectancy_bt,2022.2.4,MacIntel,59.99880002,Chrome,1440,900,,,a,1.0672,10,22,0,0,3,3,2,1,1,0,0,0,0,0,0,1,triangle,star,,,,,,,,,,,,,,,,,,,,,,,,,,,,,,,,,,,,,,,,,,,,,,,,,,,,,,
292384,2022-11-30_09h05.49.561,vts_reward_expectancy_bt,2022.2.4,MacIntel,59.99880002,Chrome,1440,900,,,l,1.1457,1,23,0,0,4,4,11,1,0,0,0,1,0,0,1,0,star,hexagon,,,,,,,,,,,,,,,,,,,,,,,,,,,,,,,,,,,,,,,,,,,,,,,,,,,,,,
292384,2022-11-30_09h05.49.561,vts_reward_expectancy_bt,2022.2.4,MacIntel,59.99880002,Chrome,1440,900,,,l,1.5162,10,33,0,0,5,5,8,1,0,0,1,0,0,0,0,1,hexagon,star,,,,,,,,,,,,,,,,,,,,,,,,,,,,,,,,,,,,,,,,,,,,,,,,,,,,,,
292384,2022-11-30_09h05.49.561,vts_reward_expectancy_bt,2022.2.4,MacIntel,59.99880002,Chrome,1440,900,,,a,0.7975,1,34,0,0,6,6,0,1,1,0,0,0,0,1,0,0,triangle,circle,,,,,,,,,,,,,,,,,,,,,,,,,,,,,,,,,,,,,,,,,,,,,,,,,,,,,,
292384,2022-11-30_09h05.49.561,vts_reward_expectancy_bt,2022.2.4,MacIntel,59.99880002,Chrome,1440,900,,,l,1.257,1,35,0,0,7,7,9,1,0,0,0,1,1,0,0,0,star,triangle,,,,,,,,,,,,,,,,,,,,,,,,,,,,,,,,,,,,,,,,,,,,,,,,,,,,,,
292384,2022-11-30_09h05.49.561,vts_reward_expectancy_bt,2022.2.4,MacIntel,59.99880002,Chrome,1440,900,,,a,1.4603,10,45,0,0,8,8,1,1,1,0,0,0,0,0,1,0,triangle,hexagon,,,,,,,,,,,,,,,,,,,,,,,,,,,,,,,,,,,,,,,,,,,,,,,,,,,,,,
292384,2022-11-30_09h05.49.561,vts_reward_expectancy_bt,2022.2.4,MacIntel,59.99880002,Chrome,1440,900,,,l,3.0784,1,46,0,0,9,9,10,1,0,0,0,1,0,1,0,0,star ,circle,,,,,,,,,,,,,,,,,,,,,,,,,,,,,,,,,,,,,,,,,,,,,,,,,,,,,,
292384,2022-11-30_09h05.49.561,vts_reward_expectancy_bt,2022.2.4,MacIntel,59.99880002,Chrome,1440,900,,,l,0.9628,10,56,0,0,10,10,3,1,0,1,0,0,1,0,0,0,circle,triangle,,,,,,,,,,,,,,,,,,,,,,,,,,,,,,,,,,,,,,,,,,,,,,,,,,,,,,
292384,2022-11-30_09h05.49.561,vts_reward_expectancy_bt,2022.2.4,MacIntel,59.99880002,Chrome,1440,900,,,l,0.6337,10,66,0,0,11,11,6,1,0,0,1,0,1,0,0,0,hexagon,triangle,,,,,,,,,,,,,,,,,,,,,,,,,,,,,,,,,,,,,,,,,,,,,,,,,,,,,,
292384,2022-11-30_09h05.49.561,vts_reward_expectancy_bt,2022.2.4,MacIntel,59.99880002,Chrome,1440,900,,,a,0.7763,1,67,0,1,0,12,2,1,1,0,0,0,0,0,0,1,triangle,star,,,,,,,,,,,,,,,,,,,,,,,,,,,,,,,,,,,,,,,,,,,,,,,,,,,,,,
292384,2022-11-30_09h05.49.561,vts_reward_expectancy_bt,2022.2.4,MacIntel,59.99880002,Chrome,1440,900,,,a,1.218,10,77,0,1,1,13,8,1,0,0,1,0,0,0,0,1,hexagon,star,,,,,,,,,,,,,,,,,,,,,,,,,,,,,,,,,,,,,,,,,,,,,,,,,,,,,,
292384,2022-11-30_09h05.49.561,vts_reward_expectancy_bt,2022.2.4,MacIntel,59.99880002,Chrome,1440,900,,,a,0.8489,10,87,0,1,2,14,0,1,1,0,0,0,0,1,0,0,triangle,circle,,,,,,,,,,,,,,,,,,,,,,,,,,,,,,,,,,,,,,,,,,,,,,,,,,,,,,
292384,2022-11-30_09h05.49.561,vts_reward_expectancy_bt,2022.2.4,MacIntel,59.99880002,Chrome,1440,900,,,l,1.7896,1,88,0,1,3,15,7,1,0,0,1,0,0,1,0,0,hexagon,circle,,,,,,,,,,,,,,,,,,,,,,,,,,,,,,,,,,,,,,,,,,,,,,,,,,,,,,
292384,2022-11-30_09h05.49.561,vts_reward_expectancy_bt,2022.2.4,MacIntel,59.99880002,Chrome,1440,900,,,l,1.5561,10,98,0,1,4,16,6,1,0,0,1,0,1,0,0,0,hexagon,triangle,,,,,,,,,,,,,,,,,,,,,,,,,,,,,,,,,,,,,,,,,,,,,,,,,,,,,,
292384,2022-11-30_09h05.49.561,vts_reward_expectancy_bt,2022.2.4,MacIntel,59.99880002,Chrome,1440,900,,,a,0.7252,1,99,0,1,5,17,1,1,1,0,0,0,0,0,1,0,triangle,hexagon,,,,,,,,,,,,,,,,,,,,,,,,,,,,,,,,,,,,,,,,,,,,,,,,,,,,,,
292384,2022-11-30_09h05.49.561,vts_reward_expectancy_bt,2022.2.4,MacIntel,59.99880002,Chrome,1440,900,,,a,1.3493,1,100,0,1,6,18,10,1,0,0,0,1,0,1,0,0,star ,circle,,,,,,,,,,,,,,,,,,,,,,,,,,,,,,,,,,,,,,,,,,,,,,,,,,,,,,
292384,2022-11-30_09h05.49.561,vts_reward_expectancy_bt,2022.2.4,MacIntel,59.99880002,Chrome,1440,900,,,l,0.7034,1,101,0,1,7,19,5,1,0,1,0,0,0,0,0,1,circle,star,,,,,,,,,,,,,,,,,,,,,,,,,,,,,,,,,,,,,,,,,,,,,,,,,,,,,,
292384,2022-11-30_09h05.49.561,vts_reward_expectancy_bt,2022.2.4,MacIntel,59.99880002,Chrome,1440,900,,,l,0.4504,10,111,0,1,8,20,3,1,0,1,0,0,1,0,0,0,circle,triangle,,,,,,,,,,,,,,,,,,,,,,,,,,,,,,,,,,,,,,,,,,,,,,,,,,,,,,
292384,2022-11-30_09h05.49.561,vts_reward_expectancy_bt,2022.2.4,MacIntel,59.99880002,Chrome,1440,900,,,a,0.4591,1,112,0,1,9,21,11,1,0,0,0,1,0,0,1,0,star,hexagon,,,,,,,,,,,,,,,,,,,,,,,,,,,,,,,,,,,,,,,,,,,,,,,,,,,,,,
292384,2022-11-30_09h05.49.561,vts_reward_expectancy_bt,2022.2.4,MacIntel,59.99880002,Chrome,1440,900,,,l,0.1328,10,122,0,1,10,22,4,1,0,1,0,0,0,0,1,0,circle,hexagon,,,,,,,,,,,,,,,,,,,,,,,,,,,,,,,,,,,,,,,,,,,,,,,,,,,,,,
292384,2022-11-30_09h05.49.561,vts_reward_expectancy_bt,2022.2.4,MacIntel,59.99880002,Chrome,1440,900,,,a,0.0552,10,132,0,1,11,23,9,1,0,0,0,1,1,0,0,0,star,triangle,,,,,,,,,,,,,,,,,,,,,,,,,,,,,,,,,,,,,,,,,,,,,,,,,,,,,,
292384,2022-11-30_09h05.49.561,vts_reward_expectancy_bt,2022.2.4,MacIntel,59.99880002,Chrome,1440,900,,,a,0.0338,10,142,0,2,0,24,10,1,0,0,0,1,0,1,0,0,star ,circle,,,,,,,,,,,,,,,,,,,,,,,,,,,,,,,,,,,,,,,,,,,,,,,,,,,,,,
292384,2022-11-30_09h05.49.561,vts_reward_expectancy_bt,2022.2.4,MacIntel,59.99880002,Chrome,1440,900,,,a,0.0005,1,143,0,2,1,25,8,1,0,0,1,0,0,0,0,1,hexagon,star,,,,,,,,,,,,,,,,,,,,,,,,,,,,,,,,,,,,,,,,,,,,,,,,,,,,,,
292384,2022-11-30_09h05.49.561,vts_reward_expectancy_bt,2022.2.4,MacIntel,59.99880002,Chrome,1440,900,,,a,0.0156,10,153,0,2,2,26,1,1,1,0,0,0,0,0,1,0,triangle,hexagon,,,,,,,,,,,,,,,,,,,,,,,,,,,,,,,,,,,,,,,,,,,,,,,,,,,,,,
292384,2022-11-30_09h05.49.561,vts_reward_expectancy_bt,2022.2.4,MacIntel,59.99880002,Chrome,1440,900,,,a,0.2393,10,163,0,2,3,27,3,1,0,1,0,0,1,0,0,0,circle,triangle,,,,,,,,,,,,,,,,,,,,,,,,,,,,,,,,,,,,,,,,,,,,,,,,,,,,,,
292384,2022-11-30_09h05.49.561,vts_reward_expectancy_bt,2022.2.4,MacIntel,59.99880002,Chrome,1440,900,,,l,0.0359,10,173,0,2,4,28,11,1,0,0,0,1,0,0,1,0,star,hexagon,,,,,,,,,,,,,,,,,,,,,,,,,,,,,,,,,,,,,,,,,,,,,,,,,,,,,,
292384,2022-11-30_09h05.49.561,vts_reward_expectancy_bt,2022.2.4,MacIntel,59.99880002,Chrome,1440,900,,,a,0.0243,10,183,0,2,5,29,2,1,1,0,0,0,0,0,0,1,triangle,star,,,,,,,,,,,,,,,,,,,,,,,,,,,,,,,,,,,,,,,,,,,,,,,,,,,,,,
292384,2022-11-30_09h05.49.561,vts_reward_expectancy_bt,2022.2.4,MacIntel,59.99880002,Chrome,1440,900,,,a,0.0409,10,193,0,2,6,30,6,1,0,0,1,0,1,0,0,0,hexagon,triangle,,,,,,,,,,,,,,,,,,,,,,,,,,,,,,,,,,,,,,,,,,,,,,,,,,,,,,
292384,2022-11-30_09h05.49.561,vts_reward_expectancy_bt,2022.2.4,MacIntel,59.99880002,Chrome,1440,900,,,l,0.1003,10,203,0,2,7,31,5,1,0,1,0,0,0,0,0,1,circle,star,,,,,,,,,,,,,,,,,,,,,,,,,,,,,,,,,,,,,,,,,,,,,,,,,,,,,,
292384,2022-11-30_09h05.49.561,vts_reward_expectancy_bt,2022.2.4,MacIntel,59.99880002,Chrome,1440,900,,,l,0.1497,1,204,0,2,8,32,7,1,0,0,1,0,0,1,0,0,hexagon,circle,,,,,,,,,,,,,,,,,,,,,,,,,,,,,,,,,,,,,,,,,,,,,,,,,,,,,,
292384,2022-11-30_09h05.49.561,vts_reward_expectancy_bt,2022.2.4,MacIntel,59.99880002,Chrome,1440,900,,,a,0.1004,10,214,0,2,9,33,0,1,1,0,0,0,0,1,0,0,triangle,circle,,,,,,,,,,,,,,,,,,,,,,,,,,,,,,,,,,,,,,,,,,,,,,,,,,,,,,
292384,2022-11-30_09h05.49.561,vts_reward_expectancy_bt,2022.2.4,MacIntel,59.99880002,Chrome,1440,900,,,l,0.0311,10,224,0,2,10,34,4,1,0,1,0,0,0,0,1,0,circle,hexagon,,,,,,,,,,,,,,,,,,,,,,,,,,,,,,,,,,,,,,,,,,,,,,,,,,,,,,
292384,2022-11-30_09h05.49.561,vts_reward_expectancy_bt,2022.2.4,MacIntel,59.99880002,Chrome,1440,900,,,a,0.0075,10,234,0,2,11,35,9,1,0,0,0,1,1,0,0,0,star,triangle,,,,,,,,,,,,,,,,,,,,,,,,,,,,,,,,,,,,,,,,,,,,,,,,,,,,,,
292384,2022-11-30_09h05.49.561,vts_reward_expectancy_bt,2022.2.4,MacIntel,59.99880002,Chrome,1440,900,,,a,0.3779,1,235,1,0,0,0,9,1,0,0,0,1,1,0,0,0,star,triangle,,,,,,,,,,,,,,,,,,,,,,,,,,,,,,,,,,,,,,,,,,,,,,,,,,,,,,
292384,2022-11-30_09h05.49.561,vts_reward_expectancy_bt,2022.2.4,MacIntel,59.99880002,Chrome,1440,900,,,l,0.0397,10,245,1,0,1,1,10,1,0,0,0,1,0,1,0,0,star ,circle,,,,,,,,,,,,,,,,,,,,,,,,,,,,,,,,,,,,,,,,,,,,,,,,,,,,,,
292384,2022-11-30_09h05.49.561,vts_reward_expectancy_bt,2022.2.4,MacIntel,59.99880002,Chrome,1440,900,,,l,0.1141,1,246,1,0,2,2,4,1,0,1,0,0,0,0,1,0,circle,hexagon,,,,,,,,,,,,,,,,,,,,,,,,,,,,,,,,,,,,,,,,,,,,,,,,,,,,,,
292384,2022-11-30_09h05.49.561,vts_reward_expectancy_bt,2022.2.4,MacIntel,59.99880002,Chrome,1440,900,,,l,0.0674,1,247,1,0,3,3,8,1,0,0,1,0,0,0,0,1,hexagon,star,,,,,,,,,,,,,,,,,,,,,,,,,,,,,,,,,,,,,,,,,,,,,,,,,,,,,,
292384,2022-11-30_09h05.49.561,vts_reward_expectancy_bt,2022.2.4,MacIntel,59.99880002,Chrome,1440,900,,,a,0.0365,10,257,1,0,4,4,2,1,1,0,0,0,0,0,0,1,triangle,star,,,,,,,,,,,,,,,,,,,,,,,,,,,,,,,,,,,,,,,,,,,,,,,,,,,,,,
292384,2022-11-30_09h05.49.561,vts_reward_expectancy_bt,2022.2.4,MacIntel,59.99880002,Chrome,1440,900,,,a,0.0336,1,258,1,0,5,5,1,1,1,0,0,0,0,0,1,0,triangle,hexagon,,,,,,,,,,,,,,,,,,,,,,,,,,,,,,,,,,,,,,,,,,,,,,,,,,,,,,
292384,2022-11-30_09h05.49.561,vts_reward_expectancy_bt,2022.2.4,MacIntel,59.99880002,Chrome,1440,900,,,l,0.016,1,259,1,0,6,6,7,1,0,0,1,0,0,1,0,0,hexagon,circle,,,,,,,,,,,,,,,,,,,,,,,,,,,,,,,,,,,,,,,,,,,,,,,,,,,,,,
292384,2022-11-30_09h05.49.561,vts_reward_expectancy_bt,2022.2.4,MacIntel,59.99880002,Chrome,1440,900,,,l,0.0491,10,269,1,0,7,7,11,1,0,0,0,1,0,0,1,0,star,hexagon,,,,,,,,,,,,,,,,,,,,,,,,,,,,,,,,,,,,,,,,,,,,,,,,,,,,,,
292384,2022-11-30_09h05.49.561,vts_reward_expectancy_bt,2022.2.4,MacIntel,59.99880002,Chrome,1440,900,,,l,0.0683,10,279,1,0,8,8,5,1,0,1,0,0,0,0,0,1,circle,star,,,,,,,,,,,,,,,,,,,,,,,,,,,,,,,,,,,,,,,,,,,,,,,,,,,,,,
292384,2022-11-30_09h05.49.561,vts_reward_expectancy_bt,2022.2.4,MacIntel,59.99880002,Chrome,1440,900,,,l,0.2333,10,289,1,0,9,9,6,1,0,0,1,0,1,0,0,0,hexagon,triangle,,,,,,,,,,,,,,,,,,,,,,,,,,,,,,,,,,,,,,,,,,,,,,,,,,,,,,
292384,2022-11-30_09h05.49.561,vts_reward_expectancy_bt,2022.2.4,MacIntel,59.99880002,Chrome,1440,900,,,a,0.1077,10,299,1,0,10,10,0,1,1,0,0,0,0,1,0,0,triangle,circle,,,,,,,,,,,,,,,,,,,,,,,,,,,,,,,,,,,,,,,,,,,,,,,,,,,,,,
292384,2022-11-30_09h05.49.561,vts_reward_expectancy_bt,2022.2.4,MacIntel,59.99880002,Chrome,1440,900,,,l,0.2073,1,300,1,0,11,11,3,1,0,1,0,0,1,0,0,0,circle,triangle,,,,,,,,,,,,,,,,,,,,,,,,,,,,,,,,,,,,,,,,,,,,,,,,,,,,,,
292384,2022-11-30_09h05.49.561,vts_reward_expectancy_bt,2022.2.4,MacIntel,59.99880002,Chrome,1440,900,,,l,0.0505,10,310,1,1,0,12,5,1,0,1,0,0,0,0,0,1,circle,star,,,,,,,,,,,,,,,,,,,,,,,,,,,,,,,,,,,,,,,,,,,,,,,,,,,,,,
292384,2022-11-30_09h05.49.561,vts_reward_expectancy_bt,2022.2.4,MacIntel,59.99880002,Chrome,1440,900,,,l,0.1569,10,320,1,1,1,13,9,1,0,0,0,1,1,0,0,0,star,triangle,,,,,,,,,,,,,,,,,,,,,,,,,,,,,,,,,,,,,,,,,,,,,,,,,,,,,,
292384,2022-11-30_09h05.49.561,vts_reward_expectancy_bt,2022.2.4,MacIntel,59.99880002,Chrome,1440,900,,,l,0.1363,10,330,1,1,2,14,0,1,1,0,0,0,0,1,0,0,triangle,circle,,,,,,,,,,,,,,,,,,,,,,,,,,,,,,,,,,,,,,,,,,,,,,,,,,,,,,
292384,2022-11-30_09h05.49.561,vts_reward_expectancy_bt,2022.2.4,MacIntel,59.99880002,Chrome,1440,900,,,l,0.0847,1,331,1,1,3,15,11,1,0,0,0,1,0,0,1,0,star,hexagon,,,,,,,,,,,,,,,,,,,,,,,,,,,,,,,,,,,,,,,,,,,,,,,,,,,,,,
292384,2022-11-30_09h05.49.561,vts_reward_expectancy_bt,2022.2.4,MacIntel,59.99880002,Chrome,1440,900,,,l,0.0159,1,332,1,1,4,16,8,1,0,0,1,0,0,0,0,1,hexagon,star,,,,,,,,,,,,,,,,,,,,,,,,,,,,,,,,,,,,,,,,,,,,,,,,,,,,,,
292384,2022-11-30_09h05.49.561,vts_reward_expectancy_bt,2022.2.4,MacIntel,59.99880002,Chrome,1440,900,,,a,0.0864,10,342,1,1,5,17,7,1,0,0,1,0,0,1,0,0,hexagon,circle,,,,,,,,,,,,,,,,,,,,,,,,,,,,,,,,,,,,,,,,,,,,,,,,,,,,,,
292384,2022-11-30_09h05.49.561,vts_reward_expectancy_bt,2022.2.4,MacIntel,59.99880002,Chrome,1440,900,,,l,0.1835,1,343,1,1,6,18,3,1,0,1,0,0,1,0,0,0,circle,triangle,,,,,,,,,,,,,,,,,,,,,,,,,,,,,,,,,,,,,,,,,,,,,,,,,,,,,,
292384,2022-11-30_09h05.49.561,vts_reward_expectancy_bt,2022.2.4,MacIntel,59.99880002,Chrome,1440,900,,,l,0.1,10,353,1,1,7,19,6,1,0,0,1,0,1,0,0,0,hexagon,triangle,,,,,,,,,,,,,,,,,,,,,,,,,,,,,,,,,,,,,,,,,,,,,,,,,,,,,,
292384,2022-11-30_09h05.49.561,vts_reward_expectancy_bt,2022.2.4,MacIntel,59.99880002,Chrome,1440,900,,,l,0.0499,1,354,1,1,8,20,10,1,0,0,0,1,0,1,0,0,star ,circle,,,,,,,,,,,,,,,,,,,,,,,,,,,,,,,,,,,,,,,,,,,,,,,,,,,,,,
292384,2022-11-30_09h05.49.561,vts_reward_expectancy_bt,2022.2.4,MacIntel,59.99880002,Chrome,1440,900,,,l,0.1649,10,364,1,1,9,21,1,1,1,0,0,0,0,0,1,0,triangle,hexagon,,,,,,,,,,,,,,,,,,,,,,,,,,,,,,,,,,,,,,,,,,,,,,,,,,,,,,
292384,2022-11-30_09h05.49.561,vts_reward_expectancy_bt,2022.2.4,MacIntel,59.99880002,Chrome,1440,900,,,l,0.191,10,374,1,1,10,22,4,1,0,1,0,0,0,0,1,0,circle,hexagon,,,,,,,,,,,,,,,,,,,,,,,,,,,,,,,,,,,,,,,,,,,,,,,,,,,,,,
292384,2022-11-30_09h05.49.561,vts_reward_expectancy_bt,2022.2.4,MacIntel,59.99880002,Chrome,1440,900,,,l,0.2012,1,375,1,1,11,23,2,1,1,0,0,0,0,0,0,1,triangle,star,,,,,,,,,,,,,,,,,,,,,,,,,,,,,,,,,,,,,,,,,,,,,,,,,,,,,,
292384,2022-11-30_09h05.49.561,vts_reward_expectancy_bt,2022.2.4,MacIntel,59.99880002,Chrome,1440,900,,,a,0.017,10,385,1,2,0,24,3,1,0,1,0,0,1,0,0,0,circle,triangle,,,,,,,,,,,,,,,,,,,,,,,,,,,,,,,,,,,,,,,,,,,,,,,,,,,,,,
292384,2022-11-30_09h05.49.561,vts_reward_expectancy_bt,2022.2.4,MacIntel,59.99880002,Chrome,1440,900,,,l,0.0309,1,386,1,2,1,25,10,1,0,0,0,1,0,1,0,0,star ,circle,,,,,,,,,,,,,,,,,,,,,,,,,,,,,,,,,,,,,,,,,,,,,,,,,,,,,,
292384,2022-11-30_09h05.49.561,vts_reward_expectancy_bt,2022.2.4,MacIntel,59.99880002,Chrome,1440,900,,,l,0.217,1,387,1,2,2,26,5,1,0,1,0,0,0,0,0,1,circle,star,,,,,,,,,,,,,,,,,,,,,,,,,,,,,,,,,,,,,,,,,,,,,,,,,,,,,,
292384,2022-11-30_09h05.49.561,vts_reward_expectancy_bt,2022.2.4,MacIntel,59.99880002,Chrome,1440,900,,,l,0.0493,1,388,1,2,3,27,7,1,0,0,1,0,0,1,0,0,hexagon,circle,,,,,,,,,,,,,,,,,,,,,,,,,,,,,,,,,,,,,,,,,,,,,,,,,,,,,,
292384,2022-11-30_09h05.49.561,vts_reward_expectancy_bt,2022.2.4,MacIntel,59.99880002,Chrome,1440,900,,,l,0.3893,1,389,1,2,4,28,1,1,1,0,0,0,0,0,1,0,triangle,hexagon,,,,,,,,,,,,,,,,,,,,,,,,,,,,,,,,,,,,,,,,,,,,,,,,,,,,,,
292384,2022-11-30_09h05.49.561,vts_reward_expectancy_bt,2022.2.4,MacIntel,59.99880002,Chrome,1440,900,,,a,0.1339,1,390,1,2,5,29,9,1,0,0,0,1,1,0,0,0,star,triangle,,,,,,,,,,,,,,,,,,,,,,,,,,,,,,,,,,,,,,,,,,,,,,,,,,,,,,
292384,2022-11-30_09h05.49.561,vts_reward_expectancy_bt,2022.2.4,MacIntel,59.99880002,Chrome,1440,900,,,l,0.4702,1,391,1,2,6,30,0,1,1,0,0,0,0,1,0,0,triangle,circle,,,,,,,,,,,,,,,,,,,,,,,,,,,,,,,,,,,,,,,,,,,,,,,,,,,,,,
292384,2022-11-30_09h05.49.561,vts_reward_expectancy_bt,2022.2.4,MacIntel,59.99880002,Chrome,1440,900,,,l,0.0369,10,401,1,2,7,31,6,1,0,0,1,0,1,0,0,0,hexagon,triangle,,,,,,,,,,,,,,,,,,,,,,,,,,,,,,,,,,,,,,,,,,,,,,,,,,,,,,
292384,2022-11-30_09h05.49.561,vts_reward_expectancy_bt,2022.2.4,MacIntel,59.99880002,Chrome,1440,900,,,l,0.0395,10,411,1,2,8,32,11,1,0,0,0,1,0,0,1,0,star,hexagon,,,,,,,,,,,,,,,,,,,,,,,,,,,,,,,,,,,,,,,,,,,,,,,,,,,,,,
292384,2022-11-30_09h05.49.561,vts_reward_expectancy_bt,2022.2.4,MacIntel,59.99880002,Chrome,1440,900,,,l,0.2805,1,412,1,2,9,33,4,1,0,1,0,0,0,0,1,0,circle,hexagon,,,,,,,,,,,,,,,,,,,,,,,,,,,,,,,,,,,,,,,,,,,,,,,,,,,,,,
292384,2022-11-30_09h05.49.561,vts_reward_expectancy_bt,2022.2.4,MacIntel,59.99880002,Chrome,1440,900,,,l,0.1503,1,413,1,2,10,34,8,1,0,0,1,0,0,0,0,1,hexagon,star,,,,,,,,,,,,,,,,,,,,,,,,,,,,,,,,,,,,,,,,,,,,,,,,,,,,,,
292384,2022-11-30_09h05.49.561,vts_reward_expectancy_bt,2022.2.4,MacIntel,59.99880002,Chrome,1440,900,,,l,0.0664,1,414,1,2,11,35,2,1,1,0,0,0,0,0,0,1,triangle,star,,,,,,,,,,,,,,,,,,,,,,,,,,,,,,,,,,,,,,,,,,,,,,,,,,,,,,
292384,2022-11-30_09h05.49.561,vts_reward_expectancy_bt,2022.2.4,MacIntel,59.99880002,Chrome,1440,900,,,a,1.1624,1,415,2,0,0,0,10,1,0,0,0,1,0,1,0,0,star ,circle,,,,,,,,,,,,,,,,,,,,,,,,,,,,,,,,,,,,,,,,,,,,,,,,,,,,,,
292384,2022-11-30_09h05.49.561,vts_reward_expectancy_bt,2022.2.4,MacIntel,59.99880002,Chrome,1440,900,,,l,0.017,10,425,2,0,1,1,11,1,0,0,0,1,0,0,1,0,star,hexagon,,,,,,,,,,,,,,,,,,,,,,,,,,,,,,,,,,,,,,,,,,,,,,,,,,,,,,
292384,2022-11-30_09h05.49.561,vts_reward_expectancy_bt,2022.2.4,MacIntel,59.99880002,Chrome,1440,900,,,a,0.0006,10,435,2,0,2,2,0,1,1,0,0,0,0,1,0,0,triangle,circle,,,,,,,,,,,,,,,,,,,,,,,,,,,,,,,,,,,,,,,,,,,,,,,,,,,,,,
292384,2022-11-30_09h05.49.561,vts_reward_expectancy_bt,2022.2.4,MacIntel,59.99880002,Chrome,1440,900,,,a,0.093,10,445,2,0,3,3,9,1,0,0,0,1,1,0,0,0,star,triangle,,,,,,,,,,,,,,,,,,,,,,,,,,,,,,,,,,,,,,,,,,,,,,,,,,,,,,
292384,2022-11-30_09h05.49.561,vts_reward_expectancy_bt,2022.2.4,MacIntel,59.99880002,Chrome,1440,900,,,l,0.0924,1,446,2,0,4,4,1,1,1,0,0,0,0,0,1,0,triangle,hexagon,,,,,,,,,,,,,,,,,,,,,,,,,,,,,,,,,,,,,,,,,,,,,,,,,,,,,,
292384,2022-11-30_09h05.49.561,vts_reward_expectancy_bt,2022.2.4,MacIntel,59.99880002,Chrome,1440,900,,,a,0.0536,10,456,2,0,5,5,7,1,0,0,1,0,0,1,0,0,hexagon,circle,,,,,,,,,,,,,,,,,,,,,,,,,,,,,,,,,,,,,,,,,,,,,,,,,,,,,,
292384,2022-11-30_09h05.49.561,vts_reward_expectancy_bt,2022.2.4,MacIntel,59.99880002,Chrome,1440,900,,,l,0.0484,1,457,2,0,6,6,3,1,0,1,0,0,1,0,0,0,circle,triangle,,,,,,,,,,,,,,,,,,,,,,,,,,,,,,,,,,,,,,,,,,,,,,,,,,,,,,
292384,2022-11-30_09h05.49.561,vts_reward_expectancy_bt,2022.2.4,MacIntel,59.99880002,Chrome,1440,900,,,l,0.2663,10,467,2,0,7,7,5,1,0,1,0,0,0,0,0,1,circle,star,,,,,,,,,,,,,,,,,,,,,,,,,,,,,,,,,,,,,,,,,,,,,,,,,,,,,,
292384,2022-11-30_09h05.49.561,vts_reward_expectancy_bt,2022.2.4,MacIntel,59.99880002,Chrome,1440,900,,,l,0.2375,1,468,2,0,8,8,6,1,0,0,1,0,1,0,0,0,hexagon,triangle,,,,,,,,,,,,,,,,,,,,,,,,,,,,,,,,,,,,,,,,,,,,,,,,,,,,,,
292384,2022-11-30_09h05.49.561,vts_reward_expectancy_bt,2022.2.4,MacIntel,59.99880002,Chrome,1440,900,,,a,0.1607,1,469,2,0,9,9,4,1,0,1,0,0,0,0,1,0,circle,hexagon,,,,,,,,,,,,,,,,,,,,,,,,,,,,,,,,,,,,,,,,,,,,,,,,,,,,,,
292384,2022-11-30_09h05.49.561,vts_reward_expectancy_bt,2022.2.4,MacIntel,59.99880002,Chrome,1440,900,,,l,0.1886,10,479,2,0,10,10,2,1,1,0,0,0,0,0,0,1,triangle,star,,,,,,,,,,,,,,,,,,,,,,,,,,,,,,,,,,,,,,,,,,,,,,,,,,,,,,
292384,2022-11-30_09h05.49.561,vts_reward_expectancy_bt,2022.2.4,MacIntel,59.99880002,Chrome,1440,900,,,a,0.1163,10,489,2,0,11,11,8,1,0,0,1,0,0,0,0,1,hexagon,star,,,,,,,,,,,,,,,,,,,,,,,,,,,,,,,,,,,,,,,,,,,,,,,,,,,,,,
292384,2022-11-30_09h05.49.561,vts_reward_expectancy_bt,2022.2.4,MacIntel,59.99880002,Chrome,1440,900,,,l,0.0494,1,490,2,1,0,12,10,1,0,0,0,1,0,1,0,0,star ,circle,,,,,,,,,,,,,,,,,,,,,,,,,,,,,,,,,,,,,,,,,,,,,,,,,,,,,,
292384,2022-11-30_09h05.49.561,vts_reward_expectancy_bt,2022.2.4,MacIntel,59.99880002,Chrome,1440,900,,,a,0.1253,10,500,2,1,1,13,7,1,0,0,1,0,0,1,0,0,hexagon,circle,,,,,,,,,,,,,,,,,,,,,,,,,,,,,,,,,,,,,,,,,,,,,,,,,,,,,,
292384,2022-11-30_09h05.49.561,vts_reward_expectancy_bt,2022.2.4,MacIntel,59.99880002,Chrome,1440,900,,,l,0.0355,10,510,2,1,2,14,9,1,0,0,0,1,1,0,0,0,star,triangle,,,,,,,,,,,,,,,,,,,,,,,,,,,,,,,,,,,,,,,,,,,,,,,,,,,,,,
292384,2022-11-30_09h05.49.561,vts_reward_expectancy_bt,2022.2.4,MacIntel,59.99880002,Chrome,1440,900,,,l,0.9635,10,520,2,1,3,15,1,1,1,0,0,0,0,0,1,0,triangle,hexagon,,,,,,,,,,,,,,,,,,,,,,,,,,,,,,,,,,,,,,,,,,,,,,,,,,,,,,
292384,2022-11-30_09h05.49.561,vts_reward_expectancy_bt,2022.2.4,MacIntel,59.99880002,Chrome,1440,900,,,l,1.3069,1,521,2,1,4,16,5,1,0,1,0,0,0,0,0,1,circle,star,,,,,,,,,,,,,,,,,,,,,,,,,,,,,,,,,,,,,,,,,,,,,,,,,,,,,,
292384,2022-11-30_09h05.49.561,vts_reward_expectancy_bt,2022.2.4,MacIntel,59.99880002,Chrome,1440,900,,,l,7.6559,10,531,2,1,5,17,11,1,0,0,0,1,0,0,1,0,star,hexagon,,,,,,,,,,,,,,,,,,,,,,,,,,,,,,,,,,,,,,,,,,,,,,,,,,,,,,
292384,2022-11-30_09h05.49.561,vts_reward_expectancy_bt,2022.2.4,MacIntel,59.99880002,Chrome,1440,900,,,l,0.1631,1,532,2,1,6,18,6,1,0,0,1,0,1,0,0,0,hexagon,triangle,,,,,,,,,,,,,,,,,,,,,,,,,,,,,,,,,,,,,,,,,,,,,,,,,,,,,,
292384,2022-11-30_09h05.49.561,vts_reward_expectancy_bt,2022.2.4,MacIntel,59.99880002,Chrome,1440,900,,,l,1.4059,10,542,2,1,7,19,3,1,0,1,0,0,1,0,0,0,circle,triangle,,,,,,,,,,,,,,,,,,,,,,,,,,,,,,,,,,,,,,,,,,,,,,,,,,,,,,
292384,2022-11-30_09h05.49.561,vts_reward_expectancy_bt,2022.2.4,MacIntel,59.99880002,Chrome,1440,900,,,l,0.833,1,543,2,1,8,20,2,1,1,0,0,0,0,0,0,1,triangle,star,,,,,,,,,,,,,,,,,,,,,,,,,,,,,,,,,,,,,,,,,,,,,,,,,,,,,,
292384,2022-11-30_09h05.49.561,vts_reward_expectancy_bt,2022.2.4,MacIntel,59.99880002,Chrome,1440,900,,,l,1.5522,1,544,2,1,9,21,0,1,1,0,0,0,0,1,0,0,triangle,circle,,,,,,,,,,,,,,,,,,,,,,,,,,,,,,,,,,,,,,,,,,,,,,,,,,,,,,
292384,2022-11-30_09h05.49.561,vts_reward_expectancy_bt,2022.2.4,MacIntel,59.99880002,Chrome,1440,900,,,l,4.0754,10,554,2,1,10,22,4,1,0,1,0,0,0,0,1,0,circle,hexagon,,,,,,,,,,,,,,,,,,,,,,,,,,,,,,,,,,,,,,,,,,,,,,,,,,,,,,
292384,2022-11-30_09h05.49.561,vts_reward_expectancy_bt,2022.2.4,MacIntel,59.99880002,Chrome,1440,900,,,l,0.1263,1,555,2,1,11,23,8,1,0,0,1,0,0,0,0,1,hexagon,star,,,,,,,,,,,,,,,,,,,,,,,,,,,,,,,,,,,,,,,,,,,,,,,,,,,,,,
292384,2022-11-30_09h05.49.561,vts_reward_expectancy_bt,2022.2.4,MacIntel,59.99880002,Chrome,1440,900,,,l,1.4375,10,565,2,2,0,24,8,1,0,0,1,0,0,0,0,1,hexagon,star,,,,,,,,,,,,,,,,,,,,,,,,,,,,,,,,,,,,,,,,,,,,,,,,,,,,,,
292384,2022-11-30_09h05.49.561,vts_reward_expectancy_bt,2022.2.4,MacIntel,59.99880002,Chrome,1440,900,,,l,0.0874,1,566,2,2,1,25,2,1,1,0,0,0,0,0,0,1,triangle,star,,,,,,,,,,,,,,,,,,,,,,,,,,,,,,,,,,,,,,,,,,,,,,,,,,,,,,
292384,2022-11-30_09h05.49.561,vts_reward_expectancy_bt,2022.2.4,MacIntel,59.99880002,Chrome,1440,900,,,l,27.9004,10,576,2,2,2,26,4,1,0,1,0,0,0,0,1,0,circle,hexagon,,,,,,,,,,,,,,,,,,,,,,,,,,,,,,,,,,,,,,,,,,,,,,,,,,,,,,
292384,2022-11-30_09h05.49.561,vts_reward_expectancy_bt,2022.2.4,MacIntel,59.99880002,Chrome,1440,900,,,l,1.712,1,577,2,2,3,27,0,1,1,0,0,0,0,1,0,0,triangle,circle,,,,,,,,,,,,,,,,,,,,,,,,,,,,,,,,,,,,,,,,,,,,,,,,,,,,,,
292384,2022-11-30_09h05.49.561,vts_reward_expectancy_bt,2022.2.4,MacIntel,59.99880002,Chrome,1440,900,,,l,0.2824,1,578,2,2,4,28,3,1,0,1,0,0,1,0,0,0,circle,triangle,,,,,,,,,,,,,,,,,,,,,,,,,,,,,,,,,,,,,,,,,,,,,,,,,,,,,,
292384,2022-11-30_09h05.49.561,vts_reward_expectancy_bt,2022.2.4,MacIntel,59.99880002,Chrome,1440,900,,,l,0.0003,1,579,2,2,5,29,10,1,0,0,0,1,0,1,0,0,star ,circle,,,,,,,,,,,,,,,,,,,,,,,,,,,,,,,,,,,,,,,,,,,,,,,,,,,,,,
292384,2022-11-30_09h05.49.561,vts_reward_expectancy_bt,2022.2.4,MacIntel,59.99880002,Chrome,1440,900,,,l,0.1197,1,580,2,2,6,30,5,1,0,1,0,0,0,0,0,1,circle,star,,,,,,,,,,,,,,,,,,,,,,,,,,,,,,,,,,,,,,,,,,,,,,,,,,,,,,
292384,2022-11-30_09h05.49.561,vts_reward_expectancy_bt,2022.2.4,MacIntel,59.99880002,Chrome,1440,900,,,l,0.651,10,590,2,2,7,31,7,1,0,0,1,0,0,1,0,0,hexagon,circle,,,,,,,,,,,,,,,,,,,,,,,,,,,,,,,,,,,,,,,,,,,,,,,,,,,,,,
292384,2022-11-30_09h05.49.561,vts_reward_expectancy_bt,2022.2.4,MacIntel,59.99880002,Chrome,1440,900,,,l,0.1003,10,600,2,2,8,32,1,1,1,0,0,0,0,0,1,0,triangle,hexagon,,,,,,,,,,,,,,,,,,,,,,,,,,,,,,,,,,,,,,,,,,,,,,,,,,,,,,
292384,2022-11-30_09h05.49.561,vts_reward_expectancy_bt,2022.2.4,MacIntel,59.99880002,Chrome,1440,900,,,l,0.1503,1,601,2,2,9,33,9,1,0,0,0,1,1,0,0,0,star,triangle,,,,,,,,,,,,,,,,,,,,,,,,,,,,,,,,,,,,,,,,,,,,,,,,,,,,,,
292384,2022-11-30_09h05.49.561,vts_reward_expectancy_bt,2022.2.4,MacIntel,59.99880002,Chrome,1440,900,,,l,0.2264,10,611,2,2,10,34,11,1,0,0,0,1,0,0,1,0,star,hexagon,,,,,,,,,,,,,,,,,,,,,,,,,,,,,,,,,,,,,,,,,,,,,,,,,,,,,,
292384,2022-11-30_09h05.49.561,vts_reward_expectancy_bt,2022.2.4,MacIntel,59.99880002,Chrome,1440,900,,,l,0.6326,10,621,2,2,11,35,6,1,0,0,1,0,1,0,0,0,hexagon,triangle,,,,,,,,,,,,,,,,,,,,,,,,,,,,,,,,,,,,,,,,,,,,,,,,,,,,,,
292384,2022-11-30_09h05.49.561,vts_reward_expectancy_bt,2022.2.4,MacIntel,59.99880002,Chrome,1440,900,,,,,,,,,,,,,,,,,,,,,,,167,U,hexagon,1,0,f,1.0463,0,0,0,0,0,1,,,,,,,,,,,,,,,,,,,,,,,,,,,,,,,,,,,,,,,,,
292384,2022-11-30_09h05.49.561,vts_reward_expectancy_bt,2022.2.4,MacIntel,59.99880002,Chrome,1440,900,,,,,,,,,,,,,,,,,,,,,,,132,D,triangle,1,0,d,1.0453,0,1,0,1,0,1,,,,,,,,,,,,,,,,,,,,,,,,,,,,,,,,,,,,,,,,,
292384,2022-11-30_09h05.49.561,vts_reward_expectancy_bt,2022.2.4,MacIntel,59.99880002,Chrome,1440,900,,,,,,,,,,,,,,,,,,,,,,,174,F,star,1,0,f,0.7495,0,2,0,2,0,1,,,,,,,,,,,,,,,,,,,,,,,,,,,,,,,,,,,,,,,,,
292384,2022-11-30_09h05.49.561,vts_reward_expectancy_bt,2022.2.4,MacIntel,59.99880002,Chrome,1440,900,,,,,,,,,,,,,,,,,,,,,,,125,S,circle,1,0,d,0.7319,0,3,0,3,0,1,,,,,,,,,,,,,,,,,,,,,,,,,,,,,,,,,,,,,,,,,
292384,2022-11-30_09h05.49.561,vts_reward_expectancy_bt,2022.2.4,MacIntel,59.99880002,Chrome,1440,900,,,,,,,,,,,,,,,,,,,,,,,160,H,hexagon,1,0,f,1.2832,0,4,0,4,0,1,,,,,,,,,,,,,,,,,,,,,,,,,,,,,,,,,,,,,,,,,
292384,2022-11-30_09h05.49.561,vts_reward_expectancy_bt,2022.2.4,MacIntel,59.99880002,Chrome,1440,900,,,,,,,,,,,,,,,,,,,,,,,146,W,triangle,1,0,d,0.5817,0,5,0,5,0,1,,,,,,,,,,,,,,,,,,,,,,,,,,,,,,,,,,,,,,,,,
292384,2022-11-30_09h05.49.561,vts_reward_expectancy_bt,2022.2.4,MacIntel,59.99880002,Chrome,1440,900,,,,,,,,,,,,,,,,,,,,,,,139,Y,star,1,0,d,0.7567,0,6,0,6,0,1,,,,,,,,,,,,,,,,,,,,,,,,,,,,,,,,,,,,,,,,,
292384,2022-11-30_09h05.49.561,vts_reward_expectancy_bt,2022.2.4,MacIntel,59.99880002,Chrome,1440,900,,,,,,,,,,,,,,,,,,,,,,,181,B,circle,1,0,f,0.6204,0,7,0,7,0,1,,,,,,,,,,,,,,,,,,,,,,,,,,,,,,,,,,,,,,,,,
292384,2022-11-30_09h05.49.561,vts_reward_expectancy_bt,2022.2.4,MacIntel,59.99880002,Chrome,1440,900,,,,,,,,,,,,,,,,,,,,,,,167,U,hexagon,1,0,f,0.7706,0,8,0,8,0,1,,,,,,,,,,,,,,,,,,,,,,,,,,,,,,,,,,,,,,,,,
292384,2022-11-30_09h05.49.561,vts_reward_expectancy_bt,2022.2.4,MacIntel,59.99880002,Chrome,1440,900,,,,,,,,,,,,,,,,,,,,,,,132,D,star,1,0,d,0.7394,0,9,0,9,0,1,,,,,,,,,,,,,,,,,,,,,,,,,,,,,,,,,,,,,,,,,
292384,2022-11-30_09h05.49.561,vts_reward_expectancy_bt,2022.2.4,MacIntel,59.99880002,Chrome,1440,900,,,,,,,,,,,,,,,,,,,,,,,167,B,circle,1,0,,,1,,,,,,j,0.936,0,0,0,0,1,,,,,,,,,,,,,,,,,,,,,,,,,,,,,,,,,,
292384,2022-11-30_09h05.49.561,vts_reward_expectancy_bt,2022.2.4,MacIntel,59.99880002,Chrome,1440,900,,,,,,,,,,,,,,,,,,,,,,,174,U,triangle,1,0,,,1,,,,,,k,0.6613,1,0,1,0,1,,,,,,,,,,,,,,,,,,,,,,,,,,,,,,,,,,
292384,2022-11-30_09h05.49.561,vts_reward_expectancy_bt,2022.2.4,MacIntel,59.99880002,Chrome,1440,900,,,,,,,,,,,,,,,,,,,,,,,132,D,star,1,0,,,1,,,,,,j,0.8796,2,0,2,0,1,,,,,,,,,,,,,,,,,,,,,,,,,,,,,,,,,,
292384,2022-11-30_09h05.49.561,vts_reward_expectancy_bt,2022.2.4,MacIntel,59.99880002,Chrome,1440,900,,,,,,,,,,,,,,,,,,,,,,,160,Y,hexagon,1,0,,,1,,,,,,k,0.83,3,0,3,0,1,,,,,,,,,,,,,,,,,,,,,,,,,,,,,,,,,,
292384,2022-11-30_09h05.49.561,vts_reward_expectancy_bt,2022.2.4,MacIntel,59.99880002,Chrome,1440,900,,,,,,,,,,,,,,,,,,,,,,,125,H,circle,1,0,,,1,,,,,,j,1.8185,4,0,4,0,1,,,,,,,,,,,,,,,,,,,,,,,,,,,,,,,,,,
292384,2022-11-30_09h05.49.561,vts_reward_expectancy_bt,2022.2.4,MacIntel,59.99880002,Chrome,1440,900,,,,,,,,,,,,,,,,,,,,,,,146,S,triangle,1,0,,,1,,,,,,k,0.6127,5,0,5,0,1,,,,,,,,,,,,,,,,,,,,,,,,,,,,,,,,,,
292384,2022-11-30_09h05.49.561,vts_reward_expectancy_bt,2022.2.4,MacIntel,59.99880002,Chrome,1440,900,,,,,,,,,,,,,,,,,,,,,,,181,W,star,1,0,,,1,,,,,,k,0.6556,6,0,6,0,1,,,,,,,,,,,,,,,,,,,,,,,,,,,,,,,,,,
292384,2022-11-30_09h05.49.561,vts_reward_expectancy_bt,2022.2.4,MacIntel,59.99880002,Chrome,1440,900,,,,,,,,,,,,,,,,,,,,,,,139,F,hexagon,1,0,,,1,,,,,,j,1.3194,7,0,7,0,1,,,,,,,,,,,,,,,,,,,,,,,,,,,,,,,,,,
292384,2022-11-30_09h05.49.561,vts_reward_expectancy_bt,2022.2.4,MacIntel,59.99880002,Chrome,1440,900,,,,,,,,,,,,,,,,,,,,,,,167,B,triangle,1,0,,,1,,,,,,j,0.5873,8,0,8,0,1,,,,,,,,,,,,,,,,,,,,,,,,,,,,,,,,,,
292384,2022-11-30_09h05.49.561,vts_reward_expectancy_bt,2022.2.4,MacIntel,59.99880002,Chrome,1440,900,,,,,,,,,,,,,,,,,,,,,,,174,U,star,1,0,,,1,,,,,,k,0.597,9,0,9,0,1,,,,,,,,,,,,,,,,,,,,,,,,,,,,,,,,,,
292384,2022-11-30_09h05.49.561,vts_reward_expectancy_bt,2022.2.4,MacIntel,59.99880002,Chrome,1440,900,,,,,0,621,,,,,,,,,,,,,,,,,181,Y,hexagon,1,0,,,2,,,,,,,,,,,,,-1,number,NA,f,2.1634,vtsPrac,0,0,0,0,1,,,,,,,,,,,,,,,,,,,,,,,
292384,2022-11-30_09h05.49.561,vts_reward_expectancy_bt,2022.2.4,MacIntel,59.99880002,Chrome,1440,900,,,,,0,621,,,,,,,,,,,,,,,,,174,H,circle,1,0,,,2,,,,,,,,,,,,,switch,letter,lettSwt,j,0.7293,vtsPrac,1,0,1,0,1,,,,,,,,,,,,,,,,,,,,,,,
292384,2022-11-30_09h05.49.561,vts_reward_expectancy_bt,2022.2.4,MacIntel,59.99880002,Chrome,1440,900,,,,,0,621,,,,,,,,,,,,,,,,,146,U,hexagon,1,0,,,2,,,,,,,,,,,,,repeat,letter,lettRpt,k,1.3107,vtsPrac,2,0,2,0,1,,,,,,,,,,,,,,,,,,,,,,,
292384,2022-11-30_09h05.49.561,vts_reward_expectancy_bt,2022.2.4,MacIntel,59.99880002,Chrome,1440,900,,,,,0,621,,,,,,,,,,,,,,,,,132,W,circle,1,0,,,2,,,,,,,,,,,,,switch,number,numSwt,d,0.9829,vtsPrac,3,0,3,0,1,,,,,,,,,,,,,,,,,,,,,,,
292384,2022-11-30_09h05.49.561,vts_reward_expectancy_bt,2022.2.4,MacIntel,59.99880002,Chrome,1440,900,,,,,0,621,,,,,,,,,,,,,,,,,181,Y,circle,1,0,,,2,,,,,,,,,,,,,repeat,number,numRpt,f,0.6115,vtsPrac,4,0,4,0,1,,,,,,,,,,,,,,,,,,,,,,,
292384,2022-11-30_09h05.49.561,vts_reward_expectancy_bt,2022.2.4,MacIntel,59.99880002,Chrome,1440,900,,,,,0,621,,,,,,,,,,,,,,,,,174,H,star,1,0,,,2,,,,,,,,,,,,,repeat,number,numRpt,f,1.8647,vtsPrac,5,0,5,0,1,,,,,,,,,,,,,,,,,,,,,,,
292384,2022-11-30_09h05.49.561,vts_reward_expectancy_bt,2022.2.4,MacIntel,59.99880002,Chrome,1440,900,,,,,0,621,,,,,,,,,,,,,,,,,146,U,star,1,0,,,2,,,,,,,,,,,,,repeat,number,numRpt,d,0.7523,vtsPrac,6,0,6,0,1,,,,,,,,,,,,,,,,,,,,,,,
292384,2022-11-30_09h05.49.561,vts_reward_expectancy_bt,2022.2.4,MacIntel,59.99880002,Chrome,1440,900,,,,,0,621,,,,,,,,,,,,,,,,,132,W,hexagon,1,0,,,2,,,,,,,,,,,,,repeat,number,numRpt,d,0.7228,vtsPrac,7,0,7,0,1,,,,,,,,,,,,,,,,,,,,,,,
292384,2022-11-30_09h05.49.561,vts_reward_expectancy_bt,2022.2.4,MacIntel,59.99880002,Chrome,1440,900,,,,,0,621,,,,,,,,,,,,,,,,,132,W,star,1,0,,,2,,,,,,,,,,,,,repeat,number,numRpt,d,0.6853,vtsPrac,8,0,8,0,1,,,,,,,,,,,,,,,,,,,,,,,
292384,2022-11-30_09h05.49.561,vts_reward_expectancy_bt,2022.2.4,MacIntel,59.99880002,Chrome,1440,900,,,,,0,621,,,,,,,,,,,,,,,,,181,B,triangle,1,0,,,2,,,,,,,,,,,,,repeat,number,numRpt,f,0.663,vtsPrac,9,0,9,0,1,,,,,,,,,,,,,,,,,,,,,,,
292384,2022-11-30_09h05.49.561,vts_reward_expectancy_bt,2022.2.4,MacIntel,59.99880002,Chrome,1440,900,,,,,0,621,,,,,,,,,,,,,,,,,125,U,star,1,0,,,2,,,,,,,,,,,,,switch,letter,lettSwt,k,0.8295,vtsPrac,10,0,10,0,1,,,,,,,,,,,,,,,,,,,,,,,
292384,2022-11-30_09h05.49.561,vts_reward_expectancy_bt,2022.2.4,MacIntel,59.99880002,Chrome,1440,900,,,,,0,621,,,,,,,,,,,,,,,,,139,H,hexagon,1,0,,,2,,,,,,,,,,,,,repeat,letter,lettRpt,j,1.1126,vtsPrac,11,0,11,0,1,,,,,,,,,,,,,,,,,,,,,,,
292384,2022-11-30_09h05.49.561,vts_reward_expectancy_bt,2022.2.4,MacIntel,59.99880002,Chrome,1440,900,,,,,0,621,,,,,,,,,,,,,,,,,160,S,triangle,1,0,,,2,,,,,,,,,,,,,repeat,letter,lettRpt,k,0.7191,vtsPrac,12,0,12,0,1,,,,,,,,,,,,,,,,,,,,,,,
292384,2022-11-30_09h05.49.561,vts_reward_expectancy_bt,2022.2.4,MacIntel,59.99880002,Chrome,1440,900,,,,,0,621,,,,,,,,,,,,,,,,,139,W,hexagon,1,0,,,2,,,,,,,,,,,,,switch,number,numSwt,d,0.7654,vtsPrac,13,0,13,0,1,,,,,,,,,,,,,,,,,,,,,,,
292384,2022-11-30_09h05.49.561,vts_reward_expectancy_bt,2022.2.4,MacIntel,59.99880002,Chrome,1440,900,,,,,0,621,,,,,,,,,,,,,,,,,146,H,circle,1,0,,,2,,,,,,,,,,,,,switch,letter,lettSwt,j,0.7375,vtsPrac,14,0,14,0,1,,,,,,,,,,,,,,,,,,,,,,,
292384,2022-11-30_09h05.49.561,vts_reward_expectancy_bt,2022.2.4,MacIntel,59.99880002,Chrome,1440,900,,,,,0,621,,,,,,,,,,,,,,,,,174,F,hexagon,1,0,,,2,,,,,,,,,,,,,switch,number,numSwt,f,1.2313,vtsPrac,15,0,15,0,1,,,,,,,,,,,,,,,,,,,,,,,
292384,2022-11-30_09h05.49.561,vts_reward_expectancy_bt,2022.2.4,MacIntel,59.99880002,Chrome,1440,900,,,,,0,621,,,,,,,,,,,,,,,,,139,U,star,1,0,,,2,,,,,,,,,,,,,repeat,number,numRpt,d,0.9786,vtsPrac,16,0,16,0,1,,,,,,,,,,,,,,,,,,,,,,,
292384,2022-11-30_09h05.49.561,vts_reward_expectancy_bt,2022.2.4,MacIntel,59.99880002,Chrome,1440,900,,,,,0,621,,,,,,,,,,,,,,,,,167,S,triangle,1,0,,,2,,,,,,,,,,,,,repeat,number,numRpt,f,1.4055,vtsPrac,17,0,17,0,1,,,,,,,,,,,,,,,,,,,,,,,
292384,2022-11-30_09h05.49.561,vts_reward_expectancy_bt,2022.2.4,MacIntel,59.99880002,Chrome,1440,900,,,,,0,621,,,,,,,,,,,,,,,,,160,F,circle,1,0,,,2,,,,,,,,,,,,,switch,letter,lettSwt,j,0.6702,vtsPrac,18,0,18,0,1,,,,,,,,,,,,,,,,,,,,,,,
292384,2022-11-30_09h05.49.561,vts_reward_expectancy_bt,2022.2.4,MacIntel,59.99880002,Chrome,1440,900,,,,,0,621,,,,,,,,,,,,,,,,,132,D,star,1,0,,,2,,,,,,,,,,,,,switch,number,numSwt,d,1.4965,vtsPrac,19,0,19,0,1,,,,,,,,,,,,,,,,,,,,,,,
292384,2022-11-30_09h05.49.561,vts_reward_expectancy_bt,2022.2.4,MacIntel,59.99880002,Chrome,1440,900,,,,,0,621,,,,,,,,,,,,,,,,,125,D,triangle,1,0,,,2,,,,,,,,,,,,,repeat,number,numRpt,d,1.0487,vtsPrac,20,0,20,0,1,,,,,,,,,,,,,,,,,,,,,,,
292384,2022-11-30_09h05.49.561,vts_reward_expectancy_bt,2022.2.4,MacIntel,59.99880002,Chrome,1440,900,,,,,0,621,,,,,,,,,,,,,,,,,167,F,hexagon,1,0,,,2,,,,,,,,,,,,,repeat,number,numRpt,f,0.9293,vtsPrac,21,0,21,0,1,,,,,,,,,,,,,,,,,,,,,,,
292384,2022-11-30_09h05.49.561,vts_reward_expectancy_bt,2022.2.4,MacIntel,59.99880002,Chrome,1440,900,,,,,0,621,,,,,,,,,,,,,,,,,181,H,triangle,0,0,,,2,,,,,,,,,,,,,switch,letter,NA,k,0.571,vtsPrac,22,0,22,0,1,,,,,,,,,,,,,,,,,,,,,,,
292384,2022-11-30_09h05.49.561,vts_reward_expectancy_bt,2022.2.4,MacIntel,59.99880002,Chrome,1440,900,,,,,0,621,,,,,,,,,,,,,,,,,132,S,star,1,1,,,2,,,,,,,,,,,,,repeat,letter,lettRpt,k,0.8803,vtsPrac,23,0,23,0,1,,,,,,,,,,,,,,,,,,,,,,,
292384,2022-11-30_09h05.49.561,vts_reward_expectancy_bt,2022.2.4,MacIntel,59.99880002,Chrome,1440,900,,,,,0,621,,,,,,,,,,,,,,,,,146,Y,circle,1,0,,,2,,,,,,,,,,,,,switch,number,numSwt,d,0.8139,vtsPrac,24,0,24,0,1,,,,,,,,,,,,,,,,,,,,,,,
292384,2022-11-30_09h05.49.561,vts_reward_expectancy_bt,2022.2.4,MacIntel,59.99880002,Chrome,1440,900,,,,,0,621,,,,,,,,,,,,,,,,,174,U,triangle,1,0,,,2,,,,,,,,,,,,,switch,letter,lettSwt,k,0.781,vtsPrac,25,0,25,0,1,,,,,,,,,,,,,,,,,,,,,,,
292384,2022-11-30_09h05.49.561,vts_reward_expectancy_bt,2022.2.4,MacIntel,59.99880002,Chrome,1440,900,,,,,0,621,,,,,,,,,,,,,,,,,167,H,hexagon,1,0,,,2,,,,,,,,,,,,,switch,number,numSwt,f,2.0864,vtsPrac,26,0,26,0,1,,,,,,,,,,,,,,,,,,,,,,,
292384,2022-11-30_09h05.49.561,vts_reward_expectancy_bt,2022.2.4,MacIntel,59.99880002,Chrome,1440,900,,,,,0,621,,,,,,,,,,,,,,,,,139,W,triangle,1,0,,,2,,,,,,,,,,,,,switch,letter,lettSwt,k,1.1503,vtsPrac,27,0,27,0,1,,,,,,,,,,,,,,,,,,,,,,,
292384,2022-11-30_09h05.49.561,vts_reward_expectancy_bt,2022.2.4,MacIntel,59.99880002,Chrome,1440,900,,,,,0,621,,,,,,,,,,,,,,,,,160,S,circle,1,0,,,2,,,,,,,,,,,,,repeat,letter,lettRpt,k,1.0812,vtsPrac,28,0,28,0,1,,,,,,,,,,,,,,,,,,,,,,,
292384,2022-11-30_09h05.49.561,vts_reward_expectancy_bt,2022.2.4,MacIntel,59.99880002,Chrome,1440,900,,,,,0,621,,,,,,,,,,,,,,,,,181,Y,triangle,1,0,,,2,,,,,,,,,,,,,switch,number,numSwt,f,1.4628,vtsPrac,29,0,29,0,1,,,,,,,,,,,,,,,,,,,,,,,
292384,2022-11-30_09h05.49.561,vts_reward_expectancy_bt,2022.2.4,MacIntel,59.99880002,Chrome,1440,900,,,,,0,621,,,,,,,,,,,,,,,,,139,F,star,1,0,,,2,,,,,,,,,,,,,repeat,number,numRpt,d,1.0051,vtsPrac,30,0,30,0,1,,,,,,,,,,,,,,,,,,,,,,,
292384,2022-11-30_09h05.49.561,vts_reward_expectancy_bt,2022.2.4,MacIntel,59.99880002,Chrome,1440,900,,,,,0,621,,,,,,,,,,,,,,,,,132,U,hexagon,1,0,,,2,,,,,,,,,,,,,repeat,number,numRpt,d,1.0808,vtsPrac,31,0,31,0,1,,,,,,,,,,,,,,,,,,,,,,,
292384,2022-11-30_09h05.49.561,vts_reward_expectancy_bt,2022.2.4,MacIntel,59.99880002,Chrome,1440,900,,,,,,,,,,,,,,,,,,,,,,,,,,,,,,,,,,,,,,,,,,,,,,,,,,,,,,,,,,,,,,,,,,,,,,,,,,,,
292384,2022-11-30_09h05.49.561,vts_reward_expectancy_bt,2022.2.4,MacIntel,59.99880002,Chrome,1440,900,,,,,,,,,,,,,,,,,,,,,,,,,,,,,,,,,,,,,,,,,,,,,,,,,,,,,,,,,,,,,,,,,,,,,,,,,,,,
292384,2022-11-30_09h05.49.561,vts_reward_expectancy_bt,2022.2.4,MacIntel,59.99880002,Chrome,1440,900,,,,,0,621,,,,,,,,,,,,,,,,,160,S,circle,1,0,,,,,,,,,,,,,,,,repeat,number,numRpt,f,0.7482,noRew,,,,,,0,0,0,0,0,1,,,,,,,,,,,,,,,,,
292384,2022-11-30_09h05.49.561,vts_reward_expectancy_bt,2022.2.4,MacIntel,59.99880002,Chrome,1440,900,,,,,0,621,,,,,,,,,,,,,,,,,174,U,star,1,0,,,,,,,,,,,,,,,,repeat,number,numRpt,f,1.1142,noRew,,,,,,0,1,0,1,0,1,,,,,,,,,,,,,,,,,
292384,2022-11-30_09h05.49.561,vts_reward_expectancy_bt,2022.2.4,MacIntel,59.99880002,Chrome,1440,900,,,,,0,621,,,,,,,,,,,,,,,,,146,Y,circle,1,0,,,,,,,,,,,,,,,,switch,letter,lettSwt,k,0.6539,noRew,,,,,,0,2,0,2,0,1,,,,,,,,,,,,,,,,,
292384,2022-11-30_09h05.49.561,vts_reward_expectancy_bt,2022.2.4,MacIntel,59.99880002,Chrome,1440,900,,,,,0,621,,,,,,,,,,,,,,,,,125,H,star,1,0,,,,,,,,,,,,,,,,switch,number,numSwt,d,0.8492,noRew,,,,,,0,3,0,3,0,1,,,,,,,,,,,,,,,,,
292384,2022-11-30_09h05.49.561,vts_reward_expectancy_bt,2022.2.4,MacIntel,59.99880002,Chrome,1440,900,,,,,0,621,,,,,,,,,,,,,,,,,160,S,star,1,0,,,,,,,,,,,,,,,,switch,letter,lettSwt,k,0.8132,noRew,,,,,,0,4,0,4,0,1,,,,,,,,,,,,,,,,,
292384,2022-11-30_09h05.49.561,vts_reward_expectancy_bt,2022.2.4,MacIntel,59.99880002,Chrome,1440,900,,,,,0,621,,,,,,,,,,,,,,,,,174,U,triangle,1,0,,,,,,,,,,,,,,,,repeat,letter,lettRpt,k,1.4618,noRew,,,,,,0,5,0,5,0,1,,,,,,,,,,,,,,,,,
292384,2022-11-30_09h05.49.561,vts_reward_expectancy_bt,2022.2.4,MacIntel,59.99880002,Chrome,1440,900,,,,,0,621,,,,,,,,,,,,,,,,,146,Y,circle,0,0,,,,,,,,,,,,,,,,switch,number,NA,f,0.9128,noRew,,,,,,0,6,0,6,0,1,,,,,,,,,,,,,,,,,
292384,2022-11-30_09h05.49.561,vts_reward_expectancy_bt,2022.2.4,MacIntel,59.99880002,Chrome,1440,900,,,,,0,621,,,,,,,,,,,,,,,,,125,H,star,1,1,,,,,,,,,,,,,,,,switch,letter,lettSwt,j,1.0957,noRew,,,,,,0,7,0,7,0,1,,,,,,,,,,,,,,,,,
292384,2022-11-30_09h05.49.561,vts_reward_expectancy_bt,2022.2.4,MacIntel,59.99880002,Chrome,1440,900,,,,,0,621,,,,,,,,,,,,,,,,,125,H,circle,1,0,,,,,,,,,,,,,,,,switch,number,numSwt,d,1.4999,noRew,,,,,,0,8,0,8,0,1,,,,,,,,,,,,,,,,,
292384,2022-11-30_09h05.49.561,vts_reward_expectancy_bt,2022.2.4,MacIntel,59.99880002,Chrome,1440,900,,,,,0,621,,,,,,,,,,,,,,,,,181,D,hexagon,1,0,,,,,,,,,,,,,,,,switch,letter,lettSwt,j,1.1971,noRew,,,,,,0,9,0,9,0,1,,,,,,,,,,,,,,,,,
292384,2022-11-30_09h05.49.561,vts_reward_expectancy_bt,2022.2.4,MacIntel,59.99880002,Chrome,1440,900,,,,,0,621,,,,,,,,,,,,,,,,,167,U,star,1,0,,,,,,,,,,,,,,,,repeat,letter,lettRpt,k,1.0214,noRew,,,,,,0,10,0,10,0,1,,,,,,,,,,,,,,,,,
292384,2022-11-30_09h05.49.561,vts_reward_expectancy_bt,2022.2.4,MacIntel,59.99880002,Chrome,1440,900,,,,,0,621,,,,,,,,,,,,,,,,,146,S,hexagon,1,0,,,,,,,,,,,,,,,,repeat,letter,lettRpt,k,1.1141,noRew,,,,,,0,11,0,11,0,1,,,,,,,,,,,,,,,,,
292384,2022-11-30_09h05.49.561,vts_reward_expectancy_bt,2022.2.4,MacIntel,59.99880002,Chrome,1440,900,,,,,0,621,,,,,,,,,,,,,,,,,132,W,hexagon,1,0,,,,,,,,,,,,,,,,repeat,letter,lettRpt,k,1.0364,noRew,,,,,,0,12,0,12,0,1,,,,,,,,,,,,,,,,,
292384,2022-11-30_09h05.49.561,vts_reward_expectancy_bt,2022.2.4,MacIntel,59.99880002,Chrome,1440,900,,,,,0,621,,,,,,,,,,,,,,,,,146,S,circle,1,0,,,,,,,,,,,,,,,,repeat,letter,lettRpt,k,0.8206,noRew,,,,,,0,13,0,13,0,1,,,,,,,,,,,,,,,,,
292384,2022-11-30_09h05.49.561,vts_reward_expectancy_bt,2022.2.4,MacIntel,59.99880002,Chrome,1440,900,,,,,0,621,,,,,,,,,,,,,,,,,125,B,circle,1,0,,,,,,,,,,,,,,,,repeat,letter,lettRpt,j,1.0969,noRew,,,,,,0,14,0,14,0,1,,,,,,,,,,,,,,,,,
292384,2022-11-30_09h05.49.561,vts_reward_expectancy_bt,2022.2.4,MacIntel,59.99880002,Chrome,1440,900,,,,,0,621,,,,,,,,,,,,,,,,,167,Y,triangle,-1,0,,,,,,,,,,,,,,,,switch,no_choice,NA,,,noRew,,,,,,0,15,0,15,0,1,,,,,,,,,,,,,,,,,
292384,2022-11-30_09h05.49.561,vts_reward_expectancy_bt,2022.2.4,MacIntel,59.99880002,Chrome,1440,900,,,,,0,621,,,,,,,,,,,,,,,,,139,F,star,1,0,,,,,,,,,,,,,,,,switch,letter,lettSwt,j,1.1176,noRew,,,,,,0,16,0,16,0,1,,,,,,,,,,,,,,,,,
292384,2022-11-30_09h05.49.561,vts_reward_expectancy_bt,2022.2.4,MacIntel,59.99880002,Chrome,1440,900,,,,,0,621,,,,,,,,,,,,,,,,,146,U,hexagon,1,0,,,,,,,,,,,,,,,,repeat,letter,lettRpt,k,0.7722,noRew,,,,,,0,17,0,17,0,1,,,,,,,,,,,,,,,,,
292384,2022-11-30_09h05.49.561,vts_reward_expectancy_bt,2022.2.4,MacIntel,59.99880002,Chrome,1440,900,,,,,0,621,,,,,,,,,,,,,,,,,174,W,circle,1,0,,,,,,,,,,,,,,,,switch,number,numSwt,f,0.7834,noRew,,,,,,0,18,0,18,0,1,,,,,,,,,,,,,,,,,
292384,2022-11-30_09h05.49.561,vts_reward_expectancy_bt,2022.2.4,MacIntel,59.99880002,Chrome,1440,900,,,,,0,621,,,,,,,,,,,,,,,,,132,Y,triangle,1,0,,,,,,,,,,,,,,,,repeat,number,numRpt,d,0.6219,noRew,,,,,,0,19,0,19,0,1,,,,,,,,,,,,,,,,,
292384,2022-11-30_09h05.49.561,vts_reward_expectancy_bt,2022.2.4,MacIntel,59.99880002,Chrome,1440,900,,,,,0,621,,,,,,,,,,,,,,,,,174,F,hexagon,1,0,,,,,,,,,,,,,,,,repeat,number,numRpt,f,0.5614,noRew,,,,,,0,20,0,20,0,1,,,,,,,,,,,,,,,,,
292384,2022-11-30_09h05.49.561,vts_reward_expectancy_bt,2022.2.4,MacIntel,59.99880002,Chrome,1440,900,,,,,0,621,,,,,,,,,,,,,,,,,125,H,triangle,1,0,,,,,,,,,,,,,,,,switch,letter,lettSwt,j,0.6803,noRew,,,,,,0,21,0,21,0,1,,,,,,,,,,,,,,,,,
292384,2022-11-30_09h05.49.561,vts_reward_expectancy_bt,2022.2.4,MacIntel,59.99880002,Chrome,1440,900,,,,,0,621,,,,,,,,,,,,,,,,,132,S,circle,1,0,,,,,,,,,,,,,,,,repeat,letter,lettRpt,k,1.3816,noRew,,,,,,0,22,0,22,0,1,,,,,,,,,,,,,,,,,
292384,2022-11-30_09h05.49.561,vts_reward_expectancy_bt,2022.2.4,MacIntel,59.99880002,Chrome,1440,900,,,,,0,621,,,,,,,,,,,,,,,,,146,U,star,1,0,,,,,,,,,,,,,,,,repeat,letter,lettRpt,k,1.7707,noRew,,,,,,0,23,0,23,0,1,,,,,,,,,,,,,,,,,
292384,2022-11-30_09h05.49.561,vts_reward_expectancy_bt,2022.2.4,MacIntel,59.99880002,Chrome,1440,900,,,,,0,621,,,,,,,,,,,,,,,,,139,U,hexagon,1,0,,,,,,,,,,,,,,,,repeat,letter,lettRpt,k,0.9114,noRew,,,,,,0,24,0,24,0,1,,,,,,,,,,,,,,,,,
292384,2022-11-30_09h05.49.561,vts_reward_expectancy_bt,2022.2.4,MacIntel,59.99880002,Chrome,1440,900,,,,,0,621,,,,,,,,,,,,,,,,,167,H,circle,1,0,,,,,,,,,,,,,,,,repeat,letter,lettRpt,j,1.232,noRew,,,,,,0,25,0,25,0,1,,,,,,,,,,,,,,,,,
292384,2022-11-30_09h05.49.561,vts_reward_expectancy_bt,2022.2.4,MacIntel,59.99880002,Chrome,1440,900,,,,,0,621,,,,,,,,,,,,,,,,,132,W,triangle,1,0,,,,,,,,,,,,,,,,switch,number,numSwt,d,0.6824,noRew,,,,,,0,26,0,26,0,1,,,,,,,,,,,,,,,,,
292384,2022-11-30_09h05.49.561,vts_reward_expectancy_bt,2022.2.4,MacIntel,59.99880002,Chrome,1440,900,,,,,0,621,,,,,,,,,,,,,,,,,146,B,circle,1,0,,,,,,,,,,,,,,,,repeat,number,numRpt,d,1.1639,noRew,,,,,,0,27,0,27,0,1,,,,,,,,,,,,,,,,,
292384,2022-11-30_09h05.49.561,vts_reward_expectancy_bt,2022.2.4,MacIntel,59.99880002,Chrome,1440,900,,,,,0,621,,,,,,,,,,,,,,,,,125,S,hexagon,1,0,,,,,,,,,,,,,,,,switch,letter,lettSwt,k,1.6807,noRew,,,,,,0,28,0,28,0,1,,,,,,,,,,,,,,,,,
292384,2022-11-30_09h05.49.561,vts_reward_expectancy_bt,2022.2.4,MacIntel,59.99880002,Chrome,1440,900,,,,,0,621,,,,,,,,,,,,,,,,,167,D,star,0,0,,,,,,,,,,,,,,,,switch,number,NA,d,1.6954,noRew,,,,,,0,29,0,29,0,1,,,,,,,,,,,,,,,,,
292384,2022-11-30_09h05.49.561,vts_reward_expectancy_bt,2022.2.4,MacIntel,59.99880002,Chrome,1440,900,,,,,0,621,,,,,,,,,,,,,,,,,146,U,star,1,1,,,,,,,,,,,,,,,,switch,letter,lettSwt,k,0.9674,noRew,,,,,,0,30,0,30,0,1,,,,,,,,,,,,,,,,,
292384,2022-11-30_09h05.49.561,vts_reward_expectancy_bt,2022.2.4,MacIntel,59.99880002,Chrome,1440,900,,,,,0,621,,,,,,,,,,,,,,,,,174,H,hexagon,1,0,,,,,,,,,,,,,,,,switch,number,numSwt,f,1.9805,noRew,,,,,,0,31,0,31,0,1,,,,,,,,,,,,,,,,,
292384,2022-11-30_09h05.49.561,vts_reward_expectancy_bt,2022.2.4,MacIntel,59.99880002,Chrome,1440,900,,,,,0,621,,,,,,,,,,,,,,,,,167,S,hexagon,1,0,,,,,,,,,,,,,,,,switch,letter,lettSwt,k,0.6128,noRew,,,,,,0,32,0,32,0,1,,,,,,,,,,,,,,,,,
292384,2022-11-30_09h05.49.561,vts_reward_expectancy_bt,2022.2.4,MacIntel,59.99880002,Chrome,1440,900,,,,,0,621,,,,,,,,,,,,,,,,,146,D,star,1,0,,,,,,,,,,,,,,,,switch,number,numSwt,d,1.0554,noRew,,,,,,0,33,0,33,0,1,,,,,,,,,,,,,,,,,
292384,2022-11-30_09h05.49.561,vts_reward_expectancy_bt,2022.2.4,MacIntel,59.99880002,Chrome,1440,900,,,,,0,621,,,,,,,,,,,,,,,,,174,Y,hexagon,1,0,,,,,,,,,,,,,,,,repeat,number,numRpt,f,0.7822,noRew,,,,,,0,34,0,34,0,1,,,,,,,,,,,,,,,,,
292384,2022-11-30_09h05.49.561,vts_reward_expectancy_bt,2022.2.4,MacIntel,59.99880002,Chrome,1440,900,,,,,0,621,,,,,,,,,,,,,,,,,139,B,star,1,0,,,,,,,,,,,,,,,,switch,letter,lettSwt,j,0.6142,noRew,,,,,,0,35,0,35,0,1,,,,,,,,,,,,,,,,,
292384,2022-11-30_09h05.49.561,vts_reward_expectancy_bt,2022.2.4,MacIntel,59.99880002,Chrome,1440,900,,,,,0,621,,,,,,,,,,,,,,,,,125,F,circle,0,0,,,,,,,,,,,,,,,,repeat,letter,NA,k,0.6519,noRew,,,,,,0,36,0,36,0,1,,,,,,,,,,,,,,,,,
292384,2022-11-30_09h05.49.561,vts_reward_expectancy_bt,2022.2.4,MacIntel,59.99880002,Chrome,1440,900,,,,,0,621,,,,,,,,,,,,,,,,,174,Y,hexagon,1,1,,,,,,,,,,,,,,,,repeat,letter,lettRpt,k,0.7283,noRew,,,,,,0,37,0,37,0,1,,,,,,,,,,,,,,,,,
292384,2022-11-30_09h05.49.561,vts_reward_expectancy_bt,2022.2.4,MacIntel,59.99880002,Chrome,1440,900,,,,,0,621,,,,,,,,,,,,,,,,,181,W,circle,1,0,,,,,,,,,,,,,,,,repeat,letter,lettRpt,k,0.857,noRew,,,,,,0,38,0,38,0,1,,,,,,,,,,,,,,,,,
292384,2022-11-30_09h05.49.561,vts_reward_expectancy_bt,2022.2.4,MacIntel,59.99880002,Chrome,1440,900,,,,,0,621,,,,,,,,,,,,,,,,,146,U,triangle,1,0,,,,,,,,,,,,,,,,repeat,letter,lettRpt,k,1.131,noRew,,,,,,0,39,0,39,0,1,,,,,,,,,,,,,,,,,
292384,2022-11-30_09h05.49.561,vts_reward_expectancy_bt,2022.2.4,MacIntel,59.99880002,Chrome,1440,900,,,,,0,621,,,,,,,,,,,,,,,,,132,Y,triangle,1,0,,,,,,,,,,,,,,,,repeat,letter,lettRpt,k,0.6649,noRew,,,,,,0,40,0,40,0,1,,,,,,,,,,,,,,,,,
292384,2022-11-30_09h05.49.561,vts_reward_expectancy_bt,2022.2.4,MacIntel,59.99880002,Chrome,1440,900,,,,,0,621,,,,,,,,,,,,,,,,,139,B,star,1,0,,,,,,,,,,,,,,,,switch,number,numSwt,d,1.5465,noRew,,,,,,0,41,0,41,0,1,,,,,,,,,,,,,,,,,
292384,2022-11-30_09h05.49.561,vts_reward_expectancy_bt,2022.2.4,MacIntel,59.99880002,Chrome,1440,900,,,,,0,621,,,,,,,,,,,,,,,,,167,S,hexagon,1,0,,,,,,,,,,,,,,,,repeat,number,numRpt,f,0.6362,noRew,,,,,,0,42,0,42,0,1,,,,,,,,,,,,,,,,,
292384,2022-11-30_09h05.49.561,vts_reward_expectancy_bt,2022.2.4,MacIntel,59.99880002,Chrome,1440,900,,,,,0,621,,,,,,,,,,,,,,,,,146,H,circle,1,0,,,,,,,,,,,,,,,,repeat,number,numRpt,d,1.0981,noRew,,,,,,0,43,0,43,0,1,,,,,,,,,,,,,,,,,
292384,2022-11-30_09h05.49.561,vts_reward_expectancy_bt,2022.2.4,MacIntel,59.99880002,Chrome,1440,900,,,,,0,621,,,,,,,,,,,,,,,,,181,B,star,1,0,,,,,,,,,,,,,,,,repeat,number,numRpt,f,1.1335,noRew,,,,,,0,44,0,44,0,1,,,,,,,,,,,,,,,,,
292384,2022-11-30_09h05.49.561,vts_reward_expectancy_bt,2022.2.4,MacIntel,59.99880002,Chrome,1440,900,,,,,0,621,,,,,,,,,,,,,,,,,174,U,circle,1,0,,,,,,,,,,,,,,,,switch,letter,lettSwt,k,1.5795,noRew,,,,,,0,45,0,45,0,1,,,,,,,,,,,,,,,,,
292384,2022-11-30_09h05.49.561,vts_reward_expectancy_bt,2022.2.4,MacIntel,59.99880002,Chrome,1440,900,,,,,0,621,,,,,,,,,,,,,,,,,160,H,triangle,1,0,,,,,,,,,,,,,,,,repeat,letter,lettRpt,j,1.518,noRew,,,,,,0,46,0,46,0,1,,,,,,,,,,,,,,,,,
292384,2022-11-30_09h05.49.561,vts_reward_expectancy_bt,2022.2.4,MacIntel,59.99880002,Chrome,1440,900,,,,,0,621,,,,,,,,,,,,,,,,,139,F,circle,1,0,,,,,,,,,,,,,,,,repeat,letter,lettRpt,j,0.9782,noRew,,,,,,0,47,0,47,0,1,,,,,,,,,,,,,,,,,
292384,2022-11-30_09h05.49.561,vts_reward_expectancy_bt,2022.2.4,MacIntel,59.99880002,Chrome,1440,900,,,,,0,621,,,,,,,,,,,,,,,,,181,Y,triangle,1,0,,,,,,,,,,,,,,,,switch,number,numSwt,f,0.9151,noRew,,,,,,0,48,0,48,0,1,,,,,,,,,,,,,,,,,
292384,2022-11-30_09h05.49.561,vts_reward_expectancy_bt,2022.2.4,MacIntel,59.99880002,Chrome,1440,900,,,,,0,621,,,,,,,,,,,,,,,,,146,F,circle,1,0,,,,,,,,,,,,,,,,repeat,number,numRpt,d,2.4517,noRew,,,,,,0,49,0,49,0,1,,,,,,,,,,,,,,,,,
292384,2022-11-30_09h05.49.561,vts_reward_expectancy_bt,2022.2.4,MacIntel,59.99880002,Chrome,1440,900,,,,,0,621,,,,,,,,,,,,,,,,,160,D,star,1,0,,,,,,,,,,,,,,,,repeat,number,numRpt,f,0.9457,noRew,,,,,,0,50,0,50,0,1,,,,,,,,,,,,,,,,,
292384,2022-11-30_09h05.49.561,vts_reward_expectancy_bt,2022.2.4,MacIntel,59.99880002,Chrome,1440,900,,,,,0,621,,,,,,,,,,,,,,,,,167,H,circle,1,0,,,,,,,,,,,,,,,,repeat,number,numRpt,f,0.7464,noRew,,,,,,0,51,0,51,0,1,,,,,,,,,,,,,,,,,
292384,2022-11-30_09h05.49.561,vts_reward_expectancy_bt,2022.2.4,MacIntel,59.99880002,Chrome,1440,900,,,,,0,621,,,,,,,,,,,,,,,,,160,F,hexagon,1,0,,,,,,,,,,,,,,,,repeat,number,numRpt,f,0.8204,noRew,,,,,,0,52,0,52,0,1,,,,,,,,,,,,,,,,,
292384,2022-11-30_09h05.49.561,vts_reward_expectancy_bt,2022.2.4,MacIntel,59.99880002,Chrome,1440,900,,,,,0,621,,,,,,,,,,,,,,,,,125,W,triangle,1,0,,,,,,,,,,,,,,,,repeat,number,numRpt,d,0.796,noRew,,,,,,0,53,0,53,0,1,,,,,,,,,,,,,,,,,
292384,2022-11-30_09h05.49.561,vts_reward_expectancy_bt,2022.2.4,MacIntel,59.99880002,Chrome,1440,900,,,,,0,621,,,,,,,,,,,,,,,,,132,B,hexagon,1,0,,,,,,,,,,,,,,,,repeat,number,numRpt,d,1.3478,noRew,,,,,,0,54,0,54,0,1,,,,,,,,,,,,,,,,,
292384,2022-11-30_09h05.49.561,vts_reward_expectancy_bt,2022.2.4,MacIntel,59.99880002,Chrome,1440,900,,,,,0,621,,,,,,,,,,,,,,,,,139,H,circle,1,0,,,,,,,,,,,,,,,,repeat,number,numRpt,d,0.7803,noRew,,,,,,0,55,0,55,0,1,,,,,,,,,,,,,,,,,
292384,2022-11-30_09h05.49.561,vts_reward_expectancy_bt,2022.2.4,MacIntel,59.99880002,Chrome,1440,900,,,,,0,621,,,,,,,,,,,,,,,,,167,S,circle,1,0,,,,,,,,,,,,,,,,repeat,number,numRpt,f,0.8465,noRew,,,,,,0,56,0,56,0,1,,,,,,,,,,,,,,,,,
292384,2022-11-30_09h05.49.561,vts_reward_expectancy_bt,2022.2.4,MacIntel,59.99880002,Chrome,1440,900,,,,,0,621,,,,,,,,,,,,,,,,,181,D,hexagon,1,0,,,,,,,,,,,,,,,,repeat,number,numRpt,f,0.5808,noRew,,,,,,0,57,0,57,0,1,,,,,,,,,,,,,,,,,
292384,2022-11-30_09h05.49.561,vts_reward_expectancy_bt,2022.2.4,MacIntel,59.99880002,Chrome,1440,900,,,,,0,621,,,,,,,,,,,,,,,,,160,Y,circle,1,0,,,,,,,,,,,,,,,,repeat,number,numRpt,f,0.7973,noRew,,,,,,0,58,0,58,0,1,,,,,,,,,,,,,,,,,
292384,2022-11-30_09h05.49.561,vts_reward_expectancy_bt,2022.2.4,MacIntel,59.99880002,Chrome,1440,900,,,,,0,621,,,,,,,,,,,,,,,,,132,B,hexagon,1,0,,,,,,,,,,,,,,,,switch,letter,lettSwt,j,1.4768,noRew,,,,,,0,59,0,59,0,1,,,,,,,,,,,,,,,,,
292384,2022-11-30_09h05.49.561,vts_reward_expectancy_bt,2022.2.4,MacIntel,59.99880002,Chrome,1440,900,,,,,0,621,,,,,,,,,,,,,,,,,146,H,triangle,1,0,,,,,,,,,,,,,,,,repeat,letter,lettRpt,j,1.0138,noRew,,,,,,0,60,0,60,0,1,,,,,,,,,,,,,,,,,
292384,2022-11-30_09h05.49.561,vts_reward_expectancy_bt,2022.2.4,MacIntel,59.99880002,Chrome,1440,900,,,,,0,621,,,,,,,,,,,,,,,,,167,S,hexagon,1,0,,,,,,,,,,,,,,,,repeat,letter,lettRpt,k,2.0831,noRew,,,,,,0,61,0,61,0,1,,,,,,,,,,,,,,,,,
292384,2022-11-30_09h05.49.561,vts_reward_expectancy_bt,2022.2.4,MacIntel,59.99880002,Chrome,1440,900,,,,,0,621,,,,,,,,,,,,,,,,,181,D,triangle,1,0,,,,,,,,,,,,,,,,repeat,letter,lettRpt,j,1.2953,noRew,,,,,,0,62,0,62,0,1,,,,,,,,,,,,,,,,,
292384,2022-11-30_09h05.49.561,vts_reward_expectancy_bt,2022.2.4,MacIntel,59.99880002,Chrome,1440,900,,,,,0,621,,,,,,,,,,,,,,,,,132,F,star,1,0,,,,,,,,,,,,,,,,repeat,letter,lettRpt,j,0.9313,noRew,,,,,,0,63,0,63,0,1,,,,,,,,,,,,,,,,,
292384,2022-11-30_09h05.49.561,vts_reward_expectancy_bt,2022.2.4,MacIntel,59.99880002,Chrome,1440,900,,,,,,,,,,,,,,,,,,,,,,,,,,,,,,,,,,,,,,,,,,,,,,,,,,,,,,,,,,,,,,,,,,,,,,,,,,,,
292384,2022-11-30_09h05.49.561,vts_reward_expectancy_bt,2022.2.4,MacIntel,59.99880002,Chrome,1440,900,,,,,0,621,,,,,,,,,,,,,,,,,146,D,triangle,1,0,,,,,,,,,,,,,,,,switch,number,numSwt,d,0.9152,Hi,,,,,,0,,,,,,space,6.0326,low,0,0,0,0,1,,,,,,,,,
292384,2022-11-30_09h05.49.561,vts_reward_expectancy_bt,2022.2.4,MacIntel,59.99880002,Chrome,1440,900,,,,,1,622,,,,,,,,,,,,,,,,,139,S,circle,1,0,,,,,,,,,,,,,,,,repeat,number,numRpt,d,0.6663,Lo,,,,,,0,,,,,,,,low,1,0,1,0,1,,,,,,,,,
292384,2022-11-30_09h05.49.561,vts_reward_expectancy_bt,2022.2.4,MacIntel,59.99880002,Chrome,1440,900,,,,,0,622,,,,,,,,,,,,,,,,,125,F,hexagon,1,0,,,,,,,,,,,,,,,,repeat,number,numRpt,d,1.3111,Hi,,,,,,0,,,,,,,,low,2,0,2,0,1,,,,,,,,,
292384,2022-11-30_09h05.49.561,vts_reward_expectancy_bt,2022.2.4,MacIntel,59.99880002,Chrome,1440,900,,,,,10,632,,,,,,,,,,,,,,,,,160,W,star,1,0,,,,,,,,,,,,,,,,repeat,number,numRpt,f,0.7458,Lo,,,,,,0,,,,,,,,low,3,0,3,0,1,,,,,,,,,
292384,2022-11-30_09h05.49.561,vts_reward_expectancy_bt,2022.2.4,MacIntel,59.99880002,Chrome,1440,900,,,,,1,633,,,,,,,,,,,,,,,,,132,U,triangle,1,0,,,,,,,,,,,,,,,,switch,letter,lettSwt,k,0.7133,Hi,,,,,,0,,,,,,,,low,4,0,4,0,1,,,,,,,,,
292384,2022-11-30_09h05.49.561,vts_reward_expectancy_bt,2022.2.4,MacIntel,59.99880002,Chrome,1440,900,,,,,1,634,,,,,,,,,,,,,,,,,167,B,circle,1,0,,,,,,,,,,,,,,,,repeat,letter,lettRpt,j,0.7135,Lo,,,,,,0,,,,,,,,low,5,0,5,0,1,,,,,,,,,
292384,2022-11-30_09h05.49.561,vts_reward_expectancy_bt,2022.2.4,MacIntel,59.99880002,Chrome,1440,900,,,,,10,644,,,,,,,,,,,,,,,,,174,H,hexagon,1,0,,,,,,,,,,,,,,,,repeat,letter,lettRpt,j,0.4808,Hi,,,,,,0,,,,,,,,low,6,0,6,0,1,,,,,,,,,
292384,2022-11-30_09h05.49.561,vts_reward_expectancy_bt,2022.2.4,MacIntel,59.99880002,Chrome,1440,900,,,,,10,654,,,,,,,,,,,,,,,,,181,Y,star,1,0,,,,,,,,,,,,,,,,switch,number,numSwt,f,0.6201,Lo,,,,,,0,,,,,,,,low,7,0,7,0,1,,,,,,,,,
292384,2022-11-30_09h05.49.561,vts_reward_expectancy_bt,2022.2.4,MacIntel,59.99880002,Chrome,1440,900,,,,,1,655,,,,,,,,,,,,,,,,,146,D,hexagon,1,0,,,,,,,,,,,,,,,,switch,letter,lettSwt,j,0.5896,Hi,,,,,,0,,,,,,,,low,8,0,8,0,1,,,,,,,,,
292384,2022-11-30_09h05.49.561,vts_reward_expectancy_bt,2022.2.4,MacIntel,59.99880002,Chrome,1440,900,,,,,10,665,,,,,,,,,,,,,,,,,139,S,star,1,0,,,,,,,,,,,,,,,,repeat,letter,lettRpt,k,0.7466,Lo,,,,,,0,,,,,,,,low,9,0,9,0,1,,,,,,,,,
292384,2022-11-30_09h05.49.561,vts_reward_expectancy_bt,2022.2.4,MacIntel,59.99880002,Chrome,1440,900,,,,,1,666,,,,,,,,,,,,,,,,,125,F,circle,1,0,,,,,,,,,,,,,,,,switch,number,numSwt,d,0.53,Lo,,,,,,0,,,,,,,,low,10,0,10,0,1,,,,,,,,,
292384,2022-11-30_09h05.49.561,vts_reward_expectancy_bt,2022.2.4,MacIntel,59.99880002,Chrome,1440,900,,,,,0,666,,,,,,,,,,,,,,,,,160,W,triangle,1,0,,,,,,,,,,,,,,,,switch,letter,lettSwt,k,0.8066,Hi,,,,,,0,,,,,,,,low,11,0,11,0,1,,,,,,,,,
292384,2022-11-30_09h05.49.561,vts_reward_expectancy_bt,2022.2.4,MacIntel,59.99880002,Chrome,1440,900,,,,,10,676,,,,,,,,,,,,,,,,,132,U,hexagon,1,0,,,,,,,,,,,,,,,,repeat,letter,lettRpt,k,0.272,Hi,,,,,,0,,,,,,,,low,12,0,12,0,1,,,,,,,,,
292384,2022-11-30_09h05.49.561,vts_reward_expectancy_bt,2022.2.4,MacIntel,59.99880002,Chrome,1440,900,,,,,1,677,,,,,,,,,,,,,,,,,167,B,circle,1,0,,,,,,,,,,,,,,,,repeat,letter,lettRpt,j,0.4954,Lo,,,,,,0,,,,,,,,low,13,0,13,0,1,,,,,,,,,
292384,2022-11-30_09h05.49.561,vts_reward_expectancy_bt,2022.2.4,MacIntel,59.99880002,Chrome,1440,900,,,,,10,687,,,,,,,,,,,,,,,,,174,H,triangle,1,0,,,,,,,,,,,,,,,,switch,number,numSwt,f,0.5691,Hi,,,,,,0,,,,,,,,low,14,0,14,0,1,,,,,,,,,
292384,2022-11-30_09h05.49.561,vts_reward_expectancy_bt,2022.2.4,MacIntel,59.99880002,Chrome,1440,900,,,,,10,697,,,,,,,,,,,,,,,,,181,Y,star,1,0,,,,,,,,,,,,,,,,switch,letter,lettSwt,k,0.5477,Lo,,,,,,0,,,,,,,,low,15,0,15,0,1,,,,,,,,,
292384,2022-11-30_09h05.49.561,vts_reward_expectancy_bt,2022.2.4,MacIntel,59.99880002,Chrome,1440,900,,,,,10,707,,,,,,,,,,,,,,,,,167,Y,star,1,0,,,,,,,,,,,,,,,,repeat,letter,lettRpt,k,0.4493,Lo,,,,,,0,,,,,,,,low,16,0,16,0,1,,,,,,,,,
292384,2022-11-30_09h05.49.561,vts_reward_expectancy_bt,2022.2.4,MacIntel,59.99880002,Chrome,1440,900,,,,,1,708,,,,,,,,,,,,,,,,,139,W,hexagon,1,0,,,,,,,,,,,,,,,,switch,number,numSwt,d,0.4971,Hi,,,,,,0,,,,,,,,low,17,0,17,0,1,,,,,,,,,
292384,2022-11-30_09h05.49.561,vts_reward_expectancy_bt,2022.2.4,MacIntel,59.99880002,Chrome,1440,900,,,,,1,709,,,,,,,,,,,,,,,,,174,F,circle,1,0,,,,,,,,,,,,,,,,repeat,number,numRpt,f,0.4804,Lo,,,,,,0,,,,,,,,low,18,0,18,0,1,,,,,,,,,
292384,2022-11-30_09h05.49.561,vts_reward_expectancy_bt,2022.2.4,MacIntel,59.99880002,Chrome,1440,900,,,,,1,710,,,,,,,,,,,,,,,,,160,U,triangle,1,0,,,,,,,,,,,,,,,,repeat,number,numRpt,f,0.5528,Hi,,,,,,0,,,,,,,,low,19,0,19,0,1,,,,,,,,,
292384,2022-11-30_09h05.49.561,vts_reward_expectancy_bt,2022.2.4,MacIntel,59.99880002,Chrome,1440,900,,,,,0,710,,,,,,,,,,,,,,,,,146,S,hexagon,1,0,,,,,,,,,,,,,,,,repeat,number,numRpt,d,0.846,Hi,,,,,,0,,,,,,,,low,20,0,20,0,1,,,,,,,,,
292384,2022-11-30_09h05.49.561,vts_reward_expectancy_bt,2022.2.4,MacIntel,59.99880002,Chrome,1440,900,,,,,1,711,,,,,,,,,,,,,,,,,181,B,circle,1,0,,,,,,,,,,,,,,,,repeat,number,numRpt,f,0.5052,Lo,,,,,,0,,,,,,,,low,21,0,21,0,1,,,,,,,,,
292384,2022-11-30_09h05.49.561,vts_reward_expectancy_bt,2022.2.4,MacIntel,59.99880002,Chrome,1440,900,,,,,10,721,,,,,,,,,,,,,,,,,125,H,star,1,0,,,,,,,,,,,,,,,,repeat,number,numRpt,d,0.5128,Lo,,,,,,0,,,,,,,,low,22,0,22,0,1,,,,,,,,,
292384,2022-11-30_09h05.49.561,vts_reward_expectancy_bt,2022.2.4,MacIntel,59.99880002,Chrome,1440,900,,,,,0,721,,,,,,,,,,,,,,,,,132,D,triangle,1,0,,,,,,,,,,,,,,,,repeat,number,numRpt,d,0.8971,Hi,,,,,,0,,,,,,,,low,23,0,23,0,1,,,,,,,,,
292384,2022-11-30_09h05.49.561,vts_reward_expectancy_bt,2022.2.4,MacIntel,59.99880002,Chrome,1440,900,,,,,0,721,,,,,,,,,,,,,,,,,139,H,star,0,0,,,,,,,,,,,,,,,,switch,letter,NA,k,0.9394,Hi,,,,,,0,,,,,,,,low,24,0,24,0,1,,,,,,,,,
292384,2022-11-30_09h05.49.561,vts_reward_expectancy_bt,2022.2.4,MacIntel,59.99880002,Chrome,1440,900,,,,,10,731,,,,,,,,,,,,,,,,,160,S,circle,1,1,,,,,,,,,,,,,,,,repeat,letter,lettRpt,k,0.7471,Lo,,,,,,0,,,,,,,,low,25,0,25,0,1,,,,,,,,,
292384,2022-11-30_09h05.49.561,vts_reward_expectancy_bt,2022.2.4,MacIntel,59.99880002,Chrome,1440,900,,,,,10,741,,,,,,,,,,,,,,,,,146,Y,hexagon,1,0,,,,,,,,,,,,,,,,repeat,letter,lettRpt,k,0.6229,Hi,,,,,,0,,,,,,,,low,26,0,26,0,1,,,,,,,,,
292384,2022-11-30_09h05.49.561,vts_reward_expectancy_bt,2022.2.4,MacIntel,59.99880002,Chrome,1440,900,,,,,0,741,,,,,,,,,,,,,,,,,132,F,triangle,1,0,,,,,,,,,,,,,,,,repeat,letter,lettRpt,j,1.381,Hi,,,,,,0,,,,,,,,low,27,0,27,0,1,,,,,,,,,
292384,2022-11-30_09h05.49.561,vts_reward_expectancy_bt,2022.2.4,MacIntel,59.99880002,Chrome,1440,900,,,,,10,751,,,,,,,,,,,,,,,,,167,W,circle,1,0,,,,,,,,,,,,,,,,repeat,letter,lettRpt,k,0.5535,Lo,,,,,,0,,,,,,,,low,28,0,28,0,1,,,,,,,,,
292384,2022-11-30_09h05.49.561,vts_reward_expectancy_bt,2022.2.4,MacIntel,59.99880002,Chrome,1440,900,,,,,1,752,,,,,,,,,,,,,,,,,174,B,star,1,0,,,,,,,,,,,,,,,,repeat,letter,lettRpt,j,0.6197,Lo,,,,,,0,,,,,,,,low,29,0,29,0,1,,,,,,,,,
292384,2022-11-30_09h05.49.561,vts_reward_expectancy_bt,2022.2.4,MacIntel,59.99880002,Chrome,1440,900,,,,,10,762,,,,,,,,,,,,,,,,,125,U,triangle,1,0,,,,,,,,,,,,,,,,repeat,letter,lettRpt,k,0.5289,Hi,,,,,,0,,,,,,,,low,30,0,30,0,1,,,,,,,,,
292384,2022-11-30_09h05.49.561,vts_reward_expectancy_bt,2022.2.4,MacIntel,59.99880002,Chrome,1440,900,,,,,1,763,,,,,,,,,,,,,,,,,181,D,hexagon,1,0,,,,,,,,,,,,,,,,switch,number,numSwt,f,0.5146,Hi,,,,,,0,,,,,,,,low,31,0,31,0,1,,,,,,,,,
292384,2022-11-30_09h05.49.561,vts_reward_expectancy_bt,2022.2.4,MacIntel,59.99880002,Chrome,1440,900,,,,,0,763,,,,,,,,,,,,,,,,,146,F,hexagon,1,0,,,,,,,,,,,,,,,,repeat,number,numRpt,d,0.6209,Hi,,,,,,1,,,,,,space,1.4561,low,0,0,0,0,1,,,,,,,,,
292384,2022-11-30_09h05.49.561,vts_reward_expectancy_bt,2022.2.4,MacIntel,59.99880002,Chrome,1440,900,,,,,10,773,,,,,,,,,,,,,,,,,181,B,star,1,0,,,,,,,,,,,,,,,,repeat,number,numRpt,f,0.5037,Lo,,,,,,1,,,,,,,,low,1,0,1,0,1,,,,,,,,,
292384,2022-11-30_09h05.49.561,vts_reward_expectancy_bt,2022.2.4,MacIntel,59.99880002,Chrome,1440,900,,,,,1,774,,,,,,,,,,,,,,,,,167,Y,triangle,1,0,,,,,,,,,,,,,,,,switch,letter,lettSwt,k,0.4767,Hi,,,,,,1,,,,,,,,low,2,0,2,0,1,,,,,,,,,
292384,2022-11-30_09h05.49.561,vts_reward_expectancy_bt,2022.2.4,MacIntel,59.99880002,Chrome,1440,900,,,,,1,775,,,,,,,,,,,,,,,,,139,W,circle,1,0,,,,,,,,,,,,,,,,repeat,letter,lettRpt,k,0.6599,Lo,,,,,,1,,,,,,,,low,3,0,3,0,1,,,,,,,,,
292384,2022-11-30_09h05.49.561,vts_reward_expectancy_bt,2022.2.4,MacIntel,59.99880002,Chrome,1440,900,,,,,0,775,,,,,,,,,,,,,,,,,132,H,hexagon,1,0,,,,,,,,,,,,,,,,repeat,letter,lettRpt,j,0.7513,Hi,,,,,,1,,,,,,,,low,4,0,4,0,1,,,,,,,,,
292384,2022-11-30_09h05.49.561,vts_reward_expectancy_bt,2022.2.4,MacIntel,59.99880002,Chrome,1440,900,,,,,1,776,,,,,,,,,,,,,,,,,160,D,star,1,0,,,,,,,,,,,,,,,,repeat,letter,lettRpt,j,0.589,Lo,,,,,,1,,,,,,,,low,5,0,5,0,1,,,,,,,,,
292384,2022-11-30_09h05.49.561,vts_reward_expectancy_bt,2022.2.4,MacIntel,59.99880002,Chrome,1440,900,,,,,0,776,,,,,,,,,,,,,,,,,174,U,triangle,1,0,,,,,,,,,,,,,,,,switch,number,numSwt,f,0.5485,Hi,,,,,,1,,,,,,,,low,6,0,6,0,1,,,,,,,,,
292384,2022-11-30_09h05.49.561,vts_reward_expectancy_bt,2022.2.4,MacIntel,59.99880002,Chrome,1440,900,,,,,10,786,,,,,,,,,,,,,,,,,125,S,circle,1,0,,,,,,,,,,,,,,,,repeat,number,numRpt,d,0.5479,Lo,,,,,,1,,,,,,,,low,7,0,7,0,1,,,,,,,,,
292384,2022-11-30_09h05.49.561,vts_reward_expectancy_bt,2022.2.4,MacIntel,59.99880002,Chrome,1440,900,,,,,0,786,,,,,,,,,,,,,,,,,146,F,hexagon,1,0,,,,,,,,,,,,,,,,repeat,number,numRpt,d,0.6695,Hi,,,,,,1,,,,,,,,low,8,0,8,0,1,,,,,,,,,
292384,2022-11-30_09h05.49.561,vts_reward_expectancy_bt,2022.2.4,MacIntel,59.99880002,Chrome,1440,900,,,,,1,787,,,,,,,,,,,,,,,,,181,B,circle,1,0,,,,,,,,,,,,,,,,repeat,number,numRpt,f,0.5792,Lo,,,,,,1,,,,,,,,low,9,0,9,0,1,,,,,,,,,
292384,2022-11-30_09h05.49.561,vts_reward_expectancy_bt,2022.2.4,MacIntel,59.99880002,Chrome,1440,900,,,,,0,787,,,,,,,,,,,,,,,,,167,Y,triangle,1,0,,,,,,,,,,,,,,,,repeat,number,numRpt,f,0.638,Hi,,,,,,1,,,,,,,,low,10,0,10,0,1,,,,,,,,,
292384,2022-11-30_09h05.49.561,vts_reward_expectancy_bt,2022.2.4,MacIntel,59.99880002,Chrome,1440,900,,,,,1,788,,,,,,,,,,,,,,,,,139,W,star,1,0,,,,,,,,,,,,,,,,repeat,number,numRpt,d,0.5458,Lo,,,,,,1,,,,,,,,low,11,0,11,0,1,,,,,,,,,
292384,2022-11-30_09h05.49.561,vts_reward_expectancy_bt,2022.2.4,MacIntel,59.99880002,Chrome,1440,900,,,,,1,789,,,,,,,,,,,,,,,,,132,H,circle,1,0,,,,,,,,,,,,,,,,repeat,number,numRpt,d,0.8689,Lo,,,,,,1,,,,,,,,low,12,0,12,0,1,,,,,,,,,
292384,2022-11-30_09h05.49.561,vts_reward_expectancy_bt,2022.2.4,MacIntel,59.99880002,Chrome,1440,900,,,,,0,789,,,,,,,,,,,,,,,,,160,D,triangle,1,0,,,,,,,,,,,,,,,,switch,letter,lettSwt,j,0.6836,Hi,,,,,,1,,,,,,,,low,13,0,13,0,1,,,,,,,,,
292384,2022-11-30_09h05.49.561,vts_reward_expectancy_bt,2022.2.4,MacIntel,59.99880002,Chrome,1440,900,,,,,1,790,,,,,,,,,,,,,,,,,174,U,star,1,0,,,,,,,,,,,,,,,,repeat,letter,lettRpt,k,0.6139,Lo,,,,,,1,,,,,,,,low,14,0,14,0,1,,,,,,,,,
292384,2022-11-30_09h05.49.561,vts_reward_expectancy_bt,2022.2.4,MacIntel,59.99880002,Chrome,1440,900,,,,,0,790,,,,,,,,,,,,,,,,,125,S,hexagon,0,0,,,,,,,,,,,,,,,,repeat,letter,NA,j,0.514,Lo,,,,,,1,,,,,,,,low,15,0,15,0,1,,,,,,,,,
292384,2022-11-30_09h05.49.561,vts_reward_expectancy_bt,2022.2.4,MacIntel,59.99880002,Chrome,1440,900,,,,,10,800,,,,,,,,,,,,,,,,,181,D,circle,1,1,,,,,,,,,,,,,,,,repeat,letter,lettRpt,j,0.6634,Lo,,,,,,1,,,,,,,,low,16,0,16,0,1,,,,,,,,,
292384,2022-11-30_09h05.49.561,vts_reward_expectancy_bt,2022.2.4,MacIntel,59.99880002,Chrome,1440,900,,,,,0,800,,,,,,,,,,,,,,,,,132,S,hexagon,1,0,,,,,,,,,,,,,,,,switch,number,numSwt,d,0.613,Hi,,,,,,1,,,,,,,,low,17,0,17,0,1,,,,,,,,,
292384,2022-11-30_09h05.49.561,vts_reward_expectancy_bt,2022.2.4,MacIntel,59.99880002,Chrome,1440,900,,,,,1,801,,,,,,,,,,,,,,,,,160,H,star,1,0,,,,,,,,,,,,,,,,repeat,number,numRpt,f,0.7023,Lo,,,,,,1,,,,,,,,low,18,0,18,0,1,,,,,,,,,
292384,2022-11-30_09h05.49.561,vts_reward_expectancy_bt,2022.2.4,MacIntel,59.99880002,Chrome,1440,900,,,,,0,801,,,,,,,,,,,,,,,,,125,W,triangle,1,0,,,,,,,,,,,,,,,,repeat,number,numRpt,d,0.9028,Hi,,,,,,1,,,,,,,,low,19,0,19,0,1,,,,,,,,,
292384,2022-11-30_09h05.49.561,vts_reward_expectancy_bt,2022.2.4,MacIntel,59.99880002,Chrome,1440,900,,,,,10,811,,,,,,,,,,,,,,,,,174,B,circle,1,0,,,,,,,,,,,,,,,,repeat,number,numRpt,f,0.8785,Lo,,,,,,1,,,,,,,,low,20,0,20,0,1,,,,,,,,,
292384,2022-11-30_09h05.49.561,vts_reward_expectancy_bt,2022.2.4,MacIntel,59.99880002,Chrome,1440,900,,,,,1,812,,,,,,,,,,,,,,,,,146,U,star,1,0,,,,,,,,,,,,,,,,repeat,number,numRpt,d,0.6165,Lo,,,,,,1,,,,,,,,low,21,0,21,0,1,,,,,,,,,
292384,2022-11-30_09h05.49.561,vts_reward_expectancy_bt,2022.2.4,MacIntel,59.99880002,Chrome,1440,900,,,,,0,812,,,,,,,,,,,,,,,,,139,Y,hexagon,1,0,,,,,,,,,,,,,,,,repeat,number,numRpt,d,0.8131,Hi,,,,,,1,,,,,,,,low,22,0,22,0,1,,,,,,,,,
292384,2022-11-30_09h05.49.561,vts_reward_expectancy_bt,2022.2.4,MacIntel,59.99880002,Chrome,1440,900,,,,,0,812,,,,,,,,,,,,,,,,,167,F,triangle,1,0,,,,,,,,,,,,,,,,repeat,number,numRpt,f,0.5466,Hi,,,,,,1,,,,,,,,low,23,0,23,0,1,,,,,,,,,
292384,2022-11-30_09h05.49.561,vts_reward_expectancy_bt,2022.2.4,MacIntel,59.99880002,Chrome,1440,900,,,,,10,822,,,,,,,,,,,,,,,,,167,H,hexagon,1,0,,,,,,,,,,,,,,,,repeat,number,numRpt,f,0.3758,Hi,,,,,,1,,,,,,,,low,24,0,24,0,1,,,,,,,,,
292384,2022-11-30_09h05.49.561,vts_reward_expectancy_bt,2022.2.4,MacIntel,59.99880002,Chrome,1440,900,,,,,1,823,,,,,,,,,,,,,,,,,160,B,star,1,0,,,,,,,,,,,,,,,,repeat,number,numRpt,f,0.7139,Lo,,,,,,1,,,,,,,,low,25,0,25,0,1,,,,,,,,,
292384,2022-11-30_09h05.49.561,vts_reward_expectancy_bt,2022.2.4,MacIntel,59.99880002,Chrome,1440,900,,,,,0,823,,,,,,,,,,,,,,,,,125,D,triangle,1,0,,,,,,,,,,,,,,,,repeat,number,numRpt,d,0.7124,Hi,,,,,,1,,,,,,,,low,26,0,26,0,1,,,,,,,,,
292384,2022-11-30_09h05.49.561,vts_reward_expectancy_bt,2022.2.4,MacIntel,59.99880002,Chrome,1440,900,,,,,10,833,,,,,,,,,,,,,,,,,181,S,circle,1,0,,,,,,,,,,,,,,,,repeat,number,numRpt,f,0.4882,Lo,,,,,,1,,,,,,,,low,27,0,27,0,1,,,,,,,,,
292384,2022-11-30_09h05.49.561,vts_reward_expectancy_bt,2022.2.4,MacIntel,59.99880002,Chrome,1440,900,,,,,1,834,,,,,,,,,,,,,,,,,132,Y,circle,1,0,,,,,,,,,,,,,,,,repeat,number,numRpt,d,1.4888,Lo,,,,,,1,,,,,,,,low,28,0,28,0,1,,,,,,,,,
292384,2022-11-30_09h05.49.561,vts_reward_expectancy_bt,2022.2.4,MacIntel,59.99880002,Chrome,1440,900,,,,,0,834,,,,,,,,,,,,,,,,,174,W,triangle,1,0,,,,,,,,,,,,,,,,repeat,number,numRpt,f,0.8001,Hi,,,,,,1,,,,,,,,low,29,0,29,0,1,,,,,,,,,
292384,2022-11-30_09h05.49.561,vts_reward_expectancy_bt,2022.2.4,MacIntel,59.99880002,Chrome,1440,900,,,,,0,834,,,,,,,,,,,,,,,,,139,U,hexagon,1,0,,,,,,,,,,,,,,,,repeat,number,numRpt,d,0.6306,Hi,,,,,,1,,,,,,,,low,30,0,30,0,1,,,,,,,,,
292384,2022-11-30_09h05.49.561,vts_reward_expectancy_bt,2022.2.4,MacIntel,59.99880002,Chrome,1440,900,,,,,0,834,,,,,,,,,,,,,,,,,146,F,star,0,0,,,,,,,,,,,,,,,,repeat,number,NA,f,0.6693,Hi,,,,,,1,,,,,,,,low,31,0,31,0,1,,,,,,,,,
292384,2022-11-30_09h05.49.561,vts_reward_expectancy_bt,2022.2.4,MacIntel,59.99880002,Chrome,1440,900,,,,,0,834,,,,,,,,,,,,,,,,,146,B,hexagon,1,1,,,,,,,,,,,,,,,,repeat,number,numRpt,d,0.6813,Hi,,,,,,2,,,,,,space,11.7206,low,0,0,0,0,1,,,,,,,,,
292384,2022-11-30_09h05.49.561,vts_reward_expectancy_bt,2022.2.4,MacIntel,59.99880002,Chrome,1440,900,,,,,10,844,,,,,,,,,,,,,,,,,167,W,triangle,1,0,,,,,,,,,,,,,,,,repeat,number,numRpt,f,0.5648,Hi,,,,,,2,,,,,,,,low,1,0,1,0,1,,,,,,,,,
292384,2022-11-30_09h05.49.561,vts_reward_expectancy_bt,2022.2.4,MacIntel,59.99880002,Chrome,1440,900,,,,,1,845,,,,,,,,,,,,,,,,,181,U,star,1,0,,,,,,,,,,,,,,,,repeat,number,numRpt,f,1.1824,Lo,,,,,,2,,,,,,,,low,2,0,2,0,1,,,,,,,,,
292384,2022-11-30_09h05.49.561,vts_reward_expectancy_bt,2022.2.4,MacIntel,59.99880002,Chrome,1440,900,,,,,10,855,,,,,,,,,,,,,,,,,139,F,circle,1,0,,,,,,,,,,,,,,,,repeat,number,numRpt,d,0.9629,Lo,,,,,,2,,,,,,,,low,3,0,3,0,1,,,,,,,,,
292384,2022-11-30_09h05.49.561,vts_reward_expectancy_bt,2022.2.4,MacIntel,59.99880002,Chrome,1440,900,,,,,0,855,,,,,,,,,,,,,,,,,132,D,hexagon,1,0,,,,,,,,,,,,,,,,repeat,number,numRpt,d,0.6789,Hi,,,,,,2,,,,,,,,low,4,0,4,0,1,,,,,,,,,
292384,2022-11-30_09h05.49.561,vts_reward_expectancy_bt,2022.2.4,MacIntel,59.99880002,Chrome,1440,900,,,,,0,855,,,,,,,,,,,,,,,,,174,H,triangle,1,0,,,,,,,,,,,,,,,,repeat,number,numRpt,f,0.8814,Hi,,,,,,2,,,,,,,,low,5,0,5,0,1,,,,,,,,,
292384,2022-11-30_09h05.49.561,vts_reward_expectancy_bt,2022.2.4,MacIntel,59.99880002,Chrome,1440,900,,,,,1,856,,,,,,,,,,,,,,,,,125,S,star,1,0,,,,,,,,,,,,,,,,repeat,number,numRpt,d,2.4144,Lo,,,,,,2,,,,,,,,low,6,0,6,0,1,,,,,,,,,
292384,2022-11-30_09h05.49.561,vts_reward_expectancy_bt,2022.2.4,MacIntel,59.99880002,Chrome,1440,900,,,,,0,856,,,,,,,,,,,,,,,,,160,Y,circle,-1,0,,,,,,,,,,,,,,,,switch,no_choice,NA,,,Lo,,,,,,2,,,,,,,,low,7,0,7,0,1,,,,,,,,,
292384,2022-11-30_09h05.49.561,vts_reward_expectancy_bt,2022.2.4,MacIntel,59.99880002,Chrome,1440,900,,,,,0,856,,,,,,,,,,,,,,,,,146,B,triangle,1,0,,,,,,,,,,,,,,,,switch,number,numSwt,d,0.9009,Hi,,,,,,2,,,,,,,,low,8,0,8,0,1,,,,,,,,,
292384,2022-11-30_09h05.49.561,vts_reward_expectancy_bt,2022.2.4,MacIntel,59.99880002,Chrome,1440,900,,,,,1,857,,,,,,,,,,,,,,,,,167,W,star,1,0,,,,,,,,,,,,,,,,switch,letter,lettSwt,k,0.9808,Lo,,,,,,2,,,,,,,,low,9,0,9,0,1,,,,,,,,,
292384,2022-11-30_09h05.49.561,vts_reward_expectancy_bt,2022.2.4,MacIntel,59.99880002,Chrome,1440,900,,,,,0,857,,,,,,,,,,,,,,,,,181,U,hexagon,0,0,,,,,,,,,,,,,,,,repeat,letter,NA,j,0.2612,Lo,,,,,,2,,,,,,,,low,10,0,10,0,1,,,,,,,,,
292384,2022-11-30_09h05.49.561,vts_reward_expectancy_bt,2022.2.4,MacIntel,59.99880002,Chrome,1440,900,,,,,1,858,,,,,,,,,,,,,,,,,139,F,circle,1,1,,,,,,,,,,,,,,,,repeat,letter,lettRpt,j,0.6709,Lo,,,,,,2,,,,,,,,low,11,0,11,0,1,,,,,,,,,
292384,2022-11-30_09h05.49.561,vts_reward_expectancy_bt,2022.2.4,MacIntel,59.99880002,Chrome,1440,900,,,,,0,858,,,,,,,,,,,,,,,,,132,D,triangle,1,0,,,,,,,,,,,,,,,,repeat,letter,lettRpt,j,1.35,Hi,,,,,,2,,,,,,,,low,12,0,12,0,1,,,,,,,,,
292384,2022-11-30_09h05.49.561,vts_reward_expectancy_bt,2022.2.4,MacIntel,59.99880002,Chrome,1440,900,,,,,0,858,,,,,,,,,,,,,,,,,174,H,hexagon,1,0,,,,,,,,,,,,,,,,repeat,letter,lettRpt,j,0.7195,Hi,,,,,,2,,,,,,,,low,13,0,13,0,1,,,,,,,,,
292384,2022-11-30_09h05.49.561,vts_reward_expectancy_bt,2022.2.4,MacIntel,59.99880002,Chrome,1440,900,,,,,0,858,,,,,,,,,,,,,,,,,125,S,star,-1,0,,,,,,,,,,,,,,,,switch,no_choice,NA,,,Hi,,,,,,2,,,,,,,,low,14,0,14,0,1,,,,,,,,,
292384,2022-11-30_09h05.49.561,vts_reward_expectancy_bt,2022.2.4,MacIntel,59.99880002,Chrome,1440,900,,,,,1,859,,,,,,,,,,,,,,,,,160,Y,circle,1,0,,,,,,,,,,,,,,,,switch,letter,lettSwt,k,2.0295,Lo,,,,,,2,,,,,,,,low,15,0,15,0,1,,,,,,,,,
292384,2022-11-30_09h05.49.561,vts_reward_expectancy_bt,2022.2.4,MacIntel,59.99880002,Chrome,1440,900,,,,,10,869,,,,,,,,,,,,,,,,,146,S,star,1,0,,,,,,,,,,,,,,,,repeat,letter,lettRpt,k,1.2861,Lo,,,,,,2,,,,,,,,low,16,0,16,0,1,,,,,,,,,
292384,2022-11-30_09h05.49.561,vts_reward_expectancy_bt,2022.2.4,MacIntel,59.99880002,Chrome,1440,900,,,,,0,869,,,,,,,,,,,,,,,,,174,B,hexagon,-1,0,,,,,,,,,,,,,,,,switch,no_choice,NA,,,Lo,,,,,,2,,,,,,,,low,17,0,17,0,1,,,,,,,,,
292384,2022-11-30_09h05.49.561,vts_reward_expectancy_bt,2022.2.4,MacIntel,59.99880002,Chrome,1440,900,,,,,1,870,,,,,,,,,,,,,,,,,181,Y,circle,1,0,,,,,,,,,,,,,,,,switch,letter,lettSwt,k,0.8844,Lo,,,,,,2,,,,,,,,low,18,0,18,0,1,,,,,,,,,
292384,2022-11-30_09h05.49.561,vts_reward_expectancy_bt,2022.2.4,MacIntel,59.99880002,Chrome,1440,900,,,,,0,870,,,,,,,,,,,,,,,,,167,D,triangle,0,0,,,,,,,,,,,,,,,,repeat,letter,NA,k,2.8465,Lo,,,,,,2,,,,,,,,low,19,0,19,0,1,,,,,,,,,
292384,2022-11-30_09h05.49.561,vts_reward_expectancy_bt,2022.2.4,MacIntel,59.99880002,Chrome,1440,900,,,,,10,880,,,,,,,,,,,,,,,,,132,U,star,1,1,,,,,,,,,,,,,,,,repeat,letter,lettRpt,k,1.1067,Lo,,,,,,2,,,,,,,,low,20,0,20,0,1,,,,,,,,,
292384,2022-11-30_09h05.49.561,vts_reward_expectancy_bt,2022.2.4,MacIntel,59.99880002,Chrome,1440,900,,,,,0,880,,,,,,,,,,,,,,,,,125,F,circle,0,0,,,,,,,,,,,,,,,,repeat,letter,NA,k,0.5806,Lo,,,,,,2,,,,,,,,low,21,0,21,0,1,,,,,,,,,
292384,2022-11-30_09h05.49.561,vts_reward_expectancy_bt,2022.2.4,MacIntel,59.99880002,Chrome,1440,900,,,,,0,880,,,,,,,,,,,,,,,,,160,H,hexagon,0,1,,,,,,,,,,,,,,,,repeat,letter,NA,k,1.0523,Lo,,,,,,2,,,,,,,,low,22,0,22,0,1,,,,,,,,,
292384,2022-11-30_09h05.49.561,vts_reward_expectancy_bt,2022.2.4,MacIntel,59.99880002,Chrome,1440,900,,,,,0,880,,,,,,,,,,,,,,,,,139,W,triangle,1,1,,,,,,,,,,,,,,,,repeat,letter,lettRpt,k,0.6305,Hi,,,,,,2,,,,,,,,low,23,0,23,0,1,,,,,,,,,
292384,2022-11-30_09h05.49.561,vts_reward_expectancy_bt,2022.2.4,MacIntel,59.99880002,Chrome,1440,900,,,,,1,881,,,,,,,,,,,,,,,,,174,F,circle,1,0,,,,,,,,,,,,,,,,switch,number,numSwt,f,1.017,Lo,,,,,,2,,,,,,,,low,24,0,24,0,1,,,,,,,,,
292384,2022-11-30_09h05.49.561,vts_reward_expectancy_bt,2022.2.4,MacIntel,59.99880002,Chrome,1440,900,,,,,0,881,,,,,,,,,,,,,,,,,132,D,triangle,1,0,,,,,,,,,,,,,,,,repeat,number,numRpt,d,0.6181,Hi,,,,,,2,,,,,,,,low,25,0,25,0,1,,,,,,,,,
292384,2022-11-30_09h05.49.561,vts_reward_expectancy_bt,2022.2.4,MacIntel,59.99880002,Chrome,1440,900,,,,,0,881,,,,,,,,,,,,,,,,,139,Y,hexagon,1,0,,,,,,,,,,,,,,,,repeat,number,numRpt,d,0.6826,Hi,,,,,,2,,,,,,,,low,26,0,26,0,1,,,,,,,,,
292384,2022-11-30_09h05.49.561,vts_reward_expectancy_bt,2022.2.4,MacIntel,59.99880002,Chrome,1440,900,,,,,10,891,,,,,,,,,,,,,,,,,160,B,star,1,0,,,,,,,,,,,,,,,,repeat,number,numRpt,f,0.547,Lo,,,,,,2,,,,,,,,low,27,0,27,0,1,,,,,,,,,
292384,2022-11-30_09h05.49.561,vts_reward_expectancy_bt,2022.2.4,MacIntel,59.99880002,Chrome,1440,900,,,,,0,891,,,,,,,,,,,,,,,,,125,S,hexagon,1,0,,,,,,,,,,,,,,,,repeat,number,numRpt,d,0.7377,Hi,,,,,,2,,,,,,,,low,28,0,28,0,1,,,,,,,,,
292384,2022-11-30_09h05.49.561,vts_reward_expectancy_bt,2022.2.4,MacIntel,59.99880002,Chrome,1440,900,,,,,0,891,,,,,,,,,,,,,,,,,167,H,triangle,1,0,,,,,,,,,,,,,,,,switch,letter,lettSwt,j,0.6641,Hi,,,,,,2,,,,,,,,low,29,0,29,0,1,,,,,,,,,
292384,2022-11-30_09h05.49.561,vts_reward_expectancy_bt,2022.2.4,MacIntel,59.99880002,Chrome,1440,900,,,,,1,892,,,,,,,,,,,,,,,,,146,W,star,1,0,,,,,,,,,,,,,,,,switch,number,numSwt,d,1.48,Lo,,,,,,2,,,,,,,,low,30,0,30,0,1,,,,,,,,,
292384,2022-11-30_09h05.49.561,vts_reward_expectancy_bt,2022.2.4,MacIntel,59.99880002,Chrome,1440,900,,,,,10,902,,,,,,,,,,,,,,,,,181,U,circle,1,0,,,,,,,,,,,,,,,,repeat,number,numRpt,f,1.062,Lo,,,,,,2,,,,,,,,low,31,0,31,0,1,,,,,,,,,
292384,2022-11-30_09h05.49.561,vts_reward_expectancy_bt,2022.2.4,MacIntel,59.99880002,Chrome,1440,900,,,,,1,903,,,,,,,,,,,,,,,,,139,W,circle,1,0,,,,,,,,,,,,,,,,repeat,number,numRpt,d,0.7049,Lo,,,,,,3,,,,,,space,0.6262,low,0,0,0,0,1,,,,,,,,,
292384,2022-11-30_09h05.49.561,vts_reward_expectancy_bt,2022.2.4,MacIntel,59.99880002,Chrome,1440,900,,,,,10,913,,,,,,,,,,,,,,,,,160,S,hexagon,1,0,,,,,,,,,,,,,,,,repeat,number,numRpt,f,0.6641,Hi,,,,,,3,,,,,,,,low,1,0,1,0,1,,,,,,,,,
292384,2022-11-30_09h05.49.561,vts_reward_expectancy_bt,2022.2.4,MacIntel,59.99880002,Chrome,1440,900,,,,,10,923,,,,,,,,,,,,,,,,,174,H,star,1,0,,,,,,,,,,,,,,,,repeat,number,numRpt,f,0.5811,Lo,,,,,,3,,,,,,,,low,2,0,2,0,1,,,,,,,,,
292384,2022-11-30_09h05.49.561,vts_reward_expectancy_bt,2022.2.4,MacIntel,59.99880002,Chrome,1440,900,,,,,0,923,,,,,,,,,,,,,,,,,146,F,triangle,1,0,,,,,,,,,,,,,,,,switch,letter,lettSwt,j,1.1377,Hi,,,,,,3,,,,,,,,low,3,0,3,0,1,,,,,,,,,
292384,2022-11-30_09h05.49.561,vts_reward_expectancy_bt,2022.2.4,MacIntel,59.99880002,Chrome,1440,900,,,,,10,933,,,,,,,,,,,,,,,,,181,D,circle,1,0,,,,,,,,,,,,,,,,repeat,letter,lettRpt,j,0.6791,Lo,,,,,,3,,,,,,,,low,4,0,4,0,1,,,,,,,,,
292384,2022-11-30_09h05.49.561,vts_reward_expectancy_bt,2022.2.4,MacIntel,59.99880002,Chrome,1440,900,,,,,0,933,,,,,,,,,,,,,,,,,167,U,hexagon,1,0,,,,,,,,,,,,,,,,repeat,letter,lettRpt,k,0.723,Hi,,,,,,3,,,,,,,,low,5,0,5,0,1,,,,,,,,,
292384,2022-11-30_09h05.49.561,vts_reward_expectancy_bt,2022.2.4,MacIntel,59.99880002,Chrome,1440,900,,,,,1,934,,,,,,,,,,,,,,,,,132,Y,star,1,0,,,,,,,,,,,,,,,,repeat,letter,lettRpt,k,0.5007,Lo,,,,,,3,,,,,,,,low,6,0,6,0,1,,,,,,,,,
292384,2022-11-30_09h05.49.561,vts_reward_expectancy_bt,2022.2.4,MacIntel,59.99880002,Chrome,1440,900,,,,,0,934,,,,,,,,,,,,,,,,,125,B,triangle,0,0,,,,,,,,,,,,,,,,repeat,letter,NA,k,0.55,Lo,,,,,,3,,,,,,,,low,7,0,7,0,1,,,,,,,,,
292384,2022-11-30_09h05.49.561,vts_reward_expectancy_bt,2022.2.4,MacIntel,59.99880002,Chrome,1440,900,,,,,10,944,,,,,,,,,,,,,,,,,139,W,circle,1,1,,,,,,,,,,,,,,,,repeat,letter,lettRpt,k,0.722,Lo,,,,,,3,,,,,,,,low,8,0,8,0,1,,,,,,,,,
292384,2022-11-30_09h05.49.561,vts_reward_expectancy_bt,2022.2.4,MacIntel,59.99880002,Chrome,1440,900,,,,,1,945,,,,,,,,,,,,,,,,,160,S,triangle,1,0,,,,,,,,,,,,,,,,switch,number,numSwt,f,0.1196,Hi,,,,,,3,,,,,,,,low,9,0,9,0,1,,,,,,,,,
292384,2022-11-30_09h05.49.561,vts_reward_expectancy_bt,2022.2.4,MacIntel,59.99880002,Chrome,1440,900,,,,,0,945,,,,,,,,,,,,,,,,,174,H,hexagon,0,0,,,,,,,,,,,,,,,,switch,letter,NA,k,0.0012,Hi,,,,,,3,,,,,,,,low,10,0,10,0,1,,,,,,,,,
292384,2022-11-30_09h05.49.561,vts_reward_expectancy_bt,2022.2.4,MacIntel,59.99880002,Chrome,1440,900,,,,,1,946,,,,,,,,,,,,,,,,,146,F,star,1,1,,,,,,,,,,,,,,,,switch,number,numSwt,d,0.0291,Lo,,,,,,3,,,,,,,,low,11,0,11,0,1,,,,,,,,,
292384,2022-11-30_09h05.49.561,vts_reward_expectancy_bt,2022.2.4,MacIntel,59.99880002,Chrome,1440,900,,,,,10,956,,,,,,,,,,,,,,,,,181,D,triangle,1,0,,,,,,,,,,,,,,,,switch,letter,lettSwt,j,0.1315,Hi,,,,,,3,,,,,,,,low,12,0,12,0,1,,,,,,,,,
292384,2022-11-30_09h05.49.561,vts_reward_expectancy_bt,2022.2.4,MacIntel,59.99880002,Chrome,1440,900,,,,,10,966,,,,,,,,,,,,,,,,,167,U,star,1,0,,,,,,,,,,,,,,,,repeat,letter,lettRpt,k,0.0887,Lo,,,,,,3,,,,,,,,low,13,0,13,0,1,,,,,,,,,
292384,2022-11-30_09h05.49.561,vts_reward_expectancy_bt,2022.2.4,MacIntel,59.99880002,Chrome,1440,900,,,,,10,976,,,,,,,,,,,,,,,,,132,Y,hexagon,1,0,,,,,,,,,,,,,,,,switch,number,numSwt,d,0.2211,Hi,,,,,,3,,,,,,,,low,14,0,14,0,1,,,,,,,,,
292384,2022-11-30_09h05.49.561,vts_reward_expectancy_bt,2022.2.4,MacIntel,59.99880002,Chrome,1440,900,,,,,0,976,,,,,,,,,,,,,,,,,125,B,circle,0,0,,,,,,,,,,,,,,,,switch,letter,NA,k,0.0002,Hi,,,,,,3,,,,,,,,low,15,0,15,0,1,,,,,,,,,
292384,2022-11-30_09h05.49.561,vts_reward_expectancy_bt,2022.2.4,MacIntel,59.99880002,Chrome,1440,900,,,,,1,977,,,,,,,,,,,,,,,,,174,F,hexagon,1,1,,,,,,,,,,,,,,,,switch,number,numSwt,f,0.1526,Hi,,,,,,3,,,,,,,,low,16,0,16,0,1,,,,,,,,,
292384,2022-11-30_09h05.49.561,vts_reward_expectancy_bt,2022.2.4,MacIntel,59.99880002,Chrome,1440,900,,,,,1,978,,,,,,,,,,,,,,,,,125,Y,circle,1,0,,,,,,,,,,,,,,,,repeat,number,numRpt,d,0.2053,Lo,,,,,,3,,,,,,,,low,17,0,17,0,1,,,,,,,,,
292384,2022-11-30_09h05.49.561,vts_reward_expectancy_bt,2022.2.4,MacIntel,59.99880002,Chrome,1440,900,,,,,0,978,,,,,,,,,,,,,,,,,181,H,star,0,0,,,,,,,,,,,,,,,,repeat,number,NA,d,0.4468,Lo,,,,,,3,,,,,,,,low,18,0,18,0,1,,,,,,,,,
292384,2022-11-30_09h05.49.561,vts_reward_expectancy_bt,2022.2.4,MacIntel,59.99880002,Chrome,1440,900,,,,,0,978,,,,,,,,,,,,,,,,,160,S,triangle,0,1,,,,,,,,,,,,,,,,switch,letter,NA,j,0.0692,Lo,,,,,,3,,,,,,,,low,19,0,19,0,1,,,,,,,,,
292384,2022-11-30_09h05.49.561,vts_reward_expectancy_bt,2022.2.4,MacIntel,59.99880002,Chrome,1440,900,,,,,0,978,,,,,,,,,,,,,,,,,132,B,circle,-1,1,,,,,,,,,,,,,,,,switch,no_choice,NA,,,Lo,,,,,,3,,,,,,,,low,20,0,20,0,1,,,,,,,,,
292384,2022-11-30_09h05.49.561,vts_reward_expectancy_bt,2022.2.4,MacIntel,59.99880002,Chrome,1440,900,,,,,0,978,,,,,,,,,,,,,,,,,146,W,star,-1,0,,,,,,,,,,,,,,,,repeat,no_choice,NA,,,Lo,,,,,,3,,,,,,,,low,21,0,21,0,1,,,,,,,,,
292384,2022-11-30_09h05.49.561,vts_reward_expectancy_bt,2022.2.4,MacIntel,59.99880002,Chrome,1440,900,,,,,0,978,,,,,,,,,,,,,,,,,139,U,triangle,0,0,,,,,,,,,,,,,,,,switch,letter,NA,j,0.0994,Lo,,,,,,3,,,,,,,,low,22,0,22,0,1,,,,,,,,,
292384,2022-11-30_09h05.49.561,vts_reward_expectancy_bt,2022.2.4,MacIntel,59.99880002,Chrome,1440,900,,,,,0,978,,,,,,,,,,,,,,,,,167,D,hexagon,1,1,,,,,,,,,,,,,,,,repeat,letter,lettRpt,j,0.9957,Hi,,,,,,3,,,,,,,,low,23,0,23,0,1,,,,,,,,,
292384,2022-11-30_09h05.49.561,vts_reward_expectancy_bt,2022.2.4,MacIntel,59.99880002,Chrome,1440,900,,,,,0,978,,,,,,,,,,,,,,,,,125,D,circle,0,0,,,,,,,,,,,,,,,,repeat,letter,NA,k,0.0338,Hi,,,,,,3,,,,,,,,low,24,0,24,0,1,,,,,,,,,
292384,2022-11-30_09h05.49.561,vts_reward_expectancy_bt,2022.2.4,MacIntel,59.99880002,Chrome,1440,900,,,,,0,978,,,,,,,,,,,,,,,,,139,F,hexagon,0,1,,,,,,,,,,,,,,,,switch,number,NA,f,0.2476,Hi,,,,,,3,,,,,,,,low,25,0,25,0,1,,,,,,,,,
292384,2022-11-30_09h05.49.561,vts_reward_expectancy_bt,2022.2.4,MacIntel,59.99880002,Chrome,1440,900,,,,,10,988,,,,,,,,,,,,,,,,,146,B,triangle,1,1,,,,,,,,,,,,,,,,repeat,number,numRpt,d,0.6799,Hi,,,,,,3,,,,,,,,low,26,0,26,0,1,,,,,,,,,
292384,2022-11-30_09h05.49.561,vts_reward_expectancy_bt,2022.2.4,MacIntel,59.99880002,Chrome,1440,900,,,,,1,989,,,,,,,,,,,,,,,,,181,Y,star,1,0,,,,,,,,,,,,,,,,repeat,number,numRpt,f,1.7468,Lo,,,,,,3,,,,,,,,low,27,0,27,0,1,,,,,,,,,
292384,2022-11-30_09h05.49.561,vts_reward_expectancy_bt,2022.2.4,MacIntel,59.99880002,Chrome,1440,900,,,,,1,990,,,,,,,,,,,,,,,,,174,S,circle,1,0,,,,,,,,,,,,,,,,repeat,number,numRpt,f,1.2306,Lo,,,,,,3,,,,,,,,low,28,0,28,0,1,,,,,,,,,
292384,2022-11-30_09h05.49.561,vts_reward_expectancy_bt,2022.2.4,MacIntel,59.99880002,Chrome,1440,900,,,,,10,1000,,,,,,,,,,,,,,,,,160,H,star,1,0,,,,,,,,,,,,,,,,repeat,number,numRpt,f,1.3849,Lo,,,,,,3,,,,,,,,low,29,0,29,0,1,,,,,,,,,
292384,2022-11-30_09h05.49.561,vts_reward_expectancy_bt,2022.2.4,MacIntel,59.99880002,Chrome,1440,900,,,,,0,1000,,,,,,,,,,,,,,,,,167,W,triangle,0,0,,,,,,,,,,,,,,,,switch,letter,NA,j,0.1139,Lo,,,,,,3,,,,,,,,low,30,0,30,0,1,,,,,,,,,
292384,2022-11-30_09h05.49.561,vts_reward_expectancy_bt,2022.2.4,MacIntel,59.99880002,Chrome,1440,900,,,,,10,1010,,,,,,,,,,,,,,,,,132,U,hexagon,1,1,,,,,,,,,,,,,,,,repeat,letter,lettRpt,k,0.1345,Hi,,,,,,3,,,,,,,,low,31,0,31,0,1,,,,,,,,,
292384,2022-11-30_09h05.49.561,vts_reward_expectancy_bt,2022.2.4,MacIntel,59.99880002,Chrome,1440,900,,,,,0,1010,,,,,,,,,,,,,,,,,167,U,hexagon,0,0,,,,,,,,,,,,,,,,switch,number,NA,d,0.1979,Hi,,,,,,4,,,,,,space,0.7773,low,0,0,0,0,1,,,,,,,,,
292384,2022-11-30_09h05.49.561,vts_reward_expectancy_bt,2022.2.4,MacIntel,59.99880002,Chrome,1440,900,,,,,1,1011,,,,,,,,,,,,,,,,,146,D,triangle,1,1,,,,,,,,,,,,,,,,repeat,number,numRpt,d,0.405,Hi,,,,,,4,,,,,,,,low,1,0,1,0,1,,,,,,,,,
292384,2022-11-30_09h05.49.561,vts_reward_expectancy_bt,2022.2.4,MacIntel,59.99880002,Chrome,1440,900,,,,,0,1011,,,,,,,,,,,,,,,,,139,F,star,0,0,,,,,,,,,,,,,,,,repeat,number,NA,f,0.0459,Hi,,,,,,4,,,,,,,,low,2,0,2,0,1,,,,,,,,,
292384,2022-11-30_09h05.49.561,vts_reward_expectancy_bt,2022.2.4,MacIntel,59.99880002,Chrome,1440,900,,,,,0,1011,,,,,,,,,,,,,,,,,125,S,circle,0,1,,,,,,,,,,,,,,,,repeat,number,NA,f,0.8055,Hi,,,,,,4,,,,,,,,low,3,0,3,0,1,,,,,,,,,
292384,2022-11-30_09h05.49.561,vts_reward_expectancy_bt,2022.2.4,MacIntel,59.99880002,Chrome,1440,900,,,,,0,1011,,,,,,,,,,,,,,,,,181,W,hexagon,1,1,,,,,,,,,,,,,,,,repeat,number,numRpt,f,1.168,Hi,,,,,,4,,,,,,,,low,4,0,4,0,1,,,,,,,,,
292384,2022-11-30_09h05.49.561,vts_reward_expectancy_bt,2022.2.4,MacIntel,59.99880002,Chrome,1440,900,,,,,10,1021,,,,,,,,,,,,,,,,,160,Y,triangle,1,0,,,,,,,,,,,,,,,,repeat,number,numRpt,f,0.615,Hi,,,,,,4,,,,,,,,low,5,0,5,0,1,,,,,,,,,
292384,2022-11-30_09h05.49.561,vts_reward_expectancy_bt,2022.2.4,MacIntel,59.99880002,Chrome,1440,900,,,,,1,1022,,,,,,,,,,,,,,,,,132,H,star,1,0,,,,,,,,,,,,,,,,repeat,number,numRpt,d,0.587,Lo,,,,,,4,,,,,,,,low,6,0,6,0,1,,,,,,,,,
292384,2022-11-30_09h05.49.561,vts_reward_expectancy_bt,2022.2.4,MacIntel,59.99880002,Chrome,1440,900,,,,,1,1023,,,,,,,,,,,,,,,,,174,B,circle,1,0,,,,,,,,,,,,,,,,repeat,number,numRpt,f,0.7695,Lo,,,,,,4,,,,,,,,low,7,0,7,0,1,,,,,,,,,
292384,2022-11-30_09h05.49.561,vts_reward_expectancy_bt,2022.2.4,MacIntel,59.99880002,Chrome,1440,900,,,,,1,1024,,,,,,,,,,,,,,,,,167,U,star,1,0,,,,,,,,,,,,,,,,repeat,number,numRpt,f,0.6664,Lo,,,,,,4,,,,,,,,low,8,0,8,0,1,,,,,,,,,
292384,2022-11-30_09h05.49.561,vts_reward_expectancy_bt,2022.2.4,MacIntel,59.99880002,Chrome,1440,900,,,,,1,1025,,,,,,,,,,,,,,,,,146,D,circle,1,0,,,,,,,,,,,,,,,,repeat,number,numRpt,d,0.6656,Lo,,,,,,4,,,,,,,,low,9,0,9,0,1,,,,,,,,,
292384,2022-11-30_09h05.49.561,vts_reward_expectancy_bt,2022.2.4,MacIntel,59.99880002,Chrome,1440,900,,,,,0,1025,,,,,,,,,,,,,,,,,139,F,hexagon,0,0,,,,,,,,,,,,,,,,repeat,number,NA,f,0.7187,Lo,,,,,,4,,,,,,,,low,10,0,10,0,1,,,,,,,,,
292384,2022-11-30_09h05.49.561,vts_reward_expectancy_bt,2022.2.4,MacIntel,59.99880002,Chrome,1440,900,,,,,0,1025,,,,,,,,,,,,,,,,,125,S,triangle,0,1,,,,,,,,,,,,,,,,repeat,number,NA,f,0.7796,Lo,,,,,,4,,,,,,,,low,11,0,11,0,1,,,,,,,,,
292384,2022-11-30_09h05.49.561,vts_reward_expectancy_bt,2022.2.4,MacIntel,59.99880002,Chrome,1440,900,,,,,10,1035,,,,,,,,,,,,,,,,,181,W,hexagon,1,1,,,,,,,,,,,,,,,,repeat,number,numRpt,f,0.2696,Hi,,,,,,4,,,,,,,,low,12,0,12,0,1,,,,,,,,,
292384,2022-11-30_09h05.49.561,vts_reward_expectancy_bt,2022.2.4,MacIntel,59.99880002,Chrome,1440,900,,,,,0,1035,,,,,,,,,,,,,,,,,160,Y,star,0,0,,,,,,,,,,,,,,,,repeat,number,NA,d,0.3141,Hi,,,,,,4,,,,,,,,low,13,0,13,0,1,,,,,,,,,
292384,2022-11-30_09h05.49.561,vts_reward_expectancy_bt,2022.2.4,MacIntel,59.99880002,Chrome,1440,900,,,,,10,1045,,,,,,,,,,,,,,,,,132,H,triangle,1,1,,,,,,,,,,,,,,,,repeat,number,numRpt,d,0.1958,Hi,,,,,,4,,,,,,,,low,14,0,14,0,1,,,,,,,,,
292384,2022-11-30_09h05.49.561,vts_reward_expectancy_bt,2022.2.4,MacIntel,59.99880002,Chrome,1440,900,,,,,0,1045,,,,,,,,,,,,,,,,,174,B,circle,0,0,,,,,,,,,,,,,,,,repeat,number,NA,d,2.6626,Hi,,,,,,4,,,,,,,,low,15,0,15,0,1,,,,,,,,,
292384,2022-11-30_09h05.49.561,vts_reward_expectancy_bt,2022.2.4,MacIntel,59.99880002,Chrome,1440,900,,,,,0,1045,,,,,,,,,,,,,,,,,146,U,triangle,0,1,,,,,,,,,,,,,,,,repeat,number,NA,f,1.7285,Hi,,,,,,4,,,,,,,,low,16,0,16,0,1,,,,,,,,,
292384,2022-11-30_09h05.49.561,vts_reward_expectancy_bt,2022.2.4,MacIntel,59.99880002,Chrome,1440,900,,,,,1,1046,,,,,,,,,,,,,,,,,167,S,star,1,1,,,,,,,,,,,,,,,,repeat,number,numRpt,f,2.3174,Lo,,,,,,4,,,,,,,,low,17,0,17,0,1,,,,,,,,,
292384,2022-11-30_09h05.49.561,vts_reward_expectancy_bt,2022.2.4,MacIntel,59.99880002,Chrome,1440,900,,,,,10,1056,,,,,,,,,,,,,,,,,132,H,circle,1,0,,,,,,,,,,,,,,,,repeat,number,numRpt,d,0.1682,Lo,,,,,,4,,,,,,,,low,18,0,18,0,1,,,,,,,,,
292384,2022-11-30_09h05.49.561,vts_reward_expectancy_bt,2022.2.4,MacIntel,59.99880002,Chrome,1440,900,,,,,0,1056,,,,,,,,,,,,,,,,,139,W,hexagon,0,0,,,,,,,,,,,,,,,,repeat,number,NA,f,0.1035,Lo,,,,,,4,,,,,,,,low,19,0,19,0,1,,,,,,,,,
292384,2022-11-30_09h05.49.561,vts_reward_expectancy_bt,2022.2.4,MacIntel,59.99880002,Chrome,1440,900,,,,,10,1066,,,,,,,,,,,,,,,,,181,B,hexagon,1,1,,,,,,,,,,,,,,,,repeat,number,numRpt,f,0.2973,Hi,,,,,,4,,,,,,,,low,20,0,20,0,1,,,,,,,,,
292384,2022-11-30_09h05.49.561,vts_reward_expectancy_bt,2022.2.4,MacIntel,59.99880002,Chrome,1440,900,,,,,0,1066,,,,,,,,,,,,,,,,,174,F,triangle,0,0,,,,,,,,,,,,,,,,repeat,number,NA,d,0.5212,Hi,,,,,,4,,,,,,,,low,21,0,21,0,1,,,,,,,,,
292384,2022-11-30_09h05.49.561,vts_reward_expectancy_bt,2022.2.4,MacIntel,59.99880002,Chrome,1440,900,,,,,1,1067,,,,,,,,,,,,,,,,,160,Y,star,1,1,,,,,,,,,,,,,,,,repeat,number,numRpt,f,0.3119,Lo,,,,,,4,,,,,,,,low,22,0,22,0,1,,,,,,,,,
292384,2022-11-30_09h05.49.561,vts_reward_expectancy_bt,2022.2.4,MacIntel,59.99880002,Chrome,1440,900,,,,,0,1067,,,,,,,,,,,,,,,,,125,D,circle,-1,0,,,,,,,,,,,,,,,,switch,no_choice,NA,,,Lo,,,,,,4,,,,,,,,low,23,0,23,0,1,,,,,,,,,
292384,2022-11-30_09h05.49.561,vts_reward_expectancy_bt,2022.2.4,MacIntel,59.99880002,Chrome,1440,900,,,,,0,1067,,,,,,,,,,,,,,,,,181,B,circle,0,0,,,,,,,,,,,,,,,,switch,number,NA,d,0.2729,Lo,,,,,,4,,,,,,,,low,24,0,24,0,1,,,,,,,,,
292384,2022-11-30_09h05.49.561,vts_reward_expectancy_bt,2022.2.4,MacIntel,59.99880002,Chrome,1440,900,,,,,0,1067,,,,,,,,,,,,,,,,,139,U,triangle,-1,1,,,,,,,,,,,,,,,,switch,no_choice,NA,,,Lo,,,,,,4,,,,,,,,low,25,0,25,0,1,,,,,,,,,
292384,2022-11-30_09h05.49.561,vts_reward_expectancy_bt,2022.2.4,MacIntel,59.99880002,Chrome,1440,900,,,,,1,1068,,,,,,,,,,,,,,,,,132,S,star,1,0,,,,,,,,,,,,,,,,switch,number,numSwt,d,1.3893,Lo,,,,,,4,,,,,,,,low,26,0,26,0,1,,,,,,,,,
292384,2022-11-30_09h05.49.561,vts_reward_expectancy_bt,2022.2.4,MacIntel,59.99880002,Chrome,1440,900,,,,,10,1078,,,,,,,,,,,,,,,,,125,Y,hexagon,1,0,,,,,,,,,,,,,,,,repeat,number,numRpt,d,0.5387,Hi,,,,,,4,,,,,,,,low,27,0,27,0,1,,,,,,,,,
292384,2022-11-30_09h05.49.561,vts_reward_expectancy_bt,2022.2.4,MacIntel,59.99880002,Chrome,1440,900,,,,,0,1078,,,,,,,,,,,,,,,,,146,D,hexagon,-1,0,,,,,,,,,,,,,,,,switch,no_choice,NA,,,Hi,,,,,,4,,,,,,,,low,28,0,28,0,1,,,,,,,,,
292384,2022-11-30_09h05.49.561,vts_reward_expectancy_bt,2022.2.4,MacIntel,59.99880002,Chrome,1440,900,,,,,0,1078,,,,,,,,,,,,,,,,,174,W,triangle,1,0,,,,,,,,,,,,,,,,switch,number,numSwt,f,1.0638,Hi,,,,,,4,,,,,,,,low,29,0,29,0,1,,,,,,,,,
292384,2022-11-30_09h05.49.561,vts_reward_expectancy_bt,2022.2.4,MacIntel,59.99880002,Chrome,1440,900,,,,,10,1088,,,,,,,,,,,,,,,,,160,F,star,1,0,,,,,,,,,,,,,,,,repeat,number,numRpt,f,0.7017,Lo,,,,,,4,,,,,,,,low,30,0,30,0,1,,,,,,,,,
292384,2022-11-30_09h05.49.561,vts_reward_expectancy_bt,2022.2.4,MacIntel,59.99880002,Chrome,1440,900,,,,,0,1088,,,,,,,,,,,,,,,,,167,H,circle,0,0,,,,,,,,,,,,,,,,repeat,number,NA,d,0.1631,Lo,,,,,,4,,,,,,,,low,31,0,31,0,1,,,,,,,,,
292384,2022-11-30_09h05.49.561,vts_reward_expectancy_bt,2022.2.4,MacIntel,59.99880002,Chrome,1440,900,,,,,0,1088,,,,,,,,,,,,,,,,,160,W,circle,0,1,,,,,,,,,,,,,,,,switch,letter,NA,j,0.0131,Lo,,,,,,5,,,,,,space,12.0589,low,0,0,0,0,1,,,,,,,,,
292384,2022-11-30_09h05.49.561,vts_reward_expectancy_bt,2022.2.4,MacIntel,59.99880002,Chrome,1440,900,,,,,0,1088,,,,,,,,,,,,,,,,,181,B,star,0,1,,,,,,,,,,,,,,,,repeat,letter,NA,k,0.0621,Lo,,,,,,5,,,,,,,,low,1,0,1,0,1,,,,,,,,,
292384,2022-11-30_09h05.49.561,vts_reward_expectancy_bt,2022.2.4,MacIntel,59.99880002,Chrome,1440,900,,,,,1,1089,,,,,,,,,,,,,,,,,146,Y,hexagon,1,1,,,,,,,,,,,,,,,,repeat,letter,lettRpt,k,0.1035,Hi,,,,,,5,,,,,,,,low,2,0,2,0,1,,,,,,,,,
292384,2022-11-30_09h05.49.561,vts_reward_expectancy_bt,2022.2.4,MacIntel,59.99880002,Chrome,1440,900,,,,,0,1089,,,,,,,,,,,,,,,,,174,U,triangle,0,0,,,,,,,,,,,,,,,,repeat,letter,NA,j,0.1354,Hi,,,,,,5,,,,,,,,low,3,0,3,0,1,,,,,,,,,
292384,2022-11-30_09h05.49.561,vts_reward_expectancy_bt,2022.2.4,MacIntel,59.99880002,Chrome,1440,900,,,,,0,1089,,,,,,,,,,,,,,,,,139,F,circle,0,1,,,,,,,,,,,,,,,,repeat,letter,NA,k,0.637,Hi,,,,,,5,,,,,,,,low,4,0,4,0,1,,,,,,,,,
292384,2022-11-30_09h05.49.561,vts_reward_expectancy_bt,2022.2.4,MacIntel,59.99880002,Chrome,1440,900,,,,,1,1090,,,,,,,,,,,,,,,,,132,H,star,1,1,,,,,,,,,,,,,,,,repeat,letter,lettRpt,j,0.0289,Lo,,,,,,5,,,,,,,,low,5,0,5,0,1,,,,,,,,,
292384,2022-11-30_09h05.49.561,vts_reward_expectancy_bt,2022.2.4,MacIntel,59.99880002,Chrome,1440,900,,,,,0,1090,,,,,,,,,,,,,,,,,167,D,hexagon,0,0,,,,,,,,,,,,,,,,repeat,letter,NA,k,0.1154,Lo,,,,,,5,,,,,,,,low,6,0,6,0,1,,,,,,,,,
292384,2022-11-30_09h05.49.561,vts_reward_expectancy_bt,2022.2.4,MacIntel,59.99880002,Chrome,1440,900,,,,,0,1090,,,,,,,,,,,,,,,,,125,S,triangle,0,1,,,,,,,,,,,,,,,,repeat,letter,NA,j,0.0003,Lo,,,,,,5,,,,,,,,low,7,0,7,0,1,,,,,,,,,
292384,2022-11-30_09h05.49.561,vts_reward_expectancy_bt,2022.2.4,MacIntel,59.99880002,Chrome,1440,900,,,,,10,1100,,,,,,,,,,,,,,,,,160,W,triangle,1,1,,,,,,,,,,,,,,,,repeat,letter,lettRpt,k,0.0186,Hi,,,,,,5,,,,,,,,low,8,0,8,0,1,,,,,,,,,
292384,2022-11-30_09h05.49.561,vts_reward_expectancy_bt,2022.2.4,MacIntel,59.99880002,Chrome,1440,900,,,,,10,1110,,,,,,,,,,,,,,,,,181,B,hexagon,1,0,,,,,,,,,,,,,,,,repeat,letter,lettRpt,j,0.1147,Hi,,,,,,5,,,,,,,,low,9,0,9,0,1,,,,,,,,,
292384,2022-11-30_09h05.49.561,vts_reward_expectancy_bt,2022.2.4,MacIntel,59.99880002,Chrome,1440,900,,,,,0,1110,,,,,,,,,,,,,,,,,146,Y,star,0,0,,,,,,,,,,,,,,,,repeat,letter,NA,j,0.7622,Hi,,,,,,5,,,,,,,,low,10,0,10,0,1,,,,,,,,,
292384,2022-11-30_09h05.49.561,vts_reward_expectancy_bt,2022.2.4,MacIntel,59.99880002,Chrome,1440,900,,,,,10,1120,,,,,,,,,,,,,,,,,174,U,circle,1,1,,,,,,,,,,,,,,,,repeat,letter,lettRpt,k,0.0111,Lo,,,,,,5,,,,,,,,low,11,0,11,0,1,,,,,,,,,
292384,2022-11-30_09h05.49.561,vts_reward_expectancy_bt,2022.2.4,MacIntel,59.99880002,Chrome,1440,900,,,,,0,1120,,,,,,,,,,,,,,,,,139,F,triangle,0,0,,,,,,,,,,,,,,,,repeat,letter,NA,k,0.1301,Lo,,,,,,5,,,,,,,,low,12,0,12,0,1,,,,,,,,,
292384,2022-11-30_09h05.49.561,vts_reward_expectancy_bt,2022.2.4,MacIntel,59.99880002,Chrome,1440,900,,,,,10,1130,,,,,,,,,,,,,,,,,132,H,circle,1,1,,,,,,,,,,,,,,,,repeat,letter,lettRpt,j,0.0005,Lo,,,,,,5,,,,,,,,low,13,0,13,0,1,,,,,,,,,
292384,2022-11-30_09h05.49.561,vts_reward_expectancy_bt,2022.2.4,MacIntel,59.99880002,Chrome,1440,900,,,,,0,1130,,,,,,,,,,,,,,,,,167,D,star,0,0,,,,,,,,,,,,,,,,repeat,letter,NA,k,0.6299,Lo,,,,,,5,,,,,,,,low,14,0,14,0,1,,,,,,,,,
292384,2022-11-30_09h05.49.561,vts_reward_expectancy_bt,2022.2.4,MacIntel,59.99880002,Chrome,1440,900,,,,,10,1140,,,,,,,,,,,,,,,,,125,S,hexagon,1,1,,,,,,,,,,,,,,,,repeat,letter,lettRpt,k,0.9931,Hi,,,,,,5,,,,,,,,low,15,0,15,0,1,,,,,,,,,
292384,2022-11-30_09h05.49.561,vts_reward_expectancy_bt,2022.2.4,MacIntel,59.99880002,Chrome,1440,900,,,,,1,1141,,,,,,,,,,,,,,,,,139,U,triangle,1,0,,,,,,,,,,,,,,,,repeat,letter,lettRpt,k,1.2549,Hi,,,,,,5,,,,,,,,low,16,0,16,0,1,,,,,,,,,
292384,2022-11-30_09h05.49.561,vts_reward_expectancy_bt,2022.2.4,MacIntel,59.99880002,Chrome,1440,900,,,,,0,1141,,,,,,,,,,,,,,,,,125,F,star,0,0,,,,,,,,,,,,,,,,repeat,letter,NA,k,2.6802,Hi,,,,,,5,,,,,,,,low,17,0,17,0,1,,,,,,,,,
292384,2022-11-30_09h05.49.561,vts_reward_expectancy_bt,2022.2.4,MacIntel,59.99880002,Chrome,1440,900,,,,,0,1141,,,,,,,,,,,,,,,,,132,H,hexagon,0,1,,,,,,,,,,,,,,,,repeat,letter,NA,k,0.2692,Hi,,,,,,5,,,,,,,,low,18,0,18,0,1,,,,,,,,,
292384,2022-11-30_09h05.49.561,vts_reward_expectancy_bt,2022.2.4,MacIntel,59.99880002,Chrome,1440,900,,,,,0,1141,,,,,,,,,,,,,,,,,181,S,circle,-1,1,,,,,,,,,,,,,,,,switch,no_choice,NA,,,Hi,,,,,,5,,,,,,,,low,19,0,19,0,1,,,,,,,,,
292384,2022-11-30_09h05.49.561,vts_reward_expectancy_bt,2022.2.4,MacIntel,59.99880002,Chrome,1440,900,,,,,0,1141,,,,,,,,,,,,,,,,,160,D,circle,0,0,,,,,,,,,,,,,,,,switch,letter,NA,k,0.3547,Hi,,,,,,5,,,,,,,,low,20,0,20,0,1,,,,,,,,,
292384,2022-11-30_09h05.49.561,vts_reward_expectancy_bt,2022.2.4,MacIntel,59.99880002,Chrome,1440,900,,,,,0,1141,,,,,,,,,,,,,,,,,146,B,hexagon,0,1,,,,,,,,,,,,,,,,repeat,letter,NA,k,0.9139,Hi,,,,,,5,,,,,,,,low,21,0,21,0,1,,,,,,,,,
292384,2022-11-30_09h05.49.561,vts_reward_expectancy_bt,2022.2.4,MacIntel,59.99880002,Chrome,1440,900,,,,,10,1151,,,,,,,,,,,,,,,,,167,W,star,1,1,,,,,,,,,,,,,,,,repeat,letter,lettRpt,k,2.022,Lo,,,,,,5,,,,,,,,low,22,0,22,0,1,,,,,,,,,
292384,2022-11-30_09h05.49.561,vts_reward_expectancy_bt,2022.2.4,MacIntel,59.99880002,Chrome,1440,900,,,,,10,1161,,,,,,,,,,,,,,,,,174,Y,triangle,1,0,,,,,,,,,,,,,,,,repeat,letter,lettRpt,k,2.063,Hi,,,,,,5,,,,,,,,low,23,0,23,0,1,,,,,,,,,
292384,2022-11-30_09h05.49.561,vts_reward_expectancy_bt,2022.2.4,MacIntel,59.99880002,Chrome,1440,900,,,,,1,1162,,,,,,,,,,,,,,,,,174,Y,circle,1,0,,,,,,,,,,,,,,,,repeat,letter,lettRpt,k,0.3704,Lo,,,,,,5,,,,,,,,low,24,0,24,0,1,,,,,,,,,
292384,2022-11-30_09h05.49.561,vts_reward_expectancy_bt,2022.2.4,MacIntel,59.99880002,Chrome,1440,900,,,,,0,1162,,,,,,,,,,,,,,,,,167,H,star,0,0,,,,,,,,,,,,,,,,repeat,letter,NA,k,0.7127,Lo,,,,,,5,,,,,,,,low,25,0,25,0,1,,,,,,,,,
292384,2022-11-30_09h05.49.561,vts_reward_expectancy_bt,2022.2.4,MacIntel,59.99880002,Chrome,1440,900,,,,,0,1162,,,,,,,,,,,,,,,,,160,B,triangle,0,1,,,,,,,,,,,,,,,,repeat,letter,NA,k,0.2548,Lo,,,,,,5,,,,,,,,low,26,0,26,0,1,,,,,,,,,
292384,2022-11-30_09h05.49.561,vts_reward_expectancy_bt,2022.2.4,MacIntel,59.99880002,Chrome,1440,900,,,,,1,1163,,,,,,,,,,,,,,,,,181,W,hexagon,1,1,,,,,,,,,,,,,,,,repeat,letter,lettRpt,k,0.0646,Hi,,,,,,5,,,,,,,,low,27,0,27,0,1,,,,,,,,,
292384,2022-11-30_09h05.49.561,vts_reward_expectancy_bt,2022.2.4,MacIntel,59.99880002,Chrome,1440,900,,,,,0,1163,,,,,,,,,,,,,,,,,139,D,hexagon,0,0,,,,,,,,,,,,,,,,repeat,letter,NA,k,0.1227,Hi,,,,,,5,,,,,,,,low,28,0,28,0,1,,,,,,,,,
292384,2022-11-30_09h05.49.561,vts_reward_expectancy_bt,2022.2.4,MacIntel,59.99880002,Chrome,1440,900,,,,,1,1164,,,,,,,,,,,,,,,,,132,S,circle,1,1,,,,,,,,,,,,,,,,repeat,letter,lettRpt,k,0.0484,Lo,,,,,,5,,,,,,,,low,29,0,29,0,1,,,,,,,,,
292384,2022-11-30_09h05.49.561,vts_reward_expectancy_bt,2022.2.4,MacIntel,59.99880002,Chrome,1440,900,,,,,0,1164,,,,,,,,,,,,,,,,,125,F,triangle,0,0,,,,,,,,,,,,,,,,repeat,letter,NA,k,0.1367,Lo,,,,,,5,,,,,,,,low,30,0,30,0,1,,,,,,,,,
292384,2022-11-30_09h05.49.561,vts_reward_expectancy_bt,2022.2.4,MacIntel,59.99880002,Chrome,1440,900,,,,,10,1174,,,,,,,,,,,,,,,,,146,U,star,1,1,,,,,,,,,,,,,,,,repeat,letter,lettRpt,k,2.5437,Lo,,,,,,5,,,,,,,,low,31,0,31,0,1,,,,,,,,,
292384,2022-11-30_09h05.49.561,vts_reward_expectancy_bt,2022.2.4,MacIntel,59.99880002,Chrome,1440,900,,,,,1,1175,,,,,,,,,,,,,,,,,139,F,circle,1,0,,,,,,,,,,,,,,,,switch,number,numSwt,d,0.6514,Lo,,,,,,6,,,,,,space,1.1837,low,0,0,0,0,1,,,,,,,,,
292384,2022-11-30_09h05.49.561,vts_reward_expectancy_bt,2022.2.4,MacIntel,59.99880002,Chrome,1440,900,,,,,0,1175,,,,,,,,,,,,,,,,,174,W,hexagon,0,0,,,,,,,,,,,,,,,,repeat,number,NA,d,1.0159,Lo,,,,,,6,,,,,,,,low,1,0,1,0,1,,,,,,,,,
292384,2022-11-30_09h05.49.561,vts_reward_expectancy_bt,2022.2.4,MacIntel,59.99880002,Chrome,1440,900,,,,,1,1176,,,,,,,,,,,,,,,,,146,S,triangle,1,1,,,,,,,,,,,,,,,,repeat,number,numRpt,d,0.5857,Hi,,,,,,6,,,,,,,,low,2,0,2,0,1,,,,,,,,,
292384,2022-11-30_09h05.49.561,vts_reward_expectancy_bt,2022.2.4,MacIntel,59.99880002,Chrome,1440,900,,,,,0,1176,,,,,,,,,,,,,,,,,132,Y,star,0,0,,,,,,,,,,,,,,,,repeat,number,NA,f,0.084,Hi,,,,,,6,,,,,,,,low,3,0,3,0,1,,,,,,,,,
292384,2022-11-30_09h05.49.561,vts_reward_expectancy_bt,2022.2.4,MacIntel,59.99880002,Chrome,1440,900,,,,,0,1176,,,,,,,,,,,,,,,,,181,H,circle,0,1,,,,,,,,,,,,,,,,repeat,number,NA,d,0.5369,Hi,,,,,,6,,,,,,,,low,4,0,4,0,1,,,,,,,,,
292384,2022-11-30_09h05.49.561,vts_reward_expectancy_bt,2022.2.4,MacIntel,59.99880002,Chrome,1440,900,,,,,10,1186,,,,,,,,,,,,,,,,,167,U,hexagon,1,1,,,,,,,,,,,,,,,,repeat,number,numRpt,f,0.2165,Hi,,,,,,6,,,,,,,,low,5,0,5,0,1,,,,,,,,,
292384,2022-11-30_09h05.49.561,vts_reward_expectancy_bt,2022.2.4,MacIntel,59.99880002,Chrome,1440,900,,,,,0,1186,,,,,,,,,,,,,,,,,125,D,triangle,0,0,,,,,,,,,,,,,,,,repeat,number,NA,f,0.1826,Hi,,,,,,6,,,,,,,,low,6,0,6,0,1,,,,,,,,,
292384,2022-11-30_09h05.49.561,vts_reward_expectancy_bt,2022.2.4,MacIntel,59.99880002,Chrome,1440,900,,,,,0,1186,,,,,,,,,,,,,,,,,160,B,star,0,1,,,,,,,,,,,,,,,,repeat,number,NA,d,0.4375,Hi,,,,,,6,,,,,,,,low,7,0,7,0,1,,,,,,,,,
292384,2022-11-30_09h05.49.561,vts_reward_expectancy_bt,2022.2.4,MacIntel,59.99880002,Chrome,1440,900,,,,,0,1186,,,,,,,,,,,,,,,,,139,F,hexagon,0,1,,,,,,,,,,,,,,,,repeat,number,NA,f,2.0111,Hi,,,,,,6,,,,,,,,low,8,0,8,0,1,,,,,,,,,
292384,2022-11-30_09h05.49.561,vts_reward_expectancy_bt,2022.2.4,MacIntel,59.99880002,Chrome,1440,900,,,,,10,1196,,,,,,,,,,,,,,,,,174,W,triangle,1,1,,,,,,,,,,,,,,,,repeat,number,numRpt,f,2.1465,Hi,,,,,,6,,,,,,,,low,9,0,9,0,1,,,,,,,,,
292384,2022-11-30_09h05.49.561,vts_reward_expectancy_bt,2022.2.4,MacIntel,59.99880002,Chrome,1440,900,,,,,0,1196,,,,,,,,,,,,,,,,,146,S,star,0,0,,,,,,,,,,,,,,,,repeat,number,NA,f,1.3123,Hi,,,,,,6,,,,,,,,low,10,0,10,0,1,,,,,,,,,
292384,2022-11-30_09h05.49.561,vts_reward_expectancy_bt,2022.2.4,MacIntel,59.99880002,Chrome,1440,900,,,,,0,1196,,,,,,,,,,,,,,,,,132,Y,circle,-1,1,,,,,,,,,,,,,,,,switch,no_choice,NA,,,Hi,,,,,,6,,,,,,,,low,11,0,11,0,1,,,,,,,,,
