participant,date,expName,psychopyVersion,OS,frameRate,browser,xResolution,yResolution,key_resp.keys,key_resp.rt,training_resp.keys,training_resp.rt,points_trial,points_cumul,trainBlock,training.thisRepN,training.thisTrialN,training.thisN,training.thisIndex,training.ran,LTriangleOpac,LCircleOpac,LHexagonOpac,LStarOpac,RTriangleOpac,RCircleOpac,RHexagonOpac,RStarOpac,LShape_ID,RShape_ID,curr_topStim,curr_bottStim,curr_shape,acc,E1,target_resp_prac1.keys,target_resp_prac1.rt,pracBlock,task1_prac_trials.thisRepN,task1_prac_trials.thisTrialN,task1_prac_trials.thisN,task1_prac_trials.thisIndex,task1_prac_trials.ran,target_resp_prac2.keys,target_resp_prac2.rt,task2_praac_trials.thisRepN,task2_praac_trials.thisTrialN,task2_praac_trials.thisN,task2_praac_trials.thisIndex,task2_praac_trials.ran,alt,task,condition,target_resp.keys,target_resp.rt,rewCond,vts_practice_trials.thisRepN,vts_practice_trials.thisTrialN,vts_practice_trials.thisN,vts_practice_trials.thisIndex,vts_practice_trials.ran,blockNum,trials_norew.thisRepN,trials_norew.thisTrialN,trials_norew.thisN,trials_norew.thisIndex,trials_norew.ran,key_resp_2.keys,key_resp_2.rt,rewExpectancy,trials_rew.thisRepN,trials_rew.thisTrialN,trials_rew.thisN,trials_rew.thisIndex,trials_rew.ran,Q1,Q2,Q2_text,Q3,Q4,Q5_text,Q5,xRes,yRes
292468,2022-12-06_01h33.24.849,vts_reward_expectancy_bt,2022.2.4,MacIntel,58.82352941,Safari,1728,1117,,,,,,,,,,,,,,,,,,,,,,,,,,,,,,,,,,,,,,,,,,,,,,,,,,,,,,,,,,,,,,,,,,,,,,,,,,,,
292468,2022-12-06_01h33.24.849,vts_reward_expectancy_bt,2022.2.4,MacIntel,58.82352941,Safari,1728,1117,space,13.393,,,,,,,,,,,,,,,,,,,,,,,,,,,,,,,,,,,,,,,,,,,,,,,,,,,,,,,,,,,,,,,,,,,,,,,,,,
292468,2022-12-06_01h33.24.849,vts_reward_expectancy_bt,2022.2.4,MacIntel,58.82352941,Safari,1728,1117,,,,,,,,,,,,,,,,,,,,,,,,,,,,,,,,,,,,,,,,,,,,,,,,,,,,,,,,,,,,,,,,,,,,,,,,,,,,
292468,2022-12-06_01h33.24.849,vts_reward_expectancy_bt,2022.2.4,MacIntel,58.82352941,Safari,1728,1117,,,a,0.954,10,10,0,0,0,0,2,1,1,0,0,0,0,0,0,1,triangle,star,,,,,,,,,,,,,,,,,,,,,,,,,,,,,,,,,,,,,,,,,,,,,,,,,,,,,,
292468,2022-12-06_01h33.24.849,vts_reward_expectancy_bt,2022.2.4,MacIntel,58.82352941,Safari,1728,1117,,,l,0.717,1,11,0,0,1,1,4,1,0,1,0,0,0,0,1,0,circle,hexagon,,,,,,,,,,,,,,,,,,,,,,,,,,,,,,,,,,,,,,,,,,,,,,,,,,,,,,
292468,2022-12-06_01h33.24.849,vts_reward_expectancy_bt,2022.2.4,MacIntel,58.82352941,Safari,1728,1117,,,l,0.496,10,21,0,0,2,2,7,1,0,0,1,0,0,1,0,0,hexagon,circle,,,,,,,,,,,,,,,,,,,,,,,,,,,,,,,,,,,,,,,,,,,,,,,,,,,,,,
292468,2022-12-06_01h33.24.849,vts_reward_expectancy_bt,2022.2.4,MacIntel,58.82352941,Safari,1728,1117,,,l,0.261,10,31,0,0,3,3,11,1,0,0,0,1,0,0,1,0,star,hexagon,,,,,,,,,,,,,,,,,,,,,,,,,,,,,,,,,,,,,,,,,,,,,,,,,,,,,,
292468,2022-12-06_01h33.24.849,vts_reward_expectancy_bt,2022.2.4,MacIntel,58.82352941,Safari,1728,1117,,,a,0.225,10,41,0,0,4,4,10,1,0,0,0,1,0,1,0,0,star ,circle,,,,,,,,,,,,,,,,,,,,,,,,,,,,,,,,,,,,,,,,,,,,,,,,,,,,,,
292468,2022-12-06_01h33.24.849,vts_reward_expectancy_bt,2022.2.4,MacIntel,58.82352941,Safari,1728,1117,,,a,0.308,1,42,0,0,5,5,5,1,0,1,0,0,0,0,0,1,circle,star,,,,,,,,,,,,,,,,,,,,,,,,,,,,,,,,,,,,,,,,,,,,,,,,,,,,,,
292468,2022-12-06_01h33.24.849,vts_reward_expectancy_bt,2022.2.4,MacIntel,58.82352941,Safari,1728,1117,,,a,0.456,1,43,0,0,6,6,8,1,0,0,1,0,0,0,0,1,hexagon,star,,,,,,,,,,,,,,,,,,,,,,,,,,,,,,,,,,,,,,,,,,,,,,,,,,,,,,
292468,2022-12-06_01h33.24.849,vts_reward_expectancy_bt,2022.2.4,MacIntel,58.82352941,Safari,1728,1117,,,l,0.308,10,53,0,0,7,7,0,1,1,0,0,0,0,1,0,0,triangle,circle,,,,,,,,,,,,,,,,,,,,,,,,,,,,,,,,,,,,,,,,,,,,,,,,,,,,,,
292468,2022-12-06_01h33.24.849,vts_reward_expectancy_bt,2022.2.4,MacIntel,58.82352941,Safari,1728,1117,,,l,0.037,1,54,0,0,8,8,1,1,1,0,0,0,0,0,1,0,triangle,hexagon,,,,,,,,,,,,,,,,,,,,,,,,,,,,,,,,,,,,,,,,,,,,,,,,,,,,,,
292468,2022-12-06_01h33.24.849,vts_reward_expectancy_bt,2022.2.4,MacIntel,58.82352941,Safari,1728,1117,,,a,0.288,10,64,0,0,9,9,9,1,0,0,0,1,1,0,0,0,star,triangle,,,,,,,,,,,,,,,,,,,,,,,,,,,,,,,,,,,,,,,,,,,,,,,,,,,,,,
292468,2022-12-06_01h33.24.849,vts_reward_expectancy_bt,2022.2.4,MacIntel,58.82352941,Safari,1728,1117,,,l,0.564,10,74,0,0,10,10,3,1,0,1,0,0,1,0,0,0,circle,triangle,,,,,,,,,,,,,,,,,,,,,,,,,,,,,,,,,,,,,,,,,,,,,,,,,,,,,,
292468,2022-12-06_01h33.24.849,vts_reward_expectancy_bt,2022.2.4,MacIntel,58.82352941,Safari,1728,1117,,,a,0.418,10,84,0,0,11,11,6,1,0,0,1,0,1,0,0,0,hexagon,triangle,,,,,,,,,,,,,,,,,,,,,,,,,,,,,,,,,,,,,,,,,,,,,,,,,,,,,,
292468,2022-12-06_01h33.24.849,vts_reward_expectancy_bt,2022.2.4,MacIntel,58.82352941,Safari,1728,1117,,,l,0.252,10,94,0,1,0,12,8,1,0,0,1,0,0,0,0,1,hexagon,star,,,,,,,,,,,,,,,,,,,,,,,,,,,,,,,,,,,,,,,,,,,,,,,,,,,,,,
292468,2022-12-06_01h33.24.849,vts_reward_expectancy_bt,2022.2.4,MacIntel,58.82352941,Safari,1728,1117,,,a,0.065,10,104,0,1,1,13,7,1,0,0,1,0,0,1,0,0,hexagon,circle,,,,,,,,,,,,,,,,,,,,,,,,,,,,,,,,,,,,,,,,,,,,,,,,,,,,,,
292468,2022-12-06_01h33.24.849,vts_reward_expectancy_bt,2022.2.4,MacIntel,58.82352941,Safari,1728,1117,,,l,0.261,1,105,0,1,2,14,11,1,0,0,0,1,0,0,1,0,star,hexagon,,,,,,,,,,,,,,,,,,,,,,,,,,,,,,,,,,,,,,,,,,,,,,,,,,,,,,
292468,2022-12-06_01h33.24.849,vts_reward_expectancy_bt,2022.2.4,MacIntel,58.82352941,Safari,1728,1117,,,a,0.228,1,106,0,1,3,15,5,1,0,1,0,0,0,0,0,1,circle,star,,,,,,,,,,,,,,,,,,,,,,,,,,,,,,,,,,,,,,,,,,,,,,,,,,,,,,
292468,2022-12-06_01h33.24.849,vts_reward_expectancy_bt,2022.2.4,MacIntel,58.82352941,Safari,1728,1117,,,a,0.211,1,107,0,1,4,16,9,1,0,0,0,1,1,0,0,0,star,triangle,,,,,,,,,,,,,,,,,,,,,,,,,,,,,,,,,,,,,,,,,,,,,,,,,,,,,,
292468,2022-12-06_01h33.24.849,vts_reward_expectancy_bt,2022.2.4,MacIntel,58.82352941,Safari,1728,1117,,,a,0.206,1,108,0,1,5,17,0,1,1,0,0,0,0,1,0,0,triangle,circle,,,,,,,,,,,,,,,,,,,,,,,,,,,,,,,,,,,,,,,,,,,,,,,,,,,,,,
292468,2022-12-06_01h33.24.849,vts_reward_expectancy_bt,2022.2.4,MacIntel,58.82352941,Safari,1728,1117,,,l,0.214,1,109,0,1,6,18,6,1,0,0,1,0,1,0,0,0,hexagon,triangle,,,,,,,,,,,,,,,,,,,,,,,,,,,,,,,,,,,,,,,,,,,,,,,,,,,,,,
292468,2022-12-06_01h33.24.849,vts_reward_expectancy_bt,2022.2.4,MacIntel,58.82352941,Safari,1728,1117,,,l,0.172,10,119,0,1,7,19,1,1,1,0,0,0,0,0,1,0,triangle,hexagon,,,,,,,,,,,,,,,,,,,,,,,,,,,,,,,,,,,,,,,,,,,,,,,,,,,,,,
292468,2022-12-06_01h33.24.849,vts_reward_expectancy_bt,2022.2.4,MacIntel,58.82352941,Safari,1728,1117,,,l,0.468,10,129,0,1,8,20,10,1,0,0,0,1,0,1,0,0,star ,circle,,,,,,,,,,,,,,,,,,,,,,,,,,,,,,,,,,,,,,,,,,,,,,,,,,,,,,
292468,2022-12-06_01h33.24.849,vts_reward_expectancy_bt,2022.2.4,MacIntel,58.82352941,Safari,1728,1117,,,l,0.228,10,139,0,1,9,21,3,1,0,1,0,0,1,0,0,0,circle,triangle,,,,,,,,,,,,,,,,,,,,,,,,,,,,,,,,,,,,,,,,,,,,,,,,,,,,,,
292468,2022-12-06_01h33.24.849,vts_reward_expectancy_bt,2022.2.4,MacIntel,58.82352941,Safari,1728,1117,,,l,0.228,10,149,0,1,10,22,2,1,1,0,0,0,0,0,0,1,triangle,star,,,,,,,,,,,,,,,,,,,,,,,,,,,,,,,,,,,,,,,,,,,,,,,,,,,,,,
292468,2022-12-06_01h33.24.849,vts_reward_expectancy_bt,2022.2.4,MacIntel,58.82352941,Safari,1728,1117,,,l,0.85,1,150,0,1,11,23,4,1,0,1,0,0,0,0,1,0,circle,hexagon,,,,,,,,,,,,,,,,,,,,,,,,,,,,,,,,,,,,,,,,,,,,,,,,,,,,,,
292468,2022-12-06_01h33.24.849,vts_reward_expectancy_bt,2022.2.4,MacIntel,58.82352941,Safari,1728,1117,,,a,0.871,1,151,0,2,0,24,3,1,0,1,0,0,1,0,0,0,circle,triangle,,,,,,,,,,,,,,,,,,,,,,,,,,,,,,,,,,,,,,,,,,,,,,,,,,,,,,
292468,2022-12-06_01h33.24.849,vts_reward_expectancy_bt,2022.2.4,MacIntel,58.82352941,Safari,1728,1117,,,a,1.367,1,152,0,2,1,25,0,1,1,0,0,0,0,1,0,0,triangle,circle,,,,,,,,,,,,,,,,,,,,,,,,,,,,,,,,,,,,,,,,,,,,,,,,,,,,,,
292468,2022-12-06_01h33.24.849,vts_reward_expectancy_bt,2022.2.4,MacIntel,58.82352941,Safari,1728,1117,,,l,0.182,10,162,0,2,2,26,7,1,0,0,1,0,0,1,0,0,hexagon,circle,,,,,,,,,,,,,,,,,,,,,,,,,,,,,,,,,,,,,,,,,,,,,,,,,,,,,,
292468,2022-12-06_01h33.24.849,vts_reward_expectancy_bt,2022.2.4,MacIntel,58.82352941,Safari,1728,1117,,,l,0.227,1,163,0,2,3,27,10,1,0,0,0,1,0,1,0,0,star ,circle,,,,,,,,,,,,,,,,,,,,,,,,,,,,,,,,,,,,,,,,,,,,,,,,,,,,,,
292468,2022-12-06_01h33.24.849,vts_reward_expectancy_bt,2022.2.4,MacIntel,58.82352941,Safari,1728,1117,,,a,0.126,1,164,0,2,4,28,2,1,1,0,0,0,0,0,0,1,triangle,star,,,,,,,,,,,,,,,,,,,,,,,,,,,,,,,,,,,,,,,,,,,,,,,,,,,,,,
292468,2022-12-06_01h33.24.849,vts_reward_expectancy_bt,2022.2.4,MacIntel,58.82352941,Safari,1728,1117,,,a,0.14,1,165,0,2,5,29,5,1,0,1,0,0,0,0,0,1,circle,star,,,,,,,,,,,,,,,,,,,,,,,,,,,,,,,,,,,,,,,,,,,,,,,,,,,,,,
292468,2022-12-06_01h33.24.849,vts_reward_expectancy_bt,2022.2.4,MacIntel,58.82352941,Safari,1728,1117,,,l,0.031,1,166,0,2,6,30,4,1,0,1,0,0,0,0,1,0,circle,hexagon,,,,,,,,,,,,,,,,,,,,,,,,,,,,,,,,,,,,,,,,,,,,,,,,,,,,,,
292468,2022-12-06_01h33.24.849,vts_reward_expectancy_bt,2022.2.4,MacIntel,58.82352941,Safari,1728,1117,,,l,0.221,10,176,0,2,7,31,6,1,0,0,1,0,1,0,0,0,hexagon,triangle,,,,,,,,,,,,,,,,,,,,,,,,,,,,,,,,,,,,,,,,,,,,,,,,,,,,,,
292468,2022-12-06_01h33.24.849,vts_reward_expectancy_bt,2022.2.4,MacIntel,58.82352941,Safari,1728,1117,,,l,0.251,10,186,0,2,8,32,8,1,0,0,1,0,0,0,0,1,hexagon,star,,,,,,,,,,,,,,,,,,,,,,,,,,,,,,,,,,,,,,,,,,,,,,,,,,,,,,
292468,2022-12-06_01h33.24.849,vts_reward_expectancy_bt,2022.2.4,MacIntel,58.82352941,Safari,1728,1117,,,l,0.164,1,187,0,2,9,33,9,1,0,0,0,1,1,0,0,0,star,triangle,,,,,,,,,,,,,,,,,,,,,,,,,,,,,,,,,,,,,,,,,,,,,,,,,,,,,,
292468,2022-12-06_01h33.24.849,vts_reward_expectancy_bt,2022.2.4,MacIntel,58.82352941,Safari,1728,1117,,,a,0.214,1,188,0,2,10,34,1,1,1,0,0,0,0,0,1,0,triangle,hexagon,,,,,,,,,,,,,,,,,,,,,,,,,,,,,,,,,,,,,,,,,,,,,,,,,,,,,,
292468,2022-12-06_01h33.24.849,vts_reward_expectancy_bt,2022.2.4,MacIntel,58.82352941,Safari,1728,1117,,,a,0.121,10,198,0,2,11,35,11,1,0,0,0,1,0,0,1,0,star,hexagon,,,,,,,,,,,,,,,,,,,,,,,,,,,,,,,,,,,,,,,,,,,,,,,,,,,,,,
292468,2022-12-06_01h33.24.849,vts_reward_expectancy_bt,2022.2.4,MacIntel,58.82352941,Safari,1728,1117,,,l,0.455,1,199,1,0,0,0,6,1,0,0,1,0,1,0,0,0,hexagon,triangle,,,,,,,,,,,,,,,,,,,,,,,,,,,,,,,,,,,,,,,,,,,,,,,,,,,,,,
292468,2022-12-06_01h33.24.849,vts_reward_expectancy_bt,2022.2.4,MacIntel,58.82352941,Safari,1728,1117,,,l,0.376,10,209,1,0,1,1,1,1,1,0,0,0,0,0,1,0,triangle,hexagon,,,,,,,,,,,,,,,,,,,,,,,,,,,,,,,,,,,,,,,,,,,,,,,,,,,,,,
292468,2022-12-06_01h33.24.849,vts_reward_expectancy_bt,2022.2.4,MacIntel,58.82352941,Safari,1728,1117,,,l,0.315,1,210,1,0,2,2,4,1,0,1,0,0,0,0,1,0,circle,hexagon,,,,,,,,,,,,,,,,,,,,,,,,,,,,,,,,,,,,,,,,,,,,,,,,,,,,,,
292468,2022-12-06_01h33.24.849,vts_reward_expectancy_bt,2022.2.4,MacIntel,58.82352941,Safari,1728,1117,,,a,0.074,1,211,1,0,3,3,2,1,1,0,0,0,0,0,0,1,triangle,star,,,,,,,,,,,,,,,,,,,,,,,,,,,,,,,,,,,,,,,,,,,,,,,,,,,,,,
292468,2022-12-06_01h33.24.849,vts_reward_expectancy_bt,2022.2.4,MacIntel,58.82352941,Safari,1728,1117,,,a,0.212,1,212,1,0,4,4,10,1,0,0,0,1,0,1,0,0,star ,circle,,,,,,,,,,,,,,,,,,,,,,,,,,,,,,,,,,,,,,,,,,,,,,,,,,,,,,
292468,2022-12-06_01h33.24.849,vts_reward_expectancy_bt,2022.2.4,MacIntel,58.82352941,Safari,1728,1117,,,a,0.137,10,222,1,0,5,5,9,1,0,0,0,1,1,0,0,0,star,triangle,,,,,,,,,,,,,,,,,,,,,,,,,,,,,,,,,,,,,,,,,,,,,,,,,,,,,,
292468,2022-12-06_01h33.24.849,vts_reward_expectancy_bt,2022.2.4,MacIntel,58.82352941,Safari,1728,1117,,,l,0.038,1,223,1,0,6,6,3,1,0,1,0,0,1,0,0,0,circle,triangle,,,,,,,,,,,,,,,,,,,,,,,,,,,,,,,,,,,,,,,,,,,,,,,,,,,,,,
292468,2022-12-06_01h33.24.849,vts_reward_expectancy_bt,2022.2.4,MacIntel,58.82352941,Safari,1728,1117,,,a,0.306,1,224,1,0,7,7,5,1,0,1,0,0,0,0,0,1,circle,star,,,,,,,,,,,,,,,,,,,,,,,,,,,,,,,,,,,,,,,,,,,,,,,,,,,,,,
292468,2022-12-06_01h33.24.849,vts_reward_expectancy_bt,2022.2.4,MacIntel,58.82352941,Safari,1728,1117,,,l,0.585,1,225,1,0,8,8,11,1,0,0,0,1,0,0,1,0,star,hexagon,,,,,,,,,,,,,,,,,,,,,,,,,,,,,,,,,,,,,,,,,,,,,,,,,,,,,,
292468,2022-12-06_01h33.24.849,vts_reward_expectancy_bt,2022.2.4,MacIntel,58.82352941,Safari,1728,1117,,,a,0.676,1,226,1,0,9,9,8,1,0,0,1,0,0,0,0,1,hexagon,star,,,,,,,,,,,,,,,,,,,,,,,,,,,,,,,,,,,,,,,,,,,,,,,,,,,,,,
292468,2022-12-06_01h33.24.849,vts_reward_expectancy_bt,2022.2.4,MacIntel,58.82352941,Safari,1728,1117,,,a,0.668,10,236,1,0,10,10,0,1,1,0,0,0,0,1,0,0,triangle,circle,,,,,,,,,,,,,,,,,,,,,,,,,,,,,,,,,,,,,,,,,,,,,,,,,,,,,,
292468,2022-12-06_01h33.24.849,vts_reward_expectancy_bt,2022.2.4,MacIntel,58.82352941,Safari,1728,1117,,,l,0.62,10,246,1,0,11,11,7,1,0,0,1,0,0,1,0,0,hexagon,circle,,,,,,,,,,,,,,,,,,,,,,,,,,,,,,,,,,,,,,,,,,,,,,,,,,,,,,
292468,2022-12-06_01h33.24.849,vts_reward_expectancy_bt,2022.2.4,MacIntel,58.82352941,Safari,1728,1117,,,a,1.202,10,256,1,1,0,12,10,1,0,0,0,1,0,1,0,0,star ,circle,,,,,,,,,,,,,,,,,,,,,,,,,,,,,,,,,,,,,,,,,,,,,,,,,,,,,,
292468,2022-12-06_01h33.24.849,vts_reward_expectancy_bt,2022.2.4,MacIntel,58.82352941,Safari,1728,1117,,,l,0.786,1,257,1,1,1,13,6,1,0,0,1,0,1,0,0,0,hexagon,triangle,,,,,,,,,,,,,,,,,,,,,,,,,,,,,,,,,,,,,,,,,,,,,,,,,,,,,,
292468,2022-12-06_01h33.24.849,vts_reward_expectancy_bt,2022.2.4,MacIntel,58.82352941,Safari,1728,1117,,,a,0.805,1,258,1,1,2,14,5,1,0,1,0,0,0,0,0,1,circle,star,,,,,,,,,,,,,,,,,,,,,,,,,,,,,,,,,,,,,,,,,,,,,,,,,,,,,,
292468,2022-12-06_01h33.24.849,vts_reward_expectancy_bt,2022.2.4,MacIntel,58.82352941,Safari,1728,1117,,,a,0.551,1,259,1,1,3,15,2,1,1,0,0,0,0,0,0,1,triangle,star,,,,,,,,,,,,,,,,,,,,,,,,,,,,,,,,,,,,,,,,,,,,,,,,,,,,,,
292468,2022-12-06_01h33.24.849,vts_reward_expectancy_bt,2022.2.4,MacIntel,58.82352941,Safari,1728,1117,,,a,0.874,1,260,1,1,4,16,4,1,0,1,0,0,0,0,1,0,circle,hexagon,,,,,,,,,,,,,,,,,,,,,,,,,,,,,,,,,,,,,,,,,,,,,,,,,,,,,,
292468,2022-12-06_01h33.24.849,vts_reward_expectancy_bt,2022.2.4,MacIntel,58.82352941,Safari,1728,1117,,,a,0.092,10,270,1,1,5,17,9,1,0,0,0,1,1,0,0,0,star,triangle,,,,,,,,,,,,,,,,,,,,,,,,,,,,,,,,,,,,,,,,,,,,,,,,,,,,,,
292468,2022-12-06_01h33.24.849,vts_reward_expectancy_bt,2022.2.4,MacIntel,58.82352941,Safari,1728,1117,,,a,0.208,10,280,1,1,6,18,1,1,1,0,0,0,0,0,1,0,triangle,hexagon,,,,,,,,,,,,,,,,,,,,,,,,,,,,,,,,,,,,,,,,,,,,,,,,,,,,,,
292468,2022-12-06_01h33.24.849,vts_reward_expectancy_bt,2022.2.4,MacIntel,58.82352941,Safari,1728,1117,,,a,0.726,1,281,1,1,7,19,3,1,0,1,0,0,1,0,0,0,circle,triangle,,,,,,,,,,,,,,,,,,,,,,,,,,,,,,,,,,,,,,,,,,,,,,,,,,,,,,
292468,2022-12-06_01h33.24.849,vts_reward_expectancy_bt,2022.2.4,MacIntel,58.82352941,Safari,1728,1117,,,l,0.63,10,291,1,1,8,20,11,1,0,0,0,1,0,0,1,0,star,hexagon,,,,,,,,,,,,,,,,,,,,,,,,,,,,,,,,,,,,,,,,,,,,,,,,,,,,,,
292468,2022-12-06_01h33.24.849,vts_reward_expectancy_bt,2022.2.4,MacIntel,58.82352941,Safari,1728,1117,,,l,0.474,10,301,1,1,9,21,8,1,0,0,1,0,0,0,0,1,hexagon,star,,,,,,,,,,,,,,,,,,,,,,,,,,,,,,,,,,,,,,,,,,,,,,,,,,,,,,
292468,2022-12-06_01h33.24.849,vts_reward_expectancy_bt,2022.2.4,MacIntel,58.82352941,Safari,1728,1117,,,l,0.02,1,302,1,1,10,22,0,1,1,0,0,0,0,1,0,0,triangle,circle,,,,,,,,,,,,,,,,,,,,,,,,,,,,,,,,,,,,,,,,,,,,,,,,,,,,,,
292468,2022-12-06_01h33.24.849,vts_reward_expectancy_bt,2022.2.4,MacIntel,58.82352941,Safari,1728,1117,,,a,0.022,1,303,1,1,11,23,7,1,0,0,1,0,0,1,0,0,hexagon,circle,,,,,,,,,,,,,,,,,,,,,,,,,,,,,,,,,,,,,,,,,,,,,,,,,,,,,,
292468,2022-12-06_01h33.24.849,vts_reward_expectancy_bt,2022.2.4,MacIntel,58.82352941,Safari,1728,1117,,,a,0.242,10,313,1,2,0,24,1,1,1,0,0,0,0,0,1,0,triangle,hexagon,,,,,,,,,,,,,,,,,,,,,,,,,,,,,,,,,,,,,,,,,,,,,,,,,,,,,,
292468,2022-12-06_01h33.24.849,vts_reward_expectancy_bt,2022.2.4,MacIntel,58.82352941,Safari,1728,1117,,,a,0.261,1,314,1,2,1,25,0,1,1,0,0,0,0,1,0,0,triangle,circle,,,,,,,,,,,,,,,,,,,,,,,,,,,,,,,,,,,,,,,,,,,,,,,,,,,,,,
292468,2022-12-06_01h33.24.849,vts_reward_expectancy_bt,2022.2.4,MacIntel,58.82352941,Safari,1728,1117,,,l,0.262,10,324,1,2,2,26,8,1,0,0,1,0,0,0,0,1,hexagon,star,,,,,,,,,,,,,,,,,,,,,,,,,,,,,,,,,,,,,,,,,,,,,,,,,,,,,,
292468,2022-12-06_01h33.24.849,vts_reward_expectancy_bt,2022.2.4,MacIntel,58.82352941,Safari,1728,1117,,,l,0.537,1,325,1,2,3,27,9,1,0,0,0,1,1,0,0,0,star,triangle,,,,,,,,,,,,,,,,,,,,,,,,,,,,,,,,,,,,,,,,,,,,,,,,,,,,,,
292468,2022-12-06_01h33.24.849,vts_reward_expectancy_bt,2022.2.4,MacIntel,58.82352941,Safari,1728,1117,,,a,0.214,1,326,1,2,4,28,2,1,1,0,0,0,0,0,0,1,triangle,star,,,,,,,,,,,,,,,,,,,,,,,,,,,,,,,,,,,,,,,,,,,,,,,,,,,,,,
292468,2022-12-06_01h33.24.849,vts_reward_expectancy_bt,2022.2.4,MacIntel,58.82352941,Safari,1728,1117,,,l,0.624,10,336,1,2,5,29,5,1,0,1,0,0,0,0,0,1,circle,star,,,,,,,,,,,,,,,,,,,,,,,,,,,,,,,,,,,,,,,,,,,,,,,,,,,,,,
292468,2022-12-06_01h33.24.849,vts_reward_expectancy_bt,2022.2.4,MacIntel,58.82352941,Safari,1728,1117,,,l,0.517,1,337,1,2,6,30,6,1,0,0,1,0,1,0,0,0,hexagon,triangle,,,,,,,,,,,,,,,,,,,,,,,,,,,,,,,,,,,,,,,,,,,,,,,,,,,,,,
292468,2022-12-06_01h33.24.849,vts_reward_expectancy_bt,2022.2.4,MacIntel,58.82352941,Safari,1728,1117,,,a,1.116,10,347,1,2,7,31,3,1,0,1,0,0,1,0,0,0,circle,triangle,,,,,,,,,,,,,,,,,,,,,,,,,,,,,,,,,,,,,,,,,,,,,,,,,,,,,,
292468,2022-12-06_01h33.24.849,vts_reward_expectancy_bt,2022.2.4,MacIntel,58.82352941,Safari,1728,1117,,,l,0.718,1,348,1,2,8,32,4,1,0,1,0,0,0,0,1,0,circle,hexagon,,,,,,,,,,,,,,,,,,,,,,,,,,,,,,,,,,,,,,,,,,,,,,,,,,,,,,
292468,2022-12-06_01h33.24.849,vts_reward_expectancy_bt,2022.2.4,MacIntel,58.82352941,Safari,1728,1117,,,l,0.823,10,358,1,2,9,33,11,1,0,0,0,1,0,0,1,0,star,hexagon,,,,,,,,,,,,,,,,,,,,,,,,,,,,,,,,,,,,,,,,,,,,,,,,,,,,,,
292468,2022-12-06_01h33.24.849,vts_reward_expectancy_bt,2022.2.4,MacIntel,58.82352941,Safari,1728,1117,,,l,0.568,1,359,1,2,10,34,7,1,0,0,1,0,0,1,0,0,hexagon,circle,,,,,,,,,,,,,,,,,,,,,,,,,,,,,,,,,,,,,,,,,,,,,,,,,,,,,,
292468,2022-12-06_01h33.24.849,vts_reward_expectancy_bt,2022.2.4,MacIntel,58.82352941,Safari,1728,1117,,,a,0.247,1,360,1,2,11,35,10,1,0,0,0,1,0,1,0,0,star ,circle,,,,,,,,,,,,,,,,,,,,,,,,,,,,,,,,,,,,,,,,,,,,,,,,,,,,,,
292468,2022-12-06_01h33.24.849,vts_reward_expectancy_bt,2022.2.4,MacIntel,58.82352941,Safari,1728,1117,,,l,0.439,1,361,2,0,0,0,3,1,0,1,0,0,1,0,0,0,circle,triangle,,,,,,,,,,,,,,,,,,,,,,,,,,,,,,,,,,,,,,,,,,,,,,,,,,,,,,
292468,2022-12-06_01h33.24.849,vts_reward_expectancy_bt,2022.2.4,MacIntel,58.82352941,Safari,1728,1117,,,l,0.239,1,362,2,0,1,1,0,1,1,0,0,0,0,1,0,0,triangle,circle,,,,,,,,,,,,,,,,,,,,,,,,,,,,,,,,,,,,,,,,,,,,,,,,,,,,,,
292468,2022-12-06_01h33.24.849,vts_reward_expectancy_bt,2022.2.4,MacIntel,58.82352941,Safari,1728,1117,,,l,0.049,1,363,2,0,2,2,11,1,0,0,0,1,0,0,1,0,star,hexagon,,,,,,,,,,,,,,,,,,,,,,,,,,,,,,,,,,,,,,,,,,,,,,,,,,,,,,
292468,2022-12-06_01h33.24.849,vts_reward_expectancy_bt,2022.2.4,MacIntel,58.82352941,Safari,1728,1117,,,l,0.394,10,373,2,0,3,3,1,1,1,0,0,0,0,0,1,0,triangle,hexagon,,,,,,,,,,,,,,,,,,,,,,,,,,,,,,,,,,,,,,,,,,,,,,,,,,,,,,
292468,2022-12-06_01h33.24.849,vts_reward_expectancy_bt,2022.2.4,MacIntel,58.82352941,Safari,1728,1117,,,l,0.17,1,374,2,0,4,4,5,1,0,1,0,0,0,0,0,1,circle,star,,,,,,,,,,,,,,,,,,,,,,,,,,,,,,,,,,,,,,,,,,,,,,,,,,,,,,
292468,2022-12-06_01h33.24.849,vts_reward_expectancy_bt,2022.2.4,MacIntel,58.82352941,Safari,1728,1117,,,l,0.16,1,375,2,0,5,5,9,1,0,0,0,1,1,0,0,0,star,triangle,,,,,,,,,,,,,,,,,,,,,,,,,,,,,,,,,,,,,,,,,,,,,,,,,,,,,,
292468,2022-12-06_01h33.24.849,vts_reward_expectancy_bt,2022.2.4,MacIntel,58.82352941,Safari,1728,1117,,,l,0.275,10,385,2,0,6,6,8,1,0,0,1,0,0,0,0,1,hexagon,star,,,,,,,,,,,,,,,,,,,,,,,,,,,,,,,,,,,,,,,,,,,,,,,,,,,,,,
292468,2022-12-06_01h33.24.849,vts_reward_expectancy_bt,2022.2.4,MacIntel,58.82352941,Safari,1728,1117,,,l,0.012,1,386,2,0,7,7,6,1,0,0,1,0,1,0,0,0,hexagon,triangle,,,,,,,,,,,,,,,,,,,,,,,,,,,,,,,,,,,,,,,,,,,,,,,,,,,,,,
292468,2022-12-06_01h33.24.849,vts_reward_expectancy_bt,2022.2.4,MacIntel,58.82352941,Safari,1728,1117,,,l,0.114,1,387,2,0,8,8,2,1,1,0,0,0,0,0,0,1,triangle,star,,,,,,,,,,,,,,,,,,,,,,,,,,,,,,,,,,,,,,,,,,,,,,,,,,,,,,
292468,2022-12-06_01h33.24.849,vts_reward_expectancy_bt,2022.2.4,MacIntel,58.82352941,Safari,1728,1117,,,l,0.544,1,388,2,0,9,9,7,1,0,0,1,0,0,1,0,0,hexagon,circle,,,,,,,,,,,,,,,,,,,,,,,,,,,,,,,,,,,,,,,,,,,,,,,,,,,,,,
292468,2022-12-06_01h33.24.849,vts_reward_expectancy_bt,2022.2.4,MacIntel,58.82352941,Safari,1728,1117,,,l,0.306,1,389,2,0,10,10,4,1,0,1,0,0,0,0,1,0,circle,hexagon,,,,,,,,,,,,,,,,,,,,,,,,,,,,,,,,,,,,,,,,,,,,,,,,,,,,,,
292468,2022-12-06_01h33.24.849,vts_reward_expectancy_bt,2022.2.4,MacIntel,58.82352941,Safari,1728,1117,,,l,0.032,1,390,2,0,11,11,10,1,0,0,0,1,0,1,0,0,star ,circle,,,,,,,,,,,,,,,,,,,,,,,,,,,,,,,,,,,,,,,,,,,,,,,,,,,,,,
292468,2022-12-06_01h33.24.849,vts_reward_expectancy_bt,2022.2.4,MacIntel,58.82352941,Safari,1728,1117,,,l,0.735,10,400,2,1,0,12,2,1,1,0,0,0,0,0,0,1,triangle,star,,,,,,,,,,,,,,,,,,,,,,,,,,,,,,,,,,,,,,,,,,,,,,,,,,,,,,
292468,2022-12-06_01h33.24.849,vts_reward_expectancy_bt,2022.2.4,MacIntel,58.82352941,Safari,1728,1117,,,l,0.6,1,401,2,1,1,13,6,1,0,0,1,0,1,0,0,0,hexagon,triangle,,,,,,,,,,,,,,,,,,,,,,,,,,,,,,,,,,,,,,,,,,,,,,,,,,,,,,
292468,2022-12-06_01h33.24.849,vts_reward_expectancy_bt,2022.2.4,MacIntel,58.82352941,Safari,1728,1117,,,l,0.576,10,411,2,1,2,14,7,1,0,0,1,0,0,1,0,0,hexagon,circle,,,,,,,,,,,,,,,,,,,,,,,,,,,,,,,,,,,,,,,,,,,,,,,,,,,,,,
292468,2022-12-06_01h33.24.849,vts_reward_expectancy_bt,2022.2.4,MacIntel,58.82352941,Safari,1728,1117,,,l,0.402,1,412,2,1,3,15,8,1,0,0,1,0,0,0,0,1,hexagon,star,,,,,,,,,,,,,,,,,,,,,,,,,,,,,,,,,,,,,,,,,,,,,,,,,,,,,,
292468,2022-12-06_01h33.24.849,vts_reward_expectancy_bt,2022.2.4,MacIntel,58.82352941,Safari,1728,1117,,,l,0.199,1,413,2,1,4,16,5,1,0,1,0,0,0,0,0,1,circle,star,,,,,,,,,,,,,,,,,,,,,,,,,,,,,,,,,,,,,,,,,,,,,,,,,,,,,,
292468,2022-12-06_01h33.24.849,vts_reward_expectancy_bt,2022.2.4,MacIntel,58.82352941,Safari,1728,1117,,,a,0.273,1,414,2,1,5,17,4,1,0,1,0,0,0,0,1,0,circle,hexagon,,,,,,,,,,,,,,,,,,,,,,,,,,,,,,,,,,,,,,,,,,,,,,,,,,,,,,
292468,2022-12-06_01h33.24.849,vts_reward_expectancy_bt,2022.2.4,MacIntel,58.82352941,Safari,1728,1117,,,l,0.051,1,415,2,1,6,18,10,1,0,0,0,1,0,1,0,0,star ,circle,,,,,,,,,,,,,,,,,,,,,,,,,,,,,,,,,,,,,,,,,,,,,,,,,,,,,,
292468,2022-12-06_01h33.24.849,vts_reward_expectancy_bt,2022.2.4,MacIntel,58.82352941,Safari,1728,1117,,,a,0.492,1,416,2,1,7,19,1,1,1,0,0,0,0,0,1,0,triangle,hexagon,,,,,,,,,,,,,,,,,,,,,,,,,,,,,,,,,,,,,,,,,,,,,,,,,,,,,,
292468,2022-12-06_01h33.24.849,vts_reward_expectancy_bt,2022.2.4,MacIntel,58.82352941,Safari,1728,1117,,,l,0.465,1,417,2,1,8,20,9,1,0,0,0,1,1,0,0,0,star,triangle,,,,,,,,,,,,,,,,,,,,,,,,,,,,,,,,,,,,,,,,,,,,,,,,,,,,,,
292468,2022-12-06_01h33.24.849,vts_reward_expectancy_bt,2022.2.4,MacIntel,58.82352941,Safari,1728,1117,,,a,1.025,10,427,2,1,9,21,0,1,1,0,0,0,0,1,0,0,triangle,circle,,,,,,,,,,,,,,,,,,,,,,,,,,,,,,,,,,,,,,,,,,,,,,,,,,,,,,
292468,2022-12-06_01h33.24.849,vts_reward_expectancy_bt,2022.2.4,MacIntel,58.82352941,Safari,1728,1117,,,a,0.265,10,437,2,1,10,22,3,1,0,1,0,0,1,0,0,0,circle,triangle,,,,,,,,,,,,,,,,,,,,,,,,,,,,,,,,,,,,,,,,,,,,,,,,,,,,,,
292468,2022-12-06_01h33.24.849,vts_reward_expectancy_bt,2022.2.4,MacIntel,58.82352941,Safari,1728,1117,,,a,0.234,1,438,2,1,11,23,11,1,0,0,0,1,0,0,1,0,star,hexagon,,,,,,,,,,,,,,,,,,,,,,,,,,,,,,,,,,,,,,,,,,,,,,,,,,,,,,
292468,2022-12-06_01h33.24.849,vts_reward_expectancy_bt,2022.2.4,MacIntel,58.82352941,Safari,1728,1117,,,l,0.314,10,448,2,2,0,24,5,1,0,1,0,0,0,0,0,1,circle,star,,,,,,,,,,,,,,,,,,,,,,,,,,,,,,,,,,,,,,,,,,,,,,,,,,,,,,
292468,2022-12-06_01h33.24.849,vts_reward_expectancy_bt,2022.2.4,MacIntel,58.82352941,Safari,1728,1117,,,l,0.214,10,458,2,2,1,25,2,1,1,0,0,0,0,0,0,1,triangle,star,,,,,,,,,,,,,,,,,,,,,,,,,,,,,,,,,,,,,,,,,,,,,,,,,,,,,,
292468,2022-12-06_01h33.24.849,vts_reward_expectancy_bt,2022.2.4,MacIntel,58.82352941,Safari,1728,1117,,,l,0.252,10,468,2,2,2,26,9,1,0,0,0,1,1,0,0,0,star,triangle,,,,,,,,,,,,,,,,,,,,,,,,,,,,,,,,,,,,,,,,,,,,,,,,,,,,,,
292468,2022-12-06_01h33.24.849,vts_reward_expectancy_bt,2022.2.4,MacIntel,58.82352941,Safari,1728,1117,,,l,0.55,10,478,2,2,3,27,3,1,0,1,0,0,1,0,0,0,circle,triangle,,,,,,,,,,,,,,,,,,,,,,,,,,,,,,,,,,,,,,,,,,,,,,,,,,,,,,
292468,2022-12-06_01h33.24.849,vts_reward_expectancy_bt,2022.2.4,MacIntel,58.82352941,Safari,1728,1117,,,l,0.072,10,488,2,2,4,28,8,1,0,0,1,0,0,0,0,1,hexagon,star,,,,,,,,,,,,,,,,,,,,,,,,,,,,,,,,,,,,,,,,,,,,,,,,,,,,,,
292468,2022-12-06_01h33.24.849,vts_reward_expectancy_bt,2022.2.4,MacIntel,58.82352941,Safari,1728,1117,,,l,0.052,1,489,2,2,5,29,6,1,0,0,1,0,1,0,0,0,hexagon,triangle,,,,,,,,,,,,,,,,,,,,,,,,,,,,,,,,,,,,,,,,,,,,,,,,,,,,,,
292468,2022-12-06_01h33.24.849,vts_reward_expectancy_bt,2022.2.4,MacIntel,58.82352941,Safari,1728,1117,,,a,0.304,1,490,2,2,6,30,1,1,1,0,0,0,0,0,1,0,triangle,hexagon,,,,,,,,,,,,,,,,,,,,,,,,,,,,,,,,,,,,,,,,,,,,,,,,,,,,,,
292468,2022-12-06_01h33.24.849,vts_reward_expectancy_bt,2022.2.4,MacIntel,58.82352941,Safari,1728,1117,,,l,0.599,1,491,2,2,7,31,10,1,0,0,0,1,0,1,0,0,star ,circle,,,,,,,,,,,,,,,,,,,,,,,,,,,,,,,,,,,,,,,,,,,,,,,,,,,,,,
292468,2022-12-06_01h33.24.849,vts_reward_expectancy_bt,2022.2.4,MacIntel,58.82352941,Safari,1728,1117,,,a,0.407,1,492,2,2,8,32,11,1,0,0,0,1,0,0,1,0,star,hexagon,,,,,,,,,,,,,,,,,,,,,,,,,,,,,,,,,,,,,,,,,,,,,,,,,,,,,,
292468,2022-12-06_01h33.24.849,vts_reward_expectancy_bt,2022.2.4,MacIntel,58.82352941,Safari,1728,1117,,,l,0.406,1,493,2,2,9,33,4,1,0,1,0,0,0,0,1,0,circle,hexagon,,,,,,,,,,,,,,,,,,,,,,,,,,,,,,,,,,,,,,,,,,,,,,,,,,,,,,
292468,2022-12-06_01h33.24.849,vts_reward_expectancy_bt,2022.2.4,MacIntel,58.82352941,Safari,1728,1117,,,l,0,10,503,2,2,10,34,7,1,0,0,1,0,0,1,0,0,hexagon,circle,,,,,,,,,,,,,,,,,,,,,,,,,,,,,,,,,,,,,,,,,,,,,,,,,,,,,,
292468,2022-12-06_01h33.24.849,vts_reward_expectancy_bt,2022.2.4,MacIntel,58.82352941,Safari,1728,1117,,,l,0.182,10,513,2,2,11,35,0,1,1,0,0,0,0,1,0,0,triangle,circle,,,,,,,,,,,,,,,,,,,,,,,,,,,,,,,,,,,,,,,,,,,,,,,,,,,,,,
292468,2022-12-06_01h33.24.849,vts_reward_expectancy_bt,2022.2.4,MacIntel,58.82352941,Safari,1728,1117,,,,,,,,,,,,,,,,,,,,,,,W,160,hexagon,1,0,f,2.166,0,0,0,0,0,1,,,,,,,,,,,,,,,,,,,,,,,,,,,,,,,,,,,,,,,,,
292468,2022-12-06_01h33.24.849,vts_reward_expectancy_bt,2022.2.4,MacIntel,58.82352941,Safari,1728,1117,,,,,,,,,,,,,,,,,,,,,,,F,146,star,1,0,d,0.782,0,1,0,1,0,1,,,,,,,,,,,,,,,,,,,,,,,,,,,,,,,,,,,,,,,,,
292468,2022-12-06_01h33.24.849,vts_reward_expectancy_bt,2022.2.4,MacIntel,58.82352941,Safari,1728,1117,,,,,,,,,,,,,,,,,,,,,,,U,125,triangle,1,0,f,0.687,0,2,0,2,0,1,,,,,,,,,,,,,,,,,,,,,,,,,,,,,,,,,,,,,,,,,
292468,2022-12-06_01h33.24.849,vts_reward_expectancy_bt,2022.2.4,MacIntel,58.82352941,Safari,1728,1117,,,,,,,,,,,,,,,,,,,,,,,B,174,circle,1,0,d,0.591,0,3,0,3,0,1,,,,,,,,,,,,,,,,,,,,,,,,,,,,,,,,,,,,,,,,,
292468,2022-12-06_01h33.24.849,vts_reward_expectancy_bt,2022.2.4,MacIntel,58.82352941,Safari,1728,1117,,,,,,,,,,,,,,,,,,,,,,,D,132,hexagon,1,0,d,0.674,0,4,0,4,0,1,,,,,,,,,,,,,,,,,,,,,,,,,,,,,,,,,,,,,,,,,
292468,2022-12-06_01h33.24.849,vts_reward_expectancy_bt,2022.2.4,MacIntel,58.82352941,Safari,1728,1117,,,,,,,,,,,,,,,,,,,,,,,Y,167,star,1,0,f,0.714,0,5,0,5,0,1,,,,,,,,,,,,,,,,,,,,,,,,,,,,,,,,,,,,,,,,,
292468,2022-12-06_01h33.24.849,vts_reward_expectancy_bt,2022.2.4,MacIntel,58.82352941,Safari,1728,1117,,,,,,,,,,,,,,,,,,,,,,,H,181,triangle,1,0,d,0.823,0,6,0,6,0,1,,,,,,,,,,,,,,,,,,,,,,,,,,,,,,,,,,,,,,,,,
292468,2022-12-06_01h33.24.849,vts_reward_expectancy_bt,2022.2.4,MacIntel,58.82352941,Safari,1728,1117,,,,,,,,,,,,,,,,,,,,,,,S,139,circle,1,0,f,0.867,0,7,0,7,0,1,,,,,,,,,,,,,,,,,,,,,,,,,,,,,,,,,,,,,,,,,
292468,2022-12-06_01h33.24.849,vts_reward_expectancy_bt,2022.2.4,MacIntel,58.82352941,Safari,1728,1117,,,,,,,,,,,,,,,,,,,,,,,W,160,circle,1,0,f,0.748,0,8,0,8,0,1,,,,,,,,,,,,,,,,,,,,,,,,,,,,,,,,,,,,,,,,,
292468,2022-12-06_01h33.24.849,vts_reward_expectancy_bt,2022.2.4,MacIntel,58.82352941,Safari,1728,1117,,,,,,,,,,,,,,,,,,,,,,,F,146,hexagon,1,0,d,1.09,0,9,0,9,0,1,,,,,,,,,,,,,,,,,,,,,,,,,,,,,,,,,,,,,,,,,
292468,2022-12-06_01h33.24.849,vts_reward_expectancy_bt,2022.2.4,MacIntel,58.82352941,Safari,1728,1117,,,,,,,,,,,,,,,,,,,,,,,H,181,hexagon,1,0,,,1,,,,,,k,2.11,0,0,0,0,1,,,,,,,,,,,,,,,,,,,,,,,,,,,,,,,,,,
292468,2022-12-06_01h33.24.849,vts_reward_expectancy_bt,2022.2.4,MacIntel,58.82352941,Safari,1728,1117,,,,,,,,,,,,,,,,,,,,,,,D,174,star,1,0,,,1,,,,,,k,1.835,1,0,1,0,1,,,,,,,,,,,,,,,,,,,,,,,,,,,,,,,,,,
292468,2022-12-06_01h33.24.849,vts_reward_expectancy_bt,2022.2.4,MacIntel,58.82352941,Safari,1728,1117,,,,,,,,,,,,,,,,,,,,,,,Y,146,circle,1,0,,,1,,,,,,j,1.239,2,0,2,0,1,,,,,,,,,,,,,,,,,,,,,,,,,,,,,,,,,,
292468,2022-12-06_01h33.24.849,vts_reward_expectancy_bt,2022.2.4,MacIntel,58.82352941,Safari,1728,1117,,,,,,,,,,,,,,,,,,,,,,,U,160,triangle,1,0,,,1,,,,,,k,1.743,3,0,3,0,1,,,,,,,,,,,,,,,,,,,,,,,,,,,,,,,,,,
292468,2022-12-06_01h33.24.849,vts_reward_expectancy_bt,2022.2.4,MacIntel,58.82352941,Safari,1728,1117,,,,,,,,,,,,,,,,,,,,,,,W,139,hexagon,1,0,,,1,,,,,,j,1.456,4,0,4,0,1,,,,,,,,,,,,,,,,,,,,,,,,,,,,,,,,,,
292468,2022-12-06_01h33.24.849,vts_reward_expectancy_bt,2022.2.4,MacIntel,58.82352941,Safari,1728,1117,,,,,,,,,,,,,,,,,,,,,,,F,167,star,1,0,,,1,,,,,,k,0.837,5,0,5,0,1,,,,,,,,,,,,,,,,,,,,,,,,,,,,,,,,,,
292468,2022-12-06_01h33.24.849,vts_reward_expectancy_bt,2022.2.4,MacIntel,58.82352941,Safari,1728,1117,,,,,,,,,,,,,,,,,,,,,,,S,132,circle,1,0,,,1,,,,,,j,0.78,6,0,6,0,1,,,,,,,,,,,,,,,,,,,,,,,,,,,,,,,,,,
292468,2022-12-06_01h33.24.849,vts_reward_expectancy_bt,2022.2.4,MacIntel,58.82352941,Safari,1728,1117,,,,,,,,,,,,,,,,,,,,,,,B,125,triangle,1,0,,,1,,,,,,j,1.013,7,0,7,0,1,,,,,,,,,,,,,,,,,,,,,,,,,,,,,,,,,,
292468,2022-12-06_01h33.24.849,vts_reward_expectancy_bt,2022.2.4,MacIntel,58.82352941,Safari,1728,1117,,,,,,,,,,,,,,,,,,,,,,,H,181,hexagon,1,0,,,1,,,,,,k,0.642,8,0,8,0,1,,,,,,,,,,,,,,,,,,,,,,,,,,,,,,,,,,
292468,2022-12-06_01h33.24.849,vts_reward_expectancy_bt,2022.2.4,MacIntel,58.82352941,Safari,1728,1117,,,,,,,,,,,,,,,,,,,,,,,D,174,circle,1,0,,,1,,,,,,k,0.735,9,0,9,0,1,,,,,,,,,,,,,,,,,,,,,,,,,,,,,,,,,,
292468,2022-12-06_01h33.24.849,vts_reward_expectancy_bt,2022.2.4,MacIntel,58.82352941,Safari,1728,1117,,,,,0,513,,,,,,,,,,,,,,,,,B,146,triangle,1,0,,,2,,,,,,,,,,,,,-1,letter,NA,d,1.344,vtsPrac,0,0,0,0,1,,,,,,,,,,,,,,,,,,,,,,,
292468,2022-12-06_01h33.24.849,vts_reward_expectancy_bt,2022.2.4,MacIntel,58.82352941,Safari,1728,1117,,,,,0,513,,,,,,,,,,,,,,,,,F,167,circle,1,0,,,2,,,,,,,,,,,,,repeat,letter,lettRpt,d,0.924,vtsPrac,1,0,1,0,1,,,,,,,,,,,,,,,,,,,,,,,
292468,2022-12-06_01h33.24.849,vts_reward_expectancy_bt,2022.2.4,MacIntel,58.82352941,Safari,1728,1117,,,,,0,513,,,,,,,,,,,,,,,,,S,139,triangle,1,0,,,2,,,,,,,,,,,,,switch,number,numSwt,j,0.837,vtsPrac,2,0,2,0,1,,,,,,,,,,,,,,,,,,,,,,,
292468,2022-12-06_01h33.24.849,vts_reward_expectancy_bt,2022.2.4,MacIntel,58.82352941,Safari,1728,1117,,,,,0,513,,,,,,,,,,,,,,,,,Y,174,circle,1,0,,,2,,,,,,,,,,,,,switch,letter,lettSwt,f,1.148,vtsPrac,3,0,3,0,1,,,,,,,,,,,,,,,,,,,,,,,
292468,2022-12-06_01h33.24.849,vts_reward_expectancy_bt,2022.2.4,MacIntel,58.82352941,Safari,1728,1117,,,,,0,513,,,,,,,,,,,,,,,,,B,146,star,1,0,,,2,,,,,,,,,,,,,repeat,letter,lettRpt,d,0.701,vtsPrac,4,0,4,0,1,,,,,,,,,,,,,,,,,,,,,,,
292468,2022-12-06_01h33.24.849,vts_reward_expectancy_bt,2022.2.4,MacIntel,58.82352941,Safari,1728,1117,,,,,0,513,,,,,,,,,,,,,,,,,F,167,circle,1,0,,,2,,,,,,,,,,,,,switch,number,numSwt,k,0.724,vtsPrac,5,0,5,0,1,,,,,,,,,,,,,,,,,,,,,,,
292468,2022-12-06_01h33.24.849,vts_reward_expectancy_bt,2022.2.4,MacIntel,58.82352941,Safari,1728,1117,,,,,0,513,,,,,,,,,,,,,,,,,S,139,circle,1,0,,,2,,,,,,,,,,,,,switch,letter,lettSwt,f,0.759,vtsPrac,6,0,6,0,1,,,,,,,,,,,,,,,,,,,,,,,
292468,2022-12-06_01h33.24.849,vts_reward_expectancy_bt,2022.2.4,MacIntel,58.82352941,Safari,1728,1117,,,,,0,513,,,,,,,,,,,,,,,,,Y,174,triangle,1,0,,,2,,,,,,,,,,,,,switch,number,numSwt,k,1.448,vtsPrac,7,0,7,0,1,,,,,,,,,,,,,,,,,,,,,,,
292468,2022-12-06_01h33.24.849,vts_reward_expectancy_bt,2022.2.4,MacIntel,58.82352941,Safari,1728,1117,,,,,0,513,,,,,,,,,,,,,,,,,S,174,hexagon,1,0,,,2,,,,,,,,,,,,,repeat,number,numRpt,k,0.926,vtsPrac,8,0,8,0,1,,,,,,,,,,,,,,,,,,,,,,,
292468,2022-12-06_01h33.24.849,vts_reward_expectancy_bt,2022.2.4,MacIntel,58.82352941,Safari,1728,1117,,,,,0,513,,,,,,,,,,,,,,,,,W,167,circle,1,0,,,2,,,,,,,,,,,,,switch,letter,lettSwt,f,0.862,vtsPrac,9,0,9,0,1,,,,,,,,,,,,,,,,,,,,,,,
292468,2022-12-06_01h33.24.849,vts_reward_expectancy_bt,2022.2.4,MacIntel,58.82352941,Safari,1728,1117,,,,,0,513,,,,,,,,,,,,,,,,,D,132,circle,1,0,,,2,,,,,,,,,,,,,switch,number,numSwt,j,1.086,vtsPrac,10,0,10,0,1,,,,,,,,,,,,,,,,,,,,,,,
292468,2022-12-06_01h33.24.849,vts_reward_expectancy_bt,2022.2.4,MacIntel,58.82352941,Safari,1728,1117,,,,,0,513,,,,,,,,,,,,,,,,,U,139,hexagon,1,0,,,2,,,,,,,,,,,,,switch,letter,lettSwt,f,1.38,vtsPrac,11,0,11,0,1,,,,,,,,,,,,,,,,,,,,,,,
292468,2022-12-06_01h33.24.849,vts_reward_expectancy_bt,2022.2.4,MacIntel,58.82352941,Safari,1728,1117,,,,,0,513,,,,,,,,,,,,,,,,,W,160,circle,1,0,,,2,,,,,,,,,,,,,switch,number,numSwt,k,1.377,vtsPrac,12,0,12,0,1,,,,,,,,,,,,,,,,,,,,,,,
292468,2022-12-06_01h33.24.849,vts_reward_expectancy_bt,2022.2.4,MacIntel,58.82352941,Safari,1728,1117,,,,,0,513,,,,,,,,,,,,,,,,,F,139,star,1,0,,,2,,,,,,,,,,,,,switch,letter,lettSwt,d,1.092,vtsPrac,13,0,13,0,1,,,,,,,,,,,,,,,,,,,,,,,
292468,2022-12-06_01h33.24.849,vts_reward_expectancy_bt,2022.2.4,MacIntel,58.82352941,Safari,1728,1117,,,,,0,513,,,,,,,,,,,,,,,,,H,181,triangle,1,0,,,2,,,,,,,,,,,,,switch,number,numSwt,k,1.648,vtsPrac,14,0,14,0,1,,,,,,,,,,,,,,,,,,,,,,,
292468,2022-12-06_01h33.24.849,vts_reward_expectancy_bt,2022.2.4,MacIntel,58.82352941,Safari,1728,1117,,,,,0,513,,,,,,,,,,,,,,,,,B,174,hexagon,1,0,,,2,,,,,,,,,,,,,repeat,number,numRpt,k,0.617,vtsPrac,15,0,15,0,1,,,,,,,,,,,,,,,,,,,,,,,
292468,2022-12-06_01h33.24.849,vts_reward_expectancy_bt,2022.2.4,MacIntel,58.82352941,Safari,1728,1117,,,,,0,513,,,,,,,,,,,,,,,,,H,146,hexagon,1,0,,,2,,,,,,,,,,,,,switch,letter,lettSwt,d,1.368,vtsPrac,16,0,16,0,1,,,,,,,,,,,,,,,,,,,,,,,
292468,2022-12-06_01h33.24.849,vts_reward_expectancy_bt,2022.2.4,MacIntel,58.82352941,Safari,1728,1117,,,,,0,513,,,,,,,,,,,,,,,,,U,125,circle,0,0,,,2,,,,,,,,,,,,,switch,number,NA,k,0.924,vtsPrac,17,0,17,0,1,,,,,,,,,,,,,,,,,,,,,,,
292468,2022-12-06_01h33.24.849,vts_reward_expectancy_bt,2022.2.4,MacIntel,58.82352941,Safari,1728,1117,,,,,0,513,,,,,,,,,,,,,,,,,D,160,hexagon,1,1,,,2,,,,,,,,,,,,,switch,letter,lettSwt,d,1.206,vtsPrac,18,0,18,0,1,,,,,,,,,,,,,,,,,,,,,,,
292468,2022-12-06_01h33.24.849,vts_reward_expectancy_bt,2022.2.4,MacIntel,58.82352941,Safari,1728,1117,,,,,0,513,,,,,,,,,,,,,,,,,Y,132,star,1,0,,,2,,,,,,,,,,,,,switch,number,numSwt,j,0.664,vtsPrac,19,0,19,0,1,,,,,,,,,,,,,,,,,,,,,,,
292468,2022-12-06_01h33.24.849,vts_reward_expectancy_bt,2022.2.4,MacIntel,58.82352941,Safari,1728,1117,,,,,0,513,,,,,,,,,,,,,,,,,H,125,hexagon,1,0,,,2,,,,,,,,,,,,,switch,letter,lettSwt,d,1.204,vtsPrac,20,0,20,0,1,,,,,,,,,,,,,,,,,,,,,,,
292468,2022-12-06_01h33.24.849,vts_reward_expectancy_bt,2022.2.4,MacIntel,58.82352941,Safari,1728,1117,,,,,0,513,,,,,,,,,,,,,,,,,Y,132,triangle,1,0,,,2,,,,,,,,,,,,,switch,number,numSwt,j,1.101,vtsPrac,21,0,21,0,1,,,,,,,,,,,,,,,,,,,,,,,
292468,2022-12-06_01h33.24.849,vts_reward_expectancy_bt,2022.2.4,MacIntel,58.82352941,Safari,1728,1117,,,,,0,513,,,,,,,,,,,,,,,,,S,160,star,1,0,,,2,,,,,,,,,,,,,switch,letter,lettSwt,f,1.095,vtsPrac,22,0,22,0,1,,,,,,,,,,,,,,,,,,,,,,,
292468,2022-12-06_01h33.24.849,vts_reward_expectancy_bt,2022.2.4,MacIntel,58.82352941,Safari,1728,1117,,,,,0,513,,,,,,,,,,,,,,,,,D,146,hexagon,1,0,,,2,,,,,,,,,,,,,repeat,letter,lettRpt,d,1.112,vtsPrac,23,0,23,0,1,,,,,,,,,,,,,,,,,,,,,,,
292468,2022-12-06_01h33.24.849,vts_reward_expectancy_bt,2022.2.4,MacIntel,58.82352941,Safari,1728,1117,,,,,0,513,,,,,,,,,,,,,,,,,W,167,hexagon,1,0,,,2,,,,,,,,,,,,,switch,number,numSwt,k,0.677,vtsPrac,24,0,24,0,1,,,,,,,,,,,,,,,,,,,,,,,
292468,2022-12-06_01h33.24.849,vts_reward_expectancy_bt,2022.2.4,MacIntel,58.82352941,Safari,1728,1117,,,,,0,513,,,,,,,,,,,,,,,,,D,174,star,1,0,,,2,,,,,,,,,,,,,repeat,number,numRpt,k,0.695,vtsPrac,25,0,25,0,1,,,,,,,,,,,,,,,,,,,,,,,
292468,2022-12-06_01h33.24.849,vts_reward_expectancy_bt,2022.2.4,MacIntel,58.82352941,Safari,1728,1117,,,,,0,513,,,,,,,,,,,,,,,,,Y,132,star,1,0,,,2,,,,,,,,,,,,,repeat,number,numRpt,j,1.313,vtsPrac,26,0,26,0,1,,,,,,,,,,,,,,,,,,,,,,,
292468,2022-12-06_01h33.24.849,vts_reward_expectancy_bt,2022.2.4,MacIntel,58.82352941,Safari,1728,1117,,,,,0,513,,,,,,,,,,,,,,,,,S,125,hexagon,1,0,,,2,,,,,,,,,,,,,repeat,number,numRpt,j,1.258,vtsPrac,27,0,27,0,1,,,,,,,,,,,,,,,,,,,,,,,
292468,2022-12-06_01h33.24.849,vts_reward_expectancy_bt,2022.2.4,MacIntel,58.82352941,Safari,1728,1117,,,,,0,513,,,,,,,,,,,,,,,,,D,160,star,1,0,,,2,,,,,,,,,,,,,repeat,number,numRpt,k,1.577,vtsPrac,28,0,28,0,1,,,,,,,,,,,,,,,,,,,,,,,
292468,2022-12-06_01h33.24.849,vts_reward_expectancy_bt,2022.2.4,MacIntel,58.82352941,Safari,1728,1117,,,,,0,513,,,,,,,,,,,,,,,,,S,132,hexagon,1,0,,,2,,,,,,,,,,,,,repeat,number,numRpt,j,0.702,vtsPrac,29,0,29,0,1,,,,,,,,,,,,,,,,,,,,,,,
292468,2022-12-06_01h33.24.849,vts_reward_expectancy_bt,2022.2.4,MacIntel,58.82352941,Safari,1728,1117,,,,,0,513,,,,,,,,,,,,,,,,,F,125,hexagon,1,0,,,2,,,,,,,,,,,,,repeat,number,numRpt,j,1.02,vtsPrac,30,0,30,0,1,,,,,,,,,,,,,,,,,,,,,,,
292468,2022-12-06_01h33.24.849,vts_reward_expectancy_bt,2022.2.4,MacIntel,58.82352941,Safari,1728,1117,,,,,0,513,,,,,,,,,,,,,,,,,W,174,circle,1,0,,,2,,,,,,,,,,,,,switch,letter,lettSwt,f,0.895,vtsPrac,31,0,31,0,1,,,,,,,,,,,,,,,,,,,,,,,
292468,2022-12-06_01h33.24.849,vts_reward_expectancy_bt,2022.2.4,MacIntel,58.82352941,Safari,1728,1117,,,,,,,,,,,,,,,,,,,,,,,,,,,,,,,,,,,,,,,,,,,,,,,,,,,,,,,,,,,,,,,,,,,,,,,,,,,,
292468,2022-12-06_01h33.24.849,vts_reward_expectancy_bt,2022.2.4,MacIntel,58.82352941,Safari,1728,1117,,,,,,,,,,,,,,,,,,,,,,,,,,,,,,,,,,,,,,,,,,,,,,,,,,,,,,,,,,,,,,,,,,,,,,,,,,,,
292468,2022-12-06_01h33.24.849,vts_reward_expectancy_bt,2022.2.4,MacIntel,58.82352941,Safari,1728,1117,,,,,0,513,,,,,,,,,,,,,,,,,W,160,star,1,0,,,,,,,,,,,,,,,,repeat,letter,lettRpt,f,0.845,noRew,,,,,,0,0,0,0,0,1,,,,,,,,,,,,,,,,,
292468,2022-12-06_01h33.24.849,vts_reward_expectancy_bt,2022.2.4,MacIntel,58.82352941,Safari,1728,1117,,,,,0,513,,,,,,,,,,,,,,,,,F,181,triangle,1,0,,,,,,,,,,,,,,,,switch,number,numSwt,k,0.723,noRew,,,,,,0,1,0,1,0,1,,,,,,,,,,,,,,,,,
292468,2022-12-06_01h33.24.849,vts_reward_expectancy_bt,2022.2.4,MacIntel,58.82352941,Safari,1728,1117,,,,,0,513,,,,,,,,,,,,,,,,,U,174,star,1,0,,,,,,,,,,,,,,,,switch,letter,lettSwt,f,1.086,noRew,,,,,,0,2,0,2,0,1,,,,,,,,,,,,,,,,,
292468,2022-12-06_01h33.24.849,vts_reward_expectancy_bt,2022.2.4,MacIntel,58.82352941,Safari,1728,1117,,,,,0,513,,,,,,,,,,,,,,,,,Y,132,triangle,1,0,,,,,,,,,,,,,,,,switch,number,numSwt,j,0.676,noRew,,,,,,0,3,0,3,0,1,,,,,,,,,,,,,,,,,
292468,2022-12-06_01h33.24.849,vts_reward_expectancy_bt,2022.2.4,MacIntel,58.82352941,Safari,1728,1117,,,,,0,513,,,,,,,,,,,,,,,,,W,160,triangle,-1,0,,,,,,,,,,,,,,,,switch,no_choice,NA,,,noRew,,,,,,0,4,0,4,0,1,,,,,,,,,,,,,,,,,
292468,2022-12-06_01h33.24.849,vts_reward_expectancy_bt,2022.2.4,MacIntel,58.82352941,Safari,1728,1117,,,,,0,513,,,,,,,,,,,,,,,,,F,181,circle,0,0,,,,,,,,,,,,,,,,switch,letter,NA,f,2.047,noRew,,,,,,0,5,0,5,0,1,,,,,,,,,,,,,,,,,
292468,2022-12-06_01h33.24.849,vts_reward_expectancy_bt,2022.2.4,MacIntel,58.82352941,Safari,1728,1117,,,,,0,513,,,,,,,,,,,,,,,,,U,174,circle,1,1,,,,,,,,,,,,,,,,switch,number,numSwt,k,1.255,noRew,,,,,,0,6,0,6,0,1,,,,,,,,,,,,,,,,,
292468,2022-12-06_01h33.24.849,vts_reward_expectancy_bt,2022.2.4,MacIntel,58.82352941,Safari,1728,1117,,,,,0,513,,,,,,,,,,,,,,,,,Y,132,star,1,0,,,,,,,,,,,,,,,,switch,letter,lettSwt,f,0.661,noRew,,,,,,0,7,0,7,0,1,,,,,,,,,,,,,,,,,
292468,2022-12-06_01h33.24.849,vts_reward_expectancy_bt,2022.2.4,MacIntel,58.82352941,Safari,1728,1117,,,,,0,513,,,,,,,,,,,,,,,,,H,174,circle,1,0,,,,,,,,,,,,,,,,switch,number,numSwt,k,0.623,noRew,,,,,,0,8,0,8,0,1,,,,,,,,,,,,,,,,,
292468,2022-12-06_01h33.24.849,vts_reward_expectancy_bt,2022.2.4,MacIntel,58.82352941,Safari,1728,1117,,,,,0,513,,,,,,,,,,,,,,,,,Y,160,triangle,1,0,,,,,,,,,,,,,,,,switch,letter,lettSwt,f,0.996,noRew,,,,,,0,9,0,9,0,1,,,,,,,,,,,,,,,,,
292468,2022-12-06_01h33.24.849,vts_reward_expectancy_bt,2022.2.4,MacIntel,58.82352941,Safari,1728,1117,,,,,0,513,,,,,,,,,,,,,,,,,W,139,star,1,0,,,,,,,,,,,,,,,,switch,number,numSwt,j,1.052,noRew,,,,,,0,10,0,10,0,1,,,,,,,,,,,,,,,,,
292468,2022-12-06_01h33.24.849,vts_reward_expectancy_bt,2022.2.4,MacIntel,58.82352941,Safari,1728,1117,,,,,0,513,,,,,,,,,,,,,,,,,D,181,circle,1,0,,,,,,,,,,,,,,,,switch,letter,lettSwt,d,0.713,noRew,,,,,,0,11,0,11,0,1,,,,,,,,,,,,,,,,,
292468,2022-12-06_01h33.24.849,vts_reward_expectancy_bt,2022.2.4,MacIntel,58.82352941,Safari,1728,1117,,,,,0,513,,,,,,,,,,,,,,,,,Y,146,circle,1,0,,,,,,,,,,,,,,,,switch,number,numSwt,j,0.932,noRew,,,,,,0,12,0,12,0,1,,,,,,,,,,,,,,,,,
292468,2022-12-06_01h33.24.849,vts_reward_expectancy_bt,2022.2.4,MacIntel,58.82352941,Safari,1728,1117,,,,,0,513,,,,,,,,,,,,,,,,,S,139,hexagon,1,0,,,,,,,,,,,,,,,,switch,letter,lettSwt,f,0.835,noRew,,,,,,0,13,0,13,0,1,,,,,,,,,,,,,,,,,
292468,2022-12-06_01h33.24.849,vts_reward_expectancy_bt,2022.2.4,MacIntel,58.82352941,Safari,1728,1117,,,,,0,513,,,,,,,,,,,,,,,,,D,167,triangle,1,0,,,,,,,,,,,,,,,,switch,number,numSwt,k,1.207,noRew,,,,,,0,14,0,14,0,1,,,,,,,,,,,,,,,,,
292468,2022-12-06_01h33.24.849,vts_reward_expectancy_bt,2022.2.4,MacIntel,58.82352941,Safari,1728,1117,,,,,0,513,,,,,,,,,,,,,,,,,U,125,hexagon,1,0,,,,,,,,,,,,,,,,switch,letter,lettSwt,f,0.874,noRew,,,,,,0,15,0,15,0,1,,,,,,,,,,,,,,,,,
292468,2022-12-06_01h33.24.849,vts_reward_expectancy_bt,2022.2.4,MacIntel,58.82352941,Safari,1728,1117,,,,,0,513,,,,,,,,,,,,,,,,,W,167,circle,1,0,,,,,,,,,,,,,,,,switch,number,numSwt,k,0.663,noRew,,,,,,0,16,0,16,0,1,,,,,,,,,,,,,,,,,
292468,2022-12-06_01h33.24.849,vts_reward_expectancy_bt,2022.2.4,MacIntel,58.82352941,Safari,1728,1117,,,,,0,513,,,,,,,,,,,,,,,,,D,181,hexagon,1,0,,,,,,,,,,,,,,,,repeat,number,numRpt,k,1.104,noRew,,,,,,0,17,0,17,0,1,,,,,,,,,,,,,,,,,
292468,2022-12-06_01h33.24.849,vts_reward_expectancy_bt,2022.2.4,MacIntel,58.82352941,Safari,1728,1117,,,,,0,513,,,,,,,,,,,,,,,,,U,139,star,1,0,,,,,,,,,,,,,,,,switch,letter,lettSwt,f,0.599,noRew,,,,,,0,18,0,18,0,1,,,,,,,,,,,,,,,,,
292468,2022-12-06_01h33.24.849,vts_reward_expectancy_bt,2022.2.4,MacIntel,58.82352941,Safari,1728,1117,,,,,0,513,,,,,,,,,,,,,,,,,F,160,hexagon,1,0,,,,,,,,,,,,,,,,switch,number,numSwt,k,0.638,noRew,,,,,,0,19,0,19,0,1,,,,,,,,,,,,,,,,,
292468,2022-12-06_01h33.24.849,vts_reward_expectancy_bt,2022.2.4,MacIntel,58.82352941,Safari,1728,1117,,,,,0,513,,,,,,,,,,,,,,,,,U,132,star,1,0,,,,,,,,,,,,,,,,switch,letter,lettSwt,f,1.018,noRew,,,,,,0,20,0,20,0,1,,,,,,,,,,,,,,,,,
292468,2022-12-06_01h33.24.849,vts_reward_expectancy_bt,2022.2.4,MacIntel,58.82352941,Safari,1728,1117,,,,,0,513,,,,,,,,,,,,,,,,,D,125,hexagon,1,0,,,,,,,,,,,,,,,,switch,number,numSwt,j,0.926,noRew,,,,,,0,21,0,21,0,1,,,,,,,,,,,,,,,,,
292468,2022-12-06_01h33.24.849,vts_reward_expectancy_bt,2022.2.4,MacIntel,58.82352941,Safari,1728,1117,,,,,0,513,,,,,,,,,,,,,,,,,B,139,star,1,0,,,,,,,,,,,,,,,,switch,letter,lettSwt,d,0.936,noRew,,,,,,0,22,0,22,0,1,,,,,,,,,,,,,,,,,
292468,2022-12-06_01h33.24.849,vts_reward_expectancy_bt,2022.2.4,MacIntel,58.82352941,Safari,1728,1117,,,,,0,513,,,,,,,,,,,,,,,,,Y,160,hexagon,1,0,,,,,,,,,,,,,,,,switch,number,numSwt,k,0.975,noRew,,,,,,0,23,0,23,0,1,,,,,,,,,,,,,,,,,
292468,2022-12-06_01h33.24.849,vts_reward_expectancy_bt,2022.2.4,MacIntel,58.82352941,Safari,1728,1117,,,,,0,513,,,,,,,,,,,,,,,,,B,167,triangle,1,0,,,,,,,,,,,,,,,,switch,letter,lettSwt,d,0.625,noRew,,,,,,0,24,0,24,0,1,,,,,,,,,,,,,,,,,
292468,2022-12-06_01h33.24.849,vts_reward_expectancy_bt,2022.2.4,MacIntel,58.82352941,Safari,1728,1117,,,,,0,513,,,,,,,,,,,,,,,,,D,139,circle,1,0,,,,,,,,,,,,,,,,switch,number,numSwt,j,1.368,noRew,,,,,,0,25,0,25,0,1,,,,,,,,,,,,,,,,,
292468,2022-12-06_01h33.24.849,vts_reward_expectancy_bt,2022.2.4,MacIntel,58.82352941,Safari,1728,1117,,,,,0,513,,,,,,,,,,,,,,,,,H,181,star,1,0,,,,,,,,,,,,,,,,switch,letter,lettSwt,d,0.739,noRew,,,,,,0,26,0,26,0,1,,,,,,,,,,,,,,,,,
292468,2022-12-06_01h33.24.849,vts_reward_expectancy_bt,2022.2.4,MacIntel,58.82352941,Safari,1728,1117,,,,,0,513,,,,,,,,,,,,,,,,,F,174,hexagon,1,0,,,,,,,,,,,,,,,,switch,number,numSwt,k,0.985,noRew,,,,,,0,27,0,27,0,1,,,,,,,,,,,,,,,,,
292468,2022-12-06_01h33.24.849,vts_reward_expectancy_bt,2022.2.4,MacIntel,58.82352941,Safari,1728,1117,,,,,0,513,,,,,,,,,,,,,,,,,H,132,triangle,1,0,,,,,,,,,,,,,,,,switch,letter,lettSwt,d,0.61,noRew,,,,,,0,28,0,28,0,1,,,,,,,,,,,,,,,,,
292468,2022-12-06_01h33.24.849,vts_reward_expectancy_bt,2022.2.4,MacIntel,58.82352941,Safari,1728,1117,,,,,0,513,,,,,,,,,,,,,,,,,S,125,hexagon,1,0,,,,,,,,,,,,,,,,switch,number,numSwt,j,0.698,noRew,,,,,,0,29,0,29,0,1,,,,,,,,,,,,,,,,,
292468,2022-12-06_01h33.24.849,vts_reward_expectancy_bt,2022.2.4,MacIntel,58.82352941,Safari,1728,1117,,,,,0,513,,,,,,,,,,,,,,,,,F,181,triangle,1,0,,,,,,,,,,,,,,,,switch,letter,lettSwt,d,0.6,noRew,,,,,,0,30,0,30,0,1,,,,,,,,,,,,,,,,,
292468,2022-12-06_01h33.24.849,vts_reward_expectancy_bt,2022.2.4,MacIntel,58.82352941,Safari,1728,1117,,,,,0,513,,,,,,,,,,,,,,,,,W,174,hexagon,1,0,,,,,,,,,,,,,,,,switch,number,numSwt,k,0.658,noRew,,,,,,0,31,0,31,0,1,,,,,,,,,,,,,,,,,
292468,2022-12-06_01h33.24.849,vts_reward_expectancy_bt,2022.2.4,MacIntel,58.82352941,Safari,1728,1117,,,,,0,513,,,,,,,,,,,,,,,,,H,146,circle,1,0,,,,,,,,,,,,,,,,switch,letter,lettSwt,d,0.98,noRew,,,,,,0,32,0,32,0,1,,,,,,,,,,,,,,,,,
292468,2022-12-06_01h33.24.849,vts_reward_expectancy_bt,2022.2.4,MacIntel,58.82352941,Safari,1728,1117,,,,,0,513,,,,,,,,,,,,,,,,,S,139,hexagon,1,0,,,,,,,,,,,,,,,,switch,number,numSwt,j,1.085,noRew,,,,,,0,33,0,33,0,1,,,,,,,,,,,,,,,,,
292468,2022-12-06_01h33.24.849,vts_reward_expectancy_bt,2022.2.4,MacIntel,58.82352941,Safari,1728,1117,,,,,0,513,,,,,,,,,,,,,,,,,U,132,hexagon,1,0,,,,,,,,,,,,,,,,switch,letter,lettSwt,f,1.709,noRew,,,,,,0,34,0,34,0,1,,,,,,,,,,,,,,,,,
292468,2022-12-06_01h33.24.849,vts_reward_expectancy_bt,2022.2.4,MacIntel,58.82352941,Safari,1728,1117,,,,,0,513,,,,,,,,,,,,,,,,,F,160,circle,1,0,,,,,,,,,,,,,,,,switch,number,numSwt,k,1.248,noRew,,,,,,0,35,0,35,0,1,,,,,,,,,,,,,,,,,
292468,2022-12-06_01h33.24.849,vts_reward_expectancy_bt,2022.2.4,MacIntel,58.82352941,Safari,1728,1117,,,,,0,513,,,,,,,,,,,,,,,,,S,160,triangle,1,0,,,,,,,,,,,,,,,,switch,letter,lettSwt,f,1.016,noRew,,,,,,0,36,0,36,0,1,,,,,,,,,,,,,,,,,
292468,2022-12-06_01h33.24.849,vts_reward_expectancy_bt,2022.2.4,MacIntel,58.82352941,Safari,1728,1117,,,,,0,513,,,,,,,,,,,,,,,,,U,132,hexagon,1,0,,,,,,,,,,,,,,,,switch,number,numSwt,j,2.769,noRew,,,,,,0,37,0,37,0,1,,,,,,,,,,,,,,,,,
292468,2022-12-06_01h33.24.849,vts_reward_expectancy_bt,2022.2.4,MacIntel,58.82352941,Safari,1728,1117,,,,,0,513,,,,,,,,,,,,,,,,,F,146,star,1,0,,,,,,,,,,,,,,,,switch,letter,lettSwt,d,0.602,noRew,,,,,,0,38,0,38,0,1,,,,,,,,,,,,,,,,,
292468,2022-12-06_01h33.24.849,vts_reward_expectancy_bt,2022.2.4,MacIntel,58.82352941,Safari,1728,1117,,,,,0,513,,,,,,,,,,,,,,,,,B,139,hexagon,1,0,,,,,,,,,,,,,,,,switch,number,numSwt,j,0.656,noRew,,,,,,0,39,0,39,0,1,,,,,,,,,,,,,,,,,
292468,2022-12-06_01h33.24.849,vts_reward_expectancy_bt,2022.2.4,MacIntel,58.82352941,Safari,1728,1117,,,,,0,513,,,,,,,,,,,,,,,,,Y,181,circle,1,0,,,,,,,,,,,,,,,,switch,letter,lettSwt,f,0.808,noRew,,,,,,0,40,0,40,0,1,,,,,,,,,,,,,,,,,
292468,2022-12-06_01h33.24.849,vts_reward_expectancy_bt,2022.2.4,MacIntel,58.82352941,Safari,1728,1117,,,,,0,513,,,,,,,,,,,,,,,,,S,125,triangle,-1,0,,,,,,,,,,,,,,,,switch,no_choice,NA,,,noRew,,,,,,0,41,0,41,0,1,,,,,,,,,,,,,,,,,
292468,2022-12-06_01h33.24.849,vts_reward_expectancy_bt,2022.2.4,MacIntel,58.82352941,Safari,1728,1117,,,,,0,513,,,,,,,,,,,,,,,,,F,146,hexagon,1,0,,,,,,,,,,,,,,,,switch,letter,lettSwt,d,1.138,noRew,,,,,,0,42,0,42,0,1,,,,,,,,,,,,,,,,,
292468,2022-12-06_01h33.24.849,vts_reward_expectancy_bt,2022.2.4,MacIntel,58.82352941,Safari,1728,1117,,,,,0,513,,,,,,,,,,,,,,,,,H,132,triangle,1,0,,,,,,,,,,,,,,,,switch,number,numSwt,j,1.233,noRew,,,,,,0,43,0,43,0,1,,,,,,,,,,,,,,,,,
292468,2022-12-06_01h33.24.849,vts_reward_expectancy_bt,2022.2.4,MacIntel,58.82352941,Safari,1728,1117,,,,,0,513,,,,,,,,,,,,,,,,,S,167,star,1,0,,,,,,,,,,,,,,,,switch,letter,lettSwt,f,1.045,noRew,,,,,,0,44,0,44,0,1,,,,,,,,,,,,,,,,,
292468,2022-12-06_01h33.24.849,vts_reward_expectancy_bt,2022.2.4,MacIntel,58.82352941,Safari,1728,1117,,,,,0,513,,,,,,,,,,,,,,,,,D,132,triangle,1,0,,,,,,,,,,,,,,,,switch,number,numSwt,j,1.178,noRew,,,,,,0,45,0,45,0,1,,,,,,,,,,,,,,,,,
292468,2022-12-06_01h33.24.849,vts_reward_expectancy_bt,2022.2.4,MacIntel,58.82352941,Safari,1728,1117,,,,,0,513,,,,,,,,,,,,,,,,,H,174,star,1,0,,,,,,,,,,,,,,,,switch,letter,lettSwt,d,1.295,noRew,,,,,,0,46,0,46,0,1,,,,,,,,,,,,,,,,,
292468,2022-12-06_01h33.24.849,vts_reward_expectancy_bt,2022.2.4,MacIntel,58.82352941,Safari,1728,1117,,,,,0,513,,,,,,,,,,,,,,,,,W,181,hexagon,1,0,,,,,,,,,,,,,,,,switch,number,numSwt,k,0.788,noRew,,,,,,0,47,0,47,0,1,,,,,,,,,,,,,,,,,
292468,2022-12-06_01h33.24.849,vts_reward_expectancy_bt,2022.2.4,MacIntel,58.82352941,Safari,1728,1117,,,,,0,513,,,,,,,,,,,,,,,,,F,181,hexagon,1,0,,,,,,,,,,,,,,,,switch,letter,lettSwt,d,0.803,noRew,,,,,,0,48,0,48,0,1,,,,,,,,,,,,,,,,,
292468,2022-12-06_01h33.24.849,vts_reward_expectancy_bt,2022.2.4,MacIntel,58.82352941,Safari,1728,1117,,,,,0,513,,,,,,,,,,,,,,,,,B,167,circle,1,0,,,,,,,,,,,,,,,,switch,number,numSwt,k,0.987,noRew,,,,,,0,49,0,49,0,1,,,,,,,,,,,,,,,,,
292468,2022-12-06_01h33.24.849,vts_reward_expectancy_bt,2022.2.4,MacIntel,58.82352941,Safari,1728,1117,,,,,0,513,,,,,,,,,,,,,,,,,W,160,circle,1,0,,,,,,,,,,,,,,,,switch,letter,lettSwt,f,0.932,noRew,,,,,,0,50,0,50,0,1,,,,,,,,,,,,,,,,,
292468,2022-12-06_01h33.24.849,vts_reward_expectancy_bt,2022.2.4,MacIntel,58.82352941,Safari,1728,1117,,,,,0,513,,,,,,,,,,,,,,,,,Y,132,triangle,1,0,,,,,,,,,,,,,,,,switch,number,numSwt,j,1.651,noRew,,,,,,0,51,0,51,0,1,,,,,,,,,,,,,,,,,
292468,2022-12-06_01h33.24.849,vts_reward_expectancy_bt,2022.2.4,MacIntel,58.82352941,Safari,1728,1117,,,,,0,513,,,,,,,,,,,,,,,,,B,132,circle,1,0,,,,,,,,,,,,,,,,switch,letter,lettSwt,d,0.737,noRew,,,,,,0,52,0,52,0,1,,,,,,,,,,,,,,,,,
292468,2022-12-06_01h33.24.849,vts_reward_expectancy_bt,2022.2.4,MacIntel,58.82352941,Safari,1728,1117,,,,,0,513,,,,,,,,,,,,,,,,,W,181,star,1,0,,,,,,,,,,,,,,,,switch,number,numSwt,k,1.287,noRew,,,,,,0,53,0,53,0,1,,,,,,,,,,,,,,,,,
292468,2022-12-06_01h33.24.849,vts_reward_expectancy_bt,2022.2.4,MacIntel,58.82352941,Safari,1728,1117,,,,,0,513,,,,,,,,,,,,,,,,,U,139,circle,1,0,,,,,,,,,,,,,,,,repeat,number,numRpt,j,1.742,noRew,,,,,,0,54,0,54,0,1,,,,,,,,,,,,,,,,,
292468,2022-12-06_01h33.24.849,vts_reward_expectancy_bt,2022.2.4,MacIntel,58.82352941,Safari,1728,1117,,,,,0,513,,,,,,,,,,,,,,,,,S,146,star,1,0,,,,,,,,,,,,,,,,switch,letter,lettSwt,f,0.683,noRew,,,,,,0,55,0,55,0,1,,,,,,,,,,,,,,,,,
292468,2022-12-06_01h33.24.849,vts_reward_expectancy_bt,2022.2.4,MacIntel,58.82352941,Safari,1728,1117,,,,,0,513,,,,,,,,,,,,,,,,,F,174,triangle,1,0,,,,,,,,,,,,,,,,switch,number,numSwt,k,0.62,noRew,,,,,,0,56,0,56,0,1,,,,,,,,,,,,,,,,,
292468,2022-12-06_01h33.24.849,vts_reward_expectancy_bt,2022.2.4,MacIntel,58.82352941,Safari,1728,1117,,,,,0,513,,,,,,,,,,,,,,,,,U,167,circle,1,0,,,,,,,,,,,,,,,,switch,letter,lettSwt,f,1.403,noRew,,,,,,0,57,0,57,0,1,,,,,,,,,,,,,,,,,
292468,2022-12-06_01h33.24.849,vts_reward_expectancy_bt,2022.2.4,MacIntel,58.82352941,Safari,1728,1117,,,,,0,513,,,,,,,,,,,,,,,,,H,132,circle,1,0,,,,,,,,,,,,,,,,switch,number,numSwt,j,0.657,noRew,,,,,,0,58,0,58,0,1,,,,,,,,,,,,,,,,,
292468,2022-12-06_01h33.24.849,vts_reward_expectancy_bt,2022.2.4,MacIntel,58.82352941,Safari,1728,1117,,,,,0,513,,,,,,,,,,,,,,,,,B,146,triangle,1,0,,,,,,,,,,,,,,,,switch,letter,lettSwt,d,0.813,noRew,,,,,,0,59,0,59,0,1,,,,,,,,,,,,,,,,,
292468,2022-12-06_01h33.24.849,vts_reward_expectancy_bt,2022.2.4,MacIntel,58.82352941,Safari,1728,1117,,,,,0,513,,,,,,,,,,,,,,,,,S,146,triangle,1,0,,,,,,,,,,,,,,,,switch,number,numSwt,j,0.92,noRew,,,,,,0,60,0,60,0,1,,,,,,,,,,,,,,,,,
292468,2022-12-06_01h33.24.849,vts_reward_expectancy_bt,2022.2.4,MacIntel,58.82352941,Safari,1728,1117,,,,,0,513,,,,,,,,,,,,,,,,,D,132,hexagon,1,0,,,,,,,,,,,,,,,,switch,letter,lettSwt,d,0.653,noRew,,,,,,0,61,0,61,0,1,,,,,,,,,,,,,,,,,
292468,2022-12-06_01h33.24.849,vts_reward_expectancy_bt,2022.2.4,MacIntel,58.82352941,Safari,1728,1117,,,,,0,513,,,,,,,,,,,,,,,,,B,125,triangle,1,0,,,,,,,,,,,,,,,,switch,number,numSwt,j,0.724,noRew,,,,,,0,62,0,62,0,1,,,,,,,,,,,,,,,,,
292468,2022-12-06_01h33.24.849,vts_reward_expectancy_bt,2022.2.4,MacIntel,58.82352941,Safari,1728,1117,,,,,0,513,,,,,,,,,,,,,,,,,Y,139,star,1,0,,,,,,,,,,,,,,,,switch,letter,lettSwt,f,0.622,noRew,,,,,,0,63,0,63,0,1,,,,,,,,,,,,,,,,,
292468,2022-12-06_01h33.24.849,vts_reward_expectancy_bt,2022.2.4,MacIntel,58.82352941,Safari,1728,1117,,,,,,,,,,,,,,,,,,,,,,,,,,,,,,,,,,,,,,,,,,,,,,,,,,,,,,,,,,,,,,,,,,,,,,,,,,,,
292468,2022-12-06_01h33.24.849,vts_reward_expectancy_bt,2022.2.4,MacIntel,58.82352941,Safari,1728,1117,,,,,1,514,,,,,,,,,,,,,,,,,Y,160,star,1,0,,,,,,,,,,,,,,,,repeat,letter,lettRpt,f,0.799,Hi,,,,,,0,,,,,,space,13.312,low,0,0,0,0,1,,,,,,,,,
292468,2022-12-06_01h33.24.849,vts_reward_expectancy_bt,2022.2.4,MacIntel,58.82352941,Safari,1728,1117,,,,,1,515,,,,,,,,,,,,,,,,,D,139,triangle,1,0,,,,,,,,,,,,,,,,switch,number,numSwt,j,1.652,Lo,,,,,,0,,,,,,,,low,1,0,1,0,1,,,,,,,,,
292468,2022-12-06_01h33.24.849,vts_reward_expectancy_bt,2022.2.4,MacIntel,58.82352941,Safari,1728,1117,,,,,10,525,,,,,,,,,,,,,,,,,F,125,circle,1,0,,,,,,,,,,,,,,,,repeat,number,numRpt,j,0.692,Hi,,,,,,0,,,,,,,,low,2,0,2,0,1,,,,,,,,,
292468,2022-12-06_01h33.24.849,vts_reward_expectancy_bt,2022.2.4,MacIntel,58.82352941,Safari,1728,1117,,,,,1,526,,,,,,,,,,,,,,,,,B,181,hexagon,1,0,,,,,,,,,,,,,,,,switch,letter,lettSwt,d,0.57,Lo,,,,,,0,,,,,,,,low,3,0,3,0,1,,,,,,,,,
292468,2022-12-06_01h33.24.849,vts_reward_expectancy_bt,2022.2.4,MacIntel,58.82352941,Safari,1728,1117,,,,,0,526,,,,,,,,,,,,,,,,,S,167,star,1,0,,,,,,,,,,,,,,,,switch,number,numSwt,k,1.049,Hi,,,,,,0,,,,,,,,low,4,0,4,0,1,,,,,,,,,
292468,2022-12-06_01h33.24.849,vts_reward_expectancy_bt,2022.2.4,MacIntel,58.82352941,Safari,1728,1117,,,,,0,526,,,,,,,,,,,,,,,,,W,146,triangle,0,0,,,,,,,,,,,,,,,,repeat,number,NA,k,0.724,Hi,,,,,,0,,,,,,,,low,5,0,5,0,1,,,,,,,,,
292468,2022-12-06_01h33.24.849,vts_reward_expectancy_bt,2022.2.4,MacIntel,58.82352941,Safari,1728,1117,,,,,0,526,,,,,,,,,,,,,,,,,U,174,circle,0,1,,,,,,,,,,,,,,,,repeat,number,NA,j,0.506,Hi,,,,,,0,,,,,,,,low,6,0,6,0,1,,,,,,,,,
292468,2022-12-06_01h33.24.849,vts_reward_expectancy_bt,2022.2.4,MacIntel,58.82352941,Safari,1728,1117,,,,,0,526,,,,,,,,,,,,,,,,,H,132,hexagon,0,1,,,,,,,,,,,,,,,,repeat,number,NA,k,0.092,Hi,,,,,,0,,,,,,,,low,7,0,7,0,1,,,,,,,,,
292468,2022-12-06_01h33.24.849,vts_reward_expectancy_bt,2022.2.4,MacIntel,58.82352941,Safari,1728,1117,,,,,0,526,,,,,,,,,,,,,,,,,Y,160,triangle,0,1,,,,,,,,,,,,,,,,switch,letter,NA,d,0.343,Hi,,,,,,0,,,,,,,,low,8,0,8,0,1,,,,,,,,,
292468,2022-12-06_01h33.24.849,vts_reward_expectancy_bt,2022.2.4,MacIntel,58.82352941,Safari,1728,1117,,,,,10,536,,,,,,,,,,,,,,,,,D,139,star,1,1,,,,,,,,,,,,,,,,repeat,letter,lettRpt,d,0.172,Hi,,,,,,0,,,,,,,,low,9,0,9,0,1,,,,,,,,,
292468,2022-12-06_01h33.24.849,vts_reward_expectancy_bt,2022.2.4,MacIntel,58.82352941,Safari,1728,1117,,,,,0,536,,,,,,,,,,,,,,,,,F,125,hexagon,0,0,,,,,,,,,,,,,,,,repeat,letter,NA,f,0.41,Hi,,,,,,0,,,,,,,,low,10,0,10,0,1,,,,,,,,,
292468,2022-12-06_01h33.24.849,vts_reward_expectancy_bt,2022.2.4,MacIntel,58.82352941,Safari,1728,1117,,,,,0,536,,,,,,,,,,,,,,,,,B,181,circle,0,1,,,,,,,,,,,,,,,,repeat,letter,NA,f,0.276,Hi,,,,,,0,,,,,,,,low,11,0,11,0,1,,,,,,,,,
292468,2022-12-06_01h33.24.849,vts_reward_expectancy_bt,2022.2.4,MacIntel,58.82352941,Safari,1728,1117,,,,,10,546,,,,,,,,,,,,,,,,,S,167,circle,1,1,,,,,,,,,,,,,,,,repeat,letter,lettRpt,f,0.303,Hi,,,,,,0,,,,,,,,low,12,0,12,0,1,,,,,,,,,
292468,2022-12-06_01h33.24.849,vts_reward_expectancy_bt,2022.2.4,MacIntel,58.82352941,Safari,1728,1117,,,,,1,547,,,,,,,,,,,,,,,,,W,146,hexagon,1,0,,,,,,,,,,,,,,,,switch,number,numSwt,j,0,Lo,,,,,,0,,,,,,,,low,13,0,13,0,1,,,,,,,,,
292468,2022-12-06_01h33.24.849,vts_reward_expectancy_bt,2022.2.4,MacIntel,58.82352941,Safari,1728,1117,,,,,0,547,,,,,,,,,,,,,,,,,U,174,triangle,0,0,,,,,,,,,,,,,,,,switch,letter,NA,d,0.025,Lo,,,,,,0,,,,,,,,low,14,0,14,0,1,,,,,,,,,
292468,2022-12-06_01h33.24.849,vts_reward_expectancy_bt,2022.2.4,MacIntel,58.82352941,Safari,1728,1117,,,,,0,547,,,,,,,,,,,,,,,,,H,132,star,0,1,,,,,,,,,,,,,,,,switch,number,NA,k,2.182,Lo,,,,,,0,,,,,,,,low,15,0,15,0,1,,,,,,,,,
292468,2022-12-06_01h33.24.849,vts_reward_expectancy_bt,2022.2.4,MacIntel,58.82352941,Safari,1728,1117,,,,,0,547,,,,,,,,,,,,,,,,,H,146,circle,0,1,,,,,,,,,,,,,,,,repeat,number,NA,k,0.122,Lo,,,,,,0,,,,,,,,low,16,0,16,0,1,,,,,,,,,
292468,2022-12-06_01h33.24.849,vts_reward_expectancy_bt,2022.2.4,MacIntel,58.82352941,Safari,1728,1117,,,,,10,557,,,,,,,,,,,,,,,,,U,174,star,1,1,,,,,,,,,,,,,,,,repeat,number,numRpt,k,0.205,Hi,,,,,,0,,,,,,,,low,17,0,17,0,1,,,,,,,,,
292468,2022-12-06_01h33.24.849,vts_reward_expectancy_bt,2022.2.4,MacIntel,58.82352941,Safari,1728,1117,,,,,0,557,,,,,,,,,,,,,,,,,S,181,hexagon,0,0,,,,,,,,,,,,,,,,switch,letter,NA,d,0.298,Hi,,,,,,0,,,,,,,,low,18,0,18,0,1,,,,,,,,,
292468,2022-12-06_01h33.24.849,vts_reward_expectancy_bt,2022.2.4,MacIntel,58.82352941,Safari,1728,1117,,,,,10,567,,,,,,,,,,,,,,,,,F,167,triangle,1,1,,,,,,,,,,,,,,,,repeat,letter,lettRpt,d,0.272,Lo,,,,,,0,,,,,,,,low,19,0,19,0,1,,,,,,,,,
292468,2022-12-06_01h33.24.849,vts_reward_expectancy_bt,2022.2.4,MacIntel,58.82352941,Safari,1728,1117,,,,,10,577,,,,,,,,,,,,,,,,,B,132,star,1,0,,,,,,,,,,,,,,,,switch,number,numSwt,j,0.053,Hi,,,,,,0,,,,,,,,low,20,0,20,0,1,,,,,,,,,
292468,2022-12-06_01h33.24.849,vts_reward_expectancy_bt,2022.2.4,MacIntel,58.82352941,Safari,1728,1117,,,,,0,577,,,,,,,,,,,,,,,,,Y,139,circle,0,0,,,,,,,,,,,,,,,,repeat,number,NA,k,0.111,Hi,,,,,,0,,,,,,,,low,21,0,21,0,1,,,,,,,,,
292468,2022-12-06_01h33.24.849,vts_reward_expectancy_bt,2022.2.4,MacIntel,58.82352941,Safari,1728,1117,,,,,0,577,,,,,,,,,,,,,,,,,W,125,hexagon,0,1,,,,,,,,,,,,,,,,repeat,number,NA,k,0.318,Hi,,,,,,0,,,,,,,,low,22,0,22,0,1,,,,,,,,,
292468,2022-12-06_01h33.24.849,vts_reward_expectancy_bt,2022.2.4,MacIntel,58.82352941,Safari,1728,1117,,,,,10,587,,,,,,,,,,,,,,,,,D,160,triangle,1,1,,,,,,,,,,,,,,,,repeat,number,numRpt,k,0.053,Lo,,,,,,0,,,,,,,,low,23,0,23,0,1,,,,,,,,,
292468,2022-12-06_01h33.24.849,vts_reward_expectancy_bt,2022.2.4,MacIntel,58.82352941,Safari,1728,1117,,,,,0,587,,,,,,,,,,,,,,,,,D,132,triangle,0,0,,,,,,,,,,,,,,,,switch,letter,NA,f,0.175,Lo,,,,,,0,,,,,,,,low,24,0,24,0,1,,,,,,,,,
292468,2022-12-06_01h33.24.849,vts_reward_expectancy_bt,2022.2.4,MacIntel,58.82352941,Safari,1728,1117,,,,,1,588,,,,,,,,,,,,,,,,,B,125,hexagon,1,1,,,,,,,,,,,,,,,,switch,number,numSwt,j,0.422,Lo,,,,,,0,,,,,,,,low,25,0,25,0,1,,,,,,,,,
292468,2022-12-06_01h33.24.849,vts_reward_expectancy_bt,2022.2.4,MacIntel,58.82352941,Safari,1728,1117,,,,,10,598,,,,,,,,,,,,,,,,,W,167,star,1,0,,,,,,,,,,,,,,,,repeat,number,numRpt,k,0.42,Hi,,,,,,0,,,,,,,,low,26,0,26,0,1,,,,,,,,,
292468,2022-12-06_01h33.24.849,vts_reward_expectancy_bt,2022.2.4,MacIntel,58.82352941,Safari,1728,1117,,,,,0,598,,,,,,,,,,,,,,,,,Y,181,circle,0,0,,,,,,,,,,,,,,,,repeat,number,NA,j,0.922,Hi,,,,,,0,,,,,,,,low,27,0,27,0,1,,,,,,,,,
292468,2022-12-06_01h33.24.849,vts_reward_expectancy_bt,2022.2.4,MacIntel,58.82352941,Safari,1728,1117,,,,,0,598,,,,,,,,,,,,,,,,,S,139,triangle,0,1,,,,,,,,,,,,,,,,switch,letter,NA,d,0.461,Hi,,,,,,0,,,,,,,,low,28,0,28,0,1,,,,,,,,,
292468,2022-12-06_01h33.24.849,vts_reward_expectancy_bt,2022.2.4,MacIntel,58.82352941,Safari,1728,1117,,,,,0,598,,,,,,,,,,,,,,,,,F,146,star,0,1,,,,,,,,,,,,,,,,repeat,letter,NA,f,0.482,Hi,,,,,,0,,,,,,,,low,29,0,29,0,1,,,,,,,,,
292468,2022-12-06_01h33.24.849,vts_reward_expectancy_bt,2022.2.4,MacIntel,58.82352941,Safari,1728,1117,,,,,10,608,,,,,,,,,,,,,,,,,H,174,circle,1,1,,,,,,,,,,,,,,,,repeat,letter,lettRpt,d,0.506,Hi,,,,,,0,,,,,,,,low,30,0,30,0,1,,,,,,,,,
292468,2022-12-06_01h33.24.849,vts_reward_expectancy_bt,2022.2.4,MacIntel,58.82352941,Safari,1728,1117,,,,,1,609,,,,,,,,,,,,,,,,,U,160,hexagon,1,0,,,,,,,,,,,,,,,,switch,number,numSwt,k,0.315,Lo,,,,,,0,,,,,,,,low,31,0,31,0,1,,,,,,,,,
292468,2022-12-06_01h33.24.849,vts_reward_expectancy_bt,2022.2.4,MacIntel,58.82352941,Safari,1728,1117,,,,,1,610,,,,,,,,,,,,,,,,,S,181,triangle,1,0,,,,,,,,,,,,,,,,repeat,number,numRpt,k,0.362,Lo,,,,,,1,,,,,,space,0.503,low,0,0,0,0,1,,,,,,,,,
292468,2022-12-06_01h33.24.849,vts_reward_expectancy_bt,2022.2.4,MacIntel,58.82352941,Safari,1728,1117,,,,,0,610,,,,,,,,,,,,,,,,,Y,132,star,0,0,,,,,,,,,,,,,,,,switch,letter,NA,d,0.404,Lo,,,,,,1,,,,,,,,low,1,0,1,0,1,,,,,,,,,
292468,2022-12-06_01h33.24.849,vts_reward_expectancy_bt,2022.2.4,MacIntel,58.82352941,Safari,1728,1117,,,,,0,610,,,,,,,,,,,,,,,,,B,174,hexagon,0,1,,,,,,,,,,,,,,,,repeat,letter,NA,f,0.364,Lo,,,,,,1,,,,,,,,low,2,0,2,0,1,,,,,,,,,
292468,2022-12-06_01h33.24.849,vts_reward_expectancy_bt,2022.2.4,MacIntel,58.82352941,Safari,1728,1117,,,,,0,610,,,,,,,,,,,,,,,,,F,167,circle,0,1,,,,,,,,,,,,,,,,repeat,letter,NA,f,0.513,Lo,,,,,,1,,,,,,,,low,3,0,3,0,1,,,,,,,,,
292468,2022-12-06_01h33.24.849,vts_reward_expectancy_bt,2022.2.4,MacIntel,58.82352941,Safari,1728,1117,,,,,10,620,,,,,,,,,,,,,,,,,W,139,triangle,1,1,,,,,,,,,,,,,,,,switch,number,numSwt,j,0.455,Lo,,,,,,1,,,,,,,,low,4,0,4,0,1,,,,,,,,,
292468,2022-12-06_01h33.24.849,vts_reward_expectancy_bt,2022.2.4,MacIntel,58.82352941,Safari,1728,1117,,,,,0,620,,,,,,,,,,,,,,,,,D,146,star,0,0,,,,,,,,,,,,,,,,switch,letter,NA,f,0.336,Lo,,,,,,1,,,,,,,,low,5,0,5,0,1,,,,,,,,,
292468,2022-12-06_01h33.24.849,vts_reward_expectancy_bt,2022.2.4,MacIntel,58.82352941,Safari,1728,1117,,,,,1,621,,,,,,,,,,,,,,,,,H,125,hexagon,1,1,,,,,,,,,,,,,,,,repeat,letter,lettRpt,d,0.14,Lo,,,,,,1,,,,,,,,low,6,0,6,0,1,,,,,,,,,
292468,2022-12-06_01h33.24.849,vts_reward_expectancy_bt,2022.2.4,MacIntel,58.82352941,Safari,1728,1117,,,,,0,621,,,,,,,,,,,,,,,,,U,160,circle,1,0,,,,,,,,,,,,,,,,switch,number,numSwt,k,0.371,Hi,,,,,,1,,,,,,,,low,7,0,7,0,1,,,,,,,,,
292468,2022-12-06_01h33.24.849,vts_reward_expectancy_bt,2022.2.4,MacIntel,58.82352941,Safari,1728,1117,,,,,1,622,,,,,,,,,,,,,,,,,S,181,circle,1,0,,,,,,,,,,,,,,,,repeat,number,numRpt,k,0.059,Hi,,,,,,1,,,,,,,,low,8,0,8,0,1,,,,,,,,,
292468,2022-12-06_01h33.24.849,vts_reward_expectancy_bt,2022.2.4,MacIntel,58.82352941,Safari,1728,1117,,,,,1,623,,,,,,,,,,,,,,,,,Y,132,hexagon,1,0,,,,,,,,,,,,,,,,repeat,number,numRpt,j,0.334,Lo,,,,,,1,,,,,,,,low,9,0,9,0,1,,,,,,,,,
292468,2022-12-06_01h33.24.849,vts_reward_expectancy_bt,2022.2.4,MacIntel,58.82352941,Safari,1728,1117,,,,,10,633,,,,,,,,,,,,,,,,,B,174,star,1,0,,,,,,,,,,,,,,,,switch,letter,lettSwt,d,0.547,Hi,,,,,,1,,,,,,,,low,10,0,10,0,1,,,,,,,,,
292468,2022-12-06_01h33.24.849,vts_reward_expectancy_bt,2022.2.4,MacIntel,58.82352941,Safari,1728,1117,,,,,0,633,,,,,,,,,,,,,,,,,F,167,triangle,0,0,,,,,,,,,,,,,,,,repeat,letter,NA,f,0.43,Hi,,,,,,1,,,,,,,,low,11,0,11,0,1,,,,,,,,,
292468,2022-12-06_01h33.24.849,vts_reward_expectancy_bt,2022.2.4,MacIntel,58.82352941,Safari,1728,1117,,,,,0,633,,,,,,,,,,,,,,,,,W,139,circle,0,1,,,,,,,,,,,,,,,,repeat,letter,NA,d,0.47,Hi,,,,,,1,,,,,,,,low,12,0,12,0,1,,,,,,,,,
292468,2022-12-06_01h33.24.849,vts_reward_expectancy_bt,2022.2.4,MacIntel,58.82352941,Safari,1728,1117,,,,,0,633,,,,,,,,,,,,,,,,,D,146,hexagon,0,1,,,,,,,,,,,,,,,,repeat,letter,NA,f,2.141,Hi,,,,,,1,,,,,,,,low,13,0,13,0,1,,,,,,,,,
292468,2022-12-06_01h33.24.849,vts_reward_expectancy_bt,2022.2.4,MacIntel,58.82352941,Safari,1728,1117,,,,,1,634,,,,,,,,,,,,,,,,,H,125,triangle,1,1,,,,,,,,,,,,,,,,repeat,letter,lettRpt,d,0.385,Lo,,,,,,1,,,,,,,,low,14,0,14,0,1,,,,,,,,,
292468,2022-12-06_01h33.24.849,vts_reward_expectancy_bt,2022.2.4,MacIntel,58.82352941,Safari,1728,1117,,,,,0,634,,,,,,,,,,,,,,,,,U,160,star,0,0,,,,,,,,,,,,,,,,repeat,letter,NA,d,1.645,Lo,,,,,,1,,,,,,,,low,15,0,15,0,1,,,,,,,,,
292468,2022-12-06_01h33.24.849,vts_reward_expectancy_bt,2022.2.4,MacIntel,58.82352941,Safari,1728,1117,,,,,0,634,,,,,,,,,,,,,,,,,F,125,triangle,0,1,,,,,,,,,,,,,,,,switch,number,NA,k,0.105,Lo,,,,,,1,,,,,,,,low,16,0,16,0,1,,,,,,,,,
292468,2022-12-06_01h33.24.849,vts_reward_expectancy_bt,2022.2.4,MacIntel,58.82352941,Safari,1728,1117,,,,,0,634,,,,,,,,,,,,,,,,,B,167,circle,0,1,,,,,,,,,,,,,,,,repeat,number,NA,j,0.449,Lo,,,,,,1,,,,,,,,low,17,0,17,0,1,,,,,,,,,
292468,2022-12-06_01h33.24.849,vts_reward_expectancy_bt,2022.2.4,MacIntel,58.82352941,Safari,1728,1117,,,,,0,634,,,,,,,,,,,,,,,,,S,132,star,0,1,,,,,,,,,,,,,,,,switch,letter,NA,d,0.59,Lo,,,,,,1,,,,,,,,low,18,0,18,0,1,,,,,,,,,
292468,2022-12-06_01h33.24.849,vts_reward_expectancy_bt,2022.2.4,MacIntel,58.82352941,Safari,1728,1117,,,,,10,644,,,,,,,,,,,,,,,,,H,174,hexagon,1,1,,,,,,,,,,,,,,,,repeat,letter,lettRpt,d,0.616,Lo,,,,,,1,,,,,,,,low,19,0,19,0,1,,,,,,,,,
292468,2022-12-06_01h33.24.849,vts_reward_expectancy_bt,2022.2.4,MacIntel,58.82352941,Safari,1728,1117,,,,,10,654,,,,,,,,,,,,,,,,,U,181,triangle,1,0,,,,,,,,,,,,,,,,repeat,letter,lettRpt,f,0.849,Lo,,,,,,1,,,,,,,,low,20,0,20,0,1,,,,,,,,,
292468,2022-12-06_01h33.24.849,vts_reward_expectancy_bt,2022.2.4,MacIntel,58.82352941,Safari,1728,1117,,,,,0,654,,,,,,,,,,,,,,,,,W,146,star,0,0,,,,,,,,,,,,,,,,repeat,letter,NA,d,1.042,Lo,,,,,,1,,,,,,,,low,21,0,21,0,1,,,,,,,,,
292468,2022-12-06_01h33.24.849,vts_reward_expectancy_bt,2022.2.4,MacIntel,58.82352941,Safari,1728,1117,,,,,1,655,,,,,,,,,,,,,,,,,D,160,hexagon,1,1,,,,,,,,,,,,,,,,repeat,letter,lettRpt,d,1.23,Lo,,,,,,1,,,,,,,,low,22,0,22,0,1,,,,,,,,,
292468,2022-12-06_01h33.24.849,vts_reward_expectancy_bt,2022.2.4,MacIntel,58.82352941,Safari,1728,1117,,,,,0,655,,,,,,,,,,,,,,,,,Y,139,circle,0,0,,,,,,,,,,,,,,,,switch,number,NA,k,0.311,Lo,,,,,,1,,,,,,,,low,23,0,23,0,1,,,,,,,,,
292468,2022-12-06_01h33.24.849,vts_reward_expectancy_bt,2022.2.4,MacIntel,58.82352941,Safari,1728,1117,,,,,0,655,,,,,,,,,,,,,,,,,U,160,triangle,0,1,,,,,,,,,,,,,,,,switch,letter,NA,d,0.528,Lo,,,,,,1,,,,,,,,low,24,0,24,0,1,,,,,,,,,
292468,2022-12-06_01h33.24.849,vts_reward_expectancy_bt,2022.2.4,MacIntel,58.82352941,Safari,1728,1117,,,,,0,655,,,,,,,,,,,,,,,,,D,139,star,0,1,,,,,,,,,,,,,,,,switch,number,NA,k,0.358,Lo,,,,,,1,,,,,,,,low,25,0,25,0,1,,,,,,,,,
292468,2022-12-06_01h33.24.849,vts_reward_expectancy_bt,2022.2.4,MacIntel,58.82352941,Safari,1728,1117,,,,,0,655,,,,,,,,,,,,,,,,,W,174,hexagon,0,1,,,,,,,,,,,,,,,,repeat,number,NA,j,0.482,Lo,,,,,,1,,,,,,,,low,26,0,26,0,1,,,,,,,,,
292468,2022-12-06_01h33.24.849,vts_reward_expectancy_bt,2022.2.4,MacIntel,58.82352941,Safari,1728,1117,,,,,0,655,,,,,,,,,,,,,,,,,H,146,circle,0,1,,,,,,,,,,,,,,,,repeat,number,NA,k,0.54,Lo,,,,,,1,,,,,,,,low,27,0,27,0,1,,,,,,,,,
292468,2022-12-06_01h33.24.849,vts_reward_expectancy_bt,2022.2.4,MacIntel,58.82352941,Safari,1728,1117,,,,,0,655,,,,,,,,,,,,,,,,,Y,125,triangle,0,1,,,,,,,,,,,,,,,,repeat,number,NA,k,0.657,Lo,,,,,,1,,,,,,,,low,28,0,28,0,1,,,,,,,,,
292468,2022-12-06_01h33.24.849,vts_reward_expectancy_bt,2022.2.4,MacIntel,58.82352941,Safari,1728,1117,,,,,0,655,,,,,,,,,,,,,,,,,S,181,circle,0,1,,,,,,,,,,,,,,,,repeat,number,NA,j,1.103,Lo,,,,,,1,,,,,,,,low,29,0,29,0,1,,,,,,,,,
292468,2022-12-06_01h33.24.849,vts_reward_expectancy_bt,2022.2.4,MacIntel,58.82352941,Safari,1728,1117,,,,,0,655,,,,,,,,,,,,,,,,,B,132,hexagon,0,1,,,,,,,,,,,,,,,,repeat,number,NA,k,0.455,Lo,,,,,,1,,,,,,,,low,30,0,30,0,1,,,,,,,,,
292468,2022-12-06_01h33.24.849,vts_reward_expectancy_bt,2022.2.4,MacIntel,58.82352941,Safari,1728,1117,,,,,0,655,,,,,,,,,,,,,,,,,F,167,star,0,1,,,,,,,,,,,,,,,,repeat,number,NA,j,2.247,Lo,,,,,,1,,,,,,,,low,31,0,31,0,1,,,,,,,,,
292468,2022-12-06_01h33.24.849,vts_reward_expectancy_bt,2022.2.4,MacIntel,58.82352941,Safari,1728,1117,,,,,0,655,,,,,,,,,,,,,,,,,F,174,circle,1,1,,,,,,,,,,,,,,,,repeat,number,numRpt,k,0.755,Hi,,,,,,2,,,,,,space,3.861,low,0,0,0,0,1,,,,,,,,,
292468,2022-12-06_01h33.24.849,vts_reward_expectancy_bt,2022.2.4,MacIntel,58.82352941,Safari,1728,1117,,,,,0,655,,,,,,,,,,,,,,,,,H,146,star,1,0,,,,,,,,,,,,,,,,repeat,number,numRpt,j,1.442,Hi,,,,,,2,,,,,,,,low,1,0,1,0,1,,,,,,,,,
292468,2022-12-06_01h33.24.849,vts_reward_expectancy_bt,2022.2.4,MacIntel,58.82352941,Safari,1728,1117,,,,,0,655,,,,,,,,,,,,,,,,,B,139,hexagon,0,0,,,,,,,,,,,,,,,,repeat,number,NA,k,0.553,Hi,,,,,,2,,,,,,,,low,2,0,2,0,1,,,,,,,,,
292468,2022-12-06_01h33.24.849,vts_reward_expectancy_bt,2022.2.4,MacIntel,58.82352941,Safari,1728,1117,,,,,0,655,,,,,,,,,,,,,,,,,Y,125,triangle,0,1,,,,,,,,,,,,,,,,repeat,number,NA,k,0.575,Hi,,,,,,2,,,,,,,,low,3,0,3,0,1,,,,,,,,,
292468,2022-12-06_01h33.24.849,vts_reward_expectancy_bt,2022.2.4,MacIntel,58.82352941,Safari,1728,1117,,,,,0,655,,,,,,,,,,,,,,,,,D,167,circle,1,1,,,,,,,,,,,,,,,,repeat,number,numRpt,k,0.307,Hi,,,,,,2,,,,,,,,low,4,0,4,0,1,,,,,,,,,
292468,2022-12-06_01h33.24.849,vts_reward_expectancy_bt,2022.2.4,MacIntel,58.82352941,Safari,1728,1117,,,,,0,655,,,,,,,,,,,,,,,,,W,181,star,1,0,,,,,,,,,,,,,,,,repeat,number,numRpt,k,0.503,Hi,,,,,,2,,,,,,,,low,5,0,5,0,1,,,,,,,,,
292468,2022-12-06_01h33.24.849,vts_reward_expectancy_bt,2022.2.4,MacIntel,58.82352941,Safari,1728,1117,,,,,0,655,,,,,,,,,,,,,,,,,S,132,hexagon,0,0,,,,,,,,,,,,,,,,repeat,number,NA,k,1.44,Hi,,,,,,2,,,,,,,,low,6,0,6,0,1,,,,,,,,,
292468,2022-12-06_01h33.24.849,vts_reward_expectancy_bt,2022.2.4,MacIntel,58.82352941,Safari,1728,1117,,,,,10,665,,,,,,,,,,,,,,,,,U,160,triangle,1,1,,,,,,,,,,,,,,,,repeat,number,numRpt,k,0.381,Lo,,,,,,2,,,,,,,,low,7,0,7,0,1,,,,,,,,,
292468,2022-12-06_01h33.24.849,vts_reward_expectancy_bt,2022.2.4,MacIntel,58.82352941,Safari,1728,1117,,,,,0,665,,,,,,,,,,,,,,,,,F,174,hexagon,0,0,,,,,,,,,,,,,,,,repeat,number,NA,j,0.914,Lo,,,,,,2,,,,,,,,low,8,0,8,0,1,,,,,,,,,
292468,2022-12-06_01h33.24.849,vts_reward_expectancy_bt,2022.2.4,MacIntel,58.82352941,Safari,1728,1117,,,,,0,665,,,,,,,,,,,,,,,,,H,146,star,1,1,,,,,,,,,,,,,,,,repeat,number,numRpt,j,0.455,Hi,,,,,,2,,,,,,,,low,9,0,9,0,1,,,,,,,,,
292468,2022-12-06_01h33.24.849,vts_reward_expectancy_bt,2022.2.4,MacIntel,58.82352941,Safari,1728,1117,,,,,0,665,,,,,,,,,,,,,,,,,B,139,circle,1,0,,,,,,,,,,,,,,,,repeat,number,numRpt,j,1.042,Hi,,,,,,2,,,,,,,,low,10,0,10,0,1,,,,,,,,,
292468,2022-12-06_01h33.24.849,vts_reward_expectancy_bt,2022.2.4,MacIntel,58.82352941,Safari,1728,1117,,,,,10,675,,,,,,,,,,,,,,,,,Y,125,triangle,1,0,,,,,,,,,,,,,,,,repeat,number,numRpt,j,0.561,Lo,,,,,,2,,,,,,,,low,11,0,11,0,1,,,,,,,,,
292468,2022-12-06_01h33.24.849,vts_reward_expectancy_bt,2022.2.4,MacIntel,58.82352941,Safari,1728,1117,,,,,1,676,,,,,,,,,,,,,,,,,D,167,triangle,1,0,,,,,,,,,,,,,,,,repeat,number,numRpt,k,0.334,Lo,,,,,,2,,,,,,,,low,12,0,12,0,1,,,,,,,,,
292468,2022-12-06_01h33.24.849,vts_reward_expectancy_bt,2022.2.4,MacIntel,58.82352941,Safari,1728,1117,,,,,0,676,,,,,,,,,,,,,,,,,W,181,star,0,0,,,,,,,,,,,,,,,,repeat,number,NA,j,0.416,Lo,,,,,,2,,,,,,,,low,13,0,13,0,1,,,,,,,,,
292468,2022-12-06_01h33.24.849,vts_reward_expectancy_bt,2022.2.4,MacIntel,58.82352941,Safari,1728,1117,,,,,0,676,,,,,,,,,,,,,,,,,S,132,hexagon,0,1,,,,,,,,,,,,,,,,switch,letter,NA,d,1.176,Lo,,,,,,2,,,,,,,,low,14,0,14,0,1,,,,,,,,,
292468,2022-12-06_01h33.24.849,vts_reward_expectancy_bt,2022.2.4,MacIntel,58.82352941,Safari,1728,1117,,,,,0,676,,,,,,,,,,,,,,,,,U,160,circle,0,1,,,,,,,,,,,,,,,,repeat,letter,NA,d,1.689,Lo,,,,,,2,,,,,,,,low,15,0,15,0,1,,,,,,,,,
292468,2022-12-06_01h33.24.849,vts_reward_expectancy_bt,2022.2.4,MacIntel,58.82352941,Safari,1728,1117,,,,,1,677,,,,,,,,,,,,,,,,,B,139,hexagon,1,1,,,,,,,,,,,,,,,,repeat,letter,lettRpt,d,1.893,Lo,,,,,,2,,,,,,,,low,16,0,16,0,1,,,,,,,,,
292468,2022-12-06_01h33.24.849,vts_reward_expectancy_bt,2022.2.4,MacIntel,58.82352941,Safari,1728,1117,,,,,0,677,,,,,,,,,,,,,,,,,F,160,star,0,0,,,,,,,,,,,,,,,,repeat,letter,NA,f,0.437,Lo,,,,,,2,,,,,,,,low,17,0,17,0,1,,,,,,,,,
292468,2022-12-06_01h33.24.849,vts_reward_expectancy_bt,2022.2.4,MacIntel,58.82352941,Safari,1728,1117,,,,,0,677,,,,,,,,,,,,,,,,,U,167,circle,-1,1,,,,,,,,,,,,,,,,switch,no_choice,NA,,,Lo,,,,,,2,,,,,,,,low,18,0,18,0,1,,,,,,,,,
292468,2022-12-06_01h33.24.849,vts_reward_expectancy_bt,2022.2.4,MacIntel,58.82352941,Safari,1728,1117,,,,,10,687,,,,,,,,,,,,,,,,,S,125,triangle,1,0,,,,,,,,,,,,,,,,switch,letter,lettSwt,f,0.746,Lo,,,,,,2,,,,,,,,low,19,0,19,0,1,,,,,,,,,
292468,2022-12-06_01h33.24.849,vts_reward_expectancy_bt,2022.2.4,MacIntel,58.82352941,Safari,1728,1117,,,,,0,687,,,,,,,,,,,,,,,,,H,132,hexagon,0,0,,,,,,,,,,,,,,,,repeat,letter,NA,f,0.46,Lo,,,,,,2,,,,,,,,low,20,0,20,0,1,,,,,,,,,
292468,2022-12-06_01h33.24.849,vts_reward_expectancy_bt,2022.2.4,MacIntel,58.82352941,Safari,1728,1117,,,,,0,687,,,,,,,,,,,,,,,,,Y,181,star,0,1,,,,,,,,,,,,,,,,repeat,letter,NA,d,0.195,Lo,,,,,,2,,,,,,,,low,21,0,21,0,1,,,,,,,,,
292468,2022-12-06_01h33.24.849,vts_reward_expectancy_bt,2022.2.4,MacIntel,58.82352941,Safari,1728,1117,,,,,0,687,,,,,,,,,,,,,,,,,W,174,circle,1,1,,,,,,,,,,,,,,,,repeat,letter,lettRpt,f,0.805,Hi,,,,,,2,,,,,,,,low,22,0,22,0,1,,,,,,,,,
292468,2022-12-06_01h33.24.849,vts_reward_expectancy_bt,2022.2.4,MacIntel,58.82352941,Safari,1728,1117,,,,,0,687,,,,,,,,,,,,,,,,,D,146,triangle,0,0,,,,,,,,,,,,,,,,repeat,letter,NA,f,0.389,Hi,,,,,,2,,,,,,,,low,23,0,23,0,1,,,,,,,,,
292468,2022-12-06_01h33.24.849,vts_reward_expectancy_bt,2022.2.4,MacIntel,58.82352941,Safari,1728,1117,,,,,0,687,,,,,,,,,,,,,,,,,B,160,hexagon,0,1,,,,,,,,,,,,,,,,repeat,letter,NA,f,1.159,Hi,,,,,,2,,,,,,,,low,24,0,24,0,1,,,,,,,,,
292468,2022-12-06_01h33.24.849,vts_reward_expectancy_bt,2022.2.4,MacIntel,58.82352941,Safari,1728,1117,,,,,0,687,,,,,,,,,,,,,,,,,U,174,star,0,1,,,,,,,,,,,,,,,,repeat,letter,NA,d,0.998,Hi,,,,,,2,,,,,,,,low,25,0,25,0,1,,,,,,,,,
292468,2022-12-06_01h33.24.849,vts_reward_expectancy_bt,2022.2.4,MacIntel,58.82352941,Safari,1728,1117,,,,,10,697,,,,,,,,,,,,,,,,,D,139,triangle,1,1,,,,,,,,,,,,,,,,repeat,letter,lettRpt,d,0.466,Lo,,,,,,2,,,,,,,,low,26,0,26,0,1,,,,,,,,,
292468,2022-12-06_01h33.24.849,vts_reward_expectancy_bt,2022.2.4,MacIntel,58.82352941,Safari,1728,1117,,,,,0,697,,,,,,,,,,,,,,,,,Y,146,circle,-1,0,,,,,,,,,,,,,,,,switch,no_choice,NA,,,Lo,,,,,,2,,,,,,,,low,27,0,27,0,1,,,,,,,,,
292468,2022-12-06_01h33.24.849,vts_reward_expectancy_bt,2022.2.4,MacIntel,58.82352941,Safari,1728,1117,,,,,0,697,,,,,,,,,,,,,,,,,W,181,star,0,0,,,,,,,,,,,,,,,,switch,letter,NA,d,0.879,Lo,,,,,,2,,,,,,,,low,28,0,28,0,1,,,,,,,,,
292468,2022-12-06_01h33.24.849,vts_reward_expectancy_bt,2022.2.4,MacIntel,58.82352941,Safari,1728,1117,,,,,0,697,,,,,,,,,,,,,,,,,H,132,triangle,0,1,,,,,,,,,,,,,,,,repeat,letter,NA,f,1.187,Lo,,,,,,2,,,,,,,,low,29,0,29,0,1,,,,,,,,,
292468,2022-12-06_01h33.24.849,vts_reward_expectancy_bt,2022.2.4,MacIntel,58.82352941,Safari,1728,1117,,,,,0,697,,,,,,,,,,,,,,,,,S,125,hexagon,0,1,,,,,,,,,,,,,,,,repeat,letter,NA,d,0.53,Lo,,,,,,2,,,,,,,,low,30,0,30,0,1,,,,,,,,,
292468,2022-12-06_01h33.24.849,vts_reward_expectancy_bt,2022.2.4,MacIntel,58.82352941,Safari,1728,1117,,,,,0,697,,,,,,,,,,,,,,,,,F,167,circle,1,1,,,,,,,,,,,,,,,,repeat,letter,lettRpt,d,0.608,Hi,,,,,,2,,,,,,,,low,31,0,31,0,1,,,,,,,,,
292468,2022-12-06_01h33.24.849,vts_reward_expectancy_bt,2022.2.4,MacIntel,58.82352941,Safari,1728,1117,,,,,0,697,,,,,,,,,,,,,,,,,F,146,hexagon,0,0,,,,,,,,,,,,,,,,repeat,letter,NA,f,0.066,Hi,,,,,,3,,,,,,space,1.277,low,0,0,0,0,1,,,,,,,,,
292468,2022-12-06_01h33.24.849,vts_reward_expectancy_bt,2022.2.4,MacIntel,58.82352941,Safari,1728,1117,,,,,0,697,,,,,,,,,,,,,,,,,H,181,triangle,0,1,,,,,,,,,,,,,,,,repeat,letter,NA,f,2.758,Hi,,,,,,3,,,,,,,,low,1,0,1,0,1,,,,,,,,,
292468,2022-12-06_01h33.24.849,vts_reward_expectancy_bt,2022.2.4,MacIntel,58.82352941,Safari,1728,1117,,,,,10,707,,,,,,,,,,,,,,,,,U,139,star,1,1,,,,,,,,,,,,,,,,repeat,letter,lettRpt,f,0.111,Hi,,,,,,3,,,,,,,,low,2,0,2,0,1,,,,,,,,,
292468,2022-12-06_01h33.24.849,vts_reward_expectancy_bt,2022.2.4,MacIntel,58.82352941,Safari,1728,1117,,,,,0,707,,,,,,,,,,,,,,,,,S,160,circle,-1,0,,,,,,,,,,,,,,,,switch,no_choice,NA,,,Hi,,,,,,3,,,,,,,,low,3,0,3,0,1,,,,,,,,,
292468,2022-12-06_01h33.24.849,vts_reward_expectancy_bt,2022.2.4,MacIntel,58.82352941,Safari,1728,1117,,,,,0,707,,,,,,,,,,,,,,,,,W,132,hexagon,0,0,,,,,,,,,,,,,,,,switch,letter,NA,d,2.278,Hi,,,,,,3,,,,,,,,low,4,0,4,0,1,,,,,,,,,
292468,2022-12-06_01h33.24.849,vts_reward_expectancy_bt,2022.2.4,MacIntel,58.82352941,Safari,1728,1117,,,,,0,707,,,,,,,,,,,,,,,,,D,167,triangle,0,1,,,,,,,,,,,,,,,,repeat,letter,NA,f,1.429,Hi,,,,,,3,,,,,,,,low,5,0,5,0,1,,,,,,,,,
292468,2022-12-06_01h33.24.849,vts_reward_expectancy_bt,2022.2.4,MacIntel,58.82352941,Safari,1728,1117,,,,,0,707,,,,,,,,,,,,,,,,,Y,174,star,1,1,,,,,,,,,,,,,,,,repeat,letter,lettRpt,f,1.299,Hi,,,,,,3,,,,,,,,low,6,0,6,0,1,,,,,,,,,
292468,2022-12-06_01h33.24.849,vts_reward_expectancy_bt,2022.2.4,MacIntel,58.82352941,Safari,1728,1117,,,,,10,717,,,,,,,,,,,,,,,,,B,125,circle,1,0,,,,,,,,,,,,,,,,repeat,letter,lettRpt,d,0.246,Hi,,,,,,3,,,,,,,,low,7,0,7,0,1,,,,,,,,,
292468,2022-12-06_01h33.24.849,vts_reward_expectancy_bt,2022.2.4,MacIntel,58.82352941,Safari,1728,1117,,,,,10,727,,,,,,,,,,,,,,,,,F,146,triangle,1,0,,,,,,,,,,,,,,,,repeat,letter,lettRpt,d,2.207,Lo,,,,,,3,,,,,,,,low,8,0,8,0,1,,,,,,,,,
292468,2022-12-06_01h33.24.849,vts_reward_expectancy_bt,2022.2.4,MacIntel,58.82352941,Safari,1728,1117,,,,,0,727,,,,,,,,,,,,,,,,,H,181,hexagon,0,0,,,,,,,,,,,,,,,,repeat,letter,NA,f,0.218,Lo,,,,,,3,,,,,,,,low,9,0,9,0,1,,,,,,,,,
292468,2022-12-06_01h33.24.849,vts_reward_expectancy_bt,2022.2.4,MacIntel,58.82352941,Safari,1728,1117,,,,,10,737,,,,,,,,,,,,,,,,,U,139,star,1,1,,,,,,,,,,,,,,,,repeat,letter,lettRpt,f,0.354,Hi,,,,,,3,,,,,,,,low,10,0,10,0,1,,,,,,,,,
292468,2022-12-06_01h33.24.849,vts_reward_expectancy_bt,2022.2.4,MacIntel,58.82352941,Safari,1728,1117,,,,,10,747,,,,,,,,,,,,,,,,,S,160,circle,1,0,,,,,,,,,,,,,,,,repeat,letter,lettRpt,f,0.067,Hi,,,,,,3,,,,,,,,low,11,0,11,0,1,,,,,,,,,
292468,2022-12-06_01h33.24.849,vts_reward_expectancy_bt,2022.2.4,MacIntel,58.82352941,Safari,1728,1117,,,,,10,757,,,,,,,,,,,,,,,,,W,132,triangle,1,0,,,,,,,,,,,,,,,,repeat,letter,lettRpt,f,1.301,Lo,,,,,,3,,,,,,,,low,12,0,12,0,1,,,,,,,,,
292468,2022-12-06_01h33.24.849,vts_reward_expectancy_bt,2022.2.4,MacIntel,58.82352941,Safari,1728,1117,,,,,0,757,,,,,,,,,,,,,,,,,D,167,star,0,0,,,,,,,,,,,,,,,,repeat,letter,NA,f,0.925,Lo,,,,,,3,,,,,,,,low,13,0,13,0,1,,,,,,,,,
292468,2022-12-06_01h33.24.849,vts_reward_expectancy_bt,2022.2.4,MacIntel,58.82352941,Safari,1728,1117,,,,,0,757,,,,,,,,,,,,,,,,,Y,174,hexagon,0,1,,,,,,,,,,,,,,,,repeat,letter,NA,d,0.728,Lo,,,,,,3,,,,,,,,low,14,0,14,0,1,,,,,,,,,
292468,2022-12-06_01h33.24.849,vts_reward_expectancy_bt,2022.2.4,MacIntel,58.82352941,Safari,1728,1117,,,,,10,767,,,,,,,,,,,,,,,,,B,125,circle,1,1,,,,,,,,,,,,,,,,repeat,letter,lettRpt,d,0.357,Hi,,,,,,3,,,,,,,,low,15,0,15,0,1,,,,,,,,,
292468,2022-12-06_01h33.24.849,vts_reward_expectancy_bt,2022.2.4,MacIntel,58.82352941,Safari,1728,1117,,,,,0,767,,,,,,,,,,,,,,,,,W,174,star,0,0,,,,,,,,,,,,,,,,repeat,letter,NA,d,0.938,Hi,,,,,,3,,,,,,,,low,16,0,16,0,1,,,,,,,,,
292468,2022-12-06_01h33.24.849,vts_reward_expectancy_bt,2022.2.4,MacIntel,58.82352941,Safari,1728,1117,,,,,0,767,,,,,,,,,,,,,,,,,S,181,hexagon,0,1,,,,,,,,,,,,,,,,repeat,letter,NA,d,0.341,Hi,,,,,,3,,,,,,,,low,17,0,17,0,1,,,,,,,,,
292468,2022-12-06_01h33.24.849,vts_reward_expectancy_bt,2022.2.4,MacIntel,58.82352941,Safari,1728,1117,,,,,10,777,,,,,,,,,,,,,,,,,B,160,triangle,1,1,,,,,,,,,,,,,,,,repeat,letter,lettRpt,d,0.665,Lo,,,,,,3,,,,,,,,low,18,0,18,0,1,,,,,,,,,
292468,2022-12-06_01h33.24.849,vts_reward_expectancy_bt,2022.2.4,MacIntel,58.82352941,Safari,1728,1117,,,,,0,777,,,,,,,,,,,,,,,,,F,132,circle,0,0,,,,,,,,,,,,,,,,repeat,letter,NA,f,0.563,Lo,,,,,,3,,,,,,,,low,19,0,19,0,1,,,,,,,,,
292468,2022-12-06_01h33.24.849,vts_reward_expectancy_bt,2022.2.4,MacIntel,58.82352941,Safari,1728,1117,,,,,1,778,,,,,,,,,,,,,,,,,U,146,triangle,1,1,,,,,,,,,,,,,,,,repeat,letter,lettRpt,f,0.678,Lo,,,,,,3,,,,,,,,low,20,0,20,0,1,,,,,,,,,
292468,2022-12-06_01h33.24.849,vts_reward_expectancy_bt,2022.2.4,MacIntel,58.82352941,Safari,1728,1117,,,,,0,778,,,,,,,,,,,,,,,,,Y,139,star,1,0,,,,,,,,,,,,,,,,repeat,letter,lettRpt,f,2.446,Hi,,,,,,3,,,,,,,,low,21,0,21,0,1,,,,,,,,,
292468,2022-12-06_01h33.24.849,vts_reward_expectancy_bt,2022.2.4,MacIntel,58.82352941,Safari,1728,1117,,,,,0,778,,,,,,,,,,,,,,,,,H,167,hexagon,0,0,,,,,,,,,,,,,,,,repeat,letter,NA,f,1.507,Hi,,,,,,3,,,,,,,,low,22,0,22,0,1,,,,,,,,,
292468,2022-12-06_01h33.24.849,vts_reward_expectancy_bt,2022.2.4,MacIntel,58.82352941,Safari,1728,1117,,,,,0,778,,,,,,,,,,,,,,,,,D,125,circle,1,1,,,,,,,,,,,,,,,,repeat,letter,lettRpt,d,2.744,Hi,,,,,,3,,,,,,,,low,23,0,23,0,1,,,,,,,,,
292468,2022-12-06_01h33.24.849,vts_reward_expectancy_bt,2022.2.4,MacIntel,58.82352941,Safari,1728,1117,,,,,0,778,,,,,,,,,,,,,,,,,U,167,circle,1,0,,,,,,,,,,,,,,,,repeat,letter,lettRpt,f,0.804,Hi,,,,,,3,,,,,,,,low,24,0,24,0,1,,,,,,,,,
292468,2022-12-06_01h33.24.849,vts_reward_expectancy_bt,2022.2.4,MacIntel,58.82352941,Safari,1728,1117,,,,,0,778,,,,,,,,,,,,,,,,,W,139,triangle,-1,0,,,,,,,,,,,,,,,,switch,no_choice,NA,,,Hi,,,,,,3,,,,,,,,low,25,0,25,0,1,,,,,,,,,
292468,2022-12-06_01h33.24.849,vts_reward_expectancy_bt,2022.2.4,MacIntel,58.82352941,Safari,1728,1117,,,,,0,778,,,,,,,,,,,,,,,,,B,181,star,1,0,,,,,,,,,,,,,,,,switch,letter,lettSwt,d,2.78,Hi,,,,,,3,,,,,,,,low,26,0,26,0,1,,,,,,,,,
292468,2022-12-06_01h33.24.849,vts_reward_expectancy_bt,2022.2.4,MacIntel,58.82352941,Safari,1728,1117,,,,,0,778,,,,,,,,,,,,,,,,,Y,160,hexagon,0,0,,,,,,,,,,,,,,,,repeat,letter,NA,d,0.214,Hi,,,,,,3,,,,,,,,low,27,0,27,0,1,,,,,,,,,
292468,2022-12-06_01h33.24.849,vts_reward_expectancy_bt,2022.2.4,MacIntel,58.82352941,Safari,1728,1117,,,,,0,778,,,,,,,,,,,,,,,,,S,146,circle,0,1,,,,,,,,,,,,,,,,repeat,letter,NA,d,0.573,Hi,,,,,,3,,,,,,,,low,28,0,28,0,1,,,,,,,,,
292468,2022-12-06_01h33.24.849,vts_reward_expectancy_bt,2022.2.4,MacIntel,58.82352941,Safari,1728,1117,,,,,0,778,,,,,,,,,,,,,,,,,F,125,star,0,1,,,,,,,,,,,,,,,,repeat,letter,NA,f,0.125,Hi,,,,,,3,,,,,,,,low,29,0,29,0,1,,,,,,,,,
292468,2022-12-06_01h33.24.849,vts_reward_expectancy_bt,2022.2.4,MacIntel,58.82352941,Safari,1728,1117,,,,,1,779,,,,,,,,,,,,,,,,,H,132,triangle,1,1,,,,,,,,,,,,,,,,repeat,letter,lettRpt,d,0.518,Lo,,,,,,3,,,,,,,,low,30,0,30,0,1,,,,,,,,,
292468,2022-12-06_01h33.24.849,vts_reward_expectancy_bt,2022.2.4,MacIntel,58.82352941,Safari,1728,1117,,,,,1,780,,,,,,,,,,,,,,,,,D,174,hexagon,1,0,,,,,,,,,,,,,,,,repeat,letter,lettRpt,d,0.898,Lo,,,,,,3,,,,,,,,low,31,0,31,0,1,,,,,,,,,
292468,2022-12-06_01h33.24.849,vts_reward_expectancy_bt,2022.2.4,MacIntel,58.82352941,Safari,1728,1117,,,,,10,790,,,,,,,,,,,,,,,,,Y,146,hexagon,1,0,,,,,,,,,,,,,,,,repeat,letter,lettRpt,f,0.055,Lo,,,,,,4,,,,,,space,1.802,low,0,0,0,0,1,,,,,,,,,
292468,2022-12-06_01h33.24.849,vts_reward_expectancy_bt,2022.2.4,MacIntel,58.82352941,Safari,1728,1117,,,,,1,791,,,,,,,,,,,,,,,,,S,125,triangle,1,0,,,,,,,,,,,,,,,,repeat,letter,lettRpt,f,0.569,Lo,,,,,,4,,,,,,,,low,1,0,1,0,1,,,,,,,,,
292468,2022-12-06_01h33.24.849,vts_reward_expectancy_bt,2022.2.4,MacIntel,58.82352941,Safari,1728,1117,,,,,0,791,,,,,,,,,,,,,,,,,B,132,star,1,0,,,,,,,,,,,,,,,,repeat,letter,lettRpt,d,1.367,Hi,,,,,,4,,,,,,,,low,2,0,2,0,1,,,,,,,,,
292468,2022-12-06_01h33.24.849,vts_reward_expectancy_bt,2022.2.4,MacIntel,58.82352941,Safari,1728,1117,,,,,0,791,,,,,,,,,,,,,,,,,W,181,circle,1,0,,,,,,,,,,,,,,,,repeat,letter,lettRpt,f,0.838,Hi,,,,,,4,,,,,,,,low,3,0,3,0,1,,,,,,,,,
292468,2022-12-06_01h33.24.849,vts_reward_expectancy_bt,2022.2.4,MacIntel,58.82352941,Safari,1728,1117,,,,,0,791,,,,,,,,,,,,,,,,,U,174,hexagon,0,0,,,,,,,,,,,,,,,,repeat,letter,NA,d,0.528,Hi,,,,,,4,,,,,,,,low,4,0,4,0,1,,,,,,,,,
292468,2022-12-06_01h33.24.849,vts_reward_expectancy_bt,2022.2.4,MacIntel,58.82352941,Safari,1728,1117,,,,,10,801,,,,,,,,,,,,,,,,,D,160,triangle,1,1,,,,,,,,,,,,,,,,repeat,letter,lettRpt,d,0.553,Lo,,,,,,4,,,,,,,,low,5,0,5,0,1,,,,,,,,,
292468,2022-12-06_01h33.24.849,vts_reward_expectancy_bt,2022.2.4,MacIntel,58.82352941,Safari,1728,1117,,,,,0,801,,,,,,,,,,,,,,,,,H,167,star,0,0,,,,,,,,,,,,,,,,repeat,letter,NA,f,0.271,Lo,,,,,,4,,,,,,,,low,6,0,6,0,1,,,,,,,,,
292468,2022-12-06_01h33.24.849,vts_reward_expectancy_bt,2022.2.4,MacIntel,58.82352941,Safari,1728,1117,,,,,0,801,,,,,,,,,,,,,,,,,F,139,circle,0,1,,,,,,,,,,,,,,,,repeat,letter,NA,f,2.036,Lo,,,,,,4,,,,,,,,low,7,0,7,0,1,,,,,,,,,
292468,2022-12-06_01h33.24.849,vts_reward_expectancy_bt,2022.2.4,MacIntel,58.82352941,Safari,1728,1117,,,,,0,801,,,,,,,,,,,,,,,,,Y,146,star,1,1,,,,,,,,,,,,,,,,repeat,letter,lettRpt,f,0.668,Hi,,,,,,4,,,,,,,,low,8,0,8,0,1,,,,,,,,,
292468,2022-12-06_01h33.24.849,vts_reward_expectancy_bt,2022.2.4,MacIntel,58.82352941,Safari,1728,1117,,,,,10,811,,,,,,,,,,,,,,,,,S,125,hexagon,1,0,,,,,,,,,,,,,,,,repeat,letter,lettRpt,f,1.031,Lo,,,,,,4,,,,,,,,low,9,0,9,0,1,,,,,,,,,
292468,2022-12-06_01h33.24.849,vts_reward_expectancy_bt,2022.2.4,MacIntel,58.82352941,Safari,1728,1117,,,,,10,821,,,,,,,,,,,,,,,,,B,132,triangle,1,0,,,,,,,,,,,,,,,,repeat,letter,lettRpt,d,0.864,Lo,,,,,,4,,,,,,,,low,10,0,10,0,1,,,,,,,,,
292468,2022-12-06_01h33.24.849,vts_reward_expectancy_bt,2022.2.4,MacIntel,58.82352941,Safari,1728,1117,,,,,0,821,,,,,,,,,,,,,,,,,W,181,circle,1,0,,,,,,,,,,,,,,,,repeat,letter,lettRpt,f,0.991,Hi,,,,,,4,,,,,,,,low,11,0,11,0,1,,,,,,,,,
292468,2022-12-06_01h33.24.849,vts_reward_expectancy_bt,2022.2.4,MacIntel,58.82352941,Safari,1728,1117,,,,,1,822,,,,,,,,,,,,,,,,,U,174,circle,1,0,,,,,,,,,,,,,,,,repeat,letter,lettRpt,f,0.05,Hi,,,,,,4,,,,,,,,low,12,0,12,0,1,,,,,,,,,
292468,2022-12-06_01h33.24.849,vts_reward_expectancy_bt,2022.2.4,MacIntel,58.82352941,Safari,1728,1117,,,,,1,823,,,,,,,,,,,,,,,,,D,160,hexagon,1,0,,,,,,,,,,,,,,,,repeat,letter,lettRpt,d,0.163,Lo,,,,,,4,,,,,,,,low,13,0,13,0,1,,,,,,,,,
292468,2022-12-06_01h33.24.849,vts_reward_expectancy_bt,2022.2.4,MacIntel,58.82352941,Safari,1728,1117,,,,,0,823,,,,,,,,,,,,,,,,,H,167,star,0,0,,,,,,,,,,,,,,,,repeat,letter,NA,f,0.026,Lo,,,,,,4,,,,,,,,low,14,0,14,0,1,,,,,,,,,
292468,2022-12-06_01h33.24.849,vts_reward_expectancy_bt,2022.2.4,MacIntel,58.82352941,Safari,1728,1117,,,,,0,823,,,,,,,,,,,,,,,,,F,139,triangle,0,1,,,,,,,,,,,,,,,,repeat,letter,NA,f,0.581,Lo,,,,,,4,,,,,,,,low,15,0,15,0,1,,,,,,,,,
292468,2022-12-06_01h33.24.849,vts_reward_expectancy_bt,2022.2.4,MacIntel,58.82352941,Safari,1728,1117,,,,,0,823,,,,,,,,,,,,,,,,,S,160,star,0,1,,,,,,,,,,,,,,,,repeat,letter,NA,d,1.161,Lo,,,,,,4,,,,,,,,low,16,0,16,0,1,,,,,,,,,
292468,2022-12-06_01h33.24.849,vts_reward_expectancy_bt,2022.2.4,MacIntel,58.82352941,Safari,1728,1117,,,,,0,823,,,,,,,,,,,,,,,,,F,174,triangle,-1,1,,,,,,,,,,,,,,,,switch,no_choice,NA,,,Lo,,,,,,4,,,,,,,,low,17,0,17,0,1,,,,,,,,,
292468,2022-12-06_01h33.24.849,vts_reward_expectancy_bt,2022.2.4,MacIntel,58.82352941,Safari,1728,1117,,,,,10,833,,,,,,,,,,,,,,,,,B,139,circle,1,0,,,,,,,,,,,,,,,,switch,letter,lettSwt,d,1.351,Hi,,,,,,4,,,,,,,,low,18,0,18,0,1,,,,,,,,,
292468,2022-12-06_01h33.24.849,vts_reward_expectancy_bt,2022.2.4,MacIntel,58.82352941,Safari,1728,1117,,,,,0,833,,,,,,,,,,,,,,,,,H,132,hexagon,0,0,,,,,,,,,,,,,,,,repeat,letter,NA,f,0.5,Hi,,,,,,4,,,,,,,,low,19,0,19,0,1,,,,,,,,,
292468,2022-12-06_01h33.24.849,vts_reward_expectancy_bt,2022.2.4,MacIntel,58.82352941,Safari,1728,1117,,,,,10,843,,,,,,,,,,,,,,,,,D,146,star,1,1,,,,,,,,,,,,,,,,repeat,letter,lettRpt,d,0.443,Hi,,,,,,4,,,,,,,,low,20,0,20,0,1,,,,,,,,,
292468,2022-12-06_01h33.24.849,vts_reward_expectancy_bt,2022.2.4,MacIntel,58.82352941,Safari,1728,1117,,,,,0,843,,,,,,,,,,,,,,,,,U,167,circle,-1,0,,,,,,,,,,,,,,,,switch,no_choice,NA,,,Hi,,,,,,4,,,,,,,,low,21,0,21,0,1,,,,,,,,,
292468,2022-12-06_01h33.24.849,vts_reward_expectancy_bt,2022.2.4,MacIntel,58.82352941,Safari,1728,1117,,,,,0,843,,,,,,,,,,,,,,,,,W,125,triangle,-1,0,,,,,,,,,,,,,,,,repeat,no_choice,NA,,,Hi,,,,,,4,,,,,,,,low,22,0,22,0,1,,,,,,,,,
292468,2022-12-06_01h33.24.849,vts_reward_expectancy_bt,2022.2.4,MacIntel,58.82352941,Safari,1728,1117,,,,,0,843,,,,,,,,,,,,,,,,,Y,181,hexagon,0,0,,,,,,,,,,,,,,,,switch,letter,NA,d,2.958,Hi,,,,,,4,,,,,,,,low,23,0,23,0,1,,,,,,,,,
292468,2022-12-06_01h33.24.849,vts_reward_expectancy_bt,2022.2.4,MacIntel,58.82352941,Safari,1728,1117,,,,,0,843,,,,,,,,,,,,,,,,,H,125,hexagon,0,1,,,,,,,,,,,,,,,,repeat,letter,NA,f,0.102,Hi,,,,,,4,,,,,,,,low,24,0,24,0,1,,,,,,,,,
292468,2022-12-06_01h33.24.849,vts_reward_expectancy_bt,2022.2.4,MacIntel,58.82352941,Safari,1728,1117,,,,,0,843,,,,,,,,,,,,,,,,,W,146,star,0,1,,,,,,,,,,,,,,,,repeat,letter,NA,d,1.192,Hi,,,,,,4,,,,,,,,low,25,0,25,0,1,,,,,,,,,
292468,2022-12-06_01h33.24.849,vts_reward_expectancy_bt,2022.2.4,MacIntel,58.82352941,Safari,1728,1117,,,,,0,843,,,,,,,,,,,,,,,,,S,160,circle,0,1,,,,,,,,,,,,,,,,repeat,letter,NA,d,0.497,Hi,,,,,,4,,,,,,,,low,26,0,26,0,1,,,,,,,,,
292468,2022-12-06_01h33.24.849,vts_reward_expectancy_bt,2022.2.4,MacIntel,58.82352941,Safari,1728,1117,,,,,1,844,,,,,,,,,,,,,,,,,D,181,triangle,1,1,,,,,,,,,,,,,,,,repeat,letter,lettRpt,d,1.147,Lo,,,,,,4,,,,,,,,low,27,0,27,0,1,,,,,,,,,
292468,2022-12-06_01h33.24.849,vts_reward_expectancy_bt,2022.2.4,MacIntel,58.82352941,Safari,1728,1117,,,,,1,845,,,,,,,,,,,,,,,,,Y,139,triangle,1,0,,,,,,,,,,,,,,,,repeat,letter,lettRpt,f,0.567,Lo,,,,,,4,,,,,,,,low,28,0,28,0,1,,,,,,,,,
292468,2022-12-06_01h33.24.849,vts_reward_expectancy_bt,2022.2.4,MacIntel,58.82352941,Safari,1728,1117,,,,,0,845,,,,,,,,,,,,,,,,,B,174,star,0,0,,,,,,,,,,,,,,,,repeat,letter,NA,f,2.182,Lo,,,,,,4,,,,,,,,low,29,0,29,0,1,,,,,,,,,
292468,2022-12-06_01h33.24.849,vts_reward_expectancy_bt,2022.2.4,MacIntel,58.82352941,Safari,1728,1117,,,,,0,845,,,,,,,,,,,,,,,,,U,132,circle,1,1,,,,,,,,,,,,,,,,repeat,letter,lettRpt,f,0.777,Hi,,,,,,4,,,,,,,,low,30,0,30,0,1,,,,,,,,,
292468,2022-12-06_01h33.24.849,vts_reward_expectancy_bt,2022.2.4,MacIntel,58.82352941,Safari,1728,1117,,,,,10,855,,,,,,,,,,,,,,,,,F,167,hexagon,1,0,,,,,,,,,,,,,,,,repeat,letter,lettRpt,d,1.201,Lo,,,,,,4,,,,,,,,low,31,0,31,0,1,,,,,,,,,
292468,2022-12-06_01h33.24.849,vts_reward_expectancy_bt,2022.2.4,MacIntel,58.82352941,Safari,1728,1117,,,,,1,856,,,,,,,,,,,,,,,,,U,146,triangle,1,0,,,,,,,,,,,,,,,,repeat,letter,lettRpt,f,0.227,Lo,,,,,,5,,,,,,space,0.424,low,0,0,0,0,1,,,,,,,,,
292468,2022-12-06_01h33.24.849,vts_reward_expectancy_bt,2022.2.4,MacIntel,58.82352941,Safari,1728,1117,,,,,10,866,,,,,,,,,,,,,,,,,S,167,hexagon,1,0,,,,,,,,,,,,,,,,repeat,letter,lettRpt,f,0.31,Lo,,,,,,5,,,,,,,,low,1,0,1,0,1,,,,,,,,,
292468,2022-12-06_01h33.24.849,vts_reward_expectancy_bt,2022.2.4,MacIntel,58.82352941,Safari,1728,1117,,,,,0,866,,,,,,,,,,,,,,,,,H,160,star,0,0,,,,,,,,,,,,,,,,repeat,letter,NA,f,0.249,Lo,,,,,,5,,,,,,,,low,2,0,2,0,1,,,,,,,,,
292468,2022-12-06_01h33.24.849,vts_reward_expectancy_bt,2022.2.4,MacIntel,58.82352941,Safari,1728,1117,,,,,0,866,,,,,,,,,,,,,,,,,F,181,circle,-1,1,,,,,,,,,,,,,,,,switch,no_choice,NA,,,Lo,,,,,,5,,,,,,,,low,3,0,3,0,1,,,,,,,,,
292468,2022-12-06_01h33.24.849,vts_reward_expectancy_bt,2022.2.4,MacIntel,58.82352941,Safari,1728,1117,,,,,10,876,,,,,,,,,,,,,,,,,W,174,triangle,1,0,,,,,,,,,,,,,,,,switch,letter,lettSwt,f,1.116,Lo,,,,,,5,,,,,,,,low,4,0,4,0,1,,,,,,,,,
292468,2022-12-06_01h33.24.849,vts_reward_expectancy_bt,2022.2.4,MacIntel,58.82352941,Safari,1728,1117,,,,,1,877,,,,,,,,,,,,,,,,,Y,125,hexagon,1,0,,,,,,,,,,,,,,,,repeat,letter,lettRpt,f,0.831,Lo,,,,,,5,,,,,,,,low,5,0,5,0,1,,,,,,,,,
292468,2022-12-06_01h33.24.849,vts_reward_expectancy_bt,2022.2.4,MacIntel,58.82352941,Safari,1728,1117,,,,,0,877,,,,,,,,,,,,,,,,,B,139,star,1,0,,,,,,,,,,,,,,,,repeat,letter,lettRpt,d,1.898,Hi,,,,,,5,,,,,,,,low,6,0,6,0,1,,,,,,,,,
292468,2022-12-06_01h33.24.849,vts_reward_expectancy_bt,2022.2.4,MacIntel,58.82352941,Safari,1728,1117,,,,,0,877,,,,,,,,,,,,,,,,,D,132,circle,0,0,,,,,,,,,,,,,,,,repeat,letter,NA,f,0.398,Hi,,,,,,5,,,,,,,,low,7,0,7,0,1,,,,,,,,,
292468,2022-12-06_01h33.24.849,vts_reward_expectancy_bt,2022.2.4,MacIntel,58.82352941,Safari,1728,1117,,,,,0,877,,,,,,,,,,,,,,,,,U,146,circle,0,1,,,,,,,,,,,,,,,,repeat,letter,NA,d,1.331,Hi,,,,,,5,,,,,,,,low,8,0,8,0,1,,,,,,,,,
292468,2022-12-06_01h33.24.849,vts_reward_expectancy_bt,2022.2.4,MacIntel,58.82352941,Safari,1728,1117,,,,,0,877,,,,,,,,,,,,,,,,,S,167,hexagon,0,1,,,,,,,,,,,,,,,,repeat,letter,NA,d,2.129,Hi,,,,,,5,,,,,,,,low,9,0,9,0,1,,,,,,,,,
292468,2022-12-06_01h33.24.849,vts_reward_expectancy_bt,2022.2.4,MacIntel,58.82352941,Safari,1728,1117,,,,,0,877,,,,,,,,,,,,,,,,,H,160,star,1,1,,,,,,,,,,,,,,,,repeat,letter,lettRpt,d,2.39,Hi,,,,,,5,,,,,,,,low,10,0,10,0,1,,,,,,,,,
292468,2022-12-06_01h33.24.849,vts_reward_expectancy_bt,2022.2.4,MacIntel,58.82352941,Safari,1728,1117,,,,,1,878,,,,,,,,,,,,,,,,,F,181,triangle,1,0,,,,,,,,,,,,,,,,repeat,letter,lettRpt,d,1.298,Lo,,,,,,5,,,,,,,,low,11,0,11,0,1,,,,,,,,,
292468,2022-12-06_01h33.24.849,vts_reward_expectancy_bt,2022.2.4,MacIntel,58.82352941,Safari,1728,1117,,,,,10,888,,,,,,,,,,,,,,,,,W,174,triangle,1,0,,,,,,,,,,,,,,,,repeat,letter,lettRpt,f,0.487,Lo,,,,,,5,,,,,,,,low,12,0,12,0,1,,,,,,,,,
292468,2022-12-06_01h33.24.849,vts_reward_expectancy_bt,2022.2.4,MacIntel,58.82352941,Safari,1728,1117,,,,,0,888,,,,,,,,,,,,,,,,,Y,125,circle,1,0,,,,,,,,,,,,,,,,repeat,letter,lettRpt,f,0.591,Hi,,,,,,5,,,,,,,,low,13,0,13,0,1,,,,,,,,,
292468,2022-12-06_01h33.24.849,vts_reward_expectancy_bt,2022.2.4,MacIntel,58.82352941,Safari,1728,1117,,,,,0,888,,,,,,,,,,,,,,,,,B,139,star,-1,0,,,,,,,,,,,,,,,,switch,no_choice,NA,,,Hi,,,,,,5,,,,,,,,low,14,0,14,0,1,,,,,,,,,
292468,2022-12-06_01h33.24.849,vts_reward_expectancy_bt,2022.2.4,MacIntel,58.82352941,Safari,1728,1117,,,,,0,888,,,,,,,,,,,,,,,,,D,132,hexagon,0,0,,,,,,,,,,,,,,,,switch,letter,NA,f,0.376,Hi,,,,,,5,,,,,,,,low,15,0,15,0,1,,,,,,,,,
292468,2022-12-06_01h33.24.849,vts_reward_expectancy_bt,2022.2.4,MacIntel,58.82352941,Safari,1728,1117,,,,,0,888,,,,,,,,,,,,,,,,,U,132,star,1,1,,,,,,,,,,,,,,,,repeat,letter,lettRpt,f,0.848,Hi,,,,,,5,,,,,,,,low,16,0,16,0,1,,,,,,,,,
292468,2022-12-06_01h33.24.849,vts_reward_expectancy_bt,2022.2.4,MacIntel,58.82352941,Safari,1728,1117,,,,,10,898,,,,,,,,,,,,,,,,,D,160,hexagon,1,0,,,,,,,,,,,,,,,,repeat,letter,lettRpt,d,0.228,Lo,,,,,,5,,,,,,,,low,17,0,17,0,1,,,,,,,,,
292468,2022-12-06_01h33.24.849,vts_reward_expectancy_bt,2022.2.4,MacIntel,58.82352941,Safari,1728,1117,,,,,0,898,,,,,,,,,,,,,,,,,S,125,circle,0,0,,,,,,,,,,,,,,,,repeat,letter,NA,d,0.894,Lo,,,,,,5,,,,,,,,low,18,0,18,0,1,,,,,,,,,
292468,2022-12-06_01h33.24.849,vts_reward_expectancy_bt,2022.2.4,MacIntel,58.82352941,Safari,1728,1117,,,,,0,898,,,,,,,,,,,,,,,,,Y,167,triangle,0,1,,,,,,,,,,,,,,,,repeat,letter,NA,d,0.874,Lo,,,,,,5,,,,,,,,low,19,0,19,0,1,,,,,,,,,
292468,2022-12-06_01h33.24.849,vts_reward_expectancy_bt,2022.2.4,MacIntel,58.82352941,Safari,1728,1117,,,,,0,898,,,,,,,,,,,,,,,,,W,146,star,-1,1,,,,,,,,,,,,,,,,switch,no_choice,NA,,,Lo,,,,,,5,,,,,,,,low,20,0,20,0,1,,,,,,,,,
292468,2022-12-06_01h33.24.849,vts_reward_expectancy_bt,2022.2.4,MacIntel,58.82352941,Safari,1728,1117,,,,,0,898,,,,,,,,,,,,,,,,,H,174,circle,1,0,,,,,,,,,,,,,,,,switch,letter,lettSwt,d,2.39,Hi,,,,,,5,,,,,,,,low,21,0,21,0,1,,,,,,,,,
292468,2022-12-06_01h33.24.849,vts_reward_expectancy_bt,2022.2.4,MacIntel,58.82352941,Safari,1728,1117,,,,,0,898,,,,,,,,,,,,,,,,,B,139,triangle,0,0,,,,,,,,,,,,,,,,repeat,letter,NA,f,0.367,Hi,,,,,,5,,,,,,,,low,22,0,22,0,1,,,,,,,,,
292468,2022-12-06_01h33.24.849,vts_reward_expectancy_bt,2022.2.4,MacIntel,58.82352941,Safari,1728,1117,,,,,1,899,,,,,,,,,,,,,,,,,F,181,hexagon,1,1,,,,,,,,,,,,,,,,repeat,letter,lettRpt,d,0.428,Lo,,,,,,5,,,,,,,,low,23,0,23,0,1,,,,,,,,,
292468,2022-12-06_01h33.24.849,vts_reward_expectancy_bt,2022.2.4,MacIntel,58.82352941,Safari,1728,1117,,,,,1,900,,,,,,,,,,,,,,,,,Y,174,triangle,1,0,,,,,,,,,,,,,,,,repeat,letter,lettRpt,f,0.377,Lo,,,,,,5,,,,,,,,low,24,0,24,0,1,,,,,,,,,
292468,2022-12-06_01h33.24.849,vts_reward_expectancy_bt,2022.2.4,MacIntel,58.82352941,Safari,1728,1117,,,,,10,910,,,,,,,,,,,,,,,,,H,125,circle,1,0,,,,,,,,,,,,,,,,repeat,letter,lettRpt,d,0.489,Hi,,,,,,5,,,,,,,,low,25,0,25,0,1,,,,,,,,,
292468,2022-12-06_01h33.24.849,vts_reward_expectancy_bt,2022.2.4,MacIntel,58.82352941,Safari,1728,1117,,,,,0,910,,,,,,,,,,,,,,,,,S,146,star,1,0,,,,,,,,,,,,,,,,repeat,letter,lettRpt,f,2.579,Hi,,,,,,5,,,,,,,,low,26,0,26,0,1,,,,,,,,,
292468,2022-12-06_01h33.24.849,vts_reward_expectancy_bt,2022.2.4,MacIntel,58.82352941,Safari,1728,1117,,,,,10,920,,,,,,,,,,,,,,,,,B,181,hexagon,1,0,,,,,,,,,,,,,,,,repeat,letter,lettRpt,d,0.533,Lo,,,,,,5,,,,,,,,low,27,0,27,0,1,,,,,,,,,
292468,2022-12-06_01h33.24.849,vts_reward_expectancy_bt,2022.2.4,MacIntel,58.82352941,Safari,1728,1117,,,,,0,920,,,,,,,,,,,,,,,,,W,139,hexagon,0,0,,,,,,,,,,,,,,,,repeat,letter,NA,d,1.046,Lo,,,,,,5,,,,,,,,low,28,0,28,0,1,,,,,,,,,
292468,2022-12-06_01h33.24.849,vts_reward_expectancy_bt,2022.2.4,MacIntel,58.82352941,Safari,1728,1117,,,,,0,920,,,,,,,,,,,,,,,,,D,160,star,1,1,,,,,,,,,,,,,,,,repeat,letter,lettRpt,d,2.086,Hi,,,,,,5,,,,,,,,low,29,0,29,0,1,,,,,,,,,
292468,2022-12-06_01h33.24.849,vts_reward_expectancy_bt,2022.2.4,MacIntel,58.82352941,Safari,1728,1117,,,,,0,920,,,,,,,,,,,,,,,,,F,167,triangle,0,0,,,,,,,,,,,,,,,,repeat,letter,NA,f,1.533,Hi,,,,,,5,,,,,,,,low,30,0,30,0,1,,,,,,,,,
292468,2022-12-06_01h33.24.849,vts_reward_expectancy_bt,2022.2.4,MacIntel,58.82352941,Safari,1728,1117,,,,,0,920,,,,,,,,,,,,,,,,,U,132,circle,0,1,,,,,,,,,,,,,,,,repeat,letter,NA,d,0.783,Hi,,,,,,5,,,,,,,,low,31,0,31,0,1,,,,,,,,,
292468,2022-12-06_01h33.24.849,vts_reward_expectancy_bt,2022.2.4,MacIntel,58.82352941,Safari,1728,1117,,,,,1,921,,,,,,,,,,,,,,,,,S,167,triangle,1,1,,,,,,,,,,,,,,,,repeat,letter,lettRpt,f,0.677,Lo,,,,,,6,,,,,,space,1.235,low,0,0,0,0,1,,,,,,,,,
292468,2022-12-06_01h33.24.849,vts_reward_expectancy_bt,2022.2.4,MacIntel,58.82352941,Safari,1728,1117,,,,,0,921,,,,,,,,,,,,,,,,,D,160,circle,1,0,,,,,,,,,,,,,,,,repeat,letter,lettRpt,d,2.74,Hi,,,,,,6,,,,,,,,low,1,0,1,0,1,,,,,,,,,
292468,2022-12-06_01h33.24.849,vts_reward_expectancy_bt,2022.2.4,MacIntel,58.82352941,Safari,1728,1117,,,,,0,921,,,,,,,,,,,,,,,,,F,181,star,0,0,,,,,,,,,,,,,,,,switch,number,NA,j,0.714,Hi,,,,,,6,,,,,,,,low,2,0,2,0,1,,,,,,,,,
292468,2022-12-06_01h33.24.849,vts_reward_expectancy_bt,2022.2.4,MacIntel,58.82352941,Safari,1728,1117,,,,,10,931,,,,,,,,,,,,,,,,,U,132,hexagon,1,1,,,,,,,,,,,,,,,,repeat,number,numRpt,j,0.847,Lo,,,,,,6,,,,,,,,low,3,0,3,0,1,,,,,,,,,
292468,2022-12-06_01h33.24.849,vts_reward_expectancy_bt,2022.2.4,MacIntel,58.82352941,Safari,1728,1117,,,,,10,941,,,,,,,,,,,,,,,,,B,174,triangle,1,0,,,,,,,,,,,,,,,,repeat,number,numRpt,k,0.553,Lo,,,,,,6,,,,,,,,low,4,0,4,0,1,,,,,,,,,
292468,2022-12-06_01h33.24.849,vts_reward_expectancy_bt,2022.2.4,MacIntel,58.82352941,Safari,1728,1117,,,,,0,941,,,,,,,,,,,,,,,,,Y,146,circle,0,0,,,,,,,,,,,,,,,,repeat,number,NA,k,1.182,Lo,,,,,,6,,,,,,,,low,5,0,5,0,1,,,,,,,,,
292468,2022-12-06_01h33.24.849,vts_reward_expectancy_bt,2022.2.4,MacIntel,58.82352941,Safari,1728,1117,,,,,0,941,,,,,,,,,,,,,,,,,H,139,star,0,1,,,,,,,,,,,,,,,,repeat,number,NA,k,0.418,Lo,,,,,,6,,,,,,,,low,6,0,6,0,1,,,,,,,,,
292468,2022-12-06_01h33.24.849,vts_reward_expectancy_bt,2022.2.4,MacIntel,58.82352941,Safari,1728,1117,,,,,0,941,,,,,,,,,,,,,,,,,W,125,hexagon,0,1,,,,,,,,,,,,,,,,repeat,number,NA,k,0.57,Lo,,,,,,6,,,,,,,,low,7,0,7,0,1,,,,,,,,,
292468,2022-12-06_01h33.24.849,vts_reward_expectancy_bt,2022.2.4,MacIntel,58.82352941,Safari,1728,1117,,,,,10,951,,,,,,,,,,,,,,,,,S,167,star,1,1,,,,,,,,,,,,,,,,repeat,number,numRpt,k,0.752,Hi,,,,,,6,,,,,,,,low,8,0,8,0,1,,,,,,,,,
292468,2022-12-06_01h33.24.849,vts_reward_expectancy_bt,2022.2.4,MacIntel,58.82352941,Safari,1728,1117,,,,,0,951,,,,,,,,,,,,,,,,,D,160,circle,0,0,,,,,,,,,,,,,,,,repeat,number,NA,j,0.853,Hi,,,,,,6,,,,,,,,low,9,0,9,0,1,,,,,,,,,
292468,2022-12-06_01h33.24.849,vts_reward_expectancy_bt,2022.2.4,MacIntel,58.82352941,Safari,1728,1117,,,,,10,961,,,,,,,,,,,,,,,,,F,181,hexagon,1,1,,,,,,,,,,,,,,,,repeat,number,numRpt,k,1.704,Lo,,,,,,6,,,,,,,,low,10,0,10,0,1,,,,,,,,,
292468,2022-12-06_01h33.24.849,vts_reward_expectancy_bt,2022.2.4,MacIntel,58.82352941,Safari,1728,1117,,,,,0,961,,,,,,,,,,,,,,,,,U,132,triangle,0,0,,,,,,,,,,,,,,,,repeat,number,NA,k,0.592,Lo,,,,,,6,,,,,,,,low,11,0,11,0,1,,,,,,,,,
292468,2022-12-06_01h33.24.849,vts_reward_expectancy_bt,2022.2.4,MacIntel,58.82352941,Safari,1728,1117,,,,,1,962,,,,,,,,,,,,,,,,,B,174,circle,1,1,,,,,,,,,,,,,,,,repeat,number,numRpt,k,0.748,Hi,,,,,,6,,,,,,,,low,12,0,12,0,1,,,,,,,,,
