participant,date,expName,psychopyVersion,OS,frameRate,browser,xResolution,yResolution,key_resp.keys,key_resp.rt,training_resp.keys,training_resp.rt,points_trial,points_cumul,trainBlock,training.thisRepN,training.thisTrialN,training.thisN,training.thisIndex,training.ran,LTriangleOpac,LCircleOpac,LHexagonOpac,LStarOpac,RTriangleOpac,RCircleOpac,RHexagonOpac,RStarOpac,LShape_ID,RShape_ID,curr_topStim,curr_bottStim,curr_shape,acc,E1,target_resp_prac1.keys,pracBlock,task1_prac_trials.thisRepN,task1_prac_trials.thisTrialN,task1_prac_trials.thisN,task1_prac_trials.thisIndex,task1_prac_trials.ran,target_resp_prac1.rt,target_resp_prac2.keys,target_resp_prac2.rt,task2_praac_trials.thisRepN,task2_praac_trials.thisTrialN,task2_praac_trials.thisN,task2_praac_trials.thisIndex,task2_praac_trials.ran,alt,task,condition,target_resp.keys,target_resp.rt,rewCond,vts_practice_trials.thisRepN,vts_practice_trials.thisTrialN,vts_practice_trials.thisN,vts_practice_trials.thisIndex,vts_practice_trials.ran,blockNum,trials_norew.thisRepN,trials_norew.thisTrialN,trials_norew.thisN,trials_norew.thisIndex,trials_norew.ran,key_resp_2.keys,key_resp_2.rt,rewExpectancy,trials_rew.thisRepN,trials_rew.thisTrialN,trials_rew.thisN,trials_rew.thisIndex,trials_rew.ran,Q1,Q2,Q2_text,Q3,Q4,Q5_text,Q5,xRes,yRes
292423,2022-11-26_24h18.58.709,vts_reward_expectancy_bt,2022.2.4,MacIntel,59.99880002,Chrome,1440,900,,,,,,,,,,,,,,,,,,,,,,,,,,,,,,,,,,,,,,,,,,,,,,,,,,,,,,,,,,,,,,,,,,,,,,,,,,,,
292423,2022-11-26_24h18.58.709,vts_reward_expectancy_bt,2022.2.4,MacIntel,59.99880002,Chrome,1440,900,space,21.286,,,,,,,,,,,,,,,,,,,,,,,,,,,,,,,,,,,,,,,,,,,,,,,,,,,,,,,,,,,,,,,,,,,,,,,,,,
292423,2022-11-26_24h18.58.709,vts_reward_expectancy_bt,2022.2.4,MacIntel,59.99880002,Chrome,1440,900,,,,,,,,,,,,,,,,,,,,,,,,,,,,,,,,,,,,,,,,,,,,,,,,,,,,,,,,,,,,,,,,,,,,,,,,,,,,
292423,2022-11-26_24h18.58.709,vts_reward_expectancy_bt,2022.2.4,MacIntel,59.99880002,Chrome,1440,900,,,a,2.8875,1,1,0,0,0,0,6,1,0,0,1,0,1,0,0,0,hexagon,triangle,,,,,,,,,,,,,,,,,,,,,,,,,,,,,,,,,,,,,,,,,,,,,,,,,,,,,,
292423,2022-11-26_24h18.58.709,vts_reward_expectancy_bt,2022.2.4,MacIntel,59.99880002,Chrome,1440,900,,,a,1.7114,10,11,0,0,1,1,3,1,0,1,0,0,1,0,0,0,circle,triangle,,,,,,,,,,,,,,,,,,,,,,,,,,,,,,,,,,,,,,,,,,,,,,,,,,,,,,
292423,2022-11-26_24h18.58.709,vts_reward_expectancy_bt,2022.2.4,MacIntel,59.99880002,Chrome,1440,900,,,a,1.4131,10,21,0,0,2,2,1,1,1,0,0,0,0,0,1,0,triangle,hexagon,,,,,,,,,,,,,,,,,,,,,,,,,,,,,,,,,,,,,,,,,,,,,,,,,,,,,,
292423,2022-11-26_24h18.58.709,vts_reward_expectancy_bt,2022.2.4,MacIntel,59.99880002,Chrome,1440,900,,,a,0.9611,1,22,0,0,3,3,2,1,1,0,0,0,0,0,0,1,triangle,star,,,,,,,,,,,,,,,,,,,,,,,,,,,,,,,,,,,,,,,,,,,,,,,,,,,,,,
292423,2022-11-26_24h18.58.709,vts_reward_expectancy_bt,2022.2.4,MacIntel,59.99880002,Chrome,1440,900,,,l,1.1837,10,32,0,0,4,4,7,1,0,0,1,0,0,1,0,0,hexagon,circle,,,,,,,,,,,,,,,,,,,,,,,,,,,,,,,,,,,,,,,,,,,,,,,,,,,,,,
292423,2022-11-26_24h18.58.709,vts_reward_expectancy_bt,2022.2.4,MacIntel,59.99880002,Chrome,1440,900,,,l,1.2666,10,42,0,0,5,5,8,1,0,0,1,0,0,0,0,1,hexagon,star,,,,,,,,,,,,,,,,,,,,,,,,,,,,,,,,,,,,,,,,,,,,,,,,,,,,,,
292423,2022-11-26_24h18.58.709,vts_reward_expectancy_bt,2022.2.4,MacIntel,59.99880002,Chrome,1440,900,,,a,1.0345,10,52,0,0,6,6,4,1,0,1,0,0,0,0,1,0,circle,hexagon,,,,,,,,,,,,,,,,,,,,,,,,,,,,,,,,,,,,,,,,,,,,,,,,,,,,,,
292423,2022-11-26_24h18.58.709,vts_reward_expectancy_bt,2022.2.4,MacIntel,59.99880002,Chrome,1440,900,,,l,1.482,10,62,0,0,7,7,10,1,0,0,0,1,0,1,0,0,star ,circle,,,,,,,,,,,,,,,,,,,,,,,,,,,,,,,,,,,,,,,,,,,,,,,,,,,,,,
292423,2022-11-26_24h18.58.709,vts_reward_expectancy_bt,2022.2.4,MacIntel,59.99880002,Chrome,1440,900,,,l,1.1664,10,72,0,0,8,8,0,1,1,0,0,0,0,1,0,0,triangle,circle,,,,,,,,,,,,,,,,,,,,,,,,,,,,,,,,,,,,,,,,,,,,,,,,,,,,,,
292423,2022-11-26_24h18.58.709,vts_reward_expectancy_bt,2022.2.4,MacIntel,59.99880002,Chrome,1440,900,,,a,1.4857,10,82,0,0,9,9,9,1,0,0,0,1,1,0,0,0,star,triangle,,,,,,,,,,,,,,,,,,,,,,,,,,,,,,,,,,,,,,,,,,,,,,,,,,,,,,
292423,2022-11-26_24h18.58.709,vts_reward_expectancy_bt,2022.2.4,MacIntel,59.99880002,Chrome,1440,900,,,l,0.7807,1,83,0,0,10,10,5,1,0,1,0,0,0,0,0,1,circle,star,,,,,,,,,,,,,,,,,,,,,,,,,,,,,,,,,,,,,,,,,,,,,,,,,,,,,,
292423,2022-11-26_24h18.58.709,vts_reward_expectancy_bt,2022.2.4,MacIntel,59.99880002,Chrome,1440,900,,,a,1.3026,1,84,0,0,11,11,11,1,0,0,0,1,0,0,1,0,star,hexagon,,,,,,,,,,,,,,,,,,,,,,,,,,,,,,,,,,,,,,,,,,,,,,,,,,,,,,
292423,2022-11-26_24h18.58.709,vts_reward_expectancy_bt,2022.2.4,MacIntel,59.99880002,Chrome,1440,900,,,a,0.8782,10,94,0,1,0,12,4,1,0,1,0,0,0,0,1,0,circle,hexagon,,,,,,,,,,,,,,,,,,,,,,,,,,,,,,,,,,,,,,,,,,,,,,,,,,,,,,
292423,2022-11-26_24h18.58.709,vts_reward_expectancy_bt,2022.2.4,MacIntel,59.99880002,Chrome,1440,900,,,l,0.769,10,104,0,1,1,13,9,1,0,0,0,1,1,0,0,0,star,triangle,,,,,,,,,,,,,,,,,,,,,,,,,,,,,,,,,,,,,,,,,,,,,,,,,,,,,,
292423,2022-11-26_24h18.58.709,vts_reward_expectancy_bt,2022.2.4,MacIntel,59.99880002,Chrome,1440,900,,,l,0.798,1,105,0,1,2,14,0,1,1,0,0,0,0,1,0,0,triangle,circle,,,,,,,,,,,,,,,,,,,,,,,,,,,,,,,,,,,,,,,,,,,,,,,,,,,,,,
292423,2022-11-26_24h18.58.709,vts_reward_expectancy_bt,2022.2.4,MacIntel,59.99880002,Chrome,1440,900,,,l,1.0994,1,106,0,1,3,15,10,1,0,0,0,1,0,1,0,0,star ,circle,,,,,,,,,,,,,,,,,,,,,,,,,,,,,,,,,,,,,,,,,,,,,,,,,,,,,,
292423,2022-11-26_24h18.58.709,vts_reward_expectancy_bt,2022.2.4,MacIntel,59.99880002,Chrome,1440,900,,,l,1.2491,10,116,0,1,4,16,8,1,0,0,1,0,0,0,0,1,hexagon,star,,,,,,,,,,,,,,,,,,,,,,,,,,,,,,,,,,,,,,,,,,,,,,,,,,,,,,
292423,2022-11-26_24h18.58.709,vts_reward_expectancy_bt,2022.2.4,MacIntel,59.99880002,Chrome,1440,900,,,l,1.6044,1,117,0,1,5,17,3,1,0,1,0,0,1,0,0,0,circle,triangle,,,,,,,,,,,,,,,,,,,,,,,,,,,,,,,,,,,,,,,,,,,,,,,,,,,,,,
292423,2022-11-26_24h18.58.709,vts_reward_expectancy_bt,2022.2.4,MacIntel,59.99880002,Chrome,1440,900,,,l,1.115,10,127,0,1,6,18,7,1,0,0,1,0,0,1,0,0,hexagon,circle,,,,,,,,,,,,,,,,,,,,,,,,,,,,,,,,,,,,,,,,,,,,,,,,,,,,,,
292423,2022-11-26_24h18.58.709,vts_reward_expectancy_bt,2022.2.4,MacIntel,59.99880002,Chrome,1440,900,,,a,0.5254,10,137,0,1,7,19,2,1,1,0,0,0,0,0,0,1,triangle,star,,,,,,,,,,,,,,,,,,,,,,,,,,,,,,,,,,,,,,,,,,,,,,,,,,,,,,
292423,2022-11-26_24h18.58.709,vts_reward_expectancy_bt,2022.2.4,MacIntel,59.99880002,Chrome,1440,900,,,a,1.2165,10,147,0,1,8,20,1,1,1,0,0,0,0,0,1,0,triangle,hexagon,,,,,,,,,,,,,,,,,,,,,,,,,,,,,,,,,,,,,,,,,,,,,,,,,,,,,,
292423,2022-11-26_24h18.58.709,vts_reward_expectancy_bt,2022.2.4,MacIntel,59.99880002,Chrome,1440,900,,,a,1.2009,1,148,0,1,9,21,11,1,0,0,0,1,0,0,1,0,star,hexagon,,,,,,,,,,,,,,,,,,,,,,,,,,,,,,,,,,,,,,,,,,,,,,,,,,,,,,
292423,2022-11-26_24h18.58.709,vts_reward_expectancy_bt,2022.2.4,MacIntel,59.99880002,Chrome,1440,900,,,l,1.1799,10,158,0,1,10,22,6,1,0,0,1,0,1,0,0,0,hexagon,triangle,,,,,,,,,,,,,,,,,,,,,,,,,,,,,,,,,,,,,,,,,,,,,,,,,,,,,,
292423,2022-11-26_24h18.58.709,vts_reward_expectancy_bt,2022.2.4,MacIntel,59.99880002,Chrome,1440,900,,,a,1.1271,10,168,0,1,11,23,5,1,0,1,0,0,0,0,0,1,circle,star,,,,,,,,,,,,,,,,,,,,,,,,,,,,,,,,,,,,,,,,,,,,,,,,,,,,,,
292423,2022-11-26_24h18.58.709,vts_reward_expectancy_bt,2022.2.4,MacIntel,59.99880002,Chrome,1440,900,,,a,1.7886,10,178,0,2,0,24,4,1,0,1,0,0,0,0,1,0,circle,hexagon,,,,,,,,,,,,,,,,,,,,,,,,,,,,,,,,,,,,,,,,,,,,,,,,,,,,,,
292423,2022-11-26_24h18.58.709,vts_reward_expectancy_bt,2022.2.4,MacIntel,59.99880002,Chrome,1440,900,,,a,1.3101,10,188,0,2,1,25,11,1,0,0,0,1,0,0,1,0,star,hexagon,,,,,,,,,,,,,,,,,,,,,,,,,,,,,,,,,,,,,,,,,,,,,,,,,,,,,,
292423,2022-11-26_24h18.58.709,vts_reward_expectancy_bt,2022.2.4,MacIntel,59.99880002,Chrome,1440,900,,,l,1.4749,10,198,0,2,2,26,10,1,0,0,0,1,0,1,0,0,star ,circle,,,,,,,,,,,,,,,,,,,,,,,,,,,,,,,,,,,,,,,,,,,,,,,,,,,,,,
292423,2022-11-26_24h18.58.709,vts_reward_expectancy_bt,2022.2.4,MacIntel,59.99880002,Chrome,1440,900,,,a,1.1931,10,208,0,2,3,27,1,1,1,0,0,0,0,0,1,0,triangle,hexagon,,,,,,,,,,,,,,,,,,,,,,,,,,,,,,,,,,,,,,,,,,,,,,,,,,,,,,
292423,2022-11-26_24h18.58.709,vts_reward_expectancy_bt,2022.2.4,MacIntel,59.99880002,Chrome,1440,900,,,l,1.2847,10,218,0,2,4,28,9,1,0,0,0,1,1,0,0,0,star,triangle,,,,,,,,,,,,,,,,,,,,,,,,,,,,,,,,,,,,,,,,,,,,,,,,,,,,,,
292423,2022-11-26_24h18.58.709,vts_reward_expectancy_bt,2022.2.4,MacIntel,59.99880002,Chrome,1440,900,,,l,1.159,10,228,0,2,5,29,7,1,0,0,1,0,0,1,0,0,hexagon,circle,,,,,,,,,,,,,,,,,,,,,,,,,,,,,,,,,,,,,,,,,,,,,,,,,,,,,,
292423,2022-11-26_24h18.58.709,vts_reward_expectancy_bt,2022.2.4,MacIntel,59.99880002,Chrome,1440,900,,,l,0.8425,10,238,0,2,6,30,6,1,0,0,1,0,1,0,0,0,hexagon,triangle,,,,,,,,,,,,,,,,,,,,,,,,,,,,,,,,,,,,,,,,,,,,,,,,,,,,,,
292423,2022-11-26_24h18.58.709,vts_reward_expectancy_bt,2022.2.4,MacIntel,59.99880002,Chrome,1440,900,,,l,1.2343,10,248,0,2,7,31,8,1,0,0,1,0,0,0,0,1,hexagon,star,,,,,,,,,,,,,,,,,,,,,,,,,,,,,,,,,,,,,,,,,,,,,,,,,,,,,,
292423,2022-11-26_24h18.58.709,vts_reward_expectancy_bt,2022.2.4,MacIntel,59.99880002,Chrome,1440,900,,,a,0.8427,1,249,0,2,8,32,2,1,1,0,0,0,0,0,0,1,triangle,star,,,,,,,,,,,,,,,,,,,,,,,,,,,,,,,,,,,,,,,,,,,,,,,,,,,,,,
292423,2022-11-26_24h18.58.709,vts_reward_expectancy_bt,2022.2.4,MacIntel,59.99880002,Chrome,1440,900,,,l,0.6837,10,259,0,2,9,33,0,1,1,0,0,0,0,1,0,0,triangle,circle,,,,,,,,,,,,,,,,,,,,,,,,,,,,,,,,,,,,,,,,,,,,,,,,,,,,,,
292423,2022-11-26_24h18.58.709,vts_reward_expectancy_bt,2022.2.4,MacIntel,59.99880002,Chrome,1440,900,,,a,0.9521,10,269,0,2,10,34,5,1,0,1,0,0,0,0,0,1,circle,star,,,,,,,,,,,,,,,,,,,,,,,,,,,,,,,,,,,,,,,,,,,,,,,,,,,,,,
292423,2022-11-26_24h18.58.709,vts_reward_expectancy_bt,2022.2.4,MacIntel,59.99880002,Chrome,1440,900,,,a,1.245,10,279,0,2,11,35,3,1,0,1,0,0,1,0,0,0,circle,triangle,,,,,,,,,,,,,,,,,,,,,,,,,,,,,,,,,,,,,,,,,,,,,,,,,,,,,,
292423,2022-11-26_24h18.58.709,vts_reward_expectancy_bt,2022.2.4,MacIntel,59.99880002,Chrome,1440,900,,,l,1.074,10,289,1,0,0,0,6,1,0,0,1,0,1,0,0,0,hexagon,triangle,,,,,,,,,,,,,,,,,,,,,,,,,,,,,,,,,,,,,,,,,,,,,,,,,,,,,,
292423,2022-11-26_24h18.58.709,vts_reward_expectancy_bt,2022.2.4,MacIntel,59.99880002,Chrome,1440,900,,,a,0.9836,10,299,1,0,1,1,5,1,0,1,0,0,0,0,0,1,circle,star,,,,,,,,,,,,,,,,,,,,,,,,,,,,,,,,,,,,,,,,,,,,,,,,,,,,,,
292423,2022-11-26_24h18.58.709,vts_reward_expectancy_bt,2022.2.4,MacIntel,59.99880002,Chrome,1440,900,,,l,2.0471,10,309,1,0,2,2,3,1,0,1,0,0,1,0,0,0,circle,triangle,,,,,,,,,,,,,,,,,,,,,,,,,,,,,,,,,,,,,,,,,,,,,,,,,,,,,,
292423,2022-11-26_24h18.58.709,vts_reward_expectancy_bt,2022.2.4,MacIntel,59.99880002,Chrome,1440,900,,,a,0.9305,10,319,1,0,3,3,1,1,1,0,0,0,0,0,1,0,triangle,hexagon,,,,,,,,,,,,,,,,,,,,,,,,,,,,,,,,,,,,,,,,,,,,,,,,,,,,,,
292423,2022-11-26_24h18.58.709,vts_reward_expectancy_bt,2022.2.4,MacIntel,59.99880002,Chrome,1440,900,,,a,1.0665,10,329,1,0,4,4,4,1,0,1,0,0,0,0,1,0,circle,hexagon,,,,,,,,,,,,,,,,,,,,,,,,,,,,,,,,,,,,,,,,,,,,,,,,,,,,,,
292423,2022-11-26_24h18.58.709,vts_reward_expectancy_bt,2022.2.4,MacIntel,59.99880002,Chrome,1440,900,,,l,0.7008,10,339,1,0,5,5,7,1,0,0,1,0,0,1,0,0,hexagon,circle,,,,,,,,,,,,,,,,,,,,,,,,,,,,,,,,,,,,,,,,,,,,,,,,,,,,,,
292423,2022-11-26_24h18.58.709,vts_reward_expectancy_bt,2022.2.4,MacIntel,59.99880002,Chrome,1440,900,,,a,1.6874,1,340,1,0,6,6,11,1,0,0,0,1,0,0,1,0,star,hexagon,,,,,,,,,,,,,,,,,,,,,,,,,,,,,,,,,,,,,,,,,,,,,,,,,,,,,,
292423,2022-11-26_24h18.58.709,vts_reward_expectancy_bt,2022.2.4,MacIntel,59.99880002,Chrome,1440,900,,,a,0.69,1,341,1,0,7,7,8,1,0,0,1,0,0,0,0,1,hexagon,star,,,,,,,,,,,,,,,,,,,,,,,,,,,,,,,,,,,,,,,,,,,,,,,,,,,,,,
292423,2022-11-26_24h18.58.709,vts_reward_expectancy_bt,2022.2.4,MacIntel,59.99880002,Chrome,1440,900,,,l,1.4686,10,351,1,0,8,8,10,1,0,0,0,1,0,1,0,0,star ,circle,,,,,,,,,,,,,,,,,,,,,,,,,,,,,,,,,,,,,,,,,,,,,,,,,,,,,,
292423,2022-11-26_24h18.58.709,vts_reward_expectancy_bt,2022.2.4,MacIntel,59.99880002,Chrome,1440,900,,,l,1.075,1,352,1,0,9,9,9,1,0,0,0,1,1,0,0,0,star,triangle,,,,,,,,,,,,,,,,,,,,,,,,,,,,,,,,,,,,,,,,,,,,,,,,,,,,,,
292423,2022-11-26_24h18.58.709,vts_reward_expectancy_bt,2022.2.4,MacIntel,59.99880002,Chrome,1440,900,,,l,0.954,1,353,1,0,10,10,2,1,1,0,0,0,0,0,0,1,triangle,star,,,,,,,,,,,,,,,,,,,,,,,,,,,,,,,,,,,,,,,,,,,,,,,,,,,,,,
292423,2022-11-26_24h18.58.709,vts_reward_expectancy_bt,2022.2.4,MacIntel,59.99880002,Chrome,1440,900,,,a,2.5763,10,363,1,0,11,11,0,1,1,0,0,0,0,1,0,0,triangle,circle,,,,,,,,,,,,,,,,,,,,,,,,,,,,,,,,,,,,,,,,,,,,,,,,,,,,,,
292423,2022-11-26_24h18.58.709,vts_reward_expectancy_bt,2022.2.4,MacIntel,59.99880002,Chrome,1440,900,,,a,1.3959,1,364,1,1,0,12,6,1,0,0,1,0,1,0,0,0,hexagon,triangle,,,,,,,,,,,,,,,,,,,,,,,,,,,,,,,,,,,,,,,,,,,,,,,,,,,,,,
292423,2022-11-26_24h18.58.709,vts_reward_expectancy_bt,2022.2.4,MacIntel,59.99880002,Chrome,1440,900,,,l,0.7778,10,374,1,1,1,13,10,1,0,0,0,1,0,1,0,0,star ,circle,,,,,,,,,,,,,,,,,,,,,,,,,,,,,,,,,,,,,,,,,,,,,,,,,,,,,,
292423,2022-11-26_24h18.58.709,vts_reward_expectancy_bt,2022.2.4,MacIntel,59.99880002,Chrome,1440,900,,,l,1.302,1,375,1,1,2,14,5,1,0,1,0,0,0,0,0,1,circle,star,,,,,,,,,,,,,,,,,,,,,,,,,,,,,,,,,,,,,,,,,,,,,,,,,,,,,,
292423,2022-11-26_24h18.58.709,vts_reward_expectancy_bt,2022.2.4,MacIntel,59.99880002,Chrome,1440,900,,,l,0.8749,10,385,1,1,3,15,9,1,0,0,0,1,1,0,0,0,star,triangle,,,,,,,,,,,,,,,,,,,,,,,,,,,,,,,,,,,,,,,,,,,,,,,,,,,,,,
292423,2022-11-26_24h18.58.709,vts_reward_expectancy_bt,2022.2.4,MacIntel,59.99880002,Chrome,1440,900,,,a,0.6341,10,395,1,1,4,16,2,1,1,0,0,0,0,0,0,1,triangle,star,,,,,,,,,,,,,,,,,,,,,,,,,,,,,,,,,,,,,,,,,,,,,,,,,,,,,,
292423,2022-11-26_24h18.58.709,vts_reward_expectancy_bt,2022.2.4,MacIntel,59.99880002,Chrome,1440,900,,,a,0.9925,10,405,1,1,5,17,4,1,0,1,0,0,0,0,1,0,circle,hexagon,,,,,,,,,,,,,,,,,,,,,,,,,,,,,,,,,,,,,,,,,,,,,,,,,,,,,,
292423,2022-11-26_24h18.58.709,vts_reward_expectancy_bt,2022.2.4,MacIntel,59.99880002,Chrome,1440,900,,,l,1.6153,10,415,1,1,6,18,11,1,0,0,0,1,0,0,1,0,star,hexagon,,,,,,,,,,,,,,,,,,,,,,,,,,,,,,,,,,,,,,,,,,,,,,,,,,,,,,
292423,2022-11-26_24h18.58.709,vts_reward_expectancy_bt,2022.2.4,MacIntel,59.99880002,Chrome,1440,900,,,a,1.3005,10,425,1,1,7,19,3,1,0,1,0,0,1,0,0,0,circle,triangle,,,,,,,,,,,,,,,,,,,,,,,,,,,,,,,,,,,,,,,,,,,,,,,,,,,,,,
292423,2022-11-26_24h18.58.709,vts_reward_expectancy_bt,2022.2.4,MacIntel,59.99880002,Chrome,1440,900,,,l,1.1998,10,435,1,1,8,20,7,1,0,0,1,0,0,1,0,0,hexagon,circle,,,,,,,,,,,,,,,,,,,,,,,,,,,,,,,,,,,,,,,,,,,,,,,,,,,,,,
292423,2022-11-26_24h18.58.709,vts_reward_expectancy_bt,2022.2.4,MacIntel,59.99880002,Chrome,1440,900,,,l,1.1841,10,445,1,1,9,21,8,1,0,0,1,0,0,0,0,1,hexagon,star,,,,,,,,,,,,,,,,,,,,,,,,,,,,,,,,,,,,,,,,,,,,,,,,,,,,,,
292423,2022-11-26_24h18.58.709,vts_reward_expectancy_bt,2022.2.4,MacIntel,59.99880002,Chrome,1440,900,,,a,1.3755,10,455,1,1,10,22,1,1,1,0,0,0,0,0,1,0,triangle,hexagon,,,,,,,,,,,,,,,,,,,,,,,,,,,,,,,,,,,,,,,,,,,,,,,,,,,,,,
292423,2022-11-26_24h18.58.709,vts_reward_expectancy_bt,2022.2.4,MacIntel,59.99880002,Chrome,1440,900,,,l,0.9017,1,456,1,1,11,23,0,1,1,0,0,0,0,1,0,0,triangle,circle,,,,,,,,,,,,,,,,,,,,,,,,,,,,,,,,,,,,,,,,,,,,,,,,,,,,,,
292423,2022-11-26_24h18.58.709,vts_reward_expectancy_bt,2022.2.4,MacIntel,59.99880002,Chrome,1440,900,,,l,1.6309,1,457,1,2,0,24,11,1,0,0,0,1,0,0,1,0,star,hexagon,,,,,,,,,,,,,,,,,,,,,,,,,,,,,,,,,,,,,,,,,,,,,,,,,,,,,,
292423,2022-11-26_24h18.58.709,vts_reward_expectancy_bt,2022.2.4,MacIntel,59.99880002,Chrome,1440,900,,,l,1.0772,1,458,1,2,1,25,6,1,0,0,1,0,1,0,0,0,hexagon,triangle,,,,,,,,,,,,,,,,,,,,,,,,,,,,,,,,,,,,,,,,,,,,,,,,,,,,,,
292423,2022-11-26_24h18.58.709,vts_reward_expectancy_bt,2022.2.4,MacIntel,59.99880002,Chrome,1440,900,,,a,0.8474,10,468,1,2,2,26,9,1,0,0,0,1,1,0,0,0,star,triangle,,,,,,,,,,,,,,,,,,,,,,,,,,,,,,,,,,,,,,,,,,,,,,,,,,,,,,
292423,2022-11-26_24h18.58.709,vts_reward_expectancy_bt,2022.2.4,MacIntel,59.99880002,Chrome,1440,900,,,l,1.1771,1,469,1,2,3,27,8,1,0,0,1,0,0,0,0,1,hexagon,star,,,,,,,,,,,,,,,,,,,,,,,,,,,,,,,,,,,,,,,,,,,,,,,,,,,,,,
292423,2022-11-26_24h18.58.709,vts_reward_expectancy_bt,2022.2.4,MacIntel,59.99880002,Chrome,1440,900,,,l,1.3175,10,479,1,2,4,28,3,1,0,1,0,0,1,0,0,0,circle,triangle,,,,,,,,,,,,,,,,,,,,,,,,,,,,,,,,,,,,,,,,,,,,,,,,,,,,,,
292423,2022-11-26_24h18.58.709,vts_reward_expectancy_bt,2022.2.4,MacIntel,59.99880002,Chrome,1440,900,,,a,0.9621,10,489,1,2,5,29,4,1,0,1,0,0,0,0,1,0,circle,hexagon,,,,,,,,,,,,,,,,,,,,,,,,,,,,,,,,,,,,,,,,,,,,,,,,,,,,,,
292423,2022-11-26_24h18.58.709,vts_reward_expectancy_bt,2022.2.4,MacIntel,59.99880002,Chrome,1440,900,,,l,1.1761,10,499,1,2,6,30,7,1,0,0,1,0,0,1,0,0,hexagon,circle,,,,,,,,,,,,,,,,,,,,,,,,,,,,,,,,,,,,,,,,,,,,,,,,,,,,,,
292423,2022-11-26_24h18.58.709,vts_reward_expectancy_bt,2022.2.4,MacIntel,59.99880002,Chrome,1440,900,,,a,1.0824,10,509,1,2,7,31,5,1,0,1,0,0,0,0,0,1,circle,star,,,,,,,,,,,,,,,,,,,,,,,,,,,,,,,,,,,,,,,,,,,,,,,,,,,,,,
292423,2022-11-26_24h18.58.709,vts_reward_expectancy_bt,2022.2.4,MacIntel,59.99880002,Chrome,1440,900,,,l,0.6955,10,519,1,2,8,32,0,1,1,0,0,0,0,1,0,0,triangle,circle,,,,,,,,,,,,,,,,,,,,,,,,,,,,,,,,,,,,,,,,,,,,,,,,,,,,,,
292423,2022-11-26_24h18.58.709,vts_reward_expectancy_bt,2022.2.4,MacIntel,59.99880002,Chrome,1440,900,,,a,0.9155,10,529,1,2,9,33,2,1,1,0,0,0,0,0,0,1,triangle,star,,,,,,,,,,,,,,,,,,,,,,,,,,,,,,,,,,,,,,,,,,,,,,,,,,,,,,
292423,2022-11-26_24h18.58.709,vts_reward_expectancy_bt,2022.2.4,MacIntel,59.99880002,Chrome,1440,900,,,a,0.9565,10,539,1,2,10,34,1,1,1,0,0,0,0,0,1,0,triangle,hexagon,,,,,,,,,,,,,,,,,,,,,,,,,,,,,,,,,,,,,,,,,,,,,,,,,,,,,,
292423,2022-11-26_24h18.58.709,vts_reward_expectancy_bt,2022.2.4,MacIntel,59.99880002,Chrome,1440,900,,,l,0.8379,10,549,1,2,11,35,10,1,0,0,0,1,0,1,0,0,star ,circle,,,,,,,,,,,,,,,,,,,,,,,,,,,,,,,,,,,,,,,,,,,,,,,,,,,,,,
292423,2022-11-26_24h18.58.709,vts_reward_expectancy_bt,2022.2.4,MacIntel,59.99880002,Chrome,1440,900,,,l,1.2695,10,559,2,0,0,0,9,1,0,0,0,1,1,0,0,0,star,triangle,,,,,,,,,,,,,,,,,,,,,,,,,,,,,,,,,,,,,,,,,,,,,,,,,,,,,,
292423,2022-11-26_24h18.58.709,vts_reward_expectancy_bt,2022.2.4,MacIntel,59.99880002,Chrome,1440,900,,,l,0.6167,10,569,2,0,1,1,10,1,0,0,0,1,0,1,0,0,star ,circle,,,,,,,,,,,,,,,,,,,,,,,,,,,,,,,,,,,,,,,,,,,,,,,,,,,,,,
292423,2022-11-26_24h18.58.709,vts_reward_expectancy_bt,2022.2.4,MacIntel,59.99880002,Chrome,1440,900,,,l,0.8823,10,579,2,0,2,2,7,1,0,0,1,0,0,1,0,0,hexagon,circle,,,,,,,,,,,,,,,,,,,,,,,,,,,,,,,,,,,,,,,,,,,,,,,,,,,,,,
292423,2022-11-26_24h18.58.709,vts_reward_expectancy_bt,2022.2.4,MacIntel,59.99880002,Chrome,1440,900,,,l,1.2922,10,589,2,0,3,3,8,1,0,0,1,0,0,0,0,1,hexagon,star,,,,,,,,,,,,,,,,,,,,,,,,,,,,,,,,,,,,,,,,,,,,,,,,,,,,,,
292423,2022-11-26_24h18.58.709,vts_reward_expectancy_bt,2022.2.4,MacIntel,59.99880002,Chrome,1440,900,,,a,1.0187,10,599,2,0,4,4,2,1,1,0,0,0,0,0,0,1,triangle,star,,,,,,,,,,,,,,,,,,,,,,,,,,,,,,,,,,,,,,,,,,,,,,,,,,,,,,
292423,2022-11-26_24h18.58.709,vts_reward_expectancy_bt,2022.2.4,MacIntel,59.99880002,Chrome,1440,900,,,a,1.0574,10,609,2,0,5,5,4,1,0,1,0,0,0,0,1,0,circle,hexagon,,,,,,,,,,,,,,,,,,,,,,,,,,,,,,,,,,,,,,,,,,,,,,,,,,,,,,
292423,2022-11-26_24h18.58.709,vts_reward_expectancy_bt,2022.2.4,MacIntel,59.99880002,Chrome,1440,900,,,a,1.0939,1,610,2,0,6,6,11,1,0,0,0,1,0,0,1,0,star,hexagon,,,,,,,,,,,,,,,,,,,,,,,,,,,,,,,,,,,,,,,,,,,,,,,,,,,,,,
292423,2022-11-26_24h18.58.709,vts_reward_expectancy_bt,2022.2.4,MacIntel,59.99880002,Chrome,1440,900,,,l,1.1329,1,611,2,0,7,7,3,1,0,1,0,0,1,0,0,0,circle,triangle,,,,,,,,,,,,,,,,,,,,,,,,,,,,,,,,,,,,,,,,,,,,,,,,,,,,,,
292423,2022-11-26_24h18.58.709,vts_reward_expectancy_bt,2022.2.4,MacIntel,59.99880002,Chrome,1440,900,,,a,0.8592,10,621,2,0,8,8,1,1,1,0,0,0,0,0,1,0,triangle,hexagon,,,,,,,,,,,,,,,,,,,,,,,,,,,,,,,,,,,,,,,,,,,,,,,,,,,,,,
292423,2022-11-26_24h18.58.709,vts_reward_expectancy_bt,2022.2.4,MacIntel,59.99880002,Chrome,1440,900,,,l,0.9661,10,631,2,0,9,9,0,1,1,0,0,0,0,1,0,0,triangle,circle,,,,,,,,,,,,,,,,,,,,,,,,,,,,,,,,,,,,,,,,,,,,,,,,,,,,,,
292423,2022-11-26_24h18.58.709,vts_reward_expectancy_bt,2022.2.4,MacIntel,59.99880002,Chrome,1440,900,,,l,0.9805,10,641,2,0,10,10,6,1,0,0,1,0,1,0,0,0,hexagon,triangle,,,,,,,,,,,,,,,,,,,,,,,,,,,,,,,,,,,,,,,,,,,,,,,,,,,,,,
292423,2022-11-26_24h18.58.709,vts_reward_expectancy_bt,2022.2.4,MacIntel,59.99880002,Chrome,1440,900,,,a,1.3487,1,642,2,0,11,11,5,1,0,1,0,0,0,0,0,1,circle,star,,,,,,,,,,,,,,,,,,,,,,,,,,,,,,,,,,,,,,,,,,,,,,,,,,,,,,
292423,2022-11-26_24h18.58.709,vts_reward_expectancy_bt,2022.2.4,MacIntel,59.99880002,Chrome,1440,900,,,l,1.1756,10,652,2,1,0,12,0,1,1,0,0,0,0,1,0,0,triangle,circle,,,,,,,,,,,,,,,,,,,,,,,,,,,,,,,,,,,,,,,,,,,,,,,,,,,,,,
292423,2022-11-26_24h18.58.709,vts_reward_expectancy_bt,2022.2.4,MacIntel,59.99880002,Chrome,1440,900,,,l,2.0374,1,653,2,1,1,13,2,1,1,0,0,0,0,0,0,1,triangle,star,,,,,,,,,,,,,,,,,,,,,,,,,,,,,,,,,,,,,,,,,,,,,,,,,,,,,,
292423,2022-11-26_24h18.58.709,vts_reward_expectancy_bt,2022.2.4,MacIntel,59.99880002,Chrome,1440,900,,,a,1.6406,1,654,2,1,2,14,3,1,0,1,0,0,1,0,0,0,circle,triangle,,,,,,,,,,,,,,,,,,,,,,,,,,,,,,,,,,,,,,,,,,,,,,,,,,,,,,
292423,2022-11-26_24h18.58.709,vts_reward_expectancy_bt,2022.2.4,MacIntel,59.99880002,Chrome,1440,900,,,l,0.8754,10,664,2,1,3,15,7,1,0,0,1,0,0,1,0,0,hexagon,circle,,,,,,,,,,,,,,,,,,,,,,,,,,,,,,,,,,,,,,,,,,,,,,,,,,,,,,
292423,2022-11-26_24h18.58.709,vts_reward_expectancy_bt,2022.2.4,MacIntel,59.99880002,Chrome,1440,900,,,a,0.9245,10,674,2,1,4,16,4,1,0,1,0,0,0,0,1,0,circle,hexagon,,,,,,,,,,,,,,,,,,,,,,,,,,,,,,,,,,,,,,,,,,,,,,,,,,,,,,
292423,2022-11-26_24h18.58.709,vts_reward_expectancy_bt,2022.2.4,MacIntel,59.99880002,Chrome,1440,900,,,a,1.5173,10,684,2,1,5,17,1,1,1,0,0,0,0,0,1,0,triangle,hexagon,,,,,,,,,,,,,,,,,,,,,,,,,,,,,,,,,,,,,,,,,,,,,,,,,,,,,,
292423,2022-11-26_24h18.58.709,vts_reward_expectancy_bt,2022.2.4,MacIntel,59.99880002,Chrome,1440,900,,,a,1.4763,1,685,2,1,6,18,11,1,0,0,0,1,0,0,1,0,star,hexagon,,,,,,,,,,,,,,,,,,,,,,,,,,,,,,,,,,,,,,,,,,,,,,,,,,,,,,
292423,2022-11-26_24h18.58.709,vts_reward_expectancy_bt,2022.2.4,MacIntel,59.99880002,Chrome,1440,900,,,l,0.9107,10,695,2,1,7,19,9,1,0,0,0,1,1,0,0,0,star,triangle,,,,,,,,,,,,,,,,,,,,,,,,,,,,,,,,,,,,,,,,,,,,,,,,,,,,,,
292423,2022-11-26_24h18.58.709,vts_reward_expectancy_bt,2022.2.4,MacIntel,59.99880002,Chrome,1440,900,,,l,1.3887,10,705,2,1,8,20,10,1,0,0,0,1,0,1,0,0,star ,circle,,,,,,,,,,,,,,,,,,,,,,,,,,,,,,,,,,,,,,,,,,,,,,,,,,,,,,
292423,2022-11-26_24h18.58.709,vts_reward_expectancy_bt,2022.2.4,MacIntel,59.99880002,Chrome,1440,900,,,a,0.623,10,715,2,1,9,21,5,1,0,1,0,0,0,0,0,1,circle,star,,,,,,,,,,,,,,,,,,,,,,,,,,,,,,,,,,,,,,,,,,,,,,,,,,,,,,
292423,2022-11-26_24h18.58.709,vts_reward_expectancy_bt,2022.2.4,MacIntel,59.99880002,Chrome,1440,900,,,l,1.1002,10,725,2,1,10,22,6,1,0,0,1,0,1,0,0,0,hexagon,triangle,,,,,,,,,,,,,,,,,,,,,,,,,,,,,,,,,,,,,,,,,,,,,,,,,,,,,,
292423,2022-11-26_24h18.58.709,vts_reward_expectancy_bt,2022.2.4,MacIntel,59.99880002,Chrome,1440,900,,,a,1.8421,1,726,2,1,11,23,8,1,0,0,1,0,0,0,0,1,hexagon,star,,,,,,,,,,,,,,,,,,,,,,,,,,,,,,,,,,,,,,,,,,,,,,,,,,,,,,
292423,2022-11-26_24h18.58.709,vts_reward_expectancy_bt,2022.2.4,MacIntel,59.99880002,Chrome,1440,900,,,l,1.0094,10,736,2,2,0,24,7,1,0,0,1,0,0,1,0,0,hexagon,circle,,,,,,,,,,,,,,,,,,,,,,,,,,,,,,,,,,,,,,,,,,,,,,,,,,,,,,
292423,2022-11-26_24h18.58.709,vts_reward_expectancy_bt,2022.2.4,MacIntel,59.99880002,Chrome,1440,900,,,a,1.5373,10,746,2,2,1,25,3,1,0,1,0,0,1,0,0,0,circle,triangle,,,,,,,,,,,,,,,,,,,,,,,,,,,,,,,,,,,,,,,,,,,,,,,,,,,,,,
292423,2022-11-26_24h18.58.709,vts_reward_expectancy_bt,2022.2.4,MacIntel,59.99880002,Chrome,1440,900,,,a,1.3414,1,747,2,2,2,26,2,1,1,0,0,0,0,0,0,1,triangle,star,,,,,,,,,,,,,,,,,,,,,,,,,,,,,,,,,,,,,,,,,,,,,,,,,,,,,,
292423,2022-11-26_24h18.58.709,vts_reward_expectancy_bt,2022.2.4,MacIntel,59.99880002,Chrome,1440,900,,,a,1.2577,10,757,2,2,3,27,1,1,1,0,0,0,0,0,1,0,triangle,hexagon,,,,,,,,,,,,,,,,,,,,,,,,,,,,,,,,,,,,,,,,,,,,,,,,,,,,,,
292423,2022-11-26_24h18.58.709,vts_reward_expectancy_bt,2022.2.4,MacIntel,59.99880002,Chrome,1440,900,,,l,0.8896,10,767,2,2,4,28,10,1,0,0,0,1,0,1,0,0,star ,circle,,,,,,,,,,,,,,,,,,,,,,,,,,,,,,,,,,,,,,,,,,,,,,,,,,,,,,
292423,2022-11-26_24h18.58.709,vts_reward_expectancy_bt,2022.2.4,MacIntel,59.99880002,Chrome,1440,900,,,l,1.0953,10,777,2,2,5,29,0,1,1,0,0,0,0,1,0,0,triangle,circle,,,,,,,,,,,,,,,,,,,,,,,,,,,,,,,,,,,,,,,,,,,,,,,,,,,,,,
292423,2022-11-26_24h18.58.709,vts_reward_expectancy_bt,2022.2.4,MacIntel,59.99880002,Chrome,1440,900,,,a,1.2386,1,778,2,2,6,30,9,1,0,0,0,1,1,0,0,0,star,triangle,,,,,,,,,,,,,,,,,,,,,,,,,,,,,,,,,,,,,,,,,,,,,,,,,,,,,,
292423,2022-11-26_24h18.58.709,vts_reward_expectancy_bt,2022.2.4,MacIntel,59.99880002,Chrome,1440,900,,,l,1.6628,10,788,2,2,7,31,6,1,0,0,1,0,1,0,0,0,hexagon,triangle,,,,,,,,,,,,,,,,,,,,,,,,,,,,,,,,,,,,,,,,,,,,,,,,,,,,,,
292423,2022-11-26_24h18.58.709,vts_reward_expectancy_bt,2022.2.4,MacIntel,59.99880002,Chrome,1440,900,,,a,0.9081,10,798,2,2,8,32,5,1,0,1,0,0,0,0,0,1,circle,star,,,,,,,,,,,,,,,,,,,,,,,,,,,,,,,,,,,,,,,,,,,,,,,,,,,,,,
292423,2022-11-26_24h18.58.709,vts_reward_expectancy_bt,2022.2.4,MacIntel,59.99880002,Chrome,1440,900,,,a,0.9501,10,808,2,2,9,33,4,1,0,1,0,0,0,0,1,0,circle,hexagon,,,,,,,,,,,,,,,,,,,,,,,,,,,,,,,,,,,,,,,,,,,,,,,,,,,,,,
292423,2022-11-26_24h18.58.709,vts_reward_expectancy_bt,2022.2.4,MacIntel,59.99880002,Chrome,1440,900,,,a,1.341,1,809,2,2,10,34,8,1,0,0,1,0,0,0,0,1,hexagon,star,,,,,,,,,,,,,,,,,,,,,,,,,,,,,,,,,,,,,,,,,,,,,,,,,,,,,,
292423,2022-11-26_24h18.58.709,vts_reward_expectancy_bt,2022.2.4,MacIntel,59.99880002,Chrome,1440,900,,,l,2.1546,1,810,2,2,11,35,11,1,0,0,0,1,0,0,1,0,star,hexagon,,,,,,,,,,,,,,,,,,,,,,,,,,,,,,,,,,,,,,,,,,,,,,,,,,,,,,
292423,2022-11-26_24h18.58.709,vts_reward_expectancy_bt,2022.2.4,MacIntel,59.99880002,Chrome,1440,900,,,,,,,,,,,,,,,,,,,,,,,U,146,triangle,0,0,,0,0,0,0,0,1,,,,,,,,,,,,,,,,,,,,,,,,,,,,,,,,,,,,,,,,,,
292423,2022-11-26_24h18.58.709,vts_reward_expectancy_bt,2022.2.4,MacIntel,59.99880002,Chrome,1440,900,,,,,,,,,,,,,,,,,,,,,,,B,125,star,1,1,d,0,1,0,1,0,1,0.87,,,,,,,,,,,,,,,,,,,,,,,,,,,,,,,,,,,,,,,,,
292423,2022-11-26_24h18.58.709,vts_reward_expectancy_bt,2022.2.4,MacIntel,59.99880002,Chrome,1440,900,,,,,,,,,,,,,,,,,,,,,,,Y,181,circle,1,0,f,0,2,0,2,0,1,0.7478,,,,,,,,,,,,,,,,,,,,,,,,,,,,,,,,,,,,,,,,,
292423,2022-11-26_24h18.58.709,vts_reward_expectancy_bt,2022.2.4,MacIntel,59.99880002,Chrome,1440,900,,,,,,,,,,,,,,,,,,,,,,,D,160,hexagon,1,0,d,0,3,0,3,0,1,0.4804,,,,,,,,,,,,,,,,,,,,,,,,,,,,,,,,,,,,,,,,,
292423,2022-11-26_24h18.58.709,vts_reward_expectancy_bt,2022.2.4,MacIntel,59.99880002,Chrome,1440,900,,,,,,,,,,,,,,,,,,,,,,,H,139,triangle,0,0,f,0,4,0,4,0,1,0.7649,,,,,,,,,,,,,,,,,,,,,,,,,,,,,,,,,,,,,,,,,
292423,2022-11-26_24h18.58.709,vts_reward_expectancy_bt,2022.2.4,MacIntel,59.99880002,Chrome,1440,900,,,,,,,,,,,,,,,,,,,,,,,S,174,star,1,1,f,0,5,0,5,0,1,0.7692,,,,,,,,,,,,,,,,,,,,,,,,,,,,,,,,,,,,,,,,,
292423,2022-11-26_24h18.58.709,vts_reward_expectancy_bt,2022.2.4,MacIntel,59.99880002,Chrome,1440,900,,,,,,,,,,,,,,,,,,,,,,,F,132,circle,1,0,d,0,6,0,6,0,1,0.6233,,,,,,,,,,,,,,,,,,,,,,,,,,,,,,,,,,,,,,,,,
292423,2022-11-26_24h18.58.709,vts_reward_expectancy_bt,2022.2.4,MacIntel,59.99880002,Chrome,1440,900,,,,,,,,,,,,,,,,,,,,,,,W,167,hexagon,1,0,f,0,7,0,7,0,1,0.6643,,,,,,,,,,,,,,,,,,,,,,,,,,,,,,,,,,,,,,,,,
292423,2022-11-26_24h18.58.709,vts_reward_expectancy_bt,2022.2.4,MacIntel,59.99880002,Chrome,1440,900,,,,,,,,,,,,,,,,,,,,,,,U,146,hexagon,1,0,f,0,8,0,8,0,1,0.9381,,,,,,,,,,,,,,,,,,,,,,,,,,,,,,,,,,,,,,,,,
292423,2022-11-26_24h18.58.709,vts_reward_expectancy_bt,2022.2.4,MacIntel,59.99880002,Chrome,1440,900,,,,,,,,,,,,,,,,,,,,,,,B,125,triangle,1,0,d,0,9,0,9,0,1,0.6738,,,,,,,,,,,,,,,,,,,,,,,,,,,,,,,,,,,,,,,,,
292423,2022-11-26_24h18.58.709,vts_reward_expectancy_bt,2022.2.4,MacIntel,59.99880002,Chrome,1440,900,,,,,,,,,,,,,,,,,,,,,,,F,139,triangle,1,0,d,1,0,0,0,0,1,0.8465,,,,,,,,,,,,,,,,,,,,,,,,,,,,,,,,,,,,,,,,,
292423,2022-11-26_24h18.58.709,vts_reward_expectancy_bt,2022.2.4,MacIntel,59.99880002,Chrome,1440,900,,,,,,,,,,,,,,,,,,,,,,,H,167,hexagon,1,0,d,1,1,0,1,0,1,0.7965,,,,,,,,,,,,,,,,,,,,,,,,,,,,,,,,,,,,,,,,,
292423,2022-11-26_24h18.58.709,vts_reward_expectancy_bt,2022.2.4,MacIntel,59.99880002,Chrome,1440,900,,,,,,,,,,,,,,,,,,,,,,,S,146,circle,0,0,d,1,2,0,2,0,1,0.7631,,,,,,,,,,,,,,,,,,,,,,,,,,,,,,,,,,,,,,,,,
292423,2022-11-26_24h18.58.709,vts_reward_expectancy_bt,2022.2.4,MacIntel,59.99880002,Chrome,1440,900,,,,,,,,,,,,,,,,,,,,,,,Y,181,star,1,1,f,1,3,0,3,0,1,0.6628,,,,,,,,,,,,,,,,,,,,,,,,,,,,,,,,,,,,,,,,,
292423,2022-11-26_24h18.58.709,vts_reward_expectancy_bt,2022.2.4,MacIntel,59.99880002,Chrome,1440,900,,,,,,,,,,,,,,,,,,,,,,,D,160,triangle,1,0,d,1,4,0,4,0,1,0.9365,,,,,,,,,,,,,,,,,,,,,,,,,,,,,,,,,,,,,,,,,
292423,2022-11-26_24h18.58.709,vts_reward_expectancy_bt,2022.2.4,MacIntel,59.99880002,Chrome,1440,900,,,,,,,,,,,,,,,,,,,,,,,B,174,hexagon,1,0,d,1,5,0,5,0,1,0.4853,,,,,,,,,,,,,,,,,,,,,,,,,,,,,,,,,,,,,,,,,
292423,2022-11-26_24h18.58.709,vts_reward_expectancy_bt,2022.2.4,MacIntel,59.99880002,Chrome,1440,900,,,,,,,,,,,,,,,,,,,,,,,U,125,circle,1,0,f,1,6,0,6,0,1,0.6456,,,,,,,,,,,,,,,,,,,,,,,,,,,,,,,,,,,,,,,,,
292423,2022-11-26_24h18.58.709,vts_reward_expectancy_bt,2022.2.4,MacIntel,59.99880002,Chrome,1440,900,,,,,,,,,,,,,,,,,,,,,,,W,132,star,1,0,f,1,7,0,7,0,1,0.5974,,,,,,,,,,,,,,,,,,,,,,,,,,,,,,,,,,,,,,,,,
292423,2022-11-26_24h18.58.709,vts_reward_expectancy_bt,2022.2.4,MacIntel,59.99880002,Chrome,1440,900,,,,,,,,,,,,,,,,,,,,,,,F,139,circle,1,0,d,1,8,0,8,0,1,0.6562,,,,,,,,,,,,,,,,,,,,,,,,,,,,,,,,,,,,,,,,,
292423,2022-11-26_24h18.58.709,vts_reward_expectancy_bt,2022.2.4,MacIntel,59.99880002,Chrome,1440,900,,,,,,,,,,,,,,,,,,,,,,,H,167,hexagon,1,0,d,1,9,0,9,0,1,0.5559,,,,,,,,,,,,,,,,,,,,,,,,,,,,,,,,,,,,,,,,,
292423,2022-11-26_24h18.58.709,vts_reward_expectancy_bt,2022.2.4,MacIntel,59.99880002,Chrome,1440,900,,,,,,,,,,,,,,,,,,,,,,,W,132,hexagon,1,0,,2,,,,,,,j,0.7324,0,0,0,0,1,,,,,,,,,,,,,,,,,,,,,,,,,,,,,,,,,,
292423,2022-11-26_24h18.58.709,vts_reward_expectancy_bt,2022.2.4,MacIntel,59.99880002,Chrome,1440,900,,,,,,,,,,,,,,,,,,,,,,,S,167,circle,1,0,,2,,,,,,,k,0.6217,1,0,1,0,1,,,,,,,,,,,,,,,,,,,,,,,,,,,,,,,,,,
292423,2022-11-26_24h18.58.709,vts_reward_expectancy_bt,2022.2.4,MacIntel,59.99880002,Chrome,1440,900,,,,,,,,,,,,,,,,,,,,,,,U,174,triangle,1,0,,2,,,,,,,k,0.7502,2,0,2,0,1,,,,,,,,,,,,,,,,,,,,,,,,,,,,,,,,,,
292423,2022-11-26_24h18.58.709,vts_reward_expectancy_bt,2022.2.4,MacIntel,59.99880002,Chrome,1440,900,,,,,,,,,,,,,,,,,,,,,,,D,125,star,1,0,,2,,,,,,,j,0.5655,3,0,3,0,1,,,,,,,,,,,,,,,,,,,,,,,,,,,,,,,,,,
292423,2022-11-26_24h18.58.709,vts_reward_expectancy_bt,2022.2.4,MacIntel,59.99880002,Chrome,1440,900,,,,,,,,,,,,,,,,,,,,,,,Y,146,hexagon,1,0,,2,,,,,,,j,0.8211,4,0,4,0,1,,,,,,,,,,,,,,,,,,,,,,,,,,,,,,,,,,
292423,2022-11-26_24h18.58.709,vts_reward_expectancy_bt,2022.2.4,MacIntel,59.99880002,Chrome,1440,900,,,,,,,,,,,,,,,,,,,,,,,H,160,circle,1,0,,2,,,,,,,k,0.6147,5,0,5,0,1,,,,,,,,,,,,,,,,,,,,,,,,,,,,,,,,,,
292423,2022-11-26_24h18.58.709,vts_reward_expectancy_bt,2022.2.4,MacIntel,59.99880002,Chrome,1440,900,,,,,,,,,,,,,,,,,,,,,,,B,139,triangle,1,0,,2,,,,,,,j,0.6061,6,0,6,0,1,,,,,,,,,,,,,,,,,,,,,,,,,,,,,,,,,,
292423,2022-11-26_24h18.58.709,vts_reward_expectancy_bt,2022.2.4,MacIntel,59.99880002,Chrome,1440,900,,,,,,,,,,,,,,,,,,,,,,,F,181,star,1,0,,2,,,,,,,k,0.4487,7,0,7,0,1,,,,,,,,,,,,,,,,,,,,,,,,,,,,,,,,,,
292423,2022-11-26_24h18.58.709,vts_reward_expectancy_bt,2022.2.4,MacIntel,59.99880002,Chrome,1440,900,,,,,,,,,,,,,,,,,,,,,,,W,132,triangle,1,0,,2,,,,,,,j,0.5378,8,0,8,0,1,,,,,,,,,,,,,,,,,,,,,,,,,,,,,,,,,,
292423,2022-11-26_24h18.58.709,vts_reward_expectancy_bt,2022.2.4,MacIntel,59.99880002,Chrome,1440,900,,,,,,,,,,,,,,,,,,,,,,,S,167,hexagon,1,0,,2,,,,,,,k,0.5018,9,0,9,0,1,,,,,,,,,,,,,,,,,,,,,,,,,,,,,,,,,,
292423,2022-11-26_24h18.58.709,vts_reward_expectancy_bt,2022.2.4,MacIntel,59.99880002,Chrome,1440,900,,,,,0,810,,,,,,,,,,,,,,,,,B,167,triangle,1,0,,3,,,,,,,,,,,,,,-1,letter,NA,d,2.7788,vtsPrac,0,0,0,0,1,,,,,,,,,,,,,,,,,,,,,,,
292423,2022-11-26_24h18.58.709,vts_reward_expectancy_bt,2022.2.4,MacIntel,59.99880002,Chrome,1440,900,,,,,0,810,,,,,,,,,,,,,,,,,F,132,hexagon,1,0,,3,,,,,,,,,,,,,,repeat,letter,lettRpt,d,2.3072,vtsPrac,1,0,1,0,1,,,,,,,,,,,,,,,,,,,,,,,
292423,2022-11-26_24h18.58.709,vts_reward_expectancy_bt,2022.2.4,MacIntel,59.99880002,Chrome,1440,900,,,,,0,810,,,,,,,,,,,,,,,,,Y,139,triangle,1,0,,3,,,,,,,,,,,,,,switch,number,numSwt,j,1.3623,vtsPrac,2,0,2,0,1,,,,,,,,,,,,,,,,,,,,,,,
292423,2022-11-26_24h18.58.709,vts_reward_expectancy_bt,2022.2.4,MacIntel,59.99880002,Chrome,1440,900,,,,,0,810,,,,,,,,,,,,,,,,,S,160,hexagon,1,0,,3,,,,,,,,,,,,,,switch,letter,lettSwt,f,0.9816,vtsPrac,3,0,3,0,1,,,,,,,,,,,,,,,,,,,,,,,
292423,2022-11-26_24h18.58.709,vts_reward_expectancy_bt,2022.2.4,MacIntel,59.99880002,Chrome,1440,900,,,,,0,810,,,,,,,,,,,,,,,,,B,167,star,1,0,,3,,,,,,,,,,,,,,switch,number,numSwt,k,0.8516,vtsPrac,4,0,4,0,1,,,,,,,,,,,,,,,,,,,,,,,
292423,2022-11-26_24h18.58.709,vts_reward_expectancy_bt,2022.2.4,MacIntel,59.99880002,Chrome,1440,900,,,,,0,810,,,,,,,,,,,,,,,,,F,132,hexagon,1,0,,3,,,,,,,,,,,,,,switch,letter,lettSwt,d,0.7392,vtsPrac,5,0,5,0,1,,,,,,,,,,,,,,,,,,,,,,,
292423,2022-11-26_24h18.58.709,vts_reward_expectancy_bt,2022.2.4,MacIntel,59.99880002,Chrome,1440,900,,,,,0,810,,,,,,,,,,,,,,,,,Y,139,hexagon,1,0,,3,,,,,,,,,,,,,,repeat,letter,lettRpt,f,0.7644,vtsPrac,6,0,6,0,1,,,,,,,,,,,,,,,,,,,,,,,
292423,2022-11-26_24h18.58.709,vts_reward_expectancy_bt,2022.2.4,MacIntel,59.99880002,Chrome,1440,900,,,,,0,810,,,,,,,,,,,,,,,,,S,160,circle,1,0,,3,,,,,,,,,,,,,,switch,number,numSwt,k,0.6644,vtsPrac,7,0,7,0,1,,,,,,,,,,,,,,,,,,,,,,,
292423,2022-11-26_24h18.58.709,vts_reward_expectancy_bt,2022.2.4,MacIntel,59.99880002,Chrome,1440,900,,,,,0,810,,,,,,,,,,,,,,,,,H,181,hexagon,1,0,,3,,,,,,,,,,,,,,repeat,number,numRpt,k,0.6554,vtsPrac,8,0,8,0,1,,,,,,,,,,,,,,,,,,,,,,,
292423,2022-11-26_24h18.58.709,vts_reward_expectancy_bt,2022.2.4,MacIntel,59.99880002,Chrome,1440,900,,,,,0,810,,,,,,,,,,,,,,,,,F,160,triangle,1,0,,3,,,,,,,,,,,,,,switch,letter,lettSwt,d,0.7054,vtsPrac,9,0,9,0,1,,,,,,,,,,,,,,,,,,,,,,,
292423,2022-11-26_24h18.58.709,vts_reward_expectancy_bt,2022.2.4,MacIntel,59.99880002,Chrome,1440,900,,,,,0,810,,,,,,,,,,,,,,,,,B,125,star,1,0,,3,,,,,,,,,,,,,,switch,number,numSwt,j,0.8644,vtsPrac,10,0,10,0,1,,,,,,,,,,,,,,,,,,,,,,,
292423,2022-11-26_24h18.58.709,vts_reward_expectancy_bt,2022.2.4,MacIntel,59.99880002,Chrome,1440,900,,,,,0,810,,,,,,,,,,,,,,,,,Y,139,circle,1,0,,3,,,,,,,,,,,,,,switch,letter,lettSwt,f,0.6825,vtsPrac,11,0,11,0,1,,,,,,,,,,,,,,,,,,,,,,,
292423,2022-11-26_24h18.58.709,vts_reward_expectancy_bt,2022.2.4,MacIntel,59.99880002,Chrome,1440,900,,,,,0,810,,,,,,,,,,,,,,,,,W,174,star,1,0,,3,,,,,,,,,,,,,,switch,number,numSwt,k,0.664,vtsPrac,12,0,12,0,1,,,,,,,,,,,,,,,,,,,,,,,
292423,2022-11-26_24h18.58.709,vts_reward_expectancy_bt,2022.2.4,MacIntel,59.99880002,Chrome,1440,900,,,,,0,810,,,,,,,,,,,,,,,,,Y,132,hexagon,1,0,,3,,,,,,,,,,,,,,repeat,number,numRpt,j,0.6372,vtsPrac,13,0,13,0,1,,,,,,,,,,,,,,,,,,,,,,,
292423,2022-11-26_24h18.58.709,vts_reward_expectancy_bt,2022.2.4,MacIntel,59.99880002,Chrome,1440,900,,,,,0,810,,,,,,,,,,,,,,,,,D,181,star,1,0,,3,,,,,,,,,,,,,,repeat,number,numRpt,k,0.7141,vtsPrac,14,0,14,0,1,,,,,,,,,,,,,,,,,,,,,,,
292423,2022-11-26_24h18.58.709,vts_reward_expectancy_bt,2022.2.4,MacIntel,59.99880002,Chrome,1440,900,,,,,0,810,,,,,,,,,,,,,,,,,B,125,hexagon,1,0,,3,,,,,,,,,,,,,,switch,letter,lettSwt,d,0.737,vtsPrac,15,0,15,0,1,,,,,,,,,,,,,,,,,,,,,,,
292423,2022-11-26_24h18.58.709,vts_reward_expectancy_bt,2022.2.4,MacIntel,59.99880002,Chrome,1440,900,,,,,0,810,,,,,,,,,,,,,,,,,S,174,triangle,1,0,,3,,,,,,,,,,,,,,repeat,letter,lettRpt,f,1.2996,vtsPrac,16,0,16,0,1,,,,,,,,,,,,,,,,,,,,,,,
292423,2022-11-26_24h18.58.709,vts_reward_expectancy_bt,2022.2.4,MacIntel,59.99880002,Chrome,1440,900,,,,,0,810,,,,,,,,,,,,,,,,,H,139,star,1,0,,3,,,,,,,,,,,,,,switch,number,numSwt,j,0.9306,vtsPrac,17,0,17,0,1,,,,,,,,,,,,,,,,,,,,,,,
292423,2022-11-26_24h18.58.709,vts_reward_expectancy_bt,2022.2.4,MacIntel,59.99880002,Chrome,1440,900,,,,,0,810,,,,,,,,,,,,,,,,,D,181,hexagon,1,0,,3,,,,,,,,,,,,,,switch,letter,lettSwt,d,0.7819,vtsPrac,18,0,18,0,1,,,,,,,,,,,,,,,,,,,,,,,
292423,2022-11-26_24h18.58.709,vts_reward_expectancy_bt,2022.2.4,MacIntel,59.99880002,Chrome,1440,900,,,,,0,810,,,,,,,,,,,,,,,,,Y,146,star,1,0,,3,,,,,,,,,,,,,,repeat,letter,lettRpt,f,0.8469,vtsPrac,19,0,19,0,1,,,,,,,,,,,,,,,,,,,,,,,
292423,2022-11-26_24h18.58.709,vts_reward_expectancy_bt,2022.2.4,MacIntel,59.99880002,Chrome,1440,900,,,,,0,810,,,,,,,,,,,,,,,,,H,160,star,1,0,,3,,,,,,,,,,,,,,switch,number,numSwt,k,1.5217,vtsPrac,20,0,20,0,1,,,,,,,,,,,,,,,,,,,,,,,
292423,2022-11-26_24h18.58.709,vts_reward_expectancy_bt,2022.2.4,MacIntel,59.99880002,Chrome,1440,900,,,,,0,810,,,,,,,,,,,,,,,,,U,181,triangle,1,0,,3,,,,,,,,,,,,,,repeat,number,numRpt,k,0.6392,vtsPrac,21,0,21,0,1,,,,,,,,,,,,,,,,,,,,,,,
292423,2022-11-26_24h18.58.709,vts_reward_expectancy_bt,2022.2.4,MacIntel,59.99880002,Chrome,1440,900,,,,,0,810,,,,,,,,,,,,,,,,,S,174,circle,1,0,,3,,,,,,,,,,,,,,switch,letter,lettSwt,f,0.7836,vtsPrac,22,0,22,0,1,,,,,,,,,,,,,,,,,,,,,,,
292423,2022-11-26_24h18.58.709,vts_reward_expectancy_bt,2022.2.4,MacIntel,59.99880002,Chrome,1440,900,,,,,0,810,,,,,,,,,,,,,,,,,B,125,triangle,1,0,,3,,,,,,,,,,,,,,switch,number,numSwt,j,0.7538,vtsPrac,23,0,23,0,1,,,,,,,,,,,,,,,,,,,,,,,
292423,2022-11-26_24h18.58.709,vts_reward_expectancy_bt,2022.2.4,MacIntel,59.99880002,Chrome,1440,900,,,,,0,810,,,,,,,,,,,,,,,,,W,160,hexagon,1,0,,3,,,,,,,,,,,,,,repeat,number,numRpt,k,0.965,vtsPrac,24,0,24,0,1,,,,,,,,,,,,,,,,,,,,,,,
292423,2022-11-26_24h18.58.709,vts_reward_expectancy_bt,2022.2.4,MacIntel,59.99880002,Chrome,1440,900,,,,,0,810,,,,,,,,,,,,,,,,,F,139,star,1,0,,3,,,,,,,,,,,,,,repeat,number,numRpt,j,0.7333,vtsPrac,25,0,25,0,1,,,,,,,,,,,,,,,,,,,,,,,
292423,2022-11-26_24h18.58.709,vts_reward_expectancy_bt,2022.2.4,MacIntel,59.99880002,Chrome,1440,900,,,,,0,810,,,,,,,,,,,,,,,,,Y,181,star,1,0,,3,,,,,,,,,,,,,,switch,letter,lettSwt,f,0.665,vtsPrac,26,0,26,0,1,,,,,,,,,,,,,,,,,,,,,,,
292423,2022-11-26_24h18.58.709,vts_reward_expectancy_bt,2022.2.4,MacIntel,59.99880002,Chrome,1440,900,,,,,0,810,,,,,,,,,,,,,,,,,B,167,hexagon,1,0,,3,,,,,,,,,,,,,,repeat,letter,lettRpt,d,0.7041,vtsPrac,27,0,27,0,1,,,,,,,,,,,,,,,,,,,,,,,
292423,2022-11-26_24h18.58.709,vts_reward_expectancy_bt,2022.2.4,MacIntel,59.99880002,Chrome,1440,900,,,,,0,810,,,,,,,,,,,,,,,,,Y,132,triangle,1,0,,3,,,,,,,,,,,,,,switch,number,numSwt,j,0.5986,vtsPrac,28,0,28,0,1,,,,,,,,,,,,,,,,,,,,,,,
292423,2022-11-26_24h18.58.709,vts_reward_expectancy_bt,2022.2.4,MacIntel,59.99880002,Chrome,1440,900,,,,,0,810,,,,,,,,,,,,,,,,,D,167,star,1,0,,3,,,,,,,,,,,,,,repeat,number,numRpt,k,0.6339,vtsPrac,29,0,29,0,1,,,,,,,,,,,,,,,,,,,,,,,
292423,2022-11-26_24h18.58.709,vts_reward_expectancy_bt,2022.2.4,MacIntel,59.99880002,Chrome,1440,900,,,,,0,810,,,,,,,,,,,,,,,,,F,125,circle,1,0,,3,,,,,,,,,,,,,,switch,letter,lettSwt,d,0.9313,vtsPrac,30,0,30,0,1,,,,,,,,,,,,,,,,,,,,,,,
292423,2022-11-26_24h18.58.709,vts_reward_expectancy_bt,2022.2.4,MacIntel,59.99880002,Chrome,1440,900,,,,,0,810,,,,,,,,,,,,,,,,,B,160,triangle,1,0,,3,,,,,,,,,,,,,,switch,number,numSwt,k,0.8659,vtsPrac,31,0,31,0,1,,,,,,,,,,,,,,,,,,,,,,,
292423,2022-11-26_24h18.58.709,vts_reward_expectancy_bt,2022.2.4,MacIntel,59.99880002,Chrome,1440,900,,,,,,,,,,,,,,,,,,,,,,,,,,,,,,,,,,,,,,,,,,,,,,,,,,,,,,,,,,,,,,,,,,,,,,,,,,,,
292423,2022-11-26_24h18.58.709,vts_reward_expectancy_bt,2022.2.4,MacIntel,59.99880002,Chrome,1440,900,,,,,,,,,,,,,,,,,,,,,,,,,,,,,,,,,,,,,,,,,,,,,,,,,,,,,,,,,,,,,,,,,,,,,,,,,,,,
292423,2022-11-26_24h18.58.709,vts_reward_expectancy_bt,2022.2.4,MacIntel,59.99880002,Chrome,1440,900,,,,,0,810,,,,,,,,,,,,,,,,,S,139,star,1,0,,,,,,,,,,,,,,,,switch,letter,lettSwt,f,1.0568,noRew,,,,,,0,0,0,0,0,1,,,,,,,,,,,,,,,,,
292423,2022-11-26_24h18.58.709,vts_reward_expectancy_bt,2022.2.4,MacIntel,59.99880002,Chrome,1440,900,,,,,0,810,,,,,,,,,,,,,,,,,F,174,hexagon,1,0,,,,,,,,,,,,,,,,repeat,letter,lettRpt,d,0.6394,noRew,,,,,,0,1,0,1,0,1,,,,,,,,,,,,,,,,,
292423,2022-11-26_24h18.58.709,vts_reward_expectancy_bt,2022.2.4,MacIntel,59.99880002,Chrome,1440,900,,,,,0,810,,,,,,,,,,,,,,,,,Y,132,star,1,0,,,,,,,,,,,,,,,,switch,number,numSwt,j,0.6158,noRew,,,,,,0,2,0,2,0,1,,,,,,,,,,,,,,,,,
292423,2022-11-26_24h18.58.709,vts_reward_expectancy_bt,2022.2.4,MacIntel,59.99880002,Chrome,1440,900,,,,,0,810,,,,,,,,,,,,,,,,,B,125,hexagon,1,0,,,,,,,,,,,,,,,,repeat,number,numRpt,j,0.6988,noRew,,,,,,0,3,0,3,0,1,,,,,,,,,,,,,,,,,
292423,2022-11-26_24h18.58.709,vts_reward_expectancy_bt,2022.2.4,MacIntel,59.99880002,Chrome,1440,900,,,,,0,810,,,,,,,,,,,,,,,,,S,139,star,1,0,,,,,,,,,,,,,,,,repeat,number,numRpt,j,0.7317,noRew,,,,,,0,4,0,4,0,1,,,,,,,,,,,,,,,,,
292423,2022-11-26_24h18.58.709,vts_reward_expectancy_bt,2022.2.4,MacIntel,59.99880002,Chrome,1440,900,,,,,0,810,,,,,,,,,,,,,,,,,F,174,circle,1,0,,,,,,,,,,,,,,,,repeat,number,numRpt,k,0.7531,noRew,,,,,,0,5,0,5,0,1,,,,,,,,,,,,,,,,,
292423,2022-11-26_24h18.58.709,vts_reward_expectancy_bt,2022.2.4,MacIntel,59.99880002,Chrome,1440,900,,,,,0,810,,,,,,,,,,,,,,,,,Y,132,hexagon,1,0,,,,,,,,,,,,,,,,switch,letter,lettSwt,f,0.6507,noRew,,,,,,0,6,0,6,0,1,,,,,,,,,,,,,,,,,
292423,2022-11-26_24h18.58.709,vts_reward_expectancy_bt,2022.2.4,MacIntel,59.99880002,Chrome,1440,900,,,,,0,810,,,,,,,,,,,,,,,,,B,125,triangle,1,0,,,,,,,,,,,,,,,,switch,number,numSwt,j,0.6151,noRew,,,,,,0,7,0,7,0,1,,,,,,,,,,,,,,,,,
292423,2022-11-26_24h18.58.709,vts_reward_expectancy_bt,2022.2.4,MacIntel,59.99880002,Chrome,1440,900,,,,,0,810,,,,,,,,,,,,,,,,,Y,181,triangle,1,0,,,,,,,,,,,,,,,,switch,letter,lettSwt,f,0.949,noRew,,,,,,0,8,0,8,0,1,,,,,,,,,,,,,,,,,
292423,2022-11-26_24h18.58.709,vts_reward_expectancy_bt,2022.2.4,MacIntel,59.99880002,Chrome,1440,900,,,,,0,810,,,,,,,,,,,,,,,,,D,125,hexagon,1,0,,,,,,,,,,,,,,,,repeat,letter,lettRpt,d,0.658,noRew,,,,,,0,9,0,9,0,1,,,,,,,,,,,,,,,,,
292423,2022-11-26_24h18.58.709,vts_reward_expectancy_bt,2022.2.4,MacIntel,59.99880002,Chrome,1440,900,,,,,0,810,,,,,,,,,,,,,,,,,W,132,circle,1,0,,,,,,,,,,,,,,,,switch,number,numSwt,j,0.6644,noRew,,,,,,0,10,0,10,0,1,,,,,,,,,,,,,,,,,
292423,2022-11-26_24h18.58.709,vts_reward_expectancy_bt,2022.2.4,MacIntel,59.99880002,Chrome,1440,900,,,,,0,810,,,,,,,,,,,,,,,,,H,167,triangle,1,0,,,,,,,,,,,,,,,,switch,letter,lettSwt,d,0.7851,noRew,,,,,,0,11,0,11,0,1,,,,,,,,,,,,,,,,,
292423,2022-11-26_24h18.58.709,vts_reward_expectancy_bt,2022.2.4,MacIntel,59.99880002,Chrome,1440,900,,,,,0,810,,,,,,,,,,,,,,,,,H,167,hexagon,1,0,,,,,,,,,,,,,,,,repeat,letter,lettRpt,d,0.7883,noRew,,,,,,0,12,0,12,0,1,,,,,,,,,,,,,,,,,
292423,2022-11-26_24h18.58.709,vts_reward_expectancy_bt,2022.2.4,MacIntel,59.99880002,Chrome,1440,900,,,,,0,810,,,,,,,,,,,,,,,,,D,174,star,1,0,,,,,,,,,,,,,,,,repeat,letter,lettRpt,d,0.8168,noRew,,,,,,0,13,0,13,0,1,,,,,,,,,,,,,,,,,
292423,2022-11-26_24h18.58.709,vts_reward_expectancy_bt,2022.2.4,MacIntel,59.99880002,Chrome,1440,900,,,,,0,810,,,,,,,,,,,,,,,,,Y,132,triangle,1,0,,,,,,,,,,,,,,,,repeat,letter,lettRpt,f,0.8128,noRew,,,,,,0,14,0,14,0,1,,,,,,,,,,,,,,,,,
292423,2022-11-26_24h18.58.709,vts_reward_expectancy_bt,2022.2.4,MacIntel,59.99880002,Chrome,1440,900,,,,,0,810,,,,,,,,,,,,,,,,,S,160,hexagon,1,0,,,,,,,,,,,,,,,,switch,number,numSwt,k,0.7148,noRew,,,,,,0,15,0,15,0,1,,,,,,,,,,,,,,,,,
292423,2022-11-26_24h18.58.709,vts_reward_expectancy_bt,2022.2.4,MacIntel,59.99880002,Chrome,1440,900,,,,,0,810,,,,,,,,,,,,,,,,,Y,160,star,1,0,,,,,,,,,,,,,,,,repeat,number,numRpt,k,0.5514,noRew,,,,,,0,16,0,16,0,1,,,,,,,,,,,,,,,,,
292423,2022-11-26_24h18.58.709,vts_reward_expectancy_bt,2022.2.4,MacIntel,59.99880002,Chrome,1440,900,,,,,0,810,,,,,,,,,,,,,,,,,W,139,triangle,1,0,,,,,,,,,,,,,,,,repeat,number,numRpt,j,0.9075,noRew,,,,,,0,17,0,17,0,1,,,,,,,,,,,,,,,,,
292423,2022-11-26_24h18.58.709,vts_reward_expectancy_bt,2022.2.4,MacIntel,59.99880002,Chrome,1440,900,,,,,0,810,,,,,,,,,,,,,,,,,B,132,triangle,1,0,,,,,,,,,,,,,,,,switch,letter,lettSwt,d,0.6505,noRew,,,,,,0,18,0,18,0,1,,,,,,,,,,,,,,,,,
292423,2022-11-26_24h18.58.709,vts_reward_expectancy_bt,2022.2.4,MacIntel,59.99880002,Chrome,1440,900,,,,,0,810,,,,,,,,,,,,,,,,,H,181,hexagon,1,0,,,,,,,,,,,,,,,,repeat,letter,lettRpt,d,1.3485,noRew,,,,,,0,19,0,19,0,1,,,,,,,,,,,,,,,,,
292423,2022-11-26_24h18.58.709,vts_reward_expectancy_bt,2022.2.4,MacIntel,59.99880002,Chrome,1440,900,,,,,0,810,,,,,,,,,,,,,,,,,U,181,star,1,0,,,,,,,,,,,,,,,,switch,number,numSwt,k,0.6334,noRew,,,,,,0,20,0,20,0,1,,,,,,,,,,,,,,,,,
292423,2022-11-26_24h18.58.709,vts_reward_expectancy_bt,2022.2.4,MacIntel,59.99880002,Chrome,1440,900,,,,,0,810,,,,,,,,,,,,,,,,,H,125,circle,1,0,,,,,,,,,,,,,,,,switch,letter,lettSwt,d,0.8639,noRew,,,,,,0,21,0,21,0,1,,,,,,,,,,,,,,,,,
292423,2022-11-26_24h18.58.709,vts_reward_expectancy_bt,2022.2.4,MacIntel,59.99880002,Chrome,1440,900,,,,,0,810,,,,,,,,,,,,,,,,,B,174,star,1,0,,,,,,,,,,,,,,,,repeat,letter,lettRpt,d,0.6497,noRew,,,,,,0,22,0,22,0,1,,,,,,,,,,,,,,,,,
292423,2022-11-26_24h18.58.709,vts_reward_expectancy_bt,2022.2.4,MacIntel,59.99880002,Chrome,1440,900,,,,,0,810,,,,,,,,,,,,,,,,,Y,146,hexagon,1,0,,,,,,,,,,,,,,,,switch,number,numSwt,j,0.7577,noRew,,,,,,0,23,0,23,0,1,,,,,,,,,,,,,,,,,
292423,2022-11-26_24h18.58.709,vts_reward_expectancy_bt,2022.2.4,MacIntel,59.99880002,Chrome,1440,900,,,,,0,810,,,,,,,,,,,,,,,,,B,174,star,1,0,,,,,,,,,,,,,,,,switch,letter,lettSwt,d,0.7195,noRew,,,,,,0,24,0,24,0,1,,,,,,,,,,,,,,,,,
292423,2022-11-26_24h18.58.709,vts_reward_expectancy_bt,2022.2.4,MacIntel,59.99880002,Chrome,1440,900,,,,,0,810,,,,,,,,,,,,,,,,,Y,139,triangle,1,0,,,,,,,,,,,,,,,,repeat,letter,lettRpt,f,0.681,noRew,,,,,,0,25,0,25,0,1,,,,,,,,,,,,,,,,,
292423,2022-11-26_24h18.58.709,vts_reward_expectancy_bt,2022.2.4,MacIntel,59.99880002,Chrome,1440,900,,,,,0,810,,,,,,,,,,,,,,,,,D,146,triangle,1,0,,,,,,,,,,,,,,,,repeat,letter,lettRpt,d,0.7641,noRew,,,,,,0,26,0,26,0,1,,,,,,,,,,,,,,,,,
292423,2022-11-26_24h18.58.709,vts_reward_expectancy_bt,2022.2.4,MacIntel,59.99880002,Chrome,1440,900,,,,,0,810,,,,,,,,,,,,,,,,,U,125,star,1,0,,,,,,,,,,,,,,,,switch,number,numSwt,j,0.6988,noRew,,,,,,0,27,0,27,0,1,,,,,,,,,,,,,,,,,
292423,2022-11-26_24h18.58.709,vts_reward_expectancy_bt,2022.2.4,MacIntel,59.99880002,Chrome,1440,900,,,,,0,810,,,,,,,,,,,,,,,,,F,139,star,1,0,,,,,,,,,,,,,,,,switch,letter,lettSwt,d,0.7177,noRew,,,,,,0,28,0,28,0,1,,,,,,,,,,,,,,,,,
292423,2022-11-26_24h18.58.709,vts_reward_expectancy_bt,2022.2.4,MacIntel,59.99880002,Chrome,1440,900,,,,,0,810,,,,,,,,,,,,,,,,,Y,146,triangle,1,0,,,,,,,,,,,,,,,,switch,number,numSwt,j,0.8823,noRew,,,,,,0,29,0,29,0,1,,,,,,,,,,,,,,,,,
292423,2022-11-26_24h18.58.709,vts_reward_expectancy_bt,2022.2.4,MacIntel,59.99880002,Chrome,1440,900,,,,,0,810,,,,,,,,,,,,,,,,,H,174,triangle,1,0,,,,,,,,,,,,,,,,repeat,number,numRpt,k,0.6541,noRew,,,,,,0,30,0,30,0,1,,,,,,,,,,,,,,,,,
292423,2022-11-26_24h18.58.709,vts_reward_expectancy_bt,2022.2.4,MacIntel,59.99880002,Chrome,1440,900,,,,,0,810,,,,,,,,,,,,,,,,,D,125,hexagon,1,0,,,,,,,,,,,,,,,,repeat,number,numRpt,j,0.6481,noRew,,,,,,0,31,0,31,0,1,,,,,,,,,,,,,,,,,
292423,2022-11-26_24h18.58.709,vts_reward_expectancy_bt,2022.2.4,MacIntel,59.99880002,Chrome,1440,900,,,,,0,810,,,,,,,,,,,,,,,,,U,174,circle,1,0,,,,,,,,,,,,,,,,repeat,number,numRpt,k,0.6347,noRew,,,,,,0,32,0,32,0,1,,,,,,,,,,,,,,,,,
292423,2022-11-26_24h18.58.709,vts_reward_expectancy_bt,2022.2.4,MacIntel,59.99880002,Chrome,1440,900,,,,,0,810,,,,,,,,,,,,,,,,,S,181,star,1,0,,,,,,,,,,,,,,,,switch,letter,lettSwt,f,1.1309,noRew,,,,,,0,33,0,33,0,1,,,,,,,,,,,,,,,,,
292423,2022-11-26_24h18.58.709,vts_reward_expectancy_bt,2022.2.4,MacIntel,59.99880002,Chrome,1440,900,,,,,0,810,,,,,,,,,,,,,,,,,H,139,triangle,1,0,,,,,,,,,,,,,,,,repeat,letter,lettRpt,d,0.6329,noRew,,,,,,0,34,0,34,0,1,,,,,,,,,,,,,,,,,
292423,2022-11-26_24h18.58.709,vts_reward_expectancy_bt,2022.2.4,MacIntel,59.99880002,Chrome,1440,900,,,,,0,810,,,,,,,,,,,,,,,,,Y,160,hexagon,1,0,,,,,,,,,,,,,,,,switch,number,numSwt,k,0.8628,noRew,,,,,,0,35,0,35,0,1,,,,,,,,,,,,,,,,,
292423,2022-11-26_24h18.58.709,vts_reward_expectancy_bt,2022.2.4,MacIntel,59.99880002,Chrome,1440,900,,,,,0,810,,,,,,,,,,,,,,,,,U,167,triangle,1,0,,,,,,,,,,,,,,,,repeat,number,numRpt,k,1.3538,noRew,,,,,,0,36,0,36,0,1,,,,,,,,,,,,,,,,,
292423,2022-11-26_24h18.58.709,vts_reward_expectancy_bt,2022.2.4,MacIntel,59.99880002,Chrome,1440,900,,,,,0,810,,,,,,,,,,,,,,,,,S,146,star,1,0,,,,,,,,,,,,,,,,switch,letter,lettSwt,f,0.7623,noRew,,,,,,0,37,0,37,0,1,,,,,,,,,,,,,,,,,
292423,2022-11-26_24h18.58.709,vts_reward_expectancy_bt,2022.2.4,MacIntel,59.99880002,Chrome,1440,900,,,,,0,810,,,,,,,,,,,,,,,,,Y,139,star,1,0,,,,,,,,,,,,,,,,repeat,letter,lettRpt,f,0.915,noRew,,,,,,0,38,0,38,0,1,,,,,,,,,,,,,,,,,
292423,2022-11-26_24h18.58.709,vts_reward_expectancy_bt,2022.2.4,MacIntel,59.99880002,Chrome,1440,900,,,,,0,810,,,,,,,,,,,,,,,,,H,160,circle,1,0,,,,,,,,,,,,,,,,switch,number,numSwt,k,0.6634,noRew,,,,,,0,39,0,39,0,1,,,,,,,,,,,,,,,,,
292423,2022-11-26_24h18.58.709,vts_reward_expectancy_bt,2022.2.4,MacIntel,59.99880002,Chrome,1440,900,,,,,0,810,,,,,,,,,,,,,,,,,Y,174,hexagon,1,0,,,,,,,,,,,,,,,,repeat,number,numRpt,k,0.6791,noRew,,,,,,0,40,0,40,0,1,,,,,,,,,,,,,,,,,
292423,2022-11-26_24h18.58.709,vts_reward_expectancy_bt,2022.2.4,MacIntel,59.99880002,Chrome,1440,900,,,,,0,810,,,,,,,,,,,,,,,,,D,132,circle,1,0,,,,,,,,,,,,,,,,switch,letter,lettSwt,d,0.6968,noRew,,,,,,0,41,0,41,0,1,,,,,,,,,,,,,,,,,
292423,2022-11-26_24h18.58.709,vts_reward_expectancy_bt,2022.2.4,MacIntel,59.99880002,Chrome,1440,900,,,,,0,810,,,,,,,,,,,,,,,,,W,125,triangle,1,0,,,,,,,,,,,,,,,,switch,number,numSwt,j,0.9631,noRew,,,,,,0,42,0,42,0,1,,,,,,,,,,,,,,,,,
292423,2022-11-26_24h18.58.709,vts_reward_expectancy_bt,2022.2.4,MacIntel,59.99880002,Chrome,1440,900,,,,,0,810,,,,,,,,,,,,,,,,,B,139,circle,1,0,,,,,,,,,,,,,,,,repeat,number,numRpt,j,0.7315,noRew,,,,,,0,43,0,43,0,1,,,,,,,,,,,,,,,,,
292423,2022-11-26_24h18.58.709,vts_reward_expectancy_bt,2022.2.4,MacIntel,59.99880002,Chrome,1440,900,,,,,0,810,,,,,,,,,,,,,,,,,Y,125,circle,1,0,,,,,,,,,,,,,,,,repeat,number,numRpt,j,0.5458,noRew,,,,,,0,44,0,44,0,1,,,,,,,,,,,,,,,,,
292423,2022-11-26_24h18.58.709,vts_reward_expectancy_bt,2022.2.4,MacIntel,59.99880002,Chrome,1440,900,,,,,0,810,,,,,,,,,,,,,,,,,B,181,hexagon,1,0,,,,,,,,,,,,,,,,switch,letter,lettSwt,d,0.8477,noRew,,,,,,0,45,0,45,0,1,,,,,,,,,,,,,,,,,
292423,2022-11-26_24h18.58.709,vts_reward_expectancy_bt,2022.2.4,MacIntel,59.99880002,Chrome,1440,900,,,,,0,810,,,,,,,,,,,,,,,,,S,174,triangle,1,0,,,,,,,,,,,,,,,,switch,number,numSwt,k,0.6996,noRew,,,,,,0,46,0,46,0,1,,,,,,,,,,,,,,,,,
292423,2022-11-26_24h18.58.709,vts_reward_expectancy_bt,2022.2.4,MacIntel,59.99880002,Chrome,1440,900,,,,,0,810,,,,,,,,,,,,,,,,,W,132,circle,1,0,,,,,,,,,,,,,,,,switch,letter,lettSwt,f,0.6841,noRew,,,,,,0,47,0,47,0,1,,,,,,,,,,,,,,,,,
292423,2022-11-26_24h18.58.709,vts_reward_expectancy_bt,2022.2.4,MacIntel,59.99880002,Chrome,1440,900,,,,,0,810,,,,,,,,,,,,,,,,,H,139,star,1,0,,,,,,,,,,,,,,,,repeat,letter,lettRpt,d,0.7645,noRew,,,,,,0,48,0,48,0,1,,,,,,,,,,,,,,,,,
292423,2022-11-26_24h18.58.709,vts_reward_expectancy_bt,2022.2.4,MacIntel,59.99880002,Chrome,1440,900,,,,,0,810,,,,,,,,,,,,,,,,,D,146,triangle,1,0,,,,,,,,,,,,,,,,repeat,letter,lettRpt,d,0.6343,noRew,,,,,,0,49,0,49,0,1,,,,,,,,,,,,,,,,,
292423,2022-11-26_24h18.58.709,vts_reward_expectancy_bt,2022.2.4,MacIntel,59.99880002,Chrome,1440,900,,,,,0,810,,,,,,,,,,,,,,,,,F,174,star,1,0,,,,,,,,,,,,,,,,repeat,letter,lettRpt,d,0.9021,noRew,,,,,,0,50,0,50,0,1,,,,,,,,,,,,,,,,,
292423,2022-11-26_24h18.58.709,vts_reward_expectancy_bt,2022.2.4,MacIntel,59.99880002,Chrome,1440,900,,,,,0,810,,,,,,,,,,,,,,,,,S,132,circle,1,0,,,,,,,,,,,,,,,,repeat,letter,lettRpt,f,1.2396,noRew,,,,,,0,51,0,51,0,1,,,,,,,,,,,,,,,,,
292423,2022-11-26_24h18.58.709,vts_reward_expectancy_bt,2022.2.4,MacIntel,59.99880002,Chrome,1440,900,,,,,0,810,,,,,,,,,,,,,,,,,W,132,star,1,0,,,,,,,,,,,,,,,,switch,number,numSwt,j,0.8253,noRew,,,,,,0,52,0,52,0,1,,,,,,,,,,,,,,,,,
292423,2022-11-26_24h18.58.709,vts_reward_expectancy_bt,2022.2.4,MacIntel,59.99880002,Chrome,1440,900,,,,,0,810,,,,,,,,,,,,,,,,,H,125,triangle,1,0,,,,,,,,,,,,,,,,repeat,number,numRpt,j,0.6015,noRew,,,,,,0,53,0,53,0,1,,,,,,,,,,,,,,,,,
292423,2022-11-26_24h18.58.709,vts_reward_expectancy_bt,2022.2.4,MacIntel,59.99880002,Chrome,1440,900,,,,,0,810,,,,,,,,,,,,,,,,,F,174,star,1,0,,,,,,,,,,,,,,,,repeat,number,numRpt,k,0.697,noRew,,,,,,0,54,0,54,0,1,,,,,,,,,,,,,,,,,
292423,2022-11-26_24h18.58.709,vts_reward_expectancy_bt,2022.2.4,MacIntel,59.99880002,Chrome,1440,900,,,,,0,810,,,,,,,,,,,,,,,,,D,167,hexagon,1,0,,,,,,,,,,,,,,,,repeat,number,numRpt,k,0.671,noRew,,,,,,0,55,0,55,0,1,,,,,,,,,,,,,,,,,
292423,2022-11-26_24h18.58.709,vts_reward_expectancy_bt,2022.2.4,MacIntel,59.99880002,Chrome,1440,900,,,,,0,810,,,,,,,,,,,,,,,,,Y,167,hexagon,1,0,,,,,,,,,,,,,,,,repeat,number,numRpt,k,0.6384,noRew,,,,,,0,56,0,56,0,1,,,,,,,,,,,,,,,,,
292423,2022-11-26_24h18.58.709,vts_reward_expectancy_bt,2022.2.4,MacIntel,59.99880002,Chrome,1440,900,,,,,0,810,,,,,,,,,,,,,,,,,B,160,triangle,1,0,,,,,,,,,,,,,,,,switch,letter,lettSwt,d,0.5876,noRew,,,,,,0,57,0,57,0,1,,,,,,,,,,,,,,,,,
292423,2022-11-26_24h18.58.709,vts_reward_expectancy_bt,2022.2.4,MacIntel,59.99880002,Chrome,1440,900,,,,,0,810,,,,,,,,,,,,,,,,,U,146,triangle,1,0,,,,,,,,,,,,,,,,repeat,letter,lettRpt,f,0.967,noRew,,,,,,0,58,0,58,0,1,,,,,,,,,,,,,,,,,
292423,2022-11-26_24h18.58.709,vts_reward_expectancy_bt,2022.2.4,MacIntel,59.99880002,Chrome,1440,900,,,,,0,810,,,,,,,,,,,,,,,,,W,181,hexagon,1,0,,,,,,,,,,,,,,,,switch,number,numSwt,k,0.7879,noRew,,,,,,0,59,0,59,0,1,,,,,,,,,,,,,,,,,
292423,2022-11-26_24h18.58.709,vts_reward_expectancy_bt,2022.2.4,MacIntel,59.99880002,Chrome,1440,900,,,,,0,810,,,,,,,,,,,,,,,,,F,146,triangle,1,0,,,,,,,,,,,,,,,,switch,letter,lettSwt,d,0.981,noRew,,,,,,0,60,0,60,0,1,,,,,,,,,,,,,,,,,
292423,2022-11-26_24h18.58.709,vts_reward_expectancy_bt,2022.2.4,MacIntel,59.99880002,Chrome,1440,900,,,,,0,810,,,,,,,,,,,,,,,,,S,132,circle,1,0,,,,,,,,,,,,,,,,repeat,letter,lettRpt,f,1.0667,noRew,,,,,,0,61,0,61,0,1,,,,,,,,,,,,,,,,,
292423,2022-11-26_24h18.58.709,vts_reward_expectancy_bt,2022.2.4,MacIntel,59.99880002,Chrome,1440,900,,,,,0,810,,,,,,,,,,,,,,,,,D,174,triangle,1,0,,,,,,,,,,,,,,,,repeat,letter,lettRpt,d,0.7307,noRew,,,,,,0,62,0,62,0,1,,,,,,,,,,,,,,,,,
292423,2022-11-26_24h18.58.709,vts_reward_expectancy_bt,2022.2.4,MacIntel,59.99880002,Chrome,1440,900,,,,,0,810,,,,,,,,,,,,,,,,,Y,167,hexagon,1,0,,,,,,,,,,,,,,,,repeat,letter,lettRpt,f,0.7325,noRew,,,,,,0,63,0,63,0,1,,,,,,,,,,,,,,,,,
292423,2022-11-26_24h18.58.709,vts_reward_expectancy_bt,2022.2.4,MacIntel,59.99880002,Chrome,1440,900,,,,,,,,,,,,,,,,,,,,,,,,,,,,,,,,,,,,,,,,,,,,,,,,,,,,,,,,,,,,,,,,,,,,,,,,,,,,
292423,2022-11-26_24h18.58.709,vts_reward_expectancy_bt,2022.2.4,MacIntel,59.99880002,Chrome,1440,900,,,,,10,820,,,,,,,,,,,,,,,,,F,139,hexagon,1,0,,,,,,,,,,,,,,,,repeat,letter,lettRpt,d,0.9232,Lo,,,,,,0,,,,,,space,4.3574,high,0,0,0,0,1,,,,,,,,,
292423,2022-11-26_24h18.58.709,vts_reward_expectancy_bt,2022.2.4,MacIntel,59.99880002,Chrome,1440,900,,,,,0,820,,,,,,,,,,,,,,,,,W,146,circle,1,0,,,,,,,,,,,,,,,,repeat,letter,lettRpt,f,0.8979,Hi,,,,,,0,,,,,,,,high,1,0,1,0,1,,,,,,,,,
292423,2022-11-26_24h18.58.709,vts_reward_expectancy_bt,2022.2.4,MacIntel,59.99880002,Chrome,1440,900,,,,,10,830,,,,,,,,,,,,,,,,,D,167,triangle,1,0,,,,,,,,,,,,,,,,switch,number,numSwt,k,0.5326,Hi,,,,,,0,,,,,,,,high,2,0,2,0,1,,,,,,,,,
292423,2022-11-26_24h18.58.709,vts_reward_expectancy_bt,2022.2.4,MacIntel,59.99880002,Chrome,1440,900,,,,,1,831,,,,,,,,,,,,,,,,,Y,174,star,1,0,,,,,,,,,,,,,,,,switch,letter,lettSwt,f,0.5649,Lo,,,,,,0,,,,,,,,high,3,0,3,0,1,,,,,,,,,
292423,2022-11-26_24h18.58.709,vts_reward_expectancy_bt,2022.2.4,MacIntel,59.99880002,Chrome,1440,900,,,,,0,831,,,,,,,,,,,,,,,,,H,132,hexagon,0,0,,,,,,,,,,,,,,,,switch,number,NA,k,0.7483,Lo,,,,,,0,,,,,,,,high,4,0,4,0,1,,,,,,,,,
292423,2022-11-26_24h18.58.709,vts_reward_expectancy_bt,2022.2.4,MacIntel,59.99880002,Chrome,1440,900,,,,,10,841,,,,,,,,,,,,,,,,,U,181,circle,1,1,,,,,,,,,,,,,,,,repeat,number,numRpt,k,0.5345,Hi,,,,,,0,,,,,,,,high,5,0,5,0,1,,,,,,,,,
292423,2022-11-26_24h18.58.709,vts_reward_expectancy_bt,2022.2.4,MacIntel,59.99880002,Chrome,1440,900,,,,,0,841,,,,,,,,,,,,,,,,,B,125,triangle,1,0,,,,,,,,,,,,,,,,repeat,number,numRpt,j,0.7349,Hi,,,,,,0,,,,,,,,high,6,0,6,0,1,,,,,,,,,
292423,2022-11-26_24h18.58.709,vts_reward_expectancy_bt,2022.2.4,MacIntel,59.99880002,Chrome,1440,900,,,,,1,842,,,,,,,,,,,,,,,,,S,160,star,1,0,,,,,,,,,,,,,,,,switch,letter,lettSwt,f,0.7391,Lo,,,,,,0,,,,,,,,high,7,0,7,0,1,,,,,,,,,
292423,2022-11-26_24h18.58.709,vts_reward_expectancy_bt,2022.2.4,MacIntel,59.99880002,Chrome,1440,900,,,,,10,852,,,,,,,,,,,,,,,,,F,139,triangle,1,0,,,,,,,,,,,,,,,,switch,number,numSwt,j,0.6143,Hi,,,,,,0,,,,,,,,high,8,0,8,0,1,,,,,,,,,
292423,2022-11-26_24h18.58.709,vts_reward_expectancy_bt,2022.2.4,MacIntel,59.99880002,Chrome,1440,900,,,,,10,862,,,,,,,,,,,,,,,,,W,146,circle,1,0,,,,,,,,,,,,,,,,switch,letter,lettSwt,f,0.5317,Hi,,,,,,0,,,,,,,,high,9,0,9,0,1,,,,,,,,,
292423,2022-11-26_24h18.58.709,vts_reward_expectancy_bt,2022.2.4,MacIntel,59.99880002,Chrome,1440,900,,,,,1,863,,,,,,,,,,,,,,,,,D,167,star,1,0,,,,,,,,,,,,,,,,repeat,letter,lettRpt,d,0.5561,Lo,,,,,,0,,,,,,,,high,10,0,10,0,1,,,,,,,,,
292423,2022-11-26_24h18.58.709,vts_reward_expectancy_bt,2022.2.4,MacIntel,59.99880002,Chrome,1440,900,,,,,1,864,,,,,,,,,,,,,,,,,Y,174,hexagon,1,0,,,,,,,,,,,,,,,,repeat,letter,lettRpt,f,0.6367,Lo,,,,,,0,,,,,,,,high,11,0,11,0,1,,,,,,,,,
292423,2022-11-26_24h18.58.709,vts_reward_expectancy_bt,2022.2.4,MacIntel,59.99880002,Chrome,1440,900,,,,,10,874,,,,,,,,,,,,,,,,,H,132,triangle,1,0,,,,,,,,,,,,,,,,switch,number,numSwt,j,0.5487,Hi,,,,,,0,,,,,,,,high,12,0,12,0,1,,,,,,,,,
292423,2022-11-26_24h18.58.709,vts_reward_expectancy_bt,2022.2.4,MacIntel,59.99880002,Chrome,1440,900,,,,,1,875,,,,,,,,,,,,,,,,,U,181,hexagon,1,0,,,,,,,,,,,,,,,,repeat,number,numRpt,k,0.6058,Lo,,,,,,0,,,,,,,,high,13,0,13,0,1,,,,,,,,,
292423,2022-11-26_24h18.58.709,vts_reward_expectancy_bt,2022.2.4,MacIntel,59.99880002,Chrome,1440,900,,,,,10,885,,,,,,,,,,,,,,,,,B,125,circle,1,0,,,,,,,,,,,,,,,,switch,letter,lettSwt,d,0.5997,Hi,,,,,,0,,,,,,,,high,14,0,14,0,1,,,,,,,,,
292423,2022-11-26_24h18.58.709,vts_reward_expectancy_bt,2022.2.4,MacIntel,59.99880002,Chrome,1440,900,,,,,1,886,,,,,,,,,,,,,,,,,S,160,star,1,0,,,,,,,,,,,,,,,,repeat,letter,lettRpt,f,0.7135,Lo,,,,,,0,,,,,,,,high,15,0,15,0,1,,,,,,,,,
292423,2022-11-26_24h18.58.709,vts_reward_expectancy_bt,2022.2.4,MacIntel,59.99880002,Chrome,1440,900,,,,,1,887,,,,,,,,,,,,,,,,,F,181,star,1,0,,,,,,,,,,,,,,,,switch,number,numSwt,k,0.5515,Lo,,,,,,0,,,,,,,,high,16,0,16,0,1,,,,,,,,,
292423,2022-11-26_24h18.58.709,vts_reward_expectancy_bt,2022.2.4,MacIntel,59.99880002,Chrome,1440,900,,,,,0,887,,,,,,,,,,,,,,,,,B,132,circle,1,0,,,,,,,,,,,,,,,,switch,letter,lettSwt,d,0.8479,Hi,,,,,,0,,,,,,,,high,17,0,17,0,1,,,,,,,,,
292423,2022-11-26_24h18.58.709,vts_reward_expectancy_bt,2022.2.4,MacIntel,59.99880002,Chrome,1440,900,,,,,10,897,,,,,,,,,,,,,,,,,U,146,triangle,1,0,,,,,,,,,,,,,,,,switch,number,numSwt,j,0.6018,Hi,,,,,,0,,,,,,,,high,18,0,18,0,1,,,,,,,,,
292423,2022-11-26_24h18.58.709,vts_reward_expectancy_bt,2022.2.4,MacIntel,59.99880002,Chrome,1440,900,,,,,1,898,,,,,,,,,,,,,,,,,H,125,hexagon,1,0,,,,,,,,,,,,,,,,repeat,number,numRpt,j,0.6493,Lo,,,,,,0,,,,,,,,high,19,0,19,0,1,,,,,,,,,
292423,2022-11-26_24h18.58.709,vts_reward_expectancy_bt,2022.2.4,MacIntel,59.99880002,Chrome,1440,900,,,,,1,899,,,,,,,,,,,,,,,,,Y,139,hexagon,1,0,,,,,,,,,,,,,,,,switch,letter,lettSwt,f,0.7677,Lo,,,,,,0,,,,,,,,high,20,0,20,0,1,,,,,,,,,
292423,2022-11-26_24h18.58.709,vts_reward_expectancy_bt,2022.2.4,MacIntel,59.99880002,Chrome,1440,900,,,,,10,909,,,,,,,,,,,,,,,,,S,160,star,1,0,,,,,,,,,,,,,,,,switch,number,numSwt,k,0.5656,Lo,,,,,,0,,,,,,,,high,21,0,21,0,1,,,,,,,,,
292423,2022-11-26_24h18.58.709,vts_reward_expectancy_bt,2022.2.4,MacIntel,59.99880002,Chrome,1440,900,,,,,1,910,,,,,,,,,,,,,,,,,D,167,circle,1,0,,,,,,,,,,,,,,,,switch,letter,lettSwt,d,0.5464,Hi,,,,,,0,,,,,,,,high,22,0,22,0,1,,,,,,,,,
292423,2022-11-26_24h18.58.709,vts_reward_expectancy_bt,2022.2.4,MacIntel,59.99880002,Chrome,1440,900,,,,,10,920,,,,,,,,,,,,,,,,,W,174,triangle,1,0,,,,,,,,,,,,,,,,switch,number,numSwt,k,0.4643,Hi,,,,,,0,,,,,,,,high,23,0,23,0,1,,,,,,,,,
292423,2022-11-26_24h18.58.709,vts_reward_expectancy_bt,2022.2.4,MacIntel,59.99880002,Chrome,1440,900,,,,,10,930,,,,,,,,,,,,,,,,,U,146,circle,1,0,,,,,,,,,,,,,,,,switch,letter,lettSwt,f,0.6653,Hi,,,,,,0,,,,,,,,high,24,0,24,0,1,,,,,,,,,
292423,2022-11-26_24h18.58.709,vts_reward_expectancy_bt,2022.2.4,MacIntel,59.99880002,Chrome,1440,900,,,,,10,940,,,,,,,,,,,,,,,,,H,132,star,1,0,,,,,,,,,,,,,,,,switch,number,numSwt,j,0.4698,Lo,,,,,,0,,,,,,,,high,25,0,25,0,1,,,,,,,,,
292423,2022-11-26_24h18.58.709,vts_reward_expectancy_bt,2022.2.4,MacIntel,59.99880002,Chrome,1440,900,,,,,1,941,,,,,,,,,,,,,,,,,Y,174,hexagon,1,0,,,,,,,,,,,,,,,,repeat,number,numRpt,k,0.5054,Lo,,,,,,0,,,,,,,,high,26,0,26,0,1,,,,,,,,,
292423,2022-11-26_24h18.58.709,vts_reward_expectancy_bt,2022.2.4,MacIntel,59.99880002,Chrome,1440,900,,,,,10,951,,,,,,,,,,,,,,,,,B,181,triangle,1,0,,,,,,,,,,,,,,,,repeat,number,numRpt,k,0.4794,Hi,,,,,,0,,,,,,,,high,27,0,27,0,1,,,,,,,,,
292423,2022-11-26_24h18.58.709,vts_reward_expectancy_bt,2022.2.4,MacIntel,59.99880002,Chrome,1440,900,,,,,0,951,,,,,,,,,,,,,,,,,F,139,circle,0,0,,,,,,,,,,,,,,,,switch,letter,NA,f,0.5709,Hi,,,,,,0,,,,,,,,high,28,0,28,0,1,,,,,,,,,
292423,2022-11-26_24h18.58.709,vts_reward_expectancy_bt,2022.2.4,MacIntel,59.99880002,Chrome,1440,900,,,,,10,961,,,,,,,,,,,,,,,,,W,167,triangle,1,1,,,,,,,,,,,,,,,,switch,number,numSwt,k,0.6727,Hi,,,,,,0,,,,,,,,high,29,0,29,0,1,,,,,,,,,
292423,2022-11-26_24h18.58.709,vts_reward_expectancy_bt,2022.2.4,MacIntel,59.99880002,Chrome,1440,900,,,,,1,962,,,,,,,,,,,,,,,,,S,160,star,1,0,,,,,,,,,,,,,,,,repeat,number,numRpt,k,0.5385,Lo,,,,,,0,,,,,,,,high,30,0,30,0,1,,,,,,,,,
292423,2022-11-26_24h18.58.709,vts_reward_expectancy_bt,2022.2.4,MacIntel,59.99880002,Chrome,1440,900,,,,,0,962,,,,,,,,,,,,,,,,,D,125,hexagon,0,0,,,,,,,,,,,,,,,,repeat,number,NA,k,0.5203,Lo,,,,,,0,,,,,,,,high,31,0,31,0,1,,,,,,,,,
292423,2022-11-26_24h18.58.709,vts_reward_expectancy_bt,2022.2.4,MacIntel,59.99880002,Chrome,1440,900,,,,,1,963,,,,,,,,,,,,,,,,,W,167,hexagon,1,1,,,,,,,,,,,,,,,,switch,letter,lettSwt,f,0.7644,Lo,,,,,,1,,,,,,space,3.0083,high,0,0,0,0,1,,,,,,,,,
292423,2022-11-26_24h18.58.709,vts_reward_expectancy_bt,2022.2.4,MacIntel,59.99880002,Chrome,1440,900,,,,,0,963,,,,,,,,,,,,,,,,,U,125,star,0,0,,,,,,,,,,,,,,,,repeat,letter,NA,d,0.7806,Lo,,,,,,1,,,,,,,,high,1,0,1,0,1,,,,,,,,,
292423,2022-11-26_24h18.58.709,vts_reward_expectancy_bt,2022.2.4,MacIntel,59.99880002,Chrome,1440,900,,,,,10,973,,,,,,,,,,,,,,,,,S,139,circle,1,1,,,,,,,,,,,,,,,,repeat,letter,lettRpt,f,0.5469,Hi,,,,,,1,,,,,,,,high,2,0,2,0,1,,,,,,,,,
292423,2022-11-26_24h18.58.709,vts_reward_expectancy_bt,2022.2.4,MacIntel,59.99880002,Chrome,1440,900,,,,,0,973,,,,,,,,,,,,,,,,,F,160,triangle,1,0,,,,,,,,,,,,,,,,switch,number,numSwt,k,0.6043,Hi,,,,,,1,,,,,,,,high,3,0,3,0,1,,,,,,,,,
292423,2022-11-26_24h18.58.709,vts_reward_expectancy_bt,2022.2.4,MacIntel,59.99880002,Chrome,1440,900,,,,,1,974,,,,,,,,,,,,,,,,,B,174,hexagon,1,0,,,,,,,,,,,,,,,,repeat,number,numRpt,k,0.4885,Lo,,,,,,1,,,,,,,,high,4,0,4,0,1,,,,,,,,,
292423,2022-11-26_24h18.58.709,vts_reward_expectancy_bt,2022.2.4,MacIntel,59.99880002,Chrome,1440,900,,,,,1,975,,,,,,,,,,,,,,,,,H,132,star,1,0,,,,,,,,,,,,,,,,repeat,number,numRpt,j,0.6399,Lo,,,,,,1,,,,,,,,high,5,0,5,0,1,,,,,,,,,
292423,2022-11-26_24h18.58.709,vts_reward_expectancy_bt,2022.2.4,MacIntel,59.99880002,Chrome,1440,900,,,,,0,975,,,,,,,,,,,,,,,,,D,181,circle,1,0,,,,,,,,,,,,,,,,switch,letter,lettSwt,d,0.7526,Hi,,,,,,1,,,,,,,,high,6,0,6,0,1,,,,,,,,,
292423,2022-11-26_24h18.58.709,vts_reward_expectancy_bt,2022.2.4,MacIntel,59.99880002,Chrome,1440,900,,,,,0,975,,,,,,,,,,,,,,,,,Y,146,triangle,0,0,,,,,,,,,,,,,,,,switch,number,NA,k,0.6158,Hi,,,,,,1,,,,,,,,high,7,0,7,0,1,,,,,,,,,
292423,2022-11-26_24h18.58.709,vts_reward_expectancy_bt,2022.2.4,MacIntel,59.99880002,Chrome,1440,900,,,,,0,975,,,,,,,,,,,,,,,,,W,167,triangle,1,1,,,,,,,,,,,,,,,,repeat,number,numRpt,k,0.731,Hi,,,,,,1,,,,,,,,high,8,0,8,0,1,,,,,,,,,
292423,2022-11-26_24h18.58.709,vts_reward_expectancy_bt,2022.2.4,MacIntel,59.99880002,Chrome,1440,900,,,,,10,985,,,,,,,,,,,,,,,,,U,125,hexagon,1,0,,,,,,,,,,,,,,,,repeat,number,numRpt,j,0.5004,Lo,,,,,,1,,,,,,,,high,9,0,9,0,1,,,,,,,,,
292423,2022-11-26_24h18.58.709,vts_reward_expectancy_bt,2022.2.4,MacIntel,59.99880002,Chrome,1440,900,,,,,10,995,,,,,,,,,,,,,,,,,S,139,circle,1,0,,,,,,,,,,,,,,,,repeat,number,numRpt,j,0.4965,Hi,,,,,,1,,,,,,,,high,10,0,10,0,1,,,,,,,,,
292423,2022-11-26_24h18.58.709,vts_reward_expectancy_bt,2022.2.4,MacIntel,59.99880002,Chrome,1440,900,,,,,1,996,,,,,,,,,,,,,,,,,F,160,star,1,0,,,,,,,,,,,,,,,,repeat,number,numRpt,k,0.4989,Lo,,,,,,1,,,,,,,,high,11,0,11,0,1,,,,,,,,,
292423,2022-11-26_24h18.58.709,vts_reward_expectancy_bt,2022.2.4,MacIntel,59.99880002,Chrome,1440,900,,,,,10,1006,,,,,,,,,,,,,,,,,B,174,triangle,1,0,,,,,,,,,,,,,,,,repeat,number,numRpt,k,0.4141,Hi,,,,,,1,,,,,,,,high,12,0,12,0,1,,,,,,,,,
292423,2022-11-26_24h18.58.709,vts_reward_expectancy_bt,2022.2.4,MacIntel,59.99880002,Chrome,1440,900,,,,,0,1006,,,,,,,,,,,,,,,,,H,132,hexagon,0,0,,,,,,,,,,,,,,,,switch,letter,NA,f,0.6163,Hi,,,,,,1,,,,,,,,high,13,0,13,0,1,,,,,,,,,
292423,2022-11-26_24h18.58.709,vts_reward_expectancy_bt,2022.2.4,MacIntel,59.99880002,Chrome,1440,900,,,,,0,1006,,,,,,,,,,,,,,,,,D,181,circle,1,1,,,,,,,,,,,,,,,,repeat,letter,lettRpt,d,0.7053,Hi,,,,,,1,,,,,,,,high,14,0,14,0,1,,,,,,,,,
292423,2022-11-26_24h18.58.709,vts_reward_expectancy_bt,2022.2.4,MacIntel,59.99880002,Chrome,1440,900,,,,,10,1016,,,,,,,,,,,,,,,,,Y,146,star,1,0,,,,,,,,,,,,,,,,repeat,letter,lettRpt,f,0.5504,Lo,,,,,,1,,,,,,,,high,15,0,15,0,1,,,,,,,,,
292423,2022-11-26_24h18.58.709,vts_reward_expectancy_bt,2022.2.4,MacIntel,59.99880002,Chrome,1440,900,,,,,10,1026,,,,,,,,,,,,,,,,,W,181,triangle,1,0,,,,,,,,,,,,,,,,switch,number,numSwt,k,0.5159,Hi,,,,,,1,,,,,,,,high,16,0,16,0,1,,,,,,,,,
292423,2022-11-26_24h18.58.709,vts_reward_expectancy_bt,2022.2.4,MacIntel,59.99880002,Chrome,1440,900,,,,,1,1027,,,,,,,,,,,,,,,,,S,132,star,1,0,,,,,,,,,,,,,,,,switch,letter,lettSwt,f,0.5482,Lo,,,,,,1,,,,,,,,high,17,0,17,0,1,,,,,,,,,
292423,2022-11-26_24h18.58.709,vts_reward_expectancy_bt,2022.2.4,MacIntel,59.99880002,Chrome,1440,900,,,,,0,1027,,,,,,,,,,,,,,,,,F,174,circle,0,0,,,,,,,,,,,,,,,,repeat,letter,NA,f,0.5408,Lo,,,,,,1,,,,,,,,high,18,0,18,0,1,,,,,,,,,
292423,2022-11-26_24h18.58.709,vts_reward_expectancy_bt,2022.2.4,MacIntel,59.99880002,Chrome,1440,900,,,,,1,1028,,,,,,,,,,,,,,,,,Y,160,hexagon,1,1,,,,,,,,,,,,,,,,repeat,letter,lettRpt,f,0.5838,Lo,,,,,,1,,,,,,,,high,19,0,19,0,1,,,,,,,,,
292423,2022-11-26_24h18.58.709,vts_reward_expectancy_bt,2022.2.4,MacIntel,59.99880002,Chrome,1440,900,,,,,0,1028,,,,,,,,,,,,,,,,,B,146,triangle,0,0,,,,,,,,,,,,,,,,switch,number,NA,k,0.4834,Lo,,,,,,1,,,,,,,,high,20,0,20,0,1,,,,,,,,,
292423,2022-11-26_24h18.58.709,vts_reward_expectancy_bt,2022.2.4,MacIntel,59.99880002,Chrome,1440,900,,,,,0,1028,,,,,,,,,,,,,,,,,D,167,circle,1,1,,,,,,,,,,,,,,,,switch,letter,lettSwt,d,0.5872,Hi,,,,,,1,,,,,,,,high,21,0,21,0,1,,,,,,,,,
292423,2022-11-26_24h18.58.709,vts_reward_expectancy_bt,2022.2.4,MacIntel,59.99880002,Chrome,1440,900,,,,,1,1029,,,,,,,,,,,,,,,,,U,125,star,1,0,,,,,,,,,,,,,,,,repeat,letter,lettRpt,f,0.5845,Lo,,,,,,1,,,,,,,,high,22,0,22,0,1,,,,,,,,,
292423,2022-11-26_24h18.58.709,vts_reward_expectancy_bt,2022.2.4,MacIntel,59.99880002,Chrome,1440,900,,,,,1,1030,,,,,,,,,,,,,,,,,H,139,hexagon,1,0,,,,,,,,,,,,,,,,repeat,letter,lettRpt,d,0.5031,Lo,,,,,,1,,,,,,,,high,23,0,23,0,1,,,,,,,,,
292423,2022-11-26_24h18.58.709,vts_reward_expectancy_bt,2022.2.4,MacIntel,59.99880002,Chrome,1440,900,,,,,1,1031,,,,,,,,,,,,,,,,,Y,160,star,1,0,,,,,,,,,,,,,,,,repeat,letter,lettRpt,f,0.5317,Lo,,,,,,1,,,,,,,,high,24,0,24,0,1,,,,,,,,,
292423,2022-11-26_24h18.58.709,vts_reward_expectancy_bt,2022.2.4,MacIntel,59.99880002,Chrome,1440,900,,,,,0,1031,,,,,,,,,,,,,,,,,F,139,circle,1,0,,,,,,,,,,,,,,,,repeat,letter,lettRpt,d,0.666,Hi,,,,,,1,,,,,,,,high,25,0,25,0,1,,,,,,,,,
292423,2022-11-26_24h18.58.709,vts_reward_expectancy_bt,2022.2.4,MacIntel,59.99880002,Chrome,1440,900,,,,,0,1031,,,,,,,,,,,,,,,,,U,125,hexagon,0,0,,,,,,,,,,,,,,,,switch,number,NA,k,0.6001,Hi,,,,,,1,,,,,,,,high,26,0,26,0,1,,,,,,,,,
292423,2022-11-26_24h18.58.709,vts_reward_expectancy_bt,2022.2.4,MacIntel,59.99880002,Chrome,1440,900,,,,,0,1031,,,,,,,,,,,,,,,,,B,146,triangle,0,1,,,,,,,,,,,,,,,,repeat,number,NA,k,0.9351,Hi,,,,,,1,,,,,,,,high,27,0,27,0,1,,,,,,,,,
292423,2022-11-26_24h18.58.709,vts_reward_expectancy_bt,2022.2.4,MacIntel,59.99880002,Chrome,1440,900,,,,,1,1032,,,,,,,,,,,,,,,,,D,181,star,1,1,,,,,,,,,,,,,,,,repeat,number,numRpt,k,0.5188,Lo,,,,,,1,,,,,,,,high,28,0,28,0,1,,,,,,,,,
292423,2022-11-26_24h18.58.709,vts_reward_expectancy_bt,2022.2.4,MacIntel,59.99880002,Chrome,1440,900,,,,,1,1033,,,,,,,,,,,,,,,,,H,132,hexagon,1,0,,,,,,,,,,,,,,,,repeat,number,numRpt,j,0.7659,Lo,,,,,,1,,,,,,,,high,29,0,29,0,1,,,,,,,,,
292423,2022-11-26_24h18.58.709,vts_reward_expectancy_bt,2022.2.4,MacIntel,59.99880002,Chrome,1440,900,,,,,10,1043,,,,,,,,,,,,,,,,,W,174,triangle,1,0,,,,,,,,,,,,,,,,repeat,number,numRpt,k,0.4393,Hi,,,,,,1,,,,,,,,high,30,0,30,0,1,,,,,,,,,
292423,2022-11-26_24h18.58.709,vts_reward_expectancy_bt,2022.2.4,MacIntel,59.99880002,Chrome,1440,900,,,,,0,1043,,,,,,,,,,,,,,,,,S,167,circle,1,0,,,,,,,,,,,,,,,,repeat,number,numRpt,k,0.5655,Hi,,,,,,1,,,,,,,,high,31,0,31,0,1,,,,,,,,,
292423,2022-11-26_24h18.58.709,vts_reward_expectancy_bt,2022.2.4,MacIntel,59.99880002,Chrome,1440,900,,,,,1,1044,,,,,,,,,,,,,,,,,H,146,star,1,0,,,,,,,,,,,,,,,,switch,letter,lettSwt,d,1.87,Lo,,,,,,2,,,,,,space,6.0592,high,0,0,0,0,1,,,,,,,,,
292423,2022-11-26_24h18.58.709,vts_reward_expectancy_bt,2022.2.4,MacIntel,59.99880002,Chrome,1440,900,,,,,1,1045,,,,,,,,,,,,,,,,,B,125,hexagon,1,0,,,,,,,,,,,,,,,,switch,number,numSwt,j,0.9491,Lo,,,,,,2,,,,,,,,high,1,0,1,0,1,,,,,,,,,
292423,2022-11-26_24h18.58.709,vts_reward_expectancy_bt,2022.2.4,MacIntel,59.99880002,Chrome,1440,900,,,,,0,1045,,,,,,,,,,,,,,,,,F,167,triangle,1,0,,,,,,,,,,,,,,,,repeat,number,numRpt,k,0.5486,Hi,,,,,,2,,,,,,,,high,2,0,2,0,1,,,,,,,,,
292423,2022-11-26_24h18.58.709,vts_reward_expectancy_bt,2022.2.4,MacIntel,59.99880002,Chrome,1440,900,,,,,0,1045,,,,,,,,,,,,,,,,,U,181,circle,1,0,,,,,,,,,,,,,,,,repeat,number,numRpt,k,0.5143,Hi,,,,,,2,,,,,,,,high,3,0,3,0,1,,,,,,,,,
292423,2022-11-26_24h18.58.709,vts_reward_expectancy_bt,2022.2.4,MacIntel,59.99880002,Chrome,1440,900,,,,,1,1046,,,,,,,,,,,,,,,,,Y,132,star,1,0,,,,,,,,,,,,,,,,repeat,number,numRpt,j,0.4314,Lo,,,,,,2,,,,,,,,high,4,0,4,0,1,,,,,,,,,
292423,2022-11-26_24h18.58.709,vts_reward_expectancy_bt,2022.2.4,MacIntel,59.99880002,Chrome,1440,900,,,,,0,1046,,,,,,,,,,,,,,,,,D,160,hexagon,0,0,,,,,,,,,,,,,,,,switch,letter,NA,f,0.5149,Lo,,,,,,2,,,,,,,,high,5,0,5,0,1,,,,,,,,,
292423,2022-11-26_24h18.58.709,vts_reward_expectancy_bt,2022.2.4,MacIntel,59.99880002,Chrome,1440,900,,,,,0,1046,,,,,,,,,,,,,,,,,S,139,triangle,1,1,,,,,,,,,,,,,,,,repeat,letter,lettRpt,f,0.6643,Hi,,,,,,2,,,,,,,,high,6,0,6,0,1,,,,,,,,,
292423,2022-11-26_24h18.58.709,vts_reward_expectancy_bt,2022.2.4,MacIntel,59.99880002,Chrome,1440,900,,,,,0,1046,,,,,,,,,,,,,,,,,W,174,circle,1,0,,,,,,,,,,,,,,,,repeat,letter,lettRpt,f,0.663,Hi,,,,,,2,,,,,,,,high,7,0,7,0,1,,,,,,,,,
292423,2022-11-26_24h18.58.709,vts_reward_expectancy_bt,2022.2.4,MacIntel,59.99880002,Chrome,1440,900,,,,,0,1046,,,,,,,,,,,,,,,,,H,146,star,0,0,,,,,,,,,,,,,,,,repeat,letter,NA,f,0.6409,Hi,,,,,,2,,,,,,,,high,8,0,8,0,1,,,,,,,,,
292423,2022-11-26_24h18.58.709,vts_reward_expectancy_bt,2022.2.4,MacIntel,59.99880002,Chrome,1440,900,,,,,1,1047,,,,,,,,,,,,,,,,,B,125,circle,1,1,,,,,,,,,,,,,,,,repeat,letter,lettRpt,d,0.5176,Hi,,,,,,2,,,,,,,,high,9,0,9,0,1,,,,,,,,,
292423,2022-11-26_24h18.58.709,vts_reward_expectancy_bt,2022.2.4,MacIntel,59.99880002,Chrome,1440,900,,,,,10,1057,,,,,,,,,,,,,,,,,F,167,triangle,1,0,,,,,,,,,,,,,,,,switch,number,numSwt,k,0.602,Hi,,,,,,2,,,,,,,,high,10,0,10,0,1,,,,,,,,,
292423,2022-11-26_24h18.58.709,vts_reward_expectancy_bt,2022.2.4,MacIntel,59.99880002,Chrome,1440,900,,,,,0,1057,,,,,,,,,,,,,,,,,U,181,hexagon,0,0,,,,,,,,,,,,,,,,switch,letter,NA,d,0.6496,Hi,,,,,,2,,,,,,,,high,11,0,11,0,1,,,,,,,,,
292423,2022-11-26_24h18.58.709,vts_reward_expectancy_bt,2022.2.4,MacIntel,59.99880002,Chrome,1440,900,,,,,0,1057,,,,,,,,,,,,,,,,,Y,132,circle,1,1,,,,,,,,,,,,,,,,repeat,letter,lettRpt,f,0.5811,Hi,,,,,,2,,,,,,,,high,12,0,12,0,1,,,,,,,,,
292423,2022-11-26_24h18.58.709,vts_reward_expectancy_bt,2022.2.4,MacIntel,59.99880002,Chrome,1440,900,,,,,1,1058,,,,,,,,,,,,,,,,,D,160,star,1,0,,,,,,,,,,,,,,,,repeat,letter,lettRpt,d,0.4318,Lo,,,,,,2,,,,,,,,high,13,0,13,0,1,,,,,,,,,
292423,2022-11-26_24h18.58.709,vts_reward_expectancy_bt,2022.2.4,MacIntel,59.99880002,Chrome,1440,900,,,,,10,1068,,,,,,,,,,,,,,,,,S,139,triangle,1,0,,,,,,,,,,,,,,,,switch,number,numSwt,j,0.5797,Hi,,,,,,2,,,,,,,,high,14,0,14,0,1,,,,,,,,,
292423,2022-11-26_24h18.58.709,vts_reward_expectancy_bt,2022.2.4,MacIntel,59.99880002,Chrome,1440,900,,,,,1,1069,,,,,,,,,,,,,,,,,W,174,hexagon,1,0,,,,,,,,,,,,,,,,repeat,number,numRpt,k,0.5688,Lo,,,,,,2,,,,,,,,high,15,0,15,0,1,,,,,,,,,
292423,2022-11-26_24h18.58.709,vts_reward_expectancy_bt,2022.2.4,MacIntel,59.99880002,Chrome,1440,900,,,,,10,1079,,,,,,,,,,,,,,,,,F,132,star,1,0,,,,,,,,,,,,,,,,repeat,number,numRpt,j,0.5824,Lo,,,,,,2,,,,,,,,high,16,0,16,0,1,,,,,,,,,
292423,2022-11-26_24h18.58.709,vts_reward_expectancy_bt,2022.2.4,MacIntel,59.99880002,Chrome,1440,900,,,,,10,1089,,,,,,,,,,,,,,,,,Y,125,hexagon,1,0,,,,,,,,,,,,,,,,switch,letter,lettSwt,f,0.6207,Lo,,,,,,2,,,,,,,,high,17,0,17,0,1,,,,,,,,,
292423,2022-11-26_24h18.58.709,vts_reward_expectancy_bt,2022.2.4,MacIntel,59.99880002,Chrome,1440,900,,,,,10,1099,,,,,,,,,,,,,,,,,D,160,circle,1,0,,,,,,,,,,,,,,,,switch,number,numSwt,k,0.5489,Hi,,,,,,2,,,,,,,,high,18,0,18,0,1,,,,,,,,,
292423,2022-11-26_24h18.58.709,vts_reward_expectancy_bt,2022.2.4,MacIntel,59.99880002,Chrome,1440,900,,,,,0,1099,,,,,,,,,,,,,,,,,B,146,triangle,1,0,,,,,,,,,,,,,,,,repeat,number,numRpt,j,0.6591,Hi,,,,,,2,,,,,,,,high,19,0,19,0,1,,,,,,,,,
292423,2022-11-26_24h18.58.709,vts_reward_expectancy_bt,2022.2.4,MacIntel,59.99880002,Chrome,1440,900,,,,,0,1099,,,,,,,,,,,,,,,,,U,181,triangle,1,0,,,,,,,,,,,,,,,,repeat,number,numRpt,k,0.553,Hi,,,,,,2,,,,,,,,high,20,0,20,0,1,,,,,,,,,
292423,2022-11-26_24h18.58.709,vts_reward_expectancy_bt,2022.2.4,MacIntel,59.99880002,Chrome,1440,900,,,,,1,1100,,,,,,,,,,,,,,,,,W,174,star,1,0,,,,,,,,,,,,,,,,repeat,number,numRpt,k,0.6285,Lo,,,,,,2,,,,,,,,high,21,0,21,0,1,,,,,,,,,
292423,2022-11-26_24h18.58.709,vts_reward_expectancy_bt,2022.2.4,MacIntel,59.99880002,Chrome,1440,900,,,,,0,1100,,,,,,,,,,,,,,,,,S,139,circle,1,0,,,,,,,,,,,,,,,,repeat,number,numRpt,j,0.6793,Hi,,,,,,2,,,,,,,,high,22,0,22,0,1,,,,,,,,,
292423,2022-11-26_24h18.58.709,vts_reward_expectancy_bt,2022.2.4,MacIntel,59.99880002,Chrome,1440,900,,,,,10,1110,,,,,,,,,,,,,,,,,H,167,hexagon,1,0,,,,,,,,,,,,,,,,switch,letter,lettSwt,d,0.7355,Lo,,,,,,2,,,,,,,,high,23,0,23,0,1,,,,,,,,,
292423,2022-11-26_24h18.58.709,vts_reward_expectancy_bt,2022.2.4,MacIntel,59.99880002,Chrome,1440,900,,,,,10,1120,,,,,,,,,,,,,,,,,U,139,triangle,1,0,,,,,,,,,,,,,,,,switch,number,numSwt,j,0.5362,Hi,,,,,,2,,,,,,,,high,24,0,24,0,1,,,,,,,,,
292423,2022-11-26_24h18.58.709,vts_reward_expectancy_bt,2022.2.4,MacIntel,59.99880002,Chrome,1440,900,,,,,1,1121,,,,,,,,,,,,,,,,,W,167,hexagon,1,0,,,,,,,,,,,,,,,,switch,letter,lettSwt,f,0.5326,Lo,,,,,,2,,,,,,,,high,25,0,25,0,1,,,,,,,,,
292423,2022-11-26_24h18.58.709,vts_reward_expectancy_bt,2022.2.4,MacIntel,59.99880002,Chrome,1440,900,,,,,0,1121,,,,,,,,,,,,,,,,,F,174,star,0,0,,,,,,,,,,,,,,,,repeat,letter,NA,f,0.687,Lo,,,,,,2,,,,,,,,high,26,0,26,0,1,,,,,,,,,
292423,2022-11-26_24h18.58.709,vts_reward_expectancy_bt,2022.2.4,MacIntel,59.99880002,Chrome,1440,900,,,,,0,1121,,,,,,,,,,,,,,,,,B,181,circle,1,1,,,,,,,,,,,,,,,,repeat,letter,lettRpt,d,0.5498,Hi,,,,,,2,,,,,,,,high,27,0,27,0,1,,,,,,,,,
292423,2022-11-26_24h18.58.709,vts_reward_expectancy_bt,2022.2.4,MacIntel,59.99880002,Chrome,1440,900,,,,,0,1121,,,,,,,,,,,,,,,,,H,146,triangle,1,0,,,,,,,,,,,,,,,,switch,number,numSwt,j,0.6522,Hi,,,,,,2,,,,,,,,high,28,0,28,0,1,,,,,,,,,
292423,2022-11-26_24h18.58.709,vts_reward_expectancy_bt,2022.2.4,MacIntel,59.99880002,Chrome,1440,900,,,,,1,1122,,,,,,,,,,,,,,,,,D,132,hexagon,1,0,,,,,,,,,,,,,,,,switch,letter,lettSwt,d,0.5684,Lo,,,,,,2,,,,,,,,high,29,0,29,0,1,,,,,,,,,
292423,2022-11-26_24h18.58.709,vts_reward_expectancy_bt,2022.2.4,MacIntel,59.99880002,Chrome,1440,900,,,,,0,1122,,,,,,,,,,,,,,,,,S,125,circle,1,0,,,,,,,,,,,,,,,,switch,number,numSwt,j,0.6478,Hi,,,,,,2,,,,,,,,high,30,0,30,0,1,,,,,,,,,
292423,2022-11-26_24h18.58.709,vts_reward_expectancy_bt,2022.2.4,MacIntel,59.99880002,Chrome,1440,900,,,,,1,1123,,,,,,,,,,,,,,,,,Y,160,star,1,0,,,,,,,,,,,,,,,,repeat,number,numRpt,k,0.4819,Lo,,,,,,2,,,,,,,,high,31,0,31,0,1,,,,,,,,,
292423,2022-11-26_24h18.58.709,vts_reward_expectancy_bt,2022.2.4,MacIntel,59.99880002,Chrome,1440,900,,,,,0,1123,,,,,,,,,,,,,,,,,Y,160,circle,1,0,,,,,,,,,,,,,,,,switch,letter,lettSwt,f,0.8003,Hi,,,,,,3,,,,,,space,8.1598,high,0,0,0,0,1,,,,,,,,,
292423,2022-11-26_24h18.58.709,vts_reward_expectancy_bt,2022.2.4,MacIntel,59.99880002,Chrome,1440,900,,,,,10,1133,,,,,,,,,,,,,,,,,B,167,star,1,0,,,,,,,,,,,,,,,,repeat,letter,lettRpt,d,0.4655,Lo,,,,,,3,,,,,,,,high,1,0,1,0,1,,,,,,,,,
292423,2022-11-26_24h18.58.709,vts_reward_expectancy_bt,2022.2.4,MacIntel,59.99880002,Chrome,1440,900,,,,,0,1133,,,,,,,,,,,,,,,,,S,132,triangle,1,0,,,,,,,,,,,,,,,,switch,number,numSwt,j,0.5879,Hi,,,,,,3,,,,,,,,high,2,0,2,0,1,,,,,,,,,
292423,2022-11-26_24h18.58.709,vts_reward_expectancy_bt,2022.2.4,MacIntel,59.99880002,Chrome,1440,900,,,,,0,1133,,,,,,,,,,,,,,,,,H,125,hexagon,0,0,,,,,,,,,,,,,,,,switch,letter,NA,f,0.4678,Hi,,,,,,3,,,,,,,,high,3,0,3,0,1,,,,,,,,,
292423,2022-11-26_24h18.58.709,vts_reward_expectancy_bt,2022.2.4,MacIntel,59.99880002,Chrome,1440,900,,,,,0,1133,,,,,,,,,,,,,,,,,W,181,circle,0,1,,,,,,,,,,,,,,,,repeat,letter,NA,d,0.5197,Hi,,,,,,3,,,,,,,,high,4,0,4,0,1,,,,,,,,,
292423,2022-11-26_24h18.58.709,vts_reward_expectancy_bt,2022.2.4,MacIntel,59.99880002,Chrome,1440,900,,,,,1,1134,,,,,,,,,,,,,,,,,U,174,star,1,1,,,,,,,,,,,,,,,,repeat,letter,lettRpt,f,0.6985,Lo,,,,,,3,,,,,,,,high,5,0,5,0,1,,,,,,,,,
292423,2022-11-26_24h18.58.709,vts_reward_expectancy_bt,2022.2.4,MacIntel,59.99880002,Chrome,1440,900,,,,,10,1144,,,,,,,,,,,,,,,,,D,139,triangle,1,0,,,,,,,,,,,,,,,,switch,number,numSwt,j,0.509,Hi,,,,,,3,,,,,,,,high,6,0,6,0,1,,,,,,,,,
292423,2022-11-26_24h18.58.709,vts_reward_expectancy_bt,2022.2.4,MacIntel,59.99880002,Chrome,1440,900,,,,,0,1144,,,,,,,,,,,,,,,,,F,146,hexagon,0,0,,,,,,,,,,,,,,,,switch,letter,NA,f,0.7985,Hi,,,,,,3,,,,,,,,high,7,0,7,0,1,,,,,,,,,
292423,2022-11-26_24h18.58.709,vts_reward_expectancy_bt,2022.2.4,MacIntel,59.99880002,Chrome,1440,900,,,,,1,1145,,,,,,,,,,,,,,,,,Y,160,hexagon,1,1,,,,,,,,,,,,,,,,repeat,letter,lettRpt,f,0.5533,Lo,,,,,,3,,,,,,,,high,8,0,8,0,1,,,,,,,,,
292423,2022-11-26_24h18.58.709,vts_reward_expectancy_bt,2022.2.4,MacIntel,59.99880002,Chrome,1440,900,,,,,1,1146,,,,,,,,,,,,,,,,,B,167,star,1,0,,,,,,,,,,,,,,,,repeat,letter,lettRpt,d,0.5523,Lo,,,,,,3,,,,,,,,high,9,0,9,0,1,,,,,,,,,
292423,2022-11-26_24h18.58.709,vts_reward_expectancy_bt,2022.2.4,MacIntel,59.99880002,Chrome,1440,900,,,,,0,1146,,,,,,,,,,,,,,,,,S,132,circle,1,0,,,,,,,,,,,,,,,,repeat,letter,lettRpt,f,0.6319,Hi,,,,,,3,,,,,,,,high,10,0,10,0,1,,,,,,,,,
292423,2022-11-26_24h18.58.709,vts_reward_expectancy_bt,2022.2.4,MacIntel,59.99880002,Chrome,1440,900,,,,,10,1156,,,,,,,,,,,,,,,,,H,125,triangle,1,0,,,,,,,,,,,,,,,,switch,number,numSwt,j,0.4969,Hi,,,,,,3,,,,,,,,high,11,0,11,0,1,,,,,,,,,
292423,2022-11-26_24h18.58.709,vts_reward_expectancy_bt,2022.2.4,MacIntel,59.99880002,Chrome,1440,900,,,,,1,1157,,,,,,,,,,,,,,,,,W,181,star,1,0,,,,,,,,,,,,,,,,repeat,number,numRpt,k,0.6465,Lo,,,,,,3,,,,,,,,high,12,0,12,0,1,,,,,,,,,
292423,2022-11-26_24h18.58.709,vts_reward_expectancy_bt,2022.2.4,MacIntel,59.99880002,Chrome,1440,900,,,,,1,1158,,,,,,,,,,,,,,,,,U,174,hexagon,1,0,,,,,,,,,,,,,,,,switch,letter,lettSwt,f,0.6497,Lo,,,,,,3,,,,,,,,high,13,0,13,0,1,,,,,,,,,
292423,2022-11-26_24h18.58.709,vts_reward_expectancy_bt,2022.2.4,MacIntel,59.99880002,Chrome,1440,900,,,,,10,1168,,,,,,,,,,,,,,,,,D,139,triangle,1,0,,,,,,,,,,,,,,,,switch,number,numSwt,j,0.519,Hi,,,,,,3,,,,,,,,high,14,0,14,0,1,,,,,,,,,
292423,2022-11-26_24h18.58.709,vts_reward_expectancy_bt,2022.2.4,MacIntel,59.99880002,Chrome,1440,900,,,,,0,1168,,,,,,,,,,,,,,,,,F,146,circle,1,0,,,,,,,,,,,,,,,,repeat,number,numRpt,j,0.7689,Hi,,,,,,3,,,,,,,,high,15,0,15,0,1,,,,,,,,,
292423,2022-11-26_24h18.58.709,vts_reward_expectancy_bt,2022.2.4,MacIntel,59.99880002,Chrome,1440,900,,,,,1,1169,,,,,,,,,,,,,,,,,H,160,hexagon,1,0,,,,,,,,,,,,,,,,repeat,number,numRpt,k,0.468,Lo,,,,,,3,,,,,,,,high,16,0,16,0,1,,,,,,,,,
292423,2022-11-26_24h18.58.709,vts_reward_expectancy_bt,2022.2.4,MacIntel,59.99880002,Chrome,1440,900,,,,,10,1179,,,,,,,,,,,,,,,,,D,174,star,1,0,,,,,,,,,,,,,,,,repeat,number,numRpt,k,0.4306,Lo,,,,,,3,,,,,,,,high,17,0,17,0,1,,,,,,,,,
292423,2022-11-26_24h18.58.709,vts_reward_expectancy_bt,2022.2.4,MacIntel,59.99880002,Chrome,1440,900,,,,,10,1189,,,,,,,,,,,,,,,,,B,181,circle,1,0,,,,,,,,,,,,,,,,repeat,number,numRpt,k,0.4816,Hi,,,,,,3,,,,,,,,high,18,0,18,0,1,,,,,,,,,
292423,2022-11-26_24h18.58.709,vts_reward_expectancy_bt,2022.2.4,MacIntel,59.99880002,Chrome,1440,900,,,,,10,1199,,,,,,,,,,,,,,,,,F,167,triangle,1,0,,,,,,,,,,,,,,,,repeat,number,numRpt,k,0.5317,Hi,,,,,,3,,,,,,,,high,19,0,19,0,1,,,,,,,,,
292423,2022-11-26_24h18.58.709,vts_reward_expectancy_bt,2022.2.4,MacIntel,59.99880002,Chrome,1440,900,,,,,0,1199,,,,,,,,,,,,,,,,,U,146,triangle,1,0,,,,,,,,,,,,,,,,repeat,number,numRpt,j,0.5937,Hi,,,,,,3,,,,,,,,high,20,0,20,0,1,,,,,,,,,
292423,2022-11-26_24h18.58.709,vts_reward_expectancy_bt,2022.2.4,MacIntel,59.99880002,Chrome,1440,900,,,,,1,1200,,,,,,,,,,,,,,,,,S,132,star,1,0,,,,,,,,,,,,,,,,repeat,number,numRpt,j,0.4483,Lo,,,,,,3,,,,,,,,high,21,0,21,0,1,,,,,,,,,
292423,2022-11-26_24h18.58.709,vts_reward_expectancy_bt,2022.2.4,MacIntel,59.99880002,Chrome,1440,900,,,,,0,1200,,,,,,,,,,,,,,,,,Y,139,circle,1,0,,,,,,,,,,,,,,,,repeat,number,numRpt,j,0.5489,Hi,,,,,,3,,,,,,,,high,22,0,22,0,1,,,,,,,,,
292423,2022-11-26_24h18.58.709,vts_reward_expectancy_bt,2022.2.4,MacIntel,59.99880002,Chrome,1440,900,,,,,1,1201,,,,,,,,,,,,,,,,,W,125,hexagon,1,0,,,,,,,,,,,,,,,,repeat,number,numRpt,j,0.4385,Lo,,,,,,3,,,,,,,,high,23,0,23,0,1,,,,,,,,,
292423,2022-11-26_24h18.58.709,vts_reward_expectancy_bt,2022.2.4,MacIntel,59.99880002,Chrome,1440,900,,,,,10,1211,,,,,,,,,,,,,,,,,Y,167,triangle,1,0,,,,,,,,,,,,,,,,repeat,number,numRpt,k,0.4019,Hi,,,,,,3,,,,,,,,high,24,0,24,0,1,,,,,,,,,
292423,2022-11-26_24h18.58.709,vts_reward_expectancy_bt,2022.2.4,MacIntel,59.99880002,Chrome,1440,900,,,,,10,1221,,,,,,,,,,,,,,,,,F,160,hexagon,1,0,,,,,,,,,,,,,,,,switch,letter,lettSwt,d,0.5837,Lo,,,,,,3,,,,,,,,high,25,0,25,0,1,,,,,,,,,
292423,2022-11-26_24h18.58.709,vts_reward_expectancy_bt,2022.2.4,MacIntel,59.99880002,Chrome,1440,900,,,,,0,1221,,,,,,,,,,,,,,,,,U,174,circle,1,0,,,,,,,,,,,,,,,,repeat,letter,lettRpt,f,0.5872,Hi,,,,,,3,,,,,,,,high,26,0,26,0,1,,,,,,,,,
292423,2022-11-26_24h18.58.709,vts_reward_expectancy_bt,2022.2.4,MacIntel,59.99880002,Chrome,1440,900,,,,,1,1222,,,,,,,,,,,,,,,,,S,181,star,1,0,,,,,,,,,,,,,,,,repeat,letter,lettRpt,f,0.5813,Lo,,,,,,3,,,,,,,,high,27,0,27,0,1,,,,,,,,,
292423,2022-11-26_24h18.58.709,vts_reward_expectancy_bt,2022.2.4,MacIntel,59.99880002,Chrome,1440,900,,,,,10,1232,,,,,,,,,,,,,,,,,H,146,hexagon,1,0,,,,,,,,,,,,,,,,repeat,letter,lettRpt,d,0.5808,Lo,,,,,,3,,,,,,,,high,28,0,28,0,1,,,,,,,,,
292423,2022-11-26_24h18.58.709,vts_reward_expectancy_bt,2022.2.4,MacIntel,59.99880002,Chrome,1440,900,,,,,1,1233,,,,,,,,,,,,,,,,,W,132,star,1,0,,,,,,,,,,,,,,,,repeat,letter,lettRpt,f,0.4832,Lo,,,,,,3,,,,,,,,high,29,0,29,0,1,,,,,,,,,
292423,2022-11-26_24h18.58.709,vts_reward_expectancy_bt,2022.2.4,MacIntel,59.99880002,Chrome,1440,900,,,,,10,1243,,,,,,,,,,,,,,,,,D,139,triangle,1,0,,,,,,,,,,,,,,,,switch,number,numSwt,j,0.5347,Hi,,,,,,3,,,,,,,,high,30,0,30,0,1,,,,,,,,,
292423,2022-11-26_24h18.58.709,vts_reward_expectancy_bt,2022.2.4,MacIntel,59.99880002,Chrome,1440,900,,,,,1,1244,,,,,,,,,,,,,,,,,B,125,circle,1,0,,,,,,,,,,,,,,,,repeat,number,numRpt,j,0.4496,Hi,,,,,,3,,,,,,,,high,31,0,31,0,1,,,,,,,,,
292423,2022-11-26_24h18.58.709,vts_reward_expectancy_bt,2022.2.4,MacIntel,59.99880002,Chrome,1440,900,,,,,1,1245,,,,,,,,,,,,,,,,,B,167,star,1,0,,,,,,,,,,,,,,,,switch,letter,lettSwt,d,0.5417,Lo,,,,,,4,,,,,,space,0.8931,high,0,0,0,0,1,,,,,,,,,
292423,2022-11-26_24h18.58.709,vts_reward_expectancy_bt,2022.2.4,MacIntel,59.99880002,Chrome,1440,900,,,,,10,1255,,,,,,,,,,,,,,,,,S,181,hexagon,1,0,,,,,,,,,,,,,,,,repeat,letter,lettRpt,f,0.4888,Lo,,,,,,4,,,,,,,,high,1,0,1,0,1,,,,,,,,,
292423,2022-11-26_24h18.58.709,vts_reward_expectancy_bt,2022.2.4,MacIntel,59.99880002,Chrome,1440,900,,,,,0,1255,,,,,,,,,,,,,,,,,U,160,triangle,0,0,,,,,,,,,,,,,,,,switch,number,NA,j,0.4181,Lo,,,,,,4,,,,,,,,high,2,0,2,0,1,,,,,,,,,
292423,2022-11-26_24h18.58.709,vts_reward_expectancy_bt,2022.2.4,MacIntel,59.99880002,Chrome,1440,900,,,,,10,1265,,,,,,,,,,,,,,,,,D,132,circle,1,1,,,,,,,,,,,,,,,,switch,letter,lettSwt,d,0.5829,Hi,,,,,,4,,,,,,,,high,3,0,3,0,1,,,,,,,,,
292423,2022-11-26_24h18.58.709,vts_reward_expectancy_bt,2022.2.4,MacIntel,59.99880002,Chrome,1440,900,,,,,0,1265,,,,,,,,,,,,,,,,,H,146,star,0,0,,,,,,,,,,,,,,,,switch,number,NA,k,0.4983,Hi,,,,,,4,,,,,,,,high,4,0,4,0,1,,,,,,,,,
292423,2022-11-26_24h18.58.709,vts_reward_expectancy_bt,2022.2.4,MacIntel,59.99880002,Chrome,1440,900,,,,,1,1266,,,,,,,,,,,,,,,,,Y,174,hexagon,1,1,,,,,,,,,,,,,,,,repeat,number,numRpt,k,0.6133,Lo,,,,,,4,,,,,,,,high,5,0,5,0,1,,,,,,,,,
292423,2022-11-26_24h18.58.709,vts_reward_expectancy_bt,2022.2.4,MacIntel,59.99880002,Chrome,1440,900,,,,,0,1266,,,,,,,,,,,,,,,,,W,125,triangle,0,0,,,,,,,,,,,,,,,,repeat,number,NA,k,0.9166,Lo,,,,,,4,,,,,,,,high,6,0,6,0,1,,,,,,,,,
292423,2022-11-26_24h18.58.709,vts_reward_expectancy_bt,2022.2.4,MacIntel,59.99880002,Chrome,1440,900,,,,,0,1266,,,,,,,,,,,,,,,,,F,139,circle,1,1,,,,,,,,,,,,,,,,repeat,number,numRpt,j,0.58,Hi,,,,,,4,,,,,,,,high,7,0,7,0,1,,,,,,,,,
292423,2022-11-26_24h18.58.709,vts_reward_expectancy_bt,2022.2.4,MacIntel,59.99880002,Chrome,1440,900,,,,,0,1266,,,,,,,,,,,,,,,,,B,167,triangle,1,0,,,,,,,,,,,,,,,,repeat,number,numRpt,k,0.5478,Hi,,,,,,4,,,,,,,,high,8,0,8,0,1,,,,,,,,,
292423,2022-11-26_24h18.58.709,vts_reward_expectancy_bt,2022.2.4,MacIntel,59.99880002,Chrome,1440,900,,,,,10,1276,,,,,,,,,,,,,,,,,S,181,circle,1,0,,,,,,,,,,,,,,,,repeat,number,numRpt,k,0.4138,Hi,,,,,,4,,,,,,,,high,9,0,9,0,1,,,,,,,,,
292423,2022-11-26_24h18.58.709,vts_reward_expectancy_bt,2022.2.4,MacIntel,59.99880002,Chrome,1440,900,,,,,1,1277,,,,,,,,,,,,,,,,,U,160,hexagon,1,0,,,,,,,,,,,,,,,,repeat,number,numRpt,k,0.4634,Lo,,,,,,4,,,,,,,,high,10,0,10,0,1,,,,,,,,,
292423,2022-11-26_24h18.58.709,vts_reward_expectancy_bt,2022.2.4,MacIntel,59.99880002,Chrome,1440,900,,,,,0,1277,,,,,,,,,,,,,,,,,D,132,star,0,0,,,,,,,,,,,,,,,,switch,letter,NA,f,0.4685,Lo,,,,,,4,,,,,,,,high,11,0,11,0,1,,,,,,,,,
292423,2022-11-26_24h18.58.709,vts_reward_expectancy_bt,2022.2.4,MacIntel,59.99880002,Chrome,1440,900,,,,,1,1278,,,,,,,,,,,,,,,,,H,146,star,1,1,,,,,,,,,,,,,,,,repeat,letter,lettRpt,d,0.5645,Lo,,,,,,4,,,,,,,,high,12,0,12,0,1,,,,,,,,,
292423,2022-11-26_24h18.58.709,vts_reward_expectancy_bt,2022.2.4,MacIntel,59.99880002,Chrome,1440,900,,,,,0,1278,,,,,,,,,,,,,,,,,Y,174,circle,1,0,,,,,,,,,,,,,,,,repeat,letter,lettRpt,f,0.57,Hi,,,,,,4,,,,,,,,high,13,0,13,0,1,,,,,,,,,
292423,2022-11-26_24h18.58.709,vts_reward_expectancy_bt,2022.2.4,MacIntel,59.99880002,Chrome,1440,900,,,,,10,1288,,,,,,,,,,,,,,,,,W,125,hexagon,1,0,,,,,,,,,,,,,,,,repeat,letter,lettRpt,f,0.4813,Lo,,,,,,4,,,,,,,,high,14,0,14,0,1,,,,,,,,,
292423,2022-11-26_24h18.58.709,vts_reward_expectancy_bt,2022.2.4,MacIntel,59.99880002,Chrome,1440,900,,,,,10,1298,,,,,,,,,,,,,,,,,F,139,triangle,1,0,,,,,,,,,,,,,,,,switch,number,numSwt,j,0.4667,Hi,,,,,,4,,,,,,,,high,15,0,15,0,1,,,,,,,,,
292423,2022-11-26_24h18.58.709,vts_reward_expectancy_bt,2022.2.4,MacIntel,59.99880002,Chrome,1440,900,,,,,1,1299,,,,,,,,,,,,,,,,,W,160,hexagon,1,0,,,,,,,,,,,,,,,,repeat,number,numRpt,k,0.4136,Lo,,,,,,4,,,,,,,,high,16,0,16,0,1,,,,,,,,,
292423,2022-11-26_24h18.58.709,vts_reward_expectancy_bt,2022.2.4,MacIntel,59.99880002,Chrome,1440,900,,,,,1,1300,,,,,,,,,,,,,,,,,U,132,star,1,0,,,,,,,,,,,,,,,,repeat,number,numRpt,j,0.4645,Lo,,,,,,4,,,,,,,,high,17,0,17,0,1,,,,,,,,,
292423,2022-11-26_24h18.58.709,vts_reward_expectancy_bt,2022.2.4,MacIntel,59.99880002,Chrome,1440,900,,,,,10,1310,,,,,,,,,,,,,,,,,H,174,triangle,1,0,,,,,,,,,,,,,,,,repeat,number,numRpt,k,0.3964,Hi,,,,,,4,,,,,,,,high,18,0,18,0,1,,,,,,,,,
292423,2022-11-26_24h18.58.709,vts_reward_expectancy_bt,2022.2.4,MacIntel,59.99880002,Chrome,1440,900,,,,,1,1311,,,,,,,,,,,,,,,,,Y,125,circle,1,0,,,,,,,,,,,,,,,,switch,letter,lettSwt,f,0.4316,Hi,,,,,,4,,,,,,,,high,19,0,19,0,1,,,,,,,,,
292423,2022-11-26_24h18.58.709,vts_reward_expectancy_bt,2022.2.4,MacIntel,59.99880002,Chrome,1440,900,,,,,0,1311,,,,,,,,,,,,,,,,,S,181,hexagon,0,0,,,,,,,,,,,,,,,,repeat,letter,NA,d,0.5647,Hi,,,,,,4,,,,,,,,high,20,0,20,0,1,,,,,,,,,
292423,2022-11-26_24h18.58.709,vts_reward_expectancy_bt,2022.2.4,MacIntel,59.99880002,Chrome,1440,900,,,,,0,1311,,,,,,,,,,,,,,,,,D,146,star,0,1,,,,,,,,,,,,,,,,switch,number,NA,k,0.5654,Hi,,,,,,4,,,,,,,,high,21,0,21,0,1,,,,,,,,,
292423,2022-11-26_24h18.58.709,vts_reward_expectancy_bt,2022.2.4,MacIntel,59.99880002,Chrome,1440,900,,,,,0,1311,,,,,,,,,,,,,,,,,F,139,circle,1,1,,,,,,,,,,,,,,,,repeat,number,numRpt,j,0.5326,Hi,,,,,,4,,,,,,,,high,22,0,22,0,1,,,,,,,,,
292423,2022-11-26_24h18.58.709,vts_reward_expectancy_bt,2022.2.4,MacIntel,59.99880002,Chrome,1440,900,,,,,1,1312,,,,,,,,,,,,,,,,,B,167,triangle,1,0,,,,,,,,,,,,,,,,repeat,number,numRpt,k,0.3471,Hi,,,,,,4,,,,,,,,high,23,0,23,0,1,,,,,,,,,
292423,2022-11-26_24h18.58.709,vts_reward_expectancy_bt,2022.2.4,MacIntel,59.99880002,Chrome,1440,900,,,,,10,1322,,,,,,,,,,,,,,,,,D,174,hexagon,1,0,,,,,,,,,,,,,,,,repeat,number,numRpt,k,0.4854,Lo,,,,,,4,,,,,,,,high,24,0,24,0,1,,,,,,,,,
292423,2022-11-26_24h18.58.709,vts_reward_expectancy_bt,2022.2.4,MacIntel,59.99880002,Chrome,1440,900,,,,,1,1323,,,,,,,,,,,,,,,,,Y,160,star,1,0,,,,,,,,,,,,,,,,switch,letter,lettSwt,f,0.5131,Lo,,,,,,4,,,,,,,,high,25,0,25,0,1,,,,,,,,,
292423,2022-11-26_24h18.58.709,vts_reward_expectancy_bt,2022.2.4,MacIntel,59.99880002,Chrome,1440,900,,,,,0,1323,,,,,,,,,,,,,,,,,U,146,triangle,1,0,,,,,,,,,,,,,,,,switch,number,numSwt,j,0.6039,Hi,,,,,,4,,,,,,,,high,26,0,26,0,1,,,,,,,,,
292423,2022-11-26_24h18.58.709,vts_reward_expectancy_bt,2022.2.4,MacIntel,59.99880002,Chrome,1440,900,,,,,0,1323,,,,,,,,,,,,,,,,,S,139,circle,1,0,,,,,,,,,,,,,,,,repeat,number,numRpt,j,0.52,Hi,,,,,,4,,,,,,,,high,27,0,27,0,1,,,,,,,,,
292423,2022-11-26_24h18.58.709,vts_reward_expectancy_bt,2022.2.4,MacIntel,59.99880002,Chrome,1440,900,,,,,0,1323,,,,,,,,,,,,,,,,,W,125,circle,1,0,,,,,,,,,,,,,,,,repeat,number,numRpt,j,0.518,Hi,,,,,,4,,,,,,,,high,28,0,28,0,1,,,,,,,,,
292423,2022-11-26_24h18.58.709,vts_reward_expectancy_bt,2022.2.4,MacIntel,59.99880002,Chrome,1440,900,,,,,1,1324,,,,,,,,,,,,,,,,,F,167,hexagon,1,0,,,,,,,,,,,,,,,,repeat,number,numRpt,k,0.466,Lo,,,,,,4,,,,,,,,high,29,0,29,0,1,,,,,,,,,
292423,2022-11-26_24h18.58.709,vts_reward_expectancy_bt,2022.2.4,MacIntel,59.99880002,Chrome,1440,900,,,,,0,1324,,,,,,,,,,,,,,,,,B,132,triangle,0,0,,,,,,,,,,,,,,,,repeat,number,NA,k,0.3316,Lo,,,,,,4,,,,,,,,high,30,0,30,0,1,,,,,,,,,
292423,2022-11-26_24h18.58.709,vts_reward_expectancy_bt,2022.2.4,MacIntel,59.99880002,Chrome,1440,900,,,,,1,1325,,,,,,,,,,,,,,,,,H,181,star,1,1,,,,,,,,,,,,,,,,repeat,number,numRpt,k,0.4333,Lo,,,,,,4,,,,,,,,high,31,0,31,0,1,,,,,,,,,
292423,2022-11-26_24h18.58.709,vts_reward_expectancy_bt,2022.2.4,MacIntel,59.99880002,Chrome,1440,900,,,,,1,1326,,,,,,,,,,,,,,,,,S,174,star,1,0,,,,,,,,,,,,,,,,repeat,number,numRpt,k,0.6167,Lo,,,,,,5,,,,,,space,4.9775,high,0,0,0,0,1,,,,,,,,,
292423,2022-11-26_24h18.58.709,vts_reward_expectancy_bt,2022.2.4,MacIntel,59.99880002,Chrome,1440,900,,,,,1,1327,,,,,,,,,,,,,,,,,W,181,hexagon,1,0,,,,,,,,,,,,,,,,repeat,number,numRpt,k,0.4547,Lo,,,,,,5,,,,,,,,high,1,0,1,0,1,,,,,,,,,
292423,2022-11-26_24h18.58.709,vts_reward_expectancy_bt,2022.2.4,MacIntel,59.99880002,Chrome,1440,900,,,,,0,1327,,,,,,,,,,,,,,,,,B,146,circle,1,0,,,,,,,,,,,,,,,,repeat,number,numRpt,j,0.5826,Hi,,,,,,5,,,,,,,,high,2,0,2,0,1,,,,,,,,,
292423,2022-11-26_24h18.58.709,vts_reward_expectancy_bt,2022.2.4,MacIntel,59.99880002,Chrome,1440,900,,,,,0,1327,,,,,,,,,,,,,,,,,Y,139,triangle,1,0,,,,,,,,,,,,,,,,repeat,number,numRpt,j,0.5393,Hi,,,,,,5,,,,,,,,high,3,0,3,0,1,,,,,,,,,
292423,2022-11-26_24h18.58.709,vts_reward_expectancy_bt,2022.2.4,MacIntel,59.99880002,Chrome,1440,900,,,,,1,1328,,,,,,,,,,,,,,,,,F,132,star,1,0,,,,,,,,,,,,,,,,repeat,number,numRpt,j,0.4647,Lo,,,,,,5,,,,,,,,high,4,0,4,0,1,,,,,,,,,
292423,2022-11-26_24h18.58.709,vts_reward_expectancy_bt,2022.2.4,MacIntel,59.99880002,Chrome,1440,900,,,,,10,1338,,,,,,,,,,,,,,,,,H,160,hexagon,1,0,,,,,,,,,,,,,,,,switch,letter,lettSwt,d,0.5644,Lo,,,,,,5,,,,,,,,high,5,0,5,0,1,,,,,,,,,
292423,2022-11-26_24h18.58.709,vts_reward_expectancy_bt,2022.2.4,MacIntel,59.99880002,Chrome,1440,900,,,,,0,1338,,,,,,,,,,,,,,,,,U,125,circle,1,0,,,,,,,,,,,,,,,,repeat,letter,lettRpt,f,0.5332,Hi,,,,,,5,,,,,,,,high,6,0,6,0,1,,,,,,,,,
292423,2022-11-26_24h18.58.709,vts_reward_expectancy_bt,2022.2.4,MacIntel,59.99880002,Chrome,1440,900,,,,,0,1338,,,,,,,,,,,,,,,,,D,167,triangle,1,0,,,,,,,,,,,,,,,,switch,number,numSwt,k,0.5402,Hi,,,,,,5,,,,,,,,high,7,0,7,0,1,,,,,,,,,
292423,2022-11-26_24h18.58.709,vts_reward_expectancy_bt,2022.2.4,MacIntel,59.99880002,Chrome,1440,900,,,,,1,1339,,,,,,,,,,,,,,,,,S,174,hexagon,1,0,,,,,,,,,,,,,,,,repeat,number,numRpt,k,0.4549,Lo,,,,,,5,,,,,,,,high,8,0,8,0,1,,,,,,,,,
292423,2022-11-26_24h18.58.709,vts_reward_expectancy_bt,2022.2.4,MacIntel,59.99880002,Chrome,1440,900,,,,,0,1339,,,,,,,,,,,,,,,,,W,181,circle,1,0,,,,,,,,,,,,,,,,switch,letter,lettSwt,f,0.5859,Hi,,,,,,5,,,,,,,,high,9,0,9,0,1,,,,,,,,,
292423,2022-11-26_24h18.58.709,vts_reward_expectancy_bt,2022.2.4,MacIntel,59.99880002,Chrome,1440,900,,,,,0,1339,,,,,,,,,,,,,,,,,B,146,star,0,0,,,,,,,,,,,,,,,,switch,number,NA,k,0.5052,Hi,,,,,,5,,,,,,,,high,10,0,10,0,1,,,,,,,,,
292423,2022-11-26_24h18.58.709,vts_reward_expectancy_bt,2022.2.4,MacIntel,59.99880002,Chrome,1440,900,,,,,0,1339,,,,,,,,,,,,,,,,,Y,139,triangle,1,1,,,,,,,,,,,,,,,,repeat,number,numRpt,j,0.5311,Hi,,,,,,5,,,,,,,,high,11,0,11,0,1,,,,,,,,,
292423,2022-11-26_24h18.58.709,vts_reward_expectancy_bt,2022.2.4,MacIntel,59.99880002,Chrome,1440,900,,,,,1,1340,,,,,,,,,,,,,,,,,F,132,triangle,1,0,,,,,,,,,,,,,,,,repeat,number,numRpt,j,0.3998,Hi,,,,,,5,,,,,,,,high,12,0,12,0,1,,,,,,,,,
292423,2022-11-26_24h18.58.709,vts_reward_expectancy_bt,2022.2.4,MacIntel,59.99880002,Chrome,1440,900,,,,,10,1350,,,,,,,,,,,,,,,,,H,160,circle,1,0,,,,,,,,,,,,,,,,switch,letter,lettSwt,d,0.4905,Hi,,,,,,5,,,,,,,,high,13,0,13,0,1,,,,,,,,,
292423,2022-11-26_24h18.58.709,vts_reward_expectancy_bt,2022.2.4,MacIntel,59.99880002,Chrome,1440,900,,,,,0,1350,,,,,,,,,,,,,,,,,U,125,star,0,0,,,,,,,,,,,,,,,,repeat,letter,NA,d,0.5381,Hi,,,,,,5,,,,,,,,high,14,0,14,0,1,,,,,,,,,
292423,2022-11-26_24h18.58.709,vts_reward_expectancy_bt,2022.2.4,MacIntel,59.99880002,Chrome,1440,900,,,,,10,1360,,,,,,,,,,,,,,,,,D,167,hexagon,1,1,,,,,,,,,,,,,,,,switch,number,numSwt,k,0.4836,Lo,,,,,,5,,,,,,,,high,15,0,15,0,1,,,,,,,,,
292423,2022-11-26_24h18.58.709,vts_reward_expectancy_bt,2022.2.4,MacIntel,59.99880002,Chrome,1440,900,,,,,10,1370,,,,,,,,,,,,,,,,,S,139,hexagon,1,0,,,,,,,,,,,,,,,,repeat,number,numRpt,j,0.5489,Lo,,,,,,5,,,,,,,,high,16,0,16,0,1,,,,,,,,,
292423,2022-11-26_24h18.58.709,vts_reward_expectancy_bt,2022.2.4,MacIntel,59.99880002,Chrome,1440,900,,,,,10,1380,,,,,,,,,,,,,,,,,H,132,star,1,0,,,,,,,,,,,,,,,,repeat,number,numRpt,j,0.4053,Lo,,,,,,5,,,,,,,,high,17,0,17,0,1,,,,,,,,,
292423,2022-11-26_24h18.58.709,vts_reward_expectancy_bt,2022.2.4,MacIntel,59.99880002,Chrome,1440,900,,,,,0,1380,,,,,,,,,,,,,,,,,W,160,circle,0,0,,,,,,,,,,,,,,,,repeat,number,NA,j,0.3813,Lo,,,,,,5,,,,,,,,high,18,0,18,0,1,,,,,,,,,
292423,2022-11-26_24h18.58.709,vts_reward_expectancy_bt,2022.2.4,MacIntel,59.99880002,Chrome,1440,900,,,,,0,1380,,,,,,,,,,,,,,,,,B,146,triangle,0,1,,,,,,,,,,,,,,,,repeat,number,NA,k,0.3972,Lo,,,,,,5,,,,,,,,high,19,0,19,0,1,,,,,,,,,
292423,2022-11-26_24h18.58.709,vts_reward_expectancy_bt,2022.2.4,MacIntel,59.99880002,Chrome,1440,900,,,,,0,1380,,,,,,,,,,,,,,,,,D,125,star,0,1,,,,,,,,,,,,,,,,repeat,number,NA,k,0.4159,Lo,,,,,,5,,,,,,,,high,20,0,20,0,1,,,,,,,,,
292423,2022-11-26_24h18.58.709,vts_reward_expectancy_bt,2022.2.4,MacIntel,59.99880002,Chrome,1440,900,,,,,10,1390,,,,,,,,,,,,,,,,,Y,181,circle,1,1,,,,,,,,,,,,,,,,repeat,number,numRpt,k,0.4174,Hi,,,,,,5,,,,,,,,high,21,0,21,0,1,,,,,,,,,
292423,2022-11-26_24h18.58.709,vts_reward_expectancy_bt,2022.2.4,MacIntel,59.99880002,Chrome,1440,900,,,,,1,1391,,,,,,,,,,,,,,,,,F,167,hexagon,1,0,,,,,,,,,,,,,,,,repeat,number,numRpt,k,0.3966,Lo,,,,,,5,,,,,,,,high,22,0,22,0,1,,,,,,,,,
292423,2022-11-26_24h18.58.709,vts_reward_expectancy_bt,2022.2.4,MacIntel,59.99880002,Chrome,1440,900,,,,,10,1401,,,,,,,,,,,,,,,,,U,174,triangle,1,0,,,,,,,,,,,,,,,,repeat,number,numRpt,k,0.3709,Hi,,,,,,5,,,,,,,,high,23,0,23,0,1,,,,,,,,,
292423,2022-11-26_24h18.58.709,vts_reward_expectancy_bt,2022.2.4,MacIntel,59.99880002,Chrome,1440,900,,,,,1,1402,,,,,,,,,,,,,,,,,B,174,star,1,0,,,,,,,,,,,,,,,,repeat,number,numRpt,k,0.3991,Lo,,,,,,5,,,,,,,,high,24,0,24,0,1,,,,,,,,,
292423,2022-11-26_24h18.58.709,vts_reward_expectancy_bt,2022.2.4,MacIntel,59.99880002,Chrome,1440,900,,,,,1,1403,,,,,,,,,,,,,,,,,Y,146,triangle,1,0,,,,,,,,,,,,,,,,repeat,number,numRpt,j,0.4006,Hi,,,,,,5,,,,,,,,high,25,0,25,0,1,,,,,,,,,
292423,2022-11-26_24h18.58.709,vts_reward_expectancy_bt,2022.2.4,MacIntel,59.99880002,Chrome,1440,900,,,,,0,1403,,,,,,,,,,,,,,,,,F,139,circle,1,0,,,,,,,,,,,,,,,,repeat,number,numRpt,j,0.4977,Hi,,,,,,5,,,,,,,,high,26,0,26,0,1,,,,,,,,,
292423,2022-11-26_24h18.58.709,vts_reward_expectancy_bt,2022.2.4,MacIntel,59.99880002,Chrome,1440,900,,,,,1,1404,,,,,,,,,,,,,,,,,D,125,hexagon,1,0,,,,,,,,,,,,,,,,switch,letter,lettSwt,d,0.4655,Lo,,,,,,5,,,,,,,,high,27,0,27,0,1,,,,,,,,,
292423,2022-11-26_24h18.58.709,vts_reward_expectancy_bt,2022.2.4,MacIntel,59.99880002,Chrome,1440,900,,,,,0,1404,,,,,,,,,,,,,,,,,S,160,triangle,1,0,,,,,,,,,,,,,,,,repeat,letter,lettRpt,f,0.532,Hi,,,,,,5,,,,,,,,high,28,0,28,0,1,,,,,,,,,
292423,2022-11-26_24h18.58.709,vts_reward_expectancy_bt,2022.2.4,MacIntel,59.99880002,Chrome,1440,900,,,,,0,1404,,,,,,,,,,,,,,,,,H,167,hexagon,0,0,,,,,,,,,,,,,,,,repeat,letter,NA,f,0.4495,Hi,,,,,,5,,,,,,,,high,29,0,29,0,1,,,,,,,,,
292423,2022-11-26_24h18.58.709,vts_reward_expectancy_bt,2022.2.4,MacIntel,59.99880002,Chrome,1440,900,,,,,1,1405,,,,,,,,,,,,,,,,,W,181,star,1,1,,,,,,,,,,,,,,,,repeat,letter,lettRpt,f,0.523,Lo,,,,,,5,,,,,,,,high,30,0,30,0,1,,,,,,,,,
292423,2022-11-26_24h18.58.709,vts_reward_expectancy_bt,2022.2.4,MacIntel,59.99880002,Chrome,1440,900,,,,,10,1415,,,,,,,,,,,,,,,,,U,132,circle,1,0,,,,,,,,,,,,,,,,repeat,letter,lettRpt,f,0.4499,Hi,,,,,,5,,,,,,,,high,31,0,31,0,1,,,,,,,,,
292423,2022-11-26_24h18.58.709,vts_reward_expectancy_bt,2022.2.4,MacIntel,59.99880002,Chrome,1440,900,,,,,10,1425,,,,,,,,,,,,,,,,,Y,125,star,1,0,,,,,,,,,,,,,,,,switch,number,numSwt,j,0.5716,Lo,,,,,,6,,,,,,space,0.407,high,0,0,0,0,1,,,,,,,,,
