participant,date,expName,psychopyVersion,OS,frameRate,browser,xResolution,yResolution,key_resp.keys,key_resp.rt,training_resp.keys,training_resp.rt,points_trial,points_cumul,trainBlock,training.thisRepN,training.thisTrialN,training.thisN,training.thisIndex,training.ran,LTriangleOpac,LCircleOpac,LHexagonOpac,LStarOpac,RTriangleOpac,RCircleOpac,RHexagonOpac,RStarOpac,LShape_ID,RShape_ID,curr_topStim,curr_bottStim,curr_shape,acc,E1,target_resp_prac1.keys,target_resp_prac1.rt,pracBlock,task1_prac_trials.thisRepN,task1_prac_trials.thisTrialN,task1_prac_trials.thisN,task1_prac_trials.thisIndex,task1_prac_trials.ran,target_resp_prac2.keys,target_resp_prac2.rt,task2_praac_trials.thisRepN,task2_praac_trials.thisTrialN,task2_praac_trials.thisN,task2_praac_trials.thisIndex,task2_praac_trials.ran,alt,task,condition,target_resp.keys,target_resp.rt,rewCond,vts_practice_trials.thisRepN,vts_practice_trials.thisTrialN,vts_practice_trials.thisN,vts_practice_trials.thisIndex,vts_practice_trials.ran,blockNum,trials_norew.thisRepN,trials_norew.thisTrialN,trials_norew.thisN,trials_norew.thisIndex,trials_norew.ran,key_resp_2.keys,key_resp_2.rt,rewExpectancy,trials_rew.thisRepN,trials_rew.thisTrialN,trials_rew.thisN,trials_rew.thisIndex,trials_rew.ran,Q1,Q2,Q2_text,Q3,Q4,Q5,Q5_text,xRes,yRes
292489,2022-11-25_24h15.27.887,vts_reward_expectancy_bt,2022.2.4,Win32,60.00960154,Chrome,1536,864,,,,,,,,,,,,,,,,,,,,,,,,,,,,,,,,,,,,,,,,,,,,,,,,,,,,,,,,,,,,,,,,,,,,,,,,,,,,
292489,2022-11-25_24h15.27.887,vts_reward_expectancy_bt,2022.2.4,Win32,60.00960154,Chrome,1536,864,space,42.097,,,,,,,,,,,,,,,,,,,,,,,,,,,,,,,,,,,,,,,,,,,,,,,,,,,,,,,,,,,,,,,,,,,,,,,,,,
292489,2022-11-25_24h15.27.887,vts_reward_expectancy_bt,2022.2.4,Win32,60.00960154,Chrome,1536,864,,,,,,,,,,,,,,,,,,,,,,,,,,,,,,,,,,,,,,,,,,,,,,,,,,,,,,,,,,,,,,,,,,,,,,,,,,,,
292489,2022-11-25_24h15.27.887,vts_reward_expectancy_bt,2022.2.4,Win32,60.00960154,Chrome,1536,864,,,a,4.2145,1,1,0,0,0,0,3,1,0,1,0,0,1,0,0,0,circle,triangle,,,,,,,,,,,,,,,,,,,,,,,,,,,,,,,,,,,,,,,,,,,,,,,,,,,,,,
292489,2022-11-25_24h15.27.887,vts_reward_expectancy_bt,2022.2.4,Win32,60.00960154,Chrome,1536,864,,,l,5.6899,1,2,0,0,1,1,8,1,0,0,1,0,0,0,0,1,hexagon,star,,,,,,,,,,,,,,,,,,,,,,,,,,,,,,,,,,,,,,,,,,,,,,,,,,,,,,
292489,2022-11-25_24h15.27.887,vts_reward_expectancy_bt,2022.2.4,Win32,60.00960154,Chrome,1536,864,,,l,1.088,10,12,0,0,2,2,4,1,0,1,0,0,0,0,1,0,circle,hexagon,,,,,,,,,,,,,,,,,,,,,,,,,,,,,,,,,,,,,,,,,,,,,,,,,,,,,,
292489,2022-11-25_24h15.27.887,vts_reward_expectancy_bt,2022.2.4,Win32,60.00960154,Chrome,1536,864,,,a,4.0044,10,22,0,0,3,3,10,1,0,0,0,1,0,1,0,0,star ,circle,,,,,,,,,,,,,,,,,,,,,,,,,,,,,,,,,,,,,,,,,,,,,,,,,,,,,,
292489,2022-11-25_24h15.27.887,vts_reward_expectancy_bt,2022.2.4,Win32,60.00960154,Chrome,1536,864,,,a,6.424,10,32,0,0,4,4,2,1,1,0,0,0,0,0,0,1,triangle,star,,,,,,,,,,,,,,,,,,,,,,,,,,,,,,,,,,,,,,,,,,,,,,,,,,,,,,
292489,2022-11-25_24h15.27.887,vts_reward_expectancy_bt,2022.2.4,Win32,60.00960154,Chrome,1536,864,,,l,1.891,1,33,0,0,5,5,1,1,1,0,0,0,0,0,1,0,triangle,hexagon,,,,,,,,,,,,,,,,,,,,,,,,,,,,,,,,,,,,,,,,,,,,,,,,,,,,,,
292489,2022-11-25_24h15.27.887,vts_reward_expectancy_bt,2022.2.4,Win32,60.00960154,Chrome,1536,864,,,a,1.8153,10,43,0,0,6,6,6,1,0,0,1,0,1,0,0,0,hexagon,triangle,,,,,,,,,,,,,,,,,,,,,,,,,,,,,,,,,,,,,,,,,,,,,,,,,,,,,,
292489,2022-11-25_24h15.27.887,vts_reward_expectancy_bt,2022.2.4,Win32,60.00960154,Chrome,1536,864,,,l,1.228,1,44,0,0,7,7,5,1,0,1,0,0,0,0,0,1,circle,star,,,,,,,,,,,,,,,,,,,,,,,,,,,,,,,,,,,,,,,,,,,,,,,,,,,,,,
292489,2022-11-25_24h15.27.887,vts_reward_expectancy_bt,2022.2.4,Win32,60.00960154,Chrome,1536,864,,,a,1.9443,1,45,0,0,8,8,0,1,1,0,0,0,0,1,0,0,triangle,circle,,,,,,,,,,,,,,,,,,,,,,,,,,,,,,,,,,,,,,,,,,,,,,,,,,,,,,
292489,2022-11-25_24h15.27.887,vts_reward_expectancy_bt,2022.2.4,Win32,60.00960154,Chrome,1536,864,,,l,2.1155,10,55,0,0,9,9,11,1,0,0,0,1,0,0,1,0,star,hexagon,,,,,,,,,,,,,,,,,,,,,,,,,,,,,,,,,,,,,,,,,,,,,,,,,,,,,,
292489,2022-11-25_24h15.27.887,vts_reward_expectancy_bt,2022.2.4,Win32,60.00960154,Chrome,1536,864,,,l,3.5244,1,56,0,0,10,10,9,1,0,0,0,1,1,0,0,0,star,triangle,,,,,,,,,,,,,,,,,,,,,,,,,,,,,,,,,,,,,,,,,,,,,,,,,,,,,,
292489,2022-11-25_24h15.27.887,vts_reward_expectancy_bt,2022.2.4,Win32,60.00960154,Chrome,1536,864,,,a,2.3433,10,66,0,0,11,11,7,1,0,0,1,0,0,1,0,0,hexagon,circle,,,,,,,,,,,,,,,,,,,,,,,,,,,,,,,,,,,,,,,,,,,,,,,,,,,,,,
292489,2022-11-25_24h15.27.887,vts_reward_expectancy_bt,2022.2.4,Win32,60.00960154,Chrome,1536,864,,,a,1.5592,1,67,0,1,0,12,9,1,0,0,0,1,1,0,0,0,star,triangle,,,,,,,,,,,,,,,,,,,,,,,,,,,,,,,,,,,,,,,,,,,,,,,,,,,,,,
292489,2022-11-25_24h15.27.887,vts_reward_expectancy_bt,2022.2.4,Win32,60.00960154,Chrome,1536,864,,,l,1.1533,10,77,0,1,1,13,3,1,0,1,0,0,1,0,0,0,circle,triangle,,,,,,,,,,,,,,,,,,,,,,,,,,,,,,,,,,,,,,,,,,,,,,,,,,,,,,
292489,2022-11-25_24h15.27.887,vts_reward_expectancy_bt,2022.2.4,Win32,60.00960154,Chrome,1536,864,,,l,2.787,1,78,0,1,2,14,1,1,1,0,0,0,0,0,1,0,triangle,hexagon,,,,,,,,,,,,,,,,,,,,,,,,,,,,,,,,,,,,,,,,,,,,,,,,,,,,,,
292489,2022-11-25_24h15.27.887,vts_reward_expectancy_bt,2022.2.4,Win32,60.00960154,Chrome,1536,864,,,a,2.0799,10,88,0,1,3,15,2,1,1,0,0,0,0,0,0,1,triangle,star,,,,,,,,,,,,,,,,,,,,,,,,,,,,,,,,,,,,,,,,,,,,,,,,,,,,,,
292489,2022-11-25_24h15.27.887,vts_reward_expectancy_bt,2022.2.4,Win32,60.00960154,Chrome,1536,864,,,l,2.2567,10,98,0,1,4,16,6,1,0,0,1,0,1,0,0,0,hexagon,triangle,,,,,,,,,,,,,,,,,,,,,,,,,,,,,,,,,,,,,,,,,,,,,,,,,,,,,,
292489,2022-11-25_24h15.27.887,vts_reward_expectancy_bt,2022.2.4,Win32,60.00960154,Chrome,1536,864,,,a,2.0208,1,99,0,1,5,17,0,1,1,0,0,0,0,1,0,0,triangle,circle,,,,,,,,,,,,,,,,,,,,,,,,,,,,,,,,,,,,,,,,,,,,,,,,,,,,,,
292489,2022-11-25_24h15.27.887,vts_reward_expectancy_bt,2022.2.4,Win32,60.00960154,Chrome,1536,864,,,l,3.1419,10,109,0,1,6,18,11,1,0,0,0,1,0,0,1,0,star,hexagon,,,,,,,,,,,,,,,,,,,,,,,,,,,,,,,,,,,,,,,,,,,,,,,,,,,,,,
292489,2022-11-25_24h15.27.887,vts_reward_expectancy_bt,2022.2.4,Win32,60.00960154,Chrome,1536,864,,,a,2.9234,1,110,0,1,7,19,5,1,0,1,0,0,0,0,0,1,circle,star,,,,,,,,,,,,,,,,,,,,,,,,,,,,,,,,,,,,,,,,,,,,,,,,,,,,,,
292489,2022-11-25_24h15.27.887,vts_reward_expectancy_bt,2022.2.4,Win32,60.00960154,Chrome,1536,864,,,l,5.5261,1,111,0,1,8,20,8,1,0,0,1,0,0,0,0,1,hexagon,star,,,,,,,,,,,,,,,,,,,,,,,,,,,,,,,,,,,,,,,,,,,,,,,,,,,,,,
292489,2022-11-25_24h15.27.887,vts_reward_expectancy_bt,2022.2.4,Win32,60.00960154,Chrome,1536,864,,,l,1.5774,1,112,0,1,9,21,10,1,0,0,0,1,0,1,0,0,star ,circle,,,,,,,,,,,,,,,,,,,,,,,,,,,,,,,,,,,,,,,,,,,,,,,,,,,,,,
292489,2022-11-25_24h15.27.887,vts_reward_expectancy_bt,2022.2.4,Win32,60.00960154,Chrome,1536,864,,,a,1.3832,10,122,0,1,10,22,7,1,0,0,1,0,0,1,0,0,hexagon,circle,,,,,,,,,,,,,,,,,,,,,,,,,,,,,,,,,,,,,,,,,,,,,,,,,,,,,,
292489,2022-11-25_24h15.27.887,vts_reward_expectancy_bt,2022.2.4,Win32,60.00960154,Chrome,1536,864,,,l,1.5636,1,123,0,1,11,23,4,1,0,1,0,0,0,0,1,0,circle,hexagon,,,,,,,,,,,,,,,,,,,,,,,,,,,,,,,,,,,,,,,,,,,,,,,,,,,,,,
292489,2022-11-25_24h15.27.887,vts_reward_expectancy_bt,2022.2.4,Win32,60.00960154,Chrome,1536,864,,,a,1.9415,10,133,0,2,0,24,1,1,1,0,0,0,0,0,1,0,triangle,hexagon,,,,,,,,,,,,,,,,,,,,,,,,,,,,,,,,,,,,,,,,,,,,,,,,,,,,,,
292489,2022-11-25_24h15.27.887,vts_reward_expectancy_bt,2022.2.4,Win32,60.00960154,Chrome,1536,864,,,a,1.1883,10,143,0,2,1,25,7,1,0,0,1,0,0,1,0,0,hexagon,circle,,,,,,,,,,,,,,,,,,,,,,,,,,,,,,,,,,,,,,,,,,,,,,,,,,,,,,
292489,2022-11-25_24h15.27.887,vts_reward_expectancy_bt,2022.2.4,Win32,60.00960154,Chrome,1536,864,,,l,2.7539,10,153,0,2,2,26,11,1,0,0,0,1,0,0,1,0,star,hexagon,,,,,,,,,,,,,,,,,,,,,,,,,,,,,,,,,,,,,,,,,,,,,,,,,,,,,,
292489,2022-11-25_24h15.27.887,vts_reward_expectancy_bt,2022.2.4,Win32,60.00960154,Chrome,1536,864,,,l,2.073,1,154,0,2,3,27,0,1,1,0,0,0,0,1,0,0,triangle,circle,,,,,,,,,,,,,,,,,,,,,,,,,,,,,,,,,,,,,,,,,,,,,,,,,,,,,,
292489,2022-11-25_24h15.27.887,vts_reward_expectancy_bt,2022.2.4,Win32,60.00960154,Chrome,1536,864,,,a,2.3485,10,164,0,2,4,28,6,1,0,0,1,0,1,0,0,0,hexagon,triangle,,,,,,,,,,,,,,,,,,,,,,,,,,,,,,,,,,,,,,,,,,,,,,,,,,,,,,
292489,2022-11-25_24h15.27.887,vts_reward_expectancy_bt,2022.2.4,Win32,60.00960154,Chrome,1536,864,,,l,1.2595,1,165,0,2,5,29,5,1,0,1,0,0,0,0,0,1,circle,star,,,,,,,,,,,,,,,,,,,,,,,,,,,,,,,,,,,,,,,,,,,,,,,,,,,,,,
292489,2022-11-25_24h15.27.887,vts_reward_expectancy_bt,2022.2.4,Win32,60.00960154,Chrome,1536,864,,,l,1.108,10,175,0,2,6,30,3,1,0,1,0,0,1,0,0,0,circle,triangle,,,,,,,,,,,,,,,,,,,,,,,,,,,,,,,,,,,,,,,,,,,,,,,,,,,,,,
292489,2022-11-25_24h15.27.887,vts_reward_expectancy_bt,2022.2.4,Win32,60.00960154,Chrome,1536,864,,,a,2.6888,1,176,0,2,7,31,4,1,0,1,0,0,0,0,1,0,circle,hexagon,,,,,,,,,,,,,,,,,,,,,,,,,,,,,,,,,,,,,,,,,,,,,,,,,,,,,,
292489,2022-11-25_24h15.27.887,vts_reward_expectancy_bt,2022.2.4,Win32,60.00960154,Chrome,1536,864,,,l,2.7489,10,186,0,2,8,32,10,1,0,0,0,1,0,1,0,0,star ,circle,,,,,,,,,,,,,,,,,,,,,,,,,,,,,,,,,,,,,,,,,,,,,,,,,,,,,,
292489,2022-11-25_24h15.27.887,vts_reward_expectancy_bt,2022.2.4,Win32,60.00960154,Chrome,1536,864,,,l,1.5552,10,196,0,2,9,33,9,1,0,0,0,1,1,0,0,0,star,triangle,,,,,,,,,,,,,,,,,,,,,,,,,,,,,,,,,,,,,,,,,,,,,,,,,,,,,,
292489,2022-11-25_24h15.27.887,vts_reward_expectancy_bt,2022.2.4,Win32,60.00960154,Chrome,1536,864,,,a,2.8268,10,206,0,2,10,34,8,1,0,0,1,0,0,0,0,1,hexagon,star,,,,,,,,,,,,,,,,,,,,,,,,,,,,,,,,,,,,,,,,,,,,,,,,,,,,,,
292489,2022-11-25_24h15.27.887,vts_reward_expectancy_bt,2022.2.4,Win32,60.00960154,Chrome,1536,864,,,a,1.8081,1,207,0,2,11,35,2,1,1,0,0,0,0,0,0,1,triangle,star,,,,,,,,,,,,,,,,,,,,,,,,,,,,,,,,,,,,,,,,,,,,,,,,,,,,,,
292489,2022-11-25_24h15.27.887,vts_reward_expectancy_bt,2022.2.4,Win32,60.00960154,Chrome,1536,864,,,l,5.2834,1,208,1,0,0,0,2,1,1,0,0,0,0,0,0,1,triangle,star,,,,,,,,,,,,,,,,,,,,,,,,,,,,,,,,,,,,,,,,,,,,,,,,,,,,,,
292489,2022-11-25_24h15.27.887,vts_reward_expectancy_bt,2022.2.4,Win32,60.00960154,Chrome,1536,864,,,l,1.0139,10,218,1,0,1,1,3,1,0,1,0,0,1,0,0,0,circle,triangle,,,,,,,,,,,,,,,,,,,,,,,,,,,,,,,,,,,,,,,,,,,,,,,,,,,,,,
292489,2022-11-25_24h15.27.887,vts_reward_expectancy_bt,2022.2.4,Win32,60.00960154,Chrome,1536,864,,,a,4.2552,10,228,1,0,2,2,0,1,1,0,0,0,0,1,0,0,triangle,circle,,,,,,,,,,,,,,,,,,,,,,,,,,,,,,,,,,,,,,,,,,,,,,,,,,,,,,
292489,2022-11-25_24h15.27.887,vts_reward_expectancy_bt,2022.2.4,Win32,60.00960154,Chrome,1536,864,,,a,8.1079,10,238,1,0,3,3,9,1,0,0,0,1,1,0,0,0,star,triangle,,,,,,,,,,,,,,,,,,,,,,,,,,,,,,,,,,,,,,,,,,,,,,,,,,,,,,
292489,2022-11-25_24h15.27.887,vts_reward_expectancy_bt,2022.2.4,Win32,60.00960154,Chrome,1536,864,,,l,2.3569,1,239,1,0,4,4,10,1,0,0,0,1,0,1,0,0,star ,circle,,,,,,,,,,,,,,,,,,,,,,,,,,,,,,,,,,,,,,,,,,,,,,,,,,,,,,
292489,2022-11-25_24h15.27.887,vts_reward_expectancy_bt,2022.2.4,Win32,60.00960154,Chrome,1536,864,,,a,2.5054,1,240,1,0,5,5,8,1,0,0,1,0,0,0,0,1,hexagon,star,,,,,,,,,,,,,,,,,,,,,,,,,,,,,,,,,,,,,,,,,,,,,,,,,,,,,,
292489,2022-11-25_24h15.27.887,vts_reward_expectancy_bt,2022.2.4,Win32,60.00960154,Chrome,1536,864,,,l,1.008,10,250,1,0,6,6,4,1,0,1,0,0,0,0,1,0,circle,hexagon,,,,,,,,,,,,,,,,,,,,,,,,,,,,,,,,,,,,,,,,,,,,,,,,,,,,,,
292489,2022-11-25_24h15.27.887,vts_reward_expectancy_bt,2022.2.4,Win32,60.00960154,Chrome,1536,864,,,l,1.7338,1,251,1,0,7,7,11,1,0,0,0,1,0,0,1,0,star,hexagon,,,,,,,,,,,,,,,,,,,,,,,,,,,,,,,,,,,,,,,,,,,,,,,,,,,,,,
292489,2022-11-25_24h15.27.887,vts_reward_expectancy_bt,2022.2.4,Win32,60.00960154,Chrome,1536,864,,,l,2.6147,1,252,1,0,8,8,1,1,1,0,0,0,0,0,1,0,triangle,hexagon,,,,,,,,,,,,,,,,,,,,,,,,,,,,,,,,,,,,,,,,,,,,,,,,,,,,,,
292489,2022-11-25_24h15.27.887,vts_reward_expectancy_bt,2022.2.4,Win32,60.00960154,Chrome,1536,864,,,l,1.5083,10,262,1,0,9,9,6,1,0,0,1,0,1,0,0,0,hexagon,triangle,,,,,,,,,,,,,,,,,,,,,,,,,,,,,,,,,,,,,,,,,,,,,,,,,,,,,,
292489,2022-11-25_24h15.27.887,vts_reward_expectancy_bt,2022.2.4,Win32,60.00960154,Chrome,1536,864,,,a,2.1043,10,272,1,0,10,10,7,1,0,0,1,0,0,1,0,0,hexagon,circle,,,,,,,,,,,,,,,,,,,,,,,,,,,,,,,,,,,,,,,,,,,,,,,,,,,,,,
292489,2022-11-25_24h15.27.887,vts_reward_expectancy_bt,2022.2.4,Win32,60.00960154,Chrome,1536,864,,,l,2.44,1,273,1,0,11,11,5,1,0,1,0,0,0,0,0,1,circle,star,,,,,,,,,,,,,,,,,,,,,,,,,,,,,,,,,,,,,,,,,,,,,,,,,,,,,,
292489,2022-11-25_24h15.27.887,vts_reward_expectancy_bt,2022.2.4,Win32,60.00960154,Chrome,1536,864,,,a,3.7846,10,283,1,1,0,12,7,1,0,0,1,0,0,1,0,0,hexagon,circle,,,,,,,,,,,,,,,,,,,,,,,,,,,,,,,,,,,,,,,,,,,,,,,,,,,,,,
292489,2022-11-25_24h15.27.887,vts_reward_expectancy_bt,2022.2.4,Win32,60.00960154,Chrome,1536,864,,,a,3.5548,1,284,1,1,1,13,5,1,0,1,0,0,0,0,0,1,circle,star,,,,,,,,,,,,,,,,,,,,,,,,,,,,,,,,,,,,,,,,,,,,,,,,,,,,,,
292489,2022-11-25_24h15.27.887,vts_reward_expectancy_bt,2022.2.4,Win32,60.00960154,Chrome,1536,864,,,a,3.8771,1,285,1,1,2,14,10,1,0,0,0,1,0,1,0,0,star ,circle,,,,,,,,,,,,,,,,,,,,,,,,,,,,,,,,,,,,,,,,,,,,,,,,,,,,,,
292489,2022-11-25_24h15.27.887,vts_reward_expectancy_bt,2022.2.4,Win32,60.00960154,Chrome,1536,864,,,l,0.7725,10,295,1,1,3,15,9,1,0,0,0,1,1,0,0,0,star,triangle,,,,,,,,,,,,,,,,,,,,,,,,,,,,,,,,,,,,,,,,,,,,,,,,,,,,,,
292489,2022-11-25_24h15.27.887,vts_reward_expectancy_bt,2022.2.4,Win32,60.00960154,Chrome,1536,864,,,a,0.8402,10,305,1,1,4,16,2,1,1,0,0,0,0,0,0,1,triangle,star,,,,,,,,,,,,,,,,,,,,,,,,,,,,,,,,,,,,,,,,,,,,,,,,,,,,,,
292489,2022-11-25_24h15.27.887,vts_reward_expectancy_bt,2022.2.4,Win32,60.00960154,Chrome,1536,864,,,a,1.3674,1,306,1,1,5,17,0,1,1,0,0,0,0,1,0,0,triangle,circle,,,,,,,,,,,,,,,,,,,,,,,,,,,,,,,,,,,,,,,,,,,,,,,,,,,,,,
292489,2022-11-25_24h15.27.887,vts_reward_expectancy_bt,2022.2.4,Win32,60.00960154,Chrome,1536,864,,,l,1.1242,10,316,1,1,6,18,4,1,0,1,0,0,0,0,1,0,circle,hexagon,,,,,,,,,,,,,,,,,,,,,,,,,,,,,,,,,,,,,,,,,,,,,,,,,,,,,,
292489,2022-11-25_24h15.27.887,vts_reward_expectancy_bt,2022.2.4,Win32,60.00960154,Chrome,1536,864,,,l,0.998,10,326,1,1,7,19,11,1,0,0,0,1,0,0,1,0,star,hexagon,,,,,,,,,,,,,,,,,,,,,,,,,,,,,,,,,,,,,,,,,,,,,,,,,,,,,,
292489,2022-11-25_24h15.27.887,vts_reward_expectancy_bt,2022.2.4,Win32,60.00960154,Chrome,1536,864,,,a,1.8977,10,336,1,1,8,20,1,1,1,0,0,0,0,0,1,0,triangle,hexagon,,,,,,,,,,,,,,,,,,,,,,,,,,,,,,,,,,,,,,,,,,,,,,,,,,,,,,
292489,2022-11-25_24h15.27.887,vts_reward_expectancy_bt,2022.2.4,Win32,60.00960154,Chrome,1536,864,,,l,0.9096,10,346,1,1,9,21,3,1,0,1,0,0,1,0,0,0,circle,triangle,,,,,,,,,,,,,,,,,,,,,,,,,,,,,,,,,,,,,,,,,,,,,,,,,,,,,,
292489,2022-11-25_24h15.27.887,vts_reward_expectancy_bt,2022.2.4,Win32,60.00960154,Chrome,1536,864,,,a,2.4203,10,356,1,1,10,22,8,1,0,0,1,0,0,0,0,1,hexagon,star,,,,,,,,,,,,,,,,,,,,,,,,,,,,,,,,,,,,,,,,,,,,,,,,,,,,,,
292489,2022-11-25_24h15.27.887,vts_reward_expectancy_bt,2022.2.4,Win32,60.00960154,Chrome,1536,864,,,a,1.8579,10,366,1,1,11,23,6,1,0,0,1,0,1,0,0,0,hexagon,triangle,,,,,,,,,,,,,,,,,,,,,,,,,,,,,,,,,,,,,,,,,,,,,,,,,,,,,,
292489,2022-11-25_24h15.27.887,vts_reward_expectancy_bt,2022.2.4,Win32,60.00960154,Chrome,1536,864,,,a,1.9568,1,367,1,2,0,24,4,1,0,1,0,0,0,0,1,0,circle,hexagon,,,,,,,,,,,,,,,,,,,,,,,,,,,,,,,,,,,,,,,,,,,,,,,,,,,,,,
292489,2022-11-25_24h15.27.887,vts_reward_expectancy_bt,2022.2.4,Win32,60.00960154,Chrome,1536,864,,,a,4.4745,10,377,1,2,1,25,1,1,1,0,0,0,0,0,1,0,triangle,hexagon,,,,,,,,,,,,,,,,,,,,,,,,,,,,,,,,,,,,,,,,,,,,,,,,,,,,,,
292489,2022-11-25_24h15.27.887,vts_reward_expectancy_bt,2022.2.4,Win32,60.00960154,Chrome,1536,864,,,l,2.1305,1,378,1,2,2,26,5,1,0,1,0,0,0,0,0,1,circle,star,,,,,,,,,,,,,,,,,,,,,,,,,,,,,,,,,,,,,,,,,,,,,,,,,,,,,,
292489,2022-11-25_24h15.27.887,vts_reward_expectancy_bt,2022.2.4,Win32,60.00960154,Chrome,1536,864,,,a,3.928,10,388,1,2,3,27,6,1,0,0,1,0,1,0,0,0,hexagon,triangle,,,,,,,,,,,,,,,,,,,,,,,,,,,,,,,,,,,,,,,,,,,,,,,,,,,,,,
292489,2022-11-25_24h15.27.887,vts_reward_expectancy_bt,2022.2.4,Win32,60.00960154,Chrome,1536,864,,,l,1.257,10,398,1,2,4,28,3,1,0,1,0,0,1,0,0,0,circle,triangle,,,,,,,,,,,,,,,,,,,,,,,,,,,,,,,,,,,,,,,,,,,,,,,,,,,,,,
292489,2022-11-25_24h15.27.887,vts_reward_expectancy_bt,2022.2.4,Win32,60.00960154,Chrome,1536,864,,,l,1.0645,10,408,1,2,5,29,11,1,0,0,0,1,0,0,1,0,star,hexagon,,,,,,,,,,,,,,,,,,,,,,,,,,,,,,,,,,,,,,,,,,,,,,,,,,,,,,
292489,2022-11-25_24h15.27.887,vts_reward_expectancy_bt,2022.2.4,Win32,60.00960154,Chrome,1536,864,,,a,1.3991,10,418,1,2,6,30,2,1,1,0,0,0,0,0,0,1,triangle,star,,,,,,,,,,,,,,,,,,,,,,,,,,,,,,,,,,,,,,,,,,,,,,,,,,,,,,
292489,2022-11-25_24h15.27.887,vts_reward_expectancy_bt,2022.2.4,Win32,60.00960154,Chrome,1536,864,,,a,2.391,1,419,1,2,7,31,7,1,0,0,1,0,0,1,0,0,hexagon,circle,,,,,,,,,,,,,,,,,,,,,,,,,,,,,,,,,,,,,,,,,,,,,,,,,,,,,,
292489,2022-11-25_24h15.27.887,vts_reward_expectancy_bt,2022.2.4,Win32,60.00960154,Chrome,1536,864,,,a,1.5114,10,429,1,2,8,32,0,1,1,0,0,0,0,1,0,0,triangle,circle,,,,,,,,,,,,,,,,,,,,,,,,,,,,,,,,,,,,,,,,,,,,,,,,,,,,,,
292489,2022-11-25_24h15.27.887,vts_reward_expectancy_bt,2022.2.4,Win32,60.00960154,Chrome,1536,864,,,l,0.8903,10,439,1,2,9,33,9,1,0,0,0,1,1,0,0,0,star,triangle,,,,,,,,,,,,,,,,,,,,,,,,,,,,,,,,,,,,,,,,,,,,,,,,,,,,,,
292489,2022-11-25_24h15.27.887,vts_reward_expectancy_bt,2022.2.4,Win32,60.00960154,Chrome,1536,864,,,a,0.9957,10,449,1,2,10,34,8,1,0,0,1,0,0,0,0,1,hexagon,star,,,,,,,,,,,,,,,,,,,,,,,,,,,,,,,,,,,,,,,,,,,,,,,,,,,,,,
292489,2022-11-25_24h15.27.887,vts_reward_expectancy_bt,2022.2.4,Win32,60.00960154,Chrome,1536,864,,,l,1.1676,10,459,1,2,11,35,10,1,0,0,0,1,0,1,0,0,star ,circle,,,,,,,,,,,,,,,,,,,,,,,,,,,,,,,,,,,,,,,,,,,,,,,,,,,,,,
292489,2022-11-25_24h15.27.887,vts_reward_expectancy_bt,2022.2.4,Win32,60.00960154,Chrome,1536,864,,,l,1.0062,1,460,2,0,0,0,10,1,0,0,0,1,0,1,0,0,star ,circle,,,,,,,,,,,,,,,,,,,,,,,,,,,,,,,,,,,,,,,,,,,,,,,,,,,,,,
292489,2022-11-25_24h15.27.887,vts_reward_expectancy_bt,2022.2.4,Win32,60.00960154,Chrome,1536,864,,,l,0.6645,10,470,2,0,1,1,9,1,0,0,0,1,1,0,0,0,star,triangle,,,,,,,,,,,,,,,,,,,,,,,,,,,,,,,,,,,,,,,,,,,,,,,,,,,,,,
292489,2022-11-25_24h15.27.887,vts_reward_expectancy_bt,2022.2.4,Win32,60.00960154,Chrome,1536,864,,,l,0.7043,1,471,2,0,2,2,11,1,0,0,0,1,0,0,1,0,star,hexagon,,,,,,,,,,,,,,,,,,,,,,,,,,,,,,,,,,,,,,,,,,,,,,,,,,,,,,
292489,2022-11-25_24h15.27.887,vts_reward_expectancy_bt,2022.2.4,Win32,60.00960154,Chrome,1536,864,,,l,2.1965,10,481,2,0,3,3,4,1,0,1,0,0,0,0,1,0,circle,hexagon,,,,,,,,,,,,,,,,,,,,,,,,,,,,,,,,,,,,,,,,,,,,,,,,,,,,,,
292489,2022-11-25_24h15.27.887,vts_reward_expectancy_bt,2022.2.4,Win32,60.00960154,Chrome,1536,864,,,l,1.7081,10,491,2,0,4,4,7,1,0,0,1,0,0,1,0,0,hexagon,circle,,,,,,,,,,,,,,,,,,,,,,,,,,,,,,,,,,,,,,,,,,,,,,,,,,,,,,
292489,2022-11-25_24h15.27.887,vts_reward_expectancy_bt,2022.2.4,Win32,60.00960154,Chrome,1536,864,,,l,0.7448,10,501,2,0,5,5,3,1,0,1,0,0,1,0,0,0,circle,triangle,,,,,,,,,,,,,,,,,,,,,,,,,,,,,,,,,,,,,,,,,,,,,,,,,,,,,,
292489,2022-11-25_24h15.27.887,vts_reward_expectancy_bt,2022.2.4,Win32,60.00960154,Chrome,1536,864,,,a,1.1588,10,511,2,0,6,6,8,1,0,0,1,0,0,0,0,1,hexagon,star,,,,,,,,,,,,,,,,,,,,,,,,,,,,,,,,,,,,,,,,,,,,,,,,,,,,,,
292489,2022-11-25_24h15.27.887,vts_reward_expectancy_bt,2022.2.4,Win32,60.00960154,Chrome,1536,864,,,l,1.9648,1,512,2,0,7,7,0,1,1,0,0,0,0,1,0,0,triangle,circle,,,,,,,,,,,,,,,,,,,,,,,,,,,,,,,,,,,,,,,,,,,,,,,,,,,,,,
292489,2022-11-25_24h15.27.887,vts_reward_expectancy_bt,2022.2.4,Win32,60.00960154,Chrome,1536,864,,,a,1.5121,10,522,2,0,8,8,6,1,0,0,1,0,1,0,0,0,hexagon,triangle,,,,,,,,,,,,,,,,,,,,,,,,,,,,,,,,,,,,,,,,,,,,,,,,,,,,,,
292489,2022-11-25_24h15.27.887,vts_reward_expectancy_bt,2022.2.4,Win32,60.00960154,Chrome,1536,864,,,a,1.1829,10,532,2,0,9,9,5,1,0,1,0,0,0,0,0,1,circle,star,,,,,,,,,,,,,,,,,,,,,,,,,,,,,,,,,,,,,,,,,,,,,,,,,,,,,,
292489,2022-11-25_24h15.27.887,vts_reward_expectancy_bt,2022.2.4,Win32,60.00960154,Chrome,1536,864,,,a,1.0058,1,533,2,0,10,10,2,1,1,0,0,0,0,0,0,1,triangle,star,,,,,,,,,,,,,,,,,,,,,,,,,,,,,,,,,,,,,,,,,,,,,,,,,,,,,,
292489,2022-11-25_24h15.27.887,vts_reward_expectancy_bt,2022.2.4,Win32,60.00960154,Chrome,1536,864,,,l,1.139,10,543,2,0,11,11,1,1,1,0,0,0,0,0,1,0,triangle,hexagon,,,,,,,,,,,,,,,,,,,,,,,,,,,,,,,,,,,,,,,,,,,,,,,,,,,,,,
292489,2022-11-25_24h15.27.887,vts_reward_expectancy_bt,2022.2.4,Win32,60.00960154,Chrome,1536,864,,,l,3.2567,1,544,2,1,0,12,5,1,0,1,0,0,0,0,0,1,circle,star,,,,,,,,,,,,,,,,,,,,,,,,,,,,,,,,,,,,,,,,,,,,,,,,,,,,,,
292489,2022-11-25_24h15.27.887,vts_reward_expectancy_bt,2022.2.4,Win32,60.00960154,Chrome,1536,864,,,l,1.1587,1,545,2,1,1,13,11,1,0,0,0,1,0,0,1,0,star,hexagon,,,,,,,,,,,,,,,,,,,,,,,,,,,,,,,,,,,,,,,,,,,,,,,,,,,,,,
292489,2022-11-25_24h15.27.887,vts_reward_expectancy_bt,2022.2.4,Win32,60.00960154,Chrome,1536,864,,,a,1.3008,10,555,2,1,2,14,2,1,1,0,0,0,0,0,0,1,triangle,star,,,,,,,,,,,,,,,,,,,,,,,,,,,,,,,,,,,,,,,,,,,,,,,,,,,,,,
292489,2022-11-25_24h15.27.887,vts_reward_expectancy_bt,2022.2.4,Win32,60.00960154,Chrome,1536,864,,,l,1.6597,10,565,2,1,3,15,1,1,1,0,0,0,0,0,1,0,triangle,hexagon,,,,,,,,,,,,,,,,,,,,,,,,,,,,,,,,,,,,,,,,,,,,,,,,,,,,,,
292489,2022-11-25_24h15.27.887,vts_reward_expectancy_bt,2022.2.4,Win32,60.00960154,Chrome,1536,864,,,l,0.7145,1,566,2,1,4,16,9,1,0,0,0,1,1,0,0,0,star,triangle,,,,,,,,,,,,,,,,,,,,,,,,,,,,,,,,,,,,,,,,,,,,,,,,,,,,,,
292489,2022-11-25_24h15.27.887,vts_reward_expectancy_bt,2022.2.4,Win32,60.00960154,Chrome,1536,864,,,a,2.4824,10,576,2,1,5,17,8,1,0,0,1,0,0,0,0,1,hexagon,star,,,,,,,,,,,,,,,,,,,,,,,,,,,,,,,,,,,,,,,,,,,,,,,,,,,,,,
292489,2022-11-25_24h15.27.887,vts_reward_expectancy_bt,2022.2.4,Win32,60.00960154,Chrome,1536,864,,,a,5.6765,10,586,2,1,6,18,6,1,0,0,1,0,1,0,0,0,hexagon,triangle,,,,,,,,,,,,,,,,,,,,,,,,,,,,,,,,,,,,,,,,,,,,,,,,,,,,,,
292489,2022-11-25_24h15.27.887,vts_reward_expectancy_bt,2022.2.4,Win32,60.00960154,Chrome,1536,864,,,l,3.2425,10,596,2,1,7,19,4,1,0,1,0,0,0,0,1,0,circle,hexagon,,,,,,,,,,,,,,,,,,,,,,,,,,,,,,,,,,,,,,,,,,,,,,,,,,,,,,
292489,2022-11-25_24h15.27.887,vts_reward_expectancy_bt,2022.2.4,Win32,60.00960154,Chrome,1536,864,,,a,3.0329,10,606,2,1,8,20,10,1,0,0,0,1,0,1,0,0,star ,circle,,,,,,,,,,,,,,,,,,,,,,,,,,,,,,,,,,,,,,,,,,,,,,,,,,,,,,
292489,2022-11-25_24h15.27.887,vts_reward_expectancy_bt,2022.2.4,Win32,60.00960154,Chrome,1536,864,,,a,1.5725,10,616,2,1,9,21,7,1,0,0,1,0,0,1,0,0,hexagon,circle,,,,,,,,,,,,,,,,,,,,,,,,,,,,,,,,,,,,,,,,,,,,,,,,,,,,,,
292489,2022-11-25_24h15.27.887,vts_reward_expectancy_bt,2022.2.4,Win32,60.00960154,Chrome,1536,864,,,a,2.7006,10,626,2,1,10,22,0,1,1,0,0,0,0,1,0,0,triangle,circle,,,,,,,,,,,,,,,,,,,,,,,,,,,,,,,,,,,,,,,,,,,,,,,,,,,,,,
292489,2022-11-25_24h15.27.887,vts_reward_expectancy_bt,2022.2.4,Win32,60.00960154,Chrome,1536,864,,,l,1.6625,10,636,2,1,11,23,3,1,0,1,0,0,1,0,0,0,circle,triangle,,,,,,,,,,,,,,,,,,,,,,,,,,,,,,,,,,,,,,,,,,,,,,,,,,,,,,
292489,2022-11-25_24h15.27.887,vts_reward_expectancy_bt,2022.2.4,Win32,60.00960154,Chrome,1536,864,,,a,3.6882,1,637,2,2,0,24,11,1,0,0,0,1,0,0,1,0,star,hexagon,,,,,,,,,,,,,,,,,,,,,,,,,,,,,,,,,,,,,,,,,,,,,,,,,,,,,,
292489,2022-11-25_24h15.27.887,vts_reward_expectancy_bt,2022.2.4,Win32,60.00960154,Chrome,1536,864,,,l,1.2968,10,647,2,2,1,25,4,1,0,1,0,0,0,0,1,0,circle,hexagon,,,,,,,,,,,,,,,,,,,,,,,,,,,,,,,,,,,,,,,,,,,,,,,,,,,,,,
292489,2022-11-25_24h15.27.887,vts_reward_expectancy_bt,2022.2.4,Win32,60.00960154,Chrome,1536,864,,,l,1.4387,10,657,2,2,2,26,9,1,0,0,0,1,1,0,0,0,star,triangle,,,,,,,,,,,,,,,,,,,,,,,,,,,,,,,,,,,,,,,,,,,,,,,,,,,,,,
292489,2022-11-25_24h15.27.887,vts_reward_expectancy_bt,2022.2.4,Win32,60.00960154,Chrome,1536,864,,,a,3.2913,1,658,2,2,3,27,5,1,0,1,0,0,0,0,0,1,circle,star,,,,,,,,,,,,,,,,,,,,,,,,,,,,,,,,,,,,,,,,,,,,,,,,,,,,,,
292489,2022-11-25_24h15.27.887,vts_reward_expectancy_bt,2022.2.4,Win32,60.00960154,Chrome,1536,864,,,l,1.4208,10,668,2,2,4,28,3,1,0,1,0,0,1,0,0,0,circle,triangle,,,,,,,,,,,,,,,,,,,,,,,,,,,,,,,,,,,,,,,,,,,,,,,,,,,,,,
292489,2022-11-25_24h15.27.887,vts_reward_expectancy_bt,2022.2.4,Win32,60.00960154,Chrome,1536,864,,,a,1.715,10,678,2,2,5,29,6,1,0,0,1,0,1,0,0,0,hexagon,triangle,,,,,,,,,,,,,,,,,,,,,,,,,,,,,,,,,,,,,,,,,,,,,,,,,,,,,,
292489,2022-11-25_24h15.27.887,vts_reward_expectancy_bt,2022.2.4,Win32,60.00960154,Chrome,1536,864,,,l,1.4232,1,679,2,2,6,30,10,1,0,0,0,1,0,1,0,0,star ,circle,,,,,,,,,,,,,,,,,,,,,,,,,,,,,,,,,,,,,,,,,,,,,,,,,,,,,,
292489,2022-11-25_24h15.27.887,vts_reward_expectancy_bt,2022.2.4,Win32,60.00960154,Chrome,1536,864,,,l,1.5623,10,689,2,2,7,31,1,1,1,0,0,0,0,0,1,0,triangle,hexagon,,,,,,,,,,,,,,,,,,,,,,,,,,,,,,,,,,,,,,,,,,,,,,,,,,,,,,
292489,2022-11-25_24h15.27.887,vts_reward_expectancy_bt,2022.2.4,Win32,60.00960154,Chrome,1536,864,,,a,1.9734,10,699,2,2,8,32,2,1,1,0,0,0,0,0,0,1,triangle,star,,,,,,,,,,,,,,,,,,,,,,,,,,,,,,,,,,,,,,,,,,,,,,,,,,,,,,
292489,2022-11-25_24h15.27.887,vts_reward_expectancy_bt,2022.2.4,Win32,60.00960154,Chrome,1536,864,,,a,0.844,10,709,2,2,9,33,8,1,0,0,1,0,0,0,0,1,hexagon,star,,,,,,,,,,,,,,,,,,,,,,,,,,,,,,,,,,,,,,,,,,,,,,,,,,,,,,
292489,2022-11-25_24h15.27.887,vts_reward_expectancy_bt,2022.2.4,Win32,60.00960154,Chrome,1536,864,,,a,1.0817,10,719,2,2,10,34,0,1,1,0,0,0,0,1,0,0,triangle,circle,,,,,,,,,,,,,,,,,,,,,,,,,,,,,,,,,,,,,,,,,,,,,,,,,,,,,,
292489,2022-11-25_24h15.27.887,vts_reward_expectancy_bt,2022.2.4,Win32,60.00960154,Chrome,1536,864,,,a,1.1046,10,729,2,2,11,35,7,1,0,0,1,0,0,1,0,0,hexagon,circle,,,,,,,,,,,,,,,,,,,,,,,,,,,,,,,,,,,,,,,,,,,,,,,,,,,,,,
292489,2022-11-25_24h15.27.887,vts_reward_expectancy_bt,2022.2.4,Win32,60.00960154,Chrome,1536,864,,,,,,,,,,,,,,,,,,,,,,,139,D,circle,1,0,d,1.1461,0,0,0,0,0,1,,,,,,,,,,,,,,,,,,,,,,,,,,,,,,,,,,,,,,,,,
292489,2022-11-25_24h15.27.887,vts_reward_expectancy_bt,2022.2.4,Win32,60.00960154,Chrome,1536,864,,,,,,,,,,,,,,,,,,,,,,,125,H,star,1,0,d,0.7647,0,1,0,1,0,1,,,,,,,,,,,,,,,,,,,,,,,,,,,,,,,,,,,,,,,,,
292489,2022-11-25_24h15.27.887,vts_reward_expectancy_bt,2022.2.4,Win32,60.00960154,Chrome,1536,864,,,,,,,,,,,,,,,,,,,,,,,181,F,hexagon,1,0,f,0.5447,0,2,0,2,0,1,,,,,,,,,,,,,,,,,,,,,,,,,,,,,,,,,,,,,,,,,
292489,2022-11-25_24h15.27.887,vts_reward_expectancy_bt,2022.2.4,Win32,60.00960154,Chrome,1536,864,,,,,,,,,,,,,,,,,,,,,,,174,W,triangle,1,0,f,1.0284,0,3,0,3,0,1,,,,,,,,,,,,,,,,,,,,,,,,,,,,,,,,,,,,,,,,,
292489,2022-11-25_24h15.27.887,vts_reward_expectancy_bt,2022.2.4,Win32,60.00960154,Chrome,1536,864,,,,,,,,,,,,,,,,,,,,,,,167,Y,circle,1,0,f,0.6631,0,4,0,4,0,1,,,,,,,,,,,,,,,,,,,,,,,,,,,,,,,,,,,,,,,,,
292489,2022-11-25_24h15.27.887,vts_reward_expectancy_bt,2022.2.4,Win32,60.00960154,Chrome,1536,864,,,,,,,,,,,,,,,,,,,,,,,160,U,star,1,0,f,0.6444,0,5,0,5,0,1,,,,,,,,,,,,,,,,,,,,,,,,,,,,,,,,,,,,,,,,,
292489,2022-11-25_24h15.27.887,vts_reward_expectancy_bt,2022.2.4,Win32,60.00960154,Chrome,1536,864,,,,,,,,,,,,,,,,,,,,,,,132,B,hexagon,1,0,d,0.7453,0,6,0,6,0,1,,,,,,,,,,,,,,,,,,,,,,,,,,,,,,,,,,,,,,,,,
292489,2022-11-25_24h15.27.887,vts_reward_expectancy_bt,2022.2.4,Win32,60.00960154,Chrome,1536,864,,,,,,,,,,,,,,,,,,,,,,,146,S,triangle,1,0,d,0.9458,0,7,0,7,0,1,,,,,,,,,,,,,,,,,,,,,,,,,,,,,,,,,,,,,,,,,
292489,2022-11-25_24h15.27.887,vts_reward_expectancy_bt,2022.2.4,Win32,60.00960154,Chrome,1536,864,,,,,,,,,,,,,,,,,,,,,,,139,D,hexagon,1,0,d,0.7305,0,8,0,8,0,1,,,,,,,,,,,,,,,,,,,,,,,,,,,,,,,,,,,,,,,,,
292489,2022-11-25_24h15.27.887,vts_reward_expectancy_bt,2022.2.4,Win32,60.00960154,Chrome,1536,864,,,,,,,,,,,,,,,,,,,,,,,125,H,triangle,1,0,d,0.6343,0,9,0,9,0,1,,,,,,,,,,,,,,,,,,,,,,,,,,,,,,,,,,,,,,,,,
292489,2022-11-25_24h15.27.887,vts_reward_expectancy_bt,2022.2.4,Win32,60.00960154,Chrome,1536,864,,,,,,,,,,,,,,,,,,,,,,,160,H,hexagon,1,0,,,1,,,,,,j,1.8077,0,0,0,0,1,,,,,,,,,,,,,,,,,,,,,,,,,,,,,,,,,,
292489,2022-11-25_24h15.27.887,vts_reward_expectancy_bt,2022.2.4,Win32,60.00960154,Chrome,1536,864,,,,,,,,,,,,,,,,,,,,,,,146,W,circle,1,0,,,1,,,,,,k,0.8078,1,0,1,0,1,,,,,,,,,,,,,,,,,,,,,,,,,,,,,,,,,,
292489,2022-11-25_24h15.27.887,vts_reward_expectancy_bt,2022.2.4,Win32,60.00960154,Chrome,1536,864,,,,,,,,,,,,,,,,,,,,,,,167,F,star,1,0,,,1,,,,,,j,0.7255,2,0,2,0,1,,,,,,,,,,,,,,,,,,,,,,,,,,,,,,,,,,
292489,2022-11-25_24h15.27.887,vts_reward_expectancy_bt,2022.2.4,Win32,60.00960154,Chrome,1536,864,,,,,,,,,,,,,,,,,,,,,,,181,U,triangle,1,0,,,1,,,,,,k,0.6903,3,0,3,0,1,,,,,,,,,,,,,,,,,,,,,,,,,,,,,,,,,,
292489,2022-11-25_24h15.27.887,vts_reward_expectancy_bt,2022.2.4,Win32,60.00960154,Chrome,1536,864,,,,,,,,,,,,,,,,,,,,,,,139,Y,hexagon,1,0,,,1,,,,,,k,0.794,4,0,4,0,1,,,,,,,,,,,,,,,,,,,,,,,,,,,,,,,,,,
292489,2022-11-25_24h15.27.887,vts_reward_expectancy_bt,2022.2.4,Win32,60.00960154,Chrome,1536,864,,,,,,,,,,,,,,,,,,,,,,,125,S,circle,1,0,,,1,,,,,,k,2.1998,5,0,5,0,1,,,,,,,,,,,,,,,,,,,,,,,,,,,,,,,,,,
292489,2022-11-25_24h15.27.887,vts_reward_expectancy_bt,2022.2.4,Win32,60.00960154,Chrome,1536,864,,,,,,,,,,,,,,,,,,,,,,,174,B,star,1,0,,,1,,,,,,j,0.6219,6,0,6,0,1,,,,,,,,,,,,,,,,,,,,,,,,,,,,,,,,,,
292489,2022-11-25_24h15.27.887,vts_reward_expectancy_bt,2022.2.4,Win32,60.00960154,Chrome,1536,864,,,,,,,,,,,,,,,,,,,,,,,132,D,triangle,1,0,,,1,,,,,,j,0.622,7,0,7,0,1,,,,,,,,,,,,,,,,,,,,,,,,,,,,,,,,,,
292489,2022-11-25_24h15.27.887,vts_reward_expectancy_bt,2022.2.4,Win32,60.00960154,Chrome,1536,864,,,,,,,,,,,,,,,,,,,,,,,160,H,triangle,1,0,,,1,,,,,,j,0.6687,8,0,8,0,1,,,,,,,,,,,,,,,,,,,,,,,,,,,,,,,,,,
292489,2022-11-25_24h15.27.887,vts_reward_expectancy_bt,2022.2.4,Win32,60.00960154,Chrome,1536,864,,,,,,,,,,,,,,,,,,,,,,,146,W,hexagon,1,0,,,1,,,,,,k,0.7355,9,0,9,0,1,,,,,,,,,,,,,,,,,,,,,,,,,,,,,,,,,,
292489,2022-11-25_24h15.27.887,vts_reward_expectancy_bt,2022.2.4,Win32,60.00960154,Chrome,1536,864,,,,,0,729,,,,,,,,,,,,,,,,,132,F,circle,1,0,,,2,,,,,,,,,,,,,-1,number,NA,d,1.1119,vtsPrac,0,0,0,0,1,,,,,,,,,,,,,,,,,,,,,,,
292489,2022-11-25_24h15.27.887,vts_reward_expectancy_bt,2022.2.4,Win32,60.00960154,Chrome,1536,864,,,,,0,729,,,,,,,,,,,,,,,,,181,D,star,1,0,,,2,,,,,,,,,,,,,repeat,number,numRpt,f,0.9929,vtsPrac,1,0,1,0,1,,,,,,,,,,,,,,,,,,,,,,,
292489,2022-11-25_24h15.27.887,vts_reward_expectancy_bt,2022.2.4,Win32,60.00960154,Chrome,1536,864,,,,,0,729,,,,,,,,,,,,,,,,,160,S,circle,1,0,,,2,,,,,,,,,,,,,switch,letter,lettSwt,k,0.6005,vtsPrac,2,0,2,0,1,,,,,,,,,,,,,,,,,,,,,,,
292489,2022-11-25_24h15.27.887,vts_reward_expectancy_bt,2022.2.4,Win32,60.00960154,Chrome,1536,864,,,,,0,729,,,,,,,,,,,,,,,,,146,B,star,1,0,,,2,,,,,,,,,,,,,switch,number,numSwt,d,0.6487,vtsPrac,3,0,3,0,1,,,,,,,,,,,,,,,,,,,,,,,
292489,2022-11-25_24h15.27.887,vts_reward_expectancy_bt,2022.2.4,Win32,60.00960154,Chrome,1536,864,,,,,0,729,,,,,,,,,,,,,,,,,132,F,hexagon,1,0,,,2,,,,,,,,,,,,,switch,letter,lettSwt,j,0.7268,vtsPrac,4,0,4,0,1,,,,,,,,,,,,,,,,,,,,,,,
292489,2022-11-25_24h15.27.887,vts_reward_expectancy_bt,2022.2.4,Win32,60.00960154,Chrome,1536,864,,,,,0,729,,,,,,,,,,,,,,,,,181,D,triangle,1,0,,,2,,,,,,,,,,,,,repeat,letter,lettRpt,j,0.6506,vtsPrac,5,0,5,0,1,,,,,,,,,,,,,,,,,,,,,,,
292489,2022-11-25_24h15.27.887,vts_reward_expectancy_bt,2022.2.4,Win32,60.00960154,Chrome,1536,864,,,,,0,729,,,,,,,,,,,,,,,,,160,S,hexagon,0,0,,,2,,,,,,,,,,,,,switch,number,NA,d,0.8843,vtsPrac,6,0,6,0,1,,,,,,,,,,,,,,,,,,,,,,,
292489,2022-11-25_24h15.27.887,vts_reward_expectancy_bt,2022.2.4,Win32,60.00960154,Chrome,1536,864,,,,,0,729,,,,,,,,,,,,,,,,,146,B,circle,1,1,,,2,,,,,,,,,,,,,switch,letter,lettSwt,j,0.9846,vtsPrac,7,0,7,0,1,,,,,,,,,,,,,,,,,,,,,,,
292489,2022-11-25_24h15.27.887,vts_reward_expectancy_bt,2022.2.4,Win32,60.00960154,Chrome,1536,864,,,,,0,729,,,,,,,,,,,,,,,,,174,B,hexagon,1,0,,,2,,,,,,,,,,,,,repeat,letter,lettRpt,j,0.7357,vtsPrac,8,0,8,0,1,,,,,,,,,,,,,,,,,,,,,,,
292489,2022-11-25_24h15.27.887,vts_reward_expectancy_bt,2022.2.4,Win32,60.00960154,Chrome,1536,864,,,,,0,729,,,,,,,,,,,,,,,,,132,D,circle,1,0,,,2,,,,,,,,,,,,,switch,number,numSwt,d,1.7584,vtsPrac,9,0,9,0,1,,,,,,,,,,,,,,,,,,,,,,,
292489,2022-11-25_24h15.27.887,vts_reward_expectancy_bt,2022.2.4,Win32,60.00960154,Chrome,1536,864,,,,,0,729,,,,,,,,,,,,,,,,,139,H,star,1,0,,,2,,,,,,,,,,,,,repeat,number,numRpt,d,1.3008,vtsPrac,10,0,10,0,1,,,,,,,,,,,,,,,,,,,,,,,
292489,2022-11-25_24h15.27.887,vts_reward_expectancy_bt,2022.2.4,Win32,60.00960154,Chrome,1536,864,,,,,0,729,,,,,,,,,,,,,,,,,160,W,circle,1,0,,,2,,,,,,,,,,,,,repeat,number,numRpt,f,0.6515,vtsPrac,11,0,11,0,1,,,,,,,,,,,,,,,,,,,,,,,
292489,2022-11-25_24h15.27.887,vts_reward_expectancy_bt,2022.2.4,Win32,60.00960154,Chrome,1536,864,,,,,0,729,,,,,,,,,,,,,,,,,125,B,circle,1,0,,,2,,,,,,,,,,,,,switch,letter,lettSwt,j,1.4511,vtsPrac,12,0,12,0,1,,,,,,,,,,,,,,,,,,,,,,,
292489,2022-11-25_24h15.27.887,vts_reward_expectancy_bt,2022.2.4,Win32,60.00960154,Chrome,1536,864,,,,,0,729,,,,,,,,,,,,,,,,,139,W,star,1,0,,,2,,,,,,,,,,,,,repeat,letter,lettRpt,k,0.8667,vtsPrac,13,0,13,0,1,,,,,,,,,,,,,,,,,,,,,,,
292489,2022-11-25_24h15.27.887,vts_reward_expectancy_bt,2022.2.4,Win32,60.00960154,Chrome,1536,864,,,,,0,729,,,,,,,,,,,,,,,,,167,D,star,1,0,,,2,,,,,,,,,,,,,switch,number,numSwt,f,0.7345,vtsPrac,14,0,14,0,1,,,,,,,,,,,,,,,,,,,,,,,
292489,2022-11-25_24h15.27.887,vts_reward_expectancy_bt,2022.2.4,Win32,60.00960154,Chrome,1536,864,,,,,0,729,,,,,,,,,,,,,,,,,181,Y,triangle,1,0,,,2,,,,,,,,,,,,,repeat,number,numRpt,f,0.7067,vtsPrac,15,0,15,0,1,,,,,,,,,,,,,,,,,,,,,,,
292489,2022-11-25_24h15.27.887,vts_reward_expectancy_bt,2022.2.4,Win32,60.00960154,Chrome,1536,864,,,,,0,729,,,,,,,,,,,,,,,,,125,Y,circle,1,0,,,2,,,,,,,,,,,,,repeat,number,numRpt,d,0.6003,vtsPrac,16,0,16,0,1,,,,,,,,,,,,,,,,,,,,,,,
292489,2022-11-25_24h15.27.887,vts_reward_expectancy_bt,2022.2.4,Win32,60.00960154,Chrome,1536,864,,,,,0,729,,,,,,,,,,,,,,,,,132,W,hexagon,1,0,,,2,,,,,,,,,,,,,switch,letter,lettSwt,k,0.8938,vtsPrac,17,0,17,0,1,,,,,,,,,,,,,,,,,,,,,,,
292489,2022-11-25_24h15.27.887,vts_reward_expectancy_bt,2022.2.4,Win32,60.00960154,Chrome,1536,864,,,,,0,729,,,,,,,,,,,,,,,,,146,F,circle,1,0,,,2,,,,,,,,,,,,,repeat,letter,lettRpt,j,1.0004,vtsPrac,18,0,18,0,1,,,,,,,,,,,,,,,,,,,,,,,
292489,2022-11-25_24h15.27.887,vts_reward_expectancy_bt,2022.2.4,Win32,60.00960154,Chrome,1536,864,,,,,0,729,,,,,,,,,,,,,,,,,167,D,triangle,1,0,,,2,,,,,,,,,,,,,repeat,letter,lettRpt,j,0.773,vtsPrac,19,0,19,0,1,,,,,,,,,,,,,,,,,,,,,,,
292489,2022-11-25_24h15.27.887,vts_reward_expectancy_bt,2022.2.4,Win32,60.00960154,Chrome,1536,864,,,,,0,729,,,,,,,,,,,,,,,,,167,U,hexagon,1,0,,,2,,,,,,,,,,,,,switch,number,numSwt,f,0.7748,vtsPrac,20,0,20,0,1,,,,,,,,,,,,,,,,,,,,,,,
292489,2022-11-25_24h15.27.887,vts_reward_expectancy_bt,2022.2.4,Win32,60.00960154,Chrome,1536,864,,,,,0,729,,,,,,,,,,,,,,,,,125,D,circle,1,0,,,2,,,,,,,,,,,,,repeat,number,numRpt,d,0.7508,vtsPrac,21,0,21,0,1,,,,,,,,,,,,,,,,,,,,,,,
292489,2022-11-25_24h15.27.887,vts_reward_expectancy_bt,2022.2.4,Win32,60.00960154,Chrome,1536,864,,,,,0,729,,,,,,,,,,,,,,,,,139,F,circle,1,0,,,2,,,,,,,,,,,,,repeat,number,numRpt,d,0.688,vtsPrac,22,0,22,0,1,,,,,,,,,,,,,,,,,,,,,,,
292489,2022-11-25_24h15.27.887,vts_reward_expectancy_bt,2022.2.4,Win32,60.00960154,Chrome,1536,864,,,,,0,729,,,,,,,,,,,,,,,,,174,Y,triangle,1,0,,,2,,,,,,,,,,,,,switch,letter,lettSwt,k,0.6392,vtsPrac,23,0,23,0,1,,,,,,,,,,,,,,,,,,,,,,,
292489,2022-11-25_24h15.27.887,vts_reward_expectancy_bt,2022.2.4,Win32,60.00960154,Chrome,1536,864,,,,,0,729,,,,,,,,,,,,,,,,,125,D,star,1,0,,,2,,,,,,,,,,,,,repeat,letter,lettRpt,j,1.1258,vtsPrac,24,0,24,0,1,,,,,,,,,,,,,,,,,,,,,,,
292489,2022-11-25_24h15.27.887,vts_reward_expectancy_bt,2022.2.4,Win32,60.00960154,Chrome,1536,864,,,,,0,729,,,,,,,,,,,,,,,,,167,F,hexagon,1,0,,,2,,,,,,,,,,,,,switch,number,numSwt,f,0.6684,vtsPrac,25,0,25,0,1,,,,,,,,,,,,,,,,,,,,,,,
292489,2022-11-25_24h15.27.887,vts_reward_expectancy_bt,2022.2.4,Win32,60.00960154,Chrome,1536,864,,,,,0,729,,,,,,,,,,,,,,,,,181,H,circle,1,0,,,2,,,,,,,,,,,,,switch,letter,lettSwt,j,1.657,vtsPrac,26,0,26,0,1,,,,,,,,,,,,,,,,,,,,,,,
292489,2022-11-25_24h15.27.887,vts_reward_expectancy_bt,2022.2.4,Win32,60.00960154,Chrome,1536,864,,,,,0,729,,,,,,,,,,,,,,,,,139,U,hexagon,1,0,,,2,,,,,,,,,,,,,switch,number,numSwt,d,0.6561,vtsPrac,27,0,27,0,1,,,,,,,,,,,,,,,,,,,,,,,
292489,2022-11-25_24h15.27.887,vts_reward_expectancy_bt,2022.2.4,Win32,60.00960154,Chrome,1536,864,,,,,0,729,,,,,,,,,,,,,,,,,125,H,triangle,1,0,,,2,,,,,,,,,,,,,repeat,number,numRpt,d,0.5353,vtsPrac,28,0,28,0,1,,,,,,,,,,,,,,,,,,,,,,,
292489,2022-11-25_24h15.27.887,vts_reward_expectancy_bt,2022.2.4,Win32,60.00960154,Chrome,1536,864,,,,,0,729,,,,,,,,,,,,,,,,,139,B,hexagon,1,0,,,2,,,,,,,,,,,,,repeat,number,numRpt,d,0.6017,vtsPrac,29,0,29,0,1,,,,,,,,,,,,,,,,,,,,,,,
292489,2022-11-25_24h15.27.887,vts_reward_expectancy_bt,2022.2.4,Win32,60.00960154,Chrome,1536,864,,,,,0,729,,,,,,,,,,,,,,,,,174,D,hexagon,1,0,,,2,,,,,,,,,,,,,repeat,number,numRpt,f,0.6523,vtsPrac,30,0,30,0,1,,,,,,,,,,,,,,,,,,,,,,,
292489,2022-11-25_24h15.27.887,vts_reward_expectancy_bt,2022.2.4,Win32,60.00960154,Chrome,1536,864,,,,,0,729,,,,,,,,,,,,,,,,,146,Y,circle,1,0,,,2,,,,,,,,,,,,,switch,letter,lettSwt,k,0.6316,vtsPrac,31,0,31,0,1,,,,,,,,,,,,,,,,,,,,,,,
292489,2022-11-25_24h15.27.887,vts_reward_expectancy_bt,2022.2.4,Win32,60.00960154,Chrome,1536,864,,,,,,,,,,,,,,,,,,,,,,,,,,,,,,,,,,,,,,,,,,,,,,,,,,,,,,,,,,,,,,,,,,,,,,,,,,,,
292489,2022-11-25_24h15.27.887,vts_reward_expectancy_bt,2022.2.4,Win32,60.00960154,Chrome,1536,864,,,,,,,,,,,,,,,,,,,,,,,,,,,,,,,,,,,,,,,,,,,,,,,,,,,,,,,,,,,,,,,,,,,,,,,,,,,,
292489,2022-11-25_24h15.27.887,vts_reward_expectancy_bt,2022.2.4,Win32,60.00960154,Chrome,1536,864,,,,,0,729,,,,,,,,,,,,,,,,,125,Y,circle,1,0,,,,,,,,,,,,,,,,switch,number,numSwt,d,0.8497,noRew,,,,,,0,0,0,0,0,1,,,,,,,,,,,,,,,,,
292489,2022-11-25_24h15.27.887,vts_reward_expectancy_bt,2022.2.4,Win32,60.00960154,Chrome,1536,864,,,,,0,729,,,,,,,,,,,,,,,,,167,D,star,1,0,,,,,,,,,,,,,,,,repeat,number,numRpt,f,0.956,noRew,,,,,,0,1,0,1,0,1,,,,,,,,,,,,,,,,,
292489,2022-11-25_24h15.27.887,vts_reward_expectancy_bt,2022.2.4,Win32,60.00960154,Chrome,1536,864,,,,,0,729,,,,,,,,,,,,,,,,,181,W,circle,1,0,,,,,,,,,,,,,,,,switch,letter,lettSwt,k,0.6875,noRew,,,,,,0,2,0,2,0,1,,,,,,,,,,,,,,,,,
292489,2022-11-25_24h15.27.887,vts_reward_expectancy_bt,2022.2.4,Win32,60.00960154,Chrome,1536,864,,,,,0,729,,,,,,,,,,,,,,,,,132,H,star,1,0,,,,,,,,,,,,,,,,repeat,letter,lettRpt,j,0.8712,noRew,,,,,,0,3,0,3,0,1,,,,,,,,,,,,,,,,,
292489,2022-11-25_24h15.27.887,vts_reward_expectancy_bt,2022.2.4,Win32,60.00960154,Chrome,1536,864,,,,,0,729,,,,,,,,,,,,,,,,,125,Y,triangle,1,0,,,,,,,,,,,,,,,,repeat,letter,lettRpt,k,0.6667,noRew,,,,,,0,4,0,4,0,1,,,,,,,,,,,,,,,,,
292489,2022-11-25_24h15.27.887,vts_reward_expectancy_bt,2022.2.4,Win32,60.00960154,Chrome,1536,864,,,,,0,729,,,,,,,,,,,,,,,,,167,D,circle,1,0,,,,,,,,,,,,,,,,switch,number,numSwt,f,0.8068,noRew,,,,,,0,5,0,5,0,1,,,,,,,,,,,,,,,,,
292489,2022-11-25_24h15.27.887,vts_reward_expectancy_bt,2022.2.4,Win32,60.00960154,Chrome,1536,864,,,,,0,729,,,,,,,,,,,,,,,,,181,W,hexagon,1,0,,,,,,,,,,,,,,,,switch,letter,lettSwt,k,0.5182,noRew,,,,,,0,6,0,6,0,1,,,,,,,,,,,,,,,,,
292489,2022-11-25_24h15.27.887,vts_reward_expectancy_bt,2022.2.4,Win32,60.00960154,Chrome,1536,864,,,,,0,729,,,,,,,,,,,,,,,,,132,H,triangle,1,0,,,,,,,,,,,,,,,,repeat,letter,lettRpt,j,0.6377,noRew,,,,,,0,7,0,7,0,1,,,,,,,,,,,,,,,,,
292489,2022-11-25_24h15.27.887,vts_reward_expectancy_bt,2022.2.4,Win32,60.00960154,Chrome,1536,864,,,,,0,729,,,,,,,,,,,,,,,,,125,Y,star,1,0,,,,,,,,,,,,,,,,switch,number,numSwt,d,0.5863,noRew,,,,,,0,8,0,8,0,1,,,,,,,,,,,,,,,,,
292489,2022-11-25_24h15.27.887,vts_reward_expectancy_bt,2022.2.4,Win32,60.00960154,Chrome,1536,864,,,,,0,729,,,,,,,,,,,,,,,,,146,S,hexagon,1,0,,,,,,,,,,,,,,,,repeat,number,numRpt,d,1.1169,noRew,,,,,,0,9,0,9,0,1,,,,,,,,,,,,,,,,,
292489,2022-11-25_24h15.27.887,vts_reward_expectancy_bt,2022.2.4,Win32,60.00960154,Chrome,1536,864,,,,,0,729,,,,,,,,,,,,,,,,,160,W,star,1,0,,,,,,,,,,,,,,,,repeat,number,numRpt,f,0.8028,noRew,,,,,,0,10,0,10,0,1,,,,,,,,,,,,,,,,,
292489,2022-11-25_24h15.27.887,vts_reward_expectancy_bt,2022.2.4,Win32,60.00960154,Chrome,1536,864,,,,,0,729,,,,,,,,,,,,,,,,,139,D,triangle,1,0,,,,,,,,,,,,,,,,repeat,number,numRpt,d,0.684,noRew,,,,,,0,11,0,11,0,1,,,,,,,,,,,,,,,,,
292489,2022-11-25_24h15.27.887,vts_reward_expectancy_bt,2022.2.4,Win32,60.00960154,Chrome,1536,864,,,,,0,729,,,,,,,,,,,,,,,,,167,H,triangle,1,0,,,,,,,,,,,,,,,,switch,letter,lettSwt,j,0.6928,noRew,,,,,,0,12,0,12,0,1,,,,,,,,,,,,,,,,,
292489,2022-11-25_24h15.27.887,vts_reward_expectancy_bt,2022.2.4,Win32,60.00960154,Chrome,1536,864,,,,,0,729,,,,,,,,,,,,,,,,,139,D,star,1,0,,,,,,,,,,,,,,,,repeat,letter,lettRpt,j,0.6718,noRew,,,,,,0,13,0,13,0,1,,,,,,,,,,,,,,,,,
292489,2022-11-25_24h15.27.887,vts_reward_expectancy_bt,2022.2.4,Win32,60.00960154,Chrome,1536,864,,,,,0,729,,,,,,,,,,,,,,,,,181,W,hexagon,1,0,,,,,,,,,,,,,,,,repeat,letter,lettRpt,k,0.6349,noRew,,,,,,0,14,0,14,0,1,,,,,,,,,,,,,,,,,
292489,2022-11-25_24h15.27.887,vts_reward_expectancy_bt,2022.2.4,Win32,60.00960154,Chrome,1536,864,,,,,0,729,,,,,,,,,,,,,,,,,174,S,circle,1,0,,,,,,,,,,,,,,,,switch,number,numSwt,f,1.0264,noRew,,,,,,0,15,0,15,0,1,,,,,,,,,,,,,,,,,
292489,2022-11-25_24h15.27.887,vts_reward_expectancy_bt,2022.2.4,Win32,60.00960154,Chrome,1536,864,,,,,0,729,,,,,,,,,,,,,,,,,146,H,star,1,0,,,,,,,,,,,,,,,,repeat,number,numRpt,d,0.6593,noRew,,,,,,0,16,0,16,0,1,,,,,,,,,,,,,,,,,
292489,2022-11-25_24h15.27.887,vts_reward_expectancy_bt,2022.2.4,Win32,60.00960154,Chrome,1536,864,,,,,0,729,,,,,,,,,,,,,,,,,139,Y,triangle,1,0,,,,,,,,,,,,,,,,repeat,number,numRpt,d,0.8177,noRew,,,,,,0,17,0,17,0,1,,,,,,,,,,,,,,,,,
292489,2022-11-25_24h15.27.887,vts_reward_expectancy_bt,2022.2.4,Win32,60.00960154,Chrome,1536,864,,,,,0,729,,,,,,,,,,,,,,,,,132,W,circle,1,0,,,,,,,,,,,,,,,,repeat,number,numRpt,d,0.7047,noRew,,,,,,0,18,0,18,0,1,,,,,,,,,,,,,,,,,
292489,2022-11-25_24h15.27.887,vts_reward_expectancy_bt,2022.2.4,Win32,60.00960154,Chrome,1536,864,,,,,0,729,,,,,,,,,,,,,,,,,125,U,triangle,1,0,,,,,,,,,,,,,,,,switch,letter,lettSwt,k,0.6043,noRew,,,,,,0,19,0,19,0,1,,,,,,,,,,,,,,,,,
292489,2022-11-25_24h15.27.887,vts_reward_expectancy_bt,2022.2.4,Win32,60.00960154,Chrome,1536,864,,,,,0,729,,,,,,,,,,,,,,,,,132,Y,star,1,0,,,,,,,,,,,,,,,,repeat,letter,lettRpt,k,1.0997,noRew,,,,,,0,20,0,20,0,1,,,,,,,,,,,,,,,,,
292489,2022-11-25_24h15.27.887,vts_reward_expectancy_bt,2022.2.4,Win32,60.00960154,Chrome,1536,864,,,,,0,729,,,,,,,,,,,,,,,,,160,S,circle,1,0,,,,,,,,,,,,,,,,repeat,letter,lettRpt,k,1.4733,noRew,,,,,,0,21,0,21,0,1,,,,,,,,,,,,,,,,,
292489,2022-11-25_24h15.27.887,vts_reward_expectancy_bt,2022.2.4,Win32,60.00960154,Chrome,1536,864,,,,,0,729,,,,,,,,,,,,,,,,,181,D,triangle,1,0,,,,,,,,,,,,,,,,switch,number,numSwt,f,0.8342,noRew,,,,,,0,22,0,22,0,1,,,,,,,,,,,,,,,,,
292489,2022-11-25_24h15.27.887,vts_reward_expectancy_bt,2022.2.4,Win32,60.00960154,Chrome,1536,864,,,,,0,729,,,,,,,,,,,,,,,,,167,U,hexagon,1,0,,,,,,,,,,,,,,,,repeat,number,numRpt,f,0.8746,noRew,,,,,,0,23,0,23,0,1,,,,,,,,,,,,,,,,,
292489,2022-11-25_24h15.27.887,vts_reward_expectancy_bt,2022.2.4,Win32,60.00960154,Chrome,1536,864,,,,,0,729,,,,,,,,,,,,,,,,,160,B,hexagon,1,0,,,,,,,,,,,,,,,,repeat,number,numRpt,f,0.8335,noRew,,,,,,0,24,0,24,0,1,,,,,,,,,,,,,,,,,
292489,2022-11-25_24h15.27.887,vts_reward_expectancy_bt,2022.2.4,Win32,60.00960154,Chrome,1536,864,,,,,0,729,,,,,,,,,,,,,,,,,139,Y,star,1,0,,,,,,,,,,,,,,,,switch,letter,lettSwt,k,0.6835,noRew,,,,,,0,25,0,25,0,1,,,,,,,,,,,,,,,,,
292489,2022-11-25_24h15.27.887,vts_reward_expectancy_bt,2022.2.4,Win32,60.00960154,Chrome,1536,864,,,,,0,729,,,,,,,,,,,,,,,,,146,W,hexagon,1,0,,,,,,,,,,,,,,,,switch,number,numSwt,d,0.7337,noRew,,,,,,0,26,0,26,0,1,,,,,,,,,,,,,,,,,
292489,2022-11-25_24h15.27.887,vts_reward_expectancy_bt,2022.2.4,Win32,60.00960154,Chrome,1536,864,,,,,0,729,,,,,,,,,,,,,,,,,132,H,star,1,0,,,,,,,,,,,,,,,,switch,letter,lettSwt,j,0.7997,noRew,,,,,,0,27,0,27,0,1,,,,,,,,,,,,,,,,,
292489,2022-11-25_24h15.27.887,vts_reward_expectancy_bt,2022.2.4,Win32,60.00960154,Chrome,1536,864,,,,,0,729,,,,,,,,,,,,,,,,,167,B,hexagon,1,0,,,,,,,,,,,,,,,,switch,number,numSwt,f,0.8495,noRew,,,,,,0,28,0,28,0,1,,,,,,,,,,,,,,,,,
292489,2022-11-25_24h15.27.887,vts_reward_expectancy_bt,2022.2.4,Win32,60.00960154,Chrome,1536,864,,,,,0,729,,,,,,,,,,,,,,,,,139,Y,star,1,0,,,,,,,,,,,,,,,,switch,letter,lettSwt,k,0.6502,noRew,,,,,,0,29,0,29,0,1,,,,,,,,,,,,,,,,,
292489,2022-11-25_24h15.27.887,vts_reward_expectancy_bt,2022.2.4,Win32,60.00960154,Chrome,1536,864,,,,,0,729,,,,,,,,,,,,,,,,,174,W,hexagon,1,0,,,,,,,,,,,,,,,,repeat,letter,lettRpt,k,1.303,noRew,,,,,,0,30,0,30,0,1,,,,,,,,,,,,,,,,,
292489,2022-11-25_24h15.27.887,vts_reward_expectancy_bt,2022.2.4,Win32,60.00960154,Chrome,1536,864,,,,,0,729,,,,,,,,,,,,,,,,,132,U,circle,1,0,,,,,,,,,,,,,,,,switch,number,numSwt,d,0.94,noRew,,,,,,0,31,0,31,0,1,,,,,,,,,,,,,,,,,
292489,2022-11-25_24h15.27.887,vts_reward_expectancy_bt,2022.2.4,Win32,60.00960154,Chrome,1536,864,,,,,0,729,,,,,,,,,,,,,,,,,146,U,circle,1,0,,,,,,,,,,,,,,,,switch,letter,lettSwt,k,0.7846,noRew,,,,,,0,32,0,32,0,1,,,,,,,,,,,,,,,,,
292489,2022-11-25_24h15.27.887,vts_reward_expectancy_bt,2022.2.4,Win32,60.00960154,Chrome,1536,864,,,,,0,729,,,,,,,,,,,,,,,,,125,W,hexagon,1,0,,,,,,,,,,,,,,,,repeat,letter,lettRpt,k,0.7999,noRew,,,,,,0,33,0,33,0,1,,,,,,,,,,,,,,,,,
292489,2022-11-25_24h15.27.887,vts_reward_expectancy_bt,2022.2.4,Win32,60.00960154,Chrome,1536,864,,,,,0,729,,,,,,,,,,,,,,,,,139,S,triangle,1,0,,,,,,,,,,,,,,,,switch,number,numSwt,d,0.7355,noRew,,,,,,0,34,0,34,0,1,,,,,,,,,,,,,,,,,
292489,2022-11-25_24h15.27.887,vts_reward_expectancy_bt,2022.2.4,Win32,60.00960154,Chrome,1536,864,,,,,0,729,,,,,,,,,,,,,,,,,167,B,star,1,0,,,,,,,,,,,,,,,,repeat,number,numRpt,f,0.7177,noRew,,,,,,0,35,0,35,0,1,,,,,,,,,,,,,,,,,
292489,2022-11-25_24h15.27.887,vts_reward_expectancy_bt,2022.2.4,Win32,60.00960154,Chrome,1536,864,,,,,0,729,,,,,,,,,,,,,,,,,174,F,circle,1,0,,,,,,,,,,,,,,,,repeat,number,numRpt,f,0.7497,noRew,,,,,,0,36,0,36,0,1,,,,,,,,,,,,,,,,,
292489,2022-11-25_24h15.27.887,vts_reward_expectancy_bt,2022.2.4,Win32,60.00960154,Chrome,1536,864,,,,,0,729,,,,,,,,,,,,,,,,,160,B,triangle,1,0,,,,,,,,,,,,,,,,switch,letter,lettSwt,j,1.4521,noRew,,,,,,0,37,0,37,0,1,,,,,,,,,,,,,,,,,
292489,2022-11-25_24h15.27.887,vts_reward_expectancy_bt,2022.2.4,Win32,60.00960154,Chrome,1536,864,,,,,0,729,,,,,,,,,,,,,,,,,125,H,triangle,1,0,,,,,,,,,,,,,,,,switch,number,numSwt,d,0.953,noRew,,,,,,0,38,0,38,0,1,,,,,,,,,,,,,,,,,
292489,2022-11-25_24h15.27.887,vts_reward_expectancy_bt,2022.2.4,Win32,60.00960154,Chrome,1536,864,,,,,0,729,,,,,,,,,,,,,,,,,167,Y,circle,1,0,,,,,,,,,,,,,,,,switch,letter,lettSwt,k,0.8061,noRew,,,,,,0,39,0,39,0,1,,,,,,,,,,,,,,,,,
292489,2022-11-25_24h15.27.887,vts_reward_expectancy_bt,2022.2.4,Win32,60.00960154,Chrome,1536,864,,,,,0,729,,,,,,,,,,,,,,,,,139,Y,hexagon,1,0,,,,,,,,,,,,,,,,switch,number,numSwt,d,0.9176,noRew,,,,,,0,40,0,40,0,1,,,,,,,,,,,,,,,,,
292489,2022-11-25_24h15.27.887,vts_reward_expectancy_bt,2022.2.4,Win32,60.00960154,Chrome,1536,864,,,,,0,729,,,,,,,,,,,,,,,,,174,D,triangle,1,0,,,,,,,,,,,,,,,,repeat,number,numRpt,f,1.2085,noRew,,,,,,0,41,0,41,0,1,,,,,,,,,,,,,,,,,
292489,2022-11-25_24h15.27.887,vts_reward_expectancy_bt,2022.2.4,Win32,60.00960154,Chrome,1536,864,,,,,0,729,,,,,,,,,,,,,,,,,160,U,circle,1,0,,,,,,,,,,,,,,,,switch,letter,lettSwt,k,1.0406,noRew,,,,,,0,42,0,42,0,1,,,,,,,,,,,,,,,,,
292489,2022-11-25_24h15.27.887,vts_reward_expectancy_bt,2022.2.4,Win32,60.00960154,Chrome,1536,864,,,,,0,729,,,,,,,,,,,,,,,,,167,B,hexagon,1,0,,,,,,,,,,,,,,,,repeat,letter,lettRpt,j,0.9574,noRew,,,,,,0,43,0,43,0,1,,,,,,,,,,,,,,,,,
292489,2022-11-25_24h15.27.887,vts_reward_expectancy_bt,2022.2.4,Win32,60.00960154,Chrome,1536,864,,,,,0,729,,,,,,,,,,,,,,,,,139,Y,hexagon,1,0,,,,,,,,,,,,,,,,repeat,letter,lettRpt,k,0.7511,noRew,,,,,,0,44,0,44,0,1,,,,,,,,,,,,,,,,,
292489,2022-11-25_24h15.27.887,vts_reward_expectancy_bt,2022.2.4,Win32,60.00960154,Chrome,1536,864,,,,,0,729,,,,,,,,,,,,,,,,,146,F,circle,1,0,,,,,,,,,,,,,,,,switch,number,numSwt,d,0.7845,noRew,,,,,,0,45,0,45,0,1,,,,,,,,,,,,,,,,,
292489,2022-11-25_24h15.27.887,vts_reward_expectancy_bt,2022.2.4,Win32,60.00960154,Chrome,1536,864,,,,,0,729,,,,,,,,,,,,,,,,,167,S,hexagon,1,0,,,,,,,,,,,,,,,,switch,letter,lettSwt,k,0.8035,noRew,,,,,,0,46,0,46,0,1,,,,,,,,,,,,,,,,,
292489,2022-11-25_24h15.27.887,vts_reward_expectancy_bt,2022.2.4,Win32,60.00960154,Chrome,1536,864,,,,,0,729,,,,,,,,,,,,,,,,,125,D,triangle,1,0,,,,,,,,,,,,,,,,repeat,letter,lettRpt,j,1.1512,noRew,,,,,,0,47,0,47,0,1,,,,,,,,,,,,,,,,,
292489,2022-11-25_24h15.27.887,vts_reward_expectancy_bt,2022.2.4,Win32,60.00960154,Chrome,1536,864,,,,,0,729,,,,,,,,,,,,,,,,,174,S,hexagon,1,0,,,,,,,,,,,,,,,,switch,number,numSwt,f,0.7167,noRew,,,,,,0,48,0,48,0,1,,,,,,,,,,,,,,,,,
292489,2022-11-25_24h15.27.887,vts_reward_expectancy_bt,2022.2.4,Win32,60.00960154,Chrome,1536,864,,,,,0,729,,,,,,,,,,,,,,,,,125,F,circle,1,0,,,,,,,,,,,,,,,,repeat,number,numRpt,d,0.6858,noRew,,,,,,0,49,0,49,0,1,,,,,,,,,,,,,,,,,
292489,2022-11-25_24h15.27.887,vts_reward_expectancy_bt,2022.2.4,Win32,60.00960154,Chrome,1536,864,,,,,0,729,,,,,,,,,,,,,,,,,139,B,circle,1,0,,,,,,,,,,,,,,,,repeat,number,numRpt,d,0.6585,noRew,,,,,,0,50,0,50,0,1,,,,,,,,,,,,,,,,,
292489,2022-11-25_24h15.27.887,vts_reward_expectancy_bt,2022.2.4,Win32,60.00960154,Chrome,1536,864,,,,,0,729,,,,,,,,,,,,,,,,,181,U,star,1,0,,,,,,,,,,,,,,,,switch,letter,lettSwt,k,0.7175,noRew,,,,,,0,51,0,51,0,1,,,,,,,,,,,,,,,,,
292489,2022-11-25_24h15.27.887,vts_reward_expectancy_bt,2022.2.4,Win32,60.00960154,Chrome,1536,864,,,,,0,729,,,,,,,,,,,,,,,,,146,D,circle,1,0,,,,,,,,,,,,,,,,repeat,letter,lettRpt,j,0.8849,noRew,,,,,,0,52,0,52,0,1,,,,,,,,,,,,,,,,,
292489,2022-11-25_24h15.27.887,vts_reward_expectancy_bt,2022.2.4,Win32,60.00960154,Chrome,1536,864,,,,,0,729,,,,,,,,,,,,,,,,,125,U,triangle,1,0,,,,,,,,,,,,,,,,switch,number,numSwt,d,0.7682,noRew,,,,,,0,53,0,53,0,1,,,,,,,,,,,,,,,,,
292489,2022-11-25_24h15.27.887,vts_reward_expectancy_bt,2022.2.4,Win32,60.00960154,Chrome,1536,864,,,,,0,729,,,,,,,,,,,,,,,,,160,F,star,1,0,,,,,,,,,,,,,,,,switch,letter,lettSwt,j,1.0444,noRew,,,,,,0,54,0,54,0,1,,,,,,,,,,,,,,,,,
292489,2022-11-25_24h15.27.887,vts_reward_expectancy_bt,2022.2.4,Win32,60.00960154,Chrome,1536,864,,,,,0,729,,,,,,,,,,,,,,,,,174,S,hexagon,1,0,,,,,,,,,,,,,,,,repeat,letter,lettRpt,k,0.7079,noRew,,,,,,0,55,0,55,0,1,,,,,,,,,,,,,,,,,
292489,2022-11-25_24h15.27.887,vts_reward_expectancy_bt,2022.2.4,Win32,60.00960154,Chrome,1536,864,,,,,0,729,,,,,,,,,,,,,,,,,146,Y,circle,1,0,,,,,,,,,,,,,,,,repeat,letter,lettRpt,k,0.6084,noRew,,,,,,0,56,0,56,0,1,,,,,,,,,,,,,,,,,
292489,2022-11-25_24h15.27.887,vts_reward_expectancy_bt,2022.2.4,Win32,60.00960154,Chrome,1536,864,,,,,0,729,,,,,,,,,,,,,,,,,132,W,hexagon,1,0,,,,,,,,,,,,,,,,switch,number,numSwt,d,0.666,noRew,,,,,,0,57,0,57,0,1,,,,,,,,,,,,,,,,,
292489,2022-11-25_24h15.27.887,vts_reward_expectancy_bt,2022.2.4,Win32,60.00960154,Chrome,1536,864,,,,,0,729,,,,,,,,,,,,,,,,,160,B,triangle,1,0,,,,,,,,,,,,,,,,repeat,number,numRpt,f,0.7595,noRew,,,,,,0,58,0,58,0,1,,,,,,,,,,,,,,,,,
292489,2022-11-25_24h15.27.887,vts_reward_expectancy_bt,2022.2.4,Win32,60.00960154,Chrome,1536,864,,,,,0,729,,,,,,,,,,,,,,,,,125,F,hexagon,1,0,,,,,,,,,,,,,,,,repeat,number,numRpt,d,0.7352,noRew,,,,,,0,59,0,59,0,1,,,,,,,,,,,,,,,,,
292489,2022-11-25_24h15.27.887,vts_reward_expectancy_bt,2022.2.4,Win32,60.00960154,Chrome,1536,864,,,,,0,729,,,,,,,,,,,,,,,,,181,H,circle,1,0,,,,,,,,,,,,,,,,repeat,number,numRpt,f,0.7163,noRew,,,,,,0,60,0,60,0,1,,,,,,,,,,,,,,,,,
292489,2022-11-25_24h15.27.887,vts_reward_expectancy_bt,2022.2.4,Win32,60.00960154,Chrome,1536,864,,,,,0,729,,,,,,,,,,,,,,,,,167,Y,triangle,1,0,,,,,,,,,,,,,,,,repeat,number,numRpt,f,0.7188,noRew,,,,,,0,61,0,61,0,1,,,,,,,,,,,,,,,,,
292489,2022-11-25_24h15.27.887,vts_reward_expectancy_bt,2022.2.4,Win32,60.00960154,Chrome,1536,864,,,,,0,729,,,,,,,,,,,,,,,,,146,B,hexagon,1,0,,,,,,,,,,,,,,,,switch,letter,lettSwt,j,0.6931,noRew,,,,,,0,62,0,62,0,1,,,,,,,,,,,,,,,,,
292489,2022-11-25_24h15.27.887,vts_reward_expectancy_bt,2022.2.4,Win32,60.00960154,Chrome,1536,864,,,,,0,729,,,,,,,,,,,,,,,,,139,D,star,1,0,,,,,,,,,,,,,,,,repeat,letter,lettRpt,j,1.0676,noRew,,,,,,0,63,0,63,0,1,,,,,,,,,,,,,,,,,
292489,2022-11-25_24h15.27.887,vts_reward_expectancy_bt,2022.2.4,Win32,60.00960154,Chrome,1536,864,,,,,,,,,,,,,,,,,,,,,,,,,,,,,,,,,,,,,,,,,,,,,,,,,,,,,,,,,,,,,,,,,,,,,,,,,,,,
292489,2022-11-25_24h15.27.887,vts_reward_expectancy_bt,2022.2.4,Win32,60.00960154,Chrome,1536,864,,,,,10,739,,,,,,,,,,,,,,,,,181,F,star,1,0,,,,,,,,,,,,,,,,switch,number,numSwt,f,0.8448,Lo,,,,,,0,,,,,,space,16.9279,high,0,0,0,0,1,,,,,,,,,
292489,2022-11-25_24h15.27.887,vts_reward_expectancy_bt,2022.2.4,Win32,60.00960154,Chrome,1536,864,,,,,10,749,,,,,,,,,,,,,,,,,160,D,triangle,1,0,,,,,,,,,,,,,,,,repeat,number,numRpt,f,0.6644,Hi,,,,,,0,,,,,,,,high,1,0,1,0,1,,,,,,,,,
292489,2022-11-25_24h15.27.887,vts_reward_expectancy_bt,2022.2.4,Win32,60.00960154,Chrome,1536,864,,,,,1,750,,,,,,,,,,,,,,,,,174,S,hexagon,1,0,,,,,,,,,,,,,,,,switch,letter,lettSwt,k,0.5743,Hi,,,,,,0,,,,,,,,high,2,0,2,0,1,,,,,,,,,
292489,2022-11-25_24h15.27.887,vts_reward_expectancy_bt,2022.2.4,Win32,60.00960154,Chrome,1536,864,,,,,10,760,,,,,,,,,,,,,,,,,146,H,circle,1,0,,,,,,,,,,,,,,,,repeat,letter,lettRpt,j,0.696,Lo,,,,,,0,,,,,,,,high,3,0,3,0,1,,,,,,,,,
292489,2022-11-25_24h15.27.887,vts_reward_expectancy_bt,2022.2.4,Win32,60.00960154,Chrome,1536,864,,,,,1,761,,,,,,,,,,,,,,,,,167,W,star,1,0,,,,,,,,,,,,,,,,switch,number,numSwt,f,0.6859,Lo,,,,,,0,,,,,,,,high,4,0,4,0,1,,,,,,,,,
292489,2022-11-25_24h15.27.887,vts_reward_expectancy_bt,2022.2.4,Win32,60.00960154,Chrome,1536,864,,,,,10,771,,,,,,,,,,,,,,,,,125,U,triangle,1,0,,,,,,,,,,,,,,,,repeat,number,numRpt,d,0.6221,Hi,,,,,,0,,,,,,,,high,5,0,5,0,1,,,,,,,,,
292489,2022-11-25_24h15.27.887,vts_reward_expectancy_bt,2022.2.4,Win32,60.00960154,Chrome,1536,864,,,,,1,772,,,,,,,,,,,,,,,,,132,Y,hexagon,1,0,,,,,,,,,,,,,,,,repeat,number,numRpt,d,0.6983,Hi,,,,,,0,,,,,,,,high,6,0,6,0,1,,,,,,,,,
292489,2022-11-25_24h15.27.887,vts_reward_expectancy_bt,2022.2.4,Win32,60.00960154,Chrome,1536,864,,,,,10,782,,,,,,,,,,,,,,,,,139,B,circle,1,0,,,,,,,,,,,,,,,,switch,letter,lettSwt,j,0.5886,Lo,,,,,,0,,,,,,,,high,7,0,7,0,1,,,,,,,,,
292489,2022-11-25_24h15.27.887,vts_reward_expectancy_bt,2022.2.4,Win32,60.00960154,Chrome,1536,864,,,,,1,783,,,,,,,,,,,,,,,,,181,F,star,1,0,,,,,,,,,,,,,,,,switch,number,numSwt,f,0.7278,Lo,,,,,,0,,,,,,,,high,8,0,8,0,1,,,,,,,,,
292489,2022-11-25_24h15.27.887,vts_reward_expectancy_bt,2022.2.4,Win32,60.00960154,Chrome,1536,864,,,,,10,793,,,,,,,,,,,,,,,,,160,D,triangle,1,0,,,,,,,,,,,,,,,,switch,letter,lettSwt,j,0.5984,Hi,,,,,,0,,,,,,,,high,9,0,9,0,1,,,,,,,,,
292489,2022-11-25_24h15.27.887,vts_reward_expectancy_bt,2022.2.4,Win32,60.00960154,Chrome,1536,864,,,,,0,793,,,,,,,,,,,,,,,,,174,S,hexagon,1,0,,,,,,,,,,,,,,,,switch,number,numSwt,f,0.8122,Hi,,,,,,0,,,,,,,,high,10,0,10,0,1,,,,,,,,,
292489,2022-11-25_24h15.27.887,vts_reward_expectancy_bt,2022.2.4,Win32,60.00960154,Chrome,1536,864,,,,,1,794,,,,,,,,,,,,,,,,,146,H,circle,1,0,,,,,,,,,,,,,,,,switch,letter,lettSwt,j,0.5709,Lo,,,,,,0,,,,,,,,high,11,0,11,0,1,,,,,,,,,
292489,2022-11-25_24h15.27.887,vts_reward_expectancy_bt,2022.2.4,Win32,60.00960154,Chrome,1536,864,,,,,1,795,,,,,,,,,,,,,,,,,167,W,triangle,1,0,,,,,,,,,,,,,,,,switch,number,numSwt,f,0.5316,Hi,,,,,,0,,,,,,,,high,12,0,12,0,1,,,,,,,,,
292489,2022-11-25_24h15.27.887,vts_reward_expectancy_bt,2022.2.4,Win32,60.00960154,Chrome,1536,864,,,,,1,796,,,,,,,,,,,,,,,,,125,U,star,1,0,,,,,,,,,,,,,,,,repeat,number,numRpt,d,0.5347,Lo,,,,,,0,,,,,,,,high,13,0,13,0,1,,,,,,,,,
292489,2022-11-25_24h15.27.887,vts_reward_expectancy_bt,2022.2.4,Win32,60.00960154,Chrome,1536,864,,,,,10,806,,,,,,,,,,,,,,,,,132,Y,circle,1,0,,,,,,,,,,,,,,,,switch,letter,lettSwt,k,0.4281,Lo,,,,,,0,,,,,,,,high,14,0,14,0,1,,,,,,,,,
292489,2022-11-25_24h15.27.887,vts_reward_expectancy_bt,2022.2.4,Win32,60.00960154,Chrome,1536,864,,,,,10,816,,,,,,,,,,,,,,,,,139,B,hexagon,1,0,,,,,,,,,,,,,,,,switch,number,numSwt,d,0.6125,Hi,,,,,,0,,,,,,,,high,15,0,15,0,1,,,,,,,,,
292489,2022-11-25_24h15.27.887,vts_reward_expectancy_bt,2022.2.4,Win32,60.00960154,Chrome,1536,864,,,,,1,817,,,,,,,,,,,,,,,,,132,U,circle,1,0,,,,,,,,,,,,,,,,repeat,number,numRpt,d,0.6646,Lo,,,,,,0,,,,,,,,high,16,0,16,0,1,,,,,,,,,
292489,2022-11-25_24h15.27.887,vts_reward_expectancy_bt,2022.2.4,Win32,60.00960154,Chrome,1536,864,,,,,10,827,,,,,,,,,,,,,,,,,160,W,hexagon,1,0,,,,,,,,,,,,,,,,repeat,number,numRpt,f,0.4617,Hi,,,,,,0,,,,,,,,high,17,0,17,0,1,,,,,,,,,
292489,2022-11-25_24h15.27.887,vts_reward_expectancy_bt,2022.2.4,Win32,60.00960154,Chrome,1536,864,,,,,10,837,,,,,,,,,,,,,,,,,181,S,triangle,1,0,,,,,,,,,,,,,,,,repeat,number,numRpt,f,0.4847,Hi,,,,,,0,,,,,,,,high,18,0,18,0,1,,,,,,,,,
292489,2022-11-25_24h15.27.887,vts_reward_expectancy_bt,2022.2.4,Win32,60.00960154,Chrome,1536,864,,,,,1,838,,,,,,,,,,,,,,,,,146,Y,star,1,0,,,,,,,,,,,,,,,,repeat,number,numRpt,d,0.5778,Lo,,,,,,0,,,,,,,,high,19,0,19,0,1,,,,,,,,,
292489,2022-11-25_24h15.27.887,vts_reward_expectancy_bt,2022.2.4,Win32,60.00960154,Chrome,1536,864,,,,,0,838,,,,,,,,,,,,,,,,,139,F,triangle,0,0,,,,,,,,,,,,,,,,switch,letter,NA,k,0.4157,Lo,,,,,,0,,,,,,,,high,20,0,20,0,1,,,,,,,,,
292489,2022-11-25_24h15.27.887,vts_reward_expectancy_bt,2022.2.4,Win32,60.00960154,Chrome,1536,864,,,,,1,839,,,,,,,,,,,,,,,,,174,D,circle,1,1,,,,,,,,,,,,,,,,switch,number,numSwt,f,0.6281,Lo,,,,,,0,,,,,,,,high,21,0,21,0,1,,,,,,,,,
292489,2022-11-25_24h15.27.887,vts_reward_expectancy_bt,2022.2.4,Win32,60.00960154,Chrome,1536,864,,,,,10,849,,,,,,,,,,,,,,,,,125,H,hexagon,1,0,,,,,,,,,,,,,,,,switch,letter,lettSwt,j,0.5319,Hi,,,,,,0,,,,,,,,high,22,0,22,0,1,,,,,,,,,
292489,2022-11-25_24h15.27.887,vts_reward_expectancy_bt,2022.2.4,Win32,60.00960154,Chrome,1536,864,,,,,1,850,,,,,,,,,,,,,,,,,167,B,star,1,0,,,,,,,,,,,,,,,,repeat,letter,lettRpt,j,0.5554,Lo,,,,,,0,,,,,,,,high,23,0,23,0,1,,,,,,,,,
292489,2022-11-25_24h15.27.887,vts_reward_expectancy_bt,2022.2.4,Win32,60.00960154,Chrome,1536,864,,,,,10,860,,,,,,,,,,,,,,,,,132,B,hexagon,1,0,,,,,,,,,,,,,,,,repeat,letter,lettRpt,j,0.4864,Hi,,,,,,0,,,,,,,,high,24,0,24,0,1,,,,,,,,,
292489,2022-11-25_24h15.27.887,vts_reward_expectancy_bt,2022.2.4,Win32,60.00960154,Chrome,1536,864,,,,,1,861,,,,,,,,,,,,,,,,,160,S,triangle,1,0,,,,,,,,,,,,,,,,switch,number,numSwt,f,0.5362,Hi,,,,,,0,,,,,,,,high,25,0,25,0,1,,,,,,,,,
292489,2022-11-25_24h15.27.887,vts_reward_expectancy_bt,2022.2.4,Win32,60.00960154,Chrome,1536,864,,,,,1,862,,,,,,,,,,,,,,,,,139,W,circle,1,0,,,,,,,,,,,,,,,,repeat,number,numRpt,d,0.6305,Lo,,,,,,0,,,,,,,,high,26,0,26,0,1,,,,,,,,,
292489,2022-11-25_24h15.27.887,vts_reward_expectancy_bt,2022.2.4,Win32,60.00960154,Chrome,1536,864,,,,,1,863,,,,,,,,,,,,,,,,,174,F,star,1,0,,,,,,,,,,,,,,,,repeat,number,numRpt,f,0.6234,Lo,,,,,,0,,,,,,,,high,27,0,27,0,1,,,,,,,,,
292489,2022-11-25_24h15.27.887,vts_reward_expectancy_bt,2022.2.4,Win32,60.00960154,Chrome,1536,864,,,,,10,873,,,,,,,,,,,,,,,,,125,U,triangle,1,0,,,,,,,,,,,,,,,,switch,letter,lettSwt,k,0.6143,Hi,,,,,,0,,,,,,,,high,28,0,28,0,1,,,,,,,,,
292489,2022-11-25_24h15.27.887,vts_reward_expectancy_bt,2022.2.4,Win32,60.00960154,Chrome,1536,864,,,,,1,874,,,,,,,,,,,,,,,,,167,H,circle,1,0,,,,,,,,,,,,,,,,repeat,letter,lettRpt,j,0.628,Lo,,,,,,0,,,,,,,,high,29,0,29,0,1,,,,,,,,,
292489,2022-11-25_24h15.27.887,vts_reward_expectancy_bt,2022.2.4,Win32,60.00960154,Chrome,1536,864,,,,,10,884,,,,,,,,,,,,,,,,,181,D,hexagon,1,0,,,,,,,,,,,,,,,,repeat,letter,lettRpt,j,0.6971,Hi,,,,,,0,,,,,,,,high,30,0,30,0,1,,,,,,,,,
292489,2022-11-25_24h15.27.887,vts_reward_expectancy_bt,2022.2.4,Win32,60.00960154,Chrome,1536,864,,,,,1,885,,,,,,,,,,,,,,,,,146,Y,star,1,0,,,,,,,,,,,,,,,,switch,number,numSwt,d,0.6313,Lo,,,,,,0,,,,,,,,high,31,0,31,0,1,,,,,,,,,
292489,2022-11-25_24h15.27.887,vts_reward_expectancy_bt,2022.2.4,Win32,60.00960154,Chrome,1536,864,,,,,10,895,,,,,,,,,,,,,,,,,132,D,triangle,1,0,,,,,,,,,,,,,,,,switch,letter,lettSwt,j,0.5691,Hi,,,,,,1,,,,,,space,2.4611,high,0,0,0,0,1,,,,,,,,,
292489,2022-11-25_24h15.27.887,vts_reward_expectancy_bt,2022.2.4,Win32,60.00960154,Chrome,1536,864,,,,,0,895,,,,,,,,,,,,,,,,,174,S,star,0,0,,,,,,,,,,,,,,,,repeat,letter,NA,j,0.7961,Hi,,,,,,1,,,,,,,,high,1,0,1,0,1,,,,,,,,,
292489,2022-11-25_24h15.27.887,vts_reward_expectancy_bt,2022.2.4,Win32,60.00960154,Chrome,1536,864,,,,,1,896,,,,,,,,,,,,,,,,,181,W,circle,1,1,,,,,,,,,,,,,,,,switch,number,numSwt,f,0.5622,Lo,,,,,,1,,,,,,,,high,2,0,2,0,1,,,,,,,,,
292489,2022-11-25_24h15.27.887,vts_reward_expectancy_bt,2022.2.4,Win32,60.00960154,Chrome,1536,864,,,,,0,896,,,,,,,,,,,,,,,,,125,B,hexagon,1,0,,,,,,,,,,,,,,,,switch,letter,lettSwt,j,0.6841,Hi,,,,,,1,,,,,,,,high,3,0,3,0,1,,,,,,,,,
292489,2022-11-25_24h15.27.887,vts_reward_expectancy_bt,2022.2.4,Win32,60.00960154,Chrome,1536,864,,,,,10,906,,,,,,,,,,,,,,,,,167,Y,triangle,1,0,,,,,,,,,,,,,,,,repeat,letter,lettRpt,k,0.4123,Hi,,,,,,1,,,,,,,,high,4,0,4,0,1,,,,,,,,,
292489,2022-11-25_24h15.27.887,vts_reward_expectancy_bt,2022.2.4,Win32,60.00960154,Chrome,1536,864,,,,,1,907,,,,,,,,,,,,,,,,,160,U,star,1,0,,,,,,,,,,,,,,,,repeat,letter,lettRpt,k,0.7609,Lo,,,,,,1,,,,,,,,high,5,0,5,0,1,,,,,,,,,
292489,2022-11-25_24h15.27.887,vts_reward_expectancy_bt,2022.2.4,Win32,60.00960154,Chrome,1536,864,,,,,1,908,,,,,,,,,,,,,,,,,139,F,circle,1,0,,,,,,,,,,,,,,,,switch,number,numSwt,d,0.5391,Lo,,,,,,1,,,,,,,,high,6,0,6,0,1,,,,,,,,,
292489,2022-11-25_24h15.27.887,vts_reward_expectancy_bt,2022.2.4,Win32,60.00960154,Chrome,1536,864,,,,,0,908,,,,,,,,,,,,,,,,,146,H,hexagon,1,0,,,,,,,,,,,,,,,,repeat,number,numRpt,d,0.5815,Hi,,,,,,1,,,,,,,,high,7,0,7,0,1,,,,,,,,,
292489,2022-11-25_24h15.27.887,vts_reward_expectancy_bt,2022.2.4,Win32,60.00960154,Chrome,1536,864,,,,,1,909,,,,,,,,,,,,,,,,,132,D,star,1,0,,,,,,,,,,,,,,,,switch,letter,lettSwt,j,0.5486,Lo,,,,,,1,,,,,,,,high,8,0,8,0,1,,,,,,,,,
292489,2022-11-25_24h15.27.887,vts_reward_expectancy_bt,2022.2.4,Win32,60.00960154,Chrome,1536,864,,,,,10,919,,,,,,,,,,,,,,,,,174,S,hexagon,1,0,,,,,,,,,,,,,,,,switch,number,numSwt,f,0.4818,Hi,,,,,,1,,,,,,,,high,9,0,9,0,1,,,,,,,,,
292489,2022-11-25_24h15.27.887,vts_reward_expectancy_bt,2022.2.4,Win32,60.00960154,Chrome,1536,864,,,,,10,929,,,,,,,,,,,,,,,,,181,W,triangle,1,0,,,,,,,,,,,,,,,,switch,letter,lettSwt,k,0.5148,Hi,,,,,,1,,,,,,,,high,10,0,10,0,1,,,,,,,,,
292489,2022-11-25_24h15.27.887,vts_reward_expectancy_bt,2022.2.4,Win32,60.00960154,Chrome,1536,864,,,,,10,939,,,,,,,,,,,,,,,,,125,B,circle,1,0,,,,,,,,,,,,,,,,repeat,letter,lettRpt,j,0.3951,Lo,,,,,,1,,,,,,,,high,11,0,11,0,1,,,,,,,,,
292489,2022-11-25_24h15.27.887,vts_reward_expectancy_bt,2022.2.4,Win32,60.00960154,Chrome,1536,864,,,,,0,939,,,,,,,,,,,,,,,,,167,Y,hexagon,0,0,,,,,,,,,,,,,,,,switch,number,NA,d,0.5959,Lo,,,,,,1,,,,,,,,high,12,0,12,0,1,,,,,,,,,
292489,2022-11-25_24h15.27.887,vts_reward_expectancy_bt,2022.2.4,Win32,60.00960154,Chrome,1536,864,,,,,1,940,,,,,,,,,,,,,,,,,160,U,star,1,1,,,,,,,,,,,,,,,,switch,letter,lettSwt,k,0.5633,Lo,,,,,,1,,,,,,,,high,13,0,13,0,1,,,,,,,,,
292489,2022-11-25_24h15.27.887,vts_reward_expectancy_bt,2022.2.4,Win32,60.00960154,Chrome,1536,864,,,,,10,950,,,,,,,,,,,,,,,,,139,F,circle,1,0,,,,,,,,,,,,,,,,repeat,letter,lettRpt,j,0.5564,Lo,,,,,,1,,,,,,,,high,14,0,14,0,1,,,,,,,,,
292489,2022-11-25_24h15.27.887,vts_reward_expectancy_bt,2022.2.4,Win32,60.00960154,Chrome,1536,864,,,,,1,951,,,,,,,,,,,,,,,,,146,H,triangle,1,0,,,,,,,,,,,,,,,,repeat,letter,lettRpt,j,0.487,Hi,,,,,,1,,,,,,,,high,15,0,15,0,1,,,,,,,,,
292489,2022-11-25_24h15.27.887,vts_reward_expectancy_bt,2022.2.4,Win32,60.00960154,Chrome,1536,864,,,,,0,951,,,,,,,,,,,,,,,,,139,H,triangle,0,0,,,,,,,,,,,,,,,,repeat,letter,NA,k,0.381,Hi,,,,,,1,,,,,,,,high,16,0,16,0,1,,,,,,,,,
292489,2022-11-25_24h15.27.887,vts_reward_expectancy_bt,2022.2.4,Win32,60.00960154,Chrome,1536,864,,,,,1,952,,,,,,,,,,,,,,,,,125,D,star,1,1,,,,,,,,,,,,,,,,switch,number,numSwt,d,0.5625,Lo,,,,,,1,,,,,,,,high,17,0,17,0,1,,,,,,,,,
292489,2022-11-25_24h15.27.887,vts_reward_expectancy_bt,2022.2.4,Win32,60.00960154,Chrome,1536,864,,,,,10,962,,,,,,,,,,,,,,,,,160,U,hexagon,1,0,,,,,,,,,,,,,,,,repeat,number,numRpt,f,0.3783,Hi,,,,,,1,,,,,,,,high,18,0,18,0,1,,,,,,,,,
292489,2022-11-25_24h15.27.887,vts_reward_expectancy_bt,2022.2.4,Win32,60.00960154,Chrome,1536,864,,,,,1,963,,,,,,,,,,,,,,,,,146,W,circle,1,0,,,,,,,,,,,,,,,,switch,letter,lettSwt,k,0.5287,Lo,,,,,,1,,,,,,,,high,19,0,19,0,1,,,,,,,,,
292489,2022-11-25_24h15.27.887,vts_reward_expectancy_bt,2022.2.4,Win32,60.00960154,Chrome,1536,864,,,,,0,963,,,,,,,,,,,,,,,,,181,B,triangle,1,0,,,,,,,,,,,,,,,,switch,number,numSwt,f,0.7646,Hi,,,,,,1,,,,,,,,high,20,0,20,0,1,,,,,,,,,
292489,2022-11-25_24h15.27.887,vts_reward_expectancy_bt,2022.2.4,Win32,60.00960154,Chrome,1536,864,,,,,1,964,,,,,,,,,,,,,,,,,167,F,star,1,0,,,,,,,,,,,,,,,,switch,letter,lettSwt,j,0.4387,Lo,,,,,,1,,,,,,,,high,21,0,21,0,1,,,,,,,,,
292489,2022-11-25_24h15.27.887,vts_reward_expectancy_bt,2022.2.4,Win32,60.00960154,Chrome,1536,864,,,,,1,965,,,,,,,,,,,,,,,,,132,S,circle,1,0,,,,,,,,,,,,,,,,switch,number,numSwt,d,0.5036,Lo,,,,,,1,,,,,,,,high,22,0,22,0,1,,,,,,,,,
292489,2022-11-25_24h15.27.887,vts_reward_expectancy_bt,2022.2.4,Win32,60.00960154,Chrome,1536,864,,,,,10,975,,,,,,,,,,,,,,,,,174,Y,hexagon,1,0,,,,,,,,,,,,,,,,switch,letter,lettSwt,k,0.4307,Hi,,,,,,1,,,,,,,,high,23,0,23,0,1,,,,,,,,,
292489,2022-11-25_24h15.27.887,vts_reward_expectancy_bt,2022.2.4,Win32,60.00960154,Chrome,1536,864,,,,,1,976,,,,,,,,,,,,,,,,,174,B,star,1,0,,,,,,,,,,,,,,,,repeat,letter,lettRpt,j,0.3996,Lo,,,,,,1,,,,,,,,high,24,0,24,0,1,,,,,,,,,
292489,2022-11-25_24h15.27.887,vts_reward_expectancy_bt,2022.2.4,Win32,60.00960154,Chrome,1536,864,,,,,10,986,,,,,,,,,,,,,,,,,181,Y,hexagon,1,0,,,,,,,,,,,,,,,,repeat,letter,lettRpt,k,0.3951,Hi,,,,,,1,,,,,,,,high,25,0,25,0,1,,,,,,,,,
292489,2022-11-25_24h15.27.887,vts_reward_expectancy_bt,2022.2.4,Win32,60.00960154,Chrome,1536,864,,,,,1,987,,,,,,,,,,,,,,,,,160,S,triangle,1,0,,,,,,,,,,,,,,,,switch,number,numSwt,f,0.4329,Hi,,,,,,1,,,,,,,,high,26,0,26,0,1,,,,,,,,,
292489,2022-11-25_24h15.27.887,vts_reward_expectancy_bt,2022.2.4,Win32,60.00960154,Chrome,1536,864,,,,,1,988,,,,,,,,,,,,,,,,,132,W,circle,1,0,,,,,,,,,,,,,,,,repeat,number,numRpt,d,0.5463,Lo,,,,,,1,,,,,,,,high,27,0,27,0,1,,,,,,,,,
292489,2022-11-25_24h15.27.887,vts_reward_expectancy_bt,2022.2.4,Win32,60.00960154,Chrome,1536,864,,,,,10,998,,,,,,,,,,,,,,,,,146,F,hexagon,1,0,,,,,,,,,,,,,,,,switch,letter,lettSwt,j,0.5327,Hi,,,,,,1,,,,,,,,high,28,0,28,0,1,,,,,,,,,
292489,2022-11-25_24h15.27.887,vts_reward_expectancy_bt,2022.2.4,Win32,60.00960154,Chrome,1536,864,,,,,10,1008,,,,,,,,,,,,,,,,,167,H,star,1,0,,,,,,,,,,,,,,,,repeat,letter,lettRpt,j,0.5123,Lo,,,,,,1,,,,,,,,high,29,0,29,0,1,,,,,,,,,
292489,2022-11-25_24h15.27.887,vts_reward_expectancy_bt,2022.2.4,Win32,60.00960154,Chrome,1536,864,,,,,0,1008,,,,,,,,,,,,,,,,,139,U,circle,0,0,,,,,,,,,,,,,,,,switch,number,NA,f,0.486,Lo,,,,,,1,,,,,,,,high,30,0,30,0,1,,,,,,,,,
292489,2022-11-25_24h15.27.887,vts_reward_expectancy_bt,2022.2.4,Win32,60.00960154,Chrome,1536,864,,,,,10,1018,,,,,,,,,,,,,,,,,125,D,triangle,1,1,,,,,,,,,,,,,,,,repeat,number,numRpt,d,0.5508,Hi,,,,,,1,,,,,,,,high,31,0,31,0,1,,,,,,,,,
292489,2022-11-25_24h15.27.887,vts_reward_expectancy_bt,2022.2.4,Win32,60.00960154,Chrome,1536,864,,,,,10,1028,,,,,,,,,,,,,,,,,181,U,hexagon,1,0,,,,,,,,,,,,,,,,switch,letter,lettSwt,k,0.4806,Hi,,,,,,2,,,,,,space,3.3527,high,0,0,0,0,1,,,,,,,,,
292489,2022-11-25_24h15.27.887,vts_reward_expectancy_bt,2022.2.4,Win32,60.00960154,Chrome,1536,864,,,,,1,1029,,,,,,,,,,,,,,,,,132,H,star,1,0,,,,,,,,,,,,,,,,switch,number,numSwt,d,0.5449,Lo,,,,,,2,,,,,,,,high,1,0,1,0,1,,,,,,,,,
292489,2022-11-25_24h15.27.887,vts_reward_expectancy_bt,2022.2.4,Win32,60.00960154,Chrome,1536,864,,,,,10,1039,,,,,,,,,,,,,,,,,125,B,triangle,1,0,,,,,,,,,,,,,,,,switch,letter,lettSwt,j,0.4224,Hi,,,,,,2,,,,,,,,high,2,0,2,0,1,,,,,,,,,
292489,2022-11-25_24h15.27.887,vts_reward_expectancy_bt,2022.2.4,Win32,60.00960154,Chrome,1536,864,,,,,1,1040,,,,,,,,,,,,,,,,,146,F,circle,1,0,,,,,,,,,,,,,,,,repeat,letter,lettRpt,j,0.5332,Lo,,,,,,2,,,,,,,,high,3,0,3,0,1,,,,,,,,,
292489,2022-11-25_24h15.27.887,vts_reward_expectancy_bt,2022.2.4,Win32,60.00960154,Chrome,1536,864,,,,,0,1040,,,,,,,,,,,,,,,,,160,Y,hexagon,1,0,,,,,,,,,,,,,,,,repeat,letter,lettRpt,k,0.4783,Hi,,,,,,2,,,,,,,,high,4,0,4,0,1,,,,,,,,,
292489,2022-11-25_24h15.27.887,vts_reward_expectancy_bt,2022.2.4,Win32,60.00960154,Chrome,1536,864,,,,,1,1041,,,,,,,,,,,,,,,,,139,S,star,1,0,,,,,,,,,,,,,,,,switch,number,numSwt,d,0.5285,Lo,,,,,,2,,,,,,,,high,5,0,5,0,1,,,,,,,,,
292489,2022-11-25_24h15.27.887,vts_reward_expectancy_bt,2022.2.4,Win32,60.00960154,Chrome,1536,864,,,,,10,1051,,,,,,,,,,,,,,,,,167,D,triangle,1,0,,,,,,,,,,,,,,,,repeat,number,numRpt,f,0.4538,Hi,,,,,,2,,,,,,,,high,6,0,6,0,1,,,,,,,,,
292489,2022-11-25_24h15.27.887,vts_reward_expectancy_bt,2022.2.4,Win32,60.00960154,Chrome,1536,864,,,,,10,1061,,,,,,,,,,,,,,,,,174,W,circle,1,0,,,,,,,,,,,,,,,,switch,letter,lettSwt,k,0.4637,Lo,,,,,,2,,,,,,,,high,7,0,7,0,1,,,,,,,,,
292489,2022-11-25_24h15.27.887,vts_reward_expectancy_bt,2022.2.4,Win32,60.00960154,Chrome,1536,864,,,,,0,1061,,,,,,,,,,,,,,,,,181,U,triangle,1,0,,,,,,,,,,,,,,,,switch,number,numSwt,f,0.5925,Hi,,,,,,2,,,,,,,,high,8,0,8,0,1,,,,,,,,,
292489,2022-11-25_24h15.27.887,vts_reward_expectancy_bt,2022.2.4,Win32,60.00960154,Chrome,1536,864,,,,,1,1062,,,,,,,,,,,,,,,,,132,H,star,1,0,,,,,,,,,,,,,,,,switch,letter,lettSwt,j,0.4659,Lo,,,,,,2,,,,,,,,high,9,0,9,0,1,,,,,,,,,
292489,2022-11-25_24h15.27.887,vts_reward_expectancy_bt,2022.2.4,Win32,60.00960154,Chrome,1536,864,,,,,1,1063,,,,,,,,,,,,,,,,,125,B,circle,1,0,,,,,,,,,,,,,,,,repeat,letter,lettRpt,j,0.3961,Lo,,,,,,2,,,,,,,,high,10,0,10,0,1,,,,,,,,,
292489,2022-11-25_24h15.27.887,vts_reward_expectancy_bt,2022.2.4,Win32,60.00960154,Chrome,1536,864,,,,,0,1063,,,,,,,,,,,,,,,,,146,F,hexagon,1,0,,,,,,,,,,,,,,,,repeat,letter,lettRpt,j,0.4793,Hi,,,,,,2,,,,,,,,high,11,0,11,0,1,,,,,,,,,
292489,2022-11-25_24h15.27.887,vts_reward_expectancy_bt,2022.2.4,Win32,60.00960154,Chrome,1536,864,,,,,1,1064,,,,,,,,,,,,,,,,,160,Y,circle,1,0,,,,,,,,,,,,,,,,switch,number,numSwt,f,0.3335,Lo,,,,,,2,,,,,,,,high,12,0,12,0,1,,,,,,,,,
292489,2022-11-25_24h15.27.887,vts_reward_expectancy_bt,2022.2.4,Win32,60.00960154,Chrome,1536,864,,,,,10,1074,,,,,,,,,,,,,,,,,139,S,triangle,1,0,,,,,,,,,,,,,,,,repeat,number,numRpt,d,0.4315,Hi,,,,,,2,,,,,,,,high,13,0,13,0,1,,,,,,,,,
292489,2022-11-25_24h15.27.887,vts_reward_expectancy_bt,2022.2.4,Win32,60.00960154,Chrome,1536,864,,,,,10,1084,,,,,,,,,,,,,,,,,167,D,hexagon,1,0,,,,,,,,,,,,,,,,switch,letter,lettSwt,j,0.3997,Hi,,,,,,2,,,,,,,,high,14,0,14,0,1,,,,,,,,,
292489,2022-11-25_24h15.27.887,vts_reward_expectancy_bt,2022.2.4,Win32,60.00960154,Chrome,1536,864,,,,,1,1085,,,,,,,,,,,,,,,,,174,W,star,1,0,,,,,,,,,,,,,,,,switch,number,numSwt,f,0.5282,Lo,,,,,,2,,,,,,,,high,15,0,15,0,1,,,,,,,,,
292489,2022-11-25_24h15.27.887,vts_reward_expectancy_bt,2022.2.4,Win32,60.00960154,Chrome,1536,864,,,,,0,1085,,,,,,,,,,,,,,,,,146,U,triangle,1,0,,,,,,,,,,,,,,,,repeat,number,numRpt,d,0.5629,Hi,,,,,,2,,,,,,,,high,16,0,16,0,1,,,,,,,,,
292489,2022-11-25_24h15.27.887,vts_reward_expectancy_bt,2022.2.4,Win32,60.00960154,Chrome,1536,864,,,,,1,1086,,,,,,,,,,,,,,,,,174,S,circle,1,0,,,,,,,,,,,,,,,,switch,letter,lettSwt,k,0.5964,Lo,,,,,,2,,,,,,,,high,17,0,17,0,1,,,,,,,,,
292489,2022-11-25_24h15.27.887,vts_reward_expectancy_bt,2022.2.4,Win32,60.00960154,Chrome,1536,864,,,,,0,1086,,,,,,,,,,,,,,,,,160,Y,star,0,0,,,,,,,,,,,,,,,,repeat,letter,NA,j,0.5118,Lo,,,,,,2,,,,,,,,high,18,0,18,0,1,,,,,,,,,
292489,2022-11-25_24h15.27.887,vts_reward_expectancy_bt,2022.2.4,Win32,60.00960154,Chrome,1536,864,,,,,0,1086,,,,,,,,,,,,,,,,,167,H,hexagon,0,1,,,,,,,,,,,,,,,,repeat,letter,NA,k,0.3818,Lo,,,,,,2,,,,,,,,high,19,0,19,0,1,,,,,,,,,
292489,2022-11-25_24h15.27.887,vts_reward_expectancy_bt,2022.2.4,Win32,60.00960154,Chrome,1536,864,,,,,1,1087,,,,,,,,,,,,,,,,,132,F,circle,1,1,,,,,,,,,,,,,,,,switch,number,numSwt,d,0.579,Lo,,,,,,2,,,,,,,,high,20,0,20,0,1,,,,,,,,,
292489,2022-11-25_24h15.27.887,vts_reward_expectancy_bt,2022.2.4,Win32,60.00960154,Chrome,1536,864,,,,,10,1097,,,,,,,,,,,,,,,,,181,B,triangle,1,0,,,,,,,,,,,,,,,,switch,letter,lettSwt,j,0.513,Hi,,,,,,2,,,,,,,,high,21,0,21,0,1,,,,,,,,,
292489,2022-11-25_24h15.27.887,vts_reward_expectancy_bt,2022.2.4,Win32,60.00960154,Chrome,1536,864,,,,,0,1097,,,,,,,,,,,,,,,,,139,D,hexagon,1,0,,,,,,,,,,,,,,,,repeat,letter,lettRpt,j,0.4464,Hi,,,,,,2,,,,,,,,high,22,0,22,0,1,,,,,,,,,
292489,2022-11-25_24h15.27.887,vts_reward_expectancy_bt,2022.2.4,Win32,60.00960154,Chrome,1536,864,,,,,1,1098,,,,,,,,,,,,,,,,,125,W,star,1,0,,,,,,,,,,,,,,,,repeat,letter,lettRpt,k,0.5639,Lo,,,,,,2,,,,,,,,high,23,0,23,0,1,,,,,,,,,
292489,2022-11-25_24h15.27.887,vts_reward_expectancy_bt,2022.2.4,Win32,60.00960154,Chrome,1536,864,,,,,1,1099,,,,,,,,,,,,,,,,,167,D,star,1,0,,,,,,,,,,,,,,,,switch,number,numSwt,f,0.3968,Lo,,,,,,2,,,,,,,,high,24,0,24,0,1,,,,,,,,,
292489,2022-11-25_24h15.27.887,vts_reward_expectancy_bt,2022.2.4,Win32,60.00960154,Chrome,1536,864,,,,,10,1109,,,,,,,,,,,,,,,,,125,B,hexagon,1,0,,,,,,,,,,,,,,,,repeat,number,numRpt,d,0.4366,Hi,,,,,,2,,,,,,,,high,25,0,25,0,1,,,,,,,,,
292489,2022-11-25_24h15.27.887,vts_reward_expectancy_bt,2022.2.4,Win32,60.00960154,Chrome,1536,864,,,,,1,1110,,,,,,,,,,,,,,,,,146,W,circle,1,0,,,,,,,,,,,,,,,,switch,letter,lettSwt,k,0.4624,Lo,,,,,,2,,,,,,,,high,26,0,26,0,1,,,,,,,,,
292489,2022-11-25_24h15.27.887,vts_reward_expectancy_bt,2022.2.4,Win32,60.00960154,Chrome,1536,864,,,,,0,1110,,,,,,,,,,,,,,,,,132,Y,triangle,1,0,,,,,,,,,,,,,,,,switch,number,numSwt,d,0.6159,Hi,,,,,,2,,,,,,,,high,27,0,27,0,1,,,,,,,,,
292489,2022-11-25_24h15.27.887,vts_reward_expectancy_bt,2022.2.4,Win32,60.00960154,Chrome,1536,864,,,,,10,1120,,,,,,,,,,,,,,,,,181,U,hexagon,1,0,,,,,,,,,,,,,,,,repeat,number,numRpt,f,0.4037,Hi,,,,,,2,,,,,,,,high,28,0,28,0,1,,,,,,,,,
292489,2022-11-25_24h15.27.887,vts_reward_expectancy_bt,2022.2.4,Win32,60.00960154,Chrome,1536,864,,,,,10,1130,,,,,,,,,,,,,,,,,160,S,triangle,1,0,,,,,,,,,,,,,,,,repeat,number,numRpt,f,0.5123,Hi,,,,,,2,,,,,,,,high,29,0,29,0,1,,,,,,,,,
292489,2022-11-25_24h15.27.887,vts_reward_expectancy_bt,2022.2.4,Win32,60.00960154,Chrome,1536,864,,,,,0,1130,,,,,,,,,,,,,,,,,139,H,star,0,0,,,,,,,,,,,,,,,,switch,letter,NA,k,0.3654,Hi,,,,,,2,,,,,,,,high,30,0,30,0,1,,,,,,,,,
292489,2022-11-25_24h15.27.887,vts_reward_expectancy_bt,2022.2.4,Win32,60.00960154,Chrome,1536,864,,,,,1,1131,,,,,,,,,,,,,,,,,174,F,circle,1,1,,,,,,,,,,,,,,,,switch,number,numSwt,f,0.5866,Lo,,,,,,2,,,,,,,,high,31,0,31,0,1,,,,,,,,,
292489,2022-11-25_24h15.27.887,vts_reward_expectancy_bt,2022.2.4,Win32,60.00960154,Chrome,1536,864,,,,,1,1132,,,,,,,,,,,,,,,,,167,B,star,1,0,,,,,,,,,,,,,,,,repeat,number,numRpt,f,0.4462,Lo,,,,,,3,,,,,,space,4.8635,high,0,0,0,0,1,,,,,,,,,
292489,2022-11-25_24h15.27.887,vts_reward_expectancy_bt,2022.2.4,Win32,60.00960154,Chrome,1536,864,,,,,0,1132,,,,,,,,,,,,,,,,,174,W,hexagon,1,0,,,,,,,,,,,,,,,,repeat,number,numRpt,f,0.497,Hi,,,,,,3,,,,,,,,high,1,0,1,0,1,,,,,,,,,
292489,2022-11-25_24h15.27.887,vts_reward_expectancy_bt,2022.2.4,Win32,60.00960154,Chrome,1536,864,,,,,1,1133,,,,,,,,,,,,,,,,,181,D,circle,1,0,,,,,,,,,,,,,,,,switch,letter,lettSwt,j,0.4876,Lo,,,,,,3,,,,,,,,high,2,0,2,0,1,,,,,,,,,
292489,2022-11-25_24h15.27.887,vts_reward_expectancy_bt,2022.2.4,Win32,60.00960154,Chrome,1536,864,,,,,0,1133,,,,,,,,,,,,,,,,,146,F,triangle,1,0,,,,,,,,,,,,,,,,switch,number,numSwt,d,0.5364,Hi,,,,,,3,,,,,,,,high,3,0,3,0,1,,,,,,,,,
292489,2022-11-25_24h15.27.887,vts_reward_expectancy_bt,2022.2.4,Win32,60.00960154,Chrome,1536,864,,,,,1,1134,,,,,,,,,,,,,,,,,125,Y,star,1,0,,,,,,,,,,,,,,,,switch,letter,lettSwt,k,0.4784,Lo,,,,,,3,,,,,,,,high,4,0,4,0,1,,,,,,,,,
292489,2022-11-25_24h15.27.887,vts_reward_expectancy_bt,2022.2.4,Win32,60.00960154,Chrome,1536,864,,,,,0,1134,,,,,,,,,,,,,,,,,132,U,hexagon,1,0,,,,,,,,,,,,,,,,repeat,letter,lettRpt,k,0.5122,Hi,,,,,,3,,,,,,,,high,5,0,5,0,1,,,,,,,,,
292489,2022-11-25_24h15.27.887,vts_reward_expectancy_bt,2022.2.4,Win32,60.00960154,Chrome,1536,864,,,,,0,1134,,,,,,,,,,,,,,,,,160,S,circle,0,0,,,,,,,,,,,,,,,,repeat,letter,NA,j,0.4348,Hi,,,,,,3,,,,,,,,high,6,0,6,0,1,,,,,,,,,
292489,2022-11-25_24h15.27.887,vts_reward_expectancy_bt,2022.2.4,Win32,60.00960154,Chrome,1536,864,,,,,10,1144,,,,,,,,,,,,,,,,,139,H,triangle,1,1,,,,,,,,,,,,,,,,switch,number,numSwt,d,0.5216,Hi,,,,,,3,,,,,,,,high,7,0,7,0,1,,,,,,,,,
292489,2022-11-25_24h15.27.887,vts_reward_expectancy_bt,2022.2.4,Win32,60.00960154,Chrome,1536,864,,,,,1,1145,,,,,,,,,,,,,,,,,167,B,circle,1,0,,,,,,,,,,,,,,,,repeat,number,numRpt,f,0.396,Lo,,,,,,3,,,,,,,,high,8,0,8,0,1,,,,,,,,,
292489,2022-11-25_24h15.27.887,vts_reward_expectancy_bt,2022.2.4,Win32,60.00960154,Chrome,1536,864,,,,,0,1145,,,,,,,,,,,,,,,,,174,W,triangle,1,0,,,,,,,,,,,,,,,,switch,letter,lettSwt,k,0.4651,Hi,,,,,,3,,,,,,,,high,9,0,9,0,1,,,,,,,,,
292489,2022-11-25_24h15.27.887,vts_reward_expectancy_bt,2022.2.4,Win32,60.00960154,Chrome,1536,864,,,,,10,1155,,,,,,,,,,,,,,,,,181,D,hexagon,1,0,,,,,,,,,,,,,,,,repeat,letter,lettRpt,j,0.3458,Hi,,,,,,3,,,,,,,,high,10,0,10,0,1,,,,,,,,,
292489,2022-11-25_24h15.27.887,vts_reward_expectancy_bt,2022.2.4,Win32,60.00960154,Chrome,1536,864,,,,,1,1156,,,,,,,,,,,,,,,,,146,F,star,1,0,,,,,,,,,,,,,,,,switch,number,numSwt,d,0.3972,Lo,,,,,,3,,,,,,,,high,11,0,11,0,1,,,,,,,,,
292489,2022-11-25_24h15.27.887,vts_reward_expectancy_bt,2022.2.4,Win32,60.00960154,Chrome,1536,864,,,,,10,1166,,,,,,,,,,,,,,,,,125,Y,hexagon,1,0,,,,,,,,,,,,,,,,switch,letter,lettSwt,k,0.4462,Hi,,,,,,3,,,,,,,,high,12,0,12,0,1,,,,,,,,,
292489,2022-11-25_24h15.27.887,vts_reward_expectancy_bt,2022.2.4,Win32,60.00960154,Chrome,1536,864,,,,,10,1176,,,,,,,,,,,,,,,,,132,U,star,1,0,,,,,,,,,,,,,,,,switch,number,numSwt,d,0.5152,Lo,,,,,,3,,,,,,,,high,13,0,13,0,1,,,,,,,,,
292489,2022-11-25_24h15.27.887,vts_reward_expectancy_bt,2022.2.4,Win32,60.00960154,Chrome,1536,864,,,,,10,1186,,,,,,,,,,,,,,,,,160,S,triangle,1,0,,,,,,,,,,,,,,,,repeat,number,numRpt,f,0.3529,Hi,,,,,,3,,,,,,,,high,14,0,14,0,1,,,,,,,,,
292489,2022-11-25_24h15.27.887,vts_reward_expectancy_bt,2022.2.4,Win32,60.00960154,Chrome,1536,864,,,,,0,1186,,,,,,,,,,,,,,,,,139,H,circle,0,0,,,,,,,,,,,,,,,,switch,letter,NA,k,0.3461,Hi,,,,,,3,,,,,,,,high,15,0,15,0,1,,,,,,,,,
292489,2022-11-25_24h15.27.887,vts_reward_expectancy_bt,2022.2.4,Win32,60.00960154,Chrome,1536,864,,,,,1,1187,,,,,,,,,,,,,,,,,125,S,circle,1,1,,,,,,,,,,,,,,,,repeat,letter,lettRpt,k,0.4632,Lo,,,,,,3,,,,,,,,high,16,0,16,0,1,,,,,,,,,
292489,2022-11-25_24h15.27.887,vts_reward_expectancy_bt,2022.2.4,Win32,60.00960154,Chrome,1536,864,,,,,10,1197,,,,,,,,,,,,,,,,,167,U,triangle,1,0,,,,,,,,,,,,,,,,switch,number,numSwt,f,0.5114,Hi,,,,,,3,,,,,,,,high,17,0,17,0,1,,,,,,,,,
292489,2022-11-25_24h15.27.887,vts_reward_expectancy_bt,2022.2.4,Win32,60.00960154,Chrome,1536,864,,,,,10,1207,,,,,,,,,,,,,,,,,146,D,hexagon,1,0,,,,,,,,,,,,,,,,repeat,number,numRpt,d,0.3388,Hi,,,,,,3,,,,,,,,high,18,0,18,0,1,,,,,,,,,
292489,2022-11-25_24h15.27.887,vts_reward_expectancy_bt,2022.2.4,Win32,60.00960154,Chrome,1536,864,,,,,1,1208,,,,,,,,,,,,,,,,,181,B,star,1,0,,,,,,,,,,,,,,,,repeat,number,numRpt,f,0.3609,Lo,,,,,,3,,,,,,,,high,19,0,19,0,1,,,,,,,,,
292489,2022-11-25_24h15.27.887,vts_reward_expectancy_bt,2022.2.4,Win32,60.00960154,Chrome,1536,864,,,,,1,1209,,,,,,,,,,,,,,,,,139,Y,star,1,0,,,,,,,,,,,,,,,,switch,letter,lettSwt,k,0.4966,Lo,,,,,,3,,,,,,,,high,20,0,20,0,1,,,,,,,,,
292489,2022-11-25_24h15.27.887,vts_reward_expectancy_bt,2022.2.4,Win32,60.00960154,Chrome,1536,864,,,,,0,1209,,,,,,,,,,,,,,,,,132,H,hexagon,0,0,,,,,,,,,,,,,,,,repeat,letter,NA,k,0.3021,Lo,,,,,,3,,,,,,,,high,21,0,21,0,1,,,,,,,,,
292489,2022-11-25_24h15.27.887,vts_reward_expectancy_bt,2022.2.4,Win32,60.00960154,Chrome,1536,864,,,,,0,1209,,,,,,,,,,,,,,,,,160,W,triangle,0,1,,,,,,,,,,,,,,,,repeat,letter,NA,j,0.4361,Lo,,,,,,3,,,,,,,,high,22,0,22,0,1,,,,,,,,,
292489,2022-11-25_24h15.27.887,vts_reward_expectancy_bt,2022.2.4,Win32,60.00960154,Chrome,1536,864,,,,,1,1210,,,,,,,,,,,,,,,,,174,F,circle,1,1,,,,,,,,,,,,,,,,switch,number,numSwt,f,0.6519,Lo,,,,,,3,,,,,,,,high,23,0,23,0,1,,,,,,,,,
292489,2022-11-25_24h15.27.887,vts_reward_expectancy_bt,2022.2.4,Win32,60.00960154,Chrome,1536,864,,,,,0,1210,,,,,,,,,,,,,,,,,160,D,hexagon,1,0,,,,,,,,,,,,,,,,repeat,number,numRpt,f,0.512,Hi,,,,,,3,,,,,,,,high,24,0,24,0,1,,,,,,,,,
292489,2022-11-25_24h15.27.887,vts_reward_expectancy_bt,2022.2.4,Win32,60.00960154,Chrome,1536,864,,,,,0,1210,,,,,,,,,,,,,,,,,125,Y,triangle,1,0,,,,,,,,,,,,,,,,repeat,number,numRpt,d,0.5302,Hi,,,,,,3,,,,,,,,high,25,0,25,0,1,,,,,,,,,
292489,2022-11-25_24h15.27.887,vts_reward_expectancy_bt,2022.2.4,Win32,60.00960154,Chrome,1536,864,,,,,0,1210,,,,,,,,,,,,,,,,,146,S,circle,0,0,,,,,,,,,,,,,,,,switch,letter,NA,j,0.4625,Hi,,,,,,3,,,,,,,,high,26,0,26,0,1,,,,,,,,,
292489,2022-11-25_24h15.27.887,vts_reward_expectancy_bt,2022.2.4,Win32,60.00960154,Chrome,1536,864,,,,,1,1211,,,,,,,,,,,,,,,,,167,W,star,1,1,,,,,,,,,,,,,,,,repeat,letter,lettRpt,k,0.4291,Lo,,,,,,3,,,,,,,,high,27,0,27,0,1,,,,,,,,,
292489,2022-11-25_24h15.27.887,vts_reward_expectancy_bt,2022.2.4,Win32,60.00960154,Chrome,1536,864,,,,,10,1221,,,,,,,,,,,,,,,,,174,B,hexagon,1,0,,,,,,,,,,,,,,,,switch,number,numSwt,f,0.5279,Hi,,,,,,3,,,,,,,,high,28,0,28,0,1,,,,,,,,,
292489,2022-11-25_24h15.27.887,vts_reward_expectancy_bt,2022.2.4,Win32,60.00960154,Chrome,1536,864,,,,,0,1221,,,,,,,,,,,,,,,,,139,F,triangle,0,0,,,,,,,,,,,,,,,,repeat,number,NA,f,0.5288,Hi,,,,,,3,,,,,,,,high,29,0,29,0,1,,,,,,,,,
292489,2022-11-25_24h15.27.887,vts_reward_expectancy_bt,2022.2.4,Win32,60.00960154,Chrome,1536,864,,,,,1,1222,,,,,,,,,,,,,,,,,132,H,star,1,1,,,,,,,,,,,,,,,,repeat,number,numRpt,d,0.6488,Lo,,,,,,3,,,,,,,,high,30,0,30,0,1,,,,,,,,,
292489,2022-11-25_24h15.27.887,vts_reward_expectancy_bt,2022.2.4,Win32,60.00960154,Chrome,1536,864,,,,,1,1223,,,,,,,,,,,,,,,,,181,U,circle,1,0,,,,,,,,,,,,,,,,switch,letter,lettSwt,k,0.4452,Lo,,,,,,3,,,,,,,,high,31,0,31,0,1,,,,,,,,,
292489,2022-11-25_24h15.27.887,vts_reward_expectancy_bt,2022.2.4,Win32,60.00960154,Chrome,1536,864,,,,,0,1223,,,,,,,,,,,,,,,,,132,Y,triangle,1,0,,,,,,,,,,,,,,,,switch,number,numSwt,d,0.5845,Hi,,,,,,4,,,,,,space,5.8745,high,0,0,0,0,1,,,,,,,,,
292489,2022-11-25_24h15.27.887,vts_reward_expectancy_bt,2022.2.4,Win32,60.00960154,Chrome,1536,864,,,,,0,1223,,,,,,,,,,,,,,,,,146,S,hexagon,1,0,,,,,,,,,,,,,,,,repeat,number,numRpt,d,0.5397,Hi,,,,,,4,,,,,,,,high,1,0,1,0,1,,,,,,,,,
292489,2022-11-25_24h15.27.887,vts_reward_expectancy_bt,2022.2.4,Win32,60.00960154,Chrome,1536,864,,,,,1,1224,,,,,,,,,,,,,,,,,139,F,star,1,0,,,,,,,,,,,,,,,,repeat,number,numRpt,d,0.5184,Lo,,,,,,4,,,,,,,,high,2,0,2,0,1,,,,,,,,,
292489,2022-11-25_24h15.27.887,vts_reward_expectancy_bt,2022.2.4,Win32,60.00960154,Chrome,1536,864,,,,,1,1225,,,,,,,,,,,,,,,,,167,H,circle,1,0,,,,,,,,,,,,,,,,switch,letter,lettSwt,j,0.4053,Lo,,,,,,4,,,,,,,,high,3,0,3,0,1,,,,,,,,,
292489,2022-11-25_24h15.27.887,vts_reward_expectancy_bt,2022.2.4,Win32,60.00960154,Chrome,1536,864,,,,,0,1225,,,,,,,,,,,,,,,,,125,D,triangle,1,0,,,,,,,,,,,,,,,,repeat,letter,lettRpt,j,0.5159,Hi,,,,,,4,,,,,,,,high,4,0,4,0,1,,,,,,,,,
292489,2022-11-25_24h15.27.887,vts_reward_expectancy_bt,2022.2.4,Win32,60.00960154,Chrome,1536,864,,,,,0,1225,,,,,,,,,,,,,,,,,160,W,hexagon,1,0,,,,,,,,,,,,,,,,repeat,letter,lettRpt,k,0.5122,Hi,,,,,,4,,,,,,,,high,5,0,5,0,1,,,,,,,,,
292489,2022-11-25_24h15.27.887,vts_reward_expectancy_bt,2022.2.4,Win32,60.00960154,Chrome,1536,864,,,,,10,1235,,,,,,,,,,,,,,,,,181,U,star,1,0,,,,,,,,,,,,,,,,switch,number,numSwt,f,0.4663,Lo,,,,,,4,,,,,,,,high,6,0,6,0,1,,,,,,,,,
292489,2022-11-25_24h15.27.887,vts_reward_expectancy_bt,2022.2.4,Win32,60.00960154,Chrome,1536,864,,,,,10,1245,,,,,,,,,,,,,,,,,174,B,circle,1,0,,,,,,,,,,,,,,,,repeat,number,numRpt,f,0.5459,Lo,,,,,,4,,,,,,,,high,7,0,7,0,1,,,,,,,,,
292489,2022-11-25_24h15.27.887,vts_reward_expectancy_bt,2022.2.4,Win32,60.00960154,Chrome,1536,864,,,,,0,1245,,,,,,,,,,,,,,,,,132,Y,hexagon,1,0,,,,,,,,,,,,,,,,repeat,number,numRpt,d,0.5291,Hi,,,,,,4,,,,,,,,high,8,0,8,0,1,,,,,,,,,
292489,2022-11-25_24h15.27.887,vts_reward_expectancy_bt,2022.2.4,Win32,60.00960154,Chrome,1536,864,,,,,0,1245,,,,,,,,,,,,,,,,,146,S,triangle,1,0,,,,,,,,,,,,,,,,switch,letter,lettSwt,k,0.4831,Hi,,,,,,4,,,,,,,,high,9,0,9,0,1,,,,,,,,,
292489,2022-11-25_24h15.27.887,vts_reward_expectancy_bt,2022.2.4,Win32,60.00960154,Chrome,1536,864,,,,,0,1245,,,,,,,,,,,,,,,,,139,F,star,0,0,,,,,,,,,,,,,,,,repeat,letter,NA,k,0.4814,Hi,,,,,,4,,,,,,,,high,10,0,10,0,1,,,,,,,,,
292489,2022-11-25_24h15.27.887,vts_reward_expectancy_bt,2022.2.4,Win32,60.00960154,Chrome,1536,864,,,,,1,1246,,,,,,,,,,,,,,,,,167,H,circle,1,1,,,,,,,,,,,,,,,,switch,number,numSwt,f,0.5125,Lo,,,,,,4,,,,,,,,high,11,0,11,0,1,,,,,,,,,
292489,2022-11-25_24h15.27.887,vts_reward_expectancy_bt,2022.2.4,Win32,60.00960154,Chrome,1536,864,,,,,10,1256,,,,,,,,,,,,,,,,,125,D,triangle,1,0,,,,,,,,,,,,,,,,switch,letter,lettSwt,j,0.4554,Hi,,,,,,4,,,,,,,,high,12,0,12,0,1,,,,,,,,,
292489,2022-11-25_24h15.27.887,vts_reward_expectancy_bt,2022.2.4,Win32,60.00960154,Chrome,1536,864,,,,,1,1257,,,,,,,,,,,,,,,,,160,W,circle,1,0,,,,,,,,,,,,,,,,repeat,letter,lettRpt,k,0.421,Lo,,,,,,4,,,,,,,,high,13,0,13,0,1,,,,,,,,,
292489,2022-11-25_24h15.27.887,vts_reward_expectancy_bt,2022.2.4,Win32,60.00960154,Chrome,1536,864,,,,,0,1257,,,,,,,,,,,,,,,,,181,U,hexagon,1,0,,,,,,,,,,,,,,,,repeat,letter,lettRpt,k,0.5355,Hi,,,,,,4,,,,,,,,high,14,0,14,0,1,,,,,,,,,
292489,2022-11-25_24h15.27.887,vts_reward_expectancy_bt,2022.2.4,Win32,60.00960154,Chrome,1536,864,,,,,1,1258,,,,,,,,,,,,,,,,,174,B,star,1,0,,,,,,,,,,,,,,,,repeat,letter,lettRpt,j,0.5047,Lo,,,,,,4,,,,,,,,high,15,0,15,0,1,,,,,,,,,
292489,2022-11-25_24h15.27.887,vts_reward_expectancy_bt,2022.2.4,Win32,60.00960154,Chrome,1536,864,,,,,0,1258,,,,,,,,,,,,,,,,,181,D,hexagon,1,0,,,,,,,,,,,,,,,,switch,number,numSwt,f,0.5682,Hi,,,,,,4,,,,,,,,high,16,0,16,0,1,,,,,,,,,
292489,2022-11-25_24h15.27.887,vts_reward_expectancy_bt,2022.2.4,Win32,60.00960154,Chrome,1536,864,,,,,1,1259,,,,,,,,,,,,,,,,,139,Y,star,1,0,,,,,,,,,,,,,,,,repeat,number,numRpt,d,0.5145,Lo,,,,,,4,,,,,,,,high,17,0,17,0,1,,,,,,,,,
292489,2022-11-25_24h15.27.887,vts_reward_expectancy_bt,2022.2.4,Win32,60.00960154,Chrome,1536,864,,,,,10,1269,,,,,,,,,,,,,,,,,174,H,triangle,1,0,,,,,,,,,,,,,,,,repeat,number,numRpt,f,0.3682,Hi,,,,,,4,,,,,,,,high,18,0,18,0,1,,,,,,,,,
292489,2022-11-25_24h15.27.887,vts_reward_expectancy_bt,2022.2.4,Win32,60.00960154,Chrome,1536,864,,,,,1,1270,,,,,,,,,,,,,,,,,125,F,circle,1,0,,,,,,,,,,,,,,,,repeat,number,numRpt,d,0.4794,Lo,,,,,,4,,,,,,,,high,19,0,19,0,1,,,,,,,,,
292489,2022-11-25_24h15.27.887,vts_reward_expectancy_bt,2022.2.4,Win32,60.00960154,Chrome,1536,864,,,,,0,1270,,,,,,,,,,,,,,,,,160,B,triangle,0,0,,,,,,,,,,,,,,,,switch,letter,NA,k,0.4505,Lo,,,,,,4,,,,,,,,high,20,0,20,0,1,,,,,,,,,
292489,2022-11-25_24h15.27.887,vts_reward_expectancy_bt,2022.2.4,Win32,60.00960154,Chrome,1536,864,,,,,1,1271,,,,,,,,,,,,,,,,,132,W,star,1,1,,,,,,,,,,,,,,,,repeat,letter,lettRpt,k,0.3817,Lo,,,,,,4,,,,,,,,high,21,0,21,0,1,,,,,,,,,
292489,2022-11-25_24h15.27.887,vts_reward_expectancy_bt,2022.2.4,Win32,60.00960154,Chrome,1536,864,,,,,0,1271,,,,,,,,,,,,,,,,,146,S,circle,0,0,,,,,,,,,,,,,,,,repeat,letter,NA,j,0.3813,Lo,,,,,,4,,,,,,,,high,22,0,22,0,1,,,,,,,,,
292489,2022-11-25_24h15.27.887,vts_reward_expectancy_bt,2022.2.4,Win32,60.00960154,Chrome,1536,864,,,,,0,1271,,,,,,,,,,,,,,,,,167,U,hexagon,1,1,,,,,,,,,,,,,,,,switch,number,numSwt,f,0.6208,Hi,,,,,,4,,,,,,,,high,23,0,23,0,1,,,,,,,,,
292489,2022-11-25_24h15.27.887,vts_reward_expectancy_bt,2022.2.4,Win32,60.00960154,Chrome,1536,864,,,,,10,1281,,,,,,,,,,,,,,,,,139,D,circle,1,0,,,,,,,,,,,,,,,,repeat,number,numRpt,d,0.4822,Lo,,,,,,4,,,,,,,,high,24,0,24,0,1,,,,,,,,,
292489,2022-11-25_24h15.27.887,vts_reward_expectancy_bt,2022.2.4,Win32,60.00960154,Chrome,1536,864,,,,,1,1282,,,,,,,,,,,,,,,,,160,B,star,1,0,,,,,,,,,,,,,,,,repeat,number,numRpt,f,0.3646,Lo,,,,,,4,,,,,,,,high,25,0,25,0,1,,,,,,,,,
292489,2022-11-25_24h15.27.887,vts_reward_expectancy_bt,2022.2.4,Win32,60.00960154,Chrome,1536,864,,,,,0,1282,,,,,,,,,,,,,,,,,181,H,hexagon,1,0,,,,,,,,,,,,,,,,repeat,number,numRpt,f,0.5035,Hi,,,,,,4,,,,,,,,high,26,0,26,0,1,,,,,,,,,
292489,2022-11-25_24h15.27.887,vts_reward_expectancy_bt,2022.2.4,Win32,60.00960154,Chrome,1536,864,,,,,0,1282,,,,,,,,,,,,,,,,,174,F,triangle,0,0,,,,,,,,,,,,,,,,switch,letter,NA,k,0.4314,Hi,,,,,,4,,,,,,,,high,27,0,27,0,1,,,,,,,,,
292489,2022-11-25_24h15.27.887,vts_reward_expectancy_bt,2022.2.4,Win32,60.00960154,Chrome,1536,864,,,,,10,1292,,,,,,,,,,,,,,,,,132,W,star,1,1,,,,,,,,,,,,,,,,repeat,letter,lettRpt,k,0.5158,Lo,,,,,,4,,,,,,,,high,28,0,28,0,1,,,,,,,,,
292489,2022-11-25_24h15.27.887,vts_reward_expectancy_bt,2022.2.4,Win32,60.00960154,Chrome,1536,864,,,,,0,1292,,,,,,,,,,,,,,,,,125,Y,hexagon,0,0,,,,,,,,,,,,,,,,repeat,letter,NA,j,0.3488,Lo,,,,,,4,,,,,,,,high,29,0,29,0,1,,,,,,,,,
292489,2022-11-25_24h15.27.887,vts_reward_expectancy_bt,2022.2.4,Win32,60.00960154,Chrome,1536,864,,,,,1,1293,,,,,,,,,,,,,,,,,146,U,circle,1,1,,,,,,,,,,,,,,,,switch,number,numSwt,d,0.5655,Lo,,,,,,4,,,,,,,,high,30,0,30,0,1,,,,,,,,,
292489,2022-11-25_24h15.27.887,vts_reward_expectancy_bt,2022.2.4,Win32,60.00960154,Chrome,1536,864,,,,,0,1293,,,,,,,,,,,,,,,,,167,S,triangle,1,0,,,,,,,,,,,,,,,,switch,letter,lettSwt,k,0.6671,Hi,,,,,,4,,,,,,,,high,31,0,31,0,1,,,,,,,,,
292489,2022-11-25_24h15.27.887,vts_reward_expectancy_bt,2022.2.4,Win32,60.00960154,Chrome,1536,864,,,,,1,1294,,,,,,,,,,,,,,,,,167,B,circle,1,0,,,,,,,,,,,,,,,,repeat,letter,lettRpt,j,0.4065,Lo,,,,,,5,,,,,,space,1.615,high,0,0,0,0,1,,,,,,,,,
292489,2022-11-25_24h15.27.887,vts_reward_expectancy_bt,2022.2.4,Win32,60.00960154,Chrome,1536,864,,,,,0,1294,,,,,,,,,,,,,,,,,174,F,triangle,1,0,,,,,,,,,,,,,,,,repeat,letter,lettRpt,j,0.545,Hi,,,,,,5,,,,,,,,high,1,0,1,0,1,,,,,,,,,
292489,2022-11-25_24h15.27.887,vts_reward_expectancy_bt,2022.2.4,Win32,60.00960154,Chrome,1536,864,,,,,10,1304,,,,,,,,,,,,,,,,,125,H,hexagon,1,0,,,,,,,,,,,,,,,,switch,number,numSwt,d,0.4706,Hi,,,,,,5,,,,,,,,high,2,0,2,0,1,,,,,,,,,
292489,2022-11-25_24h15.27.887,vts_reward_expectancy_bt,2022.2.4,Win32,60.00960154,Chrome,1536,864,,,,,10,1314,,,,,,,,,,,,,,,,,132,U,star,1,0,,,,,,,,,,,,,,,,repeat,number,numRpt,d,0.4462,Lo,,,,,,5,,,,,,,,high,3,0,3,0,1,,,,,,,,,
292489,2022-11-25_24h15.27.887,vts_reward_expectancy_bt,2022.2.4,Win32,60.00960154,Chrome,1536,864,,,,,1,1315,,,,,,,,,,,,,,,,,139,W,circle,1,0,,,,,,,,,,,,,,,,repeat,number,numRpt,d,0.4797,Lo,,,,,,5,,,,,,,,high,4,0,4,0,1,,,,,,,,,
292489,2022-11-25_24h15.27.887,vts_reward_expectancy_bt,2022.2.4,Win32,60.00960154,Chrome,1536,864,,,,,0,1315,,,,,,,,,,,,,,,,,181,D,triangle,0,0,,,,,,,,,,,,,,,,switch,letter,NA,k,0.3374,Lo,,,,,,5,,,,,,,,high,5,0,5,0,1,,,,,,,,,
292489,2022-11-25_24h15.27.887,vts_reward_expectancy_bt,2022.2.4,Win32,60.00960154,Chrome,1536,864,,,,,1,1316,,,,,,,,,,,,,,,,,160,Y,hexagon,1,1,,,,,,,,,,,,,,,,repeat,letter,lettRpt,k,0.4783,Hi,,,,,,5,,,,,,,,high,6,0,6,0,1,,,,,,,,,
292489,2022-11-25_24h15.27.887,vts_reward_expectancy_bt,2022.2.4,Win32,60.00960154,Chrome,1536,864,,,,,1,1317,,,,,,,,,,,,,,,,,146,S,star,1,0,,,,,,,,,,,,,,,,repeat,letter,lettRpt,k,0.4645,Lo,,,,,,5,,,,,,,,high,7,0,7,0,1,,,,,,,,,
292489,2022-11-25_24h15.27.887,vts_reward_expectancy_bt,2022.2.4,Win32,60.00960154,Chrome,1536,864,,,,,1,1318,,,,,,,,,,,,,,,,,167,B,hexagon,1,0,,,,,,,,,,,,,,,,repeat,letter,lettRpt,j,0.4057,Hi,,,,,,5,,,,,,,,high,8,0,8,0,1,,,,,,,,,
292489,2022-11-25_24h15.27.887,vts_reward_expectancy_bt,2022.2.4,Win32,60.00960154,Chrome,1536,864,,,,,1,1319,,,,,,,,,,,,,,,,,174,F,star,1,0,,,,,,,,,,,,,,,,switch,number,numSwt,f,0.5363,Lo,,,,,,5,,,,,,,,high,9,0,9,0,1,,,,,,,,,
292489,2022-11-25_24h15.27.887,vts_reward_expectancy_bt,2022.2.4,Win32,60.00960154,Chrome,1536,864,,,,,0,1319,,,,,,,,,,,,,,,,,125,H,triangle,1,0,,,,,,,,,,,,,,,,repeat,number,numRpt,d,0.4837,Hi,,,,,,5,,,,,,,,high,10,0,10,0,1,,,,,,,,,
292489,2022-11-25_24h15.27.887,vts_reward_expectancy_bt,2022.2.4,Win32,60.00960154,Chrome,1536,864,,,,,1,1320,,,,,,,,,,,,,,,,,132,U,circle,1,0,,,,,,,,,,,,,,,,switch,letter,lettSwt,k,0.5349,Lo,,,,,,5,,,,,,,,high,11,0,11,0,1,,,,,,,,,
292489,2022-11-25_24h15.27.887,vts_reward_expectancy_bt,2022.2.4,Win32,60.00960154,Chrome,1536,864,,,,,10,1330,,,,,,,,,,,,,,,,,139,W,hexagon,1,0,,,,,,,,,,,,,,,,repeat,letter,lettRpt,k,0.4054,Hi,,,,,,5,,,,,,,,high,12,0,12,0,1,,,,,,,,,
292489,2022-11-25_24h15.27.887,vts_reward_expectancy_bt,2022.2.4,Win32,60.00960154,Chrome,1536,864,,,,,10,1340,,,,,,,,,,,,,,,,,181,D,triangle,1,0,,,,,,,,,,,,,,,,switch,number,numSwt,f,0.4635,Hi,,,,,,5,,,,,,,,high,13,0,13,0,1,,,,,,,,,
292489,2022-11-25_24h15.27.887,vts_reward_expectancy_bt,2022.2.4,Win32,60.00960154,Chrome,1536,864,,,,,1,1341,,,,,,,,,,,,,,,,,160,Y,star,1,0,,,,,,,,,,,,,,,,switch,letter,lettSwt,k,0.4842,Lo,,,,,,5,,,,,,,,high,14,0,14,0,1,,,,,,,,,
292489,2022-11-25_24h15.27.887,vts_reward_expectancy_bt,2022.2.4,Win32,60.00960154,Chrome,1536,864,,,,,10,1351,,,,,,,,,,,,,,,,,146,S,circle,1,0,,,,,,,,,,,,,,,,switch,number,numSwt,d,0.4321,Lo,,,,,,5,,,,,,,,high,15,0,15,0,1,,,,,,,,,
292489,2022-11-25_24h15.27.887,vts_reward_expectancy_bt,2022.2.4,Win32,60.00960154,Chrome,1536,864,,,,,1,1352,,,,,,,,,,,,,,,,,139,H,circle,1,0,,,,,,,,,,,,,,,,repeat,number,numRpt,d,0.3956,Lo,,,,,,5,,,,,,,,high,16,0,16,0,1,,,,,,,,,
292489,2022-11-25_24h15.27.887,vts_reward_expectancy_bt,2022.2.4,Win32,60.00960154,Chrome,1536,864,,,,,0,1352,,,,,,,,,,,,,,,,,174,D,triangle,1,0,,,,,,,,,,,,,,,,switch,letter,lettSwt,j,0.5195,Hi,,,,,,5,,,,,,,,high,17,0,17,0,1,,,,,,,,,
292489,2022-11-25_24h15.27.887,vts_reward_expectancy_bt,2022.2.4,Win32,60.00960154,Chrome,1536,864,,,,,10,1362,,,,,,,,,,,,,,,,,146,Y,hexagon,1,0,,,,,,,,,,,,,,,,switch,number,numSwt,d,0.4619,Hi,,,,,,5,,,,,,,,high,18,0,18,0,1,,,,,,,,,
292489,2022-11-25_24h15.27.887,vts_reward_expectancy_bt,2022.2.4,Win32,60.00960154,Chrome,1536,864,,,,,1,1363,,,,,,,,,,,,,,,,,125,B,star,1,0,,,,,,,,,,,,,,,,switch,letter,lettSwt,j,0.3484,Lo,,,,,,5,,,,,,,,high,19,0,19,0,1,,,,,,,,,
292489,2022-11-25_24h15.27.887,vts_reward_expectancy_bt,2022.2.4,Win32,60.00960154,Chrome,1536,864,,,,,1,1364,,,,,,,,,,,,,,,,,181,W,star,1,0,,,,,,,,,,,,,,,,switch,number,numSwt,f,0.3321,Lo,,,,,,5,,,,,,,,high,20,0,20,0,1,,,,,,,,,
292489,2022-11-25_24h15.27.887,vts_reward_expectancy_bt,2022.2.4,Win32,60.00960154,Chrome,1536,864,,,,,1,1365,,,,,,,,,,,,,,,,,160,F,hexagon,1,0,,,,,,,,,,,,,,,,switch,letter,lettSwt,j,0.3797,Hi,,,,,,5,,,,,,,,high,21,0,21,0,1,,,,,,,,,
292489,2022-11-25_24h15.27.887,vts_reward_expectancy_bt,2022.2.4,Win32,60.00960154,Chrome,1536,864,,,,,1,1366,,,,,,,,,,,,,,,,,167,S,circle,1,0,,,,,,,,,,,,,,,,switch,number,numSwt,f,0.482,Lo,,,,,,5,,,,,,,,high,22,0,22,0,1,,,,,,,,,
292489,2022-11-25_24h15.27.887,vts_reward_expectancy_bt,2022.2.4,Win32,60.00960154,Chrome,1536,864,,,,,1,1367,,,,,,,,,,,,,,,,,132,U,triangle,1,0,,,,,,,,,,,,,,,,repeat,number,numRpt,d,0.3777,Hi,,,,,,5,,,,,,,,high,23,0,23,0,1,,,,,,,,,
292489,2022-11-25_24h15.27.887,vts_reward_expectancy_bt,2022.2.4,Win32,60.00960154,Chrome,1536,864,,,,,0,1367,,,,,,,,,,,,,,,,,132,S,triangle,1,0,,,,,,,,,,,,,,,,repeat,number,numRpt,d,0.6309,Hi,,,,,,5,,,,,,,,high,24,0,24,0,1,,,,,,,,,
292489,2022-11-25_24h15.27.887,vts_reward_expectancy_bt,2022.2.4,Win32,60.00960154,Chrome,1536,864,,,,,1,1368,,,,,,,,,,,,,,,,,139,Y,circle,1,0,,,,,,,,,,,,,,,,repeat,number,numRpt,d,0.5177,Lo,,,,,,5,,,,,,,,high,25,0,25,0,1,,,,,,,,,
292489,2022-11-25_24h15.27.887,vts_reward_expectancy_bt,2022.2.4,Win32,60.00960154,Chrome,1536,864,,,,,1,1369,,,,,,,,,,,,,,,,,181,H,star,1,0,,,,,,,,,,,,,,,,switch,letter,lettSwt,j,0.5056,Lo,,,,,,5,,,,,,,,high,26,0,26,0,1,,,,,,,,,
292489,2022-11-25_24h15.27.887,vts_reward_expectancy_bt,2022.2.4,Win32,60.00960154,Chrome,1536,864,,,,,1,1370,,,,,,,,,,,,,,,,,146,D,hexagon,1,0,,,,,,,,,,,,,,,,repeat,letter,lettRpt,j,0.4984,Hi,,,,,,5,,,,,,,,high,27,0,27,0,1,,,,,,,,,
292489,2022-11-25_24h15.27.887,vts_reward_expectancy_bt,2022.2.4,Win32,60.00960154,Chrome,1536,864,,,,,0,1370,,,,,,,,,,,,,,,,,160,U,star,0,0,,,,,,,,,,,,,,,,repeat,letter,NA,j,0.3883,Hi,,,,,,5,,,,,,,,high,28,0,28,0,1,,,,,,,,,
292489,2022-11-25_24h15.27.887,vts_reward_expectancy_bt,2022.2.4,Win32,60.00960154,Chrome,1536,864,,,,,1,1371,,,,,,,,,,,,,,,,,174,F,circle,1,1,,,,,,,,,,,,,,,,switch,number,numSwt,f,0.3634,Lo,,,,,,5,,,,,,,,high,29,0,29,0,1,,,,,,,,,
292489,2022-11-25_24h15.27.887,vts_reward_expectancy_bt,2022.2.4,Win32,60.00960154,Chrome,1536,864,,,,,10,1381,,,,,,,,,,,,,,,,,125,W,triangle,1,0,,,,,,,,,,,,,,,,repeat,number,numRpt,d,0.3988,Hi,,,,,,5,,,,,,,,high,30,0,30,0,1,,,,,,,,,
292489,2022-11-25_24h15.27.887,vts_reward_expectancy_bt,2022.2.4,Win32,60.00960154,Chrome,1536,864,,,,,0,1381,,,,,,,,,,,,,,,,,167,B,hexagon,0,0,,,,,,,,,,,,,,,,switch,letter,NA,k,0.3882,Hi,,,,,,5,,,,,,,,high,31,0,31,0,1,,,,,,,,,
292489,2022-11-25_24h15.27.887,vts_reward_expectancy_bt,2022.2.4,Win32,60.00960154,Chrome,1536,864,,,,,0,1381,,,,,,,,,,,,,,,,,174,D,hexagon,1,1,,,,,,,,,,,,,,,,repeat,letter,lettRpt,j,0.5471,Hi,,,,,,6,,,,,,space,0.6648,high,0,0,0,0,1,,,,,,,,,
292489,2022-11-25_24h15.27.887,vts_reward_expectancy_bt,2022.2.4,Win32,60.00960154,Chrome,1536,864,,,,,1,1382,,,,,,,,,,,,,,,,,167,B,star,1,0,,,,,,,,,,,,,,,,switch,number,numSwt,f,0.3814,Lo,,,,,,6,,,,,,,,high,1,0,1,0,1,,,,,,,,,
292489,2022-11-25_24h15.27.887,vts_reward_expectancy_bt,2022.2.4,Win32,60.00960154,Chrome,1536,864,,,,,0,1382,,,,,,,,,,,,,,,,,181,H,circle,0,0,,,,,,,,,,,,,,,,repeat,number,NA,d,0.3355,Lo,,,,,,6,,,,,,,,high,2,0,2,0,1,,,,,,,,,
292489,2022-11-25_24h15.27.887,vts_reward_expectancy_bt,2022.2.4,Win32,60.00960154,Chrome,1536,864,,,,,0,1382,,,,,,,,,,,,,,,,,160,Y,triangle,1,1,,,,,,,,,,,,,,,,switch,letter,lettSwt,k,0.4617,Hi,,,,,,6,,,,,,,,high,3,0,3,0,1,,,,,,,,,
292489,2022-11-25_24h15.27.887,vts_reward_expectancy_bt,2022.2.4,Win32,60.00960154,Chrome,1536,864,,,,,0,1382,,,,,,,,,,,,,,,,,132,U,hexagon,1,0,,,,,,,,,,,,,,,,repeat,letter,lettRpt,k,0.5505,Hi,,,,,,6,,,,,,,,high,4,0,4,0,1,,,,,,,,,
292489,2022-11-25_24h15.27.887,vts_reward_expectancy_bt,2022.2.4,Win32,60.00960154,Chrome,1536,864,,,,,1,1383,,,,,,,,,,,,,,,,,125,S,star,1,0,,,,,,,,,,,,,,,,switch,number,numSwt,d,0.5208,Lo,,,,,,6,,,,,,,,high,5,0,5,0,1,,,,,,,,,
292489,2022-11-25_24h15.27.887,vts_reward_expectancy_bt,2022.2.4,Win32,60.00960154,Chrome,1536,864,,,,,1,1384,,,,,,,,,,,,,,,,,139,F,circle,1,0,,,,,,,,,,,,,,,,repeat,number,numRpt,d,0.5905,Lo,,,,,,6,,,,,,,,high,6,0,6,0,1,,,,,,,,,
292489,2022-11-25_24h15.27.887,vts_reward_expectancy_bt,2022.2.4,Win32,60.00960154,Chrome,1536,864,,,,,0,1384,,,,,,,,,,,,,,,,,146,W,triangle,0,0,,,,,,,,,,,,,,,,switch,letter,NA,j,0.3286,Lo,,,,,,6,,,,,,,,high,7,0,7,0,1,,,,,,,,,
292489,2022-11-25_24h15.27.887,vts_reward_expectancy_bt,2022.2.4,Win32,60.00960154,Chrome,1536,864,,,,,1,1385,,,,,,,,,,,,,,,,,174,D,star,1,1,,,,,,,,,,,,,,,,switch,number,numSwt,f,0.5306,Lo,,,,,,6,,,,,,,,high,8,0,8,0,1,,,,,,,,,
292489,2022-11-25_24h15.27.887,vts_reward_expectancy_bt,2022.2.4,Win32,60.00960154,Chrome,1536,864,,,,,0,1385,,,,,,,,,,,,,,,,,167,B,triangle,1,0,,,,,,,,,,,,,,,,repeat,number,numRpt,f,0.7553,Hi,,,,,,6,,,,,,,,high,9,0,9,0,1,,,,,,,,,
292489,2022-11-25_24h15.27.887,vts_reward_expectancy_bt,2022.2.4,Win32,60.00960154,Chrome,1536,864,,,,,0,1385,,,,,,,,,,,,,,,,,181,H,hexagon,1,0,,,,,,,,,,,,,,,,switch,letter,lettSwt,j,0.8602,Hi,,,,,,6,,,,,,,,high,10,0,10,0,1,,,,,,,,,
292489,2022-11-25_24h15.27.887,vts_reward_expectancy_bt,2022.2.4,Win32,60.00960154,Chrome,1536,864,,,,,10,1395,,,,,,,,,,,,,,,,,160,Y,circle,1,0,,,,,,,,,,,,,,,,repeat,letter,lettRpt,k,0.4962,Lo,,,,,,6,,,,,,,,high,11,0,11,0,1,,,,,,,,,
292489,2022-11-25_24h15.27.887,vts_reward_expectancy_bt,2022.2.4,Win32,60.00960154,Chrome,1536,864,,,,,1,1396,,,,,,,,,,,,,,,,,132,U,circle,1,0,,,,,,,,,,,,,,,,repeat,letter,lettRpt,k,0.4799,Lo,,,,,,6,,,,,,,,high,12,0,12,0,1,,,,,,,,,
292489,2022-11-25_24h15.27.887,vts_reward_expectancy_bt,2022.2.4,Win32,60.00960154,Chrome,1536,864,,,,,0,1396,,,,,,,,,,,,,,,,,125,S,hexagon,1,0,,,,,,,,,,,,,,,,repeat,letter,lettRpt,k,0.545,Hi,,,,,,6,,,,,,,,high,13,0,13,0,1,,,,,,,,,
292489,2022-11-25_24h15.27.887,vts_reward_expectancy_bt,2022.2.4,Win32,60.00960154,Chrome,1536,864,,,,,10,1406,,,,,,,,,,,,,,,,,139,F,star,1,0,,,,,,,,,,,,,,,,switch,number,numSwt,d,0.5458,Lo,,,,,,6,,,,,,,,high,14,0,14,0,1,,,,,,,,,
292489,2022-11-25_24h15.27.887,vts_reward_expectancy_bt,2022.2.4,Win32,60.00960154,Chrome,1536,864,,,,,10,1416,,,,,,,,,,,,,,,,,146,W,triangle,1,0,,,,,,,,,,,,,,,,switch,letter,lettSwt,k,0.4151,Hi,,,,,,6,,,,,,,,high,15,0,15,0,1,,,,,,,,,
