participant,date,expName,psychopyVersion,OS,frameRate,browser,xResolution,yResolution,key_resp.keys,key_resp.rt,training_resp.keys,training_resp.rt,points_trial,points_cumul,trainBlock,training.thisRepN,training.thisTrialN,training.thisN,training.thisIndex,training.ran,LTriangleOpac,LCircleOpac,LHexagonOpac,LStarOpac,RTriangleOpac,RCircleOpac,RHexagonOpac,RStarOpac,LShape_ID,RShape_ID,curr_topStim,curr_bottStim,curr_shape,acc,E1,target_resp_prac1.keys,target_resp_prac1.rt,pracBlock,task1_prac_trials.thisRepN,task1_prac_trials.thisTrialN,task1_prac_trials.thisN,task1_prac_trials.thisIndex,task1_prac_trials.ran,target_resp_prac2.keys,task2_praac_trials.thisRepN,task2_praac_trials.thisTrialN,task2_praac_trials.thisN,task2_praac_trials.thisIndex,task2_praac_trials.ran,target_resp_prac2.rt,alt,task,condition,target_resp.keys,target_resp.rt,rewCond,vts_practice_trials.thisRepN,vts_practice_trials.thisTrialN,vts_practice_trials.thisN,vts_practice_trials.thisIndex,vts_practice_trials.ran,blockNum,trials_norew.thisRepN,trials_norew.thisTrialN,trials_norew.thisN,trials_norew.thisIndex,trials_norew.ran,key_resp_2.keys,key_resp_2.rt,rewExpectancy,trials_rew.thisRepN,trials_rew.thisTrialN,trials_rew.thisN,trials_rew.thisIndex,trials_rew.ran,Q1,Q2,Q2_text,Q3,Q4,Q5_text,Q5,xRes,yRes
292507,2022-11-30_23h37.31.597,vts_reward_expectancy_bt,2022.2.4,MacIntel,60.0024001,Chrome,1470,956,,,,,,,,,,,,,,,,,,,,,,,,,,,,,,,,,,,,,,,,,,,,,,,,,,,,,,,,,,,,,,,,,,,,,,,,,,,,
292507,2022-11-30_23h37.31.597,vts_reward_expectancy_bt,2022.2.4,MacIntel,60.0024001,Chrome,1470,956,space,13.9705,,,,,,,,,,,,,,,,,,,,,,,,,,,,,,,,,,,,,,,,,,,,,,,,,,,,,,,,,,,,,,,,,,,,,,,,,,
292507,2022-11-30_23h37.31.597,vts_reward_expectancy_bt,2022.2.4,MacIntel,60.0024001,Chrome,1470,956,,,,,,,,,,,,,,,,,,,,,,,,,,,,,,,,,,,,,,,,,,,,,,,,,,,,,,,,,,,,,,,,,,,,,,,,,,,,
292507,2022-11-30_23h37.31.597,vts_reward_expectancy_bt,2022.2.4,MacIntel,60.0024001,Chrome,1470,956,,,a,1.0294,1,1,0,0,0,0,9,1,0,0,0,1,1,0,0,0,star,triangle,,,,,,,,,,,,,,,,,,,,,,,,,,,,,,,,,,,,,,,,,,,,,,,,,,,,,,
292507,2022-11-30_23h37.31.597,vts_reward_expectancy_bt,2022.2.4,MacIntel,60.0024001,Chrome,1470,956,,,a,1.4659,1,2,0,0,1,1,11,1,0,0,0,1,0,0,1,0,star,hexagon,,,,,,,,,,,,,,,,,,,,,,,,,,,,,,,,,,,,,,,,,,,,,,,,,,,,,,
292507,2022-11-30_23h37.31.597,vts_reward_expectancy_bt,2022.2.4,MacIntel,60.0024001,Chrome,1470,956,,,l,1.1225,1,3,0,0,2,2,8,1,0,0,1,0,0,0,0,1,hexagon,star,,,,,,,,,,,,,,,,,,,,,,,,,,,,,,,,,,,,,,,,,,,,,,,,,,,,,,
292507,2022-11-30_23h37.31.597,vts_reward_expectancy_bt,2022.2.4,MacIntel,60.0024001,Chrome,1470,956,,,a,0.5811,1,4,0,0,3,3,10,1,0,0,0,1,0,1,0,0,star ,circle,,,,,,,,,,,,,,,,,,,,,,,,,,,,,,,,,,,,,,,,,,,,,,,,,,,,,,
292507,2022-11-30_23h37.31.597,vts_reward_expectancy_bt,2022.2.4,MacIntel,60.0024001,Chrome,1470,956,,,l,1.0685,10,14,0,0,4,4,4,1,0,1,0,0,0,0,1,0,circle,hexagon,,,,,,,,,,,,,,,,,,,,,,,,,,,,,,,,,,,,,,,,,,,,,,,,,,,,,,
292507,2022-11-30_23h37.31.597,vts_reward_expectancy_bt,2022.2.4,MacIntel,60.0024001,Chrome,1470,956,,,a,0.9488,10,24,0,0,5,5,6,1,0,0,1,0,1,0,0,0,hexagon,triangle,,,,,,,,,,,,,,,,,,,,,,,,,,,,,,,,,,,,,,,,,,,,,,,,,,,,,,
292507,2022-11-30_23h37.31.597,vts_reward_expectancy_bt,2022.2.4,MacIntel,60.0024001,Chrome,1470,956,,,l,1.0898,10,34,0,0,6,6,3,1,0,1,0,0,1,0,0,0,circle,triangle,,,,,,,,,,,,,,,,,,,,,,,,,,,,,,,,,,,,,,,,,,,,,,,,,,,,,,
292507,2022-11-30_23h37.31.597,vts_reward_expectancy_bt,2022.2.4,MacIntel,60.0024001,Chrome,1470,956,,,a,0.6078,1,35,0,0,7,7,7,1,0,0,1,0,0,1,0,0,hexagon,circle,,,,,,,,,,,,,,,,,,,,,,,,,,,,,,,,,,,,,,,,,,,,,,,,,,,,,,
292507,2022-11-30_23h37.31.597,vts_reward_expectancy_bt,2022.2.4,MacIntel,60.0024001,Chrome,1470,956,,,l,0.6979,10,45,0,0,8,8,1,1,1,0,0,0,0,0,1,0,triangle,hexagon,,,,,,,,,,,,,,,,,,,,,,,,,,,,,,,,,,,,,,,,,,,,,,,,,,,,,,
292507,2022-11-30_23h37.31.597,vts_reward_expectancy_bt,2022.2.4,MacIntel,60.0024001,Chrome,1470,956,,,a,0.8339,1,46,0,0,9,9,2,1,1,0,0,0,0,0,0,1,triangle,star,,,,,,,,,,,,,,,,,,,,,,,,,,,,,,,,,,,,,,,,,,,,,,,,,,,,,,
292507,2022-11-30_23h37.31.597,vts_reward_expectancy_bt,2022.2.4,MacIntel,60.0024001,Chrome,1470,956,,,a,1.2322,1,47,0,0,10,10,0,1,1,0,0,0,0,1,0,0,triangle,circle,,,,,,,,,,,,,,,,,,,,,,,,,,,,,,,,,,,,,,,,,,,,,,,,,,,,,,
292507,2022-11-30_23h37.31.597,vts_reward_expectancy_bt,2022.2.4,MacIntel,60.0024001,Chrome,1470,956,,,l,0.8301,1,48,0,0,11,11,5,1,0,1,0,0,0,0,0,1,circle,star,,,,,,,,,,,,,,,,,,,,,,,,,,,,,,,,,,,,,,,,,,,,,,,,,,,,,,
292507,2022-11-30_23h37.31.597,vts_reward_expectancy_bt,2022.2.4,MacIntel,60.0024001,Chrome,1470,956,,,a,1.8156,1,49,0,1,0,12,9,1,0,0,0,1,1,0,0,0,star,triangle,,,,,,,,,,,,,,,,,,,,,,,,,,,,,,,,,,,,,,,,,,,,,,,,,,,,,,
292507,2022-11-30_23h37.31.597,vts_reward_expectancy_bt,2022.2.4,MacIntel,60.0024001,Chrome,1470,956,,,l,0.4568,1,50,0,1,1,13,3,1,0,1,0,0,1,0,0,0,circle,triangle,,,,,,,,,,,,,,,,,,,,,,,,,,,,,,,,,,,,,,,,,,,,,,,,,,,,,,
292507,2022-11-30_23h37.31.597,vts_reward_expectancy_bt,2022.2.4,MacIntel,60.0024001,Chrome,1470,956,,,l,1.1243,10,60,0,1,2,14,4,1,0,1,0,0,0,0,1,0,circle,hexagon,,,,,,,,,,,,,,,,,,,,,,,,,,,,,,,,,,,,,,,,,,,,,,,,,,,,,,
292507,2022-11-30_23h37.31.597,vts_reward_expectancy_bt,2022.2.4,MacIntel,60.0024001,Chrome,1470,956,,,a,1.6049,10,70,0,1,3,15,10,1,0,0,0,1,0,1,0,0,star ,circle,,,,,,,,,,,,,,,,,,,,,,,,,,,,,,,,,,,,,,,,,,,,,,,,,,,,,,
292507,2022-11-30_23h37.31.597,vts_reward_expectancy_bt,2022.2.4,MacIntel,60.0024001,Chrome,1470,956,,,a,1.3266,1,71,0,1,4,16,2,1,1,0,0,0,0,0,0,1,triangle,star,,,,,,,,,,,,,,,,,,,,,,,,,,,,,,,,,,,,,,,,,,,,,,,,,,,,,,
292507,2022-11-30_23h37.31.597,vts_reward_expectancy_bt,2022.2.4,MacIntel,60.0024001,Chrome,1470,956,,,a,0.6236,10,81,0,1,5,17,5,1,0,1,0,0,0,0,0,1,circle,star,,,,,,,,,,,,,,,,,,,,,,,,,,,,,,,,,,,,,,,,,,,,,,,,,,,,,,
292507,2022-11-30_23h37.31.597,vts_reward_expectancy_bt,2022.2.4,MacIntel,60.0024001,Chrome,1470,956,,,a,0.8158,10,91,0,1,6,18,8,1,0,0,1,0,0,0,0,1,hexagon,star,,,,,,,,,,,,,,,,,,,,,,,,,,,,,,,,,,,,,,,,,,,,,,,,,,,,,,
292507,2022-11-30_23h37.31.597,vts_reward_expectancy_bt,2022.2.4,MacIntel,60.0024001,Chrome,1470,956,,,l,1.2848,10,101,0,1,7,19,6,1,0,0,1,0,1,0,0,0,hexagon,triangle,,,,,,,,,,,,,,,,,,,,,,,,,,,,,,,,,,,,,,,,,,,,,,,,,,,,,,
292507,2022-11-30_23h37.31.597,vts_reward_expectancy_bt,2022.2.4,MacIntel,60.0024001,Chrome,1470,956,,,l,1.5607,1,102,0,1,8,20,7,1,0,0,1,0,0,1,0,0,hexagon,circle,,,,,,,,,,,,,,,,,,,,,,,,,,,,,,,,,,,,,,,,,,,,,,,,,,,,,,
292507,2022-11-30_23h37.31.597,vts_reward_expectancy_bt,2022.2.4,MacIntel,60.0024001,Chrome,1470,956,,,a,0.5736,1,103,0,1,9,21,11,1,0,0,0,1,0,0,1,0,star,hexagon,,,,,,,,,,,,,,,,,,,,,,,,,,,,,,,,,,,,,,,,,,,,,,,,,,,,,,
292507,2022-11-30_23h37.31.597,vts_reward_expectancy_bt,2022.2.4,MacIntel,60.0024001,Chrome,1470,956,,,l,1.4491,10,113,0,1,10,22,0,1,1,0,0,0,0,1,0,0,triangle,circle,,,,,,,,,,,,,,,,,,,,,,,,,,,,,,,,,,,,,,,,,,,,,,,,,,,,,,
292507,2022-11-30_23h37.31.597,vts_reward_expectancy_bt,2022.2.4,MacIntel,60.0024001,Chrome,1470,956,,,l,0.6894,1,114,0,1,11,23,1,1,1,0,0,0,0,0,1,0,triangle,hexagon,,,,,,,,,,,,,,,,,,,,,,,,,,,,,,,,,,,,,,,,,,,,,,,,,,,,,,
292507,2022-11-30_23h37.31.597,vts_reward_expectancy_bt,2022.2.4,MacIntel,60.0024001,Chrome,1470,956,,,l,0.5996,1,115,0,2,0,24,8,1,0,0,1,0,0,0,0,1,hexagon,star,,,,,,,,,,,,,,,,,,,,,,,,,,,,,,,,,,,,,,,,,,,,,,,,,,,,,,
292507,2022-11-30_23h37.31.597,vts_reward_expectancy_bt,2022.2.4,MacIntel,60.0024001,Chrome,1470,956,,,a,0.5371,1,116,0,2,1,25,11,1,0,0,0,1,0,0,1,0,star,hexagon,,,,,,,,,,,,,,,,,,,,,,,,,,,,,,,,,,,,,,,,,,,,,,,,,,,,,,
292507,2022-11-30_23h37.31.597,vts_reward_expectancy_bt,2022.2.4,MacIntel,60.0024001,Chrome,1470,956,,,l,0.3574,1,117,0,2,2,26,9,1,0,0,0,1,1,0,0,0,star,triangle,,,,,,,,,,,,,,,,,,,,,,,,,,,,,,,,,,,,,,,,,,,,,,,,,,,,,,
292507,2022-11-30_23h37.31.597,vts_reward_expectancy_bt,2022.2.4,MacIntel,60.0024001,Chrome,1470,956,,,a,0.7092,1,118,0,2,3,27,2,1,1,0,0,0,0,0,0,1,triangle,star,,,,,,,,,,,,,,,,,,,,,,,,,,,,,,,,,,,,,,,,,,,,,,,,,,,,,,
292507,2022-11-30_23h37.31.597,vts_reward_expectancy_bt,2022.2.4,MacIntel,60.0024001,Chrome,1470,956,,,l,0.271,1,119,0,2,4,28,0,1,1,0,0,0,0,1,0,0,triangle,circle,,,,,,,,,,,,,,,,,,,,,,,,,,,,,,,,,,,,,,,,,,,,,,,,,,,,,,
292507,2022-11-30_23h37.31.597,vts_reward_expectancy_bt,2022.2.4,MacIntel,60.0024001,Chrome,1470,956,,,l,0.3658,1,120,0,2,5,29,7,1,0,0,1,0,0,1,0,0,hexagon,circle,,,,,,,,,,,,,,,,,,,,,,,,,,,,,,,,,,,,,,,,,,,,,,,,,,,,,,
292507,2022-11-30_23h37.31.597,vts_reward_expectancy_bt,2022.2.4,MacIntel,60.0024001,Chrome,1470,956,,,a,0.3085,1,121,0,2,6,30,6,1,0,0,1,0,1,0,0,0,hexagon,triangle,,,,,,,,,,,,,,,,,,,,,,,,,,,,,,,,,,,,,,,,,,,,,,,,,,,,,,
292507,2022-11-30_23h37.31.597,vts_reward_expectancy_bt,2022.2.4,MacIntel,60.0024001,Chrome,1470,956,,,a,0.2318,10,131,0,2,7,31,3,1,0,1,0,0,1,0,0,0,circle,triangle,,,,,,,,,,,,,,,,,,,,,,,,,,,,,,,,,,,,,,,,,,,,,,,,,,,,,,
292507,2022-11-30_23h37.31.597,vts_reward_expectancy_bt,2022.2.4,MacIntel,60.0024001,Chrome,1470,956,,,a,0.266,10,141,0,2,8,32,5,1,0,1,0,0,0,0,0,1,circle,star,,,,,,,,,,,,,,,,,,,,,,,,,,,,,,,,,,,,,,,,,,,,,,,,,,,,,,
292507,2022-11-30_23h37.31.597,vts_reward_expectancy_bt,2022.2.4,MacIntel,60.0024001,Chrome,1470,956,,,a,0.6093,1,142,0,2,9,33,1,1,1,0,0,0,0,0,1,0,triangle,hexagon,,,,,,,,,,,,,,,,,,,,,,,,,,,,,,,,,,,,,,,,,,,,,,,,,,,,,,
292507,2022-11-30_23h37.31.597,vts_reward_expectancy_bt,2022.2.4,MacIntel,60.0024001,Chrome,1470,956,,,l,0.8663,10,152,0,2,10,34,10,1,0,0,0,1,0,1,0,0,star ,circle,,,,,,,,,,,,,,,,,,,,,,,,,,,,,,,,,,,,,,,,,,,,,,,,,,,,,,
292507,2022-11-30_23h37.31.597,vts_reward_expectancy_bt,2022.2.4,MacIntel,60.0024001,Chrome,1470,956,,,a,0.3216,10,162,0,2,11,35,4,1,0,1,0,0,0,0,1,0,circle,hexagon,,,,,,,,,,,,,,,,,,,,,,,,,,,,,,,,,,,,,,,,,,,,,,,,,,,,,,
292507,2022-11-30_23h37.31.597,vts_reward_expectancy_bt,2022.2.4,MacIntel,60.0024001,Chrome,1470,956,,,l,0.4991,10,172,1,0,0,0,2,1,1,0,0,0,0,0,0,1,triangle,star,,,,,,,,,,,,,,,,,,,,,,,,,,,,,,,,,,,,,,,,,,,,,,,,,,,,,,
292507,2022-11-30_23h37.31.597,vts_reward_expectancy_bt,2022.2.4,MacIntel,60.0024001,Chrome,1470,956,,,l,0.4481,1,173,1,0,1,1,3,1,0,1,0,0,1,0,0,0,circle,triangle,,,,,,,,,,,,,,,,,,,,,,,,,,,,,,,,,,,,,,,,,,,,,,,,,,,,,,
292507,2022-11-30_23h37.31.597,vts_reward_expectancy_bt,2022.2.4,MacIntel,60.0024001,Chrome,1470,956,,,a,0.3329,1,174,1,0,2,2,9,1,0,0,0,1,1,0,0,0,star,triangle,,,,,,,,,,,,,,,,,,,,,,,,,,,,,,,,,,,,,,,,,,,,,,,,,,,,,,
292507,2022-11-30_23h37.31.597,vts_reward_expectancy_bt,2022.2.4,MacIntel,60.0024001,Chrome,1470,956,,,l,0.0991,10,184,1,0,3,3,11,1,0,0,0,1,0,0,1,0,star,hexagon,,,,,,,,,,,,,,,,,,,,,,,,,,,,,,,,,,,,,,,,,,,,,,,,,,,,,,
292507,2022-11-30_23h37.31.597,vts_reward_expectancy_bt,2022.2.4,MacIntel,60.0024001,Chrome,1470,956,,,l,0.2098,1,185,1,0,4,4,6,1,0,0,1,0,1,0,0,0,hexagon,triangle,,,,,,,,,,,,,,,,,,,,,,,,,,,,,,,,,,,,,,,,,,,,,,,,,,,,,,
292507,2022-11-30_23h37.31.597,vts_reward_expectancy_bt,2022.2.4,MacIntel,60.0024001,Chrome,1470,956,,,l,0.1833,10,195,1,0,5,5,0,1,1,0,0,0,0,1,0,0,triangle,circle,,,,,,,,,,,,,,,,,,,,,,,,,,,,,,,,,,,,,,,,,,,,,,,,,,,,,,
292507,2022-11-30_23h37.31.597,vts_reward_expectancy_bt,2022.2.4,MacIntel,60.0024001,Chrome,1470,956,,,l,0.0318,10,205,1,0,6,6,5,1,0,1,0,0,0,0,0,1,circle,star,,,,,,,,,,,,,,,,,,,,,,,,,,,,,,,,,,,,,,,,,,,,,,,,,,,,,,
292507,2022-11-30_23h37.31.597,vts_reward_expectancy_bt,2022.2.4,MacIntel,60.0024001,Chrome,1470,956,,,l,0.0487,1,206,1,0,7,7,10,1,0,0,0,1,0,1,0,0,star ,circle,,,,,,,,,,,,,,,,,,,,,,,,,,,,,,,,,,,,,,,,,,,,,,,,,,,,,,
292507,2022-11-30_23h37.31.597,vts_reward_expectancy_bt,2022.2.4,MacIntel,60.0024001,Chrome,1470,956,,,l,0.1167,10,216,1,0,8,8,1,1,1,0,0,0,0,0,1,0,triangle,hexagon,,,,,,,,,,,,,,,,,,,,,,,,,,,,,,,,,,,,,,,,,,,,,,,,,,,,,,
292507,2022-11-30_23h37.31.597,vts_reward_expectancy_bt,2022.2.4,MacIntel,60.0024001,Chrome,1470,956,,,l,0.2562,1,217,1,0,9,9,8,1,0,0,1,0,0,0,0,1,hexagon,star,,,,,,,,,,,,,,,,,,,,,,,,,,,,,,,,,,,,,,,,,,,,,,,,,,,,,,
292507,2022-11-30_23h37.31.597,vts_reward_expectancy_bt,2022.2.4,MacIntel,60.0024001,Chrome,1470,956,,,l,0.0888,10,227,1,0,10,10,4,1,0,1,0,0,0,0,1,0,circle,hexagon,,,,,,,,,,,,,,,,,,,,,,,,,,,,,,,,,,,,,,,,,,,,,,,,,,,,,,
292507,2022-11-30_23h37.31.597,vts_reward_expectancy_bt,2022.2.4,MacIntel,60.0024001,Chrome,1470,956,,,l,0.0754,10,237,1,0,11,11,7,1,0,0,1,0,0,1,0,0,hexagon,circle,,,,,,,,,,,,,,,,,,,,,,,,,,,,,,,,,,,,,,,,,,,,,,,,,,,,,,
292507,2022-11-30_23h37.31.597,vts_reward_expectancy_bt,2022.2.4,MacIntel,60.0024001,Chrome,1470,956,,,l,0.1445,10,247,1,1,0,12,8,1,0,0,1,0,0,0,0,1,hexagon,star,,,,,,,,,,,,,,,,,,,,,,,,,,,,,,,,,,,,,,,,,,,,,,,,,,,,,,
292507,2022-11-30_23h37.31.597,vts_reward_expectancy_bt,2022.2.4,MacIntel,60.0024001,Chrome,1470,956,,,l,0.0691,10,257,1,1,1,13,11,1,0,0,0,1,0,0,1,0,star,hexagon,,,,,,,,,,,,,,,,,,,,,,,,,,,,,,,,,,,,,,,,,,,,,,,,,,,,,,
292507,2022-11-30_23h37.31.597,vts_reward_expectancy_bt,2022.2.4,MacIntel,60.0024001,Chrome,1470,956,,,l,0.0546,10,267,1,1,2,14,7,1,0,0,1,0,0,1,0,0,hexagon,circle,,,,,,,,,,,,,,,,,,,,,,,,,,,,,,,,,,,,,,,,,,,,,,,,,,,,,,
292507,2022-11-30_23h37.31.597,vts_reward_expectancy_bt,2022.2.4,MacIntel,60.0024001,Chrome,1470,956,,,l,0.2319,1,268,1,1,3,15,5,1,0,1,0,0,0,0,0,1,circle,star,,,,,,,,,,,,,,,,,,,,,,,,,,,,,,,,,,,,,,,,,,,,,,,,,,,,,,
292507,2022-11-30_23h37.31.597,vts_reward_expectancy_bt,2022.2.4,MacIntel,60.0024001,Chrome,1470,956,,,l,0.0491,1,269,1,1,4,16,6,1,0,0,1,0,1,0,0,0,hexagon,triangle,,,,,,,,,,,,,,,,,,,,,,,,,,,,,,,,,,,,,,,,,,,,,,,,,,,,,,
292507,2022-11-30_23h37.31.597,vts_reward_expectancy_bt,2022.2.4,MacIntel,60.0024001,Chrome,1470,956,,,l,0.0496,1,270,1,1,5,17,2,1,1,0,0,0,0,0,0,1,triangle,star,,,,,,,,,,,,,,,,,,,,,,,,,,,,,,,,,,,,,,,,,,,,,,,,,,,,,,
292507,2022-11-30_23h37.31.597,vts_reward_expectancy_bt,2022.2.4,MacIntel,60.0024001,Chrome,1470,956,,,l,0.4175,10,280,1,1,6,18,0,1,1,0,0,0,0,1,0,0,triangle,circle,,,,,,,,,,,,,,,,,,,,,,,,,,,,,,,,,,,,,,,,,,,,,,,,,,,,,,
292507,2022-11-30_23h37.31.597,vts_reward_expectancy_bt,2022.2.4,MacIntel,60.0024001,Chrome,1470,956,,,l,0.0502,10,290,1,1,7,19,10,1,0,0,0,1,0,1,0,0,star ,circle,,,,,,,,,,,,,,,,,,,,,,,,,,,,,,,,,,,,,,,,,,,,,,,,,,,,,,
292507,2022-11-30_23h37.31.597,vts_reward_expectancy_bt,2022.2.4,MacIntel,60.0024001,Chrome,1470,956,,,l,1.1308,10,300,1,1,8,20,4,1,0,1,0,0,0,0,1,0,circle,hexagon,,,,,,,,,,,,,,,,,,,,,,,,,,,,,,,,,,,,,,,,,,,,,,,,,,,,,,
292507,2022-11-30_23h37.31.597,vts_reward_expectancy_bt,2022.2.4,MacIntel,60.0024001,Chrome,1470,956,,,l,0.1104,1,301,1,1,9,21,3,1,0,1,0,0,1,0,0,0,circle,triangle,,,,,,,,,,,,,,,,,,,,,,,,,,,,,,,,,,,,,,,,,,,,,,,,,,,,,,
292507,2022-11-30_23h37.31.597,vts_reward_expectancy_bt,2022.2.4,MacIntel,60.0024001,Chrome,1470,956,,,l,0.2517,10,311,1,1,10,22,1,1,1,0,0,0,0,0,1,0,triangle,hexagon,,,,,,,,,,,,,,,,,,,,,,,,,,,,,,,,,,,,,,,,,,,,,,,,,,,,,,
292507,2022-11-30_23h37.31.597,vts_reward_expectancy_bt,2022.2.4,MacIntel,60.0024001,Chrome,1470,956,,,l,0.0752,1,312,1,1,11,23,9,1,0,0,0,1,1,0,0,0,star,triangle,,,,,,,,,,,,,,,,,,,,,,,,,,,,,,,,,,,,,,,,,,,,,,,,,,,,,,
292507,2022-11-30_23h37.31.597,vts_reward_expectancy_bt,2022.2.4,MacIntel,60.0024001,Chrome,1470,956,,,l,0.1715,1,313,1,2,0,24,2,1,1,0,0,0,0,0,0,1,triangle,star,,,,,,,,,,,,,,,,,,,,,,,,,,,,,,,,,,,,,,,,,,,,,,,,,,,,,,
292507,2022-11-30_23h37.31.597,vts_reward_expectancy_bt,2022.2.4,MacIntel,60.0024001,Chrome,1470,956,,,l,0.0882,1,314,1,2,1,25,5,1,0,1,0,0,0,0,0,1,circle,star,,,,,,,,,,,,,,,,,,,,,,,,,,,,,,,,,,,,,,,,,,,,,,,,,,,,,,
292507,2022-11-30_23h37.31.597,vts_reward_expectancy_bt,2022.2.4,MacIntel,60.0024001,Chrome,1470,956,,,l,0.1328,10,324,1,2,2,26,0,1,1,0,0,0,0,1,0,0,triangle,circle,,,,,,,,,,,,,,,,,,,,,,,,,,,,,,,,,,,,,,,,,,,,,,,,,,,,,,
292507,2022-11-30_23h37.31.597,vts_reward_expectancy_bt,2022.2.4,MacIntel,60.0024001,Chrome,1470,956,,,l,0.2663,1,325,1,2,3,27,3,1,0,1,0,0,1,0,0,0,circle,triangle,,,,,,,,,,,,,,,,,,,,,,,,,,,,,,,,,,,,,,,,,,,,,,,,,,,,,,
292507,2022-11-30_23h37.31.597,vts_reward_expectancy_bt,2022.2.4,MacIntel,60.0024001,Chrome,1470,956,,,l,0.8747,10,335,1,2,4,28,4,1,0,1,0,0,0,0,1,0,circle,hexagon,,,,,,,,,,,,,,,,,,,,,,,,,,,,,,,,,,,,,,,,,,,,,,,,,,,,,,
292507,2022-11-30_23h37.31.597,vts_reward_expectancy_bt,2022.2.4,MacIntel,60.0024001,Chrome,1470,956,,,l,1.8441,10,345,1,2,5,29,11,1,0,0,0,1,0,0,1,0,star,hexagon,,,,,,,,,,,,,,,,,,,,,,,,,,,,,,,,,,,,,,,,,,,,,,,,,,,,,,
292507,2022-11-30_23h37.31.597,vts_reward_expectancy_bt,2022.2.4,MacIntel,60.0024001,Chrome,1470,956,,,l,0.2065,10,355,1,2,6,30,6,1,0,0,1,0,1,0,0,0,hexagon,triangle,,,,,,,,,,,,,,,,,,,,,,,,,,,,,,,,,,,,,,,,,,,,,,,,,,,,,,
292507,2022-11-30_23h37.31.597,vts_reward_expectancy_bt,2022.2.4,MacIntel,60.0024001,Chrome,1470,956,,,l,0.0172,10,365,1,2,7,31,1,1,1,0,0,0,0,0,1,0,triangle,hexagon,,,,,,,,,,,,,,,,,,,,,,,,,,,,,,,,,,,,,,,,,,,,,,,,,,,,,,
292507,2022-11-30_23h37.31.597,vts_reward_expectancy_bt,2022.2.4,MacIntel,60.0024001,Chrome,1470,956,,,l,0.1039,1,366,1,2,8,32,9,1,0,0,0,1,1,0,0,0,star,triangle,,,,,,,,,,,,,,,,,,,,,,,,,,,,,,,,,,,,,,,,,,,,,,,,,,,,,,
292507,2022-11-30_23h37.31.597,vts_reward_expectancy_bt,2022.2.4,MacIntel,60.0024001,Chrome,1470,956,,,l,0.0977,10,376,1,2,9,33,7,1,0,0,1,0,0,1,0,0,hexagon,circle,,,,,,,,,,,,,,,,,,,,,,,,,,,,,,,,,,,,,,,,,,,,,,,,,,,,,,
292507,2022-11-30_23h37.31.597,vts_reward_expectancy_bt,2022.2.4,MacIntel,60.0024001,Chrome,1470,956,,,l,0.283,10,386,1,2,10,34,10,1,0,0,0,1,0,1,0,0,star ,circle,,,,,,,,,,,,,,,,,,,,,,,,,,,,,,,,,,,,,,,,,,,,,,,,,,,,,,
292507,2022-11-30_23h37.31.597,vts_reward_expectancy_bt,2022.2.4,MacIntel,60.0024001,Chrome,1470,956,,,l,0.0069,1,387,1,2,11,35,8,1,0,0,1,0,0,0,0,1,hexagon,star,,,,,,,,,,,,,,,,,,,,,,,,,,,,,,,,,,,,,,,,,,,,,,,,,,,,,,
292507,2022-11-30_23h37.31.597,vts_reward_expectancy_bt,2022.2.4,MacIntel,60.0024001,Chrome,1470,956,,,l,0.5706,1,388,2,0,0,0,5,1,0,1,0,0,0,0,0,1,circle,star,,,,,,,,,,,,,,,,,,,,,,,,,,,,,,,,,,,,,,,,,,,,,,,,,,,,,,
292507,2022-11-30_23h37.31.597,vts_reward_expectancy_bt,2022.2.4,MacIntel,60.0024001,Chrome,1470,956,,,l,0.204,1,389,2,0,1,1,2,1,1,0,0,0,0,0,0,1,triangle,star,,,,,,,,,,,,,,,,,,,,,,,,,,,,,,,,,,,,,,,,,,,,,,,,,,,,,,
292507,2022-11-30_23h37.31.597,vts_reward_expectancy_bt,2022.2.4,MacIntel,60.0024001,Chrome,1470,956,,,l,0.2495,1,390,2,0,2,2,8,1,0,0,1,0,0,0,0,1,hexagon,star,,,,,,,,,,,,,,,,,,,,,,,,,,,,,,,,,,,,,,,,,,,,,,,,,,,,,,
292507,2022-11-30_23h37.31.597,vts_reward_expectancy_bt,2022.2.4,MacIntel,60.0024001,Chrome,1470,956,,,a,0.2651,1,391,2,0,3,3,9,1,0,0,0,1,1,0,0,0,star,triangle,,,,,,,,,,,,,,,,,,,,,,,,,,,,,,,,,,,,,,,,,,,,,,,,,,,,,,
292507,2022-11-30_23h37.31.597,vts_reward_expectancy_bt,2022.2.4,MacIntel,60.0024001,Chrome,1470,956,,,l,0.1257,1,392,2,0,4,4,7,1,0,0,1,0,0,1,0,0,hexagon,circle,,,,,,,,,,,,,,,,,,,,,,,,,,,,,,,,,,,,,,,,,,,,,,,,,,,,,,
292507,2022-11-30_23h37.31.597,vts_reward_expectancy_bt,2022.2.4,MacIntel,60.0024001,Chrome,1470,956,,,l,1.467,10,402,2,0,5,5,0,1,1,0,0,0,0,1,0,0,triangle,circle,,,,,,,,,,,,,,,,,,,,,,,,,,,,,,,,,,,,,,,,,,,,,,,,,,,,,,
292507,2022-11-30_23h37.31.597,vts_reward_expectancy_bt,2022.2.4,MacIntel,60.0024001,Chrome,1470,956,,,l,0.8456,1,403,2,0,6,6,3,1,0,1,0,0,1,0,0,0,circle,triangle,,,,,,,,,,,,,,,,,,,,,,,,,,,,,,,,,,,,,,,,,,,,,,,,,,,,,,
292507,2022-11-30_23h37.31.597,vts_reward_expectancy_bt,2022.2.4,MacIntel,60.0024001,Chrome,1470,956,,,l,0.5118,1,404,2,0,7,7,6,1,0,0,1,0,1,0,0,0,hexagon,triangle,,,,,,,,,,,,,,,,,,,,,,,,,,,,,,,,,,,,,,,,,,,,,,,,,,,,,,
292507,2022-11-30_23h37.31.597,vts_reward_expectancy_bt,2022.2.4,MacIntel,60.0024001,Chrome,1470,956,,,l,1.9554,10,414,2,0,8,8,1,1,1,0,0,0,0,0,1,0,triangle,hexagon,,,,,,,,,,,,,,,,,,,,,,,,,,,,,,,,,,,,,,,,,,,,,,,,,,,,,,
292507,2022-11-30_23h37.31.597,vts_reward_expectancy_bt,2022.2.4,MacIntel,60.0024001,Chrome,1470,956,,,l,0.7995,10,424,2,0,9,9,4,1,0,1,0,0,0,0,1,0,circle,hexagon,,,,,,,,,,,,,,,,,,,,,,,,,,,,,,,,,,,,,,,,,,,,,,,,,,,,,,
292507,2022-11-30_23h37.31.597,vts_reward_expectancy_bt,2022.2.4,MacIntel,60.0024001,Chrome,1470,956,,,l,0.6705,10,434,2,0,10,10,11,1,0,0,0,1,0,0,1,0,star,hexagon,,,,,,,,,,,,,,,,,,,,,,,,,,,,,,,,,,,,,,,,,,,,,,,,,,,,,,
292507,2022-11-30_23h37.31.597,vts_reward_expectancy_bt,2022.2.4,MacIntel,60.0024001,Chrome,1470,956,,,l,1.1574,10,444,2,0,11,11,10,1,0,0,0,1,0,1,0,0,star ,circle,,,,,,,,,,,,,,,,,,,,,,,,,,,,,,,,,,,,,,,,,,,,,,,,,,,,,,
292507,2022-11-30_23h37.31.597,vts_reward_expectancy_bt,2022.2.4,MacIntel,60.0024001,Chrome,1470,956,,,l,2.3669,10,454,2,1,0,12,1,1,1,0,0,0,0,0,1,0,triangle,hexagon,,,,,,,,,,,,,,,,,,,,,,,,,,,,,,,,,,,,,,,,,,,,,,,,,,,,,,
292507,2022-11-30_23h37.31.597,vts_reward_expectancy_bt,2022.2.4,MacIntel,60.0024001,Chrome,1470,956,,,l,1.2143,10,464,2,1,1,13,10,1,0,0,0,1,0,1,0,0,star ,circle,,,,,,,,,,,,,,,,,,,,,,,,,,,,,,,,,,,,,,,,,,,,,,,,,,,,,,
292507,2022-11-30_23h37.31.597,vts_reward_expectancy_bt,2022.2.4,MacIntel,60.0024001,Chrome,1470,956,,,l,0.8482,10,474,2,1,2,14,0,1,1,0,0,0,0,1,0,0,triangle,circle,,,,,,,,,,,,,,,,,,,,,,,,,,,,,,,,,,,,,,,,,,,,,,,,,,,,,,
292507,2022-11-30_23h37.31.597,vts_reward_expectancy_bt,2022.2.4,MacIntel,60.0024001,Chrome,1470,956,,,l,1.8304,10,484,2,1,3,15,4,1,0,1,0,0,0,0,1,0,circle,hexagon,,,,,,,,,,,,,,,,,,,,,,,,,,,,,,,,,,,,,,,,,,,,,,,,,,,,,,
292507,2022-11-30_23h37.31.597,vts_reward_expectancy_bt,2022.2.4,MacIntel,60.0024001,Chrome,1470,956,,,l,0.6593,1,485,2,1,4,16,3,1,0,1,0,0,1,0,0,0,circle,triangle,,,,,,,,,,,,,,,,,,,,,,,,,,,,,,,,,,,,,,,,,,,,,,,,,,,,,,
292507,2022-11-30_23h37.31.597,vts_reward_expectancy_bt,2022.2.4,MacIntel,60.0024001,Chrome,1470,956,,,l,0.772,1,486,2,1,5,17,9,1,0,0,0,1,1,0,0,0,star,triangle,,,,,,,,,,,,,,,,,,,,,,,,,,,,,,,,,,,,,,,,,,,,,,,,,,,,,,
292507,2022-11-30_23h37.31.597,vts_reward_expectancy_bt,2022.2.4,MacIntel,60.0024001,Chrome,1470,956,,,l,1.2671,10,496,2,1,6,18,5,1,0,1,0,0,0,0,0,1,circle,star,,,,,,,,,,,,,,,,,,,,,,,,,,,,,,,,,,,,,,,,,,,,,,,,,,,,,,
292507,2022-11-30_23h37.31.597,vts_reward_expectancy_bt,2022.2.4,MacIntel,60.0024001,Chrome,1470,956,,,l,1.0496,10,506,2,1,7,19,8,1,0,0,1,0,0,0,0,1,hexagon,star,,,,,,,,,,,,,,,,,,,,,,,,,,,,,,,,,,,,,,,,,,,,,,,,,,,,,,
292507,2022-11-30_23h37.31.597,vts_reward_expectancy_bt,2022.2.4,MacIntel,60.0024001,Chrome,1470,956,,,l,1.6003,1,507,2,1,8,20,11,1,0,0,0,1,0,0,1,0,star,hexagon,,,,,,,,,,,,,,,,,,,,,,,,,,,,,,,,,,,,,,,,,,,,,,,,,,,,,,
292507,2022-11-30_23h37.31.597,vts_reward_expectancy_bt,2022.2.4,MacIntel,60.0024001,Chrome,1470,956,,,l,0.2339,1,508,2,1,9,21,6,1,0,0,1,0,1,0,0,0,hexagon,triangle,,,,,,,,,,,,,,,,,,,,,,,,,,,,,,,,,,,,,,,,,,,,,,,,,,,,,,
292507,2022-11-30_23h37.31.597,vts_reward_expectancy_bt,2022.2.4,MacIntel,60.0024001,Chrome,1470,956,,,l,0.0155,1,509,2,1,10,22,2,1,1,0,0,0,0,0,0,1,triangle,star,,,,,,,,,,,,,,,,,,,,,,,,,,,,,,,,,,,,,,,,,,,,,,,,,,,,,,
292507,2022-11-30_23h37.31.597,vts_reward_expectancy_bt,2022.2.4,MacIntel,60.0024001,Chrome,1470,956,,,l,0.3687,10,519,2,1,11,23,7,1,0,0,1,0,0,1,0,0,hexagon,circle,,,,,,,,,,,,,,,,,,,,,,,,,,,,,,,,,,,,,,,,,,,,,,,,,,,,,,
292507,2022-11-30_23h37.31.597,vts_reward_expectancy_bt,2022.2.4,MacIntel,60.0024001,Chrome,1470,956,,,l,0.3331,1,520,2,2,0,24,9,1,0,0,0,1,1,0,0,0,star,triangle,,,,,,,,,,,,,,,,,,,,,,,,,,,,,,,,,,,,,,,,,,,,,,,,,,,,,,
292507,2022-11-30_23h37.31.597,vts_reward_expectancy_bt,2022.2.4,MacIntel,60.0024001,Chrome,1470,956,,,l,1.3898,1,521,2,2,1,25,6,1,0,0,1,0,1,0,0,0,hexagon,triangle,,,,,,,,,,,,,,,,,,,,,,,,,,,,,,,,,,,,,,,,,,,,,,,,,,,,,,
292507,2022-11-30_23h37.31.597,vts_reward_expectancy_bt,2022.2.4,MacIntel,60.0024001,Chrome,1470,956,,,l,0.3831,10,531,2,2,2,26,11,1,0,0,0,1,0,0,1,0,star,hexagon,,,,,,,,,,,,,,,,,,,,,,,,,,,,,,,,,,,,,,,,,,,,,,,,,,,,,,
292507,2022-11-30_23h37.31.597,vts_reward_expectancy_bt,2022.2.4,MacIntel,60.0024001,Chrome,1470,956,,,l,0.7941,10,541,2,2,3,27,4,1,0,1,0,0,0,0,1,0,circle,hexagon,,,,,,,,,,,,,,,,,,,,,,,,,,,,,,,,,,,,,,,,,,,,,,,,,,,,,,
292507,2022-11-30_23h37.31.597,vts_reward_expectancy_bt,2022.2.4,MacIntel,60.0024001,Chrome,1470,956,,,l,2.1327,1,542,2,2,4,28,1,1,1,0,0,0,0,0,1,0,triangle,hexagon,,,,,,,,,,,,,,,,,,,,,,,,,,,,,,,,,,,,,,,,,,,,,,,,,,,,,,
292507,2022-11-30_23h37.31.597,vts_reward_expectancy_bt,2022.2.4,MacIntel,60.0024001,Chrome,1470,956,,,l,0.7578,10,552,2,2,5,29,7,1,0,0,1,0,0,1,0,0,hexagon,circle,,,,,,,,,,,,,,,,,,,,,,,,,,,,,,,,,,,,,,,,,,,,,,,,,,,,,,
292507,2022-11-30_23h37.31.597,vts_reward_expectancy_bt,2022.2.4,MacIntel,60.0024001,Chrome,1470,956,,,l,0.4574,1,553,2,2,6,30,5,1,0,1,0,0,0,0,0,1,circle,star,,,,,,,,,,,,,,,,,,,,,,,,,,,,,,,,,,,,,,,,,,,,,,,,,,,,,,
292507,2022-11-30_23h37.31.597,vts_reward_expectancy_bt,2022.2.4,MacIntel,60.0024001,Chrome,1470,956,,,l,0.2318,10,563,2,2,7,31,10,1,0,0,0,1,0,1,0,0,star ,circle,,,,,,,,,,,,,,,,,,,,,,,,,,,,,,,,,,,,,,,,,,,,,,,,,,,,,,
292507,2022-11-30_23h37.31.597,vts_reward_expectancy_bt,2022.2.4,MacIntel,60.0024001,Chrome,1470,956,,,l,0.0494,1,564,2,2,8,32,0,1,1,0,0,0,0,1,0,0,triangle,circle,,,,,,,,,,,,,,,,,,,,,,,,,,,,,,,,,,,,,,,,,,,,,,,,,,,,,,
292507,2022-11-30_23h37.31.597,vts_reward_expectancy_bt,2022.2.4,MacIntel,60.0024001,Chrome,1470,956,,,l,0.4673,1,565,2,2,9,33,8,1,0,0,1,0,0,0,0,1,hexagon,star,,,,,,,,,,,,,,,,,,,,,,,,,,,,,,,,,,,,,,,,,,,,,,,,,,,,,,
292507,2022-11-30_23h37.31.597,vts_reward_expectancy_bt,2022.2.4,MacIntel,60.0024001,Chrome,1470,956,,,l,0.7426,1,566,2,2,10,34,3,1,0,1,0,0,1,0,0,0,circle,triangle,,,,,,,,,,,,,,,,,,,,,,,,,,,,,,,,,,,,,,,,,,,,,,,,,,,,,,
292507,2022-11-30_23h37.31.597,vts_reward_expectancy_bt,2022.2.4,MacIntel,60.0024001,Chrome,1470,956,,,l,0.4826,1,567,2,2,11,35,2,1,1,0,0,0,0,0,0,1,triangle,star,,,,,,,,,,,,,,,,,,,,,,,,,,,,,,,,,,,,,,,,,,,,,,,,,,,,,,
292507,2022-11-30_23h37.31.597,vts_reward_expectancy_bt,2022.2.4,MacIntel,60.0024001,Chrome,1470,956,,,,,,,,,,,,,,,,,,,,,,,F,125,star,0,0,f,0.7663,0,0,0,0,0,1,,,,,,,,,,,,,,,,,,,,,,,,,,,,,,,,,,,,,,,,,
292507,2022-11-30_23h37.31.597,vts_reward_expectancy_bt,2022.2.4,MacIntel,60.0024001,Chrome,1470,956,,,,,,,,,,,,,,,,,,,,,,,Y,174,hexagon,0,1,d,1.1127,0,1,0,1,0,1,,,,,,,,,,,,,,,,,,,,,,,,,,,,,,,,,,,,,,,,,
292507,2022-11-30_23h37.31.597,vts_reward_expectancy_bt,2022.2.4,MacIntel,60.0024001,Chrome,1470,956,,,,,,,,,,,,,,,,,,,,,,,W,146,triangle,0,1,d,1.8008,0,2,0,2,0,1,,,,,,,,,,,,,,,,,,,,,,,,,,,,,,,,,,,,,,,,,
292507,2022-11-30_23h37.31.597,vts_reward_expectancy_bt,2022.2.4,MacIntel,60.0024001,Chrome,1470,956,,,,,,,,,,,,,,,,,,,,,,,H,181,circle,0,1,f,0.7883,0,3,0,3,0,1,,,,,,,,,,,,,,,,,,,,,,,,,,,,,,,,,,,,,,,,,
292507,2022-11-30_23h37.31.597,vts_reward_expectancy_bt,2022.2.4,MacIntel,60.0024001,Chrome,1470,956,,,,,,,,,,,,,,,,,,,,,,,S,132,star,0,1,d,1.4885,0,4,0,4,0,1,,,,,,,,,,,,,,,,,,,,,,,,,,,,,,,,,,,,,,,,,
292507,2022-11-30_23h37.31.597,vts_reward_expectancy_bt,2022.2.4,MacIntel,60.0024001,Chrome,1470,956,,,,,,,,,,,,,,,,,,,,,,,U,167,hexagon,0,1,d,0.4632,0,5,0,5,0,1,,,,,,,,,,,,,,,,,,,,,,,,,,,,,,,,,,,,,,,,,
292507,2022-11-30_23h37.31.597,vts_reward_expectancy_bt,2022.2.4,MacIntel,60.0024001,Chrome,1470,956,,,,,,,,,,,,,,,,,,,,,,,D,139,triangle,1,1,d,0.3215,0,6,0,6,0,1,,,,,,,,,,,,,,,,,,,,,,,,,,,,,,,,,,,,,,,,,
292507,2022-11-30_23h37.31.597,vts_reward_expectancy_bt,2022.2.4,MacIntel,60.0024001,Chrome,1470,956,,,,,,,,,,,,,,,,,,,,,,,B,160,circle,1,0,d,0.8802,0,7,0,7,0,1,,,,,,,,,,,,,,,,,,,,,,,,,,,,,,,,,,,,,,,,,
292507,2022-11-30_23h37.31.597,vts_reward_expectancy_bt,2022.2.4,MacIntel,60.0024001,Chrome,1470,956,,,,,,,,,,,,,,,,,,,,,,,F,125,circle,1,0,d,1.1146,0,8,0,8,0,1,,,,,,,,,,,,,,,,,,,,,,,,,,,,,,,,,,,,,,,,,
292507,2022-11-30_23h37.31.597,vts_reward_expectancy_bt,2022.2.4,MacIntel,60.0024001,Chrome,1470,956,,,,,,,,,,,,,,,,,,,,,,,Y,174,triangle,1,0,f,0.5784,0,9,0,9,0,1,,,,,,,,,,,,,,,,,,,,,,,,,,,,,,,,,,,,,,,,,
292507,2022-11-30_23h37.31.597,vts_reward_expectancy_bt,2022.2.4,MacIntel,60.0024001,Chrome,1470,956,,,,,,,,,,,,,,,,,,,,,,,F,160,circle,1,0,d,0.7802,1,0,0,0,0,1,,,,,,,,,,,,,,,,,,,,,,,,,,,,,,,,,,,,,,,,,
292507,2022-11-30_23h37.31.597,vts_reward_expectancy_bt,2022.2.4,MacIntel,60.0024001,Chrome,1470,956,,,,,,,,,,,,,,,,,,,,,,,H,174,hexagon,0,0,f,1.964,1,1,0,1,0,1,,,,,,,,,,,,,,,,,,,,,,,,,,,,,,,,,,,,,,,,,
292507,2022-11-30_23h37.31.597,vts_reward_expectancy_bt,2022.2.4,MacIntel,60.0024001,Chrome,1470,956,,,,,,,,,,,,,,,,,,,,,,,W,125,triangle,1,1,f,0.9715,1,2,0,2,0,1,,,,,,,,,,,,,,,,,,,,,,,,,,,,,,,,,,,,,,,,,
292507,2022-11-30_23h37.31.597,vts_reward_expectancy_bt,2022.2.4,MacIntel,60.0024001,Chrome,1470,956,,,,,,,,,,,,,,,,,,,,,,,U,181,star,1,0,f,1.7656,1,3,0,3,0,1,,,,,,,,,,,,,,,,,,,,,,,,,,,,,,,,,,,,,,,,,
292507,2022-11-30_23h37.31.597,vts_reward_expectancy_bt,2022.2.4,MacIntel,60.0024001,Chrome,1470,956,,,,,,,,,,,,,,,,,,,,,,,B,139,circle,1,0,d,0.8815,1,4,0,4,0,1,,,,,,,,,,,,,,,,,,,,,,,,,,,,,,,,,,,,,,,,,
292507,2022-11-30_23h37.31.597,vts_reward_expectancy_bt,2022.2.4,MacIntel,60.0024001,Chrome,1470,956,,,,,,,,,,,,,,,,,,,,,,,Y,146,hexagon,1,0,f,1.4348,1,5,0,5,0,1,,,,,,,,,,,,,,,,,,,,,,,,,,,,,,,,,,,,,,,,,
292507,2022-11-30_23h37.31.597,vts_reward_expectancy_bt,2022.2.4,MacIntel,60.0024001,Chrome,1470,956,,,,,,,,,,,,,,,,,,,,,,,D,167,triangle,1,0,d,1.5304,1,6,0,6,0,1,,,,,,,,,,,,,,,,,,,,,,,,,,,,,,,,,,,,,,,,,
292507,2022-11-30_23h37.31.597,vts_reward_expectancy_bt,2022.2.4,MacIntel,60.0024001,Chrome,1470,956,,,,,,,,,,,,,,,,,,,,,,,S,132,star,1,0,f,2.8038,1,7,0,7,0,1,,,,,,,,,,,,,,,,,,,,,,,,,,,,,,,,,,,,,,,,,
292507,2022-11-30_23h37.31.597,vts_reward_expectancy_bt,2022.2.4,MacIntel,60.0024001,Chrome,1470,956,,,,,,,,,,,,,,,,,,,,,,,F,160,circle,1,0,d,0.9782,1,8,0,8,0,1,,,,,,,,,,,,,,,,,,,,,,,,,,,,,,,,,,,,,,,,,
292507,2022-11-30_23h37.31.597,vts_reward_expectancy_bt,2022.2.4,MacIntel,60.0024001,Chrome,1470,956,,,,,,,,,,,,,,,,,,,,,,,H,174,hexagon,1,0,d,1.847,1,9,0,9,0,1,,,,,,,,,,,,,,,,,,,,,,,,,,,,,,,,,,,,,,,,,
292507,2022-11-30_23h37.31.597,vts_reward_expectancy_bt,2022.2.4,MacIntel,60.0024001,Chrome,1470,956,,,,,,,,,,,,,,,,,,,,,,,H,132,hexagon,0,0,,,2,,,,,,,0,0,0,0,1,,,,,,,,,,,,,,,,,,,,,,,,,,,,,,,,,,,
292507,2022-11-30_23h37.31.597,vts_reward_expectancy_bt,2022.2.4,MacIntel,60.0024001,Chrome,1470,956,,,,,,,,,,,,,,,,,,,,,,,F,174,circle,1,1,,,2,,,,,,k,1,0,1,0,1,1.2664,,,,,,,,,,,,,,,,,,,,,,,,,,,,,,,,,,
292507,2022-11-30_23h37.31.597,vts_reward_expectancy_bt,2022.2.4,MacIntel,60.0024001,Chrome,1470,956,,,,,,,,,,,,,,,,,,,,,,,B,160,star,1,0,,,2,,,,,,k,2,0,2,0,1,1.2307,,,,,,,,,,,,,,,,,,,,,,,,,,,,,,,,,,
292507,2022-11-30_23h37.31.597,vts_reward_expectancy_bt,2022.2.4,MacIntel,60.0024001,Chrome,1470,956,,,,,,,,,,,,,,,,,,,,,,,S,125,triangle,1,0,,,2,,,,,,j,3,0,3,0,1,0.763,,,,,,,,,,,,,,,,,,,,,,,,,,,,,,,,,,
292507,2022-11-30_23h37.31.597,vts_reward_expectancy_bt,2022.2.4,MacIntel,60.0024001,Chrome,1470,956,,,,,,,,,,,,,,,,,,,,,,,U,167,hexagon,1,0,,,2,,,,,,k,4,0,4,0,1,0.7002,,,,,,,,,,,,,,,,,,,,,,,,,,,,,,,,,,
292507,2022-11-30_23h37.31.597,vts_reward_expectancy_bt,2022.2.4,MacIntel,60.0024001,Chrome,1470,956,,,,,,,,,,,,,,,,,,,,,,,D,146,circle,1,0,,,2,,,,,,j,5,0,5,0,1,2.2448,,,,,,,,,,,,,,,,,,,,,,,,,,,,,,,,,,
292507,2022-11-30_23h37.31.597,vts_reward_expectancy_bt,2022.2.4,MacIntel,60.0024001,Chrome,1470,956,,,,,,,,,,,,,,,,,,,,,,,Y,181,star,1,0,,,2,,,,,,k,6,0,6,0,1,0.9968,,,,,,,,,,,,,,,,,,,,,,,,,,,,,,,,,,
292507,2022-11-30_23h37.31.597,vts_reward_expectancy_bt,2022.2.4,MacIntel,60.0024001,Chrome,1470,956,,,,,,,,,,,,,,,,,,,,,,,W,139,triangle,1,0,,,2,,,,,,j,7,0,7,0,1,1.0163,,,,,,,,,,,,,,,,,,,,,,,,,,,,,,,,,,
292507,2022-11-30_23h37.31.597,vts_reward_expectancy_bt,2022.2.4,MacIntel,60.0024001,Chrome,1470,956,,,,,,,,,,,,,,,,,,,,,,,H,132,triangle,1,0,,,2,,,,,,j,8,0,8,0,1,1.9694,,,,,,,,,,,,,,,,,,,,,,,,,,,,,,,,,,
292507,2022-11-30_23h37.31.597,vts_reward_expectancy_bt,2022.2.4,MacIntel,60.0024001,Chrome,1470,956,,,,,,,,,,,,,,,,,,,,,,,F,174,star,1,0,,,2,,,,,,k,9,0,9,0,1,0.7451,,,,,,,,,,,,,,,,,,,,,,,,,,,,,,,,,,
292507,2022-11-30_23h37.31.597,vts_reward_expectancy_bt,2022.2.4,MacIntel,60.0024001,Chrome,1470,956,,,,,0,567,,,,,,,,,,,,,,,,,F,160,star,1,0,,,3,,,,,,,,,,,,,-1,letter,NA,d,2.1422,vtsPrac,0,0,0,0,1,,,,,,,,,,,,,,,,,,,,,,,
292507,2022-11-30_23h37.31.597,vts_reward_expectancy_bt,2022.2.4,MacIntel,60.0024001,Chrome,1470,956,,,,,0,567,,,,,,,,,,,,,,,,,B,146,circle,1,0,,,3,,,,,,,,,,,,,repeat,letter,lettRpt,d,1.0683,vtsPrac,1,0,1,0,1,,,,,,,,,,,,,,,,,,,,,,,
292507,2022-11-30_23h37.31.597,vts_reward_expectancy_bt,2022.2.4,MacIntel,60.0024001,Chrome,1470,956,,,,,0,567,,,,,,,,,,,,,,,,,D,174,star,1,0,,,3,,,,,,,,,,,,,repeat,letter,lettRpt,d,0.7681,vtsPrac,2,0,2,0,1,,,,,,,,,,,,,,,,,,,,,,,
292507,2022-11-30_23h37.31.597,vts_reward_expectancy_bt,2022.2.4,MacIntel,60.0024001,Chrome,1470,956,,,,,0,567,,,,,,,,,,,,,,,,,S,125,circle,1,0,,,3,,,,,,,,,,,,,switch,number,numSwt,j,0.6712,vtsPrac,3,0,3,0,1,,,,,,,,,,,,,,,,,,,,,,,
292507,2022-11-30_23h37.31.597,vts_reward_expectancy_bt,2022.2.4,MacIntel,60.0024001,Chrome,1470,956,,,,,0,567,,,,,,,,,,,,,,,,,F,160,circle,1,0,,,3,,,,,,,,,,,,,repeat,number,numRpt,k,0.7294,vtsPrac,4,0,4,0,1,,,,,,,,,,,,,,,,,,,,,,,
292507,2022-11-30_23h37.31.597,vts_reward_expectancy_bt,2022.2.4,MacIntel,60.0024001,Chrome,1470,956,,,,,0,567,,,,,,,,,,,,,,,,,B,146,triangle,1,0,,,3,,,,,,,,,,,,,repeat,number,numRpt,j,0.6635,vtsPrac,5,0,5,0,1,,,,,,,,,,,,,,,,,,,,,,,
292507,2022-11-30_23h37.31.597,vts_reward_expectancy_bt,2022.2.4,MacIntel,60.0024001,Chrome,1470,956,,,,,0,567,,,,,,,,,,,,,,,,,D,174,hexagon,1,0,,,3,,,,,,,,,,,,,switch,letter,lettSwt,d,1.4503,vtsPrac,6,0,6,0,1,,,,,,,,,,,,,,,,,,,,,,,
292507,2022-11-30_23h37.31.597,vts_reward_expectancy_bt,2022.2.4,MacIntel,60.0024001,Chrome,1470,956,,,,,0,567,,,,,,,,,,,,,,,,,S,125,triangle,-1,0,,,3,,,,,,,,,,,,,switch,no_choice,NA,,,vtsPrac,7,0,7,0,1,,,,,,,,,,,,,,,,,,,,,,,
292507,2022-11-30_23h37.31.597,vts_reward_expectancy_bt,2022.2.4,MacIntel,60.0024001,Chrome,1470,956,,,,,0,567,,,,,,,,,,,,,,,,,Y,181,hexagon,1,0,,,3,,,,,,,,,,,,,switch,number,numSwt,k,0.8151,vtsPrac,8,0,8,0,1,,,,,,,,,,,,,,,,,,,,,,,
292507,2022-11-30_23h37.31.597,vts_reward_expectancy_bt,2022.2.4,MacIntel,60.0024001,Chrome,1470,956,,,,,0,567,,,,,,,,,,,,,,,,,W,160,triangle,1,0,,,3,,,,,,,,,,,,,switch,letter,lettSwt,f,1.5705,vtsPrac,9,0,9,0,1,,,,,,,,,,,,,,,,,,,,,,,
292507,2022-11-30_23h37.31.597,vts_reward_expectancy_bt,2022.2.4,MacIntel,60.0024001,Chrome,1470,956,,,,,0,567,,,,,,,,,,,,,,,,,B,132,star,1,0,,,3,,,,,,,,,,,,,repeat,letter,lettRpt,d,0.8778,vtsPrac,10,0,10,0,1,,,,,,,,,,,,,,,,,,,,,,,
292507,2022-11-30_23h37.31.597,vts_reward_expectancy_bt,2022.2.4,MacIntel,60.0024001,Chrome,1470,956,,,,,0,567,,,,,,,,,,,,,,,,,S,174,circle,1,0,,,3,,,,,,,,,,,,,switch,number,numSwt,k,0.8963,vtsPrac,11,0,11,0,1,,,,,,,,,,,,,,,,,,,,,,,
292507,2022-11-30_23h37.31.597,vts_reward_expectancy_bt,2022.2.4,MacIntel,60.0024001,Chrome,1470,956,,,,,0,567,,,,,,,,,,,,,,,,,U,167,triangle,1,0,,,3,,,,,,,,,,,,,repeat,number,numRpt,k,0.8958,vtsPrac,12,0,12,0,1,,,,,,,,,,,,,,,,,,,,,,,
292507,2022-11-30_23h37.31.597,vts_reward_expectancy_bt,2022.2.4,MacIntel,60.0024001,Chrome,1470,956,,,,,0,567,,,,,,,,,,,,,,,,,H,125,star,1,0,,,3,,,,,,,,,,,,,switch,letter,lettSwt,d,1.2946,vtsPrac,13,0,13,0,1,,,,,,,,,,,,,,,,,,,,,,,
292507,2022-11-30_23h37.31.597,vts_reward_expectancy_bt,2022.2.4,MacIntel,60.0024001,Chrome,1470,956,,,,,0,567,,,,,,,,,,,,,,,,,F,146,triangle,1,0,,,3,,,,,,,,,,,,,switch,number,numSwt,j,0.8105,vtsPrac,14,0,14,0,1,,,,,,,,,,,,,,,,,,,,,,,
292507,2022-11-30_23h37.31.597,vts_reward_expectancy_bt,2022.2.4,MacIntel,60.0024001,Chrome,1470,956,,,,,0,567,,,,,,,,,,,,,,,,,S,139,circle,1,0,,,3,,,,,,,,,,,,,repeat,number,numRpt,j,1.2453,vtsPrac,15,0,15,0,1,,,,,,,,,,,,,,,,,,,,,,,
292507,2022-11-30_23h37.31.597,vts_reward_expectancy_bt,2022.2.4,MacIntel,60.0024001,Chrome,1470,956,,,,,0,567,,,,,,,,,,,,,,,,,F,160,triangle,1,0,,,3,,,,,,,,,,,,,switch,letter,lettSwt,d,0.9331,vtsPrac,16,0,16,0,1,,,,,,,,,,,,,,,,,,,,,,,
292507,2022-11-30_23h37.31.597,vts_reward_expectancy_bt,2022.2.4,MacIntel,60.0024001,Chrome,1470,956,,,,,0,567,,,,,,,,,,,,,,,,,Y,181,circle,1,0,,,3,,,,,,,,,,,,,repeat,letter,lettRpt,f,0.9975,vtsPrac,17,0,17,0,1,,,,,,,,,,,,,,,,,,,,,,,
292507,2022-11-30_23h37.31.597,vts_reward_expectancy_bt,2022.2.4,MacIntel,60.0024001,Chrome,1470,956,,,,,0,567,,,,,,,,,,,,,,,,,W,167,triangle,1,0,,,3,,,,,,,,,,,,,switch,number,numSwt,k,0.8629,vtsPrac,18,0,18,0,1,,,,,,,,,,,,,,,,,,,,,,,
292507,2022-11-30_23h37.31.597,vts_reward_expectancy_bt,2022.2.4,MacIntel,60.0024001,Chrome,1470,956,,,,,0,567,,,,,,,,,,,,,,,,,H,146,circle,1,0,,,3,,,,,,,,,,,,,repeat,number,numRpt,j,1.5154,vtsPrac,19,0,19,0,1,,,,,,,,,,,,,,,,,,,,,,,
292507,2022-11-30_23h37.31.597,vts_reward_expectancy_bt,2022.2.4,MacIntel,60.0024001,Chrome,1470,956,,,,,0,567,,,,,,,,,,,,,,,,,Y,167,circle,1,0,,,3,,,,,,,,,,,,,switch,letter,lettSwt,f,1.0516,vtsPrac,20,0,20,0,1,,,,,,,,,,,,,,,,,,,,,,,
292507,2022-11-30_23h37.31.597,vts_reward_expectancy_bt,2022.2.4,MacIntel,60.0024001,Chrome,1470,956,,,,,0,567,,,,,,,,,,,,,,,,,S,139,star,0,0,,,3,,,,,,,,,,,,,repeat,letter,NA,d,1.6878,vtsPrac,21,0,21,0,1,,,,,,,,,,,,,,,,,,,,,,,
292507,2022-11-30_23h37.31.597,vts_reward_expectancy_bt,2022.2.4,MacIntel,60.0024001,Chrome,1470,956,,,,,0,567,,,,,,,,,,,,,,,,,F,181,star,1,1,,,3,,,,,,,,,,,,,repeat,letter,lettRpt,d,0.6954,vtsPrac,22,0,22,0,1,,,,,,,,,,,,,,,,,,,,,,,
292507,2022-11-30_23h37.31.597,vts_reward_expectancy_bt,2022.2.4,MacIntel,60.0024001,Chrome,1470,956,,,,,0,567,,,,,,,,,,,,,,,,,D,174,hexagon,1,0,,,3,,,,,,,,,,,,,switch,number,numSwt,k,1.5033,vtsPrac,23,0,23,0,1,,,,,,,,,,,,,,,,,,,,,,,
292507,2022-11-30_23h37.31.597,vts_reward_expectancy_bt,2022.2.4,MacIntel,60.0024001,Chrome,1470,956,,,,,0,567,,,,,,,,,,,,,,,,,F,174,triangle,1,0,,,3,,,,,,,,,,,,,repeat,number,numRpt,k,0.6556,vtsPrac,24,0,24,0,1,,,,,,,,,,,,,,,,,,,,,,,
292507,2022-11-30_23h37.31.597,vts_reward_expectancy_bt,2022.2.4,MacIntel,60.0024001,Chrome,1470,956,,,,,0,567,,,,,,,,,,,,,,,,,H,146,star,1,0,,,3,,,,,,,,,,,,,repeat,number,numRpt,j,0.8388,vtsPrac,25,0,25,0,1,,,,,,,,,,,,,,,,,,,,,,,
292507,2022-11-30_23h37.31.597,vts_reward_expectancy_bt,2022.2.4,MacIntel,60.0024001,Chrome,1470,956,,,,,0,567,,,,,,,,,,,,,,,,,D,139,star,1,0,,,3,,,,,,,,,,,,,switch,letter,lettSwt,d,0.6455,vtsPrac,26,0,26,0,1,,,,,,,,,,,,,,,,,,,,,,,
292507,2022-11-30_23h37.31.597,vts_reward_expectancy_bt,2022.2.4,MacIntel,60.0024001,Chrome,1470,956,,,,,0,567,,,,,,,,,,,,,,,,,U,125,triangle,0,0,,,3,,,,,,,,,,,,,repeat,letter,NA,d,1.2464,vtsPrac,27,0,27,0,1,,,,,,,,,,,,,,,,,,,,,,,
292507,2022-11-30_23h37.31.597,vts_reward_expectancy_bt,2022.2.4,MacIntel,60.0024001,Chrome,1470,956,,,,,0,567,,,,,,,,,,,,,,,,,H,174,star,1,1,,,3,,,,,,,,,,,,,repeat,letter,lettRpt,d,1.1958,vtsPrac,28,0,28,0,1,,,,,,,,,,,,,,,,,,,,,,,
292507,2022-11-30_23h37.31.597,vts_reward_expectancy_bt,2022.2.4,MacIntel,60.0024001,Chrome,1470,956,,,,,0,567,,,,,,,,,,,,,,,,,B,167,circle,1,0,,,3,,,,,,,,,,,,,repeat,letter,lettRpt,d,1.3535,vtsPrac,29,0,29,0,1,,,,,,,,,,,,,,,,,,,,,,,
292507,2022-11-30_23h37.31.597,vts_reward_expectancy_bt,2022.2.4,MacIntel,60.0024001,Chrome,1470,956,,,,,0,567,,,,,,,,,,,,,,,,,S,181,hexagon,1,0,,,3,,,,,,,,,,,,,switch,number,numSwt,k,0.9503,vtsPrac,30,0,30,0,1,,,,,,,,,,,,,,,,,,,,,,,
292507,2022-11-30_23h37.31.597,vts_reward_expectancy_bt,2022.2.4,MacIntel,60.0024001,Chrome,1470,956,,,,,0,567,,,,,,,,,,,,,,,,,D,125,circle,1,0,,,3,,,,,,,,,,,,,repeat,number,numRpt,j,0.7954,vtsPrac,31,0,31,0,1,,,,,,,,,,,,,,,,,,,,,,,
292507,2022-11-30_23h37.31.597,vts_reward_expectancy_bt,2022.2.4,MacIntel,60.0024001,Chrome,1470,956,,,,,,,,,,,,,,,,,,,,,,,,,,,,,,,,,,,,,,,,,,,,,,,,,,,,,,,,,,,,,,,,,,,,,,,,,,,,
292507,2022-11-30_23h37.31.597,vts_reward_expectancy_bt,2022.2.4,MacIntel,60.0024001,Chrome,1470,956,,,,,,,,,,,,,,,,,,,,,,,,,,,,,,,,,,,,,,,,,,,,,,,,,,,,,,,,,,,,,,,,,,,,,,,,,,,,
292507,2022-11-30_23h37.31.597,vts_reward_expectancy_bt,2022.2.4,MacIntel,60.0024001,Chrome,1470,956,,,,,0,567,,,,,,,,,,,,,,,,,S,125,triangle,1,0,,,,,,,,,,,,,,,,repeat,number,numRpt,j,1.7873,noRew,,,,,,0,0,0,0,0,1,,,,,,,,,,,,,,,,,
292507,2022-11-30_23h37.31.597,vts_reward_expectancy_bt,2022.2.4,MacIntel,60.0024001,Chrome,1470,956,,,,,0,567,,,,,,,,,,,,,,,,,D,132,circle,1,0,,,,,,,,,,,,,,,,switch,letter,lettSwt,d,2.9321,noRew,,,,,,0,1,0,1,0,1,,,,,,,,,,,,,,,,,
292507,2022-11-30_23h37.31.597,vts_reward_expectancy_bt,2022.2.4,MacIntel,60.0024001,Chrome,1470,956,,,,,0,567,,,,,,,,,,,,,,,,,U,146,triangle,1,0,,,,,,,,,,,,,,,,repeat,letter,lettRpt,f,1.5467,noRew,,,,,,0,2,0,2,0,1,,,,,,,,,,,,,,,,,
292507,2022-11-30_23h37.31.597,vts_reward_expectancy_bt,2022.2.4,MacIntel,60.0024001,Chrome,1470,956,,,,,0,567,,,,,,,,,,,,,,,,,B,181,circle,1,0,,,,,,,,,,,,,,,,switch,number,numSwt,k,1.2467,noRew,,,,,,0,3,0,3,0,1,,,,,,,,,,,,,,,,,
292507,2022-11-30_23h37.31.597,vts_reward_expectancy_bt,2022.2.4,MacIntel,60.0024001,Chrome,1470,956,,,,,0,567,,,,,,,,,,,,,,,,,S,125,hexagon,1,0,,,,,,,,,,,,,,,,switch,letter,lettSwt,f,1.7421,noRew,,,,,,0,4,0,4,0,1,,,,,,,,,,,,,,,,,
292507,2022-11-30_23h37.31.597,vts_reward_expectancy_bt,2022.2.4,MacIntel,60.0024001,Chrome,1470,956,,,,,0,567,,,,,,,,,,,,,,,,,D,132,circle,1,0,,,,,,,,,,,,,,,,switch,number,numSwt,j,0.8518,noRew,,,,,,0,5,0,5,0,1,,,,,,,,,,,,,,,,,
292507,2022-11-30_23h37.31.597,vts_reward_expectancy_bt,2022.2.4,MacIntel,60.0024001,Chrome,1470,956,,,,,0,567,,,,,,,,,,,,,,,,,U,146,star,1,0,,,,,,,,,,,,,,,,repeat,number,numRpt,j,1.6629,noRew,,,,,,0,6,0,6,0,1,,,,,,,,,,,,,,,,,
292507,2022-11-30_23h37.31.597,vts_reward_expectancy_bt,2022.2.4,MacIntel,60.0024001,Chrome,1470,956,,,,,0,567,,,,,,,,,,,,,,,,,B,181,triangle,1,0,,,,,,,,,,,,,,,,switch,letter,lettSwt,d,1.3946,noRew,,,,,,0,7,0,7,0,1,,,,,,,,,,,,,,,,,
292507,2022-11-30_23h37.31.597,vts_reward_expectancy_bt,2022.2.4,MacIntel,60.0024001,Chrome,1470,956,,,,,0,567,,,,,,,,,,,,,,,,,U,139,triangle,1,0,,,,,,,,,,,,,,,,switch,number,numSwt,j,0.983,noRew,,,,,,0,8,0,8,0,1,,,,,,,,,,,,,,,,,
292507,2022-11-30_23h37.31.597,vts_reward_expectancy_bt,2022.2.4,MacIntel,60.0024001,Chrome,1470,956,,,,,0,567,,,,,,,,,,,,,,,,,W,146,hexagon,1,0,,,,,,,,,,,,,,,,repeat,number,numRpt,j,0.9807,noRew,,,,,,0,9,0,9,0,1,,,,,,,,,,,,,,,,,
292507,2022-11-30_23h37.31.597,vts_reward_expectancy_bt,2022.2.4,MacIntel,60.0024001,Chrome,1470,956,,,,,0,567,,,,,,,,,,,,,,,,,F,181,hexagon,1,0,,,,,,,,,,,,,,,,switch,letter,lettSwt,d,1.3142,noRew,,,,,,0,10,0,10,0,1,,,,,,,,,,,,,,,,,
292507,2022-11-30_23h37.31.597,vts_reward_expectancy_bt,2022.2.4,MacIntel,60.0024001,Chrome,1470,956,,,,,0,567,,,,,,,,,,,,,,,,,D,125,circle,1,0,,,,,,,,,,,,,,,,repeat,letter,lettRpt,d,0.7305,noRew,,,,,,0,11,0,11,0,1,,,,,,,,,,,,,,,,,
292507,2022-11-30_23h37.31.597,vts_reward_expectancy_bt,2022.2.4,MacIntel,60.0024001,Chrome,1470,956,,,,,0,567,,,,,,,,,,,,,,,,,Y,146,triangle,1,0,,,,,,,,,,,,,,,,repeat,letter,lettRpt,f,1.613,noRew,,,,,,0,12,0,12,0,1,,,,,,,,,,,,,,,,,
292507,2022-11-30_23h37.31.597,vts_reward_expectancy_bt,2022.2.4,MacIntel,60.0024001,Chrome,1470,956,,,,,0,567,,,,,,,,,,,,,,,,,B,160,circle,1,0,,,,,,,,,,,,,,,,repeat,letter,lettRpt,d,1.296,noRew,,,,,,0,13,0,13,0,1,,,,,,,,,,,,,,,,,
292507,2022-11-30_23h37.31.597,vts_reward_expectancy_bt,2022.2.4,MacIntel,60.0024001,Chrome,1470,956,,,,,0,567,,,,,,,,,,,,,,,,,U,181,circle,1,0,,,,,,,,,,,,,,,,switch,number,numSwt,k,1.6277,noRew,,,,,,0,14,0,14,0,1,,,,,,,,,,,,,,,,,
292507,2022-11-30_23h37.31.597,vts_reward_expectancy_bt,2022.2.4,MacIntel,60.0024001,Chrome,1470,956,,,,,0,567,,,,,,,,,,,,,,,,,S,174,hexagon,1,0,,,,,,,,,,,,,,,,repeat,number,numRpt,k,1.6461,noRew,,,,,,0,15,0,15,0,1,,,,,,,,,,,,,,,,,
292507,2022-11-30_23h37.31.597,vts_reward_expectancy_bt,2022.2.4,MacIntel,60.0024001,Chrome,1470,956,,,,,0,567,,,,,,,,,,,,,,,,,B,139,circle,1,0,,,,,,,,,,,,,,,,switch,letter,lettSwt,d,1.5774,noRew,,,,,,0,16,0,16,0,1,,,,,,,,,,,,,,,,,
292507,2022-11-30_23h37.31.597,vts_reward_expectancy_bt,2022.2.4,MacIntel,60.0024001,Chrome,1470,956,,,,,0,567,,,,,,,,,,,,,,,,,H,181,star,1,0,,,,,,,,,,,,,,,,switch,number,numSwt,k,1.3294,noRew,,,,,,0,17,0,17,0,1,,,,,,,,,,,,,,,,,
292507,2022-11-30_23h37.31.597,vts_reward_expectancy_bt,2022.2.4,MacIntel,60.0024001,Chrome,1470,956,,,,,0,567,,,,,,,,,,,,,,,,,F,146,triangle,1,0,,,,,,,,,,,,,,,,switch,letter,lettSwt,d,1.0303,noRew,,,,,,0,18,0,18,0,1,,,,,,,,,,,,,,,,,
292507,2022-11-30_23h37.31.597,vts_reward_expectancy_bt,2022.2.4,MacIntel,60.0024001,Chrome,1470,956,,,,,0,567,,,,,,,,,,,,,,,,,D,132,star,1,0,,,,,,,,,,,,,,,,switch,number,numSwt,j,0.8806,noRew,,,,,,0,19,0,19,0,1,,,,,,,,,,,,,,,,,
292507,2022-11-30_23h37.31.597,vts_reward_expectancy_bt,2022.2.4,MacIntel,60.0024001,Chrome,1470,956,,,,,0,567,,,,,,,,,,,,,,,,,U,167,star,1,0,,,,,,,,,,,,,,,,switch,letter,lettSwt,f,2.1797,noRew,,,,,,0,20,0,20,0,1,,,,,,,,,,,,,,,,,
292507,2022-11-30_23h37.31.597,vts_reward_expectancy_bt,2022.2.4,MacIntel,60.0024001,Chrome,1470,956,,,,,0,567,,,,,,,,,,,,,,,,,Y,160,hexagon,1,0,,,,,,,,,,,,,,,,switch,number,numSwt,k,0.9761,noRew,,,,,,0,21,0,21,0,1,,,,,,,,,,,,,,,,,
292507,2022-11-30_23h37.31.597,vts_reward_expectancy_bt,2022.2.4,MacIntel,60.0024001,Chrome,1470,956,,,,,0,567,,,,,,,,,,,,,,,,,F,132,star,1,0,,,,,,,,,,,,,,,,switch,letter,lettSwt,d,1.5809,noRew,,,,,,0,22,0,22,0,1,,,,,,,,,,,,,,,,,
292507,2022-11-30_23h37.31.597,vts_reward_expectancy_bt,2022.2.4,MacIntel,60.0024001,Chrome,1470,956,,,,,0,567,,,,,,,,,,,,,,,,,S,125,triangle,1,0,,,,,,,,,,,,,,,,switch,number,numSwt,j,1.0793,noRew,,,,,,0,23,0,23,0,1,,,,,,,,,,,,,,,,,
292507,2022-11-30_23h37.31.597,vts_reward_expectancy_bt,2022.2.4,MacIntel,60.0024001,Chrome,1470,956,,,,,0,567,,,,,,,,,,,,,,,,,H,181,circle,1,0,,,,,,,,,,,,,,,,switch,letter,lettSwt,d,2.129,noRew,,,,,,0,24,0,24,0,1,,,,,,,,,,,,,,,,,
292507,2022-11-30_23h37.31.597,vts_reward_expectancy_bt,2022.2.4,MacIntel,60.0024001,Chrome,1470,956,,,,,0,567,,,,,,,,,,,,,,,,,S,125,star,1,0,,,,,,,,,,,,,,,,switch,number,numSwt,j,0.8449,noRew,,,,,,0,25,0,25,0,1,,,,,,,,,,,,,,,,,
292507,2022-11-30_23h37.31.597,vts_reward_expectancy_bt,2022.2.4,MacIntel,60.0024001,Chrome,1470,956,,,,,0,567,,,,,,,,,,,,,,,,,B,174,circle,1,0,,,,,,,,,,,,,,,,switch,letter,lettSwt,d,1.2682,noRew,,,,,,0,26,0,26,0,1,,,,,,,,,,,,,,,,,
292507,2022-11-30_23h37.31.597,vts_reward_expectancy_bt,2022.2.4,MacIntel,60.0024001,Chrome,1470,956,,,,,0,567,,,,,,,,,,,,,,,,,F,167,hexagon,1,0,,,,,,,,,,,,,,,,switch,number,numSwt,k,1.089,noRew,,,,,,0,27,0,27,0,1,,,,,,,,,,,,,,,,,
292507,2022-11-30_23h37.31.597,vts_reward_expectancy_bt,2022.2.4,MacIntel,60.0024001,Chrome,1470,956,,,,,0,567,,,,,,,,,,,,,,,,,W,167,triangle,1,0,,,,,,,,,,,,,,,,switch,letter,lettSwt,f,1.7493,noRew,,,,,,0,28,0,28,0,1,,,,,,,,,,,,,,,,,
292507,2022-11-30_23h37.31.597,vts_reward_expectancy_bt,2022.2.4,MacIntel,60.0024001,Chrome,1470,956,,,,,0,567,,,,,,,,,,,,,,,,,Y,132,circle,1,0,,,,,,,,,,,,,,,,switch,number,numSwt,j,1.363,noRew,,,,,,0,29,0,29,0,1,,,,,,,,,,,,,,,,,
292507,2022-11-30_23h37.31.597,vts_reward_expectancy_bt,2022.2.4,MacIntel,60.0024001,Chrome,1470,956,,,,,0,567,,,,,,,,,,,,,,,,,F,139,circle,1,0,,,,,,,,,,,,,,,,switch,letter,lettSwt,d,1.3559,noRew,,,,,,0,30,0,30,0,1,,,,,,,,,,,,,,,,,
292507,2022-11-30_23h37.31.597,vts_reward_expectancy_bt,2022.2.4,MacIntel,60.0024001,Chrome,1470,956,,,,,0,567,,,,,,,,,,,,,,,,,U,146,star,1,0,,,,,,,,,,,,,,,,switch,number,numSwt,j,1.3795,noRew,,,,,,0,31,0,31,0,1,,,,,,,,,,,,,,,,,
292507,2022-11-30_23h37.31.597,vts_reward_expectancy_bt,2022.2.4,MacIntel,60.0024001,Chrome,1470,956,,,,,0,567,,,,,,,,,,,,,,,,,F,181,circle,1,0,,,,,,,,,,,,,,,,switch,letter,lettSwt,d,1.4201,noRew,,,,,,0,32,0,32,0,1,,,,,,,,,,,,,,,,,
292507,2022-11-30_23h37.31.597,vts_reward_expectancy_bt,2022.2.4,MacIntel,60.0024001,Chrome,1470,956,,,,,0,567,,,,,,,,,,,,,,,,,D,160,hexagon,1,0,,,,,,,,,,,,,,,,switch,number,numSwt,k,1.1474,noRew,,,,,,0,33,0,33,0,1,,,,,,,,,,,,,,,,,
292507,2022-11-30_23h37.31.597,vts_reward_expectancy_bt,2022.2.4,MacIntel,60.0024001,Chrome,1470,956,,,,,0,567,,,,,,,,,,,,,,,,,U,132,star,0,0,,,,,,,,,,,,,,,,switch,letter,NA,d,1.6294,noRew,,,,,,0,34,0,34,0,1,,,,,,,,,,,,,,,,,
292507,2022-11-30_23h37.31.597,vts_reward_expectancy_bt,2022.2.4,MacIntel,60.0024001,Chrome,1470,956,,,,,0,567,,,,,,,,,,,,,,,,,Y,139,circle,1,1,,,,,,,,,,,,,,,,switch,number,numSwt,j,2.047,noRew,,,,,,0,35,0,35,0,1,,,,,,,,,,,,,,,,,
292507,2022-11-30_23h37.31.597,vts_reward_expectancy_bt,2022.2.4,MacIntel,60.0024001,Chrome,1470,956,,,,,0,567,,,,,,,,,,,,,,,,,S,139,circle,0,0,,,,,,,,,,,,,,,,switch,letter,NA,d,2.9623,noRew,,,,,,0,36,0,36,0,1,,,,,,,,,,,,,,,,,
292507,2022-11-30_23h37.31.597,vts_reward_expectancy_bt,2022.2.4,MacIntel,60.0024001,Chrome,1470,956,,,,,0,567,,,,,,,,,,,,,,,,,D,160,star,1,1,,,,,,,,,,,,,,,,switch,number,numSwt,k,1.2637,noRew,,,,,,0,37,0,37,0,1,,,,,,,,,,,,,,,,,
292507,2022-11-30_23h37.31.597,vts_reward_expectancy_bt,2022.2.4,MacIntel,60.0024001,Chrome,1470,956,,,,,0,567,,,,,,,,,,,,,,,,,W,125,star,1,0,,,,,,,,,,,,,,,,repeat,number,numRpt,j,0.9682,noRew,,,,,,0,38,0,38,0,1,,,,,,,,,,,,,,,,,
292507,2022-11-30_23h37.31.597,vts_reward_expectancy_bt,2022.2.4,MacIntel,60.0024001,Chrome,1470,956,,,,,0,567,,,,,,,,,,,,,,,,,Y,132,circle,1,0,,,,,,,,,,,,,,,,repeat,number,numRpt,j,1.1302,noRew,,,,,,0,39,0,39,0,1,,,,,,,,,,,,,,,,,
292507,2022-11-30_23h37.31.597,vts_reward_expectancy_bt,2022.2.4,MacIntel,60.0024001,Chrome,1470,956,,,,,0,567,,,,,,,,,,,,,,,,,H,181,circle,1,0,,,,,,,,,,,,,,,,switch,letter,lettSwt,d,1.637,noRew,,,,,,0,40,0,40,0,1,,,,,,,,,,,,,,,,,
292507,2022-11-30_23h37.31.597,vts_reward_expectancy_bt,2022.2.4,MacIntel,60.0024001,Chrome,1470,956,,,,,0,567,,,,,,,,,,,,,,,,,D,146,star,1,0,,,,,,,,,,,,,,,,repeat,letter,lettRpt,d,0.736,noRew,,,,,,0,41,0,41,0,1,,,,,,,,,,,,,,,,,
292507,2022-11-30_23h37.31.597,vts_reward_expectancy_bt,2022.2.4,MacIntel,60.0024001,Chrome,1470,956,,,,,0,567,,,,,,,,,,,,,,,,,F,139,triangle,1,0,,,,,,,,,,,,,,,,repeat,letter,lettRpt,d,0.7641,noRew,,,,,,0,42,0,42,0,1,,,,,,,,,,,,,,,,,
292507,2022-11-30_23h37.31.597,vts_reward_expectancy_bt,2022.2.4,MacIntel,60.0024001,Chrome,1470,956,,,,,0,567,,,,,,,,,,,,,,,,,W,125,hexagon,1,0,,,,,,,,,,,,,,,,switch,number,numSwt,j,1.199,noRew,,,,,,0,43,0,43,0,1,,,,,,,,,,,,,,,,,
292507,2022-11-30_23h37.31.597,vts_reward_expectancy_bt,2022.2.4,MacIntel,60.0024001,Chrome,1470,956,,,,,0,567,,,,,,,,,,,,,,,,,H,181,circle,1,0,,,,,,,,,,,,,,,,repeat,number,numRpt,k,1.2797,noRew,,,,,,0,44,0,44,0,1,,,,,,,,,,,,,,,,,
292507,2022-11-30_23h37.31.597,vts_reward_expectancy_bt,2022.2.4,MacIntel,60.0024001,Chrome,1470,956,,,,,0,567,,,,,,,,,,,,,,,,,S,125,star,0,0,,,,,,,,,,,,,,,,switch,letter,NA,d,1.6141,noRew,,,,,,0,45,0,45,0,1,,,,,,,,,,,,,,,,,
292507,2022-11-30_23h37.31.597,vts_reward_expectancy_bt,2022.2.4,MacIntel,60.0024001,Chrome,1470,956,,,,,0,567,,,,,,,,,,,,,,,,,Y,160,circle,1,1,,,,,,,,,,,,,,,,switch,number,numSwt,k,0.9884,noRew,,,,,,0,46,0,46,0,1,,,,,,,,,,,,,,,,,
292507,2022-11-30_23h37.31.597,vts_reward_expectancy_bt,2022.2.4,MacIntel,60.0024001,Chrome,1470,956,,,,,0,567,,,,,,,,,,,,,,,,,F,167,star,1,0,,,,,,,,,,,,,,,,repeat,number,numRpt,k,1.4126,noRew,,,,,,0,47,0,47,0,1,,,,,,,,,,,,,,,,,
292507,2022-11-30_23h37.31.597,vts_reward_expectancy_bt,2022.2.4,MacIntel,60.0024001,Chrome,1470,956,,,,,0,567,,,,,,,,,,,,,,,,,B,167,star,1,0,,,,,,,,,,,,,,,,repeat,number,numRpt,k,1.6346,noRew,,,,,,0,48,0,48,0,1,,,,,,,,,,,,,,,,,
292507,2022-11-30_23h37.31.597,vts_reward_expectancy_bt,2022.2.4,MacIntel,60.0024001,Chrome,1470,956,,,,,0,567,,,,,,,,,,,,,,,,,Y,181,circle,1,0,,,,,,,,,,,,,,,,switch,letter,lettSwt,f,0.8123,noRew,,,,,,0,49,0,49,0,1,,,,,,,,,,,,,,,,,
292507,2022-11-30_23h37.31.597,vts_reward_expectancy_bt,2022.2.4,MacIntel,60.0024001,Chrome,1470,956,,,,,0,567,,,,,,,,,,,,,,,,,S,132,star,1,0,,,,,,,,,,,,,,,,repeat,letter,lettRpt,f,1.0307,noRew,,,,,,0,50,0,50,0,1,,,,,,,,,,,,,,,,,
292507,2022-11-30_23h37.31.597,vts_reward_expectancy_bt,2022.2.4,MacIntel,60.0024001,Chrome,1470,956,,,,,0,567,,,,,,,,,,,,,,,,,F,174,triangle,0,0,,,,,,,,,,,,,,,,repeat,letter,NA,f,1.6147,noRew,,,,,,0,51,0,51,0,1,,,,,,,,,,,,,,,,,
292507,2022-11-30_23h37.31.597,vts_reward_expectancy_bt,2022.2.4,MacIntel,60.0024001,Chrome,1470,956,,,,,0,567,,,,,,,,,,,,,,,,,B,160,circle,1,1,,,,,,,,,,,,,,,,repeat,letter,lettRpt,d,1.5195,noRew,,,,,,0,52,0,52,0,1,,,,,,,,,,,,,,,,,
292507,2022-11-30_23h37.31.597,vts_reward_expectancy_bt,2022.2.4,MacIntel,60.0024001,Chrome,1470,956,,,,,0,567,,,,,,,,,,,,,,,,,U,181,triangle,0,0,,,,,,,,,,,,,,,,repeat,letter,NA,d,1.6174,noRew,,,,,,0,53,0,53,0,1,,,,,,,,,,,,,,,,,
292507,2022-11-30_23h37.31.597,vts_reward_expectancy_bt,2022.2.4,MacIntel,60.0024001,Chrome,1470,956,,,,,0,567,,,,,,,,,,,,,,,,,S,174,hexagon,0,1,,,,,,,,,,,,,,,,repeat,letter,NA,d,1.2651,noRew,,,,,,0,54,0,54,0,1,,,,,,,,,,,,,,,,,
292507,2022-11-30_23h37.31.597,vts_reward_expectancy_bt,2022.2.4,MacIntel,60.0024001,Chrome,1470,956,,,,,0,567,,,,,,,,,,,,,,,,,F,125,triangle,1,1,,,,,,,,,,,,,,,,repeat,letter,lettRpt,d,0.8148,noRew,,,,,,0,55,0,55,0,1,,,,,,,,,,,,,,,,,
292507,2022-11-30_23h37.31.597,vts_reward_expectancy_bt,2022.2.4,MacIntel,60.0024001,Chrome,1470,956,,,,,0,567,,,,,,,,,,,,,,,,,W,160,triangle,1,0,,,,,,,,,,,,,,,,repeat,letter,lettRpt,f,0.8222,noRew,,,,,,0,56,0,56,0,1,,,,,,,,,,,,,,,,,
292507,2022-11-30_23h37.31.597,vts_reward_expectancy_bt,2022.2.4,MacIntel,60.0024001,Chrome,1470,956,,,,,0,567,,,,,,,,,,,,,,,,,F,139,star,1,0,,,,,,,,,,,,,,,,switch,number,numSwt,j,0.589,noRew,,,,,,0,57,0,57,0,1,,,,,,,,,,,,,,,,,
292507,2022-11-30_23h37.31.597,vts_reward_expectancy_bt,2022.2.4,MacIntel,60.0024001,Chrome,1470,956,,,,,0,567,,,,,,,,,,,,,,,,,B,146,star,1,0,,,,,,,,,,,,,,,,repeat,number,numRpt,j,1.2477,noRew,,,,,,0,58,0,58,0,1,,,,,,,,,,,,,,,,,
292507,2022-11-30_23h37.31.597,vts_reward_expectancy_bt,2022.2.4,MacIntel,60.0024001,Chrome,1470,956,,,,,0,567,,,,,,,,,,,,,,,,,U,132,circle,1,0,,,,,,,,,,,,,,,,repeat,number,numRpt,j,1.997,noRew,,,,,,0,59,0,59,0,1,,,,,,,,,,,,,,,,,
292507,2022-11-30_23h37.31.597,vts_reward_expectancy_bt,2022.2.4,MacIntel,60.0024001,Chrome,1470,956,,,,,0,567,,,,,,,,,,,,,,,,,U,125,hexagon,1,0,,,,,,,,,,,,,,,,repeat,number,numRpt,j,1.1658,noRew,,,,,,0,60,0,60,0,1,,,,,,,,,,,,,,,,,
292507,2022-11-30_23h37.31.597,vts_reward_expectancy_bt,2022.2.4,MacIntel,60.0024001,Chrome,1470,956,,,,,0,567,,,,,,,,,,,,,,,,,B,181,circle,0,0,,,,,,,,,,,,,,,,repeat,number,NA,j,1.0238,noRew,,,,,,0,61,0,61,0,1,,,,,,,,,,,,,,,,,
292507,2022-11-30_23h37.31.597,vts_reward_expectancy_bt,2022.2.4,MacIntel,60.0024001,Chrome,1470,956,,,,,0,567,,,,,,,,,,,,,,,,,H,146,triangle,1,1,,,,,,,,,,,,,,,,switch,letter,lettSwt,d,1.0532,noRew,,,,,,0,62,0,62,0,1,,,,,,,,,,,,,,,,,
292507,2022-11-30_23h37.31.597,vts_reward_expectancy_bt,2022.2.4,MacIntel,60.0024001,Chrome,1470,956,,,,,0,567,,,,,,,,,,,,,,,,,Y,174,star,1,0,,,,,,,,,,,,,,,,repeat,letter,lettRpt,f,0.7697,noRew,,,,,,0,63,0,63,0,1,,,,,,,,,,,,,,,,,
292507,2022-11-30_23h37.31.597,vts_reward_expectancy_bt,2022.2.4,MacIntel,60.0024001,Chrome,1470,956,,,,,,,,,,,,,,,,,,,,,,,,,,,,,,,,,,,,,,,,,,,,,,,,,,,,,,,,,,,,,,,,,,,,,,,,,,,,
292507,2022-11-30_23h37.31.597,vts_reward_expectancy_bt,2022.2.4,MacIntel,60.0024001,Chrome,1470,956,,,,,1,568,,,,,,,,,,,,,,,,,U,132,triangle,1,0,,,,,,,,,,,,,,,,repeat,letter,lettRpt,f,2.2161,Lo,,,,,,0,,,,,,space,11.5826,high,0,0,0,0,1,,,,,,,,,
292507,2022-11-30_23h37.31.597,vts_reward_expectancy_bt,2022.2.4,MacIntel,60.0024001,Chrome,1470,956,,,,,1,569,,,,,,,,,,,,,,,,,Y,160,star,1,0,,,,,,,,,,,,,,,,repeat,letter,lettRpt,f,0.8632,Lo,,,,,,0,,,,,,,,high,1,0,1,0,1,,,,,,,,,
292507,2022-11-30_23h37.31.597,vts_reward_expectancy_bt,2022.2.4,MacIntel,60.0024001,Chrome,1470,956,,,,,0,569,,,,,,,,,,,,,,,,,D,174,circle,1,0,,,,,,,,,,,,,,,,repeat,letter,lettRpt,d,1.5629,Hi,,,,,,0,,,,,,,,high,2,0,2,0,1,,,,,,,,,
292507,2022-11-30_23h37.31.597,vts_reward_expectancy_bt,2022.2.4,MacIntel,60.0024001,Chrome,1470,956,,,,,10,579,,,,,,,,,,,,,,,,,B,181,hexagon,1,0,,,,,,,,,,,,,,,,switch,number,numSwt,k,0.5649,Hi,,,,,,0,,,,,,,,high,3,0,3,0,1,,,,,,,,,
292507,2022-11-30_23h37.31.597,vts_reward_expectancy_bt,2022.2.4,MacIntel,60.0024001,Chrome,1470,956,,,,,10,589,,,,,,,,,,,,,,,,,H,167,triangle,1,0,,,,,,,,,,,,,,,,repeat,number,numRpt,k,0.8307,Lo,,,,,,0,,,,,,,,high,4,0,4,0,1,,,,,,,,,
292507,2022-11-30_23h37.31.597,vts_reward_expectancy_bt,2022.2.4,MacIntel,60.0024001,Chrome,1470,956,,,,,1,590,,,,,,,,,,,,,,,,,W,139,star,1,0,,,,,,,,,,,,,,,,repeat,number,numRpt,j,0.7456,Lo,,,,,,0,,,,,,,,high,5,0,5,0,1,,,,,,,,,
292507,2022-11-30_23h37.31.597,vts_reward_expectancy_bt,2022.2.4,MacIntel,60.0024001,Chrome,1470,956,,,,,10,600,,,,,,,,,,,,,,,,,S,146,circle,1,0,,,,,,,,,,,,,,,,repeat,number,numRpt,j,0.9486,Hi,,,,,,0,,,,,,,,high,6,0,6,0,1,,,,,,,,,
292507,2022-11-30_23h37.31.597,vts_reward_expectancy_bt,2022.2.4,MacIntel,60.0024001,Chrome,1470,956,,,,,10,610,,,,,,,,,,,,,,,,,F,125,hexagon,1,0,,,,,,,,,,,,,,,,switch,letter,lettSwt,d,0.6133,Hi,,,,,,0,,,,,,,,high,7,0,7,0,1,,,,,,,,,
292507,2022-11-30_23h37.31.597,vts_reward_expectancy_bt,2022.2.4,MacIntel,60.0024001,Chrome,1470,956,,,,,0,610,,,,,,,,,,,,,,,,,U,132,circle,1,0,,,,,,,,,,,,,,,,repeat,letter,lettRpt,f,1.9712,Hi,,,,,,0,,,,,,,,high,8,0,8,0,1,,,,,,,,,
292507,2022-11-30_23h37.31.597,vts_reward_expectancy_bt,2022.2.4,MacIntel,60.0024001,Chrome,1470,956,,,,,10,620,,,,,,,,,,,,,,,,,Y,160,triangle,1,0,,,,,,,,,,,,,,,,repeat,letter,lettRpt,f,1.1646,Lo,,,,,,0,,,,,,,,high,9,0,9,0,1,,,,,,,,,
292507,2022-11-30_23h37.31.597,vts_reward_expectancy_bt,2022.2.4,MacIntel,60.0024001,Chrome,1470,956,,,,,10,630,,,,,,,,,,,,,,,,,D,174,star,1,0,,,,,,,,,,,,,,,,switch,number,numSwt,k,0.6224,Lo,,,,,,0,,,,,,,,high,10,0,10,0,1,,,,,,,,,
292507,2022-11-30_23h37.31.597,vts_reward_expectancy_bt,2022.2.4,MacIntel,60.0024001,Chrome,1470,956,,,,,0,630,,,,,,,,,,,,,,,,,B,181,hexagon,1,0,,,,,,,,,,,,,,,,repeat,number,numRpt,k,1.6982,Hi,,,,,,0,,,,,,,,high,11,0,11,0,1,,,,,,,,,
292507,2022-11-30_23h37.31.597,vts_reward_expectancy_bt,2022.2.4,MacIntel,60.0024001,Chrome,1470,956,,,,,10,640,,,,,,,,,,,,,,,,,H,167,star,1,0,,,,,,,,,,,,,,,,repeat,number,numRpt,k,0.7784,Lo,,,,,,0,,,,,,,,high,12,0,12,0,1,,,,,,,,,
292507,2022-11-30_23h37.31.597,vts_reward_expectancy_bt,2022.2.4,MacIntel,60.0024001,Chrome,1470,956,,,,,10,650,,,,,,,,,,,,,,,,,W,139,circle,1,0,,,,,,,,,,,,,,,,switch,letter,lettSwt,f,1.0232,Hi,,,,,,0,,,,,,,,high,13,0,13,0,1,,,,,,,,,
292507,2022-11-30_23h37.31.597,vts_reward_expectancy_bt,2022.2.4,MacIntel,60.0024001,Chrome,1470,956,,,,,1,651,,,,,,,,,,,,,,,,,S,146,triangle,1,0,,,,,,,,,,,,,,,,switch,number,numSwt,j,0.9972,Lo,,,,,,0,,,,,,,,high,14,0,14,0,1,,,,,,,,,
292507,2022-11-30_23h37.31.597,vts_reward_expectancy_bt,2022.2.4,MacIntel,60.0024001,Chrome,1470,956,,,,,10,661,,,,,,,,,,,,,,,,,F,125,hexagon,1,0,,,,,,,,,,,,,,,,switch,letter,lettSwt,d,0.8372,Hi,,,,,,0,,,,,,,,high,15,0,15,0,1,,,,,,,,,
292507,2022-11-30_23h37.31.597,vts_reward_expectancy_bt,2022.2.4,MacIntel,60.0024001,Chrome,1470,956,,,,,1,662,,,,,,,,,,,,,,,,,F,146,triangle,1,0,,,,,,,,,,,,,,,,repeat,letter,lettRpt,d,0.7998,Lo,,,,,,0,,,,,,,,high,16,0,16,0,1,,,,,,,,,
292507,2022-11-30_23h37.31.597,vts_reward_expectancy_bt,2022.2.4,MacIntel,60.0024001,Chrome,1470,956,,,,,0,662,,,,,,,,,,,,,,,,,Y,139,hexagon,1,0,,,,,,,,,,,,,,,,switch,number,numSwt,j,1.7488,Hi,,,,,,0,,,,,,,,high,17,0,17,0,1,,,,,,,,,
292507,2022-11-30_23h37.31.597,vts_reward_expectancy_bt,2022.2.4,MacIntel,60.0024001,Chrome,1470,956,,,,,10,672,,,,,,,,,,,,,,,,,U,125,circle,1,0,,,,,,,,,,,,,,,,repeat,number,numRpt,j,0.9223,Hi,,,,,,0,,,,,,,,high,18,0,18,0,1,,,,,,,,,
292507,2022-11-30_23h37.31.597,vts_reward_expectancy_bt,2022.2.4,MacIntel,60.0024001,Chrome,1470,956,,,,,1,673,,,,,,,,,,,,,,,,,B,174,star,1,0,,,,,,,,,,,,,,,,repeat,number,numRpt,k,0.9788,Lo,,,,,,0,,,,,,,,high,19,0,19,0,1,,,,,,,,,
292507,2022-11-30_23h37.31.597,vts_reward_expectancy_bt,2022.2.4,MacIntel,60.0024001,Chrome,1470,956,,,,,10,683,,,,,,,,,,,,,,,,,H,167,triangle,1,0,,,,,,,,,,,,,,,,repeat,number,numRpt,k,0.9462,Lo,,,,,,0,,,,,,,,high,20,0,20,0,1,,,,,,,,,
292507,2022-11-30_23h37.31.597,vts_reward_expectancy_bt,2022.2.4,MacIntel,60.0024001,Chrome,1470,956,,,,,10,693,,,,,,,,,,,,,,,,,D,132,hexagon,1,0,,,,,,,,,,,,,,,,repeat,number,numRpt,j,1.1971,Hi,,,,,,0,,,,,,,,high,21,0,21,0,1,,,,,,,,,
292507,2022-11-30_23h37.31.597,vts_reward_expectancy_bt,2022.2.4,MacIntel,60.0024001,Chrome,1470,956,,,,,10,703,,,,,,,,,,,,,,,,,W,181,star,1,0,,,,,,,,,,,,,,,,repeat,number,numRpt,k,1.2837,Lo,,,,,,0,,,,,,,,high,22,0,22,0,1,,,,,,,,,
292507,2022-11-30_23h37.31.597,vts_reward_expectancy_bt,2022.2.4,MacIntel,60.0024001,Chrome,1470,956,,,,,1,704,,,,,,,,,,,,,,,,,S,160,circle,1,0,,,,,,,,,,,,,,,,repeat,number,numRpt,k,0.8985,Hi,,,,,,0,,,,,,,,high,23,0,23,0,1,,,,,,,,,
292507,2022-11-30_23h37.31.597,vts_reward_expectancy_bt,2022.2.4,MacIntel,60.0024001,Chrome,1470,956,,,,,1,705,,,,,,,,,,,,,,,,,U,132,triangle,1,0,,,,,,,,,,,,,,,,switch,letter,lettSwt,f,1.523,Lo,,,,,,0,,,,,,,,high,24,0,24,0,1,,,,,,,,,
292507,2022-11-30_23h37.31.597,vts_reward_expectancy_bt,2022.2.4,MacIntel,60.0024001,Chrome,1470,956,,,,,0,705,,,,,,,,,,,,,,,,,W,181,circle,1,0,,,,,,,,,,,,,,,,switch,number,numSwt,k,1.2054,Hi,,,,,,0,,,,,,,,high,25,0,25,0,1,,,,,,,,,
292507,2022-11-30_23h37.31.597,vts_reward_expectancy_bt,2022.2.4,MacIntel,60.0024001,Chrome,1470,956,,,,,10,715,,,,,,,,,,,,,,,,,S,174,hexagon,1,0,,,,,,,,,,,,,,,,repeat,number,numRpt,k,0.6116,Hi,,,,,,0,,,,,,,,high,26,0,26,0,1,,,,,,,,,
292507,2022-11-30_23h37.31.597,vts_reward_expectancy_bt,2022.2.4,MacIntel,60.0024001,Chrome,1470,956,,,,,1,716,,,,,,,,,,,,,,,,,D,167,star,1,0,,,,,,,,,,,,,,,,repeat,number,numRpt,k,0.5642,Lo,,,,,,0,,,,,,,,high,27,0,27,0,1,,,,,,,,,
292507,2022-11-30_23h37.31.597,vts_reward_expectancy_bt,2022.2.4,MacIntel,60.0024001,Chrome,1470,956,,,,,10,726,,,,,,,,,,,,,,,,,F,146,hexagon,1,0,,,,,,,,,,,,,,,,repeat,number,numRpt,j,0.6496,Hi,,,,,,0,,,,,,,,high,28,0,28,0,1,,,,,,,,,
292507,2022-11-30_23h37.31.597,vts_reward_expectancy_bt,2022.2.4,MacIntel,60.0024001,Chrome,1470,956,,,,,10,736,,,,,,,,,,,,,,,,,B,160,triangle,1,0,,,,,,,,,,,,,,,,repeat,number,numRpt,k,0.5376,Lo,,,,,,0,,,,,,,,high,29,0,29,0,1,,,,,,,,,
292507,2022-11-30_23h37.31.597,vts_reward_expectancy_bt,2022.2.4,MacIntel,60.0024001,Chrome,1470,956,,,,,1,737,,,,,,,,,,,,,,,,,H,139,circle,1,0,,,,,,,,,,,,,,,,repeat,number,numRpt,j,0.818,Hi,,,,,,0,,,,,,,,high,30,0,30,0,1,,,,,,,,,
292507,2022-11-30_23h37.31.597,vts_reward_expectancy_bt,2022.2.4,MacIntel,60.0024001,Chrome,1470,956,,,,,0,737,,,,,,,,,,,,,,,,,Y,125,star,0,0,,,,,,,,,,,,,,,,repeat,number,NA,k,0.4347,Hi,,,,,,0,,,,,,,,high,31,0,31,0,1,,,,,,,,,
292507,2022-11-30_23h37.31.597,vts_reward_expectancy_bt,2022.2.4,MacIntel,60.0024001,Chrome,1470,956,,,,,10,747,,,,,,,,,,,,,,,,,W,132,star,1,1,,,,,,,,,,,,,,,,repeat,number,numRpt,j,0.8965,Lo,,,,,,1,,,,,,space,3.0395,high,0,0,0,0,1,,,,,,,,,
292507,2022-11-30_23h37.31.597,vts_reward_expectancy_bt,2022.2.4,MacIntel,60.0024001,Chrome,1470,956,,,,,10,757,,,,,,,,,,,,,,,,,D,146,circle,1,0,,,,,,,,,,,,,,,,repeat,number,numRpt,j,0.7614,Hi,,,,,,1,,,,,,,,high,1,0,1,0,1,,,,,,,,,
292507,2022-11-30_23h37.31.597,vts_reward_expectancy_bt,2022.2.4,MacIntel,60.0024001,Chrome,1470,956,,,,,1,758,,,,,,,,,,,,,,,,,B,181,triangle,1,0,,,,,,,,,,,,,,,,repeat,number,numRpt,k,0.6904,Lo,,,,,,1,,,,,,,,high,2,0,2,0,1,,,,,,,,,
292507,2022-11-30_23h37.31.597,vts_reward_expectancy_bt,2022.2.4,MacIntel,60.0024001,Chrome,1470,956,,,,,0,758,,,,,,,,,,,,,,,,,S,125,hexagon,1,0,,,,,,,,,,,,,,,,repeat,number,numRpt,j,0.9051,Hi,,,,,,1,,,,,,,,high,3,0,3,0,1,,,,,,,,,
292507,2022-11-30_23h37.31.597,vts_reward_expectancy_bt,2022.2.4,MacIntel,60.0024001,Chrome,1470,956,,,,,1,759,,,,,,,,,,,,,,,,,Y,167,star,1,0,,,,,,,,,,,,,,,,repeat,number,numRpt,k,0.6387,Lo,,,,,,1,,,,,,,,high,4,0,4,0,1,,,,,,,,,
292507,2022-11-30_23h37.31.597,vts_reward_expectancy_bt,2022.2.4,MacIntel,60.0024001,Chrome,1470,956,,,,,10,769,,,,,,,,,,,,,,,,,H,139,circle,1,0,,,,,,,,,,,,,,,,repeat,number,numRpt,j,0.6227,Hi,,,,,,1,,,,,,,,high,5,0,5,0,1,,,,,,,,,
292507,2022-11-30_23h37.31.597,vts_reward_expectancy_bt,2022.2.4,MacIntel,60.0024001,Chrome,1470,956,,,,,1,770,,,,,,,,,,,,,,,,,U,174,triangle,1,0,,,,,,,,,,,,,,,,repeat,number,numRpt,k,0.5694,Lo,,,,,,1,,,,,,,,high,6,0,6,0,1,,,,,,,,,
292507,2022-11-30_23h37.31.597,vts_reward_expectancy_bt,2022.2.4,MacIntel,60.0024001,Chrome,1470,956,,,,,0,770,,,,,,,,,,,,,,,,,F,160,hexagon,0,0,,,,,,,,,,,,,,,,repeat,number,NA,j,0.5806,Lo,,,,,,1,,,,,,,,high,7,0,7,0,1,,,,,,,,,
292507,2022-11-30_23h37.31.597,vts_reward_expectancy_bt,2022.2.4,MacIntel,60.0024001,Chrome,1470,956,,,,,0,770,,,,,,,,,,,,,,,,,W,132,circle,1,1,,,,,,,,,,,,,,,,repeat,number,numRpt,j,1.0807,Hi,,,,,,1,,,,,,,,high,8,0,8,0,1,,,,,,,,,
292507,2022-11-30_23h37.31.597,vts_reward_expectancy_bt,2022.2.4,MacIntel,60.0024001,Chrome,1470,956,,,,,1,771,,,,,,,,,,,,,,,,,D,146,triangle,1,0,,,,,,,,,,,,,,,,repeat,number,numRpt,j,0.9615,Lo,,,,,,1,,,,,,,,high,9,0,9,0,1,,,,,,,,,
292507,2022-11-30_23h37.31.597,vts_reward_expectancy_bt,2022.2.4,MacIntel,60.0024001,Chrome,1470,956,,,,,1,772,,,,,,,,,,,,,,,,,B,181,star,1,0,,,,,,,,,,,,,,,,repeat,number,numRpt,k,0.6838,Lo,,,,,,1,,,,,,,,high,10,0,10,0,1,,,,,,,,,
292507,2022-11-30_23h37.31.597,vts_reward_expectancy_bt,2022.2.4,MacIntel,60.0024001,Chrome,1470,956,,,,,0,772,,,,,,,,,,,,,,,,,S,125,hexagon,1,0,,,,,,,,,,,,,,,,repeat,number,numRpt,j,1.3021,Hi,,,,,,1,,,,,,,,high,11,0,11,0,1,,,,,,,,,
292507,2022-11-30_23h37.31.597,vts_reward_expectancy_bt,2022.2.4,MacIntel,60.0024001,Chrome,1470,956,,,,,0,772,,,,,,,,,,,,,,,,,Y,167,circle,1,0,,,,,,,,,,,,,,,,repeat,number,numRpt,k,0.8985,Hi,,,,,,1,,,,,,,,high,12,0,12,0,1,,,,,,,,,
292507,2022-11-30_23h37.31.597,vts_reward_expectancy_bt,2022.2.4,MacIntel,60.0024001,Chrome,1470,956,,,,,1,773,,,,,,,,,,,,,,,,,H,139,star,1,0,,,,,,,,,,,,,,,,repeat,number,numRpt,j,0.7128,Lo,,,,,,1,,,,,,,,high,13,0,13,0,1,,,,,,,,,
292507,2022-11-30_23h37.31.597,vts_reward_expectancy_bt,2022.2.4,MacIntel,60.0024001,Chrome,1470,956,,,,,10,783,,,,,,,,,,,,,,,,,U,174,triangle,1,0,,,,,,,,,,,,,,,,switch,letter,lettSwt,f,1.4876,Lo,,,,,,1,,,,,,,,high,14,0,14,0,1,,,,,,,,,
292507,2022-11-30_23h37.31.597,vts_reward_expectancy_bt,2022.2.4,MacIntel,60.0024001,Chrome,1470,956,,,,,10,793,,,,,,,,,,,,,,,,,F,160,hexagon,1,0,,,,,,,,,,,,,,,,repeat,letter,lettRpt,d,0.7662,Hi,,,,,,1,,,,,,,,high,15,0,15,0,1,,,,,,,,,
292507,2022-11-30_23h37.31.597,vts_reward_expectancy_bt,2022.2.4,MacIntel,60.0024001,Chrome,1470,956,,,,,1,794,,,,,,,,,,,,,,,,,B,132,triangle,1,0,,,,,,,,,,,,,,,,repeat,letter,lettRpt,d,0.8976,Lo,,,,,,1,,,,,,,,high,16,0,16,0,1,,,,,,,,,
292507,2022-11-30_23h37.31.597,vts_reward_expectancy_bt,2022.2.4,MacIntel,60.0024001,Chrome,1470,956,,,,,0,794,,,,,,,,,,,,,,,,,Y,181,hexagon,1,0,,,,,,,,,,,,,,,,switch,number,numSwt,k,1.1123,Hi,,,,,,1,,,,,,,,high,17,0,17,0,1,,,,,,,,,
292507,2022-11-30_23h37.31.597,vts_reward_expectancy_bt,2022.2.4,MacIntel,60.0024001,Chrome,1470,956,,,,,1,795,,,,,,,,,,,,,,,,,H,160,star,1,0,,,,,,,,,,,,,,,,repeat,number,numRpt,k,0.5637,Lo,,,,,,1,,,,,,,,high,18,0,18,0,1,,,,,,,,,
292507,2022-11-30_23h37.31.597,vts_reward_expectancy_bt,2022.2.4,MacIntel,60.0024001,Chrome,1470,956,,,,,10,805,,,,,,,,,,,,,,,,,D,167,circle,1,0,,,,,,,,,,,,,,,,switch,letter,lettSwt,d,0.7814,Hi,,,,,,1,,,,,,,,high,19,0,19,0,1,,,,,,,,,
292507,2022-11-30_23h37.31.597,vts_reward_expectancy_bt,2022.2.4,MacIntel,60.0024001,Chrome,1470,956,,,,,1,806,,,,,,,,,,,,,,,,,F,146,triangle,1,0,,,,,,,,,,,,,,,,repeat,letter,lettRpt,d,0.6213,Lo,,,,,,1,,,,,,,,high,20,0,20,0,1,,,,,,,,,
292507,2022-11-30_23h37.31.597,vts_reward_expectancy_bt,2022.2.4,MacIntel,60.0024001,Chrome,1470,956,,,,,10,816,,,,,,,,,,,,,,,,,W,174,circle,1,0,,,,,,,,,,,,,,,,repeat,letter,lettRpt,f,0.897,Hi,,,,,,1,,,,,,,,high,21,0,21,0,1,,,,,,,,,
292507,2022-11-30_23h37.31.597,vts_reward_expectancy_bt,2022.2.4,MacIntel,60.0024001,Chrome,1470,956,,,,,0,816,,,,,,,,,,,,,,,,,S,125,star,0,0,,,,,,,,,,,,,,,,repeat,letter,NA,d,1.3207,Hi,,,,,,1,,,,,,,,high,22,0,22,0,1,,,,,,,,,
292507,2022-11-30_23h37.31.597,vts_reward_expectancy_bt,2022.2.4,MacIntel,60.0024001,Chrome,1470,956,,,,,10,826,,,,,,,,,,,,,,,,,U,139,hexagon,1,1,,,,,,,,,,,,,,,,repeat,letter,lettRpt,f,0.7873,Hi,,,,,,1,,,,,,,,high,23,0,23,0,1,,,,,,,,,
292507,2022-11-30_23h37.31.597,vts_reward_expectancy_bt,2022.2.4,MacIntel,60.0024001,Chrome,1470,956,,,,,1,827,,,,,,,,,,,,,,,,,S,160,triangle,1,0,,,,,,,,,,,,,,,,repeat,letter,lettRpt,f,0.814,Lo,,,,,,1,,,,,,,,high,24,0,24,0,1,,,,,,,,,
292507,2022-11-30_23h37.31.597,vts_reward_expectancy_bt,2022.2.4,MacIntel,60.0024001,Chrome,1470,956,,,,,1,828,,,,,,,,,,,,,,,,,U,167,star,1,0,,,,,,,,,,,,,,,,repeat,letter,lettRpt,f,0.7143,Lo,,,,,,1,,,,,,,,high,25,0,25,0,1,,,,,,,,,
292507,2022-11-30_23h37.31.597,vts_reward_expectancy_bt,2022.2.4,MacIntel,60.0024001,Chrome,1470,956,,,,,0,828,,,,,,,,,,,,,,,,,D,125,circle,1,0,,,,,,,,,,,,,,,,switch,number,numSwt,j,0.8139,Hi,,,,,,1,,,,,,,,high,26,0,26,0,1,,,,,,,,,
292507,2022-11-30_23h37.31.597,vts_reward_expectancy_bt,2022.2.4,MacIntel,60.0024001,Chrome,1470,956,,,,,10,838,,,,,,,,,,,,,,,,,H,181,hexagon,1,0,,,,,,,,,,,,,,,,repeat,number,numRpt,k,0.4713,Hi,,,,,,1,,,,,,,,high,27,0,27,0,1,,,,,,,,,
292507,2022-11-30_23h37.31.597,vts_reward_expectancy_bt,2022.2.4,MacIntel,60.0024001,Chrome,1470,956,,,,,10,848,,,,,,,,,,,,,,,,,Y,132,triangle,1,0,,,,,,,,,,,,,,,,repeat,number,numRpt,j,0.8628,Lo,,,,,,1,,,,,,,,high,28,0,28,0,1,,,,,,,,,
292507,2022-11-30_23h37.31.597,vts_reward_expectancy_bt,2022.2.4,MacIntel,60.0024001,Chrome,1470,956,,,,,0,848,,,,,,,,,,,,,,,,,F,174,hexagon,1,0,,,,,,,,,,,,,,,,repeat,number,numRpt,k,0.8861,Hi,,,,,,1,,,,,,,,high,29,0,29,0,1,,,,,,,,,
292507,2022-11-30_23h37.31.597,vts_reward_expectancy_bt,2022.2.4,MacIntel,60.0024001,Chrome,1470,956,,,,,0,848,,,,,,,,,,,,,,,,,W,139,circle,1,0,,,,,,,,,,,,,,,,repeat,number,numRpt,j,0.917,Hi,,,,,,1,,,,,,,,high,30,0,30,0,1,,,,,,,,,
292507,2022-11-30_23h37.31.597,vts_reward_expectancy_bt,2022.2.4,MacIntel,60.0024001,Chrome,1470,956,,,,,1,849,,,,,,,,,,,,,,,,,B,146,star,1,0,,,,,,,,,,,,,,,,repeat,number,numRpt,j,0.4341,Lo,,,,,,1,,,,,,,,high,31,0,31,0,1,,,,,,,,,
292507,2022-11-30_23h37.31.597,vts_reward_expectancy_bt,2022.2.4,MacIntel,60.0024001,Chrome,1470,956,,,,,10,859,,,,,,,,,,,,,,,,,D,125,triangle,1,0,,,,,,,,,,,,,,,,switch,letter,lettSwt,d,0.6624,Lo,,,,,,2,,,,,,space,3.9261,high,0,0,0,0,1,,,,,,,,,
292507,2022-11-30_23h37.31.597,vts_reward_expectancy_bt,2022.2.4,MacIntel,60.0024001,Chrome,1470,956,,,,,0,859,,,,,,,,,,,,,,,,,U,160,hexagon,1,0,,,,,,,,,,,,,,,,repeat,letter,lettRpt,f,0.8037,Hi,,,,,,2,,,,,,,,high,1,0,1,0,1,,,,,,,,,
292507,2022-11-30_23h37.31.597,vts_reward_expectancy_bt,2022.2.4,MacIntel,60.0024001,Chrome,1470,956,,,,,10,869,,,,,,,,,,,,,,,,,H,132,star,1,0,,,,,,,,,,,,,,,,repeat,letter,lettRpt,d,0.7223,Lo,,,,,,2,,,,,,,,high,2,0,2,0,1,,,,,,,,,
292507,2022-11-30_23h37.31.597,vts_reward_expectancy_bt,2022.2.4,MacIntel,60.0024001,Chrome,1470,956,,,,,0,869,,,,,,,,,,,,,,,,,S,167,circle,1,0,,,,,,,,,,,,,,,,switch,number,numSwt,k,2.6687,Hi,,,,,,2,,,,,,,,high,3,0,3,0,1,,,,,,,,,
292507,2022-11-30_23h37.31.597,vts_reward_expectancy_bt,2022.2.4,MacIntel,60.0024001,Chrome,1470,956,,,,,1,870,,,,,,,,,,,,,,,,,F,181,triangle,1,0,,,,,,,,,,,,,,,,switch,letter,lettSwt,d,0.7152,Lo,,,,,,2,,,,,,,,high,4,0,4,0,1,,,,,,,,,
292507,2022-11-30_23h37.31.597,vts_reward_expectancy_bt,2022.2.4,MacIntel,60.0024001,Chrome,1470,956,,,,,0,870,,,,,,,,,,,,,,,,,W,139,hexagon,0,0,,,,,,,,,,,,,,,,repeat,letter,NA,d,0.6447,Lo,,,,,,2,,,,,,,,high,5,0,5,0,1,,,,,,,,,
292507,2022-11-30_23h37.31.597,vts_reward_expectancy_bt,2022.2.4,MacIntel,60.0024001,Chrome,1470,956,,,,,1,871,,,,,,,,,,,,,,,,,B,174,star,1,1,,,,,,,,,,,,,,,,repeat,letter,lettRpt,d,0.338,Lo,,,,,,2,,,,,,,,high,6,0,6,0,1,,,,,,,,,
292507,2022-11-30_23h37.31.597,vts_reward_expectancy_bt,2022.2.4,MacIntel,60.0024001,Chrome,1470,956,,,,,0,871,,,,,,,,,,,,,,,,,Y,146,circle,0,0,,,,,,,,,,,,,,,,switch,number,NA,k,0.0437,Lo,,,,,,2,,,,,,,,high,7,0,7,0,1,,,,,,,,,
292507,2022-11-30_23h37.31.597,vts_reward_expectancy_bt,2022.2.4,MacIntel,60.0024001,Chrome,1470,956,,,,,1,872,,,,,,,,,,,,,,,,,D,125,star,1,1,,,,,,,,,,,,,,,,repeat,number,numRpt,j,0.2007,Lo,,,,,,2,,,,,,,,high,8,0,8,0,1,,,,,,,,,
292507,2022-11-30_23h37.31.597,vts_reward_expectancy_bt,2022.2.4,MacIntel,60.0024001,Chrome,1470,956,,,,,0,872,,,,,,,,,,,,,,,,,U,160,hexagon,0,0,,,,,,,,,,,,,,,,switch,letter,NA,d,0.0013,Lo,,,,,,2,,,,,,,,high,9,0,9,0,1,,,,,,,,,
292507,2022-11-30_23h37.31.597,vts_reward_expectancy_bt,2022.2.4,MacIntel,60.0024001,Chrome,1470,956,,,,,1,873,,,,,,,,,,,,,,,,,H,132,triangle,1,1,,,,,,,,,,,,,,,,switch,number,numSwt,j,0.0876,Lo,,,,,,2,,,,,,,,high,10,0,10,0,1,,,,,,,,,
292507,2022-11-30_23h37.31.597,vts_reward_expectancy_bt,2022.2.4,MacIntel,60.0024001,Chrome,1470,956,,,,,0,873,,,,,,,,,,,,,,,,,S,167,circle,0,0,,,,,,,,,,,,,,,,repeat,number,NA,j,0.0969,Lo,,,,,,2,,,,,,,,high,11,0,11,0,1,,,,,,,,,
292507,2022-11-30_23h37.31.597,vts_reward_expectancy_bt,2022.2.4,MacIntel,60.0024001,Chrome,1470,956,,,,,0,873,,,,,,,,,,,,,,,,,F,181,hexagon,0,1,,,,,,,,,,,,,,,,repeat,number,NA,j,0.198,Lo,,,,,,2,,,,,,,,high,12,0,12,0,1,,,,,,,,,
292507,2022-11-30_23h37.31.597,vts_reward_expectancy_bt,2022.2.4,MacIntel,60.0024001,Chrome,1470,956,,,,,1,874,,,,,,,,,,,,,,,,,W,139,star,1,1,,,,,,,,,,,,,,,,repeat,number,numRpt,j,0.0898,Lo,,,,,,2,,,,,,,,high,13,0,13,0,1,,,,,,,,,
292507,2022-11-30_23h37.31.597,vts_reward_expectancy_bt,2022.2.4,MacIntel,60.0024001,Chrome,1470,956,,,,,1,875,,,,,,,,,,,,,,,,,B,174,triangle,1,0,,,,,,,,,,,,,,,,switch,letter,lettSwt,d,0.4312,Lo,,,,,,2,,,,,,,,high,14,0,14,0,1,,,,,,,,,
292507,2022-11-30_23h37.31.597,vts_reward_expectancy_bt,2022.2.4,MacIntel,60.0024001,Chrome,1470,956,,,,,0,875,,,,,,,,,,,,,,,,,Y,146,circle,0,0,,,,,,,,,,,,,,,,repeat,letter,NA,d,0.2469,Lo,,,,,,2,,,,,,,,high,15,0,15,0,1,,,,,,,,,
292507,2022-11-30_23h37.31.597,vts_reward_expectancy_bt,2022.2.4,MacIntel,60.0024001,Chrome,1470,956,,,,,10,885,,,,,,,,,,,,,,,,,B,146,triangle,1,1,,,,,,,,,,,,,,,,repeat,letter,lettRpt,d,0.3822,Lo,,,,,,2,,,,,,,,high,16,0,16,0,1,,,,,,,,,
292507,2022-11-30_23h37.31.597,vts_reward_expectancy_bt,2022.2.4,MacIntel,60.0024001,Chrome,1470,956,,,,,1,886,,,,,,,,,,,,,,,,,F,125,circle,1,0,,,,,,,,,,,,,,,,repeat,letter,lettRpt,d,0.3688,Hi,,,,,,2,,,,,,,,high,17,0,17,0,1,,,,,,,,,
292507,2022-11-30_23h37.31.597,vts_reward_expectancy_bt,2022.2.4,MacIntel,60.0024001,Chrome,1470,956,,,,,0,886,,,,,,,,,,,,,,,,,D,174,star,0,0,,,,,,,,,,,,,,,,repeat,letter,NA,f,1.0036,Hi,,,,,,2,,,,,,,,high,18,0,18,0,1,,,,,,,,,
292507,2022-11-30_23h37.31.597,vts_reward_expectancy_bt,2022.2.4,MacIntel,60.0024001,Chrome,1470,956,,,,,0,886,,,,,,,,,,,,,,,,,H,167,hexagon,0,1,,,,,,,,,,,,,,,,switch,number,NA,j,0.1387,Hi,,,,,,2,,,,,,,,high,19,0,19,0,1,,,,,,,,,
292507,2022-11-30_23h37.31.597,vts_reward_expectancy_bt,2022.2.4,MacIntel,60.0024001,Chrome,1470,956,,,,,0,886,,,,,,,,,,,,,,,,,U,139,circle,0,1,,,,,,,,,,,,,,,,repeat,number,NA,k,0.1317,Hi,,,,,,2,,,,,,,,high,20,0,20,0,1,,,,,,,,,
292507,2022-11-30_23h37.31.597,vts_reward_expectancy_bt,2022.2.4,MacIntel,60.0024001,Chrome,1470,956,,,,,0,886,,,,,,,,,,,,,,,,,Y,132,star,0,1,,,,,,,,,,,,,,,,repeat,number,NA,k,0.2344,Hi,,,,,,2,,,,,,,,high,21,0,21,0,1,,,,,,,,,
292507,2022-11-30_23h37.31.597,vts_reward_expectancy_bt,2022.2.4,MacIntel,60.0024001,Chrome,1470,956,,,,,0,886,,,,,,,,,,,,,,,,,S,160,triangle,0,1,,,,,,,,,,,,,,,,switch,letter,NA,d,0.2223,Hi,,,,,,2,,,,,,,,high,22,0,22,0,1,,,,,,,,,
292507,2022-11-30_23h37.31.597,vts_reward_expectancy_bt,2022.2.4,MacIntel,60.0024001,Chrome,1470,956,,,,,10,896,,,,,,,,,,,,,,,,,W,181,hexagon,1,1,,,,,,,,,,,,,,,,repeat,letter,lettRpt,f,0.3223,Hi,,,,,,2,,,,,,,,high,23,0,23,0,1,,,,,,,,,
292507,2022-11-30_23h37.31.597,vts_reward_expectancy_bt,2022.2.4,MacIntel,60.0024001,Chrome,1470,956,,,,,0,896,,,,,,,,,,,,,,,,,F,167,hexagon,1,0,,,,,,,,,,,,,,,,repeat,letter,lettRpt,d,0.9125,Hi,,,,,,2,,,,,,,,high,24,0,24,0,1,,,,,,,,,
292507,2022-11-30_23h37.31.597,vts_reward_expectancy_bt,2022.2.4,MacIntel,60.0024001,Chrome,1470,956,,,,,1,897,,,,,,,,,,,,,,,,,U,160,triangle,1,0,,,,,,,,,,,,,,,,switch,number,numSwt,k,0.4133,Lo,,,,,,2,,,,,,,,high,25,0,25,0,1,,,,,,,,,
292507,2022-11-30_23h37.31.597,vts_reward_expectancy_bt,2022.2.4,MacIntel,60.0024001,Chrome,1470,956,,,,,0,897,,,,,,,,,,,,,,,,,S,125,star,0,0,,,,,,,,,,,,,,,,repeat,number,NA,k,0.1638,Lo,,,,,,2,,,,,,,,high,26,0,26,0,1,,,,,,,,,
292507,2022-11-30_23h37.31.597,vts_reward_expectancy_bt,2022.2.4,MacIntel,60.0024001,Chrome,1470,956,,,,,0,897,,,,,,,,,,,,,,,,,B,139,circle,0,1,,,,,,,,,,,,,,,,repeat,number,NA,k,0.1969,Lo,,,,,,2,,,,,,,,high,27,0,27,0,1,,,,,,,,,
292507,2022-11-30_23h37.31.597,vts_reward_expectancy_bt,2022.2.4,MacIntel,60.0024001,Chrome,1470,956,,,,,0,897,,,,,,,,,,,,,,,,,Y,132,circle,0,1,,,,,,,,,,,,,,,,repeat,number,NA,k,0.1319,Lo,,,,,,2,,,,,,,,high,28,0,28,0,1,,,,,,,,,
292507,2022-11-30_23h37.31.597,vts_reward_expectancy_bt,2022.2.4,MacIntel,60.0024001,Chrome,1470,956,,,,,1,898,,,,,,,,,,,,,,,,,H,174,triangle,1,1,,,,,,,,,,,,,,,,repeat,number,numRpt,k,0.1214,Lo,,,,,,2,,,,,,,,high,29,0,29,0,1,,,,,,,,,
292507,2022-11-30_23h37.31.597,vts_reward_expectancy_bt,2022.2.4,MacIntel,60.0024001,Chrome,1470,956,,,,,0,898,,,,,,,,,,,,,,,,,W,146,hexagon,0,0,,,,,,,,,,,,,,,,repeat,number,NA,k,0.1617,Lo,,,,,,2,,,,,,,,high,30,0,30,0,1,,,,,,,,,
292507,2022-11-30_23h37.31.597,vts_reward_expectancy_bt,2022.2.4,MacIntel,60.0024001,Chrome,1470,956,,,,,1,899,,,,,,,,,,,,,,,,,D,181,star,1,1,,,,,,,,,,,,,,,,repeat,number,numRpt,k,0.1628,Lo,,,,,,2,,,,,,,,high,31,0,31,0,1,,,,,,,,,
292507,2022-11-30_23h37.31.597,vts_reward_expectancy_bt,2022.2.4,MacIntel,60.0024001,Chrome,1470,956,,,,,0,899,,,,,,,,,,,,,,,,,H,167,hexagon,0,0,,,,,,,,,,,,,,,,repeat,number,NA,j,0.4017,Lo,,,,,,3,,,,,,space,6.0652,high,0,0,0,0,1,,,,,,,,,
292507,2022-11-30_23h37.31.597,vts_reward_expectancy_bt,2022.2.4,MacIntel,60.0024001,Chrome,1470,956,,,,,1,900,,,,,,,,,,,,,,,,,F,125,star,1,1,,,,,,,,,,,,,,,,repeat,number,numRpt,j,0.1022,Lo,,,,,,3,,,,,,,,high,1,0,1,0,1,,,,,,,,,
292507,2022-11-30_23h37.31.597,vts_reward_expectancy_bt,2022.2.4,MacIntel,60.0024001,Chrome,1470,956,,,,,0,900,,,,,,,,,,,,,,,,,D,160,triangle,0,0,,,,,,,,,,,,,,,,repeat,number,NA,j,0.0273,Lo,,,,,,3,,,,,,,,high,2,0,2,0,1,,,,,,,,,
292507,2022-11-30_23h37.31.597,vts_reward_expectancy_bt,2022.2.4,MacIntel,60.0024001,Chrome,1470,956,,,,,0,900,,,,,,,,,,,,,,,,,U,146,circle,1,1,,,,,,,,,,,,,,,,repeat,number,numRpt,j,0.1806,Hi,,,,,,3,,,,,,,,high,3,0,3,0,1,,,,,,,,,
292507,2022-11-30_23h37.31.597,vts_reward_expectancy_bt,2022.2.4,MacIntel,60.0024001,Chrome,1470,956,,,,,0,900,,,,,,,,,,,,,,,,,W,174,hexagon,0,0,,,,,,,,,,,,,,,,repeat,number,NA,j,0.0969,Hi,,,,,,3,,,,,,,,high,4,0,4,0,1,,,,,,,,,
292507,2022-11-30_23h37.31.597,vts_reward_expectancy_bt,2022.2.4,MacIntel,60.0024001,Chrome,1470,956,,,,,10,910,,,,,,,,,,,,,,,,,S,139,star,1,1,,,,,,,,,,,,,,,,repeat,number,numRpt,j,0.2194,Lo,,,,,,3,,,,,,,,high,5,0,5,0,1,,,,,,,,,
292507,2022-11-30_23h37.31.597,vts_reward_expectancy_bt,2022.2.4,MacIntel,60.0024001,Chrome,1470,956,,,,,1,911,,,,,,,,,,,,,,,,,B,132,triangle,1,0,,,,,,,,,,,,,,,,repeat,number,numRpt,j,0.7132,Lo,,,,,,3,,,,,,,,high,6,0,6,0,1,,,,,,,,,
292507,2022-11-30_23h37.31.597,vts_reward_expectancy_bt,2022.2.4,MacIntel,60.0024001,Chrome,1470,956,,,,,10,921,,,,,,,,,,,,,,,,,Y,181,circle,1,0,,,,,,,,,,,,,,,,repeat,number,numRpt,k,0.0123,Hi,,,,,,3,,,,,,,,high,7,0,7,0,1,,,,,,,,,
292507,2022-11-30_23h37.31.597,vts_reward_expectancy_bt,2022.2.4,MacIntel,60.0024001,Chrome,1470,956,,,,,1,922,,,,,,,,,,,,,,,,,H,167,star,1,0,,,,,,,,,,,,,,,,repeat,number,numRpt,k,0.2625,Lo,,,,,,3,,,,,,,,high,8,0,8,0,1,,,,,,,,,
292507,2022-11-30_23h37.31.597,vts_reward_expectancy_bt,2022.2.4,MacIntel,60.0024001,Chrome,1470,956,,,,,0,922,,,,,,,,,,,,,,,,,F,125,hexagon,0,0,,,,,,,,,,,,,,,,repeat,number,NA,k,0.1847,Lo,,,,,,3,,,,,,,,high,9,0,9,0,1,,,,,,,,,
292507,2022-11-30_23h37.31.597,vts_reward_expectancy_bt,2022.2.4,MacIntel,60.0024001,Chrome,1470,956,,,,,1,923,,,,,,,,,,,,,,,,,D,160,triangle,1,1,,,,,,,,,,,,,,,,repeat,number,numRpt,k,0.0806,Lo,,,,,,3,,,,,,,,high,10,0,10,0,1,,,,,,,,,
292507,2022-11-30_23h37.31.597,vts_reward_expectancy_bt,2022.2.4,MacIntel,60.0024001,Chrome,1470,956,,,,,0,923,,,,,,,,,,,,,,,,,U,146,circle,1,0,,,,,,,,,,,,,,,,repeat,number,numRpt,j,0.1454,Hi,,,,,,3,,,,,,,,high,11,0,11,0,1,,,,,,,,,
292507,2022-11-30_23h37.31.597,vts_reward_expectancy_bt,2022.2.4,MacIntel,60.0024001,Chrome,1470,956,,,,,0,923,,,,,,,,,,,,,,,,,W,174,triangle,0,0,,,,,,,,,,,,,,,,repeat,number,NA,j,0.0524,Hi,,,,,,3,,,,,,,,high,12,0,12,0,1,,,,,,,,,
292507,2022-11-30_23h37.31.597,vts_reward_expectancy_bt,2022.2.4,MacIntel,60.0024001,Chrome,1470,956,,,,,0,923,,,,,,,,,,,,,,,,,S,139,star,-1,1,,,,,,,,,,,,,,,,switch,no_choice,NA,,,Hi,,,,,,3,,,,,,,,high,13,0,13,0,1,,,,,,,,,
292507,2022-11-30_23h37.31.597,vts_reward_expectancy_bt,2022.2.4,MacIntel,60.0024001,Chrome,1470,956,,,,,0,923,,,,,,,,,,,,,,,,,B,132,hexagon,-1,0,,,,,,,,,,,,,,,,repeat,no_choice,NA,,,Hi,,,,,,3,,,,,,,,high,14,0,14,0,1,,,,,,,,,
292507,2022-11-30_23h37.31.597,vts_reward_expectancy_bt,2022.2.4,MacIntel,60.0024001,Chrome,1470,956,,,,,0,923,,,,,,,,,,,,,,,,,Y,181,circle,-1,0,,,,,,,,,,,,,,,,repeat,no_choice,NA,,,Hi,,,,,,3,,,,,,,,high,15,0,15,0,1,,,,,,,,,
292507,2022-11-30_23h37.31.597,vts_reward_expectancy_bt,2022.2.4,MacIntel,60.0024001,Chrome,1470,956,,,,,0,923,,,,,,,,,,,,,,,,,B,181,triangle,-1,0,,,,,,,,,,,,,,,,repeat,no_choice,NA,,,Hi,,,,,,3,,,,,,,,high,16,0,16,0,1,,,,,,,,,
292507,2022-11-30_23h37.31.597,vts_reward_expectancy_bt,2022.2.4,MacIntel,60.0024001,Chrome,1470,956,,,,,0,923,,,,,,,,,,,,,,,,,H,139,star,-1,0,,,,,,,,,,,,,,,,repeat,no_choice,NA,,,Hi,,,,,,3,,,,,,,,high,17,0,17,0,1,,,,,,,,,
292507,2022-11-30_23h37.31.597,vts_reward_expectancy_bt,2022.2.4,MacIntel,60.0024001,Chrome,1470,956,,,,,0,923,,,,,,,,,,,,,,,,,Y,167,hexagon,-1,0,,,,,,,,,,,,,,,,repeat,no_choice,NA,,,Hi,,,,,,3,,,,,,,,high,18,0,18,0,1,,,,,,,,,
292507,2022-11-30_23h37.31.597,vts_reward_expectancy_bt,2022.2.4,MacIntel,60.0024001,Chrome,1470,956,,,,,0,923,,,,,,,,,,,,,,,,,W,174,circle,-1,0,,,,,,,,,,,,,,,,repeat,no_choice,NA,,,Hi,,,,,,3,,,,,,,,high,19,0,19,0,1,,,,,,,,,
292507,2022-11-30_23h37.31.597,vts_reward_expectancy_bt,2022.2.4,MacIntel,60.0024001,Chrome,1470,956,,,,,0,923,,,,,,,,,,,,,,,,,U,146,star,-1,0,,,,,,,,,,,,,,,,repeat,no_choice,NA,,,Hi,,,,,,3,,,,,,,,high,20,0,20,0,1,,,,,,,,,
292507,2022-11-30_23h37.31.597,vts_reward_expectancy_bt,2022.2.4,MacIntel,60.0024001,Chrome,1470,956,,,,,0,923,,,,,,,,,,,,,,,,,S,125,hexagon,-1,0,,,,,,,,,,,,,,,,repeat,no_choice,NA,,,Hi,,,,,,3,,,,,,,,high,21,0,21,0,1,,,,,,,,,
292507,2022-11-30_23h37.31.597,vts_reward_expectancy_bt,2022.2.4,MacIntel,60.0024001,Chrome,1470,956,,,,,0,923,,,,,,,,,,,,,,,,,F,160,circle,-1,0,,,,,,,,,,,,,,,,repeat,no_choice,NA,,,Hi,,,,,,3,,,,,,,,high,22,0,22,0,1,,,,,,,,,
292507,2022-11-30_23h37.31.597,vts_reward_expectancy_bt,2022.2.4,MacIntel,60.0024001,Chrome,1470,956,,,,,0,923,,,,,,,,,,,,,,,,,D,132,triangle,-1,0,,,,,,,,,,,,,,,,repeat,no_choice,NA,,,Hi,,,,,,3,,,,,,,,high,23,0,23,0,1,,,,,,,,,
292507,2022-11-30_23h37.31.597,vts_reward_expectancy_bt,2022.2.4,MacIntel,60.0024001,Chrome,1470,956,,,,,0,923,,,,,,,,,,,,,,,,,U,125,circle,1,0,,,,,,,,,,,,,,,,switch,number,numSwt,j,2.2977,Hi,,,,,,3,,,,,,,,high,24,0,24,0,1,,,,,,,,,
292507,2022-11-30_23h37.31.597,vts_reward_expectancy_bt,2022.2.4,MacIntel,60.0024001,Chrome,1470,956,,,,,1,924,,,,,,,,,,,,,,,,,D,132,star,1,0,,,,,,,,,,,,,,,,repeat,number,numRpt,j,0.1141,Lo,,,,,,3,,,,,,,,high,25,0,25,0,1,,,,,,,,,
292507,2022-11-30_23h37.31.597,vts_reward_expectancy_bt,2022.2.4,MacIntel,60.0024001,Chrome,1470,956,,,,,0,924,,,,,,,,,,,,,,,,,B,167,hexagon,-1,0,,,,,,,,,,,,,,,,switch,no_choice,NA,,,Lo,,,,,,3,,,,,,,,high,26,0,26,0,1,,,,,,,,,
292507,2022-11-30_23h37.31.597,vts_reward_expectancy_bt,2022.2.4,MacIntel,60.0024001,Chrome,1470,956,,,,,10,934,,,,,,,,,,,,,,,,,W,181,triangle,1,0,,,,,,,,,,,,,,,,switch,number,numSwt,k,0.916,Lo,,,,,,3,,,,,,,,high,27,0,27,0,1,,,,,,,,,
292507,2022-11-30_23h37.31.597,vts_reward_expectancy_bt,2022.2.4,MacIntel,60.0024001,Chrome,1470,956,,,,,0,934,,,,,,,,,,,,,,,,,F,160,hexagon,1,0,,,,,,,,,,,,,,,,repeat,number,numRpt,k,0.6631,Hi,,,,,,3,,,,,,,,high,28,0,28,0,1,,,,,,,,,
292507,2022-11-30_23h37.31.597,vts_reward_expectancy_bt,2022.2.4,MacIntel,60.0024001,Chrome,1470,956,,,,,1,935,,,,,,,,,,,,,,,,,S,139,star,1,0,,,,,,,,,,,,,,,,repeat,number,numRpt,j,0.8309,Lo,,,,,,3,,,,,,,,high,29,0,29,0,1,,,,,,,,,
292507,2022-11-30_23h37.31.597,vts_reward_expectancy_bt,2022.2.4,MacIntel,60.0024001,Chrome,1470,956,,,,,1,936,,,,,,,,,,,,,,,,,Y,174,triangle,1,0,,,,,,,,,,,,,,,,repeat,number,numRpt,k,1.882,Lo,,,,,,3,,,,,,,,high,30,0,30,0,1,,,,,,,,,
292507,2022-11-30_23h37.31.597,vts_reward_expectancy_bt,2022.2.4,MacIntel,60.0024001,Chrome,1470,956,,,,,0,936,,,,,,,,,,,,,,,,,H,146,circle,1,0,,,,,,,,,,,,,,,,repeat,number,numRpt,j,1.047,Hi,,,,,,3,,,,,,,,high,31,0,31,0,1,,,,,,,,,
292507,2022-11-30_23h37.31.597,vts_reward_expectancy_bt,2022.2.4,MacIntel,60.0024001,Chrome,1470,956,,,,,0,936,,,,,,,,,,,,,,,,,B,139,triangle,-1,0,,,,,,,,,,,,,,,,switch,no_choice,NA,,,Hi,,,,,,4,,,,,,space,1.4918,high,0,0,0,0,1,,,,,,,,,
292507,2022-11-30_23h37.31.597,vts_reward_expectancy_bt,2022.2.4,MacIntel,60.0024001,Chrome,1470,956,,,,,0,936,,,,,,,,,,,,,,,,,F,132,star,-1,0,,,,,,,,,,,,,,,,repeat,no_choice,NA,,,Hi,,,,,,4,,,,,,,,high,1,0,1,0,1,,,,,,,,,
292507,2022-11-30_23h37.31.597,vts_reward_expectancy_bt,2022.2.4,MacIntel,60.0024001,Chrome,1470,956,,,,,0,936,,,,,,,,,,,,,,,,,U,146,hexagon,-1,0,,,,,,,,,,,,,,,,repeat,no_choice,NA,,,Hi,,,,,,4,,,,,,,,high,2,0,2,0,1,,,,,,,,,
292507,2022-11-30_23h37.31.597,vts_reward_expectancy_bt,2022.2.4,MacIntel,60.0024001,Chrome,1470,956,,,,,0,936,,,,,,,,,,,,,,,,,D,181,circle,-1,0,,,,,,,,,,,,,,,,repeat,no_choice,NA,,,Hi,,,,,,4,,,,,,,,high,3,0,3,0,1,,,,,,,,,
292507,2022-11-30_23h37.31.597,vts_reward_expectancy_bt,2022.2.4,MacIntel,60.0024001,Chrome,1470,956,,,,,0,936,,,,,,,,,,,,,,,,,Y,167,triangle,-1,0,,,,,,,,,,,,,,,,repeat,no_choice,NA,,,Hi,,,,,,4,,,,,,,,high,4,0,4,0,1,,,,,,,,,
292507,2022-11-30_23h37.31.597,vts_reward_expectancy_bt,2022.2.4,MacIntel,60.0024001,Chrome,1470,956,,,,,0,936,,,,,,,,,,,,,,,,,W,125,star,-1,0,,,,,,,,,,,,,,,,repeat,no_choice,NA,,,Hi,,,,,,4,,,,,,,,high,5,0,5,0,1,,,,,,,,,
292507,2022-11-30_23h37.31.597,vts_reward_expectancy_bt,2022.2.4,MacIntel,60.0024001,Chrome,1470,956,,,,,0,936,,,,,,,,,,,,,,,,,S,174,hexagon,-1,0,,,,,,,,,,,,,,,,repeat,no_choice,NA,,,Hi,,,,,,4,,,,,,,,high,6,0,6,0,1,,,,,,,,,
292507,2022-11-30_23h37.31.597,vts_reward_expectancy_bt,2022.2.4,MacIntel,60.0024001,Chrome,1470,956,,,,,0,936,,,,,,,,,,,,,,,,,H,160,circle,-1,0,,,,,,,,,,,,,,,,repeat,no_choice,NA,,,Hi,,,,,,4,,,,,,,,high,7,0,7,0,1,,,,,,,,,
292507,2022-11-30_23h37.31.597,vts_reward_expectancy_bt,2022.2.4,MacIntel,60.0024001,Chrome,1470,956,,,,,0,936,,,,,,,,,,,,,,,,,B,139,circle,-1,0,,,,,,,,,,,,,,,,repeat,no_choice,NA,,,Hi,,,,,,4,,,,,,,,high,8,0,8,0,1,,,,,,,,,
292507,2022-11-30_23h37.31.597,vts_reward_expectancy_bt,2022.2.4,MacIntel,60.0024001,Chrome,1470,956,,,,,0,936,,,,,,,,,,,,,,,,,F,132,hexagon,-1,0,,,,,,,,,,,,,,,,repeat,no_choice,NA,,,Hi,,,,,,4,,,,,,,,high,9,0,9,0,1,,,,,,,,,
292507,2022-11-30_23h37.31.597,vts_reward_expectancy_bt,2022.2.4,MacIntel,60.0024001,Chrome,1470,956,,,,,0,936,,,,,,,,,,,,,,,,,U,146,star,-1,0,,,,,,,,,,,,,,,,repeat,no_choice,NA,,,Hi,,,,,,4,,,,,,,,high,10,0,10,0,1,,,,,,,,,
292507,2022-11-30_23h37.31.597,vts_reward_expectancy_bt,2022.2.4,MacIntel,60.0024001,Chrome,1470,956,,,,,0,936,,,,,,,,,,,,,,,,,D,181,triangle,-1,0,,,,,,,,,,,,,,,,repeat,no_choice,NA,,,Hi,,,,,,4,,,,,,,,high,11,0,11,0,1,,,,,,,,,
292507,2022-11-30_23h37.31.597,vts_reward_expectancy_bt,2022.2.4,MacIntel,60.0024001,Chrome,1470,956,,,,,0,936,,,,,,,,,,,,,,,,,Y,167,triangle,-1,0,,,,,,,,,,,,,,,,repeat,no_choice,NA,,,Hi,,,,,,4,,,,,,,,high,12,0,12,0,1,,,,,,,,,
292507,2022-11-30_23h37.31.597,vts_reward_expectancy_bt,2022.2.4,MacIntel,60.0024001,Chrome,1470,956,,,,,0,936,,,,,,,,,,,,,,,,,W,125,star,-1,0,,,,,,,,,,,,,,,,repeat,no_choice,NA,,,Hi,,,,,,4,,,,,,,,high,13,0,13,0,1,,,,,,,,,
292507,2022-11-30_23h37.31.597,vts_reward_expectancy_bt,2022.2.4,MacIntel,60.0024001,Chrome,1470,956,,,,,0,936,,,,,,,,,,,,,,,,,S,174,hexagon,-1,0,,,,,,,,,,,,,,,,repeat,no_choice,NA,,,Hi,,,,,,4,,,,,,,,high,14,0,14,0,1,,,,,,,,,
292507,2022-11-30_23h37.31.597,vts_reward_expectancy_bt,2022.2.4,MacIntel,60.0024001,Chrome,1470,956,,,,,0,936,,,,,,,,,,,,,,,,,H,160,circle,-1,0,,,,,,,,,,,,,,,,repeat,no_choice,NA,,,Hi,,,,,,4,,,,,,,,high,15,0,15,0,1,,,,,,,,,
292507,2022-11-30_23h37.31.597,vts_reward_expectancy_bt,2022.2.4,MacIntel,60.0024001,Chrome,1470,956,,,,,0,936,,,,,,,,,,,,,,,,,F,139,triangle,-1,0,,,,,,,,,,,,,,,,repeat,no_choice,NA,,,Hi,,,,,,4,,,,,,,,high,16,0,16,0,1,,,,,,,,,
292507,2022-11-30_23h37.31.597,vts_reward_expectancy_bt,2022.2.4,MacIntel,60.0024001,Chrome,1470,956,,,,,0,936,,,,,,,,,,,,,,,,,B,174,star,-1,0,,,,,,,,,,,,,,,,repeat,no_choice,NA,,,Hi,,,,,,4,,,,,,,,high,17,0,17,0,1,,,,,,,,,
292507,2022-11-30_23h37.31.597,vts_reward_expectancy_bt,2022.2.4,MacIntel,60.0024001,Chrome,1470,956,,,,,0,936,,,,,,,,,,,,,,,,,W,181,hexagon,-1,0,,,,,,,,,,,,,,,,repeat,no_choice,NA,,,Hi,,,,,,4,,,,,,,,high,18,0,18,0,1,,,,,,,,,
292507,2022-11-30_23h37.31.597,vts_reward_expectancy_bt,2022.2.4,MacIntel,60.0024001,Chrome,1470,956,,,,,0,936,,,,,,,,,,,,,,,,,H,132,circle,-1,0,,,,,,,,,,,,,,,,repeat,no_choice,NA,,,Hi,,,,,,4,,,,,,,,high,19,0,19,0,1,,,,,,,,,
292507,2022-11-30_23h37.31.597,vts_reward_expectancy_bt,2022.2.4,MacIntel,60.0024001,Chrome,1470,956,,,,,0,936,,,,,,,,,,,,,,,,,D,167,star,-1,0,,,,,,,,,,,,,,,,repeat,no_choice,NA,,,Hi,,,,,,4,,,,,,,,high,20,0,20,0,1,,,,,,,,,
292507,2022-11-30_23h37.31.597,vts_reward_expectancy_bt,2022.2.4,MacIntel,60.0024001,Chrome,1470,956,,,,,0,936,,,,,,,,,,,,,,,,,Y,146,hexagon,-1,0,,,,,,,,,,,,,,,,repeat,no_choice,NA,,,Hi,,,,,,4,,,,,,,,high,21,0,21,0,1,,,,,,,,,
292507,2022-11-30_23h37.31.597,vts_reward_expectancy_bt,2022.2.4,MacIntel,60.0024001,Chrome,1470,956,,,,,0,936,,,,,,,,,,,,,,,,,S,125,circle,-1,0,,,,,,,,,,,,,,,,repeat,no_choice,NA,,,Hi,,,,,,4,,,,,,,,high,22,0,22,0,1,,,,,,,,,
292507,2022-11-30_23h37.31.597,vts_reward_expectancy_bt,2022.2.4,MacIntel,60.0024001,Chrome,1470,956,,,,,0,936,,,,,,,,,,,,,,,,,U,160,triangle,-1,0,,,,,,,,,,,,,,,,repeat,no_choice,NA,,,Hi,,,,,,4,,,,,,,,high,23,0,23,0,1,,,,,,,,,
292507,2022-11-30_23h37.31.597,vts_reward_expectancy_bt,2022.2.4,MacIntel,60.0024001,Chrome,1470,956,,,,,0,936,,,,,,,,,,,,,,,,,S,167,star,-1,0,,,,,,,,,,,,,,,,repeat,no_choice,NA,,,Hi,,,,,,4,,,,,,,,high,24,0,24,0,1,,,,,,,,,
292507,2022-11-30_23h37.31.597,vts_reward_expectancy_bt,2022.2.4,MacIntel,60.0024001,Chrome,1470,956,,,,,0,936,,,,,,,,,,,,,,,,,B,160,hexagon,-1,0,,,,,,,,,,,,,,,,repeat,no_choice,NA,,,Hi,,,,,,4,,,,,,,,high,25,0,25,0,1,,,,,,,,,
292507,2022-11-30_23h37.31.597,vts_reward_expectancy_bt,2022.2.4,MacIntel,60.0024001,Chrome,1470,956,,,,,0,936,,,,,,,,,,,,,,,,,U,174,triangle,-1,0,,,,,,,,,,,,,,,,repeat,no_choice,NA,,,Hi,,,,,,4,,,,,,,,high,26,0,26,0,1,,,,,,,,,
292507,2022-11-30_23h37.31.597,vts_reward_expectancy_bt,2022.2.4,MacIntel,60.0024001,Chrome,1470,956,,,,,0,936,,,,,,,,,,,,,,,,,D,125,circle,-1,0,,,,,,,,,,,,,,,,repeat,no_choice,NA,,,Hi,,,,,,4,,,,,,,,high,27,0,27,0,1,,,,,,,,,
292507,2022-11-30_23h37.31.597,vts_reward_expectancy_bt,2022.2.4,MacIntel,60.0024001,Chrome,1470,956,,,,,0,936,,,,,,,,,,,,,,,,,Y,181,star,-1,0,,,,,,,,,,,,,,,,repeat,no_choice,NA,,,Hi,,,,,,4,,,,,,,,high,28,0,28,0,1,,,,,,,,,
292507,2022-11-30_23h37.31.597,vts_reward_expectancy_bt,2022.2.4,MacIntel,60.0024001,Chrome,1470,956,,,,,1,937,,,,,,,,,,,,,,,,,F,146,triangle,1,0,,,,,,,,,,,,,,,,switch,letter,lettSwt,d,1.768,Lo,,,,,,4,,,,,,,,high,29,0,29,0,1,,,,,,,,,
292507,2022-11-30_23h37.31.597,vts_reward_expectancy_bt,2022.2.4,MacIntel,60.0024001,Chrome,1470,956,,,,,1,938,,,,,,,,,,,,,,,,,W,132,hexagon,1,0,,,,,,,,,,,,,,,,repeat,letter,lettRpt,f,0.7471,Hi,,,,,,4,,,,,,,,high,30,0,30,0,1,,,,,,,,,
292507,2022-11-30_23h37.31.597,vts_reward_expectancy_bt,2022.2.4,MacIntel,60.0024001,Chrome,1470,956,,,,,10,948,,,,,,,,,,,,,,,,,H,139,circle,1,0,,,,,,,,,,,,,,,,repeat,letter,lettRpt,d,1.8817,Hi,,,,,,4,,,,,,,,high,31,0,31,0,1,,,,,,,,,
292507,2022-11-30_23h37.31.597,vts_reward_expectancy_bt,2022.2.4,MacIntel,60.0024001,Chrome,1470,956,,,,,1,949,,,,,,,,,,,,,,,,,Y,132,star,1,0,,,,,,,,,,,,,,,,repeat,letter,lettRpt,f,1.0634,Lo,,,,,,5,,,,,,space,1.1919,high,0,0,0,0,1,,,,,,,,,
292507,2022-11-30_23h37.31.597,vts_reward_expectancy_bt,2022.2.4,MacIntel,60.0024001,Chrome,1470,956,,,,,1,950,,,,,,,,,,,,,,,,,F,181,triangle,1,0,,,,,,,,,,,,,,,,repeat,letter,lettRpt,d,0.9198,Lo,,,,,,5,,,,,,,,high,1,0,1,0,1,,,,,,,,,
292507,2022-11-30_23h37.31.597,vts_reward_expectancy_bt,2022.2.4,MacIntel,60.0024001,Chrome,1470,956,,,,,0,950,,,,,,,,,,,,,,,,,H,160,circle,1,0,,,,,,,,,,,,,,,,repeat,letter,lettRpt,d,1.1133,Hi,,,,,,5,,,,,,,,high,2,0,2,0,1,,,,,,,,,
292507,2022-11-30_23h37.31.597,vts_reward_expectancy_bt,2022.2.4,MacIntel,60.0024001,Chrome,1470,956,,,,,10,960,,,,,,,,,,,,,,,,,S,174,hexagon,1,0,,,,,,,,,,,,,,,,repeat,letter,lettRpt,f,0.7031,Hi,,,,,,5,,,,,,,,high,3,0,3,0,1,,,,,,,,,
292507,2022-11-30_23h37.31.597,vts_reward_expectancy_bt,2022.2.4,MacIntel,60.0024001,Chrome,1470,956,,,,,1,961,,,,,,,,,,,,,,,,,W,146,star,1,0,,,,,,,,,,,,,,,,repeat,letter,lettRpt,f,0.8706,Lo,,,,,,5,,,,,,,,high,4,0,4,0,1,,,,,,,,,
292507,2022-11-30_23h37.31.597,vts_reward_expectancy_bt,2022.2.4,MacIntel,60.0024001,Chrome,1470,956,,,,,1,962,,,,,,,,,,,,,,,,,D,125,triangle,1,0,,,,,,,,,,,,,,,,repeat,letter,lettRpt,d,0.7483,Lo,,,,,,5,,,,,,,,high,5,0,5,0,1,,,,,,,,,
292507,2022-11-30_23h37.31.597,vts_reward_expectancy_bt,2022.2.4,MacIntel,60.0024001,Chrome,1470,956,,,,,10,972,,,,,,,,,,,,,,,,,B,139,circle,1,0,,,,,,,,,,,,,,,,repeat,letter,lettRpt,d,0.6123,Hi,,,,,,5,,,,,,,,high,6,0,6,0,1,,,,,,,,,
292507,2022-11-30_23h37.31.597,vts_reward_expectancy_bt,2022.2.4,MacIntel,60.0024001,Chrome,1470,956,,,,,0,972,,,,,,,,,,,,,,,,,U,167,hexagon,1,0,,,,,,,,,,,,,,,,repeat,letter,lettRpt,f,0.8642,Hi,,,,,,5,,,,,,,,high,7,0,7,0,1,,,,,,,,,
292507,2022-11-30_23h37.31.597,vts_reward_expectancy_bt,2022.2.4,MacIntel,60.0024001,Chrome,1470,956,,,,,0,972,,,,,,,,,,,,,,,,,Y,132,triangle,-1,0,,,,,,,,,,,,,,,,switch,no_choice,NA,,,Hi,,,,,,5,,,,,,,,high,8,0,8,0,1,,,,,,,,,
292507,2022-11-30_23h37.31.597,vts_reward_expectancy_bt,2022.2.4,MacIntel,60.0024001,Chrome,1470,956,,,,,0,972,,,,,,,,,,,,,,,,,F,181,star,-1,0,,,,,,,,,,,,,,,,repeat,no_choice,NA,,,Hi,,,,,,5,,,,,,,,high,9,0,9,0,1,,,,,,,,,
292507,2022-11-30_23h37.31.597,vts_reward_expectancy_bt,2022.2.4,MacIntel,60.0024001,Chrome,1470,956,,,,,0,972,,,,,,,,,,,,,,,,,H,160,circle,-1,0,,,,,,,,,,,,,,,,repeat,no_choice,NA,,,Hi,,,,,,5,,,,,,,,high,10,0,10,0,1,,,,,,,,,
292507,2022-11-30_23h37.31.597,vts_reward_expectancy_bt,2022.2.4,MacIntel,60.0024001,Chrome,1470,956,,,,,0,972,,,,,,,,,,,,,,,,,S,174,hexagon,-1,0,,,,,,,,,,,,,,,,repeat,no_choice,NA,,,Hi,,,,,,5,,,,,,,,high,11,0,11,0,1,,,,,,,,,
292507,2022-11-30_23h37.31.597,vts_reward_expectancy_bt,2022.2.4,MacIntel,60.0024001,Chrome,1470,956,,,,,0,972,,,,,,,,,,,,,,,,,W,146,triangle,-1,0,,,,,,,,,,,,,,,,repeat,no_choice,NA,,,Hi,,,,,,5,,,,,,,,high,12,0,12,0,1,,,,,,,,,
292507,2022-11-30_23h37.31.597,vts_reward_expectancy_bt,2022.2.4,MacIntel,60.0024001,Chrome,1470,956,,,,,0,972,,,,,,,,,,,,,,,,,D,125,circle,-1,0,,,,,,,,,,,,,,,,repeat,no_choice,NA,,,Hi,,,,,,5,,,,,,,,high,13,0,13,0,1,,,,,,,,,
292507,2022-11-30_23h37.31.597,vts_reward_expectancy_bt,2022.2.4,MacIntel,60.0024001,Chrome,1470,956,,,,,0,972,,,,,,,,,,,,,,,,,B,139,star,-1,0,,,,,,,,,,,,,,,,repeat,no_choice,NA,,,Hi,,,,,,5,,,,,,,,high,14,0,14,0,1,,,,,,,,,
292507,2022-11-30_23h37.31.597,vts_reward_expectancy_bt,2022.2.4,MacIntel,60.0024001,Chrome,1470,956,,,,,0,972,,,,,,,,,,,,,,,,,U,167,hexagon,-1,0,,,,,,,,,,,,,,,,repeat,no_choice,NA,,,Hi,,,,,,5,,,,,,,,high,15,0,15,0,1,,,,,,,,,
292507,2022-11-30_23h37.31.597,vts_reward_expectancy_bt,2022.2.4,MacIntel,60.0024001,Chrome,1470,956,,,,,0,972,,,,,,,,,,,,,,,,,B,167,triangle,-1,0,,,,,,,,,,,,,,,,repeat,no_choice,NA,,,Hi,,,,,,5,,,,,,,,high,16,0,16,0,1,,,,,,,,,
292507,2022-11-30_23h37.31.597,vts_reward_expectancy_bt,2022.2.4,MacIntel,60.0024001,Chrome,1470,956,,,,,0,972,,,,,,,,,,,,,,,,,D,146,hexagon,-1,0,,,,,,,,,,,,,,,,repeat,no_choice,NA,,,Hi,,,,,,5,,,,,,,,high,17,0,17,0,1,,,,,,,,,
292507,2022-11-30_23h37.31.597,vts_reward_expectancy_bt,2022.2.4,MacIntel,60.0024001,Chrome,1470,956,,,,,0,972,,,,,,,,,,,,,,,,,Y,125,star,-1,0,,,,,,,,,,,,,,,,repeat,no_choice,NA,,,Hi,,,,,,5,,,,,,,,high,18,0,18,0,1,,,,,,,,,
292507,2022-11-30_23h37.31.597,vts_reward_expectancy_bt,2022.2.4,MacIntel,60.0024001,Chrome,1470,956,,,,,0,972,,,,,,,,,,,,,,,,,S,139,circle,-1,0,,,,,,,,,,,,,,,,repeat,no_choice,NA,,,Hi,,,,,,5,,,,,,,,high,19,0,19,0,1,,,,,,,,,
292507,2022-11-30_23h37.31.597,vts_reward_expectancy_bt,2022.2.4,MacIntel,60.0024001,Chrome,1470,956,,,,,0,972,,,,,,,,,,,,,,,,,F,174,triangle,-1,0,,,,,,,,,,,,,,,,repeat,no_choice,NA,,,Hi,,,,,,5,,,,,,,,high,20,0,20,0,1,,,,,,,,,
292507,2022-11-30_23h37.31.597,vts_reward_expectancy_bt,2022.2.4,MacIntel,60.0024001,Chrome,1470,956,,,,,0,972,,,,,,,,,,,,,,,,,W,132,star,-1,0,,,,,,,,,,,,,,,,repeat,no_choice,NA,,,Hi,,,,,,5,,,,,,,,high,21,0,21,0,1,,,,,,,,,
292507,2022-11-30_23h37.31.597,vts_reward_expectancy_bt,2022.2.4,MacIntel,60.0024001,Chrome,1470,956,,,,,0,972,,,,,,,,,,,,,,,,,U,160,circle,-1,0,,,,,,,,,,,,,,,,repeat,no_choice,NA,,,Hi,,,,,,5,,,,,,,,high,22,0,22,0,1,,,,,,,,,
292507,2022-11-30_23h37.31.597,vts_reward_expectancy_bt,2022.2.4,MacIntel,60.0024001,Chrome,1470,956,,,,,0,972,,,,,,,,,,,,,,,,,H,181,hexagon,-1,0,,,,,,,,,,,,,,,,repeat,no_choice,NA,,,Hi,,,,,,5,,,,,,,,high,23,0,23,0,1,,,,,,,,,
292507,2022-11-30_23h37.31.597,vts_reward_expectancy_bt,2022.2.4,MacIntel,60.0024001,Chrome,1470,956,,,,,0,972,,,,,,,,,,,,,,,,,H,181,star,-1,0,,,,,,,,,,,,,,,,repeat,no_choice,NA,,,Hi,,,,,,5,,,,,,,,high,24,0,24,0,1,,,,,,,,,
292507,2022-11-30_23h37.31.597,vts_reward_expectancy_bt,2022.2.4,MacIntel,60.0024001,Chrome,1470,956,,,,,0,972,,,,,,,,,,,,,,,,,S,125,hexagon,0,0,,,,,,,,,,,,,,,,switch,letter,NA,d,1.6804,Hi,,,,,,5,,,,,,,,high,25,0,25,0,1,,,,,,,,,
292507,2022-11-30_23h37.31.597,vts_reward_expectancy_bt,2022.2.4,MacIntel,60.0024001,Chrome,1470,956,,,,,0,972,,,,,,,,,,,,,,,,,W,160,circle,1,1,,,,,,,,,,,,,,,,repeat,letter,lettRpt,f,1.7944,Hi,,,,,,5,,,,,,,,high,26,0,26,0,1,,,,,,,,,
292507,2022-11-30_23h37.31.597,vts_reward_expectancy_bt,2022.2.4,MacIntel,60.0024001,Chrome,1470,956,,,,,10,982,,,,,,,,,,,,,,,,,F,139,triangle,1,0,,,,,,,,,,,,,,,,repeat,letter,lettRpt,d,1.262,Lo,,,,,,5,,,,,,,,high,27,0,27,0,1,,,,,,,,,
292507,2022-11-30_23h37.31.597,vts_reward_expectancy_bt,2022.2.4,MacIntel,60.0024001,Chrome,1470,956,,,,,0,982,,,,,,,,,,,,,,,,,B,132,circle,-1,0,,,,,,,,,,,,,,,,switch,no_choice,NA,,,Lo,,,,,,5,,,,,,,,high,28,0,28,0,1,,,,,,,,,
292507,2022-11-30_23h37.31.597,vts_reward_expectancy_bt,2022.2.4,MacIntel,60.0024001,Chrome,1470,956,,,,,0,982,,,,,,,,,,,,,,,,,D,174,star,-1,0,,,,,,,,,,,,,,,,repeat,no_choice,NA,,,Lo,,,,,,5,,,,,,,,high,29,0,29,0,1,,,,,,,,,
292507,2022-11-30_23h37.31.597,vts_reward_expectancy_bt,2022.2.4,MacIntel,60.0024001,Chrome,1470,956,,,,,0,982,,,,,,,,,,,,,,,,,U,167,hexagon,0,0,,,,,,,,,,,,,,,,switch,letter,NA,d,0.2802,Lo,,,,,,5,,,,,,,,high,30,0,30,0,1,,,,,,,,,
292507,2022-11-30_23h37.31.597,vts_reward_expectancy_bt,2022.2.4,MacIntel,60.0024001,Chrome,1470,956,,,,,0,982,,,,,,,,,,,,,,,,,Y,146,triangle,-1,1,,,,,,,,,,,,,,,,switch,no_choice,NA,,,Lo,,,,,,5,,,,,,,,high,31,0,31,0,1,,,,,,,,,
292507,2022-11-30_23h37.31.597,vts_reward_expectancy_bt,2022.2.4,MacIntel,60.0024001,Chrome,1470,956,,,,,0,982,,,,,,,,,,,,,,,,,U,174,star,-1,0,,,,,,,,,,,,,,,,repeat,no_choice,NA,,,Lo,,,,,,6,,,,,,space,1.1748,high,0,0,0,0,1,,,,,,,,,
292507,2022-11-30_23h37.31.597,vts_reward_expectancy_bt,2022.2.4,MacIntel,60.0024001,Chrome,1470,956,,,,,0,982,,,,,,,,,,,,,,,,,D,146,triangle,-1,0,,,,,,,,,,,,,,,,repeat,no_choice,NA,,,Lo,,,,,,6,,,,,,,,high,1,0,1,0,1,,,,,,,,,
292507,2022-11-30_23h37.31.597,vts_reward_expectancy_bt,2022.2.4,MacIntel,60.0024001,Chrome,1470,956,,,,,0,982,,,,,,,,,,,,,,,,,Y,167,circle,-1,0,,,,,,,,,,,,,,,,repeat,no_choice,NA,,,Lo,,,,,,6,,,,,,,,high,2,0,2,0,1,,,,,,,,,
292507,2022-11-30_23h37.31.597,vts_reward_expectancy_bt,2022.2.4,MacIntel,60.0024001,Chrome,1470,956,,,,,0,982,,,,,,,,,,,,,,,,,H,125,hexagon,-1,0,,,,,,,,,,,,,,,,repeat,no_choice,NA,,,Lo,,,,,,6,,,,,,,,high,3,0,3,0,1,,,,,,,,,
292507,2022-11-30_23h37.31.597,vts_reward_expectancy_bt,2022.2.4,MacIntel,60.0024001,Chrome,1470,956,,,,,0,982,,,,,,,,,,,,,,,,,S,139,star,-1,0,,,,,,,,,,,,,,,,repeat,no_choice,NA,,,Lo,,,,,,6,,,,,,,,high,4,0,4,0,1,,,,,,,,,
292507,2022-11-30_23h37.31.597,vts_reward_expectancy_bt,2022.2.4,MacIntel,60.0024001,Chrome,1470,956,,,,,0,982,,,,,,,,,,,,,,,,,F,181,triangle,-1,0,,,,,,,,,,,,,,,,repeat,no_choice,NA,,,Lo,,,,,,6,,,,,,,,high,5,0,5,0,1,,,,,,,,,
