participant,date,expName,psychopyVersion,OS,frameRate,browser,xResolution,yResolution,key_resp.keys,key_resp.rt,training_resp.keys,training_resp.rt,points_trial,points_cumul,trainBlock,training.thisRepN,training.thisTrialN,training.thisN,training.thisIndex,training.ran,LTriangleOpac,LCircleOpac,LHexagonOpac,LStarOpac,RTriangleOpac,RCircleOpac,RHexagonOpac,RStarOpac,LShape_ID,RShape_ID,curr_topStim,curr_bottStim,curr_shape,acc,E1,target_resp_prac1.keys,target_resp_prac1.rt,pracBlock,task1_prac_trials.thisRepN,task1_prac_trials.thisTrialN,task1_prac_trials.thisN,task1_prac_trials.thisIndex,task1_prac_trials.ran,target_resp_prac2.keys,target_resp_prac2.rt,task2_praac_trials.thisRepN,task2_praac_trials.thisTrialN,task2_praac_trials.thisN,task2_praac_trials.thisIndex,task2_praac_trials.ran,alt,task,condition,target_resp.keys,rewCond,vts_practice_trials.thisRepN,vts_practice_trials.thisTrialN,vts_practice_trials.thisN,vts_practice_trials.thisIndex,vts_practice_trials.ran,target_resp.rt,blockNum,trials_norew.thisRepN,trials_norew.thisTrialN,trials_norew.thisN,trials_norew.thisIndex,trials_norew.ran,key_resp_2.keys,key_resp_2.rt,rewExpectancy,trials_rew.thisRepN,trials_rew.thisTrialN,trials_rew.thisN,trials_rew.thisIndex,trials_rew.ran,Q1,Q2,Q2_text,Q3,Q4,Q5_text,Q5,xRes,yRes
292546,2022-11-27_19h51.27.821,vts_reward_expectancy_bt,2022.2.4,MacIntel,58.82352941,Safari,1440,900,,,,,,,,,,,,,,,,,,,,,,,,,,,,,,,,,,,,,,,,,,,,,,,,,,,,,,,,,,,,,,,,,,,,,,,,,,,,
292546,2022-11-27_19h51.27.821,vts_reward_expectancy_bt,2022.2.4,MacIntel,58.82352941,Safari,1440,900,space,2.256,,,,,,,,,,,,,,,,,,,,,,,,,,,,,,,,,,,,,,,,,,,,,,,,,,,,,,,,,,,,,,,,,,,,,,,,,,
292546,2022-11-27_19h51.27.821,vts_reward_expectancy_bt,2022.2.4,MacIntel,58.82352941,Safari,1440,900,,,,,,,,,,,,,,,,,,,,,,,,,,,,,,,,,,,,,,,,,,,,,,,,,,,,,,,,,,,,,,,,,,,,,,,,,,,,
292546,2022-11-27_19h51.27.821,vts_reward_expectancy_bt,2022.2.4,MacIntel,58.82352941,Safari,1440,900,,,l,1.429,1,1,0,0,0,0,8,1,0,0,1,0,0,0,0,1,hexagon,star,,,,,,,,,,,,,,,,,,,,,,,,,,,,,,,,,,,,,,,,,,,,,,,,,,,,,,
292546,2022-11-27_19h51.27.821,vts_reward_expectancy_bt,2022.2.4,MacIntel,58.82352941,Safari,1440,900,,,l,1.159,1,2,0,0,1,1,3,1,0,1,0,0,1,0,0,0,circle,triangle,,,,,,,,,,,,,,,,,,,,,,,,,,,,,,,,,,,,,,,,,,,,,,,,,,,,,,
292546,2022-11-27_19h51.27.821,vts_reward_expectancy_bt,2022.2.4,MacIntel,58.82352941,Safari,1440,900,,,a,0.465,1,3,0,0,2,2,5,1,0,1,0,0,0,0,0,1,circle,star,,,,,,,,,,,,,,,,,,,,,,,,,,,,,,,,,,,,,,,,,,,,,,,,,,,,,,
292546,2022-11-27_19h51.27.821,vts_reward_expectancy_bt,2022.2.4,MacIntel,58.82352941,Safari,1440,900,,,a,0.782,10,13,0,0,3,3,4,1,0,1,0,0,0,0,1,0,circle,hexagon,,,,,,,,,,,,,,,,,,,,,,,,,,,,,,,,,,,,,,,,,,,,,,,,,,,,,,
292546,2022-11-27_19h51.27.821,vts_reward_expectancy_bt,2022.2.4,MacIntel,58.82352941,Safari,1440,900,,,a,0.649,1,14,0,0,4,4,2,1,1,0,0,0,0,0,0,1,triangle,star,,,,,,,,,,,,,,,,,,,,,,,,,,,,,,,,,,,,,,,,,,,,,,,,,,,,,,
292546,2022-11-27_19h51.27.821,vts_reward_expectancy_bt,2022.2.4,MacIntel,58.82352941,Safari,1440,900,,,l,0.528,10,24,0,0,5,5,1,1,1,0,0,0,0,0,1,0,triangle,hexagon,,,,,,,,,,,,,,,,,,,,,,,,,,,,,,,,,,,,,,,,,,,,,,,,,,,,,,
292546,2022-11-27_19h51.27.821,vts_reward_expectancy_bt,2022.2.4,MacIntel,58.82352941,Safari,1440,900,,,l,0.766,1,25,0,0,6,6,10,1,0,0,0,1,0,1,0,0,star ,circle,,,,,,,,,,,,,,,,,,,,,,,,,,,,,,,,,,,,,,,,,,,,,,,,,,,,,,
292546,2022-11-27_19h51.27.821,vts_reward_expectancy_bt,2022.2.4,MacIntel,58.82352941,Safari,1440,900,,,a,0.433,10,35,0,0,7,7,0,1,1,0,0,0,0,1,0,0,triangle,circle,,,,,,,,,,,,,,,,,,,,,,,,,,,,,,,,,,,,,,,,,,,,,,,,,,,,,,
292546,2022-11-27_19h51.27.821,vts_reward_expectancy_bt,2022.2.4,MacIntel,58.82352941,Safari,1440,900,,,l,0.452,10,45,0,0,8,8,11,1,0,0,0,1,0,0,1,0,star,hexagon,,,,,,,,,,,,,,,,,,,,,,,,,,,,,,,,,,,,,,,,,,,,,,,,,,,,,,
292546,2022-11-27_19h51.27.821,vts_reward_expectancy_bt,2022.2.4,MacIntel,58.82352941,Safari,1440,900,,,a,0.831,1,46,0,0,9,9,6,1,0,0,1,0,1,0,0,0,hexagon,triangle,,,,,,,,,,,,,,,,,,,,,,,,,,,,,,,,,,,,,,,,,,,,,,,,,,,,,,
292546,2022-11-27_19h51.27.821,vts_reward_expectancy_bt,2022.2.4,MacIntel,58.82352941,Safari,1440,900,,,l,0.548,1,47,0,0,10,10,7,1,0,0,1,0,0,1,0,0,hexagon,circle,,,,,,,,,,,,,,,,,,,,,,,,,,,,,,,,,,,,,,,,,,,,,,,,,,,,,,
292546,2022-11-27_19h51.27.821,vts_reward_expectancy_bt,2022.2.4,MacIntel,58.82352941,Safari,1440,900,,,l,0.513,1,48,0,0,11,11,9,1,0,0,0,1,1,0,0,0,star,triangle,,,,,,,,,,,,,,,,,,,,,,,,,,,,,,,,,,,,,,,,,,,,,,,,,,,,,,
292546,2022-11-27_19h51.27.821,vts_reward_expectancy_bt,2022.2.4,MacIntel,58.82352941,Safari,1440,900,,,a,0.433,1,49,0,1,0,12,11,1,0,0,0,1,0,0,1,0,star,hexagon,,,,,,,,,,,,,,,,,,,,,,,,,,,,,,,,,,,,,,,,,,,,,,,,,,,,,,
292546,2022-11-27_19h51.27.821,vts_reward_expectancy_bt,2022.2.4,MacIntel,58.82352941,Safari,1440,900,,,l,0.433,10,59,0,1,1,13,1,1,1,0,0,0,0,0,1,0,triangle,hexagon,,,,,,,,,,,,,,,,,,,,,,,,,,,,,,,,,,,,,,,,,,,,,,,,,,,,,,
292546,2022-11-27_19h51.27.821,vts_reward_expectancy_bt,2022.2.4,MacIntel,58.82352941,Safari,1440,900,,,a,0.388,10,69,0,1,2,14,5,1,0,1,0,0,0,0,0,1,circle,star,,,,,,,,,,,,,,,,,,,,,,,,,,,,,,,,,,,,,,,,,,,,,,,,,,,,,,
292546,2022-11-27_19h51.27.821,vts_reward_expectancy_bt,2022.2.4,MacIntel,58.82352941,Safari,1440,900,,,a,0.665,1,70,0,1,3,15,9,1,0,0,0,1,1,0,0,0,star,triangle,,,,,,,,,,,,,,,,,,,,,,,,,,,,,,,,,,,,,,,,,,,,,,,,,,,,,,
292546,2022-11-27_19h51.27.821,vts_reward_expectancy_bt,2022.2.4,MacIntel,58.82352941,Safari,1440,900,,,a,0.55,1,71,0,1,4,16,2,1,1,0,0,0,0,0,0,1,triangle,star,,,,,,,,,,,,,,,,,,,,,,,,,,,,,,,,,,,,,,,,,,,,,,,,,,,,,,
292546,2022-11-27_19h51.27.821,vts_reward_expectancy_bt,2022.2.4,MacIntel,58.82352941,Safari,1440,900,,,l,0.447,10,81,0,1,5,17,10,1,0,0,0,1,0,1,0,0,star ,circle,,,,,,,,,,,,,,,,,,,,,,,,,,,,,,,,,,,,,,,,,,,,,,,,,,,,,,
292546,2022-11-27_19h51.27.821,vts_reward_expectancy_bt,2022.2.4,MacIntel,58.82352941,Safari,1440,900,,,a,0.516,10,91,0,1,6,18,8,1,0,0,1,0,0,0,0,1,hexagon,star,,,,,,,,,,,,,,,,,,,,,,,,,,,,,,,,,,,,,,,,,,,,,,,,,,,,,,
292546,2022-11-27_19h51.27.821,vts_reward_expectancy_bt,2022.2.4,MacIntel,58.82352941,Safari,1440,900,,,a,1.115,10,101,0,1,7,19,6,1,0,0,1,0,1,0,0,0,hexagon,triangle,,,,,,,,,,,,,,,,,,,,,,,,,,,,,,,,,,,,,,,,,,,,,,,,,,,,,,
292546,2022-11-27_19h51.27.821,vts_reward_expectancy_bt,2022.2.4,MacIntel,58.82352941,Safari,1440,900,,,l,0.698,1,102,0,1,8,20,7,1,0,0,1,0,0,1,0,0,hexagon,circle,,,,,,,,,,,,,,,,,,,,,,,,,,,,,,,,,,,,,,,,,,,,,,,,,,,,,,
292546,2022-11-27_19h51.27.821,vts_reward_expectancy_bt,2022.2.4,MacIntel,58.82352941,Safari,1440,900,,,a,0.665,10,112,0,1,9,21,4,1,0,1,0,0,0,0,1,0,circle,hexagon,,,,,,,,,,,,,,,,,,,,,,,,,,,,,,,,,,,,,,,,,,,,,,,,,,,,,,
292546,2022-11-27_19h51.27.821,vts_reward_expectancy_bt,2022.2.4,MacIntel,58.82352941,Safari,1440,900,,,l,0.438,10,122,0,1,10,22,0,1,1,0,0,0,0,1,0,0,triangle,circle,,,,,,,,,,,,,,,,,,,,,,,,,,,,,,,,,,,,,,,,,,,,,,,,,,,,,,
292546,2022-11-27_19h51.27.821,vts_reward_expectancy_bt,2022.2.4,MacIntel,58.82352941,Safari,1440,900,,,a,0.55,10,132,0,1,11,23,3,1,0,1,0,0,1,0,0,0,circle,triangle,,,,,,,,,,,,,,,,,,,,,,,,,,,,,,,,,,,,,,,,,,,,,,,,,,,,,,
292546,2022-11-27_19h51.27.821,vts_reward_expectancy_bt,2022.2.4,MacIntel,58.82352941,Safari,1440,900,,,a,0.319,10,142,0,2,0,24,5,1,0,1,0,0,0,0,0,1,circle,star,,,,,,,,,,,,,,,,,,,,,,,,,,,,,,,,,,,,,,,,,,,,,,,,,,,,,,
292546,2022-11-27_19h51.27.821,vts_reward_expectancy_bt,2022.2.4,MacIntel,58.82352941,Safari,1440,900,,,a,0.334,10,152,0,2,1,25,8,1,0,0,1,0,0,0,0,1,hexagon,star,,,,,,,,,,,,,,,,,,,,,,,,,,,,,,,,,,,,,,,,,,,,,,,,,,,,,,
292546,2022-11-27_19h51.27.821,vts_reward_expectancy_bt,2022.2.4,MacIntel,58.82352941,Safari,1440,900,,,l,0.471,1,153,0,2,2,26,7,1,0,0,1,0,0,1,0,0,hexagon,circle,,,,,,,,,,,,,,,,,,,,,,,,,,,,,,,,,,,,,,,,,,,,,,,,,,,,,,
292546,2022-11-27_19h51.27.821,vts_reward_expectancy_bt,2022.2.4,MacIntel,58.82352941,Safari,1440,900,,,l,0.5,10,163,0,2,3,27,10,1,0,0,0,1,0,1,0,0,star ,circle,,,,,,,,,,,,,,,,,,,,,,,,,,,,,,,,,,,,,,,,,,,,,,,,,,,,,,
292546,2022-11-27_19h51.27.821,vts_reward_expectancy_bt,2022.2.4,MacIntel,58.82352941,Safari,1440,900,,,l,0.616,10,173,0,2,4,28,1,1,1,0,0,0,0,0,1,0,triangle,hexagon,,,,,,,,,,,,,,,,,,,,,,,,,,,,,,,,,,,,,,,,,,,,,,,,,,,,,,
292546,2022-11-27_19h51.27.821,vts_reward_expectancy_bt,2022.2.4,MacIntel,58.82352941,Safari,1440,900,,,a,0.399,1,174,0,2,5,29,3,1,0,1,0,0,1,0,0,0,circle,triangle,,,,,,,,,,,,,,,,,,,,,,,,,,,,,,,,,,,,,,,,,,,,,,,,,,,,,,
292546,2022-11-27_19h51.27.821,vts_reward_expectancy_bt,2022.2.4,MacIntel,58.82352941,Safari,1440,900,,,a,0.319,10,184,0,2,6,30,6,1,0,0,1,0,1,0,0,0,hexagon,triangle,,,,,,,,,,,,,,,,,,,,,,,,,,,,,,,,,,,,,,,,,,,,,,,,,,,,,,
292546,2022-11-27_19h51.27.821,vts_reward_expectancy_bt,2022.2.4,MacIntel,58.82352941,Safari,1440,900,,,a,0.419,1,185,0,2,7,31,4,1,0,1,0,0,0,0,1,0,circle,hexagon,,,,,,,,,,,,,,,,,,,,,,,,,,,,,,,,,,,,,,,,,,,,,,,,,,,,,,
292546,2022-11-27_19h51.27.821,vts_reward_expectancy_bt,2022.2.4,MacIntel,58.82352941,Safari,1440,900,,,l,0.339,1,186,0,2,8,32,2,1,1,0,0,0,0,0,0,1,triangle,star,,,,,,,,,,,,,,,,,,,,,,,,,,,,,,,,,,,,,,,,,,,,,,,,,,,,,,
292546,2022-11-27_19h51.27.821,vts_reward_expectancy_bt,2022.2.4,MacIntel,58.82352941,Safari,1440,900,,,l,0.502,10,196,0,2,9,33,11,1,0,0,0,1,0,0,1,0,star,hexagon,,,,,,,,,,,,,,,,,,,,,,,,,,,,,,,,,,,,,,,,,,,,,,,,,,,,,,
292546,2022-11-27_19h51.27.821,vts_reward_expectancy_bt,2022.2.4,MacIntel,58.82352941,Safari,1440,900,,,l,0.385,1,197,0,2,10,34,0,1,1,0,0,0,0,1,0,0,triangle,circle,,,,,,,,,,,,,,,,,,,,,,,,,,,,,,,,,,,,,,,,,,,,,,,,,,,,,,
292546,2022-11-27_19h51.27.821,vts_reward_expectancy_bt,2022.2.4,MacIntel,58.82352941,Safari,1440,900,,,a,0.348,10,207,0,2,11,35,9,1,0,0,0,1,1,0,0,0,star,triangle,,,,,,,,,,,,,,,,,,,,,,,,,,,,,,,,,,,,,,,,,,,,,,,,,,,,,,
292546,2022-11-27_19h51.27.821,vts_reward_expectancy_bt,2022.2.4,MacIntel,58.82352941,Safari,1440,900,,,l,1.01,1,208,1,0,0,0,6,1,0,0,1,0,1,0,0,0,hexagon,triangle,,,,,,,,,,,,,,,,,,,,,,,,,,,,,,,,,,,,,,,,,,,,,,,,,,,,,,
292546,2022-11-27_19h51.27.821,vts_reward_expectancy_bt,2022.2.4,MacIntel,58.82352941,Safari,1440,900,,,l,1.116,10,218,1,0,1,1,11,1,0,0,0,1,0,0,1,0,star,hexagon,,,,,,,,,,,,,,,,,,,,,,,,,,,,,,,,,,,,,,,,,,,,,,,,,,,,,,
292546,2022-11-27_19h51.27.821,vts_reward_expectancy_bt,2022.2.4,MacIntel,58.82352941,Safari,1440,900,,,l,0.484,10,228,1,0,2,2,0,1,1,0,0,0,0,1,0,0,triangle,circle,,,,,,,,,,,,,,,,,,,,,,,,,,,,,,,,,,,,,,,,,,,,,,,,,,,,,,
292546,2022-11-27_19h51.27.821,vts_reward_expectancy_bt,2022.2.4,MacIntel,58.82352941,Safari,1440,900,,,a,0.786,10,238,1,0,3,3,1,1,1,0,0,0,0,0,1,0,triangle,hexagon,,,,,,,,,,,,,,,,,,,,,,,,,,,,,,,,,,,,,,,,,,,,,,,,,,,,,,
292546,2022-11-27_19h51.27.821,vts_reward_expectancy_bt,2022.2.4,MacIntel,58.82352941,Safari,1440,900,,,l,0.415,10,248,1,0,4,4,9,1,0,0,0,1,1,0,0,0,star,triangle,,,,,,,,,,,,,,,,,,,,,,,,,,,,,,,,,,,,,,,,,,,,,,,,,,,,,,
292546,2022-11-27_19h51.27.821,vts_reward_expectancy_bt,2022.2.4,MacIntel,58.82352941,Safari,1440,900,,,a,0.43,1,249,1,0,5,5,2,1,1,0,0,0,0,0,0,1,triangle,star,,,,,,,,,,,,,,,,,,,,,,,,,,,,,,,,,,,,,,,,,,,,,,,,,,,,,,
292546,2022-11-27_19h51.27.821,vts_reward_expectancy_bt,2022.2.4,MacIntel,58.82352941,Safari,1440,900,,,a,0.405,10,259,1,0,6,6,5,1,0,1,0,0,0,0,0,1,circle,star,,,,,,,,,,,,,,,,,,,,,,,,,,,,,,,,,,,,,,,,,,,,,,,,,,,,,,
292546,2022-11-27_19h51.27.821,vts_reward_expectancy_bt,2022.2.4,MacIntel,58.82352941,Safari,1440,900,,,a,0.554,10,269,1,0,7,7,4,1,0,1,0,0,0,0,1,0,circle,hexagon,,,,,,,,,,,,,,,,,,,,,,,,,,,,,,,,,,,,,,,,,,,,,,,,,,,,,,
292546,2022-11-27_19h51.27.821,vts_reward_expectancy_bt,2022.2.4,MacIntel,58.82352941,Safari,1440,900,,,l,0.859,10,279,1,0,8,8,7,1,0,0,1,0,0,1,0,0,hexagon,circle,,,,,,,,,,,,,,,,,,,,,,,,,,,,,,,,,,,,,,,,,,,,,,,,,,,,,,
292546,2022-11-27_19h51.27.821,vts_reward_expectancy_bt,2022.2.4,MacIntel,58.82352941,Safari,1440,900,,,l,0.399,10,289,1,0,9,9,10,1,0,0,0,1,0,1,0,0,star ,circle,,,,,,,,,,,,,,,,,,,,,,,,,,,,,,,,,,,,,,,,,,,,,,,,,,,,,,
292546,2022-11-27_19h51.27.821,vts_reward_expectancy_bt,2022.2.4,MacIntel,58.82352941,Safari,1440,900,,,a,0.374,1,290,1,0,10,10,3,1,0,1,0,0,1,0,0,0,circle,triangle,,,,,,,,,,,,,,,,,,,,,,,,,,,,,,,,,,,,,,,,,,,,,,,,,,,,,,
292546,2022-11-27_19h51.27.821,vts_reward_expectancy_bt,2022.2.4,MacIntel,58.82352941,Safari,1440,900,,,a,0.549,10,300,1,0,11,11,8,1,0,0,1,0,0,0,0,1,hexagon,star,,,,,,,,,,,,,,,,,,,,,,,,,,,,,,,,,,,,,,,,,,,,,,,,,,,,,,
292546,2022-11-27_19h51.27.821,vts_reward_expectancy_bt,2022.2.4,MacIntel,58.82352941,Safari,1440,900,,,l,0.416,10,310,1,1,0,12,9,1,0,0,0,1,1,0,0,0,star,triangle,,,,,,,,,,,,,,,,,,,,,,,,,,,,,,,,,,,,,,,,,,,,,,,,,,,,,,
292546,2022-11-27_19h51.27.821,vts_reward_expectancy_bt,2022.2.4,MacIntel,58.82352941,Safari,1440,900,,,l,10.932,1,311,1,1,1,13,6,1,0,0,1,0,1,0,0,0,hexagon,triangle,,,,,,,,,,,,,,,,,,,,,,,,,,,,,,,,,,,,,,,,,,,,,,,,,,,,,,
292546,2022-11-27_19h51.27.821,vts_reward_expectancy_bt,2022.2.4,MacIntel,58.82352941,Safari,1440,900,,,a,0.984,1,312,1,1,2,14,4,1,0,1,0,0,0,0,1,0,circle,hexagon,,,,,,,,,,,,,,,,,,,,,,,,,,,,,,,,,,,,,,,,,,,,,,,,,,,,,,
292546,2022-11-27_19h51.27.821,vts_reward_expectancy_bt,2022.2.4,MacIntel,58.82352941,Safari,1440,900,,,a,0.582,1,313,1,1,3,15,2,1,1,0,0,0,0,0,0,1,triangle,star,,,,,,,,,,,,,,,,,,,,,,,,,,,,,,,,,,,,,,,,,,,,,,,,,,,,,,
292546,2022-11-27_19h51.27.821,vts_reward_expectancy_bt,2022.2.4,MacIntel,58.82352941,Safari,1440,900,,,l,2.218,10,323,1,1,4,16,1,1,1,0,0,0,0,0,1,0,triangle,hexagon,,,,,,,,,,,,,,,,,,,,,,,,,,,,,,,,,,,,,,,,,,,,,,,,,,,,,,
292546,2022-11-27_19h51.27.821,vts_reward_expectancy_bt,2022.2.4,MacIntel,58.82352941,Safari,1440,900,,,a,0.416,10,333,1,1,5,17,5,1,0,1,0,0,0,0,0,1,circle,star,,,,,,,,,,,,,,,,,,,,,,,,,,,,,,,,,,,,,,,,,,,,,,,,,,,,,,
292546,2022-11-27_19h51.27.821,vts_reward_expectancy_bt,2022.2.4,MacIntel,58.82352941,Safari,1440,900,,,a,0.431,1,334,1,1,6,18,8,1,0,0,1,0,0,0,0,1,hexagon,star,,,,,,,,,,,,,,,,,,,,,,,,,,,,,,,,,,,,,,,,,,,,,,,,,,,,,,
292546,2022-11-27_19h51.27.821,vts_reward_expectancy_bt,2022.2.4,MacIntel,58.82352941,Safari,1440,900,,,l,1.705,1,335,1,1,7,19,11,1,0,0,0,1,0,0,1,0,star,hexagon,,,,,,,,,,,,,,,,,,,,,,,,,,,,,,,,,,,,,,,,,,,,,,,,,,,,,,
292546,2022-11-27_19h51.27.821,vts_reward_expectancy_bt,2022.2.4,MacIntel,58.82352941,Safari,1440,900,,,a,0.033,1,336,1,1,8,20,7,1,0,0,1,0,0,1,0,0,hexagon,circle,,,,,,,,,,,,,,,,,,,,,,,,,,,,,,,,,,,,,,,,,,,,,,,,,,,,,,
292546,2022-11-27_19h51.27.821,vts_reward_expectancy_bt,2022.2.4,MacIntel,58.82352941,Safari,1440,900,,,l,0.626,10,346,1,1,9,21,10,1,0,0,0,1,0,1,0,0,star ,circle,,,,,,,,,,,,,,,,,,,,,,,,,,,,,,,,,,,,,,,,,,,,,,,,,,,,,,
292546,2022-11-27_19h51.27.821,vts_reward_expectancy_bt,2022.2.4,MacIntel,58.82352941,Safari,1440,900,,,a,0.463,10,356,1,1,10,22,3,1,0,1,0,0,1,0,0,0,circle,triangle,,,,,,,,,,,,,,,,,,,,,,,,,,,,,,,,,,,,,,,,,,,,,,,,,,,,,,
292546,2022-11-27_19h51.27.821,vts_reward_expectancy_bt,2022.2.4,MacIntel,58.82352941,Safari,1440,900,,,l,0.418,10,366,1,1,11,23,0,1,1,0,0,0,0,1,0,0,triangle,circle,,,,,,,,,,,,,,,,,,,,,,,,,,,,,,,,,,,,,,,,,,,,,,,,,,,,,,
292546,2022-11-27_19h51.27.821,vts_reward_expectancy_bt,2022.2.4,MacIntel,58.82352941,Safari,1440,900,,,l,0.749,10,376,1,2,0,24,10,1,0,0,0,1,0,1,0,0,star ,circle,,,,,,,,,,,,,,,,,,,,,,,,,,,,,,,,,,,,,,,,,,,,,,,,,,,,,,
292546,2022-11-27_19h51.27.821,vts_reward_expectancy_bt,2022.2.4,MacIntel,58.82352941,Safari,1440,900,,,l,0.352,1,377,1,2,1,25,11,1,0,0,0,1,0,0,1,0,star,hexagon,,,,,,,,,,,,,,,,,,,,,,,,,,,,,,,,,,,,,,,,,,,,,,,,,,,,,,
292546,2022-11-27_19h51.27.821,vts_reward_expectancy_bt,2022.2.4,MacIntel,58.82352941,Safari,1440,900,,,a,6.083,10,387,1,2,2,26,6,1,0,0,1,0,1,0,0,0,hexagon,triangle,,,,,,,,,,,,,,,,,,,,,,,,,,,,,,,,,,,,,,,,,,,,,,,,,,,,,,
292546,2022-11-27_19h51.27.821,vts_reward_expectancy_bt,2022.2.4,MacIntel,58.82352941,Safari,1440,900,,,a,0.416,10,397,1,2,3,27,3,1,0,1,0,0,1,0,0,0,circle,triangle,,,,,,,,,,,,,,,,,,,,,,,,,,,,,,,,,,,,,,,,,,,,,,,,,,,,,,
292546,2022-11-27_19h51.27.821,vts_reward_expectancy_bt,2022.2.4,MacIntel,58.82352941,Safari,1440,900,,,a,0.633,10,407,1,2,4,28,2,1,1,0,0,0,0,0,0,1,triangle,star,,,,,,,,,,,,,,,,,,,,,,,,,,,,,,,,,,,,,,,,,,,,,,,,,,,,,,
292546,2022-11-27_19h51.27.821,vts_reward_expectancy_bt,2022.2.4,MacIntel,58.82352941,Safari,1440,900,,,a,2.223,1,408,1,2,5,29,5,1,0,1,0,0,0,0,0,1,circle,star,,,,,,,,,,,,,,,,,,,,,,,,,,,,,,,,,,,,,,,,,,,,,,,,,,,,,,
292546,2022-11-27_19h51.27.821,vts_reward_expectancy_bt,2022.2.4,MacIntel,58.82352941,Safari,1440,900,,,l,0.417,10,418,1,2,6,30,9,1,0,0,0,1,1,0,0,0,star,triangle,,,,,,,,,,,,,,,,,,,,,,,,,,,,,,,,,,,,,,,,,,,,,,,,,,,,,,
292546,2022-11-27_19h51.27.821,vts_reward_expectancy_bt,2022.2.4,MacIntel,58.82352941,Safari,1440,900,,,a,0.284,1,419,1,2,7,31,4,1,0,1,0,0,0,0,1,0,circle,hexagon,,,,,,,,,,,,,,,,,,,,,,,,,,,,,,,,,,,,,,,,,,,,,,,,,,,,,,
292546,2022-11-27_19h51.27.821,vts_reward_expectancy_bt,2022.2.4,MacIntel,58.82352941,Safari,1440,900,,,l,0.34,1,420,1,2,8,32,1,1,1,0,0,0,0,0,1,0,triangle,hexagon,,,,,,,,,,,,,,,,,,,,,,,,,,,,,,,,,,,,,,,,,,,,,,,,,,,,,,
292546,2022-11-27_19h51.27.821,vts_reward_expectancy_bt,2022.2.4,MacIntel,58.82352941,Safari,1440,900,,,a,0.399,1,421,1,2,9,33,8,1,0,0,1,0,0,0,0,1,hexagon,star,,,,,,,,,,,,,,,,,,,,,,,,,,,,,,,,,,,,,,,,,,,,,,,,,,,,,,
292546,2022-11-27_19h51.27.821,vts_reward_expectancy_bt,2022.2.4,MacIntel,58.82352941,Safari,1440,900,,,l,0.284,1,422,1,2,10,34,0,1,1,0,0,0,0,1,0,0,triangle,circle,,,,,,,,,,,,,,,,,,,,,,,,,,,,,,,,,,,,,,,,,,,,,,,,,,,,,,
292546,2022-11-27_19h51.27.821,vts_reward_expectancy_bt,2022.2.4,MacIntel,58.82352941,Safari,1440,900,,,l,0.617,10,432,1,2,11,35,7,1,0,0,1,0,0,1,0,0,hexagon,circle,,,,,,,,,,,,,,,,,,,,,,,,,,,,,,,,,,,,,,,,,,,,,,,,,,,,,,
292546,2022-11-27_19h51.27.821,vts_reward_expectancy_bt,2022.2.4,MacIntel,58.82352941,Safari,1440,900,,,a,0.81,1,433,2,0,0,0,1,1,1,0,0,0,0,0,1,0,triangle,hexagon,,,,,,,,,,,,,,,,,,,,,,,,,,,,,,,,,,,,,,,,,,,,,,,,,,,,,,
292546,2022-11-27_19h51.27.821,vts_reward_expectancy_bt,2022.2.4,MacIntel,58.82352941,Safari,1440,900,,,l,0.28,10,443,2,0,1,1,7,1,0,0,1,0,0,1,0,0,hexagon,circle,,,,,,,,,,,,,,,,,,,,,,,,,,,,,,,,,,,,,,,,,,,,,,,,,,,,,,
292546,2022-11-27_19h51.27.821,vts_reward_expectancy_bt,2022.2.4,MacIntel,58.82352941,Safari,1440,900,,,l,0.501,1,444,2,0,2,2,9,1,0,0,0,1,1,0,0,0,star,triangle,,,,,,,,,,,,,,,,,,,,,,,,,,,,,,,,,,,,,,,,,,,,,,,,,,,,,,
292546,2022-11-27_19h51.27.821,vts_reward_expectancy_bt,2022.2.4,MacIntel,58.82352941,Safari,1440,900,,,a,0.717,10,454,2,0,3,3,2,1,1,0,0,0,0,0,0,1,triangle,star,,,,,,,,,,,,,,,,,,,,,,,,,,,,,,,,,,,,,,,,,,,,,,,,,,,,,,
292546,2022-11-27_19h51.27.821,vts_reward_expectancy_bt,2022.2.4,MacIntel,58.82352941,Safari,1440,900,,,l,2.222,10,464,2,0,4,4,5,1,0,1,0,0,0,0,0,1,circle,star,,,,,,,,,,,,,,,,,,,,,,,,,,,,,,,,,,,,,,,,,,,,,,,,,,,,,,
292546,2022-11-27_19h51.27.821,vts_reward_expectancy_bt,2022.2.4,MacIntel,58.82352941,Safari,1440,900,,,a,0.481,10,474,2,0,5,5,3,1,0,1,0,0,1,0,0,0,circle,triangle,,,,,,,,,,,,,,,,,,,,,,,,,,,,,,,,,,,,,,,,,,,,,,,,,,,,,,
292546,2022-11-27_19h51.27.821,vts_reward_expectancy_bt,2022.2.4,MacIntel,58.82352941,Safari,1440,900,,,l,0.736,10,484,2,0,6,6,4,1,0,1,0,0,0,0,1,0,circle,hexagon,,,,,,,,,,,,,,,,,,,,,,,,,,,,,,,,,,,,,,,,,,,,,,,,,,,,,,
292546,2022-11-27_19h51.27.821,vts_reward_expectancy_bt,2022.2.4,MacIntel,58.82352941,Safari,1440,900,,,l,3.792,1,485,2,0,7,7,10,1,0,0,0,1,0,1,0,0,star ,circle,,,,,,,,,,,,,,,,,,,,,,,,,,,,,,,,,,,,,,,,,,,,,,,,,,,,,,
292546,2022-11-27_19h51.27.821,vts_reward_expectancy_bt,2022.2.4,MacIntel,58.82352941,Safari,1440,900,,,a,0.718,1,486,2,0,8,8,8,1,0,0,1,0,0,0,0,1,hexagon,star,,,,,,,,,,,,,,,,,,,,,,,,,,,,,,,,,,,,,,,,,,,,,,,,,,,,,,
292546,2022-11-27_19h51.27.821,vts_reward_expectancy_bt,2022.2.4,MacIntel,58.82352941,Safari,1440,900,,,l,0.816,10,496,2,0,9,9,11,1,0,0,0,1,0,0,1,0,star,hexagon,,,,,,,,,,,,,,,,,,,,,,,,,,,,,,,,,,,,,,,,,,,,,,,,,,,,,,
292546,2022-11-27_19h51.27.821,vts_reward_expectancy_bt,2022.2.4,MacIntel,58.82352941,Safari,1440,900,,,l,4.937,10,506,2,0,10,10,6,1,0,0,1,0,1,0,0,0,hexagon,triangle,,,,,,,,,,,,,,,,,,,,,,,,,,,,,,,,,,,,,,,,,,,,,,,,,,,,,,
292546,2022-11-27_19h51.27.821,vts_reward_expectancy_bt,2022.2.4,MacIntel,58.82352941,Safari,1440,900,,,l,1.697,1,507,2,0,11,11,0,1,1,0,0,0,0,1,0,0,triangle,circle,,,,,,,,,,,,,,,,,,,,,,,,,,,,,,,,,,,,,,,,,,,,,,,,,,,,,,
292546,2022-11-27_19h51.27.821,vts_reward_expectancy_bt,2022.2.4,MacIntel,58.82352941,Safari,1440,900,,,l,0.384,10,517,2,1,0,12,1,1,1,0,0,0,0,0,1,0,triangle,hexagon,,,,,,,,,,,,,,,,,,,,,,,,,,,,,,,,,,,,,,,,,,,,,,,,,,,,,,
292546,2022-11-27_19h51.27.821,vts_reward_expectancy_bt,2022.2.4,MacIntel,58.82352941,Safari,1440,900,,,a,0.466,10,527,2,1,1,13,5,1,0,1,0,0,0,0,0,1,circle,star,,,,,,,,,,,,,,,,,,,,,,,,,,,,,,,,,,,,,,,,,,,,,,,,,,,,,,
292546,2022-11-27_19h51.27.821,vts_reward_expectancy_bt,2022.2.4,MacIntel,58.82352941,Safari,1440,900,,,a,0.649,1,528,2,1,2,14,3,1,0,1,0,0,1,0,0,0,circle,triangle,,,,,,,,,,,,,,,,,,,,,,,,,,,,,,,,,,,,,,,,,,,,,,,,,,,,,,
292546,2022-11-27_19h51.27.821,vts_reward_expectancy_bt,2022.2.4,MacIntel,58.82352941,Safari,1440,900,,,l,0.384,10,538,2,1,3,15,2,1,1,0,0,0,0,0,0,1,triangle,star,,,,,,,,,,,,,,,,,,,,,,,,,,,,,,,,,,,,,,,,,,,,,,,,,,,,,,
292546,2022-11-27_19h51.27.821,vts_reward_expectancy_bt,2022.2.4,MacIntel,58.82352941,Safari,1440,900,,,l,1.517,1,539,2,1,4,16,6,1,0,0,1,0,1,0,0,0,hexagon,triangle,,,,,,,,,,,,,,,,,,,,,,,,,,,,,,,,,,,,,,,,,,,,,,,,,,,,,,
292546,2022-11-27_19h51.27.821,vts_reward_expectancy_bt,2022.2.4,MacIntel,58.82352941,Safari,1440,900,,,l,0.384,1,540,2,1,5,17,9,1,0,0,0,1,1,0,0,0,star,triangle,,,,,,,,,,,,,,,,,,,,,,,,,,,,,,,,,,,,,,,,,,,,,,,,,,,,,,
292546,2022-11-27_19h51.27.821,vts_reward_expectancy_bt,2022.2.4,MacIntel,58.82352941,Safari,1440,900,,,a,0.666,1,541,2,1,6,18,7,1,0,0,1,0,0,1,0,0,hexagon,circle,,,,,,,,,,,,,,,,,,,,,,,,,,,,,,,,,,,,,,,,,,,,,,,,,,,,,,
292546,2022-11-27_19h51.27.821,vts_reward_expectancy_bt,2022.2.4,MacIntel,58.82352941,Safari,1440,900,,,l,2.203,10,551,2,1,7,19,4,1,0,1,0,0,0,0,1,0,circle,hexagon,,,,,,,,,,,,,,,,,,,,,,,,,,,,,,,,,,,,,,,,,,,,,,,,,,,,,,
292546,2022-11-27_19h51.27.821,vts_reward_expectancy_bt,2022.2.4,MacIntel,58.82352941,Safari,1440,900,,,l,0.35,10,561,2,1,8,20,11,1,0,0,0,1,0,0,1,0,star,hexagon,,,,,,,,,,,,,,,,,,,,,,,,,,,,,,,,,,,,,,,,,,,,,,,,,,,,,,
292546,2022-11-27_19h51.27.821,vts_reward_expectancy_bt,2022.2.4,MacIntel,58.82352941,Safari,1440,900,,,l,0.467,10,571,2,1,9,21,10,1,0,0,0,1,0,1,0,0,star ,circle,,,,,,,,,,,,,,,,,,,,,,,,,,,,,,,,,,,,,,,,,,,,,,,,,,,,,,
292546,2022-11-27_19h51.27.821,vts_reward_expectancy_bt,2022.2.4,MacIntel,58.82352941,Safari,1440,900,,,l,0.501,10,581,2,1,10,22,0,1,1,0,0,0,0,1,0,0,triangle,circle,,,,,,,,,,,,,,,,,,,,,,,,,,,,,,,,,,,,,,,,,,,,,,,,,,,,,,
292546,2022-11-27_19h51.27.821,vts_reward_expectancy_bt,2022.2.4,MacIntel,58.82352941,Safari,1440,900,,,a,0.499,10,591,2,1,11,23,8,1,0,0,1,0,0,0,0,1,hexagon,star,,,,,,,,,,,,,,,,,,,,,,,,,,,,,,,,,,,,,,,,,,,,,,,,,,,,,,
292546,2022-11-27_19h51.27.821,vts_reward_expectancy_bt,2022.2.4,MacIntel,58.82352941,Safari,1440,900,,,a,0.3,10,601,2,2,0,24,2,1,1,0,0,0,0,0,0,1,triangle,star,,,,,,,,,,,,,,,,,,,,,,,,,,,,,,,,,,,,,,,,,,,,,,,,,,,,,,
292546,2022-11-27_19h51.27.821,vts_reward_expectancy_bt,2022.2.4,MacIntel,58.82352941,Safari,1440,900,,,a,0.354,10,611,2,2,1,25,5,1,0,1,0,0,0,0,0,1,circle,star,,,,,,,,,,,,,,,,,,,,,,,,,,,,,,,,,,,,,,,,,,,,,,,,,,,,,,
292546,2022-11-27_19h51.27.821,vts_reward_expectancy_bt,2022.2.4,MacIntel,58.82352941,Safari,1440,900,,,a,1.124,1,612,2,2,2,26,1,1,1,0,0,0,0,0,1,0,triangle,hexagon,,,,,,,,,,,,,,,,,,,,,,,,,,,,,,,,,,,,,,,,,,,,,,,,,,,,,,
292546,2022-11-27_19h51.27.821,vts_reward_expectancy_bt,2022.2.4,MacIntel,58.82352941,Safari,1440,900,,,l,0.266,10,622,2,2,3,27,7,1,0,0,1,0,0,1,0,0,hexagon,circle,,,,,,,,,,,,,,,,,,,,,,,,,,,,,,,,,,,,,,,,,,,,,,,,,,,,,,
292546,2022-11-27_19h51.27.821,vts_reward_expectancy_bt,2022.2.4,MacIntel,58.82352941,Safari,1440,900,,,l,0.382,10,632,2,2,4,28,11,1,0,0,0,1,0,0,1,0,star,hexagon,,,,,,,,,,,,,,,,,,,,,,,,,,,,,,,,,,,,,,,,,,,,,,,,,,,,,,
292546,2022-11-27_19h51.27.821,vts_reward_expectancy_bt,2022.2.4,MacIntel,58.82352941,Safari,1440,900,,,l,0.018,10,642,2,2,5,29,9,1,0,0,0,1,1,0,0,0,star,triangle,,,,,,,,,,,,,,,,,,,,,,,,,,,,,,,,,,,,,,,,,,,,,,,,,,,,,,
292546,2022-11-27_19h51.27.821,vts_reward_expectancy_bt,2022.2.4,MacIntel,58.82352941,Safari,1440,900,,,l,0.353,10,652,2,2,6,30,0,1,1,0,0,0,0,1,0,0,triangle,circle,,,,,,,,,,,,,,,,,,,,,,,,,,,,,,,,,,,,,,,,,,,,,,,,,,,,,,
292546,2022-11-27_19h51.27.821,vts_reward_expectancy_bt,2022.2.4,MacIntel,58.82352941,Safari,1440,900,,,l,0.351,10,662,2,2,7,31,10,1,0,0,0,1,0,1,0,0,star ,circle,,,,,,,,,,,,,,,,,,,,,,,,,,,,,,,,,,,,,,,,,,,,,,,,,,,,,,
292546,2022-11-27_19h51.27.821,vts_reward_expectancy_bt,2022.2.4,MacIntel,58.82352941,Safari,1440,900,,,a,0.441,1,663,2,2,8,32,3,1,0,1,0,0,1,0,0,0,circle,triangle,,,,,,,,,,,,,,,,,,,,,,,,,,,,,,,,,,,,,,,,,,,,,,,,,,,,,,
292546,2022-11-27_19h51.27.821,vts_reward_expectancy_bt,2022.2.4,MacIntel,58.82352941,Safari,1440,900,,,l,0.323,1,664,2,2,9,33,6,1,0,0,1,0,1,0,0,0,hexagon,triangle,,,,,,,,,,,,,,,,,,,,,,,,,,,,,,,,,,,,,,,,,,,,,,,,,,,,,,
292546,2022-11-27_19h51.27.821,vts_reward_expectancy_bt,2022.2.4,MacIntel,58.82352941,Safari,1440,900,,,a,0.386,10,674,2,2,10,34,8,1,0,0,1,0,0,0,0,1,hexagon,star,,,,,,,,,,,,,,,,,,,,,,,,,,,,,,,,,,,,,,,,,,,,,,,,,,,,,,
292546,2022-11-27_19h51.27.821,vts_reward_expectancy_bt,2022.2.4,MacIntel,58.82352941,Safari,1440,900,,,a,0.522,10,684,2,2,11,35,4,1,0,1,0,0,0,0,1,0,circle,hexagon,,,,,,,,,,,,,,,,,,,,,,,,,,,,,,,,,,,,,,,,,,,,,,,,,,,,,,
292546,2022-11-27_19h51.27.821,vts_reward_expectancy_bt,2022.2.4,MacIntel,58.82352941,Safari,1440,900,,,,,,,,,,,,,,,,,,,,,,,D,139,hexagon,1,0,d,1.393,0,0,0,0,0,1,,,,,,,,,,,,,,,,,,,,,,,,,,,,,,,,,,,,,,,,,
292546,2022-11-27_19h51.27.821,vts_reward_expectancy_bt,2022.2.4,MacIntel,58.82352941,Safari,1440,900,,,,,,,,,,,,,,,,,,,,,,,H,125,circle,1,0,d,2.139,0,1,0,1,0,1,,,,,,,,,,,,,,,,,,,,,,,,,,,,,,,,,,,,,,,,,
292546,2022-11-27_19h51.27.821,vts_reward_expectancy_bt,2022.2.4,MacIntel,58.82352941,Safari,1440,900,,,,,,,,,,,,,,,,,,,,,,,W,167,star,1,0,f,1.125,0,2,0,2,0,1,,,,,,,,,,,,,,,,,,,,,,,,,,,,,,,,,,,,,,,,,
292546,2022-11-27_19h51.27.821,vts_reward_expectancy_bt,2022.2.4,MacIntel,58.82352941,Safari,1440,900,,,,,,,,,,,,,,,,,,,,,,,S,181,triangle,1,0,f,0.691,0,3,0,3,0,1,,,,,,,,,,,,,,,,,,,,,,,,,,,,,,,,,,,,,,,,,
292546,2022-11-27_19h51.27.821,vts_reward_expectancy_bt,2022.2.4,MacIntel,58.82352941,Safari,1440,900,,,,,,,,,,,,,,,,,,,,,,,Y,146,hexagon,1,0,f,0.701,0,4,0,4,0,1,,,,,,,,,,,,,,,,,,,,,,,,,,,,,,,,,,,,,,,,,
292546,2022-11-27_19h51.27.821,vts_reward_expectancy_bt,2022.2.4,MacIntel,58.82352941,Safari,1440,900,,,,,,,,,,,,,,,,,,,,,,,F,132,circle,0,0,f,0.808,0,5,0,5,0,1,,,,,,,,,,,,,,,,,,,,,,,,,,,,,,,,,,,,,,,,,
292546,2022-11-27_19h51.27.821,vts_reward_expectancy_bt,2022.2.4,MacIntel,58.82352941,Safari,1440,900,,,,,,,,,,,,,,,,,,,,,,,U,160,star,1,1,f,1.659,0,6,0,6,0,1,,,,,,,,,,,,,,,,,,,,,,,,,,,,,,,,,,,,,,,,,
292546,2022-11-27_19h51.27.821,vts_reward_expectancy_bt,2022.2.4,MacIntel,58.82352941,Safari,1440,900,,,,,,,,,,,,,,,,,,,,,,,B,174,triangle,1,0,d,0.997,0,7,0,7,0,1,,,,,,,,,,,,,,,,,,,,,,,,,,,,,,,,,,,,,,,,,
292546,2022-11-27_19h51.27.821,vts_reward_expectancy_bt,2022.2.4,MacIntel,58.82352941,Safari,1440,900,,,,,,,,,,,,,,,,,,,,,,,D,139,hexagon,1,0,d,0.652,0,8,0,8,0,1,,,,,,,,,,,,,,,,,,,,,,,,,,,,,,,,,,,,,,,,,
292546,2022-11-27_19h51.27.821,vts_reward_expectancy_bt,2022.2.4,MacIntel,58.82352941,Safari,1440,900,,,,,,,,,,,,,,,,,,,,,,,H,125,triangle,1,0,d,1.265,0,9,0,9,0,1,,,,,,,,,,,,,,,,,,,,,,,,,,,,,,,,,,,,,,,,,
292546,2022-11-27_19h51.27.821,vts_reward_expectancy_bt,2022.2.4,MacIntel,58.82352941,Safari,1440,900,,,,,,,,,,,,,,,,,,,,,,,W,125,circle,1,0,,,1,,,,,,j,1.594,0,0,0,0,1,,,,,,,,,,,,,,,,,,,,,,,,,,,,,,,,,,
292546,2022-11-27_19h51.27.821,vts_reward_expectancy_bt,2022.2.4,MacIntel,58.82352941,Safari,1440,900,,,,,,,,,,,,,,,,,,,,,,,B,174,star,1,0,,,1,,,,,,k,0.554,1,0,1,0,1,,,,,,,,,,,,,,,,,,,,,,,,,,,,,,,,,,
292546,2022-11-27_19h51.27.821,vts_reward_expectancy_bt,2022.2.4,MacIntel,58.82352941,Safari,1440,900,,,,,,,,,,,,,,,,,,,,,,,D,181,triangle,1,0,,,1,,,,,,k,0.518,2,0,2,0,1,,,,,,,,,,,,,,,,,,,,,,,,,,,,,,,,,,
292546,2022-11-27_19h51.27.821,vts_reward_expectancy_bt,2022.2.4,MacIntel,58.82352941,Safari,1440,900,,,,,,,,,,,,,,,,,,,,,,,U,132,hexagon,1,0,,,1,,,,,,j,0.811,3,0,3,0,1,,,,,,,,,,,,,,,,,,,,,,,,,,,,,,,,,,
292546,2022-11-27_19h51.27.821,vts_reward_expectancy_bt,2022.2.4,MacIntel,58.82352941,Safari,1440,900,,,,,,,,,,,,,,,,,,,,,,,Y,160,circle,1,0,,,1,,,,,,k,0.526,4,0,4,0,1,,,,,,,,,,,,,,,,,,,,,,,,,,,,,,,,,,
292546,2022-11-27_19h51.27.821,vts_reward_expectancy_bt,2022.2.4,MacIntel,58.82352941,Safari,1440,900,,,,,,,,,,,,,,,,,,,,,,,F,167,star,1,0,,,1,,,,,,k,0.761,5,0,5,0,1,,,,,,,,,,,,,,,,,,,,,,,,,,,,,,,,,,
292546,2022-11-27_19h51.27.821,vts_reward_expectancy_bt,2022.2.4,MacIntel,58.82352941,Safari,1440,900,,,,,,,,,,,,,,,,,,,,,,,H,146,triangle,0,0,,,1,,,,,,k,1.561,6,0,6,0,1,,,,,,,,,,,,,,,,,,,,,,,,,,,,,,,,,,
292546,2022-11-27_19h51.27.821,vts_reward_expectancy_bt,2022.2.4,MacIntel,58.82352941,Safari,1440,900,,,,,,,,,,,,,,,,,,,,,,,S,139,hexagon,1,1,,,1,,,,,,j,1.583,7,0,7,0,1,,,,,,,,,,,,,,,,,,,,,,,,,,,,,,,,,,
292546,2022-11-27_19h51.27.821,vts_reward_expectancy_bt,2022.2.4,MacIntel,58.82352941,Safari,1440,900,,,,,,,,,,,,,,,,,,,,,,,W,125,hexagon,1,0,,,1,,,,,,j,0.66,8,0,8,0,1,,,,,,,,,,,,,,,,,,,,,,,,,,,,,,,,,,
292546,2022-11-27_19h51.27.821,vts_reward_expectancy_bt,2022.2.4,MacIntel,58.82352941,Safari,1440,900,,,,,,,,,,,,,,,,,,,,,,,B,174,circle,1,0,,,1,,,,,,k,1.029,9,0,9,0,1,,,,,,,,,,,,,,,,,,,,,,,,,,,,,,,,,,
292546,2022-11-27_19h51.27.821,vts_reward_expectancy_bt,2022.2.4,MacIntel,58.82352941,Safari,1440,900,,,,,0,684,,,,,,,,,,,,,,,,,S,146,star,-1,0,,,2,,,,,,,,,,,,,-1,no_choice,NA,,vtsPrac,0,0,0,0,1,,,,,,,,,,,,,,,,,,,,,,,,
292546,2022-11-27_19h51.27.821,vts_reward_expectancy_bt,2022.2.4,MacIntel,58.82352941,Safari,1440,900,,,,,0,684,,,,,,,,,,,,,,,,,Y,174,circle,1,0,,,2,,,,,,,,,,,,,switch,letter,lettSwt,f,vtsPrac,1,0,1,0,1,1.066,,,,,,,,,,,,,,,,,,,,,,,
292546,2022-11-27_19h51.27.821,vts_reward_expectancy_bt,2022.2.4,MacIntel,58.82352941,Safari,1440,900,,,,,0,684,,,,,,,,,,,,,,,,,B,139,star,1,0,,,2,,,,,,,,,,,,,switch,number,numSwt,j,vtsPrac,2,0,2,0,1,0.962,,,,,,,,,,,,,,,,,,,,,,,
292546,2022-11-27_19h51.27.821,vts_reward_expectancy_bt,2022.2.4,MacIntel,58.82352941,Safari,1440,900,,,,,0,684,,,,,,,,,,,,,,,,,W,160,circle,1,0,,,2,,,,,,,,,,,,,switch,letter,lettSwt,f,vtsPrac,3,0,3,0,1,0.856,,,,,,,,,,,,,,,,,,,,,,,
292546,2022-11-27_19h51.27.821,vts_reward_expectancy_bt,2022.2.4,MacIntel,58.82352941,Safari,1440,900,,,,,0,684,,,,,,,,,,,,,,,,,S,146,triangle,0,0,,,2,,,,,,,,,,,,,switch,number,NA,k,vtsPrac,4,0,4,0,1,1.9,,,,,,,,,,,,,,,,,,,,,,,
292546,2022-11-27_19h51.27.821,vts_reward_expectancy_bt,2022.2.4,MacIntel,58.82352941,Safari,1440,900,,,,,0,684,,,,,,,,,,,,,,,,,Y,174,hexagon,1,1,,,2,,,,,,,,,,,,,switch,letter,lettSwt,f,vtsPrac,5,0,5,0,1,1.128,,,,,,,,,,,,,,,,,,,,,,,
292546,2022-11-27_19h51.27.821,vts_reward_expectancy_bt,2022.2.4,MacIntel,58.82352941,Safari,1440,900,,,,,0,684,,,,,,,,,,,,,,,,,B,139,triangle,1,0,,,2,,,,,,,,,,,,,switch,number,numSwt,j,vtsPrac,6,0,6,0,1,1.117,,,,,,,,,,,,,,,,,,,,,,,
292546,2022-11-27_19h51.27.821,vts_reward_expectancy_bt,2022.2.4,MacIntel,58.82352941,Safari,1440,900,,,,,0,684,,,,,,,,,,,,,,,,,W,160,star,1,0,,,2,,,,,,,,,,,,,switch,letter,lettSwt,f,vtsPrac,7,0,7,0,1,0.743,,,,,,,,,,,,,,,,,,,,,,,
292546,2022-11-27_19h51.27.821,vts_reward_expectancy_bt,2022.2.4,MacIntel,58.82352941,Safari,1440,900,,,,,0,684,,,,,,,,,,,,,,,,,B,125,circle,1,0,,,2,,,,,,,,,,,,,repeat,letter,lettRpt,d,vtsPrac,8,0,8,0,1,1.033,,,,,,,,,,,,,,,,,,,,,,,
292546,2022-11-27_19h51.27.821,vts_reward_expectancy_bt,2022.2.4,MacIntel,58.82352941,Safari,1440,900,,,,,0,684,,,,,,,,,,,,,,,,,S,174,hexagon,1,0,,,2,,,,,,,,,,,,,repeat,letter,lettRpt,f,vtsPrac,9,0,9,0,1,0.775,,,,,,,,,,,,,,,,,,,,,,,
292546,2022-11-27_19h51.27.821,vts_reward_expectancy_bt,2022.2.4,MacIntel,58.82352941,Safari,1440,900,,,,,0,684,,,,,,,,,,,,,,,,,F,160,circle,0,0,,,2,,,,,,,,,,,,,repeat,letter,NA,f,vtsPrac,10,0,10,0,1,0.86,,,,,,,,,,,,,,,,,,,,,,,
292546,2022-11-27_19h51.27.821,vts_reward_expectancy_bt,2022.2.4,MacIntel,58.82352941,Safari,1440,900,,,,,0,684,,,,,,,,,,,,,,,,,U,132,triangle,0,1,,,2,,,,,,,,,,,,,repeat,letter,NA,d,vtsPrac,11,0,11,0,1,1.36,,,,,,,,,,,,,,,,,,,,,,,
292546,2022-11-27_19h51.27.821,vts_reward_expectancy_bt,2022.2.4,MacIntel,58.82352941,Safari,1440,900,,,,,0,684,,,,,,,,,,,,,,,,,H,167,triangle,1,1,,,2,,,,,,,,,,,,,switch,number,numSwt,k,vtsPrac,12,0,12,0,1,2.725,,,,,,,,,,,,,,,,,,,,,,,
292546,2022-11-27_19h51.27.821,vts_reward_expectancy_bt,2022.2.4,MacIntel,58.82352941,Safari,1440,900,,,,,0,684,,,,,,,,,,,,,,,,,S,174,star,1,0,,,2,,,,,,,,,,,,,switch,letter,lettSwt,f,vtsPrac,13,0,13,0,1,1.777,,,,,,,,,,,,,,,,,,,,,,,
292546,2022-11-27_19h51.27.821,vts_reward_expectancy_bt,2022.2.4,MacIntel,58.82352941,Safari,1440,900,,,,,0,684,,,,,,,,,,,,,,,,,F,181,triangle,1,0,,,2,,,,,,,,,,,,,repeat,letter,lettRpt,d,vtsPrac,14,0,14,0,1,2.608,,,,,,,,,,,,,,,,,,,,,,,
292546,2022-11-27_19h51.27.821,vts_reward_expectancy_bt,2022.2.4,MacIntel,58.82352941,Safari,1440,900,,,,,0,684,,,,,,,,,,,,,,,,,W,139,star,1,0,,,2,,,,,,,,,,,,,repeat,letter,lettRpt,f,vtsPrac,15,0,15,0,1,1.877,,,,,,,,,,,,,,,,,,,,,,,
292546,2022-11-27_19h51.27.821,vts_reward_expectancy_bt,2022.2.4,MacIntel,58.82352941,Safari,1440,900,,,,,0,684,,,,,,,,,,,,,,,,,B,181,hexagon,1,0,,,2,,,,,,,,,,,,,repeat,letter,lettRpt,d,vtsPrac,16,0,16,0,1,1.493,,,,,,,,,,,,,,,,,,,,,,,
292546,2022-11-27_19h51.27.821,vts_reward_expectancy_bt,2022.2.4,MacIntel,58.82352941,Safari,1440,900,,,,,0,684,,,,,,,,,,,,,,,,,U,132,star,0,0,,,2,,,,,,,,,,,,,repeat,letter,NA,d,vtsPrac,17,0,17,0,1,2.107,,,,,,,,,,,,,,,,,,,,,,,
292546,2022-11-27_19h51.27.821,vts_reward_expectancy_bt,2022.2.4,MacIntel,58.82352941,Safari,1440,900,,,,,0,684,,,,,,,,,,,,,,,,,W,125,circle,0,1,,,2,,,,,,,,,,,,,repeat,letter,NA,d,vtsPrac,18,0,18,0,1,2.257,,,,,,,,,,,,,,,,,,,,,,,
292546,2022-11-27_19h51.27.821,vts_reward_expectancy_bt,2022.2.4,MacIntel,58.82352941,Safari,1440,900,,,,,0,684,,,,,,,,,,,,,,,,,H,174,triangle,1,1,,,2,,,,,,,,,,,,,repeat,letter,lettRpt,d,vtsPrac,19,0,19,0,1,2.461,,,,,,,,,,,,,,,,,,,,,,,
292546,2022-11-27_19h51.27.821,vts_reward_expectancy_bt,2022.2.4,MacIntel,58.82352941,Safari,1440,900,,,,,0,684,,,,,,,,,,,,,,,,,H,174,circle,1,0,,,2,,,,,,,,,,,,,repeat,letter,lettRpt,d,vtsPrac,20,0,20,0,1,2.815,,,,,,,,,,,,,,,,,,,,,,,
292546,2022-11-27_19h51.27.821,vts_reward_expectancy_bt,2022.2.4,MacIntel,58.82352941,Safari,1440,900,,,,,0,684,,,,,,,,,,,,,,,,,W,181,triangle,0,0,,,2,,,,,,,,,,,,,repeat,letter,NA,d,vtsPrac,21,0,21,0,1,1.725,,,,,,,,,,,,,,,,,,,,,,,
292546,2022-11-27_19h51.27.821,vts_reward_expectancy_bt,2022.2.4,MacIntel,58.82352941,Safari,1440,900,,,,,0,684,,,,,,,,,,,,,,,,,Y,125,triangle,1,1,,,2,,,,,,,,,,,,,repeat,letter,lettRpt,f,vtsPrac,22,0,22,0,1,1.996,,,,,,,,,,,,,,,,,,,,,,,
292546,2022-11-27_19h51.27.821,vts_reward_expectancy_bt,2022.2.4,MacIntel,58.82352941,Safari,1440,900,,,,,0,684,,,,,,,,,,,,,,,,,B,139,hexagon,1,0,,,2,,,,,,,,,,,,,switch,number,numSwt,j,vtsPrac,23,0,23,0,1,1.602,,,,,,,,,,,,,,,,,,,,,,,
292546,2022-11-27_19h51.27.821,vts_reward_expectancy_bt,2022.2.4,MacIntel,58.82352941,Safari,1440,900,,,,,0,684,,,,,,,,,,,,,,,,,S,174,hexagon,1,0,,,2,,,,,,,,,,,,,switch,letter,lettSwt,f,vtsPrac,24,0,24,0,1,1.91,,,,,,,,,,,,,,,,,,,,,,,
292546,2022-11-27_19h51.27.821,vts_reward_expectancy_bt,2022.2.4,MacIntel,58.82352941,Safari,1440,900,,,,,0,684,,,,,,,,,,,,,,,,,B,132,circle,1,0,,,2,,,,,,,,,,,,,repeat,letter,lettRpt,d,vtsPrac,25,0,25,0,1,1.009,,,,,,,,,,,,,,,,,,,,,,,
292546,2022-11-27_19h51.27.821,vts_reward_expectancy_bt,2022.2.4,MacIntel,58.82352941,Safari,1440,900,,,,,0,684,,,,,,,,,,,,,,,,,D,167,hexagon,1,0,,,2,,,,,,,,,,,,,repeat,letter,lettRpt,d,vtsPrac,26,0,26,0,1,1.695,,,,,,,,,,,,,,,,,,,,,,,
292546,2022-11-27_19h51.27.821,vts_reward_expectancy_bt,2022.2.4,MacIntel,58.82352941,Safari,1440,900,,,,,0,684,,,,,,,,,,,,,,,,,U,125,circle,1,0,,,2,,,,,,,,,,,,,repeat,letter,lettRpt,f,vtsPrac,27,0,27,0,1,1.591,,,,,,,,,,,,,,,,,,,,,,,
292546,2022-11-27_19h51.27.821,vts_reward_expectancy_bt,2022.2.4,MacIntel,58.82352941,Safari,1440,900,,,,,0,684,,,,,,,,,,,,,,,,,U,139,triangle,0,0,,,2,,,,,,,,,,,,,repeat,letter,NA,d,vtsPrac,28,0,28,0,1,2.119,,,,,,,,,,,,,,,,,,,,,,,
292546,2022-11-27_19h51.27.821,vts_reward_expectancy_bt,2022.2.4,MacIntel,58.82352941,Safari,1440,900,,,,,0,684,,,,,,,,,,,,,,,,,S,132,star,0,1,,,2,,,,,,,,,,,,,repeat,letter,NA,d,vtsPrac,29,0,29,0,1,0.795,,,,,,,,,,,,,,,,,,,,,,,
292546,2022-11-27_19h51.27.821,vts_reward_expectancy_bt,2022.2.4,MacIntel,58.82352941,Safari,1440,900,,,,,0,684,,,,,,,,,,,,,,,,,Y,125,hexagon,1,1,,,2,,,,,,,,,,,,,repeat,letter,lettRpt,f,vtsPrac,30,0,30,0,1,2.042,,,,,,,,,,,,,,,,,,,,,,,
292546,2022-11-27_19h51.27.821,vts_reward_expectancy_bt,2022.2.4,MacIntel,58.82352941,Safari,1440,900,,,,,0,684,,,,,,,,,,,,,,,,,B,181,star,0,0,,,2,,,,,,,,,,,,,repeat,letter,NA,f,vtsPrac,31,0,31,0,1,2.049,,,,,,,,,,,,,,,,,,,,,,,
292546,2022-11-27_19h51.27.821,vts_reward_expectancy_bt,2022.2.4,MacIntel,58.82352941,Safari,1440,900,,,,,0,684,,,,,,,,,,,,,,,,,B,125,circle,1,1,,,3,,,,,,,,,,,,,repeat,letter,lettRpt,d,vtsPrac,0,0,0,0,1,0.895,,,,,,,,,,,,,,,,,,,,,,,
292546,2022-11-27_19h51.27.821,vts_reward_expectancy_bt,2022.2.4,MacIntel,58.82352941,Safari,1440,900,,,,,0,684,,,,,,,,,,,,,,,,,W,167,hexagon,1,0,,,3,,,,,,,,,,,,,switch,number,numSwt,k,vtsPrac,1,0,1,0,1,1.34,,,,,,,,,,,,,,,,,,,,,,,
292546,2022-11-27_19h51.27.821,vts_reward_expectancy_bt,2022.2.4,MacIntel,58.82352941,Safari,1440,900,,,,,0,684,,,,,,,,,,,,,,,,,F,160,circle,1,0,,,3,,,,,,,,,,,,,switch,letter,lettSwt,d,vtsPrac,2,0,2,0,1,2.563,,,,,,,,,,,,,,,,,,,,,,,
292546,2022-11-27_19h51.27.821,vts_reward_expectancy_bt,2022.2.4,MacIntel,58.82352941,Safari,1440,900,,,,,0,684,,,,,,,,,,,,,,,,,S,174,hexagon,1,0,,,3,,,,,,,,,,,,,repeat,letter,lettRpt,f,vtsPrac,3,0,3,0,1,1.675,,,,,,,,,,,,,,,,,,,,,,,
292546,2022-11-27_19h51.27.821,vts_reward_expectancy_bt,2022.2.4,MacIntel,58.82352941,Safari,1440,900,,,,,0,684,,,,,,,,,,,,,,,,,B,125,star,1,0,,,3,,,,,,,,,,,,,repeat,letter,lettRpt,d,vtsPrac,4,0,4,0,1,1.01,,,,,,,,,,,,,,,,,,,,,,,
292546,2022-11-27_19h51.27.821,vts_reward_expectancy_bt,2022.2.4,MacIntel,58.82352941,Safari,1440,900,,,,,0,684,,,,,,,,,,,,,,,,,W,167,triangle,1,0,,,3,,,,,,,,,,,,,repeat,letter,lettRpt,f,vtsPrac,5,0,5,0,1,1.311,,,,,,,,,,,,,,,,,,,,,,,
292546,2022-11-27_19h51.27.821,vts_reward_expectancy_bt,2022.2.4,MacIntel,58.82352941,Safari,1440,900,,,,,0,684,,,,,,,,,,,,,,,,,F,160,star,1,0,,,3,,,,,,,,,,,,,repeat,letter,lettRpt,d,vtsPrac,6,0,6,0,1,1.792,,,,,,,,,,,,,,,,,,,,,,,
292546,2022-11-27_19h51.27.821,vts_reward_expectancy_bt,2022.2.4,MacIntel,58.82352941,Safari,1440,900,,,,,0,684,,,,,,,,,,,,,,,,,S,174,hexagon,1,0,,,3,,,,,,,,,,,,,switch,number,numSwt,k,vtsPrac,7,0,7,0,1,2.009,,,,,,,,,,,,,,,,,,,,,,,
292546,2022-11-27_19h51.27.821,vts_reward_expectancy_bt,2022.2.4,MacIntel,58.82352941,Safari,1440,900,,,,,0,684,,,,,,,,,,,,,,,,,B,146,hexagon,1,0,,,3,,,,,,,,,,,,,switch,letter,lettSwt,d,vtsPrac,8,0,8,0,1,2.55,,,,,,,,,,,,,,,,,,,,,,,
292546,2022-11-27_19h51.27.821,vts_reward_expectancy_bt,2022.2.4,MacIntel,58.82352941,Safari,1440,900,,,,,0,684,,,,,,,,,,,,,,,,,F,181,triangle,1,0,,,3,,,,,,,,,,,,,repeat,letter,lettRpt,d,vtsPrac,9,0,9,0,1,2.191,,,,,,,,,,,,,,,,,,,,,,,
292546,2022-11-27_19h51.27.821,vts_reward_expectancy_bt,2022.2.4,MacIntel,58.82352941,Safari,1440,900,,,,,0,684,,,,,,,,,,,,,,,,,W,174,hexagon,1,0,,,3,,,,,,,,,,,,,switch,number,numSwt,k,vtsPrac,10,0,10,0,1,1.244,,,,,,,,,,,,,,,,,,,,,,,
292546,2022-11-27_19h51.27.821,vts_reward_expectancy_bt,2022.2.4,MacIntel,58.82352941,Safari,1440,900,,,,,0,684,,,,,,,,,,,,,,,,,S,125,star,-1,0,,,3,,,,,,,,,,,,,switch,no_choice,NA,,vtsPrac,11,0,11,0,1,,,,,,,,,,,,,,,,,,,,,,,,
292546,2022-11-27_19h51.27.821,vts_reward_expectancy_bt,2022.2.4,MacIntel,58.82352941,Safari,1440,900,,,,,0,684,,,,,,,,,,,,,,,,,S,132,triangle,1,0,,,3,,,,,,,,,,,,,switch,letter,lettSwt,f,vtsPrac,12,0,12,0,1,1.748,,,,,,,,,,,,,,,,,,,,,,,
292546,2022-11-27_19h51.27.821,vts_reward_expectancy_bt,2022.2.4,MacIntel,58.82352941,Safari,1440,900,,,,,0,684,,,,,,,,,,,,,,,,,D,139,star,1,0,,,3,,,,,,,,,,,,,switch,number,numSwt,j,vtsPrac,13,0,13,0,1,2.329,,,,,,,,,,,,,,,,,,,,,,,
292546,2022-11-27_19h51.27.821,vts_reward_expectancy_bt,2022.2.4,MacIntel,58.82352941,Safari,1440,900,,,,,0,684,,,,,,,,,,,,,,,,,H,160,hexagon,1,0,,,3,,,,,,,,,,,,,repeat,number,numRpt,k,vtsPrac,14,0,14,0,1,2.511,,,,,,,,,,,,,,,,,,,,,,,
292546,2022-11-27_19h51.27.821,vts_reward_expectancy_bt,2022.2.4,MacIntel,58.82352941,Safari,1440,900,,,,,0,684,,,,,,,,,,,,,,,,,Y,125,triangle,1,0,,,3,,,,,,,,,,,,,switch,letter,lettSwt,f,vtsPrac,15,0,15,0,1,1.747,,,,,,,,,,,,,,,,,,,,,,,
292546,2022-11-27_19h51.27.821,vts_reward_expectancy_bt,2022.2.4,MacIntel,58.82352941,Safari,1440,900,,,,,0,684,,,,,,,,,,,,,,,,,H,181,hexagon,1,0,,,3,,,,,,,,,,,,,switch,number,numSwt,k,vtsPrac,16,0,16,0,1,1.248,,,,,,,,,,,,,,,,,,,,,,,
292546,2022-11-27_19h51.27.821,vts_reward_expectancy_bt,2022.2.4,MacIntel,58.82352941,Safari,1440,900,,,,,0,684,,,,,,,,,,,,,,,,,F,125,star,1,0,,,3,,,,,,,,,,,,,repeat,number,numRpt,j,vtsPrac,17,0,17,0,1,1.544,,,,,,,,,,,,,,,,,,,,,,,
292546,2022-11-27_19h51.27.821,vts_reward_expectancy_bt,2022.2.4,MacIntel,58.82352941,Safari,1440,900,,,,,0,684,,,,,,,,,,,,,,,,,B,132,triangle,1,0,,,3,,,,,,,,,,,,,switch,letter,lettSwt,d,vtsPrac,18,0,18,0,1,0.782,,,,,,,,,,,,,,,,,,,,,,,
292546,2022-11-27_19h51.27.821,vts_reward_expectancy_bt,2022.2.4,MacIntel,58.82352941,Safari,1440,900,,,,,0,684,,,,,,,,,,,,,,,,,D,146,star,1,0,,,3,,,,,,,,,,,,,switch,number,numSwt,j,vtsPrac,19,0,19,0,1,1.627,,,,,,,,,,,,,,,,,,,,,,,
292546,2022-11-27_19h51.27.821,vts_reward_expectancy_bt,2022.2.4,MacIntel,58.82352941,Safari,1440,900,,,,,0,684,,,,,,,,,,,,,,,,,B,174,star,1,0,,,3,,,,,,,,,,,,,repeat,number,numRpt,k,vtsPrac,20,0,20,0,1,2.674,,,,,,,,,,,,,,,,,,,,,,,
292546,2022-11-27_19h51.27.821,vts_reward_expectancy_bt,2022.2.4,MacIntel,58.82352941,Safari,1440,900,,,,,0,684,,,,,,,,,,,,,,,,,H,181,triangle,0,0,,,3,,,,,,,,,,,,,switch,letter,NA,f,vtsPrac,21,0,21,0,1,1.791,,,,,,,,,,,,,,,,,,,,,,,
292546,2022-11-27_19h51.27.821,vts_reward_expectancy_bt,2022.2.4,MacIntel,58.82352941,Safari,1440,900,,,,,0,684,,,,,,,,,,,,,,,,,S,132,circle,0,1,,,3,,,,,,,,,,,,,switch,number,NA,k,vtsPrac,22,0,22,0,1,2.362,,,,,,,,,,,,,,,,,,,,,,,
292546,2022-11-27_19h51.27.821,vts_reward_expectancy_bt,2022.2.4,MacIntel,58.82352941,Safari,1440,900,,,,,0,684,,,,,,,,,,,,,,,,,Y,160,triangle,1,1,,,3,,,,,,,,,,,,,switch,letter,lettSwt,f,vtsPrac,23,0,23,0,1,1.611,,,,,,,,,,,,,,,,,,,,,,,
292546,2022-11-27_19h51.27.821,vts_reward_expectancy_bt,2022.2.4,MacIntel,58.82352941,Safari,1440,900,,,,,0,684,,,,,,,,,,,,,,,,,D,139,circle,1,0,,,3,,,,,,,,,,,,,repeat,letter,lettRpt,d,vtsPrac,24,0,24,0,1,1.847,,,,,,,,,,,,,,,,,,,,,,,
292546,2022-11-27_19h51.27.821,vts_reward_expectancy_bt,2022.2.4,MacIntel,58.82352941,Safari,1440,900,,,,,0,684,,,,,,,,,,,,,,,,,S,125,hexagon,1,0,,,3,,,,,,,,,,,,,switch,number,numSwt,j,vtsPrac,25,0,25,0,1,1.88,,,,,,,,,,,,,,,,,,,,,,,
292546,2022-11-27_19h51.27.821,vts_reward_expectancy_bt,2022.2.4,MacIntel,58.82352941,Safari,1440,900,,,,,0,684,,,,,,,,,,,,,,,,,W,174,hexagon,1,0,,,3,,,,,,,,,,,,,repeat,number,numRpt,k,vtsPrac,26,0,26,0,1,1.76,,,,,,,,,,,,,,,,,,,,,,,
292546,2022-11-27_19h51.27.821,vts_reward_expectancy_bt,2022.2.4,MacIntel,58.82352941,Safari,1440,900,,,,,0,684,,,,,,,,,,,,,,,,,F,146,triangle,1,0,,,3,,,,,,,,,,,,,repeat,number,numRpt,j,vtsPrac,27,0,27,0,1,2.129,,,,,,,,,,,,,,,,,,,,,,,
292546,2022-11-27_19h51.27.821,vts_reward_expectancy_bt,2022.2.4,MacIntel,58.82352941,Safari,1440,900,,,,,0,684,,,,,,,,,,,,,,,,,S,160,triangle,1,0,,,3,,,,,,,,,,,,,switch,letter,lettSwt,f,vtsPrac,28,0,28,0,1,1.698,,,,,,,,,,,,,,,,,,,,,,,
292546,2022-11-27_19h51.27.821,vts_reward_expectancy_bt,2022.2.4,MacIntel,58.82352941,Safari,1440,900,,,,,0,684,,,,,,,,,,,,,,,,,H,132,star,1,0,,,3,,,,,,,,,,,,,repeat,letter,lettRpt,d,vtsPrac,29,0,29,0,1,2.392,,,,,,,,,,,,,,,,,,,,,,,
292546,2022-11-27_19h51.27.821,vts_reward_expectancy_bt,2022.2.4,MacIntel,58.82352941,Safari,1440,900,,,,,0,684,,,,,,,,,,,,,,,,,D,139,circle,1,0,,,3,,,,,,,,,,,,,switch,number,numSwt,j,vtsPrac,30,0,30,0,1,1.009,,,,,,,,,,,,,,,,,,,,,,,
292546,2022-11-27_19h51.27.821,vts_reward_expectancy_bt,2022.2.4,MacIntel,58.82352941,Safari,1440,900,,,,,0,684,,,,,,,,,,,,,,,,,U,167,star,1,0,,,3,,,,,,,,,,,,,repeat,number,numRpt,k,vtsPrac,31,0,31,0,1,1.287,,,,,,,,,,,,,,,,,,,,,,,
292546,2022-11-27_19h51.27.821,vts_reward_expectancy_bt,2022.2.4,MacIntel,58.82352941,Safari,1440,900,,,,,,,,,,,,,,,,,,,,,,,,,,,,,,,,,,,,,,,,,,,,,,,,,,,,,,,,,,,,,,,,,,,,,,,,,,,,
292546,2022-11-27_19h51.27.821,vts_reward_expectancy_bt,2022.2.4,MacIntel,58.82352941,Safari,1440,900,,,,,,,,,,,,,,,,,,,,,,,,,,,,,,,,,,,,,,,,,,,,,,,,,,,,,,,,,,,,,,,,,,,,,,,,,,,,
292546,2022-11-27_19h51.27.821,vts_reward_expectancy_bt,2022.2.4,MacIntel,58.82352941,Safari,1440,900,,,,,0,684,,,,,,,,,,,,,,,,,U,146,star,0,0,,,,,,,,,,,,,,,,repeat,number,NA,k,noRew,,,,,,0.892,0,0,0,0,0,1,,,,,,,,,,,,,,,,,
292546,2022-11-27_19h51.27.821,vts_reward_expectancy_bt,2022.2.4,MacIntel,58.82352941,Safari,1440,900,,,,,0,684,,,,,,,,,,,,,,,,,Y,167,circle,1,1,,,,,,,,,,,,,,,,switch,letter,lettSwt,f,noRew,,,,,,0.882,0,1,0,1,0,1,,,,,,,,,,,,,,,,,
292546,2022-11-27_19h51.27.821,vts_reward_expectancy_bt,2022.2.4,MacIntel,58.82352941,Safari,1440,900,,,,,0,684,,,,,,,,,,,,,,,,,H,174,star,1,0,,,,,,,,,,,,,,,,switch,number,numSwt,k,noRew,,,,,,1.009,0,2,0,2,0,1,,,,,,,,,,,,,,,,,
292546,2022-11-27_19h51.27.821,vts_reward_expectancy_bt,2022.2.4,MacIntel,58.82352941,Safari,1440,900,,,,,0,684,,,,,,,,,,,,,,,,,F,181,circle,0,0,,,,,,,,,,,,,,,,switch,letter,NA,f,noRew,,,,,,0.749,0,3,0,3,0,1,,,,,,,,,,,,,,,,,
292546,2022-11-27_19h51.27.821,vts_reward_expectancy_bt,2022.2.4,MacIntel,58.82352941,Safari,1440,900,,,,,0,684,,,,,,,,,,,,,,,,,U,146,star,0,1,,,,,,,,,,,,,,,,switch,number,NA,k,noRew,,,,,,2.478,0,4,0,4,0,1,,,,,,,,,,,,,,,,,
292546,2022-11-27_19h51.27.821,vts_reward_expectancy_bt,2022.2.4,MacIntel,58.82352941,Safari,1440,900,,,,,0,684,,,,,,,,,,,,,,,,,Y,167,hexagon,1,1,,,,,,,,,,,,,,,,switch,letter,lettSwt,f,noRew,,,,,,1.274,0,5,0,5,0,1,,,,,,,,,,,,,,,,,
292546,2022-11-27_19h51.27.821,vts_reward_expectancy_bt,2022.2.4,MacIntel,58.82352941,Safari,1440,900,,,,,0,684,,,,,,,,,,,,,,,,,H,174,hexagon,1,0,,,,,,,,,,,,,,,,switch,number,numSwt,k,noRew,,,,,,1.895,0,6,0,6,0,1,,,,,,,,,,,,,,,,,
292546,2022-11-27_19h51.27.821,vts_reward_expectancy_bt,2022.2.4,MacIntel,58.82352941,Safari,1440,900,,,,,0,684,,,,,,,,,,,,,,,,,F,181,circle,0,0,,,,,,,,,,,,,,,,switch,letter,NA,f,noRew,,,,,,1.85,0,7,0,7,0,1,,,,,,,,,,,,,,,,,
292546,2022-11-27_19h51.27.821,vts_reward_expectancy_bt,2022.2.4,MacIntel,58.82352941,Safari,1440,900,,,,,0,684,,,,,,,,,,,,,,,,,Y,167,star,1,1,,,,,,,,,,,,,,,,repeat,letter,lettRpt,f,noRew,,,,,,1.275,0,8,0,8,0,1,,,,,,,,,,,,,,,,,
292546,2022-11-27_19h51.27.821,vts_reward_expectancy_bt,2022.2.4,MacIntel,58.82352941,Safari,1440,900,,,,,0,684,,,,,,,,,,,,,,,,,H,125,triangle,1,0,,,,,,,,,,,,,,,,repeat,letter,lettRpt,d,noRew,,,,,,2.159,0,9,0,9,0,1,,,,,,,,,,,,,,,,,
292546,2022-11-27_19h51.27.821,vts_reward_expectancy_bt,2022.2.4,MacIntel,58.82352941,Safari,1440,900,,,,,0,684,,,,,,,,,,,,,,,,,B,174,hexagon,1,0,,,,,,,,,,,,,,,,switch,number,numSwt,k,noRew,,,,,,1.445,0,10,0,10,0,1,,,,,,,,,,,,,,,,,
292546,2022-11-27_19h51.27.821,vts_reward_expectancy_bt,2022.2.4,MacIntel,58.82352941,Safari,1440,900,,,,,0,684,,,,,,,,,,,,,,,,,F,132,circle,0,0,,,,,,,,,,,,,,,,switch,letter,NA,f,noRew,,,,,,1.13,0,11,0,11,0,1,,,,,,,,,,,,,,,,,
292546,2022-11-27_19h51.27.821,vts_reward_expectancy_bt,2022.2.4,MacIntel,58.82352941,Safari,1440,900,,,,,0,684,,,,,,,,,,,,,,,,,F,167,triangle,-1,1,,,,,,,,,,,,,,,,switch,no_choice,NA,,noRew,,,,,,,0,12,0,12,0,1,,,,,,,,,,,,,,,,,
292546,2022-11-27_19h51.27.821,vts_reward_expectancy_bt,2022.2.4,MacIntel,58.82352941,Safari,1440,900,,,,,0,684,,,,,,,,,,,,,,,,,W,132,star,1,0,,,,,,,,,,,,,,,,switch,letter,lettSwt,f,noRew,,,,,,1.659,0,13,0,13,0,1,,,,,,,,,,,,,,,,,
292546,2022-11-27_19h51.27.821,vts_reward_expectancy_bt,2022.2.4,MacIntel,58.82352941,Safari,1440,900,,,,,0,684,,,,,,,,,,,,,,,,,U,125,hexagon,0,0,,,,,,,,,,,,,,,,repeat,letter,NA,d,noRew,,,,,,2.147,0,14,0,14,0,1,,,,,,,,,,,,,,,,,
292546,2022-11-27_19h51.27.821,vts_reward_expectancy_bt,2022.2.4,MacIntel,58.82352941,Safari,1440,900,,,,,0,684,,,,,,,,,,,,,,,,,S,139,circle,0,1,,,,,,,,,,,,,,,,switch,number,NA,k,noRew,,,,,,2.563,0,15,0,15,0,1,,,,,,,,,,,,,,,,,
292546,2022-11-27_19h51.27.821,vts_reward_expectancy_bt,2022.2.4,MacIntel,58.82352941,Safari,1440,900,,,,,0,684,,,,,,,,,,,,,,,,,S,132,triangle,1,1,,,,,,,,,,,,,,,,repeat,number,numRpt,j,noRew,,,,,,2.786,0,16,0,16,0,1,,,,,,,,,,,,,,,,,
292546,2022-11-27_19h51.27.821,vts_reward_expectancy_bt,2022.2.4,MacIntel,58.82352941,Safari,1440,900,,,,,0,684,,,,,,,,,,,,,,,,,H,146,circle,-1,0,,,,,,,,,,,,,,,,switch,no_choice,NA,,noRew,,,,,,,0,17,0,17,0,1,,,,,,,,,,,,,,,,,
292546,2022-11-27_19h51.27.821,vts_reward_expectancy_bt,2022.2.4,MacIntel,58.82352941,Safari,1440,900,,,,,0,684,,,,,,,,,,,,,,,,,U,174,circle,1,0,,,,,,,,,,,,,,,,switch,number,numSwt,k,noRew,,,,,,1.475,0,18,0,18,0,1,,,,,,,,,,,,,,,,,
292546,2022-11-27_19h51.27.821,vts_reward_expectancy_bt,2022.2.4,MacIntel,58.82352941,Safari,1440,900,,,,,0,684,,,,,,,,,,,,,,,,,W,181,triangle,1,0,,,,,,,,,,,,,,,,switch,letter,lettSwt,f,noRew,,,,,,1.893,0,19,0,19,0,1,,,,,,,,,,,,,,,,,
292546,2022-11-27_19h51.27.821,vts_reward_expectancy_bt,2022.2.4,MacIntel,58.82352941,Safari,1440,900,,,,,0,684,,,,,,,,,,,,,,,,,B,160,hexagon,1,0,,,,,,,,,,,,,,,,repeat,letter,lettRpt,d,noRew,,,,,,1.386,0,20,0,20,0,1,,,,,,,,,,,,,,,,,
292546,2022-11-27_19h51.27.821,vts_reward_expectancy_bt,2022.2.4,MacIntel,58.82352941,Safari,1440,900,,,,,0,684,,,,,,,,,,,,,,,,,H,132,circle,1,0,,,,,,,,,,,,,,,,switch,number,numSwt,j,noRew,,,,,,1.893,0,21,0,21,0,1,,,,,,,,,,,,,,,,,
292546,2022-11-27_19h51.27.821,vts_reward_expectancy_bt,2022.2.4,MacIntel,58.82352941,Safari,1440,900,,,,,0,684,,,,,,,,,,,,,,,,,D,125,triangle,1,0,,,,,,,,,,,,,,,,repeat,number,numRpt,j,noRew,,,,,,1.626,0,22,0,22,0,1,,,,,,,,,,,,,,,,,
292546,2022-11-27_19h51.27.821,vts_reward_expectancy_bt,2022.2.4,MacIntel,58.82352941,Safari,1440,900,,,,,0,684,,,,,,,,,,,,,,,,,F,167,star,0,0,,,,,,,,,,,,,,,,switch,letter,NA,f,noRew,,,,,,1.335,0,23,0,23,0,1,,,,,,,,,,,,,,,,,
292546,2022-11-27_19h51.27.821,vts_reward_expectancy_bt,2022.2.4,MacIntel,58.82352941,Safari,1440,900,,,,,0,684,,,,,,,,,,,,,,,,,H,160,triangle,-1,1,,,,,,,,,,,,,,,,switch,no_choice,NA,,noRew,,,,,,,0,24,0,24,0,1,,,,,,,,,,,,,,,,,
292546,2022-11-27_19h51.27.821,vts_reward_expectancy_bt,2022.2.4,MacIntel,58.82352941,Safari,1440,900,,,,,0,684,,,,,,,,,,,,,,,,,D,167,star,1,0,,,,,,,,,,,,,,,,switch,letter,lettSwt,d,noRew,,,,,,1.157,0,25,0,25,0,1,,,,,,,,,,,,,,,,,
292546,2022-11-27_19h51.27.821,vts_reward_expectancy_bt,2022.2.4,MacIntel,58.82352941,Safari,1440,900,,,,,0,684,,,,,,,,,,,,,,,,,F,146,hexagon,0,0,,,,,,,,,,,,,,,,switch,number,NA,k,noRew,,,,,,2.059,0,26,0,26,0,1,,,,,,,,,,,,,,,,,
292546,2022-11-27_19h51.27.821,vts_reward_expectancy_bt,2022.2.4,MacIntel,58.82352941,Safari,1440,900,,,,,0,684,,,,,,,,,,,,,,,,,Y,132,triangle,0,1,,,,,,,,,,,,,,,,switch,letter,NA,d,noRew,,,,,,1.693,0,27,0,27,0,1,,,,,,,,,,,,,,,,,
292546,2022-11-27_19h51.27.821,vts_reward_expectancy_bt,2022.2.4,MacIntel,58.82352941,Safari,1440,900,,,,,0,684,,,,,,,,,,,,,,,,,U,132,star,0,1,,,,,,,,,,,,,,,,switch,number,NA,k,noRew,,,,,,2.527,0,28,0,28,0,1,,,,,,,,,,,,,,,,,
292546,2022-11-27_19h51.27.821,vts_reward_expectancy_bt,2022.2.4,MacIntel,58.82352941,Safari,1440,900,,,,,0,684,,,,,,,,,,,,,,,,,S,125,triangle,0,1,,,,,,,,,,,,,,,,repeat,number,NA,k,noRew,,,,,,2.443,0,29,0,29,0,1,,,,,,,,,,,,,,,,,
292546,2022-11-27_19h51.27.821,vts_reward_expectancy_bt,2022.2.4,MacIntel,58.82352941,Safari,1440,900,,,,,0,684,,,,,,,,,,,,,,,,,H,174,circle,1,1,,,,,,,,,,,,,,,,repeat,number,numRpt,k,noRew,,,,,,2.566,0,30,0,30,0,1,,,,,,,,,,,,,,,,,
292546,2022-11-27_19h51.27.821,vts_reward_expectancy_bt,2022.2.4,MacIntel,58.82352941,Safari,1440,900,,,,,0,684,,,,,,,,,,,,,,,,,D,181,triangle,1,0,,,,,,,,,,,,,,,,repeat,number,numRpt,k,noRew,,,,,,1.995,0,31,0,31,0,1,,,,,,,,,,,,,,,,,
292546,2022-11-27_19h51.27.821,vts_reward_expectancy_bt,2022.2.4,MacIntel,58.82352941,Safari,1440,900,,,,,0,684,,,,,,,,,,,,,,,,,B,146,hexagon,1,0,,,,,,,,,,,,,,,,switch,letter,lettSwt,d,noRew,,,,,,1.876,0,32,0,32,0,1,,,,,,,,,,,,,,,,,
292546,2022-11-27_19h51.27.821,vts_reward_expectancy_bt,2022.2.4,MacIntel,58.82352941,Safari,1440,900,,,,,0,684,,,,,,,,,,,,,,,,,W,174,triangle,1,0,,,,,,,,,,,,,,,,switch,number,numSwt,k,noRew,,,,,,2.135,0,33,0,33,0,1,,,,,,,,,,,,,,,,,
292546,2022-11-27_19h51.27.821,vts_reward_expectancy_bt,2022.2.4,MacIntel,58.82352941,Safari,1440,900,,,,,0,684,,,,,,,,,,,,,,,,,D,132,star,1,0,,,,,,,,,,,,,,,,switch,letter,lettSwt,d,noRew,,,,,,1.068,0,34,0,34,0,1,,,,,,,,,,,,,,,,,
292546,2022-11-27_19h51.27.821,vts_reward_expectancy_bt,2022.2.4,MacIntel,58.82352941,Safari,1440,900,,,,,0,684,,,,,,,,,,,,,,,,,S,167,triangle,1,0,,,,,,,,,,,,,,,,repeat,letter,lettRpt,f,noRew,,,,,,2.343,0,35,0,35,0,1,,,,,,,,,,,,,,,,,
292546,2022-11-27_19h51.27.821,vts_reward_expectancy_bt,2022.2.4,MacIntel,58.82352941,Safari,1440,900,,,,,0,684,,,,,,,,,,,,,,,,,B,160,hexagon,1,0,,,,,,,,,,,,,,,,switch,number,numSwt,k,noRew,,,,,,2.131,0,36,0,36,0,1,,,,,,,,,,,,,,,,,
292546,2022-11-27_19h51.27.821,vts_reward_expectancy_bt,2022.2.4,MacIntel,58.82352941,Safari,1440,900,,,,,0,684,,,,,,,,,,,,,,,,,W,181,triangle,1,0,,,,,,,,,,,,,,,,switch,letter,lettSwt,f,noRew,,,,,,1.733,0,37,0,37,0,1,,,,,,,,,,,,,,,,,
292546,2022-11-27_19h51.27.821,vts_reward_expectancy_bt,2022.2.4,MacIntel,58.82352941,Safari,1440,900,,,,,0,684,,,,,,,,,,,,,,,,,D,146,star,1,0,,,,,,,,,,,,,,,,repeat,letter,lettRpt,d,noRew,,,,,,1.209,0,38,0,38,0,1,,,,,,,,,,,,,,,,,
292546,2022-11-27_19h51.27.821,vts_reward_expectancy_bt,2022.2.4,MacIntel,58.82352941,Safari,1440,900,,,,,0,684,,,,,,,,,,,,,,,,,F,132,circle,1,0,,,,,,,,,,,,,,,,repeat,letter,lettRpt,d,noRew,,,,,,1.318,0,39,0,39,0,1,,,,,,,,,,,,,,,,,
292546,2022-11-27_19h51.27.821,vts_reward_expectancy_bt,2022.2.4,MacIntel,58.82352941,Safari,1440,900,,,,,0,684,,,,,,,,,,,,,,,,,Y,146,triangle,0,0,,,,,,,,,,,,,,,,switch,number,NA,k,noRew,,,,,,2.811,0,40,0,40,0,1,,,,,,,,,,,,,,,,,
292546,2022-11-27_19h51.27.821,vts_reward_expectancy_bt,2022.2.4,MacIntel,58.82352941,Safari,1440,900,,,,,0,684,,,,,,,,,,,,,,,,,B,174,circle,1,1,,,,,,,,,,,,,,,,repeat,number,numRpt,k,noRew,,,,,,1.26,0,41,0,41,0,1,,,,,,,,,,,,,,,,,
292546,2022-11-27_19h51.27.821,vts_reward_expectancy_bt,2022.2.4,MacIntel,58.82352941,Safari,1440,900,,,,,0,684,,,,,,,,,,,,,,,,,H,167,circle,1,0,,,,,,,,,,,,,,,,switch,letter,lettSwt,d,noRew,,,,,,1.76,0,42,0,42,0,1,,,,,,,,,,,,,,,,,
292546,2022-11-27_19h51.27.821,vts_reward_expectancy_bt,2022.2.4,MacIntel,58.82352941,Safari,1440,900,,,,,0,684,,,,,,,,,,,,,,,,,F,132,star,1,0,,,,,,,,,,,,,,,,repeat,letter,lettRpt,d,noRew,,,,,,1.378,0,43,0,43,0,1,,,,,,,,,,,,,,,,,
292546,2022-11-27_19h51.27.821,vts_reward_expectancy_bt,2022.2.4,MacIntel,58.82352941,Safari,1440,900,,,,,0,684,,,,,,,,,,,,,,,,,Y,125,triangle,0,0,,,,,,,,,,,,,,,,switch,number,NA,k,noRew,,,,,,1.429,0,44,0,44,0,1,,,,,,,,,,,,,,,,,
292546,2022-11-27_19h51.27.821,vts_reward_expectancy_bt,2022.2.4,MacIntel,58.82352941,Safari,1440,900,,,,,0,684,,,,,,,,,,,,,,,,,B,139,circle,1,1,,,,,,,,,,,,,,,,switch,letter,lettSwt,d,noRew,,,,,,1.209,0,45,0,45,0,1,,,,,,,,,,,,,,,,,
292546,2022-11-27_19h51.27.821,vts_reward_expectancy_bt,2022.2.4,MacIntel,58.82352941,Safari,1440,900,,,,,0,684,,,,,,,,,,,,,,,,,D,167,circle,1,0,,,,,,,,,,,,,,,,switch,number,numSwt,k,noRew,,,,,,2.011,0,46,0,46,0,1,,,,,,,,,,,,,,,,,
292546,2022-11-27_19h51.27.821,vts_reward_expectancy_bt,2022.2.4,MacIntel,58.82352941,Safari,1440,900,,,,,0,684,,,,,,,,,,,,,,,,,F,174,hexagon,0,0,,,,,,,,,,,,,,,,switch,letter,NA,f,noRew,,,,,,1.624,0,47,0,47,0,1,,,,,,,,,,,,,,,,,
292546,2022-11-27_19h51.27.821,vts_reward_expectancy_bt,2022.2.4,MacIntel,58.82352941,Safari,1440,900,,,,,0,684,,,,,,,,,,,,,,,,,F,146,triangle,0,1,,,,,,,,,,,,,,,,switch,number,NA,k,noRew,,,,,,1.633,0,48,0,48,0,1,,,,,,,,,,,,,,,,,
292546,2022-11-27_19h51.27.821,vts_reward_expectancy_bt,2022.2.4,MacIntel,58.82352941,Safari,1440,900,,,,,0,684,,,,,,,,,,,,,,,,,U,181,star,1,1,,,,,,,,,,,,,,,,repeat,number,numRpt,k,noRew,,,,,,1.178,0,49,0,49,0,1,,,,,,,,,,,,,,,,,
292546,2022-11-27_19h51.27.821,vts_reward_expectancy_bt,2022.2.4,MacIntel,58.82352941,Safari,1440,900,,,,,0,684,,,,,,,,,,,,,,,,,W,167,triangle,1,0,,,,,,,,,,,,,,,,repeat,number,numRpt,k,noRew,,,,,,1.848,0,50,0,50,0,1,,,,,,,,,,,,,,,,,
292546,2022-11-27_19h51.27.821,vts_reward_expectancy_bt,2022.2.4,MacIntel,58.82352941,Safari,1440,900,,,,,0,684,,,,,,,,,,,,,,,,,S,160,star,1,0,,,,,,,,,,,,,,,,repeat,number,numRpt,k,noRew,,,,,,1.558,0,51,0,51,0,1,,,,,,,,,,,,,,,,,
292546,2022-11-27_19h51.27.821,vts_reward_expectancy_bt,2022.2.4,MacIntel,58.82352941,Safari,1440,900,,,,,0,684,,,,,,,,,,,,,,,,,S,174,star,1,0,,,,,,,,,,,,,,,,repeat,number,numRpt,k,noRew,,,,,,1.284,0,52,0,52,0,1,,,,,,,,,,,,,,,,,
292546,2022-11-27_19h51.27.821,vts_reward_expectancy_bt,2022.2.4,MacIntel,58.82352941,Safari,1440,900,,,,,0,684,,,,,,,,,,,,,,,,,D,139,circle,1,0,,,,,,,,,,,,,,,,repeat,number,numRpt,j,noRew,,,,,,1.408,0,53,0,53,0,1,,,,,,,,,,,,,,,,,
292546,2022-11-27_19h51.27.821,vts_reward_expectancy_bt,2022.2.4,MacIntel,58.82352941,Safari,1440,900,,,,,0,684,,,,,,,,,,,,,,,,,Y,167,hexagon,1,0,,,,,,,,,,,,,,,,switch,letter,lettSwt,f,noRew,,,,,,1.761,0,54,0,54,0,1,,,,,,,,,,,,,,,,,
292546,2022-11-27_19h51.27.821,vts_reward_expectancy_bt,2022.2.4,MacIntel,58.82352941,Safari,1440,900,,,,,0,684,,,,,,,,,,,,,,,,,U,181,circle,1,0,,,,,,,,,,,,,,,,switch,number,numSwt,k,noRew,,,,,,1.46,0,55,0,55,0,1,,,,,,,,,,,,,,,,,
292546,2022-11-27_19h51.27.821,vts_reward_expectancy_bt,2022.2.4,MacIntel,58.82352941,Safari,1440,900,,,,,0,684,,,,,,,,,,,,,,,,,H,174,triangle,0,0,,,,,,,,,,,,,,,,switch,letter,NA,f,noRew,,,,,,1.715,0,56,0,56,0,1,,,,,,,,,,,,,,,,,
292546,2022-11-27_19h51.27.821,vts_reward_expectancy_bt,2022.2.4,MacIntel,58.82352941,Safari,1440,900,,,,,0,684,,,,,,,,,,,,,,,,,U,132,circle,0,1,,,,,,,,,,,,,,,,repeat,letter,NA,d,noRew,,,,,,1.453,0,57,0,57,0,1,,,,,,,,,,,,,,,,,
292546,2022-11-27_19h51.27.821,vts_reward_expectancy_bt,2022.2.4,MacIntel,58.82352941,Safari,1440,900,,,,,0,684,,,,,,,,,,,,,,,,,S,160,triangle,1,1,,,,,,,,,,,,,,,,repeat,letter,lettRpt,f,noRew,,,,,,1.26,0,58,0,58,0,1,,,,,,,,,,,,,,,,,
292546,2022-11-27_19h51.27.821,vts_reward_expectancy_bt,2022.2.4,MacIntel,58.82352941,Safari,1440,900,,,,,0,684,,,,,,,,,,,,,,,,,Y,167,star,1,0,,,,,,,,,,,,,,,,switch,number,numSwt,k,noRew,,,,,,2.276,0,59,0,59,0,1,,,,,,,,,,,,,,,,,
292546,2022-11-27_19h51.27.821,vts_reward_expectancy_bt,2022.2.4,MacIntel,58.82352941,Safari,1440,900,,,,,0,684,,,,,,,,,,,,,,,,,D,132,circle,1,0,,,,,,,,,,,,,,,,repeat,number,numRpt,j,noRew,,,,,,0.868,0,60,0,60,0,1,,,,,,,,,,,,,,,,,
292546,2022-11-27_19h51.27.821,vts_reward_expectancy_bt,2022.2.4,MacIntel,58.82352941,Safari,1440,900,,,,,0,684,,,,,,,,,,,,,,,,,F,167,star,1,0,,,,,,,,,,,,,,,,repeat,number,numRpt,k,noRew,,,,,,1.061,0,61,0,61,0,1,,,,,,,,,,,,,,,,,
292546,2022-11-27_19h51.27.821,vts_reward_expectancy_bt,2022.2.4,MacIntel,58.82352941,Safari,1440,900,,,,,0,684,,,,,,,,,,,,,,,,,H,160,star,1,0,,,,,,,,,,,,,,,,switch,letter,lettSwt,d,noRew,,,,,,2.294,0,62,0,62,0,1,,,,,,,,,,,,,,,,,
292546,2022-11-27_19h51.27.821,vts_reward_expectancy_bt,2022.2.4,MacIntel,58.82352941,Safari,1440,900,,,,,0,684,,,,,,,,,,,,,,,,,S,125,hexagon,1,0,,,,,,,,,,,,,,,,switch,number,numSwt,j,noRew,,,,,,2.131,0,63,0,63,0,1,,,,,,,,,,,,,,,,,
292546,2022-11-27_19h51.27.821,vts_reward_expectancy_bt,2022.2.4,MacIntel,58.82352941,Safari,1440,900,,,,,,,,,,,,,,,,,,,,,,,,,,,,,,,,,,,,,,,,,,,,,,,,,,,,,,,,,,,,,,,,,,,,,,,,,,,,
292546,2022-11-27_19h51.27.821,vts_reward_expectancy_bt,2022.2.4,MacIntel,58.82352941,Safari,1440,900,,,,,0,684,,,,,,,,,,,,,,,,,U,146,hexagon,1,0,,,,,,,,,,,,,,,,switch,letter,lettSwt,f,Hi,,,,,,2.124,0,,,,,,space,6.876,low,0,0,0,0,1,,,,,,,,,
292546,2022-11-27_19h51.27.821,vts_reward_expectancy_bt,2022.2.4,MacIntel,58.82352941,Safari,1440,900,,,,,10,694,,,,,,,,,,,,,,,,,B,125,triangle,1,0,,,,,,,,,,,,,,,,repeat,letter,lettRpt,d,Lo,,,,,,0.947,0,,,,,,,,low,1,0,1,0,1,,,,,,,,,
292546,2022-11-27_19h51.27.821,vts_reward_expectancy_bt,2022.2.4,MacIntel,58.82352941,Safari,1440,900,,,,,1,695,,,,,,,,,,,,,,,,,S,181,circle,1,0,,,,,,,,,,,,,,,,repeat,letter,lettRpt,f,Hi,,,,,,1.274,0,,,,,,,,low,2,0,2,0,1,,,,,,,,,
292546,2022-11-27_19h51.27.821,vts_reward_expectancy_bt,2022.2.4,MacIntel,58.82352941,Safari,1440,900,,,,,0,695,,,,,,,,,,,,,,,,,F,174,star,0,0,,,,,,,,,,,,,,,,repeat,letter,NA,f,Hi,,,,,,2.627,0,,,,,,,,low,3,0,3,0,1,,,,,,,,,
292546,2022-11-27_19h51.27.821,vts_reward_expectancy_bt,2022.2.4,MacIntel,58.82352941,Safari,1440,900,,,,,0,695,,,,,,,,,,,,,,,,,W,139,hexagon,0,1,,,,,,,,,,,,,,,,repeat,letter,NA,d,Hi,,,,,,2.191,0,,,,,,,,low,4,0,4,0,1,,,,,,,,,
292546,2022-11-27_19h51.27.821,vts_reward_expectancy_bt,2022.2.4,MacIntel,58.82352941,Safari,1440,900,,,,,1,696,,,,,,,,,,,,,,,,,D,167,triangle,1,1,,,,,,,,,,,,,,,,repeat,letter,lettRpt,d,Lo,,,,,,1.525,0,,,,,,,,low,5,0,5,0,1,,,,,,,,,
292546,2022-11-27_19h51.27.821,vts_reward_expectancy_bt,2022.2.4,MacIntel,58.82352941,Safari,1440,900,,,,,0,696,,,,,,,,,,,,,,,,,H,160,circle,0,0,,,,,,,,,,,,,,,,repeat,letter,NA,f,Lo,,,,,,2.034,0,,,,,,,,low,6,0,6,0,1,,,,,,,,,
292546,2022-11-27_19h51.27.821,vts_reward_expectancy_bt,2022.2.4,MacIntel,58.82352941,Safari,1440,900,,,,,10,706,,,,,,,,,,,,,,,,,Y,132,star,1,1,,,,,,,,,,,,,,,,repeat,letter,lettRpt,f,Lo,,,,,,1.976,0,,,,,,,,low,7,0,7,0,1,,,,,,,,,
292546,2022-11-27_19h51.27.821,vts_reward_expectancy_bt,2022.2.4,MacIntel,58.82352941,Safari,1440,900,,,,,0,706,,,,,,,,,,,,,,,,,U,146,circle,0,0,,,,,,,,,,,,,,,,repeat,letter,NA,d,Lo,,,,,,2.191,0,,,,,,,,low,8,0,8,0,1,,,,,,,,,
292546,2022-11-27_19h51.27.821,vts_reward_expectancy_bt,2022.2.4,MacIntel,58.82352941,Safari,1440,900,,,,,10,716,,,,,,,,,,,,,,,,,B,125,triangle,1,1,,,,,,,,,,,,,,,,repeat,letter,lettRpt,d,Lo,,,,,,0.941,0,,,,,,,,low,9,0,9,0,1,,,,,,,,,
292546,2022-11-27_19h51.27.821,vts_reward_expectancy_bt,2022.2.4,MacIntel,58.82352941,Safari,1440,900,,,,,10,726,,,,,,,,,,,,,,,,,S,181,hexagon,1,0,,,,,,,,,,,,,,,,switch,number,numSwt,k,Hi,,,,,,1.459,0,,,,,,,,low,10,0,10,0,1,,,,,,,,,
292546,2022-11-27_19h51.27.821,vts_reward_expectancy_bt,2022.2.4,MacIntel,58.82352941,Safari,1440,900,,,,,10,736,,,,,,,,,,,,,,,,,F,174,star,1,0,,,,,,,,,,,,,,,,repeat,number,numRpt,k,Lo,,,,,,2.678,0,,,,,,,,low,11,0,11,0,1,,,,,,,,,
292546,2022-11-27_19h51.27.821,vts_reward_expectancy_bt,2022.2.4,MacIntel,58.82352941,Safari,1440,900,,,,,1,737,,,,,,,,,,,,,,,,,W,139,star,1,0,,,,,,,,,,,,,,,,repeat,number,numRpt,j,Lo,,,,,,1.877,0,,,,,,,,low,12,0,12,0,1,,,,,,,,,
292546,2022-11-27_19h51.27.821,vts_reward_expectancy_bt,2022.2.4,MacIntel,58.82352941,Safari,1440,900,,,,,10,747,,,,,,,,,,,,,,,,,D,167,triangle,1,0,,,,,,,,,,,,,,,,repeat,number,numRpt,k,Lo,,,,,,1.392,0,,,,,,,,low,13,0,13,0,1,,,,,,,,,
292546,2022-11-27_19h51.27.821,vts_reward_expectancy_bt,2022.2.4,MacIntel,58.82352941,Safari,1440,900,,,,,0,747,,,,,,,,,,,,,,,,,H,160,circle,1,0,,,,,,,,,,,,,,,,repeat,number,numRpt,k,Hi,,,,,,1.75,0,,,,,,,,low,14,0,14,0,1,,,,,,,,,
292546,2022-11-27_19h51.27.821,vts_reward_expectancy_bt,2022.2.4,MacIntel,58.82352941,Safari,1440,900,,,,,0,747,,,,,,,,,,,,,,,,,Y,132,hexagon,0,0,,,,,,,,,,,,,,,,switch,letter,NA,d,Hi,,,,,,1.664,0,,,,,,,,low,15,0,15,0,1,,,,,,,,,
292546,2022-11-27_19h51.27.821,vts_reward_expectancy_bt,2022.2.4,MacIntel,58.82352941,Safari,1440,900,,,,,1,748,,,,,,,,,,,,,,,,,H,160,star,1,1,,,,,,,,,,,,,,,,switch,number,numSwt,k,Lo,,,,,,2.243,0,,,,,,,,low,16,0,16,0,1,,,,,,,,,
292546,2022-11-27_19h51.27.821,vts_reward_expectancy_bt,2022.2.4,MacIntel,58.82352941,Safari,1440,900,,,,,0,748,,,,,,,,,,,,,,,,,U,146,circle,1,0,,,,,,,,,,,,,,,,repeat,number,numRpt,j,Hi,,,,,,1.946,0,,,,,,,,low,17,0,17,0,1,,,,,,,,,
292546,2022-11-27_19h51.27.821,vts_reward_expectancy_bt,2022.2.4,MacIntel,58.82352941,Safari,1440,900,,,,,0,748,,,,,,,,,,,,,,,,,S,125,triangle,0,0,,,,,,,,,,,,,,,,switch,letter,NA,d,Hi,,,,,,1.225,0,,,,,,,,low,18,0,18,0,1,,,,,,,,,
292546,2022-11-27_19h51.27.821,vts_reward_expectancy_bt,2022.2.4,MacIntel,58.82352941,Safari,1440,900,,,,,0,748,,,,,,,,,,,,,,,,,W,167,hexagon,0,1,,,,,,,,,,,,,,,,switch,number,NA,j,Hi,,,,,,0.33,0,,,,,,,,low,19,0,19,0,1,,,,,,,,,
292546,2022-11-27_19h51.27.821,vts_reward_expectancy_bt,2022.2.4,MacIntel,58.82352941,Safari,1440,900,,,,,0,748,,,,,,,,,,,,,,,,,F,174,hexagon,1,1,,,,,,,,,,,,,,,,switch,letter,lettSwt,d,Hi,,,,,,1.578,0,,,,,,,,low,20,0,20,0,1,,,,,,,,,
292546,2022-11-27_19h51.27.821,vts_reward_expectancy_bt,2022.2.4,MacIntel,58.82352941,Safari,1440,900,,,,,10,758,,,,,,,,,,,,,,,,,B,132,triangle,1,0,,,,,,,,,,,,,,,,repeat,letter,lettRpt,d,Lo,,,,,,0.678,0,,,,,,,,low,21,0,21,0,1,,,,,,,,,
292546,2022-11-27_19h51.27.821,vts_reward_expectancy_bt,2022.2.4,MacIntel,58.82352941,Safari,1440,900,,,,,0,758,,,,,,,,,,,,,,,,,Y,139,star,0,0,,,,,,,,,,,,,,,,switch,number,NA,k,Lo,,,,,,0.734,0,,,,,,,,low,22,0,22,0,1,,,,,,,,,
292546,2022-11-27_19h51.27.821,vts_reward_expectancy_bt,2022.2.4,MacIntel,58.82352941,Safari,1440,900,,,,,1,759,,,,,,,,,,,,,,,,,D,181,circle,1,1,,,,,,,,,,,,,,,,switch,letter,lettSwt,d,Hi,,,,,,1.059,0,,,,,,,,low,23,0,23,0,1,,,,,,,,,
292546,2022-11-27_19h51.27.821,vts_reward_expectancy_bt,2022.2.4,MacIntel,58.82352941,Safari,1440,900,,,,,0,759,,,,,,,,,,,,,,,,,W,167,star,0,0,,,,,,,,,,,,,,,,switch,number,NA,j,Hi,,,,,,0.859,0,,,,,,,,low,24,0,24,0,1,,,,,,,,,
292546,2022-11-27_19h51.27.821,vts_reward_expectancy_bt,2022.2.4,MacIntel,58.82352941,Safari,1440,900,,,,,1,760,,,,,,,,,,,,,,,,,U,181,circle,1,1,,,,,,,,,,,,,,,,repeat,number,numRpt,k,Hi,,,,,,1.042,0,,,,,,,,low,25,0,25,0,1,,,,,,,,,
292546,2022-11-27_19h51.27.821,vts_reward_expectancy_bt,2022.2.4,MacIntel,58.82352941,Safari,1440,900,,,,,0,760,,,,,,,,,,,,,,,,,F,139,hexagon,0,0,,,,,,,,,,,,,,,,switch,letter,NA,f,Hi,,,,,,1.127,0,,,,,,,,low,26,0,26,0,1,,,,,,,,,
292546,2022-11-27_19h51.27.821,vts_reward_expectancy_bt,2022.2.4,MacIntel,58.82352941,Safari,1440,900,,,,,1,761,,,,,,,,,,,,,,,,,D,160,triangle,1,1,,,,,,,,,,,,,,,,repeat,letter,lettRpt,d,Lo,,,,,,1.376,0,,,,,,,,low,27,0,27,0,1,,,,,,,,,
292546,2022-11-27_19h51.27.821,vts_reward_expectancy_bt,2022.2.4,MacIntel,58.82352941,Safari,1440,900,,,,,0,761,,,,,,,,,,,,,,,,,H,174,triangle,0,0,,,,,,,,,,,,,,,,switch,number,NA,j,Lo,,,,,,2.129,0,,,,,,,,low,28,0,28,0,1,,,,,,,,,
292546,2022-11-27_19h51.27.821,vts_reward_expectancy_bt,2022.2.4,MacIntel,58.82352941,Safari,1440,900,,,,,0,761,,,,,,,,,,,,,,,,,Y,125,hexagon,1,1,,,,,,,,,,,,,,,,repeat,number,numRpt,j,Hi,,,,,,1.862,0,,,,,,,,low,29,0,29,0,1,,,,,,,,,
292546,2022-11-27_19h51.27.821,vts_reward_expectancy_bt,2022.2.4,MacIntel,58.82352941,Safari,1440,900,,,,,0,761,,,,,,,,,,,,,,,,,S,132,star,0,0,,,,,,,,,,,,,,,,switch,letter,NA,d,Hi,,,,,,1.128,0,,,,,,,,low,30,0,30,0,1,,,,,,,,,
292546,2022-11-27_19h51.27.821,vts_reward_expectancy_bt,2022.2.4,MacIntel,58.82352941,Safari,1440,900,,,,,1,762,,,,,,,,,,,,,,,,,B,146,circle,1,1,,,,,,,,,,,,,,,,repeat,letter,lettRpt,d,Hi,,,,,,1.042,0,,,,,,,,low,31,0,31,0,1,,,,,,,,,
292546,2022-11-27_19h51.27.821,vts_reward_expectancy_bt,2022.2.4,MacIntel,58.82352941,Safari,1440,900,,,,,0,762,,,,,,,,,,,,,,,,,Y,160,hexagon,0,0,,,,,,,,,,,,,,,,repeat,letter,NA,d,Hi,,,,,,0.932,1,,,,,,space,4.846,low,0,0,0,0,1,,,,,,,,,
292546,2022-11-27_19h51.27.821,vts_reward_expectancy_bt,2022.2.4,MacIntel,58.82352941,Safari,1440,900,,,,,0,762,,,,,,,,,,,,,,,,,B,174,circle,1,1,,,,,,,,,,,,,,,,repeat,letter,lettRpt,d,Hi,,,,,,1.111,1,,,,,,,,low,1,0,1,0,1,,,,,,,,,
292546,2022-11-27_19h51.27.821,vts_reward_expectancy_bt,2022.2.4,MacIntel,58.82352941,Safari,1440,900,,,,,1,763,,,,,,,,,,,,,,,,,S,146,star,1,0,,,,,,,,,,,,,,,,repeat,letter,lettRpt,f,Lo,,,,,,0.744,1,,,,,,,,low,2,0,2,0,1,,,,,,,,,
292546,2022-11-27_19h51.27.821,vts_reward_expectancy_bt,2022.2.4,MacIntel,58.82352941,Safari,1440,900,,,,,1,764,,,,,,,,,,,,,,,,,F,132,triangle,1,0,,,,,,,,,,,,,,,,repeat,letter,lettRpt,d,Lo,,,,,,1.291,1,,,,,,,,low,3,0,3,0,1,,,,,,,,,
292546,2022-11-27_19h51.27.821,vts_reward_expectancy_bt,2022.2.4,MacIntel,58.82352941,Safari,1440,900,,,,,10,774,,,,,,,,,,,,,,,,,W,125,hexagon,1,0,,,,,,,,,,,,,,,,switch,number,numSwt,j,Hi,,,,,,1.318,1,,,,,,,,low,4,0,4,0,1,,,,,,,,,
292546,2022-11-27_19h51.27.821,vts_reward_expectancy_bt,2022.2.4,MacIntel,58.82352941,Safari,1440,900,,,,,1,775,,,,,,,,,,,,,,,,,D,139,circle,1,0,,,,,,,,,,,,,,,,switch,letter,lettSwt,d,Hi,,,,,,0.878,1,,,,,,,,low,5,0,5,0,1,,,,,,,,,
292546,2022-11-27_19h51.27.821,vts_reward_expectancy_bt,2022.2.4,MacIntel,58.82352941,Safari,1440,900,,,,,1,776,,,,,,,,,,,,,,,,,H,181,star,1,0,,,,,,,,,,,,,,,,switch,number,numSwt,k,Lo,,,,,,0.849,1,,,,,,,,low,6,0,6,0,1,,,,,,,,,
292546,2022-11-27_19h51.27.821,vts_reward_expectancy_bt,2022.2.4,MacIntel,58.82352941,Safari,1440,900,,,,,1,777,,,,,,,,,,,,,,,,,U,167,triangle,1,0,,,,,,,,,,,,,,,,repeat,number,numRpt,k,Lo,,,,,,0.959,1,,,,,,,,low,7,0,7,0,1,,,,,,,,,
292546,2022-11-27_19h51.27.821,vts_reward_expectancy_bt,2022.2.4,MacIntel,58.82352941,Safari,1440,900,,,,,0,777,,,,,,,,,,,,,,,,,Y,160,star,0,0,,,,,,,,,,,,,,,,repeat,number,NA,j,Lo,,,,,,1.025,1,,,,,,,,low,8,0,8,0,1,,,,,,,,,
292546,2022-11-27_19h51.27.821,vts_reward_expectancy_bt,2022.2.4,MacIntel,58.82352941,Safari,1440,900,,,,,10,787,,,,,,,,,,,,,,,,,B,174,triangle,1,1,,,,,,,,,,,,,,,,switch,letter,lettSwt,d,Lo,,,,,,1.042,1,,,,,,,,low,9,0,9,0,1,,,,,,,,,
292546,2022-11-27_19h51.27.821,vts_reward_expectancy_bt,2022.2.4,MacIntel,58.82352941,Safari,1440,900,,,,,0,787,,,,,,,,,,,,,,,,,S,146,circle,0,0,,,,,,,,,,,,,,,,repeat,letter,NA,d,Lo,,,,,,1.158,1,,,,,,,,low,10,0,10,0,1,,,,,,,,,
292546,2022-11-27_19h51.27.821,vts_reward_expectancy_bt,2022.2.4,MacIntel,58.82352941,Safari,1440,900,,,,,0,787,,,,,,,,,,,,,,,,,F,132,hexagon,0,1,,,,,,,,,,,,,,,,switch,number,NA,k,Lo,,,,,,1.426,1,,,,,,,,low,11,0,11,0,1,,,,,,,,,
292546,2022-11-27_19h51.27.821,vts_reward_expectancy_bt,2022.2.4,MacIntel,58.82352941,Safari,1440,900,,,,,0,787,,,,,,,,,,,,,,,,,W,125,star,0,1,,,,,,,,,,,,,,,,repeat,number,NA,k,Lo,,,,,,2.05,1,,,,,,,,low,12,0,12,0,1,,,,,,,,,
292546,2022-11-27_19h51.27.821,vts_reward_expectancy_bt,2022.2.4,MacIntel,58.82352941,Safari,1440,900,,,,,10,797,,,,,,,,,,,,,,,,,D,139,hexagon,1,1,,,,,,,,,,,,,,,,repeat,number,numRpt,j,Hi,,,,,,0.913,1,,,,,,,,low,13,0,13,0,1,,,,,,,,,
292546,2022-11-27_19h51.27.821,vts_reward_expectancy_bt,2022.2.4,MacIntel,58.82352941,Safari,1440,900,,,,,0,797,,,,,,,,,,,,,,,,,H,181,circle,1,0,,,,,,,,,,,,,,,,switch,letter,lettSwt,d,Hi,,,,,,1.978,1,,,,,,,,low,14,0,14,0,1,,,,,,,,,
292546,2022-11-27_19h51.27.821,vts_reward_expectancy_bt,2022.2.4,MacIntel,58.82352941,Safari,1440,900,,,,,1,798,,,,,,,,,,,,,,,,,U,167,triangle,1,0,,,,,,,,,,,,,,,,switch,number,numSwt,k,Lo,,,,,,0.926,1,,,,,,,,low,15,0,15,0,1,,,,,,,,,
292546,2022-11-27_19h51.27.821,vts_reward_expectancy_bt,2022.2.4,MacIntel,58.82352941,Safari,1440,900,,,,,1,799,,,,,,,,,,,,,,,,,S,146,star,1,0,,,,,,,,,,,,,,,,repeat,number,numRpt,j,Lo,,,,,,1.027,1,,,,,,,,low,16,0,16,0,1,,,,,,,,,
292546,2022-11-27_19h51.27.821,vts_reward_expectancy_bt,2022.2.4,MacIntel,58.82352941,Safari,1440,900,,,,,10,809,,,,,,,,,,,,,,,,,H,167,triangle,1,0,,,,,,,,,,,,,,,,repeat,number,numRpt,k,Lo,,,,,,1.491,1,,,,,,,,low,17,0,17,0,1,,,,,,,,,
292546,2022-11-27_19h51.27.821,vts_reward_expectancy_bt,2022.2.4,MacIntel,58.82352941,Safari,1440,900,,,,,0,809,,,,,,,,,,,,,,,,,U,139,circle,0,0,,,,,,,,,,,,,,,,repeat,number,NA,k,Lo,,,,,,0.847,1,,,,,,,,low,18,0,18,0,1,,,,,,,,,
292546,2022-11-27_19h51.27.821,vts_reward_expectancy_bt,2022.2.4,MacIntel,58.82352941,Safari,1440,900,,,,,1,810,,,,,,,,,,,,,,,,,B,125,hexagon,1,1,,,,,,,,,,,,,,,,repeat,number,numRpt,j,Hi,,,,,,1.395,1,,,,,,,,low,19,0,19,0,1,,,,,,,,,
292546,2022-11-27_19h51.27.821,vts_reward_expectancy_bt,2022.2.4,MacIntel,58.82352941,Safari,1440,900,,,,,10,820,,,,,,,,,,,,,,,,,D,160,circle,1,0,,,,,,,,,,,,,,,,repeat,number,numRpt,k,Hi,,,,,,1.3,1,,,,,,,,low,20,0,20,0,1,,,,,,,,,
292546,2022-11-27_19h51.27.821,vts_reward_expectancy_bt,2022.2.4,MacIntel,58.82352941,Safari,1440,900,,,,,10,830,,,,,,,,,,,,,,,,,Y,132,hexagon,1,0,,,,,,,,,,,,,,,,switch,letter,lettSwt,f,Hi,,,,,,1.058,1,,,,,,,,low,21,0,21,0,1,,,,,,,,,
292546,2022-11-27_19h51.27.821,vts_reward_expectancy_bt,2022.2.4,MacIntel,58.82352941,Safari,1440,900,,,,,10,840,,,,,,,,,,,,,,,,,W,181,triangle,1,0,,,,,,,,,,,,,,,,switch,number,numSwt,k,Lo,,,,,,1.318,1,,,,,,,,low,22,0,22,0,1,,,,,,,,,
292546,2022-11-27_19h51.27.821,vts_reward_expectancy_bt,2022.2.4,MacIntel,58.82352941,Safari,1440,900,,,,,10,850,,,,,,,,,,,,,,,,,F,174,star,1,0,,,,,,,,,,,,,,,,switch,letter,lettSwt,d,Lo,,,,,,1.434,1,,,,,,,,low,23,0,23,0,1,,,,,,,,,
292546,2022-11-27_19h51.27.821,vts_reward_expectancy_bt,2022.2.4,MacIntel,58.82352941,Safari,1440,900,,,,,0,850,,,,,,,,,,,,,,,,,W,167,circle,1,0,,,,,,,,,,,,,,,,repeat,letter,lettRpt,f,Hi,,,,,,1.564,1,,,,,,,,low,24,0,24,0,1,,,,,,,,,
292546,2022-11-27_19h51.27.821,vts_reward_expectancy_bt,2022.2.4,MacIntel,58.82352941,Safari,1440,900,,,,,1,851,,,,,,,,,,,,,,,,,B,160,triangle,1,0,,,,,,,,,,,,,,,,switch,number,numSwt,k,Lo,,,,,,1.112,1,,,,,,,,low,25,0,25,0,1,,,,,,,,,
292546,2022-11-27_19h51.27.821,vts_reward_expectancy_bt,2022.2.4,MacIntel,58.82352941,Safari,1440,900,,,,,10,861,,,,,,,,,,,,,,,,,F,125,hexagon,1,0,,,,,,,,,,,,,,,,repeat,number,numRpt,j,Hi,,,,,,1.542,1,,,,,,,,low,26,0,26,0,1,,,,,,,,,
292546,2022-11-27_19h51.27.821,vts_reward_expectancy_bt,2022.2.4,MacIntel,58.82352941,Safari,1440,900,,,,,1,862,,,,,,,,,,,,,,,,,D,139,star,1,0,,,,,,,,,,,,,,,,switch,letter,lettSwt,d,Lo,,,,,,0.976,1,,,,,,,,low,27,0,27,0,1,,,,,,,,,
292546,2022-11-27_19h51.27.821,vts_reward_expectancy_bt,2022.2.4,MacIntel,58.82352941,Safari,1440,900,,,,,10,872,,,,,,,,,,,,,,,,,Y,181,star,1,0,,,,,,,,,,,,,,,,switch,number,numSwt,k,Lo,,,,,,1.986,1,,,,,,,,low,28,0,28,0,1,,,,,,,,,
292546,2022-11-27_19h51.27.821,vts_reward_expectancy_bt,2022.2.4,MacIntel,58.82352941,Safari,1440,900,,,,,0,872,,,,,,,,,,,,,,,,,S,146,hexagon,1,0,,,,,,,,,,,,,,,,switch,letter,lettSwt,f,Hi,,,,,,1.481,1,,,,,,,,low,29,0,29,0,1,,,,,,,,,
292546,2022-11-27_19h51.27.821,vts_reward_expectancy_bt,2022.2.4,MacIntel,58.82352941,Safari,1440,900,,,,,0,872,,,,,,,,,,,,,,,,,H,174,circle,1,0,,,,,,,,,,,,,,,,switch,number,numSwt,k,Hi,,,,,,1.93,1,,,,,,,,low,30,0,30,0,1,,,,,,,,,
292546,2022-11-27_19h51.27.821,vts_reward_expectancy_bt,2022.2.4,MacIntel,58.82352941,Safari,1440,900,,,,,0,872,,,,,,,,,,,,,,,,,U,132,triangle,0,0,,,,,,,,,,,,,,,,switch,letter,NA,d,Hi,,,,,,0.868,1,,,,,,,,low,31,0,31,0,1,,,,,,,,,
292546,2022-11-27_19h51.27.821,vts_reward_expectancy_bt,2022.2.4,MacIntel,58.82352941,Safari,1440,900,,,,,1,873,,,,,,,,,,,,,,,,,Y,160,star,1,1,,,,,,,,,,,,,,,,repeat,letter,lettRpt,f,Lo,,,,,,1.33,2,,,,,,space,5.548,low,0,0,0,0,1,,,,,,,,,
292546,2022-11-27_19h51.27.821,vts_reward_expectancy_bt,2022.2.4,MacIntel,58.82352941,Safari,1440,900,,,,,0,873,,,,,,,,,,,,,,,,,B,174,circle,0,0,,,,,,,,,,,,,,,,repeat,letter,NA,f,Lo,,,,,,1.143,2,,,,,,,,low,1,0,1,0,1,,,,,,,,,
292546,2022-11-27_19h51.27.821,vts_reward_expectancy_bt,2022.2.4,MacIntel,58.82352941,Safari,1440,900,,,,,1,874,,,,,,,,,,,,,,,,,U,167,hexagon,1,1,,,,,,,,,,,,,,,,repeat,letter,lettRpt,f,Hi,,,,,,0.726,2,,,,,,,,low,2,0,2,0,1,,,,,,,,,
292546,2022-11-27_19h51.27.821,vts_reward_expectancy_bt,2022.2.4,MacIntel,58.82352941,Safari,1440,900,,,,,10,884,,,,,,,,,,,,,,,,,S,132,triangle,1,0,,,,,,,,,,,,,,,,switch,number,numSwt,j,Lo,,,,,,1.143,2,,,,,,,,low,3,0,3,0,1,,,,,,,,,
292546,2022-11-27_19h51.27.821,vts_reward_expectancy_bt,2022.2.4,MacIntel,58.82352941,Safari,1440,900,,,,,1,885,,,,,,,,,,,,,,,,,F,125,star,1,0,,,,,,,,,,,,,,,,repeat,number,numRpt,j,Lo,,,,,,1.746,2,,,,,,,,low,4,0,4,0,1,,,,,,,,,
292546,2022-11-27_19h51.27.821,vts_reward_expectancy_bt,2022.2.4,MacIntel,58.82352941,Safari,1440,900,,,,,0,885,,,,,,,,,,,,,,,,,H,181,circle,0,0,,,,,,,,,,,,,,,,switch,letter,NA,f,Lo,,,,,,1.459,2,,,,,,,,low,5,0,5,0,1,,,,,,,,,
292546,2022-11-27_19h51.27.821,vts_reward_expectancy_bt,2022.2.4,MacIntel,58.82352941,Safari,1440,900,,,,,0,885,,,,,,,,,,,,,,,,,W,146,hexagon,0,1,,,,,,,,,,,,,,,,repeat,letter,NA,d,Lo,,,,,,1.851,2,,,,,,,,low,6,0,6,0,1,,,,,,,,,
292546,2022-11-27_19h51.27.821,vts_reward_expectancy_bt,2022.2.4,MacIntel,58.82352941,Safari,1440,900,,,,,1,886,,,,,,,,,,,,,,,,,D,139,triangle,1,1,,,,,,,,,,,,,,,,repeat,letter,lettRpt,d,Lo,,,,,,0.977,2,,,,,,,,low,7,0,7,0,1,,,,,,,,,
292546,2022-11-27_19h51.27.821,vts_reward_expectancy_bt,2022.2.4,MacIntel,58.82352941,Safari,1440,900,,,,,0,886,,,,,,,,,,,,,,,,,Y,160,circle,1,0,,,,,,,,,,,,,,,,switch,number,numSwt,k,Hi,,,,,,1.192,2,,,,,,,,low,8,0,8,0,1,,,,,,,,,
292546,2022-11-27_19h51.27.821,vts_reward_expectancy_bt,2022.2.4,MacIntel,58.82352941,Safari,1440,900,,,,,1,887,,,,,,,,,,,,,,,,,B,174,triangle,1,0,,,,,,,,,,,,,,,,switch,letter,lettSwt,d,Lo,,,,,,1.277,2,,,,,,,,low,9,0,9,0,1,,,,,,,,,
292546,2022-11-27_19h51.27.821,vts_reward_expectancy_bt,2022.2.4,MacIntel,58.82352941,Safari,1440,900,,,,,0,887,,,,,,,,,,,,,,,,,U,167,hexagon,1,0,,,,,,,,,,,,,,,,repeat,letter,lettRpt,f,Hi,,,,,,1.467,2,,,,,,,,low,10,0,10,0,1,,,,,,,,,
292546,2022-11-27_19h51.27.821,vts_reward_expectancy_bt,2022.2.4,MacIntel,58.82352941,Safari,1440,900,,,,,1,888,,,,,,,,,,,,,,,,,S,132,star,1,0,,,,,,,,,,,,,,,,switch,number,numSwt,j,Lo,,,,,,0.931,2,,,,,,,,low,11,0,11,0,1,,,,,,,,,
292546,2022-11-27_19h51.27.821,vts_reward_expectancy_bt,2022.2.4,MacIntel,58.82352941,Safari,1440,900,,,,,0,888,,,,,,,,,,,,,,,,,F,125,hexagon,1,0,,,,,,,,,,,,,,,,switch,letter,lettSwt,d,Hi,,,,,,1.491,2,,,,,,,,low,12,0,12,0,1,,,,,,,,,
292546,2022-11-27_19h51.27.821,vts_reward_expectancy_bt,2022.2.4,MacIntel,58.82352941,Safari,1440,900,,,,,0,888,,,,,,,,,,,,,,,,,H,181,star,0,0,,,,,,,,,,,,,,,,repeat,letter,NA,f,Hi,,,,,,1.177,2,,,,,,,,low,13,0,13,0,1,,,,,,,,,
292546,2022-11-27_19h51.27.821,vts_reward_expectancy_bt,2022.2.4,MacIntel,58.82352941,Safari,1440,900,,,,,1,889,,,,,,,,,,,,,,,,,W,146,triangle,1,1,,,,,,,,,,,,,,,,repeat,letter,lettRpt,f,Lo,,,,,,1.082,2,,,,,,,,low,14,0,14,0,1,,,,,,,,,
292546,2022-11-27_19h51.27.821,vts_reward_expectancy_bt,2022.2.4,MacIntel,58.82352941,Safari,1440,900,,,,,10,899,,,,,,,,,,,,,,,,,D,139,circle,1,0,,,,,,,,,,,,,,,,repeat,letter,lettRpt,d,Hi,,,,,,0.912,2,,,,,,,,low,15,0,15,0,1,,,,,,,,,
292546,2022-11-27_19h51.27.821,vts_reward_expectancy_bt,2022.2.4,MacIntel,58.82352941,Safari,1440,900,,,,,1,900,,,,,,,,,,,,,,,,,B,132,triangle,1,0,,,,,,,,,,,,,,,,repeat,letter,lettRpt,d,Lo,,,,,,0.811,2,,,,,,,,low,16,0,16,0,1,,,,,,,,,
292546,2022-11-27_19h51.27.821,vts_reward_expectancy_bt,2022.2.4,MacIntel,58.82352941,Safari,1440,900,,,,,10,910,,,,,,,,,,,,,,,,,H,139,hexagon,1,0,,,,,,,,,,,,,,,,switch,number,numSwt,j,Hi,,,,,,1.013,2,,,,,,,,low,17,0,17,0,1,,,,,,,,,
292546,2022-11-27_19h51.27.821,vts_reward_expectancy_bt,2022.2.4,MacIntel,58.82352941,Safari,1440,900,,,,,10,920,,,,,,,,,,,,,,,,,D,125,star,1,0,,,,,,,,,,,,,,,,switch,letter,lettSwt,d,Lo,,,,,,0.713,2,,,,,,,,low,18,0,18,0,1,,,,,,,,,
292546,2022-11-27_19h51.27.821,vts_reward_expectancy_bt,2022.2.4,MacIntel,58.82352941,Safari,1440,900,,,,,0,920,,,,,,,,,,,,,,,,,F,181,circle,1,0,,,,,,,,,,,,,,,,repeat,letter,lettRpt,d,Hi,,,,,,1.167,2,,,,,,,,low,19,0,19,0,1,,,,,,,,,
292546,2022-11-27_19h51.27.821,vts_reward_expectancy_bt,2022.2.4,MacIntel,58.82352941,Safari,1440,900,,,,,1,921,,,,,,,,,,,,,,,,,W,174,triangle,1,0,,,,,,,,,,,,,,,,switch,number,numSwt,k,Lo,,,,,,0.614,2,,,,,,,,low,20,0,20,0,1,,,,,,,,,
292546,2022-11-27_19h51.27.821,vts_reward_expectancy_bt,2022.2.4,MacIntel,58.82352941,Safari,1440,900,,,,,10,931,,,,,,,,,,,,,,,,,Y,160,hexagon,1,0,,,,,,,,,,,,,,,,repeat,number,numRpt,k,Hi,,,,,,0.8,2,,,,,,,,low,21,0,21,0,1,,,,,,,,,
292546,2022-11-27_19h51.27.821,vts_reward_expectancy_bt,2022.2.4,MacIntel,58.82352941,Safari,1440,900,,,,,1,932,,,,,,,,,,,,,,,,,U,167,circle,1,0,,,,,,,,,,,,,,,,switch,letter,lettSwt,f,Hi,,,,,,0.858,2,,,,,,,,low,22,0,22,0,1,,,,,,,,,
292546,2022-11-27_19h51.27.821,vts_reward_expectancy_bt,2022.2.4,MacIntel,58.82352941,Safari,1440,900,,,,,1,933,,,,,,,,,,,,,,,,,S,146,star,1,0,,,,,,,,,,,,,,,,repeat,letter,lettRpt,f,Lo,,,,,,0.734,2,,,,,,,,low,23,0,23,0,1,,,,,,,,,
292546,2022-11-27_19h51.27.821,vts_reward_expectancy_bt,2022.2.4,MacIntel,58.82352941,Safari,1440,900,,,,,1,934,,,,,,,,,,,,,,,,,D,160,star,1,0,,,,,,,,,,,,,,,,repeat,letter,lettRpt,d,Lo,,,,,,1.243,2,,,,,,,,low,24,0,24,0,1,,,,,,,,,
292546,2022-11-27_19h51.27.821,vts_reward_expectancy_bt,2022.2.4,MacIntel,58.82352941,Safari,1440,900,,,,,10,944,,,,,,,,,,,,,,,,,Y,132,triangle,1,0,,,,,,,,,,,,,,,,switch,number,numSwt,j,Lo,,,,,,0.791,2,,,,,,,,low,25,0,25,0,1,,,,,,,,,
292546,2022-11-27_19h51.27.821,vts_reward_expectancy_bt,2022.2.4,MacIntel,58.82352941,Safari,1440,900,,,,,1,945,,,,,,,,,,,,,,,,,B,125,circle,1,0,,,,,,,,,,,,,,,,switch,letter,lettSwt,d,Hi,,,,,,0.726,2,,,,,,,,low,26,0,26,0,1,,,,,,,,,
292546,2022-11-27_19h51.27.821,vts_reward_expectancy_bt,2022.2.4,MacIntel,58.82352941,Safari,1440,900,,,,,0,945,,,,,,,,,,,,,,,,,W,139,hexagon,0,0,,,,,,,,,,,,,,,,switch,number,NA,k,Hi,,,,,,1.459,2,,,,,,,,low,27,0,27,0,1,,,,,,,,,
292546,2022-11-27_19h51.27.821,vts_reward_expectancy_bt,2022.2.4,MacIntel,58.82352941,Safari,1440,900,,,,,1,946,,,,,,,,,,,,,,,,,F,181,triangle,1,1,,,,,,,,,,,,,,,,repeat,number,numRpt,k,Lo,,,,,,1.161,2,,,,,,,,low,28,0,28,0,1,,,,,,,,,
292546,2022-11-27_19h51.27.821,vts_reward_expectancy_bt,2022.2.4,MacIntel,58.82352941,Safari,1440,900,,,,,0,946,,,,,,,,,,,,,,,,,U,167,hexagon,1,0,,,,,,,,,,,,,,,,repeat,number,numRpt,k,Hi,,,,,,1.14,2,,,,,,,,low,29,0,29,0,1,,,,,,,,,
292546,2022-11-27_19h51.27.821,vts_reward_expectancy_bt,2022.2.4,MacIntel,58.82352941,Safari,1440,900,,,,,0,946,,,,,,,,,,,,,,,,,S,174,star,0,0,,,,,,,,,,,,,,,,repeat,number,NA,j,Hi,,,,,,0.711,2,,,,,,,,low,30,0,30,0,1,,,,,,,,,
292546,2022-11-27_19h51.27.821,vts_reward_expectancy_bt,2022.2.4,MacIntel,58.82352941,Safari,1440,900,,,,,10,956,,,,,,,,,,,,,,,,,H,146,circle,1,1,,,,,,,,,,,,,,,,switch,letter,lettSwt,d,Hi,,,,,,0.875,2,,,,,,,,low,31,0,31,0,1,,,,,,,,,
292546,2022-11-27_19h51.27.821,vts_reward_expectancy_bt,2022.2.4,MacIntel,58.82352941,Safari,1440,900,,,,,0,956,,,,,,,,,,,,,,,,,H,146,star,0,0,,,,,,,,,,,,,,,,switch,number,NA,k,Hi,,,,,,0.941,3,,,,,,space,2.006,low,0,0,0,0,1,,,,,,,,,
292546,2022-11-27_19h51.27.821,vts_reward_expectancy_bt,2022.2.4,MacIntel,58.82352941,Safari,1440,900,,,,,10,966,,,,,,,,,,,,,,,,,U,167,triangle,1,1,,,,,,,,,,,,,,,,switch,letter,lettSwt,f,Lo,,,,,,0.707,3,,,,,,,,low,1,0,1,0,1,,,,,,,,,
292546,2022-11-27_19h51.27.821,vts_reward_expectancy_bt,2022.2.4,MacIntel,58.82352941,Safari,1440,900,,,,,1,967,,,,,,,,,,,,,,,,,B,139,hexagon,1,0,,,,,,,,,,,,,,,,switch,number,numSwt,j,Hi,,,,,,0.765,3,,,,,,,,low,2,0,2,0,1,,,,,,,,,
292546,2022-11-27_19h51.27.821,vts_reward_expectancy_bt,2022.2.4,MacIntel,58.82352941,Safari,1440,900,,,,,0,967,,,,,,,,,,,,,,,,,D,181,circle,1,0,,,,,,,,,,,,,,,,switch,letter,lettSwt,d,Hi,,,,,,1.36,3,,,,,,,,low,3,0,3,0,1,,,,,,,,,
292546,2022-11-27_19h51.27.821,vts_reward_expectancy_bt,2022.2.4,MacIntel,58.82352941,Safari,1440,900,,,,,0,967,,,,,,,,,,,,,,,,,Y,132,star,0,0,,,,,,,,,,,,,,,,switch,number,NA,k,Hi,,,,,,0.627,3,,,,,,,,low,4,0,4,0,1,,,,,,,,,
292546,2022-11-27_19h51.27.821,vts_reward_expectancy_bt,2022.2.4,MacIntel,58.82352941,Safari,1440,900,,,,,1,968,,,,,,,,,,,,,,,,,F,125,triangle,1,1,,,,,,,,,,,,,,,,switch,letter,lettSwt,d,Lo,,,,,,0.766,3,,,,,,,,low,5,0,5,0,1,,,,,,,,,
292546,2022-11-27_19h51.27.821,vts_reward_expectancy_bt,2022.2.4,MacIntel,58.82352941,Safari,1440,900,,,,,0,968,,,,,,,,,,,,,,,,,S,174,hexagon,1,0,,,,,,,,,,,,,,,,switch,number,numSwt,k,Hi,,,,,,1.411,3,,,,,,,,low,6,0,6,0,1,,,,,,,,,
292546,2022-11-27_19h51.27.821,vts_reward_expectancy_bt,2022.2.4,MacIntel,58.82352941,Safari,1440,900,,,,,0,968,,,,,,,,,,,,,,,,,W,160,circle,0,0,,,,,,,,,,,,,,,,switch,letter,NA,d,Hi,,,,,,0.696,3,,,,,,,,low,7,0,7,0,1,,,,,,,,,
292546,2022-11-27_19h51.27.821,vts_reward_expectancy_bt,2022.2.4,MacIntel,58.82352941,Safari,1440,900,,,,,10,978,,,,,,,,,,,,,,,,,H,146,triangle,1,1,,,,,,,,,,,,,,,,switch,number,numSwt,j,Lo,,,,,,0.909,3,,,,,,,,low,8,0,8,0,1,,,,,,,,,
292546,2022-11-27_19h51.27.821,vts_reward_expectancy_bt,2022.2.4,MacIntel,58.82352941,Safari,1440,900,,,,,0,978,,,,,,,,,,,,,,,,,U,167,star,0,0,,,,,,,,,,,,,,,,repeat,number,NA,j,Lo,,,,,,0.679,3,,,,,,,,low,9,0,9,0,1,,,,,,,,,
292546,2022-11-27_19h51.27.821,vts_reward_expectancy_bt,2022.2.4,MacIntel,58.82352941,Safari,1440,900,,,,,0,978,,,,,,,,,,,,,,,,,B,139,hexagon,1,1,,,,,,,,,,,,,,,,switch,letter,lettSwt,d,Hi,,,,,,0.868,3,,,,,,,,low,10,0,10,0,1,,,,,,,,,
292546,2022-11-27_19h51.27.821,vts_reward_expectancy_bt,2022.2.4,MacIntel,58.82352941,Safari,1440,900,,,,,0,978,,,,,,,,,,,,,,,,,D,181,circle,0,0,,,,,,,,,,,,,,,,switch,number,NA,j,Hi,,,,,,0.633,3,,,,,,,,low,11,0,11,0,1,,,,,,,,,
292546,2022-11-27_19h51.27.821,vts_reward_expectancy_bt,2022.2.4,MacIntel,58.82352941,Safari,1440,900,,,,,0,978,,,,,,,,,,,,,,,,,Y,132,triangle,0,1,,,,,,,,,,,,,,,,switch,letter,NA,d,Hi,,,,,,1.093,3,,,,,,,,low,12,0,12,0,1,,,,,,,,,
292546,2022-11-27_19h51.27.821,vts_reward_expectancy_bt,2022.2.4,MacIntel,58.82352941,Safari,1440,900,,,,,1,979,,,,,,,,,,,,,,,,,F,125,star,1,1,,,,,,,,,,,,,,,,repeat,letter,lettRpt,d,Lo,,,,,,0.909,3,,,,,,,,low,13,0,13,0,1,,,,,,,,,
292546,2022-11-27_19h51.27.821,vts_reward_expectancy_bt,2022.2.4,MacIntel,58.82352941,Safari,1440,900,,,,,10,989,,,,,,,,,,,,,,,,,S,174,hexagon,1,0,,,,,,,,,,,,,,,,repeat,letter,lettRpt,f,Hi,,,,,,0.843,3,,,,,,,,low,14,0,14,0,1,,,,,,,,,
292546,2022-11-27_19h51.27.821,vts_reward_expectancy_bt,2022.2.4,MacIntel,58.82352941,Safari,1440,900,,,,,0,989,,,,,,,,,,,,,,,,,W,160,circle,1,0,,,,,,,,,,,,,,,,repeat,letter,lettRpt,f,Hi,,,,,,1.025,3,,,,,,,,low,15,0,15,0,1,,,,,,,,,
292546,2022-11-27_19h51.27.821,vts_reward_expectancy_bt,2022.2.4,MacIntel,58.82352941,Safari,1440,900,,,,,0,989,,,,,,,,,,,,,,,,,S,139,triangle,0,0,,,,,,,,,,,,,,,,repeat,letter,NA,d,Hi,,,,,,0.597,3,,,,,,,,low,16,0,16,0,1,,,,,,,,,
292546,2022-11-27_19h51.27.821,vts_reward_expectancy_bt,2022.2.4,MacIntel,58.82352941,Safari,1440,900,,,,,10,999,,,,,,,,,,,,,,,,,U,167,circle,1,1,,,,,,,,,,,,,,,,repeat,letter,lettRpt,f,Hi,,,,,,0.859,3,,,,,,,,low,17,0,17,0,1,,,,,,,,,
292546,2022-11-27_19h51.27.821,vts_reward_expectancy_bt,2022.2.4,MacIntel,58.82352941,Safari,1440,900,,,,,0,999,,,,,,,,,,,,,,,,,H,174,star,0,0,,,,,,,,,,,,,,,,repeat,letter,NA,f,Hi,,,,,,1.128,3,,,,,,,,low,18,0,18,0,1,,,,,,,,,
292546,2022-11-27_19h51.27.821,vts_reward_expectancy_bt,2022.2.4,MacIntel,58.82352941,Safari,1440,900,,,,,10,1009,,,,,,,,,,,,,,,,,Y,125,hexagon,1,1,,,,,,,,,,,,,,,,switch,number,numSwt,j,Hi,,,,,,0.643,3,,,,,,,,low,19,0,19,0,1,,,,,,,,,
292546,2022-11-27_19h51.27.821,vts_reward_expectancy_bt,2022.2.4,MacIntel,58.82352941,Safari,1440,900,,,,,1,1010,,,,,,,,,,,,,,,,,D,160,triangle,1,0,,,,,,,,,,,,,,,,switch,letter,lettSwt,d,Lo,,,,,,1.546,3,,,,,,,,low,20,0,20,0,1,,,,,,,,,
292546,2022-11-27_19h51.27.821,vts_reward_expectancy_bt,2022.2.4,MacIntel,58.82352941,Safari,1440,900,,,,,0,1010,,,,,,,,,,,,,,,,,F,146,hexagon,1,0,,,,,,,,,,,,,,,,switch,number,numSwt,j,Hi,,,,,,1.351,3,,,,,,,,low,21,0,21,0,1,,,,,,,,,
292546,2022-11-27_19h51.27.821,vts_reward_expectancy_bt,2022.2.4,MacIntel,58.82352941,Safari,1440,900,,,,,10,1020,,,,,,,,,,,,,,,,,W,181,circle,1,0,,,,,,,,,,,,,,,,repeat,number,numRpt,k,Hi,,,,,,0.933,3,,,,,,,,low,22,0,22,0,1,,,,,,,,,
292546,2022-11-27_19h51.27.821,vts_reward_expectancy_bt,2022.2.4,MacIntel,58.82352941,Safari,1440,900,,,,,1,1021,,,,,,,,,,,,,,,,,B,132,star,1,0,,,,,,,,,,,,,,,,switch,letter,lettSwt,d,Lo,,,,,,0.729,3,,,,,,,,low,23,0,23,0,1,,,,,,,,,
292546,2022-11-27_19h51.27.821,vts_reward_expectancy_bt,2022.2.4,MacIntel,58.82352941,Safari,1440,900,,,,,0,1021,,,,,,,,,,,,,,,,,F,125,circle,1,0,,,,,,,,,,,,,,,,repeat,letter,lettRpt,d,Hi,,,,,,1.145,3,,,,,,,,low,24,0,24,0,1,,,,,,,,,
292546,2022-11-27_19h51.27.821,vts_reward_expectancy_bt,2022.2.4,MacIntel,58.82352941,Safari,1440,900,,,,,0,1021,,,,,,,,,,,,,,,,,B,174,star,0,0,,,,,,,,,,,,,,,,switch,number,NA,j,Hi,,,,,,0.497,3,,,,,,,,low,25,0,25,0,1,,,,,,,,,
292546,2022-11-27_19h51.27.821,vts_reward_expectancy_bt,2022.2.4,MacIntel,58.82352941,Safari,1440,900,,,,,0,1021,,,,,,,,,,,,,,,,,U,139,triangle,0,1,,,,,,,,,,,,,,,,switch,letter,NA,d,Hi,,,,,,0.694,3,,,,,,,,low,26,0,26,0,1,,,,,,,,,
292546,2022-11-27_19h51.27.821,vts_reward_expectancy_bt,2022.2.4,MacIntel,58.82352941,Safari,1440,900,,,,,1,1022,,,,,,,,,,,,,,,,,H,181,hexagon,1,1,,,,,,,,,,,,,,,,switch,number,numSwt,k,Hi,,,,,,0.598,3,,,,,,,,low,27,0,27,0,1,,,,,,,,,
292546,2022-11-27_19h51.27.821,vts_reward_expectancy_bt,2022.2.4,MacIntel,58.82352941,Safari,1440,900,,,,,0,1022,,,,,,,,,,,,,,,,,S,146,triangle,0,0,,,,,,,,,,,,,,,,switch,letter,NA,d,Hi,,,,,,0.903,3,,,,,,,,low,28,0,28,0,1,,,,,,,,,
292546,2022-11-27_19h51.27.821,vts_reward_expectancy_bt,2022.2.4,MacIntel,58.82352941,Safari,1440,900,,,,,0,1022,,,,,,,,,,,,,,,,,W,167,circle,0,1,,,,,,,,,,,,,,,,switch,number,NA,j,Hi,,,,,,0.992,3,,,,,,,,low,29,0,29,0,1,,,,,,,,,
292546,2022-11-27_19h51.27.821,vts_reward_expectancy_bt,2022.2.4,MacIntel,58.82352941,Safari,1440,900,,,,,10,1032,,,,,,,,,,,,,,,,,D,160,star,1,1,,,,,,,,,,,,,,,,switch,letter,lettSwt,d,Lo,,,,,,0.658,3,,,,,,,,low,30,0,30,0,1,,,,,,,,,
292546,2022-11-27_19h51.27.821,vts_reward_expectancy_bt,2022.2.4,MacIntel,58.82352941,Safari,1440,900,,,,,0,1032,,,,,,,,,,,,,,,,,Y,132,hexagon,0,0,,,,,,,,,,,,,,,,repeat,letter,NA,d,Lo,,,,,,0.909,3,,,,,,,,low,31,0,31,0,1,,,,,,,,,
292546,2022-11-27_19h51.27.821,vts_reward_expectancy_bt,2022.2.4,MacIntel,58.82352941,Safari,1440,900,,,,,10,1042,,,,,,,,,,,,,,,,,D,174,circle,1,1,,,,,,,,,,,,,,,,repeat,letter,lettRpt,d,Hi,,,,,,0.864,4,,,,,,space,1.265,low,0,0,0,0,1,,,,,,,,,
292546,2022-11-27_19h51.27.821,vts_reward_expectancy_bt,2022.2.4,MacIntel,58.82352941,Safari,1440,900,,,,,1,1043,,,,,,,,,,,,,,,,,U,181,star,1,0,,,,,,,,,,,,,,,,repeat,letter,lettRpt,f,Lo,,,,,,0.908,4,,,,,,,,low,1,0,1,0,1,,,,,,,,,
292546,2022-11-27_19h51.27.821,vts_reward_expectancy_bt,2022.2.4,MacIntel,58.82352941,Safari,1440,900,,,,,0,1043,,,,,,,,,,,,,,,,,Y,160,hexagon,1,0,,,,,,,,,,,,,,,,switch,number,numSwt,k,Hi,,,,,,0.845,4,,,,,,,,low,2,0,2,0,1,,,,,,,,,
292546,2022-11-27_19h51.27.821,vts_reward_expectancy_bt,2022.2.4,MacIntel,58.82352941,Safari,1440,900,,,,,1,1044,,,,,,,,,,,,,,,,,H,132,triangle,1,0,,,,,,,,,,,,,,,,switch,letter,lettSwt,d,Lo,,,,,,0.614,4,,,,,,,,low,3,0,3,0,1,,,,,,,,,
292546,2022-11-27_19h51.27.821,vts_reward_expectancy_bt,2022.2.4,MacIntel,58.82352941,Safari,1440,900,,,,,0,1044,,,,,,,,,,,,,,,,,F,125,circle,1,0,,,,,,,,,,,,,,,,switch,number,numSwt,j,Hi,,,,,,0.775,4,,,,,,,,low,4,0,4,0,1,,,,,,,,,
292546,2022-11-27_19h51.27.821,vts_reward_expectancy_bt,2022.2.4,MacIntel,58.82352941,Safari,1440,900,,,,,10,1054,,,,,,,,,,,,,,,,,S,167,star,1,0,,,,,,,,,,,,,,,,switch,letter,lettSwt,f,Lo,,,,,,0.676,4,,,,,,,,low,5,0,5,0,1,,,,,,,,,
292546,2022-11-27_19h51.27.821,vts_reward_expectancy_bt,2022.2.4,MacIntel,58.82352941,Safari,1440,900,,,,,0,1054,,,,,,,,,,,,,,,,,W,146,hexagon,0,0,,,,,,,,,,,,,,,,switch,number,NA,k,Lo,,,,,,1.015,4,,,,,,,,low,6,0,6,0,1,,,,,,,,,
292546,2022-11-27_19h51.27.821,vts_reward_expectancy_bt,2022.2.4,MacIntel,58.82352941,Safari,1440,900,,,,,10,1064,,,,,,,,,,,,,,,,,B,139,triangle,1,1,,,,,,,,,,,,,,,,repeat,number,numRpt,j,Lo,,,,,,0.745,4,,,,,,,,low,7,0,7,0,1,,,,,,,,,
292546,2022-11-27_19h51.27.821,vts_reward_expectancy_bt,2022.2.4,MacIntel,58.82352941,Safari,1440,900,,,,,10,1074,,,,,,,,,,,,,,,,,D,174,triangle,1,0,,,,,,,,,,,,,,,,switch,letter,lettSwt,d,Lo,,,,,,1.191,4,,,,,,,,low,8,0,8,0,1,,,,,,,,,
292546,2022-11-27_19h51.27.821,vts_reward_expectancy_bt,2022.2.4,MacIntel,58.82352941,Safari,1440,900,,,,,0,1074,,,,,,,,,,,,,,,,,U,181,hexagon,0,0,,,,,,,,,,,,,,,,repeat,letter,NA,d,Lo,,,,,,0.784,4,,,,,,,,low,9,0,9,0,1,,,,,,,,,
292546,2022-11-27_19h51.27.821,vts_reward_expectancy_bt,2022.2.4,MacIntel,58.82352941,Safari,1440,900,,,,,0,1074,,,,,,,,,,,,,,,,,Y,160,circle,1,1,,,,,,,,,,,,,,,,switch,number,numSwt,k,Hi,,,,,,0.815,4,,,,,,,,low,10,0,10,0,1,,,,,,,,,
292546,2022-11-27_19h51.27.821,vts_reward_expectancy_bt,2022.2.4,MacIntel,58.82352941,Safari,1440,900,,,,,10,1084,,,,,,,,,,,,,,,,,H,132,star,1,0,,,,,,,,,,,,,,,,repeat,number,numRpt,j,Lo,,,,,,0.611,4,,,,,,,,low,11,0,11,0,1,,,,,,,,,
292546,2022-11-27_19h51.27.821,vts_reward_expectancy_bt,2022.2.4,MacIntel,58.82352941,Safari,1440,900,,,,,1,1085,,,,,,,,,,,,,,,,,F,125,triangle,1,0,,,,,,,,,,,,,,,,switch,letter,lettSwt,d,Lo,,,,,,0.818,4,,,,,,,,low,12,0,12,0,1,,,,,,,,,
292546,2022-11-27_19h51.27.821,vts_reward_expectancy_bt,2022.2.4,MacIntel,58.82352941,Safari,1440,900,,,,,0,1085,,,,,,,,,,,,,,,,,S,167,hexagon,0,0,,,,,,,,,,,,,,,,switch,number,NA,j,Lo,,,,,,0.713,4,,,,,,,,low,13,0,13,0,1,,,,,,,,,
292546,2022-11-27_19h51.27.821,vts_reward_expectancy_bt,2022.2.4,MacIntel,58.82352941,Safari,1440,900,,,,,0,1085,,,,,,,,,,,,,,,,,W,146,star,0,1,,,,,,,,,,,,,,,,repeat,number,NA,k,Lo,,,,,,0.806,4,,,,,,,,low,14,0,14,0,1,,,,,,,,,
292546,2022-11-27_19h51.27.821,vts_reward_expectancy_bt,2022.2.4,MacIntel,58.82352941,Safari,1440,900,,,,,10,1095,,,,,,,,,,,,,,,,,B,139,circle,1,1,,,,,,,,,,,,,,,,switch,letter,lettSwt,d,Hi,,,,,,0.608,4,,,,,,,,low,15,0,15,0,1,,,,,,,,,
292546,2022-11-27_19h51.27.821,vts_reward_expectancy_bt,2022.2.4,MacIntel,58.82352941,Safari,1440,900,,,,,0,1095,,,,,,,,,,,,,,,,,H,167,circle,1,0,,,,,,,,,,,,,,,,switch,number,numSwt,k,Hi,,,,,,1.593,4,,,,,,,,low,16,0,16,0,1,,,,,,,,,
292546,2022-11-27_19h51.27.821,vts_reward_expectancy_bt,2022.2.4,MacIntel,58.82352941,Safari,1440,900,,,,,10,1105,,,,,,,,,,,,,,,,,F,132,triangle,1,0,,,,,,,,,,,,,,,,repeat,number,numRpt,j,Lo,,,,,,0.859,4,,,,,,,,low,17,0,17,0,1,,,,,,,,,
292546,2022-11-27_19h51.27.821,vts_reward_expectancy_bt,2022.2.4,MacIntel,58.82352941,Safari,1440,900,,,,,1,1106,,,,,,,,,,,,,,,,,W,174,star,1,0,,,,,,,,,,,,,,,,switch,letter,lettSwt,f,Lo,,,,,,0.611,4,,,,,,,,low,18,0,18,0,1,,,,,,,,,
292546,2022-11-27_19h51.27.821,vts_reward_expectancy_bt,2022.2.4,MacIntel,58.82352941,Safari,1440,900,,,,,0,1106,,,,,,,,,,,,,,,,,S,146,hexagon,1,0,,,,,,,,,,,,,,,,switch,number,numSwt,j,Hi,,,,,,1.025,4,,,,,,,,low,19,0,19,0,1,,,,,,,,,
292546,2022-11-27_19h51.27.821,vts_reward_expectancy_bt,2022.2.4,MacIntel,58.82352941,Safari,1440,900,,,,,1,1107,,,,,,,,,,,,,,,,,Y,125,hexagon,1,0,,,,,,,,,,,,,,,,repeat,number,numRpt,j,Hi,,,,,,0.874,4,,,,,,,,low,20,0,20,0,1,,,,,,,,,
292546,2022-11-27_19h51.27.821,vts_reward_expectancy_bt,2022.2.4,MacIntel,58.82352941,Safari,1440,900,,,,,0,1107,,,,,,,,,,,,,,,,,D,181,triangle,0,0,,,,,,,,,,,,,,,,repeat,number,NA,j,Hi,,,,,,0.693,4,,,,,,,,low,21,0,21,0,1,,,,,,,,,
292546,2022-11-27_19h51.27.821,vts_reward_expectancy_bt,2022.2.4,MacIntel,58.82352941,Safari,1440,900,,,,,1,1108,,,,,,,,,,,,,,,,,B,139,circle,1,1,,,,,,,,,,,,,,,,switch,letter,lettSwt,d,Hi,,,,,,0.693,4,,,,,,,,low,22,0,22,0,1,,,,,,,,,
292546,2022-11-27_19h51.27.821,vts_reward_expectancy_bt,2022.2.4,MacIntel,58.82352941,Safari,1440,900,,,,,1,1109,,,,,,,,,,,,,,,,,U,160,star,1,0,,,,,,,,,,,,,,,,switch,number,numSwt,k,Lo,,,,,,1.044,4,,,,,,,,low,23,0,23,0,1,,,,,,,,,
292546,2022-11-27_19h51.27.821,vts_reward_expectancy_bt,2022.2.4,MacIntel,58.82352941,Safari,1440,900,,,,,1,1110,,,,,,,,,,,,,,,,,D,132,circle,1,0,,,,,,,,,,,,,,,,repeat,number,numRpt,j,Hi,,,,,,0.629,4,,,,,,,,low,24,0,24,0,1,,,,,,,,,
292546,2022-11-27_19h51.27.821,vts_reward_expectancy_bt,2022.2.4,MacIntel,58.82352941,Safari,1440,900,,,,,1,1111,,,,,,,,,,,,,,,,,B,160,triangle,1,0,,,,,,,,,,,,,,,,switch,letter,lettSwt,d,Lo,,,,,,0.708,4,,,,,,,,low,25,0,25,0,1,,,,,,,,,
292546,2022-11-27_19h51.27.821,vts_reward_expectancy_bt,2022.2.4,MacIntel,58.82352941,Safari,1440,900,,,,,0,1111,,,,,,,,,,,,,,,,,S,181,hexagon,1,0,,,,,,,,,,,,,,,,switch,number,numSwt,k,Hi,,,,,,1.396,4,,,,,,,,low,26,0,26,0,1,,,,,,,,,
292546,2022-11-27_19h51.27.821,vts_reward_expectancy_bt,2022.2.4,MacIntel,58.82352941,Safari,1440,900,,,,,1,1112,,,,,,,,,,,,,,,,,W,174,star,1,0,,,,,,,,,,,,,,,,repeat,number,numRpt,k,Lo,,,,,,1.079,4,,,,,,,,low,27,0,27,0,1,,,,,,,,,
292546,2022-11-27_19h51.27.821,vts_reward_expectancy_bt,2022.2.4,MacIntel,58.82352941,Safari,1440,900,,,,,0,1112,,,,,,,,,,,,,,,,,U,125,triangle,0,0,,,,,,,,,,,,,,,,repeat,number,NA,k,Lo,,,,,,0.693,4,,,,,,,,low,28,0,28,0,1,,,,,,,,,
292546,2022-11-27_19h51.27.821,vts_reward_expectancy_bt,2022.2.4,MacIntel,58.82352941,Safari,1440,900,,,,,0,1112,,,,,,,,,,,,,,,,,Y,167,circle,0,1,,,,,,,,,,,,,,,,repeat,number,NA,j,Lo,,,,,,0.626,4,,,,,,,,low,29,0,29,0,1,,,,,,,,,
292546,2022-11-27_19h51.27.821,vts_reward_expectancy_bt,2022.2.4,MacIntel,58.82352941,Safari,1440,900,,,,,0,1112,,,,,,,,,,,,,,,,,F,139,hexagon,1,1,,,,,,,,,,,,,,,,switch,letter,lettSwt,d,Hi,,,,,,0.841,4,,,,,,,,low,30,0,30,0,1,,,,,,,,,
292546,2022-11-27_19h51.27.821,vts_reward_expectancy_bt,2022.2.4,MacIntel,58.82352941,Safari,1440,900,,,,,1,1113,,,,,,,,,,,,,,,,,H,146,star,1,0,,,,,,,,,,,,,,,,switch,number,numSwt,j,Lo,,,,,,0.574,4,,,,,,,,low,31,0,31,0,1,,,,,,,,,
292546,2022-11-27_19h51.27.821,vts_reward_expectancy_bt,2022.2.4,MacIntel,58.82352941,Safari,1440,900,,,,,0,1113,,,,,,,,,,,,,,,,,F,139,circle,1,0,,,,,,,,,,,,,,,,switch,letter,lettSwt,d,Hi,,,,,,0.825,5,,,,,,space,1.965,low,0,0,0,0,1,,,,,,,,,
292546,2022-11-27_19h51.27.821,vts_reward_expectancy_bt,2022.2.4,MacIntel,58.82352941,Safari,1440,900,,,,,10,1123,,,,,,,,,,,,,,,,,B,167,hexagon,1,0,,,,,,,,,,,,,,,,repeat,letter,lettRpt,d,Hi,,,,,,0.418,5,,,,,,,,low,1,0,1,0,1,,,,,,,,,
292546,2022-11-27_19h51.27.821,vts_reward_expectancy_bt,2022.2.4,MacIntel,58.82352941,Safari,1440,900,,,,,0,1123,,,,,,,,,,,,,,,,,W,174,star,0,0,,,,,,,,,,,,,,,,repeat,letter,NA,d,Hi,,,,,,0.361,5,,,,,,,,low,2,0,2,0,1,,,,,,,,,
292546,2022-11-27_19h51.27.821,vts_reward_expectancy_bt,2022.2.4,MacIntel,58.82352941,Safari,1440,900,,,,,0,1123,,,,,,,,,,,,,,,,,D,181,triangle,0,1,,,,,,,,,,,,,,,,repeat,letter,NA,f,Hi,,,,,,0.807,5,,,,,,,,low,3,0,3,0,1,,,,,,,,,
292546,2022-11-27_19h51.27.821,vts_reward_expectancy_bt,2022.2.4,MacIntel,58.82352941,Safari,1440,900,,,,,0,1123,,,,,,,,,,,,,,,,,S,132,circle,0,1,,,,,,,,,,,,,,,,repeat,letter,NA,d,Hi,,,,,,0.528,5,,,,,,,,low,4,0,4,0,1,,,,,,,,,
292546,2022-11-27_19h51.27.821,vts_reward_expectancy_bt,2022.2.4,MacIntel,58.82352941,Safari,1440,900,,,,,10,1133,,,,,,,,,,,,,,,,,H,146,hexagon,1,1,,,,,,,,,,,,,,,,repeat,letter,lettRpt,d,Hi,,,,,,0.747,5,,,,,,,,low,5,0,5,0,1,,,,,,,,,
292546,2022-11-27_19h51.27.821,vts_reward_expectancy_bt,2022.2.4,MacIntel,58.82352941,Safari,1440,900,,,,,0,1133,,,,,,,,,,,,,,,,,Y,125,star,0,0,,,,,,,,,,,,,,,,repeat,letter,NA,d,Hi,,,,,,0.914,5,,,,,,,,low,6,0,6,0,1,,,,,,,,,
292546,2022-11-27_19h51.27.821,vts_reward_expectancy_bt,2022.2.4,MacIntel,58.82352941,Safari,1440,900,,,,,1,1134,,,,,,,,,,,,,,,,,U,160,triangle,1,1,,,,,,,,,,,,,,,,switch,number,numSwt,k,Lo,,,,,,0.526,5,,,,,,,,low,7,0,7,0,1,,,,,,,,,
292546,2022-11-27_19h51.27.821,vts_reward_expectancy_bt,2022.2.4,MacIntel,58.82352941,Safari,1440,900,,,,,0,1134,,,,,,,,,,,,,,,,,F,139,circle,1,0,,,,,,,,,,,,,,,,switch,letter,lettSwt,d,Hi,,,,,,0.779,5,,,,,,,,low,8,0,8,0,1,,,,,,,,,
292546,2022-11-27_19h51.27.821,vts_reward_expectancy_bt,2022.2.4,MacIntel,58.82352941,Safari,1440,900,,,,,10,1144,,,,,,,,,,,,,,,,,B,167,triangle,1,0,,,,,,,,,,,,,,,,repeat,letter,lettRpt,d,Lo,,,,,,0.595,5,,,,,,,,low,9,0,9,0,1,,,,,,,,,
292546,2022-11-27_19h51.27.821,vts_reward_expectancy_bt,2022.2.4,MacIntel,58.82352941,Safari,1440,900,,,,,1,1145,,,,,,,,,,,,,,,,,W,174,star,1,0,,,,,,,,,,,,,,,,switch,number,numSwt,k,Lo,,,,,,0.759,5,,,,,,,,low,10,0,10,0,1,,,,,,,,,
292546,2022-11-27_19h51.27.821,vts_reward_expectancy_bt,2022.2.4,MacIntel,58.82352941,Safari,1440,900,,,,,10,1155,,,,,,,,,,,,,,,,,D,181,hexagon,1,0,,,,,,,,,,,,,,,,switch,letter,lettSwt,d,Hi,,,,,,0.548,5,,,,,,,,low,11,0,11,0,1,,,,,,,,,
292546,2022-11-27_19h51.27.821,vts_reward_expectancy_bt,2022.2.4,MacIntel,58.82352941,Safari,1440,900,,,,,10,1165,,,,,,,,,,,,,,,,,S,132,triangle,1,0,,,,,,,,,,,,,,,,switch,number,numSwt,j,Lo,,,,,,0.776,5,,,,,,,,low,12,0,12,0,1,,,,,,,,,
292546,2022-11-27_19h51.27.821,vts_reward_expectancy_bt,2022.2.4,MacIntel,58.82352941,Safari,1440,900,,,,,0,1165,,,,,,,,,,,,,,,,,H,146,star,0,0,,,,,,,,,,,,,,,,switch,letter,NA,f,Lo,,,,,,0.734,5,,,,,,,,low,13,0,13,0,1,,,,,,,,,
