participant,date,expName,psychopyVersion,OS,frameRate,browser,xResolution,yResolution,key_resp.keys,key_resp.rt,training_resp.keys,training_resp.rt,points_trial,points_cumul,trainBlock,training.thisRepN,training.thisTrialN,training.thisN,training.thisIndex,training.ran,LTriangleOpac,LCircleOpac,LHexagonOpac,LStarOpac,RTriangleOpac,RCircleOpac,RHexagonOpac,RStarOpac,LShape_ID,RShape_ID,curr_topStim,curr_bottStim,curr_shape,acc,E1,target_resp_prac1.keys,pracBlock,task1_prac_trials.thisRepN,task1_prac_trials.thisTrialN,task1_prac_trials.thisN,task1_prac_trials.thisIndex,task1_prac_trials.ran,target_resp_prac1.rt,target_resp_prac2.keys,target_resp_prac2.rt,task2_praac_trials.thisRepN,task2_praac_trials.thisTrialN,task2_praac_trials.thisN,task2_praac_trials.thisIndex,task2_praac_trials.ran,alt,task,condition,target_resp.keys,target_resp.rt,rewCond,vts_practice_trials.thisRepN,vts_practice_trials.thisTrialN,vts_practice_trials.thisN,vts_practice_trials.thisIndex,vts_practice_trials.ran,blockNum,trials_norew.thisRepN,trials_norew.thisTrialN,trials_norew.thisN,trials_norew.thisIndex,trials_norew.ran,key_resp_2.keys,key_resp_2.rt,rewExpectancy,trials_rew.thisRepN,trials_rew.thisTrialN,trials_rew.thisN,trials_rew.thisIndex,trials_rew.ran,Q1,Q2,Q2_text,Q3,Q4,Q5_text,Q5,xRes,yRes
292540,2022-12-05_10h23.35.276,vts_reward_expectancy_bt,2022.2.4,Win32,145.0957632,Chrome,1536,864,,,,,,,,,,,,,,,,,,,,,,,,,,,,,,,,,,,,,,,,,,,,,,,,,,,,,,,,,,,,,,,,,,,,,,,,,,,,
292540,2022-12-05_10h23.35.276,vts_reward_expectancy_bt,2022.2.4,Win32,145.0957632,Chrome,1536,864,space,11.6907,,,,,,,,,,,,,,,,,,,,,,,,,,,,,,,,,,,,,,,,,,,,,,,,,,,,,,,,,,,,,,,,,,,,,,,,,,
292540,2022-12-05_10h23.35.276,vts_reward_expectancy_bt,2022.2.4,Win32,145.0957632,Chrome,1536,864,,,,,,,,,,,,,,,,,,,,,,,,,,,,,,,,,,,,,,,,,,,,,,,,,,,,,,,,,,,,,,,,,,,,,,,,,,,,
292540,2022-12-05_10h23.35.276,vts_reward_expectancy_bt,2022.2.4,Win32,145.0957632,Chrome,1536,864,,,l,2.948,10,10,0,0,0,0,7,1,0,0,1,0,0,1,0,0,hexagon,circle,,,,,,,,,,,,,,,,,,,,,,,,,,,,,,,,,,,,,,,,,,,,,,,,,,,,,,
292540,2022-12-05_10h23.35.276,vts_reward_expectancy_bt,2022.2.4,Win32,145.0957632,Chrome,1536,864,,,a,3.1606,10,20,0,0,1,1,10,1,0,0,0,1,0,1,0,0,star ,circle,,,,,,,,,,,,,,,,,,,,,,,,,,,,,,,,,,,,,,,,,,,,,,,,,,,,,,
292540,2022-12-05_10h23.35.276,vts_reward_expectancy_bt,2022.2.4,Win32,145.0957632,Chrome,1536,864,,,l,2.3561,1,21,0,0,2,2,6,1,0,0,1,0,1,0,0,0,hexagon,triangle,,,,,,,,,,,,,,,,,,,,,,,,,,,,,,,,,,,,,,,,,,,,,,,,,,,,,,
292540,2022-12-05_10h23.35.276,vts_reward_expectancy_bt,2022.2.4,Win32,145.0957632,Chrome,1536,864,,,a,1.3646,10,31,0,0,3,3,11,1,0,0,0,1,0,0,1,0,star,hexagon,,,,,,,,,,,,,,,,,,,,,,,,,,,,,,,,,,,,,,,,,,,,,,,,,,,,,,
292540,2022-12-05_10h23.35.276,vts_reward_expectancy_bt,2022.2.4,Win32,145.0957632,Chrome,1536,864,,,a,1.8268,1,32,0,0,4,4,5,1,0,1,0,0,0,0,0,1,circle,star,,,,,,,,,,,,,,,,,,,,,,,,,,,,,,,,,,,,,,,,,,,,,,,,,,,,,,
292540,2022-12-05_10h23.35.276,vts_reward_expectancy_bt,2022.2.4,Win32,145.0957632,Chrome,1536,864,,,a,1.5649,10,42,0,0,5,5,4,1,0,1,0,0,0,0,1,0,circle,hexagon,,,,,,,,,,,,,,,,,,,,,,,,,,,,,,,,,,,,,,,,,,,,,,,,,,,,,,
292540,2022-12-05_10h23.35.276,vts_reward_expectancy_bt,2022.2.4,Win32,145.0957632,Chrome,1536,864,,,l,2.111,10,52,0,0,6,6,1,1,1,0,0,0,0,0,1,0,triangle,hexagon,,,,,,,,,,,,,,,,,,,,,,,,,,,,,,,,,,,,,,,,,,,,,,,,,,,,,,
292540,2022-12-05_10h23.35.276,vts_reward_expectancy_bt,2022.2.4,Win32,145.0957632,Chrome,1536,864,,,l,3.0057,10,62,0,0,7,7,8,1,0,0,1,0,0,0,0,1,hexagon,star,,,,,,,,,,,,,,,,,,,,,,,,,,,,,,,,,,,,,,,,,,,,,,,,,,,,,,
292540,2022-12-05_10h23.35.276,vts_reward_expectancy_bt,2022.2.4,Win32,145.0957632,Chrome,1536,864,,,l,1.4301,10,72,0,0,8,8,0,1,1,0,0,0,0,1,0,0,triangle,circle,,,,,,,,,,,,,,,,,,,,,,,,,,,,,,,,,,,,,,,,,,,,,,,,,,,,,,
292540,2022-12-05_10h23.35.276,vts_reward_expectancy_bt,2022.2.4,Win32,145.0957632,Chrome,1536,864,,,l,1.1681,10,82,0,0,9,9,2,1,1,0,0,0,0,0,0,1,triangle,star,,,,,,,,,,,,,,,,,,,,,,,,,,,,,,,,,,,,,,,,,,,,,,,,,,,,,,
292540,2022-12-05_10h23.35.276,vts_reward_expectancy_bt,2022.2.4,Win32,145.0957632,Chrome,1536,864,,,a,1.0275,10,92,0,0,10,10,3,1,0,1,0,0,1,0,0,0,circle,triangle,,,,,,,,,,,,,,,,,,,,,,,,,,,,,,,,,,,,,,,,,,,,,,,,,,,,,,
292540,2022-12-05_10h23.35.276,vts_reward_expectancy_bt,2022.2.4,Win32,145.0957632,Chrome,1536,864,,,a,1.1924,1,93,0,0,11,11,9,1,0,0,0,1,1,0,0,0,star,triangle,,,,,,,,,,,,,,,,,,,,,,,,,,,,,,,,,,,,,,,,,,,,,,,,,,,,,,
292540,2022-12-05_10h23.35.276,vts_reward_expectancy_bt,2022.2.4,Win32,145.0957632,Chrome,1536,864,,,l,1.4328,10,103,0,1,0,12,8,1,0,0,1,0,0,0,0,1,hexagon,star,,,,,,,,,,,,,,,,,,,,,,,,,,,,,,,,,,,,,,,,,,,,,,,,,,,,,,
292540,2022-12-05_10h23.35.276,vts_reward_expectancy_bt,2022.2.4,Win32,145.0957632,Chrome,1536,864,,,l,1.7836,10,113,0,1,1,13,1,1,1,0,0,0,0,0,1,0,triangle,hexagon,,,,,,,,,,,,,,,,,,,,,,,,,,,,,,,,,,,,,,,,,,,,,,,,,,,,,,
292540,2022-12-05_10h23.35.276,vts_reward_expectancy_bt,2022.2.4,Win32,145.0957632,Chrome,1536,864,,,a,2.9738,1,114,0,1,2,14,11,1,0,0,0,1,0,0,1,0,star,hexagon,,,,,,,,,,,,,,,,,,,,,,,,,,,,,,,,,,,,,,,,,,,,,,,,,,,,,,
292540,2022-12-05_10h23.35.276,vts_reward_expectancy_bt,2022.2.4,Win32,145.0957632,Chrome,1536,864,,,a,1.7593,1,115,0,1,3,15,2,1,1,0,0,0,0,0,0,1,triangle,star,,,,,,,,,,,,,,,,,,,,,,,,,,,,,,,,,,,,,,,,,,,,,,,,,,,,,,
292540,2022-12-05_10h23.35.276,vts_reward_expectancy_bt,2022.2.4,Win32,145.0957632,Chrome,1536,864,,,l,1.9666,10,125,0,1,4,16,0,1,1,0,0,0,0,1,0,0,triangle,circle,,,,,,,,,,,,,,,,,,,,,,,,,,,,,,,,,,,,,,,,,,,,,,,,,,,,,,
292540,2022-12-05_10h23.35.276,vts_reward_expectancy_bt,2022.2.4,Win32,145.0957632,Chrome,1536,864,,,l,1.8035,10,135,0,1,5,17,7,1,0,0,1,0,0,1,0,0,hexagon,circle,,,,,,,,,,,,,,,,,,,,,,,,,,,,,,,,,,,,,,,,,,,,,,,,,,,,,,
292540,2022-12-05_10h23.35.276,vts_reward_expectancy_bt,2022.2.4,Win32,145.0957632,Chrome,1536,864,,,a,3.537,10,145,0,1,6,18,10,1,0,0,0,1,0,1,0,0,star ,circle,,,,,,,,,,,,,,,,,,,,,,,,,,,,,,,,,,,,,,,,,,,,,,,,,,,,,,
292540,2022-12-05_10h23.35.276,vts_reward_expectancy_bt,2022.2.4,Win32,145.0957632,Chrome,1536,864,,,l,1.3568,10,155,0,1,7,19,5,1,0,1,0,0,0,0,0,1,circle,star,,,,,,,,,,,,,,,,,,,,,,,,,,,,,,,,,,,,,,,,,,,,,,,,,,,,,,
292540,2022-12-05_10h23.35.276,vts_reward_expectancy_bt,2022.2.4,Win32,145.0957632,Chrome,1536,864,,,a,2.5206,10,165,0,1,8,20,3,1,0,1,0,0,1,0,0,0,circle,triangle,,,,,,,,,,,,,,,,,,,,,,,,,,,,,,,,,,,,,,,,,,,,,,,,,,,,,,
292540,2022-12-05_10h23.35.276,vts_reward_expectancy_bt,2022.2.4,Win32,145.0957632,Chrome,1536,864,,,a,2.0513,1,166,0,1,9,21,6,1,0,0,1,0,1,0,0,0,hexagon,triangle,,,,,,,,,,,,,,,,,,,,,,,,,,,,,,,,,,,,,,,,,,,,,,,,,,,,,,
292540,2022-12-05_10h23.35.276,vts_reward_expectancy_bt,2022.2.4,Win32,145.0957632,Chrome,1536,864,,,l,2.1391,1,167,0,1,10,22,9,1,0,0,0,1,1,0,0,0,star,triangle,,,,,,,,,,,,,,,,,,,,,,,,,,,,,,,,,,,,,,,,,,,,,,,,,,,,,,
292540,2022-12-05_10h23.35.276,vts_reward_expectancy_bt,2022.2.4,Win32,145.0957632,Chrome,1536,864,,,a,2.862,10,177,0,1,11,23,4,1,0,1,0,0,0,0,1,0,circle,hexagon,,,,,,,,,,,,,,,,,,,,,,,,,,,,,,,,,,,,,,,,,,,,,,,,,,,,,,
292540,2022-12-05_10h23.35.276,vts_reward_expectancy_bt,2022.2.4,Win32,145.0957632,Chrome,1536,864,,,a,1.35,10,187,0,2,0,24,10,1,0,0,0,1,0,1,0,0,star ,circle,,,,,,,,,,,,,,,,,,,,,,,,,,,,,,,,,,,,,,,,,,,,,,,,,,,,,,
292540,2022-12-05_10h23.35.276,vts_reward_expectancy_bt,2022.2.4,Win32,145.0957632,Chrome,1536,864,,,a,2.0513,10,197,0,2,1,25,6,1,0,0,1,0,1,0,0,0,hexagon,triangle,,,,,,,,,,,,,,,,,,,,,,,,,,,,,,,,,,,,,,,,,,,,,,,,,,,,,,
292540,2022-12-05_10h23.35.276,vts_reward_expectancy_bt,2022.2.4,Win32,145.0957632,Chrome,1536,864,,,l,2.5228,10,207,0,2,2,26,5,1,0,1,0,0,0,0,0,1,circle,star,,,,,,,,,,,,,,,,,,,,,,,,,,,,,,,,,,,,,,,,,,,,,,,,,,,,,,
292540,2022-12-05_10h23.35.276,vts_reward_expectancy_bt,2022.2.4,Win32,145.0957632,Chrome,1536,864,,,l,2.344,1,208,0,2,3,27,1,1,1,0,0,0,0,0,1,0,triangle,hexagon,,,,,,,,,,,,,,,,,,,,,,,,,,,,,,,,,,,,,,,,,,,,,,,,,,,,,,
292540,2022-12-05_10h23.35.276,vts_reward_expectancy_bt,2022.2.4,Win32,145.0957632,Chrome,1536,864,,,a,1.4281,1,209,0,2,4,28,11,1,0,0,0,1,0,0,1,0,star,hexagon,,,,,,,,,,,,,,,,,,,,,,,,,,,,,,,,,,,,,,,,,,,,,,,,,,,,,,
292540,2022-12-05_10h23.35.276,vts_reward_expectancy_bt,2022.2.4,Win32,145.0957632,Chrome,1536,864,,,l,2.7736,10,219,0,2,5,29,9,1,0,0,0,1,1,0,0,0,star,triangle,,,,,,,,,,,,,,,,,,,,,,,,,,,,,,,,,,,,,,,,,,,,,,,,,,,,,,
292540,2022-12-05_10h23.35.276,vts_reward_expectancy_bt,2022.2.4,Win32,145.0957632,Chrome,1536,864,,,l,1.9003,10,229,0,2,6,30,7,1,0,0,1,0,0,1,0,0,hexagon,circle,,,,,,,,,,,,,,,,,,,,,,,,,,,,,,,,,,,,,,,,,,,,,,,,,,,,,,
292540,2022-12-05_10h23.35.276,vts_reward_expectancy_bt,2022.2.4,Win32,145.0957632,Chrome,1536,864,,,l,4.25,1,230,0,2,7,31,8,1,0,0,1,0,0,0,0,1,hexagon,star,,,,,,,,,,,,,,,,,,,,,,,,,,,,,,,,,,,,,,,,,,,,,,,,,,,,,,
292540,2022-12-05_10h23.35.276,vts_reward_expectancy_bt,2022.2.4,Win32,145.0957632,Chrome,1536,864,,,a,1.5189,10,240,0,2,8,32,4,1,0,1,0,0,0,0,1,0,circle,hexagon,,,,,,,,,,,,,,,,,,,,,,,,,,,,,,,,,,,,,,,,,,,,,,,,,,,,,,
292540,2022-12-05_10h23.35.276,vts_reward_expectancy_bt,2022.2.4,Win32,145.0957632,Chrome,1536,864,,,a,2.2011,1,241,0,2,9,33,2,1,1,0,0,0,0,0,0,1,triangle,star,,,,,,,,,,,,,,,,,,,,,,,,,,,,,,,,,,,,,,,,,,,,,,,,,,,,,,
292540,2022-12-05_10h23.35.276,vts_reward_expectancy_bt,2022.2.4,Win32,145.0957632,Chrome,1536,864,,,l,0.9865,1,242,0,2,10,34,0,1,1,0,0,0,0,1,0,0,triangle,circle,,,,,,,,,,,,,,,,,,,,,,,,,,,,,,,,,,,,,,,,,,,,,,,,,,,,,,
292540,2022-12-05_10h23.35.276,vts_reward_expectancy_bt,2022.2.4,Win32,145.0957632,Chrome,1536,864,,,a,3.0697,1,243,0,2,11,35,3,1,0,1,0,0,1,0,0,0,circle,triangle,,,,,,,,,,,,,,,,,,,,,,,,,,,,,,,,,,,,,,,,,,,,,,,,,,,,,,
292540,2022-12-05_10h23.35.276,vts_reward_expectancy_bt,2022.2.4,Win32,145.0957632,Chrome,1536,864,,,a,3.1199,1,244,1,0,0,0,6,1,0,0,1,0,1,0,0,0,hexagon,triangle,,,,,,,,,,,,,,,,,,,,,,,,,,,,,,,,,,,,,,,,,,,,,,,,,,,,,,
292540,2022-12-05_10h23.35.276,vts_reward_expectancy_bt,2022.2.4,Win32,145.0957632,Chrome,1536,864,,,l,1.4013,10,254,1,0,1,1,9,1,0,0,0,1,1,0,0,0,star,triangle,,,,,,,,,,,,,,,,,,,,,,,,,,,,,,,,,,,,,,,,,,,,,,,,,,,,,,
292540,2022-12-05_10h23.35.276,vts_reward_expectancy_bt,2022.2.4,Win32,145.0957632,Chrome,1536,864,,,a,2.1045,10,264,1,0,2,2,4,1,0,1,0,0,0,0,1,0,circle,hexagon,,,,,,,,,,,,,,,,,,,,,,,,,,,,,,,,,,,,,,,,,,,,,,,,,,,,,,
292540,2022-12-05_10h23.35.276,vts_reward_expectancy_bt,2022.2.4,Win32,145.0957632,Chrome,1536,864,,,a,1.8393,10,274,1,0,3,3,5,1,0,1,0,0,0,0,0,1,circle,star,,,,,,,,,,,,,,,,,,,,,,,,,,,,,,,,,,,,,,,,,,,,,,,,,,,,,,
292540,2022-12-05_10h23.35.276,vts_reward_expectancy_bt,2022.2.4,Win32,145.0957632,Chrome,1536,864,,,a,5.4985,1,275,1,0,4,4,3,1,0,1,0,0,1,0,0,0,circle,triangle,,,,,,,,,,,,,,,,,,,,,,,,,,,,,,,,,,,,,,,,,,,,,,,,,,,,,,
292540,2022-12-05_10h23.35.276,vts_reward_expectancy_bt,2022.2.4,Win32,145.0957632,Chrome,1536,864,,,a,2.4146,10,285,1,0,5,5,11,1,0,0,0,1,0,0,1,0,star,hexagon,,,,,,,,,,,,,,,,,,,,,,,,,,,,,,,,,,,,,,,,,,,,,,,,,,,,,,
292540,2022-12-05_10h23.35.276,vts_reward_expectancy_bt,2022.2.4,Win32,145.0957632,Chrome,1536,864,,,l,1.9874,1,286,1,0,6,6,1,1,1,0,0,0,0,0,1,0,triangle,hexagon,,,,,,,,,,,,,,,,,,,,,,,,,,,,,,,,,,,,,,,,,,,,,,,,,,,,,,
292540,2022-12-05_10h23.35.276,vts_reward_expectancy_bt,2022.2.4,Win32,145.0957632,Chrome,1536,864,,,l,3.7272,1,287,1,0,7,7,8,1,0,0,1,0,0,0,0,1,hexagon,star,,,,,,,,,,,,,,,,,,,,,,,,,,,,,,,,,,,,,,,,,,,,,,,,,,,,,,
292540,2022-12-05_10h23.35.276,vts_reward_expectancy_bt,2022.2.4,Win32,145.0957632,Chrome,1536,864,,,l,1.7279,1,288,1,0,8,8,7,1,0,0,1,0,0,1,0,0,hexagon,circle,,,,,,,,,,,,,,,,,,,,,,,,,,,,,,,,,,,,,,,,,,,,,,,,,,,,,,
292540,2022-12-05_10h23.35.276,vts_reward_expectancy_bt,2022.2.4,Win32,145.0957632,Chrome,1536,864,,,a,0.7366,1,289,1,0,9,9,10,1,0,0,0,1,0,1,0,0,star ,circle,,,,,,,,,,,,,,,,,,,,,,,,,,,,,,,,,,,,,,,,,,,,,,,,,,,,,,
292540,2022-12-05_10h23.35.276,vts_reward_expectancy_bt,2022.2.4,Win32,145.0957632,Chrome,1536,864,,,l,4.5851,10,299,1,0,10,10,2,1,1,0,0,0,0,0,0,1,triangle,star,,,,,,,,,,,,,,,,,,,,,,,,,,,,,,,,,,,,,,,,,,,,,,,,,,,,,,
292540,2022-12-05_10h23.35.276,vts_reward_expectancy_bt,2022.2.4,Win32,145.0957632,Chrome,1536,864,,,l,0.749,1,300,1,0,11,11,0,1,1,0,0,0,0,1,0,0,triangle,circle,,,,,,,,,,,,,,,,,,,,,,,,,,,,,,,,,,,,,,,,,,,,,,,,,,,,,,
292540,2022-12-05_10h23.35.276,vts_reward_expectancy_bt,2022.2.4,Win32,145.0957632,Chrome,1536,864,,,a,0.6953,10,310,1,1,0,12,11,1,0,0,0,1,0,0,1,0,star,hexagon,,,,,,,,,,,,,,,,,,,,,,,,,,,,,,,,,,,,,,,,,,,,,,,,,,,,,,
292540,2022-12-05_10h23.35.276,vts_reward_expectancy_bt,2022.2.4,Win32,145.0957632,Chrome,1536,864,,,l,0.8407,10,320,1,1,1,13,8,1,0,0,1,0,0,0,0,1,hexagon,star,,,,,,,,,,,,,,,,,,,,,,,,,,,,,,,,,,,,,,,,,,,,,,,,,,,,,,
292540,2022-12-05_10h23.35.276,vts_reward_expectancy_bt,2022.2.4,Win32,145.0957632,Chrome,1536,864,,,l,0.8169,10,330,1,1,2,14,5,1,0,1,0,0,0,0,0,1,circle,star,,,,,,,,,,,,,,,,,,,,,,,,,,,,,,,,,,,,,,,,,,,,,,,,,,,,,,
292540,2022-12-05_10h23.35.276,vts_reward_expectancy_bt,2022.2.4,Win32,145.0957632,Chrome,1536,864,,,l,1.0982,1,331,1,1,3,15,9,1,0,0,0,1,1,0,0,0,star,triangle,,,,,,,,,,,,,,,,,,,,,,,,,,,,,,,,,,,,,,,,,,,,,,,,,,,,,,
292540,2022-12-05_10h23.35.276,vts_reward_expectancy_bt,2022.2.4,Win32,145.0957632,Chrome,1536,864,,,l,0.5628,1,332,1,1,4,16,7,1,0,0,1,0,0,1,0,0,hexagon,circle,,,,,,,,,,,,,,,,,,,,,,,,,,,,,,,,,,,,,,,,,,,,,,,,,,,,,,
292540,2022-12-05_10h23.35.276,vts_reward_expectancy_bt,2022.2.4,Win32,145.0957632,Chrome,1536,864,,,a,0.6525,1,333,1,1,5,17,0,1,1,0,0,0,0,1,0,0,triangle,circle,,,,,,,,,,,,,,,,,,,,,,,,,,,,,,,,,,,,,,,,,,,,,,,,,,,,,,
292540,2022-12-05_10h23.35.276,vts_reward_expectancy_bt,2022.2.4,Win32,145.0957632,Chrome,1536,864,,,a,1.0457,1,334,1,1,6,18,6,1,0,0,1,0,1,0,0,0,hexagon,triangle,,,,,,,,,,,,,,,,,,,,,,,,,,,,,,,,,,,,,,,,,,,,,,,,,,,,,,
292540,2022-12-05_10h23.35.276,vts_reward_expectancy_bt,2022.2.4,Win32,145.0957632,Chrome,1536,864,,,l,0.5588,10,344,1,1,7,19,4,1,0,1,0,0,0,0,1,0,circle,hexagon,,,,,,,,,,,,,,,,,,,,,,,,,,,,,,,,,,,,,,,,,,,,,,,,,,,,,,
292540,2022-12-05_10h23.35.276,vts_reward_expectancy_bt,2022.2.4,Win32,145.0957632,Chrome,1536,864,,,l,1.3332,10,354,1,1,8,20,1,1,1,0,0,0,0,0,1,0,triangle,hexagon,,,,,,,,,,,,,,,,,,,,,,,,,,,,,,,,,,,,,,,,,,,,,,,,,,,,,,
292540,2022-12-05_10h23.35.276,vts_reward_expectancy_bt,2022.2.4,Win32,145.0957632,Chrome,1536,864,,,a,1.0215,10,364,1,1,9,21,10,1,0,0,0,1,0,1,0,0,star ,circle,,,,,,,,,,,,,,,,,,,,,,,,,,,,,,,,,,,,,,,,,,,,,,,,,,,,,,
292540,2022-12-05_10h23.35.276,vts_reward_expectancy_bt,2022.2.4,Win32,145.0957632,Chrome,1536,864,,,l,2.1035,10,374,1,1,10,22,3,1,0,1,0,0,1,0,0,0,circle,triangle,,,,,,,,,,,,,,,,,,,,,,,,,,,,,,,,,,,,,,,,,,,,,,,,,,,,,,
292540,2022-12-05_10h23.35.276,vts_reward_expectancy_bt,2022.2.4,Win32,145.0957632,Chrome,1536,864,,,a,1.1571,1,375,1,1,11,23,2,1,1,0,0,0,0,0,0,1,triangle,star,,,,,,,,,,,,,,,,,,,,,,,,,,,,,,,,,,,,,,,,,,,,,,,,,,,,,,
292540,2022-12-05_10h23.35.276,vts_reward_expectancy_bt,2022.2.4,Win32,145.0957632,Chrome,1536,864,,,a,1.6571,1,376,1,2,0,24,4,1,0,1,0,0,0,0,1,0,circle,hexagon,,,,,,,,,,,,,,,,,,,,,,,,,,,,,,,,,,,,,,,,,,,,,,,,,,,,,,
292540,2022-12-05_10h23.35.276,vts_reward_expectancy_bt,2022.2.4,Win32,145.0957632,Chrome,1536,864,,,l,0.7829,10,386,1,2,1,25,2,1,1,0,0,0,0,0,0,1,triangle,star,,,,,,,,,,,,,,,,,,,,,,,,,,,,,,,,,,,,,,,,,,,,,,,,,,,,,,
292540,2022-12-05_10h23.35.276,vts_reward_expectancy_bt,2022.2.4,Win32,145.0957632,Chrome,1536,864,,,a,1.387,10,396,1,2,2,26,8,1,0,0,1,0,0,0,0,1,hexagon,star,,,,,,,,,,,,,,,,,,,,,,,,,,,,,,,,,,,,,,,,,,,,,,,,,,,,,,
292540,2022-12-05_10h23.35.276,vts_reward_expectancy_bt,2022.2.4,Win32,145.0957632,Chrome,1536,864,,,l,2.8754,1,397,1,2,3,27,6,1,0,0,1,0,1,0,0,0,hexagon,triangle,,,,,,,,,,,,,,,,,,,,,,,,,,,,,,,,,,,,,,,,,,,,,,,,,,,,,,
292540,2022-12-05_10h23.35.276,vts_reward_expectancy_bt,2022.2.4,Win32,145.0957632,Chrome,1536,864,,,l,1.2359,10,407,1,2,4,28,3,1,0,1,0,0,1,0,0,0,circle,triangle,,,,,,,,,,,,,,,,,,,,,,,,,,,,,,,,,,,,,,,,,,,,,,,,,,,,,,
292540,2022-12-05_10h23.35.276,vts_reward_expectancy_bt,2022.2.4,Win32,145.0957632,Chrome,1536,864,,,a,1.5295,1,408,1,2,5,29,7,1,0,0,1,0,0,1,0,0,hexagon,circle,,,,,,,,,,,,,,,,,,,,,,,,,,,,,,,,,,,,,,,,,,,,,,,,,,,,,,
292540,2022-12-05_10h23.35.276,vts_reward_expectancy_bt,2022.2.4,Win32,145.0957632,Chrome,1536,864,,,l,5.0143,1,409,1,2,6,30,1,1,1,0,0,0,0,0,1,0,triangle,hexagon,,,,,,,,,,,,,,,,,,,,,,,,,,,,,,,,,,,,,,,,,,,,,,,,,,,,,,
292540,2022-12-05_10h23.35.276,vts_reward_expectancy_bt,2022.2.4,Win32,145.0957632,Chrome,1536,864,,,l,1.2645,1,410,1,2,7,31,10,1,0,0,0,1,0,1,0,0,star ,circle,,,,,,,,,,,,,,,,,,,,,,,,,,,,,,,,,,,,,,,,,,,,,,,,,,,,,,
292540,2022-12-05_10h23.35.276,vts_reward_expectancy_bt,2022.2.4,Win32,145.0957632,Chrome,1536,864,,,a,1.4638,1,411,1,2,8,32,0,1,1,0,0,0,0,1,0,0,triangle,circle,,,,,,,,,,,,,,,,,,,,,,,,,,,,,,,,,,,,,,,,,,,,,,,,,,,,,,
292540,2022-12-05_10h23.35.276,vts_reward_expectancy_bt,2022.2.4,Win32,145.0957632,Chrome,1536,864,,,a,1.0092,10,421,1,2,9,33,9,1,0,0,0,1,1,0,0,0,star,triangle,,,,,,,,,,,,,,,,,,,,,,,,,,,,,,,,,,,,,,,,,,,,,,,,,,,,,,
292540,2022-12-05_10h23.35.276,vts_reward_expectancy_bt,2022.2.4,Win32,145.0957632,Chrome,1536,864,,,l,3.7003,1,422,1,2,10,34,5,1,0,1,0,0,0,0,0,1,circle,star,,,,,,,,,,,,,,,,,,,,,,,,,,,,,,,,,,,,,,,,,,,,,,,,,,,,,,
292540,2022-12-05_10h23.35.276,vts_reward_expectancy_bt,2022.2.4,Win32,145.0957632,Chrome,1536,864,,,l,0.3625,1,423,1,2,11,35,11,1,0,0,0,1,0,0,1,0,star,hexagon,,,,,,,,,,,,,,,,,,,,,,,,,,,,,,,,,,,,,,,,,,,,,,,,,,,,,,
292540,2022-12-05_10h23.35.276,vts_reward_expectancy_bt,2022.2.4,Win32,145.0957632,Chrome,1536,864,,,l,1.0617,1,424,2,0,0,0,3,1,0,1,0,0,1,0,0,0,circle,triangle,,,,,,,,,,,,,,,,,,,,,,,,,,,,,,,,,,,,,,,,,,,,,,,,,,,,,,
292540,2022-12-05_10h23.35.276,vts_reward_expectancy_bt,2022.2.4,Win32,145.0957632,Chrome,1536,864,,,l,0.4028,10,434,2,0,1,1,7,1,0,0,1,0,0,1,0,0,hexagon,circle,,,,,,,,,,,,,,,,,,,,,,,,,,,,,,,,,,,,,,,,,,,,,,,,,,,,,,
292540,2022-12-05_10h23.35.276,vts_reward_expectancy_bt,2022.2.4,Win32,145.0957632,Chrome,1536,864,,,l,0.3768,10,444,2,0,2,2,4,1,0,1,0,0,0,0,1,0,circle,hexagon,,,,,,,,,,,,,,,,,,,,,,,,,,,,,,,,,,,,,,,,,,,,,,,,,,,,,,
292540,2022-12-05_10h23.35.276,vts_reward_expectancy_bt,2022.2.4,Win32,145.0957632,Chrome,1536,864,,,l,0.3541,10,454,2,0,3,3,2,1,1,0,0,0,0,0,0,1,triangle,star,,,,,,,,,,,,,,,,,,,,,,,,,,,,,,,,,,,,,,,,,,,,,,,,,,,,,,
292540,2022-12-05_10h23.35.276,vts_reward_expectancy_bt,2022.2.4,Win32,145.0957632,Chrome,1536,864,,,l,0.4086,1,455,2,0,4,4,5,1,0,1,0,0,0,0,0,1,circle,star,,,,,,,,,,,,,,,,,,,,,,,,,,,,,,,,,,,,,,,,,,,,,,,,,,,,,,
292540,2022-12-05_10h23.35.276,vts_reward_expectancy_bt,2022.2.4,Win32,145.0957632,Chrome,1536,864,,,l,0.3275,1,456,2,0,5,5,9,1,0,0,0,1,1,0,0,0,star,triangle,,,,,,,,,,,,,,,,,,,,,,,,,,,,,,,,,,,,,,,,,,,,,,,,,,,,,,
292540,2022-12-05_10h23.35.276,vts_reward_expectancy_bt,2022.2.4,Win32,145.0957632,Chrome,1536,864,,,l,0.335,1,457,2,0,6,6,8,1,0,0,1,0,0,0,0,1,hexagon,star,,,,,,,,,,,,,,,,,,,,,,,,,,,,,,,,,,,,,,,,,,,,,,,,,,,,,,
292540,2022-12-05_10h23.35.276,vts_reward_expectancy_bt,2022.2.4,Win32,145.0957632,Chrome,1536,864,,,l,0.291,10,467,2,0,7,7,1,1,1,0,0,0,0,0,1,0,triangle,hexagon,,,,,,,,,,,,,,,,,,,,,,,,,,,,,,,,,,,,,,,,,,,,,,,,,,,,,,
292540,2022-12-05_10h23.35.276,vts_reward_expectancy_bt,2022.2.4,Win32,145.0957632,Chrome,1536,864,,,l,0.4399,10,477,2,0,8,8,11,1,0,0,0,1,0,0,1,0,star,hexagon,,,,,,,,,,,,,,,,,,,,,,,,,,,,,,,,,,,,,,,,,,,,,,,,,,,,,,
292540,2022-12-05_10h23.35.276,vts_reward_expectancy_bt,2022.2.4,Win32,145.0957632,Chrome,1536,864,,,a,0.4523,1,478,2,0,9,9,0,1,1,0,0,0,0,1,0,0,triangle,circle,,,,,,,,,,,,,,,,,,,,,,,,,,,,,,,,,,,,,,,,,,,,,,,,,,,,,,
292540,2022-12-05_10h23.35.276,vts_reward_expectancy_bt,2022.2.4,Win32,145.0957632,Chrome,1536,864,,,l,0.4308,10,488,2,0,10,10,10,1,0,0,0,1,0,1,0,0,star ,circle,,,,,,,,,,,,,,,,,,,,,,,,,,,,,,,,,,,,,,,,,,,,,,,,,,,,,,
292540,2022-12-05_10h23.35.276,vts_reward_expectancy_bt,2022.2.4,Win32,145.0957632,Chrome,1536,864,,,a,0.4934,1,489,2,0,11,11,6,1,0,0,1,0,1,0,0,0,hexagon,triangle,,,,,,,,,,,,,,,,,,,,,,,,,,,,,,,,,,,,,,,,,,,,,,,,,,,,,,
292540,2022-12-05_10h23.35.276,vts_reward_expectancy_bt,2022.2.4,Win32,145.0957632,Chrome,1536,864,,,l,0.409,10,499,2,1,0,12,8,1,0,0,1,0,0,0,0,1,hexagon,star,,,,,,,,,,,,,,,,,,,,,,,,,,,,,,,,,,,,,,,,,,,,,,,,,,,,,,
292540,2022-12-05_10h23.35.276,vts_reward_expectancy_bt,2022.2.4,Win32,145.0957632,Chrome,1536,864,,,l,0.4462,1,500,2,1,1,13,0,1,1,0,0,0,0,1,0,0,triangle,circle,,,,,,,,,,,,,,,,,,,,,,,,,,,,,,,,,,,,,,,,,,,,,,,,,,,,,,
292540,2022-12-05_10h23.35.276,vts_reward_expectancy_bt,2022.2.4,Win32,145.0957632,Chrome,1536,864,,,a,0.6185,1,501,2,1,2,14,4,1,0,1,0,0,0,0,1,0,circle,hexagon,,,,,,,,,,,,,,,,,,,,,,,,,,,,,,,,,,,,,,,,,,,,,,,,,,,,,,
292540,2022-12-05_10h23.35.276,vts_reward_expectancy_bt,2022.2.4,Win32,145.0957632,Chrome,1536,864,,,a,0.4313,10,511,2,1,3,15,7,1,0,0,1,0,0,1,0,0,hexagon,circle,,,,,,,,,,,,,,,,,,,,,,,,,,,,,,,,,,,,,,,,,,,,,,,,,,,,,,
292540,2022-12-05_10h23.35.276,vts_reward_expectancy_bt,2022.2.4,Win32,145.0957632,Chrome,1536,864,,,l,0.4229,10,521,2,1,4,16,5,1,0,1,0,0,0,0,0,1,circle,star,,,,,,,,,,,,,,,,,,,,,,,,,,,,,,,,,,,,,,,,,,,,,,,,,,,,,,
292540,2022-12-05_10h23.35.276,vts_reward_expectancy_bt,2022.2.4,Win32,145.0957632,Chrome,1536,864,,,l,0.3684,10,531,2,1,5,17,3,1,0,1,0,0,1,0,0,0,circle,triangle,,,,,,,,,,,,,,,,,,,,,,,,,,,,,,,,,,,,,,,,,,,,,,,,,,,,,,
292540,2022-12-05_10h23.35.276,vts_reward_expectancy_bt,2022.2.4,Win32,145.0957632,Chrome,1536,864,,,l,0.3615,10,541,2,1,6,18,10,1,0,0,0,1,0,1,0,0,star ,circle,,,,,,,,,,,,,,,,,,,,,,,,,,,,,,,,,,,,,,,,,,,,,,,,,,,,,,
292540,2022-12-05_10h23.35.276,vts_reward_expectancy_bt,2022.2.4,Win32,145.0957632,Chrome,1536,864,,,a,0.4169,1,542,2,1,7,19,11,1,0,0,0,1,0,0,1,0,star,hexagon,,,,,,,,,,,,,,,,,,,,,,,,,,,,,,,,,,,,,,,,,,,,,,,,,,,,,,
292540,2022-12-05_10h23.35.276,vts_reward_expectancy_bt,2022.2.4,Win32,145.0957632,Chrome,1536,864,,,l,0.4171,1,543,2,1,8,20,6,1,0,0,1,0,1,0,0,0,hexagon,triangle,,,,,,,,,,,,,,,,,,,,,,,,,,,,,,,,,,,,,,,,,,,,,,,,,,,,,,
292540,2022-12-05_10h23.35.276,vts_reward_expectancy_bt,2022.2.4,Win32,145.0957632,Chrome,1536,864,,,a,0.5471,1,544,2,1,9,21,2,1,1,0,0,0,0,0,0,1,triangle,star,,,,,,,,,,,,,,,,,,,,,,,,,,,,,,,,,,,,,,,,,,,,,,,,,,,,,,
292540,2022-12-05_10h23.35.276,vts_reward_expectancy_bt,2022.2.4,Win32,145.0957632,Chrome,1536,864,,,a,0.5209,10,554,2,1,10,22,9,1,0,0,0,1,1,0,0,0,star,triangle,,,,,,,,,,,,,,,,,,,,,,,,,,,,,,,,,,,,,,,,,,,,,,,,,,,,,,
292540,2022-12-05_10h23.35.276,vts_reward_expectancy_bt,2022.2.4,Win32,145.0957632,Chrome,1536,864,,,l,0.3821,1,555,2,1,11,23,1,1,1,0,0,0,0,0,1,0,triangle,hexagon,,,,,,,,,,,,,,,,,,,,,,,,,,,,,,,,,,,,,,,,,,,,,,,,,,,,,,
292540,2022-12-05_10h23.35.276,vts_reward_expectancy_bt,2022.2.4,Win32,145.0957632,Chrome,1536,864,,,l,0.3482,1,556,2,2,0,24,7,1,0,0,1,0,0,1,0,0,hexagon,circle,,,,,,,,,,,,,,,,,,,,,,,,,,,,,,,,,,,,,,,,,,,,,,,,,,,,,,
292540,2022-12-05_10h23.35.276,vts_reward_expectancy_bt,2022.2.4,Win32,145.0957632,Chrome,1536,864,,,l,0.389,10,566,2,2,1,25,4,1,0,1,0,0,0,0,1,0,circle,hexagon,,,,,,,,,,,,,,,,,,,,,,,,,,,,,,,,,,,,,,,,,,,,,,,,,,,,,,
292540,2022-12-05_10h23.35.276,vts_reward_expectancy_bt,2022.2.4,Win32,145.0957632,Chrome,1536,864,,,a,0.3149,10,576,2,2,2,26,9,1,0,0,0,1,1,0,0,0,star,triangle,,,,,,,,,,,,,,,,,,,,,,,,,,,,,,,,,,,,,,,,,,,,,,,,,,,,,,
292540,2022-12-05_10h23.35.276,vts_reward_expectancy_bt,2022.2.4,Win32,145.0957632,Chrome,1536,864,,,a,0.3918,1,577,2,2,3,27,0,1,1,0,0,0,0,1,0,0,triangle,circle,,,,,,,,,,,,,,,,,,,,,,,,,,,,,,,,,,,,,,,,,,,,,,,,,,,,,,
292540,2022-12-05_10h23.35.276,vts_reward_expectancy_bt,2022.2.4,Win32,145.0957632,Chrome,1536,864,,,a,0.3415,1,578,2,2,4,28,6,1,0,0,1,0,1,0,0,0,hexagon,triangle,,,,,,,,,,,,,,,,,,,,,,,,,,,,,,,,,,,,,,,,,,,,,,,,,,,,,,
292540,2022-12-05_10h23.35.276,vts_reward_expectancy_bt,2022.2.4,Win32,145.0957632,Chrome,1536,864,,,l,0.3271,10,588,2,2,5,29,2,1,1,0,0,0,0,0,0,1,triangle,star,,,,,,,,,,,,,,,,,,,,,,,,,,,,,,,,,,,,,,,,,,,,,,,,,,,,,,
292540,2022-12-05_10h23.35.276,vts_reward_expectancy_bt,2022.2.4,Win32,145.0957632,Chrome,1536,864,,,l,0.4733,10,598,2,2,6,30,8,1,0,0,1,0,0,0,0,1,hexagon,star,,,,,,,,,,,,,,,,,,,,,,,,,,,,,,,,,,,,,,,,,,,,,,,,,,,,,,
292540,2022-12-05_10h23.35.276,vts_reward_expectancy_bt,2022.2.4,Win32,145.0957632,Chrome,1536,864,,,l,0.842,10,608,2,2,7,31,5,1,0,1,0,0,0,0,0,1,circle,star,,,,,,,,,,,,,,,,,,,,,,,,,,,,,,,,,,,,,,,,,,,,,,,,,,,,,,
292540,2022-12-05_10h23.35.276,vts_reward_expectancy_bt,2022.2.4,Win32,145.0957632,Chrome,1536,864,,,a,1.0432,10,618,2,2,8,32,3,1,0,1,0,0,1,0,0,0,circle,triangle,,,,,,,,,,,,,,,,,,,,,,,,,,,,,,,,,,,,,,,,,,,,,,,,,,,,,,
292540,2022-12-05_10h23.35.276,vts_reward_expectancy_bt,2022.2.4,Win32,145.0957632,Chrome,1536,864,,,a,1.3125,1,619,2,2,9,33,11,1,0,0,0,1,0,0,1,0,star,hexagon,,,,,,,,,,,,,,,,,,,,,,,,,,,,,,,,,,,,,,,,,,,,,,,,,,,,,,
292540,2022-12-05_10h23.35.276,vts_reward_expectancy_bt,2022.2.4,Win32,145.0957632,Chrome,1536,864,,,l,0.2857,1,620,2,2,10,34,10,1,0,0,0,1,0,1,0,0,star ,circle,,,,,,,,,,,,,,,,,,,,,,,,,,,,,,,,,,,,,,,,,,,,,,,,,,,,,,
292540,2022-12-05_10h23.35.276,vts_reward_expectancy_bt,2022.2.4,Win32,145.0957632,Chrome,1536,864,,,l,0.3329,1,621,2,2,11,35,1,1,1,0,0,0,0,0,1,0,triangle,hexagon,,,,,,,,,,,,,,,,,,,,,,,,,,,,,,,,,,,,,,,,,,,,,,,,,,,,,,
292540,2022-12-05_10h23.35.276,vts_reward_expectancy_bt,2022.2.4,Win32,145.0957632,Chrome,1536,864,,,,,,,,,,,,,,,,,,,,,,,D,167,triangle,0,0,,0,0,0,0,0,1,,,,,,,,,,,,,,,,,,,,,,,,,,,,,,,,,,,,,,,,,,
292540,2022-12-05_10h23.35.276,vts_reward_expectancy_bt,2022.2.4,Win32,145.0957632,Chrome,1536,864,,,,,,,,,,,,,,,,,,,,,,,B,132,hexagon,1,1,d,0,1,0,1,0,1,1.6162,,,,,,,,,,,,,,,,,,,,,,,,,,,,,,,,,,,,,,,,,
292540,2022-12-05_10h23.35.276,vts_reward_expectancy_bt,2022.2.4,Win32,145.0957632,Chrome,1536,864,,,,,,,,,,,,,,,,,,,,,,,H,125,circle,0,0,f,0,2,0,2,0,1,2.021,,,,,,,,,,,,,,,,,,,,,,,,,,,,,,,,,,,,,,,,,
292540,2022-12-05_10h23.35.276,vts_reward_expectancy_bt,2022.2.4,Win32,145.0957632,Chrome,1536,864,,,,,,,,,,,,,,,,,,,,,,,F,139,star,0,1,f,0,3,0,3,0,1,1.2586,,,,,,,,,,,,,,,,,,,,,,,,,,,,,,,,,,,,,,,,,
292540,2022-12-05_10h23.35.276,vts_reward_expectancy_bt,2022.2.4,Win32,145.0957632,Chrome,1536,864,,,,,,,,,,,,,,,,,,,,,,,S,174,triangle,0,1,d,0,4,0,4,0,1,0.6576,,,,,,,,,,,,,,,,,,,,,,,,,,,,,,,,,,,,,,,,,
292540,2022-12-05_10h23.35.276,vts_reward_expectancy_bt,2022.2.4,Win32,145.0957632,Chrome,1536,864,,,,,,,,,,,,,,,,,,,,,,,W,160,hexagon,1,1,f,0,5,0,5,0,1,2.2991,,,,,,,,,,,,,,,,,,,,,,,,,,,,,,,,,,,,,,,,,
292540,2022-12-05_10h23.35.276,vts_reward_expectancy_bt,2022.2.4,Win32,145.0957632,Chrome,1536,864,,,,,,,,,,,,,,,,,,,,,,,Y,146,circle,1,0,f,0,6,0,6,0,1,1.1077,,,,,,,,,,,,,,,,,,,,,,,,,,,,,,,,,,,,,,,,,
292540,2022-12-05_10h23.35.276,vts_reward_expectancy_bt,2022.2.4,Win32,145.0957632,Chrome,1536,864,,,,,,,,,,,,,,,,,,,,,,,U,181,star,1,0,f,0,7,0,7,0,1,0.9328,,,,,,,,,,,,,,,,,,,,,,,,,,,,,,,,,,,,,,,,,
292540,2022-12-05_10h23.35.276,vts_reward_expectancy_bt,2022.2.4,Win32,145.0957632,Chrome,1536,864,,,,,,,,,,,,,,,,,,,,,,,D,167,hexagon,1,0,d,0,8,0,8,0,1,1.0559,,,,,,,,,,,,,,,,,,,,,,,,,,,,,,,,,,,,,,,,,
292540,2022-12-05_10h23.35.276,vts_reward_expectancy_bt,2022.2.4,Win32,145.0957632,Chrome,1536,864,,,,,,,,,,,,,,,,,,,,,,,B,132,triangle,1,0,d,0,9,0,9,0,1,0.8182,,,,,,,,,,,,,,,,,,,,,,,,,,,,,,,,,,,,,,,,,
292540,2022-12-05_10h23.35.276,vts_reward_expectancy_bt,2022.2.4,Win32,145.0957632,Chrome,1536,864,,,,,,,,,,,,,,,,,,,,,,,Y,181,triangle,1,0,f,1,0,0,0,0,1,0.7306,,,,,,,,,,,,,,,,,,,,,,,,,,,,,,,,,,,,,,,,,
292540,2022-12-05_10h23.35.276,vts_reward_expectancy_bt,2022.2.4,Win32,145.0957632,Chrome,1536,864,,,,,,,,,,,,,,,,,,,,,,,S,139,circle,1,0,f,1,1,0,1,0,1,0.7169,,,,,,,,,,,,,,,,,,,,,,,,,,,,,,,,,,,,,,,,,
292540,2022-12-05_10h23.35.276,vts_reward_expectancy_bt,2022.2.4,Win32,145.0957632,Chrome,1536,864,,,,,,,,,,,,,,,,,,,,,,,F,160,hexagon,1,0,d,1,2,0,2,0,1,1.4277,,,,,,,,,,,,,,,,,,,,,,,,,,,,,,,,,,,,,,,,,
292540,2022-12-05_10h23.35.276,vts_reward_expectancy_bt,2022.2.4,Win32,145.0957632,Chrome,1536,864,,,,,,,,,,,,,,,,,,,,,,,H,167,star,1,0,d,1,3,0,3,0,1,0.8222,,,,,,,,,,,,,,,,,,,,,,,,,,,,,,,,,,,,,,,,,
292540,2022-12-05_10h23.35.276,vts_reward_expectancy_bt,2022.2.4,Win32,145.0957632,Chrome,1536,864,,,,,,,,,,,,,,,,,,,,,,,D,132,triangle,1,0,d,1,4,0,4,0,1,0.5918,,,,,,,,,,,,,,,,,,,,,,,,,,,,,,,,,,,,,,,,,
292540,2022-12-05_10h23.35.276,vts_reward_expectancy_bt,2022.2.4,Win32,145.0957632,Chrome,1536,864,,,,,,,,,,,,,,,,,,,,,,,W,174,circle,1,0,f,1,5,0,5,0,1,0.6258,,,,,,,,,,,,,,,,,,,,,,,,,,,,,,,,,,,,,,,,,
292540,2022-12-05_10h23.35.276,vts_reward_expectancy_bt,2022.2.4,Win32,145.0957632,Chrome,1536,864,,,,,,,,,,,,,,,,,,,,,,,B,125,hexagon,1,0,d,1,6,0,6,0,1,0.6538,,,,,,,,,,,,,,,,,,,,,,,,,,,,,,,,,,,,,,,,,
292540,2022-12-05_10h23.35.276,vts_reward_expectancy_bt,2022.2.4,Win32,145.0957632,Chrome,1536,864,,,,,,,,,,,,,,,,,,,,,,,U,146,star,1,0,f,1,7,0,7,0,1,0.857,,,,,,,,,,,,,,,,,,,,,,,,,,,,,,,,,,,,,,,,,
292540,2022-12-05_10h23.35.276,vts_reward_expectancy_bt,2022.2.4,Win32,145.0957632,Chrome,1536,864,,,,,,,,,,,,,,,,,,,,,,,Y,181,hexagon,1,0,f,1,8,0,8,0,1,0.5774,,,,,,,,,,,,,,,,,,,,,,,,,,,,,,,,,,,,,,,,,
292540,2022-12-05_10h23.35.276,vts_reward_expectancy_bt,2022.2.4,Win32,145.0957632,Chrome,1536,864,,,,,,,,,,,,,,,,,,,,,,,S,139,triangle,0,0,d,1,9,0,9,0,1,0.6481,,,,,,,,,,,,,,,,,,,,,,,,,,,,,,,,,,,,,,,,,
292540,2022-12-05_10h23.35.276,vts_reward_expectancy_bt,2022.2.4,Win32,145.0957632,Chrome,1536,864,,,,,,,,,,,,,,,,,,,,,,,Y,167,star,2,1,,2,,,,,,,f,1.5366,0,0,0,0,1,,,,,,,,,,,,,,,,,,,,,,,,,,,,,,,,,,
292540,2022-12-05_10h23.35.276,vts_reward_expectancy_bt,2022.2.4,Win32,145.0957632,Chrome,1536,864,,,,,,,,,,,,,,,,,,,,,,,B,125,circle,1,0,,2,,,,,,,j,1.828,1,0,1,0,1,,,,,,,,,,,,,,,,,,,,,,,,,,,,,,,,,,
292540,2022-12-05_10h23.35.276,vts_reward_expectancy_bt,2022.2.4,Win32,145.0957632,Chrome,1536,864,,,,,,,,,,,,,,,,,,,,,,,S,139,hexagon,1,0,,2,,,,,,,j,0.8972,2,0,2,0,1,,,,,,,,,,,,,,,,,,,,,,,,,,,,,,,,,,
292540,2022-12-05_10h23.35.276,vts_reward_expectancy_bt,2022.2.4,Win32,145.0957632,Chrome,1536,864,,,,,,,,,,,,,,,,,,,,,,,H,132,triangle,1,0,,2,,,,,,,j,0.8003,3,0,3,0,1,,,,,,,,,,,,,,,,,,,,,,,,,,,,,,,,,,
292540,2022-12-05_10h23.35.276,vts_reward_expectancy_bt,2022.2.4,Win32,145.0957632,Chrome,1536,864,,,,,,,,,,,,,,,,,,,,,,,U,181,star,1,0,,2,,,,,,,k,0.7865,4,0,4,0,1,,,,,,,,,,,,,,,,,,,,,,,,,,,,,,,,,,
292540,2022-12-05_10h23.35.276,vts_reward_expectancy_bt,2022.2.4,Win32,145.0957632,Chrome,1536,864,,,,,,,,,,,,,,,,,,,,,,,D,160,circle,1,0,,2,,,,,,,k,1.2309,5,0,5,0,1,,,,,,,,,,,,,,,,,,,,,,,,,,,,,,,,,,
292540,2022-12-05_10h23.35.276,vts_reward_expectancy_bt,2022.2.4,Win32,145.0957632,Chrome,1536,864,,,,,,,,,,,,,,,,,,,,,,,F,146,hexagon,1,0,,2,,,,,,,j,0.8603,6,0,6,0,1,,,,,,,,,,,,,,,,,,,,,,,,,,,,,,,,,,
292540,2022-12-05_10h23.35.276,vts_reward_expectancy_bt,2022.2.4,Win32,145.0957632,Chrome,1536,864,,,,,,,,,,,,,,,,,,,,,,,W,174,triangle,1,0,,2,,,,,,,k,1.0336,7,0,7,0,1,,,,,,,,,,,,,,,,,,,,,,,,,,,,,,,,,,
292540,2022-12-05_10h23.35.276,vts_reward_expectancy_bt,2022.2.4,Win32,145.0957632,Chrome,1536,864,,,,,,,,,,,,,,,,,,,,,,,Y,167,triangle,1,0,,2,,,,,,,k,1.1747,8,0,8,0,1,,,,,,,,,,,,,,,,,,,,,,,,,,,,,,,,,,
292540,2022-12-05_10h23.35.276,vts_reward_expectancy_bt,2022.2.4,Win32,145.0957632,Chrome,1536,864,,,,,,,,,,,,,,,,,,,,,,,B,125,star,1,0,,2,,,,,,,j,0.8009,9,0,9,0,1,,,,,,,,,,,,,,,,,,,,,,,,,,,,,,,,,,
292540,2022-12-05_10h23.35.276,vts_reward_expectancy_bt,2022.2.4,Win32,145.0957632,Chrome,1536,864,,,,,0,621,,,,,,,,,,,,,,,,,F,174,hexagon,1,0,,3,,,,,,,,,,,,,,-1,letter,NA,d,1.0434,vtsPrac,0,0,0,0,1,,,,,,,,,,,,,,,,,,,,,,,
292540,2022-12-05_10h23.35.276,vts_reward_expectancy_bt,2022.2.4,Win32,145.0957632,Chrome,1536,864,,,,,0,621,,,,,,,,,,,,,,,,,H,181,circle,1,0,,3,,,,,,,,,,,,,,repeat,letter,lettRpt,d,0.7349,vtsPrac,1,0,1,0,1,,,,,,,,,,,,,,,,,,,,,,,
292540,2022-12-05_10h23.35.276,vts_reward_expectancy_bt,2022.2.4,Win32,145.0957632,Chrome,1536,864,,,,,0,621,,,,,,,,,,,,,,,,,B,160,hexagon,1,0,,3,,,,,,,,,,,,,,switch,number,numSwt,k,0.8675,vtsPrac,2,0,2,0,1,,,,,,,,,,,,,,,,,,,,,,,
292540,2022-12-05_10h23.35.276,vts_reward_expectancy_bt,2022.2.4,Win32,145.0957632,Chrome,1536,864,,,,,0,621,,,,,,,,,,,,,,,,,S,125,circle,1,0,,3,,,,,,,,,,,,,,switch,letter,lettSwt,f,0.8389,vtsPrac,3,0,3,0,1,,,,,,,,,,,,,,,,,,,,,,,
292540,2022-12-05_10h23.35.276,vts_reward_expectancy_bt,2022.2.4,Win32,145.0957632,Chrome,1536,864,,,,,0,621,,,,,,,,,,,,,,,,,F,174,circle,1,0,,3,,,,,,,,,,,,,,repeat,letter,lettRpt,d,0.7722,vtsPrac,4,0,4,0,1,,,,,,,,,,,,,,,,,,,,,,,
292540,2022-12-05_10h23.35.276,vts_reward_expectancy_bt,2022.2.4,Win32,145.0957632,Chrome,1536,864,,,,,0,621,,,,,,,,,,,,,,,,,H,181,hexagon,1,0,,3,,,,,,,,,,,,,,switch,number,numSwt,k,0.5591,vtsPrac,5,0,5,0,1,,,,,,,,,,,,,,,,,,,,,,,
292540,2022-12-05_10h23.35.276,vts_reward_expectancy_bt,2022.2.4,Win32,145.0957632,Chrome,1536,864,,,,,0,621,,,,,,,,,,,,,,,,,B,160,circle,1,0,,3,,,,,,,,,,,,,,repeat,number,numRpt,k,0.781,vtsPrac,6,0,6,0,1,,,,,,,,,,,,,,,,,,,,,,,
292540,2022-12-05_10h23.35.276,vts_reward_expectancy_bt,2022.2.4,Win32,145.0957632,Chrome,1536,864,,,,,0,621,,,,,,,,,,,,,,,,,S,125,triangle,1,0,,3,,,,,,,,,,,,,,repeat,number,numRpt,j,0.787,vtsPrac,7,0,7,0,1,,,,,,,,,,,,,,,,,,,,,,,
292540,2022-12-05_10h23.35.276,vts_reward_expectancy_bt,2022.2.4,Win32,145.0957632,Chrome,1536,864,,,,,0,621,,,,,,,,,,,,,,,,,F,181,circle,1,0,,3,,,,,,,,,,,,,,switch,letter,lettSwt,d,0.6667,vtsPrac,8,0,8,0,1,,,,,,,,,,,,,,,,,,,,,,,
292540,2022-12-05_10h23.35.276,vts_reward_expectancy_bt,2022.2.4,Win32,145.0957632,Chrome,1536,864,,,,,0,621,,,,,,,,,,,,,,,,,D,146,star,1,0,,3,,,,,,,,,,,,,,switch,number,numSwt,j,1.195,vtsPrac,9,0,9,0,1,,,,,,,,,,,,,,,,,,,,,,,
292540,2022-12-05_10h23.35.276,vts_reward_expectancy_bt,2022.2.4,Win32,145.0957632,Chrome,1536,864,,,,,0,621,,,,,,,,,,,,,,,,,Y,174,hexagon,1,0,,3,,,,,,,,,,,,,,repeat,number,numRpt,k,0.9885,vtsPrac,10,0,10,0,1,,,,,,,,,,,,,,,,,,,,,,,
292540,2022-12-05_10h23.35.276,vts_reward_expectancy_bt,2022.2.4,Win32,145.0957632,Chrome,1536,864,,,,,0,621,,,,,,,,,,,,,,,,,S,139,star,1,0,,3,,,,,,,,,,,,,,repeat,number,numRpt,j,0.7298,vtsPrac,11,0,11,0,1,,,,,,,,,,,,,,,,,,,,,,,
292540,2022-12-05_10h23.35.276,vts_reward_expectancy_bt,2022.2.4,Win32,145.0957632,Chrome,1536,864,,,,,0,621,,,,,,,,,,,,,,,,,D,181,circle,1,0,,3,,,,,,,,,,,,,,switch,letter,lettSwt,d,0.6115,vtsPrac,12,0,12,0,1,,,,,,,,,,,,,,,,,,,,,,,
292540,2022-12-05_10h23.35.276,vts_reward_expectancy_bt,2022.2.4,Win32,145.0957632,Chrome,1536,864,,,,,0,621,,,,,,,,,,,,,,,,,Y,167,star,1,0,,3,,,,,,,,,,,,,,repeat,letter,lettRpt,f,0.8689,vtsPrac,13,0,13,0,1,,,,,,,,,,,,,,,,,,,,,,,
292540,2022-12-05_10h23.35.276,vts_reward_expectancy_bt,2022.2.4,Win32,145.0957632,Chrome,1536,864,,,,,0,621,,,,,,,,,,,,,,,,,S,132,star,1,0,,3,,,,,,,,,,,,,,switch,number,numSwt,j,0.6684,vtsPrac,14,0,14,0,1,,,,,,,,,,,,,,,,,,,,,,,
292540,2022-12-05_10h23.35.276,vts_reward_expectancy_bt,2022.2.4,Win32,145.0957632,Chrome,1536,864,,,,,0,621,,,,,,,,,,,,,,,,,W,125,hexagon,1,0,,3,,,,,,,,,,,,,,switch,letter,lettSwt,f,0.7432,vtsPrac,15,0,15,0,1,,,,,,,,,,,,,,,,,,,,,,,
292540,2022-12-05_10h23.35.276,vts_reward_expectancy_bt,2022.2.4,Win32,145.0957632,Chrome,1536,864,,,,,0,621,,,,,,,,,,,,,,,,,U,167,circle,1,0,,3,,,,,,,,,,,,,,repeat,letter,lettRpt,f,0.8039,vtsPrac,16,0,16,0,1,,,,,,,,,,,,,,,,,,,,,,,
292540,2022-12-05_10h23.35.276,vts_reward_expectancy_bt,2022.2.4,Win32,145.0957632,Chrome,1536,864,,,,,0,621,,,,,,,,,,,,,,,,,D,160,triangle,1,0,,3,,,,,,,,,,,,,,repeat,letter,lettRpt,d,0.7709,vtsPrac,17,0,17,0,1,,,,,,,,,,,,,,,,,,,,,,,
292540,2022-12-05_10h23.35.276,vts_reward_expectancy_bt,2022.2.4,Win32,145.0957632,Chrome,1536,864,,,,,0,621,,,,,,,,,,,,,,,,,B,132,star,1,0,,3,,,,,,,,,,,,,,switch,number,numSwt,j,0.725,vtsPrac,18,0,18,0,1,,,,,,,,,,,,,,,,,,,,,,,
292540,2022-12-05_10h23.35.276,vts_reward_expectancy_bt,2022.2.4,Win32,145.0957632,Chrome,1536,864,,,,,0,621,,,,,,,,,,,,,,,,,F,181,circle,1,0,,3,,,,,,,,,,,,,,switch,letter,lettSwt,d,0.7081,vtsPrac,19,0,19,0,1,,,,,,,,,,,,,,,,,,,,,,,
292540,2022-12-05_10h23.35.276,vts_reward_expectancy_bt,2022.2.4,Win32,145.0957632,Chrome,1536,864,,,,,0,621,,,,,,,,,,,,,,,,,U,160,star,1,0,,3,,,,,,,,,,,,,,repeat,letter,lettRpt,f,0.6125,vtsPrac,20,0,20,0,1,,,,,,,,,,,,,,,,,,,,,,,
292540,2022-12-05_10h23.35.276,vts_reward_expectancy_bt,2022.2.4,Win32,145.0957632,Chrome,1536,864,,,,,0,621,,,,,,,,,,,,,,,,,F,146,circle,1,0,,3,,,,,,,,,,,,,,switch,number,numSwt,j,0.6543,vtsPrac,21,0,21,0,1,,,,,,,,,,,,,,,,,,,,,,,
292540,2022-12-05_10h23.35.276,vts_reward_expectancy_bt,2022.2.4,Win32,145.0957632,Chrome,1536,864,,,,,0,621,,,,,,,,,,,,,,,,,S,181,triangle,1,0,,3,,,,,,,,,,,,,,switch,letter,lettSwt,f,0.6743,vtsPrac,22,0,22,0,1,,,,,,,,,,,,,,,,,,,,,,,
292540,2022-12-05_10h23.35.276,vts_reward_expectancy_bt,2022.2.4,Win32,145.0957632,Chrome,1536,864,,,,,0,621,,,,,,,,,,,,,,,,,W,125,circle,1,0,,3,,,,,,,,,,,,,,switch,number,numSwt,j,0.564,vtsPrac,23,0,23,0,1,,,,,,,,,,,,,,,,,,,,,,,
292540,2022-12-05_10h23.35.276,vts_reward_expectancy_bt,2022.2.4,Win32,145.0957632,Chrome,1536,864,,,,,0,621,,,,,,,,,,,,,,,,,D,125,hexagon,1,0,,3,,,,,,,,,,,,,,repeat,number,numRpt,j,0.7393,vtsPrac,24,0,24,0,1,,,,,,,,,,,,,,,,,,,,,,,
292540,2022-12-05_10h23.35.276,vts_reward_expectancy_bt,2022.2.4,Win32,145.0957632,Chrome,1536,864,,,,,0,621,,,,,,,,,,,,,,,,,W,160,triangle,1,0,,3,,,,,,,,,,,,,,repeat,number,numRpt,k,0.9925,vtsPrac,25,0,25,0,1,,,,,,,,,,,,,,,,,,,,,,,
292540,2022-12-05_10h23.35.276,vts_reward_expectancy_bt,2022.2.4,Win32,145.0957632,Chrome,1536,864,,,,,0,621,,,,,,,,,,,,,,,,,H,167,circle,1,0,,3,,,,,,,,,,,,,,switch,letter,lettSwt,d,0.8304,vtsPrac,26,0,26,0,1,,,,,,,,,,,,,,,,,,,,,,,
292540,2022-12-05_10h23.35.276,vts_reward_expectancy_bt,2022.2.4,Win32,145.0957632,Chrome,1536,864,,,,,0,621,,,,,,,,,,,,,,,,,S,139,triangle,1,0,,3,,,,,,,,,,,,,,switch,number,numSwt,j,0.8979,vtsPrac,27,0,27,0,1,,,,,,,,,,,,,,,,,,,,,,,
292540,2022-12-05_10h23.35.276,vts_reward_expectancy_bt,2022.2.4,Win32,145.0957632,Chrome,1536,864,,,,,0,621,,,,,,,,,,,,,,,,,W,125,star,1,0,,3,,,,,,,,,,,,,,switch,letter,lettSwt,f,0.6309,vtsPrac,28,0,28,0,1,,,,,,,,,,,,,,,,,,,,,,,
292540,2022-12-05_10h23.35.276,vts_reward_expectancy_bt,2022.2.4,Win32,145.0957632,Chrome,1536,864,,,,,0,621,,,,,,,,,,,,,,,,,H,174,circle,1,0,,3,,,,,,,,,,,,,,repeat,letter,lettRpt,d,0.7306,vtsPrac,29,0,29,0,1,,,,,,,,,,,,,,,,,,,,,,,
292540,2022-12-05_10h23.35.276,vts_reward_expectancy_bt,2022.2.4,Win32,145.0957632,Chrome,1536,864,,,,,0,621,,,,,,,,,,,,,,,,,D,139,circle,1,0,,3,,,,,,,,,,,,,,switch,number,numSwt,j,0.8066,vtsPrac,30,0,30,0,1,,,,,,,,,,,,,,,,,,,,,,,
292540,2022-12-05_10h23.35.276,vts_reward_expectancy_bt,2022.2.4,Win32,145.0957632,Chrome,1536,864,,,,,0,621,,,,,,,,,,,,,,,,,F,146,triangle,1,0,,3,,,,,,,,,,,,,,switch,letter,lettSwt,d,0.7182,vtsPrac,31,0,31,0,1,,,,,,,,,,,,,,,,,,,,,,,
292540,2022-12-05_10h23.35.276,vts_reward_expectancy_bt,2022.2.4,Win32,145.0957632,Chrome,1536,864,,,,,,,,,,,,,,,,,,,,,,,,,,,,,,,,,,,,,,,,,,,,,,,,,,,,,,,,,,,,,,,,,,,,,,,,,,,,
292540,2022-12-05_10h23.35.276,vts_reward_expectancy_bt,2022.2.4,Win32,145.0957632,Chrome,1536,864,,,,,,,,,,,,,,,,,,,,,,,,,,,,,,,,,,,,,,,,,,,,,,,,,,,,,,,,,,,,,,,,,,,,,,,,,,,,
292540,2022-12-05_10h23.35.276,vts_reward_expectancy_bt,2022.2.4,Win32,145.0957632,Chrome,1536,864,,,,,0,621,,,,,,,,,,,,,,,,,B,139,hexagon,1,0,,,,,,,,,,,,,,,,repeat,letter,lettRpt,d,0.9434,noRew,,,,,,0,0,0,0,0,1,,,,,,,,,,,,,,,,,
292540,2022-12-05_10h23.35.276,vts_reward_expectancy_bt,2022.2.4,Win32,145.0957632,Chrome,1536,864,,,,,0,621,,,,,,,,,,,,,,,,,H,146,star,1,0,,,,,,,,,,,,,,,,switch,number,numSwt,j,0.7322,noRew,,,,,,0,1,0,1,0,1,,,,,,,,,,,,,,,,,
292540,2022-12-05_10h23.35.276,vts_reward_expectancy_bt,2022.2.4,Win32,145.0957632,Chrome,1536,864,,,,,0,621,,,,,,,,,,,,,,,,,U,181,hexagon,1,0,,,,,,,,,,,,,,,,switch,letter,lettSwt,f,0.8535,noRew,,,,,,0,2,0,2,0,1,,,,,,,,,,,,,,,,,
292540,2022-12-05_10h23.35.276,vts_reward_expectancy_bt,2022.2.4,Win32,145.0957632,Chrome,1536,864,,,,,0,621,,,,,,,,,,,,,,,,,F,167,star,1,0,,,,,,,,,,,,,,,,repeat,letter,lettRpt,d,0.6527,noRew,,,,,,0,3,0,3,0,1,,,,,,,,,,,,,,,,,
292540,2022-12-05_10h23.35.276,vts_reward_expectancy_bt,2022.2.4,Win32,145.0957632,Chrome,1536,864,,,,,0,621,,,,,,,,,,,,,,,,,B,139,triangle,1,0,,,,,,,,,,,,,,,,switch,number,numSwt,j,0.9313,noRew,,,,,,0,4,0,4,0,1,,,,,,,,,,,,,,,,,
292540,2022-12-05_10h23.35.276,vts_reward_expectancy_bt,2022.2.4,Win32,145.0957632,Chrome,1536,864,,,,,0,621,,,,,,,,,,,,,,,,,H,146,star,1,0,,,,,,,,,,,,,,,,repeat,number,numRpt,j,0.8175,noRew,,,,,,0,5,0,5,0,1,,,,,,,,,,,,,,,,,
292540,2022-12-05_10h23.35.276,vts_reward_expectancy_bt,2022.2.4,Win32,145.0957632,Chrome,1536,864,,,,,0,621,,,,,,,,,,,,,,,,,U,181,triangle,1,0,,,,,,,,,,,,,,,,repeat,number,numRpt,k,0.7583,noRew,,,,,,0,6,0,6,0,1,,,,,,,,,,,,,,,,,
292540,2022-12-05_10h23.35.276,vts_reward_expectancy_bt,2022.2.4,Win32,145.0957632,Chrome,1536,864,,,,,0,621,,,,,,,,,,,,,,,,,F,167,hexagon,1,0,,,,,,,,,,,,,,,,repeat,number,numRpt,k,1.0547,noRew,,,,,,0,7,0,7,0,1,,,,,,,,,,,,,,,,,
292540,2022-12-05_10h23.35.276,vts_reward_expectancy_bt,2022.2.4,Win32,145.0957632,Chrome,1536,864,,,,,0,621,,,,,,,,,,,,,,,,,W,181,circle,1,0,,,,,,,,,,,,,,,,switch,letter,lettSwt,f,0.6526,noRew,,,,,,0,8,0,8,0,1,,,,,,,,,,,,,,,,,
292540,2022-12-05_10h23.35.276,vts_reward_expectancy_bt,2022.2.4,Win32,145.0957632,Chrome,1536,864,,,,,0,621,,,,,,,,,,,,,,,,,U,132,triangle,1,0,,,,,,,,,,,,,,,,switch,number,numSwt,j,0.7077,noRew,,,,,,0,9,0,9,0,1,,,,,,,,,,,,,,,,,
292540,2022-12-05_10h23.35.276,vts_reward_expectancy_bt,2022.2.4,Win32,145.0957632,Chrome,1536,864,,,,,0,621,,,,,,,,,,,,,,,,,D,139,hexagon,1,0,,,,,,,,,,,,,,,,switch,letter,lettSwt,d,0.8133,noRew,,,,,,0,10,0,10,0,1,,,,,,,,,,,,,,,,,
292540,2022-12-05_10h23.35.276,vts_reward_expectancy_bt,2022.2.4,Win32,145.0957632,Chrome,1536,864,,,,,0,621,,,,,,,,,,,,,,,,,H,146,circle,1,0,,,,,,,,,,,,,,,,repeat,letter,lettRpt,d,0.9169,noRew,,,,,,0,11,0,11,0,1,,,,,,,,,,,,,,,,,
292540,2022-12-05_10h23.35.276,vts_reward_expectancy_bt,2022.2.4,Win32,145.0957632,Chrome,1536,864,,,,,0,621,,,,,,,,,,,,,,,,,U,181,triangle,1,0,,,,,,,,,,,,,,,,switch,number,numSwt,k,0.6933,noRew,,,,,,0,12,0,12,0,1,,,,,,,,,,,,,,,,,
292540,2022-12-05_10h23.35.276,vts_reward_expectancy_bt,2022.2.4,Win32,145.0957632,Chrome,1536,864,,,,,0,621,,,,,,,,,,,,,,,,,Y,125,hexagon,1,0,,,,,,,,,,,,,,,,switch,letter,lettSwt,f,0.764,noRew,,,,,,0,13,0,13,0,1,,,,,,,,,,,,,,,,,
292540,2022-12-05_10h23.35.276,vts_reward_expectancy_bt,2022.2.4,Win32,145.0957632,Chrome,1536,864,,,,,0,621,,,,,,,,,,,,,,,,,W,132,circle,1,0,,,,,,,,,,,,,,,,switch,number,numSwt,j,0.7006,noRew,,,,,,0,14,0,14,0,1,,,,,,,,,,,,,,,,,
292540,2022-12-05_10h23.35.276,vts_reward_expectancy_bt,2022.2.4,Win32,145.0957632,Chrome,1536,864,,,,,0,621,,,,,,,,,,,,,,,,,S,139,star,1,0,,,,,,,,,,,,,,,,repeat,number,numRpt,j,1.1301,noRew,,,,,,0,15,0,15,0,1,,,,,,,,,,,,,,,,,
292540,2022-12-05_10h23.35.276,vts_reward_expectancy_bt,2022.2.4,Win32,145.0957632,Chrome,1536,864,,,,,0,621,,,,,,,,,,,,,,,,,B,132,circle,1,0,,,,,,,,,,,,,,,,repeat,number,numRpt,j,0.9019,noRew,,,,,,0,16,0,16,0,1,,,,,,,,,,,,,,,,,
292540,2022-12-05_10h23.35.276,vts_reward_expectancy_bt,2022.2.4,Win32,145.0957632,Chrome,1536,864,,,,,0,621,,,,,,,,,,,,,,,,,D,160,triangle,1,0,,,,,,,,,,,,,,,,repeat,number,numRpt,k,0.7492,noRew,,,,,,0,17,0,17,0,1,,,,,,,,,,,,,,,,,
292540,2022-12-05_10h23.35.276,vts_reward_expectancy_bt,2022.2.4,Win32,145.0957632,Chrome,1536,864,,,,,0,621,,,,,,,,,,,,,,,,,F,167,triangle,1,0,,,,,,,,,,,,,,,,switch,letter,lettSwt,d,1.1481,noRew,,,,,,0,18,0,18,0,1,,,,,,,,,,,,,,,,,
292540,2022-12-05_10h23.35.276,vts_reward_expectancy_bt,2022.2.4,Win32,145.0957632,Chrome,1536,864,,,,,0,621,,,,,,,,,,,,,,,,,Y,181,hexagon,0,0,,,,,,,,,,,,,,,,switch,number,NA,j,1.1817,noRew,,,,,,0,19,0,19,0,1,,,,,,,,,,,,,,,,,
292540,2022-12-05_10h23.35.276,vts_reward_expectancy_bt,2022.2.4,Win32,145.0957632,Chrome,1536,864,,,,,0,621,,,,,,,,,,,,,,,,,H,174,hexagon,1,1,,,,,,,,,,,,,,,,repeat,number,numRpt,k,1.1511,noRew,,,,,,0,20,0,20,0,1,,,,,,,,,,,,,,,,,
292540,2022-12-05_10h23.35.276,vts_reward_expectancy_bt,2022.2.4,Win32,145.0957632,Chrome,1536,864,,,,,0,621,,,,,,,,,,,,,,,,,U,181,triangle,1,0,,,,,,,,,,,,,,,,switch,letter,lettSwt,f,1.0289,noRew,,,,,,0,21,0,21,0,1,,,,,,,,,,,,,,,,,
292540,2022-12-05_10h23.35.276,vts_reward_expectancy_bt,2022.2.4,Win32,145.0957632,Chrome,1536,864,,,,,0,621,,,,,,,,,,,,,,,,,F,132,hexagon,1,0,,,,,,,,,,,,,,,,repeat,letter,lettRpt,d,0.9028,noRew,,,,,,0,22,0,22,0,1,,,,,,,,,,,,,,,,,
292540,2022-12-05_10h23.35.276,vts_reward_expectancy_bt,2022.2.4,Win32,145.0957632,Chrome,1536,864,,,,,0,621,,,,,,,,,,,,,,,,,S,160,triangle,1,0,,,,,,,,,,,,,,,,switch,number,numSwt,k,1.196,noRew,,,,,,0,23,0,23,0,1,,,,,,,,,,,,,,,,,
292540,2022-12-05_10h23.35.276,vts_reward_expectancy_bt,2022.2.4,Win32,145.0957632,Chrome,1536,864,,,,,0,621,,,,,,,,,,,,,,,,,Y,174,triangle,1,0,,,,,,,,,,,,,,,,repeat,number,numRpt,k,0.8258,noRew,,,,,,0,24,0,24,0,1,,,,,,,,,,,,,,,,,
292540,2022-12-05_10h23.35.276,vts_reward_expectancy_bt,2022.2.4,Win32,145.0957632,Chrome,1536,864,,,,,0,621,,,,,,,,,,,,,,,,,H,132,circle,1,0,,,,,,,,,,,,,,,,switch,letter,lettSwt,d,0.7442,noRew,,,,,,0,25,0,25,0,1,,,,,,,,,,,,,,,,,
292540,2022-12-05_10h23.35.276,vts_reward_expectancy_bt,2022.2.4,Win32,145.0957632,Chrome,1536,864,,,,,0,621,,,,,,,,,,,,,,,,,W,146,hexagon,1,0,,,,,,,,,,,,,,,,repeat,letter,lettRpt,f,1.0035,noRew,,,,,,0,26,0,26,0,1,,,,,,,,,,,,,,,,,
292540,2022-12-05_10h23.35.276,vts_reward_expectancy_bt,2022.2.4,Win32,145.0957632,Chrome,1536,864,,,,,0,621,,,,,,,,,,,,,,,,,F,160,circle,1,0,,,,,,,,,,,,,,,,switch,number,numSwt,k,0.9357,noRew,,,,,,0,27,0,27,0,1,,,,,,,,,,,,,,,,,
292540,2022-12-05_10h23.35.276,vts_reward_expectancy_bt,2022.2.4,Win32,145.0957632,Chrome,1536,864,,,,,0,621,,,,,,,,,,,,,,,,,Y,132,hexagon,1,0,,,,,,,,,,,,,,,,repeat,number,numRpt,j,0.9802,noRew,,,,,,0,28,0,28,0,1,,,,,,,,,,,,,,,,,
292540,2022-12-05_10h23.35.276,vts_reward_expectancy_bt,2022.2.4,Win32,145.0957632,Chrome,1536,864,,,,,0,621,,,,,,,,,,,,,,,,,H,160,star,1,0,,,,,,,,,,,,,,,,repeat,number,numRpt,k,1.0479,noRew,,,,,,0,29,0,29,0,1,,,,,,,,,,,,,,,,,
292540,2022-12-05_10h23.35.276,vts_reward_expectancy_bt,2022.2.4,Win32,145.0957632,Chrome,1536,864,,,,,0,621,,,,,,,,,,,,,,,,,F,139,circle,1,0,,,,,,,,,,,,,,,,switch,letter,lettSwt,d,0.773,noRew,,,,,,0,30,0,30,0,1,,,,,,,,,,,,,,,,,
292540,2022-12-05_10h23.35.276,vts_reward_expectancy_bt,2022.2.4,Win32,145.0957632,Chrome,1536,864,,,,,0,621,,,,,,,,,,,,,,,,,D,181,star,1,0,,,,,,,,,,,,,,,,repeat,letter,lettRpt,d,0.7368,noRew,,,,,,0,31,0,31,0,1,,,,,,,,,,,,,,,,,
292540,2022-12-05_10h23.35.276,vts_reward_expectancy_bt,2022.2.4,Win32,145.0957632,Chrome,1536,864,,,,,0,621,,,,,,,,,,,,,,,,,D,146,circle,1,0,,,,,,,,,,,,,,,,switch,number,numSwt,j,0.9288,noRew,,,,,,0,32,0,32,0,1,,,,,,,,,,,,,,,,,
292540,2022-12-05_10h23.35.276,vts_reward_expectancy_bt,2022.2.4,Win32,145.0957632,Chrome,1536,864,,,,,0,621,,,,,,,,,,,,,,,,,F,132,triangle,1,0,,,,,,,,,,,,,,,,repeat,number,numRpt,j,0.8969,noRew,,,,,,0,33,0,33,0,1,,,,,,,,,,,,,,,,,
292540,2022-12-05_10h23.35.276,vts_reward_expectancy_bt,2022.2.4,Win32,145.0957632,Chrome,1536,864,,,,,0,621,,,,,,,,,,,,,,,,,S,139,hexagon,1,0,,,,,,,,,,,,,,,,switch,letter,lettSwt,f,0.7305,noRew,,,,,,0,34,0,34,0,1,,,,,,,,,,,,,,,,,
292540,2022-12-05_10h23.35.276,vts_reward_expectancy_bt,2022.2.4,Win32,145.0957632,Chrome,1536,864,,,,,0,621,,,,,,,,,,,,,,,,,U,167,star,1,0,,,,,,,,,,,,,,,,repeat,letter,lettRpt,f,0.8019,noRew,,,,,,0,35,0,35,0,1,,,,,,,,,,,,,,,,,
292540,2022-12-05_10h23.35.276,vts_reward_expectancy_bt,2022.2.4,Win32,145.0957632,Chrome,1536,864,,,,,0,621,,,,,,,,,,,,,,,,,F,125,hexagon,1,0,,,,,,,,,,,,,,,,switch,number,numSwt,j,0.9118,noRew,,,,,,0,36,0,36,0,1,,,,,,,,,,,,,,,,,
292540,2022-12-05_10h23.35.276,vts_reward_expectancy_bt,2022.2.4,Win32,145.0957632,Chrome,1536,864,,,,,0,621,,,,,,,,,,,,,,,,,H,167,star,1,0,,,,,,,,,,,,,,,,switch,letter,lettSwt,d,0.6675,noRew,,,,,,0,37,0,37,0,1,,,,,,,,,,,,,,,,,
292540,2022-12-05_10h23.35.276,vts_reward_expectancy_bt,2022.2.4,Win32,145.0957632,Chrome,1536,864,,,,,0,621,,,,,,,,,,,,,,,,,S,160,circle,1,0,,,,,,,,,,,,,,,,repeat,letter,lettRpt,f,0.6317,noRew,,,,,,0,38,0,38,0,1,,,,,,,,,,,,,,,,,
292540,2022-12-05_10h23.35.276,vts_reward_expectancy_bt,2022.2.4,Win32,145.0957632,Chrome,1536,864,,,,,0,621,,,,,,,,,,,,,,,,,B,146,star,1,0,,,,,,,,,,,,,,,,switch,number,numSwt,j,0.7023,noRew,,,,,,0,39,0,39,0,1,,,,,,,,,,,,,,,,,
292540,2022-12-05_10h23.35.276,vts_reward_expectancy_bt,2022.2.4,Win32,145.0957632,Chrome,1536,864,,,,,0,621,,,,,,,,,,,,,,,,,B,132,hexagon,1,0,,,,,,,,,,,,,,,,repeat,number,numRpt,j,0.9866,noRew,,,,,,0,40,0,40,0,1,,,,,,,,,,,,,,,,,
292540,2022-12-05_10h23.35.276,vts_reward_expectancy_bt,2022.2.4,Win32,145.0957632,Chrome,1536,864,,,,,0,621,,,,,,,,,,,,,,,,,S,125,circle,1,0,,,,,,,,,,,,,,,,repeat,number,numRpt,j,0.5803,noRew,,,,,,0,41,0,41,0,1,,,,,,,,,,,,,,,,,
292540,2022-12-05_10h23.35.276,vts_reward_expectancy_bt,2022.2.4,Win32,145.0957632,Chrome,1536,864,,,,,0,621,,,,,,,,,,,,,,,,,W,139,triangle,1,0,,,,,,,,,,,,,,,,switch,letter,lettSwt,f,0.9525,noRew,,,,,,0,42,0,42,0,1,,,,,,,,,,,,,,,,,
292540,2022-12-05_10h23.35.276,vts_reward_expectancy_bt,2022.2.4,Win32,145.0957632,Chrome,1536,864,,,,,0,621,,,,,,,,,,,,,,,,,H,181,circle,1,0,,,,,,,,,,,,,,,,switch,number,numSwt,k,1.0753,noRew,,,,,,0,43,0,43,0,1,,,,,,,,,,,,,,,,,
292540,2022-12-05_10h23.35.276,vts_reward_expectancy_bt,2022.2.4,Win32,145.0957632,Chrome,1536,864,,,,,0,621,,,,,,,,,,,,,,,,,D,167,hexagon,1,0,,,,,,,,,,,,,,,,repeat,number,numRpt,k,1.1398,noRew,,,,,,0,44,0,44,0,1,,,,,,,,,,,,,,,,,
292540,2022-12-05_10h23.35.276,vts_reward_expectancy_bt,2022.2.4,Win32,145.0957632,Chrome,1536,864,,,,,0,621,,,,,,,,,,,,,,,,,U,139,circle,1,0,,,,,,,,,,,,,,,,switch,letter,lettSwt,f,0.6822,noRew,,,,,,0,45,0,45,0,1,,,,,,,,,,,,,,,,,
292540,2022-12-05_10h23.35.276,vts_reward_expectancy_bt,2022.2.4,Win32,145.0957632,Chrome,1536,864,,,,,0,621,,,,,,,,,,,,,,,,,W,181,triangle,1,0,,,,,,,,,,,,,,,,repeat,letter,lettRpt,f,0.6726,noRew,,,,,,0,46,0,46,0,1,,,,,,,,,,,,,,,,,
292540,2022-12-05_10h23.35.276,vts_reward_expectancy_bt,2022.2.4,Win32,145.0957632,Chrome,1536,864,,,,,0,621,,,,,,,,,,,,,,,,,S,160,hexagon,1,0,,,,,,,,,,,,,,,,repeat,letter,lettRpt,f,0.9313,noRew,,,,,,0,47,0,47,0,1,,,,,,,,,,,,,,,,,
292540,2022-12-05_10h23.35.276,vts_reward_expectancy_bt,2022.2.4,Win32,145.0957632,Chrome,1536,864,,,,,0,621,,,,,,,,,,,,,,,,,U,125,circle,1,0,,,,,,,,,,,,,,,,switch,number,numSwt,j,0.7663,noRew,,,,,,0,48,0,48,0,1,,,,,,,,,,,,,,,,,
292540,2022-12-05_10h23.35.276,vts_reward_expectancy_bt,2022.2.4,Win32,145.0957632,Chrome,1536,864,,,,,0,621,,,,,,,,,,,,,,,,,D,181,hexagon,1,0,,,,,,,,,,,,,,,,switch,letter,lettSwt,d,0.9513,noRew,,,,,,0,49,0,49,0,1,,,,,,,,,,,,,,,,,
292540,2022-12-05_10h23.35.276,vts_reward_expectancy_bt,2022.2.4,Win32,145.0957632,Chrome,1536,864,,,,,0,621,,,,,,,,,,,,,,,,,B,167,triangle,1,0,,,,,,,,,,,,,,,,switch,number,numSwt,k,0.8323,noRew,,,,,,0,50,0,50,0,1,,,,,,,,,,,,,,,,,
292540,2022-12-05_10h23.35.276,vts_reward_expectancy_bt,2022.2.4,Win32,145.0957632,Chrome,1536,864,,,,,0,621,,,,,,,,,,,,,,,,,Y,139,star,1,0,,,,,,,,,,,,,,,,switch,letter,lettSwt,f,0.7645,noRew,,,,,,0,51,0,51,0,1,,,,,,,,,,,,,,,,,
292540,2022-12-05_10h23.35.276,vts_reward_expectancy_bt,2022.2.4,Win32,145.0957632,Chrome,1536,864,,,,,0,621,,,,,,,,,,,,,,,,,D,139,star,1,0,,,,,,,,,,,,,,,,switch,number,numSwt,j,0.9042,noRew,,,,,,0,52,0,52,0,1,,,,,,,,,,,,,,,,,
292540,2022-12-05_10h23.35.276,vts_reward_expectancy_bt,2022.2.4,Win32,145.0957632,Chrome,1536,864,,,,,0,621,,,,,,,,,,,,,,,,,F,167,triangle,1,0,,,,,,,,,,,,,,,,switch,letter,lettSwt,d,0.6743,noRew,,,,,,0,53,0,53,0,1,,,,,,,,,,,,,,,,,
292540,2022-12-05_10h23.35.276,vts_reward_expectancy_bt,2022.2.4,Win32,145.0957632,Chrome,1536,864,,,,,0,621,,,,,,,,,,,,,,,,,S,181,circle,1,0,,,,,,,,,,,,,,,,repeat,letter,lettRpt,f,0.7135,noRew,,,,,,0,54,0,54,0,1,,,,,,,,,,,,,,,,,
292540,2022-12-05_10h23.35.276,vts_reward_expectancy_bt,2022.2.4,Win32,145.0957632,Chrome,1536,864,,,,,0,621,,,,,,,,,,,,,,,,,B,132,triangle,1,0,,,,,,,,,,,,,,,,switch,number,numSwt,j,0.8108,noRew,,,,,,0,55,0,55,0,1,,,,,,,,,,,,,,,,,
292540,2022-12-05_10h23.35.276,vts_reward_expectancy_bt,2022.2.4,Win32,145.0957632,Chrome,1536,864,,,,,0,621,,,,,,,,,,,,,,,,,F,139,hexagon,1,0,,,,,,,,,,,,,,,,repeat,number,numRpt,j,0.9115,noRew,,,,,,0,56,0,56,0,1,,,,,,,,,,,,,,,,,
292540,2022-12-05_10h23.35.276,vts_reward_expectancy_bt,2022.2.4,Win32,145.0957632,Chrome,1536,864,,,,,0,621,,,,,,,,,,,,,,,,,S,132,star,1,0,,,,,,,,,,,,,,,,repeat,number,numRpt,j,1.0074,noRew,,,,,,0,57,0,57,0,1,,,,,,,,,,,,,,,,,
292540,2022-12-05_10h23.35.276,vts_reward_expectancy_bt,2022.2.4,Win32,145.0957632,Chrome,1536,864,,,,,0,621,,,,,,,,,,,,,,,,,Y,146,star,1,0,,,,,,,,,,,,,,,,switch,letter,lettSwt,f,0.6802,noRew,,,,,,0,58,0,58,0,1,,,,,,,,,,,,,,,,,
292540,2022-12-05_10h23.35.276,vts_reward_expectancy_bt,2022.2.4,Win32,145.0957632,Chrome,1536,864,,,,,0,621,,,,,,,,,,,,,,,,,H,167,hexagon,1,0,,,,,,,,,,,,,,,,repeat,letter,lettRpt,d,0.663,noRew,,,,,,0,59,0,59,0,1,,,,,,,,,,,,,,,,,
292540,2022-12-05_10h23.35.276,vts_reward_expectancy_bt,2022.2.4,Win32,145.0957632,Chrome,1536,864,,,,,0,621,,,,,,,,,,,,,,,,,S,139,star,1,0,,,,,,,,,,,,,,,,repeat,letter,lettRpt,f,0.7262,noRew,,,,,,0,60,0,60,0,1,,,,,,,,,,,,,,,,,
292540,2022-12-05_10h23.35.276,vts_reward_expectancy_bt,2022.2.4,Win32,145.0957632,Chrome,1536,864,,,,,0,621,,,,,,,,,,,,,,,,,F,181,hexagon,1,0,,,,,,,,,,,,,,,,repeat,letter,lettRpt,d,0.9039,noRew,,,,,,0,61,0,61,0,1,,,,,,,,,,,,,,,,,
292540,2022-12-05_10h23.35.276,vts_reward_expectancy_bt,2022.2.4,Win32,145.0957632,Chrome,1536,864,,,,,0,621,,,,,,,,,,,,,,,,,D,146,triangle,1,0,,,,,,,,,,,,,,,,switch,number,numSwt,j,1.0078,noRew,,,,,,0,62,0,62,0,1,,,,,,,,,,,,,,,,,
292540,2022-12-05_10h23.35.276,vts_reward_expectancy_bt,2022.2.4,Win32,145.0957632,Chrome,1536,864,,,,,0,621,,,,,,,,,,,,,,,,,U,125,hexagon,1,0,,,,,,,,,,,,,,,,switch,letter,lettSwt,f,0.7937,noRew,,,,,,0,63,0,63,0,1,,,,,,,,,,,,,,,,,
292540,2022-12-05_10h23.35.276,vts_reward_expectancy_bt,2022.2.4,Win32,145.0957632,Chrome,1536,864,,,,,,,,,,,,,,,,,,,,,,,,,,,,,,,,,,,,,,,,,,,,,,,,,,,,,,,,,,,,,,,,,,,,,,,,,,,,
292540,2022-12-05_10h23.35.276,vts_reward_expectancy_bt,2022.2.4,Win32,145.0957632,Chrome,1536,864,,,,,0,621,,,,,,,,,,,,,,,,,F,181,circle,1,0,,,,,,,,,,,,,,,,repeat,letter,lettRpt,d,0.7175,Hi,,,,,,0,,,,,,space,10.8117,low,0,0,0,0,1,,,,,,,,,
292540,2022-12-05_10h23.35.276,vts_reward_expectancy_bt,2022.2.4,Win32,145.0957632,Chrome,1536,864,,,,,10,631,,,,,,,,,,,,,,,,,B,160,star,1,0,,,,,,,,,,,,,,,,repeat,letter,lettRpt,d,0.5974,Hi,,,,,,0,,,,,,,,low,1,0,1,0,1,,,,,,,,,
292540,2022-12-05_10h23.35.276,vts_reward_expectancy_bt,2022.2.4,Win32,145.0957632,Chrome,1536,864,,,,,10,641,,,,,,,,,,,,,,,,,Y,167,hexagon,1,0,,,,,,,,,,,,,,,,repeat,letter,lettRpt,f,0.6047,Lo,,,,,,0,,,,,,,,low,2,0,2,0,1,,,,,,,,,
292540,2022-12-05_10h23.35.276,vts_reward_expectancy_bt,2022.2.4,Win32,145.0957632,Chrome,1536,864,,,,,10,651,,,,,,,,,,,,,,,,,D,174,triangle,1,0,,,,,,,,,,,,,,,,switch,number,numSwt,k,0.6113,Lo,,,,,,0,,,,,,,,low,3,0,3,0,1,,,,,,,,,
292540,2022-12-05_10h23.35.276,vts_reward_expectancy_bt,2022.2.4,Win32,145.0957632,Chrome,1536,864,,,,,1,652,,,,,,,,,,,,,,,,,H,146,circle,1,0,,,,,,,,,,,,,,,,switch,letter,lettSwt,d,0.5415,Hi,,,,,,0,,,,,,,,low,4,0,4,0,1,,,,,,,,,
292540,2022-12-05_10h23.35.276,vts_reward_expectancy_bt,2022.2.4,Win32,145.0957632,Chrome,1536,864,,,,,0,652,,,,,,,,,,,,,,,,,S,132,star,1,0,,,,,,,,,,,,,,,,switch,number,numSwt,j,1.0498,Hi,,,,,,0,,,,,,,,low,5,0,5,0,1,,,,,,,,,
292540,2022-12-05_10h23.35.276,vts_reward_expectancy_bt,2022.2.4,Win32,145.0957632,Chrome,1536,864,,,,,10,662,,,,,,,,,,,,,,,,,W,139,hexagon,1,0,,,,,,,,,,,,,,,,repeat,number,numRpt,j,0.5153,Lo,,,,,,0,,,,,,,,low,6,0,6,0,1,,,,,,,,,
292540,2022-12-05_10h23.35.276,vts_reward_expectancy_bt,2022.2.4,Win32,145.0957632,Chrome,1536,864,,,,,1,663,,,,,,,,,,,,,,,,,U,125,triangle,1,0,,,,,,,,,,,,,,,,repeat,number,numRpt,j,0.517,Lo,,,,,,0,,,,,,,,low,7,0,7,0,1,,,,,,,,,
292540,2022-12-05_10h23.35.276,vts_reward_expectancy_bt,2022.2.4,Win32,145.0957632,Chrome,1536,864,,,,,0,663,,,,,,,,,,,,,,,,,F,181,star,0,0,,,,,,,,,,,,,,,,repeat,number,NA,j,0.8886,Lo,,,,,,0,,,,,,,,low,8,0,8,0,1,,,,,,,,,
292540,2022-12-05_10h23.35.276,vts_reward_expectancy_bt,2022.2.4,Win32,145.0957632,Chrome,1536,864,,,,,10,673,,,,,,,,,,,,,,,,,B,160,circle,1,1,,,,,,,,,,,,,,,,repeat,number,numRpt,k,0.5429,Hi,,,,,,0,,,,,,,,low,9,0,9,0,1,,,,,,,,,
292540,2022-12-05_10h23.35.276,vts_reward_expectancy_bt,2022.2.4,Win32,145.0957632,Chrome,1536,864,,,,,1,674,,,,,,,,,,,,,,,,,Y,167,triangle,1,0,,,,,,,,,,,,,,,,switch,letter,lettSwt,f,1.5602,Lo,,,,,,0,,,,,,,,low,10,0,10,0,1,,,,,,,,,
292540,2022-12-05_10h23.35.276,vts_reward_expectancy_bt,2022.2.4,Win32,145.0957632,Chrome,1536,864,,,,,10,684,,,,,,,,,,,,,,,,,D,174,hexagon,1,0,,,,,,,,,,,,,,,,switch,number,numSwt,k,1.2843,Lo,,,,,,0,,,,,,,,low,11,0,11,0,1,,,,,,,,,
292540,2022-12-05_10h23.35.276,vts_reward_expectancy_bt,2022.2.4,Win32,145.0957632,Chrome,1536,864,,,,,10,694,,,,,,,,,,,,,,,,,H,146,star,1,0,,,,,,,,,,,,,,,,repeat,number,numRpt,j,0.5779,Hi,,,,,,0,,,,,,,,low,12,0,12,0,1,,,,,,,,,
292540,2022-12-05_10h23.35.276,vts_reward_expectancy_bt,2022.2.4,Win32,145.0957632,Chrome,1536,864,,,,,1,695,,,,,,,,,,,,,,,,,S,132,triangle,1,0,,,,,,,,,,,,,,,,switch,letter,lettSwt,f,1.1732,Lo,,,,,,0,,,,,,,,low,13,0,13,0,1,,,,,,,,,
292540,2022-12-05_10h23.35.276,vts_reward_expectancy_bt,2022.2.4,Win32,145.0957632,Chrome,1536,864,,,,,0,695,,,,,,,,,,,,,,,,,W,139,circle,1,0,,,,,,,,,,,,,,,,switch,number,numSwt,j,0.7807,Hi,,,,,,0,,,,,,,,low,14,0,14,0,1,,,,,,,,,
292540,2022-12-05_10h23.35.276,vts_reward_expectancy_bt,2022.2.4,Win32,145.0957632,Chrome,1536,864,,,,,1,696,,,,,,,,,,,,,,,,,U,125,hexagon,1,0,,,,,,,,,,,,,,,,repeat,number,numRpt,j,0.6685,Lo,,,,,,0,,,,,,,,low,15,0,15,0,1,,,,,,,,,
292540,2022-12-05_10h23.35.276,vts_reward_expectancy_bt,2022.2.4,Win32,145.0957632,Chrome,1536,864,,,,,10,706,,,,,,,,,,,,,,,,,B,132,triangle,1,0,,,,,,,,,,,,,,,,switch,letter,lettSwt,d,0.5351,Lo,,,,,,0,,,,,,,,low,16,0,16,0,1,,,,,,,,,
292540,2022-12-05_10h23.35.276,vts_reward_expectancy_bt,2022.2.4,Win32,145.0957632,Chrome,1536,864,,,,,10,716,,,,,,,,,,,,,,,,,U,174,circle,1,0,,,,,,,,,,,,,,,,repeat,letter,lettRpt,f,0.6325,Hi,,,,,,0,,,,,,,,low,17,0,17,0,1,,,,,,,,,
292540,2022-12-05_10h23.35.276,vts_reward_expectancy_bt,2022.2.4,Win32,145.0957632,Chrome,1536,864,,,,,10,726,,,,,,,,,,,,,,,,,F,139,hexagon,1,0,,,,,,,,,,,,,,,,switch,number,numSwt,j,0.5351,Lo,,,,,,0,,,,,,,,low,18,0,18,0,1,,,,,,,,,
292540,2022-12-05_10h23.35.276,vts_reward_expectancy_bt,2022.2.4,Win32,145.0957632,Chrome,1536,864,,,,,10,736,,,,,,,,,,,,,,,,,H,125,star,1,0,,,,,,,,,,,,,,,,repeat,number,numRpt,j,0.4242,Hi,,,,,,0,,,,,,,,low,19,0,19,0,1,,,,,,,,,
292540,2022-12-05_10h23.35.276,vts_reward_expectancy_bt,2022.2.4,Win32,145.0957632,Chrome,1536,864,,,,,1,737,,,,,,,,,,,,,,,,,S,160,circle,1,0,,,,,,,,,,,,,,,,switch,letter,lettSwt,f,0.4864,Hi,,,,,,0,,,,,,,,low,20,0,20,0,1,,,,,,,,,
292540,2022-12-05_10h23.35.276,vts_reward_expectancy_bt,2022.2.4,Win32,145.0957632,Chrome,1536,864,,,,,1,738,,,,,,,,,,,,,,,,,W,146,star,1,0,,,,,,,,,,,,,,,,repeat,letter,lettRpt,f,0.5689,Hi,,,,,,0,,,,,,,,low,21,0,21,0,1,,,,,,,,,
292540,2022-12-05_10h23.35.276,vts_reward_expectancy_bt,2022.2.4,Win32,145.0957632,Chrome,1536,864,,,,,1,739,,,,,,,,,,,,,,,,,Y,181,triangle,1,0,,,,,,,,,,,,,,,,repeat,letter,lettRpt,f,0.5842,Lo,,,,,,0,,,,,,,,low,22,0,22,0,1,,,,,,,,,
292540,2022-12-05_10h23.35.276,vts_reward_expectancy_bt,2022.2.4,Win32,145.0957632,Chrome,1536,864,,,,,1,740,,,,,,,,,,,,,,,,,D,167,hexagon,1,0,,,,,,,,,,,,,,,,repeat,letter,lettRpt,d,0.6391,Lo,,,,,,0,,,,,,,,low,23,0,23,0,1,,,,,,,,,
292540,2022-12-05_10h23.35.276,vts_reward_expectancy_bt,2022.2.4,Win32,145.0957632,Chrome,1536,864,,,,,1,741,,,,,,,,,,,,,,,,,D,160,circle,1,0,,,,,,,,,,,,,,,,switch,number,numSwt,k,0.4928,Hi,,,,,,0,,,,,,,,low,24,0,24,0,1,,,,,,,,,
292540,2022-12-05_10h23.35.276,vts_reward_expectancy_bt,2022.2.4,Win32,145.0957632,Chrome,1536,864,,,,,10,751,,,,,,,,,,,,,,,,,F,146,triangle,1,0,,,,,,,,,,,,,,,,switch,letter,lettSwt,d,0.5503,Lo,,,,,,0,,,,,,,,low,25,0,25,0,1,,,,,,,,,
292540,2022-12-05_10h23.35.276,vts_reward_expectancy_bt,2022.2.4,Win32,145.0957632,Chrome,1536,864,,,,,10,761,,,,,,,,,,,,,,,,,H,125,hexagon,1,0,,,,,,,,,,,,,,,,repeat,letter,lettRpt,d,0.6216,Lo,,,,,,0,,,,,,,,low,26,0,26,0,1,,,,,,,,,
292540,2022-12-05_10h23.35.276,vts_reward_expectancy_bt,2022.2.4,Win32,145.0957632,Chrome,1536,864,,,,,10,771,,,,,,,,,,,,,,,,,U,181,star,1,0,,,,,,,,,,,,,,,,repeat,letter,lettRpt,f,0.5825,Hi,,,,,,0,,,,,,,,low,27,0,27,0,1,,,,,,,,,
292540,2022-12-05_10h23.35.276,vts_reward_expectancy_bt,2022.2.4,Win32,145.0957632,Chrome,1536,864,,,,,10,781,,,,,,,,,,,,,,,,,W,174,star,1,0,,,,,,,,,,,,,,,,switch,number,numSwt,k,0.5631,Hi,,,,,,0,,,,,,,,low,28,0,28,0,1,,,,,,,,,
292540,2022-12-05_10h23.35.276,vts_reward_expectancy_bt,2022.2.4,Win32,145.0957632,Chrome,1536,864,,,,,10,791,,,,,,,,,,,,,,,,,S,167,triangle,1,0,,,,,,,,,,,,,,,,repeat,number,numRpt,k,0.6028,Lo,,,,,,0,,,,,,,,low,29,0,29,0,1,,,,,,,,,
292540,2022-12-05_10h23.35.276,vts_reward_expectancy_bt,2022.2.4,Win32,145.0957632,Chrome,1536,864,,,,,1,792,,,,,,,,,,,,,,,,,B,139,hexagon,1,0,,,,,,,,,,,,,,,,repeat,number,numRpt,j,0.6403,Lo,,,,,,0,,,,,,,,low,30,0,30,0,1,,,,,,,,,
292540,2022-12-05_10h23.35.276,vts_reward_expectancy_bt,2022.2.4,Win32,145.0957632,Chrome,1536,864,,,,,10,802,,,,,,,,,,,,,,,,,Y,132,circle,1,0,,,,,,,,,,,,,,,,repeat,number,numRpt,j,0.6884,Hi,,,,,,0,,,,,,,,low,31,0,31,0,1,,,,,,,,,
292540,2022-12-05_10h23.35.276,vts_reward_expectancy_bt,2022.2.4,Win32,145.0957632,Chrome,1536,864,,,,,1,803,,,,,,,,,,,,,,,,,W,146,triangle,1,0,,,,,,,,,,,,,,,,switch,letter,lettSwt,f,0.8057,Lo,,,,,,1,,,,,,space,3.314,low,0,0,0,0,1,,,,,,,,,
292540,2022-12-05_10h23.35.276,vts_reward_expectancy_bt,2022.2.4,Win32,145.0957632,Chrome,1536,864,,,,,0,803,,,,,,,,,,,,,,,,,F,139,star,1,0,,,,,,,,,,,,,,,,switch,number,numSwt,j,0.7162,Hi,,,,,,1,,,,,,,,low,1,0,1,0,1,,,,,,,,,
292540,2022-12-05_10h23.35.276,vts_reward_expectancy_bt,2022.2.4,Win32,145.0957632,Chrome,1536,864,,,,,10,813,,,,,,,,,,,,,,,,,B,125,circle,1,0,,,,,,,,,,,,,,,,repeat,number,numRpt,j,0.4943,Hi,,,,,,1,,,,,,,,low,2,0,2,0,1,,,,,,,,,
292540,2022-12-05_10h23.35.276,vts_reward_expectancy_bt,2022.2.4,Win32,145.0957632,Chrome,1536,864,,,,,1,814,,,,,,,,,,,,,,,,,D,174,hexagon,1,0,,,,,,,,,,,,,,,,repeat,number,numRpt,k,0.7092,Lo,,,,,,1,,,,,,,,low,3,0,3,0,1,,,,,,,,,
292540,2022-12-05_10h23.35.276,vts_reward_expectancy_bt,2022.2.4,Win32,145.0957632,Chrome,1536,864,,,,,1,815,,,,,,,,,,,,,,,,,Y,167,triangle,1,0,,,,,,,,,,,,,,,,switch,letter,lettSwt,f,0.5832,Lo,,,,,,1,,,,,,,,low,4,0,4,0,1,,,,,,,,,
292540,2022-12-05_10h23.35.276,vts_reward_expectancy_bt,2022.2.4,Win32,145.0957632,Chrome,1536,864,,,,,0,815,,,,,,,,,,,,,,,,,U,181,star,1,0,,,,,,,,,,,,,,,,repeat,letter,lettRpt,f,0.674,Hi,,,,,,1,,,,,,,,low,5,0,5,0,1,,,,,,,,,
292540,2022-12-05_10h23.35.276,vts_reward_expectancy_bt,2022.2.4,Win32,145.0957632,Chrome,1536,864,,,,,0,815,,,,,,,,,,,,,,,,,S,132,circle,1,0,,,,,,,,,,,,,,,,repeat,letter,lettRpt,f,0.7502,Hi,,,,,,1,,,,,,,,low,6,0,6,0,1,,,,,,,,,
292540,2022-12-05_10h23.35.276,vts_reward_expectancy_bt,2022.2.4,Win32,145.0957632,Chrome,1536,864,,,,,1,816,,,,,,,,,,,,,,,,,H,160,hexagon,1,0,,,,,,,,,,,,,,,,repeat,letter,lettRpt,d,0.5842,Lo,,,,,,1,,,,,,,,low,7,0,7,0,1,,,,,,,,,
292540,2022-12-05_10h23.35.276,vts_reward_expectancy_bt,2022.2.4,Win32,145.0957632,Chrome,1536,864,,,,,10,826,,,,,,,,,,,,,,,,,W,146,circle,1,0,,,,,,,,,,,,,,,,repeat,letter,lettRpt,f,0.4987,Hi,,,,,,1,,,,,,,,low,8,0,8,0,1,,,,,,,,,
292540,2022-12-05_10h23.35.276,vts_reward_expectancy_bt,2022.2.4,Win32,145.0957632,Chrome,1536,864,,,,,0,826,,,,,,,,,,,,,,,,,F,139,star,1,0,,,,,,,,,,,,,,,,repeat,letter,lettRpt,d,0.5995,Hi,,,,,,1,,,,,,,,low,9,0,9,0,1,,,,,,,,,
292540,2022-12-05_10h23.35.276,vts_reward_expectancy_bt,2022.2.4,Win32,145.0957632,Chrome,1536,864,,,,,1,827,,,,,,,,,,,,,,,,,B,125,triangle,1,0,,,,,,,,,,,,,,,,switch,number,numSwt,j,0.5162,Lo,,,,,,1,,,,,,,,low,10,0,10,0,1,,,,,,,,,
292540,2022-12-05_10h23.35.276,vts_reward_expectancy_bt,2022.2.4,Win32,145.0957632,Chrome,1536,864,,,,,1,828,,,,,,,,,,,,,,,,,D,174,hexagon,1,0,,,,,,,,,,,,,,,,switch,letter,lettSwt,d,0.58,Lo,,,,,,1,,,,,,,,low,11,0,11,0,1,,,,,,,,,
292540,2022-12-05_10h23.35.276,vts_reward_expectancy_bt,2022.2.4,Win32,145.0957632,Chrome,1536,864,,,,,10,838,,,,,,,,,,,,,,,,,Y,167,triangle,1,0,,,,,,,,,,,,,,,,switch,number,numSwt,k,0.6535,Lo,,,,,,1,,,,,,,,low,12,0,12,0,1,,,,,,,,,
292540,2022-12-05_10h23.35.276,vts_reward_expectancy_bt,2022.2.4,Win32,145.0957632,Chrome,1536,864,,,,,0,838,,,,,,,,,,,,,,,,,U,181,star,1,0,,,,,,,,,,,,,,,,switch,letter,lettSwt,f,0.5562,Hi,,,,,,1,,,,,,,,low,13,0,13,0,1,,,,,,,,,
292540,2022-12-05_10h23.35.276,vts_reward_expectancy_bt,2022.2.4,Win32,145.0957632,Chrome,1536,864,,,,,10,848,,,,,,,,,,,,,,,,,S,132,circle,1,0,,,,,,,,,,,,,,,,switch,number,numSwt,j,0.5234,Hi,,,,,,1,,,,,,,,low,14,0,14,0,1,,,,,,,,,
292540,2022-12-05_10h23.35.276,vts_reward_expectancy_bt,2022.2.4,Win32,145.0957632,Chrome,1536,864,,,,,1,849,,,,,,,,,,,,,,,,,H,160,hexagon,1,0,,,,,,,,,,,,,,,,repeat,number,numRpt,k,0.7426,Lo,,,,,,1,,,,,,,,low,15,0,15,0,1,,,,,,,,,
292540,2022-12-05_10h23.35.276,vts_reward_expectancy_bt,2022.2.4,Win32,145.0957632,Chrome,1536,864,,,,,10,859,,,,,,,,,,,,,,,,,D,160,hexagon,1,0,,,,,,,,,,,,,,,,repeat,number,numRpt,k,1.1607,Lo,,,,,,1,,,,,,,,low,16,0,16,0,1,,,,,,,,,
292540,2022-12-05_10h23.35.276,vts_reward_expectancy_bt,2022.2.4,Win32,145.0957632,Chrome,1536,864,,,,,10,869,,,,,,,,,,,,,,,,,H,132,triangle,1,0,,,,,,,,,,,,,,,,switch,letter,lettSwt,d,0.6366,Lo,,,,,,1,,,,,,,,low,17,0,17,0,1,,,,,,,,,
292540,2022-12-05_10h23.35.276,vts_reward_expectancy_bt,2022.2.4,Win32,145.0957632,Chrome,1536,864,,,,,1,870,,,,,,,,,,,,,,,,,Y,181,star,1,0,,,,,,,,,,,,,,,,repeat,letter,lettRpt,f,0.386,Hi,,,,,,1,,,,,,,,low,18,0,18,0,1,,,,,,,,,
292540,2022-12-05_10h23.35.276,vts_reward_expectancy_bt,2022.2.4,Win32,145.0957632,Chrome,1536,864,,,,,10,880,,,,,,,,,,,,,,,,,F,139,circle,1,0,,,,,,,,,,,,,,,,switch,number,numSwt,j,0.4531,Hi,,,,,,1,,,,,,,,low,19,0,19,0,1,,,,,,,,,
292540,2022-12-05_10h23.35.276,vts_reward_expectancy_bt,2022.2.4,Win32,145.0957632,Chrome,1536,864,,,,,0,880,,,,,,,,,,,,,,,,,S,167,circle,1,0,,,,,,,,,,,,,,,,repeat,number,numRpt,k,0.612,Hi,,,,,,1,,,,,,,,low,20,0,20,0,1,,,,,,,,,
292540,2022-12-05_10h23.35.276,vts_reward_expectancy_bt,2022.2.4,Win32,145.0957632,Chrome,1536,864,,,,,10,890,,,,,,,,,,,,,,,,,U,146,triangle,1,0,,,,,,,,,,,,,,,,repeat,number,numRpt,j,0.653,Lo,,,,,,1,,,,,,,,low,21,0,21,0,1,,,,,,,,,
292540,2022-12-05_10h23.35.276,vts_reward_expectancy_bt,2022.2.4,Win32,145.0957632,Chrome,1536,864,,,,,10,900,,,,,,,,,,,,,,,,,B,125,star,1,0,,,,,,,,,,,,,,,,repeat,number,numRpt,j,0.4367,Hi,,,,,,1,,,,,,,,low,22,0,22,0,1,,,,,,,,,
292540,2022-12-05_10h23.35.276,vts_reward_expectancy_bt,2022.2.4,Win32,145.0957632,Chrome,1536,864,,,,,10,910,,,,,,,,,,,,,,,,,W,174,hexagon,1,0,,,,,,,,,,,,,,,,switch,letter,lettSwt,f,0.7237,Lo,,,,,,1,,,,,,,,low,23,0,23,0,1,,,,,,,,,
292540,2022-12-05_10h23.35.276,vts_reward_expectancy_bt,2022.2.4,Win32,145.0957632,Chrome,1536,864,,,,,1,911,,,,,,,,,,,,,,,,,S,160,hexagon,1,0,,,,,,,,,,,,,,,,switch,number,numSwt,k,0.6575,Lo,,,,,,1,,,,,,,,low,24,0,24,0,1,,,,,,,,,
292540,2022-12-05_10h23.35.276,vts_reward_expectancy_bt,2022.2.4,Win32,145.0957632,Chrome,1536,864,,,,,0,911,,,,,,,,,,,,,,,,,F,146,circle,1,0,,,,,,,,,,,,,,,,repeat,number,numRpt,j,0.5642,Hi,,,,,,1,,,,,,,,low,25,0,25,0,1,,,,,,,,,
292540,2022-12-05_10h23.35.276,vts_reward_expectancy_bt,2022.2.4,Win32,145.0957632,Chrome,1536,864,,,,,1,912,,,,,,,,,,,,,,,,,Y,125,star,1,0,,,,,,,,,,,,,,,,repeat,number,numRpt,j,0.4848,Hi,,,,,,1,,,,,,,,low,26,0,26,0,1,,,,,,,,,
292540,2022-12-05_10h23.35.276,vts_reward_expectancy_bt,2022.2.4,Win32,145.0957632,Chrome,1536,864,,,,,1,913,,,,,,,,,,,,,,,,,U,167,triangle,1,0,,,,,,,,,,,,,,,,switch,letter,lettSwt,f,1.1047,Lo,,,,,,1,,,,,,,,low,27,0,27,0,1,,,,,,,,,
292540,2022-12-05_10h23.35.276,vts_reward_expectancy_bt,2022.2.4,Win32,145.0957632,Chrome,1536,864,,,,,10,923,,,,,,,,,,,,,,,,,W,181,hexagon,1,0,,,,,,,,,,,,,,,,repeat,letter,lettRpt,f,0.7865,Lo,,,,,,1,,,,,,,,low,28,0,28,0,1,,,,,,,,,
292540,2022-12-05_10h23.35.276,vts_reward_expectancy_bt,2022.2.4,Win32,145.0957632,Chrome,1536,864,,,,,1,924,,,,,,,,,,,,,,,,,B,132,triangle,1,0,,,,,,,,,,,,,,,,repeat,letter,lettRpt,d,0.5504,Lo,,,,,,1,,,,,,,,low,29,0,29,0,1,,,,,,,,,
292540,2022-12-05_10h23.35.276,vts_reward_expectancy_bt,2022.2.4,Win32,145.0957632,Chrome,1536,864,,,,,10,934,,,,,,,,,,,,,,,,,H,139,star,1,0,,,,,,,,,,,,,,,,switch,number,numSwt,j,0.4884,Hi,,,,,,1,,,,,,,,low,30,0,30,0,1,,,,,,,,,
292540,2022-12-05_10h23.35.276,vts_reward_expectancy_bt,2022.2.4,Win32,145.0957632,Chrome,1536,864,,,,,0,934,,,,,,,,,,,,,,,,,D,174,circle,1,0,,,,,,,,,,,,,,,,repeat,number,numRpt,k,0.6323,Hi,,,,,,1,,,,,,,,low,31,0,31,0,1,,,,,,,,,
292540,2022-12-05_10h23.35.276,vts_reward_expectancy_bt,2022.2.4,Win32,145.0957632,Chrome,1536,864,,,,,10,944,,,,,,,,,,,,,,,,,Y,146,circle,1,0,,,,,,,,,,,,,,,,repeat,number,numRpt,j,0.5013,Hi,,,,,,2,,,,,,space,8.371,low,0,0,0,0,1,,,,,,,,,
292540,2022-12-05_10h23.35.276,vts_reward_expectancy_bt,2022.2.4,Win32,145.0957632,Chrome,1536,864,,,,,1,945,,,,,,,,,,,,,,,,,D,167,triangle,1,0,,,,,,,,,,,,,,,,switch,letter,lettSwt,d,0.6187,Lo,,,,,,2,,,,,,,,low,1,0,1,0,1,,,,,,,,,
292540,2022-12-05_10h23.35.276,vts_reward_expectancy_bt,2022.2.4,Win32,145.0957632,Chrome,1536,864,,,,,1,946,,,,,,,,,,,,,,,,,H,139,hexagon,1,0,,,,,,,,,,,,,,,,repeat,letter,lettRpt,d,0.4622,Lo,,,,,,2,,,,,,,,low,2,0,2,0,1,,,,,,,,,
292540,2022-12-05_10h23.35.276,vts_reward_expectancy_bt,2022.2.4,Win32,145.0957632,Chrome,1536,864,,,,,10,956,,,,,,,,,,,,,,,,,W,125,star,1,0,,,,,,,,,,,,,,,,repeat,letter,lettRpt,f,0.3774,Hi,,,,,,2,,,,,,,,low,3,0,3,0,1,,,,,,,,,
292540,2022-12-05_10h23.35.276,vts_reward_expectancy_bt,2022.2.4,Win32,145.0957632,Chrome,1536,864,,,,,10,966,,,,,,,,,,,,,,,,,S,160,circle,1,0,,,,,,,,,,,,,,,,switch,number,numSwt,k,0.4587,Hi,,,,,,2,,,,,,,,low,4,0,4,0,1,,,,,,,,,
292540,2022-12-05_10h23.35.276,vts_reward_expectancy_bt,2022.2.4,Win32,145.0957632,Chrome,1536,864,,,,,1,967,,,,,,,,,,,,,,,,,U,181,triangle,1,0,,,,,,,,,,,,,,,,repeat,number,numRpt,k,0.4831,Lo,,,,,,2,,,,,,,,low,5,0,5,0,1,,,,,,,,,
292540,2022-12-05_10h23.35.276,vts_reward_expectancy_bt,2022.2.4,Win32,145.0957632,Chrome,1536,864,,,,,10,977,,,,,,,,,,,,,,,,,B,174,hexagon,1,0,,,,,,,,,,,,,,,,switch,letter,lettSwt,d,0.5433,Lo,,,,,,2,,,,,,,,low,6,0,6,0,1,,,,,,,,,
292540,2022-12-05_10h23.35.276,vts_reward_expectancy_bt,2022.2.4,Win32,145.0957632,Chrome,1536,864,,,,,1,978,,,,,,,,,,,,,,,,,F,132,star,1,0,,,,,,,,,,,,,,,,switch,number,numSwt,j,0.4631,Hi,,,,,,2,,,,,,,,low,7,0,7,0,1,,,,,,,,,
292540,2022-12-05_10h23.35.276,vts_reward_expectancy_bt,2022.2.4,Win32,145.0957632,Chrome,1536,864,,,,,1,979,,,,,,,,,,,,,,,,,Y,146,star,1,0,,,,,,,,,,,,,,,,repeat,number,numRpt,j,0.5252,Hi,,,,,,2,,,,,,,,low,8,0,8,0,1,,,,,,,,,
292540,2022-12-05_10h23.35.276,vts_reward_expectancy_bt,2022.2.4,Win32,145.0957632,Chrome,1536,864,,,,,1,980,,,,,,,,,,,,,,,,,D,167,triangle,1,0,,,,,,,,,,,,,,,,switch,letter,lettSwt,d,0.7646,Lo,,,,,,2,,,,,,,,low,9,0,9,0,1,,,,,,,,,
292540,2022-12-05_10h23.35.276,vts_reward_expectancy_bt,2022.2.4,Win32,145.0957632,Chrome,1536,864,,,,,1,981,,,,,,,,,,,,,,,,,H,139,hexagon,1,0,,,,,,,,,,,,,,,,repeat,letter,lettRpt,d,0.6054,Lo,,,,,,2,,,,,,,,low,10,0,10,0,1,,,,,,,,,
292540,2022-12-05_10h23.35.276,vts_reward_expectancy_bt,2022.2.4,Win32,145.0957632,Chrome,1536,864,,,,,10,991,,,,,,,,,,,,,,,,,W,125,circle,1,0,,,,,,,,,,,,,,,,repeat,letter,lettRpt,f,0.5406,Hi,,,,,,2,,,,,,,,low,11,0,11,0,1,,,,,,,,,
292540,2022-12-05_10h23.35.276,vts_reward_expectancy_bt,2022.2.4,Win32,145.0957632,Chrome,1536,864,,,,,1,992,,,,,,,,,,,,,,,,,S,160,hexagon,1,0,,,,,,,,,,,,,,,,switch,number,numSwt,k,0.6895,Lo,,,,,,2,,,,,,,,low,12,0,12,0,1,,,,,,,,,
292540,2022-12-05_10h23.35.276,vts_reward_expectancy_bt,2022.2.4,Win32,145.0957632,Chrome,1536,864,,,,,1,993,,,,,,,,,,,,,,,,,U,181,circle,1,0,,,,,,,,,,,,,,,,repeat,number,numRpt,k,0.5213,Hi,,,,,,2,,,,,,,,low,13,0,13,0,1,,,,,,,,,
292540,2022-12-05_10h23.35.276,vts_reward_expectancy_bt,2022.2.4,Win32,145.0957632,Chrome,1536,864,,,,,1,994,,,,,,,,,,,,,,,,,B,174,triangle,1,0,,,,,,,,,,,,,,,,switch,letter,lettSwt,d,0.585,Lo,,,,,,2,,,,,,,,low,14,0,14,0,1,,,,,,,,,
292540,2022-12-05_10h23.35.276,vts_reward_expectancy_bt,2022.2.4,Win32,145.0957632,Chrome,1536,864,,,,,0,994,,,,,,,,,,,,,,,,,F,132,star,1,0,,,,,,,,,,,,,,,,switch,number,numSwt,j,0.5236,Hi,,,,,,2,,,,,,,,low,15,0,15,0,1,,,,,,,,,
292540,2022-12-05_10h23.35.276,vts_reward_expectancy_bt,2022.2.4,Win32,145.0957632,Chrome,1536,864,,,,,0,994,,,,,,,,,,,,,,,,,B,181,circle,1,0,,,,,,,,,,,,,,,,repeat,number,numRpt,k,0.8618,Hi,,,,,,2,,,,,,,,low,16,0,16,0,1,,,,,,,,,
292540,2022-12-05_10h23.35.276,vts_reward_expectancy_bt,2022.2.4,Win32,145.0957632,Chrome,1536,864,,,,,1,995,,,,,,,,,,,,,,,,,H,132,star,1,0,,,,,,,,,,,,,,,,switch,letter,lettSwt,d,0.5095,Hi,,,,,,2,,,,,,,,low,17,0,17,0,1,,,,,,,,,
292540,2022-12-05_10h23.35.276,vts_reward_expectancy_bt,2022.2.4,Win32,145.0957632,Chrome,1536,864,,,,,1,996,,,,,,,,,,,,,,,,,W,139,hexagon,1,0,,,,,,,,,,,,,,,,switch,number,numSwt,j,0.4991,Lo,,,,,,2,,,,,,,,low,18,0,18,0,1,,,,,,,,,
292540,2022-12-05_10h23.35.276,vts_reward_expectancy_bt,2022.2.4,Win32,145.0957632,Chrome,1536,864,,,,,1,997,,,,,,,,,,,,,,,,,U,146,triangle,1,0,,,,,,,,,,,,,,,,switch,letter,lettSwt,f,0.5399,Lo,,,,,,2,,,,,,,,low,19,0,19,0,1,,,,,,,,,
292540,2022-12-05_10h23.35.276,vts_reward_expectancy_bt,2022.2.4,Win32,145.0957632,Chrome,1536,864,,,,,10,1007,,,,,,,,,,,,,,,,,D,167,triangle,1,0,,,,,,,,,,,,,,,,switch,number,numSwt,k,0.4599,Lo,,,,,,2,,,,,,,,low,20,0,20,0,1,,,,,,,,,
292540,2022-12-05_10h23.35.276,vts_reward_expectancy_bt,2022.2.4,Win32,145.0957632,Chrome,1536,864,,,,,1,1008,,,,,,,,,,,,,,,,,F,125,star,1,0,,,,,,,,,,,,,,,,repeat,number,numRpt,j,0.4191,Hi,,,,,,2,,,,,,,,low,21,0,21,0,1,,,,,,,,,
292540,2022-12-05_10h23.35.276,vts_reward_expectancy_bt,2022.2.4,Win32,145.0957632,Chrome,1536,864,,,,,0,1008,,,,,,,,,,,,,,,,,Y,174,circle,1,0,,,,,,,,,,,,,,,,switch,letter,lettSwt,f,0.7255,Hi,,,,,,2,,,,,,,,low,22,0,22,0,1,,,,,,,,,
292540,2022-12-05_10h23.35.276,vts_reward_expectancy_bt,2022.2.4,Win32,145.0957632,Chrome,1536,864,,,,,1,1009,,,,,,,,,,,,,,,,,S,160,hexagon,1,0,,,,,,,,,,,,,,,,switch,number,numSwt,k,0.8768,Lo,,,,,,2,,,,,,,,low,23,0,23,0,1,,,,,,,,,
292540,2022-12-05_10h23.35.276,vts_reward_expectancy_bt,2022.2.4,Win32,145.0957632,Chrome,1536,864,,,,,10,1019,,,,,,,,,,,,,,,,,B,132,hexagon,1,0,,,,,,,,,,,,,,,,repeat,number,numRpt,j,0.4446,Lo,,,,,,2,,,,,,,,low,24,0,24,0,1,,,,,,,,,
292540,2022-12-05_10h23.35.276,vts_reward_expectancy_bt,2022.2.4,Win32,145.0957632,Chrome,1536,864,,,,,1,1020,,,,,,,,,,,,,,,,,D,167,star,1,0,,,,,,,,,,,,,,,,switch,letter,lettSwt,d,0.4456,Hi,,,,,,2,,,,,,,,low,25,0,25,0,1,,,,,,,,,
292540,2022-12-05_10h23.35.276,vts_reward_expectancy_bt,2022.2.4,Win32,145.0957632,Chrome,1536,864,,,,,1,1021,,,,,,,,,,,,,,,,,S,174,triangle,1,0,,,,,,,,,,,,,,,,repeat,letter,lettRpt,f,0.481,Lo,,,,,,2,,,,,,,,low,26,0,26,0,1,,,,,,,,,
292540,2022-12-05_10h23.35.276,vts_reward_expectancy_bt,2022.2.4,Win32,145.0957632,Chrome,1536,864,,,,,1,1022,,,,,,,,,,,,,,,,,U,160,circle,1,0,,,,,,,,,,,,,,,,switch,number,numSwt,k,0.5134,Hi,,,,,,2,,,,,,,,low,27,0,27,0,1,,,,,,,,,
292540,2022-12-05_10h23.35.276,vts_reward_expectancy_bt,2022.2.4,Win32,145.0957632,Chrome,1536,864,,,,,10,1032,,,,,,,,,,,,,,,,,W,146,circle,1,0,,,,,,,,,,,,,,,,switch,letter,lettSwt,f,0.4589,Hi,,,,,,2,,,,,,,,low,28,0,28,0,1,,,,,,,,,
292540,2022-12-05_10h23.35.276,vts_reward_expectancy_bt,2022.2.4,Win32,145.0957632,Chrome,1536,864,,,,,1,1033,,,,,,,,,,,,,,,,,Y,139,hexagon,1,0,,,,,,,,,,,,,,,,switch,number,numSwt,j,0.562,Lo,,,,,,2,,,,,,,,low,29,0,29,0,1,,,,,,,,,
292540,2022-12-05_10h23.35.276,vts_reward_expectancy_bt,2022.2.4,Win32,145.0957632,Chrome,1536,864,,,,,10,1043,,,,,,,,,,,,,,,,,H,181,triangle,1,0,,,,,,,,,,,,,,,,repeat,number,numRpt,k,1.0421,Lo,,,,,,2,,,,,,,,low,30,0,30,0,1,,,,,,,,,
292540,2022-12-05_10h23.35.276,vts_reward_expectancy_bt,2022.2.4,Win32,145.0957632,Chrome,1536,864,,,,,0,1043,,,,,,,,,,,,,,,,,F,125,star,1,0,,,,,,,,,,,,,,,,switch,letter,lettSwt,d,0.6661,Hi,,,,,,2,,,,,,,,low,31,0,31,0,1,,,,,,,,,
292540,2022-12-05_10h23.35.276,vts_reward_expectancy_bt,2022.2.4,Win32,145.0957632,Chrome,1536,864,,,,,0,1043,,,,,,,,,,,,,,,,,B,181,star,1,0,,,,,,,,,,,,,,,,repeat,letter,lettRpt,d,0.7589,Hi,,,,,,3,,,,,,space,26.6818,low,0,0,0,0,1,,,,,,,,,
292540,2022-12-05_10h23.35.276,vts_reward_expectancy_bt,2022.2.4,Win32,145.0957632,Chrome,1536,864,,,,,0,1043,,,,,,,,,,,,,,,,,H,146,circle,1,0,,,,,,,,,,,,,,,,switch,number,numSwt,j,0.5359,Hi,,,,,,3,,,,,,,,low,1,0,1,0,1,,,,,,,,,
292540,2022-12-05_10h23.35.276,vts_reward_expectancy_bt,2022.2.4,Win32,145.0957632,Chrome,1536,864,,,,,1,1044,,,,,,,,,,,,,,,,,W,174,triangle,1,0,,,,,,,,,,,,,,,,repeat,number,numRpt,k,0.543,Lo,,,,,,3,,,,,,,,low,2,0,2,0,1,,,,,,,,,
292540,2022-12-05_10h23.35.276,vts_reward_expectancy_bt,2022.2.4,Win32,145.0957632,Chrome,1536,864,,,,,1,1045,,,,,,,,,,,,,,,,,U,125,hexagon,1,0,,,,,,,,,,,,,,,,switch,letter,lettSwt,f,0.4842,Lo,,,,,,3,,,,,,,,low,3,0,3,0,1,,,,,,,,,
292540,2022-12-05_10h23.35.276,vts_reward_expectancy_bt,2022.2.4,Win32,145.0957632,Chrome,1536,864,,,,,0,1045,,,,,,,,,,,,,,,,,Y,160,star,1,0,,,,,,,,,,,,,,,,switch,number,numSwt,k,0.661,Hi,,,,,,3,,,,,,,,low,4,0,4,0,1,,,,,,,,,
292540,2022-12-05_10h23.35.276,vts_reward_expectancy_bt,2022.2.4,Win32,145.0957632,Chrome,1536,864,,,,,1,1046,,,,,,,,,,,,,,,,,F,139,circle,1,0,,,,,,,,,,,,,,,,repeat,number,numRpt,j,0.4045,Hi,,,,,,3,,,,,,,,low,5,0,5,0,1,,,,,,,,,
292540,2022-12-05_10h23.35.276,vts_reward_expectancy_bt,2022.2.4,Win32,145.0957632,Chrome,1536,864,,,,,1,1047,,,,,,,,,,,,,,,,,S,167,triangle,1,0,,,,,,,,,,,,,,,,repeat,number,numRpt,k,0.5571,Lo,,,,,,3,,,,,,,,low,6,0,6,0,1,,,,,,,,,
292540,2022-12-05_10h23.35.276,vts_reward_expectancy_bt,2022.2.4,Win32,145.0957632,Chrome,1536,864,,,,,10,1057,,,,,,,,,,,,,,,,,D,132,hexagon,1,0,,,,,,,,,,,,,,,,repeat,number,numRpt,j,0.5722,Lo,,,,,,3,,,,,,,,low,7,0,7,0,1,,,,,,,,,
292540,2022-12-05_10h23.35.276,vts_reward_expectancy_bt,2022.2.4,Win32,145.0957632,Chrome,1536,864,,,,,1,1058,,,,,,,,,,,,,,,,,B,181,triangle,1,0,,,,,,,,,,,,,,,,repeat,number,numRpt,k,0.5362,Lo,,,,,,3,,,,,,,,low,8,0,8,0,1,,,,,,,,,
292540,2022-12-05_10h23.35.276,vts_reward_expectancy_bt,2022.2.4,Win32,145.0957632,Chrome,1536,864,,,,,1,1059,,,,,,,,,,,,,,,,,H,146,hexagon,1,0,,,,,,,,,,,,,,,,repeat,number,numRpt,j,0.57,Lo,,,,,,3,,,,,,,,low,9,0,9,0,1,,,,,,,,,
292540,2022-12-05_10h23.35.276,vts_reward_expectancy_bt,2022.2.4,Win32,145.0957632,Chrome,1536,864,,,,,0,1059,,,,,,,,,,,,,,,,,W,174,circle,1,0,,,,,,,,,,,,,,,,repeat,number,numRpt,k,0.5469,Hi,,,,,,3,,,,,,,,low,10,0,10,0,1,,,,,,,,,
292540,2022-12-05_10h23.35.276,vts_reward_expectancy_bt,2022.2.4,Win32,145.0957632,Chrome,1536,864,,,,,0,1059,,,,,,,,,,,,,,,,,U,125,star,1,0,,,,,,,,,,,,,,,,repeat,number,numRpt,j,0.6389,Hi,,,,,,3,,,,,,,,low,11,0,11,0,1,,,,,,,,,
292540,2022-12-05_10h23.35.276,vts_reward_expectancy_bt,2022.2.4,Win32,145.0957632,Chrome,1536,864,,,,,1,1060,,,,,,,,,,,,,,,,,Y,160,circle,1,0,,,,,,,,,,,,,,,,switch,letter,lettSwt,f,0.4674,Hi,,,,,,3,,,,,,,,low,12,0,12,0,1,,,,,,,,,
292540,2022-12-05_10h23.35.276,vts_reward_expectancy_bt,2022.2.4,Win32,145.0957632,Chrome,1536,864,,,,,0,1060,,,,,,,,,,,,,,,,,F,139,star,1,0,,,,,,,,,,,,,,,,switch,number,numSwt,j,0.5401,Hi,,,,,,3,,,,,,,,low,13,0,13,0,1,,,,,,,,,
292540,2022-12-05_10h23.35.276,vts_reward_expectancy_bt,2022.2.4,Win32,145.0957632,Chrome,1536,864,,,,,1,1061,,,,,,,,,,,,,,,,,S,167,hexagon,1,0,,,,,,,,,,,,,,,,switch,letter,lettSwt,f,0.5929,Lo,,,,,,3,,,,,,,,low,14,0,14,0,1,,,,,,,,,
292540,2022-12-05_10h23.35.276,vts_reward_expectancy_bt,2022.2.4,Win32,145.0957632,Chrome,1536,864,,,,,10,1071,,,,,,,,,,,,,,,,,D,132,triangle,1,0,,,,,,,,,,,,,,,,switch,number,numSwt,j,0.5514,Lo,,,,,,3,,,,,,,,low,15,0,15,0,1,,,,,,,,,
292540,2022-12-05_10h23.35.276,vts_reward_expectancy_bt,2022.2.4,Win32,145.0957632,Chrome,1536,864,,,,,0,1071,,,,,,,,,,,,,,,,,U,146,star,1,0,,,,,,,,,,,,,,,,repeat,number,numRpt,j,0.6674,Hi,,,,,,3,,,,,,,,low,16,0,16,0,1,,,,,,,,,
292540,2022-12-05_10h23.35.276,vts_reward_expectancy_bt,2022.2.4,Win32,145.0957632,Chrome,1536,864,,,,,10,1081,,,,,,,,,,,,,,,,,H,167,triangle,1,0,,,,,,,,,,,,,,,,repeat,number,numRpt,k,0.5773,Lo,,,,,,3,,,,,,,,low,17,0,17,0,1,,,,,,,,,
292540,2022-12-05_10h23.35.276,vts_reward_expectancy_bt,2022.2.4,Win32,145.0957632,Chrome,1536,864,,,,,0,1081,,,,,,,,,,,,,,,,,F,132,circle,1,0,,,,,,,,,,,,,,,,repeat,number,numRpt,j,0.7707,Hi,,,,,,3,,,,,,,,low,18,0,18,0,1,,,,,,,,,
292540,2022-12-05_10h23.35.276,vts_reward_expectancy_bt,2022.2.4,Win32,145.0957632,Chrome,1536,864,,,,,10,1091,,,,,,,,,,,,,,,,,D,160,hexagon,1,0,,,,,,,,,,,,,,,,repeat,number,numRpt,k,0.6278,Lo,,,,,,3,,,,,,,,low,19,0,19,0,1,,,,,,,,,
292540,2022-12-05_10h23.35.276,vts_reward_expectancy_bt,2022.2.4,Win32,145.0957632,Chrome,1536,864,,,,,0,1091,,,,,,,,,,,,,,,,,S,174,star,1,0,,,,,,,,,,,,,,,,repeat,number,numRpt,k,0.7297,Hi,,,,,,3,,,,,,,,low,20,0,20,0,1,,,,,,,,,
292540,2022-12-05_10h23.35.276,vts_reward_expectancy_bt,2022.2.4,Win32,145.0957632,Chrome,1536,864,,,,,0,1091,,,,,,,,,,,,,,,,,Y,139,circle,1,0,,,,,,,,,,,,,,,,repeat,number,numRpt,j,0.5231,Hi,,,,,,3,,,,,,,,low,21,0,21,0,1,,,,,,,,,
292540,2022-12-05_10h23.35.276,vts_reward_expectancy_bt,2022.2.4,Win32,145.0957632,Chrome,1536,864,,,,,1,1092,,,,,,,,,,,,,,,,,W,125,triangle,1,0,,,,,,,,,,,,,,,,repeat,number,numRpt,j,0.5776,Lo,,,,,,3,,,,,,,,low,22,0,22,0,1,,,,,,,,,
292540,2022-12-05_10h23.35.276,vts_reward_expectancy_bt,2022.2.4,Win32,145.0957632,Chrome,1536,864,,,,,1,1093,,,,,,,,,,,,,,,,,B,181,hexagon,1,0,,,,,,,,,,,,,,,,repeat,number,numRpt,k,0.4997,Lo,,,,,,3,,,,,,,,low,23,0,23,0,1,,,,,,,,,
292540,2022-12-05_10h23.35.276,vts_reward_expectancy_bt,2022.2.4,Win32,145.0957632,Chrome,1536,864,,,,,1,1094,,,,,,,,,,,,,,,,,F,167,star,1,0,,,,,,,,,,,,,,,,switch,letter,lettSwt,d,0.527,Hi,,,,,,3,,,,,,,,low,24,0,24,0,1,,,,,,,,,
292540,2022-12-05_10h23.35.276,vts_reward_expectancy_bt,2022.2.4,Win32,145.0957632,Chrome,1536,864,,,,,0,1094,,,,,,,,,,,,,,,,,S,181,circle,1,0,,,,,,,,,,,,,,,,repeat,letter,lettRpt,f,0.5552,Hi,,,,,,3,,,,,,,,low,25,0,25,0,1,,,,,,,,,
292540,2022-12-05_10h23.35.276,vts_reward_expectancy_bt,2022.2.4,Win32,145.0957632,Chrome,1536,864,,,,,10,1104,,,,,,,,,,,,,,,,,B,146,triangle,1,0,,,,,,,,,,,,,,,,repeat,letter,lettRpt,d,0.7623,Lo,,,,,,3,,,,,,,,low,26,0,26,0,1,,,,,,,,,
292540,2022-12-05_10h23.35.276,vts_reward_expectancy_bt,2022.2.4,Win32,145.0957632,Chrome,1536,864,,,,,1,1105,,,,,,,,,,,,,,,,,W,160,hexagon,1,0,,,,,,,,,,,,,,,,switch,number,numSwt,k,0.6392,Lo,,,,,,3,,,,,,,,low,27,0,27,0,1,,,,,,,,,
292540,2022-12-05_10h23.35.276,vts_reward_expectancy_bt,2022.2.4,Win32,145.0957632,Chrome,1536,864,,,,,10,1115,,,,,,,,,,,,,,,,,U,132,circle,1,0,,,,,,,,,,,,,,,,switch,letter,lettSwt,f,0.5356,Hi,,,,,,3,,,,,,,,low,28,0,28,0,1,,,,,,,,,
292540,2022-12-05_10h23.35.276,vts_reward_expectancy_bt,2022.2.4,Win32,145.0957632,Chrome,1536,864,,,,,10,1125,,,,,,,,,,,,,,,,,H,139,hexagon,1,0,,,,,,,,,,,,,,,,switch,number,numSwt,j,0.5494,Lo,,,,,,3,,,,,,,,low,29,0,29,0,1,,,,,,,,,
292540,2022-12-05_10h23.35.276,vts_reward_expectancy_bt,2022.2.4,Win32,145.0957632,Chrome,1536,864,,,,,0,1125,,,,,,,,,,,,,,,,,Y,125,star,1,0,,,,,,,,,,,,,,,,switch,letter,lettSwt,f,0.5895,Hi,,,,,,3,,,,,,,,low,30,0,30,0,1,,,,,,,,,
292540,2022-12-05_10h23.35.276,vts_reward_expectancy_bt,2022.2.4,Win32,145.0957632,Chrome,1536,864,,,,,1,1126,,,,,,,,,,,,,,,,,D,174,triangle,1,0,,,,,,,,,,,,,,,,switch,number,numSwt,k,0.6427,Lo,,,,,,3,,,,,,,,low,31,0,31,0,1,,,,,,,,,
292540,2022-12-05_10h23.35.276,vts_reward_expectancy_bt,2022.2.4,Win32,145.0957632,Chrome,1536,864,,,,,10,1136,,,,,,,,,,,,,,,,,F,139,triangle,1,0,,,,,,,,,,,,,,,,repeat,number,numRpt,j,0.5558,Lo,,,,,,4,,,,,,space,1.1829,low,0,0,0,0,1,,,,,,,,,
292540,2022-12-05_10h23.35.276,vts_reward_expectancy_bt,2022.2.4,Win32,145.0957632,Chrome,1536,864,,,,,1,1137,,,,,,,,,,,,,,,,,H,125,hexagon,1,0,,,,,,,,,,,,,,,,switch,letter,lettSwt,d,0.6714,Lo,,,,,,4,,,,,,,,low,1,0,1,0,1,,,,,,,,,
292540,2022-12-05_10h23.35.276,vts_reward_expectancy_bt,2022.2.4,Win32,145.0957632,Chrome,1536,864,,,,,10,1147,,,,,,,,,,,,,,,,,W,146,star,1,0,,,,,,,,,,,,,,,,repeat,letter,lettRpt,f,0.4593,Hi,,,,,,4,,,,,,,,low,2,0,2,0,1,,,,,,,,,
292540,2022-12-05_10h23.35.276,vts_reward_expectancy_bt,2022.2.4,Win32,145.0957632,Chrome,1536,864,,,,,10,1157,,,,,,,,,,,,,,,,,Y,174,circle,1,0,,,,,,,,,,,,,,,,repeat,letter,lettRpt,f,0.523,Hi,,,,,,4,,,,,,,,low,3,0,3,0,1,,,,,,,,,
292540,2022-12-05_10h23.35.276,vts_reward_expectancy_bt,2022.2.4,Win32,145.0957632,Chrome,1536,864,,,,,10,1167,,,,,,,,,,,,,,,,,S,167,triangle,1,0,,,,,,,,,,,,,,,,switch,number,numSwt,k,0.6114,Lo,,,,,,4,,,,,,,,low,4,0,4,0,1,,,,,,,,,
292540,2022-12-05_10h23.35.276,vts_reward_expectancy_bt,2022.2.4,Win32,145.0957632,Chrome,1536,864,,,,,1,1168,,,,,,,,,,,,,,,,,B,160,hexagon,1,0,,,,,,,,,,,,,,,,repeat,number,numRpt,k,0.6278,Lo,,,,,,4,,,,,,,,low,5,0,5,0,1,,,,,,,,,
292540,2022-12-05_10h23.35.276,vts_reward_expectancy_bt,2022.2.4,Win32,145.0957632,Chrome,1536,864,,,,,10,1178,,,,,,,,,,,,,,,,,D,132,star,1,0,,,,,,,,,,,,,,,,repeat,number,numRpt,j,0.4802,Hi,,,,,,4,,,,,,,,low,6,0,6,0,1,,,,,,,,,
292540,2022-12-05_10h23.35.276,vts_reward_expectancy_bt,2022.2.4,Win32,145.0957632,Chrome,1536,864,,,,,0,1178,,,,,,,,,,,,,,,,,U,181,circle,1,0,,,,,,,,,,,,,,,,switch,letter,lettSwt,f,0.6785,Hi,,,,,,4,,,,,,,,low,7,0,7,0,1,,,,,,,,,
292540,2022-12-05_10h23.35.276,vts_reward_expectancy_bt,2022.2.4,Win32,145.0957632,Chrome,1536,864,,,,,0,1178,,,,,,,,,,,,,,,,,F,139,circle,1,0,,,,,,,,,,,,,,,,switch,number,numSwt,j,0.5667,Hi,,,,,,4,,,,,,,,low,8,0,8,0,1,,,,,,,,,
292540,2022-12-05_10h23.35.276,vts_reward_expectancy_bt,2022.2.4,Win32,145.0957632,Chrome,1536,864,,,,,10,1188,,,,,,,,,,,,,,,,,H,125,triangle,1,0,,,,,,,,,,,,,,,,switch,letter,lettSwt,d,0.4511,Lo,,,,,,4,,,,,,,,low,9,0,9,0,1,,,,,,,,,
292540,2022-12-05_10h23.35.276,vts_reward_expectancy_bt,2022.2.4,Win32,145.0957632,Chrome,1536,864,,,,,10,1198,,,,,,,,,,,,,,,,,W,146,star,1,0,,,,,,,,,,,,,,,,repeat,letter,lettRpt,f,0.5841,Hi,,,,,,4,,,,,,,,low,10,0,10,0,1,,,,,,,,,
292540,2022-12-05_10h23.35.276,vts_reward_expectancy_bt,2022.2.4,Win32,145.0957632,Chrome,1536,864,,,,,1,1199,,,,,,,,,,,,,,,,,Y,174,hexagon,1,0,,,,,,,,,,,,,,,,repeat,letter,lettRpt,f,0.4652,Lo,,,,,,4,,,,,,,,low,11,0,11,0,1,,,,,,,,,
292540,2022-12-05_10h23.35.276,vts_reward_expectancy_bt,2022.2.4,Win32,145.0957632,Chrome,1536,864,,,,,10,1209,,,,,,,,,,,,,,,,,S,167,circle,1,0,,,,,,,,,,,,,,,,switch,number,numSwt,k,0.4724,Hi,,,,,,4,,,,,,,,low,12,0,12,0,1,,,,,,,,,
292540,2022-12-05_10h23.35.276,vts_reward_expectancy_bt,2022.2.4,Win32,145.0957632,Chrome,1536,864,,,,,0,1209,,,,,,,,,,,,,,,,,B,160,star,1,0,,,,,,,,,,,,,,,,switch,letter,lettSwt,d,0.5844,Hi,,,,,,4,,,,,,,,low,13,0,13,0,1,,,,,,,,,
292540,2022-12-05_10h23.35.276,vts_reward_expectancy_bt,2022.2.4,Win32,145.0957632,Chrome,1536,864,,,,,1,1210,,,,,,,,,,,,,,,,,D,132,hexagon,1,0,,,,,,,,,,,,,,,,switch,number,numSwt,j,0.9665,Lo,,,,,,4,,,,,,,,low,14,0,14,0,1,,,,,,,,,
292540,2022-12-05_10h23.35.276,vts_reward_expectancy_bt,2022.2.4,Win32,145.0957632,Chrome,1536,864,,,,,10,1220,,,,,,,,,,,,,,,,,U,181,triangle,1,0,,,,,,,,,,,,,,,,repeat,number,numRpt,k,0.6181,Lo,,,,,,4,,,,,,,,low,15,0,15,0,1,,,,,,,,,
292540,2022-12-05_10h23.35.276,vts_reward_expectancy_bt,2022.2.4,Win32,145.0957632,Chrome,1536,864,,,,,10,1230,,,,,,,,,,,,,,,,,W,139,triangle,1,0,,,,,,,,,,,,,,,,switch,letter,lettSwt,f,0.7641,Lo,,,,,,4,,,,,,,,low,16,0,16,0,1,,,,,,,,,
292540,2022-12-05_10h23.35.276,vts_reward_expectancy_bt,2022.2.4,Win32,145.0957632,Chrome,1536,864,,,,,10,1240,,,,,,,,,,,,,,,,,U,132,circle,1,0,,,,,,,,,,,,,,,,repeat,letter,lettRpt,f,0.5493,Hi,,,,,,4,,,,,,,,low,17,0,17,0,1,,,,,,,,,
292540,2022-12-05_10h23.35.276,vts_reward_expectancy_bt,2022.2.4,Win32,145.0957632,Chrome,1536,864,,,,,0,1240,,,,,,,,,,,,,,,,,F,146,star,1,0,,,,,,,,,,,,,,,,switch,number,numSwt,j,0.6976,Hi,,,,,,4,,,,,,,,low,18,0,18,0,1,,,,,,,,,
292540,2022-12-05_10h23.35.276,vts_reward_expectancy_bt,2022.2.4,Win32,145.0957632,Chrome,1536,864,,,,,1,1241,,,,,,,,,,,,,,,,,S,160,hexagon,1,0,,,,,,,,,,,,,,,,switch,letter,lettSwt,f,0.9806,Lo,,,,,,4,,,,,,,,low,19,0,19,0,1,,,,,,,,,
292540,2022-12-05_10h23.35.276,vts_reward_expectancy_bt,2022.2.4,Win32,145.0957632,Chrome,1536,864,,,,,10,1251,,,,,,,,,,,,,,,,,H,181,hexagon,1,0,,,,,,,,,,,,,,,,repeat,letter,lettRpt,d,0.571,Lo,,,,,,4,,,,,,,,low,20,0,20,0,1,,,,,,,,,
292540,2022-12-05_10h23.35.276,vts_reward_expectancy_bt,2022.2.4,Win32,145.0957632,Chrome,1536,864,,,,,1,1252,,,,,,,,,,,,,,,,,Y,167,triangle,1,0,,,,,,,,,,,,,,,,switch,number,numSwt,k,0.624,Lo,,,,,,4,,,,,,,,low,21,0,21,0,1,,,,,,,,,
292540,2022-12-05_10h23.35.276,vts_reward_expectancy_bt,2022.2.4,Win32,145.0957632,Chrome,1536,864,,,,,0,1252,,,,,,,,,,,,,,,,,B,174,circle,1,0,,,,,,,,,,,,,,,,repeat,number,numRpt,k,0.5778,Hi,,,,,,4,,,,,,,,low,22,0,22,0,1,,,,,,,,,
292540,2022-12-05_10h23.35.276,vts_reward_expectancy_bt,2022.2.4,Win32,145.0957632,Chrome,1536,864,,,,,10,1262,,,,,,,,,,,,,,,,,D,125,star,1,0,,,,,,,,,,,,,,,,repeat,number,numRpt,j,0.4652,Hi,,,,,,4,,,,,,,,low,23,0,23,0,1,,,,,,,,,
292540,2022-12-05_10h23.35.276,vts_reward_expectancy_bt,2022.2.4,Win32,145.0957632,Chrome,1536,864,,,,,10,1272,,,,,,,,,,,,,,,,,B,125,triangle,1,0,,,,,,,,,,,,,,,,switch,letter,lettSwt,d,0.6072,Lo,,,,,,4,,,,,,,,low,24,0,24,0,1,,,,,,,,,
292540,2022-12-05_10h23.35.276,vts_reward_expectancy_bt,2022.2.4,Win32,145.0957632,Chrome,1536,864,,,,,10,1282,,,,,,,,,,,,,,,,,Y,132,star,1,0,,,,,,,,,,,,,,,,switch,number,numSwt,j,0.5222,Hi,,,,,,4,,,,,,,,low,25,0,25,0,1,,,,,,,,,
292540,2022-12-05_10h23.35.276,vts_reward_expectancy_bt,2022.2.4,Win32,145.0957632,Chrome,1536,864,,,,,1,1283,,,,,,,,,,,,,,,,,S,167,hexagon,1,0,,,,,,,,,,,,,,,,switch,letter,lettSwt,f,0.8764,Lo,,,,,,4,,,,,,,,low,26,0,26,0,1,,,,,,,,,
292540,2022-12-05_10h23.35.276,vts_reward_expectancy_bt,2022.2.4,Win32,145.0957632,Chrome,1536,864,,,,,10,1293,,,,,,,,,,,,,,,,,F,146,circle,1,0,,,,,,,,,,,,,,,,repeat,letter,lettRpt,d,0.4579,Hi,,,,,,4,,,,,,,,low,27,0,27,0,1,,,,,,,,,
292540,2022-12-05_10h23.35.276,vts_reward_expectancy_bt,2022.2.4,Win32,145.0957632,Chrome,1536,864,,,,,1,1294,,,,,,,,,,,,,,,,,W,160,circle,1,0,,,,,,,,,,,,,,,,switch,number,numSwt,k,0.5186,Hi,,,,,,4,,,,,,,,low,28,0,28,0,1,,,,,,,,,
292540,2022-12-05_10h23.35.276,vts_reward_expectancy_bt,2022.2.4,Win32,145.0957632,Chrome,1536,864,,,,,0,1294,,,,,,,,,,,,,,,,,U,139,star,0,0,,,,,,,,,,,,,,,,switch,letter,NA,d,0.7733,Hi,,,,,,4,,,,,,,,low,29,0,29,0,1,,,,,,,,,
292540,2022-12-05_10h23.35.276,vts_reward_expectancy_bt,2022.2.4,Win32,145.0957632,Chrome,1536,864,,,,,1,1295,,,,,,,,,,,,,,,,,D,181,triangle,1,1,,,,,,,,,,,,,,,,repeat,letter,lettRpt,d,0.777,Lo,,,,,,4,,,,,,,,low,30,0,30,0,1,,,,,,,,,
292540,2022-12-05_10h23.35.276,vts_reward_expectancy_bt,2022.2.4,Win32,145.0957632,Chrome,1536,864,,,,,1,1296,,,,,,,,,,,,,,,,,H,174,hexagon,1,0,,,,,,,,,,,,,,,,switch,number,numSwt,k,0.895,Lo,,,,,,4,,,,,,,,low,31,0,31,0,1,,,,,,,,,
292540,2022-12-05_10h23.35.276,vts_reward_expectancy_bt,2022.2.4,Win32,145.0957632,Chrome,1536,864,,,,,0,1296,,,,,,,,,,,,,,,,,H,160,circle,1,0,,,,,,,,,,,,,,,,repeat,number,numRpt,k,0.7021,Hi,,,,,,5,,,,,,space,0.8854,low,0,0,0,0,1,,,,,,,,,
292540,2022-12-05_10h23.35.276,vts_reward_expectancy_bt,2022.2.4,Win32,145.0957632,Chrome,1536,864,,,,,10,1306,,,,,,,,,,,,,,,,,D,181,hexagon,1,0,,,,,,,,,,,,,,,,switch,letter,lettSwt,d,0.6324,Lo,,,,,,5,,,,,,,,low,1,0,1,0,1,,,,,,,,,
292540,2022-12-05_10h23.35.276,vts_reward_expectancy_bt,2022.2.4,Win32,145.0957632,Chrome,1536,864,,,,,0,1306,,,,,,,,,,,,,,,,,S,174,star,1,0,,,,,,,,,,,,,,,,repeat,letter,lettRpt,f,0.4859,Hi,,,,,,5,,,,,,,,low,2,0,2,0,1,,,,,,,,,
292540,2022-12-05_10h23.35.276,vts_reward_expectancy_bt,2022.2.4,Win32,145.0957632,Chrome,1536,864,,,,,10,1316,,,,,,,,,,,,,,,,,W,139,triangle,1,0,,,,,,,,,,,,,,,,switch,number,numSwt,j,0.6811,Lo,,,,,,5,,,,,,,,low,3,0,3,0,1,,,,,,,,,
292540,2022-12-05_10h23.35.276,vts_reward_expectancy_bt,2022.2.4,Win32,145.0957632,Chrome,1536,864,,,,,10,1326,,,,,,,,,,,,,,,,,F,132,circle,1,0,,,,,,,,,,,,,,,,repeat,number,numRpt,j,0.5218,Hi,,,,,,5,,,,,,,,low,4,0,4,0,1,,,,,,,,,
292540,2022-12-05_10h23.35.276,vts_reward_expectancy_bt,2022.2.4,Win32,145.0957632,Chrome,1536,864,,,,,1,1327,,,,,,,,,,,,,,,,,U,167,hexagon,1,0,,,,,,,,,,,,,,,,switch,letter,lettSwt,f,0.5354,Lo,,,,,,5,,,,,,,,low,5,0,5,0,1,,,,,,,,,
292540,2022-12-05_10h23.35.276,vts_reward_expectancy_bt,2022.2.4,Win32,145.0957632,Chrome,1536,864,,,,,10,1337,,,,,,,,,,,,,,,,,Y,125,star,1,0,,,,,,,,,,,,,,,,switch,number,numSwt,j,0.5084,Hi,,,,,,5,,,,,,,,low,6,0,6,0,1,,,,,,,,,
292540,2022-12-05_10h23.35.276,vts_reward_expectancy_bt,2022.2.4,Win32,145.0957632,Chrome,1536,864,,,,,10,1347,,,,,,,,,,,,,,,,,B,146,triangle,1,0,,,,,,,,,,,,,,,,switch,letter,lettSwt,d,0.4395,Lo,,,,,,5,,,,,,,,low,7,0,7,0,1,,,,,,,,,
292540,2022-12-05_10h23.35.276,vts_reward_expectancy_bt,2022.2.4,Win32,145.0957632,Chrome,1536,864,,,,,1,1348,,,,,,,,,,,,,,,,,H,160,hexagon,1,0,,,,,,,,,,,,,,,,repeat,letter,lettRpt,d,0.7159,Lo,,,,,,5,,,,,,,,low,8,0,8,0,1,,,,,,,,,
292540,2022-12-05_10h23.35.276,vts_reward_expectancy_bt,2022.2.4,Win32,145.0957632,Chrome,1536,864,,,,,1,1349,,,,,,,,,,,,,,,,,D,181,triangle,1,0,,,,,,,,,,,,,,,,repeat,letter,lettRpt,d,0.4572,Lo,,,,,,5,,,,,,,,low,9,0,9,0,1,,,,,,,,,
292540,2022-12-05_10h23.35.276,vts_reward_expectancy_bt,2022.2.4,Win32,145.0957632,Chrome,1536,864,,,,,0,1349,,,,,,,,,,,,,,,,,S,174,circle,1,0,,,,,,,,,,,,,,,,repeat,letter,lettRpt,f,0.5763,Hi,,,,,,5,,,,,,,,low,10,0,10,0,1,,,,,,,,,
292540,2022-12-05_10h23.35.276,vts_reward_expectancy_bt,2022.2.4,Win32,145.0957632,Chrome,1536,864,,,,,0,1349,,,,,,,,,,,,,,,,,W,139,star,0,0,,,,,,,,,,,,,,,,repeat,letter,NA,d,0.4527,Hi,,,,,,5,,,,,,,,low,11,0,11,0,1,,,,,,,,,
292540,2022-12-05_10h23.35.276,vts_reward_expectancy_bt,2022.2.4,Win32,145.0957632,Chrome,1536,864,,,,,1,1350,,,,,,,,,,,,,,,,,F,132,triangle,1,1,,,,,,,,,,,,,,,,switch,number,numSwt,j,0.626,Lo,,,,,,5,,,,,,,,low,12,0,12,0,1,,,,,,,,,
292540,2022-12-05_10h23.35.276,vts_reward_expectancy_bt,2022.2.4,Win32,145.0957632,Chrome,1536,864,,,,,0,1350,,,,,,,,,,,,,,,,,U,167,star,1,0,,,,,,,,,,,,,,,,repeat,number,numRpt,k,0.5904,Hi,,,,,,5,,,,,,,,low,13,0,13,0,1,,,,,,,,,
292540,2022-12-05_10h23.35.276,vts_reward_expectancy_bt,2022.2.4,Win32,145.0957632,Chrome,1536,864,,,,,0,1350,,,,,,,,,,,,,,,,,Y,125,circle,1,0,,,,,,,,,,,,,,,,switch,letter,lettSwt,f,0.6864,Hi,,,,,,5,,,,,,,,low,14,0,14,0,1,,,,,,,,,
292540,2022-12-05_10h23.35.276,vts_reward_expectancy_bt,2022.2.4,Win32,145.0957632,Chrome,1536,864,,,,,1,1351,,,,,,,,,,,,,,,,,B,146,hexagon,1,0,,,,,,,,,,,,,,,,switch,number,numSwt,j,0.6728,Lo,,,,,,5,,,,,,,,low,15,0,15,0,1,,,,,,,,,
292540,2022-12-05_10h23.35.276,vts_reward_expectancy_bt,2022.2.4,Win32,145.0957632,Chrome,1536,864,,,,,10,1361,,,,,,,,,,,,,,,,,S,132,hexagon,1,0,,,,,,,,,,,,,,,,switch,letter,lettSwt,f,0.6553,Lo,,,,,,5,,,,,,,,low,16,0,16,0,1,,,,,,,,,
292540,2022-12-05_10h23.35.276,vts_reward_expectancy_bt,2022.2.4,Win32,145.0957632,Chrome,1536,864,,,,,0,1361,,,,,,,,,,,,,,,,,B,174,circle,1,0,,,,,,,,,,,,,,,,repeat,letter,lettRpt,d,0.5987,Hi,,,,,,5,,,,,,,,low,17,0,17,0,1,,,,,,,,,
292540,2022-12-05_10h23.35.276,vts_reward_expectancy_bt,2022.2.4,Win32,145.0957632,Chrome,1536,864,,,,,10,1371,,,,,,,,,,,,,,,,,H,139,triangle,1,0,,,,,,,,,,,,,,,,repeat,letter,lettRpt,d,0.6823,Lo,,,,,,5,,,,,,,,low,18,0,18,0,1,,,,,,,,,
292540,2022-12-05_10h23.35.276,vts_reward_expectancy_bt,2022.2.4,Win32,145.0957632,Chrome,1536,864,,,,,0,1371,,,,,,,,,,,,,,,,,F,160,star,1,0,,,,,,,,,,,,,,,,repeat,letter,lettRpt,d,0.5851,Hi,,,,,,5,,,,,,,,low,19,0,19,0,1,,,,,,,,,
292540,2022-12-05_10h23.35.276,vts_reward_expectancy_bt,2022.2.4,Win32,145.0957632,Chrome,1536,864,,,,,1,1372,,,,,,,,,,,,,,,,,D,146,hexagon,1,0,,,,,,,,,,,,,,,,switch,number,numSwt,j,0.6963,Lo,,,,,,5,,,,,,,,low,20,0,20,0,1,,,,,,,,,
292540,2022-12-05_10h23.35.276,vts_reward_expectancy_bt,2022.2.4,Win32,145.0957632,Chrome,1536,864,,,,,1,1373,,,,,,,,,,,,,,,,,W,181,triangle,1,0,,,,,,,,,,,,,,,,switch,letter,lettSwt,f,0.6602,Lo,,,,,,5,,,,,,,,low,21,0,21,0,1,,,,,,,,,
292540,2022-12-05_10h23.35.276,vts_reward_expectancy_bt,2022.2.4,Win32,145.0957632,Chrome,1536,864,,,,,0,1373,,,,,,,,,,,,,,,,,U,167,star,1,0,,,,,,,,,,,,,,,,repeat,letter,lettRpt,f,0.7077,Hi,,,,,,5,,,,,,,,low,22,0,22,0,1,,,,,,,,,
292540,2022-12-05_10h23.35.276,vts_reward_expectancy_bt,2022.2.4,Win32,145.0957632,Chrome,1536,864,,,,,0,1373,,,,,,,,,,,,,,,,,Y,125,circle,1,0,,,,,,,,,,,,,,,,repeat,letter,lettRpt,f,0.6732,Hi,,,,,,5,,,,,,,,low,23,0,23,0,1,,,,,,,,,
292540,2022-12-05_10h23.35.276,vts_reward_expectancy_bt,2022.2.4,Win32,145.0957632,Chrome,1536,864,,,,,1,1374,,,,,,,,,,,,,,,,,D,167,hexagon,1,0,,,,,,,,,,,,,,,,repeat,letter,lettRpt,d,0.7898,Lo,,,,,,5,,,,,,,,low,24,0,24,0,1,,,,,,,,,
292540,2022-12-05_10h23.35.276,vts_reward_expectancy_bt,2022.2.4,Win32,145.0957632,Chrome,1536,864,,,,,0,1374,,,,,,,,,,,,,,,,,Y,174,star,1,0,,,,,,,,,,,,,,,,repeat,letter,lettRpt,f,1.5082,Hi,,,,,,5,,,,,,,,low,25,0,25,0,1,,,,,,,,,
292540,2022-12-05_10h23.35.276,vts_reward_expectancy_bt,2022.2.4,Win32,145.0957632,Chrome,1536,864,,,,,1,1375,,,,,,,,,,,,,,,,,F,139,triangle,1,0,,,,,,,,,,,,,,,,repeat,letter,lettRpt,d,0.6807,Lo,,,,,,5,,,,,,,,low,26,0,26,0,1,,,,,,,,,
292540,2022-12-05_10h23.35.276,vts_reward_expectancy_bt,2022.2.4,Win32,145.0957632,Chrome,1536,864,,,,,0,1375,,,,,,,,,,,,,,,,,W,181,circle,1,0,,,,,,,,,,,,,,,,switch,number,numSwt,k,0.763,Hi,,,,,,5,,,,,,,,low,27,0,27,0,1,,,,,,,,,
292540,2022-12-05_10h23.35.276,vts_reward_expectancy_bt,2022.2.4,Win32,145.0957632,Chrome,1536,864,,,,,1,1376,,,,,,,,,,,,,,,,,H,132,triangle,1,0,,,,,,,,,,,,,,,,repeat,number,numRpt,j,0.5886,Lo,,,,,,5,,,,,,,,low,28,0,28,0,1,,,,,,,,,
292540,2022-12-05_10h23.35.276,vts_reward_expectancy_bt,2022.2.4,Win32,145.0957632,Chrome,1536,864,,,,,1,1377,,,,,,,,,,,,,,,,,B,125,circle,1,0,,,,,,,,,,,,,,,,switch,letter,lettSwt,d,0.4937,Hi,,,,,,5,,,,,,,,low,29,0,29,0,1,,,,,,,,,
292540,2022-12-05_10h23.35.276,vts_reward_expectancy_bt,2022.2.4,Win32,145.0957632,Chrome,1536,864,,,,,1,1378,,,,,,,,,,,,,,,,,U,160,hexagon,1,0,,,,,,,,,,,,,,,,switch,number,numSwt,k,0.7227,Lo,,,,,,5,,,,,,,,low,30,0,30,0,1,,,,,,,,,
292540,2022-12-05_10h23.35.276,vts_reward_expectancy_bt,2022.2.4,Win32,145.0957632,Chrome,1536,864,,,,,0,1378,,,,,,,,,,,,,,,,,S,146,star,1,0,,,,,,,,,,,,,,,,repeat,number,numRpt,j,0.6804,Hi,,,,,,5,,,,,,,,low,31,0,31,0,1,,,,,,,,,
292540,2022-12-05_10h23.35.276,vts_reward_expectancy_bt,2022.2.4,Win32,145.0957632,Chrome,1536,864,,,,,0,1378,,,,,,,,,,,,,,,,,S,125,circle,1,0,,,,,,,,,,,,,,,,repeat,number,numRpt,j,0.6382,Hi,,,,,,6,,,,,,space,0.7439,low,0,0,0,0,1,,,,,,,,,
292540,2022-12-05_10h23.35.276,vts_reward_expectancy_bt,2022.2.4,Win32,145.0957632,Chrome,1536,864,,,,,1,1379,,,,,,,,,,,,,,,,,D,132,hexagon,1,0,,,,,,,,,,,,,,,,repeat,number,numRpt,j,0.535,Lo,,,,,,6,,,,,,,,low,1,0,1,0,1,,,,,,,,,
292540,2022-12-05_10h23.35.276,vts_reward_expectancy_bt,2022.2.4,Win32,145.0957632,Chrome,1536,864,,,,,0,1379,,,,,,,,,,,,,,,,,W,160,star,1,0,,,,,,,,,,,,,,,,repeat,number,numRpt,k,0.6819,Hi,,,,,,6,,,,,,,,low,2,0,2,0,1,,,,,,,,,
292540,2022-12-05_10h23.35.276,vts_reward_expectancy_bt,2022.2.4,Win32,145.0957632,Chrome,1536,864,,,,,1,1380,,,,,,,,,,,,,,,,,U,139,triangle,1,0,,,,,,,,,,,,,,,,switch,letter,lettSwt,f,0.4658,Lo,,,,,,6,,,,,,,,low,3,0,3,0,1,,,,,,,,,
292540,2022-12-05_10h23.35.276,vts_reward_expectancy_bt,2022.2.4,Win32,145.0957632,Chrome,1536,864,,,,,0,1380,,,,,,,,,,,,,,,,,F,181,circle,1,0,,,,,,,,,,,,,,,,repeat,letter,lettRpt,d,0.647,Hi,,,,,,6,,,,,,,,low,4,0,4,0,1,,,,,,,,,
292540,2022-12-05_10h23.35.276,vts_reward_expectancy_bt,2022.2.4,Win32,145.0957632,Chrome,1536,864,,,,,10,1390,,,,,,,,,,,,,,,,,Y,174,hexagon,1,0,,,,,,,,,,,,,,,,repeat,letter,lettRpt,f,0.5967,Lo,,,,,,6,,,,,,,,low,5,0,5,0,1,,,,,,,,,
292540,2022-12-05_10h23.35.276,vts_reward_expectancy_bt,2022.2.4,Win32,145.0957632,Chrome,1536,864,,,,,10,1400,,,,,,,,,,,,,,,,,H,167,star,1,0,,,,,,,,,,,,,,,,repeat,letter,lettRpt,d,0.5446,Hi,,,,,,6,,,,,,,,low,6,0,6,0,1,,,,,,,,,
292540,2022-12-05_10h23.35.276,vts_reward_expectancy_bt,2022.2.4,Win32,145.0957632,Chrome,1536,864,,,,,1,1401,,,,,,,,,,,,,,,,,B,146,triangle,1,0,,,,,,,,,,,,,,,,repeat,letter,lettRpt,d,0.6247,Lo,,,,,,6,,,,,,,,low,7,0,7,0,1,,,,,,,,,
