participant,date,expName,psychopyVersion,OS,frameRate,browser,xResolution,yResolution,key_resp.keys,key_resp.rt,training_resp.keys,training_resp.rt,points_trial,points_cumul,trainBlock,training.thisRepN,training.thisTrialN,training.thisN,training.thisIndex,training.ran,LTriangleOpac,LCircleOpac,LHexagonOpac,LStarOpac,RTriangleOpac,RCircleOpac,RHexagonOpac,RStarOpac,LShape_ID,RShape_ID,curr_topStim,curr_bottStim,curr_shape,acc,E1,target_resp_prac1.keys,target_resp_prac1.rt,pracBlock,task1_prac_trials.thisRepN,task1_prac_trials.thisTrialN,task1_prac_trials.thisN,task1_prac_trials.thisIndex,task1_prac_trials.ran,target_resp_prac2.keys,target_resp_prac2.rt,task2_praac_trials.thisRepN,task2_praac_trials.thisTrialN,task2_praac_trials.thisN,task2_praac_trials.thisIndex,task2_praac_trials.ran,alt,task,condition,target_resp.keys,target_resp.rt,rewCond,vts_practice_trials.thisRepN,vts_practice_trials.thisTrialN,vts_practice_trials.thisN,vts_practice_trials.thisIndex,vts_practice_trials.ran,blockNum,trials_norew.thisRepN,trials_norew.thisTrialN,trials_norew.thisN,trials_norew.thisIndex,trials_norew.ran,key_resp_2.keys,key_resp_2.rt,rewExpectancy,trials_rew.thisRepN,trials_rew.thisTrialN,trials_rew.thisN,trials_rew.thisIndex,trials_rew.ran,Q1,Q2,Q2_text,Q3,Q4,Q5_text,Q5,xRes,yRes
292501,2022-12-04_06h43.58.425,vts_reward_expectancy_bt,2022.2.4,Win32,145.0326323,Chrome,1122,631,,,,,,,,,,,,,,,,,,,,,,,,,,,,,,,,,,,,,,,,,,,,,,,,,,,,,,,,,,,,,,,,,,,,,,,,,,,,
292501,2022-12-04_06h43.58.425,vts_reward_expectancy_bt,2022.2.4,Win32,145.0326323,Chrome,1122,631,space,17.1744,,,,,,,,,,,,,,,,,,,,,,,,,,,,,,,,,,,,,,,,,,,,,,,,,,,,,,,,,,,,,,,,,,,,,,,,,,
292501,2022-12-04_06h43.58.425,vts_reward_expectancy_bt,2022.2.4,Win32,145.0326323,Chrome,1122,631,,,,,,,,,,,,,,,,,,,,,,,,,,,,,,,,,,,,,,,,,,,,,,,,,,,,,,,,,,,,,,,,,,,,,,,,,,,,
292501,2022-12-04_06h43.58.425,vts_reward_expectancy_bt,2022.2.4,Win32,145.0326323,Chrome,1122,631,,,l,1.9639,1,1,0,0,0,0,2,1,1,0,0,0,0,0,0,1,triangle,star,,,,,,,,,,,,,,,,,,,,,,,,,,,,,,,,,,,,,,,,,,,,,,,,,,,,,,
292501,2022-12-04_06h43.58.425,vts_reward_expectancy_bt,2022.2.4,Win32,145.0326323,Chrome,1122,631,,,a,1.497,10,11,0,0,1,1,1,1,1,0,0,0,0,0,1,0,triangle,hexagon,,,,,,,,,,,,,,,,,,,,,,,,,,,,,,,,,,,,,,,,,,,,,,,,,,,,,,
292501,2022-12-04_06h43.58.425,vts_reward_expectancy_bt,2022.2.4,Win32,145.0326323,Chrome,1122,631,,,l,21.2662,1,12,0,0,2,2,3,1,0,1,0,0,1,0,0,0,circle,triangle,,,,,,,,,,,,,,,,,,,,,,,,,,,,,,,,,,,,,,,,,,,,,,,,,,,,,,
292501,2022-12-04_06h43.58.425,vts_reward_expectancy_bt,2022.2.4,Win32,145.0326323,Chrome,1122,631,,,l,1.2577,1,13,0,0,3,3,9,1,0,0,0,1,1,0,0,0,star,triangle,,,,,,,,,,,,,,,,,,,,,,,,,,,,,,,,,,,,,,,,,,,,,,,,,,,,,,
292501,2022-12-04_06h43.58.425,vts_reward_expectancy_bt,2022.2.4,Win32,145.0326323,Chrome,1122,631,,,a,3.4672,10,23,0,0,4,4,0,1,1,0,0,0,0,1,0,0,triangle,circle,,,,,,,,,,,,,,,,,,,,,,,,,,,,,,,,,,,,,,,,,,,,,,,,,,,,,,
292501,2022-12-04_06h43.58.425,vts_reward_expectancy_bt,2022.2.4,Win32,145.0326323,Chrome,1122,631,,,l,2.8539,1,24,0,0,5,5,11,1,0,0,0,1,0,0,1,0,star,hexagon,,,,,,,,,,,,,,,,,,,,,,,,,,,,,,,,,,,,,,,,,,,,,,,,,,,,,,
292501,2022-12-04_06h43.58.425,vts_reward_expectancy_bt,2022.2.4,Win32,145.0326323,Chrome,1122,631,,,a,3.6009,10,34,0,0,6,6,5,1,0,1,0,0,0,0,0,1,circle,star,,,,,,,,,,,,,,,,,,,,,,,,,,,,,,,,,,,,,,,,,,,,,,,,,,,,,,
292501,2022-12-04_06h43.58.425,vts_reward_expectancy_bt,2022.2.4,Win32,145.0326323,Chrome,1122,631,,,a,2.91,1,35,0,0,7,7,8,1,0,0,1,0,0,0,0,1,hexagon,star,,,,,,,,,,,,,,,,,,,,,,,,,,,,,,,,,,,,,,,,,,,,,,,,,,,,,,
292501,2022-12-04_06h43.58.425,vts_reward_expectancy_bt,2022.2.4,Win32,145.0326323,Chrome,1122,631,,,l,3.1626,10,45,0,0,8,8,6,1,0,0,1,0,1,0,0,0,hexagon,triangle,,,,,,,,,,,,,,,,,,,,,,,,,,,,,,,,,,,,,,,,,,,,,,,,,,,,,,
292501,2022-12-04_06h43.58.425,vts_reward_expectancy_bt,2022.2.4,Win32,145.0326323,Chrome,1122,631,,,l,2.0479,10,55,0,0,9,9,10,1,0,0,0,1,0,1,0,0,star ,circle,,,,,,,,,,,,,,,,,,,,,,,,,,,,,,,,,,,,,,,,,,,,,,,,,,,,,,
292501,2022-12-04_06h43.58.425,vts_reward_expectancy_bt,2022.2.4,Win32,145.0326323,Chrome,1122,631,,,l,1.514,10,65,0,0,10,10,7,1,0,0,1,0,0,1,0,0,hexagon,circle,,,,,,,,,,,,,,,,,,,,,,,,,,,,,,,,,,,,,,,,,,,,,,,,,,,,,,
292501,2022-12-04_06h43.58.425,vts_reward_expectancy_bt,2022.2.4,Win32,145.0326323,Chrome,1122,631,,,a,1.4302,1,66,0,0,11,11,4,1,0,1,0,0,0,0,1,0,circle,hexagon,,,,,,,,,,,,,,,,,,,,,,,,,,,,,,,,,,,,,,,,,,,,,,,,,,,,,,
292501,2022-12-04_06h43.58.425,vts_reward_expectancy_bt,2022.2.4,Win32,145.0326323,Chrome,1122,631,,,l,1.6381,10,76,0,1,0,12,7,1,0,0,1,0,0,1,0,0,hexagon,circle,,,,,,,,,,,,,,,,,,,,,,,,,,,,,,,,,,,,,,,,,,,,,,,,,,,,,,
292501,2022-12-04_06h43.58.425,vts_reward_expectancy_bt,2022.2.4,Win32,145.0326323,Chrome,1122,631,,,a,1.6679,10,86,0,1,1,13,2,1,1,0,0,0,0,0,0,1,triangle,star,,,,,,,,,,,,,,,,,,,,,,,,,,,,,,,,,,,,,,,,,,,,,,,,,,,,,,
292501,2022-12-04_06h43.58.425,vts_reward_expectancy_bt,2022.2.4,Win32,145.0326323,Chrome,1122,631,,,a,2.2638,1,87,0,1,2,14,11,1,0,0,0,1,0,0,1,0,star,hexagon,,,,,,,,,,,,,,,,,,,,,,,,,,,,,,,,,,,,,,,,,,,,,,,,,,,,,,
292501,2022-12-04_06h43.58.425,vts_reward_expectancy_bt,2022.2.4,Win32,145.0326323,Chrome,1122,631,,,l,1.8614,1,88,0,1,3,15,4,1,0,1,0,0,0,0,1,0,circle,hexagon,,,,,,,,,,,,,,,,,,,,,,,,,,,,,,,,,,,,,,,,,,,,,,,,,,,,,,
292501,2022-12-04_06h43.58.425,vts_reward_expectancy_bt,2022.2.4,Win32,145.0326323,Chrome,1122,631,,,a,1.3476,10,98,0,1,4,16,5,1,0,1,0,0,0,0,0,1,circle,star,,,,,,,,,,,,,,,,,,,,,,,,,,,,,,,,,,,,,,,,,,,,,,,,,,,,,,
292501,2022-12-04_06h43.58.425,vts_reward_expectancy_bt,2022.2.4,Win32,145.0326323,Chrome,1122,631,,,l,1.9233,1,99,0,1,5,17,8,1,0,0,1,0,0,0,0,1,hexagon,star,,,,,,,,,,,,,,,,,,,,,,,,,,,,,,,,,,,,,,,,,,,,,,,,,,,,,,
292501,2022-12-04_06h43.58.425,vts_reward_expectancy_bt,2022.2.4,Win32,145.0326323,Chrome,1122,631,,,l,2.1024,1,100,0,1,6,18,9,1,0,0,0,1,1,0,0,0,star,triangle,,,,,,,,,,,,,,,,,,,,,,,,,,,,,,,,,,,,,,,,,,,,,,,,,,,,,,
292501,2022-12-04_06h43.58.425,vts_reward_expectancy_bt,2022.2.4,Win32,145.0326323,Chrome,1122,631,,,l,1.2307,1,101,0,1,7,19,1,1,1,0,0,0,0,0,1,0,triangle,hexagon,,,,,,,,,,,,,,,,,,,,,,,,,,,,,,,,,,,,,,,,,,,,,,,,,,,,,,
292501,2022-12-04_06h43.58.425,vts_reward_expectancy_bt,2022.2.4,Win32,145.0326323,Chrome,1122,631,,,l,1.8252,10,111,0,1,8,20,0,1,1,0,0,0,0,1,0,0,triangle,circle,,,,,,,,,,,,,,,,,,,,,,,,,,,,,,,,,,,,,,,,,,,,,,,,,,,,,,
292501,2022-12-04_06h43.58.425,vts_reward_expectancy_bt,2022.2.4,Win32,145.0326323,Chrome,1122,631,,,a,1.7544,10,121,0,1,9,21,3,1,0,1,0,0,1,0,0,0,circle,triangle,,,,,,,,,,,,,,,,,,,,,,,,,,,,,,,,,,,,,,,,,,,,,,,,,,,,,,
292501,2022-12-04_06h43.58.425,vts_reward_expectancy_bt,2022.2.4,Win32,145.0326323,Chrome,1122,631,,,l,1.5528,1,122,0,1,10,22,10,1,0,0,0,1,0,1,0,0,star ,circle,,,,,,,,,,,,,,,,,,,,,,,,,,,,,,,,,,,,,,,,,,,,,,,,,,,,,,
292501,2022-12-04_06h43.58.425,vts_reward_expectancy_bt,2022.2.4,Win32,145.0326323,Chrome,1122,631,,,a,1.3917,1,123,0,1,11,23,6,1,0,0,1,0,1,0,0,0,hexagon,triangle,,,,,,,,,,,,,,,,,,,,,,,,,,,,,,,,,,,,,,,,,,,,,,,,,,,,,,
292501,2022-12-04_06h43.58.425,vts_reward_expectancy_bt,2022.2.4,Win32,145.0326323,Chrome,1122,631,,,l,1.3261,10,133,0,2,0,24,6,1,0,0,1,0,1,0,0,0,hexagon,triangle,,,,,,,,,,,,,,,,,,,,,,,,,,,,,,,,,,,,,,,,,,,,,,,,,,,,,,
292501,2022-12-04_06h43.58.425,vts_reward_expectancy_bt,2022.2.4,Win32,145.0326323,Chrome,1122,631,,,l,1.6195,10,143,0,2,1,25,0,1,1,0,0,0,0,1,0,0,triangle,circle,,,,,,,,,,,,,,,,,,,,,,,,,,,,,,,,,,,,,,,,,,,,,,,,,,,,,,
292501,2022-12-04_06h43.58.425,vts_reward_expectancy_bt,2022.2.4,Win32,145.0326323,Chrome,1122,631,,,l,1.3953,1,144,0,2,2,26,5,1,0,1,0,0,0,0,0,1,circle,star,,,,,,,,,,,,,,,,,,,,,,,,,,,,,,,,,,,,,,,,,,,,,,,,,,,,,,
292501,2022-12-04_06h43.58.425,vts_reward_expectancy_bt,2022.2.4,Win32,145.0326323,Chrome,1122,631,,,l,1.0647,10,154,0,2,3,27,2,1,1,0,0,0,0,0,0,1,triangle,star,,,,,,,,,,,,,,,,,,,,,,,,,,,,,,,,,,,,,,,,,,,,,,,,,,,,,,
292501,2022-12-04_06h43.58.425,vts_reward_expectancy_bt,2022.2.4,Win32,145.0326323,Chrome,1122,631,,,l,1.3684,1,155,0,2,4,28,10,1,0,0,0,1,0,1,0,0,star ,circle,,,,,,,,,,,,,,,,,,,,,,,,,,,,,,,,,,,,,,,,,,,,,,,,,,,,,,
292501,2022-12-04_06h43.58.425,vts_reward_expectancy_bt,2022.2.4,Win32,145.0326323,Chrome,1122,631,,,l,1.3822,10,165,0,2,5,29,7,1,0,0,1,0,0,1,0,0,hexagon,circle,,,,,,,,,,,,,,,,,,,,,,,,,,,,,,,,,,,,,,,,,,,,,,,,,,,,,,
292501,2022-12-04_06h43.58.425,vts_reward_expectancy_bt,2022.2.4,Win32,145.0326323,Chrome,1122,631,,,l,1.6469,10,175,0,2,6,30,9,1,0,0,0,1,1,0,0,0,star,triangle,,,,,,,,,,,,,,,,,,,,,,,,,,,,,,,,,,,,,,,,,,,,,,,,,,,,,,
292501,2022-12-04_06h43.58.425,vts_reward_expectancy_bt,2022.2.4,Win32,145.0326323,Chrome,1122,631,,,l,1.7643,1,176,0,2,7,31,1,1,1,0,0,0,0,0,1,0,triangle,hexagon,,,,,,,,,,,,,,,,,,,,,,,,,,,,,,,,,,,,,,,,,,,,,,,,,,,,,,
292501,2022-12-04_06h43.58.425,vts_reward_expectancy_bt,2022.2.4,Win32,145.0326323,Chrome,1122,631,,,a,1.6317,10,186,0,2,8,32,3,1,0,1,0,0,1,0,0,0,circle,triangle,,,,,,,,,,,,,,,,,,,,,,,,,,,,,,,,,,,,,,,,,,,,,,,,,,,,,,
292501,2022-12-04_06h43.58.425,vts_reward_expectancy_bt,2022.2.4,Win32,145.0326323,Chrome,1122,631,,,a,1.2591,10,196,0,2,9,33,4,1,0,1,0,0,0,0,1,0,circle,hexagon,,,,,,,,,,,,,,,,,,,,,,,,,,,,,,,,,,,,,,,,,,,,,,,,,,,,,,
292501,2022-12-04_06h43.58.425,vts_reward_expectancy_bt,2022.2.4,Win32,145.0326323,Chrome,1122,631,,,l,1.3478,10,206,0,2,10,34,8,1,0,0,1,0,0,0,0,1,hexagon,star,,,,,,,,,,,,,,,,,,,,,,,,,,,,,,,,,,,,,,,,,,,,,,,,,,,,,,
292501,2022-12-04_06h43.58.425,vts_reward_expectancy_bt,2022.2.4,Win32,145.0326323,Chrome,1122,631,,,a,1.5763,1,207,0,2,11,35,11,1,0,0,0,1,0,0,1,0,star,hexagon,,,,,,,,,,,,,,,,,,,,,,,,,,,,,,,,,,,,,,,,,,,,,,,,,,,,,,
292501,2022-12-04_06h43.58.425,vts_reward_expectancy_bt,2022.2.4,Win32,145.0326323,Chrome,1122,631,,,l,1.5482,1,208,1,0,0,0,7,1,0,0,1,0,0,1,0,0,hexagon,circle,,,,,,,,,,,,,,,,,,,,,,,,,,,,,,,,,,,,,,,,,,,,,,,,,,,,,,
292501,2022-12-04_06h43.58.425,vts_reward_expectancy_bt,2022.2.4,Win32,145.0326323,Chrome,1122,631,,,a,1.8363,1,209,1,0,1,1,11,1,0,0,0,1,0,0,1,0,star,hexagon,,,,,,,,,,,,,,,,,,,,,,,,,,,,,,,,,,,,,,,,,,,,,,,,,,,,,,
292501,2022-12-04_06h43.58.425,vts_reward_expectancy_bt,2022.2.4,Win32,145.0326323,Chrome,1122,631,,,l,1.2059,1,210,1,0,2,2,0,1,1,0,0,0,0,1,0,0,triangle,circle,,,,,,,,,,,,,,,,,,,,,,,,,,,,,,,,,,,,,,,,,,,,,,,,,,,,,,
292501,2022-12-04_06h43.58.425,vts_reward_expectancy_bt,2022.2.4,Win32,145.0326323,Chrome,1122,631,,,a,1.246,1,211,1,0,3,3,6,1,0,0,1,0,1,0,0,0,hexagon,triangle,,,,,,,,,,,,,,,,,,,,,,,,,,,,,,,,,,,,,,,,,,,,,,,,,,,,,,
292501,2022-12-04_06h43.58.425,vts_reward_expectancy_bt,2022.2.4,Win32,145.0326323,Chrome,1122,631,,,a,1.2821,1,212,1,0,4,4,1,1,1,0,0,0,0,0,1,0,triangle,hexagon,,,,,,,,,,,,,,,,,,,,,,,,,,,,,,,,,,,,,,,,,,,,,,,,,,,,,,
292501,2022-12-04_06h43.58.425,vts_reward_expectancy_bt,2022.2.4,Win32,145.0326323,Chrome,1122,631,,,a,1.6612,1,213,1,0,5,5,10,1,0,0,0,1,0,1,0,0,star ,circle,,,,,,,,,,,,,,,,,,,,,,,,,,,,,,,,,,,,,,,,,,,,,,,,,,,,,,
292501,2022-12-04_06h43.58.425,vts_reward_expectancy_bt,2022.2.4,Win32,145.0326323,Chrome,1122,631,,,l,1.5281,10,223,1,0,6,6,3,1,0,1,0,0,1,0,0,0,circle,triangle,,,,,,,,,,,,,,,,,,,,,,,,,,,,,,,,,,,,,,,,,,,,,,,,,,,,,,
292501,2022-12-04_06h43.58.425,vts_reward_expectancy_bt,2022.2.4,Win32,145.0326323,Chrome,1122,631,,,a,1.1467,10,233,1,0,7,7,2,1,1,0,0,0,0,0,0,1,triangle,star,,,,,,,,,,,,,,,,,,,,,,,,,,,,,,,,,,,,,,,,,,,,,,,,,,,,,,
292501,2022-12-04_06h43.58.425,vts_reward_expectancy_bt,2022.2.4,Win32,145.0326323,Chrome,1122,631,,,a,1.792,1,234,1,0,8,8,9,1,0,0,0,1,1,0,0,0,star,triangle,,,,,,,,,,,,,,,,,,,,,,,,,,,,,,,,,,,,,,,,,,,,,,,,,,,,,,
292501,2022-12-04_06h43.58.425,vts_reward_expectancy_bt,2022.2.4,Win32,145.0326323,Chrome,1122,631,,,l,1.2984,1,235,1,0,9,9,8,1,0,0,1,0,0,0,0,1,hexagon,star,,,,,,,,,,,,,,,,,,,,,,,,,,,,,,,,,,,,,,,,,,,,,,,,,,,,,,
292501,2022-12-04_06h43.58.425,vts_reward_expectancy_bt,2022.2.4,Win32,145.0326323,Chrome,1122,631,,,a,1.1431,10,245,1,0,10,10,5,1,0,1,0,0,0,0,0,1,circle,star,,,,,,,,,,,,,,,,,,,,,,,,,,,,,,,,,,,,,,,,,,,,,,,,,,,,,,
292501,2022-12-04_06h43.58.425,vts_reward_expectancy_bt,2022.2.4,Win32,145.0326323,Chrome,1122,631,,,a,1.528,10,255,1,0,11,11,4,1,0,1,0,0,0,0,1,0,circle,hexagon,,,,,,,,,,,,,,,,,,,,,,,,,,,,,,,,,,,,,,,,,,,,,,,,,,,,,,
292501,2022-12-04_06h43.58.425,vts_reward_expectancy_bt,2022.2.4,Win32,145.0326323,Chrome,1122,631,,,l,1.6037,10,265,1,1,0,12,9,1,0,0,0,1,1,0,0,0,star,triangle,,,,,,,,,,,,,,,,,,,,,,,,,,,,,,,,,,,,,,,,,,,,,,,,,,,,,,
292501,2022-12-04_06h43.58.425,vts_reward_expectancy_bt,2022.2.4,Win32,145.0326323,Chrome,1122,631,,,l,1.5971,10,275,1,1,1,13,7,1,0,0,1,0,0,1,0,0,hexagon,circle,,,,,,,,,,,,,,,,,,,,,,,,,,,,,,,,,,,,,,,,,,,,,,,,,,,,,,
292501,2022-12-04_06h43.58.425,vts_reward_expectancy_bt,2022.2.4,Win32,145.0326323,Chrome,1122,631,,,a,1.4435,10,285,1,1,2,14,2,1,1,0,0,0,0,0,0,1,triangle,star,,,,,,,,,,,,,,,,,,,,,,,,,,,,,,,,,,,,,,,,,,,,,,,,,,,,,,
292501,2022-12-04_06h43.58.425,vts_reward_expectancy_bt,2022.2.4,Win32,145.0326323,Chrome,1122,631,,,l,1.5847,1,286,1,1,3,15,11,1,0,0,0,1,0,0,1,0,star,hexagon,,,,,,,,,,,,,,,,,,,,,,,,,,,,,,,,,,,,,,,,,,,,,,,,,,,,,,
292501,2022-12-04_06h43.58.425,vts_reward_expectancy_bt,2022.2.4,Win32,145.0326323,Chrome,1122,631,,,a,1.6172,10,296,1,1,4,16,3,1,0,1,0,0,1,0,0,0,circle,triangle,,,,,,,,,,,,,,,,,,,,,,,,,,,,,,,,,,,,,,,,,,,,,,,,,,,,,,
292501,2022-12-04_06h43.58.425,vts_reward_expectancy_bt,2022.2.4,Win32,145.0326323,Chrome,1122,631,,,l,1.1612,1,297,1,1,5,17,10,1,0,0,0,1,0,1,0,0,star ,circle,,,,,,,,,,,,,,,,,,,,,,,,,,,,,,,,,,,,,,,,,,,,,,,,,,,,,,
292501,2022-12-04_06h43.58.425,vts_reward_expectancy_bt,2022.2.4,Win32,145.0326323,Chrome,1122,631,,,l,1.4453,10,307,1,1,6,18,0,1,1,0,0,0,0,1,0,0,triangle,circle,,,,,,,,,,,,,,,,,,,,,,,,,,,,,,,,,,,,,,,,,,,,,,,,,,,,,,
292501,2022-12-04_06h43.58.425,vts_reward_expectancy_bt,2022.2.4,Win32,145.0326323,Chrome,1122,631,,,l,1.6398,1,308,1,1,7,19,5,1,0,1,0,0,0,0,0,1,circle,star,,,,,,,,,,,,,,,,,,,,,,,,,,,,,,,,,,,,,,,,,,,,,,,,,,,,,,
292501,2022-12-04_06h43.58.425,vts_reward_expectancy_bt,2022.2.4,Win32,145.0326323,Chrome,1122,631,,,l,1.2387,1,309,1,1,8,20,4,1,0,1,0,0,0,0,1,0,circle,hexagon,,,,,,,,,,,,,,,,,,,,,,,,,,,,,,,,,,,,,,,,,,,,,,,,,,,,,,
292501,2022-12-04_06h43.58.425,vts_reward_expectancy_bt,2022.2.4,Win32,145.0326323,Chrome,1122,631,,,l,1.1326,1,310,1,1,9,21,8,1,0,0,1,0,0,0,0,1,hexagon,star,,,,,,,,,,,,,,,,,,,,,,,,,,,,,,,,,,,,,,,,,,,,,,,,,,,,,,
292501,2022-12-04_06h43.58.425,vts_reward_expectancy_bt,2022.2.4,Win32,145.0326323,Chrome,1122,631,,,a,1.2585,10,320,1,1,10,22,1,1,1,0,0,0,0,0,1,0,triangle,hexagon,,,,,,,,,,,,,,,,,,,,,,,,,,,,,,,,,,,,,,,,,,,,,,,,,,,,,,
292501,2022-12-04_06h43.58.425,vts_reward_expectancy_bt,2022.2.4,Win32,145.0326323,Chrome,1122,631,,,l,1.0693,10,330,1,1,11,23,6,1,0,0,1,0,1,0,0,0,hexagon,triangle,,,,,,,,,,,,,,,,,,,,,,,,,,,,,,,,,,,,,,,,,,,,,,,,,,,,,,
292501,2022-12-04_06h43.58.425,vts_reward_expectancy_bt,2022.2.4,Win32,145.0326323,Chrome,1122,631,,,l,1.3355,10,340,1,2,0,24,6,1,0,0,1,0,1,0,0,0,hexagon,triangle,,,,,,,,,,,,,,,,,,,,,,,,,,,,,,,,,,,,,,,,,,,,,,,,,,,,,,
292501,2022-12-04_06h43.58.425,vts_reward_expectancy_bt,2022.2.4,Win32,145.0326323,Chrome,1122,631,,,l,0.9927,10,350,1,2,1,25,9,1,0,0,0,1,1,0,0,0,star,triangle,,,,,,,,,,,,,,,,,,,,,,,,,,,,,,,,,,,,,,,,,,,,,,,,,,,,,,
292501,2022-12-04_06h43.58.425,vts_reward_expectancy_bt,2022.2.4,Win32,145.0326323,Chrome,1122,631,,,a,1.4543,10,360,1,2,2,26,1,1,1,0,0,0,0,0,1,0,triangle,hexagon,,,,,,,,,,,,,,,,,,,,,,,,,,,,,,,,,,,,,,,,,,,,,,,,,,,,,,
292501,2022-12-04_06h43.58.425,vts_reward_expectancy_bt,2022.2.4,Win32,145.0326323,Chrome,1122,631,,,a,1.7222,10,370,1,2,3,27,4,1,0,1,0,0,0,0,1,0,circle,hexagon,,,,,,,,,,,,,,,,,,,,,,,,,,,,,,,,,,,,,,,,,,,,,,,,,,,,,,
292501,2022-12-04_06h43.58.425,vts_reward_expectancy_bt,2022.2.4,Win32,145.0326323,Chrome,1122,631,,,a,1.8561,10,380,1,2,4,28,11,1,0,0,0,1,0,0,1,0,star,hexagon,,,,,,,,,,,,,,,,,,,,,,,,,,,,,,,,,,,,,,,,,,,,,,,,,,,,,,
292501,2022-12-04_06h43.58.425,vts_reward_expectancy_bt,2022.2.4,Win32,145.0326323,Chrome,1122,631,,,l,1.2438,1,381,1,2,5,29,8,1,0,0,1,0,0,0,0,1,hexagon,star,,,,,,,,,,,,,,,,,,,,,,,,,,,,,,,,,,,,,,,,,,,,,,,,,,,,,,
292501,2022-12-04_06h43.58.425,vts_reward_expectancy_bt,2022.2.4,Win32,145.0326323,Chrome,1122,631,,,a,1.1623,1,382,1,2,6,30,2,1,1,0,0,0,0,0,0,1,triangle,star,,,,,,,,,,,,,,,,,,,,,,,,,,,,,,,,,,,,,,,,,,,,,,,,,,,,,,
292501,2022-12-04_06h43.58.425,vts_reward_expectancy_bt,2022.2.4,Win32,145.0326323,Chrome,1122,631,,,l,1.2366,1,383,1,2,7,31,0,1,1,0,0,0,0,1,0,0,triangle,circle,,,,,,,,,,,,,,,,,,,,,,,,,,,,,,,,,,,,,,,,,,,,,,,,,,,,,,
292501,2022-12-04_06h43.58.425,vts_reward_expectancy_bt,2022.2.4,Win32,145.0326323,Chrome,1122,631,,,a,2.0164,10,393,1,2,8,32,5,1,0,1,0,0,0,0,0,1,circle,star,,,,,,,,,,,,,,,,,,,,,,,,,,,,,,,,,,,,,,,,,,,,,,,,,,,,,,
292501,2022-12-04_06h43.58.425,vts_reward_expectancy_bt,2022.2.4,Win32,145.0326323,Chrome,1122,631,,,l,1.0368,10,403,1,2,9,33,10,1,0,0,0,1,0,1,0,0,star ,circle,,,,,,,,,,,,,,,,,,,,,,,,,,,,,,,,,,,,,,,,,,,,,,,,,,,,,,
292501,2022-12-04_06h43.58.425,vts_reward_expectancy_bt,2022.2.4,Win32,145.0326323,Chrome,1122,631,,,l,1.0634,1,404,1,2,10,34,7,1,0,0,1,0,0,1,0,0,hexagon,circle,,,,,,,,,,,,,,,,,,,,,,,,,,,,,,,,,,,,,,,,,,,,,,,,,,,,,,
292501,2022-12-04_06h43.58.425,vts_reward_expectancy_bt,2022.2.4,Win32,145.0326323,Chrome,1122,631,,,a,2.1668,10,414,1,2,11,35,3,1,0,1,0,0,1,0,0,0,circle,triangle,,,,,,,,,,,,,,,,,,,,,,,,,,,,,,,,,,,,,,,,,,,,,,,,,,,,,,
292501,2022-12-04_06h43.58.425,vts_reward_expectancy_bt,2022.2.4,Win32,145.0326323,Chrome,1122,631,,,l,1.4064,10,424,2,0,0,0,7,1,0,0,1,0,0,1,0,0,hexagon,circle,,,,,,,,,,,,,,,,,,,,,,,,,,,,,,,,,,,,,,,,,,,,,,,,,,,,,,
292501,2022-12-04_06h43.58.425,vts_reward_expectancy_bt,2022.2.4,Win32,145.0326323,Chrome,1122,631,,,l,1.8125,1,425,2,0,1,1,4,1,0,1,0,0,0,0,1,0,circle,hexagon,,,,,,,,,,,,,,,,,,,,,,,,,,,,,,,,,,,,,,,,,,,,,,,,,,,,,,
292501,2022-12-04_06h43.58.425,vts_reward_expectancy_bt,2022.2.4,Win32,145.0326323,Chrome,1122,631,,,l,2.2764,10,435,2,0,2,2,0,1,1,0,0,0,0,1,0,0,triangle,circle,,,,,,,,,,,,,,,,,,,,,,,,,,,,,,,,,,,,,,,,,,,,,,,,,,,,,,
292501,2022-12-04_06h43.58.425,vts_reward_expectancy_bt,2022.2.4,Win32,145.0326323,Chrome,1122,631,,,l,2.4859,1,436,2,0,3,3,1,1,1,0,0,0,0,0,1,0,triangle,hexagon,,,,,,,,,,,,,,,,,,,,,,,,,,,,,,,,,,,,,,,,,,,,,,,,,,,,,,
292501,2022-12-04_06h43.58.425,vts_reward_expectancy_bt,2022.2.4,Win32,145.0326323,Chrome,1122,631,,,l,1.6528,10,446,2,0,4,4,6,1,0,0,1,0,1,0,0,0,hexagon,triangle,,,,,,,,,,,,,,,,,,,,,,,,,,,,,,,,,,,,,,,,,,,,,,,,,,,,,,
292501,2022-12-04_06h43.58.425,vts_reward_expectancy_bt,2022.2.4,Win32,145.0326323,Chrome,1122,631,,,a,1.7233,10,456,2,0,5,5,5,1,0,1,0,0,0,0,0,1,circle,star,,,,,,,,,,,,,,,,,,,,,,,,,,,,,,,,,,,,,,,,,,,,,,,,,,,,,,
292501,2022-12-04_06h43.58.425,vts_reward_expectancy_bt,2022.2.4,Win32,145.0326323,Chrome,1122,631,,,a,1.9252,10,466,2,0,6,6,11,1,0,0,0,1,0,0,1,0,star,hexagon,,,,,,,,,,,,,,,,,,,,,,,,,,,,,,,,,,,,,,,,,,,,,,,,,,,,,,
292501,2022-12-04_06h43.58.425,vts_reward_expectancy_bt,2022.2.4,Win32,145.0326323,Chrome,1122,631,,,l,1.4182,10,476,2,0,7,7,10,1,0,0,0,1,0,1,0,0,star ,circle,,,,,,,,,,,,,,,,,,,,,,,,,,,,,,,,,,,,,,,,,,,,,,,,,,,,,,
292501,2022-12-04_06h43.58.425,vts_reward_expectancy_bt,2022.2.4,Win32,145.0326323,Chrome,1122,631,,,l,1.6657,1,477,2,0,8,8,2,1,1,0,0,0,0,0,0,1,triangle,star,,,,,,,,,,,,,,,,,,,,,,,,,,,,,,,,,,,,,,,,,,,,,,,,,,,,,,
292501,2022-12-04_06h43.58.425,vts_reward_expectancy_bt,2022.2.4,Win32,145.0326323,Chrome,1122,631,,,l,1.103,1,478,2,0,9,9,9,1,0,0,0,1,1,0,0,0,star,triangle,,,,,,,,,,,,,,,,,,,,,,,,,,,,,,,,,,,,,,,,,,,,,,,,,,,,,,
292501,2022-12-04_06h43.58.425,vts_reward_expectancy_bt,2022.2.4,Win32,145.0326323,Chrome,1122,631,,,l,1.7778,1,479,2,0,10,10,8,1,0,0,1,0,0,0,0,1,hexagon,star,,,,,,,,,,,,,,,,,,,,,,,,,,,,,,,,,,,,,,,,,,,,,,,,,,,,,,
292501,2022-12-04_06h43.58.425,vts_reward_expectancy_bt,2022.2.4,Win32,145.0326323,Chrome,1122,631,,,a,1.7619,10,489,2,0,11,11,3,1,0,1,0,0,1,0,0,0,circle,triangle,,,,,,,,,,,,,,,,,,,,,,,,,,,,,,,,,,,,,,,,,,,,,,,,,,,,,,
292501,2022-12-04_06h43.58.425,vts_reward_expectancy_bt,2022.2.4,Win32,145.0326323,Chrome,1122,631,,,a,2.141,10,499,2,1,0,12,4,1,0,1,0,0,0,0,1,0,circle,hexagon,,,,,,,,,,,,,,,,,,,,,,,,,,,,,,,,,,,,,,,,,,,,,,,,,,,,,,
292501,2022-12-04_06h43.58.425,vts_reward_expectancy_bt,2022.2.4,Win32,145.0326323,Chrome,1122,631,,,a,2.0068,1,500,2,1,1,13,9,1,0,0,0,1,1,0,0,0,star,triangle,,,,,,,,,,,,,,,,,,,,,,,,,,,,,,,,,,,,,,,,,,,,,,,,,,,,,,
292501,2022-12-04_06h43.58.425,vts_reward_expectancy_bt,2022.2.4,Win32,145.0326323,Chrome,1122,631,,,l,2.0301,1,501,2,1,2,14,8,1,0,0,1,0,0,0,0,1,hexagon,star,,,,,,,,,,,,,,,,,,,,,,,,,,,,,,,,,,,,,,,,,,,,,,,,,,,,,,
292501,2022-12-04_06h43.58.425,vts_reward_expectancy_bt,2022.2.4,Win32,145.0326323,Chrome,1122,631,,,a,2.6125,10,511,2,1,3,15,2,1,1,0,0,0,0,0,0,1,triangle,star,,,,,,,,,,,,,,,,,,,,,,,,,,,,,,,,,,,,,,,,,,,,,,,,,,,,,,
292501,2022-12-04_06h43.58.425,vts_reward_expectancy_bt,2022.2.4,Win32,145.0326323,Chrome,1122,631,,,a,1.3678,10,521,2,1,4,16,5,1,0,1,0,0,0,0,0,1,circle,star,,,,,,,,,,,,,,,,,,,,,,,,,,,,,,,,,,,,,,,,,,,,,,,,,,,,,,
292501,2022-12-04_06h43.58.425,vts_reward_expectancy_bt,2022.2.4,Win32,145.0326323,Chrome,1122,631,,,l,1.1586,1,522,2,1,5,17,0,1,1,0,0,0,0,1,0,0,triangle,circle,,,,,,,,,,,,,,,,,,,,,,,,,,,,,,,,,,,,,,,,,,,,,,,,,,,,,,
292501,2022-12-04_06h43.58.425,vts_reward_expectancy_bt,2022.2.4,Win32,145.0326323,Chrome,1122,631,,,l,1.1556,10,532,2,1,6,18,1,1,1,0,0,0,0,0,1,0,triangle,hexagon,,,,,,,,,,,,,,,,,,,,,,,,,,,,,,,,,,,,,,,,,,,,,,,,,,,,,,
292501,2022-12-04_06h43.58.425,vts_reward_expectancy_bt,2022.2.4,Win32,145.0326323,Chrome,1122,631,,,l,1.2256,1,533,2,1,7,19,10,1,0,0,0,1,0,1,0,0,star ,circle,,,,,,,,,,,,,,,,,,,,,,,,,,,,,,,,,,,,,,,,,,,,,,,,,,,,,,
292501,2022-12-04_06h43.58.425,vts_reward_expectancy_bt,2022.2.4,Win32,145.0326323,Chrome,1122,631,,,a,0.863,10,543,2,1,8,20,3,1,0,1,0,0,1,0,0,0,circle,triangle,,,,,,,,,,,,,,,,,,,,,,,,,,,,,,,,,,,,,,,,,,,,,,,,,,,,,,
292501,2022-12-04_06h43.58.425,vts_reward_expectancy_bt,2022.2.4,Win32,145.0326323,Chrome,1122,631,,,l,0.4136,10,553,2,1,9,21,6,1,0,0,1,0,1,0,0,0,hexagon,triangle,,,,,,,,,,,,,,,,,,,,,,,,,,,,,,,,,,,,,,,,,,,,,,,,,,,,,,
292501,2022-12-04_06h43.58.425,vts_reward_expectancy_bt,2022.2.4,Win32,145.0326323,Chrome,1122,631,,,l,0.2919,1,554,2,1,10,22,11,1,0,0,0,1,0,0,1,0,star,hexagon,,,,,,,,,,,,,,,,,,,,,,,,,,,,,,,,,,,,,,,,,,,,,,,,,,,,,,
292501,2022-12-04_06h43.58.425,vts_reward_expectancy_bt,2022.2.4,Win32,145.0326323,Chrome,1122,631,,,l,0.5485,10,564,2,1,11,23,7,1,0,0,1,0,0,1,0,0,hexagon,circle,,,,,,,,,,,,,,,,,,,,,,,,,,,,,,,,,,,,,,,,,,,,,,,,,,,,,,
292501,2022-12-04_06h43.58.425,vts_reward_expectancy_bt,2022.2.4,Win32,145.0326323,Chrome,1122,631,,,a,0.2378,10,574,2,2,0,24,1,1,1,0,0,0,0,0,1,0,triangle,hexagon,,,,,,,,,,,,,,,,,,,,,,,,,,,,,,,,,,,,,,,,,,,,,,,,,,,,,,
292501,2022-12-04_06h43.58.425,vts_reward_expectancy_bt,2022.2.4,Win32,145.0326323,Chrome,1122,631,,,l,0.4657,10,584,2,2,1,25,6,1,0,0,1,0,1,0,0,0,hexagon,triangle,,,,,,,,,,,,,,,,,,,,,,,,,,,,,,,,,,,,,,,,,,,,,,,,,,,,,,
292501,2022-12-04_06h43.58.425,vts_reward_expectancy_bt,2022.2.4,Win32,145.0326323,Chrome,1122,631,,,a,0.4169,10,594,2,2,2,26,0,1,1,0,0,0,0,1,0,0,triangle,circle,,,,,,,,,,,,,,,,,,,,,,,,,,,,,,,,,,,,,,,,,,,,,,,,,,,,,,
292501,2022-12-04_06h43.58.425,vts_reward_expectancy_bt,2022.2.4,Win32,145.0326323,Chrome,1122,631,,,a,0.4116,10,604,2,2,3,27,3,1,0,1,0,0,1,0,0,0,circle,triangle,,,,,,,,,,,,,,,,,,,,,,,,,,,,,,,,,,,,,,,,,,,,,,,,,,,,,,
292501,2022-12-04_06h43.58.425,vts_reward_expectancy_bt,2022.2.4,Win32,145.0326323,Chrome,1122,631,,,a,0.4307,1,605,2,2,4,28,9,1,0,0,0,1,1,0,0,0,star,triangle,,,,,,,,,,,,,,,,,,,,,,,,,,,,,,,,,,,,,,,,,,,,,,,,,,,,,,
292501,2022-12-04_06h43.58.425,vts_reward_expectancy_bt,2022.2.4,Win32,145.0326323,Chrome,1122,631,,,a,0.2721,1,606,2,2,5,29,4,1,0,1,0,0,0,0,1,0,circle,hexagon,,,,,,,,,,,,,,,,,,,,,,,,,,,,,,,,,,,,,,,,,,,,,,,,,,,,,,
292501,2022-12-04_06h43.58.425,vts_reward_expectancy_bt,2022.2.4,Win32,145.0326323,Chrome,1122,631,,,a,0.4655,1,607,2,2,6,30,10,1,0,0,0,1,0,1,0,0,star ,circle,,,,,,,,,,,,,,,,,,,,,,,,,,,,,,,,,,,,,,,,,,,,,,,,,,,,,,
292501,2022-12-04_06h43.58.425,vts_reward_expectancy_bt,2022.2.4,Win32,145.0326323,Chrome,1122,631,,,a,0.4242,10,617,2,2,7,31,2,1,1,0,0,0,0,0,0,1,triangle,star,,,,,,,,,,,,,,,,,,,,,,,,,,,,,,,,,,,,,,,,,,,,,,,,,,,,,,
292501,2022-12-04_06h43.58.425,vts_reward_expectancy_bt,2022.2.4,Win32,145.0326323,Chrome,1122,631,,,a,0.3063,10,627,2,2,8,32,8,1,0,0,1,0,0,0,0,1,hexagon,star,,,,,,,,,,,,,,,,,,,,,,,,,,,,,,,,,,,,,,,,,,,,,,,,,,,,,,
292501,2022-12-04_06h43.58.425,vts_reward_expectancy_bt,2022.2.4,Win32,145.0326323,Chrome,1122,631,,,l,0.5443,10,637,2,2,9,33,11,1,0,0,0,1,0,0,1,0,star,hexagon,,,,,,,,,,,,,,,,,,,,,,,,,,,,,,,,,,,,,,,,,,,,,,,,,,,,,,
292501,2022-12-04_06h43.58.425,vts_reward_expectancy_bt,2022.2.4,Win32,145.0326323,Chrome,1122,631,,,a,0.3264,10,647,2,2,10,34,7,1,0,0,1,0,0,1,0,0,hexagon,circle,,,,,,,,,,,,,,,,,,,,,,,,,,,,,,,,,,,,,,,,,,,,,,,,,,,,,,
292501,2022-12-04_06h43.58.425,vts_reward_expectancy_bt,2022.2.4,Win32,145.0326323,Chrome,1122,631,,,a,0.7784,10,657,2,2,11,35,5,1,0,1,0,0,0,0,0,1,circle,star,,,,,,,,,,,,,,,,,,,,,,,,,,,,,,,,,,,,,,,,,,,,,,,,,,,,,,
292501,2022-12-04_06h43.58.425,vts_reward_expectancy_bt,2022.2.4,Win32,145.0326323,Chrome,1122,631,,,,,,,,,,,,,,,,,,,,,,,181,W,star,0,0,d,0.6841,0,0,0,0,0,1,,,,,,,,,,,,,,,,,,,,,,,,,,,,,,,,,,,,,,,,,
292501,2022-12-04_06h43.58.425,vts_reward_expectancy_bt,2022.2.4,Win32,145.0326323,Chrome,1122,631,,,,,,,,,,,,,,,,,,,,,,,139,Y,triangle,1,1,d,0.6511,0,1,0,1,0,1,,,,,,,,,,,,,,,,,,,,,,,,,,,,,,,,,,,,,,,,,
292501,2022-12-04_06h43.58.425,vts_reward_expectancy_bt,2022.2.4,Win32,145.0326323,Chrome,1122,631,,,,,,,,,,,,,,,,,,,,,,,160,B,hexagon,1,0,f,0.7617,0,2,0,2,0,1,,,,,,,,,,,,,,,,,,,,,,,,,,,,,,,,,,,,,,,,,
292501,2022-12-04_06h43.58.425,vts_reward_expectancy_bt,2022.2.4,Win32,145.0326323,Chrome,1122,631,,,,,,,,,,,,,,,,,,,,,,,146,D,circle,1,0,d,0.8166,0,3,0,3,0,1,,,,,,,,,,,,,,,,,,,,,,,,,,,,,,,,,,,,,,,,,
292501,2022-12-04_06h43.58.425,vts_reward_expectancy_bt,2022.2.4,Win32,145.0326323,Chrome,1122,631,,,,,,,,,,,,,,,,,,,,,,,132,U,star,1,0,d,0.6317,0,4,0,4,0,1,,,,,,,,,,,,,,,,,,,,,,,,,,,,,,,,,,,,,,,,,
292501,2022-12-04_06h43.58.425,vts_reward_expectancy_bt,2022.2.4,Win32,145.0326323,Chrome,1122,631,,,,,,,,,,,,,,,,,,,,,,,174,S,triangle,1,0,f,0.5488,0,5,0,5,0,1,,,,,,,,,,,,,,,,,,,,,,,,,,,,,,,,,,,,,,,,,
292501,2022-12-04_06h43.58.425,vts_reward_expectancy_bt,2022.2.4,Win32,145.0326323,Chrome,1122,631,,,,,,,,,,,,,,,,,,,,,,,167,H,hexagon,1,0,f,0.4725,0,6,0,6,0,1,,,,,,,,,,,,,,,,,,,,,,,,,,,,,,,,,,,,,,,,,
292501,2022-12-04_06h43.58.425,vts_reward_expectancy_bt,2022.2.4,Win32,145.0326323,Chrome,1122,631,,,,,,,,,,,,,,,,,,,,,,,125,F,circle,1,0,d,0.4764,0,7,0,7,0,1,,,,,,,,,,,,,,,,,,,,,,,,,,,,,,,,,,,,,,,,,
292501,2022-12-04_06h43.58.425,vts_reward_expectancy_bt,2022.2.4,Win32,145.0326323,Chrome,1122,631,,,,,,,,,,,,,,,,,,,,,,,181,W,triangle,1,0,f,0.5109,0,8,0,8,0,1,,,,,,,,,,,,,,,,,,,,,,,,,,,,,,,,,,,,,,,,,
292501,2022-12-04_06h43.58.425,vts_reward_expectancy_bt,2022.2.4,Win32,145.0326323,Chrome,1122,631,,,,,,,,,,,,,,,,,,,,,,,139,Y,hexagon,1,0,d,0.5698,0,9,0,9,0,1,,,,,,,,,,,,,,,,,,,,,,,,,,,,,,,,,,,,,,,,,
292501,2022-12-04_06h43.58.425,vts_reward_expectancy_bt,2022.2.4,Win32,145.0326323,Chrome,1122,631,,,,,,,,,,,,,,,,,,,,,,,160,B,triangle,1,0,,,1,,,,,,j,0.9966,0,0,0,0,1,,,,,,,,,,,,,,,,,,,,,,,,,,,,,,,,,,
292501,2022-12-04_06h43.58.425,vts_reward_expectancy_bt,2022.2.4,Win32,145.0326323,Chrome,1122,631,,,,,,,,,,,,,,,,,,,,,,,174,W,hexagon,1,0,,,1,,,,,,k,0.7727,1,0,1,0,1,,,,,,,,,,,,,,,,,,,,,,,,,,,,,,,,,,
292501,2022-12-04_06h43.58.425,vts_reward_expectancy_bt,2022.2.4,Win32,145.0326323,Chrome,1122,631,,,,,,,,,,,,,,,,,,,,,,,125,F,star,1,0,,,1,,,,,,j,0.8827,2,0,2,0,1,,,,,,,,,,,,,,,,,,,,,,,,,,,,,,,,,,
292501,2022-12-04_06h43.58.425,vts_reward_expectancy_bt,2022.2.4,Win32,145.0326323,Chrome,1122,631,,,,,,,,,,,,,,,,,,,,,,,132,D,circle,1,0,,,1,,,,,,j,0.5631,3,0,3,0,1,,,,,,,,,,,,,,,,,,,,,,,,,,,,,,,,,,
292501,2022-12-04_06h43.58.425,vts_reward_expectancy_bt,2022.2.4,Win32,145.0326323,Chrome,1122,631,,,,,,,,,,,,,,,,,,,,,,,181,H,triangle,1,0,,,1,,,,,,j,0.7154,4,0,4,0,1,,,,,,,,,,,,,,,,,,,,,,,,,,,,,,,,,,
292501,2022-12-04_06h43.58.425,vts_reward_expectancy_bt,2022.2.4,Win32,145.0326323,Chrome,1122,631,,,,,,,,,,,,,,,,,,,,,,,167,Y,hexagon,1,0,,,1,,,,,,k,0.674,5,0,5,0,1,,,,,,,,,,,,,,,,,,,,,,,,,,,,,,,,,,
292501,2022-12-04_06h43.58.425,vts_reward_expectancy_bt,2022.2.4,Win32,145.0326323,Chrome,1122,631,,,,,,,,,,,,,,,,,,,,,,,146,S,star,1,0,,,1,,,,,,k,1.1011,6,0,6,0,1,,,,,,,,,,,,,,,,,,,,,,,,,,,,,,,,,,
292501,2022-12-04_06h43.58.425,vts_reward_expectancy_bt,2022.2.4,Win32,145.0326323,Chrome,1122,631,,,,,,,,,,,,,,,,,,,,,,,139,U,circle,1,0,,,1,,,,,,k,0.5558,7,0,7,0,1,,,,,,,,,,,,,,,,,,,,,,,,,,,,,,,,,,
292501,2022-12-04_06h43.58.425,vts_reward_expectancy_bt,2022.2.4,Win32,145.0326323,Chrome,1122,631,,,,,,,,,,,,,,,,,,,,,,,160,B,circle,1,0,,,1,,,,,,j,0.6083,8,0,8,0,1,,,,,,,,,,,,,,,,,,,,,,,,,,,,,,,,,,
292501,2022-12-04_06h43.58.425,vts_reward_expectancy_bt,2022.2.4,Win32,145.0326323,Chrome,1122,631,,,,,,,,,,,,,,,,,,,,,,,174,W,hexagon,1,0,,,1,,,,,,k,0.5362,9,0,9,0,1,,,,,,,,,,,,,,,,,,,,,,,,,,,,,,,,,,
292501,2022-12-04_06h43.58.425,vts_reward_expectancy_bt,2022.2.4,Win32,145.0326323,Chrome,1122,631,,,,,0,657,,,,,,,,,,,,,,,,,125,S,star,1,0,,,2,,,,,,,,,,,,,-1,number,NA,d,2.7097,vtsPrac,0,0,0,0,1,,,,,,,,,,,,,,,,,,,,,,,
292501,2022-12-04_06h43.58.425,vts_reward_expectancy_bt,2022.2.4,Win32,145.0326323,Chrome,1122,631,,,,,0,657,,,,,,,,,,,,,,,,,167,D,circle,1,0,,,2,,,,,,,,,,,,,repeat,number,numRpt,f,0.9705,vtsPrac,1,0,1,0,1,,,,,,,,,,,,,,,,,,,,,,,
292501,2022-12-04_06h43.58.425,vts_reward_expectancy_bt,2022.2.4,Win32,145.0326323,Chrome,1122,631,,,,,0,657,,,,,,,,,,,,,,,,,181,F,star,1,0,,,2,,,,,,,,,,,,,switch,letter,lettSwt,j,0.6442,vtsPrac,2,0,2,0,1,,,,,,,,,,,,,,,,,,,,,,,
292501,2022-12-04_06h43.58.425,vts_reward_expectancy_bt,2022.2.4,Win32,145.0326323,Chrome,1122,631,,,,,0,657,,,,,,,,,,,,,,,,,160,B,circle,1,0,,,2,,,,,,,,,,,,,switch,number,numSwt,f,0.9168,vtsPrac,3,0,3,0,1,,,,,,,,,,,,,,,,,,,,,,,
292501,2022-12-04_06h43.58.425,vts_reward_expectancy_bt,2022.2.4,Win32,145.0326323,Chrome,1122,631,,,,,0,657,,,,,,,,,,,,,,,,,125,S,hexagon,1,0,,,2,,,,,,,,,,,,,switch,letter,lettSwt,k,0.8751,vtsPrac,4,0,4,0,1,,,,,,,,,,,,,,,,,,,,,,,
292501,2022-12-04_06h43.58.425,vts_reward_expectancy_bt,2022.2.4,Win32,145.0326323,Chrome,1122,631,,,,,0,657,,,,,,,,,,,,,,,,,167,D,circle,1,0,,,2,,,,,,,,,,,,,repeat,letter,lettRpt,j,0.7065,vtsPrac,5,0,5,0,1,,,,,,,,,,,,,,,,,,,,,,,
292501,2022-12-04_06h43.58.425,vts_reward_expectancy_bt,2022.2.4,Win32,145.0326323,Chrome,1122,631,,,,,0,657,,,,,,,,,,,,,,,,,181,F,circle,1,0,,,2,,,,,,,,,,,,,switch,number,numSwt,f,1.0478,vtsPrac,6,0,6,0,1,,,,,,,,,,,,,,,,,,,,,,,
292501,2022-12-04_06h43.58.425,vts_reward_expectancy_bt,2022.2.4,Win32,145.0326323,Chrome,1122,631,,,,,0,657,,,,,,,,,,,,,,,,,160,B,star,1,0,,,2,,,,,,,,,,,,,repeat,number,numRpt,f,0.7842,vtsPrac,7,0,7,0,1,,,,,,,,,,,,,,,,,,,,,,,
292501,2022-12-04_06h43.58.425,vts_reward_expectancy_bt,2022.2.4,Win32,145.0326323,Chrome,1122,631,,,,,0,657,,,,,,,,,,,,,,,,,181,S,star,1,0,,,2,,,,,,,,,,,,,switch,letter,lettSwt,k,0.9653,vtsPrac,8,0,8,0,1,,,,,,,,,,,,,,,,,,,,,,,
292501,2022-12-04_06h43.58.425,vts_reward_expectancy_bt,2022.2.4,Win32,145.0326323,Chrome,1122,631,,,,,0,657,,,,,,,,,,,,,,,,,167,D,triangle,1,0,,,2,,,,,,,,,,,,,repeat,letter,lettRpt,j,1.4155,vtsPrac,9,0,9,0,1,,,,,,,,,,,,,,,,,,,,,,,
292501,2022-12-04_06h43.58.425,vts_reward_expectancy_bt,2022.2.4,Win32,145.0326323,Chrome,1122,631,,,,,0,657,,,,,,,,,,,,,,,,,160,B,hexagon,1,0,,,2,,,,,,,,,,,,,switch,number,numSwt,f,0.5979,vtsPrac,10,0,10,0,1,,,,,,,,,,,,,,,,,,,,,,,
292501,2022-12-04_06h43.58.425,vts_reward_expectancy_bt,2022.2.4,Win32,145.0326323,Chrome,1122,631,,,,,0,657,,,,,,,,,,,,,,,,,132,F,triangle,1,0,,,2,,,,,,,,,,,,,repeat,number,numRpt,d,0.8325,vtsPrac,11,0,11,0,1,,,,,,,,,,,,,,,,,,,,,,,
292501,2022-12-04_06h43.58.425,vts_reward_expectancy_bt,2022.2.4,Win32,145.0326323,Chrome,1122,631,,,,,0,657,,,,,,,,,,,,,,,,,146,Y,circle,1,0,,,2,,,,,,,,,,,,,switch,letter,lettSwt,k,0.5476,vtsPrac,12,0,12,0,1,,,,,,,,,,,,,,,,,,,,,,,
292501,2022-12-04_06h43.58.425,vts_reward_expectancy_bt,2022.2.4,Win32,145.0326323,Chrome,1122,631,,,,,0,657,,,,,,,,,,,,,,,,,139,F,star,1,0,,,2,,,,,,,,,,,,,repeat,letter,lettRpt,j,0.7299,vtsPrac,13,0,13,0,1,,,,,,,,,,,,,,,,,,,,,,,
292501,2022-12-04_06h43.58.425,vts_reward_expectancy_bt,2022.2.4,Win32,145.0326323,Chrome,1122,631,,,,,0,657,,,,,,,,,,,,,,,,,132,D,circle,1,0,,,2,,,,,,,,,,,,,switch,number,numSwt,d,1.8749,vtsPrac,14,0,14,0,1,,,,,,,,,,,,,,,,,,,,,,,
292501,2022-12-04_06h43.58.425,vts_reward_expectancy_bt,2022.2.4,Win32,145.0326323,Chrome,1122,631,,,,,0,657,,,,,,,,,,,,,,,,,167,B,hexagon,1,0,,,2,,,,,,,,,,,,,repeat,number,numRpt,f,0.6952,vtsPrac,15,0,15,0,1,,,,,,,,,,,,,,,,,,,,,,,
292501,2022-12-04_06h43.58.425,vts_reward_expectancy_bt,2022.2.4,Win32,145.0326323,Chrome,1122,631,,,,,0,657,,,,,,,,,,,,,,,,,181,B,circle,1,0,,,2,,,,,,,,,,,,,switch,letter,lettSwt,j,0.5704,vtsPrac,16,0,16,0,1,,,,,,,,,,,,,,,,,,,,,,,
292501,2022-12-04_06h43.58.425,vts_reward_expectancy_bt,2022.2.4,Win32,145.0326323,Chrome,1122,631,,,,,0,657,,,,,,,,,,,,,,,,,132,D,triangle,1,0,,,2,,,,,,,,,,,,,repeat,letter,lettRpt,j,0.7316,vtsPrac,17,0,17,0,1,,,,,,,,,,,,,,,,,,,,,,,
292501,2022-12-04_06h43.58.425,vts_reward_expectancy_bt,2022.2.4,Win32,145.0326323,Chrome,1122,631,,,,,0,657,,,,,,,,,,,,,,,,,160,U,circle,1,0,,,2,,,,,,,,,,,,,switch,number,numSwt,f,0.7933,vtsPrac,18,0,18,0,1,,,,,,,,,,,,,,,,,,,,,,,
292501,2022-12-04_06h43.58.425,vts_reward_expectancy_bt,2022.2.4,Win32,145.0326323,Chrome,1122,631,,,,,0,657,,,,,,,,,,,,,,,,,125,S,star,1,0,,,2,,,,,,,,,,,,,repeat,number,numRpt,d,0.592,vtsPrac,19,0,19,0,1,,,,,,,,,,,,,,,,,,,,,,,
292501,2022-12-04_06h43.58.425,vts_reward_expectancy_bt,2022.2.4,Win32,145.0326323,Chrome,1122,631,,,,,0,657,,,,,,,,,,,,,,,,,125,B,circle,1,0,,,2,,,,,,,,,,,,,switch,letter,lettSwt,j,0.6355,vtsPrac,20,0,20,0,1,,,,,,,,,,,,,,,,,,,,,,,
292501,2022-12-04_06h43.58.425,vts_reward_expectancy_bt,2022.2.4,Win32,145.0326323,Chrome,1122,631,,,,,0,657,,,,,,,,,,,,,,,,,181,W,hexagon,1,0,,,2,,,,,,,,,,,,,repeat,letter,lettRpt,k,0.8544,vtsPrac,21,0,21,0,1,,,,,,,,,,,,,,,,,,,,,,,
292501,2022-12-04_06h43.58.425,vts_reward_expectancy_bt,2022.2.4,Win32,145.0326323,Chrome,1122,631,,,,,0,657,,,,,,,,,,,,,,,,,139,S,star,1,0,,,2,,,,,,,,,,,,,repeat,letter,lettRpt,k,0.6404,vtsPrac,22,0,22,0,1,,,,,,,,,,,,,,,,,,,,,,,
292501,2022-12-04_06h43.58.425,vts_reward_expectancy_bt,2022.2.4,Win32,145.0326323,Chrome,1122,631,,,,,0,657,,,,,,,,,,,,,,,,,174,F,triangle,1,0,,,2,,,,,,,,,,,,,repeat,letter,lettRpt,j,1.0924,vtsPrac,23,0,23,0,1,,,,,,,,,,,,,,,,,,,,,,,
292501,2022-12-04_06h43.58.425,vts_reward_expectancy_bt,2022.2.4,Win32,145.0326323,Chrome,1122,631,,,,,0,657,,,,,,,,,,,,,,,,,146,H,circle,1,0,,,2,,,,,,,,,,,,,repeat,letter,lettRpt,j,0.9535,vtsPrac,24,0,24,0,1,,,,,,,,,,,,,,,,,,,,,,,
292501,2022-12-04_06h43.58.425,vts_reward_expectancy_bt,2022.2.4,Win32,145.0326323,Chrome,1122,631,,,,,0,657,,,,,,,,,,,,,,,,,132,W,star,1,0,,,2,,,,,,,,,,,,,switch,number,numSwt,d,0.9864,vtsPrac,25,0,25,0,1,,,,,,,,,,,,,,,,,,,,,,,
292501,2022-12-04_06h43.58.425,vts_reward_expectancy_bt,2022.2.4,Win32,145.0326323,Chrome,1122,631,,,,,0,657,,,,,,,,,,,,,,,,,160,S,hexagon,1,0,,,2,,,,,,,,,,,,,repeat,number,numRpt,f,0.8447,vtsPrac,26,0,26,0,1,,,,,,,,,,,,,,,,,,,,,,,
292501,2022-12-04_06h43.58.425,vts_reward_expectancy_bt,2022.2.4,Win32,145.0326323,Chrome,1122,631,,,,,0,657,,,,,,,,,,,,,,,,,125,F,circle,1,0,,,2,,,,,,,,,,,,,repeat,number,numRpt,d,0.8209,vtsPrac,27,0,27,0,1,,,,,,,,,,,,,,,,,,,,,,,
292501,2022-12-04_06h43.58.425,vts_reward_expectancy_bt,2022.2.4,Win32,145.0326323,Chrome,1122,631,,,,,0,657,,,,,,,,,,,,,,,,,181,W,hexagon,1,0,,,2,,,,,,,,,,,,,repeat,number,numRpt,f,1.6809,vtsPrac,28,0,28,0,1,,,,,,,,,,,,,,,,,,,,,,,
292501,2022-12-04_06h43.58.425,vts_reward_expectancy_bt,2022.2.4,Win32,145.0326323,Chrome,1122,631,,,,,0,657,,,,,,,,,,,,,,,,,139,F,star,1,0,,,2,,,,,,,,,,,,,switch,letter,lettSwt,j,0.6962,vtsPrac,29,0,29,0,1,,,,,,,,,,,,,,,,,,,,,,,
292501,2022-12-04_06h43.58.425,vts_reward_expectancy_bt,2022.2.4,Win32,145.0326323,Chrome,1122,631,,,,,0,657,,,,,,,,,,,,,,,,,146,S,triangle,1,0,,,2,,,,,,,,,,,,,repeat,letter,lettRpt,k,0.7796,vtsPrac,30,0,30,0,1,,,,,,,,,,,,,,,,,,,,,,,
292501,2022-12-04_06h43.58.425,vts_reward_expectancy_bt,2022.2.4,Win32,145.0326323,Chrome,1122,631,,,,,0,657,,,,,,,,,,,,,,,,,125,U,hexagon,1,0,,,2,,,,,,,,,,,,,repeat,letter,lettRpt,k,0.5845,vtsPrac,31,0,31,0,1,,,,,,,,,,,,,,,,,,,,,,,
292501,2022-12-04_06h43.58.425,vts_reward_expectancy_bt,2022.2.4,Win32,145.0326323,Chrome,1122,631,,,,,,,,,,,,,,,,,,,,,,,,,,,,,,,,,,,,,,,,,,,,,,,,,,,,,,,,,,,,,,,,,,,,,,,,,,,,
292501,2022-12-04_06h43.58.425,vts_reward_expectancy_bt,2022.2.4,Win32,145.0326323,Chrome,1122,631,,,,,,,,,,,,,,,,,,,,,,,,,,,,,,,,,,,,,,,,,,,,,,,,,,,,,,,,,,,,,,,,,,,,,,,,,,,,
292501,2022-12-04_06h43.58.425,vts_reward_expectancy_bt,2022.2.4,Win32,145.0326323,Chrome,1122,631,,,,,0,657,,,,,,,,,,,,,,,,,181,U,hexagon,1,0,,,,,,,,,,,,,,,,switch,number,numSwt,f,0.8404,noRew,,,,,,0,0,0,0,0,1,,,,,,,,,,,,,,,,,
292501,2022-12-04_06h43.58.425,vts_reward_expectancy_bt,2022.2.4,Win32,145.0326323,Chrome,1122,631,,,,,0,657,,,,,,,,,,,,,,,,,167,H,triangle,1,0,,,,,,,,,,,,,,,,repeat,number,numRpt,f,0.8403,noRew,,,,,,0,1,0,1,0,1,,,,,,,,,,,,,,,,,
292501,2022-12-04_06h43.58.425,vts_reward_expectancy_bt,2022.2.4,Win32,145.0326323,Chrome,1122,631,,,,,0,657,,,,,,,,,,,,,,,,,160,F,hexagon,1,0,,,,,,,,,,,,,,,,repeat,number,numRpt,f,0.5138,noRew,,,,,,0,2,0,2,0,1,,,,,,,,,,,,,,,,,
292501,2022-12-04_06h43.58.425,vts_reward_expectancy_bt,2022.2.4,Win32,145.0326323,Chrome,1122,631,,,,,0,657,,,,,,,,,,,,,,,,,146,B,triangle,1,0,,,,,,,,,,,,,,,,switch,letter,lettSwt,j,0.7015,noRew,,,,,,0,3,0,3,0,1,,,,,,,,,,,,,,,,,
292501,2022-12-04_06h43.58.425,vts_reward_expectancy_bt,2022.2.4,Win32,145.0326323,Chrome,1122,631,,,,,0,657,,,,,,,,,,,,,,,,,181,U,circle,1,0,,,,,,,,,,,,,,,,switch,number,numSwt,f,1.2363,noRew,,,,,,0,4,0,4,0,1,,,,,,,,,,,,,,,,,
292501,2022-12-04_06h43.58.425,vts_reward_expectancy_bt,2022.2.4,Win32,145.0326323,Chrome,1122,631,,,,,0,657,,,,,,,,,,,,,,,,,167,H,hexagon,1,0,,,,,,,,,,,,,,,,switch,letter,lettSwt,j,0.7302,noRew,,,,,,0,5,0,5,0,1,,,,,,,,,,,,,,,,,
292501,2022-12-04_06h43.58.425,vts_reward_expectancy_bt,2022.2.4,Win32,145.0326323,Chrome,1122,631,,,,,0,657,,,,,,,,,,,,,,,,,160,F,hexagon,1,0,,,,,,,,,,,,,,,,repeat,letter,lettRpt,j,0.6217,noRew,,,,,,0,6,0,6,0,1,,,,,,,,,,,,,,,,,
292501,2022-12-04_06h43.58.425,vts_reward_expectancy_bt,2022.2.4,Win32,145.0326323,Chrome,1122,631,,,,,0,657,,,,,,,,,,,,,,,,,146,B,star,1,0,,,,,,,,,,,,,,,,repeat,letter,lettRpt,j,0.552,noRew,,,,,,0,7,0,7,0,1,,,,,,,,,,,,,,,,,
292501,2022-12-04_06h43.58.425,vts_reward_expectancy_bt,2022.2.4,Win32,145.0326323,Chrome,1122,631,,,,,0,657,,,,,,,,,,,,,,,,,132,S,hexagon,1,0,,,,,,,,,,,,,,,,repeat,letter,lettRpt,k,0.6738,noRew,,,,,,0,8,0,8,0,1,,,,,,,,,,,,,,,,,
292501,2022-12-04_06h43.58.425,vts_reward_expectancy_bt,2022.2.4,Win32,145.0326323,Chrome,1122,631,,,,,0,657,,,,,,,,,,,,,,,,,146,F,star,1,0,,,,,,,,,,,,,,,,switch,number,numSwt,d,1.2432,noRew,,,,,,0,9,0,9,0,1,,,,,,,,,,,,,,,,,
292501,2022-12-04_06h43.58.425,vts_reward_expectancy_bt,2022.2.4,Win32,145.0326323,Chrome,1122,631,,,,,0,657,,,,,,,,,,,,,,,,,167,D,circle,1,0,,,,,,,,,,,,,,,,switch,letter,lettSwt,j,0.6558,noRew,,,,,,0,10,0,10,0,1,,,,,,,,,,,,,,,,,
292501,2022-12-04_06h43.58.425,vts_reward_expectancy_bt,2022.2.4,Win32,145.0326323,Chrome,1122,631,,,,,0,657,,,,,,,,,,,,,,,,,125,Y,hexagon,1,0,,,,,,,,,,,,,,,,switch,number,numSwt,d,0.5282,noRew,,,,,,0,11,0,11,0,1,,,,,,,,,,,,,,,,,
292501,2022-12-04_06h43.58.425,vts_reward_expectancy_bt,2022.2.4,Win32,145.0326323,Chrome,1122,631,,,,,0,657,,,,,,,,,,,,,,,,,139,Y,triangle,1,0,,,,,,,,,,,,,,,,repeat,number,numRpt,d,0.8997,noRew,,,,,,0,12,0,12,0,1,,,,,,,,,,,,,,,,,
292501,2022-12-04_06h43.58.425,vts_reward_expectancy_bt,2022.2.4,Win32,145.0326323,Chrome,1122,631,,,,,0,657,,,,,,,,,,,,,,,,,132,U,circle,1,0,,,,,,,,,,,,,,,,switch,letter,lettSwt,k,1.3066,noRew,,,,,,0,13,0,13,0,1,,,,,,,,,,,,,,,,,
292501,2022-12-04_06h43.58.425,vts_reward_expectancy_bt,2022.2.4,Win32,145.0326323,Chrome,1122,631,,,,,0,657,,,,,,,,,,,,,,,,,125,B,hexagon,1,0,,,,,,,,,,,,,,,,repeat,letter,lettRpt,j,0.6324,noRew,,,,,,0,14,0,14,0,1,,,,,,,,,,,,,,,,,
292501,2022-12-04_06h43.58.425,vts_reward_expectancy_bt,2022.2.4,Win32,145.0326323,Chrome,1122,631,,,,,0,657,,,,,,,,,,,,,,,,,181,D,triangle,1,0,,,,,,,,,,,,,,,,switch,number,numSwt,f,0.6065,noRew,,,,,,0,15,0,15,0,1,,,,,,,,,,,,,,,,,
292501,2022-12-04_06h43.58.425,vts_reward_expectancy_bt,2022.2.4,Win32,145.0326323,Chrome,1122,631,,,,,0,657,,,,,,,,,,,,,,,,,139,H,circle,1,0,,,,,,,,,,,,,,,,repeat,number,numRpt,d,0.549,noRew,,,,,,0,16,0,16,0,1,,,,,,,,,,,,,,,,,
292501,2022-12-04_06h43.58.425,vts_reward_expectancy_bt,2022.2.4,Win32,145.0326323,Chrome,1122,631,,,,,0,657,,,,,,,,,,,,,,,,,146,S,hexagon,1,0,,,,,,,,,,,,,,,,switch,letter,lettSwt,k,0.5627,noRew,,,,,,0,17,0,17,0,1,,,,,,,,,,,,,,,,,
292501,2022-12-04_06h43.58.425,vts_reward_expectancy_bt,2022.2.4,Win32,145.0326323,Chrome,1122,631,,,,,0,657,,,,,,,,,,,,,,,,,160,B,circle,1,0,,,,,,,,,,,,,,,,repeat,letter,lettRpt,j,0.6891,noRew,,,,,,0,18,0,18,0,1,,,,,,,,,,,,,,,,,
292501,2022-12-04_06h43.58.425,vts_reward_expectancy_bt,2022.2.4,Win32,145.0326323,Chrome,1122,631,,,,,0,657,,,,,,,,,,,,,,,,,125,U,triangle,1,0,,,,,,,,,,,,,,,,repeat,letter,lettRpt,k,0.5872,noRew,,,,,,0,19,0,19,0,1,,,,,,,,,,,,,,,,,
292501,2022-12-04_06h43.58.425,vts_reward_expectancy_bt,2022.2.4,Win32,145.0326323,Chrome,1122,631,,,,,0,657,,,,,,,,,,,,,,,,,139,D,circle,1,0,,,,,,,,,,,,,,,,repeat,letter,lettRpt,j,0.7645,noRew,,,,,,0,20,0,20,0,1,,,,,,,,,,,,,,,,,
292501,2022-12-04_06h43.58.425,vts_reward_expectancy_bt,2022.2.4,Win32,145.0326323,Chrome,1122,631,,,,,0,657,,,,,,,,,,,,,,,,,174,S,star,1,0,,,,,,,,,,,,,,,,switch,number,numSwt,f,0.9032,noRew,,,,,,0,21,0,21,0,1,,,,,,,,,,,,,,,,,
292501,2022-12-04_06h43.58.425,vts_reward_expectancy_bt,2022.2.4,Win32,145.0326323,Chrome,1122,631,,,,,0,657,,,,,,,,,,,,,,,,,146,W,triangle,1,0,,,,,,,,,,,,,,,,repeat,number,numRpt,d,0.9391,noRew,,,,,,0,22,0,22,0,1,,,,,,,,,,,,,,,,,
292501,2022-12-04_06h43.58.425,vts_reward_expectancy_bt,2022.2.4,Win32,145.0326323,Chrome,1122,631,,,,,0,657,,,,,,,,,,,,,,,,,160,U,circle,1,0,,,,,,,,,,,,,,,,repeat,number,numRpt,f,0.9655,noRew,,,,,,0,23,0,23,0,1,,,,,,,,,,,,,,,,,
292501,2022-12-04_06h43.58.425,vts_reward_expectancy_bt,2022.2.4,Win32,145.0326323,Chrome,1122,631,,,,,0,657,,,,,,,,,,,,,,,,,181,Y,circle,1,0,,,,,,,,,,,,,,,,switch,letter,lettSwt,k,0.6684,noRew,,,,,,0,24,0,24,0,1,,,,,,,,,,,,,,,,,
292501,2022-12-04_06h43.58.425,vts_reward_expectancy_bt,2022.2.4,Win32,145.0326323,Chrome,1122,631,,,,,0,657,,,,,,,,,,,,,,,,,160,B,hexagon,1,0,,,,,,,,,,,,,,,,repeat,letter,lettRpt,j,0.6803,noRew,,,,,,0,25,0,25,0,1,,,,,,,,,,,,,,,,,
292501,2022-12-04_06h43.58.425,vts_reward_expectancy_bt,2022.2.4,Win32,145.0326323,Chrome,1122,631,,,,,0,657,,,,,,,,,,,,,,,,,174,S,circle,1,0,,,,,,,,,,,,,,,,repeat,letter,lettRpt,k,0.5774,noRew,,,,,,0,26,0,26,0,1,,,,,,,,,,,,,,,,,
292501,2022-12-04_06h43.58.425,vts_reward_expectancy_bt,2022.2.4,Win32,145.0326323,Chrome,1122,631,,,,,0,657,,,,,,,,,,,,,,,,,125,H,star,1,0,,,,,,,,,,,,,,,,switch,number,numSwt,d,0.7024,noRew,,,,,,0,27,0,27,0,1,,,,,,,,,,,,,,,,,
292501,2022-12-04_06h43.58.425,vts_reward_expectancy_bt,2022.2.4,Win32,145.0326323,Chrome,1122,631,,,,,0,657,,,,,,,,,,,,,,,,,146,S,circle,1,0,,,,,,,,,,,,,,,,switch,letter,lettSwt,k,0.7454,noRew,,,,,,0,28,0,28,0,1,,,,,,,,,,,,,,,,,
292501,2022-12-04_06h43.58.425,vts_reward_expectancy_bt,2022.2.4,Win32,145.0326323,Chrome,1122,631,,,,,0,657,,,,,,,,,,,,,,,,,174,D,triangle,1,0,,,,,,,,,,,,,,,,repeat,letter,lettRpt,j,0.7094,noRew,,,,,,0,29,0,29,0,1,,,,,,,,,,,,,,,,,
292501,2022-12-04_06h43.58.425,vts_reward_expectancy_bt,2022.2.4,Win32,145.0326323,Chrome,1122,631,,,,,0,657,,,,,,,,,,,,,,,,,139,B,triangle,1,0,,,,,,,,,,,,,,,,repeat,letter,lettRpt,j,0.6476,noRew,,,,,,0,30,0,30,0,1,,,,,,,,,,,,,,,,,
292501,2022-12-04_06h43.58.425,vts_reward_expectancy_bt,2022.2.4,Win32,145.0326323,Chrome,1122,631,,,,,0,657,,,,,,,,,,,,,,,,,125,W,hexagon,1,0,,,,,,,,,,,,,,,,switch,number,numSwt,d,0.8491,noRew,,,,,,0,31,0,31,0,1,,,,,,,,,,,,,,,,,
292501,2022-12-04_06h43.58.425,vts_reward_expectancy_bt,2022.2.4,Win32,145.0326323,Chrome,1122,631,,,,,0,657,,,,,,,,,,,,,,,,,132,Y,circle,1,0,,,,,,,,,,,,,,,,repeat,number,numRpt,d,0.8153,noRew,,,,,,0,32,0,32,0,1,,,,,,,,,,,,,,,,,
292501,2022-12-04_06h43.58.425,vts_reward_expectancy_bt,2022.2.4,Win32,145.0326323,Chrome,1122,631,,,,,0,657,,,,,,,,,,,,,,,,,139,S,star,1,0,,,,,,,,,,,,,,,,switch,letter,lettSwt,k,0.8239,noRew,,,,,,0,33,0,33,0,1,,,,,,,,,,,,,,,,,
292501,2022-12-04_06h43.58.425,vts_reward_expectancy_bt,2022.2.4,Win32,145.0326323,Chrome,1122,631,,,,,0,657,,,,,,,,,,,,,,,,,181,H,circle,1,0,,,,,,,,,,,,,,,,repeat,letter,lettRpt,j,0.7848,noRew,,,,,,0,34,0,34,0,1,,,,,,,,,,,,,,,,,
292501,2022-12-04_06h43.58.425,vts_reward_expectancy_bt,2022.2.4,Win32,145.0326323,Chrome,1122,631,,,,,0,657,,,,,,,,,,,,,,,,,160,W,hexagon,1,0,,,,,,,,,,,,,,,,switch,number,numSwt,f,0.6499,noRew,,,,,,0,35,0,35,0,1,,,,,,,,,,,,,,,,,
292501,2022-12-04_06h43.58.425,vts_reward_expectancy_bt,2022.2.4,Win32,145.0326323,Chrome,1122,631,,,,,0,657,,,,,,,,,,,,,,,,,181,S,circle,1,0,,,,,,,,,,,,,,,,switch,letter,lettSwt,k,0.6805,noRew,,,,,,0,36,0,36,0,1,,,,,,,,,,,,,,,,,
292501,2022-12-04_06h43.58.425,vts_reward_expectancy_bt,2022.2.4,Win32,145.0326323,Chrome,1122,631,,,,,0,657,,,,,,,,,,,,,,,,,174,H,hexagon,1,0,,,,,,,,,,,,,,,,switch,number,numSwt,f,1.0517,noRew,,,,,,0,37,0,37,0,1,,,,,,,,,,,,,,,,,
292501,2022-12-04_06h43.58.425,vts_reward_expectancy_bt,2022.2.4,Win32,145.0326323,Chrome,1122,631,,,,,0,657,,,,,,,,,,,,,,,,,146,Y,hexagon,1,0,,,,,,,,,,,,,,,,repeat,number,numRpt,d,1.5504,noRew,,,,,,0,38,0,38,0,1,,,,,,,,,,,,,,,,,
292501,2022-12-04_06h43.58.425,vts_reward_expectancy_bt,2022.2.4,Win32,145.0326323,Chrome,1122,631,,,,,0,657,,,,,,,,,,,,,,,,,132,B,circle,1,0,,,,,,,,,,,,,,,,switch,letter,lettSwt,j,1.4207,noRew,,,,,,0,39,0,39,0,1,,,,,,,,,,,,,,,,,
292501,2022-12-04_06h43.58.425,vts_reward_expectancy_bt,2022.2.4,Win32,145.0326323,Chrome,1122,631,,,,,0,657,,,,,,,,,,,,,,,,,146,F,triangle,1,0,,,,,,,,,,,,,,,,switch,number,numSwt,d,0.914,noRew,,,,,,0,40,0,40,0,1,,,,,,,,,,,,,,,,,
292501,2022-12-04_06h43.58.425,vts_reward_expectancy_bt,2022.2.4,Win32,145.0326323,Chrome,1122,631,,,,,0,657,,,,,,,,,,,,,,,,,160,D,hexagon,1,0,,,,,,,,,,,,,,,,switch,letter,lettSwt,j,0.9581,noRew,,,,,,0,41,0,41,0,1,,,,,,,,,,,,,,,,,
292501,2022-12-04_06h43.58.425,vts_reward_expectancy_bt,2022.2.4,Win32,145.0326323,Chrome,1122,631,,,,,0,657,,,,,,,,,,,,,,,,,132,Y,circle,1,0,,,,,,,,,,,,,,,,repeat,letter,lettRpt,k,1.6221,noRew,,,,,,0,42,0,42,0,1,,,,,,,,,,,,,,,,,
292501,2022-12-04_06h43.58.425,vts_reward_expectancy_bt,2022.2.4,Win32,145.0326323,Chrome,1122,631,,,,,0,657,,,,,,,,,,,,,,,,,125,S,star,1,0,,,,,,,,,,,,,,,,repeat,letter,lettRpt,k,0.7105,noRew,,,,,,0,43,0,43,0,1,,,,,,,,,,,,,,,,,
292501,2022-12-04_06h43.58.425,vts_reward_expectancy_bt,2022.2.4,Win32,145.0326323,Chrome,1122,631,,,,,0,657,,,,,,,,,,,,,,,,,146,F,triangle,1,0,,,,,,,,,,,,,,,,switch,number,numSwt,d,0.6458,noRew,,,,,,0,44,0,44,0,1,,,,,,,,,,,,,,,,,
292501,2022-12-04_06h43.58.425,vts_reward_expectancy_bt,2022.2.4,Win32,145.0326323,Chrome,1122,631,,,,,0,657,,,,,,,,,,,,,,,,,125,S,circle,1,0,,,,,,,,,,,,,,,,switch,letter,lettSwt,k,0.8695,noRew,,,,,,0,45,0,45,0,1,,,,,,,,,,,,,,,,,
292501,2022-12-04_06h43.58.425,vts_reward_expectancy_bt,2022.2.4,Win32,145.0326323,Chrome,1122,631,,,,,0,657,,,,,,,,,,,,,,,,,132,Y,triangle,1,0,,,,,,,,,,,,,,,,switch,number,numSwt,d,0.724,noRew,,,,,,0,46,0,46,0,1,,,,,,,,,,,,,,,,,
292501,2022-12-04_06h43.58.425,vts_reward_expectancy_bt,2022.2.4,Win32,145.0326323,Chrome,1122,631,,,,,0,657,,,,,,,,,,,,,,,,,181,W,hexagon,1,0,,,,,,,,,,,,,,,,repeat,number,numRpt,f,0.737,noRew,,,,,,0,47,0,47,0,1,,,,,,,,,,,,,,,,,
292501,2022-12-04_06h43.58.425,vts_reward_expectancy_bt,2022.2.4,Win32,145.0326323,Chrome,1122,631,,,,,0,657,,,,,,,,,,,,,,,,,139,W,circle,1,0,,,,,,,,,,,,,,,,switch,letter,lettSwt,k,0.8964,noRew,,,,,,0,48,0,48,0,1,,,,,,,,,,,,,,,,,
292501,2022-12-04_06h43.58.425,vts_reward_expectancy_bt,2022.2.4,Win32,145.0326323,Chrome,1122,631,,,,,0,657,,,,,,,,,,,,,,,,,181,S,star,1,0,,,,,,,,,,,,,,,,repeat,letter,lettRpt,k,0.4814,noRew,,,,,,0,49,0,49,0,1,,,,,,,,,,,,,,,,,
292501,2022-12-04_06h43.58.425,vts_reward_expectancy_bt,2022.2.4,Win32,145.0326323,Chrome,1122,631,,,,,0,657,,,,,,,,,,,,,,,,,174,U,circle,1,0,,,,,,,,,,,,,,,,repeat,letter,lettRpt,k,0.7436,noRew,,,,,,0,50,0,50,0,1,,,,,,,,,,,,,,,,,
292501,2022-12-04_06h43.58.425,vts_reward_expectancy_bt,2022.2.4,Win32,145.0326323,Chrome,1122,631,,,,,0,657,,,,,,,,,,,,,,,,,160,Y,star,1,0,,,,,,,,,,,,,,,,repeat,letter,lettRpt,k,0.972,noRew,,,,,,0,51,0,51,0,1,,,,,,,,,,,,,,,,,
292501,2022-12-04_06h43.58.425,vts_reward_expectancy_bt,2022.2.4,Win32,145.0326323,Chrome,1122,631,,,,,0,657,,,,,,,,,,,,,,,,,132,B,circle,1,0,,,,,,,,,,,,,,,,switch,number,numSwt,d,0.7802,noRew,,,,,,0,52,0,52,0,1,,,,,,,,,,,,,,,,,
292501,2022-12-04_06h43.58.425,vts_reward_expectancy_bt,2022.2.4,Win32,145.0326323,Chrome,1122,631,,,,,0,657,,,,,,,,,,,,,,,,,125,U,hexagon,1,0,,,,,,,,,,,,,,,,switch,letter,lettSwt,k,0.5432,noRew,,,,,,0,53,0,53,0,1,,,,,,,,,,,,,,,,,
292501,2022-12-04_06h43.58.425,vts_reward_expectancy_bt,2022.2.4,Win32,145.0326323,Chrome,1122,631,,,,,0,657,,,,,,,,,,,,,,,,,139,D,hexagon,1,0,,,,,,,,,,,,,,,,repeat,letter,lettRpt,j,0.5095,noRew,,,,,,0,54,0,54,0,1,,,,,,,,,,,,,,,,,
292501,2022-12-04_06h43.58.425,vts_reward_expectancy_bt,2022.2.4,Win32,145.0326323,Chrome,1122,631,,,,,0,657,,,,,,,,,,,,,,,,,181,S,star,1,0,,,,,,,,,,,,,,,,switch,number,numSwt,f,0.5624,noRew,,,,,,0,55,0,55,0,1,,,,,,,,,,,,,,,,,
292501,2022-12-04_06h43.58.425,vts_reward_expectancy_bt,2022.2.4,Win32,145.0326323,Chrome,1122,631,,,,,0,657,,,,,,,,,,,,,,,,,167,F,triangle,1,0,,,,,,,,,,,,,,,,repeat,number,numRpt,f,0.9377,noRew,,,,,,0,56,0,56,0,1,,,,,,,,,,,,,,,,,
292501,2022-12-04_06h43.58.425,vts_reward_expectancy_bt,2022.2.4,Win32,145.0326323,Chrome,1122,631,,,,,0,657,,,,,,,,,,,,,,,,,160,U,circle,1,0,,,,,,,,,,,,,,,,repeat,number,numRpt,f,0.7226,noRew,,,,,,0,57,0,57,0,1,,,,,,,,,,,,,,,,,
292501,2022-12-04_06h43.58.425,vts_reward_expectancy_bt,2022.2.4,Win32,145.0326323,Chrome,1122,631,,,,,0,657,,,,,,,,,,,,,,,,,181,B,circle,1,0,,,,,,,,,,,,,,,,repeat,number,numRpt,f,0.7964,noRew,,,,,,0,58,0,58,0,1,,,,,,,,,,,,,,,,,
292501,2022-12-04_06h43.58.425,vts_reward_expectancy_bt,2022.2.4,Win32,145.0326323,Chrome,1122,631,,,,,0,657,,,,,,,,,,,,,,,,,125,H,triangle,1,0,,,,,,,,,,,,,,,,repeat,number,numRpt,d,0.649,noRew,,,,,,0,59,0,59,0,1,,,,,,,,,,,,,,,,,
292501,2022-12-04_06h43.58.425,vts_reward_expectancy_bt,2022.2.4,Win32,145.0326323,Chrome,1122,631,,,,,0,657,,,,,,,,,,,,,,,,,160,B,hexagon,1,0,,,,,,,,,,,,,,,,repeat,number,numRpt,f,0.8823,noRew,,,,,,0,60,0,60,0,1,,,,,,,,,,,,,,,,,
292501,2022-12-04_06h43.58.425,vts_reward_expectancy_bt,2022.2.4,Win32,145.0326323,Chrome,1122,631,,,,,0,657,,,,,,,,,,,,,,,,,125,F,star,1,0,,,,,,,,,,,,,,,,switch,letter,lettSwt,j,0.6803,noRew,,,,,,0,61,0,61,0,1,,,,,,,,,,,,,,,,,
292501,2022-12-04_06h43.58.425,vts_reward_expectancy_bt,2022.2.4,Win32,145.0326323,Chrome,1122,631,,,,,0,657,,,,,,,,,,,,,,,,,132,D,hexagon,1,0,,,,,,,,,,,,,,,,repeat,letter,lettRpt,j,0.6433,noRew,,,,,,0,62,0,62,0,1,,,,,,,,,,,,,,,,,
292501,2022-12-04_06h43.58.425,vts_reward_expectancy_bt,2022.2.4,Win32,145.0326323,Chrome,1122,631,,,,,0,657,,,,,,,,,,,,,,,,,146,S,star,1,0,,,,,,,,,,,,,,,,repeat,letter,lettRpt,k,1.0991,noRew,,,,,,0,63,0,63,0,1,,,,,,,,,,,,,,,,,
292501,2022-12-04_06h43.58.425,vts_reward_expectancy_bt,2022.2.4,Win32,145.0326323,Chrome,1122,631,,,,,,,,,,,,,,,,,,,,,,,,,,,,,,,,,,,,,,,,,,,,,,,,,,,,,,,,,,,,,,,,,,,,,,,,,,,,
292501,2022-12-04_06h43.58.425,vts_reward_expectancy_bt,2022.2.4,Win32,145.0326323,Chrome,1122,631,,,,,1,658,,,,,,,,,,,,,,,,,181,F,hexagon,1,0,,,,,,,,,,,,,,,,switch,number,numSwt,f,1.6317,Lo,,,,,,0,,,,,,space,10.5971,high,0,0,0,0,1,,,,,,,,,
292501,2022-12-04_06h43.58.425,vts_reward_expectancy_bt,2022.2.4,Win32,145.0326323,Chrome,1122,631,,,,,1,659,,,,,,,,,,,,,,,,,146,H,star,1,0,,,,,,,,,,,,,,,,repeat,number,numRpt,d,0.5686,Lo,,,,,,0,,,,,,,,high,1,0,1,0,1,,,,,,,,,
292501,2022-12-04_06h43.58.425,vts_reward_expectancy_bt,2022.2.4,Win32,145.0326323,Chrome,1122,631,,,,,10,669,,,,,,,,,,,,,,,,,125,S,circle,1,0,,,,,,,,,,,,,,,,repeat,number,numRpt,d,0.4893,Hi,,,,,,0,,,,,,,,high,2,0,2,0,1,,,,,,,,,
292501,2022-12-04_06h43.58.425,vts_reward_expectancy_bt,2022.2.4,Win32,145.0326323,Chrome,1122,631,,,,,10,679,,,,,,,,,,,,,,,,,139,U,triangle,1,0,,,,,,,,,,,,,,,,repeat,number,numRpt,d,0.7132,Hi,,,,,,0,,,,,,,,high,3,0,3,0,1,,,,,,,,,
292501,2022-12-04_06h43.58.425,vts_reward_expectancy_bt,2022.2.4,Win32,145.0326323,Chrome,1122,631,,,,,1,680,,,,,,,,,,,,,,,,,132,Y,hexagon,1,0,,,,,,,,,,,,,,,,repeat,number,numRpt,d,0.6296,Lo,,,,,,0,,,,,,,,high,4,0,4,0,1,,,,,,,,,
292501,2022-12-04_06h43.58.425,vts_reward_expectancy_bt,2022.2.4,Win32,145.0326323,Chrome,1122,631,,,,,1,681,,,,,,,,,,,,,,,,,160,W,star,1,0,,,,,,,,,,,,,,,,repeat,number,numRpt,f,0.5405,Lo,,,,,,0,,,,,,,,high,5,0,5,0,1,,,,,,,,,
292501,2022-12-04_06h43.58.425,vts_reward_expectancy_bt,2022.2.4,Win32,145.0326323,Chrome,1122,631,,,,,1,682,,,,,,,,,,,,,,,,,167,B,circle,1,0,,,,,,,,,,,,,,,,repeat,number,numRpt,f,0.5295,Hi,,,,,,0,,,,,,,,high,6,0,6,0,1,,,,,,,,,
292501,2022-12-04_06h43.58.425,vts_reward_expectancy_bt,2022.2.4,Win32,145.0326323,Chrome,1122,631,,,,,10,692,,,,,,,,,,,,,,,,,174,D,triangle,1,0,,,,,,,,,,,,,,,,repeat,number,numRpt,f,0.4499,Hi,,,,,,0,,,,,,,,high,7,0,7,0,1,,,,,,,,,
292501,2022-12-04_06h43.58.425,vts_reward_expectancy_bt,2022.2.4,Win32,145.0326323,Chrome,1122,631,,,,,1,693,,,,,,,,,,,,,,,,,181,F,hexagon,1,0,,,,,,,,,,,,,,,,repeat,number,numRpt,f,0.5609,Lo,,,,,,0,,,,,,,,high,8,0,8,0,1,,,,,,,,,
292501,2022-12-04_06h43.58.425,vts_reward_expectancy_bt,2022.2.4,Win32,145.0326323,Chrome,1122,631,,,,,10,703,,,,,,,,,,,,,,,,,146,H,triangle,1,0,,,,,,,,,,,,,,,,switch,letter,lettSwt,j,0.5064,Hi,,,,,,0,,,,,,,,high,9,0,9,0,1,,,,,,,,,
292501,2022-12-04_06h43.58.425,vts_reward_expectancy_bt,2022.2.4,Win32,145.0326323,Chrome,1122,631,,,,,10,713,,,,,,,,,,,,,,,,,125,S,circle,1,0,,,,,,,,,,,,,,,,repeat,letter,lettRpt,k,0.4992,Hi,,,,,,0,,,,,,,,high,10,0,10,0,1,,,,,,,,,
292501,2022-12-04_06h43.58.425,vts_reward_expectancy_bt,2022.2.4,Win32,145.0326323,Chrome,1122,631,,,,,1,714,,,,,,,,,,,,,,,,,139,U,star,1,0,,,,,,,,,,,,,,,,repeat,letter,lettRpt,k,0.4723,Lo,,,,,,0,,,,,,,,high,11,0,11,0,1,,,,,,,,,
292501,2022-12-04_06h43.58.425,vts_reward_expectancy_bt,2022.2.4,Win32,145.0326323,Chrome,1122,631,,,,,10,724,,,,,,,,,,,,,,,,,132,Y,circle,1,0,,,,,,,,,,,,,,,,repeat,letter,lettRpt,k,0.5622,Hi,,,,,,0,,,,,,,,high,12,0,12,0,1,,,,,,,,,
292501,2022-12-04_06h43.58.425,vts_reward_expectancy_bt,2022.2.4,Win32,145.0326323,Chrome,1122,631,,,,,10,734,,,,,,,,,,,,,,,,,160,W,star,1,0,,,,,,,,,,,,,,,,repeat,letter,lettRpt,k,0.8261,Lo,,,,,,0,,,,,,,,high,13,0,13,0,1,,,,,,,,,
292501,2022-12-04_06h43.58.425,vts_reward_expectancy_bt,2022.2.4,Win32,145.0326323,Chrome,1122,631,,,,,1,735,,,,,,,,,,,,,,,,,167,B,hexagon,1,0,,,,,,,,,,,,,,,,repeat,letter,lettRpt,j,0.6596,Lo,,,,,,0,,,,,,,,high,14,0,14,0,1,,,,,,,,,
292501,2022-12-04_06h43.58.425,vts_reward_expectancy_bt,2022.2.4,Win32,145.0326323,Chrome,1122,631,,,,,10,745,,,,,,,,,,,,,,,,,174,D,triangle,1,0,,,,,,,,,,,,,,,,repeat,letter,lettRpt,j,0.6237,Hi,,,,,,0,,,,,,,,high,15,0,15,0,1,,,,,,,,,
292501,2022-12-04_06h43.58.425,vts_reward_expectancy_bt,2022.2.4,Win32,145.0326323,Chrome,1122,631,,,,,1,746,,,,,,,,,,,,,,,,,146,B,star,1,0,,,,,,,,,,,,,,,,repeat,letter,lettRpt,j,0.7285,Lo,,,,,,0,,,,,,,,high,16,0,16,0,1,,,,,,,,,
292501,2022-12-04_06h43.58.425,vts_reward_expectancy_bt,2022.2.4,Win32,145.0326323,Chrome,1122,631,,,,,10,756,,,,,,,,,,,,,,,,,160,W,hexagon,1,0,,,,,,,,,,,,,,,,repeat,letter,lettRpt,k,0.7908,Lo,,,,,,0,,,,,,,,high,17,0,17,0,1,,,,,,,,,
292501,2022-12-04_06h43.58.425,vts_reward_expectancy_bt,2022.2.4,Win32,145.0326323,Chrome,1122,631,,,,,10,766,,,,,,,,,,,,,,,,,139,D,circle,1,0,,,,,,,,,,,,,,,,repeat,letter,lettRpt,j,0.549,Hi,,,,,,0,,,,,,,,high,18,0,18,0,1,,,,,,,,,
292501,2022-12-04_06h43.58.425,vts_reward_expectancy_bt,2022.2.4,Win32,145.0326323,Chrome,1122,631,,,,,0,766,,,,,,,,,,,,,,,,,181,H,triangle,1,0,,,,,,,,,,,,,,,,repeat,letter,lettRpt,j,0.918,Hi,,,,,,0,,,,,,,,high,19,0,19,0,1,,,,,,,,,
292501,2022-12-04_06h43.58.425,vts_reward_expectancy_bt,2022.2.4,Win32,145.0326323,Chrome,1122,631,,,,,10,776,,,,,,,,,,,,,,,,,167,S,star,1,0,,,,,,,,,,,,,,,,repeat,letter,lettRpt,k,1.0778,Lo,,,,,,0,,,,,,,,high,20,0,20,0,1,,,,,,,,,
292501,2022-12-04_06h43.58.425,vts_reward_expectancy_bt,2022.2.4,Win32,145.0326323,Chrome,1122,631,,,,,1,777,,,,,,,,,,,,,,,,,125,F,hexagon,1,0,,,,,,,,,,,,,,,,repeat,letter,lettRpt,j,0.7138,Lo,,,,,,0,,,,,,,,high,21,0,21,0,1,,,,,,,,,
292501,2022-12-04_06h43.58.425,vts_reward_expectancy_bt,2022.2.4,Win32,145.0326323,Chrome,1122,631,,,,,10,787,,,,,,,,,,,,,,,,,174,Y,circle,1,0,,,,,,,,,,,,,,,,repeat,letter,lettRpt,k,0.5282,Hi,,,,,,0,,,,,,,,high,22,0,22,0,1,,,,,,,,,
292501,2022-12-04_06h43.58.425,vts_reward_expectancy_bt,2022.2.4,Win32,145.0326323,Chrome,1122,631,,,,,10,797,,,,,,,,,,,,,,,,,132,U,triangle,1,0,,,,,,,,,,,,,,,,repeat,letter,lettRpt,k,0.5225,Hi,,,,,,0,,,,,,,,high,23,0,23,0,1,,,,,,,,,
292501,2022-12-04_06h43.58.425,vts_reward_expectancy_bt,2022.2.4,Win32,145.0326323,Chrome,1122,631,,,,,1,798,,,,,,,,,,,,,,,,,167,F,star,1,0,,,,,,,,,,,,,,,,repeat,letter,lettRpt,j,0.5546,Lo,,,,,,0,,,,,,,,high,24,0,24,0,1,,,,,,,,,
292501,2022-12-04_06h43.58.425,vts_reward_expectancy_bt,2022.2.4,Win32,145.0326323,Chrome,1122,631,,,,,0,798,,,,,,,,,,,,,,,,,132,U,triangle,1,0,,,,,,,,,,,,,,,,repeat,letter,lettRpt,k,0.8912,Hi,,,,,,0,,,,,,,,high,25,0,25,0,1,,,,,,,,,
292501,2022-12-04_06h43.58.425,vts_reward_expectancy_bt,2022.2.4,Win32,145.0326323,Chrome,1122,631,,,,,1,799,,,,,,,,,,,,,,,,,174,W,circle,1,0,,,,,,,,,,,,,,,,repeat,letter,lettRpt,k,0.5375,Hi,,,,,,0,,,,,,,,high,26,0,26,0,1,,,,,,,,,
292501,2022-12-04_06h43.58.425,vts_reward_expectancy_bt,2022.2.4,Win32,145.0326323,Chrome,1122,631,,,,,1,800,,,,,,,,,,,,,,,,,181,B,hexagon,1,0,,,,,,,,,,,,,,,,repeat,letter,lettRpt,j,0.5333,Lo,,,,,,0,,,,,,,,high,27,0,27,0,1,,,,,,,,,
292501,2022-12-04_06h43.58.425,vts_reward_expectancy_bt,2022.2.4,Win32,145.0326323,Chrome,1122,631,,,,,0,800,,,,,,,,,,,,,,,,,125,Y,triangle,1,0,,,,,,,,,,,,,,,,repeat,letter,lettRpt,k,1.0685,Hi,,,,,,0,,,,,,,,high,28,0,28,0,1,,,,,,,,,
292501,2022-12-04_06h43.58.425,vts_reward_expectancy_bt,2022.2.4,Win32,145.0326323,Chrome,1122,631,,,,,1,801,,,,,,,,,,,,,,,,,139,H,star,1,0,,,,,,,,,,,,,,,,repeat,letter,lettRpt,j,0.6802,Lo,,,,,,0,,,,,,,,high,29,0,29,0,1,,,,,,,,,
292501,2022-12-04_06h43.58.425,vts_reward_expectancy_bt,2022.2.4,Win32,145.0326323,Chrome,1122,631,,,,,10,811,,,,,,,,,,,,,,,,,160,D,circle,1,0,,,,,,,,,,,,,,,,repeat,letter,lettRpt,j,0.5551,Hi,,,,,,0,,,,,,,,high,30,0,30,0,1,,,,,,,,,
292501,2022-12-04_06h43.58.425,vts_reward_expectancy_bt,2022.2.4,Win32,145.0326323,Chrome,1122,631,,,,,1,812,,,,,,,,,,,,,,,,,146,S,hexagon,1,0,,,,,,,,,,,,,,,,repeat,letter,lettRpt,k,0.5969,Lo,,,,,,0,,,,,,,,high,31,0,31,0,1,,,,,,,,,
292501,2022-12-04_06h43.58.425,vts_reward_expectancy_bt,2022.2.4,Win32,145.0326323,Chrome,1122,631,,,,,10,822,,,,,,,,,,,,,,,,,125,B,circle,1,0,,,,,,,,,,,,,,,,switch,number,numSwt,d,0.7011,Hi,,,,,,1,,,,,,space,1.8683,high,0,0,0,0,1,,,,,,,,,
292501,2022-12-04_06h43.58.425,vts_reward_expectancy_bt,2022.2.4,Win32,145.0326323,Chrome,1122,631,,,,,10,832,,,,,,,,,,,,,,,,,181,W,triangle,1,0,,,,,,,,,,,,,,,,repeat,number,numRpt,f,0.4919,Hi,,,,,,1,,,,,,,,high,1,0,1,0,1,,,,,,,,,
292501,2022-12-04_06h43.58.425,vts_reward_expectancy_bt,2022.2.4,Win32,145.0326323,Chrome,1122,631,,,,,10,842,,,,,,,,,,,,,,,,,167,F,hexagon,1,0,,,,,,,,,,,,,,,,repeat,number,numRpt,f,0.5958,Lo,,,,,,1,,,,,,,,high,2,0,2,0,1,,,,,,,,,
292501,2022-12-04_06h43.58.425,vts_reward_expectancy_bt,2022.2.4,Win32,145.0326323,Chrome,1122,631,,,,,10,852,,,,,,,,,,,,,,,,,146,S,star,1,0,,,,,,,,,,,,,,,,repeat,number,numRpt,d,0.7504,Lo,,,,,,1,,,,,,,,high,3,0,3,0,1,,,,,,,,,
292501,2022-12-04_06h43.58.425,vts_reward_expectancy_bt,2022.2.4,Win32,145.0326323,Chrome,1122,631,,,,,0,852,,,,,,,,,,,,,,,,,160,D,circle,0,0,,,,,,,,,,,,,,,,repeat,number,NA,d,0.7977,Lo,,,,,,1,,,,,,,,high,4,0,4,0,1,,,,,,,,,
292501,2022-12-04_06h43.58.425,vts_reward_expectancy_bt,2022.2.4,Win32,145.0326323,Chrome,1122,631,,,,,0,852,,,,,,,,,,,,,,,,,132,U,triangle,1,1,,,,,,,,,,,,,,,,repeat,number,numRpt,d,0.7073,Hi,,,,,,1,,,,,,,,high,5,0,5,0,1,,,,,,,,,
292501,2022-12-04_06h43.58.425,vts_reward_expectancy_bt,2022.2.4,Win32,145.0326323,Chrome,1122,631,,,,,1,853,,,,,,,,,,,,,,,,,174,Y,hexagon,1,0,,,,,,,,,,,,,,,,repeat,number,numRpt,f,0.4704,Lo,,,,,,1,,,,,,,,high,6,0,6,0,1,,,,,,,,,
292501,2022-12-04_06h43.58.425,vts_reward_expectancy_bt,2022.2.4,Win32,145.0326323,Chrome,1122,631,,,,,1,854,,,,,,,,,,,,,,,,,139,H,star,1,0,,,,,,,,,,,,,,,,repeat,number,numRpt,d,0.6246,Lo,,,,,,1,,,,,,,,high,7,0,7,0,1,,,,,,,,,
292501,2022-12-04_06h43.58.425,vts_reward_expectancy_bt,2022.2.4,Win32,145.0326323,Chrome,1122,631,,,,,1,855,,,,,,,,,,,,,,,,,125,B,hexagon,1,0,,,,,,,,,,,,,,,,repeat,number,numRpt,d,0.5394,Lo,,,,,,1,,,,,,,,high,8,0,8,0,1,,,,,,,,,
292501,2022-12-04_06h43.58.425,vts_reward_expectancy_bt,2022.2.4,Win32,145.0326323,Chrome,1122,631,,,,,1,856,,,,,,,,,,,,,,,,,181,W,star,1,0,,,,,,,,,,,,,,,,repeat,number,numRpt,f,1.0901,Lo,,,,,,1,,,,,,,,high,9,0,9,0,1,,,,,,,,,
292501,2022-12-04_06h43.58.425,vts_reward_expectancy_bt,2022.2.4,Win32,145.0326323,Chrome,1122,631,,,,,0,856,,,,,,,,,,,,,,,,,167,F,triangle,1,0,,,,,,,,,,,,,,,,repeat,number,numRpt,f,0.7499,Hi,,,,,,1,,,,,,,,high,10,0,10,0,1,,,,,,,,,
292501,2022-12-04_06h43.58.425,vts_reward_expectancy_bt,2022.2.4,Win32,145.0326323,Chrome,1122,631,,,,,0,856,,,,,,,,,,,,,,,,,146,S,circle,1,0,,,,,,,,,,,,,,,,repeat,number,numRpt,d,0.5392,Hi,,,,,,1,,,,,,,,high,11,0,11,0,1,,,,,,,,,
292501,2022-12-04_06h43.58.425,vts_reward_expectancy_bt,2022.2.4,Win32,145.0326323,Chrome,1122,631,,,,,10,866,,,,,,,,,,,,,,,,,160,D,triangle,1,0,,,,,,,,,,,,,,,,repeat,number,numRpt,f,0.466,Hi,,,,,,1,,,,,,,,high,12,0,12,0,1,,,,,,,,,
292501,2022-12-04_06h43.58.425,vts_reward_expectancy_bt,2022.2.4,Win32,145.0326323,Chrome,1122,631,,,,,1,867,,,,,,,,,,,,,,,,,132,U,hexagon,1,0,,,,,,,,,,,,,,,,repeat,number,numRpt,d,0.5156,Lo,,,,,,1,,,,,,,,high,13,0,13,0,1,,,,,,,,,
292501,2022-12-04_06h43.58.425,vts_reward_expectancy_bt,2022.2.4,Win32,145.0326323,Chrome,1122,631,,,,,10,877,,,,,,,,,,,,,,,,,174,Y,circle,1,0,,,,,,,,,,,,,,,,repeat,number,numRpt,f,0.4165,Hi,,,,,,1,,,,,,,,high,14,0,14,0,1,,,,,,,,,
292501,2022-12-04_06h43.58.425,vts_reward_expectancy_bt,2022.2.4,Win32,145.0326323,Chrome,1122,631,,,,,10,887,,,,,,,,,,,,,,,,,139,H,star,1,0,,,,,,,,,,,,,,,,repeat,number,numRpt,d,0.561,Lo,,,,,,1,,,,,,,,high,15,0,15,0,1,,,,,,,,,
292501,2022-12-04_06h43.58.425,vts_reward_expectancy_bt,2022.2.4,Win32,145.0326323,Chrome,1122,631,,,,,0,887,,,,,,,,,,,,,,,,,146,W,triangle,1,0,,,,,,,,,,,,,,,,repeat,number,numRpt,d,0.6815,Hi,,,,,,1,,,,,,,,high,16,0,16,0,1,,,,,,,,,
292501,2022-12-04_06h43.58.425,vts_reward_expectancy_bt,2022.2.4,Win32,145.0326323,Chrome,1122,631,,,,,1,888,,,,,,,,,,,,,,,,,181,F,star,1,0,,,,,,,,,,,,,,,,repeat,number,numRpt,f,0.4784,Lo,,,,,,1,,,,,,,,high,17,0,17,0,1,,,,,,,,,
292501,2022-12-04_06h43.58.425,vts_reward_expectancy_bt,2022.2.4,Win32,145.0326323,Chrome,1122,631,,,,,0,888,,,,,,,,,,,,,,,,,139,D,circle,1,0,,,,,,,,,,,,,,,,repeat,number,numRpt,d,0.5418,Hi,,,,,,1,,,,,,,,high,18,0,18,0,1,,,,,,,,,
292501,2022-12-04_06h43.58.425,vts_reward_expectancy_bt,2022.2.4,Win32,145.0326323,Chrome,1122,631,,,,,10,898,,,,,,,,,,,,,,,,,160,S,hexagon,1,0,,,,,,,,,,,,,,,,repeat,number,numRpt,f,0.4601,Lo,,,,,,1,,,,,,,,high,19,0,19,0,1,,,,,,,,,
292501,2022-12-04_06h43.58.425,vts_reward_expectancy_bt,2022.2.4,Win32,145.0326323,Chrome,1122,631,,,,,10,908,,,,,,,,,,,,,,,,,167,H,triangle,1,0,,,,,,,,,,,,,,,,repeat,number,numRpt,f,0.4804,Hi,,,,,,1,,,,,,,,high,20,0,20,0,1,,,,,,,,,
292501,2022-12-04_06h43.58.425,vts_reward_expectancy_bt,2022.2.4,Win32,145.0326323,Chrome,1122,631,,,,,1,909,,,,,,,,,,,,,,,,,132,U,star,1,0,,,,,,,,,,,,,,,,repeat,number,numRpt,d,0.63,Lo,,,,,,1,,,,,,,,high,21,0,21,0,1,,,,,,,,,
292501,2022-12-04_06h43.58.425,vts_reward_expectancy_bt,2022.2.4,Win32,145.0326323,Chrome,1122,631,,,,,10,919,,,,,,,,,,,,,,,,,174,Y,circle,1,0,,,,,,,,,,,,,,,,repeat,number,numRpt,f,0.4924,Hi,,,,,,1,,,,,,,,high,22,0,22,0,1,,,,,,,,,
292501,2022-12-04_06h43.58.425,vts_reward_expectancy_bt,2022.2.4,Win32,145.0326323,Chrome,1122,631,,,,,1,920,,,,,,,,,,,,,,,,,125,B,hexagon,1,0,,,,,,,,,,,,,,,,repeat,number,numRpt,d,0.3517,Lo,,,,,,1,,,,,,,,high,23,0,23,0,1,,,,,,,,,
292501,2022-12-04_06h43.58.425,vts_reward_expectancy_bt,2022.2.4,Win32,145.0326323,Chrome,1122,631,,,,,10,930,,,,,,,,,,,,,,,,,160,Y,circle,1,0,,,,,,,,,,,,,,,,repeat,number,numRpt,f,0.3614,Hi,,,,,,1,,,,,,,,high,24,0,24,0,1,,,,,,,,,
292501,2022-12-04_06h43.58.425,vts_reward_expectancy_bt,2022.2.4,Win32,145.0326323,Chrome,1122,631,,,,,10,940,,,,,,,,,,,,,,,,,146,H,triangle,1,0,,,,,,,,,,,,,,,,repeat,number,numRpt,d,0.5043,Hi,,,,,,1,,,,,,,,high,25,0,25,0,1,,,,,,,,,
292501,2022-12-04_06h43.58.425,vts_reward_expectancy_bt,2022.2.4,Win32,145.0326323,Chrome,1122,631,,,,,1,941,,,,,,,,,,,,,,,,,167,W,star,1,0,,,,,,,,,,,,,,,,repeat,number,numRpt,f,0.4093,Lo,,,,,,1,,,,,,,,high,26,0,26,0,1,,,,,,,,,
292501,2022-12-04_06h43.58.425,vts_reward_expectancy_bt,2022.2.4,Win32,145.0326323,Chrome,1122,631,,,,,1,942,,,,,,,,,,,,,,,,,181,F,hexagon,1,0,,,,,,,,,,,,,,,,repeat,number,numRpt,f,0.4498,Lo,,,,,,1,,,,,,,,high,27,0,27,0,1,,,,,,,,,
292501,2022-12-04_06h43.58.425,vts_reward_expectancy_bt,2022.2.4,Win32,145.0326323,Chrome,1122,631,,,,,10,952,,,,,,,,,,,,,,,,,132,S,star,1,0,,,,,,,,,,,,,,,,repeat,number,numRpt,d,0.3738,Lo,,,,,,1,,,,,,,,high,28,0,28,0,1,,,,,,,,,
292501,2022-12-04_06h43.58.425,vts_reward_expectancy_bt,2022.2.4,Win32,145.0326323,Chrome,1122,631,,,,,1,953,,,,,,,,,,,,,,,,,125,U,hexagon,1,0,,,,,,,,,,,,,,,,repeat,number,numRpt,d,0.5616,Lo,,,,,,1,,,,,,,,high,29,0,29,0,1,,,,,,,,,
292501,2022-12-04_06h43.58.425,vts_reward_expectancy_bt,2022.2.4,Win32,145.0326323,Chrome,1122,631,,,,,10,963,,,,,,,,,,,,,,,,,174,B,triangle,1,0,,,,,,,,,,,,,,,,repeat,number,numRpt,f,0.4844,Hi,,,,,,1,,,,,,,,high,30,0,30,0,1,,,,,,,,,
292501,2022-12-04_06h43.58.425,vts_reward_expectancy_bt,2022.2.4,Win32,145.0326323,Chrome,1122,631,,,,,0,963,,,,,,,,,,,,,,,,,139,D,circle,1,0,,,,,,,,,,,,,,,,repeat,number,numRpt,d,0.8049,Hi,,,,,,1,,,,,,,,high,31,0,31,0,1,,,,,,,,,
292501,2022-12-04_06h43.58.425,vts_reward_expectancy_bt,2022.2.4,Win32,145.0326323,Chrome,1122,631,,,,,1,964,,,,,,,,,,,,,,,,,139,U,star,1,0,,,,,,,,,,,,,,,,repeat,number,numRpt,d,0.5912,Lo,,,,,,2,,,,,,space,0.7996,high,0,0,0,0,1,,,,,,,,,
292501,2022-12-04_06h43.58.425,vts_reward_expectancy_bt,2022.2.4,Win32,145.0326323,Chrome,1122,631,,,,,0,964,,,,,,,,,,,,,,,,,125,B,circle,1,0,,,,,,,,,,,,,,,,repeat,number,numRpt,d,0.4943,Hi,,,,,,2,,,,,,,,high,1,0,1,0,1,,,,,,,,,
292501,2022-12-04_06h43.58.425,vts_reward_expectancy_bt,2022.2.4,Win32,145.0326323,Chrome,1122,631,,,,,0,964,,,,,,,,,,,,,,,,,174,S,triangle,1,0,,,,,,,,,,,,,,,,repeat,number,numRpt,f,0.4981,Hi,,,,,,2,,,,,,,,high,2,0,2,0,1,,,,,,,,,
292501,2022-12-04_06h43.58.425,vts_reward_expectancy_bt,2022.2.4,Win32,145.0326323,Chrome,1122,631,,,,,1,965,,,,,,,,,,,,,,,,,146,H,hexagon,1,0,,,,,,,,,,,,,,,,repeat,number,numRpt,d,0.487,Lo,,,,,,2,,,,,,,,high,3,0,3,0,1,,,,,,,,,
292501,2022-12-04_06h43.58.425,vts_reward_expectancy_bt,2022.2.4,Win32,145.0326323,Chrome,1122,631,,,,,1,966,,,,,,,,,,,,,,,,,181,Y,star,1,0,,,,,,,,,,,,,,,,repeat,number,numRpt,f,0.5502,Lo,,,,,,2,,,,,,,,high,4,0,4,0,1,,,,,,,,,
292501,2022-12-04_06h43.58.425,vts_reward_expectancy_bt,2022.2.4,Win32,145.0326323,Chrome,1122,631,,,,,0,966,,,,,,,,,,,,,,,,,167,D,circle,1,0,,,,,,,,,,,,,,,,repeat,number,numRpt,f,0.6153,Hi,,,,,,2,,,,,,,,high,5,0,5,0,1,,,,,,,,,
292501,2022-12-04_06h43.58.425,vts_reward_expectancy_bt,2022.2.4,Win32,145.0326323,Chrome,1122,631,,,,,10,976,,,,,,,,,,,,,,,,,160,F,triangle,1,0,,,,,,,,,,,,,,,,repeat,number,numRpt,f,0.4385,Hi,,,,,,2,,,,,,,,high,6,0,6,0,1,,,,,,,,,
292501,2022-12-04_06h43.58.425,vts_reward_expectancy_bt,2022.2.4,Win32,145.0326323,Chrome,1122,631,,,,,1,977,,,,,,,,,,,,,,,,,132,W,hexagon,1,0,,,,,,,,,,,,,,,,repeat,number,numRpt,d,0.4029,Lo,,,,,,2,,,,,,,,high,7,0,7,0,1,,,,,,,,,
292501,2022-12-04_06h43.58.425,vts_reward_expectancy_bt,2022.2.4,Win32,145.0326323,Chrome,1122,631,,,,,1,978,,,,,,,,,,,,,,,,,139,U,star,1,0,,,,,,,,,,,,,,,,repeat,number,numRpt,d,0.5152,Lo,,,,,,2,,,,,,,,high,8,0,8,0,1,,,,,,,,,
292501,2022-12-04_06h43.58.425,vts_reward_expectancy_bt,2022.2.4,Win32,145.0326323,Chrome,1122,631,,,,,1,979,,,,,,,,,,,,,,,,,125,B,hexagon,1,0,,,,,,,,,,,,,,,,repeat,number,numRpt,d,0.4021,Lo,,,,,,2,,,,,,,,high,9,0,9,0,1,,,,,,,,,
292501,2022-12-04_06h43.58.425,vts_reward_expectancy_bt,2022.2.4,Win32,145.0326323,Chrome,1122,631,,,,,0,979,,,,,,,,,,,,,,,,,174,S,circle,1,0,,,,,,,,,,,,,,,,repeat,number,numRpt,f,0.5336,Hi,,,,,,2,,,,,,,,high,10,0,10,0,1,,,,,,,,,
292501,2022-12-04_06h43.58.425,vts_reward_expectancy_bt,2022.2.4,Win32,145.0326323,Chrome,1122,631,,,,,1,980,,,,,,,,,,,,,,,,,146,H,triangle,1,0,,,,,,,,,,,,,,,,repeat,number,numRpt,d,0.4388,Hi,,,,,,2,,,,,,,,high,11,0,11,0,1,,,,,,,,,
292501,2022-12-04_06h43.58.425,vts_reward_expectancy_bt,2022.2.4,Win32,145.0326323,Chrome,1122,631,,,,,1,981,,,,,,,,,,,,,,,,,181,Y,hexagon,1,0,,,,,,,,,,,,,,,,repeat,number,numRpt,f,0.4966,Lo,,,,,,2,,,,,,,,high,12,0,12,0,1,,,,,,,,,
292501,2022-12-04_06h43.58.425,vts_reward_expectancy_bt,2022.2.4,Win32,145.0326323,Chrome,1122,631,,,,,0,981,,,,,,,,,,,,,,,,,167,D,circle,1,0,,,,,,,,,,,,,,,,repeat,number,numRpt,f,0.5182,Hi,,,,,,2,,,,,,,,high,13,0,13,0,1,,,,,,,,,
292501,2022-12-04_06h43.58.425,vts_reward_expectancy_bt,2022.2.4,Win32,145.0326323,Chrome,1122,631,,,,,10,991,,,,,,,,,,,,,,,,,160,F,star,1,0,,,,,,,,,,,,,,,,repeat,number,numRpt,f,0.4772,Lo,,,,,,2,,,,,,,,high,14,0,14,0,1,,,,,,,,,
292501,2022-12-04_06h43.58.425,vts_reward_expectancy_bt,2022.2.4,Win32,145.0326323,Chrome,1122,631,,,,,0,991,,,,,,,,,,,,,,,,,132,W,triangle,1,0,,,,,,,,,,,,,,,,repeat,number,numRpt,d,0.771,Hi,,,,,,2,,,,,,,,high,15,0,15,0,1,,,,,,,,,
292501,2022-12-04_06h43.58.425,vts_reward_expectancy_bt,2022.2.4,Win32,145.0326323,Chrome,1122,631,,,,,10,1001,,,,,,,,,,,,,,,,,146,H,star,1,0,,,,,,,,,,,,,,,,repeat,number,numRpt,d,0.512,Lo,,,,,,2,,,,,,,,high,16,0,16,0,1,,,,,,,,,
292501,2022-12-04_06h43.58.425,vts_reward_expectancy_bt,2022.2.4,Win32,145.0326323,Chrome,1122,631,,,,,0,1001,,,,,,,,,,,,,,,,,160,U,triangle,0,0,,,,,,,,,,,,,,,,repeat,number,NA,d,0.5382,Lo,,,,,,2,,,,,,,,high,17,0,17,0,1,,,,,,,,,
292501,2022-12-04_06h43.58.425,vts_reward_expectancy_bt,2022.2.4,Win32,145.0326323,Chrome,1122,631,,,,,0,1001,,,,,,,,,,,,,,,,,181,B,circle,1,1,,,,,,,,,,,,,,,,repeat,number,numRpt,f,0.6265,Hi,,,,,,2,,,,,,,,high,18,0,18,0,1,,,,,,,,,
292501,2022-12-04_06h43.58.425,vts_reward_expectancy_bt,2022.2.4,Win32,145.0326323,Chrome,1122,631,,,,,1,1002,,,,,,,,,,,,,,,,,139,D,hexagon,1,0,,,,,,,,,,,,,,,,repeat,number,numRpt,d,0.5696,Lo,,,,,,2,,,,,,,,high,19,0,19,0,1,,,,,,,,,
292501,2022-12-04_06h43.58.425,vts_reward_expectancy_bt,2022.2.4,Win32,145.0326323,Chrome,1122,631,,,,,0,1002,,,,,,,,,,,,,,,,,174,F,circle,1,0,,,,,,,,,,,,,,,,repeat,number,numRpt,f,0.6949,Hi,,,,,,2,,,,,,,,high,20,0,20,0,1,,,,,,,,,
292501,2022-12-04_06h43.58.425,vts_reward_expectancy_bt,2022.2.4,Win32,145.0326323,Chrome,1122,631,,,,,0,1002,,,,,,,,,,,,,,,,,167,Y,triangle,1,0,,,,,,,,,,,,,,,,repeat,number,numRpt,f,0.5775,Hi,,,,,,2,,,,,,,,high,21,0,21,0,1,,,,,,,,,
292501,2022-12-04_06h43.58.425,vts_reward_expectancy_bt,2022.2.4,Win32,145.0326323,Chrome,1122,631,,,,,1,1003,,,,,,,,,,,,,,,,,125,W,hexagon,1,0,,,,,,,,,,,,,,,,repeat,number,numRpt,d,0.959,Lo,,,,,,2,,,,,,,,high,22,0,22,0,1,,,,,,,,,
292501,2022-12-04_06h43.58.425,vts_reward_expectancy_bt,2022.2.4,Win32,145.0326323,Chrome,1122,631,,,,,10,1013,,,,,,,,,,,,,,,,,132,S,star,1,0,,,,,,,,,,,,,,,,repeat,number,numRpt,d,0.4175,Lo,,,,,,2,,,,,,,,high,23,0,23,0,1,,,,,,,,,
292501,2022-12-04_06h43.58.425,vts_reward_expectancy_bt,2022.2.4,Win32,145.0326323,Chrome,1122,631,,,,,10,1023,,,,,,,,,,,,,,,,,132,D,hexagon,1,0,,,,,,,,,,,,,,,,repeat,number,numRpt,d,0.4344,Lo,,,,,,2,,,,,,,,high,24,0,24,0,1,,,,,,,,,
292501,2022-12-04_06h43.58.425,vts_reward_expectancy_bt,2022.2.4,Win32,145.0326323,Chrome,1122,631,,,,,0,1023,,,,,,,,,,,,,,,,,174,U,circle,1,0,,,,,,,,,,,,,,,,repeat,number,numRpt,f,0.584,Hi,,,,,,2,,,,,,,,high,25,0,25,0,1,,,,,,,,,
292501,2022-12-04_06h43.58.425,vts_reward_expectancy_bt,2022.2.4,Win32,145.0326323,Chrome,1122,631,,,,,0,1023,,,,,,,,,,,,,,,,,181,W,triangle,1,0,,,,,,,,,,,,,,,,repeat,number,numRpt,f,0.48,Hi,,,,,,2,,,,,,,,high,26,0,26,0,1,,,,,,,,,
292501,2022-12-04_06h43.58.425,vts_reward_expectancy_bt,2022.2.4,Win32,145.0326323,Chrome,1122,631,,,,,0,1023,,,,,,,,,,,,,,,,,146,S,star,0,0,,,,,,,,,,,,,,,,repeat,number,NA,f,0.4865,Hi,,,,,,2,,,,,,,,high,27,0,27,0,1,,,,,,,,,
292501,2022-12-04_06h43.58.425,vts_reward_expectancy_bt,2022.2.4,Win32,145.0326323,Chrome,1122,631,,,,,0,1023,,,,,,,,,,,,,,,,,167,B,triangle,0,1,,,,,,,,,,,,,,,,repeat,number,NA,d,0.501,Hi,,,,,,2,,,,,,,,high,28,0,28,0,1,,,,,,,,,
292501,2022-12-04_06h43.58.425,vts_reward_expectancy_bt,2022.2.4,Win32,145.0326323,Chrome,1122,631,,,,,1,1024,,,,,,,,,,,,,,,,,125,H,hexagon,1,1,,,,,,,,,,,,,,,,repeat,number,numRpt,d,0.4659,Lo,,,,,,2,,,,,,,,high,29,0,29,0,1,,,,,,,,,
292501,2022-12-04_06h43.58.425,vts_reward_expectancy_bt,2022.2.4,Win32,145.0326323,Chrome,1122,631,,,,,1,1025,,,,,,,,,,,,,,,,,160,Y,star,1,0,,,,,,,,,,,,,,,,repeat,number,numRpt,f,0.4591,Lo,,,,,,2,,,,,,,,high,30,0,30,0,1,,,,,,,,,
292501,2022-12-04_06h43.58.425,vts_reward_expectancy_bt,2022.2.4,Win32,145.0326323,Chrome,1122,631,,,,,0,1025,,,,,,,,,,,,,,,,,139,F,circle,1,0,,,,,,,,,,,,,,,,repeat,number,numRpt,d,0.5021,Hi,,,,,,2,,,,,,,,high,31,0,31,0,1,,,,,,,,,
292501,2022-12-04_06h43.58.425,vts_reward_expectancy_bt,2022.2.4,Win32,145.0326323,Chrome,1122,631,,,,,1,1026,,,,,,,,,,,,,,,,,139,U,hexagon,1,0,,,,,,,,,,,,,,,,switch,letter,lettSwt,k,1.6595,Lo,,,,,,3,,,,,,space,3.2056,high,0,0,0,0,1,,,,,,,,,
292501,2022-12-04_06h43.58.425,vts_reward_expectancy_bt,2022.2.4,Win32,145.0326323,Chrome,1122,631,,,,,10,1036,,,,,,,,,,,,,,,,,174,F,triangle,1,0,,,,,,,,,,,,,,,,repeat,letter,lettRpt,j,0.5698,Hi,,,,,,3,,,,,,,,high,1,0,1,0,1,,,,,,,,,
292501,2022-12-04_06h43.58.425,vts_reward_expectancy_bt,2022.2.4,Win32,145.0326323,Chrome,1122,631,,,,,1,1037,,,,,,,,,,,,,,,,,181,W,star,1,0,,,,,,,,,,,,,,,,repeat,letter,lettRpt,k,0.4577,Lo,,,,,,3,,,,,,,,high,2,0,2,0,1,,,,,,,,,
292501,2022-12-04_06h43.58.425,vts_reward_expectancy_bt,2022.2.4,Win32,145.0326323,Chrome,1122,631,,,,,1,1038,,,,,,,,,,,,,,,,,125,H,circle,1,0,,,,,,,,,,,,,,,,repeat,letter,lettRpt,j,0.4404,Hi,,,,,,3,,,,,,,,high,3,0,3,0,1,,,,,,,,,
292501,2022-12-04_06h43.58.425,vts_reward_expectancy_bt,2022.2.4,Win32,145.0326323,Chrome,1122,631,,,,,1,1039,,,,,,,,,,,,,,,,,160,S,hexagon,1,0,,,,,,,,,,,,,,,,repeat,letter,lettRpt,k,0.4625,Lo,,,,,,3,,,,,,,,high,4,0,4,0,1,,,,,,,,,
292501,2022-12-04_06h43.58.425,vts_reward_expectancy_bt,2022.2.4,Win32,145.0326323,Chrome,1122,631,,,,,10,1049,,,,,,,,,,,,,,,,,132,D,triangle,1,0,,,,,,,,,,,,,,,,repeat,letter,lettRpt,j,0.4832,Hi,,,,,,3,,,,,,,,high,5,0,5,0,1,,,,,,,,,
292501,2022-12-04_06h43.58.425,vts_reward_expectancy_bt,2022.2.4,Win32,145.0326323,Chrome,1122,631,,,,,1,1050,,,,,,,,,,,,,,,,,146,B,star,1,0,,,,,,,,,,,,,,,,repeat,letter,lettRpt,j,0.4546,Lo,,,,,,3,,,,,,,,high,6,0,6,0,1,,,,,,,,,
292501,2022-12-04_06h43.58.425,vts_reward_expectancy_bt,2022.2.4,Win32,145.0326323,Chrome,1122,631,,,,,10,1060,,,,,,,,,,,,,,,,,167,Y,circle,1,0,,,,,,,,,,,,,,,,repeat,letter,lettRpt,k,0.4243,Hi,,,,,,3,,,,,,,,high,7,0,7,0,1,,,,,,,,,
292501,2022-12-04_06h43.58.425,vts_reward_expectancy_bt,2022.2.4,Win32,145.0326323,Chrome,1122,631,,,,,10,1070,,,,,,,,,,,,,,,,,139,U,triangle,1,0,,,,,,,,,,,,,,,,repeat,letter,lettRpt,k,0.461,Hi,,,,,,3,,,,,,,,high,8,0,8,0,1,,,,,,,,,
292501,2022-12-04_06h43.58.425,vts_reward_expectancy_bt,2022.2.4,Win32,145.0326323,Chrome,1122,631,,,,,1,1071,,,,,,,,,,,,,,,,,174,F,circle,1,0,,,,,,,,,,,,,,,,repeat,letter,lettRpt,j,0.5374,Hi,,,,,,3,,,,,,,,high,9,0,9,0,1,,,,,,,,,
292501,2022-12-04_06h43.58.425,vts_reward_expectancy_bt,2022.2.4,Win32,145.0326323,Chrome,1122,631,,,,,1,1072,,,,,,,,,,,,,,,,,181,W,star,1,0,,,,,,,,,,,,,,,,repeat,letter,lettRpt,k,0.6121,Lo,,,,,,3,,,,,,,,high,10,0,10,0,1,,,,,,,,,
292501,2022-12-04_06h43.58.425,vts_reward_expectancy_bt,2022.2.4,Win32,145.0326323,Chrome,1122,631,,,,,1,1073,,,,,,,,,,,,,,,,,125,H,hexagon,1,0,,,,,,,,,,,,,,,,repeat,letter,lettRpt,j,0.4715,Lo,,,,,,3,,,,,,,,high,11,0,11,0,1,,,,,,,,,
292501,2022-12-04_06h43.58.425,vts_reward_expectancy_bt,2022.2.4,Win32,145.0326323,Chrome,1122,631,,,,,1,1074,,,,,,,,,,,,,,,,,160,S,hexagon,1,0,,,,,,,,,,,,,,,,repeat,letter,lettRpt,k,0.4246,Lo,,,,,,3,,,,,,,,high,12,0,12,0,1,,,,,,,,,
292501,2022-12-04_06h43.58.425,vts_reward_expectancy_bt,2022.2.4,Win32,145.0326323,Chrome,1122,631,,,,,1,1075,,,,,,,,,,,,,,,,,132,D,triangle,1,0,,,,,,,,,,,,,,,,repeat,letter,lettRpt,j,0.4773,Hi,,,,,,3,,,,,,,,high,13,0,13,0,1,,,,,,,,,
292501,2022-12-04_06h43.58.425,vts_reward_expectancy_bt,2022.2.4,Win32,145.0326323,Chrome,1122,631,,,,,1,1076,,,,,,,,,,,,,,,,,146,B,star,1,0,,,,,,,,,,,,,,,,repeat,letter,lettRpt,j,0.6603,Lo,,,,,,3,,,,,,,,high,14,0,14,0,1,,,,,,,,,
292501,2022-12-04_06h43.58.425,vts_reward_expectancy_bt,2022.2.4,Win32,145.0326323,Chrome,1122,631,,,,,10,1086,,,,,,,,,,,,,,,,,167,Y,circle,1,0,,,,,,,,,,,,,,,,repeat,letter,lettRpt,k,0.5386,Hi,,,,,,3,,,,,,,,high,15,0,15,0,1,,,,,,,,,
292501,2022-12-04_06h43.58.425,vts_reward_expectancy_bt,2022.2.4,Win32,145.0326323,Chrome,1122,631,,,,,10,1096,,,,,,,,,,,,,,,,,146,H,circle,1,0,,,,,,,,,,,,,,,,repeat,letter,lettRpt,j,0.7855,Hi,,,,,,3,,,,,,,,high,16,0,16,0,1,,,,,,,,,
292501,2022-12-04_06h43.58.425,vts_reward_expectancy_bt,2022.2.4,Win32,145.0326323,Chrome,1122,631,,,,,10,1106,,,,,,,,,,,,,,,,,139,Y,hexagon,1,0,,,,,,,,,,,,,,,,repeat,letter,lettRpt,k,0.8909,Lo,,,,,,3,,,,,,,,high,17,0,17,0,1,,,,,,,,,
292501,2022-12-04_06h43.58.425,vts_reward_expectancy_bt,2022.2.4,Win32,145.0326323,Chrome,1122,631,,,,,1,1107,,,,,,,,,,,,,,,,,160,U,star,1,0,,,,,,,,,,,,,,,,repeat,letter,lettRpt,k,0.5142,Lo,,,,,,3,,,,,,,,high,18,0,18,0,1,,,,,,,,,
292501,2022-12-04_06h43.58.425,vts_reward_expectancy_bt,2022.2.4,Win32,145.0326323,Chrome,1122,631,,,,,10,1117,,,,,,,,,,,,,,,,,181,B,triangle,1,0,,,,,,,,,,,,,,,,repeat,letter,lettRpt,j,0.5106,Hi,,,,,,3,,,,,,,,high,19,0,19,0,1,,,,,,,,,
292501,2022-12-04_06h43.58.425,vts_reward_expectancy_bt,2022.2.4,Win32,145.0326323,Chrome,1122,631,,,,,10,1127,,,,,,,,,,,,,,,,,174,D,circle,1,0,,,,,,,,,,,,,,,,repeat,letter,lettRpt,j,0.5039,Hi,,,,,,3,,,,,,,,high,20,0,20,0,1,,,,,,,,,
292501,2022-12-04_06h43.58.425,vts_reward_expectancy_bt,2022.2.4,Win32,145.0326323,Chrome,1122,631,,,,,1,1128,,,,,,,,,,,,,,,,,125,S,hexagon,1,0,,,,,,,,,,,,,,,,repeat,letter,lettRpt,k,0.5607,Lo,,,,,,3,,,,,,,,high,21,0,21,0,1,,,,,,,,,
292501,2022-12-04_06h43.58.425,vts_reward_expectancy_bt,2022.2.4,Win32,145.0326323,Chrome,1122,631,,,,,10,1138,,,,,,,,,,,,,,,,,167,F,star,1,0,,,,,,,,,,,,,,,,repeat,letter,lettRpt,j,0.5145,Lo,,,,,,3,,,,,,,,high,22,0,22,0,1,,,,,,,,,
292501,2022-12-04_06h43.58.425,vts_reward_expectancy_bt,2022.2.4,Win32,145.0326323,Chrome,1122,631,,,,,0,1138,,,,,,,,,,,,,,,,,132,W,triangle,0,0,,,,,,,,,,,,,,,,repeat,letter,NA,j,0.5696,Lo,,,,,,3,,,,,,,,high,23,0,23,0,1,,,,,,,,,
292501,2022-12-04_06h43.58.425,vts_reward_expectancy_bt,2022.2.4,Win32,145.0326323,Chrome,1122,631,,,,,10,1148,,,,,,,,,,,,,,,,,181,B,triangle,1,1,,,,,,,,,,,,,,,,repeat,letter,lettRpt,j,0.4829,Hi,,,,,,3,,,,,,,,high,24,0,24,0,1,,,,,,,,,
292501,2022-12-04_06h43.58.425,vts_reward_expectancy_bt,2022.2.4,Win32,145.0326323,Chrome,1122,631,,,,,1,1149,,,,,,,,,,,,,,,,,139,F,star,1,0,,,,,,,,,,,,,,,,repeat,letter,lettRpt,j,0.5658,Lo,,,,,,3,,,,,,,,high,25,0,25,0,1,,,,,,,,,
292501,2022-12-04_06h43.58.425,vts_reward_expectancy_bt,2022.2.4,Win32,145.0326323,Chrome,1122,631,,,,,1,1150,,,,,,,,,,,,,,,,,132,Y,hexagon,1,0,,,,,,,,,,,,,,,,repeat,letter,lettRpt,k,0.4862,Lo,,,,,,3,,,,,,,,high,26,0,26,0,1,,,,,,,,,
292501,2022-12-04_06h43.58.425,vts_reward_expectancy_bt,2022.2.4,Win32,145.0326323,Chrome,1122,631,,,,,10,1160,,,,,,,,,,,,,,,,,167,H,circle,1,0,,,,,,,,,,,,,,,,repeat,letter,lettRpt,j,0.8545,Hi,,,,,,3,,,,,,,,high,27,0,27,0,1,,,,,,,,,
292501,2022-12-04_06h43.58.425,vts_reward_expectancy_bt,2022.2.4,Win32,145.0326323,Chrome,1122,631,,,,,10,1170,,,,,,,,,,,,,,,,,125,W,triangle,1,0,,,,,,,,,,,,,,,,repeat,letter,lettRpt,k,0.4587,Hi,,,,,,3,,,,,,,,high,28,0,28,0,1,,,,,,,,,
292501,2022-12-04_06h43.58.425,vts_reward_expectancy_bt,2022.2.4,Win32,145.0326323,Chrome,1122,631,,,,,10,1180,,,,,,,,,,,,,,,,,146,U,hexagon,1,0,,,,,,,,,,,,,,,,repeat,letter,lettRpt,k,0.503,Lo,,,,,,3,,,,,,,,high,29,0,29,0,1,,,,,,,,,
292501,2022-12-04_06h43.58.425,vts_reward_expectancy_bt,2022.2.4,Win32,145.0326323,Chrome,1122,631,,,,,0,1180,,,,,,,,,,,,,,,,,174,D,star,0,0,,,,,,,,,,,,,,,,repeat,letter,NA,k,0.4723,Lo,,,,,,3,,,,,,,,high,30,0,30,0,1,,,,,,,,,
292501,2022-12-04_06h43.58.425,vts_reward_expectancy_bt,2022.2.4,Win32,145.0326323,Chrome,1122,631,,,,,10,1190,,,,,,,,,,,,,,,,,160,S,circle,1,1,,,,,,,,,,,,,,,,repeat,letter,lettRpt,k,0.6523,Hi,,,,,,3,,,,,,,,high,31,0,31,0,1,,,,,,,,,
292501,2022-12-04_06h43.58.425,vts_reward_expectancy_bt,2022.2.4,Win32,145.0326323,Chrome,1122,631,,,,,0,1190,,,,,,,,,,,,,,,,,139,H,triangle,1,0,,,,,,,,,,,,,,,,repeat,letter,lettRpt,j,0.594,Hi,,,,,,4,,,,,,space,1.1554,high,0,0,0,0,1,,,,,,,,,
292501,2022-12-04_06h43.58.425,vts_reward_expectancy_bt,2022.2.4,Win32,145.0326323,Chrome,1122,631,,,,,10,1200,,,,,,,,,,,,,,,,,132,U,hexagon,1,0,,,,,,,,,,,,,,,,repeat,letter,lettRpt,k,0.5305,Lo,,,,,,4,,,,,,,,high,1,0,1,0,1,,,,,,,,,
292501,2022-12-04_06h43.58.425,vts_reward_expectancy_bt,2022.2.4,Win32,145.0326323,Chrome,1122,631,,,,,0,1200,,,,,,,,,,,,,,,,,146,W,circle,1,0,,,,,,,,,,,,,,,,repeat,letter,lettRpt,k,0.7257,Hi,,,,,,4,,,,,,,,high,2,0,2,0,1,,,,,,,,,
292501,2022-12-04_06h43.58.425,vts_reward_expectancy_bt,2022.2.4,Win32,145.0326323,Chrome,1122,631,,,,,10,1210,,,,,,,,,,,,,,,,,167,S,star,1,0,,,,,,,,,,,,,,,,repeat,letter,lettRpt,k,0.4821,Lo,,,,,,4,,,,,,,,high,3,0,3,0,1,,,,,,,,,
292501,2022-12-04_06h43.58.425,vts_reward_expectancy_bt,2022.2.4,Win32,145.0326323,Chrome,1122,631,,,,,10,1220,,,,,,,,,,,,,,,,,160,B,triangle,1,0,,,,,,,,,,,,,,,,repeat,letter,lettRpt,j,0.4449,Hi,,,,,,4,,,,,,,,high,4,0,4,0,1,,,,,,,,,
292501,2022-12-04_06h43.58.425,vts_reward_expectancy_bt,2022.2.4,Win32,145.0326323,Chrome,1122,631,,,,,1,1221,,,,,,,,,,,,,,,,,125,D,hexagon,1,0,,,,,,,,,,,,,,,,repeat,letter,lettRpt,j,0.4793,Lo,,,,,,4,,,,,,,,high,5,0,5,0,1,,,,,,,,,
292501,2022-12-04_06h43.58.425,vts_reward_expectancy_bt,2022.2.4,Win32,145.0326323,Chrome,1122,631,,,,,1,1222,,,,,,,,,,,,,,,,,174,Y,circle,1,0,,,,,,,,,,,,,,,,repeat,letter,lettRpt,k,0.4338,Hi,,,,,,4,,,,,,,,high,6,0,6,0,1,,,,,,,,,
292501,2022-12-04_06h43.58.425,vts_reward_expectancy_bt,2022.2.4,Win32,145.0326323,Chrome,1122,631,,,,,1,1223,,,,,,,,,,,,,,,,,181,F,star,1,0,,,,,,,,,,,,,,,,repeat,letter,lettRpt,j,0.5173,Lo,,,,,,4,,,,,,,,high,7,0,7,0,1,,,,,,,,,
292501,2022-12-04_06h43.58.425,vts_reward_expectancy_bt,2022.2.4,Win32,145.0326323,Chrome,1122,631,,,,,1,1224,,,,,,,,,,,,,,,,,139,H,hexagon,1,0,,,,,,,,,,,,,,,,repeat,letter,lettRpt,j,0.6341,Lo,,,,,,4,,,,,,,,high,8,0,8,0,1,,,,,,,,,
292501,2022-12-04_06h43.58.425,vts_reward_expectancy_bt,2022.2.4,Win32,145.0326323,Chrome,1122,631,,,,,1,1225,,,,,,,,,,,,,,,,,132,U,star,1,0,,,,,,,,,,,,,,,,repeat,letter,lettRpt,k,0.4516,Lo,,,,,,4,,,,,,,,high,9,0,9,0,1,,,,,,,,,
292501,2022-12-04_06h43.58.425,vts_reward_expectancy_bt,2022.2.4,Win32,145.0326323,Chrome,1122,631,,,,,0,1225,,,,,,,,,,,,,,,,,146,W,triangle,1,0,,,,,,,,,,,,,,,,repeat,letter,lettRpt,k,0.6136,Hi,,,,,,4,,,,,,,,high,10,0,10,0,1,,,,,,,,,
292501,2022-12-04_06h43.58.425,vts_reward_expectancy_bt,2022.2.4,Win32,145.0326323,Chrome,1122,631,,,,,0,1225,,,,,,,,,,,,,,,,,167,S,circle,0,0,,,,,,,,,,,,,,,,repeat,letter,NA,j,0.7677,Hi,,,,,,4,,,,,,,,high,11,0,11,0,1,,,,,,,,,
292501,2022-12-04_06h43.58.425,vts_reward_expectancy_bt,2022.2.4,Win32,145.0326323,Chrome,1122,631,,,,,0,1225,,,,,,,,,,,,,,,,,160,B,circle,1,1,,,,,,,,,,,,,,,,repeat,letter,lettRpt,j,0.4888,Hi,,,,,,4,,,,,,,,high,12,0,12,0,1,,,,,,,,,
292501,2022-12-04_06h43.58.425,vts_reward_expectancy_bt,2022.2.4,Win32,145.0326323,Chrome,1122,631,,,,,0,1225,,,,,,,,,,,,,,,,,125,D,triangle,1,0,,,,,,,,,,,,,,,,repeat,letter,lettRpt,j,0.5282,Hi,,,,,,4,,,,,,,,high,13,0,13,0,1,,,,,,,,,
292501,2022-12-04_06h43.58.425,vts_reward_expectancy_bt,2022.2.4,Win32,145.0326323,Chrome,1122,631,,,,,10,1235,,,,,,,,,,,,,,,,,174,Y,star,1,0,,,,,,,,,,,,,,,,repeat,letter,lettRpt,k,0.5282,Lo,,,,,,4,,,,,,,,high,14,0,14,0,1,,,,,,,,,
292501,2022-12-04_06h43.58.425,vts_reward_expectancy_bt,2022.2.4,Win32,145.0326323,Chrome,1122,631,,,,,1,1236,,,,,,,,,,,,,,,,,181,F,hexagon,1,0,,,,,,,,,,,,,,,,repeat,letter,lettRpt,j,0.4973,Lo,,,,,,4,,,,,,,,high,15,0,15,0,1,,,,,,,,,
292501,2022-12-04_06h43.58.425,vts_reward_expectancy_bt,2022.2.4,Win32,145.0326323,Chrome,1122,631,,,,,0,1236,,,,,,,,,,,,,,,,,125,D,star,0,0,,,,,,,,,,,,,,,,repeat,letter,NA,k,0.5352,Lo,,,,,,4,,,,,,,,high,16,0,16,0,1,,,,,,,,,
292501,2022-12-04_06h43.58.425,vts_reward_expectancy_bt,2022.2.4,Win32,145.0326323,Chrome,1122,631,,,,,10,1246,,,,,,,,,,,,,,,,,139,U,circle,1,1,,,,,,,,,,,,,,,,repeat,letter,lettRpt,k,0.4662,Hi,,,,,,4,,,,,,,,high,17,0,17,0,1,,,,,,,,,
292501,2022-12-04_06h43.58.425,vts_reward_expectancy_bt,2022.2.4,Win32,145.0326323,Chrome,1122,631,,,,,1,1247,,,,,,,,,,,,,,,,,160,F,hexagon,1,0,,,,,,,,,,,,,,,,repeat,letter,lettRpt,j,0.6952,Lo,,,,,,4,,,,,,,,high,18,0,18,0,1,,,,,,,,,
292501,2022-12-04_06h43.58.425,vts_reward_expectancy_bt,2022.2.4,Win32,145.0326323,Chrome,1122,631,,,,,0,1247,,,,,,,,,,,,,,,,,146,B,triangle,1,0,,,,,,,,,,,,,,,,repeat,letter,lettRpt,j,0.661,Hi,,,,,,4,,,,,,,,high,19,0,19,0,1,,,,,,,,,
292501,2022-12-04_06h43.58.425,vts_reward_expectancy_bt,2022.2.4,Win32,145.0326323,Chrome,1122,631,,,,,1,1248,,,,,,,,,,,,,,,,,181,W,hexagon,1,0,,,,,,,,,,,,,,,,repeat,letter,lettRpt,k,0.5389,Lo,,,,,,4,,,,,,,,high,20,0,20,0,1,,,,,,,,,
292501,2022-12-04_06h43.58.425,vts_reward_expectancy_bt,2022.2.4,Win32,145.0326323,Chrome,1122,631,,,,,1,1249,,,,,,,,,,,,,,,,,167,H,star,1,0,,,,,,,,,,,,,,,,repeat,letter,lettRpt,j,0.5246,Lo,,,,,,4,,,,,,,,high,21,0,21,0,1,,,,,,,,,
292501,2022-12-04_06h43.58.425,vts_reward_expectancy_bt,2022.2.4,Win32,145.0326323,Chrome,1122,631,,,,,0,1249,,,,,,,,,,,,,,,,,174,S,circle,1,0,,,,,,,,,,,,,,,,repeat,letter,lettRpt,k,0.4833,Hi,,,,,,4,,,,,,,,high,22,0,22,0,1,,,,,,,,,
292501,2022-12-04_06h43.58.425,vts_reward_expectancy_bt,2022.2.4,Win32,145.0326323,Chrome,1122,631,,,,,0,1249,,,,,,,,,,,,,,,,,132,Y,triangle,1,0,,,,,,,,,,,,,,,,repeat,letter,lettRpt,k,0.5501,Hi,,,,,,4,,,,,,,,high,23,0,23,0,1,,,,,,,,,
292501,2022-12-04_06h43.58.425,vts_reward_expectancy_bt,2022.2.4,Win32,145.0326323,Chrome,1122,631,,,,,0,1249,,,,,,,,,,,,,,,,,174,S,triangle,1,0,,,,,,,,,,,,,,,,repeat,letter,lettRpt,k,0.532,Hi,,,,,,4,,,,,,,,high,24,0,24,0,1,,,,,,,,,
292501,2022-12-04_06h43.58.425,vts_reward_expectancy_bt,2022.2.4,Win32,145.0326323,Chrome,1122,631,,,,,1,1250,,,,,,,,,,,,,,,,,125,B,star,1,0,,,,,,,,,,,,,,,,repeat,letter,lettRpt,j,0.556,Lo,,,,,,4,,,,,,,,high,25,0,25,0,1,,,,,,,,,
292501,2022-12-04_06h43.58.425,vts_reward_expectancy_bt,2022.2.4,Win32,145.0326323,Chrome,1122,631,,,,,1,1251,,,,,,,,,,,,,,,,,146,F,hexagon,1,0,,,,,,,,,,,,,,,,repeat,letter,lettRpt,j,0.4316,Lo,,,,,,4,,,,,,,,high,26,0,26,0,1,,,,,,,,,
292501,2022-12-04_06h43.58.425,vts_reward_expectancy_bt,2022.2.4,Win32,145.0326323,Chrome,1122,631,,,,,0,1251,,,,,,,,,,,,,,,,,167,U,circle,1,0,,,,,,,,,,,,,,,,repeat,letter,lettRpt,k,0.5232,Hi,,,,,,4,,,,,,,,high,27,0,27,0,1,,,,,,,,,
292501,2022-12-04_06h43.58.425,vts_reward_expectancy_bt,2022.2.4,Win32,145.0326323,Chrome,1122,631,,,,,10,1261,,,,,,,,,,,,,,,,,160,W,hexagon,1,0,,,,,,,,,,,,,,,,repeat,letter,lettRpt,k,0.629,Lo,,,,,,4,,,,,,,,high,28,0,28,0,1,,,,,,,,,
292501,2022-12-04_06h43.58.425,vts_reward_expectancy_bt,2022.2.4,Win32,145.0326323,Chrome,1122,631,,,,,1,1262,,,,,,,,,,,,,,,,,139,D,star,1,0,,,,,,,,,,,,,,,,repeat,letter,lettRpt,j,0.491,Lo,,,,,,4,,,,,,,,high,29,0,29,0,1,,,,,,,,,
292501,2022-12-04_06h43.58.425,vts_reward_expectancy_bt,2022.2.4,Win32,145.0326323,Chrome,1122,631,,,,,0,1262,,,,,,,,,,,,,,,,,181,H,circle,1,0,,,,,,,,,,,,,,,,repeat,letter,lettRpt,j,0.4958,Hi,,,,,,4,,,,,,,,high,30,0,30,0,1,,,,,,,,,
292501,2022-12-04_06h43.58.425,vts_reward_expectancy_bt,2022.2.4,Win32,145.0326323,Chrome,1122,631,,,,,0,1262,,,,,,,,,,,,,,,,,132,Y,triangle,1,0,,,,,,,,,,,,,,,,repeat,letter,lettRpt,k,0.5208,Hi,,,,,,4,,,,,,,,high,31,0,31,0,1,,,,,,,,,
292501,2022-12-04_06h43.58.425,vts_reward_expectancy_bt,2022.2.4,Win32,145.0326323,Chrome,1122,631,,,,,0,1262,,,,,,,,,,,,,,,,,146,S,triangle,1,0,,,,,,,,,,,,,,,,repeat,letter,lettRpt,k,0.5287,Hi,,,,,,5,,,,,,space,0.9123,high,0,0,0,0,1,,,,,,,,,
292501,2022-12-04_06h43.58.425,vts_reward_expectancy_bt,2022.2.4,Win32,145.0326323,Chrome,1122,631,,,,,1,1263,,,,,,,,,,,,,,,,,139,B,hexagon,1,0,,,,,,,,,,,,,,,,repeat,letter,lettRpt,j,0.4977,Lo,,,,,,5,,,,,,,,high,1,0,1,0,1,,,,,,,,,
292501,2022-12-04_06h43.58.425,vts_reward_expectancy_bt,2022.2.4,Win32,145.0326323,Chrome,1122,631,,,,,0,1263,,,,,,,,,,,,,,,,,181,F,circle,1,0,,,,,,,,,,,,,,,,repeat,letter,lettRpt,j,0.5255,Hi,,,,,,5,,,,,,,,high,2,0,2,0,1,,,,,,,,,
292501,2022-12-04_06h43.58.425,vts_reward_expectancy_bt,2022.2.4,Win32,145.0326323,Chrome,1122,631,,,,,1,1264,,,,,,,,,,,,,,,,,160,Y,star,1,0,,,,,,,,,,,,,,,,repeat,letter,lettRpt,k,0.3893,Lo,,,,,,5,,,,,,,,high,3,0,3,0,1,,,,,,,,,
292501,2022-12-04_06h43.58.425,vts_reward_expectancy_bt,2022.2.4,Win32,145.0326323,Chrome,1122,631,,,,,0,1264,,,,,,,,,,,,,,,,,174,U,triangle,1,0,,,,,,,,,,,,,,,,repeat,letter,lettRpt,k,0.5381,Hi,,,,,,5,,,,,,,,high,4,0,4,0,1,,,,,,,,,
292501,2022-12-04_06h43.58.425,vts_reward_expectancy_bt,2022.2.4,Win32,145.0326323,Chrome,1122,631,,,,,1,1265,,,,,,,,,,,,,,,,,167,D,hexagon,1,0,,,,,,,,,,,,,,,,repeat,letter,lettRpt,j,0.4833,Lo,,,,,,5,,,,,,,,high,5,0,5,0,1,,,,,,,,,
292501,2022-12-04_06h43.58.425,vts_reward_expectancy_bt,2022.2.4,Win32,145.0326323,Chrome,1122,631,,,,,0,1265,,,,,,,,,,,,,,,,,125,W,circle,1,0,,,,,,,,,,,,,,,,repeat,letter,lettRpt,k,0.699,Hi,,,,,,5,,,,,,,,high,6,0,6,0,1,,,,,,,,,
292501,2022-12-04_06h43.58.425,vts_reward_expectancy_bt,2022.2.4,Win32,145.0326323,Chrome,1122,631,,,,,1,1266,,,,,,,,,,,,,,,,,132,H,star,1,0,,,,,,,,,,,,,,,,repeat,letter,lettRpt,j,0.5868,Lo,,,,,,5,,,,,,,,high,7,0,7,0,1,,,,,,,,,
292501,2022-12-04_06h43.58.425,vts_reward_expectancy_bt,2022.2.4,Win32,145.0326323,Chrome,1122,631,,,,,1,1267,,,,,,,,,,,,,,,,,146,S,hexagon,1,0,,,,,,,,,,,,,,,,repeat,letter,lettRpt,k,0.4973,Lo,,,,,,5,,,,,,,,high,8,0,8,0,1,,,,,,,,,
292501,2022-12-04_06h43.58.425,vts_reward_expectancy_bt,2022.2.4,Win32,145.0326323,Chrome,1122,631,,,,,10,1277,,,,,,,,,,,,,,,,,139,B,triangle,1,0,,,,,,,,,,,,,,,,repeat,letter,lettRpt,j,0.4239,Hi,,,,,,5,,,,,,,,high,9,0,9,0,1,,,,,,,,,
292501,2022-12-04_06h43.58.425,vts_reward_expectancy_bt,2022.2.4,Win32,145.0326323,Chrome,1122,631,,,,,10,1287,,,,,,,,,,,,,,,,,181,F,star,1,0,,,,,,,,,,,,,,,,repeat,letter,lettRpt,j,0.3998,Lo,,,,,,5,,,,,,,,high,10,0,10,0,1,,,,,,,,,
292501,2022-12-04_06h43.58.425,vts_reward_expectancy_bt,2022.2.4,Win32,145.0326323,Chrome,1122,631,,,,,10,1297,,,,,,,,,,,,,,,,,160,Y,circle,1,0,,,,,,,,,,,,,,,,repeat,letter,lettRpt,k,0.4379,Hi,,,,,,5,,,,,,,,high,11,0,11,0,1,,,,,,,,,
292501,2022-12-04_06h43.58.425,vts_reward_expectancy_bt,2022.2.4,Win32,145.0326323,Chrome,1122,631,,,,,1,1298,,,,,,,,,,,,,,,,,174,U,triangle,1,0,,,,,,,,,,,,,,,,repeat,letter,lettRpt,k,0.4659,Hi,,,,,,5,,,,,,,,high,12,0,12,0,1,,,,,,,,,
292501,2022-12-04_06h43.58.425,vts_reward_expectancy_bt,2022.2.4,Win32,145.0326323,Chrome,1122,631,,,,,0,1298,,,,,,,,,,,,,,,,,167,D,circle,0,0,,,,,,,,,,,,,,,,repeat,letter,NA,k,0.4314,Hi,,,,,,5,,,,,,,,high,13,0,13,0,1,,,,,,,,,
292501,2022-12-04_06h43.58.425,vts_reward_expectancy_bt,2022.2.4,Win32,145.0326323,Chrome,1122,631,,,,,1,1299,,,,,,,,,,,,,,,,,125,W,star,1,1,,,,,,,,,,,,,,,,repeat,letter,lettRpt,k,0.6292,Lo,,,,,,5,,,,,,,,high,14,0,14,0,1,,,,,,,,,
292501,2022-12-04_06h43.58.425,vts_reward_expectancy_bt,2022.2.4,Win32,145.0326323,Chrome,1122,631,,,,,1,1300,,,,,,,,,,,,,,,,,132,H,hexagon,1,0,,,,,,,,,,,,,,,,repeat,letter,lettRpt,j,0.3553,Lo,,,,,,5,,,,,,,,high,15,0,15,0,1,,,,,,,,,
292501,2022-12-04_06h43.58.425,vts_reward_expectancy_bt,2022.2.4,Win32,145.0326323,Chrome,1122,631,,,,,0,1300,,,,,,,,,,,,,,,,,125,H,star,0,0,,,,,,,,,,,,,,,,repeat,letter,NA,k,0.6117,Lo,,,,,,5,,,,,,,,high,16,0,16,0,1,,,,,,,,,
292501,2022-12-04_06h43.58.425,vts_reward_expectancy_bt,2022.2.4,Win32,145.0326323,Chrome,1122,631,,,,,10,1310,,,,,,,,,,,,,,,,,181,B,hexagon,1,1,,,,,,,,,,,,,,,,switch,number,numSwt,f,0.488,Lo,,,,,,5,,,,,,,,high,17,0,17,0,1,,,,,,,,,
292501,2022-12-04_06h43.58.425,vts_reward_expectancy_bt,2022.2.4,Win32,145.0326323,Chrome,1122,631,,,,,10,1320,,,,,,,,,,,,,,,,,146,F,circle,1,0,,,,,,,,,,,,,,,,repeat,number,numRpt,d,0.4644,Hi,,,,,,5,,,,,,,,high,18,0,18,0,1,,,,,,,,,
292501,2022-12-04_06h43.58.425,vts_reward_expectancy_bt,2022.2.4,Win32,145.0326323,Chrome,1122,631,,,,,10,1330,,,,,,,,,,,,,,,,,160,D,triangle,1,0,,,,,,,,,,,,,,,,repeat,number,numRpt,f,0.5705,Hi,,,,,,5,,,,,,,,high,19,0,19,0,1,,,,,,,,,
292501,2022-12-04_06h43.58.425,vts_reward_expectancy_bt,2022.2.4,Win32,145.0326323,Chrome,1122,631,,,,,0,1330,,,,,,,,,,,,,,,,,167,S,hexagon,0,0,,,,,,,,,,,,,,,,repeat,number,NA,d,0.6406,Hi,,,,,,5,,,,,,,,high,20,0,20,0,1,,,,,,,,,
292501,2022-12-04_06h43.58.425,vts_reward_expectancy_bt,2022.2.4,Win32,145.0326323,Chrome,1122,631,,,,,1,1331,,,,,,,,,,,,,,,,,132,Y,circle,1,1,,,,,,,,,,,,,,,,repeat,number,numRpt,d,0.5142,Hi,,,,,,5,,,,,,,,high,21,0,21,0,1,,,,,,,,,
292501,2022-12-04_06h43.58.425,vts_reward_expectancy_bt,2022.2.4,Win32,145.0326323,Chrome,1122,631,,,,,10,1341,,,,,,,,,,,,,,,,,139,U,triangle,1,0,,,,,,,,,,,,,,,,repeat,number,numRpt,d,0.5204,Hi,,,,,,5,,,,,,,,high,22,0,22,0,1,,,,,,,,,
292501,2022-12-04_06h43.58.425,vts_reward_expectancy_bt,2022.2.4,Win32,145.0326323,Chrome,1122,631,,,,,10,1351,,,,,,,,,,,,,,,,,174,W,star,1,0,,,,,,,,,,,,,,,,repeat,number,numRpt,f,0.4379,Lo,,,,,,5,,,,,,,,high,23,0,23,0,1,,,,,,,,,
292501,2022-12-04_06h43.58.425,vts_reward_expectancy_bt,2022.2.4,Win32,145.0326323,Chrome,1122,631,,,,,1,1352,,,,,,,,,,,,,,,,,132,S,star,1,0,,,,,,,,,,,,,,,,repeat,number,numRpt,d,0.3558,Lo,,,,,,5,,,,,,,,high,24,0,24,0,1,,,,,,,,,
292501,2022-12-04_06h43.58.425,vts_reward_expectancy_bt,2022.2.4,Win32,145.0326323,Chrome,1122,631,,,,,10,1362,,,,,,,,,,,,,,,,,181,U,hexagon,1,0,,,,,,,,,,,,,,,,repeat,number,numRpt,f,0.4587,Lo,,,,,,5,,,,,,,,high,25,0,25,0,1,,,,,,,,,
292501,2022-12-04_06h43.58.425,vts_reward_expectancy_bt,2022.2.4,Win32,145.0326323,Chrome,1122,631,,,,,0,1362,,,,,,,,,,,,,,,,,160,D,triangle,0,0,,,,,,,,,,,,,,,,repeat,number,NA,d,0.4733,Lo,,,,,,5,,,,,,,,high,26,0,26,0,1,,,,,,,,,
292501,2022-12-04_06h43.58.425,vts_reward_expectancy_bt,2022.2.4,Win32,145.0326323,Chrome,1122,631,,,,,10,1372,,,,,,,,,,,,,,,,,146,W,circle,1,1,,,,,,,,,,,,,,,,repeat,number,numRpt,d,0.674,Hi,,,,,,5,,,,,,,,high,27,0,27,0,1,,,,,,,,,
292501,2022-12-04_06h43.58.425,vts_reward_expectancy_bt,2022.2.4,Win32,145.0326323,Chrome,1122,631,,,,,1,1373,,,,,,,,,,,,,,,,,139,H,star,1,0,,,,,,,,,,,,,,,,repeat,number,numRpt,d,0.5213,Lo,,,,,,5,,,,,,,,high,28,0,28,0,1,,,,,,,,,
292501,2022-12-04_06h43.58.425,vts_reward_expectancy_bt,2022.2.4,Win32,145.0326323,Chrome,1122,631,,,,,1,1374,,,,,,,,,,,,,,,,,174,Y,hexagon,1,0,,,,,,,,,,,,,,,,repeat,number,numRpt,f,0.476,Lo,,,,,,5,,,,,,,,high,29,0,29,0,1,,,,,,,,,
292501,2022-12-04_06h43.58.425,vts_reward_expectancy_bt,2022.2.4,Win32,145.0326323,Chrome,1122,631,,,,,10,1384,,,,,,,,,,,,,,,,,125,B,circle,1,0,,,,,,,,,,,,,,,,repeat,number,numRpt,d,0.4933,Hi,,,,,,5,,,,,,,,high,30,0,30,0,1,,,,,,,,,
292501,2022-12-04_06h43.58.425,vts_reward_expectancy_bt,2022.2.4,Win32,145.0326323,Chrome,1122,631,,,,,0,1384,,,,,,,,,,,,,,,,,167,F,triangle,0,0,,,,,,,,,,,,,,,,repeat,number,NA,d,0.5771,Hi,,,,,,5,,,,,,,,high,31,0,31,0,1,,,,,,,,,
292501,2022-12-04_06h43.58.425,vts_reward_expectancy_bt,2022.2.4,Win32,145.0326323,Chrome,1122,631,,,,,0,1384,,,,,,,,,,,,,,,,,132,S,circle,1,1,,,,,,,,,,,,,,,,repeat,number,numRpt,d,0.4987,Hi,,,,,,6,,,,,,space,0.4003,high,0,0,0,0,1,,,,,,,,,
292501,2022-12-04_06h43.58.425,vts_reward_expectancy_bt,2022.2.4,Win32,145.0326323,Chrome,1122,631,,,,,10,1394,,,,,,,,,,,,,,,,,146,F,triangle,1,0,,,,,,,,,,,,,,,,repeat,number,numRpt,d,0.3963,Hi,,,,,,6,,,,,,,,high,1,0,1,0,1,,,,,,,,,
292501,2022-12-04_06h43.58.425,vts_reward_expectancy_bt,2022.2.4,Win32,145.0326323,Chrome,1122,631,,,,,10,1404,,,,,,,,,,,,,,,,,160,D,hexagon,1,0,,,,,,,,,,,,,,,,repeat,number,numRpt,f,0.4831,Lo,,,,,,6,,,,,,,,high,2,0,2,0,1,,,,,,,,,
292501,2022-12-04_06h43.58.425,vts_reward_expectancy_bt,2022.2.4,Win32,145.0326323,Chrome,1122,631,,,,,1,1405,,,,,,,,,,,,,,,,,174,H,star,1,0,,,,,,,,,,,,,,,,repeat,number,numRpt,f,0.5347,Lo,,,,,,6,,,,,,,,high,3,0,3,0,1,,,,,,,,,
292501,2022-12-04_06h43.58.425,vts_reward_expectancy_bt,2022.2.4,Win32,145.0326323,Chrome,1122,631,,,,,10,1415,,,,,,,,,,,,,,,,,181,Y,circle,1,0,,,,,,,,,,,,,,,,repeat,number,numRpt,f,0.3857,Hi,,,,,,6,,,,,,,,high,4,0,4,0,1,,,,,,,,,
292501,2022-12-04_06h43.58.425,vts_reward_expectancy_bt,2022.2.4,Win32,145.0326323,Chrome,1122,631,,,,,0,1415,,,,,,,,,,,,,,,,,139,B,triangle,1,0,,,,,,,,,,,,,,,,repeat,number,numRpt,d,0.5235,Hi,,,,,,6,,,,,,,,high,5,0,5,0,1,,,,,,,,,
292501,2022-12-04_06h43.58.425,vts_reward_expectancy_bt,2022.2.4,Win32,145.0326323,Chrome,1122,631,,,,,1,1416,,,,,,,,,,,,,,,,,125,U,hexagon,1,0,,,,,,,,,,,,,,,,repeat,number,numRpt,d,0.4329,Lo,,,,,,6,,,,,,,,high,6,0,6,0,1,,,,,,,,,
292501,2022-12-04_06h43.58.425,vts_reward_expectancy_bt,2022.2.4,Win32,145.0326323,Chrome,1122,631,,,,,1,1417,,,,,,,,,,,,,,,,,167,W,star,1,0,,,,,,,,,,,,,,,,repeat,number,numRpt,f,0.59,Lo,,,,,,6,,,,,,,,high,7,0,7,0,1,,,,,,,,,
292501,2022-12-04_06h43.58.425,vts_reward_expectancy_bt,2022.2.4,Win32,145.0326323,Chrome,1122,631,,,,,1,1418,,,,,,,,,,,,,,,,,132,S,hexagon,1,0,,,,,,,,,,,,,,,,repeat,number,numRpt,d,0.4252,Lo,,,,,,6,,,,,,,,high,8,0,8,0,1,,,,,,,,,
292501,2022-12-04_06h43.58.425,vts_reward_expectancy_bt,2022.2.4,Win32,145.0326323,Chrome,1122,631,,,,,1,1419,,,,,,,,,,,,,,,,,146,F,star,1,0,,,,,,,,,,,,,,,,repeat,number,numRpt,d,0.5494,Lo,,,,,,6,,,,,,,,high,9,0,9,0,1,,,,,,,,,
292501,2022-12-04_06h43.58.425,vts_reward_expectancy_bt,2022.2.4,Win32,145.0326323,Chrome,1122,631,,,,,0,1419,,,,,,,,,,,,,,,,,160,D,circle,1,0,,,,,,,,,,,,,,,,repeat,number,numRpt,f,2.015,Hi,,,,,,6,,,,,,,,high,10,0,10,0,1,,,,,,,,,
292501,2022-12-04_06h43.58.425,vts_reward_expectancy_bt,2022.2.4,Win32,145.0326323,Chrome,1122,631,,,,,0,1419,,,,,,,,,,,,,,,,,174,H,triangle,1,0,,,,,,,,,,,,,,,,repeat,number,numRpt,f,0.5367,Hi,,,,,,6,,,,,,,,high,11,0,11,0,1,,,,,,,,,
292501,2022-12-04_06h43.58.425,vts_reward_expectancy_bt,2022.2.4,Win32,145.0326323,Chrome,1122,631,,,,,1,1420,,,,,,,,,,,,,,,,,181,Y,hexagon,1,0,,,,,,,,,,,,,,,,repeat,number,numRpt,f,0.4934,Lo,,,,,,6,,,,,,,,high,12,0,12,0,1,,,,,,,,,
292501,2022-12-04_06h43.58.425,vts_reward_expectancy_bt,2022.2.4,Win32,145.0326323,Chrome,1122,631,,,,,10,1430,,,,,,,,,,,,,,,,,139,B,triangle,1,0,,,,,,,,,,,,,,,,repeat,number,numRpt,d,0.4474,Hi,,,,,,6,,,,,,,,high,13,0,13,0,1,,,,,,,,,
292501,2022-12-04_06h43.58.425,vts_reward_expectancy_bt,2022.2.4,Win32,145.0326323,Chrome,1122,631,,,,,1,1431,,,,,,,,,,,,,,,,,125,U,star,1,0,,,,,,,,,,,,,,,,repeat,number,numRpt,d,0.4604,Lo,,,,,,6,,,,,,,,high,14,0,14,0,1,,,,,,,,,
