participant,date,expName,psychopyVersion,OS,frameRate,browser,xResolution,yResolution,key_resp.keys,key_resp.rt,training_resp.keys,training_resp.rt,points_trial,points_cumul,trainBlock,training.thisRepN,training.thisTrialN,training.thisN,training.thisIndex,training.ran,LTriangleOpac,LCircleOpac,LHexagonOpac,LStarOpac,RTriangleOpac,RCircleOpac,RHexagonOpac,RStarOpac,LShape_ID,RShape_ID,curr_topStim,curr_bottStim,curr_shape,acc,E1,target_resp_prac1.keys,target_resp_prac1.rt,pracBlock,task1_prac_trials.thisRepN,task1_prac_trials.thisTrialN,task1_prac_trials.thisN,task1_prac_trials.thisIndex,task1_prac_trials.ran,target_resp_prac2.keys,target_resp_prac2.rt,task2_praac_trials.thisRepN,task2_praac_trials.thisTrialN,task2_praac_trials.thisN,task2_praac_trials.thisIndex,task2_praac_trials.ran,alt,task,condition,target_resp.keys,target_resp.rt,rewCond,vts_practice_trials.thisRepN,vts_practice_trials.thisTrialN,vts_practice_trials.thisN,vts_practice_trials.thisIndex,vts_practice_trials.ran,blockNum,trials_norew.thisRepN,trials_norew.thisTrialN,trials_norew.thisN,trials_norew.thisIndex,trials_norew.ran,key_resp_2.keys,key_resp_2.rt,rewExpectancy,trials_rew.thisRepN,trials_rew.thisTrialN,trials_rew.thisN,trials_rew.thisIndex,trials_rew.ran,Q1,Q2,Q2_text,Q3,Q4,Q5_text,Q5,xRes,yRes
292612,2022-12-07_14h19.27.698,vts_reward_expectancy_bt,2022.2.4,Win32,59.96282305,Chrome,1440,960,,,,,,,,,,,,,,,,,,,,,,,,,,,,,,,,,,,,,,,,,,,,,,,,,,,,,,,,,,,,,,,,,,,,,,,,,,,,
292612,2022-12-07_14h19.27.698,vts_reward_expectancy_bt,2022.2.4,Win32,59.96282305,Chrome,1440,960,space,30.8034,,,,,,,,,,,,,,,,,,,,,,,,,,,,,,,,,,,,,,,,,,,,,,,,,,,,,,,,,,,,,,,,,,,,,,,,,,
292612,2022-12-07_14h19.27.698,vts_reward_expectancy_bt,2022.2.4,Win32,59.96282305,Chrome,1440,960,,,,,,,,,,,,,,,,,,,,,,,,,,,,,,,,,,,,,,,,,,,,,,,,,,,,,,,,,,,,,,,,,,,,,,,,,,,,
292612,2022-12-07_14h19.27.698,vts_reward_expectancy_bt,2022.2.4,Win32,59.96282305,Chrome,1440,960,,,l,2.1703,10,10,0,0,0,0,8,1,0,0,1,0,0,0,0,1,hexagon,star,,,,,,,,,,,,,,,,,,,,,,,,,,,,,,,,,,,,,,,,,,,,,,,,,,,,,,
292612,2022-12-07_14h19.27.698,vts_reward_expectancy_bt,2022.2.4,Win32,59.96282305,Chrome,1440,960,,,l,1.0518,1,11,0,0,1,1,2,1,1,0,0,0,0,0,0,1,triangle,star,,,,,,,,,,,,,,,,,,,,,,,,,,,,,,,,,,,,,,,,,,,,,,,,,,,,,,
292612,2022-12-07_14h19.27.698,vts_reward_expectancy_bt,2022.2.4,Win32,59.96282305,Chrome,1440,960,,,l,1.5835,1,12,0,0,2,2,4,1,0,1,0,0,0,0,1,0,circle,hexagon,,,,,,,,,,,,,,,,,,,,,,,,,,,,,,,,,,,,,,,,,,,,,,,,,,,,,,
292612,2022-12-07_14h19.27.698,vts_reward_expectancy_bt,2022.2.4,Win32,59.96282305,Chrome,1440,960,,,l,1.2005,1,13,0,0,3,3,0,1,1,0,0,0,0,1,0,0,triangle,circle,,,,,,,,,,,,,,,,,,,,,,,,,,,,,,,,,,,,,,,,,,,,,,,,,,,,,,
292612,2022-12-07_14h19.27.698,vts_reward_expectancy_bt,2022.2.4,Win32,59.96282305,Chrome,1440,960,,,a,1.8501,1,14,0,0,4,4,6,1,0,0,1,0,1,0,0,0,hexagon,triangle,,,,,,,,,,,,,,,,,,,,,,,,,,,,,,,,,,,,,,,,,,,,,,,,,,,,,,
292612,2022-12-07_14h19.27.698,vts_reward_expectancy_bt,2022.2.4,Win32,59.96282305,Chrome,1440,960,,,l,1.0683,1,15,0,0,5,5,3,1,0,1,0,0,1,0,0,0,circle,triangle,,,,,,,,,,,,,,,,,,,,,,,,,,,,,,,,,,,,,,,,,,,,,,,,,,,,,,
292612,2022-12-07_14h19.27.698,vts_reward_expectancy_bt,2022.2.4,Win32,59.96282305,Chrome,1440,960,,,a,0.767,10,25,0,0,6,6,5,1,0,1,0,0,0,0,0,1,circle,star,,,,,,,,,,,,,,,,,,,,,,,,,,,,,,,,,,,,,,,,,,,,,,,,,,,,,,
292612,2022-12-07_14h19.27.698,vts_reward_expectancy_bt,2022.2.4,Win32,59.96282305,Chrome,1440,960,,,l,1.6172,1,26,0,0,7,7,9,1,0,0,0,1,1,0,0,0,star,triangle,,,,,,,,,,,,,,,,,,,,,,,,,,,,,,,,,,,,,,,,,,,,,,,,,,,,,,
292612,2022-12-07_14h19.27.698,vts_reward_expectancy_bt,2022.2.4,Win32,59.96282305,Chrome,1440,960,,,a,1.9692,10,36,0,0,8,8,1,1,1,0,0,0,0,0,1,0,triangle,hexagon,,,,,,,,,,,,,,,,,,,,,,,,,,,,,,,,,,,,,,,,,,,,,,,,,,,,,,
292612,2022-12-07_14h19.27.698,vts_reward_expectancy_bt,2022.2.4,Win32,59.96282305,Chrome,1440,960,,,l,1.0724,1,37,0,0,9,9,7,1,0,0,1,0,0,1,0,0,hexagon,circle,,,,,,,,,,,,,,,,,,,,,,,,,,,,,,,,,,,,,,,,,,,,,,,,,,,,,,
292612,2022-12-07_14h19.27.698,vts_reward_expectancy_bt,2022.2.4,Win32,59.96282305,Chrome,1440,960,,,l,2.5192,1,38,0,0,10,10,11,1,0,0,0,1,0,0,1,0,star,hexagon,,,,,,,,,,,,,,,,,,,,,,,,,,,,,,,,,,,,,,,,,,,,,,,,,,,,,,
292612,2022-12-07_14h19.27.698,vts_reward_expectancy_bt,2022.2.4,Win32,59.96282305,Chrome,1440,960,,,l,1.0145,10,48,0,0,11,11,10,1,0,0,0,1,0,1,0,0,star ,circle,,,,,,,,,,,,,,,,,,,,,,,,,,,,,,,,,,,,,,,,,,,,,,,,,,,,,,
292612,2022-12-07_14h19.27.698,vts_reward_expectancy_bt,2022.2.4,Win32,59.96282305,Chrome,1440,960,,,l,1.0231,10,58,0,1,0,12,9,1,0,0,0,1,1,0,0,0,star,triangle,,,,,,,,,,,,,,,,,,,,,,,,,,,,,,,,,,,,,,,,,,,,,,,,,,,,,,
292612,2022-12-07_14h19.27.698,vts_reward_expectancy_bt,2022.2.4,Win32,59.96282305,Chrome,1440,960,,,a,1.3061,1,59,0,1,1,13,7,1,0,0,1,0,0,1,0,0,hexagon,circle,,,,,,,,,,,,,,,,,,,,,,,,,,,,,,,,,,,,,,,,,,,,,,,,,,,,,,
292612,2022-12-07_14h19.27.698,vts_reward_expectancy_bt,2022.2.4,Win32,59.96282305,Chrome,1440,960,,,a,4.7232,10,69,0,1,2,14,11,1,0,0,0,1,0,0,1,0,star,hexagon,,,,,,,,,,,,,,,,,,,,,,,,,,,,,,,,,,,,,,,,,,,,,,,,,,,,,,
292612,2022-12-07_14h19.27.698,vts_reward_expectancy_bt,2022.2.4,Win32,59.96282305,Chrome,1440,960,,,l,3.6616,10,79,0,1,3,15,1,1,1,0,0,0,0,0,1,0,triangle,hexagon,,,,,,,,,,,,,,,,,,,,,,,,,,,,,,,,,,,,,,,,,,,,,,,,,,,,,,
292612,2022-12-07_14h19.27.698,vts_reward_expectancy_bt,2022.2.4,Win32,59.96282305,Chrome,1440,960,,,a,1.0999,1,80,0,1,4,16,4,1,0,1,0,0,0,0,1,0,circle,hexagon,,,,,,,,,,,,,,,,,,,,,,,,,,,,,,,,,,,,,,,,,,,,,,,,,,,,,,
292612,2022-12-07_14h19.27.698,vts_reward_expectancy_bt,2022.2.4,Win32,59.96282305,Chrome,1440,960,,,l,1.6002,10,90,0,1,5,17,0,1,1,0,0,0,0,1,0,0,triangle,circle,,,,,,,,,,,,,,,,,,,,,,,,,,,,,,,,,,,,,,,,,,,,,,,,,,,,,,
292612,2022-12-07_14h19.27.698,vts_reward_expectancy_bt,2022.2.4,Win32,59.96282305,Chrome,1440,960,,,a,0.9186,1,91,0,1,6,18,6,1,0,0,1,0,1,0,0,0,hexagon,triangle,,,,,,,,,,,,,,,,,,,,,,,,,,,,,,,,,,,,,,,,,,,,,,,,,,,,,,
292612,2022-12-07_14h19.27.698,vts_reward_expectancy_bt,2022.2.4,Win32,59.96282305,Chrome,1440,960,,,a,1.9858,10,101,0,1,7,19,3,1,0,1,0,0,1,0,0,0,circle,triangle,,,,,,,,,,,,,,,,,,,,,,,,,,,,,,,,,,,,,,,,,,,,,,,,,,,,,,
292612,2022-12-07_14h19.27.698,vts_reward_expectancy_bt,2022.2.4,Win32,59.96282305,Chrome,1440,960,,,a,7.3011,1,102,0,1,8,20,2,1,1,0,0,0,0,0,0,1,triangle,star,,,,,,,,,,,,,,,,,,,,,,,,,,,,,,,,,,,,,,,,,,,,,,,,,,,,,,
292612,2022-12-07_14h19.27.698,vts_reward_expectancy_bt,2022.2.4,Win32,59.96282305,Chrome,1440,960,,,a,1.0504,1,103,0,1,9,21,5,1,0,1,0,0,0,0,0,1,circle,star,,,,,,,,,,,,,,,,,,,,,,,,,,,,,,,,,,,,,,,,,,,,,,,,,,,,,,
292612,2022-12-07_14h19.27.698,vts_reward_expectancy_bt,2022.2.4,Win32,59.96282305,Chrome,1440,960,,,a,1.0517,10,113,0,1,10,22,8,1,0,0,1,0,0,0,0,1,hexagon,star,,,,,,,,,,,,,,,,,,,,,,,,,,,,,,,,,,,,,,,,,,,,,,,,,,,,,,
292612,2022-12-07_14h19.27.698,vts_reward_expectancy_bt,2022.2.4,Win32,59.96282305,Chrome,1440,960,,,l,1.2169,1,114,0,1,11,23,10,1,0,0,0,1,0,1,0,0,star ,circle,,,,,,,,,,,,,,,,,,,,,,,,,,,,,,,,,,,,,,,,,,,,,,,,,,,,,,
292612,2022-12-07_14h19.27.698,vts_reward_expectancy_bt,2022.2.4,Win32,59.96282305,Chrome,1440,960,,,a,0.9548,1,115,0,2,0,24,8,1,0,0,1,0,0,0,0,1,hexagon,star,,,,,,,,,,,,,,,,,,,,,,,,,,,,,,,,,,,,,,,,,,,,,,,,,,,,,,
292612,2022-12-07_14h19.27.698,vts_reward_expectancy_bt,2022.2.4,Win32,59.96282305,Chrome,1440,960,,,l,0.7193,1,116,0,2,1,25,11,1,0,0,0,1,0,0,1,0,star,hexagon,,,,,,,,,,,,,,,,,,,,,,,,,,,,,,,,,,,,,,,,,,,,,,,,,,,,,,
292612,2022-12-07_14h19.27.698,vts_reward_expectancy_bt,2022.2.4,Win32,59.96282305,Chrome,1440,960,,,a,1.5674,1,117,0,2,2,26,9,1,0,0,0,1,1,0,0,0,star,triangle,,,,,,,,,,,,,,,,,,,,,,,,,,,,,,,,,,,,,,,,,,,,,,,,,,,,,,
292612,2022-12-07_14h19.27.698,vts_reward_expectancy_bt,2022.2.4,Win32,59.96282305,Chrome,1440,960,,,a,3.8506,10,127,0,2,3,27,2,1,1,0,0,0,0,0,0,1,triangle,star,,,,,,,,,,,,,,,,,,,,,,,,,,,,,,,,,,,,,,,,,,,,,,,,,,,,,,
292612,2022-12-07_14h19.27.698,vts_reward_expectancy_bt,2022.2.4,Win32,59.96282305,Chrome,1440,960,,,l,3.2179,1,128,0,2,4,28,6,1,0,0,1,0,1,0,0,0,hexagon,triangle,,,,,,,,,,,,,,,,,,,,,,,,,,,,,,,,,,,,,,,,,,,,,,,,,,,,,,
292612,2022-12-07_14h19.27.698,vts_reward_expectancy_bt,2022.2.4,Win32,59.96282305,Chrome,1440,960,,,l,1.2504,1,129,0,2,5,29,10,1,0,0,0,1,0,1,0,0,star ,circle,,,,,,,,,,,,,,,,,,,,,,,,,,,,,,,,,,,,,,,,,,,,,,,,,,,,,,
292612,2022-12-07_14h19.27.698,vts_reward_expectancy_bt,2022.2.4,Win32,59.96282305,Chrome,1440,960,,,a,1.1337,1,130,0,2,6,30,3,1,0,1,0,0,1,0,0,0,circle,triangle,,,,,,,,,,,,,,,,,,,,,,,,,,,,,,,,,,,,,,,,,,,,,,,,,,,,,,
292612,2022-12-07_14h19.27.698,vts_reward_expectancy_bt,2022.2.4,Win32,59.96282305,Chrome,1440,960,,,l,5.0838,10,140,0,2,7,31,1,1,1,0,0,0,0,0,1,0,triangle,hexagon,,,,,,,,,,,,,,,,,,,,,,,,,,,,,,,,,,,,,,,,,,,,,,,,,,,,,,
292612,2022-12-07_14h19.27.698,vts_reward_expectancy_bt,2022.2.4,Win32,59.96282305,Chrome,1440,960,,,a,1.2505,10,150,0,2,8,32,0,1,1,0,0,0,0,1,0,0,triangle,circle,,,,,,,,,,,,,,,,,,,,,,,,,,,,,,,,,,,,,,,,,,,,,,,,,,,,,,
292612,2022-12-07_14h19.27.698,vts_reward_expectancy_bt,2022.2.4,Win32,59.96282305,Chrome,1440,960,,,l,4.2847,1,151,0,2,9,33,7,1,0,0,1,0,0,1,0,0,hexagon,circle,,,,,,,,,,,,,,,,,,,,,,,,,,,,,,,,,,,,,,,,,,,,,,,,,,,,,,
292612,2022-12-07_14h19.27.698,vts_reward_expectancy_bt,2022.2.4,Win32,59.96282305,Chrome,1440,960,,,l,1.3832,10,161,0,2,10,34,5,1,0,1,0,0,0,0,0,1,circle,star,,,,,,,,,,,,,,,,,,,,,,,,,,,,,,,,,,,,,,,,,,,,,,,,,,,,,,
292612,2022-12-07_14h19.27.698,vts_reward_expectancy_bt,2022.2.4,Win32,59.96282305,Chrome,1440,960,,,l,8.4202,1,162,0,2,11,35,4,1,0,1,0,0,0,0,1,0,circle,hexagon,,,,,,,,,,,,,,,,,,,,,,,,,,,,,,,,,,,,,,,,,,,,,,,,,,,,,,
292612,2022-12-07_14h19.27.698,vts_reward_expectancy_bt,2022.2.4,Win32,59.96282305,Chrome,1440,960,,,l,3.7666,1,163,1,0,0,0,2,1,1,0,0,0,0,0,0,1,triangle,star,,,,,,,,,,,,,,,,,,,,,,,,,,,,,,,,,,,,,,,,,,,,,,,,,,,,,,
292612,2022-12-07_14h19.27.698,vts_reward_expectancy_bt,2022.2.4,Win32,59.96282305,Chrome,1440,960,,,l,2.4619,1,164,1,0,1,1,0,1,1,0,0,0,0,1,0,0,triangle,circle,,,,,,,,,,,,,,,,,,,,,,,,,,,,,,,,,,,,,,,,,,,,,,,,,,,,,,
292612,2022-12-07_14h19.27.698,vts_reward_expectancy_bt,2022.2.4,Win32,59.96282305,Chrome,1440,960,,,a,7.1548,1,165,1,0,2,2,10,1,0,0,0,1,0,1,0,0,star ,circle,,,,,,,,,,,,,,,,,,,,,,,,,,,,,,,,,,,,,,,,,,,,,,,,,,,,,,
292612,2022-12-07_14h19.27.698,vts_reward_expectancy_bt,2022.2.4,Win32,59.96282305,Chrome,1440,960,,,a,2.7027,10,175,1,0,3,3,3,1,0,1,0,0,1,0,0,0,circle,triangle,,,,,,,,,,,,,,,,,,,,,,,,,,,,,,,,,,,,,,,,,,,,,,,,,,,,,,
292612,2022-12-07_14h19.27.698,vts_reward_expectancy_bt,2022.2.4,Win32,59.96282305,Chrome,1440,960,,,a,2.1374,1,176,1,0,4,4,8,1,0,0,1,0,0,0,0,1,hexagon,star,,,,,,,,,,,,,,,,,,,,,,,,,,,,,,,,,,,,,,,,,,,,,,,,,,,,,,
292612,2022-12-07_14h19.27.698,vts_reward_expectancy_bt,2022.2.4,Win32,59.96282305,Chrome,1440,960,,,l,1.6501,10,186,1,0,5,5,1,1,1,0,0,0,0,0,1,0,triangle,hexagon,,,,,,,,,,,,,,,,,,,,,,,,,,,,,,,,,,,,,,,,,,,,,,,,,,,,,,
292612,2022-12-07_14h19.27.698,vts_reward_expectancy_bt,2022.2.4,Win32,59.96282305,Chrome,1440,960,,,a,2.1178,1,187,1,0,6,6,6,1,0,0,1,0,1,0,0,0,hexagon,triangle,,,,,,,,,,,,,,,,,,,,,,,,,,,,,,,,,,,,,,,,,,,,,,,,,,,,,,
292612,2022-12-07_14h19.27.698,vts_reward_expectancy_bt,2022.2.4,Win32,59.96282305,Chrome,1440,960,,,l,5.6332,1,188,1,0,7,7,7,1,0,0,1,0,0,1,0,0,hexagon,circle,,,,,,,,,,,,,,,,,,,,,,,,,,,,,,,,,,,,,,,,,,,,,,,,,,,,,,
292612,2022-12-07_14h19.27.698,vts_reward_expectancy_bt,2022.2.4,Win32,59.96282305,Chrome,1440,960,,,l,1.6989,1,189,1,0,8,8,11,1,0,0,0,1,0,0,1,0,star,hexagon,,,,,,,,,,,,,,,,,,,,,,,,,,,,,,,,,,,,,,,,,,,,,,,,,,,,,,
292612,2022-12-07_14h19.27.698,vts_reward_expectancy_bt,2022.2.4,Win32,59.96282305,Chrome,1440,960,,,l,2.4542,1,190,1,0,9,9,5,1,0,1,0,0,0,0,0,1,circle,star,,,,,,,,,,,,,,,,,,,,,,,,,,,,,,,,,,,,,,,,,,,,,,,,,,,,,,
292612,2022-12-07_14h19.27.698,vts_reward_expectancy_bt,2022.2.4,Win32,59.96282305,Chrome,1440,960,,,a,1.9001,1,191,1,0,10,10,4,1,0,1,0,0,0,0,1,0,circle,hexagon,,,,,,,,,,,,,,,,,,,,,,,,,,,,,,,,,,,,,,,,,,,,,,,,,,,,,,
292612,2022-12-07_14h19.27.698,vts_reward_expectancy_bt,2022.2.4,Win32,59.96282305,Chrome,1440,960,,,l,3.8065,10,201,1,0,11,11,9,1,0,0,0,1,1,0,0,0,star,triangle,,,,,,,,,,,,,,,,,,,,,,,,,,,,,,,,,,,,,,,,,,,,,,,,,,,,,,
292612,2022-12-07_14h19.27.698,vts_reward_expectancy_bt,2022.2.4,Win32,59.96282305,Chrome,1440,960,,,a,1.3075,10,211,1,1,0,12,6,1,0,0,1,0,1,0,0,0,hexagon,triangle,,,,,,,,,,,,,,,,,,,,,,,,,,,,,,,,,,,,,,,,,,,,,,,,,,,,,,
292612,2022-12-07_14h19.27.698,vts_reward_expectancy_bt,2022.2.4,Win32,59.96282305,Chrome,1440,960,,,a,1.6523,10,221,1,1,1,13,10,1,0,0,0,1,0,1,0,0,star ,circle,,,,,,,,,,,,,,,,,,,,,,,,,,,,,,,,,,,,,,,,,,,,,,,,,,,,,,
292612,2022-12-07_14h19.27.698,vts_reward_expectancy_bt,2022.2.4,Win32,59.96282305,Chrome,1440,960,,,a,1.5071,10,231,1,1,2,14,0,1,1,0,0,0,0,1,0,0,triangle,circle,,,,,,,,,,,,,,,,,,,,,,,,,,,,,,,,,,,,,,,,,,,,,,,,,,,,,,
292612,2022-12-07_14h19.27.698,vts_reward_expectancy_bt,2022.2.4,Win32,59.96282305,Chrome,1440,960,,,l,1.2287,10,241,1,1,3,15,8,1,0,0,1,0,0,0,0,1,hexagon,star,,,,,,,,,,,,,,,,,,,,,,,,,,,,,,,,,,,,,,,,,,,,,,,,,,,,,,
292612,2022-12-07_14h19.27.698,vts_reward_expectancy_bt,2022.2.4,Win32,59.96282305,Chrome,1440,960,,,a,1.3012,1,242,1,1,4,16,9,1,0,0,0,1,1,0,0,0,star,triangle,,,,,,,,,,,,,,,,,,,,,,,,,,,,,,,,,,,,,,,,,,,,,,,,,,,,,,
292612,2022-12-07_14h19.27.698,vts_reward_expectancy_bt,2022.2.4,Win32,59.96282305,Chrome,1440,960,,,l,0.9402,1,243,1,1,5,17,1,1,1,0,0,0,0,0,1,0,triangle,hexagon,,,,,,,,,,,,,,,,,,,,,,,,,,,,,,,,,,,,,,,,,,,,,,,,,,,,,,
292612,2022-12-07_14h19.27.698,vts_reward_expectancy_bt,2022.2.4,Win32,59.96282305,Chrome,1440,960,,,l,2.0185,1,244,1,1,6,18,2,1,1,0,0,0,0,0,0,1,triangle,star,,,,,,,,,,,,,,,,,,,,,,,,,,,,,,,,,,,,,,,,,,,,,,,,,,,,,,
292612,2022-12-07_14h19.27.698,vts_reward_expectancy_bt,2022.2.4,Win32,59.96282305,Chrome,1440,960,,,l,3.0031,1,245,1,1,7,19,5,1,0,1,0,0,0,0,0,1,circle,star,,,,,,,,,,,,,,,,,,,,,,,,,,,,,,,,,,,,,,,,,,,,,,,,,,,,,,
292612,2022-12-07_14h19.27.698,vts_reward_expectancy_bt,2022.2.4,Win32,59.96282305,Chrome,1440,960,,,a,1.7352,1,246,1,1,8,20,4,1,0,1,0,0,0,0,1,0,circle,hexagon,,,,,,,,,,,,,,,,,,,,,,,,,,,,,,,,,,,,,,,,,,,,,,,,,,,,,,
292612,2022-12-07_14h19.27.698,vts_reward_expectancy_bt,2022.2.4,Win32,59.96282305,Chrome,1440,960,,,l,3.1676,1,247,1,1,9,21,3,1,0,1,0,0,1,0,0,0,circle,triangle,,,,,,,,,,,,,,,,,,,,,,,,,,,,,,,,,,,,,,,,,,,,,,,,,,,,,,
292612,2022-12-07_14h19.27.698,vts_reward_expectancy_bt,2022.2.4,Win32,59.96282305,Chrome,1440,960,,,a,3.6839,10,257,1,1,10,22,11,1,0,0,0,1,0,0,1,0,star,hexagon,,,,,,,,,,,,,,,,,,,,,,,,,,,,,,,,,,,,,,,,,,,,,,,,,,,,,,
292612,2022-12-07_14h19.27.698,vts_reward_expectancy_bt,2022.2.4,Win32,59.96282305,Chrome,1440,960,,,l,4.001,10,267,1,1,11,23,7,1,0,0,1,0,0,1,0,0,hexagon,circle,,,,,,,,,,,,,,,,,,,,,,,,,,,,,,,,,,,,,,,,,,,,,,,,,,,,,,
292612,2022-12-07_14h19.27.698,vts_reward_expectancy_bt,2022.2.4,Win32,59.96282305,Chrome,1440,960,,,l,1.0682,10,277,1,2,0,24,7,1,0,0,1,0,0,1,0,0,hexagon,circle,,,,,,,,,,,,,,,,,,,,,,,,,,,,,,,,,,,,,,,,,,,,,,,,,,,,,,
292612,2022-12-07_14h19.27.698,vts_reward_expectancy_bt,2022.2.4,Win32,59.96282305,Chrome,1440,960,,,l,3.1675,1,278,1,2,1,25,2,1,1,0,0,0,0,0,0,1,triangle,star,,,,,,,,,,,,,,,,,,,,,,,,,,,,,,,,,,,,,,,,,,,,,,,,,,,,,,
292612,2022-12-07_14h19.27.698,vts_reward_expectancy_bt,2022.2.4,Win32,59.96282305,Chrome,1440,960,,,a,1.4509,10,288,1,2,2,26,6,1,0,0,1,0,1,0,0,0,hexagon,triangle,,,,,,,,,,,,,,,,,,,,,,,,,,,,,,,,,,,,,,,,,,,,,,,,,,,,,,
292612,2022-12-07_14h19.27.698,vts_reward_expectancy_bt,2022.2.4,Win32,59.96282305,Chrome,1440,960,,,l,10.0342,10,298,1,2,3,27,9,1,0,0,0,1,1,0,0,0,star,triangle,,,,,,,,,,,,,,,,,,,,,,,,,,,,,,,,,,,,,,,,,,,,,,,,,,,,,,
292612,2022-12-07_14h19.27.698,vts_reward_expectancy_bt,2022.2.4,Win32,59.96282305,Chrome,1440,960,,,a,4.3367,1,299,1,2,4,28,11,1,0,0,0,1,0,0,1,0,star,hexagon,,,,,,,,,,,,,,,,,,,,,,,,,,,,,,,,,,,,,,,,,,,,,,,,,,,,,,
292612,2022-12-07_14h19.27.698,vts_reward_expectancy_bt,2022.2.4,Win32,59.96282305,Chrome,1440,960,,,l,2.2054,1,300,1,2,5,29,4,1,0,1,0,0,0,0,1,0,circle,hexagon,,,,,,,,,,,,,,,,,,,,,,,,,,,,,,,,,,,,,,,,,,,,,,,,,,,,,,
292612,2022-12-07_14h19.27.698,vts_reward_expectancy_bt,2022.2.4,Win32,59.96282305,Chrome,1440,960,,,a,1.2173,1,301,1,2,6,30,5,1,0,1,0,0,0,0,0,1,circle,star,,,,,,,,,,,,,,,,,,,,,,,,,,,,,,,,,,,,,,,,,,,,,,,,,,,,,,
292612,2022-12-07_14h19.27.698,vts_reward_expectancy_bt,2022.2.4,Win32,59.96282305,Chrome,1440,960,,,l,1.8176,1,302,1,2,7,31,1,1,1,0,0,0,0,0,1,0,triangle,hexagon,,,,,,,,,,,,,,,,,,,,,,,,,,,,,,,,,,,,,,,,,,,,,,,,,,,,,,
292612,2022-12-07_14h19.27.698,vts_reward_expectancy_bt,2022.2.4,Win32,59.96282305,Chrome,1440,960,,,l,6.4862,10,312,1,2,8,32,8,1,0,0,1,0,0,0,0,1,hexagon,star,,,,,,,,,,,,,,,,,,,,,,,,,,,,,,,,,,,,,,,,,,,,,,,,,,,,,,
292612,2022-12-07_14h19.27.698,vts_reward_expectancy_bt,2022.2.4,Win32,59.96282305,Chrome,1440,960,,,a,9.6857,10,322,1,2,9,33,10,1,0,0,0,1,0,1,0,0,star ,circle,,,,,,,,,,,,,,,,,,,,,,,,,,,,,,,,,,,,,,,,,,,,,,,,,,,,,,
292612,2022-12-07_14h19.27.698,vts_reward_expectancy_bt,2022.2.4,Win32,59.96282305,Chrome,1440,960,,,l,2.9824,1,323,1,2,10,34,3,1,0,1,0,0,1,0,0,0,circle,triangle,,,,,,,,,,,,,,,,,,,,,,,,,,,,,,,,,,,,,,,,,,,,,,,,,,,,,,
292612,2022-12-07_14h19.27.698,vts_reward_expectancy_bt,2022.2.4,Win32,59.96282305,Chrome,1440,960,,,l,1.7493,1,324,1,2,11,35,0,1,1,0,0,0,0,1,0,0,triangle,circle,,,,,,,,,,,,,,,,,,,,,,,,,,,,,,,,,,,,,,,,,,,,,,,,,,,,,,
292612,2022-12-07_14h19.27.698,vts_reward_expectancy_bt,2022.2.4,Win32,59.96282305,Chrome,1440,960,,,l,5.4718,10,334,2,0,0,0,2,1,1,0,0,0,0,0,0,1,triangle,star,,,,,,,,,,,,,,,,,,,,,,,,,,,,,,,,,,,,,,,,,,,,,,,,,,,,,,
292612,2022-12-07_14h19.27.698,vts_reward_expectancy_bt,2022.2.4,Win32,59.96282305,Chrome,1440,960,,,a,1.7007,10,344,2,0,1,1,0,1,1,0,0,0,0,1,0,0,triangle,circle,,,,,,,,,,,,,,,,,,,,,,,,,,,,,,,,,,,,,,,,,,,,,,,,,,,,,,
292612,2022-12-07_14h19.27.698,vts_reward_expectancy_bt,2022.2.4,Win32,59.96282305,Chrome,1440,960,,,l,3.3498,10,354,2,0,2,2,3,1,0,1,0,0,1,0,0,0,circle,triangle,,,,,,,,,,,,,,,,,,,,,,,,,,,,,,,,,,,,,,,,,,,,,,,,,,,,,,
292612,2022-12-07_14h19.27.698,vts_reward_expectancy_bt,2022.2.4,Win32,59.96282305,Chrome,1440,960,,,a,1.2411,1,355,2,0,3,3,6,1,0,0,1,0,1,0,0,0,hexagon,triangle,,,,,,,,,,,,,,,,,,,,,,,,,,,,,,,,,,,,,,,,,,,,,,,,,,,,,,
292612,2022-12-07_14h19.27.698,vts_reward_expectancy_bt,2022.2.4,Win32,59.96282305,Chrome,1440,960,,,a,4.9019,1,356,2,0,4,4,7,1,0,0,1,0,0,1,0,0,hexagon,circle,,,,,,,,,,,,,,,,,,,,,,,,,,,,,,,,,,,,,,,,,,,,,,,,,,,,,,
292612,2022-12-07_14h19.27.698,vts_reward_expectancy_bt,2022.2.4,Win32,59.96282305,Chrome,1440,960,,,l,1.9359,10,366,2,0,5,5,11,1,0,0,0,1,0,0,1,0,star,hexagon,,,,,,,,,,,,,,,,,,,,,,,,,,,,,,,,,,,,,,,,,,,,,,,,,,,,,,
292612,2022-12-07_14h19.27.698,vts_reward_expectancy_bt,2022.2.4,Win32,59.96282305,Chrome,1440,960,,,l,8.5176,10,376,2,0,6,6,8,1,0,0,1,0,0,0,0,1,hexagon,star,,,,,,,,,,,,,,,,,,,,,,,,,,,,,,,,,,,,,,,,,,,,,,,,,,,,,,
292612,2022-12-07_14h19.27.698,vts_reward_expectancy_bt,2022.2.4,Win32,59.96282305,Chrome,1440,960,,,a,2.8507,10,386,2,0,7,7,4,1,0,1,0,0,0,0,1,0,circle,hexagon,,,,,,,,,,,,,,,,,,,,,,,,,,,,,,,,,,,,,,,,,,,,,,,,,,,,,,
292612,2022-12-07_14h19.27.698,vts_reward_expectancy_bt,2022.2.4,Win32,59.96282305,Chrome,1440,960,,,l,1.3573,1,387,2,0,8,8,5,1,0,1,0,0,0,0,0,1,circle,star,,,,,,,,,,,,,,,,,,,,,,,,,,,,,,,,,,,,,,,,,,,,,,,,,,,,,,
292612,2022-12-07_14h19.27.698,vts_reward_expectancy_bt,2022.2.4,Win32,59.96282305,Chrome,1440,960,,,l,2.05,10,397,2,0,9,9,9,1,0,0,0,1,1,0,0,0,star,triangle,,,,,,,,,,,,,,,,,,,,,,,,,,,,,,,,,,,,,,,,,,,,,,,,,,,,,,
292612,2022-12-07_14h19.27.698,vts_reward_expectancy_bt,2022.2.4,Win32,59.96282305,Chrome,1440,960,,,a,9.4205,10,407,2,0,10,10,10,1,0,0,0,1,0,1,0,0,star ,circle,,,,,,,,,,,,,,,,,,,,,,,,,,,,,,,,,,,,,,,,,,,,,,,,,,,,,,
292612,2022-12-07_14h19.27.698,vts_reward_expectancy_bt,2022.2.4,Win32,59.96282305,Chrome,1440,960,,,a,1.702,1,408,2,0,11,11,1,1,1,0,0,0,0,0,1,0,triangle,hexagon,,,,,,,,,,,,,,,,,,,,,,,,,,,,,,,,,,,,,,,,,,,,,,,,,,,,,,
292612,2022-12-07_14h19.27.698,vts_reward_expectancy_bt,2022.2.4,Win32,59.96282305,Chrome,1440,960,,,a,1.8395,1,409,2,1,0,12,4,1,0,1,0,0,0,0,1,0,circle,hexagon,,,,,,,,,,,,,,,,,,,,,,,,,,,,,,,,,,,,,,,,,,,,,,,,,,,,,,
292612,2022-12-07_14h19.27.698,vts_reward_expectancy_bt,2022.2.4,Win32,59.96282305,Chrome,1440,960,,,a,2.1887,10,419,2,1,1,13,8,1,0,0,1,0,0,0,0,1,hexagon,star,,,,,,,,,,,,,,,,,,,,,,,,,,,,,,,,,,,,,,,,,,,,,,,,,,,,,,
292612,2022-12-07_14h19.27.698,vts_reward_expectancy_bt,2022.2.4,Win32,59.96282305,Chrome,1440,960,,,l,2.7006,1,420,2,1,2,14,1,1,1,0,0,0,0,0,1,0,triangle,hexagon,,,,,,,,,,,,,,,,,,,,,,,,,,,,,,,,,,,,,,,,,,,,,,,,,,,,,,
292612,2022-12-07_14h19.27.698,vts_reward_expectancy_bt,2022.2.4,Win32,59.96282305,Chrome,1440,960,,,l,3.0995,10,430,2,1,3,15,3,1,0,1,0,0,1,0,0,0,circle,triangle,,,,,,,,,,,,,,,,,,,,,,,,,,,,,,,,,,,,,,,,,,,,,,,,,,,,,,
292612,2022-12-07_14h19.27.698,vts_reward_expectancy_bt,2022.2.4,Win32,59.96282305,Chrome,1440,960,,,l,1.5352,10,440,2,1,4,16,7,1,0,0,1,0,0,1,0,0,hexagon,circle,,,,,,,,,,,,,,,,,,,,,,,,,,,,,,,,,,,,,,,,,,,,,,,,,,,,,,
292612,2022-12-07_14h19.27.698,vts_reward_expectancy_bt,2022.2.4,Win32,59.96282305,Chrome,1440,960,,,l,1.217,1,441,2,1,5,17,6,1,0,0,1,0,1,0,0,0,hexagon,triangle,,,,,,,,,,,,,,,,,,,,,,,,,,,,,,,,,,,,,,,,,,,,,,,,,,,,,,
292612,2022-12-07_14h19.27.698,vts_reward_expectancy_bt,2022.2.4,Win32,59.96282305,Chrome,1440,960,,,l,5.5353,1,442,2,1,6,18,0,1,1,0,0,0,0,1,0,0,triangle,circle,,,,,,,,,,,,,,,,,,,,,,,,,,,,,,,,,,,,,,,,,,,,,,,,,,,,,,
292612,2022-12-07_14h19.27.698,vts_reward_expectancy_bt,2022.2.4,Win32,59.96282305,Chrome,1440,960,,,a,0.3814,10,452,2,1,7,19,5,1,0,1,0,0,0,0,0,1,circle,star,,,,,,,,,,,,,,,,,,,,,,,,,,,,,,,,,,,,,,,,,,,,,,,,,,,,,,
292612,2022-12-07_14h19.27.698,vts_reward_expectancy_bt,2022.2.4,Win32,59.96282305,Chrome,1440,960,,,a,0.9144,10,462,2,1,8,20,10,1,0,0,0,1,0,1,0,0,star ,circle,,,,,,,,,,,,,,,,,,,,,,,,,,,,,,,,,,,,,,,,,,,,,,,,,,,,,,
292612,2022-12-07_14h19.27.698,vts_reward_expectancy_bt,2022.2.4,Win32,59.96282305,Chrome,1440,960,,,a,0.8509,10,472,2,1,9,21,11,1,0,0,0,1,0,0,1,0,star,hexagon,,,,,,,,,,,,,,,,,,,,,,,,,,,,,,,,,,,,,,,,,,,,,,,,,,,,,,
292612,2022-12-07_14h19.27.698,vts_reward_expectancy_bt,2022.2.4,Win32,59.96282305,Chrome,1440,960,,,a,1.0341,1,473,2,1,10,22,2,1,1,0,0,0,0,0,0,1,triangle,star,,,,,,,,,,,,,,,,,,,,,,,,,,,,,,,,,,,,,,,,,,,,,,,,,,,,,,
292612,2022-12-07_14h19.27.698,vts_reward_expectancy_bt,2022.2.4,Win32,59.96282305,Chrome,1440,960,,,l,0.2871,10,483,2,1,11,23,9,1,0,0,0,1,1,0,0,0,star,triangle,,,,,,,,,,,,,,,,,,,,,,,,,,,,,,,,,,,,,,,,,,,,,,,,,,,,,,
292612,2022-12-07_14h19.27.698,vts_reward_expectancy_bt,2022.2.4,Win32,59.96282305,Chrome,1440,960,,,l,0.2405,10,493,2,2,0,24,0,1,1,0,0,0,0,1,0,0,triangle,circle,,,,,,,,,,,,,,,,,,,,,,,,,,,,,,,,,,,,,,,,,,,,,,,,,,,,,,
292612,2022-12-07_14h19.27.698,vts_reward_expectancy_bt,2022.2.4,Win32,59.96282305,Chrome,1440,960,,,l,0.3669,10,503,2,2,1,25,5,1,0,1,0,0,0,0,0,1,circle,star,,,,,,,,,,,,,,,,,,,,,,,,,,,,,,,,,,,,,,,,,,,,,,,,,,,,,,
292612,2022-12-07_14h19.27.698,vts_reward_expectancy_bt,2022.2.4,Win32,59.96282305,Chrome,1440,960,,,l,0.4366,10,513,2,2,2,26,2,1,1,0,0,0,0,0,0,1,triangle,star,,,,,,,,,,,,,,,,,,,,,,,,,,,,,,,,,,,,,,,,,,,,,,,,,,,,,,
292612,2022-12-07_14h19.27.698,vts_reward_expectancy_bt,2022.2.4,Win32,59.96282305,Chrome,1440,960,,,l,0.6703,1,514,2,2,3,27,1,1,1,0,0,0,0,0,1,0,triangle,hexagon,,,,,,,,,,,,,,,,,,,,,,,,,,,,,,,,,,,,,,,,,,,,,,,,,,,,,,
292612,2022-12-07_14h19.27.698,vts_reward_expectancy_bt,2022.2.4,Win32,59.96282305,Chrome,1440,960,,,a,0.5515,10,524,2,2,4,28,4,1,0,1,0,0,0,0,1,0,circle,hexagon,,,,,,,,,,,,,,,,,,,,,,,,,,,,,,,,,,,,,,,,,,,,,,,,,,,,,,
292612,2022-12-07_14h19.27.698,vts_reward_expectancy_bt,2022.2.4,Win32,59.96282305,Chrome,1440,960,,,a,0.3893,10,534,2,2,5,29,10,1,0,0,0,1,0,1,0,0,star ,circle,,,,,,,,,,,,,,,,,,,,,,,,,,,,,,,,,,,,,,,,,,,,,,,,,,,,,,
292612,2022-12-07_14h19.27.698,vts_reward_expectancy_bt,2022.2.4,Win32,59.96282305,Chrome,1440,960,,,a,1.0577,1,535,2,2,6,30,7,1,0,0,1,0,0,1,0,0,hexagon,circle,,,,,,,,,,,,,,,,,,,,,,,,,,,,,,,,,,,,,,,,,,,,,,,,,,,,,,
292612,2022-12-07_14h19.27.698,vts_reward_expectancy_bt,2022.2.4,Win32,59.96282305,Chrome,1440,960,,,l,0.2731,10,545,2,2,7,31,8,1,0,0,1,0,0,0,0,1,hexagon,star,,,,,,,,,,,,,,,,,,,,,,,,,,,,,,,,,,,,,,,,,,,,,,,,,,,,,,
292612,2022-12-07_14h19.27.698,vts_reward_expectancy_bt,2022.2.4,Win32,59.96282305,Chrome,1440,960,,,l,0.5012,10,555,2,2,8,32,9,1,0,0,0,1,1,0,0,0,star,triangle,,,,,,,,,,,,,,,,,,,,,,,,,,,,,,,,,,,,,,,,,,,,,,,,,,,,,,
292612,2022-12-07_14h19.27.698,vts_reward_expectancy_bt,2022.2.4,Win32,59.96282305,Chrome,1440,960,,,l,0.3855,1,556,2,2,9,33,11,1,0,0,0,1,0,0,1,0,star,hexagon,,,,,,,,,,,,,,,,,,,,,,,,,,,,,,,,,,,,,,,,,,,,,,,,,,,,,,
292612,2022-12-07_14h19.27.698,vts_reward_expectancy_bt,2022.2.4,Win32,59.96282305,Chrome,1440,960,,,a,0.3348,1,557,2,2,10,34,6,1,0,0,1,0,1,0,0,0,hexagon,triangle,,,,,,,,,,,,,,,,,,,,,,,,,,,,,,,,,,,,,,,,,,,,,,,,,,,,,,
292612,2022-12-07_14h19.27.698,vts_reward_expectancy_bt,2022.2.4,Win32,59.96282305,Chrome,1440,960,,,a,0.6041,1,558,2,2,11,35,3,1,0,1,0,0,1,0,0,0,circle,triangle,,,,,,,,,,,,,,,,,,,,,,,,,,,,,,,,,,,,,,,,,,,,,,,,,,,,,,
292612,2022-12-07_14h19.27.698,vts_reward_expectancy_bt,2022.2.4,Win32,59.96282305,Chrome,1440,960,,,,,,,,,,,,,,,,,,,,,,,146,B,star,1,0,d,1.3762,0,0,0,0,0,1,,,,,,,,,,,,,,,,,,,,,,,,,,,,,,,,,,,,,,,,,
292612,2022-12-07_14h19.27.698,vts_reward_expectancy_bt,2022.2.4,Win32,59.96282305,Chrome,1440,960,,,,,,,,,,,,,,,,,,,,,,,160,S,hexagon,1,0,f,0.808,0,1,0,1,0,1,,,,,,,,,,,,,,,,,,,,,,,,,,,,,,,,,,,,,,,,,
292612,2022-12-07_14h19.27.698,vts_reward_expectancy_bt,2022.2.4,Win32,59.96282305,Chrome,1440,960,,,,,,,,,,,,,,,,,,,,,,,139,U,triangle,1,0,d,0.6502,0,2,0,2,0,1,,,,,,,,,,,,,,,,,,,,,,,,,,,,,,,,,,,,,,,,,
292612,2022-12-07_14h19.27.698,vts_reward_expectancy_bt,2022.2.4,Win32,59.96282305,Chrome,1440,960,,,,,,,,,,,,,,,,,,,,,,,132,F,circle,1,0,d,0.7729,0,3,0,3,0,1,,,,,,,,,,,,,,,,,,,,,,,,,,,,,,,,,,,,,,,,,
292612,2022-12-07_14h19.27.698,vts_reward_expectancy_bt,2022.2.4,Win32,59.96282305,Chrome,1440,960,,,,,,,,,,,,,,,,,,,,,,,174,Y,star,1,0,f,0.7671,0,4,0,4,0,1,,,,,,,,,,,,,,,,,,,,,,,,,,,,,,,,,,,,,,,,,
292612,2022-12-07_14h19.27.698,vts_reward_expectancy_bt,2022.2.4,Win32,59.96282305,Chrome,1440,960,,,,,,,,,,,,,,,,,,,,,,,181,W,hexagon,1,0,f,0.6366,0,5,0,5,0,1,,,,,,,,,,,,,,,,,,,,,,,,,,,,,,,,,,,,,,,,,
292612,2022-12-07_14h19.27.698,vts_reward_expectancy_bt,2022.2.4,Win32,59.96282305,Chrome,1440,960,,,,,,,,,,,,,,,,,,,,,,,167,H,triangle,1,0,f,0.7028,0,6,0,6,0,1,,,,,,,,,,,,,,,,,,,,,,,,,,,,,,,,,,,,,,,,,
292612,2022-12-07_14h19.27.698,vts_reward_expectancy_bt,2022.2.4,Win32,59.96282305,Chrome,1440,960,,,,,,,,,,,,,,,,,,,,,,,125,D,circle,1,0,d,0.6894,0,7,0,7,0,1,,,,,,,,,,,,,,,,,,,,,,,,,,,,,,,,,,,,,,,,,
292612,2022-12-07_14h19.27.698,vts_reward_expectancy_bt,2022.2.4,Win32,59.96282305,Chrome,1440,960,,,,,,,,,,,,,,,,,,,,,,,146,B,star,1,0,d,0.7912,0,8,0,8,0,1,,,,,,,,,,,,,,,,,,,,,,,,,,,,,,,,,,,,,,,,,
292612,2022-12-07_14h19.27.698,vts_reward_expectancy_bt,2022.2.4,Win32,59.96282305,Chrome,1440,960,,,,,,,,,,,,,,,,,,,,,,,160,S,hexagon,1,0,f,0.835,0,9,0,9,0,1,,,,,,,,,,,,,,,,,,,,,,,,,,,,,,,,,,,,,,,,,
292612,2022-12-07_14h19.27.698,vts_reward_expectancy_bt,2022.2.4,Win32,59.96282305,Chrome,1440,960,,,,,,,,,,,,,,,,,,,,,,,125,S,circle,1,0,,,1,,,,,,k,1.418,0,0,0,0,1,,,,,,,,,,,,,,,,,,,,,,,,,,,,,,,,,,
292612,2022-12-07_14h19.27.698,vts_reward_expectancy_bt,2022.2.4,Win32,59.96282305,Chrome,1440,960,,,,,,,,,,,,,,,,,,,,,,,167,F,hexagon,1,0,,,1,,,,,,j,1.0978,1,0,1,0,1,,,,,,,,,,,,,,,,,,,,,,,,,,,,,,,,,,
292612,2022-12-07_14h19.27.698,vts_reward_expectancy_bt,2022.2.4,Win32,59.96282305,Chrome,1440,960,,,,,,,,,,,,,,,,,,,,,,,160,H,triangle,1,0,,,1,,,,,,j,0.767,2,0,2,0,1,,,,,,,,,,,,,,,,,,,,,,,,,,,,,,,,,,
292612,2022-12-07_14h19.27.698,vts_reward_expectancy_bt,2022.2.4,Win32,59.96282305,Chrome,1440,960,,,,,,,,,,,,,,,,,,,,,,,146,U,star,1,0,,,1,,,,,,k,0.7172,3,0,3,0,1,,,,,,,,,,,,,,,,,,,,,,,,,,,,,,,,,,
292612,2022-12-07_14h19.27.698,vts_reward_expectancy_bt,2022.2.4,Win32,59.96282305,Chrome,1440,960,,,,,,,,,,,,,,,,,,,,,,,139,D,circle,1,0,,,1,,,,,,j,0.7508,4,0,4,0,1,,,,,,,,,,,,,,,,,,,,,,,,,,,,,,,,,,
292612,2022-12-07_14h19.27.698,vts_reward_expectancy_bt,2022.2.4,Win32,59.96282305,Chrome,1440,960,,,,,,,,,,,,,,,,,,,,,,,181,W,hexagon,1,0,,,1,,,,,,k,0.6001,5,0,5,0,1,,,,,,,,,,,,,,,,,,,,,,,,,,,,,,,,,,
292612,2022-12-07_14h19.27.698,vts_reward_expectancy_bt,2022.2.4,Win32,59.96282305,Chrome,1440,960,,,,,,,,,,,,,,,,,,,,,,,174,B,triangle,1,0,,,1,,,,,,j,0.7742,6,0,6,0,1,,,,,,,,,,,,,,,,,,,,,,,,,,,,,,,,,,
292612,2022-12-07_14h19.27.698,vts_reward_expectancy_bt,2022.2.4,Win32,59.96282305,Chrome,1440,960,,,,,,,,,,,,,,,,,,,,,,,132,Y,star,1,0,,,1,,,,,,k,0.7058,7,0,7,0,1,,,,,,,,,,,,,,,,,,,,,,,,,,,,,,,,,,
292612,2022-12-07_14h19.27.698,vts_reward_expectancy_bt,2022.2.4,Win32,59.96282305,Chrome,1440,960,,,,,,,,,,,,,,,,,,,,,,,125,S,hexagon,1,0,,,1,,,,,,k,0.7357,8,0,8,0,1,,,,,,,,,,,,,,,,,,,,,,,,,,,,,,,,,,
292612,2022-12-07_14h19.27.698,vts_reward_expectancy_bt,2022.2.4,Win32,59.96282305,Chrome,1440,960,,,,,,,,,,,,,,,,,,,,,,,167,F,triangle,1,0,,,1,,,,,,j,0.7578,9,0,9,0,1,,,,,,,,,,,,,,,,,,,,,,,,,,,,,,,,,,
292612,2022-12-07_14h19.27.698,vts_reward_expectancy_bt,2022.2.4,Win32,59.96282305,Chrome,1440,960,,,,,0,558,,,,,,,,,,,,,,,,,132,U,hexagon,1,0,,,2,,,,,,,,,,,,,-1,number,NA,d,2.1663,vtsPrac,0,0,0,0,1,,,,,,,,,,,,,,,,,,,,,,,
292612,2022-12-07_14h19.27.698,vts_reward_expectancy_bt,2022.2.4,Win32,59.96282305,Chrome,1440,960,,,,,0,558,,,,,,,,,,,,,,,,,181,D,star,1,0,,,2,,,,,,,,,,,,,repeat,number,numRpt,f,1.2385,vtsPrac,1,0,1,0,1,,,,,,,,,,,,,,,,,,,,,,,
292612,2022-12-07_14h19.27.698,vts_reward_expectancy_bt,2022.2.4,Win32,59.96282305,Chrome,1440,960,,,,,0,558,,,,,,,,,,,,,,,,,146,Y,hexagon,1,0,,,2,,,,,,,,,,,,,switch,letter,lettSwt,k,0.8744,vtsPrac,2,0,2,0,1,,,,,,,,,,,,,,,,,,,,,,,
292612,2022-12-07_14h19.27.698,vts_reward_expectancy_bt,2022.2.4,Win32,59.96282305,Chrome,1440,960,,,,,0,558,,,,,,,,,,,,,,,,,125,B,star,1,0,,,2,,,,,,,,,,,,,repeat,letter,lettRpt,j,0.934,vtsPrac,3,0,3,0,1,,,,,,,,,,,,,,,,,,,,,,,
292612,2022-12-07_14h19.27.698,vts_reward_expectancy_bt,2022.2.4,Win32,59.96282305,Chrome,1440,960,,,,,0,558,,,,,,,,,,,,,,,,,132,U,star,1,0,,,2,,,,,,,,,,,,,repeat,letter,lettRpt,k,0.5573,vtsPrac,4,0,4,0,1,,,,,,,,,,,,,,,,,,,,,,,
292612,2022-12-07_14h19.27.698,vts_reward_expectancy_bt,2022.2.4,Win32,59.96282305,Chrome,1440,960,,,,,0,558,,,,,,,,,,,,,,,,,181,D,triangle,1,0,,,2,,,,,,,,,,,,,repeat,letter,lettRpt,j,0.8041,vtsPrac,5,0,5,0,1,,,,,,,,,,,,,,,,,,,,,,,
292612,2022-12-07_14h19.27.698,vts_reward_expectancy_bt,2022.2.4,Win32,59.96282305,Chrome,1440,960,,,,,0,558,,,,,,,,,,,,,,,,,146,Y,star,1,0,,,2,,,,,,,,,,,,,switch,number,numSwt,d,1.8337,vtsPrac,6,0,6,0,1,,,,,,,,,,,,,,,,,,,,,,,
292612,2022-12-07_14h19.27.698,vts_reward_expectancy_bt,2022.2.4,Win32,59.96282305,Chrome,1440,960,,,,,0,558,,,,,,,,,,,,,,,,,125,B,triangle,1,0,,,2,,,,,,,,,,,,,repeat,number,numRpt,d,1.1689,vtsPrac,7,0,7,0,1,,,,,,,,,,,,,,,,,,,,,,,
292612,2022-12-07_14h19.27.698,vts_reward_expectancy_bt,2022.2.4,Win32,59.96282305,Chrome,1440,960,,,,,0,558,,,,,,,,,,,,,,,,,174,Y,hexagon,1,0,,,2,,,,,,,,,,,,,switch,letter,lettSwt,k,1.1837,vtsPrac,8,0,8,0,1,,,,,,,,,,,,,,,,,,,,,,,
292612,2022-12-07_14h19.27.698,vts_reward_expectancy_bt,2022.2.4,Win32,59.96282305,Chrome,1440,960,,,,,0,558,,,,,,,,,,,,,,,,,132,B,star,1,0,,,2,,,,,,,,,,,,,switch,number,numSwt,d,1.0666,vtsPrac,9,0,9,0,1,,,,,,,,,,,,,,,,,,,,,,,
292612,2022-12-07_14h19.27.698,vts_reward_expectancy_bt,2022.2.4,Win32,59.96282305,Chrome,1440,960,,,,,0,558,,,,,,,,,,,,,,,,,125,S,star,1,0,,,2,,,,,,,,,,,,,repeat,number,numRpt,d,0.8005,vtsPrac,10,0,10,0,1,,,,,,,,,,,,,,,,,,,,,,,
292612,2022-12-07_14h19.27.698,vts_reward_expectancy_bt,2022.2.4,Win32,59.96282305,Chrome,1440,960,,,,,0,558,,,,,,,,,,,,,,,,,139,W,triangle,1,0,,,2,,,,,,,,,,,,,repeat,number,numRpt,d,1.0891,vtsPrac,11,0,11,0,1,,,,,,,,,,,,,,,,,,,,,,,
292612,2022-12-07_14h19.27.698,vts_reward_expectancy_bt,2022.2.4,Win32,59.96282305,Chrome,1440,960,,,,,0,558,,,,,,,,,,,,,,,,,139,W,circle,1,0,,,2,,,,,,,,,,,,,switch,letter,lettSwt,k,0.735,vtsPrac,12,0,12,0,1,,,,,,,,,,,,,,,,,,,,,,,
292612,2022-12-07_14h19.27.698,vts_reward_expectancy_bt,2022.2.4,Win32,59.96282305,Chrome,1440,960,,,,,0,558,,,,,,,,,,,,,,,,,146,D,triangle,1,0,,,2,,,,,,,,,,,,,switch,number,numSwt,d,0.7376,vtsPrac,13,0,13,0,1,,,,,,,,,,,,,,,,,,,,,,,
292612,2022-12-07_14h19.27.698,vts_reward_expectancy_bt,2022.2.4,Win32,59.96282305,Chrome,1440,960,,,,,0,558,,,,,,,,,,,,,,,,,160,U,circle,1,0,,,2,,,,,,,,,,,,,repeat,number,numRpt,f,1.1507,vtsPrac,14,0,14,0,1,,,,,,,,,,,,,,,,,,,,,,,
292612,2022-12-07_14h19.27.698,vts_reward_expectancy_bt,2022.2.4,Win32,59.96282305,Chrome,1440,960,,,,,0,558,,,,,,,,,,,,,,,,,125,F,hexagon,1,0,,,2,,,,,,,,,,,,,switch,letter,lettSwt,j,0.8492,vtsPrac,15,0,15,0,1,,,,,,,,,,,,,,,,,,,,,,,
292612,2022-12-07_14h19.27.698,vts_reward_expectancy_bt,2022.2.4,Win32,59.96282305,Chrome,1440,960,,,,,0,558,,,,,,,,,,,,,,,,,146,S,hexagon,1,0,,,2,,,,,,,,,,,,,repeat,letter,lettRpt,k,1.1191,vtsPrac,16,0,16,0,1,,,,,,,,,,,,,,,,,,,,,,,
292612,2022-12-07_14h19.27.698,vts_reward_expectancy_bt,2022.2.4,Win32,59.96282305,Chrome,1440,960,,,,,0,558,,,,,,,,,,,,,,,,,139,W,triangle,1,0,,,2,,,,,,,,,,,,,repeat,letter,lettRpt,k,2.4004,vtsPrac,17,0,17,0,1,,,,,,,,,,,,,,,,,,,,,,,
292612,2022-12-07_14h19.27.698,vts_reward_expectancy_bt,2022.2.4,Win32,59.96282305,Chrome,1440,960,,,,,0,558,,,,,,,,,,,,,,,,,132,D,hexagon,1,0,,,2,,,,,,,,,,,,,repeat,letter,lettRpt,j,0.9202,vtsPrac,18,0,18,0,1,,,,,,,,,,,,,,,,,,,,,,,
292612,2022-12-07_14h19.27.698,vts_reward_expectancy_bt,2022.2.4,Win32,59.96282305,Chrome,1440,960,,,,,0,558,,,,,,,,,,,,,,,,,167,U,star,1,0,,,2,,,,,,,,,,,,,switch,number,numSwt,f,0.9157,vtsPrac,19,0,19,0,1,,,,,,,,,,,,,,,,,,,,,,,
292612,2022-12-07_14h19.27.698,vts_reward_expectancy_bt,2022.2.4,Win32,59.96282305,Chrome,1440,960,,,,,0,558,,,,,,,,,,,,,,,,,160,F,circle,1,0,,,2,,,,,,,,,,,,,repeat,number,numRpt,f,2.0215,vtsPrac,20,0,20,0,1,,,,,,,,,,,,,,,,,,,,,,,
292612,2022-12-07_14h19.27.698,vts_reward_expectancy_bt,2022.2.4,Win32,59.96282305,Chrome,1440,960,,,,,0,558,,,,,,,,,,,,,,,,,125,Y,hexagon,1,0,,,2,,,,,,,,,,,,,repeat,number,numRpt,d,0.9023,vtsPrac,21,0,21,0,1,,,,,,,,,,,,,,,,,,,,,,,
292612,2022-12-07_14h19.27.698,vts_reward_expectancy_bt,2022.2.4,Win32,59.96282305,Chrome,1440,960,,,,,0,558,,,,,,,,,,,,,,,,,132,D,triangle,1,0,,,2,,,,,,,,,,,,,switch,letter,lettSwt,j,0.7974,vtsPrac,22,0,22,0,1,,,,,,,,,,,,,,,,,,,,,,,
292612,2022-12-07_14h19.27.698,vts_reward_expectancy_bt,2022.2.4,Win32,59.96282305,Chrome,1440,960,,,,,0,558,,,,,,,,,,,,,,,,,174,U,hexagon,1,0,,,2,,,,,,,,,,,,,switch,number,numSwt,f,1.2808,vtsPrac,23,0,23,0,1,,,,,,,,,,,,,,,,,,,,,,,
292612,2022-12-07_14h19.27.698,vts_reward_expectancy_bt,2022.2.4,Win32,59.96282305,Chrome,1440,960,,,,,0,558,,,,,,,,,,,,,,,,,174,U,star,1,0,,,2,,,,,,,,,,,,,repeat,number,numRpt,f,1.1512,vtsPrac,24,0,24,0,1,,,,,,,,,,,,,,,,,,,,,,,
292612,2022-12-07_14h19.27.698,vts_reward_expectancy_bt,2022.2.4,Win32,59.96282305,Chrome,1440,960,,,,,0,558,,,,,,,,,,,,,,,,,160,F,hexagon,1,0,,,2,,,,,,,,,,,,,switch,letter,lettSwt,j,1.1012,vtsPrac,25,0,25,0,1,,,,,,,,,,,,,,,,,,,,,,,
292612,2022-12-07_14h19.27.698,vts_reward_expectancy_bt,2022.2.4,Win32,59.96282305,Chrome,1440,960,,,,,0,558,,,,,,,,,,,,,,,,,146,B,star,1,0,,,2,,,,,,,,,,,,,repeat,letter,lettRpt,j,1.0481,vtsPrac,26,0,26,0,1,,,,,,,,,,,,,,,,,,,,,,,
292612,2022-12-07_14h19.27.698,vts_reward_expectancy_bt,2022.2.4,Win32,59.96282305,Chrome,1440,960,,,,,0,558,,,,,,,,,,,,,,,,,139,W,hexagon,1,0,,,2,,,,,,,,,,,,,repeat,letter,lettRpt,k,0.769,vtsPrac,27,0,27,0,1,,,,,,,,,,,,,,,,,,,,,,,
292612,2022-12-07_14h19.27.698,vts_reward_expectancy_bt,2022.2.4,Win32,59.96282305,Chrome,1440,960,,,,,0,558,,,,,,,,,,,,,,,,,181,D,star,1,0,,,2,,,,,,,,,,,,,repeat,letter,lettRpt,j,1.5168,vtsPrac,28,0,28,0,1,,,,,,,,,,,,,,,,,,,,,,,
292612,2022-12-07_14h19.27.698,vts_reward_expectancy_bt,2022.2.4,Win32,59.96282305,Chrome,1440,960,,,,,0,558,,,,,,,,,,,,,,,,,160,B,circle,1,0,,,2,,,,,,,,,,,,,switch,number,numSwt,f,1.5313,vtsPrac,29,0,29,0,1,,,,,,,,,,,,,,,,,,,,,,,
292612,2022-12-07_14h19.27.698,vts_reward_expectancy_bt,2022.2.4,Win32,59.96282305,Chrome,1440,960,,,,,0,558,,,,,,,,,,,,,,,,,174,H,star,1,0,,,2,,,,,,,,,,,,,repeat,number,numRpt,f,0.9819,vtsPrac,30,0,30,0,1,,,,,,,,,,,,,,,,,,,,,,,
292612,2022-12-07_14h19.27.698,vts_reward_expectancy_bt,2022.2.4,Win32,59.96282305,Chrome,1440,960,,,,,0,558,,,,,,,,,,,,,,,,,167,S,hexagon,1,0,,,2,,,,,,,,,,,,,repeat,number,numRpt,f,0.8499,vtsPrac,31,0,31,0,1,,,,,,,,,,,,,,,,,,,,,,,
292612,2022-12-07_14h19.27.698,vts_reward_expectancy_bt,2022.2.4,Win32,59.96282305,Chrome,1440,960,,,,,,,,,,,,,,,,,,,,,,,,,,,,,,,,,,,,,,,,,,,,,,,,,,,,,,,,,,,,,,,,,,,,,,,,,,,,
292612,2022-12-07_14h19.27.698,vts_reward_expectancy_bt,2022.2.4,Win32,59.96282305,Chrome,1440,960,,,,,,,,,,,,,,,,,,,,,,,,,,,,,,,,,,,,,,,,,,,,,,,,,,,,,,,,,,,,,,,,,,,,,,,,,,,,
292612,2022-12-07_14h19.27.698,vts_reward_expectancy_bt,2022.2.4,Win32,59.96282305,Chrome,1440,960,,,,,0,558,,,,,,,,,,,,,,,,,181,H,triangle,1,0,,,,,,,,,,,,,,,,repeat,number,numRpt,f,1.2649,noRew,,,,,,0,0,0,0,0,1,,,,,,,,,,,,,,,,,
292612,2022-12-07_14h19.27.698,vts_reward_expectancy_bt,2022.2.4,Win32,59.96282305,Chrome,1440,960,,,,,0,558,,,,,,,,,,,,,,,,,146,Y,circle,1,0,,,,,,,,,,,,,,,,repeat,number,numRpt,d,1.2148,noRew,,,,,,0,1,0,1,0,1,,,,,,,,,,,,,,,,,
292612,2022-12-07_14h19.27.698,vts_reward_expectancy_bt,2022.2.4,Win32,59.96282305,Chrome,1440,960,,,,,0,558,,,,,,,,,,,,,,,,,160,D,triangle,1,0,,,,,,,,,,,,,,,,switch,letter,lettSwt,j,2.2983,noRew,,,,,,0,2,0,2,0,1,,,,,,,,,,,,,,,,,
292612,2022-12-07_14h19.27.698,vts_reward_expectancy_bt,2022.2.4,Win32,59.96282305,Chrome,1440,960,,,,,0,558,,,,,,,,,,,,,,,,,125,F,circle,1,0,,,,,,,,,,,,,,,,repeat,letter,lettRpt,j,0.9498,noRew,,,,,,0,3,0,3,0,1,,,,,,,,,,,,,,,,,
292612,2022-12-07_14h19.27.698,vts_reward_expectancy_bt,2022.2.4,Win32,59.96282305,Chrome,1440,960,,,,,0,558,,,,,,,,,,,,,,,,,181,H,circle,1,0,,,,,,,,,,,,,,,,repeat,letter,lettRpt,j,0.6976,noRew,,,,,,0,4,0,4,0,1,,,,,,,,,,,,,,,,,
292612,2022-12-07_14h19.27.698,vts_reward_expectancy_bt,2022.2.4,Win32,59.96282305,Chrome,1440,960,,,,,0,558,,,,,,,,,,,,,,,,,146,Y,hexagon,1,0,,,,,,,,,,,,,,,,repeat,letter,lettRpt,k,0.8332,noRew,,,,,,0,5,0,5,0,1,,,,,,,,,,,,,,,,,
292612,2022-12-07_14h19.27.698,vts_reward_expectancy_bt,2022.2.4,Win32,59.96282305,Chrome,1440,960,,,,,0,558,,,,,,,,,,,,,,,,,160,D,star,1,0,,,,,,,,,,,,,,,,switch,number,numSwt,f,1.2646,noRew,,,,,,0,6,0,6,0,1,,,,,,,,,,,,,,,,,
292612,2022-12-07_14h19.27.698,vts_reward_expectancy_bt,2022.2.4,Win32,59.96282305,Chrome,1440,960,,,,,0,558,,,,,,,,,,,,,,,,,125,F,circle,1,0,,,,,,,,,,,,,,,,repeat,number,numRpt,d,1.1669,noRew,,,,,,0,7,0,7,0,1,,,,,,,,,,,,,,,,,
292612,2022-12-07_14h19.27.698,vts_reward_expectancy_bt,2022.2.4,Win32,59.96282305,Chrome,1440,960,,,,,0,558,,,,,,,,,,,,,,,,,132,F,star,1,0,,,,,,,,,,,,,,,,switch,letter,lettSwt,j,1.6143,noRew,,,,,,0,8,0,8,0,1,,,,,,,,,,,,,,,,,
292612,2022-12-07_14h19.27.698,vts_reward_expectancy_bt,2022.2.4,Win32,59.96282305,Chrome,1440,960,,,,,0,558,,,,,,,,,,,,,,,,,146,S,triangle,1,0,,,,,,,,,,,,,,,,switch,number,numSwt,d,2.1335,noRew,,,,,,0,9,0,9,0,1,,,,,,,,,,,,,,,,,
292612,2022-12-07_14h19.27.698,vts_reward_expectancy_bt,2022.2.4,Win32,59.96282305,Chrome,1440,960,,,,,0,558,,,,,,,,,,,,,,,,,181,U,triangle,0,0,,,,,,,,,,,,,,,,switch,letter,NA,j,2.2038,noRew,,,,,,0,10,0,10,0,1,,,,,,,,,,,,,,,,,
292612,2022-12-07_14h19.27.698,vts_reward_expectancy_bt,2022.2.4,Win32,59.96282305,Chrome,1440,960,,,,,0,558,,,,,,,,,,,,,,,,,160,W,hexagon,1,1,,,,,,,,,,,,,,,,repeat,letter,lettRpt,k,0.2101,noRew,,,,,,0,11,0,11,0,1,,,,,,,,,,,,,,,,,
292612,2022-12-07_14h19.27.698,vts_reward_expectancy_bt,2022.2.4,Win32,59.96282305,Chrome,1440,960,,,,,0,558,,,,,,,,,,,,,,,,,160,B,star,1,0,,,,,,,,,,,,,,,,repeat,letter,lettRpt,j,1.8231,noRew,,,,,,0,12,0,12,0,1,,,,,,,,,,,,,,,,,
292612,2022-12-07_14h19.27.698,vts_reward_expectancy_bt,2022.2.4,Win32,59.96282305,Chrome,1440,960,,,,,0,558,,,,,,,,,,,,,,,,,125,U,circle,1,0,,,,,,,,,,,,,,,,switch,number,numSwt,d,0.8178,noRew,,,,,,0,13,0,13,0,1,,,,,,,,,,,,,,,,,
292612,2022-12-07_14h19.27.698,vts_reward_expectancy_bt,2022.2.4,Win32,59.96282305,Chrome,1440,960,,,,,0,558,,,,,,,,,,,,,,,,,139,F,hexagon,1,0,,,,,,,,,,,,,,,,repeat,number,numRpt,d,1.2481,noRew,,,,,,0,14,0,14,0,1,,,,,,,,,,,,,,,,,
292612,2022-12-07_14h19.27.698,vts_reward_expectancy_bt,2022.2.4,Win32,59.96282305,Chrome,1440,960,,,,,0,558,,,,,,,,,,,,,,,,,132,S,circle,1,0,,,,,,,,,,,,,,,,repeat,number,numRpt,d,1.0341,noRew,,,,,,0,15,0,15,0,1,,,,,,,,,,,,,,,,,
292612,2022-12-07_14h19.27.698,vts_reward_expectancy_bt,2022.2.4,Win32,59.96282305,Chrome,1440,960,,,,,0,558,,,,,,,,,,,,,,,,,160,F,triangle,1,0,,,,,,,,,,,,,,,,switch,letter,lettSwt,j,1.6663,noRew,,,,,,0,16,0,16,0,1,,,,,,,,,,,,,,,,,
292612,2022-12-07_14h19.27.698,vts_reward_expectancy_bt,2022.2.4,Win32,59.96282305,Chrome,1440,960,,,,,0,558,,,,,,,,,,,,,,,,,167,S,circle,1,0,,,,,,,,,,,,,,,,repeat,letter,lettRpt,k,1.1309,noRew,,,,,,0,17,0,17,0,1,,,,,,,,,,,,,,,,,
292612,2022-12-07_14h19.27.698,vts_reward_expectancy_bt,2022.2.4,Win32,59.96282305,Chrome,1440,960,,,,,0,558,,,,,,,,,,,,,,,,,146,U,hexagon,1,0,,,,,,,,,,,,,,,,repeat,letter,lettRpt,k,2.1144,noRew,,,,,,0,18,0,18,0,1,,,,,,,,,,,,,,,,,
292612,2022-12-07_14h19.27.698,vts_reward_expectancy_bt,2022.2.4,Win32,59.96282305,Chrome,1440,960,,,,,0,558,,,,,,,,,,,,,,,,,139,H,triangle,1,0,,,,,,,,,,,,,,,,switch,number,numSwt,d,1.1153,noRew,,,,,,0,19,0,19,0,1,,,,,,,,,,,,,,,,,
292612,2022-12-07_14h19.27.698,vts_reward_expectancy_bt,2022.2.4,Win32,59.96282305,Chrome,1440,960,,,,,0,558,,,,,,,,,,,,,,,,,132,S,star,1,0,,,,,,,,,,,,,,,,repeat,number,numRpt,d,0.7158,noRew,,,,,,0,20,0,20,0,1,,,,,,,,,,,,,,,,,
292612,2022-12-07_14h19.27.698,vts_reward_expectancy_bt,2022.2.4,Win32,59.96282305,Chrome,1440,960,,,,,0,558,,,,,,,,,,,,,,,,,139,B,triangle,1,0,,,,,,,,,,,,,,,,repeat,number,numRpt,d,0.7978,noRew,,,,,,0,21,0,21,0,1,,,,,,,,,,,,,,,,,
292612,2022-12-07_14h19.27.698,vts_reward_expectancy_bt,2022.2.4,Win32,59.96282305,Chrome,1440,960,,,,,0,558,,,,,,,,,,,,,,,,,146,U,star,1,0,,,,,,,,,,,,,,,,switch,letter,lettSwt,k,1.5001,noRew,,,,,,0,22,0,22,0,1,,,,,,,,,,,,,,,,,
292612,2022-12-07_14h19.27.698,vts_reward_expectancy_bt,2022.2.4,Win32,59.96282305,Chrome,1440,960,,,,,0,558,,,,,,,,,,,,,,,,,125,H,triangle,1,0,,,,,,,,,,,,,,,,switch,number,numSwt,d,0.9494,noRew,,,,,,0,23,0,23,0,1,,,,,,,,,,,,,,,,,
292612,2022-12-07_14h19.27.698,vts_reward_expectancy_bt,2022.2.4,Win32,59.96282305,Chrome,1440,960,,,,,0,558,,,,,,,,,,,,,,,,,139,H,hexagon,1,0,,,,,,,,,,,,,,,,repeat,number,numRpt,d,0.8166,noRew,,,,,,0,24,0,24,0,1,,,,,,,,,,,,,,,,,
292612,2022-12-07_14h19.27.698,vts_reward_expectancy_bt,2022.2.4,Win32,59.96282305,Chrome,1440,960,,,,,0,558,,,,,,,,,,,,,,,,,125,W,triangle,-1,0,,,,,,,,,,,,,,,,switch,no_choice,NA,,,noRew,,,,,,0,25,0,25,0,1,,,,,,,,,,,,,,,,,
292612,2022-12-07_14h19.27.698,vts_reward_expectancy_bt,2022.2.4,Win32,59.96282305,Chrome,1440,960,,,,,0,558,,,,,,,,,,,,,,,,,146,D,triangle,1,0,,,,,,,,,,,,,,,,switch,number,numSwt,d,1.3136,noRew,,,,,,0,26,0,26,0,1,,,,,,,,,,,,,,,,,
292612,2022-12-07_14h19.27.698,vts_reward_expectancy_bt,2022.2.4,Win32,59.96282305,Chrome,1440,960,,,,,0,558,,,,,,,,,,,,,,,,,174,U,star,1,0,,,,,,,,,,,,,,,,switch,letter,lettSwt,k,0.821,noRew,,,,,,0,27,0,27,0,1,,,,,,,,,,,,,,,,,
292612,2022-12-07_14h19.27.698,vts_reward_expectancy_bt,2022.2.4,Win32,59.96282305,Chrome,1440,960,,,,,0,558,,,,,,,,,,,,,,,,,167,H,star,1,0,,,,,,,,,,,,,,,,switch,number,numSwt,f,0.7983,noRew,,,,,,0,28,0,28,0,1,,,,,,,,,,,,,,,,,
292612,2022-12-07_14h19.27.698,vts_reward_expectancy_bt,2022.2.4,Win32,59.96282305,Chrome,1440,960,,,,,0,558,,,,,,,,,,,,,,,,,132,S,circle,1,0,,,,,,,,,,,,,,,,repeat,number,numRpt,d,0.7492,noRew,,,,,,0,29,0,29,0,1,,,,,,,,,,,,,,,,,
292612,2022-12-07_14h19.27.698,vts_reward_expectancy_bt,2022.2.4,Win32,59.96282305,Chrome,1440,960,,,,,0,558,,,,,,,,,,,,,,,,,181,Y,triangle,1,0,,,,,,,,,,,,,,,,switch,letter,lettSwt,k,0.8963,noRew,,,,,,0,30,0,30,0,1,,,,,,,,,,,,,,,,,
292612,2022-12-07_14h19.27.698,vts_reward_expectancy_bt,2022.2.4,Win32,59.96282305,Chrome,1440,960,,,,,0,558,,,,,,,,,,,,,,,,,146,B,star,1,0,,,,,,,,,,,,,,,,repeat,letter,lettRpt,j,0.6317,noRew,,,,,,0,31,0,31,0,1,,,,,,,,,,,,,,,,,
292612,2022-12-07_14h19.27.698,vts_reward_expectancy_bt,2022.2.4,Win32,59.96282305,Chrome,1440,960,,,,,0,558,,,,,,,,,,,,,,,,,146,F,star,1,0,,,,,,,,,,,,,,,,repeat,letter,lettRpt,j,1.0338,noRew,,,,,,0,32,0,32,0,1,,,,,,,,,,,,,,,,,
292612,2022-12-07_14h19.27.698,vts_reward_expectancy_bt,2022.2.4,Win32,59.96282305,Chrome,1440,960,,,,,0,558,,,,,,,,,,,,,,,,,181,H,circle,1,0,,,,,,,,,,,,,,,,switch,number,numSwt,f,0.6328,noRew,,,,,,0,33,0,33,0,1,,,,,,,,,,,,,,,,,
292612,2022-12-07_14h19.27.698,vts_reward_expectancy_bt,2022.2.4,Win32,59.96282305,Chrome,1440,960,,,,,0,558,,,,,,,,,,,,,,,,,174,S,circle,1,0,,,,,,,,,,,,,,,,repeat,number,numRpt,f,1.0816,noRew,,,,,,0,34,0,34,0,1,,,,,,,,,,,,,,,,,
292612,2022-12-07_14h19.27.698,vts_reward_expectancy_bt,2022.2.4,Win32,59.96282305,Chrome,1440,960,,,,,0,558,,,,,,,,,,,,,,,,,139,W,hexagon,1,0,,,,,,,,,,,,,,,,repeat,number,numRpt,d,0.8837,noRew,,,,,,0,35,0,35,0,1,,,,,,,,,,,,,,,,,
292612,2022-12-07_14h19.27.698,vts_reward_expectancy_bt,2022.2.4,Win32,59.96282305,Chrome,1440,960,,,,,0,558,,,,,,,,,,,,,,,,,181,F,triangle,1,0,,,,,,,,,,,,,,,,switch,letter,lettSwt,j,0.8368,noRew,,,,,,0,36,0,36,0,1,,,,,,,,,,,,,,,,,
292612,2022-12-07_14h19.27.698,vts_reward_expectancy_bt,2022.2.4,Win32,59.96282305,Chrome,1440,960,,,,,0,558,,,,,,,,,,,,,,,,,139,H,hexagon,1,0,,,,,,,,,,,,,,,,repeat,letter,lettRpt,j,2.2526,noRew,,,,,,0,37,0,37,0,1,,,,,,,,,,,,,,,,,
292612,2022-12-07_14h19.27.698,vts_reward_expectancy_bt,2022.2.4,Win32,59.96282305,Chrome,1440,960,,,,,0,558,,,,,,,,,,,,,,,,,174,B,circle,1,0,,,,,,,,,,,,,,,,repeat,letter,lettRpt,j,1.6502,noRew,,,,,,0,38,0,38,0,1,,,,,,,,,,,,,,,,,
292612,2022-12-07_14h19.27.698,vts_reward_expectancy_bt,2022.2.4,Win32,59.96282305,Chrome,1440,960,,,,,0,558,,,,,,,,,,,,,,,,,125,U,triangle,1,0,,,,,,,,,,,,,,,,repeat,letter,lettRpt,k,0.7854,noRew,,,,,,0,39,0,39,0,1,,,,,,,,,,,,,,,,,
292612,2022-12-07_14h19.27.698,vts_reward_expectancy_bt,2022.2.4,Win32,59.96282305,Chrome,1440,960,,,,,0,558,,,,,,,,,,,,,,,,,146,S,hexagon,-1,0,,,,,,,,,,,,,,,,switch,no_choice,NA,,,noRew,,,,,,0,40,0,40,0,1,,,,,,,,,,,,,,,,,
292612,2022-12-07_14h19.27.698,vts_reward_expectancy_bt,2022.2.4,Win32,59.96282305,Chrome,1440,960,,,,,0,558,,,,,,,,,,,,,,,,,132,Y,triangle,1,0,,,,,,,,,,,,,,,,switch,number,numSwt,d,0.8848,noRew,,,,,,0,41,0,41,0,1,,,,,,,,,,,,,,,,,
292612,2022-12-07_14h19.27.698,vts_reward_expectancy_bt,2022.2.4,Win32,59.96282305,Chrome,1440,960,,,,,0,558,,,,,,,,,,,,,,,,,139,D,hexagon,1,0,,,,,,,,,,,,,,,,switch,letter,lettSwt,j,1.2982,noRew,,,,,,0,42,0,42,0,1,,,,,,,,,,,,,,,,,
292612,2022-12-07_14h19.27.698,vts_reward_expectancy_bt,2022.2.4,Win32,59.96282305,Chrome,1440,960,,,,,0,558,,,,,,,,,,,,,,,,,167,H,circle,1,0,,,,,,,,,,,,,,,,switch,number,numSwt,f,1.7203,noRew,,,,,,0,43,0,43,0,1,,,,,,,,,,,,,,,,,
292612,2022-12-07_14h19.27.698,vts_reward_expectancy_bt,2022.2.4,Win32,59.96282305,Chrome,1440,960,,,,,0,558,,,,,,,,,,,,,,,,,167,Y,triangle,1,0,,,,,,,,,,,,,,,,repeat,number,numRpt,f,0.7366,noRew,,,,,,0,44,0,44,0,1,,,,,,,,,,,,,,,,,
292612,2022-12-07_14h19.27.698,vts_reward_expectancy_bt,2022.2.4,Win32,59.96282305,Chrome,1440,960,,,,,0,558,,,,,,,,,,,,,,,,,174,F,hexagon,1,0,,,,,,,,,,,,,,,,repeat,number,numRpt,f,1.4305,noRew,,,,,,0,45,0,45,0,1,,,,,,,,,,,,,,,,,
292612,2022-12-07_14h19.27.698,vts_reward_expectancy_bt,2022.2.4,Win32,59.96282305,Chrome,1440,960,,,,,0,558,,,,,,,,,,,,,,,,,146,D,triangle,1,0,,,,,,,,,,,,,,,,switch,letter,lettSwt,j,0.8671,noRew,,,,,,0,46,0,46,0,1,,,,,,,,,,,,,,,,,
292612,2022-12-07_14h19.27.698,vts_reward_expectancy_bt,2022.2.4,Win32,59.96282305,Chrome,1440,960,,,,,0,558,,,,,,,,,,,,,,,,,125,S,circle,1,0,,,,,,,,,,,,,,,,repeat,letter,lettRpt,k,1.3889,noRew,,,,,,0,47,0,47,0,1,,,,,,,,,,,,,,,,,
292612,2022-12-07_14h19.27.698,vts_reward_expectancy_bt,2022.2.4,Win32,59.96282305,Chrome,1440,960,,,,,0,558,,,,,,,,,,,,,,,,,132,F,hexagon,1,0,,,,,,,,,,,,,,,,repeat,letter,lettRpt,j,0.8149,noRew,,,,,,0,48,0,48,0,1,,,,,,,,,,,,,,,,,
292612,2022-12-07_14h19.27.698,vts_reward_expectancy_bt,2022.2.4,Win32,59.96282305,Chrome,1440,960,,,,,0,558,,,,,,,,,,,,,,,,,139,U,circle,1,0,,,,,,,,,,,,,,,,switch,number,numSwt,d,1.0982,noRew,,,,,,0,49,0,49,0,1,,,,,,,,,,,,,,,,,
292612,2022-12-07_14h19.27.698,vts_reward_expectancy_bt,2022.2.4,Win32,59.96282305,Chrome,1440,960,,,,,0,558,,,,,,,,,,,,,,,,,167,B,hexagon,1,0,,,,,,,,,,,,,,,,repeat,number,numRpt,f,0.8331,noRew,,,,,,0,50,0,50,0,1,,,,,,,,,,,,,,,,,
292612,2022-12-07_14h19.27.698,vts_reward_expectancy_bt,2022.2.4,Win32,59.96282305,Chrome,1440,960,,,,,0,558,,,,,,,,,,,,,,,,,181,S,triangle,1,0,,,,,,,,,,,,,,,,repeat,number,numRpt,f,1.2816,noRew,,,,,,0,51,0,51,0,1,,,,,,,,,,,,,,,,,
292612,2022-12-07_14h19.27.698,vts_reward_expectancy_bt,2022.2.4,Win32,59.96282305,Chrome,1440,960,,,,,0,558,,,,,,,,,,,,,,,,,146,U,triangle,1,0,,,,,,,,,,,,,,,,repeat,number,numRpt,d,1.3659,noRew,,,,,,0,52,0,52,0,1,,,,,,,,,,,,,,,,,
292612,2022-12-07_14h19.27.698,vts_reward_expectancy_bt,2022.2.4,Win32,59.96282305,Chrome,1440,960,,,,,0,558,,,,,,,,,,,,,,,,,181,H,circle,1,0,,,,,,,,,,,,,,,,repeat,number,numRpt,f,0.8661,noRew,,,,,,0,53,0,53,0,1,,,,,,,,,,,,,,,,,
292612,2022-12-07_14h19.27.698,vts_reward_expectancy_bt,2022.2.4,Win32,59.96282305,Chrome,1440,960,,,,,0,558,,,,,,,,,,,,,,,,,167,S,hexagon,1,0,,,,,,,,,,,,,,,,repeat,number,numRpt,f,1.0477,noRew,,,,,,0,54,0,54,0,1,,,,,,,,,,,,,,,,,
292612,2022-12-07_14h19.27.698,vts_reward_expectancy_bt,2022.2.4,Win32,59.96282305,Chrome,1440,960,,,,,0,558,,,,,,,,,,,,,,,,,160,F,star,1,0,,,,,,,,,,,,,,,,repeat,number,numRpt,f,0.803,noRew,,,,,,0,55,0,55,0,1,,,,,,,,,,,,,,,,,
292612,2022-12-07_14h19.27.698,vts_reward_expectancy_bt,2022.2.4,Win32,59.96282305,Chrome,1440,960,,,,,0,558,,,,,,,,,,,,,,,,,139,S,star,1,0,,,,,,,,,,,,,,,,repeat,number,numRpt,d,0.8316,noRew,,,,,,0,56,0,56,0,1,,,,,,,,,,,,,,,,,
292612,2022-12-07_14h19.27.698,vts_reward_expectancy_bt,2022.2.4,Win32,59.96282305,Chrome,1440,960,,,,,0,558,,,,,,,,,,,,,,,,,125,W,circle,1,0,,,,,,,,,,,,,,,,switch,letter,lettSwt,k,0.8671,noRew,,,,,,0,57,0,57,0,1,,,,,,,,,,,,,,,,,
292612,2022-12-07_14h19.27.698,vts_reward_expectancy_bt,2022.2.4,Win32,59.96282305,Chrome,1440,960,,,,,0,558,,,,,,,,,,,,,,,,,132,B,star,1,0,,,,,,,,,,,,,,,,repeat,letter,lettRpt,j,0.8294,noRew,,,,,,0,58,0,58,0,1,,,,,,,,,,,,,,,,,
292612,2022-12-07_14h19.27.698,vts_reward_expectancy_bt,2022.2.4,Win32,59.96282305,Chrome,1440,960,,,,,0,558,,,,,,,,,,,,,,,,,167,H,triangle,1,0,,,,,,,,,,,,,,,,repeat,letter,lettRpt,j,0.9314,noRew,,,,,,0,59,0,59,0,1,,,,,,,,,,,,,,,,,
292612,2022-12-07_14h19.27.698,vts_reward_expectancy_bt,2022.2.4,Win32,59.96282305,Chrome,1440,960,,,,,0,558,,,,,,,,,,,,,,,,,181,U,hexagon,1,0,,,,,,,,,,,,,,,,repeat,letter,lettRpt,k,0.7967,noRew,,,,,,0,60,0,60,0,1,,,,,,,,,,,,,,,,,
292612,2022-12-07_14h19.27.698,vts_reward_expectancy_bt,2022.2.4,Win32,59.96282305,Chrome,1440,960,,,,,0,558,,,,,,,,,,,,,,,,,174,H,star,1,0,,,,,,,,,,,,,,,,switch,number,numSwt,f,1.1472,noRew,,,,,,0,61,0,61,0,1,,,,,,,,,,,,,,,,,
292612,2022-12-07_14h19.27.698,vts_reward_expectancy_bt,2022.2.4,Win32,59.96282305,Chrome,1440,960,,,,,0,558,,,,,,,,,,,,,,,,,132,W,triangle,1,0,,,,,,,,,,,,,,,,switch,letter,lettSwt,k,0.9999,noRew,,,,,,0,62,0,62,0,1,,,,,,,,,,,,,,,,,
292612,2022-12-07_14h19.27.698,vts_reward_expectancy_bt,2022.2.4,Win32,59.96282305,Chrome,1440,960,,,,,0,558,,,,,,,,,,,,,,,,,160,F,circle,1,0,,,,,,,,,,,,,,,,repeat,letter,lettRpt,j,0.8977,noRew,,,,,,0,63,0,63,0,1,,,,,,,,,,,,,,,,,
292612,2022-12-07_14h19.27.698,vts_reward_expectancy_bt,2022.2.4,Win32,59.96282305,Chrome,1440,960,,,,,,,,,,,,,,,,,,,,,,,,,,,,,,,,,,,,,,,,,,,,,,,,,,,,,,,,,,,,,,,,,,,,,,,,,,,,
292612,2022-12-07_14h19.27.698,vts_reward_expectancy_bt,2022.2.4,Win32,59.96282305,Chrome,1440,960,,,,,0,558,,,,,,,,,,,,,,,,,132,H,star,1,0,,,,,,,,,,,,,,,,switch,number,numSwt,d,1.2346,Hi,,,,,,0,,,,,,space,9.2219,low,0,0,0,0,1,,,,,,,,,
292612,2022-12-07_14h19.27.698,vts_reward_expectancy_bt,2022.2.4,Win32,59.96282305,Chrome,1440,960,,,,,1,559,,,,,,,,,,,,,,,,,174,D,hexagon,1,0,,,,,,,,,,,,,,,,switch,letter,lettSwt,j,0.6129,Lo,,,,,,0,,,,,,,,low,1,0,1,0,1,,,,,,,,,
292612,2022-12-07_14h19.27.698,vts_reward_expectancy_bt,2022.2.4,Win32,59.96282305,Chrome,1440,960,,,,,0,559,,,,,,,,,,,,,,,,,181,F,triangle,0,0,,,,,,,,,,,,,,,,switch,number,NA,d,0.6533,Lo,,,,,,0,,,,,,,,low,2,0,2,0,1,,,,,,,,,
292612,2022-12-07_14h19.27.698,vts_reward_expectancy_bt,2022.2.4,Win32,59.96282305,Chrome,1440,960,,,,,1,560,,,,,,,,,,,,,,,,,146,U,circle,1,1,,,,,,,,,,,,,,,,repeat,number,numRpt,d,0.6007,Lo,,,,,,0,,,,,,,,low,3,0,3,0,1,,,,,,,,,
292612,2022-12-07_14h19.27.698,vts_reward_expectancy_bt,2022.2.4,Win32,59.96282305,Chrome,1440,960,,,,,10,570,,,,,,,,,,,,,,,,,139,S,star,1,0,,,,,,,,,,,,,,,,repeat,number,numRpt,d,0.6507,Hi,,,,,,0,,,,,,,,low,4,0,4,0,1,,,,,,,,,
292612,2022-12-07_14h19.27.698,vts_reward_expectancy_bt,2022.2.4,Win32,59.96282305,Chrome,1440,960,,,,,10,580,,,,,,,,,,,,,,,,,125,Y,hexagon,1,0,,,,,,,,,,,,,,,,switch,letter,lettSwt,k,0.6229,Lo,,,,,,0,,,,,,,,low,5,0,5,0,1,,,,,,,,,
292612,2022-12-07_14h19.27.698,vts_reward_expectancy_bt,2022.2.4,Win32,59.96282305,Chrome,1440,960,,,,,10,590,,,,,,,,,,,,,,,,,167,W,triangle,1,0,,,,,,,,,,,,,,,,repeat,letter,lettRpt,k,0.5709,Hi,,,,,,0,,,,,,,,low,6,0,6,0,1,,,,,,,,,
292612,2022-12-07_14h19.27.698,vts_reward_expectancy_bt,2022.2.4,Win32,59.96282305,Chrome,1440,960,,,,,10,600,,,,,,,,,,,,,,,,,160,B,circle,1,0,,,,,,,,,,,,,,,,repeat,letter,lettRpt,j,0.9016,Lo,,,,,,0,,,,,,,,low,7,0,7,0,1,,,,,,,,,
292612,2022-12-07_14h19.27.698,vts_reward_expectancy_bt,2022.2.4,Win32,59.96282305,Chrome,1440,960,,,,,10,610,,,,,,,,,,,,,,,,,132,H,triangle,1,0,,,,,,,,,,,,,,,,repeat,letter,lettRpt,j,0.7526,Hi,,,,,,0,,,,,,,,low,8,0,8,0,1,,,,,,,,,
292612,2022-12-07_14h19.27.698,vts_reward_expectancy_bt,2022.2.4,Win32,59.96282305,Chrome,1440,960,,,,,10,620,,,,,,,,,,,,,,,,,174,D,star,1,0,,,,,,,,,,,,,,,,repeat,letter,lettRpt,j,0.6914,Hi,,,,,,0,,,,,,,,low,9,0,9,0,1,,,,,,,,,
292612,2022-12-07_14h19.27.698,vts_reward_expectancy_bt,2022.2.4,Win32,59.96282305,Chrome,1440,960,,,,,10,630,,,,,,,,,,,,,,,,,181,F,circle,1,0,,,,,,,,,,,,,,,,repeat,letter,lettRpt,j,0.7508,Lo,,,,,,0,,,,,,,,low,10,0,10,0,1,,,,,,,,,
292612,2022-12-07_14h19.27.698,vts_reward_expectancy_bt,2022.2.4,Win32,59.96282305,Chrome,1440,960,,,,,1,631,,,,,,,,,,,,,,,,,146,U,hexagon,1,0,,,,,,,,,,,,,,,,switch,number,numSwt,d,0.6888,Lo,,,,,,0,,,,,,,,low,11,0,11,0,1,,,,,,,,,
292612,2022-12-07_14h19.27.698,vts_reward_expectancy_bt,2022.2.4,Win32,59.96282305,Chrome,1440,960,,,,,1,632,,,,,,,,,,,,,,,,,139,S,circle,1,0,,,,,,,,,,,,,,,,repeat,number,numRpt,d,0.6675,Lo,,,,,,0,,,,,,,,low,12,0,12,0,1,,,,,,,,,
292612,2022-12-07_14h19.27.698,vts_reward_expectancy_bt,2022.2.4,Win32,59.96282305,Chrome,1440,960,,,,,10,642,,,,,,,,,,,,,,,,,125,Y,star,1,0,,,,,,,,,,,,,,,,switch,letter,lettSwt,k,0.6908,Hi,,,,,,0,,,,,,,,low,13,0,13,0,1,,,,,,,,,
292612,2022-12-07_14h19.27.698,vts_reward_expectancy_bt,2022.2.4,Win32,59.96282305,Chrome,1440,960,,,,,1,643,,,,,,,,,,,,,,,,,167,W,hexagon,1,0,,,,,,,,,,,,,,,,repeat,letter,lettRpt,k,1.0169,Lo,,,,,,0,,,,,,,,low,14,0,14,0,1,,,,,,,,,
292612,2022-12-07_14h19.27.698,vts_reward_expectancy_bt,2022.2.4,Win32,59.96282305,Chrome,1440,960,,,,,1,644,,,,,,,,,,,,,,,,,160,B,triangle,1,0,,,,,,,,,,,,,,,,repeat,letter,lettRpt,j,0.7334,Hi,,,,,,0,,,,,,,,low,15,0,15,0,1,,,,,,,,,
292612,2022-12-07_14h19.27.698,vts_reward_expectancy_bt,2022.2.4,Win32,59.96282305,Chrome,1440,960,,,,,10,654,,,,,,,,,,,,,,,,,167,D,star,1,0,,,,,,,,,,,,,,,,switch,number,numSwt,f,0.8009,Hi,,,,,,0,,,,,,,,low,16,0,16,0,1,,,,,,,,,
292612,2022-12-07_14h19.27.698,vts_reward_expectancy_bt,2022.2.4,Win32,59.96282305,Chrome,1440,960,,,,,1,655,,,,,,,,,,,,,,,,,125,U,circle,1,0,,,,,,,,,,,,,,,,repeat,number,numRpt,d,0.749,Lo,,,,,,0,,,,,,,,low,17,0,17,0,1,,,,,,,,,
292612,2022-12-07_14h19.27.698,vts_reward_expectancy_bt,2022.2.4,Win32,59.96282305,Chrome,1440,960,,,,,0,655,,,,,,,,,,,,,,,,,139,F,triangle,1,0,,,,,,,,,,,,,,,,switch,letter,lettSwt,j,1.0005,Hi,,,,,,0,,,,,,,,low,18,0,18,0,1,,,,,,,,,
292612,2022-12-07_14h19.27.698,vts_reward_expectancy_bt,2022.2.4,Win32,59.96282305,Chrome,1440,960,,,,,1,656,,,,,,,,,,,,,,,,,160,W,hexagon,1,0,,,,,,,,,,,,,,,,repeat,letter,lettRpt,k,0.8999,Lo,,,,,,0,,,,,,,,low,19,0,19,0,1,,,,,,,,,
292612,2022-12-07_14h19.27.698,vts_reward_expectancy_bt,2022.2.4,Win32,59.96282305,Chrome,1440,960,,,,,1,657,,,,,,,,,,,,,,,,,146,S,star,1,0,,,,,,,,,,,,,,,,switch,number,numSwt,d,0.868,Hi,,,,,,0,,,,,,,,low,20,0,20,0,1,,,,,,,,,
292612,2022-12-07_14h19.27.698,vts_reward_expectancy_bt,2022.2.4,Win32,59.96282305,Chrome,1440,960,,,,,1,658,,,,,,,,,,,,,,,,,132,Y,circle,1,0,,,,,,,,,,,,,,,,repeat,number,numRpt,d,0.7508,Lo,,,,,,0,,,,,,,,low,21,0,21,0,1,,,,,,,,,
292612,2022-12-07_14h19.27.698,vts_reward_expectancy_bt,2022.2.4,Win32,59.96282305,Chrome,1440,960,,,,,0,658,,,,,,,,,,,,,,,,,181,H,triangle,1,0,,,,,,,,,,,,,,,,switch,letter,lettSwt,j,1.2682,Hi,,,,,,0,,,,,,,,low,22,0,22,0,1,,,,,,,,,
292612,2022-12-07_14h19.27.698,vts_reward_expectancy_bt,2022.2.4,Win32,59.96282305,Chrome,1440,960,,,,,10,668,,,,,,,,,,,,,,,,,174,B,hexagon,1,0,,,,,,,,,,,,,,,,repeat,letter,lettRpt,j,0.5883,Lo,,,,,,0,,,,,,,,low,23,0,23,0,1,,,,,,,,,
292612,2022-12-07_14h19.27.698,vts_reward_expectancy_bt,2022.2.4,Win32,59.96282305,Chrome,1440,960,,,,,10,678,,,,,,,,,,,,,,,,,125,H,triangle,1,0,,,,,,,,,,,,,,,,repeat,letter,lettRpt,j,0.6024,Hi,,,,,,0,,,,,,,,low,24,0,24,0,1,,,,,,,,,
292612,2022-12-07_14h19.27.698,vts_reward_expectancy_bt,2022.2.4,Win32,59.96282305,Chrome,1440,960,,,,,1,679,,,,,,,,,,,,,,,,,160,U,circle,1,0,,,,,,,,,,,,,,,,repeat,letter,lettRpt,k,0.8514,Lo,,,,,,0,,,,,,,,low,25,0,25,0,1,,,,,,,,,
292612,2022-12-07_14h19.27.698,vts_reward_expectancy_bt,2022.2.4,Win32,59.96282305,Chrome,1440,960,,,,,1,680,,,,,,,,,,,,,,,,,167,W,hexagon,1,0,,,,,,,,,,,,,,,,switch,number,numSwt,f,0.865,Lo,,,,,,0,,,,,,,,low,26,0,26,0,1,,,,,,,,,
292612,2022-12-07_14h19.27.698,vts_reward_expectancy_bt,2022.2.4,Win32,59.96282305,Chrome,1440,960,,,,,0,680,,,,,,,,,,,,,,,,,132,Y,star,1,0,,,,,,,,,,,,,,,,repeat,number,numRpt,d,0.9536,Hi,,,,,,0,,,,,,,,low,27,0,27,0,1,,,,,,,,,
292612,2022-12-07_14h19.27.698,vts_reward_expectancy_bt,2022.2.4,Win32,59.96282305,Chrome,1440,960,,,,,1,681,,,,,,,,,,,,,,,,,146,B,circle,1,0,,,,,,,,,,,,,,,,switch,letter,lettSwt,j,0.7511,Lo,,,,,,0,,,,,,,,low,28,0,28,0,1,,,,,,,,,
292612,2022-12-07_14h19.27.698,vts_reward_expectancy_bt,2022.2.4,Win32,59.96282305,Chrome,1440,960,,,,,1,682,,,,,,,,,,,,,,,,,139,F,star,1,0,,,,,,,,,,,,,,,,switch,number,numSwt,d,0.7676,Hi,,,,,,0,,,,,,,,low,29,0,29,0,1,,,,,,,,,
292612,2022-12-07_14h19.27.698,vts_reward_expectancy_bt,2022.2.4,Win32,59.96282305,Chrome,1440,960,,,,,1,683,,,,,,,,,,,,,,,,,174,S,hexagon,1,0,,,,,,,,,,,,,,,,repeat,number,numRpt,f,0.8507,Lo,,,,,,0,,,,,,,,low,30,0,30,0,1,,,,,,,,,
292612,2022-12-07_14h19.27.698,vts_reward_expectancy_bt,2022.2.4,Win32,59.96282305,Chrome,1440,960,,,,,1,684,,,,,,,,,,,,,,,,,181,D,triangle,1,0,,,,,,,,,,,,,,,,repeat,number,numRpt,f,0.7228,Hi,,,,,,0,,,,,,,,low,31,0,31,0,1,,,,,,,,,
292612,2022-12-07_14h19.27.698,vts_reward_expectancy_bt,2022.2.4,Win32,59.96282305,Chrome,1440,960,,,,,1,685,,,,,,,,,,,,,,,,,167,H,circle,1,0,,,,,,,,,,,,,,,,repeat,number,numRpt,f,0.705,Lo,,,,,,1,,,,,,space,2.0107,low,0,0,0,0,1,,,,,,,,,
292612,2022-12-07_14h19.27.698,vts_reward_expectancy_bt,2022.2.4,Win32,59.96282305,Chrome,1440,960,,,,,0,685,,,,,,,,,,,,,,,,,181,U,star,1,0,,,,,,,,,,,,,,,,switch,letter,lettSwt,k,1.1545,Hi,,,,,,1,,,,,,,,low,1,0,1,0,1,,,,,,,,,
292612,2022-12-07_14h19.27.698,vts_reward_expectancy_bt,2022.2.4,Win32,59.96282305,Chrome,1440,960,,,,,1,686,,,,,,,,,,,,,,,,,146,S,hexagon,1,0,,,,,,,,,,,,,,,,repeat,letter,lettRpt,k,0.617,Lo,,,,,,1,,,,,,,,low,2,0,2,0,1,,,,,,,,,
292612,2022-12-07_14h19.27.698,vts_reward_expectancy_bt,2022.2.4,Win32,59.96282305,Chrome,1440,960,,,,,1,687,,,,,,,,,,,,,,,,,139,W,triangle,1,0,,,,,,,,,,,,,,,,repeat,letter,lettRpt,k,0.5408,Hi,,,,,,1,,,,,,,,low,3,0,3,0,1,,,,,,,,,
292612,2022-12-07_14h19.27.698,vts_reward_expectancy_bt,2022.2.4,Win32,59.96282305,Chrome,1440,960,,,,,10,697,,,,,,,,,,,,,,,,,174,B,circle,1,0,,,,,,,,,,,,,,,,repeat,letter,lettRpt,j,0.6893,Lo,,,,,,1,,,,,,,,low,4,0,4,0,1,,,,,,,,,
292612,2022-12-07_14h19.27.698,vts_reward_expectancy_bt,2022.2.4,Win32,59.96282305,Chrome,1440,960,,,,,0,697,,,,,,,,,,,,,,,,,160,F,star,1,0,,,,,,,,,,,,,,,,repeat,letter,lettRpt,j,0.9171,Hi,,,,,,1,,,,,,,,low,5,0,5,0,1,,,,,,,,,
292612,2022-12-07_14h19.27.698,vts_reward_expectancy_bt,2022.2.4,Win32,59.96282305,Chrome,1440,960,,,,,1,698,,,,,,,,,,,,,,,,,132,D,hexagon,1,0,,,,,,,,,,,,,,,,repeat,letter,lettRpt,j,0.6843,Lo,,,,,,1,,,,,,,,low,6,0,6,0,1,,,,,,,,,
292612,2022-12-07_14h19.27.698,vts_reward_expectancy_bt,2022.2.4,Win32,59.96282305,Chrome,1440,960,,,,,0,698,,,,,,,,,,,,,,,,,125,Y,triangle,0,0,,,,,,,,,,,,,,,,repeat,letter,NA,j,0.5669,Lo,,,,,,1,,,,,,,,low,7,0,7,0,1,,,,,,,,,
292612,2022-12-07_14h19.27.698,vts_reward_expectancy_bt,2022.2.4,Win32,59.96282305,Chrome,1440,960,,,,,0,698,,,,,,,,,,,,,,,,,167,H,triangle,1,1,,,,,,,,,,,,,,,,repeat,letter,lettRpt,j,0.723,Hi,,,,,,1,,,,,,,,low,8,0,8,0,1,,,,,,,,,
292612,2022-12-07_14h19.27.698,vts_reward_expectancy_bt,2022.2.4,Win32,59.96282305,Chrome,1440,960,,,,,10,708,,,,,,,,,,,,,,,,,181,U,circle,1,0,,,,,,,,,,,,,,,,repeat,letter,lettRpt,k,0.6512,Lo,,,,,,1,,,,,,,,low,9,0,9,0,1,,,,,,,,,
292612,2022-12-07_14h19.27.698,vts_reward_expectancy_bt,2022.2.4,Win32,59.96282305,Chrome,1440,960,,,,,1,709,,,,,,,,,,,,,,,,,146,S,hexagon,1,0,,,,,,,,,,,,,,,,repeat,letter,lettRpt,k,0.7331,Lo,,,,,,1,,,,,,,,low,10,0,10,0,1,,,,,,,,,
292612,2022-12-07_14h19.27.698,vts_reward_expectancy_bt,2022.2.4,Win32,59.96282305,Chrome,1440,960,,,,,10,719,,,,,,,,,,,,,,,,,139,W,star,1,0,,,,,,,,,,,,,,,,switch,number,numSwt,d,0.5841,Hi,,,,,,1,,,,,,,,low,11,0,11,0,1,,,,,,,,,
292612,2022-12-07_14h19.27.698,vts_reward_expectancy_bt,2022.2.4,Win32,59.96282305,Chrome,1440,960,,,,,0,719,,,,,,,,,,,,,,,,,174,B,star,1,0,,,,,,,,,,,,,,,,repeat,number,numRpt,f,0.7724,Hi,,,,,,1,,,,,,,,low,12,0,12,0,1,,,,,,,,,
292612,2022-12-07_14h19.27.698,vts_reward_expectancy_bt,2022.2.4,Win32,59.96282305,Chrome,1440,960,,,,,10,729,,,,,,,,,,,,,,,,,160,F,hexagon,1,0,,,,,,,,,,,,,,,,repeat,number,numRpt,f,0.6713,Lo,,,,,,1,,,,,,,,low,13,0,13,0,1,,,,,,,,,
292612,2022-12-07_14h19.27.698,vts_reward_expectancy_bt,2022.2.4,Win32,59.96282305,Chrome,1440,960,,,,,1,730,,,,,,,,,,,,,,,,,132,D,triangle,1,0,,,,,,,,,,,,,,,,repeat,number,numRpt,d,0.453,Hi,,,,,,1,,,,,,,,low,14,0,14,0,1,,,,,,,,,
292612,2022-12-07_14h19.27.698,vts_reward_expectancy_bt,2022.2.4,Win32,59.96282305,Chrome,1440,960,,,,,10,740,,,,,,,,,,,,,,,,,125,Y,circle,1,0,,,,,,,,,,,,,,,,repeat,number,numRpt,d,0.6208,Lo,,,,,,1,,,,,,,,low,15,0,15,0,1,,,,,,,,,
292612,2022-12-07_14h19.27.698,vts_reward_expectancy_bt,2022.2.4,Win32,59.96282305,Chrome,1440,960,,,,,1,741,,,,,,,,,,,,,,,,,181,Y,circle,1,0,,,,,,,,,,,,,,,,repeat,number,numRpt,f,0.6167,Lo,,,,,,1,,,,,,,,low,16,0,16,0,1,,,,,,,,,
292612,2022-12-07_14h19.27.698,vts_reward_expectancy_bt,2022.2.4,Win32,59.96282305,Chrome,1440,960,,,,,0,741,,,,,,,,,,,,,,,,,167,W,star,1,0,,,,,,,,,,,,,,,,repeat,number,numRpt,f,0.8785,Hi,,,,,,1,,,,,,,,low,17,0,17,0,1,,,,,,,,,
292612,2022-12-07_14h19.27.698,vts_reward_expectancy_bt,2022.2.4,Win32,59.96282305,Chrome,1440,960,,,,,1,742,,,,,,,,,,,,,,,,,125,F,triangle,1,0,,,,,,,,,,,,,,,,switch,letter,lettSwt,j,0.4952,Hi,,,,,,1,,,,,,,,low,18,0,18,0,1,,,,,,,,,
292612,2022-12-07_14h19.27.698,vts_reward_expectancy_bt,2022.2.4,Win32,59.96282305,Chrome,1440,960,,,,,10,752,,,,,,,,,,,,,,,,,132,U,hexagon,1,0,,,,,,,,,,,,,,,,switch,number,numSwt,d,0.7194,Lo,,,,,,1,,,,,,,,low,19,0,19,0,1,,,,,,,,,
292612,2022-12-07_14h19.27.698,vts_reward_expectancy_bt,2022.2.4,Win32,59.96282305,Chrome,1440,960,,,,,10,762,,,,,,,,,,,,,,,,,174,H,star,1,0,,,,,,,,,,,,,,,,repeat,number,numRpt,f,0.5863,Hi,,,,,,1,,,,,,,,low,20,0,20,0,1,,,,,,,,,
292612,2022-12-07_14h19.27.698,vts_reward_expectancy_bt,2022.2.4,Win32,59.96282305,Chrome,1440,960,,,,,0,762,,,,,,,,,,,,,,,,,146,D,triangle,1,0,,,,,,,,,,,,,,,,repeat,number,numRpt,d,0.7078,Hi,,,,,,1,,,,,,,,low,21,0,21,0,1,,,,,,,,,
292612,2022-12-07_14h19.27.698,vts_reward_expectancy_bt,2022.2.4,Win32,59.96282305,Chrome,1440,960,,,,,1,763,,,,,,,,,,,,,,,,,160,S,circle,1,0,,,,,,,,,,,,,,,,switch,letter,lettSwt,k,0.5505,Lo,,,,,,1,,,,,,,,low,22,0,22,0,1,,,,,,,,,
292612,2022-12-07_14h19.27.698,vts_reward_expectancy_bt,2022.2.4,Win32,59.96282305,Chrome,1440,960,,,,,10,773,,,,,,,,,,,,,,,,,139,B,hexagon,1,0,,,,,,,,,,,,,,,,switch,number,numSwt,d,0.625,Lo,,,,,,1,,,,,,,,low,23,0,23,0,1,,,,,,,,,
292612,2022-12-07_14h19.27.698,vts_reward_expectancy_bt,2022.2.4,Win32,59.96282305,Chrome,1440,960,,,,,1,774,,,,,,,,,,,,,,,,,181,H,star,1,0,,,,,,,,,,,,,,,,repeat,number,numRpt,f,0.5179,Hi,,,,,,1,,,,,,,,low,24,0,24,0,1,,,,,,,,,
292612,2022-12-07_14h19.27.698,vts_reward_expectancy_bt,2022.2.4,Win32,59.96282305,Chrome,1440,960,,,,,1,775,,,,,,,,,,,,,,,,,125,S,hexagon,1,0,,,,,,,,,,,,,,,,repeat,number,numRpt,d,0.5509,Lo,,,,,,1,,,,,,,,low,25,0,25,0,1,,,,,,,,,
292612,2022-12-07_14h19.27.698,vts_reward_expectancy_bt,2022.2.4,Win32,59.96282305,Chrome,1440,960,,,,,1,776,,,,,,,,,,,,,,,,,139,Y,triangle,1,0,,,,,,,,,,,,,,,,repeat,number,numRpt,d,0.6699,Hi,,,,,,1,,,,,,,,low,26,0,26,0,1,,,,,,,,,
292612,2022-12-07_14h19.27.698,vts_reward_expectancy_bt,2022.2.4,Win32,59.96282305,Chrome,1440,960,,,,,1,777,,,,,,,,,,,,,,,,,132,W,circle,1,0,,,,,,,,,,,,,,,,switch,letter,lettSwt,k,0.5365,Lo,,,,,,1,,,,,,,,low,27,0,27,0,1,,,,,,,,,
292612,2022-12-07_14h19.27.698,vts_reward_expectancy_bt,2022.2.4,Win32,59.96282305,Chrome,1440,960,,,,,1,778,,,,,,,,,,,,,,,,,167,D,hexagon,1,0,,,,,,,,,,,,,,,,repeat,letter,lettRpt,j,0.6074,Lo,,,,,,1,,,,,,,,low,28,0,28,0,1,,,,,,,,,
292612,2022-12-07_14h19.27.698,vts_reward_expectancy_bt,2022.2.4,Win32,59.96282305,Chrome,1440,960,,,,,1,779,,,,,,,,,,,,,,,,,160,F,circle,1,0,,,,,,,,,,,,,,,,repeat,letter,lettRpt,j,0.8166,Lo,,,,,,1,,,,,,,,low,29,0,29,0,1,,,,,,,,,
292612,2022-12-07_14h19.27.698,vts_reward_expectancy_bt,2022.2.4,Win32,59.96282305,Chrome,1440,960,,,,,1,780,,,,,,,,,,,,,,,,,174,B,triangle,1,0,,,,,,,,,,,,,,,,repeat,letter,lettRpt,j,0.601,Hi,,,,,,1,,,,,,,,low,30,0,30,0,1,,,,,,,,,
292612,2022-12-07_14h19.27.698,vts_reward_expectancy_bt,2022.2.4,Win32,59.96282305,Chrome,1440,960,,,,,0,780,,,,,,,,,,,,,,,,,146,U,star,1,0,,,,,,,,,,,,,,,,repeat,letter,lettRpt,k,0.7556,Hi,,,,,,1,,,,,,,,low,31,0,31,0,1,,,,,,,,,
292612,2022-12-07_14h19.27.698,vts_reward_expectancy_bt,2022.2.4,Win32,59.96282305,Chrome,1440,960,,,,,0,780,,,,,,,,,,,,,,,,,139,D,triangle,1,0,,,,,,,,,,,,,,,,repeat,letter,lettRpt,j,0.6992,Hi,,,,,,2,,,,,,space,1.7326,low,0,0,0,0,1,,,,,,,,,
292612,2022-12-07_14h19.27.698,vts_reward_expectancy_bt,2022.2.4,Win32,59.96282305,Chrome,1440,960,,,,,0,780,,,,,,,,,,,,,,,,,160,U,star,1,0,,,,,,,,,,,,,,,,repeat,letter,lettRpt,k,0.6401,Hi,,,,,,2,,,,,,,,low,1,0,1,0,1,,,,,,,,,
292612,2022-12-07_14h19.27.698,vts_reward_expectancy_bt,2022.2.4,Win32,59.96282305,Chrome,1440,960,,,,,1,781,,,,,,,,,,,,,,,,,181,B,hexagon,1,0,,,,,,,,,,,,,,,,repeat,letter,lettRpt,j,0.5027,Lo,,,,,,2,,,,,,,,low,2,0,2,0,1,,,,,,,,,
292612,2022-12-07_14h19.27.698,vts_reward_expectancy_bt,2022.2.4,Win32,59.96282305,Chrome,1440,960,,,,,1,782,,,,,,,,,,,,,,,,,174,S,circle,1,0,,,,,,,,,,,,,,,,switch,number,numSwt,f,0.4676,Lo,,,,,,2,,,,,,,,low,3,0,3,0,1,,,,,,,,,
292612,2022-12-07_14h19.27.698,vts_reward_expectancy_bt,2022.2.4,Win32,59.96282305,Chrome,1440,960,,,,,1,783,,,,,,,,,,,,,,,,,125,W,triangle,1,0,,,,,,,,,,,,,,,,repeat,number,numRpt,d,0.5564,Hi,,,,,,2,,,,,,,,low,4,0,4,0,1,,,,,,,,,
292612,2022-12-07_14h19.27.698,vts_reward_expectancy_bt,2022.2.4,Win32,59.96282305,Chrome,1440,960,,,,,1,784,,,,,,,,,,,,,,,,,146,H,star,1,0,,,,,,,,,,,,,,,,repeat,number,numRpt,d,0.5507,Hi,,,,,,2,,,,,,,,low,5,0,5,0,1,,,,,,,,,
292612,2022-12-07_14h19.27.698,vts_reward_expectancy_bt,2022.2.4,Win32,59.96282305,Chrome,1440,960,,,,,1,785,,,,,,,,,,,,,,,,,132,Y,hexagon,1,0,,,,,,,,,,,,,,,,repeat,number,numRpt,d,0.5528,Lo,,,,,,2,,,,,,,,low,6,0,6,0,1,,,,,,,,,
292612,2022-12-07_14h19.27.698,vts_reward_expectancy_bt,2022.2.4,Win32,59.96282305,Chrome,1440,960,,,,,10,795,,,,,,,,,,,,,,,,,167,F,circle,1,0,,,,,,,,,,,,,,,,repeat,number,numRpt,f,0.5336,Lo,,,,,,2,,,,,,,,low,7,0,7,0,1,,,,,,,,,
292612,2022-12-07_14h19.27.698,vts_reward_expectancy_bt,2022.2.4,Win32,59.96282305,Chrome,1440,960,,,,,0,795,,,,,,,,,,,,,,,,,139,D,triangle,0,0,,,,,,,,,,,,,,,,repeat,number,NA,f,0.8173,Lo,,,,,,2,,,,,,,,low,8,0,8,0,1,,,,,,,,,
292612,2022-12-07_14h19.27.698,vts_reward_expectancy_bt,2022.2.4,Win32,59.96282305,Chrome,1440,960,,,,,10,805,,,,,,,,,,,,,,,,,160,U,circle,1,1,,,,,,,,,,,,,,,,repeat,number,numRpt,f,0.6736,Lo,,,,,,2,,,,,,,,low,9,0,9,0,1,,,,,,,,,
292612,2022-12-07_14h19.27.698,vts_reward_expectancy_bt,2022.2.4,Win32,59.96282305,Chrome,1440,960,,,,,1,806,,,,,,,,,,,,,,,,,181,B,hexagon,1,0,,,,,,,,,,,,,,,,switch,letter,lettSwt,j,0.8348,Lo,,,,,,2,,,,,,,,low,10,0,10,0,1,,,,,,,,,
292612,2022-12-07_14h19.27.698,vts_reward_expectancy_bt,2022.2.4,Win32,59.96282305,Chrome,1440,960,,,,,0,806,,,,,,,,,,,,,,,,,174,S,star,1,0,,,,,,,,,,,,,,,,repeat,letter,lettRpt,k,0.674,Hi,,,,,,2,,,,,,,,low,11,0,11,0,1,,,,,,,,,
292612,2022-12-07_14h19.27.698,vts_reward_expectancy_bt,2022.2.4,Win32,59.96282305,Chrome,1440,960,,,,,1,807,,,,,,,,,,,,,,,,,125,W,star,1,0,,,,,,,,,,,,,,,,repeat,letter,lettRpt,k,0.5344,Hi,,,,,,2,,,,,,,,low,12,0,12,0,1,,,,,,,,,
292612,2022-12-07_14h19.27.698,vts_reward_expectancy_bt,2022.2.4,Win32,59.96282305,Chrome,1440,960,,,,,0,807,,,,,,,,,,,,,,,,,146,H,triangle,1,0,,,,,,,,,,,,,,,,repeat,letter,lettRpt,j,0.8534,Hi,,,,,,2,,,,,,,,low,13,0,13,0,1,,,,,,,,,
292612,2022-12-07_14h19.27.698,vts_reward_expectancy_bt,2022.2.4,Win32,59.96282305,Chrome,1440,960,,,,,10,817,,,,,,,,,,,,,,,,,132,Y,circle,1,0,,,,,,,,,,,,,,,,repeat,letter,lettRpt,k,0.5551,Lo,,,,,,2,,,,,,,,low,14,0,14,0,1,,,,,,,,,
292612,2022-12-07_14h19.27.698,vts_reward_expectancy_bt,2022.2.4,Win32,59.96282305,Chrome,1440,960,,,,,1,818,,,,,,,,,,,,,,,,,167,F,hexagon,1,0,,,,,,,,,,,,,,,,repeat,letter,lettRpt,j,0.5175,Lo,,,,,,2,,,,,,,,low,15,0,15,0,1,,,,,,,,,
292612,2022-12-07_14h19.27.698,vts_reward_expectancy_bt,2022.2.4,Win32,59.96282305,Chrome,1440,960,,,,,10,828,,,,,,,,,,,,,,,,,167,W,triangle,1,0,,,,,,,,,,,,,,,,repeat,letter,lettRpt,k,0.4713,Hi,,,,,,2,,,,,,,,low,16,0,16,0,1,,,,,,,,,
292612,2022-12-07_14h19.27.698,vts_reward_expectancy_bt,2022.2.4,Win32,59.96282305,Chrome,1440,960,,,,,1,829,,,,,,,,,,,,,,,,,125,Y,circle,1,0,,,,,,,,,,,,,,,,repeat,letter,lettRpt,k,0.5173,Lo,,,,,,2,,,,,,,,low,17,0,17,0,1,,,,,,,,,
292612,2022-12-07_14h19.27.698,vts_reward_expectancy_bt,2022.2.4,Win32,59.96282305,Chrome,1440,960,,,,,10,839,,,,,,,,,,,,,,,,,174,S,star,1,0,,,,,,,,,,,,,,,,repeat,letter,lettRpt,k,0.4837,Hi,,,,,,2,,,,,,,,low,18,0,18,0,1,,,,,,,,,
292612,2022-12-07_14h19.27.698,vts_reward_expectancy_bt,2022.2.4,Win32,59.96282305,Chrome,1440,960,,,,,0,839,,,,,,,,,,,,,,,,,132,H,hexagon,0,0,,,,,,,,,,,,,,,,repeat,letter,NA,k,0.7738,Hi,,,,,,2,,,,,,,,low,19,0,19,0,1,,,,,,,,,
292612,2022-12-07_14h19.27.698,vts_reward_expectancy_bt,2022.2.4,Win32,59.96282305,Chrome,1440,960,,,,,10,849,,,,,,,,,,,,,,,,,181,D,hexagon,1,1,,,,,,,,,,,,,,,,switch,number,numSwt,f,1.5002,Lo,,,,,,2,,,,,,,,low,20,0,20,0,1,,,,,,,,,
292612,2022-12-07_14h19.27.698,vts_reward_expectancy_bt,2022.2.4,Win32,59.96282305,Chrome,1440,960,,,,,0,849,,,,,,,,,,,,,,,,,139,U,circle,0,0,,,,,,,,,,,,,,,,repeat,number,NA,f,0.8235,Lo,,,,,,2,,,,,,,,low,21,0,21,0,1,,,,,,,,,
292612,2022-12-07_14h19.27.698,vts_reward_expectancy_bt,2022.2.4,Win32,59.96282305,Chrome,1440,960,,,,,0,849,,,,,,,,,,,,,,,,,146,F,star,1,1,,,,,,,,,,,,,,,,repeat,number,numRpt,d,0.6871,Hi,,,,,,2,,,,,,,,low,22,0,22,0,1,,,,,,,,,
292612,2022-12-07_14h19.27.698,vts_reward_expectancy_bt,2022.2.4,Win32,59.96282305,Chrome,1440,960,,,,,0,849,,,,,,,,,,,,,,,,,160,B,triangle,1,0,,,,,,,,,,,,,,,,repeat,number,numRpt,f,0.6685,Hi,,,,,,2,,,,,,,,low,23,0,23,0,1,,,,,,,,,
292612,2022-12-07_14h19.27.698,vts_reward_expectancy_bt,2022.2.4,Win32,59.96282305,Chrome,1440,960,,,,,1,850,,,,,,,,,,,,,,,,,181,D,star,1,0,,,,,,,,,,,,,,,,repeat,number,numRpt,f,0.4846,Hi,,,,,,2,,,,,,,,low,24,0,24,0,1,,,,,,,,,
292612,2022-12-07_14h19.27.698,vts_reward_expectancy_bt,2022.2.4,Win32,59.96282305,Chrome,1440,960,,,,,10,860,,,,,,,,,,,,,,,,,146,W,circle,1,0,,,,,,,,,,,,,,,,repeat,number,numRpt,d,0.5,Lo,,,,,,2,,,,,,,,low,25,0,25,0,1,,,,,,,,,
292612,2022-12-07_14h19.27.698,vts_reward_expectancy_bt,2022.2.4,Win32,59.96282305,Chrome,1440,960,,,,,0,860,,,,,,,,,,,,,,,,,167,S,triangle,1,0,,,,,,,,,,,,,,,,repeat,number,numRpt,f,0.7892,Hi,,,,,,2,,,,,,,,low,26,0,26,0,1,,,,,,,,,
292612,2022-12-07_14h19.27.698,vts_reward_expectancy_bt,2022.2.4,Win32,59.96282305,Chrome,1440,960,,,,,1,861,,,,,,,,,,,,,,,,,132,Y,hexagon,1,0,,,,,,,,,,,,,,,,repeat,number,numRpt,d,0.7678,Lo,,,,,,2,,,,,,,,low,27,0,27,0,1,,,,,,,,,
292612,2022-12-07_14h19.27.698,vts_reward_expectancy_bt,2022.2.4,Win32,59.96282305,Chrome,1440,960,,,,,1,862,,,,,,,,,,,,,,,,,174,B,hexagon,1,0,,,,,,,,,,,,,,,,repeat,number,numRpt,f,0.5846,Lo,,,,,,2,,,,,,,,low,28,0,28,0,1,,,,,,,,,
292612,2022-12-07_14h19.27.698,vts_reward_expectancy_bt,2022.2.4,Win32,59.96282305,Chrome,1440,960,,,,,0,862,,,,,,,,,,,,,,,,,160,F,triangle,1,0,,,,,,,,,,,,,,,,switch,letter,lettSwt,j,0.8377,Hi,,,,,,2,,,,,,,,low,29,0,29,0,1,,,,,,,,,
292612,2022-12-07_14h19.27.698,vts_reward_expectancy_bt,2022.2.4,Win32,59.96282305,Chrome,1440,960,,,,,10,872,,,,,,,,,,,,,,,,,139,U,circle,1,0,,,,,,,,,,,,,,,,repeat,letter,lettRpt,k,0.6897,Lo,,,,,,2,,,,,,,,low,30,0,30,0,1,,,,,,,,,
292612,2022-12-07_14h19.27.698,vts_reward_expectancy_bt,2022.2.4,Win32,59.96282305,Chrome,1440,960,,,,,0,872,,,,,,,,,,,,,,,,,125,H,star,1,0,,,,,,,,,,,,,,,,switch,number,numSwt,d,1.7675,Hi,,,,,,2,,,,,,,,low,31,0,31,0,1,,,,,,,,,
292612,2022-12-07_14h19.27.698,vts_reward_expectancy_bt,2022.2.4,Win32,59.96282305,Chrome,1440,960,,,,,0,872,,,,,,,,,,,,,,,,,167,U,triangle,1,0,,,,,,,,,,,,,,,,repeat,number,numRpt,f,0.8201,Hi,,,,,,3,,,,,,space,1.2388,low,0,0,0,0,1,,,,,,,,,
292612,2022-12-07_14h19.27.698,vts_reward_expectancy_bt,2022.2.4,Win32,59.96282305,Chrome,1440,960,,,,,10,882,,,,,,,,,,,,,,,,,174,F,star,1,0,,,,,,,,,,,,,,,,repeat,number,numRpt,f,0.5027,Hi,,,,,,3,,,,,,,,low,1,0,1,0,1,,,,,,,,,
292612,2022-12-07_14h19.27.698,vts_reward_expectancy_bt,2022.2.4,Win32,59.96282305,Chrome,1440,960,,,,,1,883,,,,,,,,,,,,,,,,,181,B,circle,1,0,,,,,,,,,,,,,,,,repeat,number,numRpt,f,0.4847,Lo,,,,,,3,,,,,,,,low,2,0,2,0,1,,,,,,,,,
292612,2022-12-07_14h19.27.698,vts_reward_expectancy_bt,2022.2.4,Win32,59.96282305,Chrome,1440,960,,,,,10,893,,,,,,,,,,,,,,,,,139,S,hexagon,1,0,,,,,,,,,,,,,,,,repeat,number,numRpt,d,0.5665,Lo,,,,,,3,,,,,,,,low,3,0,3,0,1,,,,,,,,,
292612,2022-12-07_14h19.27.698,vts_reward_expectancy_bt,2022.2.4,Win32,59.96282305,Chrome,1440,960,,,,,0,893,,,,,,,,,,,,,,,,,125,Y,triangle,1,0,,,,,,,,,,,,,,,,repeat,number,numRpt,d,0.6007,Hi,,,,,,3,,,,,,,,low,4,0,4,0,1,,,,,,,,,
292612,2022-12-07_14h19.27.698,vts_reward_expectancy_bt,2022.2.4,Win32,59.96282305,Chrome,1440,960,,,,,10,903,,,,,,,,,,,,,,,,,160,D,star,1,0,,,,,,,,,,,,,,,,repeat,number,numRpt,f,0.5004,Hi,,,,,,3,,,,,,,,low,5,0,5,0,1,,,,,,,,,
292612,2022-12-07_14h19.27.698,vts_reward_expectancy_bt,2022.2.4,Win32,59.96282305,Chrome,1440,960,,,,,1,904,,,,,,,,,,,,,,,,,132,W,circle,1,0,,,,,,,,,,,,,,,,switch,letter,lettSwt,k,0.5021,Lo,,,,,,3,,,,,,,,low,6,0,6,0,1,,,,,,,,,
292612,2022-12-07_14h19.27.698,vts_reward_expectancy_bt,2022.2.4,Win32,59.96282305,Chrome,1440,960,,,,,1,905,,,,,,,,,,,,,,,,,146,H,hexagon,1,0,,,,,,,,,,,,,,,,repeat,letter,lettRpt,j,0.5175,Lo,,,,,,3,,,,,,,,low,7,0,7,0,1,,,,,,,,,
292612,2022-12-07_14h19.27.698,vts_reward_expectancy_bt,2022.2.4,Win32,59.96282305,Chrome,1440,960,,,,,0,905,,,,,,,,,,,,,,,,,167,U,triangle,1,0,,,,,,,,,,,,,,,,repeat,letter,lettRpt,k,0.6842,Hi,,,,,,3,,,,,,,,low,8,0,8,0,1,,,,,,,,,
292612,2022-12-07_14h19.27.698,vts_reward_expectancy_bt,2022.2.4,Win32,59.96282305,Chrome,1440,960,,,,,0,905,,,,,,,,,,,,,,,,,174,F,star,1,0,,,,,,,,,,,,,,,,repeat,letter,lettRpt,j,0.5224,Hi,,,,,,3,,,,,,,,low,9,0,9,0,1,,,,,,,,,
292612,2022-12-07_14h19.27.698,vts_reward_expectancy_bt,2022.2.4,Win32,59.96282305,Chrome,1440,960,,,,,1,906,,,,,,,,,,,,,,,,,181,B,hexagon,1,0,,,,,,,,,,,,,,,,repeat,letter,lettRpt,j,0.4738,Lo,,,,,,3,,,,,,,,low,10,0,10,0,1,,,,,,,,,
292612,2022-12-07_14h19.27.698,vts_reward_expectancy_bt,2022.2.4,Win32,59.96282305,Chrome,1440,960,,,,,1,907,,,,,,,,,,,,,,,,,139,S,circle,1,0,,,,,,,,,,,,,,,,repeat,letter,lettRpt,k,0.5012,Lo,,,,,,3,,,,,,,,low,11,0,11,0,1,,,,,,,,,
292612,2022-12-07_14h19.27.698,vts_reward_expectancy_bt,2022.2.4,Win32,59.96282305,Chrome,1440,960,,,,,10,917,,,,,,,,,,,,,,,,,125,Y,circle,1,0,,,,,,,,,,,,,,,,switch,number,numSwt,d,0.3565,Lo,,,,,,3,,,,,,,,low,12,0,12,0,1,,,,,,,,,
292612,2022-12-07_14h19.27.698,vts_reward_expectancy_bt,2022.2.4,Win32,59.96282305,Chrome,1440,960,,,,,1,918,,,,,,,,,,,,,,,,,160,D,hexagon,1,0,,,,,,,,,,,,,,,,repeat,number,numRpt,f,0.4895,Lo,,,,,,3,,,,,,,,low,13,0,13,0,1,,,,,,,,,
292612,2022-12-07_14h19.27.698,vts_reward_expectancy_bt,2022.2.4,Win32,59.96282305,Chrome,1440,960,,,,,10,928,,,,,,,,,,,,,,,,,132,W,triangle,1,0,,,,,,,,,,,,,,,,switch,letter,lettSwt,k,0.5172,Hi,,,,,,3,,,,,,,,low,14,0,14,0,1,,,,,,,,,
292612,2022-12-07_14h19.27.698,vts_reward_expectancy_bt,2022.2.4,Win32,59.96282305,Chrome,1440,960,,,,,0,928,,,,,,,,,,,,,,,,,146,H,star,1,0,,,,,,,,,,,,,,,,repeat,letter,lettRpt,j,0.5347,Hi,,,,,,3,,,,,,,,low,15,0,15,0,1,,,,,,,,,
292612,2022-12-07_14h19.27.698,vts_reward_expectancy_bt,2022.2.4,Win32,59.96282305,Chrome,1440,960,,,,,10,938,,,,,,,,,,,,,,,,,139,Y,hexagon,1,0,,,,,,,,,,,,,,,,repeat,letter,lettRpt,k,0.5553,Lo,,,,,,3,,,,,,,,low,16,0,16,0,1,,,,,,,,,
292612,2022-12-07_14h19.27.698,vts_reward_expectancy_bt,2022.2.4,Win32,59.96282305,Chrome,1440,960,,,,,0,938,,,,,,,,,,,,,,,,,132,H,triangle,1,0,,,,,,,,,,,,,,,,repeat,letter,lettRpt,j,0.5228,Hi,,,,,,3,,,,,,,,low,17,0,17,0,1,,,,,,,,,
292612,2022-12-07_14h19.27.698,vts_reward_expectancy_bt,2022.2.4,Win32,59.96282305,Chrome,1440,960,,,,,0,938,,,,,,,,,,,,,,,,,181,U,star,1,0,,,,,,,,,,,,,,,,repeat,letter,lettRpt,k,0.5354,Hi,,,,,,3,,,,,,,,low,18,0,18,0,1,,,,,,,,,
292612,2022-12-07_14h19.27.698,vts_reward_expectancy_bt,2022.2.4,Win32,59.96282305,Chrome,1440,960,,,,,10,948,,,,,,,,,,,,,,,,,125,B,circle,1,0,,,,,,,,,,,,,,,,repeat,letter,lettRpt,j,0.3973,Lo,,,,,,3,,,,,,,,low,19,0,19,0,1,,,,,,,,,
292612,2022-12-07_14h19.27.698,vts_reward_expectancy_bt,2022.2.4,Win32,59.96282305,Chrome,1440,960,,,,,1,949,,,,,,,,,,,,,,,,,167,W,triangle,1,0,,,,,,,,,,,,,,,,repeat,letter,lettRpt,k,0.4373,Hi,,,,,,3,,,,,,,,low,20,0,20,0,1,,,,,,,,,
292612,2022-12-07_14h19.27.698,vts_reward_expectancy_bt,2022.2.4,Win32,59.96282305,Chrome,1440,960,,,,,1,950,,,,,,,,,,,,,,,,,174,F,circle,1,0,,,,,,,,,,,,,,,,repeat,letter,lettRpt,j,0.5803,Lo,,,,,,3,,,,,,,,low,21,0,21,0,1,,,,,,,,,
292612,2022-12-07_14h19.27.698,vts_reward_expectancy_bt,2022.2.4,Win32,59.96282305,Chrome,1440,960,,,,,1,951,,,,,,,,,,,,,,,,,146,S,hexagon,1,0,,,,,,,,,,,,,,,,switch,number,numSwt,d,0.4008,Lo,,,,,,3,,,,,,,,low,22,0,22,0,1,,,,,,,,,
292612,2022-12-07_14h19.27.698,vts_reward_expectancy_bt,2022.2.4,Win32,59.96282305,Chrome,1440,960,,,,,0,951,,,,,,,,,,,,,,,,,160,D,star,1,0,,,,,,,,,,,,,,,,repeat,number,numRpt,f,0.6821,Hi,,,,,,3,,,,,,,,low,23,0,23,0,1,,,,,,,,,
292612,2022-12-07_14h19.27.698,vts_reward_expectancy_bt,2022.2.4,Win32,59.96282305,Chrome,1440,960,,,,,10,961,,,,,,,,,,,,,,,,,125,H,hexagon,1,0,,,,,,,,,,,,,,,,repeat,number,numRpt,d,0.4846,Lo,,,,,,3,,,,,,,,low,24,0,24,0,1,,,,,,,,,
292612,2022-12-07_14h19.27.698,vts_reward_expectancy_bt,2022.2.4,Win32,59.96282305,Chrome,1440,960,,,,,10,971,,,,,,,,,,,,,,,,,139,S,circle,1,0,,,,,,,,,,,,,,,,repeat,number,numRpt,d,0.6174,Lo,,,,,,3,,,,,,,,low,25,0,25,0,1,,,,,,,,,
292612,2022-12-07_14h19.27.698,vts_reward_expectancy_bt,2022.2.4,Win32,59.96282305,Chrome,1440,960,,,,,1,972,,,,,,,,,,,,,,,,,132,B,triangle,1,0,,,,,,,,,,,,,,,,repeat,number,numRpt,d,0.4214,Hi,,,,,,3,,,,,,,,low,26,0,26,0,1,,,,,,,,,
292612,2022-12-07_14h19.27.698,vts_reward_expectancy_bt,2022.2.4,Win32,59.96282305,Chrome,1440,960,,,,,0,972,,,,,,,,,,,,,,,,,181,W,star,1,0,,,,,,,,,,,,,,,,repeat,number,numRpt,f,0.5897,Hi,,,,,,3,,,,,,,,low,27,0,27,0,1,,,,,,,,,
292612,2022-12-07_14h19.27.698,vts_reward_expectancy_bt,2022.2.4,Win32,59.96282305,Chrome,1440,960,,,,,10,982,,,,,,,,,,,,,,,,,160,F,triangle,1,0,,,,,,,,,,,,,,,,repeat,number,numRpt,f,0.5183,Hi,,,,,,3,,,,,,,,low,28,0,28,0,1,,,,,,,,,
292612,2022-12-07_14h19.27.698,vts_reward_expectancy_bt,2022.2.4,Win32,59.96282305,Chrome,1440,960,,,,,10,992,,,,,,,,,,,,,,,,,174,D,circle,1,0,,,,,,,,,,,,,,,,repeat,number,numRpt,f,0.5179,Lo,,,,,,3,,,,,,,,low,29,0,29,0,1,,,,,,,,,
292612,2022-12-07_14h19.27.698,vts_reward_expectancy_bt,2022.2.4,Win32,59.96282305,Chrome,1440,960,,,,,10,1002,,,,,,,,,,,,,,,,,167,U,hexagon,1,0,,,,,,,,,,,,,,,,repeat,number,numRpt,f,0.4654,Lo,,,,,,3,,,,,,,,low,30,0,30,0,1,,,,,,,,,
292612,2022-12-07_14h19.27.698,vts_reward_expectancy_bt,2022.2.4,Win32,59.96282305,Chrome,1440,960,,,,,0,1002,,,,,,,,,,,,,,,,,146,Y,star,0,0,,,,,,,,,,,,,,,,repeat,number,NA,f,0.6009,Lo,,,,,,3,,,,,,,,low,31,0,31,0,1,,,,,,,,,
292612,2022-12-07_14h19.27.698,vts_reward_expectancy_bt,2022.2.4,Win32,59.96282305,Chrome,1440,960,,,,,0,1002,,,,,,,,,,,,,,,,,160,W,triangle,1,1,,,,,,,,,,,,,,,,repeat,number,numRpt,f,0.5672,Hi,,,,,,4,,,,,,space,1.1162,low,0,0,0,0,1,,,,,,,,,
292612,2022-12-07_14h19.27.698,vts_reward_expectancy_bt,2022.2.4,Win32,59.96282305,Chrome,1440,960,,,,,10,1012,,,,,,,,,,,,,,,,,132,U,circle,1,0,,,,,,,,,,,,,,,,repeat,number,numRpt,d,0.6012,Lo,,,,,,4,,,,,,,,low,1,0,1,0,1,,,,,,,,,
292612,2022-12-07_14h19.27.698,vts_reward_expectancy_bt,2022.2.4,Win32,59.96282305,Chrome,1440,960,,,,,0,1012,,,,,,,,,,,,,,,,,181,S,star,1,0,,,,,,,,,,,,,,,,repeat,number,numRpt,f,0.6007,Hi,,,,,,4,,,,,,,,low,2,0,2,0,1,,,,,,,,,
292612,2022-12-07_14h19.27.698,vts_reward_expectancy_bt,2022.2.4,Win32,59.96282305,Chrome,1440,960,,,,,1,1013,,,,,,,,,,,,,,,,,146,Y,hexagon,1,0,,,,,,,,,,,,,,,,repeat,number,numRpt,d,0.5219,Lo,,,,,,4,,,,,,,,low,3,0,3,0,1,,,,,,,,,
292612,2022-12-07_14h19.27.698,vts_reward_expectancy_bt,2022.2.4,Win32,59.96282305,Chrome,1440,960,,,,,0,1013,,,,,,,,,,,,,,,,,174,D,triangle,1,0,,,,,,,,,,,,,,,,repeat,number,numRpt,f,0.5512,Hi,,,,,,4,,,,,,,,low,4,0,4,0,1,,,,,,,,,
292612,2022-12-07_14h19.27.698,vts_reward_expectancy_bt,2022.2.4,Win32,59.96282305,Chrome,1440,960,,,,,1,1014,,,,,,,,,,,,,,,,,167,H,circle,1,0,,,,,,,,,,,,,,,,repeat,number,numRpt,f,0.5016,Lo,,,,,,4,,,,,,,,low,5,0,5,0,1,,,,,,,,,
292612,2022-12-07_14h19.27.698,vts_reward_expectancy_bt,2022.2.4,Win32,59.96282305,Chrome,1440,960,,,,,0,1014,,,,,,,,,,,,,,,,,125,B,star,1,0,,,,,,,,,,,,,,,,repeat,number,numRpt,d,0.6042,Hi,,,,,,4,,,,,,,,low,6,0,6,0,1,,,,,,,,,
292612,2022-12-07_14h19.27.698,vts_reward_expectancy_bt,2022.2.4,Win32,59.96282305,Chrome,1440,960,,,,,10,1024,,,,,,,,,,,,,,,,,139,F,hexagon,1,0,,,,,,,,,,,,,,,,switch,letter,lettSwt,j,0.8749,Lo,,,,,,4,,,,,,,,low,7,0,7,0,1,,,,,,,,,
292612,2022-12-07_14h19.27.698,vts_reward_expectancy_bt,2022.2.4,Win32,59.96282305,Chrome,1440,960,,,,,0,1024,,,,,,,,,,,,,,,,,160,W,triangle,1,0,,,,,,,,,,,,,,,,repeat,letter,lettRpt,k,0.7915,Hi,,,,,,4,,,,,,,,low,8,0,8,0,1,,,,,,,,,
292612,2022-12-07_14h19.27.698,vts_reward_expectancy_bt,2022.2.4,Win32,59.96282305,Chrome,1440,960,,,,,1,1025,,,,,,,,,,,,,,,,,132,U,star,1,0,,,,,,,,,,,,,,,,repeat,letter,lettRpt,k,0.5012,Hi,,,,,,4,,,,,,,,low,9,0,9,0,1,,,,,,,,,
292612,2022-12-07_14h19.27.698,vts_reward_expectancy_bt,2022.2.4,Win32,59.96282305,Chrome,1440,960,,,,,1,1026,,,,,,,,,,,,,,,,,181,S,circle,1,0,,,,,,,,,,,,,,,,repeat,letter,lettRpt,k,0.6349,Lo,,,,,,4,,,,,,,,low,10,0,10,0,1,,,,,,,,,
292612,2022-12-07_14h19.27.698,vts_reward_expectancy_bt,2022.2.4,Win32,59.96282305,Chrome,1440,960,,,,,1,1027,,,,,,,,,,,,,,,,,146,Y,hexagon,1,0,,,,,,,,,,,,,,,,repeat,letter,lettRpt,k,0.4706,Lo,,,,,,4,,,,,,,,low,11,0,11,0,1,,,,,,,,,
292612,2022-12-07_14h19.27.698,vts_reward_expectancy_bt,2022.2.4,Win32,59.96282305,Chrome,1440,960,,,,,1,1028,,,,,,,,,,,,,,,,,174,D,hexagon,1,0,,,,,,,,,,,,,,,,repeat,letter,lettRpt,j,0.4508,Lo,,,,,,4,,,,,,,,low,12,0,12,0,1,,,,,,,,,
292612,2022-12-07_14h19.27.698,vts_reward_expectancy_bt,2022.2.4,Win32,59.96282305,Chrome,1440,960,,,,,0,1028,,,,,,,,,,,,,,,,,167,H,triangle,1,0,,,,,,,,,,,,,,,,switch,number,numSwt,f,0.5497,Hi,,,,,,4,,,,,,,,low,13,0,13,0,1,,,,,,,,,
292612,2022-12-07_14h19.27.698,vts_reward_expectancy_bt,2022.2.4,Win32,59.96282305,Chrome,1440,960,,,,,10,1038,,,,,,,,,,,,,,,,,125,B,star,1,0,,,,,,,,,,,,,,,,repeat,number,numRpt,d,0.4521,Hi,,,,,,4,,,,,,,,low,14,0,14,0,1,,,,,,,,,
292612,2022-12-07_14h19.27.698,vts_reward_expectancy_bt,2022.2.4,Win32,59.96282305,Chrome,1440,960,,,,,1,1039,,,,,,,,,,,,,,,,,139,F,circle,1,0,,,,,,,,,,,,,,,,repeat,number,numRpt,d,0.8969,Lo,,,,,,4,,,,,,,,low,15,0,15,0,1,,,,,,,,,
292612,2022-12-07_14h19.27.698,vts_reward_expectancy_bt,2022.2.4,Win32,59.96282305,Chrome,1440,960,,,,,1,1040,,,,,,,,,,,,,,,,,146,D,hexagon,1,0,,,,,,,,,,,,,,,,repeat,number,numRpt,d,0.6489,Lo,,,,,,4,,,,,,,,low,16,0,16,0,1,,,,,,,,,
292612,2022-12-07_14h19.27.698,vts_reward_expectancy_bt,2022.2.4,Win32,59.96282305,Chrome,1440,960,,,,,1,1041,,,,,,,,,,,,,,,,,181,Y,circle,1,0,,,,,,,,,,,,,,,,repeat,number,numRpt,f,0.6172,Lo,,,,,,4,,,,,,,,low,17,0,17,0,1,,,,,,,,,
292612,2022-12-07_14h19.27.698,vts_reward_expectancy_bt,2022.2.4,Win32,59.96282305,Chrome,1440,960,,,,,1,1042,,,,,,,,,,,,,,,,,132,B,triangle,1,0,,,,,,,,,,,,,,,,switch,letter,lettSwt,j,0.417,Hi,,,,,,4,,,,,,,,low,18,0,18,0,1,,,,,,,,,
292612,2022-12-07_14h19.27.698,vts_reward_expectancy_bt,2022.2.4,Win32,59.96282305,Chrome,1440,960,,,,,0,1042,,,,,,,,,,,,,,,,,174,S,star,1,0,,,,,,,,,,,,,,,,repeat,letter,lettRpt,k,0.5571,Hi,,,,,,4,,,,,,,,low,19,0,19,0,1,,,,,,,,,
292612,2022-12-07_14h19.27.698,vts_reward_expectancy_bt,2022.2.4,Win32,59.96282305,Chrome,1440,960,,,,,10,1052,,,,,,,,,,,,,,,,,167,H,star,1,0,,,,,,,,,,,,,,,,repeat,letter,lettRpt,j,0.4569,Hi,,,,,,4,,,,,,,,low,20,0,20,0,1,,,,,,,,,
292612,2022-12-07_14h19.27.698,vts_reward_expectancy_bt,2022.2.4,Win32,59.96282305,Chrome,1440,960,,,,,0,1052,,,,,,,,,,,,,,,,,139,U,hexagon,0,0,,,,,,,,,,,,,,,,repeat,letter,NA,j,0.4508,Hi,,,,,,4,,,,,,,,low,21,0,21,0,1,,,,,,,,,
292612,2022-12-07_14h19.27.698,vts_reward_expectancy_bt,2022.2.4,Win32,59.96282305,Chrome,1440,960,,,,,0,1052,,,,,,,,,,,,,,,,,125,F,triangle,1,1,,,,,,,,,,,,,,,,repeat,letter,lettRpt,j,0.6032,Hi,,,,,,4,,,,,,,,low,22,0,22,0,1,,,,,,,,,
292612,2022-12-07_14h19.27.698,vts_reward_expectancy_bt,2022.2.4,Win32,59.96282305,Chrome,1440,960,,,,,1,1053,,,,,,,,,,,,,,,,,160,W,circle,1,0,,,,,,,,,,,,,,,,repeat,letter,lettRpt,k,0.5847,Lo,,,,,,4,,,,,,,,low,23,0,23,0,1,,,,,,,,,
292612,2022-12-07_14h19.27.698,vts_reward_expectancy_bt,2022.2.4,Win32,59.96282305,Chrome,1440,960,,,,,0,1053,,,,,,,,,,,,,,,,,132,U,star,1,0,,,,,,,,,,,,,,,,repeat,letter,lettRpt,k,0.5174,Hi,,,,,,4,,,,,,,,low,24,0,24,0,1,,,,,,,,,
292612,2022-12-07_14h19.27.698,vts_reward_expectancy_bt,2022.2.4,Win32,59.96282305,Chrome,1440,960,,,,,0,1053,,,,,,,,,,,,,,,,,139,F,triangle,1,0,,,,,,,,,,,,,,,,repeat,letter,lettRpt,j,0.5502,Hi,,,,,,4,,,,,,,,low,25,0,25,0,1,,,,,,,,,
292612,2022-12-07_14h19.27.698,vts_reward_expectancy_bt,2022.2.4,Win32,59.96282305,Chrome,1440,960,,,,,1,1054,,,,,,,,,,,,,,,,,181,B,hexagon,1,0,,,,,,,,,,,,,,,,repeat,letter,lettRpt,j,0.3913,Lo,,,,,,4,,,,,,,,low,26,0,26,0,1,,,,,,,,,
292612,2022-12-07_14h19.27.698,vts_reward_expectancy_bt,2022.2.4,Win32,59.96282305,Chrome,1440,960,,,,,1,1055,,,,,,,,,,,,,,,,,174,W,circle,1,0,,,,,,,,,,,,,,,,repeat,letter,lettRpt,k,0.4512,Lo,,,,,,4,,,,,,,,low,27,0,27,0,1,,,,,,,,,
292612,2022-12-07_14h19.27.698,vts_reward_expectancy_bt,2022.2.4,Win32,59.96282305,Chrome,1440,960,,,,,10,1065,,,,,,,,,,,,,,,,,146,H,circle,1,0,,,,,,,,,,,,,,,,repeat,letter,lettRpt,j,0.567,Lo,,,,,,4,,,,,,,,low,28,0,28,0,1,,,,,,,,,
292612,2022-12-07_14h19.27.698,vts_reward_expectancy_bt,2022.2.4,Win32,59.96282305,Chrome,1440,960,,,,,0,1065,,,,,,,,,,,,,,,,,167,Y,triangle,1,0,,,,,,,,,,,,,,,,switch,number,numSwt,f,0.5676,Hi,,,,,,4,,,,,,,,low,29,0,29,0,1,,,,,,,,,
292612,2022-12-07_14h19.27.698,vts_reward_expectancy_bt,2022.2.4,Win32,59.96282305,Chrome,1440,960,,,,,10,1075,,,,,,,,,,,,,,,,,160,S,hexagon,1,0,,,,,,,,,,,,,,,,repeat,number,numRpt,f,0.4898,Lo,,,,,,4,,,,,,,,low,30,0,30,0,1,,,,,,,,,
292612,2022-12-07_14h19.27.698,vts_reward_expectancy_bt,2022.2.4,Win32,59.96282305,Chrome,1440,960,,,,,10,1085,,,,,,,,,,,,,,,,,125,D,star,1,0,,,,,,,,,,,,,,,,repeat,number,numRpt,d,0.4923,Hi,,,,,,4,,,,,,,,low,31,0,31,0,1,,,,,,,,,
292612,2022-12-07_14h19.27.698,vts_reward_expectancy_bt,2022.2.4,Win32,59.96282305,Chrome,1440,960,,,,,10,1095,,,,,,,,,,,,,,,,,160,W,circle,1,0,,,,,,,,,,,,,,,,repeat,number,numRpt,f,0.7867,Lo,,,,,,5,,,,,,space,6.8319,low,0,0,0,0,1,,,,,,,,,
292612,2022-12-07_14h19.27.698,vts_reward_expectancy_bt,2022.2.4,Win32,59.96282305,Chrome,1440,960,,,,,0,1095,,,,,,,,,,,,,,,,,167,S,triangle,1,0,,,,,,,,,,,,,,,,repeat,number,numRpt,f,0.603,Hi,,,,,,5,,,,,,,,low,1,0,1,0,1,,,,,,,,,
292612,2022-12-07_14h19.27.698,vts_reward_expectancy_bt,2022.2.4,Win32,59.96282305,Chrome,1440,960,,,,,0,1095,,,,,,,,,,,,,,,,,146,F,star,0,0,,,,,,,,,,,,,,,,repeat,number,NA,f,0.4506,Hi,,,,,,5,,,,,,,,low,2,0,2,0,1,,,,,,,,,
292612,2022-12-07_14h19.27.698,vts_reward_expectancy_bt,2022.2.4,Win32,59.96282305,Chrome,1440,960,,,,,10,1105,,,,,,,,,,,,,,,,,125,U,hexagon,1,1,,,,,,,,,,,,,,,,repeat,number,numRpt,d,0.4548,Lo,,,,,,5,,,,,,,,low,3,0,3,0,1,,,,,,,,,
292612,2022-12-07_14h19.27.698,vts_reward_expectancy_bt,2022.2.4,Win32,59.96282305,Chrome,1440,960,,,,,1,1106,,,,,,,,,,,,,,,,,174,Y,circle,1,0,,,,,,,,,,,,,,,,switch,letter,lettSwt,k,0.7511,Lo,,,,,,5,,,,,,,,low,4,0,4,0,1,,,,,,,,,
292612,2022-12-07_14h19.27.698,vts_reward_expectancy_bt,2022.2.4,Win32,59.96282305,Chrome,1440,960,,,,,0,1106,,,,,,,,,,,,,,,,,181,B,triangle,1,0,,,,,,,,,,,,,,,,repeat,letter,lettRpt,j,0.6834,Hi,,,,,,5,,,,,,,,low,5,0,5,0,1,,,,,,,,,
292612,2022-12-07_14h19.27.698,vts_reward_expectancy_bt,2022.2.4,Win32,59.96282305,Chrome,1440,960,,,,,0,1106,,,,,,,,,,,,,,,,,132,H,star,1,0,,,,,,,,,,,,,,,,repeat,letter,lettRpt,j,1.3504,Hi,,,,,,5,,,,,,,,low,6,0,6,0,1,,,,,,,,,
292612,2022-12-07_14h19.27.698,vts_reward_expectancy_bt,2022.2.4,Win32,59.96282305,Chrome,1440,960,,,,,1,1107,,,,,,,,,,,,,,,,,139,D,hexagon,1,0,,,,,,,,,,,,,,,,repeat,letter,lettRpt,j,1.2646,Lo,,,,,,5,,,,,,,,low,7,0,7,0,1,,,,,,,,,
292612,2022-12-07_14h19.27.698,vts_reward_expectancy_bt,2022.2.4,Win32,59.96282305,Chrome,1440,960,,,,,0,1107,,,,,,,,,,,,,,,,,160,W,triangle,1,0,,,,,,,,,,,,,,,,repeat,letter,lettRpt,k,0.6498,Hi,,,,,,5,,,,,,,,low,8,0,8,0,1,,,,,,,,,
292612,2022-12-07_14h19.27.698,vts_reward_expectancy_bt,2022.2.4,Win32,59.96282305,Chrome,1440,960,,,,,0,1107,,,,,,,,,,,,,,,,,167,S,hexagon,0,0,,,,,,,,,,,,,,,,repeat,letter,NA,j,0.5861,Hi,,,,,,5,,,,,,,,low,9,0,9,0,1,,,,,,,,,
292612,2022-12-07_14h19.27.698,vts_reward_expectancy_bt,2022.2.4,Win32,59.96282305,Chrome,1440,960,,,,,0,1107,,,,,,,,,,,,,,,,,146,F,star,1,1,,,,,,,,,,,,,,,,repeat,letter,lettRpt,j,0.8506,Hi,,,,,,5,,,,,,,,low,10,0,10,0,1,,,,,,,,,
292612,2022-12-07_14h19.27.698,vts_reward_expectancy_bt,2022.2.4,Win32,59.96282305,Chrome,1440,960,,,,,1,1108,,,,,,,,,,,,,,,,,125,U,circle,1,0,,,,,,,,,,,,,,,,switch,number,numSwt,d,0.6177,Lo,,,,,,5,,,,,,,,low,11,0,11,0,1,,,,,,,,,
292612,2022-12-07_14h19.27.698,vts_reward_expectancy_bt,2022.2.4,Win32,59.96282305,Chrome,1440,960,,,,,0,1108,,,,,,,,,,,,,,,,,174,Y,star,1,0,,,,,,,,,,,,,,,,repeat,number,numRpt,f,0.7166,Hi,,,,,,5,,,,,,,,low,12,0,12,0,1,,,,,,,,,
292612,2022-12-07_14h19.27.698,vts_reward_expectancy_bt,2022.2.4,Win32,59.96282305,Chrome,1440,960,,,,,0,1108,,,,,,,,,,,,,,,,,181,B,triangle,1,0,,,,,,,,,,,,,,,,repeat,number,numRpt,f,0.6155,Hi,,,,,,5,,,,,,,,low,13,0,13,0,1,,,,,,,,,
292612,2022-12-07_14h19.27.698,vts_reward_expectancy_bt,2022.2.4,Win32,59.96282305,Chrome,1440,960,,,,,1,1109,,,,,,,,,,,,,,,,,132,H,circle,1,0,,,,,,,,,,,,,,,,repeat,number,numRpt,d,0.4988,Lo,,,,,,5,,,,,,,,low,14,0,14,0,1,,,,,,,,,
292612,2022-12-07_14h19.27.698,vts_reward_expectancy_bt,2022.2.4,Win32,59.96282305,Chrome,1440,960,,,,,0,1109,,,,,,,,,,,,,,,,,139,D,hexagon,0,0,,,,,,,,,,,,,,,,repeat,number,NA,f,0.6146,Lo,,,,,,5,,,,,,,,low,15,0,15,0,1,,,,,,,,,
292612,2022-12-07_14h19.27.698,vts_reward_expectancy_bt,2022.2.4,Win32,59.96282305,Chrome,1440,960,,,,,10,1119,,,,,,,,,,,,,,,,,167,D,circle,1,1,,,,,,,,,,,,,,,,repeat,number,numRpt,f,1.4671,Lo,,,,,,5,,,,,,,,low,16,0,16,0,1,,,,,,,,,
292612,2022-12-07_14h19.27.698,vts_reward_expectancy_bt,2022.2.4,Win32,59.96282305,Chrome,1440,960,,,,,0,1119,,,,,,,,,,,,,,,,,146,W,star,1,0,,,,,,,,,,,,,,,,repeat,number,numRpt,d,0.6135,Hi,,,,,,5,,,,,,,,low,17,0,17,0,1,,,,,,,,,
292612,2022-12-07_14h19.27.698,vts_reward_expectancy_bt,2022.2.4,Win32,59.96282305,Chrome,1440,960,,,,,1,1120,,,,,,,,,,,,,,,,,132,S,hexagon,1,0,,,,,,,,,,,,,,,,repeat,number,numRpt,d,0.8173,Lo,,,,,,5,,,,,,,,low,18,0,18,0,1,,,,,,,,,
292612,2022-12-07_14h19.27.698,vts_reward_expectancy_bt,2022.2.4,Win32,59.96282305,Chrome,1440,960,,,,,0,1120,,,,,,,,,,,,,,,,,181,U,triangle,0,0,,,,,,,,,,,,,,,,repeat,number,NA,d,0.7315,Lo,,,,,,5,,,,,,,,low,19,0,19,0,1,,,,,,,,,
292612,2022-12-07_14h19.27.698,vts_reward_expectancy_bt,2022.2.4,Win32,59.96282305,Chrome,1440,960,,,,,10,1130,,,,,,,,,,,,,,,,,160,B,circle,1,1,,,,,,,,,,,,,,,,repeat,number,numRpt,f,0.6035,Lo,,,,,,5,,,,,,,,low,20,0,20,0,1,,,,,,,,,
292612,2022-12-07_14h19.27.698,vts_reward_expectancy_bt,2022.2.4,Win32,59.96282305,Chrome,1440,960,,,,,1,1131,,,,,,,,,,,,,,,,,174,F,hexagon,1,0,,,,,,,,,,,,,,,,repeat,number,numRpt,f,1.8327,Lo,,,,,,5,,,,,,,,low,21,0,21,0,1,,,,,,,,,
292612,2022-12-07_14h19.27.698,vts_reward_expectancy_bt,2022.2.4,Win32,59.96282305,Chrome,1440,960,,,,,0,1131,,,,,,,,,,,,,,,,,125,Y,star,1,0,,,,,,,,,,,,,,,,repeat,number,numRpt,d,0.9991,Hi,,,,,,5,,,,,,,,low,22,0,22,0,1,,,,,,,,,
292612,2022-12-07_14h19.27.698,vts_reward_expectancy_bt,2022.2.4,Win32,59.96282305,Chrome,1440,960,,,,,0,1131,,,,,,,,,,,,,,,,,139,H,triangle,1,0,,,,,,,,,,,,,,,,repeat,number,numRpt,d,0.6822,Hi,,,,,,5,,,,,,,,low,23,0,23,0,1,,,,,,,,,
292612,2022-12-07_14h19.27.698,vts_reward_expectancy_bt,2022.2.4,Win32,59.96282305,Chrome,1440,960,,,,,10,1141,,,,,,,,,,,,,,,,,181,U,triangle,1,0,,,,,,,,,,,,,,,,repeat,number,numRpt,f,0.516,Hi,,,,,,5,,,,,,,,low,24,0,24,0,1,,,,,,,,,
292612,2022-12-07_14h19.27.698,vts_reward_expectancy_bt,2022.2.4,Win32,59.96282305,Chrome,1440,960,,,,,0,1141,,,,,,,,,,,,,,,,,139,Y,star,1,0,,,,,,,,,,,,,,,,switch,letter,lettSwt,k,0.9301,Hi,,,,,,5,,,,,,,,low,25,0,25,0,1,,,,,,,,,
292612,2022-12-07_14h19.27.698,vts_reward_expectancy_bt,2022.2.4,Win32,59.96282305,Chrome,1440,960,,,,,1,1142,,,,,,,,,,,,,,,,,174,S,hexagon,1,0,,,,,,,,,,,,,,,,repeat,letter,lettRpt,k,0.7873,Lo,,,,,,5,,,,,,,,low,26,0,26,0,1,,,,,,,,,
292612,2022-12-07_14h19.27.698,vts_reward_expectancy_bt,2022.2.4,Win32,59.96282305,Chrome,1440,960,,,,,1,1143,,,,,,,,,,,,,,,,,160,D,circle,1,0,,,,,,,,,,,,,,,,repeat,letter,lettRpt,j,0.7366,Lo,,,,,,5,,,,,,,,low,27,0,27,0,1,,,,,,,,,
292612,2022-12-07_14h19.27.698,vts_reward_expectancy_bt,2022.2.4,Win32,59.96282305,Chrome,1440,960,,,,,0,1143,,,,,,,,,,,,,,,,,167,H,triangle,1,0,,,,,,,,,,,,,,,,repeat,letter,lettRpt,j,0.5148,Hi,,,,,,5,,,,,,,,low,28,0,28,0,1,,,,,,,,,
292612,2022-12-07_14h19.27.698,vts_reward_expectancy_bt,2022.2.4,Win32,59.96282305,Chrome,1440,960,,,,,10,1153,,,,,,,,,,,,,,,,,125,B,circle,1,0,,,,,,,,,,,,,,,,repeat,letter,lettRpt,j,0.7045,Lo,,,,,,5,,,,,,,,low,29,0,29,0,1,,,,,,,,,
292612,2022-12-07_14h19.27.698,vts_reward_expectancy_bt,2022.2.4,Win32,59.96282305,Chrome,1440,960,,,,,10,1163,,,,,,,,,,,,,,,,,132,F,hexagon,1,0,,,,,,,,,,,,,,,,repeat,letter,lettRpt,j,0.6319,Lo,,,,,,5,,,,,,,,low,30,0,30,0,1,,,,,,,,,
292612,2022-12-07_14h19.27.698,vts_reward_expectancy_bt,2022.2.4,Win32,59.96282305,Chrome,1440,960,,,,,0,1163,,,,,,,,,,,,,,,,,146,W,star,1,0,,,,,,,,,,,,,,,,repeat,letter,lettRpt,k,0.9317,Hi,,,,,,5,,,,,,,,low,31,0,31,0,1,,,,,,,,,
292612,2022-12-07_14h19.27.698,vts_reward_expectancy_bt,2022.2.4,Win32,59.96282305,Chrome,1440,960,,,,,0,1163,,,,,,,,,,,,,,,,,167,B,triangle,1,0,,,,,,,,,,,,,,,,repeat,letter,lettRpt,j,0.8177,Hi,,,,,,6,,,,,,space,1.149,low,0,0,0,0,1,,,,,,,,,
292612,2022-12-07_14h19.27.698,vts_reward_expectancy_bt,2022.2.4,Win32,59.96282305,Chrome,1440,960,,,,,0,1163,,,,,,,,,,,,,,,,,181,H,star,1,0,,,,,,,,,,,,,,,,repeat,letter,lettRpt,j,0.8046,Hi,,,,,,6,,,,,,,,low,1,0,1,0,1,,,,,,,,,
292612,2022-12-07_14h19.27.698,vts_reward_expectancy_bt,2022.2.4,Win32,59.96282305,Chrome,1440,960,,,,,10,1173,,,,,,,,,,,,,,,,,132,Y,hexagon,1,0,,,,,,,,,,,,,,,,repeat,letter,lettRpt,k,0.7997,Lo,,,,,,6,,,,,,,,low,2,0,2,0,1,,,,,,,,,
292612,2022-12-07_14h19.27.698,vts_reward_expectancy_bt,2022.2.4,Win32,59.96282305,Chrome,1440,960,,,,,1,1174,,,,,,,,,,,,,,,,,125,D,circle,1,0,,,,,,,,,,,,,,,,repeat,letter,lettRpt,j,0.7312,Lo,,,,,,6,,,,,,,,low,3,0,3,0,1,,,,,,,,,
292612,2022-12-07_14h19.27.698,vts_reward_expectancy_bt,2022.2.4,Win32,59.96282305,Chrome,1440,960,,,,,0,1174,,,,,,,,,,,,,,,,,139,U,triangle,1,0,,,,,,,,,,,,,,,,repeat,letter,lettRpt,k,0.7489,Hi,,,,,,6,,,,,,,,low,4,0,4,0,1,,,,,,,,,
292612,2022-12-07_14h19.27.698,vts_reward_expectancy_bt,2022.2.4,Win32,59.96282305,Chrome,1440,960,,,,,1,1175,,,,,,,,,,,,,,,,,160,W,star,1,0,,,,,,,,,,,,,,,,repeat,letter,lettRpt,k,0.5158,Hi,,,,,,6,,,,,,,,low,5,0,5,0,1,,,,,,,,,
292612,2022-12-07_14h19.27.698,vts_reward_expectancy_bt,2022.2.4,Win32,59.96282305,Chrome,1440,960,,,,,1,1176,,,,,,,,,,,,,,,,,174,F,hexagon,1,0,,,,,,,,,,,,,,,,repeat,letter,lettRpt,j,0.648,Lo,,,,,,6,,,,,,,,low,6,0,6,0,1,,,,,,,,,
292612,2022-12-07_14h19.27.698,vts_reward_expectancy_bt,2022.2.4,Win32,59.96282305,Chrome,1440,960,,,,,0,1176,,,,,,,,,,,,,,,,,146,S,circle,0,0,,,,,,,,,,,,,,,,repeat,letter,NA,j,0.7475,Lo,,,,,,6,,,,,,,,low,7,0,7,0,1,,,,,,,,,
292612,2022-12-07_14h19.27.698,vts_reward_expectancy_bt,2022.2.4,Win32,59.96282305,Chrome,1440,960,,,,,0,1176,,,,,,,,,,,,,,,,,167,B,triangle,1,1,,,,,,,,,,,,,,,,repeat,letter,lettRpt,j,0.7149,Hi,,,,,,6,,,,,,,,low,8,0,8,0,1,,,,,,,,,
292612,2022-12-07_14h19.27.698,vts_reward_expectancy_bt,2022.2.4,Win32,59.96282305,Chrome,1440,960,,,,,10,1186,,,,,,,,,,,,,,,,,181,H,star,1,0,,,,,,,,,,,,,,,,switch,number,numSwt,f,0.5674,Hi,,,,,,6,,,,,,,,low,9,0,9,0,1,,,,,,,,,
292612,2022-12-07_14h19.27.698,vts_reward_expectancy_bt,2022.2.4,Win32,59.96282305,Chrome,1440,960,,,,,1,1187,,,,,,,,,,,,,,,,,132,Y,circle,1,0,,,,,,,,,,,,,,,,repeat,number,numRpt,d,0.7153,Lo,,,,,,6,,,,,,,,low,10,0,10,0,1,,,,,,,,,
292612,2022-12-07_14h19.27.698,vts_reward_expectancy_bt,2022.2.4,Win32,59.96282305,Chrome,1440,960,,,,,1,1188,,,,,,,,,,,,,,,,,125,D,hexagon,1,0,,,,,,,,,,,,,,,,repeat,number,numRpt,d,0.8317,Lo,,,,,,6,,,,,,,,low,11,0,11,0,1,,,,,,,,,
292612,2022-12-07_14h19.27.698,vts_reward_expectancy_bt,2022.2.4,Win32,59.96282305,Chrome,1440,960,,,,,0,1188,,,,,,,,,,,,,,,,,139,U,star,1,0,,,,,,,,,,,,,,,,repeat,number,numRpt,d,0.6493,Hi,,,,,,6,,,,,,,,low,12,0,12,0,1,,,,,,,,,
292612,2022-12-07_14h19.27.698,vts_reward_expectancy_bt,2022.2.4,Win32,59.96282305,Chrome,1440,960,,,,,1,1189,,,,,,,,,,,,,,,,,160,W,circle,1,0,,,,,,,,,,,,,,,,repeat,number,numRpt,f,0.504,Lo,,,,,,6,,,,,,,,low,13,0,13,0,1,,,,,,,,,
292612,2022-12-07_14h19.27.698,vts_reward_expectancy_bt,2022.2.4,Win32,59.96282305,Chrome,1440,960,,,,,10,1199,,,,,,,,,,,,,,,,,174,F,hexagon,1,0,,,,,,,,,,,,,,,,repeat,number,numRpt,f,0.5475,Lo,,,,,,6,,,,,,,,low,14,0,14,0,1,,,,,,,,,
292612,2022-12-07_14h19.27.698,vts_reward_expectancy_bt,2022.2.4,Win32,59.96282305,Chrome,1440,960,,,,,0,1199,,,,,,,,,,,,,,,,,146,S,triangle,1,0,,,,,,,,,,,,,,,,repeat,number,numRpt,d,0.6206,Hi,,,,,,6,,,,,,,,low,15,0,15,0,1,,,,,,,,,
292612,2022-12-07_14h19.27.698,vts_reward_expectancy_bt,2022.2.4,Win32,59.96282305,Chrome,1440,960,,,,,10,1209,,,,,,,,,,,,,,,,,125,U,star,1,0,,,,,,,,,,,,,,,,repeat,number,numRpt,d,0.517,Hi,,,,,,6,,,,,,,,low,16,0,16,0,1,,,,,,,,,
