participant,date,expName,psychopyVersion,OS,frameRate,browser,xResolution,yResolution,key_resp.keys,key_resp.rt,training_resp.keys,training_resp.rt,points_trial,points_cumul,trainBlock,training.thisRepN,training.thisTrialN,training.thisN,training.thisIndex,training.ran,LTriangleOpac,LCircleOpac,LHexagonOpac,LStarOpac,RTriangleOpac,RCircleOpac,RHexagonOpac,RStarOpac,LShape_ID,RShape_ID,curr_topStim,curr_bottStim,curr_shape,acc,E1,target_resp_prac1.keys,pracBlock,task1_prac_trials.thisRepN,task1_prac_trials.thisTrialN,task1_prac_trials.thisN,task1_prac_trials.thisIndex,task1_prac_trials.ran,target_resp_prac1.rt,target_resp_prac2.keys,target_resp_prac2.rt,task2_praac_trials.thisRepN,task2_praac_trials.thisTrialN,task2_praac_trials.thisN,task2_praac_trials.thisIndex,task2_praac_trials.ran,alt,task,condition,target_resp.keys,target_resp.rt,rewCond,vts_practice_trials.thisRepN,vts_practice_trials.thisTrialN,vts_practice_trials.thisN,vts_practice_trials.thisIndex,vts_practice_trials.ran,blockNum,trials_norew.thisRepN,trials_norew.thisTrialN,trials_norew.thisN,trials_norew.thisIndex,trials_norew.ran,key_resp_2.keys,key_resp_2.rt,rewExpectancy,trials_rew.thisRepN,trials_rew.thisTrialN,trials_rew.thisN,trials_rew.thisIndex,trials_rew.ran,Q1,Q2,Q2_text,Q3,Q4,Q5,Q5_text,xRes,yRes
292690,2022-12-05_15h10.33.057,vts_reward_expectancy_bt,2022.2.4,Win32,234.1920375,Chrome,1920,1080,,,,,,,,,,,,,,,,,,,,,,,,,,,,,,,,,,,,,,,,,,,,,,,,,,,,,,,,,,,,,,,,,,,,,,,,,,,,
292690,2022-12-05_15h10.33.057,vts_reward_expectancy_bt,2022.2.4,Win32,234.1920375,Chrome,1920,1080,space,17.8949,,,,,,,,,,,,,,,,,,,,,,,,,,,,,,,,,,,,,,,,,,,,,,,,,,,,,,,,,,,,,,,,,,,,,,,,,,
292690,2022-12-05_15h10.33.057,vts_reward_expectancy_bt,2022.2.4,Win32,234.1920375,Chrome,1920,1080,,,,,,,,,,,,,,,,,,,,,,,,,,,,,,,,,,,,,,,,,,,,,,,,,,,,,,,,,,,,,,,,,,,,,,,,,,,,
292690,2022-12-05_15h10.33.057,vts_reward_expectancy_bt,2022.2.4,Win32,234.1920375,Chrome,1920,1080,,,a,3.9377,1,1,0,0,0,0,6,1,0,0,1,0,1,0,0,0,hexagon,triangle,,,,,,,,,,,,,,,,,,,,,,,,,,,,,,,,,,,,,,,,,,,,,,,,,,,,,,
292690,2022-12-05_15h10.33.057,vts_reward_expectancy_bt,2022.2.4,Win32,234.1920375,Chrome,1920,1080,,,a,3.1378,10,11,0,0,1,1,0,1,1,0,0,0,0,1,0,0,triangle,circle,,,,,,,,,,,,,,,,,,,,,,,,,,,,,,,,,,,,,,,,,,,,,,,,,,,,,,
292690,2022-12-05_15h10.33.057,vts_reward_expectancy_bt,2022.2.4,Win32,234.1920375,Chrome,1920,1080,,,a,2.359,1,12,0,0,2,2,4,1,0,1,0,0,0,0,1,0,circle,hexagon,,,,,,,,,,,,,,,,,,,,,,,,,,,,,,,,,,,,,,,,,,,,,,,,,,,,,,
292690,2022-12-05_15h10.33.057,vts_reward_expectancy_bt,2022.2.4,Win32,234.1920375,Chrome,1920,1080,,,a,5.5789,10,22,0,0,3,3,8,1,0,0,1,0,0,0,0,1,hexagon,star,,,,,,,,,,,,,,,,,,,,,,,,,,,,,,,,,,,,,,,,,,,,,,,,,,,,,,
292690,2022-12-05_15h10.33.057,vts_reward_expectancy_bt,2022.2.4,Win32,234.1920375,Chrome,1920,1080,,,a,1.5921,1,23,0,0,4,4,2,1,1,0,0,0,0,0,0,1,triangle,star,,,,,,,,,,,,,,,,,,,,,,,,,,,,,,,,,,,,,,,,,,,,,,,,,,,,,,
292690,2022-12-05_15h10.33.057,vts_reward_expectancy_bt,2022.2.4,Win32,234.1920375,Chrome,1920,1080,,,l,2.1701,1,24,0,0,5,5,10,1,0,0,0,1,0,1,0,0,star ,circle,,,,,,,,,,,,,,,,,,,,,,,,,,,,,,,,,,,,,,,,,,,,,,,,,,,,,,
292690,2022-12-05_15h10.33.057,vts_reward_expectancy_bt,2022.2.4,Win32,234.1920375,Chrome,1920,1080,,,a,5.6366,1,25,0,0,6,6,11,1,0,0,0,1,0,0,1,0,star,hexagon,,,,,,,,,,,,,,,,,,,,,,,,,,,,,,,,,,,,,,,,,,,,,,,,,,,,,,
292690,2022-12-05_15h10.33.057,vts_reward_expectancy_bt,2022.2.4,Win32,234.1920375,Chrome,1920,1080,,,l,2.1174,1,26,0,0,7,7,9,1,0,0,0,1,1,0,0,0,star,triangle,,,,,,,,,,,,,,,,,,,,,,,,,,,,,,,,,,,,,,,,,,,,,,,,,,,,,,
292690,2022-12-05_15h10.33.057,vts_reward_expectancy_bt,2022.2.4,Win32,234.1920375,Chrome,1920,1080,,,l,0.9425,10,36,0,0,8,8,5,1,0,1,0,0,0,0,0,1,circle,star,,,,,,,,,,,,,,,,,,,,,,,,,,,,,,,,,,,,,,,,,,,,,,,,,,,,,,
292690,2022-12-05_15h10.33.057,vts_reward_expectancy_bt,2022.2.4,Win32,234.1920375,Chrome,1920,1080,,,l,3.3188,10,46,0,0,9,9,7,1,0,0,1,0,0,1,0,0,hexagon,circle,,,,,,,,,,,,,,,,,,,,,,,,,,,,,,,,,,,,,,,,,,,,,,,,,,,,,,
292690,2022-12-05_15h10.33.057,vts_reward_expectancy_bt,2022.2.4,Win32,234.1920375,Chrome,1920,1080,,,l,2.7213,1,47,0,0,10,10,3,1,0,1,0,0,1,0,0,0,circle,triangle,,,,,,,,,,,,,,,,,,,,,,,,,,,,,,,,,,,,,,,,,,,,,,,,,,,,,,
292690,2022-12-05_15h10.33.057,vts_reward_expectancy_bt,2022.2.4,Win32,234.1920375,Chrome,1920,1080,,,l,1.9458,10,57,0,0,11,11,1,1,1,0,0,0,0,0,1,0,triangle,hexagon,,,,,,,,,,,,,,,,,,,,,,,,,,,,,,,,,,,,,,,,,,,,,,,,,,,,,,
292690,2022-12-05_15h10.33.057,vts_reward_expectancy_bt,2022.2.4,Win32,234.1920375,Chrome,1920,1080,,,a,1.1925,10,67,0,1,0,12,2,1,1,0,0,0,0,0,0,1,triangle,star,,,,,,,,,,,,,,,,,,,,,,,,,,,,,,,,,,,,,,,,,,,,,,,,,,,,,,
292690,2022-12-05_15h10.33.057,vts_reward_expectancy_bt,2022.2.4,Win32,234.1920375,Chrome,1920,1080,,,l,1.0412,10,77,0,1,1,13,9,1,0,0,0,1,1,0,0,0,star,triangle,,,,,,,,,,,,,,,,,,,,,,,,,,,,,,,,,,,,,,,,,,,,,,,,,,,,,,
292690,2022-12-05_15h10.33.057,vts_reward_expectancy_bt,2022.2.4,Win32,234.1920375,Chrome,1920,1080,,,a,0.5893,10,87,0,1,2,14,8,1,0,0,1,0,0,0,0,1,hexagon,star,,,,,,,,,,,,,,,,,,,,,,,,,,,,,,,,,,,,,,,,,,,,,,,,,,,,,,
292690,2022-12-05_15h10.33.057,vts_reward_expectancy_bt,2022.2.4,Win32,234.1920375,Chrome,1920,1080,,,l,0.3755,10,97,0,1,3,15,1,1,1,0,0,0,0,0,1,0,triangle,hexagon,,,,,,,,,,,,,,,,,,,,,,,,,,,,,,,,,,,,,,,,,,,,,,,,,,,,,,
292690,2022-12-05_15h10.33.057,vts_reward_expectancy_bt,2022.2.4,Win32,234.1920375,Chrome,1920,1080,,,a,0.3006,1,98,0,1,4,16,4,1,0,1,0,0,0,0,1,0,circle,hexagon,,,,,,,,,,,,,,,,,,,,,,,,,,,,,,,,,,,,,,,,,,,,,,,,,,,,,,
292690,2022-12-05_15h10.33.057,vts_reward_expectancy_bt,2022.2.4,Win32,234.1920375,Chrome,1920,1080,,,a,0.7236,10,108,0,1,5,17,6,1,0,0,1,0,1,0,0,0,hexagon,triangle,,,,,,,,,,,,,,,,,,,,,,,,,,,,,,,,,,,,,,,,,,,,,,,,,,,,,,
292690,2022-12-05_15h10.33.057,vts_reward_expectancy_bt,2022.2.4,Win32,234.1920375,Chrome,1920,1080,,,l,0.5344,1,109,0,1,6,18,3,1,0,1,0,0,1,0,0,0,circle,triangle,,,,,,,,,,,,,,,,,,,,,,,,,,,,,,,,,,,,,,,,,,,,,,,,,,,,,,
292690,2022-12-05_15h10.33.057,vts_reward_expectancy_bt,2022.2.4,Win32,234.1920375,Chrome,1920,1080,,,l,1.3823,1,110,0,1,7,19,11,1,0,0,0,1,0,0,1,0,star,hexagon,,,,,,,,,,,,,,,,,,,,,,,,,,,,,,,,,,,,,,,,,,,,,,,,,,,,,,
292690,2022-12-05_15h10.33.057,vts_reward_expectancy_bt,2022.2.4,Win32,234.1920375,Chrome,1920,1080,,,l,0.7295,1,111,0,1,8,20,5,1,0,1,0,0,0,0,0,1,circle,star,,,,,,,,,,,,,,,,,,,,,,,,,,,,,,,,,,,,,,,,,,,,,,,,,,,,,,
292690,2022-12-05_15h10.33.057,vts_reward_expectancy_bt,2022.2.4,Win32,234.1920375,Chrome,1920,1080,,,l,0.7446,1,112,0,1,9,21,0,1,1,0,0,0,0,1,0,0,triangle,circle,,,,,,,,,,,,,,,,,,,,,,,,,,,,,,,,,,,,,,,,,,,,,,,,,,,,,,
292690,2022-12-05_15h10.33.057,vts_reward_expectancy_bt,2022.2.4,Win32,234.1920375,Chrome,1920,1080,,,a,0.8541,10,122,0,1,10,22,7,1,0,0,1,0,0,1,0,0,hexagon,circle,,,,,,,,,,,,,,,,,,,,,,,,,,,,,,,,,,,,,,,,,,,,,,,,,,,,,,
292690,2022-12-05_15h10.33.057,vts_reward_expectancy_bt,2022.2.4,Win32,234.1920375,Chrome,1920,1080,,,a,0.7649,10,132,0,1,11,23,10,1,0,0,0,1,0,1,0,0,star ,circle,,,,,,,,,,,,,,,,,,,,,,,,,,,,,,,,,,,,,,,,,,,,,,,,,,,,,,
292690,2022-12-05_15h10.33.057,vts_reward_expectancy_bt,2022.2.4,Win32,234.1920375,Chrome,1920,1080,,,l,1.5658,10,142,0,2,0,24,10,1,0,0,0,1,0,1,0,0,star ,circle,,,,,,,,,,,,,,,,,,,,,,,,,,,,,,,,,,,,,,,,,,,,,,,,,,,,,,
292690,2022-12-05_15h10.33.057,vts_reward_expectancy_bt,2022.2.4,Win32,234.1920375,Chrome,1920,1080,,,a,2.244,1,143,0,2,1,25,5,1,0,1,0,0,0,0,0,1,circle,star,,,,,,,,,,,,,,,,,,,,,,,,,,,,,,,,,,,,,,,,,,,,,,,,,,,,,,
292690,2022-12-05_15h10.33.057,vts_reward_expectancy_bt,2022.2.4,Win32,234.1920375,Chrome,1920,1080,,,a,5.3461,1,144,0,2,2,26,1,1,1,0,0,0,0,0,1,0,triangle,hexagon,,,,,,,,,,,,,,,,,,,,,,,,,,,,,,,,,,,,,,,,,,,,,,,,,,,,,,
292690,2022-12-05_15h10.33.057,vts_reward_expectancy_bt,2022.2.4,Win32,234.1920375,Chrome,1920,1080,,,a,5.1731,1,145,0,2,3,27,7,1,0,0,1,0,0,1,0,0,hexagon,circle,,,,,,,,,,,,,,,,,,,,,,,,,,,,,,,,,,,,,,,,,,,,,,,,,,,,,,
292690,2022-12-05_15h10.33.057,vts_reward_expectancy_bt,2022.2.4,Win32,234.1920375,Chrome,1920,1080,,,a,1.5412,1,146,0,2,4,28,4,1,0,1,0,0,0,0,1,0,circle,hexagon,,,,,,,,,,,,,,,,,,,,,,,,,,,,,,,,,,,,,,,,,,,,,,,,,,,,,,
292690,2022-12-05_15h10.33.057,vts_reward_expectancy_bt,2022.2.4,Win32,234.1920375,Chrome,1920,1080,,,l,0.3509,1,147,0,2,5,29,6,1,0,0,1,0,1,0,0,0,hexagon,triangle,,,,,,,,,,,,,,,,,,,,,,,,,,,,,,,,,,,,,,,,,,,,,,,,,,,,,,
292690,2022-12-05_15h10.33.057,vts_reward_expectancy_bt,2022.2.4,Win32,234.1920375,Chrome,1920,1080,,,l,0.8176,1,148,0,2,6,30,3,1,0,1,0,0,1,0,0,0,circle,triangle,,,,,,,,,,,,,,,,,,,,,,,,,,,,,,,,,,,,,,,,,,,,,,,,,,,,,,
292690,2022-12-05_15h10.33.057,vts_reward_expectancy_bt,2022.2.4,Win32,234.1920375,Chrome,1920,1080,,,l,3.7891,10,158,0,2,7,31,8,1,0,0,1,0,0,0,0,1,hexagon,star,,,,,,,,,,,,,,,,,,,,,,,,,,,,,,,,,,,,,,,,,,,,,,,,,,,,,,
292690,2022-12-05_15h10.33.057,vts_reward_expectancy_bt,2022.2.4,Win32,234.1920375,Chrome,1920,1080,,,l,1.9764,1,159,0,2,8,32,0,1,1,0,0,0,0,1,0,0,triangle,circle,,,,,,,,,,,,,,,,,,,,,,,,,,,,,,,,,,,,,,,,,,,,,,,,,,,,,,
292690,2022-12-05_15h10.33.057,vts_reward_expectancy_bt,2022.2.4,Win32,234.1920375,Chrome,1920,1080,,,a,9.6747,10,169,0,2,9,33,2,1,1,0,0,0,0,0,0,1,triangle,star,,,,,,,,,,,,,,,,,,,,,,,,,,,,,,,,,,,,,,,,,,,,,,,,,,,,,,
292690,2022-12-05_15h10.33.057,vts_reward_expectancy_bt,2022.2.4,Win32,234.1920375,Chrome,1920,1080,,,l,2.6424,1,170,0,2,10,34,9,1,0,0,0,1,1,0,0,0,star,triangle,,,,,,,,,,,,,,,,,,,,,,,,,,,,,,,,,,,,,,,,,,,,,,,,,,,,,,
292690,2022-12-05_15h10.33.057,vts_reward_expectancy_bt,2022.2.4,Win32,234.1920375,Chrome,1920,1080,,,a,4.981,1,171,0,2,11,35,11,1,0,0,0,1,0,0,1,0,star,hexagon,,,,,,,,,,,,,,,,,,,,,,,,,,,,,,,,,,,,,,,,,,,,,,,,,,,,,,
292690,2022-12-05_15h10.33.057,vts_reward_expectancy_bt,2022.2.4,Win32,234.1920375,Chrome,1920,1080,,,a,3.687,10,181,1,0,0,0,6,1,0,0,1,0,1,0,0,0,hexagon,triangle,,,,,,,,,,,,,,,,,,,,,,,,,,,,,,,,,,,,,,,,,,,,,,,,,,,,,,
292690,2022-12-05_15h10.33.057,vts_reward_expectancy_bt,2022.2.4,Win32,234.1920375,Chrome,1920,1080,,,a,3.5289,1,182,1,0,1,1,7,1,0,0,1,0,0,1,0,0,hexagon,circle,,,,,,,,,,,,,,,,,,,,,,,,,,,,,,,,,,,,,,,,,,,,,,,,,,,,,,
292690,2022-12-05_15h10.33.057,vts_reward_expectancy_bt,2022.2.4,Win32,234.1920375,Chrome,1920,1080,,,a,1.9186,1,183,1,0,2,2,11,1,0,0,0,1,0,0,1,0,star,hexagon,,,,,,,,,,,,,,,,,,,,,,,,,,,,,,,,,,,,,,,,,,,,,,,,,,,,,,
292690,2022-12-05_15h10.33.057,vts_reward_expectancy_bt,2022.2.4,Win32,234.1920375,Chrome,1920,1080,,,a,3.815,1,184,1,0,3,3,9,1,0,0,0,1,1,0,0,0,star,triangle,,,,,,,,,,,,,,,,,,,,,,,,,,,,,,,,,,,,,,,,,,,,,,,,,,,,,,
292690,2022-12-05_15h10.33.057,vts_reward_expectancy_bt,2022.2.4,Win32,234.1920375,Chrome,1920,1080,,,l,1.3,1,185,1,0,4,4,3,1,0,1,0,0,1,0,0,0,circle,triangle,,,,,,,,,,,,,,,,,,,,,,,,,,,,,,,,,,,,,,,,,,,,,,,,,,,,,,
292690,2022-12-05_15h10.33.057,vts_reward_expectancy_bt,2022.2.4,Win32,234.1920375,Chrome,1920,1080,,,l,1.058,1,186,1,0,5,5,0,1,1,0,0,0,0,1,0,0,triangle,circle,,,,,,,,,,,,,,,,,,,,,,,,,,,,,,,,,,,,,,,,,,,,,,,,,,,,,,
292690,2022-12-05_15h10.33.057,vts_reward_expectancy_bt,2022.2.4,Win32,234.1920375,Chrome,1920,1080,,,l,1.7424,10,196,1,0,6,6,5,1,0,1,0,0,0,0,0,1,circle,star,,,,,,,,,,,,,,,,,,,,,,,,,,,,,,,,,,,,,,,,,,,,,,,,,,,,,,
292690,2022-12-05_15h10.33.057,vts_reward_expectancy_bt,2022.2.4,Win32,234.1920375,Chrome,1920,1080,,,a,2.305,10,206,1,0,7,7,10,1,0,0,0,1,0,1,0,0,star ,circle,,,,,,,,,,,,,,,,,,,,,,,,,,,,,,,,,,,,,,,,,,,,,,,,,,,,,,
292690,2022-12-05_15h10.33.057,vts_reward_expectancy_bt,2022.2.4,Win32,234.1920375,Chrome,1920,1080,,,l,8.3188,10,216,1,0,8,8,1,1,1,0,0,0,0,0,1,0,triangle,hexagon,,,,,,,,,,,,,,,,,,,,,,,,,,,,,,,,,,,,,,,,,,,,,,,,,,,,,,
292690,2022-12-05_15h10.33.057,vts_reward_expectancy_bt,2022.2.4,Win32,234.1920375,Chrome,1920,1080,,,a,0.8255,1,217,1,0,9,9,2,1,1,0,0,0,0,0,0,1,triangle,star,,,,,,,,,,,,,,,,,,,,,,,,,,,,,,,,,,,,,,,,,,,,,,,,,,,,,,
292690,2022-12-05_15h10.33.057,vts_reward_expectancy_bt,2022.2.4,Win32,234.1920375,Chrome,1920,1080,,,l,2.5622,1,218,1,0,10,10,8,1,0,0,1,0,0,0,0,1,hexagon,star,,,,,,,,,,,,,,,,,,,,,,,,,,,,,,,,,,,,,,,,,,,,,,,,,,,,,,
292690,2022-12-05_15h10.33.057,vts_reward_expectancy_bt,2022.2.4,Win32,234.1920375,Chrome,1920,1080,,,a,1.8269,1,219,1,0,11,11,4,1,0,1,0,0,0,0,1,0,circle,hexagon,,,,,,,,,,,,,,,,,,,,,,,,,,,,,,,,,,,,,,,,,,,,,,,,,,,,,,
292690,2022-12-05_15h10.33.057,vts_reward_expectancy_bt,2022.2.4,Win32,234.1920375,Chrome,1920,1080,,,l,6.8285,1,220,1,1,0,12,3,1,0,1,0,0,1,0,0,0,circle,triangle,,,,,,,,,,,,,,,,,,,,,,,,,,,,,,,,,,,,,,,,,,,,,,,,,,,,,,
292690,2022-12-05_15h10.33.057,vts_reward_expectancy_bt,2022.2.4,Win32,234.1920375,Chrome,1920,1080,,,l,2.1564,1,221,1,1,1,13,2,1,1,0,0,0,0,0,0,1,triangle,star,,,,,,,,,,,,,,,,,,,,,,,,,,,,,,,,,,,,,,,,,,,,,,,,,,,,,,
292690,2022-12-05_15h10.33.057,vts_reward_expectancy_bt,2022.2.4,Win32,234.1920375,Chrome,1920,1080,,,a,3.317,1,222,1,1,2,14,11,1,0,0,0,1,0,0,1,0,star,hexagon,,,,,,,,,,,,,,,,,,,,,,,,,,,,,,,,,,,,,,,,,,,,,,,,,,,,,,
292690,2022-12-05_15h10.33.057,vts_reward_expectancy_bt,2022.2.4,Win32,234.1920375,Chrome,1920,1080,,,l,5.3452,10,232,1,1,3,15,10,1,0,0,0,1,0,1,0,0,star ,circle,,,,,,,,,,,,,,,,,,,,,,,,,,,,,,,,,,,,,,,,,,,,,,,,,,,,,,
292690,2022-12-05_15h10.33.057,vts_reward_expectancy_bt,2022.2.4,Win32,234.1920375,Chrome,1920,1080,,,l,3.6407,1,233,1,1,4,16,7,1,0,0,1,0,0,1,0,0,hexagon,circle,,,,,,,,,,,,,,,,,,,,,,,,,,,,,,,,,,,,,,,,,,,,,,,,,,,,,,
292690,2022-12-05_15h10.33.057,vts_reward_expectancy_bt,2022.2.4,Win32,234.1920375,Chrome,1920,1080,,,a,1.5487,1,234,1,1,5,17,5,1,0,1,0,0,0,0,0,1,circle,star,,,,,,,,,,,,,,,,,,,,,,,,,,,,,,,,,,,,,,,,,,,,,,,,,,,,,,
292690,2022-12-05_15h10.33.057,vts_reward_expectancy_bt,2022.2.4,Win32,234.1920375,Chrome,1920,1080,,,a,4.1775,1,235,1,1,6,18,6,1,0,0,1,0,1,0,0,0,hexagon,triangle,,,,,,,,,,,,,,,,,,,,,,,,,,,,,,,,,,,,,,,,,,,,,,,,,,,,,,
292690,2022-12-05_15h10.33.057,vts_reward_expectancy_bt,2022.2.4,Win32,234.1920375,Chrome,1920,1080,,,a,1.2382,1,236,1,1,7,19,9,1,0,0,0,1,1,0,0,0,star,triangle,,,,,,,,,,,,,,,,,,,,,,,,,,,,,,,,,,,,,,,,,,,,,,,,,,,,,,
292690,2022-12-05_15h10.33.057,vts_reward_expectancy_bt,2022.2.4,Win32,234.1920375,Chrome,1920,1080,,,l,2.2814,10,246,1,1,8,20,8,1,0,0,1,0,0,0,0,1,hexagon,star,,,,,,,,,,,,,,,,,,,,,,,,,,,,,,,,,,,,,,,,,,,,,,,,,,,,,,
292690,2022-12-05_15h10.33.057,vts_reward_expectancy_bt,2022.2.4,Win32,234.1920375,Chrome,1920,1080,,,l,0.8207,10,256,1,1,9,21,0,1,1,0,0,0,0,1,0,0,triangle,circle,,,,,,,,,,,,,,,,,,,,,,,,,,,,,,,,,,,,,,,,,,,,,,,,,,,,,,
292690,2022-12-05_15h10.33.057,vts_reward_expectancy_bt,2022.2.4,Win32,234.1920375,Chrome,1920,1080,,,a,0.6054,10,266,1,1,10,22,1,1,1,0,0,0,0,0,1,0,triangle,hexagon,,,,,,,,,,,,,,,,,,,,,,,,,,,,,,,,,,,,,,,,,,,,,,,,,,,,,,
292690,2022-12-05_15h10.33.057,vts_reward_expectancy_bt,2022.2.4,Win32,234.1920375,Chrome,1920,1080,,,a,0.5055,10,276,1,1,11,23,4,1,0,1,0,0,0,0,1,0,circle,hexagon,,,,,,,,,,,,,,,,,,,,,,,,,,,,,,,,,,,,,,,,,,,,,,,,,,,,,,
292690,2022-12-05_15h10.33.057,vts_reward_expectancy_bt,2022.2.4,Win32,234.1920375,Chrome,1920,1080,,,a,0.0794,1,277,1,2,0,24,3,1,0,1,0,0,1,0,0,0,circle,triangle,,,,,,,,,,,,,,,,,,,,,,,,,,,,,,,,,,,,,,,,,,,,,,,,,,,,,,
292690,2022-12-05_15h10.33.057,vts_reward_expectancy_bt,2022.2.4,Win32,234.1920375,Chrome,1920,1080,,,l,0.0393,10,287,1,2,1,25,8,1,0,0,1,0,0,0,0,1,hexagon,star,,,,,,,,,,,,,,,,,,,,,,,,,,,,,,,,,,,,,,,,,,,,,,,,,,,,,,
292690,2022-12-05_15h10.33.057,vts_reward_expectancy_bt,2022.2.4,Win32,234.1920375,Chrome,1920,1080,,,l,0.4426,10,297,1,2,2,26,0,1,1,0,0,0,0,1,0,0,triangle,circle,,,,,,,,,,,,,,,,,,,,,,,,,,,,,,,,,,,,,,,,,,,,,,,,,,,,,,
292690,2022-12-05_15h10.33.057,vts_reward_expectancy_bt,2022.2.4,Win32,234.1920375,Chrome,1920,1080,,,l,0.4386,1,298,1,2,3,27,9,1,0,0,0,1,1,0,0,0,star,triangle,,,,,,,,,,,,,,,,,,,,,,,,,,,,,,,,,,,,,,,,,,,,,,,,,,,,,,
292690,2022-12-05_15h10.33.057,vts_reward_expectancy_bt,2022.2.4,Win32,234.1920375,Chrome,1920,1080,,,a,0.1134,1,299,1,2,4,28,11,1,0,0,0,1,0,0,1,0,star,hexagon,,,,,,,,,,,,,,,,,,,,,,,,,,,,,,,,,,,,,,,,,,,,,,,,,,,,,,
292690,2022-12-05_15h10.33.057,vts_reward_expectancy_bt,2022.2.4,Win32,234.1920375,Chrome,1920,1080,,,l,0.7469,10,309,1,2,5,29,1,1,1,0,0,0,0,0,1,0,triangle,hexagon,,,,,,,,,,,,,,,,,,,,,,,,,,,,,,,,,,,,,,,,,,,,,,,,,,,,,,
292690,2022-12-05_15h10.33.057,vts_reward_expectancy_bt,2022.2.4,Win32,234.1920375,Chrome,1920,1080,,,l,0.2006,10,319,1,2,6,30,7,1,0,0,1,0,0,1,0,0,hexagon,circle,,,,,,,,,,,,,,,,,,,,,,,,,,,,,,,,,,,,,,,,,,,,,,,,,,,,,,
292690,2022-12-05_15h10.33.057,vts_reward_expectancy_bt,2022.2.4,Win32,234.1920375,Chrome,1920,1080,,,l,0.555,10,329,1,2,7,31,2,1,1,0,0,0,0,0,0,1,triangle,star,,,,,,,,,,,,,,,,,,,,,,,,,,,,,,,,,,,,,,,,,,,,,,,,,,,,,,
292690,2022-12-05_15h10.33.057,vts_reward_expectancy_bt,2022.2.4,Win32,234.1920375,Chrome,1920,1080,,,l,0.5216,1,330,1,2,8,32,10,1,0,0,0,1,0,1,0,0,star ,circle,,,,,,,,,,,,,,,,,,,,,,,,,,,,,,,,,,,,,,,,,,,,,,,,,,,,,,
292690,2022-12-05_15h10.33.057,vts_reward_expectancy_bt,2022.2.4,Win32,234.1920375,Chrome,1920,1080,,,l,0.2236,1,331,1,2,9,33,6,1,0,0,1,0,1,0,0,0,hexagon,triangle,,,,,,,,,,,,,,,,,,,,,,,,,,,,,,,,,,,,,,,,,,,,,,,,,,,,,,
292690,2022-12-05_15h10.33.057,vts_reward_expectancy_bt,2022.2.4,Win32,234.1920375,Chrome,1920,1080,,,l,0.332,10,341,1,2,10,34,4,1,0,1,0,0,0,0,1,0,circle,hexagon,,,,,,,,,,,,,,,,,,,,,,,,,,,,,,,,,,,,,,,,,,,,,,,,,,,,,,
292690,2022-12-05_15h10.33.057,vts_reward_expectancy_bt,2022.2.4,Win32,234.1920375,Chrome,1920,1080,,,l,0.5911,10,351,1,2,11,35,5,1,0,1,0,0,0,0,0,1,circle,star,,,,,,,,,,,,,,,,,,,,,,,,,,,,,,,,,,,,,,,,,,,,,,,,,,,,,,
292690,2022-12-05_15h10.33.057,vts_reward_expectancy_bt,2022.2.4,Win32,234.1920375,Chrome,1920,1080,,,l,2.6261,10,361,2,0,0,0,0,1,1,0,0,0,0,1,0,0,triangle,circle,,,,,,,,,,,,,,,,,,,,,,,,,,,,,,,,,,,,,,,,,,,,,,,,,,,,,,
292690,2022-12-05_15h10.33.057,vts_reward_expectancy_bt,2022.2.4,Win32,234.1920375,Chrome,1920,1080,,,l,0.8254,1,362,2,0,1,1,6,1,0,0,1,0,1,0,0,0,hexagon,triangle,,,,,,,,,,,,,,,,,,,,,,,,,,,,,,,,,,,,,,,,,,,,,,,,,,,,,,
292690,2022-12-05_15h10.33.057,vts_reward_expectancy_bt,2022.2.4,Win32,234.1920375,Chrome,1920,1080,,,l,1.307,1,363,2,0,2,2,9,1,0,0,0,1,1,0,0,0,star,triangle,,,,,,,,,,,,,,,,,,,,,,,,,,,,,,,,,,,,,,,,,,,,,,,,,,,,,,
292690,2022-12-05_15h10.33.057,vts_reward_expectancy_bt,2022.2.4,Win32,234.1920375,Chrome,1920,1080,,,l,0.6116,1,364,2,0,3,3,2,1,1,0,0,0,0,0,0,1,triangle,star,,,,,,,,,,,,,,,,,,,,,,,,,,,,,,,,,,,,,,,,,,,,,,,,,,,,,,
292690,2022-12-05_15h10.33.057,vts_reward_expectancy_bt,2022.2.4,Win32,234.1920375,Chrome,1920,1080,,,a,0.7257,10,374,2,0,4,4,5,1,0,1,0,0,0,0,0,1,circle,star,,,,,,,,,,,,,,,,,,,,,,,,,,,,,,,,,,,,,,,,,,,,,,,,,,,,,,
292690,2022-12-05_15h10.33.057,vts_reward_expectancy_bt,2022.2.4,Win32,234.1920375,Chrome,1920,1080,,,l,0.6568,10,384,2,0,5,5,1,1,1,0,0,0,0,0,1,0,triangle,hexagon,,,,,,,,,,,,,,,,,,,,,,,,,,,,,,,,,,,,,,,,,,,,,,,,,,,,,,
292690,2022-12-05_15h10.33.057,vts_reward_expectancy_bt,2022.2.4,Win32,234.1920375,Chrome,1920,1080,,,l,0.7264,10,394,2,0,6,6,11,1,0,0,0,1,0,0,1,0,star,hexagon,,,,,,,,,,,,,,,,,,,,,,,,,,,,,,,,,,,,,,,,,,,,,,,,,,,,,,
292690,2022-12-05_15h10.33.057,vts_reward_expectancy_bt,2022.2.4,Win32,234.1920375,Chrome,1920,1080,,,l,0.672,10,404,2,0,7,7,3,1,0,1,0,0,1,0,0,0,circle,triangle,,,,,,,,,,,,,,,,,,,,,,,,,,,,,,,,,,,,,,,,,,,,,,,,,,,,,,
292690,2022-12-05_15h10.33.057,vts_reward_expectancy_bt,2022.2.4,Win32,234.1920375,Chrome,1920,1080,,,a,0.5138,10,414,2,0,8,8,8,1,0,0,1,0,0,0,0,1,hexagon,star,,,,,,,,,,,,,,,,,,,,,,,,,,,,,,,,,,,,,,,,,,,,,,,,,,,,,,
292690,2022-12-05_15h10.33.057,vts_reward_expectancy_bt,2022.2.4,Win32,234.1920375,Chrome,1920,1080,,,l,0.4024,10,424,2,0,9,9,4,1,0,1,0,0,0,0,1,0,circle,hexagon,,,,,,,,,,,,,,,,,,,,,,,,,,,,,,,,,,,,,,,,,,,,,,,,,,,,,,
292690,2022-12-05_15h10.33.057,vts_reward_expectancy_bt,2022.2.4,Win32,234.1920375,Chrome,1920,1080,,,l,0.3725,1,425,2,0,10,10,10,1,0,0,0,1,0,1,0,0,star ,circle,,,,,,,,,,,,,,,,,,,,,,,,,,,,,,,,,,,,,,,,,,,,,,,,,,,,,,
292690,2022-12-05_15h10.33.057,vts_reward_expectancy_bt,2022.2.4,Win32,234.1920375,Chrome,1920,1080,,,l,0.1795,10,435,2,0,11,11,7,1,0,0,1,0,0,1,0,0,hexagon,circle,,,,,,,,,,,,,,,,,,,,,,,,,,,,,,,,,,,,,,,,,,,,,,,,,,,,,,
292690,2022-12-05_15h10.33.057,vts_reward_expectancy_bt,2022.2.4,Win32,234.1920375,Chrome,1920,1080,,,l,0.498,10,445,2,1,0,12,2,1,1,0,0,0,0,0,0,1,triangle,star,,,,,,,,,,,,,,,,,,,,,,,,,,,,,,,,,,,,,,,,,,,,,,,,,,,,,,
292690,2022-12-05_15h10.33.057,vts_reward_expectancy_bt,2022.2.4,Win32,234.1920375,Chrome,1920,1080,,,l,0.5409,1,446,2,1,1,13,6,1,0,0,1,0,1,0,0,0,hexagon,triangle,,,,,,,,,,,,,,,,,,,,,,,,,,,,,,,,,,,,,,,,,,,,,,,,,,,,,,
292690,2022-12-05_15h10.33.057,vts_reward_expectancy_bt,2022.2.4,Win32,234.1920375,Chrome,1920,1080,,,l,0.2061,10,456,2,1,2,14,1,1,1,0,0,0,0,0,1,0,triangle,hexagon,,,,,,,,,,,,,,,,,,,,,,,,,,,,,,,,,,,,,,,,,,,,,,,,,,,,,,
292690,2022-12-05_15h10.33.057,vts_reward_expectancy_bt,2022.2.4,Win32,234.1920375,Chrome,1920,1080,,,l,0.7426,1,457,2,1,3,15,0,1,1,0,0,0,0,1,0,0,triangle,circle,,,,,,,,,,,,,,,,,,,,,,,,,,,,,,,,,,,,,,,,,,,,,,,,,,,,,,
292690,2022-12-05_15h10.33.057,vts_reward_expectancy_bt,2022.2.4,Win32,234.1920375,Chrome,1920,1080,,,l,0.2697,10,467,2,1,4,16,5,1,0,1,0,0,0,0,0,1,circle,star,,,,,,,,,,,,,,,,,,,,,,,,,,,,,,,,,,,,,,,,,,,,,,,,,,,,,,
292690,2022-12-05_15h10.33.057,vts_reward_expectancy_bt,2022.2.4,Win32,234.1920375,Chrome,1920,1080,,,l,0.6426,10,477,2,1,5,17,7,1,0,0,1,0,0,1,0,0,hexagon,circle,,,,,,,,,,,,,,,,,,,,,,,,,,,,,,,,,,,,,,,,,,,,,,,,,,,,,,
292690,2022-12-05_15h10.33.057,vts_reward_expectancy_bt,2022.2.4,Win32,234.1920375,Chrome,1920,1080,,,l,0.4693,1,478,2,1,6,18,3,1,0,1,0,0,1,0,0,0,circle,triangle,,,,,,,,,,,,,,,,,,,,,,,,,,,,,,,,,,,,,,,,,,,,,,,,,,,,,,
292690,2022-12-05_15h10.33.057,vts_reward_expectancy_bt,2022.2.4,Win32,234.1920375,Chrome,1920,1080,,,l,0.0734,1,479,2,1,7,19,10,1,0,0,0,1,0,1,0,0,star ,circle,,,,,,,,,,,,,,,,,,,,,,,,,,,,,,,,,,,,,,,,,,,,,,,,,,,,,,
292690,2022-12-05_15h10.33.057,vts_reward_expectancy_bt,2022.2.4,Win32,234.1920375,Chrome,1920,1080,,,l,0.1964,1,480,2,1,8,20,4,1,0,1,0,0,0,0,1,0,circle,hexagon,,,,,,,,,,,,,,,,,,,,,,,,,,,,,,,,,,,,,,,,,,,,,,,,,,,,,,
292690,2022-12-05_15h10.33.057,vts_reward_expectancy_bt,2022.2.4,Win32,234.1920375,Chrome,1920,1080,,,l,0.1708,10,490,2,1,9,21,11,1,0,0,0,1,0,0,1,0,star,hexagon,,,,,,,,,,,,,,,,,,,,,,,,,,,,,,,,,,,,,,,,,,,,,,,,,,,,,,
292690,2022-12-05_15h10.33.057,vts_reward_expectancy_bt,2022.2.4,Win32,234.1920375,Chrome,1920,1080,,,l,0.2783,1,491,2,1,10,22,9,1,0,0,0,1,1,0,0,0,star,triangle,,,,,,,,,,,,,,,,,,,,,,,,,,,,,,,,,,,,,,,,,,,,,,,,,,,,,,
292690,2022-12-05_15h10.33.057,vts_reward_expectancy_bt,2022.2.4,Win32,234.1920375,Chrome,1920,1080,,,l,0.1259,1,492,2,1,11,23,8,1,0,0,1,0,0,0,0,1,hexagon,star,,,,,,,,,,,,,,,,,,,,,,,,,,,,,,,,,,,,,,,,,,,,,,,,,,,,,,
292690,2022-12-05_15h10.33.057,vts_reward_expectancy_bt,2022.2.4,Win32,234.1920375,Chrome,1920,1080,,,a,0.1834,1,493,2,2,0,24,3,1,0,1,0,0,1,0,0,0,circle,triangle,,,,,,,,,,,,,,,,,,,,,,,,,,,,,,,,,,,,,,,,,,,,,,,,,,,,,,
292690,2022-12-05_15h10.33.057,vts_reward_expectancy_bt,2022.2.4,Win32,234.1920375,Chrome,1920,1080,,,l,0.1507,1,494,2,2,1,25,10,1,0,0,0,1,0,1,0,0,star ,circle,,,,,,,,,,,,,,,,,,,,,,,,,,,,,,,,,,,,,,,,,,,,,,,,,,,,,,
292690,2022-12-05_15h10.33.057,vts_reward_expectancy_bt,2022.2.4,Win32,234.1920375,Chrome,1920,1080,,,l,0.2878,1,495,2,2,2,26,1,1,1,0,0,0,0,0,1,0,triangle,hexagon,,,,,,,,,,,,,,,,,,,,,,,,,,,,,,,,,,,,,,,,,,,,,,,,,,,,,,
292690,2022-12-05_15h10.33.057,vts_reward_expectancy_bt,2022.2.4,Win32,234.1920375,Chrome,1920,1080,,,a,0.2065,10,505,2,2,3,27,5,1,0,1,0,0,0,0,0,1,circle,star,,,,,,,,,,,,,,,,,,,,,,,,,,,,,,,,,,,,,,,,,,,,,,,,,,,,,,
292690,2022-12-05_15h10.33.057,vts_reward_expectancy_bt,2022.2.4,Win32,234.1920375,Chrome,1920,1080,,,a,0.1027,1,506,2,2,4,28,7,1,0,0,1,0,0,1,0,0,hexagon,circle,,,,,,,,,,,,,,,,,,,,,,,,,,,,,,,,,,,,,,,,,,,,,,,,,,,,,,
292690,2022-12-05_15h10.33.057,vts_reward_expectancy_bt,2022.2.4,Win32,234.1920375,Chrome,1920,1080,,,a,0.117,10,516,2,2,5,29,0,1,1,0,0,0,0,1,0,0,triangle,circle,,,,,,,,,,,,,,,,,,,,,,,,,,,,,,,,,,,,,,,,,,,,,,,,,,,,,,
292690,2022-12-05_15h10.33.057,vts_reward_expectancy_bt,2022.2.4,Win32,234.1920375,Chrome,1920,1080,,,l,0.7842,10,526,2,2,6,30,2,1,1,0,0,0,0,0,0,1,triangle,star,,,,,,,,,,,,,,,,,,,,,,,,,,,,,,,,,,,,,,,,,,,,,,,,,,,,,,
292690,2022-12-05_15h10.33.057,vts_reward_expectancy_bt,2022.2.4,Win32,234.1920375,Chrome,1920,1080,,,a,0.2338,1,527,2,2,7,31,4,1,0,1,0,0,0,0,1,0,circle,hexagon,,,,,,,,,,,,,,,,,,,,,,,,,,,,,,,,,,,,,,,,,,,,,,,,,,,,,,
292690,2022-12-05_15h10.33.057,vts_reward_expectancy_bt,2022.2.4,Win32,234.1920375,Chrome,1920,1080,,,a,0.026,1,528,2,2,8,32,9,1,0,0,0,1,1,0,0,0,star,triangle,,,,,,,,,,,,,,,,,,,,,,,,,,,,,,,,,,,,,,,,,,,,,,,,,,,,,,
292690,2022-12-05_15h10.33.057,vts_reward_expectancy_bt,2022.2.4,Win32,234.1920375,Chrome,1920,1080,,,l,0.9346,10,538,2,2,9,33,11,1,0,0,0,1,0,0,1,0,star,hexagon,,,,,,,,,,,,,,,,,,,,,,,,,,,,,,,,,,,,,,,,,,,,,,,,,,,,,,
292690,2022-12-05_15h10.33.057,vts_reward_expectancy_bt,2022.2.4,Win32,234.1920375,Chrome,1920,1080,,,l,0.4075,1,539,2,2,10,34,8,1,0,0,1,0,0,0,0,1,hexagon,star,,,,,,,,,,,,,,,,,,,,,,,,,,,,,,,,,,,,,,,,,,,,,,,,,,,,,,
292690,2022-12-05_15h10.33.057,vts_reward_expectancy_bt,2022.2.4,Win32,234.1920375,Chrome,1920,1080,,,l,0.7677,10,549,2,2,11,35,6,1,0,0,1,0,1,0,0,0,hexagon,triangle,,,,,,,,,,,,,,,,,,,,,,,,,,,,,,,,,,,,,,,,,,,,,,,,,,,,,,
292690,2022-12-05_15h10.33.057,vts_reward_expectancy_bt,2022.2.4,Win32,234.1920375,Chrome,1920,1080,,,,,,,,,,,,,,,,,,,,,,,181,S,star,0,0,,0,0,0,0,0,1,,,,,,,,,,,,,,,,,,,,,,,,,,,,,,,,,,,,,,,,,,
292690,2022-12-05_15h10.33.057,vts_reward_expectancy_bt,2022.2.4,Win32,234.1920375,Chrome,1920,1080,,,,,,,,,,,,,,,,,,,,,,,167,H,circle,0,1,d,0,1,0,1,0,1,2.4052,,,,,,,,,,,,,,,,,,,,,,,,,,,,,,,,,,,,,,,,,
292690,2022-12-05_15h10.33.057,vts_reward_expectancy_bt,2022.2.4,Win32,234.1920375,Chrome,1920,1080,,,,,,,,,,,,,,,,,,,,,,,160,B,hexagon,1,1,f,0,2,0,2,0,1,1.0445,,,,,,,,,,,,,,,,,,,,,,,,,,,,,,,,,,,,,,,,,
292690,2022-12-05_15h10.33.057,vts_reward_expectancy_bt,2022.2.4,Win32,234.1920375,Chrome,1920,1080,,,,,,,,,,,,,,,,,,,,,,,174,U,triangle,1,0,f,0,3,0,3,0,1,0.6964,,,,,,,,,,,,,,,,,,,,,,,,,,,,,,,,,,,,,,,,,
292690,2022-12-05_15h10.33.057,vts_reward_expectancy_bt,2022.2.4,Win32,234.1920375,Chrome,1920,1080,,,,,,,,,,,,,,,,,,,,,,,146,W,star,1,0,d,0,4,0,4,0,1,1.0012,,,,,,,,,,,,,,,,,,,,,,,,,,,,,,,,,,,,,,,,,
292690,2022-12-05_15h10.33.057,vts_reward_expectancy_bt,2022.2.4,Win32,234.1920375,Chrome,1920,1080,,,,,,,,,,,,,,,,,,,,,,,125,F,circle,1,0,d,0,5,0,5,0,1,0.6658,,,,,,,,,,,,,,,,,,,,,,,,,,,,,,,,,,,,,,,,,
292690,2022-12-05_15h10.33.057,vts_reward_expectancy_bt,2022.2.4,Win32,234.1920375,Chrome,1920,1080,,,,,,,,,,,,,,,,,,,,,,,132,D,hexagon,1,0,d,0,6,0,6,0,1,0.8369,,,,,,,,,,,,,,,,,,,,,,,,,,,,,,,,,,,,,,,,,
292690,2022-12-05_15h10.33.057,vts_reward_expectancy_bt,2022.2.4,Win32,234.1920375,Chrome,1920,1080,,,,,,,,,,,,,,,,,,,,,,,139,Y,triangle,1,0,d,0,7,0,7,0,1,0.8739,,,,,,,,,,,,,,,,,,,,,,,,,,,,,,,,,,,,,,,,,
292690,2022-12-05_15h10.33.057,vts_reward_expectancy_bt,2022.2.4,Win32,234.1920375,Chrome,1920,1080,,,,,,,,,,,,,,,,,,,,,,,181,S,circle,1,0,f,0,8,0,8,0,1,0.6758,,,,,,,,,,,,,,,,,,,,,,,,,,,,,,,,,,,,,,,,,
292690,2022-12-05_15h10.33.057,vts_reward_expectancy_bt,2022.2.4,Win32,234.1920375,Chrome,1920,1080,,,,,,,,,,,,,,,,,,,,,,,167,H,star,1,0,f,0,9,0,9,0,1,0.7427,,,,,,,,,,,,,,,,,,,,,,,,,,,,,,,,,,,,,,,,,
292690,2022-12-05_15h10.33.057,vts_reward_expectancy_bt,2022.2.4,Win32,234.1920375,Chrome,1920,1080,,,,,,,,,,,,,,,,,,,,,,,174,S,triangle,1,0,f,1,0,0,0,0,1,0.5707,,,,,,,,,,,,,,,,,,,,,,,,,,,,,,,,,,,,,,,,,
292690,2022-12-05_15h10.33.057,vts_reward_expectancy_bt,2022.2.4,Win32,234.1920375,Chrome,1920,1080,,,,,,,,,,,,,,,,,,,,,,,146,U,star,1,0,d,1,1,0,1,0,1,0.6409,,,,,,,,,,,,,,,,,,,,,,,,,,,,,,,,,,,,,,,,,
292690,2022-12-05_15h10.33.057,vts_reward_expectancy_bt,2022.2.4,Win32,234.1920375,Chrome,1920,1080,,,,,,,,,,,,,,,,,,,,,,,160,Y,circle,1,0,f,1,2,0,2,0,1,0.7028,,,,,,,,,,,,,,,,,,,,,,,,,,,,,,,,,,,,,,,,,
292690,2022-12-05_15h10.33.057,vts_reward_expectancy_bt,2022.2.4,Win32,234.1920375,Chrome,1920,1080,,,,,,,,,,,,,,,,,,,,,,,125,B,hexagon,1,0,d,1,3,0,3,0,1,0.685,,,,,,,,,,,,,,,,,,,,,,,,,,,,,,,,,,,,,,,,,
292690,2022-12-05_15h10.33.057,vts_reward_expectancy_bt,2022.2.4,Win32,234.1920375,Chrome,1920,1080,,,,,,,,,,,,,,,,,,,,,,,132,W,triangle,1,0,d,1,4,0,4,0,1,0.9551,,,,,,,,,,,,,,,,,,,,,,,,,,,,,,,,,,,,,,,,,
292690,2022-12-05_15h10.33.057,vts_reward_expectancy_bt,2022.2.4,Win32,234.1920375,Chrome,1920,1080,,,,,,,,,,,,,,,,,,,,,,,139,H,star,0,0,f,1,5,0,5,0,1,0.6679,,,,,,,,,,,,,,,,,,,,,,,,,,,,,,,,,,,,,,,,,
292690,2022-12-05_15h10.33.057,vts_reward_expectancy_bt,2022.2.4,Win32,234.1920375,Chrome,1920,1080,,,,,,,,,,,,,,,,,,,,,,,181,F,circle,1,1,f,1,6,0,6,0,1,0.753,,,,,,,,,,,,,,,,,,,,,,,,,,,,,,,,,,,,,,,,,
292690,2022-12-05_15h10.33.057,vts_reward_expectancy_bt,2022.2.4,Win32,234.1920375,Chrome,1920,1080,,,,,,,,,,,,,,,,,,,,,,,167,D,hexagon,1,0,f,1,7,0,7,0,1,0.5808,,,,,,,,,,,,,,,,,,,,,,,,,,,,,,,,,,,,,,,,,
292690,2022-12-05_15h10.33.057,vts_reward_expectancy_bt,2022.2.4,Win32,234.1920375,Chrome,1920,1080,,,,,,,,,,,,,,,,,,,,,,,174,S,hexagon,0,0,d,1,8,0,8,0,1,1.3095,,,,,,,,,,,,,,,,,,,,,,,,,,,,,,,,,,,,,,,,,
292690,2022-12-05_15h10.33.057,vts_reward_expectancy_bt,2022.2.4,Win32,234.1920375,Chrome,1920,1080,,,,,,,,,,,,,,,,,,,,,,,146,U,star,1,1,d,1,9,0,9,0,1,0.6498,,,,,,,,,,,,,,,,,,,,,,,,,,,,,,,,,,,,,,,,,
292690,2022-12-05_15h10.33.057,vts_reward_expectancy_bt,2022.2.4,Win32,234.1920375,Chrome,1920,1080,,,,,,,,,,,,,,,,,,,,,,,132,Y,star,1,0,d,2,0,0,0,0,1,1.4306,,,,,,,,,,,,,,,,,,,,,,,,,,,,,,,,,,,,,,,,,
292690,2022-12-05_15h10.33.057,vts_reward_expectancy_bt,2022.2.4,Win32,234.1920375,Chrome,1920,1080,,,,,,,,,,,,,,,,,,,,,,,174,D,hexagon,1,0,f,2,1,0,1,0,1,0.5977,,,,,,,,,,,,,,,,,,,,,,,,,,,,,,,,,,,,,,,,,
292690,2022-12-05_15h10.33.057,vts_reward_expectancy_bt,2022.2.4,Win32,234.1920375,Chrome,1920,1080,,,,,,,,,,,,,,,,,,,,,,,160,U,triangle,1,0,f,2,2,0,2,0,1,0.6868,,,,,,,,,,,,,,,,,,,,,,,,,,,,,,,,,,,,,,,,,
292690,2022-12-05_15h10.33.057,vts_reward_expectancy_bt,2022.2.4,Win32,234.1920375,Chrome,1920,1080,,,,,,,,,,,,,,,,,,,,,,,167,F,circle,1,0,f,2,3,0,3,0,1,0.8668,,,,,,,,,,,,,,,,,,,,,,,,,,,,,,,,,,,,,,,,,
292690,2022-12-05_15h10.33.057,vts_reward_expectancy_bt,2022.2.4,Win32,234.1920375,Chrome,1920,1080,,,,,,,,,,,,,,,,,,,,,,,125,B,star,1,0,d,2,4,0,4,0,1,0.8173,,,,,,,,,,,,,,,,,,,,,,,,,,,,,,,,,,,,,,,,,
292690,2022-12-05_15h10.33.057,vts_reward_expectancy_bt,2022.2.4,Win32,234.1920375,Chrome,1920,1080,,,,,,,,,,,,,,,,,,,,,,,181,W,hexagon,1,0,f,2,5,0,5,0,1,0.5589,,,,,,,,,,,,,,,,,,,,,,,,,,,,,,,,,,,,,,,,,
292690,2022-12-05_15h10.33.057,vts_reward_expectancy_bt,2022.2.4,Win32,234.1920375,Chrome,1920,1080,,,,,,,,,,,,,,,,,,,,,,,139,H,triangle,1,0,d,2,6,0,6,0,1,0.6975,,,,,,,,,,,,,,,,,,,,,,,,,,,,,,,,,,,,,,,,,
292690,2022-12-05_15h10.33.057,vts_reward_expectancy_bt,2022.2.4,Win32,234.1920375,Chrome,1920,1080,,,,,,,,,,,,,,,,,,,,,,,146,S,circle,0,0,f,2,7,0,7,0,1,1.3767,,,,,,,,,,,,,,,,,,,,,,,,,,,,,,,,,,,,,,,,,
292690,2022-12-05_15h10.33.057,vts_reward_expectancy_bt,2022.2.4,Win32,234.1920375,Chrome,1920,1080,,,,,,,,,,,,,,,,,,,,,,,132,Y,triangle,1,1,d,2,8,0,8,0,1,0.7466,,,,,,,,,,,,,,,,,,,,,,,,,,,,,,,,,,,,,,,,,
292690,2022-12-05_15h10.33.057,vts_reward_expectancy_bt,2022.2.4,Win32,234.1920375,Chrome,1920,1080,,,,,,,,,,,,,,,,,,,,,,,174,D,star,1,0,f,2,9,0,9,0,1,0.6612,,,,,,,,,,,,,,,,,,,,,,,,,,,,,,,,,,,,,,,,,
292690,2022-12-05_15h10.33.057,vts_reward_expectancy_bt,2022.2.4,Win32,234.1920375,Chrome,1920,1080,,,,,,,,,,,,,,,,,,,,,,,132,U,hexagon,1,0,,3,,,,,,,k,1.123,0,0,0,0,1,,,,,,,,,,,,,,,,,,,,,,,,,,,,,,,,,,
292690,2022-12-05_15h10.33.057,vts_reward_expectancy_bt,2022.2.4,Win32,234.1920375,Chrome,1920,1080,,,,,,,,,,,,,,,,,,,,,,,174,S,circle,0,0,,3,,,,,,,j,0.8828,1,0,1,0,1,,,,,,,,,,,,,,,,,,,,,,,,,,,,,,,,,,
292690,2022-12-05_15h10.33.057,vts_reward_expectancy_bt,2022.2.4,Win32,234.1920375,Chrome,1920,1080,,,,,,,,,,,,,,,,,,,,,,,146,W,triangle,1,1,,3,,,,,,,k,0.7532,2,0,2,0,1,,,,,,,,,,,,,,,,,,,,,,,,,,,,,,,,,,
292690,2022-12-05_15h10.33.057,vts_reward_expectancy_bt,2022.2.4,Win32,234.1920375,Chrome,1920,1080,,,,,,,,,,,,,,,,,,,,,,,181,D,star,1,0,,3,,,,,,,j,0.7089,3,0,3,0,1,,,,,,,,,,,,,,,,,,,,,,,,,,,,,,,,,,
292690,2022-12-05_15h10.33.057,vts_reward_expectancy_bt,2022.2.4,Win32,234.1920375,Chrome,1920,1080,,,,,,,,,,,,,,,,,,,,,,,167,H,hexagon,1,0,,3,,,,,,,j,1.0975,4,0,4,0,1,,,,,,,,,,,,,,,,,,,,,,,,,,,,,,,,,,
292690,2022-12-05_15h10.33.057,vts_reward_expectancy_bt,2022.2.4,Win32,234.1920375,Chrome,1920,1080,,,,,,,,,,,,,,,,,,,,,,,125,B,circle,1,0,,3,,,,,,,j,0.7257,5,0,5,0,1,,,,,,,,,,,,,,,,,,,,,,,,,,,,,,,,,,
292690,2022-12-05_15h10.33.057,vts_reward_expectancy_bt,2022.2.4,Win32,234.1920375,Chrome,1920,1080,,,,,,,,,,,,,,,,,,,,,,,160,Y,triangle,1,0,,3,,,,,,,k,0.6805,6,0,6,0,1,,,,,,,,,,,,,,,,,,,,,,,,,,,,,,,,,,
292690,2022-12-05_15h10.33.057,vts_reward_expectancy_bt,2022.2.4,Win32,234.1920375,Chrome,1920,1080,,,,,,,,,,,,,,,,,,,,,,,139,F,star,1,0,,3,,,,,,,j,0.7644,7,0,7,0,1,,,,,,,,,,,,,,,,,,,,,,,,,,,,,,,,,,
292690,2022-12-05_15h10.33.057,vts_reward_expectancy_bt,2022.2.4,Win32,234.1920375,Chrome,1920,1080,,,,,,,,,,,,,,,,,,,,,,,132,U,circle,1,0,,3,,,,,,,k,0.5936,8,0,8,0,1,,,,,,,,,,,,,,,,,,,,,,,,,,,,,,,,,,
292690,2022-12-05_15h10.33.057,vts_reward_expectancy_bt,2022.2.4,Win32,234.1920375,Chrome,1920,1080,,,,,,,,,,,,,,,,,,,,,,,174,S,triangle,1,0,,3,,,,,,,k,1.0049,9,0,9,0,1,,,,,,,,,,,,,,,,,,,,,,,,,,,,,,,,,,
292690,2022-12-05_15h10.33.057,vts_reward_expectancy_bt,2022.2.4,Win32,234.1920375,Chrome,1920,1080,,,,,0,549,,,,,,,,,,,,,,,,,160,S,circle,1,0,,4,,,,,,,,,,,,,,-1,number,NA,f,1.3828,vtsPrac,0,0,0,0,1,,,,,,,,,,,,,,,,,,,,,,,
292690,2022-12-05_15h10.33.057,vts_reward_expectancy_bt,2022.2.4,Win32,234.1920375,Chrome,1920,1080,,,,,0,549,,,,,,,,,,,,,,,,,146,U,star,0,0,,4,,,,,,,,,,,,,,repeat,number,NA,f,1.712,vtsPrac,1,0,1,0,1,,,,,,,,,,,,,,,,,,,,,,,
292690,2022-12-05_15h10.33.057,vts_reward_expectancy_bt,2022.2.4,Win32,234.1920375,Chrome,1920,1080,,,,,0,549,,,,,,,,,,,,,,,,,174,D,circle,0,1,,4,,,,,,,,,,,,,,repeat,number,NA,d,1.3858,vtsPrac,2,0,2,0,1,,,,,,,,,,,,,,,,,,,,,,,
292690,2022-12-05_15h10.33.057,vts_reward_expectancy_bt,2022.2.4,Win32,234.1920375,Chrome,1920,1080,,,,,0,549,,,,,,,,,,,,,,,,,125,F,star,1,1,,4,,,,,,,,,,,,,,switch,letter,lettSwt,j,2.0224,vtsPrac,3,0,3,0,1,,,,,,,,,,,,,,,,,,,,,,,
292690,2022-12-05_15h10.33.057,vts_reward_expectancy_bt,2022.2.4,Win32,234.1920375,Chrome,1920,1080,,,,,0,549,,,,,,,,,,,,,,,,,160,S,star,1,0,,4,,,,,,,,,,,,,,switch,number,numSwt,f,1.8734,vtsPrac,4,0,4,0,1,,,,,,,,,,,,,,,,,,,,,,,
292690,2022-12-05_15h10.33.057,vts_reward_expectancy_bt,2022.2.4,Win32,234.1920375,Chrome,1920,1080,,,,,0,549,,,,,,,,,,,,,,,,,146,U,hexagon,1,0,,4,,,,,,,,,,,,,,switch,letter,lettSwt,k,1.3934,vtsPrac,5,0,5,0,1,,,,,,,,,,,,,,,,,,,,,,,
292690,2022-12-05_15h10.33.057,vts_reward_expectancy_bt,2022.2.4,Win32,234.1920375,Chrome,1920,1080,,,,,0,549,,,,,,,,,,,,,,,,,174,D,circle,1,0,,4,,,,,,,,,,,,,,switch,number,numSwt,f,1.393,vtsPrac,6,0,6,0,1,,,,,,,,,,,,,,,,,,,,,,,
292690,2022-12-05_15h10.33.057,vts_reward_expectancy_bt,2022.2.4,Win32,234.1920375,Chrome,1920,1080,,,,,0,549,,,,,,,,,,,,,,,,,125,F,hexagon,1,0,,4,,,,,,,,,,,,,,repeat,number,numRpt,d,1.406,vtsPrac,7,0,7,0,1,,,,,,,,,,,,,,,,,,,,,,,
292690,2022-12-05_15h10.33.057,vts_reward_expectancy_bt,2022.2.4,Win32,234.1920375,Chrome,1920,1080,,,,,0,549,,,,,,,,,,,,,,,,,181,U,hexagon,1,0,,4,,,,,,,,,,,,,,switch,letter,lettSwt,k,1.1413,vtsPrac,8,0,8,0,1,,,,,,,,,,,,,,,,,,,,,,,
292690,2022-12-05_15h10.33.057,vts_reward_expectancy_bt,2022.2.4,Win32,234.1920375,Chrome,1920,1080,,,,,0,549,,,,,,,,,,,,,,,,,139,H,triangle,1,0,,4,,,,,,,,,,,,,,switch,number,numSwt,d,1.0134,vtsPrac,9,0,9,0,1,,,,,,,,,,,,,,,,,,,,,,,
292690,2022-12-05_15h10.33.057,vts_reward_expectancy_bt,2022.2.4,Win32,234.1920375,Chrome,1920,1080,,,,,0,549,,,,,,,,,,,,,,,,,132,F,star,1,0,,4,,,,,,,,,,,,,,switch,letter,lettSwt,j,1.2035,vtsPrac,10,0,10,0,1,,,,,,,,,,,,,,,,,,,,,,,
292690,2022-12-05_15h10.33.057,vts_reward_expectancy_bt,2022.2.4,Win32,234.1920375,Chrome,1920,1080,,,,,0,549,,,,,,,,,,,,,,,,,146,D,triangle,1,0,,4,,,,,,,,,,,,,,repeat,letter,lettRpt,j,0.7201,vtsPrac,11,0,11,0,1,,,,,,,,,,,,,,,,,,,,,,,
292690,2022-12-05_15h10.33.057,vts_reward_expectancy_bt,2022.2.4,Win32,234.1920375,Chrome,1920,1080,,,,,0,549,,,,,,,,,,,,,,,,,125,B,triangle,1,0,,4,,,,,,,,,,,,,,repeat,letter,lettRpt,j,0.951,vtsPrac,12,0,12,0,1,,,,,,,,,,,,,,,,,,,,,,,
292690,2022-12-05_15h10.33.057,vts_reward_expectancy_bt,2022.2.4,Win32,234.1920375,Chrome,1920,1080,,,,,0,549,,,,,,,,,,,,,,,,,132,D,circle,1,0,,4,,,,,,,,,,,,,,switch,number,numSwt,d,0.755,vtsPrac,13,0,13,0,1,,,,,,,,,,,,,,,,,,,,,,,
292690,2022-12-05_15h10.33.057,vts_reward_expectancy_bt,2022.2.4,Win32,234.1920375,Chrome,1920,1080,,,,,0,549,,,,,,,,,,,,,,,,,139,S,star,1,0,,4,,,,,,,,,,,,,,switch,letter,lettSwt,k,1.1063,vtsPrac,14,0,14,0,1,,,,,,,,,,,,,,,,,,,,,,,
292690,2022-12-05_15h10.33.057,vts_reward_expectancy_bt,2022.2.4,Win32,234.1920375,Chrome,1920,1080,,,,,0,549,,,,,,,,,,,,,,,,,146,W,triangle,1,0,,4,,,,,,,,,,,,,,repeat,letter,lettRpt,k,1.3262,vtsPrac,15,0,15,0,1,,,,,,,,,,,,,,,,,,,,,,,
292690,2022-12-05_15h10.33.057,vts_reward_expectancy_bt,2022.2.4,Win32,234.1920375,Chrome,1920,1080,,,,,0,549,,,,,,,,,,,,,,,,,181,F,star,1,0,,4,,,,,,,,,,,,,,switch,number,numSwt,f,0.9191,vtsPrac,16,0,16,0,1,,,,,,,,,,,,,,,,,,,,,,,
292690,2022-12-05_15h10.33.057,vts_reward_expectancy_bt,2022.2.4,Win32,234.1920375,Chrome,1920,1080,,,,,0,549,,,,,,,,,,,,,,,,,146,H,triangle,1,0,,4,,,,,,,,,,,,,,repeat,number,numRpt,d,2.1365,vtsPrac,17,0,17,0,1,,,,,,,,,,,,,,,,,,,,,,,
292690,2022-12-05_15h10.33.057,vts_reward_expectancy_bt,2022.2.4,Win32,234.1920375,Chrome,1920,1080,,,,,0,549,,,,,,,,,,,,,,,,,132,B,star,1,0,,4,,,,,,,,,,,,,,repeat,number,numRpt,d,1.5399,vtsPrac,18,0,18,0,1,,,,,,,,,,,,,,,,,,,,,,,
292690,2022-12-05_15h10.33.057,vts_reward_expectancy_bt,2022.2.4,Win32,234.1920375,Chrome,1920,1080,,,,,0,549,,,,,,,,,,,,,,,,,167,W,circle,1,0,,4,,,,,,,,,,,,,,repeat,number,numRpt,f,1.368,vtsPrac,19,0,19,0,1,,,,,,,,,,,,,,,,,,,,,,,
292690,2022-12-05_15h10.33.057,vts_reward_expectancy_bt,2022.2.4,Win32,234.1920375,Chrome,1920,1080,,,,,0,549,,,,,,,,,,,,,,,,,160,B,star,1,0,,4,,,,,,,,,,,,,,switch,letter,lettSwt,j,1.543,vtsPrac,20,0,20,0,1,,,,,,,,,,,,,,,,,,,,,,,
292690,2022-12-05_15h10.33.057,vts_reward_expectancy_bt,2022.2.4,Win32,234.1920375,Chrome,1920,1080,,,,,0,549,,,,,,,,,,,,,,,,,146,H,triangle,1,0,,4,,,,,,,,,,,,,,switch,number,numSwt,d,1.0672,vtsPrac,21,0,21,0,1,,,,,,,,,,,,,,,,,,,,,,,
292690,2022-12-05_15h10.33.057,vts_reward_expectancy_bt,2022.2.4,Win32,234.1920375,Chrome,1920,1080,,,,,0,549,,,,,,,,,,,,,,,,,125,U,circle,1,0,,4,,,,,,,,,,,,,,switch,letter,lettSwt,k,1.4589,vtsPrac,22,0,22,0,1,,,,,,,,,,,,,,,,,,,,,,,
292690,2022-12-05_15h10.33.057,vts_reward_expectancy_bt,2022.2.4,Win32,234.1920375,Chrome,1920,1080,,,,,0,549,,,,,,,,,,,,,,,,,167,D,triangle,1,0,,4,,,,,,,,,,,,,,switch,number,numSwt,f,1.1861,vtsPrac,23,0,23,0,1,,,,,,,,,,,,,,,,,,,,,,,
292690,2022-12-05_15h10.33.057,vts_reward_expectancy_bt,2022.2.4,Win32,234.1920375,Chrome,1920,1080,,,,,0,549,,,,,,,,,,,,,,,,,125,F,circle,1,0,,4,,,,,,,,,,,,,,repeat,number,numRpt,d,0.2504,vtsPrac,24,0,24,0,1,,,,,,,,,,,,,,,,,,,,,,,
292690,2022-12-05_15h10.33.057,vts_reward_expectancy_bt,2022.2.4,Win32,234.1920375,Chrome,1920,1080,,,,,0,549,,,,,,,,,,,,,,,,,132,H,hexagon,1,0,,4,,,,,,,,,,,,,,repeat,number,numRpt,d,1.2198,vtsPrac,25,0,25,0,1,,,,,,,,,,,,,,,,,,,,,,,
292690,2022-12-05_15h10.33.057,vts_reward_expectancy_bt,2022.2.4,Win32,234.1920375,Chrome,1920,1080,,,,,0,549,,,,,,,,,,,,,,,,,139,W,star,1,0,,4,,,,,,,,,,,,,,repeat,number,numRpt,d,0.2426,vtsPrac,26,0,26,0,1,,,,,,,,,,,,,,,,,,,,,,,
292690,2022-12-05_15h10.33.057,vts_reward_expectancy_bt,2022.2.4,Win32,234.1920375,Chrome,1920,1080,,,,,0,549,,,,,,,,,,,,,,,,,160,U,triangle,1,0,,4,,,,,,,,,,,,,,switch,letter,lettSwt,k,0.5627,vtsPrac,27,0,27,0,1,,,,,,,,,,,,,,,,,,,,,,,
292690,2022-12-05_15h10.33.057,vts_reward_expectancy_bt,2022.2.4,Win32,234.1920375,Chrome,1920,1080,,,,,0,549,,,,,,,,,,,,,,,,,181,D,hexagon,1,0,,4,,,,,,,,,,,,,,repeat,letter,lettRpt,j,0.6925,vtsPrac,28,0,28,0,1,,,,,,,,,,,,,,,,,,,,,,,
292690,2022-12-05_15h10.33.057,vts_reward_expectancy_bt,2022.2.4,Win32,234.1920375,Chrome,1920,1080,,,,,0,549,,,,,,,,,,,,,,,,,174,W,star,1,0,,4,,,,,,,,,,,,,,switch,number,numSwt,f,0.5863,vtsPrac,29,0,29,0,1,,,,,,,,,,,,,,,,,,,,,,,
292690,2022-12-05_15h10.33.057,vts_reward_expectancy_bt,2022.2.4,Win32,234.1920375,Chrome,1920,1080,,,,,0,549,,,,,,,,,,,,,,,,,132,F,star,1,0,,4,,,,,,,,,,,,,,repeat,number,numRpt,d,1.2768,vtsPrac,30,0,30,0,1,,,,,,,,,,,,,,,,,,,,,,,
292690,2022-12-05_15h10.33.057,vts_reward_expectancy_bt,2022.2.4,Win32,234.1920375,Chrome,1920,1080,,,,,0,549,,,,,,,,,,,,,,,,,139,U,hexagon,1,0,,4,,,,,,,,,,,,,,switch,letter,lettSwt,k,1.2703,vtsPrac,31,0,31,0,1,,,,,,,,,,,,,,,,,,,,,,,
292690,2022-12-05_15h10.33.057,vts_reward_expectancy_bt,2022.2.4,Win32,234.1920375,Chrome,1920,1080,,,,,,,,,,,,,,,,,,,,,,,,,,,,,,,,,,,,,,,,,,,,,,,,,,,,,,,,,,,,,,,,,,,,,,,,,,,,
292690,2022-12-05_15h10.33.057,vts_reward_expectancy_bt,2022.2.4,Win32,234.1920375,Chrome,1920,1080,,,,,,,,,,,,,,,,,,,,,,,,,,,,,,,,,,,,,,,,,,,,,,,,,,,,,,,,,,,,,,,,,,,,,,,,,,,,
292690,2022-12-05_15h10.33.057,vts_reward_expectancy_bt,2022.2.4,Win32,234.1920375,Chrome,1920,1080,,,,,0,549,,,,,,,,,,,,,,,,,160,F,star,1,0,,,,,,,,,,,,,,,,repeat,letter,lettRpt,j,1.3298,noRew,,,,,,0,0,0,0,0,1,,,,,,,,,,,,,,,,,
292690,2022-12-05_15h10.33.057,vts_reward_expectancy_bt,2022.2.4,Win32,234.1920375,Chrome,1920,1080,,,,,0,549,,,,,,,,,,,,,,,,,174,D,triangle,1,0,,,,,,,,,,,,,,,,switch,number,numSwt,f,0.9133,noRew,,,,,,0,1,0,1,0,1,,,,,,,,,,,,,,,,,
292690,2022-12-05_15h10.33.057,vts_reward_expectancy_bt,2022.2.4,Win32,234.1920375,Chrome,1920,1080,,,,,0,549,,,,,,,,,,,,,,,,,132,U,star,1,0,,,,,,,,,,,,,,,,repeat,number,numRpt,d,0.7118,noRew,,,,,,0,2,0,2,0,1,,,,,,,,,,,,,,,,,
292690,2022-12-05_15h10.33.057,vts_reward_expectancy_bt,2022.2.4,Win32,234.1920375,Chrome,1920,1080,,,,,0,549,,,,,,,,,,,,,,,,,167,W,triangle,1,0,,,,,,,,,,,,,,,,switch,letter,lettSwt,k,0.8801,noRew,,,,,,0,3,0,3,0,1,,,,,,,,,,,,,,,,,
292690,2022-12-05_15h10.33.057,vts_reward_expectancy_bt,2022.2.4,Win32,234.1920375,Chrome,1920,1080,,,,,0,549,,,,,,,,,,,,,,,,,160,F,circle,1,0,,,,,,,,,,,,,,,,repeat,letter,lettRpt,j,1.0676,noRew,,,,,,0,4,0,4,0,1,,,,,,,,,,,,,,,,,
292690,2022-12-05_15h10.33.057,vts_reward_expectancy_bt,2022.2.4,Win32,234.1920375,Chrome,1920,1080,,,,,0,549,,,,,,,,,,,,,,,,,174,D,triangle,1,0,,,,,,,,,,,,,,,,switch,number,numSwt,f,0.9737,noRew,,,,,,0,5,0,5,0,1,,,,,,,,,,,,,,,,,
292690,2022-12-05_15h10.33.057,vts_reward_expectancy_bt,2022.2.4,Win32,234.1920375,Chrome,1920,1080,,,,,0,549,,,,,,,,,,,,,,,,,132,U,circle,1,0,,,,,,,,,,,,,,,,repeat,number,numRpt,d,1.0139,noRew,,,,,,0,6,0,6,0,1,,,,,,,,,,,,,,,,,
292690,2022-12-05_15h10.33.057,vts_reward_expectancy_bt,2022.2.4,Win32,234.1920375,Chrome,1920,1080,,,,,0,549,,,,,,,,,,,,,,,,,167,W,hexagon,1,0,,,,,,,,,,,,,,,,switch,letter,lettSwt,k,0.8158,noRew,,,,,,0,7,0,7,0,1,,,,,,,,,,,,,,,,,
292690,2022-12-05_15h10.33.057,vts_reward_expectancy_bt,2022.2.4,Win32,234.1920375,Chrome,1920,1080,,,,,0,549,,,,,,,,,,,,,,,,,146,B,triangle,1,0,,,,,,,,,,,,,,,,repeat,letter,lettRpt,j,0.9301,noRew,,,,,,0,8,0,8,0,1,,,,,,,,,,,,,,,,,
292690,2022-12-05_15h10.33.057,vts_reward_expectancy_bt,2022.2.4,Win32,234.1920375,Chrome,1920,1080,,,,,0,549,,,,,,,,,,,,,,,,,139,F,circle,1,0,,,,,,,,,,,,,,,,switch,number,numSwt,d,0.6846,noRew,,,,,,0,9,0,9,0,1,,,,,,,,,,,,,,,,,
292690,2022-12-05_15h10.33.057,vts_reward_expectancy_bt,2022.2.4,Win32,234.1920375,Chrome,1920,1080,,,,,0,549,,,,,,,,,,,,,,,,,181,D,circle,1,0,,,,,,,,,,,,,,,,repeat,number,numRpt,f,0.9509,noRew,,,,,,0,10,0,10,0,1,,,,,,,,,,,,,,,,,
292690,2022-12-05_15h10.33.057,vts_reward_expectancy_bt,2022.2.4,Win32,234.1920375,Chrome,1920,1080,,,,,0,549,,,,,,,,,,,,,,,,,174,W,triangle,1,0,,,,,,,,,,,,,,,,switch,letter,lettSwt,k,1.0437,noRew,,,,,,0,11,0,11,0,1,,,,,,,,,,,,,,,,,
292690,2022-12-05_15h10.33.057,vts_reward_expectancy_bt,2022.2.4,Win32,234.1920375,Chrome,1920,1080,,,,,0,549,,,,,,,,,,,,,,,,,132,F,triangle,1,0,,,,,,,,,,,,,,,,switch,number,numSwt,d,1.0702,noRew,,,,,,0,12,0,12,0,1,,,,,,,,,,,,,,,,,
292690,2022-12-05_15h10.33.057,vts_reward_expectancy_bt,2022.2.4,Win32,234.1920375,Chrome,1920,1080,,,,,0,549,,,,,,,,,,,,,,,,,125,U,hexagon,1,0,,,,,,,,,,,,,,,,repeat,number,numRpt,d,0.9735,noRew,,,,,,0,13,0,13,0,1,,,,,,,,,,,,,,,,,
292690,2022-12-05_15h10.33.057,vts_reward_expectancy_bt,2022.2.4,Win32,234.1920375,Chrome,1920,1080,,,,,0,549,,,,,,,,,,,,,,,,,181,H,circle,1,0,,,,,,,,,,,,,,,,repeat,number,numRpt,f,2.0783,noRew,,,,,,0,14,0,14,0,1,,,,,,,,,,,,,,,,,
292690,2022-12-05_15h10.33.057,vts_reward_expectancy_bt,2022.2.4,Win32,234.1920375,Chrome,1920,1080,,,,,0,549,,,,,,,,,,,,,,,,,174,Y,hexagon,1,0,,,,,,,,,,,,,,,,switch,letter,lettSwt,k,0.7882,noRew,,,,,,0,15,0,15,0,1,,,,,,,,,,,,,,,,,
292690,2022-12-05_15h10.33.057,vts_reward_expectancy_bt,2022.2.4,Win32,234.1920375,Chrome,1920,1080,,,,,0,549,,,,,,,,,,,,,,,,,125,D,circle,1,0,,,,,,,,,,,,,,,,repeat,letter,lettRpt,j,1.1347,noRew,,,,,,0,16,0,16,0,1,,,,,,,,,,,,,,,,,
292690,2022-12-05_15h10.33.057,vts_reward_expectancy_bt,2022.2.4,Win32,234.1920375,Chrome,1920,1080,,,,,0,549,,,,,,,,,,,,,,,,,160,S,star,1,0,,,,,,,,,,,,,,,,switch,number,numSwt,f,2.1521,noRew,,,,,,0,17,0,17,0,1,,,,,,,,,,,,,,,,,
292690,2022-12-05_15h10.33.057,vts_reward_expectancy_bt,2022.2.4,Win32,234.1920375,Chrome,1920,1080,,,,,0,549,,,,,,,,,,,,,,,,,132,F,hexagon,1,0,,,,,,,,,,,,,,,,repeat,number,numRpt,d,1.1965,noRew,,,,,,0,18,0,18,0,1,,,,,,,,,,,,,,,,,
292690,2022-12-05_15h10.33.057,vts_reward_expectancy_bt,2022.2.4,Win32,234.1920375,Chrome,1920,1080,,,,,0,549,,,,,,,,,,,,,,,,,167,U,star,1,0,,,,,,,,,,,,,,,,repeat,number,numRpt,f,1.3387,noRew,,,,,,0,19,0,19,0,1,,,,,,,,,,,,,,,,,
292690,2022-12-05_15h10.33.057,vts_reward_expectancy_bt,2022.2.4,Win32,234.1920375,Chrome,1920,1080,,,,,0,549,,,,,,,,,,,,,,,,,167,D,hexagon,1,0,,,,,,,,,,,,,,,,switch,letter,lettSwt,j,0.7314,noRew,,,,,,0,20,0,20,0,1,,,,,,,,,,,,,,,,,
292690,2022-12-05_15h10.33.057,vts_reward_expectancy_bt,2022.2.4,Win32,234.1920375,Chrome,1920,1080,,,,,0,549,,,,,,,,,,,,,,,,,160,F,circle,1,0,,,,,,,,,,,,,,,,switch,number,numSwt,f,1.0814,noRew,,,,,,0,21,0,21,0,1,,,,,,,,,,,,,,,,,
292690,2022-12-05_15h10.33.057,vts_reward_expectancy_bt,2022.2.4,Win32,234.1920375,Chrome,1920,1080,,,,,0,549,,,,,,,,,,,,,,,,,146,U,hexagon,1,0,,,,,,,,,,,,,,,,switch,letter,lettSwt,k,2.3258,noRew,,,,,,0,22,0,22,0,1,,,,,,,,,,,,,,,,,
292690,2022-12-05_15h10.33.057,vts_reward_expectancy_bt,2022.2.4,Win32,234.1920375,Chrome,1920,1080,,,,,0,549,,,,,,,,,,,,,,,,,181,W,circle,1,0,,,,,,,,,,,,,,,,switch,number,numSwt,f,1.0875,noRew,,,,,,0,23,0,23,0,1,,,,,,,,,,,,,,,,,
292690,2022-12-05_15h10.33.057,vts_reward_expectancy_bt,2022.2.4,Win32,234.1920375,Chrome,1920,1080,,,,,0,549,,,,,,,,,,,,,,,,,125,W,triangle,1,0,,,,,,,,,,,,,,,,repeat,number,numRpt,d,1.0427,noRew,,,,,,0,24,0,24,0,1,,,,,,,,,,,,,,,,,
292690,2022-12-05_15h10.33.057,vts_reward_expectancy_bt,2022.2.4,Win32,234.1920375,Chrome,1920,1080,,,,,0,549,,,,,,,,,,,,,,,,,146,H,star,1,0,,,,,,,,,,,,,,,,repeat,number,numRpt,d,0.9866,noRew,,,,,,0,25,0,25,0,1,,,,,,,,,,,,,,,,,
292690,2022-12-05_15h10.33.057,vts_reward_expectancy_bt,2022.2.4,Win32,234.1920375,Chrome,1920,1080,,,,,0,549,,,,,,,,,,,,,,,,,132,Y,triangle,1,0,,,,,,,,,,,,,,,,switch,letter,lettSwt,k,0.9342,noRew,,,,,,0,26,0,26,0,1,,,,,,,,,,,,,,,,,
292690,2022-12-05_15h10.33.057,vts_reward_expectancy_bt,2022.2.4,Win32,234.1920375,Chrome,1920,1080,,,,,0,549,,,,,,,,,,,,,,,,,167,D,circle,1,0,,,,,,,,,,,,,,,,repeat,letter,lettRpt,j,0.7063,noRew,,,,,,0,27,0,27,0,1,,,,,,,,,,,,,,,,,
292690,2022-12-05_15h10.33.057,vts_reward_expectancy_bt,2022.2.4,Win32,234.1920375,Chrome,1920,1080,,,,,0,549,,,,,,,,,,,,,,,,,125,F,triangle,1,0,,,,,,,,,,,,,,,,switch,number,numSwt,d,1.5485,noRew,,,,,,0,28,0,28,0,1,,,,,,,,,,,,,,,,,
292690,2022-12-05_15h10.33.057,vts_reward_expectancy_bt,2022.2.4,Win32,234.1920375,Chrome,1920,1080,,,,,0,549,,,,,,,,,,,,,,,,,181,Y,star,1,0,,,,,,,,,,,,,,,,repeat,number,numRpt,f,0.8907,noRew,,,,,,0,29,0,29,0,1,,,,,,,,,,,,,,,,,
292690,2022-12-05_15h10.33.057,vts_reward_expectancy_bt,2022.2.4,Win32,234.1920375,Chrome,1920,1080,,,,,0,549,,,,,,,,,,,,,,,,,167,S,triangle,1,0,,,,,,,,,,,,,,,,repeat,number,numRpt,f,2.0394,noRew,,,,,,0,30,0,30,0,1,,,,,,,,,,,,,,,,,
292690,2022-12-05_15h10.33.057,vts_reward_expectancy_bt,2022.2.4,Win32,234.1920375,Chrome,1920,1080,,,,,0,549,,,,,,,,,,,,,,,,,160,U,circle,1,0,,,,,,,,,,,,,,,,switch,letter,lettSwt,k,0.7889,noRew,,,,,,0,31,0,31,0,1,,,,,,,,,,,,,,,,,
292690,2022-12-05_15h10.33.057,vts_reward_expectancy_bt,2022.2.4,Win32,234.1920375,Chrome,1920,1080,,,,,0,549,,,,,,,,,,,,,,,,,174,D,star,1,0,,,,,,,,,,,,,,,,switch,number,numSwt,f,0.6255,noRew,,,,,,0,32,0,32,0,1,,,,,,,,,,,,,,,,,
292690,2022-12-05_15h10.33.057,vts_reward_expectancy_bt,2022.2.4,Win32,234.1920375,Chrome,1920,1080,,,,,0,549,,,,,,,,,,,,,,,,,146,U,circle,1,0,,,,,,,,,,,,,,,,switch,letter,lettSwt,k,0.4603,noRew,,,,,,0,33,0,33,0,1,,,,,,,,,,,,,,,,,
292690,2022-12-05_15h10.33.057,vts_reward_expectancy_bt,2022.2.4,Win32,234.1920375,Chrome,1920,1080,,,,,0,549,,,,,,,,,,,,,,,,,167,B,triangle,1,0,,,,,,,,,,,,,,,,repeat,letter,lettRpt,j,0.4394,noRew,,,,,,0,34,0,34,0,1,,,,,,,,,,,,,,,,,
292690,2022-12-05_15h10.33.057,vts_reward_expectancy_bt,2022.2.4,Win32,234.1920375,Chrome,1920,1080,,,,,0,549,,,,,,,,,,,,,,,,,139,S,circle,1,0,,,,,,,,,,,,,,,,switch,number,numSwt,d,0.4713,noRew,,,,,,0,35,0,35,0,1,,,,,,,,,,,,,,,,,
292690,2022-12-05_15h10.33.057,vts_reward_expectancy_bt,2022.2.4,Win32,234.1920375,Chrome,1920,1080,,,,,0,549,,,,,,,,,,,,,,,,,167,Y,star,1,0,,,,,,,,,,,,,,,,repeat,number,numRpt,f,0.6611,noRew,,,,,,0,36,0,36,0,1,,,,,,,,,,,,,,,,,
292690,2022-12-05_15h10.33.057,vts_reward_expectancy_bt,2022.2.4,Win32,234.1920375,Chrome,1920,1080,,,,,0,549,,,,,,,,,,,,,,,,,181,S,circle,1,0,,,,,,,,,,,,,,,,switch,letter,lettSwt,k,0.6368,noRew,,,,,,0,37,0,37,0,1,,,,,,,,,,,,,,,,,
292690,2022-12-05_15h10.33.057,vts_reward_expectancy_bt,2022.2.4,Win32,234.1920375,Chrome,1920,1080,,,,,0,549,,,,,,,,,,,,,,,,,160,F,hexagon,1,0,,,,,,,,,,,,,,,,switch,number,numSwt,f,1.6833,noRew,,,,,,0,38,0,38,0,1,,,,,,,,,,,,,,,,,
292690,2022-12-05_15h10.33.057,vts_reward_expectancy_bt,2022.2.4,Win32,234.1920375,Chrome,1920,1080,,,,,0,549,,,,,,,,,,,,,,,,,174,B,star,1,0,,,,,,,,,,,,,,,,switch,letter,lettSwt,j,1.3855,noRew,,,,,,0,39,0,39,0,1,,,,,,,,,,,,,,,,,
292690,2022-12-05_15h10.33.057,vts_reward_expectancy_bt,2022.2.4,Win32,234.1920375,Chrome,1920,1080,,,,,0,549,,,,,,,,,,,,,,,,,139,B,triangle,1,0,,,,,,,,,,,,,,,,repeat,letter,lettRpt,j,0.5529,noRew,,,,,,0,40,0,40,0,1,,,,,,,,,,,,,,,,,
292690,2022-12-05_15h10.33.057,vts_reward_expectancy_bt,2022.2.4,Win32,234.1920375,Chrome,1920,1080,,,,,0,549,,,,,,,,,,,,,,,,,125,H,star,1,0,,,,,,,,,,,,,,,,switch,number,numSwt,d,1.349,noRew,,,,,,0,41,0,41,0,1,,,,,,,,,,,,,,,,,
292690,2022-12-05_15h10.33.057,vts_reward_expectancy_bt,2022.2.4,Win32,234.1920375,Chrome,1920,1080,,,,,0,549,,,,,,,,,,,,,,,,,181,U,star,1,0,,,,,,,,,,,,,,,,switch,letter,lettSwt,k,0.8751,noRew,,,,,,0,42,0,42,0,1,,,,,,,,,,,,,,,,,
292690,2022-12-05_15h10.33.057,vts_reward_expectancy_bt,2022.2.4,Win32,234.1920375,Chrome,1920,1080,,,,,0,549,,,,,,,,,,,,,,,,,167,D,hexagon,1,0,,,,,,,,,,,,,,,,repeat,letter,lettRpt,j,0.8467,noRew,,,,,,0,43,0,43,0,1,,,,,,,,,,,,,,,,,
292690,2022-12-05_15h10.33.057,vts_reward_expectancy_bt,2022.2.4,Win32,234.1920375,Chrome,1920,1080,,,,,0,549,,,,,,,,,,,,,,,,,174,H,hexagon,1,0,,,,,,,,,,,,,,,,switch,number,numSwt,f,1.3732,noRew,,,,,,0,44,0,44,0,1,,,,,,,,,,,,,,,,,
292690,2022-12-05_15h10.33.057,vts_reward_expectancy_bt,2022.2.4,Win32,234.1920375,Chrome,1920,1080,,,,,0,549,,,,,,,,,,,,,,,,,167,S,triangle,1,0,,,,,,,,,,,,,,,,repeat,number,numRpt,f,1.81,noRew,,,,,,0,45,0,45,0,1,,,,,,,,,,,,,,,,,
292690,2022-12-05_15h10.33.057,vts_reward_expectancy_bt,2022.2.4,Win32,234.1920375,Chrome,1920,1080,,,,,0,549,,,,,,,,,,,,,,,,,132,D,hexagon,1,0,,,,,,,,,,,,,,,,switch,letter,lettSwt,j,0.9177,noRew,,,,,,0,46,0,46,0,1,,,,,,,,,,,,,,,,,
292690,2022-12-05_15h10.33.057,vts_reward_expectancy_bt,2022.2.4,Win32,234.1920375,Chrome,1920,1080,,,,,0,549,,,,,,,,,,,,,,,,,125,F,star,1,0,,,,,,,,,,,,,,,,repeat,letter,lettRpt,j,1.4812,noRew,,,,,,0,47,0,47,0,1,,,,,,,,,,,,,,,,,
292690,2022-12-05_15h10.33.057,vts_reward_expectancy_bt,2022.2.4,Win32,234.1920375,Chrome,1920,1080,,,,,0,549,,,,,,,,,,,,,,,,,146,F,hexagon,1,0,,,,,,,,,,,,,,,,switch,number,numSwt,d,1.5793,noRew,,,,,,0,48,0,48,0,1,,,,,,,,,,,,,,,,,
292690,2022-12-05_15h10.33.057,vts_reward_expectancy_bt,2022.2.4,Win32,234.1920375,Chrome,1920,1080,,,,,0,549,,,,,,,,,,,,,,,,,181,Y,star,1,0,,,,,,,,,,,,,,,,repeat,number,numRpt,f,1.0456,noRew,,,,,,0,49,0,49,0,1,,,,,,,,,,,,,,,,,
292690,2022-12-05_15h10.33.057,vts_reward_expectancy_bt,2022.2.4,Win32,234.1920375,Chrome,1920,1080,,,,,0,549,,,,,,,,,,,,,,,,,139,B,star,1,0,,,,,,,,,,,,,,,,repeat,number,numRpt,d,0.8933,noRew,,,,,,0,50,0,50,0,1,,,,,,,,,,,,,,,,,
292690,2022-12-05_15h10.33.057,vts_reward_expectancy_bt,2022.2.4,Win32,234.1920375,Chrome,1920,1080,,,,,0,549,,,,,,,,,,,,,,,,,132,U,circle,1,0,,,,,,,,,,,,,,,,switch,letter,lettSwt,k,0.7619,noRew,,,,,,0,51,0,51,0,1,,,,,,,,,,,,,,,,,
292690,2022-12-05_15h10.33.057,vts_reward_expectancy_bt,2022.2.4,Win32,234.1920375,Chrome,1920,1080,,,,,0,549,,,,,,,,,,,,,,,,,160,W,star,1,0,,,,,,,,,,,,,,,,repeat,letter,lettRpt,k,0.5798,noRew,,,,,,0,52,0,52,0,1,,,,,,,,,,,,,,,,,
292690,2022-12-05_15h10.33.057,vts_reward_expectancy_bt,2022.2.4,Win32,234.1920375,Chrome,1920,1080,,,,,0,549,,,,,,,,,,,,,,,,,132,D,circle,1,0,,,,,,,,,,,,,,,,repeat,letter,lettRpt,j,0.6325,noRew,,,,,,0,53,0,53,0,1,,,,,,,,,,,,,,,,,
292690,2022-12-05_15h10.33.057,vts_reward_expectancy_bt,2022.2.4,Win32,234.1920375,Chrome,1920,1080,,,,,0,549,,,,,,,,,,,,,,,,,181,H,hexagon,1,0,,,,,,,,,,,,,,,,switch,number,numSwt,f,2.295,noRew,,,,,,0,54,0,54,0,1,,,,,,,,,,,,,,,,,
292690,2022-12-05_15h10.33.057,vts_reward_expectancy_bt,2022.2.4,Win32,234.1920375,Chrome,1920,1080,,,,,0,549,,,,,,,,,,,,,,,,,174,F,star,1,0,,,,,,,,,,,,,,,,switch,letter,lettSwt,j,1.7,noRew,,,,,,0,55,0,55,0,1,,,,,,,,,,,,,,,,,
292690,2022-12-05_15h10.33.057,vts_reward_expectancy_bt,2022.2.4,Win32,234.1920375,Chrome,1920,1080,,,,,0,549,,,,,,,,,,,,,,,,,132,F,star,1,0,,,,,,,,,,,,,,,,switch,number,numSwt,d,1.1267,noRew,,,,,,0,56,0,56,0,1,,,,,,,,,,,,,,,,,
292690,2022-12-05_15h10.33.057,vts_reward_expectancy_bt,2022.2.4,Win32,234.1920375,Chrome,1920,1080,,,,,0,549,,,,,,,,,,,,,,,,,125,D,circle,1,0,,,,,,,,,,,,,,,,repeat,number,numRpt,d,1.4026,noRew,,,,,,0,57,0,57,0,1,,,,,,,,,,,,,,,,,
292690,2022-12-05_15h10.33.057,vts_reward_expectancy_bt,2022.2.4,Win32,234.1920375,Chrome,1920,1080,,,,,0,549,,,,,,,,,,,,,,,,,167,Y,triangle,1,0,,,,,,,,,,,,,,,,switch,letter,lettSwt,k,0.937,noRew,,,,,,0,58,0,58,0,1,,,,,,,,,,,,,,,,,
292690,2022-12-05_15h10.33.057,vts_reward_expectancy_bt,2022.2.4,Win32,234.1920375,Chrome,1920,1080,,,,,0,549,,,,,,,,,,,,,,,,,160,H,circle,1,0,,,,,,,,,,,,,,,,repeat,letter,lettRpt,j,1.1244,noRew,,,,,,0,59,0,59,0,1,,,,,,,,,,,,,,,,,
292690,2022-12-05_15h10.33.057,vts_reward_expectancy_bt,2022.2.4,Win32,234.1920375,Chrome,1920,1080,,,,,0,549,,,,,,,,,,,,,,,,,132,W,star,1,0,,,,,,,,,,,,,,,,repeat,letter,lettRpt,k,1.1303,noRew,,,,,,0,60,0,60,0,1,,,,,,,,,,,,,,,,,
292690,2022-12-05_15h10.33.057,vts_reward_expectancy_bt,2022.2.4,Win32,234.1920375,Chrome,1920,1080,,,,,0,549,,,,,,,,,,,,,,,,,160,S,circle,1,0,,,,,,,,,,,,,,,,switch,number,numSwt,f,1.4669,noRew,,,,,,0,61,0,61,0,1,,,,,,,,,,,,,,,,,
292690,2022-12-05_15h10.33.057,vts_reward_expectancy_bt,2022.2.4,Win32,234.1920375,Chrome,1920,1080,,,,,0,549,,,,,,,,,,,,,,,,,181,U,hexagon,1,0,,,,,,,,,,,,,,,,repeat,number,numRpt,f,1.3974,noRew,,,,,,0,62,0,62,0,1,,,,,,,,,,,,,,,,,
292690,2022-12-05_15h10.33.057,vts_reward_expectancy_bt,2022.2.4,Win32,234.1920375,Chrome,1920,1080,,,,,0,549,,,,,,,,,,,,,,,,,174,B,circle,1,0,,,,,,,,,,,,,,,,repeat,number,numRpt,f,0.9639,noRew,,,,,,0,63,0,63,0,1,,,,,,,,,,,,,,,,,
292690,2022-12-05_15h10.33.057,vts_reward_expectancy_bt,2022.2.4,Win32,234.1920375,Chrome,1920,1080,,,,,,,,,,,,,,,,,,,,,,,,,,,,,,,,,,,,,,,,,,,,,,,,,,,,,,,,,,,,,,,,,,,,,,,,,,,,
292690,2022-12-05_15h10.33.057,vts_reward_expectancy_bt,2022.2.4,Win32,234.1920375,Chrome,1920,1080,,,,,10,559,,,,,,,,,,,,,,,,,181,H,hexagon,1,0,,,,,,,,,,,,,,,,repeat,number,numRpt,f,0.6103,Hi,,,,,,0,,,,,,space,7.9823,low,0,0,0,0,1,,,,,,,,,
292690,2022-12-05_15h10.33.057,vts_reward_expectancy_bt,2022.2.4,Win32,234.1920375,Chrome,1920,1080,,,,,1,560,,,,,,,,,,,,,,,,,125,F,star,1,0,,,,,,,,,,,,,,,,switch,letter,lettSwt,j,0.4724,Hi,,,,,,0,,,,,,,,low,1,0,1,0,1,,,,,,,,,
292690,2022-12-05_15h10.33.057,vts_reward_expectancy_bt,2022.2.4,Win32,234.1920375,Chrome,1920,1080,,,,,1,561,,,,,,,,,,,,,,,,,132,Y,circle,1,0,,,,,,,,,,,,,,,,switch,number,numSwt,d,0.7079,Lo,,,,,,0,,,,,,,,low,2,0,2,0,1,,,,,,,,,
292690,2022-12-05_15h10.33.057,vts_reward_expectancy_bt,2022.2.4,Win32,234.1920375,Chrome,1920,1080,,,,,1,562,,,,,,,,,,,,,,,,,160,W,triangle,1,0,,,,,,,,,,,,,,,,switch,letter,lettSwt,k,0.5938,Lo,,,,,,0,,,,,,,,low,3,0,3,0,1,,,,,,,,,
292690,2022-12-05_15h10.33.057,vts_reward_expectancy_bt,2022.2.4,Win32,234.1920375,Chrome,1920,1080,,,,,1,563,,,,,,,,,,,,,,,,,139,D,hexagon,1,0,,,,,,,,,,,,,,,,switch,number,numSwt,d,0.6862,Hi,,,,,,0,,,,,,,,low,4,0,4,0,1,,,,,,,,,
292690,2022-12-05_15h10.33.057,vts_reward_expectancy_bt,2022.2.4,Win32,234.1920375,Chrome,1920,1080,,,,,0,563,,,,,,,,,,,,,,,,,146,B,star,0,0,,,,,,,,,,,,,,,,switch,letter,NA,k,0.5511,Hi,,,,,,0,,,,,,,,low,5,0,5,0,1,,,,,,,,,
292690,2022-12-05_15h10.33.057,vts_reward_expectancy_bt,2022.2.4,Win32,234.1920375,Chrome,1920,1080,,,,,10,573,,,,,,,,,,,,,,,,,174,S,circle,1,1,,,,,,,,,,,,,,,,switch,number,numSwt,f,1.0854,Lo,,,,,,0,,,,,,,,low,6,0,6,0,1,,,,,,,,,
292690,2022-12-05_15h10.33.057,vts_reward_expectancy_bt,2022.2.4,Win32,234.1920375,Chrome,1920,1080,,,,,1,574,,,,,,,,,,,,,,,,,167,U,triangle,1,0,,,,,,,,,,,,,,,,switch,letter,lettSwt,k,0.5638,Lo,,,,,,0,,,,,,,,low,7,0,7,0,1,,,,,,,,,
292690,2022-12-05_15h10.33.057,vts_reward_expectancy_bt,2022.2.4,Win32,234.1920375,Chrome,1920,1080,,,,,0,574,,,,,,,,,,,,,,,,,181,H,hexagon,1,0,,,,,,,,,,,,,,,,repeat,letter,lettRpt,j,0.9704,Hi,,,,,,0,,,,,,,,low,8,0,8,0,1,,,,,,,,,
292690,2022-12-05_15h10.33.057,vts_reward_expectancy_bt,2022.2.4,Win32,234.1920375,Chrome,1920,1080,,,,,1,575,,,,,,,,,,,,,,,,,125,F,star,1,0,,,,,,,,,,,,,,,,switch,number,numSwt,d,0.5492,Hi,,,,,,0,,,,,,,,low,9,0,9,0,1,,,,,,,,,
292690,2022-12-05_15h10.33.057,vts_reward_expectancy_bt,2022.2.4,Win32,234.1920375,Chrome,1920,1080,,,,,10,585,,,,,,,,,,,,,,,,,132,Y,circle,1,0,,,,,,,,,,,,,,,,switch,letter,lettSwt,k,0.5392,Lo,,,,,,0,,,,,,,,low,10,0,10,0,1,,,,,,,,,
292690,2022-12-05_15h10.33.057,vts_reward_expectancy_bt,2022.2.4,Win32,234.1920375,Chrome,1920,1080,,,,,1,586,,,,,,,,,,,,,,,,,160,W,triangle,1,0,,,,,,,,,,,,,,,,switch,number,numSwt,f,0.4511,Lo,,,,,,0,,,,,,,,low,11,0,11,0,1,,,,,,,,,
292690,2022-12-05_15h10.33.057,vts_reward_expectancy_bt,2022.2.4,Win32,234.1920375,Chrome,1920,1080,,,,,10,596,,,,,,,,,,,,,,,,,139,D,star,1,0,,,,,,,,,,,,,,,,repeat,number,numRpt,d,0.7896,Hi,,,,,,0,,,,,,,,low,12,0,12,0,1,,,,,,,,,
292690,2022-12-05_15h10.33.057,vts_reward_expectancy_bt,2022.2.4,Win32,234.1920375,Chrome,1920,1080,,,,,1,597,,,,,,,,,,,,,,,,,146,B,triangle,1,0,,,,,,,,,,,,,,,,repeat,number,numRpt,d,0.6781,Lo,,,,,,0,,,,,,,,low,13,0,13,0,1,,,,,,,,,
292690,2022-12-05_15h10.33.057,vts_reward_expectancy_bt,2022.2.4,Win32,234.1920375,Chrome,1920,1080,,,,,1,598,,,,,,,,,,,,,,,,,174,S,circle,1,0,,,,,,,,,,,,,,,,switch,letter,lettSwt,k,1.0061,Lo,,,,,,0,,,,,,,,low,14,0,14,0,1,,,,,,,,,
292690,2022-12-05_15h10.33.057,vts_reward_expectancy_bt,2022.2.4,Win32,234.1920375,Chrome,1920,1080,,,,,1,599,,,,,,,,,,,,,,,,,167,U,hexagon,1,0,,,,,,,,,,,,,,,,switch,number,numSwt,f,0.5432,Hi,,,,,,0,,,,,,,,low,15,0,15,0,1,,,,,,,,,
292690,2022-12-05_15h10.33.057,vts_reward_expectancy_bt,2022.2.4,Win32,234.1920375,Chrome,1920,1080,,,,,1,600,,,,,,,,,,,,,,,,,132,W,circle,1,0,,,,,,,,,,,,,,,,switch,letter,lettSwt,k,0.4307,Lo,,,,,,0,,,,,,,,low,16,0,16,0,1,,,,,,,,,
292690,2022-12-05_15h10.33.057,vts_reward_expectancy_bt,2022.2.4,Win32,234.1920375,Chrome,1920,1080,,,,,1,601,,,,,,,,,,,,,,,,,139,U,hexagon,1,0,,,,,,,,,,,,,,,,switch,number,numSwt,d,0.4465,Hi,,,,,,0,,,,,,,,low,17,0,17,0,1,,,,,,,,,
292690,2022-12-05_15h10.33.057,vts_reward_expectancy_bt,2022.2.4,Win32,234.1920375,Chrome,1920,1080,,,,,10,611,,,,,,,,,,,,,,,,,160,B,triangle,1,0,,,,,,,,,,,,,,,,repeat,number,numRpt,f,1.0037,Lo,,,,,,0,,,,,,,,low,18,0,18,0,1,,,,,,,,,
292690,2022-12-05_15h10.33.057,vts_reward_expectancy_bt,2022.2.4,Win32,234.1920375,Chrome,1920,1080,,,,,0,611,,,,,,,,,,,,,,,,,181,S,star,0,0,,,,,,,,,,,,,,,,switch,letter,NA,j,1.2356,Lo,,,,,,0,,,,,,,,low,19,0,19,0,1,,,,,,,,,
292690,2022-12-05_15h10.33.057,vts_reward_expectancy_bt,2022.2.4,Win32,234.1920375,Chrome,1920,1080,,,,,0,611,,,,,,,,,,,,,,,,,167,Y,hexagon,1,1,,,,,,,,,,,,,,,,repeat,letter,lettRpt,k,0.9727,Hi,,,,,,0,,,,,,,,low,20,0,20,0,1,,,,,,,,,
292690,2022-12-05_15h10.33.057,vts_reward_expectancy_bt,2022.2.4,Win32,234.1920375,Chrome,1920,1080,,,,,10,621,,,,,,,,,,,,,,,,,146,F,star,1,0,,,,,,,,,,,,,,,,switch,number,numSwt,d,0.6882,Hi,,,,,,0,,,,,,,,low,21,0,21,0,1,,,,,,,,,
292690,2022-12-05_15h10.33.057,vts_reward_expectancy_bt,2022.2.4,Win32,234.1920375,Chrome,1920,1080,,,,,10,631,,,,,,,,,,,,,,,,,125,D,circle,1,0,,,,,,,,,,,,,,,,switch,letter,lettSwt,j,0.8226,Lo,,,,,,0,,,,,,,,low,22,0,22,0,1,,,,,,,,,
292690,2022-12-05_15h10.33.057,vts_reward_expectancy_bt,2022.2.4,Win32,234.1920375,Chrome,1920,1080,,,,,10,641,,,,,,,,,,,,,,,,,174,H,triangle,1,0,,,,,,,,,,,,,,,,switch,number,numSwt,f,1.5143,Lo,,,,,,0,,,,,,,,low,23,0,23,0,1,,,,,,,,,
292690,2022-12-05_15h10.33.057,vts_reward_expectancy_bt,2022.2.4,Win32,234.1920375,Chrome,1920,1080,,,,,10,651,,,,,,,,,,,,,,,,,146,S,triangle,1,0,,,,,,,,,,,,,,,,repeat,number,numRpt,d,1.3765,Lo,,,,,,0,,,,,,,,low,24,0,24,0,1,,,,,,,,,
292690,2022-12-05_15h10.33.057,vts_reward_expectancy_bt,2022.2.4,Win32,234.1920375,Chrome,1920,1080,,,,,0,651,,,,,,,,,,,,,,,,,174,U,circle,0,0,,,,,,,,,,,,,,,,repeat,number,NA,d,0.7972,Lo,,,,,,0,,,,,,,,low,25,0,25,0,1,,,,,,,,,
292690,2022-12-05_15h10.33.057,vts_reward_expectancy_bt,2022.2.4,Win32,234.1920375,Chrome,1920,1080,,,,,0,651,,,,,,,,,,,,,,,,,160,F,star,1,1,,,,,,,,,,,,,,,,repeat,number,numRpt,f,1.4306,Hi,,,,,,0,,,,,,,,low,26,0,26,0,1,,,,,,,,,
292690,2022-12-05_15h10.33.057,vts_reward_expectancy_bt,2022.2.4,Win32,234.1920375,Chrome,1920,1080,,,,,1,652,,,,,,,,,,,,,,,,,139,W,hexagon,1,0,,,,,,,,,,,,,,,,repeat,number,numRpt,d,0.7677,Hi,,,,,,0,,,,,,,,low,27,0,27,0,1,,,,,,,,,
292690,2022-12-05_15h10.33.057,vts_reward_expectancy_bt,2022.2.4,Win32,234.1920375,Chrome,1920,1080,,,,,1,653,,,,,,,,,,,,,,,,,125,Y,triangle,1,0,,,,,,,,,,,,,,,,repeat,number,numRpt,d,1.1161,Lo,,,,,,0,,,,,,,,low,28,0,28,0,1,,,,,,,,,
292690,2022-12-05_15h10.33.057,vts_reward_expectancy_bt,2022.2.4,Win32,234.1920375,Chrome,1920,1080,,,,,10,663,,,,,,,,,,,,,,,,,132,H,circle,1,0,,,,,,,,,,,,,,,,switch,letter,lettSwt,j,1.5534,Lo,,,,,,0,,,,,,,,low,29,0,29,0,1,,,,,,,,,
292690,2022-12-05_15h10.33.057,vts_reward_expectancy_bt,2022.2.4,Win32,234.1920375,Chrome,1920,1080,,,,,10,673,,,,,,,,,,,,,,,,,181,D,hexagon,1,0,,,,,,,,,,,,,,,,switch,number,numSwt,f,0.9758,Hi,,,,,,0,,,,,,,,low,30,0,30,0,1,,,,,,,,,
292690,2022-12-05_15h10.33.057,vts_reward_expectancy_bt,2022.2.4,Win32,234.1920375,Chrome,1920,1080,,,,,0,673,,,,,,,,,,,,,,,,,167,B,star,1,0,,,,,,,,,,,,,,,,switch,letter,lettSwt,j,1.5741,Hi,,,,,,0,,,,,,,,low,31,0,31,0,1,,,,,,,,,
292690,2022-12-05_15h10.33.057,vts_reward_expectancy_bt,2022.2.4,Win32,234.1920375,Chrome,1920,1080,,,,,0,673,,,,,,,,,,,,,,,,,160,U,star,1,0,,,,,,,,,,,,,,,,switch,number,numSwt,f,0.6558,Hi,,,,,,1,,,,,,space,3.3418,low,0,0,0,0,1,,,,,,,,,
292690,2022-12-05_15h10.33.057,vts_reward_expectancy_bt,2022.2.4,Win32,234.1920375,Chrome,1920,1080,,,,,10,683,,,,,,,,,,,,,,,,,167,F,hexagon,1,0,,,,,,,,,,,,,,,,repeat,number,numRpt,f,0.6188,Hi,,,,,,1,,,,,,,,low,1,0,1,0,1,,,,,,,,,
292690,2022-12-05_15h10.33.057,vts_reward_expectancy_bt,2022.2.4,Win32,234.1920375,Chrome,1920,1080,,,,,1,684,,,,,,,,,,,,,,,,,181,H,triangle,1,0,,,,,,,,,,,,,,,,repeat,number,numRpt,f,0.6642,Lo,,,,,,1,,,,,,,,low,2,0,2,0,1,,,,,,,,,
292690,2022-12-05_15h10.33.057,vts_reward_expectancy_bt,2022.2.4,Win32,234.1920375,Chrome,1920,1080,,,,,1,685,,,,,,,,,,,,,,,,,146,S,circle,1,0,,,,,,,,,,,,,,,,repeat,number,numRpt,d,0.8312,Lo,,,,,,1,,,,,,,,low,3,0,3,0,1,,,,,,,,,
292690,2022-12-05_15h10.33.057,vts_reward_expectancy_bt,2022.2.4,Win32,234.1920375,Chrome,1920,1080,,,,,0,685,,,,,,,,,,,,,,,,,132,Y,star,1,0,,,,,,,,,,,,,,,,repeat,number,numRpt,d,0.7937,Hi,,,,,,1,,,,,,,,low,4,0,4,0,1,,,,,,,,,
292690,2022-12-05_15h10.33.057,vts_reward_expectancy_bt,2022.2.4,Win32,234.1920375,Chrome,1920,1080,,,,,0,685,,,,,,,,,,,,,,,,,174,D,hexagon,1,0,,,,,,,,,,,,,,,,switch,letter,lettSwt,j,0.6434,Hi,,,,,,1,,,,,,,,low,5,0,5,0,1,,,,,,,,,
292690,2022-12-05_15h10.33.057,vts_reward_expectancy_bt,2022.2.4,Win32,234.1920375,Chrome,1920,1080,,,,,1,686,,,,,,,,,,,,,,,,,125,W,triangle,1,0,,,,,,,,,,,,,,,,switch,number,numSwt,d,0.4059,Lo,,,,,,1,,,,,,,,low,6,0,6,0,1,,,,,,,,,
292690,2022-12-05_15h10.33.057,vts_reward_expectancy_bt,2022.2.4,Win32,234.1920375,Chrome,1920,1080,,,,,1,687,,,,,,,,,,,,,,,,,139,B,circle,1,0,,,,,,,,,,,,,,,,switch,letter,lettSwt,j,0.4476,Lo,,,,,,1,,,,,,,,low,7,0,7,0,1,,,,,,,,,
292690,2022-12-05_15h10.33.057,vts_reward_expectancy_bt,2022.2.4,Win32,234.1920375,Chrome,1920,1080,,,,,0,687,,,,,,,,,,,,,,,,,160,U,star,1,0,,,,,,,,,,,,,,,,switch,number,numSwt,f,0.5535,Hi,,,,,,1,,,,,,,,low,8,0,8,0,1,,,,,,,,,
292690,2022-12-05_15h10.33.057,vts_reward_expectancy_bt,2022.2.4,Win32,234.1920375,Chrome,1920,1080,,,,,1,688,,,,,,,,,,,,,,,,,167,F,triangle,1,0,,,,,,,,,,,,,,,,repeat,number,numRpt,f,0.5113,Lo,,,,,,1,,,,,,,,low,9,0,9,0,1,,,,,,,,,
292690,2022-12-05_15h10.33.057,vts_reward_expectancy_bt,2022.2.4,Win32,234.1920375,Chrome,1920,1080,,,,,10,698,,,,,,,,,,,,,,,,,181,H,circle,1,0,,,,,,,,,,,,,,,,switch,letter,lettSwt,j,0.4496,Lo,,,,,,1,,,,,,,,low,10,0,10,0,1,,,,,,,,,
292690,2022-12-05_15h10.33.057,vts_reward_expectancy_bt,2022.2.4,Win32,234.1920375,Chrome,1920,1080,,,,,10,708,,,,,,,,,,,,,,,,,146,S,hexagon,1,0,,,,,,,,,,,,,,,,switch,number,numSwt,d,0.5381,Hi,,,,,,1,,,,,,,,low,11,0,11,0,1,,,,,,,,,
292690,2022-12-05_15h10.33.057,vts_reward_expectancy_bt,2022.2.4,Win32,234.1920375,Chrome,1920,1080,,,,,10,718,,,,,,,,,,,,,,,,,132,Y,star,1,0,,,,,,,,,,,,,,,,switch,letter,lettSwt,k,0.4531,Hi,,,,,,1,,,,,,,,low,12,0,12,0,1,,,,,,,,,
292690,2022-12-05_15h10.33.057,vts_reward_expectancy_bt,2022.2.4,Win32,234.1920375,Chrome,1920,1080,,,,,1,719,,,,,,,,,,,,,,,,,174,D,triangle,1,0,,,,,,,,,,,,,,,,switch,number,numSwt,f,0.6728,Lo,,,,,,1,,,,,,,,low,13,0,13,0,1,,,,,,,,,
292690,2022-12-05_15h10.33.057,vts_reward_expectancy_bt,2022.2.4,Win32,234.1920375,Chrome,1920,1080,,,,,1,720,,,,,,,,,,,,,,,,,125,W,hexagon,1,0,,,,,,,,,,,,,,,,switch,letter,lettSwt,k,0.5163,Hi,,,,,,1,,,,,,,,low,14,0,14,0,1,,,,,,,,,
292690,2022-12-05_15h10.33.057,vts_reward_expectancy_bt,2022.2.4,Win32,234.1920375,Chrome,1920,1080,,,,,10,730,,,,,,,,,,,,,,,,,139,B,circle,1,0,,,,,,,,,,,,,,,,repeat,letter,lettRpt,j,0.6056,Lo,,,,,,1,,,,,,,,low,15,0,15,0,1,,,,,,,,,
292690,2022-12-05_15h10.33.057,vts_reward_expectancy_bt,2022.2.4,Win32,234.1920375,Chrome,1920,1080,,,,,10,740,,,,,,,,,,,,,,,,,132,U,star,1,0,,,,,,,,,,,,,,,,repeat,letter,lettRpt,k,0.4005,Hi,,,,,,1,,,,,,,,low,16,0,16,0,1,,,,,,,,,
292690,2022-12-05_15h10.33.057,vts_reward_expectancy_bt,2022.2.4,Win32,234.1920375,Chrome,1920,1080,,,,,10,750,,,,,,,,,,,,,,,,,160,S,circle,1,0,,,,,,,,,,,,,,,,switch,number,numSwt,f,0.4641,Lo,,,,,,1,,,,,,,,low,17,0,17,0,1,,,,,,,,,
292690,2022-12-05_15h10.33.057,vts_reward_expectancy_bt,2022.2.4,Win32,234.1920375,Chrome,1920,1080,,,,,10,760,,,,,,,,,,,,,,,,,125,B,hexagon,1,0,,,,,,,,,,,,,,,,repeat,number,numRpt,d,0.7433,Hi,,,,,,1,,,,,,,,low,18,0,18,0,1,,,,,,,,,
292690,2022-12-05_15h10.33.057,vts_reward_expectancy_bt,2022.2.4,Win32,234.1920375,Chrome,1920,1080,,,,,10,770,,,,,,,,,,,,,,,,,146,D,triangle,1,0,,,,,,,,,,,,,,,,switch,letter,lettSwt,j,0.6069,Lo,,,,,,1,,,,,,,,low,19,0,19,0,1,,,,,,,,,
292690,2022-12-05_15h10.33.057,vts_reward_expectancy_bt,2022.2.4,Win32,234.1920375,Chrome,1920,1080,,,,,10,780,,,,,,,,,,,,,,,,,139,F,star,1,0,,,,,,,,,,,,,,,,repeat,letter,lettRpt,j,0.7351,Hi,,,,,,1,,,,,,,,low,20,0,20,0,1,,,,,,,,,
292690,2022-12-05_15h10.33.057,vts_reward_expectancy_bt,2022.2.4,Win32,234.1920375,Chrome,1920,1080,,,,,10,790,,,,,,,,,,,,,,,,,167,H,triangle,1,0,,,,,,,,,,,,,,,,switch,number,numSwt,f,0.8279,Lo,,,,,,1,,,,,,,,low,21,0,21,0,1,,,,,,,,,
292690,2022-12-05_15h10.33.057,vts_reward_expectancy_bt,2022.2.4,Win32,234.1920375,Chrome,1920,1080,,,,,1,791,,,,,,,,,,,,,,,,,174,Y,circle,1,0,,,,,,,,,,,,,,,,repeat,number,numRpt,f,0.4518,Lo,,,,,,1,,,,,,,,low,22,0,22,0,1,,,,,,,,,
292690,2022-12-05_15h10.33.057,vts_reward_expectancy_bt,2022.2.4,Win32,234.1920375,Chrome,1920,1080,,,,,1,792,,,,,,,,,,,,,,,,,181,W,hexagon,1,0,,,,,,,,,,,,,,,,switch,letter,lettSwt,k,0.4782,Hi,,,,,,1,,,,,,,,low,23,0,23,0,1,,,,,,,,,
292690,2022-12-05_15h10.33.057,vts_reward_expectancy_bt,2022.2.4,Win32,234.1920375,Chrome,1920,1080,,,,,0,792,,,,,,,,,,,,,,,,,139,U,star,1,0,,,,,,,,,,,,,,,,switch,number,numSwt,d,0.6548,Hi,,,,,,1,,,,,,,,low,24,0,24,0,1,,,,,,,,,
292690,2022-12-05_15h10.33.057,vts_reward_expectancy_bt,2022.2.4,Win32,234.1920375,Chrome,1920,1080,,,,,10,802,,,,,,,,,,,,,,,,,132,F,circle,1,0,,,,,,,,,,,,,,,,repeat,number,numRpt,d,0.5463,Lo,,,,,,1,,,,,,,,low,25,0,25,0,1,,,,,,,,,
292690,2022-12-05_15h10.33.057,vts_reward_expectancy_bt,2022.2.4,Win32,234.1920375,Chrome,1920,1080,,,,,10,812,,,,,,,,,,,,,,,,,167,H,triangle,1,0,,,,,,,,,,,,,,,,repeat,number,numRpt,f,0.5733,Lo,,,,,,1,,,,,,,,low,26,0,26,0,1,,,,,,,,,
292690,2022-12-05_15h10.33.057,vts_reward_expectancy_bt,2022.2.4,Win32,234.1920375,Chrome,1920,1080,,,,,1,813,,,,,,,,,,,,,,,,,181,S,hexagon,1,0,,,,,,,,,,,,,,,,repeat,number,numRpt,f,0.5368,Hi,,,,,,1,,,,,,,,low,27,0,27,0,1,,,,,,,,,
292690,2022-12-05_15h10.33.057,vts_reward_expectancy_bt,2022.2.4,Win32,234.1920375,Chrome,1920,1080,,,,,10,823,,,,,,,,,,,,,,,,,174,D,star,1,0,,,,,,,,,,,,,,,,repeat,number,numRpt,f,0.7258,Hi,,,,,,1,,,,,,,,low,28,0,28,0,1,,,,,,,,,
292690,2022-12-05_15h10.33.057,vts_reward_expectancy_bt,2022.2.4,Win32,234.1920375,Chrome,1920,1080,,,,,1,824,,,,,,,,,,,,,,,,,125,Y,circle,1,0,,,,,,,,,,,,,,,,switch,letter,lettSwt,k,0.6926,Lo,,,,,,1,,,,,,,,low,29,0,29,0,1,,,,,,,,,
292690,2022-12-05_15h10.33.057,vts_reward_expectancy_bt,2022.2.4,Win32,234.1920375,Chrome,1920,1080,,,,,0,824,,,,,,,,,,,,,,,,,146,B,hexagon,1,0,,,,,,,,,,,,,,,,switch,number,numSwt,d,0.8968,Hi,,,,,,1,,,,,,,,low,30,0,30,0,1,,,,,,,,,
292690,2022-12-05_15h10.33.057,vts_reward_expectancy_bt,2022.2.4,Win32,234.1920375,Chrome,1920,1080,,,,,1,825,,,,,,,,,,,,,,,,,160,W,triangle,1,0,,,,,,,,,,,,,,,,repeat,number,numRpt,f,0.5922,Lo,,,,,,1,,,,,,,,low,31,0,31,0,1,,,,,,,,,
292690,2022-12-05_15h10.33.057,vts_reward_expectancy_bt,2022.2.4,Win32,234.1920375,Chrome,1920,1080,,,,,10,835,,,,,,,,,,,,,,,,,174,D,circle,1,0,,,,,,,,,,,,,,,,repeat,number,numRpt,f,0.6258,Lo,,,,,,2,,,,,,space,1.3351,low,0,0,0,0,1,,,,,,,,,
292690,2022-12-05_15h10.33.057,vts_reward_expectancy_bt,2022.2.4,Win32,234.1920375,Chrome,1920,1080,,,,,1,836,,,,,,,,,,,,,,,,,160,H,triangle,1,0,,,,,,,,,,,,,,,,repeat,number,numRpt,f,0.8186,Lo,,,,,,2,,,,,,,,low,1,0,1,0,1,,,,,,,,,
292690,2022-12-05_15h10.33.057,vts_reward_expectancy_bt,2022.2.4,Win32,234.1920375,Chrome,1920,1080,,,,,0,836,,,,,,,,,,,,,,,,,132,U,star,1,0,,,,,,,,,,,,,,,,repeat,number,numRpt,d,0.7436,Hi,,,,,,2,,,,,,,,low,2,0,2,0,1,,,,,,,,,
292690,2022-12-05_15h10.33.057,vts_reward_expectancy_bt,2022.2.4,Win32,234.1920375,Chrome,1920,1080,,,,,0,836,,,,,,,,,,,,,,,,,181,S,hexagon,1,0,,,,,,,,,,,,,,,,repeat,number,numRpt,f,0.5655,Hi,,,,,,2,,,,,,,,low,3,0,3,0,1,,,,,,,,,
292690,2022-12-05_15h10.33.057,vts_reward_expectancy_bt,2022.2.4,Win32,234.1920375,Chrome,1920,1080,,,,,1,837,,,,,,,,,,,,,,,,,125,B,circle,1,0,,,,,,,,,,,,,,,,repeat,number,numRpt,d,0.7671,Lo,,,,,,2,,,,,,,,low,4,0,4,0,1,,,,,,,,,
292690,2022-12-05_15h10.33.057,vts_reward_expectancy_bt,2022.2.4,Win32,234.1920375,Chrome,1920,1080,,,,,10,847,,,,,,,,,,,,,,,,,146,W,triangle,1,0,,,,,,,,,,,,,,,,switch,letter,lettSwt,k,0.6913,Lo,,,,,,2,,,,,,,,low,5,0,5,0,1,,,,,,,,,
292690,2022-12-05_15h10.33.057,vts_reward_expectancy_bt,2022.2.4,Win32,234.1920375,Chrome,1920,1080,,,,,0,847,,,,,,,,,,,,,,,,,139,Y,star,1,0,,,,,,,,,,,,,,,,switch,number,numSwt,d,1.2679,Hi,,,,,,2,,,,,,,,low,6,0,6,0,1,,,,,,,,,
292690,2022-12-05_15h10.33.057,vts_reward_expectancy_bt,2022.2.4,Win32,234.1920375,Chrome,1920,1080,,,,,0,847,,,,,,,,,,,,,,,,,167,F,hexagon,1,0,,,,,,,,,,,,,,,,repeat,number,numRpt,f,0.8738,Hi,,,,,,2,,,,,,,,low,7,0,7,0,1,,,,,,,,,
292690,2022-12-05_15h10.33.057,vts_reward_expectancy_bt,2022.2.4,Win32,234.1920375,Chrome,1920,1080,,,,,1,848,,,,,,,,,,,,,,,,,174,D,triangle,1,0,,,,,,,,,,,,,,,,switch,letter,lettSwt,j,1.0553,Lo,,,,,,2,,,,,,,,low,8,0,8,0,1,,,,,,,,,
292690,2022-12-05_15h10.33.057,vts_reward_expectancy_bt,2022.2.4,Win32,234.1920375,Chrome,1920,1080,,,,,0,848,,,,,,,,,,,,,,,,,160,H,hexagon,1,0,,,,,,,,,,,,,,,,repeat,letter,lettRpt,j,0.952,Hi,,,,,,2,,,,,,,,low,9,0,9,0,1,,,,,,,,,
292690,2022-12-05_15h10.33.057,vts_reward_expectancy_bt,2022.2.4,Win32,234.1920375,Chrome,1920,1080,,,,,0,848,,,,,,,,,,,,,,,,,132,U,star,1,0,,,,,,,,,,,,,,,,switch,number,numSwt,d,1.1371,Hi,,,,,,2,,,,,,,,low,10,0,10,0,1,,,,,,,,,
292690,2022-12-05_15h10.33.057,vts_reward_expectancy_bt,2022.2.4,Win32,234.1920375,Chrome,1920,1080,,,,,0,848,,,,,,,,,,,,,,,,,181,S,circle,0,0,,,,,,,,,,,,,,,,switch,letter,NA,j,0.534,Hi,,,,,,2,,,,,,,,low,11,0,11,0,1,,,,,,,,,
292690,2022-12-05_15h10.33.057,vts_reward_expectancy_bt,2022.2.4,Win32,234.1920375,Chrome,1920,1080,,,,,0,848,,,,,,,,,,,,,,,,,125,B,hexagon,1,1,,,,,,,,,,,,,,,,switch,number,numSwt,d,0.6549,Hi,,,,,,2,,,,,,,,low,12,0,12,0,1,,,,,,,,,
292690,2022-12-05_15h10.33.057,vts_reward_expectancy_bt,2022.2.4,Win32,234.1920375,Chrome,1920,1080,,,,,1,849,,,,,,,,,,,,,,,,,146,W,triangle,1,0,,,,,,,,,,,,,,,,switch,letter,lettSwt,k,0.4925,Lo,,,,,,2,,,,,,,,low,13,0,13,0,1,,,,,,,,,
292690,2022-12-05_15h10.33.057,vts_reward_expectancy_bt,2022.2.4,Win32,234.1920375,Chrome,1920,1080,,,,,1,850,,,,,,,,,,,,,,,,,139,Y,circle,1,0,,,,,,,,,,,,,,,,switch,number,numSwt,d,0.3747,Lo,,,,,,2,,,,,,,,low,14,0,14,0,1,,,,,,,,,
292690,2022-12-05_15h10.33.057,vts_reward_expectancy_bt,2022.2.4,Win32,234.1920375,Chrome,1920,1080,,,,,1,851,,,,,,,,,,,,,,,,,167,F,star,1,0,,,,,,,,,,,,,,,,repeat,number,numRpt,f,0.3297,Hi,,,,,,2,,,,,,,,low,15,0,15,0,1,,,,,,,,,
292690,2022-12-05_15h10.33.057,vts_reward_expectancy_bt,2022.2.4,Win32,234.1920375,Chrome,1920,1080,,,,,1,852,,,,,,,,,,,,,,,,,146,U,star,1,0,,,,,,,,,,,,,,,,switch,letter,lettSwt,k,0.2795,Hi,,,,,,2,,,,,,,,low,16,0,16,0,1,,,,,,,,,
292690,2022-12-05_15h10.33.057,vts_reward_expectancy_bt,2022.2.4,Win32,234.1920375,Chrome,1920,1080,,,,,10,862,,,,,,,,,,,,,,,,,132,D,hexagon,1,0,,,,,,,,,,,,,,,,repeat,letter,lettRpt,j,0.067,Hi,,,,,,2,,,,,,,,low,17,0,17,0,1,,,,,,,,,
292690,2022-12-05_15h10.33.057,vts_reward_expectancy_bt,2022.2.4,Win32,234.1920375,Chrome,1920,1080,,,,,1,863,,,,,,,,,,,,,,,,,167,H,circle,1,0,,,,,,,,,,,,,,,,switch,number,numSwt,f,0.0335,Lo,,,,,,2,,,,,,,,low,18,0,18,0,1,,,,,,,,,
292690,2022-12-05_15h10.33.057,vts_reward_expectancy_bt,2022.2.4,Win32,234.1920375,Chrome,1920,1080,,,,,1,864,,,,,,,,,,,,,,,,,139,Y,triangle,1,0,,,,,,,,,,,,,,,,switch,letter,lettSwt,k,0.1253,Lo,,,,,,2,,,,,,,,low,19,0,19,0,1,,,,,,,,,
292690,2022-12-05_15h10.33.057,vts_reward_expectancy_bt,2022.2.4,Win32,234.1920375,Chrome,1920,1080,,,,,10,874,,,,,,,,,,,,,,,,,125,W,circle,1,0,,,,,,,,,,,,,,,,switch,number,numSwt,d,0.0085,Lo,,,,,,2,,,,,,,,low,20,0,20,0,1,,,,,,,,,
292690,2022-12-05_15h10.33.057,vts_reward_expectancy_bt,2022.2.4,Win32,234.1920375,Chrome,1920,1080,,,,,1,875,,,,,,,,,,,,,,,,,174,S,triangle,1,0,,,,,,,,,,,,,,,,switch,letter,lettSwt,k,0.0502,Lo,,,,,,2,,,,,,,,low,21,0,21,0,1,,,,,,,,,
292690,2022-12-05_15h10.33.057,vts_reward_expectancy_bt,2022.2.4,Win32,234.1920375,Chrome,1920,1080,,,,,10,885,,,,,,,,,,,,,,,,,181,F,hexagon,1,0,,,,,,,,,,,,,,,,repeat,letter,lettRpt,j,0.0235,Hi,,,,,,2,,,,,,,,low,22,0,22,0,1,,,,,,,,,
292690,2022-12-05_15h10.33.057,vts_reward_expectancy_bt,2022.2.4,Win32,234.1920375,Chrome,1920,1080,,,,,10,895,,,,,,,,,,,,,,,,,160,B,star,1,0,,,,,,,,,,,,,,,,switch,number,numSwt,f,0.0426,Hi,,,,,,2,,,,,,,,low,23,0,23,0,1,,,,,,,,,
292690,2022-12-05_15h10.33.057,vts_reward_expectancy_bt,2022.2.4,Win32,234.1920375,Chrome,1920,1080,,,,,0,895,,,,,,,,,,,,,,,,,174,F,circle,0,0,,,,,,,,,,,,,,,,switch,letter,NA,k,0.0748,Hi,,,,,,2,,,,,,,,low,24,0,24,0,1,,,,,,,,,
292690,2022-12-05_15h10.33.057,vts_reward_expectancy_bt,2022.2.4,Win32,234.1920375,Chrome,1920,1080,,,,,0,895,,,,,,,,,,,,,,,,,125,D,star,0,1,,,,,,,,,,,,,,,,switch,number,NA,f,0.1126,Hi,,,,,,2,,,,,,,,low,25,0,25,0,1,,,,,,,,,
292690,2022-12-05_15h10.33.057,vts_reward_expectancy_bt,2022.2.4,Win32,234.1920375,Chrome,1920,1080,,,,,1,896,,,,,,,,,,,,,,,,,132,U,triangle,1,1,,,,,,,,,,,,,,,,repeat,number,numRpt,d,0.7296,Lo,,,,,,2,,,,,,,,low,26,0,26,0,1,,,,,,,,,
292690,2022-12-05_15h10.33.057,vts_reward_expectancy_bt,2022.2.4,Win32,234.1920375,Chrome,1920,1080,,,,,0,896,,,,,,,,,,,,,,,,,181,W,hexagon,1,0,,,,,,,,,,,,,,,,switch,letter,lettSwt,k,0.7048,Hi,,,,,,2,,,,,,,,low,27,0,27,0,1,,,,,,,,,
292690,2022-12-05_15h10.33.057,vts_reward_expectancy_bt,2022.2.4,Win32,234.1920375,Chrome,1920,1080,,,,,0,896,,,,,,,,,,,,,,,,,146,B,star,1,0,,,,,,,,,,,,,,,,switch,number,numSwt,d,0.6142,Hi,,,,,,2,,,,,,,,low,28,0,28,0,1,,,,,,,,,
292690,2022-12-05_15h10.33.057,vts_reward_expectancy_bt,2022.2.4,Win32,234.1920375,Chrome,1920,1080,,,,,0,896,,,,,,,,,,,,,,,,,167,Y,hexagon,1,0,,,,,,,,,,,,,,,,repeat,number,numRpt,f,0.6704,Hi,,,,,,2,,,,,,,,low,29,0,29,0,1,,,,,,,,,
292690,2022-12-05_15h10.33.057,vts_reward_expectancy_bt,2022.2.4,Win32,234.1920375,Chrome,1920,1080,,,,,1,897,,,,,,,,,,,,,,,,,160,S,triangle,1,0,,,,,,,,,,,,,,,,repeat,number,numRpt,f,0.4138,Lo,,,,,,2,,,,,,,,low,30,0,30,0,1,,,,,,,,,
292690,2022-12-05_15h10.33.057,vts_reward_expectancy_bt,2022.2.4,Win32,234.1920375,Chrome,1920,1080,,,,,1,898,,,,,,,,,,,,,,,,,139,H,circle,1,0,,,,,,,,,,,,,,,,switch,letter,lettSwt,j,0.4511,Lo,,,,,,2,,,,,,,,low,31,0,31,0,1,,,,,,,,,
292690,2022-12-05_15h10.33.057,vts_reward_expectancy_bt,2022.2.4,Win32,234.1920375,Chrome,1920,1080,,,,,0,898,,,,,,,,,,,,,,,,,139,H,hexagon,0,0,,,,,,,,,,,,,,,,switch,number,NA,f,0.7167,Lo,,,,,,3,,,,,,space,2.1541,low,0,0,0,0,1,,,,,,,,,
292690,2022-12-05_15h10.33.057,vts_reward_expectancy_bt,2022.2.4,Win32,234.1920375,Chrome,1920,1080,,,,,10,908,,,,,,,,,,,,,,,,,160,B,triangle,1,1,,,,,,,,,,,,,,,,repeat,number,numRpt,f,0.7314,Lo,,,,,,3,,,,,,,,low,1,0,1,0,1,,,,,,,,,
292690,2022-12-05_15h10.33.057,vts_reward_expectancy_bt,2022.2.4,Win32,234.1920375,Chrome,1920,1080,,,,,0,908,,,,,,,,,,,,,,,,,125,S,star,1,0,,,,,,,,,,,,,,,,repeat,number,numRpt,d,0.635,Hi,,,,,,3,,,,,,,,low,2,0,2,0,1,,,,,,,,,
292690,2022-12-05_15h10.33.057,vts_reward_expectancy_bt,2022.2.4,Win32,234.1920375,Chrome,1920,1080,,,,,0,908,,,,,,,,,,,,,,,,,167,U,circle,0,0,,,,,,,,,,,,,,,,switch,letter,NA,j,0.067,Hi,,,,,,3,,,,,,,,low,3,0,3,0,1,,,,,,,,,
292690,2022-12-05_15h10.33.057,vts_reward_expectancy_bt,2022.2.4,Win32,234.1920375,Chrome,1920,1080,,,,,1,909,,,,,,,,,,,,,,,,,181,W,hexagon,1,1,,,,,,,,,,,,,,,,switch,number,numSwt,f,0.054,Hi,,,,,,3,,,,,,,,low,4,0,4,0,1,,,,,,,,,
292690,2022-12-05_15h10.33.057,vts_reward_expectancy_bt,2022.2.4,Win32,234.1920375,Chrome,1920,1080,,,,,0,909,,,,,,,,,,,,,,,,,146,F,triangle,0,0,,,,,,,,,,,,,,,,switch,letter,NA,k,0.0002,Hi,,,,,,3,,,,,,,,low,5,0,5,0,1,,,,,,,,,
292690,2022-12-05_15h10.33.057,vts_reward_expectancy_bt,2022.2.4,Win32,234.1920375,Chrome,1920,1080,,,,,0,909,,,,,,,,,,,,,,,,,132,D,star,1,1,,,,,,,,,,,,,,,,switch,number,numSwt,d,0.4672,Hi,,,,,,3,,,,,,,,low,6,0,6,0,1,,,,,,,,,
292690,2022-12-05_15h10.33.057,vts_reward_expectancy_bt,2022.2.4,Win32,234.1920375,Chrome,1920,1080,,,,,0,909,,,,,,,,,,,,,,,,,174,Y,circle,0,0,,,,,,,,,,,,,,,,repeat,number,NA,d,0.2671,Hi,,,,,,3,,,,,,,,low,7,0,7,0,1,,,,,,,,,
292690,2022-12-05_15h10.33.057,vts_reward_expectancy_bt,2022.2.4,Win32,234.1920375,Chrome,1920,1080,,,,,1,910,,,,,,,,,,,,,,,,,139,H,star,1,1,,,,,,,,,,,,,,,,repeat,number,numRpt,d,0.1929,Hi,,,,,,3,,,,,,,,low,8,0,8,0,1,,,,,,,,,
292690,2022-12-05_15h10.33.057,vts_reward_expectancy_bt,2022.2.4,Win32,234.1920375,Chrome,1920,1080,,,,,0,910,,,,,,,,,,,,,,,,,160,B,circle,0,0,,,,,,,,,,,,,,,,repeat,number,NA,d,0.1772,Hi,,,,,,3,,,,,,,,low,9,0,9,0,1,,,,,,,,,
292690,2022-12-05_15h10.33.057,vts_reward_expectancy_bt,2022.2.4,Win32,234.1920375,Chrome,1920,1080,,,,,10,920,,,,,,,,,,,,,,,,,125,S,triangle,1,1,,,,,,,,,,,,,,,,repeat,number,numRpt,d,0.6907,Lo,,,,,,3,,,,,,,,low,10,0,10,0,1,,,,,,,,,
292690,2022-12-05_15h10.33.057,vts_reward_expectancy_bt,2022.2.4,Win32,234.1920375,Chrome,1920,1080,,,,,0,920,,,,,,,,,,,,,,,,,167,U,hexagon,1,0,,,,,,,,,,,,,,,,switch,letter,lettSwt,k,0.6103,Hi,,,,,,3,,,,,,,,low,11,0,11,0,1,,,,,,,,,
292690,2022-12-05_15h10.33.057,vts_reward_expectancy_bt,2022.2.4,Win32,234.1920375,Chrome,1920,1080,,,,,1,921,,,,,,,,,,,,,,,,,181,W,triangle,1,0,,,,,,,,,,,,,,,,repeat,letter,lettRpt,k,0.5683,Lo,,,,,,3,,,,,,,,low,12,0,12,0,1,,,,,,,,,
292690,2022-12-05_15h10.33.057,vts_reward_expectancy_bt,2022.2.4,Win32,234.1920375,Chrome,1920,1080,,,,,10,931,,,,,,,,,,,,,,,,,146,F,circle,1,0,,,,,,,,,,,,,,,,repeat,letter,lettRpt,j,0.7452,Lo,,,,,,3,,,,,,,,low,13,0,13,0,1,,,,,,,,,
292690,2022-12-05_15h10.33.057,vts_reward_expectancy_bt,2022.2.4,Win32,234.1920375,Chrome,1920,1080,,,,,0,931,,,,,,,,,,,,,,,,,132,D,star,0,0,,,,,,,,,,,,,,,,repeat,letter,NA,k,0.6755,Lo,,,,,,3,,,,,,,,low,14,0,14,0,1,,,,,,,,,
292690,2022-12-05_15h10.33.057,vts_reward_expectancy_bt,2022.2.4,Win32,234.1920375,Chrome,1920,1080,,,,,0,931,,,,,,,,,,,,,,,,,174,Y,hexagon,1,1,,,,,,,,,,,,,,,,repeat,letter,lettRpt,k,0.7059,Hi,,,,,,3,,,,,,,,low,15,0,15,0,1,,,,,,,,,
292690,2022-12-05_15h10.33.057,vts_reward_expectancy_bt,2022.2.4,Win32,234.1920375,Chrome,1920,1080,,,,,0,931,,,,,,,,,,,,,,,,,167,B,star,1,0,,,,,,,,,,,,,,,,repeat,letter,lettRpt,j,0.7782,Hi,,,,,,3,,,,,,,,low,16,0,16,0,1,,,,,,,,,
292690,2022-12-05_15h10.33.057,vts_reward_expectancy_bt,2022.2.4,Win32,234.1920375,Chrome,1920,1080,,,,,1,932,,,,,,,,,,,,,,,,,146,W,circle,1,0,,,,,,,,,,,,,,,,switch,number,numSwt,d,0.4778,Lo,,,,,,3,,,,,,,,low,17,0,17,0,1,,,,,,,,,
292690,2022-12-05_15h10.33.057,vts_reward_expectancy_bt,2022.2.4,Win32,234.1920375,Chrome,1920,1080,,,,,0,932,,,,,,,,,,,,,,,,,139,H,hexagon,1,0,,,,,,,,,,,,,,,,switch,letter,lettSwt,j,0.5632,Hi,,,,,,3,,,,,,,,low,18,0,18,0,1,,,,,,,,,
292690,2022-12-05_15h10.33.057,vts_reward_expectancy_bt,2022.2.4,Win32,234.1920375,Chrome,1920,1080,,,,,10,942,,,,,,,,,,,,,,,,,125,D,triangle,1,0,,,,,,,,,,,,,,,,switch,number,numSwt,d,0.4306,Lo,,,,,,3,,,,,,,,low,19,0,19,0,1,,,,,,,,,
292690,2022-12-05_15h10.33.057,vts_reward_expectancy_bt,2022.2.4,Win32,234.1920375,Chrome,1920,1080,,,,,1,943,,,,,,,,,,,,,,,,,160,U,triangle,1,0,,,,,,,,,,,,,,,,switch,letter,lettSwt,k,0.5383,Lo,,,,,,3,,,,,,,,low,20,0,20,0,1,,,,,,,,,
292690,2022-12-05_15h10.33.057,vts_reward_expectancy_bt,2022.2.4,Win32,234.1920375,Chrome,1920,1080,,,,,0,943,,,,,,,,,,,,,,,,,132,Y,star,1,0,,,,,,,,,,,,,,,,repeat,letter,lettRpt,k,0.4801,Hi,,,,,,3,,,,,,,,low,21,0,21,0,1,,,,,,,,,
292690,2022-12-05_15h10.33.057,vts_reward_expectancy_bt,2022.2.4,Win32,234.1920375,Chrome,1920,1080,,,,,10,953,,,,,,,,,,,,,,,,,174,F,circle,1,0,,,,,,,,,,,,,,,,repeat,letter,lettRpt,j,0.7313,Lo,,,,,,3,,,,,,,,low,22,0,22,0,1,,,,,,,,,
292690,2022-12-05_15h10.33.057,vts_reward_expectancy_bt,2022.2.4,Win32,234.1920375,Chrome,1920,1080,,,,,0,953,,,,,,,,,,,,,,,,,181,S,hexagon,1,0,,,,,,,,,,,,,,,,repeat,letter,lettRpt,k,0.5036,Hi,,,,,,3,,,,,,,,low,23,0,23,0,1,,,,,,,,,
292690,2022-12-05_15h10.33.057,vts_reward_expectancy_bt,2022.2.4,Win32,234.1920375,Chrome,1920,1080,,,,,0,953,,,,,,,,,,,,,,,,,174,W,star,1,0,,,,,,,,,,,,,,,,switch,number,numSwt,f,0.5765,Hi,,,,,,3,,,,,,,,low,24,0,24,0,1,,,,,,,,,
292690,2022-12-05_15h10.33.057,vts_reward_expectancy_bt,2022.2.4,Win32,234.1920375,Chrome,1920,1080,,,,,10,963,,,,,,,,,,,,,,,,,167,D,circle,1,0,,,,,,,,,,,,,,,,repeat,number,numRpt,f,0.526,Lo,,,,,,3,,,,,,,,low,25,0,25,0,1,,,,,,,,,
292690,2022-12-05_15h10.33.057,vts_reward_expectancy_bt,2022.2.4,Win32,234.1920375,Chrome,1920,1080,,,,,10,973,,,,,,,,,,,,,,,,,139,H,hexagon,1,0,,,,,,,,,,,,,,,,repeat,number,numRpt,d,0.4005,Hi,,,,,,3,,,,,,,,low,26,0,26,0,1,,,,,,,,,
292690,2022-12-05_15h10.33.057,vts_reward_expectancy_bt,2022.2.4,Win32,234.1920375,Chrome,1920,1080,,,,,10,983,,,,,,,,,,,,,,,,,181,U,triangle,1,0,,,,,,,,,,,,,,,,switch,letter,lettSwt,k,0.4674,Lo,,,,,,3,,,,,,,,low,27,0,27,0,1,,,,,,,,,
292690,2022-12-05_15h10.33.057,vts_reward_expectancy_bt,2022.2.4,Win32,234.1920375,Chrome,1920,1080,,,,,0,983,,,,,,,,,,,,,,,,,132,Y,star,1,0,,,,,,,,,,,,,,,,repeat,letter,lettRpt,k,0.5173,Hi,,,,,,3,,,,,,,,low,28,0,28,0,1,,,,,,,,,
292690,2022-12-05_15h10.33.057,vts_reward_expectancy_bt,2022.2.4,Win32,234.1920375,Chrome,1920,1080,,,,,0,983,,,,,,,,,,,,,,,,,146,F,circle,0,0,,,,,,,,,,,,,,,,switch,number,NA,f,0.9038,Hi,,,,,,3,,,,,,,,low,29,0,29,0,1,,,,,,,,,
292690,2022-12-05_15h10.33.057,vts_reward_expectancy_bt,2022.2.4,Win32,234.1920375,Chrome,1920,1080,,,,,10,993,,,,,,,,,,,,,,,,,125,S,triangle,1,1,,,,,,,,,,,,,,,,repeat,number,numRpt,d,0.4947,Lo,,,,,,3,,,,,,,,low,30,0,30,0,1,,,,,,,,,
292690,2022-12-05_15h10.33.057,vts_reward_expectancy_bt,2022.2.4,Win32,234.1920375,Chrome,1920,1080,,,,,0,993,,,,,,,,,,,,,,,,,160,B,hexagon,0,0,,,,,,,,,,,,,,,,switch,letter,NA,k,0.5276,Lo,,,,,,3,,,,,,,,low,31,0,31,0,1,,,,,,,,,
292690,2022-12-05_15h10.33.057,vts_reward_expectancy_bt,2022.2.4,Win32,234.1920375,Chrome,1920,1080,,,,,1,994,,,,,,,,,,,,,,,,,160,S,circle,1,1,,,,,,,,,,,,,,,,repeat,letter,lettRpt,k,1.0954,Lo,,,,,,4,,,,,,space,2.1924,low,0,0,0,0,1,,,,,,,,,
292690,2022-12-05_15h10.33.057,vts_reward_expectancy_bt,2022.2.4,Win32,234.1920375,Chrome,1920,1080,,,,,1,995,,,,,,,,,,,,,,,,,181,U,triangle,1,0,,,,,,,,,,,,,,,,repeat,letter,lettRpt,k,0.5081,Lo,,,,,,4,,,,,,,,low,1,0,1,0,1,,,,,,,,,
292690,2022-12-05_15h10.33.057,vts_reward_expectancy_bt,2022.2.4,Win32,234.1920375,Chrome,1920,1080,,,,,0,995,,,,,,,,,,,,,,,,,174,H,hexagon,1,0,,,,,,,,,,,,,,,,switch,number,numSwt,f,0.6487,Hi,,,,,,4,,,,,,,,low,2,0,2,0,1,,,,,,,,,
292690,2022-12-05_15h10.33.057,vts_reward_expectancy_bt,2022.2.4,Win32,234.1920375,Chrome,1920,1080,,,,,0,995,,,,,,,,,,,,,,,,,125,D,star,0,0,,,,,,,,,,,,,,,,repeat,number,NA,f,0.3085,Hi,,,,,,4,,,,,,,,low,3,0,3,0,1,,,,,,,,,
292690,2022-12-05_15h10.33.057,vts_reward_expectancy_bt,2022.2.4,Win32,234.1920375,Chrome,1920,1080,,,,,1,996,,,,,,,,,,,,,,,,,132,F,circle,1,1,,,,,,,,,,,,,,,,repeat,number,numRpt,d,0.7539,Lo,,,,,,4,,,,,,,,low,4,0,4,0,1,,,,,,,,,
292690,2022-12-05_15h10.33.057,vts_reward_expectancy_bt,2022.2.4,Win32,234.1920375,Chrome,1920,1080,,,,,10,1006,,,,,,,,,,,,,,,,,167,B,triangle,1,0,,,,,,,,,,,,,,,,repeat,number,numRpt,f,1.6067,Lo,,,,,,4,,,,,,,,low,5,0,5,0,1,,,,,,,,,
292690,2022-12-05_15h10.33.057,vts_reward_expectancy_bt,2022.2.4,Win32,234.1920375,Chrome,1920,1080,,,,,0,1006,,,,,,,,,,,,,,,,,146,W,hexagon,1,0,,,,,,,,,,,,,,,,repeat,number,numRpt,d,1.4319,Hi,,,,,,4,,,,,,,,low,6,0,6,0,1,,,,,,,,,
292690,2022-12-05_15h10.33.057,vts_reward_expectancy_bt,2022.2.4,Win32,234.1920375,Chrome,1920,1080,,,,,0,1006,,,,,,,,,,,,,,,,,139,Y,star,1,0,,,,,,,,,,,,,,,,switch,letter,lettSwt,k,0.7091,Hi,,,,,,4,,,,,,,,low,7,0,7,0,1,,,,,,,,,
292690,2022-12-05_15h10.33.057,vts_reward_expectancy_bt,2022.2.4,Win32,234.1920375,Chrome,1920,1080,,,,,0,1006,,,,,,,,,,,,,,,,,160,S,star,1,0,,,,,,,,,,,,,,,,repeat,letter,lettRpt,k,1.0384,Hi,,,,,,4,,,,,,,,low,8,0,8,0,1,,,,,,,,,
292690,2022-12-05_15h10.33.057,vts_reward_expectancy_bt,2022.2.4,Win32,234.1920375,Chrome,1920,1080,,,,,0,1006,,,,,,,,,,,,,,,,,181,U,hexagon,0,0,,,,,,,,,,,,,,,,switch,number,NA,d,0.8103,Hi,,,,,,4,,,,,,,,low,9,0,9,0,1,,,,,,,,,
292690,2022-12-05_15h10.33.057,vts_reward_expectancy_bt,2022.2.4,Win32,234.1920375,Chrome,1920,1080,,,,,1,1007,,,,,,,,,,,,,,,,,174,H,circle,1,1,,,,,,,,,,,,,,,,repeat,number,numRpt,f,0.647,Lo,,,,,,4,,,,,,,,low,10,0,10,0,1,,,,,,,,,
292690,2022-12-05_15h10.33.057,vts_reward_expectancy_bt,2022.2.4,Win32,234.1920375,Chrome,1920,1080,,,,,1,1008,,,,,,,,,,,,,,,,,125,D,triangle,1,0,,,,,,,,,,,,,,,,repeat,number,numRpt,d,1.0634,Lo,,,,,,4,,,,,,,,low,11,0,11,0,1,,,,,,,,,
292690,2022-12-05_15h10.33.057,vts_reward_expectancy_bt,2022.2.4,Win32,234.1920375,Chrome,1920,1080,,,,,0,1008,,,,,,,,,,,,,,,,,132,F,star,0,0,,,,,,,,,,,,,,,,switch,letter,NA,k,0.6408,Lo,,,,,,4,,,,,,,,low,12,0,12,0,1,,,,,,,,,
292690,2022-12-05_15h10.33.057,vts_reward_expectancy_bt,2022.2.4,Win32,234.1920375,Chrome,1920,1080,,,,,0,1008,,,,,,,,,,,,,,,,,167,B,triangle,0,1,,,,,,,,,,,,,,,,repeat,letter,NA,k,0.0459,Lo,,,,,,4,,,,,,,,low,13,0,13,0,1,,,,,,,,,
292690,2022-12-05_15h10.33.057,vts_reward_expectancy_bt,2022.2.4,Win32,234.1920375,Chrome,1920,1080,,,,,0,1008,,,,,,,,,,,,,,,,,146,W,circle,0,1,,,,,,,,,,,,,,,,switch,number,NA,f,0.1213,Lo,,,,,,4,,,,,,,,low,14,0,14,0,1,,,,,,,,,
292690,2022-12-05_15h10.33.057,vts_reward_expectancy_bt,2022.2.4,Win32,234.1920375,Chrome,1920,1080,,,,,0,1008,,,,,,,,,,,,,,,,,139,Y,hexagon,0,1,,,,,,,,,,,,,,,,switch,letter,NA,j,0.102,Lo,,,,,,4,,,,,,,,low,15,0,15,0,1,,,,,,,,,
292690,2022-12-05_15h10.33.057,vts_reward_expectancy_bt,2022.2.4,Win32,234.1920375,Chrome,1920,1080,,,,,0,1008,,,,,,,,,,,,,,,,,181,F,hexagon,1,1,,,,,,,,,,,,,,,,repeat,letter,lettRpt,j,1.1259,Hi,,,,,,4,,,,,,,,low,16,0,16,0,1,,,,,,,,,
292690,2022-12-05_15h10.33.057,vts_reward_expectancy_bt,2022.2.4,Win32,234.1920375,Chrome,1920,1080,,,,,1,1009,,,,,,,,,,,,,,,,,132,W,triangle,1,0,,,,,,,,,,,,,,,,switch,number,numSwt,d,0.6825,Lo,,,,,,4,,,,,,,,low,17,0,17,0,1,,,,,,,,,
292690,2022-12-05_15h10.33.057,vts_reward_expectancy_bt,2022.2.4,Win32,234.1920375,Chrome,1920,1080,,,,,1,1010,,,,,,,,,,,,,,,,,146,Y,circle,1,0,,,,,,,,,,,,,,,,repeat,number,numRpt,d,0.7191,Lo,,,,,,4,,,,,,,,low,18,0,18,0,1,,,,,,,,,
292690,2022-12-05_15h10.33.057,vts_reward_expectancy_bt,2022.2.4,Win32,234.1920375,Chrome,1920,1080,,,,,0,1010,,,,,,,,,,,,,,,,,167,H,star,0,0,,,,,,,,,,,,,,,,repeat,number,NA,d,0.1334,Lo,,,,,,4,,,,,,,,low,19,0,19,0,1,,,,,,,,,
292690,2022-12-05_15h10.33.057,vts_reward_expectancy_bt,2022.2.4,Win32,234.1920375,Chrome,1920,1080,,,,,0,1010,,,,,,,,,,,,,,,,,160,S,hexagon,1,1,,,,,,,,,,,,,,,,switch,letter,lettSwt,k,1.074,Hi,,,,,,4,,,,,,,,low,20,0,20,0,1,,,,,,,,,
292690,2022-12-05_15h10.33.057,vts_reward_expectancy_bt,2022.2.4,Win32,234.1920375,Chrome,1920,1080,,,,,0,1010,,,,,,,,,,,,,,,,,174,D,star,1,0,,,,,,,,,,,,,,,,repeat,letter,lettRpt,j,2.1056,Hi,,,,,,4,,,,,,,,low,21,0,21,0,1,,,,,,,,,
292690,2022-12-05_15h10.33.057,vts_reward_expectancy_bt,2022.2.4,Win32,234.1920375,Chrome,1920,1080,,,,,10,1020,,,,,,,,,,,,,,,,,125,B,circle,1,0,,,,,,,,,,,,,,,,repeat,letter,lettRpt,j,1.2463,Lo,,,,,,4,,,,,,,,low,22,0,22,0,1,,,,,,,,,
292690,2022-12-05_15h10.33.057,vts_reward_expectancy_bt,2022.2.4,Win32,234.1920375,Chrome,1920,1080,,,,,0,1020,,,,,,,,,,,,,,,,,139,U,triangle,0,0,,,,,,,,,,,,,,,,repeat,letter,NA,j,0.8261,Lo,,,,,,4,,,,,,,,low,23,0,23,0,1,,,,,,,,,
292690,2022-12-05_15h10.33.057,vts_reward_expectancy_bt,2022.2.4,Win32,234.1920375,Chrome,1920,1080,,,,,0,1020,,,,,,,,,,,,,,,,,132,W,hexagon,1,1,,,,,,,,,,,,,,,,repeat,letter,lettRpt,k,1.5391,Hi,,,,,,4,,,,,,,,low,24,0,24,0,1,,,,,,,,,
292690,2022-12-05_15h10.33.057,vts_reward_expectancy_bt,2022.2.4,Win32,234.1920375,Chrome,1920,1080,,,,,1,1021,,,,,,,,,,,,,,,,,160,F,circle,1,0,,,,,,,,,,,,,,,,switch,number,numSwt,f,0.5574,Lo,,,,,,4,,,,,,,,low,25,0,25,0,1,,,,,,,,,
292690,2022-12-05_15h10.33.057,vts_reward_expectancy_bt,2022.2.4,Win32,234.1920375,Chrome,1920,1080,,,,,1,1022,,,,,,,,,,,,,,,,,125,D,triangle,1,0,,,,,,,,,,,,,,,,switch,letter,lettSwt,j,0.8186,Lo,,,,,,4,,,,,,,,low,26,0,26,0,1,,,,,,,,,
292690,2022-12-05_15h10.33.057,vts_reward_expectancy_bt,2022.2.4,Win32,234.1920375,Chrome,1920,1080,,,,,0,1022,,,,,,,,,,,,,,,,,181,S,star,1,0,,,,,,,,,,,,,,,,switch,number,numSwt,f,0.628,Hi,,,,,,4,,,,,,,,low,27,0,27,0,1,,,,,,,,,
292690,2022-12-05_15h10.33.057,vts_reward_expectancy_bt,2022.2.4,Win32,234.1920375,Chrome,1920,1080,,,,,0,1022,,,,,,,,,,,,,,,,,167,U,circle,0,0,,,,,,,,,,,,,,,,repeat,number,NA,d,0.926,Hi,,,,,,4,,,,,,,,low,28,0,28,0,1,,,,,,,,,
292690,2022-12-05_15h10.33.057,vts_reward_expectancy_bt,2022.2.4,Win32,234.1920375,Chrome,1920,1080,,,,,0,1022,,,,,,,,,,,,,,,,,146,Y,hexagon,1,1,,,,,,,,,,,,,,,,switch,letter,lettSwt,k,0.5589,Hi,,,,,,4,,,,,,,,low,29,0,29,0,1,,,,,,,,,
292690,2022-12-05_15h10.33.057,vts_reward_expectancy_bt,2022.2.4,Win32,234.1920375,Chrome,1920,1080,,,,,0,1022,,,,,,,,,,,,,,,,,174,H,star,1,0,,,,,,,,,,,,,,,,switch,number,numSwt,f,0.5871,Hi,,,,,,4,,,,,,,,low,30,0,30,0,1,,,,,,,,,
292690,2022-12-05_15h10.33.057,vts_reward_expectancy_bt,2022.2.4,Win32,234.1920375,Chrome,1920,1080,,,,,1,1023,,,,,,,,,,,,,,,,,139,B,triangle,1,0,,,,,,,,,,,,,,,,repeat,number,numRpt,d,0.7011,Lo,,,,,,4,,,,,,,,low,31,0,31,0,1,,,,,,,,,
292690,2022-12-05_15h10.33.057,vts_reward_expectancy_bt,2022.2.4,Win32,234.1920375,Chrome,1920,1080,,,,,1,1024,,,,,,,,,,,,,,,,,139,S,circle,1,0,,,,,,,,,,,,,,,,switch,letter,lettSwt,k,0.7959,Lo,,,,,,5,,,,,,space,1.0988,low,0,0,0,0,1,,,,,,,,,
292690,2022-12-05_15h10.33.057,vts_reward_expectancy_bt,2022.2.4,Win32,234.1920375,Chrome,1920,1080,,,,,10,1034,,,,,,,,,,,,,,,,,181,U,triangle,1,0,,,,,,,,,,,,,,,,switch,number,numSwt,f,0.6415,Lo,,,,,,5,,,,,,,,low,1,0,1,0,1,,,,,,,,,
292690,2022-12-05_15h10.33.057,vts_reward_expectancy_bt,2022.2.4,Win32,234.1920375,Chrome,1920,1080,,,,,1,1035,,,,,,,,,,,,,,,,,125,D,star,1,0,,,,,,,,,,,,,,,,repeat,number,numRpt,d,0.6967,Hi,,,,,,5,,,,,,,,low,2,0,2,0,1,,,,,,,,,
292690,2022-12-05_15h10.33.057,vts_reward_expectancy_bt,2022.2.4,Win32,234.1920375,Chrome,1920,1080,,,,,0,1035,,,,,,,,,,,,,,,,,132,H,hexagon,1,0,,,,,,,,,,,,,,,,switch,letter,lettSwt,j,0.8548,Hi,,,,,,5,,,,,,,,low,3,0,3,0,1,,,,,,,,,
292690,2022-12-05_15h10.33.057,vts_reward_expectancy_bt,2022.2.4,Win32,234.1920375,Chrome,1920,1080,,,,,1,1036,,,,,,,,,,,,,,,,,146,W,circle,1,0,,,,,,,,,,,,,,,,switch,number,numSwt,d,0.5535,Lo,,,,,,5,,,,,,,,low,4,0,4,0,1,,,,,,,,,
292690,2022-12-05_15h10.33.057,vts_reward_expectancy_bt,2022.2.4,Win32,234.1920375,Chrome,1920,1080,,,,,1,1037,,,,,,,,,,,,,,,,,174,F,triangle,1,0,,,,,,,,,,,,,,,,switch,letter,lettSwt,j,0.8724,Lo,,,,,,5,,,,,,,,low,5,0,5,0,1,,,,,,,,,
292690,2022-12-05_15h10.33.057,vts_reward_expectancy_bt,2022.2.4,Win32,234.1920375,Chrome,1920,1080,,,,,0,1037,,,,,,,,,,,,,,,,,167,B,star,0,0,,,,,,,,,,,,,,,,switch,number,NA,d,0.6178,Lo,,,,,,5,,,,,,,,low,6,0,6,0,1,,,,,,,,,
292690,2022-12-05_15h10.33.057,vts_reward_expectancy_bt,2022.2.4,Win32,234.1920375,Chrome,1920,1080,,,,,0,1037,,,,,,,,,,,,,,,,,160,Y,hexagon,1,1,,,,,,,,,,,,,,,,repeat,number,numRpt,f,0.7972,Hi,,,,,,5,,,,,,,,low,7,0,7,0,1,,,,,,,,,
292690,2022-12-05_15h10.33.057,vts_reward_expectancy_bt,2022.2.4,Win32,234.1920375,Chrome,1920,1080,,,,,0,1037,,,,,,,,,,,,,,,,,139,S,hexagon,0,0,,,,,,,,,,,,,,,,switch,letter,NA,j,0.8098,Hi,,,,,,5,,,,,,,,low,8,0,8,0,1,,,,,,,,,
292690,2022-12-05_15h10.33.057,vts_reward_expectancy_bt,2022.2.4,Win32,234.1920375,Chrome,1920,1080,,,,,10,1047,,,,,,,,,,,,,,,,,181,U,star,1,1,,,,,,,,,,,,,,,,switch,number,numSwt,f,0.5618,Hi,,,,,,5,,,,,,,,low,9,0,9,0,1,,,,,,,,,
292690,2022-12-05_15h10.33.057,vts_reward_expectancy_bt,2022.2.4,Win32,234.1920375,Chrome,1920,1080,,,,,1,1048,,,,,,,,,,,,,,,,,125,D,triangle,1,0,,,,,,,,,,,,,,,,switch,letter,lettSwt,j,0.7494,Lo,,,,,,5,,,,,,,,low,10,0,10,0,1,,,,,,,,,
292690,2022-12-05_15h10.33.057,vts_reward_expectancy_bt,2022.2.4,Win32,234.1920375,Chrome,1920,1080,,,,,1,1049,,,,,,,,,,,,,,,,,132,H,circle,1,0,,,,,,,,,,,,,,,,repeat,letter,lettRpt,j,0.8526,Lo,,,,,,5,,,,,,,,low,11,0,11,0,1,,,,,,,,,
292690,2022-12-05_15h10.33.057,vts_reward_expectancy_bt,2022.2.4,Win32,234.1920375,Chrome,1920,1080,,,,,1,1050,,,,,,,,,,,,,,,,,146,W,triangle,1,0,,,,,,,,,,,,,,,,repeat,letter,lettRpt,k,0.884,Lo,,,,,,5,,,,,,,,low,12,0,12,0,1,,,,,,,,,
292690,2022-12-05_15h10.33.057,vts_reward_expectancy_bt,2022.2.4,Win32,234.1920375,Chrome,1920,1080,,,,,0,1050,,,,,,,,,,,,,,,,,174,F,hexagon,1,0,,,,,,,,,,,,,,,,switch,number,numSwt,f,0.631,Hi,,,,,,5,,,,,,,,low,13,0,13,0,1,,,,,,,,,
292690,2022-12-05_15h10.33.057,vts_reward_expectancy_bt,2022.2.4,Win32,234.1920375,Chrome,1920,1080,,,,,0,1050,,,,,,,,,,,,,,,,,167,B,star,1,0,,,,,,,,,,,,,,,,switch,letter,lettSwt,j,0.8966,Hi,,,,,,5,,,,,,,,low,14,0,14,0,1,,,,,,,,,
292690,2022-12-05_15h10.33.057,vts_reward_expectancy_bt,2022.2.4,Win32,234.1920375,Chrome,1920,1080,,,,,10,1060,,,,,,,,,,,,,,,,,160,Y,circle,1,0,,,,,,,,,,,,,,,,repeat,letter,lettRpt,k,1.8351,Lo,,,,,,5,,,,,,,,low,15,0,15,0,1,,,,,,,,,
292690,2022-12-05_15h10.33.057,vts_reward_expectancy_bt,2022.2.4,Win32,234.1920375,Chrome,1920,1080,,,,,10,1070,,,,,,,,,,,,,,,,,139,D,circle,1,0,,,,,,,,,,,,,,,,switch,number,numSwt,d,0.6161,Lo,,,,,,5,,,,,,,,low,16,0,16,0,1,,,,,,,,,
292690,2022-12-05_15h10.33.057,vts_reward_expectancy_bt,2022.2.4,Win32,234.1920375,Chrome,1920,1080,,,,,0,1070,,,,,,,,,,,,,,,,,181,F,star,0,0,,,,,,,,,,,,,,,,switch,letter,NA,k,0.5504,Lo,,,,,,5,,,,,,,,low,17,0,17,0,1,,,,,,,,,
292690,2022-12-05_15h10.33.057,vts_reward_expectancy_bt,2022.2.4,Win32,234.1920375,Chrome,1920,1080,,,,,1,1071,,,,,,,,,,,,,,,,,125,W,triangle,1,1,,,,,,,,,,,,,,,,switch,number,numSwt,d,0.756,Lo,,,,,,5,,,,,,,,low,18,0,18,0,1,,,,,,,,,
292690,2022-12-05_15h10.33.057,vts_reward_expectancy_bt,2022.2.4,Win32,234.1920375,Chrome,1920,1080,,,,,0,1071,,,,,,,,,,,,,,,,,167,B,hexagon,1,0,,,,,,,,,,,,,,,,repeat,number,numRpt,f,0.7935,Hi,,,,,,5,,,,,,,,low,19,0,19,0,1,,,,,,,,,
292690,2022-12-05_15h10.33.057,vts_reward_expectancy_bt,2022.2.4,Win32,234.1920375,Chrome,1920,1080,,,,,10,1081,,,,,,,,,,,,,,,,,146,H,star,1,0,,,,,,,,,,,,,,,,repeat,number,numRpt,d,0.6677,Hi,,,,,,5,,,,,,,,low,20,0,20,0,1,,,,,,,,,
292690,2022-12-05_15h10.33.057,vts_reward_expectancy_bt,2022.2.4,Win32,234.1920375,Chrome,1920,1080,,,,,1,1082,,,,,,,,,,,,,,,,,160,U,hexagon,1,0,,,,,,,,,,,,,,,,switch,letter,lettSwt,k,0.4838,Hi,,,,,,5,,,,,,,,low,21,0,21,0,1,,,,,,,,,
292690,2022-12-05_15h10.33.057,vts_reward_expectancy_bt,2022.2.4,Win32,234.1920375,Chrome,1920,1080,,,,,1,1083,,,,,,,,,,,,,,,,,132,Y,triangle,1,0,,,,,,,,,,,,,,,,switch,number,numSwt,d,0.5464,Lo,,,,,,5,,,,,,,,low,22,0,22,0,1,,,,,,,,,
292690,2022-12-05_15h10.33.057,vts_reward_expectancy_bt,2022.2.4,Win32,234.1920375,Chrome,1920,1080,,,,,10,1093,,,,,,,,,,,,,,,,,174,S,circle,1,0,,,,,,,,,,,,,,,,switch,letter,lettSwt,k,0.8934,Lo,,,,,,5,,,,,,,,low,23,0,23,0,1,,,,,,,,,
292690,2022-12-05_15h10.33.057,vts_reward_expectancy_bt,2022.2.4,Win32,234.1920375,Chrome,1920,1080,,,,,10,1103,,,,,,,,,,,,,,,,,146,D,hexagon,1,0,,,,,,,,,,,,,,,,repeat,letter,lettRpt,j,0.5807,Hi,,,,,,5,,,,,,,,low,24,0,24,0,1,,,,,,,,,
292690,2022-12-05_15h10.33.057,vts_reward_expectancy_bt,2022.2.4,Win32,234.1920375,Chrome,1920,1080,,,,,1,1104,,,,,,,,,,,,,,,,,125,B,circle,1,0,,,,,,,,,,,,,,,,repeat,letter,lettRpt,j,0.6784,Lo,,,,,,5,,,,,,,,low,25,0,25,0,1,,,,,,,,,
292690,2022-12-05_15h10.33.057,vts_reward_expectancy_bt,2022.2.4,Win32,234.1920375,Chrome,1920,1080,,,,,1,1105,,,,,,,,,,,,,,,,,167,F,star,1,0,,,,,,,,,,,,,,,,repeat,letter,lettRpt,j,1.0452,Hi,,,,,,5,,,,,,,,low,26,0,26,0,1,,,,,,,,,
292690,2022-12-05_15h10.33.057,vts_reward_expectancy_bt,2022.2.4,Win32,234.1920375,Chrome,1920,1080,,,,,0,1105,,,,,,,,,,,,,,,,,174,W,triangle,0,0,,,,,,,,,,,,,,,,repeat,letter,NA,j,1.2141,Hi,,,,,,5,,,,,,,,low,27,0,27,0,1,,,,,,,,,
292690,2022-12-05_15h10.33.057,vts_reward_expectancy_bt,2022.2.4,Win32,234.1920375,Chrome,1920,1080,,,,,0,1105,,,,,,,,,,,,,,,,,160,S,hexagon,1,1,,,,,,,,,,,,,,,,repeat,letter,lettRpt,k,1.268,Hi,,,,,,5,,,,,,,,low,28,0,28,0,1,,,,,,,,,
292690,2022-12-05_15h10.33.057,vts_reward_expectancy_bt,2022.2.4,Win32,234.1920375,Chrome,1920,1080,,,,,1,1106,,,,,,,,,,,,,,,,,139,H,triangle,1,0,,,,,,,,,,,,,,,,switch,number,numSwt,d,0.9104,Lo,,,,,,5,,,,,,,,low,29,0,29,0,1,,,,,,,,,
