participant,date,expName,psychopyVersion,OS,frameRate,browser,xResolution,yResolution,key_resp.keys,key_resp.rt,training_resp.keys,training_resp.rt,points_trial,points_cumul,trainBlock,training.thisRepN,training.thisTrialN,training.thisN,training.thisIndex,training.ran,LTriangleOpac,LCircleOpac,LHexagonOpac,LStarOpac,RTriangleOpac,RCircleOpac,RHexagonOpac,RStarOpac,LShape_ID,RShape_ID,curr_topStim,curr_bottStim,curr_shape,acc,E1,target_resp_prac1.keys,target_resp_prac1.rt,pracBlock,task1_prac_trials.thisRepN,task1_prac_trials.thisTrialN,task1_prac_trials.thisN,task1_prac_trials.thisIndex,task1_prac_trials.ran,target_resp_prac2.keys,target_resp_prac2.rt,task2_praac_trials.thisRepN,task2_praac_trials.thisTrialN,task2_praac_trials.thisN,task2_praac_trials.thisIndex,task2_praac_trials.ran,alt,task,condition,target_resp.keys,target_resp.rt,rewCond,vts_practice_trials.thisRepN,vts_practice_trials.thisTrialN,vts_practice_trials.thisN,vts_practice_trials.thisIndex,vts_practice_trials.ran,blockNum,trials_norew.thisRepN,trials_norew.thisTrialN,trials_norew.thisN,trials_norew.thisIndex,trials_norew.ran,key_resp_2.keys,key_resp_2.rt,rewExpectancy,trials_rew.thisRepN,trials_rew.thisTrialN,trials_rew.thisN,trials_rew.thisIndex,trials_rew.ran,Q1,Q2,Q2_text,Q3,Q4,Q5_text,Q5,xRes,yRes
292786,2022-12-01_00h22.15.315,vts_reward_expectancy_bt,2022.2.4,MacIntel,58.82352941,Safari,1470,956,,,,,,,,,,,,,,,,,,,,,,,,,,,,,,,,,,,,,,,,,,,,,,,,,,,,,,,,,,,,,,,,,,,,,,,,,,,,
292786,2022-12-01_00h22.15.315,vts_reward_expectancy_bt,2022.2.4,MacIntel,58.82352941,Safari,1470,956,space,79.919,,,,,,,,,,,,,,,,,,,,,,,,,,,,,,,,,,,,,,,,,,,,,,,,,,,,,,,,,,,,,,,,,,,,,,,,,,
292786,2022-12-01_00h22.15.315,vts_reward_expectancy_bt,2022.2.4,MacIntel,58.82352941,Safari,1470,956,,,,,,,,,,,,,,,,,,,,,,,,,,,,,,,,,,,,,,,,,,,,,,,,,,,,,,,,,,,,,,,,,,,,,,,,,,,,
292786,2022-12-01_00h22.15.315,vts_reward_expectancy_bt,2022.2.4,MacIntel,58.82352941,Safari,1470,956,,,a,0.676,10,10,0,0,0,0,0,1,1,0,0,0,0,1,0,0,triangle,circle,,,,,,,,,,,,,,,,,,,,,,,,,,,,,,,,,,,,,,,,,,,,,,,,,,,,,,
292786,2022-12-01_00h22.15.315,vts_reward_expectancy_bt,2022.2.4,MacIntel,58.82352941,Safari,1470,956,,,l,1.062,1,11,0,0,1,1,11,1,0,0,0,1,0,0,1,0,star,hexagon,,,,,,,,,,,,,,,,,,,,,,,,,,,,,,,,,,,,,,,,,,,,,,,,,,,,,,
292786,2022-12-01_00h22.15.315,vts_reward_expectancy_bt,2022.2.4,MacIntel,58.82352941,Safari,1470,956,,,l,1.244,1,12,0,0,2,2,1,1,1,0,0,0,0,0,1,0,triangle,hexagon,,,,,,,,,,,,,,,,,,,,,,,,,,,,,,,,,,,,,,,,,,,,,,,,,,,,,,
292786,2022-12-01_00h22.15.315,vts_reward_expectancy_bt,2022.2.4,MacIntel,58.82352941,Safari,1470,956,,,a,0.76,10,22,0,0,3,3,7,1,0,0,1,0,0,1,0,0,hexagon,circle,,,,,,,,,,,,,,,,,,,,,,,,,,,,,,,,,,,,,,,,,,,,,,,,,,,,,,
292786,2022-12-01_00h22.15.315,vts_reward_expectancy_bt,2022.2.4,MacIntel,58.82352941,Safari,1470,956,,,a,0.65,10,32,0,0,4,4,9,1,0,0,0,1,1,0,0,0,star,triangle,,,,,,,,,,,,,,,,,,,,,,,,,,,,,,,,,,,,,,,,,,,,,,,,,,,,,,
292786,2022-12-01_00h22.15.315,vts_reward_expectancy_bt,2022.2.4,MacIntel,58.82352941,Safari,1470,956,,,a,0.646,10,42,0,0,5,5,10,1,0,0,0,1,0,1,0,0,star ,circle,,,,,,,,,,,,,,,,,,,,,,,,,,,,,,,,,,,,,,,,,,,,,,,,,,,,,,
292786,2022-12-01_00h22.15.315,vts_reward_expectancy_bt,2022.2.4,MacIntel,58.82352941,Safari,1470,956,,,l,1.18,10,52,0,0,6,6,2,1,1,0,0,0,0,0,0,1,triangle,star,,,,,,,,,,,,,,,,,,,,,,,,,,,,,,,,,,,,,,,,,,,,,,,,,,,,,,
292786,2022-12-01_00h22.15.315,vts_reward_expectancy_bt,2022.2.4,MacIntel,58.82352941,Safari,1470,956,,,l,0.746,1,53,0,0,7,7,5,1,0,1,0,0,0,0,0,1,circle,star,,,,,,,,,,,,,,,,,,,,,,,,,,,,,,,,,,,,,,,,,,,,,,,,,,,,,,
292786,2022-12-01_00h22.15.315,vts_reward_expectancy_bt,2022.2.4,MacIntel,58.82352941,Safari,1470,956,,,l,2.255,10,63,0,0,8,8,8,1,0,0,1,0,0,0,0,1,hexagon,star,,,,,,,,,,,,,,,,,,,,,,,,,,,,,,,,,,,,,,,,,,,,,,,,,,,,,,
292786,2022-12-01_00h22.15.315,vts_reward_expectancy_bt,2022.2.4,MacIntel,58.82352941,Safari,1470,956,,,a,0.763,1,64,0,0,9,9,6,1,0,0,1,0,1,0,0,0,hexagon,triangle,,,,,,,,,,,,,,,,,,,,,,,,,,,,,,,,,,,,,,,,,,,,,,,,,,,,,,
292786,2022-12-01_00h22.15.315,vts_reward_expectancy_bt,2022.2.4,MacIntel,58.82352941,Safari,1470,956,,,l,0.674,10,74,0,0,10,10,4,1,0,1,0,0,0,0,1,0,circle,hexagon,,,,,,,,,,,,,,,,,,,,,,,,,,,,,,,,,,,,,,,,,,,,,,,,,,,,,,
292786,2022-12-01_00h22.15.315,vts_reward_expectancy_bt,2022.2.4,MacIntel,58.82352941,Safari,1470,956,,,l,1.015,1,75,0,0,11,11,3,1,0,1,0,0,1,0,0,0,circle,triangle,,,,,,,,,,,,,,,,,,,,,,,,,,,,,,,,,,,,,,,,,,,,,,,,,,,,,,
292786,2022-12-01_00h22.15.315,vts_reward_expectancy_bt,2022.2.4,MacIntel,58.82352941,Safari,1470,956,,,a,0.614,10,85,0,1,0,12,2,1,1,0,0,0,0,0,0,1,triangle,star,,,,,,,,,,,,,,,,,,,,,,,,,,,,,,,,,,,,,,,,,,,,,,,,,,,,,,
292786,2022-12-01_00h22.15.315,vts_reward_expectancy_bt,2022.2.4,MacIntel,58.82352941,Safari,1470,956,,,a,0.862,10,95,0,1,1,13,10,1,0,0,0,1,0,1,0,0,star ,circle,,,,,,,,,,,,,,,,,,,,,,,,,,,,,,,,,,,,,,,,,,,,,,,,,,,,,,
292786,2022-12-01_00h22.15.315,vts_reward_expectancy_bt,2022.2.4,MacIntel,58.82352941,Safari,1470,956,,,a,0.696,1,96,0,1,2,14,0,1,1,0,0,0,0,1,0,0,triangle,circle,,,,,,,,,,,,,,,,,,,,,,,,,,,,,,,,,,,,,,,,,,,,,,,,,,,,,,
292786,2022-12-01_00h22.15.315,vts_reward_expectancy_bt,2022.2.4,MacIntel,58.82352941,Safari,1470,956,,,l,1.372,10,106,0,1,3,15,6,1,0,0,1,0,1,0,0,0,hexagon,triangle,,,,,,,,,,,,,,,,,,,,,,,,,,,,,,,,,,,,,,,,,,,,,,,,,,,,,,
292786,2022-12-01_00h22.15.315,vts_reward_expectancy_bt,2022.2.4,MacIntel,58.82352941,Safari,1470,956,,,a,1.237,1,107,0,1,4,16,3,1,0,1,0,0,1,0,0,0,circle,triangle,,,,,,,,,,,,,,,,,,,,,,,,,,,,,,,,,,,,,,,,,,,,,,,,,,,,,,
292786,2022-12-01_00h22.15.315,vts_reward_expectancy_bt,2022.2.4,MacIntel,58.82352941,Safari,1470,956,,,l,2.248,1,108,0,1,5,17,5,1,0,1,0,0,0,0,0,1,circle,star,,,,,,,,,,,,,,,,,,,,,,,,,,,,,,,,,,,,,,,,,,,,,,,,,,,,,,
292786,2022-12-01_00h22.15.315,vts_reward_expectancy_bt,2022.2.4,MacIntel,58.82352941,Safari,1470,956,,,a,2.35,10,118,0,1,6,18,1,1,1,0,0,0,0,0,1,0,triangle,hexagon,,,,,,,,,,,,,,,,,,,,,,,,,,,,,,,,,,,,,,,,,,,,,,,,,,,,,,
292786,2022-12-01_00h22.15.315,vts_reward_expectancy_bt,2022.2.4,MacIntel,58.82352941,Safari,1470,956,,,l,0.959,10,128,0,1,7,19,8,1,0,0,1,0,0,0,0,1,hexagon,star,,,,,,,,,,,,,,,,,,,,,,,,,,,,,,,,,,,,,,,,,,,,,,,,,,,,,,
292786,2022-12-01_00h22.15.315,vts_reward_expectancy_bt,2022.2.4,MacIntel,58.82352941,Safari,1470,956,,,l,1.662,1,129,0,1,8,20,4,1,0,1,0,0,0,0,1,0,circle,hexagon,,,,,,,,,,,,,,,,,,,,,,,,,,,,,,,,,,,,,,,,,,,,,,,,,,,,,,
292786,2022-12-01_00h22.15.315,vts_reward_expectancy_bt,2022.2.4,MacIntel,58.82352941,Safari,1470,956,,,a,1.681,10,139,0,1,9,21,11,1,0,0,0,1,0,0,1,0,star,hexagon,,,,,,,,,,,,,,,,,,,,,,,,,,,,,,,,,,,,,,,,,,,,,,,,,,,,,,
292786,2022-12-01_00h22.15.315,vts_reward_expectancy_bt,2022.2.4,MacIntel,58.82352941,Safari,1470,956,,,a,0.64,1,140,0,1,10,22,9,1,0,0,0,1,1,0,0,0,star,triangle,,,,,,,,,,,,,,,,,,,,,,,,,,,,,,,,,,,,,,,,,,,,,,,,,,,,,,
292786,2022-12-01_00h22.15.315,vts_reward_expectancy_bt,2022.2.4,MacIntel,58.82352941,Safari,1470,956,,,a,0.508,1,141,0,1,11,23,7,1,0,0,1,0,0,1,0,0,hexagon,circle,,,,,,,,,,,,,,,,,,,,,,,,,,,,,,,,,,,,,,,,,,,,,,,,,,,,,,
292786,2022-12-01_00h22.15.315,vts_reward_expectancy_bt,2022.2.4,MacIntel,58.82352941,Safari,1470,956,,,a,0.617,10,151,0,2,0,24,6,1,0,0,1,0,1,0,0,0,hexagon,triangle,,,,,,,,,,,,,,,,,,,,,,,,,,,,,,,,,,,,,,,,,,,,,,,,,,,,,,
292786,2022-12-01_00h22.15.315,vts_reward_expectancy_bt,2022.2.4,MacIntel,58.82352941,Safari,1470,956,,,l,1,10,161,0,2,1,25,2,1,1,0,0,0,0,0,0,1,triangle,star,,,,,,,,,,,,,,,,,,,,,,,,,,,,,,,,,,,,,,,,,,,,,,,,,,,,,,
292786,2022-12-01_00h22.15.315,vts_reward_expectancy_bt,2022.2.4,MacIntel,58.82352941,Safari,1470,956,,,a,0.636,10,171,0,2,2,26,11,1,0,0,0,1,0,0,1,0,star,hexagon,,,,,,,,,,,,,,,,,,,,,,,,,,,,,,,,,,,,,,,,,,,,,,,,,,,,,,
292786,2022-12-01_00h22.15.315,vts_reward_expectancy_bt,2022.2.4,MacIntel,58.82352941,Safari,1470,956,,,l,0.7,1,172,0,2,3,27,3,1,0,1,0,0,1,0,0,0,circle,triangle,,,,,,,,,,,,,,,,,,,,,,,,,,,,,,,,,,,,,,,,,,,,,,,,,,,,,,
292786,2022-12-01_00h22.15.315,vts_reward_expectancy_bt,2022.2.4,MacIntel,58.82352941,Safari,1470,956,,,l,0.798,1,173,0,2,4,28,8,1,0,0,1,0,0,0,0,1,hexagon,star,,,,,,,,,,,,,,,,,,,,,,,,,,,,,,,,,,,,,,,,,,,,,,,,,,,,,,
292786,2022-12-01_00h22.15.315,vts_reward_expectancy_bt,2022.2.4,MacIntel,58.82352941,Safari,1470,956,,,l,1.415,1,174,0,2,5,29,4,1,0,1,0,0,0,0,1,0,circle,hexagon,,,,,,,,,,,,,,,,,,,,,,,,,,,,,,,,,,,,,,,,,,,,,,,,,,,,,,
292786,2022-12-01_00h22.15.315,vts_reward_expectancy_bt,2022.2.4,MacIntel,58.82352941,Safari,1470,956,,,l,0.945,1,175,0,2,6,30,7,1,0,0,1,0,0,1,0,0,hexagon,circle,,,,,,,,,,,,,,,,,,,,,,,,,,,,,,,,,,,,,,,,,,,,,,,,,,,,,,
292786,2022-12-01_00h22.15.315,vts_reward_expectancy_bt,2022.2.4,MacIntel,58.82352941,Safari,1470,956,,,a,1.421,1,176,0,2,7,31,1,1,1,0,0,0,0,0,1,0,triangle,hexagon,,,,,,,,,,,,,,,,,,,,,,,,,,,,,,,,,,,,,,,,,,,,,,,,,,,,,,
292786,2022-12-01_00h22.15.315,vts_reward_expectancy_bt,2022.2.4,MacIntel,58.82352941,Safari,1470,956,,,l,0.809,1,177,0,2,8,32,5,1,0,1,0,0,0,0,0,1,circle,star,,,,,,,,,,,,,,,,,,,,,,,,,,,,,,,,,,,,,,,,,,,,,,,,,,,,,,
292786,2022-12-01_00h22.15.315,vts_reward_expectancy_bt,2022.2.4,MacIntel,58.82352941,Safari,1470,956,,,a,1.351,1,178,0,2,9,33,10,1,0,0,0,1,0,1,0,0,star ,circle,,,,,,,,,,,,,,,,,,,,,,,,,,,,,,,,,,,,,,,,,,,,,,,,,,,,,,
292786,2022-12-01_00h22.15.315,vts_reward_expectancy_bt,2022.2.4,MacIntel,58.82352941,Safari,1470,956,,,a,2.15,10,188,0,2,10,34,0,1,1,0,0,0,0,1,0,0,triangle,circle,,,,,,,,,,,,,,,,,,,,,,,,,,,,,,,,,,,,,,,,,,,,,,,,,,,,,,
292786,2022-12-01_00h22.15.315,vts_reward_expectancy_bt,2022.2.4,MacIntel,58.82352941,Safari,1470,956,,,a,2.034,1,189,0,2,11,35,9,1,0,0,0,1,1,0,0,0,star,triangle,,,,,,,,,,,,,,,,,,,,,,,,,,,,,,,,,,,,,,,,,,,,,,,,,,,,,,
292786,2022-12-01_00h22.15.315,vts_reward_expectancy_bt,2022.2.4,MacIntel,58.82352941,Safari,1470,956,,,a,3.168,1,190,1,0,0,0,6,1,0,0,1,0,1,0,0,0,hexagon,triangle,,,,,,,,,,,,,,,,,,,,,,,,,,,,,,,,,,,,,,,,,,,,,,,,,,,,,,
292786,2022-12-01_00h22.15.315,vts_reward_expectancy_bt,2022.2.4,MacIntel,58.82352941,Safari,1470,956,,,l,1.298,1,191,1,0,1,1,8,1,0,0,1,0,0,0,0,1,hexagon,star,,,,,,,,,,,,,,,,,,,,,,,,,,,,,,,,,,,,,,,,,,,,,,,,,,,,,,
292786,2022-12-01_00h22.15.315,vts_reward_expectancy_bt,2022.2.4,MacIntel,58.82352941,Safari,1470,956,,,a,1.933,1,192,1,0,2,2,4,1,0,1,0,0,0,0,1,0,circle,hexagon,,,,,,,,,,,,,,,,,,,,,,,,,,,,,,,,,,,,,,,,,,,,,,,,,,,,,,
292786,2022-12-01_00h22.15.315,vts_reward_expectancy_bt,2022.2.4,MacIntel,58.82352941,Safari,1470,956,,,a,1.534,1,193,1,0,3,3,9,1,0,0,0,1,1,0,0,0,star,triangle,,,,,,,,,,,,,,,,,,,,,,,,,,,,,,,,,,,,,,,,,,,,,,,,,,,,,,
292786,2022-12-01_00h22.15.315,vts_reward_expectancy_bt,2022.2.4,MacIntel,58.82352941,Safari,1470,956,,,a,0.744,1,194,1,0,4,4,10,1,0,0,0,1,0,1,0,0,star ,circle,,,,,,,,,,,,,,,,,,,,,,,,,,,,,,,,,,,,,,,,,,,,,,,,,,,,,,
292786,2022-12-01_00h22.15.315,vts_reward_expectancy_bt,2022.2.4,MacIntel,58.82352941,Safari,1470,956,,,l,1.057,10,204,1,0,5,5,11,1,0,0,0,1,0,0,1,0,star,hexagon,,,,,,,,,,,,,,,,,,,,,,,,,,,,,,,,,,,,,,,,,,,,,,,,,,,,,,
292786,2022-12-01_00h22.15.315,vts_reward_expectancy_bt,2022.2.4,MacIntel,58.82352941,Safari,1470,956,,,l,0.805,10,214,1,0,6,6,0,1,1,0,0,0,0,1,0,0,triangle,circle,,,,,,,,,,,,,,,,,,,,,,,,,,,,,,,,,,,,,,,,,,,,,,,,,,,,,,
292786,2022-12-01_00h22.15.315,vts_reward_expectancy_bt,2022.2.4,MacIntel,58.82352941,Safari,1470,956,,,a,0.645,10,224,1,0,7,7,3,1,0,1,0,0,1,0,0,0,circle,triangle,,,,,,,,,,,,,,,,,,,,,,,,,,,,,,,,,,,,,,,,,,,,,,,,,,,,,,
292786,2022-12-01_00h22.15.315,vts_reward_expectancy_bt,2022.2.4,MacIntel,58.82352941,Safari,1470,956,,,a,0.533,10,234,1,0,8,8,5,1,0,1,0,0,0,0,0,1,circle,star,,,,,,,,,,,,,,,,,,,,,,,,,,,,,,,,,,,,,,,,,,,,,,,,,,,,,,
292786,2022-12-01_00h22.15.315,vts_reward_expectancy_bt,2022.2.4,MacIntel,58.82352941,Safari,1470,956,,,l,1.089,1,235,1,0,9,9,2,1,1,0,0,0,0,0,0,1,triangle,star,,,,,,,,,,,,,,,,,,,,,,,,,,,,,,,,,,,,,,,,,,,,,,,,,,,,,,
292786,2022-12-01_00h22.15.315,vts_reward_expectancy_bt,2022.2.4,MacIntel,58.82352941,Safari,1470,956,,,a,1.761,10,245,1,0,10,10,1,1,1,0,0,0,0,0,1,0,triangle,hexagon,,,,,,,,,,,,,,,,,,,,,,,,,,,,,,,,,,,,,,,,,,,,,,,,,,,,,,
292786,2022-12-01_00h22.15.315,vts_reward_expectancy_bt,2022.2.4,MacIntel,58.82352941,Safari,1470,956,,,l,1.863,10,255,1,0,11,11,7,1,0,0,1,0,0,1,0,0,hexagon,circle,,,,,,,,,,,,,,,,,,,,,,,,,,,,,,,,,,,,,,,,,,,,,,,,,,,,,,
292786,2022-12-01_00h22.15.315,vts_reward_expectancy_bt,2022.2.4,MacIntel,58.82352941,Safari,1470,956,,,a,2.547,1,256,1,1,0,12,5,1,0,1,0,0,0,0,0,1,circle,star,,,,,,,,,,,,,,,,,,,,,,,,,,,,,,,,,,,,,,,,,,,,,,,,,,,,,,
292786,2022-12-01_00h22.15.315,vts_reward_expectancy_bt,2022.2.4,MacIntel,58.82352941,Safari,1470,956,,,l,1.555,1,257,1,1,1,13,8,1,0,0,1,0,0,0,0,1,hexagon,star,,,,,,,,,,,,,,,,,,,,,,,,,,,,,,,,,,,,,,,,,,,,,,,,,,,,,,
292786,2022-12-01_00h22.15.315,vts_reward_expectancy_bt,2022.2.4,MacIntel,58.82352941,Safari,1470,956,,,l,1.644,10,267,1,1,2,14,7,1,0,0,1,0,0,1,0,0,hexagon,circle,,,,,,,,,,,,,,,,,,,,,,,,,,,,,,,,,,,,,,,,,,,,,,,,,,,,,,
292786,2022-12-01_00h22.15.315,vts_reward_expectancy_bt,2022.2.4,MacIntel,58.82352941,Safari,1470,956,,,a,0.787,1,268,1,1,3,15,6,1,0,0,1,0,1,0,0,0,hexagon,triangle,,,,,,,,,,,,,,,,,,,,,,,,,,,,,,,,,,,,,,,,,,,,,,,,,,,,,,
292786,2022-12-01_00h22.15.315,vts_reward_expectancy_bt,2022.2.4,MacIntel,58.82352941,Safari,1470,956,,,a,1.522,1,269,1,1,4,16,11,1,0,0,0,1,0,0,1,0,star,hexagon,,,,,,,,,,,,,,,,,,,,,,,,,,,,,,,,,,,,,,,,,,,,,,,,,,,,,,
292786,2022-12-01_00h22.15.315,vts_reward_expectancy_bt,2022.2.4,MacIntel,58.82352941,Safari,1470,956,,,a,0.983,10,279,1,1,5,17,2,1,1,0,0,0,0,0,0,1,triangle,star,,,,,,,,,,,,,,,,,,,,,,,,,,,,,,,,,,,,,,,,,,,,,,,,,,,,,,
292786,2022-12-01_00h22.15.315,vts_reward_expectancy_bt,2022.2.4,MacIntel,58.82352941,Safari,1470,956,,,a,0.701,1,280,1,1,6,18,1,1,1,0,0,0,0,0,1,0,triangle,hexagon,,,,,,,,,,,,,,,,,,,,,,,,,,,,,,,,,,,,,,,,,,,,,,,,,,,,,,
292786,2022-12-01_00h22.15.315,vts_reward_expectancy_bt,2022.2.4,MacIntel,58.82352941,Safari,1470,956,,,l,1.666,1,281,1,1,7,19,10,1,0,0,0,1,0,1,0,0,star ,circle,,,,,,,,,,,,,,,,,,,,,,,,,,,,,,,,,,,,,,,,,,,,,,,,,,,,,,
292786,2022-12-01_00h22.15.315,vts_reward_expectancy_bt,2022.2.4,MacIntel,58.82352941,Safari,1470,956,,,a,1.902,10,291,1,1,8,20,0,1,1,0,0,0,0,1,0,0,triangle,circle,,,,,,,,,,,,,,,,,,,,,,,,,,,,,,,,,,,,,,,,,,,,,,,,,,,,,,
292786,2022-12-01_00h22.15.315,vts_reward_expectancy_bt,2022.2.4,MacIntel,58.82352941,Safari,1470,956,,,l,1.823,1,292,1,1,9,21,9,1,0,0,0,1,1,0,0,0,star,triangle,,,,,,,,,,,,,,,,,,,,,,,,,,,,,,,,,,,,,,,,,,,,,,,,,,,,,,
292786,2022-12-01_00h22.15.315,vts_reward_expectancy_bt,2022.2.4,MacIntel,58.82352941,Safari,1470,956,,,a,0.667,10,302,1,1,10,22,3,1,0,1,0,0,1,0,0,0,circle,triangle,,,,,,,,,,,,,,,,,,,,,,,,,,,,,,,,,,,,,,,,,,,,,,,,,,,,,,
292786,2022-12-01_00h22.15.315,vts_reward_expectancy_bt,2022.2.4,MacIntel,58.82352941,Safari,1470,956,,,a,0.341,1,303,1,1,11,23,4,1,0,1,0,0,0,0,1,0,circle,hexagon,,,,,,,,,,,,,,,,,,,,,,,,,,,,,,,,,,,,,,,,,,,,,,,,,,,,,,
292786,2022-12-01_00h22.15.315,vts_reward_expectancy_bt,2022.2.4,MacIntel,58.82352941,Safari,1470,956,,,l,0.284,10,313,1,2,0,24,1,1,1,0,0,0,0,0,1,0,triangle,hexagon,,,,,,,,,,,,,,,,,,,,,,,,,,,,,,,,,,,,,,,,,,,,,,,,,,,,,,
292786,2022-12-01_00h22.15.315,vts_reward_expectancy_bt,2022.2.4,MacIntel,58.82352941,Safari,1470,956,,,l,1,1,314,1,2,1,25,9,1,0,0,0,1,1,0,0,0,star,triangle,,,,,,,,,,,,,,,,,,,,,,,,,,,,,,,,,,,,,,,,,,,,,,,,,,,,,,
292786,2022-12-01_00h22.15.315,vts_reward_expectancy_bt,2022.2.4,MacIntel,58.82352941,Safari,1470,956,,,a,0.315,1,315,1,2,2,26,7,1,0,0,1,0,0,1,0,0,hexagon,circle,,,,,,,,,,,,,,,,,,,,,,,,,,,,,,,,,,,,,,,,,,,,,,,,,,,,,,
292786,2022-12-01_00h22.15.315,vts_reward_expectancy_bt,2022.2.4,MacIntel,58.82352941,Safari,1470,956,,,l,0.303,10,325,1,2,3,27,10,1,0,0,0,1,0,1,0,0,star ,circle,,,,,,,,,,,,,,,,,,,,,,,,,,,,,,,,,,,,,,,,,,,,,,,,,,,,,,
292786,2022-12-01_00h22.15.315,vts_reward_expectancy_bt,2022.2.4,MacIntel,58.82352941,Safari,1470,956,,,a,0.133,1,326,1,2,4,28,0,1,1,0,0,0,0,1,0,0,triangle,circle,,,,,,,,,,,,,,,,,,,,,,,,,,,,,,,,,,,,,,,,,,,,,,,,,,,,,,
292786,2022-12-01_00h22.15.315,vts_reward_expectancy_bt,2022.2.4,MacIntel,58.82352941,Safari,1470,956,,,l,0.273,10,336,1,2,5,29,2,1,1,0,0,0,0,0,0,1,triangle,star,,,,,,,,,,,,,,,,,,,,,,,,,,,,,,,,,,,,,,,,,,,,,,,,,,,,,,
292786,2022-12-01_00h22.15.315,vts_reward_expectancy_bt,2022.2.4,MacIntel,58.82352941,Safari,1470,956,,,l,0.352,10,346,1,2,6,30,8,1,0,0,1,0,0,0,0,1,hexagon,star,,,,,,,,,,,,,,,,,,,,,,,,,,,,,,,,,,,,,,,,,,,,,,,,,,,,,,
292786,2022-12-01_00h22.15.315,vts_reward_expectancy_bt,2022.2.4,MacIntel,58.82352941,Safari,1470,956,,,l,0.453,10,356,1,2,7,31,3,1,0,1,0,0,1,0,0,0,circle,triangle,,,,,,,,,,,,,,,,,,,,,,,,,,,,,,,,,,,,,,,,,,,,,,,,,,,,,,
292786,2022-12-01_00h22.15.315,vts_reward_expectancy_bt,2022.2.4,MacIntel,58.82352941,Safari,1470,956,,,l,0.684,1,357,1,2,8,32,4,1,0,1,0,0,0,0,1,0,circle,hexagon,,,,,,,,,,,,,,,,,,,,,,,,,,,,,,,,,,,,,,,,,,,,,,,,,,,,,,
292786,2022-12-01_00h22.15.315,vts_reward_expectancy_bt,2022.2.4,MacIntel,58.82352941,Safari,1470,956,,,a,0.198,10,367,1,2,9,33,11,1,0,0,0,1,0,0,1,0,star,hexagon,,,,,,,,,,,,,,,,,,,,,,,,,,,,,,,,,,,,,,,,,,,,,,,,,,,,,,
292786,2022-12-01_00h22.15.315,vts_reward_expectancy_bt,2022.2.4,MacIntel,58.82352941,Safari,1470,956,,,a,1.108,1,368,1,2,10,34,6,1,0,0,1,0,1,0,0,0,hexagon,triangle,,,,,,,,,,,,,,,,,,,,,,,,,,,,,,,,,,,,,,,,,,,,,,,,,,,,,,
292786,2022-12-01_00h22.15.315,vts_reward_expectancy_bt,2022.2.4,MacIntel,58.82352941,Safari,1470,956,,,l,0.683,10,378,1,2,11,35,5,1,0,1,0,0,0,0,0,1,circle,star,,,,,,,,,,,,,,,,,,,,,,,,,,,,,,,,,,,,,,,,,,,,,,,,,,,,,,
292786,2022-12-01_00h22.15.315,vts_reward_expectancy_bt,2022.2.4,MacIntel,58.82352941,Safari,1470,956,,,l,2.086,10,388,2,0,0,0,8,1,0,0,1,0,0,0,0,1,hexagon,star,,,,,,,,,,,,,,,,,,,,,,,,,,,,,,,,,,,,,,,,,,,,,,,,,,,,,,
292786,2022-12-01_00h22.15.315,vts_reward_expectancy_bt,2022.2.4,MacIntel,58.82352941,Safari,1470,956,,,a,0.949,1,389,2,0,1,1,9,1,0,0,0,1,1,0,0,0,star,triangle,,,,,,,,,,,,,,,,,,,,,,,,,,,,,,,,,,,,,,,,,,,,,,,,,,,,,,
292786,2022-12-01_00h22.15.315,vts_reward_expectancy_bt,2022.2.4,MacIntel,58.82352941,Safari,1470,956,,,l,0.485,1,390,2,0,2,2,6,1,0,0,1,0,1,0,0,0,hexagon,triangle,,,,,,,,,,,,,,,,,,,,,,,,,,,,,,,,,,,,,,,,,,,,,,,,,,,,,,
292786,2022-12-01_00h22.15.315,vts_reward_expectancy_bt,2022.2.4,MacIntel,58.82352941,Safari,1470,956,,,l,1.24,10,400,2,0,3,3,2,1,1,0,0,0,0,0,0,1,triangle,star,,,,,,,,,,,,,,,,,,,,,,,,,,,,,,,,,,,,,,,,,,,,,,,,,,,,,,
292786,2022-12-01_00h22.15.315,vts_reward_expectancy_bt,2022.2.4,MacIntel,58.82352941,Safari,1470,956,,,l,1.25,10,410,2,0,4,4,7,1,0,0,1,0,0,1,0,0,hexagon,circle,,,,,,,,,,,,,,,,,,,,,,,,,,,,,,,,,,,,,,,,,,,,,,,,,,,,,,
292786,2022-12-01_00h22.15.315,vts_reward_expectancy_bt,2022.2.4,MacIntel,58.82352941,Safari,1470,956,,,l,1.149,1,411,2,0,5,5,3,1,0,1,0,0,1,0,0,0,circle,triangle,,,,,,,,,,,,,,,,,,,,,,,,,,,,,,,,,,,,,,,,,,,,,,,,,,,,,,
292786,2022-12-01_00h22.15.315,vts_reward_expectancy_bt,2022.2.4,MacIntel,58.82352941,Safari,1470,956,,,l,1.216,1,412,2,0,6,6,5,1,0,1,0,0,0,0,0,1,circle,star,,,,,,,,,,,,,,,,,,,,,,,,,,,,,,,,,,,,,,,,,,,,,,,,,,,,,,
292786,2022-12-01_00h22.15.315,vts_reward_expectancy_bt,2022.2.4,MacIntel,58.82352941,Safari,1470,956,,,a,1.643,1,413,2,0,7,7,0,1,1,0,0,0,0,1,0,0,triangle,circle,,,,,,,,,,,,,,,,,,,,,,,,,,,,,,,,,,,,,,,,,,,,,,,,,,,,,,
292786,2022-12-01_00h22.15.315,vts_reward_expectancy_bt,2022.2.4,MacIntel,58.82352941,Safari,1470,956,,,l,0.4,1,414,2,0,8,8,11,1,0,0,0,1,0,0,1,0,star,hexagon,,,,,,,,,,,,,,,,,,,,,,,,,,,,,,,,,,,,,,,,,,,,,,,,,,,,,,
292786,2022-12-01_00h22.15.315,vts_reward_expectancy_bt,2022.2.4,MacIntel,58.82352941,Safari,1470,956,,,l,0.032,1,415,2,0,9,9,4,1,0,1,0,0,0,0,1,0,circle,hexagon,,,,,,,,,,,,,,,,,,,,,,,,,,,,,,,,,,,,,,,,,,,,,,,,,,,,,,
292786,2022-12-01_00h22.15.315,vts_reward_expectancy_bt,2022.2.4,MacIntel,58.82352941,Safari,1470,956,,,l,0.055,1,416,2,0,10,10,1,1,1,0,0,0,0,0,1,0,triangle,hexagon,,,,,,,,,,,,,,,,,,,,,,,,,,,,,,,,,,,,,,,,,,,,,,,,,,,,,,
292786,2022-12-01_00h22.15.315,vts_reward_expectancy_bt,2022.2.4,MacIntel,58.82352941,Safari,1470,956,,,a,1.482,1,417,2,0,11,11,10,1,0,0,0,1,0,1,0,0,star ,circle,,,,,,,,,,,,,,,,,,,,,,,,,,,,,,,,,,,,,,,,,,,,,,,,,,,,,,
292786,2022-12-01_00h22.15.315,vts_reward_expectancy_bt,2022.2.4,MacIntel,58.82352941,Safari,1470,956,,,l,0.312,10,427,2,1,0,12,6,1,0,0,1,0,1,0,0,0,hexagon,triangle,,,,,,,,,,,,,,,,,,,,,,,,,,,,,,,,,,,,,,,,,,,,,,,,,,,,,,
292786,2022-12-01_00h22.15.315,vts_reward_expectancy_bt,2022.2.4,MacIntel,58.82352941,Safari,1470,956,,,l,0.882,1,428,2,1,1,13,8,1,0,0,1,0,0,0,0,1,hexagon,star,,,,,,,,,,,,,,,,,,,,,,,,,,,,,,,,,,,,,,,,,,,,,,,,,,,,,,
292786,2022-12-01_00h22.15.315,vts_reward_expectancy_bt,2022.2.4,MacIntel,58.82352941,Safari,1470,956,,,l,0.36,1,429,2,1,2,14,9,1,0,0,0,1,1,0,0,0,star,triangle,,,,,,,,,,,,,,,,,,,,,,,,,,,,,,,,,,,,,,,,,,,,,,,,,,,,,,
292786,2022-12-01_00h22.15.315,vts_reward_expectancy_bt,2022.2.4,MacIntel,58.82352941,Safari,1470,956,,,l,0.712,1,430,2,1,3,15,3,1,0,1,0,0,1,0,0,0,circle,triangle,,,,,,,,,,,,,,,,,,,,,,,,,,,,,,,,,,,,,,,,,,,,,,,,,,,,,,
292786,2022-12-01_00h22.15.315,vts_reward_expectancy_bt,2022.2.4,MacIntel,58.82352941,Safari,1470,956,,,a,1.388,1,431,2,1,4,16,11,1,0,0,0,1,0,0,1,0,star,hexagon,,,,,,,,,,,,,,,,,,,,,,,,,,,,,,,,,,,,,,,,,,,,,,,,,,,,,,
292786,2022-12-01_00h22.15.315,vts_reward_expectancy_bt,2022.2.4,MacIntel,58.82352941,Safari,1470,956,,,a,1.104,1,432,2,1,5,17,2,1,1,0,0,0,0,0,0,1,triangle,star,,,,,,,,,,,,,,,,,,,,,,,,,,,,,,,,,,,,,,,,,,,,,,,,,,,,,,
292786,2022-12-01_00h22.15.315,vts_reward_expectancy_bt,2022.2.4,MacIntel,58.82352941,Safari,1470,956,,,a,1.498,1,433,2,1,6,18,1,1,1,0,0,0,0,0,1,0,triangle,hexagon,,,,,,,,,,,,,,,,,,,,,,,,,,,,,,,,,,,,,,,,,,,,,,,,,,,,,,
292786,2022-12-01_00h22.15.315,vts_reward_expectancy_bt,2022.2.4,MacIntel,58.82352941,Safari,1470,956,,,l,2.266,10,443,2,1,7,19,10,1,0,0,0,1,0,1,0,0,star ,circle,,,,,,,,,,,,,,,,,,,,,,,,,,,,,,,,,,,,,,,,,,,,,,,,,,,,,,
292786,2022-12-01_00h22.15.315,vts_reward_expectancy_bt,2022.2.4,MacIntel,58.82352941,Safari,1470,956,,,l,1.35,1,444,2,1,8,20,0,1,1,0,0,0,0,1,0,0,triangle,circle,,,,,,,,,,,,,,,,,,,,,,,,,,,,,,,,,,,,,,,,,,,,,,,,,,,,,,
292786,2022-12-01_00h22.15.315,vts_reward_expectancy_bt,2022.2.4,MacIntel,58.82352941,Safari,1470,956,,,l,0.386,10,454,2,1,9,21,7,1,0,0,1,0,0,1,0,0,hexagon,circle,,,,,,,,,,,,,,,,,,,,,,,,,,,,,,,,,,,,,,,,,,,,,,,,,,,,,,
292786,2022-12-01_00h22.15.315,vts_reward_expectancy_bt,2022.2.4,MacIntel,58.82352941,Safari,1470,956,,,l,0.749,1,455,2,1,10,22,4,1,0,1,0,0,0,0,1,0,circle,hexagon,,,,,,,,,,,,,,,,,,,,,,,,,,,,,,,,,,,,,,,,,,,,,,,,,,,,,,
292786,2022-12-01_00h22.15.315,vts_reward_expectancy_bt,2022.2.4,MacIntel,58.82352941,Safari,1470,956,,,a,0.248,10,465,2,1,11,23,5,1,0,1,0,0,0,0,0,1,circle,star,,,,,,,,,,,,,,,,,,,,,,,,,,,,,,,,,,,,,,,,,,,,,,,,,,,,,,
292786,2022-12-01_00h22.15.315,vts_reward_expectancy_bt,2022.2.4,MacIntel,58.82352941,Safari,1470,956,,,a,0.476,1,466,2,2,0,24,8,1,0,0,1,0,0,0,0,1,hexagon,star,,,,,,,,,,,,,,,,,,,,,,,,,,,,,,,,,,,,,,,,,,,,,,,,,,,,,,
292786,2022-12-01_00h22.15.315,vts_reward_expectancy_bt,2022.2.4,MacIntel,58.82352941,Safari,1470,956,,,l,0.489,1,467,2,2,1,25,2,1,1,0,0,0,0,0,0,1,triangle,star,,,,,,,,,,,,,,,,,,,,,,,,,,,,,,,,,,,,,,,,,,,,,,,,,,,,,,
292786,2022-12-01_00h22.15.315,vts_reward_expectancy_bt,2022.2.4,MacIntel,58.82352941,Safari,1470,956,,,a,0.503,1,468,2,2,2,26,10,1,0,0,0,1,0,1,0,0,star ,circle,,,,,,,,,,,,,,,,,,,,,,,,,,,,,,,,,,,,,,,,,,,,,,,,,,,,,,
292786,2022-12-01_00h22.15.315,vts_reward_expectancy_bt,2022.2.4,MacIntel,58.82352941,Safari,1470,956,,,a,0.015,10,478,2,2,3,27,3,1,0,1,0,0,1,0,0,0,circle,triangle,,,,,,,,,,,,,,,,,,,,,,,,,,,,,,,,,,,,,,,,,,,,,,,,,,,,,,
292786,2022-12-01_00h22.15.315,vts_reward_expectancy_bt,2022.2.4,MacIntel,58.82352941,Safari,1470,956,,,l,0.666,1,479,2,2,4,28,0,1,1,0,0,0,0,1,0,0,triangle,circle,,,,,,,,,,,,,,,,,,,,,,,,,,,,,,,,,,,,,,,,,,,,,,,,,,,,,,
292786,2022-12-01_00h22.15.315,vts_reward_expectancy_bt,2022.2.4,MacIntel,58.82352941,Safari,1470,956,,,a,0.265,10,489,2,2,5,29,9,1,0,0,0,1,1,0,0,0,star,triangle,,,,,,,,,,,,,,,,,,,,,,,,,,,,,,,,,,,,,,,,,,,,,,,,,,,,,,
292786,2022-12-01_00h22.15.315,vts_reward_expectancy_bt,2022.2.4,MacIntel,58.82352941,Safari,1470,956,,,l,1.354,10,499,2,2,6,30,1,1,1,0,0,0,0,0,1,0,triangle,hexagon,,,,,,,,,,,,,,,,,,,,,,,,,,,,,,,,,,,,,,,,,,,,,,,,,,,,,,
292786,2022-12-01_00h22.15.315,vts_reward_expectancy_bt,2022.2.4,MacIntel,58.82352941,Safari,1470,956,,,l,1.988,10,509,2,2,7,31,11,1,0,0,0,1,0,0,1,0,star,hexagon,,,,,,,,,,,,,,,,,,,,,,,,,,,,,,,,,,,,,,,,,,,,,,,,,,,,,,
292786,2022-12-01_00h22.15.315,vts_reward_expectancy_bt,2022.2.4,MacIntel,58.82352941,Safari,1470,956,,,a,1.418,1,510,2,2,8,32,4,1,0,1,0,0,0,0,1,0,circle,hexagon,,,,,,,,,,,,,,,,,,,,,,,,,,,,,,,,,,,,,,,,,,,,,,,,,,,,,,
292786,2022-12-01_00h22.15.315,vts_reward_expectancy_bt,2022.2.4,MacIntel,58.82352941,Safari,1470,956,,,l,0.533,1,511,2,2,9,33,5,1,0,1,0,0,0,0,0,1,circle,star,,,,,,,,,,,,,,,,,,,,,,,,,,,,,,,,,,,,,,,,,,,,,,,,,,,,,,
292786,2022-12-01_00h22.15.315,vts_reward_expectancy_bt,2022.2.4,MacIntel,58.82352941,Safari,1470,956,,,l,2.399,1,512,2,2,10,34,6,1,0,0,1,0,1,0,0,0,hexagon,triangle,,,,,,,,,,,,,,,,,,,,,,,,,,,,,,,,,,,,,,,,,,,,,,,,,,,,,,
292786,2022-12-01_00h22.15.315,vts_reward_expectancy_bt,2022.2.4,MacIntel,58.82352941,Safari,1470,956,,,l,0.668,10,522,2,2,11,35,7,1,0,0,1,0,0,1,0,0,hexagon,circle,,,,,,,,,,,,,,,,,,,,,,,,,,,,,,,,,,,,,,,,,,,,,,,,,,,,,,
292786,2022-12-01_00h22.15.315,vts_reward_expectancy_bt,2022.2.4,MacIntel,58.82352941,Safari,1470,956,,,,,,,,,,,,,,,,,,,,,,,125,W,hexagon,1,0,d,1.01,0,0,0,0,0,1,,,,,,,,,,,,,,,,,,,,,,,,,,,,,,,,,,,,,,,,,
292786,2022-12-01_00h22.15.315,vts_reward_expectancy_bt,2022.2.4,MacIntel,58.82352941,Safari,1470,956,,,,,,,,,,,,,,,,,,,,,,,167,S,star,1,0,f,0.942,0,1,0,1,0,1,,,,,,,,,,,,,,,,,,,,,,,,,,,,,,,,,,,,,,,,,
292786,2022-12-01_00h22.15.315,vts_reward_expectancy_bt,2022.2.4,MacIntel,58.82352941,Safari,1470,956,,,,,,,,,,,,,,,,,,,,,,,160,H,triangle,1,0,f,0.698,0,2,0,2,0,1,,,,,,,,,,,,,,,,,,,,,,,,,,,,,,,,,,,,,,,,,
292786,2022-12-01_00h22.15.315,vts_reward_expectancy_bt,2022.2.4,MacIntel,58.82352941,Safari,1470,956,,,,,,,,,,,,,,,,,,,,,,,174,F,circle,1,0,f,0.723,0,3,0,3,0,1,,,,,,,,,,,,,,,,,,,,,,,,,,,,,,,,,,,,,,,,,
292786,2022-12-01_00h22.15.315,vts_reward_expectancy_bt,2022.2.4,MacIntel,58.82352941,Safari,1470,956,,,,,,,,,,,,,,,,,,,,,,,181,D,hexagon,1,0,f,0.952,0,4,0,4,0,1,,,,,,,,,,,,,,,,,,,,,,,,,,,,,,,,,,,,,,,,,
292786,2022-12-01_00h22.15.315,vts_reward_expectancy_bt,2022.2.4,MacIntel,58.82352941,Safari,1470,956,,,,,,,,,,,,,,,,,,,,,,,146,B,star,1,0,d,0.774,0,5,0,5,0,1,,,,,,,,,,,,,,,,,,,,,,,,,,,,,,,,,,,,,,,,,
292786,2022-12-01_00h22.15.315,vts_reward_expectancy_bt,2022.2.4,MacIntel,58.82352941,Safari,1470,956,,,,,,,,,,,,,,,,,,,,,,,139,Y,triangle,1,0,d,0.838,0,6,0,6,0,1,,,,,,,,,,,,,,,,,,,,,,,,,,,,,,,,,,,,,,,,,
292786,2022-12-01_00h22.15.315,vts_reward_expectancy_bt,2022.2.4,MacIntel,58.82352941,Safari,1470,956,,,,,,,,,,,,,,,,,,,,,,,132,U,circle,1,0,d,0.809,0,7,0,7,0,1,,,,,,,,,,,,,,,,,,,,,,,,,,,,,,,,,,,,,,,,,
292786,2022-12-01_00h22.15.315,vts_reward_expectancy_bt,2022.2.4,MacIntel,58.82352941,Safari,1470,956,,,,,,,,,,,,,,,,,,,,,,,125,W,star,1,0,d,0.777,0,8,0,8,0,1,,,,,,,,,,,,,,,,,,,,,,,,,,,,,,,,,,,,,,,,,
292786,2022-12-01_00h22.15.315,vts_reward_expectancy_bt,2022.2.4,MacIntel,58.82352941,Safari,1470,956,,,,,,,,,,,,,,,,,,,,,,,167,S,triangle,1,0,f,0.741,0,9,0,9,0,1,,,,,,,,,,,,,,,,,,,,,,,,,,,,,,,,,,,,,,,,,
292786,2022-12-01_00h22.15.315,vts_reward_expectancy_bt,2022.2.4,MacIntel,58.82352941,Safari,1470,956,,,,,,,,,,,,,,,,,,,,,,,181,H,star,1,0,,,1,,,,,,j,1.014,0,0,0,0,1,,,,,,,,,,,,,,,,,,,,,,,,,,,,,,,,,,
292786,2022-12-01_00h22.15.315,vts_reward_expectancy_bt,2022.2.4,MacIntel,58.82352941,Safari,1470,956,,,,,,,,,,,,,,,,,,,,,,,139,B,triangle,1,0,,,1,,,,,,j,0.762,1,0,1,0,1,,,,,,,,,,,,,,,,,,,,,,,,,,,,,,,,,,
292786,2022-12-01_00h22.15.315,vts_reward_expectancy_bt,2022.2.4,MacIntel,58.82352941,Safari,1470,956,,,,,,,,,,,,,,,,,,,,,,,174,D,hexagon,1,0,,,1,,,,,,j,0.887,2,0,2,0,1,,,,,,,,,,,,,,,,,,,,,,,,,,,,,,,,,,
292786,2022-12-01_00h22.15.315,vts_reward_expectancy_bt,2022.2.4,MacIntel,58.82352941,Safari,1470,956,,,,,,,,,,,,,,,,,,,,,,,125,W,circle,1,0,,,1,,,,,,k,0.905,3,0,3,0,1,,,,,,,,,,,,,,,,,,,,,,,,,,,,,,,,,,
292786,2022-12-01_00h22.15.315,vts_reward_expectancy_bt,2022.2.4,MacIntel,58.82352941,Safari,1470,956,,,,,,,,,,,,,,,,,,,,,,,132,S,star,1,0,,,1,,,,,,k,0.589,4,0,4,0,1,,,,,,,,,,,,,,,,,,,,,,,,,,,,,,,,,,
292786,2022-12-01_00h22.15.315,vts_reward_expectancy_bt,2022.2.4,MacIntel,58.82352941,Safari,1470,956,,,,,,,,,,,,,,,,,,,,,,,146,F,triangle,1,0,,,1,,,,,,j,0.828,5,0,5,0,1,,,,,,,,,,,,,,,,,,,,,,,,,,,,,,,,,,
292786,2022-12-01_00h22.15.315,vts_reward_expectancy_bt,2022.2.4,MacIntel,58.82352941,Safari,1470,956,,,,,,,,,,,,,,,,,,,,,,,167,U,hexagon,1,0,,,1,,,,,,k,0.664,6,0,6,0,1,,,,,,,,,,,,,,,,,,,,,,,,,,,,,,,,,,
292786,2022-12-01_00h22.15.315,vts_reward_expectancy_bt,2022.2.4,MacIntel,58.82352941,Safari,1470,956,,,,,,,,,,,,,,,,,,,,,,,160,Y,circle,1,0,,,1,,,,,,k,0.629,7,0,7,0,1,,,,,,,,,,,,,,,,,,,,,,,,,,,,,,,,,,
292786,2022-12-01_00h22.15.315,vts_reward_expectancy_bt,2022.2.4,MacIntel,58.82352941,Safari,1470,956,,,,,,,,,,,,,,,,,,,,,,,181,H,hexagon,1,0,,,1,,,,,,j,0.876,8,0,8,0,1,,,,,,,,,,,,,,,,,,,,,,,,,,,,,,,,,,
292786,2022-12-01_00h22.15.315,vts_reward_expectancy_bt,2022.2.4,MacIntel,58.82352941,Safari,1470,956,,,,,,,,,,,,,,,,,,,,,,,139,B,star,1,0,,,1,,,,,,j,0.744,9,0,9,0,1,,,,,,,,,,,,,,,,,,,,,,,,,,,,,,,,,,
292786,2022-12-01_00h22.15.315,vts_reward_expectancy_bt,2022.2.4,MacIntel,58.82352941,Safari,1470,956,,,,,0,522,,,,,,,,,,,,,,,,,125,B,triangle,1,0,,,2,,,,,,,,,,,,,-1,letter,NA,j,2.443,vtsPrac,0,0,0,0,1,,,,,,,,,,,,,,,,,,,,,,,
292786,2022-12-01_00h22.15.315,vts_reward_expectancy_bt,2022.2.4,MacIntel,58.82352941,Safari,1470,956,,,,,0,522,,,,,,,,,,,,,,,,,132,U,circle,1,0,,,2,,,,,,,,,,,,,repeat,letter,lettRpt,k,1.2,vtsPrac,1,0,1,0,1,,,,,,,,,,,,,,,,,,,,,,,
292786,2022-12-01_00h22.15.315,vts_reward_expectancy_bt,2022.2.4,MacIntel,58.82352941,Safari,1470,956,,,,,0,522,,,,,,,,,,,,,,,,,160,H,triangle,0,0,,,2,,,,,,,,,,,,,switch,number,NA,d,1.173,vtsPrac,2,0,2,0,1,,,,,,,,,,,,,,,,,,,,,,,
292786,2022-12-01_00h22.15.315,vts_reward_expectancy_bt,2022.2.4,MacIntel,58.82352941,Safari,1470,956,,,,,0,522,,,,,,,,,,,,,,,,,167,D,circle,1,1,,,2,,,,,,,,,,,,,repeat,number,numRpt,f,1.804,vtsPrac,3,0,3,0,1,,,,,,,,,,,,,,,,,,,,,,,
292786,2022-12-01_00h22.15.315,vts_reward_expectancy_bt,2022.2.4,MacIntel,58.82352941,Safari,1470,956,,,,,0,522,,,,,,,,,,,,,,,,,125,B,star,1,0,,,2,,,,,,,,,,,,,switch,letter,lettSwt,j,0.985,vtsPrac,4,0,4,0,1,,,,,,,,,,,,,,,,,,,,,,,
292786,2022-12-01_00h22.15.315,vts_reward_expectancy_bt,2022.2.4,MacIntel,58.82352941,Safari,1470,956,,,,,0,522,,,,,,,,,,,,,,,,,132,U,circle,1,0,,,2,,,,,,,,,,,,,switch,number,numSwt,d,0.627,vtsPrac,5,0,5,0,1,,,,,,,,,,,,,,,,,,,,,,,
292786,2022-12-01_00h22.15.315,vts_reward_expectancy_bt,2022.2.4,MacIntel,58.82352941,Safari,1470,956,,,,,0,522,,,,,,,,,,,,,,,,,160,H,circle,1,0,,,2,,,,,,,,,,,,,repeat,number,numRpt,f,0.879,vtsPrac,6,0,6,0,1,,,,,,,,,,,,,,,,,,,,,,,
292786,2022-12-01_00h22.15.315,vts_reward_expectancy_bt,2022.2.4,MacIntel,58.82352941,Safari,1470,956,,,,,0,522,,,,,,,,,,,,,,,,,167,D,star,1,0,,,2,,,,,,,,,,,,,repeat,number,numRpt,f,0.889,vtsPrac,7,0,7,0,1,,,,,,,,,,,,,,,,,,,,,,,
292786,2022-12-01_00h22.15.315,vts_reward_expectancy_bt,2022.2.4,MacIntel,58.82352941,Safari,1470,956,,,,,0,522,,,,,,,,,,,,,,,,,167,S,triangle,1,0,,,2,,,,,,,,,,,,,switch,letter,lettSwt,k,1.2,vtsPrac,8,0,8,0,1,,,,,,,,,,,,,,,,,,,,,,,
292786,2022-12-01_00h22.15.315,vts_reward_expectancy_bt,2022.2.4,MacIntel,58.82352941,Safari,1470,956,,,,,0,522,,,,,,,,,,,,,,,,,139,Y,star,1,0,,,2,,,,,,,,,,,,,switch,number,numSwt,d,0.84,vtsPrac,9,0,9,0,1,,,,,,,,,,,,,,,,,,,,,,,
292786,2022-12-01_00h22.15.315,vts_reward_expectancy_bt,2022.2.4,MacIntel,58.82352941,Safari,1470,956,,,,,0,522,,,,,,,,,,,,,,,,,132,F,circle,1,0,,,2,,,,,,,,,,,,,switch,letter,lettSwt,j,0.807,vtsPrac,10,0,10,0,1,,,,,,,,,,,,,,,,,,,,,,,
292786,2022-12-01_00h22.15.315,vts_reward_expectancy_bt,2022.2.4,MacIntel,58.82352941,Safari,1470,956,,,,,0,522,,,,,,,,,,,,,,,,,174,H,triangle,1,0,,,2,,,,,,,,,,,,,repeat,letter,lettRpt,j,1.032,vtsPrac,11,0,11,0,1,,,,,,,,,,,,,,,,,,,,,,,
292786,2022-12-01_00h22.15.315,vts_reward_expectancy_bt,2022.2.4,MacIntel,58.82352941,Safari,1470,956,,,,,0,522,,,,,,,,,,,,,,,,,125,S,triangle,1,0,,,2,,,,,,,,,,,,,repeat,letter,lettRpt,k,0.841,vtsPrac,12,0,12,0,1,,,,,,,,,,,,,,,,,,,,,,,
292786,2022-12-01_00h22.15.315,vts_reward_expectancy_bt,2022.2.4,MacIntel,58.82352941,Safari,1470,956,,,,,0,522,,,,,,,,,,,,,,,,,139,D,circle,1,0,,,2,,,,,,,,,,,,,switch,number,numSwt,d,1.009,vtsPrac,13,0,13,0,1,,,,,,,,,,,,,,,,,,,,,,,
292786,2022-12-01_00h22.15.315,vts_reward_expectancy_bt,2022.2.4,MacIntel,58.82352941,Safari,1470,956,,,,,0,522,,,,,,,,,,,,,,,,,181,U,triangle,1,0,,,2,,,,,,,,,,,,,repeat,number,numRpt,f,1.624,vtsPrac,14,0,14,0,1,,,,,,,,,,,,,,,,,,,,,,,
292786,2022-12-01_00h22.15.315,vts_reward_expectancy_bt,2022.2.4,MacIntel,58.82352941,Safari,1470,956,,,,,0,522,,,,,,,,,,,,,,,,,146,Y,circle,1,0,,,2,,,,,,,,,,,,,switch,letter,lettSwt,k,0.973,vtsPrac,15,0,15,0,1,,,,,,,,,,,,,,,,,,,,,,,
292786,2022-12-01_00h22.15.315,vts_reward_expectancy_bt,2022.2.4,MacIntel,58.82352941,Safari,1470,956,,,,,0,522,,,,,,,,,,,,,,,,,181,Y,circle,0,0,,,2,,,,,,,,,,,,,repeat,letter,NA,j,1.056,vtsPrac,16,0,16,0,1,,,,,,,,,,,,,,,,,,,,,,,
292786,2022-12-01_00h22.15.315,vts_reward_expectancy_bt,2022.2.4,MacIntel,58.82352941,Safari,1470,956,,,,,0,522,,,,,,,,,,,,,,,,,125,U,triangle,1,1,,,2,,,,,,,,,,,,,switch,number,numSwt,d,1.676,vtsPrac,17,0,17,0,1,,,,,,,,,,,,,,,,,,,,,,,
292786,2022-12-01_00h22.15.315,vts_reward_expectancy_bt,2022.2.4,MacIntel,58.82352941,Safari,1470,956,,,,,0,522,,,,,,,,,,,,,,,,,160,H,hexagon,1,0,,,2,,,,,,,,,,,,,switch,letter,lettSwt,j,1.648,vtsPrac,18,0,18,0,1,,,,,,,,,,,,,,,,,,,,,,,
292786,2022-12-01_00h22.15.315,vts_reward_expectancy_bt,2022.2.4,MacIntel,58.82352941,Safari,1470,956,,,,,0,522,,,,,,,,,,,,,,,,,139,S,triangle,1,0,,,2,,,,,,,,,,,,,repeat,letter,lettRpt,k,0.854,vtsPrac,19,0,19,0,1,,,,,,,,,,,,,,,,,,,,,,,
292786,2022-12-01_00h22.15.315,vts_reward_expectancy_bt,2022.2.4,MacIntel,58.82352941,Safari,1470,956,,,,,0,522,,,,,,,,,,,,,,,,,146,H,triangle,1,0,,,2,,,,,,,,,,,,,switch,number,numSwt,d,1.156,vtsPrac,20,0,20,0,1,,,,,,,,,,,,,,,,,,,,,,,
292786,2022-12-01_00h22.15.315,vts_reward_expectancy_bt,2022.2.4,MacIntel,58.82352941,Safari,1470,956,,,,,0,522,,,,,,,,,,,,,,,,,174,S,hexagon,1,0,,,2,,,,,,,,,,,,,repeat,number,numRpt,f,2.308,vtsPrac,21,0,21,0,1,,,,,,,,,,,,,,,,,,,,,,,
292786,2022-12-01_00h22.15.315,vts_reward_expectancy_bt,2022.2.4,MacIntel,58.82352941,Safari,1470,956,,,,,0,522,,,,,,,,,,,,,,,,,160,U,star,1,0,,,2,,,,,,,,,,,,,switch,letter,lettSwt,k,1.743,vtsPrac,22,0,22,0,1,,,,,,,,,,,,,,,,,,,,,,,
292786,2022-12-01_00h22.15.315,vts_reward_expectancy_bt,2022.2.4,MacIntel,58.82352941,Safari,1470,956,,,,,0,522,,,,,,,,,,,,,,,,,132,F,circle,1,0,,,2,,,,,,,,,,,,,repeat,letter,lettRpt,j,0.758,vtsPrac,23,0,23,0,1,,,,,,,,,,,,,,,,,,,,,,,
292786,2022-12-01_00h22.15.315,vts_reward_expectancy_bt,2022.2.4,MacIntel,58.82352941,Safari,1470,956,,,,,0,522,,,,,,,,,,,,,,,,,139,H,circle,1,0,,,2,,,,,,,,,,,,,repeat,letter,lettRpt,j,1.174,vtsPrac,24,0,24,0,1,,,,,,,,,,,,,,,,,,,,,,,
292786,2022-12-01_00h22.15.315,vts_reward_expectancy_bt,2022.2.4,MacIntel,58.82352941,Safari,1470,956,,,,,0,522,,,,,,,,,,,,,,,,,146,B,star,1,0,,,2,,,,,,,,,,,,,switch,number,numSwt,d,0.925,vtsPrac,25,0,25,0,1,,,,,,,,,,,,,,,,,,,,,,,
292786,2022-12-01_00h22.15.315,vts_reward_expectancy_bt,2022.2.4,MacIntel,58.82352941,Safari,1470,956,,,,,0,522,,,,,,,,,,,,,,,,,181,F,triangle,1,0,,,2,,,,,,,,,,,,,repeat,number,numRpt,f,1.163,vtsPrac,26,0,26,0,1,,,,,,,,,,,,,,,,,,,,,,,
292786,2022-12-01_00h22.15.315,vts_reward_expectancy_bt,2022.2.4,MacIntel,58.82352941,Safari,1470,956,,,,,0,522,,,,,,,,,,,,,,,,,132,U,circle,1,0,,,2,,,,,,,,,,,,,switch,letter,lettSwt,k,1.417,vtsPrac,27,0,27,0,1,,,,,,,,,,,,,,,,,,,,,,,
292786,2022-12-01_00h22.15.315,vts_reward_expectancy_bt,2022.2.4,MacIntel,58.82352941,Safari,1470,956,,,,,0,522,,,,,,,,,,,,,,,,,132,Y,hexagon,1,0,,,2,,,,,,,,,,,,,switch,number,numSwt,d,0.693,vtsPrac,28,0,28,0,1,,,,,,,,,,,,,,,,,,,,,,,
292786,2022-12-01_00h22.15.315,vts_reward_expectancy_bt,2022.2.4,MacIntel,58.82352941,Safari,1470,956,,,,,0,522,,,,,,,,,,,,,,,,,181,F,star,1,0,,,2,,,,,,,,,,,,,switch,letter,lettSwt,j,1.188,vtsPrac,29,0,29,0,1,,,,,,,,,,,,,,,,,,,,,,,
292786,2022-12-01_00h22.15.315,vts_reward_expectancy_bt,2022.2.4,MacIntel,58.82352941,Safari,1470,956,,,,,0,522,,,,,,,,,,,,,,,,,167,B,circle,0,0,,,2,,,,,,,,,,,,,switch,number,NA,d,0.954,vtsPrac,30,0,30,0,1,,,,,,,,,,,,,,,,,,,,,,,
292786,2022-12-01_00h22.15.315,vts_reward_expectancy_bt,2022.2.4,MacIntel,58.82352941,Safari,1470,956,,,,,0,522,,,,,,,,,,,,,,,,,139,S,triangle,1,1,,,2,,,,,,,,,,,,,switch,letter,lettSwt,k,1.142,vtsPrac,31,0,31,0,1,,,,,,,,,,,,,,,,,,,,,,,
292786,2022-12-01_00h22.15.315,vts_reward_expectancy_bt,2022.2.4,MacIntel,58.82352941,Safari,1470,956,,,,,,,,,,,,,,,,,,,,,,,,,,,,,,,,,,,,,,,,,,,,,,,,,,,,,,,,,,,,,,,,,,,,,,,,,,,,
292786,2022-12-01_00h22.15.315,vts_reward_expectancy_bt,2022.2.4,MacIntel,58.82352941,Safari,1470,956,,,,,,,,,,,,,,,,,,,,,,,,,,,,,,,,,,,,,,,,,,,,,,,,,,,,,,,,,,,,,,,,,,,,,,,,,,,,
292786,2022-12-01_00h22.15.315,vts_reward_expectancy_bt,2022.2.4,MacIntel,58.82352941,Safari,1470,956,,,,,0,522,,,,,,,,,,,,,,,,,174,W,hexagon,1,0,,,,,,,,,,,,,,,,switch,number,numSwt,f,2.201,noRew,,,,,,0,0,0,0,0,1,,,,,,,,,,,,,,,,,
292786,2022-12-01_00h22.15.315,vts_reward_expectancy_bt,2022.2.4,MacIntel,58.82352941,Safari,1470,956,,,,,0,522,,,,,,,,,,,,,,,,,181,B,circle,1,0,,,,,,,,,,,,,,,,repeat,number,numRpt,f,1.548,noRew,,,,,,0,1,0,1,0,1,,,,,,,,,,,,,,,,,
292786,2022-12-01_00h22.15.315,vts_reward_expectancy_bt,2022.2.4,MacIntel,58.82352941,Safari,1470,956,,,,,0,522,,,,,,,,,,,,,,,,,139,D,hexagon,1,0,,,,,,,,,,,,,,,,repeat,number,numRpt,d,1.003,noRew,,,,,,0,2,0,2,0,1,,,,,,,,,,,,,,,,,
292786,2022-12-01_00h22.15.315,vts_reward_expectancy_bt,2022.2.4,MacIntel,58.82352941,Safari,1470,956,,,,,0,522,,,,,,,,,,,,,,,,,160,Y,circle,1,0,,,,,,,,,,,,,,,,switch,letter,lettSwt,k,1.637,noRew,,,,,,0,3,0,3,0,1,,,,,,,,,,,,,,,,,
292786,2022-12-01_00h22.15.315,vts_reward_expectancy_bt,2022.2.4,MacIntel,58.82352941,Safari,1470,956,,,,,0,522,,,,,,,,,,,,,,,,,174,W,hexagon,1,0,,,,,,,,,,,,,,,,repeat,letter,lettRpt,k,1.276,noRew,,,,,,0,4,0,4,0,1,,,,,,,,,,,,,,,,,
292786,2022-12-01_00h22.15.315,vts_reward_expectancy_bt,2022.2.4,MacIntel,58.82352941,Safari,1470,956,,,,,0,522,,,,,,,,,,,,,,,,,181,B,circle,1,0,,,,,,,,,,,,,,,,switch,number,numSwt,f,1.381,noRew,,,,,,0,5,0,5,0,1,,,,,,,,,,,,,,,,,
292786,2022-12-01_00h22.15.315,vts_reward_expectancy_bt,2022.2.4,MacIntel,58.82352941,Safari,1470,956,,,,,0,522,,,,,,,,,,,,,,,,,139,D,triangle,1,0,,,,,,,,,,,,,,,,switch,letter,lettSwt,j,2.522,noRew,,,,,,0,6,0,6,0,1,,,,,,,,,,,,,,,,,
292786,2022-12-01_00h22.15.315,vts_reward_expectancy_bt,2022.2.4,MacIntel,58.82352941,Safari,1470,956,,,,,0,522,,,,,,,,,,,,,,,,,160,Y,circle,1,0,,,,,,,,,,,,,,,,repeat,letter,lettRpt,k,1.005,noRew,,,,,,0,7,0,7,0,1,,,,,,,,,,,,,,,,,
292786,2022-12-01_00h22.15.315,vts_reward_expectancy_bt,2022.2.4,MacIntel,58.82352941,Safari,1470,956,,,,,0,522,,,,,,,,,,,,,,,,,181,B,hexagon,1,0,,,,,,,,,,,,,,,,switch,number,numSwt,f,2.924,noRew,,,,,,0,8,0,8,0,1,,,,,,,,,,,,,,,,,
292786,2022-12-01_00h22.15.315,vts_reward_expectancy_bt,2022.2.4,MacIntel,58.82352941,Safari,1470,956,,,,,0,522,,,,,,,,,,,,,,,,,139,U,star,1,0,,,,,,,,,,,,,,,,switch,letter,lettSwt,k,1.273,noRew,,,,,,0,9,0,9,0,1,,,,,,,,,,,,,,,,,
292786,2022-12-01_00h22.15.315,vts_reward_expectancy_bt,2022.2.4,MacIntel,58.82352941,Safari,1470,956,,,,,0,522,,,,,,,,,,,,,,,,,146,H,star,1,0,,,,,,,,,,,,,,,,repeat,letter,lettRpt,j,1.013,noRew,,,,,,0,10,0,10,0,1,,,,,,,,,,,,,,,,,
292786,2022-12-01_00h22.15.315,vts_reward_expectancy_bt,2022.2.4,MacIntel,58.82352941,Safari,1470,956,,,,,0,522,,,,,,,,,,,,,,,,,167,W,hexagon,1,0,,,,,,,,,,,,,,,,repeat,letter,lettRpt,k,1.055,noRew,,,,,,0,11,0,11,0,1,,,,,,,,,,,,,,,,,
292786,2022-12-01_00h22.15.315,vts_reward_expectancy_bt,2022.2.4,MacIntel,58.82352941,Safari,1470,956,,,,,0,522,,,,,,,,,,,,,,,,,146,B,hexagon,1,0,,,,,,,,,,,,,,,,repeat,letter,lettRpt,j,1.197,noRew,,,,,,0,12,0,12,0,1,,,,,,,,,,,,,,,,,
292786,2022-12-01_00h22.15.315,vts_reward_expectancy_bt,2022.2.4,MacIntel,58.82352941,Safari,1470,956,,,,,0,522,,,,,,,,,,,,,,,,,132,S,star,1,0,,,,,,,,,,,,,,,,switch,number,numSwt,d,1.528,noRew,,,,,,0,13,0,13,0,1,,,,,,,,,,,,,,,,,
292786,2022-12-01_00h22.15.315,vts_reward_expectancy_bt,2022.2.4,MacIntel,58.82352941,Safari,1470,956,,,,,0,522,,,,,,,,,,,,,,,,,174,H,star,1,0,,,,,,,,,,,,,,,,repeat,number,numRpt,f,1.682,noRew,,,,,,0,14,0,14,0,1,,,,,,,,,,,,,,,,,
292786,2022-12-01_00h22.15.315,vts_reward_expectancy_bt,2022.2.4,MacIntel,58.82352941,Safari,1470,956,,,,,0,522,,,,,,,,,,,,,,,,,181,Y,triangle,1,0,,,,,,,,,,,,,,,,repeat,number,numRpt,f,1.916,noRew,,,,,,0,15,0,15,0,1,,,,,,,,,,,,,,,,,
292786,2022-12-01_00h22.15.315,vts_reward_expectancy_bt,2022.2.4,MacIntel,58.82352941,Safari,1470,956,,,,,0,522,,,,,,,,,,,,,,,,,174,D,hexagon,1,0,,,,,,,,,,,,,,,,switch,letter,lettSwt,j,1.055,noRew,,,,,,0,16,0,16,0,1,,,,,,,,,,,,,,,,,
292786,2022-12-01_00h22.15.315,vts_reward_expectancy_bt,2022.2.4,MacIntel,58.82352941,Safari,1470,956,,,,,0,522,,,,,,,,,,,,,,,,,125,S,triangle,1,0,,,,,,,,,,,,,,,,repeat,letter,lettRpt,k,1.258,noRew,,,,,,0,17,0,17,0,1,,,,,,,,,,,,,,,,,
292786,2022-12-01_00h22.15.315,vts_reward_expectancy_bt,2022.2.4,MacIntel,58.82352941,Safari,1470,956,,,,,0,522,,,,,,,,,,,,,,,,,139,B,triangle,1,0,,,,,,,,,,,,,,,,repeat,letter,lettRpt,j,1.159,noRew,,,,,,0,18,0,18,0,1,,,,,,,,,,,,,,,,,
292786,2022-12-01_00h22.15.315,vts_reward_expectancy_bt,2022.2.4,MacIntel,58.82352941,Safari,1470,956,,,,,0,522,,,,,,,,,,,,,,,,,160,F,hexagon,1,0,,,,,,,,,,,,,,,,repeat,letter,lettRpt,j,1.272,noRew,,,,,,0,19,0,19,0,1,,,,,,,,,,,,,,,,,
292786,2022-12-01_00h22.15.315,vts_reward_expectancy_bt,2022.2.4,MacIntel,58.82352941,Safari,1470,956,,,,,0,522,,,,,,,,,,,,,,,,,139,S,star,1,0,,,,,,,,,,,,,,,,repeat,letter,lettRpt,k,1.052,noRew,,,,,,0,20,0,20,0,1,,,,,,,,,,,,,,,,,
292786,2022-12-01_00h22.15.315,vts_reward_expectancy_bt,2022.2.4,MacIntel,58.82352941,Safari,1470,956,,,,,0,522,,,,,,,,,,,,,,,,,132,Y,triangle,1,0,,,,,,,,,,,,,,,,switch,number,numSwt,d,0.712,noRew,,,,,,0,21,0,21,0,1,,,,,,,,,,,,,,,,,
292786,2022-12-01_00h22.15.315,vts_reward_expectancy_bt,2022.2.4,MacIntel,58.82352941,Safari,1470,956,,,,,0,522,,,,,,,,,,,,,,,,,181,D,circle,1,0,,,,,,,,,,,,,,,,repeat,number,numRpt,f,1.156,noRew,,,,,,0,22,0,22,0,1,,,,,,,,,,,,,,,,,
292786,2022-12-01_00h22.15.315,vts_reward_expectancy_bt,2022.2.4,MacIntel,58.82352941,Safari,1470,956,,,,,0,522,,,,,,,,,,,,,,,,,160,B,hexagon,1,0,,,,,,,,,,,,,,,,switch,letter,lettSwt,j,0.759,noRew,,,,,,0,23,0,23,0,1,,,,,,,,,,,,,,,,,
292786,2022-12-01_00h22.15.315,vts_reward_expectancy_bt,2022.2.4,MacIntel,58.82352941,Safari,1470,956,,,,,0,522,,,,,,,,,,,,,,,,,125,H,hexagon,1,0,,,,,,,,,,,,,,,,switch,number,numSwt,d,1.174,noRew,,,,,,0,24,0,24,0,1,,,,,,,,,,,,,,,,,
292786,2022-12-01_00h22.15.315,vts_reward_expectancy_bt,2022.2.4,MacIntel,58.82352941,Safari,1470,956,,,,,0,522,,,,,,,,,,,,,,,,,139,F,star,1,0,,,,,,,,,,,,,,,,switch,letter,lettSwt,j,1.341,noRew,,,,,,0,25,0,25,0,1,,,,,,,,,,,,,,,,,
292786,2022-12-01_00h22.15.315,vts_reward_expectancy_bt,2022.2.4,MacIntel,58.82352941,Safari,1470,956,,,,,0,522,,,,,,,,,,,,,,,,,146,W,circle,1,0,,,,,,,,,,,,,,,,switch,number,numSwt,d,1.557,noRew,,,,,,0,26,0,26,0,1,,,,,,,,,,,,,,,,,
292786,2022-12-01_00h22.15.315,vts_reward_expectancy_bt,2022.2.4,MacIntel,58.82352941,Safari,1470,956,,,,,0,522,,,,,,,,,,,,,,,,,132,B,triangle,1,0,,,,,,,,,,,,,,,,repeat,number,numRpt,d,2.572,noRew,,,,,,0,27,0,27,0,1,,,,,,,,,,,,,,,,,
292786,2022-12-01_00h22.15.315,vts_reward_expectancy_bt,2022.2.4,MacIntel,58.82352941,Safari,1470,956,,,,,0,522,,,,,,,,,,,,,,,,,174,D,star,1,0,,,,,,,,,,,,,,,,repeat,number,numRpt,f,1.746,noRew,,,,,,0,28,0,28,0,1,,,,,,,,,,,,,,,,,
292786,2022-12-01_00h22.15.315,vts_reward_expectancy_bt,2022.2.4,MacIntel,58.82352941,Safari,1470,956,,,,,0,522,,,,,,,,,,,,,,,,,160,B,circle,1,0,,,,,,,,,,,,,,,,repeat,number,numRpt,f,2.054,noRew,,,,,,0,29,0,29,0,1,,,,,,,,,,,,,,,,,
292786,2022-12-01_00h22.15.315,vts_reward_expectancy_bt,2022.2.4,MacIntel,58.82352941,Safari,1470,956,,,,,0,522,,,,,,,,,,,,,,,,,125,S,triangle,1,0,,,,,,,,,,,,,,,,repeat,number,numRpt,d,2.893,noRew,,,,,,0,30,0,30,0,1,,,,,,,,,,,,,,,,,
292786,2022-12-01_00h22.15.315,vts_reward_expectancy_bt,2022.2.4,MacIntel,58.82352941,Safari,1470,956,,,,,0,522,,,,,,,,,,,,,,,,,132,Y,hexagon,1,0,,,,,,,,,,,,,,,,switch,letter,lettSwt,k,0.876,noRew,,,,,,0,31,0,31,0,1,,,,,,,,,,,,,,,,,
292786,2022-12-01_00h22.15.315,vts_reward_expectancy_bt,2022.2.4,MacIntel,58.82352941,Safari,1470,956,,,,,0,522,,,,,,,,,,,,,,,,,132,S,triangle,1,0,,,,,,,,,,,,,,,,repeat,letter,lettRpt,k,1.084,noRew,,,,,,0,32,0,32,0,1,,,,,,,,,,,,,,,,,
292786,2022-12-01_00h22.15.315,vts_reward_expectancy_bt,2022.2.4,MacIntel,58.82352941,Safari,1470,956,,,,,0,522,,,,,,,,,,,,,,,,,167,D,circle,1,0,,,,,,,,,,,,,,,,repeat,letter,lettRpt,j,1.487,noRew,,,,,,0,33,0,33,0,1,,,,,,,,,,,,,,,,,
292786,2022-12-01_00h22.15.315,vts_reward_expectancy_bt,2022.2.4,MacIntel,58.82352941,Safari,1470,956,,,,,0,522,,,,,,,,,,,,,,,,,125,F,circle,1,0,,,,,,,,,,,,,,,,repeat,letter,lettRpt,j,2.963,noRew,,,,,,0,34,0,34,0,1,,,,,,,,,,,,,,,,,
292786,2022-12-01_00h22.15.315,vts_reward_expectancy_bt,2022.2.4,MacIntel,58.82352941,Safari,1470,956,,,,,0,522,,,,,,,,,,,,,,,,,160,Y,star,1,0,,,,,,,,,,,,,,,,repeat,letter,lettRpt,k,0.808,noRew,,,,,,0,35,0,35,0,1,,,,,,,,,,,,,,,,,
292786,2022-12-01_00h22.15.315,vts_reward_expectancy_bt,2022.2.4,MacIntel,58.82352941,Safari,1470,956,,,,,0,522,,,,,,,,,,,,,,,,,146,Y,star,1,0,,,,,,,,,,,,,,,,repeat,letter,lettRpt,k,1.22,noRew,,,,,,0,36,0,36,0,1,,,,,,,,,,,,,,,,,
292786,2022-12-01_00h22.15.315,vts_reward_expectancy_bt,2022.2.4,MacIntel,58.82352941,Safari,1470,956,,,,,0,522,,,,,,,,,,,,,,,,,139,D,hexagon,1,0,,,,,,,,,,,,,,,,repeat,letter,lettRpt,j,0.846,noRew,,,,,,0,37,0,37,0,1,,,,,,,,,,,,,,,,,
292786,2022-12-01_00h22.15.315,vts_reward_expectancy_bt,2022.2.4,MacIntel,58.82352941,Safari,1470,956,,,,,0,522,,,,,,,,,,,,,,,,,132,U,hexagon,1,0,,,,,,,,,,,,,,,,repeat,letter,lettRpt,k,1.741,noRew,,,,,,0,38,0,38,0,1,,,,,,,,,,,,,,,,,
292786,2022-12-01_00h22.15.315,vts_reward_expectancy_bt,2022.2.4,MacIntel,58.82352941,Safari,1470,956,,,,,0,522,,,,,,,,,,,,,,,,,174,S,circle,1,0,,,,,,,,,,,,,,,,repeat,letter,lettRpt,k,1.318,noRew,,,,,,0,39,0,39,0,1,,,,,,,,,,,,,,,,,
292786,2022-12-01_00h22.15.315,vts_reward_expectancy_bt,2022.2.4,MacIntel,58.82352941,Safari,1470,956,,,,,0,522,,,,,,,,,,,,,,,,,167,S,triangle,1,0,,,,,,,,,,,,,,,,switch,number,numSwt,f,1.446,noRew,,,,,,0,40,0,40,0,1,,,,,,,,,,,,,,,,,
292786,2022-12-01_00h22.15.315,vts_reward_expectancy_bt,2022.2.4,MacIntel,58.82352941,Safari,1470,956,,,,,0,522,,,,,,,,,,,,,,,,,132,F,circle,1,0,,,,,,,,,,,,,,,,repeat,number,numRpt,d,0.919,noRew,,,,,,0,41,0,41,0,1,,,,,,,,,,,,,,,,,
292786,2022-12-01_00h22.15.315,vts_reward_expectancy_bt,2022.2.4,MacIntel,58.82352941,Safari,1470,956,,,,,0,522,,,,,,,,,,,,,,,,,146,U,hexagon,1,0,,,,,,,,,,,,,,,,repeat,number,numRpt,d,1.075,noRew,,,,,,0,42,0,42,0,1,,,,,,,,,,,,,,,,,
292786,2022-12-01_00h22.15.315,vts_reward_expectancy_bt,2022.2.4,MacIntel,58.82352941,Safari,1470,956,,,,,0,522,,,,,,,,,,,,,,,,,160,B,star,1,0,,,,,,,,,,,,,,,,repeat,number,numRpt,f,0.923,noRew,,,,,,0,43,0,43,0,1,,,,,,,,,,,,,,,,,
292786,2022-12-01_00h22.15.315,vts_reward_expectancy_bt,2022.2.4,MacIntel,58.82352941,Safari,1470,956,,,,,0,522,,,,,,,,,,,,,,,,,139,F,circle,1,0,,,,,,,,,,,,,,,,repeat,number,numRpt,d,1.491,noRew,,,,,,0,44,0,44,0,1,,,,,,,,,,,,,,,,,
292786,2022-12-01_00h22.15.315,vts_reward_expectancy_bt,2022.2.4,MacIntel,58.82352941,Safari,1470,956,,,,,0,522,,,,,,,,,,,,,,,,,146,D,triangle,1,0,,,,,,,,,,,,,,,,repeat,number,numRpt,d,0.975,noRew,,,,,,0,45,0,45,0,1,,,,,,,,,,,,,,,,,
292786,2022-12-01_00h22.15.315,vts_reward_expectancy_bt,2022.2.4,MacIntel,58.82352941,Safari,1470,956,,,,,0,522,,,,,,,,,,,,,,,,,132,B,hexagon,1,0,,,,,,,,,,,,,,,,repeat,number,numRpt,d,0.906,noRew,,,,,,0,46,0,46,0,1,,,,,,,,,,,,,,,,,
292786,2022-12-01_00h22.15.315,vts_reward_expectancy_bt,2022.2.4,MacIntel,58.82352941,Safari,1470,956,,,,,0,522,,,,,,,,,,,,,,,,,181,S,star,1,0,,,,,,,,,,,,,,,,repeat,number,numRpt,f,1.015,noRew,,,,,,0,47,0,47,0,1,,,,,,,,,,,,,,,,,
292786,2022-12-01_00h22.15.315,vts_reward_expectancy_bt,2022.2.4,MacIntel,58.82352941,Safari,1470,956,,,,,0,522,,,,,,,,,,,,,,,,,146,S,hexagon,1,0,,,,,,,,,,,,,,,,repeat,number,numRpt,d,1.927,noRew,,,,,,0,48,0,48,0,1,,,,,,,,,,,,,,,,,
292786,2022-12-01_00h22.15.315,vts_reward_expectancy_bt,2022.2.4,MacIntel,58.82352941,Safari,1470,956,,,,,0,522,,,,,,,,,,,,,,,,,167,H,triangle,1,0,,,,,,,,,,,,,,,,switch,letter,lettSwt,j,1.39,noRew,,,,,,0,49,0,49,0,1,,,,,,,,,,,,,,,,,
292786,2022-12-01_00h22.15.315,vts_reward_expectancy_bt,2022.2.4,MacIntel,58.82352941,Safari,1470,956,,,,,0,522,,,,,,,,,,,,,,,,,125,Y,star,1,0,,,,,,,,,,,,,,,,repeat,letter,lettRpt,k,1.37,noRew,,,,,,0,50,0,50,0,1,,,,,,,,,,,,,,,,,
292786,2022-12-01_00h22.15.315,vts_reward_expectancy_bt,2022.2.4,MacIntel,58.82352941,Safari,1470,956,,,,,0,522,,,,,,,,,,,,,,,,,181,W,hexagon,1,0,,,,,,,,,,,,,,,,repeat,letter,lettRpt,k,1.956,noRew,,,,,,0,51,0,51,0,1,,,,,,,,,,,,,,,,,
292786,2022-12-01_00h22.15.315,vts_reward_expectancy_bt,2022.2.4,MacIntel,58.82352941,Safari,1470,956,,,,,0,522,,,,,,,,,,,,,,,,,160,S,circle,1,0,,,,,,,,,,,,,,,,switch,number,numSwt,f,0.741,noRew,,,,,,0,52,0,52,0,1,,,,,,,,,,,,,,,,,
292786,2022-12-01_00h22.15.315,vts_reward_expectancy_bt,2022.2.4,MacIntel,58.82352941,Safari,1470,956,,,,,0,522,,,,,,,,,,,,,,,,,139,Y,triangle,1,0,,,,,,,,,,,,,,,,switch,letter,lettSwt,k,1.489,noRew,,,,,,0,53,0,53,0,1,,,,,,,,,,,,,,,,,
292786,2022-12-01_00h22.15.315,vts_reward_expectancy_bt,2022.2.4,MacIntel,58.82352941,Safari,1470,956,,,,,0,522,,,,,,,,,,,,,,,,,146,B,hexagon,1,0,,,,,,,,,,,,,,,,switch,number,numSwt,d,1.29,noRew,,,,,,0,54,0,54,0,1,,,,,,,,,,,,,,,,,
292786,2022-12-01_00h22.15.315,vts_reward_expectancy_bt,2022.2.4,MacIntel,58.82352941,Safari,1470,956,,,,,0,522,,,,,,,,,,,,,,,,,167,W,star,1,0,,,,,,,,,,,,,,,,repeat,number,numRpt,f,1.182,noRew,,,,,,0,55,0,55,0,1,,,,,,,,,,,,,,,,,
292786,2022-12-01_00h22.15.315,vts_reward_expectancy_bt,2022.2.4,MacIntel,58.82352941,Safari,1470,956,,,,,0,522,,,,,,,,,,,,,,,,,132,Y,hexagon,1,0,,,,,,,,,,,,,,,,repeat,number,numRpt,d,1.319,noRew,,,,,,0,56,0,56,0,1,,,,,,,,,,,,,,,,,
292786,2022-12-01_00h22.15.315,vts_reward_expectancy_bt,2022.2.4,MacIntel,58.82352941,Safari,1470,956,,,,,0,522,,,,,,,,,,,,,,,,,146,F,triangle,1,0,,,,,,,,,,,,,,,,repeat,number,numRpt,d,2.953,noRew,,,,,,0,57,0,57,0,1,,,,,,,,,,,,,,,,,
292786,2022-12-01_00h22.15.315,vts_reward_expectancy_bt,2022.2.4,MacIntel,58.82352941,Safari,1470,956,,,,,0,522,,,,,,,,,,,,,,,,,139,U,star,1,0,,,,,,,,,,,,,,,,repeat,number,numRpt,d,0.943,noRew,,,,,,0,58,0,58,0,1,,,,,,,,,,,,,,,,,
292786,2022-12-01_00h22.15.315,vts_reward_expectancy_bt,2022.2.4,MacIntel,58.82352941,Safari,1470,956,,,,,0,522,,,,,,,,,,,,,,,,,174,H,hexagon,1,0,,,,,,,,,,,,,,,,repeat,number,numRpt,f,2.385,noRew,,,,,,0,59,0,59,0,1,,,,,,,,,,,,,,,,,
292786,2022-12-01_00h22.15.315,vts_reward_expectancy_bt,2022.2.4,MacIntel,58.82352941,Safari,1470,956,,,,,0,522,,,,,,,,,,,,,,,,,125,U,triangle,1,0,,,,,,,,,,,,,,,,switch,letter,lettSwt,k,1.183,noRew,,,,,,0,60,0,60,0,1,,,,,,,,,,,,,,,,,
292786,2022-12-01_00h22.15.315,vts_reward_expectancy_bt,2022.2.4,MacIntel,58.82352941,Safari,1470,956,,,,,0,522,,,,,,,,,,,,,,,,,132,S,star,1,0,,,,,,,,,,,,,,,,repeat,letter,lettRpt,k,1.154,noRew,,,,,,0,61,0,61,0,1,,,,,,,,,,,,,,,,,
292786,2022-12-01_00h22.15.315,vts_reward_expectancy_bt,2022.2.4,MacIntel,58.82352941,Safari,1470,956,,,,,0,522,,,,,,,,,,,,,,,,,139,F,hexagon,1,0,,,,,,,,,,,,,,,,repeat,letter,lettRpt,j,1.574,noRew,,,,,,0,62,0,62,0,1,,,,,,,,,,,,,,,,,
292786,2022-12-01_00h22.15.315,vts_reward_expectancy_bt,2022.2.4,MacIntel,58.82352941,Safari,1470,956,,,,,0,522,,,,,,,,,,,,,,,,,174,Y,star,1,0,,,,,,,,,,,,,,,,repeat,letter,lettRpt,k,0.888,noRew,,,,,,0,63,0,63,0,1,,,,,,,,,,,,,,,,,
292786,2022-12-01_00h22.15.315,vts_reward_expectancy_bt,2022.2.4,MacIntel,58.82352941,Safari,1470,956,,,,,,,,,,,,,,,,,,,,,,,,,,,,,,,,,,,,,,,,,,,,,,,,,,,,,,,,,,,,,,,,,,,,,,,,,,,,
292786,2022-12-01_00h22.15.315,vts_reward_expectancy_bt,2022.2.4,MacIntel,58.82352941,Safari,1470,956,,,,,10,532,,,,,,,,,,,,,,,,,174,B,circle,1,0,,,,,,,,,,,,,,,,switch,number,numSwt,f,1.053,Hi,,,,,,0,,,,,,space,5.332,low,0,0,0,0,1,,,,,,,,,
292786,2022-12-01_00h22.15.315,vts_reward_expectancy_bt,2022.2.4,MacIntel,58.82352941,Safari,1470,956,,,,,1,533,,,,,,,,,,,,,,,,,146,H,star,1,0,,,,,,,,,,,,,,,,repeat,number,numRpt,d,0.999,Hi,,,,,,0,,,,,,,,low,1,0,1,0,1,,,,,,,,,
292786,2022-12-01_00h22.15.315,vts_reward_expectancy_bt,2022.2.4,MacIntel,58.82352941,Safari,1470,956,,,,,1,534,,,,,,,,,,,,,,,,,181,Y,triangle,1,0,,,,,,,,,,,,,,,,repeat,number,numRpt,f,0.768,Lo,,,,,,0,,,,,,,,low,2,0,2,0,1,,,,,,,,,
292786,2022-12-01_00h22.15.315,vts_reward_expectancy_bt,2022.2.4,MacIntel,58.82352941,Safari,1470,956,,,,,10,544,,,,,,,,,,,,,,,,,125,W,hexagon,1,0,,,,,,,,,,,,,,,,switch,letter,lettSwt,k,0.909,Lo,,,,,,0,,,,,,,,low,3,0,3,0,1,,,,,,,,,
292786,2022-12-01_00h22.15.315,vts_reward_expectancy_bt,2022.2.4,MacIntel,58.82352941,Safari,1470,956,,,,,1,545,,,,,,,,,,,,,,,,,132,S,circle,1,0,,,,,,,,,,,,,,,,repeat,letter,lettRpt,k,0.711,Hi,,,,,,0,,,,,,,,low,4,0,4,0,1,,,,,,,,,
292786,2022-12-01_00h22.15.315,vts_reward_expectancy_bt,2022.2.4,MacIntel,58.82352941,Safari,1470,956,,,,,10,555,,,,,,,,,,,,,,,,,139,D,star,1,0,,,,,,,,,,,,,,,,switch,number,numSwt,d,0.808,Hi,,,,,,0,,,,,,,,low,5,0,5,0,1,,,,,,,,,
292786,2022-12-01_00h22.15.315,vts_reward_expectancy_bt,2022.2.4,MacIntel,58.82352941,Safari,1470,956,,,,,0,555,,,,,,,,,,,,,,,,,167,U,triangle,0,0,,,,,,,,,,,,,,,,switch,letter,NA,j,0.457,Hi,,,,,,0,,,,,,,,low,6,0,6,0,1,,,,,,,,,
292786,2022-12-01_00h22.15.315,vts_reward_expectancy_bt,2022.2.4,MacIntel,58.82352941,Safari,1470,956,,,,,1,556,,,,,,,,,,,,,,,,,160,F,hexagon,1,1,,,,,,,,,,,,,,,,repeat,letter,lettRpt,j,0.675,Lo,,,,,,0,,,,,,,,low,7,0,7,0,1,,,,,,,,,
292786,2022-12-01_00h22.15.315,vts_reward_expectancy_bt,2022.2.4,MacIntel,58.82352941,Safari,1470,956,,,,,1,557,,,,,,,,,,,,,,,,,174,B,circle,1,0,,,,,,,,,,,,,,,,repeat,letter,lettRpt,j,0.61,Hi,,,,,,0,,,,,,,,low,8,0,8,0,1,,,,,,,,,
292786,2022-12-01_00h22.15.315,vts_reward_expectancy_bt,2022.2.4,MacIntel,58.82352941,Safari,1470,956,,,,,10,567,,,,,,,,,,,,,,,,,146,H,star,1,0,,,,,,,,,,,,,,,,repeat,letter,lettRpt,j,0.833,Hi,,,,,,0,,,,,,,,low,9,0,9,0,1,,,,,,,,,
292786,2022-12-01_00h22.15.315,vts_reward_expectancy_bt,2022.2.4,MacIntel,58.82352941,Safari,1470,956,,,,,10,577,,,,,,,,,,,,,,,,,181,Y,hexagon,1,0,,,,,,,,,,,,,,,,switch,number,numSwt,f,0.79,Lo,,,,,,0,,,,,,,,low,10,0,10,0,1,,,,,,,,,
292786,2022-12-01_00h22.15.315,vts_reward_expectancy_bt,2022.2.4,MacIntel,58.82352941,Safari,1470,956,,,,,10,587,,,,,,,,,,,,,,,,,125,W,triangle,1,0,,,,,,,,,,,,,,,,repeat,number,numRpt,d,0.541,Lo,,,,,,0,,,,,,,,low,11,0,11,0,1,,,,,,,,,
292786,2022-12-01_00h22.15.315,vts_reward_expectancy_bt,2022.2.4,MacIntel,58.82352941,Safari,1470,956,,,,,1,588,,,,,,,,,,,,,,,,,132,S,triangle,1,0,,,,,,,,,,,,,,,,repeat,number,numRpt,d,0.792,Lo,,,,,,0,,,,,,,,low,12,0,12,0,1,,,,,,,,,
292786,2022-12-01_00h22.15.315,vts_reward_expectancy_bt,2022.2.4,MacIntel,58.82352941,Safari,1470,956,,,,,1,589,,,,,,,,,,,,,,,,,139,D,hexagon,1,0,,,,,,,,,,,,,,,,switch,letter,lettSwt,j,0.654,Lo,,,,,,0,,,,,,,,low,13,0,13,0,1,,,,,,,,,
292786,2022-12-01_00h22.15.315,vts_reward_expectancy_bt,2022.2.4,MacIntel,58.82352941,Safari,1470,956,,,,,1,590,,,,,,,,,,,,,,,,,167,U,circle,1,0,,,,,,,,,,,,,,,,repeat,letter,lettRpt,k,0.67,Hi,,,,,,0,,,,,,,,low,14,0,14,0,1,,,,,,,,,
292786,2022-12-01_00h22.15.315,vts_reward_expectancy_bt,2022.2.4,MacIntel,58.82352941,Safari,1470,956,,,,,1,591,,,,,,,,,,,,,,,,,160,F,star,1,0,,,,,,,,,,,,,,,,repeat,letter,lettRpt,j,0.568,Hi,,,,,,0,,,,,,,,low,15,0,15,0,1,,,,,,,,,
292786,2022-12-01_00h22.15.315,vts_reward_expectancy_bt,2022.2.4,MacIntel,58.82352941,Safari,1470,956,,,,,1,592,,,,,,,,,,,,,,,,,181,U,triangle,1,0,,,,,,,,,,,,,,,,switch,number,numSwt,f,0.641,Lo,,,,,,0,,,,,,,,low,16,0,16,0,1,,,,,,,,,
292786,2022-12-01_00h22.15.315,vts_reward_expectancy_bt,2022.2.4,MacIntel,58.82352941,Safari,1470,956,,,,,10,602,,,,,,,,,,,,,,,,,125,D,hexagon,1,0,,,,,,,,,,,,,,,,repeat,number,numRpt,d,1.14,Lo,,,,,,0,,,,,,,,low,17,0,17,0,1,,,,,,,,,
292786,2022-12-01_00h22.15.315,vts_reward_expectancy_bt,2022.2.4,MacIntel,58.82352941,Safari,1470,956,,,,,0,602,,,,,,,,,,,,,,,,,160,B,circle,0,0,,,,,,,,,,,,,,,,repeat,number,NA,d,1.089,Lo,,,,,,0,,,,,,,,low,18,0,18,0,1,,,,,,,,,
292786,2022-12-01_00h22.15.315,vts_reward_expectancy_bt,2022.2.4,MacIntel,58.82352941,Safari,1470,956,,,,,10,612,,,,,,,,,,,,,,,,,139,W,star,1,1,,,,,,,,,,,,,,,,repeat,number,numRpt,d,0.909,Hi,,,,,,0,,,,,,,,low,19,0,19,0,1,,,,,,,,,
292786,2022-12-01_00h22.15.315,vts_reward_expectancy_bt,2022.2.4,MacIntel,58.82352941,Safari,1470,956,,,,,10,622,,,,,,,,,,,,,,,,,174,Y,star,1,0,,,,,,,,,,,,,,,,switch,letter,lettSwt,k,0.715,Hi,,,,,,0,,,,,,,,low,20,0,20,0,1,,,,,,,,,
292786,2022-12-01_00h22.15.315,vts_reward_expectancy_bt,2022.2.4,MacIntel,58.82352941,Safari,1470,956,,,,,1,623,,,,,,,,,,,,,,,,,132,F,triangle,1,0,,,,,,,,,,,,,,,,repeat,letter,lettRpt,j,0.564,Lo,,,,,,0,,,,,,,,low,21,0,21,0,1,,,,,,,,,
292786,2022-12-01_00h22.15.315,vts_reward_expectancy_bt,2022.2.4,MacIntel,58.82352941,Safari,1470,956,,,,,10,633,,,,,,,,,,,,,,,,,167,S,circle,1,0,,,,,,,,,,,,,,,,repeat,letter,lettRpt,k,0.808,Hi,,,,,,0,,,,,,,,low,22,0,22,0,1,,,,,,,,,
292786,2022-12-01_00h22.15.315,vts_reward_expectancy_bt,2022.2.4,MacIntel,58.82352941,Safari,1470,956,,,,,1,634,,,,,,,,,,,,,,,,,146,H,hexagon,1,0,,,,,,,,,,,,,,,,repeat,letter,lettRpt,j,1.032,Lo,,,,,,0,,,,,,,,low,23,0,23,0,1,,,,,,,,,
292786,2022-12-01_00h22.15.315,vts_reward_expectancy_bt,2022.2.4,MacIntel,58.82352941,Safari,1470,956,,,,,1,635,,,,,,,,,,,,,,,,,146,U,hexagon,1,0,,,,,,,,,,,,,,,,repeat,letter,lettRpt,k,1.182,Lo,,,,,,0,,,,,,,,low,24,0,24,0,1,,,,,,,,,
292786,2022-12-01_00h22.15.315,vts_reward_expectancy_bt,2022.2.4,MacIntel,58.82352941,Safari,1470,956,,,,,10,645,,,,,,,,,,,,,,,,,125,B,star,1,0,,,,,,,,,,,,,,,,repeat,letter,lettRpt,j,1.038,Hi,,,,,,0,,,,,,,,low,25,0,25,0,1,,,,,,,,,
292786,2022-12-01_00h22.15.315,vts_reward_expectancy_bt,2022.2.4,MacIntel,58.82352941,Safari,1470,956,,,,,1,646,,,,,,,,,,,,,,,,,132,H,circle,1,0,,,,,,,,,,,,,,,,switch,number,numSwt,d,1.043,Hi,,,,,,0,,,,,,,,low,26,0,26,0,1,,,,,,,,,
292786,2022-12-01_00h22.15.315,vts_reward_expectancy_bt,2022.2.4,MacIntel,58.82352941,Safari,1470,956,,,,,10,656,,,,,,,,,,,,,,,,,167,W,triangle,1,0,,,,,,,,,,,,,,,,repeat,number,numRpt,f,0.957,Lo,,,,,,0,,,,,,,,low,27,0,27,0,1,,,,,,,,,
292786,2022-12-01_00h22.15.315,vts_reward_expectancy_bt,2022.2.4,MacIntel,58.82352941,Safari,1470,956,,,,,0,656,,,,,,,,,,,,,,,,,174,D,circle,1,0,,,,,,,,,,,,,,,,repeat,number,numRpt,f,1.477,Hi,,,,,,0,,,,,,,,low,28,0,28,0,1,,,,,,,,,
292786,2022-12-01_00h22.15.315,vts_reward_expectancy_bt,2022.2.4,MacIntel,58.82352941,Safari,1470,956,,,,,1,657,,,,,,,,,,,,,,,,,160,S,hexagon,1,0,,,,,,,,,,,,,,,,repeat,number,numRpt,f,0.888,Lo,,,,,,0,,,,,,,,low,29,0,29,0,1,,,,,,,,,
292786,2022-12-01_00h22.15.315,vts_reward_expectancy_bt,2022.2.4,MacIntel,58.82352941,Safari,1470,956,,,,,10,667,,,,,,,,,,,,,,,,,181,Y,triangle,1,0,,,,,,,,,,,,,,,,repeat,number,numRpt,f,0.667,Lo,,,,,,0,,,,,,,,low,30,0,30,0,1,,,,,,,,,
292786,2022-12-01_00h22.15.315,vts_reward_expectancy_bt,2022.2.4,MacIntel,58.82352941,Safari,1470,956,,,,,1,668,,,,,,,,,,,,,,,,,139,F,star,1,0,,,,,,,,,,,,,,,,repeat,number,numRpt,d,0.695,Hi,,,,,,0,,,,,,,,low,31,0,31,0,1,,,,,,,,,
292786,2022-12-01_00h22.15.315,vts_reward_expectancy_bt,2022.2.4,MacIntel,58.82352941,Safari,1470,956,,,,,1,669,,,,,,,,,,,,,,,,,181,B,hexagon,1,0,,,,,,,,,,,,,,,,repeat,number,numRpt,f,1.065,Lo,,,,,,1,,,,,,space,9.72,low,0,0,0,0,1,,,,,,,,,
292786,2022-12-01_00h22.15.315,vts_reward_expectancy_bt,2022.2.4,MacIntel,58.82352941,Safari,1470,956,,,,,10,679,,,,,,,,,,,,,,,,,174,Y,star,1,0,,,,,,,,,,,,,,,,repeat,number,numRpt,f,0.461,Hi,,,,,,1,,,,,,,,low,1,0,1,0,1,,,,,,,,,
292786,2022-12-01_00h22.15.315,vts_reward_expectancy_bt,2022.2.4,MacIntel,58.82352941,Safari,1470,956,,,,,1,680,,,,,,,,,,,,,,,,,125,D,circle,1,0,,,,,,,,,,,,,,,,switch,letter,lettSwt,j,0.455,Hi,,,,,,1,,,,,,,,low,2,0,2,0,1,,,,,,,,,
292786,2022-12-01_00h22.15.315,vts_reward_expectancy_bt,2022.2.4,MacIntel,58.82352941,Safari,1470,956,,,,,1,681,,,,,,,,,,,,,,,,,132,W,triangle,1,0,,,,,,,,,,,,,,,,repeat,letter,lettRpt,k,0.489,Lo,,,,,,1,,,,,,,,low,3,0,3,0,1,,,,,,,,,
292786,2022-12-01_00h22.15.315,vts_reward_expectancy_bt,2022.2.4,MacIntel,58.82352941,Safari,1470,956,,,,,1,682,,,,,,,,,,,,,,,,,146,H,hexagon,1,0,,,,,,,,,,,,,,,,repeat,letter,lettRpt,j,0.632,Lo,,,,,,1,,,,,,,,low,4,0,4,0,1,,,,,,,,,
292786,2022-12-01_00h22.15.315,vts_reward_expectancy_bt,2022.2.4,MacIntel,58.82352941,Safari,1470,956,,,,,0,682,,,,,,,,,,,,,,,,,160,U,star,1,0,,,,,,,,,,,,,,,,repeat,letter,lettRpt,k,1.21,Hi,,,,,,1,,,,,,,,low,5,0,5,0,1,,,,,,,,,
292786,2022-12-01_00h22.15.315,vts_reward_expectancy_bt,2022.2.4,MacIntel,58.82352941,Safari,1470,956,,,,,0,682,,,,,,,,,,,,,,,,,167,S,circle,1,0,,,,,,,,,,,,,,,,repeat,letter,lettRpt,k,0.905,Hi,,,,,,1,,,,,,,,low,6,0,6,0,1,,,,,,,,,
292786,2022-12-01_00h22.15.315,vts_reward_expectancy_bt,2022.2.4,MacIntel,58.82352941,Safari,1470,956,,,,,1,683,,,,,,,,,,,,,,,,,139,F,triangle,1,0,,,,,,,,,,,,,,,,switch,number,numSwt,d,0.6,Lo,,,,,,1,,,,,,,,low,7,0,7,0,1,,,,,,,,,
292786,2022-12-01_00h22.15.315,vts_reward_expectancy_bt,2022.2.4,MacIntel,58.82352941,Safari,1470,956,,,,,0,683,,,,,,,,,,,,,,,,,181,B,star,1,0,,,,,,,,,,,,,,,,switch,letter,lettSwt,j,0.956,Hi,,,,,,1,,,,,,,,low,8,0,8,0,1,,,,,,,,,
292786,2022-12-01_00h22.15.315,vts_reward_expectancy_bt,2022.2.4,MacIntel,58.82352941,Safari,1470,956,,,,,10,693,,,,,,,,,,,,,,,,,174,Y,triangle,1,0,,,,,,,,,,,,,,,,repeat,letter,lettRpt,k,1.937,Lo,,,,,,1,,,,,,,,low,9,0,9,0,1,,,,,,,,,
292786,2022-12-01_00h22.15.315,vts_reward_expectancy_bt,2022.2.4,MacIntel,58.82352941,Safari,1470,956,,,,,10,703,,,,,,,,,,,,,,,,,125,D,circle,1,0,,,,,,,,,,,,,,,,switch,number,numSwt,d,0.621,Hi,,,,,,1,,,,,,,,low,10,0,10,0,1,,,,,,,,,
292786,2022-12-01_00h22.15.315,vts_reward_expectancy_bt,2022.2.4,MacIntel,58.82352941,Safari,1470,956,,,,,1,704,,,,,,,,,,,,,,,,,132,W,hexagon,1,0,,,,,,,,,,,,,,,,repeat,number,numRpt,d,0.809,Lo,,,,,,1,,,,,,,,low,11,0,11,0,1,,,,,,,,,
292786,2022-12-01_00h22.15.315,vts_reward_expectancy_bt,2022.2.4,MacIntel,58.82352941,Safari,1470,956,,,,,10,714,,,,,,,,,,,,,,,,,146,H,hexagon,1,0,,,,,,,,,,,,,,,,repeat,number,numRpt,d,0.824,Lo,,,,,,1,,,,,,,,low,12,0,12,0,1,,,,,,,,,
292786,2022-12-01_00h22.15.315,vts_reward_expectancy_bt,2022.2.4,MacIntel,58.82352941,Safari,1470,956,,,,,10,724,,,,,,,,,,,,,,,,,160,U,star,1,0,,,,,,,,,,,,,,,,repeat,number,numRpt,f,0.462,Hi,,,,,,1,,,,,,,,low,13,0,13,0,1,,,,,,,,,
292786,2022-12-01_00h22.15.315,vts_reward_expectancy_bt,2022.2.4,MacIntel,58.82352941,Safari,1470,956,,,,,10,734,,,,,,,,,,,,,,,,,167,S,triangle,1,0,,,,,,,,,,,,,,,,repeat,number,numRpt,f,0.659,Lo,,,,,,1,,,,,,,,low,14,0,14,0,1,,,,,,,,,
292786,2022-12-01_00h22.15.315,vts_reward_expectancy_bt,2022.2.4,MacIntel,58.82352941,Safari,1470,956,,,,,0,734,,,,,,,,,,,,,,,,,139,F,circle,1,0,,,,,,,,,,,,,,,,switch,letter,lettSwt,j,1.255,Hi,,,,,,1,,,,,,,,low,15,0,15,0,1,,,,,,,,,
292786,2022-12-01_00h22.15.315,vts_reward_expectancy_bt,2022.2.4,MacIntel,58.82352941,Safari,1470,956,,,,,0,734,,,,,,,,,,,,,,,,,132,U,circle,1,0,,,,,,,,,,,,,,,,repeat,letter,lettRpt,k,0.921,Hi,,,,,,1,,,,,,,,low,16,0,16,0,1,,,,,,,,,
292786,2022-12-01_00h22.15.315,vts_reward_expectancy_bt,2022.2.4,MacIntel,58.82352941,Safari,1470,956,,,,,10,744,,,,,,,,,,,,,,,,,125,S,triangle,1,0,,,,,,,,,,,,,,,,repeat,letter,lettRpt,k,0.491,Lo,,,,,,1,,,,,,,,low,17,0,17,0,1,,,,,,,,,
292786,2022-12-01_00h22.15.315,vts_reward_expectancy_bt,2022.2.4,MacIntel,58.82352941,Safari,1470,956,,,,,1,745,,,,,,,,,,,,,,,,,174,Y,hexagon,1,0,,,,,,,,,,,,,,,,repeat,letter,lettRpt,k,0.679,Lo,,,,,,1,,,,,,,,low,18,0,18,0,1,,,,,,,,,
292786,2022-12-01_00h22.15.315,vts_reward_expectancy_bt,2022.2.4,MacIntel,58.82352941,Safari,1470,956,,,,,10,755,,,,,,,,,,,,,,,,,181,B,star,1,0,,,,,,,,,,,,,,,,repeat,letter,lettRpt,j,0.547,Hi,,,,,,1,,,,,,,,low,19,0,19,0,1,,,,,,,,,
292786,2022-12-01_00h22.15.315,vts_reward_expectancy_bt,2022.2.4,MacIntel,58.82352941,Safari,1470,956,,,,,10,765,,,,,,,,,,,,,,,,,167,W,hexagon,1,0,,,,,,,,,,,,,,,,switch,number,numSwt,f,0.458,Lo,,,,,,1,,,,,,,,low,20,0,20,0,1,,,,,,,,,
292786,2022-12-01_00h22.15.315,vts_reward_expectancy_bt,2022.2.4,MacIntel,58.82352941,Safari,1470,956,,,,,0,765,,,,,,,,,,,,,,,,,139,F,circle,0,0,,,,,,,,,,,,,,,,repeat,number,NA,f,0.769,Lo,,,,,,1,,,,,,,,low,21,0,21,0,1,,,,,,,,,
292786,2022-12-01_00h22.15.315,vts_reward_expectancy_bt,2022.2.4,MacIntel,58.82352941,Safari,1470,956,,,,,0,765,,,,,,,,,,,,,,,,,146,H,star,0,1,,,,,,,,,,,,,,,,repeat,number,NA,f,0.612,Lo,,,,,,1,,,,,,,,low,22,0,22,0,1,,,,,,,,,
292786,2022-12-01_00h22.15.315,vts_reward_expectancy_bt,2022.2.4,MacIntel,58.82352941,Safari,1470,956,,,,,1,766,,,,,,,,,,,,,,,,,160,D,triangle,1,1,,,,,,,,,,,,,,,,repeat,number,numRpt,f,0.575,Lo,,,,,,1,,,,,,,,low,23,0,23,0,1,,,,,,,,,
292786,2022-12-01_00h22.15.315,vts_reward_expectancy_bt,2022.2.4,MacIntel,58.82352941,Safari,1470,956,,,,,1,767,,,,,,,,,,,,,,,,,160,B,triangle,1,0,,,,,,,,,,,,,,,,repeat,number,numRpt,f,0.607,Lo,,,,,,1,,,,,,,,low,24,0,24,0,1,,,,,,,,,
292786,2022-12-01_00h22.15.315,vts_reward_expectancy_bt,2022.2.4,MacIntel,58.82352941,Safari,1470,956,,,,,10,777,,,,,,,,,,,,,,,,,181,W,star,1,0,,,,,,,,,,,,,,,,repeat,number,numRpt,f,0.554,Hi,,,,,,1,,,,,,,,low,25,0,25,0,1,,,,,,,,,
292786,2022-12-01_00h22.15.315,vts_reward_expectancy_bt,2022.2.4,MacIntel,58.82352941,Safari,1470,956,,,,,1,778,,,,,,,,,,,,,,,,,146,H,hexagon,1,0,,,,,,,,,,,,,,,,repeat,number,numRpt,d,1.312,Lo,,,,,,1,,,,,,,,low,26,0,26,0,1,,,,,,,,,
292786,2022-12-01_00h22.15.315,vts_reward_expectancy_bt,2022.2.4,MacIntel,58.82352941,Safari,1470,956,,,,,10,788,,,,,,,,,,,,,,,,,132,F,circle,1,0,,,,,,,,,,,,,,,,switch,letter,lettSwt,j,0.552,Hi,,,,,,1,,,,,,,,low,27,0,27,0,1,,,,,,,,,
292786,2022-12-01_00h22.15.315,vts_reward_expectancy_bt,2022.2.4,MacIntel,58.82352941,Safari,1470,956,,,,,0,788,,,,,,,,,,,,,,,,,139,Y,circle,1,0,,,,,,,,,,,,,,,,repeat,letter,lettRpt,k,0.76,Hi,,,,,,1,,,,,,,,low,28,0,28,0,1,,,,,,,,,
292786,2022-12-01_00h22.15.315,vts_reward_expectancy_bt,2022.2.4,MacIntel,58.82352941,Safari,1470,956,,,,,10,798,,,,,,,,,,,,,,,,,174,U,triangle,1,0,,,,,,,,,,,,,,,,repeat,letter,lettRpt,k,0.49,Lo,,,,,,1,,,,,,,,low,29,0,29,0,1,,,,,,,,,
292786,2022-12-01_00h22.15.315,vts_reward_expectancy_bt,2022.2.4,MacIntel,58.82352941,Safari,1470,956,,,,,10,808,,,,,,,,,,,,,,,,,167,D,star,1,0,,,,,,,,,,,,,,,,repeat,letter,lettRpt,j,0.658,Hi,,,,,,1,,,,,,,,low,30,0,30,0,1,,,,,,,,,
292786,2022-12-01_00h22.15.315,vts_reward_expectancy_bt,2022.2.4,MacIntel,58.82352941,Safari,1470,956,,,,,10,818,,,,,,,,,,,,,,,,,125,S,hexagon,1,0,,,,,,,,,,,,,,,,repeat,letter,lettRpt,k,0.512,Lo,,,,,,1,,,,,,,,low,31,0,31,0,1,,,,,,,,,
292786,2022-12-01_00h22.15.315,vts_reward_expectancy_bt,2022.2.4,MacIntel,58.82352941,Safari,1470,956,,,,,10,828,,,,,,,,,,,,,,,,,125,U,hexagon,1,0,,,,,,,,,,,,,,,,repeat,letter,lettRpt,k,0.909,Lo,,,,,,2,,,,,,space,2.744,low,0,0,0,0,1,,,,,,,,,
292786,2022-12-01_00h22.15.315,vts_reward_expectancy_bt,2022.2.4,MacIntel,58.82352941,Safari,1470,956,,,,,0,828,,,,,,,,,,,,,,,,,181,H,star,1,0,,,,,,,,,,,,,,,,repeat,letter,lettRpt,j,0.702,Hi,,,,,,2,,,,,,,,low,1,0,1,0,1,,,,,,,,,
292786,2022-12-01_00h22.15.315,vts_reward_expectancy_bt,2022.2.4,MacIntel,58.82352941,Safari,1470,956,,,,,0,828,,,,,,,,,,,,,,,,,167,S,circle,1,0,,,,,,,,,,,,,,,,switch,number,numSwt,f,1.369,Hi,,,,,,2,,,,,,,,low,2,0,2,0,1,,,,,,,,,
292786,2022-12-01_00h22.15.315,vts_reward_expectancy_bt,2022.2.4,MacIntel,58.82352941,Safari,1470,956,,,,,1,829,,,,,,,,,,,,,,,,,132,B,triangle,1,0,,,,,,,,,,,,,,,,switch,letter,lettSwt,j,0.583,Lo,,,,,,2,,,,,,,,low,3,0,3,0,1,,,,,,,,,
292786,2022-12-01_00h22.15.315,vts_reward_expectancy_bt,2022.2.4,MacIntel,58.82352941,Safari,1470,956,,,,,1,830,,,,,,,,,,,,,,,,,174,D,hexagon,1,0,,,,,,,,,,,,,,,,switch,number,numSwt,f,0.52,Lo,,,,,,2,,,,,,,,low,4,0,4,0,1,,,,,,,,,
292786,2022-12-01_00h22.15.315,vts_reward_expectancy_bt,2022.2.4,MacIntel,58.82352941,Safari,1470,956,,,,,0,830,,,,,,,,,,,,,,,,,146,Y,star,0,0,,,,,,,,,,,,,,,,repeat,number,NA,f,0.494,Lo,,,,,,2,,,,,,,,low,5,0,5,0,1,,,,,,,,,
292786,2022-12-01_00h22.15.315,vts_reward_expectancy_bt,2022.2.4,MacIntel,58.82352941,Safari,1470,956,,,,,0,830,,,,,,,,,,,,,,,,,139,F,circle,0,1,,,,,,,,,,,,,,,,switch,letter,NA,k,0.577,Lo,,,,,,2,,,,,,,,low,6,0,6,0,1,,,,,,,,,
292786,2022-12-01_00h22.15.315,vts_reward_expectancy_bt,2022.2.4,MacIntel,58.82352941,Safari,1470,956,,,,,1,831,,,,,,,,,,,,,,,,,160,W,triangle,1,1,,,,,,,,,,,,,,,,repeat,letter,lettRpt,k,0.555,Lo,,,,,,2,,,,,,,,low,7,0,7,0,1,,,,,,,,,
292786,2022-12-01_00h22.15.315,vts_reward_expectancy_bt,2022.2.4,MacIntel,58.82352941,Safari,1470,956,,,,,1,832,,,,,,,,,,,,,,,,,125,U,triangle,1,0,,,,,,,,,,,,,,,,repeat,letter,lettRpt,k,0.549,Lo,,,,,,2,,,,,,,,low,8,0,8,0,1,,,,,,,,,
292786,2022-12-01_00h22.15.315,vts_reward_expectancy_bt,2022.2.4,MacIntel,58.82352941,Safari,1470,956,,,,,0,832,,,,,,,,,,,,,,,,,181,H,circle,1,0,,,,,,,,,,,,,,,,switch,number,numSwt,f,0.563,Hi,,,,,,2,,,,,,,,low,9,0,9,0,1,,,,,,,,,
292786,2022-12-01_00h22.15.315,vts_reward_expectancy_bt,2022.2.4,MacIntel,58.82352941,Safari,1470,956,,,,,1,833,,,,,,,,,,,,,,,,,167,S,hexagon,1,0,,,,,,,,,,,,,,,,switch,letter,lettSwt,k,0.753,Lo,,,,,,2,,,,,,,,low,10,0,10,0,1,,,,,,,,,
292786,2022-12-01_00h22.15.315,vts_reward_expectancy_bt,2022.2.4,MacIntel,58.82352941,Safari,1470,956,,,,,0,833,,,,,,,,,,,,,,,,,132,B,star,1,0,,,,,,,,,,,,,,,,repeat,letter,lettRpt,j,0.587,Hi,,,,,,2,,,,,,,,low,11,0,11,0,1,,,,,,,,,
292786,2022-12-01_00h22.15.315,vts_reward_expectancy_bt,2022.2.4,MacIntel,58.82352941,Safari,1470,956,,,,,0,833,,,,,,,,,,,,,,,,,174,D,circle,1,0,,,,,,,,,,,,,,,,switch,number,numSwt,f,0.59,Hi,,,,,,2,,,,,,,,low,12,0,12,0,1,,,,,,,,,
292786,2022-12-01_00h22.15.315,vts_reward_expectancy_bt,2022.2.4,MacIntel,58.82352941,Safari,1470,956,,,,,10,843,,,,,,,,,,,,,,,,,146,Y,hexagon,1,0,,,,,,,,,,,,,,,,repeat,number,numRpt,d,0.521,Lo,,,,,,2,,,,,,,,low,13,0,13,0,1,,,,,,,,,
292786,2022-12-01_00h22.15.315,vts_reward_expectancy_bt,2022.2.4,MacIntel,58.82352941,Safari,1470,956,,,,,1,844,,,,,,,,,,,,,,,,,139,F,triangle,1,0,,,,,,,,,,,,,,,,repeat,number,numRpt,d,0.556,Lo,,,,,,2,,,,,,,,low,14,0,14,0,1,,,,,,,,,
292786,2022-12-01_00h22.15.315,vts_reward_expectancy_bt,2022.2.4,MacIntel,58.82352941,Safari,1470,956,,,,,10,854,,,,,,,,,,,,,,,,,160,W,star,1,0,,,,,,,,,,,,,,,,switch,letter,lettSwt,k,0.508,Hi,,,,,,2,,,,,,,,low,15,0,15,0,1,,,,,,,,,
292786,2022-12-01_00h22.15.315,vts_reward_expectancy_bt,2022.2.4,MacIntel,58.82352941,Safari,1470,956,,,,,1,855,,,,,,,,,,,,,,,,,174,W,circle,1,0,,,,,,,,,,,,,,,,repeat,letter,lettRpt,k,0.53,Hi,,,,,,2,,,,,,,,low,16,0,16,0,1,,,,,,,,,
292786,2022-12-01_00h22.15.315,vts_reward_expectancy_bt,2022.2.4,MacIntel,58.82352941,Safari,1470,956,,,,,0,855,,,,,,,,,,,,,,,,,160,U,hexagon,0,0,,,,,,,,,,,,,,,,repeat,letter,NA,j,0.724,Hi,,,,,,2,,,,,,,,low,17,0,17,0,1,,,,,,,,,
292786,2022-12-01_00h22.15.315,vts_reward_expectancy_bt,2022.2.4,MacIntel,58.82352941,Safari,1470,956,,,,,0,855,,,,,,,,,,,,,,,,,125,D,star,1,1,,,,,,,,,,,,,,,,repeat,letter,lettRpt,j,0.641,Hi,,,,,,2,,,,,,,,low,18,0,18,0,1,,,,,,,,,
292786,2022-12-01_00h22.15.315,vts_reward_expectancy_bt,2022.2.4,MacIntel,58.82352941,Safari,1470,956,,,,,10,865,,,,,,,,,,,,,,,,,132,Y,triangle,1,0,,,,,,,,,,,,,,,,repeat,letter,lettRpt,k,0.621,Lo,,,,,,2,,,,,,,,low,19,0,19,0,1,,,,,,,,,
292786,2022-12-01_00h22.15.315,vts_reward_expectancy_bt,2022.2.4,MacIntel,58.82352941,Safari,1470,956,,,,,1,866,,,,,,,,,,,,,,,,,139,H,triangle,1,0,,,,,,,,,,,,,,,,repeat,letter,lettRpt,j,0.678,Lo,,,,,,2,,,,,,,,low,20,0,20,0,1,,,,,,,,,
292786,2022-12-01_00h22.15.315,vts_reward_expectancy_bt,2022.2.4,MacIntel,58.82352941,Safari,1470,956,,,,,0,866,,,,,,,,,,,,,,,,,181,F,circle,1,0,,,,,,,,,,,,,,,,repeat,letter,lettRpt,j,1.099,Hi,,,,,,2,,,,,,,,low,21,0,21,0,1,,,,,,,,,
292786,2022-12-01_00h22.15.315,vts_reward_expectancy_bt,2022.2.4,MacIntel,58.82352941,Safari,1470,956,,,,,10,876,,,,,,,,,,,,,,,,,167,S,hexagon,1,0,,,,,,,,,,,,,,,,repeat,letter,lettRpt,k,0.555,Lo,,,,,,2,,,,,,,,low,22,0,22,0,1,,,,,,,,,
292786,2022-12-01_00h22.15.315,vts_reward_expectancy_bt,2022.2.4,MacIntel,58.82352941,Safari,1470,956,,,,,0,876,,,,,,,,,,,,,,,,,146,B,star,1,0,,,,,,,,,,,,,,,,repeat,letter,lettRpt,j,0.625,Hi,,,,,,2,,,,,,,,low,23,0,23,0,1,,,,,,,,,
292786,2022-12-01_00h22.15.315,vts_reward_expectancy_bt,2022.2.4,MacIntel,58.82352941,Safari,1470,956,,,,,1,877,,,,,,,,,,,,,,,,,174,F,triangle,1,0,,,,,,,,,,,,,,,,switch,number,numSwt,f,1.773,Lo,,,,,,2,,,,,,,,low,24,0,24,0,1,,,,,,,,,
292786,2022-12-01_00h22.15.315,vts_reward_expectancy_bt,2022.2.4,MacIntel,58.82352941,Safari,1470,956,,,,,10,887,,,,,,,,,,,,,,,,,146,W,hexagon,1,0,,,,,,,,,,,,,,,,repeat,number,numRpt,d,0.721,Lo,,,,,,2,,,,,,,,low,25,0,25,0,1,,,,,,,,,
292786,2022-12-01_00h22.15.315,vts_reward_expectancy_bt,2022.2.4,MacIntel,58.82352941,Safari,1470,956,,,,,0,887,,,,,,,,,,,,,,,,,181,D,star,1,0,,,,,,,,,,,,,,,,repeat,number,numRpt,f,1.175,Hi,,,,,,2,,,,,,,,low,26,0,26,0,1,,,,,,,,,
292786,2022-12-01_00h22.15.315,vts_reward_expectancy_bt,2022.2.4,MacIntel,58.82352941,Safari,1470,956,,,,,0,887,,,,,,,,,,,,,,,,,132,H,circle,1,0,,,,,,,,,,,,,,,,repeat,number,numRpt,d,0.576,Hi,,,,,,2,,,,,,,,low,27,0,27,0,1,,,,,,,,,
292786,2022-12-01_00h22.15.315,vts_reward_expectancy_bt,2022.2.4,MacIntel,58.82352941,Safari,1470,956,,,,,1,888,,,,,,,,,,,,,,,,,125,U,triangle,1,0,,,,,,,,,,,,,,,,repeat,number,numRpt,d,0.613,Lo,,,,,,2,,,,,,,,low,28,0,28,0,1,,,,,,,,,
292786,2022-12-01_00h22.15.315,vts_reward_expectancy_bt,2022.2.4,MacIntel,58.82352941,Safari,1470,956,,,,,1,889,,,,,,,,,,,,,,,,,167,B,circle,1,0,,,,,,,,,,,,,,,,repeat,number,numRpt,f,0.46,Hi,,,,,,2,,,,,,,,low,29,0,29,0,1,,,,,,,,,
292786,2022-12-01_00h22.15.315,vts_reward_expectancy_bt,2022.2.4,MacIntel,58.82352941,Safari,1470,956,,,,,10,899,,,,,,,,,,,,,,,,,160,Y,hexagon,1,0,,,,,,,,,,,,,,,,repeat,number,numRpt,f,0.706,Lo,,,,,,2,,,,,,,,low,30,0,30,0,1,,,,,,,,,
292786,2022-12-01_00h22.15.315,vts_reward_expectancy_bt,2022.2.4,MacIntel,58.82352941,Safari,1470,956,,,,,10,909,,,,,,,,,,,,,,,,,139,S,star,1,0,,,,,,,,,,,,,,,,switch,letter,lettSwt,k,0.471,Hi,,,,,,2,,,,,,,,low,31,0,31,0,1,,,,,,,,,
292786,2022-12-01_00h22.15.315,vts_reward_expectancy_bt,2022.2.4,MacIntel,58.82352941,Safari,1470,956,,,,,10,919,,,,,,,,,,,,,,,,,160,B,triangle,1,0,,,,,,,,,,,,,,,,repeat,letter,lettRpt,j,1.022,Lo,,,,,,3,,,,,,space,2.779,low,0,0,0,0,1,,,,,,,,,
292786,2022-12-01_00h22.15.315,vts_reward_expectancy_bt,2022.2.4,MacIntel,58.82352941,Safari,1470,956,,,,,10,929,,,,,,,,,,,,,,,,,181,W,star,1,0,,,,,,,,,,,,,,,,repeat,letter,lettRpt,k,0.491,Hi,,,,,,3,,,,,,,,low,1,0,1,0,1,,,,,,,,,
292786,2022-12-01_00h22.15.315,vts_reward_expectancy_bt,2022.2.4,MacIntel,58.82352941,Safari,1470,956,,,,,1,930,,,,,,,,,,,,,,,,,167,Y,hexagon,1,0,,,,,,,,,,,,,,,,repeat,letter,lettRpt,k,0.582,Lo,,,,,,3,,,,,,,,low,2,0,2,0,1,,,,,,,,,
292786,2022-12-01_00h22.15.315,vts_reward_expectancy_bt,2022.2.4,MacIntel,58.82352941,Safari,1470,956,,,,,0,930,,,,,,,,,,,,,,,,,132,F,circle,0,0,,,,,,,,,,,,,,,,switch,number,NA,f,0.54,Lo,,,,,,3,,,,,,,,low,3,0,3,0,1,,,,,,,,,
292786,2022-12-01_00h22.15.315,vts_reward_expectancy_bt,2022.2.4,MacIntel,58.82352941,Safari,1470,956,,,,,10,940,,,,,,,,,,,,,,,,,146,S,triangle,1,1,,,,,,,,,,,,,,,,repeat,number,numRpt,d,0.747,Lo,,,,,,3,,,,,,,,low,4,0,4,0,1,,,,,,,,,
292786,2022-12-01_00h22.15.315,vts_reward_expectancy_bt,2022.2.4,MacIntel,58.82352941,Safari,1470,956,,,,,1,941,,,,,,,,,,,,,,,,,139,D,star,1,0,,,,,,,,,,,,,,,,repeat,number,numRpt,d,0.534,Hi,,,,,,3,,,,,,,,low,5,0,5,0,1,,,,,,,,,
292786,2022-12-01_00h22.15.315,vts_reward_expectancy_bt,2022.2.4,MacIntel,58.82352941,Safari,1470,956,,,,,1,942,,,,,,,,,,,,,,,,,174,U,hexagon,1,0,,,,,,,,,,,,,,,,repeat,number,numRpt,f,0.745,Lo,,,,,,3,,,,,,,,low,6,0,6,0,1,,,,,,,,,
292786,2022-12-01_00h22.15.315,vts_reward_expectancy_bt,2022.2.4,MacIntel,58.82352941,Safari,1470,956,,,,,0,942,,,,,,,,,,,,,,,,,125,H,circle,1,0,,,,,,,,,,,,,,,,repeat,number,numRpt,d,0.574,Hi,,,,,,3,,,,,,,,low,7,0,7,0,1,,,,,,,,,
292786,2022-12-01_00h22.15.315,vts_reward_expectancy_bt,2022.2.4,MacIntel,58.82352941,Safari,1470,956,,,,,0,942,,,,,,,,,,,,,,,,,160,B,triangle,0,0,,,,,,,,,,,,,,,,repeat,number,NA,d,0.954,Hi,,,,,,3,,,,,,,,low,8,0,8,0,1,,,,,,,,,
292786,2022-12-01_00h22.15.315,vts_reward_expectancy_bt,2022.2.4,MacIntel,58.82352941,Safari,1470,956,,,,,1,943,,,,,,,,,,,,,,,,,181,W,circle,1,1,,,,,,,,,,,,,,,,repeat,number,numRpt,f,0.544,Hi,,,,,,3,,,,,,,,low,9,0,9,0,1,,,,,,,,,
292786,2022-12-01_00h22.15.315,vts_reward_expectancy_bt,2022.2.4,MacIntel,58.82352941,Safari,1470,956,,,,,10,953,,,,,,,,,,,,,,,,,167,Y,hexagon,1,0,,,,,,,,,,,,,,,,repeat,number,numRpt,f,0.778,Lo,,,,,,3,,,,,,,,low,10,0,10,0,1,,,,,,,,,
292786,2022-12-01_00h22.15.315,vts_reward_expectancy_bt,2022.2.4,MacIntel,58.82352941,Safari,1470,956,,,,,0,953,,,,,,,,,,,,,,,,,132,F,star,1,0,,,,,,,,,,,,,,,,repeat,number,numRpt,d,0.572,Hi,,,,,,3,,,,,,,,low,11,0,11,0,1,,,,,,,,,
292786,2022-12-01_00h22.15.315,vts_reward_expectancy_bt,2022.2.4,MacIntel,58.82352941,Safari,1470,956,,,,,0,953,,,,,,,,,,,,,,,,,146,S,star,1,0,,,,,,,,,,,,,,,,repeat,number,numRpt,d,0.643,Hi,,,,,,3,,,,,,,,low,12,0,12,0,1,,,,,,,,,
292786,2022-12-01_00h22.15.315,vts_reward_expectancy_bt,2022.2.4,MacIntel,58.82352941,Safari,1470,956,,,,,1,954,,,,,,,,,,,,,,,,,139,D,triangle,1,0,,,,,,,,,,,,,,,,repeat,number,numRpt,d,0.62,Lo,,,,,,3,,,,,,,,low,13,0,13,0,1,,,,,,,,,
292786,2022-12-01_00h22.15.315,vts_reward_expectancy_bt,2022.2.4,MacIntel,58.82352941,Safari,1470,956,,,,,0,954,,,,,,,,,,,,,,,,,174,U,circle,0,0,,,,,,,,,,,,,,,,repeat,number,NA,d,0.104,Lo,,,,,,3,,,,,,,,low,14,0,14,0,1,,,,,,,,,
292786,2022-12-01_00h22.15.315,vts_reward_expectancy_bt,2022.2.4,MacIntel,58.82352941,Safari,1470,956,,,,,1,955,,,,,,,,,,,,,,,,,125,H,hexagon,1,1,,,,,,,,,,,,,,,,repeat,number,numRpt,d,0.515,Lo,,,,,,3,,,,,,,,low,15,0,15,0,1,,,,,,,,,
292786,2022-12-01_00h22.15.315,vts_reward_expectancy_bt,2022.2.4,MacIntel,58.82352941,Safari,1470,956,,,,,10,965,,,,,,,,,,,,,,,,,139,Y,hexagon,1,0,,,,,,,,,,,,,,,,repeat,number,numRpt,d,0.53,Lo,,,,,,3,,,,,,,,low,16,0,16,0,1,,,,,,,,,
292786,2022-12-01_00h22.15.315,vts_reward_expectancy_bt,2022.2.4,MacIntel,58.82352941,Safari,1470,956,,,,,10,975,,,,,,,,,,,,,,,,,160,D,star,1,0,,,,,,,,,,,,,,,,repeat,number,numRpt,f,0.393,Hi,,,,,,3,,,,,,,,low,17,0,17,0,1,,,,,,,,,
292786,2022-12-01_00h22.15.315,vts_reward_expectancy_bt,2022.2.4,MacIntel,58.82352941,Safari,1470,956,,,,,1,976,,,,,,,,,,,,,,,,,167,W,triangle,1,0,,,,,,,,,,,,,,,,switch,letter,lettSwt,k,0.855,Lo,,,,,,3,,,,,,,,low,18,0,18,0,1,,,,,,,,,
292786,2022-12-01_00h22.15.315,vts_reward_expectancy_bt,2022.2.4,MacIntel,58.82352941,Safari,1470,956,,,,,0,976,,,,,,,,,,,,,,,,,174,F,circle,1,0,,,,,,,,,,,,,,,,repeat,letter,lettRpt,j,0.609,Hi,,,,,,3,,,,,,,,low,19,0,19,0,1,,,,,,,,,
292786,2022-12-01_00h22.15.315,vts_reward_expectancy_bt,2022.2.4,MacIntel,58.82352941,Safari,1470,956,,,,,0,976,,,,,,,,,,,,,,,,,146,S,circle,1,0,,,,,,,,,,,,,,,,repeat,letter,lettRpt,k,0.591,Hi,,,,,,3,,,,,,,,low,20,0,20,0,1,,,,,,,,,
292786,2022-12-01_00h22.15.315,vts_reward_expectancy_bt,2022.2.4,MacIntel,58.82352941,Safari,1470,956,,,,,1,977,,,,,,,,,,,,,,,,,181,U,triangle,1,0,,,,,,,,,,,,,,,,repeat,letter,lettRpt,k,0.556,Lo,,,,,,3,,,,,,,,low,21,0,21,0,1,,,,,,,,,
292786,2022-12-01_00h22.15.315,vts_reward_expectancy_bt,2022.2.4,MacIntel,58.82352941,Safari,1470,956,,,,,1,978,,,,,,,,,,,,,,,,,132,B,star,1,0,,,,,,,,,,,,,,,,repeat,letter,lettRpt,j,0.553,Hi,,,,,,3,,,,,,,,low,22,0,22,0,1,,,,,,,,,
292786,2022-12-01_00h22.15.315,vts_reward_expectancy_bt,2022.2.4,MacIntel,58.82352941,Safari,1470,956,,,,,10,988,,,,,,,,,,,,,,,,,125,H,hexagon,1,0,,,,,,,,,,,,,,,,switch,number,numSwt,d,1.333,Lo,,,,,,3,,,,,,,,low,23,0,23,0,1,,,,,,,,,
292786,2022-12-01_00h22.15.315,vts_reward_expectancy_bt,2022.2.4,MacIntel,58.82352941,Safari,1470,956,,,,,0,988,,,,,,,,,,,,,,,,,146,Y,hexagon,0,0,,,,,,,,,,,,,,,,repeat,number,NA,f,0.673,Lo,,,,,,3,,,,,,,,low,24,0,24,0,1,,,,,,,,,
292786,2022-12-01_00h22.15.315,vts_reward_expectancy_bt,2022.2.4,MacIntel,58.82352941,Safari,1470,956,,,,,10,998,,,,,,,,,,,,,,,,,174,D,triangle,1,1,,,,,,,,,,,,,,,,repeat,number,numRpt,f,0.873,Lo,,,,,,3,,,,,,,,low,25,0,25,0,1,,,,,,,,,
292786,2022-12-01_00h22.15.315,vts_reward_expectancy_bt,2022.2.4,MacIntel,58.82352941,Safari,1470,956,,,,,0,998,,,,,,,,,,,,,,,,,139,H,circle,1,0,,,,,,,,,,,,,,,,repeat,number,numRpt,d,1.624,Hi,,,,,,3,,,,,,,,low,26,0,26,0,1,,,,,,,,,
292786,2022-12-01_00h22.15.315,vts_reward_expectancy_bt,2022.2.4,MacIntel,58.82352941,Safari,1470,956,,,,,0,998,,,,,,,,,,,,,,,,,132,B,star,1,0,,,,,,,,,,,,,,,,repeat,number,numRpt,d,0.993,Hi,,,,,,3,,,,,,,,low,27,0,27,0,1,,,,,,,,,
292786,2022-12-01_00h22.15.315,vts_reward_expectancy_bt,2022.2.4,MacIntel,58.82352941,Safari,1470,956,,,,,0,998,,,,,,,,,,,,,,,,,160,F,star,1,0,,,,,,,,,,,,,,,,repeat,number,numRpt,f,0.578,Hi,,,,,,3,,,,,,,,low,28,0,28,0,1,,,,,,,,,
292786,2022-12-01_00h22.15.315,vts_reward_expectancy_bt,2022.2.4,MacIntel,58.82352941,Safari,1470,956,,,,,10,1008,,,,,,,,,,,,,,,,,167,S,hexagon,1,0,,,,,,,,,,,,,,,,repeat,number,numRpt,f,2.646,Lo,,,,,,3,,,,,,,,low,29,0,29,0,1,,,,,,,,,
292786,2022-12-01_00h22.15.315,vts_reward_expectancy_bt,2022.2.4,MacIntel,58.82352941,Safari,1470,956,,,,,1,1009,,,,,,,,,,,,,,,,,181,U,triangle,1,0,,,,,,,,,,,,,,,,repeat,number,numRpt,f,0.64,Lo,,,,,,3,,,,,,,,low,30,0,30,0,1,,,,,,,,,
292786,2022-12-01_00h22.15.315,vts_reward_expectancy_bt,2022.2.4,MacIntel,58.82352941,Safari,1470,956,,,,,0,1009,,,,,,,,,,,,,,,,,125,W,circle,1,0,,,,,,,,,,,,,,,,repeat,number,numRpt,d,0.606,Hi,,,,,,3,,,,,,,,low,31,0,31,0,1,,,,,,,,,
292786,2022-12-01_00h22.15.315,vts_reward_expectancy_bt,2022.2.4,MacIntel,58.82352941,Safari,1470,956,,,,,0,1009,,,,,,,,,,,,,,,,,167,D,circle,1,0,,,,,,,,,,,,,,,,repeat,number,numRpt,f,0.845,Hi,,,,,,4,,,,,,space,0.661,low,0,0,0,0,1,,,,,,,,,
292786,2022-12-01_00h22.15.315,vts_reward_expectancy_bt,2022.2.4,MacIntel,58.82352941,Safari,1470,956,,,,,1,1010,,,,,,,,,,,,,,,,,139,Y,hexagon,1,0,,,,,,,,,,,,,,,,repeat,number,numRpt,d,0.721,Lo,,,,,,4,,,,,,,,low,1,0,1,0,1,,,,,,,,,
292786,2022-12-01_00h22.15.315,vts_reward_expectancy_bt,2022.2.4,MacIntel,58.82352941,Safari,1470,956,,,,,10,1020,,,,,,,,,,,,,,,,,146,U,triangle,1,0,,,,,,,,,,,,,,,,repeat,number,numRpt,d,0.651,Lo,,,,,,4,,,,,,,,low,2,0,2,0,1,,,,,,,,,
292786,2022-12-01_00h22.15.315,vts_reward_expectancy_bt,2022.2.4,MacIntel,58.82352941,Safari,1470,956,,,,,10,1030,,,,,,,,,,,,,,,,,132,W,star,1,0,,,,,,,,,,,,,,,,switch,letter,lettSwt,k,0.648,Hi,,,,,,4,,,,,,,,low,3,0,3,0,1,,,,,,,,,
292786,2022-12-01_00h22.15.315,vts_reward_expectancy_bt,2022.2.4,MacIntel,58.82352941,Safari,1470,956,,,,,0,1030,,,,,,,,,,,,,,,,,181,S,circle,1,0,,,,,,,,,,,,,,,,repeat,letter,lettRpt,k,0.74,Hi,,,,,,4,,,,,,,,low,4,0,4,0,1,,,,,,,,,
292786,2022-12-01_00h22.15.315,vts_reward_expectancy_bt,2022.2.4,MacIntel,58.82352941,Safari,1470,956,,,,,10,1040,,,,,,,,,,,,,,,,,160,B,hexagon,1,0,,,,,,,,,,,,,,,,repeat,letter,lettRpt,j,0.737,Lo,,,,,,4,,,,,,,,low,5,0,5,0,1,,,,,,,,,
292786,2022-12-01_00h22.15.315,vts_reward_expectancy_bt,2022.2.4,MacIntel,58.82352941,Safari,1470,956,,,,,1,1041,,,,,,,,,,,,,,,,,174,F,triangle,1,0,,,,,,,,,,,,,,,,repeat,letter,lettRpt,j,0.614,Lo,,,,,,4,,,,,,,,low,6,0,6,0,1,,,,,,,,,
292786,2022-12-01_00h22.15.315,vts_reward_expectancy_bt,2022.2.4,MacIntel,58.82352941,Safari,1470,956,,,,,1,1042,,,,,,,,,,,,,,,,,125,H,star,1,0,,,,,,,,,,,,,,,,repeat,letter,lettRpt,j,0.508,Hi,,,,,,4,,,,,,,,low,7,0,7,0,1,,,,,,,,,
292786,2022-12-01_00h22.15.315,vts_reward_expectancy_bt,2022.2.4,MacIntel,58.82352941,Safari,1470,956,,,,,10,1052,,,,,,,,,,,,,,,,,167,D,hexagon,1,0,,,,,,,,,,,,,,,,repeat,letter,lettRpt,j,0.549,Lo,,,,,,4,,,,,,,,low,8,0,8,0,1,,,,,,,,,
292786,2022-12-01_00h22.15.315,vts_reward_expectancy_bt,2022.2.4,MacIntel,58.82352941,Safari,1470,956,,,,,0,1052,,,,,,,,,,,,,,,,,139,Y,triangle,0,0,,,,,,,,,,,,,,,,switch,number,NA,f,0.654,Lo,,,,,,4,,,,,,,,low,9,0,9,0,1,,,,,,,,,
292786,2022-12-01_00h22.15.315,vts_reward_expectancy_bt,2022.2.4,MacIntel,58.82352941,Safari,1470,956,,,,,0,1052,,,,,,,,,,,,,,,,,146,U,star,1,1,,,,,,,,,,,,,,,,repeat,number,numRpt,d,0.974,Hi,,,,,,4,,,,,,,,low,10,0,10,0,1,,,,,,,,,
292786,2022-12-01_00h22.15.315,vts_reward_expectancy_bt,2022.2.4,MacIntel,58.82352941,Safari,1470,956,,,,,0,1052,,,,,,,,,,,,,,,,,132,W,circle,1,0,,,,,,,,,,,,,,,,repeat,number,numRpt,d,0.607,Hi,,,,,,4,,,,,,,,low,11,0,11,0,1,,,,,,,,,
292786,2022-12-01_00h22.15.315,vts_reward_expectancy_bt,2022.2.4,MacIntel,58.82352941,Safari,1470,956,,,,,10,1062,,,,,,,,,,,,,,,,,181,S,triangle,1,0,,,,,,,,,,,,,,,,repeat,number,numRpt,f,0.796,Lo,,,,,,4,,,,,,,,low,12,0,12,0,1,,,,,,,,,
292786,2022-12-01_00h22.15.315,vts_reward_expectancy_bt,2022.2.4,MacIntel,58.82352941,Safari,1470,956,,,,,0,1062,,,,,,,,,,,,,,,,,160,B,circle,1,0,,,,,,,,,,,,,,,,repeat,number,numRpt,f,0.822,Hi,,,,,,4,,,,,,,,low,13,0,13,0,1,,,,,,,,,
292786,2022-12-01_00h22.15.315,vts_reward_expectancy_bt,2022.2.4,MacIntel,58.82352941,Safari,1470,956,,,,,0,1062,,,,,,,,,,,,,,,,,174,F,star,1,0,,,,,,,,,,,,,,,,repeat,number,numRpt,f,1.088,Hi,,,,,,4,,,,,,,,low,14,0,14,0,1,,,,,,,,,
292786,2022-12-01_00h22.15.315,vts_reward_expectancy_bt,2022.2.4,MacIntel,58.82352941,Safari,1470,956,,,,,1,1063,,,,,,,,,,,,,,,,,125,H,hexagon,1,0,,,,,,,,,,,,,,,,repeat,number,numRpt,d,0.688,Lo,,,,,,4,,,,,,,,low,15,0,15,0,1,,,,,,,,,
292786,2022-12-01_00h22.15.315,vts_reward_expectancy_bt,2022.2.4,MacIntel,58.82352941,Safari,1470,956,,,,,0,1063,,,,,,,,,,,,,,,,,181,Y,circle,1,0,,,,,,,,,,,,,,,,repeat,number,numRpt,f,0.829,Hi,,,,,,4,,,,,,,,low,16,0,16,0,1,,,,,,,,,
292786,2022-12-01_00h22.15.315,vts_reward_expectancy_bt,2022.2.4,MacIntel,58.82352941,Safari,1470,956,,,,,1,1064,,,,,,,,,,,,,,,,,167,S,triangle,1,0,,,,,,,,,,,,,,,,repeat,number,numRpt,f,0.625,Lo,,,,,,4,,,,,,,,low,17,0,17,0,1,,,,,,,,,
292786,2022-12-01_00h22.15.315,vts_reward_expectancy_bt,2022.2.4,MacIntel,58.82352941,Safari,1470,956,,,,,1,1065,,,,,,,,,,,,,,,,,146,B,hexagon,1,0,,,,,,,,,,,,,,,,repeat,number,numRpt,d,0.628,Lo,,,,,,4,,,,,,,,low,18,0,18,0,1,,,,,,,,,
292786,2022-12-01_00h22.15.315,vts_reward_expectancy_bt,2022.2.4,MacIntel,58.82352941,Safari,1470,956,,,,,0,1065,,,,,,,,,,,,,,,,,132,W,star,0,0,,,,,,,,,,,,,,,,repeat,number,NA,f,0.696,Lo,,,,,,4,,,,,,,,low,19,0,19,0,1,,,,,,,,,
292786,2022-12-01_00h22.15.315,vts_reward_expectancy_bt,2022.2.4,MacIntel,58.82352941,Safari,1470,956,,,,,1,1066,,,,,,,,,,,,,,,,,160,D,hexagon,1,1,,,,,,,,,,,,,,,,repeat,number,numRpt,f,0.425,Lo,,,,,,4,,,,,,,,low,20,0,20,0,1,,,,,,,,,
292786,2022-12-01_00h22.15.315,vts_reward_expectancy_bt,2022.2.4,MacIntel,58.82352941,Safari,1470,956,,,,,1,1067,,,,,,,,,,,,,,,,,139,U,triangle,1,0,,,,,,,,,,,,,,,,switch,letter,lettSwt,k,0.625,Lo,,,,,,4,,,,,,,,low,21,0,21,0,1,,,,,,,,,
292786,2022-12-01_00h22.15.315,vts_reward_expectancy_bt,2022.2.4,MacIntel,58.82352941,Safari,1470,956,,,,,0,1067,,,,,,,,,,,,,,,,,125,H,star,1,0,,,,,,,,,,,,,,,,repeat,letter,lettRpt,j,1.09,Hi,,,,,,4,,,,,,,,low,22,0,22,0,1,,,,,,,,,
292786,2022-12-01_00h22.15.315,vts_reward_expectancy_bt,2022.2.4,MacIntel,58.82352941,Safari,1470,956,,,,,0,1067,,,,,,,,,,,,,,,,,174,F,circle,1,0,,,,,,,,,,,,,,,,repeat,letter,lettRpt,j,0.654,Hi,,,,,,4,,,,,,,,low,23,0,23,0,1,,,,,,,,,
292786,2022-12-01_00h22.15.315,vts_reward_expectancy_bt,2022.2.4,MacIntel,58.82352941,Safari,1470,956,,,,,0,1067,,,,,,,,,,,,,,,,,132,S,star,1,0,,,,,,,,,,,,,,,,repeat,letter,lettRpt,k,0.631,Hi,,,,,,4,,,,,,,,low,24,0,24,0,1,,,,,,,,,
292786,2022-12-01_00h22.15.315,vts_reward_expectancy_bt,2022.2.4,MacIntel,58.82352941,Safari,1470,956,,,,,10,1077,,,,,,,,,,,,,,,,,181,D,triangle,1,0,,,,,,,,,,,,,,,,repeat,letter,lettRpt,j,0.758,Lo,,,,,,4,,,,,,,,low,25,0,25,0,1,,,,,,,,,
292786,2022-12-01_00h22.15.315,vts_reward_expectancy_bt,2022.2.4,MacIntel,58.82352941,Safari,1470,956,,,,,0,1077,,,,,,,,,,,,,,,,,167,B,circle,1,0,,,,,,,,,,,,,,,,repeat,letter,lettRpt,j,0.609,Hi,,,,,,4,,,,,,,,low,26,0,26,0,1,,,,,,,,,
292786,2022-12-01_00h22.15.315,vts_reward_expectancy_bt,2022.2.4,MacIntel,58.82352941,Safari,1470,956,,,,,10,1087,,,,,,,,,,,,,,,,,125,F,hexagon,1,0,,,,,,,,,,,,,,,,repeat,letter,lettRpt,j,0.571,Lo,,,,,,4,,,,,,,,low,27,0,27,0,1,,,,,,,,,
292786,2022-12-01_00h22.15.315,vts_reward_expectancy_bt,2022.2.4,MacIntel,58.82352941,Safari,1470,956,,,,,1,1088,,,,,,,,,,,,,,,,,139,H,hexagon,1,0,,,,,,,,,,,,,,,,repeat,letter,lettRpt,j,0.577,Lo,,,,,,4,,,,,,,,low,28,0,28,0,1,,,,,,,,,
292786,2022-12-01_00h22.15.315,vts_reward_expectancy_bt,2022.2.4,MacIntel,58.82352941,Safari,1470,956,,,,,0,1088,,,,,,,,,,,,,,,,,174,W,circle,0,0,,,,,,,,,,,,,,,,repeat,letter,NA,j,0.675,Lo,,,,,,4,,,,,,,,low,29,0,29,0,1,,,,,,,,,
292786,2022-12-01_00h22.15.315,vts_reward_expectancy_bt,2022.2.4,MacIntel,58.82352941,Safari,1470,956,,,,,0,1088,,,,,,,,,,,,,,,,,146,U,star,1,1,,,,,,,,,,,,,,,,repeat,letter,lettRpt,k,0.641,Hi,,,,,,4,,,,,,,,low,30,0,30,0,1,,,,,,,,,
292786,2022-12-01_00h22.15.315,vts_reward_expectancy_bt,2022.2.4,MacIntel,58.82352941,Safari,1470,956,,,,,10,1098,,,,,,,,,,,,,,,,,160,Y,triangle,1,0,,,,,,,,,,,,,,,,repeat,letter,lettRpt,k,0.787,Lo,,,,,,4,,,,,,,,low,31,0,31,0,1,,,,,,,,,
292786,2022-12-01_00h22.15.315,vts_reward_expectancy_bt,2022.2.4,MacIntel,58.82352941,Safari,1470,956,,,,,1,1099,,,,,,,,,,,,,,,,,160,W,circle,1,0,,,,,,,,,,,,,,,,switch,number,numSwt,f,0.823,Hi,,,,,,5,,,,,,space,1.872,low,0,0,0,0,1,,,,,,,,,
292786,2022-12-01_00h22.15.315,vts_reward_expectancy_bt,2022.2.4,MacIntel,58.82352941,Safari,1470,956,,,,,10,1109,,,,,,,,,,,,,,,,,139,S,hexagon,1,0,,,,,,,,,,,,,,,,repeat,number,numRpt,d,0.406,Lo,,,,,,5,,,,,,,,low,1,0,1,0,1,,,,,,,,,
292786,2022-12-01_00h22.15.315,vts_reward_expectancy_bt,2022.2.4,MacIntel,58.82352941,Safari,1470,956,,,,,10,1119,,,,,,,,,,,,,,,,,181,B,triangle,1,0,,,,,,,,,,,,,,,,repeat,number,numRpt,f,0.585,Lo,,,,,,5,,,,,,,,low,2,0,2,0,1,,,,,,,,,
292786,2022-12-01_00h22.15.315,vts_reward_expectancy_bt,2022.2.4,MacIntel,58.82352941,Safari,1470,956,,,,,10,1129,,,,,,,,,,,,,,,,,146,D,star,1,0,,,,,,,,,,,,,,,,switch,letter,lettSwt,j,0.423,Hi,,,,,,5,,,,,,,,low,3,0,3,0,1,,,,,,,,,
292786,2022-12-01_00h22.15.315,vts_reward_expectancy_bt,2022.2.4,MacIntel,58.82352941,Safari,1470,956,,,,,10,1139,,,,,,,,,,,,,,,,,125,H,circle,1,0,,,,,,,,,,,,,,,,repeat,letter,lettRpt,j,0.588,Hi,,,,,,5,,,,,,,,low,4,0,4,0,1,,,,,,,,,
292786,2022-12-01_00h22.15.315,vts_reward_expectancy_bt,2022.2.4,MacIntel,58.82352941,Safari,1470,956,,,,,10,1149,,,,,,,,,,,,,,,,,132,U,hexagon,1,0,,,,,,,,,,,,,,,,repeat,letter,lettRpt,k,0.67,Lo,,,,,,5,,,,,,,,low,5,0,5,0,1,,,,,,,,,
292786,2022-12-01_00h22.15.315,vts_reward_expectancy_bt,2022.2.4,MacIntel,58.82352941,Safari,1470,956,,,,,10,1159,,,,,,,,,,,,,,,,,174,Y,triangle,1,0,,,,,,,,,,,,,,,,repeat,letter,lettRpt,k,0.624,Lo,,,,,,5,,,,,,,,low,6,0,6,0,1,,,,,,,,,
292786,2022-12-01_00h22.15.315,vts_reward_expectancy_bt,2022.2.4,MacIntel,58.82352941,Safari,1470,956,,,,,1,1160,,,,,,,,,,,,,,,,,167,F,star,1,0,,,,,,,,,,,,,,,,repeat,letter,lettRpt,j,0.579,Hi,,,,,,5,,,,,,,,low,7,0,7,0,1,,,,,,,,,
292786,2022-12-01_00h22.15.315,vts_reward_expectancy_bt,2022.2.4,MacIntel,58.82352941,Safari,1470,956,,,,,0,1160,,,,,,,,,,,,,,,,,160,W,circle,1,0,,,,,,,,,,,,,,,,repeat,letter,lettRpt,k,0.715,Hi,,,,,,5,,,,,,,,low,8,0,8,0,1,,,,,,,,,
292786,2022-12-01_00h22.15.315,vts_reward_expectancy_bt,2022.2.4,MacIntel,58.82352941,Safari,1470,956,,,,,10,1170,,,,,,,,,,,,,,,,,139,S,star,1,0,,,,,,,,,,,,,,,,repeat,letter,lettRpt,k,0.521,Hi,,,,,,5,,,,,,,,low,9,0,9,0,1,,,,,,,,,
292786,2022-12-01_00h22.15.315,vts_reward_expectancy_bt,2022.2.4,MacIntel,58.82352941,Safari,1470,956,,,,,1,1171,,,,,,,,,,,,,,,,,181,B,hexagon,1,0,,,,,,,,,,,,,,,,repeat,letter,lettRpt,j,0.582,Lo,,,,,,5,,,,,,,,low,10,0,10,0,1,,,,,,,,,
292786,2022-12-01_00h22.15.315,vts_reward_expectancy_bt,2022.2.4,MacIntel,58.82352941,Safari,1470,956,,,,,1,1172,,,,,,,,,,,,,,,,,146,D,triangle,1,0,,,,,,,,,,,,,,,,repeat,letter,lettRpt,j,0.572,Lo,,,,,,5,,,,,,,,low,11,0,11,0,1,,,,,,,,,
292786,2022-12-01_00h22.15.315,vts_reward_expectancy_bt,2022.2.4,MacIntel,58.82352941,Safari,1470,956,,,,,1,1173,,,,,,,,,,,,,,,,,125,H,triangle,1,0,,,,,,,,,,,,,,,,repeat,letter,lettRpt,j,0.532,Lo,,,,,,5,,,,,,,,low,12,0,12,0,1,,,,,,,,,
292786,2022-12-01_00h22.15.315,vts_reward_expectancy_bt,2022.2.4,MacIntel,58.82352941,Safari,1470,956,,,,,0,1173,,,,,,,,,,,,,,,,,132,U,circle,0,0,,,,,,,,,,,,,,,,repeat,letter,NA,j,0.636,Lo,,,,,,5,,,,,,,,low,13,0,13,0,1,,,,,,,,,
292786,2022-12-01_00h22.15.315,vts_reward_expectancy_bt,2022.2.4,MacIntel,58.82352941,Safari,1470,956,,,,,0,1173,,,,,,,,,,,,,,,,,174,Y,star,1,1,,,,,,,,,,,,,,,,repeat,letter,lettRpt,k,0.707,Hi,,,,,,5,,,,,,,,low,14,0,14,0,1,,,,,,,,,
292786,2022-12-01_00h22.15.315,vts_reward_expectancy_bt,2022.2.4,MacIntel,58.82352941,Safari,1470,956,,,,,0,1173,,,,,,,,,,,,,,,,,167,F,hexagon,0,0,,,,,,,,,,,,,,,,repeat,letter,NA,k,0.722,Hi,,,,,,5,,,,,,,,low,15,0,15,0,1,,,,,,,,,
292786,2022-12-01_00h22.15.315,vts_reward_expectancy_bt,2022.2.4,MacIntel,58.82352941,Safari,1470,956,,,,,1,1174,,,,,,,,,,,,,,,,,167,B,circle,1,1,,,,,,,,,,,,,,,,repeat,letter,lettRpt,j,0.477,Hi,,,,,,5,,,,,,,,low,16,0,16,0,1,,,,,,,,,
292786,2022-12-01_00h22.15.315,vts_reward_expectancy_bt,2022.2.4,MacIntel,58.82352941,Safari,1470,956,,,,,10,1184,,,,,,,,,,,,,,,,,139,Y,star,1,0,,,,,,,,,,,,,,,,repeat,letter,lettRpt,k,0.556,Hi,,,,,,5,,,,,,,,low,17,0,17,0,1,,,,,,,,,
292786,2022-12-01_00h22.15.315,vts_reward_expectancy_bt,2022.2.4,MacIntel,58.82352941,Safari,1470,956,,,,,1,1185,,,,,,,,,,,,,,,,,174,H,hexagon,1,0,,,,,,,,,,,,,,,,switch,number,numSwt,f,1.656,Lo,,,,,,5,,,,,,,,low,18,0,18,0,1,,,,,,,,,
292786,2022-12-01_00h22.15.315,vts_reward_expectancy_bt,2022.2.4,MacIntel,58.82352941,Safari,1470,956,,,,,10,1195,,,,,,,,,,,,,,,,,132,F,triangle,1,0,,,,,,,,,,,,,,,,repeat,number,numRpt,d,0.655,Lo,,,,,,5,,,,,,,,low,19,0,19,0,1,,,,,,,,,
292786,2022-12-01_00h22.15.315,vts_reward_expectancy_bt,2022.2.4,MacIntel,58.82352941,Safari,1470,956,,,,,0,1195,,,,,,,,,,,,,,,,,160,S,star,1,0,,,,,,,,,,,,,,,,repeat,number,numRpt,f,0.677,Hi,,,,,,5,,,,,,,,low,20,0,20,0,1,,,,,,,,,
292786,2022-12-01_00h22.15.315,vts_reward_expectancy_bt,2022.2.4,MacIntel,58.82352941,Safari,1470,956,,,,,0,1195,,,,,,,,,,,,,,,,,146,D,circle,1,0,,,,,,,,,,,,,,,,repeat,number,numRpt,d,1.548,Hi,,,,,,5,,,,,,,,low,21,0,21,0,1,,,,,,,,,
292786,2022-12-01_00h22.15.315,vts_reward_expectancy_bt,2022.2.4,MacIntel,58.82352941,Safari,1470,956,,,,,1,1196,,,,,,,,,,,,,,,,,181,U,hexagon,1,0,,,,,,,,,,,,,,,,repeat,number,numRpt,f,0.504,Lo,,,,,,5,,,,,,,,low,22,0,22,0,1,,,,,,,,,
292786,2022-12-01_00h22.15.315,vts_reward_expectancy_bt,2022.2.4,MacIntel,58.82352941,Safari,1470,956,,,,,1,1197,,,,,,,,,,,,,,,,,125,W,triangle,1,0,,,,,,,,,,,,,,,,repeat,number,numRpt,d,0.391,Lo,,,,,,5,,,,,,,,low,23,0,23,0,1,,,,,,,,,
292786,2022-12-01_00h22.15.315,vts_reward_expectancy_bt,2022.2.4,MacIntel,58.82352941,Safari,1470,956,,,,,10,1207,,,,,,,,,,,,,,,,,181,W,star,1,0,,,,,,,,,,,,,,,,repeat,number,numRpt,f,0.605,Hi,,,,,,5,,,,,,,,low,24,0,24,0,1,,,,,,,,,
292786,2022-12-01_00h22.15.315,vts_reward_expectancy_bt,2022.2.4,MacIntel,58.82352941,Safari,1470,956,,,,,10,1217,,,,,,,,,,,,,,,,,174,B,hexagon,1,0,,,,,,,,,,,,,,,,repeat,number,numRpt,f,0.511,Lo,,,,,,5,,,,,,,,low,25,0,25,0,1,,,,,,,,,
292786,2022-12-01_00h22.15.315,vts_reward_expectancy_bt,2022.2.4,MacIntel,58.82352941,Safari,1470,956,,,,,10,1227,,,,,,,,,,,,,,,,,160,F,circle,1,0,,,,,,,,,,,,,,,,repeat,number,numRpt,f,0.498,Hi,,,,,,5,,,,,,,,low,26,0,26,0,1,,,,,,,,,
292786,2022-12-01_00h22.15.315,vts_reward_expectancy_bt,2022.2.4,MacIntel,58.82352941,Safari,1470,956,,,,,1,1228,,,,,,,,,,,,,,,,,167,H,triangle,1,0,,,,,,,,,,,,,,,,repeat,number,numRpt,f,0.325,Lo,,,,,,5,,,,,,,,low,27,0,27,0,1,,,,,,,,,
292786,2022-12-01_00h22.15.315,vts_reward_expectancy_bt,2022.2.4,MacIntel,58.82352941,Safari,1470,956,,,,,1,1229,,,,,,,,,,,,,,,,,125,S,circle,1,0,,,,,,,,,,,,,,,,switch,letter,lettSwt,k,0.454,Hi,,,,,,5,,,,,,,,low,28,0,28,0,1,,,,,,,,,
292786,2022-12-01_00h22.15.315,vts_reward_expectancy_bt,2022.2.4,MacIntel,58.82352941,Safari,1470,956,,,,,1,1230,,,,,,,,,,,,,,,,,146,U,hexagon,1,0,,,,,,,,,,,,,,,,repeat,letter,lettRpt,k,0.638,Lo,,,,,,5,,,,,,,,low,29,0,29,0,1,,,,,,,,,
292786,2022-12-01_00h22.15.315,vts_reward_expectancy_bt,2022.2.4,MacIntel,58.82352941,Safari,1470,956,,,,,10,1240,,,,,,,,,,,,,,,,,139,D,triangle,1,0,,,,,,,,,,,,,,,,repeat,letter,lettRpt,j,0.626,Lo,,,,,,5,,,,,,,,low,30,0,30,0,1,,,,,,,,,
292786,2022-12-01_00h22.15.315,vts_reward_expectancy_bt,2022.2.4,MacIntel,58.82352941,Safari,1470,956,,,,,0,1240,,,,,,,,,,,,,,,,,132,Y,star,0,0,,,,,,,,,,,,,,,,repeat,letter,NA,j,0.712,Lo,,,,,,5,,,,,,,,low,31,0,31,0,1,,,,,,,,,
292786,2022-12-01_00h22.15.315,vts_reward_expectancy_bt,2022.2.4,MacIntel,58.82352941,Safari,1470,956,,,,,0,1240,,,,,,,,,,,,,,,,,167,B,triangle,0,1,,,,,,,,,,,,,,,,switch,number,NA,d,0.873,Lo,,,,,,6,,,,,,space,16.312,low,0,0,0,0,1,,,,,,,,,
292786,2022-12-01_00h22.15.315,vts_reward_expectancy_bt,2022.2.4,MacIntel,58.82352941,Safari,1470,956,,,,,0,1240,,,,,,,,,,,,,,,,,146,F,star,1,1,,,,,,,,,,,,,,,,repeat,number,numRpt,d,0.61,Hi,,,,,,6,,,,,,,,low,1,0,1,0,1,,,,,,,,,
292786,2022-12-01_00h22.15.315,vts_reward_expectancy_bt,2022.2.4,MacIntel,58.82352941,Safari,1470,956,,,,,0,1240,,,,,,,,,,,,,,,,,174,U,hexagon,0,0,,,,,,,,,,,,,,,,repeat,number,NA,d,0.547,Hi,,,,,,6,,,,,,,,low,2,0,2,0,1,,,,,,,,,
292786,2022-12-01_00h22.15.315,vts_reward_expectancy_bt,2022.2.4,MacIntel,58.82352941,Safari,1470,956,,,,,0,1240,,,,,,,,,,,,,,,,,139,H,circle,1,1,,,,,,,,,,,,,,,,repeat,number,numRpt,d,0.889,Hi,,,,,,6,,,,,,,,low,3,0,3,0,1,,,,,,,,,
292786,2022-12-01_00h22.15.315,vts_reward_expectancy_bt,2022.2.4,MacIntel,58.82352941,Safari,1470,956,,,,,10,1250,,,,,,,,,,,,,,,,,181,D,triangle,1,0,,,,,,,,,,,,,,,,switch,letter,lettSwt,j,0.583,Lo,,,,,,6,,,,,,,,low,4,0,4,0,1,,,,,,,,,
292786,2022-12-01_00h22.15.315,vts_reward_expectancy_bt,2022.2.4,MacIntel,58.82352941,Safari,1470,956,,,,,0,1250,,,,,,,,,,,,,,,,,132,Y,star,1,0,,,,,,,,,,,,,,,,repeat,letter,lettRpt,k,0.625,Hi,,,,,,6,,,,,,,,low,5,0,5,0,1,,,,,,,,,
292786,2022-12-01_00h22.15.315,vts_reward_expectancy_bt,2022.2.4,MacIntel,58.82352941,Safari,1470,956,,,,,10,1260,,,,,,,,,,,,,,,,,160,S,hexagon,1,0,,,,,,,,,,,,,,,,repeat,letter,lettRpt,k,0.892,Lo,,,,,,6,,,,,,,,low,6,0,6,0,1,,,,,,,,,
292786,2022-12-01_00h22.15.315,vts_reward_expectancy_bt,2022.2.4,MacIntel,58.82352941,Safari,1470,956,,,,,0,1260,,,,,,,,,,,,,,,,,125,W,circle,1,0,,,,,,,,,,,,,,,,repeat,letter,lettRpt,k,1.007,Hi,,,,,,6,,,,,,,,low,7,0,7,0,1,,,,,,,,,
292786,2022-12-01_00h22.15.315,vts_reward_expectancy_bt,2022.2.4,MacIntel,58.82352941,Safari,1470,956,,,,,10,1270,,,,,,,,,,,,,,,,,167,B,triangle,1,0,,,,,,,,,,,,,,,,repeat,letter,lettRpt,j,0.594,Lo,,,,,,6,,,,,,,,low,8,0,8,0,1,,,,,,,,,
292786,2022-12-01_00h22.15.315,vts_reward_expectancy_bt,2022.2.4,MacIntel,58.82352941,Safari,1470,956,,,,,1,1271,,,,,,,,,,,,,,,,,146,F,hexagon,1,0,,,,,,,,,,,,,,,,repeat,letter,lettRpt,j,0.591,Lo,,,,,,6,,,,,,,,low,9,0,9,0,1,,,,,,,,,
292786,2022-12-01_00h22.15.315,vts_reward_expectancy_bt,2022.2.4,MacIntel,58.82352941,Safari,1470,956,,,,,0,1271,,,,,,,,,,,,,,,,,174,U,star,1,0,,,,,,,,,,,,,,,,repeat,letter,lettRpt,k,0.674,Hi,,,,,,6,,,,,,,,low,10,0,10,0,1,,,,,,,,,
292786,2022-12-01_00h22.15.315,vts_reward_expectancy_bt,2022.2.4,MacIntel,58.82352941,Safari,1470,956,,,,,0,1271,,,,,,,,,,,,,,,,,139,H,circle,0,0,,,,,,,,,,,,,,,,repeat,letter,NA,k,0.881,Hi,,,,,,6,,,,,,,,low,11,0,11,0,1,,,,,,,,,
292786,2022-12-01_00h22.15.315,vts_reward_expectancy_bt,2022.2.4,MacIntel,58.82352941,Safari,1470,956,,,,,1,1272,,,,,,,,,,,,,,,,,181,D,hexagon,1,1,,,,,,,,,,,,,,,,repeat,letter,lettRpt,j,0.743,Lo,,,,,,6,,,,,,,,low,12,0,12,0,1,,,,,,,,,
