participant,date,expName,psychopyVersion,OS,frameRate,browser,xResolution,yResolution,key_resp.keys,key_resp.rt,training_resp.keys,training_resp.rt,points_trial,points_cumul,trainBlock,training.thisRepN,training.thisTrialN,training.thisN,training.thisIndex,training.ran,LTriangleOpac,LCircleOpac,LHexagonOpac,LStarOpac,RTriangleOpac,RCircleOpac,RHexagonOpac,RStarOpac,LShape_ID,RShape_ID,curr_topStim,curr_bottStim,curr_shape,acc,E1,target_resp_prac1.keys,pracBlock,task1_prac_trials.thisRepN,task1_prac_trials.thisTrialN,task1_prac_trials.thisN,task1_prac_trials.thisIndex,task1_prac_trials.ran,target_resp_prac1.rt,target_resp_prac2.keys,target_resp_prac2.rt,task2_praac_trials.thisRepN,task2_praac_trials.thisTrialN,task2_praac_trials.thisN,task2_praac_trials.thisIndex,task2_praac_trials.ran,alt,task,condition,target_resp.keys,target_resp.rt,rewCond,vts_practice_trials.thisRepN,vts_practice_trials.thisTrialN,vts_practice_trials.thisN,vts_practice_trials.thisIndex,vts_practice_trials.ran,blockNum,trials_norew.thisRepN,trials_norew.thisTrialN,trials_norew.thisN,trials_norew.thisIndex,trials_norew.ran,key_resp_2.keys,key_resp_2.rt,rewExpectancy,trials_rew.thisRepN,trials_rew.thisTrialN,trials_rew.thisN,trials_rew.thisIndex,trials_rew.ran,Q1,Q2,Q2_text,Q3,Q4,Q5_text,Q5,xRes,yRes
292744,2022-11-14_12h30.04.262,vts_reward_expectancy_bt,2022.2.4,MacIntel,60.0024001,Chrome,1440,900,,,,,,,,,,,,,,,,,,,,,,,,,,,,,,,,,,,,,,,,,,,,,,,,,,,,,,,,,,,,,,,,,,,,,,,,,,,,
292744,2022-11-14_12h30.04.262,vts_reward_expectancy_bt,2022.2.4,MacIntel,60.0024001,Chrome,1440,900,space,15.4659,,,,,,,,,,,,,,,,,,,,,,,,,,,,,,,,,,,,,,,,,,,,,,,,,,,,,,,,,,,,,,,,,,,,,,,,,,
292744,2022-11-14_12h30.04.262,vts_reward_expectancy_bt,2022.2.4,MacIntel,60.0024001,Chrome,1440,900,,,,,,,,,,,,,,,,,,,,,,,,,,,,,,,,,,,,,,,,,,,,,,,,,,,,,,,,,,,,,,,,,,,,,,,,,,,,
292744,2022-11-14_12h30.04.262,vts_reward_expectancy_bt,2022.2.4,MacIntel,60.0024001,Chrome,1440,900,,,a,1.3906,1,1,0,0,0,0,8,1,0,0,1,0,0,0,0,1,hexagon,star,,,,,,,,,,,,,,,,,,,,,,,,,,,,,,,,,,,,,,,,,,,,,,,,,,,,,,
292744,2022-11-14_12h30.04.262,vts_reward_expectancy_bt,2022.2.4,MacIntel,60.0024001,Chrome,1440,900,,,a,1.5067,10,11,0,0,1,1,11,1,0,0,0,1,0,0,1,0,star,hexagon,,,,,,,,,,,,,,,,,,,,,,,,,,,,,,,,,,,,,,,,,,,,,,,,,,,,,,
292744,2022-11-14_12h30.04.262,vts_reward_expectancy_bt,2022.2.4,MacIntel,60.0024001,Chrome,1440,900,,,a,0.5641,10,21,0,0,2,2,10,1,0,0,0,1,0,1,0,0,star ,circle,,,,,,,,,,,,,,,,,,,,,,,,,,,,,,,,,,,,,,,,,,,,,,,,,,,,,,
292744,2022-11-14_12h30.04.262,vts_reward_expectancy_bt,2022.2.4,MacIntel,60.0024001,Chrome,1440,900,,,a,1.098,1,22,0,0,3,3,4,1,0,1,0,0,0,0,1,0,circle,hexagon,,,,,,,,,,,,,,,,,,,,,,,,,,,,,,,,,,,,,,,,,,,,,,,,,,,,,,
292744,2022-11-14_12h30.04.262,vts_reward_expectancy_bt,2022.2.4,MacIntel,60.0024001,Chrome,1440,900,,,a,0.7594,1,23,0,0,4,4,1,1,1,0,0,0,0,0,1,0,triangle,hexagon,,,,,,,,,,,,,,,,,,,,,,,,,,,,,,,,,,,,,,,,,,,,,,,,,,,,,,
292744,2022-11-14_12h30.04.262,vts_reward_expectancy_bt,2022.2.4,MacIntel,60.0024001,Chrome,1440,900,,,a,1.2513,1,24,0,0,5,5,0,1,1,0,0,0,0,1,0,0,triangle,circle,,,,,,,,,,,,,,,,,,,,,,,,,,,,,,,,,,,,,,,,,,,,,,,,,,,,,,
292744,2022-11-14_12h30.04.262,vts_reward_expectancy_bt,2022.2.4,MacIntel,60.0024001,Chrome,1440,900,,,a,0.8361,10,34,0,0,6,6,6,1,0,0,1,0,1,0,0,0,hexagon,triangle,,,,,,,,,,,,,,,,,,,,,,,,,,,,,,,,,,,,,,,,,,,,,,,,,,,,,,
292744,2022-11-14_12h30.04.262,vts_reward_expectancy_bt,2022.2.4,MacIntel,60.0024001,Chrome,1440,900,,,a,0.9319,1,35,0,0,7,7,7,1,0,0,1,0,0,1,0,0,hexagon,circle,,,,,,,,,,,,,,,,,,,,,,,,,,,,,,,,,,,,,,,,,,,,,,,,,,,,,,
292744,2022-11-14_12h30.04.262,vts_reward_expectancy_bt,2022.2.4,MacIntel,60.0024001,Chrome,1440,900,,,a,0.6552,1,36,0,0,8,8,9,1,0,0,0,1,1,0,0,0,star,triangle,,,,,,,,,,,,,,,,,,,,,,,,,,,,,,,,,,,,,,,,,,,,,,,,,,,,,,
292744,2022-11-14_12h30.04.262,vts_reward_expectancy_bt,2022.2.4,MacIntel,60.0024001,Chrome,1440,900,,,l,1.9502,10,46,0,0,9,9,2,1,1,0,0,0,0,0,0,1,triangle,star,,,,,,,,,,,,,,,,,,,,,,,,,,,,,,,,,,,,,,,,,,,,,,,,,,,,,,
292744,2022-11-14_12h30.04.262,vts_reward_expectancy_bt,2022.2.4,MacIntel,60.0024001,Chrome,1440,900,,,a,1.0502,1,47,0,0,10,10,3,1,0,1,0,0,1,0,0,0,circle,triangle,,,,,,,,,,,,,,,,,,,,,,,,,,,,,,,,,,,,,,,,,,,,,,,,,,,,,,
292744,2022-11-14_12h30.04.262,vts_reward_expectancy_bt,2022.2.4,MacIntel,60.0024001,Chrome,1440,900,,,l,0.6074,10,57,0,0,11,11,5,1,0,1,0,0,0,0,0,1,circle,star,,,,,,,,,,,,,,,,,,,,,,,,,,,,,,,,,,,,,,,,,,,,,,,,,,,,,,
292744,2022-11-14_12h30.04.262,vts_reward_expectancy_bt,2022.2.4,MacIntel,60.0024001,Chrome,1440,900,,,a,0.7677,1,58,0,1,0,12,6,1,0,0,1,0,1,0,0,0,hexagon,triangle,,,,,,,,,,,,,,,,,,,,,,,,,,,,,,,,,,,,,,,,,,,,,,,,,,,,,,
292744,2022-11-14_12h30.04.262,vts_reward_expectancy_bt,2022.2.4,MacIntel,60.0024001,Chrome,1440,900,,,l,1.1984,1,59,0,1,1,13,2,1,1,0,0,0,0,0,0,1,triangle,star,,,,,,,,,,,,,,,,,,,,,,,,,,,,,,,,,,,,,,,,,,,,,,,,,,,,,,
292744,2022-11-14_12h30.04.262,vts_reward_expectancy_bt,2022.2.4,MacIntel,60.0024001,Chrome,1440,900,,,l,1.3576,10,69,0,1,2,14,8,1,0,0,1,0,0,0,0,1,hexagon,star,,,,,,,,,,,,,,,,,,,,,,,,,,,,,,,,,,,,,,,,,,,,,,,,,,,,,,
292744,2022-11-14_12h30.04.262,vts_reward_expectancy_bt,2022.2.4,MacIntel,60.0024001,Chrome,1440,900,,,a,1.4403,10,79,0,1,3,15,11,1,0,0,0,1,0,0,1,0,star,hexagon,,,,,,,,,,,,,,,,,,,,,,,,,,,,,,,,,,,,,,,,,,,,,,,,,,,,,,
292744,2022-11-14_12h30.04.262,vts_reward_expectancy_bt,2022.2.4,MacIntel,60.0024001,Chrome,1440,900,,,a,0.8658,1,80,0,1,4,16,5,1,0,1,0,0,0,0,0,1,circle,star,,,,,,,,,,,,,,,,,,,,,,,,,,,,,,,,,,,,,,,,,,,,,,,,,,,,,,
292744,2022-11-14_12h30.04.262,vts_reward_expectancy_bt,2022.2.4,MacIntel,60.0024001,Chrome,1440,900,,,l,1.4565,1,81,0,1,5,17,9,1,0,0,0,1,1,0,0,0,star,triangle,,,,,,,,,,,,,,,,,,,,,,,,,,,,,,,,,,,,,,,,,,,,,,,,,,,,,,
292744,2022-11-14_12h30.04.262,vts_reward_expectancy_bt,2022.2.4,MacIntel,60.0024001,Chrome,1440,900,,,a,0.9173,10,91,0,1,6,18,7,1,0,0,1,0,0,1,0,0,hexagon,circle,,,,,,,,,,,,,,,,,,,,,,,,,,,,,,,,,,,,,,,,,,,,,,,,,,,,,,
292744,2022-11-14_12h30.04.262,vts_reward_expectancy_bt,2022.2.4,MacIntel,60.0024001,Chrome,1440,900,,,a,0.991,10,101,0,1,7,19,10,1,0,0,0,1,0,1,0,0,star ,circle,,,,,,,,,,,,,,,,,,,,,,,,,,,,,,,,,,,,,,,,,,,,,,,,,,,,,,
292744,2022-11-14_12h30.04.262,vts_reward_expectancy_bt,2022.2.4,MacIntel,60.0024001,Chrome,1440,900,,,a,2.0813,10,111,0,1,8,20,1,1,1,0,0,0,0,0,1,0,triangle,hexagon,,,,,,,,,,,,,,,,,,,,,,,,,,,,,,,,,,,,,,,,,,,,,,,,,,,,,,
292744,2022-11-14_12h30.04.262,vts_reward_expectancy_bt,2022.2.4,MacIntel,60.0024001,Chrome,1440,900,,,a,1.5889,10,121,0,1,9,21,4,1,0,1,0,0,0,0,1,0,circle,hexagon,,,,,,,,,,,,,,,,,,,,,,,,,,,,,,,,,,,,,,,,,,,,,,,,,,,,,,
292744,2022-11-14_12h30.04.262,vts_reward_expectancy_bt,2022.2.4,MacIntel,60.0024001,Chrome,1440,900,,,a,1.8649,1,122,0,1,10,22,3,1,0,1,0,0,1,0,0,0,circle,triangle,,,,,,,,,,,,,,,,,,,,,,,,,,,,,,,,,,,,,,,,,,,,,,,,,,,,,,
292744,2022-11-14_12h30.04.262,vts_reward_expectancy_bt,2022.2.4,MacIntel,60.0024001,Chrome,1440,900,,,a,1.3405,1,123,0,1,11,23,0,1,1,0,0,0,0,1,0,0,triangle,circle,,,,,,,,,,,,,,,,,,,,,,,,,,,,,,,,,,,,,,,,,,,,,,,,,,,,,,
292744,2022-11-14_12h30.04.262,vts_reward_expectancy_bt,2022.2.4,MacIntel,60.0024001,Chrome,1440,900,,,a,1.44,10,133,0,2,0,24,1,1,1,0,0,0,0,0,1,0,triangle,hexagon,,,,,,,,,,,,,,,,,,,,,,,,,,,,,,,,,,,,,,,,,,,,,,,,,,,,,,
292744,2022-11-14_12h30.04.262,vts_reward_expectancy_bt,2022.2.4,MacIntel,60.0024001,Chrome,1440,900,,,l,1.9255,10,143,0,2,1,25,6,1,0,0,1,0,1,0,0,0,hexagon,triangle,,,,,,,,,,,,,,,,,,,,,,,,,,,,,,,,,,,,,,,,,,,,,,,,,,,,,,
292744,2022-11-14_12h30.04.262,vts_reward_expectancy_bt,2022.2.4,MacIntel,60.0024001,Chrome,1440,900,,,a,0.8916,10,153,0,2,2,26,9,1,0,0,0,1,1,0,0,0,star,triangle,,,,,,,,,,,,,,,,,,,,,,,,,,,,,,,,,,,,,,,,,,,,,,,,,,,,,,
292744,2022-11-14_12h30.04.262,vts_reward_expectancy_bt,2022.2.4,MacIntel,60.0024001,Chrome,1440,900,,,a,1.1694,10,163,0,2,3,27,4,1,0,1,0,0,0,0,1,0,circle,hexagon,,,,,,,,,,,,,,,,,,,,,,,,,,,,,,,,,,,,,,,,,,,,,,,,,,,,,,
292744,2022-11-14_12h30.04.262,vts_reward_expectancy_bt,2022.2.4,MacIntel,60.0024001,Chrome,1440,900,,,a,1.1389,10,173,0,2,4,28,11,1,0,0,0,1,0,0,1,0,star,hexagon,,,,,,,,,,,,,,,,,,,,,,,,,,,,,,,,,,,,,,,,,,,,,,,,,,,,,,
292744,2022-11-14_12h30.04.262,vts_reward_expectancy_bt,2022.2.4,MacIntel,60.0024001,Chrome,1440,900,,,l,1.123,1,174,0,2,5,29,7,1,0,0,1,0,0,1,0,0,hexagon,circle,,,,,,,,,,,,,,,,,,,,,,,,,,,,,,,,,,,,,,,,,,,,,,,,,,,,,,
292744,2022-11-14_12h30.04.262,vts_reward_expectancy_bt,2022.2.4,MacIntel,60.0024001,Chrome,1440,900,,,l,1.0776,10,184,0,2,6,30,5,1,0,1,0,0,0,0,0,1,circle,star,,,,,,,,,,,,,,,,,,,,,,,,,,,,,,,,,,,,,,,,,,,,,,,,,,,,,,
292744,2022-11-14_12h30.04.262,vts_reward_expectancy_bt,2022.2.4,MacIntel,60.0024001,Chrome,1440,900,,,l,1.3417,1,185,0,2,7,31,3,1,0,1,0,0,1,0,0,0,circle,triangle,,,,,,,,,,,,,,,,,,,,,,,,,,,,,,,,,,,,,,,,,,,,,,,,,,,,,,
292744,2022-11-14_12h30.04.262,vts_reward_expectancy_bt,2022.2.4,MacIntel,60.0024001,Chrome,1440,900,,,l,0.608,10,195,0,2,8,32,8,1,0,0,1,0,0,0,0,1,hexagon,star,,,,,,,,,,,,,,,,,,,,,,,,,,,,,,,,,,,,,,,,,,,,,,,,,,,,,,
292744,2022-11-14_12h30.04.262,vts_reward_expectancy_bt,2022.2.4,MacIntel,60.0024001,Chrome,1440,900,,,l,1.2494,10,205,0,2,9,33,2,1,1,0,0,0,0,0,0,1,triangle,star,,,,,,,,,,,,,,,,,,,,,,,,,,,,,,,,,,,,,,,,,,,,,,,,,,,,,,
292744,2022-11-14_12h30.04.262,vts_reward_expectancy_bt,2022.2.4,MacIntel,60.0024001,Chrome,1440,900,,,a,1.1221,1,206,0,2,10,34,0,1,1,0,0,0,0,1,0,0,triangle,circle,,,,,,,,,,,,,,,,,,,,,,,,,,,,,,,,,,,,,,,,,,,,,,,,,,,,,,
292744,2022-11-14_12h30.04.262,vts_reward_expectancy_bt,2022.2.4,MacIntel,60.0024001,Chrome,1440,900,,,a,0.7909,1,207,0,2,11,35,10,1,0,0,0,1,0,1,0,0,star ,circle,,,,,,,,,,,,,,,,,,,,,,,,,,,,,,,,,,,,,,,,,,,,,,,,,,,,,,
292744,2022-11-14_12h30.04.262,vts_reward_expectancy_bt,2022.2.4,MacIntel,60.0024001,Chrome,1440,900,,,l,0.8624,1,208,1,0,0,0,2,1,1,0,0,0,0,0,0,1,triangle,star,,,,,,,,,,,,,,,,,,,,,,,,,,,,,,,,,,,,,,,,,,,,,,,,,,,,,,
292744,2022-11-14_12h30.04.262,vts_reward_expectancy_bt,2022.2.4,MacIntel,60.0024001,Chrome,1440,900,,,a,0.9326,10,218,1,0,1,1,6,1,0,0,1,0,1,0,0,0,hexagon,triangle,,,,,,,,,,,,,,,,,,,,,,,,,,,,,,,,,,,,,,,,,,,,,,,,,,,,,,
292744,2022-11-14_12h30.04.262,vts_reward_expectancy_bt,2022.2.4,MacIntel,60.0024001,Chrome,1440,900,,,a,1.2346,10,228,1,0,2,2,4,1,0,1,0,0,0,0,1,0,circle,hexagon,,,,,,,,,,,,,,,,,,,,,,,,,,,,,,,,,,,,,,,,,,,,,,,,,,,,,,
292744,2022-11-14_12h30.04.262,vts_reward_expectancy_bt,2022.2.4,MacIntel,60.0024001,Chrome,1440,900,,,a,1.2055,1,229,1,0,3,3,11,1,0,0,0,1,0,0,1,0,star,hexagon,,,,,,,,,,,,,,,,,,,,,,,,,,,,,,,,,,,,,,,,,,,,,,,,,,,,,,
292744,2022-11-14_12h30.04.262,vts_reward_expectancy_bt,2022.2.4,MacIntel,60.0024001,Chrome,1440,900,,,a,1.8897,1,230,1,0,4,4,1,1,1,0,0,0,0,0,1,0,triangle,hexagon,,,,,,,,,,,,,,,,,,,,,,,,,,,,,,,,,,,,,,,,,,,,,,,,,,,,,,
292744,2022-11-14_12h30.04.262,vts_reward_expectancy_bt,2022.2.4,MacIntel,60.0024001,Chrome,1440,900,,,a,1.3063,1,231,1,0,5,5,10,1,0,0,0,1,0,1,0,0,star ,circle,,,,,,,,,,,,,,,,,,,,,,,,,,,,,,,,,,,,,,,,,,,,,,,,,,,,,,
292744,2022-11-14_12h30.04.262,vts_reward_expectancy_bt,2022.2.4,MacIntel,60.0024001,Chrome,1440,900,,,l,1.0017,1,232,1,0,6,6,0,1,1,0,0,0,0,1,0,0,triangle,circle,,,,,,,,,,,,,,,,,,,,,,,,,,,,,,,,,,,,,,,,,,,,,,,,,,,,,,
292744,2022-11-14_12h30.04.262,vts_reward_expectancy_bt,2022.2.4,MacIntel,60.0024001,Chrome,1440,900,,,a,0.772,10,242,1,0,7,7,8,1,0,0,1,0,0,0,0,1,hexagon,star,,,,,,,,,,,,,,,,,,,,,,,,,,,,,,,,,,,,,,,,,,,,,,,,,,,,,,
292744,2022-11-14_12h30.04.262,vts_reward_expectancy_bt,2022.2.4,MacIntel,60.0024001,Chrome,1440,900,,,a,3.6192,1,243,1,0,8,8,7,1,0,0,1,0,0,1,0,0,hexagon,circle,,,,,,,,,,,,,,,,,,,,,,,,,,,,,,,,,,,,,,,,,,,,,,,,,,,,,,
292744,2022-11-14_12h30.04.262,vts_reward_expectancy_bt,2022.2.4,MacIntel,60.0024001,Chrome,1440,900,,,a,1.3902,1,244,1,0,9,9,5,1,0,1,0,0,0,0,0,1,circle,star,,,,,,,,,,,,,,,,,,,,,,,,,,,,,,,,,,,,,,,,,,,,,,,,,,,,,,
292744,2022-11-14_12h30.04.262,vts_reward_expectancy_bt,2022.2.4,MacIntel,60.0024001,Chrome,1440,900,,,l,0.811,1,245,1,0,10,10,9,1,0,0,0,1,1,0,0,0,star,triangle,,,,,,,,,,,,,,,,,,,,,,,,,,,,,,,,,,,,,,,,,,,,,,,,,,,,,,
292744,2022-11-14_12h30.04.262,vts_reward_expectancy_bt,2022.2.4,MacIntel,60.0024001,Chrome,1440,900,,,a,0.797,10,255,1,0,11,11,3,1,0,1,0,0,1,0,0,0,circle,triangle,,,,,,,,,,,,,,,,,,,,,,,,,,,,,,,,,,,,,,,,,,,,,,,,,,,,,,
292744,2022-11-14_12h30.04.262,vts_reward_expectancy_bt,2022.2.4,MacIntel,60.0024001,Chrome,1440,900,,,a,1.6412,10,265,1,1,0,12,9,1,0,0,0,1,1,0,0,0,star,triangle,,,,,,,,,,,,,,,,,,,,,,,,,,,,,,,,,,,,,,,,,,,,,,,,,,,,,,
292744,2022-11-14_12h30.04.262,vts_reward_expectancy_bt,2022.2.4,MacIntel,60.0024001,Chrome,1440,900,,,a,1.5502,1,266,1,1,1,13,5,1,0,1,0,0,0,0,0,1,circle,star,,,,,,,,,,,,,,,,,,,,,,,,,,,,,,,,,,,,,,,,,,,,,,,,,,,,,,
292744,2022-11-14_12h30.04.262,vts_reward_expectancy_bt,2022.2.4,MacIntel,60.0024001,Chrome,1440,900,,,a,1.9889,10,276,1,1,2,14,7,1,0,0,1,0,0,1,0,0,hexagon,circle,,,,,,,,,,,,,,,,,,,,,,,,,,,,,,,,,,,,,,,,,,,,,,,,,,,,,,
292744,2022-11-14_12h30.04.262,vts_reward_expectancy_bt,2022.2.4,MacIntel,60.0024001,Chrome,1440,900,,,l,1.3536,1,277,1,1,3,15,4,1,0,1,0,0,0,0,1,0,circle,hexagon,,,,,,,,,,,,,,,,,,,,,,,,,,,,,,,,,,,,,,,,,,,,,,,,,,,,,,
292744,2022-11-14_12h30.04.262,vts_reward_expectancy_bt,2022.2.4,MacIntel,60.0024001,Chrome,1440,900,,,a,1.3048,1,278,1,1,4,16,6,1,0,0,1,0,1,0,0,0,hexagon,triangle,,,,,,,,,,,,,,,,,,,,,,,,,,,,,,,,,,,,,,,,,,,,,,,,,,,,,,
292744,2022-11-14_12h30.04.262,vts_reward_expectancy_bt,2022.2.4,MacIntel,60.0024001,Chrome,1440,900,,,l,0.6589,10,288,1,1,5,17,2,1,1,0,0,0,0,0,0,1,triangle,star,,,,,,,,,,,,,,,,,,,,,,,,,,,,,,,,,,,,,,,,,,,,,,,,,,,,,,
292744,2022-11-14_12h30.04.262,vts_reward_expectancy_bt,2022.2.4,MacIntel,60.0024001,Chrome,1440,900,,,l,0.8667,10,298,1,1,6,18,1,1,1,0,0,0,0,0,1,0,triangle,hexagon,,,,,,,,,,,,,,,,,,,,,,,,,,,,,,,,,,,,,,,,,,,,,,,,,,,,,,
292744,2022-11-14_12h30.04.262,vts_reward_expectancy_bt,2022.2.4,MacIntel,60.0024001,Chrome,1440,900,,,a,0.8665,1,299,1,1,7,19,3,1,0,1,0,0,1,0,0,0,circle,triangle,,,,,,,,,,,,,,,,,,,,,,,,,,,,,,,,,,,,,,,,,,,,,,,,,,,,,,
292744,2022-11-14_12h30.04.262,vts_reward_expectancy_bt,2022.2.4,MacIntel,60.0024001,Chrome,1440,900,,,a,0.6643,1,300,1,1,8,20,10,1,0,0,0,1,0,1,0,0,star ,circle,,,,,,,,,,,,,,,,,,,,,,,,,,,,,,,,,,,,,,,,,,,,,,,,,,,,,,
292744,2022-11-14_12h30.04.262,vts_reward_expectancy_bt,2022.2.4,MacIntel,60.0024001,Chrome,1440,900,,,l,0.7822,10,310,1,1,9,21,8,1,0,0,1,0,0,0,0,1,hexagon,star,,,,,,,,,,,,,,,,,,,,,,,,,,,,,,,,,,,,,,,,,,,,,,,,,,,,,,
292744,2022-11-14_12h30.04.262,vts_reward_expectancy_bt,2022.2.4,MacIntel,60.0024001,Chrome,1440,900,,,a,0.5841,10,320,1,1,10,22,11,1,0,0,0,1,0,0,1,0,star,hexagon,,,,,,,,,,,,,,,,,,,,,,,,,,,,,,,,,,,,,,,,,,,,,,,,,,,,,,
292744,2022-11-14_12h30.04.262,vts_reward_expectancy_bt,2022.2.4,MacIntel,60.0024001,Chrome,1440,900,,,l,1.0566,1,321,1,1,11,23,0,1,1,0,0,0,0,1,0,0,triangle,circle,,,,,,,,,,,,,,,,,,,,,,,,,,,,,,,,,,,,,,,,,,,,,,,,,,,,,,
292744,2022-11-14_12h30.04.262,vts_reward_expectancy_bt,2022.2.4,MacIntel,60.0024001,Chrome,1440,900,,,a,0.5847,10,331,1,2,0,24,5,1,0,1,0,0,0,0,0,1,circle,star,,,,,,,,,,,,,,,,,,,,,,,,,,,,,,,,,,,,,,,,,,,,,,,,,,,,,,
292744,2022-11-14_12h30.04.262,vts_reward_expectancy_bt,2022.2.4,MacIntel,60.0024001,Chrome,1440,900,,,a,10.7198,10,341,1,2,1,25,6,1,0,0,1,0,1,0,0,0,hexagon,triangle,,,,,,,,,,,,,,,,,,,,,,,,,,,,,,,,,,,,,,,,,,,,,,,,,,,,,,
292744,2022-11-14_12h30.04.262,vts_reward_expectancy_bt,2022.2.4,MacIntel,60.0024001,Chrome,1440,900,,,a,0.8195,1,342,1,2,2,26,3,1,0,1,0,0,1,0,0,0,circle,triangle,,,,,,,,,,,,,,,,,,,,,,,,,,,,,,,,,,,,,,,,,,,,,,,,,,,,,,
292744,2022-11-14_12h30.04.262,vts_reward_expectancy_bt,2022.2.4,MacIntel,60.0024001,Chrome,1440,900,,,l,0.7492,10,352,1,2,3,27,1,1,1,0,0,0,0,0,1,0,triangle,hexagon,,,,,,,,,,,,,,,,,,,,,,,,,,,,,,,,,,,,,,,,,,,,,,,,,,,,,,
292744,2022-11-14_12h30.04.262,vts_reward_expectancy_bt,2022.2.4,MacIntel,60.0024001,Chrome,1440,900,,,l,0.6987,10,362,1,2,4,28,4,1,0,1,0,0,0,0,1,0,circle,hexagon,,,,,,,,,,,,,,,,,,,,,,,,,,,,,,,,,,,,,,,,,,,,,,,,,,,,,,
292744,2022-11-14_12h30.04.262,vts_reward_expectancy_bt,2022.2.4,MacIntel,60.0024001,Chrome,1440,900,,,l,1.4096,10,372,1,2,5,29,11,1,0,0,0,1,0,0,1,0,star,hexagon,,,,,,,,,,,,,,,,,,,,,,,,,,,,,,,,,,,,,,,,,,,,,,,,,,,,,,
292744,2022-11-14_12h30.04.262,vts_reward_expectancy_bt,2022.2.4,MacIntel,60.0024001,Chrome,1440,900,,,a,1.4312,10,382,1,2,6,30,7,1,0,0,1,0,0,1,0,0,hexagon,circle,,,,,,,,,,,,,,,,,,,,,,,,,,,,,,,,,,,,,,,,,,,,,,,,,,,,,,
292744,2022-11-14_12h30.04.262,vts_reward_expectancy_bt,2022.2.4,MacIntel,60.0024001,Chrome,1440,900,,,l,1.0439,1,383,1,2,7,31,10,1,0,0,0,1,0,1,0,0,star ,circle,,,,,,,,,,,,,,,,,,,,,,,,,,,,,,,,,,,,,,,,,,,,,,,,,,,,,,
292744,2022-11-14_12h30.04.262,vts_reward_expectancy_bt,2022.2.4,MacIntel,60.0024001,Chrome,1440,900,,,a,1.0542,1,384,1,2,8,32,9,1,0,0,0,1,1,0,0,0,star,triangle,,,,,,,,,,,,,,,,,,,,,,,,,,,,,,,,,,,,,,,,,,,,,,,,,,,,,,
292744,2022-11-14_12h30.04.262,vts_reward_expectancy_bt,2022.2.4,MacIntel,60.0024001,Chrome,1440,900,,,a,1.1004,1,385,1,2,9,33,8,1,0,0,1,0,0,0,0,1,hexagon,star,,,,,,,,,,,,,,,,,,,,,,,,,,,,,,,,,,,,,,,,,,,,,,,,,,,,,,
292744,2022-11-14_12h30.04.262,vts_reward_expectancy_bt,2022.2.4,MacIntel,60.0024001,Chrome,1440,900,,,l,0.9888,1,386,1,2,10,34,2,1,1,0,0,0,0,0,0,1,triangle,star,,,,,,,,,,,,,,,,,,,,,,,,,,,,,,,,,,,,,,,,,,,,,,,,,,,,,,
292744,2022-11-14_12h30.04.262,vts_reward_expectancy_bt,2022.2.4,MacIntel,60.0024001,Chrome,1440,900,,,a,0.7018,1,387,1,2,11,35,0,1,1,0,0,0,0,1,0,0,triangle,circle,,,,,,,,,,,,,,,,,,,,,,,,,,,,,,,,,,,,,,,,,,,,,,,,,,,,,,
292744,2022-11-14_12h30.04.262,vts_reward_expectancy_bt,2022.2.4,MacIntel,60.0024001,Chrome,1440,900,,,l,0.8834,1,388,2,0,0,0,0,1,1,0,0,0,0,1,0,0,triangle,circle,,,,,,,,,,,,,,,,,,,,,,,,,,,,,,,,,,,,,,,,,,,,,,,,,,,,,,
292744,2022-11-14_12h30.04.262,vts_reward_expectancy_bt,2022.2.4,MacIntel,60.0024001,Chrome,1440,900,,,l,0.8154,10,398,2,0,1,1,5,1,0,1,0,0,0,0,0,1,circle,star,,,,,,,,,,,,,,,,,,,,,,,,,,,,,,,,,,,,,,,,,,,,,,,,,,,,,,
292744,2022-11-14_12h30.04.262,vts_reward_expectancy_bt,2022.2.4,MacIntel,60.0024001,Chrome,1440,900,,,l,1.5229,10,408,2,0,2,2,8,1,0,0,1,0,0,0,0,1,hexagon,star,,,,,,,,,,,,,,,,,,,,,,,,,,,,,,,,,,,,,,,,,,,,,,,,,,,,,,
292744,2022-11-14_12h30.04.262,vts_reward_expectancy_bt,2022.2.4,MacIntel,60.0024001,Chrome,1440,900,,,a,1.2524,10,418,2,0,3,3,7,1,0,0,1,0,0,1,0,0,hexagon,circle,,,,,,,,,,,,,,,,,,,,,,,,,,,,,,,,,,,,,,,,,,,,,,,,,,,,,,
292744,2022-11-14_12h30.04.262,vts_reward_expectancy_bt,2022.2.4,MacIntel,60.0024001,Chrome,1440,900,,,a,2.6737,10,428,2,0,4,4,11,1,0,0,0,1,0,0,1,0,star,hexagon,,,,,,,,,,,,,,,,,,,,,,,,,,,,,,,,,,,,,,,,,,,,,,,,,,,,,,
292744,2022-11-14_12h30.04.262,vts_reward_expectancy_bt,2022.2.4,MacIntel,60.0024001,Chrome,1440,900,,,l,0.8564,1,429,2,0,5,5,4,1,0,1,0,0,0,0,1,0,circle,hexagon,,,,,,,,,,,,,,,,,,,,,,,,,,,,,,,,,,,,,,,,,,,,,,,,,,,,,,
292744,2022-11-14_12h30.04.262,vts_reward_expectancy_bt,2022.2.4,MacIntel,60.0024001,Chrome,1440,900,,,a,0.6986,1,430,2,0,6,6,10,1,0,0,0,1,0,1,0,0,star ,circle,,,,,,,,,,,,,,,,,,,,,,,,,,,,,,,,,,,,,,,,,,,,,,,,,,,,,,
292744,2022-11-14_12h30.04.262,vts_reward_expectancy_bt,2022.2.4,MacIntel,60.0024001,Chrome,1440,900,,,a,0.8504,10,440,2,0,7,7,9,1,0,0,0,1,1,0,0,0,star,triangle,,,,,,,,,,,,,,,,,,,,,,,,,,,,,,,,,,,,,,,,,,,,,,,,,,,,,,
292744,2022-11-14_12h30.04.262,vts_reward_expectancy_bt,2022.2.4,MacIntel,60.0024001,Chrome,1440,900,,,l,0.6517,1,441,2,0,8,8,2,1,1,0,0,0,0,0,0,1,triangle,star,,,,,,,,,,,,,,,,,,,,,,,,,,,,,,,,,,,,,,,,,,,,,,,,,,,,,,
292744,2022-11-14_12h30.04.262,vts_reward_expectancy_bt,2022.2.4,MacIntel,60.0024001,Chrome,1440,900,,,a,0.5918,1,442,2,0,9,9,3,1,0,1,0,0,1,0,0,0,circle,triangle,,,,,,,,,,,,,,,,,,,,,,,,,,,,,,,,,,,,,,,,,,,,,,,,,,,,,,
292744,2022-11-14_12h30.04.262,vts_reward_expectancy_bt,2022.2.4,MacIntel,60.0024001,Chrome,1440,900,,,a,0.7677,1,443,2,0,10,10,6,1,0,0,1,0,1,0,0,0,hexagon,triangle,,,,,,,,,,,,,,,,,,,,,,,,,,,,,,,,,,,,,,,,,,,,,,,,,,,,,,
292744,2022-11-14_12h30.04.262,vts_reward_expectancy_bt,2022.2.4,MacIntel,60.0024001,Chrome,1440,900,,,l,0.7326,10,453,2,0,11,11,1,1,1,0,0,0,0,0,1,0,triangle,hexagon,,,,,,,,,,,,,,,,,,,,,,,,,,,,,,,,,,,,,,,,,,,,,,,,,,,,,,
292744,2022-11-14_12h30.04.262,vts_reward_expectancy_bt,2022.2.4,MacIntel,60.0024001,Chrome,1440,900,,,a,0.7071,1,454,2,1,0,12,6,1,0,0,1,0,1,0,0,0,hexagon,triangle,,,,,,,,,,,,,,,,,,,,,,,,,,,,,,,,,,,,,,,,,,,,,,,,,,,,,,
292744,2022-11-14_12h30.04.262,vts_reward_expectancy_bt,2022.2.4,MacIntel,60.0024001,Chrome,1440,900,,,a,0.7511,10,464,2,1,1,13,11,1,0,0,0,1,0,0,1,0,star,hexagon,,,,,,,,,,,,,,,,,,,,,,,,,,,,,,,,,,,,,,,,,,,,,,,,,,,,,,
292744,2022-11-14_12h30.04.262,vts_reward_expectancy_bt,2022.2.4,MacIntel,60.0024001,Chrome,1440,900,,,l,1.0062,10,474,2,1,2,14,4,1,0,1,0,0,0,0,1,0,circle,hexagon,,,,,,,,,,,,,,,,,,,,,,,,,,,,,,,,,,,,,,,,,,,,,,,,,,,,,,
292744,2022-11-14_12h30.04.262,vts_reward_expectancy_bt,2022.2.4,MacIntel,60.0024001,Chrome,1440,900,,,a,1.2321,10,484,2,1,3,15,8,1,0,0,1,0,0,0,0,1,hexagon,star,,,,,,,,,,,,,,,,,,,,,,,,,,,,,,,,,,,,,,,,,,,,,,,,,,,,,,
292744,2022-11-14_12h30.04.262,vts_reward_expectancy_bt,2022.2.4,MacIntel,60.0024001,Chrome,1440,900,,,l,0.8568,1,485,2,1,4,16,10,1,0,0,0,1,0,1,0,0,star ,circle,,,,,,,,,,,,,,,,,,,,,,,,,,,,,,,,,,,,,,,,,,,,,,,,,,,,,,
292744,2022-11-14_12h30.04.262,vts_reward_expectancy_bt,2022.2.4,MacIntel,60.0024001,Chrome,1440,900,,,a,0.6655,10,495,2,1,5,17,9,1,0,0,0,1,1,0,0,0,star,triangle,,,,,,,,,,,,,,,,,,,,,,,,,,,,,,,,,,,,,,,,,,,,,,,,,,,,,,
292744,2022-11-14_12h30.04.262,vts_reward_expectancy_bt,2022.2.4,MacIntel,60.0024001,Chrome,1440,900,,,l,0.5992,10,505,2,1,6,18,2,1,1,0,0,0,0,0,0,1,triangle,star,,,,,,,,,,,,,,,,,,,,,,,,,,,,,,,,,,,,,,,,,,,,,,,,,,,,,,
292744,2022-11-14_12h30.04.262,vts_reward_expectancy_bt,2022.2.4,MacIntel,60.0024001,Chrome,1440,900,,,l,0.6398,10,515,2,1,7,19,5,1,0,1,0,0,0,0,0,1,circle,star,,,,,,,,,,,,,,,,,,,,,,,,,,,,,,,,,,,,,,,,,,,,,,,,,,,,,,
292744,2022-11-14_12h30.04.262,vts_reward_expectancy_bt,2022.2.4,MacIntel,60.0024001,Chrome,1440,900,,,l,1.2229,10,525,2,1,8,20,1,1,1,0,0,0,0,0,1,0,triangle,hexagon,,,,,,,,,,,,,,,,,,,,,,,,,,,,,,,,,,,,,,,,,,,,,,,,,,,,,,
292744,2022-11-14_12h30.04.262,vts_reward_expectancy_bt,2022.2.4,MacIntel,60.0024001,Chrome,1440,900,,,a,0.6777,1,526,2,1,9,21,7,1,0,0,1,0,0,1,0,0,hexagon,circle,,,,,,,,,,,,,,,,,,,,,,,,,,,,,,,,,,,,,,,,,,,,,,,,,,,,,,
292744,2022-11-14_12h30.04.262,vts_reward_expectancy_bt,2022.2.4,MacIntel,60.0024001,Chrome,1440,900,,,l,0.8497,1,527,2,1,10,22,3,1,0,1,0,0,1,0,0,0,circle,triangle,,,,,,,,,,,,,,,,,,,,,,,,,,,,,,,,,,,,,,,,,,,,,,,,,,,,,,
292744,2022-11-14_12h30.04.262,vts_reward_expectancy_bt,2022.2.4,MacIntel,60.0024001,Chrome,1440,900,,,a,1.3866,10,537,2,1,11,23,0,1,1,0,0,0,0,1,0,0,triangle,circle,,,,,,,,,,,,,,,,,,,,,,,,,,,,,,,,,,,,,,,,,,,,,,,,,,,,,,
292744,2022-11-14_12h30.04.262,vts_reward_expectancy_bt,2022.2.4,MacIntel,60.0024001,Chrome,1440,900,,,l,0.6539,10,547,2,2,0,24,1,1,1,0,0,0,0,0,1,0,triangle,hexagon,,,,,,,,,,,,,,,,,,,,,,,,,,,,,,,,,,,,,,,,,,,,,,,,,,,,,,
292744,2022-11-14_12h30.04.262,vts_reward_expectancy_bt,2022.2.4,MacIntel,60.0024001,Chrome,1440,900,,,a,0.7392,10,557,2,2,1,25,6,1,0,0,1,0,1,0,0,0,hexagon,triangle,,,,,,,,,,,,,,,,,,,,,,,,,,,,,,,,,,,,,,,,,,,,,,,,,,,,,,
292744,2022-11-14_12h30.04.262,vts_reward_expectancy_bt,2022.2.4,MacIntel,60.0024001,Chrome,1440,900,,,l,0.668,10,567,2,2,2,26,5,1,0,1,0,0,0,0,0,1,circle,star,,,,,,,,,,,,,,,,,,,,,,,,,,,,,,,,,,,,,,,,,,,,,,,,,,,,,,
292744,2022-11-14_12h30.04.262,vts_reward_expectancy_bt,2022.2.4,MacIntel,60.0024001,Chrome,1440,900,,,a,1.0841,10,577,2,2,3,27,8,1,0,0,1,0,0,0,0,1,hexagon,star,,,,,,,,,,,,,,,,,,,,,,,,,,,,,,,,,,,,,,,,,,,,,,,,,,,,,,
292744,2022-11-14_12h30.04.262,vts_reward_expectancy_bt,2022.2.4,MacIntel,60.0024001,Chrome,1440,900,,,a,0.7781,1,578,2,2,4,28,7,1,0,0,1,0,0,1,0,0,hexagon,circle,,,,,,,,,,,,,,,,,,,,,,,,,,,,,,,,,,,,,,,,,,,,,,,,,,,,,,
292744,2022-11-14_12h30.04.262,vts_reward_expectancy_bt,2022.2.4,MacIntel,60.0024001,Chrome,1440,900,,,a,1.0357,1,579,2,2,5,29,10,1,0,0,0,1,0,1,0,0,star ,circle,,,,,,,,,,,,,,,,,,,,,,,,,,,,,,,,,,,,,,,,,,,,,,,,,,,,,,
292744,2022-11-14_12h30.04.262,vts_reward_expectancy_bt,2022.2.4,MacIntel,60.0024001,Chrome,1440,900,,,l,0.6216,10,589,2,2,6,30,4,1,0,1,0,0,0,0,1,0,circle,hexagon,,,,,,,,,,,,,,,,,,,,,,,,,,,,,,,,,,,,,,,,,,,,,,,,,,,,,,
292744,2022-11-14_12h30.04.262,vts_reward_expectancy_bt,2022.2.4,MacIntel,60.0024001,Chrome,1440,900,,,a,0.785,1,590,2,2,7,31,9,1,0,0,0,1,1,0,0,0,star,triangle,,,,,,,,,,,,,,,,,,,,,,,,,,,,,,,,,,,,,,,,,,,,,,,,,,,,,,
292744,2022-11-14_12h30.04.262,vts_reward_expectancy_bt,2022.2.4,MacIntel,60.0024001,Chrome,1440,900,,,l,0.5505,10,600,2,2,8,32,2,1,1,0,0,0,0,0,0,1,triangle,star,,,,,,,,,,,,,,,,,,,,,,,,,,,,,,,,,,,,,,,,,,,,,,,,,,,,,,
292744,2022-11-14_12h30.04.262,vts_reward_expectancy_bt,2022.2.4,MacIntel,60.0024001,Chrome,1440,900,,,l,0.6634,10,610,2,2,9,33,0,1,1,0,0,0,0,1,0,0,triangle,circle,,,,,,,,,,,,,,,,,,,,,,,,,,,,,,,,,,,,,,,,,,,,,,,,,,,,,,
292744,2022-11-14_12h30.04.262,vts_reward_expectancy_bt,2022.2.4,MacIntel,60.0024001,Chrome,1440,900,,,a,0.6988,1,611,2,2,10,34,3,1,0,1,0,0,1,0,0,0,circle,triangle,,,,,,,,,,,,,,,,,,,,,,,,,,,,,,,,,,,,,,,,,,,,,,,,,,,,,,
292744,2022-11-14_12h30.04.262,vts_reward_expectancy_bt,2022.2.4,MacIntel,60.0024001,Chrome,1440,900,,,l,1.0373,10,621,2,2,11,35,11,1,0,0,0,1,0,0,1,0,star,hexagon,,,,,,,,,,,,,,,,,,,,,,,,,,,,,,,,,,,,,,,,,,,,,,,,,,,,,,
292744,2022-11-14_12h30.04.262,vts_reward_expectancy_bt,2022.2.4,MacIntel,60.0024001,Chrome,1440,900,,,,,,,,,,,,,,,,,,,,,,,U,125,circle,0,0,,0,0,0,0,0,1,,,,,,,,,,,,,,,,,,,,,,,,,,,,,,,,,,,,,,,,,,
292744,2022-11-14_12h30.04.262,vts_reward_expectancy_bt,2022.2.4,MacIntel,60.0024001,Chrome,1440,900,,,,,,,,,,,,,,,,,,,,,,,W,146,star,0,1,d,0,1,0,1,0,1,0.6458,,,,,,,,,,,,,,,,,,,,,,,,,,,,,,,,,,,,,,,,,
292744,2022-11-14_12h30.04.262,vts_reward_expectancy_bt,2022.2.4,MacIntel,60.0024001,Chrome,1440,900,,,,,,,,,,,,,,,,,,,,,,,S,132,triangle,1,1,f,0,2,0,2,0,1,0.5892,,,,,,,,,,,,,,,,,,,,,,,,,,,,,,,,,,,,,,,,,
292744,2022-11-14_12h30.04.262,vts_reward_expectancy_bt,2022.2.4,MacIntel,60.0024001,Chrome,1440,900,,,,,,,,,,,,,,,,,,,,,,,Y,139,hexagon,1,0,f,0,3,0,3,0,1,0.6177,,,,,,,,,,,,,,,,,,,,,,,,,,,,,,,,,,,,,,,,,
292744,2022-11-14_12h30.04.262,vts_reward_expectancy_bt,2022.2.4,MacIntel,60.0024001,Chrome,1440,900,,,,,,,,,,,,,,,,,,,,,,,H,167,circle,1,0,d,0,4,0,4,0,1,0.7768,,,,,,,,,,,,,,,,,,,,,,,,,,,,,,,,,,,,,,,,,
292744,2022-11-14_12h30.04.262,vts_reward_expectancy_bt,2022.2.4,MacIntel,60.0024001,Chrome,1440,900,,,,,,,,,,,,,,,,,,,,,,,D,160,star,1,0,d,0,5,0,5,0,1,0.6505,,,,,,,,,,,,,,,,,,,,,,,,,,,,,,,,,,,,,,,,,
292744,2022-11-14_12h30.04.262,vts_reward_expectancy_bt,2022.2.4,MacIntel,60.0024001,Chrome,1440,900,,,,,,,,,,,,,,,,,,,,,,,B,181,triangle,1,0,d,0,6,0,6,0,1,0.6621,,,,,,,,,,,,,,,,,,,,,,,,,,,,,,,,,,,,,,,,,
292744,2022-11-14_12h30.04.262,vts_reward_expectancy_bt,2022.2.4,MacIntel,60.0024001,Chrome,1440,900,,,,,,,,,,,,,,,,,,,,,,,F,174,hexagon,1,0,d,0,7,0,7,0,1,0.7177,,,,,,,,,,,,,,,,,,,,,,,,,,,,,,,,,,,,,,,,,
292744,2022-11-14_12h30.04.262,vts_reward_expectancy_bt,2022.2.4,MacIntel,60.0024001,Chrome,1440,900,,,,,,,,,,,,,,,,,,,,,,,U,125,hexagon,1,0,f,0,8,0,8,0,1,0.4482,,,,,,,,,,,,,,,,,,,,,,,,,,,,,,,,,,,,,,,,,
292744,2022-11-14_12h30.04.262,vts_reward_expectancy_bt,2022.2.4,MacIntel,60.0024001,Chrome,1440,900,,,,,,,,,,,,,,,,,,,,,,,W,146,circle,1,0,f,0,9,0,9,0,1,0.5629,,,,,,,,,,,,,,,,,,,,,,,,,,,,,,,,,,,,,,,,,
292744,2022-11-14_12h30.04.262,vts_reward_expectancy_bt,2022.2.4,MacIntel,60.0024001,Chrome,1440,900,,,,,,,,,,,,,,,,,,,,,,,Y,160,star,1,0,f,1,0,0,0,0,1,0.9792,,,,,,,,,,,,,,,,,,,,,,,,,,,,,,,,,,,,,,,,,
292744,2022-11-14_12h30.04.262,vts_reward_expectancy_bt,2022.2.4,MacIntel,60.0024001,Chrome,1440,900,,,,,,,,,,,,,,,,,,,,,,,H,125,circle,1,0,d,1,1,0,1,0,1,0.8708,,,,,,,,,,,,,,,,,,,,,,,,,,,,,,,,,,,,,,,,,
292744,2022-11-14_12h30.04.262,vts_reward_expectancy_bt,2022.2.4,MacIntel,60.0024001,Chrome,1440,900,,,,,,,,,,,,,,,,,,,,,,,S,174,triangle,1,0,f,1,2,0,2,0,1,0.6113,,,,,,,,,,,,,,,,,,,,,,,,,,,,,,,,,,,,,,,,,
292744,2022-11-14_12h30.04.262,vts_reward_expectancy_bt,2022.2.4,MacIntel,60.0024001,Chrome,1440,900,,,,,,,,,,,,,,,,,,,,,,,W,146,hexagon,1,0,f,1,3,0,3,0,1,0.6269,,,,,,,,,,,,,,,,,,,,,,,,,,,,,,,,,,,,,,,,,
292744,2022-11-14_12h30.04.262,vts_reward_expectancy_bt,2022.2.4,MacIntel,60.0024001,Chrome,1440,900,,,,,,,,,,,,,,,,,,,,,,,U,132,star,1,0,f,1,4,0,4,0,1,0.5702,,,,,,,,,,,,,,,,,,,,,,,,,,,,,,,,,,,,,,,,,
292744,2022-11-14_12h30.04.262,vts_reward_expectancy_bt,2022.2.4,MacIntel,60.0024001,Chrome,1440,900,,,,,,,,,,,,,,,,,,,,,,,D,181,circle,1,0,d,1,5,0,5,0,1,0.5493,,,,,,,,,,,,,,,,,,,,,,,,,,,,,,,,,,,,,,,,,
292744,2022-11-14_12h30.04.262,vts_reward_expectancy_bt,2022.2.4,MacIntel,60.0024001,Chrome,1440,900,,,,,,,,,,,,,,,,,,,,,,,B,139,triangle,1,0,d,1,6,0,6,0,1,0.5266,,,,,,,,,,,,,,,,,,,,,,,,,,,,,,,,,,,,,,,,,
292744,2022-11-14_12h30.04.262,vts_reward_expectancy_bt,2022.2.4,MacIntel,60.0024001,Chrome,1440,900,,,,,,,,,,,,,,,,,,,,,,,F,167,hexagon,1,0,d,1,7,0,7,0,1,0.6179,,,,,,,,,,,,,,,,,,,,,,,,,,,,,,,,,,,,,,,,,
292744,2022-11-14_12h30.04.262,vts_reward_expectancy_bt,2022.2.4,MacIntel,60.0024001,Chrome,1440,900,,,,,,,,,,,,,,,,,,,,,,,Y,160,hexagon,1,0,f,1,8,0,8,0,1,0.3633,,,,,,,,,,,,,,,,,,,,,,,,,,,,,,,,,,,,,,,,,
292744,2022-11-14_12h30.04.262,vts_reward_expectancy_bt,2022.2.4,MacIntel,60.0024001,Chrome,1440,900,,,,,,,,,,,,,,,,,,,,,,,H,125,star,1,0,d,1,9,0,9,0,1,0.9165,,,,,,,,,,,,,,,,,,,,,,,,,,,,,,,,,,,,,,,,,
292744,2022-11-14_12h30.04.262,vts_reward_expectancy_bt,2022.2.4,MacIntel,60.0024001,Chrome,1440,900,,,,,,,,,,,,,,,,,,,,,,,U,139,triangle,1,0,,2,,,,,,,j,1.5652,0,0,0,0,1,,,,,,,,,,,,,,,,,,,,,,,,,,,,,,,,,,
292744,2022-11-14_12h30.04.262,vts_reward_expectancy_bt,2022.2.4,MacIntel,60.0024001,Chrome,1440,900,,,,,,,,,,,,,,,,,,,,,,,F,146,hexagon,1,0,,2,,,,,,,j,0.8817,1,0,1,0,1,,,,,,,,,,,,,,,,,,,,,,,,,,,,,,,,,,
292744,2022-11-14_12h30.04.262,vts_reward_expectancy_bt,2022.2.4,MacIntel,60.0024001,Chrome,1440,900,,,,,,,,,,,,,,,,,,,,,,,S,167,star,1,0,,2,,,,,,,k,0.7803,2,0,2,0,1,,,,,,,,,,,,,,,,,,,,,,,,,,,,,,,,,,
292744,2022-11-14_12h30.04.262,vts_reward_expectancy_bt,2022.2.4,MacIntel,60.0024001,Chrome,1440,900,,,,,,,,,,,,,,,,,,,,,,,Y,125,circle,1,0,,2,,,,,,,j,0.5966,3,0,3,0,1,,,,,,,,,,,,,,,,,,,,,,,,,,,,,,,,,,
292744,2022-11-14_12h30.04.262,vts_reward_expectancy_bt,2022.2.4,MacIntel,60.0024001,Chrome,1440,900,,,,,,,,,,,,,,,,,,,,,,,B,174,triangle,1,0,,2,,,,,,,k,0.5812,4,0,4,0,1,,,,,,,,,,,,,,,,,,,,,,,,,,,,,,,,,,
292744,2022-11-14_12h30.04.262,vts_reward_expectancy_bt,2022.2.4,MacIntel,60.0024001,Chrome,1440,900,,,,,,,,,,,,,,,,,,,,,,,H,160,hexagon,1,0,,2,,,,,,,k,0.5152,5,0,5,0,1,,,,,,,,,,,,,,,,,,,,,,,,,,,,,,,,,,
292744,2022-11-14_12h30.04.262,vts_reward_expectancy_bt,2022.2.4,MacIntel,60.0024001,Chrome,1440,900,,,,,,,,,,,,,,,,,,,,,,,W,181,star,1,0,,2,,,,,,,k,0.5245,6,0,6,0,1,,,,,,,,,,,,,,,,,,,,,,,,,,,,,,,,,,
292744,2022-11-14_12h30.04.262,vts_reward_expectancy_bt,2022.2.4,MacIntel,60.0024001,Chrome,1440,900,,,,,,,,,,,,,,,,,,,,,,,D,132,circle,1,0,,2,,,,,,,j,0.9201,7,0,7,0,1,,,,,,,,,,,,,,,,,,,,,,,,,,,,,,,,,,
292744,2022-11-14_12h30.04.262,vts_reward_expectancy_bt,2022.2.4,MacIntel,60.0024001,Chrome,1440,900,,,,,,,,,,,,,,,,,,,,,,,U,139,circle,1,0,,2,,,,,,,j,0.9647,8,0,8,0,1,,,,,,,,,,,,,,,,,,,,,,,,,,,,,,,,,,
292744,2022-11-14_12h30.04.262,vts_reward_expectancy_bt,2022.2.4,MacIntel,60.0024001,Chrome,1440,900,,,,,,,,,,,,,,,,,,,,,,,F,146,hexagon,1,0,,2,,,,,,,j,0.8148,9,0,9,0,1,,,,,,,,,,,,,,,,,,,,,,,,,,,,,,,,,,
292744,2022-11-14_12h30.04.262,vts_reward_expectancy_bt,2022.2.4,MacIntel,60.0024001,Chrome,1440,900,,,,,0,621,,,,,,,,,,,,,,,,,S,132,hexagon,1,0,,3,,,,,,,,,,,,,,-1,number,NA,j,2.0938,vtsPrac,0,0,0,0,1,,,,,,,,,,,,,,,,,,,,,,,
292744,2022-11-14_12h30.04.262,vts_reward_expectancy_bt,2022.2.4,MacIntel,60.0024001,Chrome,1440,900,,,,,0,621,,,,,,,,,,,,,,,,,Y,174,triangle,1,0,,3,,,,,,,,,,,,,,switch,letter,lettSwt,f,1.2817,vtsPrac,1,0,1,0,1,,,,,,,,,,,,,,,,,,,,,,,
292744,2022-11-14_12h30.04.262,vts_reward_expectancy_bt,2022.2.4,MacIntel,60.0024001,Chrome,1440,900,,,,,0,621,,,,,,,,,,,,,,,,,U,125,hexagon,1,0,,3,,,,,,,,,,,,,,switch,number,numSwt,j,0.924,vtsPrac,2,0,2,0,1,,,,,,,,,,,,,,,,,,,,,,,
292744,2022-11-14_12h30.04.262,vts_reward_expectancy_bt,2022.2.4,MacIntel,60.0024001,Chrome,1440,900,,,,,0,621,,,,,,,,,,,,,,,,,F,146,triangle,1,0,,3,,,,,,,,,,,,,,repeat,number,numRpt,j,0.8877,vtsPrac,3,0,3,0,1,,,,,,,,,,,,,,,,,,,,,,,
292744,2022-11-14_12h30.04.262,vts_reward_expectancy_bt,2022.2.4,MacIntel,60.0024001,Chrome,1440,900,,,,,0,621,,,,,,,,,,,,,,,,,S,132,triangle,1,0,,3,,,,,,,,,,,,,,switch,letter,lettSwt,f,0.8645,vtsPrac,4,0,4,0,1,,,,,,,,,,,,,,,,,,,,,,,
292744,2022-11-14_12h30.04.262,vts_reward_expectancy_bt,2022.2.4,MacIntel,60.0024001,Chrome,1440,900,,,,,0,621,,,,,,,,,,,,,,,,,Y,174,star,1,0,,3,,,,,,,,,,,,,,switch,number,numSwt,k,0.9457,vtsPrac,5,0,5,0,1,,,,,,,,,,,,,,,,,,,,,,,
292744,2022-11-14_12h30.04.262,vts_reward_expectancy_bt,2022.2.4,MacIntel,60.0024001,Chrome,1440,900,,,,,0,621,,,,,,,,,,,,,,,,,U,125,star,1,0,,3,,,,,,,,,,,,,,repeat,number,numRpt,j,2.222,vtsPrac,6,0,6,0,1,,,,,,,,,,,,,,,,,,,,,,,
292744,2022-11-14_12h30.04.262,vts_reward_expectancy_bt,2022.2.4,MacIntel,60.0024001,Chrome,1440,900,,,,,0,621,,,,,,,,,,,,,,,,,F,146,triangle,1,0,,3,,,,,,,,,,,,,,repeat,number,numRpt,j,2.2306,vtsPrac,7,0,7,0,1,,,,,,,,,,,,,,,,,,,,,,,
292744,2022-11-14_12h30.04.262,vts_reward_expectancy_bt,2022.2.4,MacIntel,60.0024001,Chrome,1440,900,,,,,0,621,,,,,,,,,,,,,,,,,Y,160,circle,1,0,,3,,,,,,,,,,,,,,repeat,number,numRpt,k,0.7835,vtsPrac,8,0,8,0,1,,,,,,,,,,,,,,,,,,,,,,,
292744,2022-11-14_12h30.04.262,vts_reward_expectancy_bt,2022.2.4,MacIntel,60.0024001,Chrome,1440,900,,,,,0,621,,,,,,,,,,,,,,,,,W,174,hexagon,1,0,,3,,,,,,,,,,,,,,switch,letter,lettSwt,f,1.1287,vtsPrac,9,0,9,0,1,,,,,,,,,,,,,,,,,,,,,,,
292744,2022-11-14_12h30.04.262,vts_reward_expectancy_bt,2022.2.4,MacIntel,60.0024001,Chrome,1440,900,,,,,0,621,,,,,,,,,,,,,,,,,U,132,hexagon,1,0,,3,,,,,,,,,,,,,,repeat,letter,lettRpt,f,0.8117,vtsPrac,10,0,10,0,1,,,,,,,,,,,,,,,,,,,,,,,
292744,2022-11-14_12h30.04.262,vts_reward_expectancy_bt,2022.2.4,MacIntel,60.0024001,Chrome,1440,900,,,,,0,621,,,,,,,,,,,,,,,,,S,181,triangle,1,0,,3,,,,,,,,,,,,,,repeat,letter,lettRpt,f,1.0314,vtsPrac,11,0,11,0,1,,,,,,,,,,,,,,,,,,,,,,,
292744,2022-11-14_12h30.04.262,vts_reward_expectancy_bt,2022.2.4,MacIntel,60.0024001,Chrome,1440,900,,,,,0,621,,,,,,,,,,,,,,,,,D,167,hexagon,1,0,,3,,,,,,,,,,,,,,repeat,letter,lettRpt,d,1.0127,vtsPrac,12,0,12,0,1,,,,,,,,,,,,,,,,,,,,,,,
292744,2022-11-14_12h30.04.262,vts_reward_expectancy_bt,2022.2.4,MacIntel,60.0024001,Chrome,1440,900,,,,,0,621,,,,,,,,,,,,,,,,,S,139,triangle,1,0,,3,,,,,,,,,,,,,,switch,number,numSwt,j,0.7471,vtsPrac,13,0,13,0,1,,,,,,,,,,,,,,,,,,,,,,,
292744,2022-11-14_12h30.04.262,vts_reward_expectancy_bt,2022.2.4,MacIntel,60.0024001,Chrome,1440,900,,,,,0,621,,,,,,,,,,,,,,,,,H,181,circle,1,0,,3,,,,,,,,,,,,,,repeat,number,numRpt,k,0.6725,vtsPrac,14,0,14,0,1,,,,,,,,,,,,,,,,,,,,,,,
292744,2022-11-14_12h30.04.262,vts_reward_expectancy_bt,2022.2.4,MacIntel,60.0024001,Chrome,1440,900,,,,,0,621,,,,,,,,,,,,,,,,,W,125,hexagon,0,0,,3,,,,,,,,,,,,,,repeat,number,NA,k,1.6673,vtsPrac,15,0,15,0,1,,,,,,,,,,,,,,,,,,,,,,,
292744,2022-11-14_12h30.04.262,vts_reward_expectancy_bt,2022.2.4,MacIntel,60.0024001,Chrome,1440,900,,,,,0,621,,,,,,,,,,,,,,,,,B,167,hexagon,1,1,,3,,,,,,,,,,,,,,switch,letter,lettSwt,d,0.9611,vtsPrac,16,0,16,0,1,,,,,,,,,,,,,,,,,,,,,,,
292744,2022-11-14_12h30.04.262,vts_reward_expectancy_bt,2022.2.4,MacIntel,60.0024001,Chrome,1440,900,,,,,0,621,,,,,,,,,,,,,,,,,U,160,circle,1,0,,3,,,,,,,,,,,,,,repeat,letter,lettRpt,f,0.8733,vtsPrac,17,0,17,0,1,,,,,,,,,,,,,,,,,,,,,,,
292744,2022-11-14_12h30.04.262,vts_reward_expectancy_bt,2022.2.4,MacIntel,60.0024001,Chrome,1440,900,,,,,0,621,,,,,,,,,,,,,,,,,Y,132,triangle,1,0,,3,,,,,,,,,,,,,,repeat,letter,lettRpt,f,0.8959,vtsPrac,18,0,18,0,1,,,,,,,,,,,,,,,,,,,,,,,
292744,2022-11-14_12h30.04.262,vts_reward_expectancy_bt,2022.2.4,MacIntel,60.0024001,Chrome,1440,900,,,,,0,621,,,,,,,,,,,,,,,,,F,139,star,1,0,,3,,,,,,,,,,,,,,repeat,letter,lettRpt,d,0.7826,vtsPrac,19,0,19,0,1,,,,,,,,,,,,,,,,,,,,,,,
292744,2022-11-14_12h30.04.262,vts_reward_expectancy_bt,2022.2.4,MacIntel,60.0024001,Chrome,1440,900,,,,,0,621,,,,,,,,,,,,,,,,,S,132,star,1,0,,3,,,,,,,,,,,,,,switch,number,numSwt,j,0.763,vtsPrac,20,0,20,0,1,,,,,,,,,,,,,,,,,,,,,,,
292744,2022-11-14_12h30.04.262,vts_reward_expectancy_bt,2022.2.4,MacIntel,60.0024001,Chrome,1440,900,,,,,0,621,,,,,,,,,,,,,,,,,U,174,hexagon,1,0,,3,,,,,,,,,,,,,,repeat,number,numRpt,k,0.7807,vtsPrac,21,0,21,0,1,,,,,,,,,,,,,,,,,,,,,,,
292744,2022-11-14_12h30.04.262,vts_reward_expectancy_bt,2022.2.4,MacIntel,60.0024001,Chrome,1440,900,,,,,0,621,,,,,,,,,,,,,,,,,W,125,star,1,0,,3,,,,,,,,,,,,,,repeat,number,numRpt,j,0.7151,vtsPrac,22,0,22,0,1,,,,,,,,,,,,,,,,,,,,,,,
292744,2022-11-14_12h30.04.262,vts_reward_expectancy_bt,2022.2.4,MacIntel,60.0024001,Chrome,1440,900,,,,,0,621,,,,,,,,,,,,,,,,,F,139,hexagon,1,0,,3,,,,,,,,,,,,,,repeat,number,numRpt,j,1.0966,vtsPrac,23,0,23,0,1,,,,,,,,,,,,,,,,,,,,,,,
292744,2022-11-14_12h30.04.262,vts_reward_expectancy_bt,2022.2.4,MacIntel,60.0024001,Chrome,1440,900,,,,,0,621,,,,,,,,,,,,,,,,,S,160,star,1,0,,3,,,,,,,,,,,,,,repeat,number,numRpt,k,1.2301,vtsPrac,24,0,24,0,1,,,,,,,,,,,,,,,,,,,,,,,
292744,2022-11-14_12h30.04.262,vts_reward_expectancy_bt,2022.2.4,MacIntel,60.0024001,Chrome,1440,900,,,,,0,621,,,,,,,,,,,,,,,,,H,167,circle,1,0,,3,,,,,,,,,,,,,,repeat,number,numRpt,k,1.0204,vtsPrac,25,0,25,0,1,,,,,,,,,,,,,,,,,,,,,,,
292744,2022-11-14_12h30.04.262,vts_reward_expectancy_bt,2022.2.4,MacIntel,60.0024001,Chrome,1440,900,,,,,0,621,,,,,,,,,,,,,,,,,Y,125,hexagon,1,0,,3,,,,,,,,,,,,,,switch,letter,lettSwt,f,1.3794,vtsPrac,26,0,26,0,1,,,,,,,,,,,,,,,,,,,,,,,
292744,2022-11-14_12h30.04.262,vts_reward_expectancy_bt,2022.2.4,MacIntel,60.0024001,Chrome,1440,900,,,,,0,621,,,,,,,,,,,,,,,,,B,139,star,1,0,,3,,,,,,,,,,,,,,repeat,letter,lettRpt,d,1.2808,vtsPrac,27,0,27,0,1,,,,,,,,,,,,,,,,,,,,,,,
292744,2022-11-14_12h30.04.262,vts_reward_expectancy_bt,2022.2.4,MacIntel,60.0024001,Chrome,1440,900,,,,,0,621,,,,,,,,,,,,,,,,,S,160,circle,1,0,,3,,,,,,,,,,,,,,repeat,letter,lettRpt,f,0.7255,vtsPrac,28,0,28,0,1,,,,,,,,,,,,,,,,,,,,,,,
292744,2022-11-14_12h30.04.262,vts_reward_expectancy_bt,2022.2.4,MacIntel,60.0024001,Chrome,1440,900,,,,,0,621,,,,,,,,,,,,,,,,,B,181,star,1,0,,3,,,,,,,,,,,,,,repeat,letter,lettRpt,d,0.6485,vtsPrac,29,0,29,0,1,,,,,,,,,,,,,,,,,,,,,,,
292744,2022-11-14_12h30.04.262,vts_reward_expectancy_bt,2022.2.4,MacIntel,60.0024001,Chrome,1440,900,,,,,0,621,,,,,,,,,,,,,,,,,H,139,triangle,1,0,,3,,,,,,,,,,,,,,switch,number,numSwt,j,1.8149,vtsPrac,30,0,30,0,1,,,,,,,,,,,,,,,,,,,,,,,
292744,2022-11-14_12h30.04.262,vts_reward_expectancy_bt,2022.2.4,MacIntel,60.0024001,Chrome,1440,900,,,,,0,621,,,,,,,,,,,,,,,,,W,125,star,1,0,,3,,,,,,,,,,,,,,switch,letter,lettSwt,f,0.9945,vtsPrac,31,0,31,0,1,,,,,,,,,,,,,,,,,,,,,,,
292744,2022-11-14_12h30.04.262,vts_reward_expectancy_bt,2022.2.4,MacIntel,60.0024001,Chrome,1440,900,,,,,,,,,,,,,,,,,,,,,,,,,,,,,,,,,,,,,,,,,,,,,,,,,,,,,,,,,,,,,,,,,,,,,,,,,,,,
292744,2022-11-14_12h30.04.262,vts_reward_expectancy_bt,2022.2.4,MacIntel,60.0024001,Chrome,1440,900,,,,,,,,,,,,,,,,,,,,,,,,,,,,,,,,,,,,,,,,,,,,,,,,,,,,,,,,,,,,,,,,,,,,,,,,,,,,
292744,2022-11-14_12h30.04.262,vts_reward_expectancy_bt,2022.2.4,MacIntel,60.0024001,Chrome,1440,900,,,,,0,621,,,,,,,,,,,,,,,,,D,132,circle,1,0,,,,,,,,,,,,,,,,repeat,letter,lettRpt,d,0.7463,noRew,,,,,,0,0,0,0,0,1,,,,,,,,,,,,,,,,,
292744,2022-11-14_12h30.04.262,vts_reward_expectancy_bt,2022.2.4,MacIntel,60.0024001,Chrome,1440,900,,,,,0,621,,,,,,,,,,,,,,,,,W,181,hexagon,1,0,,,,,,,,,,,,,,,,switch,number,numSwt,k,0.763,noRew,,,,,,0,1,0,1,0,1,,,,,,,,,,,,,,,,,
292744,2022-11-14_12h30.04.262,vts_reward_expectancy_bt,2022.2.4,MacIntel,60.0024001,Chrome,1440,900,,,,,0,621,,,,,,,,,,,,,,,,,S,174,circle,1,0,,,,,,,,,,,,,,,,repeat,number,numRpt,k,1.78,noRew,,,,,,0,2,0,2,0,1,,,,,,,,,,,,,,,,,
292744,2022-11-14_12h30.04.262,vts_reward_expectancy_bt,2022.2.4,MacIntel,60.0024001,Chrome,1440,900,,,,,0,621,,,,,,,,,,,,,,,,,B,139,hexagon,1,0,,,,,,,,,,,,,,,,switch,letter,lettSwt,d,0.8201,noRew,,,,,,0,3,0,3,0,1,,,,,,,,,,,,,,,,,
292744,2022-11-14_12h30.04.262,vts_reward_expectancy_bt,2022.2.4,MacIntel,60.0024001,Chrome,1440,900,,,,,0,621,,,,,,,,,,,,,,,,,D,132,star,1,0,,,,,,,,,,,,,,,,repeat,letter,lettRpt,d,1.5997,noRew,,,,,,0,4,0,4,0,1,,,,,,,,,,,,,,,,,
292744,2022-11-14_12h30.04.262,vts_reward_expectancy_bt,2022.2.4,MacIntel,60.0024001,Chrome,1440,900,,,,,0,621,,,,,,,,,,,,,,,,,W,181,hexagon,1,0,,,,,,,,,,,,,,,,repeat,letter,lettRpt,f,0.7835,noRew,,,,,,0,5,0,5,0,1,,,,,,,,,,,,,,,,,
292744,2022-11-14_12h30.04.262,vts_reward_expectancy_bt,2022.2.4,MacIntel,60.0024001,Chrome,1440,900,,,,,0,621,,,,,,,,,,,,,,,,,S,174,hexagon,1,0,,,,,,,,,,,,,,,,switch,number,numSwt,k,0.7537,noRew,,,,,,0,6,0,6,0,1,,,,,,,,,,,,,,,,,
292744,2022-11-14_12h30.04.262,vts_reward_expectancy_bt,2022.2.4,MacIntel,60.0024001,Chrome,1440,900,,,,,0,621,,,,,,,,,,,,,,,,,B,139,star,1,0,,,,,,,,,,,,,,,,switch,letter,lettSwt,d,0.6807,noRew,,,,,,0,7,0,7,0,1,,,,,,,,,,,,,,,,,
292744,2022-11-14_12h30.04.262,vts_reward_expectancy_bt,2022.2.4,MacIntel,60.0024001,Chrome,1440,900,,,,,0,621,,,,,,,,,,,,,,,,,U,167,hexagon,1,0,,,,,,,,,,,,,,,,repeat,letter,lettRpt,f,0.7459,noRew,,,,,,0,8,0,8,0,1,,,,,,,,,,,,,,,,,
292744,2022-11-14_12h30.04.262,vts_reward_expectancy_bt,2022.2.4,MacIntel,60.0024001,Chrome,1440,900,,,,,0,621,,,,,,,,,,,,,,,,,H,132,triangle,1,0,,,,,,,,,,,,,,,,switch,number,numSwt,j,1.4523,noRew,,,,,,0,9,0,9,0,1,,,,,,,,,,,,,,,,,
292744,2022-11-14_12h30.04.262,vts_reward_expectancy_bt,2022.2.4,MacIntel,60.0024001,Chrome,1440,900,,,,,0,621,,,,,,,,,,,,,,,,,S,174,hexagon,1,0,,,,,,,,,,,,,,,,switch,letter,lettSwt,f,0.8117,noRew,,,,,,0,10,0,10,0,1,,,,,,,,,,,,,,,,,
292744,2022-11-14_12h30.04.262,vts_reward_expectancy_bt,2022.2.4,MacIntel,60.0024001,Chrome,1440,900,,,,,0,621,,,,,,,,,,,,,,,,,B,181,circle,1,0,,,,,,,,,,,,,,,,repeat,letter,lettRpt,d,0.6086,noRew,,,,,,0,11,0,11,0,1,,,,,,,,,,,,,,,,,
292744,2022-11-14_12h30.04.262,vts_reward_expectancy_bt,2022.2.4,MacIntel,60.0024001,Chrome,1440,900,,,,,0,621,,,,,,,,,,,,,,,,,D,160,circle,1,0,,,,,,,,,,,,,,,,repeat,letter,lettRpt,d,0.7806,noRew,,,,,,0,12,0,12,0,1,,,,,,,,,,,,,,,,,
292744,2022-11-14_12h30.04.262,vts_reward_expectancy_bt,2022.2.4,MacIntel,60.0024001,Chrome,1440,900,,,,,0,621,,,,,,,,,,,,,,,,,F,181,star,1,0,,,,,,,,,,,,,,,,repeat,letter,lettRpt,d,0.7473,noRew,,,,,,0,13,0,13,0,1,,,,,,,,,,,,,,,,,
292744,2022-11-14_12h30.04.262,vts_reward_expectancy_bt,2022.2.4,MacIntel,60.0024001,Chrome,1440,900,,,,,0,621,,,,,,,,,,,,,,,,,W,167,circle,1,0,,,,,,,,,,,,,,,,switch,number,numSwt,k,1.2973,noRew,,,,,,0,14,0,14,0,1,,,,,,,,,,,,,,,,,
292744,2022-11-14_12h30.04.262,vts_reward_expectancy_bt,2022.2.4,MacIntel,60.0024001,Chrome,1440,900,,,,,0,621,,,,,,,,,,,,,,,,,U,132,triangle,1,0,,,,,,,,,,,,,,,,repeat,number,numRpt,j,0.8965,noRew,,,,,,0,15,0,15,0,1,,,,,,,,,,,,,,,,,
292744,2022-11-14_12h30.04.262,vts_reward_expectancy_bt,2022.2.4,MacIntel,60.0024001,Chrome,1440,900,,,,,0,621,,,,,,,,,,,,,,,,,B,125,circle,1,0,,,,,,,,,,,,,,,,repeat,number,numRpt,j,0.6132,noRew,,,,,,0,16,0,16,0,1,,,,,,,,,,,,,,,,,
292744,2022-11-14_12h30.04.262,vts_reward_expectancy_bt,2022.2.4,MacIntel,60.0024001,Chrome,1440,900,,,,,0,621,,,,,,,,,,,,,,,,,F,160,hexagon,1,0,,,,,,,,,,,,,,,,repeat,number,numRpt,k,0.7378,noRew,,,,,,0,17,0,17,0,1,,,,,,,,,,,,,,,,,
292744,2022-11-14_12h30.04.262,vts_reward_expectancy_bt,2022.2.4,MacIntel,60.0024001,Chrome,1440,900,,,,,0,621,,,,,,,,,,,,,,,,,U,181,circle,1,0,,,,,,,,,,,,,,,,repeat,number,numRpt,k,1.5689,noRew,,,,,,0,18,0,18,0,1,,,,,,,,,,,,,,,,,
292744,2022-11-14_12h30.04.262,vts_reward_expectancy_bt,2022.2.4,MacIntel,60.0024001,Chrome,1440,900,,,,,0,621,,,,,,,,,,,,,,,,,Y,139,triangle,1,0,,,,,,,,,,,,,,,,switch,letter,lettSwt,f,0.7001,noRew,,,,,,0,19,0,19,0,1,,,,,,,,,,,,,,,,,
292744,2022-11-14_12h30.04.262,vts_reward_expectancy_bt,2022.2.4,MacIntel,60.0024001,Chrome,1440,900,,,,,0,621,,,,,,,,,,,,,,,,,W,132,circle,1,0,,,,,,,,,,,,,,,,repeat,letter,lettRpt,f,1.7456,noRew,,,,,,0,20,0,20,0,1,,,,,,,,,,,,,,,,,
292744,2022-11-14_12h30.04.262,vts_reward_expectancy_bt,2022.2.4,MacIntel,60.0024001,Chrome,1440,900,,,,,0,621,,,,,,,,,,,,,,,,,U,146,hexagon,1,0,,,,,,,,,,,,,,,,repeat,letter,lettRpt,f,0.9162,noRew,,,,,,0,21,0,21,0,1,,,,,,,,,,,,,,,,,
292744,2022-11-14_12h30.04.262,vts_reward_expectancy_bt,2022.2.4,MacIntel,60.0024001,Chrome,1440,900,,,,,0,621,,,,,,,,,,,,,,,,,Y,160,star,1,0,,,,,,,,,,,,,,,,repeat,letter,lettRpt,f,0.8145,noRew,,,,,,0,22,0,22,0,1,,,,,,,,,,,,,,,,,
292744,2022-11-14_12h30.04.262,vts_reward_expectancy_bt,2022.2.4,MacIntel,60.0024001,Chrome,1440,900,,,,,0,621,,,,,,,,,,,,,,,,,H,167,circle,1,0,,,,,,,,,,,,,,,,repeat,letter,lettRpt,d,0.7977,noRew,,,,,,0,23,0,23,0,1,,,,,,,,,,,,,,,,,
292744,2022-11-14_12h30.04.262,vts_reward_expectancy_bt,2022.2.4,MacIntel,60.0024001,Chrome,1440,900,,,,,0,621,,,,,,,,,,,,,,,,,H,139,star,1,0,,,,,,,,,,,,,,,,switch,number,numSwt,j,1.4653,noRew,,,,,,0,24,0,24,0,1,,,,,,,,,,,,,,,,,
292744,2022-11-14_12h30.04.262,vts_reward_expectancy_bt,2022.2.4,MacIntel,60.0024001,Chrome,1440,900,,,,,0,621,,,,,,,,,,,,,,,,,B,167,hexagon,1,0,,,,,,,,,,,,,,,,repeat,number,numRpt,k,0.9815,noRew,,,,,,0,25,0,25,0,1,,,,,,,,,,,,,,,,,
292744,2022-11-14_12h30.04.262,vts_reward_expectancy_bt,2022.2.4,MacIntel,60.0024001,Chrome,1440,900,,,,,0,621,,,,,,,,,,,,,,,,,W,174,star,1,0,,,,,,,,,,,,,,,,repeat,number,numRpt,k,0.7322,noRew,,,,,,0,26,0,26,0,1,,,,,,,,,,,,,,,,,
292744,2022-11-14_12h30.04.262,vts_reward_expectancy_bt,2022.2.4,MacIntel,60.0024001,Chrome,1440,900,,,,,0,621,,,,,,,,,,,,,,,,,Y,132,triangle,1,0,,,,,,,,,,,,,,,,repeat,number,numRpt,j,0.6725,noRew,,,,,,0,27,0,27,0,1,,,,,,,,,,,,,,,,,
292744,2022-11-14_12h30.04.262,vts_reward_expectancy_bt,2022.2.4,MacIntel,60.0024001,Chrome,1440,900,,,,,0,621,,,,,,,,,,,,,,,,,H,167,triangle,1,0,,,,,,,,,,,,,,,,switch,letter,lettSwt,d,1.8962,noRew,,,,,,0,28,0,28,0,1,,,,,,,,,,,,,,,,,
292744,2022-11-14_12h30.04.262,vts_reward_expectancy_bt,2022.2.4,MacIntel,60.0024001,Chrome,1440,900,,,,,0,621,,,,,,,,,,,,,,,,,S,146,circle,1,0,,,,,,,,,,,,,,,,repeat,letter,lettRpt,f,0.9958,noRew,,,,,,0,29,0,29,0,1,,,,,,,,,,,,,,,,,
292744,2022-11-14_12h30.04.262,vts_reward_expectancy_bt,2022.2.4,MacIntel,60.0024001,Chrome,1440,900,,,,,0,621,,,,,,,,,,,,,,,,,U,132,hexagon,1,0,,,,,,,,,,,,,,,,repeat,letter,lettRpt,f,1.3708,noRew,,,,,,0,30,0,30,0,1,,,,,,,,,,,,,,,,,
292744,2022-11-14_12h30.04.262,vts_reward_expectancy_bt,2022.2.4,MacIntel,60.0024001,Chrome,1440,900,,,,,0,621,,,,,,,,,,,,,,,,,Y,174,triangle,-1,0,,,,,,,,,,,,,,,,switch,no_choice,NA,,,noRew,,,,,,0,31,0,31,0,1,,,,,,,,,,,,,,,,,
292744,2022-11-14_12h30.04.262,vts_reward_expectancy_bt,2022.2.4,MacIntel,60.0024001,Chrome,1440,900,,,,,0,621,,,,,,,,,,,,,,,,,D,132,hexagon,-1,0,,,,,,,,,,,,,,,,repeat,no_choice,NA,,,noRew,,,,,,0,32,0,32,0,1,,,,,,,,,,,,,,,,,
292744,2022-11-14_12h30.04.262,vts_reward_expectancy_bt,2022.2.4,MacIntel,60.0024001,Chrome,1440,900,,,,,0,621,,,,,,,,,,,,,,,,,W,167,circle,1,0,,,,,,,,,,,,,,,,switch,letter,lettSwt,f,1.1458,noRew,,,,,,0,33,0,33,0,1,,,,,,,,,,,,,,,,,
292744,2022-11-14_12h30.04.262,vts_reward_expectancy_bt,2022.2.4,MacIntel,60.0024001,Chrome,1440,900,,,,,0,621,,,,,,,,,,,,,,,,,Y,146,circle,1,0,,,,,,,,,,,,,,,,repeat,letter,lettRpt,f,0.816,noRew,,,,,,0,34,0,34,0,1,,,,,,,,,,,,,,,,,
292744,2022-11-14_12h30.04.262,vts_reward_expectancy_bt,2022.2.4,MacIntel,60.0024001,Chrome,1440,900,,,,,0,621,,,,,,,,,,,,,,,,,B,160,triangle,1,0,,,,,,,,,,,,,,,,repeat,letter,lettRpt,d,0.9635,noRew,,,,,,0,35,0,35,0,1,,,,,,,,,,,,,,,,,
292744,2022-11-14_12h30.04.262,vts_reward_expectancy_bt,2022.2.4,MacIntel,60.0024001,Chrome,1440,900,,,,,0,621,,,,,,,,,,,,,,,,,H,174,circle,1,0,,,,,,,,,,,,,,,,repeat,letter,lettRpt,d,0.9363,noRew,,,,,,0,36,0,36,0,1,,,,,,,,,,,,,,,,,
292744,2022-11-14_12h30.04.262,vts_reward_expectancy_bt,2022.2.4,MacIntel,60.0024001,Chrome,1440,900,,,,,0,621,,,,,,,,,,,,,,,,,Y,139,triangle,1,0,,,,,,,,,,,,,,,,repeat,letter,lettRpt,f,0.6792,noRew,,,,,,0,37,0,37,0,1,,,,,,,,,,,,,,,,,
292744,2022-11-14_12h30.04.262,vts_reward_expectancy_bt,2022.2.4,MacIntel,60.0024001,Chrome,1440,900,,,,,0,621,,,,,,,,,,,,,,,,,B,146,star,1,0,,,,,,,,,,,,,,,,repeat,letter,lettRpt,d,0.7283,noRew,,,,,,0,38,0,38,0,1,,,,,,,,,,,,,,,,,
292744,2022-11-14_12h30.04.262,vts_reward_expectancy_bt,2022.2.4,MacIntel,60.0024001,Chrome,1440,900,,,,,0,621,,,,,,,,,,,,,,,,,U,160,triangle,1,0,,,,,,,,,,,,,,,,repeat,letter,lettRpt,f,0.7147,noRew,,,,,,0,39,0,39,0,1,,,,,,,,,,,,,,,,,
292744,2022-11-14_12h30.04.262,vts_reward_expectancy_bt,2022.2.4,MacIntel,60.0024001,Chrome,1440,900,,,,,0,621,,,,,,,,,,,,,,,,,W,181,circle,1,0,,,,,,,,,,,,,,,,repeat,letter,lettRpt,f,0.7343,noRew,,,,,,0,40,0,40,0,1,,,,,,,,,,,,,,,,,
292744,2022-11-14_12h30.04.262,vts_reward_expectancy_bt,2022.2.4,MacIntel,60.0024001,Chrome,1440,900,,,,,0,621,,,,,,,,,,,,,,,,,S,174,triangle,1,0,,,,,,,,,,,,,,,,repeat,letter,lettRpt,f,0.8299,noRew,,,,,,0,41,0,41,0,1,,,,,,,,,,,,,,,,,
292744,2022-11-14_12h30.04.262,vts_reward_expectancy_bt,2022.2.4,MacIntel,60.0024001,Chrome,1440,900,,,,,0,621,,,,,,,,,,,,,,,,,B,167,hexagon,1,0,,,,,,,,,,,,,,,,switch,number,numSwt,k,1.1132,noRew,,,,,,0,42,0,42,0,1,,,,,,,,,,,,,,,,,
292744,2022-11-14_12h30.04.262,vts_reward_expectancy_bt,2022.2.4,MacIntel,60.0024001,Chrome,1440,900,,,,,0,621,,,,,,,,,,,,,,,,,D,160,circle,1,0,,,,,,,,,,,,,,,,repeat,number,numRpt,k,1.0176,noRew,,,,,,0,43,0,43,0,1,,,,,,,,,,,,,,,,,
292744,2022-11-14_12h30.04.262,vts_reward_expectancy_bt,2022.2.4,MacIntel,60.0024001,Chrome,1440,900,,,,,0,621,,,,,,,,,,,,,,,,,H,132,triangle,1,0,,,,,,,,,,,,,,,,repeat,number,numRpt,j,0.5326,noRew,,,,,,0,44,0,44,0,1,,,,,,,,,,,,,,,,,
292744,2022-11-14_12h30.04.262,vts_reward_expectancy_bt,2022.2.4,MacIntel,60.0024001,Chrome,1440,900,,,,,0,621,,,,,,,,,,,,,,,,,U,146,hexagon,1,0,,,,,,,,,,,,,,,,repeat,number,numRpt,j,0.8472,noRew,,,,,,0,45,0,45,0,1,,,,,,,,,,,,,,,,,
292744,2022-11-14_12h30.04.262,vts_reward_expectancy_bt,2022.2.4,MacIntel,60.0024001,Chrome,1440,900,,,,,0,621,,,,,,,,,,,,,,,,,W,167,triangle,1,0,,,,,,,,,,,,,,,,switch,letter,lettSwt,f,2.1357,noRew,,,,,,0,46,0,46,0,1,,,,,,,,,,,,,,,,,
292744,2022-11-14_12h30.04.262,vts_reward_expectancy_bt,2022.2.4,MacIntel,60.0024001,Chrome,1440,900,,,,,0,621,,,,,,,,,,,,,,,,,F,174,circle,1,0,,,,,,,,,,,,,,,,repeat,letter,lettRpt,d,0.7714,noRew,,,,,,0,47,0,47,0,1,,,,,,,,,,,,,,,,,
292744,2022-11-14_12h30.04.262,vts_reward_expectancy_bt,2022.2.4,MacIntel,60.0024001,Chrome,1440,900,,,,,0,621,,,,,,,,,,,,,,,,,D,146,hexagon,1,0,,,,,,,,,,,,,,,,switch,number,numSwt,j,0.6812,noRew,,,,,,0,48,0,48,0,1,,,,,,,,,,,,,,,,,
292744,2022-11-14_12h30.04.262,vts_reward_expectancy_bt,2022.2.4,MacIntel,60.0024001,Chrome,1440,900,,,,,0,621,,,,,,,,,,,,,,,,,W,181,star,1,0,,,,,,,,,,,,,,,,repeat,number,numRpt,k,0.6299,noRew,,,,,,0,49,0,49,0,1,,,,,,,,,,,,,,,,,
292744,2022-11-14_12h30.04.262,vts_reward_expectancy_bt,2022.2.4,MacIntel,60.0024001,Chrome,1440,900,,,,,0,621,,,,,,,,,,,,,,,,,B,167,circle,1,0,,,,,,,,,,,,,,,,repeat,number,numRpt,k,1.3298,noRew,,,,,,0,50,0,50,0,1,,,,,,,,,,,,,,,,,
292744,2022-11-14_12h30.04.262,vts_reward_expectancy_bt,2022.2.4,MacIntel,60.0024001,Chrome,1440,900,,,,,0,621,,,,,,,,,,,,,,,,,F,160,triangle,1,0,,,,,,,,,,,,,,,,repeat,number,numRpt,k,1.43,noRew,,,,,,0,51,0,51,0,1,,,,,,,,,,,,,,,,,
292744,2022-11-14_12h30.04.262,vts_reward_expectancy_bt,2022.2.4,MacIntel,60.0024001,Chrome,1440,900,,,,,0,621,,,,,,,,,,,,,,,,,U,167,star,1,0,,,,,,,,,,,,,,,,switch,letter,lettSwt,f,1.1024,noRew,,,,,,0,52,0,52,0,1,,,,,,,,,,,,,,,,,
292744,2022-11-14_12h30.04.262,vts_reward_expectancy_bt,2022.2.4,MacIntel,60.0024001,Chrome,1440,900,,,,,0,621,,,,,,,,,,,,,,,,,F,174,circle,1,0,,,,,,,,,,,,,,,,repeat,letter,lettRpt,d,0.8872,noRew,,,,,,0,53,0,53,0,1,,,,,,,,,,,,,,,,,
292744,2022-11-14_12h30.04.262,vts_reward_expectancy_bt,2022.2.4,MacIntel,60.0024001,Chrome,1440,900,,,,,0,621,,,,,,,,,,,,,,,,,D,146,circle,1,0,,,,,,,,,,,,,,,,repeat,letter,lettRpt,d,0.7792,noRew,,,,,,0,54,0,54,0,1,,,,,,,,,,,,,,,,,
292744,2022-11-14_12h30.04.262,vts_reward_expectancy_bt,2022.2.4,MacIntel,60.0024001,Chrome,1440,900,,,,,0,621,,,,,,,,,,,,,,,,,S,132,hexagon,1,0,,,,,,,,,,,,,,,,repeat,letter,lettRpt,f,0.7146,noRew,,,,,,0,55,0,55,0,1,,,,,,,,,,,,,,,,,
292744,2022-11-14_12h30.04.262,vts_reward_expectancy_bt,2022.2.4,MacIntel,60.0024001,Chrome,1440,900,,,,,0,621,,,,,,,,,,,,,,,,,B,139,circle,1,0,,,,,,,,,,,,,,,,repeat,letter,lettRpt,d,1.1469,noRew,,,,,,0,56,0,56,0,1,,,,,,,,,,,,,,,,,
292744,2022-11-14_12h30.04.262,vts_reward_expectancy_bt,2022.2.4,MacIntel,60.0024001,Chrome,1440,900,,,,,0,621,,,,,,,,,,,,,,,,,Y,181,hexagon,1,0,,,,,,,,,,,,,,,,repeat,letter,lettRpt,f,1.1299,noRew,,,,,,0,57,0,57,0,1,,,,,,,,,,,,,,,,,
292744,2022-11-14_12h30.04.262,vts_reward_expectancy_bt,2022.2.4,MacIntel,60.0024001,Chrome,1440,900,,,,,0,621,,,,,,,,,,,,,,,,,F,174,hexagon,1,0,,,,,,,,,,,,,,,,repeat,letter,lettRpt,d,1.2481,noRew,,,,,,0,58,0,58,0,1,,,,,,,,,,,,,,,,,
292744,2022-11-14_12h30.04.262,vts_reward_expectancy_bt,2022.2.4,MacIntel,60.0024001,Chrome,1440,900,,,,,0,621,,,,,,,,,,,,,,,,,W,160,circle,1,0,,,,,,,,,,,,,,,,repeat,letter,lettRpt,f,0.9452,noRew,,,,,,0,59,0,59,0,1,,,,,,,,,,,,,,,,,
292744,2022-11-14_12h30.04.262,vts_reward_expectancy_bt,2022.2.4,MacIntel,60.0024001,Chrome,1440,900,,,,,0,621,,,,,,,,,,,,,,,,,S,160,triangle,1,0,,,,,,,,,,,,,,,,repeat,letter,lettRpt,f,0.9987,noRew,,,,,,0,60,0,60,0,1,,,,,,,,,,,,,,,,,
292744,2022-11-14_12h30.04.262,vts_reward_expectancy_bt,2022.2.4,MacIntel,60.0024001,Chrome,1440,900,,,,,0,621,,,,,,,,,,,,,,,,,Y,174,star,1,0,,,,,,,,,,,,,,,,repeat,letter,lettRpt,f,1.4951,noRew,,,,,,0,61,0,61,0,1,,,,,,,,,,,,,,,,,
292744,2022-11-14_12h30.04.262,vts_reward_expectancy_bt,2022.2.4,MacIntel,60.0024001,Chrome,1440,900,,,,,0,621,,,,,,,,,,,,,,,,,B,132,triangle,1,0,,,,,,,,,,,,,,,,repeat,letter,lettRpt,d,0.7219,noRew,,,,,,0,62,0,62,0,1,,,,,,,,,,,,,,,,,
292744,2022-11-14_12h30.04.262,vts_reward_expectancy_bt,2022.2.4,MacIntel,60.0024001,Chrome,1440,900,,,,,0,621,,,,,,,,,,,,,,,,,H,167,circle,1,0,,,,,,,,,,,,,,,,repeat,letter,lettRpt,d,1.495,noRew,,,,,,0,63,0,63,0,1,,,,,,,,,,,,,,,,,
292744,2022-11-14_12h30.04.262,vts_reward_expectancy_bt,2022.2.4,MacIntel,60.0024001,Chrome,1440,900,,,,,,,,,,,,,,,,,,,,,,,,,,,,,,,,,,,,,,,,,,,,,,,,,,,,,,,,,,,,,,,,,,,,,,,,,,,,
292744,2022-11-14_12h30.04.262,vts_reward_expectancy_bt,2022.2.4,MacIntel,60.0024001,Chrome,1440,900,,,,,1,622,,,,,,,,,,,,,,,,,F,167,triangle,1,0,,,,,,,,,,,,,,,,repeat,letter,lettRpt,d,1.0337,Lo,,,,,,0,,,,,,space,7.8346,low,0,0,0,0,1,,,,,,,,,
292744,2022-11-14_12h30.04.262,vts_reward_expectancy_bt,2022.2.4,MacIntel,60.0024001,Chrome,1440,900,,,,,1,623,,,,,,,,,,,,,,,,,H,132,circle,1,0,,,,,,,,,,,,,,,,switch,number,numSwt,j,0.79,Lo,,,,,,0,,,,,,,,low,1,0,1,0,1,,,,,,,,,
292744,2022-11-14_12h30.04.262,vts_reward_expectancy_bt,2022.2.4,MacIntel,60.0024001,Chrome,1440,900,,,,,10,633,,,,,,,,,,,,,,,,,W,160,star,1,0,,,,,,,,,,,,,,,,switch,letter,lettSwt,f,0.6454,Hi,,,,,,0,,,,,,,,low,2,0,2,0,1,,,,,,,,,
292744,2022-11-14_12h30.04.262,vts_reward_expectancy_bt,2022.2.4,MacIntel,60.0024001,Chrome,1440,900,,,,,1,634,,,,,,,,,,,,,,,,,B,181,hexagon,1,0,,,,,,,,,,,,,,,,repeat,letter,lettRpt,d,0.7539,Hi,,,,,,0,,,,,,,,low,3,0,3,0,1,,,,,,,,,
292744,2022-11-14_12h30.04.262,vts_reward_expectancy_bt,2022.2.4,MacIntel,60.0024001,Chrome,1440,900,,,,,1,635,,,,,,,,,,,,,,,,,D,125,triangle,1,0,,,,,,,,,,,,,,,,repeat,letter,lettRpt,d,0.5509,Lo,,,,,,0,,,,,,,,low,4,0,4,0,1,,,,,,,,,
292744,2022-11-14_12h30.04.262,vts_reward_expectancy_bt,2022.2.4,MacIntel,60.0024001,Chrome,1440,900,,,,,1,636,,,,,,,,,,,,,,,,,U,174,circle,1,0,,,,,,,,,,,,,,,,repeat,letter,lettRpt,f,0.7169,Lo,,,,,,0,,,,,,,,low,5,0,5,0,1,,,,,,,,,
292744,2022-11-14_12h30.04.262,vts_reward_expectancy_bt,2022.2.4,MacIntel,60.0024001,Chrome,1440,900,,,,,0,636,,,,,,,,,,,,,,,,,S,146,star,1,0,,,,,,,,,,,,,,,,repeat,letter,lettRpt,f,0.8122,Hi,,,,,,0,,,,,,,,low,6,0,6,0,1,,,,,,,,,
292744,2022-11-14_12h30.04.262,vts_reward_expectancy_bt,2022.2.4,MacIntel,60.0024001,Chrome,1440,900,,,,,0,636,,,,,,,,,,,,,,,,,Y,139,hexagon,1,0,,,,,,,,,,,,,,,,repeat,letter,lettRpt,f,0.8445,Hi,,,,,,0,,,,,,,,low,7,0,7,0,1,,,,,,,,,
292744,2022-11-14_12h30.04.262,vts_reward_expectancy_bt,2022.2.4,MacIntel,60.0024001,Chrome,1440,900,,,,,0,636,,,,,,,,,,,,,,,,,F,167,star,0,0,,,,,,,,,,,,,,,,repeat,letter,NA,f,0.4516,Hi,,,,,,0,,,,,,,,low,8,0,8,0,1,,,,,,,,,
292744,2022-11-14_12h30.04.262,vts_reward_expectancy_bt,2022.2.4,MacIntel,60.0024001,Chrome,1440,900,,,,,0,636,,,,,,,,,,,,,,,,,H,132,hexagon,1,1,,,,,,,,,,,,,,,,repeat,letter,lettRpt,d,0.8128,Hi,,,,,,0,,,,,,,,low,9,0,9,0,1,,,,,,,,,
292744,2022-11-14_12h30.04.262,vts_reward_expectancy_bt,2022.2.4,MacIntel,60.0024001,Chrome,1440,900,,,,,1,637,,,,,,,,,,,,,,,,,W,160,triangle,1,0,,,,,,,,,,,,,,,,repeat,letter,lettRpt,f,0.6787,Lo,,,,,,0,,,,,,,,low,10,0,10,0,1,,,,,,,,,
292744,2022-11-14_12h30.04.262,vts_reward_expectancy_bt,2022.2.4,MacIntel,60.0024001,Chrome,1440,900,,,,,1,638,,,,,,,,,,,,,,,,,B,181,circle,1,0,,,,,,,,,,,,,,,,repeat,letter,lettRpt,d,0.5161,Lo,,,,,,0,,,,,,,,low,11,0,11,0,1,,,,,,,,,
292744,2022-11-14_12h30.04.262,vts_reward_expectancy_bt,2022.2.4,MacIntel,60.0024001,Chrome,1440,900,,,,,1,639,,,,,,,,,,,,,,,,,D,125,hexagon,1,0,,,,,,,,,,,,,,,,switch,number,numSwt,j,0.5803,Hi,,,,,,0,,,,,,,,low,12,0,12,0,1,,,,,,,,,
292744,2022-11-14_12h30.04.262,vts_reward_expectancy_bt,2022.2.4,MacIntel,60.0024001,Chrome,1440,900,,,,,1,640,,,,,,,,,,,,,,,,,U,174,triangle,1,0,,,,,,,,,,,,,,,,repeat,number,numRpt,k,0.7493,Lo,,,,,,0,,,,,,,,low,13,0,13,0,1,,,,,,,,,
292744,2022-11-14_12h30.04.262,vts_reward_expectancy_bt,2022.2.4,MacIntel,60.0024001,Chrome,1440,900,,,,,0,640,,,,,,,,,,,,,,,,,S,146,star,0,0,,,,,,,,,,,,,,,,repeat,number,NA,k,0.4811,Lo,,,,,,0,,,,,,,,low,14,0,14,0,1,,,,,,,,,
292744,2022-11-14_12h30.04.262,vts_reward_expectancy_bt,2022.2.4,MacIntel,60.0024001,Chrome,1440,900,,,,,10,650,,,,,,,,,,,,,,,,,Y,139,circle,1,1,,,,,,,,,,,,,,,,repeat,number,numRpt,j,0.9283,Lo,,,,,,0,,,,,,,,low,15,0,15,0,1,,,,,,,,,
292744,2022-11-14_12h30.04.262,vts_reward_expectancy_bt,2022.2.4,MacIntel,60.0024001,Chrome,1440,900,,,,,1,651,,,,,,,,,,,,,,,,,U,160,triangle,1,0,,,,,,,,,,,,,,,,repeat,number,numRpt,k,0.6528,Lo,,,,,,0,,,,,,,,low,16,0,16,0,1,,,,,,,,,
292744,2022-11-14_12h30.04.262,vts_reward_expectancy_bt,2022.2.4,MacIntel,60.0024001,Chrome,1440,900,,,,,1,652,,,,,,,,,,,,,,,,,B,174,star,1,0,,,,,,,,,,,,,,,,repeat,number,numRpt,k,0.4539,Hi,,,,,,0,,,,,,,,low,17,0,17,0,1,,,,,,,,,
292744,2022-11-14_12h30.04.262,vts_reward_expectancy_bt,2022.2.4,MacIntel,60.0024001,Chrome,1440,900,,,,,10,662,,,,,,,,,,,,,,,,,D,181,hexagon,1,0,,,,,,,,,,,,,,,,repeat,number,numRpt,k,0.5717,Hi,,,,,,0,,,,,,,,low,18,0,18,0,1,,,,,,,,,
292744,2022-11-14_12h30.04.262,vts_reward_expectancy_bt,2022.2.4,MacIntel,60.0024001,Chrome,1440,900,,,,,1,663,,,,,,,,,,,,,,,,,F,125,circle,1,0,,,,,,,,,,,,,,,,repeat,number,numRpt,j,0.4789,Lo,,,,,,0,,,,,,,,low,19,0,19,0,1,,,,,,,,,
292744,2022-11-14_12h30.04.262,vts_reward_expectancy_bt,2022.2.4,MacIntel,60.0024001,Chrome,1440,900,,,,,0,663,,,,,,,,,,,,,,,,,W,132,star,0,0,,,,,,,,,,,,,,,,repeat,number,NA,k,0.5019,Lo,,,,,,0,,,,,,,,low,20,0,20,0,1,,,,,,,,,
292744,2022-11-14_12h30.04.262,vts_reward_expectancy_bt,2022.2.4,MacIntel,60.0024001,Chrome,1440,900,,,,,1,664,,,,,,,,,,,,,,,,,H,146,hexagon,1,1,,,,,,,,,,,,,,,,repeat,number,numRpt,j,0.4469,Hi,,,,,,0,,,,,,,,low,21,0,21,0,1,,,,,,,,,
292744,2022-11-14_12h30.04.262,vts_reward_expectancy_bt,2022.2.4,MacIntel,60.0024001,Chrome,1440,900,,,,,0,664,,,,,,,,,,,,,,,,,S,139,triangle,0,0,,,,,,,,,,,,,,,,repeat,number,NA,k,0.4709,Hi,,,,,,0,,,,,,,,low,22,0,22,0,1,,,,,,,,,
292744,2022-11-14_12h30.04.262,vts_reward_expectancy_bt,2022.2.4,MacIntel,60.0024001,Chrome,1440,900,,,,,1,665,,,,,,,,,,,,,,,,,Y,167,circle,1,1,,,,,,,,,,,,,,,,repeat,number,numRpt,k,0.5576,Lo,,,,,,0,,,,,,,,low,23,0,23,0,1,,,,,,,,,
292744,2022-11-14_12h30.04.262,vts_reward_expectancy_bt,2022.2.4,MacIntel,60.0024001,Chrome,1440,900,,,,,10,675,,,,,,,,,,,,,,,,,U,146,star,1,0,,,,,,,,,,,,,,,,repeat,number,numRpt,j,0.3988,Hi,,,,,,0,,,,,,,,low,24,0,24,0,1,,,,,,,,,
292744,2022-11-14_12h30.04.262,vts_reward_expectancy_bt,2022.2.4,MacIntel,60.0024001,Chrome,1440,900,,,,,1,676,,,,,,,,,,,,,,,,,Y,167,triangle,1,0,,,,,,,,,,,,,,,,switch,letter,lettSwt,f,0.7123,Lo,,,,,,0,,,,,,,,low,25,0,25,0,1,,,,,,,,,
292744,2022-11-14_12h30.04.262,vts_reward_expectancy_bt,2022.2.4,MacIntel,60.0024001,Chrome,1440,900,,,,,1,677,,,,,,,,,,,,,,,,,B,160,hexagon,1,0,,,,,,,,,,,,,,,,repeat,letter,lettRpt,d,0.4291,Hi,,,,,,0,,,,,,,,low,26,0,26,0,1,,,,,,,,,
292744,2022-11-14_12h30.04.262,vts_reward_expectancy_bt,2022.2.4,MacIntel,60.0024001,Chrome,1440,900,,,,,1,678,,,,,,,,,,,,,,,,,F,174,circle,1,0,,,,,,,,,,,,,,,,repeat,letter,lettRpt,d,0.4981,Lo,,,,,,0,,,,,,,,low,27,0,27,0,1,,,,,,,,,
292744,2022-11-14_12h30.04.262,vts_reward_expectancy_bt,2022.2.4,MacIntel,60.0024001,Chrome,1440,900,,,,,10,688,,,,,,,,,,,,,,,,,W,139,triangle,1,0,,,,,,,,,,,,,,,,repeat,letter,lettRpt,f,0.6285,Lo,,,,,,0,,,,,,,,low,28,0,28,0,1,,,,,,,,,
292744,2022-11-14_12h30.04.262,vts_reward_expectancy_bt,2022.2.4,MacIntel,60.0024001,Chrome,1440,900,,,,,10,698,,,,,,,,,,,,,,,,,D,181,star,1,0,,,,,,,,,,,,,,,,repeat,letter,lettRpt,d,0.3796,Hi,,,,,,0,,,,,,,,low,29,0,29,0,1,,,,,,,,,
292744,2022-11-14_12h30.04.262,vts_reward_expectancy_bt,2022.2.4,MacIntel,60.0024001,Chrome,1440,900,,,,,0,698,,,,,,,,,,,,,,,,,S,132,hexagon,0,0,,,,,,,,,,,,,,,,repeat,letter,NA,d,0.397,Hi,,,,,,0,,,,,,,,low,30,0,30,0,1,,,,,,,,,
292744,2022-11-14_12h30.04.262,vts_reward_expectancy_bt,2022.2.4,MacIntel,60.0024001,Chrome,1440,900,,,,,1,699,,,,,,,,,,,,,,,,,H,125,circle,1,1,,,,,,,,,,,,,,,,repeat,letter,lettRpt,d,0.8027,Lo,,,,,,0,,,,,,,,low,31,0,31,0,1,,,,,,,,,
292744,2022-11-14_12h30.04.262,vts_reward_expectancy_bt,2022.2.4,MacIntel,60.0024001,Chrome,1440,900,,,,,1,700,,,,,,,,,,,,,,,,,U,139,triangle,1,0,,,,,,,,,,,,,,,,repeat,letter,lettRpt,f,0.7113,Lo,,,,,,1,,,,,,space,1.3439,low,0,0,0,0,1,,,,,,,,,
292744,2022-11-14_12h30.04.262,vts_reward_expectancy_bt,2022.2.4,MacIntel,60.0024001,Chrome,1440,900,,,,,10,710,,,,,,,,,,,,,,,,,B,167,hexagon,1,0,,,,,,,,,,,,,,,,repeat,letter,lettRpt,d,0.5157,Hi,,,,,,1,,,,,,,,low,1,0,1,0,1,,,,,,,,,
292744,2022-11-14_12h30.04.262,vts_reward_expectancy_bt,2022.2.4,MacIntel,60.0024001,Chrome,1440,900,,,,,1,711,,,,,,,,,,,,,,,,,H,174,circle,1,0,,,,,,,,,,,,,,,,repeat,letter,lettRpt,d,0.5511,Lo,,,,,,1,,,,,,,,low,2,0,2,0,1,,,,,,,,,
292744,2022-11-14_12h30.04.262,vts_reward_expectancy_bt,2022.2.4,MacIntel,60.0024001,Chrome,1440,900,,,,,10,721,,,,,,,,,,,,,,,,,S,160,star,1,0,,,,,,,,,,,,,,,,repeat,letter,lettRpt,f,0.4907,Hi,,,,,,1,,,,,,,,low,3,0,3,0,1,,,,,,,,,
292744,2022-11-14_12h30.04.262,vts_reward_expectancy_bt,2022.2.4,MacIntel,60.0024001,Chrome,1440,900,,,,,0,721,,,,,,,,,,,,,,,,,W,181,triangle,0,0,,,,,,,,,,,,,,,,repeat,letter,NA,d,0.5127,Hi,,,,,,1,,,,,,,,low,4,0,4,0,1,,,,,,,,,
292744,2022-11-14_12h30.04.262,vts_reward_expectancy_bt,2022.2.4,MacIntel,60.0024001,Chrome,1440,900,,,,,0,721,,,,,,,,,,,,,,,,,Y,125,hexagon,1,1,,,,,,,,,,,,,,,,repeat,letter,lettRpt,f,0.6874,Hi,,,,,,1,,,,,,,,low,5,0,5,0,1,,,,,,,,,
292744,2022-11-14_12h30.04.262,vts_reward_expectancy_bt,2022.2.4,MacIntel,60.0024001,Chrome,1440,900,,,,,10,731,,,,,,,,,,,,,,,,,F,146,circle,1,0,,,,,,,,,,,,,,,,repeat,letter,lettRpt,d,0.4696,Lo,,,,,,1,,,,,,,,low,6,0,6,0,1,,,,,,,,,
292744,2022-11-14_12h30.04.262,vts_reward_expectancy_bt,2022.2.4,MacIntel,60.0024001,Chrome,1440,900,,,,,10,741,,,,,,,,,,,,,,,,,D,132,star,1,0,,,,,,,,,,,,,,,,repeat,letter,lettRpt,d,0.5299,Hi,,,,,,1,,,,,,,,low,7,0,7,0,1,,,,,,,,,
292744,2022-11-14_12h30.04.262,vts_reward_expectancy_bt,2022.2.4,MacIntel,60.0024001,Chrome,1440,900,,,,,1,742,,,,,,,,,,,,,,,,,U,139,circle,1,0,,,,,,,,,,,,,,,,repeat,letter,lettRpt,f,0.4642,Lo,,,,,,1,,,,,,,,low,8,0,8,0,1,,,,,,,,,
292744,2022-11-14_12h30.04.262,vts_reward_expectancy_bt,2022.2.4,MacIntel,60.0024001,Chrome,1440,900,,,,,10,752,,,,,,,,,,,,,,,,,B,167,hexagon,1,0,,,,,,,,,,,,,,,,repeat,letter,lettRpt,d,0.4195,Hi,,,,,,1,,,,,,,,low,9,0,9,0,1,,,,,,,,,
292744,2022-11-14_12h30.04.262,vts_reward_expectancy_bt,2022.2.4,MacIntel,60.0024001,Chrome,1440,900,,,,,0,752,,,,,,,,,,,,,,,,,H,174,star,0,0,,,,,,,,,,,,,,,,repeat,letter,NA,f,0.4834,Hi,,,,,,1,,,,,,,,low,10,0,10,0,1,,,,,,,,,
292744,2022-11-14_12h30.04.262,vts_reward_expectancy_bt,2022.2.4,MacIntel,60.0024001,Chrome,1440,900,,,,,10,762,,,,,,,,,,,,,,,,,S,160,triangle,1,1,,,,,,,,,,,,,,,,repeat,letter,lettRpt,f,0.3849,Lo,,,,,,1,,,,,,,,low,11,0,11,0,1,,,,,,,,,
292744,2022-11-14_12h30.04.262,vts_reward_expectancy_bt,2022.2.4,MacIntel,60.0024001,Chrome,1440,900,,,,,1,763,,,,,,,,,,,,,,,,,W,181,circle,1,0,,,,,,,,,,,,,,,,repeat,letter,lettRpt,f,0.4387,Lo,,,,,,1,,,,,,,,low,12,0,12,0,1,,,,,,,,,
292744,2022-11-14_12h30.04.262,vts_reward_expectancy_bt,2022.2.4,MacIntel,60.0024001,Chrome,1440,900,,,,,0,763,,,,,,,,,,,,,,,,,Y,125,hexagon,0,0,,,,,,,,,,,,,,,,repeat,letter,NA,d,0.4787,Lo,,,,,,1,,,,,,,,low,13,0,13,0,1,,,,,,,,,
292744,2022-11-14_12h30.04.262,vts_reward_expectancy_bt,2022.2.4,MacIntel,60.0024001,Chrome,1440,900,,,,,1,764,,,,,,,,,,,,,,,,,F,146,star,1,1,,,,,,,,,,,,,,,,repeat,letter,lettRpt,d,0.4507,Hi,,,,,,1,,,,,,,,low,14,0,14,0,1,,,,,,,,,
292744,2022-11-14_12h30.04.262,vts_reward_expectancy_bt,2022.2.4,MacIntel,60.0024001,Chrome,1440,900,,,,,1,765,,,,,,,,,,,,,,,,,D,132,triangle,1,0,,,,,,,,,,,,,,,,repeat,letter,lettRpt,d,0.5128,Lo,,,,,,1,,,,,,,,low,15,0,15,0,1,,,,,,,,,
292744,2022-11-14_12h30.04.262,vts_reward_expectancy_bt,2022.2.4,MacIntel,60.0024001,Chrome,1440,900,,,,,10,775,,,,,,,,,,,,,,,,,U,146,star,1,0,,,,,,,,,,,,,,,,repeat,letter,lettRpt,f,0.4626,Hi,,,,,,1,,,,,,,,low,16,0,16,0,1,,,,,,,,,
292744,2022-11-14_12h30.04.262,vts_reward_expectancy_bt,2022.2.4,MacIntel,60.0024001,Chrome,1440,900,,,,,10,785,,,,,,,,,,,,,,,,,Y,160,circle,1,0,,,,,,,,,,,,,,,,repeat,letter,lettRpt,f,0.5156,Lo,,,,,,1,,,,,,,,low,17,0,17,0,1,,,,,,,,,
292744,2022-11-14_12h30.04.262,vts_reward_expectancy_bt,2022.2.4,MacIntel,60.0024001,Chrome,1440,900,,,,,1,786,,,,,,,,,,,,,,,,,B,181,triangle,1,0,,,,,,,,,,,,,,,,repeat,letter,lettRpt,d,0.5277,Lo,,,,,,1,,,,,,,,low,18,0,18,0,1,,,,,,,,,
292744,2022-11-14_12h30.04.262,vts_reward_expectancy_bt,2022.2.4,MacIntel,60.0024001,Chrome,1440,900,,,,,1,787,,,,,,,,,,,,,,,,,F,125,hexagon,1,0,,,,,,,,,,,,,,,,repeat,letter,lettRpt,d,0.5339,Hi,,,,,,1,,,,,,,,low,19,0,19,0,1,,,,,,,,,
292744,2022-11-14_12h30.04.262,vts_reward_expectancy_bt,2022.2.4,MacIntel,60.0024001,Chrome,1440,900,,,,,10,797,,,,,,,,,,,,,,,,,D,132,star,1,0,,,,,,,,,,,,,,,,repeat,letter,lettRpt,d,0.496,Hi,,,,,,1,,,,,,,,low,20,0,20,0,1,,,,,,,,,
292744,2022-11-14_12h30.04.262,vts_reward_expectancy_bt,2022.2.4,MacIntel,60.0024001,Chrome,1440,900,,,,,1,798,,,,,,,,,,,,,,,,,H,139,triangle,1,0,,,,,,,,,,,,,,,,repeat,letter,lettRpt,d,0.5986,Lo,,,,,,1,,,,,,,,low,21,0,21,0,1,,,,,,,,,
292744,2022-11-14_12h30.04.262,vts_reward_expectancy_bt,2022.2.4,MacIntel,60.0024001,Chrome,1440,900,,,,,1,799,,,,,,,,,,,,,,,,,W,167,circle,1,0,,,,,,,,,,,,,,,,repeat,letter,lettRpt,f,0.5799,Lo,,,,,,1,,,,,,,,low,22,0,22,0,1,,,,,,,,,
292744,2022-11-14_12h30.04.262,vts_reward_expectancy_bt,2022.2.4,MacIntel,60.0024001,Chrome,1440,900,,,,,10,809,,,,,,,,,,,,,,,,,S,174,hexagon,1,0,,,,,,,,,,,,,,,,repeat,letter,lettRpt,f,0.522,Hi,,,,,,1,,,,,,,,low,23,0,23,0,1,,,,,,,,,
292744,2022-11-14_12h30.04.262,vts_reward_expectancy_bt,2022.2.4,MacIntel,60.0024001,Chrome,1440,900,,,,,1,810,,,,,,,,,,,,,,,,,B,160,circle,1,0,,,,,,,,,,,,,,,,repeat,letter,lettRpt,d,0.4804,Lo,,,,,,1,,,,,,,,low,24,0,24,0,1,,,,,,,,,
292744,2022-11-14_12h30.04.262,vts_reward_expectancy_bt,2022.2.4,MacIntel,60.0024001,Chrome,1440,900,,,,,0,810,,,,,,,,,,,,,,,,,H,167,hexagon,1,0,,,,,,,,,,,,,,,,repeat,letter,lettRpt,d,0.6809,Hi,,,,,,1,,,,,,,,low,25,0,25,0,1,,,,,,,,,
292744,2022-11-14_12h30.04.262,vts_reward_expectancy_bt,2022.2.4,MacIntel,60.0024001,Chrome,1440,900,,,,,0,810,,,,,,,,,,,,,,,,,D,174,star,0,0,,,,,,,,,,,,,,,,repeat,letter,NA,f,0.4155,Hi,,,,,,1,,,,,,,,low,26,0,26,0,1,,,,,,,,,
292744,2022-11-14_12h30.04.262,vts_reward_expectancy_bt,2022.2.4,MacIntel,60.0024001,Chrome,1440,900,,,,,1,811,,,,,,,,,,,,,,,,,Y,139,triangle,1,1,,,,,,,,,,,,,,,,repeat,letter,lettRpt,f,0.6132,Lo,,,,,,1,,,,,,,,low,27,0,27,0,1,,,,,,,,,
292744,2022-11-14_12h30.04.262,vts_reward_expectancy_bt,2022.2.4,MacIntel,60.0024001,Chrome,1440,900,,,,,0,811,,,,,,,,,,,,,,,,,S,146,star,1,0,,,,,,,,,,,,,,,,repeat,letter,lettRpt,f,0.6491,Hi,,,,,,1,,,,,,,,low,28,0,28,0,1,,,,,,,,,
292744,2022-11-14_12h30.04.262,vts_reward_expectancy_bt,2022.2.4,MacIntel,60.0024001,Chrome,1440,900,,,,,10,821,,,,,,,,,,,,,,,,,W,132,circle,1,0,,,,,,,,,,,,,,,,repeat,letter,lettRpt,f,0.6981,Lo,,,,,,1,,,,,,,,low,29,0,29,0,1,,,,,,,,,
292744,2022-11-14_12h30.04.262,vts_reward_expectancy_bt,2022.2.4,MacIntel,60.0024001,Chrome,1440,900,,,,,0,821,,,,,,,,,,,,,,,,,U,181,hexagon,1,0,,,,,,,,,,,,,,,,repeat,letter,lettRpt,f,0.5993,Hi,,,,,,1,,,,,,,,low,30,0,30,0,1,,,,,,,,,
292744,2022-11-14_12h30.04.262,vts_reward_expectancy_bt,2022.2.4,MacIntel,60.0024001,Chrome,1440,900,,,,,1,822,,,,,,,,,,,,,,,,,F,125,triangle,1,0,,,,,,,,,,,,,,,,repeat,letter,lettRpt,d,0.6145,Lo,,,,,,1,,,,,,,,low,31,0,31,0,1,,,,,,,,,
292744,2022-11-14_12h30.04.262,vts_reward_expectancy_bt,2022.2.4,MacIntel,60.0024001,Chrome,1440,900,,,,,10,832,,,,,,,,,,,,,,,,,W,160,triangle,1,0,,,,,,,,,,,,,,,,switch,number,numSwt,k,0.7611,Lo,,,,,,2,,,,,,space,2.2602,low,0,0,0,0,1,,,,,,,,,
292744,2022-11-14_12h30.04.262,vts_reward_expectancy_bt,2022.2.4,MacIntel,60.0024001,Chrome,1440,900,,,,,1,833,,,,,,,,,,,,,,,,,F,132,circle,1,0,,,,,,,,,,,,,,,,repeat,number,numRpt,j,0.5874,Lo,,,,,,2,,,,,,,,low,1,0,1,0,1,,,,,,,,,
292744,2022-11-14_12h30.04.262,vts_reward_expectancy_bt,2022.2.4,MacIntel,60.0024001,Chrome,1440,900,,,,,1,834,,,,,,,,,,,,,,,,,H,174,star,1,0,,,,,,,,,,,,,,,,repeat,number,numRpt,k,0.4121,Hi,,,,,,2,,,,,,,,low,2,0,2,0,1,,,,,,,,,
292744,2022-11-14_12h30.04.262,vts_reward_expectancy_bt,2022.2.4,MacIntel,60.0024001,Chrome,1440,900,,,,,10,844,,,,,,,,,,,,,,,,,Y,139,hexagon,1,0,,,,,,,,,,,,,,,,repeat,number,numRpt,j,0.5139,Hi,,,,,,2,,,,,,,,low,3,0,3,0,1,,,,,,,,,
292744,2022-11-14_12h30.04.262,vts_reward_expectancy_bt,2022.2.4,MacIntel,60.0024001,Chrome,1440,900,,,,,10,854,,,,,,,,,,,,,,,,,U,125,triangle,1,0,,,,,,,,,,,,,,,,repeat,number,numRpt,j,0.4619,Lo,,,,,,2,,,,,,,,low,4,0,4,0,1,,,,,,,,,
292744,2022-11-14_12h30.04.262,vts_reward_expectancy_bt,2022.2.4,MacIntel,60.0024001,Chrome,1440,900,,,,,10,864,,,,,,,,,,,,,,,,,B,181,circle,1,0,,,,,,,,,,,,,,,,repeat,number,numRpt,k,0.6494,Lo,,,,,,2,,,,,,,,low,5,0,5,0,1,,,,,,,,,
292744,2022-11-14_12h30.04.262,vts_reward_expectancy_bt,2022.2.4,MacIntel,60.0024001,Chrome,1440,900,,,,,10,874,,,,,,,,,,,,,,,,,D,146,star,1,0,,,,,,,,,,,,,,,,repeat,number,numRpt,j,0.6268,Hi,,,,,,2,,,,,,,,low,6,0,6,0,1,,,,,,,,,
292744,2022-11-14_12h30.04.262,vts_reward_expectancy_bt,2022.2.4,MacIntel,60.0024001,Chrome,1440,900,,,,,10,884,,,,,,,,,,,,,,,,,S,167,hexagon,1,0,,,,,,,,,,,,,,,,repeat,number,numRpt,k,0.5814,Hi,,,,,,2,,,,,,,,low,7,0,7,0,1,,,,,,,,,
292744,2022-11-14_12h30.04.262,vts_reward_expectancy_bt,2022.2.4,MacIntel,60.0024001,Chrome,1440,900,,,,,10,894,,,,,,,,,,,,,,,,,W,160,star,1,0,,,,,,,,,,,,,,,,repeat,number,numRpt,k,0.5354,Hi,,,,,,2,,,,,,,,low,8,0,8,0,1,,,,,,,,,
292744,2022-11-14_12h30.04.262,vts_reward_expectancy_bt,2022.2.4,MacIntel,60.0024001,Chrome,1440,900,,,,,10,904,,,,,,,,,,,,,,,,,F,132,circle,1,0,,,,,,,,,,,,,,,,repeat,number,numRpt,j,0.6516,Lo,,,,,,2,,,,,,,,low,9,0,9,0,1,,,,,,,,,
292744,2022-11-14_12h30.04.262,vts_reward_expectancy_bt,2022.2.4,MacIntel,60.0024001,Chrome,1440,900,,,,,10,914,,,,,,,,,,,,,,,,,H,174,hexagon,1,0,,,,,,,,,,,,,,,,repeat,number,numRpt,k,0.5183,Hi,,,,,,2,,,,,,,,low,10,0,10,0,1,,,,,,,,,
292744,2022-11-14_12h30.04.262,vts_reward_expectancy_bt,2022.2.4,MacIntel,60.0024001,Chrome,1440,900,,,,,1,915,,,,,,,,,,,,,,,,,Y,139,triangle,1,0,,,,,,,,,,,,,,,,repeat,number,numRpt,j,0.5969,Lo,,,,,,2,,,,,,,,low,11,0,11,0,1,,,,,,,,,
292744,2022-11-14_12h30.04.262,vts_reward_expectancy_bt,2022.2.4,MacIntel,60.0024001,Chrome,1440,900,,,,,10,925,,,,,,,,,,,,,,,,,U,125,star,1,0,,,,,,,,,,,,,,,,repeat,number,numRpt,j,0.5137,Hi,,,,,,2,,,,,,,,low,12,0,12,0,1,,,,,,,,,
292744,2022-11-14_12h30.04.262,vts_reward_expectancy_bt,2022.2.4,MacIntel,60.0024001,Chrome,1440,900,,,,,1,926,,,,,,,,,,,,,,,,,B,181,circle,1,0,,,,,,,,,,,,,,,,repeat,number,numRpt,k,0.4798,Lo,,,,,,2,,,,,,,,low,13,0,13,0,1,,,,,,,,,
292744,2022-11-14_12h30.04.262,vts_reward_expectancy_bt,2022.2.4,MacIntel,60.0024001,Chrome,1440,900,,,,,0,926,,,,,,,,,,,,,,,,,D,146,hexagon,0,0,,,,,,,,,,,,,,,,repeat,number,NA,k,0.6158,Lo,,,,,,2,,,,,,,,low,14,0,14,0,1,,,,,,,,,
292744,2022-11-14_12h30.04.262,vts_reward_expectancy_bt,2022.2.4,MacIntel,60.0024001,Chrome,1440,900,,,,,10,936,,,,,,,,,,,,,,,,,S,167,triangle,1,1,,,,,,,,,,,,,,,,repeat,number,numRpt,k,0.5594,Lo,,,,,,2,,,,,,,,low,15,0,15,0,1,,,,,,,,,
292744,2022-11-14_12h30.04.262,vts_reward_expectancy_bt,2022.2.4,MacIntel,60.0024001,Chrome,1440,900,,,,,1,937,,,,,,,,,,,,,,,,,Y,146,circle,1,0,,,,,,,,,,,,,,,,repeat,number,numRpt,j,0.5088,Lo,,,,,,2,,,,,,,,low,16,0,16,0,1,,,,,,,,,
292744,2022-11-14_12h30.04.262,vts_reward_expectancy_bt,2022.2.4,MacIntel,60.0024001,Chrome,1440,900,,,,,10,947,,,,,,,,,,,,,,,,,H,174,star,1,0,,,,,,,,,,,,,,,,repeat,number,numRpt,k,0.6288,Hi,,,,,,2,,,,,,,,low,17,0,17,0,1,,,,,,,,,
292744,2022-11-14_12h30.04.262,vts_reward_expectancy_bt,2022.2.4,MacIntel,60.0024001,Chrome,1440,900,,,,,10,957,,,,,,,,,,,,,,,,,F,132,hexagon,1,0,,,,,,,,,,,,,,,,repeat,number,numRpt,j,0.5634,Hi,,,,,,2,,,,,,,,low,18,0,18,0,1,,,,,,,,,
292744,2022-11-14_12h30.04.262,vts_reward_expectancy_bt,2022.2.4,MacIntel,60.0024001,Chrome,1440,900,,,,,10,967,,,,,,,,,,,,,,,,,S,139,triangle,1,0,,,,,,,,,,,,,,,,repeat,number,numRpt,j,0.4824,Lo,,,,,,2,,,,,,,,low,19,0,19,0,1,,,,,,,,,
292744,2022-11-14_12h30.04.262,vts_reward_expectancy_bt,2022.2.4,MacIntel,60.0024001,Chrome,1440,900,,,,,10,977,,,,,,,,,,,,,,,,,W,160,hexagon,1,0,,,,,,,,,,,,,,,,repeat,number,numRpt,k,0.3877,Hi,,,,,,2,,,,,,,,low,20,0,20,0,1,,,,,,,,,
292744,2022-11-14_12h30.04.262,vts_reward_expectancy_bt,2022.2.4,MacIntel,60.0024001,Chrome,1440,900,,,,,10,987,,,,,,,,,,,,,,,,,D,181,star,1,0,,,,,,,,,,,,,,,,repeat,number,numRpt,k,0.4521,Hi,,,,,,2,,,,,,,,low,21,0,21,0,1,,,,,,,,,
292744,2022-11-14_12h30.04.262,vts_reward_expectancy_bt,2022.2.4,MacIntel,60.0024001,Chrome,1440,900,,,,,10,997,,,,,,,,,,,,,,,,,U,125,circle,1,0,,,,,,,,,,,,,,,,repeat,number,numRpt,j,0.487,Lo,,,,,,2,,,,,,,,low,22,0,22,0,1,,,,,,,,,
292744,2022-11-14_12h30.04.262,vts_reward_expectancy_bt,2022.2.4,MacIntel,60.0024001,Chrome,1440,900,,,,,1,998,,,,,,,,,,,,,,,,,B,167,triangle,1,0,,,,,,,,,,,,,,,,repeat,number,numRpt,k,0.4349,Lo,,,,,,2,,,,,,,,low,23,0,23,0,1,,,,,,,,,
292744,2022-11-14_12h30.04.262,vts_reward_expectancy_bt,2022.2.4,MacIntel,60.0024001,Chrome,1440,900,,,,,10,1008,,,,,,,,,,,,,,,,,F,160,hexagon,1,0,,,,,,,,,,,,,,,,repeat,number,numRpt,k,0.5316,Hi,,,,,,2,,,,,,,,low,24,0,24,0,1,,,,,,,,,
292744,2022-11-14_12h30.04.262,vts_reward_expectancy_bt,2022.2.4,MacIntel,60.0024001,Chrome,1440,900,,,,,1,1009,,,,,,,,,,,,,,,,,Y,146,circle,1,0,,,,,,,,,,,,,,,,repeat,number,numRpt,j,0.7981,Lo,,,,,,2,,,,,,,,low,25,0,25,0,1,,,,,,,,,
292744,2022-11-14_12h30.04.262,vts_reward_expectancy_bt,2022.2.4,MacIntel,60.0024001,Chrome,1440,900,,,,,1,1010,,,,,,,,,,,,,,,,,D,132,triangle,1,0,,,,,,,,,,,,,,,,repeat,number,numRpt,j,0.5447,Lo,,,,,,2,,,,,,,,low,26,0,26,0,1,,,,,,,,,
292744,2022-11-14_12h30.04.262,vts_reward_expectancy_bt,2022.2.4,MacIntel,60.0024001,Chrome,1440,900,,,,,10,1020,,,,,,,,,,,,,,,,,H,167,star,1,0,,,,,,,,,,,,,,,,repeat,number,numRpt,k,0.4123,Hi,,,,,,2,,,,,,,,low,27,0,27,0,1,,,,,,,,,
292744,2022-11-14_12h30.04.262,vts_reward_expectancy_bt,2022.2.4,MacIntel,60.0024001,Chrome,1440,900,,,,,1,1021,,,,,,,,,,,,,,,,,S,139,hexagon,1,0,,,,,,,,,,,,,,,,repeat,number,numRpt,j,0.5056,Hi,,,,,,2,,,,,,,,low,28,0,28,0,1,,,,,,,,,
292744,2022-11-14_12h30.04.262,vts_reward_expectancy_bt,2022.2.4,MacIntel,60.0024001,Chrome,1440,900,,,,,1,1022,,,,,,,,,,,,,,,,,W,174,triangle,1,0,,,,,,,,,,,,,,,,repeat,number,numRpt,k,0.4341,Lo,,,,,,2,,,,,,,,low,29,0,29,0,1,,,,,,,,,
292744,2022-11-14_12h30.04.262,vts_reward_expectancy_bt,2022.2.4,MacIntel,60.0024001,Chrome,1440,900,,,,,1,1023,,,,,,,,,,,,,,,,,B,125,star,1,0,,,,,,,,,,,,,,,,repeat,number,numRpt,j,0.4806,Hi,,,,,,2,,,,,,,,low,30,0,30,0,1,,,,,,,,,
292744,2022-11-14_12h30.04.262,vts_reward_expectancy_bt,2022.2.4,MacIntel,60.0024001,Chrome,1440,900,,,,,0,1023,,,,,,,,,,,,,,,,,U,181,circle,0,0,,,,,,,,,,,,,,,,repeat,number,NA,j,0.5027,Hi,,,,,,2,,,,,,,,low,31,0,31,0,1,,,,,,,,,
292744,2022-11-14_12h30.04.262,vts_reward_expectancy_bt,2022.2.4,MacIntel,60.0024001,Chrome,1440,900,,,,,0,1023,,,,,,,,,,,,,,,,,B,174,hexagon,1,1,,,,,,,,,,,,,,,,repeat,number,numRpt,k,0.5502,Hi,,,,,,3,,,,,,space,17.2084,low,0,0,0,0,1,,,,,,,,,
292744,2022-11-14_12h30.04.262,vts_reward_expectancy_bt,2022.2.4,MacIntel,60.0024001,Chrome,1440,900,,,,,1,1024,,,,,,,,,,,,,,,,,H,146,star,1,0,,,,,,,,,,,,,,,,repeat,number,numRpt,j,0.363,Hi,,,,,,3,,,,,,,,low,1,0,1,0,1,,,,,,,,,
292744,2022-11-14_12h30.04.262,vts_reward_expectancy_bt,2022.2.4,MacIntel,60.0024001,Chrome,1440,900,,,,,1,1025,,,,,,,,,,,,,,,,,D,160,triangle,1,0,,,,,,,,,,,,,,,,repeat,number,numRpt,k,0.6125,Lo,,,,,,3,,,,,,,,low,2,0,2,0,1,,,,,,,,,
292744,2022-11-14_12h30.04.262,vts_reward_expectancy_bt,2022.2.4,MacIntel,60.0024001,Chrome,1440,900,,,,,0,1025,,,,,,,,,,,,,,,,,Y,139,circle,0,0,,,,,,,,,,,,,,,,repeat,number,NA,k,0.5629,Lo,,,,,,3,,,,,,,,low,3,0,3,0,1,,,,,,,,,
292744,2022-11-14_12h30.04.262,vts_reward_expectancy_bt,2022.2.4,MacIntel,60.0024001,Chrome,1440,900,,,,,0,1025,,,,,,,,,,,,,,,,,F,125,hexagon,0,1,,,,,,,,,,,,,,,,repeat,number,NA,k,0.5594,Lo,,,,,,3,,,,,,,,low,4,0,4,0,1,,,,,,,,,
292744,2022-11-14_12h30.04.262,vts_reward_expectancy_bt,2022.2.4,MacIntel,60.0024001,Chrome,1440,900,,,,,0,1025,,,,,,,,,,,,,,,,,W,181,star,1,1,,,,,,,,,,,,,,,,repeat,number,numRpt,k,0.5014,Hi,,,,,,3,,,,,,,,low,5,0,5,0,1,,,,,,,,,
292744,2022-11-14_12h30.04.262,vts_reward_expectancy_bt,2022.2.4,MacIntel,60.0024001,Chrome,1440,900,,,,,10,1035,,,,,,,,,,,,,,,,,S,132,triangle,1,0,,,,,,,,,,,,,,,,repeat,number,numRpt,j,0.5966,Lo,,,,,,3,,,,,,,,low,6,0,6,0,1,,,,,,,,,
292744,2022-11-14_12h30.04.262,vts_reward_expectancy_bt,2022.2.4,MacIntel,60.0024001,Chrome,1440,900,,,,,10,1045,,,,,,,,,,,,,,,,,U,167,circle,1,0,,,,,,,,,,,,,,,,repeat,number,numRpt,k,0.5343,Lo,,,,,,3,,,,,,,,low,7,0,7,0,1,,,,,,,,,
292744,2022-11-14_12h30.04.262,vts_reward_expectancy_bt,2022.2.4,MacIntel,60.0024001,Chrome,1440,900,,,,,10,1055,,,,,,,,,,,,,,,,,B,174,circle,1,0,,,,,,,,,,,,,,,,repeat,number,numRpt,k,0.5176,Lo,,,,,,3,,,,,,,,low,8,0,8,0,1,,,,,,,,,
292744,2022-11-14_12h30.04.262,vts_reward_expectancy_bt,2022.2.4,MacIntel,60.0024001,Chrome,1440,900,,,,,0,1055,,,,,,,,,,,,,,,,,H,146,hexagon,1,0,,,,,,,,,,,,,,,,repeat,number,numRpt,j,0.5546,Hi,,,,,,3,,,,,,,,low,9,0,9,0,1,,,,,,,,,
292744,2022-11-14_12h30.04.262,vts_reward_expectancy_bt,2022.2.4,MacIntel,60.0024001,Chrome,1440,900,,,,,10,1065,,,,,,,,,,,,,,,,,D,160,triangle,1,0,,,,,,,,,,,,,,,,repeat,number,numRpt,k,0.6214,Lo,,,,,,3,,,,,,,,low,10,0,10,0,1,,,,,,,,,
292744,2022-11-14_12h30.04.262,vts_reward_expectancy_bt,2022.2.4,MacIntel,60.0024001,Chrome,1440,900,,,,,0,1065,,,,,,,,,,,,,,,,,Y,139,star,1,0,,,,,,,,,,,,,,,,repeat,number,numRpt,j,0.5131,Hi,,,,,,3,,,,,,,,low,11,0,11,0,1,,,,,,,,,
292744,2022-11-14_12h30.04.262,vts_reward_expectancy_bt,2022.2.4,MacIntel,60.0024001,Chrome,1440,900,,,,,0,1065,,,,,,,,,,,,,,,,,F,125,hexagon,1,0,,,,,,,,,,,,,,,,repeat,number,numRpt,j,0.564,Hi,,,,,,3,,,,,,,,low,12,0,12,0,1,,,,,,,,,
292744,2022-11-14_12h30.04.262,vts_reward_expectancy_bt,2022.2.4,MacIntel,60.0024001,Chrome,1440,900,,,,,0,1065,,,,,,,,,,,,,,,,,W,181,star,1,0,,,,,,,,,,,,,,,,repeat,number,numRpt,k,0.563,Hi,,,,,,3,,,,,,,,low,13,0,13,0,1,,,,,,,,,
292744,2022-11-14_12h30.04.262,vts_reward_expectancy_bt,2022.2.4,MacIntel,60.0024001,Chrome,1440,900,,,,,10,1075,,,,,,,,,,,,,,,,,S,132,triangle,1,0,,,,,,,,,,,,,,,,repeat,number,numRpt,j,0.4127,Lo,,,,,,3,,,,,,,,low,14,0,14,0,1,,,,,,,,,
292744,2022-11-14_12h30.04.262,vts_reward_expectancy_bt,2022.2.4,MacIntel,60.0024001,Chrome,1440,900,,,,,1,1076,,,,,,,,,,,,,,,,,U,167,circle,1,0,,,,,,,,,,,,,,,,repeat,number,numRpt,k,0.4371,Lo,,,,,,3,,,,,,,,low,15,0,15,0,1,,,,,,,,,
292744,2022-11-14_12h30.04.262,vts_reward_expectancy_bt,2022.2.4,MacIntel,60.0024001,Chrome,1440,900,,,,,1,1077,,,,,,,,,,,,,,,,,S,160,circle,1,0,,,,,,,,,,,,,,,,repeat,number,numRpt,k,0.5296,Lo,,,,,,3,,,,,,,,low,16,0,16,0,1,,,,,,,,,
292744,2022-11-14_12h30.04.262,vts_reward_expectancy_bt,2022.2.4,MacIntel,60.0024001,Chrome,1440,900,,,,,10,1087,,,,,,,,,,,,,,,,,U,167,star,1,0,,,,,,,,,,,,,,,,repeat,number,numRpt,k,0.3967,Hi,,,,,,3,,,,,,,,low,17,0,17,0,1,,,,,,,,,
292744,2022-11-14_12h30.04.262,vts_reward_expectancy_bt,2022.2.4,MacIntel,60.0024001,Chrome,1440,900,,,,,0,1087,,,,,,,,,,,,,,,,,W,132,hexagon,0,0,,,,,,,,,,,,,,,,repeat,number,NA,k,0.3887,Hi,,,,,,3,,,,,,,,low,18,0,18,0,1,,,,,,,,,
292744,2022-11-14_12h30.04.262,vts_reward_expectancy_bt,2022.2.4,MacIntel,60.0024001,Chrome,1440,900,,,,,0,1087,,,,,,,,,,,,,,,,,D,181,triangle,0,1,,,,,,,,,,,,,,,,repeat,number,NA,j,0.3985,Hi,,,,,,3,,,,,,,,low,19,0,19,0,1,,,,,,,,,
292744,2022-11-14_12h30.04.262,vts_reward_expectancy_bt,2022.2.4,MacIntel,60.0024001,Chrome,1440,900,,,,,1,1088,,,,,,,,,,,,,,,,,B,125,circle,1,1,,,,,,,,,,,,,,,,repeat,number,numRpt,j,0.634,Lo,,,,,,3,,,,,,,,low,20,0,20,0,1,,,,,,,,,
292744,2022-11-14_12h30.04.262,vts_reward_expectancy_bt,2022.2.4,MacIntel,60.0024001,Chrome,1440,900,,,,,0,1088,,,,,,,,,,,,,,,,,H,139,triangle,0,0,,,,,,,,,,,,,,,,repeat,number,NA,k,0.3864,Lo,,,,,,3,,,,,,,,low,21,0,21,0,1,,,,,,,,,
292744,2022-11-14_12h30.04.262,vts_reward_expectancy_bt,2022.2.4,MacIntel,60.0024001,Chrome,1440,900,,,,,0,1088,,,,,,,,,,,,,,,,,F,174,star,1,1,,,,,,,,,,,,,,,,repeat,number,numRpt,k,0.5135,Hi,,,,,,3,,,,,,,,low,22,0,22,0,1,,,,,,,,,
292744,2022-11-14_12h30.04.262,vts_reward_expectancy_bt,2022.2.4,MacIntel,60.0024001,Chrome,1440,900,,,,,0,1088,,,,,,,,,,,,,,,,,Y,146,hexagon,1,0,,,,,,,,,,,,,,,,repeat,number,numRpt,j,0.5286,Hi,,,,,,3,,,,,,,,low,23,0,23,0,1,,,,,,,,,
292744,2022-11-14_12h30.04.262,vts_reward_expectancy_bt,2022.2.4,MacIntel,60.0024001,Chrome,1440,900,,,,,10,1098,,,,,,,,,,,,,,,,,B,132,star,1,0,,,,,,,,,,,,,,,,repeat,number,numRpt,j,0.4303,Hi,,,,,,3,,,,,,,,low,24,0,24,0,1,,,,,,,,,
292744,2022-11-14_12h30.04.262,vts_reward_expectancy_bt,2022.2.4,MacIntel,60.0024001,Chrome,1440,900,,,,,10,1108,,,,,,,,,,,,,,,,,S,174,circle,1,0,,,,,,,,,,,,,,,,repeat,number,numRpt,k,0.4253,Lo,,,,,,3,,,,,,,,low,25,0,25,0,1,,,,,,,,,
292744,2022-11-14_12h30.04.262,vts_reward_expectancy_bt,2022.2.4,MacIntel,60.0024001,Chrome,1440,900,,,,,0,1108,,,,,,,,,,,,,,,,,H,125,hexagon,1,0,,,,,,,,,,,,,,,,repeat,number,numRpt,j,0.9418,Hi,,,,,,3,,,,,,,,low,26,0,26,0,1,,,,,,,,,
292744,2022-11-14_12h30.04.262,vts_reward_expectancy_bt,2022.2.4,MacIntel,60.0024001,Chrome,1440,900,,,,,10,1118,,,,,,,,,,,,,,,,,F,167,triangle,1,0,,,,,,,,,,,,,,,,repeat,number,numRpt,k,0.5638,Lo,,,,,,3,,,,,,,,low,27,0,27,0,1,,,,,,,,,
292744,2022-11-14_12h30.04.262,vts_reward_expectancy_bt,2022.2.4,MacIntel,60.0024001,Chrome,1440,900,,,,,10,1128,,,,,,,,,,,,,,,,,U,139,star,1,0,,,,,,,,,,,,,,,,repeat,number,numRpt,j,0.4337,Hi,,,,,,3,,,,,,,,low,28,0,28,0,1,,,,,,,,,
292744,2022-11-14_12h30.04.262,vts_reward_expectancy_bt,2022.2.4,MacIntel,60.0024001,Chrome,1440,900,,,,,1,1129,,,,,,,,,,,,,,,,,D,160,hexagon,1,0,,,,,,,,,,,,,,,,repeat,number,numRpt,k,0.4473,Hi,,,,,,3,,,,,,,,low,29,0,29,0,1,,,,,,,,,
292744,2022-11-14_12h30.04.262,vts_reward_expectancy_bt,2022.2.4,MacIntel,60.0024001,Chrome,1440,900,,,,,1,1130,,,,,,,,,,,,,,,,,W,181,circle,1,0,,,,,,,,,,,,,,,,repeat,number,numRpt,k,0.548,Lo,,,,,,3,,,,,,,,low,30,0,30,0,1,,,,,,,,,
292744,2022-11-14_12h30.04.262,vts_reward_expectancy_bt,2022.2.4,MacIntel,60.0024001,Chrome,1440,900,,,,,1,1131,,,,,,,,,,,,,,,,,Y,146,triangle,1,0,,,,,,,,,,,,,,,,repeat,number,numRpt,j,0.5451,Lo,,,,,,3,,,,,,,,low,31,0,31,0,1,,,,,,,,,
292744,2022-11-14_12h30.04.262,vts_reward_expectancy_bt,2022.2.4,MacIntel,60.0024001,Chrome,1440,900,,,,,10,1141,,,,,,,,,,,,,,,,,Y,181,circle,1,0,,,,,,,,,,,,,,,,switch,letter,lettSwt,f,0.4517,Lo,,,,,,4,,,,,,space,1.2129,low,0,0,0,0,1,,,,,,,,,
292744,2022-11-14_12h30.04.262,vts_reward_expectancy_bt,2022.2.4,MacIntel,60.0024001,Chrome,1440,900,,,,,0,1141,,,,,,,,,,,,,,,,,S,139,star,0,0,,,,,,,,,,,,,,,,repeat,letter,NA,d,0.5414,Lo,,,,,,4,,,,,,,,low,1,0,1,0,1,,,,,,,,,
292744,2022-11-14_12h30.04.262,vts_reward_expectancy_bt,2022.2.4,MacIntel,60.0024001,Chrome,1440,900,,,,,10,1151,,,,,,,,,,,,,,,,,H,146,hexagon,1,1,,,,,,,,,,,,,,,,repeat,letter,lettRpt,d,0.5453,Hi,,,,,,4,,,,,,,,low,2,0,2,0,1,,,,,,,,,
292744,2022-11-14_12h30.04.262,vts_reward_expectancy_bt,2022.2.4,MacIntel,60.0024001,Chrome,1440,900,,,,,1,1152,,,,,,,,,,,,,,,,,W,160,triangle,1,0,,,,,,,,,,,,,,,,repeat,letter,lettRpt,f,0.6045,Lo,,,,,,4,,,,,,,,low,3,0,3,0,1,,,,,,,,,
292744,2022-11-14_12h30.04.262,vts_reward_expectancy_bt,2022.2.4,MacIntel,60.0024001,Chrome,1440,900,,,,,1,1153,,,,,,,,,,,,,,,,,U,125,circle,1,0,,,,,,,,,,,,,,,,repeat,letter,lettRpt,f,0.4648,Lo,,,,,,4,,,,,,,,low,4,0,4,0,1,,,,,,,,,
292744,2022-11-14_12h30.04.262,vts_reward_expectancy_bt,2022.2.4,MacIntel,60.0024001,Chrome,1440,900,,,,,10,1163,,,,,,,,,,,,,,,,,F,132,star,1,0,,,,,,,,,,,,,,,,repeat,letter,lettRpt,d,0.4001,Hi,,,,,,4,,,,,,,,low,5,0,5,0,1,,,,,,,,,
292744,2022-11-14_12h30.04.262,vts_reward_expectancy_bt,2022.2.4,MacIntel,60.0024001,Chrome,1440,900,,,,,10,1173,,,,,,,,,,,,,,,,,B,174,hexagon,1,0,,,,,,,,,,,,,,,,repeat,letter,lettRpt,d,0.5152,Hi,,,,,,4,,,,,,,,low,6,0,6,0,1,,,,,,,,,
292744,2022-11-14_12h30.04.262,vts_reward_expectancy_bt,2022.2.4,MacIntel,60.0024001,Chrome,1440,900,,,,,1,1174,,,,,,,,,,,,,,,,,D,167,triangle,1,0,,,,,,,,,,,,,,,,repeat,letter,lettRpt,d,0.5387,Lo,,,,,,4,,,,,,,,low,7,0,7,0,1,,,,,,,,,
292744,2022-11-14_12h30.04.262,vts_reward_expectancy_bt,2022.2.4,MacIntel,60.0024001,Chrome,1440,900,,,,,1,1175,,,,,,,,,,,,,,,,,Y,181,star,1,0,,,,,,,,,,,,,,,,repeat,letter,lettRpt,f,0.4966,Hi,,,,,,4,,,,,,,,low,8,0,8,0,1,,,,,,,,,
292744,2022-11-14_12h30.04.262,vts_reward_expectancy_bt,2022.2.4,MacIntel,60.0024001,Chrome,1440,900,,,,,10,1185,,,,,,,,,,,,,,,,,S,139,hexagon,1,0,,,,,,,,,,,,,,,,repeat,letter,lettRpt,f,0.4472,Hi,,,,,,4,,,,,,,,low,9,0,9,0,1,,,,,,,,,
292744,2022-11-14_12h30.04.262,vts_reward_expectancy_bt,2022.2.4,MacIntel,60.0024001,Chrome,1440,900,,,,,1,1186,,,,,,,,,,,,,,,,,H,146,circle,1,0,,,,,,,,,,,,,,,,repeat,letter,lettRpt,d,0.4156,Lo,,,,,,4,,,,,,,,low,10,0,10,0,1,,,,,,,,,
292744,2022-11-14_12h30.04.262,vts_reward_expectancy_bt,2022.2.4,MacIntel,60.0024001,Chrome,1440,900,,,,,10,1196,,,,,,,,,,,,,,,,,W,160,triangle,1,0,,,,,,,,,,,,,,,,repeat,letter,lettRpt,f,0.6146,Lo,,,,,,4,,,,,,,,low,11,0,11,0,1,,,,,,,,,
292744,2022-11-14_12h30.04.262,vts_reward_expectancy_bt,2022.2.4,MacIntel,60.0024001,Chrome,1440,900,,,,,1,1197,,,,,,,,,,,,,,,,,U,125,star,1,0,,,,,,,,,,,,,,,,repeat,letter,lettRpt,f,0.5663,Hi,,,,,,4,,,,,,,,low,12,0,12,0,1,,,,,,,,,
292744,2022-11-14_12h30.04.262,vts_reward_expectancy_bt,2022.2.4,MacIntel,60.0024001,Chrome,1440,900,,,,,10,1207,,,,,,,,,,,,,,,,,F,132,triangle,1,0,,,,,,,,,,,,,,,,repeat,letter,lettRpt,d,0.5189,Lo,,,,,,4,,,,,,,,low,13,0,13,0,1,,,,,,,,,
292744,2022-11-14_12h30.04.262,vts_reward_expectancy_bt,2022.2.4,MacIntel,60.0024001,Chrome,1440,900,,,,,1,1208,,,,,,,,,,,,,,,,,B,174,hexagon,1,0,,,,,,,,,,,,,,,,repeat,letter,lettRpt,d,0.582,Hi,,,,,,4,,,,,,,,low,14,0,14,0,1,,,,,,,,,
292744,2022-11-14_12h30.04.262,vts_reward_expectancy_bt,2022.2.4,MacIntel,60.0024001,Chrome,1440,900,,,,,1,1209,,,,,,,,,,,,,,,,,D,167,circle,1,0,,,,,,,,,,,,,,,,repeat,letter,lettRpt,d,0.5127,Lo,,,,,,4,,,,,,,,low,15,0,15,0,1,,,,,,,,,
292744,2022-11-14_12h30.04.262,vts_reward_expectancy_bt,2022.2.4,MacIntel,60.0024001,Chrome,1440,900,,,,,1,1210,,,,,,,,,,,,,,,,,S,125,hexagon,1,0,,,,,,,,,,,,,,,,repeat,letter,lettRpt,f,0.4124,Hi,,,,,,4,,,,,,,,low,16,0,16,0,1,,,,,,,,,
292744,2022-11-14_12h30.04.262,vts_reward_expectancy_bt,2022.2.4,MacIntel,60.0024001,Chrome,1440,900,,,,,1,1211,,,,,,,,,,,,,,,,,F,160,triangle,1,0,,,,,,,,,,,,,,,,repeat,letter,lettRpt,d,0.6403,Lo,,,,,,4,,,,,,,,low,17,0,17,0,1,,,,,,,,,
292744,2022-11-14_12h30.04.262,vts_reward_expectancy_bt,2022.2.4,MacIntel,60.0024001,Chrome,1440,900,,,,,0,1211,,,,,,,,,,,,,,,,,U,181,star,0,0,,,,,,,,,,,,,,,,repeat,letter,NA,d,0.4968,Lo,,,,,,4,,,,,,,,low,18,0,18,0,1,,,,,,,,,
292744,2022-11-14_12h30.04.262,vts_reward_expectancy_bt,2022.2.4,MacIntel,60.0024001,Chrome,1440,900,,,,,10,1221,,,,,,,,,,,,,,,,,H,167,circle,1,1,,,,,,,,,,,,,,,,repeat,letter,lettRpt,d,0.5473,Lo,,,,,,4,,,,,,,,low,19,0,19,0,1,,,,,,,,,
292744,2022-11-14_12h30.04.262,vts_reward_expectancy_bt,2022.2.4,MacIntel,60.0024001,Chrome,1440,900,,,,,1,1222,,,,,,,,,,,,,,,,,W,174,triangle,1,0,,,,,,,,,,,,,,,,repeat,letter,lettRpt,f,0.546,Lo,,,,,,4,,,,,,,,low,20,0,20,0,1,,,,,,,,,
292744,2022-11-14_12h30.04.262,vts_reward_expectancy_bt,2022.2.4,MacIntel,60.0024001,Chrome,1440,900,,,,,10,1232,,,,,,,,,,,,,,,,,B,139,circle,1,0,,,,,,,,,,,,,,,,repeat,letter,lettRpt,d,0.4559,Lo,,,,,,4,,,,,,,,low,21,0,21,0,1,,,,,,,,,
292744,2022-11-14_12h30.04.262,vts_reward_expectancy_bt,2022.2.4,MacIntel,60.0024001,Chrome,1440,900,,,,,1,1233,,,,,,,,,,,,,,,,,Y,132,star,1,0,,,,,,,,,,,,,,,,repeat,letter,lettRpt,f,0.4981,Hi,,,,,,4,,,,,,,,low,22,0,22,0,1,,,,,,,,,
292744,2022-11-14_12h30.04.262,vts_reward_expectancy_bt,2022.2.4,MacIntel,60.0024001,Chrome,1440,900,,,,,1,1234,,,,,,,,,,,,,,,,,D,146,hexagon,1,0,,,,,,,,,,,,,,,,repeat,letter,lettRpt,d,0.4294,Hi,,,,,,4,,,,,,,,low,23,0,23,0,1,,,,,,,,,
292744,2022-11-14_12h30.04.262,vts_reward_expectancy_bt,2022.2.4,MacIntel,60.0024001,Chrome,1440,900,,,,,1,1235,,,,,,,,,,,,,,,,,F,167,triangle,1,0,,,,,,,,,,,,,,,,repeat,letter,lettRpt,d,0.5691,Lo,,,,,,4,,,,,,,,low,24,0,24,0,1,,,,,,,,,
292744,2022-11-14_12h30.04.262,vts_reward_expectancy_bt,2022.2.4,MacIntel,60.0024001,Chrome,1440,900,,,,,0,1235,,,,,,,,,,,,,,,,,U,125,star,0,0,,,,,,,,,,,,,,,,repeat,letter,NA,d,0.4981,Lo,,,,,,4,,,,,,,,low,25,0,25,0,1,,,,,,,,,
292744,2022-11-14_12h30.04.262,vts_reward_expectancy_bt,2022.2.4,MacIntel,60.0024001,Chrome,1440,900,,,,,10,1245,,,,,,,,,,,,,,,,,W,132,hexagon,1,1,,,,,,,,,,,,,,,,repeat,letter,lettRpt,f,0.4499,Hi,,,,,,4,,,,,,,,low,26,0,26,0,1,,,,,,,,,
292744,2022-11-14_12h30.04.262,vts_reward_expectancy_bt,2022.2.4,MacIntel,60.0024001,Chrome,1440,900,,,,,10,1255,,,,,,,,,,,,,,,,,D,139,circle,1,0,,,,,,,,,,,,,,,,repeat,letter,lettRpt,d,0.6562,Lo,,,,,,4,,,,,,,,low,27,0,27,0,1,,,,,,,,,
292744,2022-11-14_12h30.04.262,vts_reward_expectancy_bt,2022.2.4,MacIntel,60.0024001,Chrome,1440,900,,,,,10,1265,,,,,,,,,,,,,,,,,Y,160,hexagon,1,0,,,,,,,,,,,,,,,,repeat,letter,lettRpt,f,0.563,Hi,,,,,,4,,,,,,,,low,28,0,28,0,1,,,,,,,,,
292744,2022-11-14_12h30.04.262,vts_reward_expectancy_bt,2022.2.4,MacIntel,60.0024001,Chrome,1440,900,,,,,10,1275,,,,,,,,,,,,,,,,,B,181,circle,1,0,,,,,,,,,,,,,,,,repeat,letter,lettRpt,d,0.5483,Lo,,,,,,4,,,,,,,,low,29,0,29,0,1,,,,,,,,,
292744,2022-11-14_12h30.04.262,vts_reward_expectancy_bt,2022.2.4,MacIntel,60.0024001,Chrome,1440,900,,,,,1,1276,,,,,,,,,,,,,,,,,H,146,triangle,1,0,,,,,,,,,,,,,,,,repeat,letter,lettRpt,d,0.547,Lo,,,,,,4,,,,,,,,low,30,0,30,0,1,,,,,,,,,
292744,2022-11-14_12h30.04.262,vts_reward_expectancy_bt,2022.2.4,MacIntel,60.0024001,Chrome,1440,900,,,,,1,1277,,,,,,,,,,,,,,,,,S,174,star,1,0,,,,,,,,,,,,,,,,repeat,letter,lettRpt,f,0.5651,Hi,,,,,,4,,,,,,,,low,31,0,31,0,1,,,,,,,,,
292744,2022-11-14_12h30.04.262,vts_reward_expectancy_bt,2022.2.4,MacIntel,60.0024001,Chrome,1440,900,,,,,0,1277,,,,,,,,,,,,,,,,,F,132,star,1,0,,,,,,,,,,,,,,,,repeat,letter,lettRpt,d,0.515,Hi,,,,,,5,,,,,,space,1.3582,low,0,0,0,0,1,,,,,,,,,
292744,2022-11-14_12h30.04.262,vts_reward_expectancy_bt,2022.2.4,MacIntel,60.0024001,Chrome,1440,900,,,,,10,1287,,,,,,,,,,,,,,,,,B,139,circle,1,0,,,,,,,,,,,,,,,,repeat,letter,lettRpt,d,0.5308,Lo,,,,,,5,,,,,,,,low,1,0,1,0,1,,,,,,,,,
292744,2022-11-14_12h30.04.262,vts_reward_expectancy_bt,2022.2.4,MacIntel,60.0024001,Chrome,1440,900,,,,,0,1287,,,,,,,,,,,,,,,,,W,146,hexagon,1,0,,,,,,,,,,,,,,,,repeat,letter,lettRpt,f,0.5224,Hi,,,,,,5,,,,,,,,low,2,0,2,0,1,,,,,,,,,
292744,2022-11-14_12h30.04.262,vts_reward_expectancy_bt,2022.2.4,MacIntel,60.0024001,Chrome,1440,900,,,,,0,1287,,,,,,,,,,,,,,,,,Y,167,triangle,0,0,,,,,,,,,,,,,,,,repeat,letter,NA,d,0.4718,Hi,,,,,,5,,,,,,,,low,3,0,3,0,1,,,,,,,,,
292744,2022-11-14_12h30.04.262,vts_reward_expectancy_bt,2022.2.4,MacIntel,60.0024001,Chrome,1440,900,,,,,0,1287,,,,,,,,,,,,,,,,,H,174,star,1,1,,,,,,,,,,,,,,,,repeat,letter,lettRpt,d,0.4988,Hi,,,,,,5,,,,,,,,low,4,0,4,0,1,,,,,,,,,
292744,2022-11-14_12h30.04.262,vts_reward_expectancy_bt,2022.2.4,MacIntel,60.0024001,Chrome,1440,900,,,,,1,1288,,,,,,,,,,,,,,,,,S,125,circle,1,0,,,,,,,,,,,,,,,,repeat,letter,lettRpt,f,0.5056,Lo,,,,,,5,,,,,,,,low,5,0,5,0,1,,,,,,,,,
292744,2022-11-14_12h30.04.262,vts_reward_expectancy_bt,2022.2.4,MacIntel,60.0024001,Chrome,1440,900,,,,,0,1288,,,,,,,,,,,,,,,,,U,160,hexagon,1,0,,,,,,,,,,,,,,,,repeat,letter,lettRpt,f,0.5463,Hi,,,,,,5,,,,,,,,low,6,0,6,0,1,,,,,,,,,
292744,2022-11-14_12h30.04.262,vts_reward_expectancy_bt,2022.2.4,MacIntel,60.0024001,Chrome,1440,900,,,,,1,1289,,,,,,,,,,,,,,,,,D,181,triangle,1,0,,,,,,,,,,,,,,,,repeat,letter,lettRpt,d,0.534,Lo,,,,,,5,,,,,,,,low,7,0,7,0,1,,,,,,,,,
292744,2022-11-14_12h30.04.262,vts_reward_expectancy_bt,2022.2.4,MacIntel,60.0024001,Chrome,1440,900,,,,,0,1289,,,,,,,,,,,,,,,,,F,132,star,0,0,,,,,,,,,,,,,,,,repeat,letter,NA,f,0.4473,Lo,,,,,,5,,,,,,,,low,8,0,8,0,1,,,,,,,,,
292744,2022-11-14_12h30.04.262,vts_reward_expectancy_bt,2022.2.4,MacIntel,60.0024001,Chrome,1440,900,,,,,0,1289,,,,,,,,,,,,,,,,,B,139,circle,0,1,,,,,,,,,,,,,,,,repeat,letter,NA,f,0.4127,Lo,,,,,,5,,,,,,,,low,9,0,9,0,1,,,,,,,,,
292744,2022-11-14_12h30.04.262,vts_reward_expectancy_bt,2022.2.4,MacIntel,60.0024001,Chrome,1440,900,,,,,10,1299,,,,,,,,,,,,,,,,,W,146,hexagon,1,1,,,,,,,,,,,,,,,,repeat,letter,lettRpt,f,0.3973,Hi,,,,,,5,,,,,,,,low,10,0,10,0,1,,,,,,,,,
292744,2022-11-14_12h30.04.262,vts_reward_expectancy_bt,2022.2.4,MacIntel,60.0024001,Chrome,1440,900,,,,,1,1300,,,,,,,,,,,,,,,,,Y,167,triangle,1,0,,,,,,,,,,,,,,,,repeat,letter,lettRpt,f,0.4917,Lo,,,,,,5,,,,,,,,low,11,0,11,0,1,,,,,,,,,
292744,2022-11-14_12h30.04.262,vts_reward_expectancy_bt,2022.2.4,MacIntel,60.0024001,Chrome,1440,900,,,,,10,1310,,,,,,,,,,,,,,,,,H,174,star,1,0,,,,,,,,,,,,,,,,repeat,letter,lettRpt,d,0.4133,Hi,,,,,,5,,,,,,,,low,12,0,12,0,1,,,,,,,,,
292744,2022-11-14_12h30.04.262,vts_reward_expectancy_bt,2022.2.4,MacIntel,60.0024001,Chrome,1440,900,,,,,1,1311,,,,,,,,,,,,,,,,,S,125,circle,1,0,,,,,,,,,,,,,,,,repeat,letter,lettRpt,f,0.5383,Lo,,,,,,5,,,,,,,,low,13,0,13,0,1,,,,,,,,,
292744,2022-11-14_12h30.04.262,vts_reward_expectancy_bt,2022.2.4,MacIntel,60.0024001,Chrome,1440,900,,,,,0,1311,,,,,,,,,,,,,,,,,U,160,hexagon,0,0,,,,,,,,,,,,,,,,repeat,letter,NA,d,0.5001,Lo,,,,,,5,,,,,,,,low,14,0,14,0,1,,,,,,,,,
292744,2022-11-14_12h30.04.262,vts_reward_expectancy_bt,2022.2.4,MacIntel,60.0024001,Chrome,1440,900,,,,,1,1312,,,,,,,,,,,,,,,,,D,181,triangle,1,1,,,,,,,,,,,,,,,,repeat,letter,lettRpt,d,0.6384,Lo,,,,,,5,,,,,,,,low,15,0,15,0,1,,,,,,,,,
292744,2022-11-14_12h30.04.262,vts_reward_expectancy_bt,2022.2.4,MacIntel,60.0024001,Chrome,1440,900,,,,,0,1312,,,,,,,,,,,,,,,,,U,167,star,1,0,,,,,,,,,,,,,,,,repeat,letter,lettRpt,f,0.5137,Hi,,,,,,5,,,,,,,,low,16,0,16,0,1,,,,,,,,,
292744,2022-11-14_12h30.04.262,vts_reward_expectancy_bt,2022.2.4,MacIntel,60.0024001,Chrome,1440,900,,,,,10,1322,,,,,,,,,,,,,,,,,B,174,triangle,1,0,,,,,,,,,,,,,,,,repeat,letter,lettRpt,d,0.4886,Lo,,,,,,5,,,,,,,,low,17,0,17,0,1,,,,,,,,,
292744,2022-11-14_12h30.04.262,vts_reward_expectancy_bt,2022.2.4,MacIntel,60.0024001,Chrome,1440,900,,,,,0,1322,,,,,,,,,,,,,,,,,W,181,circle,0,0,,,,,,,,,,,,,,,,repeat,letter,NA,d,0.5304,Lo,,,,,,5,,,,,,,,low,18,0,18,0,1,,,,,,,,,
292744,2022-11-14_12h30.04.262,vts_reward_expectancy_bt,2022.2.4,MacIntel,60.0024001,Chrome,1440,900,,,,,0,1322,,,,,,,,,,,,,,,,,D,125,hexagon,1,1,,,,,,,,,,,,,,,,repeat,letter,lettRpt,d,0.6416,Hi,,,,,,5,,,,,,,,low,19,0,19,0,1,,,,,,,,,
292744,2022-11-14_12h30.04.262,vts_reward_expectancy_bt,2022.2.4,MacIntel,60.0024001,Chrome,1440,900,,,,,1,1323,,,,,,,,,,,,,,,,,S,139,circle,1,0,,,,,,,,,,,,,,,,repeat,letter,lettRpt,f,0.5621,Lo,,,,,,5,,,,,,,,low,20,0,20,0,1,,,,,,,,,
292744,2022-11-14_12h30.04.262,vts_reward_expectancy_bt,2022.2.4,MacIntel,60.0024001,Chrome,1440,900,,,,,10,1333,,,,,,,,,,,,,,,,,H,160,triangle,1,0,,,,,,,,,,,,,,,,repeat,letter,lettRpt,d,0.5504,Lo,,,,,,5,,,,,,,,low,21,0,21,0,1,,,,,,,,,
292744,2022-11-14_12h30.04.262,vts_reward_expectancy_bt,2022.2.4,MacIntel,60.0024001,Chrome,1440,900,,,,,10,1343,,,,,,,,,,,,,,,,,Y,132,star,1,0,,,,,,,,,,,,,,,,repeat,letter,lettRpt,f,0.3969,Hi,,,,,,5,,,,,,,,low,22,0,22,0,1,,,,,,,,,
292744,2022-11-14_12h30.04.262,vts_reward_expectancy_bt,2022.2.4,MacIntel,60.0024001,Chrome,1440,900,,,,,0,1343,,,,,,,,,,,,,,,,,F,146,hexagon,1,0,,,,,,,,,,,,,,,,repeat,letter,lettRpt,d,0.5191,Hi,,,,,,5,,,,,,,,low,23,0,23,0,1,,,,,,,,,
292744,2022-11-14_12h30.04.262,vts_reward_expectancy_bt,2022.2.4,MacIntel,60.0024001,Chrome,1440,900,,,,,1,1344,,,,,,,,,,,,,,,,,B,125,circle,1,0,,,,,,,,,,,,,,,,switch,number,numSwt,j,0.4633,Lo,,,,,,5,,,,,,,,low,24,0,24,0,1,,,,,,,,,
292744,2022-11-14_12h30.04.262,vts_reward_expectancy_bt,2022.2.4,MacIntel,60.0024001,Chrome,1440,900,,,,,1,1345,,,,,,,,,,,,,,,,,W,132,star,1,0,,,,,,,,,,,,,,,,repeat,number,numRpt,j,0.534,Hi,,,,,,5,,,,,,,,low,25,0,25,0,1,,,,,,,,,
292744,2022-11-14_12h30.04.262,vts_reward_expectancy_bt,2022.2.4,MacIntel,60.0024001,Chrome,1440,900,,,,,10,1355,,,,,,,,,,,,,,,,,S,139,hexagon,1,0,,,,,,,,,,,,,,,,repeat,number,numRpt,j,0.4974,Hi,,,,,,5,,,,,,,,low,26,0,26,0,1,,,,,,,,,
292744,2022-11-14_12h30.04.262,vts_reward_expectancy_bt,2022.2.4,MacIntel,60.0024001,Chrome,1440,900,,,,,10,1365,,,,,,,,,,,,,,,,,D,167,triangle,1,0,,,,,,,,,,,,,,,,repeat,number,numRpt,k,0.4205,Lo,,,,,,5,,,,,,,,low,27,0,27,0,1,,,,,,,,,
292744,2022-11-14_12h30.04.262,vts_reward_expectancy_bt,2022.2.4,MacIntel,60.0024001,Chrome,1440,900,,,,,1,1366,,,,,,,,,,,,,,,,,H,146,circle,1,0,,,,,,,,,,,,,,,,repeat,number,numRpt,j,0.5335,Lo,,,,,,5,,,,,,,,low,28,0,28,0,1,,,,,,,,,
292744,2022-11-14_12h30.04.262,vts_reward_expectancy_bt,2022.2.4,MacIntel,60.0024001,Chrome,1440,900,,,,,10,1376,,,,,,,,,,,,,,,,,F,181,hexagon,1,0,,,,,,,,,,,,,,,,repeat,number,numRpt,k,0.4312,Hi,,,,,,5,,,,,,,,low,29,0,29,0,1,,,,,,,,,
292744,2022-11-14_12h30.04.262,vts_reward_expectancy_bt,2022.2.4,MacIntel,60.0024001,Chrome,1440,900,,,,,0,1376,,,,,,,,,,,,,,,,,Y,174,star,0,0,,,,,,,,,,,,,,,,repeat,number,NA,j,0.4804,Hi,,,,,,5,,,,,,,,low,30,0,30,0,1,,,,,,,,,
292744,2022-11-14_12h30.04.262,vts_reward_expectancy_bt,2022.2.4,MacIntel,60.0024001,Chrome,1440,900,,,,,1,1377,,,,,,,,,,,,,,,,,U,160,triangle,1,1,,,,,,,,,,,,,,,,repeat,number,numRpt,k,0.5292,Lo,,,,,,5,,,,,,,,low,31,0,31,0,1,,,,,,,,,
292744,2022-11-14_12h30.04.262,vts_reward_expectancy_bt,2022.2.4,MacIntel,60.0024001,Chrome,1440,900,,,,,1,1378,,,,,,,,,,,,,,,,,D,167,circle,1,0,,,,,,,,,,,,,,,,repeat,number,numRpt,k,0.614,Lo,,,,,,6,,,,,,space,1.386,low,0,0,0,0,1,,,,,,,,,
292744,2022-11-14_12h30.04.262,vts_reward_expectancy_bt,2022.2.4,MacIntel,60.0024001,Chrome,1440,900,,,,,0,1378,,,,,,,,,,,,,,,,,B,160,hexagon,1,0,,,,,,,,,,,,,,,,repeat,number,numRpt,k,0.487,Hi,,,,,,6,,,,,,,,low,1,0,1,0,1,,,,,,,,,
292744,2022-11-14_12h30.04.262,vts_reward_expectancy_bt,2022.2.4,MacIntel,60.0024001,Chrome,1440,900,,,,,0,1378,,,,,,,,,,,,,,,,,F,181,star,1,0,,,,,,,,,,,,,,,,repeat,number,numRpt,k,0.5133,Hi,,,,,,6,,,,,,,,low,2,0,2,0,1,,,,,,,,,
292744,2022-11-14_12h30.04.262,vts_reward_expectancy_bt,2022.2.4,MacIntel,60.0024001,Chrome,1440,900,,,,,0,1378,,,,,,,,,,,,,,,,,U,139,triangle,0,0,,,,,,,,,,,,,,,,repeat,number,NA,k,0.4992,Hi,,,,,,6,,,,,,,,low,3,0,3,0,1,,,,,,,,,
