participant,date,expName,psychopyVersion,OS,frameRate,browser,xResolution,yResolution,key_resp.keys,key_resp.rt,training_resp.keys,training_resp.rt,points_trial,points_cumul,trainBlock,training.thisRepN,training.thisTrialN,training.thisN,training.thisIndex,training.ran,LTriangleOpac,LCircleOpac,LHexagonOpac,LStarOpac,RTriangleOpac,RCircleOpac,RHexagonOpac,RStarOpac,LShape_ID,RShape_ID,curr_topStim,curr_bottStim,curr_shape,acc,E1,target_resp_prac1.keys,target_resp_prac1.rt,pracBlock,task1_prac_trials.thisRepN,task1_prac_trials.thisTrialN,task1_prac_trials.thisN,task1_prac_trials.thisIndex,task1_prac_trials.ran,target_resp_prac2.keys,target_resp_prac2.rt,task2_praac_trials.thisRepN,task2_praac_trials.thisTrialN,task2_praac_trials.thisN,task2_praac_trials.thisIndex,task2_praac_trials.ran,alt,task,condition,target_resp.keys,target_resp.rt,rewCond,vts_practice_trials.thisRepN,vts_practice_trials.thisTrialN,vts_practice_trials.thisN,vts_practice_trials.thisIndex,vts_practice_trials.ran,blockNum,trials_norew.thisRepN,trials_norew.thisTrialN,trials_norew.thisN,trials_norew.thisIndex,trials_norew.ran,key_resp_2.keys,key_resp_2.rt,rewExpectancy,trials_rew.thisRepN,trials_rew.thisTrialN,trials_rew.thisN,trials_rew.thisIndex,trials_rew.ran,Q1,Q2,Q2_text,Q3,Q4,Q5_text,Q5,xRes,yRes
292768,2022-11-15_13h27.51.719,vts_reward_expectancy_bt,2022.2.4,MacIntel,60.0024001,Chrome,1185,747,,,,,,,,,,,,,,,,,,,,,,,,,,,,,,,,,,,,,,,,,,,,,,,,,,,,,,,,,,,,,,,,,,,,,,,,,,,,
292768,2022-11-15_13h27.51.719,vts_reward_expectancy_bt,2022.2.4,MacIntel,60.0024001,Chrome,1185,747,space,4.6177,,,,,,,,,,,,,,,,,,,,,,,,,,,,,,,,,,,,,,,,,,,,,,,,,,,,,,,,,,,,,,,,,,,,,,,,,,
292768,2022-11-15_13h27.51.719,vts_reward_expectancy_bt,2022.2.4,MacIntel,60.0024001,Chrome,1185,747,,,,,,,,,,,,,,,,,,,,,,,,,,,,,,,,,,,,,,,,,,,,,,,,,,,,,,,,,,,,,,,,,,,,,,,,,,,,
292768,2022-11-15_13h27.51.719,vts_reward_expectancy_bt,2022.2.4,MacIntel,60.0024001,Chrome,1185,747,,,l,1.9654,1,1,0,0,0,0,1,1,1,0,0,0,0,0,1,0,triangle,hexagon,,,,,,,,,,,,,,,,,,,,,,,,,,,,,,,,,,,,,,,,,,,,,,,,,,,,,,
292768,2022-11-15_13h27.51.719,vts_reward_expectancy_bt,2022.2.4,MacIntel,60.0024001,Chrome,1185,747,,,a,1.4753,10,11,0,0,1,1,3,1,0,1,0,0,1,0,0,0,circle,triangle,,,,,,,,,,,,,,,,,,,,,,,,,,,,,,,,,,,,,,,,,,,,,,,,,,,,,,
292768,2022-11-15_13h27.51.719,vts_reward_expectancy_bt,2022.2.4,MacIntel,60.0024001,Chrome,1185,747,,,a,0.8659,10,21,0,0,2,2,10,1,0,0,0,1,0,1,0,0,star ,circle,,,,,,,,,,,,,,,,,,,,,,,,,,,,,,,,,,,,,,,,,,,,,,,,,,,,,,
292768,2022-11-15_13h27.51.719,vts_reward_expectancy_bt,2022.2.4,MacIntel,60.0024001,Chrome,1185,747,,,a,0.8856,10,31,0,0,3,3,0,1,1,0,0,0,0,1,0,0,triangle,circle,,,,,,,,,,,,,,,,,,,,,,,,,,,,,,,,,,,,,,,,,,,,,,,,,,,,,,
292768,2022-11-15_13h27.51.719,vts_reward_expectancy_bt,2022.2.4,MacIntel,60.0024001,Chrome,1185,747,,,a,0.725,10,41,0,0,4,4,11,1,0,0,0,1,0,0,1,0,star,hexagon,,,,,,,,,,,,,,,,,,,,,,,,,,,,,,,,,,,,,,,,,,,,,,,,,,,,,,
292768,2022-11-15_13h27.51.719,vts_reward_expectancy_bt,2022.2.4,MacIntel,60.0024001,Chrome,1185,747,,,a,0.9681,10,51,0,0,5,5,9,1,0,0,0,1,1,0,0,0,star,triangle,,,,,,,,,,,,,,,,,,,,,,,,,,,,,,,,,,,,,,,,,,,,,,,,,,,,,,
292768,2022-11-15_13h27.51.719,vts_reward_expectancy_bt,2022.2.4,MacIntel,60.0024001,Chrome,1185,747,,,l,0.6261,10,61,0,0,6,6,5,1,0,1,0,0,0,0,0,1,circle,star,,,,,,,,,,,,,,,,,,,,,,,,,,,,,,,,,,,,,,,,,,,,,,,,,,,,,,
292768,2022-11-15_13h27.51.719,vts_reward_expectancy_bt,2022.2.4,MacIntel,60.0024001,Chrome,1185,747,,,a,1.0101,1,62,0,0,7,7,7,1,0,0,1,0,0,1,0,0,hexagon,circle,,,,,,,,,,,,,,,,,,,,,,,,,,,,,,,,,,,,,,,,,,,,,,,,,,,,,,
292768,2022-11-15_13h27.51.719,vts_reward_expectancy_bt,2022.2.4,MacIntel,60.0024001,Chrome,1185,747,,,a,1.0752,10,72,0,0,8,8,4,1,0,1,0,0,0,0,1,0,circle,hexagon,,,,,,,,,,,,,,,,,,,,,,,,,,,,,,,,,,,,,,,,,,,,,,,,,,,,,,
292768,2022-11-15_13h27.51.719,vts_reward_expectancy_bt,2022.2.4,MacIntel,60.0024001,Chrome,1185,747,,,l,0.9648,1,73,0,0,9,9,6,1,0,0,1,0,1,0,0,0,hexagon,triangle,,,,,,,,,,,,,,,,,,,,,,,,,,,,,,,,,,,,,,,,,,,,,,,,,,,,,,
292768,2022-11-15_13h27.51.719,vts_reward_expectancy_bt,2022.2.4,MacIntel,60.0024001,Chrome,1185,747,,,l,0.7463,10,83,0,0,10,10,2,1,1,0,0,0,0,0,0,1,triangle,star,,,,,,,,,,,,,,,,,,,,,,,,,,,,,,,,,,,,,,,,,,,,,,,,,,,,,,
292768,2022-11-15_13h27.51.719,vts_reward_expectancy_bt,2022.2.4,MacIntel,60.0024001,Chrome,1185,747,,,l,1.0088,1,84,0,0,11,11,8,1,0,0,1,0,0,0,0,1,hexagon,star,,,,,,,,,,,,,,,,,,,,,,,,,,,,,,,,,,,,,,,,,,,,,,,,,,,,,,
292768,2022-11-15_13h27.51.719,vts_reward_expectancy_bt,2022.2.4,MacIntel,60.0024001,Chrome,1185,747,,,a,1.1716,1,85,0,1,0,12,8,1,0,0,1,0,0,0,0,1,hexagon,star,,,,,,,,,,,,,,,,,,,,,,,,,,,,,,,,,,,,,,,,,,,,,,,,,,,,,,
292768,2022-11-15_13h27.51.719,vts_reward_expectancy_bt,2022.2.4,MacIntel,60.0024001,Chrome,1185,747,,,l,0.9266,10,95,0,1,1,13,1,1,1,0,0,0,0,0,1,0,triangle,hexagon,,,,,,,,,,,,,,,,,,,,,,,,,,,,,,,,,,,,,,,,,,,,,,,,,,,,,,
292768,2022-11-15_13h27.51.719,vts_reward_expectancy_bt,2022.2.4,MacIntel,60.0024001,Chrome,1185,747,,,l,2.817,10,105,0,1,2,14,11,1,0,0,0,1,0,0,1,0,star,hexagon,,,,,,,,,,,,,,,,,,,,,,,,,,,,,,,,,,,,,,,,,,,,,,,,,,,,,,
292768,2022-11-15_13h27.51.719,vts_reward_expectancy_bt,2022.2.4,MacIntel,60.0024001,Chrome,1185,747,,,a,0.8497,10,115,0,1,3,15,7,1,0,0,1,0,0,1,0,0,hexagon,circle,,,,,,,,,,,,,,,,,,,,,,,,,,,,,,,,,,,,,,,,,,,,,,,,,,,,,,
292768,2022-11-15_13h27.51.719,vts_reward_expectancy_bt,2022.2.4,MacIntel,60.0024001,Chrome,1185,747,,,a,1.8839,10,125,0,1,4,16,3,1,0,1,0,0,1,0,0,0,circle,triangle,,,,,,,,,,,,,,,,,,,,,,,,,,,,,,,,,,,,,,,,,,,,,,,,,,,,,,
292768,2022-11-15_13h27.51.719,vts_reward_expectancy_bt,2022.2.4,MacIntel,60.0024001,Chrome,1185,747,,,l,0.8518,1,126,0,1,5,17,4,1,0,1,0,0,0,0,1,0,circle,hexagon,,,,,,,,,,,,,,,,,,,,,,,,,,,,,,,,,,,,,,,,,,,,,,,,,,,,,,
292768,2022-11-15_13h27.51.719,vts_reward_expectancy_bt,2022.2.4,MacIntel,60.0024001,Chrome,1185,747,,,a,0.8766,10,136,0,1,6,18,9,1,0,0,0,1,1,0,0,0,star,triangle,,,,,,,,,,,,,,,,,,,,,,,,,,,,,,,,,,,,,,,,,,,,,,,,,,,,,,
292768,2022-11-15_13h27.51.719,vts_reward_expectancy_bt,2022.2.4,MacIntel,60.0024001,Chrome,1185,747,,,l,1.3669,1,137,0,1,7,19,5,1,0,1,0,0,0,0,0,1,circle,star,,,,,,,,,,,,,,,,,,,,,,,,,,,,,,,,,,,,,,,,,,,,,,,,,,,,,,
292768,2022-11-15_13h27.51.719,vts_reward_expectancy_bt,2022.2.4,MacIntel,60.0024001,Chrome,1185,747,,,l,0.9931,1,138,0,1,8,20,2,1,1,0,0,0,0,0,0,1,triangle,star,,,,,,,,,,,,,,,,,,,,,,,,,,,,,,,,,,,,,,,,,,,,,,,,,,,,,,
292768,2022-11-15_13h27.51.719,vts_reward_expectancy_bt,2022.2.4,MacIntel,60.0024001,Chrome,1185,747,,,l,0.9669,10,148,0,1,9,21,10,1,0,0,0,1,0,1,0,0,star ,circle,,,,,,,,,,,,,,,,,,,,,,,,,,,,,,,,,,,,,,,,,,,,,,,,,,,,,,
292768,2022-11-15_13h27.51.719,vts_reward_expectancy_bt,2022.2.4,MacIntel,60.0024001,Chrome,1185,747,,,l,0.7833,10,158,0,1,10,22,6,1,0,0,1,0,1,0,0,0,hexagon,triangle,,,,,,,,,,,,,,,,,,,,,,,,,,,,,,,,,,,,,,,,,,,,,,,,,,,,,,
292768,2022-11-15_13h27.51.719,vts_reward_expectancy_bt,2022.2.4,MacIntel,60.0024001,Chrome,1185,747,,,a,1.5844,1,159,0,1,11,23,0,1,1,0,0,0,0,1,0,0,triangle,circle,,,,,,,,,,,,,,,,,,,,,,,,,,,,,,,,,,,,,,,,,,,,,,,,,,,,,,
292768,2022-11-15_13h27.51.719,vts_reward_expectancy_bt,2022.2.4,MacIntel,60.0024001,Chrome,1185,747,,,l,0.9822,1,160,0,2,0,24,4,1,0,1,0,0,0,0,1,0,circle,hexagon,,,,,,,,,,,,,,,,,,,,,,,,,,,,,,,,,,,,,,,,,,,,,,,,,,,,,,
292768,2022-11-15_13h27.51.719,vts_reward_expectancy_bt,2022.2.4,MacIntel,60.0024001,Chrome,1185,747,,,a,1.0792,10,170,0,2,1,25,1,1,1,0,0,0,0,0,1,0,triangle,hexagon,,,,,,,,,,,,,,,,,,,,,,,,,,,,,,,,,,,,,,,,,,,,,,,,,,,,,,
292768,2022-11-15_13h27.51.719,vts_reward_expectancy_bt,2022.2.4,MacIntel,60.0024001,Chrome,1185,747,,,a,0.5848,10,180,0,2,2,26,2,1,1,0,0,0,0,0,0,1,triangle,star,,,,,,,,,,,,,,,,,,,,,,,,,,,,,,,,,,,,,,,,,,,,,,,,,,,,,,
292768,2022-11-15_13h27.51.719,vts_reward_expectancy_bt,2022.2.4,MacIntel,60.0024001,Chrome,1185,747,,,l,0.5662,10,190,0,2,3,27,10,1,0,0,0,1,0,1,0,0,star ,circle,,,,,,,,,,,,,,,,,,,,,,,,,,,,,,,,,,,,,,,,,,,,,,,,,,,,,,
292768,2022-11-15_13h27.51.719,vts_reward_expectancy_bt,2022.2.4,MacIntel,60.0024001,Chrome,1185,747,,,a,0.5097,1,191,0,2,4,28,5,1,0,1,0,0,0,0,0,1,circle,star,,,,,,,,,,,,,,,,,,,,,,,,,,,,,,,,,,,,,,,,,,,,,,,,,,,,,,
292768,2022-11-15_13h27.51.719,vts_reward_expectancy_bt,2022.2.4,MacIntel,60.0024001,Chrome,1185,747,,,a,0.6528,10,201,0,2,5,29,0,1,1,0,0,0,0,1,0,0,triangle,circle,,,,,,,,,,,,,,,,,,,,,,,,,,,,,,,,,,,,,,,,,,,,,,,,,,,,,,
292768,2022-11-15_13h27.51.719,vts_reward_expectancy_bt,2022.2.4,MacIntel,60.0024001,Chrome,1185,747,,,a,0.4438,10,211,0,2,6,30,9,1,0,0,0,1,1,0,0,0,star,triangle,,,,,,,,,,,,,,,,,,,,,,,,,,,,,,,,,,,,,,,,,,,,,,,,,,,,,,
292768,2022-11-15_13h27.51.719,vts_reward_expectancy_bt,2022.2.4,MacIntel,60.0024001,Chrome,1185,747,,,l,0.5927,1,212,0,2,7,31,8,1,0,0,1,0,0,0,0,1,hexagon,star,,,,,,,,,,,,,,,,,,,,,,,,,,,,,,,,,,,,,,,,,,,,,,,,,,,,,,
292768,2022-11-15_13h27.51.719,vts_reward_expectancy_bt,2022.2.4,MacIntel,60.0024001,Chrome,1185,747,,,a,0.6423,1,213,0,2,8,32,6,1,0,0,1,0,1,0,0,0,hexagon,triangle,,,,,,,,,,,,,,,,,,,,,,,,,,,,,,,,,,,,,,,,,,,,,,,,,,,,,,
292768,2022-11-15_13h27.51.719,vts_reward_expectancy_bt,2022.2.4,MacIntel,60.0024001,Chrome,1185,747,,,a,0.8176,1,214,0,2,9,33,3,1,0,1,0,0,1,0,0,0,circle,triangle,,,,,,,,,,,,,,,,,,,,,,,,,,,,,,,,,,,,,,,,,,,,,,,,,,,,,,
292768,2022-11-15_13h27.51.719,vts_reward_expectancy_bt,2022.2.4,MacIntel,60.0024001,Chrome,1185,747,,,l,1.0323,10,224,0,2,10,34,7,1,0,0,1,0,0,1,0,0,hexagon,circle,,,,,,,,,,,,,,,,,,,,,,,,,,,,,,,,,,,,,,,,,,,,,,,,,,,,,,
292768,2022-11-15_13h27.51.719,vts_reward_expectancy_bt,2022.2.4,MacIntel,60.0024001,Chrome,1185,747,,,l,0.6602,1,225,0,2,11,35,11,1,0,0,0,1,0,0,1,0,star,hexagon,,,,,,,,,,,,,,,,,,,,,,,,,,,,,,,,,,,,,,,,,,,,,,,,,,,,,,
292768,2022-11-15_13h27.51.719,vts_reward_expectancy_bt,2022.2.4,MacIntel,60.0024001,Chrome,1185,747,,,a,0.9819,1,226,1,0,0,0,7,1,0,0,1,0,0,1,0,0,hexagon,circle,,,,,,,,,,,,,,,,,,,,,,,,,,,,,,,,,,,,,,,,,,,,,,,,,,,,,,
292768,2022-11-15_13h27.51.719,vts_reward_expectancy_bt,2022.2.4,MacIntel,60.0024001,Chrome,1185,747,,,a,0.9478,10,236,1,0,1,1,6,1,0,0,1,0,1,0,0,0,hexagon,triangle,,,,,,,,,,,,,,,,,,,,,,,,,,,,,,,,,,,,,,,,,,,,,,,,,,,,,,
292768,2022-11-15_13h27.51.719,vts_reward_expectancy_bt,2022.2.4,MacIntel,60.0024001,Chrome,1185,747,,,l,0.5594,10,246,1,0,2,2,2,1,1,0,0,0,0,0,0,1,triangle,star,,,,,,,,,,,,,,,,,,,,,,,,,,,,,,,,,,,,,,,,,,,,,,,,,,,,,,
292768,2022-11-15_13h27.51.719,vts_reward_expectancy_bt,2022.2.4,MacIntel,60.0024001,Chrome,1185,747,,,a,0.7511,10,256,1,0,3,3,11,1,0,0,0,1,0,0,1,0,star,hexagon,,,,,,,,,,,,,,,,,,,,,,,,,,,,,,,,,,,,,,,,,,,,,,,,,,,,,,
292768,2022-11-15_13h27.51.719,vts_reward_expectancy_bt,2022.2.4,MacIntel,60.0024001,Chrome,1185,747,,,l,0.9813,10,266,1,0,4,4,0,1,1,0,0,0,0,1,0,0,triangle,circle,,,,,,,,,,,,,,,,,,,,,,,,,,,,,,,,,,,,,,,,,,,,,,,,,,,,,,
292768,2022-11-15_13h27.51.719,vts_reward_expectancy_bt,2022.2.4,MacIntel,60.0024001,Chrome,1185,747,,,l,0.5447,1,267,1,0,5,5,9,1,0,0,0,1,1,0,0,0,star,triangle,,,,,,,,,,,,,,,,,,,,,,,,,,,,,,,,,,,,,,,,,,,,,,,,,,,,,,
292768,2022-11-15_13h27.51.719,vts_reward_expectancy_bt,2022.2.4,MacIntel,60.0024001,Chrome,1185,747,,,l,1.8589,1,268,1,0,6,6,1,1,1,0,0,0,0,0,1,0,triangle,hexagon,,,,,,,,,,,,,,,,,,,,,,,,,,,,,,,,,,,,,,,,,,,,,,,,,,,,,,
292768,2022-11-15_13h27.51.719,vts_reward_expectancy_bt,2022.2.4,MacIntel,60.0024001,Chrome,1185,747,,,a,1.1518,10,278,1,0,7,7,4,1,0,1,0,0,0,0,1,0,circle,hexagon,,,,,,,,,,,,,,,,,,,,,,,,,,,,,,,,,,,,,,,,,,,,,,,,,,,,,,
292768,2022-11-15_13h27.51.719,vts_reward_expectancy_bt,2022.2.4,MacIntel,60.0024001,Chrome,1185,747,,,l,0.8484,10,288,1,0,8,8,10,1,0,0,0,1,0,1,0,0,star ,circle,,,,,,,,,,,,,,,,,,,,,,,,,,,,,,,,,,,,,,,,,,,,,,,,,,,,,,
292768,2022-11-15_13h27.51.719,vts_reward_expectancy_bt,2022.2.4,MacIntel,60.0024001,Chrome,1185,747,,,l,2.1034,10,298,1,0,9,9,8,1,0,0,1,0,0,0,0,1,hexagon,star,,,,,,,,,,,,,,,,,,,,,,,,,,,,,,,,,,,,,,,,,,,,,,,,,,,,,,
292768,2022-11-15_13h27.51.719,vts_reward_expectancy_bt,2022.2.4,MacIntel,60.0024001,Chrome,1185,747,,,l,0.9343,10,308,1,0,10,10,5,1,0,1,0,0,0,0,0,1,circle,star,,,,,,,,,,,,,,,,,,,,,,,,,,,,,,,,,,,,,,,,,,,,,,,,,,,,,,
292768,2022-11-15_13h27.51.719,vts_reward_expectancy_bt,2022.2.4,MacIntel,60.0024001,Chrome,1185,747,,,a,0.5829,10,318,1,0,11,11,3,1,0,1,0,0,1,0,0,0,circle,triangle,,,,,,,,,,,,,,,,,,,,,,,,,,,,,,,,,,,,,,,,,,,,,,,,,,,,,,
292768,2022-11-15_13h27.51.719,vts_reward_expectancy_bt,2022.2.4,MacIntel,60.0024001,Chrome,1185,747,,,a,0.5986,10,328,1,1,0,12,2,1,1,0,0,0,0,0,0,1,triangle,star,,,,,,,,,,,,,,,,,,,,,,,,,,,,,,,,,,,,,,,,,,,,,,,,,,,,,,
292768,2022-11-15_13h27.51.719,vts_reward_expectancy_bt,2022.2.4,MacIntel,60.0024001,Chrome,1185,747,,,l,0.5049,1,329,1,1,1,13,3,1,0,1,0,0,1,0,0,0,circle,triangle,,,,,,,,,,,,,,,,,,,,,,,,,,,,,,,,,,,,,,,,,,,,,,,,,,,,,,
292768,2022-11-15_13h27.51.719,vts_reward_expectancy_bt,2022.2.4,MacIntel,60.0024001,Chrome,1185,747,,,l,0.9098,1,330,1,1,2,14,1,1,1,0,0,0,0,0,1,0,triangle,hexagon,,,,,,,,,,,,,,,,,,,,,,,,,,,,,,,,,,,,,,,,,,,,,,,,,,,,,,
292768,2022-11-15_13h27.51.719,vts_reward_expectancy_bt,2022.2.4,MacIntel,60.0024001,Chrome,1185,747,,,l,0.7858,1,331,1,1,3,15,10,1,0,0,0,1,0,1,0,0,star ,circle,,,,,,,,,,,,,,,,,,,,,,,,,,,,,,,,,,,,,,,,,,,,,,,,,,,,,,
292768,2022-11-15_13h27.51.719,vts_reward_expectancy_bt,2022.2.4,MacIntel,60.0024001,Chrome,1185,747,,,a,0.9261,1,332,1,1,4,16,6,1,0,0,1,0,1,0,0,0,hexagon,triangle,,,,,,,,,,,,,,,,,,,,,,,,,,,,,,,,,,,,,,,,,,,,,,,,,,,,,,
292768,2022-11-15_13h27.51.719,vts_reward_expectancy_bt,2022.2.4,MacIntel,60.0024001,Chrome,1185,747,,,l,0.4953,10,342,1,1,5,17,9,1,0,0,0,1,1,0,0,0,star,triangle,,,,,,,,,,,,,,,,,,,,,,,,,,,,,,,,,,,,,,,,,,,,,,,,,,,,,,
292768,2022-11-15_13h27.51.719,vts_reward_expectancy_bt,2022.2.4,MacIntel,60.0024001,Chrome,1185,747,,,a,0.6822,1,343,1,1,6,18,4,1,0,1,0,0,0,0,1,0,circle,hexagon,,,,,,,,,,,,,,,,,,,,,,,,,,,,,,,,,,,,,,,,,,,,,,,,,,,,,,
292768,2022-11-15_13h27.51.719,vts_reward_expectancy_bt,2022.2.4,MacIntel,60.0024001,Chrome,1185,747,,,a,1.1837,1,344,1,1,7,19,8,1,0,0,1,0,0,0,0,1,hexagon,star,,,,,,,,,,,,,,,,,,,,,,,,,,,,,,,,,,,,,,,,,,,,,,,,,,,,,,
292768,2022-11-15_13h27.51.719,vts_reward_expectancy_bt,2022.2.4,MacIntel,60.0024001,Chrome,1185,747,,,l,3.3842,10,354,1,1,8,20,0,1,1,0,0,0,0,1,0,0,triangle,circle,,,,,,,,,,,,,,,,,,,,,,,,,,,,,,,,,,,,,,,,,,,,,,,,,,,,,,
292768,2022-11-15_13h27.51.719,vts_reward_expectancy_bt,2022.2.4,MacIntel,60.0024001,Chrome,1185,747,,,l,1.102,1,355,1,1,9,21,11,1,0,0,0,1,0,0,1,0,star,hexagon,,,,,,,,,,,,,,,,,,,,,,,,,,,,,,,,,,,,,,,,,,,,,,,,,,,,,,
292768,2022-11-15_13h27.51.719,vts_reward_expectancy_bt,2022.2.4,MacIntel,60.0024001,Chrome,1185,747,,,a,0.7673,10,365,1,1,10,22,5,1,0,1,0,0,0,0,0,1,circle,star,,,,,,,,,,,,,,,,,,,,,,,,,,,,,,,,,,,,,,,,,,,,,,,,,,,,,,
292768,2022-11-15_13h27.51.719,vts_reward_expectancy_bt,2022.2.4,MacIntel,60.0024001,Chrome,1185,747,,,l,1.019,10,375,1,1,11,23,7,1,0,0,1,0,0,1,0,0,hexagon,circle,,,,,,,,,,,,,,,,,,,,,,,,,,,,,,,,,,,,,,,,,,,,,,,,,,,,,,
292768,2022-11-15_13h27.51.719,vts_reward_expectancy_bt,2022.2.4,MacIntel,60.0024001,Chrome,1185,747,,,l,2.1637,1,376,1,2,0,24,8,1,0,0,1,0,0,0,0,1,hexagon,star,,,,,,,,,,,,,,,,,,,,,,,,,,,,,,,,,,,,,,,,,,,,,,,,,,,,,,
292768,2022-11-15_13h27.51.719,vts_reward_expectancy_bt,2022.2.4,MacIntel,60.0024001,Chrome,1185,747,,,a,3.0683,10,386,1,2,1,25,4,1,0,1,0,0,0,0,1,0,circle,hexagon,,,,,,,,,,,,,,,,,,,,,,,,,,,,,,,,,,,,,,,,,,,,,,,,,,,,,,
292768,2022-11-15_13h27.51.719,vts_reward_expectancy_bt,2022.2.4,MacIntel,60.0024001,Chrome,1185,747,,,a,2.2663,10,396,1,2,2,26,3,1,0,1,0,0,1,0,0,0,circle,triangle,,,,,,,,,,,,,,,,,,,,,,,,,,,,,,,,,,,,,,,,,,,,,,,,,,,,,,
292768,2022-11-15_13h27.51.719,vts_reward_expectancy_bt,2022.2.4,MacIntel,60.0024001,Chrome,1185,747,,,l,2.2669,1,397,1,2,3,27,7,1,0,0,1,0,0,1,0,0,hexagon,circle,,,,,,,,,,,,,,,,,,,,,,,,,,,,,,,,,,,,,,,,,,,,,,,,,,,,,,
292768,2022-11-15_13h27.51.719,vts_reward_expectancy_bt,2022.2.4,MacIntel,60.0024001,Chrome,1185,747,,,a,3.367,1,398,1,2,4,28,9,1,0,0,0,1,1,0,0,0,star,triangle,,,,,,,,,,,,,,,,,,,,,,,,,,,,,,,,,,,,,,,,,,,,,,,,,,,,,,
292768,2022-11-15_13h27.51.719,vts_reward_expectancy_bt,2022.2.4,MacIntel,60.0024001,Chrome,1185,747,,,a,1.0695,10,408,1,2,5,29,11,1,0,0,0,1,0,0,1,0,star,hexagon,,,,,,,,,,,,,,,,,,,,,,,,,,,,,,,,,,,,,,,,,,,,,,,,,,,,,,
292768,2022-11-15_13h27.51.719,vts_reward_expectancy_bt,2022.2.4,MacIntel,60.0024001,Chrome,1185,747,,,l,1.4123,1,409,1,2,6,30,1,1,1,0,0,0,0,0,1,0,triangle,hexagon,,,,,,,,,,,,,,,,,,,,,,,,,,,,,,,,,,,,,,,,,,,,,,,,,,,,,,
292768,2022-11-15_13h27.51.719,vts_reward_expectancy_bt,2022.2.4,MacIntel,60.0024001,Chrome,1185,747,,,a,0.6018,1,410,1,2,7,31,10,1,0,0,0,1,0,1,0,0,star ,circle,,,,,,,,,,,,,,,,,,,,,,,,,,,,,,,,,,,,,,,,,,,,,,,,,,,,,,
292768,2022-11-15_13h27.51.719,vts_reward_expectancy_bt,2022.2.4,MacIntel,60.0024001,Chrome,1185,747,,,l,0.6576,10,420,1,2,8,32,5,1,0,1,0,0,0,0,0,1,circle,star,,,,,,,,,,,,,,,,,,,,,,,,,,,,,,,,,,,,,,,,,,,,,,,,,,,,,,
292768,2022-11-15_13h27.51.719,vts_reward_expectancy_bt,2022.2.4,MacIntel,60.0024001,Chrome,1185,747,,,l,0.5845,10,430,1,2,9,33,2,1,1,0,0,0,0,0,0,1,triangle,star,,,,,,,,,,,,,,,,,,,,,,,,,,,,,,,,,,,,,,,,,,,,,,,,,,,,,,
292768,2022-11-15_13h27.51.719,vts_reward_expectancy_bt,2022.2.4,MacIntel,60.0024001,Chrome,1185,747,,,a,0.784,10,440,1,2,10,34,6,1,0,0,1,0,1,0,0,0,hexagon,triangle,,,,,,,,,,,,,,,,,,,,,,,,,,,,,,,,,,,,,,,,,,,,,,,,,,,,,,
292768,2022-11-15_13h27.51.719,vts_reward_expectancy_bt,2022.2.4,MacIntel,60.0024001,Chrome,1185,747,,,l,1.4571,10,450,1,2,11,35,0,1,1,0,0,0,0,1,0,0,triangle,circle,,,,,,,,,,,,,,,,,,,,,,,,,,,,,,,,,,,,,,,,,,,,,,,,,,,,,,
292768,2022-11-15_13h27.51.719,vts_reward_expectancy_bt,2022.2.4,MacIntel,60.0024001,Chrome,1185,747,,,l,2.1325,10,460,2,0,0,0,3,1,0,1,0,0,1,0,0,0,circle,triangle,,,,,,,,,,,,,,,,,,,,,,,,,,,,,,,,,,,,,,,,,,,,,,,,,,,,,,
292768,2022-11-15_13h27.51.719,vts_reward_expectancy_bt,2022.2.4,MacIntel,60.0024001,Chrome,1185,747,,,l,0.6123,1,461,2,0,1,1,6,1,0,0,1,0,1,0,0,0,hexagon,triangle,,,,,,,,,,,,,,,,,,,,,,,,,,,,,,,,,,,,,,,,,,,,,,,,,,,,,,
292768,2022-11-15_13h27.51.719,vts_reward_expectancy_bt,2022.2.4,MacIntel,60.0024001,Chrome,1185,747,,,l,0.5258,1,462,2,0,2,2,2,1,1,0,0,0,0,0,0,1,triangle,star,,,,,,,,,,,,,,,,,,,,,,,,,,,,,,,,,,,,,,,,,,,,,,,,,,,,,,
292768,2022-11-15_13h27.51.719,vts_reward_expectancy_bt,2022.2.4,MacIntel,60.0024001,Chrome,1185,747,,,l,1.3948,1,463,2,0,3,3,10,1,0,0,0,1,0,1,0,0,star ,circle,,,,,,,,,,,,,,,,,,,,,,,,,,,,,,,,,,,,,,,,,,,,,,,,,,,,,,
292768,2022-11-15_13h27.51.719,vts_reward_expectancy_bt,2022.2.4,MacIntel,60.0024001,Chrome,1185,747,,,l,0.8271,1,464,2,0,4,4,5,1,0,1,0,0,0,0,0,1,circle,star,,,,,,,,,,,,,,,,,,,,,,,,,,,,,,,,,,,,,,,,,,,,,,,,,,,,,,
292768,2022-11-15_13h27.51.719,vts_reward_expectancy_bt,2022.2.4,MacIntel,60.0024001,Chrome,1185,747,,,a,0.6097,10,474,2,0,5,5,9,1,0,0,0,1,1,0,0,0,star,triangle,,,,,,,,,,,,,,,,,,,,,,,,,,,,,,,,,,,,,,,,,,,,,,,,,,,,,,
292768,2022-11-15_13h27.51.719,vts_reward_expectancy_bt,2022.2.4,MacIntel,60.0024001,Chrome,1185,747,,,l,1.1014,10,484,2,0,6,6,0,1,1,0,0,0,0,1,0,0,triangle,circle,,,,,,,,,,,,,,,,,,,,,,,,,,,,,,,,,,,,,,,,,,,,,,,,,,,,,,
292768,2022-11-15_13h27.51.719,vts_reward_expectancy_bt,2022.2.4,MacIntel,60.0024001,Chrome,1185,747,,,a,1.7426,1,485,2,0,7,7,8,1,0,0,1,0,0,0,0,1,hexagon,star,,,,,,,,,,,,,,,,,,,,,,,,,,,,,,,,,,,,,,,,,,,,,,,,,,,,,,
292768,2022-11-15_13h27.51.719,vts_reward_expectancy_bt,2022.2.4,MacIntel,60.0024001,Chrome,1185,747,,,l,0.8752,10,495,2,0,8,8,1,1,1,0,0,0,0,0,1,0,triangle,hexagon,,,,,,,,,,,,,,,,,,,,,,,,,,,,,,,,,,,,,,,,,,,,,,,,,,,,,,
292768,2022-11-15_13h27.51.719,vts_reward_expectancy_bt,2022.2.4,MacIntel,60.0024001,Chrome,1185,747,,,a,1.2483,1,496,2,0,9,9,4,1,0,1,0,0,0,0,1,0,circle,hexagon,,,,,,,,,,,,,,,,,,,,,,,,,,,,,,,,,,,,,,,,,,,,,,,,,,,,,,
292768,2022-11-15_13h27.51.719,vts_reward_expectancy_bt,2022.2.4,MacIntel,60.0024001,Chrome,1185,747,,,a,1.1609,10,506,2,0,10,10,11,1,0,0,0,1,0,0,1,0,star,hexagon,,,,,,,,,,,,,,,,,,,,,,,,,,,,,,,,,,,,,,,,,,,,,,,,,,,,,,
292768,2022-11-15_13h27.51.719,vts_reward_expectancy_bt,2022.2.4,MacIntel,60.0024001,Chrome,1185,747,,,a,2.3683,1,507,2,0,11,11,7,1,0,0,1,0,0,1,0,0,hexagon,circle,,,,,,,,,,,,,,,,,,,,,,,,,,,,,,,,,,,,,,,,,,,,,,,,,,,,,,
292768,2022-11-15_13h27.51.719,vts_reward_expectancy_bt,2022.2.4,MacIntel,60.0024001,Chrome,1185,747,,,l,1.0001,1,508,2,1,0,12,4,1,0,1,0,0,0,0,1,0,circle,hexagon,,,,,,,,,,,,,,,,,,,,,,,,,,,,,,,,,,,,,,,,,,,,,,,,,,,,,,
292768,2022-11-15_13h27.51.719,vts_reward_expectancy_bt,2022.2.4,MacIntel,60.0024001,Chrome,1185,747,,,l,3.4653,10,518,2,1,1,13,5,1,0,1,0,0,0,0,0,1,circle,star,,,,,,,,,,,,,,,,,,,,,,,,,,,,,,,,,,,,,,,,,,,,,,,,,,,,,,
292768,2022-11-15_13h27.51.719,vts_reward_expectancy_bt,2022.2.4,MacIntel,60.0024001,Chrome,1185,747,,,a,0.8675,10,528,2,1,2,14,10,1,0,0,0,1,0,1,0,0,star ,circle,,,,,,,,,,,,,,,,,,,,,,,,,,,,,,,,,,,,,,,,,,,,,,,,,,,,,,
292768,2022-11-15_13h27.51.719,vts_reward_expectancy_bt,2022.2.4,MacIntel,60.0024001,Chrome,1185,747,,,l,1.277,1,529,2,1,3,15,9,1,0,0,0,1,1,0,0,0,star,triangle,,,,,,,,,,,,,,,,,,,,,,,,,,,,,,,,,,,,,,,,,,,,,,,,,,,,,,
292768,2022-11-15_13h27.51.719,vts_reward_expectancy_bt,2022.2.4,MacIntel,60.0024001,Chrome,1185,747,,,l,2.8264,10,539,2,1,4,16,2,1,1,0,0,0,0,0,0,1,triangle,star,,,,,,,,,,,,,,,,,,,,,,,,,,,,,,,,,,,,,,,,,,,,,,,,,,,,,,
292768,2022-11-15_13h27.51.719,vts_reward_expectancy_bt,2022.2.4,MacIntel,60.0024001,Chrome,1185,747,,,l,1.094,1,540,2,1,5,17,7,1,0,0,1,0,0,1,0,0,hexagon,circle,,,,,,,,,,,,,,,,,,,,,,,,,,,,,,,,,,,,,,,,,,,,,,,,,,,,,,
292768,2022-11-15_13h27.51.719,vts_reward_expectancy_bt,2022.2.4,MacIntel,60.0024001,Chrome,1185,747,,,a,2.1991,10,550,2,1,6,18,3,1,0,1,0,0,1,0,0,0,circle,triangle,,,,,,,,,,,,,,,,,,,,,,,,,,,,,,,,,,,,,,,,,,,,,,,,,,,,,,
292768,2022-11-15_13h27.51.719,vts_reward_expectancy_bt,2022.2.4,MacIntel,60.0024001,Chrome,1185,747,,,a,1.0116,10,560,2,1,7,19,11,1,0,0,0,1,0,0,1,0,star,hexagon,,,,,,,,,,,,,,,,,,,,,,,,,,,,,,,,,,,,,,,,,,,,,,,,,,,,,,
292768,2022-11-15_13h27.51.719,vts_reward_expectancy_bt,2022.2.4,MacIntel,60.0024001,Chrome,1185,747,,,l,1.519,1,561,2,1,8,20,1,1,1,0,0,0,0,0,1,0,triangle,hexagon,,,,,,,,,,,,,,,,,,,,,,,,,,,,,,,,,,,,,,,,,,,,,,,,,,,,,,
292768,2022-11-15_13h27.51.719,vts_reward_expectancy_bt,2022.2.4,MacIntel,60.0024001,Chrome,1185,747,,,l,0.9847,1,562,2,1,9,21,6,1,0,0,1,0,1,0,0,0,hexagon,triangle,,,,,,,,,,,,,,,,,,,,,,,,,,,,,,,,,,,,,,,,,,,,,,,,,,,,,,
292768,2022-11-15_13h27.51.719,vts_reward_expectancy_bt,2022.2.4,MacIntel,60.0024001,Chrome,1185,747,,,l,1.2932,10,572,2,1,10,22,8,1,0,0,1,0,0,0,0,1,hexagon,star,,,,,,,,,,,,,,,,,,,,,,,,,,,,,,,,,,,,,,,,,,,,,,,,,,,,,,
292768,2022-11-15_13h27.51.719,vts_reward_expectancy_bt,2022.2.4,MacIntel,60.0024001,Chrome,1185,747,,,a,0.3997,1,573,2,1,11,23,0,1,1,0,0,0,0,1,0,0,triangle,circle,,,,,,,,,,,,,,,,,,,,,,,,,,,,,,,,,,,,,,,,,,,,,,,,,,,,,,
292768,2022-11-15_13h27.51.719,vts_reward_expectancy_bt,2022.2.4,MacIntel,60.0024001,Chrome,1185,747,,,l,1.165,1,574,2,2,0,24,0,1,1,0,0,0,0,1,0,0,triangle,circle,,,,,,,,,,,,,,,,,,,,,,,,,,,,,,,,,,,,,,,,,,,,,,,,,,,,,,
292768,2022-11-15_13h27.51.719,vts_reward_expectancy_bt,2022.2.4,MacIntel,60.0024001,Chrome,1185,747,,,a,1.7019,10,584,2,2,1,25,3,1,0,1,0,0,1,0,0,0,circle,triangle,,,,,,,,,,,,,,,,,,,,,,,,,,,,,,,,,,,,,,,,,,,,,,,,,,,,,,
292768,2022-11-15_13h27.51.719,vts_reward_expectancy_bt,2022.2.4,MacIntel,60.0024001,Chrome,1185,747,,,l,1.2839,10,594,2,2,2,26,9,1,0,0,0,1,1,0,0,0,star,triangle,,,,,,,,,,,,,,,,,,,,,,,,,,,,,,,,,,,,,,,,,,,,,,,,,,,,,,
292768,2022-11-15_13h27.51.719,vts_reward_expectancy_bt,2022.2.4,MacIntel,60.0024001,Chrome,1185,747,,,a,2.6687,10,604,2,2,3,27,7,1,0,0,1,0,0,1,0,0,hexagon,circle,,,,,,,,,,,,,,,,,,,,,,,,,,,,,,,,,,,,,,,,,,,,,,,,,,,,,,
292768,2022-11-15_13h27.51.719,vts_reward_expectancy_bt,2022.2.4,MacIntel,60.0024001,Chrome,1185,747,,,l,1.8133,1,605,2,2,4,28,8,1,0,0,1,0,0,0,0,1,hexagon,star,,,,,,,,,,,,,,,,,,,,,,,,,,,,,,,,,,,,,,,,,,,,,,,,,,,,,,
292768,2022-11-15_13h27.51.719,vts_reward_expectancy_bt,2022.2.4,MacIntel,60.0024001,Chrome,1185,747,,,l,1.6241,10,615,2,2,5,29,6,1,0,0,1,0,1,0,0,0,hexagon,triangle,,,,,,,,,,,,,,,,,,,,,,,,,,,,,,,,,,,,,,,,,,,,,,,,,,,,,,
292768,2022-11-15_13h27.51.719,vts_reward_expectancy_bt,2022.2.4,MacIntel,60.0024001,Chrome,1185,747,,,l,0.8348,10,625,2,2,6,30,5,1,0,1,0,0,0,0,0,1,circle,star,,,,,,,,,,,,,,,,,,,,,,,,,,,,,,,,,,,,,,,,,,,,,,,,,,,,,,
292768,2022-11-15_13h27.51.719,vts_reward_expectancy_bt,2022.2.4,MacIntel,60.0024001,Chrome,1185,747,,,a,1.0335,1,626,2,2,7,31,2,1,1,0,0,0,0,0,0,1,triangle,star,,,,,,,,,,,,,,,,,,,,,,,,,,,,,,,,,,,,,,,,,,,,,,,,,,,,,,
292768,2022-11-15_13h27.51.719,vts_reward_expectancy_bt,2022.2.4,MacIntel,60.0024001,Chrome,1185,747,,,a,1.8012,1,627,2,2,8,32,4,1,0,1,0,0,0,0,1,0,circle,hexagon,,,,,,,,,,,,,,,,,,,,,,,,,,,,,,,,,,,,,,,,,,,,,,,,,,,,,,
292768,2022-11-15_13h27.51.719,vts_reward_expectancy_bt,2022.2.4,MacIntel,60.0024001,Chrome,1185,747,,,l,1.7608,10,637,2,2,9,33,1,1,1,0,0,0,0,0,1,0,triangle,hexagon,,,,,,,,,,,,,,,,,,,,,,,,,,,,,,,,,,,,,,,,,,,,,,,,,,,,,,
292768,2022-11-15_13h27.51.719,vts_reward_expectancy_bt,2022.2.4,MacIntel,60.0024001,Chrome,1185,747,,,l,1.9448,10,647,2,2,10,34,11,1,0,0,0,1,0,0,1,0,star,hexagon,,,,,,,,,,,,,,,,,,,,,,,,,,,,,,,,,,,,,,,,,,,,,,,,,,,,,,
292768,2022-11-15_13h27.51.719,vts_reward_expectancy_bt,2022.2.4,MacIntel,60.0024001,Chrome,1185,747,,,a,8.7909,10,657,2,2,11,35,10,1,0,0,0,1,0,1,0,0,star ,circle,,,,,,,,,,,,,,,,,,,,,,,,,,,,,,,,,,,,,,,,,,,,,,,,,,,,,,
292768,2022-11-15_13h27.51.719,vts_reward_expectancy_bt,2022.2.4,MacIntel,60.0024001,Chrome,1185,747,,,,,,,,,,,,,,,,,,,,,,,B,174,hexagon,1,0,d,2.2456,0,0,0,0,0,1,,,,,,,,,,,,,,,,,,,,,,,,,,,,,,,,,,,,,,,,,
292768,2022-11-15_13h27.51.719,vts_reward_expectancy_bt,2022.2.4,MacIntel,60.0024001,Chrome,1185,747,,,,,,,,,,,,,,,,,,,,,,,H,125,circle,1,0,d,0.9261,0,1,0,1,0,1,,,,,,,,,,,,,,,,,,,,,,,,,,,,,,,,,,,,,,,,,
292768,2022-11-15_13h27.51.719,vts_reward_expectancy_bt,2022.2.4,MacIntel,60.0024001,Chrome,1185,747,,,,,,,,,,,,,,,,,,,,,,,F,146,star,1,0,d,1.3256,0,2,0,2,0,1,,,,,,,,,,,,,,,,,,,,,,,,,,,,,,,,,,,,,,,,,
292768,2022-11-15_13h27.51.719,vts_reward_expectancy_bt,2022.2.4,MacIntel,60.0024001,Chrome,1185,747,,,,,,,,,,,,,,,,,,,,,,,Y,160,triangle,1,0,f,0.8378,0,3,0,3,0,1,,,,,,,,,,,,,,,,,,,,,,,,,,,,,,,,,,,,,,,,,
292768,2022-11-15_13h27.51.719,vts_reward_expectancy_bt,2022.2.4,MacIntel,60.0024001,Chrome,1185,747,,,,,,,,,,,,,,,,,,,,,,,W,139,hexagon,1,0,f,0.5888,0,4,0,4,0,1,,,,,,,,,,,,,,,,,,,,,,,,,,,,,,,,,,,,,,,,,
292768,2022-11-15_13h27.51.719,vts_reward_expectancy_bt,2022.2.4,MacIntel,60.0024001,Chrome,1185,747,,,,,,,,,,,,,,,,,,,,,,,U,181,circle,1,0,f,0.6912,0,5,0,5,0,1,,,,,,,,,,,,,,,,,,,,,,,,,,,,,,,,,,,,,,,,,
292768,2022-11-15_13h27.51.719,vts_reward_expectancy_bt,2022.2.4,MacIntel,60.0024001,Chrome,1185,747,,,,,,,,,,,,,,,,,,,,,,,S,167,star,1,0,f,0.7571,0,6,0,6,0,1,,,,,,,,,,,,,,,,,,,,,,,,,,,,,,,,,,,,,,,,,
292768,2022-11-15_13h27.51.719,vts_reward_expectancy_bt,2022.2.4,MacIntel,60.0024001,Chrome,1185,747,,,,,,,,,,,,,,,,,,,,,,,D,132,triangle,1,0,d,0.6573,0,7,0,7,0,1,,,,,,,,,,,,,,,,,,,,,,,,,,,,,,,,,,,,,,,,,
292768,2022-11-15_13h27.51.719,vts_reward_expectancy_bt,2022.2.4,MacIntel,60.0024001,Chrome,1185,747,,,,,,,,,,,,,,,,,,,,,,,B,174,star,1,0,d,0.7224,0,8,0,8,0,1,,,,,,,,,,,,,,,,,,,,,,,,,,,,,,,,,,,,,,,,,
292768,2022-11-15_13h27.51.719,vts_reward_expectancy_bt,2022.2.4,MacIntel,60.0024001,Chrome,1185,747,,,,,,,,,,,,,,,,,,,,,,,H,125,circle,1,0,d,1.0393,0,9,0,9,0,1,,,,,,,,,,,,,,,,,,,,,,,,,,,,,,,,,,,,,,,,,
292768,2022-11-15_13h27.51.719,vts_reward_expectancy_bt,2022.2.4,MacIntel,60.0024001,Chrome,1185,747,,,,,,,,,,,,,,,,,,,,,,,W,174,star,1,0,,,1,,,,,,k,1.7826,0,0,0,0,1,,,,,,,,,,,,,,,,,,,,,,,,,,,,,,,,,,
292768,2022-11-15_13h27.51.719,vts_reward_expectancy_bt,2022.2.4,MacIntel,60.0024001,Chrome,1185,747,,,,,,,,,,,,,,,,,,,,,,,F,132,hexagon,1,0,,,1,,,,,,j,0.7404,1,0,1,0,1,,,,,,,,,,,,,,,,,,,,,,,,,,,,,,,,,,
292768,2022-11-15_13h27.51.719,vts_reward_expectancy_bt,2022.2.4,MacIntel,60.0024001,Chrome,1185,747,,,,,,,,,,,,,,,,,,,,,,,H,160,circle,1,0,,,1,,,,,,k,1.3898,2,0,2,0,1,,,,,,,,,,,,,,,,,,,,,,,,,,,,,,,,,,
292768,2022-11-15_13h27.51.719,vts_reward_expectancy_bt,2022.2.4,MacIntel,60.0024001,Chrome,1185,747,,,,,,,,,,,,,,,,,,,,,,,S,181,triangle,1,0,,,1,,,,,,k,0.8316,3,0,3,0,1,,,,,,,,,,,,,,,,,,,,,,,,,,,,,,,,,,
292768,2022-11-15_13h27.51.719,vts_reward_expectancy_bt,2022.2.4,MacIntel,60.0024001,Chrome,1185,747,,,,,,,,,,,,,,,,,,,,,,,B,125,star,1,0,,,1,,,,,,j,1.1584,4,0,4,0,1,,,,,,,,,,,,,,,,,,,,,,,,,,,,,,,,,,
292768,2022-11-15_13h27.51.719,vts_reward_expectancy_bt,2022.2.4,MacIntel,60.0024001,Chrome,1185,747,,,,,,,,,,,,,,,,,,,,,,,D,167,hexagon,1,0,,,1,,,,,,k,1.7303,5,0,5,0,1,,,,,,,,,,,,,,,,,,,,,,,,,,,,,,,,,,
292768,2022-11-15_13h27.51.719,vts_reward_expectancy_bt,2022.2.4,MacIntel,60.0024001,Chrome,1185,747,,,,,,,,,,,,,,,,,,,,,,,U,146,circle,1,0,,,1,,,,,,j,0.8594,6,0,6,0,1,,,,,,,,,,,,,,,,,,,,,,,,,,,,,,,,,,
292768,2022-11-15_13h27.51.719,vts_reward_expectancy_bt,2022.2.4,MacIntel,60.0024001,Chrome,1185,747,,,,,,,,,,,,,,,,,,,,,,,Y,139,triangle,1,0,,,1,,,,,,j,0.772,7,0,7,0,1,,,,,,,,,,,,,,,,,,,,,,,,,,,,,,,,,,
292768,2022-11-15_13h27.51.719,vts_reward_expectancy_bt,2022.2.4,MacIntel,60.0024001,Chrome,1185,747,,,,,,,,,,,,,,,,,,,,,,,W,174,star,1,0,,,1,,,,,,k,0.8885,8,0,8,0,1,,,,,,,,,,,,,,,,,,,,,,,,,,,,,,,,,,
292768,2022-11-15_13h27.51.719,vts_reward_expectancy_bt,2022.2.4,MacIntel,60.0024001,Chrome,1185,747,,,,,,,,,,,,,,,,,,,,,,,F,132,circle,1,0,,,1,,,,,,j,0.6369,9,0,9,0,1,,,,,,,,,,,,,,,,,,,,,,,,,,,,,,,,,,
292768,2022-11-15_13h27.51.719,vts_reward_expectancy_bt,2022.2.4,MacIntel,60.0024001,Chrome,1185,747,,,,,0,657,,,,,,,,,,,,,,,,,Y,125,circle,1,0,,,2,,,,,,,,,,,,,-1,letter,NA,f,1.2455,vtsPrac,0,0,0,0,1,,,,,,,,,,,,,,,,,,,,,,,
292768,2022-11-15_13h27.51.719,vts_reward_expectancy_bt,2022.2.4,MacIntel,60.0024001,Chrome,1185,747,,,,,0,657,,,,,,,,,,,,,,,,,H,146,triangle,1,0,,,2,,,,,,,,,,,,,repeat,letter,lettRpt,d,1.5285,vtsPrac,1,0,1,0,1,,,,,,,,,,,,,,,,,,,,,,,
292768,2022-11-15_13h27.51.719,vts_reward_expectancy_bt,2022.2.4,MacIntel,60.0024001,Chrome,1185,747,,,,,0,657,,,,,,,,,,,,,,,,,F,174,circle,1,0,,,2,,,,,,,,,,,,,switch,number,numSwt,k,2.3904,vtsPrac,2,0,2,0,1,,,,,,,,,,,,,,,,,,,,,,,
292768,2022-11-15_13h27.51.719,vts_reward_expectancy_bt,2022.2.4,MacIntel,60.0024001,Chrome,1185,747,,,,,0,657,,,,,,,,,,,,,,,,,W,132,triangle,1,0,,,2,,,,,,,,,,,,,repeat,number,numRpt,j,1.4937,vtsPrac,3,0,3,0,1,,,,,,,,,,,,,,,,,,,,,,,
292768,2022-11-15_13h27.51.719,vts_reward_expectancy_bt,2022.2.4,MacIntel,60.0024001,Chrome,1185,747,,,,,0,657,,,,,,,,,,,,,,,,,Y,125,star,1,0,,,2,,,,,,,,,,,,,switch,letter,lettSwt,f,1.2408,vtsPrac,4,0,4,0,1,,,,,,,,,,,,,,,,,,,,,,,
292768,2022-11-15_13h27.51.719,vts_reward_expectancy_bt,2022.2.4,MacIntel,60.0024001,Chrome,1185,747,,,,,0,657,,,,,,,,,,,,,,,,,H,146,triangle,1,0,,,2,,,,,,,,,,,,,repeat,letter,lettRpt,d,1.6928,vtsPrac,5,0,5,0,1,,,,,,,,,,,,,,,,,,,,,,,
292768,2022-11-15_13h27.51.719,vts_reward_expectancy_bt,2022.2.4,MacIntel,60.0024001,Chrome,1185,747,,,,,0,657,,,,,,,,,,,,,,,,,F,174,circle,1,0,,,2,,,,,,,,,,,,,repeat,letter,lettRpt,d,1.2563,vtsPrac,6,0,6,0,1,,,,,,,,,,,,,,,,,,,,,,,
292768,2022-11-15_13h27.51.719,vts_reward_expectancy_bt,2022.2.4,MacIntel,60.0024001,Chrome,1185,747,,,,,0,657,,,,,,,,,,,,,,,,,W,132,triangle,1,0,,,2,,,,,,,,,,,,,repeat,letter,lettRpt,f,0.9551,vtsPrac,7,0,7,0,1,,,,,,,,,,,,,,,,,,,,,,,
292768,2022-11-15_13h27.51.719,vts_reward_expectancy_bt,2022.2.4,MacIntel,60.0024001,Chrome,1185,747,,,,,0,657,,,,,,,,,,,,,,,,,S,174,triangle,1,0,,,2,,,,,,,,,,,,,switch,number,numSwt,k,0.8383,vtsPrac,8,0,8,0,1,,,,,,,,,,,,,,,,,,,,,,,
292768,2022-11-15_13h27.51.719,vts_reward_expectancy_bt,2022.2.4,MacIntel,60.0024001,Chrome,1185,747,,,,,0,657,,,,,,,,,,,,,,,,,D,167,hexagon,1,0,,,2,,,,,,,,,,,,,repeat,number,numRpt,k,0.9792,vtsPrac,9,0,9,0,1,,,,,,,,,,,,,,,,,,,,,,,
292768,2022-11-15_13h27.51.719,vts_reward_expectancy_bt,2022.2.4,MacIntel,60.0024001,Chrome,1185,747,,,,,0,657,,,,,,,,,,,,,,,,,Y,139,circle,1,0,,,2,,,,,,,,,,,,,switch,letter,lettSwt,f,1.229,vtsPrac,10,0,10,0,1,,,,,,,,,,,,,,,,,,,,,,,
292768,2022-11-15_13h27.51.719,vts_reward_expectancy_bt,2022.2.4,MacIntel,60.0024001,Chrome,1185,747,,,,,0,657,,,,,,,,,,,,,,,,,U,146,hexagon,1,0,,,2,,,,,,,,,,,,,switch,number,numSwt,j,1.2079,vtsPrac,11,0,11,0,1,,,,,,,,,,,,,,,,,,,,,,,
292768,2022-11-15_13h27.51.719,vts_reward_expectancy_bt,2022.2.4,MacIntel,60.0024001,Chrome,1185,747,,,,,0,657,,,,,,,,,,,,,,,,,U,146,star,1,0,,,2,,,,,,,,,,,,,repeat,number,numRpt,j,1.0674,vtsPrac,12,0,12,0,1,,,,,,,,,,,,,,,,,,,,,,,
292768,2022-11-15_13h27.51.719,vts_reward_expectancy_bt,2022.2.4,MacIntel,60.0024001,Chrome,1185,747,,,,,0,657,,,,,,,,,,,,,,,,,D,181,circle,1,0,,,2,,,,,,,,,,,,,switch,letter,lettSwt,d,0.6566,vtsPrac,13,0,13,0,1,,,,,,,,,,,,,,,,,,,,,,,
292768,2022-11-15_13h27.51.719,vts_reward_expectancy_bt,2022.2.4,MacIntel,60.0024001,Chrome,1185,747,,,,,0,657,,,,,,,,,,,,,,,,,W,174,star,1,0,,,2,,,,,,,,,,,,,switch,number,numSwt,k,0.8578,vtsPrac,14,0,14,0,1,,,,,,,,,,,,,,,,,,,,,,,
292768,2022-11-15_13h27.51.719,vts_reward_expectancy_bt,2022.2.4,MacIntel,60.0024001,Chrome,1185,747,,,,,0,657,,,,,,,,,,,,,,,,,Y,139,hexagon,1,0,,,2,,,,,,,,,,,,,switch,letter,lettSwt,f,0.8639,vtsPrac,15,0,15,0,1,,,,,,,,,,,,,,,,,,,,,,,
292768,2022-11-15_13h27.51.719,vts_reward_expectancy_bt,2022.2.4,MacIntel,60.0024001,Chrome,1185,747,,,,,0,657,,,,,,,,,,,,,,,,,U,132,hexagon,1,0,,,2,,,,,,,,,,,,,repeat,letter,lettRpt,f,0.8903,vtsPrac,16,0,16,0,1,,,,,,,,,,,,,,,,,,,,,,,
292768,2022-11-15_13h27.51.719,vts_reward_expectancy_bt,2022.2.4,MacIntel,60.0024001,Chrome,1185,747,,,,,0,657,,,,,,,,,,,,,,,,,D,174,circle,1,0,,,2,,,,,,,,,,,,,repeat,letter,lettRpt,d,1.2715,vtsPrac,17,0,17,0,1,,,,,,,,,,,,,,,,,,,,,,,
292768,2022-11-15_13h27.51.719,vts_reward_expectancy_bt,2022.2.4,MacIntel,60.0024001,Chrome,1185,747,,,,,0,657,,,,,,,,,,,,,,,,,S,125,hexagon,1,0,,,2,,,,,,,,,,,,,switch,number,numSwt,j,0.806,vtsPrac,18,0,18,0,1,,,,,,,,,,,,,,,,,,,,,,,
292768,2022-11-15_13h27.51.719,vts_reward_expectancy_bt,2022.2.4,MacIntel,60.0024001,Chrome,1185,747,,,,,0,657,,,,,,,,,,,,,,,,,B,139,triangle,1,0,,,2,,,,,,,,,,,,,repeat,number,numRpt,j,1.7778,vtsPrac,19,0,19,0,1,,,,,,,,,,,,,,,,,,,,,,,
292768,2022-11-15_13h27.51.719,vts_reward_expectancy_bt,2022.2.4,MacIntel,60.0024001,Chrome,1185,747,,,,,0,657,,,,,,,,,,,,,,,,,B,181,circle,1,0,,,2,,,,,,,,,,,,,repeat,number,numRpt,k,0.9469,vtsPrac,20,0,20,0,1,,,,,,,,,,,,,,,,,,,,,,,
292768,2022-11-15_13h27.51.719,vts_reward_expectancy_bt,2022.2.4,MacIntel,60.0024001,Chrome,1185,747,,,,,0,657,,,,,,,,,,,,,,,,,Y,125,star,1,0,,,2,,,,,,,,,,,,,switch,letter,lettSwt,f,0.7736,vtsPrac,21,0,21,0,1,,,,,,,,,,,,,,,,,,,,,,,
292768,2022-11-15_13h27.51.719,vts_reward_expectancy_bt,2022.2.4,MacIntel,60.0024001,Chrome,1185,747,,,,,0,657,,,,,,,,,,,,,,,,,F,146,hexagon,1,0,,,2,,,,,,,,,,,,,repeat,letter,lettRpt,d,0.6797,vtsPrac,22,0,22,0,1,,,,,,,,,,,,,,,,,,,,,,,
292768,2022-11-15_13h27.51.719,vts_reward_expectancy_bt,2022.2.4,MacIntel,60.0024001,Chrome,1185,747,,,,,0,657,,,,,,,,,,,,,,,,,S,139,circle,1,0,,,2,,,,,,,,,,,,,repeat,letter,lettRpt,f,0.5822,vtsPrac,23,0,23,0,1,,,,,,,,,,,,,,,,,,,,,,,
292768,2022-11-15_13h27.51.719,vts_reward_expectancy_bt,2022.2.4,MacIntel,60.0024001,Chrome,1185,747,,,,,0,657,,,,,,,,,,,,,,,,,B,174,triangle,1,0,,,2,,,,,,,,,,,,,switch,number,numSwt,k,1.6112,vtsPrac,24,0,24,0,1,,,,,,,,,,,,,,,,,,,,,,,
292768,2022-11-15_13h27.51.719,vts_reward_expectancy_bt,2022.2.4,MacIntel,60.0024001,Chrome,1185,747,,,,,0,657,,,,,,,,,,,,,,,,,U,139,hexagon,1,0,,,2,,,,,,,,,,,,,repeat,number,numRpt,j,0.792,vtsPrac,25,0,25,0,1,,,,,,,,,,,,,,,,,,,,,,,
292768,2022-11-15_13h27.51.719,vts_reward_expectancy_bt,2022.2.4,MacIntel,60.0024001,Chrome,1185,747,,,,,0,657,,,,,,,,,,,,,,,,,Y,132,triangle,1,0,,,2,,,,,,,,,,,,,repeat,number,numRpt,j,1.033,vtsPrac,26,0,26,0,1,,,,,,,,,,,,,,,,,,,,,,,
292768,2022-11-15_13h27.51.719,vts_reward_expectancy_bt,2022.2.4,MacIntel,60.0024001,Chrome,1185,747,,,,,0,657,,,,,,,,,,,,,,,,,F,181,star,1,0,,,2,,,,,,,,,,,,,repeat,number,numRpt,k,0.8823,vtsPrac,27,0,27,0,1,,,,,,,,,,,,,,,,,,,,,,,
292768,2022-11-15_13h27.51.719,vts_reward_expectancy_bt,2022.2.4,MacIntel,60.0024001,Chrome,1185,747,,,,,0,657,,,,,,,,,,,,,,,,,S,174,circle,1,0,,,2,,,,,,,,,,,,,switch,letter,lettSwt,f,1.0742,vtsPrac,28,0,28,0,1,,,,,,,,,,,,,,,,,,,,,,,
292768,2022-11-15_13h27.51.719,vts_reward_expectancy_bt,2022.2.4,MacIntel,60.0024001,Chrome,1185,747,,,,,0,657,,,,,,,,,,,,,,,,,H,125,hexagon,1,0,,,2,,,,,,,,,,,,,repeat,letter,lettRpt,d,1.1885,vtsPrac,29,0,29,0,1,,,,,,,,,,,,,,,,,,,,,,,
292768,2022-11-15_13h27.51.719,vts_reward_expectancy_bt,2022.2.4,MacIntel,60.0024001,Chrome,1185,747,,,,,0,657,,,,,,,,,,,,,,,,,W,146,circle,1,0,,,2,,,,,,,,,,,,,switch,number,numSwt,j,0.9961,vtsPrac,30,0,30,0,1,,,,,,,,,,,,,,,,,,,,,,,
292768,2022-11-15_13h27.51.719,vts_reward_expectancy_bt,2022.2.4,MacIntel,60.0024001,Chrome,1185,747,,,,,0,657,,,,,,,,,,,,,,,,,Y,139,hexagon,1,0,,,2,,,,,,,,,,,,,switch,letter,lettSwt,f,0.8042,vtsPrac,31,0,31,0,1,,,,,,,,,,,,,,,,,,,,,,,
292768,2022-11-15_13h27.51.719,vts_reward_expectancy_bt,2022.2.4,MacIntel,60.0024001,Chrome,1185,747,,,,,,,,,,,,,,,,,,,,,,,,,,,,,,,,,,,,,,,,,,,,,,,,,,,,,,,,,,,,,,,,,,,,,,,,,,,,
292768,2022-11-15_13h27.51.719,vts_reward_expectancy_bt,2022.2.4,MacIntel,60.0024001,Chrome,1185,747,,,,,,,,,,,,,,,,,,,,,,,,,,,,,,,,,,,,,,,,,,,,,,,,,,,,,,,,,,,,,,,,,,,,,,,,,,,,
292768,2022-11-15_13h27.51.719,vts_reward_expectancy_bt,2022.2.4,MacIntel,60.0024001,Chrome,1185,747,,,,,0,657,,,,,,,,,,,,,,,,,U,132,circle,1,0,,,,,,,,,,,,,,,,repeat,letter,lettRpt,f,1.6759,noRew,,,,,,0,0,0,0,0,1,,,,,,,,,,,,,,,,,
292768,2022-11-15_13h27.51.719,vts_reward_expectancy_bt,2022.2.4,MacIntel,60.0024001,Chrome,1185,747,,,,,0,657,,,,,,,,,,,,,,,,,B,139,star,1,0,,,,,,,,,,,,,,,,repeat,letter,lettRpt,d,0.8373,noRew,,,,,,0,1,0,1,0,1,,,,,,,,,,,,,,,,,
292768,2022-11-15_13h27.51.719,vts_reward_expectancy_bt,2022.2.4,MacIntel,60.0024001,Chrome,1185,747,,,,,0,657,,,,,,,,,,,,,,,,,H,160,circle,1,0,,,,,,,,,,,,,,,,switch,number,numSwt,k,1.3886,noRew,,,,,,0,2,0,2,0,1,,,,,,,,,,,,,,,,,
292768,2022-11-15_13h27.51.719,vts_reward_expectancy_bt,2022.2.4,MacIntel,60.0024001,Chrome,1185,747,,,,,0,657,,,,,,,,,,,,,,,,,D,181,star,1,0,,,,,,,,,,,,,,,,repeat,number,numRpt,k,0.9734,noRew,,,,,,0,3,0,3,0,1,,,,,,,,,,,,,,,,,
292768,2022-11-15_13h27.51.719,vts_reward_expectancy_bt,2022.2.4,MacIntel,60.0024001,Chrome,1185,747,,,,,0,657,,,,,,,,,,,,,,,,,U,132,hexagon,1,0,,,,,,,,,,,,,,,,repeat,number,numRpt,j,0.6401,noRew,,,,,,0,4,0,4,0,1,,,,,,,,,,,,,,,,,
292768,2022-11-15_13h27.51.719,vts_reward_expectancy_bt,2022.2.4,MacIntel,60.0024001,Chrome,1185,747,,,,,0,657,,,,,,,,,,,,,,,,,B,139,circle,1,0,,,,,,,,,,,,,,,,switch,letter,lettSwt,d,0.5744,noRew,,,,,,0,5,0,5,0,1,,,,,,,,,,,,,,,,,
292768,2022-11-15_13h27.51.719,vts_reward_expectancy_bt,2022.2.4,MacIntel,60.0024001,Chrome,1185,747,,,,,0,657,,,,,,,,,,,,,,,,,H,160,star,1,0,,,,,,,,,,,,,,,,repeat,letter,lettRpt,d,1.105,noRew,,,,,,0,6,0,6,0,1,,,,,,,,,,,,,,,,,
292768,2022-11-15_13h27.51.719,vts_reward_expectancy_bt,2022.2.4,MacIntel,60.0024001,Chrome,1185,747,,,,,0,657,,,,,,,,,,,,,,,,,D,181,hexagon,1,0,,,,,,,,,,,,,,,,repeat,letter,lettRpt,d,0.839,noRew,,,,,,0,7,0,7,0,1,,,,,,,,,,,,,,,,,
292768,2022-11-15_13h27.51.719,vts_reward_expectancy_bt,2022.2.4,MacIntel,60.0024001,Chrome,1185,747,,,,,0,657,,,,,,,,,,,,,,,,,W,139,hexagon,1,0,,,,,,,,,,,,,,,,repeat,letter,lettRpt,f,0.6718,noRew,,,,,,0,8,0,8,0,1,,,,,,,,,,,,,,,,,
292768,2022-11-15_13h27.51.719,vts_reward_expectancy_bt,2022.2.4,MacIntel,60.0024001,Chrome,1185,747,,,,,0,657,,,,,,,,,,,,,,,,,Y,125,star,1,0,,,,,,,,,,,,,,,,switch,number,numSwt,j,0.6447,noRew,,,,,,0,9,0,9,0,1,,,,,,,,,,,,,,,,,
292768,2022-11-15_13h27.51.719,vts_reward_expectancy_bt,2022.2.4,MacIntel,60.0024001,Chrome,1185,747,,,,,0,657,,,,,,,,,,,,,,,,,H,181,hexagon,1,0,,,,,,,,,,,,,,,,repeat,number,numRpt,k,1.2241,noRew,,,,,,0,10,0,10,0,1,,,,,,,,,,,,,,,,,
292768,2022-11-15_13h27.51.719,vts_reward_expectancy_bt,2022.2.4,MacIntel,60.0024001,Chrome,1185,747,,,,,0,657,,,,,,,,,,,,,,,,,F,174,triangle,1,0,,,,,,,,,,,,,,,,repeat,number,numRpt,k,1.9769,noRew,,,,,,0,11,0,11,0,1,,,,,,,,,,,,,,,,,
292768,2022-11-15_13h27.51.719,vts_reward_expectancy_bt,2022.2.4,MacIntel,60.0024001,Chrome,1185,747,,,,,0,657,,,,,,,,,,,,,,,,,W,132,circle,1,0,,,,,,,,,,,,,,,,switch,letter,lettSwt,f,0.7902,noRew,,,,,,0,12,0,12,0,1,,,,,,,,,,,,,,,,,
292768,2022-11-15_13h27.51.719,vts_reward_expectancy_bt,2022.2.4,MacIntel,60.0024001,Chrome,1185,747,,,,,0,657,,,,,,,,,,,,,,,,,B,167,star,1,0,,,,,,,,,,,,,,,,switch,number,numSwt,k,1.2401,noRew,,,,,,0,13,0,13,0,1,,,,,,,,,,,,,,,,,
292768,2022-11-15_13h27.51.719,vts_reward_expectancy_bt,2022.2.4,MacIntel,60.0024001,Chrome,1185,747,,,,,0,657,,,,,,,,,,,,,,,,,S,125,star,1,0,,,,,,,,,,,,,,,,repeat,number,numRpt,j,0.926,noRew,,,,,,0,14,0,14,0,1,,,,,,,,,,,,,,,,,
292768,2022-11-15_13h27.51.719,vts_reward_expectancy_bt,2022.2.4,MacIntel,60.0024001,Chrome,1185,747,,,,,0,657,,,,,,,,,,,,,,,,,F,181,circle,1,0,,,,,,,,,,,,,,,,switch,letter,lettSwt,d,1.3409,noRew,,,,,,0,15,0,15,0,1,,,,,,,,,,,,,,,,,
292768,2022-11-15_13h27.51.719,vts_reward_expectancy_bt,2022.2.4,MacIntel,60.0024001,Chrome,1185,747,,,,,0,657,,,,,,,,,,,,,,,,,F,174,triangle,1,0,,,,,,,,,,,,,,,,repeat,letter,lettRpt,d,0.8915,noRew,,,,,,0,16,0,16,0,1,,,,,,,,,,,,,,,,,
292768,2022-11-15_13h27.51.719,vts_reward_expectancy_bt,2022.2.4,MacIntel,60.0024001,Chrome,1185,747,,,,,0,657,,,,,,,,,,,,,,,,,W,125,circle,1,0,,,,,,,,,,,,,,,,repeat,letter,lettRpt,f,0.7045,noRew,,,,,,0,17,0,17,0,1,,,,,,,,,,,,,,,,,
292768,2022-11-15_13h27.51.719,vts_reward_expectancy_bt,2022.2.4,MacIntel,60.0024001,Chrome,1185,747,,,,,0,657,,,,,,,,,,,,,,,,,H,181,circle,1,0,,,,,,,,,,,,,,,,switch,number,numSwt,k,0.8898,noRew,,,,,,0,18,0,18,0,1,,,,,,,,,,,,,,,,,
292768,2022-11-15_13h27.51.719,vts_reward_expectancy_bt,2022.2.4,MacIntel,60.0024001,Chrome,1185,747,,,,,0,657,,,,,,,,,,,,,,,,,B,160,star,1,0,,,,,,,,,,,,,,,,switch,letter,lettSwt,d,1.5212,noRew,,,,,,0,19,0,19,0,1,,,,,,,,,,,,,,,,,
292768,2022-11-15_13h27.51.719,vts_reward_expectancy_bt,2022.2.4,MacIntel,60.0024001,Chrome,1185,747,,,,,0,657,,,,,,,,,,,,,,,,,B,139,circle,1,0,,,,,,,,,,,,,,,,switch,number,numSwt,j,1.1464,noRew,,,,,,0,20,0,20,0,1,,,,,,,,,,,,,,,,,
292768,2022-11-15_13h27.51.719,vts_reward_expectancy_bt,2022.2.4,MacIntel,60.0024001,Chrome,1185,747,,,,,0,657,,,,,,,,,,,,,,,,,W,160,hexagon,1,0,,,,,,,,,,,,,,,,repeat,number,numRpt,k,1.0078,noRew,,,,,,0,21,0,21,0,1,,,,,,,,,,,,,,,,,
292768,2022-11-15_13h27.51.719,vts_reward_expectancy_bt,2022.2.4,MacIntel,60.0024001,Chrome,1185,747,,,,,0,657,,,,,,,,,,,,,,,,,Y,132,triangle,1,0,,,,,,,,,,,,,,,,repeat,number,numRpt,j,1.3416,noRew,,,,,,0,22,0,22,0,1,,,,,,,,,,,,,,,,,
292768,2022-11-15_13h27.51.719,vts_reward_expectancy_bt,2022.2.4,MacIntel,60.0024001,Chrome,1185,747,,,,,0,657,,,,,,,,,,,,,,,,,F,146,circle,1,0,,,,,,,,,,,,,,,,repeat,number,numRpt,j,1.4444,noRew,,,,,,0,23,0,23,0,1,,,,,,,,,,,,,,,,,
292768,2022-11-15_13h27.51.719,vts_reward_expectancy_bt,2022.2.4,MacIntel,60.0024001,Chrome,1185,747,,,,,0,657,,,,,,,,,,,,,,,,,W,167,star,1,0,,,,,,,,,,,,,,,,repeat,number,numRpt,k,0.9962,noRew,,,,,,0,24,0,24,0,1,,,,,,,,,,,,,,,,,
292768,2022-11-15_13h27.51.719,vts_reward_expectancy_bt,2022.2.4,MacIntel,60.0024001,Chrome,1185,747,,,,,0,657,,,,,,,,,,,,,,,,,B,174,hexagon,1,0,,,,,,,,,,,,,,,,switch,letter,lettSwt,d,1.5391,noRew,,,,,,0,25,0,25,0,1,,,,,,,,,,,,,,,,,
292768,2022-11-15_13h27.51.719,vts_reward_expectancy_bt,2022.2.4,MacIntel,60.0024001,Chrome,1185,747,,,,,0,657,,,,,,,,,,,,,,,,,H,146,hexagon,1,0,,,,,,,,,,,,,,,,repeat,letter,lettRpt,d,0.9724,noRew,,,,,,0,26,0,26,0,1,,,,,,,,,,,,,,,,,
292768,2022-11-15_13h27.51.719,vts_reward_expectancy_bt,2022.2.4,MacIntel,60.0024001,Chrome,1185,747,,,,,0,657,,,,,,,,,,,,,,,,,F,160,star,1,0,,,,,,,,,,,,,,,,repeat,letter,lettRpt,d,1.5055,noRew,,,,,,0,27,0,27,0,1,,,,,,,,,,,,,,,,,
292768,2022-11-15_13h27.51.719,vts_reward_expectancy_bt,2022.2.4,MacIntel,60.0024001,Chrome,1185,747,,,,,0,657,,,,,,,,,,,,,,,,,W,167,star,1,0,,,,,,,,,,,,,,,,switch,number,numSwt,k,0.9219,noRew,,,,,,0,28,0,28,0,1,,,,,,,,,,,,,,,,,
292768,2022-11-15_13h27.51.719,vts_reward_expectancy_bt,2022.2.4,MacIntel,60.0024001,Chrome,1185,747,,,,,0,657,,,,,,,,,,,,,,,,,H,174,hexagon,1,0,,,,,,,,,,,,,,,,repeat,number,numRpt,k,1.675,noRew,,,,,,0,29,0,29,0,1,,,,,,,,,,,,,,,,,
292768,2022-11-15_13h27.51.719,vts_reward_expectancy_bt,2022.2.4,MacIntel,60.0024001,Chrome,1185,747,,,,,0,657,,,,,,,,,,,,,,,,,B,139,triangle,1,0,,,,,,,,,,,,,,,,switch,letter,lettSwt,d,0.9049,noRew,,,,,,0,30,0,30,0,1,,,,,,,,,,,,,,,,,
292768,2022-11-15_13h27.51.719,vts_reward_expectancy_bt,2022.2.4,MacIntel,60.0024001,Chrome,1185,747,,,,,0,657,,,,,,,,,,,,,,,,,Y,146,star,1,0,,,,,,,,,,,,,,,,repeat,letter,lettRpt,f,1.5719,noRew,,,,,,0,31,0,31,0,1,,,,,,,,,,,,,,,,,
292768,2022-11-15_13h27.51.719,vts_reward_expectancy_bt,2022.2.4,MacIntel,60.0024001,Chrome,1185,747,,,,,0,657,,,,,,,,,,,,,,,,,W,181,hexagon,1,0,,,,,,,,,,,,,,,,switch,number,numSwt,k,0.8075,noRew,,,,,,0,32,0,32,0,1,,,,,,,,,,,,,,,,,
292768,2022-11-15_13h27.51.719,vts_reward_expectancy_bt,2022.2.4,MacIntel,60.0024001,Chrome,1185,747,,,,,0,657,,,,,,,,,,,,,,,,,U,139,star,1,0,,,,,,,,,,,,,,,,repeat,number,numRpt,j,0.6601,noRew,,,,,,0,33,0,33,0,1,,,,,,,,,,,,,,,,,
292768,2022-11-15_13h27.51.719,vts_reward_expectancy_bt,2022.2.4,MacIntel,60.0024001,Chrome,1185,747,,,,,0,657,,,,,,,,,,,,,,,,,D,146,triangle,1,0,,,,,,,,,,,,,,,,repeat,number,numRpt,j,1.2726,noRew,,,,,,0,34,0,34,0,1,,,,,,,,,,,,,,,,,
292768,2022-11-15_13h27.51.719,vts_reward_expectancy_bt,2022.2.4,MacIntel,60.0024001,Chrome,1185,747,,,,,0,657,,,,,,,,,,,,,,,,,S,174,hexagon,1,0,,,,,,,,,,,,,,,,repeat,number,numRpt,k,0.84,noRew,,,,,,0,35,0,35,0,1,,,,,,,,,,,,,,,,,
292768,2022-11-15_13h27.51.719,vts_reward_expectancy_bt,2022.2.4,MacIntel,60.0024001,Chrome,1185,747,,,,,0,657,,,,,,,,,,,,,,,,,B,181,circle,1,0,,,,,,,,,,,,,,,,switch,letter,lettSwt,d,0.7939,noRew,,,,,,0,36,0,36,0,1,,,,,,,,,,,,,,,,,
292768,2022-11-15_13h27.51.719,vts_reward_expectancy_bt,2022.2.4,MacIntel,60.0024001,Chrome,1185,747,,,,,0,657,,,,,,,,,,,,,,,,,U,174,star,1,0,,,,,,,,,,,,,,,,repeat,letter,lettRpt,f,1.3742,noRew,,,,,,0,37,0,37,0,1,,,,,,,,,,,,,,,,,
292768,2022-11-15_13h27.51.719,vts_reward_expectancy_bt,2022.2.4,MacIntel,60.0024001,Chrome,1185,747,,,,,0,657,,,,,,,,,,,,,,,,,D,160,triangle,1,0,,,,,,,,,,,,,,,,repeat,letter,lettRpt,d,1.072,noRew,,,,,,0,38,0,38,0,1,,,,,,,,,,,,,,,,,
292768,2022-11-15_13h27.51.719,vts_reward_expectancy_bt,2022.2.4,MacIntel,60.0024001,Chrome,1185,747,,,,,0,657,,,,,,,,,,,,,,,,,Y,146,circle,1,0,,,,,,,,,,,,,,,,repeat,letter,lettRpt,f,0.9573,noRew,,,,,,0,39,0,39,0,1,,,,,,,,,,,,,,,,,
292768,2022-11-15_13h27.51.719,vts_reward_expectancy_bt,2022.2.4,MacIntel,60.0024001,Chrome,1185,747,,,,,0,657,,,,,,,,,,,,,,,,,D,160,hexagon,-1,0,,,,,,,,,,,,,,,,switch,no_choice,NA,,,noRew,,,,,,0,40,0,40,0,1,,,,,,,,,,,,,,,,,
292768,2022-11-15_13h27.51.719,vts_reward_expectancy_bt,2022.2.4,MacIntel,60.0024001,Chrome,1185,747,,,,,0,657,,,,,,,,,,,,,,,,,U,139,triangle,1,0,,,,,,,,,,,,,,,,switch,number,numSwt,j,0.9405,noRew,,,,,,0,41,0,41,0,1,,,,,,,,,,,,,,,,,
292768,2022-11-15_13h27.51.719,vts_reward_expectancy_bt,2022.2.4,MacIntel,60.0024001,Chrome,1185,747,,,,,0,657,,,,,,,,,,,,,,,,,F,181,circle,1,0,,,,,,,,,,,,,,,,switch,letter,lettSwt,d,0.9589,noRew,,,,,,0,42,0,42,0,1,,,,,,,,,,,,,,,,,
292768,2022-11-15_13h27.51.719,vts_reward_expectancy_bt,2022.2.4,MacIntel,60.0024001,Chrome,1185,747,,,,,0,657,,,,,,,,,,,,,,,,,Y,125,triangle,1,0,,,,,,,,,,,,,,,,repeat,letter,lettRpt,f,0.763,noRew,,,,,,0,43,0,43,0,1,,,,,,,,,,,,,,,,,
292768,2022-11-15_13h27.51.719,vts_reward_expectancy_bt,2022.2.4,MacIntel,60.0024001,Chrome,1185,747,,,,,0,657,,,,,,,,,,,,,,,,,W,139,triangle,1,0,,,,,,,,,,,,,,,,switch,number,numSwt,j,0.6583,noRew,,,,,,0,44,0,44,0,1,,,,,,,,,,,,,,,,,
292768,2022-11-15_13h27.51.719,vts_reward_expectancy_bt,2022.2.4,MacIntel,60.0024001,Chrome,1185,747,,,,,0,657,,,,,,,,,,,,,,,,,F,160,hexagon,1,0,,,,,,,,,,,,,,,,switch,letter,lettSwt,d,1.1921,noRew,,,,,,0,45,0,45,0,1,,,,,,,,,,,,,,,,,
292768,2022-11-15_13h27.51.719,vts_reward_expectancy_bt,2022.2.4,MacIntel,60.0024001,Chrome,1185,747,,,,,0,657,,,,,,,,,,,,,,,,,H,132,triangle,1,0,,,,,,,,,,,,,,,,switch,number,numSwt,j,0.6223,noRew,,,,,,0,46,0,46,0,1,,,,,,,,,,,,,,,,,
292768,2022-11-15_13h27.51.719,vts_reward_expectancy_bt,2022.2.4,MacIntel,60.0024001,Chrome,1185,747,,,,,0,657,,,,,,,,,,,,,,,,,B,174,circle,1,0,,,,,,,,,,,,,,,,repeat,number,numRpt,k,0.6753,noRew,,,,,,0,47,0,47,0,1,,,,,,,,,,,,,,,,,
292768,2022-11-15_13h27.51.719,vts_reward_expectancy_bt,2022.2.4,MacIntel,60.0024001,Chrome,1185,747,,,,,0,657,,,,,,,,,,,,,,,,,D,139,star,1,0,,,,,,,,,,,,,,,,repeat,number,numRpt,j,0.7583,noRew,,,,,,0,48,0,48,0,1,,,,,,,,,,,,,,,,,
292768,2022-11-15_13h27.51.719,vts_reward_expectancy_bt,2022.2.4,MacIntel,60.0024001,Chrome,1185,747,,,,,0,657,,,,,,,,,,,,,,,,,F,167,triangle,1,0,,,,,,,,,,,,,,,,switch,letter,lettSwt,d,0.7576,noRew,,,,,,0,49,0,49,0,1,,,,,,,,,,,,,,,,,
292768,2022-11-15_13h27.51.719,vts_reward_expectancy_bt,2022.2.4,MacIntel,60.0024001,Chrome,1185,747,,,,,0,657,,,,,,,,,,,,,,,,,Y,160,circle,1,0,,,,,,,,,,,,,,,,repeat,letter,lettRpt,f,0.8291,noRew,,,,,,0,50,0,50,0,1,,,,,,,,,,,,,,,,,
292768,2022-11-15_13h27.51.719,vts_reward_expectancy_bt,2022.2.4,MacIntel,60.0024001,Chrome,1185,747,,,,,0,657,,,,,,,,,,,,,,,,,S,132,star,1,0,,,,,,,,,,,,,,,,switch,number,numSwt,j,1.0129,noRew,,,,,,0,51,0,51,0,1,,,,,,,,,,,,,,,,,
292768,2022-11-15_13h27.51.719,vts_reward_expectancy_bt,2022.2.4,MacIntel,60.0024001,Chrome,1185,747,,,,,0,657,,,,,,,,,,,,,,,,,W,139,hexagon,1,0,,,,,,,,,,,,,,,,repeat,number,numRpt,j,0.8782,noRew,,,,,,0,52,0,52,0,1,,,,,,,,,,,,,,,,,
292768,2022-11-15_13h27.51.719,vts_reward_expectancy_bt,2022.2.4,MacIntel,60.0024001,Chrome,1185,747,,,,,0,657,,,,,,,,,,,,,,,,,H,174,triangle,1,0,,,,,,,,,,,,,,,,repeat,number,numRpt,k,1.1736,noRew,,,,,,0,53,0,53,0,1,,,,,,,,,,,,,,,,,
292768,2022-11-15_13h27.51.719,vts_reward_expectancy_bt,2022.2.4,MacIntel,60.0024001,Chrome,1185,747,,,,,0,657,,,,,,,,,,,,,,,,,B,146,triangle,1,0,,,,,,,,,,,,,,,,switch,letter,lettSwt,d,0.9712,noRew,,,,,,0,54,0,54,0,1,,,,,,,,,,,,,,,,,
292768,2022-11-15_13h27.51.719,vts_reward_expectancy_bt,2022.2.4,MacIntel,60.0024001,Chrome,1185,747,,,,,0,657,,,,,,,,,,,,,,,,,Y,167,hexagon,1,0,,,,,,,,,,,,,,,,repeat,letter,lettRpt,f,0.9089,noRew,,,,,,0,55,0,55,0,1,,,,,,,,,,,,,,,,,
292768,2022-11-15_13h27.51.719,vts_reward_expectancy_bt,2022.2.4,MacIntel,60.0024001,Chrome,1185,747,,,,,0,657,,,,,,,,,,,,,,,,,H,146,hexagon,1,0,,,,,,,,,,,,,,,,repeat,letter,lettRpt,d,0.7779,noRew,,,,,,0,56,0,56,0,1,,,,,,,,,,,,,,,,,
292768,2022-11-15_13h27.51.719,vts_reward_expectancy_bt,2022.2.4,MacIntel,60.0024001,Chrome,1185,747,,,,,0,657,,,,,,,,,,,,,,,,,Y,181,triangle,1,0,,,,,,,,,,,,,,,,repeat,letter,lettRpt,f,0.6912,noRew,,,,,,0,57,0,57,0,1,,,,,,,,,,,,,,,,,
292768,2022-11-15_13h27.51.719,vts_reward_expectancy_bt,2022.2.4,MacIntel,60.0024001,Chrome,1185,747,,,,,0,657,,,,,,,,,,,,,,,,,S,160,hexagon,1,0,,,,,,,,,,,,,,,,switch,number,numSwt,k,1.1739,noRew,,,,,,0,58,0,58,0,1,,,,,,,,,,,,,,,,,
292768,2022-11-15_13h27.51.719,vts_reward_expectancy_bt,2022.2.4,MacIntel,60.0024001,Chrome,1185,747,,,,,0,657,,,,,,,,,,,,,,,,,U,174,star,1,0,,,,,,,,,,,,,,,,repeat,number,numRpt,k,0.699,noRew,,,,,,0,59,0,59,0,1,,,,,,,,,,,,,,,,,
292768,2022-11-15_13h27.51.719,vts_reward_expectancy_bt,2022.2.4,MacIntel,60.0024001,Chrome,1185,747,,,,,0,657,,,,,,,,,,,,,,,,,F,132,circle,1,0,,,,,,,,,,,,,,,,repeat,number,numRpt,j,0.5907,noRew,,,,,,0,60,0,60,0,1,,,,,,,,,,,,,,,,,
292768,2022-11-15_13h27.51.719,vts_reward_expectancy_bt,2022.2.4,MacIntel,60.0024001,Chrome,1185,747,,,,,0,657,,,,,,,,,,,,,,,,,H,181,triangle,1,0,,,,,,,,,,,,,,,,repeat,number,numRpt,k,0.7576,noRew,,,,,,0,61,0,61,0,1,,,,,,,,,,,,,,,,,
292768,2022-11-15_13h27.51.719,vts_reward_expectancy_bt,2022.2.4,MacIntel,60.0024001,Chrome,1185,747,,,,,0,657,,,,,,,,,,,,,,,,,W,160,triangle,1,0,,,,,,,,,,,,,,,,repeat,number,numRpt,k,0.7989,noRew,,,,,,0,62,0,62,0,1,,,,,,,,,,,,,,,,,
292768,2022-11-15_13h27.51.719,vts_reward_expectancy_bt,2022.2.4,MacIntel,60.0024001,Chrome,1185,747,,,,,0,657,,,,,,,,,,,,,,,,,Y,146,star,1,0,,,,,,,,,,,,,,,,switch,letter,lettSwt,f,1.0263,noRew,,,,,,0,63,0,63,0,1,,,,,,,,,,,,,,,,,
292768,2022-11-15_13h27.51.719,vts_reward_expectancy_bt,2022.2.4,MacIntel,60.0024001,Chrome,1185,747,,,,,,,,,,,,,,,,,,,,,,,,,,,,,,,,,,,,,,,,,,,,,,,,,,,,,,,,,,,,,,,,,,,,,,,,,,,,
292768,2022-11-15_13h27.51.719,vts_reward_expectancy_bt,2022.2.4,MacIntel,60.0024001,Chrome,1185,747,,,,,1,658,,,,,,,,,,,,,,,,,B,139,hexagon,1,0,,,,,,,,,,,,,,,,repeat,letter,lettRpt,d,1.4312,Lo,,,,,,0,,,,,,space,5.5156,low,0,0,0,0,1,,,,,,,,,
292768,2022-11-15_13h27.51.719,vts_reward_expectancy_bt,2022.2.4,MacIntel,60.0024001,Chrome,1185,747,,,,,10,668,,,,,,,,,,,,,,,,,H,160,star,1,0,,,,,,,,,,,,,,,,switch,number,numSwt,k,0.7545,Hi,,,,,,0,,,,,,,,low,1,0,1,0,1,,,,,,,,,
292768,2022-11-15_13h27.51.719,vts_reward_expectancy_bt,2022.2.4,MacIntel,60.0024001,Chrome,1185,747,,,,,10,678,,,,,,,,,,,,,,,,,W,174,circle,1,0,,,,,,,,,,,,,,,,switch,letter,lettSwt,f,0.7241,Hi,,,,,,0,,,,,,,,low,2,0,2,0,1,,,,,,,,,
292768,2022-11-15_13h27.51.719,vts_reward_expectancy_bt,2022.2.4,MacIntel,60.0024001,Chrome,1185,747,,,,,1,679,,,,,,,,,,,,,,,,,S,132,triangle,1,0,,,,,,,,,,,,,,,,repeat,letter,lettRpt,f,1.9059,Lo,,,,,,0,,,,,,,,low,3,0,3,0,1,,,,,,,,,
292768,2022-11-15_13h27.51.719,vts_reward_expectancy_bt,2022.2.4,MacIntel,60.0024001,Chrome,1185,747,,,,,1,680,,,,,,,,,,,,,,,,,F,125,hexagon,1,0,,,,,,,,,,,,,,,,repeat,letter,lettRpt,d,1.4213,Lo,,,,,,0,,,,,,,,low,4,0,4,0,1,,,,,,,,,
292768,2022-11-15_13h27.51.719,vts_reward_expectancy_bt,2022.2.4,MacIntel,60.0024001,Chrome,1185,747,,,,,0,680,,,,,,,,,,,,,,,,,U,181,star,1,0,,,,,,,,,,,,,,,,switch,number,numSwt,k,1.5749,Hi,,,,,,0,,,,,,,,low,5,0,5,0,1,,,,,,,,,
292768,2022-11-15_13h27.51.719,vts_reward_expectancy_bt,2022.2.4,MacIntel,60.0024001,Chrome,1185,747,,,,,10,690,,,,,,,,,,,,,,,,,D,146,circle,1,0,,,,,,,,,,,,,,,,repeat,number,numRpt,j,0.5749,Hi,,,,,,0,,,,,,,,low,6,0,6,0,1,,,,,,,,,
292768,2022-11-15_13h27.51.719,vts_reward_expectancy_bt,2022.2.4,MacIntel,60.0024001,Chrome,1185,747,,,,,1,691,,,,,,,,,,,,,,,,,Y,167,triangle,1,0,,,,,,,,,,,,,,,,repeat,number,numRpt,k,0.7294,Lo,,,,,,0,,,,,,,,low,7,0,7,0,1,,,,,,,,,
292768,2022-11-15_13h27.51.719,vts_reward_expectancy_bt,2022.2.4,MacIntel,60.0024001,Chrome,1185,747,,,,,10,701,,,,,,,,,,,,,,,,,B,139,star,1,0,,,,,,,,,,,,,,,,switch,letter,lettSwt,d,0.739,Hi,,,,,,0,,,,,,,,low,8,0,8,0,1,,,,,,,,,
292768,2022-11-15_13h27.51.719,vts_reward_expectancy_bt,2022.2.4,MacIntel,60.0024001,Chrome,1185,747,,,,,1,702,,,,,,,,,,,,,,,,,H,160,circle,1,0,,,,,,,,,,,,,,,,repeat,letter,lettRpt,d,0.8268,Hi,,,,,,0,,,,,,,,low,9,0,9,0,1,,,,,,,,,
292768,2022-11-15_13h27.51.719,vts_reward_expectancy_bt,2022.2.4,MacIntel,60.0024001,Chrome,1185,747,,,,,1,703,,,,,,,,,,,,,,,,,W,174,triangle,1,0,,,,,,,,,,,,,,,,switch,number,numSwt,k,0.6066,Lo,,,,,,0,,,,,,,,low,10,0,10,0,1,,,,,,,,,
292768,2022-11-15_13h27.51.719,vts_reward_expectancy_bt,2022.2.4,MacIntel,60.0024001,Chrome,1185,747,,,,,1,704,,,,,,,,,,,,,,,,,S,132,hexagon,1,0,,,,,,,,,,,,,,,,switch,letter,lettSwt,f,0.7405,Lo,,,,,,0,,,,,,,,low,11,0,11,0,1,,,,,,,,,
292768,2022-11-15_13h27.51.719,vts_reward_expectancy_bt,2022.2.4,MacIntel,60.0024001,Chrome,1185,747,,,,,1,705,,,,,,,,,,,,,,,,,F,125,hexagon,1,0,,,,,,,,,,,,,,,,repeat,letter,lettRpt,d,0.8412,Lo,,,,,,0,,,,,,,,low,12,0,12,0,1,,,,,,,,,
292768,2022-11-15_13h27.51.719,vts_reward_expectancy_bt,2022.2.4,MacIntel,60.0024001,Chrome,1185,747,,,,,1,706,,,,,,,,,,,,,,,,,U,181,triangle,1,0,,,,,,,,,,,,,,,,switch,number,numSwt,k,0.6209,Lo,,,,,,0,,,,,,,,low,13,0,13,0,1,,,,,,,,,
292768,2022-11-15_13h27.51.719,vts_reward_expectancy_bt,2022.2.4,MacIntel,60.0024001,Chrome,1185,747,,,,,0,706,,,,,,,,,,,,,,,,,D,146,circle,1,0,,,,,,,,,,,,,,,,repeat,number,numRpt,j,0.7955,Hi,,,,,,0,,,,,,,,low,14,0,14,0,1,,,,,,,,,
292768,2022-11-15_13h27.51.719,vts_reward_expectancy_bt,2022.2.4,MacIntel,60.0024001,Chrome,1185,747,,,,,1,707,,,,,,,,,,,,,,,,,Y,167,star,1,0,,,,,,,,,,,,,,,,repeat,number,numRpt,k,0.6067,Hi,,,,,,0,,,,,,,,low,15,0,15,0,1,,,,,,,,,
292768,2022-11-15_13h27.51.719,vts_reward_expectancy_bt,2022.2.4,MacIntel,60.0024001,Chrome,1185,747,,,,,1,708,,,,,,,,,,,,,,,,,W,132,star,1,0,,,,,,,,,,,,,,,,repeat,number,numRpt,j,0.6309,Hi,,,,,,0,,,,,,,,low,16,0,16,0,1,,,,,,,,,
292768,2022-11-15_13h27.51.719,vts_reward_expectancy_bt,2022.2.4,MacIntel,60.0024001,Chrome,1185,747,,,,,1,709,,,,,,,,,,,,,,,,,Y,181,hexagon,1,0,,,,,,,,,,,,,,,,switch,letter,lettSwt,f,0.7976,Lo,,,,,,0,,,,,,,,low,17,0,17,0,1,,,,,,,,,
292768,2022-11-15_13h27.51.719,vts_reward_expectancy_bt,2022.2.4,MacIntel,60.0024001,Chrome,1185,747,,,,,10,719,,,,,,,,,,,,,,,,,D,125,triangle,1,0,,,,,,,,,,,,,,,,switch,number,numSwt,j,0.5258,Lo,,,,,,0,,,,,,,,low,18,0,18,0,1,,,,,,,,,
292768,2022-11-15_13h27.51.719,vts_reward_expectancy_bt,2022.2.4,MacIntel,60.0024001,Chrome,1185,747,,,,,1,720,,,,,,,,,,,,,,,,,H,146,circle,1,0,,,,,,,,,,,,,,,,repeat,number,numRpt,j,0.7045,Hi,,,,,,0,,,,,,,,low,19,0,19,0,1,,,,,,,,,
292768,2022-11-15_13h27.51.719,vts_reward_expectancy_bt,2022.2.4,MacIntel,60.0024001,Chrome,1185,747,,,,,10,730,,,,,,,,,,,,,,,,,S,160,circle,1,0,,,,,,,,,,,,,,,,repeat,number,numRpt,k,0.6742,Hi,,,,,,0,,,,,,,,low,20,0,20,0,1,,,,,,,,,
292768,2022-11-15_13h27.51.719,vts_reward_expectancy_bt,2022.2.4,MacIntel,60.0024001,Chrome,1185,747,,,,,10,740,,,,,,,,,,,,,,,,,U,167,hexagon,1,0,,,,,,,,,,,,,,,,switch,letter,lettSwt,f,0.5652,Lo,,,,,,0,,,,,,,,low,21,0,21,0,1,,,,,,,,,
292768,2022-11-15_13h27.51.719,vts_reward_expectancy_bt,2022.2.4,MacIntel,60.0024001,Chrome,1185,747,,,,,0,740,,,,,,,,,,,,,,,,,B,174,star,1,0,,,,,,,,,,,,,,,,repeat,letter,lettRpt,d,0.8721,Hi,,,,,,0,,,,,,,,low,22,0,22,0,1,,,,,,,,,
292768,2022-11-15_13h27.51.719,vts_reward_expectancy_bt,2022.2.4,MacIntel,60.0024001,Chrome,1185,747,,,,,1,741,,,,,,,,,,,,,,,,,F,139,triangle,1,0,,,,,,,,,,,,,,,,repeat,letter,lettRpt,d,0.7569,Lo,,,,,,0,,,,,,,,low,23,0,23,0,1,,,,,,,,,
292768,2022-11-15_13h27.51.719,vts_reward_expectancy_bt,2022.2.4,MacIntel,60.0024001,Chrome,1185,747,,,,,10,751,,,,,,,,,,,,,,,,,U,132,star,1,0,,,,,,,,,,,,,,,,repeat,letter,lettRpt,f,0.5297,Hi,,,,,,0,,,,,,,,low,24,0,24,0,1,,,,,,,,,
292768,2022-11-15_13h27.51.719,vts_reward_expectancy_bt,2022.2.4,MacIntel,60.0024001,Chrome,1185,747,,,,,1,752,,,,,,,,,,,,,,,,,S,174,triangle,1,0,,,,,,,,,,,,,,,,switch,number,numSwt,k,0.6641,Lo,,,,,,0,,,,,,,,low,25,0,25,0,1,,,,,,,,,
292768,2022-11-15_13h27.51.719,vts_reward_expectancy_bt,2022.2.4,MacIntel,60.0024001,Chrome,1185,747,,,,,1,753,,,,,,,,,,,,,,,,,Y,139,hexagon,1,0,,,,,,,,,,,,,,,,switch,letter,lettSwt,f,0.7042,Lo,,,,,,0,,,,,,,,low,26,0,26,0,1,,,,,,,,,
292768,2022-11-15_13h27.51.719,vts_reward_expectancy_bt,2022.2.4,MacIntel,60.0024001,Chrome,1185,747,,,,,1,754,,,,,,,,,,,,,,,,,F,167,circle,1,0,,,,,,,,,,,,,,,,switch,number,numSwt,k,0.6821,Hi,,,,,,0,,,,,,,,low,27,0,27,0,1,,,,,,,,,
292768,2022-11-15_13h27.51.719,vts_reward_expectancy_bt,2022.2.4,MacIntel,60.0024001,Chrome,1185,747,,,,,10,764,,,,,,,,,,,,,,,,,B,160,hexagon,1,0,,,,,,,,,,,,,,,,switch,letter,lettSwt,d,0.724,Lo,,,,,,0,,,,,,,,low,28,0,28,0,1,,,,,,,,,
292768,2022-11-15_13h27.51.719,vts_reward_expectancy_bt,2022.2.4,MacIntel,60.0024001,Chrome,1185,747,,,,,10,774,,,,,,,,,,,,,,,,,W,125,triangle,1,0,,,,,,,,,,,,,,,,repeat,letter,lettRpt,f,0.5795,Lo,,,,,,0,,,,,,,,low,29,0,29,0,1,,,,,,,,,
292768,2022-11-15_13h27.51.719,vts_reward_expectancy_bt,2022.2.4,MacIntel,60.0024001,Chrome,1185,747,,,,,10,784,,,,,,,,,,,,,,,,,D,146,circle,1,0,,,,,,,,,,,,,,,,repeat,letter,lettRpt,d,0.775,Hi,,,,,,0,,,,,,,,low,30,0,30,0,1,,,,,,,,,
292768,2022-11-15_13h27.51.719,vts_reward_expectancy_bt,2022.2.4,MacIntel,60.0024001,Chrome,1185,747,,,,,1,785,,,,,,,,,,,,,,,,,H,181,star,1,0,,,,,,,,,,,,,,,,switch,number,numSwt,k,0.557,Hi,,,,,,0,,,,,,,,low,31,0,31,0,1,,,,,,,,,
292768,2022-11-15_13h27.51.719,vts_reward_expectancy_bt,2022.2.4,MacIntel,60.0024001,Chrome,1185,747,,,,,0,785,,,,,,,,,,,,,,,,,D,160,star,1,0,,,,,,,,,,,,,,,,switch,letter,lettSwt,d,1.0228,Hi,,,,,,1,,,,,,space,2.0276,low,0,0,0,0,1,,,,,,,,,
292768,2022-11-15_13h27.51.719,vts_reward_expectancy_bt,2022.2.4,MacIntel,60.0024001,Chrome,1185,747,,,,,10,795,,,,,,,,,,,,,,,,,U,139,hexagon,1,0,,,,,,,,,,,,,,,,repeat,letter,lettRpt,f,0.606,Lo,,,,,,1,,,,,,,,low,1,0,1,0,1,,,,,,,,,
292768,2022-11-15_13h27.51.719,vts_reward_expectancy_bt,2022.2.4,MacIntel,60.0024001,Chrome,1185,747,,,,,1,796,,,,,,,,,,,,,,,,,Y,167,triangle,1,0,,,,,,,,,,,,,,,,switch,number,numSwt,k,0.5561,Lo,,,,,,1,,,,,,,,low,2,0,2,0,1,,,,,,,,,
292768,2022-11-15_13h27.51.719,vts_reward_expectancy_bt,2022.2.4,MacIntel,60.0024001,Chrome,1185,747,,,,,0,796,,,,,,,,,,,,,,,,,B,181,circle,1,0,,,,,,,,,,,,,,,,repeat,number,numRpt,k,0.7082,Hi,,,,,,1,,,,,,,,low,3,0,3,0,1,,,,,,,,,
292768,2022-11-15_13h27.51.719,vts_reward_expectancy_bt,2022.2.4,MacIntel,60.0024001,Chrome,1185,747,,,,,0,796,,,,,,,,,,,,,,,,,W,174,star,1,0,,,,,,,,,,,,,,,,repeat,number,numRpt,k,0.6747,Hi,,,,,,1,,,,,,,,low,4,0,4,0,1,,,,,,,,,
292768,2022-11-15_13h27.51.719,vts_reward_expectancy_bt,2022.2.4,MacIntel,60.0024001,Chrome,1185,747,,,,,0,796,,,,,,,,,,,,,,,,,F,146,hexagon,0,0,,,,,,,,,,,,,,,,repeat,number,NA,k,0.3414,Hi,,,,,,1,,,,,,,,low,5,0,5,0,1,,,,,,,,,
292768,2022-11-15_13h27.51.719,vts_reward_expectancy_bt,2022.2.4,MacIntel,60.0024001,Chrome,1185,747,,,,,10,806,,,,,,,,,,,,,,,,,S,132,triangle,1,1,,,,,,,,,,,,,,,,repeat,number,numRpt,j,0.4749,Lo,,,,,,1,,,,,,,,low,6,0,6,0,1,,,,,,,,,
292768,2022-11-15_13h27.51.719,vts_reward_expectancy_bt,2022.2.4,MacIntel,60.0024001,Chrome,1185,747,,,,,10,816,,,,,,,,,,,,,,,,,H,125,circle,1,0,,,,,,,,,,,,,,,,switch,letter,lettSwt,d,0.5104,Hi,,,,,,1,,,,,,,,low,7,0,7,0,1,,,,,,,,,
292768,2022-11-15_13h27.51.719,vts_reward_expectancy_bt,2022.2.4,MacIntel,60.0024001,Chrome,1185,747,,,,,1,817,,,,,,,,,,,,,,,,,D,160,circle,1,0,,,,,,,,,,,,,,,,repeat,letter,lettRpt,d,0.5557,Hi,,,,,,1,,,,,,,,low,8,0,8,0,1,,,,,,,,,
292768,2022-11-15_13h27.51.719,vts_reward_expectancy_bt,2022.2.4,MacIntel,60.0024001,Chrome,1185,747,,,,,1,818,,,,,,,,,,,,,,,,,U,139,triangle,1,0,,,,,,,,,,,,,,,,repeat,letter,lettRpt,f,0.6127,Lo,,,,,,1,,,,,,,,low,9,0,9,0,1,,,,,,,,,
292768,2022-11-15_13h27.51.719,vts_reward_expectancy_bt,2022.2.4,MacIntel,60.0024001,Chrome,1185,747,,,,,0,818,,,,,,,,,,,,,,,,,Y,167,star,0,0,,,,,,,,,,,,,,,,switch,number,NA,j,0.6287,Lo,,,,,,1,,,,,,,,low,10,0,10,0,1,,,,,,,,,
292768,2022-11-15_13h27.51.719,vts_reward_expectancy_bt,2022.2.4,MacIntel,60.0024001,Chrome,1185,747,,,,,1,819,,,,,,,,,,,,,,,,,B,181,hexagon,1,1,,,,,,,,,,,,,,,,repeat,number,numRpt,k,0.546,Lo,,,,,,1,,,,,,,,low,11,0,11,0,1,,,,,,,,,
292768,2022-11-15_13h27.51.719,vts_reward_expectancy_bt,2022.2.4,MacIntel,60.0024001,Chrome,1185,747,,,,,10,829,,,,,,,,,,,,,,,,,W,174,star,1,0,,,,,,,,,,,,,,,,switch,letter,lettSwt,f,0.6249,Hi,,,,,,1,,,,,,,,low,12,0,12,0,1,,,,,,,,,
292768,2022-11-15_13h27.51.719,vts_reward_expectancy_bt,2022.2.4,MacIntel,60.0024001,Chrome,1185,747,,,,,1,830,,,,,,,,,,,,,,,,,F,146,hexagon,1,0,,,,,,,,,,,,,,,,repeat,letter,lettRpt,d,0.7561,Lo,,,,,,1,,,,,,,,low,13,0,13,0,1,,,,,,,,,
292768,2022-11-15_13h27.51.719,vts_reward_expectancy_bt,2022.2.4,MacIntel,60.0024001,Chrome,1185,747,,,,,0,830,,,,,,,,,,,,,,,,,S,132,circle,0,0,,,,,,,,,,,,,,,,switch,number,NA,k,0.8565,Lo,,,,,,1,,,,,,,,low,14,0,14,0,1,,,,,,,,,
292768,2022-11-15_13h27.51.719,vts_reward_expectancy_bt,2022.2.4,MacIntel,60.0024001,Chrome,1185,747,,,,,1,831,,,,,,,,,,,,,,,,,H,125,triangle,1,1,,,,,,,,,,,,,,,,switch,letter,lettSwt,d,1.156,Lo,,,,,,1,,,,,,,,low,15,0,15,0,1,,,,,,,,,
292768,2022-11-15_13h27.51.719,vts_reward_expectancy_bt,2022.2.4,MacIntel,60.0024001,Chrome,1185,747,,,,,10,841,,,,,,,,,,,,,,,,,Y,167,circle,1,0,,,,,,,,,,,,,,,,repeat,letter,lettRpt,f,0.7411,Hi,,,,,,1,,,,,,,,low,16,0,16,0,1,,,,,,,,,
292768,2022-11-15_13h27.51.719,vts_reward_expectancy_bt,2022.2.4,MacIntel,60.0024001,Chrome,1185,747,,,,,1,842,,,,,,,,,,,,,,,,,W,174,triangle,1,0,,,,,,,,,,,,,,,,repeat,letter,lettRpt,f,0.6722,Lo,,,,,,1,,,,,,,,low,17,0,17,0,1,,,,,,,,,
292768,2022-11-15_13h27.51.719,vts_reward_expectancy_bt,2022.2.4,MacIntel,60.0024001,Chrome,1185,747,,,,,1,843,,,,,,,,,,,,,,,,,U,146,hexagon,1,0,,,,,,,,,,,,,,,,switch,number,numSwt,j,0.6887,Lo,,,,,,1,,,,,,,,low,18,0,18,0,1,,,,,,,,,
292768,2022-11-15_13h27.51.719,vts_reward_expectancy_bt,2022.2.4,MacIntel,60.0024001,Chrome,1185,747,,,,,0,843,,,,,,,,,,,,,,,,,F,139,star,1,0,,,,,,,,,,,,,,,,repeat,number,numRpt,j,0.6391,Hi,,,,,,1,,,,,,,,low,19,0,19,0,1,,,,,,,,,
292768,2022-11-15_13h27.51.719,vts_reward_expectancy_bt,2022.2.4,MacIntel,60.0024001,Chrome,1185,747,,,,,0,843,,,,,,,,,,,,,,,,,H,181,circle,0,0,,,,,,,,,,,,,,,,repeat,number,NA,j,0.5771,Hi,,,,,,1,,,,,,,,low,20,0,20,0,1,,,,,,,,,
292768,2022-11-15_13h27.51.719,vts_reward_expectancy_bt,2022.2.4,MacIntel,60.0024001,Chrome,1185,747,,,,,10,853,,,,,,,,,,,,,,,,,B,160,triangle,1,1,,,,,,,,,,,,,,,,repeat,number,numRpt,k,0.5731,Lo,,,,,,1,,,,,,,,low,21,0,21,0,1,,,,,,,,,
292768,2022-11-15_13h27.51.719,vts_reward_expectancy_bt,2022.2.4,MacIntel,60.0024001,Chrome,1185,747,,,,,1,854,,,,,,,,,,,,,,,,,S,125,star,1,0,,,,,,,,,,,,,,,,switch,letter,lettSwt,f,0.5916,Hi,,,,,,1,,,,,,,,low,22,0,22,0,1,,,,,,,,,
292768,2022-11-15_13h27.51.719,vts_reward_expectancy_bt,2022.2.4,MacIntel,60.0024001,Chrome,1185,747,,,,,10,864,,,,,,,,,,,,,,,,,D,132,hexagon,1,0,,,,,,,,,,,,,,,,repeat,letter,lettRpt,d,0.5236,Lo,,,,,,1,,,,,,,,low,23,0,23,0,1,,,,,,,,,
292768,2022-11-15_13h27.51.719,vts_reward_expectancy_bt,2022.2.4,MacIntel,60.0024001,Chrome,1185,747,,,,,10,874,,,,,,,,,,,,,,,,,S,125,circle,1,0,,,,,,,,,,,,,,,,repeat,letter,lettRpt,f,0.4395,Hi,,,,,,1,,,,,,,,low,24,0,24,0,1,,,,,,,,,
292768,2022-11-15_13h27.51.719,vts_reward_expectancy_bt,2022.2.4,MacIntel,60.0024001,Chrome,1185,747,,,,,10,884,,,,,,,,,,,,,,,,,W,139,triangle,1,0,,,,,,,,,,,,,,,,repeat,letter,lettRpt,f,0.6569,Lo,,,,,,1,,,,,,,,low,25,0,25,0,1,,,,,,,,,
292768,2022-11-15_13h27.51.719,vts_reward_expectancy_bt,2022.2.4,MacIntel,60.0024001,Chrome,1185,747,,,,,10,894,,,,,,,,,,,,,,,,,D,160,hexagon,1,0,,,,,,,,,,,,,,,,repeat,letter,lettRpt,d,0.6933,Lo,,,,,,1,,,,,,,,low,26,0,26,0,1,,,,,,,,,
292768,2022-11-15_13h27.51.719,vts_reward_expectancy_bt,2022.2.4,MacIntel,60.0024001,Chrome,1185,747,,,,,1,895,,,,,,,,,,,,,,,,,U,181,star,1,0,,,,,,,,,,,,,,,,repeat,letter,lettRpt,f,0.54,Hi,,,,,,1,,,,,,,,low,27,0,27,0,1,,,,,,,,,
292768,2022-11-15_13h27.51.719,vts_reward_expectancy_bt,2022.2.4,MacIntel,60.0024001,Chrome,1185,747,,,,,1,896,,,,,,,,,,,,,,,,,B,132,triangle,1,0,,,,,,,,,,,,,,,,repeat,letter,lettRpt,d,0.6448,Lo,,,,,,1,,,,,,,,low,28,0,28,0,1,,,,,,,,,
292768,2022-11-15_13h27.51.719,vts_reward_expectancy_bt,2022.2.4,MacIntel,60.0024001,Chrome,1185,747,,,,,0,896,,,,,,,,,,,,,,,,,H,174,circle,1,0,,,,,,,,,,,,,,,,repeat,letter,lettRpt,d,1.0564,Hi,,,,,,1,,,,,,,,low,29,0,29,0,1,,,,,,,,,
292768,2022-11-15_13h27.51.719,vts_reward_expectancy_bt,2022.2.4,MacIntel,60.0024001,Chrome,1185,747,,,,,10,906,,,,,,,,,,,,,,,,,F,146,star,1,0,,,,,,,,,,,,,,,,repeat,letter,lettRpt,d,0.5915,Hi,,,,,,1,,,,,,,,low,30,0,30,0,1,,,,,,,,,
292768,2022-11-15_13h27.51.719,vts_reward_expectancy_bt,2022.2.4,MacIntel,60.0024001,Chrome,1185,747,,,,,1,907,,,,,,,,,,,,,,,,,Y,167,hexagon,1,0,,,,,,,,,,,,,,,,repeat,letter,lettRpt,f,0.5226,Lo,,,,,,1,,,,,,,,low,31,0,31,0,1,,,,,,,,,
292768,2022-11-15_13h27.51.719,vts_reward_expectancy_bt,2022.2.4,MacIntel,60.0024001,Chrome,1185,747,,,,,0,907,,,,,,,,,,,,,,,,,U,132,circle,0,0,,,,,,,,,,,,,,,,repeat,letter,NA,d,0.6592,Lo,,,,,,2,,,,,,space,1.2376,low,0,0,0,0,1,,,,,,,,,
292768,2022-11-15_13h27.51.719,vts_reward_expectancy_bt,2022.2.4,MacIntel,60.0024001,Chrome,1185,747,,,,,0,907,,,,,,,,,,,,,,,,,D,181,star,0,1,,,,,,,,,,,,,,,,repeat,letter,NA,f,0.5266,Lo,,,,,,2,,,,,,,,low,1,0,1,0,1,,,,,,,,,
292768,2022-11-15_13h27.51.719,vts_reward_expectancy_bt,2022.2.4,MacIntel,60.0024001,Chrome,1185,747,,,,,1,908,,,,,,,,,,,,,,,,,B,125,hexagon,1,1,,,,,,,,,,,,,,,,repeat,letter,lettRpt,d,0.5749,Lo,,,,,,2,,,,,,,,low,2,0,2,0,1,,,,,,,,,
292768,2022-11-15_13h27.51.719,vts_reward_expectancy_bt,2022.2.4,MacIntel,60.0024001,Chrome,1185,747,,,,,1,909,,,,,,,,,,,,,,,,,S,139,triangle,1,0,,,,,,,,,,,,,,,,switch,number,numSwt,j,0.6906,Lo,,,,,,2,,,,,,,,low,3,0,3,0,1,,,,,,,,,
292768,2022-11-15_13h27.51.719,vts_reward_expectancy_bt,2022.2.4,MacIntel,60.0024001,Chrome,1185,747,,,,,0,909,,,,,,,,,,,,,,,,,Y,167,circle,1,0,,,,,,,,,,,,,,,,repeat,number,numRpt,k,0.6878,Hi,,,,,,2,,,,,,,,low,4,0,4,0,1,,,,,,,,,
292768,2022-11-15_13h27.51.719,vts_reward_expectancy_bt,2022.2.4,MacIntel,60.0024001,Chrome,1185,747,,,,,10,919,,,,,,,,,,,,,,,,,F,174,star,1,0,,,,,,,,,,,,,,,,repeat,number,numRpt,k,0.4913,Hi,,,,,,2,,,,,,,,low,5,0,5,0,1,,,,,,,,,
292768,2022-11-15_13h27.51.719,vts_reward_expectancy_bt,2022.2.4,MacIntel,60.0024001,Chrome,1185,747,,,,,1,920,,,,,,,,,,,,,,,,,W,160,hexagon,1,0,,,,,,,,,,,,,,,,repeat,number,numRpt,k,0.5567,Lo,,,,,,2,,,,,,,,low,6,0,6,0,1,,,,,,,,,
292768,2022-11-15_13h27.51.719,vts_reward_expectancy_bt,2022.2.4,MacIntel,60.0024001,Chrome,1185,747,,,,,1,921,,,,,,,,,,,,,,,,,H,146,triangle,1,0,,,,,,,,,,,,,,,,repeat,number,numRpt,j,0.549,Lo,,,,,,2,,,,,,,,low,7,0,7,0,1,,,,,,,,,
292768,2022-11-15_13h27.51.719,vts_reward_expectancy_bt,2022.2.4,MacIntel,60.0024001,Chrome,1185,747,,,,,10,931,,,,,,,,,,,,,,,,,U,132,circle,1,0,,,,,,,,,,,,,,,,repeat,number,numRpt,j,0.5378,Hi,,,,,,2,,,,,,,,low,8,0,8,0,1,,,,,,,,,
292768,2022-11-15_13h27.51.719,vts_reward_expectancy_bt,2022.2.4,MacIntel,60.0024001,Chrome,1185,747,,,,,1,932,,,,,,,,,,,,,,,,,D,181,star,1,0,,,,,,,,,,,,,,,,repeat,number,numRpt,k,0.5378,Hi,,,,,,2,,,,,,,,low,9,0,9,0,1,,,,,,,,,
292768,2022-11-15_13h27.51.719,vts_reward_expectancy_bt,2022.2.4,MacIntel,60.0024001,Chrome,1185,747,,,,,10,942,,,,,,,,,,,,,,,,,B,125,triangle,1,0,,,,,,,,,,,,,,,,repeat,number,numRpt,j,0.5498,Lo,,,,,,2,,,,,,,,low,10,0,10,0,1,,,,,,,,,
292768,2022-11-15_13h27.51.719,vts_reward_expectancy_bt,2022.2.4,MacIntel,60.0024001,Chrome,1185,747,,,,,1,943,,,,,,,,,,,,,,,,,S,139,hexagon,1,0,,,,,,,,,,,,,,,,switch,letter,lettSwt,f,0.5568,Lo,,,,,,2,,,,,,,,low,11,0,11,0,1,,,,,,,,,
292768,2022-11-15_13h27.51.719,vts_reward_expectancy_bt,2022.2.4,MacIntel,60.0024001,Chrome,1185,747,,,,,0,943,,,,,,,,,,,,,,,,,Y,167,circle,1,0,,,,,,,,,,,,,,,,repeat,letter,lettRpt,f,0.6506,Hi,,,,,,2,,,,,,,,low,12,0,12,0,1,,,,,,,,,
292768,2022-11-15_13h27.51.719,vts_reward_expectancy_bt,2022.2.4,MacIntel,60.0024001,Chrome,1185,747,,,,,1,944,,,,,,,,,,,,,,,,,F,174,hexagon,1,0,,,,,,,,,,,,,,,,repeat,letter,lettRpt,d,0.4697,Lo,,,,,,2,,,,,,,,low,13,0,13,0,1,,,,,,,,,
292768,2022-11-15_13h27.51.719,vts_reward_expectancy_bt,2022.2.4,MacIntel,60.0024001,Chrome,1185,747,,,,,1,945,,,,,,,,,,,,,,,,,W,160,star,1,0,,,,,,,,,,,,,,,,repeat,letter,lettRpt,f,0.445,Hi,,,,,,2,,,,,,,,low,14,0,14,0,1,,,,,,,,,
292768,2022-11-15_13h27.51.719,vts_reward_expectancy_bt,2022.2.4,MacIntel,60.0024001,Chrome,1185,747,,,,,1,946,,,,,,,,,,,,,,,,,H,146,triangle,1,0,,,,,,,,,,,,,,,,repeat,letter,lettRpt,d,0.5805,Lo,,,,,,2,,,,,,,,low,15,0,15,0,1,,,,,,,,,
292768,2022-11-15_13h27.51.719,vts_reward_expectancy_bt,2022.2.4,MacIntel,60.0024001,Chrome,1185,747,,,,,10,956,,,,,,,,,,,,,,,,,D,139,triangle,1,0,,,,,,,,,,,,,,,,switch,number,numSwt,j,0.8248,Lo,,,,,,2,,,,,,,,low,16,0,16,0,1,,,,,,,,,
292768,2022-11-15_13h27.51.719,vts_reward_expectancy_bt,2022.2.4,MacIntel,60.0024001,Chrome,1185,747,,,,,1,957,,,,,,,,,,,,,,,,,Y,167,star,1,0,,,,,,,,,,,,,,,,repeat,number,numRpt,k,0.458,Hi,,,,,,2,,,,,,,,low,17,0,17,0,1,,,,,,,,,
292768,2022-11-15_13h27.51.719,vts_reward_expectancy_bt,2022.2.4,MacIntel,60.0024001,Chrome,1185,747,,,,,0,957,,,,,,,,,,,,,,,,,W,160,circle,1,0,,,,,,,,,,,,,,,,repeat,number,numRpt,k,0.9208,Hi,,,,,,2,,,,,,,,low,18,0,18,0,1,,,,,,,,,
292768,2022-11-15_13h27.51.719,vts_reward_expectancy_bt,2022.2.4,MacIntel,60.0024001,Chrome,1185,747,,,,,10,967,,,,,,,,,,,,,,,,,H,181,hexagon,1,0,,,,,,,,,,,,,,,,repeat,number,numRpt,k,0.5734,Lo,,,,,,2,,,,,,,,low,19,0,19,0,1,,,,,,,,,
292768,2022-11-15_13h27.51.719,vts_reward_expectancy_bt,2022.2.4,MacIntel,60.0024001,Chrome,1185,747,,,,,10,977,,,,,,,,,,,,,,,,,B,125,triangle,1,0,,,,,,,,,,,,,,,,repeat,number,numRpt,j,0.598,Lo,,,,,,2,,,,,,,,low,20,0,20,0,1,,,,,,,,,
292768,2022-11-15_13h27.51.719,vts_reward_expectancy_bt,2022.2.4,MacIntel,60.0024001,Chrome,1185,747,,,,,0,977,,,,,,,,,,,,,,,,,U,146,star,1,0,,,,,,,,,,,,,,,,repeat,number,numRpt,j,0.6072,Hi,,,,,,2,,,,,,,,low,21,0,21,0,1,,,,,,,,,
292768,2022-11-15_13h27.51.719,vts_reward_expectancy_bt,2022.2.4,MacIntel,60.0024001,Chrome,1185,747,,,,,1,978,,,,,,,,,,,,,,,,,F,174,hexagon,1,0,,,,,,,,,,,,,,,,repeat,number,numRpt,k,0.512,Lo,,,,,,2,,,,,,,,low,22,0,22,0,1,,,,,,,,,
292768,2022-11-15_13h27.51.719,vts_reward_expectancy_bt,2022.2.4,MacIntel,60.0024001,Chrome,1185,747,,,,,10,988,,,,,,,,,,,,,,,,,S,132,circle,1,0,,,,,,,,,,,,,,,,repeat,number,numRpt,j,0.5179,Hi,,,,,,2,,,,,,,,low,23,0,23,0,1,,,,,,,,,
292768,2022-11-15_13h27.51.719,vts_reward_expectancy_bt,2022.2.4,MacIntel,60.0024001,Chrome,1185,747,,,,,1,989,,,,,,,,,,,,,,,,,F,160,star,1,0,,,,,,,,,,,,,,,,repeat,number,numRpt,k,0.4652,Hi,,,,,,2,,,,,,,,low,24,0,24,0,1,,,,,,,,,
292768,2022-11-15_13h27.51.719,vts_reward_expectancy_bt,2022.2.4,MacIntel,60.0024001,Chrome,1185,747,,,,,0,989,,,,,,,,,,,,,,,,,W,132,circle,1,0,,,,,,,,,,,,,,,,repeat,number,numRpt,j,0.5655,Hi,,,,,,2,,,,,,,,low,25,0,25,0,1,,,,,,,,,
292768,2022-11-15_13h27.51.719,vts_reward_expectancy_bt,2022.2.4,MacIntel,60.0024001,Chrome,1185,747,,,,,1,990,,,,,,,,,,,,,,,,,Y,181,hexagon,1,0,,,,,,,,,,,,,,,,repeat,number,numRpt,k,0.5987,Lo,,,,,,2,,,,,,,,low,26,0,26,0,1,,,,,,,,,
292768,2022-11-15_13h27.51.719,vts_reward_expectancy_bt,2022.2.4,MacIntel,60.0024001,Chrome,1185,747,,,,,1,991,,,,,,,,,,,,,,,,,D,167,triangle,1,0,,,,,,,,,,,,,,,,switch,letter,lettSwt,d,0.5076,Lo,,,,,,2,,,,,,,,low,27,0,27,0,1,,,,,,,,,
292768,2022-11-15_13h27.51.719,vts_reward_expectancy_bt,2022.2.4,MacIntel,60.0024001,Chrome,1185,747,,,,,0,991,,,,,,,,,,,,,,,,,S,139,star,1,0,,,,,,,,,,,,,,,,repeat,letter,lettRpt,f,0.692,Hi,,,,,,2,,,,,,,,low,28,0,28,0,1,,,,,,,,,
292768,2022-11-15_13h27.51.719,vts_reward_expectancy_bt,2022.2.4,MacIntel,60.0024001,Chrome,1185,747,,,,,10,1001,,,,,,,,,,,,,,,,,B,146,circle,1,0,,,,,,,,,,,,,,,,repeat,letter,lettRpt,d,0.5444,Hi,,,,,,2,,,,,,,,low,29,0,29,0,1,,,,,,,,,
292768,2022-11-15_13h27.51.719,vts_reward_expectancy_bt,2022.2.4,MacIntel,60.0024001,Chrome,1185,747,,,,,1,1002,,,,,,,,,,,,,,,,,U,174,triangle,1,0,,,,,,,,,,,,,,,,repeat,letter,lettRpt,f,0.5452,Lo,,,,,,2,,,,,,,,low,30,0,30,0,1,,,,,,,,,
292768,2022-11-15_13h27.51.719,vts_reward_expectancy_bt,2022.2.4,MacIntel,60.0024001,Chrome,1185,747,,,,,10,1012,,,,,,,,,,,,,,,,,H,125,hexagon,1,0,,,,,,,,,,,,,,,,repeat,letter,lettRpt,d,0.6237,Lo,,,,,,2,,,,,,,,low,31,0,31,0,1,,,,,,,,,
292768,2022-11-15_13h27.51.719,vts_reward_expectancy_bt,2022.2.4,MacIntel,60.0024001,Chrome,1185,747,,,,,10,1022,,,,,,,,,,,,,,,,,W,132,triangle,1,0,,,,,,,,,,,,,,,,repeat,letter,lettRpt,f,0.8488,Lo,,,,,,3,,,,,,space,1.3185,low,0,0,0,0,1,,,,,,,,,
292768,2022-11-15_13h27.51.719,vts_reward_expectancy_bt,2022.2.4,MacIntel,60.0024001,Chrome,1185,747,,,,,0,1022,,,,,,,,,,,,,,,,,F,181,star,1,0,,,,,,,,,,,,,,,,repeat,letter,lettRpt,d,0.6243,Hi,,,,,,3,,,,,,,,low,1,0,1,0,1,,,,,,,,,
292768,2022-11-15_13h27.51.719,vts_reward_expectancy_bt,2022.2.4,MacIntel,60.0024001,Chrome,1185,747,,,,,1,1023,,,,,,,,,,,,,,,,,H,160,hexagon,1,0,,,,,,,,,,,,,,,,repeat,letter,lettRpt,d,0.6415,Lo,,,,,,3,,,,,,,,low,2,0,2,0,1,,,,,,,,,
292768,2022-11-15_13h27.51.719,vts_reward_expectancy_bt,2022.2.4,MacIntel,60.0024001,Chrome,1185,747,,,,,0,1023,,,,,,,,,,,,,,,,,S,146,circle,1,0,,,,,,,,,,,,,,,,switch,number,numSwt,j,0.7237,Hi,,,,,,3,,,,,,,,low,3,0,3,0,1,,,,,,,,,
292768,2022-11-15_13h27.51.719,vts_reward_expectancy_bt,2022.2.4,MacIntel,60.0024001,Chrome,1185,747,,,,,1,1024,,,,,,,,,,,,,,,,,B,125,triangle,1,0,,,,,,,,,,,,,,,,repeat,number,numRpt,j,0.4732,Lo,,,,,,3,,,,,,,,low,4,0,4,0,1,,,,,,,,,
292768,2022-11-15_13h27.51.719,vts_reward_expectancy_bt,2022.2.4,MacIntel,60.0024001,Chrome,1185,747,,,,,10,1034,,,,,,,,,,,,,,,,,D,174,star,1,0,,,,,,,,,,,,,,,,repeat,number,numRpt,k,0.4907,Hi,,,,,,3,,,,,,,,low,5,0,5,0,1,,,,,,,,,
292768,2022-11-15_13h27.51.719,vts_reward_expectancy_bt,2022.2.4,MacIntel,60.0024001,Chrome,1185,747,,,,,10,1044,,,,,,,,,,,,,,,,,U,139,hexagon,1,0,,,,,,,,,,,,,,,,repeat,number,numRpt,j,0.5952,Lo,,,,,,3,,,,,,,,low,6,0,6,0,1,,,,,,,,,
292768,2022-11-15_13h27.51.719,vts_reward_expectancy_bt,2022.2.4,MacIntel,60.0024001,Chrome,1185,747,,,,,0,1044,,,,,,,,,,,,,,,,,Y,167,circle,0,0,,,,,,,,,,,,,,,,repeat,number,NA,j,0.4633,Lo,,,,,,3,,,,,,,,low,7,0,7,0,1,,,,,,,,,
292768,2022-11-15_13h27.51.719,vts_reward_expectancy_bt,2022.2.4,MacIntel,60.0024001,Chrome,1185,747,,,,,10,1054,,,,,,,,,,,,,,,,,W,132,hexagon,1,1,,,,,,,,,,,,,,,,repeat,number,numRpt,j,0.5228,Lo,,,,,,3,,,,,,,,low,8,0,8,0,1,,,,,,,,,
292768,2022-11-15_13h27.51.719,vts_reward_expectancy_bt,2022.2.4,MacIntel,60.0024001,Chrome,1185,747,,,,,10,1064,,,,,,,,,,,,,,,,,F,181,star,1,0,,,,,,,,,,,,,,,,repeat,number,numRpt,k,0.5076,Hi,,,,,,3,,,,,,,,low,9,0,9,0,1,,,,,,,,,
292768,2022-11-15_13h27.51.719,vts_reward_expectancy_bt,2022.2.4,MacIntel,60.0024001,Chrome,1185,747,,,,,0,1064,,,,,,,,,,,,,,,,,H,160,circle,1,0,,,,,,,,,,,,,,,,repeat,number,numRpt,k,0.5567,Hi,,,,,,3,,,,,,,,low,10,0,10,0,1,,,,,,,,,
292768,2022-11-15_13h27.51.719,vts_reward_expectancy_bt,2022.2.4,MacIntel,60.0024001,Chrome,1185,747,,,,,0,1064,,,,,,,,,,,,,,,,,S,146,triangle,0,0,,,,,,,,,,,,,,,,repeat,number,NA,k,0.457,Hi,,,,,,3,,,,,,,,low,11,0,11,0,1,,,,,,,,,
292768,2022-11-15_13h27.51.719,vts_reward_expectancy_bt,2022.2.4,MacIntel,60.0024001,Chrome,1185,747,,,,,0,1064,,,,,,,,,,,,,,,,,B,125,circle,1,1,,,,,,,,,,,,,,,,repeat,number,numRpt,j,0.5739,Hi,,,,,,3,,,,,,,,low,12,0,12,0,1,,,,,,,,,
292768,2022-11-15_13h27.51.719,vts_reward_expectancy_bt,2022.2.4,MacIntel,60.0024001,Chrome,1185,747,,,,,1,1065,,,,,,,,,,,,,,,,,D,174,hexagon,1,0,,,,,,,,,,,,,,,,repeat,number,numRpt,k,0.4275,Lo,,,,,,3,,,,,,,,low,13,0,13,0,1,,,,,,,,,
292768,2022-11-15_13h27.51.719,vts_reward_expectancy_bt,2022.2.4,MacIntel,60.0024001,Chrome,1185,747,,,,,10,1075,,,,,,,,,,,,,,,,,U,139,triangle,1,0,,,,,,,,,,,,,,,,switch,letter,lettSwt,f,0.4793,Lo,,,,,,3,,,,,,,,low,14,0,14,0,1,,,,,,,,,
292768,2022-11-15_13h27.51.719,vts_reward_expectancy_bt,2022.2.4,MacIntel,60.0024001,Chrome,1185,747,,,,,0,1075,,,,,,,,,,,,,,,,,Y,167,star,0,0,,,,,,,,,,,,,,,,repeat,letter,NA,d,0.4546,Lo,,,,,,3,,,,,,,,low,15,0,15,0,1,,,,,,,,,
292768,2022-11-15_13h27.51.719,vts_reward_expectancy_bt,2022.2.4,MacIntel,60.0024001,Chrome,1185,747,,,,,1,1076,,,,,,,,,,,,,,,,,D,132,hexagon,1,1,,,,,,,,,,,,,,,,repeat,letter,lettRpt,d,0.64,Lo,,,,,,3,,,,,,,,low,16,0,16,0,1,,,,,,,,,
292768,2022-11-15_13h27.51.719,vts_reward_expectancy_bt,2022.2.4,MacIntel,60.0024001,Chrome,1185,747,,,,,1,1077,,,,,,,,,,,,,,,,,S,167,triangle,1,0,,,,,,,,,,,,,,,,repeat,letter,lettRpt,f,0.574,Lo,,,,,,3,,,,,,,,low,17,0,17,0,1,,,,,,,,,
292768,2022-11-15_13h27.51.719,vts_reward_expectancy_bt,2022.2.4,MacIntel,60.0024001,Chrome,1185,747,,,,,0,1077,,,,,,,,,,,,,,,,,F,160,star,1,0,,,,,,,,,,,,,,,,repeat,letter,lettRpt,d,0.6037,Hi,,,,,,3,,,,,,,,low,18,0,18,0,1,,,,,,,,,
292768,2022-11-15_13h27.51.719,vts_reward_expectancy_bt,2022.2.4,MacIntel,60.0024001,Chrome,1185,747,,,,,1,1078,,,,,,,,,,,,,,,,,B,146,circle,1,0,,,,,,,,,,,,,,,,repeat,letter,lettRpt,d,0.5379,Hi,,,,,,3,,,,,,,,low,19,0,19,0,1,,,,,,,,,
292768,2022-11-15_13h27.51.719,vts_reward_expectancy_bt,2022.2.4,MacIntel,60.0024001,Chrome,1185,747,,,,,0,1078,,,,,,,,,,,,,,,,,W,125,triangle,0,0,,,,,,,,,,,,,,,,repeat,letter,NA,d,0.5348,Hi,,,,,,3,,,,,,,,low,20,0,20,0,1,,,,,,,,,
292768,2022-11-15_13h27.51.719,vts_reward_expectancy_bt,2022.2.4,MacIntel,60.0024001,Chrome,1185,747,,,,,0,1078,,,,,,,,,,,,,,,,,Y,174,star,1,1,,,,,,,,,,,,,,,,repeat,letter,lettRpt,f,0.6218,Hi,,,,,,3,,,,,,,,low,21,0,21,0,1,,,,,,,,,
292768,2022-11-15_13h27.51.719,vts_reward_expectancy_bt,2022.2.4,MacIntel,60.0024001,Chrome,1185,747,,,,,0,1078,,,,,,,,,,,,,,,,,U,181,circle,1,0,,,,,,,,,,,,,,,,repeat,letter,lettRpt,f,0.5595,Hi,,,,,,3,,,,,,,,low,22,0,22,0,1,,,,,,,,,
292768,2022-11-15_13h27.51.719,vts_reward_expectancy_bt,2022.2.4,MacIntel,60.0024001,Chrome,1185,747,,,,,1,1079,,,,,,,,,,,,,,,,,H,139,hexagon,1,0,,,,,,,,,,,,,,,,repeat,letter,lettRpt,d,0.5865,Lo,,,,,,3,,,,,,,,low,23,0,23,0,1,,,,,,,,,
292768,2022-11-15_13h27.51.719,vts_reward_expectancy_bt,2022.2.4,MacIntel,60.0024001,Chrome,1185,747,,,,,1,1080,,,,,,,,,,,,,,,,,D,160,hexagon,1,0,,,,,,,,,,,,,,,,switch,number,numSwt,k,0.4901,Lo,,,,,,3,,,,,,,,low,24,0,24,0,1,,,,,,,,,
292768,2022-11-15_13h27.51.719,vts_reward_expectancy_bt,2022.2.4,MacIntel,60.0024001,Chrome,1185,747,,,,,0,1080,,,,,,,,,,,,,,,,,F,139,star,1,0,,,,,,,,,,,,,,,,repeat,number,numRpt,j,0.6571,Hi,,,,,,3,,,,,,,,low,25,0,25,0,1,,,,,,,,,
292768,2022-11-15_13h27.51.719,vts_reward_expectancy_bt,2022.2.4,MacIntel,60.0024001,Chrome,1185,747,,,,,10,1090,,,,,,,,,,,,,,,,,S,125,triangle,1,0,,,,,,,,,,,,,,,,repeat,number,numRpt,j,0.7323,Lo,,,,,,3,,,,,,,,low,26,0,26,0,1,,,,,,,,,
292768,2022-11-15_13h27.51.719,vts_reward_expectancy_bt,2022.2.4,MacIntel,60.0024001,Chrome,1185,747,,,,,1,1091,,,,,,,,,,,,,,,,,B,146,circle,1,0,,,,,,,,,,,,,,,,repeat,number,numRpt,j,0.5285,Hi,,,,,,3,,,,,,,,low,27,0,27,0,1,,,,,,,,,
292768,2022-11-15_13h27.51.719,vts_reward_expectancy_bt,2022.2.4,MacIntel,60.0024001,Chrome,1185,747,,,,,10,1101,,,,,,,,,,,,,,,,,U,167,hexagon,1,0,,,,,,,,,,,,,,,,repeat,number,numRpt,k,0.6385,Lo,,,,,,3,,,,,,,,low,28,0,28,0,1,,,,,,,,,
292768,2022-11-15_13h27.51.719,vts_reward_expectancy_bt,2022.2.4,MacIntel,60.0024001,Chrome,1185,747,,,,,1,1102,,,,,,,,,,,,,,,,,H,181,triangle,1,0,,,,,,,,,,,,,,,,repeat,number,numRpt,k,0.7072,Lo,,,,,,3,,,,,,,,low,29,0,29,0,1,,,,,,,,,
292768,2022-11-15_13h27.51.719,vts_reward_expectancy_bt,2022.2.4,MacIntel,60.0024001,Chrome,1185,747,,,,,1,1103,,,,,,,,,,,,,,,,,W,174,circle,1,0,,,,,,,,,,,,,,,,repeat,number,numRpt,k,0.4756,Hi,,,,,,3,,,,,,,,low,30,0,30,0,1,,,,,,,,,
292768,2022-11-15_13h27.51.719,vts_reward_expectancy_bt,2022.2.4,MacIntel,60.0024001,Chrome,1185,747,,,,,0,1103,,,,,,,,,,,,,,,,,Y,132,star,1,0,,,,,,,,,,,,,,,,repeat,number,numRpt,j,0.6163,Hi,,,,,,3,,,,,,,,low,31,0,31,0,1,,,,,,,,,
292768,2022-11-15_13h27.51.719,vts_reward_expectancy_bt,2022.2.4,MacIntel,60.0024001,Chrome,1185,747,,,,,1,1104,,,,,,,,,,,,,,,,,W,132,triangle,1,0,,,,,,,,,,,,,,,,switch,letter,lettSwt,f,0.7651,Lo,,,,,,4,,,,,,space,0.8017,low,0,0,0,0,1,,,,,,,,,
292768,2022-11-15_13h27.51.719,vts_reward_expectancy_bt,2022.2.4,MacIntel,60.0024001,Chrome,1185,747,,,,,10,1114,,,,,,,,,,,,,,,,,H,146,hexagon,1,0,,,,,,,,,,,,,,,,repeat,letter,lettRpt,d,0.5734,Lo,,,,,,4,,,,,,,,low,1,0,1,0,1,,,,,,,,,
292768,2022-11-15_13h27.51.719,vts_reward_expectancy_bt,2022.2.4,MacIntel,60.0024001,Chrome,1185,747,,,,,1,1115,,,,,,,,,,,,,,,,,S,181,star,1,0,,,,,,,,,,,,,,,,repeat,letter,lettRpt,f,0.5816,Hi,,,,,,4,,,,,,,,low,2,0,2,0,1,,,,,,,,,
292768,2022-11-15_13h27.51.719,vts_reward_expectancy_bt,2022.2.4,MacIntel,60.0024001,Chrome,1185,747,,,,,10,1125,,,,,,,,,,,,,,,,,Y,160,circle,1,0,,,,,,,,,,,,,,,,repeat,letter,lettRpt,f,0.5324,Hi,,,,,,4,,,,,,,,low,3,0,3,0,1,,,,,,,,,
292768,2022-11-15_13h27.51.719,vts_reward_expectancy_bt,2022.2.4,MacIntel,60.0024001,Chrome,1185,747,,,,,10,1135,,,,,,,,,,,,,,,,,B,174,triangle,1,0,,,,,,,,,,,,,,,,switch,number,numSwt,k,0.9558,Lo,,,,,,4,,,,,,,,low,4,0,4,0,1,,,,,,,,,
292768,2022-11-15_13h27.51.719,vts_reward_expectancy_bt,2022.2.4,MacIntel,60.0024001,Chrome,1185,747,,,,,1,1136,,,,,,,,,,,,,,,,,U,125,hexagon,1,0,,,,,,,,,,,,,,,,repeat,number,numRpt,j,0.5552,Lo,,,,,,4,,,,,,,,low,5,0,5,0,1,,,,,,,,,
292768,2022-11-15_13h27.51.719,vts_reward_expectancy_bt,2022.2.4,MacIntel,60.0024001,Chrome,1185,747,,,,,10,1146,,,,,,,,,,,,,,,,,D,167,star,1,0,,,,,,,,,,,,,,,,repeat,number,numRpt,k,0.4627,Hi,,,,,,4,,,,,,,,low,6,0,6,0,1,,,,,,,,,
292768,2022-11-15_13h27.51.719,vts_reward_expectancy_bt,2022.2.4,MacIntel,60.0024001,Chrome,1185,747,,,,,0,1146,,,,,,,,,,,,,,,,,F,139,circle,1,0,,,,,,,,,,,,,,,,repeat,number,numRpt,j,0.641,Hi,,,,,,4,,,,,,,,low,7,0,7,0,1,,,,,,,,,
292768,2022-11-15_13h27.51.719,vts_reward_expectancy_bt,2022.2.4,MacIntel,60.0024001,Chrome,1185,747,,,,,1,1147,,,,,,,,,,,,,,,,,W,132,triangle,1,0,,,,,,,,,,,,,,,,repeat,number,numRpt,j,0.5075,Lo,,,,,,4,,,,,,,,low,8,0,8,0,1,,,,,,,,,
292768,2022-11-15_13h27.51.719,vts_reward_expectancy_bt,2022.2.4,MacIntel,60.0024001,Chrome,1185,747,,,,,0,1147,,,,,,,,,,,,,,,,,H,146,star,1,0,,,,,,,,,,,,,,,,repeat,number,numRpt,j,0.6402,Hi,,,,,,4,,,,,,,,low,9,0,9,0,1,,,,,,,,,
292768,2022-11-15_13h27.51.719,vts_reward_expectancy_bt,2022.2.4,MacIntel,60.0024001,Chrome,1185,747,,,,,0,1147,,,,,,,,,,,,,,,,,S,181,hexagon,0,0,,,,,,,,,,,,,,,,repeat,number,NA,j,0.3379,Hi,,,,,,4,,,,,,,,low,10,0,10,0,1,,,,,,,,,
292768,2022-11-15_13h27.51.719,vts_reward_expectancy_bt,2022.2.4,MacIntel,60.0024001,Chrome,1185,747,,,,,0,1147,,,,,,,,,,,,,,,,,Y,160,circle,0,1,,,,,,,,,,,,,,,,repeat,number,NA,j,0.6047,Hi,,,,,,4,,,,,,,,low,11,0,11,0,1,,,,,,,,,
292768,2022-11-15_13h27.51.719,vts_reward_expectancy_bt,2022.2.4,MacIntel,60.0024001,Chrome,1185,747,,,,,1,1148,,,,,,,,,,,,,,,,,B,174,hexagon,1,1,,,,,,,,,,,,,,,,repeat,number,numRpt,k,0.6739,Lo,,,,,,4,,,,,,,,low,12,0,12,0,1,,,,,,,,,
292768,2022-11-15_13h27.51.719,vts_reward_expectancy_bt,2022.2.4,MacIntel,60.0024001,Chrome,1185,747,,,,,0,1148,,,,,,,,,,,,,,,,,U,125,star,1,0,,,,,,,,,,,,,,,,repeat,number,numRpt,j,0.5795,Hi,,,,,,4,,,,,,,,low,13,0,13,0,1,,,,,,,,,
292768,2022-11-15_13h27.51.719,vts_reward_expectancy_bt,2022.2.4,MacIntel,60.0024001,Chrome,1185,747,,,,,0,1148,,,,,,,,,,,,,,,,,D,167,circle,0,0,,,,,,,,,,,,,,,,switch,letter,NA,f,0.5295,Hi,,,,,,4,,,,,,,,low,14,0,14,0,1,,,,,,,,,
292768,2022-11-15_13h27.51.719,vts_reward_expectancy_bt,2022.2.4,MacIntel,60.0024001,Chrome,1185,747,,,,,0,1148,,,,,,,,,,,,,,,,,F,139,triangle,0,1,,,,,,,,,,,,,,,,repeat,letter,NA,f,0.5405,Hi,,,,,,4,,,,,,,,low,15,0,15,0,1,,,,,,,,,
292768,2022-11-15_13h27.51.719,vts_reward_expectancy_bt,2022.2.4,MacIntel,60.0024001,Chrome,1185,747,,,,,10,1158,,,,,,,,,,,,,,,,,D,181,circle,1,1,,,,,,,,,,,,,,,,repeat,letter,lettRpt,d,0.4579,Hi,,,,,,4,,,,,,,,low,16,0,16,0,1,,,,,,,,,
292768,2022-11-15_13h27.51.719,vts_reward_expectancy_bt,2022.2.4,MacIntel,60.0024001,Chrome,1185,747,,,,,0,1158,,,,,,,,,,,,,,,,,F,125,triangle,0,0,,,,,,,,,,,,,,,,repeat,letter,NA,f,0.5238,Hi,,,,,,4,,,,,,,,low,17,0,17,0,1,,,,,,,,,
292768,2022-11-15_13h27.51.719,vts_reward_expectancy_bt,2022.2.4,MacIntel,60.0024001,Chrome,1185,747,,,,,1,1159,,,,,,,,,,,,,,,,,U,167,hexagon,1,1,,,,,,,,,,,,,,,,repeat,letter,lettRpt,f,0.7118,Lo,,,,,,4,,,,,,,,low,18,0,18,0,1,,,,,,,,,
292768,2022-11-15_13h27.51.719,vts_reward_expectancy_bt,2022.2.4,MacIntel,60.0024001,Chrome,1185,747,,,,,10,1169,,,,,,,,,,,,,,,,,H,132,star,1,0,,,,,,,,,,,,,,,,switch,number,numSwt,j,0.7229,Hi,,,,,,4,,,,,,,,low,19,0,19,0,1,,,,,,,,,
292768,2022-11-15_13h27.51.719,vts_reward_expectancy_bt,2022.2.4,MacIntel,60.0024001,Chrome,1185,747,,,,,10,1179,,,,,,,,,,,,,,,,,W,139,star,1,0,,,,,,,,,,,,,,,,repeat,number,numRpt,j,0.474,Hi,,,,,,4,,,,,,,,low,20,0,20,0,1,,,,,,,,,
292768,2022-11-15_13h27.51.719,vts_reward_expectancy_bt,2022.2.4,MacIntel,60.0024001,Chrome,1185,747,,,,,0,1179,,,,,,,,,,,,,,,,,B,146,triangle,0,0,,,,,,,,,,,,,,,,repeat,number,NA,k,0.8582,Hi,,,,,,4,,,,,,,,low,21,0,21,0,1,,,,,,,,,
292768,2022-11-15_13h27.51.719,vts_reward_expectancy_bt,2022.2.4,MacIntel,60.0024001,Chrome,1185,747,,,,,0,1179,,,,,,,,,,,,,,,,,S,174,circle,1,1,,,,,,,,,,,,,,,,repeat,number,numRpt,k,0.5758,Hi,,,,,,4,,,,,,,,low,22,0,22,0,1,,,,,,,,,
292768,2022-11-15_13h27.51.719,vts_reward_expectancy_bt,2022.2.4,MacIntel,60.0024001,Chrome,1185,747,,,,,1,1180,,,,,,,,,,,,,,,,,Y,160,hexagon,1,0,,,,,,,,,,,,,,,,repeat,number,numRpt,k,0.4917,Lo,,,,,,4,,,,,,,,low,23,0,23,0,1,,,,,,,,,
292768,2022-11-15_13h27.51.719,vts_reward_expectancy_bt,2022.2.4,MacIntel,60.0024001,Chrome,1185,747,,,,,1,1181,,,,,,,,,,,,,,,,,F,146,triangle,1,0,,,,,,,,,,,,,,,,repeat,number,numRpt,j,0.595,Lo,,,,,,4,,,,,,,,low,24,0,24,0,1,,,,,,,,,
292768,2022-11-15_13h27.51.719,vts_reward_expectancy_bt,2022.2.4,MacIntel,60.0024001,Chrome,1185,747,,,,,1,1182,,,,,,,,,,,,,,,,,Y,181,hexagon,1,0,,,,,,,,,,,,,,,,repeat,number,numRpt,k,0.4734,Lo,,,,,,4,,,,,,,,low,25,0,25,0,1,,,,,,,,,
292768,2022-11-15_13h27.51.719,vts_reward_expectancy_bt,2022.2.4,MacIntel,60.0024001,Chrome,1185,747,,,,,0,1182,,,,,,,,,,,,,,,,,D,132,star,1,0,,,,,,,,,,,,,,,,repeat,number,numRpt,j,0.6141,Hi,,,,,,4,,,,,,,,low,26,0,26,0,1,,,,,,,,,
292768,2022-11-15_13h27.51.719,vts_reward_expectancy_bt,2022.2.4,MacIntel,60.0024001,Chrome,1185,747,,,,,0,1182,,,,,,,,,,,,,,,,,W,160,circle,0,0,,,,,,,,,,,,,,,,repeat,number,NA,j,0.658,Hi,,,,,,4,,,,,,,,low,27,0,27,0,1,,,,,,,,,
292768,2022-11-15_13h27.51.719,vts_reward_expectancy_bt,2022.2.4,MacIntel,60.0024001,Chrome,1185,747,,,,,0,1182,,,,,,,,,,,,,,,,,U,139,triangle,0,1,,,,,,,,,,,,,,,,switch,letter,NA,d,0.6317,Hi,,,,,,4,,,,,,,,low,28,0,28,0,1,,,,,,,,,
292768,2022-11-15_13h27.51.719,vts_reward_expectancy_bt,2022.2.4,MacIntel,60.0024001,Chrome,1185,747,,,,,10,1192,,,,,,,,,,,,,,,,,H,167,hexagon,1,1,,,,,,,,,,,,,,,,repeat,letter,lettRpt,d,0.5471,Lo,,,,,,4,,,,,,,,low,29,0,29,0,1,,,,,,,,,
292768,2022-11-15_13h27.51.719,vts_reward_expectancy_bt,2022.2.4,MacIntel,60.0024001,Chrome,1185,747,,,,,0,1192,,,,,,,,,,,,,,,,,S,174,circle,1,0,,,,,,,,,,,,,,,,repeat,letter,lettRpt,f,0.7475,Hi,,,,,,4,,,,,,,,low,30,0,30,0,1,,,,,,,,,
292768,2022-11-15_13h27.51.719,vts_reward_expectancy_bt,2022.2.4,MacIntel,60.0024001,Chrome,1185,747,,,,,0,1192,,,,,,,,,,,,,,,,,B,125,star,1,0,,,,,,,,,,,,,,,,repeat,letter,lettRpt,d,0.6236,Hi,,,,,,4,,,,,,,,low,31,0,31,0,1,,,,,,,,,
292768,2022-11-15_13h27.51.719,vts_reward_expectancy_bt,2022.2.4,MacIntel,60.0024001,Chrome,1185,747,,,,,0,1192,,,,,,,,,,,,,,,,,S,139,circle,0,0,,,,,,,,,,,,,,,,repeat,letter,NA,d,0.7243,Hi,,,,,,5,,,,,,space,0.8281,low,0,0,0,0,1,,,,,,,,,
292768,2022-11-15_13h27.51.719,vts_reward_expectancy_bt,2022.2.4,MacIntel,60.0024001,Chrome,1185,747,,,,,0,1192,,,,,,,,,,,,,,,,,F,174,star,1,1,,,,,,,,,,,,,,,,repeat,letter,lettRpt,d,0.5911,Hi,,,,,,5,,,,,,,,low,1,0,1,0,1,,,,,,,,,
292768,2022-11-15_13h27.51.719,vts_reward_expectancy_bt,2022.2.4,MacIntel,60.0024001,Chrome,1185,747,,,,,1,1193,,,,,,,,,,,,,,,,,B,167,hexagon,1,0,,,,,,,,,,,,,,,,repeat,letter,lettRpt,d,0.5712,Lo,,,,,,5,,,,,,,,low,2,0,2,0,1,,,,,,,,,
292768,2022-11-15_13h27.51.719,vts_reward_expectancy_bt,2022.2.4,MacIntel,60.0024001,Chrome,1185,747,,,,,1,1194,,,,,,,,,,,,,,,,,D,146,triangle,1,0,,,,,,,,,,,,,,,,switch,number,numSwt,j,0.4411,Lo,,,,,,5,,,,,,,,low,3,0,3,0,1,,,,,,,,,
292768,2022-11-15_13h27.51.719,vts_reward_expectancy_bt,2022.2.4,MacIntel,60.0024001,Chrome,1185,747,,,,,10,1204,,,,,,,,,,,,,,,,,H,181,circle,1,0,,,,,,,,,,,,,,,,repeat,number,numRpt,k,0.4762,Hi,,,,,,5,,,,,,,,low,4,0,4,0,1,,,,,,,,,
292768,2022-11-15_13h27.51.719,vts_reward_expectancy_bt,2022.2.4,MacIntel,60.0024001,Chrome,1185,747,,,,,0,1204,,,,,,,,,,,,,,,,,U,125,star,1,0,,,,,,,,,,,,,,,,repeat,number,numRpt,j,0.5712,Hi,,,,,,5,,,,,,,,low,5,0,5,0,1,,,,,,,,,
292768,2022-11-15_13h27.51.719,vts_reward_expectancy_bt,2022.2.4,MacIntel,60.0024001,Chrome,1185,747,,,,,1,1205,,,,,,,,,,,,,,,,,W,132,hexagon,1,0,,,,,,,,,,,,,,,,repeat,number,numRpt,j,0.5606,Lo,,,,,,5,,,,,,,,low,6,0,6,0,1,,,,,,,,,
292768,2022-11-15_13h27.51.719,vts_reward_expectancy_bt,2022.2.4,MacIntel,60.0024001,Chrome,1185,747,,,,,1,1206,,,,,,,,,,,,,,,,,Y,160,triangle,1,0,,,,,,,,,,,,,,,,repeat,number,numRpt,k,0.5671,Lo,,,,,,5,,,,,,,,low,7,0,7,0,1,,,,,,,,,
292768,2022-11-15_13h27.51.719,vts_reward_expectancy_bt,2022.2.4,MacIntel,60.0024001,Chrome,1185,747,,,,,0,1206,,,,,,,,,,,,,,,,,S,139,hexagon,0,0,,,,,,,,,,,,,,,,repeat,number,NA,k,0.4743,Lo,,,,,,5,,,,,,,,low,8,0,8,0,1,,,,,,,,,
292768,2022-11-15_13h27.51.719,vts_reward_expectancy_bt,2022.2.4,MacIntel,60.0024001,Chrome,1185,747,,,,,0,1206,,,,,,,,,,,,,,,,,F,174,circle,0,1,,,,,,,,,,,,,,,,repeat,number,NA,j,0.5905,Lo,,,,,,5,,,,,,,,low,9,0,9,0,1,,,,,,,,,
292768,2022-11-15_13h27.51.719,vts_reward_expectancy_bt,2022.2.4,MacIntel,60.0024001,Chrome,1185,747,,,,,0,1206,,,,,,,,,,,,,,,,,B,167,triangle,0,1,,,,,,,,,,,,,,,,repeat,number,NA,j,0.5084,Lo,,,,,,5,,,,,,,,low,10,0,10,0,1,,,,,,,,,
292768,2022-11-15_13h27.51.719,vts_reward_expectancy_bt,2022.2.4,MacIntel,60.0024001,Chrome,1185,747,,,,,0,1206,,,,,,,,,,,,,,,,,D,146,star,1,1,,,,,,,,,,,,,,,,repeat,number,numRpt,j,0.5785,Hi,,,,,,5,,,,,,,,low,11,0,11,0,1,,,,,,,,,
292768,2022-11-15_13h27.51.719,vts_reward_expectancy_bt,2022.2.4,MacIntel,60.0024001,Chrome,1185,747,,,,,0,1206,,,,,,,,,,,,,,,,,H,181,star,1,0,,,,,,,,,,,,,,,,repeat,number,numRpt,k,0.5077,Hi,,,,,,5,,,,,,,,low,12,0,12,0,1,,,,,,,,,
292768,2022-11-15_13h27.51.719,vts_reward_expectancy_bt,2022.2.4,MacIntel,60.0024001,Chrome,1185,747,,,,,10,1216,,,,,,,,,,,,,,,,,U,125,hexagon,1,0,,,,,,,,,,,,,,,,repeat,number,numRpt,j,0.4907,Lo,,,,,,5,,,,,,,,low,13,0,13,0,1,,,,,,,,,
292768,2022-11-15_13h27.51.719,vts_reward_expectancy_bt,2022.2.4,MacIntel,60.0024001,Chrome,1185,747,,,,,10,1226,,,,,,,,,,,,,,,,,W,132,triangle,1,0,,,,,,,,,,,,,,,,switch,letter,lettSwt,f,0.4757,Lo,,,,,,5,,,,,,,,low,14,0,14,0,1,,,,,,,,,
292768,2022-11-15_13h27.51.719,vts_reward_expectancy_bt,2022.2.4,MacIntel,60.0024001,Chrome,1185,747,,,,,0,1226,,,,,,,,,,,,,,,,,Y,160,circle,1,0,,,,,,,,,,,,,,,,repeat,letter,lettRpt,f,0.6245,Hi,,,,,,5,,,,,,,,low,15,0,15,0,1,,,,,,,,,
292768,2022-11-15_13h27.51.719,vts_reward_expectancy_bt,2022.2.4,MacIntel,60.0024001,Chrome,1185,747,,,,,1,1227,,,,,,,,,,,,,,,,,U,125,star,1,0,,,,,,,,,,,,,,,,repeat,letter,lettRpt,f,0.4626,Hi,,,,,,5,,,,,,,,low,16,0,16,0,1,,,,,,,,,
292768,2022-11-15_13h27.51.719,vts_reward_expectancy_bt,2022.2.4,MacIntel,60.0024001,Chrome,1185,747,,,,,10,1237,,,,,,,,,,,,,,,,,H,167,circle,1,0,,,,,,,,,,,,,,,,switch,number,numSwt,k,0.4474,Hi,,,,,,5,,,,,,,,low,17,0,17,0,1,,,,,,,,,
292768,2022-11-15_13h27.51.719,vts_reward_expectancy_bt,2022.2.4,MacIntel,60.0024001,Chrome,1185,747,,,,,0,1237,,,,,,,,,,,,,,,,,W,132,triangle,0,0,,,,,,,,,,,,,,,,switch,letter,NA,d,0.6405,Hi,,,,,,5,,,,,,,,low,18,0,18,0,1,,,,,,,,,
292768,2022-11-15_13h27.51.719,vts_reward_expectancy_bt,2022.2.4,MacIntel,60.0024001,Chrome,1185,747,,,,,0,1237,,,,,,,,,,,,,,,,,B,174,hexagon,0,1,,,,,,,,,,,,,,,,repeat,letter,NA,f,0.5468,Hi,,,,,,5,,,,,,,,low,19,0,19,0,1,,,,,,,,,
292768,2022-11-15_13h27.51.719,vts_reward_expectancy_bt,2022.2.4,MacIntel,60.0024001,Chrome,1185,747,,,,,1,1238,,,,,,,,,,,,,,,,,S,181,triangle,1,1,,,,,,,,,,,,,,,,repeat,letter,lettRpt,f,0.5237,Lo,,,,,,5,,,,,,,,low,20,0,20,0,1,,,,,,,,,
292768,2022-11-15_13h27.51.719,vts_reward_expectancy_bt,2022.2.4,MacIntel,60.0024001,Chrome,1185,747,,,,,0,1238,,,,,,,,,,,,,,,,,D,146,star,1,0,,,,,,,,,,,,,,,,repeat,letter,lettRpt,d,0.6127,Hi,,,,,,5,,,,,,,,low,21,0,21,0,1,,,,,,,,,
292768,2022-11-15_13h27.51.719,vts_reward_expectancy_bt,2022.2.4,MacIntel,60.0024001,Chrome,1185,747,,,,,0,1238,,,,,,,,,,,,,,,,,Y,139,circle,1,0,,,,,,,,,,,,,,,,repeat,letter,lettRpt,f,0.5574,Hi,,,,,,5,,,,,,,,low,22,0,22,0,1,,,,,,,,,
292768,2022-11-15_13h27.51.719,vts_reward_expectancy_bt,2022.2.4,MacIntel,60.0024001,Chrome,1185,747,,,,,0,1238,,,,,,,,,,,,,,,,,F,160,hexagon,0,0,,,,,,,,,,,,,,,,repeat,letter,NA,f,0.5254,Hi,,,,,,5,,,,,,,,low,23,0,23,0,1,,,,,,,,,
292768,2022-11-15_13h27.51.719,vts_reward_expectancy_bt,2022.2.4,MacIntel,60.0024001,Chrome,1185,747,,,,,10,1248,,,,,,,,,,,,,,,,,B,139,star,1,1,,,,,,,,,,,,,,,,repeat,letter,lettRpt,d,0.3911,Hi,,,,,,5,,,,,,,,low,24,0,24,0,1,,,,,,,,,
292768,2022-11-15_13h27.51.719,vts_reward_expectancy_bt,2022.2.4,MacIntel,60.0024001,Chrome,1185,747,,,,,0,1248,,,,,,,,,,,,,,,,,F,125,triangle,0,0,,,,,,,,,,,,,,,,repeat,letter,NA,f,0.6244,Hi,,,,,,5,,,,,,,,low,25,0,25,0,1,,,,,,,,,
292768,2022-11-15_13h27.51.719,vts_reward_expectancy_bt,2022.2.4,MacIntel,60.0024001,Chrome,1185,747,,,,,1,1249,,,,,,,,,,,,,,,,,D,167,circle,1,1,,,,,,,,,,,,,,,,switch,number,numSwt,k,0.7902,Hi,,,,,,5,,,,,,,,low,26,0,26,0,1,,,,,,,,,
292768,2022-11-15_13h27.51.719,vts_reward_expectancy_bt,2022.2.4,MacIntel,60.0024001,Chrome,1185,747,,,,,10,1259,,,,,,,,,,,,,,,,,S,174,hexagon,1,0,,,,,,,,,,,,,,,,repeat,number,numRpt,k,0.4898,Lo,,,,,,5,,,,,,,,low,27,0,27,0,1,,,,,,,,,
292768,2022-11-15_13h27.51.719,vts_reward_expectancy_bt,2022.2.4,MacIntel,60.0024001,Chrome,1185,747,,,,,1,1260,,,,,,,,,,,,,,,,,Y,160,circle,1,0,,,,,,,,,,,,,,,,repeat,number,numRpt,k,0.4573,Hi,,,,,,5,,,,,,,,low,28,0,28,0,1,,,,,,,,,
292768,2022-11-15_13h27.51.719,vts_reward_expectancy_bt,2022.2.4,MacIntel,60.0024001,Chrome,1185,747,,,,,10,1270,,,,,,,,,,,,,,,,,U,146,triangle,1,0,,,,,,,,,,,,,,,,repeat,number,numRpt,j,0.507,Lo,,,,,,5,,,,,,,,low,29,0,29,0,1,,,,,,,,,
292768,2022-11-15_13h27.51.719,vts_reward_expectancy_bt,2022.2.4,MacIntel,60.0024001,Chrome,1185,747,,,,,1,1271,,,,,,,,,,,,,,,,,H,181,hexagon,1,0,,,,,,,,,,,,,,,,repeat,number,numRpt,k,0.4594,Lo,,,,,,5,,,,,,,,low,30,0,30,0,1,,,,,,,,,
292768,2022-11-15_13h27.51.719,vts_reward_expectancy_bt,2022.2.4,MacIntel,60.0024001,Chrome,1185,747,,,,,10,1281,,,,,,,,,,,,,,,,,W,132,star,1,0,,,,,,,,,,,,,,,,repeat,number,numRpt,j,0.4914,Hi,,,,,,5,,,,,,,,low,31,0,31,0,1,,,,,,,,,
292768,2022-11-15_13h27.51.719,vts_reward_expectancy_bt,2022.2.4,MacIntel,60.0024001,Chrome,1185,747,,,,,0,1281,,,,,,,,,,,,,,,,,D,132,star,0,0,,,,,,,,,,,,,,,,repeat,number,NA,k,0.4574,Hi,,,,,,6,,,,,,space,0.9376,low,0,0,0,0,1,,,,,,,,,
292768,2022-11-15_13h27.51.719,vts_reward_expectancy_bt,2022.2.4,MacIntel,60.0024001,Chrome,1185,747,,,,,10,1291,,,,,,,,,,,,,,,,,W,174,hexagon,1,1,,,,,,,,,,,,,,,,repeat,number,numRpt,k,0.5829,Lo,,,,,,6,,,,,,,,low,1,0,1,0,1,,,,,,,,,
292768,2022-11-15_13h27.51.719,vts_reward_expectancy_bt,2022.2.4,MacIntel,60.0024001,Chrome,1185,747,,,,,10,1301,,,,,,,,,,,,,,,,,Y,167,triangle,1,0,,,,,,,,,,,,,,,,repeat,number,numRpt,k,0.5154,Lo,,,,,,6,,,,,,,,low,2,0,2,0,1,,,,,,,,,
292768,2022-11-15_13h27.51.719,vts_reward_expectancy_bt,2022.2.4,MacIntel,60.0024001,Chrome,1185,747,,,,,0,1301,,,,,,,,,,,,,,,,,U,160,circle,1,0,,,,,,,,,,,,,,,,switch,letter,lettSwt,f,0.5107,Hi,,,,,,6,,,,,,,,low,3,0,3,0,1,,,,,,,,,
292768,2022-11-15_13h27.51.719,vts_reward_expectancy_bt,2022.2.4,MacIntel,60.0024001,Chrome,1185,747,,,,,0,1301,,,,,,,,,,,,,,,,,F,139,star,1,0,,,,,,,,,,,,,,,,repeat,letter,lettRpt,d,0.641,Hi,,,,,,6,,,,,,,,low,4,0,4,0,1,,,,,,,,,
292768,2022-11-15_13h27.51.719,vts_reward_expectancy_bt,2022.2.4,MacIntel,60.0024001,Chrome,1185,747,,,,,1,1302,,,,,,,,,,,,,,,,,S,125,hexagon,1,0,,,,,,,,,,,,,,,,repeat,letter,lettRpt,f,0.5569,Lo,,,,,,6,,,,,,,,low,5,0,5,0,1,,,,,,,,,
292768,2022-11-15_13h27.51.719,vts_reward_expectancy_bt,2022.2.4,MacIntel,60.0024001,Chrome,1185,747,,,,,1,1303,,,,,,,,,,,,,,,,,H,146,triangle,1,0,,,,,,,,,,,,,,,,switch,number,numSwt,j,0.4882,Lo,,,,,,6,,,,,,,,low,6,0,6,0,1,,,,,,,,,
292768,2022-11-15_13h27.51.719,vts_reward_expectancy_bt,2022.2.4,MacIntel,60.0024001,Chrome,1185,747,,,,,0,1303,,,,,,,,,,,,,,,,,B,181,circle,1,0,,,,,,,,,,,,,,,,switch,letter,lettSwt,d,0.5124,Hi,,,,,,6,,,,,,,,low,7,0,7,0,1,,,,,,,,,
292768,2022-11-15_13h27.51.719,vts_reward_expectancy_bt,2022.2.4,MacIntel,60.0024001,Chrome,1185,747,,,,,0,1303,,,,,,,,,,,,,,,,,D,132,star,1,0,,,,,,,,,,,,,,,,repeat,letter,lettRpt,d,0.5574,Hi,,,,,,6,,,,,,,,low,8,0,8,0,1,,,,,,,,,
292768,2022-11-15_13h27.51.719,vts_reward_expectancy_bt,2022.2.4,MacIntel,60.0024001,Chrome,1185,747,,,,,1,1304,,,,,,,,,,,,,,,,,W,174,circle,1,0,,,,,,,,,,,,,,,,repeat,letter,lettRpt,f,0.495,Hi,,,,,,6,,,,,,,,low,9,0,9,0,1,,,,,,,,,
292768,2022-11-15_13h27.51.719,vts_reward_expectancy_bt,2022.2.4,MacIntel,60.0024001,Chrome,1185,747,,,,,1,1305,,,,,,,,,,,,,,,,,Y,167,hexagon,1,0,,,,,,,,,,,,,,,,repeat,letter,lettRpt,f,0.5218,Lo,,,,,,6,,,,,,,,low,10,0,10,0,1,,,,,,,,,
292768,2022-11-15_13h27.51.719,vts_reward_expectancy_bt,2022.2.4,MacIntel,60.0024001,Chrome,1185,747,,,,,10,1315,,,,,,,,,,,,,,,,,U,160,triangle,1,0,,,,,,,,,,,,,,,,repeat,letter,lettRpt,f,0.5102,Lo,,,,,,6,,,,,,,,low,11,0,11,0,1,,,,,,,,,
292768,2022-11-15_13h27.51.719,vts_reward_expectancy_bt,2022.2.4,MacIntel,60.0024001,Chrome,1185,747,,,,,0,1315,,,,,,,,,,,,,,,,,F,139,hexagon,0,0,,,,,,,,,,,,,,,,repeat,letter,NA,f,0.5721,Lo,,,,,,6,,,,,,,,low,12,0,12,0,1,,,,,,,,,
