participant,date,expName,psychopyVersion,OS,frameRate,browser,xResolution,yResolution,key_resp.keys,key_resp.rt,training_resp.keys,training_resp.rt,points_trial,points_cumul,trainBlock,training.thisRepN,training.thisTrialN,training.thisN,training.thisIndex,training.ran,LTriangleOpac,LCircleOpac,LHexagonOpac,LStarOpac,RTriangleOpac,RCircleOpac,RHexagonOpac,RStarOpac,LShape_ID,RShape_ID,curr_topStim,curr_bottStim,curr_shape,acc,E1,target_resp_prac1.keys,pracBlock,task1_prac_trials.thisRepN,task1_prac_trials.thisTrialN,task1_prac_trials.thisN,task1_prac_trials.thisIndex,task1_prac_trials.ran,target_resp_prac1.rt,target_resp_prac2.keys,target_resp_prac2.rt,task2_praac_trials.thisRepN,task2_praac_trials.thisTrialN,task2_praac_trials.thisN,task2_praac_trials.thisIndex,task2_praac_trials.ran,alt,task,condition,target_resp.keys,target_resp.rt,rewCond,vts_practice_trials.thisRepN,vts_practice_trials.thisTrialN,vts_practice_trials.thisN,vts_practice_trials.thisIndex,vts_practice_trials.ran,blockNum,trials_norew.thisRepN,trials_norew.thisTrialN,trials_norew.thisN,trials_norew.thisIndex,trials_norew.ran,key_resp_2.keys,key_resp_2.rt,rewExpectancy,trials_rew.thisRepN,trials_rew.thisTrialN,trials_rew.thisN,trials_rew.thisIndex,trials_rew.ran,Q1,Q2,Q2_text,Q3,Q4,Q5_text,Q5,xRes,yRes
292810,2022-12-06_13h00.39.991,vts_reward_expectancy_bt,2022.2.4,Win32,30.01650908,Chrome,1536,864,,,,,,,,,,,,,,,,,,,,,,,,,,,,,,,,,,,,,,,,,,,,,,,,,,,,,,,,,,,,,,,,,,,,,,,,,,,,
292810,2022-12-06_13h00.39.991,vts_reward_expectancy_bt,2022.2.4,Win32,30.01650908,Chrome,1536,864,space,11.6689,,,,,,,,,,,,,,,,,,,,,,,,,,,,,,,,,,,,,,,,,,,,,,,,,,,,,,,,,,,,,,,,,,,,,,,,,,
292810,2022-12-06_13h00.39.991,vts_reward_expectancy_bt,2022.2.4,Win32,30.01650908,Chrome,1536,864,,,,,,,,,,,,,,,,,,,,,,,,,,,,,,,,,,,,,,,,,,,,,,,,,,,,,,,,,,,,,,,,,,,,,,,,,,,,
292810,2022-12-06_13h00.39.991,vts_reward_expectancy_bt,2022.2.4,Win32,30.01650908,Chrome,1536,864,,,a,1.3454,0,0,0,0,0,0,10,1,0,0,0,1,0,1,0,0,star ,circle,,,,,,,,,,,,,,,,,,,,,,,,,,,,,,,,,,,,,,,,,,,,,,,,,,,,,,
292810,2022-12-06_13h00.39.991,vts_reward_expectancy_bt,2022.2.4,Win32,30.01650908,Chrome,1536,864,,,a,1.3833,1,1,0,0,1,1,11,1,0,0,0,1,0,0,1,0,star,hexagon,,,,,,,,,,,,,,,,,,,,,,,,,,,,,,,,,,,,,,,,,,,,,,,,,,,,,,
292810,2022-12-06_13h00.39.991,vts_reward_expectancy_bt,2022.2.4,Win32,30.01650908,Chrome,1536,864,,,l,0.6002,1,2,0,0,2,2,5,1,0,1,0,0,0,0,0,1,circle,star,,,,,,,,,,,,,,,,,,,,,,,,,,,,,,,,,,,,,,,,,,,,,,,,,,,,,,
292810,2022-12-06_13h00.39.991,vts_reward_expectancy_bt,2022.2.4,Win32,30.01650908,Chrome,1536,864,,,a,0.6394,1,3,0,0,3,3,3,1,0,1,0,0,1,0,0,0,circle,triangle,,,,,,,,,,,,,,,,,,,,,,,,,,,,,,,,,,,,,,,,,,,,,,,,,,,,,,
292810,2022-12-06_13h00.39.991,vts_reward_expectancy_bt,2022.2.4,Win32,30.01650908,Chrome,1536,864,,,l,0.5883,1,4,0,0,4,4,2,1,1,0,0,0,0,0,0,1,triangle,star,,,,,,,,,,,,,,,,,,,,,,,,,,,,,,,,,,,,,,,,,,,,,,,,,,,,,,
292810,2022-12-06_13h00.39.991,vts_reward_expectancy_bt,2022.2.4,Win32,30.01650908,Chrome,1536,864,,,a,0.8053,10,14,0,0,5,5,1,1,1,0,0,0,0,0,1,0,triangle,hexagon,,,,,,,,,,,,,,,,,,,,,,,,,,,,,,,,,,,,,,,,,,,,,,,,,,,,,,
292810,2022-12-06_13h00.39.991,vts_reward_expectancy_bt,2022.2.4,Win32,30.01650908,Chrome,1536,864,,,l,0.6927,10,24,0,0,6,6,9,1,0,0,0,1,1,0,0,0,star,triangle,,,,,,,,,,,,,,,,,,,,,,,,,,,,,,,,,,,,,,,,,,,,,,,,,,,,,,
292810,2022-12-06_13h00.39.991,vts_reward_expectancy_bt,2022.2.4,Win32,30.01650908,Chrome,1536,864,,,l,0.5019,1,25,0,0,7,7,0,1,1,0,0,0,0,1,0,0,triangle,circle,,,,,,,,,,,,,,,,,,,,,,,,,,,,,,,,,,,,,,,,,,,,,,,,,,,,,,
292810,2022-12-06_13h00.39.991,vts_reward_expectancy_bt,2022.2.4,Win32,30.01650908,Chrome,1536,864,,,l,0.6692,1,26,0,0,8,8,8,1,0,0,1,0,0,0,0,1,hexagon,star,,,,,,,,,,,,,,,,,,,,,,,,,,,,,,,,,,,,,,,,,,,,,,,,,,,,,,
292810,2022-12-06_13h00.39.991,vts_reward_expectancy_bt,2022.2.4,Win32,30.01650908,Chrome,1536,864,,,l,0.8827,1,27,0,0,9,9,4,1,0,1,0,0,0,0,1,0,circle,hexagon,,,,,,,,,,,,,,,,,,,,,,,,,,,,,,,,,,,,,,,,,,,,,,,,,,,,,,
292810,2022-12-06_13h00.39.991,vts_reward_expectancy_bt,2022.2.4,Win32,30.01650908,Chrome,1536,864,,,l,0.1039,1,28,0,0,10,10,6,1,0,0,1,0,1,0,0,0,hexagon,triangle,,,,,,,,,,,,,,,,,,,,,,,,,,,,,,,,,,,,,,,,,,,,,,,,,,,,,,
292810,2022-12-06_13h00.39.991,vts_reward_expectancy_bt,2022.2.4,Win32,30.01650908,Chrome,1536,864,,,a,0.618,1,29,0,0,11,11,7,1,0,0,1,0,0,1,0,0,hexagon,circle,,,,,,,,,,,,,,,,,,,,,,,,,,,,,,,,,,,,,,,,,,,,,,,,,,,,,,
292810,2022-12-06_13h00.39.991,vts_reward_expectancy_bt,2022.2.4,Win32,30.01650908,Chrome,1536,864,,,a,0.6393,1,30,0,1,0,12,9,1,0,0,0,1,1,0,0,0,star,triangle,,,,,,,,,,,,,,,,,,,,,,,,,,,,,,,,,,,,,,,,,,,,,,,,,,,,,,
292810,2022-12-06_13h00.39.991,vts_reward_expectancy_bt,2022.2.4,Win32,30.01650908,Chrome,1536,864,,,a,0.594,1,31,0,1,1,13,4,1,0,1,0,0,0,0,1,0,circle,hexagon,,,,,,,,,,,,,,,,,,,,,,,,,,,,,,,,,,,,,,,,,,,,,,,,,,,,,,
292810,2022-12-06_13h00.39.991,vts_reward_expectancy_bt,2022.2.4,Win32,30.01650908,Chrome,1536,864,,,a,0.4507,1,32,0,1,2,14,11,1,0,0,0,1,0,0,1,0,star,hexagon,,,,,,,,,,,,,,,,,,,,,,,,,,,,,,,,,,,,,,,,,,,,,,,,,,,,,,
292810,2022-12-06_13h00.39.991,vts_reward_expectancy_bt,2022.2.4,Win32,30.01650908,Chrome,1536,864,,,l,0.704,1,33,0,1,3,15,6,1,0,0,1,0,1,0,0,0,hexagon,triangle,,,,,,,,,,,,,,,,,,,,,,,,,,,,,,,,,,,,,,,,,,,,,,,,,,,,,,
292810,2022-12-06_13h00.39.991,vts_reward_expectancy_bt,2022.2.4,Win32,30.01650908,Chrome,1536,864,,,l,0.2783,1,34,0,1,4,16,8,1,0,0,1,0,0,0,0,1,hexagon,star,,,,,,,,,,,,,,,,,,,,,,,,,,,,,,,,,,,,,,,,,,,,,,,,,,,,,,
292810,2022-12-06_13h00.39.991,vts_reward_expectancy_bt,2022.2.4,Win32,30.01650908,Chrome,1536,864,,,a,0.3171,1,35,0,1,5,17,5,1,0,1,0,0,0,0,0,1,circle,star,,,,,,,,,,,,,,,,,,,,,,,,,,,,,,,,,,,,,,,,,,,,,,,,,,,,,,
292810,2022-12-06_13h00.39.991,vts_reward_expectancy_bt,2022.2.4,Win32,30.01650908,Chrome,1536,864,,,l,0.3005,1,36,0,1,6,18,7,1,0,0,1,0,0,1,0,0,hexagon,circle,,,,,,,,,,,,,,,,,,,,,,,,,,,,,,,,,,,,,,,,,,,,,,,,,,,,,,
292810,2022-12-06_13h00.39.991,vts_reward_expectancy_bt,2022.2.4,Win32,30.01650908,Chrome,1536,864,,,l,0.4817,10,46,0,1,7,19,2,1,1,0,0,0,0,0,0,1,triangle,star,,,,,,,,,,,,,,,,,,,,,,,,,,,,,,,,,,,,,,,,,,,,,,,,,,,,,,
292810,2022-12-06_13h00.39.991,vts_reward_expectancy_bt,2022.2.4,Win32,30.01650908,Chrome,1536,864,,,a,0.7899,1,47,0,1,8,20,1,1,1,0,0,0,0,0,1,0,triangle,hexagon,,,,,,,,,,,,,,,,,,,,,,,,,,,,,,,,,,,,,,,,,,,,,,,,,,,,,,
292810,2022-12-06_13h00.39.991,vts_reward_expectancy_bt,2022.2.4,Win32,30.01650908,Chrome,1536,864,,,a,0.4279,1,48,0,1,9,21,10,1,0,0,0,1,0,1,0,0,star ,circle,,,,,,,,,,,,,,,,,,,,,,,,,,,,,,,,,,,,,,,,,,,,,,,,,,,,,,
292810,2022-12-06_13h00.39.991,vts_reward_expectancy_bt,2022.2.4,Win32,30.01650908,Chrome,1536,864,,,a,0.692,10,58,0,1,10,22,0,1,1,0,0,0,0,1,0,0,triangle,circle,,,,,,,,,,,,,,,,,,,,,,,,,,,,,,,,,,,,,,,,,,,,,,,,,,,,,,
292810,2022-12-06_13h00.39.991,vts_reward_expectancy_bt,2022.2.4,Win32,30.01650908,Chrome,1536,864,,,l,1.0089,1,59,0,1,11,23,3,1,0,1,0,0,1,0,0,0,circle,triangle,,,,,,,,,,,,,,,,,,,,,,,,,,,,,,,,,,,,,,,,,,,,,,,,,,,,,,
292810,2022-12-06_13h00.39.991,vts_reward_expectancy_bt,2022.2.4,Win32,30.01650908,Chrome,1536,864,,,a,0.5069,10,69,0,2,0,24,3,1,0,1,0,0,1,0,0,0,circle,triangle,,,,,,,,,,,,,,,,,,,,,,,,,,,,,,,,,,,,,,,,,,,,,,,,,,,,,,
292810,2022-12-06_13h00.39.991,vts_reward_expectancy_bt,2022.2.4,Win32,30.01650908,Chrome,1536,864,,,a,0.9291,1,70,0,2,1,25,1,1,1,0,0,0,0,0,1,0,triangle,hexagon,,,,,,,,,,,,,,,,,,,,,,,,,,,,,,,,,,,,,,,,,,,,,,,,,,,,,,
292810,2022-12-06_13h00.39.991,vts_reward_expectancy_bt,2022.2.4,Win32,30.01650908,Chrome,1536,864,,,l,0.5116,1,71,0,2,2,26,11,1,0,0,0,1,0,0,1,0,star,hexagon,,,,,,,,,,,,,,,,,,,,,,,,,,,,,,,,,,,,,,,,,,,,,,,,,,,,,,
292810,2022-12-06_13h00.39.991,vts_reward_expectancy_bt,2022.2.4,Win32,30.01650908,Chrome,1536,864,,,l,0.411,10,81,0,2,3,27,5,1,0,1,0,0,0,0,0,1,circle,star,,,,,,,,,,,,,,,,,,,,,,,,,,,,,,,,,,,,,,,,,,,,,,,,,,,,,,
292810,2022-12-06_13h00.39.991,vts_reward_expectancy_bt,2022.2.4,Win32,30.01650908,Chrome,1536,864,,,a,0.5522,1,82,0,2,4,28,7,1,0,0,1,0,0,1,0,0,hexagon,circle,,,,,,,,,,,,,,,,,,,,,,,,,,,,,,,,,,,,,,,,,,,,,,,,,,,,,,
292810,2022-12-06_13h00.39.991,vts_reward_expectancy_bt,2022.2.4,Win32,30.01650908,Chrome,1536,864,,,l,0.6174,10,92,0,2,5,29,0,1,1,0,0,0,0,1,0,0,triangle,circle,,,,,,,,,,,,,,,,,,,,,,,,,,,,,,,,,,,,,,,,,,,,,,,,,,,,,,
292810,2022-12-06_13h00.39.991,vts_reward_expectancy_bt,2022.2.4,Win32,30.01650908,Chrome,1536,864,,,l,0.8747,1,93,0,2,6,30,8,1,0,0,1,0,0,0,0,1,hexagon,star,,,,,,,,,,,,,,,,,,,,,,,,,,,,,,,,,,,,,,,,,,,,,,,,,,,,,,
292810,2022-12-06_13h00.39.991,vts_reward_expectancy_bt,2022.2.4,Win32,30.01650908,Chrome,1536,864,,,l,0.8509,1,94,0,2,7,31,6,1,0,0,1,0,1,0,0,0,hexagon,triangle,,,,,,,,,,,,,,,,,,,,,,,,,,,,,,,,,,,,,,,,,,,,,,,,,,,,,,
292810,2022-12-06_13h00.39.991,vts_reward_expectancy_bt,2022.2.4,Win32,30.01650908,Chrome,1536,864,,,a,0.6186,1,95,0,2,8,32,9,1,0,0,0,1,1,0,0,0,star,triangle,,,,,,,,,,,,,,,,,,,,,,,,,,,,,,,,,,,,,,,,,,,,,,,,,,,,,,
292810,2022-12-06_13h00.39.991,vts_reward_expectancy_bt,2022.2.4,Win32,30.01650908,Chrome,1536,864,,,l,0.4459,1,96,0,2,9,33,10,1,0,0,0,1,0,1,0,0,star ,circle,,,,,,,,,,,,,,,,,,,,,,,,,,,,,,,,,,,,,,,,,,,,,,,,,,,,,,
292810,2022-12-06_13h00.39.991,vts_reward_expectancy_bt,2022.2.4,Win32,30.01650908,Chrome,1536,864,,,l,0.4722,10,106,0,2,10,34,2,1,1,0,0,0,0,0,0,1,triangle,star,,,,,,,,,,,,,,,,,,,,,,,,,,,,,,,,,,,,,,,,,,,,,,,,,,,,,,
292810,2022-12-06_13h00.39.991,vts_reward_expectancy_bt,2022.2.4,Win32,30.01650908,Chrome,1536,864,,,l,0.8585,10,116,0,2,11,35,4,1,0,1,0,0,0,0,1,0,circle,hexagon,,,,,,,,,,,,,,,,,,,,,,,,,,,,,,,,,,,,,,,,,,,,,,,,,,,,,,
292810,2022-12-06_13h00.39.991,vts_reward_expectancy_bt,2022.2.4,Win32,30.01650908,Chrome,1536,864,,,a,0.6386,10,126,1,0,0,0,10,1,0,0,0,1,0,1,0,0,star ,circle,,,,,,,,,,,,,,,,,,,,,,,,,,,,,,,,,,,,,,,,,,,,,,,,,,,,,,
292810,2022-12-06_13h00.39.991,vts_reward_expectancy_bt,2022.2.4,Win32,30.01650908,Chrome,1536,864,,,l,0.3801,10,136,1,0,1,1,5,1,0,1,0,0,0,0,0,1,circle,star,,,,,,,,,,,,,,,,,,,,,,,,,,,,,,,,,,,,,,,,,,,,,,,,,,,,,,
292810,2022-12-06_13h00.39.991,vts_reward_expectancy_bt,2022.2.4,Win32,30.01650908,Chrome,1536,864,,,a,0.4508,10,146,1,0,2,2,9,1,0,0,0,1,1,0,0,0,star,triangle,,,,,,,,,,,,,,,,,,,,,,,,,,,,,,,,,,,,,,,,,,,,,,,,,,,,,,
292810,2022-12-06_13h00.39.991,vts_reward_expectancy_bt,2022.2.4,Win32,30.01650908,Chrome,1536,864,,,l,1.0202,1,147,1,0,3,3,7,1,0,0,1,0,0,1,0,0,hexagon,circle,,,,,,,,,,,,,,,,,,,,,,,,,,,,,,,,,,,,,,,,,,,,,,,,,,,,,,
292810,2022-12-06_13h00.39.991,vts_reward_expectancy_bt,2022.2.4,Win32,30.01650908,Chrome,1536,864,,,l,0.5161,10,157,1,0,4,4,1,1,1,0,0,0,0,0,1,0,triangle,hexagon,,,,,,,,,,,,,,,,,,,,,,,,,,,,,,,,,,,,,,,,,,,,,,,,,,,,,,
292810,2022-12-06_13h00.39.991,vts_reward_expectancy_bt,2022.2.4,Win32,30.01650908,Chrome,1536,864,,,a,0.6942,10,167,1,0,5,5,2,1,1,0,0,0,0,0,0,1,triangle,star,,,,,,,,,,,,,,,,,,,,,,,,,,,,,,,,,,,,,,,,,,,,,,,,,,,,,,
292810,2022-12-06_13h00.39.991,vts_reward_expectancy_bt,2022.2.4,Win32,30.01650908,Chrome,1536,864,,,a,0.5934,1,168,1,0,6,6,6,1,0,0,1,0,1,0,0,0,hexagon,triangle,,,,,,,,,,,,,,,,,,,,,,,,,,,,,,,,,,,,,,,,,,,,,,,,,,,,,,
292810,2022-12-06_13h00.39.991,vts_reward_expectancy_bt,2022.2.4,Win32,30.01650908,Chrome,1536,864,,,l,0.6062,10,178,1,0,7,7,8,1,0,0,1,0,0,0,0,1,hexagon,star,,,,,,,,,,,,,,,,,,,,,,,,,,,,,,,,,,,,,,,,,,,,,,,,,,,,,,
292810,2022-12-06_13h00.39.991,vts_reward_expectancy_bt,2022.2.4,Win32,30.01650908,Chrome,1536,864,,,l,0.5165,1,179,1,0,8,8,4,1,0,1,0,0,0,0,1,0,circle,hexagon,,,,,,,,,,,,,,,,,,,,,,,,,,,,,,,,,,,,,,,,,,,,,,,,,,,,,,
292810,2022-12-06_13h00.39.991,vts_reward_expectancy_bt,2022.2.4,Win32,30.01650908,Chrome,1536,864,,,a,0.4149,10,189,1,0,9,9,0,1,1,0,0,0,0,1,0,0,triangle,circle,,,,,,,,,,,,,,,,,,,,,,,,,,,,,,,,,,,,,,,,,,,,,,,,,,,,,,
292810,2022-12-06_13h00.39.991,vts_reward_expectancy_bt,2022.2.4,Win32,30.01650908,Chrome,1536,864,,,l,0.4411,10,199,1,0,10,10,3,1,0,1,0,0,1,0,0,0,circle,triangle,,,,,,,,,,,,,,,,,,,,,,,,,,,,,,,,,,,,,,,,,,,,,,,,,,,,,,
292810,2022-12-06_13h00.39.991,vts_reward_expectancy_bt,2022.2.4,Win32,30.01650908,Chrome,1536,864,,,a,0.5829,1,200,1,0,11,11,11,1,0,0,0,1,0,0,1,0,star,hexagon,,,,,,,,,,,,,,,,,,,,,,,,,,,,,,,,,,,,,,,,,,,,,,,,,,,,,,
292810,2022-12-06_13h00.39.991,vts_reward_expectancy_bt,2022.2.4,Win32,30.01650908,Chrome,1536,864,,,a,0.4824,10,210,1,1,0,12,1,1,1,0,0,0,0,0,1,0,triangle,hexagon,,,,,,,,,,,,,,,,,,,,,,,,,,,,,,,,,,,,,,,,,,,,,,,,,,,,,,
292810,2022-12-06_13h00.39.991,vts_reward_expectancy_bt,2022.2.4,Win32,30.01650908,Chrome,1536,864,,,a,0.4013,1,211,1,1,1,13,0,1,1,0,0,0,0,1,0,0,triangle,circle,,,,,,,,,,,,,,,,,,,,,,,,,,,,,,,,,,,,,,,,,,,,,,,,,,,,,,
292810,2022-12-06_13h00.39.991,vts_reward_expectancy_bt,2022.2.4,Win32,30.01650908,Chrome,1536,864,,,a,0.4684,1,212,1,1,2,14,11,1,0,0,0,1,0,0,1,0,star,hexagon,,,,,,,,,,,,,,,,,,,,,,,,,,,,,,,,,,,,,,,,,,,,,,,,,,,,,,
292810,2022-12-06_13h00.39.991,vts_reward_expectancy_bt,2022.2.4,Win32,30.01650908,Chrome,1536,864,,,l,0.5143,1,213,1,1,3,15,4,1,0,1,0,0,0,0,1,0,circle,hexagon,,,,,,,,,,,,,,,,,,,,,,,,,,,,,,,,,,,,,,,,,,,,,,,,,,,,,,
292810,2022-12-06_13h00.39.991,vts_reward_expectancy_bt,2022.2.4,Win32,30.01650908,Chrome,1536,864,,,l,0.7588,10,223,1,1,4,16,5,1,0,1,0,0,0,0,0,1,circle,star,,,,,,,,,,,,,,,,,,,,,,,,,,,,,,,,,,,,,,,,,,,,,,,,,,,,,,
292810,2022-12-06_13h00.39.991,vts_reward_expectancy_bt,2022.2.4,Win32,30.01650908,Chrome,1536,864,,,l,0.5007,10,233,1,1,5,17,8,1,0,0,1,0,0,0,0,1,hexagon,star,,,,,,,,,,,,,,,,,,,,,,,,,,,,,,,,,,,,,,,,,,,,,,,,,,,,,,
292810,2022-12-06_13h00.39.991,vts_reward_expectancy_bt,2022.2.4,Win32,30.01650908,Chrome,1536,864,,,l,1.0053,1,234,1,1,6,18,6,1,0,0,1,0,1,0,0,0,hexagon,triangle,,,,,,,,,,,,,,,,,,,,,,,,,,,,,,,,,,,,,,,,,,,,,,,,,,,,,,
292810,2022-12-06_13h00.39.991,vts_reward_expectancy_bt,2022.2.4,Win32,30.01650908,Chrome,1536,864,,,l,0.9354,1,235,1,1,7,19,9,1,0,0,0,1,1,0,0,0,star,triangle,,,,,,,,,,,,,,,,,,,,,,,,,,,,,,,,,,,,,,,,,,,,,,,,,,,,,,
292810,2022-12-06_13h00.39.991,vts_reward_expectancy_bt,2022.2.4,Win32,30.01650908,Chrome,1536,864,,,l,0.6579,1,236,1,1,8,20,3,1,0,1,0,0,1,0,0,0,circle,triangle,,,,,,,,,,,,,,,,,,,,,,,,,,,,,,,,,,,,,,,,,,,,,,,,,,,,,,
292810,2022-12-06_13h00.39.991,vts_reward_expectancy_bt,2022.2.4,Win32,30.01650908,Chrome,1536,864,,,a,0.4685,1,237,1,1,9,21,10,1,0,0,0,1,0,1,0,0,star ,circle,,,,,,,,,,,,,,,,,,,,,,,,,,,,,,,,,,,,,,,,,,,,,,,,,,,,,,
292810,2022-12-06_13h00.39.991,vts_reward_expectancy_bt,2022.2.4,Win32,30.01650908,Chrome,1536,864,,,a,0.4742,10,247,1,1,10,22,2,1,1,0,0,0,0,0,0,1,triangle,star,,,,,,,,,,,,,,,,,,,,,,,,,,,,,,,,,,,,,,,,,,,,,,,,,,,,,,
292810,2022-12-06_13h00.39.991,vts_reward_expectancy_bt,2022.2.4,Win32,30.01650908,Chrome,1536,864,,,a,0.504,10,257,1,1,11,23,7,1,0,0,1,0,0,1,0,0,hexagon,circle,,,,,,,,,,,,,,,,,,,,,,,,,,,,,,,,,,,,,,,,,,,,,,,,,,,,,,
292810,2022-12-06_13h00.39.991,vts_reward_expectancy_bt,2022.2.4,Win32,30.01650908,Chrome,1536,864,,,l,0.6683,1,258,1,2,0,24,0,1,1,0,0,0,0,1,0,0,triangle,circle,,,,,,,,,,,,,,,,,,,,,,,,,,,,,,,,,,,,,,,,,,,,,,,,,,,,,,
292810,2022-12-06_13h00.39.991,vts_reward_expectancy_bt,2022.2.4,Win32,30.01650908,Chrome,1536,864,,,a,0.6342,10,268,1,2,1,25,6,1,0,0,1,0,1,0,0,0,hexagon,triangle,,,,,,,,,,,,,,,,,,,,,,,,,,,,,,,,,,,,,,,,,,,,,,,,,,,,,,
292810,2022-12-06_13h00.39.991,vts_reward_expectancy_bt,2022.2.4,Win32,30.01650908,Chrome,1536,864,,,a,0.5352,10,278,1,2,2,26,1,1,1,0,0,0,0,0,1,0,triangle,hexagon,,,,,,,,,,,,,,,,,,,,,,,,,,,,,,,,,,,,,,,,,,,,,,,,,,,,,,
292810,2022-12-06_13h00.39.991,vts_reward_expectancy_bt,2022.2.4,Win32,30.01650908,Chrome,1536,864,,,l,0.5222,1,279,1,2,3,27,2,1,1,0,0,0,0,0,0,1,triangle,star,,,,,,,,,,,,,,,,,,,,,,,,,,,,,,,,,,,,,,,,,,,,,,,,,,,,,,
292810,2022-12-06_13h00.39.991,vts_reward_expectancy_bt,2022.2.4,Win32,30.01650908,Chrome,1536,864,,,l,0.4002,1,280,1,2,4,28,11,1,0,0,0,1,0,0,1,0,star,hexagon,,,,,,,,,,,,,,,,,,,,,,,,,,,,,,,,,,,,,,,,,,,,,,,,,,,,,,
292810,2022-12-06_13h00.39.991,vts_reward_expectancy_bt,2022.2.4,Win32,30.01650908,Chrome,1536,864,,,a,0.1352,1,281,1,2,5,29,10,1,0,0,0,1,0,1,0,0,star ,circle,,,,,,,,,,,,,,,,,,,,,,,,,,,,,,,,,,,,,,,,,,,,,,,,,,,,,,
292810,2022-12-06_13h00.39.991,vts_reward_expectancy_bt,2022.2.4,Win32,30.01650908,Chrome,1536,864,,,l,0.2865,10,291,1,2,6,30,3,1,0,1,0,0,1,0,0,0,circle,triangle,,,,,,,,,,,,,,,,,,,,,,,,,,,,,,,,,,,,,,,,,,,,,,,,,,,,,,
292810,2022-12-06_13h00.39.991,vts_reward_expectancy_bt,2022.2.4,Win32,30.01650908,Chrome,1536,864,,,a,0.2832,1,292,1,2,7,31,8,1,0,0,1,0,0,0,0,1,hexagon,star,,,,,,,,,,,,,,,,,,,,,,,,,,,,,,,,,,,,,,,,,,,,,,,,,,,,,,
292810,2022-12-06_13h00.39.991,vts_reward_expectancy_bt,2022.2.4,Win32,30.01650908,Chrome,1536,864,,,a,0.3303,10,302,1,2,8,32,7,1,0,0,1,0,0,1,0,0,hexagon,circle,,,,,,,,,,,,,,,,,,,,,,,,,,,,,,,,,,,,,,,,,,,,,,,,,,,,,,
292810,2022-12-06_13h00.39.991,vts_reward_expectancy_bt,2022.2.4,Win32,30.01650908,Chrome,1536,864,,,a,0.6586,1,303,1,2,9,33,9,1,0,0,0,1,1,0,0,0,star,triangle,,,,,,,,,,,,,,,,,,,,,,,,,,,,,,,,,,,,,,,,,,,,,,,,,,,,,,
292810,2022-12-06_13h00.39.991,vts_reward_expectancy_bt,2022.2.4,Win32,30.01650908,Chrome,1536,864,,,l,0.3261,10,313,1,2,10,34,5,1,0,1,0,0,0,0,0,1,circle,star,,,,,,,,,,,,,,,,,,,,,,,,,,,,,,,,,,,,,,,,,,,,,,,,,,,,,,
292810,2022-12-06_13h00.39.991,vts_reward_expectancy_bt,2022.2.4,Win32,30.01650908,Chrome,1536,864,,,l,0.456,10,323,1,2,11,35,4,1,0,1,0,0,0,0,1,0,circle,hexagon,,,,,,,,,,,,,,,,,,,,,,,,,,,,,,,,,,,,,,,,,,,,,,,,,,,,,,
292810,2022-12-06_13h00.39.991,vts_reward_expectancy_bt,2022.2.4,Win32,30.01650908,Chrome,1536,864,,,a,1.0983,1,324,2,0,0,0,9,1,0,0,0,1,1,0,0,0,star,triangle,,,,,,,,,,,,,,,,,,,,,,,,,,,,,,,,,,,,,,,,,,,,,,,,,,,,,,
292810,2022-12-06_13h00.39.991,vts_reward_expectancy_bt,2022.2.4,Win32,30.01650908,Chrome,1536,864,,,a,0.6007,1,325,2,0,1,1,5,1,0,1,0,0,0,0,0,1,circle,star,,,,,,,,,,,,,,,,,,,,,,,,,,,,,,,,,,,,,,,,,,,,,,,,,,,,,,
292810,2022-12-06_13h00.39.991,vts_reward_expectancy_bt,2022.2.4,Win32,30.01650908,Chrome,1536,864,,,a,0.484,1,326,2,0,2,2,10,1,0,0,0,1,0,1,0,0,star ,circle,,,,,,,,,,,,,,,,,,,,,,,,,,,,,,,,,,,,,,,,,,,,,,,,,,,,,,
292810,2022-12-06_13h00.39.991,vts_reward_expectancy_bt,2022.2.4,Win32,30.01650908,Chrome,1536,864,,,l,0.527,10,336,2,0,3,3,4,1,0,1,0,0,0,0,1,0,circle,hexagon,,,,,,,,,,,,,,,,,,,,,,,,,,,,,,,,,,,,,,,,,,,,,,,,,,,,,,
292810,2022-12-06_13h00.39.991,vts_reward_expectancy_bt,2022.2.4,Win32,30.01650908,Chrome,1536,864,,,l,0.4519,1,337,2,0,4,4,8,1,0,0,1,0,0,0,0,1,hexagon,star,,,,,,,,,,,,,,,,,,,,,,,,,,,,,,,,,,,,,,,,,,,,,,,,,,,,,,
292810,2022-12-06_13h00.39.991,vts_reward_expectancy_bt,2022.2.4,Win32,30.01650908,Chrome,1536,864,,,a,0.4522,10,347,2,0,5,5,0,1,1,0,0,0,0,1,0,0,triangle,circle,,,,,,,,,,,,,,,,,,,,,,,,,,,,,,,,,,,,,,,,,,,,,,,,,,,,,,
292810,2022-12-06_13h00.39.991,vts_reward_expectancy_bt,2022.2.4,Win32,30.01650908,Chrome,1536,864,,,l,0.2845,10,357,2,0,6,6,11,1,0,0,0,1,0,0,1,0,star,hexagon,,,,,,,,,,,,,,,,,,,,,,,,,,,,,,,,,,,,,,,,,,,,,,,,,,,,,,
292810,2022-12-06_13h00.39.991,vts_reward_expectancy_bt,2022.2.4,Win32,30.01650908,Chrome,1536,864,,,a,0.4155,1,358,2,0,7,7,7,1,0,0,1,0,0,1,0,0,hexagon,circle,,,,,,,,,,,,,,,,,,,,,,,,,,,,,,,,,,,,,,,,,,,,,,,,,,,,,,
292810,2022-12-06_13h00.39.991,vts_reward_expectancy_bt,2022.2.4,Win32,30.01650908,Chrome,1536,864,,,a,0.8664,1,359,2,0,8,8,3,1,0,1,0,0,1,0,0,0,circle,triangle,,,,,,,,,,,,,,,,,,,,,,,,,,,,,,,,,,,,,,,,,,,,,,,,,,,,,,
292810,2022-12-06_13h00.39.991,vts_reward_expectancy_bt,2022.2.4,Win32,30.01650908,Chrome,1536,864,,,l,0.1695,1,360,2,0,9,9,1,1,1,0,0,0,0,0,1,0,triangle,hexagon,,,,,,,,,,,,,,,,,,,,,,,,,,,,,,,,,,,,,,,,,,,,,,,,,,,,,,
292810,2022-12-06_13h00.39.991,vts_reward_expectancy_bt,2022.2.4,Win32,30.01650908,Chrome,1536,864,,,l,0.4846,1,361,2,0,10,10,2,1,1,0,0,0,0,0,0,1,triangle,star,,,,,,,,,,,,,,,,,,,,,,,,,,,,,,,,,,,,,,,,,,,,,,,,,,,,,,
292810,2022-12-06_13h00.39.991,vts_reward_expectancy_bt,2022.2.4,Win32,30.01650908,Chrome,1536,864,,,l,0.3809,1,362,2,0,11,11,6,1,0,0,1,0,1,0,0,0,hexagon,triangle,,,,,,,,,,,,,,,,,,,,,,,,,,,,,,,,,,,,,,,,,,,,,,,,,,,,,,
292810,2022-12-06_13h00.39.991,vts_reward_expectancy_bt,2022.2.4,Win32,30.01650908,Chrome,1536,864,,,l,0.4854,1,363,2,1,0,12,8,1,0,0,1,0,0,0,0,1,hexagon,star,,,,,,,,,,,,,,,,,,,,,,,,,,,,,,,,,,,,,,,,,,,,,,,,,,,,,,
292810,2022-12-06_13h00.39.991,vts_reward_expectancy_bt,2022.2.4,Win32,30.01650908,Chrome,1536,864,,,a,0.249,1,364,2,1,1,13,10,1,0,0,0,1,0,1,0,0,star ,circle,,,,,,,,,,,,,,,,,,,,,,,,,,,,,,,,,,,,,,,,,,,,,,,,,,,,,,
292810,2022-12-06_13h00.39.991,vts_reward_expectancy_bt,2022.2.4,Win32,30.01650908,Chrome,1536,864,,,a,0.5877,10,374,2,1,2,14,2,1,1,0,0,0,0,0,0,1,triangle,star,,,,,,,,,,,,,,,,,,,,,,,,,,,,,,,,,,,,,,,,,,,,,,,,,,,,,,
292810,2022-12-06_13h00.39.991,vts_reward_expectancy_bt,2022.2.4,Win32,30.01650908,Chrome,1536,864,,,l,0.679,10,384,2,1,3,15,4,1,0,1,0,0,0,0,1,0,circle,hexagon,,,,,,,,,,,,,,,,,,,,,,,,,,,,,,,,,,,,,,,,,,,,,,,,,,,,,,
292810,2022-12-06_13h00.39.991,vts_reward_expectancy_bt,2022.2.4,Win32,30.01650908,Chrome,1536,864,,,l,0.3144,10,394,2,1,4,16,9,1,0,0,0,1,1,0,0,0,star,triangle,,,,,,,,,,,,,,,,,,,,,,,,,,,,,,,,,,,,,,,,,,,,,,,,,,,,,,
292810,2022-12-06_13h00.39.991,vts_reward_expectancy_bt,2022.2.4,Win32,30.01650908,Chrome,1536,864,,,a,0.4087,10,404,2,1,5,17,7,1,0,0,1,0,0,1,0,0,hexagon,circle,,,,,,,,,,,,,,,,,,,,,,,,,,,,,,,,,,,,,,,,,,,,,,,,,,,,,,
292810,2022-12-06_13h00.39.991,vts_reward_expectancy_bt,2022.2.4,Win32,30.01650908,Chrome,1536,864,,,l,0.2822,10,414,2,1,6,18,6,1,0,0,1,0,1,0,0,0,hexagon,triangle,,,,,,,,,,,,,,,,,,,,,,,,,,,,,,,,,,,,,,,,,,,,,,,,,,,,,,
292810,2022-12-06_13h00.39.991,vts_reward_expectancy_bt,2022.2.4,Win32,30.01650908,Chrome,1536,864,,,l,0.4473,1,415,2,1,7,19,0,1,1,0,0,0,0,1,0,0,triangle,circle,,,,,,,,,,,,,,,,,,,,,,,,,,,,,,,,,,,,,,,,,,,,,,,,,,,,,,
292810,2022-12-06_13h00.39.991,vts_reward_expectancy_bt,2022.2.4,Win32,30.01650908,Chrome,1536,864,,,l,0.3851,10,425,2,1,8,20,3,1,0,1,0,0,1,0,0,0,circle,triangle,,,,,,,,,,,,,,,,,,,,,,,,,,,,,,,,,,,,,,,,,,,,,,,,,,,,,,
292810,2022-12-06_13h00.39.991,vts_reward_expectancy_bt,2022.2.4,Win32,30.01650908,Chrome,1536,864,,,l,0.518,10,435,2,1,9,21,5,1,0,1,0,0,0,0,0,1,circle,star,,,,,,,,,,,,,,,,,,,,,,,,,,,,,,,,,,,,,,,,,,,,,,,,,,,,,,
292810,2022-12-06_13h00.39.991,vts_reward_expectancy_bt,2022.2.4,Win32,30.01650908,Chrome,1536,864,,,a,0.3927,1,436,2,1,10,22,11,1,0,0,0,1,0,0,1,0,star,hexagon,,,,,,,,,,,,,,,,,,,,,,,,,,,,,,,,,,,,,,,,,,,,,,,,,,,,,,
292810,2022-12-06_13h00.39.991,vts_reward_expectancy_bt,2022.2.4,Win32,30.01650908,Chrome,1536,864,,,a,0.4288,1,437,2,1,11,23,1,1,1,0,0,0,0,0,1,0,triangle,hexagon,,,,,,,,,,,,,,,,,,,,,,,,,,,,,,,,,,,,,,,,,,,,,,,,,,,,,,
292810,2022-12-06_13h00.39.991,vts_reward_expectancy_bt,2022.2.4,Win32,30.01650908,Chrome,1536,864,,,a,0.3008,1,438,2,2,0,24,10,1,0,0,0,1,0,1,0,0,star ,circle,,,,,,,,,,,,,,,,,,,,,,,,,,,,,,,,,,,,,,,,,,,,,,,,,,,,,,
292810,2022-12-06_13h00.39.991,vts_reward_expectancy_bt,2022.2.4,Win32,30.01650908,Chrome,1536,864,,,l,0.3128,1,439,2,2,1,25,2,1,1,0,0,0,0,0,0,1,triangle,star,,,,,,,,,,,,,,,,,,,,,,,,,,,,,,,,,,,,,,,,,,,,,,,,,,,,,,
292810,2022-12-06_13h00.39.991,vts_reward_expectancy_bt,2022.2.4,Win32,30.01650908,Chrome,1536,864,,,l,0.2321,1,440,2,2,2,26,6,1,0,0,1,0,1,0,0,0,hexagon,triangle,,,,,,,,,,,,,,,,,,,,,,,,,,,,,,,,,,,,,,,,,,,,,,,,,,,,,,
292810,2022-12-06_13h00.39.991,vts_reward_expectancy_bt,2022.2.4,Win32,30.01650908,Chrome,1536,864,,,a,0.3334,10,450,2,2,3,27,5,1,0,1,0,0,0,0,0,1,circle,star,,,,,,,,,,,,,,,,,,,,,,,,,,,,,,,,,,,,,,,,,,,,,,,,,,,,,,
292810,2022-12-06_13h00.39.991,vts_reward_expectancy_bt,2022.2.4,Win32,30.01650908,Chrome,1536,864,,,a,0.2808,10,460,2,2,4,28,8,1,0,0,1,0,0,0,0,1,hexagon,star,,,,,,,,,,,,,,,,,,,,,,,,,,,,,,,,,,,,,,,,,,,,,,,,,,,,,,
292810,2022-12-06_13h00.39.991,vts_reward_expectancy_bt,2022.2.4,Win32,30.01650908,Chrome,1536,864,,,a,0.3913,1,461,2,2,5,29,11,1,0,0,0,1,0,0,1,0,star,hexagon,,,,,,,,,,,,,,,,,,,,,,,,,,,,,,,,,,,,,,,,,,,,,,,,,,,,,,
292810,2022-12-06_13h00.39.991,vts_reward_expectancy_bt,2022.2.4,Win32,30.01650908,Chrome,1536,864,,,a,0.435,10,471,2,2,6,30,4,1,0,1,0,0,0,0,1,0,circle,hexagon,,,,,,,,,,,,,,,,,,,,,,,,,,,,,,,,,,,,,,,,,,,,,,,,,,,,,,
292810,2022-12-06_13h00.39.991,vts_reward_expectancy_bt,2022.2.4,Win32,30.01650908,Chrome,1536,864,,,l,0.4119,1,472,2,2,7,31,7,1,0,0,1,0,0,1,0,0,hexagon,circle,,,,,,,,,,,,,,,,,,,,,,,,,,,,,,,,,,,,,,,,,,,,,,,,,,,,,,
292810,2022-12-06_13h00.39.991,vts_reward_expectancy_bt,2022.2.4,Win32,30.01650908,Chrome,1536,864,,,a,0.4862,1,473,2,2,8,32,3,1,0,1,0,0,1,0,0,0,circle,triangle,,,,,,,,,,,,,,,,,,,,,,,,,,,,,,,,,,,,,,,,,,,,,,,,,,,,,,
292810,2022-12-06_13h00.39.991,vts_reward_expectancy_bt,2022.2.4,Win32,30.01650908,Chrome,1536,864,,,l,0.0011,10,483,2,2,9,33,1,1,1,0,0,0,0,0,1,0,triangle,hexagon,,,,,,,,,,,,,,,,,,,,,,,,,,,,,,,,,,,,,,,,,,,,,,,,,,,,,,
292810,2022-12-06_13h00.39.991,vts_reward_expectancy_bt,2022.2.4,Win32,30.01650908,Chrome,1536,864,,,a,0.4146,10,493,2,2,10,34,0,1,1,0,0,0,0,1,0,0,triangle,circle,,,,,,,,,,,,,,,,,,,,,,,,,,,,,,,,,,,,,,,,,,,,,,,,,,,,,,
292810,2022-12-06_13h00.39.991,vts_reward_expectancy_bt,2022.2.4,Win32,30.01650908,Chrome,1536,864,,,a,1.451,1,494,2,2,11,35,9,1,0,0,0,1,1,0,0,0,star,triangle,,,,,,,,,,,,,,,,,,,,,,,,,,,,,,,,,,,,,,,,,,,,,,,,,,,,,,
292810,2022-12-06_13h00.39.991,vts_reward_expectancy_bt,2022.2.4,Win32,30.01650908,Chrome,1536,864,,,,,,,,,,,,,,,,,,,,,,,B,125,circle,0,0,,0,0,0,0,0,1,,,,,,,,,,,,,,,,,,,,,,,,,,,,,,,,,,,,,,,,,,
292810,2022-12-06_13h00.39.991,vts_reward_expectancy_bt,2022.2.4,Win32,30.01650908,Chrome,1536,864,,,,,,,,,,,,,,,,,,,,,,,D,174,hexagon,1,1,d,0,1,0,1,0,1,2.5399,,,,,,,,,,,,,,,,,,,,,,,,,,,,,,,,,,,,,,,,,
292810,2022-12-06_13h00.39.991,vts_reward_expectancy_bt,2022.2.4,Win32,30.01650908,Chrome,1536,864,,,,,,,,,,,,,,,,,,,,,,,Y,146,triangle,0,0,d,0,2,0,2,0,1,0.6276,,,,,,,,,,,,,,,,,,,,,,,,,,,,,,,,,,,,,,,,,
292810,2022-12-06_13h00.39.991,vts_reward_expectancy_bt,2022.2.4,Win32,30.01650908,Chrome,1536,864,,,,,,,,,,,,,,,,,,,,,,,W,181,star,0,1,d,0,3,0,3,0,1,0.6331,,,,,,,,,,,,,,,,,,,,,,,,,,,,,,,,,,,,,,,,,
292810,2022-12-06_13h00.39.991,vts_reward_expectancy_bt,2022.2.4,Win32,30.01650908,Chrome,1536,864,,,,,,,,,,,,,,,,,,,,,,,U,132,circle,1,1,f,0,4,0,4,0,1,0.4925,,,,,,,,,,,,,,,,,,,,,,,,,,,,,,,,,,,,,,,,,
292810,2022-12-06_13h00.39.991,vts_reward_expectancy_bt,2022.2.4,Win32,30.01650908,Chrome,1536,864,,,,,,,,,,,,,,,,,,,,,,,F,139,hexagon,0,0,f,0,5,0,5,0,1,0.4411,,,,,,,,,,,,,,,,,,,,,,,,,,,,,,,,,,,,,,,,,
292810,2022-12-06_13h00.39.991,vts_reward_expectancy_bt,2022.2.4,Win32,30.01650908,Chrome,1536,864,,,,,,,,,,,,,,,,,,,,,,,S,160,triangle,0,1,d,0,6,0,6,0,1,0.6151,,,,,,,,,,,,,,,,,,,,,,,,,,,,,,,,,,,,,,,,,
292810,2022-12-06_13h00.39.991,vts_reward_expectancy_bt,2022.2.4,Win32,30.01650908,Chrome,1536,864,,,,,,,,,,,,,,,,,,,,,,,H,167,star,1,1,d,0,7,0,7,0,1,0.4789,,,,,,,,,,,,,,,,,,,,,,,,,,,,,,,,,,,,,,,,,
292810,2022-12-06_13h00.39.991,vts_reward_expectancy_bt,2022.2.4,Win32,30.01650908,Chrome,1536,864,,,,,,,,,,,,,,,,,,,,,,,B,125,star,0,0,f,0,8,0,8,0,1,0.4012,,,,,,,,,,,,,,,,,,,,,,,,,,,,,,,,,,,,,,,,,
292810,2022-12-06_13h00.39.991,vts_reward_expectancy_bt,2022.2.4,Win32,30.01650908,Chrome,1536,864,,,,,,,,,,,,,,,,,,,,,,,D,174,hexagon,1,1,d,0,9,0,9,0,1,0.7705,,,,,,,,,,,,,,,,,,,,,,,,,,,,,,,,,,,,,,,,,
292810,2022-12-06_13h00.39.991,vts_reward_expectancy_bt,2022.2.4,Win32,30.01650908,Chrome,1536,864,,,,,,,,,,,,,,,,,,,,,,,S,132,circle,1,0,f,1,0,0,0,0,1,0.5515,,,,,,,,,,,,,,,,,,,,,,,,,,,,,,,,,,,,,,,,,
292810,2022-12-06_13h00.39.991,vts_reward_expectancy_bt,2022.2.4,Win32,30.01650908,Chrome,1536,864,,,,,,,,,,,,,,,,,,,,,,,D,181,star,1,0,d,1,1,0,1,0,1,0.6464,,,,,,,,,,,,,,,,,,,,,,,,,,,,,,,,,,,,,,,,,
292810,2022-12-06_13h00.39.991,vts_reward_expectancy_bt,2022.2.4,Win32,30.01650908,Chrome,1536,864,,,,,,,,,,,,,,,,,,,,,,,Y,146,hexagon,1,0,f,1,2,0,2,0,1,0.6283,,,,,,,,,,,,,,,,,,,,,,,,,,,,,,,,,,,,,,,,,
292810,2022-12-06_13h00.39.991,vts_reward_expectancy_bt,2022.2.4,Win32,30.01650908,Chrome,1536,864,,,,,,,,,,,,,,,,,,,,,,,U,139,triangle,1,0,f,1,3,0,3,0,1,0.9291,,,,,,,,,,,,,,,,,,,,,,,,,,,,,,,,,,,,,,,,,
292810,2022-12-06_13h00.39.991,vts_reward_expectancy_bt,2022.2.4,Win32,30.01650908,Chrome,1536,864,,,,,,,,,,,,,,,,,,,,,,,F,125,circle,1,0,d,1,4,0,4,0,1,0.5651,,,,,,,,,,,,,,,,,,,,,,,,,,,,,,,,,,,,,,,,,
292810,2022-12-06_13h00.39.991,vts_reward_expectancy_bt,2022.2.4,Win32,30.01650908,Chrome,1536,864,,,,,,,,,,,,,,,,,,,,,,,W,167,star,1,0,f,1,5,0,5,0,1,0.5535,,,,,,,,,,,,,,,,,,,,,,,,,,,,,,,,,,,,,,,,,
292810,2022-12-06_13h00.39.991,vts_reward_expectancy_bt,2022.2.4,Win32,30.01650908,Chrome,1536,864,,,,,,,,,,,,,,,,,,,,,,,B,160,hexagon,1,0,d,1,6,0,6,0,1,0.5773,,,,,,,,,,,,,,,,,,,,,,,,,,,,,,,,,,,,,,,,,
292810,2022-12-06_13h00.39.991,vts_reward_expectancy_bt,2022.2.4,Win32,30.01650908,Chrome,1536,864,,,,,,,,,,,,,,,,,,,,,,,H,174,triangle,1,0,d,1,7,0,7,0,1,0.6345,,,,,,,,,,,,,,,,,,,,,,,,,,,,,,,,,,,,,,,,,
292810,2022-12-06_13h00.39.991,vts_reward_expectancy_bt,2022.2.4,Win32,30.01650908,Chrome,1536,864,,,,,,,,,,,,,,,,,,,,,,,S,132,triangle,1,0,f,1,8,0,8,0,1,0.8381,,,,,,,,,,,,,,,,,,,,,,,,,,,,,,,,,,,,,,,,,
292810,2022-12-06_13h00.39.991,vts_reward_expectancy_bt,2022.2.4,Win32,30.01650908,Chrome,1536,864,,,,,,,,,,,,,,,,,,,,,,,D,181,hexagon,1,0,d,1,9,0,9,0,1,0.6685,,,,,,,,,,,,,,,,,,,,,,,,,,,,,,,,,,,,,,,,,
292810,2022-12-06_13h00.39.991,vts_reward_expectancy_bt,2022.2.4,Win32,30.01650908,Chrome,1536,864,,,,,,,,,,,,,,,,,,,,,,,D,125,triangle,1,0,,2,,,,,,,j,0.8337,0,0,0,0,1,,,,,,,,,,,,,,,,,,,,,,,,,,,,,,,,,,
292810,2022-12-06_13h00.39.991,vts_reward_expectancy_bt,2022.2.4,Win32,30.01650908,Chrome,1536,864,,,,,,,,,,,,,,,,,,,,,,,B,139,hexagon,0,0,,2,,,,,,,k,0.6243,1,0,1,0,1,,,,,,,,,,,,,,,,,,,,,,,,,,,,,,,,,,
292810,2022-12-06_13h00.39.991,vts_reward_expectancy_bt,2022.2.4,Win32,30.01650908,Chrome,1536,864,,,,,,,,,,,,,,,,,,,,,,,W,174,star,1,1,,2,,,,,,,k,0.6677,2,0,2,0,1,,,,,,,,,,,,,,,,,,,,,,,,,,,,,,,,,,
292810,2022-12-06_13h00.39.991,vts_reward_expectancy_bt,2022.2.4,Win32,30.01650908,Chrome,1536,864,,,,,,,,,,,,,,,,,,,,,,,U,167,circle,1,0,,2,,,,,,,k,0.6683,3,0,3,0,1,,,,,,,,,,,,,,,,,,,,,,,,,,,,,,,,,,
292810,2022-12-06_13h00.39.991,vts_reward_expectancy_bt,2022.2.4,Win32,30.01650908,Chrome,1536,864,,,,,,,,,,,,,,,,,,,,,,,H,132,triangle,1,0,,2,,,,,,,j,0.4051,4,0,4,0,1,,,,,,,,,,,,,,,,,,,,,,,,,,,,,,,,,,
292810,2022-12-06_13h00.39.991,vts_reward_expectancy_bt,2022.2.4,Win32,30.01650908,Chrome,1536,864,,,,,,,,,,,,,,,,,,,,,,,Y,181,hexagon,1,0,,2,,,,,,,k,0.6514,5,0,5,0,1,,,,,,,,,,,,,,,,,,,,,,,,,,,,,,,,,,
292810,2022-12-06_13h00.39.991,vts_reward_expectancy_bt,2022.2.4,Win32,30.01650908,Chrome,1536,864,,,,,,,,,,,,,,,,,,,,,,,F,160,star,1,0,,2,,,,,,,k,0.5256,6,0,6,0,1,,,,,,,,,,,,,,,,,,,,,,,,,,,,,,,,,,
292810,2022-12-06_13h00.39.991,vts_reward_expectancy_bt,2022.2.4,Win32,30.01650908,Chrome,1536,864,,,,,,,,,,,,,,,,,,,,,,,S,146,circle,1,0,,2,,,,,,,j,0.5898,7,0,7,0,1,,,,,,,,,,,,,,,,,,,,,,,,,,,,,,,,,,
292810,2022-12-06_13h00.39.991,vts_reward_expectancy_bt,2022.2.4,Win32,30.01650908,Chrome,1536,864,,,,,,,,,,,,,,,,,,,,,,,D,125,star,1,0,,2,,,,,,,j,0.702,8,0,8,0,1,,,,,,,,,,,,,,,,,,,,,,,,,,,,,,,,,,
292810,2022-12-06_13h00.39.991,vts_reward_expectancy_bt,2022.2.4,Win32,30.01650908,Chrome,1536,864,,,,,,,,,,,,,,,,,,,,,,,B,139,triangle,1,0,,2,,,,,,,j,1.5885,9,0,9,0,1,,,,,,,,,,,,,,,,,,,,,,,,,,,,,,,,,,
292810,2022-12-06_13h00.39.991,vts_reward_expectancy_bt,2022.2.4,Win32,30.01650908,Chrome,1536,864,,,,,0,494,,,,,,,,,,,,,,,,,D,167,circle,1,0,,3,,,,,,,,,,,,,,-1,letter,NA,d,0.8558,vtsPrac,0,0,0,0,1,,,,,,,,,,,,,,,,,,,,,,,
292810,2022-12-06_13h00.39.991,vts_reward_expectancy_bt,2022.2.4,Win32,30.01650908,Chrome,1536,864,,,,,0,494,,,,,,,,,,,,,,,,,U,174,triangle,1,0,,3,,,,,,,,,,,,,,repeat,letter,lettRpt,f,0.7922,vtsPrac,1,0,1,0,1,,,,,,,,,,,,,,,,,,,,,,,
292810,2022-12-06_13h00.39.991,vts_reward_expectancy_bt,2022.2.4,Win32,30.01650908,Chrome,1536,864,,,,,0,494,,,,,,,,,,,,,,,,,Y,139,circle,1,0,,3,,,,,,,,,,,,,,repeat,letter,lettRpt,f,0.8854,vtsPrac,2,0,2,0,1,,,,,,,,,,,,,,,,,,,,,,,
292810,2022-12-06_13h00.39.991,vts_reward_expectancy_bt,2022.2.4,Win32,30.01650908,Chrome,1536,864,,,,,0,494,,,,,,,,,,,,,,,,,H,146,triangle,1,0,,3,,,,,,,,,,,,,,switch,number,numSwt,j,1.0089,vtsPrac,3,0,3,0,1,,,,,,,,,,,,,,,,,,,,,,,
292810,2022-12-06_13h00.39.991,vts_reward_expectancy_bt,2022.2.4,Win32,30.01650908,Chrome,1536,864,,,,,0,494,,,,,,,,,,,,,,,,,D,167,hexagon,1,0,,3,,,,,,,,,,,,,,repeat,number,numRpt,k,0.6401,vtsPrac,4,0,4,0,1,,,,,,,,,,,,,,,,,,,,,,,
292810,2022-12-06_13h00.39.991,vts_reward_expectancy_bt,2022.2.4,Win32,30.01650908,Chrome,1536,864,,,,,0,494,,,,,,,,,,,,,,,,,U,174,star,1,0,,3,,,,,,,,,,,,,,switch,letter,lettSwt,f,0.5191,vtsPrac,5,0,5,0,1,,,,,,,,,,,,,,,,,,,,,,,
292810,2022-12-06_13h00.39.991,vts_reward_expectancy_bt,2022.2.4,Win32,30.01650908,Chrome,1536,864,,,,,0,494,,,,,,,,,,,,,,,,,Y,139,circle,1,0,,3,,,,,,,,,,,,,,switch,number,numSwt,j,0.8011,vtsPrac,6,0,6,0,1,,,,,,,,,,,,,,,,,,,,,,,
292810,2022-12-06_13h00.39.991,vts_reward_expectancy_bt,2022.2.4,Win32,30.01650908,Chrome,1536,864,,,,,0,494,,,,,,,,,,,,,,,,,H,146,star,1,0,,3,,,,,,,,,,,,,,repeat,number,numRpt,j,0.8353,vtsPrac,7,0,7,0,1,,,,,,,,,,,,,,,,,,,,,,,
292810,2022-12-06_13h00.39.991,vts_reward_expectancy_bt,2022.2.4,Win32,30.01650908,Chrome,1536,864,,,,,0,494,,,,,,,,,,,,,,,,,U,132,star,1,0,,3,,,,,,,,,,,,,,repeat,number,numRpt,j,0.638,vtsPrac,8,0,8,0,1,,,,,,,,,,,,,,,,,,,,,,,
292810,2022-12-06_13h00.39.991,vts_reward_expectancy_bt,2022.2.4,Win32,30.01650908,Chrome,1536,864,,,,,0,494,,,,,,,,,,,,,,,,,S,139,triangle,1,0,,3,,,,,,,,,,,,,,switch,letter,lettSwt,f,0.7345,vtsPrac,9,0,9,0,1,,,,,,,,,,,,,,,,,,,,,,,
292810,2022-12-06_13h00.39.991,vts_reward_expectancy_bt,2022.2.4,Win32,30.01650908,Chrome,1536,864,,,,,0,494,,,,,,,,,,,,,,,,,F,174,hexagon,1,0,,3,,,,,,,,,,,,,,switch,number,numSwt,k,0.8311,vtsPrac,10,0,10,0,1,,,,,,,,,,,,,,,,,,,,,,,
292810,2022-12-06_13h00.39.991,vts_reward_expectancy_bt,2022.2.4,Win32,30.01650908,Chrome,1536,864,,,,,0,494,,,,,,,,,,,,,,,,,D,125,circle,1,0,,3,,,,,,,,,,,,,,repeat,number,numRpt,j,0.7342,vtsPrac,11,0,11,0,1,,,,,,,,,,,,,,,,,,,,,,,
292810,2022-12-06_13h00.39.991,vts_reward_expectancy_bt,2022.2.4,Win32,30.01650908,Chrome,1536,864,,,,,0,494,,,,,,,,,,,,,,,,,S,174,triangle,1,0,,3,,,,,,,,,,,,,,switch,letter,lettSwt,f,0.6082,vtsPrac,12,0,12,0,1,,,,,,,,,,,,,,,,,,,,,,,
292810,2022-12-06_13h00.39.991,vts_reward_expectancy_bt,2022.2.4,Win32,30.01650908,Chrome,1536,864,,,,,0,494,,,,,,,,,,,,,,,,,H,167,hexagon,1,0,,3,,,,,,,,,,,,,,switch,number,numSwt,k,0.7972,vtsPrac,13,0,13,0,1,,,,,,,,,,,,,,,,,,,,,,,
292810,2022-12-06_13h00.39.991,vts_reward_expectancy_bt,2022.2.4,Win32,30.01650908,Chrome,1536,864,,,,,0,494,,,,,,,,,,,,,,,,,B,181,triangle,1,0,,3,,,,,,,,,,,,,,repeat,number,numRpt,k,0.7471,vtsPrac,14,0,14,0,1,,,,,,,,,,,,,,,,,,,,,,,
292810,2022-12-06_13h00.39.991,vts_reward_expectancy_bt,2022.2.4,Win32,30.01650908,Chrome,1536,864,,,,,0,494,,,,,,,,,,,,,,,,,W,132,star,1,0,,3,,,,,,,,,,,,,,switch,letter,lettSwt,f,1.0793,vtsPrac,15,0,15,0,1,,,,,,,,,,,,,,,,,,,,,,,
292810,2022-12-06_13h00.39.991,vts_reward_expectancy_bt,2022.2.4,Win32,30.01650908,Chrome,1536,864,,,,,0,494,,,,,,,,,,,,,,,,,B,139,circle,1,0,,3,,,,,,,,,,,,,,repeat,letter,lettRpt,d,0.6897,vtsPrac,16,0,16,0,1,,,,,,,,,,,,,,,,,,,,,,,
292810,2022-12-06_13h00.39.991,vts_reward_expectancy_bt,2022.2.4,Win32,30.01650908,Chrome,1536,864,,,,,0,494,,,,,,,,,,,,,,,,,W,125,triangle,1,0,,3,,,,,,,,,,,,,,switch,number,numSwt,j,0.974,vtsPrac,17,0,17,0,1,,,,,,,,,,,,,,,,,,,,,,,
292810,2022-12-06_13h00.39.991,vts_reward_expectancy_bt,2022.2.4,Win32,30.01650908,Chrome,1536,864,,,,,0,494,,,,,,,,,,,,,,,,,U,160,hexagon,1,0,,3,,,,,,,,,,,,,,switch,letter,lettSwt,f,1.102,vtsPrac,18,0,18,0,1,,,,,,,,,,,,,,,,,,,,,,,
292810,2022-12-06_13h00.39.991,vts_reward_expectancy_bt,2022.2.4,Win32,30.01650908,Chrome,1536,864,,,,,0,494,,,,,,,,,,,,,,,,,Y,146,triangle,1,0,,3,,,,,,,,,,,,,,repeat,letter,lettRpt,f,1.0573,vtsPrac,19,0,19,0,1,,,,,,,,,,,,,,,,,,,,,,,
292810,2022-12-06_13h00.39.991,vts_reward_expectancy_bt,2022.2.4,Win32,30.01650908,Chrome,1536,864,,,,,0,494,,,,,,,,,,,,,,,,,Y,160,star,1,0,,3,,,,,,,,,,,,,,switch,number,numSwt,k,0.7807,vtsPrac,20,0,20,0,1,,,,,,,,,,,,,,,,,,,,,,,
292810,2022-12-06_13h00.39.991,vts_reward_expectancy_bt,2022.2.4,Win32,30.01650908,Chrome,1536,864,,,,,0,494,,,,,,,,,,,,,,,,,B,146,hexagon,1,0,,3,,,,,,,,,,,,,,switch,letter,lettSwt,d,0.6318,vtsPrac,21,0,21,0,1,,,,,,,,,,,,,,,,,,,,,,,
292810,2022-12-06_13h00.39.991,vts_reward_expectancy_bt,2022.2.4,Win32,30.01650908,Chrome,1536,864,,,,,0,494,,,,,,,,,,,,,,,,,D,181,star,1,0,,3,,,,,,,,,,,,,,repeat,letter,lettRpt,d,0.6322,vtsPrac,22,0,22,0,1,,,,,,,,,,,,,,,,,,,,,,,
292810,2022-12-06_13h00.39.991,vts_reward_expectancy_bt,2022.2.4,Win32,30.01650908,Chrome,1536,864,,,,,0,494,,,,,,,,,,,,,,,,,W,139,triangle,1,0,,3,,,,,,,,,,,,,,switch,number,numSwt,j,0.58,vtsPrac,23,0,23,0,1,,,,,,,,,,,,,,,,,,,,,,,
292810,2022-12-06_13h00.39.991,vts_reward_expectancy_bt,2022.2.4,Win32,30.01650908,Chrome,1536,864,,,,,0,494,,,,,,,,,,,,,,,,,H,146,hexagon,1,0,,3,,,,,,,,,,,,,,repeat,number,numRpt,j,0.8334,vtsPrac,24,0,24,0,1,,,,,,,,,,,,,,,,,,,,,,,
292810,2022-12-06_13h00.39.991,vts_reward_expectancy_bt,2022.2.4,Win32,30.01650908,Chrome,1536,864,,,,,0,494,,,,,,,,,,,,,,,,,U,125,triangle,1,0,,3,,,,,,,,,,,,,,repeat,number,numRpt,j,0.5536,vtsPrac,25,0,25,0,1,,,,,,,,,,,,,,,,,,,,,,,
292810,2022-12-06_13h00.39.991,vts_reward_expectancy_bt,2022.2.4,Win32,30.01650908,Chrome,1536,864,,,,,0,494,,,,,,,,,,,,,,,,,S,167,circle,1,0,,3,,,,,,,,,,,,,,switch,letter,lettSwt,f,0.6857,vtsPrac,26,0,26,0,1,,,,,,,,,,,,,,,,,,,,,,,
292810,2022-12-06_13h00.39.991,vts_reward_expectancy_bt,2022.2.4,Win32,30.01650908,Chrome,1536,864,,,,,0,494,,,,,,,,,,,,,,,,,Y,139,star,1,0,,3,,,,,,,,,,,,,,repeat,letter,lettRpt,f,1.1686,vtsPrac,27,0,27,0,1,,,,,,,,,,,,,,,,,,,,,,,
292810,2022-12-06_13h00.39.991,vts_reward_expectancy_bt,2022.2.4,Win32,30.01650908,Chrome,1536,864,,,,,0,494,,,,,,,,,,,,,,,,,B,174,triangle,1,0,,3,,,,,,,,,,,,,,repeat,letter,lettRpt,d,0.7264,vtsPrac,28,0,28,0,1,,,,,,,,,,,,,,,,,,,,,,,
292810,2022-12-06_13h00.39.991,vts_reward_expectancy_bt,2022.2.4,Win32,30.01650908,Chrome,1536,864,,,,,0,494,,,,,,,,,,,,,,,,,F,167,star,1,0,,3,,,,,,,,,,,,,,repeat,letter,lettRpt,d,0.7358,vtsPrac,29,0,29,0,1,,,,,,,,,,,,,,,,,,,,,,,
292810,2022-12-06_13h00.39.991,vts_reward_expectancy_bt,2022.2.4,Win32,30.01650908,Chrome,1536,864,,,,,0,494,,,,,,,,,,,,,,,,,S,146,hexagon,1,0,,3,,,,,,,,,,,,,,switch,number,numSwt,j,0.5116,vtsPrac,30,0,30,0,1,,,,,,,,,,,,,,,,,,,,,,,
292810,2022-12-06_13h00.39.991,vts_reward_expectancy_bt,2022.2.4,Win32,30.01650908,Chrome,1536,864,,,,,0,494,,,,,,,,,,,,,,,,,U,125,circle,1,0,,3,,,,,,,,,,,,,,switch,letter,lettSwt,f,0.9841,vtsPrac,31,0,31,0,1,,,,,,,,,,,,,,,,,,,,,,,
292810,2022-12-06_13h00.39.991,vts_reward_expectancy_bt,2022.2.4,Win32,30.01650908,Chrome,1536,864,,,,,,,,,,,,,,,,,,,,,,,,,,,,,,,,,,,,,,,,,,,,,,,,,,,,,,,,,,,,,,,,,,,,,,,,,,,,
292810,2022-12-06_13h00.39.991,vts_reward_expectancy_bt,2022.2.4,Win32,30.01650908,Chrome,1536,864,,,,,,,,,,,,,,,,,,,,,,,,,,,,,,,,,,,,,,,,,,,,,,,,,,,,,,,,,,,,,,,,,,,,,,,,,,,,
292810,2022-12-06_13h00.39.991,vts_reward_expectancy_bt,2022.2.4,Win32,30.01650908,Chrome,1536,864,,,,,0,494,,,,,,,,,,,,,,,,,F,146,circle,1,0,,,,,,,,,,,,,,,,repeat,letter,lettRpt,d,0.7559,noRew,,,,,,0,0,0,0,0,1,,,,,,,,,,,,,,,,,
292810,2022-12-06_13h00.39.991,vts_reward_expectancy_bt,2022.2.4,Win32,30.01650908,Chrome,1536,864,,,,,0,494,,,,,,,,,,,,,,,,,B,139,star,1,0,,,,,,,,,,,,,,,,repeat,letter,lettRpt,d,0.7444,noRew,,,,,,0,1,0,1,0,1,,,,,,,,,,,,,,,,,
292810,2022-12-06_13h00.39.991,vts_reward_expectancy_bt,2022.2.4,Win32,30.01650908,Chrome,1536,864,,,,,0,494,,,,,,,,,,,,,,,,,U,160,circle,1,0,,,,,,,,,,,,,,,,repeat,letter,lettRpt,f,0.7397,noRew,,,,,,0,2,0,2,0,1,,,,,,,,,,,,,,,,,
292810,2022-12-06_13h00.39.991,vts_reward_expectancy_bt,2022.2.4,Win32,30.01650908,Chrome,1536,864,,,,,0,494,,,,,,,,,,,,,,,,,S,174,star,1,0,,,,,,,,,,,,,,,,repeat,letter,lettRpt,f,0.8059,noRew,,,,,,0,3,0,3,0,1,,,,,,,,,,,,,,,,,
292810,2022-12-06_13h00.39.991,vts_reward_expectancy_bt,2022.2.4,Win32,30.01650908,Chrome,1536,864,,,,,0,494,,,,,,,,,,,,,,,,,F,146,circle,1,0,,,,,,,,,,,,,,,,repeat,letter,lettRpt,d,0.6216,noRew,,,,,,0,4,0,4,0,1,,,,,,,,,,,,,,,,,
292810,2022-12-06_13h00.39.991,vts_reward_expectancy_bt,2022.2.4,Win32,30.01650908,Chrome,1536,864,,,,,0,494,,,,,,,,,,,,,,,,,B,139,triangle,1,0,,,,,,,,,,,,,,,,repeat,letter,lettRpt,d,0.6815,noRew,,,,,,0,5,0,5,0,1,,,,,,,,,,,,,,,,,
292810,2022-12-06_13h00.39.991,vts_reward_expectancy_bt,2022.2.4,Win32,30.01650908,Chrome,1536,864,,,,,0,494,,,,,,,,,,,,,,,,,U,160,circle,1,0,,,,,,,,,,,,,,,,switch,number,numSwt,k,0.9894,noRew,,,,,,0,6,0,6,0,1,,,,,,,,,,,,,,,,,
292810,2022-12-06_13h00.39.991,vts_reward_expectancy_bt,2022.2.4,Win32,30.01650908,Chrome,1536,864,,,,,0,494,,,,,,,,,,,,,,,,,S,174,star,1,0,,,,,,,,,,,,,,,,repeat,number,numRpt,k,0.7506,noRew,,,,,,0,7,0,7,0,1,,,,,,,,,,,,,,,,,
292810,2022-12-06_13h00.39.991,vts_reward_expectancy_bt,2022.2.4,Win32,30.01650908,Chrome,1536,864,,,,,0,494,,,,,,,,,,,,,,,,,F,132,hexagon,1,0,,,,,,,,,,,,,,,,repeat,number,numRpt,j,0.6771,noRew,,,,,,0,8,0,8,0,1,,,,,,,,,,,,,,,,,
292810,2022-12-06_13h00.39.991,vts_reward_expectancy_bt,2022.2.4,Win32,30.01650908,Chrome,1536,864,,,,,0,494,,,,,,,,,,,,,,,,,U,139,circle,1,0,,,,,,,,,,,,,,,,repeat,number,numRpt,j,0.6115,noRew,,,,,,0,9,0,9,0,1,,,,,,,,,,,,,,,,,
292810,2022-12-06_13h00.39.991,vts_reward_expectancy_bt,2022.2.4,Win32,30.01650908,Chrome,1536,864,,,,,0,494,,,,,,,,,,,,,,,,,B,160,hexagon,1,0,,,,,,,,,,,,,,,,repeat,number,numRpt,k,0.6517,noRew,,,,,,0,10,0,10,0,1,,,,,,,,,,,,,,,,,
292810,2022-12-06_13h00.39.991,vts_reward_expectancy_bt,2022.2.4,Win32,30.01650908,Chrome,1536,864,,,,,0,494,,,,,,,,,,,,,,,,,H,125,triangle,1,0,,,,,,,,,,,,,,,,repeat,number,numRpt,j,0.5435,noRew,,,,,,0,11,0,11,0,1,,,,,,,,,,,,,,,,,
292810,2022-12-06_13h00.39.991,vts_reward_expectancy_bt,2022.2.4,Win32,30.01650908,Chrome,1536,864,,,,,0,494,,,,,,,,,,,,,,,,,W,125,triangle,1,0,,,,,,,,,,,,,,,,switch,letter,lettSwt,f,0.6657,noRew,,,,,,0,12,0,12,0,1,,,,,,,,,,,,,,,,,
292810,2022-12-06_13h00.39.991,vts_reward_expectancy_bt,2022.2.4,Win32,30.01650908,Chrome,1536,864,,,,,0,494,,,,,,,,,,,,,,,,,B,132,circle,1,0,,,,,,,,,,,,,,,,repeat,letter,lettRpt,d,0.5548,noRew,,,,,,0,13,0,13,0,1,,,,,,,,,,,,,,,,,
292810,2022-12-06_13h00.39.991,vts_reward_expectancy_bt,2022.2.4,Win32,30.01650908,Chrome,1536,864,,,,,0,494,,,,,,,,,,,,,,,,,F,146,triangle,1,0,,,,,,,,,,,,,,,,repeat,letter,lettRpt,d,0.6891,noRew,,,,,,0,14,0,14,0,1,,,,,,,,,,,,,,,,,
292810,2022-12-06_13h00.39.991,vts_reward_expectancy_bt,2022.2.4,Win32,30.01650908,Chrome,1536,864,,,,,0,494,,,,,,,,,,,,,,,,,D,160,hexagon,1,0,,,,,,,,,,,,,,,,repeat,letter,lettRpt,d,0.4614,noRew,,,,,,0,15,0,15,0,1,,,,,,,,,,,,,,,,,
292810,2022-12-06_13h00.39.991,vts_reward_expectancy_bt,2022.2.4,Win32,30.01650908,Chrome,1536,864,,,,,0,494,,,,,,,,,,,,,,,,,H,181,star,1,0,,,,,,,,,,,,,,,,repeat,letter,lettRpt,d,0.8417,noRew,,,,,,0,16,0,16,0,1,,,,,,,,,,,,,,,,,
292810,2022-12-06_13h00.39.991,vts_reward_expectancy_bt,2022.2.4,Win32,30.01650908,Chrome,1536,864,,,,,0,494,,,,,,,,,,,,,,,,,Y,146,hexagon,1,0,,,,,,,,,,,,,,,,repeat,letter,lettRpt,f,0.6799,noRew,,,,,,0,17,0,17,0,1,,,,,,,,,,,,,,,,,
292810,2022-12-06_13h00.39.991,vts_reward_expectancy_bt,2022.2.4,Win32,30.01650908,Chrome,1536,864,,,,,0,494,,,,,,,,,,,,,,,,,F,167,triangle,1,0,,,,,,,,,,,,,,,,switch,number,numSwt,k,0.9014,noRew,,,,,,0,18,0,18,0,1,,,,,,,,,,,,,,,,,
292810,2022-12-06_13h00.39.991,vts_reward_expectancy_bt,2022.2.4,Win32,30.01650908,Chrome,1536,864,,,,,0,494,,,,,,,,,,,,,,,,,U,160,circle,1,0,,,,,,,,,,,,,,,,repeat,number,numRpt,k,0.8205,noRew,,,,,,0,19,0,19,0,1,,,,,,,,,,,,,,,,,
292810,2022-12-06_13h00.39.991,vts_reward_expectancy_bt,2022.2.4,Win32,30.01650908,Chrome,1536,864,,,,,0,494,,,,,,,,,,,,,,,,,W,174,hexagon,1,0,,,,,,,,,,,,,,,,repeat,number,numRpt,k,0.7385,noRew,,,,,,0,20,0,20,0,1,,,,,,,,,,,,,,,,,
292810,2022-12-06_13h00.39.991,vts_reward_expectancy_bt,2022.2.4,Win32,30.01650908,Chrome,1536,864,,,,,0,494,,,,,,,,,,,,,,,,,U,125,star,1,0,,,,,,,,,,,,,,,,repeat,number,numRpt,j,0.5286,noRew,,,,,,0,21,0,21,0,1,,,,,,,,,,,,,,,,,
292810,2022-12-06_13h00.39.991,vts_reward_expectancy_bt,2022.2.4,Win32,30.01650908,Chrome,1536,864,,,,,0,494,,,,,,,,,,,,,,,,,B,160,hexagon,1,0,,,,,,,,,,,,,,,,repeat,number,numRpt,k,0.7505,noRew,,,,,,0,22,0,22,0,1,,,,,,,,,,,,,,,,,
292810,2022-12-06_13h00.39.991,vts_reward_expectancy_bt,2022.2.4,Win32,30.01650908,Chrome,1536,864,,,,,0,494,,,,,,,,,,,,,,,,,F,139,star,1,0,,,,,,,,,,,,,,,,repeat,number,numRpt,j,0.5339,noRew,,,,,,0,23,0,23,0,1,,,,,,,,,,,,,,,,,
292810,2022-12-06_13h00.39.991,vts_reward_expectancy_bt,2022.2.4,Win32,30.01650908,Chrome,1536,864,,,,,0,494,,,,,,,,,,,,,,,,,W,167,triangle,1,0,,,,,,,,,,,,,,,,repeat,number,numRpt,k,1.0281,noRew,,,,,,0,24,0,24,0,1,,,,,,,,,,,,,,,,,
292810,2022-12-06_13h00.39.991,vts_reward_expectancy_bt,2022.2.4,Win32,30.01650908,Chrome,1536,864,,,,,0,494,,,,,,,,,,,,,,,,,S,146,hexagon,1,0,,,,,,,,,,,,,,,,repeat,number,numRpt,j,1.2331,noRew,,,,,,0,25,0,25,0,1,,,,,,,,,,,,,,,,,
292810,2022-12-06_13h00.39.991,vts_reward_expectancy_bt,2022.2.4,Win32,30.01650908,Chrome,1536,864,,,,,0,494,,,,,,,,,,,,,,,,,Y,181,triangle,1,0,,,,,,,,,,,,,,,,switch,letter,lettSwt,f,1.0946,noRew,,,,,,0,26,0,26,0,1,,,,,,,,,,,,,,,,,
292810,2022-12-06_13h00.39.991,vts_reward_expectancy_bt,2022.2.4,Win32,30.01650908,Chrome,1536,864,,,,,0,494,,,,,,,,,,,,,,,,,D,160,circle,1,0,,,,,,,,,,,,,,,,repeat,letter,lettRpt,d,0.6939,noRew,,,,,,0,27,0,27,0,1,,,,,,,,,,,,,,,,,
292810,2022-12-06_13h00.39.991,vts_reward_expectancy_bt,2022.2.4,Win32,30.01650908,Chrome,1536,864,,,,,0,494,,,,,,,,,,,,,,,,,F,181,triangle,1,0,,,,,,,,,,,,,,,,repeat,letter,lettRpt,d,1.6739,noRew,,,,,,0,28,0,28,0,1,,,,,,,,,,,,,,,,,
292810,2022-12-06_13h00.39.991,vts_reward_expectancy_bt,2022.2.4,Win32,30.01650908,Chrome,1536,864,,,,,0,494,,,,,,,,,,,,,,,,,H,167,hexagon,1,0,,,,,,,,,,,,,,,,repeat,letter,lettRpt,d,0.9994,noRew,,,,,,0,29,0,29,0,1,,,,,,,,,,,,,,,,,
292810,2022-12-06_13h00.39.991,vts_reward_expectancy_bt,2022.2.4,Win32,30.01650908,Chrome,1536,864,,,,,0,494,,,,,,,,,,,,,,,,,S,125,hexagon,1,0,,,,,,,,,,,,,,,,repeat,letter,lettRpt,f,0.5603,noRew,,,,,,0,30,0,30,0,1,,,,,,,,,,,,,,,,,
292810,2022-12-06_13h00.39.991,vts_reward_expectancy_bt,2022.2.4,Win32,30.01650908,Chrome,1536,864,,,,,0,494,,,,,,,,,,,,,,,,,W,146,star,0,0,,,,,,,,,,,,,,,,repeat,letter,NA,d,0.6031,noRew,,,,,,0,31,0,31,0,1,,,,,,,,,,,,,,,,,
292810,2022-12-06_13h00.39.991,vts_reward_expectancy_bt,2022.2.4,Win32,30.01650908,Chrome,1536,864,,,,,0,494,,,,,,,,,,,,,,,,,D,132,star,1,1,,,,,,,,,,,,,,,,repeat,letter,lettRpt,d,0.5402,noRew,,,,,,0,32,0,32,0,1,,,,,,,,,,,,,,,,,
292810,2022-12-06_13h00.39.991,vts_reward_expectancy_bt,2022.2.4,Win32,30.01650908,Chrome,1536,864,,,,,0,494,,,,,,,,,,,,,,,,,W,139,circle,1,0,,,,,,,,,,,,,,,,switch,number,numSwt,j,0.763,noRew,,,,,,0,33,0,33,0,1,,,,,,,,,,,,,,,,,
292810,2022-12-06_13h00.39.991,vts_reward_expectancy_bt,2022.2.4,Win32,30.01650908,Chrome,1536,864,,,,,0,494,,,,,,,,,,,,,,,,,U,174,triangle,1,0,,,,,,,,,,,,,,,,repeat,number,numRpt,k,0.6876,noRew,,,,,,0,34,0,34,0,1,,,,,,,,,,,,,,,,,
292810,2022-12-06_13h00.39.991,vts_reward_expectancy_bt,2022.2.4,Win32,30.01650908,Chrome,1536,864,,,,,0,494,,,,,,,,,,,,,,,,,Y,181,hexagon,1,0,,,,,,,,,,,,,,,,repeat,number,numRpt,k,0.6643,noRew,,,,,,0,35,0,35,0,1,,,,,,,,,,,,,,,,,
292810,2022-12-06_13h00.39.991,vts_reward_expectancy_bt,2022.2.4,Win32,30.01650908,Chrome,1536,864,,,,,0,494,,,,,,,,,,,,,,,,,U,139,triangle,1,0,,,,,,,,,,,,,,,,repeat,number,numRpt,j,0.591,noRew,,,,,,0,36,0,36,0,1,,,,,,,,,,,,,,,,,
292810,2022-12-06_13h00.39.991,vts_reward_expectancy_bt,2022.2.4,Win32,30.01650908,Chrome,1536,864,,,,,0,494,,,,,,,,,,,,,,,,,D,167,circle,1,0,,,,,,,,,,,,,,,,repeat,number,numRpt,k,0.621,noRew,,,,,,0,37,0,37,0,1,,,,,,,,,,,,,,,,,
292810,2022-12-06_13h00.39.991,vts_reward_expectancy_bt,2022.2.4,Win32,30.01650908,Chrome,1536,864,,,,,0,494,,,,,,,,,,,,,,,,,S,160,circle,1,0,,,,,,,,,,,,,,,,switch,letter,lettSwt,f,0.7448,noRew,,,,,,0,38,0,38,0,1,,,,,,,,,,,,,,,,,
292810,2022-12-06_13h00.39.991,vts_reward_expectancy_bt,2022.2.4,Win32,30.01650908,Chrome,1536,864,,,,,0,494,,,,,,,,,,,,,,,,,W,174,hexagon,1,0,,,,,,,,,,,,,,,,switch,number,numSwt,k,0.8176,noRew,,,,,,0,39,0,39,0,1,,,,,,,,,,,,,,,,,
292810,2022-12-06_13h00.39.991,vts_reward_expectancy_bt,2022.2.4,Win32,30.01650908,Chrome,1536,864,,,,,0,494,,,,,,,,,,,,,,,,,S,132,triangle,1,0,,,,,,,,,,,,,,,,switch,letter,lettSwt,f,1.296,noRew,,,,,,0,40,0,40,0,1,,,,,,,,,,,,,,,,,
292810,2022-12-06_13h00.39.991,vts_reward_expectancy_bt,2022.2.4,Win32,30.01650908,Chrome,1536,864,,,,,0,494,,,,,,,,,,,,,,,,,U,146,hexagon,1,0,,,,,,,,,,,,,,,,repeat,letter,lettRpt,f,1.0062,noRew,,,,,,0,41,0,41,0,1,,,,,,,,,,,,,,,,,
292810,2022-12-06_13h00.39.991,vts_reward_expectancy_bt,2022.2.4,Win32,30.01650908,Chrome,1536,864,,,,,0,494,,,,,,,,,,,,,,,,,Y,167,star,1,0,,,,,,,,,,,,,,,,repeat,letter,lettRpt,f,1.4036,noRew,,,,,,0,42,0,42,0,1,,,,,,,,,,,,,,,,,
292810,2022-12-06_13h00.39.991,vts_reward_expectancy_bt,2022.2.4,Win32,30.01650908,Chrome,1536,864,,,,,0,494,,,,,,,,,,,,,,,,,F,174,hexagon,1,0,,,,,,,,,,,,,,,,switch,number,numSwt,k,0.5841,noRew,,,,,,0,43,0,43,0,1,,,,,,,,,,,,,,,,,
292810,2022-12-06_13h00.39.991,vts_reward_expectancy_bt,2022.2.4,Win32,30.01650908,Chrome,1536,864,,,,,0,494,,,,,,,,,,,,,,,,,Y,160,hexagon,1,0,,,,,,,,,,,,,,,,repeat,number,numRpt,k,0.7157,noRew,,,,,,0,44,0,44,0,1,,,,,,,,,,,,,,,,,
292810,2022-12-06_13h00.39.991,vts_reward_expectancy_bt,2022.2.4,Win32,30.01650908,Chrome,1536,864,,,,,0,494,,,,,,,,,,,,,,,,,S,139,triangle,1,0,,,,,,,,,,,,,,,,switch,letter,lettSwt,f,0.8807,noRew,,,,,,0,45,0,45,0,1,,,,,,,,,,,,,,,,,
292810,2022-12-06_13h00.39.991,vts_reward_expectancy_bt,2022.2.4,Win32,30.01650908,Chrome,1536,864,,,,,0,494,,,,,,,,,,,,,,,,,U,181,circle,1,0,,,,,,,,,,,,,,,,repeat,letter,lettRpt,f,1.031,noRew,,,,,,0,46,0,46,0,1,,,,,,,,,,,,,,,,,
292810,2022-12-06_13h00.39.991,vts_reward_expectancy_bt,2022.2.4,Win32,30.01650908,Chrome,1536,864,,,,,0,494,,,,,,,,,,,,,,,,,D,132,hexagon,1,0,,,,,,,,,,,,,,,,switch,number,numSwt,j,0.5811,noRew,,,,,,0,47,0,47,0,1,,,,,,,,,,,,,,,,,
292810,2022-12-06_13h00.39.991,vts_reward_expectancy_bt,2022.2.4,Win32,30.01650908,Chrome,1536,864,,,,,0,494,,,,,,,,,,,,,,,,,Y,181,triangle,1,0,,,,,,,,,,,,,,,,repeat,number,numRpt,k,0.763,noRew,,,,,,0,48,0,48,0,1,,,,,,,,,,,,,,,,,
292810,2022-12-06_13h00.39.991,vts_reward_expectancy_bt,2022.2.4,Win32,30.01650908,Chrome,1536,864,,,,,0,494,,,,,,,,,,,,,,,,,B,146,star,1,0,,,,,,,,,,,,,,,,switch,letter,lettSwt,d,0.65,noRew,,,,,,0,49,0,49,0,1,,,,,,,,,,,,,,,,,
292810,2022-12-06_13h00.39.991,vts_reward_expectancy_bt,2022.2.4,Win32,30.01650908,Chrome,1536,864,,,,,0,494,,,,,,,,,,,,,,,,,H,167,star,1,0,,,,,,,,,,,,,,,,repeat,letter,lettRpt,d,1.109,noRew,,,,,,0,50,0,50,0,1,,,,,,,,,,,,,,,,,
292810,2022-12-06_13h00.39.991,vts_reward_expectancy_bt,2022.2.4,Win32,30.01650908,Chrome,1536,864,,,,,0,494,,,,,,,,,,,,,,,,,D,160,hexagon,1,0,,,,,,,,,,,,,,,,repeat,letter,lettRpt,d,0.68,noRew,,,,,,0,51,0,51,0,1,,,,,,,,,,,,,,,,,
292810,2022-12-06_13h00.39.991,vts_reward_expectancy_bt,2022.2.4,Win32,30.01650908,Chrome,1536,864,,,,,0,494,,,,,,,,,,,,,,,,,B,181,hexagon,1,0,,,,,,,,,,,,,,,,switch,number,numSwt,k,0.5635,noRew,,,,,,0,52,0,52,0,1,,,,,,,,,,,,,,,,,
292810,2022-12-06_13h00.39.991,vts_reward_expectancy_bt,2022.2.4,Win32,30.01650908,Chrome,1536,864,,,,,0,494,,,,,,,,,,,,,,,,,W,125,circle,1,0,,,,,,,,,,,,,,,,repeat,number,numRpt,j,0.4056,noRew,,,,,,0,53,0,53,0,1,,,,,,,,,,,,,,,,,
292810,2022-12-06_13h00.39.991,vts_reward_expectancy_bt,2022.2.4,Win32,30.01650908,Chrome,1536,864,,,,,0,494,,,,,,,,,,,,,,,,,S,146,hexagon,1,0,,,,,,,,,,,,,,,,repeat,number,numRpt,j,0.6089,noRew,,,,,,0,54,0,54,0,1,,,,,,,,,,,,,,,,,
292810,2022-12-06_13h00.39.991,vts_reward_expectancy_bt,2022.2.4,Win32,30.01650908,Chrome,1536,864,,,,,0,494,,,,,,,,,,,,,,,,,Y,160,circle,1,0,,,,,,,,,,,,,,,,switch,letter,lettSwt,f,0.7836,noRew,,,,,,0,55,0,55,0,1,,,,,,,,,,,,,,,,,
292810,2022-12-06_13h00.39.991,vts_reward_expectancy_bt,2022.2.4,Win32,30.01650908,Chrome,1536,864,,,,,0,494,,,,,,,,,,,,,,,,,W,160,triangle,1,0,,,,,,,,,,,,,,,,switch,number,numSwt,k,1.8465,noRew,,,,,,0,56,0,56,0,1,,,,,,,,,,,,,,,,,
292810,2022-12-06_13h00.39.991,vts_reward_expectancy_bt,2022.2.4,Win32,30.01650908,Chrome,1536,864,,,,,0,494,,,,,,,,,,,,,,,,,H,146,star,1,0,,,,,,,,,,,,,,,,repeat,number,numRpt,j,0.7844,noRew,,,,,,0,57,0,57,0,1,,,,,,,,,,,,,,,,,
292810,2022-12-06_13h00.39.991,vts_reward_expectancy_bt,2022.2.4,Win32,30.01650908,Chrome,1536,864,,,,,0,494,,,,,,,,,,,,,,,,,U,181,circle,1,0,,,,,,,,,,,,,,,,switch,letter,lettSwt,f,0.6861,noRew,,,,,,0,58,0,58,0,1,,,,,,,,,,,,,,,,,
292810,2022-12-06_13h00.39.991,vts_reward_expectancy_bt,2022.2.4,Win32,30.01650908,Chrome,1536,864,,,,,0,494,,,,,,,,,,,,,,,,,Y,139,star,1,0,,,,,,,,,,,,,,,,repeat,letter,lettRpt,f,0.6706,noRew,,,,,,0,59,0,59,0,1,,,,,,,,,,,,,,,,,
292810,2022-12-06_13h00.39.991,vts_reward_expectancy_bt,2022.2.4,Win32,30.01650908,Chrome,1536,864,,,,,0,494,,,,,,,,,,,,,,,,,U,132,star,1,0,,,,,,,,,,,,,,,,repeat,letter,lettRpt,f,0.56,noRew,,,,,,0,60,0,60,0,1,,,,,,,,,,,,,,,,,
292810,2022-12-06_13h00.39.991,vts_reward_expectancy_bt,2022.2.4,Win32,30.01650908,Chrome,1536,864,,,,,0,494,,,,,,,,,,,,,,,,,Y,160,triangle,1,0,,,,,,,,,,,,,,,,switch,number,numSwt,k,0.6411,noRew,,,,,,0,61,0,61,0,1,,,,,,,,,,,,,,,,,
292810,2022-12-06_13h00.39.991,vts_reward_expectancy_bt,2022.2.4,Win32,30.01650908,Chrome,1536,864,,,,,0,494,,,,,,,,,,,,,,,,,W,125,star,1,0,,,,,,,,,,,,,,,,repeat,number,numRpt,j,0.573,noRew,,,,,,0,62,0,62,0,1,,,,,,,,,,,,,,,,,
292810,2022-12-06_13h00.39.991,vts_reward_expectancy_bt,2022.2.4,Win32,30.01650908,Chrome,1536,864,,,,,0,494,,,,,,,,,,,,,,,,,H,181,triangle,1,0,,,,,,,,,,,,,,,,switch,letter,lettSwt,d,1.0428,noRew,,,,,,0,63,0,63,0,1,,,,,,,,,,,,,,,,,
292810,2022-12-06_13h00.39.991,vts_reward_expectancy_bt,2022.2.4,Win32,30.01650908,Chrome,1536,864,,,,,,,,,,,,,,,,,,,,,,,,,,,,,,,,,,,,,,,,,,,,,,,,,,,,,,,,,,,,,,,,,,,,,,,,,,,,
292810,2022-12-06_13h00.39.991,vts_reward_expectancy_bt,2022.2.4,Win32,30.01650908,Chrome,1536,864,,,,,0,494,,,,,,,,,,,,,,,,,H,181,hexagon,1,0,,,,,,,,,,,,,,,,repeat,letter,lettRpt,d,0.9805,Hi,,,,,,0,,,,,,space,5.2931,low,0,0,0,0,1,,,,,,,,,
292810,2022-12-06_13h00.39.991,vts_reward_expectancy_bt,2022.2.4,Win32,30.01650908,Chrome,1536,864,,,,,1,495,,,,,,,,,,,,,,,,,Y,125,star,1,0,,,,,,,,,,,,,,,,repeat,letter,lettRpt,f,0.7011,Lo,,,,,,0,,,,,,,,low,1,0,1,0,1,,,,,,,,,
292810,2022-12-06_13h00.39.991,vts_reward_expectancy_bt,2022.2.4,Win32,30.01650908,Chrome,1536,864,,,,,1,496,,,,,,,,,,,,,,,,,U,167,triangle,1,0,,,,,,,,,,,,,,,,switch,number,numSwt,k,0.5918,Hi,,,,,,0,,,,,,,,low,2,0,2,0,1,,,,,,,,,
292810,2022-12-06_13h00.39.991,vts_reward_expectancy_bt,2022.2.4,Win32,30.01650908,Chrome,1536,864,,,,,1,497,,,,,,,,,,,,,,,,,F,174,circle,1,0,,,,,,,,,,,,,,,,repeat,number,numRpt,k,0.4438,Lo,,,,,,0,,,,,,,,low,3,0,3,0,1,,,,,,,,,
292810,2022-12-06_13h00.39.991,vts_reward_expectancy_bt,2022.2.4,Win32,30.01650908,Chrome,1536,864,,,,,1,498,,,,,,,,,,,,,,,,,W,146,hexagon,1,0,,,,,,,,,,,,,,,,switch,letter,lettSwt,f,0.5875,Hi,,,,,,0,,,,,,,,low,4,0,4,0,1,,,,,,,,,
292810,2022-12-06_13h00.39.991,vts_reward_expectancy_bt,2022.2.4,Win32,30.01650908,Chrome,1536,864,,,,,1,499,,,,,,,,,,,,,,,,,B,132,star,1,0,,,,,,,,,,,,,,,,repeat,letter,lettRpt,d,0.6358,Lo,,,,,,0,,,,,,,,low,5,0,5,0,1,,,,,,,,,
292810,2022-12-06_13h00.39.991,vts_reward_expectancy_bt,2022.2.4,Win32,30.01650908,Chrome,1536,864,,,,,0,499,,,,,,,,,,,,,,,,,S,139,triangle,1,0,,,,,,,,,,,,,,,,switch,number,numSwt,j,0.7852,Hi,,,,,,0,,,,,,,,low,6,0,6,0,1,,,,,,,,,
292810,2022-12-06_13h00.39.991,vts_reward_expectancy_bt,2022.2.4,Win32,30.01650908,Chrome,1536,864,,,,,10,509,,,,,,,,,,,,,,,,,D,160,circle,1,0,,,,,,,,,,,,,,,,repeat,number,numRpt,k,0.497,Lo,,,,,,0,,,,,,,,low,7,0,7,0,1,,,,,,,,,
292810,2022-12-06_13h00.39.991,vts_reward_expectancy_bt,2022.2.4,Win32,30.01650908,Chrome,1536,864,,,,,1,510,,,,,,,,,,,,,,,,,H,181,triangle,1,0,,,,,,,,,,,,,,,,switch,letter,lettSwt,d,0.5704,Hi,,,,,,0,,,,,,,,low,8,0,8,0,1,,,,,,,,,
292810,2022-12-06_13h00.39.991,vts_reward_expectancy_bt,2022.2.4,Win32,30.01650908,Chrome,1536,864,,,,,10,520,,,,,,,,,,,,,,,,,Y,125,hexagon,1,0,,,,,,,,,,,,,,,,repeat,letter,lettRpt,f,0.485,Hi,,,,,,0,,,,,,,,low,9,0,9,0,1,,,,,,,,,
292810,2022-12-06_13h00.39.991,vts_reward_expectancy_bt,2022.2.4,Win32,30.01650908,Chrome,1536,864,,,,,10,530,,,,,,,,,,,,,,,,,U,167,star,1,0,,,,,,,,,,,,,,,,switch,number,numSwt,k,0.6509,Lo,,,,,,0,,,,,,,,low,10,0,10,0,1,,,,,,,,,
292810,2022-12-06_13h00.39.991,vts_reward_expectancy_bt,2022.2.4,Win32,30.01650908,Chrome,1536,864,,,,,1,531,,,,,,,,,,,,,,,,,F,174,circle,1,0,,,,,,,,,,,,,,,,repeat,number,numRpt,k,0.7379,Lo,,,,,,0,,,,,,,,low,11,0,11,0,1,,,,,,,,,
292810,2022-12-06_13h00.39.991,vts_reward_expectancy_bt,2022.2.4,Win32,30.01650908,Chrome,1536,864,,,,,0,531,,,,,,,,,,,,,,,,,W,146,circle,0,0,,,,,,,,,,,,,,,,switch,letter,NA,d,0.8062,Lo,,,,,,0,,,,,,,,low,12,0,12,0,1,,,,,,,,,
292810,2022-12-06_13h00.39.991,vts_reward_expectancy_bt,2022.2.4,Win32,30.01650908,Chrome,1536,864,,,,,1,532,,,,,,,,,,,,,,,,,B,132,hexagon,1,1,,,,,,,,,,,,,,,,repeat,letter,lettRpt,d,0.5451,Hi,,,,,,0,,,,,,,,low,13,0,13,0,1,,,,,,,,,
292810,2022-12-06_13h00.39.991,vts_reward_expectancy_bt,2022.2.4,Win32,30.01650908,Chrome,1536,864,,,,,0,532,,,,,,,,,,,,,,,,,S,139,triangle,1,0,,,,,,,,,,,,,,,,switch,number,numSwt,j,0.9131,Hi,,,,,,0,,,,,,,,low,14,0,14,0,1,,,,,,,,,
292810,2022-12-06_13h00.39.991,vts_reward_expectancy_bt,2022.2.4,Win32,30.01650908,Chrome,1536,864,,,,,10,542,,,,,,,,,,,,,,,,,D,160,star,1,0,,,,,,,,,,,,,,,,repeat,number,numRpt,k,0.5118,Lo,,,,,,0,,,,,,,,low,15,0,15,0,1,,,,,,,,,
292810,2022-12-06_13h00.39.991,vts_reward_expectancy_bt,2022.2.4,Win32,30.01650908,Chrome,1536,864,,,,,10,552,,,,,,,,,,,,,,,,,W,181,circle,1,0,,,,,,,,,,,,,,,,switch,letter,lettSwt,f,0.4175,Lo,,,,,,0,,,,,,,,low,16,0,16,0,1,,,,,,,,,
292810,2022-12-06_13h00.39.991,vts_reward_expectancy_bt,2022.2.4,Win32,30.01650908,Chrome,1536,864,,,,,1,553,,,,,,,,,,,,,,,,,D,132,star,1,0,,,,,,,,,,,,,,,,repeat,letter,lettRpt,d,0.5431,Lo,,,,,,0,,,,,,,,low,17,0,17,0,1,,,,,,,,,
292810,2022-12-06_13h00.39.991,vts_reward_expectancy_bt,2022.2.4,Win32,30.01650908,Chrome,1536,864,,,,,0,553,,,,,,,,,,,,,,,,,F,160,triangle,1,0,,,,,,,,,,,,,,,,switch,number,numSwt,k,0.7773,Hi,,,,,,0,,,,,,,,low,18,0,18,0,1,,,,,,,,,
292810,2022-12-06_13h00.39.991,vts_reward_expectancy_bt,2022.2.4,Win32,30.01650908,Chrome,1536,864,,,,,10,563,,,,,,,,,,,,,,,,,H,174,hexagon,1,0,,,,,,,,,,,,,,,,repeat,number,numRpt,k,0.4297,Hi,,,,,,0,,,,,,,,low,19,0,19,0,1,,,,,,,,,
292810,2022-12-06_13h00.39.991,vts_reward_expectancy_bt,2022.2.4,Win32,30.01650908,Chrome,1536,864,,,,,1,564,,,,,,,,,,,,,,,,,S,139,circle,1,0,,,,,,,,,,,,,,,,switch,letter,lettSwt,f,0.5186,Lo,,,,,,0,,,,,,,,low,20,0,20,0,1,,,,,,,,,
292810,2022-12-06_13h00.39.991,vts_reward_expectancy_bt,2022.2.4,Win32,30.01650908,Chrome,1536,864,,,,,10,574,,,,,,,,,,,,,,,,,Y,146,triangle,1,0,,,,,,,,,,,,,,,,repeat,letter,lettRpt,f,0.5847,Hi,,,,,,0,,,,,,,,low,21,0,21,0,1,,,,,,,,,
292810,2022-12-06_13h00.39.991,vts_reward_expectancy_bt,2022.2.4,Win32,30.01650908,Chrome,1536,864,,,,,10,584,,,,,,,,,,,,,,,,,B,167,hexagon,1,0,,,,,,,,,,,,,,,,switch,number,numSwt,k,0.6005,Hi,,,,,,0,,,,,,,,low,22,0,22,0,1,,,,,,,,,
292810,2022-12-06_13h00.39.991,vts_reward_expectancy_bt,2022.2.4,Win32,30.01650908,Chrome,1536,864,,,,,1,585,,,,,,,,,,,,,,,,,U,125,star,1,0,,,,,,,,,,,,,,,,repeat,number,numRpt,j,0.4841,Lo,,,,,,0,,,,,,,,low,23,0,23,0,1,,,,,,,,,
292810,2022-12-06_13h00.39.991,vts_reward_expectancy_bt,2022.2.4,Win32,30.01650908,Chrome,1536,864,,,,,1,586,,,,,,,,,,,,,,,,,U,181,circle,1,0,,,,,,,,,,,,,,,,switch,letter,lettSwt,f,0.5543,Lo,,,,,,0,,,,,,,,low,24,0,24,0,1,,,,,,,,,
292810,2022-12-06_13h00.39.991,vts_reward_expectancy_bt,2022.2.4,Win32,30.01650908,Chrome,1536,864,,,,,1,587,,,,,,,,,,,,,,,,,F,132,star,1,0,,,,,,,,,,,,,,,,repeat,letter,lettRpt,d,0.7068,Lo,,,,,,0,,,,,,,,low,25,0,25,0,1,,,,,,,,,
292810,2022-12-06_13h00.39.991,vts_reward_expectancy_bt,2022.2.4,Win32,30.01650908,Chrome,1536,864,,,,,10,597,,,,,,,,,,,,,,,,,Y,146,hexagon,1,0,,,,,,,,,,,,,,,,switch,number,numSwt,j,0.551,Hi,,,,,,0,,,,,,,,low,26,0,26,0,1,,,,,,,,,
292810,2022-12-06_13h00.39.991,vts_reward_expectancy_bt,2022.2.4,Win32,30.01650908,Chrome,1536,864,,,,,1,598,,,,,,,,,,,,,,,,,S,139,triangle,1,0,,,,,,,,,,,,,,,,repeat,number,numRpt,j,0.5398,Hi,,,,,,0,,,,,,,,low,27,0,27,0,1,,,,,,,,,
292810,2022-12-06_13h00.39.991,vts_reward_expectancy_bt,2022.2.4,Win32,30.01650908,Chrome,1536,864,,,,,0,598,,,,,,,,,,,,,,,,,H,174,triangle,1,0,,,,,,,,,,,,,,,,repeat,number,numRpt,k,0.667,Hi,,,,,,0,,,,,,,,low,28,0,28,0,1,,,,,,,,,
292810,2022-12-06_13h00.39.991,vts_reward_expectancy_bt,2022.2.4,Win32,30.01650908,Chrome,1536,864,,,,,10,608,,,,,,,,,,,,,,,,,W,125,circle,1,0,,,,,,,,,,,,,,,,switch,letter,lettSwt,f,0.4521,Lo,,,,,,0,,,,,,,,low,29,0,29,0,1,,,,,,,,,
292810,2022-12-06_13h00.39.991,vts_reward_expectancy_bt,2022.2.4,Win32,30.01650908,Chrome,1536,864,,,,,10,618,,,,,,,,,,,,,,,,,D,160,hexagon,1,0,,,,,,,,,,,,,,,,repeat,letter,lettRpt,d,0.5513,Hi,,,,,,0,,,,,,,,low,30,0,30,0,1,,,,,,,,,
292810,2022-12-06_13h00.39.991,vts_reward_expectancy_bt,2022.2.4,Win32,30.01650908,Chrome,1536,864,,,,,1,619,,,,,,,,,,,,,,,,,B,167,star,1,0,,,,,,,,,,,,,,,,repeat,letter,lettRpt,d,0.6827,Lo,,,,,,0,,,,,,,,low,31,0,31,0,1,,,,,,,,,
292810,2022-12-06_13h00.39.991,vts_reward_expectancy_bt,2022.2.4,Win32,30.01650908,Chrome,1536,864,,,,,1,620,,,,,,,,,,,,,,,,,Y,146,triangle,1,0,,,,,,,,,,,,,,,,repeat,letter,lettRpt,f,0.5421,Hi,,,,,,1,,,,,,space,1.4787,low,0,0,0,0,1,,,,,,,,,
292810,2022-12-06_13h00.39.991,vts_reward_expectancy_bt,2022.2.4,Win32,30.01650908,Chrome,1536,864,,,,,0,620,,,,,,,,,,,,,,,,,F,125,hexagon,1,0,,,,,,,,,,,,,,,,repeat,letter,lettRpt,d,0.6069,Hi,,,,,,1,,,,,,,,low,1,0,1,0,1,,,,,,,,,
292810,2022-12-06_13h00.39.991,vts_reward_expectancy_bt,2022.2.4,Win32,30.01650908,Chrome,1536,864,,,,,1,621,,,,,,,,,,,,,,,,,S,181,star,1,0,,,,,,,,,,,,,,,,repeat,letter,lettRpt,f,0.6003,Lo,,,,,,1,,,,,,,,low,2,0,2,0,1,,,,,,,,,
292810,2022-12-06_13h00.39.991,vts_reward_expectancy_bt,2022.2.4,Win32,30.01650908,Chrome,1536,864,,,,,1,622,,,,,,,,,,,,,,,,,B,139,circle,1,0,,,,,,,,,,,,,,,,repeat,letter,lettRpt,d,0.501,Lo,,,,,,1,,,,,,,,low,3,0,3,0,1,,,,,,,,,
292810,2022-12-06_13h00.39.991,vts_reward_expectancy_bt,2022.2.4,Win32,30.01650908,Chrome,1536,864,,,,,0,622,,,,,,,,,,,,,,,,,D,174,triangle,1,0,,,,,,,,,,,,,,,,repeat,letter,lettRpt,d,0.5773,Hi,,,,,,1,,,,,,,,low,4,0,4,0,1,,,,,,,,,
292810,2022-12-06_13h00.39.991,vts_reward_expectancy_bt,2022.2.4,Win32,30.01650908,Chrome,1536,864,,,,,10,632,,,,,,,,,,,,,,,,,U,167,hexagon,1,0,,,,,,,,,,,,,,,,repeat,letter,lettRpt,f,0.5358,Hi,,,,,,1,,,,,,,,low,5,0,5,0,1,,,,,,,,,
292810,2022-12-06_13h00.39.991,vts_reward_expectancy_bt,2022.2.4,Win32,30.01650908,Chrome,1536,864,,,,,1,633,,,,,,,,,,,,,,,,,H,160,star,1,0,,,,,,,,,,,,,,,,switch,number,numSwt,k,0.7186,Lo,,,,,,1,,,,,,,,low,6,0,6,0,1,,,,,,,,,
292810,2022-12-06_13h00.39.991,vts_reward_expectancy_bt,2022.2.4,Win32,30.01650908,Chrome,1536,864,,,,,0,633,,,,,,,,,,,,,,,,,W,132,circle,0,0,,,,,,,,,,,,,,,,repeat,number,NA,k,1.1179,Lo,,,,,,1,,,,,,,,low,7,0,7,0,1,,,,,,,,,
292810,2022-12-06_13h00.39.991,vts_reward_expectancy_bt,2022.2.4,Win32,30.01650908,Chrome,1536,864,,,,,0,633,,,,,,,,,,,,,,,,,Y,146,hexagon,1,1,,,,,,,,,,,,,,,,repeat,number,numRpt,j,0.4937,Hi,,,,,,1,,,,,,,,low,8,0,8,0,1,,,,,,,,,
292810,2022-12-06_13h00.39.991,vts_reward_expectancy_bt,2022.2.4,Win32,30.01650908,Chrome,1536,864,,,,,1,634,,,,,,,,,,,,,,,,,F,125,circle,1,0,,,,,,,,,,,,,,,,repeat,number,numRpt,j,0.4618,Lo,,,,,,1,,,,,,,,low,9,0,9,0,1,,,,,,,,,
292810,2022-12-06_13h00.39.991,vts_reward_expectancy_bt,2022.2.4,Win32,30.01650908,Chrome,1536,864,,,,,10,644,,,,,,,,,,,,,,,,,S,181,star,1,0,,,,,,,,,,,,,,,,repeat,number,numRpt,k,0.4202,Lo,,,,,,1,,,,,,,,low,10,0,10,0,1,,,,,,,,,
292810,2022-12-06_13h00.39.991,vts_reward_expectancy_bt,2022.2.4,Win32,30.01650908,Chrome,1536,864,,,,,0,644,,,,,,,,,,,,,,,,,B,139,triangle,1,0,,,,,,,,,,,,,,,,repeat,number,numRpt,j,0.5133,Hi,,,,,,1,,,,,,,,low,11,0,11,0,1,,,,,,,,,
292810,2022-12-06_13h00.39.991,vts_reward_expectancy_bt,2022.2.4,Win32,30.01650908,Chrome,1536,864,,,,,10,654,,,,,,,,,,,,,,,,,D,174,hexagon,1,0,,,,,,,,,,,,,,,,repeat,number,numRpt,k,0.424,Hi,,,,,,1,,,,,,,,low,12,0,12,0,1,,,,,,,,,
292810,2022-12-06_13h00.39.991,vts_reward_expectancy_bt,2022.2.4,Win32,30.01650908,Chrome,1536,864,,,,,1,655,,,,,,,,,,,,,,,,,U,167,star,1,0,,,,,,,,,,,,,,,,repeat,number,numRpt,k,0.4534,Lo,,,,,,1,,,,,,,,low,13,0,13,0,1,,,,,,,,,
292810,2022-12-06_13h00.39.991,vts_reward_expectancy_bt,2022.2.4,Win32,30.01650908,Chrome,1536,864,,,,,0,655,,,,,,,,,,,,,,,,,H,160,triangle,1,0,,,,,,,,,,,,,,,,switch,letter,lettSwt,d,0.6055,Hi,,,,,,1,,,,,,,,low,14,0,14,0,1,,,,,,,,,
292810,2022-12-06_13h00.39.991,vts_reward_expectancy_bt,2022.2.4,Win32,30.01650908,Chrome,1536,864,,,,,1,656,,,,,,,,,,,,,,,,,W,132,circle,1,0,,,,,,,,,,,,,,,,repeat,letter,lettRpt,f,0.6768,Lo,,,,,,1,,,,,,,,low,15,0,15,0,1,,,,,,,,,
292810,2022-12-06_13h00.39.991,vts_reward_expectancy_bt,2022.2.4,Win32,30.01650908,Chrome,1536,864,,,,,1,657,,,,,,,,,,,,,,,,,D,160,star,1,0,,,,,,,,,,,,,,,,repeat,letter,lettRpt,d,0.532,Lo,,,,,,1,,,,,,,,low,16,0,16,0,1,,,,,,,,,
292810,2022-12-06_13h00.39.991,vts_reward_expectancy_bt,2022.2.4,Win32,30.01650908,Chrome,1536,864,,,,,1,658,,,,,,,,,,,,,,,,,W,146,hexagon,1,0,,,,,,,,,,,,,,,,repeat,letter,lettRpt,f,0.4839,Hi,,,,,,1,,,,,,,,low,17,0,17,0,1,,,,,,,,,
292810,2022-12-06_13h00.39.991,vts_reward_expectancy_bt,2022.2.4,Win32,30.01650908,Chrome,1536,864,,,,,1,659,,,,,,,,,,,,,,,,,U,167,triangle,1,0,,,,,,,,,,,,,,,,repeat,letter,lettRpt,f,0.5439,Hi,,,,,,1,,,,,,,,low,18,0,18,0,1,,,,,,,,,
292810,2022-12-06_13h00.39.991,vts_reward_expectancy_bt,2022.2.4,Win32,30.01650908,Chrome,1536,864,,,,,10,669,,,,,,,,,,,,,,,,,H,174,circle,1,0,,,,,,,,,,,,,,,,repeat,letter,lettRpt,d,0.5378,Lo,,,,,,1,,,,,,,,low,19,0,19,0,1,,,,,,,,,
292810,2022-12-06_13h00.39.991,vts_reward_expectancy_bt,2022.2.4,Win32,30.01650908,Chrome,1536,864,,,,,1,670,,,,,,,,,,,,,,,,,Y,125,star,1,0,,,,,,,,,,,,,,,,repeat,letter,lettRpt,f,0.4264,Lo,,,,,,1,,,,,,,,low,20,0,20,0,1,,,,,,,,,
292810,2022-12-06_13h00.39.991,vts_reward_expectancy_bt,2022.2.4,Win32,30.01650908,Chrome,1536,864,,,,,1,671,,,,,,,,,,,,,,,,,S,132,circle,1,0,,,,,,,,,,,,,,,,repeat,letter,lettRpt,f,0.4845,Lo,,,,,,1,,,,,,,,low,21,0,21,0,1,,,,,,,,,
292810,2022-12-06_13h00.39.991,vts_reward_expectancy_bt,2022.2.4,Win32,30.01650908,Chrome,1536,864,,,,,10,681,,,,,,,,,,,,,,,,,F,181,hexagon,1,0,,,,,,,,,,,,,,,,repeat,letter,lettRpt,d,0.4057,Hi,,,,,,1,,,,,,,,low,22,0,22,0,1,,,,,,,,,
292810,2022-12-06_13h00.39.991,vts_reward_expectancy_bt,2022.2.4,Win32,30.01650908,Chrome,1536,864,,,,,0,681,,,,,,,,,,,,,,,,,B,139,triangle,0,0,,,,,,,,,,,,,,,,switch,number,NA,k,0.4882,Hi,,,,,,1,,,,,,,,low,23,0,23,0,1,,,,,,,,,
292810,2022-12-06_13h00.39.991,vts_reward_expectancy_bt,2022.2.4,Win32,30.01650908,Chrome,1536,864,,,,,0,681,,,,,,,,,,,,,,,,,S,167,hexagon,1,1,,,,,,,,,,,,,,,,repeat,number,numRpt,k,0.7026,Hi,,,,,,1,,,,,,,,low,24,0,24,0,1,,,,,,,,,
292810,2022-12-06_13h00.39.991,vts_reward_expectancy_bt,2022.2.4,Win32,30.01650908,Chrome,1536,864,,,,,0,681,,,,,,,,,,,,,,,,,B,146,triangle,1,0,,,,,,,,,,,,,,,,repeat,number,numRpt,j,0.5088,Hi,,,,,,1,,,,,,,,low,25,0,25,0,1,,,,,,,,,
292810,2022-12-06_13h00.39.991,vts_reward_expectancy_bt,2022.2.4,Win32,30.01650908,Chrome,1536,864,,,,,10,691,,,,,,,,,,,,,,,,,F,160,circle,1,0,,,,,,,,,,,,,,,,repeat,number,numRpt,k,0.4341,Lo,,,,,,1,,,,,,,,low,26,0,26,0,1,,,,,,,,,
292810,2022-12-06_13h00.39.991,vts_reward_expectancy_bt,2022.2.4,Win32,30.01650908,Chrome,1536,864,,,,,1,692,,,,,,,,,,,,,,,,,U,132,star,1,0,,,,,,,,,,,,,,,,repeat,number,numRpt,j,0.5411,Lo,,,,,,1,,,,,,,,low,27,0,27,0,1,,,,,,,,,
292810,2022-12-06_13h00.39.991,vts_reward_expectancy_bt,2022.2.4,Win32,30.01650908,Chrome,1536,864,,,,,1,693,,,,,,,,,,,,,,,,,H,181,star,1,0,,,,,,,,,,,,,,,,repeat,number,numRpt,k,0.4353,Lo,,,,,,1,,,,,,,,low,28,0,28,0,1,,,,,,,,,
292810,2022-12-06_13h00.39.991,vts_reward_expectancy_bt,2022.2.4,Win32,30.01650908,Chrome,1536,864,,,,,1,694,,,,,,,,,,,,,,,,,D,174,circle,1,0,,,,,,,,,,,,,,,,repeat,number,numRpt,k,0.4504,Lo,,,,,,1,,,,,,,,low,29,0,29,0,1,,,,,,,,,
292810,2022-12-06_13h00.39.991,vts_reward_expectancy_bt,2022.2.4,Win32,30.01650908,Chrome,1536,864,,,,,0,694,,,,,,,,,,,,,,,,,W,125,triangle,1,0,,,,,,,,,,,,,,,,repeat,number,numRpt,j,0.5347,Hi,,,,,,1,,,,,,,,low,30,0,30,0,1,,,,,,,,,
292810,2022-12-06_13h00.39.991,vts_reward_expectancy_bt,2022.2.4,Win32,30.01650908,Chrome,1536,864,,,,,0,694,,,,,,,,,,,,,,,,,Y,139,hexagon,1,0,,,,,,,,,,,,,,,,switch,letter,lettSwt,f,0.6103,Hi,,,,,,1,,,,,,,,low,31,0,31,0,1,,,,,,,,,
292810,2022-12-06_13h00.39.991,vts_reward_expectancy_bt,2022.2.4,Win32,30.01650908,Chrome,1536,864,,,,,0,694,,,,,,,,,,,,,,,,,Y,132,triangle,1,0,,,,,,,,,,,,,,,,repeat,letter,lettRpt,f,0.631,Hi,,,,,,2,,,,,,space,6.0435,low,0,0,0,0,1,,,,,,,,,
292810,2022-12-06_13h00.39.991,vts_reward_expectancy_bt,2022.2.4,Win32,30.01650908,Chrome,1536,864,,,,,10,704,,,,,,,,,,,,,,,,,B,167,circle,1,0,,,,,,,,,,,,,,,,repeat,letter,lettRpt,d,0.5331,Lo,,,,,,2,,,,,,,,low,1,0,1,0,1,,,,,,,,,
292810,2022-12-06_13h00.39.991,vts_reward_expectancy_bt,2022.2.4,Win32,30.01650908,Chrome,1536,864,,,,,10,714,,,,,,,,,,,,,,,,,D,181,star,1,0,,,,,,,,,,,,,,,,repeat,letter,lettRpt,d,0.5452,Lo,,,,,,2,,,,,,,,low,2,0,2,0,1,,,,,,,,,
292810,2022-12-06_13h00.39.991,vts_reward_expectancy_bt,2022.2.4,Win32,30.01650908,Chrome,1536,864,,,,,10,724,,,,,,,,,,,,,,,,,U,125,hexagon,1,0,,,,,,,,,,,,,,,,repeat,letter,lettRpt,f,0.4613,Hi,,,,,,2,,,,,,,,low,3,0,3,0,1,,,,,,,,,
292810,2022-12-06_13h00.39.991,vts_reward_expectancy_bt,2022.2.4,Win32,30.01650908,Chrome,1536,864,,,,,1,725,,,,,,,,,,,,,,,,,W,139,triangle,1,0,,,,,,,,,,,,,,,,repeat,letter,lettRpt,f,0.4597,Hi,,,,,,2,,,,,,,,low,4,0,4,0,1,,,,,,,,,
292810,2022-12-06_13h00.39.991,vts_reward_expectancy_bt,2022.2.4,Win32,30.01650908,Chrome,1536,864,,,,,1,726,,,,,,,,,,,,,,,,,S,146,circle,1,0,,,,,,,,,,,,,,,,repeat,letter,lettRpt,f,0.5591,Lo,,,,,,2,,,,,,,,low,5,0,5,0,1,,,,,,,,,
292810,2022-12-06_13h00.39.991,vts_reward_expectancy_bt,2022.2.4,Win32,30.01650908,Chrome,1536,864,,,,,0,726,,,,,,,,,,,,,,,,,H,174,star,0,0,,,,,,,,,,,,,,,,switch,number,NA,j,0.5576,Lo,,,,,,2,,,,,,,,low,6,0,6,0,1,,,,,,,,,
292810,2022-12-06_13h00.39.991,vts_reward_expectancy_bt,2022.2.4,Win32,30.01650908,Chrome,1536,864,,,,,0,726,,,,,,,,,,,,,,,,,F,160,hexagon,1,1,,,,,,,,,,,,,,,,repeat,number,numRpt,k,0.4803,Hi,,,,,,2,,,,,,,,low,7,0,7,0,1,,,,,,,,,
292810,2022-12-06_13h00.39.991,vts_reward_expectancy_bt,2022.2.4,Win32,30.01650908,Chrome,1536,864,,,,,10,736,,,,,,,,,,,,,,,,,Y,132,star,1,0,,,,,,,,,,,,,,,,repeat,number,numRpt,j,0.4743,Lo,,,,,,2,,,,,,,,low,8,0,8,0,1,,,,,,,,,
292810,2022-12-06_13h00.39.991,vts_reward_expectancy_bt,2022.2.4,Win32,30.01650908,Chrome,1536,864,,,,,1,737,,,,,,,,,,,,,,,,,B,167,triangle,1,0,,,,,,,,,,,,,,,,repeat,number,numRpt,k,0.4202,Hi,,,,,,2,,,,,,,,low,9,0,9,0,1,,,,,,,,,
292810,2022-12-06_13h00.39.991,vts_reward_expectancy_bt,2022.2.4,Win32,30.01650908,Chrome,1536,864,,,,,0,737,,,,,,,,,,,,,,,,,D,181,hexagon,1,0,,,,,,,,,,,,,,,,repeat,number,numRpt,k,0.5249,Hi,,,,,,2,,,,,,,,low,10,0,10,0,1,,,,,,,,,
292810,2022-12-06_13h00.39.991,vts_reward_expectancy_bt,2022.2.4,Win32,30.01650908,Chrome,1536,864,,,,,10,747,,,,,,,,,,,,,,,,,U,125,circle,1,0,,,,,,,,,,,,,,,,repeat,number,numRpt,j,0.4773,Lo,,,,,,2,,,,,,,,low,11,0,11,0,1,,,,,,,,,
292810,2022-12-06_13h00.39.991,vts_reward_expectancy_bt,2022.2.4,Win32,30.01650908,Chrome,1536,864,,,,,10,757,,,,,,,,,,,,,,,,,W,139,circle,1,0,,,,,,,,,,,,,,,,repeat,number,numRpt,j,0.5339,Lo,,,,,,2,,,,,,,,low,12,0,12,0,1,,,,,,,,,
292810,2022-12-06_13h00.39.991,vts_reward_expectancy_bt,2022.2.4,Win32,30.01650908,Chrome,1536,864,,,,,0,757,,,,,,,,,,,,,,,,,S,146,triangle,1,0,,,,,,,,,,,,,,,,repeat,number,numRpt,j,0.5591,Hi,,,,,,2,,,,,,,,low,13,0,13,0,1,,,,,,,,,
292810,2022-12-06_13h00.39.991,vts_reward_expectancy_bt,2022.2.4,Win32,30.01650908,Chrome,1536,864,,,,,10,767,,,,,,,,,,,,,,,,,H,174,hexagon,1,0,,,,,,,,,,,,,,,,repeat,number,numRpt,k,0.4391,Hi,,,,,,2,,,,,,,,low,14,0,14,0,1,,,,,,,,,
292810,2022-12-06_13h00.39.991,vts_reward_expectancy_bt,2022.2.4,Win32,30.01650908,Chrome,1536,864,,,,,1,768,,,,,,,,,,,,,,,,,F,160,star,1,0,,,,,,,,,,,,,,,,repeat,number,numRpt,k,0.4451,Lo,,,,,,2,,,,,,,,low,15,0,15,0,1,,,,,,,,,
292810,2022-12-06_13h00.39.991,vts_reward_expectancy_bt,2022.2.4,Win32,30.01650908,Chrome,1536,864,,,,,0,768,,,,,,,,,,,,,,,,,W,132,triangle,1,0,,,,,,,,,,,,,,,,repeat,number,numRpt,j,0.5052,Hi,,,,,,2,,,,,,,,low,16,0,16,0,1,,,,,,,,,
292810,2022-12-06_13h00.39.991,vts_reward_expectancy_bt,2022.2.4,Win32,30.01650908,Chrome,1536,864,,,,,10,778,,,,,,,,,,,,,,,,,D,125,circle,1,0,,,,,,,,,,,,,,,,switch,letter,lettSwt,d,0.518,Lo,,,,,,2,,,,,,,,low,17,0,17,0,1,,,,,,,,,
292810,2022-12-06_13h00.39.991,vts_reward_expectancy_bt,2022.2.4,Win32,30.01650908,Chrome,1536,864,,,,,1,779,,,,,,,,,,,,,,,,,B,160,star,1,0,,,,,,,,,,,,,,,,repeat,letter,lettRpt,d,0.5749,Lo,,,,,,2,,,,,,,,low,18,0,18,0,1,,,,,,,,,
292810,2022-12-06_13h00.39.991,vts_reward_expectancy_bt,2022.2.4,Win32,30.01650908,Chrome,1536,864,,,,,0,779,,,,,,,,,,,,,,,,,H,174,hexagon,1,0,,,,,,,,,,,,,,,,repeat,letter,lettRpt,d,0.5484,Hi,,,,,,2,,,,,,,,low,19,0,19,0,1,,,,,,,,,
292810,2022-12-06_13h00.39.991,vts_reward_expectancy_bt,2022.2.4,Win32,30.01650908,Chrome,1536,864,,,,,0,779,,,,,,,,,,,,,,,,,U,167,circle,0,0,,,,,,,,,,,,,,,,repeat,letter,NA,d,0.5639,Hi,,,,,,2,,,,,,,,low,20,0,20,0,1,,,,,,,,,
292810,2022-12-06_13h00.39.991,vts_reward_expectancy_bt,2022.2.4,Win32,30.01650908,Chrome,1536,864,,,,,0,779,,,,,,,,,,,,,,,,,Y,139,star,0,1,,,,,,,,,,,,,,,,repeat,letter,NA,d,0.1017,Hi,,,,,,2,,,,,,,,low,21,0,21,0,1,,,,,,,,,
292810,2022-12-06_13h00.39.991,vts_reward_expectancy_bt,2022.2.4,Win32,30.01650908,Chrome,1536,864,,,,,0,779,,,,,,,,,,,,,,,,,S,146,hexagon,0,1,,,,,,,,,,,,,,,,repeat,letter,NA,d,0.0298,Hi,,,,,,2,,,,,,,,low,22,0,22,0,1,,,,,,,,,
292810,2022-12-06_13h00.39.991,vts_reward_expectancy_bt,2022.2.4,Win32,30.01650908,Chrome,1536,864,,,,,0,779,,,,,,,,,,,,,,,,,F,181,triangle,0,1,,,,,,,,,,,,,,,,repeat,letter,NA,f,0.0131,Hi,,,,,,2,,,,,,,,low,23,0,23,0,1,,,,,,,,,
292810,2022-12-06_13h00.39.991,vts_reward_expectancy_bt,2022.2.4,Win32,30.01650908,Chrome,1536,864,,,,,0,779,,,,,,,,,,,,,,,,,Y,160,star,0,1,,,,,,,,,,,,,,,,repeat,letter,NA,d,0.1392,Hi,,,,,,2,,,,,,,,low,24,0,24,0,1,,,,,,,,,
292810,2022-12-06_13h00.39.991,vts_reward_expectancy_bt,2022.2.4,Win32,30.01650908,Chrome,1536,864,,,,,1,780,,,,,,,,,,,,,,,,,W,146,circle,1,1,,,,,,,,,,,,,,,,repeat,letter,lettRpt,f,0.0588,Lo,,,,,,2,,,,,,,,low,25,0,25,0,1,,,,,,,,,
292810,2022-12-06_13h00.39.991,vts_reward_expectancy_bt,2022.2.4,Win32,30.01650908,Chrome,1536,864,,,,,0,780,,,,,,,,,,,,,,,,,S,174,hexagon,0,0,,,,,,,,,,,,,,,,repeat,letter,NA,d,0.1436,Lo,,,,,,2,,,,,,,,low,26,0,26,0,1,,,,,,,,,
292810,2022-12-06_13h00.39.991,vts_reward_expectancy_bt,2022.2.4,Win32,30.01650908,Chrome,1536,864,,,,,0,780,,,,,,,,,,,,,,,,,U,181,triangle,0,1,,,,,,,,,,,,,,,,repeat,letter,NA,d,0.1545,Lo,,,,,,2,,,,,,,,low,27,0,27,0,1,,,,,,,,,
292810,2022-12-06_13h00.39.991,vts_reward_expectancy_bt,2022.2.4,Win32,30.01650908,Chrome,1536,864,,,,,10,790,,,,,,,,,,,,,,,,,F,125,circle,1,1,,,,,,,,,,,,,,,,repeat,letter,lettRpt,d,0.0393,Lo,,,,,,2,,,,,,,,low,28,0,28,0,1,,,,,,,,,
292810,2022-12-06_13h00.39.991,vts_reward_expectancy_bt,2022.2.4,Win32,30.01650908,Chrome,1536,864,,,,,0,790,,,,,,,,,,,,,,,,,B,132,hexagon,1,0,,,,,,,,,,,,,,,,repeat,letter,lettRpt,d,0.8868,Hi,,,,,,2,,,,,,,,low,29,0,29,0,1,,,,,,,,,
292810,2022-12-06_13h00.39.991,vts_reward_expectancy_bt,2022.2.4,Win32,30.01650908,Chrome,1536,864,,,,,10,800,,,,,,,,,,,,,,,,,D,139,star,1,0,,,,,,,,,,,,,,,,switch,number,numSwt,j,1.0736,Lo,,,,,,2,,,,,,,,low,30,0,30,0,1,,,,,,,,,
292810,2022-12-06_13h00.39.991,vts_reward_expectancy_bt,2022.2.4,Win32,30.01650908,Chrome,1536,864,,,,,0,800,,,,,,,,,,,,,,,,,H,167,triangle,1,0,,,,,,,,,,,,,,,,repeat,number,numRpt,k,0.6465,Hi,,,,,,2,,,,,,,,low,31,0,31,0,1,,,,,,,,,
292810,2022-12-06_13h00.39.991,vts_reward_expectancy_bt,2022.2.4,Win32,30.01650908,Chrome,1536,864,,,,,10,810,,,,,,,,,,,,,,,,,W,174,circle,1,0,,,,,,,,,,,,,,,,repeat,number,numRpt,k,0.5741,Lo,,,,,,3,,,,,,space,1.9439,low,0,0,0,0,1,,,,,,,,,
292810,2022-12-06_13h00.39.991,vts_reward_expectancy_bt,2022.2.4,Win32,30.01650908,Chrome,1536,864,,,,,1,811,,,,,,,,,,,,,,,,,B,139,star,1,0,,,,,,,,,,,,,,,,repeat,number,numRpt,j,0.4816,Lo,,,,,,3,,,,,,,,low,1,0,1,0,1,,,,,,,,,
292810,2022-12-06_13h00.39.991,vts_reward_expectancy_bt,2022.2.4,Win32,30.01650908,Chrome,1536,864,,,,,10,821,,,,,,,,,,,,,,,,,H,125,hexagon,1,0,,,,,,,,,,,,,,,,repeat,number,numRpt,j,0.4367,Hi,,,,,,3,,,,,,,,low,2,0,2,0,1,,,,,,,,,
292810,2022-12-06_13h00.39.991,vts_reward_expectancy_bt,2022.2.4,Win32,30.01650908,Chrome,1536,864,,,,,0,821,,,,,,,,,,,,,,,,,S,146,triangle,0,0,,,,,,,,,,,,,,,,repeat,number,NA,k,0.4444,Hi,,,,,,3,,,,,,,,low,3,0,3,0,1,,,,,,,,,
292810,2022-12-06_13h00.39.991,vts_reward_expectancy_bt,2022.2.4,Win32,30.01650908,Chrome,1536,864,,,,,0,821,,,,,,,,,,,,,,,,,F,167,circle,0,1,,,,,,,,,,,,,,,,switch,letter,NA,f,0.4391,Hi,,,,,,3,,,,,,,,low,4,0,4,0,1,,,,,,,,,
292810,2022-12-06_13h00.39.991,vts_reward_expectancy_bt,2022.2.4,Win32,30.01650908,Chrome,1536,864,,,,,1,822,,,,,,,,,,,,,,,,,D,160,star,1,1,,,,,,,,,,,,,,,,repeat,letter,lettRpt,d,0.5177,Lo,,,,,,3,,,,,,,,low,5,0,5,0,1,,,,,,,,,
292810,2022-12-06_13h00.39.991,vts_reward_expectancy_bt,2022.2.4,Win32,30.01650908,Chrome,1536,864,,,,,0,822,,,,,,,,,,,,,,,,,U,132,hexagon,1,0,,,,,,,,,,,,,,,,repeat,letter,lettRpt,f,0.4894,Hi,,,,,,3,,,,,,,,low,6,0,6,0,1,,,,,,,,,
292810,2022-12-06_13h00.39.991,vts_reward_expectancy_bt,2022.2.4,Win32,30.01650908,Chrome,1536,864,,,,,1,823,,,,,,,,,,,,,,,,,Y,181,triangle,1,0,,,,,,,,,,,,,,,,repeat,letter,lettRpt,f,0.4601,Hi,,,,,,3,,,,,,,,low,7,0,7,0,1,,,,,,,,,
292810,2022-12-06_13h00.39.991,vts_reward_expectancy_bt,2022.2.4,Win32,30.01650908,Chrome,1536,864,,,,,0,823,,,,,,,,,,,,,,,,,W,174,triangle,1,0,,,,,,,,,,,,,,,,repeat,letter,lettRpt,f,0.6008,Hi,,,,,,3,,,,,,,,low,8,0,8,0,1,,,,,,,,,
292810,2022-12-06_13h00.39.991,vts_reward_expectancy_bt,2022.2.4,Win32,30.01650908,Chrome,1536,864,,,,,1,824,,,,,,,,,,,,,,,,,B,139,star,1,0,,,,,,,,,,,,,,,,repeat,letter,lettRpt,d,0.404,Lo,,,,,,3,,,,,,,,low,9,0,9,0,1,,,,,,,,,
292810,2022-12-06_13h00.39.991,vts_reward_expectancy_bt,2022.2.4,Win32,30.01650908,Chrome,1536,864,,,,,0,824,,,,,,,,,,,,,,,,,H,125,hexagon,1,0,,,,,,,,,,,,,,,,repeat,letter,lettRpt,d,0.7831,Hi,,,,,,3,,,,,,,,low,10,0,10,0,1,,,,,,,,,
292810,2022-12-06_13h00.39.991,vts_reward_expectancy_bt,2022.2.4,Win32,30.01650908,Chrome,1536,864,,,,,1,825,,,,,,,,,,,,,,,,,S,146,circle,1,0,,,,,,,,,,,,,,,,repeat,letter,lettRpt,f,0.4428,Lo,,,,,,3,,,,,,,,low,11,0,11,0,1,,,,,,,,,
292810,2022-12-06_13h00.39.991,vts_reward_expectancy_bt,2022.2.4,Win32,30.01650908,Chrome,1536,864,,,,,1,826,,,,,,,,,,,,,,,,,F,167,triangle,1,0,,,,,,,,,,,,,,,,repeat,letter,lettRpt,d,0.46,Hi,,,,,,3,,,,,,,,low,12,0,12,0,1,,,,,,,,,
292810,2022-12-06_13h00.39.991,vts_reward_expectancy_bt,2022.2.4,Win32,30.01650908,Chrome,1536,864,,,,,0,826,,,,,,,,,,,,,,,,,D,160,star,0,0,,,,,,,,,,,,,,,,repeat,letter,NA,f,0.4364,Hi,,,,,,3,,,,,,,,low,13,0,13,0,1,,,,,,,,,
292810,2022-12-06_13h00.39.991,vts_reward_expectancy_bt,2022.2.4,Win32,30.01650908,Chrome,1536,864,,,,,10,836,,,,,,,,,,,,,,,,,U,132,circle,1,1,,,,,,,,,,,,,,,,repeat,letter,lettRpt,f,0.5653,Lo,,,,,,3,,,,,,,,low,14,0,14,0,1,,,,,,,,,
292810,2022-12-06_13h00.39.991,vts_reward_expectancy_bt,2022.2.4,Win32,30.01650908,Chrome,1536,864,,,,,1,837,,,,,,,,,,,,,,,,,Y,181,hexagon,1,0,,,,,,,,,,,,,,,,repeat,letter,lettRpt,f,0.4616,Hi,,,,,,3,,,,,,,,low,15,0,15,0,1,,,,,,,,,
292810,2022-12-06_13h00.39.991,vts_reward_expectancy_bt,2022.2.4,Win32,30.01650908,Chrome,1536,864,,,,,1,838,,,,,,,,,,,,,,,,,B,160,star,1,0,,,,,,,,,,,,,,,,repeat,letter,lettRpt,d,0.4108,Lo,,,,,,3,,,,,,,,low,16,0,16,0,1,,,,,,,,,
292810,2022-12-06_13h00.39.991,vts_reward_expectancy_bt,2022.2.4,Win32,30.01650908,Chrome,1536,864,,,,,0,838,,,,,,,,,,,,,,,,,S,167,triangle,1,0,,,,,,,,,,,,,,,,repeat,letter,lettRpt,f,0.5269,Hi,,,,,,3,,,,,,,,low,17,0,17,0,1,,,,,,,,,
292810,2022-12-06_13h00.39.991,vts_reward_expectancy_bt,2022.2.4,Win32,30.01650908,Chrome,1536,864,,,,,1,839,,,,,,,,,,,,,,,,,H,181,hexagon,1,0,,,,,,,,,,,,,,,,switch,number,numSwt,k,0.4985,Hi,,,,,,3,,,,,,,,low,18,0,18,0,1,,,,,,,,,
292810,2022-12-06_13h00.39.991,vts_reward_expectancy_bt,2022.2.4,Win32,30.01650908,Chrome,1536,864,,,,,10,849,,,,,,,,,,,,,,,,,U,146,circle,1,0,,,,,,,,,,,,,,,,repeat,number,numRpt,j,0.5642,Lo,,,,,,3,,,,,,,,low,19,0,19,0,1,,,,,,,,,
292810,2022-12-06_13h00.39.991,vts_reward_expectancy_bt,2022.2.4,Win32,30.01650908,Chrome,1536,864,,,,,1,850,,,,,,,,,,,,,,,,,W,132,triangle,1,0,,,,,,,,,,,,,,,,repeat,number,numRpt,j,0.4586,Hi,,,,,,3,,,,,,,,low,20,0,20,0,1,,,,,,,,,
292810,2022-12-06_13h00.39.991,vts_reward_expectancy_bt,2022.2.4,Win32,30.01650908,Chrome,1536,864,,,,,1,851,,,,,,,,,,,,,,,,,D,174,circle,1,0,,,,,,,,,,,,,,,,repeat,number,numRpt,k,0.5763,Lo,,,,,,3,,,,,,,,low,21,0,21,0,1,,,,,,,,,
292810,2022-12-06_13h00.39.991,vts_reward_expectancy_bt,2022.2.4,Win32,30.01650908,Chrome,1536,864,,,,,0,851,,,,,,,,,,,,,,,,,Y,139,hexagon,1,0,,,,,,,,,,,,,,,,repeat,number,numRpt,j,0.4798,Hi,,,,,,3,,,,,,,,low,22,0,22,0,1,,,,,,,,,
292810,2022-12-06_13h00.39.991,vts_reward_expectancy_bt,2022.2.4,Win32,30.01650908,Chrome,1536,864,,,,,10,861,,,,,,,,,,,,,,,,,F,125,star,1,0,,,,,,,,,,,,,,,,repeat,number,numRpt,j,0.4573,Lo,,,,,,3,,,,,,,,low,23,0,23,0,1,,,,,,,,,
292810,2022-12-06_13h00.39.991,vts_reward_expectancy_bt,2022.2.4,Win32,30.01650908,Chrome,1536,864,,,,,1,862,,,,,,,,,,,,,,,,,Y,160,hexagon,1,0,,,,,,,,,,,,,,,,repeat,number,numRpt,k,0.4521,Hi,,,,,,3,,,,,,,,low,24,0,24,0,1,,,,,,,,,
292810,2022-12-06_13h00.39.991,vts_reward_expectancy_bt,2022.2.4,Win32,30.01650908,Chrome,1536,864,,,,,1,863,,,,,,,,,,,,,,,,,W,174,triangle,1,0,,,,,,,,,,,,,,,,repeat,number,numRpt,k,0.4417,Hi,,,,,,3,,,,,,,,low,25,0,25,0,1,,,,,,,,,
292810,2022-12-06_13h00.39.991,vts_reward_expectancy_bt,2022.2.4,Win32,30.01650908,Chrome,1536,864,,,,,1,864,,,,,,,,,,,,,,,,,H,132,star,1,0,,,,,,,,,,,,,,,,repeat,number,numRpt,j,0.4723,Lo,,,,,,3,,,,,,,,low,26,0,26,0,1,,,,,,,,,
292810,2022-12-06_13h00.39.991,vts_reward_expectancy_bt,2022.2.4,Win32,30.01650908,Chrome,1536,864,,,,,10,874,,,,,,,,,,,,,,,,,D,125,circle,1,0,,,,,,,,,,,,,,,,repeat,number,numRpt,j,0.5349,Lo,,,,,,3,,,,,,,,low,27,0,27,0,1,,,,,,,,,
292810,2022-12-06_13h00.39.991,vts_reward_expectancy_bt,2022.2.4,Win32,30.01650908,Chrome,1536,864,,,,,0,874,,,,,,,,,,,,,,,,,S,139,triangle,1,0,,,,,,,,,,,,,,,,repeat,number,numRpt,j,0.5509,Hi,,,,,,3,,,,,,,,low,28,0,28,0,1,,,,,,,,,
292810,2022-12-06_13h00.39.991,vts_reward_expectancy_bt,2022.2.4,Win32,30.01650908,Chrome,1536,864,,,,,10,884,,,,,,,,,,,,,,,,,B,181,star,1,0,,,,,,,,,,,,,,,,switch,letter,lettSwt,d,0.3489,Lo,,,,,,3,,,,,,,,low,29,0,29,0,1,,,,,,,,,
292810,2022-12-06_13h00.39.991,vts_reward_expectancy_bt,2022.2.4,Win32,30.01650908,Chrome,1536,864,,,,,10,894,,,,,,,,,,,,,,,,,F,146,hexagon,1,0,,,,,,,,,,,,,,,,repeat,letter,lettRpt,d,0.4773,Hi,,,,,,3,,,,,,,,low,30,0,30,0,1,,,,,,,,,
292810,2022-12-06_13h00.39.991,vts_reward_expectancy_bt,2022.2.4,Win32,30.01650908,Chrome,1536,864,,,,,10,904,,,,,,,,,,,,,,,,,U,167,circle,1,0,,,,,,,,,,,,,,,,repeat,letter,lettRpt,f,0.4697,Lo,,,,,,3,,,,,,,,low,31,0,31,0,1,,,,,,,,,
292810,2022-12-06_13h00.39.991,vts_reward_expectancy_bt,2022.2.4,Win32,30.01650908,Chrome,1536,864,,,,,1,905,,,,,,,,,,,,,,,,,U,181,hexagon,1,0,,,,,,,,,,,,,,,,switch,number,numSwt,k,0.4496,Hi,,,,,,4,,,,,,space,1.2006,low,0,0,0,0,1,,,,,,,,,
292810,2022-12-06_13h00.39.991,vts_reward_expectancy_bt,2022.2.4,Win32,30.01650908,Chrome,1536,864,,,,,1,906,,,,,,,,,,,,,,,,,W,125,circle,1,0,,,,,,,,,,,,,,,,repeat,number,numRpt,j,0.421,Lo,,,,,,4,,,,,,,,low,1,0,1,0,1,,,,,,,,,
292810,2022-12-06_13h00.39.991,vts_reward_expectancy_bt,2022.2.4,Win32,30.01650908,Chrome,1536,864,,,,,10,916,,,,,,,,,,,,,,,,,S,139,star,1,0,,,,,,,,,,,,,,,,repeat,number,numRpt,j,0.4638,Lo,,,,,,4,,,,,,,,low,2,0,2,0,1,,,,,,,,,
292810,2022-12-06_13h00.39.991,vts_reward_expectancy_bt,2022.2.4,Win32,30.01650908,Chrome,1536,864,,,,,10,926,,,,,,,,,,,,,,,,,H,167,triangle,1,0,,,,,,,,,,,,,,,,repeat,number,numRpt,k,0.4573,Hi,,,,,,4,,,,,,,,low,3,0,3,0,1,,,,,,,,,
292810,2022-12-06_13h00.39.991,vts_reward_expectancy_bt,2022.2.4,Win32,30.01650908,Chrome,1536,864,,,,,10,936,,,,,,,,,,,,,,,,,D,132,hexagon,1,0,,,,,,,,,,,,,,,,repeat,number,numRpt,j,0.4557,Hi,,,,,,4,,,,,,,,low,4,0,4,0,1,,,,,,,,,
292810,2022-12-06_13h00.39.991,vts_reward_expectancy_bt,2022.2.4,Win32,30.01650908,Chrome,1536,864,,,,,1,937,,,,,,,,,,,,,,,,,B,160,circle,1,0,,,,,,,,,,,,,,,,repeat,number,numRpt,k,0.4225,Lo,,,,,,4,,,,,,,,low,5,0,5,0,1,,,,,,,,,
292810,2022-12-06_13h00.39.991,vts_reward_expectancy_bt,2022.2.4,Win32,30.01650908,Chrome,1536,864,,,,,1,938,,,,,,,,,,,,,,,,,F,174,star,1,0,,,,,,,,,,,,,,,,repeat,number,numRpt,k,0.3783,Lo,,,,,,4,,,,,,,,low,6,0,6,0,1,,,,,,,,,
292810,2022-12-06_13h00.39.991,vts_reward_expectancy_bt,2022.2.4,Win32,30.01650908,Chrome,1536,864,,,,,0,938,,,,,,,,,,,,,,,,,Y,146,triangle,1,0,,,,,,,,,,,,,,,,repeat,number,numRpt,j,0.6569,Hi,,,,,,4,,,,,,,,low,7,0,7,0,1,,,,,,,,,
292810,2022-12-06_13h00.39.991,vts_reward_expectancy_bt,2022.2.4,Win32,30.01650908,Chrome,1536,864,,,,,10,948,,,,,,,,,,,,,,,,,U,181,circle,1,0,,,,,,,,,,,,,,,,switch,letter,lettSwt,f,0.4572,Lo,,,,,,4,,,,,,,,low,8,0,8,0,1,,,,,,,,,
292810,2022-12-06_13h00.39.991,vts_reward_expectancy_bt,2022.2.4,Win32,30.01650908,Chrome,1536,864,,,,,10,958,,,,,,,,,,,,,,,,,W,125,star,1,0,,,,,,,,,,,,,,,,repeat,letter,lettRpt,f,0.4401,Lo,,,,,,4,,,,,,,,low,9,0,9,0,1,,,,,,,,,
292810,2022-12-06_13h00.39.991,vts_reward_expectancy_bt,2022.2.4,Win32,30.01650908,Chrome,1536,864,,,,,0,958,,,,,,,,,,,,,,,,,S,139,triangle,1,0,,,,,,,,,,,,,,,,repeat,letter,lettRpt,f,0.4818,Hi,,,,,,4,,,,,,,,low,10,0,10,0,1,,,,,,,,,
292810,2022-12-06_13h00.39.991,vts_reward_expectancy_bt,2022.2.4,Win32,30.01650908,Chrome,1536,864,,,,,0,958,,,,,,,,,,,,,,,,,H,167,hexagon,1,0,,,,,,,,,,,,,,,,repeat,letter,lettRpt,d,0.4852,Hi,,,,,,4,,,,,,,,low,11,0,11,0,1,,,,,,,,,
292810,2022-12-06_13h00.39.991,vts_reward_expectancy_bt,2022.2.4,Win32,30.01650908,Chrome,1536,864,,,,,1,959,,,,,,,,,,,,,,,,,D,132,star,1,0,,,,,,,,,,,,,,,,repeat,letter,lettRpt,d,0.4015,Lo,,,,,,4,,,,,,,,low,12,0,12,0,1,,,,,,,,,
292810,2022-12-06_13h00.39.991,vts_reward_expectancy_bt,2022.2.4,Win32,30.01650908,Chrome,1536,864,,,,,0,959,,,,,,,,,,,,,,,,,B,160,hexagon,0,0,,,,,,,,,,,,,,,,repeat,letter,NA,f,0.0421,Lo,,,,,,4,,,,,,,,low,13,0,13,0,1,,,,,,,,,
292810,2022-12-06_13h00.39.991,vts_reward_expectancy_bt,2022.2.4,Win32,30.01650908,Chrome,1536,864,,,,,0,959,,,,,,,,,,,,,,,,,F,174,triangle,0,1,,,,,,,,,,,,,,,,repeat,letter,NA,f,0.0881,Lo,,,,,,4,,,,,,,,low,14,0,14,0,1,,,,,,,,,
292810,2022-12-06_13h00.39.991,vts_reward_expectancy_bt,2022.2.4,Win32,30.01650908,Chrome,1536,864,,,,,0,959,,,,,,,,,,,,,,,,,Y,146,circle,0,1,,,,,,,,,,,,,,,,repeat,letter,NA,d,0.0017,Lo,,,,,,4,,,,,,,,low,15,0,15,0,1,,,,,,,,,
292810,2022-12-06_13h00.39.991,vts_reward_expectancy_bt,2022.2.4,Win32,30.01650908,Chrome,1536,864,,,,,0,959,,,,,,,,,,,,,,,,,D,132,circle,0,1,,,,,,,,,,,,,,,,repeat,letter,NA,f,0.2388,Lo,,,,,,4,,,,,,,,low,16,0,16,0,1,,,,,,,,,
292810,2022-12-06_13h00.39.991,vts_reward_expectancy_bt,2022.2.4,Win32,30.01650908,Chrome,1536,864,,,,,10,969,,,,,,,,,,,,,,,,,B,139,hexagon,1,1,,,,,,,,,,,,,,,,repeat,letter,lettRpt,d,0.0015,Hi,,,,,,4,,,,,,,,low,17,0,17,0,1,,,,,,,,,
292810,2022-12-06_13h00.39.991,vts_reward_expectancy_bt,2022.2.4,Win32,30.01650908,Chrome,1536,864,,,,,10,979,,,,,,,,,,,,,,,,,U,125,star,1,0,,,,,,,,,,,,,,,,switch,number,numSwt,j,0.4009,Lo,,,,,,4,,,,,,,,low,18,0,18,0,1,,,,,,,,,
292810,2022-12-06_13h00.39.991,vts_reward_expectancy_bt,2022.2.4,Win32,30.01650908,Chrome,1536,864,,,,,1,980,,,,,,,,,,,,,,,,,W,174,triangle,1,0,,,,,,,,,,,,,,,,repeat,number,numRpt,k,0.002,Hi,,,,,,4,,,,,,,,low,19,0,19,0,1,,,,,,,,,
292810,2022-12-06_13h00.39.991,vts_reward_expectancy_bt,2022.2.4,Win32,30.01650908,Chrome,1536,864,,,,,10,990,,,,,,,,,,,,,,,,,Y,146,star,1,0,,,,,,,,,,,,,,,,repeat,number,numRpt,j,0.341,Lo,,,,,,4,,,,,,,,low,20,0,20,0,1,,,,,,,,,
292810,2022-12-06_13h00.39.991,vts_reward_expectancy_bt,2022.2.4,Win32,30.01650908,Chrome,1536,864,,,,,1,991,,,,,,,,,,,,,,,,,F,160,circle,1,0,,,,,,,,,,,,,,,,repeat,number,numRpt,k,0.1576,Lo,,,,,,4,,,,,,,,low,21,0,21,0,1,,,,,,,,,
292810,2022-12-06_13h00.39.991,vts_reward_expectancy_bt,2022.2.4,Win32,30.01650908,Chrome,1536,864,,,,,0,991,,,,,,,,,,,,,,,,,S,167,hexagon,1,0,,,,,,,,,,,,,,,,switch,letter,lettSwt,f,0.4474,Hi,,,,,,4,,,,,,,,low,22,0,22,0,1,,,,,,,,,
292810,2022-12-06_13h00.39.991,vts_reward_expectancy_bt,2022.2.4,Win32,30.01650908,Chrome,1536,864,,,,,10,1001,,,,,,,,,,,,,,,,,H,181,triangle,1,0,,,,,,,,,,,,,,,,repeat,letter,lettRpt,d,0.3955,Hi,,,,,,4,,,,,,,,low,23,0,23,0,1,,,,,,,,,
292810,2022-12-06_13h00.39.991,vts_reward_expectancy_bt,2022.2.4,Win32,30.01650908,Chrome,1536,864,,,,,10,1011,,,,,,,,,,,,,,,,,F,132,star,1,0,,,,,,,,,,,,,,,,repeat,letter,lettRpt,d,0.4749,Lo,,,,,,4,,,,,,,,low,24,0,24,0,1,,,,,,,,,
292810,2022-12-06_13h00.39.991,vts_reward_expectancy_bt,2022.2.4,Win32,30.01650908,Chrome,1536,864,,,,,1,1012,,,,,,,,,,,,,,,,,S,146,circle,1,0,,,,,,,,,,,,,,,,repeat,letter,lettRpt,f,0.4418,Lo,,,,,,4,,,,,,,,low,25,0,25,0,1,,,,,,,,,
292810,2022-12-06_13h00.39.991,vts_reward_expectancy_bt,2022.2.4,Win32,30.01650908,Chrome,1536,864,,,,,0,1012,,,,,,,,,,,,,,,,,B,167,triangle,0,0,,,,,,,,,,,,,,,,repeat,letter,NA,f,0.0631,Lo,,,,,,4,,,,,,,,low,26,0,26,0,1,,,,,,,,,
292810,2022-12-06_13h00.39.991,vts_reward_expectancy_bt,2022.2.4,Win32,30.01650908,Chrome,1536,864,,,,,1,1013,,,,,,,,,,,,,,,,,U,181,hexagon,1,1,,,,,,,,,,,,,,,,repeat,letter,lettRpt,f,0.0584,Hi,,,,,,4,,,,,,,,low,27,0,27,0,1,,,,,,,,,
292810,2022-12-06_13h00.39.991,vts_reward_expectancy_bt,2022.2.4,Win32,30.01650908,Chrome,1536,864,,,,,0,1013,,,,,,,,,,,,,,,,,Y,174,hexagon,1,0,,,,,,,,,,,,,,,,switch,number,numSwt,k,0.5205,Hi,,,,,,4,,,,,,,,low,28,0,28,0,1,,,,,,,,,
292810,2022-12-06_13h00.39.991,vts_reward_expectancy_bt,2022.2.4,Win32,30.01650908,Chrome,1536,864,,,,,10,1023,,,,,,,,,,,,,,,,,H,160,triangle,1,0,,,,,,,,,,,,,,,,repeat,number,numRpt,k,0.4513,Hi,,,,,,4,,,,,,,,low,29,0,29,0,1,,,,,,,,,
292810,2022-12-06_13h00.39.991,vts_reward_expectancy_bt,2022.2.4,Win32,30.01650908,Chrome,1536,864,,,,,1,1024,,,,,,,,,,,,,,,,,D,125,star,1,0,,,,,,,,,,,,,,,,repeat,number,numRpt,j,0.3197,Lo,,,,,,4,,,,,,,,low,30,0,30,0,1,,,,,,,,,
292810,2022-12-06_13h00.39.991,vts_reward_expectancy_bt,2022.2.4,Win32,30.01650908,Chrome,1536,864,,,,,1,1025,,,,,,,,,,,,,,,,,W,139,circle,1,0,,,,,,,,,,,,,,,,repeat,number,numRpt,j,0.5215,Lo,,,,,,4,,,,,,,,low,31,0,31,0,1,,,,,,,,,
292810,2022-12-06_13h00.39.991,vts_reward_expectancy_bt,2022.2.4,Win32,30.01650908,Chrome,1536,864,,,,,1,1026,,,,,,,,,,,,,,,,,D,139,circle,1,0,,,,,,,,,,,,,,,,repeat,number,numRpt,j,0.5177,Lo,,,,,,5,,,,,,space,0.8196,low,0,0,0,0,1,,,,,,,,,
292810,2022-12-06_13h00.39.991,vts_reward_expectancy_bt,2022.2.4,Win32,30.01650908,Chrome,1536,864,,,,,0,1026,,,,,,,,,,,,,,,,,W,132,hexagon,1,0,,,,,,,,,,,,,,,,repeat,number,numRpt,j,0.5274,Hi,,,,,,5,,,,,,,,low,1,0,1,0,1,,,,,,,,,
292810,2022-12-06_13h00.39.991,vts_reward_expectancy_bt,2022.2.4,Win32,30.01650908,Chrome,1536,864,,,,,10,1036,,,,,,,,,,,,,,,,,F,160,star,1,0,,,,,,,,,,,,,,,,repeat,number,numRpt,k,0.5005,Lo,,,,,,5,,,,,,,,low,2,0,2,0,1,,,,,,,,,
292810,2022-12-06_13h00.39.991,vts_reward_expectancy_bt,2022.2.4,Win32,30.01650908,Chrome,1536,864,,,,,0,1036,,,,,,,,,,,,,,,,,S,181,triangle,1,0,,,,,,,,,,,,,,,,repeat,number,numRpt,k,0.4794,Hi,,,,,,5,,,,,,,,low,3,0,3,0,1,,,,,,,,,
292810,2022-12-06_13h00.39.991,vts_reward_expectancy_bt,2022.2.4,Win32,30.01650908,Chrome,1536,864,,,,,0,1036,,,,,,,,,,,,,,,,,B,167,circle,0,0,,,,,,,,,,,,,,,,repeat,number,NA,j,0.5178,Hi,,,,,,5,,,,,,,,low,4,0,4,0,1,,,,,,,,,
292810,2022-12-06_13h00.39.991,vts_reward_expectancy_bt,2022.2.4,Win32,30.01650908,Chrome,1536,864,,,,,0,1036,,,,,,,,,,,,,,,,,Y,125,hexagon,1,1,,,,,,,,,,,,,,,,repeat,number,numRpt,j,0.478,Hi,,,,,,5,,,,,,,,low,5,0,5,0,1,,,,,,,,,
292810,2022-12-06_13h00.39.991,vts_reward_expectancy_bt,2022.2.4,Win32,30.01650908,Chrome,1536,864,,,,,10,1046,,,,,,,,,,,,,,,,,H,174,star,1,0,,,,,,,,,,,,,,,,repeat,number,numRpt,k,0.3947,Lo,,,,,,5,,,,,,,,low,6,0,6,0,1,,,,,,,,,
292810,2022-12-06_13h00.39.991,vts_reward_expectancy_bt,2022.2.4,Win32,30.01650908,Chrome,1536,864,,,,,0,1046,,,,,,,,,,,,,,,,,U,146,triangle,1,0,,,,,,,,,,,,,,,,repeat,number,numRpt,j,0.5254,Hi,,,,,,5,,,,,,,,low,7,0,7,0,1,,,,,,,,,
292810,2022-12-06_13h00.39.991,vts_reward_expectancy_bt,2022.2.4,Win32,30.01650908,Chrome,1536,864,,,,,1,1047,,,,,,,,,,,,,,,,,D,139,hexagon,1,0,,,,,,,,,,,,,,,,repeat,number,numRpt,j,0.3703,Hi,,,,,,5,,,,,,,,low,8,0,8,0,1,,,,,,,,,
292810,2022-12-06_13h00.39.991,vts_reward_expectancy_bt,2022.2.4,Win32,30.01650908,Chrome,1536,864,,,,,1,1048,,,,,,,,,,,,,,,,,W,132,star,1,0,,,,,,,,,,,,,,,,repeat,number,numRpt,j,0.4845,Lo,,,,,,5,,,,,,,,low,9,0,9,0,1,,,,,,,,,
292810,2022-12-06_13h00.39.991,vts_reward_expectancy_bt,2022.2.4,Win32,30.01650908,Chrome,1536,864,,,,,0,1048,,,,,,,,,,,,,,,,,F,160,triangle,1,0,,,,,,,,,,,,,,,,repeat,number,numRpt,k,0.4401,Hi,,,,,,5,,,,,,,,low,10,0,10,0,1,,,,,,,,,
292810,2022-12-06_13h00.39.991,vts_reward_expectancy_bt,2022.2.4,Win32,30.01650908,Chrome,1536,864,,,,,10,1058,,,,,,,,,,,,,,,,,S,181,circle,1,0,,,,,,,,,,,,,,,,repeat,number,numRpt,k,0.506,Lo,,,,,,5,,,,,,,,low,11,0,11,0,1,,,,,,,,,
292810,2022-12-06_13h00.39.991,vts_reward_expectancy_bt,2022.2.4,Win32,30.01650908,Chrome,1536,864,,,,,10,1068,,,,,,,,,,,,,,,,,B,167,star,1,0,,,,,,,,,,,,,,,,repeat,number,numRpt,k,0.3773,Lo,,,,,,5,,,,,,,,low,12,0,12,0,1,,,,,,,,,
292810,2022-12-06_13h00.39.991,vts_reward_expectancy_bt,2022.2.4,Win32,30.01650908,Chrome,1536,864,,,,,1,1069,,,,,,,,,,,,,,,,,Y,125,circle,1,0,,,,,,,,,,,,,,,,repeat,number,numRpt,j,0.6191,Lo,,,,,,5,,,,,,,,low,13,0,13,0,1,,,,,,,,,
292810,2022-12-06_13h00.39.991,vts_reward_expectancy_bt,2022.2.4,Win32,30.01650908,Chrome,1536,864,,,,,0,1069,,,,,,,,,,,,,,,,,H,174,triangle,1,0,,,,,,,,,,,,,,,,repeat,number,numRpt,k,0.4474,Hi,,,,,,5,,,,,,,,low,14,0,14,0,1,,,,,,,,,
292810,2022-12-06_13h00.39.991,vts_reward_expectancy_bt,2022.2.4,Win32,30.01650908,Chrome,1536,864,,,,,0,1069,,,,,,,,,,,,,,,,,U,146,hexagon,1,0,,,,,,,,,,,,,,,,repeat,number,numRpt,j,0.9668,Hi,,,,,,5,,,,,,,,low,15,0,15,0,1,,,,,,,,,
292810,2022-12-06_13h00.39.991,vts_reward_expectancy_bt,2022.2.4,Win32,30.01650908,Chrome,1536,864,,,,,0,1069,,,,,,,,,,,,,,,,,W,132,triangle,1,0,,,,,,,,,,,,,,,,repeat,number,numRpt,j,0.5504,Hi,,,,,,5,,,,,,,,low,16,0,16,0,1,,,,,,,,,
292810,2022-12-06_13h00.39.991,vts_reward_expectancy_bt,2022.2.4,Win32,30.01650908,Chrome,1536,864,,,,,1,1070,,,,,,,,,,,,,,,,,B,174,circle,1,0,,,,,,,,,,,,,,,,switch,letter,lettSwt,d,0.3535,Lo,,,,,,5,,,,,,,,low,17,0,17,0,1,,,,,,,,,
292810,2022-12-06_13h00.39.991,vts_reward_expectancy_bt,2022.2.4,Win32,30.01650908,Chrome,1536,864,,,,,0,1070,,,,,,,,,,,,,,,,,Y,125,hexagon,1,0,,,,,,,,,,,,,,,,repeat,letter,lettRpt,f,0.5866,Hi,,,,,,5,,,,,,,,low,18,0,18,0,1,,,,,,,,,
292810,2022-12-06_13h00.39.991,vts_reward_expectancy_bt,2022.2.4,Win32,30.01650908,Chrome,1536,864,,,,,1,1071,,,,,,,,,,,,,,,,,S,181,star,1,0,,,,,,,,,,,,,,,,repeat,letter,lettRpt,f,0.4548,Lo,,,,,,5,,,,,,,,low,19,0,19,0,1,,,,,,,,,
292810,2022-12-06_13h00.39.991,vts_reward_expectancy_bt,2022.2.4,Win32,30.01650908,Chrome,1536,864,,,,,10,1081,,,,,,,,,,,,,,,,,D,160,circle,1,0,,,,,,,,,,,,,,,,repeat,letter,lettRpt,d,0.523,Lo,,,,,,5,,,,,,,,low,20,0,20,0,1,,,,,,,,,
292810,2022-12-06_13h00.39.991,vts_reward_expectancy_bt,2022.2.4,Win32,30.01650908,Chrome,1536,864,,,,,1,1082,,,,,,,,,,,,,,,,,U,146,star,1,0,,,,,,,,,,,,,,,,repeat,letter,lettRpt,f,0.4516,Lo,,,,,,5,,,,,,,,low,21,0,21,0,1,,,,,,,,,
292810,2022-12-06_13h00.39.991,vts_reward_expectancy_bt,2022.2.4,Win32,30.01650908,Chrome,1536,864,,,,,10,1092,,,,,,,,,,,,,,,,,F,139,triangle,1,0,,,,,,,,,,,,,,,,repeat,letter,lettRpt,d,0.3688,Hi,,,,,,5,,,,,,,,low,22,0,22,0,1,,,,,,,,,
292810,2022-12-06_13h00.39.991,vts_reward_expectancy_bt,2022.2.4,Win32,30.01650908,Chrome,1536,864,,,,,0,1092,,,,,,,,,,,,,,,,,H,167,hexagon,1,0,,,,,,,,,,,,,,,,repeat,letter,lettRpt,d,0.5281,Hi,,,,,,5,,,,,,,,low,23,0,23,0,1,,,,,,,,,
292810,2022-12-06_13h00.39.991,vts_reward_expectancy_bt,2022.2.4,Win32,30.01650908,Chrome,1536,864,,,,,0,1092,,,,,,,,,,,,,,,,,S,174,triangle,0,0,,,,,,,,,,,,,,,,repeat,letter,NA,d,0.4824,Hi,,,,,,5,,,,,,,,low,24,0,24,0,1,,,,,,,,,
292810,2022-12-06_13h00.39.991,vts_reward_expectancy_bt,2022.2.4,Win32,30.01650908,Chrome,1536,864,,,,,10,1102,,,,,,,,,,,,,,,,,H,160,hexagon,1,1,,,,,,,,,,,,,,,,repeat,letter,lettRpt,d,0.3923,Hi,,,,,,5,,,,,,,,low,25,0,25,0,1,,,,,,,,,
292810,2022-12-06_13h00.39.991,vts_reward_expectancy_bt,2022.2.4,Win32,30.01650908,Chrome,1536,864,,,,,1,1103,,,,,,,,,,,,,,,,,D,167,star,1,0,,,,,,,,,,,,,,,,repeat,letter,lettRpt,d,0.4918,Lo,,,,,,5,,,,,,,,low,26,0,26,0,1,,,,,,,,,
292810,2022-12-06_13h00.39.991,vts_reward_expectancy_bt,2022.2.4,Win32,30.01650908,Chrome,1536,864,,,,,10,1113,,,,,,,,,,,,,,,,,W,181,circle,1,0,,,,,,,,,,,,,,,,repeat,letter,lettRpt,f,0.5693,Lo,,,,,,5,,,,,,,,low,27,0,27,0,1,,,,,,,,,
292810,2022-12-06_13h00.39.991,vts_reward_expectancy_bt,2022.2.4,Win32,30.01650908,Chrome,1536,864,,,,,0,1113,,,,,,,,,,,,,,,,,Y,146,hexagon,1,0,,,,,,,,,,,,,,,,repeat,letter,lettRpt,f,0.4974,Hi,,,,,,5,,,,,,,,low,28,0,28,0,1,,,,,,,,,
292810,2022-12-06_13h00.39.991,vts_reward_expectancy_bt,2022.2.4,Win32,30.01650908,Chrome,1536,864,,,,,1,1114,,,,,,,,,,,,,,,,,U,125,triangle,1,0,,,,,,,,,,,,,,,,repeat,letter,lettRpt,f,0.3811,Hi,,,,,,5,,,,,,,,low,29,0,29,0,1,,,,,,,,,
292810,2022-12-06_13h00.39.991,vts_reward_expectancy_bt,2022.2.4,Win32,30.01650908,Chrome,1536,864,,,,,10,1124,,,,,,,,,,,,,,,,,B,132,circle,1,0,,,,,,,,,,,,,,,,repeat,letter,lettRpt,d,0.4017,Lo,,,,,,5,,,,,,,,low,30,0,30,0,1,,,,,,,,,
292810,2022-12-06_13h00.39.991,vts_reward_expectancy_bt,2022.2.4,Win32,30.01650908,Chrome,1536,864,,,,,0,1124,,,,,,,,,,,,,,,,,F,139,star,0,0,,,,,,,,,,,,,,,,repeat,letter,NA,f,0.4897,Lo,,,,,,5,,,,,,,,low,31,0,31,0,1,,,,,,,,,
292810,2022-12-06_13h00.39.991,vts_reward_expectancy_bt,2022.2.4,Win32,30.01650908,Chrome,1536,864,,,,,10,1134,,,,,,,,,,,,,,,,,B,181,hexagon,1,1,,,,,,,,,,,,,,,,switch,number,numSwt,k,0.6573,Hi,,,,,,6,,,,,,space,12.3694,low,0,0,0,0,1,,,,,,,,,
292810,2022-12-06_13h00.39.991,vts_reward_expectancy_bt,2022.2.4,Win32,30.01650908,Chrome,1536,864,,,,,1,1135,,,,,,,,,,,,,,,,,H,139,circle,1,0,,,,,,,,,,,,,,,,repeat,number,numRpt,j,0.6093,Lo,,,,,,6,,,,,,,,low,1,0,1,0,1,,,,,,,,,
292810,2022-12-06_13h00.39.991,vts_reward_expectancy_bt,2022.2.4,Win32,30.01650908,Chrome,1536,864,,,,,1,1136,,,,,,,,,,,,,,,,,W,132,star,1,0,,,,,,,,,,,,,,,,repeat,number,numRpt,j,0.5337,Lo,,,,,,6,,,,,,,,low,2,0,2,0,1,,,,,,,,,
292810,2022-12-06_13h00.39.991,vts_reward_expectancy_bt,2022.2.4,Win32,30.01650908,Chrome,1536,864,,,,,10,1146,,,,,,,,,,,,,,,,,S,125,triangle,1,0,,,,,,,,,,,,,,,,repeat,number,numRpt,j,0.4175,Hi,,,,,,6,,,,,,,,low,3,0,3,0,1,,,,,,,,,
292810,2022-12-06_13h00.39.991,vts_reward_expectancy_bt,2022.2.4,Win32,30.01650908,Chrome,1536,864,,,,,1,1147,,,,,,,,,,,,,,,,,D,146,hexagon,1,0,,,,,,,,,,,,,,,,repeat,number,numRpt,j,0.447,Hi,,,,,,6,,,,,,,,low,4,0,4,0,1,,,,,,,,,
292810,2022-12-06_13h00.39.991,vts_reward_expectancy_bt,2022.2.4,Win32,30.01650908,Chrome,1536,864,,,,,1,1148,,,,,,,,,,,,,,,,,U,174,circle,1,0,,,,,,,,,,,,,,,,repeat,number,numRpt,k,0.3803,Lo,,,,,,6,,,,,,,,low,5,0,5,0,1,,,,,,,,,
292810,2022-12-06_13h00.39.991,vts_reward_expectancy_bt,2022.2.4,Win32,30.01650908,Chrome,1536,864,,,,,1,1149,,,,,,,,,,,,,,,,,Y,167,star,1,0,,,,,,,,,,,,,,,,repeat,number,numRpt,k,0.4681,Lo,,,,,,6,,,,,,,,low,6,0,6,0,1,,,,,,,,,
292810,2022-12-06_13h00.39.991,vts_reward_expectancy_bt,2022.2.4,Win32,30.01650908,Chrome,1536,864,,,,,10,1159,,,,,,,,,,,,,,,,,F,160,triangle,1,0,,,,,,,,,,,,,,,,repeat,number,numRpt,k,0.1634,Hi,,,,,,6,,,,,,,,low,7,0,7,0,1,,,,,,,,,
