participant,date,expName,psychopyVersion,OS,frameRate,browser,xResolution,yResolution,key_resp.keys,key_resp.rt,training_resp.keys,training_resp.rt,points_trial,points_cumul,trainBlock,training.thisRepN,training.thisTrialN,training.thisN,training.thisIndex,training.ran,LTriangleOpac,LCircleOpac,LHexagonOpac,LStarOpac,RTriangleOpac,RCircleOpac,RHexagonOpac,RStarOpac,LShape_ID,RShape_ID,curr_topStim,curr_bottStim,curr_shape,acc,E1,target_resp_prac1.keys,target_resp_prac1.rt,pracBlock,task1_prac_trials.thisRepN,task1_prac_trials.thisTrialN,task1_prac_trials.thisN,task1_prac_trials.thisIndex,task1_prac_trials.ran,target_resp_prac2.keys,target_resp_prac2.rt,task2_praac_trials.thisRepN,task2_praac_trials.thisTrialN,task2_praac_trials.thisN,task2_praac_trials.thisIndex,task2_praac_trials.ran,alt,task,condition,target_resp.keys,target_resp.rt,rewCond,vts_practice_trials.thisRepN,vts_practice_trials.thisTrialN,vts_practice_trials.thisN,vts_practice_trials.thisIndex,vts_practice_trials.ran,blockNum,trials_norew.thisRepN,trials_norew.thisTrialN,trials_norew.thisN,trials_norew.thisIndex,trials_norew.ran,key_resp_2.keys,key_resp_2.rt,rewExpectancy,trials_rew.thisRepN,trials_rew.thisTrialN,trials_rew.thisN,trials_rew.thisIndex,trials_rew.ran,Q1,Q2,Q2_text,Q3,Q4,Q5_text,Q5,xRes,yRes
292930,2022-12-05_20h31.05.881,vts_reward_expectancy_bt,2022.2.4,Win32,60.01680471,Chrome,1280,720,,,,,,,,,,,,,,,,,,,,,,,,,,,,,,,,,,,,,,,,,,,,,,,,,,,,,,,,,,,,,,,,,,,,,,,,,,,,
292930,2022-12-05_20h31.05.881,vts_reward_expectancy_bt,2022.2.4,Win32,60.01680471,Chrome,1280,720,space,13.5386,,,,,,,,,,,,,,,,,,,,,,,,,,,,,,,,,,,,,,,,,,,,,,,,,,,,,,,,,,,,,,,,,,,,,,,,,,
292930,2022-12-05_20h31.05.881,vts_reward_expectancy_bt,2022.2.4,Win32,60.01680471,Chrome,1280,720,,,,,,,,,,,,,,,,,,,,,,,,,,,,,,,,,,,,,,,,,,,,,,,,,,,,,,,,,,,,,,,,,,,,,,,,,,,,
292930,2022-12-05_20h31.05.881,vts_reward_expectancy_bt,2022.2.4,Win32,60.01680471,Chrome,1280,720,,,a,0.7432,10,10,0,0,0,0,3,1,0,1,0,0,1,0,0,0,circle,triangle,,,,,,,,,,,,,,,,,,,,,,,,,,,,,,,,,,,,,,,,,,,,,,,,,,,,,,
292930,2022-12-05_20h31.05.881,vts_reward_expectancy_bt,2022.2.4,Win32,60.01680471,Chrome,1280,720,,,a,0.7252,10,20,0,0,1,1,9,1,0,0,0,1,1,0,0,0,star,triangle,,,,,,,,,,,,,,,,,,,,,,,,,,,,,,,,,,,,,,,,,,,,,,,,,,,,,,
292930,2022-12-05_20h31.05.881,vts_reward_expectancy_bt,2022.2.4,Win32,60.01680471,Chrome,1280,720,,,l,0.3244,1,21,0,0,2,2,8,1,0,0,1,0,0,0,0,1,hexagon,star,,,,,,,,,,,,,,,,,,,,,,,,,,,,,,,,,,,,,,,,,,,,,,,,,,,,,,
292930,2022-12-05_20h31.05.881,vts_reward_expectancy_bt,2022.2.4,Win32,60.01680471,Chrome,1280,720,,,l,0.2658,1,22,0,0,3,3,7,1,0,0,1,0,0,1,0,0,hexagon,circle,,,,,,,,,,,,,,,,,,,,,,,,,,,,,,,,,,,,,,,,,,,,,,,,,,,,,,
292930,2022-12-05_20h31.05.881,vts_reward_expectancy_bt,2022.2.4,Win32,60.01680471,Chrome,1280,720,,,a,0.2402,1,23,0,0,4,4,5,1,0,1,0,0,0,0,0,1,circle,star,,,,,,,,,,,,,,,,,,,,,,,,,,,,,,,,,,,,,,,,,,,,,,,,,,,,,,
292930,2022-12-05_20h31.05.881,vts_reward_expectancy_bt,2022.2.4,Win32,60.01680471,Chrome,1280,720,,,a,0.2496,1,24,0,0,5,5,10,1,0,0,0,1,0,1,0,0,star ,circle,,,,,,,,,,,,,,,,,,,,,,,,,,,,,,,,,,,,,,,,,,,,,,,,,,,,,,
292930,2022-12-05_20h31.05.881,vts_reward_expectancy_bt,2022.2.4,Win32,60.01680471,Chrome,1280,720,,,a,0.2387,10,34,0,0,6,6,4,1,0,1,0,0,0,0,1,0,circle,hexagon,,,,,,,,,,,,,,,,,,,,,,,,,,,,,,,,,,,,,,,,,,,,,,,,,,,,,,
292930,2022-12-05_20h31.05.881,vts_reward_expectancy_bt,2022.2.4,Win32,60.01680471,Chrome,1280,720,,,a,0.2683,1,35,0,0,7,7,11,1,0,0,0,1,0,0,1,0,star,hexagon,,,,,,,,,,,,,,,,,,,,,,,,,,,,,,,,,,,,,,,,,,,,,,,,,,,,,,
292930,2022-12-05_20h31.05.881,vts_reward_expectancy_bt,2022.2.4,Win32,60.01680471,Chrome,1280,720,,,l,0.2349,10,45,0,0,8,8,2,1,1,0,0,0,0,0,0,1,triangle,star,,,,,,,,,,,,,,,,,,,,,,,,,,,,,,,,,,,,,,,,,,,,,,,,,,,,,,
292930,2022-12-05_20h31.05.881,vts_reward_expectancy_bt,2022.2.4,Win32,60.01680471,Chrome,1280,720,,,a,0.2222,1,46,0,0,9,9,6,1,0,0,1,0,1,0,0,0,hexagon,triangle,,,,,,,,,,,,,,,,,,,,,,,,,,,,,,,,,,,,,,,,,,,,,,,,,,,,,,
292930,2022-12-05_20h31.05.881,vts_reward_expectancy_bt,2022.2.4,Win32,60.01680471,Chrome,1280,720,,,a,0.2343,10,56,0,0,10,10,0,1,1,0,0,0,0,1,0,0,triangle,circle,,,,,,,,,,,,,,,,,,,,,,,,,,,,,,,,,,,,,,,,,,,,,,,,,,,,,,
292930,2022-12-05_20h31.05.881,vts_reward_expectancy_bt,2022.2.4,Win32,60.01680471,Chrome,1280,720,,,a,0.3346,10,66,0,0,11,11,1,1,1,0,0,0,0,0,1,0,triangle,hexagon,,,,,,,,,,,,,,,,,,,,,,,,,,,,,,,,,,,,,,,,,,,,,,,,,,,,,,
292930,2022-12-05_20h31.05.881,vts_reward_expectancy_bt,2022.2.4,Win32,60.01680471,Chrome,1280,720,,,a,0.2317,1,67,0,1,0,12,1,1,1,0,0,0,0,0,1,0,triangle,hexagon,,,,,,,,,,,,,,,,,,,,,,,,,,,,,,,,,,,,,,,,,,,,,,,,,,,,,,
292930,2022-12-05_20h31.05.881,vts_reward_expectancy_bt,2022.2.4,Win32,60.01680471,Chrome,1280,720,,,l,0.2516,10,77,0,1,1,13,11,1,0,0,0,1,0,0,1,0,star,hexagon,,,,,,,,,,,,,,,,,,,,,,,,,,,,,,,,,,,,,,,,,,,,,,,,,,,,,,
292930,2022-12-05_20h31.05.881,vts_reward_expectancy_bt,2022.2.4,Win32,60.01680471,Chrome,1280,720,,,a,0.6056,1,78,0,1,2,14,3,1,0,1,0,0,1,0,0,0,circle,triangle,,,,,,,,,,,,,,,,,,,,,,,,,,,,,,,,,,,,,,,,,,,,,,,,,,,,,,
292930,2022-12-05_20h31.05.881,vts_reward_expectancy_bt,2022.2.4,Win32,60.01680471,Chrome,1280,720,,,l,0.638,10,88,0,1,3,15,2,1,1,0,0,0,0,0,0,1,triangle,star,,,,,,,,,,,,,,,,,,,,,,,,,,,,,,,,,,,,,,,,,,,,,,,,,,,,,,
292930,2022-12-05_20h31.05.881,vts_reward_expectancy_bt,2022.2.4,Win32,60.01680471,Chrome,1280,720,,,l,0.5839,10,98,0,1,4,16,0,1,1,0,0,0,0,1,0,0,triangle,circle,,,,,,,,,,,,,,,,,,,,,,,,,,,,,,,,,,,,,,,,,,,,,,,,,,,,,,
292930,2022-12-05_20h31.05.881,vts_reward_expectancy_bt,2022.2.4,Win32,60.01680471,Chrome,1280,720,,,l,0.4105,10,108,0,1,5,17,5,1,0,1,0,0,0,0,0,1,circle,star,,,,,,,,,,,,,,,,,,,,,,,,,,,,,,,,,,,,,,,,,,,,,,,,,,,,,,
292930,2022-12-05_20h31.05.881,vts_reward_expectancy_bt,2022.2.4,Win32,60.01680471,Chrome,1280,720,,,l,0.7828,1,109,0,1,6,18,6,1,0,0,1,0,1,0,0,0,hexagon,triangle,,,,,,,,,,,,,,,,,,,,,,,,,,,,,,,,,,,,,,,,,,,,,,,,,,,,,,
292930,2022-12-05_20h31.05.881,vts_reward_expectancy_bt,2022.2.4,Win32,60.01680471,Chrome,1280,720,,,a,0.9657,1,110,0,1,7,19,4,1,0,1,0,0,0,0,1,0,circle,hexagon,,,,,,,,,,,,,,,,,,,,,,,,,,,,,,,,,,,,,,,,,,,,,,,,,,,,,,
292930,2022-12-05_20h31.05.881,vts_reward_expectancy_bt,2022.2.4,Win32,60.01680471,Chrome,1280,720,,,a,0.6925,1,111,0,1,8,20,9,1,0,0,0,1,1,0,0,0,star,triangle,,,,,,,,,,,,,,,,,,,,,,,,,,,,,,,,,,,,,,,,,,,,,,,,,,,,,,
292930,2022-12-05_20h31.05.881,vts_reward_expectancy_bt,2022.2.4,Win32,60.01680471,Chrome,1280,720,,,l,0.5322,10,121,0,1,9,21,7,1,0,0,1,0,0,1,0,0,hexagon,circle,,,,,,,,,,,,,,,,,,,,,,,,,,,,,,,,,,,,,,,,,,,,,,,,,,,,,,
292930,2022-12-05_20h31.05.881,vts_reward_expectancy_bt,2022.2.4,Win32,60.01680471,Chrome,1280,720,,,a,0.3433,10,131,0,1,10,22,10,1,0,0,0,1,0,1,0,0,star ,circle,,,,,,,,,,,,,,,,,,,,,,,,,,,,,,,,,,,,,,,,,,,,,,,,,,,,,,
292930,2022-12-05_20h31.05.881,vts_reward_expectancy_bt,2022.2.4,Win32,60.01680471,Chrome,1280,720,,,l,0.509,10,141,0,1,11,23,8,1,0,0,1,0,0,0,0,1,hexagon,star,,,,,,,,,,,,,,,,,,,,,,,,,,,,,,,,,,,,,,,,,,,,,,,,,,,,,,
292930,2022-12-05_20h31.05.881,vts_reward_expectancy_bt,2022.2.4,Win32,60.01680471,Chrome,1280,720,,,l,1.0827,1,142,0,2,0,24,1,1,1,0,0,0,0,0,1,0,triangle,hexagon,,,,,,,,,,,,,,,,,,,,,,,,,,,,,,,,,,,,,,,,,,,,,,,,,,,,,,
292930,2022-12-05_20h31.05.881,vts_reward_expectancy_bt,2022.2.4,Win32,60.01680471,Chrome,1280,720,,,a,0.4423,1,143,0,2,1,25,10,1,0,0,0,1,0,1,0,0,star ,circle,,,,,,,,,,,,,,,,,,,,,,,,,,,,,,,,,,,,,,,,,,,,,,,,,,,,,,
292930,2022-12-05_20h31.05.881,vts_reward_expectancy_bt,2022.2.4,Win32,60.01680471,Chrome,1280,720,,,a,0.5503,10,153,0,2,2,26,7,1,0,0,1,0,0,1,0,0,hexagon,circle,,,,,,,,,,,,,,,,,,,,,,,,,,,,,,,,,,,,,,,,,,,,,,,,,,,,,,
292930,2022-12-05_20h31.05.881,vts_reward_expectancy_bt,2022.2.4,Win32,60.01680471,Chrome,1280,720,,,l,0.6158,1,154,0,2,3,27,3,1,0,1,0,0,1,0,0,0,circle,triangle,,,,,,,,,,,,,,,,,,,,,,,,,,,,,,,,,,,,,,,,,,,,,,,,,,,,,,
292930,2022-12-05_20h31.05.881,vts_reward_expectancy_bt,2022.2.4,Win32,60.01680471,Chrome,1280,720,,,l,0.6002,1,155,0,2,4,28,2,1,1,0,0,0,0,0,0,1,triangle,star,,,,,,,,,,,,,,,,,,,,,,,,,,,,,,,,,,,,,,,,,,,,,,,,,,,,,,
292930,2022-12-05_20h31.05.881,vts_reward_expectancy_bt,2022.2.4,Win32,60.01680471,Chrome,1280,720,,,l,0.5096,10,165,0,2,5,29,6,1,0,0,1,0,1,0,0,0,hexagon,triangle,,,,,,,,,,,,,,,,,,,,,,,,,,,,,,,,,,,,,,,,,,,,,,,,,,,,,,
292930,2022-12-05_20h31.05.881,vts_reward_expectancy_bt,2022.2.4,Win32,60.01680471,Chrome,1280,720,,,a,0.2874,10,175,0,2,6,30,11,1,0,0,0,1,0,0,1,0,star,hexagon,,,,,,,,,,,,,,,,,,,,,,,,,,,,,,,,,,,,,,,,,,,,,,,,,,,,,,
292930,2022-12-05_20h31.05.881,vts_reward_expectancy_bt,2022.2.4,Win32,60.01680471,Chrome,1280,720,,,l,0.3695,1,176,0,2,7,31,4,1,0,1,0,0,0,0,1,0,circle,hexagon,,,,,,,,,,,,,,,,,,,,,,,,,,,,,,,,,,,,,,,,,,,,,,,,,,,,,,
292930,2022-12-05_20h31.05.881,vts_reward_expectancy_bt,2022.2.4,Win32,60.01680471,Chrome,1280,720,,,a,0.3155,10,186,0,2,8,32,0,1,1,0,0,0,0,1,0,0,triangle,circle,,,,,,,,,,,,,,,,,,,,,,,,,,,,,,,,,,,,,,,,,,,,,,,,,,,,,,
292930,2022-12-05_20h31.05.881,vts_reward_expectancy_bt,2022.2.4,Win32,60.01680471,Chrome,1280,720,,,a,0.2627,1,187,0,2,9,33,5,1,0,1,0,0,0,0,0,1,circle,star,,,,,,,,,,,,,,,,,,,,,,,,,,,,,,,,,,,,,,,,,,,,,,,,,,,,,,
292930,2022-12-05_20h31.05.881,vts_reward_expectancy_bt,2022.2.4,Win32,60.01680471,Chrome,1280,720,,,l,0.3719,1,188,0,2,10,34,8,1,0,0,1,0,0,0,0,1,hexagon,star,,,,,,,,,,,,,,,,,,,,,,,,,,,,,,,,,,,,,,,,,,,,,,,,,,,,,,
292930,2022-12-05_20h31.05.881,vts_reward_expectancy_bt,2022.2.4,Win32,60.01680471,Chrome,1280,720,,,a,0.2363,1,189,0,2,11,35,9,1,0,0,0,1,1,0,0,0,star,triangle,,,,,,,,,,,,,,,,,,,,,,,,,,,,,,,,,,,,,,,,,,,,,,,,,,,,,,
292930,2022-12-05_20h31.05.881,vts_reward_expectancy_bt,2022.2.4,Win32,60.01680471,Chrome,1280,720,,,a,0.4831,10,199,1,0,0,0,11,1,0,0,0,1,0,0,1,0,star,hexagon,,,,,,,,,,,,,,,,,,,,,,,,,,,,,,,,,,,,,,,,,,,,,,,,,,,,,,
292930,2022-12-05_20h31.05.881,vts_reward_expectancy_bt,2022.2.4,Win32,60.01680471,Chrome,1280,720,,,l,0.4548,1,200,1,0,1,1,5,1,0,1,0,0,0,0,0,1,circle,star,,,,,,,,,,,,,,,,,,,,,,,,,,,,,,,,,,,,,,,,,,,,,,,,,,,,,,
292930,2022-12-05_20h31.05.881,vts_reward_expectancy_bt,2022.2.4,Win32,60.01680471,Chrome,1280,720,,,a,0.3404,1,201,1,0,2,2,3,1,0,1,0,0,1,0,0,0,circle,triangle,,,,,,,,,,,,,,,,,,,,,,,,,,,,,,,,,,,,,,,,,,,,,,,,,,,,,,
292930,2022-12-05_20h31.05.881,vts_reward_expectancy_bt,2022.2.4,Win32,60.01680471,Chrome,1280,720,,,a,0.2115,1,202,1,0,3,3,10,1,0,0,0,1,0,1,0,0,star ,circle,,,,,,,,,,,,,,,,,,,,,,,,,,,,,,,,,,,,,,,,,,,,,,,,,,,,,,
292930,2022-12-05_20h31.05.881,vts_reward_expectancy_bt,2022.2.4,Win32,60.01680471,Chrome,1280,720,,,a,0.244,1,203,1,0,4,4,2,1,1,0,0,0,0,0,0,1,triangle,star,,,,,,,,,,,,,,,,,,,,,,,,,,,,,,,,,,,,,,,,,,,,,,,,,,,,,,
292930,2022-12-05_20h31.05.881,vts_reward_expectancy_bt,2022.2.4,Win32,60.01680471,Chrome,1280,720,,,a,0.5328,10,213,1,0,5,5,7,1,0,0,1,0,0,1,0,0,hexagon,circle,,,,,,,,,,,,,,,,,,,,,,,,,,,,,,,,,,,,,,,,,,,,,,,,,,,,,,
292930,2022-12-05_20h31.05.881,vts_reward_expectancy_bt,2022.2.4,Win32,60.01680471,Chrome,1280,720,,,a,0.3663,1,214,1,0,6,6,0,1,1,0,0,0,0,1,0,0,triangle,circle,,,,,,,,,,,,,,,,,,,,,,,,,,,,,,,,,,,,,,,,,,,,,,,,,,,,,,
292930,2022-12-05_20h31.05.881,vts_reward_expectancy_bt,2022.2.4,Win32,60.01680471,Chrome,1280,720,,,l,0.2172,10,224,1,0,7,7,6,1,0,0,1,0,1,0,0,0,hexagon,triangle,,,,,,,,,,,,,,,,,,,,,,,,,,,,,,,,,,,,,,,,,,,,,,,,,,,,,,
292930,2022-12-05_20h31.05.881,vts_reward_expectancy_bt,2022.2.4,Win32,60.01680471,Chrome,1280,720,,,l,0.2681,10,234,1,0,8,8,4,1,0,1,0,0,0,0,1,0,circle,hexagon,,,,,,,,,,,,,,,,,,,,,,,,,,,,,,,,,,,,,,,,,,,,,,,,,,,,,,
292930,2022-12-05_20h31.05.881,vts_reward_expectancy_bt,2022.2.4,Win32,60.01680471,Chrome,1280,720,,,a,0.306,10,244,1,0,9,9,9,1,0,0,0,1,1,0,0,0,star,triangle,,,,,,,,,,,,,,,,,,,,,,,,,,,,,,,,,,,,,,,,,,,,,,,,,,,,,,
292930,2022-12-05_20h31.05.881,vts_reward_expectancy_bt,2022.2.4,Win32,60.01680471,Chrome,1280,720,,,a,0.3915,1,245,1,0,10,10,1,1,1,0,0,0,0,0,1,0,triangle,hexagon,,,,,,,,,,,,,,,,,,,,,,,,,,,,,,,,,,,,,,,,,,,,,,,,,,,,,,
292930,2022-12-05_20h31.05.881,vts_reward_expectancy_bt,2022.2.4,Win32,60.01680471,Chrome,1280,720,,,a,0.3213,1,246,1,0,11,11,8,1,0,0,1,0,0,0,0,1,hexagon,star,,,,,,,,,,,,,,,,,,,,,,,,,,,,,,,,,,,,,,,,,,,,,,,,,,,,,,
292930,2022-12-05_20h31.05.881,vts_reward_expectancy_bt,2022.2.4,Win32,60.01680471,Chrome,1280,720,,,a,0.2386,10,256,1,1,0,12,1,1,1,0,0,0,0,0,1,0,triangle,hexagon,,,,,,,,,,,,,,,,,,,,,,,,,,,,,,,,,,,,,,,,,,,,,,,,,,,,,,
292930,2022-12-05_20h31.05.881,vts_reward_expectancy_bt,2022.2.4,Win32,60.01680471,Chrome,1280,720,,,l,0.6744,10,266,1,1,1,13,2,1,1,0,0,0,0,0,0,1,triangle,star,,,,,,,,,,,,,,,,,,,,,,,,,,,,,,,,,,,,,,,,,,,,,,,,,,,,,,
292930,2022-12-05_20h31.05.881,vts_reward_expectancy_bt,2022.2.4,Win32,60.01680471,Chrome,1280,720,,,a,0.575,10,276,1,1,2,14,7,1,0,0,1,0,0,1,0,0,hexagon,circle,,,,,,,,,,,,,,,,,,,,,,,,,,,,,,,,,,,,,,,,,,,,,,,,,,,,,,
292930,2022-12-05_20h31.05.881,vts_reward_expectancy_bt,2022.2.4,Win32,60.01680471,Chrome,1280,720,,,a,0.9081,10,286,1,1,3,15,5,1,0,1,0,0,0,0,0,1,circle,star,,,,,,,,,,,,,,,,,,,,,,,,,,,,,,,,,,,,,,,,,,,,,,,,,,,,,,
292930,2022-12-05_20h31.05.881,vts_reward_expectancy_bt,2022.2.4,Win32,60.01680471,Chrome,1280,720,,,a,0.6506,10,296,1,1,4,16,9,1,0,0,0,1,1,0,0,0,star,triangle,,,,,,,,,,,,,,,,,,,,,,,,,,,,,,,,,,,,,,,,,,,,,,,,,,,,,,
292930,2022-12-05_20h31.05.881,vts_reward_expectancy_bt,2022.2.4,Win32,60.01680471,Chrome,1280,720,,,l,0.9304,1,297,1,1,5,17,3,1,0,1,0,0,1,0,0,0,circle,triangle,,,,,,,,,,,,,,,,,,,,,,,,,,,,,,,,,,,,,,,,,,,,,,,,,,,,,,
292930,2022-12-05_20h31.05.881,vts_reward_expectancy_bt,2022.2.4,Win32,60.01680471,Chrome,1280,720,,,l,0.7327,10,307,1,1,6,18,4,1,0,1,0,0,0,0,1,0,circle,hexagon,,,,,,,,,,,,,,,,,,,,,,,,,,,,,,,,,,,,,,,,,,,,,,,,,,,,,,
292930,2022-12-05_20h31.05.881,vts_reward_expectancy_bt,2022.2.4,Win32,60.01680471,Chrome,1280,720,,,a,0.5163,10,317,1,1,7,19,10,1,0,0,0,1,0,1,0,0,star ,circle,,,,,,,,,,,,,,,,,,,,,,,,,,,,,,,,,,,,,,,,,,,,,,,,,,,,,,
292930,2022-12-05_20h31.05.881,vts_reward_expectancy_bt,2022.2.4,Win32,60.01680471,Chrome,1280,720,,,a,0.6698,1,318,1,1,8,20,0,1,1,0,0,0,0,1,0,0,triangle,circle,,,,,,,,,,,,,,,,,,,,,,,,,,,,,,,,,,,,,,,,,,,,,,,,,,,,,,
292930,2022-12-05_20h31.05.881,vts_reward_expectancy_bt,2022.2.4,Win32,60.01680471,Chrome,1280,720,,,l,0.5836,1,319,1,1,9,21,8,1,0,0,1,0,0,0,0,1,hexagon,star,,,,,,,,,,,,,,,,,,,,,,,,,,,,,,,,,,,,,,,,,,,,,,,,,,,,,,
292930,2022-12-05_20h31.05.881,vts_reward_expectancy_bt,2022.2.4,Win32,60.01680471,Chrome,1280,720,,,a,0.9119,1,320,1,1,10,22,6,1,0,0,1,0,1,0,0,0,hexagon,triangle,,,,,,,,,,,,,,,,,,,,,,,,,,,,,,,,,,,,,,,,,,,,,,,,,,,,,,
292930,2022-12-05_20h31.05.881,vts_reward_expectancy_bt,2022.2.4,Win32,60.01680471,Chrome,1280,720,,,a,0.5684,10,330,1,1,11,23,11,1,0,0,0,1,0,0,1,0,star,hexagon,,,,,,,,,,,,,,,,,,,,,,,,,,,,,,,,,,,,,,,,,,,,,,,,,,,,,,
292930,2022-12-05_20h31.05.881,vts_reward_expectancy_bt,2022.2.4,Win32,60.01680471,Chrome,1280,720,,,a,0.5539,10,340,1,2,0,24,7,1,0,0,1,0,0,1,0,0,hexagon,circle,,,,,,,,,,,,,,,,,,,,,,,,,,,,,,,,,,,,,,,,,,,,,,,,,,,,,,
292930,2022-12-05_20h31.05.881,vts_reward_expectancy_bt,2022.2.4,Win32,60.01680471,Chrome,1280,720,,,a,0.5108,10,350,1,2,1,25,9,1,0,0,0,1,1,0,0,0,star,triangle,,,,,,,,,,,,,,,,,,,,,,,,,,,,,,,,,,,,,,,,,,,,,,,,,,,,,,
292930,2022-12-05_20h31.05.881,vts_reward_expectancy_bt,2022.2.4,Win32,60.01680471,Chrome,1280,720,,,l,0.8147,10,360,1,2,2,26,1,1,1,0,0,0,0,0,1,0,triangle,hexagon,,,,,,,,,,,,,,,,,,,,,,,,,,,,,,,,,,,,,,,,,,,,,,,,,,,,,,
292930,2022-12-05_20h31.05.881,vts_reward_expectancy_bt,2022.2.4,Win32,60.01680471,Chrome,1280,720,,,a,0.6212,10,370,1,2,3,27,10,1,0,0,0,1,0,1,0,0,star ,circle,,,,,,,,,,,,,,,,,,,,,,,,,,,,,,,,,,,,,,,,,,,,,,,,,,,,,,
292930,2022-12-05_20h31.05.881,vts_reward_expectancy_bt,2022.2.4,Win32,60.01680471,Chrome,1280,720,,,l,0.7764,10,380,1,2,4,28,5,1,0,1,0,0,0,0,0,1,circle,star,,,,,,,,,,,,,,,,,,,,,,,,,,,,,,,,,,,,,,,,,,,,,,,,,,,,,,
292930,2022-12-05_20h31.05.881,vts_reward_expectancy_bt,2022.2.4,Win32,60.01680471,Chrome,1280,720,,,a,0.6051,10,390,1,2,5,29,11,1,0,0,0,1,0,0,1,0,star,hexagon,,,,,,,,,,,,,,,,,,,,,,,,,,,,,,,,,,,,,,,,,,,,,,,,,,,,,,
292930,2022-12-05_20h31.05.881,vts_reward_expectancy_bt,2022.2.4,Win32,60.01680471,Chrome,1280,720,,,a,0.927,1,391,1,2,6,30,6,1,0,0,1,0,1,0,0,0,hexagon,triangle,,,,,,,,,,,,,,,,,,,,,,,,,,,,,,,,,,,,,,,,,,,,,,,,,,,,,,
292930,2022-12-05_20h31.05.881,vts_reward_expectancy_bt,2022.2.4,Win32,60.01680471,Chrome,1280,720,,,l,0.7429,10,401,1,2,7,31,4,1,0,1,0,0,0,0,1,0,circle,hexagon,,,,,,,,,,,,,,,,,,,,,,,,,,,,,,,,,,,,,,,,,,,,,,,,,,,,,,
292930,2022-12-05_20h31.05.881,vts_reward_expectancy_bt,2022.2.4,Win32,60.01680471,Chrome,1280,720,,,l,0.9903,1,402,1,2,8,32,0,1,1,0,0,0,0,1,0,0,triangle,circle,,,,,,,,,,,,,,,,,,,,,,,,,,,,,,,,,,,,,,,,,,,,,,,,,,,,,,
292930,2022-12-05_20h31.05.881,vts_reward_expectancy_bt,2022.2.4,Win32,60.01680471,Chrome,1280,720,,,l,0.6049,1,403,1,2,9,33,8,1,0,0,1,0,0,0,0,1,hexagon,star,,,,,,,,,,,,,,,,,,,,,,,,,,,,,,,,,,,,,,,,,,,,,,,,,,,,,,
292930,2022-12-05_20h31.05.881,vts_reward_expectancy_bt,2022.2.4,Win32,60.01680471,Chrome,1280,720,,,a,0.6752,1,404,1,2,10,34,3,1,0,1,0,0,1,0,0,0,circle,triangle,,,,,,,,,,,,,,,,,,,,,,,,,,,,,,,,,,,,,,,,,,,,,,,,,,,,,,
292930,2022-12-05_20h31.05.881,vts_reward_expectancy_bt,2022.2.4,Win32,60.01680471,Chrome,1280,720,,,l,0.5727,10,414,1,2,11,35,2,1,1,0,0,0,0,0,0,1,triangle,star,,,,,,,,,,,,,,,,,,,,,,,,,,,,,,,,,,,,,,,,,,,,,,,,,,,,,,
292930,2022-12-05_20h31.05.881,vts_reward_expectancy_bt,2022.2.4,Win32,60.01680471,Chrome,1280,720,,,l,0.6204,10,424,2,0,0,0,8,1,0,0,1,0,0,0,0,1,hexagon,star,,,,,,,,,,,,,,,,,,,,,,,,,,,,,,,,,,,,,,,,,,,,,,,,,,,,,,
292930,2022-12-05_20h31.05.881,vts_reward_expectancy_bt,2022.2.4,Win32,60.01680471,Chrome,1280,720,,,a,0.5419,1,425,2,0,1,1,9,1,0,0,0,1,1,0,0,0,star,triangle,,,,,,,,,,,,,,,,,,,,,,,,,,,,,,,,,,,,,,,,,,,,,,,,,,,,,,
292930,2022-12-05_20h31.05.881,vts_reward_expectancy_bt,2022.2.4,Win32,60.01680471,Chrome,1280,720,,,a,0.5688,1,426,2,0,2,2,11,1,0,0,0,1,0,0,1,0,star,hexagon,,,,,,,,,,,,,,,,,,,,,,,,,,,,,,,,,,,,,,,,,,,,,,,,,,,,,,
292930,2022-12-05_20h31.05.881,vts_reward_expectancy_bt,2022.2.4,Win32,60.01680471,Chrome,1280,720,,,a,0.8352,10,436,2,0,3,3,0,1,1,0,0,0,0,1,0,0,triangle,circle,,,,,,,,,,,,,,,,,,,,,,,,,,,,,,,,,,,,,,,,,,,,,,,,,,,,,,
292930,2022-12-05_20h31.05.881,vts_reward_expectancy_bt,2022.2.4,Win32,60.01680471,Chrome,1280,720,,,a,0.8532,10,446,2,0,4,4,6,1,0,0,1,0,1,0,0,0,hexagon,triangle,,,,,,,,,,,,,,,,,,,,,,,,,,,,,,,,,,,,,,,,,,,,,,,,,,,,,,
292930,2022-12-05_20h31.05.881,vts_reward_expectancy_bt,2022.2.4,Win32,60.01680471,Chrome,1280,720,,,l,1.1169,1,447,2,0,5,5,4,1,0,1,0,0,0,0,1,0,circle,hexagon,,,,,,,,,,,,,,,,,,,,,,,,,,,,,,,,,,,,,,,,,,,,,,,,,,,,,,
292930,2022-12-05_20h31.05.881,vts_reward_expectancy_bt,2022.2.4,Win32,60.01680471,Chrome,1280,720,,,l,0.5605,10,457,2,0,6,6,2,1,1,0,0,0,0,0,0,1,triangle,star,,,,,,,,,,,,,,,,,,,,,,,,,,,,,,,,,,,,,,,,,,,,,,,,,,,,,,
292930,2022-12-05_20h31.05.881,vts_reward_expectancy_bt,2022.2.4,Win32,60.01680471,Chrome,1280,720,,,l,0.6337,10,467,2,0,7,7,5,1,0,1,0,0,0,0,0,1,circle,star,,,,,,,,,,,,,,,,,,,,,,,,,,,,,,,,,,,,,,,,,,,,,,,,,,,,,,
292930,2022-12-05_20h31.05.881,vts_reward_expectancy_bt,2022.2.4,Win32,60.01680471,Chrome,1280,720,,,a,0.9376,1,468,2,0,8,8,3,1,0,1,0,0,1,0,0,0,circle,triangle,,,,,,,,,,,,,,,,,,,,,,,,,,,,,,,,,,,,,,,,,,,,,,,,,,,,,,
292930,2022-12-05_20h31.05.881,vts_reward_expectancy_bt,2022.2.4,Win32,60.01680471,Chrome,1280,720,,,l,0.7757,10,478,2,0,9,9,10,1,0,0,0,1,0,1,0,0,star ,circle,,,,,,,,,,,,,,,,,,,,,,,,,,,,,,,,,,,,,,,,,,,,,,,,,,,,,,
292930,2022-12-05_20h31.05.881,vts_reward_expectancy_bt,2022.2.4,Win32,60.01680471,Chrome,1280,720,,,l,0.7165,10,488,2,0,10,10,1,1,1,0,0,0,0,0,1,0,triangle,hexagon,,,,,,,,,,,,,,,,,,,,,,,,,,,,,,,,,,,,,,,,,,,,,,,,,,,,,,
292930,2022-12-05_20h31.05.881,vts_reward_expectancy_bt,2022.2.4,Win32,60.01680471,Chrome,1280,720,,,a,0.5425,1,489,2,0,11,11,7,1,0,0,1,0,0,1,0,0,hexagon,circle,,,,,,,,,,,,,,,,,,,,,,,,,,,,,,,,,,,,,,,,,,,,,,,,,,,,,,
292930,2022-12-05_20h31.05.881,vts_reward_expectancy_bt,2022.2.4,Win32,60.01680471,Chrome,1280,720,,,l,0.7104,1,490,2,1,0,12,0,1,1,0,0,0,0,1,0,0,triangle,circle,,,,,,,,,,,,,,,,,,,,,,,,,,,,,,,,,,,,,,,,,,,,,,,,,,,,,,
292930,2022-12-05_20h31.05.881,vts_reward_expectancy_bt,2022.2.4,Win32,60.01680471,Chrome,1280,720,,,l,0.8526,1,491,2,1,1,13,2,1,1,0,0,0,0,0,0,1,triangle,star,,,,,,,,,,,,,,,,,,,,,,,,,,,,,,,,,,,,,,,,,,,,,,,,,,,,,,
292930,2022-12-05_20h31.05.881,vts_reward_expectancy_bt,2022.2.4,Win32,60.01680471,Chrome,1280,720,,,l,0.9647,10,501,2,1,2,14,5,1,0,1,0,0,0,0,0,1,circle,star,,,,,,,,,,,,,,,,,,,,,,,,,,,,,,,,,,,,,,,,,,,,,,,,,,,,,,
292930,2022-12-05_20h31.05.881,vts_reward_expectancy_bt,2022.2.4,Win32,60.01680471,Chrome,1280,720,,,l,0.7757,1,502,2,1,3,15,4,1,0,1,0,0,0,0,1,0,circle,hexagon,,,,,,,,,,,,,,,,,,,,,,,,,,,,,,,,,,,,,,,,,,,,,,,,,,,,,,
292930,2022-12-05_20h31.05.881,vts_reward_expectancy_bt,2022.2.4,Win32,60.01680471,Chrome,1280,720,,,l,1.0076,10,512,2,1,4,16,7,1,0,0,1,0,0,1,0,0,hexagon,circle,,,,,,,,,,,,,,,,,,,,,,,,,,,,,,,,,,,,,,,,,,,,,,,,,,,,,,
292930,2022-12-05_20h31.05.881,vts_reward_expectancy_bt,2022.2.4,Win32,60.01680471,Chrome,1280,720,,,l,0.5999,10,522,2,1,5,17,8,1,0,0,1,0,0,0,0,1,hexagon,star,,,,,,,,,,,,,,,,,,,,,,,,,,,,,,,,,,,,,,,,,,,,,,,,,,,,,,
292930,2022-12-05_20h31.05.881,vts_reward_expectancy_bt,2022.2.4,Win32,60.01680471,Chrome,1280,720,,,a,1.4837,10,532,2,1,6,18,11,1,0,0,0,1,0,0,1,0,star,hexagon,,,,,,,,,,,,,,,,,,,,,,,,,,,,,,,,,,,,,,,,,,,,,,,,,,,,,,
292930,2022-12-05_20h31.05.881,vts_reward_expectancy_bt,2022.2.4,Win32,60.01680471,Chrome,1280,720,,,l,0.8789,10,542,2,1,7,19,6,1,0,0,1,0,1,0,0,0,hexagon,triangle,,,,,,,,,,,,,,,,,,,,,,,,,,,,,,,,,,,,,,,,,,,,,,,,,,,,,,
292930,2022-12-05_20h31.05.881,vts_reward_expectancy_bt,2022.2.4,Win32,60.01680471,Chrome,1280,720,,,a,0.8835,10,552,2,1,8,20,9,1,0,0,0,1,1,0,0,0,star,triangle,,,,,,,,,,,,,,,,,,,,,,,,,,,,,,,,,,,,,,,,,,,,,,,,,,,,,,
292930,2022-12-05_20h31.05.881,vts_reward_expectancy_bt,2022.2.4,Win32,60.01680471,Chrome,1280,720,,,a,0.911,10,562,2,1,9,21,10,1,0,0,0,1,0,1,0,0,star ,circle,,,,,,,,,,,,,,,,,,,,,,,,,,,,,,,,,,,,,,,,,,,,,,,,,,,,,,
292930,2022-12-05_20h31.05.881,vts_reward_expectancy_bt,2022.2.4,Win32,60.01680471,Chrome,1280,720,,,l,0.7092,1,563,2,1,10,22,3,1,0,1,0,0,1,0,0,0,circle,triangle,,,,,,,,,,,,,,,,,,,,,,,,,,,,,,,,,,,,,,,,,,,,,,,,,,,,,,
292930,2022-12-05_20h31.05.881,vts_reward_expectancy_bt,2022.2.4,Win32,60.01680471,Chrome,1280,720,,,l,0.892,1,564,2,1,11,23,1,1,1,0,0,0,0,0,1,0,triangle,hexagon,,,,,,,,,,,,,,,,,,,,,,,,,,,,,,,,,,,,,,,,,,,,,,,,,,,,,,
292930,2022-12-05_20h31.05.881,vts_reward_expectancy_bt,2022.2.4,Win32,60.01680471,Chrome,1280,720,,,l,0.6272,1,565,2,2,0,24,8,1,0,0,1,0,0,0,0,1,hexagon,star,,,,,,,,,,,,,,,,,,,,,,,,,,,,,,,,,,,,,,,,,,,,,,,,,,,,,,
292930,2022-12-05_20h31.05.881,vts_reward_expectancy_bt,2022.2.4,Win32,60.01680471,Chrome,1280,720,,,l,0.628,10,575,2,2,1,25,1,1,1,0,0,0,0,0,1,0,triangle,hexagon,,,,,,,,,,,,,,,,,,,,,,,,,,,,,,,,,,,,,,,,,,,,,,,,,,,,,,
292930,2022-12-05_20h31.05.881,vts_reward_expectancy_bt,2022.2.4,Win32,60.01680471,Chrome,1280,720,,,a,1.1731,1,576,2,2,2,26,0,1,1,0,0,0,0,1,0,0,triangle,circle,,,,,,,,,,,,,,,,,,,,,,,,,,,,,,,,,,,,,,,,,,,,,,,,,,,,,,
292930,2022-12-05_20h31.05.881,vts_reward_expectancy_bt,2022.2.4,Win32,60.01680471,Chrome,1280,720,,,l,0.8292,1,577,2,2,3,27,3,1,0,1,0,0,1,0,0,0,circle,triangle,,,,,,,,,,,,,,,,,,,,,,,,,,,,,,,,,,,,,,,,,,,,,,,,,,,,,,
292930,2022-12-05_20h31.05.881,vts_reward_expectancy_bt,2022.2.4,Win32,60.01680471,Chrome,1280,720,,,a,0.7115,10,587,2,2,4,28,9,1,0,0,0,1,1,0,0,0,star,triangle,,,,,,,,,,,,,,,,,,,,,,,,,,,,,,,,,,,,,,,,,,,,,,,,,,,,,,
292930,2022-12-05_20h31.05.881,vts_reward_expectancy_bt,2022.2.4,Win32,60.01680471,Chrome,1280,720,,,a,0.6337,1,588,2,2,5,29,6,1,0,0,1,0,1,0,0,0,hexagon,triangle,,,,,,,,,,,,,,,,,,,,,,,,,,,,,,,,,,,,,,,,,,,,,,,,,,,,,,
292930,2022-12-05_20h31.05.881,vts_reward_expectancy_bt,2022.2.4,Win32,60.01680471,Chrome,1280,720,,,a,0.8264,10,598,2,2,6,30,7,1,0,0,1,0,0,1,0,0,hexagon,circle,,,,,,,,,,,,,,,,,,,,,,,,,,,,,,,,,,,,,,,,,,,,,,,,,,,,,,
292930,2022-12-05_20h31.05.881,vts_reward_expectancy_bt,2022.2.4,Win32,60.01680471,Chrome,1280,720,,,l,0.8177,1,599,2,2,7,31,2,1,1,0,0,0,0,0,0,1,triangle,star,,,,,,,,,,,,,,,,,,,,,,,,,,,,,,,,,,,,,,,,,,,,,,,,,,,,,,
292930,2022-12-05_20h31.05.881,vts_reward_expectancy_bt,2022.2.4,Win32,60.01680471,Chrome,1280,720,,,l,0.8859,10,609,2,2,8,32,4,1,0,1,0,0,0,0,1,0,circle,hexagon,,,,,,,,,,,,,,,,,,,,,,,,,,,,,,,,,,,,,,,,,,,,,,,,,,,,,,
292930,2022-12-05_20h31.05.881,vts_reward_expectancy_bt,2022.2.4,Win32,60.01680471,Chrome,1280,720,,,l,0.6399,10,619,2,2,9,33,5,1,0,1,0,0,0,0,0,1,circle,star,,,,,,,,,,,,,,,,,,,,,,,,,,,,,,,,,,,,,,,,,,,,,,,,,,,,,,
292930,2022-12-05_20h31.05.881,vts_reward_expectancy_bt,2022.2.4,Win32,60.01680471,Chrome,1280,720,,,a,0.785,10,629,2,2,10,34,11,1,0,0,0,1,0,0,1,0,star,hexagon,,,,,,,,,,,,,,,,,,,,,,,,,,,,,,,,,,,,,,,,,,,,,,,,,,,,,,
292930,2022-12-05_20h31.05.881,vts_reward_expectancy_bt,2022.2.4,Win32,60.01680471,Chrome,1280,720,,,a,0.7253,10,639,2,2,11,35,10,1,0,0,0,1,0,1,0,0,star ,circle,,,,,,,,,,,,,,,,,,,,,,,,,,,,,,,,,,,,,,,,,,,,,,,,,,,,,,
292930,2022-12-05_20h31.05.881,vts_reward_expectancy_bt,2022.2.4,Win32,60.01680471,Chrome,1280,720,,,,,,,,,,,,,,,,,,,,,,,B,146,triangle,1,0,d,1.5997,0,0,0,0,0,1,,,,,,,,,,,,,,,,,,,,,,,,,,,,,,,,,,,,,,,,,
292930,2022-12-05_20h31.05.881,vts_reward_expectancy_bt,2022.2.4,Win32,60.01680471,Chrome,1280,720,,,,,,,,,,,,,,,,,,,,,,,H,160,star,1,0,d,0.5955,0,1,0,1,0,1,,,,,,,,,,,,,,,,,,,,,,,,,,,,,,,,,,,,,,,,,
292930,2022-12-05_20h31.05.881,vts_reward_expectancy_bt,2022.2.4,Win32,60.01680471,Chrome,1280,720,,,,,,,,,,,,,,,,,,,,,,,W,132,hexagon,1,0,f,0.4076,0,2,0,2,0,1,,,,,,,,,,,,,,,,,,,,,,,,,,,,,,,,,,,,,,,,,
292930,2022-12-05_20h31.05.881,vts_reward_expectancy_bt,2022.2.4,Win32,60.01680471,Chrome,1280,720,,,,,,,,,,,,,,,,,,,,,,,Y,181,circle,1,0,f,0.5019,0,3,0,3,0,1,,,,,,,,,,,,,,,,,,,,,,,,,,,,,,,,,,,,,,,,,
292930,2022-12-05_20h31.05.881,vts_reward_expectancy_bt,2022.2.4,Win32,60.01680471,Chrome,1280,720,,,,,,,,,,,,,,,,,,,,,,,F,139,triangle,1,0,d,0.5717,0,4,0,4,0,1,,,,,,,,,,,,,,,,,,,,,,,,,,,,,,,,,,,,,,,,,
292930,2022-12-05_20h31.05.881,vts_reward_expectancy_bt,2022.2.4,Win32,60.01680471,Chrome,1280,720,,,,,,,,,,,,,,,,,,,,,,,U,167,star,1,0,f,0.821,0,5,0,5,0,1,,,,,,,,,,,,,,,,,,,,,,,,,,,,,,,,,,,,,,,,,
292930,2022-12-05_20h31.05.881,vts_reward_expectancy_bt,2022.2.4,Win32,60.01680471,Chrome,1280,720,,,,,,,,,,,,,,,,,,,,,,,S,125,hexagon,1,0,f,0.6972,0,6,0,6,0,1,,,,,,,,,,,,,,,,,,,,,,,,,,,,,,,,,,,,,,,,,
292930,2022-12-05_20h31.05.881,vts_reward_expectancy_bt,2022.2.4,Win32,60.01680471,Chrome,1280,720,,,,,,,,,,,,,,,,,,,,,,,D,174,circle,1,0,d,0.7865,0,7,0,7,0,1,,,,,,,,,,,,,,,,,,,,,,,,,,,,,,,,,,,,,,,,,
292930,2022-12-05_20h31.05.881,vts_reward_expectancy_bt,2022.2.4,Win32,60.01680471,Chrome,1280,720,,,,,,,,,,,,,,,,,,,,,,,B,146,triangle,1,0,d,0.7481,0,8,0,8,0,1,,,,,,,,,,,,,,,,,,,,,,,,,,,,,,,,,,,,,,,,,
292930,2022-12-05_20h31.05.881,vts_reward_expectancy_bt,2022.2.4,Win32,60.01680471,Chrome,1280,720,,,,,,,,,,,,,,,,,,,,,,,H,160,star,1,0,d,0.7257,0,9,0,9,0,1,,,,,,,,,,,,,,,,,,,,,,,,,,,,,,,,,,,,,,,,,
292930,2022-12-05_20h31.05.881,vts_reward_expectancy_bt,2022.2.4,Win32,60.01680471,Chrome,1280,720,,,,,,,,,,,,,,,,,,,,,,,B,181,triangle,1,0,,,1,,,,,,k,0.7521,0,0,0,0,1,,,,,,,,,,,,,,,,,,,,,,,,,,,,,,,,,,
292930,2022-12-05_20h31.05.881,vts_reward_expectancy_bt,2022.2.4,Win32,60.01680471,Chrome,1280,720,,,,,,,,,,,,,,,,,,,,,,,D,146,circle,0,0,,,1,,,,,,k,0.5152,1,0,1,0,1,,,,,,,,,,,,,,,,,,,,,,,,,,,,,,,,,,
292930,2022-12-05_20h31.05.881,vts_reward_expectancy_bt,2022.2.4,Win32,60.01680471,Chrome,1280,720,,,,,,,,,,,,,,,,,,,,,,,W,174,star,1,1,,,1,,,,,,k,1.0313,2,0,2,0,1,,,,,,,,,,,,,,,,,,,,,,,,,,,,,,,,,,
292930,2022-12-05_20h31.05.881,vts_reward_expectancy_bt,2022.2.4,Win32,60.01680471,Chrome,1280,720,,,,,,,,,,,,,,,,,,,,,,,Y,160,hexagon,1,0,,,1,,,,,,k,1.0079,3,0,3,0,1,,,,,,,,,,,,,,,,,,,,,,,,,,,,,,,,,,
292930,2022-12-05_20h31.05.881,vts_reward_expectancy_bt,2022.2.4,Win32,60.01680471,Chrome,1280,720,,,,,,,,,,,,,,,,,,,,,,,H,167,triangle,1,0,,,1,,,,,,k,0.8362,4,0,4,0,1,,,,,,,,,,,,,,,,,,,,,,,,,,,,,,,,,,
292930,2022-12-05_20h31.05.881,vts_reward_expectancy_bt,2022.2.4,Win32,60.01680471,Chrome,1280,720,,,,,,,,,,,,,,,,,,,,,,,U,132,circle,1,0,,,1,,,,,,j,0.7187,5,0,5,0,1,,,,,,,,,,,,,,,,,,,,,,,,,,,,,,,,,,
292930,2022-12-05_20h31.05.881,vts_reward_expectancy_bt,2022.2.4,Win32,60.01680471,Chrome,1280,720,,,,,,,,,,,,,,,,,,,,,,,S,139,star,1,0,,,1,,,,,,j,0.6978,6,0,6,0,1,,,,,,,,,,,,,,,,,,,,,,,,,,,,,,,,,,
292930,2022-12-05_20h31.05.881,vts_reward_expectancy_bt,2022.2.4,Win32,60.01680471,Chrome,1280,720,,,,,,,,,,,,,,,,,,,,,,,F,125,hexagon,1,0,,,1,,,,,,j,0.5263,7,0,7,0,1,,,,,,,,,,,,,,,,,,,,,,,,,,,,,,,,,,
292930,2022-12-05_20h31.05.881,vts_reward_expectancy_bt,2022.2.4,Win32,60.01680471,Chrome,1280,720,,,,,,,,,,,,,,,,,,,,,,,B,181,triangle,1,0,,,1,,,,,,k,0.6033,8,0,8,0,1,,,,,,,,,,,,,,,,,,,,,,,,,,,,,,,,,,
292930,2022-12-05_20h31.05.881,vts_reward_expectancy_bt,2022.2.4,Win32,60.01680471,Chrome,1280,720,,,,,,,,,,,,,,,,,,,,,,,D,146,hexagon,1,0,,,1,,,,,,j,0.995,9,0,9,0,1,,,,,,,,,,,,,,,,,,,,,,,,,,,,,,,,,,
292930,2022-12-05_20h31.05.881,vts_reward_expectancy_bt,2022.2.4,Win32,60.01680471,Chrome,1280,720,,,,,0,639,,,,,,,,,,,,,,,,,D,174,triangle,1,0,,,2,,,,,,,,,,,,,-1,letter,NA,d,2.0038,vtsPrac,0,0,0,0,1,,,,,,,,,,,,,,,,,,,,,,,
292930,2022-12-05_20h31.05.881,vts_reward_expectancy_bt,2022.2.4,Win32,60.01680471,Chrome,1280,720,,,,,0,639,,,,,,,,,,,,,,,,,Y,146,star,0,0,,,2,,,,,,,,,,,,,repeat,letter,NA,d,0.8307,vtsPrac,1,0,1,0,1,,,,,,,,,,,,,,,,,,,,,,,
292930,2022-12-05_20h31.05.881,vts_reward_expectancy_bt,2022.2.4,Win32,60.01680471,Chrome,1280,720,,,,,0,639,,,,,,,,,,,,,,,,,S,160,triangle,1,1,,,2,,,,,,,,,,,,,repeat,letter,lettRpt,f,0.9022,vtsPrac,2,0,2,0,1,,,,,,,,,,,,,,,,,,,,,,,
292930,2022-12-05_20h31.05.881,vts_reward_expectancy_bt,2022.2.4,Win32,60.01680471,Chrome,1280,720,,,,,0,639,,,,,,,,,,,,,,,,,U,132,star,0,0,,,2,,,,,,,,,,,,,switch,number,NA,k,0.6996,vtsPrac,3,0,3,0,1,,,,,,,,,,,,,,,,,,,,,,,
292930,2022-12-05_20h31.05.881,vts_reward_expectancy_bt,2022.2.4,Win32,60.01680471,Chrome,1280,720,,,,,0,639,,,,,,,,,,,,,,,,,D,174,star,1,1,,,2,,,,,,,,,,,,,repeat,number,numRpt,k,2.4644,vtsPrac,4,0,4,0,1,,,,,,,,,,,,,,,,,,,,,,,
292930,2022-12-05_20h31.05.881,vts_reward_expectancy_bt,2022.2.4,Win32,60.01680471,Chrome,1280,720,,,,,0,639,,,,,,,,,,,,,,,,,Y,146,circle,1,0,,,2,,,,,,,,,,,,,switch,letter,lettSwt,f,0.8336,vtsPrac,5,0,5,0,1,,,,,,,,,,,,,,,,,,,,,,,
292930,2022-12-05_20h31.05.881,vts_reward_expectancy_bt,2022.2.4,Win32,60.01680471,Chrome,1280,720,,,,,0,639,,,,,,,,,,,,,,,,,S,160,hexagon,1,0,,,2,,,,,,,,,,,,,switch,number,numSwt,k,0.8667,vtsPrac,6,0,6,0,1,,,,,,,,,,,,,,,,,,,,,,,
292930,2022-12-05_20h31.05.881,vts_reward_expectancy_bt,2022.2.4,Win32,60.01680471,Chrome,1280,720,,,,,0,639,,,,,,,,,,,,,,,,,U,132,triangle,1,0,,,2,,,,,,,,,,,,,repeat,number,numRpt,j,1.0531,vtsPrac,7,0,7,0,1,,,,,,,,,,,,,,,,,,,,,,,
292930,2022-12-05_20h31.05.881,vts_reward_expectancy_bt,2022.2.4,Win32,60.01680471,Chrome,1280,720,,,,,0,639,,,,,,,,,,,,,,,,,W,139,circle,1,0,,,2,,,,,,,,,,,,,switch,letter,lettSwt,f,0.6151,vtsPrac,8,0,8,0,1,,,,,,,,,,,,,,,,,,,,,,,
292930,2022-12-05_20h31.05.881,vts_reward_expectancy_bt,2022.2.4,Win32,60.01680471,Chrome,1280,720,,,,,0,639,,,,,,,,,,,,,,,,,U,146,hexagon,0,0,,,2,,,,,,,,,,,,,repeat,letter,NA,d,1.232,vtsPrac,9,0,9,0,1,,,,,,,,,,,,,,,,,,,,,,,
292930,2022-12-05_20h31.05.881,vts_reward_expectancy_bt,2022.2.4,Win32,60.01680471,Chrome,1280,720,,,,,0,639,,,,,,,,,,,,,,,,,F,174,star,1,1,,,2,,,,,,,,,,,,,repeat,letter,lettRpt,d,1.0321,vtsPrac,10,0,10,0,1,,,,,,,,,,,,,,,,,,,,,,,
292930,2022-12-05_20h31.05.881,vts_reward_expectancy_bt,2022.2.4,Win32,60.01680471,Chrome,1280,720,,,,,0,639,,,,,,,,,,,,,,,,,Y,181,circle,1,0,,,2,,,,,,,,,,,,,repeat,letter,lettRpt,f,0.7809,vtsPrac,11,0,11,0,1,,,,,,,,,,,,,,,,,,,,,,,
292930,2022-12-05_20h31.05.881,vts_reward_expectancy_bt,2022.2.4,Win32,60.01680471,Chrome,1280,720,,,,,0,639,,,,,,,,,,,,,,,,,Y,132,circle,1,0,,,2,,,,,,,,,,,,,switch,number,numSwt,j,0.8285,vtsPrac,12,0,12,0,1,,,,,,,,,,,,,,,,,,,,,,,
292930,2022-12-05_20h31.05.881,vts_reward_expectancy_bt,2022.2.4,Win32,60.01680471,Chrome,1280,720,,,,,0,639,,,,,,,,,,,,,,,,,W,181,hexagon,1,0,,,2,,,,,,,,,,,,,switch,letter,lettSwt,f,1.5164,vtsPrac,13,0,13,0,1,,,,,,,,,,,,,,,,,,,,,,,
292930,2022-12-05_20h31.05.881,vts_reward_expectancy_bt,2022.2.4,Win32,60.01680471,Chrome,1280,720,,,,,0,639,,,,,,,,,,,,,,,,,H,139,star,1,0,,,2,,,,,,,,,,,,,switch,number,numSwt,j,1.8708,vtsPrac,14,0,14,0,1,,,,,,,,,,,,,,,,,,,,,,,
292930,2022-12-05_20h31.05.881,vts_reward_expectancy_bt,2022.2.4,Win32,60.01680471,Chrome,1280,720,,,,,0,639,,,,,,,,,,,,,,,,,D,146,triangle,1,0,,,2,,,,,,,,,,,,,repeat,number,numRpt,j,1.1519,vtsPrac,15,0,15,0,1,,,,,,,,,,,,,,,,,,,,,,,
292930,2022-12-05_20h31.05.881,vts_reward_expectancy_bt,2022.2.4,Win32,60.01680471,Chrome,1280,720,,,,,0,639,,,,,,,,,,,,,,,,,U,139,star,1,0,,,2,,,,,,,,,,,,,switch,letter,lettSwt,f,1.0195,vtsPrac,16,0,16,0,1,,,,,,,,,,,,,,,,,,,,,,,
292930,2022-12-05_20h31.05.881,vts_reward_expectancy_bt,2022.2.4,Win32,60.01680471,Chrome,1280,720,,,,,0,639,,,,,,,,,,,,,,,,,D,167,hexagon,1,0,,,2,,,,,,,,,,,,,switch,number,numSwt,k,0.7853,vtsPrac,17,0,17,0,1,,,,,,,,,,,,,,,,,,,,,,,
292930,2022-12-05_20h31.05.881,vts_reward_expectancy_bt,2022.2.4,Win32,60.01680471,Chrome,1280,720,,,,,0,639,,,,,,,,,,,,,,,,,B,132,circle,1,0,,,2,,,,,,,,,,,,,switch,letter,lettSwt,d,0.8983,vtsPrac,18,0,18,0,1,,,,,,,,,,,,,,,,,,,,,,,
292930,2022-12-05_20h31.05.881,vts_reward_expectancy_bt,2022.2.4,Win32,60.01680471,Chrome,1280,720,,,,,0,639,,,,,,,,,,,,,,,,,W,160,triangle,1,0,,,2,,,,,,,,,,,,,switch,number,numSwt,k,1.3994,vtsPrac,19,0,19,0,1,,,,,,,,,,,,,,,,,,,,,,,
292930,2022-12-05_20h31.05.881,vts_reward_expectancy_bt,2022.2.4,Win32,60.01680471,Chrome,1280,720,,,,,0,639,,,,,,,,,,,,,,,,,B,125,hexagon,1,0,,,2,,,,,,,,,,,,,repeat,number,numRpt,j,1.0909,vtsPrac,20,0,20,0,1,,,,,,,,,,,,,,,,,,,,,,,
292930,2022-12-05_20h31.05.881,vts_reward_expectancy_bt,2022.2.4,Win32,60.01680471,Chrome,1280,720,,,,,0,639,,,,,,,,,,,,,,,,,U,181,star,1,0,,,2,,,,,,,,,,,,,switch,letter,lettSwt,f,0.7108,vtsPrac,21,0,21,0,1,,,,,,,,,,,,,,,,,,,,,,,
292930,2022-12-05_20h31.05.881,vts_reward_expectancy_bt,2022.2.4,Win32,60.01680471,Chrome,1280,720,,,,,0,639,,,,,,,,,,,,,,,,,Y,167,star,1,0,,,2,,,,,,,,,,,,,repeat,letter,lettRpt,f,1.3815,vtsPrac,22,0,22,0,1,,,,,,,,,,,,,,,,,,,,,,,
292930,2022-12-05_20h31.05.881,vts_reward_expectancy_bt,2022.2.4,Win32,60.01680471,Chrome,1280,720,,,,,0,639,,,,,,,,,,,,,,,,,F,146,triangle,1,0,,,2,,,,,,,,,,,,,switch,number,numSwt,j,1.1153,vtsPrac,23,0,23,0,1,,,,,,,,,,,,,,,,,,,,,,,
292930,2022-12-05_20h31.05.881,vts_reward_expectancy_bt,2022.2.4,Win32,60.01680471,Chrome,1280,720,,,,,0,639,,,,,,,,,,,,,,,,,U,167,circle,1,0,,,2,,,,,,,,,,,,,switch,letter,lettSwt,f,0.7243,vtsPrac,24,0,24,0,1,,,,,,,,,,,,,,,,,,,,,,,
292930,2022-12-05_20h31.05.881,vts_reward_expectancy_bt,2022.2.4,Win32,60.01680471,Chrome,1280,720,,,,,0,639,,,,,,,,,,,,,,,,,W,146,star,1,0,,,2,,,,,,,,,,,,,switch,number,numSwt,j,0.6767,vtsPrac,25,0,25,0,1,,,,,,,,,,,,,,,,,,,,,,,
292930,2022-12-05_20h31.05.881,vts_reward_expectancy_bt,2022.2.4,Win32,60.01680471,Chrome,1280,720,,,,,0,639,,,,,,,,,,,,,,,,,Y,160,star,1,0,,,2,,,,,,,,,,,,,repeat,number,numRpt,k,1.5394,vtsPrac,26,0,26,0,1,,,,,,,,,,,,,,,,,,,,,,,
292930,2022-12-05_20h31.05.881,vts_reward_expectancy_bt,2022.2.4,Win32,60.01680471,Chrome,1280,720,,,,,0,639,,,,,,,,,,,,,,,,,S,174,hexagon,1,0,,,2,,,,,,,,,,,,,switch,letter,lettSwt,f,1.2932,vtsPrac,27,0,27,0,1,,,,,,,,,,,,,,,,,,,,,,,
292930,2022-12-05_20h31.05.881,vts_reward_expectancy_bt,2022.2.4,Win32,60.01680471,Chrome,1280,720,,,,,0,639,,,,,,,,,,,,,,,,,D,174,circle,1,0,,,2,,,,,,,,,,,,,switch,number,numSwt,k,1.3795,vtsPrac,28,0,28,0,1,,,,,,,,,,,,,,,,,,,,,,,
292930,2022-12-05_20h31.05.881,vts_reward_expectancy_bt,2022.2.4,Win32,60.01680471,Chrome,1280,720,,,,,0,639,,,,,,,,,,,,,,,,,U,139,hexagon,1,0,,,2,,,,,,,,,,,,,switch,letter,lettSwt,f,0.7857,vtsPrac,29,0,29,0,1,,,,,,,,,,,,,,,,,,,,,,,
292930,2022-12-05_20h31.05.881,vts_reward_expectancy_bt,2022.2.4,Win32,60.01680471,Chrome,1280,720,,,,,0,639,,,,,,,,,,,,,,,,,S,167,hexagon,1,0,,,2,,,,,,,,,,,,,switch,number,numSwt,k,1.2374,vtsPrac,30,0,30,0,1,,,,,,,,,,,,,,,,,,,,,,,
292930,2022-12-05_20h31.05.881,vts_reward_expectancy_bt,2022.2.4,Win32,60.01680471,Chrome,1280,720,,,,,0,639,,,,,,,,,,,,,,,,,H,132,triangle,1,0,,,2,,,,,,,,,,,,,repeat,number,numRpt,j,1.2023,vtsPrac,31,0,31,0,1,,,,,,,,,,,,,,,,,,,,,,,
292930,2022-12-05_20h31.05.881,vts_reward_expectancy_bt,2022.2.4,Win32,60.01680471,Chrome,1280,720,,,,,,,,,,,,,,,,,,,,,,,,,,,,,,,,,,,,,,,,,,,,,,,,,,,,,,,,,,,,,,,,,,,,,,,,,,,,
292930,2022-12-05_20h31.05.881,vts_reward_expectancy_bt,2022.2.4,Win32,60.01680471,Chrome,1280,720,,,,,,,,,,,,,,,,,,,,,,,,,,,,,,,,,,,,,,,,,,,,,,,,,,,,,,,,,,,,,,,,,,,,,,,,,,,,
292930,2022-12-05_20h31.05.881,vts_reward_expectancy_bt,2022.2.4,Win32,60.01680471,Chrome,1280,720,,,,,0,639,,,,,,,,,,,,,,,,,B,132,star,1,0,,,,,,,,,,,,,,,,repeat,number,numRpt,j,0.8646,noRew,,,,,,0,0,0,0,0,1,,,,,,,,,,,,,,,,,
292930,2022-12-05_20h31.05.881,vts_reward_expectancy_bt,2022.2.4,Win32,60.01680471,Chrome,1280,720,,,,,0,639,,,,,,,,,,,,,,,,,S,167,hexagon,1,0,,,,,,,,,,,,,,,,repeat,number,numRpt,k,0.9333,noRew,,,,,,0,1,0,1,0,1,,,,,,,,,,,,,,,,,
292930,2022-12-05_20h31.05.881,vts_reward_expectancy_bt,2022.2.4,Win32,60.01680471,Chrome,1280,720,,,,,0,639,,,,,,,,,,,,,,,,,W,146,star,1,0,,,,,,,,,,,,,,,,switch,letter,lettSwt,f,0.6094,noRew,,,,,,0,2,0,2,0,1,,,,,,,,,,,,,,,,,
292930,2022-12-05_20h31.05.881,vts_reward_expectancy_bt,2022.2.4,Win32,60.01680471,Chrome,1280,720,,,,,0,639,,,,,,,,,,,,,,,,,U,125,hexagon,1,0,,,,,,,,,,,,,,,,switch,number,numSwt,j,0.8655,noRew,,,,,,0,3,0,3,0,1,,,,,,,,,,,,,,,,,
292930,2022-12-05_20h31.05.881,vts_reward_expectancy_bt,2022.2.4,Win32,60.01680471,Chrome,1280,720,,,,,0,639,,,,,,,,,,,,,,,,,B,132,triangle,1,0,,,,,,,,,,,,,,,,switch,letter,lettSwt,d,0.9677,noRew,,,,,,0,4,0,4,0,1,,,,,,,,,,,,,,,,,
292930,2022-12-05_20h31.05.881,vts_reward_expectancy_bt,2022.2.4,Win32,60.01680471,Chrome,1280,720,,,,,0,639,,,,,,,,,,,,,,,,,S,167,star,1,0,,,,,,,,,,,,,,,,repeat,letter,lettRpt,f,1.0724,noRew,,,,,,0,5,0,5,0,1,,,,,,,,,,,,,,,,,
292930,2022-12-05_20h31.05.881,vts_reward_expectancy_bt,2022.2.4,Win32,60.01680471,Chrome,1280,720,,,,,0,639,,,,,,,,,,,,,,,,,W,146,star,1,0,,,,,,,,,,,,,,,,repeat,letter,lettRpt,f,1.1494,noRew,,,,,,0,6,0,6,0,1,,,,,,,,,,,,,,,,,
292930,2022-12-05_20h31.05.881,vts_reward_expectancy_bt,2022.2.4,Win32,60.01680471,Chrome,1280,720,,,,,0,639,,,,,,,,,,,,,,,,,U,125,circle,1,0,,,,,,,,,,,,,,,,switch,number,numSwt,j,0.6952,noRew,,,,,,0,7,0,7,0,1,,,,,,,,,,,,,,,,,
292930,2022-12-05_20h31.05.881,vts_reward_expectancy_bt,2022.2.4,Win32,60.01680471,Chrome,1280,720,,,,,0,639,,,,,,,,,,,,,,,,,U,139,circle,1,0,,,,,,,,,,,,,,,,repeat,number,numRpt,j,0.9012,noRew,,,,,,0,8,0,8,0,1,,,,,,,,,,,,,,,,,
292930,2022-12-05_20h31.05.881,vts_reward_expectancy_bt,2022.2.4,Win32,60.01680471,Chrome,1280,720,,,,,0,639,,,,,,,,,,,,,,,,,D,160,star,1,0,,,,,,,,,,,,,,,,switch,letter,lettSwt,d,1.7056,noRew,,,,,,0,9,0,9,0,1,,,,,,,,,,,,,,,,,
292930,2022-12-05_20h31.05.881,vts_reward_expectancy_bt,2022.2.4,Win32,60.01680471,Chrome,1280,720,,,,,0,639,,,,,,,,,,,,,,,,,B,125,hexagon,1,0,,,,,,,,,,,,,,,,repeat,letter,lettRpt,d,1.1317,noRew,,,,,,0,10,0,10,0,1,,,,,,,,,,,,,,,,,
292930,2022-12-05_20h31.05.881,vts_reward_expectancy_bt,2022.2.4,Win32,60.01680471,Chrome,1280,720,,,,,0,639,,,,,,,,,,,,,,,,,W,174,star,1,0,,,,,,,,,,,,,,,,switch,number,numSwt,k,1.6855,noRew,,,,,,0,11,0,11,0,1,,,,,,,,,,,,,,,,,
292930,2022-12-05_20h31.05.881,vts_reward_expectancy_bt,2022.2.4,Win32,60.01680471,Chrome,1280,720,,,,,0,639,,,,,,,,,,,,,,,,,H,174,circle,1,0,,,,,,,,,,,,,,,,repeat,number,numRpt,k,1.3585,noRew,,,,,,0,12,0,12,0,1,,,,,,,,,,,,,,,,,
292930,2022-12-05_20h31.05.881,vts_reward_expectancy_bt,2022.2.4,Win32,60.01680471,Chrome,1280,720,,,,,0,639,,,,,,,,,,,,,,,,,D,139,hexagon,1,0,,,,,,,,,,,,,,,,switch,letter,lettSwt,d,1.2311,noRew,,,,,,0,13,0,13,0,1,,,,,,,,,,,,,,,,,
292930,2022-12-05_20h31.05.881,vts_reward_expectancy_bt,2022.2.4,Win32,60.01680471,Chrome,1280,720,,,,,0,639,,,,,,,,,,,,,,,,,W,125,triangle,1,0,,,,,,,,,,,,,,,,repeat,letter,lettRpt,f,1.3,noRew,,,,,,0,14,0,14,0,1,,,,,,,,,,,,,,,,,
292930,2022-12-05_20h31.05.881,vts_reward_expectancy_bt,2022.2.4,Win32,60.01680471,Chrome,1280,720,,,,,0,639,,,,,,,,,,,,,,,,,S,160,star,1,0,,,,,,,,,,,,,,,,switch,number,numSwt,k,1.9706,noRew,,,,,,0,15,0,15,0,1,,,,,,,,,,,,,,,,,
292930,2022-12-05_20h31.05.881,vts_reward_expectancy_bt,2022.2.4,Win32,60.01680471,Chrome,1280,720,,,,,0,639,,,,,,,,,,,,,,,,,W,132,circle,1,0,,,,,,,,,,,,,,,,repeat,number,numRpt,j,1.0669,noRew,,,,,,0,16,0,16,0,1,,,,,,,,,,,,,,,,,
292930,2022-12-05_20h31.05.881,vts_reward_expectancy_bt,2022.2.4,Win32,60.01680471,Chrome,1280,720,,,,,0,639,,,,,,,,,,,,,,,,,F,125,hexagon,1,0,,,,,,,,,,,,,,,,repeat,number,numRpt,j,0.7583,noRew,,,,,,0,17,0,17,0,1,,,,,,,,,,,,,,,,,
292930,2022-12-05_20h31.05.881,vts_reward_expectancy_bt,2022.2.4,Win32,60.01680471,Chrome,1280,720,,,,,0,639,,,,,,,,,,,,,,,,,D,181,star,1,0,,,,,,,,,,,,,,,,switch,letter,lettSwt,d,0.9541,noRew,,,,,,0,18,0,18,0,1,,,,,,,,,,,,,,,,,
292930,2022-12-05_20h31.05.881,vts_reward_expectancy_bt,2022.2.4,Win32,60.01680471,Chrome,1280,720,,,,,0,639,,,,,,,,,,,,,,,,,B,160,circle,1,0,,,,,,,,,,,,,,,,switch,number,numSwt,k,1.3504,noRew,,,,,,0,19,0,19,0,1,,,,,,,,,,,,,,,,,
292930,2022-12-05_20h31.05.881,vts_reward_expectancy_bt,2022.2.4,Win32,60.01680471,Chrome,1280,720,,,,,0,639,,,,,,,,,,,,,,,,,W,167,circle,1,0,,,,,,,,,,,,,,,,switch,letter,lettSwt,f,1.117,noRew,,,,,,0,20,0,20,0,1,,,,,,,,,,,,,,,,,
292930,2022-12-05_20h31.05.881,vts_reward_expectancy_bt,2022.2.4,Win32,60.01680471,Chrome,1280,720,,,,,0,639,,,,,,,,,,,,,,,,,U,181,triangle,1,0,,,,,,,,,,,,,,,,repeat,letter,lettRpt,f,0.717,noRew,,,,,,0,21,0,21,0,1,,,,,,,,,,,,,,,,,
292930,2022-12-05_20h31.05.881,vts_reward_expectancy_bt,2022.2.4,Win32,60.01680471,Chrome,1280,720,,,,,0,639,,,,,,,,,,,,,,,,,F,146,hexagon,1,0,,,,,,,,,,,,,,,,repeat,letter,lettRpt,d,0.965,noRew,,,,,,0,22,0,22,0,1,,,,,,,,,,,,,,,,,
292930,2022-12-05_20h31.05.881,vts_reward_expectancy_bt,2022.2.4,Win32,60.01680471,Chrome,1280,720,,,,,0,639,,,,,,,,,,,,,,,,,H,139,triangle,1,0,,,,,,,,,,,,,,,,switch,number,numSwt,j,0.8172,noRew,,,,,,0,23,0,23,0,1,,,,,,,,,,,,,,,,,
292930,2022-12-05_20h31.05.881,vts_reward_expectancy_bt,2022.2.4,Win32,60.01680471,Chrome,1280,720,,,,,0,639,,,,,,,,,,,,,,,,,F,125,star,1,0,,,,,,,,,,,,,,,,switch,letter,lettSwt,d,1.4883,noRew,,,,,,0,24,0,24,0,1,,,,,,,,,,,,,,,,,
292930,2022-12-05_20h31.05.881,vts_reward_expectancy_bt,2022.2.4,Win32,60.01680471,Chrome,1280,720,,,,,0,639,,,,,,,,,,,,,,,,,Y,181,circle,1,0,,,,,,,,,,,,,,,,switch,number,numSwt,k,1.5285,noRew,,,,,,0,25,0,25,0,1,,,,,,,,,,,,,,,,,
292930,2022-12-05_20h31.05.881,vts_reward_expectancy_bt,2022.2.4,Win32,60.01680471,Chrome,1280,720,,,,,0,639,,,,,,,,,,,,,,,,,B,167,triangle,1,0,,,,,,,,,,,,,,,,repeat,number,numRpt,k,0.9576,noRew,,,,,,0,26,0,26,0,1,,,,,,,,,,,,,,,,,
292930,2022-12-05_20h31.05.881,vts_reward_expectancy_bt,2022.2.4,Win32,60.01680471,Chrome,1280,720,,,,,0,639,,,,,,,,,,,,,,,,,D,174,star,1,0,,,,,,,,,,,,,,,,switch,letter,lettSwt,d,1.0782,noRew,,,,,,0,27,0,27,0,1,,,,,,,,,,,,,,,,,
292930,2022-12-05_20h31.05.881,vts_reward_expectancy_bt,2022.2.4,Win32,60.01680471,Chrome,1280,720,,,,,0,639,,,,,,,,,,,,,,,,,H,125,circle,1,0,,,,,,,,,,,,,,,,switch,number,numSwt,j,1.836,noRew,,,,,,0,28,0,28,0,1,,,,,,,,,,,,,,,,,
292930,2022-12-05_20h31.05.881,vts_reward_expectancy_bt,2022.2.4,Win32,60.01680471,Chrome,1280,720,,,,,0,639,,,,,,,,,,,,,,,,,S,160,triangle,1,0,,,,,,,,,,,,,,,,repeat,number,numRpt,k,0.9572,noRew,,,,,,0,29,0,29,0,1,,,,,,,,,,,,,,,,,
292930,2022-12-05_20h31.05.881,vts_reward_expectancy_bt,2022.2.4,Win32,60.01680471,Chrome,1280,720,,,,,0,639,,,,,,,,,,,,,,,,,Y,167,triangle,1,0,,,,,,,,,,,,,,,,switch,letter,lettSwt,f,1.1351,noRew,,,,,,0,30,0,30,0,1,,,,,,,,,,,,,,,,,
292930,2022-12-05_20h31.05.881,vts_reward_expectancy_bt,2022.2.4,Win32,60.01680471,Chrome,1280,720,,,,,0,639,,,,,,,,,,,,,,,,,B,132,star,1,0,,,,,,,,,,,,,,,,switch,number,numSwt,j,0.9664,noRew,,,,,,0,31,0,31,0,1,,,,,,,,,,,,,,,,,
292930,2022-12-05_20h31.05.881,vts_reward_expectancy_bt,2022.2.4,Win32,60.01680471,Chrome,1280,720,,,,,0,639,,,,,,,,,,,,,,,,,D,146,hexagon,1,0,,,,,,,,,,,,,,,,switch,letter,lettSwt,d,0.7371,noRew,,,,,,0,32,0,32,0,1,,,,,,,,,,,,,,,,,
292930,2022-12-05_20h31.05.881,vts_reward_expectancy_bt,2022.2.4,Win32,60.01680471,Chrome,1280,720,,,,,0,639,,,,,,,,,,,,,,,,,Y,181,circle,1,0,,,,,,,,,,,,,,,,repeat,letter,lettRpt,f,0.8312,noRew,,,,,,0,33,0,33,0,1,,,,,,,,,,,,,,,,,
292930,2022-12-05_20h31.05.881,vts_reward_expectancy_bt,2022.2.4,Win32,60.01680471,Chrome,1280,720,,,,,0,639,,,,,,,,,,,,,,,,,F,125,triangle,1,0,,,,,,,,,,,,,,,,repeat,letter,lettRpt,d,0.8362,noRew,,,,,,0,34,0,34,0,1,,,,,,,,,,,,,,,,,
292930,2022-12-05_20h31.05.881,vts_reward_expectancy_bt,2022.2.4,Win32,60.01680471,Chrome,1280,720,,,,,0,639,,,,,,,,,,,,,,,,,U,174,star,1,0,,,,,,,,,,,,,,,,switch,number,numSwt,k,1.132,noRew,,,,,,0,35,0,35,0,1,,,,,,,,,,,,,,,,,
292930,2022-12-05_20h31.05.881,vts_reward_expectancy_bt,2022.2.4,Win32,60.01680471,Chrome,1280,720,,,,,0,639,,,,,,,,,,,,,,,,,H,160,hexagon,1,0,,,,,,,,,,,,,,,,repeat,number,numRpt,k,1.1157,noRew,,,,,,0,36,0,36,0,1,,,,,,,,,,,,,,,,,
292930,2022-12-05_20h31.05.881,vts_reward_expectancy_bt,2022.2.4,Win32,60.01680471,Chrome,1280,720,,,,,0,639,,,,,,,,,,,,,,,,,U,132,star,1,0,,,,,,,,,,,,,,,,switch,letter,lettSwt,f,0.7199,noRew,,,,,,0,37,0,37,0,1,,,,,,,,,,,,,,,,,
292930,2022-12-05_20h31.05.881,vts_reward_expectancy_bt,2022.2.4,Win32,60.01680471,Chrome,1280,720,,,,,0,639,,,,,,,,,,,,,,,,,S,125,hexagon,1,0,,,,,,,,,,,,,,,,repeat,letter,lettRpt,f,0.7759,noRew,,,,,,0,38,0,38,0,1,,,,,,,,,,,,,,,,,
292930,2022-12-05_20h31.05.881,vts_reward_expectancy_bt,2022.2.4,Win32,60.01680471,Chrome,1280,720,,,,,0,639,,,,,,,,,,,,,,,,,F,146,triangle,1,0,,,,,,,,,,,,,,,,repeat,letter,lettRpt,d,0.8814,noRew,,,,,,0,39,0,39,0,1,,,,,,,,,,,,,,,,,
292930,2022-12-05_20h31.05.881,vts_reward_expectancy_bt,2022.2.4,Win32,60.01680471,Chrome,1280,720,,,,,0,639,,,,,,,,,,,,,,,,,S,146,hexagon,1,0,,,,,,,,,,,,,,,,switch,number,numSwt,j,1.3438,noRew,,,,,,0,40,0,40,0,1,,,,,,,,,,,,,,,,,
292930,2022-12-05_20h31.05.881,vts_reward_expectancy_bt,2022.2.4,Win32,60.01680471,Chrome,1280,720,,,,,0,639,,,,,,,,,,,,,,,,,Y,181,triangle,1,0,,,,,,,,,,,,,,,,repeat,number,numRpt,k,0.8175,noRew,,,,,,0,41,0,41,0,1,,,,,,,,,,,,,,,,,
292930,2022-12-05_20h31.05.881,vts_reward_expectancy_bt,2022.2.4,Win32,60.01680471,Chrome,1280,720,,,,,0,639,,,,,,,,,,,,,,,,,H,174,star,1,0,,,,,,,,,,,,,,,,switch,letter,lettSwt,d,0.9446,noRew,,,,,,0,42,0,42,0,1,,,,,,,,,,,,,,,,,
292930,2022-12-05_20h31.05.881,vts_reward_expectancy_bt,2022.2.4,Win32,60.01680471,Chrome,1280,720,,,,,0,639,,,,,,,,,,,,,,,,,D,132,circle,1,0,,,,,,,,,,,,,,,,repeat,letter,lettRpt,d,0.7531,noRew,,,,,,0,43,0,43,0,1,,,,,,,,,,,,,,,,,
292930,2022-12-05_20h31.05.881,vts_reward_expectancy_bt,2022.2.4,Win32,60.01680471,Chrome,1280,720,,,,,0,639,,,,,,,,,,,,,,,,,H,174,circle,1,0,,,,,,,,,,,,,,,,switch,number,numSwt,k,1.2699,noRew,,,,,,0,44,0,44,0,1,,,,,,,,,,,,,,,,,
292930,2022-12-05_20h31.05.881,vts_reward_expectancy_bt,2022.2.4,Win32,60.01680471,Chrome,1280,720,,,,,0,639,,,,,,,,,,,,,,,,,S,146,hexagon,1,0,,,,,,,,,,,,,,,,switch,letter,lettSwt,f,1.5337,noRew,,,,,,0,45,0,45,0,1,,,,,,,,,,,,,,,,,
292930,2022-12-05_20h31.05.881,vts_reward_expectancy_bt,2022.2.4,Win32,60.01680471,Chrome,1280,720,,,,,0,639,,,,,,,,,,,,,,,,,Y,139,hexagon,1,0,,,,,,,,,,,,,,,,switch,number,numSwt,j,1.973,noRew,,,,,,0,46,0,46,0,1,,,,,,,,,,,,,,,,,
292930,2022-12-05_20h31.05.881,vts_reward_expectancy_bt,2022.2.4,Win32,60.01680471,Chrome,1280,720,,,,,0,639,,,,,,,,,,,,,,,,,D,160,circle,1,0,,,,,,,,,,,,,,,,repeat,number,numRpt,k,0.9527,noRew,,,,,,0,47,0,47,0,1,,,,,,,,,,,,,,,,,
292930,2022-12-05_20h31.05.881,vts_reward_expectancy_bt,2022.2.4,Win32,60.01680471,Chrome,1280,720,,,,,0,639,,,,,,,,,,,,,,,,,D,167,star,1,0,,,,,,,,,,,,,,,,switch,letter,lettSwt,d,1.0147,noRew,,,,,,0,48,0,48,0,1,,,,,,,,,,,,,,,,,
292930,2022-12-05_20h31.05.881,vts_reward_expectancy_bt,2022.2.4,Win32,60.01680471,Chrome,1280,720,,,,,0,639,,,,,,,,,,,,,,,,,F,139,hexagon,1,0,,,,,,,,,,,,,,,,repeat,letter,lettRpt,d,1.2494,noRew,,,,,,0,49,0,49,0,1,,,,,,,,,,,,,,,,,
292930,2022-12-05_20h31.05.881,vts_reward_expectancy_bt,2022.2.4,Win32,60.01680471,Chrome,1280,720,,,,,0,639,,,,,,,,,,,,,,,,,H,181,triangle,1,0,,,,,,,,,,,,,,,,switch,number,numSwt,k,1.3044,noRew,,,,,,0,50,0,50,0,1,,,,,,,,,,,,,,,,,
292930,2022-12-05_20h31.05.881,vts_reward_expectancy_bt,2022.2.4,Win32,60.01680471,Chrome,1280,720,,,,,0,639,,,,,,,,,,,,,,,,,W,125,hexagon,1,0,,,,,,,,,,,,,,,,repeat,number,numRpt,j,2.4341,noRew,,,,,,0,51,0,51,0,1,,,,,,,,,,,,,,,,,
292930,2022-12-05_20h31.05.881,vts_reward_expectancy_bt,2022.2.4,Win32,60.01680471,Chrome,1280,720,,,,,0,639,,,,,,,,,,,,,,,,,F,160,hexagon,1,0,,,,,,,,,,,,,,,,switch,letter,lettSwt,d,0.8243,noRew,,,,,,0,52,0,52,0,1,,,,,,,,,,,,,,,,,
292930,2022-12-05_20h31.05.881,vts_reward_expectancy_bt,2022.2.4,Win32,60.01680471,Chrome,1280,720,,,,,0,639,,,,,,,,,,,,,,,,,Y,125,star,1,0,,,,,,,,,,,,,,,,repeat,letter,lettRpt,f,1.2719,noRew,,,,,,0,53,0,53,0,1,,,,,,,,,,,,,,,,,
292930,2022-12-05_20h31.05.881,vts_reward_expectancy_bt,2022.2.4,Win32,60.01680471,Chrome,1280,720,,,,,0,639,,,,,,,,,,,,,,,,,S,132,star,1,0,,,,,,,,,,,,,,,,switch,number,numSwt,j,0.9649,noRew,,,,,,0,54,0,54,0,1,,,,,,,,,,,,,,,,,
292930,2022-12-05_20h31.05.881,vts_reward_expectancy_bt,2022.2.4,Win32,60.01680471,Chrome,1280,720,,,,,0,639,,,,,,,,,,,,,,,,,W,167,hexagon,1,0,,,,,,,,,,,,,,,,switch,letter,lettSwt,f,1.9819,noRew,,,,,,0,55,0,55,0,1,,,,,,,,,,,,,,,,,
292930,2022-12-05_20h31.05.881,vts_reward_expectancy_bt,2022.2.4,Win32,60.01680471,Chrome,1280,720,,,,,0,639,,,,,,,,,,,,,,,,,F,146,triangle,1,0,,,,,,,,,,,,,,,,repeat,letter,lettRpt,d,0.7906,noRew,,,,,,0,56,0,56,0,1,,,,,,,,,,,,,,,,,
292930,2022-12-05_20h31.05.881,vts_reward_expectancy_bt,2022.2.4,Win32,60.01680471,Chrome,1280,720,,,,,0,639,,,,,,,,,,,,,,,,,D,139,hexagon,1,0,,,,,,,,,,,,,,,,repeat,letter,lettRpt,d,0.7671,noRew,,,,,,0,57,0,57,0,1,,,,,,,,,,,,,,,,,
292930,2022-12-05_20h31.05.881,vts_reward_expectancy_bt,2022.2.4,Win32,60.01680471,Chrome,1280,720,,,,,0,639,,,,,,,,,,,,,,,,,H,181,hexagon,1,0,,,,,,,,,,,,,,,,switch,number,numSwt,k,0.9231,noRew,,,,,,0,58,0,58,0,1,,,,,,,,,,,,,,,,,
292930,2022-12-05_20h31.05.881,vts_reward_expectancy_bt,2022.2.4,Win32,60.01680471,Chrome,1280,720,,,,,0,639,,,,,,,,,,,,,,,,,U,174,triangle,1,0,,,,,,,,,,,,,,,,switch,letter,lettSwt,f,0.9548,noRew,,,,,,0,59,0,59,0,1,,,,,,,,,,,,,,,,,
292930,2022-12-05_20h31.05.881,vts_reward_expectancy_bt,2022.2.4,Win32,60.01680471,Chrome,1280,720,,,,,0,639,,,,,,,,,,,,,,,,,Y,132,star,1,0,,,,,,,,,,,,,,,,switch,number,numSwt,j,1.3593,noRew,,,,,,0,60,0,60,0,1,,,,,,,,,,,,,,,,,
292930,2022-12-05_20h31.05.881,vts_reward_expectancy_bt,2022.2.4,Win32,60.01680471,Chrome,1280,720,,,,,0,639,,,,,,,,,,,,,,,,,F,139,hexagon,1,0,,,,,,,,,,,,,,,,repeat,number,numRpt,j,0.7193,noRew,,,,,,0,61,0,61,0,1,,,,,,,,,,,,,,,,,
292930,2022-12-05_20h31.05.881,vts_reward_expectancy_bt,2022.2.4,Win32,60.01680471,Chrome,1280,720,,,,,0,639,,,,,,,,,,,,,,,,,H,174,triangle,1,0,,,,,,,,,,,,,,,,switch,letter,lettSwt,d,0.7852,noRew,,,,,,0,62,0,62,0,1,,,,,,,,,,,,,,,,,
292930,2022-12-05_20h31.05.881,vts_reward_expectancy_bt,2022.2.4,Win32,60.01680471,Chrome,1280,720,,,,,0,639,,,,,,,,,,,,,,,,,S,167,star,1,0,,,,,,,,,,,,,,,,switch,number,numSwt,k,0.8535,noRew,,,,,,0,63,0,63,0,1,,,,,,,,,,,,,,,,,
292930,2022-12-05_20h31.05.881,vts_reward_expectancy_bt,2022.2.4,Win32,60.01680471,Chrome,1280,720,,,,,,,,,,,,,,,,,,,,,,,,,,,,,,,,,,,,,,,,,,,,,,,,,,,,,,,,,,,,,,,,,,,,,,,,,,,,
292930,2022-12-05_20h31.05.881,vts_reward_expectancy_bt,2022.2.4,Win32,60.01680471,Chrome,1280,720,,,,,0,639,,,,,,,,,,,,,,,,,W,146,circle,0,0,,,,,,,,,,,,,,,,switch,letter,NA,d,0.8301,noRew,,,,,,0,,,,,,space,10.0056,low,0,0,0,0,1,,,,,,,,,
292930,2022-12-05_20h31.05.881,vts_reward_expectancy_bt,2022.2.4,Win32,60.01680471,Chrome,1280,720,,,,,10,649,,,,,,,,,,,,,,,,,S,160,triangle,1,1,,,,,,,,,,,,,,,,repeat,letter,lettRpt,f,1.0069,Lo,,,,,,0,,,,,,,,low,1,0,1,0,1,,,,,,,,,
292930,2022-12-05_20h31.05.881,vts_reward_expectancy_bt,2022.2.4,Win32,60.01680471,Chrome,1280,720,,,,,1,650,,,,,,,,,,,,,,,,,D,125,star,1,0,,,,,,,,,,,,,,,,switch,number,numSwt,j,0.6316,Hi,,,,,,0,,,,,,,,low,2,0,2,0,1,,,,,,,,,
292930,2022-12-05_20h31.05.881,vts_reward_expectancy_bt,2022.2.4,Win32,60.01680471,Chrome,1280,720,,,,,10,660,,,,,,,,,,,,,,,,,B,167,hexagon,1,0,,,,,,,,,,,,,,,,repeat,number,numRpt,k,0.6708,Hi,,,,,,0,,,,,,,,low,3,0,3,0,1,,,,,,,,,
292930,2022-12-05_20h31.05.881,vts_reward_expectancy_bt,2022.2.4,Win32,60.01680471,Chrome,1280,720,,,,,10,670,,,,,,,,,,,,,,,,,F,132,circle,1,0,,,,,,,,,,,,,,,,switch,letter,lettSwt,d,0.6281,Lo,,,,,,0,,,,,,,,low,4,0,4,0,1,,,,,,,,,
292930,2022-12-05_20h31.05.881,vts_reward_expectancy_bt,2022.2.4,Win32,60.01680471,Chrome,1280,720,,,,,1,671,,,,,,,,,,,,,,,,,Y,174,triangle,1,0,,,,,,,,,,,,,,,,repeat,letter,lettRpt,f,0.5756,Lo,,,,,,0,,,,,,,,low,5,0,5,0,1,,,,,,,,,
292930,2022-12-05_20h31.05.881,vts_reward_expectancy_bt,2022.2.4,Win32,60.01680471,Chrome,1280,720,,,,,0,671,,,,,,,,,,,,,,,,,H,139,star,1,0,,,,,,,,,,,,,,,,repeat,letter,lettRpt,d,1.1204,Hi,,,,,,0,,,,,,,,low,6,0,6,0,1,,,,,,,,,
292930,2022-12-05_20h31.05.881,vts_reward_expectancy_bt,2022.2.4,Win32,60.01680471,Chrome,1280,720,,,,,10,681,,,,,,,,,,,,,,,,,U,181,hexagon,1,0,,,,,,,,,,,,,,,,switch,number,numSwt,k,0.6839,Hi,,,,,,0,,,,,,,,low,7,0,7,0,1,,,,,,,,,
292930,2022-12-05_20h31.05.881,vts_reward_expectancy_bt,2022.2.4,Win32,60.01680471,Chrome,1280,720,,,,,1,682,,,,,,,,,,,,,,,,,W,146,triangle,1,0,,,,,,,,,,,,,,,,switch,letter,lettSwt,f,0.3116,Lo,,,,,,0,,,,,,,,low,8,0,8,0,1,,,,,,,,,
292930,2022-12-05_20h31.05.881,vts_reward_expectancy_bt,2022.2.4,Win32,60.01680471,Chrome,1280,720,,,,,1,683,,,,,,,,,,,,,,,,,S,160,circle,1,0,,,,,,,,,,,,,,,,repeat,letter,lettRpt,f,0.4787,Lo,,,,,,0,,,,,,,,low,9,0,9,0,1,,,,,,,,,
292930,2022-12-05_20h31.05.881,vts_reward_expectancy_bt,2022.2.4,Win32,60.01680471,Chrome,1280,720,,,,,0,683,,,,,,,,,,,,,,,,,D,125,star,0,0,,,,,,,,,,,,,,,,repeat,letter,NA,f,0.407,Lo,,,,,,0,,,,,,,,low,10,0,10,0,1,,,,,,,,,
292930,2022-12-05_20h31.05.881,vts_reward_expectancy_bt,2022.2.4,Win32,60.01680471,Chrome,1280,720,,,,,10,693,,,,,,,,,,,,,,,,,B,167,hexagon,1,1,,,,,,,,,,,,,,,,repeat,letter,lettRpt,d,0.8153,Hi,,,,,,0,,,,,,,,low,11,0,11,0,1,,,,,,,,,
292930,2022-12-05_20h31.05.881,vts_reward_expectancy_bt,2022.2.4,Win32,60.01680471,Chrome,1280,720,,,,,1,694,,,,,,,,,,,,,,,,,F,132,star,1,0,,,,,,,,,,,,,,,,switch,number,numSwt,j,0.5163,Hi,,,,,,0,,,,,,,,low,12,0,12,0,1,,,,,,,,,
292930,2022-12-05_20h31.05.881,vts_reward_expectancy_bt,2022.2.4,Win32,60.01680471,Chrome,1280,720,,,,,1,695,,,,,,,,,,,,,,,,,Y,174,circle,1,0,,,,,,,,,,,,,,,,repeat,number,numRpt,k,0.5193,Lo,,,,,,0,,,,,,,,low,13,0,13,0,1,,,,,,,,,
292930,2022-12-05_20h31.05.881,vts_reward_expectancy_bt,2022.2.4,Win32,60.01680471,Chrome,1280,720,,,,,1,696,,,,,,,,,,,,,,,,,H,139,hexagon,1,0,,,,,,,,,,,,,,,,repeat,number,numRpt,j,0.5485,Hi,,,,,,0,,,,,,,,low,14,0,14,0,1,,,,,,,,,
292930,2022-12-05_20h31.05.881,vts_reward_expectancy_bt,2022.2.4,Win32,60.01680471,Chrome,1280,720,,,,,1,697,,,,,,,,,,,,,,,,,U,181,triangle,1,0,,,,,,,,,,,,,,,,repeat,number,numRpt,k,0.6153,Lo,,,,,,0,,,,,,,,low,15,0,15,0,1,,,,,,,,,
292930,2022-12-05_20h31.05.881,vts_reward_expectancy_bt,2022.2.4,Win32,60.01680471,Chrome,1280,720,,,,,10,707,,,,,,,,,,,,,,,,,H,167,star,1,0,,,,,,,,,,,,,,,,switch,letter,lettSwt,d,0.6033,Hi,,,,,,0,,,,,,,,low,16,0,16,0,1,,,,,,,,,
292930,2022-12-05_20h31.05.881,vts_reward_expectancy_bt,2022.2.4,Win32,60.01680471,Chrome,1280,720,,,,,10,717,,,,,,,,,,,,,,,,,D,146,circle,1,0,,,,,,,,,,,,,,,,repeat,letter,lettRpt,d,0.4672,Lo,,,,,,0,,,,,,,,low,17,0,17,0,1,,,,,,,,,
292930,2022-12-05_20h31.05.881,vts_reward_expectancy_bt,2022.2.4,Win32,60.01680471,Chrome,1280,720,,,,,10,727,,,,,,,,,,,,,,,,,F,125,triangle,1,0,,,,,,,,,,,,,,,,switch,number,numSwt,j,0.6615,Lo,,,,,,0,,,,,,,,low,18,0,18,0,1,,,,,,,,,
292930,2022-12-05_20h31.05.881,vts_reward_expectancy_bt,2022.2.4,Win32,60.01680471,Chrome,1280,720,,,,,1,728,,,,,,,,,,,,,,,,,U,181,hexagon,1,0,,,,,,,,,,,,,,,,switch,letter,lettSwt,f,0.5815,Hi,,,,,,0,,,,,,,,low,19,0,19,0,1,,,,,,,,,
292930,2022-12-05_20h31.05.881,vts_reward_expectancy_bt,2022.2.4,Win32,60.01680471,Chrome,1280,720,,,,,1,729,,,,,,,,,,,,,,,,,Y,139,star,1,0,,,,,,,,,,,,,,,,repeat,letter,lettRpt,f,0.5814,Hi,,,,,,0,,,,,,,,low,20,0,20,0,1,,,,,,,,,
292930,2022-12-05_20h31.05.881,vts_reward_expectancy_bt,2022.2.4,Win32,60.01680471,Chrome,1280,720,,,,,10,739,,,,,,,,,,,,,,,,,B,160,triangle,1,0,,,,,,,,,,,,,,,,switch,number,numSwt,k,1.2221,Lo,,,,,,0,,,,,,,,low,21,0,21,0,1,,,,,,,,,
292930,2022-12-05_20h31.05.881,vts_reward_expectancy_bt,2022.2.4,Win32,60.01680471,Chrome,1280,720,,,,,10,749,,,,,,,,,,,,,,,,,S,132,hexagon,1,0,,,,,,,,,,,,,,,,repeat,number,numRpt,j,0.8258,Hi,,,,,,0,,,,,,,,low,22,0,22,0,1,,,,,,,,,
292930,2022-12-05_20h31.05.881,vts_reward_expectancy_bt,2022.2.4,Win32,60.01680471,Chrome,1280,720,,,,,1,750,,,,,,,,,,,,,,,,,W,174,circle,1,0,,,,,,,,,,,,,,,,switch,letter,lettSwt,f,0.4822,Lo,,,,,,0,,,,,,,,low,23,0,23,0,1,,,,,,,,,
292930,2022-12-05_20h31.05.881,vts_reward_expectancy_bt,2022.2.4,Win32,60.01680471,Chrome,1280,720,,,,,10,760,,,,,,,,,,,,,,,,,B,125,star,1,0,,,,,,,,,,,,,,,,repeat,letter,lettRpt,d,0.5878,Hi,,,,,,0,,,,,,,,low,24,0,24,0,1,,,,,,,,,
292930,2022-12-05_20h31.05.881,vts_reward_expectancy_bt,2022.2.4,Win32,60.01680471,Chrome,1280,720,,,,,1,761,,,,,,,,,,,,,,,,,H,146,circle,1,0,,,,,,,,,,,,,,,,switch,number,numSwt,j,1.0075,Lo,,,,,,0,,,,,,,,low,25,0,25,0,1,,,,,,,,,
292930,2022-12-05_20h31.05.881,vts_reward_expectancy_bt,2022.2.4,Win32,60.01680471,Chrome,1280,720,,,,,10,771,,,,,,,,,,,,,,,,,U,167,hexagon,1,0,,,,,,,,,,,,,,,,repeat,number,numRpt,k,0.6421,Hi,,,,,,0,,,,,,,,low,26,0,26,0,1,,,,,,,,,
292930,2022-12-05_20h31.05.881,vts_reward_expectancy_bt,2022.2.4,Win32,60.01680471,Chrome,1280,720,,,,,10,781,,,,,,,,,,,,,,,,,S,132,triangle,1,0,,,,,,,,,,,,,,,,switch,letter,lettSwt,f,1.0036,Lo,,,,,,0,,,,,,,,low,27,0,27,0,1,,,,,,,,,
292930,2022-12-05_20h31.05.881,vts_reward_expectancy_bt,2022.2.4,Win32,60.01680471,Chrome,1280,720,,,,,10,791,,,,,,,,,,,,,,,,,Y,139,circle,1,0,,,,,,,,,,,,,,,,repeat,letter,lettRpt,f,0.7319,Lo,,,,,,0,,,,,,,,low,28,0,28,0,1,,,,,,,,,
292930,2022-12-05_20h31.05.881,vts_reward_expectancy_bt,2022.2.4,Win32,60.01680471,Chrome,1280,720,,,,,1,792,,,,,,,,,,,,,,,,,F,174,triangle,1,0,,,,,,,,,,,,,,,,switch,number,numSwt,k,0.999,Lo,,,,,,0,,,,,,,,low,29,0,29,0,1,,,,,,,,,
292930,2022-12-05_20h31.05.881,vts_reward_expectancy_bt,2022.2.4,Win32,60.01680471,Chrome,1280,720,,,,,10,802,,,,,,,,,,,,,,,,,W,181,hexagon,1,0,,,,,,,,,,,,,,,,repeat,number,numRpt,k,0.7708,Hi,,,,,,0,,,,,,,,low,30,0,30,0,1,,,,,,,,,
292930,2022-12-05_20h31.05.881,vts_reward_expectancy_bt,2022.2.4,Win32,60.01680471,Chrome,1280,720,,,,,1,803,,,,,,,,,,,,,,,,,D,160,star,1,0,,,,,,,,,,,,,,,,switch,letter,lettSwt,d,0.4876,Hi,,,,,,0,,,,,,,,low,31,0,31,0,1,,,,,,,,,
292930,2022-12-05_20h31.05.881,vts_reward_expectancy_bt,2022.2.4,Win32,60.01680471,Chrome,1280,720,,,,,1,804,,,,,,,,,,,,,,,,,W,132,triangle,1,0,,,,,,,,,,,,,,,,switch,number,numSwt,j,0.4923,Lo,,,,,,1,,,,,,space,4.2222,low,0,0,0,0,1,,,,,,,,,
292930,2022-12-05_20h31.05.881,vts_reward_expectancy_bt,2022.2.4,Win32,60.01680471,Chrome,1280,720,,,,,10,814,,,,,,,,,,,,,,,,,Y,174,circle,1,0,,,,,,,,,,,,,,,,repeat,number,numRpt,k,0.5372,Lo,,,,,,1,,,,,,,,low,1,0,1,0,1,,,,,,,,,
292930,2022-12-05_20h31.05.881,vts_reward_expectancy_bt,2022.2.4,Win32,60.01680471,Chrome,1280,720,,,,,0,814,,,,,,,,,,,,,,,,,F,167,hexagon,1,0,,,,,,,,,,,,,,,,repeat,number,numRpt,k,0.7281,Hi,,,,,,1,,,,,,,,low,2,0,2,0,1,,,,,,,,,
292930,2022-12-05_20h31.05.881,vts_reward_expectancy_bt,2022.2.4,Win32,60.01680471,Chrome,1280,720,,,,,10,824,,,,,,,,,,,,,,,,,D,139,star,1,0,,,,,,,,,,,,,,,,switch,letter,lettSwt,d,0.4084,Hi,,,,,,1,,,,,,,,low,3,0,3,0,1,,,,,,,,,
292930,2022-12-05_20h31.05.881,vts_reward_expectancy_bt,2022.2.4,Win32,60.01680471,Chrome,1280,720,,,,,1,825,,,,,,,,,,,,,,,,,U,125,triangle,1,0,,,,,,,,,,,,,,,,repeat,letter,lettRpt,f,0.5367,Lo,,,,,,1,,,,,,,,low,4,0,4,0,1,,,,,,,,,
292930,2022-12-05_20h31.05.881,vts_reward_expectancy_bt,2022.2.4,Win32,60.01680471,Chrome,1280,720,,,,,1,826,,,,,,,,,,,,,,,,,S,160,circle,1,0,,,,,,,,,,,,,,,,switch,number,numSwt,k,0.5156,Lo,,,,,,1,,,,,,,,low,5,0,5,0,1,,,,,,,,,
292930,2022-12-05_20h31.05.881,vts_reward_expectancy_bt,2022.2.4,Win32,60.01680471,Chrome,1280,720,,,,,0,826,,,,,,,,,,,,,,,,,H,146,hexagon,1,0,,,,,,,,,,,,,,,,switch,letter,lettSwt,d,1.2715,Hi,,,,,,1,,,,,,,,low,6,0,6,0,1,,,,,,,,,
292930,2022-12-05_20h31.05.881,vts_reward_expectancy_bt,2022.2.4,Win32,60.01680471,Chrome,1280,720,,,,,1,827,,,,,,,,,,,,,,,,,B,181,star,1,0,,,,,,,,,,,,,,,,repeat,letter,lettRpt,d,0.4659,Hi,,,,,,1,,,,,,,,low,7,0,7,0,1,,,,,,,,,
292930,2022-12-05_20h31.05.881,vts_reward_expectancy_bt,2022.2.4,Win32,60.01680471,Chrome,1280,720,,,,,1,828,,,,,,,,,,,,,,,,,W,132,star,1,0,,,,,,,,,,,,,,,,repeat,letter,lettRpt,f,0.5653,Hi,,,,,,1,,,,,,,,low,8,0,8,0,1,,,,,,,,,
292930,2022-12-05_20h31.05.881,vts_reward_expectancy_bt,2022.2.4,Win32,60.01680471,Chrome,1280,720,,,,,1,829,,,,,,,,,,,,,,,,,Y,174,circle,1,0,,,,,,,,,,,,,,,,repeat,letter,lettRpt,f,0.488,Lo,,,,,,1,,,,,,,,low,9,0,9,0,1,,,,,,,,,
292930,2022-12-05_20h31.05.881,vts_reward_expectancy_bt,2022.2.4,Win32,60.01680471,Chrome,1280,720,,,,,1,830,,,,,,,,,,,,,,,,,F,167,triangle,1,0,,,,,,,,,,,,,,,,repeat,letter,lettRpt,d,0.6939,Lo,,,,,,1,,,,,,,,low,10,0,10,0,1,,,,,,,,,
292930,2022-12-05_20h31.05.881,vts_reward_expectancy_bt,2022.2.4,Win32,60.01680471,Chrome,1280,720,,,,,0,830,,,,,,,,,,,,,,,,,D,139,hexagon,1,0,,,,,,,,,,,,,,,,repeat,letter,lettRpt,d,0.6316,Hi,,,,,,1,,,,,,,,low,11,0,11,0,1,,,,,,,,,
292930,2022-12-05_20h31.05.881,vts_reward_expectancy_bt,2022.2.4,Win32,60.01680471,Chrome,1280,720,,,,,10,840,,,,,,,,,,,,,,,,,U,125,hexagon,1,0,,,,,,,,,,,,,,,,switch,number,numSwt,j,0.4594,Hi,,,,,,1,,,,,,,,low,12,0,12,0,1,,,,,,,,,
292930,2022-12-05_20h31.05.881,vts_reward_expectancy_bt,2022.2.4,Win32,60.01680471,Chrome,1280,720,,,,,10,850,,,,,,,,,,,,,,,,,S,160,circle,1,0,,,,,,,,,,,,,,,,repeat,number,numRpt,k,0.4931,Lo,,,,,,1,,,,,,,,low,13,0,13,0,1,,,,,,,,,
292930,2022-12-05_20h31.05.881,vts_reward_expectancy_bt,2022.2.4,Win32,60.01680471,Chrome,1280,720,,,,,0,850,,,,,,,,,,,,,,,,,H,146,star,1,0,,,,,,,,,,,,,,,,switch,letter,lettSwt,d,0.5262,Hi,,,,,,1,,,,,,,,low,14,0,14,0,1,,,,,,,,,
292930,2022-12-05_20h31.05.881,vts_reward_expectancy_bt,2022.2.4,Win32,60.01680471,Chrome,1280,720,,,,,0,850,,,,,,,,,,,,,,,,,B,181,triangle,0,0,,,,,,,,,,,,,,,,repeat,letter,NA,f,0.5645,Hi,,,,,,1,,,,,,,,low,15,0,15,0,1,,,,,,,,,
292930,2022-12-05_20h31.05.881,vts_reward_expectancy_bt,2022.2.4,Win32,60.01680471,Chrome,1280,720,,,,,1,851,,,,,,,,,,,,,,,,,W,146,triangle,1,1,,,,,,,,,,,,,,,,repeat,letter,lettRpt,f,0.5198,Lo,,,,,,1,,,,,,,,low,16,0,16,0,1,,,,,,,,,
292930,2022-12-05_20h31.05.881,vts_reward_expectancy_bt,2022.2.4,Win32,60.01680471,Chrome,1280,720,,,,,10,861,,,,,,,,,,,,,,,,,H,132,star,1,0,,,,,,,,,,,,,,,,switch,number,numSwt,j,0.4316,Hi,,,,,,1,,,,,,,,low,17,0,17,0,1,,,,,,,,,
292930,2022-12-05_20h31.05.881,vts_reward_expectancy_bt,2022.2.4,Win32,60.01680471,Chrome,1280,720,,,,,1,862,,,,,,,,,,,,,,,,,Y,139,circle,1,0,,,,,,,,,,,,,,,,switch,letter,lettSwt,f,0.561,Lo,,,,,,1,,,,,,,,low,18,0,18,0,1,,,,,,,,,
292930,2022-12-05_20h31.05.881,vts_reward_expectancy_bt,2022.2.4,Win32,60.01680471,Chrome,1280,720,,,,,1,863,,,,,,,,,,,,,,,,,D,125,hexagon,1,0,,,,,,,,,,,,,,,,repeat,letter,lettRpt,d,0.4323,Hi,,,,,,1,,,,,,,,low,19,0,19,0,1,,,,,,,,,
292930,2022-12-05_20h31.05.881,vts_reward_expectancy_bt,2022.2.4,Win32,60.01680471,Chrome,1280,720,,,,,1,864,,,,,,,,,,,,,,,,,F,174,triangle,1,0,,,,,,,,,,,,,,,,switch,number,numSwt,k,0.5553,Lo,,,,,,1,,,,,,,,low,20,0,20,0,1,,,,,,,,,
292930,2022-12-05_20h31.05.881,vts_reward_expectancy_bt,2022.2.4,Win32,60.01680471,Chrome,1280,720,,,,,0,864,,,,,,,,,,,,,,,,,S,181,hexagon,1,0,,,,,,,,,,,,,,,,repeat,number,numRpt,k,1.1152,Hi,,,,,,1,,,,,,,,low,21,0,21,0,1,,,,,,,,,
292930,2022-12-05_20h31.05.881,vts_reward_expectancy_bt,2022.2.4,Win32,60.01680471,Chrome,1280,720,,,,,1,865,,,,,,,,,,,,,,,,,B,167,star,1,0,,,,,,,,,,,,,,,,switch,letter,lettSwt,d,0.3903,Hi,,,,,,1,,,,,,,,low,22,0,22,0,1,,,,,,,,,
292930,2022-12-05_20h31.05.881,vts_reward_expectancy_bt,2022.2.4,Win32,60.01680471,Chrome,1280,720,,,,,1,866,,,,,,,,,,,,,,,,,U,160,circle,1,0,,,,,,,,,,,,,,,,repeat,letter,lettRpt,f,0.5019,Lo,,,,,,1,,,,,,,,low,23,0,23,0,1,,,,,,,,,
292930,2022-12-05_20h31.05.881,vts_reward_expectancy_bt,2022.2.4,Win32,60.01680471,Chrome,1280,720,,,,,1,867,,,,,,,,,,,,,,,,,D,125,hexagon,1,0,,,,,,,,,,,,,,,,switch,number,numSwt,j,0.4156,Hi,,,,,,1,,,,,,,,low,24,0,24,0,1,,,,,,,,,
292930,2022-12-05_20h31.05.881,vts_reward_expectancy_bt,2022.2.4,Win32,60.01680471,Chrome,1280,720,,,,,0,867,,,,,,,,,,,,,,,,,U,160,star,1,0,,,,,,,,,,,,,,,,repeat,number,numRpt,k,0.7307,Hi,,,,,,1,,,,,,,,low,25,0,25,0,1,,,,,,,,,
292930,2022-12-05_20h31.05.881,vts_reward_expectancy_bt,2022.2.4,Win32,60.01680471,Chrome,1280,720,,,,,1,868,,,,,,,,,,,,,,,,,Y,167,triangle,1,0,,,,,,,,,,,,,,,,switch,letter,lettSwt,f,0.449,Lo,,,,,,1,,,,,,,,low,26,0,26,0,1,,,,,,,,,
292930,2022-12-05_20h31.05.881,vts_reward_expectancy_bt,2022.2.4,Win32,60.01680471,Chrome,1280,720,,,,,1,869,,,,,,,,,,,,,,,,,S,174,circle,1,0,,,,,,,,,,,,,,,,switch,number,numSwt,k,0.4818,Lo,,,,,,1,,,,,,,,low,27,0,27,0,1,,,,,,,,,
292930,2022-12-05_20h31.05.881,vts_reward_expectancy_bt,2022.2.4,Win32,60.01680471,Chrome,1280,720,,,,,10,879,,,,,,,,,,,,,,,,,F,132,star,1,0,,,,,,,,,,,,,,,,repeat,number,numRpt,j,0.3579,Hi,,,,,,1,,,,,,,,low,28,0,28,0,1,,,,,,,,,
292930,2022-12-05_20h31.05.881,vts_reward_expectancy_bt,2022.2.4,Win32,60.01680471,Chrome,1280,720,,,,,1,880,,,,,,,,,,,,,,,,,H,139,triangle,1,0,,,,,,,,,,,,,,,,repeat,number,numRpt,j,0.4668,Lo,,,,,,1,,,,,,,,low,29,0,29,0,1,,,,,,,,,
292930,2022-12-05_20h31.05.881,vts_reward_expectancy_bt,2022.2.4,Win32,60.01680471,Chrome,1280,720,,,,,10,890,,,,,,,,,,,,,,,,,B,181,hexagon,1,0,,,,,,,,,,,,,,,,repeat,number,numRpt,k,0.6,Hi,,,,,,1,,,,,,,,low,30,0,30,0,1,,,,,,,,,
292930,2022-12-05_20h31.05.881,vts_reward_expectancy_bt,2022.2.4,Win32,60.01680471,Chrome,1280,720,,,,,10,900,,,,,,,,,,,,,,,,,W,146,circle,1,0,,,,,,,,,,,,,,,,repeat,number,numRpt,j,0.4346,Lo,,,,,,1,,,,,,,,low,31,0,31,0,1,,,,,,,,,
292930,2022-12-05_20h31.05.881,vts_reward_expectancy_bt,2022.2.4,Win32,60.01680471,Chrome,1280,720,,,,,10,910,,,,,,,,,,,,,,,,,B,181,star,1,0,,,,,,,,,,,,,,,,switch,letter,lettSwt,d,0.3354,Hi,,,,,,2,,,,,,space,2.8097,low,0,0,0,0,1,,,,,,,,,
292930,2022-12-05_20h31.05.881,vts_reward_expectancy_bt,2022.2.4,Win32,60.01680471,Chrome,1280,720,,,,,1,911,,,,,,,,,,,,,,,,,F,125,hexagon,1,0,,,,,,,,,,,,,,,,switch,number,numSwt,j,0.3923,Hi,,,,,,2,,,,,,,,low,1,0,1,0,1,,,,,,,,,
292930,2022-12-05_20h31.05.881,vts_reward_expectancy_bt,2022.2.4,Win32,60.01680471,Chrome,1280,720,,,,,1,912,,,,,,,,,,,,,,,,,U,167,circle,1,0,,,,,,,,,,,,,,,,repeat,number,numRpt,k,0.4324,Lo,,,,,,2,,,,,,,,low,2,0,2,0,1,,,,,,,,,
292930,2022-12-05_20h31.05.881,vts_reward_expectancy_bt,2022.2.4,Win32,60.01680471,Chrome,1280,720,,,,,1,913,,,,,,,,,,,,,,,,,W,174,triangle,1,0,,,,,,,,,,,,,,,,repeat,number,numRpt,k,0.4076,Lo,,,,,,2,,,,,,,,low,3,0,3,0,1,,,,,,,,,
292930,2022-12-05_20h31.05.881,vts_reward_expectancy_bt,2022.2.4,Win32,60.01680471,Chrome,1280,720,,,,,0,913,,,,,,,,,,,,,,,,,Y,132,star,1,0,,,,,,,,,,,,,,,,repeat,number,numRpt,j,0.542,Hi,,,,,,2,,,,,,,,low,4,0,4,0,1,,,,,,,,,
292930,2022-12-05_20h31.05.881,vts_reward_expectancy_bt,2022.2.4,Win32,60.01680471,Chrome,1280,720,,,,,0,913,,,,,,,,,,,,,,,,,D,160,hexagon,1,0,,,,,,,,,,,,,,,,switch,letter,lettSwt,d,0.4558,Hi,,,,,,2,,,,,,,,low,5,0,5,0,1,,,,,,,,,
292930,2022-12-05_20h31.05.881,vts_reward_expectancy_bt,2022.2.4,Win32,60.01680471,Chrome,1280,720,,,,,1,914,,,,,,,,,,,,,,,,,S,139,circle,1,0,,,,,,,,,,,,,,,,repeat,letter,lettRpt,f,0.6567,Lo,,,,,,2,,,,,,,,low,6,0,6,0,1,,,,,,,,,
292930,2022-12-05_20h31.05.881,vts_reward_expectancy_bt,2022.2.4,Win32,60.01680471,Chrome,1280,720,,,,,1,915,,,,,,,,,,,,,,,,,H,146,triangle,1,0,,,,,,,,,,,,,,,,switch,number,numSwt,j,0.5114,Lo,,,,,,2,,,,,,,,low,7,0,7,0,1,,,,,,,,,
292930,2022-12-05_20h31.05.881,vts_reward_expectancy_bt,2022.2.4,Win32,60.01680471,Chrome,1280,720,,,,,10,925,,,,,,,,,,,,,,,,,B,181,triangle,1,0,,,,,,,,,,,,,,,,repeat,number,numRpt,k,0.4665,Lo,,,,,,2,,,,,,,,low,8,0,8,0,1,,,,,,,,,
292930,2022-12-05_20h31.05.881,vts_reward_expectancy_bt,2022.2.4,Win32,60.01680471,Chrome,1280,720,,,,,1,926,,,,,,,,,,,,,,,,,F,125,star,1,0,,,,,,,,,,,,,,,,repeat,number,numRpt,j,0.4614,Hi,,,,,,2,,,,,,,,low,9,0,9,0,1,,,,,,,,,
292930,2022-12-05_20h31.05.881,vts_reward_expectancy_bt,2022.2.4,Win32,60.01680471,Chrome,1280,720,,,,,1,927,,,,,,,,,,,,,,,,,U,167,circle,1,0,,,,,,,,,,,,,,,,repeat,number,numRpt,k,0.4838,Lo,,,,,,2,,,,,,,,low,10,0,10,0,1,,,,,,,,,
292930,2022-12-05_20h31.05.881,vts_reward_expectancy_bt,2022.2.4,Win32,60.01680471,Chrome,1280,720,,,,,0,927,,,,,,,,,,,,,,,,,W,174,hexagon,1,0,,,,,,,,,,,,,,,,switch,letter,lettSwt,f,0.4975,Hi,,,,,,2,,,,,,,,low,11,0,11,0,1,,,,,,,,,
292930,2022-12-05_20h31.05.881,vts_reward_expectancy_bt,2022.2.4,Win32,60.01680471,Chrome,1280,720,,,,,10,937,,,,,,,,,,,,,,,,,Y,132,star,1,0,,,,,,,,,,,,,,,,repeat,letter,lettRpt,f,0.4489,Hi,,,,,,2,,,,,,,,low,12,0,12,0,1,,,,,,,,,
292930,2022-12-05_20h31.05.881,vts_reward_expectancy_bt,2022.2.4,Win32,60.01680471,Chrome,1280,720,,,,,1,938,,,,,,,,,,,,,,,,,D,160,hexagon,1,0,,,,,,,,,,,,,,,,switch,number,numSwt,k,0.4423,Hi,,,,,,2,,,,,,,,low,13,0,13,0,1,,,,,,,,,
292930,2022-12-05_20h31.05.881,vts_reward_expectancy_bt,2022.2.4,Win32,60.01680471,Chrome,1280,720,,,,,0,938,,,,,,,,,,,,,,,,,S,139,circle,0,0,,,,,,,,,,,,,,,,switch,letter,NA,d,0.4936,Hi,,,,,,2,,,,,,,,low,14,0,14,0,1,,,,,,,,,
292930,2022-12-05_20h31.05.881,vts_reward_expectancy_bt,2022.2.4,Win32,60.01680471,Chrome,1280,720,,,,,10,948,,,,,,,,,,,,,,,,,H,146,triangle,1,1,,,,,,,,,,,,,,,,repeat,letter,lettRpt,d,0.5547,Lo,,,,,,2,,,,,,,,low,15,0,15,0,1,,,,,,,,,
292930,2022-12-05_20h31.05.881,vts_reward_expectancy_bt,2022.2.4,Win32,60.01680471,Chrome,1280,720,,,,,1,949,,,,,,,,,,,,,,,,,F,139,circle,1,0,,,,,,,,,,,,,,,,switch,number,numSwt,j,0.4241,Lo,,,,,,2,,,,,,,,low,16,0,16,0,1,,,,,,,,,
292930,2022-12-05_20h31.05.881,vts_reward_expectancy_bt,2022.2.4,Win32,60.01680471,Chrome,1280,720,,,,,0,949,,,,,,,,,,,,,,,,,U,146,hexagon,1,0,,,,,,,,,,,,,,,,repeat,number,numRpt,j,0.565,Hi,,,,,,2,,,,,,,,low,17,0,17,0,1,,,,,,,,,
292930,2022-12-05_20h31.05.881,vts_reward_expectancy_bt,2022.2.4,Win32,60.01680471,Chrome,1280,720,,,,,1,950,,,,,,,,,,,,,,,,,B,132,star,1,0,,,,,,,,,,,,,,,,switch,letter,lettSwt,d,0.332,Hi,,,,,,2,,,,,,,,low,18,0,18,0,1,,,,,,,,,
292930,2022-12-05_20h31.05.881,vts_reward_expectancy_bt,2022.2.4,Win32,60.01680471,Chrome,1280,720,,,,,1,951,,,,,,,,,,,,,,,,,H,174,triangle,1,0,,,,,,,,,,,,,,,,repeat,letter,lettRpt,d,0.4415,Lo,,,,,,2,,,,,,,,low,19,0,19,0,1,,,,,,,,,
292930,2022-12-05_20h31.05.881,vts_reward_expectancy_bt,2022.2.4,Win32,60.01680471,Chrome,1280,720,,,,,1,952,,,,,,,,,,,,,,,,,Y,181,triangle,1,0,,,,,,,,,,,,,,,,switch,number,numSwt,k,0.4836,Lo,,,,,,2,,,,,,,,low,20,0,20,0,1,,,,,,,,,
292930,2022-12-05_20h31.05.881,vts_reward_expectancy_bt,2022.2.4,Win32,60.01680471,Chrome,1280,720,,,,,0,952,,,,,,,,,,,,,,,,,S,125,star,1,0,,,,,,,,,,,,,,,,switch,letter,lettSwt,f,0.5112,Hi,,,,,,2,,,,,,,,low,21,0,21,0,1,,,,,,,,,
292930,2022-12-05_20h31.05.881,vts_reward_expectancy_bt,2022.2.4,Win32,60.01680471,Chrome,1280,720,,,,,0,952,,,,,,,,,,,,,,,,,D,167,hexagon,1,0,,,,,,,,,,,,,,,,switch,number,numSwt,k,0.473,Hi,,,,,,2,,,,,,,,low,22,0,22,0,1,,,,,,,,,
292930,2022-12-05_20h31.05.881,vts_reward_expectancy_bt,2022.2.4,Win32,60.01680471,Chrome,1280,720,,,,,1,953,,,,,,,,,,,,,,,,,W,160,circle,1,0,,,,,,,,,,,,,,,,switch,letter,lettSwt,f,0.4402,Lo,,,,,,2,,,,,,,,low,23,0,23,0,1,,,,,,,,,
292930,2022-12-05_20h31.05.881,vts_reward_expectancy_bt,2022.2.4,Win32,60.01680471,Chrome,1280,720,,,,,0,953,,,,,,,,,,,,,,,,,F,125,circle,0,0,,,,,,,,,,,,,,,,repeat,letter,NA,f,0.366,Lo,,,,,,2,,,,,,,,low,24,0,24,0,1,,,,,,,,,
292930,2022-12-05_20h31.05.881,vts_reward_expectancy_bt,2022.2.4,Win32,60.01680471,Chrome,1280,720,,,,,10,963,,,,,,,,,,,,,,,,,D,174,star,1,1,,,,,,,,,,,,,,,,repeat,letter,lettRpt,d,0.4574,Hi,,,,,,2,,,,,,,,low,25,0,25,0,1,,,,,,,,,
292930,2022-12-05_20h31.05.881,vts_reward_expectancy_bt,2022.2.4,Win32,60.01680471,Chrome,1280,720,,,,,1,964,,,,,,,,,,,,,,,,,Y,181,triangle,1,0,,,,,,,,,,,,,,,,switch,number,numSwt,k,0.4116,Lo,,,,,,2,,,,,,,,low,26,0,26,0,1,,,,,,,,,
292930,2022-12-05_20h31.05.881,vts_reward_expectancy_bt,2022.2.4,Win32,60.01680471,Chrome,1280,720,,,,,10,974,,,,,,,,,,,,,,,,,W,139,hexagon,1,0,,,,,,,,,,,,,,,,switch,letter,lettSwt,f,0.3033,Hi,,,,,,2,,,,,,,,low,27,0,27,0,1,,,,,,,,,
292930,2022-12-05_20h31.05.881,vts_reward_expectancy_bt,2022.2.4,Win32,60.01680471,Chrome,1280,720,,,,,1,975,,,,,,,,,,,,,,,,,B,146,hexagon,1,0,,,,,,,,,,,,,,,,switch,number,numSwt,j,0.4319,Hi,,,,,,2,,,,,,,,low,28,0,28,0,1,,,,,,,,,
292930,2022-12-05_20h31.05.881,vts_reward_expectancy_bt,2022.2.4,Win32,60.01680471,Chrome,1280,720,,,,,10,985,,,,,,,,,,,,,,,,,U,167,circle,1,0,,,,,,,,,,,,,,,,repeat,number,numRpt,k,0.6535,Lo,,,,,,2,,,,,,,,low,29,0,29,0,1,,,,,,,,,
292930,2022-12-05_20h31.05.881,vts_reward_expectancy_bt,2022.2.4,Win32,60.01680471,Chrome,1280,720,,,,,1,986,,,,,,,,,,,,,,,,,S,160,star,1,0,,,,,,,,,,,,,,,,repeat,number,numRpt,k,0.4409,Hi,,,,,,2,,,,,,,,low,30,0,30,0,1,,,,,,,,,
292930,2022-12-05_20h31.05.881,vts_reward_expectancy_bt,2022.2.4,Win32,60.01680471,Chrome,1280,720,,,,,1,987,,,,,,,,,,,,,,,,,H,132,triangle,1,0,,,,,,,,,,,,,,,,repeat,number,numRpt,j,0.4258,Lo,,,,,,2,,,,,,,,low,31,0,31,0,1,,,,,,,,,
292930,2022-12-05_20h31.05.881,vts_reward_expectancy_bt,2022.2.4,Win32,60.01680471,Chrome,1280,720,,,,,10,997,,,,,,,,,,,,,,,,,B,160,triangle,1,0,,,,,,,,,,,,,,,,repeat,number,numRpt,k,0.4111,Lo,,,,,,3,,,,,,space,6.2187,low,0,0,0,0,1,,,,,,,,,
292930,2022-12-05_20h31.05.881,vts_reward_expectancy_bt,2022.2.4,Win32,60.01680471,Chrome,1280,720,,,,,10,1007,,,,,,,,,,,,,,,,,D,181,circle,1,0,,,,,,,,,,,,,,,,repeat,number,numRpt,k,0.4327,Lo,,,,,,3,,,,,,,,low,1,0,1,0,1,,,,,,,,,
292930,2022-12-05_20h31.05.881,vts_reward_expectancy_bt,2022.2.4,Win32,60.01680471,Chrome,1280,720,,,,,1,1008,,,,,,,,,,,,,,,,,U,125,star,1,0,,,,,,,,,,,,,,,,repeat,number,numRpt,j,0.4108,Hi,,,,,,3,,,,,,,,low,2,0,2,0,1,,,,,,,,,
292930,2022-12-05_20h31.05.881,vts_reward_expectancy_bt,2022.2.4,Win32,60.01680471,Chrome,1280,720,,,,,0,1008,,,,,,,,,,,,,,,,,H,146,hexagon,0,0,,,,,,,,,,,,,,,,switch,letter,NA,f,0.4491,Hi,,,,,,3,,,,,,,,low,3,0,3,0,1,,,,,,,,,
292930,2022-12-05_20h31.05.881,vts_reward_expectancy_bt,2022.2.4,Win32,60.01680471,Chrome,1280,720,,,,,10,1018,,,,,,,,,,,,,,,,,F,139,triangle,1,1,,,,,,,,,,,,,,,,repeat,letter,lettRpt,d,0.3449,Lo,,,,,,3,,,,,,,,low,4,0,4,0,1,,,,,,,,,
292930,2022-12-05_20h31.05.881,vts_reward_expectancy_bt,2022.2.4,Win32,60.01680471,Chrome,1280,720,,,,,10,1028,,,,,,,,,,,,,,,,,S,132,circle,1,0,,,,,,,,,,,,,,,,switch,number,numSwt,j,0.3871,Lo,,,,,,3,,,,,,,,low,5,0,5,0,1,,,,,,,,,
292930,2022-12-05_20h31.05.881,vts_reward_expectancy_bt,2022.2.4,Win32,60.01680471,Chrome,1280,720,,,,,1,1029,,,,,,,,,,,,,,,,,W,167,star,1,0,,,,,,,,,,,,,,,,repeat,number,numRpt,k,0.3899,Hi,,,,,,3,,,,,,,,low,6,0,6,0,1,,,,,,,,,
292930,2022-12-05_20h31.05.881,vts_reward_expectancy_bt,2022.2.4,Win32,60.01680471,Chrome,1280,720,,,,,0,1029,,,,,,,,,,,,,,,,,Y,174,hexagon,1,0,,,,,,,,,,,,,,,,switch,letter,lettSwt,f,0.5652,Hi,,,,,,3,,,,,,,,low,7,0,7,0,1,,,,,,,,,
292930,2022-12-05_20h31.05.881,vts_reward_expectancy_bt,2022.2.4,Win32,60.01680471,Chrome,1280,720,,,,,10,1039,,,,,,,,,,,,,,,,,B,160,triangle,1,0,,,,,,,,,,,,,,,,repeat,letter,lettRpt,d,0.4146,Lo,,,,,,3,,,,,,,,low,8,0,8,0,1,,,,,,,,,
292930,2022-12-05_20h31.05.881,vts_reward_expectancy_bt,2022.2.4,Win32,60.01680471,Chrome,1280,720,,,,,10,1049,,,,,,,,,,,,,,,,,D,181,star,1,0,,,,,,,,,,,,,,,,switch,number,numSwt,k,0.382,Hi,,,,,,3,,,,,,,,low,9,0,9,0,1,,,,,,,,,
292930,2022-12-05_20h31.05.881,vts_reward_expectancy_bt,2022.2.4,Win32,60.01680471,Chrome,1280,720,,,,,10,1059,,,,,,,,,,,,,,,,,U,125,hexagon,1,0,,,,,,,,,,,,,,,,repeat,number,numRpt,j,0.3496,Hi,,,,,,3,,,,,,,,low,10,0,10,0,1,,,,,,,,,
292930,2022-12-05_20h31.05.881,vts_reward_expectancy_bt,2022.2.4,Win32,60.01680471,Chrome,1280,720,,,,,1,1060,,,,,,,,,,,,,,,,,H,146,circle,1,0,,,,,,,,,,,,,,,,switch,letter,lettSwt,d,0.5048,Lo,,,,,,3,,,,,,,,low,11,0,11,0,1,,,,,,,,,
292930,2022-12-05_20h31.05.881,vts_reward_expectancy_bt,2022.2.4,Win32,60.01680471,Chrome,1280,720,,,,,0,1060,,,,,,,,,,,,,,,,,F,139,hexagon,0,0,,,,,,,,,,,,,,,,repeat,letter,NA,f,0.3479,Lo,,,,,,3,,,,,,,,low,12,0,12,0,1,,,,,,,,,
292930,2022-12-05_20h31.05.881,vts_reward_expectancy_bt,2022.2.4,Win32,60.01680471,Chrome,1280,720,,,,,1,1061,,,,,,,,,,,,,,,,,S,132,triangle,1,1,,,,,,,,,,,,,,,,switch,number,numSwt,j,0.7816,Lo,,,,,,3,,,,,,,,low,13,0,13,0,1,,,,,,,,,
292930,2022-12-05_20h31.05.881,vts_reward_expectancy_bt,2022.2.4,Win32,60.01680471,Chrome,1280,720,,,,,0,1061,,,,,,,,,,,,,,,,,W,167,circle,0,0,,,,,,,,,,,,,,,,switch,letter,NA,d,0.3077,Lo,,,,,,3,,,,,,,,low,14,0,14,0,1,,,,,,,,,
292930,2022-12-05_20h31.05.881,vts_reward_expectancy_bt,2022.2.4,Win32,60.01680471,Chrome,1280,720,,,,,0,1061,,,,,,,,,,,,,,,,,Y,174,star,1,1,,,,,,,,,,,,,,,,repeat,letter,lettRpt,f,0.57,Hi,,,,,,3,,,,,,,,low,15,0,15,0,1,,,,,,,,,
292930,2022-12-05_20h31.05.881,vts_reward_expectancy_bt,2022.2.4,Win32,60.01680471,Chrome,1280,720,,,,,1,1062,,,,,,,,,,,,,,,,,Y,125,triangle,1,0,,,,,,,,,,,,,,,,switch,number,numSwt,j,0.479,Lo,,,,,,3,,,,,,,,low,16,0,16,0,1,,,,,,,,,
292930,2022-12-05_20h31.05.881,vts_reward_expectancy_bt,2022.2.4,Win32,60.01680471,Chrome,1280,720,,,,,0,1062,,,,,,,,,,,,,,,,,H,139,star,1,0,,,,,,,,,,,,,,,,repeat,number,numRpt,j,0.474,Hi,,,,,,3,,,,,,,,low,17,0,17,0,1,,,,,,,,,
292930,2022-12-05_20h31.05.881,vts_reward_expectancy_bt,2022.2.4,Win32,60.01680471,Chrome,1280,720,,,,,0,1062,,,,,,,,,,,,,,,,,F,132,hexagon,1,0,,,,,,,,,,,,,,,,repeat,number,numRpt,j,0.4524,Hi,,,,,,3,,,,,,,,low,18,0,18,0,1,,,,,,,,,
292930,2022-12-05_20h31.05.881,vts_reward_expectancy_bt,2022.2.4,Win32,60.01680471,Chrome,1280,720,,,,,10,1072,,,,,,,,,,,,,,,,,W,160,circle,1,0,,,,,,,,,,,,,,,,repeat,number,numRpt,k,0.5821,Lo,,,,,,3,,,,,,,,low,19,0,19,0,1,,,,,,,,,
292930,2022-12-05_20h31.05.881,vts_reward_expectancy_bt,2022.2.4,Win32,60.01680471,Chrome,1280,720,,,,,10,1082,,,,,,,,,,,,,,,,,U,167,hexagon,1,0,,,,,,,,,,,,,,,,repeat,number,numRpt,k,0.4406,Hi,,,,,,3,,,,,,,,low,20,0,20,0,1,,,,,,,,,
292930,2022-12-05_20h31.05.881,vts_reward_expectancy_bt,2022.2.4,Win32,60.01680471,Chrome,1280,720,,,,,0,1082,,,,,,,,,,,,,,,,,S,174,triangle,0,0,,,,,,,,,,,,,,,,switch,letter,NA,d,0.3244,Hi,,,,,,3,,,,,,,,low,21,0,21,0,1,,,,,,,,,
292930,2022-12-05_20h31.05.881,vts_reward_expectancy_bt,2022.2.4,Win32,60.01680471,Chrome,1280,720,,,,,10,1092,,,,,,,,,,,,,,,,,B,181,circle,1,1,,,,,,,,,,,,,,,,repeat,letter,lettRpt,d,0.4091,Lo,,,,,,3,,,,,,,,low,22,0,22,0,1,,,,,,,,,
292930,2022-12-05_20h31.05.881,vts_reward_expectancy_bt,2022.2.4,Win32,60.01680471,Chrome,1280,720,,,,,0,1092,,,,,,,,,,,,,,,,,D,146,star,1,0,,,,,,,,,,,,,,,,switch,number,numSwt,j,0.4845,Hi,,,,,,3,,,,,,,,low,23,0,23,0,1,,,,,,,,,
292930,2022-12-05_20h31.05.881,vts_reward_expectancy_bt,2022.2.4,Win32,60.01680471,Chrome,1280,720,,,,,0,1092,,,,,,,,,,,,,,,,,D,174,star,1,0,,,,,,,,,,,,,,,,repeat,number,numRpt,k,0.4886,Hi,,,,,,3,,,,,,,,low,24,0,24,0,1,,,,,,,,,
292930,2022-12-05_20h31.05.881,vts_reward_expectancy_bt,2022.2.4,Win32,60.01680471,Chrome,1280,720,,,,,0,1092,,,,,,,,,,,,,,,,,S,167,hexagon,1,0,,,,,,,,,,,,,,,,repeat,number,numRpt,k,0.4505,Hi,,,,,,3,,,,,,,,low,25,0,25,0,1,,,,,,,,,
292930,2022-12-05_20h31.05.881,vts_reward_expectancy_bt,2022.2.4,Win32,60.01680471,Chrome,1280,720,,,,,0,1092,,,,,,,,,,,,,,,,,H,146,circle,0,0,,,,,,,,,,,,,,,,switch,letter,NA,f,0.3538,Hi,,,,,,3,,,,,,,,low,26,0,26,0,1,,,,,,,,,
292930,2022-12-05_20h31.05.881,vts_reward_expectancy_bt,2022.2.4,Win32,60.01680471,Chrome,1280,720,,,,,10,1102,,,,,,,,,,,,,,,,,B,181,triangle,1,1,,,,,,,,,,,,,,,,repeat,letter,lettRpt,d,0.315,Lo,,,,,,3,,,,,,,,low,27,0,27,0,1,,,,,,,,,
292930,2022-12-05_20h31.05.881,vts_reward_expectancy_bt,2022.2.4,Win32,60.01680471,Chrome,1280,720,,,,,0,1102,,,,,,,,,,,,,,,,,W,160,triangle,0,0,,,,,,,,,,,,,,,,switch,number,NA,j,0.4233,Lo,,,,,,3,,,,,,,,low,28,0,28,0,1,,,,,,,,,
292930,2022-12-05_20h31.05.881,vts_reward_expectancy_bt,2022.2.4,Win32,60.01680471,Chrome,1280,720,,,,,10,1112,,,,,,,,,,,,,,,,,Y,132,hexagon,1,1,,,,,,,,,,,,,,,,repeat,number,numRpt,j,0.3347,Hi,,,,,,3,,,,,,,,low,29,0,29,0,1,,,,,,,,,
292930,2022-12-05_20h31.05.881,vts_reward_expectancy_bt,2022.2.4,Win32,60.01680471,Chrome,1280,720,,,,,1,1113,,,,,,,,,,,,,,,,,F,125,star,1,0,,,,,,,,,,,,,,,,repeat,number,numRpt,j,0.4052,Hi,,,,,,3,,,,,,,,low,30,0,30,0,1,,,,,,,,,
292930,2022-12-05_20h31.05.881,vts_reward_expectancy_bt,2022.2.4,Win32,60.01680471,Chrome,1280,720,,,,,1,1114,,,,,,,,,,,,,,,,,U,139,circle,1,0,,,,,,,,,,,,,,,,repeat,number,numRpt,j,0.465,Lo,,,,,,3,,,,,,,,low,31,0,31,0,1,,,,,,,,,
292930,2022-12-05_20h31.05.881,vts_reward_expectancy_bt,2022.2.4,Win32,60.01680471,Chrome,1280,720,,,,,0,1114,,,,,,,,,,,,,,,,,H,125,star,0,0,,,,,,,,,,,,,,,,repeat,number,NA,k,0.2877,Lo,,,,,,4,,,,,,space,1.3628,low,0,0,0,0,1,,,,,,,,,
292930,2022-12-05_20h31.05.881,vts_reward_expectancy_bt,2022.2.4,Win32,60.01680471,Chrome,1280,720,,,,,0,1114,,,,,,,,,,,,,,,,,D,146,hexagon,1,1,,,,,,,,,,,,,,,,repeat,number,numRpt,j,0.4924,Hi,,,,,,4,,,,,,,,low,1,0,1,0,1,,,,,,,,,
292930,2022-12-05_20h31.05.881,vts_reward_expectancy_bt,2022.2.4,Win32,60.01680471,Chrome,1280,720,,,,,10,1124,,,,,,,,,,,,,,,,,U,139,triangle,1,0,,,,,,,,,,,,,,,,repeat,number,numRpt,j,0.3398,Lo,,,,,,4,,,,,,,,low,2,0,2,0,1,,,,,,,,,
292930,2022-12-05_20h31.05.881,vts_reward_expectancy_bt,2022.2.4,Win32,60.01680471,Chrome,1280,720,,,,,0,1124,,,,,,,,,,,,,,,,,F,132,circle,0,0,,,,,,,,,,,,,,,,repeat,number,NA,k,0.2224,Lo,,,,,,4,,,,,,,,low,3,0,3,0,1,,,,,,,,,
292930,2022-12-05_20h31.05.881,vts_reward_expectancy_bt,2022.2.4,Win32,60.01680471,Chrome,1280,720,,,,,0,1124,,,,,,,,,,,,,,,,,Y,181,star,0,1,,,,,,,,,,,,,,,,repeat,number,NA,j,0.4282,Lo,,,,,,4,,,,,,,,low,4,0,4,0,1,,,,,,,,,
292930,2022-12-05_20h31.05.881,vts_reward_expectancy_bt,2022.2.4,Win32,60.01680471,Chrome,1280,720,,,,,0,1124,,,,,,,,,,,,,,,,,S,160,hexagon,0,1,,,,,,,,,,,,,,,,repeat,number,NA,j,0.3158,Lo,,,,,,4,,,,,,,,low,5,0,5,0,1,,,,,,,,,
292930,2022-12-05_20h31.05.881,vts_reward_expectancy_bt,2022.2.4,Win32,60.01680471,Chrome,1280,720,,,,,10,1134,,,,,,,,,,,,,,,,,W,174,triangle,1,1,,,,,,,,,,,,,,,,repeat,number,numRpt,k,0.3818,Lo,,,,,,4,,,,,,,,low,6,0,6,0,1,,,,,,,,,
292930,2022-12-05_20h31.05.881,vts_reward_expectancy_bt,2022.2.4,Win32,60.01680471,Chrome,1280,720,,,,,1,1135,,,,,,,,,,,,,,,,,B,167,circle,1,0,,,,,,,,,,,,,,,,repeat,number,numRpt,k,0.4176,Lo,,,,,,4,,,,,,,,low,7,0,7,0,1,,,,,,,,,
292930,2022-12-05_20h31.05.881,vts_reward_expectancy_bt,2022.2.4,Win32,60.01680471,Chrome,1280,720,,,,,10,1145,,,,,,,,,,,,,,,,,H,125,triangle,1,0,,,,,,,,,,,,,,,,switch,letter,lettSwt,d,0.4323,Lo,,,,,,4,,,,,,,,low,8,0,8,0,1,,,,,,,,,
292930,2022-12-05_20h31.05.881,vts_reward_expectancy_bt,2022.2.4,Win32,60.01680471,Chrome,1280,720,,,,,0,1145,,,,,,,,,,,,,,,,,D,146,star,1,0,,,,,,,,,,,,,,,,repeat,letter,lettRpt,d,0.4991,Hi,,,,,,4,,,,,,,,low,9,0,9,0,1,,,,,,,,,
292930,2022-12-05_20h31.05.881,vts_reward_expectancy_bt,2022.2.4,Win32,60.01680471,Chrome,1280,720,,,,,10,1155,,,,,,,,,,,,,,,,,U,139,circle,1,0,,,,,,,,,,,,,,,,switch,number,numSwt,j,0.4176,Lo,,,,,,4,,,,,,,,low,10,0,10,0,1,,,,,,,,,
292930,2022-12-05_20h31.05.881,vts_reward_expectancy_bt,2022.2.4,Win32,60.01680471,Chrome,1280,720,,,,,10,1165,,,,,,,,,,,,,,,,,F,132,hexagon,1,0,,,,,,,,,,,,,,,,switch,letter,lettSwt,d,0.3705,Hi,,,,,,4,,,,,,,,low,11,0,11,0,1,,,,,,,,,
292930,2022-12-05_20h31.05.881,vts_reward_expectancy_bt,2022.2.4,Win32,60.01680471,Chrome,1280,720,,,,,10,1175,,,,,,,,,,,,,,,,,Y,181,hexagon,1,0,,,,,,,,,,,,,,,,switch,number,numSwt,k,0.415,Hi,,,,,,4,,,,,,,,low,12,0,12,0,1,,,,,,,,,
292930,2022-12-05_20h31.05.881,vts_reward_expectancy_bt,2022.2.4,Win32,60.01680471,Chrome,1280,720,,,,,10,1185,,,,,,,,,,,,,,,,,S,160,star,1,0,,,,,,,,,,,,,,,,repeat,number,numRpt,k,0.4075,Hi,,,,,,4,,,,,,,,low,13,0,13,0,1,,,,,,,,,
292930,2022-12-05_20h31.05.881,vts_reward_expectancy_bt,2022.2.4,Win32,60.01680471,Chrome,1280,720,,,,,0,1185,,,,,,,,,,,,,,,,,W,174,circle,0,0,,,,,,,,,,,,,,,,switch,letter,NA,d,0.3028,Hi,,,,,,4,,,,,,,,low,14,0,14,0,1,,,,,,,,,
292930,2022-12-05_20h31.05.881,vts_reward_expectancy_bt,2022.2.4,Win32,60.01680471,Chrome,1280,720,,,,,1,1186,,,,,,,,,,,,,,,,,B,167,triangle,1,1,,,,,,,,,,,,,,,,repeat,letter,lettRpt,d,0.6484,Lo,,,,,,4,,,,,,,,low,15,0,15,0,1,,,,,,,,,
292930,2022-12-05_20h31.05.881,vts_reward_expectancy_bt,2022.2.4,Win32,60.01680471,Chrome,1280,720,,,,,0,1186,,,,,,,,,,,,,,,,,S,174,hexagon,1,0,,,,,,,,,,,,,,,,switch,number,numSwt,k,0.4893,Hi,,,,,,4,,,,,,,,low,16,0,16,0,1,,,,,,,,,
292930,2022-12-05_20h31.05.881,vts_reward_expectancy_bt,2022.2.4,Win32,60.01680471,Chrome,1280,720,,,,,10,1196,,,,,,,,,,,,,,,,,H,181,triangle,1,0,,,,,,,,,,,,,,,,repeat,number,numRpt,k,0.4102,Lo,,,,,,4,,,,,,,,low,17,0,17,0,1,,,,,,,,,
292930,2022-12-05_20h31.05.881,vts_reward_expectancy_bt,2022.2.4,Win32,60.01680471,Chrome,1280,720,,,,,0,1196,,,,,,,,,,,,,,,,,F,160,star,1,0,,,,,,,,,,,,,,,,repeat,number,numRpt,k,0.471,Hi,,,,,,4,,,,,,,,low,18,0,18,0,1,,,,,,,,,
292930,2022-12-05_20h31.05.881,vts_reward_expectancy_bt,2022.2.4,Win32,60.01680471,Chrome,1280,720,,,,,10,1206,,,,,,,,,,,,,,,,,Y,167,circle,1,0,,,,,,,,,,,,,,,,switch,letter,lettSwt,f,0.4112,Lo,,,,,,4,,,,,,,,low,19,0,19,0,1,,,,,,,,,
292930,2022-12-05_20h31.05.881,vts_reward_expectancy_bt,2022.2.4,Win32,60.01680471,Chrome,1280,720,,,,,0,1206,,,,,,,,,,,,,,,,,U,132,hexagon,1,0,,,,,,,,,,,,,,,,repeat,letter,lettRpt,f,0.3855,Hi,,,,,,4,,,,,,,,low,20,0,20,0,1,,,,,,,,,
292930,2022-12-05_20h31.05.881,vts_reward_expectancy_bt,2022.2.4,Win32,60.01680471,Chrome,1280,720,,,,,0,1206,,,,,,,,,,,,,,,,,W,125,star,0,0,,,,,,,,,,,,,,,,switch,number,NA,k,0.4628,Hi,,,,,,4,,,,,,,,low,21,0,21,0,1,,,,,,,,,
292930,2022-12-05_20h31.05.881,vts_reward_expectancy_bt,2022.2.4,Win32,60.01680471,Chrome,1280,720,,,,,0,1206,,,,,,,,,,,,,,,,,B,146,circle,0,1,,,,,,,,,,,,,,,,repeat,number,NA,k,0.3233,Hi,,,,,,4,,,,,,,,low,22,0,22,0,1,,,,,,,,,
292930,2022-12-05_20h31.05.881,vts_reward_expectancy_bt,2022.2.4,Win32,60.01680471,Chrome,1280,720,,,,,1,1207,,,,,,,,,,,,,,,,,D,139,triangle,1,1,,,,,,,,,,,,,,,,repeat,number,numRpt,j,0.4389,Lo,,,,,,4,,,,,,,,low,23,0,23,0,1,,,,,,,,,
292930,2022-12-05_20h31.05.881,vts_reward_expectancy_bt,2022.2.4,Win32,60.01680471,Chrome,1280,720,,,,,10,1217,,,,,,,,,,,,,,,,,U,146,hexagon,1,0,,,,,,,,,,,,,,,,switch,letter,lettSwt,f,0.4867,Hi,,,,,,4,,,,,,,,low,24,0,24,0,1,,,,,,,,,
292930,2022-12-05_20h31.05.881,vts_reward_expectancy_bt,2022.2.4,Win32,60.01680471,Chrome,1280,720,,,,,10,1227,,,,,,,,,,,,,,,,,Y,125,star,1,0,,,,,,,,,,,,,,,,switch,number,numSwt,j,0.336,Hi,,,,,,4,,,,,,,,low,25,0,25,0,1,,,,,,,,,
292930,2022-12-05_20h31.05.881,vts_reward_expectancy_bt,2022.2.4,Win32,60.01680471,Chrome,1280,720,,,,,1,1228,,,,,,,,,,,,,,,,,B,132,triangle,1,0,,,,,,,,,,,,,,,,repeat,number,numRpt,j,0.4183,Lo,,,,,,4,,,,,,,,low,26,0,26,0,1,,,,,,,,,
292930,2022-12-05_20h31.05.881,vts_reward_expectancy_bt,2022.2.4,Win32,60.01680471,Chrome,1280,720,,,,,1,1229,,,,,,,,,,,,,,,,,D,160,circle,1,0,,,,,,,,,,,,,,,,switch,letter,lettSwt,d,0.4422,Lo,,,,,,4,,,,,,,,low,27,0,27,0,1,,,,,,,,,
292930,2022-12-05_20h31.05.881,vts_reward_expectancy_bt,2022.2.4,Win32,60.01680471,Chrome,1280,720,,,,,1,1230,,,,,,,,,,,,,,,,,H,181,hexagon,1,0,,,,,,,,,,,,,,,,switch,number,numSwt,k,0.3863,Hi,,,,,,4,,,,,,,,low,28,0,28,0,1,,,,,,,,,
292930,2022-12-05_20h31.05.881,vts_reward_expectancy_bt,2022.2.4,Win32,60.01680471,Chrome,1280,720,,,,,10,1240,,,,,,,,,,,,,,,,,W,139,circle,1,0,,,,,,,,,,,,,,,,repeat,number,numRpt,j,0.3724,Lo,,,,,,4,,,,,,,,low,29,0,29,0,1,,,,,,,,,
292930,2022-12-05_20h31.05.881,vts_reward_expectancy_bt,2022.2.4,Win32,60.01680471,Chrome,1280,720,,,,,1,1241,,,,,,,,,,,,,,,,,S,174,triangle,1,0,,,,,,,,,,,,,,,,repeat,number,numRpt,k,0.4912,Lo,,,,,,4,,,,,,,,low,30,0,30,0,1,,,,,,,,,
292930,2022-12-05_20h31.05.881,vts_reward_expectancy_bt,2022.2.4,Win32,60.01680471,Chrome,1280,720,,,,,0,1241,,,,,,,,,,,,,,,,,F,167,star,0,0,,,,,,,,,,,,,,,,switch,letter,NA,f,0.4241,Lo,,,,,,4,,,,,,,,low,31,0,31,0,1,,,,,,,,,
292930,2022-12-05_20h31.05.881,vts_reward_expectancy_bt,2022.2.4,Win32,60.01680471,Chrome,1280,720,,,,,1,1242,,,,,,,,,,,,,,,,,U,181,triangle,1,1,,,,,,,,,,,,,,,,switch,number,numSwt,k,0.4114,Lo,,,,,,5,,,,,,space,1.0995,low,0,0,0,0,1,,,,,,,,,
292930,2022-12-05_20h31.05.881,vts_reward_expectancy_bt,2022.2.4,Win32,60.01680471,Chrome,1280,720,,,,,1,1243,,,,,,,,,,,,,,,,,D,125,circle,1,0,,,,,,,,,,,,,,,,repeat,number,numRpt,j,0.3015,Lo,,,,,,5,,,,,,,,low,1,0,1,0,1,,,,,,,,,
292930,2022-12-05_20h31.05.881,vts_reward_expectancy_bt,2022.2.4,Win32,60.01680471,Chrome,1280,720,,,,,0,1243,,,,,,,,,,,,,,,,,B,146,star,0,0,,,,,,,,,,,,,,,,repeat,number,NA,k,0.3265,Lo,,,,,,5,,,,,,,,low,2,0,2,0,1,,,,,,,,,
292930,2022-12-05_20h31.05.881,vts_reward_expectancy_bt,2022.2.4,Win32,60.01680471,Chrome,1280,720,,,,,1,1244,,,,,,,,,,,,,,,,,H,167,hexagon,1,1,,,,,,,,,,,,,,,,switch,letter,lettSwt,d,0.4039,Hi,,,,,,5,,,,,,,,low,3,0,3,0,1,,,,,,,,,
292930,2022-12-05_20h31.05.881,vts_reward_expectancy_bt,2022.2.4,Win32,60.01680471,Chrome,1280,720,,,,,10,1254,,,,,,,,,,,,,,,,,S,160,triangle,1,0,,,,,,,,,,,,,,,,repeat,letter,lettRpt,f,0.5284,Lo,,,,,,5,,,,,,,,low,4,0,4,0,1,,,,,,,,,
292930,2022-12-05_20h31.05.881,vts_reward_expectancy_bt,2022.2.4,Win32,60.01680471,Chrome,1280,720,,,,,10,1264,,,,,,,,,,,,,,,,,F,139,circle,1,0,,,,,,,,,,,,,,,,switch,number,numSwt,j,0.3103,Lo,,,,,,5,,,,,,,,low,5,0,5,0,1,,,,,,,,,
292930,2022-12-05_20h31.05.881,vts_reward_expectancy_bt,2022.2.4,Win32,60.01680471,Chrome,1280,720,,,,,1,1265,,,,,,,,,,,,,,,,,W,174,star,1,0,,,,,,,,,,,,,,,,repeat,number,numRpt,k,0.3192,Hi,,,,,,5,,,,,,,,low,6,0,6,0,1,,,,,,,,,
292930,2022-12-05_20h31.05.881,vts_reward_expectancy_bt,2022.2.4,Win32,60.01680471,Chrome,1280,720,,,,,10,1275,,,,,,,,,,,,,,,,,Y,132,hexagon,1,0,,,,,,,,,,,,,,,,switch,letter,lettSwt,f,0.376,Hi,,,,,,5,,,,,,,,low,7,0,7,0,1,,,,,,,,,
292930,2022-12-05_20h31.05.881,vts_reward_expectancy_bt,2022.2.4,Win32,60.01680471,Chrome,1280,720,,,,,0,1275,,,,,,,,,,,,,,,,,U,181,star,1,0,,,,,,,,,,,,,,,,repeat,letter,lettRpt,f,0.5409,Hi,,,,,,5,,,,,,,,low,8,0,8,0,1,,,,,,,,,
292930,2022-12-05_20h31.05.881,vts_reward_expectancy_bt,2022.2.4,Win32,60.01680471,Chrome,1280,720,,,,,1,1276,,,,,,,,,,,,,,,,,D,125,triangle,1,0,,,,,,,,,,,,,,,,switch,number,numSwt,j,0.3394,Lo,,,,,,5,,,,,,,,low,9,0,9,0,1,,,,,,,,,
292930,2022-12-05_20h31.05.881,vts_reward_expectancy_bt,2022.2.4,Win32,60.01680471,Chrome,1280,720,,,,,10,1286,,,,,,,,,,,,,,,,,B,146,circle,1,0,,,,,,,,,,,,,,,,repeat,number,numRpt,j,0.4516,Lo,,,,,,5,,,,,,,,low,10,0,10,0,1,,,,,,,,,
292930,2022-12-05_20h31.05.881,vts_reward_expectancy_bt,2022.2.4,Win32,60.01680471,Chrome,1280,720,,,,,1,1287,,,,,,,,,,,,,,,,,H,167,hexagon,1,0,,,,,,,,,,,,,,,,repeat,number,numRpt,k,0.3285,Hi,,,,,,5,,,,,,,,low,11,0,11,0,1,,,,,,,,,
292930,2022-12-05_20h31.05.881,vts_reward_expectancy_bt,2022.2.4,Win32,60.01680471,Chrome,1280,720,,,,,10,1297,,,,,,,,,,,,,,,,,S,160,hexagon,1,0,,,,,,,,,,,,,,,,repeat,number,numRpt,k,0.3598,Hi,,,,,,5,,,,,,,,low,12,0,12,0,1,,,,,,,,,
292930,2022-12-05_20h31.05.881,vts_reward_expectancy_bt,2022.2.4,Win32,60.01680471,Chrome,1280,720,,,,,10,1307,,,,,,,,,,,,,,,,,F,139,star,1,0,,,,,,,,,,,,,,,,repeat,number,numRpt,j,0.3649,Hi,,,,,,5,,,,,,,,low,13,0,13,0,1,,,,,,,,,
292930,2022-12-05_20h31.05.881,vts_reward_expectancy_bt,2022.2.4,Win32,60.01680471,Chrome,1280,720,,,,,0,1307,,,,,,,,,,,,,,,,,W,174,circle,0,0,,,,,,,,,,,,,,,,switch,letter,NA,d,0.3887,Hi,,,,,,5,,,,,,,,low,14,0,14,0,1,,,,,,,,,
292930,2022-12-05_20h31.05.881,vts_reward_expectancy_bt,2022.2.4,Win32,60.01680471,Chrome,1280,720,,,,,10,1317,,,,,,,,,,,,,,,,,Y,132,triangle,1,1,,,,,,,,,,,,,,,,repeat,letter,lettRpt,f,0.4754,Lo,,,,,,5,,,,,,,,low,15,0,15,0,1,,,,,,,,,
292930,2022-12-05_20h31.05.881,vts_reward_expectancy_bt,2022.2.4,Win32,60.01680471,Chrome,1280,720,,,,,10,1327,,,,,,,,,,,,,,,,,F,174,triangle,1,0,,,,,,,,,,,,,,,,switch,number,numSwt,k,0.4356,Lo,,,,,,5,,,,,,,,low,16,0,16,0,1,,,,,,,,,
292930,2022-12-05_20h31.05.881,vts_reward_expectancy_bt,2022.2.4,Win32,60.01680471,Chrome,1280,720,,,,,0,1327,,,,,,,,,,,,,,,,,B,167,star,0,0,,,,,,,,,,,,,,,,repeat,number,NA,j,0.32,Lo,,,,,,5,,,,,,,,low,17,0,17,0,1,,,,,,,,,
292930,2022-12-05_20h31.05.881,vts_reward_expectancy_bt,2022.2.4,Win32,60.01680471,Chrome,1280,720,,,,,1,1328,,,,,,,,,,,,,,,,,W,160,circle,1,1,,,,,,,,,,,,,,,,repeat,number,numRpt,k,0.3656,Lo,,,,,,5,,,,,,,,low,18,0,18,0,1,,,,,,,,,
292930,2022-12-05_20h31.05.881,vts_reward_expectancy_bt,2022.2.4,Win32,60.01680471,Chrome,1280,720,,,,,0,1328,,,,,,,,,,,,,,,,,Y,132,hexagon,0,0,,,,,,,,,,,,,,,,repeat,number,NA,k,0.4098,Lo,,,,,,5,,,,,,,,low,19,0,19,0,1,,,,,,,,,
292930,2022-12-05_20h31.05.881,vts_reward_expectancy_bt,2022.2.4,Win32,60.01680471,Chrome,1280,720,,,,,0,1328,,,,,,,,,,,,,,,,,U,146,hexagon,1,1,,,,,,,,,,,,,,,,switch,letter,lettSwt,f,0.4223,Hi,,,,,,5,,,,,,,,low,20,0,20,0,1,,,,,,,,,
292930,2022-12-05_20h31.05.881,vts_reward_expectancy_bt,2022.2.4,Win32,60.01680471,Chrome,1280,720,,,,,1,1329,,,,,,,,,,,,,,,,,H,181,circle,1,0,,,,,,,,,,,,,,,,repeat,letter,lettRpt,d,0.4598,Lo,,,,,,5,,,,,,,,low,21,0,21,0,1,,,,,,,,,
292930,2022-12-05_20h31.05.881,vts_reward_expectancy_bt,2022.2.4,Win32,60.01680471,Chrome,1280,720,,,,,10,1339,,,,,,,,,,,,,,,,,D,139,triangle,1,0,,,,,,,,,,,,,,,,switch,number,numSwt,j,0.6125,Lo,,,,,,5,,,,,,,,low,22,0,22,0,1,,,,,,,,,
292930,2022-12-05_20h31.05.881,vts_reward_expectancy_bt,2022.2.4,Win32,60.01680471,Chrome,1280,720,,,,,0,1339,,,,,,,,,,,,,,,,,S,125,star,0,0,,,,,,,,,,,,,,,,repeat,number,NA,k,0.3011,Lo,,,,,,5,,,,,,,,low,23,0,23,0,1,,,,,,,,,
292930,2022-12-05_20h31.05.881,vts_reward_expectancy_bt,2022.2.4,Win32,60.01680471,Chrome,1280,720,,,,,0,1339,,,,,,,,,,,,,,,,,B,146,star,1,1,,,,,,,,,,,,,,,,repeat,number,numRpt,j,0.5284,Hi,,,,,,5,,,,,,,,low,24,0,24,0,1,,,,,,,,,
292930,2022-12-05_20h31.05.881,vts_reward_expectancy_bt,2022.2.4,Win32,60.01680471,Chrome,1280,720,,,,,1,1340,,,,,,,,,,,,,,,,,H,181,circle,1,0,,,,,,,,,,,,,,,,repeat,number,numRpt,k,0.4251,Lo,,,,,,5,,,,,,,,low,25,0,25,0,1,,,,,,,,,
292930,2022-12-05_20h31.05.881,vts_reward_expectancy_bt,2022.2.4,Win32,60.01680471,Chrome,1280,720,,,,,10,1350,,,,,,,,,,,,,,,,,D,132,hexagon,1,0,,,,,,,,,,,,,,,,repeat,number,numRpt,j,0.3039,Hi,,,,,,5,,,,,,,,low,26,0,26,0,1,,,,,,,,,
292930,2022-12-05_20h31.05.881,vts_reward_expectancy_bt,2022.2.4,Win32,60.01680471,Chrome,1280,720,,,,,10,1360,,,,,,,,,,,,,,,,,Y,125,triangle,1,0,,,,,,,,,,,,,,,,repeat,number,numRpt,j,0.322,Lo,,,,,,5,,,,,,,,low,27,0,27,0,1,,,,,,,,,
292930,2022-12-05_20h31.05.881,vts_reward_expectancy_bt,2022.2.4,Win32,60.01680471,Chrome,1280,720,,,,,0,1360,,,,,,,,,,,,,,,,,U,174,star,1,0,,,,,,,,,,,,,,,,switch,letter,lettSwt,f,0.4651,Hi,,,,,,5,,,,,,,,low,28,0,28,0,1,,,,,,,,,
292930,2022-12-05_20h31.05.881,vts_reward_expectancy_bt,2022.2.4,Win32,60.01680471,Chrome,1280,720,,,,,1,1361,,,,,,,,,,,,,,,,,W,139,triangle,1,0,,,,,,,,,,,,,,,,repeat,letter,lettRpt,f,0.4244,Lo,,,,,,5,,,,,,,,low,29,0,29,0,1,,,,,,,,,
292930,2022-12-05_20h31.05.881,vts_reward_expectancy_bt,2022.2.4,Win32,60.01680471,Chrome,1280,720,,,,,0,1361,,,,,,,,,,,,,,,,,F,167,hexagon,1,0,,,,,,,,,,,,,,,,repeat,letter,lettRpt,d,0.483,Hi,,,,,,5,,,,,,,,low,30,0,30,0,1,,,,,,,,,
292930,2022-12-05_20h31.05.881,vts_reward_expectancy_bt,2022.2.4,Win32,60.01680471,Chrome,1280,720,,,,,1,1362,,,,,,,,,,,,,,,,,S,160,circle,1,0,,,,,,,,,,,,,,,,switch,number,numSwt,k,0.4431,Lo,,,,,,5,,,,,,,,low,31,0,31,0,1,,,,,,,,,
292930,2022-12-05_20h31.05.881,vts_reward_expectancy_bt,2022.2.4,Win32,60.01680471,Chrome,1280,720,,,,,0,1362,,,,,,,,,,,,,,,,,H,181,star,1,0,,,,,,,,,,,,,,,,repeat,number,numRpt,k,0.3918,Hi,,,,,,6,,,,,,space,1.1486,low,0,0,0,0,1,,,,,,,,,
292930,2022-12-05_20h31.05.881,vts_reward_expectancy_bt,2022.2.4,Win32,60.01680471,Chrome,1280,720,,,,,0,1362,,,,,,,,,,,,,,,,,B,174,triangle,0,0,,,,,,,,,,,,,,,,repeat,number,NA,j,0.282,Hi,,,,,,6,,,,,,,,low,1,0,1,0,1,,,,,,,,,
292930,2022-12-05_20h31.05.881,vts_reward_expectancy_bt,2022.2.4,Win32,60.01680471,Chrome,1280,720,,,,,1,1363,,,,,,,,,,,,,,,,,Y,125,circle,1,1,,,,,,,,,,,,,,,,repeat,number,numRpt,j,0.3087,Lo,,,,,,6,,,,,,,,low,2,0,2,0,1,,,,,,,,,
292930,2022-12-05_20h31.05.881,vts_reward_expectancy_bt,2022.2.4,Win32,60.01680471,Chrome,1280,720,,,,,0,1363,,,,,,,,,,,,,,,,,D,160,hexagon,1,0,,,,,,,,,,,,,,,,repeat,number,numRpt,k,0.3325,Hi,,,,,,6,,,,,,,,low,3,0,3,0,1,,,,,,,,,
292930,2022-12-05_20h31.05.881,vts_reward_expectancy_bt,2022.2.4,Win32,60.01680471,Chrome,1280,720,,,,,1,1364,,,,,,,,,,,,,,,,,S,139,star,1,0,,,,,,,,,,,,,,,,switch,letter,lettSwt,f,0.3095,Hi,,,,,,6,,,,,,,,low,4,0,4,0,1,,,,,,,,,
292930,2022-12-05_20h31.05.881,vts_reward_expectancy_bt,2022.2.4,Win32,60.01680471,Chrome,1280,720,,,,,0,1364,,,,,,,,,,,,,,,,,U,167,triangle,0,0,,,,,,,,,,,,,,,,repeat,letter,NA,d,0.331,Hi,,,,,,6,,,,,,,,low,5,0,5,0,1,,,,,,,,,
292930,2022-12-05_20h31.05.881,vts_reward_expectancy_bt,2022.2.4,Win32,60.01680471,Chrome,1280,720,,,,,1,1365,,,,,,,,,,,,,,,,,F,146,circle,1,1,,,,,,,,,,,,,,,,switch,number,numSwt,j,0.3489,Lo,,,,,,6,,,,,,,,low,6,0,6,0,1,,,,,,,,,
292930,2022-12-05_20h31.05.881,vts_reward_expectancy_bt,2022.2.4,Win32,60.01680471,Chrome,1280,720,,,,,0,1365,,,,,,,,,,,,,,,,,W,132,hexagon,1,0,,,,,,,,,,,,,,,,repeat,number,numRpt,j,0.5491,Hi,,,,,,6,,,,,,,,low,7,0,7,0,1,,,,,,,,,
292930,2022-12-05_20h31.05.881,vts_reward_expectancy_bt,2022.2.4,Win32,60.01680471,Chrome,1280,720,,,,,0,1365,,,,,,,,,,,,,,,,,H,181,hexagon,0,0,,,,,,,,,,,,,,,,repeat,number,NA,j,0.5356,Hi,,,,,,6,,,,,,,,low,8,0,8,0,1,,,,,,,,,
292930,2022-12-05_20h31.05.881,vts_reward_expectancy_bt,2022.2.4,Win32,60.01680471,Chrome,1280,720,,,,,0,1365,,,,,,,,,,,,,,,,,B,174,star,0,1,,,,,,,,,,,,,,,,switch,letter,NA,f,0.1898,Hi,,,,,,6,,,,,,,,low,9,0,9,0,1,,,,,,,,,
292930,2022-12-05_20h31.05.881,vts_reward_expectancy_bt,2022.2.4,Win32,60.01680471,Chrome,1280,720,,,,,10,1375,,,,,,,,,,,,,,,,,Y,125,circle,1,1,,,,,,,,,,,,,,,,switch,number,numSwt,j,0.383,Lo,,,,,,6,,,,,,,,low,10,0,10,0,1,,,,,,,,,
292930,2022-12-05_20h31.05.881,vts_reward_expectancy_bt,2022.2.4,Win32,60.01680471,Chrome,1280,720,,,,,10,1385,,,,,,,,,,,,,,,,,D,160,triangle,1,0,,,,,,,,,,,,,,,,repeat,number,numRpt,k,0.3328,Lo,,,,,,6,,,,,,,,low,11,0,11,0,1,,,,,,,,,
292930,2022-12-05_20h31.05.881,vts_reward_expectancy_bt,2022.2.4,Win32,60.01680471,Chrome,1280,720,,,,,10,1395,,,,,,,,,,,,,,,,,S,139,star,1,0,,,,,,,,,,,,,,,,repeat,number,numRpt,j,0.3114,Hi,,,,,,6,,,,,,,,low,12,0,12,0,1,,,,,,,,,
292930,2022-12-05_20h31.05.881,vts_reward_expectancy_bt,2022.2.4,Win32,60.01680471,Chrome,1280,720,,,,,0,1395,,,,,,,,,,,,,,,,,U,167,triangle,0,0,,,,,,,,,,,,,,,,switch,letter,NA,d,0.3212,Hi,,,,,,6,,,,,,,,low,13,0,13,0,1,,,,,,,,,
292930,2022-12-05_20h31.05.881,vts_reward_expectancy_bt,2022.2.4,Win32,60.01680471,Chrome,1280,720,,,,,0,1395,,,,,,,,,,,,,,,,,F,146,circle,0,1,,,,,,,,,,,,,,,,repeat,letter,NA,f,0.4174,Hi,,,,,,6,,,,,,,,low,14,0,14,0,1,,,,,,,,,
292930,2022-12-05_20h31.05.881,vts_reward_expectancy_bt,2022.2.4,Win32,60.01680471,Chrome,1280,720,,,,,10,1405,,,,,,,,,,,,,,,,,W,132,hexagon,1,1,,,,,,,,,,,,,,,,repeat,letter,lettRpt,f,0.4697,Hi,,,,,,6,,,,,,,,low,15,0,15,0,1,,,,,,,,,
292930,2022-12-05_20h31.05.881,vts_reward_expectancy_bt,2022.2.4,Win32,60.01680471,Chrome,1280,720,,,,,1,1406,,,,,,,,,,,,,,,,,D,160,star,1,0,,,,,,,,,,,,,,,,repeat,letter,lettRpt,d,0.3623,Hi,,,,,,6,,,,,,,,low,16,0,16,0,1,,,,,,,,,
