participant,date,expName,psychopyVersion,OS,frameRate,browser,xResolution,yResolution,key_resp.keys,key_resp.rt,training_resp.keys,training_resp.rt,points_trial,points_cumul,trainBlock,training.thisRepN,training.thisTrialN,training.thisN,training.thisIndex,training.ran,LTriangleOpac,LCircleOpac,LHexagonOpac,LStarOpac,RTriangleOpac,RCircleOpac,RHexagonOpac,RStarOpac,LShape_ID,RShape_ID,curr_topStim,curr_bottStim,curr_shape,acc,E1,target_resp_prac1.keys,target_resp_prac1.rt,pracBlock,task1_prac_trials.thisRepN,task1_prac_trials.thisTrialN,task1_prac_trials.thisN,task1_prac_trials.thisIndex,task1_prac_trials.ran,target_resp_prac2.keys,task2_praac_trials.thisRepN,task2_praac_trials.thisTrialN,task2_praac_trials.thisN,task2_praac_trials.thisIndex,task2_praac_trials.ran,target_resp_prac2.rt,alt,task,condition,target_resp.keys,target_resp.rt,rewCond,vts_practice_trials.thisRepN,vts_practice_trials.thisTrialN,vts_practice_trials.thisN,vts_practice_trials.thisIndex,vts_practice_trials.ran,blockNum,trials_norew.thisRepN,trials_norew.thisTrialN,trials_norew.thisN,trials_norew.thisIndex,trials_norew.ran,key_resp_2.keys,key_resp_2.rt,rewExpectancy,trials_rew.thisRepN,trials_rew.thisTrialN,trials_rew.thisN,trials_rew.thisIndex,trials_rew.ran,Q1,Q2,Q2_text,Q3,Q4,Q5_text,Q5,xRes,yRes
292951,2022-11-22_12h00.13.780,vts_reward_expectancy_bt,2022.2.4,MacIntel,60.0024001,Chrome,1470,956,,,,,,,,,,,,,,,,,,,,,,,,,,,,,,,,,,,,,,,,,,,,,,,,,,,,,,,,,,,,,,,,,,,,,,,,,,,,
292951,2022-11-22_12h00.13.780,vts_reward_expectancy_bt,2022.2.4,MacIntel,60.0024001,Chrome,1470,956,space,1671.2817,,,,,,,,,,,,,,,,,,,,,,,,,,,,,,,,,,,,,,,,,,,,,,,,,,,,,,,,,,,,,,,,,,,,,,,,,,
292951,2022-11-22_12h00.13.780,vts_reward_expectancy_bt,2022.2.4,MacIntel,60.0024001,Chrome,1470,956,,,,,,,,,,,,,,,,,,,,,,,,,,,,,,,,,,,,,,,,,,,,,,,,,,,,,,,,,,,,,,,,,,,,,,,,,,,,
292951,2022-11-22_12h00.13.780,vts_reward_expectancy_bt,2022.2.4,MacIntel,60.0024001,Chrome,1470,956,,,a,5.1502,1,1,0,0,0,0,9,1,0,0,0,1,1,0,0,0,star,triangle,,,,,,,,,,,,,,,,,,,,,,,,,,,,,,,,,,,,,,,,,,,,,,,,,,,,,,
292951,2022-11-22_12h00.13.780,vts_reward_expectancy_bt,2022.2.4,MacIntel,60.0024001,Chrome,1470,956,,,l,3.0316,10,11,0,0,1,1,1,1,1,0,0,0,0,0,1,0,triangle,hexagon,,,,,,,,,,,,,,,,,,,,,,,,,,,,,,,,,,,,,,,,,,,,,,,,,,,,,,
292951,2022-11-22_12h00.13.780,vts_reward_expectancy_bt,2022.2.4,MacIntel,60.0024001,Chrome,1470,956,,,l,1.4256,1,12,0,0,2,2,0,1,1,0,0,0,0,1,0,0,triangle,circle,,,,,,,,,,,,,,,,,,,,,,,,,,,,,,,,,,,,,,,,,,,,,,,,,,,,,,
292951,2022-11-22_12h00.13.780,vts_reward_expectancy_bt,2022.2.4,MacIntel,60.0024001,Chrome,1470,956,,,a,1.4659,10,22,0,0,3,3,2,1,1,0,0,0,0,0,0,1,triangle,star,,,,,,,,,,,,,,,,,,,,,,,,,,,,,,,,,,,,,,,,,,,,,,,,,,,,,,
292951,2022-11-22_12h00.13.780,vts_reward_expectancy_bt,2022.2.4,MacIntel,60.0024001,Chrome,1470,956,,,a,0.9901,10,32,0,0,4,4,11,1,0,0,0,1,0,0,1,0,star,hexagon,,,,,,,,,,,,,,,,,,,,,,,,,,,,,,,,,,,,,,,,,,,,,,,,,,,,,,
292951,2022-11-22_12h00.13.780,vts_reward_expectancy_bt,2022.2.4,MacIntel,60.0024001,Chrome,1470,956,,,l,1.1082,10,42,0,0,5,5,5,1,0,1,0,0,0,0,0,1,circle,star,,,,,,,,,,,,,,,,,,,,,,,,,,,,,,,,,,,,,,,,,,,,,,,,,,,,,,
292951,2022-11-22_12h00.13.780,vts_reward_expectancy_bt,2022.2.4,MacIntel,60.0024001,Chrome,1470,956,,,l,0.8161,10,52,0,0,6,6,8,1,0,0,1,0,0,0,0,1,hexagon,star,,,,,,,,,,,,,,,,,,,,,,,,,,,,,,,,,,,,,,,,,,,,,,,,,,,,,,
292951,2022-11-22_12h00.13.780,vts_reward_expectancy_bt,2022.2.4,MacIntel,60.0024001,Chrome,1470,956,,,a,1.5088,10,62,0,0,7,7,10,1,0,0,0,1,0,1,0,0,star ,circle,,,,,,,,,,,,,,,,,,,,,,,,,,,,,,,,,,,,,,,,,,,,,,,,,,,,,,
292951,2022-11-22_12h00.13.780,vts_reward_expectancy_bt,2022.2.4,MacIntel,60.0024001,Chrome,1470,956,,,l,0.8524,10,72,0,0,8,8,3,1,0,1,0,0,1,0,0,0,circle,triangle,,,,,,,,,,,,,,,,,,,,,,,,,,,,,,,,,,,,,,,,,,,,,,,,,,,,,,
292951,2022-11-22_12h00.13.780,vts_reward_expectancy_bt,2022.2.4,MacIntel,60.0024001,Chrome,1470,956,,,a,1.3264,1,73,0,0,9,9,4,1,0,1,0,0,0,0,1,0,circle,hexagon,,,,,,,,,,,,,,,,,,,,,,,,,,,,,,,,,,,,,,,,,,,,,,,,,,,,,,
292951,2022-11-22_12h00.13.780,vts_reward_expectancy_bt,2022.2.4,MacIntel,60.0024001,Chrome,1470,956,,,l,1.4338,10,83,0,0,10,10,6,1,0,0,1,0,1,0,0,0,hexagon,triangle,,,,,,,,,,,,,,,,,,,,,,,,,,,,,,,,,,,,,,,,,,,,,,,,,,,,,,
292951,2022-11-22_12h00.13.780,vts_reward_expectancy_bt,2022.2.4,MacIntel,60.0024001,Chrome,1470,956,,,a,2.8658,1,84,0,0,11,11,7,1,0,0,1,0,0,1,0,0,hexagon,circle,,,,,,,,,,,,,,,,,,,,,,,,,,,,,,,,,,,,,,,,,,,,,,,,,,,,,,
292951,2022-11-22_12h00.13.780,vts_reward_expectancy_bt,2022.2.4,MacIntel,60.0024001,Chrome,1470,956,,,l,0.8921,10,94,0,1,0,12,2,1,1,0,0,0,0,0,0,1,triangle,star,,,,,,,,,,,,,,,,,,,,,,,,,,,,,,,,,,,,,,,,,,,,,,,,,,,,,,
292951,2022-11-22_12h00.13.780,vts_reward_expectancy_bt,2022.2.4,MacIntel,60.0024001,Chrome,1470,956,,,l,1.0826,10,104,0,1,1,13,6,1,0,0,1,0,1,0,0,0,hexagon,triangle,,,,,,,,,,,,,,,,,,,,,,,,,,,,,,,,,,,,,,,,,,,,,,,,,,,,,,
292951,2022-11-22_12h00.13.780,vts_reward_expectancy_bt,2022.2.4,MacIntel,60.0024001,Chrome,1470,956,,,a,1.3234,10,114,0,1,2,14,1,1,1,0,0,0,0,0,1,0,triangle,hexagon,,,,,,,,,,,,,,,,,,,,,,,,,,,,,,,,,,,,,,,,,,,,,,,,,,,,,,
292951,2022-11-22_12h00.13.780,vts_reward_expectancy_bt,2022.2.4,MacIntel,60.0024001,Chrome,1470,956,,,a,1.0397,10,124,0,1,3,15,10,1,0,0,0,1,0,1,0,0,star ,circle,,,,,,,,,,,,,,,,,,,,,,,,,,,,,,,,,,,,,,,,,,,,,,,,,,,,,,
292951,2022-11-22_12h00.13.780,vts_reward_expectancy_bt,2022.2.4,MacIntel,60.0024001,Chrome,1470,956,,,a,0.9936,10,134,0,1,4,16,9,1,0,0,0,1,1,0,0,0,star,triangle,,,,,,,,,,,,,,,,,,,,,,,,,,,,,,,,,,,,,,,,,,,,,,,,,,,,,,
292951,2022-11-22_12h00.13.780,vts_reward_expectancy_bt,2022.2.4,MacIntel,60.0024001,Chrome,1470,956,,,a,1.8331,10,144,0,1,5,17,0,1,1,0,0,0,0,1,0,0,triangle,circle,,,,,,,,,,,,,,,,,,,,,,,,,,,,,,,,,,,,,,,,,,,,,,,,,,,,,,
292951,2022-11-22_12h00.13.780,vts_reward_expectancy_bt,2022.2.4,MacIntel,60.0024001,Chrome,1470,956,,,a,1.6764,1,145,0,1,6,18,7,1,0,0,1,0,0,1,0,0,hexagon,circle,,,,,,,,,,,,,,,,,,,,,,,,,,,,,,,,,,,,,,,,,,,,,,,,,,,,,,
292951,2022-11-22_12h00.13.780,vts_reward_expectancy_bt,2022.2.4,MacIntel,60.0024001,Chrome,1470,956,,,a,5.694,10,155,0,1,7,19,11,1,0,0,0,1,0,0,1,0,star,hexagon,,,,,,,,,,,,,,,,,,,,,,,,,,,,,,,,,,,,,,,,,,,,,,,,,,,,,,
292951,2022-11-22_12h00.13.780,vts_reward_expectancy_bt,2022.2.4,MacIntel,60.0024001,Chrome,1470,956,,,l,1.6751,1,156,0,1,8,20,4,1,0,1,0,0,0,0,1,0,circle,hexagon,,,,,,,,,,,,,,,,,,,,,,,,,,,,,,,,,,,,,,,,,,,,,,,,,,,,,,
292951,2022-11-22_12h00.13.780,vts_reward_expectancy_bt,2022.2.4,MacIntel,60.0024001,Chrome,1470,956,,,a,2.3981,1,157,0,1,9,21,3,1,0,1,0,0,1,0,0,0,circle,triangle,,,,,,,,,,,,,,,,,,,,,,,,,,,,,,,,,,,,,,,,,,,,,,,,,,,,,,
292951,2022-11-22_12h00.13.780,vts_reward_expectancy_bt,2022.2.4,MacIntel,60.0024001,Chrome,1470,956,,,l,0.9597,10,167,0,1,10,22,8,1,0,0,1,0,0,0,0,1,hexagon,star,,,,,,,,,,,,,,,,,,,,,,,,,,,,,,,,,,,,,,,,,,,,,,,,,,,,,,
292951,2022-11-22_12h00.13.780,vts_reward_expectancy_bt,2022.2.4,MacIntel,60.0024001,Chrome,1470,956,,,l,0.8984,10,177,0,1,11,23,5,1,0,1,0,0,0,0,0,1,circle,star,,,,,,,,,,,,,,,,,,,,,,,,,,,,,,,,,,,,,,,,,,,,,,,,,,,,,,
292951,2022-11-22_12h00.13.780,vts_reward_expectancy_bt,2022.2.4,MacIntel,60.0024001,Chrome,1470,956,,,l,1.3303,1,178,0,2,0,24,8,1,0,0,1,0,0,0,0,1,hexagon,star,,,,,,,,,,,,,,,,,,,,,,,,,,,,,,,,,,,,,,,,,,,,,,,,,,,,,,
292951,2022-11-22_12h00.13.780,vts_reward_expectancy_bt,2022.2.4,MacIntel,60.0024001,Chrome,1470,956,,,a,1.5921,10,188,0,2,1,25,9,1,0,0,0,1,1,0,0,0,star,triangle,,,,,,,,,,,,,,,,,,,,,,,,,,,,,,,,,,,,,,,,,,,,,,,,,,,,,,
292951,2022-11-22_12h00.13.780,vts_reward_expectancy_bt,2022.2.4,MacIntel,60.0024001,Chrome,1470,956,,,l,102.9231,10,198,0,2,2,26,3,1,0,1,0,0,1,0,0,0,circle,triangle,,,,,,,,,,,,,,,,,,,,,,,,,,,,,,,,,,,,,,,,,,,,,,,,,,,,,,
292951,2022-11-22_12h00.13.780,vts_reward_expectancy_bt,2022.2.4,MacIntel,60.0024001,Chrome,1470,956,,,l,1.1082,10,208,0,2,3,27,5,1,0,1,0,0,0,0,0,1,circle,star,,,,,,,,,,,,,,,,,,,,,,,,,,,,,,,,,,,,,,,,,,,,,,,,,,,,,,
292951,2022-11-22_12h00.13.780,vts_reward_expectancy_bt,2022.2.4,MacIntel,60.0024001,Chrome,1470,956,,,a,6.5207,10,218,0,2,4,28,7,1,0,0,1,0,0,1,0,0,hexagon,circle,,,,,,,,,,,,,,,,,,,,,,,,,,,,,,,,,,,,,,,,,,,,,,,,,,,,,,
292951,2022-11-22_12h00.13.780,vts_reward_expectancy_bt,2022.2.4,MacIntel,60.0024001,Chrome,1470,956,,,a,1.0095,10,228,0,2,5,29,11,1,0,0,0,1,0,0,1,0,star,hexagon,,,,,,,,,,,,,,,,,,,,,,,,,,,,,,,,,,,,,,,,,,,,,,,,,,,,,,
292951,2022-11-22_12h00.13.780,vts_reward_expectancy_bt,2022.2.4,MacIntel,60.0024001,Chrome,1470,956,,,l,1.1954,10,238,0,2,6,30,2,1,1,0,0,0,0,0,0,1,triangle,star,,,,,,,,,,,,,,,,,,,,,,,,,,,,,,,,,,,,,,,,,,,,,,,,,,,,,,
292951,2022-11-22_12h00.13.780,vts_reward_expectancy_bt,2022.2.4,MacIntel,60.0024001,Chrome,1470,956,,,l,1.5553,10,248,0,2,7,31,6,1,0,0,1,0,1,0,0,0,hexagon,triangle,,,,,,,,,,,,,,,,,,,,,,,,,,,,,,,,,,,,,,,,,,,,,,,,,,,,,,
292951,2022-11-22_12h00.13.780,vts_reward_expectancy_bt,2022.2.4,MacIntel,60.0024001,Chrome,1470,956,,,l,2.4256,1,249,0,2,8,32,4,1,0,1,0,0,0,0,1,0,circle,hexagon,,,,,,,,,,,,,,,,,,,,,,,,,,,,,,,,,,,,,,,,,,,,,,,,,,,,,,
292951,2022-11-22_12h00.13.780,vts_reward_expectancy_bt,2022.2.4,MacIntel,60.0024001,Chrome,1470,956,,,a,1.7179,1,250,0,2,9,33,1,1,1,0,0,0,0,0,1,0,triangle,hexagon,,,,,,,,,,,,,,,,,,,,,,,,,,,,,,,,,,,,,,,,,,,,,,,,,,,,,,
292951,2022-11-22_12h00.13.780,vts_reward_expectancy_bt,2022.2.4,MacIntel,60.0024001,Chrome,1470,956,,,a,1.178,1,251,0,2,10,34,10,1,0,0,0,1,0,1,0,0,star ,circle,,,,,,,,,,,,,,,,,,,,,,,,,,,,,,,,,,,,,,,,,,,,,,,,,,,,,,
292951,2022-11-22_12h00.13.780,vts_reward_expectancy_bt,2022.2.4,MacIntel,60.0024001,Chrome,1470,956,,,l,0.8421,1,252,0,2,11,35,0,1,1,0,0,0,0,1,0,0,triangle,circle,,,,,,,,,,,,,,,,,,,,,,,,,,,,,,,,,,,,,,,,,,,,,,,,,,,,,,
292951,2022-11-22_12h00.13.780,vts_reward_expectancy_bt,2022.2.4,MacIntel,60.0024001,Chrome,1470,956,,,l,1.1319,10,262,1,0,0,0,8,1,0,0,1,0,0,0,0,1,hexagon,star,,,,,,,,,,,,,,,,,,,,,,,,,,,,,,,,,,,,,,,,,,,,,,,,,,,,,,
292951,2022-11-22_12h00.13.780,vts_reward_expectancy_bt,2022.2.4,MacIntel,60.0024001,Chrome,1470,956,,,l,0.8324,10,272,1,0,1,1,3,1,0,1,0,0,1,0,0,0,circle,triangle,,,,,,,,,,,,,,,,,,,,,,,,,,,,,,,,,,,,,,,,,,,,,,,,,,,,,,
292951,2022-11-22_12h00.13.780,vts_reward_expectancy_bt,2022.2.4,MacIntel,60.0024001,Chrome,1470,956,,,l,1.1065,10,282,1,0,2,2,2,1,1,0,0,0,0,0,0,1,triangle,star,,,,,,,,,,,,,,,,,,,,,,,,,,,,,,,,,,,,,,,,,,,,,,,,,,,,,,
292951,2022-11-22_12h00.13.780,vts_reward_expectancy_bt,2022.2.4,MacIntel,60.0024001,Chrome,1470,956,,,a,1.8513,10,292,1,0,3,3,9,1,0,0,0,1,1,0,0,0,star,triangle,,,,,,,,,,,,,,,,,,,,,,,,,,,,,,,,,,,,,,,,,,,,,,,,,,,,,,
292951,2022-11-22_12h00.13.780,vts_reward_expectancy_bt,2022.2.4,MacIntel,60.0024001,Chrome,1470,956,,,a,1.0478,10,302,1,0,4,4,11,1,0,0,0,1,0,0,1,0,star,hexagon,,,,,,,,,,,,,,,,,,,,,,,,,,,,,,,,,,,,,,,,,,,,,,,,,,,,,,
292951,2022-11-22_12h00.13.780,vts_reward_expectancy_bt,2022.2.4,MacIntel,60.0024001,Chrome,1470,956,,,a,3.215,10,312,1,0,5,5,1,1,1,0,0,0,0,0,1,0,triangle,hexagon,,,,,,,,,,,,,,,,,,,,,,,,,,,,,,,,,,,,,,,,,,,,,,,,,,,,,,
292951,2022-11-22_12h00.13.780,vts_reward_expectancy_bt,2022.2.4,MacIntel,60.0024001,Chrome,1470,956,,,a,1.0262,10,322,1,0,6,6,10,1,0,0,0,1,0,1,0,0,star ,circle,,,,,,,,,,,,,,,,,,,,,,,,,,,,,,,,,,,,,,,,,,,,,,,,,,,,,,
292951,2022-11-22_12h00.13.780,vts_reward_expectancy_bt,2022.2.4,MacIntel,60.0024001,Chrome,1470,956,,,l,0.9421,10,332,1,0,7,7,5,1,0,1,0,0,0,0,0,1,circle,star,,,,,,,,,,,,,,,,,,,,,,,,,,,,,,,,,,,,,,,,,,,,,,,,,,,,,,
292951,2022-11-22_12h00.13.780,vts_reward_expectancy_bt,2022.2.4,MacIntel,60.0024001,Chrome,1470,956,,,a,2.3341,1,333,1,0,8,8,7,1,0,0,1,0,0,1,0,0,hexagon,circle,,,,,,,,,,,,,,,,,,,,,,,,,,,,,,,,,,,,,,,,,,,,,,,,,,,,,,
292951,2022-11-22_12h00.13.780,vts_reward_expectancy_bt,2022.2.4,MacIntel,60.0024001,Chrome,1470,956,,,l,1.3923,10,343,1,0,9,9,6,1,0,0,1,0,1,0,0,0,hexagon,triangle,,,,,,,,,,,,,,,,,,,,,,,,,,,,,,,,,,,,,,,,,,,,,,,,,,,,,,
292951,2022-11-22_12h00.13.780,vts_reward_expectancy_bt,2022.2.4,MacIntel,60.0024001,Chrome,1470,956,,,l,5.2001,1,344,1,0,10,10,4,1,0,1,0,0,0,0,1,0,circle,hexagon,,,,,,,,,,,,,,,,,,,,,,,,,,,,,,,,,,,,,,,,,,,,,,,,,,,,,,
292951,2022-11-22_12h00.13.780,vts_reward_expectancy_bt,2022.2.4,MacIntel,60.0024001,Chrome,1470,956,,,a,1.0673,10,354,1,0,11,11,0,1,1,0,0,0,0,1,0,0,triangle,circle,,,,,,,,,,,,,,,,,,,,,,,,,,,,,,,,,,,,,,,,,,,,,,,,,,,,,,
292951,2022-11-22_12h00.13.780,vts_reward_expectancy_bt,2022.2.4,MacIntel,60.0024001,Chrome,1470,956,,,l,8.3001,10,364,1,1,0,12,5,1,0,1,0,0,0,0,0,1,circle,star,,,,,,,,,,,,,,,,,,,,,,,,,,,,,,,,,,,,,,,,,,,,,,,,,,,,,,
292951,2022-11-22_12h00.13.780,vts_reward_expectancy_bt,2022.2.4,MacIntel,60.0024001,Chrome,1470,956,,,l,6.242,10,374,1,1,1,13,3,1,0,1,0,0,1,0,0,0,circle,triangle,,,,,,,,,,,,,,,,,,,,,,,,,,,,,,,,,,,,,,,,,,,,,,,,,,,,,,
292951,2022-11-22_12h00.13.780,vts_reward_expectancy_bt,2022.2.4,MacIntel,60.0024001,Chrome,1470,956,,,a,4.1323,10,384,1,1,2,14,11,1,0,0,0,1,0,0,1,0,star,hexagon,,,,,,,,,,,,,,,,,,,,,,,,,,,,,,,,,,,,,,,,,,,,,,,,,,,,,,
292951,2022-11-22_12h00.13.780,vts_reward_expectancy_bt,2022.2.4,MacIntel,60.0024001,Chrome,1470,956,,,a,0.8078,10,394,1,1,3,15,10,1,0,0,0,1,0,1,0,0,star ,circle,,,,,,,,,,,,,,,,,,,,,,,,,,,,,,,,,,,,,,,,,,,,,,,,,,,,,,
292951,2022-11-22_12h00.13.780,vts_reward_expectancy_bt,2022.2.4,MacIntel,60.0024001,Chrome,1470,956,,,a,1.5069,1,395,1,1,4,16,7,1,0,0,1,0,0,1,0,0,hexagon,circle,,,,,,,,,,,,,,,,,,,,,,,,,,,,,,,,,,,,,,,,,,,,,,,,,,,,,,
292951,2022-11-22_12h00.13.780,vts_reward_expectancy_bt,2022.2.4,MacIntel,60.0024001,Chrome,1470,956,,,a,0.9424,10,405,1,1,5,17,9,1,0,0,0,1,1,0,0,0,star,triangle,,,,,,,,,,,,,,,,,,,,,,,,,,,,,,,,,,,,,,,,,,,,,,,,,,,,,,
292951,2022-11-22_12h00.13.780,vts_reward_expectancy_bt,2022.2.4,MacIntel,60.0024001,Chrome,1470,956,,,l,1.3826,1,406,1,1,6,18,1,1,1,0,0,0,0,0,1,0,triangle,hexagon,,,,,,,,,,,,,,,,,,,,,,,,,,,,,,,,,,,,,,,,,,,,,,,,,,,,,,
292951,2022-11-22_12h00.13.780,vts_reward_expectancy_bt,2022.2.4,MacIntel,60.0024001,Chrome,1470,956,,,a,1.8802,10,416,1,1,7,19,0,1,1,0,0,0,0,1,0,0,triangle,circle,,,,,,,,,,,,,,,,,,,,,,,,,,,,,,,,,,,,,,,,,,,,,,,,,,,,,,
292951,2022-11-22_12h00.13.780,vts_reward_expectancy_bt,2022.2.4,MacIntel,60.0024001,Chrome,1470,956,,,l,2.1251,10,426,1,1,8,20,6,1,0,0,1,0,1,0,0,0,hexagon,triangle,,,,,,,,,,,,,,,,,,,,,,,,,,,,,,,,,,,,,,,,,,,,,,,,,,,,,,
292951,2022-11-22_12h00.13.780,vts_reward_expectancy_bt,2022.2.4,MacIntel,60.0024001,Chrome,1470,956,,,a,2.8421,1,427,1,1,9,21,4,1,0,1,0,0,0,0,1,0,circle,hexagon,,,,,,,,,,,,,,,,,,,,,,,,,,,,,,,,,,,,,,,,,,,,,,,,,,,,,,
292951,2022-11-22_12h00.13.780,vts_reward_expectancy_bt,2022.2.4,MacIntel,60.0024001,Chrome,1470,956,,,l,1.2796,10,437,1,1,10,22,2,1,1,0,0,0,0,0,0,1,triangle,star,,,,,,,,,,,,,,,,,,,,,,,,,,,,,,,,,,,,,,,,,,,,,,,,,,,,,,
292951,2022-11-22_12h00.13.780,vts_reward_expectancy_bt,2022.2.4,MacIntel,60.0024001,Chrome,1470,956,,,l,0.8777,10,447,1,1,11,23,8,1,0,0,1,0,0,0,0,1,hexagon,star,,,,,,,,,,,,,,,,,,,,,,,,,,,,,,,,,,,,,,,,,,,,,,,,,,,,,,
292951,2022-11-22_12h00.13.780,vts_reward_expectancy_bt,2022.2.4,MacIntel,60.0024001,Chrome,1470,956,,,a,2.2421,10,457,1,2,0,24,0,1,1,0,0,0,0,1,0,0,triangle,circle,,,,,,,,,,,,,,,,,,,,,,,,,,,,,,,,,,,,,,,,,,,,,,,,,,,,,,
292951,2022-11-22_12h00.13.780,vts_reward_expectancy_bt,2022.2.4,MacIntel,60.0024001,Chrome,1470,956,,,a,1.2418,10,467,1,2,1,25,11,1,0,0,0,1,0,0,1,0,star,hexagon,,,,,,,,,,,,,,,,,,,,,,,,,,,,,,,,,,,,,,,,,,,,,,,,,,,,,,
292951,2022-11-22_12h00.13.780,vts_reward_expectancy_bt,2022.2.4,MacIntel,60.0024001,Chrome,1470,956,,,l,1.1584,10,477,1,2,2,26,6,1,0,0,1,0,1,0,0,0,hexagon,triangle,,,,,,,,,,,,,,,,,,,,,,,,,,,,,,,,,,,,,,,,,,,,,,,,,,,,,,
292951,2022-11-22_12h00.13.780,vts_reward_expectancy_bt,2022.2.4,MacIntel,60.0024001,Chrome,1470,956,,,l,1.5804,10,487,1,2,3,27,5,1,0,1,0,0,0,0,0,1,circle,star,,,,,,,,,,,,,,,,,,,,,,,,,,,,,,,,,,,,,,,,,,,,,,,,,,,,,,
292951,2022-11-22_12h00.13.780,vts_reward_expectancy_bt,2022.2.4,MacIntel,60.0024001,Chrome,1470,956,,,a,7.6249,10,497,1,2,4,28,1,1,1,0,0,0,0,0,1,0,triangle,hexagon,,,,,,,,,,,,,,,,,,,,,,,,,,,,,,,,,,,,,,,,,,,,,,,,,,,,,,
292951,2022-11-22_12h00.13.780,vts_reward_expectancy_bt,2022.2.4,MacIntel,60.0024001,Chrome,1470,956,,,a,1.9242,1,498,1,2,5,29,7,1,0,0,1,0,0,1,0,0,hexagon,circle,,,,,,,,,,,,,,,,,,,,,,,,,,,,,,,,,,,,,,,,,,,,,,,,,,,,,,
292951,2022-11-22_12h00.13.780,vts_reward_expectancy_bt,2022.2.4,MacIntel,60.0024001,Chrome,1470,956,,,a,1.4544,1,499,1,2,6,30,4,1,0,1,0,0,0,0,1,0,circle,hexagon,,,,,,,,,,,,,,,,,,,,,,,,,,,,,,,,,,,,,,,,,,,,,,,,,,,,,,
292951,2022-11-22_12h00.13.780,vts_reward_expectancy_bt,2022.2.4,MacIntel,60.0024001,Chrome,1470,956,,,l,5.0583,10,509,1,2,7,31,8,1,0,0,1,0,0,0,0,1,hexagon,star,,,,,,,,,,,,,,,,,,,,,,,,,,,,,,,,,,,,,,,,,,,,,,,,,,,,,,
292951,2022-11-22_12h00.13.780,vts_reward_expectancy_bt,2022.2.4,MacIntel,60.0024001,Chrome,1470,956,,,a,1.2584,10,519,1,2,8,32,9,1,0,0,0,1,1,0,0,0,star,triangle,,,,,,,,,,,,,,,,,,,,,,,,,,,,,,,,,,,,,,,,,,,,,,,,,,,,,,
292951,2022-11-22_12h00.13.780,vts_reward_expectancy_bt,2022.2.4,MacIntel,60.0024001,Chrome,1470,956,,,a,1.8662,10,529,1,2,9,33,10,1,0,0,0,1,0,1,0,0,star ,circle,,,,,,,,,,,,,,,,,,,,,,,,,,,,,,,,,,,,,,,,,,,,,,,,,,,,,,
292951,2022-11-22_12h00.13.780,vts_reward_expectancy_bt,2022.2.4,MacIntel,60.0024001,Chrome,1470,956,,,l,1.2805,10,539,1,2,10,34,2,1,1,0,0,0,0,0,0,1,triangle,star,,,,,,,,,,,,,,,,,,,,,,,,,,,,,,,,,,,,,,,,,,,,,,,,,,,,,,
292951,2022-11-22_12h00.13.780,vts_reward_expectancy_bt,2022.2.4,MacIntel,60.0024001,Chrome,1470,956,,,l,1.5417,10,549,1,2,11,35,3,1,0,1,0,0,1,0,0,0,circle,triangle,,,,,,,,,,,,,,,,,,,,,,,,,,,,,,,,,,,,,,,,,,,,,,,,,,,,,,
292951,2022-11-22_12h00.13.780,vts_reward_expectancy_bt,2022.2.4,MacIntel,60.0024001,Chrome,1470,956,,,a,1.1376,10,559,2,0,0,0,10,1,0,0,0,1,0,1,0,0,star ,circle,,,,,,,,,,,,,,,,,,,,,,,,,,,,,,,,,,,,,,,,,,,,,,,,,,,,,,
292951,2022-11-22_12h00.13.780,vts_reward_expectancy_bt,2022.2.4,MacIntel,60.0024001,Chrome,1470,956,,,l,0.9166,10,569,2,0,1,1,8,1,0,0,1,0,0,0,0,1,hexagon,star,,,,,,,,,,,,,,,,,,,,,,,,,,,,,,,,,,,,,,,,,,,,,,,,,,,,,,
292951,2022-11-22_12h00.13.780,vts_reward_expectancy_bt,2022.2.4,MacIntel,60.0024001,Chrome,1470,956,,,a,1.3118,10,579,2,0,2,2,9,1,0,0,0,1,1,0,0,0,star,triangle,,,,,,,,,,,,,,,,,,,,,,,,,,,,,,,,,,,,,,,,,,,,,,,,,,,,,,
292951,2022-11-22_12h00.13.780,vts_reward_expectancy_bt,2022.2.4,MacIntel,60.0024001,Chrome,1470,956,,,l,1.4321,1,580,2,0,3,3,1,1,1,0,0,0,0,0,1,0,triangle,hexagon,,,,,,,,,,,,,,,,,,,,,,,,,,,,,,,,,,,,,,,,,,,,,,,,,,,,,,
292951,2022-11-22_12h00.13.780,vts_reward_expectancy_bt,2022.2.4,MacIntel,60.0024001,Chrome,1470,956,,,a,0.8805,10,590,2,0,4,4,0,1,1,0,0,0,0,1,0,0,triangle,circle,,,,,,,,,,,,,,,,,,,,,,,,,,,,,,,,,,,,,,,,,,,,,,,,,,,,,,
292951,2022-11-22_12h00.13.780,vts_reward_expectancy_bt,2022.2.4,MacIntel,60.0024001,Chrome,1470,956,,,l,0.7152,10,600,2,0,5,5,3,1,0,1,0,0,1,0,0,0,circle,triangle,,,,,,,,,,,,,,,,,,,,,,,,,,,,,,,,,,,,,,,,,,,,,,,,,,,,,,
292951,2022-11-22_12h00.13.780,vts_reward_expectancy_bt,2022.2.4,MacIntel,60.0024001,Chrome,1470,956,,,a,1.5954,1,601,2,0,6,6,4,1,0,1,0,0,0,0,1,0,circle,hexagon,,,,,,,,,,,,,,,,,,,,,,,,,,,,,,,,,,,,,,,,,,,,,,,,,,,,,,
292951,2022-11-22_12h00.13.780,vts_reward_expectancy_bt,2022.2.4,MacIntel,60.0024001,Chrome,1470,956,,,a,0.8426,10,611,2,0,7,7,11,1,0,0,0,1,0,0,1,0,star,hexagon,,,,,,,,,,,,,,,,,,,,,,,,,,,,,,,,,,,,,,,,,,,,,,,,,,,,,,
292951,2022-11-22_12h00.13.780,vts_reward_expectancy_bt,2022.2.4,MacIntel,60.0024001,Chrome,1470,956,,,l,0.6166,10,621,2,0,8,8,2,1,1,0,0,0,0,0,0,1,triangle,star,,,,,,,,,,,,,,,,,,,,,,,,,,,,,,,,,,,,,,,,,,,,,,,,,,,,,,
292951,2022-11-22_12h00.13.780,vts_reward_expectancy_bt,2022.2.4,MacIntel,60.0024001,Chrome,1470,956,,,l,2.1161,1,622,2,0,9,9,6,1,0,0,1,0,1,0,0,0,hexagon,triangle,,,,,,,,,,,,,,,,,,,,,,,,,,,,,,,,,,,,,,,,,,,,,,,,,,,,,,
292951,2022-11-22_12h00.13.780,vts_reward_expectancy_bt,2022.2.4,MacIntel,60.0024001,Chrome,1470,956,,,a,0.3093,1,623,2,0,10,10,7,1,0,0,1,0,0,1,0,0,hexagon,circle,,,,,,,,,,,,,,,,,,,,,,,,,,,,,,,,,,,,,,,,,,,,,,,,,,,,,,
292951,2022-11-22_12h00.13.780,vts_reward_expectancy_bt,2022.2.4,MacIntel,60.0024001,Chrome,1470,956,,,l,0.0946,10,633,2,0,11,11,5,1,0,1,0,0,0,0,0,1,circle,star,,,,,,,,,,,,,,,,,,,,,,,,,,,,,,,,,,,,,,,,,,,,,,,,,,,,,,
292951,2022-11-22_12h00.13.780,vts_reward_expectancy_bt,2022.2.4,MacIntel,60.0024001,Chrome,1470,956,,,a,0.0161,10,643,2,1,0,12,5,1,0,1,0,0,0,0,0,1,circle,star,,,,,,,,,,,,,,,,,,,,,,,,,,,,,,,,,,,,,,,,,,,,,,,,,,,,,,
292951,2022-11-22_12h00.13.780,vts_reward_expectancy_bt,2022.2.4,MacIntel,60.0024001,Chrome,1470,956,,,l,0.1383,10,653,2,1,1,13,1,1,1,0,0,0,0,0,1,0,triangle,hexagon,,,,,,,,,,,,,,,,,,,,,,,,,,,,,,,,,,,,,,,,,,,,,,,,,,,,,,
292951,2022-11-22_12h00.13.780,vts_reward_expectancy_bt,2022.2.4,MacIntel,60.0024001,Chrome,1470,956,,,a,0.2162,1,654,2,1,2,14,8,1,0,0,1,0,0,0,0,1,hexagon,star,,,,,,,,,,,,,,,,,,,,,,,,,,,,,,,,,,,,,,,,,,,,,,,,,,,,,,
292951,2022-11-22_12h00.13.780,vts_reward_expectancy_bt,2022.2.4,MacIntel,60.0024001,Chrome,1470,956,,,a,0.0154,1,655,2,1,3,15,6,1,0,0,1,0,1,0,0,0,hexagon,triangle,,,,,,,,,,,,,,,,,,,,,,,,,,,,,,,,,,,,,,,,,,,,,,,,,,,,,,
292951,2022-11-22_12h00.13.780,vts_reward_expectancy_bt,2022.2.4,MacIntel,60.0024001,Chrome,1470,956,,,a,0.0005,10,665,2,1,4,16,0,1,1,0,0,0,0,1,0,0,triangle,circle,,,,,,,,,,,,,,,,,,,,,,,,,,,,,,,,,,,,,,,,,,,,,,,,,,,,,,
292951,2022-11-22_12h00.13.780,vts_reward_expectancy_bt,2022.2.4,MacIntel,60.0024001,Chrome,1470,956,,,l,0.0004,10,675,2,1,5,17,7,1,0,0,1,0,0,1,0,0,hexagon,circle,,,,,,,,,,,,,,,,,,,,,,,,,,,,,,,,,,,,,,,,,,,,,,,,,,,,,,
292951,2022-11-22_12h00.13.780,vts_reward_expectancy_bt,2022.2.4,MacIntel,60.0024001,Chrome,1470,956,,,l,0.0149,1,676,2,1,6,18,11,1,0,0,0,1,0,0,1,0,star,hexagon,,,,,,,,,,,,,,,,,,,,,,,,,,,,,,,,,,,,,,,,,,,,,,,,,,,,,,
292951,2022-11-22_12h00.13.780,vts_reward_expectancy_bt,2022.2.4,MacIntel,60.0024001,Chrome,1470,956,,,a,0.0996,10,686,2,1,7,19,4,1,0,1,0,0,0,0,1,0,circle,hexagon,,,,,,,,,,,,,,,,,,,,,,,,,,,,,,,,,,,,,,,,,,,,,,,,,,,,,,
292951,2022-11-22_12h00.13.780,vts_reward_expectancy_bt,2022.2.4,MacIntel,60.0024001,Chrome,1470,956,,,l,0.0329,1,687,2,1,8,20,10,1,0,0,0,1,0,1,0,0,star ,circle,,,,,,,,,,,,,,,,,,,,,,,,,,,,,,,,,,,,,,,,,,,,,,,,,,,,,,
292951,2022-11-22_12h00.13.780,vts_reward_expectancy_bt,2022.2.4,MacIntel,60.0024001,Chrome,1470,956,,,l,0.056,1,688,2,1,9,21,3,1,0,1,0,0,1,0,0,0,circle,triangle,,,,,,,,,,,,,,,,,,,,,,,,,,,,,,,,,,,,,,,,,,,,,,,,,,,,,,
292951,2022-11-22_12h00.13.780,vts_reward_expectancy_bt,2022.2.4,MacIntel,60.0024001,Chrome,1470,956,,,a,0.02,10,698,2,1,10,22,9,1,0,0,0,1,1,0,0,0,star,triangle,,,,,,,,,,,,,,,,,,,,,,,,,,,,,,,,,,,,,,,,,,,,,,,,,,,,,,
292951,2022-11-22_12h00.13.780,vts_reward_expectancy_bt,2022.2.4,MacIntel,60.0024001,Chrome,1470,956,,,l,0.0039,10,708,2,1,11,23,2,1,1,0,0,0,0,0,0,1,triangle,star,,,,,,,,,,,,,,,,,,,,,,,,,,,,,,,,,,,,,,,,,,,,,,,,,,,,,,
292951,2022-11-22_12h00.13.780,vts_reward_expectancy_bt,2022.2.4,MacIntel,60.0024001,Chrome,1470,956,,,l,0.0077,1,709,2,2,0,24,10,1,0,0,0,1,0,1,0,0,star ,circle,,,,,,,,,,,,,,,,,,,,,,,,,,,,,,,,,,,,,,,,,,,,,,,,,,,,,,
292951,2022-11-22_12h00.13.780,vts_reward_expectancy_bt,2022.2.4,MacIntel,60.0024001,Chrome,1470,956,,,l,0.0229,1,710,2,2,1,25,1,1,1,0,0,0,0,0,1,0,triangle,hexagon,,,,,,,,,,,,,,,,,,,,,,,,,,,,,,,,,,,,,,,,,,,,,,,,,,,,,,
292951,2022-11-22_12h00.13.780,vts_reward_expectancy_bt,2022.2.4,MacIntel,60.0024001,Chrome,1470,956,,,a,0.1053,1,711,2,2,2,26,8,1,0,0,1,0,0,0,0,1,hexagon,star,,,,,,,,,,,,,,,,,,,,,,,,,,,,,,,,,,,,,,,,,,,,,,,,,,,,,,
292951,2022-11-22_12h00.13.780,vts_reward_expectancy_bt,2022.2.4,MacIntel,60.0024001,Chrome,1470,956,,,l,0.0184,1,712,2,2,3,27,11,1,0,0,0,1,0,0,1,0,star,hexagon,,,,,,,,,,,,,,,,,,,,,,,,,,,,,,,,,,,,,,,,,,,,,,,,,,,,,,
292951,2022-11-22_12h00.13.780,vts_reward_expectancy_bt,2022.2.4,MacIntel,60.0024001,Chrome,1470,956,,,l,0.0002,10,722,2,2,4,28,5,1,0,1,0,0,0,0,0,1,circle,star,,,,,,,,,,,,,,,,,,,,,,,,,,,,,,,,,,,,,,,,,,,,,,,,,,,,,,
292951,2022-11-22_12h00.13.780,vts_reward_expectancy_bt,2022.2.4,MacIntel,60.0024001,Chrome,1470,956,,,a,0.0244,1,723,2,2,5,29,6,1,0,0,1,0,1,0,0,0,hexagon,triangle,,,,,,,,,,,,,,,,,,,,,,,,,,,,,,,,,,,,,,,,,,,,,,,,,,,,,,
292951,2022-11-22_12h00.13.780,vts_reward_expectancy_bt,2022.2.4,MacIntel,60.0024001,Chrome,1470,956,,,l,0.1396,10,733,2,2,6,30,3,1,0,1,0,0,1,0,0,0,circle,triangle,,,,,,,,,,,,,,,,,,,,,,,,,,,,,,,,,,,,,,,,,,,,,,,,,,,,,,
292951,2022-11-22_12h00.13.780,vts_reward_expectancy_bt,2022.2.4,MacIntel,60.0024001,Chrome,1470,956,,,l,0.0721,10,743,2,2,7,31,9,1,0,0,0,1,1,0,0,0,star,triangle,,,,,,,,,,,,,,,,,,,,,,,,,,,,,,,,,,,,,,,,,,,,,,,,,,,,,,
292951,2022-11-22_12h00.13.780,vts_reward_expectancy_bt,2022.2.4,MacIntel,60.0024001,Chrome,1470,956,,,l,0.05,10,753,2,2,8,32,7,1,0,0,1,0,0,1,0,0,hexagon,circle,,,,,,,,,,,,,,,,,,,,,,,,,,,,,,,,,,,,,,,,,,,,,,,,,,,,,,
292951,2022-11-22_12h00.13.780,vts_reward_expectancy_bt,2022.2.4,MacIntel,60.0024001,Chrome,1470,956,,,l,0.1653,1,754,2,2,9,33,0,1,1,0,0,0,0,1,0,0,triangle,circle,,,,,,,,,,,,,,,,,,,,,,,,,,,,,,,,,,,,,,,,,,,,,,,,,,,,,,
292951,2022-11-22_12h00.13.780,vts_reward_expectancy_bt,2022.2.4,MacIntel,60.0024001,Chrome,1470,956,,,a,0.072,1,755,2,2,10,34,4,1,0,1,0,0,0,0,1,0,circle,hexagon,,,,,,,,,,,,,,,,,,,,,,,,,,,,,,,,,,,,,,,,,,,,,,,,,,,,,,
292951,2022-11-22_12h00.13.780,vts_reward_expectancy_bt,2022.2.4,MacIntel,60.0024001,Chrome,1470,956,,,a,0.032,10,765,2,2,11,35,2,1,1,0,0,0,0,0,0,1,triangle,star,,,,,,,,,,,,,,,,,,,,,,,,,,,,,,,,,,,,,,,,,,,,,,,,,,,,,,
292951,2022-11-22_12h00.13.780,vts_reward_expectancy_bt,2022.2.4,MacIntel,60.0024001,Chrome,1470,956,,,,,,,,,,,,,,,,,,,,,,,139,S,circle,1,0,d,2.8474,0,0,0,0,0,1,,,,,,,,,,,,,,,,,,,,,,,,,,,,,,,,,,,,,,,,,
292951,2022-11-22_12h00.13.780,vts_reward_expectancy_bt,2022.2.4,MacIntel,60.0024001,Chrome,1470,956,,,,,,,,,,,,,,,,,,,,,,,132,B,hexagon,1,0,d,0.648,0,1,0,1,0,1,,,,,,,,,,,,,,,,,,,,,,,,,,,,,,,,,,,,,,,,,
292951,2022-11-22_12h00.13.780,vts_reward_expectancy_bt,2022.2.4,MacIntel,60.0024001,Chrome,1470,956,,,,,,,,,,,,,,,,,,,,,,,160,H,triangle,1,0,f,1.5166,0,2,0,2,0,1,,,,,,,,,,,,,,,,,,,,,,,,,,,,,,,,,,,,,,,,,
292951,2022-11-22_12h00.13.780,vts_reward_expectancy_bt,2022.2.4,MacIntel,60.0024001,Chrome,1470,956,,,,,,,,,,,,,,,,,,,,,,,125,U,star,1,0,d,0.6444,0,3,0,3,0,1,,,,,,,,,,,,,,,,,,,,,,,,,,,,,,,,,,,,,,,,,
292951,2022-11-22_12h00.13.780,vts_reward_expectancy_bt,2022.2.4,MacIntel,60.0024001,Chrome,1470,956,,,,,,,,,,,,,,,,,,,,,,,181,D,circle,1,0,f,1.4646,0,4,0,4,0,1,,,,,,,,,,,,,,,,,,,,,,,,,,,,,,,,,,,,,,,,,
292951,2022-11-22_12h00.13.780,vts_reward_expectancy_bt,2022.2.4,MacIntel,60.0024001,Chrome,1470,956,,,,,,,,,,,,,,,,,,,,,,,167,F,hexagon,1,0,f,1.2814,0,5,0,5,0,1,,,,,,,,,,,,,,,,,,,,,,,,,,,,,,,,,,,,,,,,,
292951,2022-11-22_12h00.13.780,vts_reward_expectancy_bt,2022.2.4,MacIntel,60.0024001,Chrome,1470,956,,,,,,,,,,,,,,,,,,,,,,,174,W,triangle,1,0,f,1.5367,0,6,0,6,0,1,,,,,,,,,,,,,,,,,,,,,,,,,,,,,,,,,,,,,,,,,
292951,2022-11-22_12h00.13.780,vts_reward_expectancy_bt,2022.2.4,MacIntel,60.0024001,Chrome,1470,956,,,,,,,,,,,,,,,,,,,,,,,146,Y,star,1,0,d,2.0803,0,7,0,7,0,1,,,,,,,,,,,,,,,,,,,,,,,,,,,,,,,,,,,,,,,,,
292951,2022-11-22_12h00.13.780,vts_reward_expectancy_bt,2022.2.4,MacIntel,60.0024001,Chrome,1470,956,,,,,,,,,,,,,,,,,,,,,,,139,S,triangle,1,0,d,1.6813,0,8,0,8,0,1,,,,,,,,,,,,,,,,,,,,,,,,,,,,,,,,,,,,,,,,,
292951,2022-11-22_12h00.13.780,vts_reward_expectancy_bt,2022.2.4,MacIntel,60.0024001,Chrome,1470,956,,,,,,,,,,,,,,,,,,,,,,,132,B,circle,1,0,d,1.2486,0,9,0,9,0,1,,,,,,,,,,,,,,,,,,,,,,,,,,,,,,,,,,,,,,,,,
292951,2022-11-22_12h00.13.780,vts_reward_expectancy_bt,2022.2.4,MacIntel,60.0024001,Chrome,1470,956,,,,,,,,,,,,,,,,,,,,,,,139,H,circle,0,0,,,1,,,,,,,0,0,0,0,1,,,,,,,,,,,,,,,,,,,,,,,,,,,,,,,,,,,
292951,2022-11-22_12h00.13.780,vts_reward_expectancy_bt,2022.2.4,MacIntel,60.0024001,Chrome,1470,956,,,,,,,,,,,,,,,,,,,,,,,181,B,hexagon,1,1,,,1,,,,,,j,1,0,1,0,1,1.2056,,,,,,,,,,,,,,,,,,,,,,,,,,,,,,,,,,
292951,2022-11-22_12h00.13.780,vts_reward_expectancy_bt,2022.2.4,MacIntel,60.0024001,Chrome,1470,956,,,,,,,,,,,,,,,,,,,,,,,160,S,triangle,0,0,,,1,,,,,,,2,0,2,0,1,,,,,,,,,,,,,,,,,,,,,,,,,,,,,,,,,,,
292951,2022-11-22_12h00.13.780,vts_reward_expectancy_bt,2022.2.4,MacIntel,60.0024001,Chrome,1470,956,,,,,,,,,,,,,,,,,,,,,,,146,Y,star,0,1,,,1,,,,,,,3,0,3,0,1,,,,,,,,,,,,,,,,,,,,,,,,,,,,,,,,,,,
292951,2022-11-22_12h00.13.780,vts_reward_expectancy_bt,2022.2.4,MacIntel,60.0024001,Chrome,1470,956,,,,,,,,,,,,,,,,,,,,,,,174,U,circle,1,1,,,1,,,,,,k,4,0,4,0,1,0.3892,,,,,,,,,,,,,,,,,,,,,,,,,,,,,,,,,,
292951,2022-11-22_12h00.13.780,vts_reward_expectancy_bt,2022.2.4,MacIntel,60.0024001,Chrome,1470,956,,,,,,,,,,,,,,,,,,,,,,,132,D,hexagon,1,0,,,1,,,,,,j,5,0,5,0,1,0.7387,,,,,,,,,,,,,,,,,,,,,,,,,,,,,,,,,,
292951,2022-11-22_12h00.13.780,vts_reward_expectancy_bt,2022.2.4,MacIntel,60.0024001,Chrome,1470,956,,,,,,,,,,,,,,,,,,,,,,,167,F,triangle,1,0,,,1,,,,,,j,6,0,6,0,1,2.4223,,,,,,,,,,,,,,,,,,,,,,,,,,,,,,,,,,
292951,2022-11-22_12h00.13.780,vts_reward_expectancy_bt,2022.2.4,MacIntel,60.0024001,Chrome,1470,956,,,,,,,,,,,,,,,,,,,,,,,125,W,star,1,0,,,1,,,,,,k,7,0,7,0,1,1.614,,,,,,,,,,,,,,,,,,,,,,,,,,,,,,,,,,
292951,2022-11-22_12h00.13.780,vts_reward_expectancy_bt,2022.2.4,MacIntel,60.0024001,Chrome,1470,956,,,,,,,,,,,,,,,,,,,,,,,139,H,hexagon,1,0,,,1,,,,,,j,8,0,8,0,1,2.7153,,,,,,,,,,,,,,,,,,,,,,,,,,,,,,,,,,
292951,2022-11-22_12h00.13.780,vts_reward_expectancy_bt,2022.2.4,MacIntel,60.0024001,Chrome,1470,956,,,,,,,,,,,,,,,,,,,,,,,181,B,circle,1,0,,,1,,,,,,j,9,0,9,0,1,1.6342,,,,,,,,,,,,,,,,,,,,,,,,,,,,,,,,,,
292951,2022-11-22_12h00.13.780,vts_reward_expectancy_bt,2022.2.4,MacIntel,60.0024001,Chrome,1470,956,,,,,,,,,,,,,,,,,,,,,,,139,B,star,1,0,,,2,,,,,,j,0,0,0,0,1,1.3584,,,,,,,,,,,,,,,,,,,,,,,,,,,,,,,,,,
292951,2022-11-22_12h00.13.780,vts_reward_expectancy_bt,2022.2.4,MacIntel,60.0024001,Chrome,1470,956,,,,,,,,,,,,,,,,,,,,,,,167,Y,hexagon,1,0,,,2,,,,,,k,1,0,1,0,1,1.429,,,,,,,,,,,,,,,,,,,,,,,,,,,,,,,,,,
292951,2022-11-22_12h00.13.780,vts_reward_expectancy_bt,2022.2.4,MacIntel,60.0024001,Chrome,1470,956,,,,,,,,,,,,,,,,,,,,,,,132,F,circle,1,0,,,2,,,,,,j,2,0,2,0,1,1.2349,,,,,,,,,,,,,,,,,,,,,,,,,,,,,,,,,,
292951,2022-11-22_12h00.13.780,vts_reward_expectancy_bt,2022.2.4,MacIntel,60.0024001,Chrome,1470,956,,,,,,,,,,,,,,,,,,,,,,,125,W,triangle,1,0,,,2,,,,,,k,3,0,3,0,1,1.2518,,,,,,,,,,,,,,,,,,,,,,,,,,,,,,,,,,
292951,2022-11-22_12h00.13.780,vts_reward_expectancy_bt,2022.2.4,MacIntel,60.0024001,Chrome,1470,956,,,,,,,,,,,,,,,,,,,,,,,160,S,star,1,0,,,2,,,,,,k,4,0,4,0,1,1.1014,,,,,,,,,,,,,,,,,,,,,,,,,,,,,,,,,,
292951,2022-11-22_12h00.13.780,vts_reward_expectancy_bt,2022.2.4,MacIntel,60.0024001,Chrome,1470,956,,,,,,,,,,,,,,,,,,,,,,,181,U,hexagon,1,0,,,2,,,,,,k,5,0,5,0,1,1.256,,,,,,,,,,,,,,,,,,,,,,,,,,,,,,,,,,
292951,2022-11-22_12h00.13.780,vts_reward_expectancy_bt,2022.2.4,MacIntel,60.0024001,Chrome,1470,956,,,,,,,,,,,,,,,,,,,,,,,146,H,circle,0,0,,,2,,,,,,,6,0,6,0,1,,,,,,,,,,,,,,,,,,,,,,,,,,,,,,,,,,,
292951,2022-11-22_12h00.13.780,vts_reward_expectancy_bt,2022.2.4,MacIntel,60.0024001,Chrome,1470,956,,,,,,,,,,,,,,,,,,,,,,,174,D,triangle,1,1,,,2,,,,,,j,7,0,7,0,1,0.9977,,,,,,,,,,,,,,,,,,,,,,,,,,,,,,,,,,
292951,2022-11-22_12h00.13.780,vts_reward_expectancy_bt,2022.2.4,MacIntel,60.0024001,Chrome,1470,956,,,,,,,,,,,,,,,,,,,,,,,139,B,hexagon,1,0,,,2,,,,,,j,8,0,8,0,1,0.9667,,,,,,,,,,,,,,,,,,,,,,,,,,,,,,,,,,
292951,2022-11-22_12h00.13.780,vts_reward_expectancy_bt,2022.2.4,MacIntel,60.0024001,Chrome,1470,956,,,,,,,,,,,,,,,,,,,,,,,167,Y,triangle,1,0,,,2,,,,,,k,9,0,9,0,1,1.0683,,,,,,,,,,,,,,,,,,,,,,,,,,,,,,,,,,
292951,2022-11-22_12h00.13.780,vts_reward_expectancy_bt,2022.2.4,MacIntel,60.0024001,Chrome,1470,956,,,,,0,765,,,,,,,,,,,,,,,,,167,D,star,1,0,,,3,,,,,,,,,,,,,-1,number,NA,f,2.7729,vtsPrac,0,0,0,0,1,,,,,,,,,,,,,,,,,,,,,,,
292951,2022-11-22_12h00.13.780,vts_reward_expectancy_bt,2022.2.4,MacIntel,60.0024001,Chrome,1470,956,,,,,0,765,,,,,,,,,,,,,,,,,146,W,triangle,1,0,,,3,,,,,,,,,,,,,repeat,number,numRpt,d,1.9972,vtsPrac,1,0,1,0,1,,,,,,,,,,,,,,,,,,,,,,,
292951,2022-11-22_12h00.13.780,vts_reward_expectancy_bt,2022.2.4,MacIntel,60.0024001,Chrome,1470,956,,,,,0,765,,,,,,,,,,,,,,,,,139,B,star,1,0,,,3,,,,,,,,,,,,,repeat,number,numRpt,d,1.282,vtsPrac,2,0,2,0,1,,,,,,,,,,,,,,,,,,,,,,,
292951,2022-11-22_12h00.13.780,vts_reward_expectancy_bt,2022.2.4,MacIntel,60.0024001,Chrome,1470,956,,,,,0,765,,,,,,,,,,,,,,,,,160,H,triangle,1,0,,,3,,,,,,,,,,,,,repeat,number,numRpt,f,1.9474,vtsPrac,3,0,3,0,1,,,,,,,,,,,,,,,,,,,,,,,
292951,2022-11-22_12h00.13.780,vts_reward_expectancy_bt,2022.2.4,MacIntel,60.0024001,Chrome,1470,956,,,,,0,765,,,,,,,,,,,,,,,,,167,D,circle,1,0,,,3,,,,,,,,,,,,,repeat,number,numRpt,f,1.5134,vtsPrac,4,0,4,0,1,,,,,,,,,,,,,,,,,,,,,,,
292951,2022-11-22_12h00.13.780,vts_reward_expectancy_bt,2022.2.4,MacIntel,60.0024001,Chrome,1470,956,,,,,0,765,,,,,,,,,,,,,,,,,146,W,triangle,1,0,,,3,,,,,,,,,,,,,repeat,number,numRpt,d,1.1153,vtsPrac,5,0,5,0,1,,,,,,,,,,,,,,,,,,,,,,,
292951,2022-11-22_12h00.13.780,vts_reward_expectancy_bt,2022.2.4,MacIntel,60.0024001,Chrome,1470,956,,,,,0,765,,,,,,,,,,,,,,,,,139,B,hexagon,1,0,,,3,,,,,,,,,,,,,repeat,number,numRpt,d,1.1891,vtsPrac,6,0,6,0,1,,,,,,,,,,,,,,,,,,,,,,,
292951,2022-11-22_12h00.13.780,vts_reward_expectancy_bt,2022.2.4,MacIntel,60.0024001,Chrome,1470,956,,,,,0,765,,,,,,,,,,,,,,,,,160,H,star,1,0,,,3,,,,,,,,,,,,,repeat,number,numRpt,f,1.1484,vtsPrac,7,0,7,0,1,,,,,,,,,,,,,,,,,,,,,,,
292951,2022-11-22_12h00.13.780,vts_reward_expectancy_bt,2022.2.4,MacIntel,60.0024001,Chrome,1470,956,,,,,0,765,,,,,,,,,,,,,,,,,139,S,star,1,0,,,3,,,,,,,,,,,,,repeat,number,numRpt,d,1.1025,vtsPrac,8,0,8,0,1,,,,,,,,,,,,,,,,,,,,,,,
292951,2022-11-22_12h00.13.780,vts_reward_expectancy_bt,2022.2.4,MacIntel,60.0024001,Chrome,1470,956,,,,,0,765,,,,,,,,,,,,,,,,,160,B,triangle,1,0,,,3,,,,,,,,,,,,,repeat,number,numRpt,f,1.2304,vtsPrac,9,0,9,0,1,,,,,,,,,,,,,,,,,,,,,,,
292951,2022-11-22_12h00.13.780,vts_reward_expectancy_bt,2022.2.4,MacIntel,60.0024001,Chrome,1470,956,,,,,0,765,,,,,,,,,,,,,,,,,181,W,triangle,1,0,,,3,,,,,,,,,,,,,repeat,number,numRpt,f,1.048,vtsPrac,10,0,10,0,1,,,,,,,,,,,,,,,,,,,,,,,
292951,2022-11-22_12h00.13.780,vts_reward_expectancy_bt,2022.2.4,MacIntel,60.0024001,Chrome,1470,956,,,,,0,765,,,,,,,,,,,,,,,,,132,F,circle,1,0,,,3,,,,,,,,,,,,,repeat,number,numRpt,d,1.2287,vtsPrac,11,0,11,0,1,,,,,,,,,,,,,,,,,,,,,,,
292951,2022-11-22_12h00.13.780,vts_reward_expectancy_bt,2022.2.4,MacIntel,60.0024001,Chrome,1470,956,,,,,0,765,,,,,,,,,,,,,,,,,139,S,star,1,0,,,3,,,,,,,,,,,,,repeat,number,numRpt,d,1.2814,vtsPrac,12,0,12,0,1,,,,,,,,,,,,,,,,,,,,,,,
292951,2022-11-22_12h00.13.780,vts_reward_expectancy_bt,2022.2.4,MacIntel,60.0024001,Chrome,1470,956,,,,,0,765,,,,,,,,,,,,,,,,,167,W,hexagon,1,0,,,3,,,,,,,,,,,,,repeat,number,numRpt,f,1.0805,vtsPrac,13,0,13,0,1,,,,,,,,,,,,,,,,,,,,,,,
292951,2022-11-22_12h00.13.780,vts_reward_expectancy_bt,2022.2.4,MacIntel,60.0024001,Chrome,1470,956,,,,,0,765,,,,,,,,,,,,,,,,,174,U,triangle,1,0,,,3,,,,,,,,,,,,,repeat,number,numRpt,f,1.0964,vtsPrac,14,0,14,0,1,,,,,,,,,,,,,,,,,,,,,,,
292951,2022-11-22_12h00.13.780,vts_reward_expectancy_bt,2022.2.4,MacIntel,60.0024001,Chrome,1470,956,,,,,0,765,,,,,,,,,,,,,,,,,146,B,star,1,0,,,3,,,,,,,,,,,,,repeat,number,numRpt,d,1.1708,vtsPrac,15,0,15,0,1,,,,,,,,,,,,,,,,,,,,,,,
292951,2022-11-22_12h00.13.780,vts_reward_expectancy_bt,2022.2.4,MacIntel,60.0024001,Chrome,1470,956,,,,,0,765,,,,,,,,,,,,,,,,,167,U,triangle,1,0,,,3,,,,,,,,,,,,,repeat,number,numRpt,f,1.165,vtsPrac,16,0,16,0,1,,,,,,,,,,,,,,,,,,,,,,,
292951,2022-11-22_12h00.13.780,vts_reward_expectancy_bt,2022.2.4,MacIntel,60.0024001,Chrome,1470,956,,,,,0,765,,,,,,,,,,,,,,,,,160,H,hexagon,1,0,,,3,,,,,,,,,,,,,repeat,number,numRpt,f,1.2556,vtsPrac,17,0,17,0,1,,,,,,,,,,,,,,,,,,,,,,,
292951,2022-11-22_12h00.13.780,vts_reward_expectancy_bt,2022.2.4,MacIntel,60.0024001,Chrome,1470,956,,,,,0,765,,,,,,,,,,,,,,,,,139,W,circle,1,0,,,3,,,,,,,,,,,,,repeat,number,numRpt,d,1.4804,vtsPrac,18,0,18,0,1,,,,,,,,,,,,,,,,,,,,,,,
292951,2022-11-22_12h00.13.780,vts_reward_expectancy_bt,2022.2.4,MacIntel,60.0024001,Chrome,1470,956,,,,,0,765,,,,,,,,,,,,,,,,,181,S,star,1,0,,,3,,,,,,,,,,,,,repeat,number,numRpt,f,1.431,vtsPrac,19,0,19,0,1,,,,,,,,,,,,,,,,,,,,,,,
292951,2022-11-22_12h00.13.780,vts_reward_expectancy_bt,2022.2.4,MacIntel,60.0024001,Chrome,1470,956,,,,,0,765,,,,,,,,,,,,,,,,,139,U,triangle,1,0,,,3,,,,,,,,,,,,,repeat,number,numRpt,d,1.2563,vtsPrac,20,0,20,0,1,,,,,,,,,,,,,,,,,,,,,,,
292951,2022-11-22_12h00.13.780,vts_reward_expectancy_bt,2022.2.4,MacIntel,60.0024001,Chrome,1470,956,,,,,0,765,,,,,,,,,,,,,,,,,125,D,star,1,0,,,3,,,,,,,,,,,,,repeat,number,numRpt,d,1.3007,vtsPrac,21,0,21,0,1,,,,,,,,,,,,,,,,,,,,,,,
292951,2022-11-22_12h00.13.780,vts_reward_expectancy_bt,2022.2.4,MacIntel,60.0024001,Chrome,1470,956,,,,,0,765,,,,,,,,,,,,,,,,,146,H,triangle,1,0,,,3,,,,,,,,,,,,,repeat,number,numRpt,d,2.3132,vtsPrac,22,0,22,0,1,,,,,,,,,,,,,,,,,,,,,,,
292951,2022-11-22_12h00.13.780,vts_reward_expectancy_bt,2022.2.4,MacIntel,60.0024001,Chrome,1470,956,,,,,0,765,,,,,,,,,,,,,,,,,132,W,circle,1,0,,,3,,,,,,,,,,,,,repeat,number,numRpt,d,1.4484,vtsPrac,23,0,23,0,1,,,,,,,,,,,,,,,,,,,,,,,
292951,2022-11-22_12h00.13.780,vts_reward_expectancy_bt,2022.2.4,MacIntel,60.0024001,Chrome,1470,956,,,,,0,765,,,,,,,,,,,,,,,,,139,W,triangle,-1,0,,,3,,,,,,,,,,,,,switch,no_choice,NA,,,vtsPrac,24,0,24,0,1,,,,,,,,,,,,,,,,,,,,,,,
292951,2022-11-22_12h00.13.780,vts_reward_expectancy_bt,2022.2.4,MacIntel,60.0024001,Chrome,1470,956,,,,,0,765,,,,,,,,,,,,,,,,,146,F,star,1,0,,,3,,,,,,,,,,,,,switch,number,numSwt,d,2.1154,vtsPrac,25,0,25,0,1,,,,,,,,,,,,,,,,,,,,,,,
292951,2022-11-22_12h00.13.780,vts_reward_expectancy_bt,2022.2.4,MacIntel,60.0024001,Chrome,1470,956,,,,,0,765,,,,,,,,,,,,,,,,,125,U,star,1,0,,,3,,,,,,,,,,,,,repeat,number,numRpt,d,1.2469,vtsPrac,26,0,26,0,1,,,,,,,,,,,,,,,,,,,,,,,
292951,2022-11-22_12h00.13.780,vts_reward_expectancy_bt,2022.2.4,MacIntel,60.0024001,Chrome,1470,956,,,,,0,765,,,,,,,,,,,,,,,,,160,S,circle,1,0,,,3,,,,,,,,,,,,,repeat,number,numRpt,f,1.0865,vtsPrac,27,0,27,0,1,,,,,,,,,,,,,,,,,,,,,,,
292951,2022-11-22_12h00.13.780,vts_reward_expectancy_bt,2022.2.4,MacIntel,60.0024001,Chrome,1470,956,,,,,0,765,,,,,,,,,,,,,,,,,125,Y,star,1,0,,,3,,,,,,,,,,,,,repeat,number,numRpt,d,0.9143,vtsPrac,28,0,28,0,1,,,,,,,,,,,,,,,,,,,,,,,
292951,2022-11-22_12h00.13.780,vts_reward_expectancy_bt,2022.2.4,MacIntel,60.0024001,Chrome,1470,956,,,,,0,765,,,,,,,,,,,,,,,,,132,B,triangle,1,0,,,3,,,,,,,,,,,,,repeat,number,numRpt,d,1.2638,vtsPrac,29,0,29,0,1,,,,,,,,,,,,,,,,,,,,,,,
292951,2022-11-22_12h00.13.780,vts_reward_expectancy_bt,2022.2.4,MacIntel,60.0024001,Chrome,1470,956,,,,,0,765,,,,,,,,,,,,,,,,,160,D,circle,1,0,,,3,,,,,,,,,,,,,repeat,number,numRpt,f,1.1483,vtsPrac,30,0,30,0,1,,,,,,,,,,,,,,,,,,,,,,,
292951,2022-11-22_12h00.13.780,vts_reward_expectancy_bt,2022.2.4,MacIntel,60.0024001,Chrome,1470,956,,,,,0,765,,,,,,,,,,,,,,,,,174,F,triangle,1,0,,,3,,,,,,,,,,,,,repeat,number,numRpt,f,1.3487,vtsPrac,31,0,31,0,1,,,,,,,,,,,,,,,,,,,,,,,
292951,2022-11-22_12h00.13.780,vts_reward_expectancy_bt,2022.2.4,MacIntel,60.0024001,Chrome,1470,956,,,,,0,765,,,,,,,,,,,,,,,,,174,W,circle,1,0,,,4,,,,,,,,,,,,,repeat,number,numRpt,f,1.9032,vtsPrac,0,0,0,0,1,,,,,,,,,,,,,,,,,,,,,,,
292951,2022-11-22_12h00.13.780,vts_reward_expectancy_bt,2022.2.4,MacIntel,60.0024001,Chrome,1470,956,,,,,0,765,,,,,,,,,,,,,,,,,139,S,triangle,1,0,,,4,,,,,,,,,,,,,switch,letter,lettSwt,k,1.865,vtsPrac,1,0,1,0,1,,,,,,,,,,,,,,,,,,,,,,,
292951,2022-11-22_12h00.13.780,vts_reward_expectancy_bt,2022.2.4,MacIntel,60.0024001,Chrome,1470,956,,,,,0,765,,,,,,,,,,,,,,,,,167,B,circle,1,0,,,4,,,,,,,,,,,,,switch,number,numSwt,f,1.322,vtsPrac,2,0,2,0,1,,,,,,,,,,,,,,,,,,,,,,,
292951,2022-11-22_12h00.13.780,vts_reward_expectancy_bt,2022.2.4,MacIntel,60.0024001,Chrome,1470,956,,,,,0,765,,,,,,,,,,,,,,,,,181,D,triangle,1,0,,,4,,,,,,,,,,,,,switch,letter,lettSwt,j,1.5663,vtsPrac,3,0,3,0,1,,,,,,,,,,,,,,,,,,,,,,,
292951,2022-11-22_12h00.13.780,vts_reward_expectancy_bt,2022.2.4,MacIntel,60.0024001,Chrome,1470,956,,,,,0,765,,,,,,,,,,,,,,,,,174,W,hexagon,1,0,,,4,,,,,,,,,,,,,switch,number,numSwt,f,1.114,vtsPrac,4,0,4,0,1,,,,,,,,,,,,,,,,,,,,,,,
292951,2022-11-22_12h00.13.780,vts_reward_expectancy_bt,2022.2.4,MacIntel,60.0024001,Chrome,1470,956,,,,,0,765,,,,,,,,,,,,,,,,,139,S,circle,-1,0,,,4,,,,,,,,,,,,,switch,no_choice,NA,,,vtsPrac,5,0,5,0,1,,,,,,,,,,,,,,,,,,,,,,,
292951,2022-11-22_12h00.13.780,vts_reward_expectancy_bt,2022.2.4,MacIntel,60.0024001,Chrome,1470,956,,,,,0,765,,,,,,,,,,,,,,,,,167,B,triangle,1,0,,,4,,,,,,,,,,,,,switch,letter,lettSwt,j,1.9156,vtsPrac,6,0,6,0,1,,,,,,,,,,,,,,,,,,,,,,,
292951,2022-11-22_12h00.13.780,vts_reward_expectancy_bt,2022.2.4,MacIntel,60.0024001,Chrome,1470,956,,,,,0,765,,,,,,,,,,,,,,,,,181,D,hexagon,1,0,,,4,,,,,,,,,,,,,switch,number,numSwt,f,0.9142,vtsPrac,7,0,7,0,1,,,,,,,,,,,,,,,,,,,,,,,
292951,2022-11-22_12h00.13.780,vts_reward_expectancy_bt,2022.2.4,MacIntel,60.0024001,Chrome,1470,956,,,,,0,765,,,,,,,,,,,,,,,,,181,U,hexagon,1,0,,,4,,,,,,,,,,,,,switch,letter,lettSwt,k,1.4477,vtsPrac,8,0,8,0,1,,,,,,,,,,,,,,,,,,,,,,,
292951,2022-11-22_12h00.13.780,vts_reward_expectancy_bt,2022.2.4,MacIntel,60.0024001,Chrome,1470,956,,,,,0,765,,,,,,,,,,,,,,,,,146,D,star,1,0,,,4,,,,,,,,,,,,,switch,number,numSwt,d,1.6478,vtsPrac,9,0,9,0,1,,,,,,,,,,,,,,,,,,,,,,,
292951,2022-11-22_12h00.13.780,vts_reward_expectancy_bt,2022.2.4,MacIntel,60.0024001,Chrome,1470,956,,,,,0,765,,,,,,,,,,,,,,,,,139,W,star,1,0,,,4,,,,,,,,,,,,,switch,letter,lettSwt,k,1.0472,vtsPrac,10,0,10,0,1,,,,,,,,,,,,,,,,,,,,,,,
292951,2022-11-22_12h00.13.780,vts_reward_expectancy_bt,2022.2.4,MacIntel,60.0024001,Chrome,1470,956,,,,,0,765,,,,,,,,,,,,,,,,,174,B,triangle,1,0,,,4,,,,,,,,,,,,,switch,number,numSwt,f,1.9463,vtsPrac,11,0,11,0,1,,,,,,,,,,,,,,,,,,,,,,,
292951,2022-11-22_12h00.13.780,vts_reward_expectancy_bt,2022.2.4,MacIntel,60.0024001,Chrome,1470,956,,,,,0,765,,,,,,,,,,,,,,,,,181,D,hexagon,1,0,,,4,,,,,,,,,,,,,switch,letter,lettSwt,j,1.2963,vtsPrac,12,0,12,0,1,,,,,,,,,,,,,,,,,,,,,,,
292951,2022-11-22_12h00.13.780,vts_reward_expectancy_bt,2022.2.4,MacIntel,60.0024001,Chrome,1470,956,,,,,0,765,,,,,,,,,,,,,,,,,132,S,star,1,0,,,4,,,,,,,,,,,,,switch,number,numSwt,d,1.015,vtsPrac,13,0,13,0,1,,,,,,,,,,,,,,,,,,,,,,,
292951,2022-11-22_12h00.13.780,vts_reward_expectancy_bt,2022.2.4,MacIntel,60.0024001,Chrome,1470,956,,,,,0,765,,,,,,,,,,,,,,,,,125,U,circle,1,0,,,4,,,,,,,,,,,,,switch,letter,lettSwt,k,1.1061,vtsPrac,14,0,14,0,1,,,,,,,,,,,,,,,,,,,,,,,
292951,2022-11-22_12h00.13.780,vts_reward_expectancy_bt,2022.2.4,MacIntel,60.0024001,Chrome,1470,956,,,,,0,765,,,,,,,,,,,,,,,,,160,W,triangle,1,0,,,4,,,,,,,,,,,,,switch,number,numSwt,f,1.5146,vtsPrac,15,0,15,0,1,,,,,,,,,,,,,,,,,,,,,,,
292951,2022-11-22_12h00.13.780,vts_reward_expectancy_bt,2022.2.4,MacIntel,60.0024001,Chrome,1470,956,,,,,0,765,,,,,,,,,,,,,,,,,181,B,hexagon,1,0,,,4,,,,,,,,,,,,,switch,letter,lettSwt,j,0.9635,vtsPrac,16,0,16,0,1,,,,,,,,,,,,,,,,,,,,,,,
292951,2022-11-22_12h00.13.780,vts_reward_expectancy_bt,2022.2.4,MacIntel,60.0024001,Chrome,1470,956,,,,,0,765,,,,,,,,,,,,,,,,,160,Y,circle,1,0,,,4,,,,,,,,,,,,,switch,number,numSwt,f,1.5318,vtsPrac,17,0,17,0,1,,,,,,,,,,,,,,,,,,,,,,,
292951,2022-11-22_12h00.13.780,vts_reward_expectancy_bt,2022.2.4,MacIntel,60.0024001,Chrome,1470,956,,,,,0,765,,,,,,,,,,,,,,,,,132,D,hexagon,1,0,,,4,,,,,,,,,,,,,switch,letter,lettSwt,j,1.2379,vtsPrac,18,0,18,0,1,,,,,,,,,,,,,,,,,,,,,,,
292951,2022-11-22_12h00.13.780,vts_reward_expectancy_bt,2022.2.4,MacIntel,60.0024001,Chrome,1470,956,,,,,0,765,,,,,,,,,,,,,,,,,125,W,star,1,0,,,4,,,,,,,,,,,,,switch,number,numSwt,d,1.481,vtsPrac,19,0,19,0,1,,,,,,,,,,,,,,,,,,,,,,,
292951,2022-11-22_12h00.13.780,vts_reward_expectancy_bt,2022.2.4,MacIntel,60.0024001,Chrome,1470,956,,,,,0,765,,,,,,,,,,,,,,,,,132,H,hexagon,1,0,,,4,,,,,,,,,,,,,switch,letter,lettSwt,j,1.9978,vtsPrac,20,0,20,0,1,,,,,,,,,,,,,,,,,,,,,,,
292951,2022-11-22_12h00.13.780,vts_reward_expectancy_bt,2022.2.4,MacIntel,60.0024001,Chrome,1470,956,,,,,0,765,,,,,,,,,,,,,,,,,146,D,circle,1,0,,,4,,,,,,,,,,,,,switch,number,numSwt,d,1.6171,vtsPrac,21,0,21,0,1,,,,,,,,,,,,,,,,,,,,,,,
292951,2022-11-22_12h00.13.780,vts_reward_expectancy_bt,2022.2.4,MacIntel,60.0024001,Chrome,1470,956,,,,,0,765,,,,,,,,,,,,,,,,,181,Y,circle,1,0,,,4,,,,,,,,,,,,,switch,letter,lettSwt,k,0.9524,vtsPrac,22,0,22,0,1,,,,,,,,,,,,,,,,,,,,,,,
292951,2022-11-22_12h00.13.780,vts_reward_expectancy_bt,2022.2.4,MacIntel,60.0024001,Chrome,1470,956,,,,,0,765,,,,,,,,,,,,,,,,,167,F,hexagon,1,0,,,4,,,,,,,,,,,,,switch,number,numSwt,f,1.3204,vtsPrac,23,0,23,0,1,,,,,,,,,,,,,,,,,,,,,,,
292951,2022-11-22_12h00.13.780,vts_reward_expectancy_bt,2022.2.4,MacIntel,60.0024001,Chrome,1470,956,,,,,0,765,,,,,,,,,,,,,,,,,160,W,circle,1,0,,,4,,,,,,,,,,,,,switch,letter,lettSwt,k,1.2539,vtsPrac,24,0,24,0,1,,,,,,,,,,,,,,,,,,,,,,,
292951,2022-11-22_12h00.13.780,vts_reward_expectancy_bt,2022.2.4,MacIntel,60.0024001,Chrome,1470,956,,,,,0,765,,,,,,,,,,,,,,,,,139,B,hexagon,1,0,,,4,,,,,,,,,,,,,switch,number,numSwt,d,1.3976,vtsPrac,25,0,25,0,1,,,,,,,,,,,,,,,,,,,,,,,
292951,2022-11-22_12h00.13.780,vts_reward_expectancy_bt,2022.2.4,MacIntel,60.0024001,Chrome,1470,956,,,,,0,765,,,,,,,,,,,,,,,,,181,D,hexagon,1,0,,,4,,,,,,,,,,,,,switch,letter,lettSwt,j,1.2634,vtsPrac,26,0,26,0,1,,,,,,,,,,,,,,,,,,,,,,,
292951,2022-11-22_12h00.13.780,vts_reward_expectancy_bt,2022.2.4,MacIntel,60.0024001,Chrome,1470,956,,,,,0,765,,,,,,,,,,,,,,,,,132,F,circle,1,0,,,4,,,,,,,,,,,,,switch,number,numSwt,d,1.3644,vtsPrac,27,0,27,0,1,,,,,,,,,,,,,,,,,,,,,,,
292951,2022-11-22_12h00.13.780,vts_reward_expectancy_bt,2022.2.4,MacIntel,60.0024001,Chrome,1470,956,,,,,0,765,,,,,,,,,,,,,,,,,174,Y,triangle,1,0,,,4,,,,,,,,,,,,,switch,letter,lettSwt,k,1.3469,vtsPrac,28,0,28,0,1,,,,,,,,,,,,,,,,,,,,,,,
292951,2022-11-22_12h00.13.780,vts_reward_expectancy_bt,2022.2.4,MacIntel,60.0024001,Chrome,1470,956,,,,,0,765,,,,,,,,,,,,,,,,,132,D,star,1,0,,,4,,,,,,,,,,,,,switch,number,numSwt,d,1.6685,vtsPrac,29,0,29,0,1,,,,,,,,,,,,,,,,,,,,,,,
292951,2022-11-22_12h00.13.780,vts_reward_expectancy_bt,2022.2.4,MacIntel,60.0024001,Chrome,1470,956,,,,,0,765,,,,,,,,,,,,,,,,,167,B,triangle,1,0,,,4,,,,,,,,,,,,,switch,letter,lettSwt,j,1.665,vtsPrac,30,0,30,0,1,,,,,,,,,,,,,,,,,,,,,,,
292951,2022-11-22_12h00.13.780,vts_reward_expectancy_bt,2022.2.4,MacIntel,60.0024001,Chrome,1470,956,,,,,0,765,,,,,,,,,,,,,,,,,139,F,hexagon,1,0,,,4,,,,,,,,,,,,,switch,number,numSwt,d,2.1351,vtsPrac,31,0,31,0,1,,,,,,,,,,,,,,,,,,,,,,,
292951,2022-11-22_12h00.13.780,vts_reward_expectancy_bt,2022.2.4,MacIntel,60.0024001,Chrome,1470,956,,,,,0,765,,,,,,,,,,,,,,,,,132,D,star,1,0,,,5,,,,,,,,,,,,,switch,letter,lettSwt,j,2.0964,vtsPrac,0,0,0,0,1,,,,,,,,,,,,,,,,,,,,,,,
292951,2022-11-22_12h00.13.780,vts_reward_expectancy_bt,2022.2.4,MacIntel,60.0024001,Chrome,1470,956,,,,,0,765,,,,,,,,,,,,,,,,,146,Y,circle,1,0,,,5,,,,,,,,,,,,,repeat,letter,lettRpt,k,1.2984,vtsPrac,1,0,1,0,1,,,,,,,,,,,,,,,,,,,,,,,
292951,2022-11-22_12h00.13.780,vts_reward_expectancy_bt,2022.2.4,MacIntel,60.0024001,Chrome,1470,956,,,,,0,765,,,,,,,,,,,,,,,,,139,H,star,-1,0,,,5,,,,,,,,,,,,,switch,no_choice,NA,,,vtsPrac,2,0,2,0,1,,,,,,,,,,,,,,,,,,,,,,,
292951,2022-11-22_12h00.13.780,vts_reward_expectancy_bt,2022.2.4,MacIntel,60.0024001,Chrome,1470,956,,,,,0,765,,,,,,,,,,,,,,,,,160,W,circle,1,0,,,5,,,,,,,,,,,,,switch,number,numSwt,f,1.3491,vtsPrac,3,0,3,0,1,,,,,,,,,,,,,,,,,,,,,,,
292951,2022-11-22_12h00.13.780,vts_reward_expectancy_bt,2022.2.4,MacIntel,60.0024001,Chrome,1470,956,,,,,0,765,,,,,,,,,,,,,,,,,132,D,hexagon,1,0,,,5,,,,,,,,,,,,,repeat,number,numRpt,d,1.3311,vtsPrac,4,0,4,0,1,,,,,,,,,,,,,,,,,,,,,,,
292951,2022-11-22_12h00.13.780,vts_reward_expectancy_bt,2022.2.4,MacIntel,60.0024001,Chrome,1470,956,,,,,0,765,,,,,,,,,,,,,,,,,146,Y,circle,1,0,,,5,,,,,,,,,,,,,repeat,number,numRpt,d,1.6128,vtsPrac,5,0,5,0,1,,,,,,,,,,,,,,,,,,,,,,,
292951,2022-11-22_12h00.13.780,vts_reward_expectancy_bt,2022.2.4,MacIntel,60.0024001,Chrome,1470,956,,,,,0,765,,,,,,,,,,,,,,,,,139,H,circle,1,0,,,5,,,,,,,,,,,,,switch,letter,lettSwt,j,1.4443,vtsPrac,6,0,6,0,1,,,,,,,,,,,,,,,,,,,,,,,
292951,2022-11-22_12h00.13.780,vts_reward_expectancy_bt,2022.2.4,MacIntel,60.0024001,Chrome,1470,956,,,,,0,765,,,,,,,,,,,,,,,,,160,W,star,1,0,,,5,,,,,,,,,,,,,repeat,letter,lettRpt,k,0.7987,vtsPrac,7,0,7,0,1,,,,,,,,,,,,,,,,,,,,,,,
292951,2022-11-22_12h00.13.780,vts_reward_expectancy_bt,2022.2.4,MacIntel,60.0024001,Chrome,1470,956,,,,,0,765,,,,,,,,,,,,,,,,,146,B,star,1,0,,,5,,,,,,,,,,,,,switch,number,numSwt,d,1.4881,vtsPrac,8,0,8,0,1,,,,,,,,,,,,,,,,,,,,,,,
292951,2022-11-22_12h00.13.780,vts_reward_expectancy_bt,2022.2.4,MacIntel,60.0024001,Chrome,1470,956,,,,,0,765,,,,,,,,,,,,,,,,,160,F,circle,1,0,,,5,,,,,,,,,,,,,repeat,number,numRpt,f,1.0486,vtsPrac,9,0,9,0,1,,,,,,,,,,,,,,,,,,,,,,,
292951,2022-11-22_12h00.13.780,vts_reward_expectancy_bt,2022.2.4,MacIntel,60.0024001,Chrome,1470,956,,,,,0,765,,,,,,,,,,,,,,,,,132,H,triangle,0,0,,,5,,,,,,,,,,,,,repeat,number,NA,f,1.4959,vtsPrac,10,0,10,0,1,,,,,,,,,,,,,,,,,,,,,,,
292951,2022-11-22_12h00.13.780,vts_reward_expectancy_bt,2022.2.4,MacIntel,60.0024001,Chrome,1470,956,,,,,0,765,,,,,,,,,,,,,,,,,167,D,star,1,1,,,5,,,,,,,,,,,,,repeat,number,numRpt,f,1.4307,vtsPrac,11,0,11,0,1,,,,,,,,,,,,,,,,,,,,,,,
292951,2022-11-22_12h00.13.780,vts_reward_expectancy_bt,2022.2.4,MacIntel,60.0024001,Chrome,1470,956,,,,,0,765,,,,,,,,,,,,,,,,,139,S,hexagon,1,0,,,5,,,,,,,,,,,,,switch,letter,lettSwt,k,1.3169,vtsPrac,12,0,12,0,1,,,,,,,,,,,,,,,,,,,,,,,
292951,2022-11-22_12h00.13.780,vts_reward_expectancy_bt,2022.2.4,MacIntel,60.0024001,Chrome,1470,956,,,,,0,765,,,,,,,,,,,,,,,,,125,Y,circle,1,0,,,5,,,,,,,,,,,,,repeat,letter,lettRpt,k,0.7299,vtsPrac,13,0,13,0,1,,,,,,,,,,,,,,,,,,,,,,,
292951,2022-11-22_12h00.13.780,vts_reward_expectancy_bt,2022.2.4,MacIntel,60.0024001,Chrome,1470,956,,,,,0,765,,,,,,,,,,,,,,,,,167,W,hexagon,1,0,,,5,,,,,,,,,,,,,repeat,letter,lettRpt,k,1.6804,vtsPrac,14,0,14,0,1,,,,,,,,,,,,,,,,,,,,,,,
292951,2022-11-22_12h00.13.780,vts_reward_expectancy_bt,2022.2.4,MacIntel,60.0024001,Chrome,1470,956,,,,,0,765,,,,,,,,,,,,,,,,,132,F,circle,1,0,,,5,,,,,,,,,,,,,switch,number,numSwt,d,0.7141,vtsPrac,15,0,15,0,1,,,,,,,,,,,,,,,,,,,,,,,
292951,2022-11-22_12h00.13.780,vts_reward_expectancy_bt,2022.2.4,MacIntel,60.0024001,Chrome,1470,956,,,,,0,765,,,,,,,,,,,,,,,,,167,D,circle,1,0,,,5,,,,,,,,,,,,,repeat,number,numRpt,f,1.3655,vtsPrac,16,0,16,0,1,,,,,,,,,,,,,,,,,,,,,,,
292951,2022-11-22_12h00.13.780,vts_reward_expectancy_bt,2022.2.4,MacIntel,60.0024001,Chrome,1470,956,,,,,0,765,,,,,,,,,,,,,,,,,125,W,triangle,1,0,,,5,,,,,,,,,,,,,repeat,number,numRpt,d,0.9138,vtsPrac,17,0,17,0,1,,,,,,,,,,,,,,,,,,,,,,,
292951,2022-11-22_12h00.13.780,vts_reward_expectancy_bt,2022.2.4,MacIntel,60.0024001,Chrome,1470,956,,,,,0,765,,,,,,,,,,,,,,,,,146,Y,hexagon,1,0,,,5,,,,,,,,,,,,,switch,letter,lettSwt,k,0.8864,vtsPrac,18,0,18,0,1,,,,,,,,,,,,,,,,,,,,,,,
292951,2022-11-22_12h00.13.780,vts_reward_expectancy_bt,2022.2.4,MacIntel,60.0024001,Chrome,1470,956,,,,,0,765,,,,,,,,,,,,,,,,,160,F,star,-1,0,,,5,,,,,,,,,,,,,switch,no_choice,NA,,,vtsPrac,19,0,19,0,1,,,,,,,,,,,,,,,,,,,,,,,
292951,2022-11-22_12h00.13.780,vts_reward_expectancy_bt,2022.2.4,MacIntel,60.0024001,Chrome,1470,956,,,,,0,765,,,,,,,,,,,,,,,,,132,F,hexagon,1,0,,,5,,,,,,,,,,,,,switch,number,numSwt,d,1.7503,vtsPrac,20,0,20,0,1,,,,,,,,,,,,,,,,,,,,,,,
292951,2022-11-22_12h00.13.780,vts_reward_expectancy_bt,2022.2.4,MacIntel,60.0024001,Chrome,1470,956,,,,,0,765,,,,,,,,,,,,,,,,,146,H,star,1,0,,,5,,,,,,,,,,,,,switch,letter,lettSwt,j,1.2958,vtsPrac,21,0,21,0,1,,,,,,,,,,,,,,,,,,,,,,,
292951,2022-11-22_12h00.13.780,vts_reward_expectancy_bt,2022.2.4,MacIntel,60.0024001,Chrome,1470,956,,,,,0,765,,,,,,,,,,,,,,,,,125,S,circle,1,0,,,5,,,,,,,,,,,,,repeat,letter,lettRpt,k,1.1336,vtsPrac,22,0,22,0,1,,,,,,,,,,,,,,,,,,,,,,,
292951,2022-11-22_12h00.13.780,vts_reward_expectancy_bt,2022.2.4,MacIntel,60.0024001,Chrome,1470,956,,,,,0,765,,,,,,,,,,,,,,,,,174,B,hexagon,1,0,,,5,,,,,,,,,,,,,repeat,letter,lettRpt,j,1.5898,vtsPrac,23,0,23,0,1,,,,,,,,,,,,,,,,,,,,,,,
292951,2022-11-22_12h00.13.780,vts_reward_expectancy_bt,2022.2.4,MacIntel,60.0024001,Chrome,1470,956,,,,,0,765,,,,,,,,,,,,,,,,,167,U,circle,1,0,,,5,,,,,,,,,,,,,repeat,letter,lettRpt,k,1.1803,vtsPrac,24,0,24,0,1,,,,,,,,,,,,,,,,,,,,,,,
292951,2022-11-22_12h00.13.780,vts_reward_expectancy_bt,2022.2.4,MacIntel,60.0024001,Chrome,1470,956,,,,,0,765,,,,,,,,,,,,,,,,,174,D,hexagon,1,0,,,5,,,,,,,,,,,,,repeat,letter,lettRpt,j,1.7404,vtsPrac,25,0,25,0,1,,,,,,,,,,,,,,,,,,,,,,,
292951,2022-11-22_12h00.13.780,vts_reward_expectancy_bt,2022.2.4,MacIntel,60.0024001,Chrome,1470,956,,,,,0,765,,,,,,,,,,,,,,,,,125,Y,triangle,1,0,,,5,,,,,,,,,,,,,switch,number,numSwt,d,2.0642,vtsPrac,26,0,26,0,1,,,,,,,,,,,,,,,,,,,,,,,
292951,2022-11-22_12h00.13.780,vts_reward_expectancy_bt,2022.2.4,MacIntel,60.0024001,Chrome,1470,956,,,,,0,765,,,,,,,,,,,,,,,,,146,F,hexagon,1,0,,,5,,,,,,,,,,,,,repeat,number,numRpt,d,1.5068,vtsPrac,27,0,27,0,1,,,,,,,,,,,,,,,,,,,,,,,
292951,2022-11-22_12h00.13.780,vts_reward_expectancy_bt,2022.2.4,MacIntel,60.0024001,Chrome,1470,956,,,,,0,765,,,,,,,,,,,,,,,,,160,U,star,1,0,,,5,,,,,,,,,,,,,repeat,number,numRpt,f,1.5638,vtsPrac,28,0,28,0,1,,,,,,,,,,,,,,,,,,,,,,,
292951,2022-11-22_12h00.13.780,vts_reward_expectancy_bt,2022.2.4,MacIntel,60.0024001,Chrome,1470,956,,,,,0,765,,,,,,,,,,,,,,,,,146,H,circle,1,0,,,5,,,,,,,,,,,,,repeat,number,numRpt,d,1.5798,vtsPrac,29,0,29,0,1,,,,,,,,,,,,,,,,,,,,,,,
292951,2022-11-22_12h00.13.780,vts_reward_expectancy_bt,2022.2.4,MacIntel,60.0024001,Chrome,1470,956,,,,,0,765,,,,,,,,,,,,,,,,,174,B,star,1,0,,,5,,,,,,,,,,,,,repeat,number,numRpt,f,1.1297,vtsPrac,30,0,30,0,1,,,,,,,,,,,,,,,,,,,,,,,
292951,2022-11-22_12h00.13.780,vts_reward_expectancy_bt,2022.2.4,MacIntel,60.0024001,Chrome,1470,956,,,,,0,765,,,,,,,,,,,,,,,,,132,S,circle,1,0,,,5,,,,,,,,,,,,,switch,letter,lettSwt,k,1.5646,vtsPrac,31,0,31,0,1,,,,,,,,,,,,,,,,,,,,,,,
292951,2022-11-22_12h00.13.780,vts_reward_expectancy_bt,2022.2.4,MacIntel,60.0024001,Chrome,1470,956,,,,,,,,,,,,,,,,,,,,,,,,,,,,,,,,,,,,,,,,,,,,,,,,,,,,,,,,,,,,,,,,,,,,,,,,,,,,
292951,2022-11-22_12h00.13.780,vts_reward_expectancy_bt,2022.2.4,MacIntel,60.0024001,Chrome,1470,956,,,,,,,,,,,,,,,,,,,,,,,,,,,,,,,,,,,,,,,,,,,,,,,,,,,,,,,,,,,,,,,,,,,,,,,,,,,,
292951,2022-11-22_12h00.13.780,vts_reward_expectancy_bt,2022.2.4,MacIntel,60.0024001,Chrome,1470,956,,,,,0,765,,,,,,,,,,,,,,,,,146,H,circle,1,0,,,,,,,,,,,,,,,,switch,number,numSwt,d,1.6475,noRew,,,,,,0,0,0,0,0,1,,,,,,,,,,,,,,,,,
292951,2022-11-22_12h00.13.780,vts_reward_expectancy_bt,2022.2.4,MacIntel,60.0024001,Chrome,1470,956,,,,,0,765,,,,,,,,,,,,,,,,,160,D,triangle,1,0,,,,,,,,,,,,,,,,repeat,number,numRpt,f,0.4737,noRew,,,,,,0,1,0,1,0,1,,,,,,,,,,,,,,,,,
292951,2022-11-22_12h00.13.780,vts_reward_expectancy_bt,2022.2.4,MacIntel,60.0024001,Chrome,1470,956,,,,,0,765,,,,,,,,,,,,,,,,,174,B,circle,1,0,,,,,,,,,,,,,,,,repeat,number,numRpt,f,1.589,noRew,,,,,,0,2,0,2,0,1,,,,,,,,,,,,,,,,,
292951,2022-11-22_12h00.13.780,vts_reward_expectancy_bt,2022.2.4,MacIntel,60.0024001,Chrome,1470,956,,,,,0,765,,,,,,,,,,,,,,,,,132,W,triangle,1,0,,,,,,,,,,,,,,,,switch,letter,lettSwt,k,2.8304,noRew,,,,,,0,3,0,3,0,1,,,,,,,,,,,,,,,,,
292951,2022-11-22_12h00.13.780,vts_reward_expectancy_bt,2022.2.4,MacIntel,60.0024001,Chrome,1470,956,,,,,0,765,,,,,,,,,,,,,,,,,146,H,circle,1,0,,,,,,,,,,,,,,,,switch,number,numSwt,d,2.2979,noRew,,,,,,0,4,0,4,0,1,,,,,,,,,,,,,,,,,
292951,2022-11-22_12h00.13.780,vts_reward_expectancy_bt,2022.2.4,MacIntel,60.0024001,Chrome,1470,956,,,,,0,765,,,,,,,,,,,,,,,,,160,D,hexagon,1,0,,,,,,,,,,,,,,,,repeat,number,numRpt,f,1.5318,noRew,,,,,,0,5,0,5,0,1,,,,,,,,,,,,,,,,,
292951,2022-11-22_12h00.13.780,vts_reward_expectancy_bt,2022.2.4,MacIntel,60.0024001,Chrome,1470,956,,,,,0,765,,,,,,,,,,,,,,,,,174,B,circle,1,0,,,,,,,,,,,,,,,,repeat,number,numRpt,f,1.7138,noRew,,,,,,0,6,0,6,0,1,,,,,,,,,,,,,,,,,
292951,2022-11-22_12h00.13.780,vts_reward_expectancy_bt,2022.2.4,MacIntel,60.0024001,Chrome,1470,956,,,,,0,765,,,,,,,,,,,,,,,,,132,W,triangle,1,0,,,,,,,,,,,,,,,,switch,letter,lettSwt,k,0.9328,noRew,,,,,,0,7,0,7,0,1,,,,,,,,,,,,,,,,,
292951,2022-11-22_12h00.13.780,vts_reward_expectancy_bt,2022.2.4,MacIntel,60.0024001,Chrome,1470,956,,,,,0,765,,,,,,,,,,,,,,,,,160,W,circle,1,0,,,,,,,,,,,,,,,,repeat,letter,lettRpt,k,0.767,noRew,,,,,,0,8,0,8,0,1,,,,,,,,,,,,,,,,,
292951,2022-11-22_12h00.13.780,vts_reward_expectancy_bt,2022.2.4,MacIntel,60.0024001,Chrome,1470,956,,,,,0,765,,,,,,,,,,,,,,,,,181,S,triangle,1,0,,,,,,,,,,,,,,,,repeat,letter,lettRpt,k,0.9218,noRew,,,,,,0,9,0,9,0,1,,,,,,,,,,,,,,,,,
292951,2022-11-22_12h00.13.780,vts_reward_expectancy_bt,2022.2.4,MacIntel,60.0024001,Chrome,1470,956,,,,,0,765,,,,,,,,,,,,,,,,,167,B,circle,1,0,,,,,,,,,,,,,,,,switch,number,numSwt,f,0.9144,noRew,,,,,,0,10,0,10,0,1,,,,,,,,,,,,,,,,,
292951,2022-11-22_12h00.13.780,vts_reward_expectancy_bt,2022.2.4,MacIntel,60.0024001,Chrome,1470,956,,,,,0,765,,,,,,,,,,,,,,,,,132,U,triangle,1,0,,,,,,,,,,,,,,,,repeat,number,numRpt,d,1.0381,noRew,,,,,,0,11,0,11,0,1,,,,,,,,,,,,,,,,,
292951,2022-11-22_12h00.13.780,vts_reward_expectancy_bt,2022.2.4,MacIntel,60.0024001,Chrome,1470,956,,,,,0,765,,,,,,,,,,,,,,,,,174,S,hexagon,1,0,,,,,,,,,,,,,,,,repeat,number,numRpt,f,1.7488,noRew,,,,,,0,12,0,12,0,1,,,,,,,,,,,,,,,,,
292951,2022-11-22_12h00.13.780,vts_reward_expectancy_bt,2022.2.4,MacIntel,60.0024001,Chrome,1470,956,,,,,0,765,,,,,,,,,,,,,,,,,160,Y,star,1,0,,,,,,,,,,,,,,,,repeat,number,numRpt,f,1.9012,noRew,,,,,,0,13,0,13,0,1,,,,,,,,,,,,,,,,,
292951,2022-11-22_12h00.13.780,vts_reward_expectancy_bt,2022.2.4,MacIntel,60.0024001,Chrome,1470,956,,,,,0,765,,,,,,,,,,,,,,,,,181,B,circle,1,0,,,,,,,,,,,,,,,,switch,letter,lettSwt,j,1.2531,noRew,,,,,,0,14,0,14,0,1,,,,,,,,,,,,,,,,,
292951,2022-11-22_12h00.13.780,vts_reward_expectancy_bt,2022.2.4,MacIntel,60.0024001,Chrome,1470,956,,,,,0,765,,,,,,,,,,,,,,,,,167,D,star,-1,0,,,,,,,,,,,,,,,,switch,no_choice,NA,,,noRew,,,,,,0,15,0,15,0,1,,,,,,,,,,,,,,,,,
292951,2022-11-22_12h00.13.780,vts_reward_expectancy_bt,2022.2.4,MacIntel,60.0024001,Chrome,1470,956,,,,,0,765,,,,,,,,,,,,,,,,,125,H,star,1,0,,,,,,,,,,,,,,,,switch,number,numSwt,d,1.6967,noRew,,,,,,0,16,0,16,0,1,,,,,,,,,,,,,,,,,
292951,2022-11-22_12h00.13.780,vts_reward_expectancy_bt,2022.2.4,MacIntel,60.0024001,Chrome,1470,956,,,,,0,765,,,,,,,,,,,,,,,,,160,Y,triangle,1,0,,,,,,,,,,,,,,,,switch,letter,lettSwt,k,0.8473,noRew,,,,,,0,17,0,17,0,1,,,,,,,,,,,,,,,,,
292951,2022-11-22_12h00.13.780,vts_reward_expectancy_bt,2022.2.4,MacIntel,60.0024001,Chrome,1470,956,,,,,0,765,,,,,,,,,,,,,,,,,181,S,hexagon,1,0,,,,,,,,,,,,,,,,repeat,letter,lettRpt,k,0.7981,noRew,,,,,,0,18,0,18,0,1,,,,,,,,,,,,,,,,,
292951,2022-11-22_12h00.13.780,vts_reward_expectancy_bt,2022.2.4,MacIntel,60.0024001,Chrome,1470,956,,,,,0,765,,,,,,,,,,,,,,,,,139,F,circle,1,0,,,,,,,,,,,,,,,,repeat,letter,lettRpt,j,1.2643,noRew,,,,,,0,19,0,19,0,1,,,,,,,,,,,,,,,,,
292951,2022-11-22_12h00.13.780,vts_reward_expectancy_bt,2022.2.4,MacIntel,60.0024001,Chrome,1470,956,,,,,0,765,,,,,,,,,,,,,,,,,139,U,hexagon,1,0,,,,,,,,,,,,,,,,switch,number,numSwt,d,0.7911,noRew,,,,,,0,20,0,20,0,1,,,,,,,,,,,,,,,,,
292951,2022-11-22_12h00.13.780,vts_reward_expectancy_bt,2022.2.4,MacIntel,60.0024001,Chrome,1470,956,,,,,0,765,,,,,,,,,,,,,,,,,181,W,circle,1,0,,,,,,,,,,,,,,,,switch,letter,lettSwt,k,1.4144,noRew,,,,,,0,21,0,21,0,1,,,,,,,,,,,,,,,,,
292951,2022-11-22_12h00.13.780,vts_reward_expectancy_bt,2022.2.4,MacIntel,60.0024001,Chrome,1470,956,,,,,0,765,,,,,,,,,,,,,,,,,160,D,triangle,1,0,,,,,,,,,,,,,,,,repeat,letter,lettRpt,j,1.0633,noRew,,,,,,0,22,0,22,0,1,,,,,,,,,,,,,,,,,
292951,2022-11-22_12h00.13.780,vts_reward_expectancy_bt,2022.2.4,MacIntel,60.0024001,Chrome,1470,956,,,,,0,765,,,,,,,,,,,,,,,,,167,S,circle,1,0,,,,,,,,,,,,,,,,repeat,letter,lettRpt,k,1.9355,noRew,,,,,,0,23,0,23,0,1,,,,,,,,,,,,,,,,,
292951,2022-11-22_12h00.13.780,vts_reward_expectancy_bt,2022.2.4,MacIntel,60.0024001,Chrome,1470,956,,,,,0,765,,,,,,,,,,,,,,,,,125,F,hexagon,1,0,,,,,,,,,,,,,,,,repeat,letter,lettRpt,j,0.8881,noRew,,,,,,0,24,0,24,0,1,,,,,,,,,,,,,,,,,
292951,2022-11-22_12h00.13.780,vts_reward_expectancy_bt,2022.2.4,MacIntel,60.0024001,Chrome,1470,956,,,,,0,765,,,,,,,,,,,,,,,,,181,B,triangle,1,0,,,,,,,,,,,,,,,,repeat,letter,lettRpt,j,0.914,noRew,,,,,,0,25,0,25,0,1,,,,,,,,,,,,,,,,,
292951,2022-11-22_12h00.13.780,vts_reward_expectancy_bt,2022.2.4,MacIntel,60.0024001,Chrome,1470,956,,,,,0,765,,,,,,,,,,,,,,,,,160,U,circle,1,0,,,,,,,,,,,,,,,,switch,number,numSwt,f,1.5702,noRew,,,,,,0,26,0,26,0,1,,,,,,,,,,,,,,,,,
292951,2022-11-22_12h00.13.780,vts_reward_expectancy_bt,2022.2.4,MacIntel,60.0024001,Chrome,1470,956,,,,,0,765,,,,,,,,,,,,,,,,,167,Y,triangle,1,0,,,,,,,,,,,,,,,,switch,letter,lettSwt,k,1.3472,noRew,,,,,,0,27,0,27,0,1,,,,,,,,,,,,,,,,,
292951,2022-11-22_12h00.13.780,vts_reward_expectancy_bt,2022.2.4,MacIntel,60.0024001,Chrome,1470,956,,,,,0,765,,,,,,,,,,,,,,,,,139,U,star,1,0,,,,,,,,,,,,,,,,repeat,letter,lettRpt,k,0.6995,noRew,,,,,,0,28,0,28,0,1,,,,,,,,,,,,,,,,,
292951,2022-11-22_12h00.13.780,vts_reward_expectancy_bt,2022.2.4,MacIntel,60.0024001,Chrome,1470,956,,,,,0,765,,,,,,,,,,,,,,,,,174,B,triangle,1,0,,,,,,,,,,,,,,,,repeat,letter,lettRpt,j,1.2966,noRew,,,,,,0,29,0,29,0,1,,,,,,,,,,,,,,,,,
292951,2022-11-22_12h00.13.780,vts_reward_expectancy_bt,2022.2.4,MacIntel,60.0024001,Chrome,1470,956,,,,,0,765,,,,,,,,,,,,,,,,,132,H,hexagon,1,0,,,,,,,,,,,,,,,,switch,number,numSwt,d,1.4303,noRew,,,,,,0,30,0,30,0,1,,,,,,,,,,,,,,,,,
292951,2022-11-22_12h00.13.780,vts_reward_expectancy_bt,2022.2.4,MacIntel,60.0024001,Chrome,1470,956,,,,,0,765,,,,,,,,,,,,,,,,,167,S,circle,1,0,,,,,,,,,,,,,,,,repeat,number,numRpt,f,0.6874,noRew,,,,,,0,31,0,31,0,1,,,,,,,,,,,,,,,,,
292951,2022-11-22_12h00.13.780,vts_reward_expectancy_bt,2022.2.4,MacIntel,60.0024001,Chrome,1470,956,,,,,0,765,,,,,,,,,,,,,,,,,139,D,hexagon,1,0,,,,,,,,,,,,,,,,repeat,number,numRpt,d,1.6316,noRew,,,,,,0,32,0,32,0,1,,,,,,,,,,,,,,,,,
292951,2022-11-22_12h00.13.780,vts_reward_expectancy_bt,2022.2.4,MacIntel,60.0024001,Chrome,1470,956,,,,,0,765,,,,,,,,,,,,,,,,,174,Y,triangle,1,0,,,,,,,,,,,,,,,,switch,letter,lettSwt,k,0.9969,noRew,,,,,,0,33,0,33,0,1,,,,,,,,,,,,,,,,,
292951,2022-11-22_12h00.13.780,vts_reward_expectancy_bt,2022.2.4,MacIntel,60.0024001,Chrome,1470,956,,,,,0,765,,,,,,,,,,,,,,,,,132,B,circle,1,0,,,,,,,,,,,,,,,,switch,number,numSwt,d,1.3123,noRew,,,,,,0,34,0,34,0,1,,,,,,,,,,,,,,,,,
292951,2022-11-22_12h00.13.780,vts_reward_expectancy_bt,2022.2.4,MacIntel,60.0024001,Chrome,1470,956,,,,,0,765,,,,,,,,,,,,,,,,,167,S,star,1,0,,,,,,,,,,,,,,,,repeat,number,numRpt,f,1.9175,noRew,,,,,,0,35,0,35,0,1,,,,,,,,,,,,,,,,,
292951,2022-11-22_12h00.13.780,vts_reward_expectancy_bt,2022.2.4,MacIntel,60.0024001,Chrome,1470,956,,,,,0,765,,,,,,,,,,,,,,,,,160,S,star,1,0,,,,,,,,,,,,,,,,repeat,number,numRpt,f,1.6314,noRew,,,,,,0,36,0,36,0,1,,,,,,,,,,,,,,,,,
292951,2022-11-22_12h00.13.780,vts_reward_expectancy_bt,2022.2.4,MacIntel,60.0024001,Chrome,1470,956,,,,,0,765,,,,,,,,,,,,,,,,,132,H,circle,1,0,,,,,,,,,,,,,,,,repeat,number,numRpt,d,1.049,noRew,,,,,,0,37,0,37,0,1,,,,,,,,,,,,,,,,,
292951,2022-11-22_12h00.13.780,vts_reward_expectancy_bt,2022.2.4,MacIntel,60.0024001,Chrome,1470,956,,,,,0,765,,,,,,,,,,,,,,,,,174,Y,triangle,1,0,,,,,,,,,,,,,,,,switch,letter,lettSwt,k,1.3157,noRew,,,,,,0,38,0,38,0,1,,,,,,,,,,,,,,,,,
292951,2022-11-22_12h00.13.780,vts_reward_expectancy_bt,2022.2.4,MacIntel,60.0024001,Chrome,1470,956,,,,,0,765,,,,,,,,,,,,,,,,,139,U,circle,1,0,,,,,,,,,,,,,,,,repeat,letter,lettRpt,k,0.7463,noRew,,,,,,0,39,0,39,0,1,,,,,,,,,,,,,,,,,
292951,2022-11-22_12h00.13.780,vts_reward_expectancy_bt,2022.2.4,MacIntel,60.0024001,Chrome,1470,956,,,,,0,765,,,,,,,,,,,,,,,,,181,W,circle,1,0,,,,,,,,,,,,,,,,repeat,letter,lettRpt,k,0.7831,noRew,,,,,,0,40,0,40,0,1,,,,,,,,,,,,,,,,,
292951,2022-11-22_12h00.13.780,vts_reward_expectancy_bt,2022.2.4,MacIntel,60.0024001,Chrome,1470,956,,,,,0,765,,,,,,,,,,,,,,,,,132,S,star,1,0,,,,,,,,,,,,,,,,switch,number,numSwt,d,1.0726,noRew,,,,,,0,41,0,41,0,1,,,,,,,,,,,,,,,,,
292951,2022-11-22_12h00.13.780,vts_reward_expectancy_bt,2022.2.4,MacIntel,60.0024001,Chrome,1470,956,,,,,0,765,,,,,,,,,,,,,,,,,146,D,hexagon,1,0,,,,,,,,,,,,,,,,repeat,number,numRpt,d,1.8496,noRew,,,,,,0,42,0,42,0,1,,,,,,,,,,,,,,,,,
292951,2022-11-22_12h00.13.780,vts_reward_expectancy_bt,2022.2.4,MacIntel,60.0024001,Chrome,1470,956,,,,,0,765,,,,,,,,,,,,,,,,,139,B,triangle,1,0,,,,,,,,,,,,,,,,repeat,number,numRpt,d,0.614,noRew,,,,,,0,43,0,43,0,1,,,,,,,,,,,,,,,,,
292951,2022-11-22_12h00.13.780,vts_reward_expectancy_bt,2022.2.4,MacIntel,60.0024001,Chrome,1470,956,,,,,0,765,,,,,,,,,,,,,,,,,174,W,hexagon,1,0,,,,,,,,,,,,,,,,switch,letter,lettSwt,k,0.9137,noRew,,,,,,0,44,0,44,0,1,,,,,,,,,,,,,,,,,
292951,2022-11-22_12h00.13.780,vts_reward_expectancy_bt,2022.2.4,MacIntel,60.0024001,Chrome,1470,956,,,,,0,765,,,,,,,,,,,,,,,,,132,F,triangle,1,0,,,,,,,,,,,,,,,,repeat,letter,lettRpt,j,1.3487,noRew,,,,,,0,45,0,45,0,1,,,,,,,,,,,,,,,,,
292951,2022-11-22_12h00.13.780,vts_reward_expectancy_bt,2022.2.4,MacIntel,60.0024001,Chrome,1470,956,,,,,0,765,,,,,,,,,,,,,,,,,160,B,triangle,1,0,,,,,,,,,,,,,,,,repeat,letter,lettRpt,j,0.8372,noRew,,,,,,0,46,0,46,0,1,,,,,,,,,,,,,,,,,
292951,2022-11-22_12h00.13.780,vts_reward_expectancy_bt,2022.2.4,MacIntel,60.0024001,Chrome,1470,956,,,,,0,765,,,,,,,,,,,,,,,,,146,U,star,1,0,,,,,,,,,,,,,,,,switch,number,numSwt,d,1.2636,noRew,,,,,,0,47,0,47,0,1,,,,,,,,,,,,,,,,,
292951,2022-11-22_12h00.13.780,vts_reward_expectancy_bt,2022.2.4,MacIntel,60.0024001,Chrome,1470,956,,,,,0,765,,,,,,,,,,,,,,,,,174,D,triangle,1,0,,,,,,,,,,,,,,,,repeat,number,numRpt,f,1.3487,noRew,,,,,,0,48,0,48,0,1,,,,,,,,,,,,,,,,,
292951,2022-11-22_12h00.13.780,vts_reward_expectancy_bt,2022.2.4,MacIntel,60.0024001,Chrome,1470,956,,,,,0,765,,,,,,,,,,,,,,,,,167,H,circle,1,0,,,,,,,,,,,,,,,,switch,letter,lettSwt,j,1.8874,noRew,,,,,,0,49,0,49,0,1,,,,,,,,,,,,,,,,,
292951,2022-11-22_12h00.13.780,vts_reward_expectancy_bt,2022.2.4,MacIntel,60.0024001,Chrome,1470,956,,,,,0,765,,,,,,,,,,,,,,,,,160,F,circle,1,0,,,,,,,,,,,,,,,,switch,number,numSwt,f,1.6716,noRew,,,,,,0,50,0,50,0,1,,,,,,,,,,,,,,,,,
292951,2022-11-22_12h00.13.780,vts_reward_expectancy_bt,2022.2.4,MacIntel,60.0024001,Chrome,1470,956,,,,,0,765,,,,,,,,,,,,,,,,,146,Y,triangle,1,0,,,,,,,,,,,,,,,,repeat,number,numRpt,d,1.8331,noRew,,,,,,0,51,0,51,0,1,,,,,,,,,,,,,,,,,
292951,2022-11-22_12h00.13.780,vts_reward_expectancy_bt,2022.2.4,MacIntel,60.0024001,Chrome,1470,956,,,,,0,765,,,,,,,,,,,,,,,,,132,W,triangle,1,0,,,,,,,,,,,,,,,,repeat,number,numRpt,d,0.7471,noRew,,,,,,0,52,0,52,0,1,,,,,,,,,,,,,,,,,
292951,2022-11-22_12h00.13.780,vts_reward_expectancy_bt,2022.2.4,MacIntel,60.0024001,Chrome,1470,956,,,,,0,765,,,,,,,,,,,,,,,,,125,B,star,1,0,,,,,,,,,,,,,,,,switch,letter,lettSwt,j,0.8056,noRew,,,,,,0,53,0,53,0,1,,,,,,,,,,,,,,,,,
292951,2022-11-22_12h00.13.780,vts_reward_expectancy_bt,2022.2.4,MacIntel,60.0024001,Chrome,1470,956,,,,,0,765,,,,,,,,,,,,,,,,,146,U,triangle,1,0,,,,,,,,,,,,,,,,repeat,letter,lettRpt,k,1.4184,noRew,,,,,,0,54,0,54,0,1,,,,,,,,,,,,,,,,,
292951,2022-11-22_12h00.13.780,vts_reward_expectancy_bt,2022.2.4,MacIntel,60.0024001,Chrome,1470,956,,,,,0,765,,,,,,,,,,,,,,,,,167,F,star,0,0,,,,,,,,,,,,,,,,switch,number,NA,d,1.7977,noRew,,,,,,0,55,0,55,0,1,,,,,,,,,,,,,,,,,
292951,2022-11-22_12h00.13.780,vts_reward_expectancy_bt,2022.2.4,MacIntel,60.0024001,Chrome,1470,956,,,,,0,765,,,,,,,,,,,,,,,,,181,D,circle,1,1,,,,,,,,,,,,,,,,repeat,number,numRpt,f,0.8713,noRew,,,,,,0,56,0,56,0,1,,,,,,,,,,,,,,,,,
292951,2022-11-22_12h00.13.780,vts_reward_expectancy_bt,2022.2.4,MacIntel,60.0024001,Chrome,1470,956,,,,,0,765,,,,,,,,,,,,,,,,,167,W,star,1,0,,,,,,,,,,,,,,,,repeat,number,numRpt,f,1.7797,noRew,,,,,,0,57,0,57,0,1,,,,,,,,,,,,,,,,,
292951,2022-11-22_12h00.13.780,vts_reward_expectancy_bt,2022.2.4,MacIntel,60.0024001,Chrome,1470,956,,,,,0,765,,,,,,,,,,,,,,,,,146,Y,star,1,0,,,,,,,,,,,,,,,,switch,letter,lettSwt,k,0.9136,noRew,,,,,,0,58,0,58,0,1,,,,,,,,,,,,,,,,,
292951,2022-11-22_12h00.13.780,vts_reward_expectancy_bt,2022.2.4,MacIntel,60.0024001,Chrome,1470,956,,,,,0,765,,,,,,,,,,,,,,,,,139,U,hexagon,1,0,,,,,,,,,,,,,,,,repeat,letter,lettRpt,k,0.7804,noRew,,,,,,0,59,0,59,0,1,,,,,,,,,,,,,,,,,
292951,2022-11-22_12h00.13.780,vts_reward_expectancy_bt,2022.2.4,MacIntel,60.0024001,Chrome,1470,956,,,,,0,765,,,,,,,,,,,,,,,,,146,W,star,1,0,,,,,,,,,,,,,,,,switch,number,numSwt,d,0.9136,noRew,,,,,,0,60,0,60,0,1,,,,,,,,,,,,,,,,,
292951,2022-11-22_12h00.13.780,vts_reward_expectancy_bt,2022.2.4,MacIntel,60.0024001,Chrome,1470,956,,,,,0,765,,,,,,,,,,,,,,,,,167,U,hexagon,1,0,,,,,,,,,,,,,,,,repeat,number,numRpt,f,1.0317,noRew,,,,,,0,61,0,61,0,1,,,,,,,,,,,,,,,,,
292951,2022-11-22_12h00.13.780,vts_reward_expectancy_bt,2022.2.4,MacIntel,60.0024001,Chrome,1470,956,,,,,0,765,,,,,,,,,,,,,,,,,174,F,circle,1,0,,,,,,,,,,,,,,,,switch,letter,lettSwt,j,1.0134,noRew,,,,,,0,62,0,62,0,1,,,,,,,,,,,,,,,,,
292951,2022-11-22_12h00.13.780,vts_reward_expectancy_bt,2022.2.4,MacIntel,60.0024001,Chrome,1470,956,,,,,0,765,,,,,,,,,,,,,,,,,125,S,star,1,0,,,,,,,,,,,,,,,,repeat,letter,lettRpt,k,0.9707,noRew,,,,,,0,63,0,63,0,1,,,,,,,,,,,,,,,,,
292951,2022-11-22_12h00.13.780,vts_reward_expectancy_bt,2022.2.4,MacIntel,60.0024001,Chrome,1470,956,,,,,,,,,,,,,,,,,,,,,,,,,,,,,,,,,,,,,,,,,,,,,,,,,,,,,,,,,,,,,,,,,,,,,,,,,,,,
292951,2022-11-22_12h00.13.780,vts_reward_expectancy_bt,2022.2.4,MacIntel,60.0024001,Chrome,1470,956,,,,,10,775,,,,,,,,,,,,,,,,,132,U,circle,1,0,,,,,,,,,,,,,,,,switch,number,numSwt,d,0.863,Lo,,,,,,0,,,,,,space,38.8358,high,0,0,0,0,1,,,,,,,,,
292951,2022-11-22_12h00.13.780,vts_reward_expectancy_bt,2022.2.4,MacIntel,60.0024001,Chrome,1470,956,,,,,0,775,,,,,,,,,,,,,,,,,160,F,triangle,0,0,,,,,,,,,,,,,,,,switch,letter,NA,k,1.4973,Lo,,,,,,0,,,,,,,,high,1,0,1,0,1,,,,,,,,,
292951,2022-11-22_12h00.13.780,vts_reward_expectancy_bt,2022.2.4,MacIntel,60.0024001,Chrome,1470,956,,,,,0,775,,,,,,,,,,,,,,,,,181,D,star,0,1,,,,,,,,,,,,,,,,switch,number,NA,d,0.9011,Lo,,,,,,0,,,,,,,,high,2,0,2,0,1,,,,,,,,,
292951,2022-11-22_12h00.13.780,vts_reward_expectancy_bt,2022.2.4,MacIntel,60.0024001,Chrome,1470,956,,,,,1,776,,,,,,,,,,,,,,,,,146,H,hexagon,1,1,,,,,,,,,,,,,,,,repeat,number,numRpt,d,2.0305,Lo,,,,,,0,,,,,,,,high,3,0,3,0,1,,,,,,,,,
292951,2022-11-22_12h00.13.780,vts_reward_expectancy_bt,2022.2.4,MacIntel,60.0024001,Chrome,1470,956,,,,,1,777,,,,,,,,,,,,,,,,,174,B,circle,1,0,,,,,,,,,,,,,,,,switch,letter,lettSwt,j,1.3849,Lo,,,,,,0,,,,,,,,high,4,0,4,0,1,,,,,,,,,
292951,2022-11-22_12h00.13.780,vts_reward_expectancy_bt,2022.2.4,MacIntel,60.0024001,Chrome,1470,956,,,,,0,777,,,,,,,,,,,,,,,,,125,W,triangle,1,0,,,,,,,,,,,,,,,,switch,number,numSwt,d,2.0816,Hi,,,,,,0,,,,,,,,high,5,0,5,0,1,,,,,,,,,
292951,2022-11-22_12h00.13.780,vts_reward_expectancy_bt,2022.2.4,MacIntel,60.0024001,Chrome,1470,956,,,,,1,778,,,,,,,,,,,,,,,,,167,Y,star,1,0,,,,,,,,,,,,,,,,switch,letter,lettSwt,k,0.8982,Hi,,,,,,0,,,,,,,,high,6,0,6,0,1,,,,,,,,,
292951,2022-11-22_12h00.13.780,vts_reward_expectancy_bt,2022.2.4,MacIntel,60.0024001,Chrome,1470,956,,,,,1,779,,,,,,,,,,,,,,,,,139,S,hexagon,1,0,,,,,,,,,,,,,,,,switch,number,numSwt,d,0.4987,Lo,,,,,,0,,,,,,,,high,7,0,7,0,1,,,,,,,,,
292951,2022-11-22_12h00.13.780,vts_reward_expectancy_bt,2022.2.4,MacIntel,60.0024001,Chrome,1470,956,,,,,10,789,,,,,,,,,,,,,,,,,132,U,star,1,0,,,,,,,,,,,,,,,,repeat,number,numRpt,d,0.6139,Hi,,,,,,0,,,,,,,,high,8,0,8,0,1,,,,,,,,,
292951,2022-11-22_12h00.13.780,vts_reward_expectancy_bt,2022.2.4,MacIntel,60.0024001,Chrome,1470,956,,,,,10,799,,,,,,,,,,,,,,,,,160,F,triangle,1,0,,,,,,,,,,,,,,,,repeat,number,numRpt,f,0.7847,Hi,,,,,,0,,,,,,,,high,9,0,9,0,1,,,,,,,,,
292951,2022-11-22_12h00.13.780,vts_reward_expectancy_bt,2022.2.4,MacIntel,60.0024001,Chrome,1470,956,,,,,0,799,,,,,,,,,,,,,,,,,181,D,hexagon,0,0,,,,,,,,,,,,,,,,switch,letter,NA,k,1.1661,Hi,,,,,,0,,,,,,,,high,10,0,10,0,1,,,,,,,,,
292951,2022-11-22_12h00.13.780,vts_reward_expectancy_bt,2022.2.4,MacIntel,60.0024001,Chrome,1470,956,,,,,0,799,,,,,,,,,,,,,,,,,146,H,circle,0,1,,,,,,,,,,,,,,,,switch,number,NA,f,0.9051,Hi,,,,,,0,,,,,,,,high,11,0,11,0,1,,,,,,,,,
292951,2022-11-22_12h00.13.780,vts_reward_expectancy_bt,2022.2.4,MacIntel,60.0024001,Chrome,1470,956,,,,,0,799,,,,,,,,,,,,,,,,,174,B,star,1,1,,,,,,,,,,,,,,,,repeat,number,numRpt,f,1.4474,Hi,,,,,,0,,,,,,,,high,12,0,12,0,1,,,,,,,,,
292951,2022-11-22_12h00.13.780,vts_reward_expectancy_bt,2022.2.4,MacIntel,60.0024001,Chrome,1470,956,,,,,1,800,,,,,,,,,,,,,,,,,125,W,triangle,1,0,,,,,,,,,,,,,,,,repeat,number,numRpt,d,0.8047,Hi,,,,,,0,,,,,,,,high,13,0,13,0,1,,,,,,,,,
292951,2022-11-22_12h00.13.780,vts_reward_expectancy_bt,2022.2.4,MacIntel,60.0024001,Chrome,1470,956,,,,,1,801,,,,,,,,,,,,,,,,,167,Y,hexagon,1,0,,,,,,,,,,,,,,,,repeat,number,numRpt,f,0.8131,Lo,,,,,,0,,,,,,,,high,14,0,14,0,1,,,,,,,,,
292951,2022-11-22_12h00.13.780,vts_reward_expectancy_bt,2022.2.4,MacIntel,60.0024001,Chrome,1470,956,,,,,10,811,,,,,,,,,,,,,,,,,139,S,circle,1,0,,,,,,,,,,,,,,,,repeat,number,numRpt,d,1.0965,Lo,,,,,,0,,,,,,,,high,15,0,15,0,1,,,,,,,,,
292951,2022-11-22_12h00.13.780,vts_reward_expectancy_bt,2022.2.4,MacIntel,60.0024001,Chrome,1470,956,,,,,0,811,,,,,,,,,,,,,,,,,132,F,star,1,0,,,,,,,,,,,,,,,,switch,letter,lettSwt,j,1.8634,Hi,,,,,,0,,,,,,,,high,16,0,16,0,1,,,,,,,,,
292951,2022-11-22_12h00.13.780,vts_reward_expectancy_bt,2022.2.4,MacIntel,60.0024001,Chrome,1470,956,,,,,1,812,,,,,,,,,,,,,,,,,160,U,hexagon,1,0,,,,,,,,,,,,,,,,switch,number,numSwt,f,1.1315,Lo,,,,,,0,,,,,,,,high,17,0,17,0,1,,,,,,,,,
292951,2022-11-22_12h00.13.780,vts_reward_expectancy_bt,2022.2.4,MacIntel,60.0024001,Chrome,1470,956,,,,,10,822,,,,,,,,,,,,,,,,,181,W,circle,1,0,,,,,,,,,,,,,,,,repeat,number,numRpt,f,0.8475,Lo,,,,,,0,,,,,,,,high,18,0,18,0,1,,,,,,,,,
292951,2022-11-22_12h00.13.780,vts_reward_expectancy_bt,2022.2.4,MacIntel,60.0024001,Chrome,1470,956,,,,,10,832,,,,,,,,,,,,,,,,,167,B,triangle,1,0,,,,,,,,,,,,,,,,repeat,number,numRpt,f,0.8468,Hi,,,,,,0,,,,,,,,high,19,0,19,0,1,,,,,,,,,
292951,2022-11-22_12h00.13.780,vts_reward_expectancy_bt,2022.2.4,MacIntel,60.0024001,Chrome,1470,956,,,,,10,842,,,,,,,,,,,,,,,,,139,H,star,1,0,,,,,,,,,,,,,,,,repeat,number,numRpt,d,0.9517,Hi,,,,,,0,,,,,,,,high,20,0,20,0,1,,,,,,,,,
292951,2022-11-22_12h00.13.780,vts_reward_expectancy_bt,2022.2.4,MacIntel,60.0024001,Chrome,1470,956,,,,,1,843,,,,,,,,,,,,,,,,,146,D,triangle,1,0,,,,,,,,,,,,,,,,repeat,number,numRpt,d,0.9654,Hi,,,,,,0,,,,,,,,high,21,0,21,0,1,,,,,,,,,
292951,2022-11-22_12h00.13.780,vts_reward_expectancy_bt,2022.2.4,MacIntel,60.0024001,Chrome,1470,956,,,,,1,844,,,,,,,,,,,,,,,,,174,Y,hexagon,1,0,,,,,,,,,,,,,,,,switch,letter,lettSwt,k,1.2159,Lo,,,,,,0,,,,,,,,high,22,0,22,0,1,,,,,,,,,
292951,2022-11-22_12h00.13.780,vts_reward_expectancy_bt,2022.2.4,MacIntel,60.0024001,Chrome,1470,956,,,,,1,845,,,,,,,,,,,,,,,,,125,S,circle,1,0,,,,,,,,,,,,,,,,repeat,letter,lettRpt,k,0.9289,Lo,,,,,,0,,,,,,,,high,23,0,23,0,1,,,,,,,,,
292951,2022-11-22_12h00.13.780,vts_reward_expectancy_bt,2022.2.4,MacIntel,60.0024001,Chrome,1470,956,,,,,0,845,,,,,,,,,,,,,,,,,125,F,triangle,1,0,,,,,,,,,,,,,,,,repeat,letter,lettRpt,j,0.9488,Hi,,,,,,0,,,,,,,,high,24,0,24,0,1,,,,,,,,,
292951,2022-11-22_12h00.13.780,vts_reward_expectancy_bt,2022.2.4,MacIntel,60.0024001,Chrome,1470,956,,,,,0,845,,,,,,,,,,,,,,,,,181,U,circle,0,0,,,,,,,,,,,,,,,,switch,number,NA,d,0.8749,Hi,,,,,,0,,,,,,,,high,25,0,25,0,1,,,,,,,,,
292951,2022-11-22_12h00.13.780,vts_reward_expectancy_bt,2022.2.4,MacIntel,60.0024001,Chrome,1470,956,,,,,10,855,,,,,,,,,,,,,,,,,160,W,star,1,1,,,,,,,,,,,,,,,,switch,letter,lettSwt,k,0.8309,Hi,,,,,,0,,,,,,,,high,26,0,26,0,1,,,,,,,,,
292951,2022-11-22_12h00.13.780,vts_reward_expectancy_bt,2022.2.4,MacIntel,60.0024001,Chrome,1470,956,,,,,10,865,,,,,,,,,,,,,,,,,139,Y,hexagon,1,0,,,,,,,,,,,,,,,,switch,number,numSwt,d,1.051,Lo,,,,,,0,,,,,,,,high,27,0,27,0,1,,,,,,,,,
292951,2022-11-22_12h00.13.780,vts_reward_expectancy_bt,2022.2.4,MacIntel,60.0024001,Chrome,1470,956,,,,,10,875,,,,,,,,,,,,,,,,,132,B,triangle,1,0,,,,,,,,,,,,,,,,repeat,number,numRpt,d,1.0343,Hi,,,,,,0,,,,,,,,high,28,0,28,0,1,,,,,,,,,
292951,2022-11-22_12h00.13.780,vts_reward_expectancy_bt,2022.2.4,MacIntel,60.0024001,Chrome,1470,956,,,,,1,876,,,,,,,,,,,,,,,,,167,H,hexagon,1,0,,,,,,,,,,,,,,,,repeat,number,numRpt,f,1.6801,Lo,,,,,,0,,,,,,,,high,29,0,29,0,1,,,,,,,,,
292951,2022-11-22_12h00.13.780,vts_reward_expectancy_bt,2022.2.4,MacIntel,60.0024001,Chrome,1470,956,,,,,10,886,,,,,,,,,,,,,,,,,146,D,circle,1,0,,,,,,,,,,,,,,,,switch,letter,lettSwt,j,1.3339,Lo,,,,,,0,,,,,,,,high,30,0,30,0,1,,,,,,,,,
292951,2022-11-22_12h00.13.780,vts_reward_expectancy_bt,2022.2.4,MacIntel,60.0024001,Chrome,1470,956,,,,,0,886,,,,,,,,,,,,,,,,,174,S,star,0,0,,,,,,,,,,,,,,,,switch,number,NA,d,1.366,Lo,,,,,,0,,,,,,,,high,31,0,31,0,1,,,,,,,,,
292951,2022-11-22_12h00.13.780,vts_reward_expectancy_bt,2022.2.4,MacIntel,60.0024001,Chrome,1470,956,,,,,1,887,,,,,,,,,,,,,,,,,174,W,hexagon,1,1,,,,,,,,,,,,,,,,repeat,number,numRpt,f,1.117,Lo,,,,,,1,,,,,,space,4.8646,high,0,0,0,0,1,,,,,,,,,
292951,2022-11-22_12h00.13.780,vts_reward_expectancy_bt,2022.2.4,MacIntel,60.0024001,Chrome,1470,956,,,,,0,887,,,,,,,,,,,,,,,,,160,H,star,0,0,,,,,,,,,,,,,,,,switch,letter,NA,k,0.9381,Lo,,,,,,1,,,,,,,,high,1,0,1,0,1,,,,,,,,,
292951,2022-11-22_12h00.13.780,vts_reward_expectancy_bt,2022.2.4,MacIntel,60.0024001,Chrome,1470,956,,,,,10,897,,,,,,,,,,,,,,,,,181,F,circle,1,1,,,,,,,,,,,,,,,,repeat,letter,lettRpt,j,0.8298,Lo,,,,,,1,,,,,,,,high,2,0,2,0,1,,,,,,,,,
292951,2022-11-22_12h00.13.780,vts_reward_expectancy_bt,2022.2.4,MacIntel,60.0024001,Chrome,1470,956,,,,,10,907,,,,,,,,,,,,,,,,,125,Y,triangle,1,0,,,,,,,,,,,,,,,,switch,number,numSwt,d,0.749,Hi,,,,,,1,,,,,,,,high,3,0,3,0,1,,,,,,,,,
292951,2022-11-22_12h00.13.780,vts_reward_expectancy_bt,2022.2.4,MacIntel,60.0024001,Chrome,1470,956,,,,,10,917,,,,,,,,,,,,,,,,,167,S,hexagon,1,0,,,,,,,,,,,,,,,,switch,letter,lettSwt,k,0.797,Lo,,,,,,1,,,,,,,,high,4,0,4,0,1,,,,,,,,,
292951,2022-11-22_12h00.13.780,vts_reward_expectancy_bt,2022.2.4,MacIntel,60.0024001,Chrome,1470,956,,,,,10,927,,,,,,,,,,,,,,,,,146,U,star,1,0,,,,,,,,,,,,,,,,repeat,letter,lettRpt,k,0.8564,Hi,,,,,,1,,,,,,,,high,5,0,5,0,1,,,,,,,,,
292951,2022-11-22_12h00.13.780,vts_reward_expectancy_bt,2022.2.4,MacIntel,60.0024001,Chrome,1470,956,,,,,10,937,,,,,,,,,,,,,,,,,139,D,circle,1,0,,,,,,,,,,,,,,,,switch,number,numSwt,d,0.8659,Lo,,,,,,1,,,,,,,,high,6,0,6,0,1,,,,,,,,,
292951,2022-11-22_12h00.13.780,vts_reward_expectancy_bt,2022.2.4,MacIntel,60.0024001,Chrome,1470,956,,,,,0,937,,,,,,,,,,,,,,,,,132,B,triangle,1,0,,,,,,,,,,,,,,,,switch,letter,lettSwt,j,1.4062,Hi,,,,,,1,,,,,,,,high,7,0,7,0,1,,,,,,,,,
292951,2022-11-22_12h00.13.780,vts_reward_expectancy_bt,2022.2.4,MacIntel,60.0024001,Chrome,1470,956,,,,,1,938,,,,,,,,,,,,,,,,,174,W,triangle,1,0,,,,,,,,,,,,,,,,switch,number,numSwt,f,0.6828,Hi,,,,,,1,,,,,,,,high,8,0,8,0,1,,,,,,,,,
292951,2022-11-22_12h00.13.780,vts_reward_expectancy_bt,2022.2.4,MacIntel,60.0024001,Chrome,1470,956,,,,,1,939,,,,,,,,,,,,,,,,,160,H,hexagon,1,0,,,,,,,,,,,,,,,,switch,letter,lettSwt,j,1.1063,Lo,,,,,,1,,,,,,,,high,9,0,9,0,1,,,,,,,,,
292951,2022-11-22_12h00.13.780,vts_reward_expectancy_bt,2022.2.4,MacIntel,60.0024001,Chrome,1470,956,,,,,10,949,,,,,,,,,,,,,,,,,181,F,star,1,0,,,,,,,,,,,,,,,,switch,number,numSwt,f,0.751,Hi,,,,,,1,,,,,,,,high,10,0,10,0,1,,,,,,,,,
292951,2022-11-22_12h00.13.780,vts_reward_expectancy_bt,2022.2.4,MacIntel,60.0024001,Chrome,1470,956,,,,,1,950,,,,,,,,,,,,,,,,,125,Y,circle,1,0,,,,,,,,,,,,,,,,switch,letter,lettSwt,k,0.7891,Lo,,,,,,1,,,,,,,,high,11,0,11,0,1,,,,,,,,,
292951,2022-11-22_12h00.13.780,vts_reward_expectancy_bt,2022.2.4,MacIntel,60.0024001,Chrome,1470,956,,,,,10,960,,,,,,,,,,,,,,,,,167,S,triangle,1,0,,,,,,,,,,,,,,,,switch,number,numSwt,f,0.7971,Hi,,,,,,1,,,,,,,,high,12,0,12,0,1,,,,,,,,,
292951,2022-11-22_12h00.13.780,vts_reward_expectancy_bt,2022.2.4,MacIntel,60.0024001,Chrome,1470,956,,,,,10,970,,,,,,,,,,,,,,,,,146,U,star,1,0,,,,,,,,,,,,,,,,switch,letter,lettSwt,k,0.8986,Hi,,,,,,1,,,,,,,,high,13,0,13,0,1,,,,,,,,,
292951,2022-11-22_12h00.13.780,vts_reward_expectancy_bt,2022.2.4,MacIntel,60.0024001,Chrome,1470,956,,,,,1,971,,,,,,,,,,,,,,,,,139,D,circle,1,0,,,,,,,,,,,,,,,,switch,number,numSwt,d,0.73,Lo,,,,,,1,,,,,,,,high,14,0,14,0,1,,,,,,,,,
292951,2022-11-22_12h00.13.780,vts_reward_expectancy_bt,2022.2.4,MacIntel,60.0024001,Chrome,1470,956,,,,,1,972,,,,,,,,,,,,,,,,,132,B,hexagon,1,0,,,,,,,,,,,,,,,,repeat,number,numRpt,d,0.8987,Lo,,,,,,1,,,,,,,,high,15,0,15,0,1,,,,,,,,,
292951,2022-11-22_12h00.13.780,vts_reward_expectancy_bt,2022.2.4,MacIntel,60.0024001,Chrome,1470,956,,,,,1,973,,,,,,,,,,,,,,,,,181,Y,hexagon,1,0,,,,,,,,,,,,,,,,switch,letter,lettSwt,k,0.8307,Lo,,,,,,1,,,,,,,,high,16,0,16,0,1,,,,,,,,,
292951,2022-11-22_12h00.13.780,vts_reward_expectancy_bt,2022.2.4,MacIntel,60.0024001,Chrome,1470,956,,,,,0,973,,,,,,,,,,,,,,,,,160,U,triangle,1,0,,,,,,,,,,,,,,,,switch,number,numSwt,f,1.098,Hi,,,,,,1,,,,,,,,high,17,0,17,0,1,,,,,,,,,
292951,2022-11-22_12h00.13.780,vts_reward_expectancy_bt,2022.2.4,MacIntel,60.0024001,Chrome,1470,956,,,,,1,974,,,,,,,,,,,,,,,,,174,B,circle,1,0,,,,,,,,,,,,,,,,repeat,number,numRpt,f,0.7668,Lo,,,,,,1,,,,,,,,high,18,0,18,0,1,,,,,,,,,
292951,2022-11-22_12h00.13.780,vts_reward_expectancy_bt,2022.2.4,MacIntel,60.0024001,Chrome,1470,956,,,,,1,975,,,,,,,,,,,,,,,,,125,H,star,1,0,,,,,,,,,,,,,,,,repeat,number,numRpt,d,0.6146,Hi,,,,,,1,,,,,,,,high,19,0,19,0,1,,,,,,,,,
292951,2022-11-22_12h00.13.780,vts_reward_expectancy_bt,2022.2.4,MacIntel,60.0024001,Chrome,1470,956,,,,,1,976,,,,,,,,,,,,,,,,,167,D,circle,1,0,,,,,,,,,,,,,,,,switch,letter,lettSwt,j,0.7728,Lo,,,,,,1,,,,,,,,high,20,0,20,0,1,,,,,,,,,
292951,2022-11-22_12h00.13.780,vts_reward_expectancy_bt,2022.2.4,MacIntel,60.0024001,Chrome,1470,956,,,,,0,976,,,,,,,,,,,,,,,,,146,W,triangle,1,0,,,,,,,,,,,,,,,,repeat,letter,lettRpt,k,1.0799,Hi,,,,,,1,,,,,,,,high,21,0,21,0,1,,,,,,,,,
292951,2022-11-22_12h00.13.780,vts_reward_expectancy_bt,2022.2.4,MacIntel,60.0024001,Chrome,1470,956,,,,,1,977,,,,,,,,,,,,,,,,,139,F,hexagon,1,0,,,,,,,,,,,,,,,,repeat,letter,lettRpt,j,0.8543,Lo,,,,,,1,,,,,,,,high,22,0,22,0,1,,,,,,,,,
292951,2022-11-22_12h00.13.780,vts_reward_expectancy_bt,2022.2.4,MacIntel,60.0024001,Chrome,1470,956,,,,,0,977,,,,,,,,,,,,,,,,,132,S,star,1,0,,,,,,,,,,,,,,,,switch,number,numSwt,d,0.9306,Hi,,,,,,1,,,,,,,,high,23,0,23,0,1,,,,,,,,,
292951,2022-11-22_12h00.13.780,vts_reward_expectancy_bt,2022.2.4,MacIntel,60.0024001,Chrome,1470,956,,,,,1,978,,,,,,,,,,,,,,,,,146,B,circle,1,0,,,,,,,,,,,,,,,,switch,letter,lettSwt,j,0.7905,Lo,,,,,,1,,,,,,,,high,24,0,24,0,1,,,,,,,,,
292951,2022-11-22_12h00.13.780,vts_reward_expectancy_bt,2022.2.4,MacIntel,60.0024001,Chrome,1470,956,,,,,10,988,,,,,,,,,,,,,,,,,139,W,triangle,1,0,,,,,,,,,,,,,,,,switch,number,numSwt,d,0.6321,Hi,,,,,,1,,,,,,,,high,25,0,25,0,1,,,,,,,,,
292951,2022-11-22_12h00.13.780,vts_reward_expectancy_bt,2022.2.4,MacIntel,60.0024001,Chrome,1470,956,,,,,1,989,,,,,,,,,,,,,,,,,167,S,hexagon,1,0,,,,,,,,,,,,,,,,repeat,number,numRpt,f,0.6026,Lo,,,,,,1,,,,,,,,high,26,0,26,0,1,,,,,,,,,
292951,2022-11-22_12h00.13.780,vts_reward_expectancy_bt,2022.2.4,MacIntel,60.0024001,Chrome,1470,956,,,,,10,999,,,,,,,,,,,,,,,,,174,D,star,1,0,,,,,,,,,,,,,,,,switch,letter,lettSwt,j,0.9469,Hi,,,,,,1,,,,,,,,high,27,0,27,0,1,,,,,,,,,
292951,2022-11-22_12h00.13.780,vts_reward_expectancy_bt,2022.2.4,MacIntel,60.0024001,Chrome,1470,956,,,,,10,1009,,,,,,,,,,,,,,,,,160,F,circle,1,0,,,,,,,,,,,,,,,,repeat,letter,lettRpt,j,0.7665,Lo,,,,,,1,,,,,,,,high,28,0,28,0,1,,,,,,,,,
292951,2022-11-22_12h00.13.780,vts_reward_expectancy_bt,2022.2.4,MacIntel,60.0024001,Chrome,1470,956,,,,,10,1019,,,,,,,,,,,,,,,,,181,U,hexagon,1,0,,,,,,,,,,,,,,,,repeat,letter,lettRpt,k,0.914,Lo,,,,,,1,,,,,,,,high,29,0,29,0,1,,,,,,,,,
292951,2022-11-22_12h00.13.780,vts_reward_expectancy_bt,2022.2.4,MacIntel,60.0024001,Chrome,1470,956,,,,,10,1029,,,,,,,,,,,,,,,,,132,H,triangle,1,0,,,,,,,,,,,,,,,,repeat,letter,lettRpt,j,0.7484,Hi,,,,,,1,,,,,,,,high,30,0,30,0,1,,,,,,,,,
292951,2022-11-22_12h00.13.780,vts_reward_expectancy_bt,2022.2.4,MacIntel,60.0024001,Chrome,1470,956,,,,,10,1039,,,,,,,,,,,,,,,,,125,Y,star,1,0,,,,,,,,,,,,,,,,repeat,letter,lettRpt,k,0.7383,Hi,,,,,,1,,,,,,,,high,31,0,31,0,1,,,,,,,,,
292951,2022-11-22_12h00.13.780,vts_reward_expectancy_bt,2022.2.4,MacIntel,60.0024001,Chrome,1470,956,,,,,0,1039,,,,,,,,,,,,,,,,,181,H,circle,0,0,,,,,,,,,,,,,,,,repeat,letter,NA,k,0.7538,Hi,,,,,,2,,,,,,space,1.0666,high,0,0,0,0,1,,,,,,,,,
292951,2022-11-22_12h00.13.780,vts_reward_expectancy_bt,2022.2.4,MacIntel,60.0024001,Chrome,1470,956,,,,,0,1039,,,,,,,,,,,,,,,,,146,B,triangle,1,1,,,,,,,,,,,,,,,,switch,number,numSwt,d,0.7796,Hi,,,,,,2,,,,,,,,high,1,0,1,0,1,,,,,,,,,
292951,2022-11-22_12h00.13.780,vts_reward_expectancy_bt,2022.2.4,MacIntel,60.0024001,Chrome,1470,956,,,,,1,1040,,,,,,,,,,,,,,,,,132,D,star,1,0,,,,,,,,,,,,,,,,switch,letter,lettSwt,j,0.787,Hi,,,,,,2,,,,,,,,high,2,0,2,0,1,,,,,,,,,
292951,2022-11-22_12h00.13.780,vts_reward_expectancy_bt,2022.2.4,MacIntel,60.0024001,Chrome,1470,956,,,,,10,1050,,,,,,,,,,,,,,,,,160,S,hexagon,1,0,,,,,,,,,,,,,,,,repeat,letter,lettRpt,k,0.5964,Lo,,,,,,2,,,,,,,,high,3,0,3,0,1,,,,,,,,,
292951,2022-11-22_12h00.13.780,vts_reward_expectancy_bt,2022.2.4,MacIntel,60.0024001,Chrome,1470,956,,,,,1,1051,,,,,,,,,,,,,,,,,174,F,circle,1,0,,,,,,,,,,,,,,,,repeat,letter,lettRpt,j,1.1353,Lo,,,,,,2,,,,,,,,high,4,0,4,0,1,,,,,,,,,
292951,2022-11-22_12h00.13.780,vts_reward_expectancy_bt,2022.2.4,MacIntel,60.0024001,Chrome,1470,956,,,,,0,1051,,,,,,,,,,,,,,,,,167,U,triangle,1,0,,,,,,,,,,,,,,,,switch,number,numSwt,f,0.8361,Hi,,,,,,2,,,,,,,,high,5,0,5,0,1,,,,,,,,,
292951,2022-11-22_12h00.13.780,vts_reward_expectancy_bt,2022.2.4,MacIntel,60.0024001,Chrome,1470,956,,,,,0,1051,,,,,,,,,,,,,,,,,125,Y,star,1,0,,,,,,,,,,,,,,,,repeat,number,numRpt,d,0.7472,Hi,,,,,,2,,,,,,,,high,6,0,6,0,1,,,,,,,,,
292951,2022-11-22_12h00.13.780,vts_reward_expectancy_bt,2022.2.4,MacIntel,60.0024001,Chrome,1470,956,,,,,1,1052,,,,,,,,,,,,,,,,,139,W,hexagon,1,0,,,,,,,,,,,,,,,,repeat,number,numRpt,d,0.7811,Lo,,,,,,2,,,,,,,,high,7,0,7,0,1,,,,,,,,,
292951,2022-11-22_12h00.13.780,vts_reward_expectancy_bt,2022.2.4,MacIntel,60.0024001,Chrome,1470,956,,,,,0,1052,,,,,,,,,,,,,,,,,181,H,triangle,1,0,,,,,,,,,,,,,,,,repeat,number,numRpt,f,0.6671,Hi,,,,,,2,,,,,,,,high,8,0,8,0,1,,,,,,,,,
292951,2022-11-22_12h00.13.780,vts_reward_expectancy_bt,2022.2.4,MacIntel,60.0024001,Chrome,1470,956,,,,,1,1053,,,,,,,,,,,,,,,,,146,B,circle,1,0,,,,,,,,,,,,,,,,repeat,number,numRpt,d,0.5889,Lo,,,,,,2,,,,,,,,high,9,0,9,0,1,,,,,,,,,
292951,2022-11-22_12h00.13.780,vts_reward_expectancy_bt,2022.2.4,MacIntel,60.0024001,Chrome,1470,956,,,,,10,1063,,,,,,,,,,,,,,,,,132,D,star,1,0,,,,,,,,,,,,,,,,switch,letter,lettSwt,j,0.531,Hi,,,,,,2,,,,,,,,high,10,0,10,0,1,,,,,,,,,
292951,2022-11-22_12h00.13.780,vts_reward_expectancy_bt,2022.2.4,MacIntel,60.0024001,Chrome,1470,956,,,,,10,1073,,,,,,,,,,,,,,,,,160,S,hexagon,1,0,,,,,,,,,,,,,,,,repeat,letter,lettRpt,k,0.5359,Lo,,,,,,2,,,,,,,,high,11,0,11,0,1,,,,,,,,,
292951,2022-11-22_12h00.13.780,vts_reward_expectancy_bt,2022.2.4,MacIntel,60.0024001,Chrome,1470,956,,,,,1,1074,,,,,,,,,,,,,,,,,174,F,hexagon,1,0,,,,,,,,,,,,,,,,repeat,letter,lettRpt,j,0.6316,Lo,,,,,,2,,,,,,,,high,12,0,12,0,1,,,,,,,,,
292951,2022-11-22_12h00.13.780,vts_reward_expectancy_bt,2022.2.4,MacIntel,60.0024001,Chrome,1470,956,,,,,10,1084,,,,,,,,,,,,,,,,,167,U,star,1,0,,,,,,,,,,,,,,,,switch,number,numSwt,f,0.7198,Hi,,,,,,2,,,,,,,,high,13,0,13,0,1,,,,,,,,,
292951,2022-11-22_12h00.13.780,vts_reward_expectancy_bt,2022.2.4,MacIntel,60.0024001,Chrome,1470,956,,,,,10,1094,,,,,,,,,,,,,,,,,125,Y,triangle,1,0,,,,,,,,,,,,,,,,repeat,number,numRpt,d,0.5641,Hi,,,,,,2,,,,,,,,high,14,0,14,0,1,,,,,,,,,
292951,2022-11-22_12h00.13.780,vts_reward_expectancy_bt,2022.2.4,MacIntel,60.0024001,Chrome,1470,956,,,,,10,1104,,,,,,,,,,,,,,,,,139,W,circle,1,0,,,,,,,,,,,,,,,,repeat,number,numRpt,d,0.649,Lo,,,,,,2,,,,,,,,high,15,0,15,0,1,,,,,,,,,
292951,2022-11-22_12h00.13.780,vts_reward_expectancy_bt,2022.2.4,MacIntel,60.0024001,Chrome,1470,956,,,,,0,1104,,,,,,,,,,,,,,,,,167,F,star,1,0,,,,,,,,,,,,,,,,switch,letter,lettSwt,j,0.9187,Hi,,,,,,2,,,,,,,,high,16,0,16,0,1,,,,,,,,,
292951,2022-11-22_12h00.13.780,vts_reward_expectancy_bt,2022.2.4,MacIntel,60.0024001,Chrome,1470,956,,,,,10,1114,,,,,,,,,,,,,,,,,181,S,triangle,1,0,,,,,,,,,,,,,,,,repeat,letter,lettRpt,k,0.6857,Hi,,,,,,2,,,,,,,,high,17,0,17,0,1,,,,,,,,,
292951,2022-11-22_12h00.13.780,vts_reward_expectancy_bt,2022.2.4,MacIntel,60.0024001,Chrome,1470,956,,,,,1,1115,,,,,,,,,,,,,,,,,160,B,hexagon,1,0,,,,,,,,,,,,,,,,repeat,letter,lettRpt,j,0.6644,Lo,,,,,,2,,,,,,,,high,18,0,18,0,1,,,,,,,,,
292951,2022-11-22_12h00.13.780,vts_reward_expectancy_bt,2022.2.4,MacIntel,60.0024001,Chrome,1470,956,,,,,10,1125,,,,,,,,,,,,,,,,,139,Y,circle,1,0,,,,,,,,,,,,,,,,switch,number,numSwt,d,0.5813,Lo,,,,,,2,,,,,,,,high,19,0,19,0,1,,,,,,,,,
292951,2022-11-22_12h00.13.780,vts_reward_expectancy_bt,2022.2.4,MacIntel,60.0024001,Chrome,1470,956,,,,,0,1125,,,,,,,,,,,,,,,,,125,U,star,1,0,,,,,,,,,,,,,,,,repeat,number,numRpt,d,0.698,Hi,,,,,,2,,,,,,,,high,20,0,20,0,1,,,,,,,,,
292951,2022-11-22_12h00.13.780,vts_reward_expectancy_bt,2022.2.4,MacIntel,60.0024001,Chrome,1470,956,,,,,0,1125,,,,,,,,,,,,,,,,,132,W,circle,0,0,,,,,,,,,,,,,,,,switch,letter,NA,j,0.5969,Hi,,,,,,2,,,,,,,,high,21,0,21,0,1,,,,,,,,,
292951,2022-11-22_12h00.13.780,vts_reward_expectancy_bt,2022.2.4,MacIntel,60.0024001,Chrome,1470,956,,,,,0,1125,,,,,,,,,,,,,,,,,146,D,triangle,0,1,,,,,,,,,,,,,,,,repeat,letter,NA,k,0.5818,Hi,,,,,,2,,,,,,,,high,22,0,22,0,1,,,,,,,,,
292951,2022-11-22_12h00.13.780,vts_reward_expectancy_bt,2022.2.4,MacIntel,60.0024001,Chrome,1470,956,,,,,10,1135,,,,,,,,,,,,,,,,,174,H,hexagon,1,1,,,,,,,,,,,,,,,,switch,number,numSwt,f,0.5315,Lo,,,,,,2,,,,,,,,high,23,0,23,0,1,,,,,,,,,
292951,2022-11-22_12h00.13.780,vts_reward_expectancy_bt,2022.2.4,MacIntel,60.0024001,Chrome,1470,956,,,,,1,1136,,,,,,,,,,,,,,,,,139,F,circle,1,0,,,,,,,,,,,,,,,,repeat,number,numRpt,d,0.7295,Lo,,,,,,2,,,,,,,,high,24,0,24,0,1,,,,,,,,,
292951,2022-11-22_12h00.13.780,vts_reward_expectancy_bt,2022.2.4,MacIntel,60.0024001,Chrome,1470,956,,,,,10,1146,,,,,,,,,,,,,,,,,146,U,triangle,1,0,,,,,,,,,,,,,,,,switch,letter,lettSwt,k,0.645,Hi,,,,,,2,,,,,,,,high,25,0,25,0,1,,,,,,,,,
292951,2022-11-22_12h00.13.780,vts_reward_expectancy_bt,2022.2.4,MacIntel,60.0024001,Chrome,1470,956,,,,,1,1147,,,,,,,,,,,,,,,,,132,W,hexagon,1,0,,,,,,,,,,,,,,,,repeat,letter,lettRpt,k,0.7652,Lo,,,,,,2,,,,,,,,high,26,0,26,0,1,,,,,,,,,
292951,2022-11-22_12h00.13.780,vts_reward_expectancy_bt,2022.2.4,MacIntel,60.0024001,Chrome,1470,956,,,,,0,1147,,,,,,,,,,,,,,,,,174,Y,star,1,0,,,,,,,,,,,,,,,,switch,number,numSwt,f,0.757,Hi,,,,,,2,,,,,,,,high,27,0,27,0,1,,,,,,,,,
292951,2022-11-22_12h00.13.780,vts_reward_expectancy_bt,2022.2.4,MacIntel,60.0024001,Chrome,1470,956,,,,,0,1147,,,,,,,,,,,,,,,,,181,S,star,1,0,,,,,,,,,,,,,,,,switch,letter,lettSwt,k,1.1876,Hi,,,,,,2,,,,,,,,high,28,0,28,0,1,,,,,,,,,
292951,2022-11-22_12h00.13.780,vts_reward_expectancy_bt,2022.2.4,MacIntel,60.0024001,Chrome,1470,956,,,,,1,1148,,,,,,,,,,,,,,,,,167,H,triangle,1,0,,,,,,,,,,,,,,,,switch,number,numSwt,f,0.6637,Hi,,,,,,2,,,,,,,,high,29,0,29,0,1,,,,,,,,,
292951,2022-11-22_12h00.13.780,vts_reward_expectancy_bt,2022.2.4,MacIntel,60.0024001,Chrome,1470,956,,,,,1,1149,,,,,,,,,,,,,,,,,160,D,hexagon,1,0,,,,,,,,,,,,,,,,switch,letter,lettSwt,j,1.1962,Lo,,,,,,2,,,,,,,,high,30,0,30,0,1,,,,,,,,,
292951,2022-11-22_12h00.13.780,vts_reward_expectancy_bt,2022.2.4,MacIntel,60.0024001,Chrome,1470,956,,,,,0,1149,,,,,,,,,,,,,,,,,125,B,circle,0,0,,,,,,,,,,,,,,,,switch,number,NA,f,1.066,Lo,,,,,,2,,,,,,,,high,31,0,31,0,1,,,,,,,,,
292951,2022-11-22_12h00.13.780,vts_reward_expectancy_bt,2022.2.4,MacIntel,60.0024001,Chrome,1470,956,,,,,0,1149,,,,,,,,,,,,,,,,,160,Y,circle,0,1,,,,,,,,,,,,,,,,switch,letter,NA,j,0.4323,Lo,,,,,,3,,,,,,space,0.8766,high,0,0,0,0,1,,,,,,,,,
292951,2022-11-22_12h00.13.780,vts_reward_expectancy_bt,2022.2.4,MacIntel,60.0024001,Chrome,1470,956,,,,,0,1149,,,,,,,,,,,,,,,,,146,H,triangle,0,1,,,,,,,,,,,,,,,,switch,number,NA,f,0.3946,Lo,,,,,,3,,,,,,,,high,1,0,1,0,1,,,,,,,,,
292951,2022-11-22_12h00.13.780,vts_reward_expectancy_bt,2022.2.4,MacIntel,60.0024001,Chrome,1470,956,,,,,0,1149,,,,,,,,,,,,,,,,,167,U,hexagon,0,1,,,,,,,,,,,,,,,,switch,letter,NA,j,0.3013,Lo,,,,,,3,,,,,,,,high,2,0,2,0,1,,,,,,,,,
292951,2022-11-22_12h00.13.780,vts_reward_expectancy_bt,2022.2.4,MacIntel,60.0024001,Chrome,1470,956,,,,,0,1149,,,,,,,,,,,,,,,,,181,W,star,0,1,,,,,,,,,,,,,,,,switch,number,NA,d,0.031,Lo,,,,,,3,,,,,,,,high,3,0,3,0,1,,,,,,,,,
292951,2022-11-22_12h00.13.780,vts_reward_expectancy_bt,2022.2.4,MacIntel,60.0024001,Chrome,1470,956,,,,,0,1149,,,,,,,,,,,,,,,,,174,B,circle,0,1,,,,,,,,,,,,,,,,switch,letter,NA,k,0.2267,Lo,,,,,,3,,,,,,,,high,4,0,4,0,1,,,,,,,,,
292951,2022-11-22_12h00.13.780,vts_reward_expectancy_bt,2022.2.4,MacIntel,60.0024001,Chrome,1470,956,,,,,0,1149,,,,,,,,,,,,,,,,,132,D,triangle,0,1,,,,,,,,,,,,,,,,repeat,letter,NA,k,0.4154,Lo,,,,,,3,,,,,,,,high,5,0,5,0,1,,,,,,,,,
292951,2022-11-22_12h00.13.780,vts_reward_expectancy_bt,2022.2.4,MacIntel,60.0024001,Chrome,1470,956,,,,,0,1149,,,,,,,,,,,,,,,,,125,F,hexagon,0,1,,,,,,,,,,,,,,,,repeat,letter,NA,k,0.2643,Lo,,,,,,3,,,,,,,,high,6,0,6,0,1,,,,,,,,,
292951,2022-11-22_12h00.13.780,vts_reward_expectancy_bt,2022.2.4,MacIntel,60.0024001,Chrome,1470,956,,,,,10,1159,,,,,,,,,,,,,,,,,139,S,star,1,1,,,,,,,,,,,,,,,,repeat,letter,lettRpt,k,0.5523,Hi,,,,,,3,,,,,,,,high,7,0,7,0,1,,,,,,,,,
292951,2022-11-22_12h00.13.780,vts_reward_expectancy_bt,2022.2.4,MacIntel,60.0024001,Chrome,1470,956,,,,,1,1160,,,,,,,,,,,,,,,,,160,Y,hexagon,1,0,,,,,,,,,,,,,,,,repeat,letter,lettRpt,k,0.5809,Lo,,,,,,3,,,,,,,,high,8,0,8,0,1,,,,,,,,,
292951,2022-11-22_12h00.13.780,vts_reward_expectancy_bt,2022.2.4,MacIntel,60.0024001,Chrome,1470,956,,,,,0,1160,,,,,,,,,,,,,,,,,146,H,star,1,0,,,,,,,,,,,,,,,,repeat,letter,lettRpt,j,0.7466,Hi,,,,,,3,,,,,,,,high,9,0,9,0,1,,,,,,,,,
292951,2022-11-22_12h00.13.780,vts_reward_expectancy_bt,2022.2.4,MacIntel,60.0024001,Chrome,1470,956,,,,,1,1161,,,,,,,,,,,,,,,,,167,U,circle,1,0,,,,,,,,,,,,,,,,repeat,letter,lettRpt,k,0.5811,Lo,,,,,,3,,,,,,,,high,10,0,10,0,1,,,,,,,,,
292951,2022-11-22_12h00.13.780,vts_reward_expectancy_bt,2022.2.4,MacIntel,60.0024001,Chrome,1470,956,,,,,10,1171,,,,,,,,,,,,,,,,,181,W,triangle,1,0,,,,,,,,,,,,,,,,repeat,letter,lettRpt,k,0.5656,Hi,,,,,,3,,,,,,,,high,11,0,11,0,1,,,,,,,,,
292951,2022-11-22_12h00.13.780,vts_reward_expectancy_bt,2022.2.4,MacIntel,60.0024001,Chrome,1470,956,,,,,0,1171,,,,,,,,,,,,,,,,,174,B,star,1,0,,,,,,,,,,,,,,,,repeat,letter,lettRpt,j,0.6638,Hi,,,,,,3,,,,,,,,high,12,0,12,0,1,,,,,,,,,
292951,2022-11-22_12h00.13.780,vts_reward_expectancy_bt,2022.2.4,MacIntel,60.0024001,Chrome,1470,956,,,,,1,1172,,,,,,,,,,,,,,,,,132,D,hexagon,1,0,,,,,,,,,,,,,,,,repeat,letter,lettRpt,j,0.6667,Lo,,,,,,3,,,,,,,,high,13,0,13,0,1,,,,,,,,,
292951,2022-11-22_12h00.13.780,vts_reward_expectancy_bt,2022.2.4,MacIntel,60.0024001,Chrome,1470,956,,,,,1,1173,,,,,,,,,,,,,,,,,125,F,circle,1,0,,,,,,,,,,,,,,,,repeat,letter,lettRpt,j,0.8543,Lo,,,,,,3,,,,,,,,high,14,0,14,0,1,,,,,,,,,
292951,2022-11-22_12h00.13.780,vts_reward_expectancy_bt,2022.2.4,MacIntel,60.0024001,Chrome,1470,956,,,,,0,1173,,,,,,,,,,,,,,,,,139,S,triangle,1,0,,,,,,,,,,,,,,,,repeat,letter,lettRpt,k,0.6549,Hi,,,,,,3,,,,,,,,high,15,0,15,0,1,,,,,,,,,
292951,2022-11-22_12h00.13.780,vts_reward_expectancy_bt,2022.2.4,MacIntel,60.0024001,Chrome,1470,956,,,,,10,1183,,,,,,,,,,,,,,,,,167,Y,star,1,0,,,,,,,,,,,,,,,,switch,number,numSwt,f,0.5202,Hi,,,,,,3,,,,,,,,high,16,0,16,0,1,,,,,,,,,
292951,2022-11-22_12h00.13.780,vts_reward_expectancy_bt,2022.2.4,MacIntel,60.0024001,Chrome,1470,956,,,,,0,1183,,,,,,,,,,,,,,,,,132,H,triangle,1,0,,,,,,,,,,,,,,,,repeat,number,numRpt,d,0.715,Hi,,,,,,3,,,,,,,,high,17,0,17,0,1,,,,,,,,,
292951,2022-11-22_12h00.13.780,vts_reward_expectancy_bt,2022.2.4,MacIntel,60.0024001,Chrome,1470,956,,,,,1,1184,,,,,,,,,,,,,,,,,181,B,hexagon,1,0,,,,,,,,,,,,,,,,repeat,number,numRpt,f,0.7353,Lo,,,,,,3,,,,,,,,high,18,0,18,0,1,,,,,,,,,
292951,2022-11-22_12h00.13.780,vts_reward_expectancy_bt,2022.2.4,MacIntel,60.0024001,Chrome,1470,956,,,,,0,1184,,,,,,,,,,,,,,,,,160,D,circle,0,0,,,,,,,,,,,,,,,,repeat,number,NA,d,0.6989,Lo,,,,,,3,,,,,,,,high,19,0,19,0,1,,,,,,,,,
292951,2022-11-22_12h00.13.780,vts_reward_expectancy_bt,2022.2.4,MacIntel,60.0024001,Chrome,1470,956,,,,,0,1184,,,,,,,,,,,,,,,,,174,F,star,0,1,,,,,,,,,,,,,,,,switch,letter,NA,k,0.3457,Lo,,,,,,3,,,,,,,,high,20,0,20,0,1,,,,,,,,,
292951,2022-11-22_12h00.13.780,vts_reward_expectancy_bt,2022.2.4,MacIntel,60.0024001,Chrome,1470,956,,,,,0,1184,,,,,,,,,,,,,,,,,146,S,hexagon,0,1,,,,,,,,,,,,,,,,repeat,letter,NA,j,0.6829,Lo,,,,,,3,,,,,,,,high,21,0,21,0,1,,,,,,,,,
292951,2022-11-22_12h00.13.780,vts_reward_expectancy_bt,2022.2.4,MacIntel,60.0024001,Chrome,1470,956,,,,,10,1194,,,,,,,,,,,,,,,,,139,W,triangle,1,1,,,,,,,,,,,,,,,,repeat,letter,lettRpt,k,0.6022,Hi,,,,,,3,,,,,,,,high,22,0,22,0,1,,,,,,,,,
292951,2022-11-22_12h00.13.780,vts_reward_expectancy_bt,2022.2.4,MacIntel,60.0024001,Chrome,1470,956,,,,,1,1195,,,,,,,,,,,,,,,,,125,U,circle,1,0,,,,,,,,,,,,,,,,switch,number,numSwt,d,0.6714,Lo,,,,,,3,,,,,,,,high,23,0,23,0,1,,,,,,,,,
292951,2022-11-22_12h00.13.780,vts_reward_expectancy_bt,2022.2.4,MacIntel,60.0024001,Chrome,1470,956,,,,,10,1205,,,,,,,,,,,,,,,,,146,U,triangle,1,0,,,,,,,,,,,,,,,,switch,letter,lettSwt,k,0.6148,Hi,,,,,,3,,,,,,,,high,24,0,24,0,1,,,,,,,,,
292951,2022-11-22_12h00.13.780,vts_reward_expectancy_bt,2022.2.4,MacIntel,60.0024001,Chrome,1470,956,,,,,0,1205,,,,,,,,,,,,,,,,,181,W,star,1,0,,,,,,,,,,,,,,,,repeat,letter,lettRpt,k,0.8321,Hi,,,,,,3,,,,,,,,high,25,0,25,0,1,,,,,,,,,
292951,2022-11-22_12h00.13.780,vts_reward_expectancy_bt,2022.2.4,MacIntel,60.0024001,Chrome,1470,956,,,,,1,1206,,,,,,,,,,,,,,,,,167,B,hexagon,1,0,,,,,,,,,,,,,,,,switch,number,numSwt,f,0.731,Lo,,,,,,3,,,,,,,,high,26,0,26,0,1,,,,,,,,,
292951,2022-11-22_12h00.13.780,vts_reward_expectancy_bt,2022.2.4,MacIntel,60.0024001,Chrome,1470,956,,,,,1,1207,,,,,,,,,,,,,,,,,132,Y,circle,1,0,,,,,,,,,,,,,,,,switch,letter,lettSwt,k,0.5689,Lo,,,,,,3,,,,,,,,high,27,0,27,0,1,,,,,,,,,
292951,2022-11-22_12h00.13.780,vts_reward_expectancy_bt,2022.2.4,MacIntel,60.0024001,Chrome,1470,956,,,,,0,1207,,,,,,,,,,,,,,,,,174,D,triangle,1,0,,,,,,,,,,,,,,,,switch,number,numSwt,f,1.0501,Hi,,,,,,3,,,,,,,,high,28,0,28,0,1,,,,,,,,,
292951,2022-11-22_12h00.13.780,vts_reward_expectancy_bt,2022.2.4,MacIntel,60.0024001,Chrome,1470,956,,,,,1,1208,,,,,,,,,,,,,,,,,125,F,circle,1,0,,,,,,,,,,,,,,,,switch,letter,lettSwt,j,1.6673,Lo,,,,,,3,,,,,,,,high,29,0,29,0,1,,,,,,,,,
292951,2022-11-22_12h00.13.780,vts_reward_expectancy_bt,2022.2.4,MacIntel,60.0024001,Chrome,1470,956,,,,,0,1208,,,,,,,,,,,,,,,,,160,H,star,0,0,,,,,,,,,,,,,,,,repeat,letter,NA,k,1.414,Lo,,,,,,3,,,,,,,,high,30,0,30,0,1,,,,,,,,,
292951,2022-11-22_12h00.13.780,vts_reward_expectancy_bt,2022.2.4,MacIntel,60.0024001,Chrome,1470,956,,,,,1,1209,,,,,,,,,,,,,,,,,139,S,hexagon,1,1,,,,,,,,,,,,,,,,repeat,letter,lettRpt,k,1.0461,Lo,,,,,,3,,,,,,,,high,31,0,31,0,1,,,,,,,,,
292951,2022-11-22_12h00.13.780,vts_reward_expectancy_bt,2022.2.4,MacIntel,60.0024001,Chrome,1470,956,,,,,0,1209,,,,,,,,,,,,,,,,,146,D,triangle,1,0,,,,,,,,,,,,,,,,repeat,letter,lettRpt,j,0.9857,Hi,,,,,,4,,,,,,space,0.8502,high,0,0,0,0,1,,,,,,,,,
292951,2022-11-22_12h00.13.780,vts_reward_expectancy_bt,2022.2.4,MacIntel,60.0024001,Chrome,1470,956,,,,,0,1209,,,,,,,,,,,,,,,,,174,B,star,1,0,,,,,,,,,,,,,,,,switch,number,numSwt,f,0.8454,Hi,,,,,,4,,,,,,,,high,1,0,1,0,1,,,,,,,,,
292951,2022-11-22_12h00.13.780,vts_reward_expectancy_bt,2022.2.4,MacIntel,60.0024001,Chrome,1470,956,,,,,1,1210,,,,,,,,,,,,,,,,,132,S,hexagon,1,0,,,,,,,,,,,,,,,,switch,letter,lettSwt,k,0.0369,Lo,,,,,,4,,,,,,,,high,2,0,2,0,1,,,,,,,,,
292951,2022-11-22_12h00.13.780,vts_reward_expectancy_bt,2022.2.4,MacIntel,60.0024001,Chrome,1470,956,,,,,1,1211,,,,,,,,,,,,,,,,,167,U,circle,1,0,,,,,,,,,,,,,,,,switch,number,numSwt,f,0.2645,Lo,,,,,,4,,,,,,,,high,3,0,3,0,1,,,,,,,,,
