participant,date,expName,psychopyVersion,OS,frameRate,browser,xResolution,yResolution,key_resp.keys,key_resp.rt,training_resp.keys,training_resp.rt,points_trial,points_cumul,trainBlock,training.thisRepN,training.thisTrialN,training.thisN,training.thisIndex,training.ran,LTriangleOpac,LCircleOpac,LHexagonOpac,LStarOpac,RTriangleOpac,RCircleOpac,RHexagonOpac,RStarOpac,LShape_ID,RShape_ID,curr_topStim,curr_bottStim,curr_shape,acc,E1,target_resp_prac1.keys,pracBlock,task1_prac_trials.thisRepN,task1_prac_trials.thisTrialN,task1_prac_trials.thisN,task1_prac_trials.thisIndex,task1_prac_trials.ran,target_resp_prac1.rt,target_resp_prac2.keys,target_resp_prac2.rt,task2_praac_trials.thisRepN,task2_praac_trials.thisTrialN,task2_praac_trials.thisN,task2_praac_trials.thisIndex,task2_praac_trials.ran,alt,task,condition,target_resp.keys,target_resp.rt,rewCond,vts_practice_trials.thisRepN,vts_practice_trials.thisTrialN,vts_practice_trials.thisN,vts_practice_trials.thisIndex,vts_practice_trials.ran,blockNum,trials_norew.thisRepN,trials_norew.thisTrialN,trials_norew.thisN,trials_norew.thisIndex,trials_norew.ran,key_resp_2.keys,key_resp_2.rt,rewExpectancy,trials_rew.thisRepN,trials_rew.thisTrialN,trials_rew.thisN,trials_rew.thisIndex,trials_rew.ran,Q1,Q2,Q2_text,Q3,Q4,Q5_text,Q5,xRes,yRes
292966,2022-11-28_14h58.10.853,vts_reward_expectancy_bt,2022.2.4,Win32,60.0276127,Chrome,1920,1080,,,,,,,,,,,,,,,,,,,,,,,,,,,,,,,,,,,,,,,,,,,,,,,,,,,,,,,,,,,,,,,,,,,,,,,,,,,,
292966,2022-11-28_14h58.10.853,vts_reward_expectancy_bt,2022.2.4,Win32,60.0276127,Chrome,1920,1080,space,8.8616,,,,,,,,,,,,,,,,,,,,,,,,,,,,,,,,,,,,,,,,,,,,,,,,,,,,,,,,,,,,,,,,,,,,,,,,,,
292966,2022-11-28_14h58.10.853,vts_reward_expectancy_bt,2022.2.4,Win32,60.0276127,Chrome,1920,1080,,,,,,,,,,,,,,,,,,,,,,,,,,,,,,,,,,,,,,,,,,,,,,,,,,,,,,,,,,,,,,,,,,,,,,,,,,,,
292966,2022-11-28_14h58.10.853,vts_reward_expectancy_bt,2022.2.4,Win32,60.0276127,Chrome,1920,1080,,,l,2.3247,1,1,0,0,0,0,4,1,0,1,0,0,0,0,1,0,circle,hexagon,,,,,,,,,,,,,,,,,,,,,,,,,,,,,,,,,,,,,,,,,,,,,,,,,,,,,,
292966,2022-11-28_14h58.10.853,vts_reward_expectancy_bt,2022.2.4,Win32,60.0276127,Chrome,1920,1080,,,a,1.681,10,11,0,0,1,1,11,1,0,0,0,1,0,0,1,0,star,hexagon,,,,,,,,,,,,,,,,,,,,,,,,,,,,,,,,,,,,,,,,,,,,,,,,,,,,,,
292966,2022-11-28_14h58.10.853,vts_reward_expectancy_bt,2022.2.4,Win32,60.0276127,Chrome,1920,1080,,,l,1.0921,1,12,0,0,2,2,2,1,1,0,0,0,0,0,0,1,triangle,star,,,,,,,,,,,,,,,,,,,,,,,,,,,,,,,,,,,,,,,,,,,,,,,,,,,,,,
292966,2022-11-28_14h58.10.853,vts_reward_expectancy_bt,2022.2.4,Win32,60.0276127,Chrome,1920,1080,,,l,1.6418,1,13,0,0,3,3,3,1,0,1,0,0,1,0,0,0,circle,triangle,,,,,,,,,,,,,,,,,,,,,,,,,,,,,,,,,,,,,,,,,,,,,,,,,,,,,,
292966,2022-11-28_14h58.10.853,vts_reward_expectancy_bt,2022.2.4,Win32,60.0276127,Chrome,1920,1080,,,a,0.7521,1,14,0,0,4,4,9,1,0,0,0,1,1,0,0,0,star,triangle,,,,,,,,,,,,,,,,,,,,,,,,,,,,,,,,,,,,,,,,,,,,,,,,,,,,,,
292966,2022-11-28_14h58.10.853,vts_reward_expectancy_bt,2022.2.4,Win32,60.0276127,Chrome,1920,1080,,,a,0.6833,10,24,0,0,5,5,0,1,1,0,0,0,0,1,0,0,triangle,circle,,,,,,,,,,,,,,,,,,,,,,,,,,,,,,,,,,,,,,,,,,,,,,,,,,,,,,
292966,2022-11-28_14h58.10.853,vts_reward_expectancy_bt,2022.2.4,Win32,60.0276127,Chrome,1920,1080,,,l,1.0918,1,25,0,0,6,6,5,1,0,1,0,0,0,0,0,1,circle,star,,,,,,,,,,,,,,,,,,,,,,,,,,,,,,,,,,,,,,,,,,,,,,,,,,,,,,
292966,2022-11-28_14h58.10.853,vts_reward_expectancy_bt,2022.2.4,Win32,60.0276127,Chrome,1920,1080,,,l,1.6734,10,35,0,0,7,7,7,1,0,0,1,0,0,1,0,0,hexagon,circle,,,,,,,,,,,,,,,,,,,,,,,,,,,,,,,,,,,,,,,,,,,,,,,,,,,,,,
292966,2022-11-28_14h58.10.853,vts_reward_expectancy_bt,2022.2.4,Win32,60.0276127,Chrome,1920,1080,,,l,0.7882,10,45,0,0,8,8,10,1,0,0,0,1,0,1,0,0,star ,circle,,,,,,,,,,,,,,,,,,,,,,,,,,,,,,,,,,,,,,,,,,,,,,,,,,,,,,
292966,2022-11-28_14h58.10.853,vts_reward_expectancy_bt,2022.2.4,Win32,60.0276127,Chrome,1920,1080,,,a,1.9151,10,55,0,0,9,9,6,1,0,0,1,0,1,0,0,0,hexagon,triangle,,,,,,,,,,,,,,,,,,,,,,,,,,,,,,,,,,,,,,,,,,,,,,,,,,,,,,
292966,2022-11-28_14h58.10.853,vts_reward_expectancy_bt,2022.2.4,Win32,60.0276127,Chrome,1920,1080,,,l,1.2475,1,56,0,0,10,10,1,1,1,0,0,0,0,0,1,0,triangle,hexagon,,,,,,,,,,,,,,,,,,,,,,,,,,,,,,,,,,,,,,,,,,,,,,,,,,,,,,
292966,2022-11-28_14h58.10.853,vts_reward_expectancy_bt,2022.2.4,Win32,60.0276127,Chrome,1920,1080,,,a,1.0468,1,57,0,0,11,11,8,1,0,0,1,0,0,0,0,1,hexagon,star,,,,,,,,,,,,,,,,,,,,,,,,,,,,,,,,,,,,,,,,,,,,,,,,,,,,,,
292966,2022-11-28_14h58.10.853,vts_reward_expectancy_bt,2022.2.4,Win32,60.0276127,Chrome,1920,1080,,,a,1.3956,10,67,0,1,0,12,11,1,0,0,0,1,0,0,1,0,star,hexagon,,,,,,,,,,,,,,,,,,,,,,,,,,,,,,,,,,,,,,,,,,,,,,,,,,,,,,
292966,2022-11-28_14h58.10.853,vts_reward_expectancy_bt,2022.2.4,Win32,60.0276127,Chrome,1920,1080,,,a,0.7601,10,77,0,1,1,13,7,1,0,0,1,0,0,1,0,0,hexagon,circle,,,,,,,,,,,,,,,,,,,,,,,,,,,,,,,,,,,,,,,,,,,,,,,,,,,,,,
292966,2022-11-28_14h58.10.853,vts_reward_expectancy_bt,2022.2.4,Win32,60.0276127,Chrome,1920,1080,,,l,0.9752,1,78,0,1,2,14,5,1,0,1,0,0,0,0,0,1,circle,star,,,,,,,,,,,,,,,,,,,,,,,,,,,,,,,,,,,,,,,,,,,,,,,,,,,,,,
292966,2022-11-28_14h58.10.853,vts_reward_expectancy_bt,2022.2.4,Win32,60.0276127,Chrome,1920,1080,,,l,1.0164,1,79,0,1,3,15,10,1,0,0,0,1,0,1,0,0,star ,circle,,,,,,,,,,,,,,,,,,,,,,,,,,,,,,,,,,,,,,,,,,,,,,,,,,,,,,
292966,2022-11-28_14h58.10.853,vts_reward_expectancy_bt,2022.2.4,Win32,60.0276127,Chrome,1920,1080,,,a,0.6334,10,89,0,1,4,16,9,1,0,0,0,1,1,0,0,0,star,triangle,,,,,,,,,,,,,,,,,,,,,,,,,,,,,,,,,,,,,,,,,,,,,,,,,,,,,,
292966,2022-11-28_14h58.10.853,vts_reward_expectancy_bt,2022.2.4,Win32,60.0276127,Chrome,1920,1080,,,a,0.9402,10,99,0,1,5,17,8,1,0,0,1,0,0,0,0,1,hexagon,star,,,,,,,,,,,,,,,,,,,,,,,,,,,,,,,,,,,,,,,,,,,,,,,,,,,,,,
292966,2022-11-28_14h58.10.853,vts_reward_expectancy_bt,2022.2.4,Win32,60.0276127,Chrome,1920,1080,,,a,0.9365,1,100,0,1,6,18,0,1,1,0,0,0,0,1,0,0,triangle,circle,,,,,,,,,,,,,,,,,,,,,,,,,,,,,,,,,,,,,,,,,,,,,,,,,,,,,,
292966,2022-11-28_14h58.10.853,vts_reward_expectancy_bt,2022.2.4,Win32,60.0276127,Chrome,1920,1080,,,a,0.7119,1,101,0,1,7,19,6,1,0,0,1,0,1,0,0,0,hexagon,triangle,,,,,,,,,,,,,,,,,,,,,,,,,,,,,,,,,,,,,,,,,,,,,,,,,,,,,,
292966,2022-11-28_14h58.10.853,vts_reward_expectancy_bt,2022.2.4,Win32,60.0276127,Chrome,1920,1080,,,l,0.7824,10,111,0,1,8,20,4,1,0,1,0,0,0,0,1,0,circle,hexagon,,,,,,,,,,,,,,,,,,,,,,,,,,,,,,,,,,,,,,,,,,,,,,,,,,,,,,
292966,2022-11-28_14h58.10.853,vts_reward_expectancy_bt,2022.2.4,Win32,60.0276127,Chrome,1920,1080,,,l,1.0754,1,112,0,1,9,21,2,1,1,0,0,0,0,0,0,1,triangle,star,,,,,,,,,,,,,,,,,,,,,,,,,,,,,,,,,,,,,,,,,,,,,,,,,,,,,,
292966,2022-11-28_14h58.10.853,vts_reward_expectancy_bt,2022.2.4,Win32,60.0276127,Chrome,1920,1080,,,l,0.9076,1,113,0,1,10,22,1,1,1,0,0,0,0,0,1,0,triangle,hexagon,,,,,,,,,,,,,,,,,,,,,,,,,,,,,,,,,,,,,,,,,,,,,,,,,,,,,,
292966,2022-11-28_14h58.10.853,vts_reward_expectancy_bt,2022.2.4,Win32,60.0276127,Chrome,1920,1080,,,l,0.7176,1,114,0,1,11,23,3,1,0,1,0,0,1,0,0,0,circle,triangle,,,,,,,,,,,,,,,,,,,,,,,,,,,,,,,,,,,,,,,,,,,,,,,,,,,,,,
292966,2022-11-28_14h58.10.853,vts_reward_expectancy_bt,2022.2.4,Win32,60.0276127,Chrome,1920,1080,,,l,1.3343,1,115,0,2,0,24,8,1,0,0,1,0,0,0,0,1,hexagon,star,,,,,,,,,,,,,,,,,,,,,,,,,,,,,,,,,,,,,,,,,,,,,,,,,,,,,,
292966,2022-11-28_14h58.10.853,vts_reward_expectancy_bt,2022.2.4,Win32,60.0276127,Chrome,1920,1080,,,a,0.6783,10,125,0,2,1,25,6,1,0,0,1,0,1,0,0,0,hexagon,triangle,,,,,,,,,,,,,,,,,,,,,,,,,,,,,,,,,,,,,,,,,,,,,,,,,,,,,,
292966,2022-11-28_14h58.10.853,vts_reward_expectancy_bt,2022.2.4,Win32,60.0276127,Chrome,1920,1080,,,l,0.5385,10,135,0,2,2,26,1,1,1,0,0,0,0,0,1,0,triangle,hexagon,,,,,,,,,,,,,,,,,,,,,,,,,,,,,,,,,,,,,,,,,,,,,,,,,,,,,,
292966,2022-11-28_14h58.10.853,vts_reward_expectancy_bt,2022.2.4,Win32,60.0276127,Chrome,1920,1080,,,l,1.5072,10,145,0,2,3,27,3,1,0,1,0,0,1,0,0,0,circle,triangle,,,,,,,,,,,,,,,,,,,,,,,,,,,,,,,,,,,,,,,,,,,,,,,,,,,,,,
292966,2022-11-28_14h58.10.853,vts_reward_expectancy_bt,2022.2.4,Win32,60.0276127,Chrome,1920,1080,,,a,1.125,1,146,0,2,4,28,5,1,0,1,0,0,0,0,0,1,circle,star,,,,,,,,,,,,,,,,,,,,,,,,,,,,,,,,,,,,,,,,,,,,,,,,,,,,,,
292966,2022-11-28_14h58.10.853,vts_reward_expectancy_bt,2022.2.4,Win32,60.0276127,Chrome,1920,1080,,,a,1.1089,1,147,0,2,5,29,10,1,0,0,0,1,0,1,0,0,star ,circle,,,,,,,,,,,,,,,,,,,,,,,,,,,,,,,,,,,,,,,,,,,,,,,,,,,,,,
292966,2022-11-28_14h58.10.853,vts_reward_expectancy_bt,2022.2.4,Win32,60.0276127,Chrome,1920,1080,,,a,1.0081,1,148,0,2,6,30,0,1,1,0,0,0,0,1,0,0,triangle,circle,,,,,,,,,,,,,,,,,,,,,,,,,,,,,,,,,,,,,,,,,,,,,,,,,,,,,,
292966,2022-11-28_14h58.10.853,vts_reward_expectancy_bt,2022.2.4,Win32,60.0276127,Chrome,1920,1080,,,l,0.727,1,149,0,2,7,31,2,1,1,0,0,0,0,0,0,1,triangle,star,,,,,,,,,,,,,,,,,,,,,,,,,,,,,,,,,,,,,,,,,,,,,,,,,,,,,,
292966,2022-11-28_14h58.10.853,vts_reward_expectancy_bt,2022.2.4,Win32,60.0276127,Chrome,1920,1080,,,a,0.393,1,150,0,2,8,32,11,1,0,0,0,1,0,0,1,0,star,hexagon,,,,,,,,,,,,,,,,,,,,,,,,,,,,,,,,,,,,,,,,,,,,,,,,,,,,,,
292966,2022-11-28_14h58.10.853,vts_reward_expectancy_bt,2022.2.4,Win32,60.0276127,Chrome,1920,1080,,,l,0.2671,10,160,0,2,9,33,4,1,0,1,0,0,0,0,1,0,circle,hexagon,,,,,,,,,,,,,,,,,,,,,,,,,,,,,,,,,,,,,,,,,,,,,,,,,,,,,,
292966,2022-11-28_14h58.10.853,vts_reward_expectancy_bt,2022.2.4,Win32,60.0276127,Chrome,1920,1080,,,a,1.244,10,170,0,2,10,34,7,1,0,0,1,0,0,1,0,0,hexagon,circle,,,,,,,,,,,,,,,,,,,,,,,,,,,,,,,,,,,,,,,,,,,,,,,,,,,,,,
292966,2022-11-28_14h58.10.853,vts_reward_expectancy_bt,2022.2.4,Win32,60.0276127,Chrome,1920,1080,,,a,1.5738,10,180,0,2,11,35,9,1,0,0,0,1,1,0,0,0,star,triangle,,,,,,,,,,,,,,,,,,,,,,,,,,,,,,,,,,,,,,,,,,,,,,,,,,,,,,
292966,2022-11-28_14h58.10.853,vts_reward_expectancy_bt,2022.2.4,Win32,60.0276127,Chrome,1920,1080,,,a,0.8624,10,190,1,0,0,0,7,1,0,0,1,0,0,1,0,0,hexagon,circle,,,,,,,,,,,,,,,,,,,,,,,,,,,,,,,,,,,,,,,,,,,,,,,,,,,,,,
292966,2022-11-28_14h58.10.853,vts_reward_expectancy_bt,2022.2.4,Win32,60.0276127,Chrome,1920,1080,,,l,0.795,1,191,1,0,1,1,4,1,0,1,0,0,0,0,1,0,circle,hexagon,,,,,,,,,,,,,,,,,,,,,,,,,,,,,,,,,,,,,,,,,,,,,,,,,,,,,,
292966,2022-11-28_14h58.10.853,vts_reward_expectancy_bt,2022.2.4,Win32,60.0276127,Chrome,1920,1080,,,l,0.8022,1,192,1,0,2,2,10,1,0,0,0,1,0,1,0,0,star ,circle,,,,,,,,,,,,,,,,,,,,,,,,,,,,,,,,,,,,,,,,,,,,,,,,,,,,,,
292966,2022-11-28_14h58.10.853,vts_reward_expectancy_bt,2022.2.4,Win32,60.0276127,Chrome,1920,1080,,,l,0.6843,10,202,1,0,3,3,1,1,1,0,0,0,0,0,1,0,triangle,hexagon,,,,,,,,,,,,,,,,,,,,,,,,,,,,,,,,,,,,,,,,,,,,,,,,,,,,,,
292966,2022-11-28_14h58.10.853,vts_reward_expectancy_bt,2022.2.4,Win32,60.0276127,Chrome,1920,1080,,,l,0.7016,1,203,1,0,4,4,5,1,0,1,0,0,0,0,0,1,circle,star,,,,,,,,,,,,,,,,,,,,,,,,,,,,,,,,,,,,,,,,,,,,,,,,,,,,,,
292966,2022-11-28_14h58.10.853,vts_reward_expectancy_bt,2022.2.4,Win32,60.0276127,Chrome,1920,1080,,,a,0.2485,1,204,1,0,5,5,11,1,0,0,0,1,0,0,1,0,star,hexagon,,,,,,,,,,,,,,,,,,,,,,,,,,,,,,,,,,,,,,,,,,,,,,,,,,,,,,
292966,2022-11-28_14h58.10.853,vts_reward_expectancy_bt,2022.2.4,Win32,60.0276127,Chrome,1920,1080,,,l,0.6337,10,214,1,0,6,6,3,1,0,1,0,0,1,0,0,0,circle,triangle,,,,,,,,,,,,,,,,,,,,,,,,,,,,,,,,,,,,,,,,,,,,,,,,,,,,,,
292966,2022-11-28_14h58.10.853,vts_reward_expectancy_bt,2022.2.4,Win32,60.0276127,Chrome,1920,1080,,,l,0.875,1,215,1,0,7,7,8,1,0,0,1,0,0,0,0,1,hexagon,star,,,,,,,,,,,,,,,,,,,,,,,,,,,,,,,,,,,,,,,,,,,,,,,,,,,,,,
292966,2022-11-28_14h58.10.853,vts_reward_expectancy_bt,2022.2.4,Win32,60.0276127,Chrome,1920,1080,,,a,0.6709,10,225,1,0,8,8,6,1,0,0,1,0,1,0,0,0,hexagon,triangle,,,,,,,,,,,,,,,,,,,,,,,,,,,,,,,,,,,,,,,,,,,,,,,,,,,,,,
292966,2022-11-28_14h58.10.853,vts_reward_expectancy_bt,2022.2.4,Win32,60.0276127,Chrome,1920,1080,,,l,0.9335,10,235,1,0,9,9,2,1,1,0,0,0,0,0,0,1,triangle,star,,,,,,,,,,,,,,,,,,,,,,,,,,,,,,,,,,,,,,,,,,,,,,,,,,,,,,
292966,2022-11-28_14h58.10.853,vts_reward_expectancy_bt,2022.2.4,Win32,60.0276127,Chrome,1920,1080,,,a,0.9556,10,245,1,0,10,10,9,1,0,0,0,1,1,0,0,0,star,triangle,,,,,,,,,,,,,,,,,,,,,,,,,,,,,,,,,,,,,,,,,,,,,,,,,,,,,,
292966,2022-11-28_14h58.10.853,vts_reward_expectancy_bt,2022.2.4,Win32,60.0276127,Chrome,1920,1080,,,a,1.0054,1,246,1,0,11,11,0,1,1,0,0,0,0,1,0,0,triangle,circle,,,,,,,,,,,,,,,,,,,,,,,,,,,,,,,,,,,,,,,,,,,,,,,,,,,,,,
292966,2022-11-28_14h58.10.853,vts_reward_expectancy_bt,2022.2.4,Win32,60.0276127,Chrome,1920,1080,,,a,1.258,10,256,1,1,0,12,9,1,0,0,0,1,1,0,0,0,star,triangle,,,,,,,,,,,,,,,,,,,,,,,,,,,,,,,,,,,,,,,,,,,,,,,,,,,,,,
292966,2022-11-28_14h58.10.853,vts_reward_expectancy_bt,2022.2.4,Win32,60.0276127,Chrome,1920,1080,,,l,1.2758,10,266,1,1,1,13,10,1,0,0,0,1,0,1,0,0,star ,circle,,,,,,,,,,,,,,,,,,,,,,,,,,,,,,,,,,,,,,,,,,,,,,,,,,,,,,
292966,2022-11-28_14h58.10.853,vts_reward_expectancy_bt,2022.2.4,Win32,60.0276127,Chrome,1920,1080,,,a,1.0425,10,276,1,1,2,14,6,1,0,0,1,0,1,0,0,0,hexagon,triangle,,,,,,,,,,,,,,,,,,,,,,,,,,,,,,,,,,,,,,,,,,,,,,,,,,,,,,
292966,2022-11-28_14h58.10.853,vts_reward_expectancy_bt,2022.2.4,Win32,60.0276127,Chrome,1920,1080,,,a,1.2532,1,277,1,1,3,15,3,1,0,1,0,0,1,0,0,0,circle,triangle,,,,,,,,,,,,,,,,,,,,,,,,,,,,,,,,,,,,,,,,,,,,,,,,,,,,,,
292966,2022-11-28_14h58.10.853,vts_reward_expectancy_bt,2022.2.4,Win32,60.0276127,Chrome,1920,1080,,,a,0.8404,10,287,1,1,4,16,0,1,1,0,0,0,0,1,0,0,triangle,circle,,,,,,,,,,,,,,,,,,,,,,,,,,,,,,,,,,,,,,,,,,,,,,,,,,,,,,
292966,2022-11-28_14h58.10.853,vts_reward_expectancy_bt,2022.2.4,Win32,60.0276127,Chrome,1920,1080,,,l,0.97,10,297,1,1,5,17,11,1,0,0,0,1,0,0,1,0,star,hexagon,,,,,,,,,,,,,,,,,,,,,,,,,,,,,,,,,,,,,,,,,,,,,,,,,,,,,,
292966,2022-11-28_14h58.10.853,vts_reward_expectancy_bt,2022.2.4,Win32,60.0276127,Chrome,1920,1080,,,l,0.9396,10,307,1,1,6,18,1,1,1,0,0,0,0,0,1,0,triangle,hexagon,,,,,,,,,,,,,,,,,,,,,,,,,,,,,,,,,,,,,,,,,,,,,,,,,,,,,,
292966,2022-11-28_14h58.10.853,vts_reward_expectancy_bt,2022.2.4,Win32,60.0276127,Chrome,1920,1080,,,a,0.9646,10,317,1,1,7,19,2,1,1,0,0,0,0,0,0,1,triangle,star,,,,,,,,,,,,,,,,,,,,,,,,,,,,,,,,,,,,,,,,,,,,,,,,,,,,,,
292966,2022-11-28_14h58.10.853,vts_reward_expectancy_bt,2022.2.4,Win32,60.0276127,Chrome,1920,1080,,,a,0.9411,1,318,1,1,8,20,5,1,0,1,0,0,0,0,0,1,circle,star,,,,,,,,,,,,,,,,,,,,,,,,,,,,,,,,,,,,,,,,,,,,,,,,,,,,,,
292966,2022-11-28_14h58.10.853,vts_reward_expectancy_bt,2022.2.4,Win32,60.0276127,Chrome,1920,1080,,,a,0.8438,1,319,1,1,9,21,7,1,0,0,1,0,0,1,0,0,hexagon,circle,,,,,,,,,,,,,,,,,,,,,,,,,,,,,,,,,,,,,,,,,,,,,,,,,,,,,,
292966,2022-11-28_14h58.10.853,vts_reward_expectancy_bt,2022.2.4,Win32,60.0276127,Chrome,1920,1080,,,a,0.853,10,329,1,1,10,22,8,1,0,0,1,0,0,0,0,1,hexagon,star,,,,,,,,,,,,,,,,,,,,,,,,,,,,,,,,,,,,,,,,,,,,,,,,,,,,,,
292966,2022-11-28_14h58.10.853,vts_reward_expectancy_bt,2022.2.4,Win32,60.0276127,Chrome,1920,1080,,,l,0.5596,10,339,1,1,11,23,4,1,0,1,0,0,0,0,1,0,circle,hexagon,,,,,,,,,,,,,,,,,,,,,,,,,,,,,,,,,,,,,,,,,,,,,,,,,,,,,,
292966,2022-11-28_14h58.10.853,vts_reward_expectancy_bt,2022.2.4,Win32,60.0276127,Chrome,1920,1080,,,l,0.8941,10,349,1,2,0,24,1,1,1,0,0,0,0,0,1,0,triangle,hexagon,,,,,,,,,,,,,,,,,,,,,,,,,,,,,,,,,,,,,,,,,,,,,,,,,,,,,,
292966,2022-11-28_14h58.10.853,vts_reward_expectancy_bt,2022.2.4,Win32,60.0276127,Chrome,1920,1080,,,l,0.8156,10,359,1,2,1,25,11,1,0,0,0,1,0,0,1,0,star,hexagon,,,,,,,,,,,,,,,,,,,,,,,,,,,,,,,,,,,,,,,,,,,,,,,,,,,,,,
292966,2022-11-28_14h58.10.853,vts_reward_expectancy_bt,2022.2.4,Win32,60.0276127,Chrome,1920,1080,,,l,1.6055,1,360,1,2,2,26,5,1,0,1,0,0,0,0,0,1,circle,star,,,,,,,,,,,,,,,,,,,,,,,,,,,,,,,,,,,,,,,,,,,,,,,,,,,,,,
292966,2022-11-28_14h58.10.853,vts_reward_expectancy_bt,2022.2.4,Win32,60.0276127,Chrome,1920,1080,,,l,0.6006,10,370,1,2,3,27,4,1,0,1,0,0,0,0,1,0,circle,hexagon,,,,,,,,,,,,,,,,,,,,,,,,,,,,,,,,,,,,,,,,,,,,,,,,,,,,,,
292966,2022-11-28_14h58.10.853,vts_reward_expectancy_bt,2022.2.4,Win32,60.0276127,Chrome,1920,1080,,,l,0.782,1,371,1,2,4,28,3,1,0,1,0,0,1,0,0,0,circle,triangle,,,,,,,,,,,,,,,,,,,,,,,,,,,,,,,,,,,,,,,,,,,,,,,,,,,,,,
292966,2022-11-28_14h58.10.853,vts_reward_expectancy_bt,2022.2.4,Win32,60.0276127,Chrome,1920,1080,,,a,0.9987,1,372,1,2,5,29,8,1,0,0,1,0,0,0,0,1,hexagon,star,,,,,,,,,,,,,,,,,,,,,,,,,,,,,,,,,,,,,,,,,,,,,,,,,,,,,,
292966,2022-11-28_14h58.10.853,vts_reward_expectancy_bt,2022.2.4,Win32,60.0276127,Chrome,1920,1080,,,a,0.5441,1,373,1,2,6,30,10,1,0,0,0,1,0,1,0,0,star ,circle,,,,,,,,,,,,,,,,,,,,,,,,,,,,,,,,,,,,,,,,,,,,,,,,,,,,,,
292966,2022-11-28_14h58.10.853,vts_reward_expectancy_bt,2022.2.4,Win32,60.0276127,Chrome,1920,1080,,,l,0.5684,10,383,1,2,7,31,6,1,0,0,1,0,1,0,0,0,hexagon,triangle,,,,,,,,,,,,,,,,,,,,,,,,,,,,,,,,,,,,,,,,,,,,,,,,,,,,,,
292966,2022-11-28_14h58.10.853,vts_reward_expectancy_bt,2022.2.4,Win32,60.0276127,Chrome,1920,1080,,,a,0.6109,10,393,1,2,8,32,7,1,0,0,1,0,0,1,0,0,hexagon,circle,,,,,,,,,,,,,,,,,,,,,,,,,,,,,,,,,,,,,,,,,,,,,,,,,,,,,,
292966,2022-11-28_14h58.10.853,vts_reward_expectancy_bt,2022.2.4,Win32,60.0276127,Chrome,1920,1080,,,a,0.981,1,394,1,2,9,33,0,1,1,0,0,0,0,1,0,0,triangle,circle,,,,,,,,,,,,,,,,,,,,,,,,,,,,,,,,,,,,,,,,,,,,,,,,,,,,,,
292966,2022-11-28_14h58.10.853,vts_reward_expectancy_bt,2022.2.4,Win32,60.0276127,Chrome,1920,1080,,,a,0.9903,10,404,1,2,10,34,2,1,1,0,0,0,0,0,0,1,triangle,star,,,,,,,,,,,,,,,,,,,,,,,,,,,,,,,,,,,,,,,,,,,,,,,,,,,,,,
292966,2022-11-28_14h58.10.853,vts_reward_expectancy_bt,2022.2.4,Win32,60.0276127,Chrome,1920,1080,,,l,0.7483,10,414,1,2,11,35,9,1,0,0,0,1,1,0,0,0,star,triangle,,,,,,,,,,,,,,,,,,,,,,,,,,,,,,,,,,,,,,,,,,,,,,,,,,,,,,
292966,2022-11-28_14h58.10.853,vts_reward_expectancy_bt,2022.2.4,Win32,60.0276127,Chrome,1920,1080,,,l,0.9799,10,424,2,0,0,0,11,1,0,0,0,1,0,0,1,0,star,hexagon,,,,,,,,,,,,,,,,,,,,,,,,,,,,,,,,,,,,,,,,,,,,,,,,,,,,,,
292966,2022-11-28_14h58.10.853,vts_reward_expectancy_bt,2022.2.4,Win32,60.0276127,Chrome,1920,1080,,,l,0.7463,10,434,2,0,1,1,1,1,1,0,0,0,0,0,1,0,triangle,hexagon,,,,,,,,,,,,,,,,,,,,,,,,,,,,,,,,,,,,,,,,,,,,,,,,,,,,,,
292966,2022-11-28_14h58.10.853,vts_reward_expectancy_bt,2022.2.4,Win32,60.0276127,Chrome,1920,1080,,,l,0.8529,1,435,2,0,2,2,9,1,0,0,0,1,1,0,0,0,star,triangle,,,,,,,,,,,,,,,,,,,,,,,,,,,,,,,,,,,,,,,,,,,,,,,,,,,,,,
292966,2022-11-28_14h58.10.853,vts_reward_expectancy_bt,2022.2.4,Win32,60.0276127,Chrome,1920,1080,,,a,0.8759,1,436,2,0,3,3,0,1,1,0,0,0,0,1,0,0,triangle,circle,,,,,,,,,,,,,,,,,,,,,,,,,,,,,,,,,,,,,,,,,,,,,,,,,,,,,,
292966,2022-11-28_14h58.10.853,vts_reward_expectancy_bt,2022.2.4,Win32,60.0276127,Chrome,1920,1080,,,l,0.5092,1,437,2,0,4,4,4,1,0,1,0,0,0,0,1,0,circle,hexagon,,,,,,,,,,,,,,,,,,,,,,,,,,,,,,,,,,,,,,,,,,,,,,,,,,,,,,
292966,2022-11-28_14h58.10.853,vts_reward_expectancy_bt,2022.2.4,Win32,60.0276127,Chrome,1920,1080,,,a,0.5359,10,447,2,0,5,5,7,1,0,0,1,0,0,1,0,0,hexagon,circle,,,,,,,,,,,,,,,,,,,,,,,,,,,,,,,,,,,,,,,,,,,,,,,,,,,,,,
292966,2022-11-28_14h58.10.853,vts_reward_expectancy_bt,2022.2.4,Win32,60.0276127,Chrome,1920,1080,,,a,0.6274,10,457,2,0,6,6,6,1,0,0,1,0,1,0,0,0,hexagon,triangle,,,,,,,,,,,,,,,,,,,,,,,,,,,,,,,,,,,,,,,,,,,,,,,,,,,,,,
292966,2022-11-28_14h58.10.853,vts_reward_expectancy_bt,2022.2.4,Win32,60.0276127,Chrome,1920,1080,,,a,1.9755,1,458,2,0,7,7,2,1,1,0,0,0,0,0,0,1,triangle,star,,,,,,,,,,,,,,,,,,,,,,,,,,,,,,,,,,,,,,,,,,,,,,,,,,,,,,
292966,2022-11-28_14h58.10.853,vts_reward_expectancy_bt,2022.2.4,Win32,60.0276127,Chrome,1920,1080,,,a,0.9038,1,459,2,0,8,8,8,1,0,0,1,0,0,0,0,1,hexagon,star,,,,,,,,,,,,,,,,,,,,,,,,,,,,,,,,,,,,,,,,,,,,,,,,,,,,,,
292966,2022-11-28_14h58.10.853,vts_reward_expectancy_bt,2022.2.4,Win32,60.0276127,Chrome,1920,1080,,,a,0.6923,1,460,2,0,9,9,10,1,0,0,0,1,0,1,0,0,star ,circle,,,,,,,,,,,,,,,,,,,,,,,,,,,,,,,,,,,,,,,,,,,,,,,,,,,,,,
292966,2022-11-28_14h58.10.853,vts_reward_expectancy_bt,2022.2.4,Win32,60.0276127,Chrome,1920,1080,,,l,0.7501,10,470,2,0,10,10,3,1,0,1,0,0,1,0,0,0,circle,triangle,,,,,,,,,,,,,,,,,,,,,,,,,,,,,,,,,,,,,,,,,,,,,,,,,,,,,,
292966,2022-11-28_14h58.10.853,vts_reward_expectancy_bt,2022.2.4,Win32,60.0276127,Chrome,1920,1080,,,l,0.8644,1,471,2,0,11,11,5,1,0,1,0,0,0,0,0,1,circle,star,,,,,,,,,,,,,,,,,,,,,,,,,,,,,,,,,,,,,,,,,,,,,,,,,,,,,,
292966,2022-11-28_14h58.10.853,vts_reward_expectancy_bt,2022.2.4,Win32,60.0276127,Chrome,1920,1080,,,a,0.4052,1,472,2,1,0,12,8,1,0,0,1,0,0,0,0,1,hexagon,star,,,,,,,,,,,,,,,,,,,,,,,,,,,,,,,,,,,,,,,,,,,,,,,,,,,,,,
292966,2022-11-28_14h58.10.853,vts_reward_expectancy_bt,2022.2.4,Win32,60.0276127,Chrome,1920,1080,,,a,0.8319,10,482,2,1,1,13,6,1,0,0,1,0,1,0,0,0,hexagon,triangle,,,,,,,,,,,,,,,,,,,,,,,,,,,,,,,,,,,,,,,,,,,,,,,,,,,,,,
292966,2022-11-28_14h58.10.853,vts_reward_expectancy_bt,2022.2.4,Win32,60.0276127,Chrome,1920,1080,,,a,0.7757,10,492,2,1,2,14,2,1,1,0,0,0,0,0,0,1,triangle,star,,,,,,,,,,,,,,,,,,,,,,,,,,,,,,,,,,,,,,,,,,,,,,,,,,,,,,
292966,2022-11-28_14h58.10.853,vts_reward_expectancy_bt,2022.2.4,Win32,60.0276127,Chrome,1920,1080,,,l,1.0627,1,493,2,1,3,15,10,1,0,0,0,1,0,1,0,0,star ,circle,,,,,,,,,,,,,,,,,,,,,,,,,,,,,,,,,,,,,,,,,,,,,,,,,,,,,,
292966,2022-11-28_14h58.10.853,vts_reward_expectancy_bt,2022.2.4,Win32,60.0276127,Chrome,1920,1080,,,l,0.9097,1,494,2,1,4,16,9,1,0,0,0,1,1,0,0,0,star,triangle,,,,,,,,,,,,,,,,,,,,,,,,,,,,,,,,,,,,,,,,,,,,,,,,,,,,,,
292966,2022-11-28_14h58.10.853,vts_reward_expectancy_bt,2022.2.4,Win32,60.0276127,Chrome,1920,1080,,,a,0.6496,1,495,2,1,5,17,3,1,0,1,0,0,1,0,0,0,circle,triangle,,,,,,,,,,,,,,,,,,,,,,,,,,,,,,,,,,,,,,,,,,,,,,,,,,,,,,
292966,2022-11-28_14h58.10.853,vts_reward_expectancy_bt,2022.2.4,Win32,60.0276127,Chrome,1920,1080,,,a,0.7158,10,505,2,1,6,18,7,1,0,0,1,0,0,1,0,0,hexagon,circle,,,,,,,,,,,,,,,,,,,,,,,,,,,,,,,,,,,,,,,,,,,,,,,,,,,,,,
292966,2022-11-28_14h58.10.853,vts_reward_expectancy_bt,2022.2.4,Win32,60.0276127,Chrome,1920,1080,,,l,0.8689,1,506,2,1,7,19,5,1,0,1,0,0,0,0,0,1,circle,star,,,,,,,,,,,,,,,,,,,,,,,,,,,,,,,,,,,,,,,,,,,,,,,,,,,,,,
292966,2022-11-28_14h58.10.853,vts_reward_expectancy_bt,2022.2.4,Win32,60.0276127,Chrome,1920,1080,,,a,0.5115,10,516,2,1,8,20,0,1,1,0,0,0,0,1,0,0,triangle,circle,,,,,,,,,,,,,,,,,,,,,,,,,,,,,,,,,,,,,,,,,,,,,,,,,,,,,,
292966,2022-11-28_14h58.10.853,vts_reward_expectancy_bt,2022.2.4,Win32,60.0276127,Chrome,1920,1080,,,l,1.4749,10,526,2,1,9,21,11,1,0,0,0,1,0,0,1,0,star,hexagon,,,,,,,,,,,,,,,,,,,,,,,,,,,,,,,,,,,,,,,,,,,,,,,,,,,,,,
292966,2022-11-28_14h58.10.853,vts_reward_expectancy_bt,2022.2.4,Win32,60.0276127,Chrome,1920,1080,,,l,0.8597,10,536,2,1,10,22,1,1,1,0,0,0,0,0,1,0,triangle,hexagon,,,,,,,,,,,,,,,,,,,,,,,,,,,,,,,,,,,,,,,,,,,,,,,,,,,,,,
292966,2022-11-28_14h58.10.853,vts_reward_expectancy_bt,2022.2.4,Win32,60.0276127,Chrome,1920,1080,,,l,0.716,10,546,2,1,11,23,4,1,0,1,0,0,0,0,1,0,circle,hexagon,,,,,,,,,,,,,,,,,,,,,,,,,,,,,,,,,,,,,,,,,,,,,,,,,,,,,,
292966,2022-11-28_14h58.10.853,vts_reward_expectancy_bt,2022.2.4,Win32,60.0276127,Chrome,1920,1080,,,l,0.6719,10,556,2,2,0,24,11,1,0,0,0,1,0,0,1,0,star,hexagon,,,,,,,,,,,,,,,,,,,,,,,,,,,,,,,,,,,,,,,,,,,,,,,,,,,,,,
292966,2022-11-28_14h58.10.853,vts_reward_expectancy_bt,2022.2.4,Win32,60.0276127,Chrome,1920,1080,,,a,0.8441,1,557,2,2,1,25,6,1,0,0,1,0,1,0,0,0,hexagon,triangle,,,,,,,,,,,,,,,,,,,,,,,,,,,,,,,,,,,,,,,,,,,,,,,,,,,,,,
292966,2022-11-28_14h58.10.853,vts_reward_expectancy_bt,2022.2.4,Win32,60.0276127,Chrome,1920,1080,,,l,0.8122,1,558,2,2,2,26,4,1,0,1,0,0,0,0,1,0,circle,hexagon,,,,,,,,,,,,,,,,,,,,,,,,,,,,,,,,,,,,,,,,,,,,,,,,,,,,,,
292966,2022-11-28_14h58.10.853,vts_reward_expectancy_bt,2022.2.4,Win32,60.0276127,Chrome,1920,1080,,,l,0.8081,1,559,2,2,3,27,10,1,0,0,0,1,0,1,0,0,star ,circle,,,,,,,,,,,,,,,,,,,,,,,,,,,,,,,,,,,,,,,,,,,,,,,,,,,,,,
292966,2022-11-28_14h58.10.853,vts_reward_expectancy_bt,2022.2.4,Win32,60.0276127,Chrome,1920,1080,,,a,0.4515,10,569,2,2,4,28,0,1,1,0,0,0,0,1,0,0,triangle,circle,,,,,,,,,,,,,,,,,,,,,,,,,,,,,,,,,,,,,,,,,,,,,,,,,,,,,,
292966,2022-11-28_14h58.10.853,vts_reward_expectancy_bt,2022.2.4,Win32,60.0276127,Chrome,1920,1080,,,l,0.7003,1,570,2,2,5,29,9,1,0,0,0,1,1,0,0,0,star,triangle,,,,,,,,,,,,,,,,,,,,,,,,,,,,,,,,,,,,,,,,,,,,,,,,,,,,,,
292966,2022-11-28_14h58.10.853,vts_reward_expectancy_bt,2022.2.4,Win32,60.0276127,Chrome,1920,1080,,,a,0.5685,1,571,2,2,6,30,8,1,0,0,1,0,0,0,0,1,hexagon,star,,,,,,,,,,,,,,,,,,,,,,,,,,,,,,,,,,,,,,,,,,,,,,,,,,,,,,
292966,2022-11-28_14h58.10.853,vts_reward_expectancy_bt,2022.2.4,Win32,60.0276127,Chrome,1920,1080,,,l,0.4741,10,581,2,2,7,31,1,1,1,0,0,0,0,0,1,0,triangle,hexagon,,,,,,,,,,,,,,,,,,,,,,,,,,,,,,,,,,,,,,,,,,,,,,,,,,,,,,
292966,2022-11-28_14h58.10.853,vts_reward_expectancy_bt,2022.2.4,Win32,60.0276127,Chrome,1920,1080,,,a,0.6204,10,591,2,2,8,32,5,1,0,1,0,0,0,0,0,1,circle,star,,,,,,,,,,,,,,,,,,,,,,,,,,,,,,,,,,,,,,,,,,,,,,,,,,,,,,
292966,2022-11-28_14h58.10.853,vts_reward_expectancy_bt,2022.2.4,Win32,60.0276127,Chrome,1920,1080,,,a,0.4779,1,592,2,2,9,33,7,1,0,0,1,0,0,1,0,0,hexagon,circle,,,,,,,,,,,,,,,,,,,,,,,,,,,,,,,,,,,,,,,,,,,,,,,,,,,,,,
292966,2022-11-28_14h58.10.853,vts_reward_expectancy_bt,2022.2.4,Win32,60.0276127,Chrome,1920,1080,,,a,0.5157,1,593,2,2,10,34,3,1,0,1,0,0,1,0,0,0,circle,triangle,,,,,,,,,,,,,,,,,,,,,,,,,,,,,,,,,,,,,,,,,,,,,,,,,,,,,,
292966,2022-11-28_14h58.10.853,vts_reward_expectancy_bt,2022.2.4,Win32,60.0276127,Chrome,1920,1080,,,l,0.1359,10,603,2,2,11,35,2,1,1,0,0,0,0,0,0,1,triangle,star,,,,,,,,,,,,,,,,,,,,,,,,,,,,,,,,,,,,,,,,,,,,,,,,,,,,,,
292966,2022-11-28_14h58.10.853,vts_reward_expectancy_bt,2022.2.4,Win32,60.0276127,Chrome,1920,1080,,,,,,,,,,,,,,,,,,,,,,,F,132,triangle,0,0,,0,0,0,0,0,1,,,,,,,,,,,,,,,,,,,,,,,,,,,,,,,,,,,,,,,,,,
292966,2022-11-28_14h58.10.853,vts_reward_expectancy_bt,2022.2.4,Win32,60.0276127,Chrome,1920,1080,,,,,,,,,,,,,,,,,,,,,,,U,160,star,1,1,f,0,1,0,1,0,1,1.0194,,,,,,,,,,,,,,,,,,,,,,,,,,,,,,,,,,,,,,,,,
292966,2022-11-28_14h58.10.853,vts_reward_expectancy_bt,2022.2.4,Win32,60.0276127,Chrome,1920,1080,,,,,,,,,,,,,,,,,,,,,,,Y,125,circle,1,0,f,0,2,0,2,0,1,0.8655,,,,,,,,,,,,,,,,,,,,,,,,,,,,,,,,,,,,,,,,,
292966,2022-11-28_14h58.10.853,vts_reward_expectancy_bt,2022.2.4,Win32,60.0276127,Chrome,1920,1080,,,,,,,,,,,,,,,,,,,,,,,H,174,hexagon,1,0,d,0,3,0,3,0,1,1.5052,,,,,,,,,,,,,,,,,,,,,,,,,,,,,,,,,,,,,,,,,
292966,2022-11-28_14h58.10.853,vts_reward_expectancy_bt,2022.2.4,Win32,60.0276127,Chrome,1920,1080,,,,,,,,,,,,,,,,,,,,,,,B,146,triangle,1,0,d,0,4,0,4,0,1,0.9232,,,,,,,,,,,,,,,,,,,,,,,,,,,,,,,,,,,,,,,,,
292966,2022-11-28_14h58.10.853,vts_reward_expectancy_bt,2022.2.4,Win32,60.0276127,Chrome,1920,1080,,,,,,,,,,,,,,,,,,,,,,,W,139,star,1,0,f,0,5,0,5,0,1,0.7036,,,,,,,,,,,,,,,,,,,,,,,,,,,,,,,,,,,,,,,,,
292966,2022-11-28_14h58.10.853,vts_reward_expectancy_bt,2022.2.4,Win32,60.0276127,Chrome,1920,1080,,,,,,,,,,,,,,,,,,,,,,,D,181,circle,1,0,d,0,6,0,6,0,1,0.7313,,,,,,,,,,,,,,,,,,,,,,,,,,,,,,,,,,,,,,,,,
292966,2022-11-28_14h58.10.853,vts_reward_expectancy_bt,2022.2.4,Win32,60.0276127,Chrome,1920,1080,,,,,,,,,,,,,,,,,,,,,,,S,167,hexagon,1,0,f,0,7,0,7,0,1,1.2083,,,,,,,,,,,,,,,,,,,,,,,,,,,,,,,,,,,,,,,,,
292966,2022-11-28_14h58.10.853,vts_reward_expectancy_bt,2022.2.4,Win32,60.0276127,Chrome,1920,1080,,,,,,,,,,,,,,,,,,,,,,,F,132,circle,1,0,d,0,8,0,8,0,1,0.8646,,,,,,,,,,,,,,,,,,,,,,,,,,,,,,,,,,,,,,,,,
292966,2022-11-28_14h58.10.853,vts_reward_expectancy_bt,2022.2.4,Win32,60.0276127,Chrome,1920,1080,,,,,,,,,,,,,,,,,,,,,,,U,160,star,1,0,f,0,9,0,9,0,1,0.7558,,,,,,,,,,,,,,,,,,,,,,,,,,,,,,,,,,,,,,,,,
292966,2022-11-28_14h58.10.853,vts_reward_expectancy_bt,2022.2.4,Win32,60.0276127,Chrome,1920,1080,,,,,,,,,,,,,,,,,,,,,,,Y,181,hexagon,1,0,,1,,,,,,,k,1.2971,0,0,0,0,1,,,,,,,,,,,,,,,,,,,,,,,,,,,,,,,,,,
292966,2022-11-28_14h58.10.853,vts_reward_expectancy_bt,2022.2.4,Win32,60.0276127,Chrome,1920,1080,,,,,,,,,,,,,,,,,,,,,,,D,174,star,1,0,,1,,,,,,,k,1.1924,1,0,1,0,1,,,,,,,,,,,,,,,,,,,,,,,,,,,,,,,,,,
292966,2022-11-28_14h58.10.853,vts_reward_expectancy_bt,2022.2.4,Win32,60.0276127,Chrome,1920,1080,,,,,,,,,,,,,,,,,,,,,,,U,160,triangle,1,0,,1,,,,,,,k,0.7094,2,0,2,0,1,,,,,,,,,,,,,,,,,,,,,,,,,,,,,,,,,,
292966,2022-11-28_14h58.10.853,vts_reward_expectancy_bt,2022.2.4,Win32,60.0276127,Chrome,1920,1080,,,,,,,,,,,,,,,,,,,,,,,S,146,circle,1,0,,1,,,,,,,j,1.0588,3,0,3,0,1,,,,,,,,,,,,,,,,,,,,,,,,,,,,,,,,,,
292966,2022-11-28_14h58.10.853,vts_reward_expectancy_bt,2022.2.4,Win32,60.0276127,Chrome,1920,1080,,,,,,,,,,,,,,,,,,,,,,,W,125,hexagon,1,0,,1,,,,,,,j,0.91,4,0,4,0,1,,,,,,,,,,,,,,,,,,,,,,,,,,,,,,,,,,
292966,2022-11-28_14h58.10.853,vts_reward_expectancy_bt,2022.2.4,Win32,60.0276127,Chrome,1920,1080,,,,,,,,,,,,,,,,,,,,,,,B,139,star,1,0,,1,,,,,,,j,0.7596,5,0,5,0,1,,,,,,,,,,,,,,,,,,,,,,,,,,,,,,,,,,
292966,2022-11-28_14h58.10.853,vts_reward_expectancy_bt,2022.2.4,Win32,60.0276127,Chrome,1920,1080,,,,,,,,,,,,,,,,,,,,,,,F,167,triangle,1,0,,1,,,,,,,k,0.7558,6,0,6,0,1,,,,,,,,,,,,,,,,,,,,,,,,,,,,,,,,,,
292966,2022-11-28_14h58.10.853,vts_reward_expectancy_bt,2022.2.4,Win32,60.0276127,Chrome,1920,1080,,,,,,,,,,,,,,,,,,,,,,,H,132,circle,1,0,,1,,,,,,,j,0.765,7,0,7,0,1,,,,,,,,,,,,,,,,,,,,,,,,,,,,,,,,,,
292966,2022-11-28_14h58.10.853,vts_reward_expectancy_bt,2022.2.4,Win32,60.0276127,Chrome,1920,1080,,,,,,,,,,,,,,,,,,,,,,,Y,181,hexagon,1,0,,1,,,,,,,k,0.5932,8,0,8,0,1,,,,,,,,,,,,,,,,,,,,,,,,,,,,,,,,,,
292966,2022-11-28_14h58.10.853,vts_reward_expectancy_bt,2022.2.4,Win32,60.0276127,Chrome,1920,1080,,,,,,,,,,,,,,,,,,,,,,,D,174,circle,1,0,,1,,,,,,,k,0.6897,9,0,9,0,1,,,,,,,,,,,,,,,,,,,,,,,,,,,,,,,,,,
292966,2022-11-28_14h58.10.853,vts_reward_expectancy_bt,2022.2.4,Win32,60.0276127,Chrome,1920,1080,,,,,0,603,,,,,,,,,,,,,,,,,W,125,hexagon,1,0,,2,,,,,,,,,,,,,,-1,letter,NA,f,2.4327,vtsPrac,0,0,0,0,1,,,,,,,,,,,,,,,,,,,,,,,
292966,2022-11-28_14h58.10.853,vts_reward_expectancy_bt,2022.2.4,Win32,60.0276127,Chrome,1920,1080,,,,,0,603,,,,,,,,,,,,,,,,,D,160,circle,1,0,,2,,,,,,,,,,,,,,switch,number,numSwt,k,2.0256,vtsPrac,1,0,1,0,1,,,,,,,,,,,,,,,,,,,,,,,
292966,2022-11-28_14h58.10.853,vts_reward_expectancy_bt,2022.2.4,Win32,60.0276127,Chrome,1920,1080,,,,,0,603,,,,,,,,,,,,,,,,,U,146,hexagon,1,0,,2,,,,,,,,,,,,,,repeat,number,numRpt,j,0.9167,vtsPrac,2,0,2,0,1,,,,,,,,,,,,,,,,,,,,,,,
292966,2022-11-28_14h58.10.853,vts_reward_expectancy_bt,2022.2.4,Win32,60.0276127,Chrome,1920,1080,,,,,0,603,,,,,,,,,,,,,,,,,S,181,circle,1,0,,2,,,,,,,,,,,,,,switch,letter,lettSwt,f,1.2314,vtsPrac,3,0,3,0,1,,,,,,,,,,,,,,,,,,,,,,,
292966,2022-11-28_14h58.10.853,vts_reward_expectancy_bt,2022.2.4,Win32,60.0276127,Chrome,1920,1080,,,,,0,603,,,,,,,,,,,,,,,,,W,125,triangle,1,0,,2,,,,,,,,,,,,,,repeat,letter,lettRpt,f,1.0597,vtsPrac,4,0,4,0,1,,,,,,,,,,,,,,,,,,,,,,,
292966,2022-11-28_14h58.10.853,vts_reward_expectancy_bt,2022.2.4,Win32,60.0276127,Chrome,1920,1080,,,,,0,603,,,,,,,,,,,,,,,,,D,160,hexagon,1,0,,2,,,,,,,,,,,,,,switch,number,numSwt,k,1.2001,vtsPrac,5,0,5,0,1,,,,,,,,,,,,,,,,,,,,,,,
292966,2022-11-28_14h58.10.853,vts_reward_expectancy_bt,2022.2.4,Win32,60.0276127,Chrome,1920,1080,,,,,0,603,,,,,,,,,,,,,,,,,U,146,triangle,1,0,,2,,,,,,,,,,,,,,repeat,number,numRpt,j,0.8918,vtsPrac,6,0,6,0,1,,,,,,,,,,,,,,,,,,,,,,,
292966,2022-11-28_14h58.10.853,vts_reward_expectancy_bt,2022.2.4,Win32,60.0276127,Chrome,1920,1080,,,,,0,603,,,,,,,,,,,,,,,,,S,181,hexagon,1,0,,2,,,,,,,,,,,,,,repeat,number,numRpt,k,0.9103,vtsPrac,7,0,7,0,1,,,,,,,,,,,,,,,,,,,,,,,
292966,2022-11-28_14h58.10.853,vts_reward_expectancy_bt,2022.2.4,Win32,60.0276127,Chrome,1920,1080,,,,,0,603,,,,,,,,,,,,,,,,,S,146,triangle,1,0,,2,,,,,,,,,,,,,,repeat,number,numRpt,j,1.0587,vtsPrac,8,0,8,0,1,,,,,,,,,,,,,,,,,,,,,,,
292966,2022-11-28_14h58.10.853,vts_reward_expectancy_bt,2022.2.4,Win32,60.0276127,Chrome,1920,1080,,,,,0,603,,,,,,,,,,,,,,,,,B,139,star,1,0,,2,,,,,,,,,,,,,,repeat,number,numRpt,j,0.7695,vtsPrac,9,0,9,0,1,,,,,,,,,,,,,,,,,,,,,,,
292966,2022-11-28_14h58.10.853,vts_reward_expectancy_bt,2022.2.4,Win32,60.0276127,Chrome,1920,1080,,,,,0,603,,,,,,,,,,,,,,,,,W,160,star,1,0,,2,,,,,,,,,,,,,,repeat,number,numRpt,k,0.8602,vtsPrac,10,0,10,0,1,,,,,,,,,,,,,,,,,,,,,,,
292966,2022-11-28_14h58.10.853,vts_reward_expectancy_bt,2022.2.4,Win32,60.0276127,Chrome,1920,1080,,,,,0,603,,,,,,,,,,,,,,,,,U,167,triangle,1,0,,2,,,,,,,,,,,,,,switch,letter,lettSwt,f,0.8479,vtsPrac,11,0,11,0,1,,,,,,,,,,,,,,,,,,,,,,,
292966,2022-11-28_14h58.10.853,vts_reward_expectancy_bt,2022.2.4,Win32,60.0276127,Chrome,1920,1080,,,,,0,603,,,,,,,,,,,,,,,,,H,160,circle,1,0,,2,,,,,,,,,,,,,,repeat,letter,lettRpt,d,0.951,vtsPrac,12,0,12,0,1,,,,,,,,,,,,,,,,,,,,,,,
292966,2022-11-28_14h58.10.853,vts_reward_expectancy_bt,2022.2.4,Win32,60.0276127,Chrome,1920,1080,,,,,0,603,,,,,,,,,,,,,,,,,Y,174,hexagon,1,0,,2,,,,,,,,,,,,,,switch,number,numSwt,k,1.0924,vtsPrac,13,0,13,0,1,,,,,,,,,,,,,,,,,,,,,,,
292966,2022-11-28_14h58.10.853,vts_reward_expectancy_bt,2022.2.4,Win32,60.0276127,Chrome,1920,1080,,,,,0,603,,,,,,,,,,,,,,,,,F,167,star,1,0,,2,,,,,,,,,,,,,,repeat,number,numRpt,k,0.8428,vtsPrac,14,0,14,0,1,,,,,,,,,,,,,,,,,,,,,,,
292966,2022-11-28_14h58.10.853,vts_reward_expectancy_bt,2022.2.4,Win32,60.0276127,Chrome,1920,1080,,,,,0,603,,,,,,,,,,,,,,,,,U,125,circle,1,0,,2,,,,,,,,,,,,,,repeat,number,numRpt,j,0.8596,vtsPrac,15,0,15,0,1,,,,,,,,,,,,,,,,,,,,,,,
292966,2022-11-28_14h58.10.853,vts_reward_expectancy_bt,2022.2.4,Win32,60.0276127,Chrome,1920,1080,,,,,0,603,,,,,,,,,,,,,,,,,Y,174,star,1,0,,2,,,,,,,,,,,,,,switch,letter,lettSwt,f,1.0811,vtsPrac,16,0,16,0,1,,,,,,,,,,,,,,,,,,,,,,,
292966,2022-11-28_14h58.10.853,vts_reward_expectancy_bt,2022.2.4,Win32,60.0276127,Chrome,1920,1080,,,,,0,603,,,,,,,,,,,,,,,,,D,160,hexagon,1,0,,2,,,,,,,,,,,,,,repeat,letter,lettRpt,d,0.9732,vtsPrac,17,0,17,0,1,,,,,,,,,,,,,,,,,,,,,,,
292966,2022-11-28_14h58.10.853,vts_reward_expectancy_bt,2022.2.4,Win32,60.0276127,Chrome,1920,1080,,,,,0,603,,,,,,,,,,,,,,,,,W,139,circle,1,0,,2,,,,,,,,,,,,,,switch,number,numSwt,j,0.8164,vtsPrac,18,0,18,0,1,,,,,,,,,,,,,,,,,,,,,,,
292966,2022-11-28_14h58.10.853,vts_reward_expectancy_bt,2022.2.4,Win32,60.0276127,Chrome,1920,1080,,,,,0,603,,,,,,,,,,,,,,,,,U,125,star,1,0,,2,,,,,,,,,,,,,,repeat,number,numRpt,j,0.7937,vtsPrac,19,0,19,0,1,,,,,,,,,,,,,,,,,,,,,,,
292966,2022-11-28_14h58.10.853,vts_reward_expectancy_bt,2022.2.4,Win32,60.0276127,Chrome,1920,1080,,,,,0,603,,,,,,,,,,,,,,,,,H,125,triangle,1,0,,2,,,,,,,,,,,,,,repeat,number,numRpt,j,0.6817,vtsPrac,20,0,20,0,1,,,,,,,,,,,,,,,,,,,,,,,
292966,2022-11-28_14h58.10.853,vts_reward_expectancy_bt,2022.2.4,Win32,60.0276127,Chrome,1920,1080,,,,,0,603,,,,,,,,,,,,,,,,,S,132,circle,0,0,,2,,,,,,,,,,,,,,switch,letter,NA,d,1.4242,vtsPrac,21,0,21,0,1,,,,,,,,,,,,,,,,,,,,,,,
292966,2022-11-28_14h58.10.853,vts_reward_expectancy_bt,2022.2.4,Win32,60.0276127,Chrome,1920,1080,,,,,0,603,,,,,,,,,,,,,,,,,B,174,triangle,1,1,,2,,,,,,,,,,,,,,repeat,letter,lettRpt,d,0.9843,vtsPrac,22,0,22,0,1,,,,,,,,,,,,,,,,,,,,,,,
292966,2022-11-28_14h58.10.853,vts_reward_expectancy_bt,2022.2.4,Win32,60.0276127,Chrome,1920,1080,,,,,0,603,,,,,,,,,,,,,,,,,W,146,circle,1,0,,2,,,,,,,,,,,,,,repeat,letter,lettRpt,f,0.9309,vtsPrac,23,0,23,0,1,,,,,,,,,,,,,,,,,,,,,,,
292966,2022-11-28_14h58.10.853,vts_reward_expectancy_bt,2022.2.4,Win32,60.0276127,Chrome,1920,1080,,,,,0,603,,,,,,,,,,,,,,,,,U,125,circle,1,0,,2,,,,,,,,,,,,,,switch,number,numSwt,j,0.8557,vtsPrac,24,0,24,0,1,,,,,,,,,,,,,,,,,,,,,,,
292966,2022-11-28_14h58.10.853,vts_reward_expectancy_bt,2022.2.4,Win32,60.0276127,Chrome,1920,1080,,,,,0,603,,,,,,,,,,,,,,,,,H,167,star,1,0,,2,,,,,,,,,,,,,,repeat,number,numRpt,k,1.0195,vtsPrac,25,0,25,0,1,,,,,,,,,,,,,,,,,,,,,,,
292966,2022-11-28_14h58.10.853,vts_reward_expectancy_bt,2022.2.4,Win32,60.0276127,Chrome,1920,1080,,,,,0,603,,,,,,,,,,,,,,,,,Y,132,triangle,1,0,,2,,,,,,,,,,,,,,repeat,number,numRpt,j,0.8654,vtsPrac,26,0,26,0,1,,,,,,,,,,,,,,,,,,,,,,,
292966,2022-11-28_14h58.10.853,vts_reward_expectancy_bt,2022.2.4,Win32,60.0276127,Chrome,1920,1080,,,,,0,603,,,,,,,,,,,,,,,,,D,146,circle,1,0,,2,,,,,,,,,,,,,,switch,letter,lettSwt,d,0.8481,vtsPrac,27,0,27,0,1,,,,,,,,,,,,,,,,,,,,,,,
292966,2022-11-28_14h58.10.853,vts_reward_expectancy_bt,2022.2.4,Win32,60.0276127,Chrome,1920,1080,,,,,0,603,,,,,,,,,,,,,,,,,W,132,circle,1,0,,2,,,,,,,,,,,,,,switch,number,numSwt,j,0.7388,vtsPrac,28,0,28,0,1,,,,,,,,,,,,,,,,,,,,,,,
292966,2022-11-28_14h58.10.853,vts_reward_expectancy_bt,2022.2.4,Win32,60.0276127,Chrome,1920,1080,,,,,0,603,,,,,,,,,,,,,,,,,F,181,triangle,1,0,,2,,,,,,,,,,,,,,repeat,number,numRpt,k,0.8835,vtsPrac,29,0,29,0,1,,,,,,,,,,,,,,,,,,,,,,,
292966,2022-11-28_14h58.10.853,vts_reward_expectancy_bt,2022.2.4,Win32,60.0276127,Chrome,1920,1080,,,,,0,603,,,,,,,,,,,,,,,,,D,160,star,0,0,,2,,,,,,,,,,,,,,repeat,number,NA,j,0.6838,vtsPrac,30,0,30,0,1,,,,,,,,,,,,,,,,,,,,,,,
292966,2022-11-28_14h58.10.853,vts_reward_expectancy_bt,2022.2.4,Win32,60.0276127,Chrome,1920,1080,,,,,0,603,,,,,,,,,,,,,,,,,U,174,triangle,1,1,,2,,,,,,,,,,,,,,repeat,number,numRpt,k,0.5714,vtsPrac,31,0,31,0,1,,,,,,,,,,,,,,,,,,,,,,,
292966,2022-11-28_14h58.10.853,vts_reward_expectancy_bt,2022.2.4,Win32,60.0276127,Chrome,1920,1080,,,,,,,,,,,,,,,,,,,,,,,,,,,,,,,,,,,,,,,,,,,,,,,,,,,,,,,,,,,,,,,,,,,,,,,,,,,,
292966,2022-11-28_14h58.10.853,vts_reward_expectancy_bt,2022.2.4,Win32,60.0276127,Chrome,1920,1080,,,,,,,,,,,,,,,,,,,,,,,,,,,,,,,,,,,,,,,,,,,,,,,,,,,,,,,,,,,,,,,,,,,,,,,,,,,,
292966,2022-11-28_14h58.10.853,vts_reward_expectancy_bt,2022.2.4,Win32,60.0276127,Chrome,1920,1080,,,,,0,603,,,,,,,,,,,,,,,,,D,139,triangle,1,0,,,,,,,,,,,,,,,,switch,letter,lettSwt,d,1.2156,noRew,,,,,,0,0,0,0,0,1,,,,,,,,,,,,,,,,,
292966,2022-11-28_14h58.10.853,vts_reward_expectancy_bt,2022.2.4,Win32,60.0276127,Chrome,1920,1080,,,,,0,603,,,,,,,,,,,,,,,,,Y,160,star,1,0,,,,,,,,,,,,,,,,repeat,letter,lettRpt,f,1.07,noRew,,,,,,0,1,0,1,0,1,,,,,,,,,,,,,,,,,
292966,2022-11-28_14h58.10.853,vts_reward_expectancy_bt,2022.2.4,Win32,60.0276127,Chrome,1920,1080,,,,,0,603,,,,,,,,,,,,,,,,,H,125,triangle,1,0,,,,,,,,,,,,,,,,switch,number,numSwt,j,0.7562,noRew,,,,,,0,2,0,2,0,1,,,,,,,,,,,,,,,,,
292966,2022-11-28_14h58.10.853,vts_reward_expectancy_bt,2022.2.4,Win32,60.0276127,Chrome,1920,1080,,,,,0,603,,,,,,,,,,,,,,,,,W,146,star,1,0,,,,,,,,,,,,,,,,switch,letter,lettSwt,f,0.8419,noRew,,,,,,0,3,0,3,0,1,,,,,,,,,,,,,,,,,
292966,2022-11-28_14h58.10.853,vts_reward_expectancy_bt,2022.2.4,Win32,60.0276127,Chrome,1920,1080,,,,,0,603,,,,,,,,,,,,,,,,,D,139,hexagon,0,0,,,,,,,,,,,,,,,,repeat,letter,NA,f,0.6858,noRew,,,,,,0,4,0,4,0,1,,,,,,,,,,,,,,,,,
292966,2022-11-28_14h58.10.853,vts_reward_expectancy_bt,2022.2.4,Win32,60.0276127,Chrome,1920,1080,,,,,0,603,,,,,,,,,,,,,,,,,Y,160,star,1,1,,,,,,,,,,,,,,,,repeat,letter,lettRpt,f,0.9133,noRew,,,,,,0,5,0,5,0,1,,,,,,,,,,,,,,,,,
292966,2022-11-28_14h58.10.853,vts_reward_expectancy_bt,2022.2.4,Win32,60.0276127,Chrome,1920,1080,,,,,0,603,,,,,,,,,,,,,,,,,H,125,circle,1,0,,,,,,,,,,,,,,,,switch,number,numSwt,j,0.8238,noRew,,,,,,0,6,0,6,0,1,,,,,,,,,,,,,,,,,
292966,2022-11-28_14h58.10.853,vts_reward_expectancy_bt,2022.2.4,Win32,60.0276127,Chrome,1920,1080,,,,,0,603,,,,,,,,,,,,,,,,,W,146,triangle,1,0,,,,,,,,,,,,,,,,repeat,number,numRpt,j,1.4337,noRew,,,,,,0,7,0,7,0,1,,,,,,,,,,,,,,,,,
292966,2022-11-28_14h58.10.853,vts_reward_expectancy_bt,2022.2.4,Win32,60.0276127,Chrome,1920,1080,,,,,0,603,,,,,,,,,,,,,,,,,U,146,triangle,1,0,,,,,,,,,,,,,,,,repeat,number,numRpt,j,1.1123,noRew,,,,,,0,8,0,8,0,1,,,,,,,,,,,,,,,,,
292966,2022-11-28_14h58.10.853,vts_reward_expectancy_bt,2022.2.4,Win32,60.0276127,Chrome,1920,1080,,,,,0,603,,,,,,,,,,,,,,,,,Y,132,star,1,0,,,,,,,,,,,,,,,,repeat,number,numRpt,j,1.0206,noRew,,,,,,0,9,0,9,0,1,,,,,,,,,,,,,,,,,
292966,2022-11-28_14h58.10.853,vts_reward_expectancy_bt,2022.2.4,Win32,60.0276127,Chrome,1920,1080,,,,,0,603,,,,,,,,,,,,,,,,,D,139,star,1,0,,,,,,,,,,,,,,,,repeat,number,numRpt,j,1.4382,noRew,,,,,,0,10,0,10,0,1,,,,,,,,,,,,,,,,,
292966,2022-11-28_14h58.10.853,vts_reward_expectancy_bt,2022.2.4,Win32,60.0276127,Chrome,1920,1080,,,,,0,603,,,,,,,,,,,,,,,,,W,125,triangle,1,0,,,,,,,,,,,,,,,,switch,letter,lettSwt,f,0.9858,noRew,,,,,,0,11,0,11,0,1,,,,,,,,,,,,,,,,,
292966,2022-11-28_14h58.10.853,vts_reward_expectancy_bt,2022.2.4,Win32,60.0276127,Chrome,1920,1080,,,,,0,603,,,,,,,,,,,,,,,,,D,181,hexagon,1,0,,,,,,,,,,,,,,,,switch,number,numSwt,k,1.2652,noRew,,,,,,0,12,0,12,0,1,,,,,,,,,,,,,,,,,
292966,2022-11-28_14h58.10.853,vts_reward_expectancy_bt,2022.2.4,Win32,60.0276127,Chrome,1920,1080,,,,,0,603,,,,,,,,,,,,,,,,,B,139,circle,1,0,,,,,,,,,,,,,,,,switch,letter,lettSwt,d,1.5314,noRew,,,,,,0,13,0,13,0,1,,,,,,,,,,,,,,,,,
292966,2022-11-28_14h58.10.853,vts_reward_expectancy_bt,2022.2.4,Win32,60.0276127,Chrome,1920,1080,,,,,0,603,,,,,,,,,,,,,,,,,S,174,star,1,0,,,,,,,,,,,,,,,,switch,number,numSwt,k,0.9072,noRew,,,,,,0,14,0,14,0,1,,,,,,,,,,,,,,,,,
292966,2022-11-28_14h58.10.853,vts_reward_expectancy_bt,2022.2.4,Win32,60.0276127,Chrome,1920,1080,,,,,0,603,,,,,,,,,,,,,,,,,H,132,circle,1,0,,,,,,,,,,,,,,,,repeat,number,numRpt,j,0.9144,noRew,,,,,,0,15,0,15,0,1,,,,,,,,,,,,,,,,,
292966,2022-11-28_14h58.10.853,vts_reward_expectancy_bt,2022.2.4,Win32,60.0276127,Chrome,1920,1080,,,,,0,603,,,,,,,,,,,,,,,,,B,160,circle,1,0,,,,,,,,,,,,,,,,repeat,number,numRpt,k,0.7719,noRew,,,,,,0,16,0,16,0,1,,,,,,,,,,,,,,,,,
292966,2022-11-28_14h58.10.853,vts_reward_expectancy_bt,2022.2.4,Win32,60.0276127,Chrome,1920,1080,,,,,0,603,,,,,,,,,,,,,,,,,S,139,star,1,0,,,,,,,,,,,,,,,,repeat,number,numRpt,j,1.0212,noRew,,,,,,0,17,0,17,0,1,,,,,,,,,,,,,,,,,
292966,2022-11-28_14h58.10.853,vts_reward_expectancy_bt,2022.2.4,Win32,60.0276127,Chrome,1920,1080,,,,,0,603,,,,,,,,,,,,,,,,,U,132,star,1,0,,,,,,,,,,,,,,,,repeat,number,numRpt,j,1.1773,noRew,,,,,,0,18,0,18,0,1,,,,,,,,,,,,,,,,,
292966,2022-11-28_14h58.10.853,vts_reward_expectancy_bt,2022.2.4,Win32,60.0276127,Chrome,1920,1080,,,,,0,603,,,,,,,,,,,,,,,,,Y,167,triangle,1,0,,,,,,,,,,,,,,,,switch,letter,lettSwt,f,0.9213,noRew,,,,,,0,19,0,19,0,1,,,,,,,,,,,,,,,,,
292966,2022-11-28_14h58.10.853,vts_reward_expectancy_bt,2022.2.4,Win32,60.0276127,Chrome,1920,1080,,,,,0,603,,,,,,,,,,,,,,,,,F,139,circle,1,0,,,,,,,,,,,,,,,,switch,number,numSwt,j,1.1994,noRew,,,,,,0,20,0,20,0,1,,,,,,,,,,,,,,,,,
292966,2022-11-28_14h58.10.853,vts_reward_expectancy_bt,2022.2.4,Win32,60.0276127,Chrome,1920,1080,,,,,0,603,,,,,,,,,,,,,,,,,Y,174,hexagon,1,0,,,,,,,,,,,,,,,,switch,letter,lettSwt,f,0.6827,noRew,,,,,,0,21,0,21,0,1,,,,,,,,,,,,,,,,,
292966,2022-11-28_14h58.10.853,vts_reward_expectancy_bt,2022.2.4,Win32,60.0276127,Chrome,1920,1080,,,,,0,603,,,,,,,,,,,,,,,,,B,181,triangle,0,0,,,,,,,,,,,,,,,,repeat,letter,NA,f,0.8032,noRew,,,,,,0,22,0,22,0,1,,,,,,,,,,,,,,,,,
292966,2022-11-28_14h58.10.853,vts_reward_expectancy_bt,2022.2.4,Win32,60.0276127,Chrome,1920,1080,,,,,0,603,,,,,,,,,,,,,,,,,W,146,star,1,1,,,,,,,,,,,,,,,,repeat,letter,lettRpt,f,1.0442,noRew,,,,,,0,23,0,23,0,1,,,,,,,,,,,,,,,,,
292966,2022-11-28_14h58.10.853,vts_reward_expectancy_bt,2022.2.4,Win32,60.0276127,Chrome,1920,1080,,,,,0,603,,,,,,,,,,,,,,,,,S,146,hexagon,1,0,,,,,,,,,,,,,,,,switch,number,numSwt,j,0.7907,noRew,,,,,,0,24,0,24,0,1,,,,,,,,,,,,,,,,,
292966,2022-11-28_14h58.10.853,vts_reward_expectancy_bt,2022.2.4,Win32,60.0276127,Chrome,1920,1080,,,,,0,603,,,,,,,,,,,,,,,,,F,132,triangle,1,0,,,,,,,,,,,,,,,,switch,letter,lettSwt,d,1.0702,noRew,,,,,,0,25,0,25,0,1,,,,,,,,,,,,,,,,,
292966,2022-11-28_14h58.10.853,vts_reward_expectancy_bt,2022.2.4,Win32,60.0276127,Chrome,1920,1080,,,,,0,603,,,,,,,,,,,,,,,,,Y,167,star,1,0,,,,,,,,,,,,,,,,repeat,letter,lettRpt,f,0.8699,noRew,,,,,,0,26,0,26,0,1,,,,,,,,,,,,,,,,,
292966,2022-11-28_14h58.10.853,vts_reward_expectancy_bt,2022.2.4,Win32,60.0276127,Chrome,1920,1080,,,,,0,603,,,,,,,,,,,,,,,,,D,181,hexagon,1,0,,,,,,,,,,,,,,,,switch,number,numSwt,k,0.8397,noRew,,,,,,0,27,0,27,0,1,,,,,,,,,,,,,,,,,
292966,2022-11-28_14h58.10.853,vts_reward_expectancy_bt,2022.2.4,Win32,60.0276127,Chrome,1920,1080,,,,,0,603,,,,,,,,,,,,,,,,,U,160,hexagon,1,0,,,,,,,,,,,,,,,,switch,letter,lettSwt,f,1.1927,noRew,,,,,,0,28,0,28,0,1,,,,,,,,,,,,,,,,,
292966,2022-11-28_14h58.10.853,vts_reward_expectancy_bt,2022.2.4,Win32,60.0276127,Chrome,1920,1080,,,,,0,603,,,,,,,,,,,,,,,,,Y,167,star,1,0,,,,,,,,,,,,,,,,repeat,letter,lettRpt,f,1.1642,noRew,,,,,,0,29,0,29,0,1,,,,,,,,,,,,,,,,,
292966,2022-11-28_14h58.10.853,vts_reward_expectancy_bt,2022.2.4,Win32,60.0276127,Chrome,1920,1080,,,,,0,603,,,,,,,,,,,,,,,,,B,125,circle,1,0,,,,,,,,,,,,,,,,switch,number,numSwt,j,0.7736,noRew,,,,,,0,30,0,30,0,1,,,,,,,,,,,,,,,,,
292966,2022-11-28_14h58.10.853,vts_reward_expectancy_bt,2022.2.4,Win32,60.0276127,Chrome,1920,1080,,,,,0,603,,,,,,,,,,,,,,,,,S,181,hexagon,1,0,,,,,,,,,,,,,,,,repeat,number,numRpt,k,1.2688,noRew,,,,,,0,31,0,31,0,1,,,,,,,,,,,,,,,,,
292966,2022-11-28_14h58.10.853,vts_reward_expectancy_bt,2022.2.4,Win32,60.0276127,Chrome,1920,1080,,,,,0,603,,,,,,,,,,,,,,,,,S,139,circle,1,0,,,,,,,,,,,,,,,,switch,letter,lettSwt,f,0.6381,noRew,,,,,,0,32,0,32,0,1,,,,,,,,,,,,,,,,,
292966,2022-11-28_14h58.10.853,vts_reward_expectancy_bt,2022.2.4,Win32,60.0276127,Chrome,1920,1080,,,,,0,603,,,,,,,,,,,,,,,,,Y,174,star,1,0,,,,,,,,,,,,,,,,repeat,letter,lettRpt,f,0.9211,noRew,,,,,,0,33,0,33,0,1,,,,,,,,,,,,,,,,,
292966,2022-11-28_14h58.10.853,vts_reward_expectancy_bt,2022.2.4,Win32,60.0276127,Chrome,1920,1080,,,,,0,603,,,,,,,,,,,,,,,,,U,160,circle,1,0,,,,,,,,,,,,,,,,switch,number,numSwt,k,0.9966,noRew,,,,,,0,34,0,34,0,1,,,,,,,,,,,,,,,,,
292966,2022-11-28_14h58.10.853,vts_reward_expectancy_bt,2022.2.4,Win32,60.0276127,Chrome,1920,1080,,,,,0,603,,,,,,,,,,,,,,,,,D,181,hexagon,1,0,,,,,,,,,,,,,,,,switch,letter,lettSwt,d,0.9043,noRew,,,,,,0,35,0,35,0,1,,,,,,,,,,,,,,,,,
292966,2022-11-28_14h58.10.853,vts_reward_expectancy_bt,2022.2.4,Win32,60.0276127,Chrome,1920,1080,,,,,0,603,,,,,,,,,,,,,,,,,W,125,triangle,1,0,,,,,,,,,,,,,,,,repeat,letter,lettRpt,f,0.8862,noRew,,,,,,0,36,0,36,0,1,,,,,,,,,,,,,,,,,
292966,2022-11-28_14h58.10.853,vts_reward_expectancy_bt,2022.2.4,Win32,60.0276127,Chrome,1920,1080,,,,,0,603,,,,,,,,,,,,,,,,,S,167,star,1,0,,,,,,,,,,,,,,,,repeat,letter,lettRpt,f,0.8742,noRew,,,,,,0,37,0,37,0,1,,,,,,,,,,,,,,,,,
292966,2022-11-28_14h58.10.853,vts_reward_expectancy_bt,2022.2.4,Win32,60.0276127,Chrome,1920,1080,,,,,0,603,,,,,,,,,,,,,,,,,Y,181,star,1,0,,,,,,,,,,,,,,,,repeat,letter,lettRpt,f,0.858,noRew,,,,,,0,38,0,38,0,1,,,,,,,,,,,,,,,,,
292966,2022-11-28_14h58.10.853,vts_reward_expectancy_bt,2022.2.4,Win32,60.0276127,Chrome,1920,1080,,,,,0,603,,,,,,,,,,,,,,,,,H,174,circle,1,0,,,,,,,,,,,,,,,,switch,number,numSwt,k,0.8649,noRew,,,,,,0,39,0,39,0,1,,,,,,,,,,,,,,,,,
292966,2022-11-28_14h58.10.853,vts_reward_expectancy_bt,2022.2.4,Win32,60.0276127,Chrome,1920,1080,,,,,0,603,,,,,,,,,,,,,,,,,H,139,circle,1,0,,,,,,,,,,,,,,,,switch,letter,lettSwt,d,1.0549,noRew,,,,,,0,40,0,40,0,1,,,,,,,,,,,,,,,,,
292966,2022-11-28_14h58.10.853,vts_reward_expectancy_bt,2022.2.4,Win32,60.0276127,Chrome,1920,1080,,,,,0,603,,,,,,,,,,,,,,,,,Y,167,hexagon,1,0,,,,,,,,,,,,,,,,repeat,letter,lettRpt,f,0.8148,noRew,,,,,,0,41,0,41,0,1,,,,,,,,,,,,,,,,,
292966,2022-11-28_14h58.10.853,vts_reward_expectancy_bt,2022.2.4,Win32,60.0276127,Chrome,1920,1080,,,,,0,603,,,,,,,,,,,,,,,,,F,174,circle,0,0,,,,,,,,,,,,,,,,repeat,letter,NA,f,0.9096,noRew,,,,,,0,42,0,42,0,1,,,,,,,,,,,,,,,,,
292966,2022-11-28_14h58.10.853,vts_reward_expectancy_bt,2022.2.4,Win32,60.0276127,Chrome,1920,1080,,,,,0,603,,,,,,,,,,,,,,,,,U,181,triangle,1,1,,,,,,,,,,,,,,,,repeat,letter,lettRpt,f,0.7145,noRew,,,,,,0,43,0,43,0,1,,,,,,,,,,,,,,,,,
292966,2022-11-28_14h58.10.853,vts_reward_expectancy_bt,2022.2.4,Win32,60.0276127,Chrome,1920,1080,,,,,0,603,,,,,,,,,,,,,,,,,U,160,star,1,0,,,,,,,,,,,,,,,,switch,number,numSwt,k,0.9318,noRew,,,,,,0,44,0,44,0,1,,,,,,,,,,,,,,,,,
292966,2022-11-28_14h58.10.853,vts_reward_expectancy_bt,2022.2.4,Win32,60.0276127,Chrome,1920,1080,,,,,0,603,,,,,,,,,,,,,,,,,H,174,circle,1,0,,,,,,,,,,,,,,,,repeat,number,numRpt,k,0.566,noRew,,,,,,0,45,0,45,0,1,,,,,,,,,,,,,,,,,
292966,2022-11-28_14h58.10.853,vts_reward_expectancy_bt,2022.2.4,Win32,60.0276127,Chrome,1920,1080,,,,,0,603,,,,,,,,,,,,,,,,,B,125,hexagon,1,0,,,,,,,,,,,,,,,,switch,letter,lettSwt,d,0.8583,noRew,,,,,,0,46,0,46,0,1,,,,,,,,,,,,,,,,,
292966,2022-11-28_14h58.10.853,vts_reward_expectancy_bt,2022.2.4,Win32,60.0276127,Chrome,1920,1080,,,,,0,603,,,,,,,,,,,,,,,,,Y,146,triangle,1,0,,,,,,,,,,,,,,,,repeat,letter,lettRpt,f,0.701,noRew,,,,,,0,47,0,47,0,1,,,,,,,,,,,,,,,,,
292966,2022-11-28_14h58.10.853,vts_reward_expectancy_bt,2022.2.4,Win32,60.0276127,Chrome,1920,1080,,,,,0,603,,,,,,,,,,,,,,,,,Y,181,star,1,0,,,,,,,,,,,,,,,,repeat,letter,lettRpt,f,0.6515,noRew,,,,,,0,48,0,48,0,1,,,,,,,,,,,,,,,,,
292966,2022-11-28_14h58.10.853,vts_reward_expectancy_bt,2022.2.4,Win32,60.0276127,Chrome,1920,1080,,,,,0,603,,,,,,,,,,,,,,,,,S,160,triangle,1,0,,,,,,,,,,,,,,,,repeat,letter,lettRpt,f,1.6649,noRew,,,,,,0,49,0,49,0,1,,,,,,,,,,,,,,,,,
292966,2022-11-28_14h58.10.853,vts_reward_expectancy_bt,2022.2.4,Win32,60.0276127,Chrome,1920,1080,,,,,0,603,,,,,,,,,,,,,,,,,H,139,triangle,1,0,,,,,,,,,,,,,,,,repeat,letter,lettRpt,d,1.6513,noRew,,,,,,0,50,0,50,0,1,,,,,,,,,,,,,,,,,
292966,2022-11-28_14h58.10.853,vts_reward_expectancy_bt,2022.2.4,Win32,60.0276127,Chrome,1920,1080,,,,,0,603,,,,,,,,,,,,,,,,,F,146,star,1,0,,,,,,,,,,,,,,,,repeat,letter,lettRpt,d,0.8352,noRew,,,,,,0,51,0,51,0,1,,,,,,,,,,,,,,,,,
292966,2022-11-28_14h58.10.853,vts_reward_expectancy_bt,2022.2.4,Win32,60.0276127,Chrome,1920,1080,,,,,0,603,,,,,,,,,,,,,,,,,U,125,circle,1,0,,,,,,,,,,,,,,,,switch,number,numSwt,j,0.4677,noRew,,,,,,0,52,0,52,0,1,,,,,,,,,,,,,,,,,
292966,2022-11-28_14h58.10.853,vts_reward_expectancy_bt,2022.2.4,Win32,60.0276127,Chrome,1920,1080,,,,,0,603,,,,,,,,,,,,,,,,,Y,146,star,0,0,,,,,,,,,,,,,,,,repeat,number,NA,k,0.6532,noRew,,,,,,0,53,0,53,0,1,,,,,,,,,,,,,,,,,
292966,2022-11-28_14h58.10.853,vts_reward_expectancy_bt,2022.2.4,Win32,60.0276127,Chrome,1920,1080,,,,,0,603,,,,,,,,,,,,,,,,,W,132,triangle,1,1,,,,,,,,,,,,,,,,repeat,number,numRpt,j,0.9838,noRew,,,,,,0,54,0,54,0,1,,,,,,,,,,,,,,,,,
292966,2022-11-28_14h58.10.853,vts_reward_expectancy_bt,2022.2.4,Win32,60.0276127,Chrome,1920,1080,,,,,0,603,,,,,,,,,,,,,,,,,B,167,star,1,0,,,,,,,,,,,,,,,,switch,letter,lettSwt,d,0.6819,noRew,,,,,,0,55,0,55,0,1,,,,,,,,,,,,,,,,,
292966,2022-11-28_14h58.10.853,vts_reward_expectancy_bt,2022.2.4,Win32,60.0276127,Chrome,1920,1080,,,,,0,603,,,,,,,,,,,,,,,,,W,139,hexagon,0,0,,,,,,,,,,,,,,,,repeat,letter,NA,d,0.6154,noRew,,,,,,0,56,0,56,0,1,,,,,,,,,,,,,,,,,
292966,2022-11-28_14h58.10.853,vts_reward_expectancy_bt,2022.2.4,Win32,60.0276127,Chrome,1920,1080,,,,,0,603,,,,,,,,,,,,,,,,,S,174,circle,1,1,,,,,,,,,,,,,,,,repeat,letter,lettRpt,f,0.8919,noRew,,,,,,0,57,0,57,0,1,,,,,,,,,,,,,,,,,
292966,2022-11-28_14h58.10.853,vts_reward_expectancy_bt,2022.2.4,Win32,60.0276127,Chrome,1920,1080,,,,,0,603,,,,,,,,,,,,,,,,,Y,167,star,1,0,,,,,,,,,,,,,,,,repeat,letter,lettRpt,f,0.7933,noRew,,,,,,0,58,0,58,0,1,,,,,,,,,,,,,,,,,
292966,2022-11-28_14h58.10.853,vts_reward_expectancy_bt,2022.2.4,Win32,60.0276127,Chrome,1920,1080,,,,,0,603,,,,,,,,,,,,,,,,,D,146,circle,1,0,,,,,,,,,,,,,,,,repeat,letter,lettRpt,d,0.9836,noRew,,,,,,0,59,0,59,0,1,,,,,,,,,,,,,,,,,
292966,2022-11-28_14h58.10.853,vts_reward_expectancy_bt,2022.2.4,Win32,60.0276127,Chrome,1920,1080,,,,,0,603,,,,,,,,,,,,,,,,,U,160,hexagon,1,0,,,,,,,,,,,,,,,,repeat,letter,lettRpt,f,0.7511,noRew,,,,,,0,60,0,60,0,1,,,,,,,,,,,,,,,,,
292966,2022-11-28_14h58.10.853,vts_reward_expectancy_bt,2022.2.4,Win32,60.0276127,Chrome,1920,1080,,,,,0,603,,,,,,,,,,,,,,,,,H,139,circle,1,0,,,,,,,,,,,,,,,,repeat,letter,lettRpt,d,0.8812,noRew,,,,,,0,61,0,61,0,1,,,,,,,,,,,,,,,,,
292966,2022-11-28_14h58.10.853,vts_reward_expectancy_bt,2022.2.4,Win32,60.0276127,Chrome,1920,1080,,,,,0,603,,,,,,,,,,,,,,,,,S,181,circle,1,0,,,,,,,,,,,,,,,,switch,number,numSwt,k,0.8428,noRew,,,,,,0,62,0,62,0,1,,,,,,,,,,,,,,,,,
292966,2022-11-28_14h58.10.853,vts_reward_expectancy_bt,2022.2.4,Win32,60.0276127,Chrome,1920,1080,,,,,0,603,,,,,,,,,,,,,,,,,F,125,star,1,0,,,,,,,,,,,,,,,,repeat,number,numRpt,j,0.7196,noRew,,,,,,0,63,0,63,0,1,,,,,,,,,,,,,,,,,
292966,2022-11-28_14h58.10.853,vts_reward_expectancy_bt,2022.2.4,Win32,60.0276127,Chrome,1920,1080,,,,,,,,,,,,,,,,,,,,,,,,,,,,,,,,,,,,,,,,,,,,,,,,,,,,,,,,,,,,,,,,,,,,,,,,,,,,
292966,2022-11-28_14h58.10.853,vts_reward_expectancy_bt,2022.2.4,Win32,60.0276127,Chrome,1920,1080,,,,,0,603,,,,,,,,,,,,,,,,,Y,125,hexagon,1,0,,,,,,,,,,,,,,,,switch,letter,lettSwt,f,1.1015,Hi,,,,,,0,,,,,,space,6.7525,low,0,0,0,0,1,,,,,,,,,
292966,2022-11-28_14h58.10.853,vts_reward_expectancy_bt,2022.2.4,Win32,60.0276127,Chrome,1920,1080,,,,,10,613,,,,,,,,,,,,,,,,,W,160,star,1,0,,,,,,,,,,,,,,,,repeat,letter,lettRpt,f,0.5894,Lo,,,,,,0,,,,,,,,low,1,0,1,0,1,,,,,,,,,
292966,2022-11-28_14h58.10.853,vts_reward_expectancy_bt,2022.2.4,Win32,60.0276127,Chrome,1920,1080,,,,,1,614,,,,,,,,,,,,,,,,,B,132,triangle,1,0,,,,,,,,,,,,,,,,repeat,letter,lettRpt,d,0.7445,Hi,,,,,,0,,,,,,,,low,2,0,2,0,1,,,,,,,,,
292966,2022-11-28_14h58.10.853,vts_reward_expectancy_bt,2022.2.4,Win32,60.0276127,Chrome,1920,1080,,,,,10,624,,,,,,,,,,,,,,,,,F,181,circle,1,0,,,,,,,,,,,,,,,,switch,number,numSwt,k,0.7172,Lo,,,,,,0,,,,,,,,low,3,0,3,0,1,,,,,,,,,
292966,2022-11-28_14h58.10.853,vts_reward_expectancy_bt,2022.2.4,Win32,60.0276127,Chrome,1920,1080,,,,,0,624,,,,,,,,,,,,,,,,,U,139,hexagon,0,0,,,,,,,,,,,,,,,,repeat,number,NA,k,0.5658,Lo,,,,,,0,,,,,,,,low,4,0,4,0,1,,,,,,,,,
292966,2022-11-28_14h58.10.853,vts_reward_expectancy_bt,2022.2.4,Win32,60.0276127,Chrome,1920,1080,,,,,1,625,,,,,,,,,,,,,,,,,H,174,star,1,1,,,,,,,,,,,,,,,,switch,letter,lettSwt,d,0.8468,Lo,,,,,,0,,,,,,,,low,5,0,5,0,1,,,,,,,,,
292966,2022-11-28_14h58.10.853,vts_reward_expectancy_bt,2022.2.4,Win32,60.0276127,Chrome,1920,1080,,,,,1,626,,,,,,,,,,,,,,,,,S,146,triangle,1,0,,,,,,,,,,,,,,,,switch,number,numSwt,j,0.7055,Hi,,,,,,0,,,,,,,,low,6,0,6,0,1,,,,,,,,,
292966,2022-11-28_14h58.10.853,vts_reward_expectancy_bt,2022.2.4,Win32,60.0276127,Chrome,1920,1080,,,,,1,627,,,,,,,,,,,,,,,,,D,167,circle,1,0,,,,,,,,,,,,,,,,repeat,number,numRpt,k,0.7063,Lo,,,,,,0,,,,,,,,low,7,0,7,0,1,,,,,,,,,
292966,2022-11-28_14h58.10.853,vts_reward_expectancy_bt,2022.2.4,Win32,60.0276127,Chrome,1920,1080,,,,,10,637,,,,,,,,,,,,,,,,,Y,125,triangle,1,0,,,,,,,,,,,,,,,,switch,letter,lettSwt,f,0.7903,Hi,,,,,,0,,,,,,,,low,8,0,8,0,1,,,,,,,,,
292966,2022-11-28_14h58.10.853,vts_reward_expectancy_bt,2022.2.4,Win32,60.0276127,Chrome,1920,1080,,,,,10,647,,,,,,,,,,,,,,,,,W,160,star,1,0,,,,,,,,,,,,,,,,switch,number,numSwt,k,0.8238,Lo,,,,,,0,,,,,,,,low,9,0,9,0,1,,,,,,,,,
292966,2022-11-28_14h58.10.853,vts_reward_expectancy_bt,2022.2.4,Win32,60.0276127,Chrome,1920,1080,,,,,10,657,,,,,,,,,,,,,,,,,B,132,circle,1,0,,,,,,,,,,,,,,,,repeat,number,numRpt,j,0.6285,Lo,,,,,,0,,,,,,,,low,10,0,10,0,1,,,,,,,,,
292966,2022-11-28_14h58.10.853,vts_reward_expectancy_bt,2022.2.4,Win32,60.0276127,Chrome,1920,1080,,,,,10,667,,,,,,,,,,,,,,,,,F,181,hexagon,1,0,,,,,,,,,,,,,,,,repeat,number,numRpt,k,0.8674,Hi,,,,,,0,,,,,,,,low,11,0,11,0,1,,,,,,,,,
292966,2022-11-28_14h58.10.853,vts_reward_expectancy_bt,2022.2.4,Win32,60.0276127,Chrome,1920,1080,,,,,1,668,,,,,,,,,,,,,,,,,U,139,circle,1,0,,,,,,,,,,,,,,,,repeat,number,numRpt,j,0.7623,Lo,,,,,,0,,,,,,,,low,12,0,12,0,1,,,,,,,,,
292966,2022-11-28_14h58.10.853,vts_reward_expectancy_bt,2022.2.4,Win32,60.0276127,Chrome,1920,1080,,,,,10,678,,,,,,,,,,,,,,,,,H,174,star,1,0,,,,,,,,,,,,,,,,switch,letter,lettSwt,d,0.9168,Lo,,,,,,0,,,,,,,,low,13,0,13,0,1,,,,,,,,,
292966,2022-11-28_14h58.10.853,vts_reward_expectancy_bt,2022.2.4,Win32,60.0276127,Chrome,1920,1080,,,,,0,678,,,,,,,,,,,,,,,,,S,146,hexagon,1,0,,,,,,,,,,,,,,,,repeat,letter,lettRpt,f,0.8707,Hi,,,,,,0,,,,,,,,low,14,0,14,0,1,,,,,,,,,
292966,2022-11-28_14h58.10.853,vts_reward_expectancy_bt,2022.2.4,Win32,60.0276127,Chrome,1920,1080,,,,,0,678,,,,,,,,,,,,,,,,,D,167,triangle,1,0,,,,,,,,,,,,,,,,repeat,letter,lettRpt,d,0.923,Hi,,,,,,0,,,,,,,,low,15,0,15,0,1,,,,,,,,,
292966,2022-11-28_14h58.10.853,vts_reward_expectancy_bt,2022.2.4,Win32,60.0276127,Chrome,1920,1080,,,,,1,679,,,,,,,,,,,,,,,,,H,125,triangle,1,0,,,,,,,,,,,,,,,,switch,number,numSwt,j,0.7922,Hi,,,,,,0,,,,,,,,low,16,0,16,0,1,,,,,,,,,
292966,2022-11-28_14h58.10.853,vts_reward_expectancy_bt,2022.2.4,Win32,60.0276127,Chrome,1920,1080,,,,,1,680,,,,,,,,,,,,,,,,,F,139,circle,1,0,,,,,,,,,,,,,,,,repeat,number,numRpt,j,0.6251,Lo,,,,,,0,,,,,,,,low,17,0,17,0,1,,,,,,,,,
292966,2022-11-28_14h58.10.853,vts_reward_expectancy_bt,2022.2.4,Win32,60.0276127,Chrome,1920,1080,,,,,10,690,,,,,,,,,,,,,,,,,U,132,hexagon,1,0,,,,,,,,,,,,,,,,switch,letter,lettSwt,f,0.5711,Hi,,,,,,0,,,,,,,,low,18,0,18,0,1,,,,,,,,,
292966,2022-11-28_14h58.10.853,vts_reward_expectancy_bt,2022.2.4,Win32,60.0276127,Chrome,1920,1080,,,,,1,691,,,,,,,,,,,,,,,,,B,181,star,1,0,,,,,,,,,,,,,,,,repeat,letter,lettRpt,d,0.5107,Lo,,,,,,0,,,,,,,,low,19,0,19,0,1,,,,,,,,,
292966,2022-11-28_14h58.10.853,vts_reward_expectancy_bt,2022.2.4,Win32,60.0276127,Chrome,1920,1080,,,,,0,691,,,,,,,,,,,,,,,,,D,167,circle,0,0,,,,,,,,,,,,,,,,repeat,letter,NA,f,0.6172,Lo,,,,,,0,,,,,,,,low,20,0,20,0,1,,,,,,,,,
292966,2022-11-28_14h58.10.853,vts_reward_expectancy_bt,2022.2.4,Win32,60.0276127,Chrome,1920,1080,,,,,10,701,,,,,,,,,,,,,,,,,S,146,hexagon,1,1,,,,,,,,,,,,,,,,repeat,letter,lettRpt,f,0.7057,Hi,,,,,,0,,,,,,,,low,21,0,21,0,1,,,,,,,,,
292966,2022-11-28_14h58.10.853,vts_reward_expectancy_bt,2022.2.4,Win32,60.0276127,Chrome,1920,1080,,,,,0,701,,,,,,,,,,,,,,,,,W,174,triangle,0,0,,,,,,,,,,,,,,,,repeat,letter,NA,d,0.7413,Hi,,,,,,0,,,,,,,,low,22,0,22,0,1,,,,,,,,,
292966,2022-11-28_14h58.10.853,vts_reward_expectancy_bt,2022.2.4,Win32,60.0276127,Chrome,1920,1080,,,,,1,702,,,,,,,,,,,,,,,,,Y,160,star,1,1,,,,,,,,,,,,,,,,switch,number,numSwt,k,0.8007,Lo,,,,,,0,,,,,,,,low,23,0,23,0,1,,,,,,,,,
292966,2022-11-28_14h58.10.853,vts_reward_expectancy_bt,2022.2.4,Win32,60.0276127,Chrome,1920,1080,,,,,0,702,,,,,,,,,,,,,,,,,H,160,star,0,0,,,,,,,,,,,,,,,,switch,letter,NA,f,0.9884,Lo,,,,,,0,,,,,,,,low,24,0,24,0,1,,,,,,,,,
292966,2022-11-28_14h58.10.853,vts_reward_expectancy_bt,2022.2.4,Win32,60.0276127,Chrome,1920,1080,,,,,10,712,,,,,,,,,,,,,,,,,W,139,circle,1,1,,,,,,,,,,,,,,,,switch,number,numSwt,j,0.8769,Lo,,,,,,0,,,,,,,,low,25,0,25,0,1,,,,,,,,,
292966,2022-11-28_14h58.10.853,vts_reward_expectancy_bt,2022.2.4,Win32,60.0276127,Chrome,1920,1080,,,,,10,722,,,,,,,,,,,,,,,,,B,181,hexagon,1,0,,,,,,,,,,,,,,,,repeat,number,numRpt,k,0.9206,Hi,,,,,,0,,,,,,,,low,26,0,26,0,1,,,,,,,,,
292966,2022-11-28_14h58.10.853,vts_reward_expectancy_bt,2022.2.4,Win32,60.0276127,Chrome,1920,1080,,,,,0,722,,,,,,,,,,,,,,,,,D,174,triangle,0,0,,,,,,,,,,,,,,,,repeat,number,NA,j,1.6657,Hi,,,,,,0,,,,,,,,low,27,0,27,0,1,,,,,,,,,
292966,2022-11-28_14h58.10.853,vts_reward_expectancy_bt,2022.2.4,Win32,60.0276127,Chrome,1920,1080,,,,,10,732,,,,,,,,,,,,,,,,,F,132,circle,1,1,,,,,,,,,,,,,,,,repeat,number,numRpt,j,1.7178,Lo,,,,,,0,,,,,,,,low,28,0,28,0,1,,,,,,,,,
292966,2022-11-28_14h58.10.853,vts_reward_expectancy_bt,2022.2.4,Win32,60.0276127,Chrome,1920,1080,,,,,0,732,,,,,,,,,,,,,,,,,S,146,hexagon,1,0,,,,,,,,,,,,,,,,repeat,number,numRpt,j,1.0046,Hi,,,,,,0,,,,,,,,low,29,0,29,0,1,,,,,,,,,
292966,2022-11-28_14h58.10.853,vts_reward_expectancy_bt,2022.2.4,Win32,60.0276127,Chrome,1920,1080,,,,,0,732,,,,,,,,,,,,,,,,,U,167,star,0,0,,,,,,,,,,,,,,,,repeat,number,NA,j,1.1181,Hi,,,,,,0,,,,,,,,low,30,0,30,0,1,,,,,,,,,
292966,2022-11-28_14h58.10.853,vts_reward_expectancy_bt,2022.2.4,Win32,60.0276127,Chrome,1920,1080,,,,,0,732,,,,,,,,,,,,,,,,,Y,125,triangle,1,1,,,,,,,,,,,,,,,,repeat,number,numRpt,j,1.0159,Hi,,,,,,0,,,,,,,,low,31,0,31,0,1,,,,,,,,,
292966,2022-11-28_14h58.10.853,vts_reward_expectancy_bt,2022.2.4,Win32,60.0276127,Chrome,1920,1080,,,,,1,733,,,,,,,,,,,,,,,,,F,146,circle,1,0,,,,,,,,,,,,,,,,switch,letter,lettSwt,d,0.8167,Lo,,,,,,1,,,,,,space,1.5378,low,0,0,0,0,1,,,,,,,,,
292966,2022-11-28_14h58.10.853,vts_reward_expectancy_bt,2022.2.4,Win32,60.0276127,Chrome,1920,1080,,,,,0,733,,,,,,,,,,,,,,,,,W,181,triangle,0,0,,,,,,,,,,,,,,,,switch,number,NA,j,0.9036,Lo,,,,,,1,,,,,,,,low,1,0,1,0,1,,,,,,,,,
292966,2022-11-28_14h58.10.853,vts_reward_expectancy_bt,2022.2.4,Win32,60.0276127,Chrome,1920,1080,,,,,0,733,,,,,,,,,,,,,,,,,S,160,hexagon,1,1,,,,,,,,,,,,,,,,repeat,number,numRpt,k,0.7715,Hi,,,,,,1,,,,,,,,low,2,0,2,0,1,,,,,,,,,
292966,2022-11-28_14h58.10.853,vts_reward_expectancy_bt,2022.2.4,Win32,60.0276127,Chrome,1920,1080,,,,,10,743,,,,,,,,,,,,,,,,,H,174,star,1,0,,,,,,,,,,,,,,,,repeat,number,numRpt,k,0.5048,Lo,,,,,,1,,,,,,,,low,3,0,3,0,1,,,,,,,,,
292966,2022-11-28_14h58.10.853,vts_reward_expectancy_bt,2022.2.4,Win32,60.0276127,Chrome,1920,1080,,,,,1,744,,,,,,,,,,,,,,,,,B,167,circle,1,0,,,,,,,,,,,,,,,,switch,letter,lettSwt,d,0.7457,Lo,,,,,,1,,,,,,,,low,4,0,4,0,1,,,,,,,,,
292966,2022-11-28_14h58.10.853,vts_reward_expectancy_bt,2022.2.4,Win32,60.0276127,Chrome,1920,1080,,,,,0,744,,,,,,,,,,,,,,,,,Y,132,triangle,1,0,,,,,,,,,,,,,,,,repeat,letter,lettRpt,f,0.8833,Hi,,,,,,1,,,,,,,,low,5,0,5,0,1,,,,,,,,,
292966,2022-11-28_14h58.10.853,vts_reward_expectancy_bt,2022.2.4,Win32,60.0276127,Chrome,1920,1080,,,,,0,744,,,,,,,,,,,,,,,,,D,139,hexagon,0,0,,,,,,,,,,,,,,,,switch,number,NA,k,0.6907,Hi,,,,,,1,,,,,,,,low,6,0,6,0,1,,,,,,,,,
292966,2022-11-28_14h58.10.853,vts_reward_expectancy_bt,2022.2.4,Win32,60.0276127,Chrome,1920,1080,,,,,10,754,,,,,,,,,,,,,,,,,U,125,star,1,1,,,,,,,,,,,,,,,,repeat,number,numRpt,j,0.701,Lo,,,,,,1,,,,,,,,low,7,0,7,0,1,,,,,,,,,
292966,2022-11-28_14h58.10.853,vts_reward_expectancy_bt,2022.2.4,Win32,60.0276127,Chrome,1920,1080,,,,,0,754,,,,,,,,,,,,,,,,,F,146,triangle,1,0,,,,,,,,,,,,,,,,repeat,number,numRpt,j,0.7999,Hi,,,,,,1,,,,,,,,low,8,0,8,0,1,,,,,,,,,
292966,2022-11-28_14h58.10.853,vts_reward_expectancy_bt,2022.2.4,Win32,60.0276127,Chrome,1920,1080,,,,,0,754,,,,,,,,,,,,,,,,,W,181,star,0,0,,,,,,,,,,,,,,,,repeat,number,NA,j,0.5759,Hi,,,,,,1,,,,,,,,low,9,0,9,0,1,,,,,,,,,
292966,2022-11-28_14h58.10.853,vts_reward_expectancy_bt,2022.2.4,Win32,60.0276127,Chrome,1920,1080,,,,,10,764,,,,,,,,,,,,,,,,,S,160,hexagon,1,1,,,,,,,,,,,,,,,,repeat,number,numRpt,k,0.5531,Hi,,,,,,1,,,,,,,,low,10,0,10,0,1,,,,,,,,,
292966,2022-11-28_14h58.10.853,vts_reward_expectancy_bt,2022.2.4,Win32,60.0276127,Chrome,1920,1080,,,,,1,765,,,,,,,,,,,,,,,,,H,174,circle,1,0,,,,,,,,,,,,,,,,switch,letter,lettSwt,d,0.6461,Lo,,,,,,1,,,,,,,,low,11,0,11,0,1,,,,,,,,,
292966,2022-11-28_14h58.10.853,vts_reward_expectancy_bt,2022.2.4,Win32,60.0276127,Chrome,1920,1080,,,,,0,765,,,,,,,,,,,,,,,,,B,167,triangle,1,0,,,,,,,,,,,,,,,,switch,number,numSwt,k,0.9128,Hi,,,,,,1,,,,,,,,low,12,0,12,0,1,,,,,,,,,
292966,2022-11-28_14h58.10.853,vts_reward_expectancy_bt,2022.2.4,Win32,60.0276127,Chrome,1920,1080,,,,,10,775,,,,,,,,,,,,,,,,,Y,132,star,1,0,,,,,,,,,,,,,,,,repeat,number,numRpt,j,0.7436,Lo,,,,,,1,,,,,,,,low,13,0,13,0,1,,,,,,,,,
292966,2022-11-28_14h58.10.853,vts_reward_expectancy_bt,2022.2.4,Win32,60.0276127,Chrome,1920,1080,,,,,10,785,,,,,,,,,,,,,,,,,D,139,circle,1,0,,,,,,,,,,,,,,,,repeat,number,numRpt,j,0.7674,Lo,,,,,,1,,,,,,,,low,14,0,14,0,1,,,,,,,,,
292966,2022-11-28_14h58.10.853,vts_reward_expectancy_bt,2022.2.4,Win32,60.0276127,Chrome,1920,1080,,,,,10,795,,,,,,,,,,,,,,,,,U,125,hexagon,1,0,,,,,,,,,,,,,,,,repeat,number,numRpt,j,0.5299,Hi,,,,,,1,,,,,,,,low,15,0,15,0,1,,,,,,,,,
292966,2022-11-28_14h58.10.853,vts_reward_expectancy_bt,2022.2.4,Win32,60.0276127,Chrome,1920,1080,,,,,1,796,,,,,,,,,,,,,,,,,F,132,circle,1,0,,,,,,,,,,,,,,,,repeat,number,numRpt,j,0.5013,Lo,,,,,,1,,,,,,,,low,16,0,16,0,1,,,,,,,,,
292966,2022-11-28_14h58.10.853,vts_reward_expectancy_bt,2022.2.4,Win32,60.0276127,Chrome,1920,1080,,,,,1,797,,,,,,,,,,,,,,,,,D,167,star,1,0,,,,,,,,,,,,,,,,repeat,number,numRpt,k,0.755,Lo,,,,,,1,,,,,,,,low,17,0,17,0,1,,,,,,,,,
292966,2022-11-28_14h58.10.853,vts_reward_expectancy_bt,2022.2.4,Win32,60.0276127,Chrome,1920,1080,,,,,0,797,,,,,,,,,,,,,,,,,B,125,triangle,1,0,,,,,,,,,,,,,,,,repeat,number,numRpt,j,0.7456,Hi,,,,,,1,,,,,,,,low,18,0,18,0,1,,,,,,,,,
292966,2022-11-28_14h58.10.853,vts_reward_expectancy_bt,2022.2.4,Win32,60.0276127,Chrome,1920,1080,,,,,10,807,,,,,,,,,,,,,,,,,H,181,hexagon,1,0,,,,,,,,,,,,,,,,repeat,number,numRpt,k,0.5801,Hi,,,,,,1,,,,,,,,low,19,0,19,0,1,,,,,,,,,
292966,2022-11-28_14h58.10.853,vts_reward_expectancy_bt,2022.2.4,Win32,60.0276127,Chrome,1920,1080,,,,,10,817,,,,,,,,,,,,,,,,,W,174,hexagon,1,0,,,,,,,,,,,,,,,,repeat,number,numRpt,k,0.6037,Hi,,,,,,1,,,,,,,,low,20,0,20,0,1,,,,,,,,,
292966,2022-11-28_14h58.10.853,vts_reward_expectancy_bt,2022.2.4,Win32,60.0276127,Chrome,1920,1080,,,,,10,827,,,,,,,,,,,,,,,,,S,160,circle,1,0,,,,,,,,,,,,,,,,repeat,number,numRpt,k,0.5927,Lo,,,,,,1,,,,,,,,low,21,0,21,0,1,,,,,,,,,
292966,2022-11-28_14h58.10.853,vts_reward_expectancy_bt,2022.2.4,Win32,60.0276127,Chrome,1920,1080,,,,,0,827,,,,,,,,,,,,,,,,,U,146,triangle,0,0,,,,,,,,,,,,,,,,repeat,number,NA,k,0.4914,Lo,,,,,,1,,,,,,,,low,22,0,22,0,1,,,,,,,,,
292966,2022-11-28_14h58.10.853,vts_reward_expectancy_bt,2022.2.4,Win32,60.0276127,Chrome,1920,1080,,,,,1,828,,,,,,,,,,,,,,,,,Y,139,star,1,1,,,,,,,,,,,,,,,,repeat,number,numRpt,j,0.7755,Lo,,,,,,1,,,,,,,,low,23,0,23,0,1,,,,,,,,,
292966,2022-11-28_14h58.10.853,vts_reward_expectancy_bt,2022.2.4,Win32,60.0276127,Chrome,1920,1080,,,,,10,838,,,,,,,,,,,,,,,,,H,132,circle,1,0,,,,,,,,,,,,,,,,repeat,number,numRpt,j,0.6691,Lo,,,,,,1,,,,,,,,low,24,0,24,0,1,,,,,,,,,
292966,2022-11-28_14h58.10.853,vts_reward_expectancy_bt,2022.2.4,Win32,60.0276127,Chrome,1920,1080,,,,,10,848,,,,,,,,,,,,,,,,,Y,125,hexagon,1,0,,,,,,,,,,,,,,,,repeat,number,numRpt,j,0.5629,Hi,,,,,,1,,,,,,,,low,25,0,25,0,1,,,,,,,,,
292966,2022-11-28_14h58.10.853,vts_reward_expectancy_bt,2022.2.4,Win32,60.0276127,Chrome,1920,1080,,,,,10,858,,,,,,,,,,,,,,,,,U,167,triangle,1,0,,,,,,,,,,,,,,,,repeat,number,numRpt,k,0.6629,Hi,,,,,,1,,,,,,,,low,26,0,26,0,1,,,,,,,,,
292966,2022-11-28_14h58.10.853,vts_reward_expectancy_bt,2022.2.4,Win32,60.0276127,Chrome,1920,1080,,,,,10,868,,,,,,,,,,,,,,,,,D,181,star,1,0,,,,,,,,,,,,,,,,repeat,number,numRpt,k,0.7015,Lo,,,,,,1,,,,,,,,low,27,0,27,0,1,,,,,,,,,
292966,2022-11-28_14h58.10.853,vts_reward_expectancy_bt,2022.2.4,Win32,60.0276127,Chrome,1920,1080,,,,,10,878,,,,,,,,,,,,,,,,,B,160,star,1,0,,,,,,,,,,,,,,,,repeat,number,numRpt,k,0.8357,Lo,,,,,,1,,,,,,,,low,28,0,28,0,1,,,,,,,,,
292966,2022-11-28_14h58.10.853,vts_reward_expectancy_bt,2022.2.4,Win32,60.0276127,Chrome,1920,1080,,,,,1,879,,,,,,,,,,,,,,,,,S,174,circle,1,0,,,,,,,,,,,,,,,,repeat,number,numRpt,k,0.7303,Lo,,,,,,1,,,,,,,,low,29,0,29,0,1,,,,,,,,,
292966,2022-11-28_14h58.10.853,vts_reward_expectancy_bt,2022.2.4,Win32,60.0276127,Chrome,1920,1080,,,,,0,879,,,,,,,,,,,,,,,,,W,146,hexagon,1,0,,,,,,,,,,,,,,,,repeat,number,numRpt,j,0.7945,Hi,,,,,,1,,,,,,,,low,30,0,30,0,1,,,,,,,,,
292966,2022-11-28_14h58.10.853,vts_reward_expectancy_bt,2022.2.4,Win32,60.0276127,Chrome,1920,1080,,,,,0,879,,,,,,,,,,,,,,,,,F,139,triangle,1,0,,,,,,,,,,,,,,,,repeat,number,numRpt,j,0.9177,Hi,,,,,,1,,,,,,,,low,31,0,31,0,1,,,,,,,,,
292966,2022-11-28_14h58.10.853,vts_reward_expectancy_bt,2022.2.4,Win32,60.0276127,Chrome,1920,1080,,,,,1,880,,,,,,,,,,,,,,,,,S,160,star,1,0,,,,,,,,,,,,,,,,repeat,number,numRpt,k,0.804,Lo,,,,,,2,,,,,,space,1.2108,low,0,0,0,0,1,,,,,,,,,
292966,2022-11-28_14h58.10.853,vts_reward_expectancy_bt,2022.2.4,Win32,60.0276127,Chrome,1920,1080,,,,,1,881,,,,,,,,,,,,,,,,,B,181,circle,1,0,,,,,,,,,,,,,,,,repeat,number,numRpt,k,0.6459,Lo,,,,,,2,,,,,,,,low,1,0,1,0,1,,,,,,,,,
292966,2022-11-28_14h58.10.853,vts_reward_expectancy_bt,2022.2.4,Win32,60.0276127,Chrome,1920,1080,,,,,10,891,,,,,,,,,,,,,,,,,F,174,hexagon,1,0,,,,,,,,,,,,,,,,repeat,number,numRpt,k,0.547,Hi,,,,,,2,,,,,,,,low,2,0,2,0,1,,,,,,,,,
292966,2022-11-28_14h58.10.853,vts_reward_expectancy_bt,2022.2.4,Win32,60.0276127,Chrome,1920,1080,,,,,10,901,,,,,,,,,,,,,,,,,W,167,triangle,1,0,,,,,,,,,,,,,,,,repeat,number,numRpt,k,0.619,Hi,,,,,,2,,,,,,,,low,3,0,3,0,1,,,,,,,,,
292966,2022-11-28_14h58.10.853,vts_reward_expectancy_bt,2022.2.4,Win32,60.0276127,Chrome,1920,1080,,,,,1,902,,,,,,,,,,,,,,,,,Y,132,star,1,0,,,,,,,,,,,,,,,,repeat,number,numRpt,j,0.6638,Lo,,,,,,2,,,,,,,,low,4,0,4,0,1,,,,,,,,,
292966,2022-11-28_14h58.10.853,vts_reward_expectancy_bt,2022.2.4,Win32,60.0276127,Chrome,1920,1080,,,,,1,903,,,,,,,,,,,,,,,,,U,125,circle,1,0,,,,,,,,,,,,,,,,repeat,number,numRpt,j,0.8684,Lo,,,,,,2,,,,,,,,low,5,0,5,0,1,,,,,,,,,
292966,2022-11-28_14h58.10.853,vts_reward_expectancy_bt,2022.2.4,Win32,60.0276127,Chrome,1920,1080,,,,,0,903,,,,,,,,,,,,,,,,,H,146,hexagon,0,0,,,,,,,,,,,,,,,,repeat,number,NA,k,0.4733,Lo,,,,,,2,,,,,,,,low,6,0,6,0,1,,,,,,,,,
292966,2022-11-28_14h58.10.853,vts_reward_expectancy_bt,2022.2.4,Win32,60.0276127,Chrome,1920,1080,,,,,10,913,,,,,,,,,,,,,,,,,D,139,triangle,1,1,,,,,,,,,,,,,,,,repeat,number,numRpt,j,0.5211,Hi,,,,,,2,,,,,,,,low,7,0,7,0,1,,,,,,,,,
292966,2022-11-28_14h58.10.853,vts_reward_expectancy_bt,2022.2.4,Win32,60.0276127,Chrome,1920,1080,,,,,0,913,,,,,,,,,,,,,,,,,S,160,circle,0,0,,,,,,,,,,,,,,,,repeat,number,NA,j,0.5039,Hi,,,,,,2,,,,,,,,low,8,0,8,0,1,,,,,,,,,
292966,2022-11-28_14h58.10.853,vts_reward_expectancy_bt,2022.2.4,Win32,60.0276127,Chrome,1920,1080,,,,,1,914,,,,,,,,,,,,,,,,,B,181,star,1,1,,,,,,,,,,,,,,,,repeat,number,numRpt,k,0.6737,Lo,,,,,,2,,,,,,,,low,9,0,9,0,1,,,,,,,,,
292966,2022-11-28_14h58.10.853,vts_reward_expectancy_bt,2022.2.4,Win32,60.0276127,Chrome,1920,1080,,,,,10,924,,,,,,,,,,,,,,,,,F,174,triangle,1,0,,,,,,,,,,,,,,,,repeat,number,numRpt,k,0.5838,Hi,,,,,,2,,,,,,,,low,10,0,10,0,1,,,,,,,,,
292966,2022-11-28_14h58.10.853,vts_reward_expectancy_bt,2022.2.4,Win32,60.0276127,Chrome,1920,1080,,,,,10,934,,,,,,,,,,,,,,,,,W,167,hexagon,1,0,,,,,,,,,,,,,,,,repeat,number,numRpt,k,0.5182,Hi,,,,,,2,,,,,,,,low,11,0,11,0,1,,,,,,,,,
292966,2022-11-28_14h58.10.853,vts_reward_expectancy_bt,2022.2.4,Win32,60.0276127,Chrome,1920,1080,,,,,1,935,,,,,,,,,,,,,,,,,Y,132,hexagon,1,0,,,,,,,,,,,,,,,,repeat,number,numRpt,j,0.6187,Hi,,,,,,2,,,,,,,,low,12,0,12,0,1,,,,,,,,,
292966,2022-11-28_14h58.10.853,vts_reward_expectancy_bt,2022.2.4,Win32,60.0276127,Chrome,1920,1080,,,,,10,945,,,,,,,,,,,,,,,,,U,125,star,1,0,,,,,,,,,,,,,,,,repeat,number,numRpt,j,0.6239,Lo,,,,,,2,,,,,,,,low,13,0,13,0,1,,,,,,,,,
292966,2022-11-28_14h58.10.853,vts_reward_expectancy_bt,2022.2.4,Win32,60.0276127,Chrome,1920,1080,,,,,1,946,,,,,,,,,,,,,,,,,H,146,circle,1,0,,,,,,,,,,,,,,,,repeat,number,numRpt,j,0.7633,Lo,,,,,,2,,,,,,,,low,14,0,14,0,1,,,,,,,,,
292966,2022-11-28_14h58.10.853,vts_reward_expectancy_bt,2022.2.4,Win32,60.0276127,Chrome,1920,1080,,,,,0,946,,,,,,,,,,,,,,,,,D,139,triangle,1,0,,,,,,,,,,,,,,,,repeat,number,numRpt,j,0.7012,Hi,,,,,,2,,,,,,,,low,15,0,15,0,1,,,,,,,,,
292966,2022-11-28_14h58.10.853,vts_reward_expectancy_bt,2022.2.4,Win32,60.0276127,Chrome,1920,1080,,,,,0,946,,,,,,,,,,,,,,,,,Y,167,circle,0,0,,,,,,,,,,,,,,,,repeat,number,NA,j,0.4184,Hi,,,,,,2,,,,,,,,low,16,0,16,0,1,,,,,,,,,
292966,2022-11-28_14h58.10.853,vts_reward_expectancy_bt,2022.2.4,Win32,60.0276127,Chrome,1920,1080,,,,,0,946,,,,,,,,,,,,,,,,,S,139,hexagon,1,1,,,,,,,,,,,,,,,,repeat,number,numRpt,j,0.7562,Hi,,,,,,2,,,,,,,,low,17,0,17,0,1,,,,,,,,,
292966,2022-11-28_14h58.10.853,vts_reward_expectancy_bt,2022.2.4,Win32,60.0276127,Chrome,1920,1080,,,,,10,956,,,,,,,,,,,,,,,,,B,160,star,1,0,,,,,,,,,,,,,,,,repeat,number,numRpt,k,0.5719,Lo,,,,,,2,,,,,,,,low,18,0,18,0,1,,,,,,,,,
292966,2022-11-28_14h58.10.853,vts_reward_expectancy_bt,2022.2.4,Win32,60.0276127,Chrome,1920,1080,,,,,1,957,,,,,,,,,,,,,,,,,U,181,triangle,1,0,,,,,,,,,,,,,,,,repeat,number,numRpt,k,0.5834,Hi,,,,,,2,,,,,,,,low,19,0,19,0,1,,,,,,,,,
292966,2022-11-28_14h58.10.853,vts_reward_expectancy_bt,2022.2.4,Win32,60.0276127,Chrome,1920,1080,,,,,1,958,,,,,,,,,,,,,,,,,F,125,circle,1,0,,,,,,,,,,,,,,,,repeat,number,numRpt,j,0.5868,Lo,,,,,,2,,,,,,,,low,20,0,20,0,1,,,,,,,,,
292966,2022-11-28_14h58.10.853,vts_reward_expectancy_bt,2022.2.4,Win32,60.0276127,Chrome,1920,1080,,,,,0,958,,,,,,,,,,,,,,,,,H,146,triangle,1,0,,,,,,,,,,,,,,,,repeat,number,numRpt,j,0.7443,Hi,,,,,,2,,,,,,,,low,21,0,21,0,1,,,,,,,,,
292966,2022-11-28_14h58.10.853,vts_reward_expectancy_bt,2022.2.4,Win32,60.0276127,Chrome,1920,1080,,,,,0,958,,,,,,,,,,,,,,,,,W,132,hexagon,1,0,,,,,,,,,,,,,,,,repeat,number,numRpt,j,0.6582,Hi,,,,,,2,,,,,,,,low,22,0,22,0,1,,,,,,,,,
292966,2022-11-28_14h58.10.853,vts_reward_expectancy_bt,2022.2.4,Win32,60.0276127,Chrome,1920,1080,,,,,1,959,,,,,,,,,,,,,,,,,D,174,star,1,0,,,,,,,,,,,,,,,,repeat,number,numRpt,k,0.8006,Lo,,,,,,2,,,,,,,,low,23,0,23,0,1,,,,,,,,,
292966,2022-11-28_14h58.10.853,vts_reward_expectancy_bt,2022.2.4,Win32,60.0276127,Chrome,1920,1080,,,,,0,959,,,,,,,,,,,,,,,,,U,146,triangle,1,0,,,,,,,,,,,,,,,,repeat,number,numRpt,j,0.6625,Hi,,,,,,2,,,,,,,,low,24,0,24,0,1,,,,,,,,,
292966,2022-11-28_14h58.10.853,vts_reward_expectancy_bt,2022.2.4,Win32,60.0276127,Chrome,1920,1080,,,,,1,960,,,,,,,,,,,,,,,,,S,125,circle,1,0,,,,,,,,,,,,,,,,repeat,number,numRpt,j,0.9346,Lo,,,,,,2,,,,,,,,low,25,0,25,0,1,,,,,,,,,
292966,2022-11-28_14h58.10.853,vts_reward_expectancy_bt,2022.2.4,Win32,60.0276127,Chrome,1920,1080,,,,,0,960,,,,,,,,,,,,,,,,,D,167,hexagon,1,0,,,,,,,,,,,,,,,,repeat,number,numRpt,k,0.6682,Hi,,,,,,2,,,,,,,,low,26,0,26,0,1,,,,,,,,,
292966,2022-11-28_14h58.10.853,vts_reward_expectancy_bt,2022.2.4,Win32,60.0276127,Chrome,1920,1080,,,,,0,960,,,,,,,,,,,,,,,,,W,139,star,-1,0,,,,,,,,,,,,,,,,switch,no_choice,NA,,,Hi,,,,,,2,,,,,,,,low,27,0,27,0,1,,,,,,,,,
292966,2022-11-28_14h58.10.853,vts_reward_expectancy_bt,2022.2.4,Win32,60.0276127,Chrome,1920,1080,,,,,10,970,,,,,,,,,,,,,,,,,H,174,hexagon,1,0,,,,,,,,,,,,,,,,switch,number,numSwt,k,0.6676,Hi,,,,,,2,,,,,,,,low,28,0,28,0,1,,,,,,,,,
292966,2022-11-28_14h58.10.853,vts_reward_expectancy_bt,2022.2.4,Win32,60.0276127,Chrome,1920,1080,,,,,1,971,,,,,,,,,,,,,,,,,B,160,star,1,0,,,,,,,,,,,,,,,,repeat,number,numRpt,k,0.677,Lo,,,,,,2,,,,,,,,low,29,0,29,0,1,,,,,,,,,
292966,2022-11-28_14h58.10.853,vts_reward_expectancy_bt,2022.2.4,Win32,60.0276127,Chrome,1920,1080,,,,,0,971,,,,,,,,,,,,,,,,,F,132,triangle,1,0,,,,,,,,,,,,,,,,repeat,number,numRpt,j,1.3671,Hi,,,,,,2,,,,,,,,low,30,0,30,0,1,,,,,,,,,
292966,2022-11-28_14h58.10.853,vts_reward_expectancy_bt,2022.2.4,Win32,60.0276127,Chrome,1920,1080,,,,,1,972,,,,,,,,,,,,,,,,,Y,181,circle,1,0,,,,,,,,,,,,,,,,repeat,number,numRpt,k,0.768,Lo,,,,,,2,,,,,,,,low,31,0,31,0,1,,,,,,,,,
292966,2022-11-28_14h58.10.853,vts_reward_expectancy_bt,2022.2.4,Win32,60.0276127,Chrome,1920,1080,,,,,10,982,,,,,,,,,,,,,,,,,W,146,circle,1,0,,,,,,,,,,,,,,,,repeat,number,numRpt,j,0.5886,Lo,,,,,,3,,,,,,space,0.8172,low,0,0,0,0,1,,,,,,,,,
292966,2022-11-28_14h58.10.853,vts_reward_expectancy_bt,2022.2.4,Win32,60.0276127,Chrome,1920,1080,,,,,0,982,,,,,,,,,,,,,,,,,Y,125,triangle,0,0,,,,,,,,,,,,,,,,repeat,number,NA,k,0.4575,Lo,,,,,,3,,,,,,,,low,1,0,1,0,1,,,,,,,,,
292966,2022-11-28_14h58.10.853,vts_reward_expectancy_bt,2022.2.4,Win32,60.0276127,Chrome,1920,1080,,,,,0,982,,,,,,,,,,,,,,,,,S,132,star,0,1,,,,,,,,,,,,,,,,repeat,number,NA,k,0.0746,Lo,,,,,,3,,,,,,,,low,2,0,2,0,1,,,,,,,,,
292966,2022-11-28_14h58.10.853,vts_reward_expectancy_bt,2022.2.4,Win32,60.0276127,Chrome,1920,1080,,,,,10,992,,,,,,,,,,,,,,,,,F,181,hexagon,1,1,,,,,,,,,,,,,,,,repeat,number,numRpt,k,0.1176,Hi,,,,,,3,,,,,,,,low,3,0,3,0,1,,,,,,,,,
292966,2022-11-28_14h58.10.853,vts_reward_expectancy_bt,2022.2.4,Win32,60.0276127,Chrome,1920,1080,,,,,1,993,,,,,,,,,,,,,,,,,U,167,circle,1,0,,,,,,,,,,,,,,,,repeat,number,numRpt,k,0.1525,Lo,,,,,,3,,,,,,,,low,4,0,4,0,1,,,,,,,,,
292966,2022-11-28_14h58.10.853,vts_reward_expectancy_bt,2022.2.4,Win32,60.0276127,Chrome,1920,1080,,,,,0,993,,,,,,,,,,,,,,,,,H,139,triangle,0,0,,,,,,,,,,,,,,,,repeat,number,NA,k,0.0004,Lo,,,,,,3,,,,,,,,low,5,0,5,0,1,,,,,,,,,
292966,2022-11-28_14h58.10.853,vts_reward_expectancy_bt,2022.2.4,Win32,60.0276127,Chrome,1920,1080,,,,,10,1003,,,,,,,,,,,,,,,,,D,174,star,1,1,,,,,,,,,,,,,,,,repeat,number,numRpt,k,0.2372,Lo,,,,,,3,,,,,,,,low,6,0,6,0,1,,,,,,,,,
292966,2022-11-28_14h58.10.853,vts_reward_expectancy_bt,2022.2.4,Win32,60.0276127,Chrome,1920,1080,,,,,10,1013,,,,,,,,,,,,,,,,,B,160,hexagon,1,0,,,,,,,,,,,,,,,,repeat,number,numRpt,k,0.5767,Hi,,,,,,3,,,,,,,,low,7,0,7,0,1,,,,,,,,,
292966,2022-11-28_14h58.10.853,vts_reward_expectancy_bt,2022.2.4,Win32,60.0276127,Chrome,1920,1080,,,,,10,1023,,,,,,,,,,,,,,,,,W,146,triangle,1,0,,,,,,,,,,,,,,,,repeat,number,numRpt,j,0.6175,Hi,,,,,,3,,,,,,,,low,8,0,8,0,1,,,,,,,,,
292966,2022-11-28_14h58.10.853,vts_reward_expectancy_bt,2022.2.4,Win32,60.0276127,Chrome,1920,1080,,,,,1,1024,,,,,,,,,,,,,,,,,Y,125,circle,1,0,,,,,,,,,,,,,,,,repeat,number,numRpt,j,1.0327,Lo,,,,,,3,,,,,,,,low,9,0,9,0,1,,,,,,,,,
292966,2022-11-28_14h58.10.853,vts_reward_expectancy_bt,2022.2.4,Win32,60.0276127,Chrome,1920,1080,,,,,10,1034,,,,,,,,,,,,,,,,,S,132,hexagon,1,0,,,,,,,,,,,,,,,,repeat,number,numRpt,j,0.6005,Hi,,,,,,3,,,,,,,,low,10,0,10,0,1,,,,,,,,,
292966,2022-11-28_14h58.10.853,vts_reward_expectancy_bt,2022.2.4,Win32,60.0276127,Chrome,1920,1080,,,,,1,1035,,,,,,,,,,,,,,,,,F,181,star,1,0,,,,,,,,,,,,,,,,repeat,number,numRpt,k,0.7096,Lo,,,,,,3,,,,,,,,low,11,0,11,0,1,,,,,,,,,
292966,2022-11-28_14h58.10.853,vts_reward_expectancy_bt,2022.2.4,Win32,60.0276127,Chrome,1920,1080,,,,,0,1035,,,,,,,,,,,,,,,,,U,167,star,0,0,,,,,,,,,,,,,,,,repeat,number,NA,j,1.0677,Lo,,,,,,3,,,,,,,,low,12,0,12,0,1,,,,,,,,,
292966,2022-11-28_14h58.10.853,vts_reward_expectancy_bt,2022.2.4,Win32,60.0276127,Chrome,1920,1080,,,,,0,1035,,,,,,,,,,,,,,,,,H,139,triangle,1,1,,,,,,,,,,,,,,,,repeat,number,numRpt,j,0.6238,Hi,,,,,,3,,,,,,,,low,13,0,13,0,1,,,,,,,,,
292966,2022-11-28_14h58.10.853,vts_reward_expectancy_bt,2022.2.4,Win32,60.0276127,Chrome,1920,1080,,,,,0,1035,,,,,,,,,,,,,,,,,D,174,hexagon,1,0,,,,,,,,,,,,,,,,repeat,number,numRpt,k,0.8076,Hi,,,,,,3,,,,,,,,low,14,0,14,0,1,,,,,,,,,
292966,2022-11-28_14h58.10.853,vts_reward_expectancy_bt,2022.2.4,Win32,60.0276127,Chrome,1920,1080,,,,,0,1035,,,,,,,,,,,,,,,,,B,160,circle,0,0,,,,,,,,,,,,,,,,repeat,number,NA,j,1.1889,Hi,,,,,,3,,,,,,,,low,15,0,15,0,1,,,,,,,,,
292966,2022-11-28_14h58.10.853,vts_reward_expectancy_bt,2022.2.4,Win32,60.0276127,Chrome,1920,1080,,,,,0,1035,,,,,,,,,,,,,,,,,S,139,triangle,1,1,,,,,,,,,,,,,,,,repeat,number,numRpt,j,0.6409,Hi,,,,,,3,,,,,,,,low,16,0,16,0,1,,,,,,,,,
292966,2022-11-28_14h58.10.853,vts_reward_expectancy_bt,2022.2.4,Win32,60.0276127,Chrome,1920,1080,,,,,0,1035,,,,,,,,,,,,,,,,,U,167,circle,0,0,,,,,,,,,,,,,,,,repeat,number,NA,j,0.6759,Hi,,,,,,3,,,,,,,,low,17,0,17,0,1,,,,,,,,,
292966,2022-11-28_14h58.10.853,vts_reward_expectancy_bt,2022.2.4,Win32,60.0276127,Chrome,1920,1080,,,,,0,1035,,,,,,,,,,,,,,,,,D,160,hexagon,1,1,,,,,,,,,,,,,,,,repeat,number,numRpt,k,0.6618,Hi,,,,,,3,,,,,,,,low,18,0,18,0,1,,,,,,,,,
292966,2022-11-28_14h58.10.853,vts_reward_expectancy_bt,2022.2.4,Win32,60.0276127,Chrome,1920,1080,,,,,1,1036,,,,,,,,,,,,,,,,,F,174,star,1,0,,,,,,,,,,,,,,,,repeat,number,numRpt,k,0.7177,Lo,,,,,,3,,,,,,,,low,19,0,19,0,1,,,,,,,,,
292966,2022-11-28_14h58.10.853,vts_reward_expectancy_bt,2022.2.4,Win32,60.0276127,Chrome,1920,1080,,,,,10,1046,,,,,,,,,,,,,,,,,Y,181,star,1,0,,,,,,,,,,,,,,,,repeat,number,numRpt,k,0.6063,Lo,,,,,,3,,,,,,,,low,20,0,20,0,1,,,,,,,,,
292966,2022-11-28_14h58.10.853,vts_reward_expectancy_bt,2022.2.4,Win32,60.0276127,Chrome,1920,1080,,,,,1,1047,,,,,,,,,,,,,,,,,H,125,triangle,1,0,,,,,,,,,,,,,,,,repeat,number,numRpt,j,0.5905,Hi,,,,,,3,,,,,,,,low,21,0,21,0,1,,,,,,,,,
292966,2022-11-28_14h58.10.853,vts_reward_expectancy_bt,2022.2.4,Win32,60.0276127,Chrome,1920,1080,,,,,0,1047,,,,,,,,,,,,,,,,,B,146,hexagon,1,0,,,,,,,,,,,,,,,,repeat,number,numRpt,j,1.0942,Hi,,,,,,3,,,,,,,,low,22,0,22,0,1,,,,,,,,,
292966,2022-11-28_14h58.10.853,vts_reward_expectancy_bt,2022.2.4,Win32,60.0276127,Chrome,1920,1080,,,,,10,1057,,,,,,,,,,,,,,,,,W,132,circle,1,0,,,,,,,,,,,,,,,,repeat,number,numRpt,j,0.1732,Lo,,,,,,3,,,,,,,,low,23,0,23,0,1,,,,,,,,,
292966,2022-11-28_14h58.10.853,vts_reward_expectancy_bt,2022.2.4,Win32,60.0276127,Chrome,1920,1080,,,,,0,1057,,,,,,,,,,,,,,,,,H,174,star,0,0,,,,,,,,,,,,,,,,repeat,number,NA,j,0.2083,Lo,,,,,,3,,,,,,,,low,24,0,24,0,1,,,,,,,,,
292966,2022-11-28_14h58.10.853,vts_reward_expectancy_bt,2022.2.4,Win32,60.0276127,Chrome,1920,1080,,,,,10,1067,,,,,,,,,,,,,,,,,D,132,triangle,1,1,,,,,,,,,,,,,,,,repeat,number,numRpt,j,0.2126,Hi,,,,,,3,,,,,,,,low,25,0,25,0,1,,,,,,,,,
292966,2022-11-28_14h58.10.853,vts_reward_expectancy_bt,2022.2.4,Win32,60.0276127,Chrome,1920,1080,,,,,10,1077,,,,,,,,,,,,,,,,,U,125,circle,1,0,,,,,,,,,,,,,,,,repeat,number,numRpt,j,0.1126,Lo,,,,,,3,,,,,,,,low,26,0,26,0,1,,,,,,,,,
292966,2022-11-28_14h58.10.853,vts_reward_expectancy_bt,2022.2.4,Win32,60.0276127,Chrome,1920,1080,,,,,10,1087,,,,,,,,,,,,,,,,,S,139,hexagon,1,0,,,,,,,,,,,,,,,,repeat,number,numRpt,j,0.1505,Hi,,,,,,3,,,,,,,,low,27,0,27,0,1,,,,,,,,,
292966,2022-11-28_14h58.10.853,vts_reward_expectancy_bt,2022.2.4,Win32,60.0276127,Chrome,1920,1080,,,,,0,1087,,,,,,,,,,,,,,,,,F,181,star,0,0,,,,,,,,,,,,,,,,repeat,number,NA,j,0.1003,Hi,,,,,,3,,,,,,,,low,28,0,28,0,1,,,,,,,,,
292966,2022-11-28_14h58.10.853,vts_reward_expectancy_bt,2022.2.4,Win32,60.0276127,Chrome,1920,1080,,,,,1,1088,,,,,,,,,,,,,,,,,Y,160,circle,1,1,,,,,,,,,,,,,,,,repeat,number,numRpt,k,0.4934,Lo,,,,,,3,,,,,,,,low,29,0,29,0,1,,,,,,,,,
292966,2022-11-28_14h58.10.853,vts_reward_expectancy_bt,2022.2.4,Win32,60.0276127,Chrome,1920,1080,,,,,0,1088,,,,,,,,,,,,,,,,,W,167,hexagon,0,0,,,,,,,,,,,,,,,,repeat,number,NA,j,0.0491,Lo,,,,,,3,,,,,,,,low,30,0,30,0,1,,,,,,,,,
292966,2022-11-28_14h58.10.853,vts_reward_expectancy_bt,2022.2.4,Win32,60.0276127,Chrome,1920,1080,,,,,0,1088,,,,,,,,,,,,,,,,,B,146,triangle,0,1,,,,,,,,,,,,,,,,repeat,number,NA,k,0.1113,Lo,,,,,,3,,,,,,,,low,31,0,31,0,1,,,,,,,,,
292966,2022-11-28_14h58.10.853,vts_reward_expectancy_bt,2022.2.4,Win32,60.0276127,Chrome,1920,1080,,,,,1,1089,,,,,,,,,,,,,,,,,S,125,hexagon,1,1,,,,,,,,,,,,,,,,repeat,number,numRpt,j,0.0108,Hi,,,,,,4,,,,,,space,0.6231,low,0,0,0,0,1,,,,,,,,,
292966,2022-11-28_14h58.10.853,vts_reward_expectancy_bt,2022.2.4,Win32,60.0276127,Chrome,1920,1080,,,,,10,1099,,,,,,,,,,,,,,,,,Y,174,star,1,0,,,,,,,,,,,,,,,,repeat,number,numRpt,k,0.0163,Lo,,,,,,4,,,,,,,,low,1,0,1,0,1,,,,,,,,,
292966,2022-11-28_14h58.10.853,vts_reward_expectancy_bt,2022.2.4,Win32,60.0276127,Chrome,1920,1080,,,,,0,1099,,,,,,,,,,,,,,,,,F,160,circle,0,0,,,,,,,,,,,,,,,,repeat,number,NA,j,0.0499,Lo,,,,,,4,,,,,,,,low,2,0,2,0,1,,,,,,,,,
292966,2022-11-28_14h58.10.853,vts_reward_expectancy_bt,2022.2.4,Win32,60.0276127,Chrome,1920,1080,,,,,10,1109,,,,,,,,,,,,,,,,,U,132,triangle,1,1,,,,,,,,,,,,,,,,repeat,number,numRpt,j,0.1676,Hi,,,,,,4,,,,,,,,low,3,0,3,0,1,,,,,,,,,
292966,2022-11-28_14h58.10.853,vts_reward_expectancy_bt,2022.2.4,Win32,60.0276127,Chrome,1920,1080,,,,,0,1109,,,,,,,,,,,,,,,,,D,181,hexagon,0,0,,,,,,,,,,,,,,,,repeat,number,NA,j,0.0133,Hi,,,,,,4,,,,,,,,low,4,0,4,0,1,,,,,,,,,
292966,2022-11-28_14h58.10.853,vts_reward_expectancy_bt,2022.2.4,Win32,60.0276127,Chrome,1920,1080,,,,,0,1109,,,,,,,,,,,,,,,,,B,146,star,0,1,,,,,,,,,,,,,,,,repeat,number,NA,k,0.0004,Hi,,,,,,4,,,,,,,,low,5,0,5,0,1,,,,,,,,,
292966,2022-11-28_14h58.10.853,vts_reward_expectancy_bt,2022.2.4,Win32,60.0276127,Chrome,1920,1080,,,,,1,1110,,,,,,,,,,,,,,,,,H,139,circle,1,1,,,,,,,,,,,,,,,,repeat,number,numRpt,j,0.2082,Lo,,,,,,4,,,,,,,,low,6,0,6,0,1,,,,,,,,,
292966,2022-11-28_14h58.10.853,vts_reward_expectancy_bt,2022.2.4,Win32,60.0276127,Chrome,1920,1080,,,,,0,1110,,,,,,,,,,,,,,,,,W,167,triangle,0,0,,,,,,,,,,,,,,,,repeat,number,NA,j,0.2454,Lo,,,,,,4,,,,,,,,low,7,0,7,0,1,,,,,,,,,
292966,2022-11-28_14h58.10.853,vts_reward_expectancy_bt,2022.2.4,Win32,60.0276127,Chrome,1920,1080,,,,,0,1110,,,,,,,,,,,,,,,,,S,125,hexagon,0,1,,,,,,,,,,,,,,,,repeat,number,NA,k,0.151,Lo,,,,,,4,,,,,,,,low,8,0,8,0,1,,,,,,,,,
292966,2022-11-28_14h58.10.853,vts_reward_expectancy_bt,2022.2.4,Win32,60.0276127,Chrome,1920,1080,,,,,1,1111,,,,,,,,,,,,,,,,,Y,174,circle,1,1,,,,,,,,,,,,,,,,repeat,number,numRpt,k,0.1831,Lo,,,,,,4,,,,,,,,low,9,0,9,0,1,,,,,,,,,
292966,2022-11-28_14h58.10.853,vts_reward_expectancy_bt,2022.2.4,Win32,60.0276127,Chrome,1920,1080,,,,,1,1112,,,,,,,,,,,,,,,,,F,160,star,1,0,,,,,,,,,,,,,,,,repeat,number,numRpt,k,0.0825,Lo,,,,,,4,,,,,,,,low,10,0,10,0,1,,,,,,,,,
292966,2022-11-28_14h58.10.853,vts_reward_expectancy_bt,2022.2.4,Win32,60.0276127,Chrome,1920,1080,,,,,10,1122,,,,,,,,,,,,,,,,,U,132,triangle,1,0,,,,,,,,,,,,,,,,repeat,number,numRpt,j,0.2605,Hi,,,,,,4,,,,,,,,low,11,0,11,0,1,,,,,,,,,
292966,2022-11-28_14h58.10.853,vts_reward_expectancy_bt,2022.2.4,Win32,60.0276127,Chrome,1920,1080,,,,,10,1132,,,,,,,,,,,,,,,,,D,181,triangle,1,0,,,,,,,,,,,,,,,,repeat,number,numRpt,k,0.0162,Hi,,,,,,4,,,,,,,,low,12,0,12,0,1,,,,,,,,,
292966,2022-11-28_14h58.10.853,vts_reward_expectancy_bt,2022.2.4,Win32,60.0276127,Chrome,1920,1080,,,,,1,1133,,,,,,,,,,,,,,,,,B,146,hexagon,1,0,,,,,,,,,,,,,,,,repeat,number,numRpt,j,0.1131,Hi,,,,,,4,,,,,,,,low,13,0,13,0,1,,,,,,,,,
292966,2022-11-28_14h58.10.853,vts_reward_expectancy_bt,2022.2.4,Win32,60.0276127,Chrome,1920,1080,,,,,10,1143,,,,,,,,,,,,,,,,,H,139,star,1,0,,,,,,,,,,,,,,,,repeat,number,numRpt,j,0.0402,Lo,,,,,,4,,,,,,,,low,14,0,14,0,1,,,,,,,,,
292966,2022-11-28_14h58.10.853,vts_reward_expectancy_bt,2022.2.4,Win32,60.0276127,Chrome,1920,1080,,,,,0,1143,,,,,,,,,,,,,,,,,W,167,circle,0,0,,,,,,,,,,,,,,,,repeat,number,NA,j,0.1412,Lo,,,,,,4,,,,,,,,low,15,0,15,0,1,,,,,,,,,
292966,2022-11-28_14h58.10.853,vts_reward_expectancy_bt,2022.2.4,Win32,60.0276127,Chrome,1920,1080,,,,,0,1143,,,,,,,,,,,,,,,,,W,181,star,0,1,,,,,,,,,,,,,,,,repeat,number,NA,j,0.1612,Lo,,,,,,4,,,,,,,,low,16,0,16,0,1,,,,,,,,,
292966,2022-11-28_14h58.10.853,vts_reward_expectancy_bt,2022.2.4,Win32,60.0276127,Chrome,1920,1080,,,,,10,1153,,,,,,,,,,,,,,,,,U,132,triangle,1,1,,,,,,,,,,,,,,,,repeat,number,numRpt,j,0.1249,Hi,,,,,,4,,,,,,,,low,17,0,17,0,1,,,,,,,,,
292966,2022-11-28_14h58.10.853,vts_reward_expectancy_bt,2022.2.4,Win32,60.0276127,Chrome,1920,1080,,,,,0,1153,,,,,,,,,,,,,,,,,H,160,hexagon,0,0,,,,,,,,,,,,,,,,repeat,number,NA,j,0.2176,Hi,,,,,,4,,,,,,,,low,18,0,18,0,1,,,,,,,,,
292966,2022-11-28_14h58.10.853,vts_reward_expectancy_bt,2022.2.4,Win32,60.0276127,Chrome,1920,1080,,,,,10,1163,,,,,,,,,,,,,,,,,F,125,circle,1,1,,,,,,,,,,,,,,,,repeat,number,numRpt,j,0.1036,Lo,,,,,,4,,,,,,,,low,19,0,19,0,1,,,,,,,,,
292966,2022-11-28_14h58.10.853,vts_reward_expectancy_bt,2022.2.4,Win32,60.0276127,Chrome,1920,1080,,,,,0,1163,,,,,,,,,,,,,,,,,B,174,triangle,0,0,,,,,,,,,,,,,,,,repeat,number,NA,j,0.1347,Lo,,,,,,4,,,,,,,,low,20,0,20,0,1,,,,,,,,,
292966,2022-11-28_14h58.10.853,vts_reward_expectancy_bt,2022.2.4,Win32,60.0276127,Chrome,1920,1080,,,,,1,1164,,,,,,,,,,,,,,,,,D,146,hexagon,1,1,,,,,,,,,,,,,,,,repeat,number,numRpt,j,0.044,Hi,,,,,,4,,,,,,,,low,21,0,21,0,1,,,,,,,,,
292966,2022-11-28_14h58.10.853,vts_reward_expectancy_bt,2022.2.4,Win32,60.0276127,Chrome,1920,1080,,,,,10,1174,,,,,,,,,,,,,,,,,S,139,star,1,0,,,,,,,,,,,,,,,,repeat,number,numRpt,j,0.5007,Lo,,,,,,4,,,,,,,,low,22,0,22,0,1,,,,,,,,,
292966,2022-11-28_14h58.10.853,vts_reward_expectancy_bt,2022.2.4,Win32,60.0276127,Chrome,1920,1080,,,,,10,1184,,,,,,,,,,,,,,,,,Y,167,circle,1,0,,,,,,,,,,,,,,,,repeat,number,numRpt,k,0.2174,Lo,,,,,,4,,,,,,,,low,23,0,23,0,1,,,,,,,,,
292966,2022-11-28_14h58.10.853,vts_reward_expectancy_bt,2022.2.4,Win32,60.0276127,Chrome,1920,1080,,,,,10,1194,,,,,,,,,,,,,,,,,H,174,hexagon,1,0,,,,,,,,,,,,,,,,repeat,number,numRpt,k,0.0881,Hi,,,,,,4,,,,,,,,low,24,0,24,0,1,,,,,,,,,
292966,2022-11-28_14h58.10.853,vts_reward_expectancy_bt,2022.2.4,Win32,60.0276127,Chrome,1920,1080,,,,,1,1195,,,,,,,,,,,,,,,,,F,167,triangle,1,0,,,,,,,,,,,,,,,,repeat,number,numRpt,k,0.1088,Hi,,,,,,4,,,,,,,,low,25,0,25,0,1,,,,,,,,,
292966,2022-11-28_14h58.10.853,vts_reward_expectancy_bt,2022.2.4,Win32,60.0276127,Chrome,1920,1080,,,,,10,1205,,,,,,,,,,,,,,,,,Y,132,circle,1,0,,,,,,,,,,,,,,,,repeat,number,numRpt,j,0.1339,Lo,,,,,,4,,,,,,,,low,26,0,26,0,1,,,,,,,,,
292966,2022-11-28_14h58.10.853,vts_reward_expectancy_bt,2022.2.4,Win32,60.0276127,Chrome,1920,1080,,,,,1,1206,,,,,,,,,,,,,,,,,S,125,star,1,0,,,,,,,,,,,,,,,,repeat,number,numRpt,j,0.2535,Lo,,,,,,4,,,,,,,,low,27,0,27,0,1,,,,,,,,,
292966,2022-11-28_14h58.10.853,vts_reward_expectancy_bt,2022.2.4,Win32,60.0276127,Chrome,1920,1080,,,,,0,1206,,,,,,,,,,,,,,,,,W,181,circle,0,0,,,,,,,,,,,,,,,,repeat,number,NA,j,0.2217,Lo,,,,,,4,,,,,,,,low,28,0,28,0,1,,,,,,,,,
292966,2022-11-28_14h58.10.853,vts_reward_expectancy_bt,2022.2.4,Win32,60.0276127,Chrome,1920,1080,,,,,0,1206,,,,,,,,,,,,,,,,,D,139,star,0,1,,,,,,,,,,,,,,,,repeat,number,NA,k,0.1273,Lo,,,,,,4,,,,,,,,low,29,0,29,0,1,,,,,,,,,
292966,2022-11-28_14h58.10.853,vts_reward_expectancy_bt,2022.2.4,Win32,60.0276127,Chrome,1920,1080,,,,,0,1206,,,,,,,,,,,,,,,,,U,146,triangle,0,1,,,,,,,,,,,,,,,,repeat,number,NA,k,0.0588,Lo,,,,,,4,,,,,,,,low,30,0,30,0,1,,,,,,,,,
292966,2022-11-28_14h58.10.853,vts_reward_expectancy_bt,2022.2.4,Win32,60.0276127,Chrome,1920,1080,,,,,0,1206,,,,,,,,,,,,,,,,,B,160,hexagon,0,1,,,,,,,,,,,,,,,,repeat,number,NA,j,0.2174,Lo,,,,,,4,,,,,,,,low,31,0,31,0,1,,,,,,,,,
292966,2022-11-28_14h58.10.853,vts_reward_expectancy_bt,2022.2.4,Win32,60.0276127,Chrome,1920,1080,,,,,0,1206,,,,,,,,,,,,,,,,,D,181,star,0,1,,,,,,,,,,,,,,,,repeat,number,NA,j,0.06,Lo,,,,,,5,,,,,,space,0.5076,low,0,0,0,0,1,,,,,,,,,
292966,2022-11-28_14h58.10.853,vts_reward_expectancy_bt,2022.2.4,Win32,60.0276127,Chrome,1920,1080,,,,,0,1206,,,,,,,,,,,,,,,,,F,125,hexagon,0,1,,,,,,,,,,,,,,,,repeat,number,NA,k,0.0667,Lo,,,,,,5,,,,,,,,low,1,0,1,0,1,,,,,,,,,
292966,2022-11-28_14h58.10.853,vts_reward_expectancy_bt,2022.2.4,Win32,60.0276127,Chrome,1920,1080,,,,,0,1206,,,,,,,,,,,,,,,,,Y,167,triangle,0,1,,,,,,,,,,,,,,,,repeat,number,NA,j,0.0917,Lo,,,,,,5,,,,,,,,low,2,0,2,0,1,,,,,,,,,
292966,2022-11-28_14h58.10.853,vts_reward_expectancy_bt,2022.2.4,Win32,60.0276127,Chrome,1920,1080,,,,,0,1206,,,,,,,,,,,,,,,,,W,139,circle,0,1,,,,,,,,,,,,,,,,repeat,number,NA,k,0.0915,Lo,,,,,,5,,,,,,,,low,3,0,3,0,1,,,,,,,,,
292966,2022-11-28_14h58.10.853,vts_reward_expectancy_bt,2022.2.4,Win32,60.0276127,Chrome,1920,1080,,,,,1,1207,,,,,,,,,,,,,,,,,B,160,star,1,1,,,,,,,,,,,,,,,,repeat,number,numRpt,k,0.0032,Lo,,,,,,5,,,,,,,,low,4,0,4,0,1,,,,,,,,,
292966,2022-11-28_14h58.10.853,vts_reward_expectancy_bt,2022.2.4,Win32,60.0276127,Chrome,1920,1080,,,,,0,1207,,,,,,,,,,,,,,,,,U,146,hexagon,1,0,,,,,,,,,,,,,,,,repeat,number,numRpt,j,0.1507,Hi,,,,,,5,,,,,,,,low,5,0,5,0,1,,,,,,,,,
292966,2022-11-28_14h58.10.853,vts_reward_expectancy_bt,2022.2.4,Win32,60.0276127,Chrome,1920,1080,,,,,0,1207,,,,,,,,,,,,,,,,,H,132,triangle,1,0,,,,,,,,,,,,,,,,repeat,number,numRpt,j,0.2393,Hi,,,,,,5,,,,,,,,low,6,0,6,0,1,,,,,,,,,
292966,2022-11-28_14h58.10.853,vts_reward_expectancy_bt,2022.2.4,Win32,60.0276127,Chrome,1920,1080,,,,,10,1217,,,,,,,,,,,,,,,,,S,174,circle,1,0,,,,,,,,,,,,,,,,repeat,number,numRpt,k,0.0006,Lo,,,,,,5,,,,,,,,low,7,0,7,0,1,,,,,,,,,
292966,2022-11-28_14h58.10.853,vts_reward_expectancy_bt,2022.2.4,Win32,60.0276127,Chrome,1920,1080,,,,,0,1217,,,,,,,,,,,,,,,,,D,181,hexagon,0,0,,,,,,,,,,,,,,,,repeat,number,NA,j,0.0005,Lo,,,,,,5,,,,,,,,low,8,0,8,0,1,,,,,,,,,
292966,2022-11-28_14h58.10.853,vts_reward_expectancy_bt,2022.2.4,Win32,60.0276127,Chrome,1920,1080,,,,,0,1217,,,,,,,,,,,,,,,,,F,125,triangle,0,1,,,,,,,,,,,,,,,,repeat,number,NA,k,0.107,Lo,,,,,,5,,,,,,,,low,9,0,9,0,1,,,,,,,,,
292966,2022-11-28_14h58.10.853,vts_reward_expectancy_bt,2022.2.4,Win32,60.0276127,Chrome,1920,1080,,,,,0,1217,,,,,,,,,,,,,,,,,Y,167,star,0,1,,,,,,,,,,,,,,,,repeat,number,NA,j,0.0497,Lo,,,,,,5,,,,,,,,low,10,0,10,0,1,,,,,,,,,
292966,2022-11-28_14h58.10.853,vts_reward_expectancy_bt,2022.2.4,Win32,60.0276127,Chrome,1920,1080,,,,,1,1218,,,,,,,,,,,,,,,,,W,139,circle,1,1,,,,,,,,,,,,,,,,repeat,number,numRpt,j,0.183,Lo,,,,,,5,,,,,,,,low,11,0,11,0,1,,,,,,,,,
292966,2022-11-28_14h58.10.853,vts_reward_expectancy_bt,2022.2.4,Win32,60.0276127,Chrome,1920,1080,,,,,0,1218,,,,,,,,,,,,,,,,,B,160,triangle,1,0,,,,,,,,,,,,,,,,repeat,number,numRpt,k,0.0893,Hi,,,,,,5,,,,,,,,low,12,0,12,0,1,,,,,,,,,
292966,2022-11-28_14h58.10.853,vts_reward_expectancy_bt,2022.2.4,Win32,60.0276127,Chrome,1920,1080,,,,,0,1218,,,,,,,,,,,,,,,,,U,146,star,0,0,,,,,,,,,,,,,,,,repeat,number,NA,k,0.1898,Hi,,,,,,5,,,,,,,,low,13,0,13,0,1,,,,,,,,,
292966,2022-11-28_14h58.10.853,vts_reward_expectancy_bt,2022.2.4,Win32,60.0276127,Chrome,1920,1080,,,,,0,1218,,,,,,,,,,,,,,,,,H,132,hexagon,0,1,,,,,,,,,,,,,,,,repeat,number,NA,k,0.0427,Hi,,,,,,5,,,,,,,,low,14,0,14,0,1,,,,,,,,,
292966,2022-11-28_14h58.10.853,vts_reward_expectancy_bt,2022.2.4,Win32,60.0276127,Chrome,1920,1080,,,,,0,1218,,,,,,,,,,,,,,,,,S,174,circle,0,1,,,,,,,,,,,,,,,,repeat,number,NA,j,0.2632,Hi,,,,,,5,,,,,,,,low,15,0,15,0,1,,,,,,,,,
292966,2022-11-28_14h58.10.853,vts_reward_expectancy_bt,2022.2.4,Win32,60.0276127,Chrome,1920,1080,,,,,10,1228,,,,,,,,,,,,,,,,,U,125,circle,1,1,,,,,,,,,,,,,,,,repeat,number,numRpt,j,0.2153,Lo,,,,,,5,,,,,,,,low,16,0,16,0,1,,,,,,,,,
292966,2022-11-28_14h58.10.853,vts_reward_expectancy_bt,2022.2.4,Win32,60.0276127,Chrome,1920,1080,,,,,10,1238,,,,,,,,,,,,,,,,,B,146,triangle,1,0,,,,,,,,,,,,,,,,repeat,number,numRpt,j,0.0752,Hi,,,,,,5,,,,,,,,low,17,0,17,0,1,,,,,,,,,
292966,2022-11-28_14h58.10.853,vts_reward_expectancy_bt,2022.2.4,Win32,60.0276127,Chrome,1920,1080,,,,,0,1238,,,,,,,,,,,,,,,,,H,139,hexagon,1,0,,,,,,,,,,,,,,,,repeat,number,numRpt,j,0.1189,Hi,,,,,,5,,,,,,,,low,18,0,18,0,1,,,,,,,,,
292966,2022-11-28_14h58.10.853,vts_reward_expectancy_bt,2022.2.4,Win32,60.0276127,Chrome,1920,1080,,,,,10,1248,,,,,,,,,,,,,,,,,W,132,star,1,0,,,,,,,,,,,,,,,,repeat,number,numRpt,j,0.0004,Lo,,,,,,5,,,,,,,,low,19,0,19,0,1,,,,,,,,,
292966,2022-11-28_14h58.10.853,vts_reward_expectancy_bt,2022.2.4,Win32,60.0276127,Chrome,1920,1080,,,,,0,1248,,,,,,,,,,,,,,,,,D,167,triangle,0,0,,,,,,,,,,,,,,,,repeat,number,NA,j,0.2506,Lo,,,,,,5,,,,,,,,low,20,0,20,0,1,,,,,,,,,
292966,2022-11-28_14h58.10.853,vts_reward_expectancy_bt,2022.2.4,Win32,60.0276127,Chrome,1920,1080,,,,,0,1248,,,,,,,,,,,,,,,,,F,181,hexagon,0,1,,,,,,,,,,,,,,,,repeat,number,NA,j,0.0715,Lo,,,,,,5,,,,,,,,low,21,0,21,0,1,,,,,,,,,
292966,2022-11-28_14h58.10.853,vts_reward_expectancy_bt,2022.2.4,Win32,60.0276127,Chrome,1920,1080,,,,,1,1249,,,,,,,,,,,,,,,,,Y,174,circle,1,1,,,,,,,,,,,,,,,,repeat,number,numRpt,k,0.1822,Lo,,,,,,5,,,,,,,,low,22,0,22,0,1,,,,,,,,,
292966,2022-11-28_14h58.10.853,vts_reward_expectancy_bt,2022.2.4,Win32,60.0276127,Chrome,1920,1080,,,,,0,1249,,,,,,,,,,,,,,,,,S,160,star,0,0,,,,,,,,,,,,,,,,repeat,number,NA,j,0.1257,Lo,,,,,,5,,,,,,,,low,23,0,23,0,1,,,,,,,,,
292966,2022-11-28_14h58.10.853,vts_reward_expectancy_bt,2022.2.4,Win32,60.0276127,Chrome,1920,1080,,,,,10,1259,,,,,,,,,,,,,,,,,S,139,star,1,1,,,,,,,,,,,,,,,,repeat,number,numRpt,j,0.1209,Lo,,,,,,5,,,,,,,,low,24,0,24,0,1,,,,,,,,,
292966,2022-11-28_14h58.10.853,vts_reward_expectancy_bt,2022.2.4,Win32,60.0276127,Chrome,1920,1080,,,,,0,1259,,,,,,,,,,,,,,,,,W,167,triangle,0,0,,,,,,,,,,,,,,,,repeat,number,NA,j,0.1008,Lo,,,,,,5,,,,,,,,low,25,0,25,0,1,,,,,,,,,
292966,2022-11-28_14h58.10.853,vts_reward_expectancy_bt,2022.2.4,Win32,60.0276127,Chrome,1920,1080,,,,,10,1269,,,,,,,,,,,,,,,,,B,132,hexagon,1,1,,,,,,,,,,,,,,,,repeat,number,numRpt,j,0.0831,Hi,,,,,,5,,,,,,,,low,26,0,26,0,1,,,,,,,,,
292966,2022-11-28_14h58.10.853,vts_reward_expectancy_bt,2022.2.4,Win32,60.0276127,Chrome,1920,1080,,,,,0,1269,,,,,,,,,,,,,,,,,D,160,circle,0,0,,,,,,,,,,,,,,,,repeat,number,NA,j,0.2667,Hi,,,,,,5,,,,,,,,low,27,0,27,0,1,,,,,,,,,
292966,2022-11-28_14h58.10.853,vts_reward_expectancy_bt,2022.2.4,Win32,60.0276127,Chrome,1920,1080,,,,,0,1269,,,,,,,,,,,,,,,,,F,181,hexagon,0,1,,,,,,,,,,,,,,,,repeat,number,NA,j,0.2103,Hi,,,,,,5,,,,,,,,low,28,0,28,0,1,,,,,,,,,
292966,2022-11-28_14h58.10.853,vts_reward_expectancy_bt,2022.2.4,Win32,60.0276127,Chrome,1920,1080,,,,,0,1269,,,,,,,,,,,,,,,,,U,125,circle,0,1,,,,,,,,,,,,,,,,repeat,number,NA,k,0.1946,Hi,,,,,,5,,,,,,,,low,29,0,29,0,1,,,,,,,,,
292966,2022-11-28_14h58.10.853,vts_reward_expectancy_bt,2022.2.4,Win32,60.0276127,Chrome,1920,1080,,,,,0,1269,,,,,,,,,,,,,,,,,H,146,star,0,1,,,,,,,,,,,,,,,,repeat,number,NA,k,0.2016,Hi,,,,,,5,,,,,,,,low,30,0,30,0,1,,,,,,,,,
292966,2022-11-28_14h58.10.853,vts_reward_expectancy_bt,2022.2.4,Win32,60.0276127,Chrome,1920,1080,,,,,10,1279,,,,,,,,,,,,,,,,,Y,174,triangle,1,1,,,,,,,,,,,,,,,,repeat,number,numRpt,k,0.0004,Hi,,,,,,5,,,,,,,,low,31,0,31,0,1,,,,,,,,,
292966,2022-11-28_14h58.10.853,vts_reward_expectancy_bt,2022.2.4,Win32,60.0276127,Chrome,1920,1080,,,,,0,1279,,,,,,,,,,,,,,,,,H,125,hexagon,0,0,,,,,,,,,,,,,,,,repeat,number,NA,k,0.019,Hi,,,,,,6,,,,,,space,0.6361,low,0,0,0,0,1,,,,,,,,,
292966,2022-11-28_14h58.10.853,vts_reward_expectancy_bt,2022.2.4,Win32,60.0276127,Chrome,1920,1080,,,,,1,1280,,,,,,,,,,,,,,,,,S,181,star,1,1,,,,,,,,,,,,,,,,repeat,number,numRpt,k,0.1328,Lo,,,,,,6,,,,,,,,low,1,0,1,0,1,,,,,,,,,
292966,2022-11-28_14h58.10.853,vts_reward_expectancy_bt,2022.2.4,Win32,60.0276127,Chrome,1920,1080,,,,,0,1280,,,,,,,,,,,,,,,,,B,139,circle,0,0,,,,,,,,,,,,,,,,repeat,number,NA,k,0.1446,Lo,,,,,,6,,,,,,,,low,2,0,2,0,1,,,,,,,,,
292966,2022-11-28_14h58.10.853,vts_reward_expectancy_bt,2022.2.4,Win32,60.0276127,Chrome,1920,1080,,,,,1,1281,,,,,,,,,,,,,,,,,F,174,triangle,1,1,,,,,,,,,,,,,,,,repeat,number,numRpt,k,0.0722,Hi,,,,,,6,,,,,,,,low,3,0,3,0,1,,,,,,,,,
292966,2022-11-28_14h58.10.853,vts_reward_expectancy_bt,2022.2.4,Win32,60.0276127,Chrome,1920,1080,,,,,0,1281,,,,,,,,,,,,,,,,,D,160,hexagon,0,0,,,,,,,,,,,,,,,,repeat,number,NA,j,0.0102,Hi,,,,,,6,,,,,,,,low,4,0,4,0,1,,,,,,,,,
292966,2022-11-28_14h58.10.853,vts_reward_expectancy_bt,2022.2.4,Win32,60.0276127,Chrome,1920,1080,,,,,1,1282,,,,,,,,,,,,,,,,,W,167,star,1,1,,,,,,,,,,,,,,,,repeat,number,numRpt,k,0.1263,Lo,,,,,,6,,,,,,,,low,5,0,5,0,1,,,,,,,,,
292966,2022-11-28_14h58.10.853,vts_reward_expectancy_bt,2022.2.4,Win32,60.0276127,Chrome,1920,1080,,,,,0,1282,,,,,,,,,,,,,,,,,U,146,circle,0,0,,,,,,,,,,,,,,,,repeat,number,NA,k,0.1997,Lo,,,,,,6,,,,,,,,low,6,0,6,0,1,,,,,,,,,
292966,2022-11-28_14h58.10.853,vts_reward_expectancy_bt,2022.2.4,Win32,60.0276127,Chrome,1920,1080,,,,,0,1282,,,,,,,,,,,,,,,,,Y,132,triangle,0,1,,,,,,,,,,,,,,,,repeat,number,NA,k,0.0685,Lo,,,,,,6,,,,,,,,low,7,0,7,0,1,,,,,,,,,
292966,2022-11-28_14h58.10.853,vts_reward_expectancy_bt,2022.2.4,Win32,60.0276127,Chrome,1920,1080,,,,,0,1282,,,,,,,,,,,,,,,,,H,125,triangle,0,1,,,,,,,,,,,,,,,,repeat,number,NA,k,0.0993,Lo,,,,,,6,,,,,,,,low,8,0,8,0,1,,,,,,,,,
292966,2022-11-28_14h58.10.853,vts_reward_expectancy_bt,2022.2.4,Win32,60.0276127,Chrome,1920,1080,,,,,0,1282,,,,,,,,,,,,,,,,,S,181,circle,0,1,,,,,,,,,,,,,,,,repeat,number,NA,j,0.0039,Lo,,,,,,6,,,,,,,,low,9,0,9,0,1,,,,,,,,,
292966,2022-11-28_14h58.10.853,vts_reward_expectancy_bt,2022.2.4,Win32,60.0276127,Chrome,1920,1080,,,,,0,1282,,,,,,,,,,,,,,,,,B,139,hexagon,0,1,,,,,,,,,,,,,,,,repeat,number,NA,k,0.1128,Lo,,,,,,6,,,,,,,,low,10,0,10,0,1,,,,,,,,,
292966,2022-11-28_14h58.10.853,vts_reward_expectancy_bt,2022.2.4,Win32,60.0276127,Chrome,1920,1080,,,,,0,1282,,,,,,,,,,,,,,,,,F,174,star,0,1,,,,,,,,,,,,,,,,repeat,number,NA,j,0.1328,Lo,,,,,,6,,,,,,,,low,11,0,11,0,1,,,,,,,,,
292966,2022-11-28_14h58.10.853,vts_reward_expectancy_bt,2022.2.4,Win32,60.0276127,Chrome,1920,1080,,,,,0,1282,,,,,,,,,,,,,,,,,D,160,hexagon,0,1,,,,,,,,,,,,,,,,repeat,number,NA,j,0.1421,Lo,,,,,,6,,,,,,,,low,12,0,12,0,1,,,,,,,,,
292966,2022-11-28_14h58.10.853,vts_reward_expectancy_bt,2022.2.4,Win32,60.0276127,Chrome,1920,1080,,,,,0,1282,,,,,,,,,,,,,,,,,W,167,star,0,1,,,,,,,,,,,,,,,,repeat,number,NA,j,0.0286,Lo,,,,,,6,,,,,,,,low,13,0,13,0,1,,,,,,,,,
292966,2022-11-28_14h58.10.853,vts_reward_expectancy_bt,2022.2.4,Win32,60.0276127,Chrome,1920,1080,,,,,0,1282,,,,,,,,,,,,,,,,,U,146,circle,0,1,,,,,,,,,,,,,,,,repeat,number,NA,k,0.1001,Lo,,,,,,6,,,,,,,,low,14,0,14,0,1,,,,,,,,,
292966,2022-11-28_14h58.10.853,vts_reward_expectancy_bt,2022.2.4,Win32,60.0276127,Chrome,1920,1080,,,,,0,1282,,,,,,,,,,,,,,,,,Y,132,triangle,1,1,,,,,,,,,,,,,,,,repeat,number,numRpt,j,0.1918,Hi,,,,,,6,,,,,,,,low,15,0,15,0,1,,,,,,,,,
292966,2022-11-28_14h58.10.853,vts_reward_expectancy_bt,2022.2.4,Win32,60.0276127,Chrome,1920,1080,,,,,0,1282,,,,,,,,,,,,,,,,,Y,174,triangle,1,0,,,,,,,,,,,,,,,,repeat,number,numRpt,k,0.2285,Hi,,,,,,6,,,,,,,,low,16,0,16,0,1,,,,,,,,,
292966,2022-11-28_14h58.10.853,vts_reward_expectancy_bt,2022.2.4,Win32,60.0276127,Chrome,1920,1080,,,,,1,1283,,,,,,,,,,,,,,,,,S,139,circle,1,0,,,,,,,,,,,,,,,,repeat,number,numRpt,j,0.0204,Lo,,,,,,6,,,,,,,,low,17,0,17,0,1,,,,,,,,,
