participant,date,expName,psychopyVersion,OS,frameRate,browser,xResolution,yResolution,key_resp.keys,key_resp.rt,training_resp.keys,training_resp.rt,points_trial,points_cumul,trainBlock,training.thisRepN,training.thisTrialN,training.thisN,training.thisIndex,training.ran,LTriangleOpac,LCircleOpac,LHexagonOpac,LStarOpac,RTriangleOpac,RCircleOpac,RHexagonOpac,RStarOpac,LShape_ID,RShape_ID,curr_topStim,curr_bottStim,curr_shape,acc,E1,target_resp_prac1.keys,target_resp_prac1.rt,pracBlock,task1_prac_trials.thisRepN,task1_prac_trials.thisTrialN,task1_prac_trials.thisN,task1_prac_trials.thisIndex,task1_prac_trials.ran,target_resp_prac2.keys,target_resp_prac2.rt,task2_praac_trials.thisRepN,task2_praac_trials.thisTrialN,task2_praac_trials.thisN,task2_praac_trials.thisIndex,task2_praac_trials.ran,alt,task,condition,target_resp.keys,target_resp.rt,rewCond,vts_practice_trials.thisRepN,vts_practice_trials.thisTrialN,vts_practice_trials.thisN,vts_practice_trials.thisIndex,vts_practice_trials.ran,blockNum,trials_norew.thisRepN,trials_norew.thisTrialN,trials_norew.thisN,trials_norew.thisIndex,trials_norew.ran,key_resp_2.keys,key_resp_2.rt,rewExpectancy,trials_rew.thisRepN,trials_rew.thisTrialN,trials_rew.thisN,trials_rew.thisIndex,trials_rew.ran,Q1,Q2,Q2_text,Q3,Q4,Q5_text,Q5,xRes,yRes
293014,2022-11-28_19h20.28.561,vts_reward_expectancy_bt,2022.2.4,Win32,240.1536984,Chrome,1536,864,,,,,,,,,,,,,,,,,,,,,,,,,,,,,,,,,,,,,,,,,,,,,,,,,,,,,,,,,,,,,,,,,,,,,,,,,,,,
293014,2022-11-28_19h20.28.561,vts_reward_expectancy_bt,2022.2.4,Win32,240.1536984,Chrome,1536,864,space,15.2608,,,,,,,,,,,,,,,,,,,,,,,,,,,,,,,,,,,,,,,,,,,,,,,,,,,,,,,,,,,,,,,,,,,,,,,,,,
293014,2022-11-28_19h20.28.561,vts_reward_expectancy_bt,2022.2.4,Win32,240.1536984,Chrome,1536,864,,,,,,,,,,,,,,,,,,,,,,,,,,,,,,,,,,,,,,,,,,,,,,,,,,,,,,,,,,,,,,,,,,,,,,,,,,,,
293014,2022-11-28_19h20.28.561,vts_reward_expectancy_bt,2022.2.4,Win32,240.1536984,Chrome,1536,864,,,l,2.765,1,1,0,0,0,0,0,1,1,0,0,0,0,1,0,0,triangle,circle,,,,,,,,,,,,,,,,,,,,,,,,,,,,,,,,,,,,,,,,,,,,,,,,,,,,,,
293014,2022-11-28_19h20.28.561,vts_reward_expectancy_bt,2022.2.4,Win32,240.1536984,Chrome,1536,864,,,l,1.4675,10,11,0,0,1,1,9,1,0,0,0,1,1,0,0,0,star,triangle,,,,,,,,,,,,,,,,,,,,,,,,,,,,,,,,,,,,,,,,,,,,,,,,,,,,,,
293014,2022-11-28_19h20.28.561,vts_reward_expectancy_bt,2022.2.4,Win32,240.1536984,Chrome,1536,864,,,a,2.6688,10,21,0,0,2,2,7,1,0,0,1,0,0,1,0,0,hexagon,circle,,,,,,,,,,,,,,,,,,,,,,,,,,,,,,,,,,,,,,,,,,,,,,,,,,,,,,
293014,2022-11-28_19h20.28.561,vts_reward_expectancy_bt,2022.2.4,Win32,240.1536984,Chrome,1536,864,,,l,1.4874,1,22,0,0,3,3,6,1,0,0,1,0,1,0,0,0,hexagon,triangle,,,,,,,,,,,,,,,,,,,,,,,,,,,,,,,,,,,,,,,,,,,,,,,,,,,,,,
293014,2022-11-28_19h20.28.561,vts_reward_expectancy_bt,2022.2.4,Win32,240.1536984,Chrome,1536,864,,,l,3.1121,10,32,0,0,4,4,3,1,0,1,0,0,1,0,0,0,circle,triangle,,,,,,,,,,,,,,,,,,,,,,,,,,,,,,,,,,,,,,,,,,,,,,,,,,,,,,
293014,2022-11-28_19h20.28.561,vts_reward_expectancy_bt,2022.2.4,Win32,240.1536984,Chrome,1536,864,,,l,3.2097,1,33,0,0,5,5,5,1,0,1,0,0,0,0,0,1,circle,star,,,,,,,,,,,,,,,,,,,,,,,,,,,,,,,,,,,,,,,,,,,,,,,,,,,,,,
293014,2022-11-28_19h20.28.561,vts_reward_expectancy_bt,2022.2.4,Win32,240.1536984,Chrome,1536,864,,,l,1.8832,1,34,0,0,6,6,11,1,0,0,0,1,0,0,1,0,star,hexagon,,,,,,,,,,,,,,,,,,,,,,,,,,,,,,,,,,,,,,,,,,,,,,,,,,,,,,
293014,2022-11-28_19h20.28.561,vts_reward_expectancy_bt,2022.2.4,Win32,240.1536984,Chrome,1536,864,,,a,1.7543,10,44,0,0,7,7,8,1,0,0,1,0,0,0,0,1,hexagon,star,,,,,,,,,,,,,,,,,,,,,,,,,,,,,,,,,,,,,,,,,,,,,,,,,,,,,,
293014,2022-11-28_19h20.28.561,vts_reward_expectancy_bt,2022.2.4,Win32,240.1536984,Chrome,1536,864,,,l,2.221,10,54,0,0,8,8,1,1,1,0,0,0,0,0,1,0,triangle,hexagon,,,,,,,,,,,,,,,,,,,,,,,,,,,,,,,,,,,,,,,,,,,,,,,,,,,,,,
293014,2022-11-28_19h20.28.561,vts_reward_expectancy_bt,2022.2.4,Win32,240.1536984,Chrome,1536,864,,,l,1.6571,10,64,0,0,9,9,4,1,0,1,0,0,0,0,1,0,circle,hexagon,,,,,,,,,,,,,,,,,,,,,,,,,,,,,,,,,,,,,,,,,,,,,,,,,,,,,,
293014,2022-11-28_19h20.28.561,vts_reward_expectancy_bt,2022.2.4,Win32,240.1536984,Chrome,1536,864,,,a,2.3539,10,74,0,0,10,10,2,1,1,0,0,0,0,0,0,1,triangle,star,,,,,,,,,,,,,,,,,,,,,,,,,,,,,,,,,,,,,,,,,,,,,,,,,,,,,,
293014,2022-11-28_19h20.28.561,vts_reward_expectancy_bt,2022.2.4,Win32,240.1536984,Chrome,1536,864,,,a,1.72,10,84,0,0,11,11,10,1,0,0,0,1,0,1,0,0,star ,circle,,,,,,,,,,,,,,,,,,,,,,,,,,,,,,,,,,,,,,,,,,,,,,,,,,,,,,
293014,2022-11-28_19h20.28.561,vts_reward_expectancy_bt,2022.2.4,Win32,240.1536984,Chrome,1536,864,,,l,1.2401,1,85,0,1,0,12,5,1,0,1,0,0,0,0,0,1,circle,star,,,,,,,,,,,,,,,,,,,,,,,,,,,,,,,,,,,,,,,,,,,,,,,,,,,,,,
293014,2022-11-28_19h20.28.561,vts_reward_expectancy_bt,2022.2.4,Win32,240.1536984,Chrome,1536,864,,,l,1.3586,10,95,0,1,1,13,6,1,0,0,1,0,1,0,0,0,hexagon,triangle,,,,,,,,,,,,,,,,,,,,,,,,,,,,,,,,,,,,,,,,,,,,,,,,,,,,,,
293014,2022-11-28_19h20.28.561,vts_reward_expectancy_bt,2022.2.4,Win32,240.1536984,Chrome,1536,864,,,a,1.5001,1,96,0,1,2,14,8,1,0,0,1,0,0,0,0,1,hexagon,star,,,,,,,,,,,,,,,,,,,,,,,,,,,,,,,,,,,,,,,,,,,,,,,,,,,,,,
293014,2022-11-28_19h20.28.561,vts_reward_expectancy_bt,2022.2.4,Win32,240.1536984,Chrome,1536,864,,,a,1.2574,10,106,0,1,3,15,0,1,1,0,0,0,0,1,0,0,triangle,circle,,,,,,,,,,,,,,,,,,,,,,,,,,,,,,,,,,,,,,,,,,,,,,,,,,,,,,
293014,2022-11-28_19h20.28.561,vts_reward_expectancy_bt,2022.2.4,Win32,240.1536984,Chrome,1536,864,,,a,1.3589,10,116,0,1,4,16,2,1,1,0,0,0,0,0,0,1,triangle,star,,,,,,,,,,,,,,,,,,,,,,,,,,,,,,,,,,,,,,,,,,,,,,,,,,,,,,
293014,2022-11-28_19h20.28.561,vts_reward_expectancy_bt,2022.2.4,Win32,240.1536984,Chrome,1536,864,,,l,1.9959,10,126,0,1,5,17,11,1,0,0,0,1,0,0,1,0,star,hexagon,,,,,,,,,,,,,,,,,,,,,,,,,,,,,,,,,,,,,,,,,,,,,,,,,,,,,,
293014,2022-11-28_19h20.28.561,vts_reward_expectancy_bt,2022.2.4,Win32,240.1536984,Chrome,1536,864,,,a,0.4751,1,127,0,1,6,18,1,1,1,0,0,0,0,0,1,0,triangle,hexagon,,,,,,,,,,,,,,,,,,,,,,,,,,,,,,,,,,,,,,,,,,,,,,,,,,,,,,
293014,2022-11-28_19h20.28.561,vts_reward_expectancy_bt,2022.2.4,Win32,240.1536984,Chrome,1536,864,,,l,0.6685,1,128,0,1,7,19,9,1,0,0,0,1,1,0,0,0,star,triangle,,,,,,,,,,,,,,,,,,,,,,,,,,,,,,,,,,,,,,,,,,,,,,,,,,,,,,
293014,2022-11-28_19h20.28.561,vts_reward_expectancy_bt,2022.2.4,Win32,240.1536984,Chrome,1536,864,,,a,1.6528,1,129,0,1,8,20,10,1,0,0,0,1,0,1,0,0,star ,circle,,,,,,,,,,,,,,,,,,,,,,,,,,,,,,,,,,,,,,,,,,,,,,,,,,,,,,
293014,2022-11-28_19h20.28.561,vts_reward_expectancy_bt,2022.2.4,Win32,240.1536984,Chrome,1536,864,,,a,1.8784,1,130,0,1,9,21,7,1,0,0,1,0,0,1,0,0,hexagon,circle,,,,,,,,,,,,,,,,,,,,,,,,,,,,,,,,,,,,,,,,,,,,,,,,,,,,,,
293014,2022-11-28_19h20.28.561,vts_reward_expectancy_bt,2022.2.4,Win32,240.1536984,Chrome,1536,864,,,a,1.3326,1,131,0,1,10,22,4,1,0,1,0,0,0,0,1,0,circle,hexagon,,,,,,,,,,,,,,,,,,,,,,,,,,,,,,,,,,,,,,,,,,,,,,,,,,,,,,
293014,2022-11-28_19h20.28.561,vts_reward_expectancy_bt,2022.2.4,Win32,240.1536984,Chrome,1536,864,,,l,0.8918,10,141,0,1,11,23,3,1,0,1,0,0,1,0,0,0,circle,triangle,,,,,,,,,,,,,,,,,,,,,,,,,,,,,,,,,,,,,,,,,,,,,,,,,,,,,,
293014,2022-11-28_19h20.28.561,vts_reward_expectancy_bt,2022.2.4,Win32,240.1536984,Chrome,1536,864,,,l,0.8663,1,142,0,2,0,24,4,1,0,1,0,0,0,0,1,0,circle,hexagon,,,,,,,,,,,,,,,,,,,,,,,,,,,,,,,,,,,,,,,,,,,,,,,,,,,,,,
293014,2022-11-28_19h20.28.561,vts_reward_expectancy_bt,2022.2.4,Win32,240.1536984,Chrome,1536,864,,,l,2.0167,1,143,0,2,1,25,8,1,0,0,1,0,0,0,0,1,hexagon,star,,,,,,,,,,,,,,,,,,,,,,,,,,,,,,,,,,,,,,,,,,,,,,,,,,,,,,
293014,2022-11-28_19h20.28.561,vts_reward_expectancy_bt,2022.2.4,Win32,240.1536984,Chrome,1536,864,,,l,1.1915,1,144,0,2,2,26,5,1,0,1,0,0,0,0,0,1,circle,star,,,,,,,,,,,,,,,,,,,,,,,,,,,,,,,,,,,,,,,,,,,,,,,,,,,,,,
293014,2022-11-28_19h20.28.561,vts_reward_expectancy_bt,2022.2.4,Win32,240.1536984,Chrome,1536,864,,,l,1.1389,1,145,0,2,3,27,6,1,0,0,1,0,1,0,0,0,hexagon,triangle,,,,,,,,,,,,,,,,,,,,,,,,,,,,,,,,,,,,,,,,,,,,,,,,,,,,,,
293014,2022-11-28_19h20.28.561,vts_reward_expectancy_bt,2022.2.4,Win32,240.1536984,Chrome,1536,864,,,a,1.0339,10,155,0,2,4,28,1,1,1,0,0,0,0,0,1,0,triangle,hexagon,,,,,,,,,,,,,,,,,,,,,,,,,,,,,,,,,,,,,,,,,,,,,,,,,,,,,,
293014,2022-11-28_19h20.28.561,vts_reward_expectancy_bt,2022.2.4,Win32,240.1536984,Chrome,1536,864,,,a,0.8822,10,165,0,2,5,29,10,1,0,0,0,1,0,1,0,0,star ,circle,,,,,,,,,,,,,,,,,,,,,,,,,,,,,,,,,,,,,,,,,,,,,,,,,,,,,,
293014,2022-11-28_19h20.28.561,vts_reward_expectancy_bt,2022.2.4,Win32,240.1536984,Chrome,1536,864,,,l,1.1256,1,166,0,2,6,30,9,1,0,0,0,1,1,0,0,0,star,triangle,,,,,,,,,,,,,,,,,,,,,,,,,,,,,,,,,,,,,,,,,,,,,,,,,,,,,,
293014,2022-11-28_19h20.28.561,vts_reward_expectancy_bt,2022.2.4,Win32,240.1536984,Chrome,1536,864,,,a,0.5091,10,176,0,2,7,31,11,1,0,0,0,1,0,0,1,0,star,hexagon,,,,,,,,,,,,,,,,,,,,,,,,,,,,,,,,,,,,,,,,,,,,,,,,,,,,,,
293014,2022-11-28_19h20.28.561,vts_reward_expectancy_bt,2022.2.4,Win32,240.1536984,Chrome,1536,864,,,a,0.8589,10,186,0,2,8,32,0,1,1,0,0,0,0,1,0,0,triangle,circle,,,,,,,,,,,,,,,,,,,,,,,,,,,,,,,,,,,,,,,,,,,,,,,,,,,,,,
293014,2022-11-28_19h20.28.561,vts_reward_expectancy_bt,2022.2.4,Win32,240.1536984,Chrome,1536,864,,,l,0.5093,1,187,0,2,9,33,2,1,1,0,0,0,0,0,0,1,triangle,star,,,,,,,,,,,,,,,,,,,,,,,,,,,,,,,,,,,,,,,,,,,,,,,,,,,,,,
293014,2022-11-28_19h20.28.561,vts_reward_expectancy_bt,2022.2.4,Win32,240.1536984,Chrome,1536,864,,,a,1.3653,1,188,0,2,10,34,7,1,0,0,1,0,0,1,0,0,hexagon,circle,,,,,,,,,,,,,,,,,,,,,,,,,,,,,,,,,,,,,,,,,,,,,,,,,,,,,,
293014,2022-11-28_19h20.28.561,vts_reward_expectancy_bt,2022.2.4,Win32,240.1536984,Chrome,1536,864,,,l,0.8132,10,198,0,2,11,35,3,1,0,1,0,0,1,0,0,0,circle,triangle,,,,,,,,,,,,,,,,,,,,,,,,,,,,,,,,,,,,,,,,,,,,,,,,,,,,,,
293014,2022-11-28_19h20.28.561,vts_reward_expectancy_bt,2022.2.4,Win32,240.1536984,Chrome,1536,864,,,a,1.4815,10,208,1,0,0,0,11,1,0,0,0,1,0,0,1,0,star,hexagon,,,,,,,,,,,,,,,,,,,,,,,,,,,,,,,,,,,,,,,,,,,,,,,,,,,,,,
293014,2022-11-28_19h20.28.561,vts_reward_expectancy_bt,2022.2.4,Win32,240.1536984,Chrome,1536,864,,,l,0.43,1,209,1,0,1,1,8,1,0,0,1,0,0,0,0,1,hexagon,star,,,,,,,,,,,,,,,,,,,,,,,,,,,,,,,,,,,,,,,,,,,,,,,,,,,,,,
293014,2022-11-28_19h20.28.561,vts_reward_expectancy_bt,2022.2.4,Win32,240.1536984,Chrome,1536,864,,,a,1.2878,10,219,1,0,2,2,4,1,0,1,0,0,0,0,1,0,circle,hexagon,,,,,,,,,,,,,,,,,,,,,,,,,,,,,,,,,,,,,,,,,,,,,,,,,,,,,,
293014,2022-11-28_19h20.28.561,vts_reward_expectancy_bt,2022.2.4,Win32,240.1536984,Chrome,1536,864,,,l,0.8207,10,229,1,0,3,3,9,1,0,0,0,1,1,0,0,0,star,triangle,,,,,,,,,,,,,,,,,,,,,,,,,,,,,,,,,,,,,,,,,,,,,,,,,,,,,,
293014,2022-11-28_19h20.28.561,vts_reward_expectancy_bt,2022.2.4,Win32,240.1536984,Chrome,1536,864,,,a,0.6989,10,239,1,0,4,4,5,1,0,1,0,0,0,0,0,1,circle,star,,,,,,,,,,,,,,,,,,,,,,,,,,,,,,,,,,,,,,,,,,,,,,,,,,,,,,
293014,2022-11-28_19h20.28.561,vts_reward_expectancy_bt,2022.2.4,Win32,240.1536984,Chrome,1536,864,,,l,0.8881,10,249,1,0,5,5,3,1,0,1,0,0,1,0,0,0,circle,triangle,,,,,,,,,,,,,,,,,,,,,,,,,,,,,,,,,,,,,,,,,,,,,,,,,,,,,,
293014,2022-11-28_19h20.28.561,vts_reward_expectancy_bt,2022.2.4,Win32,240.1536984,Chrome,1536,864,,,l,0.8797,10,259,1,0,6,6,6,1,0,0,1,0,1,0,0,0,hexagon,triangle,,,,,,,,,,,,,,,,,,,,,,,,,,,,,,,,,,,,,,,,,,,,,,,,,,,,,,
293014,2022-11-28_19h20.28.561,vts_reward_expectancy_bt,2022.2.4,Win32,240.1536984,Chrome,1536,864,,,l,1.0459,10,269,1,0,7,7,2,1,1,0,0,0,0,0,0,1,triangle,star,,,,,,,,,,,,,,,,,,,,,,,,,,,,,,,,,,,,,,,,,,,,,,,,,,,,,,
293014,2022-11-28_19h20.28.561,vts_reward_expectancy_bt,2022.2.4,Win32,240.1536984,Chrome,1536,864,,,l,1.6587,1,270,1,0,8,8,7,1,0,0,1,0,0,1,0,0,hexagon,circle,,,,,,,,,,,,,,,,,,,,,,,,,,,,,,,,,,,,,,,,,,,,,,,,,,,,,,
293014,2022-11-28_19h20.28.561,vts_reward_expectancy_bt,2022.2.4,Win32,240.1536984,Chrome,1536,864,,,a,0.8336,10,280,1,0,9,9,0,1,1,0,0,0,0,1,0,0,triangle,circle,,,,,,,,,,,,,,,,,,,,,,,,,,,,,,,,,,,,,,,,,,,,,,,,,,,,,,
293014,2022-11-28_19h20.28.561,vts_reward_expectancy_bt,2022.2.4,Win32,240.1536984,Chrome,1536,864,,,a,0.8835,1,281,1,0,10,10,1,1,1,0,0,0,0,0,1,0,triangle,hexagon,,,,,,,,,,,,,,,,,,,,,,,,,,,,,,,,,,,,,,,,,,,,,,,,,,,,,,
293014,2022-11-28_19h20.28.561,vts_reward_expectancy_bt,2022.2.4,Win32,240.1536984,Chrome,1536,864,,,a,0.8924,1,282,1,0,11,11,10,1,0,0,0,1,0,1,0,0,star ,circle,,,,,,,,,,,,,,,,,,,,,,,,,,,,,,,,,,,,,,,,,,,,,,,,,,,,,,
293014,2022-11-28_19h20.28.561,vts_reward_expectancy_bt,2022.2.4,Win32,240.1536984,Chrome,1536,864,,,a,0.6673,1,283,1,1,0,12,10,1,0,0,0,1,0,1,0,0,star ,circle,,,,,,,,,,,,,,,,,,,,,,,,,,,,,,,,,,,,,,,,,,,,,,,,,,,,,,
293014,2022-11-28_19h20.28.561,vts_reward_expectancy_bt,2022.2.4,Win32,240.1536984,Chrome,1536,864,,,a,0.6627,10,293,1,1,1,13,0,1,1,0,0,0,0,1,0,0,triangle,circle,,,,,,,,,,,,,,,,,,,,,,,,,,,,,,,,,,,,,,,,,,,,,,,,,,,,,,
293014,2022-11-28_19h20.28.561,vts_reward_expectancy_bt,2022.2.4,Win32,240.1536984,Chrome,1536,864,,,a,0.5679,10,303,1,1,2,14,1,1,1,0,0,0,0,0,1,0,triangle,hexagon,,,,,,,,,,,,,,,,,,,,,,,,,,,,,,,,,,,,,,,,,,,,,,,,,,,,,,
293014,2022-11-28_19h20.28.561,vts_reward_expectancy_bt,2022.2.4,Win32,240.1536984,Chrome,1536,864,,,l,0.4174,1,304,1,1,3,15,6,1,0,0,1,0,1,0,0,0,hexagon,triangle,,,,,,,,,,,,,,,,,,,,,,,,,,,,,,,,,,,,,,,,,,,,,,,,,,,,,,
293014,2022-11-28_19h20.28.561,vts_reward_expectancy_bt,2022.2.4,Win32,240.1536984,Chrome,1536,864,,,l,1.3041,10,314,1,1,4,16,7,1,0,0,1,0,0,1,0,0,hexagon,circle,,,,,,,,,,,,,,,,,,,,,,,,,,,,,,,,,,,,,,,,,,,,,,,,,,,,,,
293014,2022-11-28_19h20.28.561,vts_reward_expectancy_bt,2022.2.4,Win32,240.1536984,Chrome,1536,864,,,l,0.7132,10,324,1,1,5,17,3,1,0,1,0,0,1,0,0,0,circle,triangle,,,,,,,,,,,,,,,,,,,,,,,,,,,,,,,,,,,,,,,,,,,,,,,,,,,,,,
293014,2022-11-28_19h20.28.561,vts_reward_expectancy_bt,2022.2.4,Win32,240.1536984,Chrome,1536,864,,,l,1.1544,10,334,1,1,6,18,9,1,0,0,0,1,1,0,0,0,star,triangle,,,,,,,,,,,,,,,,,,,,,,,,,,,,,,,,,,,,,,,,,,,,,,,,,,,,,,
293014,2022-11-28_19h20.28.561,vts_reward_expectancy_bt,2022.2.4,Win32,240.1536984,Chrome,1536,864,,,l,1.0882,1,335,1,1,7,19,5,1,0,1,0,0,0,0,0,1,circle,star,,,,,,,,,,,,,,,,,,,,,,,,,,,,,,,,,,,,,,,,,,,,,,,,,,,,,,
293014,2022-11-28_19h20.28.561,vts_reward_expectancy_bt,2022.2.4,Win32,240.1536984,Chrome,1536,864,,,a,0.8086,10,345,1,1,8,20,11,1,0,0,0,1,0,0,1,0,star,hexagon,,,,,,,,,,,,,,,,,,,,,,,,,,,,,,,,,,,,,,,,,,,,,,,,,,,,,,
293014,2022-11-28_19h20.28.561,vts_reward_expectancy_bt,2022.2.4,Win32,240.1536984,Chrome,1536,864,,,a,1.6633,10,355,1,1,9,21,2,1,1,0,0,0,0,0,0,1,triangle,star,,,,,,,,,,,,,,,,,,,,,,,,,,,,,,,,,,,,,,,,,,,,,,,,,,,,,,
293014,2022-11-28_19h20.28.561,vts_reward_expectancy_bt,2022.2.4,Win32,240.1536984,Chrome,1536,864,,,l,0.9336,10,365,1,1,10,22,8,1,0,0,1,0,0,0,0,1,hexagon,star,,,,,,,,,,,,,,,,,,,,,,,,,,,,,,,,,,,,,,,,,,,,,,,,,,,,,,
293014,2022-11-28_19h20.28.561,vts_reward_expectancy_bt,2022.2.4,Win32,240.1536984,Chrome,1536,864,,,a,2.3261,10,375,1,1,11,23,4,1,0,1,0,0,0,0,1,0,circle,hexagon,,,,,,,,,,,,,,,,,,,,,,,,,,,,,,,,,,,,,,,,,,,,,,,,,,,,,,
293014,2022-11-28_19h20.28.561,vts_reward_expectancy_bt,2022.2.4,Win32,240.1536984,Chrome,1536,864,,,a,0.6298,1,376,1,2,0,24,1,1,1,0,0,0,0,0,1,0,triangle,hexagon,,,,,,,,,,,,,,,,,,,,,,,,,,,,,,,,,,,,,,,,,,,,,,,,,,,,,,
293014,2022-11-28_19h20.28.561,vts_reward_expectancy_bt,2022.2.4,Win32,240.1536984,Chrome,1536,864,,,l,1.1091,1,377,1,2,1,25,5,1,0,1,0,0,0,0,0,1,circle,star,,,,,,,,,,,,,,,,,,,,,,,,,,,,,,,,,,,,,,,,,,,,,,,,,,,,,,
293014,2022-11-28_19h20.28.561,vts_reward_expectancy_bt,2022.2.4,Win32,240.1536984,Chrome,1536,864,,,l,0.7166,10,387,1,2,2,26,3,1,0,1,0,0,1,0,0,0,circle,triangle,,,,,,,,,,,,,,,,,,,,,,,,,,,,,,,,,,,,,,,,,,,,,,,,,,,,,,
293014,2022-11-28_19h20.28.561,vts_reward_expectancy_bt,2022.2.4,Win32,240.1536984,Chrome,1536,864,,,a,1.3307,1,388,1,2,3,27,2,1,1,0,0,0,0,0,0,1,triangle,star,,,,,,,,,,,,,,,,,,,,,,,,,,,,,,,,,,,,,,,,,,,,,,,,,,,,,,
293014,2022-11-28_19h20.28.561,vts_reward_expectancy_bt,2022.2.4,Win32,240.1536984,Chrome,1536,864,,,a,0.8373,10,398,1,2,4,28,11,1,0,0,0,1,0,0,1,0,star,hexagon,,,,,,,,,,,,,,,,,,,,,,,,,,,,,,,,,,,,,,,,,,,,,,,,,,,,,,
293014,2022-11-28_19h20.28.561,vts_reward_expectancy_bt,2022.2.4,Win32,240.1536984,Chrome,1536,864,,,l,1.7565,10,408,1,2,5,29,7,1,0,0,1,0,0,1,0,0,hexagon,circle,,,,,,,,,,,,,,,,,,,,,,,,,,,,,,,,,,,,,,,,,,,,,,,,,,,,,,
293014,2022-11-28_19h20.28.561,vts_reward_expectancy_bt,2022.2.4,Win32,240.1536984,Chrome,1536,864,,,a,0.5605,10,418,1,2,6,30,10,1,0,0,0,1,0,1,0,0,star ,circle,,,,,,,,,,,,,,,,,,,,,,,,,,,,,,,,,,,,,,,,,,,,,,,,,,,,,,
293014,2022-11-28_19h20.28.561,vts_reward_expectancy_bt,2022.2.4,Win32,240.1536984,Chrome,1536,864,,,l,0.7383,10,428,1,2,7,31,9,1,0,0,0,1,1,0,0,0,star,triangle,,,,,,,,,,,,,,,,,,,,,,,,,,,,,,,,,,,,,,,,,,,,,,,,,,,,,,
293014,2022-11-28_19h20.28.561,vts_reward_expectancy_bt,2022.2.4,Win32,240.1536984,Chrome,1536,864,,,l,0.9311,10,438,1,2,8,32,8,1,0,0,1,0,0,0,0,1,hexagon,star,,,,,,,,,,,,,,,,,,,,,,,,,,,,,,,,,,,,,,,,,,,,,,,,,,,,,,
293014,2022-11-28_19h20.28.561,vts_reward_expectancy_bt,2022.2.4,Win32,240.1536984,Chrome,1536,864,,,a,0.8174,10,448,1,2,9,33,0,1,1,0,0,0,0,1,0,0,triangle,circle,,,,,,,,,,,,,,,,,,,,,,,,,,,,,,,,,,,,,,,,,,,,,,,,,,,,,,
293014,2022-11-28_19h20.28.561,vts_reward_expectancy_bt,2022.2.4,Win32,240.1536984,Chrome,1536,864,,,l,0.7172,1,449,1,2,10,34,6,1,0,0,1,0,1,0,0,0,hexagon,triangle,,,,,,,,,,,,,,,,,,,,,,,,,,,,,,,,,,,,,,,,,,,,,,,,,,,,,,
293014,2022-11-28_19h20.28.561,vts_reward_expectancy_bt,2022.2.4,Win32,240.1536984,Chrome,1536,864,,,l,0.8736,1,450,1,2,11,35,4,1,0,1,0,0,0,0,1,0,circle,hexagon,,,,,,,,,,,,,,,,,,,,,,,,,,,,,,,,,,,,,,,,,,,,,,,,,,,,,,
293014,2022-11-28_19h20.28.561,vts_reward_expectancy_bt,2022.2.4,Win32,240.1536984,Chrome,1536,864,,,a,2.4125,1,451,2,0,0,0,10,1,0,0,0,1,0,1,0,0,star ,circle,,,,,,,,,,,,,,,,,,,,,,,,,,,,,,,,,,,,,,,,,,,,,,,,,,,,,,
293014,2022-11-28_19h20.28.561,vts_reward_expectancy_bt,2022.2.4,Win32,240.1536984,Chrome,1536,864,,,a,0.6594,1,452,2,0,1,1,1,1,1,0,0,0,0,0,1,0,triangle,hexagon,,,,,,,,,,,,,,,,,,,,,,,,,,,,,,,,,,,,,,,,,,,,,,,,,,,,,,
293014,2022-11-28_19h20.28.561,vts_reward_expectancy_bt,2022.2.4,Win32,240.1536984,Chrome,1536,864,,,a,0.9133,1,453,2,0,2,2,4,1,0,1,0,0,0,0,1,0,circle,hexagon,,,,,,,,,,,,,,,,,,,,,,,,,,,,,,,,,,,,,,,,,,,,,,,,,,,,,,
293014,2022-11-28_19h20.28.561,vts_reward_expectancy_bt,2022.2.4,Win32,240.1536984,Chrome,1536,864,,,a,0.6227,1,454,2,0,3,3,11,1,0,0,0,1,0,0,1,0,star,hexagon,,,,,,,,,,,,,,,,,,,,,,,,,,,,,,,,,,,,,,,,,,,,,,,,,,,,,,
293014,2022-11-28_19h20.28.561,vts_reward_expectancy_bt,2022.2.4,Win32,240.1536984,Chrome,1536,864,,,a,0.6215,10,464,2,0,4,4,2,1,1,0,0,0,0,0,0,1,triangle,star,,,,,,,,,,,,,,,,,,,,,,,,,,,,,,,,,,,,,,,,,,,,,,,,,,,,,,
293014,2022-11-28_19h20.28.561,vts_reward_expectancy_bt,2022.2.4,Win32,240.1536984,Chrome,1536,864,,,l,0.6174,10,474,2,0,5,5,9,1,0,0,0,1,1,0,0,0,star,triangle,,,,,,,,,,,,,,,,,,,,,,,,,,,,,,,,,,,,,,,,,,,,,,,,,,,,,,
293014,2022-11-28_19h20.28.561,vts_reward_expectancy_bt,2022.2.4,Win32,240.1536984,Chrome,1536,864,,,l,0.5049,1,475,2,0,6,6,6,1,0,0,1,0,1,0,0,0,hexagon,triangle,,,,,,,,,,,,,,,,,,,,,,,,,,,,,,,,,,,,,,,,,,,,,,,,,,,,,,
293014,2022-11-28_19h20.28.561,vts_reward_expectancy_bt,2022.2.4,Win32,240.1536984,Chrome,1536,864,,,l,0.7875,1,476,2,0,7,7,5,1,0,1,0,0,0,0,0,1,circle,star,,,,,,,,,,,,,,,,,,,,,,,,,,,,,,,,,,,,,,,,,,,,,,,,,,,,,,
293014,2022-11-28_19h20.28.561,vts_reward_expectancy_bt,2022.2.4,Win32,240.1536984,Chrome,1536,864,,,a,0.9171,10,486,2,0,8,8,7,1,0,0,1,0,0,1,0,0,hexagon,circle,,,,,,,,,,,,,,,,,,,,,,,,,,,,,,,,,,,,,,,,,,,,,,,,,,,,,,
293014,2022-11-28_19h20.28.561,vts_reward_expectancy_bt,2022.2.4,Win32,240.1536984,Chrome,1536,864,,,a,0.7555,10,496,2,0,9,9,0,1,1,0,0,0,0,1,0,0,triangle,circle,,,,,,,,,,,,,,,,,,,,,,,,,,,,,,,,,,,,,,,,,,,,,,,,,,,,,,
293014,2022-11-28_19h20.28.561,vts_reward_expectancy_bt,2022.2.4,Win32,240.1536984,Chrome,1536,864,,,l,0.6715,10,506,2,0,10,10,8,1,0,0,1,0,0,0,0,1,hexagon,star,,,,,,,,,,,,,,,,,,,,,,,,,,,,,,,,,,,,,,,,,,,,,,,,,,,,,,
293014,2022-11-28_19h20.28.561,vts_reward_expectancy_bt,2022.2.4,Win32,240.1536984,Chrome,1536,864,,,l,0.8548,10,516,2,0,11,11,3,1,0,1,0,0,1,0,0,0,circle,triangle,,,,,,,,,,,,,,,,,,,,,,,,,,,,,,,,,,,,,,,,,,,,,,,,,,,,,,
293014,2022-11-28_19h20.28.561,vts_reward_expectancy_bt,2022.2.4,Win32,240.1536984,Chrome,1536,864,,,a,0.5523,1,517,2,1,0,12,0,1,1,0,0,0,0,1,0,0,triangle,circle,,,,,,,,,,,,,,,,,,,,,,,,,,,,,,,,,,,,,,,,,,,,,,,,,,,,,,
293014,2022-11-28_19h20.28.561,vts_reward_expectancy_bt,2022.2.4,Win32,240.1536984,Chrome,1536,864,,,l,0.4505,10,527,2,1,1,13,3,1,0,1,0,0,1,0,0,0,circle,triangle,,,,,,,,,,,,,,,,,,,,,,,,,,,,,,,,,,,,,,,,,,,,,,,,,,,,,,
293014,2022-11-28_19h20.28.561,vts_reward_expectancy_bt,2022.2.4,Win32,240.1536984,Chrome,1536,864,,,a,1.8004,10,537,2,1,2,14,2,1,1,0,0,0,0,0,0,1,triangle,star,,,,,,,,,,,,,,,,,,,,,,,,,,,,,,,,,,,,,,,,,,,,,,,,,,,,,,
293014,2022-11-28_19h20.28.561,vts_reward_expectancy_bt,2022.2.4,Win32,240.1536984,Chrome,1536,864,,,a,1.2543,1,538,2,1,3,15,5,1,0,1,0,0,0,0,0,1,circle,star,,,,,,,,,,,,,,,,,,,,,,,,,,,,,,,,,,,,,,,,,,,,,,,,,,,,,,
293014,2022-11-28_19h20.28.561,vts_reward_expectancy_bt,2022.2.4,Win32,240.1536984,Chrome,1536,864,,,l,1.213,10,548,2,1,4,16,7,1,0,0,1,0,0,1,0,0,hexagon,circle,,,,,,,,,,,,,,,,,,,,,,,,,,,,,,,,,,,,,,,,,,,,,,,,,,,,,,
293014,2022-11-28_19h20.28.561,vts_reward_expectancy_bt,2022.2.4,Win32,240.1536984,Chrome,1536,864,,,l,0.6255,10,558,2,1,5,17,9,1,0,0,0,1,1,0,0,0,star,triangle,,,,,,,,,,,,,,,,,,,,,,,,,,,,,,,,,,,,,,,,,,,,,,,,,,,,,,
293014,2022-11-28_19h20.28.561,vts_reward_expectancy_bt,2022.2.4,Win32,240.1536984,Chrome,1536,864,,,a,0.7964,10,568,2,1,6,18,11,1,0,0,0,1,0,0,1,0,star,hexagon,,,,,,,,,,,,,,,,,,,,,,,,,,,,,,,,,,,,,,,,,,,,,,,,,,,,,,
293014,2022-11-28_19h20.28.561,vts_reward_expectancy_bt,2022.2.4,Win32,240.1536984,Chrome,1536,864,,,l,0.5716,10,578,2,1,7,19,6,1,0,0,1,0,1,0,0,0,hexagon,triangle,,,,,,,,,,,,,,,,,,,,,,,,,,,,,,,,,,,,,,,,,,,,,,,,,,,,,,
293014,2022-11-28_19h20.28.561,vts_reward_expectancy_bt,2022.2.4,Win32,240.1536984,Chrome,1536,864,,,a,0.7717,10,588,2,1,8,20,10,1,0,0,0,1,0,1,0,0,star ,circle,,,,,,,,,,,,,,,,,,,,,,,,,,,,,,,,,,,,,,,,,,,,,,,,,,,,,,
293014,2022-11-28_19h20.28.561,vts_reward_expectancy_bt,2022.2.4,Win32,240.1536984,Chrome,1536,864,,,a,0.8087,1,589,2,1,9,21,1,1,1,0,0,0,0,0,1,0,triangle,hexagon,,,,,,,,,,,,,,,,,,,,,,,,,,,,,,,,,,,,,,,,,,,,,,,,,,,,,,
293014,2022-11-28_19h20.28.561,vts_reward_expectancy_bt,2022.2.4,Win32,240.1536984,Chrome,1536,864,,,a,0.809,10,599,2,1,10,22,4,1,0,1,0,0,0,0,1,0,circle,hexagon,,,,,,,,,,,,,,,,,,,,,,,,,,,,,,,,,,,,,,,,,,,,,,,,,,,,,,
293014,2022-11-28_19h20.28.561,vts_reward_expectancy_bt,2022.2.4,Win32,240.1536984,Chrome,1536,864,,,l,0.7216,1,600,2,1,11,23,8,1,0,0,1,0,0,0,0,1,hexagon,star,,,,,,,,,,,,,,,,,,,,,,,,,,,,,,,,,,,,,,,,,,,,,,,,,,,,,,
293014,2022-11-28_19h20.28.561,vts_reward_expectancy_bt,2022.2.4,Win32,240.1536984,Chrome,1536,864,,,l,0.6175,10,610,2,2,0,24,3,1,0,1,0,0,1,0,0,0,circle,triangle,,,,,,,,,,,,,,,,,,,,,,,,,,,,,,,,,,,,,,,,,,,,,,,,,,,,,,
293014,2022-11-28_19h20.28.561,vts_reward_expectancy_bt,2022.2.4,Win32,240.1536984,Chrome,1536,864,,,l,0.7143,10,620,2,2,1,25,5,1,0,1,0,0,0,0,0,1,circle,star,,,,,,,,,,,,,,,,,,,,,,,,,,,,,,,,,,,,,,,,,,,,,,,,,,,,,,
293014,2022-11-28_19h20.28.561,vts_reward_expectancy_bt,2022.2.4,Win32,240.1536984,Chrome,1536,864,,,a,0.5538,10,630,2,2,2,26,1,1,1,0,0,0,0,0,1,0,triangle,hexagon,,,,,,,,,,,,,,,,,,,,,,,,,,,,,,,,,,,,,,,,,,,,,,,,,,,,,,
293014,2022-11-28_19h20.28.561,vts_reward_expectancy_bt,2022.2.4,Win32,240.1536984,Chrome,1536,864,,,l,1.0424,10,640,2,2,3,27,7,1,0,0,1,0,0,1,0,0,hexagon,circle,,,,,,,,,,,,,,,,,,,,,,,,,,,,,,,,,,,,,,,,,,,,,,,,,,,,,,
293014,2022-11-28_19h20.28.561,vts_reward_expectancy_bt,2022.2.4,Win32,240.1536984,Chrome,1536,864,,,a,0.7758,1,641,2,2,4,28,11,1,0,0,0,1,0,0,1,0,star,hexagon,,,,,,,,,,,,,,,,,,,,,,,,,,,,,,,,,,,,,,,,,,,,,,,,,,,,,,
293014,2022-11-28_19h20.28.561,vts_reward_expectancy_bt,2022.2.4,Win32,240.1536984,Chrome,1536,864,,,a,0.9044,10,651,2,2,5,29,4,1,0,1,0,0,0,0,1,0,circle,hexagon,,,,,,,,,,,,,,,,,,,,,,,,,,,,,,,,,,,,,,,,,,,,,,,,,,,,,,
293014,2022-11-28_19h20.28.561,vts_reward_expectancy_bt,2022.2.4,Win32,240.1536984,Chrome,1536,864,,,a,0.7506,10,661,2,2,6,30,2,1,1,0,0,0,0,0,0,1,triangle,star,,,,,,,,,,,,,,,,,,,,,,,,,,,,,,,,,,,,,,,,,,,,,,,,,,,,,,
293014,2022-11-28_19h20.28.561,vts_reward_expectancy_bt,2022.2.4,Win32,240.1536984,Chrome,1536,864,,,l,0.4878,1,662,2,2,7,31,6,1,0,0,1,0,1,0,0,0,hexagon,triangle,,,,,,,,,,,,,,,,,,,,,,,,,,,,,,,,,,,,,,,,,,,,,,,,,,,,,,
293014,2022-11-28_19h20.28.561,vts_reward_expectancy_bt,2022.2.4,Win32,240.1536984,Chrome,1536,864,,,l,0.6463,10,672,2,2,8,32,9,1,0,0,0,1,1,0,0,0,star,triangle,,,,,,,,,,,,,,,,,,,,,,,,,,,,,,,,,,,,,,,,,,,,,,,,,,,,,,
293014,2022-11-28_19h20.28.561,vts_reward_expectancy_bt,2022.2.4,Win32,240.1536984,Chrome,1536,864,,,a,0.6423,10,682,2,2,9,33,10,1,0,0,0,1,0,1,0,0,star ,circle,,,,,,,,,,,,,,,,,,,,,,,,,,,,,,,,,,,,,,,,,,,,,,,,,,,,,,
293014,2022-11-28_19h20.28.561,vts_reward_expectancy_bt,2022.2.4,Win32,240.1536984,Chrome,1536,864,,,a,0.622,10,692,2,2,10,34,0,1,1,0,0,0,0,1,0,0,triangle,circle,,,,,,,,,,,,,,,,,,,,,,,,,,,,,,,,,,,,,,,,,,,,,,,,,,,,,,
293014,2022-11-28_19h20.28.561,vts_reward_expectancy_bt,2022.2.4,Win32,240.1536984,Chrome,1536,864,,,l,0.6426,10,702,2,2,11,35,8,1,0,0,1,0,0,0,0,1,hexagon,star,,,,,,,,,,,,,,,,,,,,,,,,,,,,,,,,,,,,,,,,,,,,,,,,,,,,,,
293014,2022-11-28_19h20.28.561,vts_reward_expectancy_bt,2022.2.4,Win32,240.1536984,Chrome,1536,864,,,,,,,,,,,,,,,,,,,,,,,181,H,hexagon,1,0,f,1.8546,0,0,0,0,0,1,,,,,,,,,,,,,,,,,,,,,,,,,,,,,,,,,,,,,,,,,
293014,2022-11-28_19h20.28.561,vts_reward_expectancy_bt,2022.2.4,Win32,240.1536984,Chrome,1536,864,,,,,,,,,,,,,,,,,,,,,,,146,B,triangle,1,0,d,0.6671,0,1,0,1,0,1,,,,,,,,,,,,,,,,,,,,,,,,,,,,,,,,,,,,,,,,,
293014,2022-11-28_19h20.28.561,vts_reward_expectancy_bt,2022.2.4,Win32,240.1536984,Chrome,1536,864,,,,,,,,,,,,,,,,,,,,,,,125,S,circle,1,0,d,0.6006,0,2,0,2,0,1,,,,,,,,,,,,,,,,,,,,,,,,,,,,,,,,,,,,,,,,,
293014,2022-11-28_19h20.28.561,vts_reward_expectancy_bt,2022.2.4,Win32,240.1536984,Chrome,1536,864,,,,,,,,,,,,,,,,,,,,,,,167,D,star,1,0,f,0.7593,0,3,0,3,0,1,,,,,,,,,,,,,,,,,,,,,,,,,,,,,,,,,,,,,,,,,
293014,2022-11-28_19h20.28.561,vts_reward_expectancy_bt,2022.2.4,Win32,240.1536984,Chrome,1536,864,,,,,,,,,,,,,,,,,,,,,,,139,F,hexagon,1,0,d,0.8526,0,4,0,4,0,1,,,,,,,,,,,,,,,,,,,,,,,,,,,,,,,,,,,,,,,,,
293014,2022-11-28_19h20.28.561,vts_reward_expectancy_bt,2022.2.4,Win32,240.1536984,Chrome,1536,864,,,,,,,,,,,,,,,,,,,,,,,174,W,triangle,1,0,f,0.7095,0,5,0,5,0,1,,,,,,,,,,,,,,,,,,,,,,,,,,,,,,,,,,,,,,,,,
293014,2022-11-28_19h20.28.561,vts_reward_expectancy_bt,2022.2.4,Win32,240.1536984,Chrome,1536,864,,,,,,,,,,,,,,,,,,,,,,,132,U,circle,1,0,d,0.6006,0,6,0,6,0,1,,,,,,,,,,,,,,,,,,,,,,,,,,,,,,,,,,,,,,,,,
293014,2022-11-28_19h20.28.561,vts_reward_expectancy_bt,2022.2.4,Win32,240.1536984,Chrome,1536,864,,,,,,,,,,,,,,,,,,,,,,,160,Y,star,1,0,f,0.7506,0,7,0,7,0,1,,,,,,,,,,,,,,,,,,,,,,,,,,,,,,,,,,,,,,,,,
293014,2022-11-28_19h20.28.561,vts_reward_expectancy_bt,2022.2.4,Win32,240.1536984,Chrome,1536,864,,,,,,,,,,,,,,,,,,,,,,,181,H,triangle,1,0,f,0.7381,0,8,0,8,0,1,,,,,,,,,,,,,,,,,,,,,,,,,,,,,,,,,,,,,,,,,
293014,2022-11-28_19h20.28.561,vts_reward_expectancy_bt,2022.2.4,Win32,240.1536984,Chrome,1536,864,,,,,,,,,,,,,,,,,,,,,,,146,B,star,1,0,d,0.4639,0,9,0,9,0,1,,,,,,,,,,,,,,,,,,,,,,,,,,,,,,,,,,,,,,,,,
293014,2022-11-28_19h20.28.561,vts_reward_expectancy_bt,2022.2.4,Win32,240.1536984,Chrome,1536,864,,,,,,,,,,,,,,,,,,,,,,,174,U,circle,1,0,,,1,,,,,,k,1.6534,0,0,0,0,1,,,,,,,,,,,,,,,,,,,,,,,,,,,,,,,,,,
293014,2022-11-28_19h20.28.561,vts_reward_expectancy_bt,2022.2.4,Win32,240.1536984,Chrome,1536,864,,,,,,,,,,,,,,,,,,,,,,,160,D,star,1,0,,,1,,,,,,j,0.5755,1,0,1,0,1,,,,,,,,,,,,,,,,,,,,,,,,,,,,,,,,,,
293014,2022-11-28_19h20.28.561,vts_reward_expectancy_bt,2022.2.4,Win32,240.1536984,Chrome,1536,864,,,,,,,,,,,,,,,,,,,,,,,167,B,triangle,1,0,,,1,,,,,,j,0.518,2,0,2,0,1,,,,,,,,,,,,,,,,,,,,,,,,,,,,,,,,,,
293014,2022-11-28_19h20.28.561,vts_reward_expectancy_bt,2022.2.4,Win32,240.1536984,Chrome,1536,864,,,,,,,,,,,,,,,,,,,,,,,139,F,hexagon,1,0,,,1,,,,,,j,0.5714,3,0,3,0,1,,,,,,,,,,,,,,,,,,,,,,,,,,,,,,,,,,
293014,2022-11-28_19h20.28.561,vts_reward_expectancy_bt,2022.2.4,Win32,240.1536984,Chrome,1536,864,,,,,,,,,,,,,,,,,,,,,,,181,S,circle,1,0,,,1,,,,,,k,0.7172,4,0,4,0,1,,,,,,,,,,,,,,,,,,,,,,,,,,,,,,,,,,
293014,2022-11-28_19h20.28.561,vts_reward_expectancy_bt,2022.2.4,Win32,240.1536984,Chrome,1536,864,,,,,,,,,,,,,,,,,,,,,,,132,Y,star,1,0,,,1,,,,,,k,0.5468,5,0,5,0,1,,,,,,,,,,,,,,,,,,,,,,,,,,,,,,,,,,
293014,2022-11-28_19h20.28.561,vts_reward_expectancy_bt,2022.2.4,Win32,240.1536984,Chrome,1536,864,,,,,,,,,,,,,,,,,,,,,,,125,W,triangle,1,0,,,1,,,,,,k,0.5464,6,0,6,0,1,,,,,,,,,,,,,,,,,,,,,,,,,,,,,,,,,,
293014,2022-11-28_19h20.28.561,vts_reward_expectancy_bt,2022.2.4,Win32,240.1536984,Chrome,1536,864,,,,,,,,,,,,,,,,,,,,,,,146,H,hexagon,1,0,,,1,,,,,,j,0.7982,7,0,7,0,1,,,,,,,,,,,,,,,,,,,,,,,,,,,,,,,,,,
293014,2022-11-28_19h20.28.561,vts_reward_expectancy_bt,2022.2.4,Win32,240.1536984,Chrome,1536,864,,,,,,,,,,,,,,,,,,,,,,,174,U,hexagon,1,0,,,1,,,,,,k,0.9836,8,0,8,0,1,,,,,,,,,,,,,,,,,,,,,,,,,,,,,,,,,,
293014,2022-11-28_19h20.28.561,vts_reward_expectancy_bt,2022.2.4,Win32,240.1536984,Chrome,1536,864,,,,,,,,,,,,,,,,,,,,,,,160,D,circle,1,0,,,1,,,,,,j,0.5924,9,0,9,0,1,,,,,,,,,,,,,,,,,,,,,,,,,,,,,,,,,,
293014,2022-11-28_19h20.28.561,vts_reward_expectancy_bt,2022.2.4,Win32,240.1536984,Chrome,1536,864,,,,,0,702,,,,,,,,,,,,,,,,,174,W,hexagon,1,0,,,2,,,,,,,,,,,,,-1,number,NA,f,0.8852,vtsPrac,0,0,0,0,1,,,,,,,,,,,,,,,,,,,,,,,
293014,2022-11-28_19h20.28.561,vts_reward_expectancy_bt,2022.2.4,Win32,240.1536984,Chrome,1536,864,,,,,0,702,,,,,,,,,,,,,,,,,132,B,triangle,1,0,,,2,,,,,,,,,,,,,repeat,number,numRpt,d,0.6214,vtsPrac,1,0,1,0,1,,,,,,,,,,,,,,,,,,,,,,,
293014,2022-11-28_19h20.28.561,vts_reward_expectancy_bt,2022.2.4,Win32,240.1536984,Chrome,1536,864,,,,,0,702,,,,,,,,,,,,,,,,,146,Y,hexagon,1,0,,,2,,,,,,,,,,,,,switch,letter,lettSwt,k,0.48,vtsPrac,2,0,2,0,1,,,,,,,,,,,,,,,,,,,,,,,
293014,2022-11-28_19h20.28.561,vts_reward_expectancy_bt,2022.2.4,Win32,240.1536984,Chrome,1536,864,,,,,0,702,,,,,,,,,,,,,,,,,139,U,triangle,1,0,,,2,,,,,,,,,,,,,repeat,letter,lettRpt,k,1.1302,vtsPrac,3,0,3,0,1,,,,,,,,,,,,,,,,,,,,,,,
293014,2022-11-28_19h20.28.561,vts_reward_expectancy_bt,2022.2.4,Win32,240.1536984,Chrome,1536,864,,,,,0,702,,,,,,,,,,,,,,,,,174,W,triangle,1,0,,,2,,,,,,,,,,,,,repeat,letter,lettRpt,k,0.5091,vtsPrac,4,0,4,0,1,,,,,,,,,,,,,,,,,,,,,,,
293014,2022-11-28_19h20.28.561,vts_reward_expectancy_bt,2022.2.4,Win32,240.1536984,Chrome,1536,864,,,,,0,702,,,,,,,,,,,,,,,,,132,B,star,1,0,,,2,,,,,,,,,,,,,switch,number,numSwt,d,0.5589,vtsPrac,5,0,5,0,1,,,,,,,,,,,,,,,,,,,,,,,
293014,2022-11-28_19h20.28.561,vts_reward_expectancy_bt,2022.2.4,Win32,240.1536984,Chrome,1536,864,,,,,0,702,,,,,,,,,,,,,,,,,146,Y,circle,1,0,,,2,,,,,,,,,,,,,switch,letter,lettSwt,k,1.2216,vtsPrac,6,0,6,0,1,,,,,,,,,,,,,,,,,,,,,,,
293014,2022-11-28_19h20.28.561,vts_reward_expectancy_bt,2022.2.4,Win32,240.1536984,Chrome,1536,864,,,,,0,702,,,,,,,,,,,,,,,,,139,U,triangle,1,0,,,2,,,,,,,,,,,,,repeat,letter,lettRpt,k,0.5798,vtsPrac,7,0,7,0,1,,,,,,,,,,,,,,,,,,,,,,,
293014,2022-11-28_19h20.28.561,vts_reward_expectancy_bt,2022.2.4,Win32,240.1536984,Chrome,1536,864,,,,,0,702,,,,,,,,,,,,,,,,,132,S,circle,1,0,,,2,,,,,,,,,,,,,repeat,letter,lettRpt,k,0.5881,vtsPrac,8,0,8,0,1,,,,,,,,,,,,,,,,,,,,,,,
293014,2022-11-28_19h20.28.561,vts_reward_expectancy_bt,2022.2.4,Win32,240.1536984,Chrome,1536,864,,,,,0,702,,,,,,,,,,,,,,,,,174,W,star,1,0,,,2,,,,,,,,,,,,,switch,number,numSwt,f,0.4757,vtsPrac,9,0,9,0,1,,,,,,,,,,,,,,,,,,,,,,,
293014,2022-11-28_19h20.28.561,vts_reward_expectancy_bt,2022.2.4,Win32,240.1536984,Chrome,1536,864,,,,,0,702,,,,,,,,,,,,,,,,,167,U,star,1,0,,,2,,,,,,,,,,,,,switch,letter,lettSwt,k,0.6464,vtsPrac,10,0,10,0,1,,,,,,,,,,,,,,,,,,,,,,,
293014,2022-11-28_19h20.28.561,vts_reward_expectancy_bt,2022.2.4,Win32,240.1536984,Chrome,1536,864,,,,,0,702,,,,,,,,,,,,,,,,,139,D,circle,1,0,,,2,,,,,,,,,,,,,switch,number,numSwt,d,0.4632,vtsPrac,11,0,11,0,1,,,,,,,,,,,,,,,,,,,,,,,
293014,2022-11-28_19h20.28.561,vts_reward_expectancy_bt,2022.2.4,Win32,240.1536984,Chrome,1536,864,,,,,0,702,,,,,,,,,,,,,,,,,160,F,triangle,1,0,,,2,,,,,,,,,,,,,repeat,number,numRpt,f,0.4965,vtsPrac,12,0,12,0,1,,,,,,,,,,,,,,,,,,,,,,,
293014,2022-11-28_19h20.28.561,vts_reward_expectancy_bt,2022.2.4,Win32,240.1536984,Chrome,1536,864,,,,,0,702,,,,,,,,,,,,,,,,,181,Y,hexagon,1,0,,,2,,,,,,,,,,,,,repeat,number,numRpt,f,0.5255,vtsPrac,13,0,13,0,1,,,,,,,,,,,,,,,,,,,,,,,
293014,2022-11-28_19h20.28.561,vts_reward_expectancy_bt,2022.2.4,Win32,240.1536984,Chrome,1536,864,,,,,0,702,,,,,,,,,,,,,,,,,167,S,hexagon,1,0,,,2,,,,,,,,,,,,,repeat,number,numRpt,f,0.538,vtsPrac,14,0,14,0,1,,,,,,,,,,,,,,,,,,,,,,,
293014,2022-11-28_19h20.28.561,vts_reward_expectancy_bt,2022.2.4,Win32,240.1536984,Chrome,1536,864,,,,,0,702,,,,,,,,,,,,,,,,,139,H,circle,1,0,,,2,,,,,,,,,,,,,switch,letter,lettSwt,j,0.7088,vtsPrac,15,0,15,0,1,,,,,,,,,,,,,,,,,,,,,,,
293014,2022-11-28_19h20.28.561,vts_reward_expectancy_bt,2022.2.4,Win32,240.1536984,Chrome,1536,864,,,,,0,702,,,,,,,,,,,,,,,,,139,H,hexagon,1,0,,,2,,,,,,,,,,,,,switch,number,numSwt,d,0.663,vtsPrac,16,0,16,0,1,,,,,,,,,,,,,,,,,,,,,,,
293014,2022-11-28_19h20.28.561,vts_reward_expectancy_bt,2022.2.4,Win32,240.1536984,Chrome,1536,864,,,,,0,702,,,,,,,,,,,,,,,,,174,W,star,1,0,,,2,,,,,,,,,,,,,switch,letter,lettSwt,k,0.6632,vtsPrac,17,0,17,0,1,,,,,,,,,,,,,,,,,,,,,,,
293014,2022-11-28_19h20.28.561,vts_reward_expectancy_bt,2022.2.4,Win32,240.1536984,Chrome,1536,864,,,,,0,702,,,,,,,,,,,,,,,,,160,Y,hexagon,1,0,,,2,,,,,,,,,,,,,repeat,letter,lettRpt,k,0.5908,vtsPrac,18,0,18,0,1,,,,,,,,,,,,,,,,,,,,,,,
293014,2022-11-28_19h20.28.561,vts_reward_expectancy_bt,2022.2.4,Win32,240.1536984,Chrome,1536,864,,,,,0,702,,,,,,,,,,,,,,,,,146,S,circle,1,0,,,2,,,,,,,,,,,,,switch,number,numSwt,d,0.614,vtsPrac,19,0,19,0,1,,,,,,,,,,,,,,,,,,,,,,,
293014,2022-11-28_19h20.28.561,vts_reward_expectancy_bt,2022.2.4,Win32,240.1536984,Chrome,1536,864,,,,,0,702,,,,,,,,,,,,,,,,,181,U,star,1,0,,,2,,,,,,,,,,,,,repeat,number,numRpt,f,0.6215,vtsPrac,20,0,20,0,1,,,,,,,,,,,,,,,,,,,,,,,
293014,2022-11-28_19h20.28.561,vts_reward_expectancy_bt,2022.2.4,Win32,240.1536984,Chrome,1536,864,,,,,0,702,,,,,,,,,,,,,,,,,139,S,circle,1,0,,,2,,,,,,,,,,,,,switch,letter,lettSwt,k,0.5844,vtsPrac,21,0,21,0,1,,,,,,,,,,,,,,,,,,,,,,,
293014,2022-11-28_19h20.28.561,vts_reward_expectancy_bt,2022.2.4,Win32,240.1536984,Chrome,1536,864,,,,,0,702,,,,,,,,,,,,,,,,,174,F,triangle,1,0,,,2,,,,,,,,,,,,,switch,number,numSwt,f,0.6847,vtsPrac,22,0,22,0,1,,,,,,,,,,,,,,,,,,,,,,,
293014,2022-11-28_19h20.28.561,vts_reward_expectancy_bt,2022.2.4,Win32,240.1536984,Chrome,1536,864,,,,,0,702,,,,,,,,,,,,,,,,,146,Y,circle,1,0,,,2,,,,,,,,,,,,,switch,letter,lettSwt,k,0.5675,vtsPrac,23,0,23,0,1,,,,,,,,,,,,,,,,,,,,,,,
293014,2022-11-28_19h20.28.561,vts_reward_expectancy_bt,2022.2.4,Win32,240.1536984,Chrome,1536,864,,,,,0,702,,,,,,,,,,,,,,,,,125,Y,hexagon,1,0,,,2,,,,,,,,,,,,,switch,number,numSwt,d,0.7131,vtsPrac,24,0,24,0,1,,,,,,,,,,,,,,,,,,,,,,,
293014,2022-11-28_19h20.28.561,vts_reward_expectancy_bt,2022.2.4,Win32,240.1536984,Chrome,1536,864,,,,,0,702,,,,,,,,,,,,,,,,,146,D,circle,1,0,,,2,,,,,,,,,,,,,repeat,number,numRpt,d,0.8965,vtsPrac,25,0,25,0,1,,,,,,,,,,,,,,,,,,,,,,,
293014,2022-11-28_19h20.28.561,vts_reward_expectancy_bt,2022.2.4,Win32,240.1536984,Chrome,1536,864,,,,,0,702,,,,,,,,,,,,,,,,,167,F,triangle,1,0,,,2,,,,,,,,,,,,,repeat,number,numRpt,f,0.734,vtsPrac,26,0,26,0,1,,,,,,,,,,,,,,,,,,,,,,,
293014,2022-11-28_19h20.28.561,vts_reward_expectancy_bt,2022.2.4,Win32,240.1536984,Chrome,1536,864,,,,,0,702,,,,,,,,,,,,,,,,,181,S,hexagon,1,0,,,2,,,,,,,,,,,,,repeat,number,numRpt,f,0.6933,vtsPrac,27,0,27,0,1,,,,,,,,,,,,,,,,,,,,,,,
293014,2022-11-28_19h20.28.561,vts_reward_expectancy_bt,2022.2.4,Win32,240.1536984,Chrome,1536,864,,,,,0,702,,,,,,,,,,,,,,,,,139,F,star,1,0,,,2,,,,,,,,,,,,,switch,letter,lettSwt,j,0.7306,vtsPrac,28,0,28,0,1,,,,,,,,,,,,,,,,,,,,,,,
293014,2022-11-28_19h20.28.561,vts_reward_expectancy_bt,2022.2.4,Win32,240.1536984,Chrome,1536,864,,,,,0,702,,,,,,,,,,,,,,,,,125,H,triangle,1,0,,,2,,,,,,,,,,,,,repeat,letter,lettRpt,j,0.5422,vtsPrac,29,0,29,0,1,,,,,,,,,,,,,,,,,,,,,,,
293014,2022-11-28_19h20.28.561,vts_reward_expectancy_bt,2022.2.4,Win32,240.1536984,Chrome,1536,864,,,,,0,702,,,,,,,,,,,,,,,,,160,Y,triangle,1,0,,,2,,,,,,,,,,,,,switch,number,numSwt,f,0.613,vtsPrac,30,0,30,0,1,,,,,,,,,,,,,,,,,,,,,,,
293014,2022-11-28_19h20.28.561,vts_reward_expectancy_bt,2022.2.4,Win32,240.1536984,Chrome,1536,864,,,,,0,702,,,,,,,,,,,,,,,,,167,B,circle,1,0,,,2,,,,,,,,,,,,,repeat,number,numRpt,f,0.9257,vtsPrac,31,0,31,0,1,,,,,,,,,,,,,,,,,,,,,,,
293014,2022-11-28_19h20.28.561,vts_reward_expectancy_bt,2022.2.4,Win32,240.1536984,Chrome,1536,864,,,,,,,,,,,,,,,,,,,,,,,,,,,,,,,,,,,,,,,,,,,,,,,,,,,,,,,,,,,,,,,,,,,,,,,,,,,,
293014,2022-11-28_19h20.28.561,vts_reward_expectancy_bt,2022.2.4,Win32,240.1536984,Chrome,1536,864,,,,,,,,,,,,,,,,,,,,,,,,,,,,,,,,,,,,,,,,,,,,,,,,,,,,,,,,,,,,,,,,,,,,,,,,,,,,
293014,2022-11-28_19h20.28.561,vts_reward_expectancy_bt,2022.2.4,Win32,240.1536984,Chrome,1536,864,,,,,0,702,,,,,,,,,,,,,,,,,139,H,star,1,0,,,,,,,,,,,,,,,,switch,letter,lettSwt,j,1.1277,noRew,,,,,,0,0,0,0,0,1,,,,,,,,,,,,,,,,,
293014,2022-11-28_19h20.28.561,vts_reward_expectancy_bt,2022.2.4,Win32,240.1536984,Chrome,1536,864,,,,,0,702,,,,,,,,,,,,,,,,,125,W,circle,1,0,,,,,,,,,,,,,,,,switch,number,numSwt,d,0.6089,noRew,,,,,,0,1,0,1,0,1,,,,,,,,,,,,,,,,,
293014,2022-11-28_19h20.28.561,vts_reward_expectancy_bt,2022.2.4,Win32,240.1536984,Chrome,1536,864,,,,,0,702,,,,,,,,,,,,,,,,,167,Y,star,1,0,,,,,,,,,,,,,,,,repeat,number,numRpt,f,0.834,noRew,,,,,,0,2,0,2,0,1,,,,,,,,,,,,,,,,,
293014,2022-11-28_19h20.28.561,vts_reward_expectancy_bt,2022.2.4,Win32,240.1536984,Chrome,1536,864,,,,,0,702,,,,,,,,,,,,,,,,,132,U,circle,1,0,,,,,,,,,,,,,,,,repeat,number,numRpt,d,0.7798,noRew,,,,,,0,3,0,3,0,1,,,,,,,,,,,,,,,,,
293014,2022-11-28_19h20.28.561,vts_reward_expectancy_bt,2022.2.4,Win32,240.1536984,Chrome,1536,864,,,,,0,702,,,,,,,,,,,,,,,,,139,H,star,1,0,,,,,,,,,,,,,,,,repeat,number,numRpt,d,0.6634,noRew,,,,,,0,4,0,4,0,1,,,,,,,,,,,,,,,,,
293014,2022-11-28_19h20.28.561,vts_reward_expectancy_bt,2022.2.4,Win32,240.1536984,Chrome,1536,864,,,,,0,702,,,,,,,,,,,,,,,,,125,W,hexagon,1,0,,,,,,,,,,,,,,,,repeat,number,numRpt,d,0.5424,noRew,,,,,,0,5,0,5,0,1,,,,,,,,,,,,,,,,,
293014,2022-11-28_19h20.28.561,vts_reward_expectancy_bt,2022.2.4,Win32,240.1536984,Chrome,1536,864,,,,,0,702,,,,,,,,,,,,,,,,,167,Y,triangle,1,0,,,,,,,,,,,,,,,,switch,letter,lettSwt,k,0.5422,noRew,,,,,,0,6,0,6,0,1,,,,,,,,,,,,,,,,,
293014,2022-11-28_19h20.28.561,vts_reward_expectancy_bt,2022.2.4,Win32,240.1536984,Chrome,1536,864,,,,,0,702,,,,,,,,,,,,,,,,,132,U,circle,1,0,,,,,,,,,,,,,,,,switch,number,numSwt,d,1.3297,noRew,,,,,,0,7,0,7,0,1,,,,,,,,,,,,,,,,,
293014,2022-11-28_19h20.28.561,vts_reward_expectancy_bt,2022.2.4,Win32,240.1536984,Chrome,1536,864,,,,,0,702,,,,,,,,,,,,,,,,,146,F,circle,1,0,,,,,,,,,,,,,,,,switch,letter,lettSwt,j,0.69,noRew,,,,,,0,8,0,8,0,1,,,,,,,,,,,,,,,,,
293014,2022-11-28_19h20.28.561,vts_reward_expectancy_bt,2022.2.4,Win32,240.1536984,Chrome,1536,864,,,,,0,702,,,,,,,,,,,,,,,,,132,W,star,1,0,,,,,,,,,,,,,,,,repeat,letter,lettRpt,k,0.7046,noRew,,,,,,0,9,0,9,0,1,,,,,,,,,,,,,,,,,
293014,2022-11-28_19h20.28.561,vts_reward_expectancy_bt,2022.2.4,Win32,240.1536984,Chrome,1536,864,,,,,0,702,,,,,,,,,,,,,,,,,167,H,hexagon,1,0,,,,,,,,,,,,,,,,repeat,letter,lettRpt,j,0.8756,noRew,,,,,,0,10,0,10,0,1,,,,,,,,,,,,,,,,,
293014,2022-11-28_19h20.28.561,vts_reward_expectancy_bt,2022.2.4,Win32,240.1536984,Chrome,1536,864,,,,,0,702,,,,,,,,,,,,,,,,,174,B,star,1,0,,,,,,,,,,,,,,,,repeat,letter,lettRpt,j,0.9632,noRew,,,,,,0,11,0,11,0,1,,,,,,,,,,,,,,,,,
293014,2022-11-28_19h20.28.561,vts_reward_expectancy_bt,2022.2.4,Win32,240.1536984,Chrome,1536,864,,,,,0,702,,,,,,,,,,,,,,,,,160,W,star,1,0,,,,,,,,,,,,,,,,switch,number,numSwt,f,0.763,noRew,,,,,,0,12,0,12,0,1,,,,,,,,,,,,,,,,,
293014,2022-11-28_19h20.28.561,vts_reward_expectancy_bt,2022.2.4,Win32,240.1536984,Chrome,1536,864,,,,,0,702,,,,,,,,,,,,,,,,,132,B,circle,1,0,,,,,,,,,,,,,,,,repeat,number,numRpt,d,0.7256,noRew,,,,,,0,13,0,13,0,1,,,,,,,,,,,,,,,,,
293014,2022-11-28_19h20.28.561,vts_reward_expectancy_bt,2022.2.4,Win32,240.1536984,Chrome,1536,864,,,,,0,702,,,,,,,,,,,,,,,,,174,H,triangle,1,0,,,,,,,,,,,,,,,,switch,letter,lettSwt,j,0.8341,noRew,,,,,,0,14,0,14,0,1,,,,,,,,,,,,,,,,,
293014,2022-11-28_19h20.28.561,vts_reward_expectancy_bt,2022.2.4,Win32,240.1536984,Chrome,1536,864,,,,,0,702,,,,,,,,,,,,,,,,,167,Y,star,1,0,,,,,,,,,,,,,,,,repeat,letter,lettRpt,k,0.7303,noRew,,,,,,0,15,0,15,0,1,,,,,,,,,,,,,,,,,
293014,2022-11-28_19h20.28.561,vts_reward_expectancy_bt,2022.2.4,Win32,240.1536984,Chrome,1536,864,,,,,0,702,,,,,,,,,,,,,,,,,132,W,triangle,1,0,,,,,,,,,,,,,,,,repeat,letter,lettRpt,k,0.9172,noRew,,,,,,0,16,0,16,0,1,,,,,,,,,,,,,,,,,
293014,2022-11-28_19h20.28.561,vts_reward_expectancy_bt,2022.2.4,Win32,240.1536984,Chrome,1536,864,,,,,0,702,,,,,,,,,,,,,,,,,167,B,circle,1,0,,,,,,,,,,,,,,,,switch,number,numSwt,f,0.6298,noRew,,,,,,0,17,0,17,0,1,,,,,,,,,,,,,,,,,
293014,2022-11-28_19h20.28.561,vts_reward_expectancy_bt,2022.2.4,Win32,240.1536984,Chrome,1536,864,,,,,0,702,,,,,,,,,,,,,,,,,181,D,hexagon,1,0,,,,,,,,,,,,,,,,repeat,number,numRpt,f,0.8383,noRew,,,,,,0,18,0,18,0,1,,,,,,,,,,,,,,,,,
293014,2022-11-28_19h20.28.561,vts_reward_expectancy_bt,2022.2.4,Win32,240.1536984,Chrome,1536,864,,,,,0,702,,,,,,,,,,,,,,,,,146,S,triangle,1,0,,,,,,,,,,,,,,,,repeat,number,numRpt,d,1.1543,noRew,,,,,,0,19,0,19,0,1,,,,,,,,,,,,,,,,,
293014,2022-11-28_19h20.28.561,vts_reward_expectancy_bt,2022.2.4,Win32,240.1536984,Chrome,1536,864,,,,,0,702,,,,,,,,,,,,,,,,,139,S,star,1,0,,,,,,,,,,,,,,,,repeat,number,numRpt,d,1.0714,noRew,,,,,,0,20,0,20,0,1,,,,,,,,,,,,,,,,,
293014,2022-11-28_19h20.28.561,vts_reward_expectancy_bt,2022.2.4,Win32,240.1536984,Chrome,1536,864,,,,,0,702,,,,,,,,,,,,,,,,,160,Y,hexagon,1,0,,,,,,,,,,,,,,,,switch,letter,lettSwt,k,0.6008,noRew,,,,,,0,21,0,21,0,1,,,,,,,,,,,,,,,,,
293014,2022-11-28_19h20.28.561,vts_reward_expectancy_bt,2022.2.4,Win32,240.1536984,Chrome,1536,864,,,,,0,702,,,,,,,,,,,,,,,,,167,B,star,1,0,,,,,,,,,,,,,,,,repeat,letter,lettRpt,j,2.1672,noRew,,,,,,0,22,0,22,0,1,,,,,,,,,,,,,,,,,
293014,2022-11-28_19h20.28.561,vts_reward_expectancy_bt,2022.2.4,Win32,240.1536984,Chrome,1536,864,,,,,0,702,,,,,,,,,,,,,,,,,125,W,circle,1,0,,,,,,,,,,,,,,,,switch,number,numSwt,d,0.9675,noRew,,,,,,0,23,0,23,0,1,,,,,,,,,,,,,,,,,
293014,2022-11-28_19h20.28.561,vts_reward_expectancy_bt,2022.2.4,Win32,240.1536984,Chrome,1536,864,,,,,0,702,,,,,,,,,,,,,,,,,132,F,triangle,1,0,,,,,,,,,,,,,,,,repeat,number,numRpt,d,0.6464,noRew,,,,,,0,24,0,24,0,1,,,,,,,,,,,,,,,,,
293014,2022-11-28_19h20.28.561,vts_reward_expectancy_bt,2022.2.4,Win32,240.1536984,Chrome,1536,864,,,,,0,702,,,,,,,,,,,,,,,,,167,U,circle,1,0,,,,,,,,,,,,,,,,switch,letter,lettSwt,k,1.0049,noRew,,,,,,0,25,0,25,0,1,,,,,,,,,,,,,,,,,
293014,2022-11-28_19h20.28.561,vts_reward_expectancy_bt,2022.2.4,Win32,240.1536984,Chrome,1536,864,,,,,0,702,,,,,,,,,,,,,,,,,139,S,hexagon,1,0,,,,,,,,,,,,,,,,switch,number,numSwt,d,0.9423,noRew,,,,,,0,26,0,26,0,1,,,,,,,,,,,,,,,,,
293014,2022-11-28_19h20.28.561,vts_reward_expectancy_bt,2022.2.4,Win32,240.1536984,Chrome,1536,864,,,,,0,702,,,,,,,,,,,,,,,,,174,Y,triangle,1,0,,,,,,,,,,,,,,,,switch,letter,lettSwt,k,0.7804,noRew,,,,,,0,27,0,27,0,1,,,,,,,,,,,,,,,,,
293014,2022-11-28_19h20.28.561,vts_reward_expectancy_bt,2022.2.4,Win32,240.1536984,Chrome,1536,864,,,,,0,702,,,,,,,,,,,,,,,,,139,Y,star,1,0,,,,,,,,,,,,,,,,repeat,letter,lettRpt,k,0.7675,noRew,,,,,,0,28,0,28,0,1,,,,,,,,,,,,,,,,,
293014,2022-11-28_19h20.28.561,vts_reward_expectancy_bt,2022.2.4,Win32,240.1536984,Chrome,1536,864,,,,,0,702,,,,,,,,,,,,,,,,,167,B,circle,1,0,,,,,,,,,,,,,,,,repeat,letter,lettRpt,j,1.3671,noRew,,,,,,0,29,0,29,0,1,,,,,,,,,,,,,,,,,
293014,2022-11-28_19h20.28.561,vts_reward_expectancy_bt,2022.2.4,Win32,240.1536984,Chrome,1536,864,,,,,0,702,,,,,,,,,,,,,,,,,146,D,circle,1,0,,,,,,,,,,,,,,,,switch,number,numSwt,d,0.9464,noRew,,,,,,0,30,0,30,0,1,,,,,,,,,,,,,,,,,
293014,2022-11-28_19h20.28.561,vts_reward_expectancy_bt,2022.2.4,Win32,240.1536984,Chrome,1536,864,,,,,0,702,,,,,,,,,,,,,,,,,160,W,star,1,0,,,,,,,,,,,,,,,,repeat,number,numRpt,f,0.8256,noRew,,,,,,0,31,0,31,0,1,,,,,,,,,,,,,,,,,
293014,2022-11-28_19h20.28.561,vts_reward_expectancy_bt,2022.2.4,Win32,240.1536984,Chrome,1536,864,,,,,0,702,,,,,,,,,,,,,,,,,174,U,hexagon,1,0,,,,,,,,,,,,,,,,switch,letter,lettSwt,k,1.0589,noRew,,,,,,0,32,0,32,0,1,,,,,,,,,,,,,,,,,
293014,2022-11-28_19h20.28.561,vts_reward_expectancy_bt,2022.2.4,Win32,240.1536984,Chrome,1536,864,,,,,0,702,,,,,,,,,,,,,,,,,139,D,triangle,1,0,,,,,,,,,,,,,,,,repeat,letter,lettRpt,j,1.0176,noRew,,,,,,0,33,0,33,0,1,,,,,,,,,,,,,,,,,
293014,2022-11-28_19h20.28.561,vts_reward_expectancy_bt,2022.2.4,Win32,240.1536984,Chrome,1536,864,,,,,0,702,,,,,,,,,,,,,,,,,146,W,hexagon,1,0,,,,,,,,,,,,,,,,switch,number,numSwt,d,0.7881,noRew,,,,,,0,34,0,34,0,1,,,,,,,,,,,,,,,,,
293014,2022-11-28_19h20.28.561,vts_reward_expectancy_bt,2022.2.4,Win32,240.1536984,Chrome,1536,864,,,,,0,702,,,,,,,,,,,,,,,,,167,H,circle,0,0,,,,,,,,,,,,,,,,repeat,number,NA,d,0.8339,noRew,,,,,,0,35,0,35,0,1,,,,,,,,,,,,,,,,,
293014,2022-11-28_19h20.28.561,vts_reward_expectancy_bt,2022.2.4,Win32,240.1536984,Chrome,1536,864,,,,,0,702,,,,,,,,,,,,,,,,,167,W,circle,1,1,,,,,,,,,,,,,,,,repeat,number,numRpt,f,0.6751,noRew,,,,,,0,36,0,36,0,1,,,,,,,,,,,,,,,,,
293014,2022-11-28_19h20.28.561,vts_reward_expectancy_bt,2022.2.4,Win32,240.1536984,Chrome,1536,864,,,,,0,702,,,,,,,,,,,,,,,,,132,H,triangle,1,0,,,,,,,,,,,,,,,,repeat,number,numRpt,d,0.7674,noRew,,,,,,0,37,0,37,0,1,,,,,,,,,,,,,,,,,
293014,2022-11-28_19h20.28.561,vts_reward_expectancy_bt,2022.2.4,Win32,240.1536984,Chrome,1536,864,,,,,0,702,,,,,,,,,,,,,,,,,174,U,triangle,1,0,,,,,,,,,,,,,,,,switch,letter,lettSwt,k,1.1503,noRew,,,,,,0,38,0,38,0,1,,,,,,,,,,,,,,,,,
293014,2022-11-28_19h20.28.561,vts_reward_expectancy_bt,2022.2.4,Win32,240.1536984,Chrome,1536,864,,,,,0,702,,,,,,,,,,,,,,,,,139,B,star,1,0,,,,,,,,,,,,,,,,repeat,letter,lettRpt,j,0.6546,noRew,,,,,,0,39,0,39,0,1,,,,,,,,,,,,,,,,,
293014,2022-11-28_19h20.28.561,vts_reward_expectancy_bt,2022.2.4,Win32,240.1536984,Chrome,1536,864,,,,,0,702,,,,,,,,,,,,,,,,,174,B,star,1,0,,,,,,,,,,,,,,,,repeat,letter,lettRpt,j,0.726,noRew,,,,,,0,40,0,40,0,1,,,,,,,,,,,,,,,,,
293014,2022-11-28_19h20.28.561,vts_reward_expectancy_bt,2022.2.4,Win32,240.1536984,Chrome,1536,864,,,,,0,702,,,,,,,,,,,,,,,,,125,F,circle,1,0,,,,,,,,,,,,,,,,repeat,letter,lettRpt,j,0.7548,noRew,,,,,,0,41,0,41,0,1,,,,,,,,,,,,,,,,,
293014,2022-11-28_19h20.28.561,vts_reward_expectancy_bt,2022.2.4,Win32,240.1536984,Chrome,1536,864,,,,,0,702,,,,,,,,,,,,,,,,,132,Y,star,1,0,,,,,,,,,,,,,,,,switch,number,numSwt,d,1.0756,noRew,,,,,,0,42,0,42,0,1,,,,,,,,,,,,,,,,,
293014,2022-11-28_19h20.28.561,vts_reward_expectancy_bt,2022.2.4,Win32,240.1536984,Chrome,1536,864,,,,,0,702,,,,,,,,,,,,,,,,,167,D,circle,1,0,,,,,,,,,,,,,,,,repeat,number,numRpt,f,0.9014,noRew,,,,,,0,43,0,43,0,1,,,,,,,,,,,,,,,,,
293014,2022-11-28_19h20.28.561,vts_reward_expectancy_bt,2022.2.4,Win32,240.1536984,Chrome,1536,864,,,,,0,702,,,,,,,,,,,,,,,,,167,W,circle,1,0,,,,,,,,,,,,,,,,repeat,number,numRpt,f,1.0599,noRew,,,,,,0,44,0,44,0,1,,,,,,,,,,,,,,,,,
293014,2022-11-28_19h20.28.561,vts_reward_expectancy_bt,2022.2.4,Win32,240.1536984,Chrome,1536,864,,,,,0,702,,,,,,,,,,,,,,,,,125,H,hexagon,1,0,,,,,,,,,,,,,,,,repeat,number,numRpt,d,0.684,noRew,,,,,,0,45,0,45,0,1,,,,,,,,,,,,,,,,,
293014,2022-11-28_19h20.28.561,vts_reward_expectancy_bt,2022.2.4,Win32,240.1536984,Chrome,1536,864,,,,,0,702,,,,,,,,,,,,,,,,,181,D,hexagon,1,0,,,,,,,,,,,,,,,,switch,letter,lettSwt,j,0.9342,noRew,,,,,,0,46,0,46,0,1,,,,,,,,,,,,,,,,,
293014,2022-11-28_19h20.28.561,vts_reward_expectancy_bt,2022.2.4,Win32,240.1536984,Chrome,1536,864,,,,,0,702,,,,,,,,,,,,,,,,,174,B,triangle,1,0,,,,,,,,,,,,,,,,repeat,letter,lettRpt,j,0.5797,noRew,,,,,,0,47,0,47,0,1,,,,,,,,,,,,,,,,,
293014,2022-11-28_19h20.28.561,vts_reward_expectancy_bt,2022.2.4,Win32,240.1536984,Chrome,1536,864,,,,,0,702,,,,,,,,,,,,,,,,,132,W,hexagon,1,0,,,,,,,,,,,,,,,,repeat,letter,lettRpt,k,0.7874,noRew,,,,,,0,48,0,48,0,1,,,,,,,,,,,,,,,,,
293014,2022-11-28_19h20.28.561,vts_reward_expectancy_bt,2022.2.4,Win32,240.1536984,Chrome,1536,864,,,,,0,702,,,,,,,,,,,,,,,,,160,S,circle,1,0,,,,,,,,,,,,,,,,repeat,letter,lettRpt,k,1.1091,noRew,,,,,,0,49,0,49,0,1,,,,,,,,,,,,,,,,,
293014,2022-11-28_19h20.28.561,vts_reward_expectancy_bt,2022.2.4,Win32,240.1536984,Chrome,1536,864,,,,,0,702,,,,,,,,,,,,,,,,,146,H,triangle,1,0,,,,,,,,,,,,,,,,repeat,letter,lettRpt,j,0.9716,noRew,,,,,,0,50,0,50,0,1,,,,,,,,,,,,,,,,,
293014,2022-11-28_19h20.28.561,vts_reward_expectancy_bt,2022.2.4,Win32,240.1536984,Chrome,1536,864,,,,,0,702,,,,,,,,,,,,,,,,,174,D,hexagon,1,0,,,,,,,,,,,,,,,,switch,number,numSwt,f,1.2124,noRew,,,,,,0,51,0,51,0,1,,,,,,,,,,,,,,,,,
293014,2022-11-28_19h20.28.561,vts_reward_expectancy_bt,2022.2.4,Win32,240.1536984,Chrome,1536,864,,,,,0,702,,,,,,,,,,,,,,,,,181,W,circle,1,0,,,,,,,,,,,,,,,,repeat,number,numRpt,f,0.7499,noRew,,,,,,0,52,0,52,0,1,,,,,,,,,,,,,,,,,
293014,2022-11-28_19h20.28.561,vts_reward_expectancy_bt,2022.2.4,Win32,240.1536984,Chrome,1536,864,,,,,0,702,,,,,,,,,,,,,,,,,125,H,triangle,1,0,,,,,,,,,,,,,,,,switch,letter,lettSwt,j,1.3586,noRew,,,,,,0,53,0,53,0,1,,,,,,,,,,,,,,,,,
293014,2022-11-28_19h20.28.561,vts_reward_expectancy_bt,2022.2.4,Win32,240.1536984,Chrome,1536,864,,,,,0,702,,,,,,,,,,,,,,,,,146,D,circle,1,0,,,,,,,,,,,,,,,,switch,number,numSwt,d,1.4675,noRew,,,,,,0,54,0,54,0,1,,,,,,,,,,,,,,,,,
293014,2022-11-28_19h20.28.561,vts_reward_expectancy_bt,2022.2.4,Win32,240.1536984,Chrome,1536,864,,,,,0,702,,,,,,,,,,,,,,,,,139,F,star,1,0,,,,,,,,,,,,,,,,repeat,number,numRpt,d,0.838,noRew,,,,,,0,55,0,55,0,1,,,,,,,,,,,,,,,,,
293014,2022-11-28_19h20.28.561,vts_reward_expectancy_bt,2022.2.4,Win32,240.1536984,Chrome,1536,864,,,,,0,702,,,,,,,,,,,,,,,,,181,Y,triangle,1,0,,,,,,,,,,,,,,,,repeat,number,numRpt,f,1.7167,noRew,,,,,,0,56,0,56,0,1,,,,,,,,,,,,,,,,,
293014,2022-11-28_19h20.28.561,vts_reward_expectancy_bt,2022.2.4,Win32,240.1536984,Chrome,1536,864,,,,,0,702,,,,,,,,,,,,,,,,,167,W,circle,1,0,,,,,,,,,,,,,,,,switch,letter,lettSwt,k,1.6002,noRew,,,,,,0,57,0,57,0,1,,,,,,,,,,,,,,,,,
293014,2022-11-28_19h20.28.561,vts_reward_expectancy_bt,2022.2.4,Win32,240.1536984,Chrome,1536,864,,,,,0,702,,,,,,,,,,,,,,,,,125,H,triangle,1,0,,,,,,,,,,,,,,,,repeat,letter,lettRpt,j,1.7166,noRew,,,,,,0,58,0,58,0,1,,,,,,,,,,,,,,,,,
293014,2022-11-28_19h20.28.561,vts_reward_expectancy_bt,2022.2.4,Win32,240.1536984,Chrome,1536,864,,,,,0,702,,,,,,,,,,,,,,,,,146,D,circle,1,0,,,,,,,,,,,,,,,,switch,number,numSwt,d,1.9922,noRew,,,,,,0,59,0,59,0,1,,,,,,,,,,,,,,,,,
293014,2022-11-28_19h20.28.561,vts_reward_expectancy_bt,2022.2.4,Win32,240.1536984,Chrome,1536,864,,,,,0,702,,,,,,,,,,,,,,,,,181,Y,hexagon,1,0,,,,,,,,,,,,,,,,repeat,number,numRpt,f,0.7464,noRew,,,,,,0,60,0,60,0,1,,,,,,,,,,,,,,,,,
293014,2022-11-28_19h20.28.561,vts_reward_expectancy_bt,2022.2.4,Win32,240.1536984,Chrome,1536,864,,,,,0,702,,,,,,,,,,,,,,,,,160,F,circle,1,0,,,,,,,,,,,,,,,,switch,letter,lettSwt,j,0.7214,noRew,,,,,,0,61,0,61,0,1,,,,,,,,,,,,,,,,,
293014,2022-11-28_19h20.28.561,vts_reward_expectancy_bt,2022.2.4,Win32,240.1536984,Chrome,1536,864,,,,,0,702,,,,,,,,,,,,,,,,,174,W,hexagon,1,0,,,,,,,,,,,,,,,,repeat,letter,lettRpt,k,0.7134,noRew,,,,,,0,62,0,62,0,1,,,,,,,,,,,,,,,,,
293014,2022-11-28_19h20.28.561,vts_reward_expectancy_bt,2022.2.4,Win32,240.1536984,Chrome,1536,864,,,,,0,702,,,,,,,,,,,,,,,,,139,B,star,1,0,,,,,,,,,,,,,,,,switch,number,numSwt,d,1.1207,noRew,,,,,,0,63,0,63,0,1,,,,,,,,,,,,,,,,,
293014,2022-11-28_19h20.28.561,vts_reward_expectancy_bt,2022.2.4,Win32,240.1536984,Chrome,1536,864,,,,,,,,,,,,,,,,,,,,,,,,,,,,,,,,,,,,,,,,,,,,,,,,,,,,,,,,,,,,,,,,,,,,,,,,,,,,
293014,2022-11-28_19h20.28.561,vts_reward_expectancy_bt,2022.2.4,Win32,240.1536984,Chrome,1536,864,,,,,0,702,,,,,,,,,,,,,,,,,125,B,triangle,1,0,,,,,,,,,,,,,,,,repeat,number,numRpt,d,1.534,Hi,,,,,,0,,,,,,space,13.0918,low,0,0,0,0,1,,,,,,,,,
293014,2022-11-28_19h20.28.561,vts_reward_expectancy_bt,2022.2.4,Win32,240.1536984,Chrome,1536,864,,,,,10,712,,,,,,,,,,,,,,,,,132,F,circle,1,0,,,,,,,,,,,,,,,,repeat,number,numRpt,d,0.542,Hi,,,,,,0,,,,,,,,low,1,0,1,0,1,,,,,,,,,
293014,2022-11-28_19h20.28.561,vts_reward_expectancy_bt,2022.2.4,Win32,240.1536984,Chrome,1536,864,,,,,10,722,,,,,,,,,,,,,,,,,146,D,star,1,0,,,,,,,,,,,,,,,,repeat,number,numRpt,d,0.5714,Lo,,,,,,0,,,,,,,,low,2,0,2,0,1,,,,,,,,,
293014,2022-11-28_19h20.28.561,vts_reward_expectancy_bt,2022.2.4,Win32,240.1536984,Chrome,1536,864,,,,,1,723,,,,,,,,,,,,,,,,,160,U,hexagon,1,0,,,,,,,,,,,,,,,,repeat,number,numRpt,f,0.4005,Lo,,,,,,0,,,,,,,,low,3,0,3,0,1,,,,,,,,,
293014,2022-11-28_19h20.28.561,vts_reward_expectancy_bt,2022.2.4,Win32,240.1536984,Chrome,1536,864,,,,,1,724,,,,,,,,,,,,,,,,,181,H,triangle,1,0,,,,,,,,,,,,,,,,switch,letter,lettSwt,j,0.4721,Hi,,,,,,0,,,,,,,,low,4,0,4,0,1,,,,,,,,,
293014,2022-11-28_19h20.28.561,vts_reward_expectancy_bt,2022.2.4,Win32,240.1536984,Chrome,1536,864,,,,,10,734,,,,,,,,,,,,,,,,,174,W,circle,1,0,,,,,,,,,,,,,,,,repeat,letter,lettRpt,k,0.5796,Hi,,,,,,0,,,,,,,,low,5,0,5,0,1,,,,,,,,,
293014,2022-11-28_19h20.28.561,vts_reward_expectancy_bt,2022.2.4,Win32,240.1536984,Chrome,1536,864,,,,,10,744,,,,,,,,,,,,,,,,,167,S,star,1,0,,,,,,,,,,,,,,,,repeat,letter,lettRpt,k,0.6111,Lo,,,,,,0,,,,,,,,low,6,0,6,0,1,,,,,,,,,
293014,2022-11-28_19h20.28.561,vts_reward_expectancy_bt,2022.2.4,Win32,240.1536984,Chrome,1536,864,,,,,10,754,,,,,,,,,,,,,,,,,139,Y,hexagon,1,0,,,,,,,,,,,,,,,,repeat,letter,lettRpt,k,0.4464,Lo,,,,,,0,,,,,,,,low,7,0,7,0,1,,,,,,,,,
293014,2022-11-28_19h20.28.561,vts_reward_expectancy_bt,2022.2.4,Win32,240.1536984,Chrome,1536,864,,,,,10,764,,,,,,,,,,,,,,,,,125,B,triangle,1,0,,,,,,,,,,,,,,,,repeat,letter,lettRpt,j,0.414,Hi,,,,,,0,,,,,,,,low,8,0,8,0,1,,,,,,,,,
293014,2022-11-28_19h20.28.561,vts_reward_expectancy_bt,2022.2.4,Win32,240.1536984,Chrome,1536,864,,,,,1,765,,,,,,,,,,,,,,,,,132,F,star,1,0,,,,,,,,,,,,,,,,repeat,letter,lettRpt,j,0.4383,Lo,,,,,,0,,,,,,,,low,9,0,9,0,1,,,,,,,,,
293014,2022-11-28_19h20.28.561,vts_reward_expectancy_bt,2022.2.4,Win32,240.1536984,Chrome,1536,864,,,,,10,775,,,,,,,,,,,,,,,,,146,D,hexagon,1,0,,,,,,,,,,,,,,,,repeat,letter,lettRpt,j,0.3629,Lo,,,,,,0,,,,,,,,low,10,0,10,0,1,,,,,,,,,
293014,2022-11-28_19h20.28.561,vts_reward_expectancy_bt,2022.2.4,Win32,240.1536984,Chrome,1536,864,,,,,10,785,,,,,,,,,,,,,,,,,160,U,circle,1,0,,,,,,,,,,,,,,,,switch,number,numSwt,f,0.4003,Hi,,,,,,0,,,,,,,,low,11,0,11,0,1,,,,,,,,,
293014,2022-11-28_19h20.28.561,vts_reward_expectancy_bt,2022.2.4,Win32,240.1536984,Chrome,1536,864,,,,,10,795,,,,,,,,,,,,,,,,,181,H,triangle,1,0,,,,,,,,,,,,,,,,repeat,number,numRpt,f,0.509,Hi,,,,,,0,,,,,,,,low,12,0,12,0,1,,,,,,,,,
293014,2022-11-28_19h20.28.561,vts_reward_expectancy_bt,2022.2.4,Win32,240.1536984,Chrome,1536,864,,,,,10,805,,,,,,,,,,,,,,,,,174,W,star,1,0,,,,,,,,,,,,,,,,repeat,number,numRpt,f,0.4174,Lo,,,,,,0,,,,,,,,low,13,0,13,0,1,,,,,,,,,
293014,2022-11-28_19h20.28.561,vts_reward_expectancy_bt,2022.2.4,Win32,240.1536984,Chrome,1536,864,,,,,1,806,,,,,,,,,,,,,,,,,167,S,hexagon,1,0,,,,,,,,,,,,,,,,repeat,number,numRpt,f,0.4424,Lo,,,,,,0,,,,,,,,low,14,0,14,0,1,,,,,,,,,
293014,2022-11-28_19h20.28.561,vts_reward_expectancy_bt,2022.2.4,Win32,240.1536984,Chrome,1536,864,,,,,10,816,,,,,,,,,,,,,,,,,139,Y,circle,1,0,,,,,,,,,,,,,,,,repeat,number,numRpt,d,0.5631,Hi,,,,,,0,,,,,,,,low,15,0,15,0,1,,,,,,,,,
293014,2022-11-28_19h20.28.561,vts_reward_expectancy_bt,2022.2.4,Win32,240.1536984,Chrome,1536,864,,,,,1,817,,,,,,,,,,,,,,,,,181,H,hexagon,1,0,,,,,,,,,,,,,,,,repeat,number,numRpt,f,0.3953,Lo,,,,,,0,,,,,,,,low,16,0,16,0,1,,,,,,,,,
293014,2022-11-28_19h20.28.561,vts_reward_expectancy_bt,2022.2.4,Win32,240.1536984,Chrome,1536,864,,,,,10,827,,,,,,,,,,,,,,,,,146,U,triangle,1,0,,,,,,,,,,,,,,,,repeat,number,numRpt,d,0.5967,Hi,,,,,,0,,,,,,,,low,17,0,17,0,1,,,,,,,,,
293014,2022-11-28_19h20.28.561,vts_reward_expectancy_bt,2022.2.4,Win32,240.1536984,Chrome,1536,864,,,,,1,828,,,,,,,,,,,,,,,,,160,Y,star,1,0,,,,,,,,,,,,,,,,repeat,number,numRpt,f,0.459,Lo,,,,,,0,,,,,,,,low,18,0,18,0,1,,,,,,,,,
293014,2022-11-28_19h20.28.561,vts_reward_expectancy_bt,2022.2.4,Win32,240.1536984,Chrome,1536,864,,,,,10,838,,,,,,,,,,,,,,,,,139,B,circle,1,0,,,,,,,,,,,,,,,,repeat,number,numRpt,d,0.5298,Hi,,,,,,0,,,,,,,,low,19,0,19,0,1,,,,,,,,,
293014,2022-11-28_19h20.28.561,vts_reward_expectancy_bt,2022.2.4,Win32,240.1536984,Chrome,1536,864,,,,,1,839,,,,,,,,,,,,,,,,,125,F,hexagon,1,0,,,,,,,,,,,,,,,,switch,letter,lettSwt,j,1.2055,Lo,,,,,,0,,,,,,,,low,20,0,20,0,1,,,,,,,,,
293014,2022-11-28_19h20.28.561,vts_reward_expectancy_bt,2022.2.4,Win32,240.1536984,Chrome,1536,864,,,,,0,839,,,,,,,,,,,,,,,,,174,W,circle,1,0,,,,,,,,,,,,,,,,repeat,letter,lettRpt,k,1.3674,Hi,,,,,,0,,,,,,,,low,21,0,21,0,1,,,,,,,,,
293014,2022-11-28_19h20.28.561,vts_reward_expectancy_bt,2022.2.4,Win32,240.1536984,Chrome,1536,864,,,,,10,849,,,,,,,,,,,,,,,,,167,S,star,1,0,,,,,,,,,,,,,,,,switch,number,numSwt,f,0.6007,Lo,,,,,,0,,,,,,,,low,22,0,22,0,1,,,,,,,,,
293014,2022-11-28_19h20.28.561,vts_reward_expectancy_bt,2022.2.4,Win32,240.1536984,Chrome,1536,864,,,,,1,850,,,,,,,,,,,,,,,,,132,D,triangle,1,0,,,,,,,,,,,,,,,,repeat,number,numRpt,d,0.7052,Hi,,,,,,0,,,,,,,,low,23,0,23,0,1,,,,,,,,,
293014,2022-11-28_19h20.28.561,vts_reward_expectancy_bt,2022.2.4,Win32,240.1536984,Chrome,1536,864,,,,,10,860,,,,,,,,,,,,,,,,,167,F,triangle,1,0,,,,,,,,,,,,,,,,repeat,number,numRpt,f,0.438,Hi,,,,,,0,,,,,,,,low,24,0,24,0,1,,,,,,,,,
293014,2022-11-28_19h20.28.561,vts_reward_expectancy_bt,2022.2.4,Win32,240.1536984,Chrome,1536,864,,,,,1,861,,,,,,,,,,,,,,,,,181,H,star,1,0,,,,,,,,,,,,,,,,repeat,number,numRpt,f,0.5422,Lo,,,,,,0,,,,,,,,low,25,0,25,0,1,,,,,,,,,
293014,2022-11-28_19h20.28.561,vts_reward_expectancy_bt,2022.2.4,Win32,240.1536984,Chrome,1536,864,,,,,10,871,,,,,,,,,,,,,,,,,125,U,hexagon,1,0,,,,,,,,,,,,,,,,repeat,number,numRpt,d,0.5009,Lo,,,,,,0,,,,,,,,low,26,0,26,0,1,,,,,,,,,
293014,2022-11-28_19h20.28.561,vts_reward_expectancy_bt,2022.2.4,Win32,240.1536984,Chrome,1536,864,,,,,1,872,,,,,,,,,,,,,,,,,132,B,circle,1,0,,,,,,,,,,,,,,,,repeat,number,numRpt,d,0.5275,Hi,,,,,,0,,,,,,,,low,27,0,27,0,1,,,,,,,,,
293014,2022-11-28_19h20.28.561,vts_reward_expectancy_bt,2022.2.4,Win32,240.1536984,Chrome,1536,864,,,,,1,873,,,,,,,,,,,,,,,,,160,D,triangle,1,0,,,,,,,,,,,,,,,,switch,letter,lettSwt,j,0.5714,Hi,,,,,,0,,,,,,,,low,28,0,28,0,1,,,,,,,,,
293014,2022-11-28_19h20.28.561,vts_reward_expectancy_bt,2022.2.4,Win32,240.1536984,Chrome,1536,864,,,,,0,873,,,,,,,,,,,,,,,,,139,Y,circle,0,0,,,,,,,,,,,,,,,,repeat,letter,NA,j,0.3257,Hi,,,,,,0,,,,,,,,low,29,0,29,0,1,,,,,,,,,
293014,2022-11-28_19h20.28.561,vts_reward_expectancy_bt,2022.2.4,Win32,240.1536984,Chrome,1536,864,,,,,10,883,,,,,,,,,,,,,,,,,146,S,hexagon,1,1,,,,,,,,,,,,,,,,repeat,letter,lettRpt,k,0.4716,Lo,,,,,,0,,,,,,,,low,30,0,30,0,1,,,,,,,,,
293014,2022-11-28_19h20.28.561,vts_reward_expectancy_bt,2022.2.4,Win32,240.1536984,Chrome,1536,864,,,,,1,884,,,,,,,,,,,,,,,,,174,W,star,1,0,,,,,,,,,,,,,,,,repeat,letter,lettRpt,k,0.5255,Lo,,,,,,0,,,,,,,,low,31,0,31,0,1,,,,,,,,,
293014,2022-11-28_19h20.28.561,vts_reward_expectancy_bt,2022.2.4,Win32,240.1536984,Chrome,1536,864,,,,,0,884,,,,,,,,,,,,,,,,,125,D,circle,0,0,,,,,,,,,,,,,,,,repeat,letter,NA,k,0.4756,Lo,,,,,,1,,,,,,space,1.4155,low,0,0,0,0,1,,,,,,,,,
293014,2022-11-28_19h20.28.561,vts_reward_expectancy_bt,2022.2.4,Win32,240.1536984,Chrome,1536,864,,,,,1,885,,,,,,,,,,,,,,,,,167,U,hexagon,1,1,,,,,,,,,,,,,,,,repeat,letter,lettRpt,k,0.7341,Lo,,,,,,1,,,,,,,,low,1,0,1,0,1,,,,,,,,,
293014,2022-11-28_19h20.28.561,vts_reward_expectancy_bt,2022.2.4,Win32,240.1536984,Chrome,1536,864,,,,,0,885,,,,,,,,,,,,,,,,,139,S,triangle,1,0,,,,,,,,,,,,,,,,repeat,letter,lettRpt,k,0.4525,Hi,,,,,,1,,,,,,,,low,2,0,2,0,1,,,,,,,,,
293014,2022-11-28_19h20.28.561,vts_reward_expectancy_bt,2022.2.4,Win32,240.1536984,Chrome,1536,864,,,,,0,885,,,,,,,,,,,,,,,,,181,H,star,0,0,,,,,,,,,,,,,,,,repeat,letter,NA,k,0.4356,Hi,,,,,,1,,,,,,,,low,3,0,3,0,1,,,,,,,,,
293014,2022-11-28_19h20.28.561,vts_reward_expectancy_bt,2022.2.4,Win32,240.1536984,Chrome,1536,864,,,,,0,885,,,,,,,,,,,,,,,,,160,B,circle,1,1,,,,,,,,,,,,,,,,switch,number,numSwt,f,0.4256,Hi,,,,,,1,,,,,,,,low,4,0,4,0,1,,,,,,,,,
293014,2022-11-28_19h20.28.561,vts_reward_expectancy_bt,2022.2.4,Win32,240.1536984,Chrome,1536,864,,,,,10,895,,,,,,,,,,,,,,,,,132,W,hexagon,1,0,,,,,,,,,,,,,,,,repeat,number,numRpt,d,0.4848,Lo,,,,,,1,,,,,,,,low,5,0,5,0,1,,,,,,,,,
293014,2022-11-28_19h20.28.561,vts_reward_expectancy_bt,2022.2.4,Win32,240.1536984,Chrome,1536,864,,,,,10,905,,,,,,,,,,,,,,,,,146,F,triangle,1,0,,,,,,,,,,,,,,,,repeat,number,numRpt,d,0.3339,Hi,,,,,,1,,,,,,,,low,6,0,6,0,1,,,,,,,,,
293014,2022-11-28_19h20.28.561,vts_reward_expectancy_bt,2022.2.4,Win32,240.1536984,Chrome,1536,864,,,,,10,915,,,,,,,,,,,,,,,,,174,Y,star,1,0,,,,,,,,,,,,,,,,repeat,number,numRpt,f,0.3181,Lo,,,,,,1,,,,,,,,low,7,0,7,0,1,,,,,,,,,
293014,2022-11-28_19h20.28.561,vts_reward_expectancy_bt,2022.2.4,Win32,240.1536984,Chrome,1536,864,,,,,10,925,,,,,,,,,,,,,,,,,125,D,triangle,1,0,,,,,,,,,,,,,,,,repeat,number,numRpt,d,0.3429,Hi,,,,,,1,,,,,,,,low,8,0,8,0,1,,,,,,,,,
293014,2022-11-28_19h20.28.561,vts_reward_expectancy_bt,2022.2.4,Win32,240.1536984,Chrome,1536,864,,,,,10,935,,,,,,,,,,,,,,,,,167,U,circle,1,0,,,,,,,,,,,,,,,,repeat,number,numRpt,f,0.4089,Hi,,,,,,1,,,,,,,,low,9,0,9,0,1,,,,,,,,,
293014,2022-11-28_19h20.28.561,vts_reward_expectancy_bt,2022.2.4,Win32,240.1536984,Chrome,1536,864,,,,,10,945,,,,,,,,,,,,,,,,,139,S,star,1,0,,,,,,,,,,,,,,,,repeat,number,numRpt,d,0.4673,Lo,,,,,,1,,,,,,,,low,10,0,10,0,1,,,,,,,,,
293014,2022-11-28_19h20.28.561,vts_reward_expectancy_bt,2022.2.4,Win32,240.1536984,Chrome,1536,864,,,,,10,955,,,,,,,,,,,,,,,,,181,H,hexagon,1,0,,,,,,,,,,,,,,,,switch,letter,lettSwt,j,0.3715,Lo,,,,,,1,,,,,,,,low,11,0,11,0,1,,,,,,,,,
293014,2022-11-28_19h20.28.561,vts_reward_expectancy_bt,2022.2.4,Win32,240.1536984,Chrome,1536,864,,,,,1,956,,,,,,,,,,,,,,,,,160,B,star,1,0,,,,,,,,,,,,,,,,repeat,letter,lettRpt,j,0.3923,Lo,,,,,,1,,,,,,,,low,12,0,12,0,1,,,,,,,,,
293014,2022-11-28_19h20.28.561,vts_reward_expectancy_bt,2022.2.4,Win32,240.1536984,Chrome,1536,864,,,,,10,966,,,,,,,,,,,,,,,,,132,W,triangle,1,0,,,,,,,,,,,,,,,,repeat,letter,lettRpt,k,0.4174,Hi,,,,,,1,,,,,,,,low,13,0,13,0,1,,,,,,,,,
293014,2022-11-28_19h20.28.561,vts_reward_expectancy_bt,2022.2.4,Win32,240.1536984,Chrome,1536,864,,,,,0,966,,,,,,,,,,,,,,,,,146,F,circle,1,0,,,,,,,,,,,,,,,,repeat,letter,lettRpt,j,0.4974,Hi,,,,,,1,,,,,,,,low,14,0,14,0,1,,,,,,,,,
293014,2022-11-28_19h20.28.561,vts_reward_expectancy_bt,2022.2.4,Win32,240.1536984,Chrome,1536,864,,,,,0,966,,,,,,,,,,,,,,,,,174,Y,hexagon,0,0,,,,,,,,,,,,,,,,repeat,letter,NA,j,0.4797,Hi,,,,,,1,,,,,,,,low,15,0,15,0,1,,,,,,,,,
293014,2022-11-28_19h20.28.561,vts_reward_expectancy_bt,2022.2.4,Win32,240.1536984,Chrome,1536,864,,,,,1,967,,,,,,,,,,,,,,,,,167,S,star,1,1,,,,,,,,,,,,,,,,switch,number,numSwt,f,0.4382,Lo,,,,,,1,,,,,,,,low,16,0,16,0,1,,,,,,,,,
293014,2022-11-28_19h20.28.561,vts_reward_expectancy_bt,2022.2.4,Win32,240.1536984,Chrome,1536,864,,,,,10,977,,,,,,,,,,,,,,,,,139,U,hexagon,1,0,,,,,,,,,,,,,,,,repeat,number,numRpt,d,0.5138,Lo,,,,,,1,,,,,,,,low,17,0,17,0,1,,,,,,,,,
293014,2022-11-28_19h20.28.561,vts_reward_expectancy_bt,2022.2.4,Win32,240.1536984,Chrome,1536,864,,,,,10,987,,,,,,,,,,,,,,,,,160,B,circle,1,0,,,,,,,,,,,,,,,,repeat,number,numRpt,f,0.4506,Hi,,,,,,1,,,,,,,,low,18,0,18,0,1,,,,,,,,,
293014,2022-11-28_19h20.28.561,vts_reward_expectancy_bt,2022.2.4,Win32,240.1536984,Chrome,1536,864,,,,,0,987,,,,,,,,,,,,,,,,,146,H,triangle,1,0,,,,,,,,,,,,,,,,repeat,number,numRpt,d,0.5048,Hi,,,,,,1,,,,,,,,low,19,0,19,0,1,,,,,,,,,
293014,2022-11-28_19h20.28.561,vts_reward_expectancy_bt,2022.2.4,Win32,240.1536984,Chrome,1536,864,,,,,1,988,,,,,,,,,,,,,,,,,132,D,triangle,1,0,,,,,,,,,,,,,,,,repeat,number,numRpt,d,0.3799,Hi,,,,,,1,,,,,,,,low,20,0,20,0,1,,,,,,,,,
293014,2022-11-28_19h20.28.561,vts_reward_expectancy_bt,2022.2.4,Win32,240.1536984,Chrome,1536,864,,,,,0,988,,,,,,,,,,,,,,,,,125,W,circle,1,0,,,,,,,,,,,,,,,,repeat,number,numRpt,d,0.5446,Hi,,,,,,1,,,,,,,,low,21,0,21,0,1,,,,,,,,,
293014,2022-11-28_19h20.28.561,vts_reward_expectancy_bt,2022.2.4,Win32,240.1536984,Chrome,1536,864,,,,,10,998,,,,,,,,,,,,,,,,,181,Y,hexagon,1,0,,,,,,,,,,,,,,,,switch,letter,lettSwt,k,0.3924,Lo,,,,,,1,,,,,,,,low,22,0,22,0,1,,,,,,,,,
293014,2022-11-28_19h20.28.561,vts_reward_expectancy_bt,2022.2.4,Win32,240.1536984,Chrome,1536,864,,,,,1,999,,,,,,,,,,,,,,,,,174,F,star,1,0,,,,,,,,,,,,,,,,repeat,letter,lettRpt,j,0.4969,Lo,,,,,,1,,,,,,,,low,23,0,23,0,1,,,,,,,,,
293014,2022-11-28_19h20.28.561,vts_reward_expectancy_bt,2022.2.4,Win32,240.1536984,Chrome,1536,864,,,,,1,1000,,,,,,,,,,,,,,,,,139,W,star,1,0,,,,,,,,,,,,,,,,repeat,letter,lettRpt,k,0.4093,Lo,,,,,,1,,,,,,,,low,24,0,24,0,1,,,,,,,,,
293014,2022-11-28_19h20.28.561,vts_reward_expectancy_bt,2022.2.4,Win32,240.1536984,Chrome,1536,864,,,,,0,1000,,,,,,,,,,,,,,,,,125,Y,triangle,1,0,,,,,,,,,,,,,,,,repeat,letter,lettRpt,k,0.4674,Hi,,,,,,1,,,,,,,,low,25,0,25,0,1,,,,,,,,,
293014,2022-11-28_19h20.28.561,vts_reward_expectancy_bt,2022.2.4,Win32,240.1536984,Chrome,1536,864,,,,,0,1000,,,,,,,,,,,,,,,,,160,F,circle,1,0,,,,,,,,,,,,,,,,switch,number,numSwt,f,0.5002,Hi,,,,,,1,,,,,,,,low,26,0,26,0,1,,,,,,,,,
293014,2022-11-28_19h20.28.561,vts_reward_expectancy_bt,2022.2.4,Win32,240.1536984,Chrome,1536,864,,,,,1,1001,,,,,,,,,,,,,,,,,146,D,hexagon,1,0,,,,,,,,,,,,,,,,repeat,number,numRpt,d,0.3548,Lo,,,,,,1,,,,,,,,low,27,0,27,0,1,,,,,,,,,
293014,2022-11-28_19h20.28.561,vts_reward_expectancy_bt,2022.2.4,Win32,240.1536984,Chrome,1536,864,,,,,10,1011,,,,,,,,,,,,,,,,,132,H,hexagon,1,0,,,,,,,,,,,,,,,,repeat,number,numRpt,d,0.4799,Lo,,,,,,1,,,,,,,,low,28,0,28,0,1,,,,,,,,,
293014,2022-11-28_19h20.28.561,vts_reward_expectancy_bt,2022.2.4,Win32,240.1536984,Chrome,1536,864,,,,,0,1011,,,,,,,,,,,,,,,,,174,S,circle,0,0,,,,,,,,,,,,,,,,repeat,number,NA,d,0.4463,Lo,,,,,,1,,,,,,,,low,29,0,29,0,1,,,,,,,,,
293014,2022-11-28_19h20.28.561,vts_reward_expectancy_bt,2022.2.4,Win32,240.1536984,Chrome,1536,864,,,,,1,1012,,,,,,,,,,,,,,,,,167,B,star,1,1,,,,,,,,,,,,,,,,repeat,number,numRpt,f,0.4673,Lo,,,,,,1,,,,,,,,low,30,0,30,0,1,,,,,,,,,
293014,2022-11-28_19h20.28.561,vts_reward_expectancy_bt,2022.2.4,Win32,240.1536984,Chrome,1536,864,,,,,1,1013,,,,,,,,,,,,,,,,,181,U,triangle,1,0,,,,,,,,,,,,,,,,repeat,number,numRpt,f,0.3965,Hi,,,,,,1,,,,,,,,low,31,0,31,0,1,,,,,,,,,
293014,2022-11-28_19h20.28.561,vts_reward_expectancy_bt,2022.2.4,Win32,240.1536984,Chrome,1536,864,,,,,10,1023,,,,,,,,,,,,,,,,,174,H,hexagon,1,0,,,,,,,,,,,,,,,,repeat,number,numRpt,f,0.434,Lo,,,,,,2,,,,,,space,0.5606,low,0,0,0,0,1,,,,,,,,,
293014,2022-11-28_19h20.28.561,vts_reward_expectancy_bt,2022.2.4,Win32,240.1536984,Chrome,1536,864,,,,,1,1024,,,,,,,,,,,,,,,,,139,B,star,1,0,,,,,,,,,,,,,,,,repeat,number,numRpt,d,0.3467,Lo,,,,,,2,,,,,,,,low,1,0,1,0,1,,,,,,,,,
293014,2022-11-28_19h20.28.561,vts_reward_expectancy_bt,2022.2.4,Win32,240.1536984,Chrome,1536,864,,,,,0,1024,,,,,,,,,,,,,,,,,146,F,circle,1,0,,,,,,,,,,,,,,,,repeat,number,numRpt,d,0.4589,Hi,,,,,,2,,,,,,,,low,2,0,2,0,1,,,,,,,,,
293014,2022-11-28_19h20.28.561,vts_reward_expectancy_bt,2022.2.4,Win32,240.1536984,Chrome,1536,864,,,,,10,1034,,,,,,,,,,,,,,,,,160,U,triangle,1,0,,,,,,,,,,,,,,,,repeat,number,numRpt,f,0.3216,Hi,,,,,,2,,,,,,,,low,3,0,3,0,1,,,,,,,,,
293014,2022-11-28_19h20.28.561,vts_reward_expectancy_bt,2022.2.4,Win32,240.1536984,Chrome,1536,864,,,,,1,1035,,,,,,,,,,,,,,,,,125,D,hexagon,1,0,,,,,,,,,,,,,,,,repeat,number,numRpt,d,0.4131,Lo,,,,,,2,,,,,,,,low,4,0,4,0,1,,,,,,,,,
293014,2022-11-28_19h20.28.561,vts_reward_expectancy_bt,2022.2.4,Win32,240.1536984,Chrome,1536,864,,,,,0,1035,,,,,,,,,,,,,,,,,167,W,star,0,0,,,,,,,,,,,,,,,,repeat,number,NA,d,0.3132,Lo,,,,,,2,,,,,,,,low,5,0,5,0,1,,,,,,,,,
293014,2022-11-28_19h20.28.561,vts_reward_expectancy_bt,2022.2.4,Win32,240.1536984,Chrome,1536,864,,,,,0,1035,,,,,,,,,,,,,,,,,181,S,circle,1,1,,,,,,,,,,,,,,,,repeat,number,numRpt,f,0.4298,Hi,,,,,,2,,,,,,,,low,6,0,6,0,1,,,,,,,,,
293014,2022-11-28_19h20.28.561,vts_reward_expectancy_bt,2022.2.4,Win32,240.1536984,Chrome,1536,864,,,,,10,1045,,,,,,,,,,,,,,,,,132,Y,triangle,1,0,,,,,,,,,,,,,,,,repeat,number,numRpt,d,0.3091,Hi,,,,,,2,,,,,,,,low,7,0,7,0,1,,,,,,,,,
293014,2022-11-28_19h20.28.561,vts_reward_expectancy_bt,2022.2.4,Win32,240.1536984,Chrome,1536,864,,,,,1,1046,,,,,,,,,,,,,,,,,174,H,star,1,0,,,,,,,,,,,,,,,,repeat,number,numRpt,f,0.3718,Lo,,,,,,2,,,,,,,,low,8,0,8,0,1,,,,,,,,,
293014,2022-11-28_19h20.28.561,vts_reward_expectancy_bt,2022.2.4,Win32,240.1536984,Chrome,1536,864,,,,,0,1046,,,,,,,,,,,,,,,,,139,B,circle,1,0,,,,,,,,,,,,,,,,repeat,number,numRpt,d,0.4981,Hi,,,,,,2,,,,,,,,low,9,0,9,0,1,,,,,,,,,
293014,2022-11-28_19h20.28.561,vts_reward_expectancy_bt,2022.2.4,Win32,240.1536984,Chrome,1536,864,,,,,10,1056,,,,,,,,,,,,,,,,,146,F,hexagon,1,0,,,,,,,,,,,,,,,,repeat,number,numRpt,d,0.4289,Lo,,,,,,2,,,,,,,,low,10,0,10,0,1,,,,,,,,,
293014,2022-11-28_19h20.28.561,vts_reward_expectancy_bt,2022.2.4,Win32,240.1536984,Chrome,1536,864,,,,,0,1056,,,,,,,,,,,,,,,,,160,U,triangle,1,0,,,,,,,,,,,,,,,,switch,letter,lettSwt,k,0.4403,Hi,,,,,,2,,,,,,,,low,11,0,11,0,1,,,,,,,,,
293014,2022-11-28_19h20.28.561,vts_reward_expectancy_bt,2022.2.4,Win32,240.1536984,Chrome,1536,864,,,,,10,1066,,,,,,,,,,,,,,,,,125,D,circle,1,0,,,,,,,,,,,,,,,,repeat,letter,lettRpt,j,0.3527,Hi,,,,,,2,,,,,,,,low,12,0,12,0,1,,,,,,,,,
293014,2022-11-28_19h20.28.561,vts_reward_expectancy_bt,2022.2.4,Win32,240.1536984,Chrome,1536,864,,,,,1,1067,,,,,,,,,,,,,,,,,167,W,star,1,0,,,,,,,,,,,,,,,,repeat,letter,lettRpt,k,0.4949,Lo,,,,,,2,,,,,,,,low,13,0,13,0,1,,,,,,,,,
293014,2022-11-28_19h20.28.561,vts_reward_expectancy_bt,2022.2.4,Win32,240.1536984,Chrome,1536,864,,,,,10,1077,,,,,,,,,,,,,,,,,181,S,triangle,1,0,,,,,,,,,,,,,,,,repeat,letter,lettRpt,k,0.4074,Hi,,,,,,2,,,,,,,,low,14,0,14,0,1,,,,,,,,,
293014,2022-11-28_19h20.28.561,vts_reward_expectancy_bt,2022.2.4,Win32,240.1536984,Chrome,1536,864,,,,,10,1087,,,,,,,,,,,,,,,,,132,Y,hexagon,1,0,,,,,,,,,,,,,,,,repeat,letter,lettRpt,k,0.5547,Lo,,,,,,2,,,,,,,,low,15,0,15,0,1,,,,,,,,,
293014,2022-11-28_19h20.28.561,vts_reward_expectancy_bt,2022.2.4,Win32,240.1536984,Chrome,1536,864,,,,,0,1087,,,,,,,,,,,,,,,,,160,U,triangle,0,0,,,,,,,,,,,,,,,,repeat,letter,NA,j,0.4422,Lo,,,,,,2,,,,,,,,low,16,0,16,0,1,,,,,,,,,
293014,2022-11-28_19h20.28.561,vts_reward_expectancy_bt,2022.2.4,Win32,240.1536984,Chrome,1536,864,,,,,0,1087,,,,,,,,,,,,,,,,,132,H,circle,0,1,,,,,,,,,,,,,,,,repeat,letter,NA,k,0.4497,Lo,,,,,,2,,,,,,,,low,17,0,17,0,1,,,,,,,,,
293014,2022-11-28_19h20.28.561,vts_reward_expectancy_bt,2022.2.4,Win32,240.1536984,Chrome,1536,864,,,,,0,1087,,,,,,,,,,,,,,,,,146,S,hexagon,0,1,,,,,,,,,,,,,,,,repeat,letter,NA,j,0.3465,Lo,,,,,,2,,,,,,,,low,18,0,18,0,1,,,,,,,,,
293014,2022-11-28_19h20.28.561,vts_reward_expectancy_bt,2022.2.4,Win32,240.1536984,Chrome,1536,864,,,,,1,1088,,,,,,,,,,,,,,,,,125,B,star,1,1,,,,,,,,,,,,,,,,repeat,letter,lettRpt,j,0.3672,Lo,,,,,,2,,,,,,,,low,19,0,19,0,1,,,,,,,,,
293014,2022-11-28_19h20.28.561,vts_reward_expectancy_bt,2022.2.4,Win32,240.1536984,Chrome,1536,864,,,,,10,1098,,,,,,,,,,,,,,,,,181,Y,hexagon,1,0,,,,,,,,,,,,,,,,switch,number,numSwt,f,0.4088,Lo,,,,,,2,,,,,,,,low,20,0,20,0,1,,,,,,,,,
293014,2022-11-28_19h20.28.561,vts_reward_expectancy_bt,2022.2.4,Win32,240.1536984,Chrome,1536,864,,,,,0,1098,,,,,,,,,,,,,,,,,139,W,circle,1,0,,,,,,,,,,,,,,,,repeat,number,numRpt,d,0.5097,Hi,,,,,,2,,,,,,,,low,21,0,21,0,1,,,,,,,,,
293014,2022-11-28_19h20.28.561,vts_reward_expectancy_bt,2022.2.4,Win32,240.1536984,Chrome,1536,864,,,,,1,1099,,,,,,,,,,,,,,,,,174,D,star,1,0,,,,,,,,,,,,,,,,repeat,number,numRpt,f,0.4633,Lo,,,,,,2,,,,,,,,low,22,0,22,0,1,,,,,,,,,
293014,2022-11-28_19h20.28.561,vts_reward_expectancy_bt,2022.2.4,Win32,240.1536984,Chrome,1536,864,,,,,0,1099,,,,,,,,,,,,,,,,,167,F,triangle,1,0,,,,,,,,,,,,,,,,switch,letter,lettSwt,j,0.4843,Hi,,,,,,2,,,,,,,,low,23,0,23,0,1,,,,,,,,,
293014,2022-11-28_19h20.28.561,vts_reward_expectancy_bt,2022.2.4,Win32,240.1536984,Chrome,1536,864,,,,,0,1099,,,,,,,,,,,,,,,,,146,B,triangle,1,0,,,,,,,,,,,,,,,,switch,number,numSwt,d,0.4523,Hi,,,,,,2,,,,,,,,low,24,0,24,0,1,,,,,,,,,
293014,2022-11-28_19h20.28.561,vts_reward_expectancy_bt,2022.2.4,Win32,240.1536984,Chrome,1536,864,,,,,10,1109,,,,,,,,,,,,,,,,,125,H,star,1,0,,,,,,,,,,,,,,,,repeat,number,numRpt,d,0.334,Lo,,,,,,2,,,,,,,,low,25,0,25,0,1,,,,,,,,,
293014,2022-11-28_19h20.28.561,vts_reward_expectancy_bt,2022.2.4,Win32,240.1536984,Chrome,1536,864,,,,,1,1110,,,,,,,,,,,,,,,,,139,S,hexagon,1,0,,,,,,,,,,,,,,,,repeat,number,numRpt,d,0.429,Lo,,,,,,2,,,,,,,,low,26,0,26,0,1,,,,,,,,,
293014,2022-11-28_19h20.28.561,vts_reward_expectancy_bt,2022.2.4,Win32,240.1536984,Chrome,1536,864,,,,,0,1110,,,,,,,,,,,,,,,,,167,D,circle,0,0,,,,,,,,,,,,,,,,repeat,number,NA,d,0.4732,Lo,,,,,,2,,,,,,,,low,27,0,27,0,1,,,,,,,,,
293014,2022-11-28_19h20.28.561,vts_reward_expectancy_bt,2022.2.4,Win32,240.1536984,Chrome,1536,864,,,,,1,1111,,,,,,,,,,,,,,,,,132,W,star,1,1,,,,,,,,,,,,,,,,repeat,number,numRpt,d,0.4964,Lo,,,,,,2,,,,,,,,low,28,0,28,0,1,,,,,,,,,
293014,2022-11-28_19h20.28.561,vts_reward_expectancy_bt,2022.2.4,Win32,240.1536984,Chrome,1536,864,,,,,0,1111,,,,,,,,,,,,,,,,,181,U,circle,1,0,,,,,,,,,,,,,,,,repeat,number,numRpt,f,0.4222,Hi,,,,,,2,,,,,,,,low,29,0,29,0,1,,,,,,,,,
293014,2022-11-28_19h20.28.561,vts_reward_expectancy_bt,2022.2.4,Win32,240.1536984,Chrome,1536,864,,,,,0,1111,,,,,,,,,,,,,,,,,174,Y,triangle,1,0,,,,,,,,,,,,,,,,switch,letter,lettSwt,k,0.3875,Hi,,,,,,2,,,,,,,,low,30,0,30,0,1,,,,,,,,,
293014,2022-11-28_19h20.28.561,vts_reward_expectancy_bt,2022.2.4,Win32,240.1536984,Chrome,1536,864,,,,,0,1111,,,,,,,,,,,,,,,,,160,F,hexagon,0,0,,,,,,,,,,,,,,,,repeat,letter,NA,k,0.394,Hi,,,,,,2,,,,,,,,low,31,0,31,0,1,,,,,,,,,
293014,2022-11-28_19h20.28.561,vts_reward_expectancy_bt,2022.2.4,Win32,240.1536984,Chrome,1536,864,,,,,0,1111,,,,,,,,,,,,,,,,,125,U,triangle,0,1,,,,,,,,,,,,,,,,repeat,letter,NA,j,0.3089,Hi,,,,,,3,,,,,,space,1.7077,low,0,0,0,0,1,,,,,,,,,
293014,2022-11-28_19h20.28.561,vts_reward_expectancy_bt,2022.2.4,Win32,240.1536984,Chrome,1536,864,,,,,0,1111,,,,,,,,,,,,,,,,,160,Y,circle,1,1,,,,,,,,,,,,,,,,repeat,letter,lettRpt,k,0.3932,Hi,,,,,,3,,,,,,,,low,1,0,1,0,1,,,,,,,,,
293014,2022-11-28_19h20.28.561,vts_reward_expectancy_bt,2022.2.4,Win32,240.1536984,Chrome,1536,864,,,,,10,1121,,,,,,,,,,,,,,,,,174,H,star,1,0,,,,,,,,,,,,,,,,switch,number,numSwt,f,0.4382,Lo,,,,,,3,,,,,,,,low,2,0,2,0,1,,,,,,,,,
293014,2022-11-28_19h20.28.561,vts_reward_expectancy_bt,2022.2.4,Win32,240.1536984,Chrome,1536,864,,,,,10,1131,,,,,,,,,,,,,,,,,167,B,hexagon,1,0,,,,,,,,,,,,,,,,repeat,number,numRpt,f,0.5091,Lo,,,,,,3,,,,,,,,low,3,0,3,0,1,,,,,,,,,
293014,2022-11-28_19h20.28.561,vts_reward_expectancy_bt,2022.2.4,Win32,240.1536984,Chrome,1536,864,,,,,0,1131,,,,,,,,,,,,,,,,,146,F,triangle,1,0,,,,,,,,,,,,,,,,repeat,number,numRpt,d,0.5002,Hi,,,,,,3,,,,,,,,low,4,0,4,0,1,,,,,,,,,
293014,2022-11-28_19h20.28.561,vts_reward_expectancy_bt,2022.2.4,Win32,240.1536984,Chrome,1536,864,,,,,0,1131,,,,,,,,,,,,,,,,,139,D,circle,1,0,,,,,,,,,,,,,,,,repeat,number,numRpt,d,0.434,Hi,,,,,,3,,,,,,,,low,5,0,5,0,1,,,,,,,,,
293014,2022-11-28_19h20.28.561,vts_reward_expectancy_bt,2022.2.4,Win32,240.1536984,Chrome,1536,864,,,,,10,1141,,,,,,,,,,,,,,,,,181,W,star,1,0,,,,,,,,,,,,,,,,repeat,number,numRpt,f,0.4256,Lo,,,,,,3,,,,,,,,low,6,0,6,0,1,,,,,,,,,
293014,2022-11-28_19h20.28.561,vts_reward_expectancy_bt,2022.2.4,Win32,240.1536984,Chrome,1536,864,,,,,1,1142,,,,,,,,,,,,,,,,,132,S,hexagon,1,0,,,,,,,,,,,,,,,,repeat,number,numRpt,d,0.4795,Lo,,,,,,3,,,,,,,,low,7,0,7,0,1,,,,,,,,,
293014,2022-11-28_19h20.28.561,vts_reward_expectancy_bt,2022.2.4,Win32,240.1536984,Chrome,1536,864,,,,,10,1152,,,,,,,,,,,,,,,,,125,U,hexagon,1,0,,,,,,,,,,,,,,,,repeat,number,numRpt,d,0.3964,Lo,,,,,,3,,,,,,,,low,8,0,8,0,1,,,,,,,,,
293014,2022-11-28_19h20.28.561,vts_reward_expectancy_bt,2022.2.4,Win32,240.1536984,Chrome,1536,864,,,,,0,1152,,,,,,,,,,,,,,,,,160,Y,triangle,1,0,,,,,,,,,,,,,,,,repeat,number,numRpt,f,0.4549,Hi,,,,,,3,,,,,,,,low,9,0,9,0,1,,,,,,,,,
293014,2022-11-28_19h20.28.561,vts_reward_expectancy_bt,2022.2.4,Win32,240.1536984,Chrome,1536,864,,,,,0,1152,,,,,,,,,,,,,,,,,174,H,star,0,0,,,,,,,,,,,,,,,,repeat,number,NA,d,0.3973,Hi,,,,,,3,,,,,,,,low,10,0,10,0,1,,,,,,,,,
293014,2022-11-28_19h20.28.561,vts_reward_expectancy_bt,2022.2.4,Win32,240.1536984,Chrome,1536,864,,,,,10,1162,,,,,,,,,,,,,,,,,167,B,circle,1,1,,,,,,,,,,,,,,,,switch,letter,lettSwt,j,0.3964,Hi,,,,,,3,,,,,,,,low,11,0,11,0,1,,,,,,,,,
293014,2022-11-28_19h20.28.561,vts_reward_expectancy_bt,2022.2.4,Win32,240.1536984,Chrome,1536,864,,,,,1,1163,,,,,,,,,,,,,,,,,146,F,star,1,0,,,,,,,,,,,,,,,,repeat,letter,lettRpt,j,0.4633,Lo,,,,,,3,,,,,,,,low,12,0,12,0,1,,,,,,,,,
293014,2022-11-28_19h20.28.561,vts_reward_expectancy_bt,2022.2.4,Win32,240.1536984,Chrome,1536,864,,,,,0,1163,,,,,,,,,,,,,,,,,139,D,hexagon,0,0,,,,,,,,,,,,,,,,switch,number,NA,f,0.5424,Lo,,,,,,3,,,,,,,,low,13,0,13,0,1,,,,,,,,,
293014,2022-11-28_19h20.28.561,vts_reward_expectancy_bt,2022.2.4,Win32,240.1536984,Chrome,1536,864,,,,,0,1163,,,,,,,,,,,,,,,,,181,W,triangle,0,1,,,,,,,,,,,,,,,,repeat,number,NA,d,0.3923,Lo,,,,,,3,,,,,,,,low,14,0,14,0,1,,,,,,,,,
293014,2022-11-28_19h20.28.561,vts_reward_expectancy_bt,2022.2.4,Win32,240.1536984,Chrome,1536,864,,,,,0,1163,,,,,,,,,,,,,,,,,132,S,circle,1,1,,,,,,,,,,,,,,,,repeat,number,numRpt,d,0.5755,Hi,,,,,,3,,,,,,,,low,15,0,15,0,1,,,,,,,,,
293014,2022-11-28_19h20.28.561,vts_reward_expectancy_bt,2022.2.4,Win32,240.1536984,Chrome,1536,864,,,,,10,1173,,,,,,,,,,,,,,,,,146,S,star,1,0,,,,,,,,,,,,,,,,repeat,number,numRpt,d,0.3881,Lo,,,,,,3,,,,,,,,low,16,0,16,0,1,,,,,,,,,
293014,2022-11-28_19h20.28.561,vts_reward_expectancy_bt,2022.2.4,Win32,240.1536984,Chrome,1536,864,,,,,10,1183,,,,,,,,,,,,,,,,,174,Y,hexagon,1,0,,,,,,,,,,,,,,,,switch,letter,lettSwt,k,0.3522,Lo,,,,,,3,,,,,,,,low,17,0,17,0,1,,,,,,,,,
293014,2022-11-28_19h20.28.561,vts_reward_expectancy_bt,2022.2.4,Win32,240.1536984,Chrome,1536,864,,,,,0,1183,,,,,,,,,,,,,,,,,160,W,circle,1,0,,,,,,,,,,,,,,,,switch,number,numSwt,f,0.4132,Hi,,,,,,3,,,,,,,,low,18,0,18,0,1,,,,,,,,,
293014,2022-11-28_19h20.28.561,vts_reward_expectancy_bt,2022.2.4,Win32,240.1536984,Chrome,1536,864,,,,,10,1193,,,,,,,,,,,,,,,,,125,U,triangle,1,0,,,,,,,,,,,,,,,,repeat,number,numRpt,d,0.4006,Hi,,,,,,3,,,,,,,,low,19,0,19,0,1,,,,,,,,,
293014,2022-11-28_19h20.28.561,vts_reward_expectancy_bt,2022.2.4,Win32,240.1536984,Chrome,1536,864,,,,,1,1194,,,,,,,,,,,,,,,,,167,F,hexagon,1,0,,,,,,,,,,,,,,,,repeat,number,numRpt,f,0.3744,Lo,,,,,,3,,,,,,,,low,20,0,20,0,1,,,,,,,,,
293014,2022-11-28_19h20.28.561,vts_reward_expectancy_bt,2022.2.4,Win32,240.1536984,Chrome,1536,864,,,,,0,1194,,,,,,,,,,,,,,,,,132,B,triangle,1,0,,,,,,,,,,,,,,,,repeat,number,numRpt,d,0.4721,Hi,,,,,,3,,,,,,,,low,21,0,21,0,1,,,,,,,,,
293014,2022-11-28_19h20.28.561,vts_reward_expectancy_bt,2022.2.4,Win32,240.1536984,Chrome,1536,864,,,,,1,1195,,,,,,,,,,,,,,,,,181,D,circle,1,0,,,,,,,,,,,,,,,,repeat,number,numRpt,f,0.3631,Hi,,,,,,3,,,,,,,,low,22,0,22,0,1,,,,,,,,,
293014,2022-11-28_19h20.28.561,vts_reward_expectancy_bt,2022.2.4,Win32,240.1536984,Chrome,1536,864,,,,,0,1195,,,,,,,,,,,,,,,,,139,H,star,0,0,,,,,,,,,,,,,,,,switch,letter,NA,k,0.439,Hi,,,,,,3,,,,,,,,low,23,0,23,0,1,,,,,,,,,
293014,2022-11-28_19h20.28.561,vts_reward_expectancy_bt,2022.2.4,Win32,240.1536984,Chrome,1536,864,,,,,10,1205,,,,,,,,,,,,,,,,,125,D,star,1,1,,,,,,,,,,,,,,,,repeat,letter,lettRpt,j,0.6474,Lo,,,,,,3,,,,,,,,low,24,0,24,0,1,,,,,,,,,
293014,2022-11-28_19h20.28.561,vts_reward_expectancy_bt,2022.2.4,Win32,240.1536984,Chrome,1536,864,,,,,1,1206,,,,,,,,,,,,,,,,,160,Y,hexagon,1,0,,,,,,,,,,,,,,,,switch,number,numSwt,f,0.4006,Lo,,,,,,3,,,,,,,,low,25,0,25,0,1,,,,,,,,,
293014,2022-11-28_19h20.28.561,vts_reward_expectancy_bt,2022.2.4,Win32,240.1536984,Chrome,1536,864,,,,,0,1206,,,,,,,,,,,,,,,,,181,S,circle,1,0,,,,,,,,,,,,,,,,repeat,number,numRpt,f,0.4149,Hi,,,,,,3,,,,,,,,low,26,0,26,0,1,,,,,,,,,
293014,2022-11-28_19h20.28.561,vts_reward_expectancy_bt,2022.2.4,Win32,240.1536984,Chrome,1536,864,,,,,0,1206,,,,,,,,,,,,,,,,,167,U,triangle,1,0,,,,,,,,,,,,,,,,repeat,number,numRpt,f,0.4298,Hi,,,,,,3,,,,,,,,low,27,0,27,0,1,,,,,,,,,
293014,2022-11-28_19h20.28.561,vts_reward_expectancy_bt,2022.2.4,Win32,240.1536984,Chrome,1536,864,,,,,0,1206,,,,,,,,,,,,,,,,,174,B,triangle,0,0,,,,,,,,,,,,,,,,repeat,number,NA,d,0.3973,Hi,,,,,,3,,,,,,,,low,28,0,28,0,1,,,,,,,,,
293014,2022-11-28_19h20.28.561,vts_reward_expectancy_bt,2022.2.4,Win32,240.1536984,Chrome,1536,864,,,,,1,1207,,,,,,,,,,,,,,,,,146,W,hexagon,1,1,,,,,,,,,,,,,,,,switch,letter,lettSwt,k,0.3969,Lo,,,,,,3,,,,,,,,low,29,0,29,0,1,,,,,,,,,
293014,2022-11-28_19h20.28.561,vts_reward_expectancy_bt,2022.2.4,Win32,240.1536984,Chrome,1536,864,,,,,0,1207,,,,,,,,,,,,,,,,,139,H,circle,1,0,,,,,,,,,,,,,,,,repeat,letter,lettRpt,j,0.4792,Hi,,,,,,3,,,,,,,,low,30,0,30,0,1,,,,,,,,,
293014,2022-11-28_19h20.28.561,vts_reward_expectancy_bt,2022.2.4,Win32,240.1536984,Chrome,1536,864,,,,,1,1208,,,,,,,,,,,,,,,,,132,F,star,1,0,,,,,,,,,,,,,,,,switch,number,numSwt,d,0.4548,Lo,,,,,,3,,,,,,,,low,31,0,31,0,1,,,,,,,,,
293014,2022-11-28_19h20.28.561,vts_reward_expectancy_bt,2022.2.4,Win32,240.1536984,Chrome,1536,864,,,,,10,1218,,,,,,,,,,,,,,,,,146,W,star,1,0,,,,,,,,,,,,,,,,switch,letter,lettSwt,k,0.3756,Lo,,,,,,4,,,,,,space,2.5656,low,0,0,0,0,1,,,,,,,,,
293014,2022-11-28_19h20.28.561,vts_reward_expectancy_bt,2022.2.4,Win32,240.1536984,Chrome,1536,864,,,,,10,1228,,,,,,,,,,,,,,,,,160,D,triangle,1,0,,,,,,,,,,,,,,,,repeat,letter,lettRpt,j,0.3715,Hi,,,,,,4,,,,,,,,low,1,0,1,0,1,,,,,,,,,
293014,2022-11-28_19h20.28.561,vts_reward_expectancy_bt,2022.2.4,Win32,240.1536984,Chrome,1536,864,,,,,0,1228,,,,,,,,,,,,,,,,,174,H,circle,0,0,,,,,,,,,,,,,,,,repeat,letter,NA,k,0.3303,Hi,,,,,,4,,,,,,,,low,2,0,2,0,1,,,,,,,,,
293014,2022-11-28_19h20.28.561,vts_reward_expectancy_bt,2022.2.4,Win32,240.1536984,Chrome,1536,864,,,,,0,1228,,,,,,,,,,,,,,,,,132,U,hexagon,0,1,,,,,,,,,,,,,,,,repeat,letter,NA,j,0.3922,Hi,,,,,,4,,,,,,,,low,3,0,3,0,1,,,,,,,,,
293014,2022-11-28_19h20.28.561,vts_reward_expectancy_bt,2022.2.4,Win32,240.1536984,Chrome,1536,864,,,,,0,1228,,,,,,,,,,,,,,,,,181,B,star,0,1,,,,,,,,,,,,,,,,switch,number,NA,d,0.4671,Hi,,,,,,4,,,,,,,,low,4,0,4,0,1,,,,,,,,,
293014,2022-11-28_19h20.28.561,vts_reward_expectancy_bt,2022.2.4,Win32,240.1536984,Chrome,1536,864,,,,,0,1228,,,,,,,,,,,,,,,,,139,Y,triangle,1,1,,,,,,,,,,,,,,,,repeat,number,numRpt,d,0.5307,Hi,,,,,,4,,,,,,,,low,5,0,5,0,1,,,,,,,,,
293014,2022-11-28_19h20.28.561,vts_reward_expectancy_bt,2022.2.4,Win32,240.1536984,Chrome,1536,864,,,,,0,1228,,,,,,,,,,,,,,,,,125,S,circle,1,0,,,,,,,,,,,,,,,,repeat,number,numRpt,d,0.4965,Hi,,,,,,4,,,,,,,,low,6,0,6,0,1,,,,,,,,,
293014,2022-11-28_19h20.28.561,vts_reward_expectancy_bt,2022.2.4,Win32,240.1536984,Chrome,1536,864,,,,,10,1238,,,,,,,,,,,,,,,,,167,F,hexagon,1,0,,,,,,,,,,,,,,,,repeat,number,numRpt,f,0.4178,Lo,,,,,,4,,,,,,,,low,7,0,7,0,1,,,,,,,,,
293014,2022-11-28_19h20.28.561,vts_reward_expectancy_bt,2022.2.4,Win32,240.1536984,Chrome,1536,864,,,,,0,1238,,,,,,,,,,,,,,,,,146,W,triangle,1,0,,,,,,,,,,,,,,,,repeat,number,numRpt,d,0.5219,Hi,,,,,,4,,,,,,,,low,8,0,8,0,1,,,,,,,,,
293014,2022-11-28_19h20.28.561,vts_reward_expectancy_bt,2022.2.4,Win32,240.1536984,Chrome,1536,864,,,,,1,1239,,,,,,,,,,,,,,,,,160,D,star,1,0,,,,,,,,,,,,,,,,switch,letter,lettSwt,j,0.3179,Lo,,,,,,4,,,,,,,,low,9,0,9,0,1,,,,,,,,,
293014,2022-11-28_19h20.28.561,vts_reward_expectancy_bt,2022.2.4,Win32,240.1536984,Chrome,1536,864,,,,,10,1249,,,,,,,,,,,,,,,,,174,H,circle,1,0,,,,,,,,,,,,,,,,repeat,letter,lettRpt,j,0.4422,Hi,,,,,,4,,,,,,,,low,10,0,10,0,1,,,,,,,,,
293014,2022-11-28_19h20.28.561,vts_reward_expectancy_bt,2022.2.4,Win32,240.1536984,Chrome,1536,864,,,,,10,1259,,,,,,,,,,,,,,,,,132,U,hexagon,1,0,,,,,,,,,,,,,,,,repeat,letter,lettRpt,k,0.4097,Lo,,,,,,4,,,,,,,,low,11,0,11,0,1,,,,,,,,,
293014,2022-11-28_19h20.28.561,vts_reward_expectancy_bt,2022.2.4,Win32,240.1536984,Chrome,1536,864,,,,,10,1269,,,,,,,,,,,,,,,,,181,B,hexagon,1,0,,,,,,,,,,,,,,,,repeat,letter,lettRpt,j,0.3755,Lo,,,,,,4,,,,,,,,low,12,0,12,0,1,,,,,,,,,
293014,2022-11-28_19h20.28.561,vts_reward_expectancy_bt,2022.2.4,Win32,240.1536984,Chrome,1536,864,,,,,10,1279,,,,,,,,,,,,,,,,,139,Y,circle,1,0,,,,,,,,,,,,,,,,repeat,letter,lettRpt,k,0.3964,Hi,,,,,,4,,,,,,,,low,13,0,13,0,1,,,,,,,,,
293014,2022-11-28_19h20.28.561,vts_reward_expectancy_bt,2022.2.4,Win32,240.1536984,Chrome,1536,864,,,,,10,1289,,,,,,,,,,,,,,,,,125,S,star,1,0,,,,,,,,,,,,,,,,repeat,letter,lettRpt,k,0.3882,Lo,,,,,,4,,,,,,,,low,14,0,14,0,1,,,,,,,,,
293014,2022-11-28_19h20.28.561,vts_reward_expectancy_bt,2022.2.4,Win32,240.1536984,Chrome,1536,864,,,,,0,1289,,,,,,,,,,,,,,,,,167,F,triangle,1,0,,,,,,,,,,,,,,,,repeat,letter,lettRpt,j,0.4718,Hi,,,,,,4,,,,,,,,low,15,0,15,0,1,,,,,,,,,
293014,2022-11-28_19h20.28.561,vts_reward_expectancy_bt,2022.2.4,Win32,240.1536984,Chrome,1536,864,,,,,0,1289,,,,,,,,,,,,,,,,,174,D,circle,1,0,,,,,,,,,,,,,,,,switch,number,numSwt,f,0.4592,Hi,,,,,,4,,,,,,,,low,16,0,16,0,1,,,,,,,,,
293014,2022-11-28_19h20.28.561,vts_reward_expectancy_bt,2022.2.4,Win32,240.1536984,Chrome,1536,864,,,,,0,1289,,,,,,,,,,,,,,,,,167,B,triangle,0,0,,,,,,,,,,,,,,,,repeat,number,NA,d,0.4588,Hi,,,,,,4,,,,,,,,low,17,0,17,0,1,,,,,,,,,
293014,2022-11-28_19h20.28.561,vts_reward_expectancy_bt,2022.2.4,Win32,240.1536984,Chrome,1536,864,,,,,1,1290,,,,,,,,,,,,,,,,,132,F,hexagon,1,1,,,,,,,,,,,,,,,,repeat,number,numRpt,d,0.3465,Lo,,,,,,4,,,,,,,,low,18,0,18,0,1,,,,,,,,,
293014,2022-11-28_19h20.28.561,vts_reward_expectancy_bt,2022.2.4,Win32,240.1536984,Chrome,1536,864,,,,,1,1291,,,,,,,,,,,,,,,,,160,H,star,1,0,,,,,,,,,,,,,,,,repeat,number,numRpt,f,0.3339,Lo,,,,,,4,,,,,,,,low,19,0,19,0,1,,,,,,,,,
293014,2022-11-28_19h20.28.561,vts_reward_expectancy_bt,2022.2.4,Win32,240.1536984,Chrome,1536,864,,,,,10,1301,,,,,,,,,,,,,,,,,125,Y,circle,1,0,,,,,,,,,,,,,,,,repeat,number,numRpt,d,0.3003,Hi,,,,,,4,,,,,,,,low,20,0,20,0,1,,,,,,,,,
293014,2022-11-28_19h20.28.561,vts_reward_expectancy_bt,2022.2.4,Win32,240.1536984,Chrome,1536,864,,,,,0,1301,,,,,,,,,,,,,,,,,181,U,triangle,1,0,,,,,,,,,,,,,,,,repeat,number,numRpt,f,0.4256,Hi,,,,,,4,,,,,,,,low,21,0,21,0,1,,,,,,,,,
293014,2022-11-28_19h20.28.561,vts_reward_expectancy_bt,2022.2.4,Win32,240.1536984,Chrome,1536,864,,,,,1,1302,,,,,,,,,,,,,,,,,146,W,hexagon,1,0,,,,,,,,,,,,,,,,repeat,number,numRpt,d,0.4551,Lo,,,,,,4,,,,,,,,low,22,0,22,0,1,,,,,,,,,
293014,2022-11-28_19h20.28.561,vts_reward_expectancy_bt,2022.2.4,Win32,240.1536984,Chrome,1536,864,,,,,1,1303,,,,,,,,,,,,,,,,,139,S,star,1,0,,,,,,,,,,,,,,,,repeat,number,numRpt,d,0.5006,Lo,,,,,,4,,,,,,,,low,23,0,23,0,1,,,,,,,,,
293014,2022-11-28_19h20.28.561,vts_reward_expectancy_bt,2022.2.4,Win32,240.1536984,Chrome,1536,864,,,,,10,1313,,,,,,,,,,,,,,,,,181,Y,star,1,0,,,,,,,,,,,,,,,,repeat,number,numRpt,f,0.5257,Lo,,,,,,4,,,,,,,,low,24,0,24,0,1,,,,,,,,,
293014,2022-11-28_19h20.28.561,vts_reward_expectancy_bt,2022.2.4,Win32,240.1536984,Chrome,1536,864,,,,,1,1314,,,,,,,,,,,,,,,,,167,F,hexagon,1,0,,,,,,,,,,,,,,,,repeat,number,numRpt,f,0.5382,Lo,,,,,,4,,,,,,,,low,25,0,25,0,1,,,,,,,,,
293014,2022-11-28_19h20.28.561,vts_reward_expectancy_bt,2022.2.4,Win32,240.1536984,Chrome,1536,864,,,,,0,1314,,,,,,,,,,,,,,,,,125,W,triangle,1,0,,,,,,,,,,,,,,,,repeat,number,numRpt,d,0.4382,Hi,,,,,,4,,,,,,,,low,26,0,26,0,1,,,,,,,,,
293014,2022-11-28_19h20.28.561,vts_reward_expectancy_bt,2022.2.4,Win32,240.1536984,Chrome,1536,864,,,,,0,1314,,,,,,,,,,,,,,,,,160,U,circle,1,0,,,,,,,,,,,,,,,,switch,letter,lettSwt,k,0.3877,Hi,,,,,,4,,,,,,,,low,27,0,27,0,1,,,,,,,,,
293014,2022-11-28_19h20.28.561,vts_reward_expectancy_bt,2022.2.4,Win32,240.1536984,Chrome,1536,864,,,,,0,1314,,,,,,,,,,,,,,,,,132,B,circle,0,0,,,,,,,,,,,,,,,,repeat,letter,NA,k,0.3526,Hi,,,,,,4,,,,,,,,low,28,0,28,0,1,,,,,,,,,
293014,2022-11-28_19h20.28.561,vts_reward_expectancy_bt,2022.2.4,Win32,240.1536984,Chrome,1536,864,,,,,0,1314,,,,,,,,,,,,,,,,,174,S,hexagon,0,1,,,,,,,,,,,,,,,,repeat,letter,NA,j,0.4962,Hi,,,,,,4,,,,,,,,low,29,0,29,0,1,,,,,,,,,
293014,2022-11-28_19h20.28.561,vts_reward_expectancy_bt,2022.2.4,Win32,240.1536984,Chrome,1536,864,,,,,10,1324,,,,,,,,,,,,,,,,,146,H,star,1,1,,,,,,,,,,,,,,,,repeat,letter,lettRpt,j,0.3923,Lo,,,,,,4,,,,,,,,low,30,0,30,0,1,,,,,,,,,
293014,2022-11-28_19h20.28.561,vts_reward_expectancy_bt,2022.2.4,Win32,240.1536984,Chrome,1536,864,,,,,0,1324,,,,,,,,,,,,,,,,,139,D,triangle,1,0,,,,,,,,,,,,,,,,repeat,letter,lettRpt,j,0.4923,Hi,,,,,,4,,,,,,,,low,31,0,31,0,1,,,,,,,,,
293014,2022-11-28_19h20.28.561,vts_reward_expectancy_bt,2022.2.4,Win32,240.1536984,Chrome,1536,864,,,,,1,1325,,,,,,,,,,,,,,,,,160,Y,hexagon,1,0,,,,,,,,,,,,,,,,repeat,letter,lettRpt,k,0.6463,Lo,,,,,,5,,,,,,space,0.2322,low,0,0,0,0,1,,,,,,,,,
293014,2022-11-28_19h20.28.561,vts_reward_expectancy_bt,2022.2.4,Win32,240.1536984,Chrome,1536,864,,,,,0,1325,,,,,,,,,,,,,,,,,139,S,triangle,1,0,,,,,,,,,,,,,,,,repeat,letter,lettRpt,k,0.4805,Hi,,,,,,5,,,,,,,,low,1,0,1,0,1,,,,,,,,,
293014,2022-11-28_19h20.28.561,vts_reward_expectancy_bt,2022.2.4,Win32,240.1536984,Chrome,1536,864,,,,,1,1326,,,,,,,,,,,,,,,,,146,D,circle,1,0,,,,,,,,,,,,,,,,switch,number,numSwt,d,0.4215,Hi,,,,,,5,,,,,,,,low,2,0,2,0,1,,,,,,,,,
293014,2022-11-28_19h20.28.561,vts_reward_expectancy_bt,2022.2.4,Win32,240.1536984,Chrome,1536,864,,,,,0,1326,,,,,,,,,,,,,,,,,167,F,star,0,0,,,,,,,,,,,,,,,,repeat,number,NA,d,0.3338,Hi,,,,,,5,,,,,,,,low,3,0,3,0,1,,,,,,,,,
293014,2022-11-28_19h20.28.561,vts_reward_expectancy_bt,2022.2.4,Win32,240.1536984,Chrome,1536,864,,,,,10,1336,,,,,,,,,,,,,,,,,174,U,hexagon,1,1,,,,,,,,,,,,,,,,switch,letter,lettSwt,k,0.3881,Lo,,,,,,5,,,,,,,,low,4,0,4,0,1,,,,,,,,,
293014,2022-11-28_19h20.28.561,vts_reward_expectancy_bt,2022.2.4,Win32,240.1536984,Chrome,1536,864,,,,,1,1337,,,,,,,,,,,,,,,,,132,H,triangle,1,0,,,,,,,,,,,,,,,,switch,number,numSwt,d,0.4088,Hi,,,,,,5,,,,,,,,low,5,0,5,0,1,,,,,,,,,
293014,2022-11-28_19h20.28.561,vts_reward_expectancy_bt,2022.2.4,Win32,240.1536984,Chrome,1536,864,,,,,0,1337,,,,,,,,,,,,,,,,,125,W,circle,0,0,,,,,,,,,,,,,,,,switch,letter,NA,j,0.4223,Hi,,,,,,5,,,,,,,,low,6,0,6,0,1,,,,,,,,,
293014,2022-11-28_19h20.28.561,vts_reward_expectancy_bt,2022.2.4,Win32,240.1536984,Chrome,1536,864,,,,,1,1338,,,,,,,,,,,,,,,,,181,B,star,1,1,,,,,,,,,,,,,,,,repeat,letter,lettRpt,j,0.388,Lo,,,,,,5,,,,,,,,low,7,0,7,0,1,,,,,,,,,
293014,2022-11-28_19h20.28.561,vts_reward_expectancy_bt,2022.2.4,Win32,240.1536984,Chrome,1536,864,,,,,10,1348,,,,,,,,,,,,,,,,,160,Y,triangle,1,0,,,,,,,,,,,,,,,,switch,number,numSwt,f,0.4298,Hi,,,,,,5,,,,,,,,low,8,0,8,0,1,,,,,,,,,
293014,2022-11-28_19h20.28.561,vts_reward_expectancy_bt,2022.2.4,Win32,240.1536984,Chrome,1536,864,,,,,10,1358,,,,,,,,,,,,,,,,,139,S,hexagon,1,0,,,,,,,,,,,,,,,,repeat,number,numRpt,d,0.3232,Lo,,,,,,5,,,,,,,,low,9,0,9,0,1,,,,,,,,,
293014,2022-11-28_19h20.28.561,vts_reward_expectancy_bt,2022.2.4,Win32,240.1536984,Chrome,1536,864,,,,,1,1359,,,,,,,,,,,,,,,,,146,D,star,1,0,,,,,,,,,,,,,,,,repeat,number,numRpt,d,0.6089,Lo,,,,,,5,,,,,,,,low,10,0,10,0,1,,,,,,,,,
293014,2022-11-28_19h20.28.561,vts_reward_expectancy_bt,2022.2.4,Win32,240.1536984,Chrome,1536,864,,,,,0,1359,,,,,,,,,,,,,,,,,167,F,circle,0,0,,,,,,,,,,,,,,,,repeat,number,NA,d,0.4375,Lo,,,,,,5,,,,,,,,low,11,0,11,0,1,,,,,,,,,
293014,2022-11-28_19h20.28.561,vts_reward_expectancy_bt,2022.2.4,Win32,240.1536984,Chrome,1536,864,,,,,10,1369,,,,,,,,,,,,,,,,,174,U,star,1,1,,,,,,,,,,,,,,,,repeat,number,numRpt,f,0.4671,Lo,,,,,,5,,,,,,,,low,12,0,12,0,1,,,,,,,,,
293014,2022-11-28_19h20.28.561,vts_reward_expectancy_bt,2022.2.4,Win32,240.1536984,Chrome,1536,864,,,,,10,1379,,,,,,,,,,,,,,,,,132,H,hexagon,1,0,,,,,,,,,,,,,,,,repeat,number,numRpt,d,0.4342,Lo,,,,,,5,,,,,,,,low,13,0,13,0,1,,,,,,,,,
293014,2022-11-28_19h20.28.561,vts_reward_expectancy_bt,2022.2.4,Win32,240.1536984,Chrome,1536,864,,,,,0,1379,,,,,,,,,,,,,,,,,125,W,circle,1,0,,,,,,,,,,,,,,,,repeat,number,numRpt,d,0.4966,Hi,,,,,,5,,,,,,,,low,14,0,14,0,1,,,,,,,,,
293014,2022-11-28_19h20.28.561,vts_reward_expectancy_bt,2022.2.4,Win32,240.1536984,Chrome,1536,864,,,,,0,1379,,,,,,,,,,,,,,,,,181,B,triangle,1,0,,,,,,,,,,,,,,,,repeat,number,numRpt,f,0.5214,Hi,,,,,,5,,,,,,,,low,15,0,15,0,1,,,,,,,,,
293014,2022-11-28_19h20.28.561,vts_reward_expectancy_bt,2022.2.4,Win32,240.1536984,Chrome,1536,864,,,,,1,1380,,,,,,,,,,,,,,,,,125,U,hexagon,1,0,,,,,,,,,,,,,,,,repeat,number,numRpt,d,0.3672,Lo,,,,,,5,,,,,,,,low,16,0,16,0,1,,,,,,,,,
293014,2022-11-28_19h20.28.561,vts_reward_expectancy_bt,2022.2.4,Win32,240.1536984,Chrome,1536,864,,,,,0,1380,,,,,,,,,,,,,,,,,174,F,triangle,0,0,,,,,,,,,,,,,,,,repeat,number,NA,d,0.434,Lo,,,,,,5,,,,,,,,low,17,0,17,0,1,,,,,,,,,
293014,2022-11-28_19h20.28.561,vts_reward_expectancy_bt,2022.2.4,Win32,240.1536984,Chrome,1536,864,,,,,0,1380,,,,,,,,,,,,,,,,,167,Y,circle,1,1,,,,,,,,,,,,,,,,repeat,number,numRpt,f,0.4942,Hi,,,,,,5,,,,,,,,low,18,0,18,0,1,,,,,,,,,
293014,2022-11-28_19h20.28.561,vts_reward_expectancy_bt,2022.2.4,Win32,240.1536984,Chrome,1536,864,,,,,10,1390,,,,,,,,,,,,,,,,,146,W,star,1,0,,,,,,,,,,,,,,,,switch,letter,lettSwt,k,0.4089,Lo,,,,,,5,,,,,,,,low,19,0,19,0,1,,,,,,,,,
293014,2022-11-28_19h20.28.561,vts_reward_expectancy_bt,2022.2.4,Win32,240.1536984,Chrome,1536,864,,,,,1,1391,,,,,,,,,,,,,,,,,132,H,star,1,0,,,,,,,,,,,,,,,,repeat,letter,lettRpt,j,0.3956,Lo,,,,,,5,,,,,,,,low,20,0,20,0,1,,,,,,,,,
293014,2022-11-28_19h20.28.561,vts_reward_expectancy_bt,2022.2.4,Win32,240.1536984,Chrome,1536,864,,,,,0,1391,,,,,,,,,,,,,,,,,160,S,circle,1,0,,,,,,,,,,,,,,,,repeat,letter,lettRpt,k,0.4401,Hi,,,,,,5,,,,,,,,low,21,0,21,0,1,,,,,,,,,
293014,2022-11-28_19h20.28.561,vts_reward_expectancy_bt,2022.2.4,Win32,240.1536984,Chrome,1536,864,,,,,0,1391,,,,,,,,,,,,,,,,,139,D,hexagon,0,0,,,,,,,,,,,,,,,,repeat,letter,NA,k,0.4227,Hi,,,,,,5,,,,,,,,low,22,0,22,0,1,,,,,,,,,
293014,2022-11-28_19h20.28.561,vts_reward_expectancy_bt,2022.2.4,Win32,240.1536984,Chrome,1536,864,,,,,0,1391,,,,,,,,,,,,,,,,,181,B,triangle,1,1,,,,,,,,,,,,,,,,repeat,letter,lettRpt,j,0.538,Hi,,,,,,5,,,,,,,,low,23,0,23,0,1,,,,,,,,,
293014,2022-11-28_19h20.28.561,vts_reward_expectancy_bt,2022.2.4,Win32,240.1536984,Chrome,1536,864,,,,,1,1392,,,,,,,,,,,,,,,,,174,H,hexagon,1,0,,,,,,,,,,,,,,,,switch,number,numSwt,f,0.6756,Lo,,,,,,5,,,,,,,,low,24,0,24,0,1,,,,,,,,,
293014,2022-11-28_19h20.28.561,vts_reward_expectancy_bt,2022.2.4,Win32,240.1536984,Chrome,1536,864,,,,,0,1392,,,,,,,,,,,,,,,,,167,S,triangle,1,0,,,,,,,,,,,,,,,,repeat,number,numRpt,f,0.5298,Hi,,,,,,5,,,,,,,,low,25,0,25,0,1,,,,,,,,,
293014,2022-11-28_19h20.28.561,vts_reward_expectancy_bt,2022.2.4,Win32,240.1536984,Chrome,1536,864,,,,,0,1392,,,,,,,,,,,,,,,,,139,Y,circle,1,0,,,,,,,,,,,,,,,,repeat,number,numRpt,d,0.4844,Hi,,,,,,5,,,,,,,,low,26,0,26,0,1,,,,,,,,,
293014,2022-11-28_19h20.28.561,vts_reward_expectancy_bt,2022.2.4,Win32,240.1536984,Chrome,1536,864,,,,,10,1402,,,,,,,,,,,,,,,,,132,W,star,1,0,,,,,,,,,,,,,,,,switch,letter,lettSwt,k,0.5047,Lo,,,,,,5,,,,,,,,low,27,0,27,0,1,,,,,,,,,
293014,2022-11-28_19h20.28.561,vts_reward_expectancy_bt,2022.2.4,Win32,240.1536984,Chrome,1536,864,,,,,0,1402,,,,,,,,,,,,,,,,,125,D,triangle,1,0,,,,,,,,,,,,,,,,repeat,letter,lettRpt,j,0.4965,Hi,,,,,,5,,,,,,,,low,28,0,28,0,1,,,,,,,,,
293014,2022-11-28_19h20.28.561,vts_reward_expectancy_bt,2022.2.4,Win32,240.1536984,Chrome,1536,864,,,,,1,1403,,,,,,,,,,,,,,,,,160,F,star,1,0,,,,,,,,,,,,,,,,switch,number,numSwt,f,0.3839,Lo,,,,,,5,,,,,,,,low,29,0,29,0,1,,,,,,,,,
293014,2022-11-28_19h20.28.561,vts_reward_expectancy_bt,2022.2.4,Win32,240.1536984,Chrome,1536,864,,,,,1,1404,,,,,,,,,,,,,,,,,181,U,hexagon,1,0,,,,,,,,,,,,,,,,repeat,number,numRpt,f,0.3618,Lo,,,,,,5,,,,,,,,low,30,0,30,0,1,,,,,,,,,
293014,2022-11-28_19h20.28.561,vts_reward_expectancy_bt,2022.2.4,Win32,240.1536984,Chrome,1536,864,,,,,0,1404,,,,,,,,,,,,,,,,,146,B,circle,0,0,,,,,,,,,,,,,,,,repeat,number,NA,f,0.4173,Lo,,,,,,5,,,,,,,,low,31,0,31,0,1,,,,,,,,,
293014,2022-11-28_19h20.28.561,vts_reward_expectancy_bt,2022.2.4,Win32,240.1536984,Chrome,1536,864,,,,,0,1404,,,,,,,,,,,,,,,,,146,B,triangle,1,1,,,,,,,,,,,,,,,,repeat,number,numRpt,d,0.6674,Hi,,,,,,6,,,,,,space,1.0273,low,0,0,0,0,1,,,,,,,,,
293014,2022-11-28_19h20.28.561,vts_reward_expectancy_bt,2022.2.4,Win32,240.1536984,Chrome,1536,864,,,,,1,1405,,,,,,,,,,,,,,,,,167,H,hexagon,1,0,,,,,,,,,,,,,,,,repeat,number,numRpt,f,0.5053,Lo,,,,,,6,,,,,,,,low,1,0,1,0,1,,,,,,,,,
293014,2022-11-28_19h20.28.561,vts_reward_expectancy_bt,2022.2.4,Win32,240.1536984,Chrome,1536,864,,,,,1,1406,,,,,,,,,,,,,,,,,125,F,star,1,0,,,,,,,,,,,,,,,,switch,letter,lettSwt,j,0.0221,Lo,,,,,,6,,,,,,,,low,2,0,2,0,1,,,,,,,,,
293014,2022-11-28_19h20.28.561,vts_reward_expectancy_bt,2022.2.4,Win32,240.1536984,Chrome,1536,864,,,,,1,1407,,,,,,,,,,,,,,,,,132,Y,circle,1,0,,,,,,,,,,,,,,,,repeat,letter,lettRpt,k,0.1798,Hi,,,,,,6,,,,,,,,low,3,0,3,0,1,,,,,,,,,
293014,2022-11-28_19h20.28.561,vts_reward_expectancy_bt,2022.2.4,Win32,240.1536984,Chrome,1536,864,,,,,10,1417,,,,,,,,,,,,,,,,,174,S,triangle,1,0,,,,,,,,,,,,,,,,switch,number,numSwt,f,0.3712,Hi,,,,,,6,,,,,,,,low,4,0,4,0,1,,,,,,,,,
293014,2022-11-28_19h20.28.561,vts_reward_expectancy_bt,2022.2.4,Win32,240.1536984,Chrome,1536,864,,,,,0,1417,,,,,,,,,,,,,,,,,160,W,hexagon,0,0,,,,,,,,,,,,,,,,switch,letter,NA,j,0.1923,Hi,,,,,,6,,,,,,,,low,5,0,5,0,1,,,,,,,,,
293014,2022-11-28_19h20.28.561,vts_reward_expectancy_bt,2022.2.4,Win32,240.1536984,Chrome,1536,864,,,,,0,1417,,,,,,,,,,,,,,,,,181,D,star,0,1,,,,,,,,,,,,,,,,repeat,letter,NA,k,0.18,Hi,,,,,,6,,,,,,,,low,6,0,6,0,1,,,,,,,,,
293014,2022-11-28_19h20.28.561,vts_reward_expectancy_bt,2022.2.4,Win32,240.1536984,Chrome,1536,864,,,,,1,1418,,,,,,,,,,,,,,,,,139,U,circle,1,1,,,,,,,,,,,,,,,,switch,number,numSwt,d,0.1928,Hi,,,,,,6,,,,,,,,low,7,0,7,0,1,,,,,,,,,
293014,2022-11-28_19h20.28.561,vts_reward_expectancy_bt,2022.2.4,Win32,240.1536984,Chrome,1536,864,,,,,0,1418,,,,,,,,,,,,,,,,,146,B,star,0,0,,,,,,,,,,,,,,,,repeat,number,NA,f,0.2422,Hi,,,,,,6,,,,,,,,low,8,0,8,0,1,,,,,,,,,
293014,2022-11-28_19h20.28.561,vts_reward_expectancy_bt,2022.2.4,Win32,240.1536984,Chrome,1536,864,,,,,0,1418,,,,,,,,,,,,,,,,,167,H,triangle,0,1,,,,,,,,,,,,,,,,repeat,number,NA,d,0.3423,Hi,,,,,,6,,,,,,,,low,9,0,9,0,1,,,,,,,,,
293014,2022-11-28_19h20.28.561,vts_reward_expectancy_bt,2022.2.4,Win32,240.1536984,Chrome,1536,864,,,,,0,1418,,,,,,,,,,,,,,,,,125,F,circle,0,1,,,,,,,,,,,,,,,,repeat,number,NA,f,0.4757,Hi,,,,,,6,,,,,,,,low,10,0,10,0,1,,,,,,,,,
293014,2022-11-28_19h20.28.561,vts_reward_expectancy_bt,2022.2.4,Win32,240.1536984,Chrome,1536,864,,,,,1,1419,,,,,,,,,,,,,,,,,132,Y,hexagon,1,1,,,,,,,,,,,,,,,,switch,letter,lettSwt,k,0.475,Lo,,,,,,6,,,,,,,,low,11,0,11,0,1,,,,,,,,,
293014,2022-11-28_19h20.28.561,vts_reward_expectancy_bt,2022.2.4,Win32,240.1536984,Chrome,1536,864,,,,,10,1429,,,,,,,,,,,,,,,,,174,S,hexagon,1,0,,,,,,,,,,,,,,,,repeat,letter,lettRpt,k,0.4299,Lo,,,,,,6,,,,,,,,low,12,0,12,0,1,,,,,,,,,
293014,2022-11-28_19h20.28.561,vts_reward_expectancy_bt,2022.2.4,Win32,240.1536984,Chrome,1536,864,,,,,0,1429,,,,,,,,,,,,,,,,,160,W,star,0,0,,,,,,,,,,,,,,,,repeat,letter,NA,j,0.6681,Lo,,,,,,6,,,,,,,,low,13,0,13,0,1,,,,,,,,,
293014,2022-11-28_19h20.28.561,vts_reward_expectancy_bt,2022.2.4,Win32,240.1536984,Chrome,1536,864,,,,,0,1429,,,,,,,,,,,,,,,,,181,D,circle,1,1,,,,,,,,,,,,,,,,repeat,letter,lettRpt,j,0.4797,Hi,,,,,,6,,,,,,,,low,14,0,14,0,1,,,,,,,,,
293014,2022-11-28_19h20.28.561,vts_reward_expectancy_bt,2022.2.4,Win32,240.1536984,Chrome,1536,864,,,,,0,1429,,,,,,,,,,,,,,,,,139,U,triangle,0,0,,,,,,,,,,,,,,,,repeat,letter,NA,j,0.4804,Hi,,,,,,6,,,,,,,,low,15,0,15,0,1,,,,,,,,,
293014,2022-11-28_19h20.28.561,vts_reward_expectancy_bt,2022.2.4,Win32,240.1536984,Chrome,1536,864,,,,,0,1429,,,,,,,,,,,,,,,,,174,W,hexagon,0,1,,,,,,,,,,,,,,,,switch,number,NA,d,0.3838,Hi,,,,,,6,,,,,,,,low,16,0,16,0,1,,,,,,,,,
