participant,date,expName,psychopyVersion,OS,frameRate,browser,xResolution,yResolution,key_resp.keys,key_resp.rt,training_resp.keys,training_resp.rt,points_trial,points_cumul,trainBlock,training.thisRepN,training.thisTrialN,training.thisN,training.thisIndex,training.ran,LTriangleOpac,LCircleOpac,LHexagonOpac,LStarOpac,RTriangleOpac,RCircleOpac,RHexagonOpac,RStarOpac,LShape_ID,RShape_ID,curr_topStim,curr_bottStim,curr_shape,acc,E1,target_resp_prac1.keys,target_resp_prac1.rt,pracBlock,task1_prac_trials.thisRepN,task1_prac_trials.thisTrialN,task1_prac_trials.thisN,task1_prac_trials.thisIndex,task1_prac_trials.ran,target_resp_prac2.keys,target_resp_prac2.rt,task2_praac_trials.thisRepN,task2_praac_trials.thisTrialN,task2_praac_trials.thisN,task2_praac_trials.thisIndex,task2_praac_trials.ran,alt,task,condition,target_resp.keys,rewCond,vts_practice_trials.thisRepN,vts_practice_trials.thisTrialN,vts_practice_trials.thisN,vts_practice_trials.thisIndex,vts_practice_trials.ran,target_resp.rt,blockNum,trials_norew.thisRepN,trials_norew.thisTrialN,trials_norew.thisN,trials_norew.thisIndex,trials_norew.ran,key_resp_2.keys,key_resp_2.rt,rewExpectancy,trials_rew.thisRepN,trials_rew.thisTrialN,trials_rew.thisN,trials_rew.thisIndex,trials_rew.ran,Q1,Q2,Q2_text,Q3,Q4,Q5_text,Q5,xRes,yRes
293059,2022-12-05_09h12.32.221,vts_reward_expectancy_bt,2022.2.4,MacIntel,60.0024001,Chrome,1440,900,,,,,,,,,,,,,,,,,,,,,,,,,,,,,,,,,,,,,,,,,,,,,,,,,,,,,,,,,,,,,,,,,,,,,,,,,,,,
293059,2022-12-05_09h12.32.221,vts_reward_expectancy_bt,2022.2.4,MacIntel,60.0024001,Chrome,1440,900,space,15.4816,,,,,,,,,,,,,,,,,,,,,,,,,,,,,,,,,,,,,,,,,,,,,,,,,,,,,,,,,,,,,,,,,,,,,,,,,,
293059,2022-12-05_09h12.32.221,vts_reward_expectancy_bt,2022.2.4,MacIntel,60.0024001,Chrome,1440,900,,,,,,,,,,,,,,,,,,,,,,,,,,,,,,,,,,,,,,,,,,,,,,,,,,,,,,,,,,,,,,,,,,,,,,,,,,,,
293059,2022-12-05_09h12.32.221,vts_reward_expectancy_bt,2022.2.4,MacIntel,60.0024001,Chrome,1440,900,,,a,1.5215,10,10,0,0,0,0,5,1,0,1,0,0,0,0,0,1,circle,star,,,,,,,,,,,,,,,,,,,,,,,,,,,,,,,,,,,,,,,,,,,,,,,,,,,,,,
293059,2022-12-05_09h12.32.221,vts_reward_expectancy_bt,2022.2.4,MacIntel,60.0024001,Chrome,1440,900,,,a,1.2109,10,20,0,0,1,1,3,1,0,1,0,0,1,0,0,0,circle,triangle,,,,,,,,,,,,,,,,,,,,,,,,,,,,,,,,,,,,,,,,,,,,,,,,,,,,,,
293059,2022-12-05_09h12.32.221,vts_reward_expectancy_bt,2022.2.4,MacIntel,60.0024001,Chrome,1440,900,,,l,1.0817,1,21,0,0,2,2,0,1,1,0,0,0,0,1,0,0,triangle,circle,,,,,,,,,,,,,,,,,,,,,,,,,,,,,,,,,,,,,,,,,,,,,,,,,,,,,,
293059,2022-12-05_09h12.32.221,vts_reward_expectancy_bt,2022.2.4,MacIntel,60.0024001,Chrome,1440,900,,,a,1.0874,10,31,0,0,3,3,9,1,0,0,0,1,1,0,0,0,star,triangle,,,,,,,,,,,,,,,,,,,,,,,,,,,,,,,,,,,,,,,,,,,,,,,,,,,,,,
293059,2022-12-05_09h12.32.221,vts_reward_expectancy_bt,2022.2.4,MacIntel,60.0024001,Chrome,1440,900,,,a,0.6346,10,41,0,0,4,4,7,1,0,0,1,0,0,1,0,0,hexagon,circle,,,,,,,,,,,,,,,,,,,,,,,,,,,,,,,,,,,,,,,,,,,,,,,,,,,,,,
293059,2022-12-05_09h12.32.221,vts_reward_expectancy_bt,2022.2.4,MacIntel,60.0024001,Chrome,1440,900,,,a,0.4304,1,42,0,0,5,5,8,1,0,0,1,0,0,0,0,1,hexagon,star,,,,,,,,,,,,,,,,,,,,,,,,,,,,,,,,,,,,,,,,,,,,,,,,,,,,,,
293059,2022-12-05_09h12.32.221,vts_reward_expectancy_bt,2022.2.4,MacIntel,60.0024001,Chrome,1440,900,,,a,2.2331,10,52,0,0,6,6,11,1,0,0,0,1,0,0,1,0,star,hexagon,,,,,,,,,,,,,,,,,,,,,,,,,,,,,,,,,,,,,,,,,,,,,,,,,,,,,,
293059,2022-12-05_09h12.32.221,vts_reward_expectancy_bt,2022.2.4,MacIntel,60.0024001,Chrome,1440,900,,,a,0.7152,10,62,0,0,7,7,4,1,0,1,0,0,0,0,1,0,circle,hexagon,,,,,,,,,,,,,,,,,,,,,,,,,,,,,,,,,,,,,,,,,,,,,,,,,,,,,,
293059,2022-12-05_09h12.32.221,vts_reward_expectancy_bt,2022.2.4,MacIntel,60.0024001,Chrome,1440,900,,,a,1.4727,1,63,0,0,8,8,6,1,0,0,1,0,1,0,0,0,hexagon,triangle,,,,,,,,,,,,,,,,,,,,,,,,,,,,,,,,,,,,,,,,,,,,,,,,,,,,,,
293059,2022-12-05_09h12.32.221,vts_reward_expectancy_bt,2022.2.4,MacIntel,60.0024001,Chrome,1440,900,,,a,0.9847,1,64,0,0,9,9,2,1,1,0,0,0,0,0,0,1,triangle,star,,,,,,,,,,,,,,,,,,,,,,,,,,,,,,,,,,,,,,,,,,,,,,,,,,,,,,
293059,2022-12-05_09h12.32.221,vts_reward_expectancy_bt,2022.2.4,MacIntel,60.0024001,Chrome,1440,900,,,a,1.8534,1,65,0,0,10,10,10,1,0,0,0,1,0,1,0,0,star ,circle,,,,,,,,,,,,,,,,,,,,,,,,,,,,,,,,,,,,,,,,,,,,,,,,,,,,,,
293059,2022-12-05_09h12.32.221,vts_reward_expectancy_bt,2022.2.4,MacIntel,60.0024001,Chrome,1440,900,,,a,2.7054,1,66,0,0,11,11,1,1,1,0,0,0,0,0,1,0,triangle,hexagon,,,,,,,,,,,,,,,,,,,,,,,,,,,,,,,,,,,,,,,,,,,,,,,,,,,,,,
293059,2022-12-05_09h12.32.221,vts_reward_expectancy_bt,2022.2.4,MacIntel,60.0024001,Chrome,1440,900,,,l,1.2215,10,76,0,1,0,12,0,1,1,0,0,0,0,1,0,0,triangle,circle,,,,,,,,,,,,,,,,,,,,,,,,,,,,,,,,,,,,,,,,,,,,,,,,,,,,,,
293059,2022-12-05_09h12.32.221,vts_reward_expectancy_bt,2022.2.4,MacIntel,60.0024001,Chrome,1440,900,,,a,0.8203,10,86,0,1,1,13,4,1,0,1,0,0,0,0,1,0,circle,hexagon,,,,,,,,,,,,,,,,,,,,,,,,,,,,,,,,,,,,,,,,,,,,,,,,,,,,,,
293059,2022-12-05_09h12.32.221,vts_reward_expectancy_bt,2022.2.4,MacIntel,60.0024001,Chrome,1440,900,,,l,1.3244,10,96,0,1,2,14,6,1,0,0,1,0,1,0,0,0,hexagon,triangle,,,,,,,,,,,,,,,,,,,,,,,,,,,,,,,,,,,,,,,,,,,,,,,,,,,,,,
293059,2022-12-05_09h12.32.221,vts_reward_expectancy_bt,2022.2.4,MacIntel,60.0024001,Chrome,1440,900,,,l,1.1011,10,106,0,1,3,15,9,1,0,0,0,1,1,0,0,0,star,triangle,,,,,,,,,,,,,,,,,,,,,,,,,,,,,,,,,,,,,,,,,,,,,,,,,,,,,,
293059,2022-12-05_09h12.32.221,vts_reward_expectancy_bt,2022.2.4,MacIntel,60.0024001,Chrome,1440,900,,,a,1.4184,1,107,0,1,4,16,8,1,0,0,1,0,0,0,0,1,hexagon,star,,,,,,,,,,,,,,,,,,,,,,,,,,,,,,,,,,,,,,,,,,,,,,,,,,,,,,
293059,2022-12-05_09h12.32.221,vts_reward_expectancy_bt,2022.2.4,MacIntel,60.0024001,Chrome,1440,900,,,a,1.0849,1,108,0,1,5,17,1,1,1,0,0,0,0,0,1,0,triangle,hexagon,,,,,,,,,,,,,,,,,,,,,,,,,,,,,,,,,,,,,,,,,,,,,,,,,,,,,,
293059,2022-12-05_09h12.32.221,vts_reward_expectancy_bt,2022.2.4,MacIntel,60.0024001,Chrome,1440,900,,,a,0.9179,1,109,0,1,6,18,11,1,0,0,0,1,0,0,1,0,star,hexagon,,,,,,,,,,,,,,,,,,,,,,,,,,,,,,,,,,,,,,,,,,,,,,,,,,,,,,
293059,2022-12-05_09h12.32.221,vts_reward_expectancy_bt,2022.2.4,MacIntel,60.0024001,Chrome,1440,900,,,a,1.0695,1,110,0,1,7,19,2,1,1,0,0,0,0,0,0,1,triangle,star,,,,,,,,,,,,,,,,,,,,,,,,,,,,,,,,,,,,,,,,,,,,,,,,,,,,,,
293059,2022-12-05_09h12.32.221,vts_reward_expectancy_bt,2022.2.4,MacIntel,60.0024001,Chrome,1440,900,,,a,0.6629,10,120,0,1,8,20,5,1,0,1,0,0,0,0,0,1,circle,star,,,,,,,,,,,,,,,,,,,,,,,,,,,,,,,,,,,,,,,,,,,,,,,,,,,,,,
293059,2022-12-05_09h12.32.221,vts_reward_expectancy_bt,2022.2.4,MacIntel,60.0024001,Chrome,1440,900,,,l,1.1966,10,130,0,1,9,21,10,1,0,0,0,1,0,1,0,0,star ,circle,,,,,,,,,,,,,,,,,,,,,,,,,,,,,,,,,,,,,,,,,,,,,,,,,,,,,,
293059,2022-12-05_09h12.32.221,vts_reward_expectancy_bt,2022.2.4,MacIntel,60.0024001,Chrome,1440,900,,,l,1.001,10,140,0,1,10,22,7,1,0,0,1,0,0,1,0,0,hexagon,circle,,,,,,,,,,,,,,,,,,,,,,,,,,,,,,,,,,,,,,,,,,,,,,,,,,,,,,
293059,2022-12-05_09h12.32.221,vts_reward_expectancy_bt,2022.2.4,MacIntel,60.0024001,Chrome,1440,900,,,a,0.9001,10,150,0,1,11,23,3,1,0,1,0,0,1,0,0,0,circle,triangle,,,,,,,,,,,,,,,,,,,,,,,,,,,,,,,,,,,,,,,,,,,,,,,,,,,,,,
293059,2022-12-05_09h12.32.221,vts_reward_expectancy_bt,2022.2.4,MacIntel,60.0024001,Chrome,1440,900,,,a,2.0355,1,151,0,2,0,24,1,1,1,0,0,0,0,0,1,0,triangle,hexagon,,,,,,,,,,,,,,,,,,,,,,,,,,,,,,,,,,,,,,,,,,,,,,,,,,,,,,
293059,2022-12-05_09h12.32.221,vts_reward_expectancy_bt,2022.2.4,MacIntel,60.0024001,Chrome,1440,900,,,a,1.1046,1,152,0,2,1,25,5,1,0,1,0,0,0,0,0,1,circle,star,,,,,,,,,,,,,,,,,,,,,,,,,,,,,,,,,,,,,,,,,,,,,,,,,,,,,,
293059,2022-12-05_09h12.32.221,vts_reward_expectancy_bt,2022.2.4,MacIntel,60.0024001,Chrome,1440,900,,,l,0.4157,10,162,0,2,2,26,10,1,0,0,0,1,0,1,0,0,star ,circle,,,,,,,,,,,,,,,,,,,,,,,,,,,,,,,,,,,,,,,,,,,,,,,,,,,,,,
293059,2022-12-05_09h12.32.221,vts_reward_expectancy_bt,2022.2.4,MacIntel,60.0024001,Chrome,1440,900,,,l,0.4216,1,163,0,2,3,27,7,1,0,0,1,0,0,1,0,0,hexagon,circle,,,,,,,,,,,,,,,,,,,,,,,,,,,,,,,,,,,,,,,,,,,,,,,,,,,,,,
293059,2022-12-05_09h12.32.221,vts_reward_expectancy_bt,2022.2.4,MacIntel,60.0024001,Chrome,1440,900,,,a,0.4237,10,173,0,2,4,28,3,1,0,1,0,0,1,0,0,0,circle,triangle,,,,,,,,,,,,,,,,,,,,,,,,,,,,,,,,,,,,,,,,,,,,,,,,,,,,,,
293059,2022-12-05_09h12.32.221,vts_reward_expectancy_bt,2022.2.4,MacIntel,60.0024001,Chrome,1440,900,,,l,0.8067,1,174,0,2,5,29,6,1,0,0,1,0,1,0,0,0,hexagon,triangle,,,,,,,,,,,,,,,,,,,,,,,,,,,,,,,,,,,,,,,,,,,,,,,,,,,,,,
293059,2022-12-05_09h12.32.221,vts_reward_expectancy_bt,2022.2.4,MacIntel,60.0024001,Chrome,1440,900,,,l,0.5859,10,184,0,2,6,30,11,1,0,0,0,1,0,0,1,0,star,hexagon,,,,,,,,,,,,,,,,,,,,,,,,,,,,,,,,,,,,,,,,,,,,,,,,,,,,,,
293059,2022-12-05_09h12.32.221,vts_reward_expectancy_bt,2022.2.4,MacIntel,60.0024001,Chrome,1440,900,,,a,0.5525,1,185,0,2,7,31,2,1,1,0,0,0,0,0,0,1,triangle,star,,,,,,,,,,,,,,,,,,,,,,,,,,,,,,,,,,,,,,,,,,,,,,,,,,,,,,
293059,2022-12-05_09h12.32.221,vts_reward_expectancy_bt,2022.2.4,MacIntel,60.0024001,Chrome,1440,900,,,l,0.3629,1,186,0,2,8,32,0,1,1,0,0,0,0,1,0,0,triangle,circle,,,,,,,,,,,,,,,,,,,,,,,,,,,,,,,,,,,,,,,,,,,,,,,,,,,,,,
293059,2022-12-05_09h12.32.221,vts_reward_expectancy_bt,2022.2.4,MacIntel,60.0024001,Chrome,1440,900,,,l,0.3881,10,196,0,2,9,33,9,1,0,0,0,1,1,0,0,0,star,triangle,,,,,,,,,,,,,,,,,,,,,,,,,,,,,,,,,,,,,,,,,,,,,,,,,,,,,,
293059,2022-12-05_09h12.32.221,vts_reward_expectancy_bt,2022.2.4,MacIntel,60.0024001,Chrome,1440,900,,,a,0.7808,10,206,0,2,10,34,4,1,0,1,0,0,0,0,1,0,circle,hexagon,,,,,,,,,,,,,,,,,,,,,,,,,,,,,,,,,,,,,,,,,,,,,,,,,,,,,,
293059,2022-12-05_09h12.32.221,vts_reward_expectancy_bt,2022.2.4,MacIntel,60.0024001,Chrome,1440,900,,,l,0.8288,10,216,0,2,11,35,8,1,0,0,1,0,0,0,0,1,hexagon,star,,,,,,,,,,,,,,,,,,,,,,,,,,,,,,,,,,,,,,,,,,,,,,,,,,,,,,
293059,2022-12-05_09h12.32.221,vts_reward_expectancy_bt,2022.2.4,MacIntel,60.0024001,Chrome,1440,900,,,a,0.6658,1,217,1,0,0,0,6,1,0,0,1,0,1,0,0,0,hexagon,triangle,,,,,,,,,,,,,,,,,,,,,,,,,,,,,,,,,,,,,,,,,,,,,,,,,,,,,,
293059,2022-12-05_09h12.32.221,vts_reward_expectancy_bt,2022.2.4,MacIntel,60.0024001,Chrome,1440,900,,,l,0.3413,10,227,1,0,1,1,8,1,0,0,1,0,0,0,0,1,hexagon,star,,,,,,,,,,,,,,,,,,,,,,,,,,,,,,,,,,,,,,,,,,,,,,,,,,,,,,
293059,2022-12-05_09h12.32.221,vts_reward_expectancy_bt,2022.2.4,MacIntel,60.0024001,Chrome,1440,900,,,l,0.484,10,237,1,0,2,2,10,1,0,0,0,1,0,1,0,0,star ,circle,,,,,,,,,,,,,,,,,,,,,,,,,,,,,,,,,,,,,,,,,,,,,,,,,,,,,,
293059,2022-12-05_09h12.32.221,vts_reward_expectancy_bt,2022.2.4,MacIntel,60.0024001,Chrome,1440,900,,,a,0.7902,10,247,1,0,3,3,1,1,1,0,0,0,0,0,1,0,triangle,hexagon,,,,,,,,,,,,,,,,,,,,,,,,,,,,,,,,,,,,,,,,,,,,,,,,,,,,,,
293059,2022-12-05_09h12.32.221,vts_reward_expectancy_bt,2022.2.4,MacIntel,60.0024001,Chrome,1440,900,,,l,0.5032,10,257,1,0,4,4,11,1,0,0,0,1,0,0,1,0,star,hexagon,,,,,,,,,,,,,,,,,,,,,,,,,,,,,,,,,,,,,,,,,,,,,,,,,,,,,,
293059,2022-12-05_09h12.32.221,vts_reward_expectancy_bt,2022.2.4,MacIntel,60.0024001,Chrome,1440,900,,,l,0.4255,1,258,1,0,5,5,3,1,0,1,0,0,1,0,0,0,circle,triangle,,,,,,,,,,,,,,,,,,,,,,,,,,,,,,,,,,,,,,,,,,,,,,,,,,,,,,
293059,2022-12-05_09h12.32.221,vts_reward_expectancy_bt,2022.2.4,MacIntel,60.0024001,Chrome,1440,900,,,l,0.4893,10,268,1,0,6,6,0,1,1,0,0,0,0,1,0,0,triangle,circle,,,,,,,,,,,,,,,,,,,,,,,,,,,,,,,,,,,,,,,,,,,,,,,,,,,,,,
293059,2022-12-05_09h12.32.221,vts_reward_expectancy_bt,2022.2.4,MacIntel,60.0024001,Chrome,1440,900,,,l,0.6706,1,269,1,0,7,7,2,1,1,0,0,0,0,0,0,1,triangle,star,,,,,,,,,,,,,,,,,,,,,,,,,,,,,,,,,,,,,,,,,,,,,,,,,,,,,,
293059,2022-12-05_09h12.32.221,vts_reward_expectancy_bt,2022.2.4,MacIntel,60.0024001,Chrome,1440,900,,,a,7.3035,10,279,1,0,8,8,5,1,0,1,0,0,0,0,0,1,circle,star,,,,,,,,,,,,,,,,,,,,,,,,,,,,,,,,,,,,,,,,,,,,,,,,,,,,,,
293059,2022-12-05_09h12.32.221,vts_reward_expectancy_bt,2022.2.4,MacIntel,60.0024001,Chrome,1440,900,,,l,0.6783,10,289,1,0,9,9,7,1,0,0,1,0,0,1,0,0,hexagon,circle,,,,,,,,,,,,,,,,,,,,,,,,,,,,,,,,,,,,,,,,,,,,,,,,,,,,,,
293059,2022-12-05_09h12.32.221,vts_reward_expectancy_bt,2022.2.4,MacIntel,60.0024001,Chrome,1440,900,,,a,0.5893,10,299,1,0,10,10,4,1,0,1,0,0,0,0,1,0,circle,hexagon,,,,,,,,,,,,,,,,,,,,,,,,,,,,,,,,,,,,,,,,,,,,,,,,,,,,,,
293059,2022-12-05_09h12.32.221,vts_reward_expectancy_bt,2022.2.4,MacIntel,60.0024001,Chrome,1440,900,,,a,1.0368,10,309,1,0,11,11,9,1,0,0,0,1,1,0,0,0,star,triangle,,,,,,,,,,,,,,,,,,,,,,,,,,,,,,,,,,,,,,,,,,,,,,,,,,,,,,
293059,2022-12-05_09h12.32.221,vts_reward_expectancy_bt,2022.2.4,MacIntel,60.0024001,Chrome,1440,900,,,l,3.5346,10,319,1,1,0,12,10,1,0,0,0,1,0,1,0,0,star ,circle,,,,,,,,,,,,,,,,,,,,,,,,,,,,,,,,,,,,,,,,,,,,,,,,,,,,,,
293059,2022-12-05_09h12.32.221,vts_reward_expectancy_bt,2022.2.4,MacIntel,60.0024001,Chrome,1440,900,,,a,3.4203,10,329,1,1,1,13,5,1,0,1,0,0,0,0,0,1,circle,star,,,,,,,,,,,,,,,,,,,,,,,,,,,,,,,,,,,,,,,,,,,,,,,,,,,,,,
293059,2022-12-05_09h12.32.221,vts_reward_expectancy_bt,2022.2.4,MacIntel,60.0024001,Chrome,1440,900,,,a,1.8674,1,330,1,1,2,14,6,1,0,0,1,0,1,0,0,0,hexagon,triangle,,,,,,,,,,,,,,,,,,,,,,,,,,,,,,,,,,,,,,,,,,,,,,,,,,,,,,
293059,2022-12-05_09h12.32.221,vts_reward_expectancy_bt,2022.2.4,MacIntel,60.0024001,Chrome,1440,900,,,a,6.3892,1,331,1,1,3,15,8,1,0,0,1,0,0,0,0,1,hexagon,star,,,,,,,,,,,,,,,,,,,,,,,,,,,,,,,,,,,,,,,,,,,,,,,,,,,,,,
293059,2022-12-05_09h12.32.221,vts_reward_expectancy_bt,2022.2.4,MacIntel,60.0024001,Chrome,1440,900,,,l,0.089,10,341,1,1,4,16,3,1,0,1,0,0,1,0,0,0,circle,triangle,,,,,,,,,,,,,,,,,,,,,,,,,,,,,,,,,,,,,,,,,,,,,,,,,,,,,,
293059,2022-12-05_09h12.32.221,vts_reward_expectancy_bt,2022.2.4,MacIntel,60.0024001,Chrome,1440,900,,,l,0.4738,10,351,1,1,5,17,11,1,0,0,0,1,0,0,1,0,star,hexagon,,,,,,,,,,,,,,,,,,,,,,,,,,,,,,,,,,,,,,,,,,,,,,,,,,,,,,
293059,2022-12-05_09h12.32.221,vts_reward_expectancy_bt,2022.2.4,MacIntel,60.0024001,Chrome,1440,900,,,l,0.0906,1,352,1,1,6,18,2,1,1,0,0,0,0,0,0,1,triangle,star,,,,,,,,,,,,,,,,,,,,,,,,,,,,,,,,,,,,,,,,,,,,,,,,,,,,,,
293059,2022-12-05_09h12.32.221,vts_reward_expectancy_bt,2022.2.4,MacIntel,60.0024001,Chrome,1440,900,,,a,0.3481,10,362,1,1,7,19,9,1,0,0,0,1,1,0,0,0,star,triangle,,,,,,,,,,,,,,,,,,,,,,,,,,,,,,,,,,,,,,,,,,,,,,,,,,,,,,
293059,2022-12-05_09h12.32.221,vts_reward_expectancy_bt,2022.2.4,MacIntel,60.0024001,Chrome,1440,900,,,l,3.2307,10,372,1,1,8,20,0,1,1,0,0,0,0,1,0,0,triangle,circle,,,,,,,,,,,,,,,,,,,,,,,,,,,,,,,,,,,,,,,,,,,,,,,,,,,,,,
293059,2022-12-05_09h12.32.221,vts_reward_expectancy_bt,2022.2.4,MacIntel,60.0024001,Chrome,1440,900,,,l,0.5724,1,373,1,1,9,21,1,1,1,0,0,0,0,0,1,0,triangle,hexagon,,,,,,,,,,,,,,,,,,,,,,,,,,,,,,,,,,,,,,,,,,,,,,,,,,,,,,
293059,2022-12-05_09h12.32.221,vts_reward_expectancy_bt,2022.2.4,MacIntel,60.0024001,Chrome,1440,900,,,l,0.5178,1,374,1,1,10,22,7,1,0,0,1,0,0,1,0,0,hexagon,circle,,,,,,,,,,,,,,,,,,,,,,,,,,,,,,,,,,,,,,,,,,,,,,,,,,,,,,
293059,2022-12-05_09h12.32.221,vts_reward_expectancy_bt,2022.2.4,MacIntel,60.0024001,Chrome,1440,900,,,a,0.6552,1,375,1,1,11,23,4,1,0,1,0,0,0,0,1,0,circle,hexagon,,,,,,,,,,,,,,,,,,,,,,,,,,,,,,,,,,,,,,,,,,,,,,,,,,,,,,
293059,2022-12-05_09h12.32.221,vts_reward_expectancy_bt,2022.2.4,MacIntel,60.0024001,Chrome,1440,900,,,l,0.5049,1,376,1,2,0,24,6,1,0,0,1,0,1,0,0,0,hexagon,triangle,,,,,,,,,,,,,,,,,,,,,,,,,,,,,,,,,,,,,,,,,,,,,,,,,,,,,,
293059,2022-12-05_09h12.32.221,vts_reward_expectancy_bt,2022.2.4,MacIntel,60.0024001,Chrome,1440,900,,,l,0.5121,1,377,1,2,1,25,9,1,0,0,0,1,1,0,0,0,star,triangle,,,,,,,,,,,,,,,,,,,,,,,,,,,,,,,,,,,,,,,,,,,,,,,,,,,,,,
293059,2022-12-05_09h12.32.221,vts_reward_expectancy_bt,2022.2.4,MacIntel,60.0024001,Chrome,1440,900,,,l,0.4217,10,387,1,2,2,26,0,1,1,0,0,0,0,1,0,0,triangle,circle,,,,,,,,,,,,,,,,,,,,,,,,,,,,,,,,,,,,,,,,,,,,,,,,,,,,,,
293059,2022-12-05_09h12.32.221,vts_reward_expectancy_bt,2022.2.4,MacIntel,60.0024001,Chrome,1440,900,,,a,0.8218,10,397,1,2,3,27,5,1,0,1,0,0,0,0,0,1,circle,star,,,,,,,,,,,,,,,,,,,,,,,,,,,,,,,,,,,,,,,,,,,,,,,,,,,,,,
293059,2022-12-05_09h12.32.221,vts_reward_expectancy_bt,2022.2.4,MacIntel,60.0024001,Chrome,1440,900,,,a,1.5865,1,398,1,2,4,28,2,1,1,0,0,0,0,0,0,1,triangle,star,,,,,,,,,,,,,,,,,,,,,,,,,,,,,,,,,,,,,,,,,,,,,,,,,,,,,,
293059,2022-12-05_09h12.32.221,vts_reward_expectancy_bt,2022.2.4,MacIntel,60.0024001,Chrome,1440,900,,,l,0.7162,10,408,1,2,5,29,10,1,0,0,0,1,0,1,0,0,star ,circle,,,,,,,,,,,,,,,,,,,,,,,,,,,,,,,,,,,,,,,,,,,,,,,,,,,,,,
293059,2022-12-05_09h12.32.221,vts_reward_expectancy_bt,2022.2.4,MacIntel,60.0024001,Chrome,1440,900,,,l,0.8672,1,409,1,2,6,30,7,1,0,0,1,0,0,1,0,0,hexagon,circle,,,,,,,,,,,,,,,,,,,,,,,,,,,,,,,,,,,,,,,,,,,,,,,,,,,,,,
293059,2022-12-05_09h12.32.221,vts_reward_expectancy_bt,2022.2.4,MacIntel,60.0024001,Chrome,1440,900,,,a,1.1813,1,410,1,2,7,31,1,1,1,0,0,0,0,0,1,0,triangle,hexagon,,,,,,,,,,,,,,,,,,,,,,,,,,,,,,,,,,,,,,,,,,,,,,,,,,,,,,
293059,2022-12-05_09h12.32.221,vts_reward_expectancy_bt,2022.2.4,MacIntel,60.0024001,Chrome,1440,900,,,a,0.9721,10,420,1,2,8,32,4,1,0,1,0,0,0,0,1,0,circle,hexagon,,,,,,,,,,,,,,,,,,,,,,,,,,,,,,,,,,,,,,,,,,,,,,,,,,,,,,
293059,2022-12-05_09h12.32.221,vts_reward_expectancy_bt,2022.2.4,MacIntel,60.0024001,Chrome,1440,900,,,a,0.5697,10,430,1,2,9,33,8,1,0,0,1,0,0,0,0,1,hexagon,star,,,,,,,,,,,,,,,,,,,,,,,,,,,,,,,,,,,,,,,,,,,,,,,,,,,,,,
293059,2022-12-05_09h12.32.221,vts_reward_expectancy_bt,2022.2.4,MacIntel,60.0024001,Chrome,1440,900,,,a,1.2426,10,440,1,2,10,34,3,1,0,1,0,0,1,0,0,0,circle,triangle,,,,,,,,,,,,,,,,,,,,,,,,,,,,,,,,,,,,,,,,,,,,,,,,,,,,,,
293059,2022-12-05_09h12.32.221,vts_reward_expectancy_bt,2022.2.4,MacIntel,60.0024001,Chrome,1440,900,,,l,0.5919,1,441,1,2,11,35,11,1,0,0,0,1,0,0,1,0,star,hexagon,,,,,,,,,,,,,,,,,,,,,,,,,,,,,,,,,,,,,,,,,,,,,,,,,,,,,,
293059,2022-12-05_09h12.32.221,vts_reward_expectancy_bt,2022.2.4,MacIntel,60.0024001,Chrome,1440,900,,,l,0.6991,1,442,2,0,0,0,1,1,1,0,0,0,0,0,1,0,triangle,hexagon,,,,,,,,,,,,,,,,,,,,,,,,,,,,,,,,,,,,,,,,,,,,,,,,,,,,,,
293059,2022-12-05_09h12.32.221,vts_reward_expectancy_bt,2022.2.4,MacIntel,60.0024001,Chrome,1440,900,,,a,0.2915,1,443,2,0,1,1,0,1,1,0,0,0,0,1,0,0,triangle,circle,,,,,,,,,,,,,,,,,,,,,,,,,,,,,,,,,,,,,,,,,,,,,,,,,,,,,,
293059,2022-12-05_09h12.32.221,vts_reward_expectancy_bt,2022.2.4,MacIntel,60.0024001,Chrome,1440,900,,,l,0.3072,10,453,2,0,2,2,2,1,1,0,0,0,0,0,0,1,triangle,star,,,,,,,,,,,,,,,,,,,,,,,,,,,,,,,,,,,,,,,,,,,,,,,,,,,,,,
293059,2022-12-05_09h12.32.221,vts_reward_expectancy_bt,2022.2.4,MacIntel,60.0024001,Chrome,1440,900,,,l,0.4388,1,454,2,0,3,3,7,1,0,0,1,0,0,1,0,0,hexagon,circle,,,,,,,,,,,,,,,,,,,,,,,,,,,,,,,,,,,,,,,,,,,,,,,,,,,,,,
293059,2022-12-05_09h12.32.221,vts_reward_expectancy_bt,2022.2.4,MacIntel,60.0024001,Chrome,1440,900,,,l,0.5064,1,455,2,0,4,4,9,1,0,0,0,1,1,0,0,0,star,triangle,,,,,,,,,,,,,,,,,,,,,,,,,,,,,,,,,,,,,,,,,,,,,,,,,,,,,,
293059,2022-12-05_09h12.32.221,vts_reward_expectancy_bt,2022.2.4,MacIntel,60.0024001,Chrome,1440,900,,,l,0.4562,1,456,2,0,5,5,4,1,0,1,0,0,0,0,1,0,circle,hexagon,,,,,,,,,,,,,,,,,,,,,,,,,,,,,,,,,,,,,,,,,,,,,,,,,,,,,,
293059,2022-12-05_09h12.32.221,vts_reward_expectancy_bt,2022.2.4,MacIntel,60.0024001,Chrome,1440,900,,,l,0.9347,1,457,2,0,6,6,6,1,0,0,1,0,1,0,0,0,hexagon,triangle,,,,,,,,,,,,,,,,,,,,,,,,,,,,,,,,,,,,,,,,,,,,,,,,,,,,,,
293059,2022-12-05_09h12.32.221,vts_reward_expectancy_bt,2022.2.4,MacIntel,60.0024001,Chrome,1440,900,,,l,0.7888,10,467,2,0,7,7,8,1,0,0,1,0,0,0,0,1,hexagon,star,,,,,,,,,,,,,,,,,,,,,,,,,,,,,,,,,,,,,,,,,,,,,,,,,,,,,,
293059,2022-12-05_09h12.32.221,vts_reward_expectancy_bt,2022.2.4,MacIntel,60.0024001,Chrome,1440,900,,,l,0.3898,10,477,2,0,8,8,10,1,0,0,0,1,0,1,0,0,star ,circle,,,,,,,,,,,,,,,,,,,,,,,,,,,,,,,,,,,,,,,,,,,,,,,,,,,,,,
293059,2022-12-05_09h12.32.221,vts_reward_expectancy_bt,2022.2.4,MacIntel,60.0024001,Chrome,1440,900,,,a,0.3998,1,478,2,0,9,9,3,1,0,1,0,0,1,0,0,0,circle,triangle,,,,,,,,,,,,,,,,,,,,,,,,,,,,,,,,,,,,,,,,,,,,,,,,,,,,,,
293059,2022-12-05_09h12.32.221,vts_reward_expectancy_bt,2022.2.4,MacIntel,60.0024001,Chrome,1440,900,,,a,0.5659,10,488,2,0,10,10,5,1,0,1,0,0,0,0,0,1,circle,star,,,,,,,,,,,,,,,,,,,,,,,,,,,,,,,,,,,,,,,,,,,,,,,,,,,,,,
293059,2022-12-05_09h12.32.221,vts_reward_expectancy_bt,2022.2.4,MacIntel,60.0024001,Chrome,1440,900,,,a,0.4822,1,489,2,0,11,11,11,1,0,0,0,1,0,0,1,0,star,hexagon,,,,,,,,,,,,,,,,,,,,,,,,,,,,,,,,,,,,,,,,,,,,,,,,,,,,,,
293059,2022-12-05_09h12.32.221,vts_reward_expectancy_bt,2022.2.4,MacIntel,60.0024001,Chrome,1440,900,,,a,0.3656,1,490,2,1,0,12,8,1,0,0,1,0,0,0,0,1,hexagon,star,,,,,,,,,,,,,,,,,,,,,,,,,,,,,,,,,,,,,,,,,,,,,,,,,,,,,,
293059,2022-12-05_09h12.32.221,vts_reward_expectancy_bt,2022.2.4,MacIntel,60.0024001,Chrome,1440,900,,,a,0.4347,10,500,2,1,1,13,11,1,0,0,0,1,0,0,1,0,star,hexagon,,,,,,,,,,,,,,,,,,,,,,,,,,,,,,,,,,,,,,,,,,,,,,,,,,,,,,
293059,2022-12-05_09h12.32.221,vts_reward_expectancy_bt,2022.2.4,MacIntel,60.0024001,Chrome,1440,900,,,l,0.4502,10,510,2,1,2,14,2,1,1,0,0,0,0,0,0,1,triangle,star,,,,,,,,,,,,,,,,,,,,,,,,,,,,,,,,,,,,,,,,,,,,,,,,,,,,,,
293059,2022-12-05_09h12.32.221,vts_reward_expectancy_bt,2022.2.4,MacIntel,60.0024001,Chrome,1440,900,,,l,0.5755,1,511,2,1,3,15,0,1,1,0,0,0,0,1,0,0,triangle,circle,,,,,,,,,,,,,,,,,,,,,,,,,,,,,,,,,,,,,,,,,,,,,,,,,,,,,,
293059,2022-12-05_09h12.32.221,vts_reward_expectancy_bt,2022.2.4,MacIntel,60.0024001,Chrome,1440,900,,,a,0.6121,1,512,2,1,4,16,10,1,0,0,0,1,0,1,0,0,star ,circle,,,,,,,,,,,,,,,,,,,,,,,,,,,,,,,,,,,,,,,,,,,,,,,,,,,,,,
293059,2022-12-05_09h12.32.221,vts_reward_expectancy_bt,2022.2.4,MacIntel,60.0024001,Chrome,1440,900,,,l,0.6589,10,522,2,1,5,17,7,1,0,0,1,0,0,1,0,0,hexagon,circle,,,,,,,,,,,,,,,,,,,,,,,,,,,,,,,,,,,,,,,,,,,,,,,,,,,,,,
293059,2022-12-05_09h12.32.221,vts_reward_expectancy_bt,2022.2.4,MacIntel,60.0024001,Chrome,1440,900,,,l,0.932,1,523,2,1,6,18,6,1,0,0,1,0,1,0,0,0,hexagon,triangle,,,,,,,,,,,,,,,,,,,,,,,,,,,,,,,,,,,,,,,,,,,,,,,,,,,,,,
293059,2022-12-05_09h12.32.221,vts_reward_expectancy_bt,2022.2.4,MacIntel,60.0024001,Chrome,1440,900,,,a,0.9935,1,524,2,1,7,19,3,1,0,1,0,0,1,0,0,0,circle,triangle,,,,,,,,,,,,,,,,,,,,,,,,,,,,,,,,,,,,,,,,,,,,,,,,,,,,,,
293059,2022-12-05_09h12.32.221,vts_reward_expectancy_bt,2022.2.4,MacIntel,60.0024001,Chrome,1440,900,,,a,0.8024,1,525,2,1,8,20,1,1,1,0,0,0,0,0,1,0,triangle,hexagon,,,,,,,,,,,,,,,,,,,,,,,,,,,,,,,,,,,,,,,,,,,,,,,,,,,,,,
293059,2022-12-05_09h12.32.221,vts_reward_expectancy_bt,2022.2.4,MacIntel,60.0024001,Chrome,1440,900,,,a,0.6918,10,535,2,1,9,21,5,1,0,1,0,0,0,0,0,1,circle,star,,,,,,,,,,,,,,,,,,,,,,,,,,,,,,,,,,,,,,,,,,,,,,,,,,,,,,
293059,2022-12-05_09h12.32.221,vts_reward_expectancy_bt,2022.2.4,MacIntel,60.0024001,Chrome,1440,900,,,l,0.5425,1,536,2,1,10,22,9,1,0,0,0,1,1,0,0,0,star,triangle,,,,,,,,,,,,,,,,,,,,,,,,,,,,,,,,,,,,,,,,,,,,,,,,,,,,,,
293059,2022-12-05_09h12.32.221,vts_reward_expectancy_bt,2022.2.4,MacIntel,60.0024001,Chrome,1440,900,,,a,0.6582,10,546,2,1,11,23,4,1,0,1,0,0,0,0,1,0,circle,hexagon,,,,,,,,,,,,,,,,,,,,,,,,,,,,,,,,,,,,,,,,,,,,,,,,,,,,,,
293059,2022-12-05_09h12.32.221,vts_reward_expectancy_bt,2022.2.4,MacIntel,60.0024001,Chrome,1440,900,,,l,1.0758,1,547,2,2,0,24,7,1,0,0,1,0,0,1,0,0,hexagon,circle,,,,,,,,,,,,,,,,,,,,,,,,,,,,,,,,,,,,,,,,,,,,,,,,,,,,,,
293059,2022-12-05_09h12.32.221,vts_reward_expectancy_bt,2022.2.4,MacIntel,60.0024001,Chrome,1440,900,,,a,0.9054,1,548,2,2,1,25,8,1,0,0,1,0,0,0,0,1,hexagon,star,,,,,,,,,,,,,,,,,,,,,,,,,,,,,,,,,,,,,,,,,,,,,,,,,,,,,,
293059,2022-12-05_09h12.32.221,vts_reward_expectancy_bt,2022.2.4,MacIntel,60.0024001,Chrome,1440,900,,,l,2.0565,1,549,2,2,2,26,10,1,0,0,0,1,0,1,0,0,star ,circle,,,,,,,,,,,,,,,,,,,,,,,,,,,,,,,,,,,,,,,,,,,,,,,,,,,,,,
293059,2022-12-05_09h12.32.221,vts_reward_expectancy_bt,2022.2.4,MacIntel,60.0024001,Chrome,1440,900,,,l,2.4106,10,559,2,2,3,27,11,1,0,0,0,1,0,0,1,0,star,hexagon,,,,,,,,,,,,,,,,,,,,,,,,,,,,,,,,,,,,,,,,,,,,,,,,,,,,,,
293059,2022-12-05_09h12.32.221,vts_reward_expectancy_bt,2022.2.4,MacIntel,60.0024001,Chrome,1440,900,,,l,0.7689,10,569,2,2,4,28,9,1,0,0,0,1,1,0,0,0,star,triangle,,,,,,,,,,,,,,,,,,,,,,,,,,,,,,,,,,,,,,,,,,,,,,,,,,,,,,
293059,2022-12-05_09h12.32.221,vts_reward_expectancy_bt,2022.2.4,MacIntel,60.0024001,Chrome,1440,900,,,l,0.9164,1,570,2,2,5,29,1,1,1,0,0,0,0,0,1,0,triangle,hexagon,,,,,,,,,,,,,,,,,,,,,,,,,,,,,,,,,,,,,,,,,,,,,,,,,,,,,,
293059,2022-12-05_09h12.32.221,vts_reward_expectancy_bt,2022.2.4,MacIntel,60.0024001,Chrome,1440,900,,,a,2.0085,10,580,2,2,6,30,3,1,0,1,0,0,1,0,0,0,circle,triangle,,,,,,,,,,,,,,,,,,,,,,,,,,,,,,,,,,,,,,,,,,,,,,,,,,,,,,
293059,2022-12-05_09h12.32.221,vts_reward_expectancy_bt,2022.2.4,MacIntel,60.0024001,Chrome,1440,900,,,a,0.4839,10,590,2,2,7,31,5,1,0,1,0,0,0,0,0,1,circle,star,,,,,,,,,,,,,,,,,,,,,,,,,,,,,,,,,,,,,,,,,,,,,,,,,,,,,,
293059,2022-12-05_09h12.32.221,vts_reward_expectancy_bt,2022.2.4,MacIntel,60.0024001,Chrome,1440,900,,,a,1.7957,1,591,2,2,8,32,2,1,1,0,0,0,0,0,0,1,triangle,star,,,,,,,,,,,,,,,,,,,,,,,,,,,,,,,,,,,,,,,,,,,,,,,,,,,,,,
293059,2022-12-05_09h12.32.221,vts_reward_expectancy_bt,2022.2.4,MacIntel,60.0024001,Chrome,1440,900,,,a,2.0165,10,601,2,2,9,33,4,1,0,1,0,0,0,0,1,0,circle,hexagon,,,,,,,,,,,,,,,,,,,,,,,,,,,,,,,,,,,,,,,,,,,,,,,,,,,,,,
293059,2022-12-05_09h12.32.221,vts_reward_expectancy_bt,2022.2.4,MacIntel,60.0024001,Chrome,1440,900,,,l,1.7513,1,602,2,2,10,34,6,1,0,0,1,0,1,0,0,0,hexagon,triangle,,,,,,,,,,,,,,,,,,,,,,,,,,,,,,,,,,,,,,,,,,,,,,,,,,,,,,
293059,2022-12-05_09h12.32.221,vts_reward_expectancy_bt,2022.2.4,MacIntel,60.0024001,Chrome,1440,900,,,l,0.9765,10,612,2,2,11,35,0,1,1,0,0,0,0,1,0,0,triangle,circle,,,,,,,,,,,,,,,,,,,,,,,,,,,,,,,,,,,,,,,,,,,,,,,,,,,,,,
293059,2022-12-05_09h12.32.221,vts_reward_expectancy_bt,2022.2.4,MacIntel,60.0024001,Chrome,1440,900,,,,,,,,,,,,,,,,,,,,,,,125,B,circle,1,0,d,2.1975,0,0,0,0,0,1,,,,,,,,,,,,,,,,,,,,,,,,,,,,,,,,,,,,,,,,,
293059,2022-12-05_09h12.32.221,vts_reward_expectancy_bt,2022.2.4,MacIntel,60.0024001,Chrome,1440,900,,,,,,,,,,,,,,,,,,,,,,,160,Y,star,1,0,f,0.5881,0,1,0,1,0,1,,,,,,,,,,,,,,,,,,,,,,,,,,,,,,,,,,,,,,,,,
293059,2022-12-05_09h12.32.221,vts_reward_expectancy_bt,2022.2.4,MacIntel,60.0024001,Chrome,1440,900,,,,,,,,,,,,,,,,,,,,,,,174,F,hexagon,0,0,d,0.5903,0,2,0,2,0,1,,,,,,,,,,,,,,,,,,,,,,,,,,,,,,,,,,,,,,,,,
293059,2022-12-05_09h12.32.221,vts_reward_expectancy_bt,2022.2.4,MacIntel,60.0024001,Chrome,1440,900,,,,,,,,,,,,,,,,,,,,,,,146,U,triangle,1,1,d,1.2098,0,3,0,3,0,1,,,,,,,,,,,,,,,,,,,,,,,,,,,,,,,,,,,,,,,,,
293059,2022-12-05_09h12.32.221,vts_reward_expectancy_bt,2022.2.4,MacIntel,60.0024001,Chrome,1440,900,,,,,,,,,,,,,,,,,,,,,,,139,D,circle,1,0,d,0.9452,0,4,0,4,0,1,,,,,,,,,,,,,,,,,,,,,,,,,,,,,,,,,,,,,,,,,
293059,2022-12-05_09h12.32.221,vts_reward_expectancy_bt,2022.2.4,MacIntel,60.0024001,Chrome,1440,900,,,,,,,,,,,,,,,,,,,,,,,181,W,star,1,0,f,1.2104,0,5,0,5,0,1,,,,,,,,,,,,,,,,,,,,,,,,,,,,,,,,,,,,,,,,,
293059,2022-12-05_09h12.32.221,vts_reward_expectancy_bt,2022.2.4,MacIntel,60.0024001,Chrome,1440,900,,,,,,,,,,,,,,,,,,,,,,,167,H,hexagon,1,0,f,1.1132,0,6,0,6,0,1,,,,,,,,,,,,,,,,,,,,,,,,,,,,,,,,,,,,,,,,,
293059,2022-12-05_09h12.32.221,vts_reward_expectancy_bt,2022.2.4,MacIntel,60.0024001,Chrome,1440,900,,,,,,,,,,,,,,,,,,,,,,,132,S,triangle,1,0,d,0.6425,0,7,0,7,0,1,,,,,,,,,,,,,,,,,,,,,,,,,,,,,,,,,,,,,,,,,
293059,2022-12-05_09h12.32.221,vts_reward_expectancy_bt,2022.2.4,MacIntel,60.0024001,Chrome,1440,900,,,,,,,,,,,,,,,,,,,,,,,125,B,circle,1,0,d,1.2086,0,8,0,8,0,1,,,,,,,,,,,,,,,,,,,,,,,,,,,,,,,,,,,,,,,,,
293059,2022-12-05_09h12.32.221,vts_reward_expectancy_bt,2022.2.4,MacIntel,60.0024001,Chrome,1440,900,,,,,,,,,,,,,,,,,,,,,,,160,Y,hexagon,1,0,f,1.0076,0,9,0,9,0,1,,,,,,,,,,,,,,,,,,,,,,,,,,,,,,,,,,,,,,,,,
293059,2022-12-05_09h12.32.221,vts_reward_expectancy_bt,2022.2.4,MacIntel,60.0024001,Chrome,1440,900,,,,,,,,,,,,,,,,,,,,,,,160,D,star,2,0,,,1,,,,,,d,0.8878,0,0,0,0,1,,,,,,,,,,,,,,,,,,,,,,,,,,,,,,,,,,
293059,2022-12-05_09h12.32.221,vts_reward_expectancy_bt,2022.2.4,MacIntel,60.0024001,Chrome,1440,900,,,,,,,,,,,,,,,,,,,,,,,181,U,triangle,0,0,,,1,,,,,,,,1,0,1,0,1,,,,,,,,,,,,,,,,,,,,,,,,,,,,,,,,,,
293059,2022-12-05_09h12.32.221,vts_reward_expectancy_bt,2022.2.4,MacIntel,60.0024001,Chrome,1440,900,,,,,,,,,,,,,,,,,,,,,,,146,W,circle,2,1,,,1,,,,,,d,1.3029,2,0,2,0,1,,,,,,,,,,,,,,,,,,,,,,,,,,,,,,,,,,
293059,2022-12-05_09h12.32.221,vts_reward_expectancy_bt,2022.2.4,MacIntel,60.0024001,Chrome,1440,900,,,,,,,,,,,,,,,,,,,,,,,125,F,hexagon,1,0,,,1,,,,,,j,1.7964,3,0,3,0,1,,,,,,,,,,,,,,,,,,,,,,,,,,,,,,,,,,
293059,2022-12-05_09h12.32.221,vts_reward_expectancy_bt,2022.2.4,MacIntel,60.0024001,Chrome,1440,900,,,,,,,,,,,,,,,,,,,,,,,167,Y,star,1,0,,,1,,,,,,k,0.5888,4,0,4,0,1,,,,,,,,,,,,,,,,,,,,,,,,,,,,,,,,,,
293059,2022-12-05_09h12.32.221,vts_reward_expectancy_bt,2022.2.4,MacIntel,60.0024001,Chrome,1440,900,,,,,,,,,,,,,,,,,,,,,,,174,B,triangle,1,0,,,1,,,,,,j,0.6051,5,0,5,0,1,,,,,,,,,,,,,,,,,,,,,,,,,,,,,,,,,,
293059,2022-12-05_09h12.32.221,vts_reward_expectancy_bt,2022.2.4,MacIntel,60.0024001,Chrome,1440,900,,,,,,,,,,,,,,,,,,,,,,,132,S,circle,1,0,,,1,,,,,,k,1.4472,6,0,6,0,1,,,,,,,,,,,,,,,,,,,,,,,,,,,,,,,,,,
293059,2022-12-05_09h12.32.221,vts_reward_expectancy_bt,2022.2.4,MacIntel,60.0024001,Chrome,1440,900,,,,,,,,,,,,,,,,,,,,,,,139,H,hexagon,1,0,,,1,,,,,,j,0.8195,7,0,7,0,1,,,,,,,,,,,,,,,,,,,,,,,,,,,,,,,,,,
293059,2022-12-05_09h12.32.221,vts_reward_expectancy_bt,2022.2.4,MacIntel,60.0024001,Chrome,1440,900,,,,,,,,,,,,,,,,,,,,,,,160,D,hexagon,1,0,,,1,,,,,,j,0.6227,8,0,8,0,1,,,,,,,,,,,,,,,,,,,,,,,,,,,,,,,,,,
293059,2022-12-05_09h12.32.221,vts_reward_expectancy_bt,2022.2.4,MacIntel,60.0024001,Chrome,1440,900,,,,,,,,,,,,,,,,,,,,,,,181,U,circle,1,0,,,1,,,,,,k,0.6171,9,0,9,0,1,,,,,,,,,,,,,,,,,,,,,,,,,,,,,,,,,,
293059,2022-12-05_09h12.32.221,vts_reward_expectancy_bt,2022.2.4,MacIntel,60.0024001,Chrome,1440,900,,,,,,,,,,,,,,,,,,,,,,,139,U,star,1,0,,,2,,,,,,k,0.5781,0,0,0,0,1,,,,,,,,,,,,,,,,,,,,,,,,,,,,,,,,,,
293059,2022-12-05_09h12.32.221,vts_reward_expectancy_bt,2022.2.4,MacIntel,60.0024001,Chrome,1440,900,,,,,,,,,,,,,,,,,,,,,,,174,D,triangle,1,0,,,2,,,,,,j,1.0532,1,0,1,0,1,,,,,,,,,,,,,,,,,,,,,,,,,,,,,,,,,,
293059,2022-12-05_09h12.32.221,vts_reward_expectancy_bt,2022.2.4,MacIntel,60.0024001,Chrome,1440,900,,,,,,,,,,,,,,,,,,,,,,,160,H,hexagon,1,0,,,2,,,,,,j,0.6186,2,0,2,0,1,,,,,,,,,,,,,,,,,,,,,,,,,,,,,,,,,,
293059,2022-12-05_09h12.32.221,vts_reward_expectancy_bt,2022.2.4,MacIntel,60.0024001,Chrome,1440,900,,,,,,,,,,,,,,,,,,,,,,,125,Y,circle,1,0,,,2,,,,,,k,0.7783,3,0,3,0,1,,,,,,,,,,,,,,,,,,,,,,,,,,,,,,,,,,
293059,2022-12-05_09h12.32.221,vts_reward_expectancy_bt,2022.2.4,MacIntel,60.0024001,Chrome,1440,900,,,,,,,,,,,,,,,,,,,,,,,132,F,star,1,0,,,2,,,,,,j,0.8868,4,0,4,0,1,,,,,,,,,,,,,,,,,,,,,,,,,,,,,,,,,,
293059,2022-12-05_09h12.32.221,vts_reward_expectancy_bt,2022.2.4,MacIntel,60.0024001,Chrome,1440,900,,,,,,,,,,,,,,,,,,,,,,,146,B,triangle,1,0,,,2,,,,,,j,0.7417,5,0,5,0,1,,,,,,,,,,,,,,,,,,,,,,,,,,,,,,,,,,
293059,2022-12-05_09h12.32.221,vts_reward_expectancy_bt,2022.2.4,MacIntel,60.0024001,Chrome,1440,900,,,,,,,,,,,,,,,,,,,,,,,167,S,hexagon,1,0,,,2,,,,,,k,1.0757,6,0,6,0,1,,,,,,,,,,,,,,,,,,,,,,,,,,,,,,,,,,
293059,2022-12-05_09h12.32.221,vts_reward_expectancy_bt,2022.2.4,MacIntel,60.0024001,Chrome,1440,900,,,,,,,,,,,,,,,,,,,,,,,181,W,circle,1,0,,,2,,,,,,k,0.7147,7,0,7,0,1,,,,,,,,,,,,,,,,,,,,,,,,,,,,,,,,,,
293059,2022-12-05_09h12.32.221,vts_reward_expectancy_bt,2022.2.4,MacIntel,60.0024001,Chrome,1440,900,,,,,,,,,,,,,,,,,,,,,,,139,U,star,1,0,,,2,,,,,,k,1.3741,8,0,8,0,1,,,,,,,,,,,,,,,,,,,,,,,,,,,,,,,,,,
293059,2022-12-05_09h12.32.221,vts_reward_expectancy_bt,2022.2.4,MacIntel,60.0024001,Chrome,1440,900,,,,,,,,,,,,,,,,,,,,,,,174,D,triangle,1,0,,,2,,,,,,j,1.9554,9,0,9,0,1,,,,,,,,,,,,,,,,,,,,,,,,,,,,,,,,,,
293059,2022-12-05_09h12.32.221,vts_reward_expectancy_bt,2022.2.4,MacIntel,60.0024001,Chrome,1440,900,,,,,0,612,,,,,,,,,,,,,,,,,139,Y,circle,-1,0,,,3,,,,,,,,,,,,,-1,no_choice,NA,,vtsPrac,0,0,0,0,1,,,,,,,,,,,,,,,,,,,,,,,,
293059,2022-12-05_09h12.32.221,vts_reward_expectancy_bt,2022.2.4,MacIntel,60.0024001,Chrome,1440,900,,,,,0,612,,,,,,,,,,,,,,,,,167,F,triangle,0,0,,,3,,,,,,,,,,,,,switch,number,NA,d,vtsPrac,1,0,1,0,1,1.1729,,,,,,,,,,,,,,,,,,,,,,,
293059,2022-12-05_09h12.32.221,vts_reward_expectancy_bt,2022.2.4,MacIntel,60.0024001,Chrome,1440,900,,,,,0,612,,,,,,,,,,,,,,,,,181,D,circle,1,1,,,3,,,,,,,,,,,,,repeat,number,numRpt,f,vtsPrac,2,0,2,0,1,0.7724,,,,,,,,,,,,,,,,,,,,,,,
293059,2022-12-05_09h12.32.221,vts_reward_expectancy_bt,2022.2.4,MacIntel,60.0024001,Chrome,1440,900,,,,,0,612,,,,,,,,,,,,,,,,,174,W,triangle,1,0,,,3,,,,,,,,,,,,,switch,letter,lettSwt,k,vtsPrac,3,0,3,0,1,0.6393,,,,,,,,,,,,,,,,,,,,,,,
293059,2022-12-05_09h12.32.221,vts_reward_expectancy_bt,2022.2.4,MacIntel,60.0024001,Chrome,1440,900,,,,,0,612,,,,,,,,,,,,,,,,,139,Y,triangle,1,0,,,3,,,,,,,,,,,,,switch,number,numSwt,d,vtsPrac,4,0,4,0,1,1.2711,,,,,,,,,,,,,,,,,,,,,,,
293059,2022-12-05_09h12.32.221,vts_reward_expectancy_bt,2022.2.4,MacIntel,60.0024001,Chrome,1440,900,,,,,0,612,,,,,,,,,,,,,,,,,167,F,hexagon,1,0,,,3,,,,,,,,,,,,,repeat,number,numRpt,f,vtsPrac,5,0,5,0,1,0.4686,,,,,,,,,,,,,,,,,,,,,,,
293059,2022-12-05_09h12.32.221,vts_reward_expectancy_bt,2022.2.4,MacIntel,60.0024001,Chrome,1440,900,,,,,0,612,,,,,,,,,,,,,,,,,181,D,star,1,0,,,3,,,,,,,,,,,,,switch,letter,lettSwt,j,vtsPrac,6,0,6,0,1,0.5385,,,,,,,,,,,,,,,,,,,,,,,
293059,2022-12-05_09h12.32.221,vts_reward_expectancy_bt,2022.2.4,MacIntel,60.0024001,Chrome,1440,900,,,,,0,612,,,,,,,,,,,,,,,,,174,W,triangle,1,0,,,3,,,,,,,,,,,,,repeat,letter,lettRpt,k,vtsPrac,7,0,7,0,1,0.6548,,,,,,,,,,,,,,,,,,,,,,,
293059,2022-12-05_09h12.32.221,vts_reward_expectancy_bt,2022.2.4,MacIntel,60.0024001,Chrome,1440,900,,,,,0,612,,,,,,,,,,,,,,,,,146,D,circle,1,0,,,3,,,,,,,,,,,,,repeat,letter,lettRpt,j,vtsPrac,8,0,8,0,1,0.8166,,,,,,,,,,,,,,,,,,,,,,,
293059,2022-12-05_09h12.32.221,vts_reward_expectancy_bt,2022.2.4,MacIntel,60.0024001,Chrome,1440,900,,,,,0,612,,,,,,,,,,,,,,,,,160,B,triangle,1,0,,,3,,,,,,,,,,,,,repeat,letter,lettRpt,j,vtsPrac,9,0,9,0,1,0.7937,,,,,,,,,,,,,,,,,,,,,,,
293059,2022-12-05_09h12.32.221,vts_reward_expectancy_bt,2022.2.4,MacIntel,60.0024001,Chrome,1440,900,,,,,0,612,,,,,,,,,,,,,,,,,132,F,hexagon,1,0,,,3,,,,,,,,,,,,,repeat,letter,lettRpt,j,vtsPrac,10,0,10,0,1,1.0703,,,,,,,,,,,,,,,,,,,,,,,
293059,2022-12-05_09h12.32.221,vts_reward_expectancy_bt,2022.2.4,MacIntel,60.0024001,Chrome,1440,900,,,,,0,612,,,,,,,,,,,,,,,,,181,H,triangle,1,0,,,3,,,,,,,,,,,,,repeat,letter,lettRpt,j,vtsPrac,11,0,11,0,1,0.7223,,,,,,,,,,,,,,,,,,,,,,,
293059,2022-12-05_09h12.32.221,vts_reward_expectancy_bt,2022.2.4,MacIntel,60.0024001,Chrome,1440,900,,,,,0,612,,,,,,,,,,,,,,,,,167,U,circle,1,0,,,3,,,,,,,,,,,,,repeat,letter,lettRpt,k,vtsPrac,12,0,12,0,1,0.7351,,,,,,,,,,,,,,,,,,,,,,,
293059,2022-12-05_09h12.32.221,vts_reward_expectancy_bt,2022.2.4,MacIntel,60.0024001,Chrome,1440,900,,,,,0,612,,,,,,,,,,,,,,,,,132,B,hexagon,1,0,,,3,,,,,,,,,,,,,switch,number,numSwt,d,vtsPrac,13,0,13,0,1,0.7281,,,,,,,,,,,,,,,,,,,,,,,
293059,2022-12-05_09h12.32.221,vts_reward_expectancy_bt,2022.2.4,MacIntel,60.0024001,Chrome,1440,900,,,,,0,612,,,,,,,,,,,,,,,,,174,F,circle,1,0,,,3,,,,,,,,,,,,,repeat,number,numRpt,f,vtsPrac,14,0,14,0,1,0.8188,,,,,,,,,,,,,,,,,,,,,,,
293059,2022-12-05_09h12.32.221,vts_reward_expectancy_bt,2022.2.4,MacIntel,60.0024001,Chrome,1440,900,,,,,0,612,,,,,,,,,,,,,,,,,125,Y,hexagon,1,0,,,3,,,,,,,,,,,,,repeat,number,numRpt,d,vtsPrac,15,0,15,0,1,0.654,,,,,,,,,,,,,,,,,,,,,,,
293059,2022-12-05_09h12.32.221,vts_reward_expectancy_bt,2022.2.4,MacIntel,60.0024001,Chrome,1440,900,,,,,0,612,,,,,,,,,,,,,,,,,167,U,hexagon,1,0,,,3,,,,,,,,,,,,,repeat,number,numRpt,f,vtsPrac,16,0,16,0,1,1.1226,,,,,,,,,,,,,,,,,,,,,,,
293059,2022-12-05_09h12.32.221,vts_reward_expectancy_bt,2022.2.4,MacIntel,60.0024001,Chrome,1440,900,,,,,0,612,,,,,,,,,,,,,,,,,160,W,triangle,1,0,,,3,,,,,,,,,,,,,repeat,number,numRpt,f,vtsPrac,17,0,17,0,1,0.7769,,,,,,,,,,,,,,,,,,,,,,,
293059,2022-12-05_09h12.32.221,vts_reward_expectancy_bt,2022.2.4,MacIntel,60.0024001,Chrome,1440,900,,,,,0,612,,,,,,,,,,,,,,,,,139,F,star,1,0,,,3,,,,,,,,,,,,,repeat,number,numRpt,d,vtsPrac,18,0,18,0,1,0.9815,,,,,,,,,,,,,,,,,,,,,,,
293059,2022-12-05_09h12.32.221,vts_reward_expectancy_bt,2022.2.4,MacIntel,60.0024001,Chrome,1440,900,,,,,0,612,,,,,,,,,,,,,,,,,125,Y,triangle,1,0,,,3,,,,,,,,,,,,,repeat,number,numRpt,d,vtsPrac,19,0,19,0,1,0.6082,,,,,,,,,,,,,,,,,,,,,,,
293059,2022-12-05_09h12.32.221,vts_reward_expectancy_bt,2022.2.4,MacIntel,60.0024001,Chrome,1440,900,,,,,0,612,,,,,,,,,,,,,,,,,160,S,circle,1,0,,,3,,,,,,,,,,,,,repeat,number,numRpt,f,vtsPrac,20,0,20,0,1,0.726,,,,,,,,,,,,,,,,,,,,,,,
293059,2022-12-05_09h12.32.221,vts_reward_expectancy_bt,2022.2.4,MacIntel,60.0024001,Chrome,1440,900,,,,,0,612,,,,,,,,,,,,,,,,,132,F,hexagon,1,0,,,3,,,,,,,,,,,,,repeat,number,numRpt,d,vtsPrac,21,0,21,0,1,0.8217,,,,,,,,,,,,,,,,,,,,,,,
293059,2022-12-05_09h12.32.221,vts_reward_expectancy_bt,2022.2.4,MacIntel,60.0024001,Chrome,1440,900,,,,,0,612,,,,,,,,,,,,,,,,,146,Y,star,1,0,,,3,,,,,,,,,,,,,repeat,number,numRpt,d,vtsPrac,22,0,22,0,1,1.0515,,,,,,,,,,,,,,,,,,,,,,,
293059,2022-12-05_09h12.32.221,vts_reward_expectancy_bt,2022.2.4,MacIntel,60.0024001,Chrome,1440,900,,,,,0,612,,,,,,,,,,,,,,,,,174,U,circle,1,0,,,3,,,,,,,,,,,,,switch,letter,lettSwt,k,vtsPrac,23,0,23,0,1,0.6382,,,,,,,,,,,,,,,,,,,,,,,
293059,2022-12-05_09h12.32.221,vts_reward_expectancy_bt,2022.2.4,MacIntel,60.0024001,Chrome,1440,900,,,,,0,612,,,,,,,,,,,,,,,,,125,W,circle,1,0,,,3,,,,,,,,,,,,,repeat,letter,lettRpt,k,vtsPrac,24,0,24,0,1,0.6444,,,,,,,,,,,,,,,,,,,,,,,
293059,2022-12-05_09h12.32.221,vts_reward_expectancy_bt,2022.2.4,MacIntel,60.0024001,Chrome,1440,900,,,,,0,612,,,,,,,,,,,,,,,,,174,U,hexagon,1,0,,,3,,,,,,,,,,,,,repeat,letter,lettRpt,k,vtsPrac,25,0,25,0,1,0.5711,,,,,,,,,,,,,,,,,,,,,,,
293059,2022-12-05_09h12.32.221,vts_reward_expectancy_bt,2022.2.4,MacIntel,60.0024001,Chrome,1440,900,,,,,0,612,,,,,,,,,,,,,,,,,146,B,star,1,0,,,3,,,,,,,,,,,,,repeat,letter,lettRpt,j,vtsPrac,26,0,26,0,1,0.8361,,,,,,,,,,,,,,,,,,,,,,,
293059,2022-12-05_09h12.32.221,vts_reward_expectancy_bt,2022.2.4,MacIntel,60.0024001,Chrome,1440,900,,,,,0,612,,,,,,,,,,,,,,,,,167,F,hexagon,1,0,,,3,,,,,,,,,,,,,repeat,letter,lettRpt,j,vtsPrac,27,0,27,0,1,1.2561,,,,,,,,,,,,,,,,,,,,,,,
293059,2022-12-05_09h12.32.221,vts_reward_expectancy_bt,2022.2.4,MacIntel,60.0024001,Chrome,1440,900,,,,,0,612,,,,,,,,,,,,,,,,,174,U,hexagon,1,0,,,3,,,,,,,,,,,,,repeat,letter,lettRpt,k,vtsPrac,28,0,28,0,1,1.3544,,,,,,,,,,,,,,,,,,,,,,,
293059,2022-12-05_09h12.32.221,vts_reward_expectancy_bt,2022.2.4,MacIntel,60.0024001,Chrome,1440,900,,,,,0,612,,,,,,,,,,,,,,,,,139,B,circle,1,0,,,3,,,,,,,,,,,,,repeat,letter,lettRpt,j,vtsPrac,29,0,29,0,1,0.6227,,,,,,,,,,,,,,,,,,,,,,,
293059,2022-12-05_09h12.32.221,vts_reward_expectancy_bt,2022.2.4,MacIntel,60.0024001,Chrome,1440,900,,,,,0,612,,,,,,,,,,,,,,,,,125,Y,star,1,0,,,3,,,,,,,,,,,,,repeat,letter,lettRpt,k,vtsPrac,30,0,30,0,1,0.6375,,,,,,,,,,,,,,,,,,,,,,,
293059,2022-12-05_09h12.32.221,vts_reward_expectancy_bt,2022.2.4,MacIntel,60.0024001,Chrome,1440,900,,,,,0,612,,,,,,,,,,,,,,,,,181,F,hexagon,1,0,,,3,,,,,,,,,,,,,repeat,letter,lettRpt,j,vtsPrac,31,0,31,0,1,2.5169,,,,,,,,,,,,,,,,,,,,,,,
293059,2022-12-05_09h12.32.221,vts_reward_expectancy_bt,2022.2.4,MacIntel,60.0024001,Chrome,1440,900,,,,,0,612,,,,,,,,,,,,,,,,,139,U,star,1,0,,,4,,,,,,,,,,,,,repeat,letter,lettRpt,k,vtsPrac,0,0,0,0,1,0.5706,,,,,,,,,,,,,,,,,,,,,,,
293059,2022-12-05_09h12.32.221,vts_reward_expectancy_bt,2022.2.4,MacIntel,60.0024001,Chrome,1440,900,,,,,0,612,,,,,,,,,,,,,,,,,167,W,circle,1,0,,,4,,,,,,,,,,,,,repeat,letter,lettRpt,k,vtsPrac,1,0,1,0,1,0.6767,,,,,,,,,,,,,,,,,,,,,,,
293059,2022-12-05_09h12.32.221,vts_reward_expectancy_bt,2022.2.4,MacIntel,60.0024001,Chrome,1440,900,,,,,0,612,,,,,,,,,,,,,,,,,181,Y,star,1,0,,,4,,,,,,,,,,,,,repeat,letter,lettRpt,k,vtsPrac,2,0,2,0,1,0.753,,,,,,,,,,,,,,,,,,,,,,,
293059,2022-12-05_09h12.32.221,vts_reward_expectancy_bt,2022.2.4,MacIntel,60.0024001,Chrome,1440,900,,,,,0,612,,,,,,,,,,,,,,,,,146,S,circle,1,0,,,4,,,,,,,,,,,,,repeat,letter,lettRpt,k,vtsPrac,3,0,3,0,1,1.2353,,,,,,,,,,,,,,,,,,,,,,,
293059,2022-12-05_09h12.32.221,vts_reward_expectancy_bt,2022.2.4,MacIntel,60.0024001,Chrome,1440,900,,,,,0,612,,,,,,,,,,,,,,,,,139,U,star,1,0,,,4,,,,,,,,,,,,,repeat,letter,lettRpt,k,vtsPrac,4,0,4,0,1,0.9703,,,,,,,,,,,,,,,,,,,,,,,
293059,2022-12-05_09h12.32.221,vts_reward_expectancy_bt,2022.2.4,MacIntel,60.0024001,Chrome,1440,900,,,,,0,612,,,,,,,,,,,,,,,,,167,W,triangle,1,0,,,4,,,,,,,,,,,,,repeat,letter,lettRpt,k,vtsPrac,5,0,5,0,1,0.5972,,,,,,,,,,,,,,,,,,,,,,,
293059,2022-12-05_09h12.32.221,vts_reward_expectancy_bt,2022.2.4,MacIntel,60.0024001,Chrome,1440,900,,,,,0,612,,,,,,,,,,,,,,,,,181,Y,circle,1,0,,,4,,,,,,,,,,,,,repeat,letter,lettRpt,k,vtsPrac,6,0,6,0,1,1.0922,,,,,,,,,,,,,,,,,,,,,,,
293059,2022-12-05_09h12.32.221,vts_reward_expectancy_bt,2022.2.4,MacIntel,60.0024001,Chrome,1440,900,,,,,0,612,,,,,,,,,,,,,,,,,146,S,hexagon,1,0,,,4,,,,,,,,,,,,,repeat,letter,lettRpt,k,vtsPrac,7,0,7,0,1,0.827,,,,,,,,,,,,,,,,,,,,,,,
293059,2022-12-05_09h12.32.221,vts_reward_expectancy_bt,2022.2.4,MacIntel,60.0024001,Chrome,1440,900,,,,,0,612,,,,,,,,,,,,,,,,,167,S,circle,1,0,,,4,,,,,,,,,,,,,repeat,letter,lettRpt,k,vtsPrac,8,0,8,0,1,0.6076,,,,,,,,,,,,,,,,,,,,,,,
293059,2022-12-05_09h12.32.221,vts_reward_expectancy_bt,2022.2.4,MacIntel,60.0024001,Chrome,1440,900,,,,,0,612,,,,,,,,,,,,,,,,,181,F,triangle,0,0,,,4,,,,,,,,,,,,,repeat,letter,NA,k,vtsPrac,9,0,9,0,1,0.8551,,,,,,,,,,,,,,,,,,,,,,,
293059,2022-12-05_09h12.32.221,vts_reward_expectancy_bt,2022.2.4,MacIntel,60.0024001,Chrome,1440,900,,,,,0,612,,,,,,,,,,,,,,,,,146,H,triangle,1,1,,,4,,,,,,,,,,,,,repeat,letter,lettRpt,j,vtsPrac,10,0,10,0,1,1.3091,,,,,,,,,,,,,,,,,,,,,,,
293059,2022-12-05_09h12.32.221,vts_reward_expectancy_bt,2022.2.4,MacIntel,60.0024001,Chrome,1440,900,,,,,0,612,,,,,,,,,,,,,,,,,139,Y,star,1,0,,,4,,,,,,,,,,,,,repeat,letter,lettRpt,k,vtsPrac,11,0,11,0,1,1.2488,,,,,,,,,,,,,,,,,,,,,,,
293059,2022-12-05_09h12.32.221,vts_reward_expectancy_bt,2022.2.4,MacIntel,60.0024001,Chrome,1440,900,,,,,0,612,,,,,,,,,,,,,,,,,181,Y,triangle,1,0,,,4,,,,,,,,,,,,,repeat,letter,lettRpt,k,vtsPrac,12,0,12,0,1,0.706,,,,,,,,,,,,,,,,,,,,,,,
293059,2022-12-05_09h12.32.221,vts_reward_expectancy_bt,2022.2.4,MacIntel,60.0024001,Chrome,1440,900,,,,,0,612,,,,,,,,,,,,,,,,,132,F,star,1,0,,,4,,,,,,,,,,,,,switch,number,numSwt,d,vtsPrac,13,0,13,0,1,0.8595,,,,,,,,,,,,,,,,,,,,,,,
293059,2022-12-05_09h12.32.221,vts_reward_expectancy_bt,2022.2.4,MacIntel,60.0024001,Chrome,1440,900,,,,,0,612,,,,,,,,,,,,,,,,,139,H,hexagon,1,0,,,4,,,,,,,,,,,,,repeat,number,numRpt,d,vtsPrac,14,0,14,0,1,0.7544,,,,,,,,,,,,,,,,,,,,,,,
293059,2022-12-05_09h12.32.221,vts_reward_expectancy_bt,2022.2.4,MacIntel,60.0024001,Chrome,1440,900,,,,,0,612,,,,,,,,,,,,,,,,,125,S,star,1,0,,,4,,,,,,,,,,,,,repeat,number,numRpt,d,vtsPrac,15,0,15,0,1,0.7556,,,,,,,,,,,,,,,,,,,,,,,
293059,2022-12-05_09h12.32.221,vts_reward_expectancy_bt,2022.2.4,MacIntel,60.0024001,Chrome,1440,900,,,,,0,612,,,,,,,,,,,,,,,,,167,U,hexagon,1,0,,,4,,,,,,,,,,,,,repeat,number,numRpt,f,vtsPrac,16,0,16,0,1,0.7186,,,,,,,,,,,,,,,,,,,,,,,
293059,2022-12-05_09h12.32.221,vts_reward_expectancy_bt,2022.2.4,MacIntel,60.0024001,Chrome,1440,900,,,,,0,612,,,,,,,,,,,,,,,,,181,B,star,1,0,,,4,,,,,,,,,,,,,repeat,number,numRpt,f,vtsPrac,17,0,17,0,1,0.6557,,,,,,,,,,,,,,,,,,,,,,,
293059,2022-12-05_09h12.32.221,vts_reward_expectancy_bt,2022.2.4,MacIntel,60.0024001,Chrome,1440,900,,,,,0,612,,,,,,,,,,,,,,,,,132,Y,triangle,1,0,,,4,,,,,,,,,,,,,repeat,number,numRpt,d,vtsPrac,18,0,18,0,1,1.0764,,,,,,,,,,,,,,,,,,,,,,,
293059,2022-12-05_09h12.32.221,vts_reward_expectancy_bt,2022.2.4,MacIntel,60.0024001,Chrome,1440,900,,,,,0,612,,,,,,,,,,,,,,,,,139,W,star,1,0,,,4,,,,,,,,,,,,,repeat,number,numRpt,d,vtsPrac,19,0,19,0,1,0.7417,,,,,,,,,,,,,,,,,,,,,,,
293059,2022-12-05_09h12.32.221,vts_reward_expectancy_bt,2022.2.4,MacIntel,60.0024001,Chrome,1440,900,,,,,0,612,,,,,,,,,,,,,,,,,146,U,triangle,1,0,,,4,,,,,,,,,,,,,repeat,number,numRpt,d,vtsPrac,20,0,20,0,1,0.9579,,,,,,,,,,,,,,,,,,,,,,,
293059,2022-12-05_09h12.32.221,vts_reward_expectancy_bt,2022.2.4,MacIntel,60.0024001,Chrome,1440,900,,,,,0,612,,,,,,,,,,,,,,,,,132,Y,hexagon,1,0,,,4,,,,,,,,,,,,,repeat,number,numRpt,d,vtsPrac,21,0,21,0,1,1.0548,,,,,,,,,,,,,,,,,,,,,,,
293059,2022-12-05_09h12.32.221,vts_reward_expectancy_bt,2022.2.4,MacIntel,60.0024001,Chrome,1440,900,,,,,0,612,,,,,,,,,,,,,,,,,160,D,triangle,1,0,,,4,,,,,,,,,,,,,repeat,number,numRpt,f,vtsPrac,22,0,22,0,1,1.6721,,,,,,,,,,,,,,,,,,,,,,,
293059,2022-12-05_09h12.32.221,vts_reward_expectancy_bt,2022.2.4,MacIntel,60.0024001,Chrome,1440,900,,,,,0,612,,,,,,,,,,,,,,,,,139,S,hexagon,1,0,,,4,,,,,,,,,,,,,repeat,number,numRpt,d,vtsPrac,23,0,23,0,1,1.0024,,,,,,,,,,,,,,,,,,,,,,,
293059,2022-12-05_09h12.32.221,vts_reward_expectancy_bt,2022.2.4,MacIntel,60.0024001,Chrome,1440,900,,,,,0,612,,,,,,,,,,,,,,,,,139,B,triangle,1,0,,,4,,,,,,,,,,,,,repeat,number,numRpt,d,vtsPrac,24,0,24,0,1,1.0385,,,,,,,,,,,,,,,,,,,,,,,
293059,2022-12-05_09h12.32.221,vts_reward_expectancy_bt,2022.2.4,MacIntel,60.0024001,Chrome,1440,900,,,,,0,612,,,,,,,,,,,,,,,,,132,H,circle,1,0,,,4,,,,,,,,,,,,,repeat,number,numRpt,d,vtsPrac,25,0,25,0,1,0.9756,,,,,,,,,,,,,,,,,,,,,,,
293059,2022-12-05_09h12.32.221,vts_reward_expectancy_bt,2022.2.4,MacIntel,60.0024001,Chrome,1440,900,,,,,0,612,,,,,,,,,,,,,,,,,125,U,star,1,0,,,4,,,,,,,,,,,,,repeat,number,numRpt,d,vtsPrac,26,0,26,0,1,0.9888,,,,,,,,,,,,,,,,,,,,,,,
293059,2022-12-05_09h12.32.221,vts_reward_expectancy_bt,2022.2.4,MacIntel,60.0024001,Chrome,1440,900,,,,,0,612,,,,,,,,,,,,,,,,,160,D,triangle,1,0,,,4,,,,,,,,,,,,,repeat,number,numRpt,f,vtsPrac,27,0,27,0,1,0.9373,,,,,,,,,,,,,,,,,,,,,,,
293059,2022-12-05_09h12.32.221,vts_reward_expectancy_bt,2022.2.4,MacIntel,60.0024001,Chrome,1440,900,,,,,0,612,,,,,,,,,,,,,,,,,146,H,hexagon,1,0,,,4,,,,,,,,,,,,,repeat,number,numRpt,d,vtsPrac,28,0,28,0,1,0.7555,,,,,,,,,,,,,,,,,,,,,,,
293059,2022-12-05_09h12.32.221,vts_reward_expectancy_bt,2022.2.4,MacIntel,60.0024001,Chrome,1440,900,,,,,0,612,,,,,,,,,,,,,,,,,125,W,star,1,0,,,4,,,,,,,,,,,,,switch,letter,lettSwt,k,vtsPrac,29,0,29,0,1,0.7766,,,,,,,,,,,,,,,,,,,,,,,
293059,2022-12-05_09h12.32.221,vts_reward_expectancy_bt,2022.2.4,MacIntel,60.0024001,Chrome,1440,900,,,,,0,612,,,,,,,,,,,,,,,,,167,B,star,1,0,,,4,,,,,,,,,,,,,repeat,letter,lettRpt,j,vtsPrac,30,0,30,0,1,0.7504,,,,,,,,,,,,,,,,,,,,,,,
293059,2022-12-05_09h12.32.221,vts_reward_expectancy_bt,2022.2.4,MacIntel,60.0024001,Chrome,1440,900,,,,,0,612,,,,,,,,,,,,,,,,,139,S,hexagon,1,0,,,4,,,,,,,,,,,,,repeat,letter,lettRpt,k,vtsPrac,31,0,31,0,1,0.613,,,,,,,,,,,,,,,,,,,,,,,
293059,2022-12-05_09h12.32.221,vts_reward_expectancy_bt,2022.2.4,MacIntel,60.0024001,Chrome,1440,900,,,,,0,612,,,,,,,,,,,,,,,,,167,S,circle,1,0,,,5,,,,,,,,,,,,,switch,number,numSwt,f,vtsPrac,0,0,0,0,1,0.8929,,,,,,,,,,,,,,,,,,,,,,,
293059,2022-12-05_09h12.32.221,vts_reward_expectancy_bt,2022.2.4,MacIntel,60.0024001,Chrome,1440,900,,,,,0,612,,,,,,,,,,,,,,,,,160,U,triangle,1,0,,,5,,,,,,,,,,,,,repeat,number,numRpt,f,vtsPrac,1,0,1,0,1,1.0345,,,,,,,,,,,,,,,,,,,,,,,
293059,2022-12-05_09h12.32.221,vts_reward_expectancy_bt,2022.2.4,MacIntel,60.0024001,Chrome,1440,900,,,,,0,612,,,,,,,,,,,,,,,,,146,B,circle,1,0,,,5,,,,,,,,,,,,,repeat,number,numRpt,d,vtsPrac,2,0,2,0,1,1.4429,,,,,,,,,,,,,,,,,,,,,,,
293059,2022-12-05_09h12.32.221,vts_reward_expectancy_bt,2022.2.4,MacIntel,60.0024001,Chrome,1440,900,,,,,0,612,,,,,,,,,,,,,,,,,132,W,triangle,1,0,,,5,,,,,,,,,,,,,repeat,number,numRpt,d,vtsPrac,3,0,3,0,1,1.1593,,,,,,,,,,,,,,,,,,,,,,,
293059,2022-12-05_09h12.32.221,vts_reward_expectancy_bt,2022.2.4,MacIntel,60.0024001,Chrome,1440,900,,,,,0,612,,,,,,,,,,,,,,,,,167,S,circle,1,0,,,5,,,,,,,,,,,,,repeat,number,numRpt,f,vtsPrac,4,0,4,0,1,0.9547,,,,,,,,,,,,,,,,,,,,,,,
293059,2022-12-05_09h12.32.221,vts_reward_expectancy_bt,2022.2.4,MacIntel,60.0024001,Chrome,1440,900,,,,,0,612,,,,,,,,,,,,,,,,,160,U,hexagon,1,0,,,5,,,,,,,,,,,,,repeat,number,numRpt,f,vtsPrac,5,0,5,0,1,0.921,,,,,,,,,,,,,,,,,,,,,,,
293059,2022-12-05_09h12.32.221,vts_reward_expectancy_bt,2022.2.4,MacIntel,60.0024001,Chrome,1440,900,,,,,0,612,,,,,,,,,,,,,,,,,146,B,star,1,0,,,5,,,,,,,,,,,,,repeat,number,numRpt,d,vtsPrac,6,0,6,0,1,1.1577,,,,,,,,,,,,,,,,,,,,,,,
293059,2022-12-05_09h12.32.221,vts_reward_expectancy_bt,2022.2.4,MacIntel,60.0024001,Chrome,1440,900,,,,,0,612,,,,,,,,,,,,,,,,,132,W,triangle,1,0,,,5,,,,,,,,,,,,,switch,letter,lettSwt,k,vtsPrac,7,0,7,0,1,1.8468,,,,,,,,,,,,,,,,,,,,,,,
293059,2022-12-05_09h12.32.221,vts_reward_expectancy_bt,2022.2.4,MacIntel,60.0024001,Chrome,1440,900,,,,,0,612,,,,,,,,,,,,,,,,,174,B,hexagon,1,0,,,5,,,,,,,,,,,,,repeat,letter,lettRpt,j,vtsPrac,8,0,8,0,1,1.2554,,,,,,,,,,,,,,,,,,,,,,,
293059,2022-12-05_09h12.32.221,vts_reward_expectancy_bt,2022.2.4,MacIntel,60.0024001,Chrome,1440,900,,,,,0,612,,,,,,,,,,,,,,,,,125,S,circle,1,0,,,5,,,,,,,,,,,,,repeat,letter,lettRpt,k,vtsPrac,9,0,9,0,1,0.8692,,,,,,,,,,,,,,,,,,,,,,,
293059,2022-12-05_09h12.32.221,vts_reward_expectancy_bt,2022.2.4,MacIntel,60.0024001,Chrome,1440,900,,,,,0,612,,,,,,,,,,,,,,,,,139,Y,hexagon,1,0,,,5,,,,,,,,,,,,,repeat,letter,lettRpt,k,vtsPrac,10,0,10,0,1,0.9082,,,,,,,,,,,,,,,,,,,,,,,
293059,2022-12-05_09h12.32.221,vts_reward_expectancy_bt,2022.2.4,MacIntel,60.0024001,Chrome,1440,900,,,,,0,612,,,,,,,,,,,,,,,,,146,D,circle,1,0,,,5,,,,,,,,,,,,,repeat,letter,lettRpt,j,vtsPrac,11,0,11,0,1,0.8749,,,,,,,,,,,,,,,,,,,,,,,
293059,2022-12-05_09h12.32.221,vts_reward_expectancy_bt,2022.2.4,MacIntel,60.0024001,Chrome,1440,900,,,,,0,612,,,,,,,,,,,,,,,,,139,U,star,1,0,,,5,,,,,,,,,,,,,switch,number,numSwt,d,vtsPrac,12,0,12,0,1,0.6803,,,,,,,,,,,,,,,,,,,,,,,
293059,2022-12-05_09h12.32.221,vts_reward_expectancy_bt,2022.2.4,MacIntel,60.0024001,Chrome,1440,900,,,,,0,612,,,,,,,,,,,,,,,,,146,B,hexagon,1,0,,,5,,,,,,,,,,,,,repeat,number,numRpt,d,vtsPrac,13,0,13,0,1,0.7225,,,,,,,,,,,,,,,,,,,,,,,
293059,2022-12-05_09h12.32.221,vts_reward_expectancy_bt,2022.2.4,MacIntel,60.0024001,Chrome,1440,900,,,,,0,612,,,,,,,,,,,,,,,,,132,F,circle,1,0,,,5,,,,,,,,,,,,,repeat,number,numRpt,d,vtsPrac,14,0,14,0,1,1.3103,,,,,,,,,,,,,,,,,,,,,,,
293059,2022-12-05_09h12.32.221,vts_reward_expectancy_bt,2022.2.4,MacIntel,60.0024001,Chrome,1440,900,,,,,0,612,,,,,,,,,,,,,,,,,160,S,hexagon,1,0,,,5,,,,,,,,,,,,,repeat,number,numRpt,f,vtsPrac,15,0,15,0,1,1.2213,,,,,,,,,,,,,,,,,,,,,,,
293059,2022-12-05_09h12.32.221,vts_reward_expectancy_bt,2022.2.4,MacIntel,60.0024001,Chrome,1440,900,,,,,0,612,,,,,,,,,,,,,,,,,160,B,circle,1,0,,,5,,,,,,,,,,,,,repeat,number,numRpt,f,vtsPrac,16,0,16,0,1,1.9425,,,,,,,,,,,,,,,,,,,,,,,
293059,2022-12-05_09h12.32.221,vts_reward_expectancy_bt,2022.2.4,MacIntel,60.0024001,Chrome,1440,900,,,,,0,612,,,,,,,,,,,,,,,,,139,W,hexagon,1,0,,,5,,,,,,,,,,,,,repeat,number,numRpt,d,vtsPrac,17,0,17,0,1,0.9897,,,,,,,,,,,,,,,,,,,,,,,
293059,2022-12-05_09h12.32.221,vts_reward_expectancy_bt,2022.2.4,MacIntel,60.0024001,Chrome,1440,900,,,,,0,612,,,,,,,,,,,,,,,,,125,F,circle,1,0,,,5,,,,,,,,,,,,,repeat,number,numRpt,d,vtsPrac,18,0,18,0,1,1.074,,,,,,,,,,,,,,,,,,,,,,,
293059,2022-12-05_09h12.32.221,vts_reward_expectancy_bt,2022.2.4,MacIntel,60.0024001,Chrome,1440,900,,,,,0,612,,,,,,,,,,,,,,,,,181,S,triangle,1,0,,,5,,,,,,,,,,,,,repeat,number,numRpt,f,vtsPrac,19,0,19,0,1,0.9872,,,,,,,,,,,,,,,,,,,,,,,
293059,2022-12-05_09h12.32.221,vts_reward_expectancy_bt,2022.2.4,MacIntel,60.0024001,Chrome,1440,900,,,,,0,612,,,,,,,,,,,,,,,,,146,H,triangle,1,0,,,5,,,,,,,,,,,,,switch,letter,lettSwt,j,vtsPrac,20,0,20,0,1,0.6867,,,,,,,,,,,,,,,,,,,,,,,
293059,2022-12-05_09h12.32.221,vts_reward_expectancy_bt,2022.2.4,MacIntel,60.0024001,Chrome,1440,900,,,,,0,612,,,,,,,,,,,,,,,,,139,B,circle,1,0,,,5,,,,,,,,,,,,,repeat,letter,lettRpt,j,vtsPrac,21,0,21,0,1,0.6574,,,,,,,,,,,,,,,,,,,,,,,
293059,2022-12-05_09h12.32.221,vts_reward_expectancy_bt,2022.2.4,MacIntel,60.0024001,Chrome,1440,900,,,,,0,612,,,,,,,,,,,,,,,,,125,D,hexagon,1,0,,,5,,,,,,,,,,,,,repeat,letter,lettRpt,j,vtsPrac,22,0,22,0,1,0.7719,,,,,,,,,,,,,,,,,,,,,,,
293059,2022-12-05_09h12.32.221,vts_reward_expectancy_bt,2022.2.4,MacIntel,60.0024001,Chrome,1440,900,,,,,0,612,,,,,,,,,,,,,,,,,167,W,circle,1,0,,,5,,,,,,,,,,,,,switch,number,numSwt,f,vtsPrac,23,0,23,0,1,0.896,,,,,,,,,,,,,,,,,,,,,,,
293059,2022-12-05_09h12.32.221,vts_reward_expectancy_bt,2022.2.4,MacIntel,60.0024001,Chrome,1440,900,,,,,0,612,,,,,,,,,,,,,,,,,139,U,star,1,0,,,5,,,,,,,,,,,,,repeat,number,numRpt,d,vtsPrac,24,0,24,0,1,1.8747,,,,,,,,,,,,,,,,,,,,,,,
293059,2022-12-05_09h12.32.221,vts_reward_expectancy_bt,2022.2.4,MacIntel,60.0024001,Chrome,1440,900,,,,,0,612,,,,,,,,,,,,,,,,,146,S,triangle,1,0,,,5,,,,,,,,,,,,,repeat,number,numRpt,d,vtsPrac,25,0,25,0,1,0.6915,,,,,,,,,,,,,,,,,,,,,,,
293059,2022-12-05_09h12.32.221,vts_reward_expectancy_bt,2022.2.4,MacIntel,60.0024001,Chrome,1440,900,,,,,0,612,,,,,,,,,,,,,,,,,181,Y,hexagon,1,0,,,5,,,,,,,,,,,,,repeat,number,numRpt,f,vtsPrac,26,0,26,0,1,0.9889,,,,,,,,,,,,,,,,,,,,,,,
293059,2022-12-05_09h12.32.221,vts_reward_expectancy_bt,2022.2.4,MacIntel,60.0024001,Chrome,1440,900,,,,,0,612,,,,,,,,,,,,,,,,,125,H,triangle,1,0,,,5,,,,,,,,,,,,,repeat,number,numRpt,d,vtsPrac,27,0,27,0,1,1.0384,,,,,,,,,,,,,,,,,,,,,,,
293059,2022-12-05_09h12.32.221,vts_reward_expectancy_bt,2022.2.4,MacIntel,60.0024001,Chrome,1440,900,,,,,0,612,,,,,,,,,,,,,,,,,181,F,circle,1,0,,,5,,,,,,,,,,,,,switch,letter,lettSwt,j,vtsPrac,28,0,28,0,1,1.1207,,,,,,,,,,,,,,,,,,,,,,,
293059,2022-12-05_09h12.32.221,vts_reward_expectancy_bt,2022.2.4,MacIntel,60.0024001,Chrome,1440,900,,,,,0,612,,,,,,,,,,,,,,,,,167,B,star,1,0,,,5,,,,,,,,,,,,,repeat,letter,lettRpt,j,vtsPrac,29,0,29,0,1,1.3568,,,,,,,,,,,,,,,,,,,,,,,
293059,2022-12-05_09h12.32.221,vts_reward_expectancy_bt,2022.2.4,MacIntel,60.0024001,Chrome,1440,900,,,,,0,612,,,,,,,,,,,,,,,,,146,U,triangle,-1,0,,,5,,,,,,,,,,,,,switch,no_choice,NA,,vtsPrac,30,0,30,0,1,,,,,,,,,,,,,,,,,,,,,,,,
293059,2022-12-05_09h12.32.221,vts_reward_expectancy_bt,2022.2.4,MacIntel,60.0024001,Chrome,1440,900,,,,,0,612,,,,,,,,,,,,,,,,,139,S,circle,1,0,,,5,,,,,,,,,,,,,switch,letter,lettSwt,k,vtsPrac,31,0,31,0,1,1.0384,,,,,,,,,,,,,,,,,,,,,,,
293059,2022-12-05_09h12.32.221,vts_reward_expectancy_bt,2022.2.4,MacIntel,60.0024001,Chrome,1440,900,,,,,,,,,,,,,,,,,,,,,,,,,,,,,,,,,,,,,,,,,,,,,,,,,,,,,,,,,,,,,,,,,,,,,,,,,,,,
293059,2022-12-05_09h12.32.221,vts_reward_expectancy_bt,2022.2.4,MacIntel,60.0024001,Chrome,1440,900,,,,,,,,,,,,,,,,,,,,,,,,,,,,,,,,,,,,,,,,,,,,,,,,,,,,,,,,,,,,,,,,,,,,,,,,,,,,
293059,2022-12-05_09h12.32.221,vts_reward_expectancy_bt,2022.2.4,MacIntel,60.0024001,Chrome,1440,900,,,,,0,612,,,,,,,,,,,,,,,,,174,D,triangle,1,0,,,,,,,,,,,,,,,,switch,number,numSwt,f,noRew,,,,,,0.9741,0,0,0,0,0,1,,,,,,,,,,,,,,,,,
293059,2022-12-05_09h12.32.221,vts_reward_expectancy_bt,2022.2.4,MacIntel,60.0024001,Chrome,1440,900,,,,,0,612,,,,,,,,,,,,,,,,,160,B,hexagon,1,0,,,,,,,,,,,,,,,,repeat,number,numRpt,f,noRew,,,,,,1.1396,0,1,0,1,0,1,,,,,,,,,,,,,,,,,
293059,2022-12-05_09h12.32.221,vts_reward_expectancy_bt,2022.2.4,MacIntel,60.0024001,Chrome,1440,900,,,,,0,612,,,,,,,,,,,,,,,,,139,S,triangle,1,0,,,,,,,,,,,,,,,,repeat,number,numRpt,d,noRew,,,,,,0.769,0,2,0,2,0,1,,,,,,,,,,,,,,,,,
293059,2022-12-05_09h12.32.221,vts_reward_expectancy_bt,2022.2.4,MacIntel,60.0024001,Chrome,1440,900,,,,,0,612,,,,,,,,,,,,,,,,,132,F,hexagon,1,0,,,,,,,,,,,,,,,,switch,letter,lettSwt,j,noRew,,,,,,0.8529,0,3,0,3,0,1,,,,,,,,,,,,,,,,,
293059,2022-12-05_09h12.32.221,vts_reward_expectancy_bt,2022.2.4,MacIntel,60.0024001,Chrome,1440,900,,,,,0,612,,,,,,,,,,,,,,,,,174,D,hexagon,1,0,,,,,,,,,,,,,,,,repeat,letter,lettRpt,j,noRew,,,,,,1.0496,0,4,0,4,0,1,,,,,,,,,,,,,,,,,
293059,2022-12-05_09h12.32.221,vts_reward_expectancy_bt,2022.2.4,MacIntel,60.0024001,Chrome,1440,900,,,,,0,612,,,,,,,,,,,,,,,,,160,B,circle,1,0,,,,,,,,,,,,,,,,repeat,letter,lettRpt,j,noRew,,,,,,1.1071,0,5,0,5,0,1,,,,,,,,,,,,,,,,,
293059,2022-12-05_09h12.32.221,vts_reward_expectancy_bt,2022.2.4,MacIntel,60.0024001,Chrome,1440,900,,,,,0,612,,,,,,,,,,,,,,,,,139,S,star,1,0,,,,,,,,,,,,,,,,repeat,letter,lettRpt,k,noRew,,,,,,1.5042,0,6,0,6,0,1,,,,,,,,,,,,,,,,,
293059,2022-12-05_09h12.32.221,vts_reward_expectancy_bt,2022.2.4,MacIntel,60.0024001,Chrome,1440,900,,,,,0,612,,,,,,,,,,,,,,,,,132,F,hexagon,1,0,,,,,,,,,,,,,,,,switch,number,numSwt,d,noRew,,,,,,1.0065,0,7,0,7,0,1,,,,,,,,,,,,,,,,,
293059,2022-12-05_09h12.32.221,vts_reward_expectancy_bt,2022.2.4,MacIntel,60.0024001,Chrome,1440,900,,,,,0,612,,,,,,,,,,,,,,,,,160,U,triangle,1,0,,,,,,,,,,,,,,,,repeat,number,numRpt,f,noRew,,,,,,0.9874,0,8,0,8,0,1,,,,,,,,,,,,,,,,,
293059,2022-12-05_09h12.32.221,vts_reward_expectancy_bt,2022.2.4,MacIntel,60.0024001,Chrome,1440,900,,,,,0,612,,,,,,,,,,,,,,,,,167,S,hexagon,1,0,,,,,,,,,,,,,,,,repeat,number,numRpt,f,noRew,,,,,,0.9095,0,9,0,9,0,1,,,,,,,,,,,,,,,,,
293059,2022-12-05_09h12.32.221,vts_reward_expectancy_bt,2022.2.4,MacIntel,60.0024001,Chrome,1440,900,,,,,0,612,,,,,,,,,,,,,,,,,181,D,circle,1,0,,,,,,,,,,,,,,,,repeat,number,numRpt,f,noRew,,,,,,1.1865,0,10,0,10,0,1,,,,,,,,,,,,,,,,,
293059,2022-12-05_09h12.32.221,vts_reward_expectancy_bt,2022.2.4,MacIntel,60.0024001,Chrome,1440,900,,,,,0,612,,,,,,,,,,,,,,,,,132,W,star,1,0,,,,,,,,,,,,,,,,repeat,number,numRpt,d,noRew,,,,,,1.3765,0,11,0,11,0,1,,,,,,,,,,,,,,,,,
293059,2022-12-05_09h12.32.221,vts_reward_expectancy_bt,2022.2.4,MacIntel,60.0024001,Chrome,1440,900,,,,,0,612,,,,,,,,,,,,,,,,,125,U,circle,1,0,,,,,,,,,,,,,,,,repeat,number,numRpt,d,noRew,,,,,,1.1366,0,12,0,12,0,1,,,,,,,,,,,,,,,,,
293059,2022-12-05_09h12.32.221,vts_reward_expectancy_bt,2022.2.4,MacIntel,60.0024001,Chrome,1440,900,,,,,0,612,,,,,,,,,,,,,,,,,160,D,star,0,0,,,,,,,,,,,,,,,,switch,letter,NA,k,noRew,,,,,,1.367,0,13,0,13,0,1,,,,,,,,,,,,,,,,,
293059,2022-12-05_09h12.32.221,vts_reward_expectancy_bt,2022.2.4,MacIntel,60.0024001,Chrome,1440,900,,,,,0,612,,,,,,,,,,,,,,,,,139,F,circle,1,1,,,,,,,,,,,,,,,,repeat,letter,lettRpt,j,noRew,,,,,,0.8832,0,14,0,14,0,1,,,,,,,,,,,,,,,,,
293059,2022-12-05_09h12.32.221,vts_reward_expectancy_bt,2022.2.4,MacIntel,60.0024001,Chrome,1440,900,,,,,0,612,,,,,,,,,,,,,,,,,174,B,hexagon,1,0,,,,,,,,,,,,,,,,repeat,letter,lettRpt,j,noRew,,,,,,0.7049,0,15,0,15,0,1,,,,,,,,,,,,,,,,,
293059,2022-12-05_09h12.32.221,vts_reward_expectancy_bt,2022.2.4,MacIntel,60.0024001,Chrome,1440,900,,,,,0,612,,,,,,,,,,,,,,,,,132,W,circle,1,0,,,,,,,,,,,,,,,,repeat,letter,lettRpt,k,noRew,,,,,,0.765,0,16,0,16,0,1,,,,,,,,,,,,,,,,,
293059,2022-12-05_09h12.32.221,vts_reward_expectancy_bt,2022.2.4,MacIntel,60.0024001,Chrome,1440,900,,,,,0,612,,,,,,,,,,,,,,,,,160,H,hexagon,1,0,,,,,,,,,,,,,,,,switch,number,numSwt,f,noRew,,,,,,0.6548,0,17,0,17,0,1,,,,,,,,,,,,,,,,,
293059,2022-12-05_09h12.32.221,vts_reward_expectancy_bt,2022.2.4,MacIntel,60.0024001,Chrome,1440,900,,,,,0,612,,,,,,,,,,,,,,,,,146,U,star,1,0,,,,,,,,,,,,,,,,repeat,number,numRpt,d,noRew,,,,,,0.9527,0,18,0,18,0,1,,,,,,,,,,,,,,,,,
293059,2022-12-05_09h12.32.221,vts_reward_expectancy_bt,2022.2.4,MacIntel,60.0024001,Chrome,1440,900,,,,,0,612,,,,,,,,,,,,,,,,,167,Y,triangle,1,0,,,,,,,,,,,,,,,,repeat,number,numRpt,f,noRew,,,,,,0.7717,0,19,0,19,0,1,,,,,,,,,,,,,,,,,
293059,2022-12-05_09h12.32.221,vts_reward_expectancy_bt,2022.2.4,MacIntel,60.0024001,Chrome,1440,900,,,,,0,612,,,,,,,,,,,,,,,,,174,B,circle,1,0,,,,,,,,,,,,,,,,switch,letter,lettSwt,j,noRew,,,,,,0.7565,0,20,0,20,0,1,,,,,,,,,,,,,,,,,
293059,2022-12-05_09h12.32.221,vts_reward_expectancy_bt,2022.2.4,MacIntel,60.0024001,Chrome,1440,900,,,,,0,612,,,,,,,,,,,,,,,,,167,U,triangle,1,0,,,,,,,,,,,,,,,,repeat,letter,lettRpt,k,noRew,,,,,,0.5769,0,21,0,21,0,1,,,,,,,,,,,,,,,,,
293059,2022-12-05_09h12.32.221,vts_reward_expectancy_bt,2022.2.4,MacIntel,60.0024001,Chrome,1440,900,,,,,0,612,,,,,,,,,,,,,,,,,146,H,triangle,1,0,,,,,,,,,,,,,,,,repeat,letter,lettRpt,j,noRew,,,,,,0.6765,0,22,0,22,0,1,,,,,,,,,,,,,,,,,
293059,2022-12-05_09h12.32.221,vts_reward_expectancy_bt,2022.2.4,MacIntel,60.0024001,Chrome,1440,900,,,,,0,612,,,,,,,,,,,,,,,,,160,S,star,1,0,,,,,,,,,,,,,,,,repeat,letter,lettRpt,k,noRew,,,,,,0.6911,0,23,0,23,0,1,,,,,,,,,,,,,,,,,
293059,2022-12-05_09h12.32.221,vts_reward_expectancy_bt,2022.2.4,MacIntel,60.0024001,Chrome,1440,900,,,,,0,612,,,,,,,,,,,,,,,,,181,D,triangle,1,0,,,,,,,,,,,,,,,,repeat,letter,lettRpt,j,noRew,,,,,,1.0054,0,24,0,24,0,1,,,,,,,,,,,,,,,,,
293059,2022-12-05_09h12.32.221,vts_reward_expectancy_bt,2022.2.4,MacIntel,60.0024001,Chrome,1440,900,,,,,0,612,,,,,,,,,,,,,,,,,146,W,hexagon,1,0,,,,,,,,,,,,,,,,repeat,letter,lettRpt,k,noRew,,,,,,0.6353,0,25,0,25,0,1,,,,,,,,,,,,,,,,,
293059,2022-12-05_09h12.32.221,vts_reward_expectancy_bt,2022.2.4,MacIntel,60.0024001,Chrome,1440,900,,,,,0,612,,,,,,,,,,,,,,,,,132,H,star,1,0,,,,,,,,,,,,,,,,repeat,letter,lettRpt,j,noRew,,,,,,0.7235,0,26,0,26,0,1,,,,,,,,,,,,,,,,,
293059,2022-12-05_09h12.32.221,vts_reward_expectancy_bt,2022.2.4,MacIntel,60.0024001,Chrome,1440,900,,,,,0,612,,,,,,,,,,,,,,,,,139,B,circle,1,0,,,,,,,,,,,,,,,,repeat,letter,lettRpt,j,noRew,,,,,,0.6738,0,27,0,27,0,1,,,,,,,,,,,,,,,,,
293059,2022-12-05_09h12.32.221,vts_reward_expectancy_bt,2022.2.4,MacIntel,60.0024001,Chrome,1440,900,,,,,0,612,,,,,,,,,,,,,,,,,167,Y,hexagon,1,0,,,,,,,,,,,,,,,,repeat,letter,lettRpt,k,noRew,,,,,,1.111,0,28,0,28,0,1,,,,,,,,,,,,,,,,,
293059,2022-12-05_09h12.32.221,vts_reward_expectancy_bt,2022.2.4,MacIntel,60.0024001,Chrome,1440,900,,,,,0,612,,,,,,,,,,,,,,,,,132,S,circle,1,0,,,,,,,,,,,,,,,,repeat,letter,lettRpt,k,noRew,,,,,,0.7438,0,29,0,29,0,1,,,,,,,,,,,,,,,,,
293059,2022-12-05_09h12.32.221,vts_reward_expectancy_bt,2022.2.4,MacIntel,60.0024001,Chrome,1440,900,,,,,0,612,,,,,,,,,,,,,,,,,125,U,triangle,1,0,,,,,,,,,,,,,,,,repeat,letter,lettRpt,k,noRew,,,,,,0.7363,0,30,0,30,0,1,,,,,,,,,,,,,,,,,
293059,2022-12-05_09h12.32.221,vts_reward_expectancy_bt,2022.2.4,MacIntel,60.0024001,Chrome,1440,900,,,,,0,612,,,,,,,,,,,,,,,,,181,D,hexagon,1,0,,,,,,,,,,,,,,,,repeat,letter,lettRpt,j,noRew,,,,,,0.8354,0,31,0,31,0,1,,,,,,,,,,,,,,,,,
293059,2022-12-05_09h12.32.221,vts_reward_expectancy_bt,2022.2.4,MacIntel,60.0024001,Chrome,1440,900,,,,,0,612,,,,,,,,,,,,,,,,,146,B,hexagon,1,0,,,,,,,,,,,,,,,,repeat,letter,lettRpt,j,noRew,,,,,,0.7262,0,32,0,32,0,1,,,,,,,,,,,,,,,,,
293059,2022-12-05_09h12.32.221,vts_reward_expectancy_bt,2022.2.4,MacIntel,60.0024001,Chrome,1440,900,,,,,0,612,,,,,,,,,,,,,,,,,125,W,star,1,0,,,,,,,,,,,,,,,,switch,number,numSwt,d,noRew,,,,,,0.9883,0,33,0,33,0,1,,,,,,,,,,,,,,,,,
293059,2022-12-05_09h12.32.221,vts_reward_expectancy_bt,2022.2.4,MacIntel,60.0024001,Chrome,1440,900,,,,,0,612,,,,,,,,,,,,,,,,,181,F,circle,1,0,,,,,,,,,,,,,,,,repeat,number,numRpt,f,noRew,,,,,,1.026,0,34,0,34,0,1,,,,,,,,,,,,,,,,,
293059,2022-12-05_09h12.32.221,vts_reward_expectancy_bt,2022.2.4,MacIntel,60.0024001,Chrome,1440,900,,,,,0,612,,,,,,,,,,,,,,,,,167,D,hexagon,1,0,,,,,,,,,,,,,,,,repeat,number,numRpt,f,noRew,,,,,,0.7618,0,35,0,35,0,1,,,,,,,,,,,,,,,,,
293059,2022-12-05_09h12.32.221,vts_reward_expectancy_bt,2022.2.4,MacIntel,60.0024001,Chrome,1440,900,,,,,0,612,,,,,,,,,,,,,,,,,160,S,hexagon,1,0,,,,,,,,,,,,,,,,repeat,number,numRpt,f,noRew,,,,,,1.0444,0,36,0,36,0,1,,,,,,,,,,,,,,,,,
293059,2022-12-05_09h12.32.221,vts_reward_expectancy_bt,2022.2.4,MacIntel,60.0024001,Chrome,1440,900,,,,,0,612,,,,,,,,,,,,,,,,,174,F,star,1,0,,,,,,,,,,,,,,,,repeat,number,numRpt,f,noRew,,,,,,0.7825,0,37,0,37,0,1,,,,,,,,,,,,,,,,,
293059,2022-12-05_09h12.32.221,vts_reward_expectancy_bt,2022.2.4,MacIntel,60.0024001,Chrome,1440,900,,,,,0,612,,,,,,,,,,,,,,,,,125,B,triangle,1,0,,,,,,,,,,,,,,,,repeat,number,numRpt,d,noRew,,,,,,0.7868,0,38,0,38,0,1,,,,,,,,,,,,,,,,,
293059,2022-12-05_09h12.32.221,vts_reward_expectancy_bt,2022.2.4,MacIntel,60.0024001,Chrome,1440,900,,,,,0,612,,,,,,,,,,,,,,,,,146,W,star,1,0,,,,,,,,,,,,,,,,repeat,number,numRpt,d,noRew,,,,,,0.9981,0,39,0,39,0,1,,,,,,,,,,,,,,,,,
293059,2022-12-05_09h12.32.221,vts_reward_expectancy_bt,2022.2.4,MacIntel,60.0024001,Chrome,1440,900,,,,,0,612,,,,,,,,,,,,,,,,,181,D,star,1,0,,,,,,,,,,,,,,,,repeat,number,numRpt,f,noRew,,,,,,0.728,0,40,0,40,0,1,,,,,,,,,,,,,,,,,
293059,2022-12-05_09h12.32.221,vts_reward_expectancy_bt,2022.2.4,MacIntel,60.0024001,Chrome,1440,900,,,,,0,612,,,,,,,,,,,,,,,,,160,U,circle,1,0,,,,,,,,,,,,,,,,switch,letter,lettSwt,k,noRew,,,,,,0.8532,0,41,0,41,0,1,,,,,,,,,,,,,,,,,
293059,2022-12-05_09h12.32.221,vts_reward_expectancy_bt,2022.2.4,MacIntel,60.0024001,Chrome,1440,900,,,,,0,612,,,,,,,,,,,,,,,,,139,F,star,1,0,,,,,,,,,,,,,,,,repeat,letter,lettRpt,j,noRew,,,,,,0.8948,0,42,0,42,0,1,,,,,,,,,,,,,,,,,
293059,2022-12-05_09h12.32.221,vts_reward_expectancy_bt,2022.2.4,MacIntel,60.0024001,Chrome,1440,900,,,,,0,612,,,,,,,,,,,,,,,,,174,S,triangle,1,0,,,,,,,,,,,,,,,,repeat,letter,lettRpt,k,noRew,,,,,,0.7226,0,43,0,43,0,1,,,,,,,,,,,,,,,,,
293059,2022-12-05_09h12.32.221,vts_reward_expectancy_bt,2022.2.4,MacIntel,60.0024001,Chrome,1440,900,,,,,0,612,,,,,,,,,,,,,,,,,181,Y,circle,1,0,,,,,,,,,,,,,,,,repeat,letter,lettRpt,k,noRew,,,,,,0.66,0,44,0,44,0,1,,,,,,,,,,,,,,,,,
293059,2022-12-05_09h12.32.221,vts_reward_expectancy_bt,2022.2.4,MacIntel,60.0024001,Chrome,1440,900,,,,,0,612,,,,,,,,,,,,,,,,,139,F,hexagon,1,0,,,,,,,,,,,,,,,,repeat,letter,lettRpt,j,noRew,,,,,,0.7383,0,45,0,45,0,1,,,,,,,,,,,,,,,,,
293059,2022-12-05_09h12.32.221,vts_reward_expectancy_bt,2022.2.4,MacIntel,60.0024001,Chrome,1440,900,,,,,0,612,,,,,,,,,,,,,,,,,167,W,star,-1,0,,,,,,,,,,,,,,,,switch,no_choice,NA,,noRew,,,,,,,0,46,0,46,0,1,,,,,,,,,,,,,,,,,
293059,2022-12-05_09h12.32.221,vts_reward_expectancy_bt,2022.2.4,MacIntel,60.0024001,Chrome,1440,900,,,,,0,612,,,,,,,,,,,,,,,,,174,B,circle,1,0,,,,,,,,,,,,,,,,switch,letter,lettSwt,j,noRew,,,,,,1.0046,0,47,0,47,0,1,,,,,,,,,,,,,,,,,
293059,2022-12-05_09h12.32.221,vts_reward_expectancy_bt,2022.2.4,MacIntel,60.0024001,Chrome,1440,900,,,,,0,612,,,,,,,,,,,,,,,,,139,U,circle,1,0,,,,,,,,,,,,,,,,repeat,letter,lettRpt,k,noRew,,,,,,1.1865,0,48,0,48,0,1,,,,,,,,,,,,,,,,,
293059,2022-12-05_09h12.32.221,vts_reward_expectancy_bt,2022.2.4,MacIntel,60.0024001,Chrome,1440,900,,,,,0,612,,,,,,,,,,,,,,,,,181,S,hexagon,1,0,,,,,,,,,,,,,,,,repeat,letter,lettRpt,k,noRew,,,,,,0.8569,0,49,0,49,0,1,,,,,,,,,,,,,,,,,
293059,2022-12-05_09h12.32.221,vts_reward_expectancy_bt,2022.2.4,MacIntel,60.0024001,Chrome,1440,900,,,,,0,612,,,,,,,,,,,,,,,,,125,H,star,1,0,,,,,,,,,,,,,,,,repeat,letter,lettRpt,j,noRew,,,,,,0.7677,0,50,0,50,0,1,,,,,,,,,,,,,,,,,
293059,2022-12-05_09h12.32.221,vts_reward_expectancy_bt,2022.2.4,MacIntel,60.0024001,Chrome,1440,900,,,,,0,612,,,,,,,,,,,,,,,,,174,Y,hexagon,1,0,,,,,,,,,,,,,,,,switch,number,numSwt,f,noRew,,,,,,2.7884,0,51,0,51,0,1,,,,,,,,,,,,,,,,,
293059,2022-12-05_09h12.32.221,vts_reward_expectancy_bt,2022.2.4,MacIntel,60.0024001,Chrome,1440,900,,,,,0,612,,,,,,,,,,,,,,,,,181,B,circle,1,0,,,,,,,,,,,,,,,,repeat,number,numRpt,f,noRew,,,,,,0.5455,0,52,0,52,0,1,,,,,,,,,,,,,,,,,
293059,2022-12-05_09h12.32.221,vts_reward_expectancy_bt,2022.2.4,MacIntel,60.0024001,Chrome,1440,900,,,,,0,612,,,,,,,,,,,,,,,,,167,U,triangle,1,0,,,,,,,,,,,,,,,,repeat,number,numRpt,f,noRew,,,,,,0.7224,0,53,0,53,0,1,,,,,,,,,,,,,,,,,
293059,2022-12-05_09h12.32.221,vts_reward_expectancy_bt,2022.2.4,MacIntel,60.0024001,Chrome,1440,900,,,,,0,612,,,,,,,,,,,,,,,,,139,W,circle,1,0,,,,,,,,,,,,,,,,repeat,number,numRpt,d,noRew,,,,,,0.5752,0,54,0,54,0,1,,,,,,,,,,,,,,,,,
293059,2022-12-05_09h12.32.221,vts_reward_expectancy_bt,2022.2.4,MacIntel,60.0024001,Chrome,1440,900,,,,,0,612,,,,,,,,,,,,,,,,,174,S,star,1,0,,,,,,,,,,,,,,,,repeat,number,numRpt,f,noRew,,,,,,0.6419,0,55,0,55,0,1,,,,,,,,,,,,,,,,,
293059,2022-12-05_09h12.32.221,vts_reward_expectancy_bt,2022.2.4,MacIntel,60.0024001,Chrome,1440,900,,,,,0,612,,,,,,,,,,,,,,,,,146,B,star,1,0,,,,,,,,,,,,,,,,repeat,number,numRpt,d,noRew,,,,,,1.3291,0,56,0,56,0,1,,,,,,,,,,,,,,,,,
293059,2022-12-05_09h12.32.221,vts_reward_expectancy_bt,2022.2.4,MacIntel,60.0024001,Chrome,1440,900,,,,,0,612,,,,,,,,,,,,,,,,,132,W,circle,1,0,,,,,,,,,,,,,,,,repeat,number,numRpt,d,noRew,,,,,,0.719,0,57,0,57,0,1,,,,,,,,,,,,,,,,,
293059,2022-12-05_09h12.32.221,vts_reward_expectancy_bt,2022.2.4,MacIntel,60.0024001,Chrome,1440,900,,,,,0,612,,,,,,,,,,,,,,,,,160,U,triangle,1,0,,,,,,,,,,,,,,,,switch,letter,lettSwt,k,noRew,,,,,,0.7734,0,58,0,58,0,1,,,,,,,,,,,,,,,,,
293059,2022-12-05_09h12.32.221,vts_reward_expectancy_bt,2022.2.4,MacIntel,60.0024001,Chrome,1440,900,,,,,0,612,,,,,,,,,,,,,,,,,125,H,star,1,0,,,,,,,,,,,,,,,,repeat,letter,lettRpt,j,noRew,,,,,,0.7027,0,59,0,59,0,1,,,,,,,,,,,,,,,,,
293059,2022-12-05_09h12.32.221,vts_reward_expectancy_bt,2022.2.4,MacIntel,60.0024001,Chrome,1440,900,,,,,0,612,,,,,,,,,,,,,,,,,132,Y,triangle,1,0,,,,,,,,,,,,,,,,repeat,letter,lettRpt,k,noRew,,,,,,0.6206,0,60,0,60,0,1,,,,,,,,,,,,,,,,,
293059,2022-12-05_09h12.32.221,vts_reward_expectancy_bt,2022.2.4,MacIntel,60.0024001,Chrome,1440,900,,,,,0,612,,,,,,,,,,,,,,,,,167,U,hexagon,1,0,,,,,,,,,,,,,,,,repeat,letter,lettRpt,k,noRew,,,,,,0.9197,0,61,0,61,0,1,,,,,,,,,,,,,,,,,
293059,2022-12-05_09h12.32.221,vts_reward_expectancy_bt,2022.2.4,MacIntel,60.0024001,Chrome,1440,900,,,,,0,612,,,,,,,,,,,,,,,,,139,B,star,1,0,,,,,,,,,,,,,,,,repeat,letter,lettRpt,j,noRew,,,,,,1.3271,0,62,0,62,0,1,,,,,,,,,,,,,,,,,
293059,2022-12-05_09h12.32.221,vts_reward_expectancy_bt,2022.2.4,MacIntel,60.0024001,Chrome,1440,900,,,,,0,612,,,,,,,,,,,,,,,,,174,H,triangle,1,0,,,,,,,,,,,,,,,,repeat,letter,lettRpt,j,noRew,,,,,,0.6618,0,63,0,63,0,1,,,,,,,,,,,,,,,,,
293059,2022-12-05_09h12.32.221,vts_reward_expectancy_bt,2022.2.4,MacIntel,60.0024001,Chrome,1440,900,,,,,,,,,,,,,,,,,,,,,,,,,,,,,,,,,,,,,,,,,,,,,,,,,,,,,,,,,,,,,,,,,,,,,,,,,,,,
293059,2022-12-05_09h12.32.221,vts_reward_expectancy_bt,2022.2.4,MacIntel,60.0024001,Chrome,1440,900,,,,,1,613,,,,,,,,,,,,,,,,,125,Y,circle,1,0,,,,,,,,,,,,,,,,switch,number,numSwt,d,Hi,,,,,,0.9461,0,,,,,,space,14.2904,high,0,0,0,0,1,,,,,,,,,
293059,2022-12-05_09h12.32.221,vts_reward_expectancy_bt,2022.2.4,MacIntel,60.0024001,Chrome,1440,900,,,,,1,614,,,,,,,,,,,,,,,,,139,H,hexagon,1,0,,,,,,,,,,,,,,,,repeat,number,numRpt,d,Lo,,,,,,1.1042,0,,,,,,,,high,1,0,1,0,1,,,,,,,,,
293059,2022-12-05_09h12.32.221,vts_reward_expectancy_bt,2022.2.4,MacIntel,60.0024001,Chrome,1440,900,,,,,0,614,,,,,,,,,,,,,,,,,146,F,star,1,0,,,,,,,,,,,,,,,,repeat,number,numRpt,d,Hi,,,,,,2.4931,0,,,,,,,,high,2,0,2,0,1,,,,,,,,,
293059,2022-12-05_09h12.32.221,vts_reward_expectancy_bt,2022.2.4,MacIntel,60.0024001,Chrome,1440,900,,,,,10,624,,,,,,,,,,,,,,,,,174,W,triangle,1,0,,,,,,,,,,,,,,,,repeat,number,numRpt,f,Lo,,,,,,0.9047,0,,,,,,,,high,3,0,3,0,1,,,,,,,,,
293059,2022-12-05_09h12.32.221,vts_reward_expectancy_bt,2022.2.4,MacIntel,60.0024001,Chrome,1440,900,,,,,0,624,,,,,,,,,,,,,,,,,181,S,circle,1,0,,,,,,,,,,,,,,,,switch,letter,lettSwt,k,Hi,,,,,,1.7756,0,,,,,,,,high,4,0,4,0,1,,,,,,,,,
293059,2022-12-05_09h12.32.221,vts_reward_expectancy_bt,2022.2.4,MacIntel,60.0024001,Chrome,1440,900,,,,,1,625,,,,,,,,,,,,,,,,,160,U,hexagon,1,0,,,,,,,,,,,,,,,,switch,number,numSwt,f,Lo,,,,,,1.0742,0,,,,,,,,high,5,0,5,0,1,,,,,,,,,
293059,2022-12-05_09h12.32.221,vts_reward_expectancy_bt,2022.2.4,MacIntel,60.0024001,Chrome,1440,900,,,,,0,625,,,,,,,,,,,,,,,,,167,B,star,1,0,,,,,,,,,,,,,,,,repeat,number,numRpt,f,Hi,,,,,,1.3888,0,,,,,,,,high,6,0,6,0,1,,,,,,,,,
293059,2022-12-05_09h12.32.221,vts_reward_expectancy_bt,2022.2.4,MacIntel,60.0024001,Chrome,1440,900,,,,,1,626,,,,,,,,,,,,,,,,,132,D,triangle,1,0,,,,,,,,,,,,,,,,repeat,number,numRpt,d,Lo,,,,,,0.6051,0,,,,,,,,high,7,0,7,0,1,,,,,,,,,
293059,2022-12-05_09h12.32.221,vts_reward_expectancy_bt,2022.2.4,MacIntel,60.0024001,Chrome,1440,900,,,,,10,636,,,,,,,,,,,,,,,,,125,Y,star,1,0,,,,,,,,,,,,,,,,repeat,number,numRpt,d,Hi,,,,,,0.5546,0,,,,,,,,high,8,0,8,0,1,,,,,,,,,
293059,2022-12-05_09h12.32.221,vts_reward_expectancy_bt,2022.2.4,MacIntel,60.0024001,Chrome,1440,900,,,,,10,646,,,,,,,,,,,,,,,,,139,H,circle,1,0,,,,,,,,,,,,,,,,repeat,number,numRpt,d,Hi,,,,,,0.7263,0,,,,,,,,high,9,0,9,0,1,,,,,,,,,
293059,2022-12-05_09h12.32.221,vts_reward_expectancy_bt,2022.2.4,MacIntel,60.0024001,Chrome,1440,900,,,,,1,647,,,,,,,,,,,,,,,,,146,F,hexagon,1,0,,,,,,,,,,,,,,,,repeat,number,numRpt,d,Lo,,,,,,1.0413,0,,,,,,,,high,10,0,10,0,1,,,,,,,,,
293059,2022-12-05_09h12.32.221,vts_reward_expectancy_bt,2022.2.4,MacIntel,60.0024001,Chrome,1440,900,,,,,1,648,,,,,,,,,,,,,,,,,174,W,triangle,1,0,,,,,,,,,,,,,,,,repeat,number,numRpt,f,Lo,,,,,,0.9581,0,,,,,,,,high,11,0,11,0,1,,,,,,,,,
293059,2022-12-05_09h12.32.221,vts_reward_expectancy_bt,2022.2.4,MacIntel,60.0024001,Chrome,1440,900,,,,,1,649,,,,,,,,,,,,,,,,,181,S,hexagon,1,0,,,,,,,,,,,,,,,,switch,letter,lettSwt,k,Lo,,,,,,0.7962,0,,,,,,,,high,12,0,12,0,1,,,,,,,,,
293059,2022-12-05_09h12.32.221,vts_reward_expectancy_bt,2022.2.4,MacIntel,60.0024001,Chrome,1440,900,,,,,10,659,,,,,,,,,,,,,,,,,160,U,star,1,0,,,,,,,,,,,,,,,,switch,number,numSwt,f,Hi,,,,,,0.5577,0,,,,,,,,high,13,0,13,0,1,,,,,,,,,
293059,2022-12-05_09h12.32.221,vts_reward_expectancy_bt,2022.2.4,MacIntel,60.0024001,Chrome,1440,900,,,,,10,669,,,,,,,,,,,,,,,,,167,B,triangle,1,0,,,,,,,,,,,,,,,,switch,letter,lettSwt,j,Lo,,,,,,1.8474,0,,,,,,,,high,14,0,14,0,1,,,,,,,,,
293059,2022-12-05_09h12.32.221,vts_reward_expectancy_bt,2022.2.4,MacIntel,60.0024001,Chrome,1440,900,,,,,0,669,,,,,,,,,,,,,,,,,132,D,circle,1,0,,,,,,,,,,,,,,,,switch,number,numSwt,d,Hi,,,,,,1.7074,0,,,,,,,,high,15,0,15,0,1,,,,,,,,,
293059,2022-12-05_09h12.32.221,vts_reward_expectancy_bt,2022.2.4,MacIntel,60.0024001,Chrome,1440,900,,,,,0,669,,,,,,,,,,,,,,,,,146,U,triangle,0,0,,,,,,,,,,,,,,,,switch,letter,NA,j,Hi,,,,,,1.7708,0,,,,,,,,high,16,0,16,0,1,,,,,,,,,
293059,2022-12-05_09h12.32.221,vts_reward_expectancy_bt,2022.2.4,MacIntel,60.0024001,Chrome,1440,900,,,,,0,669,,,,,,,,,,,,,,,,,132,D,star,0,1,,,,,,,,,,,,,,,,switch,number,NA,f,Hi,,,,,,1.0931,0,,,,,,,,high,17,0,17,0,1,,,,,,,,,
293059,2022-12-05_09h12.32.221,vts_reward_expectancy_bt,2022.2.4,MacIntel,60.0024001,Chrome,1440,900,,,,,1,670,,,,,,,,,,,,,,,,,181,F,hexagon,1,1,,,,,,,,,,,,,,,,switch,letter,lettSwt,j,Lo,,,,,,1.8039,0,,,,,,,,high,18,0,18,0,1,,,,,,,,,
293059,2022-12-05_09h12.32.221,vts_reward_expectancy_bt,2022.2.4,MacIntel,60.0024001,Chrome,1440,900,,,,,0,670,,,,,,,,,,,,,,,,,167,H,circle,1,0,,,,,,,,,,,,,,,,repeat,letter,lettRpt,j,Hi,,,,,,2.1186,0,,,,,,,,high,19,0,19,0,1,,,,,,,,,
293059,2022-12-05_09h12.32.221,vts_reward_expectancy_bt,2022.2.4,MacIntel,60.0024001,Chrome,1440,900,,,,,0,670,,,,,,,,,,,,,,,,,174,S,star,0,0,,,,,,,,,,,,,,,,switch,number,NA,d,Hi,,,,,,1.2733,0,,,,,,,,high,20,0,20,0,1,,,,,,,,,
293059,2022-12-05_09h12.32.221,vts_reward_expectancy_bt,2022.2.4,MacIntel,60.0024001,Chrome,1440,900,,,,,1,671,,,,,,,,,,,,,,,,,160,W,circle,1,1,,,,,,,,,,,,,,,,repeat,number,numRpt,f,Hi,,,,,,0.7221,0,,,,,,,,high,21,0,21,0,1,,,,,,,,,
293059,2022-12-05_09h12.32.221,vts_reward_expectancy_bt,2022.2.4,MacIntel,60.0024001,Chrome,1440,900,,,,,10,681,,,,,,,,,,,,,,,,,139,B,hexagon,1,0,,,,,,,,,,,,,,,,repeat,number,numRpt,d,Lo,,,,,,0.893,0,,,,,,,,high,22,0,22,0,1,,,,,,,,,
293059,2022-12-05_09h12.32.221,vts_reward_expectancy_bt,2022.2.4,MacIntel,60.0024001,Chrome,1440,900,,,,,1,682,,,,,,,,,,,,,,,,,125,Y,triangle,1,0,,,,,,,,,,,,,,,,repeat,number,numRpt,d,Lo,,,,,,0.6907,0,,,,,,,,high,23,0,23,0,1,,,,,,,,,
293059,2022-12-05_09h12.32.221,vts_reward_expectancy_bt,2022.2.4,MacIntel,60.0024001,Chrome,1440,900,,,,,0,682,,,,,,,,,,,,,,,,,125,F,circle,1,0,,,,,,,,,,,,,,,,switch,letter,lettSwt,j,Hi,,,,,,1.7139,0,,,,,,,,high,24,0,24,0,1,,,,,,,,,
293059,2022-12-05_09h12.32.221,vts_reward_expectancy_bt,2022.2.4,MacIntel,60.0024001,Chrome,1440,900,,,,,1,683,,,,,,,,,,,,,,,,,146,U,triangle,1,0,,,,,,,,,,,,,,,,switch,number,numSwt,d,Lo,,,,,,0.9756,0,,,,,,,,high,25,0,25,0,1,,,,,,,,,
293059,2022-12-05_09h12.32.221,vts_reward_expectancy_bt,2022.2.4,MacIntel,60.0024001,Chrome,1440,900,,,,,1,684,,,,,,,,,,,,,,,,,132,Y,hexagon,1,0,,,,,,,,,,,,,,,,repeat,number,numRpt,d,Lo,,,,,,0.5247,0,,,,,,,,high,26,0,26,0,1,,,,,,,,,
293059,2022-12-05_09h12.32.221,vts_reward_expectancy_bt,2022.2.4,MacIntel,60.0024001,Chrome,1440,900,,,,,10,694,,,,,,,,,,,,,,,,,181,D,star,1,0,,,,,,,,,,,,,,,,repeat,number,numRpt,f,Hi,,,,,,0.628,0,,,,,,,,high,27,0,27,0,1,,,,,,,,,
293059,2022-12-05_09h12.32.221,vts_reward_expectancy_bt,2022.2.4,MacIntel,60.0024001,Chrome,1440,900,,,,,1,695,,,,,,,,,,,,,,,,,174,S,hexagon,1,0,,,,,,,,,,,,,,,,repeat,number,numRpt,f,Lo,,,,,,2.0728,0,,,,,,,,high,28,0,28,0,1,,,,,,,,,
293059,2022-12-05_09h12.32.221,vts_reward_expectancy_bt,2022.2.4,MacIntel,60.0024001,Chrome,1440,900,,,,,0,695,,,,,,,,,,,,,,,,,160,W,circle,1,0,,,,,,,,,,,,,,,,repeat,number,numRpt,f,Hi,,,,,,2.1221,0,,,,,,,,high,29,0,29,0,1,,,,,,,,,
293059,2022-12-05_09h12.32.221,vts_reward_expectancy_bt,2022.2.4,MacIntel,60.0024001,Chrome,1440,900,,,,,0,695,,,,,,,,,,,,,,,,,139,B,star,1,0,,,,,,,,,,,,,,,,repeat,number,numRpt,d,Hi,,,,,,0.796,0,,,,,,,,high,30,0,30,0,1,,,,,,,,,
293059,2022-12-05_09h12.32.221,vts_reward_expectancy_bt,2022.2.4,MacIntel,60.0024001,Chrome,1440,900,,,,,1,696,,,,,,,,,,,,,,,,,167,H,triangle,1,0,,,,,,,,,,,,,,,,repeat,number,numRpt,f,Lo,,,,,,0.7743,0,,,,,,,,high,31,0,31,0,1,,,,,,,,,
293059,2022-12-05_09h12.32.221,vts_reward_expectancy_bt,2022.2.4,MacIntel,60.0024001,Chrome,1440,900,,,,,1,697,,,,,,,,,,,,,,,,,139,H,hexagon,1,0,,,,,,,,,,,,,,,,switch,letter,lettSwt,j,Lo,,,,,,0.658,1,,,,,,space,2.735,high,0,0,0,0,1,,,,,,,,,
293059,2022-12-05_09h12.32.221,vts_reward_expectancy_bt,2022.2.4,MacIntel,60.0024001,Chrome,1440,900,,,,,1,698,,,,,,,,,,,,,,,,,174,B,triangle,1,0,,,,,,,,,,,,,,,,repeat,letter,lettRpt,j,Lo,,,,,,0.6401,1,,,,,,,,high,1,0,1,0,1,,,,,,,,,
293059,2022-12-05_09h12.32.221,vts_reward_expectancy_bt,2022.2.4,MacIntel,60.0024001,Chrome,1440,900,,,,,1,699,,,,,,,,,,,,,,,,,125,D,star,1,0,,,,,,,,,,,,,,,,repeat,letter,lettRpt,j,Hi,,,,,,0.5212,1,,,,,,,,high,2,0,2,0,1,,,,,,,,,
293059,2022-12-05_09h12.32.221,vts_reward_expectancy_bt,2022.2.4,MacIntel,60.0024001,Chrome,1440,900,,,,,10,709,,,,,,,,,,,,,,,,,132,W,circle,1,0,,,,,,,,,,,,,,,,repeat,letter,lettRpt,k,Hi,,,,,,0.6771,1,,,,,,,,high,3,0,3,0,1,,,,,,,,,
293059,2022-12-05_09h12.32.221,vts_reward_expectancy_bt,2022.2.4,MacIntel,60.0024001,Chrome,1440,900,,,,,1,710,,,,,,,,,,,,,,,,,160,Y,hexagon,1,0,,,,,,,,,,,,,,,,repeat,letter,lettRpt,k,Lo,,,,,,0.6542,1,,,,,,,,high,4,0,4,0,1,,,,,,,,,
293059,2022-12-05_09h12.32.221,vts_reward_expectancy_bt,2022.2.4,MacIntel,60.0024001,Chrome,1440,900,,,,,1,711,,,,,,,,,,,,,,,,,167,U,triangle,1,0,,,,,,,,,,,,,,,,repeat,letter,lettRpt,k,Lo,,,,,,1.6429,1,,,,,,,,high,5,0,5,0,1,,,,,,,,,
293059,2022-12-05_09h12.32.221,vts_reward_expectancy_bt,2022.2.4,MacIntel,60.0024001,Chrome,1440,900,,,,,10,721,,,,,,,,,,,,,,,,,146,S,star,1,0,,,,,,,,,,,,,,,,repeat,letter,lettRpt,k,Hi,,,,,,1.6872,1,,,,,,,,high,6,0,6,0,1,,,,,,,,,
293059,2022-12-05_09h12.32.221,vts_reward_expectancy_bt,2022.2.4,MacIntel,60.0024001,Chrome,1440,900,,,,,0,721,,,,,,,,,,,,,,,,,181,F,circle,1,0,,,,,,,,,,,,,,,,repeat,letter,lettRpt,j,Hi,,,,,,2.621,1,,,,,,,,high,7,0,7,0,1,,,,,,,,,
293059,2022-12-05_09h12.32.221,vts_reward_expectancy_bt,2022.2.4,MacIntel,60.0024001,Chrome,1440,900,,,,,1,722,,,,,,,,,,,,,,,,,139,H,hexagon,1,0,,,,,,,,,,,,,,,,repeat,letter,lettRpt,j,Lo,,,,,,0.7252,1,,,,,,,,high,8,0,8,0,1,,,,,,,,,
293059,2022-12-05_09h12.32.221,vts_reward_expectancy_bt,2022.2.4,MacIntel,60.0024001,Chrome,1440,900,,,,,10,732,,,,,,,,,,,,,,,,,174,B,circle,1,0,,,,,,,,,,,,,,,,repeat,letter,lettRpt,j,Hi,,,,,,0.7196,1,,,,,,,,high,9,0,9,0,1,,,,,,,,,
293059,2022-12-05_09h12.32.221,vts_reward_expectancy_bt,2022.2.4,MacIntel,60.0024001,Chrome,1440,900,,,,,1,733,,,,,,,,,,,,,,,,,125,D,star,1,0,,,,,,,,,,,,,,,,repeat,letter,lettRpt,j,Hi,,,,,,0.7074,1,,,,,,,,high,10,0,10,0,1,,,,,,,,,
293059,2022-12-05_09h12.32.221,vts_reward_expectancy_bt,2022.2.4,MacIntel,60.0024001,Chrome,1440,900,,,,,1,734,,,,,,,,,,,,,,,,,132,W,triangle,1,0,,,,,,,,,,,,,,,,repeat,letter,lettRpt,k,Lo,,,,,,0.6557,1,,,,,,,,high,11,0,11,0,1,,,,,,,,,
293059,2022-12-05_09h12.32.221,vts_reward_expectancy_bt,2022.2.4,MacIntel,60.0024001,Chrome,1440,900,,,,,10,744,,,,,,,,,,,,,,,,,160,Y,circle,1,0,,,,,,,,,,,,,,,,repeat,letter,lettRpt,k,Hi,,,,,,0.556,1,,,,,,,,high,12,0,12,0,1,,,,,,,,,
293059,2022-12-05_09h12.32.221,vts_reward_expectancy_bt,2022.2.4,MacIntel,60.0024001,Chrome,1440,900,,,,,1,745,,,,,,,,,,,,,,,,,167,U,star,1,0,,,,,,,,,,,,,,,,repeat,letter,lettRpt,k,Hi,,,,,,0.69,1,,,,,,,,high,13,0,13,0,1,,,,,,,,,
293059,2022-12-05_09h12.32.221,vts_reward_expectancy_bt,2022.2.4,MacIntel,60.0024001,Chrome,1440,900,,,,,1,746,,,,,,,,,,,,,,,,,146,S,hexagon,1,0,,,,,,,,,,,,,,,,repeat,letter,lettRpt,k,Lo,,,,,,1.4737,1,,,,,,,,high,14,0,14,0,1,,,,,,,,,
293059,2022-12-05_09h12.32.221,vts_reward_expectancy_bt,2022.2.4,MacIntel,60.0024001,Chrome,1440,900,,,,,1,747,,,,,,,,,,,,,,,,,181,F,triangle,1,0,,,,,,,,,,,,,,,,repeat,letter,lettRpt,j,Lo,,,,,,0.9106,1,,,,,,,,high,15,0,15,0,1,,,,,,,,,
293059,2022-12-05_09h12.32.221,vts_reward_expectancy_bt,2022.2.4,MacIntel,60.0024001,Chrome,1440,900,,,,,1,748,,,,,,,,,,,,,,,,,167,H,hexagon,1,0,,,,,,,,,,,,,,,,repeat,letter,lettRpt,j,Lo,,,,,,2.1969,1,,,,,,,,high,16,0,16,0,1,,,,,,,,,
293059,2022-12-05_09h12.32.221,vts_reward_expectancy_bt,2022.2.4,MacIntel,60.0024001,Chrome,1440,900,,,,,10,758,,,,,,,,,,,,,,,,,181,D,circle,1,0,,,,,,,,,,,,,,,,repeat,letter,lettRpt,j,Hi,,,,,,0.858,1,,,,,,,,high,17,0,17,0,1,,,,,,,,,
293059,2022-12-05_09h12.32.221,vts_reward_expectancy_bt,2022.2.4,MacIntel,60.0024001,Chrome,1440,900,,,,,1,759,,,,,,,,,,,,,,,,,132,S,triangle,1,0,,,,,,,,,,,,,,,,repeat,letter,lettRpt,k,Lo,,,,,,0.8272,1,,,,,,,,high,18,0,18,0,1,,,,,,,,,
293059,2022-12-05_09h12.32.221,vts_reward_expectancy_bt,2022.2.4,MacIntel,60.0024001,Chrome,1440,900,,,,,10,769,,,,,,,,,,,,,,,,,174,U,star,1,0,,,,,,,,,,,,,,,,repeat,letter,lettRpt,k,Hi,,,,,,1.0243,1,,,,,,,,high,19,0,19,0,1,,,,,,,,,
293059,2022-12-05_09h12.32.221,vts_reward_expectancy_bt,2022.2.4,MacIntel,60.0024001,Chrome,1440,900,,,,,1,770,,,,,,,,,,,,,,,,,160,W,triangle,1,0,,,,,,,,,,,,,,,,repeat,letter,lettRpt,k,Lo,,,,,,2.3533,1,,,,,,,,high,20,0,20,0,1,,,,,,,,,
293059,2022-12-05_09h12.32.221,vts_reward_expectancy_bt,2022.2.4,MacIntel,60.0024001,Chrome,1440,900,,,,,10,780,,,,,,,,,,,,,,,,,139,Y,star,1,0,,,,,,,,,,,,,,,,repeat,letter,lettRpt,k,Hi,,,,,,0.606,1,,,,,,,,high,21,0,21,0,1,,,,,,,,,
293059,2022-12-05_09h12.32.221,vts_reward_expectancy_bt,2022.2.4,MacIntel,60.0024001,Chrome,1440,900,,,,,10,790,,,,,,,,,,,,,,,,,125,B,circle,1,0,,,,,,,,,,,,,,,,repeat,letter,lettRpt,j,Hi,,,,,,0.7713,1,,,,,,,,high,22,0,22,0,1,,,,,,,,,
293059,2022-12-05_09h12.32.221,vts_reward_expectancy_bt,2022.2.4,MacIntel,60.0024001,Chrome,1440,900,,,,,10,800,,,,,,,,,,,,,,,,,146,F,hexagon,1,0,,,,,,,,,,,,,,,,repeat,letter,lettRpt,j,Lo,,,,,,0.7443,1,,,,,,,,high,23,0,23,0,1,,,,,,,,,
293059,2022-12-05_09h12.32.221,vts_reward_expectancy_bt,2022.2.4,MacIntel,60.0024001,Chrome,1440,900,,,,,10,810,,,,,,,,,,,,,,,,,160,F,hexagon,1,0,,,,,,,,,,,,,,,,repeat,letter,lettRpt,j,Lo,,,,,,0.5099,1,,,,,,,,high,24,0,24,0,1,,,,,,,,,
293059,2022-12-05_09h12.32.221,vts_reward_expectancy_bt,2022.2.4,MacIntel,60.0024001,Chrome,1440,900,,,,,0,810,,,,,,,,,,,,,,,,,132,D,triangle,-1,0,,,,,,,,,,,,,,,,switch,no_choice,NA,,Lo,,,,,,,1,,,,,,,,high,25,0,25,0,1,,,,,,,,,
293059,2022-12-05_09h12.32.221,vts_reward_expectancy_bt,2022.2.4,MacIntel,60.0024001,Chrome,1440,900,,,,,10,820,,,,,,,,,,,,,,,,,125,B,star,1,0,,,,,,,,,,,,,,,,switch,letter,lettSwt,j,Hi,,,,,,1.4053,1,,,,,,,,high,26,0,26,0,1,,,,,,,,,
293059,2022-12-05_09h12.32.221,vts_reward_expectancy_bt,2022.2.4,MacIntel,60.0024001,Chrome,1440,900,,,,,10,830,,,,,,,,,,,,,,,,,139,S,circle,1,0,,,,,,,,,,,,,,,,repeat,letter,lettRpt,k,Hi,,,,,,1.0144,1,,,,,,,,high,27,0,27,0,1,,,,,,,,,
293059,2022-12-05_09h12.32.221,vts_reward_expectancy_bt,2022.2.4,MacIntel,60.0024001,Chrome,1440,900,,,,,10,840,,,,,,,,,,,,,,,,,167,Y,circle,1,0,,,,,,,,,,,,,,,,repeat,letter,lettRpt,k,Hi,,,,,,1.5713,1,,,,,,,,high,28,0,28,0,1,,,,,,,,,
293059,2022-12-05_09h12.32.221,vts_reward_expectancy_bt,2022.2.4,MacIntel,60.0024001,Chrome,1440,900,,,,,1,841,,,,,,,,,,,,,,,,,146,U,triangle,1,0,,,,,,,,,,,,,,,,repeat,letter,lettRpt,k,Lo,,,,,,1.9126,1,,,,,,,,high,29,0,29,0,1,,,,,,,,,
293059,2022-12-05_09h12.32.221,vts_reward_expectancy_bt,2022.2.4,MacIntel,60.0024001,Chrome,1440,900,,,,,10,851,,,,,,,,,,,,,,,,,174,W,star,1,0,,,,,,,,,,,,,,,,repeat,letter,lettRpt,k,Hi,,,,,,1.2056,1,,,,,,,,high,30,0,30,0,1,,,,,,,,,
293059,2022-12-05_09h12.32.221,vts_reward_expectancy_bt,2022.2.4,MacIntel,60.0024001,Chrome,1440,900,,,,,10,861,,,,,,,,,,,,,,,,,181,H,hexagon,1,0,,,,,,,,,,,,,,,,repeat,letter,lettRpt,j,Lo,,,,,,0.8054,1,,,,,,,,high,31,0,31,0,1,,,,,,,,,
293059,2022-12-05_09h12.32.221,vts_reward_expectancy_bt,2022.2.4,MacIntel,60.0024001,Chrome,1440,900,,,,,1,862,,,,,,,,,,,,,,,,,132,D,star,1,0,,,,,,,,,,,,,,,,switch,number,numSwt,d,Hi,,,,,,2.5073,2,,,,,,space,1.1547,high,0,0,0,0,1,,,,,,,,,
293059,2022-12-05_09h12.32.221,vts_reward_expectancy_bt,2022.2.4,MacIntel,60.0024001,Chrome,1440,900,,,,,10,872,,,,,,,,,,,,,,,,,146,S,hexagon,1,0,,,,,,,,,,,,,,,,repeat,number,numRpt,d,Lo,,,,,,1.2786,2,,,,,,,,high,1,0,1,0,1,,,,,,,,,
293059,2022-12-05_09h12.32.221,vts_reward_expectancy_bt,2022.2.4,MacIntel,60.0024001,Chrome,1440,900,,,,,10,882,,,,,,,,,,,,,,,,,181,B,circle,1,0,,,,,,,,,,,,,,,,repeat,number,numRpt,f,Hi,,,,,,0.9041,2,,,,,,,,high,2,0,2,0,1,,,,,,,,,
293059,2022-12-05_09h12.32.221,vts_reward_expectancy_bt,2022.2.4,MacIntel,60.0024001,Chrome,1440,900,,,,,1,883,,,,,,,,,,,,,,,,,160,W,triangle,1,0,,,,,,,,,,,,,,,,repeat,number,numRpt,f,Lo,,,,,,1.4105,2,,,,,,,,high,3,0,3,0,1,,,,,,,,,
293059,2022-12-05_09h12.32.221,vts_reward_expectancy_bt,2022.2.4,MacIntel,60.0024001,Chrome,1440,900,,,,,10,893,,,,,,,,,,,,,,,,,125,H,star,1,0,,,,,,,,,,,,,,,,repeat,number,numRpt,d,Hi,,,,,,1.0039,2,,,,,,,,high,4,0,4,0,1,,,,,,,,,
293059,2022-12-05_09h12.32.221,vts_reward_expectancy_bt,2022.2.4,MacIntel,60.0024001,Chrome,1440,900,,,,,1,894,,,,,,,,,,,,,,,,,167,U,hexagon,1,0,,,,,,,,,,,,,,,,repeat,number,numRpt,f,Lo,,,,,,2.2891,2,,,,,,,,high,5,0,5,0,1,,,,,,,,,
293059,2022-12-05_09h12.32.221,vts_reward_expectancy_bt,2022.2.4,MacIntel,60.0024001,Chrome,1440,900,,,,,1,895,,,,,,,,,,,,,,,,,174,F,circle,1,0,,,,,,,,,,,,,,,,repeat,number,numRpt,f,Hi,,,,,,2.7049,2,,,,,,,,high,6,0,6,0,1,,,,,,,,,
293059,2022-12-05_09h12.32.221,vts_reward_expectancy_bt,2022.2.4,MacIntel,60.0024001,Chrome,1440,900,,,,,1,896,,,,,,,,,,,,,,,,,139,Y,triangle,1,0,,,,,,,,,,,,,,,,repeat,number,numRpt,d,Lo,,,,,,1.4194,2,,,,,,,,high,7,0,7,0,1,,,,,,,,,
293059,2022-12-05_09h12.32.221,vts_reward_expectancy_bt,2022.2.4,MacIntel,60.0024001,Chrome,1440,900,,,,,1,897,,,,,,,,,,,,,,,,,132,D,triangle,1,0,,,,,,,,,,,,,,,,repeat,number,numRpt,d,Lo,,,,,,0.956,2,,,,,,,,high,8,0,8,0,1,,,,,,,,,
293059,2022-12-05_09h12.32.221,vts_reward_expectancy_bt,2022.2.4,MacIntel,60.0024001,Chrome,1440,900,,,,,1,898,,,,,,,,,,,,,,,,,146,S,circle,1,0,,,,,,,,,,,,,,,,repeat,number,numRpt,d,Hi,,,,,,1.5429,2,,,,,,,,high,9,0,9,0,1,,,,,,,,,
293059,2022-12-05_09h12.32.221,vts_reward_expectancy_bt,2022.2.4,MacIntel,60.0024001,Chrome,1440,900,,,,,1,899,,,,,,,,,,,,,,,,,181,B,hexagon,1,0,,,,,,,,,,,,,,,,repeat,number,numRpt,f,Lo,,,,,,1.6716,2,,,,,,,,high,10,0,10,0,1,,,,,,,,,
293059,2022-12-05_09h12.32.221,vts_reward_expectancy_bt,2022.2.4,MacIntel,60.0024001,Chrome,1440,900,,,,,10,909,,,,,,,,,,,,,,,,,160,W,star,1,0,,,,,,,,,,,,,,,,repeat,number,numRpt,f,Hi,,,,,,2.2464,2,,,,,,,,high,11,0,11,0,1,,,,,,,,,
293059,2022-12-05_09h12.32.221,vts_reward_expectancy_bt,2022.2.4,MacIntel,60.0024001,Chrome,1440,900,,,,,10,919,,,,,,,,,,,,,,,,,125,H,triangle,1,0,,,,,,,,,,,,,,,,repeat,number,numRpt,d,Lo,,,,,,1.1254,2,,,,,,,,high,12,0,12,0,1,,,,,,,,,
293059,2022-12-05_09h12.32.221,vts_reward_expectancy_bt,2022.2.4,MacIntel,60.0024001,Chrome,1440,900,,,,,10,929,,,,,,,,,,,,,,,,,167,U,hexagon,1,0,,,,,,,,,,,,,,,,repeat,number,numRpt,f,Lo,,,,,,1.393,2,,,,,,,,high,13,0,13,0,1,,,,,,,,,
293059,2022-12-05_09h12.32.221,vts_reward_expectancy_bt,2022.2.4,MacIntel,60.0024001,Chrome,1440,900,,,,,10,939,,,,,,,,,,,,,,,,,174,F,star,1,0,,,,,,,,,,,,,,,,repeat,number,numRpt,f,Hi,,,,,,0.9028,2,,,,,,,,high,14,0,14,0,1,,,,,,,,,
293059,2022-12-05_09h12.32.221,vts_reward_expectancy_bt,2022.2.4,MacIntel,60.0024001,Chrome,1440,900,,,,,10,949,,,,,,,,,,,,,,,,,139,Y,circle,1,0,,,,,,,,,,,,,,,,repeat,number,numRpt,d,Hi,,,,,,1.1265,2,,,,,,,,high,15,0,15,0,1,,,,,,,,,
293059,2022-12-05_09h12.32.221,vts_reward_expectancy_bt,2022.2.4,MacIntel,60.0024001,Chrome,1440,900,,,,,10,959,,,,,,,,,,,,,,,,,160,W,star,1,0,,,,,,,,,,,,,,,,repeat,number,numRpt,f,Hi,,,,,,1.1054,2,,,,,,,,high,16,0,16,0,1,,,,,,,,,
293059,2022-12-05_09h12.32.221,vts_reward_expectancy_bt,2022.2.4,MacIntel,60.0024001,Chrome,1440,900,,,,,0,959,,,,,,,,,,,,,,,,,181,Y,triangle,-1,0,,,,,,,,,,,,,,,,switch,no_choice,NA,,Hi,,,,,,,2,,,,,,,,high,17,0,17,0,1,,,,,,,,,
293059,2022-12-05_09h12.32.221,vts_reward_expectancy_bt,2022.2.4,MacIntel,60.0024001,Chrome,1440,900,,,,,10,969,,,,,,,,,,,,,,,,,174,H,circle,1,0,,,,,,,,,,,,,,,,switch,number,numSwt,f,Hi,,,,,,0.7038,2,,,,,,,,high,18,0,18,0,1,,,,,,,,,
293059,2022-12-05_09h12.32.221,vts_reward_expectancy_bt,2022.2.4,MacIntel,60.0024001,Chrome,1440,900,,,,,1,970,,,,,,,,,,,,,,,,,146,U,hexagon,1,0,,,,,,,,,,,,,,,,repeat,number,numRpt,d,Lo,,,,,,0.8946,2,,,,,,,,high,19,0,19,0,1,,,,,,,,,
293059,2022-12-05_09h12.32.221,vts_reward_expectancy_bt,2022.2.4,MacIntel,60.0024001,Chrome,1440,900,,,,,1,971,,,,,,,,,,,,,,,,,125,F,triangle,1,0,,,,,,,,,,,,,,,,repeat,number,numRpt,d,Lo,,,,,,1.0227,2,,,,,,,,high,20,0,20,0,1,,,,,,,,,
293059,2022-12-05_09h12.32.221,vts_reward_expectancy_bt,2022.2.4,MacIntel,60.0024001,Chrome,1440,900,,,,,1,972,,,,,,,,,,,,,,,,,139,B,hexagon,1,0,,,,,,,,,,,,,,,,repeat,number,numRpt,d,Lo,,,,,,1.2814,2,,,,,,,,high,21,0,21,0,1,,,,,,,,,
293059,2022-12-05_09h12.32.221,vts_reward_expectancy_bt,2022.2.4,MacIntel,60.0024001,Chrome,1440,900,,,,,1,973,,,,,,,,,,,,,,,,,167,S,star,1,0,,,,,,,,,,,,,,,,repeat,number,numRpt,f,Hi,,,,,,0.8709,2,,,,,,,,high,22,0,22,0,1,,,,,,,,,
293059,2022-12-05_09h12.32.221,vts_reward_expectancy_bt,2022.2.4,MacIntel,60.0024001,Chrome,1440,900,,,,,1,974,,,,,,,,,,,,,,,,,132,D,circle,1,0,,,,,,,,,,,,,,,,repeat,number,numRpt,d,Hi,,,,,,1.4538,2,,,,,,,,high,23,0,23,0,1,,,,,,,,,
293059,2022-12-05_09h12.32.221,vts_reward_expectancy_bt,2022.2.4,MacIntel,60.0024001,Chrome,1440,900,,,,,10,984,,,,,,,,,,,,,,,,,139,B,triangle,1,0,,,,,,,,,,,,,,,,repeat,number,numRpt,d,Lo,,,,,,1.3098,2,,,,,,,,high,24,0,24,0,1,,,,,,,,,
293059,2022-12-05_09h12.32.221,vts_reward_expectancy_bt,2022.2.4,MacIntel,60.0024001,Chrome,1440,900,,,,,10,994,,,,,,,,,,,,,,,,,160,Y,star,1,0,,,,,,,,,,,,,,,,repeat,number,numRpt,f,Hi,,,,,,0.9755,2,,,,,,,,high,25,0,25,0,1,,,,,,,,,
293059,2022-12-05_09h12.32.221,vts_reward_expectancy_bt,2022.2.4,MacIntel,60.0024001,Chrome,1440,900,,,,,10,1004,,,,,,,,,,,,,,,,,167,H,circle,1,0,,,,,,,,,,,,,,,,repeat,number,numRpt,f,Hi,,,,,,1.6044,2,,,,,,,,high,26,0,26,0,1,,,,,,,,,
293059,2022-12-05_09h12.32.221,vts_reward_expectancy_bt,2022.2.4,MacIntel,60.0024001,Chrome,1440,900,,,,,1,1005,,,,,,,,,,,,,,,,,174,U,hexagon,1,0,,,,,,,,,,,,,,,,repeat,number,numRpt,f,Lo,,,,,,1.0966,2,,,,,,,,high,27,0,27,0,1,,,,,,,,,
293059,2022-12-05_09h12.32.221,vts_reward_expectancy_bt,2022.2.4,MacIntel,60.0024001,Chrome,1440,900,,,,,1,1006,,,,,,,,,,,,,,,,,125,S,hexagon,1,0,,,,,,,,,,,,,,,,repeat,number,numRpt,d,Lo,,,,,,0.7218,2,,,,,,,,high,28,0,28,0,1,,,,,,,,,
293059,2022-12-05_09h12.32.221,vts_reward_expectancy_bt,2022.2.4,MacIntel,60.0024001,Chrome,1440,900,,,,,10,1016,,,,,,,,,,,,,,,,,181,F,circle,1,0,,,,,,,,,,,,,,,,repeat,number,numRpt,f,Hi,,,,,,1.11,2,,,,,,,,high,29,0,29,0,1,,,,,,,,,
293059,2022-12-05_09h12.32.221,vts_reward_expectancy_bt,2022.2.4,MacIntel,60.0024001,Chrome,1440,900,,,,,1,1017,,,,,,,,,,,,,,,,,146,W,triangle,1,0,,,,,,,,,,,,,,,,repeat,number,numRpt,d,Lo,,,,,,1.0043,2,,,,,,,,high,30,0,30,0,1,,,,,,,,,
293059,2022-12-05_09h12.32.221,vts_reward_expectancy_bt,2022.2.4,MacIntel,60.0024001,Chrome,1440,900,,,,,10,1027,,,,,,,,,,,,,,,,,132,D,star,1,0,,,,,,,,,,,,,,,,repeat,number,numRpt,d,Hi,,,,,,0.8263,2,,,,,,,,high,31,0,31,0,1,,,,,,,,,
293059,2022-12-05_09h12.32.221,vts_reward_expectancy_bt,2022.2.4,MacIntel,60.0024001,Chrome,1440,900,,,,,10,1037,,,,,,,,,,,,,,,,,181,D,star,1,0,,,,,,,,,,,,,,,,repeat,number,numRpt,f,Hi,,,,,,0.5522,3,,,,,,space,7.0472,high,0,0,0,0,1,,,,,,,,,
293059,2022-12-05_09h12.32.221,vts_reward_expectancy_bt,2022.2.4,MacIntel,60.0024001,Chrome,1440,900,,,,,10,1047,,,,,,,,,,,,,,,,,139,W,circle,1,0,,,,,,,,,,,,,,,,repeat,number,numRpt,d,Hi,,,,,,0.6216,3,,,,,,,,high,1,0,1,0,1,,,,,,,,,
293059,2022-12-05_09h12.32.221,vts_reward_expectancy_bt,2022.2.4,MacIntel,60.0024001,Chrome,1440,900,,,,,1,1048,,,,,,,,,,,,,,,,,174,F,triangle,1,0,,,,,,,,,,,,,,,,repeat,number,numRpt,f,Lo,,,,,,0.5589,3,,,,,,,,high,2,0,2,0,1,,,,,,,,,
293059,2022-12-05_09h12.32.221,vts_reward_expectancy_bt,2022.2.4,MacIntel,60.0024001,Chrome,1440,900,,,,,1,1049,,,,,,,,,,,,,,,,,125,B,hexagon,1,0,,,,,,,,,,,,,,,,repeat,number,numRpt,d,Lo,,,,,,0.6869,3,,,,,,,,high,3,0,3,0,1,,,,,,,,,
293059,2022-12-05_09h12.32.221,vts_reward_expectancy_bt,2022.2.4,MacIntel,60.0024001,Chrome,1440,900,,,,,0,1049,,,,,,,,,,,,,,,,,146,U,star,0,0,,,,,,,,,,,,,,,,repeat,number,NA,f,Lo,,,,,,0.8961,3,,,,,,,,high,4,0,4,0,1,,,,,,,,,
293059,2022-12-05_09h12.32.221,vts_reward_expectancy_bt,2022.2.4,MacIntel,60.0024001,Chrome,1440,900,,,,,10,1059,,,,,,,,,,,,,,,,,167,H,circle,1,1,,,,,,,,,,,,,,,,repeat,number,numRpt,f,Hi,,,,,,0.6571,3,,,,,,,,high,5,0,5,0,1,,,,,,,,,
293059,2022-12-05_09h12.32.221,vts_reward_expectancy_bt,2022.2.4,MacIntel,60.0024001,Chrome,1440,900,,,,,10,1069,,,,,,,,,,,,,,,,,132,S,triangle,1,0,,,,,,,,,,,,,,,,repeat,number,numRpt,d,Lo,,,,,,0.5415,3,,,,,,,,high,6,0,6,0,1,,,,,,,,,
293059,2022-12-05_09h12.32.221,vts_reward_expectancy_bt,2022.2.4,MacIntel,60.0024001,Chrome,1440,900,,,,,10,1079,,,,,,,,,,,,,,,,,160,Y,hexagon,1,0,,,,,,,,,,,,,,,,repeat,number,numRpt,f,Lo,,,,,,2.4753,3,,,,,,,,high,7,0,7,0,1,,,,,,,,,
293059,2022-12-05_09h12.32.221,vts_reward_expectancy_bt,2022.2.4,MacIntel,60.0024001,Chrome,1440,900,,,,,10,1089,,,,,,,,,,,,,,,,,181,D,circle,1,0,,,,,,,,,,,,,,,,repeat,number,numRpt,f,Hi,,,,,,0.5924,3,,,,,,,,high,8,0,8,0,1,,,,,,,,,
293059,2022-12-05_09h12.32.221,vts_reward_expectancy_bt,2022.2.4,MacIntel,60.0024001,Chrome,1440,900,,,,,0,1089,,,,,,,,,,,,,,,,,139,W,star,1,0,,,,,,,,,,,,,,,,repeat,number,numRpt,d,Hi,,,,,,2.6224,3,,,,,,,,high,9,0,9,0,1,,,,,,,,,
293059,2022-12-05_09h12.32.221,vts_reward_expectancy_bt,2022.2.4,MacIntel,60.0024001,Chrome,1440,900,,,,,1,1090,,,,,,,,,,,,,,,,,174,F,triangle,1,0,,,,,,,,,,,,,,,,repeat,number,numRpt,f,Lo,,,,,,0.7399,3,,,,,,,,high,10,0,10,0,1,,,,,,,,,
293059,2022-12-05_09h12.32.221,vts_reward_expectancy_bt,2022.2.4,MacIntel,60.0024001,Chrome,1440,900,,,,,1,1091,,,,,,,,,,,,,,,,,125,B,hexagon,1,0,,,,,,,,,,,,,,,,repeat,number,numRpt,d,Lo,,,,,,0.6865,3,,,,,,,,high,11,0,11,0,1,,,,,,,,,
293059,2022-12-05_09h12.32.221,vts_reward_expectancy_bt,2022.2.4,MacIntel,60.0024001,Chrome,1440,900,,,,,10,1101,,,,,,,,,,,,,,,,,146,U,triangle,1,0,,,,,,,,,,,,,,,,repeat,number,numRpt,d,Lo,,,,,,0.7883,3,,,,,,,,high,12,0,12,0,1,,,,,,,,,
293059,2022-12-05_09h12.32.221,vts_reward_expectancy_bt,2022.2.4,MacIntel,60.0024001,Chrome,1440,900,,,,,0,1101,,,,,,,,,,,,,,,,,167,H,hexagon,0,0,,,,,,,,,,,,,,,,repeat,number,NA,d,Lo,,,,,,0.8249,3,,,,,,,,high,13,0,13,0,1,,,,,,,,,
293059,2022-12-05_09h12.32.221,vts_reward_expectancy_bt,2022.2.4,MacIntel,60.0024001,Chrome,1440,900,,,,,1,1102,,,,,,,,,,,,,,,,,132,S,star,1,1,,,,,,,,,,,,,,,,repeat,number,numRpt,d,Hi,,,,,,0.657,3,,,,,,,,high,14,0,14,0,1,,,,,,,,,
293059,2022-12-05_09h12.32.221,vts_reward_expectancy_bt,2022.2.4,MacIntel,60.0024001,Chrome,1440,900,,,,,0,1102,,,,,,,,,,,,,,,,,160,Y,circle,1,0,,,,,,,,,,,,,,,,repeat,number,numRpt,f,Hi,,,,,,1.0591,3,,,,,,,,high,15,0,15,0,1,,,,,,,,,
293059,2022-12-05_09h12.32.221,vts_reward_expectancy_bt,2022.2.4,MacIntel,60.0024001,Chrome,1440,900,,,,,10,1112,,,,,,,,,,,,,,,,,181,F,hexagon,1,0,,,,,,,,,,,,,,,,repeat,number,numRpt,f,Lo,,,,,,1.09,3,,,,,,,,high,16,0,16,0,1,,,,,,,,,
293059,2022-12-05_09h12.32.221,vts_reward_expectancy_bt,2022.2.4,MacIntel,60.0024001,Chrome,1440,900,,,,,1,1113,,,,,,,,,,,,,,,,,174,D,triangle,1,0,,,,,,,,,,,,,,,,repeat,number,numRpt,f,Lo,,,,,,0.8353,3,,,,,,,,high,17,0,17,0,1,,,,,,,,,
293059,2022-12-05_09h12.32.221,vts_reward_expectancy_bt,2022.2.4,MacIntel,60.0024001,Chrome,1440,900,,,,,0,1113,,,,,,,,,,,,,,,,,167,H,circle,1,0,,,,,,,,,,,,,,,,repeat,number,numRpt,f,Hi,,,,,,1.1019,3,,,,,,,,high,18,0,18,0,1,,,,,,,,,
293059,2022-12-05_09h12.32.221,vts_reward_expectancy_bt,2022.2.4,MacIntel,60.0024001,Chrome,1440,900,,,,,0,1113,,,,,,,,,,,,,,,,,146,Y,star,1,0,,,,,,,,,,,,,,,,repeat,number,numRpt,d,Hi,,,,,,1.1843,3,,,,,,,,high,19,0,19,0,1,,,,,,,,,
293059,2022-12-05_09h12.32.221,vts_reward_expectancy_bt,2022.2.4,MacIntel,60.0024001,Chrome,1440,900,,,,,10,1123,,,,,,,,,,,,,,,,,132,B,circle,1,0,,,,,,,,,,,,,,,,repeat,number,numRpt,d,Hi,,,,,,0.985,3,,,,,,,,high,20,0,20,0,1,,,,,,,,,
293059,2022-12-05_09h12.32.221,vts_reward_expectancy_bt,2022.2.4,MacIntel,60.0024001,Chrome,1440,900,,,,,1,1124,,,,,,,,,,,,,,,,,125,W,hexagon,1,0,,,,,,,,,,,,,,,,repeat,number,numRpt,d,Lo,,,,,,0.7233,3,,,,,,,,high,21,0,21,0,1,,,,,,,,,
293059,2022-12-05_09h12.32.221,vts_reward_expectancy_bt,2022.2.4,MacIntel,60.0024001,Chrome,1440,900,,,,,1,1125,,,,,,,,,,,,,,,,,139,S,triangle,1,0,,,,,,,,,,,,,,,,repeat,number,numRpt,d,Lo,,,,,,0.8741,3,,,,,,,,high,22,0,22,0,1,,,,,,,,,
293059,2022-12-05_09h12.32.221,vts_reward_expectancy_bt,2022.2.4,MacIntel,60.0024001,Chrome,1440,900,,,,,1,1126,,,,,,,,,,,,,,,,,160,U,star,1,0,,,,,,,,,,,,,,,,repeat,number,numRpt,f,Hi,,,,,,0.5356,3,,,,,,,,high,23,0,23,0,1,,,,,,,,,
293059,2022-12-05_09h12.32.221,vts_reward_expectancy_bt,2022.2.4,MacIntel,60.0024001,Chrome,1440,900,,,,,1,1127,,,,,,,,,,,,,,,,,174,U,hexagon,1,0,,,,,,,,,,,,,,,,repeat,number,numRpt,f,Lo,,,,,,1.0543,3,,,,,,,,high,24,0,24,0,1,,,,,,,,,
293059,2022-12-05_09h12.32.221,vts_reward_expectancy_bt,2022.2.4,MacIntel,60.0024001,Chrome,1440,900,,,,,10,1137,,,,,,,,,,,,,,,,,125,H,star,1,0,,,,,,,,,,,,,,,,repeat,number,numRpt,d,Hi,,,,,,0.7703,3,,,,,,,,high,25,0,25,0,1,,,,,,,,,
293059,2022-12-05_09h12.32.221,vts_reward_expectancy_bt,2022.2.4,MacIntel,60.0024001,Chrome,1440,900,,,,,0,1137,,,,,,,,,,,,,,,,,181,S,circle,1,0,,,,,,,,,,,,,,,,repeat,number,numRpt,f,Hi,,,,,,1.3125,3,,,,,,,,high,26,0,26,0,1,,,,,,,,,
293059,2022-12-05_09h12.32.221,vts_reward_expectancy_bt,2022.2.4,MacIntel,60.0024001,Chrome,1440,900,,,,,10,1147,,,,,,,,,,,,,,,,,146,F,triangle,1,0,,,,,,,,,,,,,,,,repeat,number,numRpt,d,Lo,,,,,,1.0602,3,,,,,,,,high,27,0,27,0,1,,,,,,,,,
293059,2022-12-05_09h12.32.221,vts_reward_expectancy_bt,2022.2.4,MacIntel,60.0024001,Chrome,1440,900,,,,,10,1157,,,,,,,,,,,,,,,,,139,B,triangle,1,0,,,,,,,,,,,,,,,,repeat,number,numRpt,d,Lo,,,,,,0.7902,3,,,,,,,,high,28,0,28,0,1,,,,,,,,,
293059,2022-12-05_09h12.32.221,vts_reward_expectancy_bt,2022.2.4,MacIntel,60.0024001,Chrome,1440,900,,,,,0,1157,,,,,,,,,,,,,,,,,167,Y,circle,1,0,,,,,,,,,,,,,,,,repeat,number,numRpt,f,Hi,,,,,,1.277,3,,,,,,,,high,29,0,29,0,1,,,,,,,,,
293059,2022-12-05_09h12.32.221,vts_reward_expectancy_bt,2022.2.4,MacIntel,60.0024001,Chrome,1440,900,,,,,10,1167,,,,,,,,,,,,,,,,,160,W,star,1,0,,,,,,,,,,,,,,,,repeat,number,numRpt,f,Hi,,,,,,0.7565,3,,,,,,,,high,30,0,30,0,1,,,,,,,,,
293059,2022-12-05_09h12.32.221,vts_reward_expectancy_bt,2022.2.4,MacIntel,60.0024001,Chrome,1440,900,,,,,1,1168,,,,,,,,,,,,,,,,,132,D,hexagon,1,0,,,,,,,,,,,,,,,,repeat,number,numRpt,d,Lo,,,,,,2.5845,3,,,,,,,,high,31,0,31,0,1,,,,,,,,,
293059,2022-12-05_09h12.32.221,vts_reward_expectancy_bt,2022.2.4,MacIntel,60.0024001,Chrome,1440,900,,,,,0,1168,,,,,,,,,,,,,,,,,139,Y,circle,0,0,,,,,,,,,,,,,,,,switch,letter,NA,j,Lo,,,,,,2.8713,4,,,,,,space,1.3347,high,0,0,0,0,1,,,,,,,,,
293059,2022-12-05_09h12.32.221,vts_reward_expectancy_bt,2022.2.4,MacIntel,60.0024001,Chrome,1440,900,,,,,1,1169,,,,,,,,,,,,,,,,,132,D,hexagon,1,1,,,,,,,,,,,,,,,,repeat,letter,lettRpt,j,Lo,,,,,,1.3924,4,,,,,,,,high,1,0,1,0,1,,,,,,,,,
293059,2022-12-05_09h12.32.221,vts_reward_expectancy_bt,2022.2.4,MacIntel,60.0024001,Chrome,1440,900,,,,,10,1179,,,,,,,,,,,,,,,,,181,H,triangle,1,0,,,,,,,,,,,,,,,,repeat,letter,lettRpt,j,Lo,,,,,,0.7074,4,,,,,,,,high,2,0,2,0,1,,,,,,,,,
