participant,date,expName,psychopyVersion,OS,frameRate,browser,xResolution,yResolution,key_resp.keys,key_resp.rt,training_resp.keys,training_resp.rt,points_trial,points_cumul,trainBlock,training.thisRepN,training.thisTrialN,training.thisN,training.thisIndex,training.ran,LTriangleOpac,LCircleOpac,LHexagonOpac,LStarOpac,RTriangleOpac,RCircleOpac,RHexagonOpac,RStarOpac,LShape_ID,RShape_ID,curr_topStim,curr_bottStim,curr_shape,acc,E1,target_resp_prac1.keys,pracBlock,task1_prac_trials.thisRepN,task1_prac_trials.thisTrialN,task1_prac_trials.thisN,task1_prac_trials.thisIndex,task1_prac_trials.ran,target_resp_prac1.rt,target_resp_prac2.keys,task2_praac_trials.thisRepN,task2_praac_trials.thisTrialN,task2_praac_trials.thisN,task2_praac_trials.thisIndex,task2_praac_trials.ran,target_resp_prac2.rt,alt,task,condition,target_resp.keys,target_resp.rt,rewCond,vts_practice_trials.thisRepN,vts_practice_trials.thisTrialN,vts_practice_trials.thisN,vts_practice_trials.thisIndex,vts_practice_trials.ran,blockNum,trials_norew.thisRepN,trials_norew.thisTrialN,trials_norew.thisN,trials_norew.thisIndex,trials_norew.ran,key_resp_2.keys,key_resp_2.rt,rewExpectancy,trials_rew.thisRepN,trials_rew.thisTrialN,trials_rew.thisN,trials_rew.thisIndex,trials_rew.ran,Q1,Q2,Q2_text,Q3,Q4,Q5_text,Q5,xRes,yRes
293005,2022-11-29_23h06.47.609,vts_reward_expectancy_bt,2022.2.4,MacIntel,58.82352941,Safari,1440,900,,,,,,,,,,,,,,,,,,,,,,,,,,,,,,,,,,,,,,,,,,,,,,,,,,,,,,,,,,,,,,,,,,,,,,,,,,,,
293005,2022-11-29_23h06.47.609,vts_reward_expectancy_bt,2022.2.4,MacIntel,58.82352941,Safari,1440,900,space,12.532,,,,,,,,,,,,,,,,,,,,,,,,,,,,,,,,,,,,,,,,,,,,,,,,,,,,,,,,,,,,,,,,,,,,,,,,,,
293005,2022-11-29_23h06.47.609,vts_reward_expectancy_bt,2022.2.4,MacIntel,58.82352941,Safari,1440,900,,,,,,,,,,,,,,,,,,,,,,,,,,,,,,,,,,,,,,,,,,,,,,,,,,,,,,,,,,,,,,,,,,,,,,,,,,,,
293005,2022-11-29_23h06.47.609,vts_reward_expectancy_bt,2022.2.4,MacIntel,58.82352941,Safari,1440,900,,,a,12,1,1,0,0,0,0,11,1,0,0,0,1,0,0,1,0,star,hexagon,,,,,,,,,,,,,,,,,,,,,,,,,,,,,,,,,,,,,,,,,,,,,,,,,,,,,,
293005,2022-11-29_23h06.47.609,vts_reward_expectancy_bt,2022.2.4,MacIntel,58.82352941,Safari,1440,900,,,l,3.032,10,11,0,0,1,1,1,1,1,0,0,0,0,0,1,0,triangle,hexagon,,,,,,,,,,,,,,,,,,,,,,,,,,,,,,,,,,,,,,,,,,,,,,,,,,,,,,
293005,2022-11-29_23h06.47.609,vts_reward_expectancy_bt,2022.2.4,MacIntel,58.82352941,Safari,1440,900,,,l,1.698,1,12,0,0,2,2,6,1,0,0,1,0,1,0,0,0,hexagon,triangle,,,,,,,,,,,,,,,,,,,,,,,,,,,,,,,,,,,,,,,,,,,,,,,,,,,,,,
293005,2022-11-29_23h06.47.609,vts_reward_expectancy_bt,2022.2.4,MacIntel,58.82352941,Safari,1440,900,,,a,1.381,10,22,0,0,3,3,8,1,0,0,1,0,0,0,0,1,hexagon,star,,,,,,,,,,,,,,,,,,,,,,,,,,,,,,,,,,,,,,,,,,,,,,,,,,,,,,
293005,2022-11-29_23h06.47.609,vts_reward_expectancy_bt,2022.2.4,MacIntel,58.82352941,Safari,1440,900,,,l,2.512,1,23,0,0,4,4,3,1,0,1,0,0,1,0,0,0,circle,triangle,,,,,,,,,,,,,,,,,,,,,,,,,,,,,,,,,,,,,,,,,,,,,,,,,,,,,,
293005,2022-11-29_23h06.47.609,vts_reward_expectancy_bt,2022.2.4,MacIntel,58.82352941,Safari,1440,900,,,a,0.848,1,24,0,0,5,5,7,1,0,0,1,0,0,1,0,0,hexagon,circle,,,,,,,,,,,,,,,,,,,,,,,,,,,,,,,,,,,,,,,,,,,,,,,,,,,,,,
293005,2022-11-29_23h06.47.609,vts_reward_expectancy_bt,2022.2.4,MacIntel,58.82352941,Safari,1440,900,,,l,1.137,1,25,0,0,6,6,0,1,1,0,0,0,0,1,0,0,triangle,circle,,,,,,,,,,,,,,,,,,,,,,,,,,,,,,,,,,,,,,,,,,,,,,,,,,,,,,
293005,2022-11-29_23h06.47.609,vts_reward_expectancy_bt,2022.2.4,MacIntel,58.82352941,Safari,1440,900,,,a,1.132,10,35,0,0,7,7,9,1,0,0,0,1,1,0,0,0,star,triangle,,,,,,,,,,,,,,,,,,,,,,,,,,,,,,,,,,,,,,,,,,,,,,,,,,,,,,
293005,2022-11-29_23h06.47.609,vts_reward_expectancy_bt,2022.2.4,MacIntel,58.82352941,Safari,1440,900,,,l,1.832,10,45,0,0,8,8,2,1,1,0,0,0,0,0,0,1,triangle,star,,,,,,,,,,,,,,,,,,,,,,,,,,,,,,,,,,,,,,,,,,,,,,,,,,,,,,
293005,2022-11-29_23h06.47.609,vts_reward_expectancy_bt,2022.2.4,MacIntel,58.82352941,Safari,1440,900,,,l,1.531,1,46,0,0,9,9,10,1,0,0,0,1,0,1,0,0,star ,circle,,,,,,,,,,,,,,,,,,,,,,,,,,,,,,,,,,,,,,,,,,,,,,,,,,,,,,
293005,2022-11-29_23h06.47.609,vts_reward_expectancy_bt,2022.2.4,MacIntel,58.82352941,Safari,1440,900,,,a,0.847,1,47,0,0,10,10,4,1,0,1,0,0,0,0,1,0,circle,hexagon,,,,,,,,,,,,,,,,,,,,,,,,,,,,,,,,,,,,,,,,,,,,,,,,,,,,,,
293005,2022-11-29_23h06.47.609,vts_reward_expectancy_bt,2022.2.4,MacIntel,58.82352941,Safari,1440,900,,,l,0.782,10,57,0,0,11,11,5,1,0,1,0,0,0,0,0,1,circle,star,,,,,,,,,,,,,,,,,,,,,,,,,,,,,,,,,,,,,,,,,,,,,,,,,,,,,,
293005,2022-11-29_23h06.47.609,vts_reward_expectancy_bt,2022.2.4,MacIntel,58.82352941,Safari,1440,900,,,l,0.584,10,67,0,1,0,12,8,1,0,0,1,0,0,0,0,1,hexagon,star,,,,,,,,,,,,,,,,,,,,,,,,,,,,,,,,,,,,,,,,,,,,,,,,,,,,,,
293005,2022-11-29_23h06.47.609,vts_reward_expectancy_bt,2022.2.4,MacIntel,58.82352941,Safari,1440,900,,,a,1.134,1,68,0,1,1,13,0,1,1,0,0,0,0,1,0,0,triangle,circle,,,,,,,,,,,,,,,,,,,,,,,,,,,,,,,,,,,,,,,,,,,,,,,,,,,,,,
293005,2022-11-29_23h06.47.609,vts_reward_expectancy_bt,2022.2.4,MacIntel,58.82352941,Safari,1440,900,,,l,0.783,10,78,0,1,2,14,2,1,1,0,0,0,0,0,0,1,triangle,star,,,,,,,,,,,,,,,,,,,,,,,,,,,,,,,,,,,,,,,,,,,,,,,,,,,,,,
293005,2022-11-29_23h06.47.609,vts_reward_expectancy_bt,2022.2.4,MacIntel,58.82352941,Safari,1440,900,,,a,1.95,10,88,0,1,3,15,6,1,0,0,1,0,1,0,0,0,hexagon,triangle,,,,,,,,,,,,,,,,,,,,,,,,,,,,,,,,,,,,,,,,,,,,,,,,,,,,,,
293005,2022-11-29_23h06.47.609,vts_reward_expectancy_bt,2022.2.4,MacIntel,58.82352941,Safari,1440,900,,,l,1.45,1,89,0,1,4,16,9,1,0,0,0,1,1,0,0,0,star,triangle,,,,,,,,,,,,,,,,,,,,,,,,,,,,,,,,,,,,,,,,,,,,,,,,,,,,,,
293005,2022-11-29_23h06.47.609,vts_reward_expectancy_bt,2022.2.4,MacIntel,58.82352941,Safari,1440,900,,,l,1.35,10,99,0,1,5,17,1,1,1,0,0,0,0,0,1,0,triangle,hexagon,,,,,,,,,,,,,,,,,,,,,,,,,,,,,,,,,,,,,,,,,,,,,,,,,,,,,,
293005,2022-11-29_23h06.47.609,vts_reward_expectancy_bt,2022.2.4,MacIntel,58.82352941,Safari,1440,900,,,a,2.499,10,109,0,1,6,18,10,1,0,0,0,1,0,1,0,0,star ,circle,,,,,,,,,,,,,,,,,,,,,,,,,,,,,,,,,,,,,,,,,,,,,,,,,,,,,,
293005,2022-11-29_23h06.47.609,vts_reward_expectancy_bt,2022.2.4,MacIntel,58.82352941,Safari,1440,900,,,a,0.9,1,110,0,1,7,19,11,1,0,0,0,1,0,0,1,0,star,hexagon,,,,,,,,,,,,,,,,,,,,,,,,,,,,,,,,,,,,,,,,,,,,,,,,,,,,,,
293005,2022-11-29_23h06.47.609,vts_reward_expectancy_bt,2022.2.4,MacIntel,58.82352941,Safari,1440,900,,,l,0.899,10,120,0,1,8,20,7,1,0,0,1,0,0,1,0,0,hexagon,circle,,,,,,,,,,,,,,,,,,,,,,,,,,,,,,,,,,,,,,,,,,,,,,,,,,,,,,
293005,2022-11-29_23h06.47.609,vts_reward_expectancy_bt,2022.2.4,MacIntel,58.82352941,Safari,1440,900,,,l,1.715,10,130,0,1,9,21,5,1,0,1,0,0,0,0,0,1,circle,star,,,,,,,,,,,,,,,,,,,,,,,,,,,,,,,,,,,,,,,,,,,,,,,,,,,,,,
293005,2022-11-29_23h06.47.609,vts_reward_expectancy_bt,2022.2.4,MacIntel,58.82352941,Safari,1440,900,,,a,0.967,1,131,0,1,10,22,3,1,0,1,0,0,1,0,0,0,circle,triangle,,,,,,,,,,,,,,,,,,,,,,,,,,,,,,,,,,,,,,,,,,,,,,,,,,,,,,
293005,2022-11-29_23h06.47.609,vts_reward_expectancy_bt,2022.2.4,MacIntel,58.82352941,Safari,1440,900,,,a,1.251,10,141,0,1,11,23,4,1,0,1,0,0,0,0,1,0,circle,hexagon,,,,,,,,,,,,,,,,,,,,,,,,,,,,,,,,,,,,,,,,,,,,,,,,,,,,,,
293005,2022-11-29_23h06.47.609,vts_reward_expectancy_bt,2022.2.4,MacIntel,58.82352941,Safari,1440,900,,,a,1.032,10,151,0,2,0,24,9,1,0,0,0,1,1,0,0,0,star,triangle,,,,,,,,,,,,,,,,,,,,,,,,,,,,,,,,,,,,,,,,,,,,,,,,,,,,,,
293005,2022-11-29_23h06.47.609,vts_reward_expectancy_bt,2022.2.4,MacIntel,58.82352941,Safari,1440,900,,,l,1.268,1,152,0,2,1,25,3,1,0,1,0,0,1,0,0,0,circle,triangle,,,,,,,,,,,,,,,,,,,,,,,,,,,,,,,,,,,,,,,,,,,,,,,,,,,,,,
293005,2022-11-29_23h06.47.609,vts_reward_expectancy_bt,2022.2.4,MacIntel,58.82352941,Safari,1440,900,,,a,0.603,10,162,0,2,2,26,11,1,0,0,0,1,0,0,1,0,star,hexagon,,,,,,,,,,,,,,,,,,,,,,,,,,,,,,,,,,,,,,,,,,,,,,,,,,,,,,
293005,2022-11-29_23h06.47.609,vts_reward_expectancy_bt,2022.2.4,MacIntel,58.82352941,Safari,1440,900,,,a,1.333,10,172,0,2,3,27,6,1,0,0,1,0,1,0,0,0,hexagon,triangle,,,,,,,,,,,,,,,,,,,,,,,,,,,,,,,,,,,,,,,,,,,,,,,,,,,,,,
293005,2022-11-29_23h06.47.609,vts_reward_expectancy_bt,2022.2.4,MacIntel,58.82352941,Safari,1440,900,,,l,1.016,10,182,0,2,4,28,5,1,0,1,0,0,0,0,0,1,circle,star,,,,,,,,,,,,,,,,,,,,,,,,,,,,,,,,,,,,,,,,,,,,,,,,,,,,,,
293005,2022-11-29_23h06.47.609,vts_reward_expectancy_bt,2022.2.4,MacIntel,58.82352941,Safari,1440,900,,,a,1.584,1,183,0,2,5,29,1,1,1,0,0,0,0,0,1,0,triangle,hexagon,,,,,,,,,,,,,,,,,,,,,,,,,,,,,,,,,,,,,,,,,,,,,,,,,,,,,,
293005,2022-11-29_23h06.47.609,vts_reward_expectancy_bt,2022.2.4,MacIntel,58.82352941,Safari,1440,900,,,l,0.835,1,184,0,2,6,30,0,1,1,0,0,0,0,1,0,0,triangle,circle,,,,,,,,,,,,,,,,,,,,,,,,,,,,,,,,,,,,,,,,,,,,,,,,,,,,,,
293005,2022-11-29_23h06.47.609,vts_reward_expectancy_bt,2022.2.4,MacIntel,58.82352941,Safari,1440,900,,,l,1.348,10,194,0,2,7,31,4,1,0,1,0,0,0,0,1,0,circle,hexagon,,,,,,,,,,,,,,,,,,,,,,,,,,,,,,,,,,,,,,,,,,,,,,,,,,,,,,
293005,2022-11-29_23h06.47.609,vts_reward_expectancy_bt,2022.2.4,MacIntel,58.82352941,Safari,1440,900,,,l,2.573,1,195,0,2,8,32,7,1,0,0,1,0,0,1,0,0,hexagon,circle,,,,,,,,,,,,,,,,,,,,,,,,,,,,,,,,,,,,,,,,,,,,,,,,,,,,,,
293005,2022-11-29_23h06.47.609,vts_reward_expectancy_bt,2022.2.4,MacIntel,58.82352941,Safari,1440,900,,,l,0.757,10,205,0,2,9,33,2,1,1,0,0,0,0,0,0,1,triangle,star,,,,,,,,,,,,,,,,,,,,,,,,,,,,,,,,,,,,,,,,,,,,,,,,,,,,,,
293005,2022-11-29_23h06.47.609,vts_reward_expectancy_bt,2022.2.4,MacIntel,58.82352941,Safari,1440,900,,,a,0.649,10,215,0,2,10,34,10,1,0,0,0,1,0,1,0,0,star ,circle,,,,,,,,,,,,,,,,,,,,,,,,,,,,,,,,,,,,,,,,,,,,,,,,,,,,,,
293005,2022-11-29_23h06.47.609,vts_reward_expectancy_bt,2022.2.4,MacIntel,58.82352941,Safari,1440,900,,,l,0.584,10,225,0,2,11,35,8,1,0,0,1,0,0,0,0,1,hexagon,star,,,,,,,,,,,,,,,,,,,,,,,,,,,,,,,,,,,,,,,,,,,,,,,,,,,,,,
293005,2022-11-29_23h06.47.609,vts_reward_expectancy_bt,2022.2.4,MacIntel,58.82352941,Safari,1440,900,,,l,1.243,10,235,1,0,0,0,2,1,1,0,0,0,0,0,0,1,triangle,star,,,,,,,,,,,,,,,,,,,,,,,,,,,,,,,,,,,,,,,,,,,,,,,,,,,,,,
293005,2022-11-29_23h06.47.609,vts_reward_expectancy_bt,2022.2.4,MacIntel,58.82352941,Safari,1440,900,,,l,0.517,10,245,1,0,1,1,5,1,0,1,0,0,0,0,0,1,circle,star,,,,,,,,,,,,,,,,,,,,,,,,,,,,,,,,,,,,,,,,,,,,,,,,,,,,,,
293005,2022-11-29_23h06.47.609,vts_reward_expectancy_bt,2022.2.4,MacIntel,58.82352941,Safari,1440,900,,,a,0.917,10,255,1,0,2,2,7,1,0,0,1,0,0,1,0,0,hexagon,circle,,,,,,,,,,,,,,,,,,,,,,,,,,,,,,,,,,,,,,,,,,,,,,,,,,,,,,
293005,2022-11-29_23h06.47.609,vts_reward_expectancy_bt,2022.2.4,MacIntel,58.82352941,Safari,1440,900,,,a,0.635,10,265,1,0,3,3,6,1,0,0,1,0,1,0,0,0,hexagon,triangle,,,,,,,,,,,,,,,,,,,,,,,,,,,,,,,,,,,,,,,,,,,,,,,,,,,,,,
293005,2022-11-29_23h06.47.609,vts_reward_expectancy_bt,2022.2.4,MacIntel,58.82352941,Safari,1440,900,,,a,0.732,10,275,1,0,4,4,9,1,0,0,0,1,1,0,0,0,star,triangle,,,,,,,,,,,,,,,,,,,,,,,,,,,,,,,,,,,,,,,,,,,,,,,,,,,,,,
293005,2022-11-29_23h06.47.609,vts_reward_expectancy_bt,2022.2.4,MacIntel,58.82352941,Safari,1440,900,,,l,1.165,10,285,1,0,5,5,1,1,1,0,0,0,0,0,1,0,triangle,hexagon,,,,,,,,,,,,,,,,,,,,,,,,,,,,,,,,,,,,,,,,,,,,,,,,,,,,,,
293005,2022-11-29_23h06.47.609,vts_reward_expectancy_bt,2022.2.4,MacIntel,58.82352941,Safari,1440,900,,,a,0.856,10,295,1,0,6,6,3,1,0,1,0,0,1,0,0,0,circle,triangle,,,,,,,,,,,,,,,,,,,,,,,,,,,,,,,,,,,,,,,,,,,,,,,,,,,,,,
293005,2022-11-29_23h06.47.609,vts_reward_expectancy_bt,2022.2.4,MacIntel,58.82352941,Safari,1440,900,,,a,0.583,1,296,1,0,7,7,4,1,0,1,0,0,0,0,1,0,circle,hexagon,,,,,,,,,,,,,,,,,,,,,,,,,,,,,,,,,,,,,,,,,,,,,,,,,,,,,,
293005,2022-11-29_23h06.47.609,vts_reward_expectancy_bt,2022.2.4,MacIntel,58.82352941,Safari,1440,900,,,l,0.767,10,306,1,0,8,8,8,1,0,0,1,0,0,0,0,1,hexagon,star,,,,,,,,,,,,,,,,,,,,,,,,,,,,,,,,,,,,,,,,,,,,,,,,,,,,,,
293005,2022-11-29_23h06.47.609,vts_reward_expectancy_bt,2022.2.4,MacIntel,58.82352941,Safari,1440,900,,,a,0.799,10,316,1,0,9,9,10,1,0,0,0,1,0,1,0,0,star ,circle,,,,,,,,,,,,,,,,,,,,,,,,,,,,,,,,,,,,,,,,,,,,,,,,,,,,,,
293005,2022-11-29_23h06.47.609,vts_reward_expectancy_bt,2022.2.4,MacIntel,58.82352941,Safari,1440,900,,,a,0.683,10,326,1,0,10,10,11,1,0,0,0,1,0,0,1,0,star,hexagon,,,,,,,,,,,,,,,,,,,,,,,,,,,,,,,,,,,,,,,,,,,,,,,,,,,,,,
293005,2022-11-29_23h06.47.609,vts_reward_expectancy_bt,2022.2.4,MacIntel,58.82352941,Safari,1440,900,,,a,1.636,1,327,1,0,11,11,0,1,1,0,0,0,0,1,0,0,triangle,circle,,,,,,,,,,,,,,,,,,,,,,,,,,,,,,,,,,,,,,,,,,,,,,,,,,,,,,
293005,2022-11-29_23h06.47.609,vts_reward_expectancy_bt,2022.2.4,MacIntel,58.82352941,Safari,1440,900,,,a,0.984,1,328,1,1,0,12,10,1,0,0,0,1,0,1,0,0,star ,circle,,,,,,,,,,,,,,,,,,,,,,,,,,,,,,,,,,,,,,,,,,,,,,,,,,,,,,
293005,2022-11-29_23h06.47.609,vts_reward_expectancy_bt,2022.2.4,MacIntel,58.82352941,Safari,1440,900,,,l,0.524,1,329,1,1,1,13,2,1,1,0,0,0,0,0,0,1,triangle,star,,,,,,,,,,,,,,,,,,,,,,,,,,,,,,,,,,,,,,,,,,,,,,,,,,,,,,
293005,2022-11-29_23h06.47.609,vts_reward_expectancy_bt,2022.2.4,MacIntel,58.82352941,Safari,1440,900,,,a,0.852,1,330,1,1,2,14,7,1,0,0,1,0,0,1,0,0,hexagon,circle,,,,,,,,,,,,,,,,,,,,,,,,,,,,,,,,,,,,,,,,,,,,,,,,,,,,,,
293005,2022-11-29_23h06.47.609,vts_reward_expectancy_bt,2022.2.4,MacIntel,58.82352941,Safari,1440,900,,,a,1.134,10,340,1,1,3,15,8,1,0,0,1,0,0,0,0,1,hexagon,star,,,,,,,,,,,,,,,,,,,,,,,,,,,,,,,,,,,,,,,,,,,,,,,,,,,,,,
293005,2022-11-29_23h06.47.609,vts_reward_expectancy_bt,2022.2.4,MacIntel,58.82352941,Safari,1440,900,,,l,0.966,1,341,1,1,4,16,0,1,1,0,0,0,0,1,0,0,triangle,circle,,,,,,,,,,,,,,,,,,,,,,,,,,,,,,,,,,,,,,,,,,,,,,,,,,,,,,
293005,2022-11-29_23h06.47.609,vts_reward_expectancy_bt,2022.2.4,MacIntel,58.82352941,Safari,1440,900,,,l,1.45,10,351,1,1,5,17,4,1,0,1,0,0,0,0,1,0,circle,hexagon,,,,,,,,,,,,,,,,,,,,,,,,,,,,,,,,,,,,,,,,,,,,,,,,,,,,,,
293005,2022-11-29_23h06.47.609,vts_reward_expectancy_bt,2022.2.4,MacIntel,58.82352941,Safari,1440,900,,,l,6.242,10,361,1,1,6,18,1,1,1,0,0,0,0,0,1,0,triangle,hexagon,,,,,,,,,,,,,,,,,,,,,,,,,,,,,,,,,,,,,,,,,,,,,,,,,,,,,,
293005,2022-11-29_23h06.47.609,vts_reward_expectancy_bt,2022.2.4,MacIntel,58.82352941,Safari,1440,900,,,l,1.289,10,371,1,1,7,19,5,1,0,1,0,0,0,0,0,1,circle,star,,,,,,,,,,,,,,,,,,,,,,,,,,,,,,,,,,,,,,,,,,,,,,,,,,,,,,
293005,2022-11-29_23h06.47.609,vts_reward_expectancy_bt,2022.2.4,MacIntel,58.82352941,Safari,1440,900,,,l,20.071,1,372,1,1,8,20,3,1,0,1,0,0,1,0,0,0,circle,triangle,,,,,,,,,,,,,,,,,,,,,,,,,,,,,,,,,,,,,,,,,,,,,,,,,,,,,,
293005,2022-11-29_23h06.47.609,vts_reward_expectancy_bt,2022.2.4,MacIntel,58.82352941,Safari,1440,900,,,a,0.654,10,382,1,1,9,21,6,1,0,0,1,0,1,0,0,0,hexagon,triangle,,,,,,,,,,,,,,,,,,,,,,,,,,,,,,,,,,,,,,,,,,,,,,,,,,,,,,
293005,2022-11-29_23h06.47.609,vts_reward_expectancy_bt,2022.2.4,MacIntel,58.82352941,Safari,1440,900,,,a,1.184,10,392,1,1,10,22,11,1,0,0,0,1,0,0,1,0,star,hexagon,,,,,,,,,,,,,,,,,,,,,,,,,,,,,,,,,,,,,,,,,,,,,,,,,,,,,,
293005,2022-11-29_23h06.47.609,vts_reward_expectancy_bt,2022.2.4,MacIntel,58.82352941,Safari,1440,900,,,a,4.967,10,402,1,1,11,23,9,1,0,0,0,1,1,0,0,0,star,triangle,,,,,,,,,,,,,,,,,,,,,,,,,,,,,,,,,,,,,,,,,,,,,,,,,,,,,,
293005,2022-11-29_23h06.47.609,vts_reward_expectancy_bt,2022.2.4,MacIntel,58.82352941,Safari,1440,900,,,a,1.132,10,412,1,2,0,24,11,1,0,0,0,1,0,0,1,0,star,hexagon,,,,,,,,,,,,,,,,,,,,,,,,,,,,,,,,,,,,,,,,,,,,,,,,,,,,,,
293005,2022-11-29_23h06.47.609,vts_reward_expectancy_bt,2022.2.4,MacIntel,58.82352941,Safari,1440,900,,,a,0.588,10,422,1,2,1,25,9,1,0,0,0,1,1,0,0,0,star,triangle,,,,,,,,,,,,,,,,,,,,,,,,,,,,,,,,,,,,,,,,,,,,,,,,,,,,,,
293005,2022-11-29_23h06.47.609,vts_reward_expectancy_bt,2022.2.4,MacIntel,58.82352941,Safari,1440,900,,,l,0.7,1,423,1,2,2,26,0,1,1,0,0,0,0,1,0,0,triangle,circle,,,,,,,,,,,,,,,,,,,,,,,,,,,,,,,,,,,,,,,,,,,,,,,,,,,,,,
293005,2022-11-29_23h06.47.609,vts_reward_expectancy_bt,2022.2.4,MacIntel,58.82352941,Safari,1440,900,,,a,1.198,1,424,1,2,3,27,3,1,0,1,0,0,1,0,0,0,circle,triangle,,,,,,,,,,,,,,,,,,,,,,,,,,,,,,,,,,,,,,,,,,,,,,,,,,,,,,
293005,2022-11-29_23h06.47.609,vts_reward_expectancy_bt,2022.2.4,MacIntel,58.82352941,Safari,1440,900,,,l,0.586,1,425,1,2,4,28,7,1,0,0,1,0,0,1,0,0,hexagon,circle,,,,,,,,,,,,,,,,,,,,,,,,,,,,,,,,,,,,,,,,,,,,,,,,,,,,,,
293005,2022-11-29_23h06.47.609,vts_reward_expectancy_bt,2022.2.4,MacIntel,58.82352941,Safari,1440,900,,,a,0.716,1,426,1,2,5,29,1,1,1,0,0,0,0,0,1,0,triangle,hexagon,,,,,,,,,,,,,,,,,,,,,,,,,,,,,,,,,,,,,,,,,,,,,,,,,,,,,,
293005,2022-11-29_23h06.47.609,vts_reward_expectancy_bt,2022.2.4,MacIntel,58.82352941,Safari,1440,900,,,l,0.8,10,436,1,2,6,30,8,1,0,0,1,0,0,0,0,1,hexagon,star,,,,,,,,,,,,,,,,,,,,,,,,,,,,,,,,,,,,,,,,,,,,,,,,,,,,,,
293005,2022-11-29_23h06.47.609,vts_reward_expectancy_bt,2022.2.4,MacIntel,58.82352941,Safari,1440,900,,,l,0.982,10,446,1,2,7,31,5,1,0,1,0,0,0,0,0,1,circle,star,,,,,,,,,,,,,,,,,,,,,,,,,,,,,,,,,,,,,,,,,,,,,,,,,,,,,,
293005,2022-11-29_23h06.47.609,vts_reward_expectancy_bt,2022.2.4,MacIntel,58.82352941,Safari,1440,900,,,l,1.583,10,456,1,2,8,32,4,1,0,1,0,0,0,0,1,0,circle,hexagon,,,,,,,,,,,,,,,,,,,,,,,,,,,,,,,,,,,,,,,,,,,,,,,,,,,,,,
293005,2022-11-29_23h06.47.609,vts_reward_expectancy_bt,2022.2.4,MacIntel,58.82352941,Safari,1440,900,,,l,1.217,10,466,1,2,9,33,2,1,1,0,0,0,0,0,0,1,triangle,star,,,,,,,,,,,,,,,,,,,,,,,,,,,,,,,,,,,,,,,,,,,,,,,,,,,,,,
293005,2022-11-29_23h06.47.609,vts_reward_expectancy_bt,2022.2.4,MacIntel,58.82352941,Safari,1440,900,,,a,1.02,10,476,1,2,10,34,10,1,0,0,0,1,0,1,0,0,star ,circle,,,,,,,,,,,,,,,,,,,,,,,,,,,,,,,,,,,,,,,,,,,,,,,,,,,,,,
293005,2022-11-29_23h06.47.609,vts_reward_expectancy_bt,2022.2.4,MacIntel,58.82352941,Safari,1440,900,,,a,5.351,10,486,1,2,11,35,6,1,0,0,1,0,1,0,0,0,hexagon,triangle,,,,,,,,,,,,,,,,,,,,,,,,,,,,,,,,,,,,,,,,,,,,,,,,,,,,,,
293005,2022-11-29_23h06.47.609,vts_reward_expectancy_bt,2022.2.4,MacIntel,58.82352941,Safari,1440,900,,,l,1.094,1,487,2,0,0,0,8,1,0,0,1,0,0,0,0,1,hexagon,star,,,,,,,,,,,,,,,,,,,,,,,,,,,,,,,,,,,,,,,,,,,,,,,,,,,,,,
293005,2022-11-29_23h06.47.609,vts_reward_expectancy_bt,2022.2.4,MacIntel,58.82352941,Safari,1440,900,,,a,0.902,10,497,2,0,1,1,7,1,0,0,1,0,0,1,0,0,hexagon,circle,,,,,,,,,,,,,,,,,,,,,,,,,,,,,,,,,,,,,,,,,,,,,,,,,,,,,,
293005,2022-11-29_23h06.47.609,vts_reward_expectancy_bt,2022.2.4,MacIntel,58.82352941,Safari,1440,900,,,a,0.567,10,507,2,0,2,2,9,1,0,0,0,1,1,0,0,0,star,triangle,,,,,,,,,,,,,,,,,,,,,,,,,,,,,,,,,,,,,,,,,,,,,,,,,,,,,,
293005,2022-11-29_23h06.47.609,vts_reward_expectancy_bt,2022.2.4,MacIntel,58.82352941,Safari,1440,900,,,l,0.8,1,508,2,0,3,3,0,1,1,0,0,0,0,1,0,0,triangle,circle,,,,,,,,,,,,,,,,,,,,,,,,,,,,,,,,,,,,,,,,,,,,,,,,,,,,,,
293005,2022-11-29_23h06.47.609,vts_reward_expectancy_bt,2022.2.4,MacIntel,58.82352941,Safari,1440,900,,,l,2.063,10,518,2,0,4,4,2,1,1,0,0,0,0,0,0,1,triangle,star,,,,,,,,,,,,,,,,,,,,,,,,,,,,,,,,,,,,,,,,,,,,,,,,,,,,,,
293005,2022-11-29_23h06.47.609,vts_reward_expectancy_bt,2022.2.4,MacIntel,58.82352941,Safari,1440,900,,,l,0.433,10,528,2,0,5,5,5,1,0,1,0,0,0,0,0,1,circle,star,,,,,,,,,,,,,,,,,,,,,,,,,,,,,,,,,,,,,,,,,,,,,,,,,,,,,,
293005,2022-11-29_23h06.47.609,vts_reward_expectancy_bt,2022.2.4,MacIntel,58.82352941,Safari,1440,900,,,l,0.985,1,529,2,0,6,6,3,1,0,1,0,0,1,0,0,0,circle,triangle,,,,,,,,,,,,,,,,,,,,,,,,,,,,,,,,,,,,,,,,,,,,,,,,,,,,,,
293005,2022-11-29_23h06.47.609,vts_reward_expectancy_bt,2022.2.4,MacIntel,58.82352941,Safari,1440,900,,,a,0.349,1,530,2,0,7,7,10,1,0,0,0,1,0,1,0,0,star ,circle,,,,,,,,,,,,,,,,,,,,,,,,,,,,,,,,,,,,,,,,,,,,,,,,,,,,,,
293005,2022-11-29_23h06.47.609,vts_reward_expectancy_bt,2022.2.4,MacIntel,58.82352941,Safari,1440,900,,,a,1.286,1,531,2,0,8,8,6,1,0,0,1,0,1,0,0,0,hexagon,triangle,,,,,,,,,,,,,,,,,,,,,,,,,,,,,,,,,,,,,,,,,,,,,,,,,,,,,,
293005,2022-11-29_23h06.47.609,vts_reward_expectancy_bt,2022.2.4,MacIntel,58.82352941,Safari,1440,900,,,a,1.071,10,541,2,0,9,9,11,1,0,0,0,1,0,0,1,0,star,hexagon,,,,,,,,,,,,,,,,,,,,,,,,,,,,,,,,,,,,,,,,,,,,,,,,,,,,,,
293005,2022-11-29_23h06.47.609,vts_reward_expectancy_bt,2022.2.4,MacIntel,58.82352941,Safari,1440,900,,,l,0.816,10,551,2,0,10,10,4,1,0,1,0,0,0,0,1,0,circle,hexagon,,,,,,,,,,,,,,,,,,,,,,,,,,,,,,,,,,,,,,,,,,,,,,,,,,,,,,
293005,2022-11-29_23h06.47.609,vts_reward_expectancy_bt,2022.2.4,MacIntel,58.82352941,Safari,1440,900,,,l,0.849,10,561,2,0,11,11,1,1,1,0,0,0,0,0,1,0,triangle,hexagon,,,,,,,,,,,,,,,,,,,,,,,,,,,,,,,,,,,,,,,,,,,,,,,,,,,,,,
293005,2022-11-29_23h06.47.609,vts_reward_expectancy_bt,2022.2.4,MacIntel,58.82352941,Safari,1440,900,,,l,0.768,10,571,2,1,0,12,8,1,0,0,1,0,0,0,0,1,hexagon,star,,,,,,,,,,,,,,,,,,,,,,,,,,,,,,,,,,,,,,,,,,,,,,,,,,,,,,
293005,2022-11-29_23h06.47.609,vts_reward_expectancy_bt,2022.2.4,MacIntel,58.82352941,Safari,1440,900,,,l,1.655,10,581,2,1,1,13,4,1,0,1,0,0,0,0,1,0,circle,hexagon,,,,,,,,,,,,,,,,,,,,,,,,,,,,,,,,,,,,,,,,,,,,,,,,,,,,,,
293005,2022-11-29_23h06.47.609,vts_reward_expectancy_bt,2022.2.4,MacIntel,58.82352941,Safari,1440,900,,,l,0.836,1,582,2,1,2,14,1,1,1,0,0,0,0,0,1,0,triangle,hexagon,,,,,,,,,,,,,,,,,,,,,,,,,,,,,,,,,,,,,,,,,,,,,,,,,,,,,,
293005,2022-11-29_23h06.47.609,vts_reward_expectancy_bt,2022.2.4,MacIntel,58.82352941,Safari,1440,900,,,a,0.358,1,583,2,1,3,15,10,1,0,0,0,1,0,1,0,0,star ,circle,,,,,,,,,,,,,,,,,,,,,,,,,,,,,,,,,,,,,,,,,,,,,,,,,,,,,,
293005,2022-11-29_23h06.47.609,vts_reward_expectancy_bt,2022.2.4,MacIntel,58.82352941,Safari,1440,900,,,l,0.334,10,593,2,1,4,16,11,1,0,0,0,1,0,0,1,0,star,hexagon,,,,,,,,,,,,,,,,,,,,,,,,,,,,,,,,,,,,,,,,,,,,,,,,,,,,,,
293005,2022-11-29_23h06.47.609,vts_reward_expectancy_bt,2022.2.4,MacIntel,58.82352941,Safari,1440,900,,,l,0.405,10,603,2,1,5,17,2,1,1,0,0,0,0,0,0,1,triangle,star,,,,,,,,,,,,,,,,,,,,,,,,,,,,,,,,,,,,,,,,,,,,,,,,,,,,,,
293005,2022-11-29_23h06.47.609,vts_reward_expectancy_bt,2022.2.4,MacIntel,58.82352941,Safari,1440,900,,,a,0.551,10,613,2,1,6,18,6,1,0,0,1,0,1,0,0,0,hexagon,triangle,,,,,,,,,,,,,,,,,,,,,,,,,,,,,,,,,,,,,,,,,,,,,,,,,,,,,,
293005,2022-11-29_23h06.47.609,vts_reward_expectancy_bt,2022.2.4,MacIntel,58.82352941,Safari,1440,900,,,a,0.656,1,614,2,1,7,19,7,1,0,0,1,0,0,1,0,0,hexagon,circle,,,,,,,,,,,,,,,,,,,,,,,,,,,,,,,,,,,,,,,,,,,,,,,,,,,,,,
293005,2022-11-29_23h06.47.609,vts_reward_expectancy_bt,2022.2.4,MacIntel,58.82352941,Safari,1440,900,,,a,0.55,10,624,2,1,8,20,9,1,0,0,0,1,1,0,0,0,star,triangle,,,,,,,,,,,,,,,,,,,,,,,,,,,,,,,,,,,,,,,,,,,,,,,,,,,,,,
293005,2022-11-29_23h06.47.609,vts_reward_expectancy_bt,2022.2.4,MacIntel,58.82352941,Safari,1440,900,,,l,0.799,1,625,2,1,9,21,3,1,0,1,0,0,1,0,0,0,circle,triangle,,,,,,,,,,,,,,,,,,,,,,,,,,,,,,,,,,,,,,,,,,,,,,,,,,,,,,
293005,2022-11-29_23h06.47.609,vts_reward_expectancy_bt,2022.2.4,MacIntel,58.82352941,Safari,1440,900,,,l,0.554,10,635,2,1,10,22,5,1,0,1,0,0,0,0,0,1,circle,star,,,,,,,,,,,,,,,,,,,,,,,,,,,,,,,,,,,,,,,,,,,,,,,,,,,,,,
293005,2022-11-29_23h06.47.609,vts_reward_expectancy_bt,2022.2.4,MacIntel,58.82352941,Safari,1440,900,,,l,1.251,1,636,2,1,11,23,0,1,1,0,0,0,0,1,0,0,triangle,circle,,,,,,,,,,,,,,,,,,,,,,,,,,,,,,,,,,,,,,,,,,,,,,,,,,,,,,
293005,2022-11-29_23h06.47.609,vts_reward_expectancy_bt,2022.2.4,MacIntel,58.82352941,Safari,1440,900,,,a,0.541,10,646,2,2,0,24,6,1,0,0,1,0,1,0,0,0,hexagon,triangle,,,,,,,,,,,,,,,,,,,,,,,,,,,,,,,,,,,,,,,,,,,,,,,,,,,,,,
293005,2022-11-29_23h06.47.609,vts_reward_expectancy_bt,2022.2.4,MacIntel,58.82352941,Safari,1440,900,,,a,1.359,1,647,2,2,1,25,0,1,1,0,0,0,0,1,0,0,triangle,circle,,,,,,,,,,,,,,,,,,,,,,,,,,,,,,,,,,,,,,,,,,,,,,,,,,,,,,
293005,2022-11-29_23h06.47.609,vts_reward_expectancy_bt,2022.2.4,MacIntel,58.82352941,Safari,1440,900,,,l,0.833,10,657,2,2,2,26,3,1,0,1,0,0,1,0,0,0,circle,triangle,,,,,,,,,,,,,,,,,,,,,,,,,,,,,,,,,,,,,,,,,,,,,,,,,,,,,,
293005,2022-11-29_23h06.47.609,vts_reward_expectancy_bt,2022.2.4,MacIntel,58.82352941,Safari,1440,900,,,a,0.966,1,658,2,2,3,27,1,1,1,0,0,0,0,0,1,0,triangle,hexagon,,,,,,,,,,,,,,,,,,,,,,,,,,,,,,,,,,,,,,,,,,,,,,,,,,,,,,
293005,2022-11-29_23h06.47.609,vts_reward_expectancy_bt,2022.2.4,MacIntel,58.82352941,Safari,1440,900,,,l,0.571,10,668,2,2,4,28,4,1,0,1,0,0,0,0,1,0,circle,hexagon,,,,,,,,,,,,,,,,,,,,,,,,,,,,,,,,,,,,,,,,,,,,,,,,,,,,,,
293005,2022-11-29_23h06.47.609,vts_reward_expectancy_bt,2022.2.4,MacIntel,58.82352941,Safari,1440,900,,,l,0.619,10,678,2,2,5,29,5,1,0,1,0,0,0,0,0,1,circle,star,,,,,,,,,,,,,,,,,,,,,,,,,,,,,,,,,,,,,,,,,,,,,,,,,,,,,,
293005,2022-11-29_23h06.47.609,vts_reward_expectancy_bt,2022.2.4,MacIntel,58.82352941,Safari,1440,900,,,a,0.467,1,679,2,2,6,30,9,1,0,0,0,1,1,0,0,0,star,triangle,,,,,,,,,,,,,,,,,,,,,,,,,,,,,,,,,,,,,,,,,,,,,,,,,,,,,,
293005,2022-11-29_23h06.47.609,vts_reward_expectancy_bt,2022.2.4,MacIntel,58.82352941,Safari,1440,900,,,a,1.166,10,689,2,2,7,31,7,1,0,0,1,0,0,1,0,0,hexagon,circle,,,,,,,,,,,,,,,,,,,,,,,,,,,,,,,,,,,,,,,,,,,,,,,,,,,,,,
293005,2022-11-29_23h06.47.609,vts_reward_expectancy_bt,2022.2.4,MacIntel,58.82352941,Safari,1440,900,,,l,0.651,10,699,2,2,8,32,2,1,1,0,0,0,0,0,0,1,triangle,star,,,,,,,,,,,,,,,,,,,,,,,,,,,,,,,,,,,,,,,,,,,,,,,,,,,,,,
293005,2022-11-29_23h06.47.609,vts_reward_expectancy_bt,2022.2.4,MacIntel,58.82352941,Safari,1440,900,,,a,0.849,10,709,2,2,9,33,10,1,0,0,0,1,0,1,0,0,star ,circle,,,,,,,,,,,,,,,,,,,,,,,,,,,,,,,,,,,,,,,,,,,,,,,,,,,,,,
293005,2022-11-29_23h06.47.609,vts_reward_expectancy_bt,2022.2.4,MacIntel,58.82352941,Safari,1440,900,,,a,0.617,10,719,2,2,10,34,11,1,0,0,0,1,0,0,1,0,star,hexagon,,,,,,,,,,,,,,,,,,,,,,,,,,,,,,,,,,,,,,,,,,,,,,,,,,,,,,
293005,2022-11-29_23h06.47.609,vts_reward_expectancy_bt,2022.2.4,MacIntel,58.82352941,Safari,1440,900,,,l,0.469,10,729,2,2,11,35,8,1,0,0,1,0,0,0,0,1,hexagon,star,,,,,,,,,,,,,,,,,,,,,,,,,,,,,,,,,,,,,,,,,,,,,,,,,,,,,,
293005,2022-11-29_23h06.47.609,vts_reward_expectancy_bt,2022.2.4,MacIntel,58.82352941,Safari,1440,900,,,,,,,,,,,,,,,,,,,,,,,U,174,hexagon,0,0,,0,0,0,0,0,1,,,,,,,,,,,,,,,,,,,,,,,,,,,,,,,,,,,,,,,,,,
293005,2022-11-29_23h06.47.609,vts_reward_expectancy_bt,2022.2.4,MacIntel,58.82352941,Safari,1440,900,,,,,,,,,,,,,,,,,,,,,,,W,146,triangle,0,1,,0,1,0,1,0,1,,,,,,,,,,,,,,,,,,,,,,,,,,,,,,,,,,,,,,,,,,
293005,2022-11-29_23h06.47.609,vts_reward_expectancy_bt,2022.2.4,MacIntel,58.82352941,Safari,1440,900,,,,,,,,,,,,,,,,,,,,,,,F,167,star,0,1,,0,2,0,2,0,1,,,,,,,,,,,,,,,,,,,,,,,,,,,,,,,,,,,,,,,,,,
293005,2022-11-29_23h06.47.609,vts_reward_expectancy_bt,2022.2.4,MacIntel,58.82352941,Safari,1440,900,,,,,,,,,,,,,,,,,,,,,,,B,139,circle,1,1,d,0,3,0,3,0,1,1.725,,,,,,,,,,,,,,,,,,,,,,,,,,,,,,,,,,,,,,,,,
293005,2022-11-29_23h06.47.609,vts_reward_expectancy_bt,2022.2.4,MacIntel,58.82352941,Safari,1440,900,,,,,,,,,,,,,,,,,,,,,,,Y,125,hexagon,1,0,f,0,4,0,4,0,1,0.996,,,,,,,,,,,,,,,,,,,,,,,,,,,,,,,,,,,,,,,,,
293005,2022-11-29_23h06.47.609,vts_reward_expectancy_bt,2022.2.4,MacIntel,58.82352941,Safari,1440,900,,,,,,,,,,,,,,,,,,,,,,,S,181,triangle,1,0,f,0,5,0,5,0,1,0.876,,,,,,,,,,,,,,,,,,,,,,,,,,,,,,,,,,,,,,,,,
293005,2022-11-29_23h06.47.609,vts_reward_expectancy_bt,2022.2.4,MacIntel,58.82352941,Safari,1440,900,,,,,,,,,,,,,,,,,,,,,,,D,132,star,1,0,d,0,6,0,6,0,1,0.661,,,,,,,,,,,,,,,,,,,,,,,,,,,,,,,,,,,,,,,,,
293005,2022-11-29_23h06.47.609,vts_reward_expectancy_bt,2022.2.4,MacIntel,58.82352941,Safari,1440,900,,,,,,,,,,,,,,,,,,,,,,,H,160,circle,1,0,d,0,7,0,7,0,1,2.261,,,,,,,,,,,,,,,,,,,,,,,,,,,,,,,,,,,,,,,,,
293005,2022-11-29_23h06.47.609,vts_reward_expectancy_bt,2022.2.4,MacIntel,58.82352941,Safari,1440,900,,,,,,,,,,,,,,,,,,,,,,,U,174,hexagon,1,0,f,0,8,0,8,0,1,0.76,,,,,,,,,,,,,,,,,,,,,,,,,,,,,,,,,,,,,,,,,
293005,2022-11-29_23h06.47.609,vts_reward_expectancy_bt,2022.2.4,MacIntel,58.82352941,Safari,1440,900,,,,,,,,,,,,,,,,,,,,,,,W,146,triangle,1,0,f,0,9,0,9,0,1,0.714,,,,,,,,,,,,,,,,,,,,,,,,,,,,,,,,,,,,,,,,,
293005,2022-11-29_23h06.47.609,vts_reward_expectancy_bt,2022.2.4,MacIntel,58.82352941,Safari,1440,900,,,,,,,,,,,,,,,,,,,,,,,W,139,star,1,0,f,1,0,0,0,0,1,0.729,,,,,,,,,,,,,,,,,,,,,,,,,,,,,,,,,,,,,,,,,
293005,2022-11-29_23h06.47.609,vts_reward_expectancy_bt,2022.2.4,MacIntel,58.82352941,Safari,1440,900,,,,,,,,,,,,,,,,,,,,,,,Y,125,triangle,1,0,f,1,1,0,1,0,1,0.749,,,,,,,,,,,,,,,,,,,,,,,,,,,,,,,,,,,,,,,,,
293005,2022-11-29_23h06.47.609,vts_reward_expectancy_bt,2022.2.4,MacIntel,58.82352941,Safari,1440,900,,,,,,,,,,,,,,,,,,,,,,,U,160,hexagon,1,0,f,1,2,0,2,0,1,0.817,,,,,,,,,,,,,,,,,,,,,,,,,,,,,,,,,,,,,,,,,
293005,2022-11-29_23h06.47.609,vts_reward_expectancy_bt,2022.2.4,MacIntel,58.82352941,Safari,1440,900,,,,,,,,,,,,,,,,,,,,,,,D,181,circle,1,0,d,1,3,0,3,0,1,0.694,,,,,,,,,,,,,,,,,,,,,,,,,,,,,,,,,,,,,,,,,
293005,2022-11-29_23h06.47.609,vts_reward_expectancy_bt,2022.2.4,MacIntel,58.82352941,Safari,1440,900,,,,,,,,,,,,,,,,,,,,,,,F,174,star,1,0,d,1,4,0,4,0,1,0.743,,,,,,,,,,,,,,,,,,,,,,,,,,,,,,,,,,,,,,,,,
293005,2022-11-29_23h06.47.609,vts_reward_expectancy_bt,2022.2.4,MacIntel,58.82352941,Safari,1440,900,,,,,,,,,,,,,,,,,,,,,,,H,146,triangle,1,0,d,1,5,0,5,0,1,0.91,,,,,,,,,,,,,,,,,,,,,,,,,,,,,,,,,,,,,,,,,
293005,2022-11-29_23h06.47.609,vts_reward_expectancy_bt,2022.2.4,MacIntel,58.82352941,Safari,1440,900,,,,,,,,,,,,,,,,,,,,,,,B,132,hexagon,1,0,d,1,6,0,6,0,1,0.714,,,,,,,,,,,,,,,,,,,,,,,,,,,,,,,,,,,,,,,,,
293005,2022-11-29_23h06.47.609,vts_reward_expectancy_bt,2022.2.4,MacIntel,58.82352941,Safari,1440,900,,,,,,,,,,,,,,,,,,,,,,,S,167,circle,1,0,f,1,7,0,7,0,1,0.68,,,,,,,,,,,,,,,,,,,,,,,,,,,,,,,,,,,,,,,,,
293005,2022-11-29_23h06.47.609,vts_reward_expectancy_bt,2022.2.4,MacIntel,58.82352941,Safari,1440,900,,,,,,,,,,,,,,,,,,,,,,,W,139,star,1,0,f,1,8,0,8,0,1,0.601,,,,,,,,,,,,,,,,,,,,,,,,,,,,,,,,,,,,,,,,,
293005,2022-11-29_23h06.47.609,vts_reward_expectancy_bt,2022.2.4,MacIntel,58.82352941,Safari,1440,900,,,,,,,,,,,,,,,,,,,,,,,Y,125,hexagon,1,0,f,1,9,0,9,0,1,0.666,,,,,,,,,,,,,,,,,,,,,,,,,,,,,,,,,,,,,,,,,
293005,2022-11-29_23h06.47.609,vts_reward_expectancy_bt,2022.2.4,MacIntel,58.82352941,Safari,1440,900,,,,,,,,,,,,,,,,,,,,,,,B,160,star,0,0,,2,,,,,,,,0,0,0,0,1,,,,,,,,,,,,,,,,,,,,,,,,,,,,,,,,,,,
293005,2022-11-29_23h06.47.609,vts_reward_expectancy_bt,2022.2.4,MacIntel,58.82352941,Safari,1440,900,,,,,,,,,,,,,,,,,,,,,,,U,146,hexagon,1,1,,2,,,,,,,j,1,0,1,0,1,2.08,,,,,,,,,,,,,,,,,,,,,,,,,,,,,,,,,,
293005,2022-11-29_23h06.47.609,vts_reward_expectancy_bt,2022.2.4,MacIntel,58.82352941,Safari,1440,900,,,,,,,,,,,,,,,,,,,,,,,W,132,circle,1,0,,2,,,,,,,j,2,0,2,0,1,1.251,,,,,,,,,,,,,,,,,,,,,,,,,,,,,,,,,,
293005,2022-11-29_23h06.47.609,vts_reward_expectancy_bt,2022.2.4,MacIntel,58.82352941,Safari,1440,900,,,,,,,,,,,,,,,,,,,,,,,F,181,triangle,1,0,,2,,,,,,,k,3,0,3,0,1,1.075,,,,,,,,,,,,,,,,,,,,,,,,,,,,,,,,,,
293005,2022-11-29_23h06.47.609,vts_reward_expectancy_bt,2022.2.4,MacIntel,58.82352941,Safari,1440,900,,,,,,,,,,,,,,,,,,,,,,,Y,167,star,1,0,,2,,,,,,,k,4,0,4,0,1,0.844,,,,,,,,,,,,,,,,,,,,,,,,,,,,,,,,,,
293005,2022-11-29_23h06.47.609,vts_reward_expectancy_bt,2022.2.4,MacIntel,58.82352941,Safari,1440,900,,,,,,,,,,,,,,,,,,,,,,,S,125,hexagon,1,0,,2,,,,,,,j,5,0,5,0,1,0.643,,,,,,,,,,,,,,,,,,,,,,,,,,,,,,,,,,
293005,2022-11-29_23h06.47.609,vts_reward_expectancy_bt,2022.2.4,MacIntel,58.82352941,Safari,1440,900,,,,,,,,,,,,,,,,,,,,,,,H,174,circle,1,0,,2,,,,,,,k,6,0,6,0,1,0.631,,,,,,,,,,,,,,,,,,,,,,,,,,,,,,,,,,
293005,2022-11-29_23h06.47.609,vts_reward_expectancy_bt,2022.2.4,MacIntel,58.82352941,Safari,1440,900,,,,,,,,,,,,,,,,,,,,,,,D,139,triangle,1,0,,2,,,,,,,j,7,0,7,0,1,0.96,,,,,,,,,,,,,,,,,,,,,,,,,,,,,,,,,,
293005,2022-11-29_23h06.47.609,vts_reward_expectancy_bt,2022.2.4,MacIntel,58.82352941,Safari,1440,900,,,,,,,,,,,,,,,,,,,,,,,B,160,circle,1,0,,2,,,,,,,k,8,0,8,0,1,0.944,,,,,,,,,,,,,,,,,,,,,,,,,,,,,,,,,,
293005,2022-11-29_23h06.47.609,vts_reward_expectancy_bt,2022.2.4,MacIntel,58.82352941,Safari,1440,900,,,,,,,,,,,,,,,,,,,,,,,U,146,star,1,0,,2,,,,,,,j,9,0,9,0,1,0.766,,,,,,,,,,,,,,,,,,,,,,,,,,,,,,,,,,
293005,2022-11-29_23h06.47.609,vts_reward_expectancy_bt,2022.2.4,MacIntel,58.82352941,Safari,1440,900,,,,,0,729,,,,,,,,,,,,,,,,,B,132,triangle,1,0,,3,,,,,,,,,,,,,,-1,number,NA,j,1.727,vtsPrac,0,0,0,0,1,,,,,,,,,,,,,,,,,,,,,,,
293005,2022-11-29_23h06.47.609,vts_reward_expectancy_bt,2022.2.4,MacIntel,58.82352941,Safari,1440,900,,,,,0,729,,,,,,,,,,,,,,,,,Y,181,hexagon,1,0,,3,,,,,,,,,,,,,,repeat,number,numRpt,k,1.341,vtsPrac,1,0,1,0,1,,,,,,,,,,,,,,,,,,,,,,,
293005,2022-11-29_23h06.47.609,vts_reward_expectancy_bt,2022.2.4,MacIntel,58.82352941,Safari,1440,900,,,,,0,729,,,,,,,,,,,,,,,,,F,125,triangle,1,0,,3,,,,,,,,,,,,,,repeat,number,numRpt,j,0.975,vtsPrac,2,0,2,0,1,,,,,,,,,,,,,,,,,,,,,,,
293005,2022-11-29_23h06.47.609,vts_reward_expectancy_bt,2022.2.4,MacIntel,58.82352941,Safari,1440,900,,,,,0,729,,,,,,,,,,,,,,,,,D,160,hexagon,1,0,,3,,,,,,,,,,,,,,repeat,number,numRpt,k,1.392,vtsPrac,3,0,3,0,1,,,,,,,,,,,,,,,,,,,,,,,
293005,2022-11-29_23h06.47.609,vts_reward_expectancy_bt,2022.2.4,MacIntel,58.82352941,Safari,1440,900,,,,,0,729,,,,,,,,,,,,,,,,,B,132,triangle,1,0,,3,,,,,,,,,,,,,,repeat,number,numRpt,j,0.576,vtsPrac,4,0,4,0,1,,,,,,,,,,,,,,,,,,,,,,,
293005,2022-11-29_23h06.47.609,vts_reward_expectancy_bt,2022.2.4,MacIntel,58.82352941,Safari,1440,900,,,,,0,729,,,,,,,,,,,,,,,,,Y,181,star,1,0,,3,,,,,,,,,,,,,,repeat,number,numRpt,k,0.763,vtsPrac,5,0,5,0,1,,,,,,,,,,,,,,,,,,,,,,,
293005,2022-11-29_23h06.47.609,vts_reward_expectancy_bt,2022.2.4,MacIntel,58.82352941,Safari,1440,900,,,,,0,729,,,,,,,,,,,,,,,,,F,125,hexagon,1,0,,3,,,,,,,,,,,,,,repeat,number,numRpt,j,0.693,vtsPrac,6,0,6,0,1,,,,,,,,,,,,,,,,,,,,,,,
293005,2022-11-29_23h06.47.609,vts_reward_expectancy_bt,2022.2.4,MacIntel,58.82352941,Safari,1440,900,,,,,0,729,,,,,,,,,,,,,,,,,D,160,triangle,1,0,,3,,,,,,,,,,,,,,repeat,number,numRpt,k,1.267,vtsPrac,7,0,7,0,1,,,,,,,,,,,,,,,,,,,,,,,
293005,2022-11-29_23h06.47.609,vts_reward_expectancy_bt,2022.2.4,MacIntel,58.82352941,Safari,1440,900,,,,,0,729,,,,,,,,,,,,,,,,,W,139,star,1,0,,3,,,,,,,,,,,,,,repeat,number,numRpt,j,0.759,vtsPrac,8,0,8,0,1,,,,,,,,,,,,,,,,,,,,,,,
293005,2022-11-29_23h06.47.609,vts_reward_expectancy_bt,2022.2.4,MacIntel,58.82352941,Safari,1440,900,,,,,0,729,,,,,,,,,,,,,,,,,F,132,circle,1,0,,3,,,,,,,,,,,,,,repeat,number,numRpt,j,0.743,vtsPrac,9,0,9,0,1,,,,,,,,,,,,,,,,,,,,,,,
293005,2022-11-29_23h06.47.609,vts_reward_expectancy_bt,2022.2.4,MacIntel,58.82352941,Safari,1440,900,,,,,0,729,,,,,,,,,,,,,,,,,H,125,circle,1,0,,3,,,,,,,,,,,,,,repeat,number,numRpt,j,0.775,vtsPrac,10,0,10,0,1,,,,,,,,,,,,,,,,,,,,,,,
293005,2022-11-29_23h06.47.609,vts_reward_expectancy_bt,2022.2.4,MacIntel,58.82352941,Safari,1440,900,,,,,0,729,,,,,,,,,,,,,,,,,U,167,triangle,1,0,,3,,,,,,,,,,,,,,repeat,number,numRpt,k,0.765,vtsPrac,11,0,11,0,1,,,,,,,,,,,,,,,,,,,,,,,
293005,2022-11-29_23h06.47.609,vts_reward_expectancy_bt,2022.2.4,MacIntel,58.82352941,Safari,1440,900,,,,,0,729,,,,,,,,,,,,,,,,,Y,146,circle,1,0,,3,,,,,,,,,,,,,,repeat,number,numRpt,j,0.762,vtsPrac,12,0,12,0,1,,,,,,,,,,,,,,,,,,,,,,,
293005,2022-11-29_23h06.47.609,vts_reward_expectancy_bt,2022.2.4,MacIntel,58.82352941,Safari,1440,900,,,,,0,729,,,,,,,,,,,,,,,,,U,167,hexagon,1,0,,3,,,,,,,,,,,,,,repeat,number,numRpt,k,0.776,vtsPrac,13,0,13,0,1,,,,,,,,,,,,,,,,,,,,,,,
293005,2022-11-29_23h06.47.609,vts_reward_expectancy_bt,2022.2.4,MacIntel,58.82352941,Safari,1440,900,,,,,0,729,,,,,,,,,,,,,,,,,W,160,hexagon,1,0,,3,,,,,,,,,,,,,,repeat,number,numRpt,k,1.094,vtsPrac,14,0,14,0,1,,,,,,,,,,,,,,,,,,,,,,,
293005,2022-11-29_23h06.47.609,vts_reward_expectancy_bt,2022.2.4,MacIntel,58.82352941,Safari,1440,900,,,,,0,729,,,,,,,,,,,,,,,,,H,181,triangle,1,0,,3,,,,,,,,,,,,,,repeat,number,numRpt,k,0.677,vtsPrac,15,0,15,0,1,,,,,,,,,,,,,,,,,,,,,,,
293005,2022-11-29_23h06.47.609,vts_reward_expectancy_bt,2022.2.4,MacIntel,58.82352941,Safari,1440,900,,,,,0,729,,,,,,,,,,,,,,,,,Y,132,triangle,1,0,,3,,,,,,,,,,,,,,repeat,number,numRpt,j,0.943,vtsPrac,16,0,16,0,1,,,,,,,,,,,,,,,,,,,,,,,
293005,2022-11-29_23h06.47.609,vts_reward_expectancy_bt,2022.2.4,MacIntel,58.82352941,Safari,1440,900,,,,,0,729,,,,,,,,,,,,,,,,,D,125,star,1,0,,3,,,,,,,,,,,,,,repeat,number,numRpt,j,0.657,vtsPrac,17,0,17,0,1,,,,,,,,,,,,,,,,,,,,,,,
293005,2022-11-29_23h06.47.609,vts_reward_expectancy_bt,2022.2.4,MacIntel,58.82352941,Safari,1440,900,,,,,0,729,,,,,,,,,,,,,,,,,W,167,hexagon,1,0,,3,,,,,,,,,,,,,,repeat,number,numRpt,k,1.647,vtsPrac,18,0,18,0,1,,,,,,,,,,,,,,,,,,,,,,,
293005,2022-11-29_23h06.47.609,vts_reward_expectancy_bt,2022.2.4,MacIntel,58.82352941,Safari,1440,900,,,,,0,729,,,,,,,,,,,,,,,,,H,181,circle,1,0,,3,,,,,,,,,,,,,,repeat,number,numRpt,k,0.677,vtsPrac,19,0,19,0,1,,,,,,,,,,,,,,,,,,,,,,,
293005,2022-11-29_23h06.47.609,vts_reward_expectancy_bt,2022.2.4,MacIntel,58.82352941,Safari,1440,900,,,,,0,729,,,,,,,,,,,,,,,,,U,167,triangle,1,0,,3,,,,,,,,,,,,,,repeat,number,numRpt,k,0.602,vtsPrac,20,0,20,0,1,,,,,,,,,,,,,,,,,,,,,,,
293005,2022-11-29_23h06.47.609,vts_reward_expectancy_bt,2022.2.4,MacIntel,58.82352941,Safari,1440,900,,,,,0,729,,,,,,,,,,,,,,,,,Y,125,circle,1,0,,3,,,,,,,,,,,,,,repeat,number,numRpt,j,0.809,vtsPrac,21,0,21,0,1,,,,,,,,,,,,,,,,,,,,,,,
293005,2022-11-29_23h06.47.609,vts_reward_expectancy_bt,2022.2.4,MacIntel,58.82352941,Safari,1440,900,,,,,0,729,,,,,,,,,,,,,,,,,F,181,circle,1,0,,3,,,,,,,,,,,,,,repeat,number,numRpt,k,0.725,vtsPrac,22,0,22,0,1,,,,,,,,,,,,,,,,,,,,,,,
293005,2022-11-29_23h06.47.609,vts_reward_expectancy_bt,2022.2.4,MacIntel,58.82352941,Safari,1440,900,,,,,0,729,,,,,,,,,,,,,,,,,S,132,triangle,1,0,,3,,,,,,,,,,,,,,repeat,number,numRpt,j,0.863,vtsPrac,23,0,23,0,1,,,,,,,,,,,,,,,,,,,,,,,
293005,2022-11-29_23h06.47.609,vts_reward_expectancy_bt,2022.2.4,MacIntel,58.82352941,Safari,1440,900,,,,,0,729,,,,,,,,,,,,,,,,,H,167,hexagon,1,0,,3,,,,,,,,,,,,,,repeat,number,numRpt,k,1.413,vtsPrac,24,0,24,0,1,,,,,,,,,,,,,,,,,,,,,,,
293005,2022-11-29_23h06.47.609,vts_reward_expectancy_bt,2022.2.4,MacIntel,58.82352941,Safari,1440,900,,,,,0,729,,,,,,,,,,,,,,,,,D,132,star,1,0,,3,,,,,,,,,,,,,,repeat,number,numRpt,j,0.913,vtsPrac,25,0,25,0,1,,,,,,,,,,,,,,,,,,,,,,,
293005,2022-11-29_23h06.47.609,vts_reward_expectancy_bt,2022.2.4,MacIntel,58.82352941,Safari,1440,900,,,,,0,729,,,,,,,,,,,,,,,,,F,125,triangle,1,0,,3,,,,,,,,,,,,,,repeat,number,numRpt,j,0.747,vtsPrac,26,0,26,0,1,,,,,,,,,,,,,,,,,,,,,,,
293005,2022-11-29_23h06.47.609,vts_reward_expectancy_bt,2022.2.4,MacIntel,58.82352941,Safari,1440,900,,,,,0,729,,,,,,,,,,,,,,,,,Y,174,hexagon,1,0,,3,,,,,,,,,,,,,,repeat,number,numRpt,k,0.728,vtsPrac,27,0,27,0,1,,,,,,,,,,,,,,,,,,,,,,,
293005,2022-11-29_23h06.47.609,vts_reward_expectancy_bt,2022.2.4,MacIntel,58.82352941,Safari,1440,900,,,,,0,729,,,,,,,,,,,,,,,,,H,181,hexagon,1,0,,3,,,,,,,,,,,,,,repeat,number,numRpt,k,0.675,vtsPrac,28,0,28,0,1,,,,,,,,,,,,,,,,,,,,,,,
293005,2022-11-29_23h06.47.609,vts_reward_expectancy_bt,2022.2.4,MacIntel,58.82352941,Safari,1440,900,,,,,0,729,,,,,,,,,,,,,,,,,U,174,triangle,1,0,,3,,,,,,,,,,,,,,repeat,number,numRpt,k,0.81,vtsPrac,29,0,29,0,1,,,,,,,,,,,,,,,,,,,,,,,
293005,2022-11-29_23h06.47.609,vts_reward_expectancy_bt,2022.2.4,MacIntel,58.82352941,Safari,1440,900,,,,,0,729,,,,,,,,,,,,,,,,,Y,160,star,1,0,,3,,,,,,,,,,,,,,repeat,number,numRpt,k,0.717,vtsPrac,30,0,30,0,1,,,,,,,,,,,,,,,,,,,,,,,
293005,2022-11-29_23h06.47.609,vts_reward_expectancy_bt,2022.2.4,MacIntel,58.82352941,Safari,1440,900,,,,,0,729,,,,,,,,,,,,,,,,,F,139,hexagon,1,0,,3,,,,,,,,,,,,,,repeat,number,numRpt,j,1.577,vtsPrac,31,0,31,0,1,,,,,,,,,,,,,,,,,,,,,,,
293005,2022-11-29_23h06.47.609,vts_reward_expectancy_bt,2022.2.4,MacIntel,58.82352941,Safari,1440,900,,,,,0,729,,,,,,,,,,,,,,,,,H,146,triangle,1,0,,4,,,,,,,,,,,,,,repeat,number,numRpt,j,2.835,vtsPrac,0,0,0,0,1,,,,,,,,,,,,,,,,,,,,,,,
293005,2022-11-29_23h06.47.609,vts_reward_expectancy_bt,2022.2.4,MacIntel,58.82352941,Safari,1440,900,,,,,0,729,,,,,,,,,,,,,,,,,Y,174,star,1,0,,4,,,,,,,,,,,,,,repeat,number,numRpt,k,0.98,vtsPrac,1,0,1,0,1,,,,,,,,,,,,,,,,,,,,,,,
293005,2022-11-29_23h06.47.609,vts_reward_expectancy_bt,2022.2.4,MacIntel,58.82352941,Safari,1440,900,,,,,0,729,,,,,,,,,,,,,,,,,D,160,triangle,0,0,,4,,,,,,,,,,,,,,switch,letter,NA,f,0.042,vtsPrac,2,0,2,0,1,,,,,,,,,,,,,,,,,,,,,,,
293005,2022-11-29_23h06.47.609,vts_reward_expectancy_bt,2022.2.4,MacIntel,58.82352941,Safari,1440,900,,,,,0,729,,,,,,,,,,,,,,,,,F,139,star,1,1,,4,,,,,,,,,,,,,,switch,number,numSwt,j,0.794,vtsPrac,3,0,3,0,1,,,,,,,,,,,,,,,,,,,,,,,
293005,2022-11-29_23h06.47.609,vts_reward_expectancy_bt,2022.2.4,MacIntel,58.82352941,Safari,1440,900,,,,,0,729,,,,,,,,,,,,,,,,,H,146,hexagon,1,0,,4,,,,,,,,,,,,,,repeat,number,numRpt,j,0.893,vtsPrac,4,0,4,0,1,,,,,,,,,,,,,,,,,,,,,,,
293005,2022-11-29_23h06.47.609,vts_reward_expectancy_bt,2022.2.4,MacIntel,58.82352941,Safari,1440,900,,,,,0,729,,,,,,,,,,,,,,,,,Y,174,triangle,1,0,,4,,,,,,,,,,,,,,repeat,number,numRpt,k,1.483,vtsPrac,5,0,5,0,1,,,,,,,,,,,,,,,,,,,,,,,
293005,2022-11-29_23h06.47.609,vts_reward_expectancy_bt,2022.2.4,MacIntel,58.82352941,Safari,1440,900,,,,,0,729,,,,,,,,,,,,,,,,,D,160,star,1,0,,4,,,,,,,,,,,,,,repeat,number,numRpt,k,0.727,vtsPrac,6,0,6,0,1,,,,,,,,,,,,,,,,,,,,,,,
293005,2022-11-29_23h06.47.609,vts_reward_expectancy_bt,2022.2.4,MacIntel,58.82352941,Safari,1440,900,,,,,0,729,,,,,,,,,,,,,,,,,F,139,hexagon,1,0,,4,,,,,,,,,,,,,,repeat,number,numRpt,j,2.042,vtsPrac,7,0,7,0,1,,,,,,,,,,,,,,,,,,,,,,,
293005,2022-11-29_23h06.47.609,vts_reward_expectancy_bt,2022.2.4,MacIntel,58.82352941,Safari,1440,900,,,,,0,729,,,,,,,,,,,,,,,,,Y,174,triangle,1,0,,4,,,,,,,,,,,,,,repeat,number,numRpt,k,1.728,vtsPrac,8,0,8,0,1,,,,,,,,,,,,,,,,,,,,,,,
293005,2022-11-29_23h06.47.609,vts_reward_expectancy_bt,2022.2.4,MacIntel,58.82352941,Safari,1440,900,,,,,0,729,,,,,,,,,,,,,,,,,F,146,circle,1,0,,4,,,,,,,,,,,,,,repeat,number,numRpt,j,1.343,vtsPrac,9,0,9,0,1,,,,,,,,,,,,,,,,,,,,,,,
293005,2022-11-29_23h06.47.609,vts_reward_expectancy_bt,2022.2.4,MacIntel,58.82352941,Safari,1440,900,,,,,0,729,,,,,,,,,,,,,,,,,S,167,triangle,1,0,,4,,,,,,,,,,,,,,repeat,number,numRpt,k,1.244,vtsPrac,10,0,10,0,1,,,,,,,,,,,,,,,,,,,,,,,
293005,2022-11-29_23h06.47.609,vts_reward_expectancy_bt,2022.2.4,MacIntel,58.82352941,Safari,1440,900,,,,,0,729,,,,,,,,,,,,,,,,,H,181,star,1,0,,4,,,,,,,,,,,,,,repeat,number,numRpt,k,1.009,vtsPrac,11,0,11,0,1,,,,,,,,,,,,,,,,,,,,,,,
293005,2022-11-29_23h06.47.609,vts_reward_expectancy_bt,2022.2.4,MacIntel,58.82352941,Safari,1440,900,,,,,0,729,,,,,,,,,,,,,,,,,U,174,circle,1,0,,4,,,,,,,,,,,,,,repeat,number,numRpt,k,0.71,vtsPrac,12,0,12,0,1,,,,,,,,,,,,,,,,,,,,,,,
293005,2022-11-29_23h06.47.609,vts_reward_expectancy_bt,2022.2.4,MacIntel,58.82352941,Safari,1440,900,,,,,0,729,,,,,,,,,,,,,,,,,S,167,triangle,1,0,,4,,,,,,,,,,,,,,repeat,number,numRpt,k,0.979,vtsPrac,13,0,13,0,1,,,,,,,,,,,,,,,,,,,,,,,
293005,2022-11-29_23h06.47.609,vts_reward_expectancy_bt,2022.2.4,MacIntel,58.82352941,Safari,1440,900,,,,,0,729,,,,,,,,,,,,,,,,,D,139,triangle,1,0,,4,,,,,,,,,,,,,,repeat,number,numRpt,j,1.095,vtsPrac,14,0,14,0,1,,,,,,,,,,,,,,,,,,,,,,,
293005,2022-11-29_23h06.47.609,vts_reward_expectancy_bt,2022.2.4,MacIntel,58.82352941,Safari,1440,900,,,,,0,729,,,,,,,,,,,,,,,,,H,160,circle,1,0,,4,,,,,,,,,,,,,,repeat,number,numRpt,k,1.01,vtsPrac,15,0,15,0,1,,,,,,,,,,,,,,,,,,,,,,,
293005,2022-11-29_23h06.47.609,vts_reward_expectancy_bt,2022.2.4,MacIntel,58.82352941,Safari,1440,900,,,,,0,729,,,,,,,,,,,,,,,,,Y,160,hexagon,1,0,,4,,,,,,,,,,,,,,repeat,number,numRpt,k,1.596,vtsPrac,16,0,16,0,1,,,,,,,,,,,,,,,,,,,,,,,
293005,2022-11-29_23h06.47.609,vts_reward_expectancy_bt,2022.2.4,MacIntel,58.82352941,Safari,1440,900,,,,,0,729,,,,,,,,,,,,,,,,,W,167,star,1,0,,4,,,,,,,,,,,,,,repeat,number,numRpt,k,0.874,vtsPrac,17,0,17,0,1,,,,,,,,,,,,,,,,,,,,,,,
293005,2022-11-29_23h06.47.609,vts_reward_expectancy_bt,2022.2.4,MacIntel,58.82352941,Safari,1440,900,,,,,0,729,,,,,,,,,,,,,,,,,U,125,star,1,0,,4,,,,,,,,,,,,,,repeat,number,numRpt,j,0.694,vtsPrac,18,0,18,0,1,,,,,,,,,,,,,,,,,,,,,,,
293005,2022-11-29_23h06.47.609,vts_reward_expectancy_bt,2022.2.4,MacIntel,58.82352941,Safari,1440,900,,,,,0,729,,,,,,,,,,,,,,,,,F,174,hexagon,1,0,,4,,,,,,,,,,,,,,repeat,number,numRpt,k,0.926,vtsPrac,19,0,19,0,1,,,,,,,,,,,,,,,,,,,,,,,
293005,2022-11-29_23h06.47.609,vts_reward_expectancy_bt,2022.2.4,MacIntel,58.82352941,Safari,1440,900,,,,,0,729,,,,,,,,,,,,,,,,,U,132,star,1,0,,4,,,,,,,,,,,,,,repeat,number,numRpt,j,0.95,vtsPrac,20,0,20,0,1,,,,,,,,,,,,,,,,,,,,,,,
293005,2022-11-29_23h06.47.609,vts_reward_expectancy_bt,2022.2.4,MacIntel,58.82352941,Safari,1440,900,,,,,0,729,,,,,,,,,,,,,,,,,D,181,triangle,1,0,,4,,,,,,,,,,,,,,repeat,number,numRpt,k,0.908,vtsPrac,21,0,21,0,1,,,,,,,,,,,,,,,,,,,,,,,
293005,2022-11-29_23h06.47.609,vts_reward_expectancy_bt,2022.2.4,MacIntel,58.82352941,Safari,1440,900,,,,,0,729,,,,,,,,,,,,,,,,,Y,167,star,1,0,,4,,,,,,,,,,,,,,repeat,number,numRpt,k,0.757,vtsPrac,22,0,22,0,1,,,,,,,,,,,,,,,,,,,,,,,
293005,2022-11-29_23h06.47.609,vts_reward_expectancy_bt,2022.2.4,MacIntel,58.82352941,Safari,1440,900,,,,,0,729,,,,,,,,,,,,,,,,,W,160,circle,1,0,,4,,,,,,,,,,,,,,repeat,number,numRpt,k,1.743,vtsPrac,23,0,23,0,1,,,,,,,,,,,,,,,,,,,,,,,
293005,2022-11-29_23h06.47.609,vts_reward_expectancy_bt,2022.2.4,MacIntel,58.82352941,Safari,1440,900,,,,,0,729,,,,,,,,,,,,,,,,,Y,181,triangle,1,0,,4,,,,,,,,,,,,,,repeat,number,numRpt,k,0.993,vtsPrac,24,0,24,0,1,,,,,,,,,,,,,,,,,,,,,,,
293005,2022-11-29_23h06.47.609,vts_reward_expectancy_bt,2022.2.4,MacIntel,58.82352941,Safari,1440,900,,,,,0,729,,,,,,,,,,,,,,,,,W,132,star,1,0,,4,,,,,,,,,,,,,,repeat,number,numRpt,j,1.325,vtsPrac,25,0,25,0,1,,,,,,,,,,,,,,,,,,,,,,,
293005,2022-11-29_23h06.47.609,vts_reward_expectancy_bt,2022.2.4,MacIntel,58.82352941,Safari,1440,900,,,,,0,729,,,,,,,,,,,,,,,,,U,174,triangle,1,0,,4,,,,,,,,,,,,,,repeat,number,numRpt,k,1.398,vtsPrac,26,0,26,0,1,,,,,,,,,,,,,,,,,,,,,,,
293005,2022-11-29_23h06.47.609,vts_reward_expectancy_bt,2022.2.4,MacIntel,58.82352941,Safari,1440,900,,,,,0,729,,,,,,,,,,,,,,,,,D,146,circle,1,0,,4,,,,,,,,,,,,,,repeat,number,numRpt,j,1.861,vtsPrac,27,0,27,0,1,,,,,,,,,,,,,,,,,,,,,,,
293005,2022-11-29_23h06.47.609,vts_reward_expectancy_bt,2022.2.4,MacIntel,58.82352941,Safari,1440,900,,,,,0,729,,,,,,,,,,,,,,,,,H,132,circle,1,0,,4,,,,,,,,,,,,,,repeat,number,numRpt,j,1.38,vtsPrac,28,0,28,0,1,,,,,,,,,,,,,,,,,,,,,,,
293005,2022-11-29_23h06.47.609,vts_reward_expectancy_bt,2022.2.4,MacIntel,58.82352941,Safari,1440,900,,,,,0,729,,,,,,,,,,,,,,,,,S,139,triangle,1,0,,4,,,,,,,,,,,,,,repeat,number,numRpt,j,1.212,vtsPrac,29,0,29,0,1,,,,,,,,,,,,,,,,,,,,,,,
293005,2022-11-29_23h06.47.609,vts_reward_expectancy_bt,2022.2.4,MacIntel,58.82352941,Safari,1440,900,,,,,0,729,,,,,,,,,,,,,,,,,W,125,hexagon,1,0,,4,,,,,,,,,,,,,,repeat,number,numRpt,j,0.827,vtsPrac,30,0,30,0,1,,,,,,,,,,,,,,,,,,,,,,,
293005,2022-11-29_23h06.47.609,vts_reward_expectancy_bt,2022.2.4,MacIntel,58.82352941,Safari,1440,900,,,,,0,729,,,,,,,,,,,,,,,,,B,167,triangle,1,0,,4,,,,,,,,,,,,,,repeat,number,numRpt,k,0.766,vtsPrac,31,0,31,0,1,,,,,,,,,,,,,,,,,,,,,,,
293005,2022-11-29_23h06.47.609,vts_reward_expectancy_bt,2022.2.4,MacIntel,58.82352941,Safari,1440,900,,,,,0,729,,,,,,,,,,,,,,,,,H,139,hexagon,-1,0,,5,,,,,,,,,,,,,,switch,no_choice,NA,,,vtsPrac,0,0,0,0,1,,,,,,,,,,,,,,,,,,,,,,,
293005,2022-11-29_23h06.47.609,vts_reward_expectancy_bt,2022.2.4,MacIntel,58.82352941,Safari,1440,900,,,,,0,729,,,,,,,,,,,,,,,,,B,181,circle,1,0,,5,,,,,,,,,,,,,,switch,number,numSwt,k,2.217,vtsPrac,1,0,1,0,1,,,,,,,,,,,,,,,,,,,,,,,
293005,2022-11-29_23h06.47.609,vts_reward_expectancy_bt,2022.2.4,MacIntel,58.82352941,Safari,1440,900,,,,,0,729,,,,,,,,,,,,,,,,,D,125,hexagon,1,0,,5,,,,,,,,,,,,,,repeat,number,numRpt,j,2.209,vtsPrac,2,0,2,0,1,,,,,,,,,,,,,,,,,,,,,,,
293005,2022-11-29_23h06.47.609,vts_reward_expectancy_bt,2022.2.4,MacIntel,58.82352941,Safari,1440,900,,,,,0,729,,,,,,,,,,,,,,,,,Y,160,circle,0,0,,5,,,,,,,,,,,,,,switch,letter,NA,d,1.412,vtsPrac,3,0,3,0,1,,,,,,,,,,,,,,,,,,,,,,,
293005,2022-11-29_23h06.47.609,vts_reward_expectancy_bt,2022.2.4,MacIntel,58.82352941,Safari,1440,900,,,,,0,729,,,,,,,,,,,,,,,,,H,139,circle,1,1,,5,,,,,,,,,,,,,,repeat,letter,lettRpt,d,2.094,vtsPrac,4,0,4,0,1,,,,,,,,,,,,,,,,,,,,,,,
293005,2022-11-29_23h06.47.609,vts_reward_expectancy_bt,2022.2.4,MacIntel,58.82352941,Safari,1440,900,,,,,0,729,,,,,,,,,,,,,,,,,B,181,star,1,0,,5,,,,,,,,,,,,,,repeat,letter,lettRpt,d,1.026,vtsPrac,5,0,5,0,1,,,,,,,,,,,,,,,,,,,,,,,
293005,2022-11-29_23h06.47.609,vts_reward_expectancy_bt,2022.2.4,MacIntel,58.82352941,Safari,1440,900,,,,,0,729,,,,,,,,,,,,,,,,,D,125,star,1,0,,5,,,,,,,,,,,,,,repeat,letter,lettRpt,d,0.894,vtsPrac,6,0,6,0,1,,,,,,,,,,,,,,,,,,,,,,,
293005,2022-11-29_23h06.47.609,vts_reward_expectancy_bt,2022.2.4,MacIntel,58.82352941,Safari,1440,900,,,,,0,729,,,,,,,,,,,,,,,,,Y,160,hexagon,1,0,,5,,,,,,,,,,,,,,repeat,letter,lettRpt,f,0.995,vtsPrac,7,0,7,0,1,,,,,,,,,,,,,,,,,,,,,,,
293005,2022-11-29_23h06.47.609,vts_reward_expectancy_bt,2022.2.4,MacIntel,58.82352941,Safari,1440,900,,,,,0,729,,,,,,,,,,,,,,,,,S,132,hexagon,1,0,,5,,,,,,,,,,,,,,repeat,letter,lettRpt,f,1.345,vtsPrac,8,0,8,0,1,,,,,,,,,,,,,,,,,,,,,,,
293005,2022-11-29_23h06.47.609,vts_reward_expectancy_bt,2022.2.4,MacIntel,58.82352941,Safari,1440,900,,,,,0,729,,,,,,,,,,,,,,,,,W,146,circle,1,0,,5,,,,,,,,,,,,,,repeat,letter,lettRpt,f,0.881,vtsPrac,9,0,9,0,1,,,,,,,,,,,,,,,,,,,,,,,
293005,2022-11-29_23h06.47.609,vts_reward_expectancy_bt,2022.2.4,MacIntel,58.82352941,Safari,1440,900,,,,,0,729,,,,,,,,,,,,,,,,,U,160,circle,1,0,,5,,,,,,,,,,,,,,repeat,letter,lettRpt,f,0.809,vtsPrac,10,0,10,0,1,,,,,,,,,,,,,,,,,,,,,,,
293005,2022-11-29_23h06.47.609,vts_reward_expectancy_bt,2022.2.4,MacIntel,58.82352941,Safari,1440,900,,,,,0,729,,,,,,,,,,,,,,,,,F,125,star,1,0,,5,,,,,,,,,,,,,,repeat,letter,lettRpt,d,1.661,vtsPrac,11,0,11,0,1,,,,,,,,,,,,,,,,,,,,,,,
293005,2022-11-29_23h06.47.609,vts_reward_expectancy_bt,2022.2.4,MacIntel,58.82352941,Safari,1440,900,,,,,0,729,,,,,,,,,,,,,,,,,F,167,star,1,0,,5,,,,,,,,,,,,,,repeat,letter,lettRpt,d,0.779,vtsPrac,12,0,12,0,1,,,,,,,,,,,,,,,,,,,,,,,
293005,2022-11-29_23h06.47.609,vts_reward_expectancy_bt,2022.2.4,MacIntel,58.82352941,Safari,1440,900,,,,,0,729,,,,,,,,,,,,,,,,,S,181,circle,1,0,,5,,,,,,,,,,,,,,repeat,letter,lettRpt,f,0.727,vtsPrac,13,0,13,0,1,,,,,,,,,,,,,,,,,,,,,,,
293005,2022-11-29_23h06.47.609,vts_reward_expectancy_bt,2022.2.4,MacIntel,58.82352941,Safari,1440,900,,,,,0,729,,,,,,,,,,,,,,,,,B,174,star,1,0,,5,,,,,,,,,,,,,,repeat,letter,lettRpt,d,0.659,vtsPrac,14,0,14,0,1,,,,,,,,,,,,,,,,,,,,,,,
293005,2022-11-29_23h06.47.609,vts_reward_expectancy_bt,2022.2.4,MacIntel,58.82352941,Safari,1440,900,,,,,0,729,,,,,,,,,,,,,,,,,U,139,circle,1,0,,5,,,,,,,,,,,,,,repeat,letter,lettRpt,f,0.709,vtsPrac,15,0,15,0,1,,,,,,,,,,,,,,,,,,,,,,,
293005,2022-11-29_23h06.47.609,vts_reward_expectancy_bt,2022.2.4,MacIntel,58.82352941,Safari,1440,900,,,,,0,729,,,,,,,,,,,,,,,,,U,125,circle,1,0,,5,,,,,,,,,,,,,,repeat,letter,lettRpt,f,0.729,vtsPrac,16,0,16,0,1,,,,,,,,,,,,,,,,,,,,,,,
293005,2022-11-29_23h06.47.609,vts_reward_expectancy_bt,2022.2.4,MacIntel,58.82352941,Safari,1440,900,,,,,0,729,,,,,,,,,,,,,,,,,Y,174,star,1,0,,5,,,,,,,,,,,,,,repeat,letter,lettRpt,f,0.915,vtsPrac,17,0,17,0,1,,,,,,,,,,,,,,,,,,,,,,,
293005,2022-11-29_23h06.47.609,vts_reward_expectancy_bt,2022.2.4,MacIntel,58.82352941,Safari,1440,900,,,,,0,729,,,,,,,,,,,,,,,,,B,167,triangle,1,0,,5,,,,,,,,,,,,,,repeat,letter,lettRpt,d,0.66,vtsPrac,18,0,18,0,1,,,,,,,,,,,,,,,,,,,,,,,
293005,2022-11-29_23h06.47.609,vts_reward_expectancy_bt,2022.2.4,MacIntel,58.82352941,Safari,1440,900,,,,,0,729,,,,,,,,,,,,,,,,,F,139,circle,1,0,,5,,,,,,,,,,,,,,repeat,letter,lettRpt,d,1.114,vtsPrac,19,0,19,0,1,,,,,,,,,,,,,,,,,,,,,,,
293005,2022-11-29_23h06.47.609,vts_reward_expectancy_bt,2022.2.4,MacIntel,58.82352941,Safari,1440,900,,,,,0,729,,,,,,,,,,,,,,,,,D,181,hexagon,1,0,,5,,,,,,,,,,,,,,repeat,letter,lettRpt,d,1.096,vtsPrac,20,0,20,0,1,,,,,,,,,,,,,,,,,,,,,,,
293005,2022-11-29_23h06.47.609,vts_reward_expectancy_bt,2022.2.4,MacIntel,58.82352941,Safari,1440,900,,,,,0,729,,,,,,,,,,,,,,,,,U,174,triangle,1,0,,5,,,,,,,,,,,,,,repeat,letter,lettRpt,f,1.126,vtsPrac,21,0,21,0,1,,,,,,,,,,,,,,,,,,,,,,,
293005,2022-11-29_23h06.47.609,vts_reward_expectancy_bt,2022.2.4,MacIntel,58.82352941,Safari,1440,900,,,,,0,729,,,,,,,,,,,,,,,,,B,139,star,1,0,,5,,,,,,,,,,,,,,repeat,letter,lettRpt,d,0.88,vtsPrac,22,0,22,0,1,,,,,,,,,,,,,,,,,,,,,,,
293005,2022-11-29_23h06.47.609,vts_reward_expectancy_bt,2022.2.4,MacIntel,58.82352941,Safari,1440,900,,,,,0,729,,,,,,,,,,,,,,,,,F,167,triangle,1,0,,5,,,,,,,,,,,,,,repeat,letter,lettRpt,d,1.732,vtsPrac,23,0,23,0,1,,,,,,,,,,,,,,,,,,,,,,,
293005,2022-11-29_23h06.47.609,vts_reward_expectancy_bt,2022.2.4,MacIntel,58.82352941,Safari,1440,900,,,,,0,729,,,,,,,,,,,,,,,,,F,167,circle,1,0,,5,,,,,,,,,,,,,,repeat,letter,lettRpt,d,1.137,vtsPrac,24,0,24,0,1,,,,,,,,,,,,,,,,,,,,,,,
293005,2022-11-29_23h06.47.609,vts_reward_expectancy_bt,2022.2.4,MacIntel,58.82352941,Safari,1440,900,,,,,0,729,,,,,,,,,,,,,,,,,U,146,triangle,1,0,,5,,,,,,,,,,,,,,repeat,letter,lettRpt,f,0.892,vtsPrac,25,0,25,0,1,,,,,,,,,,,,,,,,,,,,,,,
293005,2022-11-29_23h06.47.609,vts_reward_expectancy_bt,2022.2.4,MacIntel,58.82352941,Safari,1440,900,,,,,0,729,,,,,,,,,,,,,,,,,S,160,hexagon,1,0,,5,,,,,,,,,,,,,,repeat,letter,lettRpt,f,1.109,vtsPrac,26,0,26,0,1,,,,,,,,,,,,,,,,,,,,,,,
293005,2022-11-29_23h06.47.609,vts_reward_expectancy_bt,2022.2.4,MacIntel,58.82352941,Safari,1440,900,,,,,0,729,,,,,,,,,,,,,,,,,B,139,circle,1,0,,5,,,,,,,,,,,,,,repeat,letter,lettRpt,d,0.693,vtsPrac,27,0,27,0,1,,,,,,,,,,,,,,,,,,,,,,,
293005,2022-11-29_23h06.47.609,vts_reward_expectancy_bt,2022.2.4,MacIntel,58.82352941,Safari,1440,900,,,,,0,729,,,,,,,,,,,,,,,,,Y,146,star,1,0,,5,,,,,,,,,,,,,,repeat,letter,lettRpt,f,0.942,vtsPrac,28,0,28,0,1,,,,,,,,,,,,,,,,,,,,,,,
293005,2022-11-29_23h06.47.609,vts_reward_expectancy_bt,2022.2.4,MacIntel,58.82352941,Safari,1440,900,,,,,0,729,,,,,,,,,,,,,,,,,W,132,hexagon,1,0,,5,,,,,,,,,,,,,,repeat,letter,lettRpt,f,1.277,vtsPrac,29,0,29,0,1,,,,,,,,,,,,,,,,,,,,,,,
293005,2022-11-29_23h06.47.609,vts_reward_expectancy_bt,2022.2.4,MacIntel,58.82352941,Safari,1440,900,,,,,0,729,,,,,,,,,,,,,,,,,D,174,hexagon,1,0,,5,,,,,,,,,,,,,,repeat,letter,lettRpt,d,0.891,vtsPrac,30,0,30,0,1,,,,,,,,,,,,,,,,,,,,,,,
293005,2022-11-29_23h06.47.609,vts_reward_expectancy_bt,2022.2.4,MacIntel,58.82352941,Safari,1440,900,,,,,0,729,,,,,,,,,,,,,,,,,F,125,star,1,0,,5,,,,,,,,,,,,,,repeat,letter,lettRpt,d,0.917,vtsPrac,31,0,31,0,1,,,,,,,,,,,,,,,,,,,,,,,
293005,2022-11-29_23h06.47.609,vts_reward_expectancy_bt,2022.2.4,MacIntel,58.82352941,Safari,1440,900,,,,,,,,,,,,,,,,,,,,,,,,,,,,,,,,,,,,,,,,,,,,,,,,,,,,,,,,,,,,,,,,,,,,,,,,,,,,
293005,2022-11-29_23h06.47.609,vts_reward_expectancy_bt,2022.2.4,MacIntel,58.82352941,Safari,1440,900,,,,,,,,,,,,,,,,,,,,,,,,,,,,,,,,,,,,,,,,,,,,,,,,,,,,,,,,,,,,,,,,,,,,,,,,,,,,
293005,2022-11-29_23h06.47.609,vts_reward_expectancy_bt,2022.2.4,MacIntel,58.82352941,Safari,1440,900,,,,,0,729,,,,,,,,,,,,,,,,,S,167,circle,1,0,,,,,,,,,,,,,,,,repeat,letter,lettRpt,f,0.828,noRew,,,,,,0,0,0,0,0,1,,,,,,,,,,,,,,,,,
293005,2022-11-29_23h06.47.609,vts_reward_expectancy_bt,2022.2.4,MacIntel,58.82352941,Safari,1440,900,,,,,0,729,,,,,,,,,,,,,,,,,Y,174,star,1,0,,,,,,,,,,,,,,,,repeat,letter,lettRpt,f,0.676,noRew,,,,,,0,1,0,1,0,1,,,,,,,,,,,,,,,,,
293005,2022-11-29_23h06.47.609,vts_reward_expectancy_bt,2022.2.4,MacIntel,58.82352941,Safari,1440,900,,,,,0,729,,,,,,,,,,,,,,,,,B,160,circle,1,0,,,,,,,,,,,,,,,,repeat,letter,lettRpt,d,0.659,noRew,,,,,,0,2,0,2,0,1,,,,,,,,,,,,,,,,,
293005,2022-11-29_23h06.47.609,vts_reward_expectancy_bt,2022.2.4,MacIntel,58.82352941,Safari,1440,900,,,,,0,729,,,,,,,,,,,,,,,,,U,132,star,1,0,,,,,,,,,,,,,,,,repeat,letter,lettRpt,f,0.659,noRew,,,,,,0,3,0,3,0,1,,,,,,,,,,,,,,,,,
293005,2022-11-29_23h06.47.609,vts_reward_expectancy_bt,2022.2.4,MacIntel,58.82352941,Safari,1440,900,,,,,0,729,,,,,,,,,,,,,,,,,S,167,circle,1,0,,,,,,,,,,,,,,,,repeat,letter,lettRpt,f,0.844,noRew,,,,,,0,4,0,4,0,1,,,,,,,,,,,,,,,,,
293005,2022-11-29_23h06.47.609,vts_reward_expectancy_bt,2022.2.4,MacIntel,58.82352941,Safari,1440,900,,,,,0,729,,,,,,,,,,,,,,,,,Y,174,triangle,1,0,,,,,,,,,,,,,,,,repeat,letter,lettRpt,f,0.701,noRew,,,,,,0,5,0,5,0,1,,,,,,,,,,,,,,,,,
293005,2022-11-29_23h06.47.609,vts_reward_expectancy_bt,2022.2.4,MacIntel,58.82352941,Safari,1440,900,,,,,0,729,,,,,,,,,,,,,,,,,B,160,star,1,0,,,,,,,,,,,,,,,,repeat,letter,lettRpt,d,0.51,noRew,,,,,,0,6,0,6,0,1,,,,,,,,,,,,,,,,,
293005,2022-11-29_23h06.47.609,vts_reward_expectancy_bt,2022.2.4,MacIntel,58.82352941,Safari,1440,900,,,,,0,729,,,,,,,,,,,,,,,,,U,132,hexagon,1,0,,,,,,,,,,,,,,,,repeat,letter,lettRpt,f,0.742,noRew,,,,,,0,7,0,7,0,1,,,,,,,,,,,,,,,,,
293005,2022-11-29_23h06.47.609,vts_reward_expectancy_bt,2022.2.4,MacIntel,58.82352941,Safari,1440,900,,,,,0,729,,,,,,,,,,,,,,,,,Y,146,star,1,0,,,,,,,,,,,,,,,,repeat,letter,lettRpt,f,0.808,noRew,,,,,,0,8,0,8,0,1,,,,,,,,,,,,,,,,,
293005,2022-11-29_23h06.47.609,vts_reward_expectancy_bt,2022.2.4,MacIntel,58.82352941,Safari,1440,900,,,,,0,729,,,,,,,,,,,,,,,,,B,139,circle,1,0,,,,,,,,,,,,,,,,repeat,letter,lettRpt,d,0.78,noRew,,,,,,0,9,0,9,0,1,,,,,,,,,,,,,,,,,
293005,2022-11-29_23h06.47.609,vts_reward_expectancy_bt,2022.2.4,MacIntel,58.82352941,Safari,1440,900,,,,,0,729,,,,,,,,,,,,,,,,,S,132,star,1,0,,,,,,,,,,,,,,,,repeat,letter,lettRpt,f,0.898,noRew,,,,,,0,10,0,10,0,1,,,,,,,,,,,,,,,,,
293005,2022-11-29_23h06.47.609,vts_reward_expectancy_bt,2022.2.4,MacIntel,58.82352941,Safari,1440,900,,,,,0,729,,,,,,,,,,,,,,,,,D,181,hexagon,1,0,,,,,,,,,,,,,,,,repeat,letter,lettRpt,d,0.927,noRew,,,,,,0,11,0,11,0,1,,,,,,,,,,,,,,,,,
293005,2022-11-29_23h06.47.609,vts_reward_expectancy_bt,2022.2.4,MacIntel,58.82352941,Safari,1440,900,,,,,0,729,,,,,,,,,,,,,,,,,S,167,circle,1,0,,,,,,,,,,,,,,,,repeat,letter,lettRpt,f,0.884,noRew,,,,,,0,12,0,12,0,1,,,,,,,,,,,,,,,,,
293005,2022-11-29_23h06.47.609,vts_reward_expectancy_bt,2022.2.4,MacIntel,58.82352941,Safari,1440,900,,,,,0,729,,,,,,,,,,,,,,,,,B,146,triangle,1,0,,,,,,,,,,,,,,,,repeat,letter,lettRpt,d,0.679,noRew,,,,,,0,13,0,13,0,1,,,,,,,,,,,,,,,,,
293005,2022-11-29_23h06.47.609,vts_reward_expectancy_bt,2022.2.4,MacIntel,58.82352941,Safari,1440,900,,,,,0,729,,,,,,,,,,,,,,,,,W,132,triangle,1,0,,,,,,,,,,,,,,,,repeat,letter,lettRpt,f,0.81,noRew,,,,,,0,14,0,14,0,1,,,,,,,,,,,,,,,,,
293005,2022-11-29_23h06.47.609,vts_reward_expectancy_bt,2022.2.4,MacIntel,58.82352941,Safari,1440,900,,,,,0,729,,,,,,,,,,,,,,,,,U,160,circle,1,0,,,,,,,,,,,,,,,,repeat,letter,lettRpt,f,0.726,noRew,,,,,,0,15,0,15,0,1,,,,,,,,,,,,,,,,,
293005,2022-11-29_23h06.47.609,vts_reward_expectancy_bt,2022.2.4,MacIntel,58.82352941,Safari,1440,900,,,,,0,729,,,,,,,,,,,,,,,,,D,167,star,1,0,,,,,,,,,,,,,,,,repeat,letter,lettRpt,d,0.727,noRew,,,,,,0,16,0,16,0,1,,,,,,,,,,,,,,,,,
293005,2022-11-29_23h06.47.609,vts_reward_expectancy_bt,2022.2.4,MacIntel,58.82352941,Safari,1440,900,,,,,0,729,,,,,,,,,,,,,,,,,S,125,triangle,1,0,,,,,,,,,,,,,,,,repeat,letter,lettRpt,f,0.959,noRew,,,,,,0,17,0,17,0,1,,,,,,,,,,,,,,,,,
293005,2022-11-29_23h06.47.609,vts_reward_expectancy_bt,2022.2.4,MacIntel,58.82352941,Safari,1440,900,,,,,0,729,,,,,,,,,,,,,,,,,B,160,hexagon,1,0,,,,,,,,,,,,,,,,repeat,letter,lettRpt,d,0.694,noRew,,,,,,0,18,0,18,0,1,,,,,,,,,,,,,,,,,
293005,2022-11-29_23h06.47.609,vts_reward_expectancy_bt,2022.2.4,MacIntel,58.82352941,Safari,1440,900,,,,,0,729,,,,,,,,,,,,,,,,,U,181,star,1,0,,,,,,,,,,,,,,,,repeat,letter,lettRpt,f,0.775,noRew,,,,,,0,19,0,19,0,1,,,,,,,,,,,,,,,,,
293005,2022-11-29_23h06.47.609,vts_reward_expectancy_bt,2022.2.4,MacIntel,58.82352941,Safari,1440,900,,,,,0,729,,,,,,,,,,,,,,,,,U,160,triangle,1,0,,,,,,,,,,,,,,,,repeat,letter,lettRpt,f,1.695,noRew,,,,,,0,20,0,20,0,1,,,,,,,,,,,,,,,,,
293005,2022-11-29_23h06.47.609,vts_reward_expectancy_bt,2022.2.4,MacIntel,58.82352941,Safari,1440,900,,,,,0,729,,,,,,,,,,,,,,,,,Y,146,star,1,0,,,,,,,,,,,,,,,,repeat,letter,lettRpt,f,0.648,noRew,,,,,,0,21,0,21,0,1,,,,,,,,,,,,,,,,,
293005,2022-11-29_23h06.47.609,vts_reward_expectancy_bt,2022.2.4,MacIntel,58.82352941,Safari,1440,900,,,,,0,729,,,,,,,,,,,,,,,,,H,167,star,1,0,,,,,,,,,,,,,,,,repeat,letter,lettRpt,d,1.142,noRew,,,,,,0,22,0,22,0,1,,,,,,,,,,,,,,,,,
293005,2022-11-29_23h06.47.609,vts_reward_expectancy_bt,2022.2.4,MacIntel,58.82352941,Safari,1440,900,,,,,0,729,,,,,,,,,,,,,,,,,W,125,hexagon,1,0,,,,,,,,,,,,,,,,repeat,letter,lettRpt,f,0.643,noRew,,,,,,0,23,0,23,0,1,,,,,,,,,,,,,,,,,
293005,2022-11-29_23h06.47.609,vts_reward_expectancy_bt,2022.2.4,MacIntel,58.82352941,Safari,1440,900,,,,,0,729,,,,,,,,,,,,,,,,,F,125,star,1,0,,,,,,,,,,,,,,,,repeat,letter,lettRpt,d,0.662,noRew,,,,,,0,24,0,24,0,1,,,,,,,,,,,,,,,,,
293005,2022-11-29_23h06.47.609,vts_reward_expectancy_bt,2022.2.4,MacIntel,58.82352941,Safari,1440,900,,,,,0,729,,,,,,,,,,,,,,,,,U,139,hexagon,1,0,,,,,,,,,,,,,,,,repeat,letter,lettRpt,f,0.961,noRew,,,,,,0,25,0,25,0,1,,,,,,,,,,,,,,,,,
293005,2022-11-29_23h06.47.609,vts_reward_expectancy_bt,2022.2.4,MacIntel,58.82352941,Safari,1440,900,,,,,0,729,,,,,,,,,,,,,,,,,Y,174,circle,1,0,,,,,,,,,,,,,,,,repeat,letter,lettRpt,f,0.943,noRew,,,,,,0,26,0,26,0,1,,,,,,,,,,,,,,,,,
293005,2022-11-29_23h06.47.609,vts_reward_expectancy_bt,2022.2.4,MacIntel,58.82352941,Safari,1440,900,,,,,0,729,,,,,,,,,,,,,,,,,H,167,star,1,0,,,,,,,,,,,,,,,,repeat,letter,lettRpt,d,0.91,noRew,,,,,,0,27,0,27,0,1,,,,,,,,,,,,,,,,,
293005,2022-11-29_23h06.47.609,vts_reward_expectancy_bt,2022.2.4,MacIntel,58.82352941,Safari,1440,900,,,,,0,729,,,,,,,,,,,,,,,,,F,132,circle,1,0,,,,,,,,,,,,,,,,repeat,letter,lettRpt,d,0.943,noRew,,,,,,0,28,0,28,0,1,,,,,,,,,,,,,,,,,
293005,2022-11-29_23h06.47.609,vts_reward_expectancy_bt,2022.2.4,MacIntel,58.82352941,Safari,1440,900,,,,,0,729,,,,,,,,,,,,,,,,,W,174,triangle,1,0,,,,,,,,,,,,,,,,repeat,letter,lettRpt,f,0.909,noRew,,,,,,0,29,0,29,0,1,,,,,,,,,,,,,,,,,
293005,2022-11-29_23h06.47.609,vts_reward_expectancy_bt,2022.2.4,MacIntel,58.82352941,Safari,1440,900,,,,,0,729,,,,,,,,,,,,,,,,,B,160,circle,1,0,,,,,,,,,,,,,,,,repeat,letter,lettRpt,d,1.094,noRew,,,,,,0,30,0,30,0,1,,,,,,,,,,,,,,,,,
293005,2022-11-29_23h06.47.609,vts_reward_expectancy_bt,2022.2.4,MacIntel,58.82352941,Safari,1440,900,,,,,0,729,,,,,,,,,,,,,,,,,D,146,triangle,1,0,,,,,,,,,,,,,,,,repeat,letter,lettRpt,d,0.876,noRew,,,,,,0,31,0,31,0,1,,,,,,,,,,,,,,,,,
293005,2022-11-29_23h06.47.609,vts_reward_expectancy_bt,2022.2.4,MacIntel,58.82352941,Safari,1440,900,,,,,0,729,,,,,,,,,,,,,,,,,B,125,circle,1,0,,,,,,,,,,,,,,,,repeat,letter,lettRpt,d,0.81,noRew,,,,,,0,32,0,32,0,1,,,,,,,,,,,,,,,,,
293005,2022-11-29_23h06.47.609,vts_reward_expectancy_bt,2022.2.4,MacIntel,58.82352941,Safari,1440,900,,,,,0,729,,,,,,,,,,,,,,,,,S,174,triangle,1,0,,,,,,,,,,,,,,,,repeat,letter,lettRpt,f,0.943,noRew,,,,,,0,33,0,33,0,1,,,,,,,,,,,,,,,,,
293005,2022-11-29_23h06.47.609,vts_reward_expectancy_bt,2022.2.4,MacIntel,58.82352941,Safari,1440,900,,,,,0,729,,,,,,,,,,,,,,,,,W,146,hexagon,1,0,,,,,,,,,,,,,,,,repeat,letter,lettRpt,f,1.026,noRew,,,,,,0,34,0,34,0,1,,,,,,,,,,,,,,,,,
293005,2022-11-29_23h06.47.609,vts_reward_expectancy_bt,2022.2.4,MacIntel,58.82352941,Safari,1440,900,,,,,0,729,,,,,,,,,,,,,,,,,F,167,star,1,0,,,,,,,,,,,,,,,,repeat,letter,lettRpt,d,1.51,noRew,,,,,,0,35,0,35,0,1,,,,,,,,,,,,,,,,,
293005,2022-11-29_23h06.47.609,vts_reward_expectancy_bt,2022.2.4,MacIntel,58.82352941,Safari,1440,900,,,,,0,729,,,,,,,,,,,,,,,,,Y,160,hexagon,1,0,,,,,,,,,,,,,,,,repeat,letter,lettRpt,f,0.948,noRew,,,,,,0,36,0,36,0,1,,,,,,,,,,,,,,,,,
293005,2022-11-29_23h06.47.609,vts_reward_expectancy_bt,2022.2.4,MacIntel,58.82352941,Safari,1440,900,,,,,0,729,,,,,,,,,,,,,,,,,W,167,circle,1,0,,,,,,,,,,,,,,,,repeat,letter,lettRpt,f,0.83,noRew,,,,,,0,37,0,37,0,1,,,,,,,,,,,,,,,,,
293005,2022-11-29_23h06.47.609,vts_reward_expectancy_bt,2022.2.4,MacIntel,58.82352941,Safari,1440,900,,,,,0,729,,,,,,,,,,,,,,,,,H,125,hexagon,1,0,,,,,,,,,,,,,,,,repeat,letter,lettRpt,d,1.133,noRew,,,,,,0,38,0,38,0,1,,,,,,,,,,,,,,,,,
293005,2022-11-29_23h06.47.609,vts_reward_expectancy_bt,2022.2.4,MacIntel,58.82352941,Safari,1440,900,,,,,0,729,,,,,,,,,,,,,,,,,B,146,star,1,0,,,,,,,,,,,,,,,,repeat,letter,lettRpt,d,1.243,noRew,,,,,,0,39,0,39,0,1,,,,,,,,,,,,,,,,,
293005,2022-11-29_23h06.47.609,vts_reward_expectancy_bt,2022.2.4,MacIntel,58.82352941,Safari,1440,900,,,,,0,729,,,,,,,,,,,,,,,,,H,146,triangle,1,0,,,,,,,,,,,,,,,,repeat,letter,lettRpt,d,1.798,noRew,,,,,,0,40,0,40,0,1,,,,,,,,,,,,,,,,,
293005,2022-11-29_23h06.47.609,vts_reward_expectancy_bt,2022.2.4,MacIntel,58.82352941,Safari,1440,900,,,,,0,729,,,,,,,,,,,,,,,,,U,174,hexagon,1,0,,,,,,,,,,,,,,,,repeat,letter,lettRpt,f,2.47,noRew,,,,,,0,41,0,41,0,1,,,,,,,,,,,,,,,,,
293005,2022-11-29_23h06.47.609,vts_reward_expectancy_bt,2022.2.4,MacIntel,58.82352941,Safari,1440,900,,,,,0,729,,,,,,,,,,,,,,,,,B,160,circle,1,0,,,,,,,,,,,,,,,,repeat,letter,lettRpt,d,0.792,noRew,,,,,,0,42,0,42,0,1,,,,,,,,,,,,,,,,,
293005,2022-11-29_23h06.47.609,vts_reward_expectancy_bt,2022.2.4,MacIntel,58.82352941,Safari,1440,900,,,,,0,729,,,,,,,,,,,,,,,,,Y,132,hexagon,1,0,,,,,,,,,,,,,,,,repeat,letter,lettRpt,f,0.912,noRew,,,,,,0,43,0,43,0,1,,,,,,,,,,,,,,,,,
293005,2022-11-29_23h06.47.609,vts_reward_expectancy_bt,2022.2.4,MacIntel,58.82352941,Safari,1440,900,,,,,0,729,,,,,,,,,,,,,,,,,Y,160,star,1,0,,,,,,,,,,,,,,,,repeat,letter,lettRpt,f,0.928,noRew,,,,,,0,44,0,44,0,1,,,,,,,,,,,,,,,,,
293005,2022-11-29_23h06.47.609,vts_reward_expectancy_bt,2022.2.4,MacIntel,58.82352941,Safari,1440,900,,,,,0,729,,,,,,,,,,,,,,,,,H,146,hexagon,1,0,,,,,,,,,,,,,,,,repeat,letter,lettRpt,d,0.826,noRew,,,,,,0,45,0,45,0,1,,,,,,,,,,,,,,,,,
293005,2022-11-29_23h06.47.609,vts_reward_expectancy_bt,2022.2.4,MacIntel,58.82352941,Safari,1440,900,,,,,0,729,,,,,,,,,,,,,,,,,F,174,hexagon,1,0,,,,,,,,,,,,,,,,repeat,letter,lettRpt,d,0.994,noRew,,,,,,0,46,0,46,0,1,,,,,,,,,,,,,,,,,
293005,2022-11-29_23h06.47.609,vts_reward_expectancy_bt,2022.2.4,MacIntel,58.82352941,Safari,1440,900,,,,,0,729,,,,,,,,,,,,,,,,,B,139,star,1,0,,,,,,,,,,,,,,,,repeat,letter,lettRpt,d,0.742,noRew,,,,,,0,47,0,47,0,1,,,,,,,,,,,,,,,,,
293005,2022-11-29_23h06.47.609,vts_reward_expectancy_bt,2022.2.4,MacIntel,58.82352941,Safari,1440,900,,,,,0,729,,,,,,,,,,,,,,,,,B,167,triangle,1,0,,,,,,,,,,,,,,,,repeat,letter,lettRpt,d,0.563,noRew,,,,,,0,48,0,48,0,1,,,,,,,,,,,,,,,,,
293005,2022-11-29_23h06.47.609,vts_reward_expectancy_bt,2022.2.4,MacIntel,58.82352941,Safari,1440,900,,,,,0,729,,,,,,,,,,,,,,,,,U,139,circle,1,0,,,,,,,,,,,,,,,,repeat,letter,lettRpt,f,0.914,noRew,,,,,,0,49,0,49,0,1,,,,,,,,,,,,,,,,,
293005,2022-11-29_23h06.47.609,vts_reward_expectancy_bt,2022.2.4,MacIntel,58.82352941,Safari,1440,900,,,,,0,729,,,,,,,,,,,,,,,,,F,181,hexagon,1,0,,,,,,,,,,,,,,,,repeat,letter,lettRpt,d,0.808,noRew,,,,,,0,50,0,50,0,1,,,,,,,,,,,,,,,,,
293005,2022-11-29_23h06.47.609,vts_reward_expectancy_bt,2022.2.4,MacIntel,58.82352941,Safari,1440,900,,,,,0,729,,,,,,,,,,,,,,,,,H,146,triangle,1,0,,,,,,,,,,,,,,,,repeat,letter,lettRpt,d,1.029,noRew,,,,,,0,51,0,51,0,1,,,,,,,,,,,,,,,,,
293005,2022-11-29_23h06.47.609,vts_reward_expectancy_bt,2022.2.4,MacIntel,58.82352941,Safari,1440,900,,,,,0,729,,,,,,,,,,,,,,,,,W,139,circle,1,0,,,,,,,,,,,,,,,,repeat,letter,lettRpt,f,1.095,noRew,,,,,,0,52,0,52,0,1,,,,,,,,,,,,,,,,,
293005,2022-11-29_23h06.47.609,vts_reward_expectancy_bt,2022.2.4,MacIntel,58.82352941,Safari,1440,900,,,,,0,729,,,,,,,,,,,,,,,,,F,174,triangle,1,0,,,,,,,,,,,,,,,,repeat,letter,lettRpt,d,1.126,noRew,,,,,,0,53,0,53,0,1,,,,,,,,,,,,,,,,,
293005,2022-11-29_23h06.47.609,vts_reward_expectancy_bt,2022.2.4,MacIntel,58.82352941,Safari,1440,900,,,,,0,729,,,,,,,,,,,,,,,,,Y,146,circle,1,0,,,,,,,,,,,,,,,,repeat,letter,lettRpt,f,0.749,noRew,,,,,,0,54,0,54,0,1,,,,,,,,,,,,,,,,,
293005,2022-11-29_23h06.47.609,vts_reward_expectancy_bt,2022.2.4,MacIntel,58.82352941,Safari,1440,900,,,,,0,729,,,,,,,,,,,,,,,,,B,160,hexagon,1,0,,,,,,,,,,,,,,,,repeat,letter,lettRpt,d,0.643,noRew,,,,,,0,55,0,55,0,1,,,,,,,,,,,,,,,,,
293005,2022-11-29_23h06.47.609,vts_reward_expectancy_bt,2022.2.4,MacIntel,58.82352941,Safari,1440,900,,,,,0,729,,,,,,,,,,,,,,,,,F,139,hexagon,1,0,,,,,,,,,,,,,,,,repeat,letter,lettRpt,d,1.114,noRew,,,,,,0,56,0,56,0,1,,,,,,,,,,,,,,,,,
293005,2022-11-29_23h06.47.609,vts_reward_expectancy_bt,2022.2.4,MacIntel,58.82352941,Safari,1440,900,,,,,0,729,,,,,,,,,,,,,,,,,W,181,star,1,0,,,,,,,,,,,,,,,,repeat,letter,lettRpt,f,1.031,noRew,,,,,,0,57,0,57,0,1,,,,,,,,,,,,,,,,,
293005,2022-11-29_23h06.47.609,vts_reward_expectancy_bt,2022.2.4,MacIntel,58.82352941,Safari,1440,900,,,,,0,729,,,,,,,,,,,,,,,,,B,125,circle,1,0,,,,,,,,,,,,,,,,repeat,letter,lettRpt,d,0.795,noRew,,,,,,0,58,0,58,0,1,,,,,,,,,,,,,,,,,
293005,2022-11-29_23h06.47.609,vts_reward_expectancy_bt,2022.2.4,MacIntel,58.82352941,Safari,1440,900,,,,,0,729,,,,,,,,,,,,,,,,,U,146,triangle,1,0,,,,,,,,,,,,,,,,repeat,letter,lettRpt,f,1.018,noRew,,,,,,0,59,0,59,0,1,,,,,,,,,,,,,,,,,
293005,2022-11-29_23h06.47.609,vts_reward_expectancy_bt,2022.2.4,MacIntel,58.82352941,Safari,1440,900,,,,,0,729,,,,,,,,,,,,,,,,,F,160,hexagon,1,0,,,,,,,,,,,,,,,,repeat,letter,lettRpt,d,0.713,noRew,,,,,,0,60,0,60,0,1,,,,,,,,,,,,,,,,,
293005,2022-11-29_23h06.47.609,vts_reward_expectancy_bt,2022.2.4,MacIntel,58.82352941,Safari,1440,900,,,,,0,729,,,,,,,,,,,,,,,,,D,125,star,1,0,,,,,,,,,,,,,,,,repeat,letter,lettRpt,d,0.71,noRew,,,,,,0,61,0,61,0,1,,,,,,,,,,,,,,,,,
293005,2022-11-29_23h06.47.609,vts_reward_expectancy_bt,2022.2.4,MacIntel,58.82352941,Safari,1440,900,,,,,0,729,,,,,,,,,,,,,,,,,U,174,circle,1,0,,,,,,,,,,,,,,,,repeat,letter,lettRpt,f,1.944,noRew,,,,,,0,62,0,62,0,1,,,,,,,,,,,,,,,,,
293005,2022-11-29_23h06.47.609,vts_reward_expectancy_bt,2022.2.4,MacIntel,58.82352941,Safari,1440,900,,,,,0,729,,,,,,,,,,,,,,,,,S,146,triangle,1,0,,,,,,,,,,,,,,,,repeat,letter,lettRpt,f,1.197,noRew,,,,,,0,63,0,63,0,1,,,,,,,,,,,,,,,,,
293005,2022-11-29_23h06.47.609,vts_reward_expectancy_bt,2022.2.4,MacIntel,58.82352941,Safari,1440,900,,,,,,,,,,,,,,,,,,,,,,,,,,,,,,,,,,,,,,,,,,,,,,,,,,,,,,,,,,,,,,,,,,,,,,,,,,,,
293005,2022-11-29_23h06.47.609,vts_reward_expectancy_bt,2022.2.4,MacIntel,58.82352941,Safari,1440,900,,,,,1,730,,,,,,,,,,,,,,,,,B,132,hexagon,1,0,,,,,,,,,,,,,,,,switch,number,numSwt,j,1.792,Hi,,,,,,0,,,,,,space,14.759,high,0,0,0,0,1,,,,,,,,,
293005,2022-11-29_23h06.47.609,vts_reward_expectancy_bt,2022.2.4,MacIntel,58.82352941,Safari,1440,900,,,,,10,740,,,,,,,,,,,,,,,,,U,125,triangle,1,0,,,,,,,,,,,,,,,,repeat,number,numRpt,j,1.482,Lo,,,,,,0,,,,,,,,high,1,0,1,0,1,,,,,,,,,
293005,2022-11-29_23h06.47.609,vts_reward_expectancy_bt,2022.2.4,MacIntel,58.82352941,Safari,1440,900,,,,,1,741,,,,,,,,,,,,,,,,,H,139,circle,1,0,,,,,,,,,,,,,,,,repeat,number,numRpt,j,0.891,Lo,,,,,,0,,,,,,,,high,2,0,2,0,1,,,,,,,,,
293005,2022-11-29_23h06.47.609,vts_reward_expectancy_bt,2022.2.4,MacIntel,58.82352941,Safari,1440,900,,,,,1,742,,,,,,,,,,,,,,,,,F,174,star,1,0,,,,,,,,,,,,,,,,repeat,number,numRpt,k,0.647,Hi,,,,,,0,,,,,,,,high,3,0,3,0,1,,,,,,,,,
293005,2022-11-29_23h06.47.609,vts_reward_expectancy_bt,2022.2.4,MacIntel,58.82352941,Safari,1440,900,,,,,10,752,,,,,,,,,,,,,,,,,W,181,hexagon,1,0,,,,,,,,,,,,,,,,repeat,number,numRpt,k,0.726,Hi,,,,,,0,,,,,,,,high,4,0,4,0,1,,,,,,,,,
293005,2022-11-29_23h06.47.609,vts_reward_expectancy_bt,2022.2.4,MacIntel,58.82352941,Safari,1440,900,,,,,1,753,,,,,,,,,,,,,,,,,Y,160,triangle,1,0,,,,,,,,,,,,,,,,repeat,number,numRpt,k,1.212,Lo,,,,,,0,,,,,,,,high,5,0,5,0,1,,,,,,,,,
293005,2022-11-29_23h06.47.609,vts_reward_expectancy_bt,2022.2.4,MacIntel,58.82352941,Safari,1440,900,,,,,1,754,,,,,,,,,,,,,,,,,S,167,circle,1,0,,,,,,,,,,,,,,,,repeat,number,numRpt,k,0.777,Lo,,,,,,0,,,,,,,,high,6,0,6,0,1,,,,,,,,,
293005,2022-11-29_23h06.47.609,vts_reward_expectancy_bt,2022.2.4,MacIntel,58.82352941,Safari,1440,900,,,,,10,764,,,,,,,,,,,,,,,,,D,146,star,1,0,,,,,,,,,,,,,,,,repeat,number,numRpt,j,1.327,Hi,,,,,,0,,,,,,,,high,7,0,7,0,1,,,,,,,,,
293005,2022-11-29_23h06.47.609,vts_reward_expectancy_bt,2022.2.4,MacIntel,58.82352941,Safari,1440,900,,,,,1,765,,,,,,,,,,,,,,,,,B,132,hexagon,1,0,,,,,,,,,,,,,,,,repeat,number,numRpt,j,0.709,Hi,,,,,,0,,,,,,,,high,8,0,8,0,1,,,,,,,,,
293005,2022-11-29_23h06.47.609,vts_reward_expectancy_bt,2022.2.4,MacIntel,58.82352941,Safari,1440,900,,,,,1,766,,,,,,,,,,,,,,,,,U,125,circle,1,0,,,,,,,,,,,,,,,,repeat,number,numRpt,j,0.844,Lo,,,,,,0,,,,,,,,high,9,0,9,0,1,,,,,,,,,
293005,2022-11-29_23h06.47.609,vts_reward_expectancy_bt,2022.2.4,MacIntel,58.82352941,Safari,1440,900,,,,,1,767,,,,,,,,,,,,,,,,,H,139,triangle,1,0,,,,,,,,,,,,,,,,repeat,number,numRpt,j,0.976,Lo,,,,,,0,,,,,,,,high,10,0,10,0,1,,,,,,,,,
293005,2022-11-29_23h06.47.609,vts_reward_expectancy_bt,2022.2.4,MacIntel,58.82352941,Safari,1440,900,,,,,10,777,,,,,,,,,,,,,,,,,F,174,star,1,0,,,,,,,,,,,,,,,,repeat,number,numRpt,k,0.844,Hi,,,,,,0,,,,,,,,high,11,0,11,0,1,,,,,,,,,
293005,2022-11-29_23h06.47.609,vts_reward_expectancy_bt,2022.2.4,MacIntel,58.82352941,Safari,1440,900,,,,,1,778,,,,,,,,,,,,,,,,,W,181,triangle,1,0,,,,,,,,,,,,,,,,repeat,number,numRpt,k,0.891,Lo,,,,,,0,,,,,,,,high,12,0,12,0,1,,,,,,,,,
293005,2022-11-29_23h06.47.609,vts_reward_expectancy_bt,2022.2.4,MacIntel,58.82352941,Safari,1440,900,,,,,10,788,,,,,,,,,,,,,,,,,Y,160,circle,1,0,,,,,,,,,,,,,,,,repeat,number,numRpt,k,1.05,Lo,,,,,,0,,,,,,,,high,13,0,13,0,1,,,,,,,,,
293005,2022-11-29_23h06.47.609,vts_reward_expectancy_bt,2022.2.4,MacIntel,58.82352941,Safari,1440,900,,,,,10,798,,,,,,,,,,,,,,,,,S,167,hexagon,1,0,,,,,,,,,,,,,,,,repeat,number,numRpt,k,0.817,Hi,,,,,,0,,,,,,,,high,14,0,14,0,1,,,,,,,,,
293005,2022-11-29_23h06.47.609,vts_reward_expectancy_bt,2022.2.4,MacIntel,58.82352941,Safari,1440,900,,,,,10,808,,,,,,,,,,,,,,,,,D,146,star,1,0,,,,,,,,,,,,,,,,repeat,number,numRpt,j,0.776,Hi,,,,,,0,,,,,,,,high,15,0,15,0,1,,,,,,,,,
293005,2022-11-29_23h06.47.609,vts_reward_expectancy_bt,2022.2.4,MacIntel,58.82352941,Safari,1440,900,,,,,1,809,,,,,,,,,,,,,,,,,H,181,circle,1,0,,,,,,,,,,,,,,,,repeat,number,numRpt,k,0.943,Lo,,,,,,0,,,,,,,,high,16,0,16,0,1,,,,,,,,,
293005,2022-11-29_23h06.47.609,vts_reward_expectancy_bt,2022.2.4,MacIntel,58.82352941,Safari,1440,900,,,,,1,810,,,,,,,,,,,,,,,,,D,132,triangle,1,0,,,,,,,,,,,,,,,,repeat,number,numRpt,j,1.094,Lo,,,,,,0,,,,,,,,high,17,0,17,0,1,,,,,,,,,
293005,2022-11-29_23h06.47.609,vts_reward_expectancy_bt,2022.2.4,MacIntel,58.82352941,Safari,1440,900,,,,,10,820,,,,,,,,,,,,,,,,,W,160,hexagon,1,0,,,,,,,,,,,,,,,,repeat,number,numRpt,k,0.958,Hi,,,,,,0,,,,,,,,high,18,0,18,0,1,,,,,,,,,
293005,2022-11-29_23h06.47.609,vts_reward_expectancy_bt,2022.2.4,MacIntel,58.82352941,Safari,1440,900,,,,,10,830,,,,,,,,,,,,,,,,,U,139,star,1,0,,,,,,,,,,,,,,,,repeat,number,numRpt,j,0.864,Hi,,,,,,0,,,,,,,,high,19,0,19,0,1,,,,,,,,,
293005,2022-11-29_23h06.47.609,vts_reward_expectancy_bt,2022.2.4,MacIntel,58.82352941,Safari,1440,900,,,,,10,840,,,,,,,,,,,,,,,,,F,174,star,1,0,,,,,,,,,,,,,,,,repeat,number,numRpt,k,0.711,Hi,,,,,,0,,,,,,,,high,20,0,20,0,1,,,,,,,,,
293005,2022-11-29_23h06.47.609,vts_reward_expectancy_bt,2022.2.4,MacIntel,58.82352941,Safari,1440,900,,,,,10,850,,,,,,,,,,,,,,,,,B,167,hexagon,1,0,,,,,,,,,,,,,,,,repeat,number,numRpt,k,0.943,Hi,,,,,,0,,,,,,,,high,21,0,21,0,1,,,,,,,,,
293005,2022-11-29_23h06.47.609,vts_reward_expectancy_bt,2022.2.4,MacIntel,58.82352941,Safari,1440,900,,,,,1,851,,,,,,,,,,,,,,,,,S,146,circle,1,0,,,,,,,,,,,,,,,,repeat,number,numRpt,j,1.16,Lo,,,,,,0,,,,,,,,high,22,0,22,0,1,,,,,,,,,
293005,2022-11-29_23h06.47.609,vts_reward_expectancy_bt,2022.2.4,MacIntel,58.82352941,Safari,1440,900,,,,,1,852,,,,,,,,,,,,,,,,,Y,125,triangle,1,0,,,,,,,,,,,,,,,,repeat,number,numRpt,j,1.009,Lo,,,,,,0,,,,,,,,high,23,0,23,0,1,,,,,,,,,
293005,2022-11-29_23h06.47.609,vts_reward_expectancy_bt,2022.2.4,MacIntel,58.82352941,Safari,1440,900,,,,,1,853,,,,,,,,,,,,,,,,,D,139,star,1,0,,,,,,,,,,,,,,,,repeat,number,numRpt,j,1.043,Hi,,,,,,0,,,,,,,,high,24,0,24,0,1,,,,,,,,,
293005,2022-11-29_23h06.47.609,vts_reward_expectancy_bt,2022.2.4,MacIntel,58.82352941,Safari,1440,900,,,,,1,854,,,,,,,,,,,,,,,,,S,167,triangle,1,0,,,,,,,,,,,,,,,,repeat,number,numRpt,k,0.927,Lo,,,,,,0,,,,,,,,high,25,0,25,0,1,,,,,,,,,
293005,2022-11-29_23h06.47.609,vts_reward_expectancy_bt,2022.2.4,MacIntel,58.82352941,Safari,1440,900,,,,,10,864,,,,,,,,,,,,,,,,,Y,146,hexagon,1,0,,,,,,,,,,,,,,,,repeat,number,numRpt,j,1.062,Hi,,,,,,0,,,,,,,,high,26,0,26,0,1,,,,,,,,,
293005,2022-11-29_23h06.47.609,vts_reward_expectancy_bt,2022.2.4,MacIntel,58.82352941,Safari,1440,900,,,,,10,874,,,,,,,,,,,,,,,,,U,132,circle,1,0,,,,,,,,,,,,,,,,repeat,number,numRpt,j,1.76,Lo,,,,,,0,,,,,,,,high,27,0,27,0,1,,,,,,,,,
293005,2022-11-29_23h06.47.609,vts_reward_expectancy_bt,2022.2.4,MacIntel,58.82352941,Safari,1440,900,,,,,1,875,,,,,,,,,,,,,,,,,H,125,circle,1,0,,,,,,,,,,,,,,,,repeat,number,numRpt,j,1.559,Lo,,,,,,0,,,,,,,,high,28,0,28,0,1,,,,,,,,,
293005,2022-11-29_23h06.47.609,vts_reward_expectancy_bt,2022.2.4,MacIntel,58.82352941,Safari,1440,900,,,,,10,885,,,,,,,,,,,,,,,,,W,181,hexagon,1,0,,,,,,,,,,,,,,,,repeat,number,numRpt,k,0.714,Hi,,,,,,0,,,,,,,,high,29,0,29,0,1,,,,,,,,,
293005,2022-11-29_23h06.47.609,vts_reward_expectancy_bt,2022.2.4,MacIntel,58.82352941,Safari,1440,900,,,,,1,886,,,,,,,,,,,,,,,,,F,160,triangle,1,0,,,,,,,,,,,,,,,,repeat,number,numRpt,k,0.876,Lo,,,,,,0,,,,,,,,high,30,0,30,0,1,,,,,,,,,
293005,2022-11-29_23h06.47.609,vts_reward_expectancy_bt,2022.2.4,MacIntel,58.82352941,Safari,1440,900,,,,,10,896,,,,,,,,,,,,,,,,,B,174,star,1,0,,,,,,,,,,,,,,,,repeat,number,numRpt,k,0.743,Hi,,,,,,0,,,,,,,,high,31,0,31,0,1,,,,,,,,,
293005,2022-11-29_23h06.47.609,vts_reward_expectancy_bt,2022.2.4,MacIntel,58.82352941,Safari,1440,900,,,,,1,897,,,,,,,,,,,,,,,,,U,160,circle,1,0,,,,,,,,,,,,,,,,repeat,number,numRpt,k,1.543,Lo,,,,,,1,,,,,,space,11.25,high,0,0,0,0,1,,,,,,,,,
293005,2022-11-29_23h06.47.609,vts_reward_expectancy_bt,2022.2.4,MacIntel,58.82352941,Safari,1440,900,,,,,0,897,,,,,,,,,,,,,,,,,B,125,star,1,0,,,,,,,,,,,,,,,,repeat,number,numRpt,j,1.042,Hi,,,,,,1,,,,,,,,high,1,0,1,0,1,,,,,,,,,
293005,2022-11-29_23h06.47.609,vts_reward_expectancy_bt,2022.2.4,MacIntel,58.82352941,Safari,1440,900,,,,,0,897,,,,,,,,,,,,,,,,,H,174,hexagon,1,0,,,,,,,,,,,,,,,,repeat,number,numRpt,k,1.209,Hi,,,,,,1,,,,,,,,high,2,0,2,0,1,,,,,,,,,
293005,2022-11-29_23h06.47.609,vts_reward_expectancy_bt,2022.2.4,MacIntel,58.82352941,Safari,1440,900,,,,,1,898,,,,,,,,,,,,,,,,,F,146,triangle,1,0,,,,,,,,,,,,,,,,repeat,number,numRpt,j,1.111,Lo,,,,,,1,,,,,,,,high,3,0,3,0,1,,,,,,,,,
293005,2022-11-29_23h06.47.609,vts_reward_expectancy_bt,2022.2.4,MacIntel,58.82352941,Safari,1440,900,,,,,10,908,,,,,,,,,,,,,,,,,D,139,circle,1,0,,,,,,,,,,,,,,,,repeat,number,numRpt,j,0.725,Lo,,,,,,1,,,,,,,,high,4,0,4,0,1,,,,,,,,,
293005,2022-11-29_23h06.47.609,vts_reward_expectancy_bt,2022.2.4,MacIntel,58.82352941,Safari,1440,900,,,,,10,918,,,,,,,,,,,,,,,,,Y,181,star,1,0,,,,,,,,,,,,,,,,repeat,number,numRpt,k,0.66,Hi,,,,,,1,,,,,,,,high,5,0,5,0,1,,,,,,,,,
293005,2022-11-29_23h06.47.609,vts_reward_expectancy_bt,2022.2.4,MacIntel,58.82352941,Safari,1440,900,,,,,1,919,,,,,,,,,,,,,,,,,W,132,hexagon,1,0,,,,,,,,,,,,,,,,repeat,number,numRpt,j,0.732,Hi,,,,,,1,,,,,,,,high,6,0,6,0,1,,,,,,,,,
293005,2022-11-29_23h06.47.609,vts_reward_expectancy_bt,2022.2.4,MacIntel,58.82352941,Safari,1440,900,,,,,1,920,,,,,,,,,,,,,,,,,S,167,triangle,1,0,,,,,,,,,,,,,,,,repeat,number,numRpt,k,0.882,Lo,,,,,,1,,,,,,,,high,7,0,7,0,1,,,,,,,,,
293005,2022-11-29_23h06.47.609,vts_reward_expectancy_bt,2022.2.4,MacIntel,58.82352941,Safari,1440,900,,,,,10,930,,,,,,,,,,,,,,,,,U,160,star,1,0,,,,,,,,,,,,,,,,repeat,number,numRpt,k,0.727,Hi,,,,,,1,,,,,,,,high,8,0,8,0,1,,,,,,,,,
293005,2022-11-29_23h06.47.609,vts_reward_expectancy_bt,2022.2.4,MacIntel,58.82352941,Safari,1440,900,,,,,1,931,,,,,,,,,,,,,,,,,B,125,triangle,1,0,,,,,,,,,,,,,,,,repeat,number,numRpt,j,0.943,Lo,,,,,,1,,,,,,,,high,9,0,9,0,1,,,,,,,,,
293005,2022-11-29_23h06.47.609,vts_reward_expectancy_bt,2022.2.4,MacIntel,58.82352941,Safari,1440,900,,,,,0,931,,,,,,,,,,,,,,,,,H,174,hexagon,1,0,,,,,,,,,,,,,,,,repeat,number,numRpt,k,0.952,Hi,,,,,,1,,,,,,,,high,10,0,10,0,1,,,,,,,,,
293005,2022-11-29_23h06.47.609,vts_reward_expectancy_bt,2022.2.4,MacIntel,58.82352941,Safari,1440,900,,,,,1,932,,,,,,,,,,,,,,,,,F,146,circle,1,0,,,,,,,,,,,,,,,,repeat,number,numRpt,j,0.765,Lo,,,,,,1,,,,,,,,high,11,0,11,0,1,,,,,,,,,
293005,2022-11-29_23h06.47.609,vts_reward_expectancy_bt,2022.2.4,MacIntel,58.82352941,Safari,1440,900,,,,,1,933,,,,,,,,,,,,,,,,,D,139,circle,1,0,,,,,,,,,,,,,,,,repeat,number,numRpt,j,1.465,Lo,,,,,,1,,,,,,,,high,12,0,12,0,1,,,,,,,,,
293005,2022-11-29_23h06.47.609,vts_reward_expectancy_bt,2022.2.4,MacIntel,58.82352941,Safari,1440,900,,,,,0,933,,,,,,,,,,,,,,,,,Y,181,star,1,0,,,,,,,,,,,,,,,,repeat,number,numRpt,k,1.099,Hi,,,,,,1,,,,,,,,high,13,0,13,0,1,,,,,,,,,
293005,2022-11-29_23h06.47.609,vts_reward_expectancy_bt,2022.2.4,MacIntel,58.82352941,Safari,1440,900,,,,,10,943,,,,,,,,,,,,,,,,,W,132,hexagon,1,0,,,,,,,,,,,,,,,,repeat,number,numRpt,j,0.794,Hi,,,,,,1,,,,,,,,high,14,0,14,0,1,,,,,,,,,
293005,2022-11-29_23h06.47.609,vts_reward_expectancy_bt,2022.2.4,MacIntel,58.82352941,Safari,1440,900,,,,,1,944,,,,,,,,,,,,,,,,,S,167,triangle,1,0,,,,,,,,,,,,,,,,repeat,number,numRpt,k,0.694,Lo,,,,,,1,,,,,,,,high,15,0,15,0,1,,,,,,,,,
293005,2022-11-29_23h06.47.609,vts_reward_expectancy_bt,2022.2.4,MacIntel,58.82352941,Safari,1440,900,,,,,10,954,,,,,,,,,,,,,,,,,W,146,star,1,0,,,,,,,,,,,,,,,,repeat,number,numRpt,j,0.843,Hi,,,,,,1,,,,,,,,high,16,0,16,0,1,,,,,,,,,
293005,2022-11-29_23h06.47.609,vts_reward_expectancy_bt,2022.2.4,MacIntel,58.82352941,Safari,1440,900,,,,,1,955,,,,,,,,,,,,,,,,,U,125,triangle,1,0,,,,,,,,,,,,,,,,repeat,number,numRpt,j,0.778,Lo,,,,,,1,,,,,,,,high,17,0,17,0,1,,,,,,,,,
293005,2022-11-29_23h06.47.609,vts_reward_expectancy_bt,2022.2.4,MacIntel,58.82352941,Safari,1440,900,,,,,1,956,,,,,,,,,,,,,,,,,D,181,circle,1,0,,,,,,,,,,,,,,,,repeat,number,numRpt,k,0.61,Lo,,,,,,1,,,,,,,,high,18,0,18,0,1,,,,,,,,,
293005,2022-11-29_23h06.47.609,vts_reward_expectancy_bt,2022.2.4,MacIntel,58.82352941,Safari,1440,900,,,,,0,956,,,,,,,,,,,,,,,,,Y,167,hexagon,1,0,,,,,,,,,,,,,,,,repeat,number,numRpt,k,0.86,Hi,,,,,,1,,,,,,,,high,19,0,19,0,1,,,,,,,,,
293005,2022-11-29_23h06.47.609,vts_reward_expectancy_bt,2022.2.4,MacIntel,58.82352941,Safari,1440,900,,,,,1,957,,,,,,,,,,,,,,,,,F,139,circle,1,0,,,,,,,,,,,,,,,,repeat,number,numRpt,j,1.243,Lo,,,,,,1,,,,,,,,high,20,0,20,0,1,,,,,,,,,
293005,2022-11-29_23h06.47.609,vts_reward_expectancy_bt,2022.2.4,MacIntel,58.82352941,Safari,1440,900,,,,,10,967,,,,,,,,,,,,,,,,,H,174,hexagon,1,0,,,,,,,,,,,,,,,,repeat,number,numRpt,k,0.534,Hi,,,,,,1,,,,,,,,high,21,0,21,0,1,,,,,,,,,
293005,2022-11-29_23h06.47.609,vts_reward_expectancy_bt,2022.2.4,MacIntel,58.82352941,Safari,1440,900,,,,,1,968,,,,,,,,,,,,,,,,,B,132,star,1,0,,,,,,,,,,,,,,,,repeat,number,numRpt,j,0.48,Hi,,,,,,1,,,,,,,,high,22,0,22,0,1,,,,,,,,,
293005,2022-11-29_23h06.47.609,vts_reward_expectancy_bt,2022.2.4,MacIntel,58.82352941,Safari,1440,900,,,,,1,969,,,,,,,,,,,,,,,,,S,160,triangle,1,0,,,,,,,,,,,,,,,,repeat,number,numRpt,k,0.476,Lo,,,,,,1,,,,,,,,high,23,0,23,0,1,,,,,,,,,
293005,2022-11-29_23h06.47.609,vts_reward_expectancy_bt,2022.2.4,MacIntel,58.82352941,Safari,1440,900,,,,,10,979,,,,,,,,,,,,,,,,,U,167,triangle,1,0,,,,,,,,,,,,,,,,repeat,number,numRpt,k,0.68,Lo,,,,,,1,,,,,,,,high,24,0,24,0,1,,,,,,,,,
293005,2022-11-29_23h06.47.609,vts_reward_expectancy_bt,2022.2.4,MacIntel,58.82352941,Safari,1440,900,,,,,1,980,,,,,,,,,,,,,,,,,S,181,circle,1,0,,,,,,,,,,,,,,,,repeat,number,numRpt,k,0.642,Lo,,,,,,1,,,,,,,,high,25,0,25,0,1,,,,,,,,,
293005,2022-11-29_23h06.47.609,vts_reward_expectancy_bt,2022.2.4,MacIntel,58.82352941,Safari,1440,900,,,,,0,980,,,,,,,,,,,,,,,,,Y,146,hexagon,0,0,,,,,,,,,,,,,,,,repeat,number,NA,k,0.642,Lo,,,,,,1,,,,,,,,high,26,0,26,0,1,,,,,,,,,
293005,2022-11-29_23h06.47.609,vts_reward_expectancy_bt,2022.2.4,MacIntel,58.82352941,Safari,1440,900,,,,,0,980,,,,,,,,,,,,,,,,,B,160,star,1,1,,,,,,,,,,,,,,,,repeat,number,numRpt,k,0.877,Hi,,,,,,1,,,,,,,,high,27,0,27,0,1,,,,,,,,,
293005,2022-11-29_23h06.47.609,vts_reward_expectancy_bt,2022.2.4,MacIntel,58.82352941,Safari,1440,900,,,,,1,981,,,,,,,,,,,,,,,,,D,132,circle,1,0,,,,,,,,,,,,,,,,repeat,number,numRpt,j,0.643,Lo,,,,,,1,,,,,,,,high,28,0,28,0,1,,,,,,,,,
293005,2022-11-29_23h06.47.609,vts_reward_expectancy_bt,2022.2.4,MacIntel,58.82352941,Safari,1440,900,,,,,1,982,,,,,,,,,,,,,,,,,F,125,triangle,1,0,,,,,,,,,,,,,,,,repeat,number,numRpt,j,0.676,Lo,,,,,,1,,,,,,,,high,29,0,29,0,1,,,,,,,,,
293005,2022-11-29_23h06.47.609,vts_reward_expectancy_bt,2022.2.4,MacIntel,58.82352941,Safari,1440,900,,,,,0,982,,,,,,,,,,,,,,,,,H,139,hexagon,1,0,,,,,,,,,,,,,,,,repeat,number,numRpt,j,1.528,Hi,,,,,,1,,,,,,,,high,30,0,30,0,1,,,,,,,,,
293005,2022-11-29_23h06.47.609,vts_reward_expectancy_bt,2022.2.4,MacIntel,58.82352941,Safari,1440,900,,,,,10,992,,,,,,,,,,,,,,,,,W,174,star,1,0,,,,,,,,,,,,,,,,repeat,number,numRpt,k,0.658,Hi,,,,,,1,,,,,,,,high,31,0,31,0,1,,,,,,,,,
293005,2022-11-29_23h06.47.609,vts_reward_expectancy_bt,2022.2.4,MacIntel,58.82352941,Safari,1440,900,,,,,0,992,,,,,,,,,,,,,,,,,U,139,hexagon,1,0,,,,,,,,,,,,,,,,repeat,number,numRpt,j,1.11,Hi,,,,,,2,,,,,,space,2.503,high,0,0,0,0,1,,,,,,,,,
293005,2022-11-29_23h06.47.609,vts_reward_expectancy_bt,2022.2.4,MacIntel,58.82352941,Safari,1440,900,,,,,1,993,,,,,,,,,,,,,,,,,S,125,triangle,1,0,,,,,,,,,,,,,,,,repeat,number,numRpt,j,0.844,Lo,,,,,,2,,,,,,,,high,1,0,1,0,1,,,,,,,,,
293005,2022-11-29_23h06.47.609,vts_reward_expectancy_bt,2022.2.4,MacIntel,58.82352941,Safari,1440,900,,,,,1,994,,,,,,,,,,,,,,,,,Y,132,circle,1,0,,,,,,,,,,,,,,,,repeat,number,numRpt,j,0.635,Lo,,,,,,2,,,,,,,,high,2,0,2,0,1,,,,,,,,,
293005,2022-11-29_23h06.47.609,vts_reward_expectancy_bt,2022.2.4,MacIntel,58.82352941,Safari,1440,900,,,,,0,994,,,,,,,,,,,,,,,,,B,160,star,1,0,,,,,,,,,,,,,,,,repeat,number,numRpt,k,0.977,Hi,,,,,,2,,,,,,,,high,3,0,3,0,1,,,,,,,,,
293005,2022-11-29_23h06.47.609,vts_reward_expectancy_bt,2022.2.4,MacIntel,58.82352941,Safari,1440,900,,,,,0,994,,,,,,,,,,,,,,,,,W,167,hexagon,1,0,,,,,,,,,,,,,,,,repeat,number,numRpt,k,0.785,Hi,,,,,,2,,,,,,,,high,4,0,4,0,1,,,,,,,,,
293005,2022-11-29_23h06.47.609,vts_reward_expectancy_bt,2022.2.4,MacIntel,58.82352941,Safari,1440,900,,,,,1,995,,,,,,,,,,,,,,,,,F,181,triangle,1,0,,,,,,,,,,,,,,,,repeat,number,numRpt,k,1.015,Lo,,,,,,2,,,,,,,,high,5,0,5,0,1,,,,,,,,,
293005,2022-11-29_23h06.47.609,vts_reward_expectancy_bt,2022.2.4,MacIntel,58.82352941,Safari,1440,900,,,,,10,1005,,,,,,,,,,,,,,,,,H,146,circle,1,0,,,,,,,,,,,,,,,,repeat,number,numRpt,j,0.76,Lo,,,,,,2,,,,,,,,high,6,0,6,0,1,,,,,,,,,
293005,2022-11-29_23h06.47.609,vts_reward_expectancy_bt,2022.2.4,MacIntel,58.82352941,Safari,1440,900,,,,,0,1005,,,,,,,,,,,,,,,,,D,174,star,1,0,,,,,,,,,,,,,,,,repeat,number,numRpt,k,0.783,Hi,,,,,,2,,,,,,,,high,7,0,7,0,1,,,,,,,,,
293005,2022-11-29_23h06.47.609,vts_reward_expectancy_bt,2022.2.4,MacIntel,58.82352941,Safari,1440,900,,,,,1,1006,,,,,,,,,,,,,,,,,U,139,circle,1,0,,,,,,,,,,,,,,,,repeat,number,numRpt,j,0.561,Lo,,,,,,2,,,,,,,,high,8,0,8,0,1,,,,,,,,,
293005,2022-11-29_23h06.47.609,vts_reward_expectancy_bt,2022.2.4,MacIntel,58.82352941,Safari,1440,900,,,,,10,1016,,,,,,,,,,,,,,,,,S,125,hexagon,1,0,,,,,,,,,,,,,,,,repeat,number,numRpt,j,0.659,Hi,,,,,,2,,,,,,,,high,9,0,9,0,1,,,,,,,,,
293005,2022-11-29_23h06.47.609,vts_reward_expectancy_bt,2022.2.4,MacIntel,58.82352941,Safari,1440,900,,,,,1,1017,,,,,,,,,,,,,,,,,Y,132,triangle,1,0,,,,,,,,,,,,,,,,repeat,number,numRpt,j,0.745,Lo,,,,,,2,,,,,,,,high,10,0,10,0,1,,,,,,,,,
293005,2022-11-29_23h06.47.609,vts_reward_expectancy_bt,2022.2.4,MacIntel,58.82352941,Safari,1440,900,,,,,10,1027,,,,,,,,,,,,,,,,,B,160,star,1,0,,,,,,,,,,,,,,,,repeat,number,numRpt,k,0.658,Hi,,,,,,2,,,,,,,,high,11,0,11,0,1,,,,,,,,,
293005,2022-11-29_23h06.47.609,vts_reward_expectancy_bt,2022.2.4,MacIntel,58.82352941,Safari,1440,900,,,,,0,1027,,,,,,,,,,,,,,,,,W,167,hexagon,1,0,,,,,,,,,,,,,,,,repeat,number,numRpt,k,0.923,Hi,,,,,,2,,,,,,,,high,12,0,12,0,1,,,,,,,,,
293005,2022-11-29_23h06.47.609,vts_reward_expectancy_bt,2022.2.4,MacIntel,58.82352941,Safari,1440,900,,,,,10,1037,,,,,,,,,,,,,,,,,F,181,star,1,0,,,,,,,,,,,,,,,,repeat,number,numRpt,k,0.627,Hi,,,,,,2,,,,,,,,high,13,0,13,0,1,,,,,,,,,
293005,2022-11-29_23h06.47.609,vts_reward_expectancy_bt,2022.2.4,MacIntel,58.82352941,Safari,1440,900,,,,,1,1038,,,,,,,,,,,,,,,,,H,146,triangle,1,0,,,,,,,,,,,,,,,,repeat,number,numRpt,j,0.612,Lo,,,,,,2,,,,,,,,high,14,0,14,0,1,,,,,,,,,
293005,2022-11-29_23h06.47.609,vts_reward_expectancy_bt,2022.2.4,MacIntel,58.82352941,Safari,1440,900,,,,,1,1039,,,,,,,,,,,,,,,,,D,174,circle,1,0,,,,,,,,,,,,,,,,repeat,number,numRpt,k,0.762,Lo,,,,,,2,,,,,,,,high,15,0,15,0,1,,,,,,,,,
293005,2022-11-29_23h06.47.609,vts_reward_expectancy_bt,2022.2.4,MacIntel,58.82352941,Safari,1440,900,,,,,0,1039,,,,,,,,,,,,,,,,,F,125,star,1,0,,,,,,,,,,,,,,,,repeat,number,numRpt,j,0.979,Hi,,,,,,2,,,,,,,,high,16,0,16,0,1,,,,,,,,,
293005,2022-11-29_23h06.47.609,vts_reward_expectancy_bt,2022.2.4,MacIntel,58.82352941,Safari,1440,900,,,,,0,1039,,,,,,,,,,,,,,,,,B,139,hexagon,1,0,,,,,,,,,,,,,,,,repeat,number,numRpt,j,0.793,Hi,,,,,,2,,,,,,,,high,17,0,17,0,1,,,,,,,,,
293005,2022-11-29_23h06.47.609,vts_reward_expectancy_bt,2022.2.4,MacIntel,58.82352941,Safari,1440,900,,,,,1,1040,,,,,,,,,,,,,,,,,S,160,circle,1,0,,,,,,,,,,,,,,,,repeat,number,numRpt,k,0.608,Lo,,,,,,2,,,,,,,,high,18,0,18,0,1,,,,,,,,,
293005,2022-11-29_23h06.47.609,vts_reward_expectancy_bt,2022.2.4,MacIntel,58.82352941,Safari,1440,900,,,,,10,1050,,,,,,,,,,,,,,,,,W,181,triangle,1,0,,,,,,,,,,,,,,,,repeat,number,numRpt,k,0.936,Lo,,,,,,2,,,,,,,,high,19,0,19,0,1,,,,,,,,,
293005,2022-11-29_23h06.47.609,vts_reward_expectancy_bt,2022.2.4,MacIntel,58.82352941,Safari,1440,900,,,,,1,1051,,,,,,,,,,,,,,,,,Y,167,circle,1,0,,,,,,,,,,,,,,,,repeat,number,numRpt,k,1.16,Lo,,,,,,2,,,,,,,,high,20,0,20,0,1,,,,,,,,,
293005,2022-11-29_23h06.47.609,vts_reward_expectancy_bt,2022.2.4,MacIntel,58.82352941,Safari,1440,900,,,,,0,1051,,,,,,,,,,,,,,,,,D,132,star,1,0,,,,,,,,,,,,,,,,repeat,number,numRpt,j,0.894,Hi,,,,,,2,,,,,,,,high,21,0,21,0,1,,,,,,,,,
293005,2022-11-29_23h06.47.609,vts_reward_expectancy_bt,2022.2.4,MacIntel,58.82352941,Safari,1440,900,,,,,1,1052,,,,,,,,,,,,,,,,,H,174,triangle,1,0,,,,,,,,,,,,,,,,repeat,number,numRpt,k,0.975,Lo,,,,,,2,,,,,,,,high,22,0,22,0,1,,,,,,,,,
293005,2022-11-29_23h06.47.609,vts_reward_expectancy_bt,2022.2.4,MacIntel,58.82352941,Safari,1440,900,,,,,0,1052,,,,,,,,,,,,,,,,,U,146,hexagon,1,0,,,,,,,,,,,,,,,,repeat,number,numRpt,j,0.762,Hi,,,,,,2,,,,,,,,high,23,0,23,0,1,,,,,,,,,
293005,2022-11-29_23h06.47.609,vts_reward_expectancy_bt,2022.2.4,MacIntel,58.82352941,Safari,1440,900,,,,,0,1052,,,,,,,,,,,,,,,,,D,160,hexagon,1,0,,,,,,,,,,,,,,,,repeat,number,numRpt,k,0.711,Hi,,,,,,2,,,,,,,,high,24,0,24,0,1,,,,,,,,,
293005,2022-11-29_23h06.47.609,vts_reward_expectancy_bt,2022.2.4,MacIntel,58.82352941,Safari,1440,900,,,,,1,1053,,,,,,,,,,,,,,,,,Y,167,triangle,1,0,,,,,,,,,,,,,,,,repeat,number,numRpt,k,0.609,Lo,,,,,,2,,,,,,,,high,25,0,25,0,1,,,,,,,,,
293005,2022-11-29_23h06.47.609,vts_reward_expectancy_bt,2022.2.4,MacIntel,58.82352941,Safari,1440,900,,,,,0,1053,,,,,,,,,,,,,,,,,B,139,star,1,0,,,,,,,,,,,,,,,,repeat,number,numRpt,j,0.726,Hi,,,,,,2,,,,,,,,high,26,0,26,0,1,,,,,,,,,
293005,2022-11-29_23h06.47.609,vts_reward_expectancy_bt,2022.2.4,MacIntel,58.82352941,Safari,1440,900,,,,,10,1063,,,,,,,,,,,,,,,,,H,132,circle,1,0,,,,,,,,,,,,,,,,repeat,number,numRpt,j,0.663,Lo,,,,,,2,,,,,,,,high,27,0,27,0,1,,,,,,,,,
293005,2022-11-29_23h06.47.609,vts_reward_expectancy_bt,2022.2.4,MacIntel,58.82352941,Safari,1440,900,,,,,1,1064,,,,,,,,,,,,,,,,,W,181,circle,1,0,,,,,,,,,,,,,,,,repeat,number,numRpt,k,0.851,Lo,,,,,,2,,,,,,,,high,28,0,28,0,1,,,,,,,,,
293005,2022-11-29_23h06.47.609,vts_reward_expectancy_bt,2022.2.4,MacIntel,58.82352941,Safari,1440,900,,,,,0,1064,,,,,,,,,,,,,,,,,S,125,star,1,0,,,,,,,,,,,,,,,,repeat,number,numRpt,j,1.277,Hi,,,,,,2,,,,,,,,high,29,0,29,0,1,,,,,,,,,
293005,2022-11-29_23h06.47.609,vts_reward_expectancy_bt,2022.2.4,MacIntel,58.82352941,Safari,1440,900,,,,,0,1064,,,,,,,,,,,,,,,,,U,174,hexagon,1,0,,,,,,,,,,,,,,,,repeat,number,numRpt,k,1.011,Hi,,,,,,2,,,,,,,,high,30,0,30,0,1,,,,,,,,,
293005,2022-11-29_23h06.47.609,vts_reward_expectancy_bt,2022.2.4,MacIntel,58.82352941,Safari,1440,900,,,,,1,1065,,,,,,,,,,,,,,,,,F,146,triangle,1,0,,,,,,,,,,,,,,,,repeat,number,numRpt,j,0.993,Lo,,,,,,2,,,,,,,,high,31,0,31,0,1,,,,,,,,,
293005,2022-11-29_23h06.47.609,vts_reward_expectancy_bt,2022.2.4,MacIntel,58.82352941,Safari,1440,900,,,,,10,1075,,,,,,,,,,,,,,,,,B,132,circle,1,0,,,,,,,,,,,,,,,,repeat,number,numRpt,j,0.642,Lo,,,,,,3,,,,,,space,0.983,high,0,0,0,0,1,,,,,,,,,
293005,2022-11-29_23h06.47.609,vts_reward_expectancy_bt,2022.2.4,MacIntel,58.82352941,Safari,1440,900,,,,,1,1076,,,,,,,,,,,,,,,,,F,181,star,1,0,,,,,,,,,,,,,,,,repeat,number,numRpt,k,0.458,Hi,,,,,,3,,,,,,,,high,1,0,1,0,1,,,,,,,,,
293005,2022-11-29_23h06.47.609,vts_reward_expectancy_bt,2022.2.4,MacIntel,58.82352941,Safari,1440,900,,,,,1,1077,,,,,,,,,,,,,,,,,Y,146,triangle,1,0,,,,,,,,,,,,,,,,repeat,number,numRpt,j,0.782,Lo,,,,,,3,,,,,,,,high,2,0,2,0,1,,,,,,,,,
293005,2022-11-29_23h06.47.609,vts_reward_expectancy_bt,2022.2.4,MacIntel,58.82352941,Safari,1440,900,,,,,0,1077,,,,,,,,,,,,,,,,,W,139,hexagon,1,0,,,,,,,,,,,,,,,,repeat,number,numRpt,j,0.76,Hi,,,,,,3,,,,,,,,high,3,0,3,0,1,,,,,,,,,
293005,2022-11-29_23h06.47.609,vts_reward_expectancy_bt,2022.2.4,MacIntel,58.82352941,Safari,1440,900,,,,,10,1087,,,,,,,,,,,,,,,,,S,160,circle,1,0,,,,,,,,,,,,,,,,repeat,number,numRpt,k,0.678,Lo,,,,,,3,,,,,,,,high,4,0,4,0,1,,,,,,,,,
293005,2022-11-29_23h06.47.609,vts_reward_expectancy_bt,2022.2.4,MacIntel,58.82352941,Safari,1440,900,,,,,10,1097,,,,,,,,,,,,,,,,,D,174,star,1,0,,,,,,,,,,,,,,,,repeat,number,numRpt,k,0.593,Hi,,,,,,3,,,,,,,,high,5,0,5,0,1,,,,,,,,,
293005,2022-11-29_23h06.47.609,vts_reward_expectancy_bt,2022.2.4,MacIntel,58.82352941,Safari,1440,900,,,,,1,1098,,,,,,,,,,,,,,,,,U,167,triangle,1,0,,,,,,,,,,,,,,,,repeat,number,numRpt,k,0.926,Lo,,,,,,3,,,,,,,,high,6,0,6,0,1,,,,,,,,,
293005,2022-11-29_23h06.47.609,vts_reward_expectancy_bt,2022.2.4,MacIntel,58.82352941,Safari,1440,900,,,,,0,1098,,,,,,,,,,,,,,,,,H,125,hexagon,1,0,,,,,,,,,,,,,,,,repeat,number,numRpt,j,0.811,Hi,,,,,,3,,,,,,,,high,7,0,7,0,1,,,,,,,,,
293005,2022-11-29_23h06.47.609,vts_reward_expectancy_bt,2022.2.4,MacIntel,58.82352941,Safari,1440,900,,,,,0,1098,,,,,,,,,,,,,,,,,B,132,star,1,0,,,,,,,,,,,,,,,,repeat,number,numRpt,j,1.475,Hi,,,,,,3,,,,,,,,high,8,0,8,0,1,,,,,,,,,
293005,2022-11-29_23h06.47.609,vts_reward_expectancy_bt,2022.2.4,MacIntel,58.82352941,Safari,1440,900,,,,,1,1099,,,,,,,,,,,,,,,,,F,181,circle,1,0,,,,,,,,,,,,,,,,repeat,number,numRpt,k,0.908,Lo,,,,,,3,,,,,,,,high,9,0,9,0,1,,,,,,,,,
293005,2022-11-29_23h06.47.609,vts_reward_expectancy_bt,2022.2.4,MacIntel,58.82352941,Safari,1440,900,,,,,0,1099,,,,,,,,,,,,,,,,,Y,146,triangle,0,0,,,,,,,,,,,,,,,,repeat,number,NA,k,1.408,Lo,,,,,,3,,,,,,,,high,10,0,10,0,1,,,,,,,,,
293005,2022-11-29_23h06.47.609,vts_reward_expectancy_bt,2022.2.4,MacIntel,58.82352941,Safari,1440,900,,,,,0,1099,,,,,,,,,,,,,,,,,W,139,hexagon,1,1,,,,,,,,,,,,,,,,repeat,number,numRpt,j,1.015,Hi,,,,,,3,,,,,,,,high,11,0,11,0,1,,,,,,,,,
293005,2022-11-29_23h06.47.609,vts_reward_expectancy_bt,2022.2.4,MacIntel,58.82352941,Safari,1440,900,,,,,0,1099,,,,,,,,,,,,,,,,,S,160,star,1,0,,,,,,,,,,,,,,,,repeat,number,numRpt,k,1.931,Hi,,,,,,3,,,,,,,,high,12,0,12,0,1,,,,,,,,,
293005,2022-11-29_23h06.47.609,vts_reward_expectancy_bt,2022.2.4,MacIntel,58.82352941,Safari,1440,900,,,,,1,1100,,,,,,,,,,,,,,,,,D,174,circle,1,0,,,,,,,,,,,,,,,,repeat,number,numRpt,k,1.01,Lo,,,,,,3,,,,,,,,high,13,0,13,0,1,,,,,,,,,
293005,2022-11-29_23h06.47.609,vts_reward_expectancy_bt,2022.2.4,MacIntel,58.82352941,Safari,1440,900,,,,,0,1100,,,,,,,,,,,,,,,,,U,167,hexagon,1,0,,,,,,,,,,,,,,,,repeat,number,numRpt,k,1.544,Hi,,,,,,3,,,,,,,,high,14,0,14,0,1,,,,,,,,,
293005,2022-11-29_23h06.47.609,vts_reward_expectancy_bt,2022.2.4,MacIntel,58.82352941,Safari,1440,900,,,,,1,1101,,,,,,,,,,,,,,,,,H,125,triangle,1,0,,,,,,,,,,,,,,,,repeat,number,numRpt,j,0.792,Lo,,,,,,3,,,,,,,,high,15,0,15,0,1,,,,,,,,,
293005,2022-11-29_23h06.47.609,vts_reward_expectancy_bt,2022.2.4,MacIntel,58.82352941,Safari,1440,900,,,,,1,1102,,,,,,,,,,,,,,,,,U,146,circle,1,0,,,,,,,,,,,,,,,,repeat,number,numRpt,j,1.043,Lo,,,,,,3,,,,,,,,high,16,0,16,0,1,,,,,,,,,
293005,2022-11-29_23h06.47.609,vts_reward_expectancy_bt,2022.2.4,MacIntel,58.82352941,Safari,1440,900,,,,,1,1103,,,,,,,,,,,,,,,,,H,125,triangle,1,0,,,,,,,,,,,,,,,,repeat,number,numRpt,j,0.742,Lo,,,,,,3,,,,,,,,high,17,0,17,0,1,,,,,,,,,
293005,2022-11-29_23h06.47.609,vts_reward_expectancy_bt,2022.2.4,MacIntel,58.82352941,Safari,1440,900,,,,,0,1103,,,,,,,,,,,,,,,,,F,132,star,1,0,,,,,,,,,,,,,,,,repeat,number,numRpt,j,0.977,Hi,,,,,,3,,,,,,,,high,18,0,18,0,1,,,,,,,,,
293005,2022-11-29_23h06.47.609,vts_reward_expectancy_bt,2022.2.4,MacIntel,58.82352941,Safari,1440,900,,,,,10,1113,,,,,,,,,,,,,,,,,B,139,hexagon,1,0,,,,,,,,,,,,,,,,repeat,number,numRpt,j,0.727,Hi,,,,,,3,,,,,,,,high,19,0,19,0,1,,,,,,,,,
293005,2022-11-29_23h06.47.609,vts_reward_expectancy_bt,2022.2.4,MacIntel,58.82352941,Safari,1440,900,,,,,0,1113,,,,,,,,,,,,,,,,,Y,181,hexagon,1,0,,,,,,,,,,,,,,,,repeat,number,numRpt,k,1.066,Hi,,,,,,3,,,,,,,,high,20,0,20,0,1,,,,,,,,,
293005,2022-11-29_23h06.47.609,vts_reward_expectancy_bt,2022.2.4,MacIntel,58.82352941,Safari,1440,900,,,,,0,1113,,,,,,,,,,,,,,,,,S,167,circle,0,0,,,,,,,,,,,,,,,,repeat,number,NA,j,1.543,Hi,,,,,,3,,,,,,,,high,21,0,21,0,1,,,,,,,,,
293005,2022-11-29_23h06.47.609,vts_reward_expectancy_bt,2022.2.4,MacIntel,58.82352941,Safari,1440,900,,,,,1,1114,,,,,,,,,,,,,,,,,D,160,triangle,1,1,,,,,,,,,,,,,,,,repeat,number,numRpt,k,1.341,Lo,,,,,,3,,,,,,,,high,22,0,22,0,1,,,,,,,,,
293005,2022-11-29_23h06.47.609,vts_reward_expectancy_bt,2022.2.4,MacIntel,58.82352941,Safari,1440,900,,,,,0,1114,,,,,,,,,,,,,,,,,W,174,star,1,0,,,,,,,,,,,,,,,,repeat,number,numRpt,k,1.044,Hi,,,,,,3,,,,,,,,high,23,0,23,0,1,,,,,,,,,
293005,2022-11-29_23h06.47.609,vts_reward_expectancy_bt,2022.2.4,MacIntel,58.82352941,Safari,1440,900,,,,,10,1124,,,,,,,,,,,,,,,,,F,174,circle,1,0,,,,,,,,,,,,,,,,repeat,number,numRpt,k,0.412,Lo,,,,,,3,,,,,,,,high,24,0,24,0,1,,,,,,,,,
293005,2022-11-29_23h06.47.609,vts_reward_expectancy_bt,2022.2.4,MacIntel,58.82352941,Safari,1440,900,,,,,10,1134,,,,,,,,,,,,,,,,,H,125,star,1,0,,,,,,,,,,,,,,,,repeat,number,numRpt,j,0.677,Hi,,,,,,3,,,,,,,,high,25,0,25,0,1,,,,,,,,,
293005,2022-11-29_23h06.47.609,vts_reward_expectancy_bt,2022.2.4,MacIntel,58.82352941,Safari,1440,900,,,,,1,1135,,,,,,,,,,,,,,,,,W,181,triangle,1,0,,,,,,,,,,,,,,,,repeat,number,numRpt,k,0.593,Lo,,,,,,3,,,,,,,,high,26,0,26,0,1,,,,,,,,,
293005,2022-11-29_23h06.47.609,vts_reward_expectancy_bt,2022.2.4,MacIntel,58.82352941,Safari,1440,900,,,,,0,1135,,,,,,,,,,,,,,,,,D,146,hexagon,1,0,,,,,,,,,,,,,,,,repeat,number,numRpt,j,1.38,Hi,,,,,,3,,,,,,,,high,27,0,27,0,1,,,,,,,,,
293005,2022-11-29_23h06.47.609,vts_reward_expectancy_bt,2022.2.4,MacIntel,58.82352941,Safari,1440,900,,,,,0,1135,,,,,,,,,,,,,,,,,B,160,star,1,0,,,,,,,,,,,,,,,,repeat,number,numRpt,k,1.142,Hi,,,,,,3,,,,,,,,high,28,0,28,0,1,,,,,,,,,
293005,2022-11-29_23h06.47.609,vts_reward_expectancy_bt,2022.2.4,MacIntel,58.82352941,Safari,1440,900,,,,,1,1136,,,,,,,,,,,,,,,,,S,132,circle,1,0,,,,,,,,,,,,,,,,repeat,number,numRpt,j,0.659,Lo,,,,,,3,,,,,,,,high,29,0,29,0,1,,,,,,,,,
293005,2022-11-29_23h06.47.609,vts_reward_expectancy_bt,2022.2.4,MacIntel,58.82352941,Safari,1440,900,,,,,10,1146,,,,,,,,,,,,,,,,,Y,167,triangle,1,0,,,,,,,,,,,,,,,,repeat,number,numRpt,k,0.775,Lo,,,,,,3,,,,,,,,high,30,0,30,0,1,,,,,,,,,
293005,2022-11-29_23h06.47.609,vts_reward_expectancy_bt,2022.2.4,MacIntel,58.82352941,Safari,1440,900,,,,,0,1146,,,,,,,,,,,,,,,,,U,139,hexagon,1,0,,,,,,,,,,,,,,,,repeat,number,numRpt,j,0.977,Hi,,,,,,3,,,,,,,,high,31,0,31,0,1,,,,,,,,,
293005,2022-11-29_23h06.47.609,vts_reward_expectancy_bt,2022.2.4,MacIntel,58.82352941,Safari,1440,900,,,,,0,1146,,,,,,,,,,,,,,,,,S,181,hexagon,1,0,,,,,,,,,,,,,,,,repeat,number,numRpt,k,1.243,Hi,,,,,,4,,,,,,space,3.783,high,0,0,0,0,1,,,,,,,,,
293005,2022-11-29_23h06.47.609,vts_reward_expectancy_bt,2022.2.4,MacIntel,58.82352941,Safari,1440,900,,,,,1,1147,,,,,,,,,,,,,,,,,H,139,triangle,1,0,,,,,,,,,,,,,,,,repeat,number,numRpt,j,1.077,Lo,,,,,,4,,,,,,,,high,1,0,1,0,1,,,,,,,,,
293005,2022-11-29_23h06.47.609,vts_reward_expectancy_bt,2022.2.4,MacIntel,58.82352941,Safari,1440,900,,,,,1,1148,,,,,,,,,,,,,,,,,F,174,circle,1,0,,,,,,,,,,,,,,,,repeat,number,numRpt,k,0.476,Lo,,,,,,4,,,,,,,,high,2,0,2,0,1,,,,,,,,,
