participant,date,expName,psychopyVersion,OS,frameRate,browser,xResolution,yResolution,key_resp.keys,key_resp.rt,training_resp.keys,training_resp.rt,points_trial,points_cumul,trainBlock,training.thisRepN,training.thisTrialN,training.thisN,training.thisIndex,training.ran,LTriangleOpac,LCircleOpac,LHexagonOpac,LStarOpac,RTriangleOpac,RCircleOpac,RHexagonOpac,RStarOpac,LShape_ID,RShape_ID,curr_topStim,curr_bottStim,curr_shape,acc,E1,target_resp_prac1.keys,target_resp_prac1.rt,pracBlock,task1_prac_trials.thisRepN,task1_prac_trials.thisTrialN,task1_prac_trials.thisN,task1_prac_trials.thisIndex,task1_prac_trials.ran,target_resp_prac2.keys,target_resp_prac2.rt,task2_praac_trials.thisRepN,task2_praac_trials.thisTrialN,task2_praac_trials.thisN,task2_praac_trials.thisIndex,task2_praac_trials.ran,alt,task,condition,target_resp.keys,target_resp.rt,rewCond,vts_practice_trials.thisRepN,vts_practice_trials.thisTrialN,vts_practice_trials.thisN,vts_practice_trials.thisIndex,vts_practice_trials.ran,blockNum,trials_norew.thisRepN,trials_norew.thisTrialN,trials_norew.thisN,trials_norew.thisIndex,trials_norew.ran,key_resp_2.keys,key_resp_2.rt,rewExpectancy,trials_rew.thisRepN,trials_rew.thisTrialN,trials_rew.thisN,trials_rew.thisIndex,trials_rew.ran,Q1,Q2,Q2_text,Q3,Q4,Q5_text,Q5,xRes,yRes
293188,2022-11-15_14h47.47.298,vts_reward_expectancy_bt,2022.2.4,MacIntel,120.0048002,Chrome,1512,982,,,,,,,,,,,,,,,,,,,,,,,,,,,,,,,,,,,,,,,,,,,,,,,,,,,,,,,,,,,,,,,,,,,,,,,,,,,,
293188,2022-11-15_14h47.47.298,vts_reward_expectancy_bt,2022.2.4,MacIntel,120.0048002,Chrome,1512,982,space,1.6684,,,,,,,,,,,,,,,,,,,,,,,,,,,,,,,,,,,,,,,,,,,,,,,,,,,,,,,,,,,,,,,,,,,,,,,,,,
293188,2022-11-15_14h47.47.298,vts_reward_expectancy_bt,2022.2.4,MacIntel,120.0048002,Chrome,1512,982,,,,,,,,,,,,,,,,,,,,,,,,,,,,,,,,,,,,,,,,,,,,,,,,,,,,,,,,,,,,,,,,,,,,,,,,,,,,
293188,2022-11-15_14h47.47.298,vts_reward_expectancy_bt,2022.2.4,MacIntel,120.0048002,Chrome,1512,982,,,a,3.0108,10,10,0,0,0,0,6,1,0,0,1,0,1,0,0,0,hexagon,triangle,,,,,,,,,,,,,,,,,,,,,,,,,,,,,,,,,,,,,,,,,,,,,,,,,,,,,,
293188,2022-11-15_14h47.47.298,vts_reward_expectancy_bt,2022.2.4,MacIntel,120.0048002,Chrome,1512,982,,,l,2.6141,10,20,0,0,1,1,8,1,0,0,1,0,0,0,0,1,hexagon,star,,,,,,,,,,,,,,,,,,,,,,,,,,,,,,,,,,,,,,,,,,,,,,,,,,,,,,
293188,2022-11-15_14h47.47.298,vts_reward_expectancy_bt,2022.2.4,MacIntel,120.0048002,Chrome,1512,982,,,a,1.1847,10,30,0,0,2,2,9,1,0,0,0,1,1,0,0,0,star,triangle,,,,,,,,,,,,,,,,,,,,,,,,,,,,,,,,,,,,,,,,,,,,,,,,,,,,,,
293188,2022-11-15_14h47.47.298,vts_reward_expectancy_bt,2022.2.4,MacIntel,120.0048002,Chrome,1512,982,,,l,0.8487,1,31,0,0,3,3,4,1,0,1,0,0,0,0,1,0,circle,hexagon,,,,,,,,,,,,,,,,,,,,,,,,,,,,,,,,,,,,,,,,,,,,,,,,,,,,,,
293188,2022-11-15_14h47.47.298,vts_reward_expectancy_bt,2022.2.4,MacIntel,120.0048002,Chrome,1512,982,,,a,1.6314,10,41,0,0,4,4,7,1,0,0,1,0,0,1,0,0,hexagon,circle,,,,,,,,,,,,,,,,,,,,,,,,,,,,,,,,,,,,,,,,,,,,,,,,,,,,,,
293188,2022-11-15_14h47.47.298,vts_reward_expectancy_bt,2022.2.4,MacIntel,120.0048002,Chrome,1512,982,,,l,1.1808,10,51,0,0,5,5,3,1,0,1,0,0,1,0,0,0,circle,triangle,,,,,,,,,,,,,,,,,,,,,,,,,,,,,,,,,,,,,,,,,,,,,,,,,,,,,,
293188,2022-11-15_14h47.47.298,vts_reward_expectancy_bt,2022.2.4,MacIntel,120.0048002,Chrome,1512,982,,,l,0.9364,10,61,0,0,6,6,2,1,1,0,0,0,0,0,0,1,triangle,star,,,,,,,,,,,,,,,,,,,,,,,,,,,,,,,,,,,,,,,,,,,,,,,,,,,,,,
293188,2022-11-15_14h47.47.298,vts_reward_expectancy_bt,2022.2.4,MacIntel,120.0048002,Chrome,1512,982,,,a,0.6933,10,71,0,0,7,7,11,1,0,0,0,1,0,0,1,0,star,hexagon,,,,,,,,,,,,,,,,,,,,,,,,,,,,,,,,,,,,,,,,,,,,,,,,,,,,,,
293188,2022-11-15_14h47.47.298,vts_reward_expectancy_bt,2022.2.4,MacIntel,120.0048002,Chrome,1512,982,,,a,1.35,1,72,0,0,8,8,0,1,1,0,0,0,0,1,0,0,triangle,circle,,,,,,,,,,,,,,,,,,,,,,,,,,,,,,,,,,,,,,,,,,,,,,,,,,,,,,
293188,2022-11-15_14h47.47.298,vts_reward_expectancy_bt,2022.2.4,MacIntel,120.0048002,Chrome,1512,982,,,a,0.524,1,73,0,0,9,9,10,1,0,0,0,1,0,1,0,0,star ,circle,,,,,,,,,,,,,,,,,,,,,,,,,,,,,,,,,,,,,,,,,,,,,,,,,,,,,,
293188,2022-11-15_14h47.47.298,vts_reward_expectancy_bt,2022.2.4,MacIntel,120.0048002,Chrome,1512,982,,,l,0.6679,10,83,0,0,10,10,5,1,0,1,0,0,0,0,0,1,circle,star,,,,,,,,,,,,,,,,,,,,,,,,,,,,,,,,,,,,,,,,,,,,,,,,,,,,,,
293188,2022-11-15_14h47.47.298,vts_reward_expectancy_bt,2022.2.4,MacIntel,120.0048002,Chrome,1512,982,,,l,0.7913,1,84,0,0,11,11,1,1,1,0,0,0,0,0,1,0,triangle,hexagon,,,,,,,,,,,,,,,,,,,,,,,,,,,,,,,,,,,,,,,,,,,,,,,,,,,,,,
293188,2022-11-15_14h47.47.298,vts_reward_expectancy_bt,2022.2.4,MacIntel,120.0048002,Chrome,1512,982,,,a,0.9746,1,85,0,1,0,12,11,1,0,0,0,1,0,0,1,0,star,hexagon,,,,,,,,,,,,,,,,,,,,,,,,,,,,,,,,,,,,,,,,,,,,,,,,,,,,,,
293188,2022-11-15_14h47.47.298,vts_reward_expectancy_bt,2022.2.4,MacIntel,120.0048002,Chrome,1512,982,,,a,0.4037,1,86,0,1,1,13,10,1,0,0,0,1,0,1,0,0,star ,circle,,,,,,,,,,,,,,,,,,,,,,,,,,,,,,,,,,,,,,,,,,,,,,,,,,,,,,
293188,2022-11-15_14h47.47.298,vts_reward_expectancy_bt,2022.2.4,MacIntel,120.0048002,Chrome,1512,982,,,l,0.4724,10,96,0,1,2,14,5,1,0,1,0,0,0,0,0,1,circle,star,,,,,,,,,,,,,,,,,,,,,,,,,,,,,,,,,,,,,,,,,,,,,,,,,,,,,,
293188,2022-11-15_14h47.47.298,vts_reward_expectancy_bt,2022.2.4,MacIntel,120.0048002,Chrome,1512,982,,,a,0.827,10,106,0,1,3,15,9,1,0,0,0,1,1,0,0,0,star,triangle,,,,,,,,,,,,,,,,,,,,,,,,,,,,,,,,,,,,,,,,,,,,,,,,,,,,,,
293188,2022-11-15_14h47.47.298,vts_reward_expectancy_bt,2022.2.4,MacIntel,120.0048002,Chrome,1512,982,,,l,0.5823,10,116,0,1,4,16,4,1,0,1,0,0,0,0,1,0,circle,hexagon,,,,,,,,,,,,,,,,,,,,,,,,,,,,,,,,,,,,,,,,,,,,,,,,,,,,,,
293188,2022-11-15_14h47.47.298,vts_reward_expectancy_bt,2022.2.4,MacIntel,120.0048002,Chrome,1512,982,,,a,0.5644,1,117,0,1,5,17,0,1,1,0,0,0,0,1,0,0,triangle,circle,,,,,,,,,,,,,,,,,,,,,,,,,,,,,,,,,,,,,,,,,,,,,,,,,,,,,,
293188,2022-11-15_14h47.47.298,vts_reward_expectancy_bt,2022.2.4,MacIntel,120.0048002,Chrome,1512,982,,,l,0.4763,10,127,0,1,6,18,8,1,0,0,1,0,0,0,0,1,hexagon,star,,,,,,,,,,,,,,,,,,,,,,,,,,,,,,,,,,,,,,,,,,,,,,,,,,,,,,
293188,2022-11-15_14h47.47.298,vts_reward_expectancy_bt,2022.2.4,MacIntel,120.0048002,Chrome,1512,982,,,l,0.4913,1,128,0,1,7,19,3,1,0,1,0,0,1,0,0,0,circle,triangle,,,,,,,,,,,,,,,,,,,,,,,,,,,,,,,,,,,,,,,,,,,,,,,,,,,,,,
293188,2022-11-15_14h47.47.298,vts_reward_expectancy_bt,2022.2.4,MacIntel,120.0048002,Chrome,1512,982,,,l,0.7996,10,138,0,1,8,20,2,1,1,0,0,0,0,0,0,1,triangle,star,,,,,,,,,,,,,,,,,,,,,,,,,,,,,,,,,,,,,,,,,,,,,,,,,,,,,,
293188,2022-11-15_14h47.47.298,vts_reward_expectancy_bt,2022.2.4,MacIntel,120.0048002,Chrome,1512,982,,,l,0.5697,1,139,0,1,9,21,6,1,0,0,1,0,1,0,0,0,hexagon,triangle,,,,,,,,,,,,,,,,,,,,,,,,,,,,,,,,,,,,,,,,,,,,,,,,,,,,,,
293188,2022-11-15_14h47.47.298,vts_reward_expectancy_bt,2022.2.4,MacIntel,120.0048002,Chrome,1512,982,,,l,0.6197,1,140,0,1,10,22,1,1,1,0,0,0,0,0,1,0,triangle,hexagon,,,,,,,,,,,,,,,,,,,,,,,,,,,,,,,,,,,,,,,,,,,,,,,,,,,,,,
293188,2022-11-15_14h47.47.298,vts_reward_expectancy_bt,2022.2.4,MacIntel,120.0048002,Chrome,1512,982,,,a,0.5204,1,141,0,1,11,23,7,1,0,0,1,0,0,1,0,0,hexagon,circle,,,,,,,,,,,,,,,,,,,,,,,,,,,,,,,,,,,,,,,,,,,,,,,,,,,,,,
293188,2022-11-15_14h47.47.298,vts_reward_expectancy_bt,2022.2.4,MacIntel,120.0048002,Chrome,1512,982,,,l,0.3356,1,142,0,2,0,24,5,1,0,1,0,0,0,0,0,1,circle,star,,,,,,,,,,,,,,,,,,,,,,,,,,,,,,,,,,,,,,,,,,,,,,,,,,,,,,
293188,2022-11-15_14h47.47.298,vts_reward_expectancy_bt,2022.2.4,MacIntel,120.0048002,Chrome,1512,982,,,a,0.3519,1,143,0,2,1,25,11,1,0,0,0,1,0,0,1,0,star,hexagon,,,,,,,,,,,,,,,,,,,,,,,,,,,,,,,,,,,,,,,,,,,,,,,,,,,,,,
293188,2022-11-15_14h47.47.298,vts_reward_expectancy_bt,2022.2.4,MacIntel,120.0048002,Chrome,1512,982,,,l,0.5953,1,144,0,2,2,26,9,1,0,0,0,1,1,0,0,0,star,triangle,,,,,,,,,,,,,,,,,,,,,,,,,,,,,,,,,,,,,,,,,,,,,,,,,,,,,,
293188,2022-11-15_14h47.47.298,vts_reward_expectancy_bt,2022.2.4,MacIntel,120.0048002,Chrome,1512,982,,,l,0.715,1,145,0,2,3,27,1,1,1,0,0,0,0,0,1,0,triangle,hexagon,,,,,,,,,,,,,,,,,,,,,,,,,,,,,,,,,,,,,,,,,,,,,,,,,,,,,,
293188,2022-11-15_14h47.47.298,vts_reward_expectancy_bt,2022.2.4,MacIntel,120.0048002,Chrome,1512,982,,,a,0.4962,1,146,0,2,4,28,10,1,0,0,0,1,0,1,0,0,star ,circle,,,,,,,,,,,,,,,,,,,,,,,,,,,,,,,,,,,,,,,,,,,,,,,,,,,,,,
293188,2022-11-15_14h47.47.298,vts_reward_expectancy_bt,2022.2.4,MacIntel,120.0048002,Chrome,1512,982,,,l,0.4242,1,147,0,2,5,29,3,1,0,1,0,0,1,0,0,0,circle,triangle,,,,,,,,,,,,,,,,,,,,,,,,,,,,,,,,,,,,,,,,,,,,,,,,,,,,,,
293188,2022-11-15_14h47.47.298,vts_reward_expectancy_bt,2022.2.4,MacIntel,120.0048002,Chrome,1512,982,,,l,2.0828,1,148,0,2,6,30,0,1,1,0,0,0,0,1,0,0,triangle,circle,,,,,,,,,,,,,,,,,,,,,,,,,,,,,,,,,,,,,,,,,,,,,,,,,,,,,,
293188,2022-11-15_14h47.47.298,vts_reward_expectancy_bt,2022.2.4,MacIntel,120.0048002,Chrome,1512,982,,,a,0.3816,10,158,0,2,7,31,7,1,0,0,1,0,0,1,0,0,hexagon,circle,,,,,,,,,,,,,,,,,,,,,,,,,,,,,,,,,,,,,,,,,,,,,,,,,,,,,,
293188,2022-11-15_14h47.47.298,vts_reward_expectancy_bt,2022.2.4,MacIntel,120.0048002,Chrome,1512,982,,,l,0.7653,10,168,0,2,8,32,8,1,0,0,1,0,0,0,0,1,hexagon,star,,,,,,,,,,,,,,,,,,,,,,,,,,,,,,,,,,,,,,,,,,,,,,,,,,,,,,
293188,2022-11-15_14h47.47.298,vts_reward_expectancy_bt,2022.2.4,MacIntel,120.0048002,Chrome,1512,982,,,l,2.6854,1,169,0,2,9,33,6,1,0,0,1,0,1,0,0,0,hexagon,triangle,,,,,,,,,,,,,,,,,,,,,,,,,,,,,,,,,,,,,,,,,,,,,,,,,,,,,,
293188,2022-11-15_14h47.47.298,vts_reward_expectancy_bt,2022.2.4,MacIntel,120.0048002,Chrome,1512,982,,,a,7.7623,1,170,0,2,10,34,4,1,0,1,0,0,0,0,1,0,circle,hexagon,,,,,,,,,,,,,,,,,,,,,,,,,,,,,,,,,,,,,,,,,,,,,,,,,,,,,,
293188,2022-11-15_14h47.47.298,vts_reward_expectancy_bt,2022.2.4,MacIntel,120.0048002,Chrome,1512,982,,,l,0.5274,10,180,0,2,11,35,2,1,1,0,0,0,0,0,0,1,triangle,star,,,,,,,,,,,,,,,,,,,,,,,,,,,,,,,,,,,,,,,,,,,,,,,,,,,,,,
293188,2022-11-15_14h47.47.298,vts_reward_expectancy_bt,2022.2.4,MacIntel,120.0048002,Chrome,1512,982,,,l,1.3677,1,181,1,0,0,0,3,1,0,1,0,0,1,0,0,0,circle,triangle,,,,,,,,,,,,,,,,,,,,,,,,,,,,,,,,,,,,,,,,,,,,,,,,,,,,,,
293188,2022-11-15_14h47.47.298,vts_reward_expectancy_bt,2022.2.4,MacIntel,120.0048002,Chrome,1512,982,,,l,2.0287,10,191,1,0,1,1,1,1,1,0,0,0,0,0,1,0,triangle,hexagon,,,,,,,,,,,,,,,,,,,,,,,,,,,,,,,,,,,,,,,,,,,,,,,,,,,,,,
293188,2022-11-15_14h47.47.298,vts_reward_expectancy_bt,2022.2.4,MacIntel,120.0048002,Chrome,1512,982,,,l,1.1564,1,192,1,0,2,2,0,1,1,0,0,0,0,1,0,0,triangle,circle,,,,,,,,,,,,,,,,,,,,,,,,,,,,,,,,,,,,,,,,,,,,,,,,,,,,,,
293188,2022-11-15_14h47.47.298,vts_reward_expectancy_bt,2022.2.4,MacIntel,120.0048002,Chrome,1512,982,,,a,1.4806,10,202,1,0,3,3,6,1,0,0,1,0,1,0,0,0,hexagon,triangle,,,,,,,,,,,,,,,,,,,,,,,,,,,,,,,,,,,,,,,,,,,,,,,,,,,,,,
293188,2022-11-15_14h47.47.298,vts_reward_expectancy_bt,2022.2.4,MacIntel,120.0048002,Chrome,1512,982,,,a,0.5487,1,203,1,0,4,4,7,1,0,0,1,0,0,1,0,0,hexagon,circle,,,,,,,,,,,,,,,,,,,,,,,,,,,,,,,,,,,,,,,,,,,,,,,,,,,,,,
293188,2022-11-15_14h47.47.298,vts_reward_expectancy_bt,2022.2.4,MacIntel,120.0048002,Chrome,1512,982,,,l,0.6324,10,213,1,0,5,5,2,1,1,0,0,0,0,0,0,1,triangle,star,,,,,,,,,,,,,,,,,,,,,,,,,,,,,,,,,,,,,,,,,,,,,,,,,,,,,,
293188,2022-11-15_14h47.47.298,vts_reward_expectancy_bt,2022.2.4,MacIntel,120.0048002,Chrome,1512,982,,,a,1.2839,10,223,1,0,6,6,9,1,0,0,0,1,1,0,0,0,star,triangle,,,,,,,,,,,,,,,,,,,,,,,,,,,,,,,,,,,,,,,,,,,,,,,,,,,,,,
293188,2022-11-15_14h47.47.298,vts_reward_expectancy_bt,2022.2.4,MacIntel,120.0048002,Chrome,1512,982,,,a,0.8295,10,233,1,0,7,7,11,1,0,0,0,1,0,0,1,0,star,hexagon,,,,,,,,,,,,,,,,,,,,,,,,,,,,,,,,,,,,,,,,,,,,,,,,,,,,,,
293188,2022-11-15_14h47.47.298,vts_reward_expectancy_bt,2022.2.4,MacIntel,120.0048002,Chrome,1512,982,,,a,0.9238,1,234,1,0,8,8,4,1,0,1,0,0,0,0,1,0,circle,hexagon,,,,,,,,,,,,,,,,,,,,,,,,,,,,,,,,,,,,,,,,,,,,,,,,,,,,,,
293188,2022-11-15_14h47.47.298,vts_reward_expectancy_bt,2022.2.4,MacIntel,120.0048002,Chrome,1512,982,,,l,0.5145,10,244,1,0,9,9,5,1,0,1,0,0,0,0,0,1,circle,star,,,,,,,,,,,,,,,,,,,,,,,,,,,,,,,,,,,,,,,,,,,,,,,,,,,,,,
293188,2022-11-15_14h47.47.298,vts_reward_expectancy_bt,2022.2.4,MacIntel,120.0048002,Chrome,1512,982,,,a,0.5553,10,254,1,0,10,10,10,1,0,0,0,1,0,1,0,0,star ,circle,,,,,,,,,,,,,,,,,,,,,,,,,,,,,,,,,,,,,,,,,,,,,,,,,,,,,,
293188,2022-11-15_14h47.47.298,vts_reward_expectancy_bt,2022.2.4,MacIntel,120.0048002,Chrome,1512,982,,,l,0.3951,10,264,1,0,11,11,8,1,0,0,1,0,0,0,0,1,hexagon,star,,,,,,,,,,,,,,,,,,,,,,,,,,,,,,,,,,,,,,,,,,,,,,,,,,,,,,
293188,2022-11-15_14h47.47.298,vts_reward_expectancy_bt,2022.2.4,MacIntel,120.0048002,Chrome,1512,982,,,l,0.3595,10,274,1,1,0,12,8,1,0,0,1,0,0,0,0,1,hexagon,star,,,,,,,,,,,,,,,,,,,,,,,,,,,,,,,,,,,,,,,,,,,,,,,,,,,,,,
293188,2022-11-15_14h47.47.298,vts_reward_expectancy_bt,2022.2.4,MacIntel,120.0048002,Chrome,1512,982,,,a,0.7825,10,284,1,1,1,13,6,1,0,0,1,0,1,0,0,0,hexagon,triangle,,,,,,,,,,,,,,,,,,,,,,,,,,,,,,,,,,,,,,,,,,,,,,,,,,,,,,
293188,2022-11-15_14h47.47.298,vts_reward_expectancy_bt,2022.2.4,MacIntel,120.0048002,Chrome,1512,982,,,l,0.6003,1,285,1,1,2,14,4,1,0,1,0,0,0,0,1,0,circle,hexagon,,,,,,,,,,,,,,,,,,,,,,,,,,,,,,,,,,,,,,,,,,,,,,,,,,,,,,
293188,2022-11-15_14h47.47.298,vts_reward_expectancy_bt,2022.2.4,MacIntel,120.0048002,Chrome,1512,982,,,a,0.4117,10,295,1,1,3,15,9,1,0,0,0,1,1,0,0,0,star,triangle,,,,,,,,,,,,,,,,,,,,,,,,,,,,,,,,,,,,,,,,,,,,,,,,,,,,,,
293188,2022-11-15_14h47.47.298,vts_reward_expectancy_bt,2022.2.4,MacIntel,120.0048002,Chrome,1512,982,,,l,0.4895,10,305,1,1,4,16,1,1,1,0,0,0,0,0,1,0,triangle,hexagon,,,,,,,,,,,,,,,,,,,,,,,,,,,,,,,,,,,,,,,,,,,,,,,,,,,,,,
293188,2022-11-15_14h47.47.298,vts_reward_expectancy_bt,2022.2.4,MacIntel,120.0048002,Chrome,1512,982,,,l,0.4282,1,306,1,1,5,17,3,1,0,1,0,0,1,0,0,0,circle,triangle,,,,,,,,,,,,,,,,,,,,,,,,,,,,,,,,,,,,,,,,,,,,,,,,,,,,,,
293188,2022-11-15_14h47.47.298,vts_reward_expectancy_bt,2022.2.4,MacIntel,120.0048002,Chrome,1512,982,,,l,0.5302,1,307,1,1,6,18,5,1,0,1,0,0,0,0,0,1,circle,star,,,,,,,,,,,,,,,,,,,,,,,,,,,,,,,,,,,,,,,,,,,,,,,,,,,,,,
293188,2022-11-15_14h47.47.298,vts_reward_expectancy_bt,2022.2.4,MacIntel,120.0048002,Chrome,1512,982,,,a,0.7916,10,317,1,1,7,19,11,1,0,0,0,1,0,0,1,0,star,hexagon,,,,,,,,,,,,,,,,,,,,,,,,,,,,,,,,,,,,,,,,,,,,,,,,,,,,,,
293188,2022-11-15_14h47.47.298,vts_reward_expectancy_bt,2022.2.4,MacIntel,120.0048002,Chrome,1512,982,,,l,0.7623,10,327,1,1,8,20,7,1,0,0,1,0,0,1,0,0,hexagon,circle,,,,,,,,,,,,,,,,,,,,,,,,,,,,,,,,,,,,,,,,,,,,,,,,,,,,,,
293188,2022-11-15_14h47.47.298,vts_reward_expectancy_bt,2022.2.4,MacIntel,120.0048002,Chrome,1512,982,,,a,0.2833,10,337,1,1,9,21,10,1,0,0,0,1,0,1,0,0,star ,circle,,,,,,,,,,,,,,,,,,,,,,,,,,,,,,,,,,,,,,,,,,,,,,,,,,,,,,
293188,2022-11-15_14h47.47.298,vts_reward_expectancy_bt,2022.2.4,MacIntel,120.0048002,Chrome,1512,982,,,l,0.5547,1,338,1,1,10,22,0,1,1,0,0,0,0,1,0,0,triangle,circle,,,,,,,,,,,,,,,,,,,,,,,,,,,,,,,,,,,,,,,,,,,,,,,,,,,,,,
293188,2022-11-15_14h47.47.298,vts_reward_expectancy_bt,2022.2.4,MacIntel,120.0048002,Chrome,1512,982,,,l,0.6798,1,339,1,1,11,23,2,1,1,0,0,0,0,0,0,1,triangle,star,,,,,,,,,,,,,,,,,,,,,,,,,,,,,,,,,,,,,,,,,,,,,,,,,,,,,,
293188,2022-11-15_14h47.47.298,vts_reward_expectancy_bt,2022.2.4,MacIntel,120.0048002,Chrome,1512,982,,,a,0.6463,10,349,1,2,0,24,5,1,0,1,0,0,0,0,0,1,circle,star,,,,,,,,,,,,,,,,,,,,,,,,,,,,,,,,,,,,,,,,,,,,,,,,,,,,,,
293188,2022-11-15_14h47.47.298,vts_reward_expectancy_bt,2022.2.4,MacIntel,120.0048002,Chrome,1512,982,,,l,0.6508,1,350,1,2,1,25,0,1,1,0,0,0,0,1,0,0,triangle,circle,,,,,,,,,,,,,,,,,,,,,,,,,,,,,,,,,,,,,,,,,,,,,,,,,,,,,,
293188,2022-11-15_14h47.47.298,vts_reward_expectancy_bt,2022.2.4,MacIntel,120.0048002,Chrome,1512,982,,,a,0.4834,10,360,1,2,2,26,9,1,0,0,0,1,1,0,0,0,star,triangle,,,,,,,,,,,,,,,,,,,,,,,,,,,,,,,,,,,,,,,,,,,,,,,,,,,,,,
293188,2022-11-15_14h47.47.298,vts_reward_expectancy_bt,2022.2.4,MacIntel,120.0048002,Chrome,1512,982,,,l,0.499,10,370,1,2,3,27,1,1,1,0,0,0,0,0,1,0,triangle,hexagon,,,,,,,,,,,,,,,,,,,,,,,,,,,,,,,,,,,,,,,,,,,,,,,,,,,,,,
293188,2022-11-15_14h47.47.298,vts_reward_expectancy_bt,2022.2.4,MacIntel,120.0048002,Chrome,1512,982,,,l,0.5439,10,380,1,2,4,28,4,1,0,1,0,0,0,0,1,0,circle,hexagon,,,,,,,,,,,,,,,,,,,,,,,,,,,,,,,,,,,,,,,,,,,,,,,,,,,,,,
293188,2022-11-15_14h47.47.298,vts_reward_expectancy_bt,2022.2.4,MacIntel,120.0048002,Chrome,1512,982,,,a,0.4993,10,390,1,2,5,29,10,1,0,0,0,1,0,1,0,0,star ,circle,,,,,,,,,,,,,,,,,,,,,,,,,,,,,,,,,,,,,,,,,,,,,,,,,,,,,,
293188,2022-11-15_14h47.47.298,vts_reward_expectancy_bt,2022.2.4,MacIntel,120.0048002,Chrome,1512,982,,,a,1.0754,1,391,1,2,6,30,11,1,0,0,0,1,0,0,1,0,star,hexagon,,,,,,,,,,,,,,,,,,,,,,,,,,,,,,,,,,,,,,,,,,,,,,,,,,,,,,
293188,2022-11-15_14h47.47.298,vts_reward_expectancy_bt,2022.2.4,MacIntel,120.0048002,Chrome,1512,982,,,l,0.6178,10,401,1,2,7,31,2,1,1,0,0,0,0,0,0,1,triangle,star,,,,,,,,,,,,,,,,,,,,,,,,,,,,,,,,,,,,,,,,,,,,,,,,,,,,,,
293188,2022-11-15_14h47.47.298,vts_reward_expectancy_bt,2022.2.4,MacIntel,120.0048002,Chrome,1512,982,,,a,1.0484,10,411,1,2,8,32,7,1,0,0,1,0,0,1,0,0,hexagon,circle,,,,,,,,,,,,,,,,,,,,,,,,,,,,,,,,,,,,,,,,,,,,,,,,,,,,,,
293188,2022-11-15_14h47.47.298,vts_reward_expectancy_bt,2022.2.4,MacIntel,120.0048002,Chrome,1512,982,,,l,0.7847,10,421,1,2,9,33,8,1,0,0,1,0,0,0,0,1,hexagon,star,,,,,,,,,,,,,,,,,,,,,,,,,,,,,,,,,,,,,,,,,,,,,,,,,,,,,,
293188,2022-11-15_14h47.47.298,vts_reward_expectancy_bt,2022.2.4,MacIntel,120.0048002,Chrome,1512,982,,,a,1.8555,10,431,1,2,10,34,3,1,0,1,0,0,1,0,0,0,circle,triangle,,,,,,,,,,,,,,,,,,,,,,,,,,,,,,,,,,,,,,,,,,,,,,,,,,,,,,
293188,2022-11-15_14h47.47.298,vts_reward_expectancy_bt,2022.2.4,MacIntel,120.0048002,Chrome,1512,982,,,l,0.6623,10,441,1,2,11,35,6,1,0,0,1,0,1,0,0,0,hexagon,triangle,,,,,,,,,,,,,,,,,,,,,,,,,,,,,,,,,,,,,,,,,,,,,,,,,,,,,,
293188,2022-11-15_14h47.47.298,vts_reward_expectancy_bt,2022.2.4,MacIntel,120.0048002,Chrome,1512,982,,,l,1.0692,10,451,2,0,0,0,2,1,1,0,0,0,0,0,0,1,triangle,star,,,,,,,,,,,,,,,,,,,,,,,,,,,,,,,,,,,,,,,,,,,,,,,,,,,,,,
293188,2022-11-15_14h47.47.298,vts_reward_expectancy_bt,2022.2.4,MacIntel,120.0048002,Chrome,1512,982,,,a,0.7344,10,461,2,0,1,1,3,1,0,1,0,0,1,0,0,0,circle,triangle,,,,,,,,,,,,,,,,,,,,,,,,,,,,,,,,,,,,,,,,,,,,,,,,,,,,,,
293188,2022-11-15_14h47.47.298,vts_reward_expectancy_bt,2022.2.4,MacIntel,120.0048002,Chrome,1512,982,,,a,0.6146,1,462,2,0,2,2,9,1,0,0,0,1,1,0,0,0,star,triangle,,,,,,,,,,,,,,,,,,,,,,,,,,,,,,,,,,,,,,,,,,,,,,,,,,,,,,
293188,2022-11-15_14h47.47.298,vts_reward_expectancy_bt,2022.2.4,MacIntel,120.0048002,Chrome,1512,982,,,l,0.4502,10,472,2,0,3,3,8,1,0,0,1,0,0,0,0,1,hexagon,star,,,,,,,,,,,,,,,,,,,,,,,,,,,,,,,,,,,,,,,,,,,,,,,,,,,,,,
293188,2022-11-15_14h47.47.298,vts_reward_expectancy_bt,2022.2.4,MacIntel,120.0048002,Chrome,1512,982,,,a,1.1243,1,473,2,0,4,4,0,1,1,0,0,0,0,1,0,0,triangle,circle,,,,,,,,,,,,,,,,,,,,,,,,,,,,,,,,,,,,,,,,,,,,,,,,,,,,,,
293188,2022-11-15_14h47.47.298,vts_reward_expectancy_bt,2022.2.4,MacIntel,120.0048002,Chrome,1512,982,,,l,0.3657,1,474,2,0,5,5,4,1,0,1,0,0,0,0,1,0,circle,hexagon,,,,,,,,,,,,,,,,,,,,,,,,,,,,,,,,,,,,,,,,,,,,,,,,,,,,,,
293188,2022-11-15_14h47.47.298,vts_reward_expectancy_bt,2022.2.4,MacIntel,120.0048002,Chrome,1512,982,,,a,0.5329,10,484,2,0,6,6,11,1,0,0,0,1,0,0,1,0,star,hexagon,,,,,,,,,,,,,,,,,,,,,,,,,,,,,,,,,,,,,,,,,,,,,,,,,,,,,,
293188,2022-11-15_14h47.47.298,vts_reward_expectancy_bt,2022.2.4,MacIntel,120.0048002,Chrome,1512,982,,,l,0.4712,10,494,2,0,7,7,1,1,1,0,0,0,0,0,1,0,triangle,hexagon,,,,,,,,,,,,,,,,,,,,,,,,,,,,,,,,,,,,,,,,,,,,,,,,,,,,,,
293188,2022-11-15_14h47.47.298,vts_reward_expectancy_bt,2022.2.4,MacIntel,120.0048002,Chrome,1512,982,,,a,0.3611,10,504,2,0,8,8,7,1,0,0,1,0,0,1,0,0,hexagon,circle,,,,,,,,,,,,,,,,,,,,,,,,,,,,,,,,,,,,,,,,,,,,,,,,,,,,,,
293188,2022-11-15_14h47.47.298,vts_reward_expectancy_bt,2022.2.4,MacIntel,120.0048002,Chrome,1512,982,,,l,0.5172,10,514,2,0,9,9,5,1,0,1,0,0,0,0,0,1,circle,star,,,,,,,,,,,,,,,,,,,,,,,,,,,,,,,,,,,,,,,,,,,,,,,,,,,,,,
293188,2022-11-15_14h47.47.298,vts_reward_expectancy_bt,2022.2.4,MacIntel,120.0048002,Chrome,1512,982,,,a,0.4086,10,524,2,0,10,10,10,1,0,0,0,1,0,1,0,0,star ,circle,,,,,,,,,,,,,,,,,,,,,,,,,,,,,,,,,,,,,,,,,,,,,,,,,,,,,,
293188,2022-11-15_14h47.47.298,vts_reward_expectancy_bt,2022.2.4,MacIntel,120.0048002,Chrome,1512,982,,,l,0.979,1,525,2,0,11,11,6,1,0,0,1,0,1,0,0,0,hexagon,triangle,,,,,,,,,,,,,,,,,,,,,,,,,,,,,,,,,,,,,,,,,,,,,,,,,,,,,,
293188,2022-11-15_14h47.47.298,vts_reward_expectancy_bt,2022.2.4,MacIntel,120.0048002,Chrome,1512,982,,,a,0.3517,1,526,2,1,0,12,10,1,0,0,0,1,0,1,0,0,star ,circle,,,,,,,,,,,,,,,,,,,,,,,,,,,,,,,,,,,,,,,,,,,,,,,,,,,,,,
293188,2022-11-15_14h47.47.298,vts_reward_expectancy_bt,2022.2.4,MacIntel,120.0048002,Chrome,1512,982,,,l,0.3835,1,527,2,1,1,13,0,1,1,0,0,0,0,1,0,0,triangle,circle,,,,,,,,,,,,,,,,,,,,,,,,,,,,,,,,,,,,,,,,,,,,,,,,,,,,,,
293188,2022-11-15_14h47.47.298,vts_reward_expectancy_bt,2022.2.4,MacIntel,120.0048002,Chrome,1512,982,,,l,0.4394,1,528,2,1,2,14,5,1,0,1,0,0,0,0,0,1,circle,star,,,,,,,,,,,,,,,,,,,,,,,,,,,,,,,,,,,,,,,,,,,,,,,,,,,,,,
293188,2022-11-15_14h47.47.298,vts_reward_expectancy_bt,2022.2.4,MacIntel,120.0048002,Chrome,1512,982,,,a,0.3262,1,529,2,1,3,15,11,1,0,0,0,1,0,0,1,0,star,hexagon,,,,,,,,,,,,,,,,,,,,,,,,,,,,,,,,,,,,,,,,,,,,,,,,,,,,,,
293188,2022-11-15_14h47.47.298,vts_reward_expectancy_bt,2022.2.4,MacIntel,120.0048002,Chrome,1512,982,,,a,0.4279,1,530,2,1,4,16,7,1,0,0,1,0,0,1,0,0,hexagon,circle,,,,,,,,,,,,,,,,,,,,,,,,,,,,,,,,,,,,,,,,,,,,,,,,,,,,,,
293188,2022-11-15_14h47.47.298,vts_reward_expectancy_bt,2022.2.4,MacIntel,120.0048002,Chrome,1512,982,,,l,0.3007,1,531,2,1,5,17,3,1,0,1,0,0,1,0,0,0,circle,triangle,,,,,,,,,,,,,,,,,,,,,,,,,,,,,,,,,,,,,,,,,,,,,,,,,,,,,,
293188,2022-11-15_14h47.47.298,vts_reward_expectancy_bt,2022.2.4,MacIntel,120.0048002,Chrome,1512,982,,,l,0.6944,1,532,2,1,6,18,8,1,0,0,1,0,0,0,0,1,hexagon,star,,,,,,,,,,,,,,,,,,,,,,,,,,,,,,,,,,,,,,,,,,,,,,,,,,,,,,
293188,2022-11-15_14h47.47.298,vts_reward_expectancy_bt,2022.2.4,MacIntel,120.0048002,Chrome,1512,982,,,a,0.3037,1,533,2,1,7,19,9,1,0,0,0,1,1,0,0,0,star,triangle,,,,,,,,,,,,,,,,,,,,,,,,,,,,,,,,,,,,,,,,,,,,,,,,,,,,,,
293188,2022-11-15_14h47.47.298,vts_reward_expectancy_bt,2022.2.4,MacIntel,120.0048002,Chrome,1512,982,,,l,0.4296,1,534,2,1,8,20,1,1,1,0,0,0,0,0,1,0,triangle,hexagon,,,,,,,,,,,,,,,,,,,,,,,,,,,,,,,,,,,,,,,,,,,,,,,,,,,,,,
293188,2022-11-15_14h47.47.298,vts_reward_expectancy_bt,2022.2.4,MacIntel,120.0048002,Chrome,1512,982,,,l,0.5497,10,544,2,1,9,21,2,1,1,0,0,0,0,0,0,1,triangle,star,,,,,,,,,,,,,,,,,,,,,,,,,,,,,,,,,,,,,,,,,,,,,,,,,,,,,,
293188,2022-11-15_14h47.47.298,vts_reward_expectancy_bt,2022.2.4,MacIntel,120.0048002,Chrome,1512,982,,,a,0.7335,10,554,2,1,10,22,4,1,0,1,0,0,0,0,1,0,circle,hexagon,,,,,,,,,,,,,,,,,,,,,,,,,,,,,,,,,,,,,,,,,,,,,,,,,,,,,,
293188,2022-11-15_14h47.47.298,vts_reward_expectancy_bt,2022.2.4,MacIntel,120.0048002,Chrome,1512,982,,,a,0.8164,10,564,2,1,11,23,6,1,0,0,1,0,1,0,0,0,hexagon,triangle,,,,,,,,,,,,,,,,,,,,,,,,,,,,,,,,,,,,,,,,,,,,,,,,,,,,,,
293188,2022-11-15_14h47.47.298,vts_reward_expectancy_bt,2022.2.4,MacIntel,120.0048002,Chrome,1512,982,,,a,0.4929,10,574,2,2,0,24,9,1,0,0,0,1,1,0,0,0,star,triangle,,,,,,,,,,,,,,,,,,,,,,,,,,,,,,,,,,,,,,,,,,,,,,,,,,,,,,
293188,2022-11-15_14h47.47.298,vts_reward_expectancy_bt,2022.2.4,MacIntel,120.0048002,Chrome,1512,982,,,l,0.7327,10,584,2,2,1,25,3,1,0,1,0,0,1,0,0,0,circle,triangle,,,,,,,,,,,,,,,,,,,,,,,,,,,,,,,,,,,,,,,,,,,,,,,,,,,,,,
293188,2022-11-15_14h47.47.298,vts_reward_expectancy_bt,2022.2.4,MacIntel,120.0048002,Chrome,1512,982,,,a,0.5583,10,594,2,2,2,26,0,1,1,0,0,0,0,1,0,0,triangle,circle,,,,,,,,,,,,,,,,,,,,,,,,,,,,,,,,,,,,,,,,,,,,,,,,,,,,,,
293188,2022-11-15_14h47.47.298,vts_reward_expectancy_bt,2022.2.4,MacIntel,120.0048002,Chrome,1512,982,,,l,0.4858,10,604,2,2,3,27,5,1,0,1,0,0,0,0,0,1,circle,star,,,,,,,,,,,,,,,,,,,,,,,,,,,,,,,,,,,,,,,,,,,,,,,,,,,,,,
293188,2022-11-15_14h47.47.298,vts_reward_expectancy_bt,2022.2.4,MacIntel,120.0048002,Chrome,1512,982,,,a,0.7056,10,614,2,2,4,28,4,1,0,1,0,0,0,0,1,0,circle,hexagon,,,,,,,,,,,,,,,,,,,,,,,,,,,,,,,,,,,,,,,,,,,,,,,,,,,,,,
293188,2022-11-15_14h47.47.298,vts_reward_expectancy_bt,2022.2.4,MacIntel,120.0048002,Chrome,1512,982,,,a,0.899,10,624,2,2,5,29,7,1,0,0,1,0,0,1,0,0,hexagon,circle,,,,,,,,,,,,,,,,,,,,,,,,,,,,,,,,,,,,,,,,,,,,,,,,,,,,,,
293188,2022-11-15_14h47.47.298,vts_reward_expectancy_bt,2022.2.4,MacIntel,120.0048002,Chrome,1512,982,,,l,0.4656,10,634,2,2,6,30,8,1,0,0,1,0,0,0,0,1,hexagon,star,,,,,,,,,,,,,,,,,,,,,,,,,,,,,,,,,,,,,,,,,,,,,,,,,,,,,,
293188,2022-11-15_14h47.47.298,vts_reward_expectancy_bt,2022.2.4,MacIntel,120.0048002,Chrome,1512,982,,,a,0.4098,1,635,2,2,7,31,11,1,0,0,0,1,0,0,1,0,star,hexagon,,,,,,,,,,,,,,,,,,,,,,,,,,,,,,,,,,,,,,,,,,,,,,,,,,,,,,
293188,2022-11-15_14h47.47.298,vts_reward_expectancy_bt,2022.2.4,MacIntel,120.0048002,Chrome,1512,982,,,l,0.4161,10,645,2,2,8,32,1,1,1,0,0,0,0,0,1,0,triangle,hexagon,,,,,,,,,,,,,,,,,,,,,,,,,,,,,,,,,,,,,,,,,,,,,,,,,,,,,,
293188,2022-11-15_14h47.47.298,vts_reward_expectancy_bt,2022.2.4,MacIntel,120.0048002,Chrome,1512,982,,,a,0.4253,10,655,2,2,9,33,10,1,0,0,0,1,0,1,0,0,star ,circle,,,,,,,,,,,,,,,,,,,,,,,,,,,,,,,,,,,,,,,,,,,,,,,,,,,,,,
293188,2022-11-15_14h47.47.298,vts_reward_expectancy_bt,2022.2.4,MacIntel,120.0048002,Chrome,1512,982,,,l,0.5067,1,656,2,2,10,34,2,1,1,0,0,0,0,0,0,1,triangle,star,,,,,,,,,,,,,,,,,,,,,,,,,,,,,,,,,,,,,,,,,,,,,,,,,,,,,,
293188,2022-11-15_14h47.47.298,vts_reward_expectancy_bt,2022.2.4,MacIntel,120.0048002,Chrome,1512,982,,,a,0.6788,10,666,2,2,11,35,6,1,0,0,1,0,1,0,0,0,hexagon,triangle,,,,,,,,,,,,,,,,,,,,,,,,,,,,,,,,,,,,,,,,,,,,,,,,,,,,,,
293188,2022-11-15_14h47.47.298,vts_reward_expectancy_bt,2022.2.4,MacIntel,120.0048002,Chrome,1512,982,,,,,,,,,,,,,,,,,,,,,,,D,146,star,1,0,d,2.1308,0,0,0,0,0,1,,,,,,,,,,,,,,,,,,,,,,,,,,,,,,,,,,,,,,,,,
293188,2022-11-15_14h47.47.298,vts_reward_expectancy_bt,2022.2.4,MacIntel,120.0048002,Chrome,1512,982,,,,,,,,,,,,,,,,,,,,,,,B,174,hexagon,1,0,d,0.7454,0,1,0,1,0,1,,,,,,,,,,,,,,,,,,,,,,,,,,,,,,,,,,,,,,,,,
293188,2022-11-15_14h47.47.298,vts_reward_expectancy_bt,2022.2.4,MacIntel,120.0048002,Chrome,1512,982,,,,,,,,,,,,,,,,,,,,,,,F,167,circle,0,0,f,0.6775,0,2,0,2,0,1,,,,,,,,,,,,,,,,,,,,,,,,,,,,,,,,,,,,,,,,,
293188,2022-11-15_14h47.47.298,vts_reward_expectancy_bt,2022.2.4,MacIntel,120.0048002,Chrome,1512,982,,,,,,,,,,,,,,,,,,,,,,,H,160,triangle,1,1,d,2.9297,0,3,0,3,0,1,,,,,,,,,,,,,,,,,,,,,,,,,,,,,,,,,,,,,,,,,
293188,2022-11-15_14h47.47.298,vts_reward_expectancy_bt,2022.2.4,MacIntel,120.0048002,Chrome,1512,982,,,,,,,,,,,,,,,,,,,,,,,W,132,star,1,0,f,0.6296,0,4,0,4,0,1,,,,,,,,,,,,,,,,,,,,,,,,,,,,,,,,,,,,,,,,,
293188,2022-11-15_14h47.47.298,vts_reward_expectancy_bt,2022.2.4,MacIntel,120.0048002,Chrome,1512,982,,,,,,,,,,,,,,,,,,,,,,,U,139,hexagon,0,0,,,0,5,0,5,0,1,,,,,,,,,,,,,,,,,,,,,,,,,,,,,,,,,,,,,,,,,
293188,2022-11-15_14h47.47.298,vts_reward_expectancy_bt,2022.2.4,MacIntel,120.0048002,Chrome,1512,982,,,,,,,,,,,,,,,,,,,,,,,Y,181,circle,1,1,f,1.0756,0,6,0,6,0,1,,,,,,,,,,,,,,,,,,,,,,,,,,,,,,,,,,,,,,,,,
293188,2022-11-15_14h47.47.298,vts_reward_expectancy_bt,2022.2.4,MacIntel,120.0048002,Chrome,1512,982,,,,,,,,,,,,,,,,,,,,,,,S,125,triangle,0,0,,,0,7,0,7,0,1,,,,,,,,,,,,,,,,,,,,,,,,,,,,,,,,,,,,,,,,,
293188,2022-11-15_14h47.47.298,vts_reward_expectancy_bt,2022.2.4,MacIntel,120.0048002,Chrome,1512,982,,,,,,,,,,,,,,,,,,,,,,,D,146,hexagon,1,1,d,0.66,0,8,0,8,0,1,,,,,,,,,,,,,,,,,,,,,,,,,,,,,,,,,,,,,,,,,
293188,2022-11-15_14h47.47.298,vts_reward_expectancy_bt,2022.2.4,MacIntel,120.0048002,Chrome,1512,982,,,,,,,,,,,,,,,,,,,,,,,B,174,star,1,0,d,0.6706,0,9,0,9,0,1,,,,,,,,,,,,,,,,,,,,,,,,,,,,,,,,,,,,,,,,,
293188,2022-11-15_14h47.47.298,vts_reward_expectancy_bt,2022.2.4,MacIntel,120.0048002,Chrome,1512,982,,,,,,,,,,,,,,,,,,,,,,,S,160,triangle,0,0,d,1.7805,1,0,0,0,0,1,,,,,,,,,,,,,,,,,,,,,,,,,,,,,,,,,,,,,,,,,
293188,2022-11-15_14h47.47.298,vts_reward_expectancy_bt,2022.2.4,MacIntel,120.0048002,Chrome,1512,982,,,,,,,,,,,,,,,,,,,,,,,W,132,circle,1,1,f,1.0491,1,1,0,1,0,1,,,,,,,,,,,,,,,,,,,,,,,,,,,,,,,,,,,,,,,,,
293188,2022-11-15_14h47.47.298,vts_reward_expectancy_bt,2022.2.4,MacIntel,120.0048002,Chrome,1512,982,,,,,,,,,,,,,,,,,,,,,,,H,146,star,1,0,d,1.4961,1,2,0,2,0,1,,,,,,,,,,,,,,,,,,,,,,,,,,,,,,,,,,,,,,,,,
293188,2022-11-15_14h47.47.298,vts_reward_expectancy_bt,2022.2.4,MacIntel,120.0048002,Chrome,1512,982,,,,,,,,,,,,,,,,,,,,,,,U,181,hexagon,1,0,f,1.2792,1,3,0,3,0,1,,,,,,,,,,,,,,,,,,,,,,,,,,,,,,,,,,,,,,,,,
293188,2022-11-15_14h47.47.298,vts_reward_expectancy_bt,2022.2.4,MacIntel,120.0048002,Chrome,1512,982,,,,,,,,,,,,,,,,,,,,,,,F,167,triangle,1,0,d,1.5668,1,4,0,4,0,1,,,,,,,,,,,,,,,,,,,,,,,,,,,,,,,,,,,,,,,,,
293188,2022-11-15_14h47.47.298,vts_reward_expectancy_bt,2022.2.4,MacIntel,120.0048002,Chrome,1512,982,,,,,,,,,,,,,,,,,,,,,,,D,139,circle,1,0,d,0.9031,1,5,0,5,0,1,,,,,,,,,,,,,,,,,,,,,,,,,,,,,,,,,,,,,,,,,
293188,2022-11-15_14h47.47.298,vts_reward_expectancy_bt,2022.2.4,MacIntel,120.0048002,Chrome,1512,982,,,,,,,,,,,,,,,,,,,,,,,Y,125,star,1,0,f,0.8881,1,6,0,6,0,1,,,,,,,,,,,,,,,,,,,,,,,,,,,,,,,,,,,,,,,,,
293188,2022-11-15_14h47.47.298,vts_reward_expectancy_bt,2022.2.4,MacIntel,120.0048002,Chrome,1512,982,,,,,,,,,,,,,,,,,,,,,,,B,174,hexagon,1,0,d,1.095,1,7,0,7,0,1,,,,,,,,,,,,,,,,,,,,,,,,,,,,,,,,,,,,,,,,,
293188,2022-11-15_14h47.47.298,vts_reward_expectancy_bt,2022.2.4,MacIntel,120.0048002,Chrome,1512,982,,,,,,,,,,,,,,,,,,,,,,,S,160,triangle,0,0,d,2.1397,1,8,0,8,0,1,,,,,,,,,,,,,,,,,,,,,,,,,,,,,,,,,,,,,,,,,
293188,2022-11-15_14h47.47.298,vts_reward_expectancy_bt,2022.2.4,MacIntel,120.0048002,Chrome,1512,982,,,,,,,,,,,,,,,,,,,,,,,W,132,star,1,1,f,0.9598,1,9,0,9,0,1,,,,,,,,,,,,,,,,,,,,,,,,,,,,,,,,,,,,,,,,,
293188,2022-11-15_14h47.47.298,vts_reward_expectancy_bt,2022.2.4,MacIntel,120.0048002,Chrome,1512,982,,,,,,,,,,,,,,,,,,,,,,,Y,181,triangle,1,0,f,1.3311,2,0,0,0,0,1,,,,,,,,,,,,,,,,,,,,,,,,,,,,,,,,,,,,,,,,,
293188,2022-11-15_14h47.47.298,vts_reward_expectancy_bt,2022.2.4,MacIntel,120.0048002,Chrome,1512,982,,,,,,,,,,,,,,,,,,,,,,,U,174,hexagon,0,0,d,2.2547,2,1,0,1,0,1,,,,,,,,,,,,,,,,,,,,,,,,,,,,,,,,,,,,,,,,,
293188,2022-11-15_14h47.47.298,vts_reward_expectancy_bt,2022.2.4,MacIntel,120.0048002,Chrome,1512,982,,,,,,,,,,,,,,,,,,,,,,,W,160,star,1,1,f,0.7533,2,2,0,2,0,1,,,,,,,,,,,,,,,,,,,,,,,,,,,,,,,,,,,,,,,,,
293188,2022-11-15_14h47.47.298,vts_reward_expectancy_bt,2022.2.4,MacIntel,120.0048002,Chrome,1512,982,,,,,,,,,,,,,,,,,,,,,,,F,132,circle,1,0,d,1.1892,2,3,0,3,0,1,,,,,,,,,,,,,,,,,,,,,,,,,,,,,,,,,,,,,,,,,
293188,2022-11-15_14h47.47.298,vts_reward_expectancy_bt,2022.2.4,MacIntel,120.0048002,Chrome,1512,982,,,,,,,,,,,,,,,,,,,,,,,S,146,triangle,1,0,f,1.7626,2,4,0,4,0,1,,,,,,,,,,,,,,,,,,,,,,,,,,,,,,,,,,,,,,,,,
293188,2022-11-15_14h47.47.298,vts_reward_expectancy_bt,2022.2.4,MacIntel,120.0048002,Chrome,1512,982,,,,,,,,,,,,,,,,,,,,,,,H,167,hexagon,1,0,d,0.949,2,5,0,5,0,1,,,,,,,,,,,,,,,,,,,,,,,,,,,,,,,,,,,,,,,,,
293188,2022-11-15_14h47.47.298,vts_reward_expectancy_bt,2022.2.4,MacIntel,120.0048002,Chrome,1512,982,,,,,,,,,,,,,,,,,,,,,,,D,139,star,1,0,d,1.057,2,6,0,6,0,1,,,,,,,,,,,,,,,,,,,,,,,,,,,,,,,,,,,,,,,,,
293188,2022-11-15_14h47.47.298,vts_reward_expectancy_bt,2022.2.4,MacIntel,120.0048002,Chrome,1512,982,,,,,,,,,,,,,,,,,,,,,,,B,125,circle,1,0,d,0.6994,2,7,0,7,0,1,,,,,,,,,,,,,,,,,,,,,,,,,,,,,,,,,,,,,,,,,
293188,2022-11-15_14h47.47.298,vts_reward_expectancy_bt,2022.2.4,MacIntel,120.0048002,Chrome,1512,982,,,,,,,,,,,,,,,,,,,,,,,Y,181,triangle,1,0,f,0.6895,2,8,0,8,0,1,,,,,,,,,,,,,,,,,,,,,,,,,,,,,,,,,,,,,,,,,
293188,2022-11-15_14h47.47.298,vts_reward_expectancy_bt,2022.2.4,MacIntel,120.0048002,Chrome,1512,982,,,,,,,,,,,,,,,,,,,,,,,U,174,hexagon,1,0,f,2.2142,2,9,0,9,0,1,,,,,,,,,,,,,,,,,,,,,,,,,,,,,,,,,,,,,,,,,
293188,2022-11-15_14h47.47.298,vts_reward_expectancy_bt,2022.2.4,MacIntel,120.0048002,Chrome,1512,982,,,,,,,,,,,,,,,,,,,,,,,F,146,circle,1,0,,,3,,,,,,j,0.5532,0,0,0,0,1,,,,,,,,,,,,,,,,,,,,,,,,,,,,,,,,,,
293188,2022-11-15_14h47.47.298,vts_reward_expectancy_bt,2022.2.4,MacIntel,120.0048002,Chrome,1512,982,,,,,,,,,,,,,,,,,,,,,,,U,125,triangle,1,0,,,3,,,,,,j,0.802,1,0,1,0,1,,,,,,,,,,,,,,,,,,,,,,,,,,,,,,,,,,
293188,2022-11-15_14h47.47.298,vts_reward_expectancy_bt,2022.2.4,MacIntel,120.0048002,Chrome,1512,982,,,,,,,,,,,,,,,,,,,,,,,B,139,star,1,0,,,3,,,,,,j,0.7814,2,0,2,0,1,,,,,,,,,,,,,,,,,,,,,,,,,,,,,,,,,,
293188,2022-11-15_14h47.47.298,vts_reward_expectancy_bt,2022.2.4,MacIntel,120.0048002,Chrome,1512,982,,,,,,,,,,,,,,,,,,,,,,,Y,160,hexagon,1,0,,,3,,,,,,k,0.8126,3,0,3,0,1,,,,,,,,,,,,,,,,,,,,,,,,,,,,,,,,,,
293188,2022-11-15_14h47.47.298,vts_reward_expectancy_bt,2022.2.4,MacIntel,120.0048002,Chrome,1512,982,,,,,,,,,,,,,,,,,,,,,,,H,181,circle,1,0,,,3,,,,,,k,0.5973,4,0,4,0,1,,,,,,,,,,,,,,,,,,,,,,,,,,,,,,,,,,
293188,2022-11-15_14h47.47.298,vts_reward_expectancy_bt,2022.2.4,MacIntel,120.0048002,Chrome,1512,982,,,,,,,,,,,,,,,,,,,,,,,D,174,triangle,1,0,,,3,,,,,,k,0.6658,5,0,5,0,1,,,,,,,,,,,,,,,,,,,,,,,,,,,,,,,,,,
293188,2022-11-15_14h47.47.298,vts_reward_expectancy_bt,2022.2.4,MacIntel,120.0048002,Chrome,1512,982,,,,,,,,,,,,,,,,,,,,,,,S,132,star,1,0,,,3,,,,,,j,0.6808,6,0,6,0,1,,,,,,,,,,,,,,,,,,,,,,,,,,,,,,,,,,
293188,2022-11-15_14h47.47.298,vts_reward_expectancy_bt,2022.2.4,MacIntel,120.0048002,Chrome,1512,982,,,,,,,,,,,,,,,,,,,,,,,W,167,hexagon,1,0,,,3,,,,,,k,0.7685,7,0,7,0,1,,,,,,,,,,,,,,,,,,,,,,,,,,,,,,,,,,
293188,2022-11-15_14h47.47.298,vts_reward_expectancy_bt,2022.2.4,MacIntel,120.0048002,Chrome,1512,982,,,,,,,,,,,,,,,,,,,,,,,F,146,star,1,0,,,3,,,,,,j,0.586,8,0,8,0,1,,,,,,,,,,,,,,,,,,,,,,,,,,,,,,,,,,
293188,2022-11-15_14h47.47.298,vts_reward_expectancy_bt,2022.2.4,MacIntel,120.0048002,Chrome,1512,982,,,,,,,,,,,,,,,,,,,,,,,U,125,circle,1,0,,,3,,,,,,j,0.6971,9,0,9,0,1,,,,,,,,,,,,,,,,,,,,,,,,,,,,,,,,,,
293188,2022-11-15_14h47.47.298,vts_reward_expectancy_bt,2022.2.4,MacIntel,120.0048002,Chrome,1512,982,,,,,0,666,,,,,,,,,,,,,,,,,U,146,hexagon,1,0,,,4,,,,,,,,,,,,,-1,number,NA,j,1.6293,vtsPrac,0,0,0,0,1,,,,,,,,,,,,,,,,,,,,,,,
293188,2022-11-15_14h47.47.298,vts_reward_expectancy_bt,2022.2.4,MacIntel,120.0048002,Chrome,1512,982,,,,,0,666,,,,,,,,,,,,,,,,,B,139,circle,1,0,,,4,,,,,,,,,,,,,switch,letter,lettSwt,d,0.9798,vtsPrac,1,0,1,0,1,,,,,,,,,,,,,,,,,,,,,,,
293188,2022-11-15_14h47.47.298,vts_reward_expectancy_bt,2022.2.4,MacIntel,120.0048002,Chrome,1512,982,,,,,0,666,,,,,,,,,,,,,,,,,D,174,hexagon,1,0,,,4,,,,,,,,,,,,,repeat,letter,lettRpt,d,0.6574,vtsPrac,2,0,2,0,1,,,,,,,,,,,,,,,,,,,,,,,
293188,2022-11-15_14h47.47.298,vts_reward_expectancy_bt,2022.2.4,MacIntel,120.0048002,Chrome,1512,982,,,,,0,666,,,,,,,,,,,,,,,,,Y,167,circle,1,0,,,4,,,,,,,,,,,,,repeat,letter,lettRpt,f,0.9227,vtsPrac,3,0,3,0,1,,,,,,,,,,,,,,,,,,,,,,,
293188,2022-11-15_14h47.47.298,vts_reward_expectancy_bt,2022.2.4,MacIntel,120.0048002,Chrome,1512,982,,,,,0,666,,,,,,,,,,,,,,,,,U,146,circle,1,0,,,4,,,,,,,,,,,,,switch,number,numSwt,j,1.2468,vtsPrac,4,0,4,0,1,,,,,,,,,,,,,,,,,,,,,,,
293188,2022-11-15_14h47.47.298,vts_reward_expectancy_bt,2022.2.4,MacIntel,120.0048002,Chrome,1512,982,,,,,0,666,,,,,,,,,,,,,,,,,B,139,hexagon,1,0,,,4,,,,,,,,,,,,,switch,letter,lettSwt,d,1.0367,vtsPrac,5,0,5,0,1,,,,,,,,,,,,,,,,,,,,,,,
293188,2022-11-15_14h47.47.298,vts_reward_expectancy_bt,2022.2.4,MacIntel,120.0048002,Chrome,1512,982,,,,,0,666,,,,,,,,,,,,,,,,,D,174,hexagon,1,0,,,4,,,,,,,,,,,,,switch,number,numSwt,k,0.6487,vtsPrac,6,0,6,0,1,,,,,,,,,,,,,,,,,,,,,,,
293188,2022-11-15_14h47.47.298,vts_reward_expectancy_bt,2022.2.4,MacIntel,120.0048002,Chrome,1512,982,,,,,0,666,,,,,,,,,,,,,,,,,Y,167,star,1,0,,,4,,,,,,,,,,,,,repeat,number,numRpt,k,1.0584,vtsPrac,7,0,7,0,1,,,,,,,,,,,,,,,,,,,,,,,
293188,2022-11-15_14h47.47.298,vts_reward_expectancy_bt,2022.2.4,MacIntel,120.0048002,Chrome,1512,982,,,,,0,666,,,,,,,,,,,,,,,,,W,132,hexagon,1,0,,,4,,,,,,,,,,,,,switch,letter,lettSwt,f,0.9471,vtsPrac,8,0,8,0,1,,,,,,,,,,,,,,,,,,,,,,,
293188,2022-11-15_14h47.47.298,vts_reward_expectancy_bt,2022.2.4,MacIntel,120.0048002,Chrome,1512,982,,,,,0,666,,,,,,,,,,,,,,,,,H,125,triangle,1,0,,,4,,,,,,,,,,,,,switch,number,numSwt,j,0.5819,vtsPrac,9,0,9,0,1,,,,,,,,,,,,,,,,,,,,,,,
293188,2022-11-15_14h47.47.298,vts_reward_expectancy_bt,2022.2.4,MacIntel,120.0048002,Chrome,1512,982,,,,,0,666,,,,,,,,,,,,,,,,,S,174,star,1,0,,,4,,,,,,,,,,,,,repeat,number,numRpt,k,0.7615,vtsPrac,10,0,10,0,1,,,,,,,,,,,,,,,,,,,,,,,
293188,2022-11-15_14h47.47.298,vts_reward_expectancy_bt,2022.2.4,MacIntel,120.0048002,Chrome,1512,982,,,,,0,666,,,,,,,,,,,,,,,,,D,146,hexagon,1,0,,,4,,,,,,,,,,,,,switch,letter,lettSwt,d,0.857,vtsPrac,11,0,11,0,1,,,,,,,,,,,,,,,,,,,,,,,
293188,2022-11-15_14h47.47.298,vts_reward_expectancy_bt,2022.2.4,MacIntel,120.0048002,Chrome,1512,982,,,,,0,666,,,,,,,,,,,,,,,,,W,125,circle,1,0,,,4,,,,,,,,,,,,,switch,number,numSwt,j,0.6891,vtsPrac,12,0,12,0,1,,,,,,,,,,,,,,,,,,,,,,,
293188,2022-11-15_14h47.47.298,vts_reward_expectancy_bt,2022.2.4,MacIntel,120.0048002,Chrome,1512,982,,,,,0,666,,,,,,,,,,,,,,,,,F,160,triangle,1,0,,,4,,,,,,,,,,,,,repeat,number,numRpt,k,0.9123,vtsPrac,13,0,13,0,1,,,,,,,,,,,,,,,,,,,,,,,
293188,2022-11-15_14h47.47.298,vts_reward_expectancy_bt,2022.2.4,MacIntel,120.0048002,Chrome,1512,982,,,,,0,666,,,,,,,,,,,,,,,,,D,181,hexagon,1,0,,,4,,,,,,,,,,,,,switch,letter,lettSwt,d,1.6483,vtsPrac,14,0,14,0,1,,,,,,,,,,,,,,,,,,,,,,,
293188,2022-11-15_14h47.47.298,vts_reward_expectancy_bt,2022.2.4,MacIntel,120.0048002,Chrome,1512,982,,,,,0,666,,,,,,,,,,,,,,,,,U,139,star,1,0,,,4,,,,,,,,,,,,,switch,number,numSwt,j,0.819,vtsPrac,15,0,15,0,1,,,,,,,,,,,,,,,,,,,,,,,
293188,2022-11-15_14h47.47.298,vts_reward_expectancy_bt,2022.2.4,MacIntel,120.0048002,Chrome,1512,982,,,,,0,666,,,,,,,,,,,,,,,,,D,146,hexagon,1,0,,,4,,,,,,,,,,,,,repeat,number,numRpt,j,0.7764,vtsPrac,16,0,16,0,1,,,,,,,,,,,,,,,,,,,,,,,
293188,2022-11-15_14h47.47.298,vts_reward_expectancy_bt,2022.2.4,MacIntel,120.0048002,Chrome,1512,982,,,,,0,666,,,,,,,,,,,,,,,,,B,125,circle,1,0,,,4,,,,,,,,,,,,,repeat,number,numRpt,j,0.8624,vtsPrac,17,0,17,0,1,,,,,,,,,,,,,,,,,,,,,,,
293188,2022-11-15_14h47.47.298,vts_reward_expectancy_bt,2022.2.4,MacIntel,120.0048002,Chrome,1512,982,,,,,0,666,,,,,,,,,,,,,,,,,S,160,star,1,0,,,4,,,,,,,,,,,,,repeat,number,numRpt,k,0.6634,vtsPrac,18,0,18,0,1,,,,,,,,,,,,,,,,,,,,,,,
293188,2022-11-15_14h47.47.298,vts_reward_expectancy_bt,2022.2.4,MacIntel,120.0048002,Chrome,1512,982,,,,,0,666,,,,,,,,,,,,,,,,,Y,167,triangle,1,0,,,4,,,,,,,,,,,,,repeat,number,numRpt,k,0.7069,vtsPrac,19,0,19,0,1,,,,,,,,,,,,,,,,,,,,,,,
293188,2022-11-15_14h47.47.298,vts_reward_expectancy_bt,2022.2.4,MacIntel,120.0048002,Chrome,1512,982,,,,,0,666,,,,,,,,,,,,,,,,,B,139,star,1,0,,,4,,,,,,,,,,,,,switch,letter,lettSwt,d,1.0156,vtsPrac,20,0,20,0,1,,,,,,,,,,,,,,,,,,,,,,,
293188,2022-11-15_14h47.47.298,vts_reward_expectancy_bt,2022.2.4,MacIntel,120.0048002,Chrome,1512,982,,,,,0,666,,,,,,,,,,,,,,,,,D,160,hexagon,1,0,,,4,,,,,,,,,,,,,repeat,letter,lettRpt,d,0.9298,vtsPrac,21,0,21,0,1,,,,,,,,,,,,,,,,,,,,,,,
293188,2022-11-15_14h47.47.298,vts_reward_expectancy_bt,2022.2.4,MacIntel,120.0048002,Chrome,1512,982,,,,,0,666,,,,,,,,,,,,,,,,,W,146,triangle,1,0,,,4,,,,,,,,,,,,,repeat,letter,lettRpt,f,0.9643,vtsPrac,22,0,22,0,1,,,,,,,,,,,,,,,,,,,,,,,
293188,2022-11-15_14h47.47.298,vts_reward_expectancy_bt,2022.2.4,MacIntel,120.0048002,Chrome,1512,982,,,,,0,666,,,,,,,,,,,,,,,,,F,132,hexagon,1,0,,,4,,,,,,,,,,,,,switch,number,numSwt,j,1.6428,vtsPrac,23,0,23,0,1,,,,,,,,,,,,,,,,,,,,,,,
293188,2022-11-15_14h47.47.298,vts_reward_expectancy_bt,2022.2.4,MacIntel,120.0048002,Chrome,1512,982,,,,,0,666,,,,,,,,,,,,,,,,,F,181,circle,1,0,,,4,,,,,,,,,,,,,repeat,number,numRpt,k,0.8342,vtsPrac,24,0,24,0,1,,,,,,,,,,,,,,,,,,,,,,,
293188,2022-11-15_14h47.47.298,vts_reward_expectancy_bt,2022.2.4,MacIntel,120.0048002,Chrome,1512,982,,,,,0,666,,,,,,,,,,,,,,,,,S,125,star,1,0,,,4,,,,,,,,,,,,,repeat,number,numRpt,j,1.5611,vtsPrac,25,0,25,0,1,,,,,,,,,,,,,,,,,,,,,,,
293188,2022-11-15_14h47.47.298,vts_reward_expectancy_bt,2022.2.4,MacIntel,120.0048002,Chrome,1512,982,,,,,0,666,,,,,,,,,,,,,,,,,H,132,star,1,0,,,4,,,,,,,,,,,,,repeat,number,numRpt,j,1.2481,vtsPrac,26,0,26,0,1,,,,,,,,,,,,,,,,,,,,,,,
293188,2022-11-15_14h47.47.298,vts_reward_expectancy_bt,2022.2.4,MacIntel,120.0048002,Chrome,1512,982,,,,,0,666,,,,,,,,,,,,,,,,,Y,146,circle,1,0,,,4,,,,,,,,,,,,,switch,letter,lettSwt,f,1.1687,vtsPrac,27,0,27,0,1,,,,,,,,,,,,,,,,,,,,,,,
293188,2022-11-15_14h47.47.298,vts_reward_expectancy_bt,2022.2.4,MacIntel,120.0048002,Chrome,1512,982,,,,,0,666,,,,,,,,,,,,,,,,,Y,139,circle,1,0,,,4,,,,,,,,,,,,,repeat,letter,lettRpt,f,1.0803,vtsPrac,28,0,28,0,1,,,,,,,,,,,,,,,,,,,,,,,
293188,2022-11-15_14h47.47.298,vts_reward_expectancy_bt,2022.2.4,MacIntel,120.0048002,Chrome,1512,982,,,,,0,666,,,,,,,,,,,,,,,,,B,146,triangle,1,0,,,4,,,,,,,,,,,,,switch,number,numSwt,j,1.2903,vtsPrac,29,0,29,0,1,,,,,,,,,,,,,,,,,,,,,,,
293188,2022-11-15_14h47.47.298,vts_reward_expectancy_bt,2022.2.4,MacIntel,120.0048002,Chrome,1512,982,,,,,0,666,,,,,,,,,,,,,,,,,H,167,circle,0,0,,,4,,,,,,,,,,,,,repeat,number,NA,j,0.9453,vtsPrac,30,0,30,0,1,,,,,,,,,,,,,,,,,,,,,,,
293188,2022-11-15_14h47.47.298,vts_reward_expectancy_bt,2022.2.4,MacIntel,120.0048002,Chrome,1512,982,,,,,0,666,,,,,,,,,,,,,,,,,F,160,triangle,1,1,,,4,,,,,,,,,,,,,repeat,number,numRpt,k,1.2344,vtsPrac,31,0,31,0,1,,,,,,,,,,,,,,,,,,,,,,,
293188,2022-11-15_14h47.47.298,vts_reward_expectancy_bt,2022.2.4,MacIntel,120.0048002,Chrome,1512,982,,,,,,,,,,,,,,,,,,,,,,,,,,,,,,,,,,,,,,,,,,,,,,,,,,,,,,,,,,,,,,,,,,,,,,,,,,,,
293188,2022-11-15_14h47.47.298,vts_reward_expectancy_bt,2022.2.4,MacIntel,120.0048002,Chrome,1512,982,,,,,,,,,,,,,,,,,,,,,,,,,,,,,,,,,,,,,,,,,,,,,,,,,,,,,,,,,,,,,,,,,,,,,,,,,,,,
293188,2022-11-15_14h47.47.298,vts_reward_expectancy_bt,2022.2.4,MacIntel,120.0048002,Chrome,1512,982,,,,,0,666,,,,,,,,,,,,,,,,,W,167,triangle,1,0,,,,,,,,,,,,,,,,switch,letter,lettSwt,f,0.8819,noRew,,,,,,0,0,0,0,0,1,,,,,,,,,,,,,,,,,
293188,2022-11-15_14h47.47.298,vts_reward_expectancy_bt,2022.2.4,MacIntel,120.0048002,Chrome,1512,982,,,,,0,666,,,,,,,,,,,,,,,,,B,139,circle,1,0,,,,,,,,,,,,,,,,repeat,letter,lettRpt,d,0.887,noRew,,,,,,0,1,0,1,0,1,,,,,,,,,,,,,,,,,
293188,2022-11-15_14h47.47.298,vts_reward_expectancy_bt,2022.2.4,MacIntel,120.0048002,Chrome,1512,982,,,,,0,666,,,,,,,,,,,,,,,,,F,125,triangle,1,0,,,,,,,,,,,,,,,,switch,number,numSwt,j,1.3348,noRew,,,,,,0,2,0,2,0,1,,,,,,,,,,,,,,,,,
293188,2022-11-15_14h47.47.298,vts_reward_expectancy_bt,2022.2.4,MacIntel,120.0048002,Chrome,1512,982,,,,,0,666,,,,,,,,,,,,,,,,,H,174,circle,1,0,,,,,,,,,,,,,,,,repeat,number,numRpt,k,1.4765,noRew,,,,,,0,3,0,3,0,1,,,,,,,,,,,,,,,,,
293188,2022-11-15_14h47.47.298,vts_reward_expectancy_bt,2022.2.4,MacIntel,120.0048002,Chrome,1512,982,,,,,0,666,,,,,,,,,,,,,,,,,W,167,triangle,1,0,,,,,,,,,,,,,,,,switch,letter,lettSwt,f,0.8621,noRew,,,,,,0,4,0,4,0,1,,,,,,,,,,,,,,,,,
293188,2022-11-15_14h47.47.298,vts_reward_expectancy_bt,2022.2.4,MacIntel,120.0048002,Chrome,1512,982,,,,,0,666,,,,,,,,,,,,,,,,,B,139,hexagon,1,0,,,,,,,,,,,,,,,,repeat,letter,lettRpt,d,1.0886,noRew,,,,,,0,5,0,5,0,1,,,,,,,,,,,,,,,,,
293188,2022-11-15_14h47.47.298,vts_reward_expectancy_bt,2022.2.4,MacIntel,120.0048002,Chrome,1512,982,,,,,0,666,,,,,,,,,,,,,,,,,F,125,star,1,0,,,,,,,,,,,,,,,,switch,number,numSwt,j,0.7617,noRew,,,,,,0,6,0,6,0,1,,,,,,,,,,,,,,,,,
293188,2022-11-15_14h47.47.298,vts_reward_expectancy_bt,2022.2.4,MacIntel,120.0048002,Chrome,1512,982,,,,,0,666,,,,,,,,,,,,,,,,,H,174,triangle,1,0,,,,,,,,,,,,,,,,repeat,number,numRpt,k,0.7207,noRew,,,,,,0,7,0,7,0,1,,,,,,,,,,,,,,,,,
293188,2022-11-15_14h47.47.298,vts_reward_expectancy_bt,2022.2.4,MacIntel,120.0048002,Chrome,1512,982,,,,,0,666,,,,,,,,,,,,,,,,,H,132,circle,1,0,,,,,,,,,,,,,,,,repeat,number,numRpt,j,1.1066,noRew,,,,,,0,8,0,8,0,1,,,,,,,,,,,,,,,,,
293188,2022-11-15_14h47.47.298,vts_reward_expectancy_bt,2022.2.4,MacIntel,120.0048002,Chrome,1512,982,,,,,0,666,,,,,,,,,,,,,,,,,B,139,triangle,1,0,,,,,,,,,,,,,,,,switch,letter,lettSwt,d,0.751,noRew,,,,,,0,9,0,9,0,1,,,,,,,,,,,,,,,,,
293188,2022-11-15_14h47.47.298,vts_reward_expectancy_bt,2022.2.4,MacIntel,120.0048002,Chrome,1512,982,,,,,0,666,,,,,,,,,,,,,,,,,F,125,hexagon,1,0,,,,,,,,,,,,,,,,switch,number,numSwt,j,1.2479,noRew,,,,,,0,10,0,10,0,1,,,,,,,,,,,,,,,,,
293188,2022-11-15_14h47.47.298,vts_reward_expectancy_bt,2022.2.4,MacIntel,120.0048002,Chrome,1512,982,,,,,0,666,,,,,,,,,,,,,,,,,D,160,triangle,1,0,,,,,,,,,,,,,,,,switch,letter,lettSwt,d,0.7293,noRew,,,,,,0,11,0,11,0,1,,,,,,,,,,,,,,,,,
293188,2022-11-15_14h47.47.298,vts_reward_expectancy_bt,2022.2.4,MacIntel,120.0048002,Chrome,1512,982,,,,,0,666,,,,,,,,,,,,,,,,,B,146,triangle,1,0,,,,,,,,,,,,,,,,repeat,letter,lettRpt,d,0.7311,noRew,,,,,,0,12,0,12,0,1,,,,,,,,,,,,,,,,,
293188,2022-11-15_14h47.47.298,vts_reward_expectancy_bt,2022.2.4,MacIntel,120.0048002,Chrome,1512,982,,,,,0,666,,,,,,,,,,,,,,,,,U,174,star,1,0,,,,,,,,,,,,,,,,switch,number,numSwt,k,1.5568,noRew,,,,,,0,13,0,13,0,1,,,,,,,,,,,,,,,,,
293188,2022-11-15_14h47.47.298,vts_reward_expectancy_bt,2022.2.4,MacIntel,120.0048002,Chrome,1512,982,,,,,0,666,,,,,,,,,,,,,,,,,Y,181,triangle,1,0,,,,,,,,,,,,,,,,switch,letter,lettSwt,f,1.1787,noRew,,,,,,0,14,0,14,0,1,,,,,,,,,,,,,,,,,
293188,2022-11-15_14h47.47.298,vts_reward_expectancy_bt,2022.2.4,MacIntel,120.0048002,Chrome,1512,982,,,,,0,666,,,,,,,,,,,,,,,,,F,167,star,1,0,,,,,,,,,,,,,,,,switch,number,numSwt,k,1.3749,noRew,,,,,,0,15,0,15,0,1,,,,,,,,,,,,,,,,,
293188,2022-11-15_14h47.47.298,vts_reward_expectancy_bt,2022.2.4,MacIntel,120.0048002,Chrome,1512,982,,,,,0,666,,,,,,,,,,,,,,,,,H,160,hexagon,1,0,,,,,,,,,,,,,,,,repeat,number,numRpt,k,2.1794,noRew,,,,,,0,16,0,16,0,1,,,,,,,,,,,,,,,,,
293188,2022-11-15_14h47.47.298,vts_reward_expectancy_bt,2022.2.4,MacIntel,120.0048002,Chrome,1512,982,,,,,0,666,,,,,,,,,,,,,,,,,S,139,triangle,1,0,,,,,,,,,,,,,,,,repeat,number,numRpt,j,1.4882,noRew,,,,,,0,17,0,17,0,1,,,,,,,,,,,,,,,,,
293188,2022-11-15_14h47.47.298,vts_reward_expectancy_bt,2022.2.4,MacIntel,120.0048002,Chrome,1512,982,,,,,0,666,,,,,,,,,,,,,,,,,B,181,star,1,0,,,,,,,,,,,,,,,,switch,letter,lettSwt,d,0.6743,noRew,,,,,,0,18,0,18,0,1,,,,,,,,,,,,,,,,,
293188,2022-11-15_14h47.47.298,vts_reward_expectancy_bt,2022.2.4,MacIntel,120.0048002,Chrome,1512,982,,,,,0,666,,,,,,,,,,,,,,,,,U,167,triangle,1,0,,,,,,,,,,,,,,,,switch,number,numSwt,k,1.0562,noRew,,,,,,0,19,0,19,0,1,,,,,,,,,,,,,,,,,
293188,2022-11-15_14h47.47.298,vts_reward_expectancy_bt,2022.2.4,MacIntel,120.0048002,Chrome,1512,982,,,,,0,666,,,,,,,,,,,,,,,,,D,167,hexagon,1,0,,,,,,,,,,,,,,,,switch,letter,lettSwt,d,0.7409,noRew,,,,,,0,20,0,20,0,1,,,,,,,,,,,,,,,,,
293188,2022-11-15_14h47.47.298,vts_reward_expectancy_bt,2022.2.4,MacIntel,120.0048002,Chrome,1512,982,,,,,0,666,,,,,,,,,,,,,,,,,Y,139,triangle,1,0,,,,,,,,,,,,,,,,repeat,letter,lettRpt,f,0.6618,noRew,,,,,,0,21,0,21,0,1,,,,,,,,,,,,,,,,,
293188,2022-11-15_14h47.47.298,vts_reward_expectancy_bt,2022.2.4,MacIntel,120.0048002,Chrome,1512,982,,,,,0,666,,,,,,,,,,,,,,,,,H,125,triangle,1,0,,,,,,,,,,,,,,,,switch,number,numSwt,j,1.2003,noRew,,,,,,0,22,0,22,0,1,,,,,,,,,,,,,,,,,
293188,2022-11-15_14h47.47.298,vts_reward_expectancy_bt,2022.2.4,MacIntel,120.0048002,Chrome,1512,982,,,,,0,666,,,,,,,,,,,,,,,,,F,132,circle,1,0,,,,,,,,,,,,,,,,repeat,number,numRpt,j,1.2238,noRew,,,,,,0,23,0,23,0,1,,,,,,,,,,,,,,,,,
293188,2022-11-15_14h47.47.298,vts_reward_expectancy_bt,2022.2.4,MacIntel,120.0048002,Chrome,1512,982,,,,,0,666,,,,,,,,,,,,,,,,,Y,132,star,1,0,,,,,,,,,,,,,,,,switch,letter,lettSwt,f,0.7504,noRew,,,,,,0,24,0,24,0,1,,,,,,,,,,,,,,,,,
293188,2022-11-15_14h47.47.298,vts_reward_expectancy_bt,2022.2.4,MacIntel,120.0048002,Chrome,1512,982,,,,,0,666,,,,,,,,,,,,,,,,,U,125,circle,1,0,,,,,,,,,,,,,,,,switch,number,numSwt,j,2.1113,noRew,,,,,,0,25,0,25,0,1,,,,,,,,,,,,,,,,,
293188,2022-11-15_14h47.47.298,vts_reward_expectancy_bt,2022.2.4,MacIntel,120.0048002,Chrome,1512,982,,,,,0,666,,,,,,,,,,,,,,,,,S,174,triangle,0,0,,,,,,,,,,,,,,,,switch,letter,NA,d,1.7586,noRew,,,,,,0,26,0,26,0,1,,,,,,,,,,,,,,,,,
293188,2022-11-15_14h47.47.298,vts_reward_expectancy_bt,2022.2.4,MacIntel,120.0048002,Chrome,1512,982,,,,,0,666,,,,,,,,,,,,,,,,,B,160,circle,1,1,,,,,,,,,,,,,,,,repeat,letter,lettRpt,d,1.082,noRew,,,,,,0,27,0,27,0,1,,,,,,,,,,,,,,,,,
293188,2022-11-15_14h47.47.298,vts_reward_expectancy_bt,2022.2.4,MacIntel,120.0048002,Chrome,1512,982,,,,,0,666,,,,,,,,,,,,,,,,,S,132,star,1,0,,,,,,,,,,,,,,,,switch,number,numSwt,j,1.642,noRew,,,,,,0,28,0,28,0,1,,,,,,,,,,,,,,,,,
293188,2022-11-15_14h47.47.298,vts_reward_expectancy_bt,2022.2.4,MacIntel,120.0048002,Chrome,1512,982,,,,,0,666,,,,,,,,,,,,,,,,,D,160,triangle,1,0,,,,,,,,,,,,,,,,switch,letter,lettSwt,d,0.6571,noRew,,,,,,0,29,0,29,0,1,,,,,,,,,,,,,,,,,
293188,2022-11-15_14h47.47.298,vts_reward_expectancy_bt,2022.2.4,MacIntel,120.0048002,Chrome,1512,982,,,,,0,666,,,,,,,,,,,,,,,,,B,146,triangle,1,0,,,,,,,,,,,,,,,,repeat,letter,lettRpt,d,0.5813,noRew,,,,,,0,30,0,30,0,1,,,,,,,,,,,,,,,,,
293188,2022-11-15_14h47.47.298,vts_reward_expectancy_bt,2022.2.4,MacIntel,120.0048002,Chrome,1512,982,,,,,0,666,,,,,,,,,,,,,,,,,W,174,hexagon,1,0,,,,,,,,,,,,,,,,repeat,letter,lettRpt,f,0.7181,noRew,,,,,,0,31,0,31,0,1,,,,,,,,,,,,,,,,,
293188,2022-11-15_14h47.47.298,vts_reward_expectancy_bt,2022.2.4,MacIntel,120.0048002,Chrome,1512,982,,,,,0,666,,,,,,,,,,,,,,,,,Y,167,hexagon,1,0,,,,,,,,,,,,,,,,repeat,letter,lettRpt,f,0.836,noRew,,,,,,0,32,0,32,0,1,,,,,,,,,,,,,,,,,
293188,2022-11-15_14h47.47.298,vts_reward_expectancy_bt,2022.2.4,MacIntel,120.0048002,Chrome,1512,982,,,,,0,666,,,,,,,,,,,,,,,,,W,139,star,1,0,,,,,,,,,,,,,,,,repeat,letter,lettRpt,f,0.6167,noRew,,,,,,0,33,0,33,0,1,,,,,,,,,,,,,,,,,
293188,2022-11-15_14h47.47.298,vts_reward_expectancy_bt,2022.2.4,MacIntel,120.0048002,Chrome,1512,982,,,,,0,666,,,,,,,,,,,,,,,,,S,125,hexagon,1,0,,,,,,,,,,,,,,,,switch,number,numSwt,j,1.0346,noRew,,,,,,0,34,0,34,0,1,,,,,,,,,,,,,,,,,
293188,2022-11-15_14h47.47.298,vts_reward_expectancy_bt,2022.2.4,MacIntel,120.0048002,Chrome,1512,982,,,,,0,666,,,,,,,,,,,,,,,,,F,174,circle,1,0,,,,,,,,,,,,,,,,repeat,number,numRpt,k,1.2194,noRew,,,,,,0,35,0,35,0,1,,,,,,,,,,,,,,,,,
293188,2022-11-15_14h47.47.298,vts_reward_expectancy_bt,2022.2.4,MacIntel,120.0048002,Chrome,1512,982,,,,,0,666,,,,,,,,,,,,,,,,,F,132,circle,1,0,,,,,,,,,,,,,,,,repeat,number,numRpt,j,0.9922,noRew,,,,,,0,36,0,36,0,1,,,,,,,,,,,,,,,,,
293188,2022-11-15_14h47.47.298,vts_reward_expectancy_bt,2022.2.4,MacIntel,120.0048002,Chrome,1512,982,,,,,0,666,,,,,,,,,,,,,,,,,S,167,hexagon,1,0,,,,,,,,,,,,,,,,repeat,number,numRpt,k,1.1862,noRew,,,,,,0,37,0,37,0,1,,,,,,,,,,,,,,,,,
293188,2022-11-15_14h47.47.298,vts_reward_expectancy_bt,2022.2.4,MacIntel,120.0048002,Chrome,1512,982,,,,,0,666,,,,,,,,,,,,,,,,,D,174,hexagon,1,0,,,,,,,,,,,,,,,,switch,letter,lettSwt,d,1.1566,noRew,,,,,,0,38,0,38,0,1,,,,,,,,,,,,,,,,,
293188,2022-11-15_14h47.47.298,vts_reward_expectancy_bt,2022.2.4,MacIntel,120.0048002,Chrome,1512,982,,,,,0,666,,,,,,,,,,,,,,,,,H,146,triangle,1,0,,,,,,,,,,,,,,,,switch,number,numSwt,j,2.3249,noRew,,,,,,0,39,0,39,0,1,,,,,,,,,,,,,,,,,
293188,2022-11-15_14h47.47.298,vts_reward_expectancy_bt,2022.2.4,MacIntel,120.0048002,Chrome,1512,982,,,,,0,666,,,,,,,,,,,,,,,,,W,125,hexagon,1,0,,,,,,,,,,,,,,,,switch,letter,lettSwt,f,1.0093,noRew,,,,,,0,40,0,40,0,1,,,,,,,,,,,,,,,,,
293188,2022-11-15_14h47.47.298,vts_reward_expectancy_bt,2022.2.4,MacIntel,120.0048002,Chrome,1512,982,,,,,0,666,,,,,,,,,,,,,,,,,H,167,triangle,1,0,,,,,,,,,,,,,,,,repeat,letter,lettRpt,d,1.8212,noRew,,,,,,0,41,0,41,0,1,,,,,,,,,,,,,,,,,
293188,2022-11-15_14h47.47.298,vts_reward_expectancy_bt,2022.2.4,MacIntel,120.0048002,Chrome,1512,982,,,,,0,666,,,,,,,,,,,,,,,,,U,146,star,0,0,,,,,,,,,,,,,,,,repeat,letter,NA,d,2.1308,noRew,,,,,,0,42,0,42,0,1,,,,,,,,,,,,,,,,,
293188,2022-11-15_14h47.47.298,vts_reward_expectancy_bt,2022.2.4,MacIntel,120.0048002,Chrome,1512,982,,,,,0,666,,,,,,,,,,,,,,,,,B,139,circle,1,1,,,,,,,,,,,,,,,,repeat,letter,lettRpt,d,0.9297,noRew,,,,,,0,43,0,43,0,1,,,,,,,,,,,,,,,,,
293188,2022-11-15_14h47.47.298,vts_reward_expectancy_bt,2022.2.4,MacIntel,120.0048002,Chrome,1512,982,,,,,0,666,,,,,,,,,,,,,,,,,W,139,circle,1,0,,,,,,,,,,,,,,,,repeat,letter,lettRpt,f,0.7785,noRew,,,,,,0,44,0,44,0,1,,,,,,,,,,,,,,,,,
293188,2022-11-15_14h47.47.298,vts_reward_expectancy_bt,2022.2.4,MacIntel,120.0048002,Chrome,1512,982,,,,,0,666,,,,,,,,,,,,,,,,,F,132,triangle,1,0,,,,,,,,,,,,,,,,switch,number,numSwt,j,1.3979,noRew,,,,,,0,45,0,45,0,1,,,,,,,,,,,,,,,,,
293188,2022-11-15_14h47.47.298,vts_reward_expectancy_bt,2022.2.4,MacIntel,120.0048002,Chrome,1512,982,,,,,0,666,,,,,,,,,,,,,,,,,S,167,star,1,0,,,,,,,,,,,,,,,,repeat,number,numRpt,k,1.3814,noRew,,,,,,0,46,0,46,0,1,,,,,,,,,,,,,,,,,
293188,2022-11-15_14h47.47.298,vts_reward_expectancy_bt,2022.2.4,MacIntel,120.0048002,Chrome,1512,982,,,,,0,666,,,,,,,,,,,,,,,,,H,160,triangle,1,0,,,,,,,,,,,,,,,,repeat,number,numRpt,k,1.8001,noRew,,,,,,0,47,0,47,0,1,,,,,,,,,,,,,,,,,
293188,2022-11-15_14h47.47.298,vts_reward_expectancy_bt,2022.2.4,MacIntel,120.0048002,Chrome,1512,982,,,,,0,666,,,,,,,,,,,,,,,,,B,132,star,1,0,,,,,,,,,,,,,,,,switch,letter,lettSwt,d,0.6763,noRew,,,,,,0,48,0,48,0,1,,,,,,,,,,,,,,,,,
293188,2022-11-15_14h47.47.298,vts_reward_expectancy_bt,2022.2.4,MacIntel,120.0048002,Chrome,1512,982,,,,,0,666,,,,,,,,,,,,,,,,,W,167,triangle,1,0,,,,,,,,,,,,,,,,repeat,letter,lettRpt,f,0.992,noRew,,,,,,0,49,0,49,0,1,,,,,,,,,,,,,,,,,
293188,2022-11-15_14h47.47.298,vts_reward_expectancy_bt,2022.2.4,MacIntel,120.0048002,Chrome,1512,982,,,,,0,666,,,,,,,,,,,,,,,,,F,160,circle,1,0,,,,,,,,,,,,,,,,repeat,letter,lettRpt,d,2.3143,noRew,,,,,,0,50,0,50,0,1,,,,,,,,,,,,,,,,,
293188,2022-11-15_14h47.47.298,vts_reward_expectancy_bt,2022.2.4,MacIntel,120.0048002,Chrome,1512,982,,,,,0,666,,,,,,,,,,,,,,,,,H,174,triangle,1,0,,,,,,,,,,,,,,,,repeat,letter,lettRpt,d,1.7044,noRew,,,,,,0,51,0,51,0,1,,,,,,,,,,,,,,,,,
293188,2022-11-15_14h47.47.298,vts_reward_expectancy_bt,2022.2.4,MacIntel,120.0048002,Chrome,1512,982,,,,,0,666,,,,,,,,,,,,,,,,,B,146,hexagon,1,0,,,,,,,,,,,,,,,,repeat,letter,lettRpt,d,0.651,noRew,,,,,,0,52,0,52,0,1,,,,,,,,,,,,,,,,,
293188,2022-11-15_14h47.47.298,vts_reward_expectancy_bt,2022.2.4,MacIntel,120.0048002,Chrome,1512,982,,,,,0,666,,,,,,,,,,,,,,,,,S,160,triangle,1,0,,,,,,,,,,,,,,,,switch,number,numSwt,k,0.6393,noRew,,,,,,0,53,0,53,0,1,,,,,,,,,,,,,,,,,
293188,2022-11-15_14h47.47.298,vts_reward_expectancy_bt,2022.2.4,MacIntel,120.0048002,Chrome,1512,982,,,,,0,666,,,,,,,,,,,,,,,,,Y,167,hexagon,1,0,,,,,,,,,,,,,,,,switch,letter,lettSwt,f,0.7483,noRew,,,,,,0,54,0,54,0,1,,,,,,,,,,,,,,,,,
293188,2022-11-15_14h47.47.298,vts_reward_expectancy_bt,2022.2.4,MacIntel,120.0048002,Chrome,1512,982,,,,,0,666,,,,,,,,,,,,,,,,,F,139,circle,1,0,,,,,,,,,,,,,,,,switch,number,numSwt,j,1.8196,noRew,,,,,,0,55,0,55,0,1,,,,,,,,,,,,,,,,,
293188,2022-11-15_14h47.47.298,vts_reward_expectancy_bt,2022.2.4,MacIntel,120.0048002,Chrome,1512,982,,,,,0,666,,,,,,,,,,,,,,,,,H,132,triangle,1,0,,,,,,,,,,,,,,,,switch,letter,lettSwt,d,1.6872,noRew,,,,,,0,56,0,56,0,1,,,,,,,,,,,,,,,,,
293188,2022-11-15_14h47.47.298,vts_reward_expectancy_bt,2022.2.4,MacIntel,120.0048002,Chrome,1512,982,,,,,0,666,,,,,,,,,,,,,,,,,F,139,star,1,0,,,,,,,,,,,,,,,,repeat,letter,lettRpt,d,1.9725,noRew,,,,,,0,57,0,57,0,1,,,,,,,,,,,,,,,,,
293188,2022-11-15_14h47.47.298,vts_reward_expectancy_bt,2022.2.4,MacIntel,120.0048002,Chrome,1512,982,,,,,0,666,,,,,,,,,,,,,,,,,W,181,hexagon,1,0,,,,,,,,,,,,,,,,repeat,letter,lettRpt,f,1.0648,noRew,,,,,,0,58,0,58,0,1,,,,,,,,,,,,,,,,,
293188,2022-11-15_14h47.47.298,vts_reward_expectancy_bt,2022.2.4,MacIntel,120.0048002,Chrome,1512,982,,,,,0,666,,,,,,,,,,,,,,,,,S,174,triangle,1,0,,,,,,,,,,,,,,,,switch,number,numSwt,k,1.902,noRew,,,,,,0,59,0,59,0,1,,,,,,,,,,,,,,,,,
293188,2022-11-15_14h47.47.298,vts_reward_expectancy_bt,2022.2.4,MacIntel,120.0048002,Chrome,1512,982,,,,,0,666,,,,,,,,,,,,,,,,,B,167,circle,1,0,,,,,,,,,,,,,,,,switch,letter,lettSwt,d,0.8393,noRew,,,,,,0,60,0,60,0,1,,,,,,,,,,,,,,,,,
293188,2022-11-15_14h47.47.298,vts_reward_expectancy_bt,2022.2.4,MacIntel,120.0048002,Chrome,1512,982,,,,,0,666,,,,,,,,,,,,,,,,,W,160,star,1,0,,,,,,,,,,,,,,,,repeat,letter,lettRpt,f,0.8268,noRew,,,,,,0,61,0,61,0,1,,,,,,,,,,,,,,,,,
293188,2022-11-15_14h47.47.298,vts_reward_expectancy_bt,2022.2.4,MacIntel,120.0048002,Chrome,1512,982,,,,,0,666,,,,,,,,,,,,,,,,,Y,139,star,1,0,,,,,,,,,,,,,,,,repeat,letter,lettRpt,f,0.7459,noRew,,,,,,0,62,0,62,0,1,,,,,,,,,,,,,,,,,
293188,2022-11-15_14h47.47.298,vts_reward_expectancy_bt,2022.2.4,MacIntel,120.0048002,Chrome,1512,982,,,,,0,666,,,,,,,,,,,,,,,,,U,132,triangle,1,0,,,,,,,,,,,,,,,,repeat,letter,lettRpt,f,1.1503,noRew,,,,,,0,63,0,63,0,1,,,,,,,,,,,,,,,,,
293188,2022-11-15_14h47.47.298,vts_reward_expectancy_bt,2022.2.4,MacIntel,120.0048002,Chrome,1512,982,,,,,,,,,,,,,,,,,,,,,,,,,,,,,,,,,,,,,,,,,,,,,,,,,,,,,,,,,,,,,,,,,,,,,,,,,,,,
293188,2022-11-15_14h47.47.298,vts_reward_expectancy_bt,2022.2.4,MacIntel,120.0048002,Chrome,1512,982,,,,,1,667,,,,,,,,,,,,,,,,,S,139,circle,1,0,,,,,,,,,,,,,,,,switch,number,numSwt,j,1.5133,Lo,,,,,,0,,,,,,space,12.5919,low,0,0,0,0,1,,,,,,,,,
293188,2022-11-15_14h47.47.298,vts_reward_expectancy_bt,2022.2.4,MacIntel,120.0048002,Chrome,1512,982,,,,,0,667,,,,,,,,,,,,,,,,,Y,167,hexagon,1,0,,,,,,,,,,,,,,,,switch,letter,lettSwt,f,0.8742,Hi,,,,,,0,,,,,,,,low,1,0,1,0,1,,,,,,,,,
293188,2022-11-15_14h47.47.298,vts_reward_expectancy_bt,2022.2.4,MacIntel,120.0048002,Chrome,1512,982,,,,,0,667,,,,,,,,,,,,,,,,,F,160,triangle,0,0,,,,,,,,,,,,,,,,switch,number,NA,j,0.8976,Hi,,,,,,0,,,,,,,,low,2,0,2,0,1,,,,,,,,,
293188,2022-11-15_14h47.47.298,vts_reward_expectancy_bt,2022.2.4,MacIntel,120.0048002,Chrome,1512,982,,,,,1,668,,,,,,,,,,,,,,,,,B,181,star,1,1,,,,,,,,,,,,,,,,switch,letter,lettSwt,d,0.671,Hi,,,,,,0,,,,,,,,low,3,0,3,0,1,,,,,,,,,
293188,2022-11-15_14h47.47.298,vts_reward_expectancy_bt,2022.2.4,MacIntel,120.0048002,Chrome,1512,982,,,,,0,668,,,,,,,,,,,,,,,,,W,146,circle,0,0,,,,,,,,,,,,,,,,switch,number,NA,k,0.5851,Hi,,,,,,0,,,,,,,,low,4,0,4,0,1,,,,,,,,,
293188,2022-11-15_14h47.47.298,vts_reward_expectancy_bt,2022.2.4,MacIntel,120.0048002,Chrome,1512,982,,,,,0,668,,,,,,,,,,,,,,,,,U,125,hexagon,0,1,,,,,,,,,,,,,,,,switch,letter,NA,d,0.8893,Hi,,,,,,0,,,,,,,,low,5,0,5,0,1,,,,,,,,,
293188,2022-11-15_14h47.47.298,vts_reward_expectancy_bt,2022.2.4,MacIntel,120.0048002,Chrome,1512,982,,,,,1,669,,,,,,,,,,,,,,,,,H,132,triangle,1,1,,,,,,,,,,,,,,,,switch,number,numSwt,j,0.9573,Lo,,,,,,0,,,,,,,,low,6,0,6,0,1,,,,,,,,,
293188,2022-11-15_14h47.47.298,vts_reward_expectancy_bt,2022.2.4,MacIntel,120.0048002,Chrome,1512,982,,,,,10,679,,,,,,,,,,,,,,,,,D,174,star,1,0,,,,,,,,,,,,,,,,switch,letter,lettSwt,d,0.584,Hi,,,,,,0,,,,,,,,low,7,0,7,0,1,,,,,,,,,
293188,2022-11-15_14h47.47.298,vts_reward_expectancy_bt,2022.2.4,MacIntel,120.0048002,Chrome,1512,982,,,,,0,679,,,,,,,,,,,,,,,,,S,139,hexagon,1,0,,,,,,,,,,,,,,,,repeat,letter,lettRpt,f,0.7748,Hi,,,,,,0,,,,,,,,low,8,0,8,0,1,,,,,,,,,
293188,2022-11-15_14h47.47.298,vts_reward_expectancy_bt,2022.2.4,MacIntel,120.0048002,Chrome,1512,982,,,,,1,680,,,,,,,,,,,,,,,,,Y,167,star,1,0,,,,,,,,,,,,,,,,repeat,letter,lettRpt,f,0.6389,Hi,,,,,,0,,,,,,,,low,9,0,9,0,1,,,,,,,,,
293188,2022-11-15_14h47.47.298,vts_reward_expectancy_bt,2022.2.4,MacIntel,120.0048002,Chrome,1512,982,,,,,10,690,,,,,,,,,,,,,,,,,F,160,circle,1,0,,,,,,,,,,,,,,,,switch,number,numSwt,k,0.5234,Lo,,,,,,0,,,,,,,,low,10,0,10,0,1,,,,,,,,,
293188,2022-11-15_14h47.47.298,vts_reward_expectancy_bt,2022.2.4,MacIntel,120.0048002,Chrome,1512,982,,,,,10,700,,,,,,,,,,,,,,,,,B,181,triangle,1,0,,,,,,,,,,,,,,,,switch,letter,lettSwt,d,0.4421,Lo,,,,,,0,,,,,,,,low,11,0,11,0,1,,,,,,,,,
293188,2022-11-15_14h47.47.298,vts_reward_expectancy_bt,2022.2.4,MacIntel,120.0048002,Chrome,1512,982,,,,,1,701,,,,,,,,,,,,,,,,,W,146,circle,1,0,,,,,,,,,,,,,,,,switch,number,numSwt,j,0.4603,Lo,,,,,,0,,,,,,,,low,12,0,12,0,1,,,,,,,,,
293188,2022-11-15_14h47.47.298,vts_reward_expectancy_bt,2022.2.4,MacIntel,120.0048002,Chrome,1512,982,,,,,0,701,,,,,,,,,,,,,,,,,U,125,star,1,0,,,,,,,,,,,,,,,,switch,letter,lettSwt,f,1.1069,Hi,,,,,,0,,,,,,,,low,13,0,13,0,1,,,,,,,,,
293188,2022-11-15_14h47.47.298,vts_reward_expectancy_bt,2022.2.4,MacIntel,120.0048002,Chrome,1512,982,,,,,0,701,,,,,,,,,,,,,,,,,H,132,hexagon,1,0,,,,,,,,,,,,,,,,repeat,letter,lettRpt,d,1.0039,Hi,,,,,,0,,,,,,,,low,14,0,14,0,1,,,,,,,,,
293188,2022-11-15_14h47.47.298,vts_reward_expectancy_bt,2022.2.4,MacIntel,120.0048002,Chrome,1512,982,,,,,1,702,,,,,,,,,,,,,,,,,D,174,triangle,1,0,,,,,,,,,,,,,,,,repeat,letter,lettRpt,d,0.7516,Lo,,,,,,0,,,,,,,,low,15,0,15,0,1,,,,,,,,,
293188,2022-11-15_14h47.47.298,vts_reward_expectancy_bt,2022.2.4,MacIntel,120.0048002,Chrome,1512,982,,,,,1,703,,,,,,,,,,,,,,,,,H,125,circle,1,0,,,,,,,,,,,,,,,,switch,number,numSwt,j,0.4423,Lo,,,,,,0,,,,,,,,low,16,0,16,0,1,,,,,,,,,
293188,2022-11-15_14h47.47.298,vts_reward_expectancy_bt,2022.2.4,MacIntel,120.0048002,Chrome,1512,982,,,,,0,703,,,,,,,,,,,,,,,,,F,146,star,0,0,,,,,,,,,,,,,,,,switch,letter,NA,f,0.8173,Lo,,,,,,0,,,,,,,,low,17,0,17,0,1,,,,,,,,,
293188,2022-11-15_14h47.47.298,vts_reward_expectancy_bt,2022.2.4,MacIntel,120.0048002,Chrome,1512,982,,,,,0,703,,,,,,,,,,,,,,,,,S,139,hexagon,1,1,,,,,,,,,,,,,,,,switch,number,numSwt,j,1.6083,Hi,,,,,,0,,,,,,,,low,18,0,18,0,1,,,,,,,,,
293188,2022-11-15_14h47.47.298,vts_reward_expectancy_bt,2022.2.4,MacIntel,120.0048002,Chrome,1512,982,,,,,0,703,,,,,,,,,,,,,,,,,U,167,triangle,0,0,,,,,,,,,,,,,,,,switch,letter,NA,d,0.5582,Hi,,,,,,0,,,,,,,,low,19,0,19,0,1,,,,,,,,,
293188,2022-11-15_14h47.47.298,vts_reward_expectancy_bt,2022.2.4,MacIntel,120.0048002,Chrome,1512,982,,,,,1,704,,,,,,,,,,,,,,,,,B,181,triangle,1,1,,,,,,,,,,,,,,,,repeat,letter,lettRpt,d,0.6344,Lo,,,,,,0,,,,,,,,low,20,0,20,0,1,,,,,,,,,
293188,2022-11-15_14h47.47.298,vts_reward_expectancy_bt,2022.2.4,MacIntel,120.0048002,Chrome,1512,982,,,,,1,705,,,,,,,,,,,,,,,,,W,132,circle,1,0,,,,,,,,,,,,,,,,switch,number,numSwt,j,0.6163,Lo,,,,,,0,,,,,,,,low,21,0,21,0,1,,,,,,,,,
293188,2022-11-15_14h47.47.298,vts_reward_expectancy_bt,2022.2.4,MacIntel,120.0048002,Chrome,1512,982,,,,,10,715,,,,,,,,,,,,,,,,,D,160,star,1,0,,,,,,,,,,,,,,,,switch,letter,lettSwt,d,0.6674,Hi,,,,,,0,,,,,,,,low,22,0,22,0,1,,,,,,,,,
293188,2022-11-15_14h47.47.298,vts_reward_expectancy_bt,2022.2.4,MacIntel,120.0048002,Chrome,1512,982,,,,,1,716,,,,,,,,,,,,,,,,,Y,174,hexagon,1,0,,,,,,,,,,,,,,,,repeat,letter,lettRpt,f,0.7351,Hi,,,,,,0,,,,,,,,low,23,0,23,0,1,,,,,,,,,
293188,2022-11-15_14h47.47.298,vts_reward_expectancy_bt,2022.2.4,MacIntel,120.0048002,Chrome,1512,982,,,,,10,726,,,,,,,,,,,,,,,,,U,181,circle,1,0,,,,,,,,,,,,,,,,switch,number,numSwt,k,0.5817,Lo,,,,,,0,,,,,,,,low,24,0,24,0,1,,,,,,,,,
293188,2022-11-15_14h47.47.298,vts_reward_expectancy_bt,2022.2.4,MacIntel,120.0048002,Chrome,1512,982,,,,,10,736,,,,,,,,,,,,,,,,,B,132,star,1,0,,,,,,,,,,,,,,,,switch,letter,lettSwt,d,0.5001,Hi,,,,,,0,,,,,,,,low,25,0,25,0,1,,,,,,,,,
293188,2022-11-15_14h47.47.298,vts_reward_expectancy_bt,2022.2.4,MacIntel,120.0048002,Chrome,1512,982,,,,,1,737,,,,,,,,,,,,,,,,,H,139,triangle,1,0,,,,,,,,,,,,,,,,switch,number,numSwt,j,0.9215,Lo,,,,,,0,,,,,,,,low,26,0,26,0,1,,,,,,,,,
293188,2022-11-15_14h47.47.298,vts_reward_expectancy_bt,2022.2.4,MacIntel,120.0048002,Chrome,1512,982,,,,,0,737,,,,,,,,,,,,,,,,,W,160,hexagon,1,0,,,,,,,,,,,,,,,,switch,letter,lettSwt,f,0.7804,Hi,,,,,,0,,,,,,,,low,27,0,27,0,1,,,,,,,,,
293188,2022-11-15_14h47.47.298,vts_reward_expectancy_bt,2022.2.4,MacIntel,120.0048002,Chrome,1512,982,,,,,1,738,,,,,,,,,,,,,,,,,S,174,hexagon,1,0,,,,,,,,,,,,,,,,switch,number,numSwt,k,0.6668,Hi,,,,,,0,,,,,,,,low,28,0,28,0,1,,,,,,,,,
293188,2022-11-15_14h47.47.298,vts_reward_expectancy_bt,2022.2.4,MacIntel,120.0048002,Chrome,1512,982,,,,,0,738,,,,,,,,,,,,,,,,,F,125,triangle,0,0,,,,,,,,,,,,,,,,repeat,number,NA,k,0.7733,Hi,,,,,,0,,,,,,,,low,29,0,29,0,1,,,,,,,,,
293188,2022-11-15_14h47.47.298,vts_reward_expectancy_bt,2022.2.4,MacIntel,120.0048002,Chrome,1512,982,,,,,10,748,,,,,,,,,,,,,,,,,D,167,circle,1,1,,,,,,,,,,,,,,,,switch,letter,lettSwt,d,1.3957,Lo,,,,,,0,,,,,,,,low,30,0,30,0,1,,,,,,,,,
293188,2022-11-15_14h47.47.298,vts_reward_expectancy_bt,2022.2.4,MacIntel,120.0048002,Chrome,1512,982,,,,,10,758,,,,,,,,,,,,,,,,,Y,146,star,1,0,,,,,,,,,,,,,,,,repeat,letter,lettRpt,f,0.6217,Hi,,,,,,0,,,,,,,,low,31,0,31,0,1,,,,,,,,,
293188,2022-11-15_14h47.47.298,vts_reward_expectancy_bt,2022.2.4,MacIntel,120.0048002,Chrome,1512,982,,,,,1,759,,,,,,,,,,,,,,,,,Y,125,hexagon,1,0,,,,,,,,,,,,,,,,repeat,letter,lettRpt,f,0.537,Hi,,,,,,1,,,,,,space,20.5078,low,0,0,0,0,1,,,,,,,,,
293188,2022-11-15_14h47.47.298,vts_reward_expectancy_bt,2022.2.4,MacIntel,120.0048002,Chrome,1512,982,,,,,10,769,,,,,,,,,,,,,,,,,B,132,star,1,0,,,,,,,,,,,,,,,,switch,number,numSwt,j,0.4956,Hi,,,,,,1,,,,,,,,low,1,0,1,0,1,,,,,,,,,
293188,2022-11-15_14h47.47.298,vts_reward_expectancy_bt,2022.2.4,MacIntel,120.0048002,Chrome,1512,982,,,,,0,769,,,,,,,,,,,,,,,,,U,181,circle,0,0,,,,,,,,,,,,,,,,repeat,number,NA,j,0.856,Hi,,,,,,1,,,,,,,,low,2,0,2,0,1,,,,,,,,,
293188,2022-11-15_14h47.47.298,vts_reward_expectancy_bt,2022.2.4,MacIntel,120.0048002,Chrome,1512,982,,,,,10,779,,,,,,,,,,,,,,,,,D,146,triangle,1,1,,,,,,,,,,,,,,,,switch,letter,lettSwt,d,0.6423,Lo,,,,,,1,,,,,,,,low,3,0,3,0,1,,,,,,,,,
293188,2022-11-15_14h47.47.298,vts_reward_expectancy_bt,2022.2.4,MacIntel,120.0048002,Chrome,1512,982,,,,,10,789,,,,,,,,,,,,,,,,,S,160,hexagon,1,0,,,,,,,,,,,,,,,,switch,number,numSwt,k,0.4704,Hi,,,,,,1,,,,,,,,low,4,0,4,0,1,,,,,,,,,
293188,2022-11-15_14h47.47.298,vts_reward_expectancy_bt,2022.2.4,MacIntel,120.0048002,Chrome,1512,982,,,,,1,790,,,,,,,,,,,,,,,,,H,167,star,1,0,,,,,,,,,,,,,,,,repeat,number,numRpt,k,1.0071,Hi,,,,,,1,,,,,,,,low,5,0,5,0,1,,,,,,,,,
293188,2022-11-15_14h47.47.298,vts_reward_expectancy_bt,2022.2.4,MacIntel,120.0048002,Chrome,1512,982,,,,,0,790,,,,,,,,,,,,,,,,,F,139,circle,0,0,,,,,,,,,,,,,,,,switch,letter,NA,f,0.9497,Hi,,,,,,1,,,,,,,,low,6,0,6,0,1,,,,,,,,,
293188,2022-11-15_14h47.47.298,vts_reward_expectancy_bt,2022.2.4,MacIntel,120.0048002,Chrome,1512,982,,,,,0,790,,,,,,,,,,,,,,,,,W,174,triangle,0,1,,,,,,,,,,,,,,,,repeat,letter,NA,d,0.833,Hi,,,,,,1,,,,,,,,low,7,0,7,0,1,,,,,,,,,
293188,2022-11-15_14h47.47.298,vts_reward_expectancy_bt,2022.2.4,MacIntel,120.0048002,Chrome,1512,982,,,,,0,790,,,,,,,,,,,,,,,,,Y,125,hexagon,1,1,,,,,,,,,,,,,,,,repeat,letter,lettRpt,f,0.6613,Hi,,,,,,1,,,,,,,,low,8,0,8,0,1,,,,,,,,,
293188,2022-11-15_14h47.47.298,vts_reward_expectancy_bt,2022.2.4,MacIntel,120.0048002,Chrome,1512,982,,,,,1,791,,,,,,,,,,,,,,,,,B,132,circle,1,0,,,,,,,,,,,,,,,,repeat,letter,lettRpt,d,0.951,Lo,,,,,,1,,,,,,,,low,9,0,9,0,1,,,,,,,,,
293188,2022-11-15_14h47.47.298,vts_reward_expectancy_bt,2022.2.4,MacIntel,120.0048002,Chrome,1512,982,,,,,0,791,,,,,,,,,,,,,,,,,U,181,star,1,0,,,,,,,,,,,,,,,,switch,number,numSwt,k,1.1453,Hi,,,,,,1,,,,,,,,low,10,0,10,0,1,,,,,,,,,
293188,2022-11-15_14h47.47.298,vts_reward_expectancy_bt,2022.2.4,MacIntel,120.0048002,Chrome,1512,982,,,,,10,801,,,,,,,,,,,,,,,,,D,146,triangle,1,0,,,,,,,,,,,,,,,,switch,letter,lettSwt,d,1.2664,Lo,,,,,,1,,,,,,,,low,11,0,11,0,1,,,,,,,,,
293188,2022-11-15_14h47.47.298,vts_reward_expectancy_bt,2022.2.4,MacIntel,120.0048002,Chrome,1512,982,,,,,0,801,,,,,,,,,,,,,,,,,S,160,star,1,0,,,,,,,,,,,,,,,,switch,number,numSwt,k,1.0153,Hi,,,,,,1,,,,,,,,low,12,0,12,0,1,,,,,,,,,
293188,2022-11-15_14h47.47.298,vts_reward_expectancy_bt,2022.2.4,MacIntel,120.0048002,Chrome,1512,982,,,,,10,811,,,,,,,,,,,,,,,,,H,167,circle,1,0,,,,,,,,,,,,,,,,repeat,number,numRpt,k,1.0219,Lo,,,,,,1,,,,,,,,low,13,0,13,0,1,,,,,,,,,
293188,2022-11-15_14h47.47.298,vts_reward_expectancy_bt,2022.2.4,MacIntel,120.0048002,Chrome,1512,982,,,,,1,812,,,,,,,,,,,,,,,,,F,139,hexagon,1,0,,,,,,,,,,,,,,,,repeat,number,numRpt,j,0.7862,Hi,,,,,,1,,,,,,,,low,14,0,14,0,1,,,,,,,,,
293188,2022-11-15_14h47.47.298,vts_reward_expectancy_bt,2022.2.4,MacIntel,120.0048002,Chrome,1512,982,,,,,1,813,,,,,,,,,,,,,,,,,W,174,triangle,1,0,,,,,,,,,,,,,,,,repeat,number,numRpt,k,0.5264,Lo,,,,,,1,,,,,,,,low,15,0,15,0,1,,,,,,,,,
293188,2022-11-15_14h47.47.298,vts_reward_expectancy_bt,2022.2.4,MacIntel,120.0048002,Chrome,1512,982,,,,,10,823,,,,,,,,,,,,,,,,,W,146,circle,1,0,,,,,,,,,,,,,,,,switch,letter,lettSwt,f,0.4804,Lo,,,,,,1,,,,,,,,low,16,0,16,0,1,,,,,,,,,
293188,2022-11-15_14h47.47.298,vts_reward_expectancy_bt,2022.2.4,MacIntel,120.0048002,Chrome,1512,982,,,,,0,823,,,,,,,,,,,,,,,,,D,125,hexagon,0,0,,,,,,,,,,,,,,,,repeat,letter,NA,f,0.5356,Lo,,,,,,1,,,,,,,,low,17,0,17,0,1,,,,,,,,,
293188,2022-11-15_14h47.47.298,vts_reward_expectancy_bt,2022.2.4,MacIntel,120.0048002,Chrome,1512,982,,,,,1,824,,,,,,,,,,,,,,,,,H,181,triangle,1,1,,,,,,,,,,,,,,,,switch,number,numSwt,k,0.6258,Lo,,,,,,1,,,,,,,,low,18,0,18,0,1,,,,,,,,,
293188,2022-11-15_14h47.47.298,vts_reward_expectancy_bt,2022.2.4,MacIntel,120.0048002,Chrome,1512,982,,,,,1,825,,,,,,,,,,,,,,,,,F,167,star,1,0,,,,,,,,,,,,,,,,repeat,number,numRpt,k,0.9935,Hi,,,,,,1,,,,,,,,low,19,0,19,0,1,,,,,,,,,
293188,2022-11-15_14h47.47.298,vts_reward_expectancy_bt,2022.2.4,MacIntel,120.0048002,Chrome,1512,982,,,,,0,825,,,,,,,,,,,,,,,,,U,132,triangle,0,0,,,,,,,,,,,,,,,,repeat,number,NA,k,0.9415,Hi,,,,,,1,,,,,,,,low,20,0,20,0,1,,,,,,,,,
293188,2022-11-15_14h47.47.298,vts_reward_expectancy_bt,2022.2.4,MacIntel,120.0048002,Chrome,1512,982,,,,,0,825,,,,,,,,,,,,,,,,,B,160,hexagon,1,1,,,,,,,,,,,,,,,,switch,letter,lettSwt,d,0.909,Hi,,,,,,1,,,,,,,,low,21,0,21,0,1,,,,,,,,,
293188,2022-11-15_14h47.47.298,vts_reward_expectancy_bt,2022.2.4,MacIntel,120.0048002,Chrome,1512,982,,,,,10,835,,,,,,,,,,,,,,,,,Y,139,circle,1,0,,,,,,,,,,,,,,,,repeat,letter,lettRpt,f,1.1551,Lo,,,,,,1,,,,,,,,low,22,0,22,0,1,,,,,,,,,
293188,2022-11-15_14h47.47.298,vts_reward_expectancy_bt,2022.2.4,MacIntel,120.0048002,Chrome,1512,982,,,,,0,835,,,,,,,,,,,,,,,,,S,174,star,1,0,,,,,,,,,,,,,,,,switch,number,numSwt,k,0.9162,Hi,,,,,,1,,,,,,,,low,23,0,23,0,1,,,,,,,,,
293188,2022-11-15_14h47.47.298,vts_reward_expectancy_bt,2022.2.4,MacIntel,120.0048002,Chrome,1512,982,,,,,1,836,,,,,,,,,,,,,,,,,S,132,hexagon,1,0,,,,,,,,,,,,,,,,repeat,number,numRpt,j,0.6355,Hi,,,,,,1,,,,,,,,low,24,0,24,0,1,,,,,,,,,
293188,2022-11-15_14h47.47.298,vts_reward_expectancy_bt,2022.2.4,MacIntel,120.0048002,Chrome,1512,982,,,,,1,837,,,,,,,,,,,,,,,,,Y,167,star,1,0,,,,,,,,,,,,,,,,repeat,number,numRpt,k,0.5809,Hi,,,,,,1,,,,,,,,low,25,0,25,0,1,,,,,,,,,
293188,2022-11-15_14h47.47.298,vts_reward_expectancy_bt,2022.2.4,MacIntel,120.0048002,Chrome,1512,982,,,,,0,837,,,,,,,,,,,,,,,,,B,146,triangle,0,0,,,,,,,,,,,,,,,,switch,letter,NA,f,0.5148,Hi,,,,,,1,,,,,,,,low,26,0,26,0,1,,,,,,,,,
293188,2022-11-15_14h47.47.298,vts_reward_expectancy_bt,2022.2.4,MacIntel,120.0048002,Chrome,1512,982,,,,,1,838,,,,,,,,,,,,,,,,,W,174,circle,1,1,,,,,,,,,,,,,,,,repeat,letter,lettRpt,f,1.3518,Lo,,,,,,1,,,,,,,,low,27,0,27,0,1,,,,,,,,,
293188,2022-11-15_14h47.47.298,vts_reward_expectancy_bt,2022.2.4,MacIntel,120.0048002,Chrome,1512,982,,,,,10,848,,,,,,,,,,,,,,,,,F,160,circle,1,0,,,,,,,,,,,,,,,,switch,number,numSwt,k,0.9654,Lo,,,,,,1,,,,,,,,low,28,0,28,0,1,,,,,,,,,
293188,2022-11-15_14h47.47.298,vts_reward_expectancy_bt,2022.2.4,MacIntel,120.0048002,Chrome,1512,982,,,,,0,848,,,,,,,,,,,,,,,,,U,125,hexagon,0,0,,,,,,,,,,,,,,,,repeat,number,NA,k,0.878,Lo,,,,,,1,,,,,,,,low,29,0,29,0,1,,,,,,,,,
293188,2022-11-15_14h47.47.298,vts_reward_expectancy_bt,2022.2.4,MacIntel,120.0048002,Chrome,1512,982,,,,,10,858,,,,,,,,,,,,,,,,,H,181,star,1,1,,,,,,,,,,,,,,,,repeat,number,numRpt,k,0.8894,Hi,,,,,,1,,,,,,,,low,30,0,30,0,1,,,,,,,,,
293188,2022-11-15_14h47.47.298,vts_reward_expectancy_bt,2022.2.4,MacIntel,120.0048002,Chrome,1512,982,,,,,0,858,,,,,,,,,,,,,,,,,D,139,triangle,0,0,,,,,,,,,,,,,,,,switch,letter,NA,f,2.4317,Hi,,,,,,1,,,,,,,,low,31,0,31,0,1,,,,,,,,,
293188,2022-11-15_14h47.47.298,vts_reward_expectancy_bt,2022.2.4,MacIntel,120.0048002,Chrome,1512,982,,,,,1,859,,,,,,,,,,,,,,,,,D,160,circle,1,1,,,,,,,,,,,,,,,,repeat,letter,lettRpt,d,0.6102,Lo,,,,,,2,,,,,,space,1.3686,low,0,0,0,0,1,,,,,,,,,
293188,2022-11-15_14h47.47.298,vts_reward_expectancy_bt,2022.2.4,MacIntel,120.0048002,Chrome,1512,982,,,,,10,869,,,,,,,,,,,,,,,,,H,181,triangle,1,0,,,,,,,,,,,,,,,,switch,number,numSwt,k,0.8414,Lo,,,,,,2,,,,,,,,low,1,0,1,0,1,,,,,,,,,
293188,2022-11-15_14h47.47.298,vts_reward_expectancy_bt,2022.2.4,MacIntel,120.0048002,Chrome,1512,982,,,,,0,869,,,,,,,,,,,,,,,,,S,146,star,0,0,,,,,,,,,,,,,,,,switch,letter,NA,d,0.9314,Lo,,,,,,2,,,,,,,,low,2,0,2,0,1,,,,,,,,,
293188,2022-11-15_14h47.47.298,vts_reward_expectancy_bt,2022.2.4,MacIntel,120.0048002,Chrome,1512,982,,,,,0,869,,,,,,,,,,,,,,,,,B,139,hexagon,1,1,,,,,,,,,,,,,,,,repeat,letter,lettRpt,d,0.9972,Hi,,,,,,2,,,,,,,,low,3,0,3,0,1,,,,,,,,,
293188,2022-11-15_14h47.47.298,vts_reward_expectancy_bt,2022.2.4,MacIntel,120.0048002,Chrome,1512,982,,,,,1,870,,,,,,,,,,,,,,,,,Y,132,circle,1,0,,,,,,,,,,,,,,,,repeat,letter,lettRpt,f,0.7573,Lo,,,,,,2,,,,,,,,low,4,0,4,0,1,,,,,,,,,
293188,2022-11-15_14h47.47.298,vts_reward_expectancy_bt,2022.2.4,MacIntel,120.0048002,Chrome,1512,982,,,,,1,871,,,,,,,,,,,,,,,,,F,174,triangle,1,0,,,,,,,,,,,,,,,,switch,number,numSwt,k,1.1198,Lo,,,,,,2,,,,,,,,low,5,0,5,0,1,,,,,,,,,
293188,2022-11-15_14h47.47.298,vts_reward_expectancy_bt,2022.2.4,MacIntel,120.0048002,Chrome,1512,982,,,,,0,871,,,,,,,,,,,,,,,,,U,125,star,1,0,,,,,,,,,,,,,,,,repeat,number,numRpt,j,1.4015,Hi,,,,,,2,,,,,,,,low,6,0,6,0,1,,,,,,,,,
293188,2022-11-15_14h47.47.298,vts_reward_expectancy_bt,2022.2.4,MacIntel,120.0048002,Chrome,1512,982,,,,,10,881,,,,,,,,,,,,,,,,,W,167,hexagon,1,0,,,,,,,,,,,,,,,,repeat,number,numRpt,k,0.4065,Hi,,,,,,2,,,,,,,,low,7,0,7,0,1,,,,,,,,,
293188,2022-11-15_14h47.47.298,vts_reward_expectancy_bt,2022.2.4,MacIntel,120.0048002,Chrome,1512,982,,,,,10,891,,,,,,,,,,,,,,,,,D,160,circle,1,0,,,,,,,,,,,,,,,,repeat,number,numRpt,k,0.4609,Lo,,,,,,2,,,,,,,,low,8,0,8,0,1,,,,,,,,,
293188,2022-11-15_14h47.47.298,vts_reward_expectancy_bt,2022.2.4,MacIntel,120.0048002,Chrome,1512,982,,,,,1,892,,,,,,,,,,,,,,,,,H,181,hexagon,1,0,,,,,,,,,,,,,,,,repeat,number,numRpt,k,0.548,Hi,,,,,,2,,,,,,,,low,9,0,9,0,1,,,,,,,,,
293188,2022-11-15_14h47.47.298,vts_reward_expectancy_bt,2022.2.4,MacIntel,120.0048002,Chrome,1512,982,,,,,0,892,,,,,,,,,,,,,,,,,S,146,triangle,0,0,,,,,,,,,,,,,,,,switch,letter,NA,d,0.7144,Hi,,,,,,2,,,,,,,,low,10,0,10,0,1,,,,,,,,,
293188,2022-11-15_14h47.47.298,vts_reward_expectancy_bt,2022.2.4,MacIntel,120.0048002,Chrome,1512,982,,,,,1,893,,,,,,,,,,,,,,,,,B,139,star,1,1,,,,,,,,,,,,,,,,repeat,letter,lettRpt,d,0.328,Hi,,,,,,2,,,,,,,,low,11,0,11,0,1,,,,,,,,,
293188,2022-11-15_14h47.47.298,vts_reward_expectancy_bt,2022.2.4,MacIntel,120.0048002,Chrome,1512,982,,,,,0,893,,,,,,,,,,,,,,,,,Y,132,triangle,0,0,,,,,,,,,,,,,,,,switch,number,NA,k,0.4764,Hi,,,,,,2,,,,,,,,low,12,0,12,0,1,,,,,,,,,
293188,2022-11-15_14h47.47.298,vts_reward_expectancy_bt,2022.2.4,MacIntel,120.0048002,Chrome,1512,982,,,,,0,893,,,,,,,,,,,,,,,,,F,174,star,1,1,,,,,,,,,,,,,,,,repeat,number,numRpt,k,0.9569,Hi,,,,,,2,,,,,,,,low,13,0,13,0,1,,,,,,,,,
293188,2022-11-15_14h47.47.298,vts_reward_expectancy_bt,2022.2.4,MacIntel,120.0048002,Chrome,1512,982,,,,,1,894,,,,,,,,,,,,,,,,,U,125,circle,1,0,,,,,,,,,,,,,,,,repeat,number,numRpt,j,0.3566,Lo,,,,,,2,,,,,,,,low,14,0,14,0,1,,,,,,,,,
293188,2022-11-15_14h47.47.298,vts_reward_expectancy_bt,2022.2.4,MacIntel,120.0048002,Chrome,1512,982,,,,,1,895,,,,,,,,,,,,,,,,,W,167,hexagon,1,0,,,,,,,,,,,,,,,,repeat,number,numRpt,k,0.411,Hi,,,,,,2,,,,,,,,low,15,0,15,0,1,,,,,,,,,
293188,2022-11-15_14h47.47.298,vts_reward_expectancy_bt,2022.2.4,MacIntel,120.0048002,Chrome,1512,982,,,,,1,896,,,,,,,,,,,,,,,,,H,160,circle,1,0,,,,,,,,,,,,,,,,repeat,number,numRpt,k,0.4487,Lo,,,,,,2,,,,,,,,low,16,0,16,0,1,,,,,,,,,
293188,2022-11-15_14h47.47.298,vts_reward_expectancy_bt,2022.2.4,MacIntel,120.0048002,Chrome,1512,982,,,,,10,906,,,,,,,,,,,,,,,,,B,132,triangle,1,0,,,,,,,,,,,,,,,,repeat,number,numRpt,j,0.3979,Lo,,,,,,2,,,,,,,,low,17,0,17,0,1,,,,,,,,,
293188,2022-11-15_14h47.47.298,vts_reward_expectancy_bt,2022.2.4,MacIntel,120.0048002,Chrome,1512,982,,,,,0,906,,,,,,,,,,,,,,,,,U,174,hexagon,0,0,,,,,,,,,,,,,,,,repeat,number,NA,j,0.4445,Lo,,,,,,2,,,,,,,,low,18,0,18,0,1,,,,,,,,,
293188,2022-11-15_14h47.47.298,vts_reward_expectancy_bt,2022.2.4,MacIntel,120.0048002,Chrome,1512,982,,,,,10,916,,,,,,,,,,,,,,,,,S,167,star,1,1,,,,,,,,,,,,,,,,repeat,number,numRpt,k,0.5653,Hi,,,,,,2,,,,,,,,low,19,0,19,0,1,,,,,,,,,
293188,2022-11-15_14h47.47.298,vts_reward_expectancy_bt,2022.2.4,MacIntel,120.0048002,Chrome,1512,982,,,,,10,926,,,,,,,,,,,,,,,,,Y,139,circle,1,0,,,,,,,,,,,,,,,,repeat,number,numRpt,j,0.6876,Lo,,,,,,2,,,,,,,,low,20,0,20,0,1,,,,,,,,,
293188,2022-11-15_14h47.47.298,vts_reward_expectancy_bt,2022.2.4,MacIntel,120.0048002,Chrome,1512,982,,,,,1,927,,,,,,,,,,,,,,,,,F,181,star,1,0,,,,,,,,,,,,,,,,repeat,number,numRpt,k,0.6579,Hi,,,,,,2,,,,,,,,low,21,0,21,0,1,,,,,,,,,
293188,2022-11-15_14h47.47.298,vts_reward_expectancy_bt,2022.2.4,MacIntel,120.0048002,Chrome,1512,982,,,,,10,937,,,,,,,,,,,,,,,,,W,146,triangle,1,0,,,,,,,,,,,,,,,,repeat,number,numRpt,j,0.6442,Lo,,,,,,2,,,,,,,,low,22,0,22,0,1,,,,,,,,,
293188,2022-11-15_14h47.47.298,vts_reward_expectancy_bt,2022.2.4,MacIntel,120.0048002,Chrome,1512,982,,,,,10,947,,,,,,,,,,,,,,,,,D,125,hexagon,1,0,,,,,,,,,,,,,,,,repeat,number,numRpt,j,0.531,Hi,,,,,,2,,,,,,,,low,23,0,23,0,1,,,,,,,,,
293188,2022-11-15_14h47.47.298,vts_reward_expectancy_bt,2022.2.4,MacIntel,120.0048002,Chrome,1512,982,,,,,10,957,,,,,,,,,,,,,,,,,W,125,star,1,0,,,,,,,,,,,,,,,,repeat,number,numRpt,j,0.5463,Hi,,,,,,2,,,,,,,,low,24,0,24,0,1,,,,,,,,,
293188,2022-11-15_14h47.47.298,vts_reward_expectancy_bt,2022.2.4,MacIntel,120.0048002,Chrome,1512,982,,,,,10,967,,,,,,,,,,,,,,,,,D,160,hexagon,1,0,,,,,,,,,,,,,,,,repeat,number,numRpt,k,0.2509,Hi,,,,,,2,,,,,,,,low,25,0,25,0,1,,,,,,,,,
293188,2022-11-15_14h47.47.298,vts_reward_expectancy_bt,2022.2.4,MacIntel,120.0048002,Chrome,1512,982,,,,,10,977,,,,,,,,,,,,,,,,,B,132,circle,1,0,,,,,,,,,,,,,,,,repeat,number,numRpt,j,0.5338,Lo,,,,,,2,,,,,,,,low,26,0,26,0,1,,,,,,,,,
293188,2022-11-15_14h47.47.298,vts_reward_expectancy_bt,2022.2.4,MacIntel,120.0048002,Chrome,1512,982,,,,,1,978,,,,,,,,,,,,,,,,,Y,139,triangle,1,0,,,,,,,,,,,,,,,,repeat,number,numRpt,j,0.5839,Lo,,,,,,2,,,,,,,,low,27,0,27,0,1,,,,,,,,,
293188,2022-11-15_14h47.47.298,vts_reward_expectancy_bt,2022.2.4,MacIntel,120.0048002,Chrome,1512,982,,,,,10,988,,,,,,,,,,,,,,,,,S,181,circle,1,0,,,,,,,,,,,,,,,,repeat,number,numRpt,k,0.435,Lo,,,,,,2,,,,,,,,low,28,0,28,0,1,,,,,,,,,
293188,2022-11-15_14h47.47.298,vts_reward_expectancy_bt,2022.2.4,MacIntel,120.0048002,Chrome,1512,982,,,,,1,989,,,,,,,,,,,,,,,,,H,146,triangle,1,0,,,,,,,,,,,,,,,,repeat,number,numRpt,j,0.5026,Lo,,,,,,2,,,,,,,,low,29,0,29,0,1,,,,,,,,,
293188,2022-11-15_14h47.47.298,vts_reward_expectancy_bt,2022.2.4,MacIntel,120.0048002,Chrome,1512,982,,,,,0,989,,,,,,,,,,,,,,,,,U,174,hexagon,1,0,,,,,,,,,,,,,,,,repeat,number,numRpt,k,1.0308,Hi,,,,,,2,,,,,,,,low,30,0,30,0,1,,,,,,,,,
293188,2022-11-15_14h47.47.298,vts_reward_expectancy_bt,2022.2.4,MacIntel,120.0048002,Chrome,1512,982,,,,,0,989,,,,,,,,,,,,,,,,,F,167,star,1,0,,,,,,,,,,,,,,,,repeat,number,numRpt,k,1.1798,Hi,,,,,,2,,,,,,,,low,31,0,31,0,1,,,,,,,,,
293188,2022-11-15_14h47.47.298,vts_reward_expectancy_bt,2022.2.4,MacIntel,120.0048002,Chrome,1512,982,,,,,10,999,,,,,,,,,,,,,,,,,Y,174,hexagon,1,0,,,,,,,,,,,,,,,,repeat,number,numRpt,k,0.4402,Hi,,,,,,3,,,,,,space,3.3257,low,0,0,0,0,1,,,,,,,,,
293188,2022-11-15_14h47.47.298,vts_reward_expectancy_bt,2022.2.4,MacIntel,120.0048002,Chrome,1512,982,,,,,1,1000,,,,,,,,,,,,,,,,,W,132,circle,1,0,,,,,,,,,,,,,,,,repeat,number,numRpt,j,0.6415,Lo,,,,,,3,,,,,,,,low,1,0,1,0,1,,,,,,,,,
293188,2022-11-15_14h47.47.298,vts_reward_expectancy_bt,2022.2.4,MacIntel,120.0048002,Chrome,1512,982,,,,,1,1001,,,,,,,,,,,,,,,,,U,139,triangle,1,0,,,,,,,,,,,,,,,,repeat,number,numRpt,j,0.4858,Lo,,,,,,3,,,,,,,,low,2,0,2,0,1,,,,,,,,,
293188,2022-11-15_14h47.47.298,vts_reward_expectancy_bt,2022.2.4,MacIntel,120.0048002,Chrome,1512,982,,,,,0,1001,,,,,,,,,,,,,,,,,F,181,star,1,0,,,,,,,,,,,,,,,,repeat,number,numRpt,k,0.5887,Hi,,,,,,3,,,,,,,,low,3,0,3,0,1,,,,,,,,,
293188,2022-11-15_14h47.47.298,vts_reward_expectancy_bt,2022.2.4,MacIntel,120.0048002,Chrome,1512,982,,,,,0,1001,,,,,,,,,,,,,,,,,H,125,hexagon,1,0,,,,,,,,,,,,,,,,repeat,number,numRpt,j,0.9121,Hi,,,,,,3,,,,,,,,low,4,0,4,0,1,,,,,,,,,
293188,2022-11-15_14h47.47.298,vts_reward_expectancy_bt,2022.2.4,MacIntel,120.0048002,Chrome,1512,982,,,,,10,1011,,,,,,,,,,,,,,,,,B,146,circle,1,0,,,,,,,,,,,,,,,,repeat,number,numRpt,j,0.7225,Lo,,,,,,3,,,,,,,,low,5,0,5,0,1,,,,,,,,,
293188,2022-11-15_14h47.47.298,vts_reward_expectancy_bt,2022.2.4,MacIntel,120.0048002,Chrome,1512,982,,,,,10,1021,,,,,,,,,,,,,,,,,S,160,triangle,1,0,,,,,,,,,,,,,,,,repeat,number,numRpt,k,0.5983,Lo,,,,,,3,,,,,,,,low,6,0,6,0,1,,,,,,,,,
293188,2022-11-15_14h47.47.298,vts_reward_expectancy_bt,2022.2.4,MacIntel,120.0048002,Chrome,1512,982,,,,,10,1031,,,,,,,,,,,,,,,,,D,167,star,1,0,,,,,,,,,,,,,,,,repeat,number,numRpt,k,0.4499,Hi,,,,,,3,,,,,,,,low,7,0,7,0,1,,,,,,,,,
293188,2022-11-15_14h47.47.298,vts_reward_expectancy_bt,2022.2.4,MacIntel,120.0048002,Chrome,1512,982,,,,,10,1041,,,,,,,,,,,,,,,,,Y,174,star,1,0,,,,,,,,,,,,,,,,repeat,number,numRpt,k,0.4498,Hi,,,,,,3,,,,,,,,low,8,0,8,0,1,,,,,,,,,
293188,2022-11-15_14h47.47.298,vts_reward_expectancy_bt,2022.2.4,MacIntel,120.0048002,Chrome,1512,982,,,,,1,1042,,,,,,,,,,,,,,,,,W,132,triangle,1,0,,,,,,,,,,,,,,,,repeat,number,numRpt,j,0.3992,Lo,,,,,,3,,,,,,,,low,9,0,9,0,1,,,,,,,,,
293188,2022-11-15_14h47.47.298,vts_reward_expectancy_bt,2022.2.4,MacIntel,120.0048002,Chrome,1512,982,,,,,10,1052,,,,,,,,,,,,,,,,,U,139,hexagon,1,0,,,,,,,,,,,,,,,,repeat,number,numRpt,j,0.274,Hi,,,,,,3,,,,,,,,low,10,0,10,0,1,,,,,,,,,
293188,2022-11-15_14h47.47.298,vts_reward_expectancy_bt,2022.2.4,MacIntel,120.0048002,Chrome,1512,982,,,,,1,1053,,,,,,,,,,,,,,,,,F,181,circle,1,0,,,,,,,,,,,,,,,,repeat,number,numRpt,k,0.3954,Lo,,,,,,3,,,,,,,,low,11,0,11,0,1,,,,,,,,,
293188,2022-11-15_14h47.47.298,vts_reward_expectancy_bt,2022.2.4,MacIntel,120.0048002,Chrome,1512,982,,,,,1,1054,,,,,,,,,,,,,,,,,H,125,hexagon,1,0,,,,,,,,,,,,,,,,repeat,number,numRpt,j,0.3913,Hi,,,,,,3,,,,,,,,low,12,0,12,0,1,,,,,,,,,
293188,2022-11-15_14h47.47.298,vts_reward_expectancy_bt,2022.2.4,MacIntel,120.0048002,Chrome,1512,982,,,,,1,1055,,,,,,,,,,,,,,,,,B,146,circle,1,0,,,,,,,,,,,,,,,,repeat,number,numRpt,j,0.5128,Lo,,,,,,3,,,,,,,,low,13,0,13,0,1,,,,,,,,,
293188,2022-11-15_14h47.47.298,vts_reward_expectancy_bt,2022.2.4,MacIntel,120.0048002,Chrome,1512,982,,,,,10,1065,,,,,,,,,,,,,,,,,S,160,triangle,1,0,,,,,,,,,,,,,,,,repeat,number,numRpt,k,0.5547,Lo,,,,,,3,,,,,,,,low,14,0,14,0,1,,,,,,,,,
293188,2022-11-15_14h47.47.298,vts_reward_expectancy_bt,2022.2.4,MacIntel,120.0048002,Chrome,1512,982,,,,,0,1065,,,,,,,,,,,,,,,,,D,167,star,1,0,,,,,,,,,,,,,,,,repeat,number,numRpt,k,0.4809,Hi,,,,,,3,,,,,,,,low,15,0,15,0,1,,,,,,,,,
293188,2022-11-15_14h47.47.298,vts_reward_expectancy_bt,2022.2.4,MacIntel,120.0048002,Chrome,1512,982,,,,,1,1066,,,,,,,,,,,,,,,,,H,146,star,1,0,,,,,,,,,,,,,,,,repeat,number,numRpt,j,0.4377,Hi,,,,,,3,,,,,,,,low,16,0,16,0,1,,,,,,,,,
293188,2022-11-15_14h47.47.298,vts_reward_expectancy_bt,2022.2.4,MacIntel,120.0048002,Chrome,1512,982,,,,,1,1067,,,,,,,,,,,,,,,,,U,139,circle,1,0,,,,,,,,,,,,,,,,repeat,number,numRpt,j,0.5043,Lo,,,,,,3,,,,,,,,low,17,0,17,0,1,,,,,,,,,
293188,2022-11-15_14h47.47.298,vts_reward_expectancy_bt,2022.2.4,MacIntel,120.0048002,Chrome,1512,982,,,,,0,1067,,,,,,,,,,,,,,,,,D,174,hexagon,1,0,,,,,,,,,,,,,,,,repeat,number,numRpt,k,0.5155,Hi,,,,,,3,,,,,,,,low,18,0,18,0,1,,,,,,,,,
293188,2022-11-15_14h47.47.298,vts_reward_expectancy_bt,2022.2.4,MacIntel,120.0048002,Chrome,1512,982,,,,,10,1077,,,,,,,,,,,,,,,,,B,167,triangle,1,0,,,,,,,,,,,,,,,,repeat,number,numRpt,k,0.5053,Lo,,,,,,3,,,,,,,,low,19,0,19,0,1,,,,,,,,,
293188,2022-11-15_14h47.47.298,vts_reward_expectancy_bt,2022.2.4,MacIntel,120.0048002,Chrome,1512,982,,,,,10,1087,,,,,,,,,,,,,,,,,W,132,triangle,1,0,,,,,,,,,,,,,,,,repeat,number,numRpt,j,0.5133,Lo,,,,,,3,,,,,,,,low,20,0,20,0,1,,,,,,,,,
293188,2022-11-15_14h47.47.298,vts_reward_expectancy_bt,2022.2.4,MacIntel,120.0048002,Chrome,1512,982,,,,,0,1087,,,,,,,,,,,,,,,,,Y,125,star,1,0,,,,,,,,,,,,,,,,repeat,number,numRpt,j,0.5579,Hi,,,,,,3,,,,,,,,low,21,0,21,0,1,,,,,,,,,
293188,2022-11-15_14h47.47.298,vts_reward_expectancy_bt,2022.2.4,MacIntel,120.0048002,Chrome,1512,982,,,,,0,1087,,,,,,,,,,,,,,,,,F,160,hexagon,1,0,,,,,,,,,,,,,,,,repeat,number,numRpt,k,0.6443,Hi,,,,,,3,,,,,,,,low,22,0,22,0,1,,,,,,,,,
293188,2022-11-15_14h47.47.298,vts_reward_expectancy_bt,2022.2.4,MacIntel,120.0048002,Chrome,1512,982,,,,,0,1087,,,,,,,,,,,,,,,,,S,181,circle,0,0,,,,,,,,,,,,,,,,repeat,number,NA,j,0.5397,Hi,,,,,,3,,,,,,,,low,23,0,23,0,1,,,,,,,,,
293188,2022-11-15_14h47.47.298,vts_reward_expectancy_bt,2022.2.4,MacIntel,120.0048002,Chrome,1512,982,,,,,0,1087,,,,,,,,,,,,,,,,,F,125,hexagon,1,1,,,,,,,,,,,,,,,,repeat,number,numRpt,j,0.5357,Hi,,,,,,3,,,,,,,,low,24,0,24,0,1,,,,,,,,,
293188,2022-11-15_14h47.47.298,vts_reward_expectancy_bt,2022.2.4,MacIntel,120.0048002,Chrome,1512,982,,,,,1,1088,,,,,,,,,,,,,,,,,D,146,circle,1,0,,,,,,,,,,,,,,,,repeat,number,numRpt,j,0.5705,Lo,,,,,,3,,,,,,,,low,25,0,25,0,1,,,,,,,,,
293188,2022-11-15_14h47.47.298,vts_reward_expectancy_bt,2022.2.4,MacIntel,120.0048002,Chrome,1512,982,,,,,1,1089,,,,,,,,,,,,,,,,,U,181,triangle,1,0,,,,,,,,,,,,,,,,repeat,number,numRpt,k,0.5119,Lo,,,,,,3,,,,,,,,low,26,0,26,0,1,,,,,,,,,
293188,2022-11-15_14h47.47.298,vts_reward_expectancy_bt,2022.2.4,MacIntel,120.0048002,Chrome,1512,982,,,,,0,1089,,,,,,,,,,,,,,,,,S,160,star,1,0,,,,,,,,,,,,,,,,repeat,number,numRpt,k,0.5449,Hi,,,,,,3,,,,,,,,low,27,0,27,0,1,,,,,,,,,
293188,2022-11-15_14h47.47.298,vts_reward_expectancy_bt,2022.2.4,MacIntel,120.0048002,Chrome,1512,982,,,,,1,1090,,,,,,,,,,,,,,,,,B,174,triangle,1,0,,,,,,,,,,,,,,,,repeat,number,numRpt,k,0.4398,Lo,,,,,,3,,,,,,,,low,28,0,28,0,1,,,,,,,,,
293188,2022-11-15_14h47.47.298,vts_reward_expectancy_bt,2022.2.4,MacIntel,120.0048002,Chrome,1512,982,,,,,0,1090,,,,,,,,,,,,,,,,,W,139,star,1,0,,,,,,,,,,,,,,,,repeat,number,numRpt,j,0.6218,Hi,,,,,,3,,,,,,,,low,29,0,29,0,1,,,,,,,,,
293188,2022-11-15_14h47.47.298,vts_reward_expectancy_bt,2022.2.4,MacIntel,120.0048002,Chrome,1512,982,,,,,10,1100,,,,,,,,,,,,,,,,,H,167,circle,1,0,,,,,,,,,,,,,,,,repeat,number,numRpt,k,0.4517,Lo,,,,,,3,,,,,,,,low,30,0,30,0,1,,,,,,,,,
293188,2022-11-15_14h47.47.298,vts_reward_expectancy_bt,2022.2.4,MacIntel,120.0048002,Chrome,1512,982,,,,,1,1101,,,,,,,,,,,,,,,,,Y,132,hexagon,1,0,,,,,,,,,,,,,,,,repeat,number,numRpt,j,0.3652,Hi,,,,,,3,,,,,,,,low,31,0,31,0,1,,,,,,,,,
293188,2022-11-15_14h47.47.298,vts_reward_expectancy_bt,2022.2.4,MacIntel,120.0048002,Chrome,1512,982,,,,,10,1111,,,,,,,,,,,,,,,,,U,174,circle,1,0,,,,,,,,,,,,,,,,repeat,number,numRpt,k,0.5841,Lo,,,,,,4,,,,,,space,1.7538,low,0,0,0,0,1,,,,,,,,,
293188,2022-11-15_14h47.47.298,vts_reward_expectancy_bt,2022.2.4,MacIntel,120.0048002,Chrome,1512,982,,,,,0,1111,,,,,,,,,,,,,,,,,H,146,star,1,0,,,,,,,,,,,,,,,,repeat,number,numRpt,j,0.5989,Hi,,,,,,4,,,,,,,,low,1,0,1,0,1,,,,,,,,,
293188,2022-11-15_14h47.47.298,vts_reward_expectancy_bt,2022.2.4,MacIntel,120.0048002,Chrome,1512,982,,,,,10,1121,,,,,,,,,,,,,,,,,W,181,triangle,1,0,,,,,,,,,,,,,,,,repeat,number,numRpt,k,0.5078,Lo,,,,,,4,,,,,,,,low,2,0,2,0,1,,,,,,,,,
293188,2022-11-15_14h47.47.298,vts_reward_expectancy_bt,2022.2.4,MacIntel,120.0048002,Chrome,1512,982,,,,,0,1121,,,,,,,,,,,,,,,,,Y,167,hexagon,1,0,,,,,,,,,,,,,,,,repeat,number,numRpt,k,0.4873,Hi,,,,,,4,,,,,,,,low,3,0,3,0,1,,,,,,,,,
293188,2022-11-15_14h47.47.298,vts_reward_expectancy_bt,2022.2.4,MacIntel,120.0048002,Chrome,1512,982,,,,,1,1122,,,,,,,,,,,,,,,,,B,132,circle,1,0,,,,,,,,,,,,,,,,repeat,number,numRpt,j,0.4709,Lo,,,,,,4,,,,,,,,low,4,0,4,0,1,,,,,,,,,
293188,2022-11-15_14h47.47.298,vts_reward_expectancy_bt,2022.2.4,MacIntel,120.0048002,Chrome,1512,982,,,,,0,1122,,,,,,,,,,,,,,,,,S,125,star,1,0,,,,,,,,,,,,,,,,repeat,number,numRpt,j,0.4945,Hi,,,,,,4,,,,,,,,low,5,0,5,0,1,,,,,,,,,
293188,2022-11-15_14h47.47.298,vts_reward_expectancy_bt,2022.2.4,MacIntel,120.0048002,Chrome,1512,982,,,,,1,1123,,,,,,,,,,,,,,,,,D,139,triangle,1,0,,,,,,,,,,,,,,,,repeat,number,numRpt,j,0.5068,Lo,,,,,,4,,,,,,,,low,6,0,6,0,1,,,,,,,,,
293188,2022-11-15_14h47.47.298,vts_reward_expectancy_bt,2022.2.4,MacIntel,120.0048002,Chrome,1512,982,,,,,0,1123,,,,,,,,,,,,,,,,,F,160,hexagon,1,0,,,,,,,,,,,,,,,,repeat,number,numRpt,k,0.4754,Hi,,,,,,4,,,,,,,,low,7,0,7,0,1,,,,,,,,,
293188,2022-11-15_14h47.47.298,vts_reward_expectancy_bt,2022.2.4,MacIntel,120.0048002,Chrome,1512,982,,,,,0,1123,,,,,,,,,,,,,,,,,U,174,hexagon,1,0,,,,,,,,,,,,,,,,repeat,number,numRpt,k,0.5587,Hi,,,,,,4,,,,,,,,low,8,0,8,0,1,,,,,,,,,
293188,2022-11-15_14h47.47.298,vts_reward_expectancy_bt,2022.2.4,MacIntel,120.0048002,Chrome,1512,982,,,,,0,1123,,,,,,,,,,,,,,,,,H,146,circle,0,0,,,,,,,,,,,,,,,,repeat,number,NA,k,0.4822,Hi,,,,,,4,,,,,,,,low,9,0,9,0,1,,,,,,,,,
293188,2022-11-15_14h47.47.298,vts_reward_expectancy_bt,2022.2.4,MacIntel,120.0048002,Chrome,1512,982,,,,,10,1133,,,,,,,,,,,,,,,,,W,181,star,1,1,,,,,,,,,,,,,,,,repeat,number,numRpt,k,0.4407,Hi,,,,,,4,,,,,,,,low,10,0,10,0,1,,,,,,,,,
293188,2022-11-15_14h47.47.298,vts_reward_expectancy_bt,2022.2.4,MacIntel,120.0048002,Chrome,1512,982,,,,,10,1143,,,,,,,,,,,,,,,,,Y,167,triangle,1,0,,,,,,,,,,,,,,,,repeat,number,numRpt,k,0.5782,Lo,,,,,,4,,,,,,,,low,11,0,11,0,1,,,,,,,,,
293188,2022-11-15_14h47.47.298,vts_reward_expectancy_bt,2022.2.4,MacIntel,120.0048002,Chrome,1512,982,,,,,1,1144,,,,,,,,,,,,,,,,,B,132,triangle,1,0,,,,,,,,,,,,,,,,repeat,number,numRpt,j,0.5939,Lo,,,,,,4,,,,,,,,low,12,0,12,0,1,,,,,,,,,
293188,2022-11-15_14h47.47.298,vts_reward_expectancy_bt,2022.2.4,MacIntel,120.0048002,Chrome,1512,982,,,,,0,1144,,,,,,,,,,,,,,,,,S,125,hexagon,1,0,,,,,,,,,,,,,,,,repeat,number,numRpt,j,0.5042,Hi,,,,,,4,,,,,,,,low,13,0,13,0,1,,,,,,,,,
293188,2022-11-15_14h47.47.298,vts_reward_expectancy_bt,2022.2.4,MacIntel,120.0048002,Chrome,1512,982,,,,,1,1145,,,,,,,,,,,,,,,,,D,139,circle,1,0,,,,,,,,,,,,,,,,repeat,number,numRpt,j,0.5808,Lo,,,,,,4,,,,,,,,low,14,0,14,0,1,,,,,,,,,
293188,2022-11-15_14h47.47.298,vts_reward_expectancy_bt,2022.2.4,MacIntel,120.0048002,Chrome,1512,982,,,,,0,1145,,,,,,,,,,,,,,,,,F,160,star,1,0,,,,,,,,,,,,,,,,repeat,number,numRpt,k,0.4803,Hi,,,,,,4,,,,,,,,low,15,0,15,0,1,,,,,,,,,
293188,2022-11-15_14h47.47.298,vts_reward_expectancy_bt,2022.2.4,MacIntel,120.0048002,Chrome,1512,982,,,,,10,1155,,,,,,,,,,,,,,,,,W,132,star,1,0,,,,,,,,,,,,,,,,repeat,number,numRpt,j,0.4127,Hi,,,,,,4,,,,,,,,low,16,0,16,0,1,,,,,,,,,
293188,2022-11-15_14h47.47.298,vts_reward_expectancy_bt,2022.2.4,MacIntel,120.0048002,Chrome,1512,982,,,,,10,1165,,,,,,,,,,,,,,,,,B,181,circle,1,0,,,,,,,,,,,,,,,,repeat,number,numRpt,k,0.5225,Lo,,,,,,4,,,,,,,,low,17,0,17,0,1,,,,,,,,,
293188,2022-11-15_14h47.47.298,vts_reward_expectancy_bt,2022.2.4,MacIntel,120.0048002,Chrome,1512,982,,,,,0,1165,,,,,,,,,,,,,,,,,D,160,hexagon,1,0,,,,,,,,,,,,,,,,repeat,number,numRpt,k,0.4558,Hi,,,,,,4,,,,,,,,low,18,0,18,0,1,,,,,,,,,
293188,2022-11-15_14h47.47.298,vts_reward_expectancy_bt,2022.2.4,MacIntel,120.0048002,Chrome,1512,982,,,,,1,1166,,,,,,,,,,,,,,,,,S,139,triangle,1,0,,,,,,,,,,,,,,,,repeat,number,numRpt,j,0.4542,Lo,,,,,,4,,,,,,,,low,19,0,19,0,1,,,,,,,,,
293188,2022-11-15_14h47.47.298,vts_reward_expectancy_bt,2022.2.4,MacIntel,120.0048002,Chrome,1512,982,,,,,0,1166,,,,,,,,,,,,,,,,,U,174,hexagon,1,0,,,,,,,,,,,,,,,,repeat,number,numRpt,k,0.5468,Hi,,,,,,4,,,,,,,,low,20,0,20,0,1,,,,,,,,,
293188,2022-11-15_14h47.47.298,vts_reward_expectancy_bt,2022.2.4,MacIntel,120.0048002,Chrome,1512,982,,,,,10,1176,,,,,,,,,,,,,,,,,H,125,triangle,1,0,,,,,,,,,,,,,,,,repeat,number,numRpt,j,0.4789,Lo,,,,,,4,,,,,,,,low,21,0,21,0,1,,,,,,,,,
293188,2022-11-15_14h47.47.298,vts_reward_expectancy_bt,2022.2.4,MacIntel,120.0048002,Chrome,1512,982,,,,,0,1176,,,,,,,,,,,,,,,,,Y,167,star,1,0,,,,,,,,,,,,,,,,repeat,number,numRpt,k,0.4566,Hi,,,,,,4,,,,,,,,low,22,0,22,0,1,,,,,,,,,
293188,2022-11-15_14h47.47.298,vts_reward_expectancy_bt,2022.2.4,MacIntel,120.0048002,Chrome,1512,982,,,,,1,1177,,,,,,,,,,,,,,,,,F,146,circle,1,0,,,,,,,,,,,,,,,,repeat,number,numRpt,j,0.4888,Lo,,,,,,4,,,,,,,,low,23,0,23,0,1,,,,,,,,,
293188,2022-11-15_14h47.47.298,vts_reward_expectancy_bt,2022.2.4,MacIntel,120.0048002,Chrome,1512,982,,,,,0,1177,,,,,,,,,,,,,,,,,D,181,star,1,0,,,,,,,,,,,,,,,,repeat,number,numRpt,k,0.465,Hi,,,,,,4,,,,,,,,low,24,0,24,0,1,,,,,,,,,
293188,2022-11-15_14h47.47.298,vts_reward_expectancy_bt,2022.2.4,MacIntel,120.0048002,Chrome,1512,982,,,,,1,1178,,,,,,,,,,,,,,,,,F,146,circle,1,0,,,,,,,,,,,,,,,,repeat,number,numRpt,j,0.5449,Lo,,,,,,4,,,,,,,,low,25,0,25,0,1,,,,,,,,,
293188,2022-11-15_14h47.47.298,vts_reward_expectancy_bt,2022.2.4,MacIntel,120.0048002,Chrome,1512,982,,,,,0,1178,,,,,,,,,,,,,,,,,H,125,hexagon,0,0,,,,,,,,,,,,,,,,repeat,number,NA,k,0.4765,Lo,,,,,,4,,,,,,,,low,26,0,26,0,1,,,,,,,,,
293188,2022-11-15_14h47.47.298,vts_reward_expectancy_bt,2022.2.4,MacIntel,120.0048002,Chrome,1512,982,,,,,1,1179,,,,,,,,,,,,,,,,,B,139,triangle,1,1,,,,,,,,,,,,,,,,repeat,number,numRpt,j,0.4918,Lo,,,,,,4,,,,,,,,low,27,0,27,0,1,,,,,,,,,
293188,2022-11-15_14h47.47.298,vts_reward_expectancy_bt,2022.2.4,MacIntel,120.0048002,Chrome,1512,982,,,,,10,1189,,,,,,,,,,,,,,,,,Y,132,triangle,1,0,,,,,,,,,,,,,,,,repeat,number,numRpt,j,0.6168,Lo,,,,,,4,,,,,,,,low,28,0,28,0,1,,,,,,,,,
293188,2022-11-15_14h47.47.298,vts_reward_expectancy_bt,2022.2.4,MacIntel,120.0048002,Chrome,1512,982,,,,,1,1190,,,,,,,,,,,,,,,,,U,174,circle,1,0,,,,,,,,,,,,,,,,repeat,number,numRpt,k,0.5347,Lo,,,,,,4,,,,,,,,low,29,0,29,0,1,,,,,,,,,
293188,2022-11-15_14h47.47.298,vts_reward_expectancy_bt,2022.2.4,MacIntel,120.0048002,Chrome,1512,982,,,,,0,1190,,,,,,,,,,,,,,,,,S,167,hexagon,1,0,,,,,,,,,,,,,,,,repeat,number,numRpt,k,0.6895,Hi,,,,,,4,,,,,,,,low,30,0,30,0,1,,,,,,,,,
293188,2022-11-15_14h47.47.298,vts_reward_expectancy_bt,2022.2.4,MacIntel,120.0048002,Chrome,1512,982,,,,,0,1190,,,,,,,,,,,,,,,,,W,160,star,1,0,,,,,,,,,,,,,,,,repeat,number,numRpt,k,0.6002,Hi,,,,,,4,,,,,,,,low,31,0,31,0,1,,,,,,,,,
293188,2022-11-15_14h47.47.298,vts_reward_expectancy_bt,2022.2.4,MacIntel,120.0048002,Chrome,1512,982,,,,,0,1190,,,,,,,,,,,,,,,,,S,174,hexagon,1,0,,,,,,,,,,,,,,,,repeat,number,numRpt,k,0.6952,Hi,,,,,,5,,,,,,space,4.6597,low,0,0,0,0,1,,,,,,,,,
293188,2022-11-15_14h47.47.298,vts_reward_expectancy_bt,2022.2.4,MacIntel,120.0048002,Chrome,1512,982,,,,,1,1191,,,,,,,,,,,,,,,,,D,167,triangle,1,0,,,,,,,,,,,,,,,,repeat,number,numRpt,k,0.4568,Lo,,,,,,5,,,,,,,,low,1,0,1,0,1,,,,,,,,,
293188,2022-11-15_14h47.47.298,vts_reward_expectancy_bt,2022.2.4,MacIntel,120.0048002,Chrome,1512,982,,,,,1,1192,,,,,,,,,,,,,,,,,W,125,circle,1,0,,,,,,,,,,,,,,,,repeat,number,numRpt,j,0.4072,Lo,,,,,,5,,,,,,,,low,2,0,2,0,1,,,,,,,,,
293188,2022-11-15_14h47.47.298,vts_reward_expectancy_bt,2022.2.4,MacIntel,120.0048002,Chrome,1512,982,,,,,10,1202,,,,,,,,,,,,,,,,,H,139,star,1,0,,,,,,,,,,,,,,,,repeat,number,numRpt,j,0.4058,Hi,,,,,,5,,,,,,,,low,3,0,3,0,1,,,,,,,,,
293188,2022-11-15_14h47.47.298,vts_reward_expectancy_bt,2022.2.4,MacIntel,120.0048002,Chrome,1512,982,,,,,0,1202,,,,,,,,,,,,,,,,,U,181,hexagon,0,0,,,,,,,,,,,,,,,,repeat,number,NA,j,0.4428,Hi,,,,,,5,,,,,,,,low,4,0,4,0,1,,,,,,,,,
293188,2022-11-15_14h47.47.298,vts_reward_expectancy_bt,2022.2.4,MacIntel,120.0048002,Chrome,1512,982,,,,,10,1212,,,,,,,,,,,,,,,,,Y,146,triangle,1,1,,,,,,,,,,,,,,,,repeat,number,numRpt,j,0.6538,Lo,,,,,,5,,,,,,,,low,5,0,5,0,1,,,,,,,,,
293188,2022-11-15_14h47.47.298,vts_reward_expectancy_bt,2022.2.4,MacIntel,120.0048002,Chrome,1512,982,,,,,10,1222,,,,,,,,,,,,,,,,,F,160,circle,1,0,,,,,,,,,,,,,,,,repeat,number,numRpt,k,0.5599,Lo,,,,,,5,,,,,,,,low,6,0,6,0,1,,,,,,,,,
293188,2022-11-15_14h47.47.298,vts_reward_expectancy_bt,2022.2.4,MacIntel,120.0048002,Chrome,1512,982,,,,,0,1222,,,,,,,,,,,,,,,,,B,132,star,1,0,,,,,,,,,,,,,,,,repeat,number,numRpt,j,0.587,Hi,,,,,,5,,,,,,,,low,7,0,7,0,1,,,,,,,,,
293188,2022-11-15_14h47.47.298,vts_reward_expectancy_bt,2022.2.4,MacIntel,120.0048002,Chrome,1512,982,,,,,0,1222,,,,,,,,,,,,,,,,,S,174,hexagon,1,0,,,,,,,,,,,,,,,,repeat,number,numRpt,k,0.4853,Hi,,,,,,5,,,,,,,,low,8,0,8,0,1,,,,,,,,,
293188,2022-11-15_14h47.47.298,vts_reward_expectancy_bt,2022.2.4,MacIntel,120.0048002,Chrome,1512,982,,,,,1,1223,,,,,,,,,,,,,,,,,D,167,triangle,1,0,,,,,,,,,,,,,,,,repeat,number,numRpt,k,0.6995,Lo,,,,,,5,,,,,,,,low,9,0,9,0,1,,,,,,,,,
293188,2022-11-15_14h47.47.298,vts_reward_expectancy_bt,2022.2.4,MacIntel,120.0048002,Chrome,1512,982,,,,,0,1223,,,,,,,,,,,,,,,,,W,125,star,1,0,,,,,,,,,,,,,,,,repeat,number,numRpt,j,0.5305,Hi,,,,,,5,,,,,,,,low,10,0,10,0,1,,,,,,,,,
293188,2022-11-15_14h47.47.298,vts_reward_expectancy_bt,2022.2.4,MacIntel,120.0048002,Chrome,1512,982,,,,,1,1224,,,,,,,,,,,,,,,,,H,139,circle,1,0,,,,,,,,,,,,,,,,repeat,number,numRpt,j,0.5485,Lo,,,,,,5,,,,,,,,low,11,0,11,0,1,,,,,,,,,
293188,2022-11-15_14h47.47.298,vts_reward_expectancy_bt,2022.2.4,MacIntel,120.0048002,Chrome,1512,982,,,,,0,1224,,,,,,,,,,,,,,,,,U,181,hexagon,1,0,,,,,,,,,,,,,,,,repeat,number,numRpt,k,0.4991,Hi,,,,,,5,,,,,,,,low,12,0,12,0,1,,,,,,,,,
293188,2022-11-15_14h47.47.298,vts_reward_expectancy_bt,2022.2.4,MacIntel,120.0048002,Chrome,1512,982,,,,,1,1225,,,,,,,,,,,,,,,,,Y,146,circle,1,0,,,,,,,,,,,,,,,,repeat,number,numRpt,j,0.4954,Lo,,,,,,5,,,,,,,,low,13,0,13,0,1,,,,,,,,,
293188,2022-11-15_14h47.47.298,vts_reward_expectancy_bt,2022.2.4,MacIntel,120.0048002,Chrome,1512,982,,,,,0,1225,,,,,,,,,,,,,,,,,F,160,star,1,0,,,,,,,,,,,,,,,,repeat,number,numRpt,k,0.6997,Hi,,,,,,5,,,,,,,,low,14,0,14,0,1,,,,,,,,,
293188,2022-11-15_14h47.47.298,vts_reward_expectancy_bt,2022.2.4,MacIntel,120.0048002,Chrome,1512,982,,,,,1,1226,,,,,,,,,,,,,,,,,B,132,triangle,1,0,,,,,,,,,,,,,,,,repeat,number,numRpt,j,0.4552,Lo,,,,,,5,,,,,,,,low,15,0,15,0,1,,,,,,,,,
293188,2022-11-15_14h47.47.298,vts_reward_expectancy_bt,2022.2.4,MacIntel,120.0048002,Chrome,1512,982,,,,,0,1226,,,,,,,,,,,,,,,,,H,146,hexagon,1,0,,,,,,,,,,,,,,,,repeat,number,numRpt,j,1.1587,Hi,,,,,,5,,,,,,,,low,16,0,16,0,1,,,,,,,,,
293188,2022-11-15_14h47.47.298,vts_reward_expectancy_bt,2022.2.4,MacIntel,120.0048002,Chrome,1512,982,,,,,1,1227,,,,,,,,,,,,,,,,,U,181,triangle,1,0,,,,,,,,,,,,,,,,repeat,number,numRpt,k,0.5319,Lo,,,,,,5,,,,,,,,low,17,0,17,0,1,,,,,,,,,
293188,2022-11-15_14h47.47.298,vts_reward_expectancy_bt,2022.2.4,MacIntel,120.0048002,Chrome,1512,982,,,,,0,1227,,,,,,,,,,,,,,,,,F,174,star,1,0,,,,,,,,,,,,,,,,repeat,number,numRpt,k,0.6915,Hi,,,,,,5,,,,,,,,low,18,0,18,0,1,,,,,,,,,
293188,2022-11-15_14h47.47.298,vts_reward_expectancy_bt,2022.2.4,MacIntel,120.0048002,Chrome,1512,982,,,,,1,1228,,,,,,,,,,,,,,,,,W,160,circle,1,0,,,,,,,,,,,,,,,,repeat,number,numRpt,k,0.4749,Lo,,,,,,5,,,,,,,,low,19,0,19,0,1,,,,,,,,,
293188,2022-11-15_14h47.47.298,vts_reward_expectancy_bt,2022.2.4,MacIntel,120.0048002,Chrome,1512,982,,,,,1,1229,,,,,,,,,,,,,,,,,B,167,circle,1,0,,,,,,,,,,,,,,,,repeat,number,numRpt,k,0.4826,Lo,,,,,,5,,,,,,,,low,20,0,20,0,1,,,,,,,,,
293188,2022-11-15_14h47.47.298,vts_reward_expectancy_bt,2022.2.4,MacIntel,120.0048002,Chrome,1512,982,,,,,10,1239,,,,,,,,,,,,,,,,,S,132,hexagon,1,0,,,,,,,,,,,,,,,,repeat,number,numRpt,j,0.4329,Hi,,,,,,5,,,,,,,,low,21,0,21,0,1,,,,,,,,,
293188,2022-11-15_14h47.47.298,vts_reward_expectancy_bt,2022.2.4,MacIntel,120.0048002,Chrome,1512,982,,,,,0,1239,,,,,,,,,,,,,,,,,D,125,star,1,0,,,,,,,,,,,,,,,,repeat,number,numRpt,j,0.5647,Hi,,,,,,5,,,,,,,,low,22,0,22,0,1,,,,,,,,,
293188,2022-11-15_14h47.47.298,vts_reward_expectancy_bt,2022.2.4,MacIntel,120.0048002,Chrome,1512,982,,,,,10,1249,,,,,,,,,,,,,,,,,Y,139,triangle,1,0,,,,,,,,,,,,,,,,repeat,number,numRpt,j,0.4866,Lo,,,,,,5,,,,,,,,low,23,0,23,0,1,,,,,,,,,
293188,2022-11-15_14h47.47.298,vts_reward_expectancy_bt,2022.2.4,MacIntel,120.0048002,Chrome,1512,982,,,,,0,1249,,,,,,,,,,,,,,,,,B,132,triangle,0,0,,,,,,,,,,,,,,,,repeat,number,NA,k,0.2455,Lo,,,,,,5,,,,,,,,low,24,0,24,0,1,,,,,,,,,
293188,2022-11-15_14h47.47.298,vts_reward_expectancy_bt,2022.2.4,MacIntel,120.0048002,Chrome,1512,982,,,,,10,1259,,,,,,,,,,,,,,,,,Y,167,circle,1,1,,,,,,,,,,,,,,,,repeat,number,numRpt,k,0.7654,Lo,,,,,,5,,,,,,,,low,25,0,25,0,1,,,,,,,,,
