participant,date,expName,psychopyVersion,OS,frameRate,browser,xResolution,yResolution,key_resp.keys,key_resp.rt,training_resp.keys,training_resp.rt,points_trial,points_cumul,trainBlock,training.thisRepN,training.thisTrialN,training.thisN,training.thisIndex,training.ran,LTriangleOpac,LCircleOpac,LHexagonOpac,LStarOpac,RTriangleOpac,RCircleOpac,RHexagonOpac,RStarOpac,LShape_ID,RShape_ID,curr_topStim,curr_bottStim,curr_shape,acc,E1,target_resp_prac1.keys,target_resp_prac1.rt,pracBlock,task1_prac_trials.thisRepN,task1_prac_trials.thisTrialN,task1_prac_trials.thisN,task1_prac_trials.thisIndex,task1_prac_trials.ran,target_resp_prac2.keys,target_resp_prac2.rt,task2_praac_trials.thisRepN,task2_praac_trials.thisTrialN,task2_praac_trials.thisN,task2_praac_trials.thisIndex,task2_praac_trials.ran,alt,task,condition,target_resp.keys,rewCond,vts_practice_trials.thisRepN,vts_practice_trials.thisTrialN,vts_practice_trials.thisN,vts_practice_trials.thisIndex,vts_practice_trials.ran,target_resp.rt,blockNum,trials_norew.thisRepN,trials_norew.thisTrialN,trials_norew.thisN,trials_norew.thisIndex,trials_norew.ran,key_resp_2.keys,key_resp_2.rt,rewExpectancy,trials_rew.thisRepN,trials_rew.thisTrialN,trials_rew.thisN,trials_rew.thisIndex,trials_rew.ran,Q1,Q2,Q2_text,Q3,Q4,Q5_text,Q5,xRes,yRes
293161,2022-12-05_22h48.46.861,vts_reward_expectancy_bt,2022.2.4,MacIntel,59.97361161,Chrome,1280,800,,,,,,,,,,,,,,,,,,,,,,,,,,,,,,,,,,,,,,,,,,,,,,,,,,,,,,,,,,,,,,,,,,,,,,,,,,,,
293161,2022-12-05_22h48.46.861,vts_reward_expectancy_bt,2022.2.4,MacIntel,59.97361161,Chrome,1280,800,space,49.6703,,,,,,,,,,,,,,,,,,,,,,,,,,,,,,,,,,,,,,,,,,,,,,,,,,,,,,,,,,,,,,,,,,,,,,,,,,
293161,2022-12-05_22h48.46.861,vts_reward_expectancy_bt,2022.2.4,MacIntel,59.97361161,Chrome,1280,800,,,,,,,,,,,,,,,,,,,,,,,,,,,,,,,,,,,,,,,,,,,,,,,,,,,,,,,,,,,,,,,,,,,,,,,,,,,,
293161,2022-12-05_22h48.46.861,vts_reward_expectancy_bt,2022.2.4,MacIntel,59.97361161,Chrome,1280,800,,,l,3.9146,10,10,0,0,0,0,1,1,1,0,0,0,0,0,1,0,triangle,hexagon,,,,,,,,,,,,,,,,,,,,,,,,,,,,,,,,,,,,,,,,,,,,,,,,,,,,,,
293161,2022-12-05_22h48.46.861,vts_reward_expectancy_bt,2022.2.4,MacIntel,59.97361161,Chrome,1280,800,,,l,1.699,1,11,0,0,1,1,4,1,0,1,0,0,0,0,1,0,circle,hexagon,,,,,,,,,,,,,,,,,,,,,,,,,,,,,,,,,,,,,,,,,,,,,,,,,,,,,,
293161,2022-12-05_22h48.46.861,vts_reward_expectancy_bt,2022.2.4,MacIntel,59.97361161,Chrome,1280,800,,,a,1.4454,10,21,0,0,2,2,11,1,0,0,0,1,0,0,1,0,star,hexagon,,,,,,,,,,,,,,,,,,,,,,,,,,,,,,,,,,,,,,,,,,,,,,,,,,,,,,
293161,2022-12-05_22h48.46.861,vts_reward_expectancy_bt,2022.2.4,MacIntel,59.97361161,Chrome,1280,800,,,a,1.8964,10,31,0,0,3,3,5,1,0,1,0,0,0,0,0,1,circle,star,,,,,,,,,,,,,,,,,,,,,,,,,,,,,,,,,,,,,,,,,,,,,,,,,,,,,,
293161,2022-12-05_22h48.46.861,vts_reward_expectancy_bt,2022.2.4,MacIntel,59.97361161,Chrome,1280,800,,,l,2.3759,10,41,0,0,4,4,8,1,0,0,1,0,0,0,0,1,hexagon,star,,,,,,,,,,,,,,,,,,,,,,,,,,,,,,,,,,,,,,,,,,,,,,,,,,,,,,
293161,2022-12-05_22h48.46.861,vts_reward_expectancy_bt,2022.2.4,MacIntel,59.97361161,Chrome,1280,800,,,l,1.6372,10,51,0,0,5,5,10,1,0,0,0,1,0,1,0,0,star ,circle,,,,,,,,,,,,,,,,,,,,,,,,,,,,,,,,,,,,,,,,,,,,,,,,,,,,,,
293161,2022-12-05_22h48.46.861,vts_reward_expectancy_bt,2022.2.4,MacIntel,59.97361161,Chrome,1280,800,,,a,1.3742,1,52,0,0,6,6,6,1,0,0,1,0,1,0,0,0,hexagon,triangle,,,,,,,,,,,,,,,,,,,,,,,,,,,,,,,,,,,,,,,,,,,,,,,,,,,,,,
293161,2022-12-05_22h48.46.861,vts_reward_expectancy_bt,2022.2.4,MacIntel,59.97361161,Chrome,1280,800,,,l,1.1829,10,62,0,0,7,7,0,1,1,0,0,0,0,1,0,0,triangle,circle,,,,,,,,,,,,,,,,,,,,,,,,,,,,,,,,,,,,,,,,,,,,,,,,,,,,,,
293161,2022-12-05_22h48.46.861,vts_reward_expectancy_bt,2022.2.4,MacIntel,59.97361161,Chrome,1280,800,,,l,1.5213,1,63,0,0,8,8,9,1,0,0,0,1,1,0,0,0,star,triangle,,,,,,,,,,,,,,,,,,,,,,,,,,,,,,,,,,,,,,,,,,,,,,,,,,,,,,
293161,2022-12-05_22h48.46.861,vts_reward_expectancy_bt,2022.2.4,MacIntel,59.97361161,Chrome,1280,800,,,l,1.215,10,73,0,0,9,9,7,1,0,0,1,0,0,1,0,0,hexagon,circle,,,,,,,,,,,,,,,,,,,,,,,,,,,,,,,,,,,,,,,,,,,,,,,,,,,,,,
293161,2022-12-05_22h48.46.861,vts_reward_expectancy_bt,2022.2.4,MacIntel,59.97361161,Chrome,1280,800,,,a,3.0974,1,74,0,0,10,10,3,1,0,1,0,0,1,0,0,0,circle,triangle,,,,,,,,,,,,,,,,,,,,,,,,,,,,,,,,,,,,,,,,,,,,,,,,,,,,,,
293161,2022-12-05_22h48.46.861,vts_reward_expectancy_bt,2022.2.4,MacIntel,59.97361161,Chrome,1280,800,,,a,1.5759,1,75,0,0,11,11,2,1,1,0,0,0,0,0,0,1,triangle,star,,,,,,,,,,,,,,,,,,,,,,,,,,,,,,,,,,,,,,,,,,,,,,,,,,,,,,
293161,2022-12-05_22h48.46.861,vts_reward_expectancy_bt,2022.2.4,MacIntel,59.97361161,Chrome,1280,800,,,l,1.1647,10,85,0,1,0,12,10,1,0,0,0,1,0,1,0,0,star ,circle,,,,,,,,,,,,,,,,,,,,,,,,,,,,,,,,,,,,,,,,,,,,,,,,,,,,,,
293161,2022-12-05_22h48.46.861,vts_reward_expectancy_bt,2022.2.4,MacIntel,59.97361161,Chrome,1280,800,,,l,3.1122,1,86,0,1,1,13,9,1,0,0,0,1,1,0,0,0,star,triangle,,,,,,,,,,,,,,,,,,,,,,,,,,,,,,,,,,,,,,,,,,,,,,,,,,,,,,
293161,2022-12-05_22h48.46.861,vts_reward_expectancy_bt,2022.2.4,MacIntel,59.97361161,Chrome,1280,800,,,a,1.0637,10,96,0,1,2,14,4,1,0,1,0,0,0,0,1,0,circle,hexagon,,,,,,,,,,,,,,,,,,,,,,,,,,,,,,,,,,,,,,,,,,,,,,,,,,,,,,
293161,2022-12-05_22h48.46.861,vts_reward_expectancy_bt,2022.2.4,MacIntel,59.97361161,Chrome,1280,800,,,l,1.5159,10,106,0,1,3,15,8,1,0,0,1,0,0,0,0,1,hexagon,star,,,,,,,,,,,,,,,,,,,,,,,,,,,,,,,,,,,,,,,,,,,,,,,,,,,,,,
293161,2022-12-05_22h48.46.861,vts_reward_expectancy_bt,2022.2.4,MacIntel,59.97361161,Chrome,1280,800,,,a,1.0819,10,116,0,1,4,16,3,1,0,1,0,0,1,0,0,0,circle,triangle,,,,,,,,,,,,,,,,,,,,,,,,,,,,,,,,,,,,,,,,,,,,,,,,,,,,,,
293161,2022-12-05_22h48.46.861,vts_reward_expectancy_bt,2022.2.4,MacIntel,59.97361161,Chrome,1280,800,,,l,2.0684,10,126,0,1,5,17,7,1,0,0,1,0,0,1,0,0,hexagon,circle,,,,,,,,,,,,,,,,,,,,,,,,,,,,,,,,,,,,,,,,,,,,,,,,,,,,,,
293161,2022-12-05_22h48.46.861,vts_reward_expectancy_bt,2022.2.4,MacIntel,59.97361161,Chrome,1280,800,,,a,1.0394,1,127,0,1,6,18,1,1,1,0,0,0,0,0,1,0,triangle,hexagon,,,,,,,,,,,,,,,,,,,,,,,,,,,,,,,,,,,,,,,,,,,,,,,,,,,,,,
293161,2022-12-05_22h48.46.861,vts_reward_expectancy_bt,2022.2.4,MacIntel,59.97361161,Chrome,1280,800,,,a,3.6502,10,137,0,1,7,19,11,1,0,0,0,1,0,0,1,0,star,hexagon,,,,,,,,,,,,,,,,,,,,,,,,,,,,,,,,,,,,,,,,,,,,,,,,,,,,,,
293161,2022-12-05_22h48.46.861,vts_reward_expectancy_bt,2022.2.4,MacIntel,59.97361161,Chrome,1280,800,,,l,1.0329,10,147,0,1,8,20,0,1,1,0,0,0,0,1,0,0,triangle,circle,,,,,,,,,,,,,,,,,,,,,,,,,,,,,,,,,,,,,,,,,,,,,,,,,,,,,,
293161,2022-12-05_22h48.46.861,vts_reward_expectancy_bt,2022.2.4,MacIntel,59.97361161,Chrome,1280,800,,,a,2.4272,1,148,0,1,9,21,5,1,0,1,0,0,0,0,0,1,circle,star,,,,,,,,,,,,,,,,,,,,,,,,,,,,,,,,,,,,,,,,,,,,,,,,,,,,,,
293161,2022-12-05_22h48.46.861,vts_reward_expectancy_bt,2022.2.4,MacIntel,59.97361161,Chrome,1280,800,,,l,0.7264,10,158,0,1,10,22,2,1,1,0,0,0,0,0,0,1,triangle,star,,,,,,,,,,,,,,,,,,,,,,,,,,,,,,,,,,,,,,,,,,,,,,,,,,,,,,
293161,2022-12-05_22h48.46.861,vts_reward_expectancy_bt,2022.2.4,MacIntel,59.97361161,Chrome,1280,800,,,l,1.3282,1,159,0,1,11,23,6,1,0,0,1,0,1,0,0,0,hexagon,triangle,,,,,,,,,,,,,,,,,,,,,,,,,,,,,,,,,,,,,,,,,,,,,,,,,,,,,,
293161,2022-12-05_22h48.46.861,vts_reward_expectancy_bt,2022.2.4,MacIntel,59.97361161,Chrome,1280,800,,,l,1.3304,10,169,0,2,0,24,0,1,1,0,0,0,0,1,0,0,triangle,circle,,,,,,,,,,,,,,,,,,,,,,,,,,,,,,,,,,,,,,,,,,,,,,,,,,,,,,
293161,2022-12-05_22h48.46.861,vts_reward_expectancy_bt,2022.2.4,MacIntel,59.97361161,Chrome,1280,800,,,l,3.5632,1,170,0,2,1,25,11,1,0,0,0,1,0,0,1,0,star,hexagon,,,,,,,,,,,,,,,,,,,,,,,,,,,,,,,,,,,,,,,,,,,,,,,,,,,,,,
293161,2022-12-05_22h48.46.861,vts_reward_expectancy_bt,2022.2.4,MacIntel,59.97361161,Chrome,1280,800,,,a,0.9426,10,180,0,2,2,26,9,1,0,0,0,1,1,0,0,0,star,triangle,,,,,,,,,,,,,,,,,,,,,,,,,,,,,,,,,,,,,,,,,,,,,,,,,,,,,,
293161,2022-12-05_22h48.46.861,vts_reward_expectancy_bt,2022.2.4,MacIntel,59.97361161,Chrome,1280,800,,,a,1.1176,10,190,0,2,3,27,5,1,0,1,0,0,0,0,0,1,circle,star,,,,,,,,,,,,,,,,,,,,,,,,,,,,,,,,,,,,,,,,,,,,,,,,,,,,,,
293161,2022-12-05_22h48.46.861,vts_reward_expectancy_bt,2022.2.4,MacIntel,59.97361161,Chrome,1280,800,,,l,2.668,1,191,0,2,4,28,10,1,0,0,0,1,0,1,0,0,star ,circle,,,,,,,,,,,,,,,,,,,,,,,,,,,,,,,,,,,,,,,,,,,,,,,,,,,,,,
293161,2022-12-05_22h48.46.861,vts_reward_expectancy_bt,2022.2.4,MacIntel,59.97361161,Chrome,1280,800,,,a,1.1599,10,201,0,2,5,29,3,1,0,1,0,0,1,0,0,0,circle,triangle,,,,,,,,,,,,,,,,,,,,,,,,,,,,,,,,,,,,,,,,,,,,,,,,,,,,,,
293161,2022-12-05_22h48.46.861,vts_reward_expectancy_bt,2022.2.4,MacIntel,59.97361161,Chrome,1280,800,,,a,3.9451,1,202,0,2,6,30,1,1,1,0,0,0,0,0,1,0,triangle,hexagon,,,,,,,,,,,,,,,,,,,,,,,,,,,,,,,,,,,,,,,,,,,,,,,,,,,,,,
293161,2022-12-05_22h48.46.861,vts_reward_expectancy_bt,2022.2.4,MacIntel,59.97361161,Chrome,1280,800,,,a,1.0808,10,212,0,2,7,31,4,1,0,1,0,0,0,0,1,0,circle,hexagon,,,,,,,,,,,,,,,,,,,,,,,,,,,,,,,,,,,,,,,,,,,,,,,,,,,,,,
293161,2022-12-05_22h48.46.861,vts_reward_expectancy_bt,2022.2.4,MacIntel,59.97361161,Chrome,1280,800,,,a,1.2789,1,213,0,2,8,32,6,1,0,0,1,0,1,0,0,0,hexagon,triangle,,,,,,,,,,,,,,,,,,,,,,,,,,,,,,,,,,,,,,,,,,,,,,,,,,,,,,
293161,2022-12-05_22h48.46.861,vts_reward_expectancy_bt,2022.2.4,MacIntel,59.97361161,Chrome,1280,800,,,l,1.3253,10,223,0,2,9,33,8,1,0,0,1,0,0,0,0,1,hexagon,star,,,,,,,,,,,,,,,,,,,,,,,,,,,,,,,,,,,,,,,,,,,,,,,,,,,,,,
293161,2022-12-05_22h48.46.861,vts_reward_expectancy_bt,2022.2.4,MacIntel,59.97361161,Chrome,1280,800,,,l,1.3582,10,233,0,2,10,34,7,1,0,0,1,0,0,1,0,0,hexagon,circle,,,,,,,,,,,,,,,,,,,,,,,,,,,,,,,,,,,,,,,,,,,,,,,,,,,,,,
293161,2022-12-05_22h48.46.861,vts_reward_expectancy_bt,2022.2.4,MacIntel,59.97361161,Chrome,1280,800,,,a,2.3293,1,234,0,2,11,35,2,1,1,0,0,0,0,0,0,1,triangle,star,,,,,,,,,,,,,,,,,,,,,,,,,,,,,,,,,,,,,,,,,,,,,,,,,,,,,,
293161,2022-12-05_22h48.46.861,vts_reward_expectancy_bt,2022.2.4,MacIntel,59.97361161,Chrome,1280,800,,,l,1.3724,10,244,1,0,0,0,10,1,0,0,0,1,0,1,0,0,star ,circle,,,,,,,,,,,,,,,,,,,,,,,,,,,,,,,,,,,,,,,,,,,,,,,,,,,,,,
293161,2022-12-05_22h48.46.861,vts_reward_expectancy_bt,2022.2.4,MacIntel,59.97361161,Chrome,1280,800,,,l,1.9741,10,254,1,0,1,1,0,1,1,0,0,0,0,1,0,0,triangle,circle,,,,,,,,,,,,,,,,,,,,,,,,,,,,,,,,,,,,,,,,,,,,,,,,,,,,,,
293161,2022-12-05_22h48.46.861,vts_reward_expectancy_bt,2022.2.4,MacIntel,59.97361161,Chrome,1280,800,,,l,4.0946,10,264,1,0,2,2,8,1,0,0,1,0,0,0,0,1,hexagon,star,,,,,,,,,,,,,,,,,,,,,,,,,,,,,,,,,,,,,,,,,,,,,,,,,,,,,,
293161,2022-12-05_22h48.46.861,vts_reward_expectancy_bt,2022.2.4,MacIntel,59.97361161,Chrome,1280,800,,,a,2.2056,1,265,1,0,3,3,11,1,0,0,0,1,0,0,1,0,star,hexagon,,,,,,,,,,,,,,,,,,,,,,,,,,,,,,,,,,,,,,,,,,,,,,,,,,,,,,
293161,2022-12-05_22h48.46.861,vts_reward_expectancy_bt,2022.2.4,MacIntel,59.97361161,Chrome,1280,800,,,l,1.1162,10,275,1,0,4,4,7,1,0,0,1,0,0,1,0,0,hexagon,circle,,,,,,,,,,,,,,,,,,,,,,,,,,,,,,,,,,,,,,,,,,,,,,,,,,,,,,
293161,2022-12-05_22h48.46.861,vts_reward_expectancy_bt,2022.2.4,MacIntel,59.97361161,Chrome,1280,800,,,a,1.8862,10,285,1,0,5,5,3,1,0,1,0,0,1,0,0,0,circle,triangle,,,,,,,,,,,,,,,,,,,,,,,,,,,,,,,,,,,,,,,,,,,,,,,,,,,,,,
293161,2022-12-05_22h48.46.861,vts_reward_expectancy_bt,2022.2.4,MacIntel,59.97361161,Chrome,1280,800,,,a,3.3295,10,295,1,0,6,6,9,1,0,0,0,1,1,0,0,0,star,triangle,,,,,,,,,,,,,,,,,,,,,,,,,,,,,,,,,,,,,,,,,,,,,,,,,,,,,,
293161,2022-12-05_22h48.46.861,vts_reward_expectancy_bt,2022.2.4,MacIntel,59.97361161,Chrome,1280,800,,,a,1.6141,10,305,1,0,7,7,4,1,0,1,0,0,0,0,1,0,circle,hexagon,,,,,,,,,,,,,,,,,,,,,,,,,,,,,,,,,,,,,,,,,,,,,,,,,,,,,,
293161,2022-12-05_22h48.46.861,vts_reward_expectancy_bt,2022.2.4,MacIntel,59.97361161,Chrome,1280,800,,,l,3.3,1,306,1,0,8,8,6,1,0,0,1,0,1,0,0,0,hexagon,triangle,,,,,,,,,,,,,,,,,,,,,,,,,,,,,,,,,,,,,,,,,,,,,,,,,,,,,,
293161,2022-12-05_22h48.46.861,vts_reward_expectancy_bt,2022.2.4,MacIntel,59.97361161,Chrome,1280,800,,,a,3.2296,10,316,1,0,9,9,2,1,1,0,0,0,0,0,0,1,triangle,star,,,,,,,,,,,,,,,,,,,,,,,,,,,,,,,,,,,,,,,,,,,,,,,,,,,,,,
293161,2022-12-05_22h48.46.861,vts_reward_expectancy_bt,2022.2.4,MacIntel,59.97361161,Chrome,1280,800,,,l,1.582,1,317,1,0,10,10,1,1,1,0,0,0,0,0,1,0,triangle,hexagon,,,,,,,,,,,,,,,,,,,,,,,,,,,,,,,,,,,,,,,,,,,,,,,,,,,,,,
293161,2022-12-05_22h48.46.861,vts_reward_expectancy_bt,2022.2.4,MacIntel,59.97361161,Chrome,1280,800,,,a,1.1595,1,318,1,0,11,11,5,1,0,1,0,0,0,0,0,1,circle,star,,,,,,,,,,,,,,,,,,,,,,,,,,,,,,,,,,,,,,,,,,,,,,,,,,,,,,
293161,2022-12-05_22h48.46.861,vts_reward_expectancy_bt,2022.2.4,MacIntel,59.97361161,Chrome,1280,800,,,l,1.3731,1,319,1,1,0,12,8,1,0,0,1,0,0,0,0,1,hexagon,star,,,,,,,,,,,,,,,,,,,,,,,,,,,,,,,,,,,,,,,,,,,,,,,,,,,,,,
293161,2022-12-05_22h48.46.861,vts_reward_expectancy_bt,2022.2.4,MacIntel,59.97361161,Chrome,1280,800,,,a,1.6788,1,320,1,1,1,13,6,1,0,0,1,0,1,0,0,0,hexagon,triangle,,,,,,,,,,,,,,,,,,,,,,,,,,,,,,,,,,,,,,,,,,,,,,,,,,,,,,
293161,2022-12-05_22h48.46.861,vts_reward_expectancy_bt,2022.2.4,MacIntel,59.97361161,Chrome,1280,800,,,l,2.1275,10,330,1,1,2,14,0,1,1,0,0,0,0,1,0,0,triangle,circle,,,,,,,,,,,,,,,,,,,,,,,,,,,,,,,,,,,,,,,,,,,,,,,,,,,,,,
293161,2022-12-05_22h48.46.861,vts_reward_expectancy_bt,2022.2.4,MacIntel,59.97361161,Chrome,1280,800,,,a,1.0482,10,340,1,1,3,15,10,1,0,0,0,1,0,1,0,0,star ,circle,,,,,,,,,,,,,,,,,,,,,,,,,,,,,,,,,,,,,,,,,,,,,,,,,,,,,,
293161,2022-12-05_22h48.46.861,vts_reward_expectancy_bt,2022.2.4,MacIntel,59.97361161,Chrome,1280,800,,,a,1.5577,10,350,1,1,4,16,11,1,0,0,0,1,0,0,1,0,star,hexagon,,,,,,,,,,,,,,,,,,,,,,,,,,,,,,,,,,,,,,,,,,,,,,,,,,,,,,
293161,2022-12-05_22h48.46.861,vts_reward_expectancy_bt,2022.2.4,MacIntel,59.97361161,Chrome,1280,800,,,l,1.2622,10,360,1,1,5,17,7,1,0,0,1,0,0,1,0,0,hexagon,circle,,,,,,,,,,,,,,,,,,,,,,,,,,,,,,,,,,,,,,,,,,,,,,,,,,,,,,
293161,2022-12-05_22h48.46.861,vts_reward_expectancy_bt,2022.2.4,MacIntel,59.97361161,Chrome,1280,800,,,l,3.015,10,370,1,1,6,18,5,1,0,1,0,0,0,0,0,1,circle,star,,,,,,,,,,,,,,,,,,,,,,,,,,,,,,,,,,,,,,,,,,,,,,,,,,,,,,
293161,2022-12-05_22h48.46.861,vts_reward_expectancy_bt,2022.2.4,MacIntel,59.97361161,Chrome,1280,800,,,l,2.2914,1,371,1,1,7,19,1,1,1,0,0,0,0,0,1,0,triangle,hexagon,,,,,,,,,,,,,,,,,,,,,,,,,,,,,,,,,,,,,,,,,,,,,,,,,,,,,,
293161,2022-12-05_22h48.46.861,vts_reward_expectancy_bt,2022.2.4,MacIntel,59.97361161,Chrome,1280,800,,,a,1.1925,10,381,1,1,8,20,9,1,0,0,0,1,1,0,0,0,star,triangle,,,,,,,,,,,,,,,,,,,,,,,,,,,,,,,,,,,,,,,,,,,,,,,,,,,,,,
293161,2022-12-05_22h48.46.861,vts_reward_expectancy_bt,2022.2.4,MacIntel,59.97361161,Chrome,1280,800,,,a,1.0168,1,382,1,1,9,21,4,1,0,1,0,0,0,0,1,0,circle,hexagon,,,,,,,,,,,,,,,,,,,,,,,,,,,,,,,,,,,,,,,,,,,,,,,,,,,,,,
293161,2022-12-05_22h48.46.861,vts_reward_expectancy_bt,2022.2.4,MacIntel,59.97361161,Chrome,1280,800,,,a,0.8242,10,392,1,1,10,22,3,1,0,1,0,0,1,0,0,0,circle,triangle,,,,,,,,,,,,,,,,,,,,,,,,,,,,,,,,,,,,,,,,,,,,,,,,,,,,,,
293161,2022-12-05_22h48.46.861,vts_reward_expectancy_bt,2022.2.4,MacIntel,59.97361161,Chrome,1280,800,,,l,0.9689,10,402,1,1,11,23,2,1,1,0,0,0,0,0,0,1,triangle,star,,,,,,,,,,,,,,,,,,,,,,,,,,,,,,,,,,,,,,,,,,,,,,,,,,,,,,
293161,2022-12-05_22h48.46.861,vts_reward_expectancy_bt,2022.2.4,MacIntel,59.97361161,Chrome,1280,800,,,a,1.6761,10,412,1,2,0,24,9,1,0,0,0,1,1,0,0,0,star,triangle,,,,,,,,,,,,,,,,,,,,,,,,,,,,,,,,,,,,,,,,,,,,,,,,,,,,,,
293161,2022-12-05_22h48.46.861,vts_reward_expectancy_bt,2022.2.4,MacIntel,59.97361161,Chrome,1280,800,,,l,1.2209,10,422,1,2,1,25,4,1,0,1,0,0,0,0,1,0,circle,hexagon,,,,,,,,,,,,,,,,,,,,,,,,,,,,,,,,,,,,,,,,,,,,,,,,,,,,,,
293161,2022-12-05_22h48.46.861,vts_reward_expectancy_bt,2022.2.4,MacIntel,59.97361161,Chrome,1280,800,,,a,1.8884,10,432,1,2,2,26,6,1,0,0,1,0,1,0,0,0,hexagon,triangle,,,,,,,,,,,,,,,,,,,,,,,,,,,,,,,,,,,,,,,,,,,,,,,,,,,,,,
293161,2022-12-05_22h48.46.861,vts_reward_expectancy_bt,2022.2.4,MacIntel,59.97361161,Chrome,1280,800,,,a,1.8653,1,433,1,2,3,27,5,1,0,1,0,0,0,0,0,1,circle,star,,,,,,,,,,,,,,,,,,,,,,,,,,,,,,,,,,,,,,,,,,,,,,,,,,,,,,
293161,2022-12-05_22h48.46.861,vts_reward_expectancy_bt,2022.2.4,MacIntel,59.97361161,Chrome,1280,800,,,a,0.8053,1,434,1,2,4,28,3,1,0,1,0,0,1,0,0,0,circle,triangle,,,,,,,,,,,,,,,,,,,,,,,,,,,,,,,,,,,,,,,,,,,,,,,,,,,,,,
293161,2022-12-05_22h48.46.861,vts_reward_expectancy_bt,2022.2.4,MacIntel,59.97361161,Chrome,1280,800,,,l,1.1687,10,444,1,2,5,29,0,1,1,0,0,0,0,1,0,0,triangle,circle,,,,,,,,,,,,,,,,,,,,,,,,,,,,,,,,,,,,,,,,,,,,,,,,,,,,,,
293161,2022-12-05_22h48.46.861,vts_reward_expectancy_bt,2022.2.4,MacIntel,59.97361161,Chrome,1280,800,,,l,1.1055,10,454,1,2,6,30,2,1,1,0,0,0,0,0,0,1,triangle,star,,,,,,,,,,,,,,,,,,,,,,,,,,,,,,,,,,,,,,,,,,,,,,,,,,,,,,
293161,2022-12-05_22h48.46.861,vts_reward_expectancy_bt,2022.2.4,MacIntel,59.97361161,Chrome,1280,800,,,a,1.672,10,464,1,2,7,31,10,1,0,0,0,1,0,1,0,0,star ,circle,,,,,,,,,,,,,,,,,,,,,,,,,,,,,,,,,,,,,,,,,,,,,,,,,,,,,,
293161,2022-12-05_22h48.46.861,vts_reward_expectancy_bt,2022.2.4,MacIntel,59.97361161,Chrome,1280,800,,,a,1.0402,10,474,1,2,8,32,11,1,0,0,0,1,0,0,1,0,star,hexagon,,,,,,,,,,,,,,,,,,,,,,,,,,,,,,,,,,,,,,,,,,,,,,,,,,,,,,
293161,2022-12-05_22h48.46.861,vts_reward_expectancy_bt,2022.2.4,MacIntel,59.97361161,Chrome,1280,800,,,l,0.9703,1,475,1,2,9,33,7,1,0,0,1,0,0,1,0,0,hexagon,circle,,,,,,,,,,,,,,,,,,,,,,,,,,,,,,,,,,,,,,,,,,,,,,,,,,,,,,
293161,2022-12-05_22h48.46.861,vts_reward_expectancy_bt,2022.2.4,MacIntel,59.97361161,Chrome,1280,800,,,l,1.1145,1,476,1,2,10,34,1,1,1,0,0,0,0,0,1,0,triangle,hexagon,,,,,,,,,,,,,,,,,,,,,,,,,,,,,,,,,,,,,,,,,,,,,,,,,,,,,,
293161,2022-12-05_22h48.46.861,vts_reward_expectancy_bt,2022.2.4,MacIntel,59.97361161,Chrome,1280,800,,,l,1.8289,10,486,1,2,11,35,8,1,0,0,1,0,0,0,0,1,hexagon,star,,,,,,,,,,,,,,,,,,,,,,,,,,,,,,,,,,,,,,,,,,,,,,,,,,,,,,
293161,2022-12-05_22h48.46.861,vts_reward_expectancy_bt,2022.2.4,MacIntel,59.97361161,Chrome,1280,800,,,a,1.6443,10,496,2,0,0,0,9,1,0,0,0,1,1,0,0,0,star,triangle,,,,,,,,,,,,,,,,,,,,,,,,,,,,,,,,,,,,,,,,,,,,,,,,,,,,,,
293161,2022-12-05_22h48.46.861,vts_reward_expectancy_bt,2022.2.4,MacIntel,59.97361161,Chrome,1280,800,,,l,1.6086,1,497,2,0,1,1,4,1,0,1,0,0,0,0,1,0,circle,hexagon,,,,,,,,,,,,,,,,,,,,,,,,,,,,,,,,,,,,,,,,,,,,,,,,,,,,,,
293161,2022-12-05_22h48.46.861,vts_reward_expectancy_bt,2022.2.4,MacIntel,59.97361161,Chrome,1280,800,,,l,1.1478,10,507,2,0,2,2,0,1,1,0,0,0,0,1,0,0,triangle,circle,,,,,,,,,,,,,,,,,,,,,,,,,,,,,,,,,,,,,,,,,,,,,,,,,,,,,,
293161,2022-12-05_22h48.46.861,vts_reward_expectancy_bt,2022.2.4,MacIntel,59.97361161,Chrome,1280,800,,,a,0.9688,10,517,2,0,3,3,11,1,0,0,0,1,0,0,1,0,star,hexagon,,,,,,,,,,,,,,,,,,,,,,,,,,,,,,,,,,,,,,,,,,,,,,,,,,,,,,
293161,2022-12-05_22h48.46.861,vts_reward_expectancy_bt,2022.2.4,MacIntel,59.97361161,Chrome,1280,800,,,l,1.3451,10,527,2,0,4,4,8,1,0,0,1,0,0,0,0,1,hexagon,star,,,,,,,,,,,,,,,,,,,,,,,,,,,,,,,,,,,,,,,,,,,,,,,,,,,,,,
293161,2022-12-05_22h48.46.861,vts_reward_expectancy_bt,2022.2.4,MacIntel,59.97361161,Chrome,1280,800,,,a,3.299,10,537,2,0,5,5,3,1,0,1,0,0,1,0,0,0,circle,triangle,,,,,,,,,,,,,,,,,,,,,,,,,,,,,,,,,,,,,,,,,,,,,,,,,,,,,,
293161,2022-12-05_22h48.46.861,vts_reward_expectancy_bt,2022.2.4,MacIntel,59.97361161,Chrome,1280,800,,,a,1.6058,1,538,2,0,6,6,7,1,0,0,1,0,0,1,0,0,hexagon,circle,,,,,,,,,,,,,,,,,,,,,,,,,,,,,,,,,,,,,,,,,,,,,,,,,,,,,,
293161,2022-12-05_22h48.46.861,vts_reward_expectancy_bt,2022.2.4,MacIntel,59.97361161,Chrome,1280,800,,,l,1.3427,1,539,2,0,7,7,6,1,0,0,1,0,1,0,0,0,hexagon,triangle,,,,,,,,,,,,,,,,,,,,,,,,,,,,,,,,,,,,,,,,,,,,,,,,,,,,,,
293161,2022-12-05_22h48.46.861,vts_reward_expectancy_bt,2022.2.4,MacIntel,59.97361161,Chrome,1280,800,,,l,1.6019,10,549,2,0,8,8,5,1,0,1,0,0,0,0,0,1,circle,star,,,,,,,,,,,,,,,,,,,,,,,,,,,,,,,,,,,,,,,,,,,,,,,,,,,,,,
293161,2022-12-05_22h48.46.861,vts_reward_expectancy_bt,2022.2.4,MacIntel,59.97361161,Chrome,1280,800,,,a,2.0762,10,559,2,0,9,9,10,1,0,0,0,1,0,1,0,0,star ,circle,,,,,,,,,,,,,,,,,,,,,,,,,,,,,,,,,,,,,,,,,,,,,,,,,,,,,,
293161,2022-12-05_22h48.46.861,vts_reward_expectancy_bt,2022.2.4,MacIntel,59.97361161,Chrome,1280,800,,,l,1.0475,10,569,2,0,10,10,2,1,1,0,0,0,0,0,0,1,triangle,star,,,,,,,,,,,,,,,,,,,,,,,,,,,,,,,,,,,,,,,,,,,,,,,,,,,,,,
293161,2022-12-05_22h48.46.861,vts_reward_expectancy_bt,2022.2.4,MacIntel,59.97361161,Chrome,1280,800,,,l,1.5284,1,570,2,0,11,11,1,1,1,0,0,0,0,0,1,0,triangle,hexagon,,,,,,,,,,,,,,,,,,,,,,,,,,,,,,,,,,,,,,,,,,,,,,,,,,,,,,
293161,2022-12-05_22h48.46.861,vts_reward_expectancy_bt,2022.2.4,MacIntel,59.97361161,Chrome,1280,800,,,l,0.9648,10,580,2,1,0,12,8,1,0,0,1,0,0,0,0,1,hexagon,star,,,,,,,,,,,,,,,,,,,,,,,,,,,,,,,,,,,,,,,,,,,,,,,,,,,,,,
293161,2022-12-05_22h48.46.861,vts_reward_expectancy_bt,2022.2.4,MacIntel,59.97361161,Chrome,1280,800,,,l,1.7676,1,581,2,1,1,13,6,1,0,0,1,0,1,0,0,0,hexagon,triangle,,,,,,,,,,,,,,,,,,,,,,,,,,,,,,,,,,,,,,,,,,,,,,,,,,,,,,
293161,2022-12-05_22h48.46.861,vts_reward_expectancy_bt,2022.2.4,MacIntel,59.97361161,Chrome,1280,800,,,l,0.9547,1,582,2,1,2,14,0,1,1,0,0,0,0,1,0,0,triangle,circle,,,,,,,,,,,,,,,,,,,,,,,,,,,,,,,,,,,,,,,,,,,,,,,,,,,,,,
293161,2022-12-05_22h48.46.861,vts_reward_expectancy_bt,2022.2.4,MacIntel,59.97361161,Chrome,1280,800,,,a,6.7232,1,583,2,1,3,15,4,1,0,1,0,0,0,0,1,0,circle,hexagon,,,,,,,,,,,,,,,,,,,,,,,,,,,,,,,,,,,,,,,,,,,,,,,,,,,,,,
293161,2022-12-05_22h48.46.861,vts_reward_expectancy_bt,2022.2.4,MacIntel,59.97361161,Chrome,1280,800,,,a,1.9569,10,593,2,1,4,16,11,1,0,0,0,1,0,0,1,0,star,hexagon,,,,,,,,,,,,,,,,,,,,,,,,,,,,,,,,,,,,,,,,,,,,,,,,,,,,,,
293161,2022-12-05_22h48.46.861,vts_reward_expectancy_bt,2022.2.4,MacIntel,59.97361161,Chrome,1280,800,,,a,1.3928,10,603,2,1,5,17,3,1,0,1,0,0,1,0,0,0,circle,triangle,,,,,,,,,,,,,,,,,,,,,,,,,,,,,,,,,,,,,,,,,,,,,,,,,,,,,,
293161,2022-12-05_22h48.46.861,vts_reward_expectancy_bt,2022.2.4,MacIntel,59.97361161,Chrome,1280,800,,,l,1.8078,10,613,2,1,6,18,7,1,0,0,1,0,0,1,0,0,hexagon,circle,,,,,,,,,,,,,,,,,,,,,,,,,,,,,,,,,,,,,,,,,,,,,,,,,,,,,,
293161,2022-12-05_22h48.46.861,vts_reward_expectancy_bt,2022.2.4,MacIntel,59.97361161,Chrome,1280,800,,,a,0.8782,10,623,2,1,7,19,9,1,0,0,0,1,1,0,0,0,star,triangle,,,,,,,,,,,,,,,,,,,,,,,,,,,,,,,,,,,,,,,,,,,,,,,,,,,,,,
293161,2022-12-05_22h48.46.861,vts_reward_expectancy_bt,2022.2.4,MacIntel,59.97361161,Chrome,1280,800,,,l,2.1353,1,624,2,1,8,20,5,1,0,1,0,0,0,0,0,1,circle,star,,,,,,,,,,,,,,,,,,,,,,,,,,,,,,,,,,,,,,,,,,,,,,,,,,,,,,
293161,2022-12-05_22h48.46.861,vts_reward_expectancy_bt,2022.2.4,MacIntel,59.97361161,Chrome,1280,800,,,l,0.9954,1,625,2,1,9,21,2,1,1,0,0,0,0,0,0,1,triangle,star,,,,,,,,,,,,,,,,,,,,,,,,,,,,,,,,,,,,,,,,,,,,,,,,,,,,,,
293161,2022-12-05_22h48.46.861,vts_reward_expectancy_bt,2022.2.4,MacIntel,59.97361161,Chrome,1280,800,,,a,0.6595,1,626,2,1,10,22,1,1,1,0,0,0,0,0,1,0,triangle,hexagon,,,,,,,,,,,,,,,,,,,,,,,,,,,,,,,,,,,,,,,,,,,,,,,,,,,,,,
293161,2022-12-05_22h48.46.861,vts_reward_expectancy_bt,2022.2.4,MacIntel,59.97361161,Chrome,1280,800,,,a,0.8859,1,627,2,1,11,23,10,1,0,0,0,1,0,1,0,0,star ,circle,,,,,,,,,,,,,,,,,,,,,,,,,,,,,,,,,,,,,,,,,,,,,,,,,,,,,,
293161,2022-12-05_22h48.46.861,vts_reward_expectancy_bt,2022.2.4,MacIntel,59.97361161,Chrome,1280,800,,,a,1.337,1,628,2,2,0,24,3,1,0,1,0,0,1,0,0,0,circle,triangle,,,,,,,,,,,,,,,,,,,,,,,,,,,,,,,,,,,,,,,,,,,,,,,,,,,,,,
293161,2022-12-05_22h48.46.861,vts_reward_expectancy_bt,2022.2.4,MacIntel,59.97361161,Chrome,1280,800,,,l,0.6094,10,638,2,2,1,25,2,1,1,0,0,0,0,0,0,1,triangle,star,,,,,,,,,,,,,,,,,,,,,,,,,,,,,,,,,,,,,,,,,,,,,,,,,,,,,,
293161,2022-12-05_22h48.46.861,vts_reward_expectancy_bt,2022.2.4,MacIntel,59.97361161,Chrome,1280,800,,,l,11.6686,10,648,2,2,2,26,0,1,1,0,0,0,0,1,0,0,triangle,circle,,,,,,,,,,,,,,,,,,,,,,,,,,,,,,,,,,,,,,,,,,,,,,,,,,,,,,
293161,2022-12-05_22h48.46.861,vts_reward_expectancy_bt,2022.2.4,MacIntel,59.97361161,Chrome,1280,800,,,a,1.7725,1,649,2,2,3,27,1,1,1,0,0,0,0,0,1,0,triangle,hexagon,,,,,,,,,,,,,,,,,,,,,,,,,,,,,,,,,,,,,,,,,,,,,,,,,,,,,,
293161,2022-12-05_22h48.46.861,vts_reward_expectancy_bt,2022.2.4,MacIntel,59.97361161,Chrome,1280,800,,,l,1.0192,10,659,2,2,4,28,7,1,0,0,1,0,0,1,0,0,hexagon,circle,,,,,,,,,,,,,,,,,,,,,,,,,,,,,,,,,,,,,,,,,,,,,,,,,,,,,,
293161,2022-12-05_22h48.46.861,vts_reward_expectancy_bt,2022.2.4,MacIntel,59.97361161,Chrome,1280,800,,,l,0.8245,1,660,2,2,5,29,5,1,0,1,0,0,0,0,0,1,circle,star,,,,,,,,,,,,,,,,,,,,,,,,,,,,,,,,,,,,,,,,,,,,,,,,,,,,,,
293161,2022-12-05_22h48.46.861,vts_reward_expectancy_bt,2022.2.4,MacIntel,59.97361161,Chrome,1280,800,,,a,1.042,1,661,2,2,6,30,10,1,0,0,0,1,0,1,0,0,star ,circle,,,,,,,,,,,,,,,,,,,,,,,,,,,,,,,,,,,,,,,,,,,,,,,,,,,,,,
293161,2022-12-05_22h48.46.861,vts_reward_expectancy_bt,2022.2.4,MacIntel,59.97361161,Chrome,1280,800,,,l,1.0458,1,662,2,2,7,31,8,1,0,0,1,0,0,0,0,1,hexagon,star,,,,,,,,,,,,,,,,,,,,,,,,,,,,,,,,,,,,,,,,,,,,,,,,,,,,,,
293161,2022-12-05_22h48.46.861,vts_reward_expectancy_bt,2022.2.4,MacIntel,59.97361161,Chrome,1280,800,,,l,1.3408,10,672,2,2,8,32,11,1,0,0,0,1,0,0,1,0,star,hexagon,,,,,,,,,,,,,,,,,,,,,,,,,,,,,,,,,,,,,,,,,,,,,,,,,,,,,,
293161,2022-12-05_22h48.46.861,vts_reward_expectancy_bt,2022.2.4,MacIntel,59.97361161,Chrome,1280,800,,,a,2.0305,1,673,2,2,9,33,6,1,0,0,1,0,1,0,0,0,hexagon,triangle,,,,,,,,,,,,,,,,,,,,,,,,,,,,,,,,,,,,,,,,,,,,,,,,,,,,,,
293161,2022-12-05_22h48.46.861,vts_reward_expectancy_bt,2022.2.4,MacIntel,59.97361161,Chrome,1280,800,,,a,3.5905,10,683,2,2,10,34,4,1,0,1,0,0,0,0,1,0,circle,hexagon,,,,,,,,,,,,,,,,,,,,,,,,,,,,,,,,,,,,,,,,,,,,,,,,,,,,,,
293161,2022-12-05_22h48.46.861,vts_reward_expectancy_bt,2022.2.4,MacIntel,59.97361161,Chrome,1280,800,,,l,1.3723,1,684,2,2,11,35,9,1,0,0,0,1,1,0,0,0,star,triangle,,,,,,,,,,,,,,,,,,,,,,,,,,,,,,,,,,,,,,,,,,,,,,,,,,,,,,
293161,2022-12-05_22h48.46.861,vts_reward_expectancy_bt,2022.2.4,MacIntel,59.97361161,Chrome,1280,800,,,,,,,,,,,,,,,,,,,,,,,U,174,hexagon,1,0,f,2.2225,0,0,0,0,0,1,,,,,,,,,,,,,,,,,,,,,,,,,,,,,,,,,,,,,,,,,
293161,2022-12-05_22h48.46.861,vts_reward_expectancy_bt,2022.2.4,MacIntel,59.97361161,Chrome,1280,800,,,,,,,,,,,,,,,,,,,,,,,B,146,triangle,1,0,d,1.0699,0,1,0,1,0,1,,,,,,,,,,,,,,,,,,,,,,,,,,,,,,,,,,,,,,,,,
293161,2022-12-05_22h48.46.861,vts_reward_expectancy_bt,2022.2.4,MacIntel,59.97361161,Chrome,1280,800,,,,,,,,,,,,,,,,,,,,,,,Y,125,star,1,0,f,0.792,0,2,0,2,0,1,,,,,,,,,,,,,,,,,,,,,,,,,,,,,,,,,,,,,,,,,
293161,2022-12-05_22h48.46.861,vts_reward_expectancy_bt,2022.2.4,MacIntel,59.97361161,Chrome,1280,800,,,,,,,,,,,,,,,,,,,,,,,F,167,circle,1,0,d,0.9183,0,3,0,3,0,1,,,,,,,,,,,,,,,,,,,,,,,,,,,,,,,,,,,,,,,,,
293161,2022-12-05_22h48.46.861,vts_reward_expectancy_bt,2022.2.4,MacIntel,59.97361161,Chrome,1280,800,,,,,,,,,,,,,,,,,,,,,,,D,139,hexagon,1,0,d,0.7582,0,4,0,4,0,1,,,,,,,,,,,,,,,,,,,,,,,,,,,,,,,,,,,,,,,,,
293161,2022-12-05_22h48.46.861,vts_reward_expectancy_bt,2022.2.4,MacIntel,59.97361161,Chrome,1280,800,,,,,,,,,,,,,,,,,,,,,,,H,181,triangle,1,0,d,1.5495,0,5,0,5,0,1,,,,,,,,,,,,,,,,,,,,,,,,,,,,,,,,,,,,,,,,,
293161,2022-12-05_22h48.46.861,vts_reward_expectancy_bt,2022.2.4,MacIntel,59.97361161,Chrome,1280,800,,,,,,,,,,,,,,,,,,,,,,,W,132,star,1,0,f,0.6868,0,6,0,6,0,1,,,,,,,,,,,,,,,,,,,,,,,,,,,,,,,,,,,,,,,,,
293161,2022-12-05_22h48.46.861,vts_reward_expectancy_bt,2022.2.4,MacIntel,59.97361161,Chrome,1280,800,,,,,,,,,,,,,,,,,,,,,,,S,160,circle,1,0,f,1.6658,0,7,0,7,0,1,,,,,,,,,,,,,,,,,,,,,,,,,,,,,,,,,,,,,,,,,
293161,2022-12-05_22h48.46.861,vts_reward_expectancy_bt,2022.2.4,MacIntel,59.97361161,Chrome,1280,800,,,,,,,,,,,,,,,,,,,,,,,U,174,star,1,0,f,1.0166,0,8,0,8,0,1,,,,,,,,,,,,,,,,,,,,,,,,,,,,,,,,,,,,,,,,,
293161,2022-12-05_22h48.46.861,vts_reward_expectancy_bt,2022.2.4,MacIntel,59.97361161,Chrome,1280,800,,,,,,,,,,,,,,,,,,,,,,,B,146,circle,1,0,d,0.8318,0,9,0,9,0,1,,,,,,,,,,,,,,,,,,,,,,,,,,,,,,,,,,,,,,,,,
293161,2022-12-05_22h48.46.861,vts_reward_expectancy_bt,2022.2.4,MacIntel,59.97361161,Chrome,1280,800,,,,,,,,,,,,,,,,,,,,,,,D,160,triangle,2,0,,,1,,,,,,d,1.2807,0,0,0,0,1,,,,,,,,,,,,,,,,,,,,,,,,,,,,,,,,,,
293161,2022-12-05_22h48.46.861,vts_reward_expectancy_bt,2022.2.4,MacIntel,59.97361161,Chrome,1280,800,,,,,,,,,,,,,,,,,,,,,,,B,174,star,2,0,,,1,,,,,,f,1.9559,1,0,1,0,1,,,,,,,,,,,,,,,,,,,,,,,,,,,,,,,,,,
293161,2022-12-05_22h48.46.861,vts_reward_expectancy_bt,2022.2.4,MacIntel,59.97361161,Chrome,1280,800,,,,,,,,,,,,,,,,,,,,,,,W,167,circle,2,0,,,1,,,,,,f,1.355,2,0,2,0,1,,,,,,,,,,,,,,,,,,,,,,,,,,,,,,,,,,
293161,2022-12-05_22h48.46.861,vts_reward_expectancy_bt,2022.2.4,MacIntel,59.97361161,Chrome,1280,800,,,,,,,,,,,,,,,,,,,,,,,F,139,hexagon,1,0,,,1,,,,,,j,0.7038,3,0,3,0,1,,,,,,,,,,,,,,,,,,,,,,,,,,,,,,,,,,
293161,2022-12-05_22h48.46.861,vts_reward_expectancy_bt,2022.2.4,MacIntel,59.97361161,Chrome,1280,800,,,,,,,,,,,,,,,,,,,,,,,Y,146,triangle,0,0,,,1,,,,,,k,1.2187,4,0,4,0,1,,,,,,,,,,,,,,,,,,,,,,,,,,,,,,,,,,
293161,2022-12-05_22h48.46.861,vts_reward_expectancy_bt,2022.2.4,MacIntel,59.97361161,Chrome,1280,800,,,,,,,,,,,,,,,,,,,,,,,H,181,star,1,1,,,1,,,,,,k,2.6498,5,0,5,0,1,,,,,,,,,,,,,,,,,,,,,,,,,,,,,,,,,,
293161,2022-12-05_22h48.46.861,vts_reward_expectancy_bt,2022.2.4,MacIntel,59.97361161,Chrome,1280,800,,,,,,,,,,,,,,,,,,,,,,,S,132,circle,1,0,,,1,,,,,,j,1.3535,6,0,6,0,1,,,,,,,,,,,,,,,,,,,,,,,,,,,,,,,,,,
293161,2022-12-05_22h48.46.861,vts_reward_expectancy_bt,2022.2.4,MacIntel,59.97361161,Chrome,1280,800,,,,,,,,,,,,,,,,,,,,,,,U,125,hexagon,1,0,,,1,,,,,,j,1.0321,7,0,7,0,1,,,,,,,,,,,,,,,,,,,,,,,,,,,,,,,,,,
293161,2022-12-05_22h48.46.861,vts_reward_expectancy_bt,2022.2.4,MacIntel,59.97361161,Chrome,1280,800,,,,,,,,,,,,,,,,,,,,,,,D,160,circle,1,0,,,1,,,,,,k,1.5932,8,0,8,0,1,,,,,,,,,,,,,,,,,,,,,,,,,,,,,,,,,,
293161,2022-12-05_22h48.46.861,vts_reward_expectancy_bt,2022.2.4,MacIntel,59.97361161,Chrome,1280,800,,,,,,,,,,,,,,,,,,,,,,,B,174,star,1,0,,,1,,,,,,k,1.1587,9,0,9,0,1,,,,,,,,,,,,,,,,,,,,,,,,,,,,,,,,,,
293161,2022-12-05_22h48.46.861,vts_reward_expectancy_bt,2022.2.4,MacIntel,59.97361161,Chrome,1280,800,,,,,,,,,,,,,,,,,,,,,,,Y,139,star,1,0,,,2,,,,,,j,0.988,0,0,0,0,1,,,,,,,,,,,,,,,,,,,,,,,,,,,,,,,,,,
293161,2022-12-05_22h48.46.861,vts_reward_expectancy_bt,2022.2.4,MacIntel,59.97361161,Chrome,1280,800,,,,,,,,,,,,,,,,,,,,,,,H,174,triangle,1,0,,,2,,,,,,k,0.5629,1,0,1,0,1,,,,,,,,,,,,,,,,,,,,,,,,,,,,,,,,,,
293161,2022-12-05_22h48.46.861,vts_reward_expectancy_bt,2022.2.4,MacIntel,59.97361161,Chrome,1280,800,,,,,,,,,,,,,,,,,,,,,,,B,160,hexagon,1,0,,,2,,,,,,k,0.9672,2,0,2,0,1,,,,,,,,,,,,,,,,,,,,,,,,,,,,,,,,,,
293161,2022-12-05_22h48.46.861,vts_reward_expectancy_bt,2022.2.4,MacIntel,59.97361161,Chrome,1280,800,,,,,,,,,,,,,,,,,,,,,,,D,167,circle,1,0,,,2,,,,,,k,1.6001,3,0,3,0,1,,,,,,,,,,,,,,,,,,,,,,,,,,,,,,,,,,
293161,2022-12-05_22h48.46.861,vts_reward_expectancy_bt,2022.2.4,MacIntel,59.97361161,Chrome,1280,800,,,,,,,,,,,,,,,,,,,,,,,S,132,star,1,0,,,2,,,,,,j,1.3204,4,0,4,0,1,,,,,,,,,,,,,,,,,,,,,,,,,,,,,,,,,,
293161,2022-12-05_22h48.46.861,vts_reward_expectancy_bt,2022.2.4,MacIntel,59.97361161,Chrome,1280,800,,,,,,,,,,,,,,,,,,,,,,,W,146,triangle,1,0,,,2,,,,,,j,1.627,5,0,5,0,1,,,,,,,,,,,,,,,,,,,,,,,,,,,,,,,,,,
293161,2022-12-05_22h48.46.861,vts_reward_expectancy_bt,2022.2.4,MacIntel,59.97361161,Chrome,1280,800,,,,,,,,,,,,,,,,,,,,,,,U,181,hexagon,1,0,,,2,,,,,,k,0.6603,6,0,6,0,1,,,,,,,,,,,,,,,,,,,,,,,,,,,,,,,,,,
293161,2022-12-05_22h48.46.861,vts_reward_expectancy_bt,2022.2.4,MacIntel,59.97361161,Chrome,1280,800,,,,,,,,,,,,,,,,,,,,,,,F,125,circle,1,0,,,2,,,,,,j,2.6808,7,0,7,0,1,,,,,,,,,,,,,,,,,,,,,,,,,,,,,,,,,,
293161,2022-12-05_22h48.46.861,vts_reward_expectancy_bt,2022.2.4,MacIntel,59.97361161,Chrome,1280,800,,,,,,,,,,,,,,,,,,,,,,,Y,139,circle,1,0,,,2,,,,,,j,1.1801,8,0,8,0,1,,,,,,,,,,,,,,,,,,,,,,,,,,,,,,,,,,
293161,2022-12-05_22h48.46.861,vts_reward_expectancy_bt,2022.2.4,MacIntel,59.97361161,Chrome,1280,800,,,,,,,,,,,,,,,,,,,,,,,H,174,hexagon,1,0,,,2,,,,,,k,2.3441,9,0,9,0,1,,,,,,,,,,,,,,,,,,,,,,,,,,,,,,,,,,
293161,2022-12-05_22h48.46.861,vts_reward_expectancy_bt,2022.2.4,MacIntel,59.97361161,Chrome,1280,800,,,,,0,684,,,,,,,,,,,,,,,,,D,167,circle,-1,0,,,3,,,,,,,,,,,,,-1,no_choice,NA,,vtsPrac,0,0,0,0,1,,,,,,,,,,,,,,,,,,,,,,,,
293161,2022-12-05_22h48.46.861,vts_reward_expectancy_bt,2022.2.4,MacIntel,59.97361161,Chrome,1280,800,,,,,0,684,,,,,,,,,,,,,,,,,S,146,hexagon,1,0,,,3,,,,,,,,,,,,,switch,number,numSwt,j,vtsPrac,1,0,1,0,1,1.0557,,,,,,,,,,,,,,,,,,,,,,,
293161,2022-12-05_22h48.46.861,vts_reward_expectancy_bt,2022.2.4,MacIntel,59.97361161,Chrome,1280,800,,,,,0,684,,,,,,,,,,,,,,,,,F,160,circle,1,0,,,3,,,,,,,,,,,,,switch,letter,lettSwt,d,vtsPrac,2,0,2,0,1,0.8202,,,,,,,,,,,,,,,,,,,,,,,
293161,2022-12-05_22h48.46.861,vts_reward_expectancy_bt,2022.2.4,MacIntel,59.97361161,Chrome,1280,800,,,,,0,684,,,,,,,,,,,,,,,,,W,139,hexagon,1,0,,,3,,,,,,,,,,,,,repeat,letter,lettRpt,f,vtsPrac,3,0,3,0,1,0.8272,,,,,,,,,,,,,,,,,,,,,,,
293161,2022-12-05_22h48.46.861,vts_reward_expectancy_bt,2022.2.4,MacIntel,59.97361161,Chrome,1280,800,,,,,0,684,,,,,,,,,,,,,,,,,D,167,circle,1,0,,,3,,,,,,,,,,,,,switch,number,numSwt,k,vtsPrac,4,0,4,0,1,1.0955,,,,,,,,,,,,,,,,,,,,,,,
293161,2022-12-05_22h48.46.861,vts_reward_expectancy_bt,2022.2.4,MacIntel,59.97361161,Chrome,1280,800,,,,,0,684,,,,,,,,,,,,,,,,,S,146,hexagon,1,0,,,3,,,,,,,,,,,,,switch,letter,lettSwt,f,vtsPrac,5,0,5,0,1,0.6784,,,,,,,,,,,,,,,,,,,,,,,
293161,2022-12-05_22h48.46.861,vts_reward_expectancy_bt,2022.2.4,MacIntel,59.97361161,Chrome,1280,800,,,,,0,684,,,,,,,,,,,,,,,,,F,160,star,1,0,,,3,,,,,,,,,,,,,repeat,letter,lettRpt,d,vtsPrac,6,0,6,0,1,0.8281,,,,,,,,,,,,,,,,,,,,,,,
293161,2022-12-05_22h48.46.861,vts_reward_expectancy_bt,2022.2.4,MacIntel,59.97361161,Chrome,1280,800,,,,,0,684,,,,,,,,,,,,,,,,,W,139,triangle,1,0,,,3,,,,,,,,,,,,,switch,number,numSwt,j,vtsPrac,7,0,7,0,1,2.2201,,,,,,,,,,,,,,,,,,,,,,,
293161,2022-12-05_22h48.46.861,vts_reward_expectancy_bt,2022.2.4,MacIntel,59.97361161,Chrome,1280,800,,,,,0,684,,,,,,,,,,,,,,,,,D,146,triangle,1,0,,,3,,,,,,,,,,,,,repeat,number,numRpt,j,vtsPrac,8,0,8,0,1,0.744,,,,,,,,,,,,,,,,,,,,,,,
293161,2022-12-05_22h48.46.861,vts_reward_expectancy_bt,2022.2.4,MacIntel,59.97361161,Chrome,1280,800,,,,,0,684,,,,,,,,,,,,,,,,,S,174,circle,1,0,,,3,,,,,,,,,,,,,switch,letter,lettSwt,f,vtsPrac,9,0,9,0,1,0.6983,,,,,,,,,,,,,,,,,,,,,,,
293161,2022-12-05_22h48.46.861,vts_reward_expectancy_bt,2022.2.4,MacIntel,59.97361161,Chrome,1280,800,,,,,0,684,,,,,,,,,,,,,,,,,W,132,circle,1,0,,,3,,,,,,,,,,,,,switch,number,numSwt,j,vtsPrac,10,0,10,0,1,1.2983,,,,,,,,,,,,,,,,,,,,,,,
293161,2022-12-05_22h48.46.861,vts_reward_expectancy_bt,2022.2.4,MacIntel,59.97361161,Chrome,1280,800,,,,,0,684,,,,,,,,,,,,,,,,,H,139,triangle,1,0,,,3,,,,,,,,,,,,,repeat,number,numRpt,j,vtsPrac,11,0,11,0,1,0.8803,,,,,,,,,,,,,,,,,,,,,,,
293161,2022-12-05_22h48.46.861,vts_reward_expectancy_bt,2022.2.4,MacIntel,59.97361161,Chrome,1280,800,,,,,0,684,,,,,,,,,,,,,,,,,S,132,triangle,1,0,,,3,,,,,,,,,,,,,repeat,number,numRpt,j,vtsPrac,12,0,12,0,1,0.9147,,,,,,,,,,,,,,,,,,,,,,,
293161,2022-12-05_22h48.46.861,vts_reward_expectancy_bt,2022.2.4,MacIntel,59.97361161,Chrome,1280,800,,,,,0,684,,,,,,,,,,,,,,,,,F,139,circle,1,0,,,3,,,,,,,,,,,,,switch,letter,lettSwt,d,vtsPrac,13,0,13,0,1,1.227,,,,,,,,,,,,,,,,,,,,,,,
293161,2022-12-05_22h48.46.861,vts_reward_expectancy_bt,2022.2.4,MacIntel,59.97361161,Chrome,1280,800,,,,,0,684,,,,,,,,,,,,,,,,,D,181,star,1,0,,,3,,,,,,,,,,,,,switch,number,numSwt,k,vtsPrac,14,0,14,0,1,0.9599,,,,,,,,,,,,,,,,,,,,,,,
293161,2022-12-05_22h48.46.861,vts_reward_expectancy_bt,2022.2.4,MacIntel,59.97361161,Chrome,1280,800,,,,,0,684,,,,,,,,,,,,,,,,,W,146,hexagon,1,0,,,3,,,,,,,,,,,,,repeat,number,numRpt,j,vtsPrac,15,0,15,0,1,0.9662,,,,,,,,,,,,,,,,,,,,,,,
293161,2022-12-05_22h48.46.861,vts_reward_expectancy_bt,2022.2.4,MacIntel,59.97361161,Chrome,1280,800,,,,,0,684,,,,,,,,,,,,,,,,,B,125,triangle,1,0,,,3,,,,,,,,,,,,,repeat,number,numRpt,j,vtsPrac,16,0,16,0,1,0.7276,,,,,,,,,,,,,,,,,,,,,,,
293161,2022-12-05_22h48.46.861,vts_reward_expectancy_bt,2022.2.4,MacIntel,59.97361161,Chrome,1280,800,,,,,0,684,,,,,,,,,,,,,,,,,U,181,circle,1,0,,,3,,,,,,,,,,,,,repeat,number,numRpt,k,vtsPrac,17,0,17,0,1,0.5974,,,,,,,,,,,,,,,,,,,,,,,
293161,2022-12-05_22h48.46.861,vts_reward_expectancy_bt,2022.2.4,MacIntel,59.97361161,Chrome,1280,800,,,,,0,684,,,,,,,,,,,,,,,,,S,160,star,1,0,,,3,,,,,,,,,,,,,switch,letter,lettSwt,f,vtsPrac,18,0,18,0,1,1.1272,,,,,,,,,,,,,,,,,,,,,,,
293161,2022-12-05_22h48.46.861,vts_reward_expectancy_bt,2022.2.4,MacIntel,59.97361161,Chrome,1280,800,,,,,0,684,,,,,,,,,,,,,,,,,H,174,circle,1,0,,,3,,,,,,,,,,,,,switch,number,numSwt,k,vtsPrac,19,0,19,0,1,1.5699,,,,,,,,,,,,,,,,,,,,,,,
293161,2022-12-05_22h48.46.861,vts_reward_expectancy_bt,2022.2.4,MacIntel,59.97361161,Chrome,1280,800,,,,,0,684,,,,,,,,,,,,,,,,,Y,167,hexagon,1,0,,,3,,,,,,,,,,,,,repeat,number,numRpt,k,vtsPrac,20,0,20,0,1,1.1491,,,,,,,,,,,,,,,,,,,,,,,
293161,2022-12-05_22h48.46.861,vts_reward_expectancy_bt,2022.2.4,MacIntel,59.97361161,Chrome,1280,800,,,,,0,684,,,,,,,,,,,,,,,,,H,146,star,1,0,,,3,,,,,,,,,,,,,switch,letter,lettSwt,d,vtsPrac,21,0,21,0,1,1.0651,,,,,,,,,,,,,,,,,,,,,,,
293161,2022-12-05_22h48.46.861,vts_reward_expectancy_bt,2022.2.4,MacIntel,59.97361161,Chrome,1280,800,,,,,0,684,,,,,,,,,,,,,,,,,S,125,triangle,1,0,,,3,,,,,,,,,,,,,repeat,letter,lettRpt,f,vtsPrac,22,0,22,0,1,1.6896,,,,,,,,,,,,,,,,,,,,,,,
293161,2022-12-05_22h48.46.861,vts_reward_expectancy_bt,2022.2.4,MacIntel,59.97361161,Chrome,1280,800,,,,,0,684,,,,,,,,,,,,,,,,,F,160,hexagon,1,0,,,3,,,,,,,,,,,,,switch,number,numSwt,k,vtsPrac,23,0,23,0,1,0.8812,,,,,,,,,,,,,,,,,,,,,,,
293161,2022-12-05_22h48.46.861,vts_reward_expectancy_bt,2022.2.4,MacIntel,59.97361161,Chrome,1280,800,,,,,0,684,,,,,,,,,,,,,,,,,S,174,circle,1,0,,,3,,,,,,,,,,,,,repeat,number,numRpt,k,vtsPrac,24,0,24,0,1,1.0822,,,,,,,,,,,,,,,,,,,,,,,
293161,2022-12-05_22h48.46.861,vts_reward_expectancy_bt,2022.2.4,MacIntel,59.97361161,Chrome,1280,800,,,,,0,684,,,,,,,,,,,,,,,,,D,125,hexagon,1,0,,,3,,,,,,,,,,,,,repeat,number,numRpt,j,vtsPrac,25,0,25,0,1,0.5992,,,,,,,,,,,,,,,,,,,,,,,
293161,2022-12-05_22h48.46.861,vts_reward_expectancy_bt,2022.2.4,MacIntel,59.97361161,Chrome,1280,800,,,,,0,684,,,,,,,,,,,,,,,,,Y,146,hexagon,1,0,,,3,,,,,,,,,,,,,repeat,number,numRpt,j,vtsPrac,26,0,26,0,1,0.6033,,,,,,,,,,,,,,,,,,,,,,,
293161,2022-12-05_22h48.46.861,vts_reward_expectancy_bt,2022.2.4,MacIntel,59.97361161,Chrome,1280,800,,,,,0,684,,,,,,,,,,,,,,,,,B,139,star,1,0,,,3,,,,,,,,,,,,,repeat,number,numRpt,j,vtsPrac,27,0,27,0,1,1.3141,,,,,,,,,,,,,,,,,,,,,,,
293161,2022-12-05_22h48.46.861,vts_reward_expectancy_bt,2022.2.4,MacIntel,59.97361161,Chrome,1280,800,,,,,0,684,,,,,,,,,,,,,,,,,W,167,hexagon,1,0,,,3,,,,,,,,,,,,,repeat,number,numRpt,k,vtsPrac,28,0,28,0,1,0.8645,,,,,,,,,,,,,,,,,,,,,,,
293161,2022-12-05_22h48.46.861,vts_reward_expectancy_bt,2022.2.4,MacIntel,59.97361161,Chrome,1280,800,,,,,0,684,,,,,,,,,,,,,,,,,U,139,star,1,0,,,3,,,,,,,,,,,,,repeat,number,numRpt,j,vtsPrac,29,0,29,0,1,1.1985,,,,,,,,,,,,,,,,,,,,,,,
293161,2022-12-05_22h48.46.861,vts_reward_expectancy_bt,2022.2.4,MacIntel,59.97361161,Chrome,1280,800,,,,,0,684,,,,,,,,,,,,,,,,,F,174,star,1,0,,,3,,,,,,,,,,,,,repeat,number,numRpt,k,vtsPrac,30,0,30,0,1,0.6653,,,,,,,,,,,,,,,,,,,,,,,
293161,2022-12-05_22h48.46.861,vts_reward_expectancy_bt,2022.2.4,MacIntel,59.97361161,Chrome,1280,800,,,,,0,684,,,,,,,,,,,,,,,,,B,125,triangle,1,0,,,3,,,,,,,,,,,,,repeat,number,numRpt,j,vtsPrac,31,0,31,0,1,0.7752,,,,,,,,,,,,,,,,,,,,,,,
293161,2022-12-05_22h48.46.861,vts_reward_expectancy_bt,2022.2.4,MacIntel,59.97361161,Chrome,1280,800,,,,,,,,,,,,,,,,,,,,,,,,,,,,,,,,,,,,,,,,,,,,,,,,,,,,,,,,,,,,,,,,,,,,,,,,,,,,
293161,2022-12-05_22h48.46.861,vts_reward_expectancy_bt,2022.2.4,MacIntel,59.97361161,Chrome,1280,800,,,,,,,,,,,,,,,,,,,,,,,,,,,,,,,,,,,,,,,,,,,,,,,,,,,,,,,,,,,,,,,,,,,,,,,,,,,,
293161,2022-12-05_22h48.46.861,vts_reward_expectancy_bt,2022.2.4,MacIntel,59.97361161,Chrome,1280,800,,,,,0,684,,,,,,,,,,,,,,,,,S,160,circle,1,0,,,,,,,,,,,,,,,,repeat,number,numRpt,k,noRew,,,,,,0.8141,0,0,0,0,0,1,,,,,,,,,,,,,,,,,
293161,2022-12-05_22h48.46.861,vts_reward_expectancy_bt,2022.2.4,MacIntel,59.97361161,Chrome,1280,800,,,,,0,684,,,,,,,,,,,,,,,,,F,181,triangle,1,0,,,,,,,,,,,,,,,,switch,letter,lettSwt,d,noRew,,,,,,0.6469,0,1,0,1,0,1,,,,,,,,,,,,,,,,,
293161,2022-12-05_22h48.46.861,vts_reward_expectancy_bt,2022.2.4,MacIntel,59.97361161,Chrome,1280,800,,,,,0,684,,,,,,,,,,,,,,,,,W,167,circle,1,0,,,,,,,,,,,,,,,,switch,number,numSwt,k,noRew,,,,,,1.7214,0,2,0,2,0,1,,,,,,,,,,,,,,,,,
293161,2022-12-05_22h48.46.861,vts_reward_expectancy_bt,2022.2.4,MacIntel,59.97361161,Chrome,1280,800,,,,,0,684,,,,,,,,,,,,,,,,,D,174,triangle,1,0,,,,,,,,,,,,,,,,switch,letter,lettSwt,d,noRew,,,,,,0.5812,0,3,0,3,0,1,,,,,,,,,,,,,,,,,
293161,2022-12-05_22h48.46.861,vts_reward_expectancy_bt,2022.2.4,MacIntel,59.97361161,Chrome,1280,800,,,,,0,684,,,,,,,,,,,,,,,,,S,160,circle,1,0,,,,,,,,,,,,,,,,switch,number,numSwt,k,noRew,,,,,,1.1499,0,4,0,4,0,1,,,,,,,,,,,,,,,,,
293161,2022-12-05_22h48.46.861,vts_reward_expectancy_bt,2022.2.4,MacIntel,59.97361161,Chrome,1280,800,,,,,0,684,,,,,,,,,,,,,,,,,F,181,hexagon,1,0,,,,,,,,,,,,,,,,switch,letter,lettSwt,d,noRew,,,,,,0.8478,0,5,0,5,0,1,,,,,,,,,,,,,,,,,
293161,2022-12-05_22h48.46.861,vts_reward_expectancy_bt,2022.2.4,MacIntel,59.97361161,Chrome,1280,800,,,,,0,684,,,,,,,,,,,,,,,,,W,167,hexagon,1,0,,,,,,,,,,,,,,,,switch,number,numSwt,k,noRew,,,,,,0.8138,0,6,0,6,0,1,,,,,,,,,,,,,,,,,
293161,2022-12-05_22h48.46.861,vts_reward_expectancy_bt,2022.2.4,MacIntel,59.97361161,Chrome,1280,800,,,,,0,684,,,,,,,,,,,,,,,,,D,174,triangle,1,0,,,,,,,,,,,,,,,,repeat,number,numRpt,k,noRew,,,,,,0.7659,0,7,0,7,0,1,,,,,,,,,,,,,,,,,
293161,2022-12-05_22h48.46.861,vts_reward_expectancy_bt,2022.2.4,MacIntel,59.97361161,Chrome,1280,800,,,,,0,684,,,,,,,,,,,,,,,,,Y,181,circle,1,0,,,,,,,,,,,,,,,,switch,letter,lettSwt,f,noRew,,,,,,0.7132,0,8,0,8,0,1,,,,,,,,,,,,,,,,,
293161,2022-12-05_22h48.46.861,vts_reward_expectancy_bt,2022.2.4,MacIntel,59.97361161,Chrome,1280,800,,,,,0,684,,,,,,,,,,,,,,,,,B,139,triangle,1,0,,,,,,,,,,,,,,,,repeat,letter,lettRpt,d,noRew,,,,,,0.7698,0,9,0,9,0,1,,,,,,,,,,,,,,,,,
293161,2022-12-05_22h48.46.861,vts_reward_expectancy_bt,2022.2.4,MacIntel,59.97361161,Chrome,1280,800,,,,,0,684,,,,,,,,,,,,,,,,,S,167,circle,1,0,,,,,,,,,,,,,,,,switch,number,numSwt,k,noRew,,,,,,1.1121,0,10,0,10,0,1,,,,,,,,,,,,,,,,,
293161,2022-12-05_22h48.46.861,vts_reward_expectancy_bt,2022.2.4,MacIntel,59.97361161,Chrome,1280,800,,,,,0,684,,,,,,,,,,,,,,,,,D,146,triangle,1,0,,,,,,,,,,,,,,,,switch,letter,lettSwt,d,noRew,,,,,,0.5673,0,11,0,11,0,1,,,,,,,,,,,,,,,,,
293161,2022-12-05_22h48.46.861,vts_reward_expectancy_bt,2022.2.4,MacIntel,59.97361161,Chrome,1280,800,,,,,0,684,,,,,,,,,,,,,,,,,S,160,triangle,1,0,,,,,,,,,,,,,,,,switch,number,numSwt,k,noRew,,,,,,0.7972,0,12,0,12,0,1,,,,,,,,,,,,,,,,,
293161,2022-12-05_22h48.46.861,vts_reward_expectancy_bt,2022.2.4,MacIntel,59.97361161,Chrome,1280,800,,,,,0,684,,,,,,,,,,,,,,,,,B,132,hexagon,1,0,,,,,,,,,,,,,,,,repeat,number,numRpt,j,noRew,,,,,,0.975,0,13,0,13,0,1,,,,,,,,,,,,,,,,,
293161,2022-12-05_22h48.46.861,vts_reward_expectancy_bt,2022.2.4,MacIntel,59.97361161,Chrome,1280,800,,,,,0,684,,,,,,,,,,,,,,,,,D,181,star,1,0,,,,,,,,,,,,,,,,repeat,number,numRpt,k,noRew,,,,,,1.0018,0,14,0,14,0,1,,,,,,,,,,,,,,,,,
293161,2022-12-05_22h48.46.861,vts_reward_expectancy_bt,2022.2.4,MacIntel,59.97361161,Chrome,1280,800,,,,,0,684,,,,,,,,,,,,,,,,,U,174,hexagon,1,0,,,,,,,,,,,,,,,,repeat,number,numRpt,k,noRew,,,,,,1.1038,0,15,0,15,0,1,,,,,,,,,,,,,,,,,
293161,2022-12-05_22h48.46.861,vts_reward_expectancy_bt,2022.2.4,MacIntel,59.97361161,Chrome,1280,800,,,,,0,684,,,,,,,,,,,,,,,,,F,167,star,1,0,,,,,,,,,,,,,,,,switch,letter,lettSwt,d,noRew,,,,,,0.6319,0,16,0,16,0,1,,,,,,,,,,,,,,,,,
293161,2022-12-05_22h48.46.861,vts_reward_expectancy_bt,2022.2.4,MacIntel,59.97361161,Chrome,1280,800,,,,,0,684,,,,,,,,,,,,,,,,,S,139,triangle,1,0,,,,,,,,,,,,,,,,repeat,letter,lettRpt,f,noRew,,,,,,1.2338,0,17,0,17,0,1,,,,,,,,,,,,,,,,,
293161,2022-12-05_22h48.46.861,vts_reward_expectancy_bt,2022.2.4,MacIntel,59.97361161,Chrome,1280,800,,,,,0,684,,,,,,,,,,,,,,,,,H,132,circle,1,0,,,,,,,,,,,,,,,,switch,number,numSwt,j,noRew,,,,,,0.7332,0,18,0,18,0,1,,,,,,,,,,,,,,,,,
293161,2022-12-05_22h48.46.861,vts_reward_expectancy_bt,2022.2.4,MacIntel,59.97361161,Chrome,1280,800,,,,,0,684,,,,,,,,,,,,,,,,,W,181,hexagon,1,0,,,,,,,,,,,,,,,,repeat,number,numRpt,k,noRew,,,,,,0.8035,0,19,0,19,0,1,,,,,,,,,,,,,,,,,
293161,2022-12-05_22h48.46.861,vts_reward_expectancy_bt,2022.2.4,MacIntel,59.97361161,Chrome,1280,800,,,,,0,684,,,,,,,,,,,,,,,,,B,132,triangle,1,0,,,,,,,,,,,,,,,,repeat,number,numRpt,j,noRew,,,,,,0.8987,0,20,0,20,0,1,,,,,,,,,,,,,,,,,
293161,2022-12-05_22h48.46.861,vts_reward_expectancy_bt,2022.2.4,MacIntel,59.97361161,Chrome,1280,800,,,,,0,684,,,,,,,,,,,,,,,,,Y,160,circle,1,0,,,,,,,,,,,,,,,,switch,letter,lettSwt,f,noRew,,,,,,0.7158,0,21,0,21,0,1,,,,,,,,,,,,,,,,,
293161,2022-12-05_22h48.46.861,vts_reward_expectancy_bt,2022.2.4,MacIntel,59.97361161,Chrome,1280,800,,,,,0,684,,,,,,,,,,,,,,,,,H,139,circle,1,0,,,,,,,,,,,,,,,,repeat,letter,lettRpt,d,noRew,,,,,,1.4714,0,22,0,22,0,1,,,,,,,,,,,,,,,,,
293161,2022-12-05_22h48.46.861,vts_reward_expectancy_bt,2022.2.4,MacIntel,59.97361161,Chrome,1280,800,,,,,0,684,,,,,,,,,,,,,,,,,D,167,star,1,0,,,,,,,,,,,,,,,,switch,number,numSwt,k,noRew,,,,,,0.8179,0,23,0,23,0,1,,,,,,,,,,,,,,,,,
293161,2022-12-05_22h48.46.861,vts_reward_expectancy_bt,2022.2.4,MacIntel,59.97361161,Chrome,1280,800,,,,,0,684,,,,,,,,,,,,,,,,,S,181,circle,1,0,,,,,,,,,,,,,,,,repeat,number,numRpt,k,noRew,,,,,,0.8314,0,24,0,24,0,1,,,,,,,,,,,,,,,,,
293161,2022-12-05_22h48.46.861,vts_reward_expectancy_bt,2022.2.4,MacIntel,59.97361161,Chrome,1280,800,,,,,0,684,,,,,,,,,,,,,,,,,Y,132,star,1,0,,,,,,,,,,,,,,,,switch,letter,lettSwt,f,noRew,,,,,,0.61,0,25,0,25,0,1,,,,,,,,,,,,,,,,,
293161,2022-12-05_22h48.46.861,vts_reward_expectancy_bt,2022.2.4,MacIntel,59.97361161,Chrome,1280,800,,,,,0,684,,,,,,,,,,,,,,,,,W,146,star,1,0,,,,,,,,,,,,,,,,repeat,letter,lettRpt,f,noRew,,,,,,1.1483,0,26,0,26,0,1,,,,,,,,,,,,,,,,,
293161,2022-12-05_22h48.46.861,vts_reward_expectancy_bt,2022.2.4,MacIntel,59.97361161,Chrome,1280,800,,,,,0,684,,,,,,,,,,,,,,,,,U,174,triangle,1,0,,,,,,,,,,,,,,,,switch,number,numSwt,k,noRew,,,,,,0.7597,0,27,0,27,0,1,,,,,,,,,,,,,,,,,
293161,2022-12-05_22h48.46.861,vts_reward_expectancy_bt,2022.2.4,MacIntel,59.97361161,Chrome,1280,800,,,,,0,684,,,,,,,,,,,,,,,,,U,125,hexagon,1,0,,,,,,,,,,,,,,,,repeat,number,numRpt,j,noRew,,,,,,0.6722,0,28,0,28,0,1,,,,,,,,,,,,,,,,,
293161,2022-12-05_22h48.46.861,vts_reward_expectancy_bt,2022.2.4,MacIntel,59.97361161,Chrome,1280,800,,,,,0,684,,,,,,,,,,,,,,,,,D,146,triangle,1,0,,,,,,,,,,,,,,,,switch,letter,lettSwt,d,noRew,,,,,,1.2622,0,29,0,29,0,1,,,,,,,,,,,,,,,,,
293161,2022-12-05_22h48.46.861,vts_reward_expectancy_bt,2022.2.4,MacIntel,59.97361161,Chrome,1280,800,,,,,0,684,,,,,,,,,,,,,,,,,B,174,hexagon,1,0,,,,,,,,,,,,,,,,repeat,letter,lettRpt,d,noRew,,,,,,0.8187,0,30,0,30,0,1,,,,,,,,,,,,,,,,,
293161,2022-12-05_22h48.46.861,vts_reward_expectancy_bt,2022.2.4,MacIntel,59.97361161,Chrome,1280,800,,,,,0,684,,,,,,,,,,,,,,,,,S,132,triangle,1,0,,,,,,,,,,,,,,,,switch,number,numSwt,j,noRew,,,,,,1.4154,0,31,0,31,0,1,,,,,,,,,,,,,,,,,
293161,2022-12-05_22h48.46.861,vts_reward_expectancy_bt,2022.2.4,MacIntel,59.97361161,Chrome,1280,800,,,,,0,684,,,,,,,,,,,,,,,,,Y,132,hexagon,1,0,,,,,,,,,,,,,,,,repeat,number,numRpt,j,noRew,,,,,,1.1473,0,32,0,32,0,1,,,,,,,,,,,,,,,,,
293161,2022-12-05_22h48.46.861,vts_reward_expectancy_bt,2022.2.4,MacIntel,59.97361161,Chrome,1280,800,,,,,0,684,,,,,,,,,,,,,,,,,H,146,circle,1,0,,,,,,,,,,,,,,,,repeat,number,numRpt,j,noRew,,,,,,1.1528,0,33,0,33,0,1,,,,,,,,,,,,,,,,,
293161,2022-12-05_22h48.46.861,vts_reward_expectancy_bt,2022.2.4,MacIntel,59.97361161,Chrome,1280,800,,,,,0,684,,,,,,,,,,,,,,,,,B,174,circle,1,0,,,,,,,,,,,,,,,,switch,letter,lettSwt,d,noRew,,,,,,1.2869,0,34,0,34,0,1,,,,,,,,,,,,,,,,,
293161,2022-12-05_22h48.46.861,vts_reward_expectancy_bt,2022.2.4,MacIntel,59.97361161,Chrome,1280,800,,,,,0,684,,,,,,,,,,,,,,,,,U,181,triangle,1,0,,,,,,,,,,,,,,,,repeat,letter,lettRpt,f,noRew,,,,,,0.6315,0,35,0,35,0,1,,,,,,,,,,,,,,,,,
293161,2022-12-05_22h48.46.861,vts_reward_expectancy_bt,2022.2.4,MacIntel,59.97361161,Chrome,1280,800,,,,,0,684,,,,,,,,,,,,,,,,,W,132,star,1,0,,,,,,,,,,,,,,,,switch,number,numSwt,j,noRew,,,,,,2.0658,0,36,0,36,0,1,,,,,,,,,,,,,,,,,
293161,2022-12-05_22h48.46.861,vts_reward_expectancy_bt,2022.2.4,MacIntel,59.97361161,Chrome,1280,800,,,,,0,684,,,,,,,,,,,,,,,,,D,160,hexagon,1,0,,,,,,,,,,,,,,,,repeat,number,numRpt,k,noRew,,,,,,1.4338,0,37,0,37,0,1,,,,,,,,,,,,,,,,,
293161,2022-12-05_22h48.46.861,vts_reward_expectancy_bt,2022.2.4,MacIntel,59.97361161,Chrome,1280,800,,,,,0,684,,,,,,,,,,,,,,,,,F,139,triangle,1,0,,,,,,,,,,,,,,,,switch,letter,lettSwt,d,noRew,,,,,,0.5982,0,38,0,38,0,1,,,,,,,,,,,,,,,,,
293161,2022-12-05_22h48.46.861,vts_reward_expectancy_bt,2022.2.4,MacIntel,59.97361161,Chrome,1280,800,,,,,0,684,,,,,,,,,,,,,,,,,H,146,hexagon,1,0,,,,,,,,,,,,,,,,repeat,letter,lettRpt,d,noRew,,,,,,0.9816,0,39,0,39,0,1,,,,,,,,,,,,,,,,,
293161,2022-12-05_22h48.46.861,vts_reward_expectancy_bt,2022.2.4,MacIntel,59.97361161,Chrome,1280,800,,,,,0,684,,,,,,,,,,,,,,,,,H,167,triangle,1,0,,,,,,,,,,,,,,,,switch,number,numSwt,k,noRew,,,,,,0.701,0,40,0,40,0,1,,,,,,,,,,,,,,,,,
293161,2022-12-05_22h48.46.861,vts_reward_expectancy_bt,2022.2.4,MacIntel,59.97361161,Chrome,1280,800,,,,,0,684,,,,,,,,,,,,,,,,,U,132,circle,1,0,,,,,,,,,,,,,,,,repeat,number,numRpt,j,noRew,,,,,,0.8017,0,41,0,41,0,1,,,,,,,,,,,,,,,,,
293161,2022-12-05_22h48.46.861,vts_reward_expectancy_bt,2022.2.4,MacIntel,59.97361161,Chrome,1280,800,,,,,0,684,,,,,,,,,,,,,,,,,S,174,circle,1,0,,,,,,,,,,,,,,,,switch,letter,lettSwt,f,noRew,,,,,,0.5526,0,42,0,42,0,1,,,,,,,,,,,,,,,,,
293161,2022-12-05_22h48.46.861,vts_reward_expectancy_bt,2022.2.4,MacIntel,59.97361161,Chrome,1280,800,,,,,0,684,,,,,,,,,,,,,,,,,F,160,triangle,1,0,,,,,,,,,,,,,,,,switch,number,numSwt,k,noRew,,,,,,1.2539,0,43,0,43,0,1,,,,,,,,,,,,,,,,,
293161,2022-12-05_22h48.46.861,vts_reward_expectancy_bt,2022.2.4,MacIntel,59.97361161,Chrome,1280,800,,,,,0,684,,,,,,,,,,,,,,,,,D,181,star,1,0,,,,,,,,,,,,,,,,repeat,number,numRpt,k,noRew,,,,,,0.6765,0,44,0,44,0,1,,,,,,,,,,,,,,,,,
293161,2022-12-05_22h48.46.861,vts_reward_expectancy_bt,2022.2.4,MacIntel,59.97361161,Chrome,1280,800,,,,,0,684,,,,,,,,,,,,,,,,,W,160,hexagon,1,0,,,,,,,,,,,,,,,,switch,letter,lettSwt,f,noRew,,,,,,1.1826,0,45,0,45,0,1,,,,,,,,,,,,,,,,,
293161,2022-12-05_22h48.46.861,vts_reward_expectancy_bt,2022.2.4,MacIntel,59.97361161,Chrome,1280,800,,,,,0,684,,,,,,,,,,,,,,,,,F,167,circle,1,0,,,,,,,,,,,,,,,,repeat,letter,lettRpt,d,noRew,,,,,,0.6987,0,46,0,46,0,1,,,,,,,,,,,,,,,,,
293161,2022-12-05_22h48.46.861,vts_reward_expectancy_bt,2022.2.4,MacIntel,59.97361161,Chrome,1280,800,,,,,0,684,,,,,,,,,,,,,,,,,H,139,star,1,0,,,,,,,,,,,,,,,,switch,number,numSwt,j,noRew,,,,,,1.0255,0,47,0,47,0,1,,,,,,,,,,,,,,,,,
293161,2022-12-05_22h48.46.861,vts_reward_expectancy_bt,2022.2.4,MacIntel,59.97361161,Chrome,1280,800,,,,,0,684,,,,,,,,,,,,,,,,,Y,160,circle,1,0,,,,,,,,,,,,,,,,repeat,number,numRpt,k,noRew,,,,,,1.243,0,48,0,48,0,1,,,,,,,,,,,,,,,,,
293161,2022-12-05_22h48.46.861,vts_reward_expectancy_bt,2022.2.4,MacIntel,59.97361161,Chrome,1280,800,,,,,0,684,,,,,,,,,,,,,,,,,W,125,triangle,1,0,,,,,,,,,,,,,,,,switch,letter,lettSwt,f,noRew,,,,,,1.2599,0,49,0,49,0,1,,,,,,,,,,,,,,,,,
293161,2022-12-05_22h48.46.861,vts_reward_expectancy_bt,2022.2.4,MacIntel,59.97361161,Chrome,1280,800,,,,,0,684,,,,,,,,,,,,,,,,,F,167,triangle,1,0,,,,,,,,,,,,,,,,repeat,letter,lettRpt,d,noRew,,,,,,0.7527,0,50,0,50,0,1,,,,,,,,,,,,,,,,,
293161,2022-12-05_22h48.46.861,vts_reward_expectancy_bt,2022.2.4,MacIntel,59.97361161,Chrome,1280,800,,,,,0,684,,,,,,,,,,,,,,,,,U,181,circle,1,0,,,,,,,,,,,,,,,,switch,number,numSwt,k,noRew,,,,,,0.7521,0,51,0,51,0,1,,,,,,,,,,,,,,,,,
293161,2022-12-05_22h48.46.861,vts_reward_expectancy_bt,2022.2.4,MacIntel,59.97361161,Chrome,1280,800,,,,,0,684,,,,,,,,,,,,,,,,,F,167,triangle,1,0,,,,,,,,,,,,,,,,repeat,number,numRpt,k,noRew,,,,,,0.994,0,52,0,52,0,1,,,,,,,,,,,,,,,,,
293161,2022-12-05_22h48.46.861,vts_reward_expectancy_bt,2022.2.4,MacIntel,59.97361161,Chrome,1280,800,,,,,0,684,,,,,,,,,,,,,,,,,U,125,star,1,0,,,,,,,,,,,,,,,,switch,letter,lettSwt,f,noRew,,,,,,0.7702,0,53,0,53,0,1,,,,,,,,,,,,,,,,,
293161,2022-12-05_22h48.46.861,vts_reward_expectancy_bt,2022.2.4,MacIntel,59.97361161,Chrome,1280,800,,,,,0,684,,,,,,,,,,,,,,,,,B,132,circle,1,0,,,,,,,,,,,,,,,,repeat,letter,lettRpt,d,noRew,,,,,,0.9812,0,54,0,54,0,1,,,,,,,,,,,,,,,,,
293161,2022-12-05_22h48.46.861,vts_reward_expectancy_bt,2022.2.4,MacIntel,59.97361161,Chrome,1280,800,,,,,0,684,,,,,,,,,,,,,,,,,D,174,hexagon,1,0,,,,,,,,,,,,,,,,switch,number,numSwt,k,noRew,,,,,,1.2664,0,55,0,55,0,1,,,,,,,,,,,,,,,,,
293161,2022-12-05_22h48.46.861,vts_reward_expectancy_bt,2022.2.4,MacIntel,59.97361161,Chrome,1280,800,,,,,0,684,,,,,,,,,,,,,,,,,U,125,circle,1,0,,,,,,,,,,,,,,,,repeat,number,numRpt,j,noRew,,,,,,0.6367,0,56,0,56,0,1,,,,,,,,,,,,,,,,,
293161,2022-12-05_22h48.46.861,vts_reward_expectancy_bt,2022.2.4,MacIntel,59.97361161,Chrome,1280,800,,,,,0,684,,,,,,,,,,,,,,,,,Y,132,star,1,0,,,,,,,,,,,,,,,,switch,letter,lettSwt,f,noRew,,,,,,1.2602,0,57,0,57,0,1,,,,,,,,,,,,,,,,,
293161,2022-12-05_22h48.46.861,vts_reward_expectancy_bt,2022.2.4,MacIntel,59.97361161,Chrome,1280,800,,,,,0,684,,,,,,,,,,,,,,,,,S,167,star,1,0,,,,,,,,,,,,,,,,repeat,letter,lettRpt,f,noRew,,,,,,1.2976,0,58,0,58,0,1,,,,,,,,,,,,,,,,,
293161,2022-12-05_22h48.46.861,vts_reward_expectancy_bt,2022.2.4,MacIntel,59.97361161,Chrome,1280,800,,,,,0,684,,,,,,,,,,,,,,,,,B,181,triangle,1,0,,,,,,,,,,,,,,,,repeat,letter,lettRpt,d,noRew,,,,,,0.9032,0,59,0,59,0,1,,,,,,,,,,,,,,,,,
293161,2022-12-05_22h48.46.861,vts_reward_expectancy_bt,2022.2.4,MacIntel,59.97361161,Chrome,1280,800,,,,,0,684,,,,,,,,,,,,,,,,,F,146,hexagon,1,0,,,,,,,,,,,,,,,,switch,number,numSwt,j,noRew,,,,,,0.7535,0,60,0,60,0,1,,,,,,,,,,,,,,,,,
293161,2022-12-05_22h48.46.861,vts_reward_expectancy_bt,2022.2.4,MacIntel,59.97361161,Chrome,1280,800,,,,,0,684,,,,,,,,,,,,,,,,,D,132,triangle,1,0,,,,,,,,,,,,,,,,repeat,number,numRpt,j,noRew,,,,,,0.9152,0,61,0,61,0,1,,,,,,,,,,,,,,,,,
293161,2022-12-05_22h48.46.861,vts_reward_expectancy_bt,2022.2.4,MacIntel,59.97361161,Chrome,1280,800,,,,,0,684,,,,,,,,,,,,,,,,,U,181,circle,1,0,,,,,,,,,,,,,,,,repeat,number,numRpt,k,noRew,,,,,,0.7628,0,62,0,62,0,1,,,,,,,,,,,,,,,,,
293161,2022-12-05_22h48.46.861,vts_reward_expectancy_bt,2022.2.4,MacIntel,59.97361161,Chrome,1280,800,,,,,0,684,,,,,,,,,,,,,,,,,W,160,hexagon,1,0,,,,,,,,,,,,,,,,repeat,number,numRpt,k,noRew,,,,,,0.9752,0,63,0,63,0,1,,,,,,,,,,,,,,,,,
293161,2022-12-05_22h48.46.861,vts_reward_expectancy_bt,2022.2.4,MacIntel,59.97361161,Chrome,1280,800,,,,,,,,,,,,,,,,,,,,,,,,,,,,,,,,,,,,,,,,,,,,,,,,,,,,,,,,,,,,,,,,,,,,,,,,,,,,
293161,2022-12-05_22h48.46.861,vts_reward_expectancy_bt,2022.2.4,MacIntel,59.97361161,Chrome,1280,800,,,,,1,685,,,,,,,,,,,,,,,,,F,139,triangle,1,0,,,,,,,,,,,,,,,,switch,letter,lettSwt,d,Lo,,,,,,1.3812,0,,,,,,space,16.9239,high,0,0,0,0,1,,,,,,,,,
293161,2022-12-05_22h48.46.861,vts_reward_expectancy_bt,2022.2.4,MacIntel,59.97361161,Chrome,1280,800,,,,,0,685,,,,,,,,,,,,,,,,,U,167,circle,1,0,,,,,,,,,,,,,,,,repeat,letter,lettRpt,f,Hi,,,,,,0.9364,0,,,,,,,,high,1,0,1,0,1,,,,,,,,,
293161,2022-12-05_22h48.46.861,vts_reward_expectancy_bt,2022.2.4,MacIntel,59.97361161,Chrome,1280,800,,,,,0,685,,,,,,,,,,,,,,,,,D,181,hexagon,0,0,,,,,,,,,,,,,,,,repeat,letter,NA,f,Hi,,,,,,0.6143,0,,,,,,,,high,2,0,2,0,1,,,,,,,,,
293161,2022-12-05_22h48.46.861,vts_reward_expectancy_bt,2022.2.4,MacIntel,59.97361161,Chrome,1280,800,,,,,10,695,,,,,,,,,,,,,,,,,S,132,star,1,1,,,,,,,,,,,,,,,,repeat,letter,lettRpt,f,Hi,,,,,,0.6429,0,,,,,,,,high,3,0,3,0,1,,,,,,,,,
293161,2022-12-05_22h48.46.861,vts_reward_expectancy_bt,2022.2.4,MacIntel,59.97361161,Chrome,1280,800,,,,,0,695,,,,,,,,,,,,,,,,,H,174,triangle,0,0,,,,,,,,,,,,,,,,repeat,letter,NA,f,Hi,,,,,,0.7597,0,,,,,,,,high,4,0,4,0,1,,,,,,,,,
293161,2022-12-05_22h48.46.861,vts_reward_expectancy_bt,2022.2.4,MacIntel,59.97361161,Chrome,1280,800,,,,,10,705,,,,,,,,,,,,,,,,,B,146,circle,1,1,,,,,,,,,,,,,,,,repeat,letter,lettRpt,d,Hi,,,,,,0.515,0,,,,,,,,high,5,0,5,0,1,,,,,,,,,
293161,2022-12-05_22h48.46.861,vts_reward_expectancy_bt,2022.2.4,MacIntel,59.97361161,Chrome,1280,800,,,,,1,706,,,,,,,,,,,,,,,,,W,160,hexagon,1,0,,,,,,,,,,,,,,,,repeat,letter,lettRpt,f,Lo,,,,,,0.6513,0,,,,,,,,high,6,0,6,0,1,,,,,,,,,
293161,2022-12-05_22h48.46.861,vts_reward_expectancy_bt,2022.2.4,MacIntel,59.97361161,Chrome,1280,800,,,,,10,716,,,,,,,,,,,,,,,,,Y,125,star,1,0,,,,,,,,,,,,,,,,repeat,letter,lettRpt,f,Hi,,,,,,0.7847,0,,,,,,,,high,7,0,7,0,1,,,,,,,,,
293161,2022-12-05_22h48.46.861,vts_reward_expectancy_bt,2022.2.4,MacIntel,59.97361161,Chrome,1280,800,,,,,1,717,,,,,,,,,,,,,,,,,F,139,circle,1,0,,,,,,,,,,,,,,,,switch,number,numSwt,j,Hi,,,,,,0.7312,0,,,,,,,,high,8,0,8,0,1,,,,,,,,,
293161,2022-12-05_22h48.46.861,vts_reward_expectancy_bt,2022.2.4,MacIntel,59.97361161,Chrome,1280,800,,,,,1,718,,,,,,,,,,,,,,,,,U,167,hexagon,1,0,,,,,,,,,,,,,,,,switch,letter,lettSwt,f,Lo,,,,,,1.0646,0,,,,,,,,high,9,0,9,0,1,,,,,,,,,
293161,2022-12-05_22h48.46.861,vts_reward_expectancy_bt,2022.2.4,MacIntel,59.97361161,Chrome,1280,800,,,,,1,719,,,,,,,,,,,,,,,,,D,181,triangle,1,0,,,,,,,,,,,,,,,,repeat,letter,lettRpt,d,Lo,,,,,,0.8649,0,,,,,,,,high,10,0,10,0,1,,,,,,,,,
293161,2022-12-05_22h48.46.861,vts_reward_expectancy_bt,2022.2.4,MacIntel,59.97361161,Chrome,1280,800,,,,,0,719,,,,,,,,,,,,,,,,,S,132,star,1,0,,,,,,,,,,,,,,,,switch,number,numSwt,j,Hi,,,,,,1.2476,0,,,,,,,,high,11,0,11,0,1,,,,,,,,,
293161,2022-12-05_22h48.46.861,vts_reward_expectancy_bt,2022.2.4,MacIntel,59.97361161,Chrome,1280,800,,,,,1,720,,,,,,,,,,,,,,,,,H,174,hexagon,1,0,,,,,,,,,,,,,,,,switch,letter,lettSwt,d,Lo,,,,,,0.9247,0,,,,,,,,high,12,0,12,0,1,,,,,,,,,
293161,2022-12-05_22h48.46.861,vts_reward_expectancy_bt,2022.2.4,MacIntel,59.97361161,Chrome,1280,800,,,,,1,721,,,,,,,,,,,,,,,,,B,146,triangle,1,0,,,,,,,,,,,,,,,,repeat,letter,lettRpt,d,Lo,,,,,,0.5778,0,,,,,,,,high,13,0,13,0,1,,,,,,,,,
293161,2022-12-05_22h48.46.861,vts_reward_expectancy_bt,2022.2.4,MacIntel,59.97361161,Chrome,1280,800,,,,,10,731,,,,,,,,,,,,,,,,,W,160,star,1,0,,,,,,,,,,,,,,,,repeat,letter,lettRpt,f,Hi,,,,,,0.5814,0,,,,,,,,high,14,0,14,0,1,,,,,,,,,
293161,2022-12-05_22h48.46.861,vts_reward_expectancy_bt,2022.2.4,MacIntel,59.97361161,Chrome,1280,800,,,,,0,731,,,,,,,,,,,,,,,,,Y,125,circle,1,0,,,,,,,,,,,,,,,,switch,number,numSwt,j,Hi,,,,,,1.0152,0,,,,,,,,high,15,0,15,0,1,,,,,,,,,
293161,2022-12-05_22h48.46.861,vts_reward_expectancy_bt,2022.2.4,MacIntel,59.97361161,Chrome,1280,800,,,,,10,741,,,,,,,,,,,,,,,,,B,132,circle,1,0,,,,,,,,,,,,,,,,repeat,number,numRpt,j,Hi,,,,,,0.5142,0,,,,,,,,high,16,0,16,0,1,,,,,,,,,
293161,2022-12-05_22h48.46.861,vts_reward_expectancy_bt,2022.2.4,MacIntel,59.97361161,Chrome,1280,800,,,,,0,741,,,,,,,,,,,,,,,,,S,167,star,1,0,,,,,,,,,,,,,,,,switch,letter,lettSwt,f,Hi,,,,,,1.432,0,,,,,,,,high,17,0,17,0,1,,,,,,,,,
293161,2022-12-05_22h48.46.861,vts_reward_expectancy_bt,2022.2.4,MacIntel,59.97361161,Chrome,1280,800,,,,,1,742,,,,,,,,,,,,,,,,,D,174,triangle,1,0,,,,,,,,,,,,,,,,repeat,letter,lettRpt,d,Lo,,,,,,0.4492,0,,,,,,,,high,18,0,18,0,1,,,,,,,,,
293161,2022-12-05_22h48.46.861,vts_reward_expectancy_bt,2022.2.4,MacIntel,59.97361161,Chrome,1280,800,,,,,10,752,,,,,,,,,,,,,,,,,F,146,hexagon,1,0,,,,,,,,,,,,,,,,repeat,letter,lettRpt,d,Lo,,,,,,0.7146,0,,,,,,,,high,19,0,19,0,1,,,,,,,,,
293161,2022-12-05_22h48.46.861,vts_reward_expectancy_bt,2022.2.4,MacIntel,59.97361161,Chrome,1280,800,,,,,0,752,,,,,,,,,,,,,,,,,U,181,star,1,0,,,,,,,,,,,,,,,,repeat,letter,lettRpt,f,Hi,,,,,,1.3863,0,,,,,,,,high,20,0,20,0,1,,,,,,,,,
293161,2022-12-05_22h48.46.861,vts_reward_expectancy_bt,2022.2.4,MacIntel,59.97361161,Chrome,1280,800,,,,,1,753,,,,,,,,,,,,,,,,,Y,139,hexagon,1,0,,,,,,,,,,,,,,,,repeat,letter,lettRpt,f,Lo,,,,,,0.5617,0,,,,,,,,high,21,0,21,0,1,,,,,,,,,
293161,2022-12-05_22h48.46.861,vts_reward_expectancy_bt,2022.2.4,MacIntel,59.97361161,Chrome,1280,800,,,,,10,763,,,,,,,,,,,,,,,,,H,160,circle,1,0,,,,,,,,,,,,,,,,switch,number,numSwt,k,Hi,,,,,,0.6107,0,,,,,,,,high,22,0,22,0,1,,,,,,,,,
293161,2022-12-05_22h48.46.861,vts_reward_expectancy_bt,2022.2.4,MacIntel,59.97361161,Chrome,1280,800,,,,,1,764,,,,,,,,,,,,,,,,,W,125,triangle,1,0,,,,,,,,,,,,,,,,switch,letter,lettSwt,f,Lo,,,,,,0.5247,0,,,,,,,,high,23,0,23,0,1,,,,,,,,,
293161,2022-12-05_22h48.46.861,vts_reward_expectancy_bt,2022.2.4,MacIntel,59.97361161,Chrome,1280,800,,,,,10,774,,,,,,,,,,,,,,,,,W,139,star,1,0,,,,,,,,,,,,,,,,repeat,letter,lettRpt,f,Hi,,,,,,0.6836,0,,,,,,,,high,24,0,24,0,1,,,,,,,,,
293161,2022-12-05_22h48.46.861,vts_reward_expectancy_bt,2022.2.4,MacIntel,59.97361161,Chrome,1280,800,,,,,0,774,,,,,,,,,,,,,,,,,Y,146,circle,1,0,,,,,,,,,,,,,,,,switch,number,numSwt,j,Hi,,,,,,1.2145,0,,,,,,,,high,25,0,25,0,1,,,,,,,,,
293161,2022-12-05_22h48.46.861,vts_reward_expectancy_bt,2022.2.4,MacIntel,59.97361161,Chrome,1280,800,,,,,1,775,,,,,,,,,,,,,,,,,F,181,hexagon,1,0,,,,,,,,,,,,,,,,repeat,number,numRpt,k,Lo,,,,,,0.6158,0,,,,,,,,high,26,0,26,0,1,,,,,,,,,
293161,2022-12-05_22h48.46.861,vts_reward_expectancy_bt,2022.2.4,MacIntel,59.97361161,Chrome,1280,800,,,,,10,785,,,,,,,,,,,,,,,,,H,174,triangle,1,0,,,,,,,,,,,,,,,,switch,letter,lettSwt,d,Lo,,,,,,0.5866,0,,,,,,,,high,27,0,27,0,1,,,,,,,,,
293161,2022-12-05_22h48.46.861,vts_reward_expectancy_bt,2022.2.4,MacIntel,59.97361161,Chrome,1280,800,,,,,10,795,,,,,,,,,,,,,,,,,S,160,circle,1,0,,,,,,,,,,,,,,,,switch,number,numSwt,k,Hi,,,,,,0.5779,0,,,,,,,,high,28,0,28,0,1,,,,,,,,,
293161,2022-12-05_22h48.46.861,vts_reward_expectancy_bt,2022.2.4,MacIntel,59.97361161,Chrome,1280,800,,,,,1,796,,,,,,,,,,,,,,,,,B,132,star,1,0,,,,,,,,,,,,,,,,switch,letter,lettSwt,d,Hi,,,,,,0.4808,0,,,,,,,,high,29,0,29,0,1,,,,,,,,,
293161,2022-12-05_22h48.46.861,vts_reward_expectancy_bt,2022.2.4,MacIntel,59.97361161,Chrome,1280,800,,,,,10,806,,,,,,,,,,,,,,,,,D,125,triangle,1,0,,,,,,,,,,,,,,,,repeat,letter,lettRpt,d,Lo,,,,,,0.5651,0,,,,,,,,high,30,0,30,0,1,,,,,,,,,
293161,2022-12-05_22h48.46.861,vts_reward_expectancy_bt,2022.2.4,MacIntel,59.97361161,Chrome,1280,800,,,,,1,807,,,,,,,,,,,,,,,,,U,167,hexagon,1,0,,,,,,,,,,,,,,,,switch,number,numSwt,k,Lo,,,,,,1.0418,0,,,,,,,,high,31,0,31,0,1,,,,,,,,,
293161,2022-12-05_22h48.46.861,vts_reward_expectancy_bt,2022.2.4,MacIntel,59.97361161,Chrome,1280,800,,,,,0,807,,,,,,,,,,,,,,,,,H,146,triangle,0,0,,,,,,,,,,,,,,,,switch,letter,NA,f,Lo,,,,,,0.7362,1,,,,,,space,9.1668,high,0,0,0,0,1,,,,,,,,,
293161,2022-12-05_22h48.46.861,vts_reward_expectancy_bt,2022.2.4,MacIntel,59.97361161,Chrome,1280,800,,,,,0,807,,,,,,,,,,,,,,,,,U,139,star,1,1,,,,,,,,,,,,,,,,repeat,letter,lettRpt,f,Hi,,,,,,1.0323,1,,,,,,,,high,1,0,1,0,1,,,,,,,,,
293161,2022-12-05_22h48.46.861,vts_reward_expectancy_bt,2022.2.4,MacIntel,59.97361161,Chrome,1280,800,,,,,10,817,,,,,,,,,,,,,,,,,Y,181,circle,1,0,,,,,,,,,,,,,,,,repeat,letter,lettRpt,f,Hi,,,,,,0.5315,1,,,,,,,,high,2,0,2,0,1,,,,,,,,,
293161,2022-12-05_22h48.46.861,vts_reward_expectancy_bt,2022.2.4,MacIntel,59.97361161,Chrome,1280,800,,,,,1,818,,,,,,,,,,,,,,,,,S,167,hexagon,1,0,,,,,,,,,,,,,,,,repeat,letter,lettRpt,f,Lo,,,,,,0.5442,1,,,,,,,,high,3,0,3,0,1,,,,,,,,,
293161,2022-12-05_22h48.46.861,vts_reward_expectancy_bt,2022.2.4,MacIntel,59.97361161,Chrome,1280,800,,,,,1,819,,,,,,,,,,,,,,,,,F,125,triangle,1,0,,,,,,,,,,,,,,,,repeat,letter,lettRpt,d,Lo,,,,,,0.5656,1,,,,,,,,high,4,0,4,0,1,,,,,,,,,
293161,2022-12-05_22h48.46.861,vts_reward_expectancy_bt,2022.2.4,MacIntel,59.97361161,Chrome,1280,800,,,,,10,829,,,,,,,,,,,,,,,,,B,174,star,1,0,,,,,,,,,,,,,,,,repeat,letter,lettRpt,d,Hi,,,,,,0.481,1,,,,,,,,high,5,0,5,0,1,,,,,,,,,
293161,2022-12-05_22h48.46.861,vts_reward_expectancy_bt,2022.2.4,MacIntel,59.97361161,Chrome,1280,800,,,,,10,839,,,,,,,,,,,,,,,,,D,132,circle,1,0,,,,,,,,,,,,,,,,repeat,letter,lettRpt,d,Hi,,,,,,0.5428,1,,,,,,,,high,6,0,6,0,1,,,,,,,,,
293161,2022-12-05_22h48.46.861,vts_reward_expectancy_bt,2022.2.4,MacIntel,59.97361161,Chrome,1280,800,,,,,10,849,,,,,,,,,,,,,,,,,W,160,hexagon,1,0,,,,,,,,,,,,,,,,repeat,letter,lettRpt,f,Lo,,,,,,0.5476,1,,,,,,,,high,7,0,7,0,1,,,,,,,,,
293161,2022-12-05_22h48.46.861,vts_reward_expectancy_bt,2022.2.4,MacIntel,59.97361161,Chrome,1280,800,,,,,0,849,,,,,,,,,,,,,,,,,H,146,circle,1,0,,,,,,,,,,,,,,,,repeat,letter,lettRpt,d,Hi,,,,,,0.68,1,,,,,,,,high,8,0,8,0,1,,,,,,,,,
293161,2022-12-05_22h48.46.861,vts_reward_expectancy_bt,2022.2.4,MacIntel,59.97361161,Chrome,1280,800,,,,,1,850,,,,,,,,,,,,,,,,,U,139,triangle,1,0,,,,,,,,,,,,,,,,repeat,letter,lettRpt,f,Lo,,,,,,0.5494,1,,,,,,,,high,9,0,9,0,1,,,,,,,,,
293161,2022-12-05_22h48.46.861,vts_reward_expectancy_bt,2022.2.4,MacIntel,59.97361161,Chrome,1280,800,,,,,10,860,,,,,,,,,,,,,,,,,Y,181,star,1,0,,,,,,,,,,,,,,,,repeat,letter,lettRpt,f,Hi,,,,,,0.5361,1,,,,,,,,high,10,0,10,0,1,,,,,,,,,
293161,2022-12-05_22h48.46.861,vts_reward_expectancy_bt,2022.2.4,MacIntel,59.97361161,Chrome,1280,800,,,,,1,861,,,,,,,,,,,,,,,,,S,167,hexagon,1,0,,,,,,,,,,,,,,,,repeat,letter,lettRpt,f,Lo,,,,,,0.5481,1,,,,,,,,high,11,0,11,0,1,,,,,,,,,
293161,2022-12-05_22h48.46.861,vts_reward_expectancy_bt,2022.2.4,MacIntel,59.97361161,Chrome,1280,800,,,,,10,871,,,,,,,,,,,,,,,,,F,125,star,1,0,,,,,,,,,,,,,,,,repeat,letter,lettRpt,d,Hi,,,,,,0.5138,1,,,,,,,,high,12,0,12,0,1,,,,,,,,,
293161,2022-12-05_22h48.46.861,vts_reward_expectancy_bt,2022.2.4,MacIntel,59.97361161,Chrome,1280,800,,,,,10,881,,,,,,,,,,,,,,,,,B,174,triangle,1,0,,,,,,,,,,,,,,,,repeat,letter,lettRpt,d,Lo,,,,,,0.6976,1,,,,,,,,high,13,0,13,0,1,,,,,,,,,
293161,2022-12-05_22h48.46.861,vts_reward_expectancy_bt,2022.2.4,MacIntel,59.97361161,Chrome,1280,800,,,,,1,882,,,,,,,,,,,,,,,,,D,132,hexagon,1,0,,,,,,,,,,,,,,,,switch,number,numSwt,j,Lo,,,,,,0.6276,1,,,,,,,,high,14,0,14,0,1,,,,,,,,,
293161,2022-12-05_22h48.46.861,vts_reward_expectancy_bt,2022.2.4,MacIntel,59.97361161,Chrome,1280,800,,,,,0,882,,,,,,,,,,,,,,,,,W,160,circle,1,0,,,,,,,,,,,,,,,,repeat,number,numRpt,k,Hi,,,,,,0.5523,1,,,,,,,,high,15,0,15,0,1,,,,,,,,,
293161,2022-12-05_22h48.46.861,vts_reward_expectancy_bt,2022.2.4,MacIntel,59.97361161,Chrome,1280,800,,,,,1,883,,,,,,,,,,,,,,,,,F,181,hexagon,1,0,,,,,,,,,,,,,,,,repeat,number,numRpt,k,Lo,,,,,,0.5361,1,,,,,,,,high,16,0,16,0,1,,,,,,,,,
293161,2022-12-05_22h48.46.861,vts_reward_expectancy_bt,2022.2.4,MacIntel,59.97361161,Chrome,1280,800,,,,,0,883,,,,,,,,,,,,,,,,,H,146,star,1,0,,,,,,,,,,,,,,,,repeat,number,numRpt,j,Hi,,,,,,0.5649,1,,,,,,,,high,17,0,17,0,1,,,,,,,,,
293161,2022-12-05_22h48.46.861,vts_reward_expectancy_bt,2022.2.4,MacIntel,59.97361161,Chrome,1280,800,,,,,10,893,,,,,,,,,,,,,,,,,B,167,circle,1,0,,,,,,,,,,,,,,,,repeat,number,numRpt,k,Hi,,,,,,0.4937,1,,,,,,,,high,18,0,18,0,1,,,,,,,,,
293161,2022-12-05_22h48.46.861,vts_reward_expectancy_bt,2022.2.4,MacIntel,59.97361161,Chrome,1280,800,,,,,1,894,,,,,,,,,,,,,,,,,S,174,triangle,1,0,,,,,,,,,,,,,,,,repeat,number,numRpt,k,Lo,,,,,,0.5645,1,,,,,,,,high,19,0,19,0,1,,,,,,,,,
293161,2022-12-05_22h48.46.861,vts_reward_expectancy_bt,2022.2.4,MacIntel,59.97361161,Chrome,1280,800,,,,,1,895,,,,,,,,,,,,,,,,,D,125,triangle,1,0,,,,,,,,,,,,,,,,repeat,number,numRpt,j,Lo,,,,,,0.6381,1,,,,,,,,high,20,0,20,0,1,,,,,,,,,
293161,2022-12-05_22h48.46.861,vts_reward_expectancy_bt,2022.2.4,MacIntel,59.97361161,Chrome,1280,800,,,,,10,905,,,,,,,,,,,,,,,,,Y,139,circle,1,0,,,,,,,,,,,,,,,,repeat,number,numRpt,j,Hi,,,,,,0.4861,1,,,,,,,,high,21,0,21,0,1,,,,,,,,,
293161,2022-12-05_22h48.46.861,vts_reward_expectancy_bt,2022.2.4,MacIntel,59.97361161,Chrome,1280,800,,,,,0,905,,,,,,,,,,,,,,,,,W,160,star,1,0,,,,,,,,,,,,,,,,repeat,number,numRpt,k,Hi,,,,,,0.6762,1,,,,,,,,high,22,0,22,0,1,,,,,,,,,
293161,2022-12-05_22h48.46.861,vts_reward_expectancy_bt,2022.2.4,MacIntel,59.97361161,Chrome,1280,800,,,,,10,915,,,,,,,,,,,,,,,,,U,132,hexagon,1,0,,,,,,,,,,,,,,,,repeat,number,numRpt,j,Lo,,,,,,0.7811,1,,,,,,,,high,23,0,23,0,1,,,,,,,,,
293161,2022-12-05_22h48.46.861,vts_reward_expectancy_bt,2022.2.4,MacIntel,59.97361161,Chrome,1280,800,,,,,1,916,,,,,,,,,,,,,,,,,D,160,hexagon,1,0,,,,,,,,,,,,,,,,repeat,number,numRpt,k,Lo,,,,,,0.6157,1,,,,,,,,high,24,0,24,0,1,,,,,,,,,
293161,2022-12-05_22h48.46.861,vts_reward_expectancy_bt,2022.2.4,MacIntel,59.97361161,Chrome,1280,800,,,,,0,916,,,,,,,,,,,,,,,,,B,181,triangle,0,0,,,,,,,,,,,,,,,,switch,letter,NA,f,Lo,,,,,,0.5041,1,,,,,,,,high,25,0,25,0,1,,,,,,,,,
293161,2022-12-05_22h48.46.861,vts_reward_expectancy_bt,2022.2.4,MacIntel,59.97361161,Chrome,1280,800,,,,,0,916,,,,,,,,,,,,,,,,,U,139,circle,1,1,,,,,,,,,,,,,,,,repeat,letter,lettRpt,f,Hi,,,,,,0.6048,1,,,,,,,,high,26,0,26,0,1,,,,,,,,,
293161,2022-12-05_22h48.46.861,vts_reward_expectancy_bt,2022.2.4,MacIntel,59.97361161,Chrome,1280,800,,,,,10,926,,,,,,,,,,,,,,,,,H,132,star,1,0,,,,,,,,,,,,,,,,repeat,letter,lettRpt,d,Hi,,,,,,0.5253,1,,,,,,,,high,27,0,27,0,1,,,,,,,,,
293161,2022-12-05_22h48.46.861,vts_reward_expectancy_bt,2022.2.4,MacIntel,59.97361161,Chrome,1280,800,,,,,10,936,,,,,,,,,,,,,,,,,S,146,star,1,0,,,,,,,,,,,,,,,,repeat,letter,lettRpt,f,Hi,,,,,,0.5784,1,,,,,,,,high,28,0,28,0,1,,,,,,,,,
293161,2022-12-05_22h48.46.861,vts_reward_expectancy_bt,2022.2.4,MacIntel,59.97361161,Chrome,1280,800,,,,,1,937,,,,,,,,,,,,,,,,,F,174,circle,1,0,,,,,,,,,,,,,,,,repeat,letter,lettRpt,d,Hi,,,,,,0.4825,1,,,,,,,,high,29,0,29,0,1,,,,,,,,,
293161,2022-12-05_22h48.46.861,vts_reward_expectancy_bt,2022.2.4,MacIntel,59.97361161,Chrome,1280,800,,,,,1,938,,,,,,,,,,,,,,,,,W,125,hexagon,1,0,,,,,,,,,,,,,,,,repeat,letter,lettRpt,f,Lo,,,,,,0.5325,1,,,,,,,,high,30,0,30,0,1,,,,,,,,,
293161,2022-12-05_22h48.46.861,vts_reward_expectancy_bt,2022.2.4,MacIntel,59.97361161,Chrome,1280,800,,,,,1,939,,,,,,,,,,,,,,,,,Y,167,triangle,1,0,,,,,,,,,,,,,,,,repeat,letter,lettRpt,f,Lo,,,,,,0.5531,1,,,,,,,,high,31,0,31,0,1,,,,,,,,,
293161,2022-12-05_22h48.46.861,vts_reward_expectancy_bt,2022.2.4,MacIntel,59.97361161,Chrome,1280,800,,,,,0,939,,,,,,,,,,,,,,,,,W,132,star,1,0,,,,,,,,,,,,,,,,repeat,letter,lettRpt,f,Hi,,,,,,0.5364,2,,,,,,space,4.2953,high,0,0,0,0,1,,,,,,,,,
293161,2022-12-05_22h48.46.861,vts_reward_expectancy_bt,2022.2.4,MacIntel,59.97361161,Chrome,1280,800,,,,,1,940,,,,,,,,,,,,,,,,,B,167,triangle,1,0,,,,,,,,,,,,,,,,repeat,letter,lettRpt,d,Lo,,,,,,0.4927,2,,,,,,,,high,1,0,1,0,1,,,,,,,,,
293161,2022-12-05_22h48.46.861,vts_reward_expectancy_bt,2022.2.4,MacIntel,59.97361161,Chrome,1280,800,,,,,10,950,,,,,,,,,,,,,,,,,F,174,circle,1,0,,,,,,,,,,,,,,,,repeat,letter,lettRpt,d,Hi,,,,,,0.4796,2,,,,,,,,high,2,0,2,0,1,,,,,,,,,
293161,2022-12-05_22h48.46.861,vts_reward_expectancy_bt,2022.2.4,MacIntel,59.97361161,Chrome,1280,800,,,,,1,951,,,,,,,,,,,,,,,,,S,146,hexagon,1,0,,,,,,,,,,,,,,,,repeat,letter,lettRpt,f,Lo,,,,,,0.4032,2,,,,,,,,high,3,0,3,0,1,,,,,,,,,
293161,2022-12-05_22h48.46.861,vts_reward_expectancy_bt,2022.2.4,MacIntel,59.97361161,Chrome,1280,800,,,,,0,951,,,,,,,,,,,,,,,,,H,181,star,1,0,,,,,,,,,,,,,,,,repeat,letter,lettRpt,d,Hi,,,,,,0.6603,2,,,,,,,,high,4,0,4,0,1,,,,,,,,,
293161,2022-12-05_22h48.46.861,vts_reward_expectancy_bt,2022.2.4,MacIntel,59.97361161,Chrome,1280,800,,,,,0,951,,,,,,,,,,,,,,,,,D,160,triangle,0,0,,,,,,,,,,,,,,,,repeat,letter,NA,f,Hi,,,,,,0.4863,2,,,,,,,,high,5,0,5,0,1,,,,,,,,,
293161,2022-12-05_22h48.46.861,vts_reward_expectancy_bt,2022.2.4,MacIntel,59.97361161,Chrome,1280,800,,,,,10,961,,,,,,,,,,,,,,,,,Y,125,circle,1,1,,,,,,,,,,,,,,,,repeat,letter,lettRpt,f,Hi,,,,,,0.4649,2,,,,,,,,high,6,0,6,0,1,,,,,,,,,
293161,2022-12-05_22h48.46.861,vts_reward_expectancy_bt,2022.2.4,MacIntel,59.97361161,Chrome,1280,800,,,,,1,962,,,,,,,,,,,,,,,,,U,139,hexagon,1,0,,,,,,,,,,,,,,,,repeat,letter,lettRpt,f,Lo,,,,,,0.5662,2,,,,,,,,high,7,0,7,0,1,,,,,,,,,
293161,2022-12-05_22h48.46.861,vts_reward_expectancy_bt,2022.2.4,MacIntel,59.97361161,Chrome,1280,800,,,,,10,972,,,,,,,,,,,,,,,,,W,132,star,1,0,,,,,,,,,,,,,,,,repeat,letter,lettRpt,f,Hi,,,,,,0.5312,2,,,,,,,,high,8,0,8,0,1,,,,,,,,,
293161,2022-12-05_22h48.46.861,vts_reward_expectancy_bt,2022.2.4,MacIntel,59.97361161,Chrome,1280,800,,,,,10,982,,,,,,,,,,,,,,,,,B,167,circle,1,0,,,,,,,,,,,,,,,,repeat,letter,lettRpt,d,Hi,,,,,,0.5309,2,,,,,,,,high,9,0,9,0,1,,,,,,,,,
293161,2022-12-05_22h48.46.861,vts_reward_expectancy_bt,2022.2.4,MacIntel,59.97361161,Chrome,1280,800,,,,,1,983,,,,,,,,,,,,,,,,,F,174,triangle,1,0,,,,,,,,,,,,,,,,repeat,letter,lettRpt,d,Lo,,,,,,0.6653,2,,,,,,,,high,10,0,10,0,1,,,,,,,,,
293161,2022-12-05_22h48.46.861,vts_reward_expectancy_bt,2022.2.4,MacIntel,59.97361161,Chrome,1280,800,,,,,1,984,,,,,,,,,,,,,,,,,S,146,hexagon,1,0,,,,,,,,,,,,,,,,repeat,letter,lettRpt,f,Lo,,,,,,0.4804,2,,,,,,,,high,11,0,11,0,1,,,,,,,,,
293161,2022-12-05_22h48.46.861,vts_reward_expectancy_bt,2022.2.4,MacIntel,59.97361161,Chrome,1280,800,,,,,1,985,,,,,,,,,,,,,,,,,H,181,triangle,1,0,,,,,,,,,,,,,,,,repeat,letter,lettRpt,d,Lo,,,,,,0.6367,2,,,,,,,,high,12,0,12,0,1,,,,,,,,,
293161,2022-12-05_22h48.46.861,vts_reward_expectancy_bt,2022.2.4,MacIntel,59.97361161,Chrome,1280,800,,,,,10,995,,,,,,,,,,,,,,,,,D,160,circle,1,0,,,,,,,,,,,,,,,,repeat,letter,lettRpt,d,Hi,,,,,,0.4788,2,,,,,,,,high,13,0,13,0,1,,,,,,,,,
293161,2022-12-05_22h48.46.861,vts_reward_expectancy_bt,2022.2.4,MacIntel,59.97361161,Chrome,1280,800,,,,,0,995,,,,,,,,,,,,,,,,,Y,125,star,1,0,,,,,,,,,,,,,,,,repeat,letter,lettRpt,f,Hi,,,,,,0.6333,2,,,,,,,,high,14,0,14,0,1,,,,,,,,,
293161,2022-12-05_22h48.46.861,vts_reward_expectancy_bt,2022.2.4,MacIntel,59.97361161,Chrome,1280,800,,,,,1,996,,,,,,,,,,,,,,,,,U,139,hexagon,1,0,,,,,,,,,,,,,,,,repeat,letter,lettRpt,f,Lo,,,,,,0.4765,2,,,,,,,,high,15,0,15,0,1,,,,,,,,,
293161,2022-12-05_22h48.46.861,vts_reward_expectancy_bt,2022.2.4,MacIntel,59.97361161,Chrome,1280,800,,,,,1,997,,,,,,,,,,,,,,,,,F,139,star,1,0,,,,,,,,,,,,,,,,repeat,letter,lettRpt,d,Hi,,,,,,0.5235,2,,,,,,,,high,16,0,16,0,1,,,,,,,,,
293161,2022-12-05_22h48.46.861,vts_reward_expectancy_bt,2022.2.4,MacIntel,59.97361161,Chrome,1280,800,,,,,0,997,,,,,,,,,,,,,,,,,S,174,circle,1,0,,,,,,,,,,,,,,,,repeat,letter,lettRpt,f,Hi,,,,,,0.5614,2,,,,,,,,high,17,0,17,0,1,,,,,,,,,
293161,2022-12-05_22h48.46.861,vts_reward_expectancy_bt,2022.2.4,MacIntel,59.97361161,Chrome,1280,800,,,,,1,998,,,,,,,,,,,,,,,,,H,160,triangle,1,0,,,,,,,,,,,,,,,,repeat,letter,lettRpt,d,Lo,,,,,,0.627,2,,,,,,,,high,18,0,18,0,1,,,,,,,,,
293161,2022-12-05_22h48.46.861,vts_reward_expectancy_bt,2022.2.4,MacIntel,59.97361161,Chrome,1280,800,,,,,1,999,,,,,,,,,,,,,,,,,U,132,hexagon,1,0,,,,,,,,,,,,,,,,repeat,letter,lettRpt,f,Lo,,,,,,0.647,2,,,,,,,,high,19,0,19,0,1,,,,,,,,,
293161,2022-12-05_22h48.46.861,vts_reward_expectancy_bt,2022.2.4,MacIntel,59.97361161,Chrome,1280,800,,,,,1,1000,,,,,,,,,,,,,,,,,Y,146,triangle,1,0,,,,,,,,,,,,,,,,repeat,letter,lettRpt,f,Lo,,,,,,0.577,2,,,,,,,,high,20,0,20,0,1,,,,,,,,,
293161,2022-12-05_22h48.46.861,vts_reward_expectancy_bt,2022.2.4,MacIntel,59.97361161,Chrome,1280,800,,,,,10,1010,,,,,,,,,,,,,,,,,B,181,star,1,0,,,,,,,,,,,,,,,,repeat,letter,lettRpt,d,Hi,,,,,,0.3969,2,,,,,,,,high,21,0,21,0,1,,,,,,,,,
293161,2022-12-05_22h48.46.861,vts_reward_expectancy_bt,2022.2.4,MacIntel,59.97361161,Chrome,1280,800,,,,,10,1020,,,,,,,,,,,,,,,,,W,125,circle,1,0,,,,,,,,,,,,,,,,repeat,letter,lettRpt,f,Hi,,,,,,0.4806,2,,,,,,,,high,22,0,22,0,1,,,,,,,,,
293161,2022-12-05_22h48.46.861,vts_reward_expectancy_bt,2022.2.4,MacIntel,59.97361161,Chrome,1280,800,,,,,1,1021,,,,,,,,,,,,,,,,,D,167,hexagon,1,0,,,,,,,,,,,,,,,,repeat,letter,lettRpt,d,Lo,,,,,,0.3687,2,,,,,,,,high,23,0,23,0,1,,,,,,,,,
293161,2022-12-05_22h48.46.861,vts_reward_expectancy_bt,2022.2.4,MacIntel,59.97361161,Chrome,1280,800,,,,,10,1031,,,,,,,,,,,,,,,,,U,160,star,1,0,,,,,,,,,,,,,,,,repeat,letter,lettRpt,f,Hi,,,,,,0.4986,2,,,,,,,,high,24,0,24,0,1,,,,,,,,,
293161,2022-12-05_22h48.46.861,vts_reward_expectancy_bt,2022.2.4,MacIntel,59.97361161,Chrome,1280,800,,,,,10,1041,,,,,,,,,,,,,,,,,F,132,circle,1,0,,,,,,,,,,,,,,,,repeat,letter,lettRpt,d,Hi,,,,,,0.4941,2,,,,,,,,high,25,0,25,0,1,,,,,,,,,
293161,2022-12-05_22h48.46.861,vts_reward_expectancy_bt,2022.2.4,MacIntel,59.97361161,Chrome,1280,800,,,,,1,1042,,,,,,,,,,,,,,,,,S,146,triangle,1,0,,,,,,,,,,,,,,,,repeat,letter,lettRpt,f,Lo,,,,,,0.423,2,,,,,,,,high,26,0,26,0,1,,,,,,,,,
293161,2022-12-05_22h48.46.861,vts_reward_expectancy_bt,2022.2.4,MacIntel,59.97361161,Chrome,1280,800,,,,,1,1043,,,,,,,,,,,,,,,,,W,167,hexagon,1,0,,,,,,,,,,,,,,,,repeat,letter,lettRpt,f,Lo,,,,,,0.4274,2,,,,,,,,high,27,0,27,0,1,,,,,,,,,
293161,2022-12-05_22h48.46.861,vts_reward_expectancy_bt,2022.2.4,MacIntel,59.97361161,Chrome,1280,800,,,,,0,1043,,,,,,,,,,,,,,,,,Y,125,circle,0,0,,,,,,,,,,,,,,,,repeat,letter,NA,d,Lo,,,,,,0.3816,2,,,,,,,,high,28,0,28,0,1,,,,,,,,,
293161,2022-12-05_22h48.46.861,vts_reward_expectancy_bt,2022.2.4,MacIntel,59.97361161,Chrome,1280,800,,,,,0,1043,,,,,,,,,,,,,,,,,H,181,triangle,0,1,,,,,,,,,,,,,,,,repeat,letter,NA,f,Lo,,,,,,0.5802,2,,,,,,,,high,29,0,29,0,1,,,,,,,,,
293161,2022-12-05_22h48.46.861,vts_reward_expectancy_bt,2022.2.4,MacIntel,59.97361161,Chrome,1280,800,,,,,0,1043,,,,,,,,,,,,,,,,,B,174,star,1,1,,,,,,,,,,,,,,,,repeat,letter,lettRpt,d,Hi,,,,,,0.6187,2,,,,,,,,high,30,0,30,0,1,,,,,,,,,
293161,2022-12-05_22h48.46.861,vts_reward_expectancy_bt,2022.2.4,MacIntel,59.97361161,Chrome,1280,800,,,,,1,1044,,,,,,,,,,,,,,,,,D,139,hexagon,1,0,,,,,,,,,,,,,,,,repeat,letter,lettRpt,d,Lo,,,,,,0.5204,2,,,,,,,,high,31,0,31,0,1,,,,,,,,,
293161,2022-12-05_22h48.46.861,vts_reward_expectancy_bt,2022.2.4,MacIntel,59.97361161,Chrome,1280,800,,,,,0,1044,,,,,,,,,,,,,,,,,W,174,circle,1,0,,,,,,,,,,,,,,,,repeat,letter,lettRpt,f,Hi,,,,,,0.5975,3,,,,,,space,2.9943,high,0,0,0,0,1,,,,,,,,,
293161,2022-12-05_22h48.46.861,vts_reward_expectancy_bt,2022.2.4,MacIntel,59.97361161,Chrome,1280,800,,,,,1,1045,,,,,,,,,,,,,,,,,Y,146,hexagon,1,0,,,,,,,,,,,,,,,,repeat,letter,lettRpt,f,Lo,,,,,,0.4698,3,,,,,,,,high,1,0,1,0,1,,,,,,,,,
293161,2022-12-05_22h48.46.861,vts_reward_expectancy_bt,2022.2.4,MacIntel,59.97361161,Chrome,1280,800,,,,,1,1046,,,,,,,,,,,,,,,,,S,139,triangle,1,0,,,,,,,,,,,,,,,,repeat,letter,lettRpt,f,Lo,,,,,,0.7331,3,,,,,,,,high,2,0,2,0,1,,,,,,,,,
293161,2022-12-05_22h48.46.861,vts_reward_expectancy_bt,2022.2.4,MacIntel,59.97361161,Chrome,1280,800,,,,,0,1046,,,,,,,,,,,,,,,,,H,160,star,1,0,,,,,,,,,,,,,,,,repeat,letter,lettRpt,d,Hi,,,,,,0.5303,3,,,,,,,,high,3,0,3,0,1,,,,,,,,,
293161,2022-12-05_22h48.46.861,vts_reward_expectancy_bt,2022.2.4,MacIntel,59.97361161,Chrome,1280,800,,,,,1,1047,,,,,,,,,,,,,,,,,U,181,circle,1,0,,,,,,,,,,,,,,,,repeat,letter,lettRpt,f,Hi,,,,,,0.4361,3,,,,,,,,high,4,0,4,0,1,,,,,,,,,
293161,2022-12-05_22h48.46.861,vts_reward_expectancy_bt,2022.2.4,MacIntel,59.97361161,Chrome,1280,800,,,,,1,1048,,,,,,,,,,,,,,,,,F,132,hexagon,1,0,,,,,,,,,,,,,,,,repeat,letter,lettRpt,d,Lo,,,,,,0.5991,3,,,,,,,,high,5,0,5,0,1,,,,,,,,,
293161,2022-12-05_22h48.46.861,vts_reward_expectancy_bt,2022.2.4,MacIntel,59.97361161,Chrome,1280,800,,,,,1,1049,,,,,,,,,,,,,,,,,B,125,triangle,1,0,,,,,,,,,,,,,,,,repeat,letter,lettRpt,d,Lo,,,,,,0.5471,3,,,,,,,,high,6,0,6,0,1,,,,,,,,,
293161,2022-12-05_22h48.46.861,vts_reward_expectancy_bt,2022.2.4,MacIntel,59.97361161,Chrome,1280,800,,,,,0,1049,,,,,,,,,,,,,,,,,D,167,star,0,0,,,,,,,,,,,,,,,,repeat,letter,NA,f,Lo,,,,,,0.4374,3,,,,,,,,high,7,0,7,0,1,,,,,,,,,
293161,2022-12-05_22h48.46.861,vts_reward_expectancy_bt,2022.2.4,MacIntel,59.97361161,Chrome,1280,800,,,,,0,1049,,,,,,,,,,,,,,,,,W,174,circle,1,1,,,,,,,,,,,,,,,,repeat,letter,lettRpt,f,Hi,,,,,,0.4845,3,,,,,,,,high,8,0,8,0,1,,,,,,,,,
293161,2022-12-05_22h48.46.861,vts_reward_expectancy_bt,2022.2.4,MacIntel,59.97361161,Chrome,1280,800,,,,,0,1049,,,,,,,,,,,,,,,,,Y,146,star,1,0,,,,,,,,,,,,,,,,repeat,letter,lettRpt,f,Hi,,,,,,0.5262,3,,,,,,,,high,9,0,9,0,1,,,,,,,,,
293161,2022-12-05_22h48.46.861,vts_reward_expectancy_bt,2022.2.4,MacIntel,59.97361161,Chrome,1280,800,,,,,1,1050,,,,,,,,,,,,,,,,,S,139,hexagon,1,0,,,,,,,,,,,,,,,,repeat,letter,lettRpt,f,Lo,,,,,,0.5546,3,,,,,,,,high,10,0,10,0,1,,,,,,,,,
293161,2022-12-05_22h48.46.861,vts_reward_expectancy_bt,2022.2.4,MacIntel,59.97361161,Chrome,1280,800,,,,,0,1050,,,,,,,,,,,,,,,,,H,160,triangle,0,0,,,,,,,,,,,,,,,,repeat,letter,NA,f,Lo,,,,,,0.6712,3,,,,,,,,high,11,0,11,0,1,,,,,,,,,
293161,2022-12-05_22h48.46.861,vts_reward_expectancy_bt,2022.2.4,MacIntel,59.97361161,Chrome,1280,800,,,,,1,1051,,,,,,,,,,,,,,,,,U,181,hexagon,1,1,,,,,,,,,,,,,,,,repeat,letter,lettRpt,f,Lo,,,,,,0.6539,3,,,,,,,,high,12,0,12,0,1,,,,,,,,,
293161,2022-12-05_22h48.46.861,vts_reward_expectancy_bt,2022.2.4,MacIntel,59.97361161,Chrome,1280,800,,,,,0,1051,,,,,,,,,,,,,,,,,F,132,circle,1,0,,,,,,,,,,,,,,,,repeat,letter,lettRpt,d,Hi,,,,,,0.5406,3,,,,,,,,high,13,0,13,0,1,,,,,,,,,
293161,2022-12-05_22h48.46.861,vts_reward_expectancy_bt,2022.2.4,MacIntel,59.97361161,Chrome,1280,800,,,,,0,1051,,,,,,,,,,,,,,,,,B,125,star,1,0,,,,,,,,,,,,,,,,repeat,letter,lettRpt,d,Hi,,,,,,0.5856,3,,,,,,,,high,14,0,14,0,1,,,,,,,,,
293161,2022-12-05_22h48.46.861,vts_reward_expectancy_bt,2022.2.4,MacIntel,59.97361161,Chrome,1280,800,,,,,10,1061,,,,,,,,,,,,,,,,,D,167,triangle,1,0,,,,,,,,,,,,,,,,repeat,letter,lettRpt,d,Lo,,,,,,0.4982,3,,,,,,,,high,15,0,15,0,1,,,,,,,,,
293161,2022-12-05_22h48.46.861,vts_reward_expectancy_bt,2022.2.4,MacIntel,59.97361161,Chrome,1280,800,,,,,1,1062,,,,,,,,,,,,,,,,,S,146,triangle,1,0,,,,,,,,,,,,,,,,repeat,letter,lettRpt,f,Lo,,,,,,0.4259,3,,,,,,,,high,16,0,16,0,1,,,,,,,,,
293161,2022-12-05_22h48.46.861,vts_reward_expectancy_bt,2022.2.4,MacIntel,59.97361161,Chrome,1280,800,,,,,10,1072,,,,,,,,,,,,,,,,,Y,160,hexagon,1,0,,,,,,,,,,,,,,,,repeat,letter,lettRpt,f,Lo,,,,,,0.4678,3,,,,,,,,high,17,0,17,0,1,,,,,,,,,
293161,2022-12-05_22h48.46.861,vts_reward_expectancy_bt,2022.2.4,MacIntel,59.97361161,Chrome,1280,800,,,,,0,1072,,,,,,,,,,,,,,,,,W,132,star,1,0,,,,,,,,,,,,,,,,repeat,letter,lettRpt,f,Hi,,,,,,0.5073,3,,,,,,,,high,18,0,18,0,1,,,,,,,,,
293161,2022-12-05_22h48.46.861,vts_reward_expectancy_bt,2022.2.4,MacIntel,59.97361161,Chrome,1280,800,,,,,0,1072,,,,,,,,,,,,,,,,,H,174,circle,1,0,,,,,,,,,,,,,,,,repeat,letter,lettRpt,d,Hi,,,,,,0.6149,3,,,,,,,,high,19,0,19,0,1,,,,,,,,,
293161,2022-12-05_22h48.46.861,vts_reward_expectancy_bt,2022.2.4,MacIntel,59.97361161,Chrome,1280,800,,,,,1,1073,,,,,,,,,,,,,,,,,F,167,hexagon,1,0,,,,,,,,,,,,,,,,repeat,letter,lettRpt,d,Lo,,,,,,0.6202,3,,,,,,,,high,20,0,20,0,1,,,,,,,,,
293161,2022-12-05_22h48.46.861,vts_reward_expectancy_bt,2022.2.4,MacIntel,59.97361161,Chrome,1280,800,,,,,0,1073,,,,,,,,,,,,,,,,,B,181,circle,1,0,,,,,,,,,,,,,,,,repeat,letter,lettRpt,d,Hi,,,,,,0.5103,3,,,,,,,,high,21,0,21,0,1,,,,,,,,,
293161,2022-12-05_22h48.46.861,vts_reward_expectancy_bt,2022.2.4,MacIntel,59.97361161,Chrome,1280,800,,,,,0,1073,,,,,,,,,,,,,,,,,D,139,star,1,0,,,,,,,,,,,,,,,,repeat,letter,lettRpt,d,Hi,,,,,,0.7609,3,,,,,,,,high,22,0,22,0,1,,,,,,,,,
293161,2022-12-05_22h48.46.861,vts_reward_expectancy_bt,2022.2.4,MacIntel,59.97361161,Chrome,1280,800,,,,,1,1074,,,,,,,,,,,,,,,,,U,125,triangle,1,0,,,,,,,,,,,,,,,,repeat,letter,lettRpt,f,Lo,,,,,,0.4181,3,,,,,,,,high,23,0,23,0,1,,,,,,,,,
293161,2022-12-05_22h48.46.861,vts_reward_expectancy_bt,2022.2.4,MacIntel,59.97361161,Chrome,1280,800,,,,,10,1084,,,,,,,,,,,,,,,,,D,174,circle,1,0,,,,,,,,,,,,,,,,repeat,letter,lettRpt,d,Hi,,,,,,0.365,3,,,,,,,,high,24,0,24,0,1,,,,,,,,,
293161,2022-12-05_22h48.46.861,vts_reward_expectancy_bt,2022.2.4,MacIntel,59.97361161,Chrome,1280,800,,,,,0,1084,,,,,,,,,,,,,,,,,U,146,hexagon,0,0,,,,,,,,,,,,,,,,repeat,letter,NA,d,Hi,,,,,,0.3512,3,,,,,,,,high,25,0,25,0,1,,,,,,,,,
293161,2022-12-05_22h48.46.861,vts_reward_expectancy_bt,2022.2.4,MacIntel,59.97361161,Chrome,1280,800,,,,,1,1085,,,,,,,,,,,,,,,,,B,132,triangle,1,1,,,,,,,,,,,,,,,,repeat,letter,lettRpt,d,Lo,,,,,,0.3653,3,,,,,,,,high,26,0,26,0,1,,,,,,,,,
293161,2022-12-05_22h48.46.861,vts_reward_expectancy_bt,2022.2.4,MacIntel,59.97361161,Chrome,1280,800,,,,,0,1085,,,,,,,,,,,,,,,,,S,160,star,1,0,,,,,,,,,,,,,,,,repeat,letter,lettRpt,f,Hi,,,,,,0.5284,3,,,,,,,,high,27,0,27,0,1,,,,,,,,,
293161,2022-12-05_22h48.46.861,vts_reward_expectancy_bt,2022.2.4,MacIntel,59.97361161,Chrome,1280,800,,,,,0,1085,,,,,,,,,,,,,,,,,F,167,circle,1,0,,,,,,,,,,,,,,,,repeat,letter,lettRpt,d,Hi,,,,,,0.5183,3,,,,,,,,high,28,0,28,0,1,,,,,,,,,
293161,2022-12-05_22h48.46.861,vts_reward_expectancy_bt,2022.2.4,MacIntel,59.97361161,Chrome,1280,800,,,,,0,1085,,,,,,,,,,,,,,,,,W,139,star,1,0,,,,,,,,,,,,,,,,repeat,letter,lettRpt,f,Hi,,,,,,0.5869,3,,,,,,,,high,29,0,29,0,1,,,,,,,,,
293161,2022-12-05_22h48.46.861,vts_reward_expectancy_bt,2022.2.4,MacIntel,59.97361161,Chrome,1280,800,,,,,10,1095,,,,,,,,,,,,,,,,,H,125,triangle,1,0,,,,,,,,,,,,,,,,repeat,letter,lettRpt,d,Lo,,,,,,0.2296,3,,,,,,,,high,30,0,30,0,1,,,,,,,,,
293161,2022-12-05_22h48.46.861,vts_reward_expectancy_bt,2022.2.4,MacIntel,59.97361161,Chrome,1280,800,,,,,0,1095,,,,,,,,,,,,,,,,,Y,181,hexagon,0,0,,,,,,,,,,,,,,,,repeat,letter,NA,d,Lo,,,,,,0.2818,3,,,,,,,,high,31,0,31,0,1,,,,,,,,,
293161,2022-12-05_22h48.46.861,vts_reward_expectancy_bt,2022.2.4,MacIntel,59.97361161,Chrome,1280,800,,,,,0,1095,,,,,,,,,,,,,,,,,H,167,hexagon,0,1,,,,,,,,,,,,,,,,repeat,letter,NA,f,Lo,,,,,,0.5305,4,,,,,,space,3.6195,high,0,0,0,0,1,,,,,,,,,
293161,2022-12-05_22h48.46.861,vts_reward_expectancy_bt,2022.2.4,MacIntel,59.97361161,Chrome,1280,800,,,,,1,1096,,,,,,,,,,,,,,,,,B,181,circle,1,1,,,,,,,,,,,,,,,,repeat,letter,lettRpt,d,Hi,,,,,,0.4865,4,,,,,,,,high,1,0,1,0,1,,,,,,,,,
293161,2022-12-05_22h48.46.861,vts_reward_expectancy_bt,2022.2.4,MacIntel,59.97361161,Chrome,1280,800,,,,,1,1097,,,,,,,,,,,,,,,,,S,160,star,1,0,,,,,,,,,,,,,,,,repeat,letter,lettRpt,f,Hi,,,,,,0.4262,4,,,,,,,,high,2,0,2,0,1,,,,,,,,,
293161,2022-12-05_22h48.46.861,vts_reward_expectancy_bt,2022.2.4,MacIntel,59.97361161,Chrome,1280,800,,,,,1,1098,,,,,,,,,,,,,,,,,W,139,triangle,1,0,,,,,,,,,,,,,,,,repeat,letter,lettRpt,f,Lo,,,,,,0.587,4,,,,,,,,high,3,0,3,0,1,,,,,,,,,
293161,2022-12-05_22h48.46.861,vts_reward_expectancy_bt,2022.2.4,MacIntel,59.97361161,Chrome,1280,800,,,,,1,1099,,,,,,,,,,,,,,,,,Y,146,hexagon,1,0,,,,,,,,,,,,,,,,repeat,letter,lettRpt,f,Lo,,,,,,0.4352,4,,,,,,,,high,4,0,4,0,1,,,,,,,,,
293161,2022-12-05_22h48.46.861,vts_reward_expectancy_bt,2022.2.4,MacIntel,59.97361161,Chrome,1280,800,,,,,0,1099,,,,,,,,,,,,,,,,,F,125,circle,1,0,,,,,,,,,,,,,,,,repeat,letter,lettRpt,d,Hi,,,,,,0.5483,4,,,,,,,,high,5,0,5,0,1,,,,,,,,,
293161,2022-12-05_22h48.46.861,vts_reward_expectancy_bt,2022.2.4,MacIntel,59.97361161,Chrome,1280,800,,,,,10,1109,,,,,,,,,,,,,,,,,D,174,star,1,0,,,,,,,,,,,,,,,,repeat,letter,lettRpt,d,Hi,,,,,,0.493,4,,,,,,,,high,6,0,6,0,1,,,,,,,,,
293161,2022-12-05_22h48.46.861,vts_reward_expectancy_bt,2022.2.4,MacIntel,59.97361161,Chrome,1280,800,,,,,1,1110,,,,,,,,,,,,,,,,,U,132,triangle,1,0,,,,,,,,,,,,,,,,repeat,letter,lettRpt,f,Lo,,,,,,0.704,4,,,,,,,,high,7,0,7,0,1,,,,,,,,,
293161,2022-12-05_22h48.46.861,vts_reward_expectancy_bt,2022.2.4,MacIntel,59.97361161,Chrome,1280,800,,,,,1,1111,,,,,,,,,,,,,,,,,H,167,hexagon,1,0,,,,,,,,,,,,,,,,repeat,letter,lettRpt,d,Lo,,,,,,0.6814,4,,,,,,,,high,8,0,8,0,1,,,,,,,,,
293161,2022-12-05_22h48.46.861,vts_reward_expectancy_bt,2022.2.4,MacIntel,59.97361161,Chrome,1280,800,,,,,1,1112,,,,,,,,,,,,,,,,,B,181,triangle,1,0,,,,,,,,,,,,,,,,repeat,letter,lettRpt,d,Lo,,,,,,0.56,4,,,,,,,,high,9,0,9,0,1,,,,,,,,,
293161,2022-12-05_22h48.46.861,vts_reward_expectancy_bt,2022.2.4,MacIntel,59.97361161,Chrome,1280,800,,,,,0,1112,,,,,,,,,,,,,,,,,S,160,circle,1,0,,,,,,,,,,,,,,,,repeat,letter,lettRpt,f,Hi,,,,,,0.5788,4,,,,,,,,high,10,0,10,0,1,,,,,,,,,
293161,2022-12-05_22h48.46.861,vts_reward_expectancy_bt,2022.2.4,MacIntel,59.97361161,Chrome,1280,800,,,,,1,1113,,,,,,,,,,,,,,,,,W,139,star,1,0,,,,,,,,,,,,,,,,repeat,letter,lettRpt,f,Hi,,,,,,0.4531,4,,,,,,,,high,11,0,11,0,1,,,,,,,,,
293161,2022-12-05_22h48.46.861,vts_reward_expectancy_bt,2022.2.4,MacIntel,59.97361161,Chrome,1280,800,,,,,1,1114,,,,,,,,,,,,,,,,,Y,146,triangle,1,0,,,,,,,,,,,,,,,,repeat,letter,lettRpt,f,Lo,,,,,,0.5374,4,,,,,,,,high,12,0,12,0,1,,,,,,,,,
293161,2022-12-05_22h48.46.861,vts_reward_expectancy_bt,2022.2.4,MacIntel,59.97361161,Chrome,1280,800,,,,,10,1124,,,,,,,,,,,,,,,,,F,125,hexagon,1,0,,,,,,,,,,,,,,,,repeat,letter,lettRpt,d,Lo,,,,,,0.4933,4,,,,,,,,high,13,0,13,0,1,,,,,,,,,
293161,2022-12-05_22h48.46.861,vts_reward_expectancy_bt,2022.2.4,MacIntel,59.97361161,Chrome,1280,800,,,,,10,1134,,,,,,,,,,,,,,,,,D,174,star,1,0,,,,,,,,,,,,,,,,repeat,letter,lettRpt,d,Hi,,,,,,0.3261,4,,,,,,,,high,14,0,14,0,1,,,,,,,,,
293161,2022-12-05_22h48.46.861,vts_reward_expectancy_bt,2022.2.4,MacIntel,59.97361161,Chrome,1280,800,,,,,10,1144,,,,,,,,,,,,,,,,,U,132,circle,1,0,,,,,,,,,,,,,,,,repeat,letter,lettRpt,f,Hi,,,,,,0.4011,4,,,,,,,,high,15,0,15,0,1,,,,,,,,,
293161,2022-12-05_22h48.46.861,vts_reward_expectancy_bt,2022.2.4,MacIntel,59.97361161,Chrome,1280,800,,,,,0,1144,,,,,,,,,,,,,,,,,F,167,star,0,0,,,,,,,,,,,,,,,,repeat,letter,NA,f,Hi,,,,,,0.3921,4,,,,,,,,high,16,0,16,0,1,,,,,,,,,
293161,2022-12-05_22h48.46.861,vts_reward_expectancy_bt,2022.2.4,MacIntel,59.97361161,Chrome,1280,800,,,,,0,1144,,,,,,,,,,,,,,,,,D,125,circle,1,1,,,,,,,,,,,,,,,,repeat,letter,lettRpt,d,Hi,,,,,,0.6754,4,,,,,,,,high,17,0,17,0,1,,,,,,,,,
293161,2022-12-05_22h48.46.861,vts_reward_expectancy_bt,2022.2.4,MacIntel,59.97361161,Chrome,1280,800,,,,,1,1145,,,,,,,,,,,,,,,,,W,174,hexagon,1,0,,,,,,,,,,,,,,,,repeat,letter,lettRpt,f,Lo,,,,,,0.4364,4,,,,,,,,high,18,0,18,0,1,,,,,,,,,
293161,2022-12-05_22h48.46.861,vts_reward_expectancy_bt,2022.2.4,MacIntel,59.97361161,Chrome,1280,800,,,,,10,1155,,,,,,,,,,,,,,,,,U,139,triangle,1,0,,,,,,,,,,,,,,,,repeat,letter,lettRpt,f,Lo,,,,,,0.6989,4,,,,,,,,high,19,0,19,0,1,,,,,,,,,
293161,2022-12-05_22h48.46.861,vts_reward_expectancy_bt,2022.2.4,MacIntel,59.97361161,Chrome,1280,800,,,,,10,1165,,,,,,,,,,,,,,,,,B,160,circle,1,0,,,,,,,,,,,,,,,,repeat,letter,lettRpt,d,Hi,,,,,,0.2641,4,,,,,,,,high,20,0,20,0,1,,,,,,,,,
293161,2022-12-05_22h48.46.861,vts_reward_expectancy_bt,2022.2.4,MacIntel,59.97361161,Chrome,1280,800,,,,,1,1166,,,,,,,,,,,,,,,,,S,146,hexagon,1,0,,,,,,,,,,,,,,,,repeat,letter,lettRpt,f,Lo,,,,,,0.1688,4,,,,,,,,high,21,0,21,0,1,,,,,,,,,
293161,2022-12-05_22h48.46.861,vts_reward_expectancy_bt,2022.2.4,MacIntel,59.97361161,Chrome,1280,800,,,,,0,1166,,,,,,,,,,,,,,,,,Y,181,triangle,0,0,,,,,,,,,,,,,,,,repeat,letter,NA,d,Lo,,,,,,0.1257,4,,,,,,,,high,22,0,22,0,1,,,,,,,,,
293161,2022-12-05_22h48.46.861,vts_reward_expectancy_bt,2022.2.4,MacIntel,59.97361161,Chrome,1280,800,,,,,10,1176,,,,,,,,,,,,,,,,,H,132,star,1,1,,,,,,,,,,,,,,,,repeat,letter,lettRpt,d,Hi,,,,,,0.0969,4,,,,,,,,high,23,0,23,0,1,,,,,,,,,
293161,2022-12-05_22h48.46.861,vts_reward_expectancy_bt,2022.2.4,MacIntel,59.97361161,Chrome,1280,800,,,,,10,1186,,,,,,,,,,,,,,,,,B,146,circle,1,0,,,,,,,,,,,,,,,,repeat,letter,lettRpt,d,Hi,,,,,,0.1748,4,,,,,,,,high,24,0,24,0,1,,,,,,,,,
293161,2022-12-05_22h48.46.861,vts_reward_expectancy_bt,2022.2.4,MacIntel,59.97361161,Chrome,1280,800,,,,,1,1187,,,,,,,,,,,,,,,,,U,125,hexagon,1,0,,,,,,,,,,,,,,,,repeat,letter,lettRpt,f,Lo,,,,,,0.22,4,,,,,,,,high,25,0,25,0,1,,,,,,,,,
293161,2022-12-05_22h48.46.861,vts_reward_expectancy_bt,2022.2.4,MacIntel,59.97361161,Chrome,1280,800,,,,,0,1187,,,,,,,,,,,,,,,,,S,160,star,0,0,,,,,,,,,,,,,,,,repeat,letter,NA,d,Lo,,,,,,0.0965,4,,,,,,,,high,26,0,26,0,1,,,,,,,,,
293161,2022-12-05_22h48.46.861,vts_reward_expectancy_bt,2022.2.4,MacIntel,59.97361161,Chrome,1280,800,,,,,1,1188,,,,,,,,,,,,,,,,,H,181,triangle,1,1,,,,,,,,,,,,,,,,repeat,letter,lettRpt,d,Lo,,,,,,0.2375,4,,,,,,,,high,27,0,27,0,1,,,,,,,,,
293161,2022-12-05_22h48.46.861,vts_reward_expectancy_bt,2022.2.4,MacIntel,59.97361161,Chrome,1280,800,,,,,10,1198,,,,,,,,,,,,,,,,,W,139,star,1,0,,,,,,,,,,,,,,,,repeat,letter,lettRpt,f,Hi,,,,,,0.1742,4,,,,,,,,high,28,0,28,0,1,,,,,,,,,
293161,2022-12-05_22h48.46.861,vts_reward_expectancy_bt,2022.2.4,MacIntel,59.97361161,Chrome,1280,800,,,,,1,1199,,,,,,,,,,,,,,,,,D,167,circle,1,0,,,,,,,,,,,,,,,,repeat,letter,lettRpt,d,Hi,,,,,,0.0312,4,,,,,,,,high,29,0,29,0,1,,,,,,,,,
293161,2022-12-05_22h48.46.861,vts_reward_expectancy_bt,2022.2.4,MacIntel,59.97361161,Chrome,1280,800,,,,,0,1199,,,,,,,,,,,,,,,,,F,132,hexagon,0,0,,,,,,,,,,,,,,,,repeat,letter,NA,f,Hi,,,,,,0.254,4,,,,,,,,high,30,0,30,0,1,,,,,,,,,
293161,2022-12-05_22h48.46.861,vts_reward_expectancy_bt,2022.2.4,MacIntel,59.97361161,Chrome,1280,800,,,,,0,1199,,,,,,,,,,,,,,,,,Y,174,triangle,0,1,,,,,,,,,,,,,,,,repeat,letter,NA,d,Hi,,,,,,0.029,4,,,,,,,,high,31,0,31,0,1,,,,,,,,,
293161,2022-12-05_22h48.46.861,vts_reward_expectancy_bt,2022.2.4,MacIntel,59.97361161,Chrome,1280,800,,,,,10,1209,,,,,,,,,,,,,,,,,U,139,hexagon,1,1,,,,,,,,,,,,,,,,repeat,letter,lettRpt,f,Lo,,,,,,0.2436,5,,,,,,space,3.4065,high,0,0,0,0,1,,,,,,,,,
293161,2022-12-05_22h48.46.861,vts_reward_expectancy_bt,2022.2.4,MacIntel,59.97361161,Chrome,1280,800,,,,,10,1219,,,,,,,,,,,,,,,,,H,174,star,1,0,,,,,,,,,,,,,,,,repeat,letter,lettRpt,d,Hi,,,,,,0.2416,5,,,,,,,,high,1,0,1,0,1,,,,,,,,,
293161,2022-12-05_22h48.46.861,vts_reward_expectancy_bt,2022.2.4,MacIntel,59.97361161,Chrome,1280,800,,,,,1,1220,,,,,,,,,,,,,,,,,S,160,triangle,1,0,,,,,,,,,,,,,,,,repeat,letter,lettRpt,f,Lo,,,,,,0.2633,5,,,,,,,,high,2,0,2,0,1,,,,,,,,,
293161,2022-12-05_22h48.46.861,vts_reward_expectancy_bt,2022.2.4,MacIntel,59.97361161,Chrome,1280,800,,,,,10,1230,,,,,,,,,,,,,,,,,D,125,circle,1,0,,,,,,,,,,,,,,,,repeat,letter,lettRpt,d,Hi,,,,,,0.0811,5,,,,,,,,high,3,0,3,0,1,,,,,,,,,
293161,2022-12-05_22h48.46.861,vts_reward_expectancy_bt,2022.2.4,MacIntel,59.97361161,Chrome,1280,800,,,,,0,1230,,,,,,,,,,,,,,,,,Y,181,hexagon,0,0,,,,,,,,,,,,,,,,repeat,letter,NA,d,Hi,,,,,,0.2532,5,,,,,,,,high,4,0,4,0,1,,,,,,,,,
293161,2022-12-05_22h48.46.861,vts_reward_expectancy_bt,2022.2.4,MacIntel,59.97361161,Chrome,1280,800,,,,,0,1230,,,,,,,,,,,,,,,,,W,146,star,0,1,,,,,,,,,,,,,,,,repeat,letter,NA,d,Hi,,,,,,0.1149,5,,,,,,,,high,5,0,5,0,1,,,,,,,,,
293161,2022-12-05_22h48.46.861,vts_reward_expectancy_bt,2022.2.4,MacIntel,59.97361161,Chrome,1280,800,,,,,1,1231,,,,,,,,,,,,,,,,,B,132,triangle,1,1,,,,,,,,,,,,,,,,repeat,letter,lettRpt,d,Lo,,,,,,0.3023,5,,,,,,,,high,6,0,6,0,1,,,,,,,,,
293161,2022-12-05_22h48.46.861,vts_reward_expectancy_bt,2022.2.4,MacIntel,59.97361161,Chrome,1280,800,,,,,10,1241,,,,,,,,,,,,,,,,,F,167,circle,1,0,,,,,,,,,,,,,,,,repeat,letter,lettRpt,d,Hi,,,,,,0.2822,5,,,,,,,,high,7,0,7,0,1,,,,,,,,,
293161,2022-12-05_22h48.46.861,vts_reward_expectancy_bt,2022.2.4,MacIntel,59.97361161,Chrome,1280,800,,,,,1,1242,,,,,,,,,,,,,,,,,U,139,hexagon,1,0,,,,,,,,,,,,,,,,repeat,letter,lettRpt,f,Lo,,,,,,0.2674,5,,,,,,,,high,8,0,8,0,1,,,,,,,,,
293161,2022-12-05_22h48.46.861,vts_reward_expectancy_bt,2022.2.4,MacIntel,59.97361161,Chrome,1280,800,,,,,0,1242,,,,,,,,,,,,,,,,,H,174,star,0,0,,,,,,,,,,,,,,,,repeat,letter,NA,f,Lo,,,,,,0.2599,5,,,,,,,,high,9,0,9,0,1,,,,,,,,,
293161,2022-12-05_22h48.46.861,vts_reward_expectancy_bt,2022.2.4,MacIntel,59.97361161,Chrome,1280,800,,,,,0,1242,,,,,,,,,,,,,,,,,S,160,circle,0,1,,,,,,,,,,,,,,,,repeat,letter,NA,d,Lo,,,,,,0.2592,5,,,,,,,,high,10,0,10,0,1,,,,,,,,,
293161,2022-12-05_22h48.46.861,vts_reward_expectancy_bt,2022.2.4,MacIntel,59.97361161,Chrome,1280,800,,,,,0,1242,,,,,,,,,,,,,,,,,D,125,triangle,0,1,,,,,,,,,,,,,,,,repeat,letter,NA,f,Lo,,,,,,0.1646,5,,,,,,,,high,11,0,11,0,1,,,,,,,,,
293161,2022-12-05_22h48.46.861,vts_reward_expectancy_bt,2022.2.4,MacIntel,59.97361161,Chrome,1280,800,,,,,0,1242,,,,,,,,,,,,,,,,,Y,181,triangle,0,1,,,,,,,,,,,,,,,,repeat,letter,NA,d,Lo,,,,,,0.3402,5,,,,,,,,high,12,0,12,0,1,,,,,,,,,
293161,2022-12-05_22h48.46.861,vts_reward_expectancy_bt,2022.2.4,MacIntel,59.97361161,Chrome,1280,800,,,,,10,1252,,,,,,,,,,,,,,,,,W,146,hexagon,1,1,,,,,,,,,,,,,,,,repeat,letter,lettRpt,f,Lo,,,,,,0.314,5,,,,,,,,high,13,0,13,0,1,,,,,,,,,
293161,2022-12-05_22h48.46.861,vts_reward_expectancy_bt,2022.2.4,MacIntel,59.97361161,Chrome,1280,800,,,,,10,1262,,,,,,,,,,,,,,,,,B,132,circle,1,0,,,,,,,,,,,,,,,,repeat,letter,lettRpt,d,Hi,,,,,,0.2366,5,,,,,,,,high,14,0,14,0,1,,,,,,,,,
293161,2022-12-05_22h48.46.861,vts_reward_expectancy_bt,2022.2.4,MacIntel,59.97361161,Chrome,1280,800,,,,,0,1262,,,,,,,,,,,,,,,,,F,167,star,0,0,,,,,,,,,,,,,,,,repeat,letter,NA,f,Hi,,,,,,0.286,5,,,,,,,,high,15,0,15,0,1,,,,,,,,,
293161,2022-12-05_22h48.46.861,vts_reward_expectancy_bt,2022.2.4,MacIntel,59.97361161,Chrome,1280,800,,,,,0,1262,,,,,,,,,,,,,,,,,B,160,star,1,1,,,,,,,,,,,,,,,,repeat,letter,lettRpt,d,Hi,,,,,,0.4817,5,,,,,,,,high,16,0,16,0,1,,,,,,,,,
293161,2022-12-05_22h48.46.861,vts_reward_expectancy_bt,2022.2.4,MacIntel,59.97361161,Chrome,1280,800,,,,,1,1263,,,,,,,,,,,,,,,,,S,132,hexagon,1,0,,,,,,,,,,,,,,,,repeat,letter,lettRpt,f,Lo,,,,,,0.1364,5,,,,,,,,high,17,0,17,0,1,,,,,,,,,
293161,2022-12-05_22h48.46.861,vts_reward_expectancy_bt,2022.2.4,MacIntel,59.97361161,Chrome,1280,800,,,,,1,1264,,,,,,,,,,,,,,,,,F,167,triangle,1,0,,,,,,,,,,,,,,,,repeat,letter,lettRpt,d,Lo,,,,,,0.2828,5,,,,,,,,high,18,0,18,0,1,,,,,,,,,
293161,2022-12-05_22h48.46.861,vts_reward_expectancy_bt,2022.2.4,MacIntel,59.97361161,Chrome,1280,800,,,,,0,1264,,,,,,,,,,,,,,,,,D,125,circle,1,0,,,,,,,,,,,,,,,,repeat,letter,lettRpt,d,Hi,,,,,,0.4773,5,,,,,,,,high,19,0,19,0,1,,,,,,,,,
293161,2022-12-05_22h48.46.861,vts_reward_expectancy_bt,2022.2.4,MacIntel,59.97361161,Chrome,1280,800,,,,,10,1274,,,,,,,,,,,,,,,,,W,146,star,1,0,,,,,,,,,,,,,,,,repeat,letter,lettRpt,f,Hi,,,,,,0.2269,5,,,,,,,,high,20,0,20,0,1,,,,,,,,,
293161,2022-12-05_22h48.46.861,vts_reward_expectancy_bt,2022.2.4,MacIntel,59.97361161,Chrome,1280,800,,,,,10,1284,,,,,,,,,,,,,,,,,Y,174,triangle,1,0,,,,,,,,,,,,,,,,repeat,letter,lettRpt,f,Lo,,,,,,0.3996,5,,,,,,,,high,21,0,21,0,1,,,,,,,,,
293161,2022-12-05_22h48.46.861,vts_reward_expectancy_bt,2022.2.4,MacIntel,59.97361161,Chrome,1280,800,,,,,0,1284,,,,,,,,,,,,,,,,,U,139,circle,0,0,,,,,,,,,,,,,,,,repeat,letter,NA,d,Lo,,,,,,0.26,5,,,,,,,,high,22,0,22,0,1,,,,,,,,,
293161,2022-12-05_22h48.46.861,vts_reward_expectancy_bt,2022.2.4,MacIntel,59.97361161,Chrome,1280,800,,,,,0,1284,,,,,,,,,,,,,,,,,H,181,hexagon,0,1,,,,,,,,,,,,,,,,repeat,letter,NA,f,Lo,,,,,,0.3537,5,,,,,,,,high,23,0,23,0,1,,,,,,,,,
293161,2022-12-05_22h48.46.861,vts_reward_expectancy_bt,2022.2.4,MacIntel,59.97361161,Chrome,1280,800,,,,,0,1284,,,,,,,,,,,,,,,,,U,125,star,0,1,,,,,,,,,,,,,,,,repeat,letter,NA,d,Lo,,,,,,0.325,5,,,,,,,,high,24,0,24,0,1,,,,,,,,,
293161,2022-12-05_22h48.46.861,vts_reward_expectancy_bt,2022.2.4,MacIntel,59.97361161,Chrome,1280,800,,,,,0,1284,,,,,,,,,,,,,,,,,D,139,triangle,0,1,,,,,,,,,,,,,,,,repeat,letter,NA,f,Lo,,,,,,0.3635,5,,,,,,,,high,25,0,25,0,1,,,,,,,,,
293161,2022-12-05_22h48.46.861,vts_reward_expectancy_bt,2022.2.4,MacIntel,59.97361161,Chrome,1280,800,,,,,0,1284,,,,,,,,,,,,,,,,,S,132,circle,1,1,,,,,,,,,,,,,,,,repeat,letter,lettRpt,f,Hi,,,,,,0.5587,5,,,,,,,,high,26,0,26,0,1,,,,,,,,,
293161,2022-12-05_22h48.46.861,vts_reward_expectancy_bt,2022.2.4,MacIntel,59.97361161,Chrome,1280,800,,,,,1,1285,,,,,,,,,,,,,,,,,Y,181,hexagon,1,0,,,,,,,,,,,,,,,,repeat,letter,lettRpt,f,Lo,,,,,,0.1795,5,,,,,,,,high,27,0,27,0,1,,,,,,,,,
293161,2022-12-05_22h48.46.861,vts_reward_expectancy_bt,2022.2.4,MacIntel,59.97361161,Chrome,1280,800,,,,,10,1295,,,,,,,,,,,,,,,,,F,174,circle,1,0,,,,,,,,,,,,,,,,repeat,letter,lettRpt,d,Hi,,,,,,0.0599,5,,,,,,,,high,28,0,28,0,1,,,,,,,,,
293161,2022-12-05_22h48.46.861,vts_reward_expectancy_bt,2022.2.4,MacIntel,59.97361161,Chrome,1280,800,,,,,0,1295,,,,,,,,,,,,,,,,,H,146,hexagon,0,0,,,,,,,,,,,,,,,,repeat,letter,NA,f,Hi,,,,,,0.3528,5,,,,,,,,high,29,0,29,0,1,,,,,,,,,
293161,2022-12-05_22h48.46.861,vts_reward_expectancy_bt,2022.2.4,MacIntel,59.97361161,Chrome,1280,800,,,,,10,1305,,,,,,,,,,,,,,,,,B,160,triangle,1,1,,,,,,,,,,,,,,,,repeat,letter,lettRpt,d,Lo,,,,,,0.37,5,,,,,,,,high,30,0,30,0,1,,,,,,,,,
293161,2022-12-05_22h48.46.861,vts_reward_expectancy_bt,2022.2.4,MacIntel,59.97361161,Chrome,1280,800,,,,,10,1315,,,,,,,,,,,,,,,,,W,167,star,1,0,,,,,,,,,,,,,,,,repeat,letter,lettRpt,f,Hi,,,,,,0.3176,5,,,,,,,,high,31,0,31,0,1,,,,,,,,,
293161,2022-12-05_22h48.46.861,vts_reward_expectancy_bt,2022.2.4,MacIntel,59.97361161,Chrome,1280,800,,,,,0,1315,,,,,,,,,,,,,,,,,S,132,circle,1,0,,,,,,,,,,,,,,,,repeat,letter,lettRpt,f,Hi,,,,,,0.586,6,,,,,,space,2.3698,high,0,0,0,0,1,,,,,,,,,
