participant,date,expName,psychopyVersion,OS,frameRate,browser,xResolution,yResolution,key_resp.keys,key_resp.rt,training_resp.keys,training_resp.rt,points_trial,points_cumul,trainBlock,training.thisRepN,training.thisTrialN,training.thisN,training.thisIndex,training.ran,LTriangleOpac,LCircleOpac,LHexagonOpac,LStarOpac,RTriangleOpac,RCircleOpac,RHexagonOpac,RStarOpac,LShape_ID,RShape_ID,curr_topStim,curr_bottStim,curr_shape,acc,E1,target_resp_prac1.keys,pracBlock,task1_prac_trials.thisRepN,task1_prac_trials.thisTrialN,task1_prac_trials.thisN,task1_prac_trials.thisIndex,task1_prac_trials.ran,target_resp_prac1.rt,target_resp_prac2.keys,target_resp_prac2.rt,task2_praac_trials.thisRepN,task2_praac_trials.thisTrialN,task2_praac_trials.thisN,task2_praac_trials.thisIndex,task2_praac_trials.ran,alt,task,condition,target_resp.keys,target_resp.rt,rewCond,vts_practice_trials.thisRepN,vts_practice_trials.thisTrialN,vts_practice_trials.thisN,vts_practice_trials.thisIndex,vts_practice_trials.ran,blockNum,trials_norew.thisRepN,trials_norew.thisTrialN,trials_norew.thisN,trials_norew.thisIndex,trials_norew.ran,key_resp_2.keys,key_resp_2.rt,rewExpectancy,trials_rew.thisRepN,trials_rew.thisTrialN,trials_rew.thisN,trials_rew.thisIndex,trials_rew.ran,Q1,Q2,Q2_text,Q3,Q4,Q5_text,Q5,xRes,yRes
293119,2022-11-28_15h37.24.332,vts_reward_expectancy_bt,2022.2.4,MacIntel,58.82352941,Safari,1440,900,,,,,,,,,,,,,,,,,,,,,,,,,,,,,,,,,,,,,,,,,,,,,,,,,,,,,,,,,,,,,,,,,,,,,,,,,,,,
293119,2022-11-28_15h37.24.332,vts_reward_expectancy_bt,2022.2.4,MacIntel,58.82352941,Safari,1440,900,space,30.601,,,,,,,,,,,,,,,,,,,,,,,,,,,,,,,,,,,,,,,,,,,,,,,,,,,,,,,,,,,,,,,,,,,,,,,,,,
293119,2022-11-28_15h37.24.332,vts_reward_expectancy_bt,2022.2.4,MacIntel,58.82352941,Safari,1440,900,,,,,,,,,,,,,,,,,,,,,,,,,,,,,,,,,,,,,,,,,,,,,,,,,,,,,,,,,,,,,,,,,,,,,,,,,,,,
293119,2022-11-28_15h37.24.332,vts_reward_expectancy_bt,2022.2.4,MacIntel,58.82352941,Safari,1440,900,,,a,1.346,0,0,0,0,0,0,10,1,0,0,0,1,0,1,0,0,star ,circle,,,,,,,,,,,,,,,,,,,,,,,,,,,,,,,,,,,,,,,,,,,,,,,,,,,,,,
293119,2022-11-28_15h37.24.332,vts_reward_expectancy_bt,2022.2.4,MacIntel,58.82352941,Safari,1440,900,,,l,2.154,1,1,0,0,1,1,1,1,1,0,0,0,0,0,1,0,triangle,hexagon,,,,,,,,,,,,,,,,,,,,,,,,,,,,,,,,,,,,,,,,,,,,,,,,,,,,,,
293119,2022-11-28_15h37.24.332,vts_reward_expectancy_bt,2022.2.4,MacIntel,58.82352941,Safari,1440,900,,,a,3.297,10,11,0,0,2,2,2,1,1,0,0,0,0,0,0,1,triangle,star,,,,,,,,,,,,,,,,,,,,,,,,,,,,,,,,,,,,,,,,,,,,,,,,,,,,,,
293119,2022-11-28_15h37.24.332,vts_reward_expectancy_bt,2022.2.4,MacIntel,58.82352941,Safari,1440,900,,,l,1.024,1,12,0,0,3,3,11,1,0,0,0,1,0,0,1,0,star,hexagon,,,,,,,,,,,,,,,,,,,,,,,,,,,,,,,,,,,,,,,,,,,,,,,,,,,,,,
293119,2022-11-28_15h37.24.332,vts_reward_expectancy_bt,2022.2.4,MacIntel,58.82352941,Safari,1440,900,,,a,1.843,10,22,0,0,4,4,4,1,0,1,0,0,0,0,1,0,circle,hexagon,,,,,,,,,,,,,,,,,,,,,,,,,,,,,,,,,,,,,,,,,,,,,,,,,,,,,,
293119,2022-11-28_15h37.24.332,vts_reward_expectancy_bt,2022.2.4,MacIntel,58.82352941,Safari,1440,900,,,a,0.734,10,32,0,0,5,5,0,1,1,0,0,0,0,1,0,0,triangle,circle,,,,,,,,,,,,,,,,,,,,,,,,,,,,,,,,,,,,,,,,,,,,,,,,,,,,,,
293119,2022-11-28_15h37.24.332,vts_reward_expectancy_bt,2022.2.4,MacIntel,58.82352941,Safari,1440,900,,,a,1.083,1,33,0,0,6,6,8,1,0,0,1,0,0,0,0,1,hexagon,star,,,,,,,,,,,,,,,,,,,,,,,,,,,,,,,,,,,,,,,,,,,,,,,,,,,,,,
293119,2022-11-28_15h37.24.332,vts_reward_expectancy_bt,2022.2.4,MacIntel,58.82352941,Safari,1440,900,,,l,1.42,10,43,0,0,7,7,3,1,0,1,0,0,1,0,0,0,circle,triangle,,,,,,,,,,,,,,,,,,,,,,,,,,,,,,,,,,,,,,,,,,,,,,,,,,,,,,
293119,2022-11-28_15h37.24.332,vts_reward_expectancy_bt,2022.2.4,MacIntel,58.82352941,Safari,1440,900,,,l,1.003,10,53,0,0,8,8,6,1,0,0,1,0,1,0,0,0,hexagon,triangle,,,,,,,,,,,,,,,,,,,,,,,,,,,,,,,,,,,,,,,,,,,,,,,,,,,,,,
293119,2022-11-28_15h37.24.332,vts_reward_expectancy_bt,2022.2.4,MacIntel,58.82352941,Safari,1440,900,,,a,0.976,1,54,0,0,9,9,9,1,0,0,0,1,1,0,0,0,star,triangle,,,,,,,,,,,,,,,,,,,,,,,,,,,,,,,,,,,,,,,,,,,,,,,,,,,,,,
293119,2022-11-28_15h37.24.332,vts_reward_expectancy_bt,2022.2.4,MacIntel,58.82352941,Safari,1440,900,,,a,1.15,1,55,0,0,10,10,5,1,0,1,0,0,0,0,0,1,circle,star,,,,,,,,,,,,,,,,,,,,,,,,,,,,,,,,,,,,,,,,,,,,,,,,,,,,,,
293119,2022-11-28_15h37.24.332,vts_reward_expectancy_bt,2022.2.4,MacIntel,58.82352941,Safari,1440,900,,,l,1.034,10,65,0,0,11,11,7,1,0,0,1,0,0,1,0,0,hexagon,circle,,,,,,,,,,,,,,,,,,,,,,,,,,,,,,,,,,,,,,,,,,,,,,,,,,,,,,
293119,2022-11-28_15h37.24.332,vts_reward_expectancy_bt,2022.2.4,MacIntel,58.82352941,Safari,1440,900,,,l,3.023,1,66,0,1,0,12,9,1,0,0,0,1,1,0,0,0,star,triangle,,,,,,,,,,,,,,,,,,,,,,,,,,,,,,,,,,,,,,,,,,,,,,,,,,,,,,
293119,2022-11-28_15h37.24.332,vts_reward_expectancy_bt,2022.2.4,MacIntel,58.82352941,Safari,1440,900,,,a,1.273,10,76,0,1,1,13,2,1,1,0,0,0,0,0,0,1,triangle,star,,,,,,,,,,,,,,,,,,,,,,,,,,,,,,,,,,,,,,,,,,,,,,,,,,,,,,
293119,2022-11-28_15h37.24.332,vts_reward_expectancy_bt,2022.2.4,MacIntel,58.82352941,Safari,1440,900,,,a,1.551,10,86,0,1,2,14,5,1,0,1,0,0,0,0,0,1,circle,star,,,,,,,,,,,,,,,,,,,,,,,,,,,,,,,,,,,,,,,,,,,,,,,,,,,,,,
293119,2022-11-28_15h37.24.332,vts_reward_expectancy_bt,2022.2.4,MacIntel,58.82352941,Safari,1440,900,,,l,0.934,10,96,0,1,3,15,7,1,0,0,1,0,0,1,0,0,hexagon,circle,,,,,,,,,,,,,,,,,,,,,,,,,,,,,,,,,,,,,,,,,,,,,,,,,,,,,,
293119,2022-11-28_15h37.24.332,vts_reward_expectancy_bt,2022.2.4,MacIntel,58.82352941,Safari,1440,900,,,l,0.942,10,106,0,1,4,16,8,1,0,0,1,0,0,0,0,1,hexagon,star,,,,,,,,,,,,,,,,,,,,,,,,,,,,,,,,,,,,,,,,,,,,,,,,,,,,,,
293119,2022-11-28_15h37.24.332,vts_reward_expectancy_bt,2022.2.4,MacIntel,58.82352941,Safari,1440,900,,,l,1.42,10,116,0,1,5,17,6,1,0,0,1,0,1,0,0,0,hexagon,triangle,,,,,,,,,,,,,,,,,,,,,,,,,,,,,,,,,,,,,,,,,,,,,,,,,,,,,,
293119,2022-11-28_15h37.24.332,vts_reward_expectancy_bt,2022.2.4,MacIntel,58.82352941,Safari,1440,900,,,l,1.02,10,126,0,1,6,18,10,1,0,0,0,1,0,1,0,0,star ,circle,,,,,,,,,,,,,,,,,,,,,,,,,,,,,,,,,,,,,,,,,,,,,,,,,,,,,,
293119,2022-11-28_15h37.24.332,vts_reward_expectancy_bt,2022.2.4,MacIntel,58.82352941,Safari,1440,900,,,a,1.759,10,136,0,1,7,19,0,1,1,0,0,0,0,1,0,0,triangle,circle,,,,,,,,,,,,,,,,,,,,,,,,,,,,,,,,,,,,,,,,,,,,,,,,,,,,,,
293119,2022-11-28_15h37.24.332,vts_reward_expectancy_bt,2022.2.4,MacIntel,58.82352941,Safari,1440,900,,,a,0.82,10,146,0,1,8,20,1,1,1,0,0,0,0,0,1,0,triangle,hexagon,,,,,,,,,,,,,,,,,,,,,,,,,,,,,,,,,,,,,,,,,,,,,,,,,,,,,,
293119,2022-11-28_15h37.24.332,vts_reward_expectancy_bt,2022.2.4,MacIntel,58.82352941,Safari,1440,900,,,l,0.921,1,147,0,1,9,21,3,1,0,1,0,0,1,0,0,0,circle,triangle,,,,,,,,,,,,,,,,,,,,,,,,,,,,,,,,,,,,,,,,,,,,,,,,,,,,,,
293119,2022-11-28_15h37.24.332,vts_reward_expectancy_bt,2022.2.4,MacIntel,58.82352941,Safari,1440,900,,,a,0.735,10,157,0,1,10,22,4,1,0,1,0,0,0,0,1,0,circle,hexagon,,,,,,,,,,,,,,,,,,,,,,,,,,,,,,,,,,,,,,,,,,,,,,,,,,,,,,
293119,2022-11-28_15h37.24.332,vts_reward_expectancy_bt,2022.2.4,MacIntel,58.82352941,Safari,1440,900,,,a,1.72,1,158,0,1,11,23,11,1,0,0,0,1,0,0,1,0,star,hexagon,,,,,,,,,,,,,,,,,,,,,,,,,,,,,,,,,,,,,,,,,,,,,,,,,,,,,,
293119,2022-11-28_15h37.24.332,vts_reward_expectancy_bt,2022.2.4,MacIntel,58.82352941,Safari,1440,900,,,l,1.904,10,168,0,2,0,24,6,1,0,0,1,0,1,0,0,0,hexagon,triangle,,,,,,,,,,,,,,,,,,,,,,,,,,,,,,,,,,,,,,,,,,,,,,,,,,,,,,
293119,2022-11-28_15h37.24.332,vts_reward_expectancy_bt,2022.2.4,MacIntel,58.82352941,Safari,1440,900,,,l,1.689,1,169,0,2,1,25,8,1,0,0,1,0,0,0,0,1,hexagon,star,,,,,,,,,,,,,,,,,,,,,,,,,,,,,,,,,,,,,,,,,,,,,,,,,,,,,,
293119,2022-11-28_15h37.24.332,vts_reward_expectancy_bt,2022.2.4,MacIntel,58.82352941,Safari,1440,900,,,a,1.137,10,179,0,2,2,26,4,1,0,1,0,0,0,0,1,0,circle,hexagon,,,,,,,,,,,,,,,,,,,,,,,,,,,,,,,,,,,,,,,,,,,,,,,,,,,,,,
293119,2022-11-28_15h37.24.332,vts_reward_expectancy_bt,2022.2.4,MacIntel,58.82352941,Safari,1440,900,,,a,1.687,10,189,0,2,3,27,0,1,1,0,0,0,0,1,0,0,triangle,circle,,,,,,,,,,,,,,,,,,,,,,,,,,,,,,,,,,,,,,,,,,,,,,,,,,,,,,
293119,2022-11-28_15h37.24.332,vts_reward_expectancy_bt,2022.2.4,MacIntel,58.82352941,Safari,1440,900,,,l,3.343,10,199,0,2,4,28,9,1,0,0,0,1,1,0,0,0,star,triangle,,,,,,,,,,,,,,,,,,,,,,,,,,,,,,,,,,,,,,,,,,,,,,,,,,,,,,
293119,2022-11-28_15h37.24.332,vts_reward_expectancy_bt,2022.2.4,MacIntel,58.82352941,Safari,1440,900,,,l,2.975,1,200,0,2,5,29,10,1,0,0,0,1,0,1,0,0,star ,circle,,,,,,,,,,,,,,,,,,,,,,,,,,,,,,,,,,,,,,,,,,,,,,,,,,,,,,
293119,2022-11-28_15h37.24.332,vts_reward_expectancy_bt,2022.2.4,MacIntel,58.82352941,Safari,1440,900,,,a,1.125,10,210,0,2,6,30,1,1,1,0,0,0,0,0,1,0,triangle,hexagon,,,,,,,,,,,,,,,,,,,,,,,,,,,,,,,,,,,,,,,,,,,,,,,,,,,,,,
293119,2022-11-28_15h37.24.332,vts_reward_expectancy_bt,2022.2.4,MacIntel,58.82352941,Safari,1440,900,,,a,2.725,1,211,0,2,7,31,11,1,0,0,0,1,0,0,1,0,star,hexagon,,,,,,,,,,,,,,,,,,,,,,,,,,,,,,,,,,,,,,,,,,,,,,,,,,,,,,
293119,2022-11-28_15h37.24.332,vts_reward_expectancy_bt,2022.2.4,MacIntel,58.82352941,Safari,1440,900,,,a,4.686,10,221,0,2,8,32,2,1,1,0,0,0,0,0,0,1,triangle,star,,,,,,,,,,,,,,,,,,,,,,,,,,,,,,,,,,,,,,,,,,,,,,,,,,,,,,
293119,2022-11-28_15h37.24.332,vts_reward_expectancy_bt,2022.2.4,MacIntel,58.82352941,Safari,1440,900,,,l,1.152,1,222,0,2,9,33,7,1,0,0,1,0,0,1,0,0,hexagon,circle,,,,,,,,,,,,,,,,,,,,,,,,,,,,,,,,,,,,,,,,,,,,,,,,,,,,,,
293119,2022-11-28_15h37.24.332,vts_reward_expectancy_bt,2022.2.4,MacIntel,58.82352941,Safari,1440,900,,,l,1.354,10,232,0,2,10,34,3,1,0,1,0,0,1,0,0,0,circle,triangle,,,,,,,,,,,,,,,,,,,,,,,,,,,,,,,,,,,,,,,,,,,,,,,,,,,,,,
293119,2022-11-28_15h37.24.332,vts_reward_expectancy_bt,2022.2.4,MacIntel,58.82352941,Safari,1440,900,,,a,0.938,1,233,0,2,11,35,5,1,0,1,0,0,0,0,0,1,circle,star,,,,,,,,,,,,,,,,,,,,,,,,,,,,,,,,,,,,,,,,,,,,,,,,,,,,,,
293119,2022-11-28_15h37.24.332,vts_reward_expectancy_bt,2022.2.4,MacIntel,58.82352941,Safari,1440,900,,,a,1.948,10,243,1,0,0,0,3,1,0,1,0,0,1,0,0,0,circle,triangle,,,,,,,,,,,,,,,,,,,,,,,,,,,,,,,,,,,,,,,,,,,,,,,,,,,,,,
293119,2022-11-28_15h37.24.332,vts_reward_expectancy_bt,2022.2.4,MacIntel,58.82352941,Safari,1440,900,,,l,0.848,10,253,1,0,1,1,10,1,0,0,0,1,0,1,0,0,star ,circle,,,,,,,,,,,,,,,,,,,,,,,,,,,,,,,,,,,,,,,,,,,,,,,,,,,,,,
293119,2022-11-28_15h37.24.332,vts_reward_expectancy_bt,2022.2.4,MacIntel,58.82352941,Safari,1440,900,,,a,1.727,1,254,1,0,2,2,0,1,1,0,0,0,0,1,0,0,triangle,circle,,,,,,,,,,,,,,,,,,,,,,,,,,,,,,,,,,,,,,,,,,,,,,,,,,,,,,
293119,2022-11-28_15h37.24.332,vts_reward_expectancy_bt,2022.2.4,MacIntel,58.82352941,Safari,1440,900,,,a,0.92,10,264,1,0,3,3,2,1,1,0,0,0,0,0,0,1,triangle,star,,,,,,,,,,,,,,,,,,,,,,,,,,,,,,,,,,,,,,,,,,,,,,,,,,,,,,
293119,2022-11-28_15h37.24.332,vts_reward_expectancy_bt,2022.2.4,MacIntel,58.82352941,Safari,1440,900,,,a,1.218,1,265,1,0,4,4,11,1,0,0,0,1,0,0,1,0,star,hexagon,,,,,,,,,,,,,,,,,,,,,,,,,,,,,,,,,,,,,,,,,,,,,,,,,,,,,,
293119,2022-11-28_15h37.24.332,vts_reward_expectancy_bt,2022.2.4,MacIntel,58.82352941,Safari,1440,900,,,l,1.006,10,275,1,0,5,5,6,1,0,0,1,0,1,0,0,0,hexagon,triangle,,,,,,,,,,,,,,,,,,,,,,,,,,,,,,,,,,,,,,,,,,,,,,,,,,,,,,
293119,2022-11-28_15h37.24.332,vts_reward_expectancy_bt,2022.2.4,MacIntel,58.82352941,Safari,1440,900,,,a,1.469,10,285,1,0,6,6,5,1,0,1,0,0,0,0,0,1,circle,star,,,,,,,,,,,,,,,,,,,,,,,,,,,,,,,,,,,,,,,,,,,,,,,,,,,,,,
293119,2022-11-28_15h37.24.332,vts_reward_expectancy_bt,2022.2.4,MacIntel,58.82352941,Safari,1440,900,,,l,0.888,10,295,1,0,7,7,9,1,0,0,0,1,1,0,0,0,star,triangle,,,,,,,,,,,,,,,,,,,,,,,,,,,,,,,,,,,,,,,,,,,,,,,,,,,,,,
293119,2022-11-28_15h37.24.332,vts_reward_expectancy_bt,2022.2.4,MacIntel,58.82352941,Safari,1440,900,,,a,0.926,10,305,1,0,8,8,4,1,0,1,0,0,0,0,1,0,circle,hexagon,,,,,,,,,,,,,,,,,,,,,,,,,,,,,,,,,,,,,,,,,,,,,,,,,,,,,,
293119,2022-11-28_15h37.24.332,vts_reward_expectancy_bt,2022.2.4,MacIntel,58.82352941,Safari,1440,900,,,l,0.935,1,306,1,0,9,9,7,1,0,0,1,0,0,1,0,0,hexagon,circle,,,,,,,,,,,,,,,,,,,,,,,,,,,,,,,,,,,,,,,,,,,,,,,,,,,,,,
293119,2022-11-28_15h37.24.332,vts_reward_expectancy_bt,2022.2.4,MacIntel,58.82352941,Safari,1440,900,,,a,0.923,10,316,1,0,10,10,1,1,1,0,0,0,0,0,1,0,triangle,hexagon,,,,,,,,,,,,,,,,,,,,,,,,,,,,,,,,,,,,,,,,,,,,,,,,,,,,,,
293119,2022-11-28_15h37.24.332,vts_reward_expectancy_bt,2022.2.4,MacIntel,58.82352941,Safari,1440,900,,,l,1.271,1,317,1,0,11,11,8,1,0,0,1,0,0,0,0,1,hexagon,star,,,,,,,,,,,,,,,,,,,,,,,,,,,,,,,,,,,,,,,,,,,,,,,,,,,,,,
293119,2022-11-28_15h37.24.332,vts_reward_expectancy_bt,2022.2.4,MacIntel,58.82352941,Safari,1440,900,,,l,0.822,1,318,1,1,0,12,6,1,0,0,1,0,1,0,0,0,hexagon,triangle,,,,,,,,,,,,,,,,,,,,,,,,,,,,,,,,,,,,,,,,,,,,,,,,,,,,,,
293119,2022-11-28_15h37.24.332,vts_reward_expectancy_bt,2022.2.4,MacIntel,58.82352941,Safari,1440,900,,,l,0.571,1,319,1,1,1,13,7,1,0,0,1,0,0,1,0,0,hexagon,circle,,,,,,,,,,,,,,,,,,,,,,,,,,,,,,,,,,,,,,,,,,,,,,,,,,,,,,
293119,2022-11-28_15h37.24.332,vts_reward_expectancy_bt,2022.2.4,MacIntel,58.82352941,Safari,1440,900,,,l,0.587,1,320,1,1,2,14,10,1,0,0,0,1,0,1,0,0,star ,circle,,,,,,,,,,,,,,,,,,,,,,,,,,,,,,,,,,,,,,,,,,,,,,,,,,,,,,
293119,2022-11-28_15h37.24.332,vts_reward_expectancy_bt,2022.2.4,MacIntel,58.82352941,Safari,1440,900,,,a,1.104,1,321,1,1,3,15,1,1,1,0,0,0,0,0,1,0,triangle,hexagon,,,,,,,,,,,,,,,,,,,,,,,,,,,,,,,,,,,,,,,,,,,,,,,,,,,,,,
293119,2022-11-28_15h37.24.332,vts_reward_expectancy_bt,2022.2.4,MacIntel,58.82352941,Safari,1440,900,,,a,1.074,10,331,1,1,4,16,0,1,1,0,0,0,0,1,0,0,triangle,circle,,,,,,,,,,,,,,,,,,,,,,,,,,,,,,,,,,,,,,,,,,,,,,,,,,,,,,
293119,2022-11-28_15h37.24.332,vts_reward_expectancy_bt,2022.2.4,MacIntel,58.82352941,Safari,1440,900,,,a,0.881,10,341,1,1,5,17,5,1,0,1,0,0,0,0,0,1,circle,star,,,,,,,,,,,,,,,,,,,,,,,,,,,,,,,,,,,,,,,,,,,,,,,,,,,,,,
293119,2022-11-28_15h37.24.332,vts_reward_expectancy_bt,2022.2.4,MacIntel,58.82352941,Safari,1440,900,,,a,0.876,10,351,1,1,6,18,4,1,0,1,0,0,0,0,1,0,circle,hexagon,,,,,,,,,,,,,,,,,,,,,,,,,,,,,,,,,,,,,,,,,,,,,,,,,,,,,,
293119,2022-11-28_15h37.24.332,vts_reward_expectancy_bt,2022.2.4,MacIntel,58.82352941,Safari,1440,900,,,a,0.819,10,361,1,1,7,19,2,1,1,0,0,0,0,0,0,1,triangle,star,,,,,,,,,,,,,,,,,,,,,,,,,,,,,,,,,,,,,,,,,,,,,,,,,,,,,,
293119,2022-11-28_15h37.24.332,vts_reward_expectancy_bt,2022.2.4,MacIntel,58.82352941,Safari,1440,900,,,a,1.471,1,362,1,1,8,20,11,1,0,0,0,1,0,0,1,0,star,hexagon,,,,,,,,,,,,,,,,,,,,,,,,,,,,,,,,,,,,,,,,,,,,,,,,,,,,,,
293119,2022-11-28_15h37.24.332,vts_reward_expectancy_bt,2022.2.4,MacIntel,58.82352941,Safari,1440,900,,,a,0.851,10,372,1,1,9,21,3,1,0,1,0,0,1,0,0,0,circle,triangle,,,,,,,,,,,,,,,,,,,,,,,,,,,,,,,,,,,,,,,,,,,,,,,,,,,,,,
293119,2022-11-28_15h37.24.332,vts_reward_expectancy_bt,2022.2.4,MacIntel,58.82352941,Safari,1440,900,,,l,1.352,10,382,1,1,10,22,9,1,0,0,0,1,1,0,0,0,star,triangle,,,,,,,,,,,,,,,,,,,,,,,,,,,,,,,,,,,,,,,,,,,,,,,,,,,,,,
293119,2022-11-28_15h37.24.332,vts_reward_expectancy_bt,2022.2.4,MacIntel,58.82352941,Safari,1440,900,,,l,2.122,10,392,1,1,11,23,8,1,0,0,1,0,0,0,0,1,hexagon,star,,,,,,,,,,,,,,,,,,,,,,,,,,,,,,,,,,,,,,,,,,,,,,,,,,,,,,
293119,2022-11-28_15h37.24.332,vts_reward_expectancy_bt,2022.2.4,MacIntel,58.82352941,Safari,1440,900,,,a,1.353,10,402,1,2,0,24,3,1,0,1,0,0,1,0,0,0,circle,triangle,,,,,,,,,,,,,,,,,,,,,,,,,,,,,,,,,,,,,,,,,,,,,,,,,,,,,,
293119,2022-11-28_15h37.24.332,vts_reward_expectancy_bt,2022.2.4,MacIntel,58.82352941,Safari,1440,900,,,l,0.717,10,412,1,2,1,25,7,1,0,0,1,0,0,1,0,0,hexagon,circle,,,,,,,,,,,,,,,,,,,,,,,,,,,,,,,,,,,,,,,,,,,,,,,,,,,,,,
293119,2022-11-28_15h37.24.332,vts_reward_expectancy_bt,2022.2.4,MacIntel,58.82352941,Safari,1440,900,,,a,0.819,10,422,1,2,2,26,4,1,0,1,0,0,0,0,1,0,circle,hexagon,,,,,,,,,,,,,,,,,,,,,,,,,,,,,,,,,,,,,,,,,,,,,,,,,,,,,,
293119,2022-11-28_15h37.24.332,vts_reward_expectancy_bt,2022.2.4,MacIntel,58.82352941,Safari,1440,900,,,l,0.702,10,432,1,2,3,27,10,1,0,0,0,1,0,1,0,0,star ,circle,,,,,,,,,,,,,,,,,,,,,,,,,,,,,,,,,,,,,,,,,,,,,,,,,,,,,,
293119,2022-11-28_15h37.24.332,vts_reward_expectancy_bt,2022.2.4,MacIntel,58.82352941,Safari,1440,900,,,l,0.652,10,442,1,2,4,28,9,1,0,0,0,1,1,0,0,0,star,triangle,,,,,,,,,,,,,,,,,,,,,,,,,,,,,,,,,,,,,,,,,,,,,,,,,,,,,,
293119,2022-11-28_15h37.24.332,vts_reward_expectancy_bt,2022.2.4,MacIntel,58.82352941,Safari,1440,900,,,a,1.036,1,443,1,2,5,29,8,1,0,0,1,0,0,0,0,1,hexagon,star,,,,,,,,,,,,,,,,,,,,,,,,,,,,,,,,,,,,,,,,,,,,,,,,,,,,,,
293119,2022-11-28_15h37.24.332,vts_reward_expectancy_bt,2022.2.4,MacIntel,58.82352941,Safari,1440,900,,,l,1.519,10,453,1,2,6,30,0,1,1,0,0,0,0,1,0,0,triangle,circle,,,,,,,,,,,,,,,,,,,,,,,,,,,,,,,,,,,,,,,,,,,,,,,,,,,,,,
293119,2022-11-28_15h37.24.332,vts_reward_expectancy_bt,2022.2.4,MacIntel,58.82352941,Safari,1440,900,,,l,0.836,1,454,1,2,7,31,6,1,0,0,1,0,1,0,0,0,hexagon,triangle,,,,,,,,,,,,,,,,,,,,,,,,,,,,,,,,,,,,,,,,,,,,,,,,,,,,,,
293119,2022-11-28_15h37.24.332,vts_reward_expectancy_bt,2022.2.4,MacIntel,58.82352941,Safari,1440,900,,,a,2.09,10,464,1,2,8,32,2,1,1,0,0,0,0,0,0,1,triangle,star,,,,,,,,,,,,,,,,,,,,,,,,,,,,,,,,,,,,,,,,,,,,,,,,,,,,,,
293119,2022-11-28_15h37.24.332,vts_reward_expectancy_bt,2022.2.4,MacIntel,58.82352941,Safari,1440,900,,,a,0.889,10,474,1,2,9,33,1,1,1,0,0,0,0,0,1,0,triangle,hexagon,,,,,,,,,,,,,,,,,,,,,,,,,,,,,,,,,,,,,,,,,,,,,,,,,,,,,,
293119,2022-11-28_15h37.24.332,vts_reward_expectancy_bt,2022.2.4,MacIntel,58.82352941,Safari,1440,900,,,a,1.203,1,475,1,2,10,34,11,1,0,0,0,1,0,0,1,0,star,hexagon,,,,,,,,,,,,,,,,,,,,,,,,,,,,,,,,,,,,,,,,,,,,,,,,,,,,,,
293119,2022-11-28_15h37.24.332,vts_reward_expectancy_bt,2022.2.4,MacIntel,58.82352941,Safari,1440,900,,,a,0.836,10,485,1,2,11,35,5,1,0,1,0,0,0,0,0,1,circle,star,,,,,,,,,,,,,,,,,,,,,,,,,,,,,,,,,,,,,,,,,,,,,,,,,,,,,,
293119,2022-11-28_15h37.24.332,vts_reward_expectancy_bt,2022.2.4,MacIntel,58.82352941,Safari,1440,900,,,a,0.948,1,486,2,0,0,0,1,1,1,0,0,0,0,0,1,0,triangle,hexagon,,,,,,,,,,,,,,,,,,,,,,,,,,,,,,,,,,,,,,,,,,,,,,,,,,,,,,
293119,2022-11-28_15h37.24.332,vts_reward_expectancy_bt,2022.2.4,MacIntel,58.82352941,Safari,1440,900,,,l,1.339,10,496,2,0,1,1,9,1,0,0,0,1,1,0,0,0,star,triangle,,,,,,,,,,,,,,,,,,,,,,,,,,,,,,,,,,,,,,,,,,,,,,,,,,,,,,
293119,2022-11-28_15h37.24.332,vts_reward_expectancy_bt,2022.2.4,MacIntel,58.82352941,Safari,1440,900,,,a,1.101,1,497,2,0,2,2,8,1,0,0,1,0,0,0,0,1,hexagon,star,,,,,,,,,,,,,,,,,,,,,,,,,,,,,,,,,,,,,,,,,,,,,,,,,,,,,,
293119,2022-11-28_15h37.24.332,vts_reward_expectancy_bt,2022.2.4,MacIntel,58.82352941,Safari,1440,900,,,l,1.104,10,507,2,0,3,3,7,1,0,0,1,0,0,1,0,0,hexagon,circle,,,,,,,,,,,,,,,,,,,,,,,,,,,,,,,,,,,,,,,,,,,,,,,,,,,,,,
293119,2022-11-28_15h37.24.332,vts_reward_expectancy_bt,2022.2.4,MacIntel,58.82352941,Safari,1440,900,,,l,0.719,10,517,2,0,4,4,6,1,0,0,1,0,1,0,0,0,hexagon,triangle,,,,,,,,,,,,,,,,,,,,,,,,,,,,,,,,,,,,,,,,,,,,,,,,,,,,,,
293119,2022-11-28_15h37.24.332,vts_reward_expectancy_bt,2022.2.4,MacIntel,58.82352941,Safari,1440,900,,,a,0.804,10,527,2,0,5,5,0,1,1,0,0,0,0,1,0,0,triangle,circle,,,,,,,,,,,,,,,,,,,,,,,,,,,,,,,,,,,,,,,,,,,,,,,,,,,,,,
293119,2022-11-28_15h37.24.332,vts_reward_expectancy_bt,2022.2.4,MacIntel,58.82352941,Safari,1440,900,,,l,1.087,10,537,2,0,6,6,10,1,0,0,0,1,0,1,0,0,star ,circle,,,,,,,,,,,,,,,,,,,,,,,,,,,,,,,,,,,,,,,,,,,,,,,,,,,,,,
293119,2022-11-28_15h37.24.332,vts_reward_expectancy_bt,2022.2.4,MacIntel,58.82352941,Safari,1440,900,,,a,1.073,1,538,2,0,7,7,2,1,1,0,0,0,0,0,0,1,triangle,star,,,,,,,,,,,,,,,,,,,,,,,,,,,,,,,,,,,,,,,,,,,,,,,,,,,,,,
293119,2022-11-28_15h37.24.332,vts_reward_expectancy_bt,2022.2.4,MacIntel,58.82352941,Safari,1440,900,,,l,0.938,1,539,2,0,8,8,11,1,0,0,0,1,0,0,1,0,star,hexagon,,,,,,,,,,,,,,,,,,,,,,,,,,,,,,,,,,,,,,,,,,,,,,,,,,,,,,
293119,2022-11-28_15h37.24.332,vts_reward_expectancy_bt,2022.2.4,MacIntel,58.82352941,Safari,1440,900,,,a,0.938,1,540,2,0,9,9,4,1,0,1,0,0,0,0,1,0,circle,hexagon,,,,,,,,,,,,,,,,,,,,,,,,,,,,,,,,,,,,,,,,,,,,,,,,,,,,,,
293119,2022-11-28_15h37.24.332,vts_reward_expectancy_bt,2022.2.4,MacIntel,58.82352941,Safari,1440,900,,,a,1.338,1,541,2,0,10,10,5,1,0,1,0,0,0,0,0,1,circle,star,,,,,,,,,,,,,,,,,,,,,,,,,,,,,,,,,,,,,,,,,,,,,,,,,,,,,,
293119,2022-11-28_15h37.24.332,vts_reward_expectancy_bt,2022.2.4,MacIntel,58.82352941,Safari,1440,900,,,a,1.205,10,551,2,0,11,11,3,1,0,1,0,0,1,0,0,0,circle,triangle,,,,,,,,,,,,,,,,,,,,,,,,,,,,,,,,,,,,,,,,,,,,,,,,,,,,,,
293119,2022-11-28_15h37.24.332,vts_reward_expectancy_bt,2022.2.4,MacIntel,58.82352941,Safari,1440,900,,,a,1.66,1,552,2,1,0,12,11,1,0,0,0,1,0,0,1,0,star,hexagon,,,,,,,,,,,,,,,,,,,,,,,,,,,,,,,,,,,,,,,,,,,,,,,,,,,,,,
293119,2022-11-28_15h37.24.332,vts_reward_expectancy_bt,2022.2.4,MacIntel,58.82352941,Safari,1440,900,,,l,1.107,1,553,2,1,1,13,10,1,0,0,0,1,0,1,0,0,star ,circle,,,,,,,,,,,,,,,,,,,,,,,,,,,,,,,,,,,,,,,,,,,,,,,,,,,,,,
293119,2022-11-28_15h37.24.332,vts_reward_expectancy_bt,2022.2.4,MacIntel,58.82352941,Safari,1440,900,,,l,0.773,10,563,2,1,2,14,9,1,0,0,0,1,1,0,0,0,star,triangle,,,,,,,,,,,,,,,,,,,,,,,,,,,,,,,,,,,,,,,,,,,,,,,,,,,,,,
293119,2022-11-28_15h37.24.332,vts_reward_expectancy_bt,2022.2.4,MacIntel,58.82352941,Safari,1440,900,,,a,0.966,1,564,2,1,3,15,5,1,0,1,0,0,0,0,0,1,circle,star,,,,,,,,,,,,,,,,,,,,,,,,,,,,,,,,,,,,,,,,,,,,,,,,,,,,,,
293119,2022-11-28_15h37.24.332,vts_reward_expectancy_bt,2022.2.4,MacIntel,58.82352941,Safari,1440,900,,,a,3.594,10,574,2,1,4,16,0,1,1,0,0,0,0,1,0,0,triangle,circle,,,,,,,,,,,,,,,,,,,,,,,,,,,,,,,,,,,,,,,,,,,,,,,,,,,,,,
293119,2022-11-28_15h37.24.332,vts_reward_expectancy_bt,2022.2.4,MacIntel,58.82352941,Safari,1440,900,,,a,1.456,10,584,2,1,5,17,3,1,0,1,0,0,1,0,0,0,circle,triangle,,,,,,,,,,,,,,,,,,,,,,,,,,,,,,,,,,,,,,,,,,,,,,,,,,,,,,
293119,2022-11-28_15h37.24.332,vts_reward_expectancy_bt,2022.2.4,MacIntel,58.82352941,Safari,1440,900,,,a,0.87,10,594,2,1,6,18,2,1,1,0,0,0,0,0,0,1,triangle,star,,,,,,,,,,,,,,,,,,,,,,,,,,,,,,,,,,,,,,,,,,,,,,,,,,,,,,
293119,2022-11-28_15h37.24.332,vts_reward_expectancy_bt,2022.2.4,MacIntel,58.82352941,Safari,1440,900,,,l,0.923,1,595,2,1,7,19,7,1,0,0,1,0,0,1,0,0,hexagon,circle,,,,,,,,,,,,,,,,,,,,,,,,,,,,,,,,,,,,,,,,,,,,,,,,,,,,,,
293119,2022-11-28_15h37.24.332,vts_reward_expectancy_bt,2022.2.4,MacIntel,58.82352941,Safari,1440,900,,,l,1.519,1,596,2,1,8,20,8,1,0,0,1,0,0,0,0,1,hexagon,star,,,,,,,,,,,,,,,,,,,,,,,,,,,,,,,,,,,,,,,,,,,,,,,,,,,,,,
293119,2022-11-28_15h37.24.332,vts_reward_expectancy_bt,2022.2.4,MacIntel,58.82352941,Safari,1440,900,,,a,1.12,10,606,2,1,9,21,4,1,0,1,0,0,0,0,1,0,circle,hexagon,,,,,,,,,,,,,,,,,,,,,,,,,,,,,,,,,,,,,,,,,,,,,,,,,,,,,,
293119,2022-11-28_15h37.24.332,vts_reward_expectancy_bt,2022.2.4,MacIntel,58.82352941,Safari,1440,900,,,l,1.375,10,616,2,1,10,22,6,1,0,0,1,0,1,0,0,0,hexagon,triangle,,,,,,,,,,,,,,,,,,,,,,,,,,,,,,,,,,,,,,,,,,,,,,,,,,,,,,
293119,2022-11-28_15h37.24.332,vts_reward_expectancy_bt,2022.2.4,MacIntel,58.82352941,Safari,1440,900,,,a,0.978,10,626,2,1,11,23,1,1,1,0,0,0,0,0,1,0,triangle,hexagon,,,,,,,,,,,,,,,,,,,,,,,,,,,,,,,,,,,,,,,,,,,,,,,,,,,,,,
293119,2022-11-28_15h37.24.332,vts_reward_expectancy_bt,2022.2.4,MacIntel,58.82352941,Safari,1440,900,,,a,1.125,10,636,2,2,0,24,3,1,0,1,0,0,1,0,0,0,circle,triangle,,,,,,,,,,,,,,,,,,,,,,,,,,,,,,,,,,,,,,,,,,,,,,,,,,,,,,
293119,2022-11-28_15h37.24.332,vts_reward_expectancy_bt,2022.2.4,MacIntel,58.82352941,Safari,1440,900,,,a,0.977,10,646,2,2,1,25,0,1,1,0,0,0,0,1,0,0,triangle,circle,,,,,,,,,,,,,,,,,,,,,,,,,,,,,,,,,,,,,,,,,,,,,,,,,,,,,,
293119,2022-11-28_15h37.24.332,vts_reward_expectancy_bt,2022.2.4,MacIntel,58.82352941,Safari,1440,900,,,a,0.754,10,656,2,2,2,26,5,1,0,1,0,0,0,0,0,1,circle,star,,,,,,,,,,,,,,,,,,,,,,,,,,,,,,,,,,,,,,,,,,,,,,,,,,,,,,
293119,2022-11-28_15h37.24.332,vts_reward_expectancy_bt,2022.2.4,MacIntel,58.82352941,Safari,1440,900,,,l,0.87,1,657,2,2,3,27,9,1,0,0,0,1,1,0,0,0,star,triangle,,,,,,,,,,,,,,,,,,,,,,,,,,,,,,,,,,,,,,,,,,,,,,,,,,,,,,
293119,2022-11-28_15h37.24.332,vts_reward_expectancy_bt,2022.2.4,MacIntel,58.82352941,Safari,1440,900,,,l,0.707,10,667,2,2,4,28,7,1,0,0,1,0,0,1,0,0,hexagon,circle,,,,,,,,,,,,,,,,,,,,,,,,,,,,,,,,,,,,,,,,,,,,,,,,,,,,,,
293119,2022-11-28_15h37.24.332,vts_reward_expectancy_bt,2022.2.4,MacIntel,58.82352941,Safari,1440,900,,,a,0.931,10,677,2,2,5,29,1,1,1,0,0,0,0,0,1,0,triangle,hexagon,,,,,,,,,,,,,,,,,,,,,,,,,,,,,,,,,,,,,,,,,,,,,,,,,,,,,,
293119,2022-11-28_15h37.24.332,vts_reward_expectancy_bt,2022.2.4,MacIntel,58.82352941,Safari,1440,900,,,l,0.793,1,678,2,2,6,30,10,1,0,0,0,1,0,1,0,0,star ,circle,,,,,,,,,,,,,,,,,,,,,,,,,,,,,,,,,,,,,,,,,,,,,,,,,,,,,,
293119,2022-11-28_15h37.24.332,vts_reward_expectancy_bt,2022.2.4,MacIntel,58.82352941,Safari,1440,900,,,a,0.788,10,688,2,2,7,31,4,1,0,1,0,0,0,0,1,0,circle,hexagon,,,,,,,,,,,,,,,,,,,,,,,,,,,,,,,,,,,,,,,,,,,,,,,,,,,,,,
293119,2022-11-28_15h37.24.332,vts_reward_expectancy_bt,2022.2.4,MacIntel,58.82352941,Safari,1440,900,,,a,1.508,10,698,2,2,8,32,2,1,1,0,0,0,0,0,0,1,triangle,star,,,,,,,,,,,,,,,,,,,,,,,,,,,,,,,,,,,,,,,,,,,,,,,,,,,,,,
293119,2022-11-28_15h37.24.332,vts_reward_expectancy_bt,2022.2.4,MacIntel,58.82352941,Safari,1440,900,,,a,2.711,10,708,2,2,9,33,11,1,0,0,0,1,0,0,1,0,star,hexagon,,,,,,,,,,,,,,,,,,,,,,,,,,,,,,,,,,,,,,,,,,,,,,,,,,,,,,
293119,2022-11-28_15h37.24.332,vts_reward_expectancy_bt,2022.2.4,MacIntel,58.82352941,Safari,1440,900,,,l,1.004,1,709,2,2,10,34,8,1,0,0,1,0,0,0,0,1,hexagon,star,,,,,,,,,,,,,,,,,,,,,,,,,,,,,,,,,,,,,,,,,,,,,,,,,,,,,,
293119,2022-11-28_15h37.24.332,vts_reward_expectancy_bt,2022.2.4,MacIntel,58.82352941,Safari,1440,900,,,l,0.888,10,719,2,2,11,35,6,1,0,0,1,0,1,0,0,0,hexagon,triangle,,,,,,,,,,,,,,,,,,,,,,,,,,,,,,,,,,,,,,,,,,,,,,,,,,,,,,
293119,2022-11-28_15h37.24.332,vts_reward_expectancy_bt,2022.2.4,MacIntel,58.82352941,Safari,1440,900,,,,,,,,,,,,,,,,,,,,,,,167,F,star,0,0,,0,0,0,0,0,1,,,,,,,,,,,,,,,,,,,,,,,,,,,,,,,,,,,,,,,,,,
293119,2022-11-28_15h37.24.332,vts_reward_expectancy_bt,2022.2.4,MacIntel,58.82352941,Safari,1440,900,,,,,,,,,,,,,,,,,,,,,,,125,Y,circle,1,1,d,0,1,0,1,0,1,0.814,,,,,,,,,,,,,,,,,,,,,,,,,,,,,,,,,,,,,,,,,
293119,2022-11-28_15h37.24.332,vts_reward_expectancy_bt,2022.2.4,MacIntel,58.82352941,Safari,1440,900,,,,,,,,,,,,,,,,,,,,,,,146,W,triangle,0,0,f,0,2,0,2,0,1,0.849,,,,,,,,,,,,,,,,,,,,,,,,,,,,,,,,,,,,,,,,,
293119,2022-11-28_15h37.24.332,vts_reward_expectancy_bt,2022.2.4,MacIntel,58.82352941,Safari,1440,900,,,,,,,,,,,,,,,,,,,,,,,132,S,hexagon,1,1,d,0,3,0,3,0,1,0.698,,,,,,,,,,,,,,,,,,,,,,,,,,,,,,,,,,,,,,,,,
293119,2022-11-28_15h37.24.332,vts_reward_expectancy_bt,2022.2.4,MacIntel,58.82352941,Safari,1440,900,,,,,,,,,,,,,,,,,,,,,,,181,H,star,1,0,f,0,4,0,4,0,1,0.751,,,,,,,,,,,,,,,,,,,,,,,,,,,,,,,,,,,,,,,,,
293119,2022-11-28_15h37.24.332,vts_reward_expectancy_bt,2022.2.4,MacIntel,58.82352941,Safari,1440,900,,,,,,,,,,,,,,,,,,,,,,,139,B,circle,1,0,d,0,5,0,5,0,1,0.894,,,,,,,,,,,,,,,,,,,,,,,,,,,,,,,,,,,,,,,,,
293119,2022-11-28_15h37.24.332,vts_reward_expectancy_bt,2022.2.4,MacIntel,58.82352941,Safari,1440,900,,,,,,,,,,,,,,,,,,,,,,,160,D,triangle,1,0,f,0,6,0,6,0,1,0.695,,,,,,,,,,,,,,,,,,,,,,,,,,,,,,,,,,,,,,,,,
293119,2022-11-28_15h37.24.332,vts_reward_expectancy_bt,2022.2.4,MacIntel,58.82352941,Safari,1440,900,,,,,,,,,,,,,,,,,,,,,,,174,U,hexagon,1,0,f,0,7,0,7,0,1,0.782,,,,,,,,,,,,,,,,,,,,,,,,,,,,,,,,,,,,,,,,,
293119,2022-11-28_15h37.24.332,vts_reward_expectancy_bt,2022.2.4,MacIntel,58.82352941,Safari,1440,900,,,,,,,,,,,,,,,,,,,,,,,167,F,hexagon,1,0,f,0,8,0,8,0,1,0.578,,,,,,,,,,,,,,,,,,,,,,,,,,,,,,,,,,,,,,,,,
293119,2022-11-28_15h37.24.332,vts_reward_expectancy_bt,2022.2.4,MacIntel,58.82352941,Safari,1440,900,,,,,,,,,,,,,,,,,,,,,,,125,Y,circle,1,0,d,0,9,0,9,0,1,0.882,,,,,,,,,,,,,,,,,,,,,,,,,,,,,,,,,,,,,,,,,
293119,2022-11-28_15h37.24.332,vts_reward_expectancy_bt,2022.2.4,MacIntel,58.82352941,Safari,1440,900,,,,,,,,,,,,,,,,,,,,,,,181,H,hexagon,1,0,f,1,0,0,0,0,1,0.961,,,,,,,,,,,,,,,,,,,,,,,,,,,,,,,,,,,,,,,,,
293119,2022-11-28_15h37.24.332,vts_reward_expectancy_bt,2022.2.4,MacIntel,58.82352941,Safari,1440,900,,,,,,,,,,,,,,,,,,,,,,,125,D,triangle,1,0,d,1,1,0,1,0,1,0.684,,,,,,,,,,,,,,,,,,,,,,,,,,,,,,,,,,,,,,,,,
293119,2022-11-28_15h37.24.332,vts_reward_expectancy_bt,2022.2.4,MacIntel,58.82352941,Safari,1440,900,,,,,,,,,,,,,,,,,,,,,,,167,Y,circle,1,0,f,1,2,0,2,0,1,1.033,,,,,,,,,,,,,,,,,,,,,,,,,,,,,,,,,,,,,,,,,
293119,2022-11-28_15h37.24.332,vts_reward_expectancy_bt,2022.2.4,MacIntel,58.82352941,Safari,1440,900,,,,,,,,,,,,,,,,,,,,,,,160,S,star,1,0,f,1,3,0,3,0,1,0.631,,,,,,,,,,,,,,,,,,,,,,,,,,,,,,,,,,,,,,,,,
293119,2022-11-28_15h37.24.332,vts_reward_expectancy_bt,2022.2.4,MacIntel,58.82352941,Safari,1440,900,,,,,,,,,,,,,,,,,,,,,,,146,F,hexagon,0,0,f,1,4,0,4,0,1,0.695,,,,,,,,,,,,,,,,,,,,,,,,,,,,,,,,,,,,,,,,,
293119,2022-11-28_15h37.24.332,vts_reward_expectancy_bt,2022.2.4,MacIntel,58.82352941,Safari,1440,900,,,,,,,,,,,,,,,,,,,,,,,139,B,triangle,0,1,f,1,5,0,5,0,1,0.713,,,,,,,,,,,,,,,,,,,,,,,,,,,,,,,,,,,,,,,,,
293119,2022-11-28_15h37.24.332,vts_reward_expectancy_bt,2022.2.4,MacIntel,58.82352941,Safari,1440,900,,,,,,,,,,,,,,,,,,,,,,,132,U,circle,1,1,d,1,6,0,6,0,1,0.698,,,,,,,,,,,,,,,,,,,,,,,,,,,,,,,,,,,,,,,,,
293119,2022-11-28_15h37.24.332,vts_reward_expectancy_bt,2022.2.4,MacIntel,58.82352941,Safari,1440,900,,,,,,,,,,,,,,,,,,,,,,,174,W,star,1,0,f,1,7,0,7,0,1,0.599,,,,,,,,,,,,,,,,,,,,,,,,,,,,,,,,,,,,,,,,,
293119,2022-11-28_15h37.24.332,vts_reward_expectancy_bt,2022.2.4,MacIntel,58.82352941,Safari,1440,900,,,,,,,,,,,,,,,,,,,,,,,181,H,triangle,1,0,f,1,8,0,8,0,1,0.649,,,,,,,,,,,,,,,,,,,,,,,,,,,,,,,,,,,,,,,,,
293119,2022-11-28_15h37.24.332,vts_reward_expectancy_bt,2022.2.4,MacIntel,58.82352941,Safari,1440,900,,,,,,,,,,,,,,,,,,,,,,,125,D,star,1,0,d,1,9,0,9,0,1,0.645,,,,,,,,,,,,,,,,,,,,,,,,,,,,,,,,,,,,,,,,,
293119,2022-11-28_15h37.24.332,vts_reward_expectancy_bt,2022.2.4,MacIntel,58.82352941,Safari,1440,900,,,,,,,,,,,,,,,,,,,,,,,174,Y,star,1,0,f,2,0,0,0,0,1,1.656,,,,,,,,,,,,,,,,,,,,,,,,,,,,,,,,,,,,,,,,,
293119,2022-11-28_15h37.24.332,vts_reward_expectancy_bt,2022.2.4,MacIntel,58.82352941,Safari,1440,900,,,,,,,,,,,,,,,,,,,,,,,132,D,circle,1,0,d,2,1,0,1,0,1,0.694,,,,,,,,,,,,,,,,,,,,,,,,,,,,,,,,,,,,,,,,,
293119,2022-11-28_15h37.24.332,vts_reward_expectancy_bt,2022.2.4,MacIntel,58.82352941,Safari,1440,900,,,,,,,,,,,,,,,,,,,,,,,167,S,hexagon,1,0,f,2,2,0,2,0,1,1.342,,,,,,,,,,,,,,,,,,,,,,,,,,,,,,,,,,,,,,,,,
293119,2022-11-28_15h37.24.332,vts_reward_expectancy_bt,2022.2.4,MacIntel,58.82352941,Safari,1440,900,,,,,,,,,,,,,,,,,,,,,,,160,U,triangle,1,0,f,2,3,0,3,0,1,0.662,,,,,,,,,,,,,,,,,,,,,,,,,,,,,,,,,,,,,,,,,
293119,2022-11-28_15h37.24.332,vts_reward_expectancy_bt,2022.2.4,MacIntel,58.82352941,Safari,1440,900,,,,,,,,,,,,,,,,,,,,,,,181,F,star,1,0,f,2,4,0,4,0,1,0.548,,,,,,,,,,,,,,,,,,,,,,,,,,,,,,,,,,,,,,,,,
293119,2022-11-28_15h37.24.332,vts_reward_expectancy_bt,2022.2.4,MacIntel,58.82352941,Safari,1440,900,,,,,,,,,,,,,,,,,,,,,,,139,H,circle,1,0,d,2,5,0,5,0,1,0.598,,,,,,,,,,,,,,,,,,,,,,,,,,,,,,,,,,,,,,,,,
293119,2022-11-28_15h37.24.332,vts_reward_expectancy_bt,2022.2.4,MacIntel,58.82352941,Safari,1440,900,,,,,,,,,,,,,,,,,,,,,,,125,W,hexagon,1,0,d,2,6,0,6,0,1,0.723,,,,,,,,,,,,,,,,,,,,,,,,,,,,,,,,,,,,,,,,,
293119,2022-11-28_15h37.24.332,vts_reward_expectancy_bt,2022.2.4,MacIntel,58.82352941,Safari,1440,900,,,,,,,,,,,,,,,,,,,,,,,146,B,triangle,1,0,d,2,7,0,7,0,1,1.242,,,,,,,,,,,,,,,,,,,,,,,,,,,,,,,,,,,,,,,,,
293119,2022-11-28_15h37.24.332,vts_reward_expectancy_bt,2022.2.4,MacIntel,58.82352941,Safari,1440,900,,,,,,,,,,,,,,,,,,,,,,,174,Y,hexagon,1,0,f,2,8,0,8,0,1,0.761,,,,,,,,,,,,,,,,,,,,,,,,,,,,,,,,,,,,,,,,,
293119,2022-11-28_15h37.24.332,vts_reward_expectancy_bt,2022.2.4,MacIntel,58.82352941,Safari,1440,900,,,,,,,,,,,,,,,,,,,,,,,132,D,triangle,1,0,d,2,9,0,9,0,1,0.833,,,,,,,,,,,,,,,,,,,,,,,,,,,,,,,,,,,,,,,,,
293119,2022-11-28_15h37.24.332,vts_reward_expectancy_bt,2022.2.4,MacIntel,58.82352941,Safari,1440,900,,,,,,,,,,,,,,,,,,,,,,,125,W,circle,1,0,,3,,,,,,,k,1.332,0,0,0,0,1,,,,,,,,,,,,,,,,,,,,,,,,,,,,,,,,,,
293119,2022-11-28_15h37.24.332,vts_reward_expectancy_bt,2022.2.4,MacIntel,58.82352941,Safari,1440,900,,,,,,,,,,,,,,,,,,,,,,,139,B,triangle,1,0,,3,,,,,,,j,0.649,1,0,1,0,1,,,,,,,,,,,,,,,,,,,,,,,,,,,,,,,,,,
293119,2022-11-28_15h37.24.332,vts_reward_expectancy_bt,2022.2.4,MacIntel,58.82352941,Safari,1440,900,,,,,,,,,,,,,,,,,,,,,,,181,Y,star,1,0,,3,,,,,,,k,0.695,2,0,2,0,1,,,,,,,,,,,,,,,,,,,,,,,,,,,,,,,,,,
293119,2022-11-28_15h37.24.332,vts_reward_expectancy_bt,2022.2.4,MacIntel,58.82352941,Safari,1440,900,,,,,,,,,,,,,,,,,,,,,,,160,U,hexagon,1,0,,3,,,,,,,k,0.596,3,0,3,0,1,,,,,,,,,,,,,,,,,,,,,,,,,,,,,,,,,,
293119,2022-11-28_15h37.24.332,vts_reward_expectancy_bt,2022.2.4,MacIntel,58.82352941,Safari,1440,900,,,,,,,,,,,,,,,,,,,,,,,174,H,circle,1,0,,3,,,,,,,j,0.917,4,0,4,0,1,,,,,,,,,,,,,,,,,,,,,,,,,,,,,,,,,,
293119,2022-11-28_15h37.24.332,vts_reward_expectancy_bt,2022.2.4,MacIntel,58.82352941,Safari,1440,900,,,,,,,,,,,,,,,,,,,,,,,132,F,triangle,1,0,,3,,,,,,,j,1.134,5,0,5,0,1,,,,,,,,,,,,,,,,,,,,,,,,,,,,,,,,,,
293119,2022-11-28_15h37.24.332,vts_reward_expectancy_bt,2022.2.4,MacIntel,58.82352941,Safari,1440,900,,,,,,,,,,,,,,,,,,,,,,,146,D,star,1,0,,3,,,,,,,j,0.879,6,0,6,0,1,,,,,,,,,,,,,,,,,,,,,,,,,,,,,,,,,,
293119,2022-11-28_15h37.24.332,vts_reward_expectancy_bt,2022.2.4,MacIntel,58.82352941,Safari,1440,900,,,,,,,,,,,,,,,,,,,,,,,167,S,hexagon,1,0,,3,,,,,,,k,0.801,7,0,7,0,1,,,,,,,,,,,,,,,,,,,,,,,,,,,,,,,,,,
293119,2022-11-28_15h37.24.332,vts_reward_expectancy_bt,2022.2.4,MacIntel,58.82352941,Safari,1440,900,,,,,,,,,,,,,,,,,,,,,,,125,W,hexagon,1,0,,3,,,,,,,k,0.813,8,0,8,0,1,,,,,,,,,,,,,,,,,,,,,,,,,,,,,,,,,,
293119,2022-11-28_15h37.24.332,vts_reward_expectancy_bt,2022.2.4,MacIntel,58.82352941,Safari,1440,900,,,,,,,,,,,,,,,,,,,,,,,139,B,star,1,0,,3,,,,,,,j,0.601,9,0,9,0,1,,,,,,,,,,,,,,,,,,,,,,,,,,,,,,,,,,
293119,2022-11-28_15h37.24.332,vts_reward_expectancy_bt,2022.2.4,MacIntel,58.82352941,Safari,1440,900,,,,,0,719,,,,,,,,,,,,,,,,,181,D,hexagon,1,0,,4,,,,,,,,,,,,,,-1,letter,NA,j,0.834,vtsPrac,0,0,0,0,1,,,,,,,,,,,,,,,,,,,,,,,
293119,2022-11-28_15h37.24.332,vts_reward_expectancy_bt,2022.2.4,MacIntel,58.82352941,Safari,1440,900,,,,,0,719,,,,,,,,,,,,,,,,,174,S,triangle,1,0,,4,,,,,,,,,,,,,,repeat,letter,lettRpt,k,0.833,vtsPrac,1,0,1,0,1,,,,,,,,,,,,,,,,,,,,,,,
293119,2022-11-28_15h37.24.332,vts_reward_expectancy_bt,2022.2.4,MacIntel,58.82352941,Safari,1440,900,,,,,0,719,,,,,,,,,,,,,,,,,167,F,hexagon,1,0,,4,,,,,,,,,,,,,,switch,number,numSwt,f,0.838,vtsPrac,2,0,2,0,1,,,,,,,,,,,,,,,,,,,,,,,
293119,2022-11-28_15h37.24.332,vts_reward_expectancy_bt,2022.2.4,MacIntel,58.82352941,Safari,1440,900,,,,,0,719,,,,,,,,,,,,,,,,,132,W,triangle,1,0,,4,,,,,,,,,,,,,,switch,letter,lettSwt,k,0.793,vtsPrac,3,0,3,0,1,,,,,,,,,,,,,,,,,,,,,,,
293119,2022-11-28_15h37.24.332,vts_reward_expectancy_bt,2022.2.4,MacIntel,58.82352941,Safari,1440,900,,,,,0,719,,,,,,,,,,,,,,,,,181,D,circle,1,0,,4,,,,,,,,,,,,,,switch,number,numSwt,f,0.638,vtsPrac,4,0,4,0,1,,,,,,,,,,,,,,,,,,,,,,,
293119,2022-11-28_15h37.24.332,vts_reward_expectancy_bt,2022.2.4,MacIntel,58.82352941,Safari,1440,900,,,,,0,719,,,,,,,,,,,,,,,,,174,S,triangle,1,0,,4,,,,,,,,,,,,,,repeat,number,numRpt,f,0.615,vtsPrac,5,0,5,0,1,,,,,,,,,,,,,,,,,,,,,,,
293119,2022-11-28_15h37.24.332,vts_reward_expectancy_bt,2022.2.4,MacIntel,58.82352941,Safari,1440,900,,,,,0,719,,,,,,,,,,,,,,,,,167,F,hexagon,1,0,,4,,,,,,,,,,,,,,repeat,number,numRpt,f,0.547,vtsPrac,6,0,6,0,1,,,,,,,,,,,,,,,,,,,,,,,
293119,2022-11-28_15h37.24.332,vts_reward_expectancy_bt,2022.2.4,MacIntel,58.82352941,Safari,1440,900,,,,,0,719,,,,,,,,,,,,,,,,,132,W,circle,1,0,,4,,,,,,,,,,,,,,switch,letter,lettSwt,k,0.537,vtsPrac,7,0,7,0,1,,,,,,,,,,,,,,,,,,,,,,,
293119,2022-11-28_15h37.24.332,vts_reward_expectancy_bt,2022.2.4,MacIntel,58.82352941,Safari,1440,900,,,,,0,719,,,,,,,,,,,,,,,,,139,B,hexagon,1,0,,4,,,,,,,,,,,,,,switch,number,numSwt,d,0.82,vtsPrac,8,0,8,0,1,,,,,,,,,,,,,,,,,,,,,,,
293119,2022-11-28_15h37.24.332,vts_reward_expectancy_bt,2022.2.4,MacIntel,58.82352941,Safari,1440,900,,,,,0,719,,,,,,,,,,,,,,,,,125,F,star,1,0,,4,,,,,,,,,,,,,,switch,letter,lettSwt,j,1.262,vtsPrac,9,0,9,0,1,,,,,,,,,,,,,,,,,,,,,,,
293119,2022-11-28_15h37.24.332,vts_reward_expectancy_bt,2022.2.4,MacIntel,58.82352941,Safari,1440,900,,,,,0,719,,,,,,,,,,,,,,,,,132,W,circle,1,0,,4,,,,,,,,,,,,,,repeat,letter,lettRpt,k,0.651,vtsPrac,10,0,10,0,1,,,,,,,,,,,,,,,,,,,,,,,
293119,2022-11-28_15h37.24.332,vts_reward_expectancy_bt,2022.2.4,MacIntel,58.82352941,Safari,1440,900,,,,,0,719,,,,,,,,,,,,,,,,,181,S,hexagon,1,0,,4,,,,,,,,,,,,,,repeat,letter,lettRpt,k,0.659,vtsPrac,11,0,11,0,1,,,,,,,,,,,,,,,,,,,,,,,
293119,2022-11-28_15h37.24.332,vts_reward_expectancy_bt,2022.2.4,MacIntel,58.82352941,Safari,1440,900,,,,,0,719,,,,,,,,,,,,,,,,,181,D,triangle,1,0,,4,,,,,,,,,,,,,,switch,number,numSwt,f,0.682,vtsPrac,12,0,12,0,1,,,,,,,,,,,,,,,,,,,,,,,
293119,2022-11-28_15h37.24.332,vts_reward_expectancy_bt,2022.2.4,MacIntel,58.82352941,Safari,1440,900,,,,,0,719,,,,,,,,,,,,,,,,,146,U,star,1,0,,4,,,,,,,,,,,,,,switch,letter,lettSwt,k,0.626,vtsPrac,13,0,13,0,1,,,,,,,,,,,,,,,,,,,,,,,
293119,2022-11-28_15h37.24.332,vts_reward_expectancy_bt,2022.2.4,MacIntel,58.82352941,Safari,1440,900,,,,,0,719,,,,,,,,,,,,,,,,,174,S,triangle,1,0,,4,,,,,,,,,,,,,,switch,number,numSwt,f,0.732,vtsPrac,14,0,14,0,1,,,,,,,,,,,,,,,,,,,,,,,
293119,2022-11-28_15h37.24.332,vts_reward_expectancy_bt,2022.2.4,MacIntel,58.82352941,Safari,1440,900,,,,,0,719,,,,,,,,,,,,,,,,,132,B,hexagon,1,0,,4,,,,,,,,,,,,,,repeat,number,numRpt,d,0.534,vtsPrac,15,0,15,0,1,,,,,,,,,,,,,,,,,,,,,,,
293119,2022-11-28_15h37.24.332,vts_reward_expectancy_bt,2022.2.4,MacIntel,58.82352941,Safari,1440,900,,,,,0,719,,,,,,,,,,,,,,,,,139,Y,circle,1,0,,4,,,,,,,,,,,,,,repeat,number,numRpt,d,1.1,vtsPrac,16,0,16,0,1,,,,,,,,,,,,,,,,,,,,,,,
293119,2022-11-28_15h37.24.332,vts_reward_expectancy_bt,2022.2.4,MacIntel,58.82352941,Safari,1440,900,,,,,0,719,,,,,,,,,,,,,,,,,160,H,triangle,1,0,,4,,,,,,,,,,,,,,switch,letter,lettSwt,j,0.699,vtsPrac,17,0,17,0,1,,,,,,,,,,,,,,,,,,,,,,,
293119,2022-11-28_15h37.24.332,vts_reward_expectancy_bt,2022.2.4,MacIntel,58.82352941,Safari,1440,900,,,,,0,719,,,,,,,,,,,,,,,,,167,S,circle,1,0,,4,,,,,,,,,,,,,,repeat,letter,lettRpt,k,0.693,vtsPrac,18,0,18,0,1,,,,,,,,,,,,,,,,,,,,,,,
293119,2022-11-28_15h37.24.332,vts_reward_expectancy_bt,2022.2.4,MacIntel,58.82352941,Safari,1440,900,,,,,0,719,,,,,,,,,,,,,,,,,125,W,star,1,0,,4,,,,,,,,,,,,,,switch,number,numSwt,d,0.796,vtsPrac,19,0,19,0,1,,,,,,,,,,,,,,,,,,,,,,,
293119,2022-11-28_15h37.24.332,vts_reward_expectancy_bt,2022.2.4,MacIntel,58.82352941,Safari,1440,900,,,,,0,719,,,,,,,,,,,,,,,,,132,Y,triangle,1,0,,4,,,,,,,,,,,,,,repeat,number,numRpt,d,0.681,vtsPrac,20,0,20,0,1,,,,,,,,,,,,,,,,,,,,,,,
293119,2022-11-28_15h37.24.332,vts_reward_expectancy_bt,2022.2.4,MacIntel,58.82352941,Safari,1440,900,,,,,0,719,,,,,,,,,,,,,,,,,125,W,hexagon,1,0,,4,,,,,,,,,,,,,,switch,letter,lettSwt,k,0.614,vtsPrac,21,0,21,0,1,,,,,,,,,,,,,,,,,,,,,,,
293119,2022-11-28_15h37.24.332,vts_reward_expectancy_bt,2022.2.4,MacIntel,58.82352941,Safari,1440,900,,,,,0,719,,,,,,,,,,,,,,,,,146,D,circle,1,0,,4,,,,,,,,,,,,,,switch,number,numSwt,d,1.064,vtsPrac,22,0,22,0,1,,,,,,,,,,,,,,,,,,,,,,,
293119,2022-11-28_15h37.24.332,vts_reward_expectancy_bt,2022.2.4,MacIntel,58.82352941,Safari,1440,900,,,,,0,719,,,,,,,,,,,,,,,,,174,S,hexagon,1,0,,4,,,,,,,,,,,,,,switch,letter,lettSwt,k,0.662,vtsPrac,23,0,23,0,1,,,,,,,,,,,,,,,,,,,,,,,
293119,2022-11-28_15h37.24.332,vts_reward_expectancy_bt,2022.2.4,MacIntel,58.82352941,Safari,1440,900,,,,,0,719,,,,,,,,,,,,,,,,,174,D,star,0,0,,4,,,,,,,,,,,,,,switch,number,NA,d,0.9,vtsPrac,24,0,24,0,1,,,,,,,,,,,,,,,,,,,,,,,
293119,2022-11-28_15h37.24.332,vts_reward_expectancy_bt,2022.2.4,MacIntel,58.82352941,Safari,1440,900,,,,,0,719,,,,,,,,,,,,,,,,,132,W,circle,1,1,,4,,,,,,,,,,,,,,repeat,number,numRpt,d,0.68,vtsPrac,25,0,25,0,1,,,,,,,,,,,,,,,,,,,,,,,
293119,2022-11-28_15h37.24.332,vts_reward_expectancy_bt,2022.2.4,MacIntel,58.82352941,Safari,1440,900,,,,,0,719,,,,,,,,,,,,,,,,,146,S,star,1,0,,4,,,,,,,,,,,,,,switch,letter,lettSwt,k,0.738,vtsPrac,26,0,26,0,1,,,,,,,,,,,,,,,,,,,,,,,
293119,2022-11-28_15h37.24.332,vts_reward_expectancy_bt,2022.2.4,MacIntel,58.82352941,Safari,1440,900,,,,,0,719,,,,,,,,,,,,,,,,,125,U,triangle,1,0,,4,,,,,,,,,,,,,,repeat,letter,lettRpt,k,0.646,vtsPrac,27,0,27,0,1,,,,,,,,,,,,,,,,,,,,,,,
293119,2022-11-28_15h37.24.332,vts_reward_expectancy_bt,2022.2.4,MacIntel,58.82352941,Safari,1440,900,,,,,0,719,,,,,,,,,,,,,,,,,139,H,hexagon,1,0,,4,,,,,,,,,,,,,,switch,number,numSwt,d,0.747,vtsPrac,28,0,28,0,1,,,,,,,,,,,,,,,,,,,,,,,
293119,2022-11-28_15h37.24.332,vts_reward_expectancy_bt,2022.2.4,MacIntel,58.82352941,Safari,1440,900,,,,,0,719,,,,,,,,,,,,,,,,,167,B,triangle,1,0,,4,,,,,,,,,,,,,,repeat,number,numRpt,f,0.63,vtsPrac,29,0,29,0,1,,,,,,,,,,,,,,,,,,,,,,,
293119,2022-11-28_15h37.24.332,vts_reward_expectancy_bt,2022.2.4,MacIntel,58.82352941,Safari,1440,900,,,,,0,719,,,,,,,,,,,,,,,,,174,D,star,1,0,,4,,,,,,,,,,,,,,repeat,number,numRpt,f,0.77,vtsPrac,30,0,30,0,1,,,,,,,,,,,,,,,,,,,,,,,
293119,2022-11-28_15h37.24.332,vts_reward_expectancy_bt,2022.2.4,MacIntel,58.82352941,Safari,1440,900,,,,,0,719,,,,,,,,,,,,,,,,,181,S,hexagon,1,0,,4,,,,,,,,,,,,,,switch,letter,lettSwt,k,1.233,vtsPrac,31,0,31,0,1,,,,,,,,,,,,,,,,,,,,,,,
293119,2022-11-28_15h37.24.332,vts_reward_expectancy_bt,2022.2.4,MacIntel,58.82352941,Safari,1440,900,,,,,,,,,,,,,,,,,,,,,,,,,,,,,,,,,,,,,,,,,,,,,,,,,,,,,,,,,,,,,,,,,,,,,,,,,,,,
293119,2022-11-28_15h37.24.332,vts_reward_expectancy_bt,2022.2.4,MacIntel,58.82352941,Safari,1440,900,,,,,,,,,,,,,,,,,,,,,,,,,,,,,,,,,,,,,,,,,,,,,,,,,,,,,,,,,,,,,,,,,,,,,,,,,,,,
293119,2022-11-28_15h37.24.332,vts_reward_expectancy_bt,2022.2.4,MacIntel,58.82352941,Safari,1440,900,,,,,0,719,,,,,,,,,,,,,,,,,132,W,star,1,0,,,,,,,,,,,,,,,,switch,number,numSwt,d,2.053,noRew,,,,,,0,0,0,0,0,1,,,,,,,,,,,,,,,,,
293119,2022-11-28_15h37.24.332,vts_reward_expectancy_bt,2022.2.4,MacIntel,58.82352941,Safari,1440,900,,,,,0,719,,,,,,,,,,,,,,,,,181,Y,hexagon,1,0,,,,,,,,,,,,,,,,repeat,number,numRpt,f,0.6,noRew,,,,,,0,1,0,1,0,1,,,,,,,,,,,,,,,,,
293119,2022-11-28_15h37.24.332,vts_reward_expectancy_bt,2022.2.4,MacIntel,58.82352941,Safari,1440,900,,,,,0,719,,,,,,,,,,,,,,,,,167,F,star,1,0,,,,,,,,,,,,,,,,switch,letter,lettSwt,j,0.901,noRew,,,,,,0,2,0,2,0,1,,,,,,,,,,,,,,,,,
293119,2022-11-28_15h37.24.332,vts_reward_expectancy_bt,2022.2.4,MacIntel,58.82352941,Safari,1440,900,,,,,0,719,,,,,,,,,,,,,,,,,146,H,hexagon,1,0,,,,,,,,,,,,,,,,repeat,letter,lettRpt,j,1.06,noRew,,,,,,0,3,0,3,0,1,,,,,,,,,,,,,,,,,
293119,2022-11-28_15h37.24.332,vts_reward_expectancy_bt,2022.2.4,MacIntel,58.82352941,Safari,1440,900,,,,,0,719,,,,,,,,,,,,,,,,,132,W,star,1,0,,,,,,,,,,,,,,,,switch,number,numSwt,d,0.664,noRew,,,,,,0,4,0,4,0,1,,,,,,,,,,,,,,,,,
293119,2022-11-28_15h37.24.332,vts_reward_expectancy_bt,2022.2.4,MacIntel,58.82352941,Safari,1440,900,,,,,0,719,,,,,,,,,,,,,,,,,181,Y,triangle,0,0,,,,,,,,,,,,,,,,repeat,number,NA,d,0.55,noRew,,,,,,0,5,0,5,0,1,,,,,,,,,,,,,,,,,
293119,2022-11-28_15h37.24.332,vts_reward_expectancy_bt,2022.2.4,MacIntel,58.82352941,Safari,1440,900,,,,,0,719,,,,,,,,,,,,,,,,,167,F,star,1,1,,,,,,,,,,,,,,,,repeat,number,numRpt,f,1.207,noRew,,,,,,0,6,0,6,0,1,,,,,,,,,,,,,,,,,
293119,2022-11-28_15h37.24.332,vts_reward_expectancy_bt,2022.2.4,MacIntel,58.82352941,Safari,1440,900,,,,,0,719,,,,,,,,,,,,,,,,,146,H,triangle,1,0,,,,,,,,,,,,,,,,switch,letter,lettSwt,j,1.187,noRew,,,,,,0,7,0,7,0,1,,,,,,,,,,,,,,,,,
293119,2022-11-28_15h37.24.332,vts_reward_expectancy_bt,2022.2.4,MacIntel,58.82352941,Safari,1440,900,,,,,0,719,,,,,,,,,,,,,,,,,167,B,triangle,1,0,,,,,,,,,,,,,,,,repeat,letter,lettRpt,j,0.68,noRew,,,,,,0,8,0,8,0,1,,,,,,,,,,,,,,,,,
293119,2022-11-28_15h37.24.332,vts_reward_expectancy_bt,2022.2.4,MacIntel,58.82352941,Safari,1440,900,,,,,0,719,,,,,,,,,,,,,,,,,132,S,star,1,0,,,,,,,,,,,,,,,,repeat,letter,lettRpt,k,0.746,noRew,,,,,,0,9,0,9,0,1,,,,,,,,,,,,,,,,,
293119,2022-11-28_15h37.24.332,vts_reward_expectancy_bt,2022.2.4,MacIntel,58.82352941,Safari,1440,900,,,,,0,719,,,,,,,,,,,,,,,,,160,W,circle,1,0,,,,,,,,,,,,,,,,switch,number,numSwt,f,0.945,noRew,,,,,,0,10,0,10,0,1,,,,,,,,,,,,,,,,,
293119,2022-11-28_15h37.24.332,vts_reward_expectancy_bt,2022.2.4,MacIntel,58.82352941,Safari,1440,900,,,,,0,719,,,,,,,,,,,,,,,,,181,D,star,1,0,,,,,,,,,,,,,,,,switch,letter,lettSwt,j,0.743,noRew,,,,,,0,11,0,11,0,1,,,,,,,,,,,,,,,,,
293119,2022-11-28_15h37.24.332,vts_reward_expectancy_bt,2022.2.4,MacIntel,58.82352941,Safari,1440,900,,,,,0,719,,,,,,,,,,,,,,,,,174,Y,hexagon,1,0,,,,,,,,,,,,,,,,switch,number,numSwt,f,0.731,noRew,,,,,,0,12,0,12,0,1,,,,,,,,,,,,,,,,,
293119,2022-11-28_15h37.24.332,vts_reward_expectancy_bt,2022.2.4,MacIntel,58.82352941,Safari,1440,900,,,,,0,719,,,,,,,,,,,,,,,,,125,D,circle,1,0,,,,,,,,,,,,,,,,switch,letter,lettSwt,j,1.583,noRew,,,,,,0,13,0,13,0,1,,,,,,,,,,,,,,,,,
293119,2022-11-28_15h37.24.332,vts_reward_expectancy_bt,2022.2.4,MacIntel,58.82352941,Safari,1440,900,,,,,0,719,,,,,,,,,,,,,,,,,139,H,star,1,0,,,,,,,,,,,,,,,,switch,number,numSwt,d,0.967,noRew,,,,,,0,14,0,14,0,1,,,,,,,,,,,,,,,,,
293119,2022-11-28_15h37.24.332,vts_reward_expectancy_bt,2022.2.4,MacIntel,58.82352941,Safari,1440,900,,,,,0,719,,,,,,,,,,,,,,,,,146,S,circle,1,0,,,,,,,,,,,,,,,,repeat,number,numRpt,d,1.67,noRew,,,,,,0,15,0,15,0,1,,,,,,,,,,,,,,,,,
293119,2022-11-28_15h37.24.332,vts_reward_expectancy_bt,2022.2.4,MacIntel,58.82352941,Safari,1440,900,,,,,0,719,,,,,,,,,,,,,,,,,181,F,hexagon,1,0,,,,,,,,,,,,,,,,switch,letter,lettSwt,j,0.715,noRew,,,,,,0,16,0,16,0,1,,,,,,,,,,,,,,,,,
293119,2022-11-28_15h37.24.332,vts_reward_expectancy_bt,2022.2.4,MacIntel,58.82352941,Safari,1440,900,,,,,0,719,,,,,,,,,,,,,,,,,132,Y,circle,1,0,,,,,,,,,,,,,,,,repeat,letter,lettRpt,k,0.597,noRew,,,,,,0,17,0,17,0,1,,,,,,,,,,,,,,,,,
293119,2022-11-28_15h37.24.332,vts_reward_expectancy_bt,2022.2.4,MacIntel,58.82352941,Safari,1440,900,,,,,0,719,,,,,,,,,,,,,,,,,125,H,circle,1,0,,,,,,,,,,,,,,,,switch,number,numSwt,d,0.547,noRew,,,,,,0,18,0,18,0,1,,,,,,,,,,,,,,,,,
293119,2022-11-28_15h37.24.332,vts_reward_expectancy_bt,2022.2.4,MacIntel,58.82352941,Safari,1440,900,,,,,0,719,,,,,,,,,,,,,,,,,167,B,hexagon,1,0,,,,,,,,,,,,,,,,repeat,number,numRpt,f,1.364,noRew,,,,,,0,19,0,19,0,1,,,,,,,,,,,,,,,,,
293119,2022-11-28_15h37.24.332,vts_reward_expectancy_bt,2022.2.4,MacIntel,58.82352941,Safari,1440,900,,,,,0,719,,,,,,,,,,,,,,,,,167,W,hexagon,1,0,,,,,,,,,,,,,,,,switch,letter,lettSwt,k,1.371,noRew,,,,,,0,20,0,20,0,1,,,,,,,,,,,,,,,,,
293119,2022-11-28_15h37.24.332,vts_reward_expectancy_bt,2022.2.4,MacIntel,58.82352941,Safari,1440,900,,,,,0,719,,,,,,,,,,,,,,,,,139,U,triangle,1,0,,,,,,,,,,,,,,,,repeat,letter,lettRpt,k,0.819,noRew,,,,,,0,21,0,21,0,1,,,,,,,,,,,,,,,,,
293119,2022-11-28_15h37.24.332,vts_reward_expectancy_bt,2022.2.4,MacIntel,58.82352941,Safari,1440,900,,,,,0,719,,,,,,,,,,,,,,,,,181,F,triangle,-1,0,,,,,,,,,,,,,,,,switch,no_choice,NA,,,noRew,,,,,,0,22,0,22,0,1,,,,,,,,,,,,,,,,,
293119,2022-11-28_15h37.24.332,vts_reward_expectancy_bt,2022.2.4,MacIntel,58.82352941,Safari,1440,900,,,,,0,719,,,,,,,,,,,,,,,,,132,D,circle,1,0,,,,,,,,,,,,,,,,switch,letter,lettSwt,j,0.767,noRew,,,,,,0,23,0,23,0,1,,,,,,,,,,,,,,,,,
293119,2022-11-28_15h37.24.332,vts_reward_expectancy_bt,2022.2.4,MacIntel,58.82352941,Safari,1440,900,,,,,0,719,,,,,,,,,,,,,,,,,139,B,triangle,1,0,,,,,,,,,,,,,,,,repeat,letter,lettRpt,j,1.095,noRew,,,,,,0,24,0,24,0,1,,,,,,,,,,,,,,,,,
293119,2022-11-28_15h37.24.332,vts_reward_expectancy_bt,2022.2.4,MacIntel,58.82352941,Safari,1440,900,,,,,0,719,,,,,,,,,,,,,,,,,174,U,star,0,0,,,,,,,,,,,,,,,,switch,number,NA,d,0.649,noRew,,,,,,0,25,0,25,0,1,,,,,,,,,,,,,,,,,
293119,2022-11-28_15h37.24.332,vts_reward_expectancy_bt,2022.2.4,MacIntel,58.82352941,Safari,1440,900,,,,,0,719,,,,,,,,,,,,,,,,,125,W,circle,1,1,,,,,,,,,,,,,,,,repeat,number,numRpt,d,0.717,noRew,,,,,,0,26,0,26,0,1,,,,,,,,,,,,,,,,,
293119,2022-11-28_15h37.24.332,vts_reward_expectancy_bt,2022.2.4,MacIntel,58.82352941,Safari,1440,900,,,,,0,719,,,,,,,,,,,,,,,,,160,S,hexagon,1,0,,,,,,,,,,,,,,,,switch,letter,lettSwt,k,0.996,noRew,,,,,,0,27,0,27,0,1,,,,,,,,,,,,,,,,,
293119,2022-11-28_15h37.24.332,vts_reward_expectancy_bt,2022.2.4,MacIntel,58.82352941,Safari,1440,900,,,,,0,719,,,,,,,,,,,,,,,,,167,D,star,1,0,,,,,,,,,,,,,,,,repeat,letter,lettRpt,j,0.803,noRew,,,,,,0,28,0,28,0,1,,,,,,,,,,,,,,,,,
293119,2022-11-28_15h37.24.332,vts_reward_expectancy_bt,2022.2.4,MacIntel,58.82352941,Safari,1440,900,,,,,0,719,,,,,,,,,,,,,,,,,146,U,triangle,1,0,,,,,,,,,,,,,,,,repeat,letter,lettRpt,k,0.81,noRew,,,,,,0,29,0,29,0,1,,,,,,,,,,,,,,,,,
293119,2022-11-28_15h37.24.332,vts_reward_expectancy_bt,2022.2.4,MacIntel,58.82352941,Safari,1440,900,,,,,0,719,,,,,,,,,,,,,,,,,132,W,circle,1,0,,,,,,,,,,,,,,,,switch,number,numSwt,d,0.652,noRew,,,,,,0,30,0,30,0,1,,,,,,,,,,,,,,,,,
293119,2022-11-28_15h37.24.332,vts_reward_expectancy_bt,2022.2.4,MacIntel,58.82352941,Safari,1440,900,,,,,0,719,,,,,,,,,,,,,,,,,160,H,triangle,1,0,,,,,,,,,,,,,,,,switch,letter,lettSwt,j,0.868,noRew,,,,,,0,31,0,31,0,1,,,,,,,,,,,,,,,,,
293119,2022-11-28_15h37.24.332,vts_reward_expectancy_bt,2022.2.4,MacIntel,58.82352941,Safari,1440,900,,,,,0,719,,,,,,,,,,,,,,,,,132,D,circle,1,0,,,,,,,,,,,,,,,,repeat,letter,lettRpt,j,0.779,noRew,,,,,,0,32,0,32,0,1,,,,,,,,,,,,,,,,,
293119,2022-11-28_15h37.24.332,vts_reward_expectancy_bt,2022.2.4,MacIntel,58.82352941,Safari,1440,900,,,,,0,719,,,,,,,,,,,,,,,,,167,F,triangle,1,0,,,,,,,,,,,,,,,,switch,number,numSwt,f,1.198,noRew,,,,,,0,33,0,33,0,1,,,,,,,,,,,,,,,,,
293119,2022-11-28_15h37.24.332,vts_reward_expectancy_bt,2022.2.4,MacIntel,58.82352941,Safari,1440,900,,,,,0,719,,,,,,,,,,,,,,,,,160,W,star,1,0,,,,,,,,,,,,,,,,switch,letter,lettSwt,k,1.119,noRew,,,,,,0,34,0,34,0,1,,,,,,,,,,,,,,,,,
293119,2022-11-28_15h37.24.332,vts_reward_expectancy_bt,2022.2.4,MacIntel,58.82352941,Safari,1440,900,,,,,0,719,,,,,,,,,,,,,,,,,146,S,triangle,1,0,,,,,,,,,,,,,,,,repeat,letter,lettRpt,k,1.228,noRew,,,,,,0,35,0,35,0,1,,,,,,,,,,,,,,,,,
293119,2022-11-28_15h37.24.332,vts_reward_expectancy_bt,2022.2.4,MacIntel,58.82352941,Safari,1440,900,,,,,0,719,,,,,,,,,,,,,,,,,125,D,circle,1,0,,,,,,,,,,,,,,,,switch,number,numSwt,d,1.05,noRew,,,,,,0,36,0,36,0,1,,,,,,,,,,,,,,,,,
293119,2022-11-28_15h37.24.332,vts_reward_expectancy_bt,2022.2.4,MacIntel,58.82352941,Safari,1440,900,,,,,0,719,,,,,,,,,,,,,,,,,160,W,hexagon,0,0,,,,,,,,,,,,,,,,repeat,number,NA,d,1.551,noRew,,,,,,0,37,0,37,0,1,,,,,,,,,,,,,,,,,
293119,2022-11-28_15h37.24.332,vts_reward_expectancy_bt,2022.2.4,MacIntel,58.82352941,Safari,1440,900,,,,,0,719,,,,,,,,,,,,,,,,,146,S,star,1,1,,,,,,,,,,,,,,,,repeat,number,numRpt,d,1.399,noRew,,,,,,0,38,0,38,0,1,,,,,,,,,,,,,,,,,
293119,2022-11-28_15h37.24.332,vts_reward_expectancy_bt,2022.2.4,MacIntel,58.82352941,Safari,1440,900,,,,,0,719,,,,,,,,,,,,,,,,,181,Y,hexagon,1,0,,,,,,,,,,,,,,,,switch,letter,lettSwt,k,0.818,noRew,,,,,,0,39,0,39,0,1,,,,,,,,,,,,,,,,,
293119,2022-11-28_15h37.24.332,vts_reward_expectancy_bt,2022.2.4,MacIntel,58.82352941,Safari,1440,900,,,,,0,719,,,,,,,,,,,,,,,,,139,W,circle,1,0,,,,,,,,,,,,,,,,repeat,letter,lettRpt,k,0.997,noRew,,,,,,0,40,0,40,0,1,,,,,,,,,,,,,,,,,
293119,2022-11-28_15h37.24.332,vts_reward_expectancy_bt,2022.2.4,MacIntel,58.82352941,Safari,1440,900,,,,,0,719,,,,,,,,,,,,,,,,,146,B,triangle,1,0,,,,,,,,,,,,,,,,switch,number,numSwt,d,1.236,noRew,,,,,,0,41,0,41,0,1,,,,,,,,,,,,,,,,,
293119,2022-11-28_15h37.24.332,vts_reward_expectancy_bt,2022.2.4,MacIntel,58.82352941,Safari,1440,900,,,,,0,719,,,,,,,,,,,,,,,,,167,H,triangle,1,0,,,,,,,,,,,,,,,,switch,letter,lettSwt,j,1.235,noRew,,,,,,0,42,0,42,0,1,,,,,,,,,,,,,,,,,
293119,2022-11-28_15h37.24.332,vts_reward_expectancy_bt,2022.2.4,MacIntel,58.82352941,Safari,1440,900,,,,,0,719,,,,,,,,,,,,,,,,,160,D,star,1,0,,,,,,,,,,,,,,,,repeat,letter,lettRpt,j,0.713,noRew,,,,,,0,43,0,43,0,1,,,,,,,,,,,,,,,,,
293119,2022-11-28_15h37.24.332,vts_reward_expectancy_bt,2022.2.4,MacIntel,58.82352941,Safari,1440,900,,,,,0,719,,,,,,,,,,,,,,,,,174,D,triangle,1,0,,,,,,,,,,,,,,,,repeat,letter,lettRpt,j,0.653,noRew,,,,,,0,44,0,44,0,1,,,,,,,,,,,,,,,,,
293119,2022-11-28_15h37.24.332,vts_reward_expectancy_bt,2022.2.4,MacIntel,58.82352941,Safari,1440,900,,,,,0,719,,,,,,,,,,,,,,,,,181,U,circle,0,0,,,,,,,,,,,,,,,,switch,number,NA,d,1.099,noRew,,,,,,0,45,0,45,0,1,,,,,,,,,,,,,,,,,
293119,2022-11-28_15h37.24.332,vts_reward_expectancy_bt,2022.2.4,MacIntel,58.82352941,Safari,1440,900,,,,,0,719,,,,,,,,,,,,,,,,,132,H,hexagon,1,1,,,,,,,,,,,,,,,,repeat,number,numRpt,d,0.862,noRew,,,,,,0,46,0,46,0,1,,,,,,,,,,,,,,,,,
293119,2022-11-28_15h37.24.332,vts_reward_expectancy_bt,2022.2.4,MacIntel,58.82352941,Safari,1440,900,,,,,0,719,,,,,,,,,,,,,,,,,125,W,triangle,1,0,,,,,,,,,,,,,,,,repeat,number,numRpt,d,1.134,noRew,,,,,,0,47,0,47,0,1,,,,,,,,,,,,,,,,,
293119,2022-11-28_15h37.24.332,vts_reward_expectancy_bt,2022.2.4,MacIntel,58.82352941,Safari,1440,900,,,,,0,719,,,,,,,,,,,,,,,,,174,F,star,1,0,,,,,,,,,,,,,,,,repeat,number,numRpt,f,0.983,noRew,,,,,,0,48,0,48,0,1,,,,,,,,,,,,,,,,,
293119,2022-11-28_15h37.24.332,vts_reward_expectancy_bt,2022.2.4,MacIntel,58.82352941,Safari,1440,900,,,,,0,719,,,,,,,,,,,,,,,,,139,W,hexagon,1,0,,,,,,,,,,,,,,,,switch,letter,lettSwt,k,0.882,noRew,,,,,,0,49,0,49,0,1,,,,,,,,,,,,,,,,,
293119,2022-11-28_15h37.24.332,vts_reward_expectancy_bt,2022.2.4,MacIntel,58.82352941,Safari,1440,900,,,,,0,719,,,,,,,,,,,,,,,,,146,U,circle,1,0,,,,,,,,,,,,,,,,repeat,letter,lettRpt,k,0.683,noRew,,,,,,0,50,0,50,0,1,,,,,,,,,,,,,,,,,
293119,2022-11-28_15h37.24.332,vts_reward_expectancy_bt,2022.2.4,MacIntel,58.82352941,Safari,1440,900,,,,,0,719,,,,,,,,,,,,,,,,,167,Y,hexagon,1,0,,,,,,,,,,,,,,,,repeat,letter,lettRpt,k,0.728,noRew,,,,,,0,51,0,51,0,1,,,,,,,,,,,,,,,,,
293119,2022-11-28_15h37.24.332,vts_reward_expectancy_bt,2022.2.4,MacIntel,58.82352941,Safari,1440,900,,,,,0,719,,,,,,,,,,,,,,,,,174,H,circle,1,0,,,,,,,,,,,,,,,,switch,number,numSwt,f,1.017,noRew,,,,,,0,52,0,52,0,1,,,,,,,,,,,,,,,,,
293119,2022-11-28_15h37.24.332,vts_reward_expectancy_bt,2022.2.4,MacIntel,58.82352941,Safari,1440,900,,,,,0,719,,,,,,,,,,,,,,,,,167,F,hexagon,1,0,,,,,,,,,,,,,,,,switch,letter,lettSwt,j,1.115,noRew,,,,,,0,53,0,53,0,1,,,,,,,,,,,,,,,,,
293119,2022-11-28_15h37.24.332,vts_reward_expectancy_bt,2022.2.4,MacIntel,58.82352941,Safari,1440,900,,,,,0,719,,,,,,,,,,,,,,,,,160,B,hexagon,1,0,,,,,,,,,,,,,,,,switch,number,numSwt,f,1.068,noRew,,,,,,0,54,0,54,0,1,,,,,,,,,,,,,,,,,
293119,2022-11-28_15h37.24.332,vts_reward_expectancy_bt,2022.2.4,MacIntel,58.82352941,Safari,1440,900,,,,,0,719,,,,,,,,,,,,,,,,,181,W,triangle,1,0,,,,,,,,,,,,,,,,repeat,number,numRpt,f,0.871,noRew,,,,,,0,55,0,55,0,1,,,,,,,,,,,,,,,,,
293119,2022-11-28_15h37.24.332,vts_reward_expectancy_bt,2022.2.4,MacIntel,58.82352941,Safari,1440,900,,,,,0,719,,,,,,,,,,,,,,,,,174,Y,hexagon,1,0,,,,,,,,,,,,,,,,switch,letter,lettSwt,k,0.848,noRew,,,,,,0,56,0,56,0,1,,,,,,,,,,,,,,,,,
293119,2022-11-28_15h37.24.332,vts_reward_expectancy_bt,2022.2.4,MacIntel,58.82352941,Safari,1440,900,,,,,0,719,,,,,,,,,,,,,,,,,181,D,star,1,0,,,,,,,,,,,,,,,,switch,number,numSwt,f,1.281,noRew,,,,,,0,57,0,57,0,1,,,,,,,,,,,,,,,,,
293119,2022-11-28_15h37.24.332,vts_reward_expectancy_bt,2022.2.4,MacIntel,58.82352941,Safari,1440,900,,,,,0,719,,,,,,,,,,,,,,,,,146,W,circle,1,0,,,,,,,,,,,,,,,,repeat,number,numRpt,d,0.798,noRew,,,,,,0,58,0,58,0,1,,,,,,,,,,,,,,,,,
293119,2022-11-28_15h37.24.332,vts_reward_expectancy_bt,2022.2.4,MacIntel,58.82352941,Safari,1440,900,,,,,0,719,,,,,,,,,,,,,,,,,125,S,hexagon,1,0,,,,,,,,,,,,,,,,switch,letter,lettSwt,k,0.752,noRew,,,,,,0,59,0,59,0,1,,,,,,,,,,,,,,,,,
293119,2022-11-28_15h37.24.332,vts_reward_expectancy_bt,2022.2.4,MacIntel,58.82352941,Safari,1440,900,,,,,0,719,,,,,,,,,,,,,,,,,125,Y,circle,1,0,,,,,,,,,,,,,,,,switch,number,numSwt,d,0.554,noRew,,,,,,0,60,0,60,0,1,,,,,,,,,,,,,,,,,
293119,2022-11-28_15h37.24.332,vts_reward_expectancy_bt,2022.2.4,MacIntel,58.82352941,Safari,1440,900,,,,,0,719,,,,,,,,,,,,,,,,,174,B,triangle,1,0,,,,,,,,,,,,,,,,switch,letter,lettSwt,j,0.831,noRew,,,,,,0,61,0,61,0,1,,,,,,,,,,,,,,,,,
293119,2022-11-28_15h37.24.332,vts_reward_expectancy_bt,2022.2.4,MacIntel,58.82352941,Safari,1440,900,,,,,0,719,,,,,,,,,,,,,,,,,181,H,circle,1,0,,,,,,,,,,,,,,,,repeat,letter,lettRpt,j,1.066,noRew,,,,,,0,62,0,62,0,1,,,,,,,,,,,,,,,,,
293119,2022-11-28_15h37.24.332,vts_reward_expectancy_bt,2022.2.4,MacIntel,58.82352941,Safari,1440,900,,,,,0,719,,,,,,,,,,,,,,,,,167,S,hexagon,1,0,,,,,,,,,,,,,,,,switch,number,numSwt,f,0.934,noRew,,,,,,0,63,0,63,0,1,,,,,,,,,,,,,,,,,
293119,2022-11-28_15h37.24.332,vts_reward_expectancy_bt,2022.2.4,MacIntel,58.82352941,Safari,1440,900,,,,,,,,,,,,,,,,,,,,,,,,,,,,,,,,,,,,,,,,,,,,,,,,,,,,,,,,,,,,,,,,,,,,,,,,,,,,
293119,2022-11-28_15h37.24.332,vts_reward_expectancy_bt,2022.2.4,MacIntel,58.82352941,Safari,1440,900,,,,,0,719,,,,,,,,,,,,,,,,,160,U,triangle,0,0,,,,,,,,,,,,,,,,repeat,number,NA,d,1.197,noRew,,,,,,0,,,,,,space,10.502,high,0,0,0,0,1,,,,,,,,,
293119,2022-11-28_15h37.24.332,vts_reward_expectancy_bt,2022.2.4,MacIntel,58.82352941,Safari,1440,900,,,,,1,720,,,,,,,,,,,,,,,,,167,D,hexagon,1,1,,,,,,,,,,,,,,,,repeat,number,numRpt,f,0.613,Lo,,,,,,0,,,,,,,,high,1,0,1,0,1,,,,,,,,,
293119,2022-11-28_15h37.24.332,vts_reward_expectancy_bt,2022.2.4,MacIntel,58.82352941,Safari,1440,900,,,,,0,720,,,,,,,,,,,,,,,,,139,S,circle,1,0,,,,,,,,,,,,,,,,switch,letter,lettSwt,k,0.932,Hi,,,,,,0,,,,,,,,high,2,0,2,0,1,,,,,,,,,
293119,2022-11-28_15h37.24.332,vts_reward_expectancy_bt,2022.2.4,MacIntel,58.82352941,Safari,1440,900,,,,,1,721,,,,,,,,,,,,,,,,,132,F,star,1,0,,,,,,,,,,,,,,,,repeat,letter,lettRpt,j,0.931,Lo,,,,,,0,,,,,,,,high,3,0,3,0,1,,,,,,,,,
293119,2022-11-28_15h37.24.332,vts_reward_expectancy_bt,2022.2.4,MacIntel,58.82352941,Safari,1440,900,,,,,10,731,,,,,,,,,,,,,,,,,181,B,triangle,1,0,,,,,,,,,,,,,,,,repeat,letter,lettRpt,j,0.561,Hi,,,,,,0,,,,,,,,high,4,0,4,0,1,,,,,,,,,
293119,2022-11-28_15h37.24.332,vts_reward_expectancy_bt,2022.2.4,MacIntel,58.82352941,Safari,1440,900,,,,,1,732,,,,,,,,,,,,,,,,,174,H,hexagon,1,0,,,,,,,,,,,,,,,,switch,number,numSwt,f,1.043,Lo,,,,,,0,,,,,,,,high,5,0,5,0,1,,,,,,,,,
293119,2022-11-28_15h37.24.332,vts_reward_expectancy_bt,2022.2.4,MacIntel,58.82352941,Safari,1440,900,,,,,10,742,,,,,,,,,,,,,,,,,125,W,circle,1,0,,,,,,,,,,,,,,,,switch,letter,lettSwt,k,0.646,Hi,,,,,,0,,,,,,,,high,6,0,6,0,1,,,,,,,,,
293119,2022-11-28_15h37.24.332,vts_reward_expectancy_bt,2022.2.4,MacIntel,58.82352941,Safari,1440,900,,,,,1,743,,,,,,,,,,,,,,,,,146,Y,star,1,0,,,,,,,,,,,,,,,,repeat,letter,lettRpt,k,0.638,Lo,,,,,,0,,,,,,,,high,7,0,7,0,1,,,,,,,,,
293119,2022-11-28_15h37.24.332,vts_reward_expectancy_bt,2022.2.4,MacIntel,58.82352941,Safari,1440,900,,,,,1,744,,,,,,,,,,,,,,,,,160,U,hexagon,1,0,,,,,,,,,,,,,,,,switch,number,numSwt,f,0.599,Lo,,,,,,0,,,,,,,,high,8,0,8,0,1,,,,,,,,,
293119,2022-11-28_15h37.24.332,vts_reward_expectancy_bt,2022.2.4,MacIntel,58.82352941,Safari,1440,900,,,,,1,745,,,,,,,,,,,,,,,,,167,D,triangle,1,0,,,,,,,,,,,,,,,,repeat,number,numRpt,f,0.665,Hi,,,,,,0,,,,,,,,high,9,0,9,0,1,,,,,,,,,
293119,2022-11-28_15h37.24.332,vts_reward_expectancy_bt,2022.2.4,MacIntel,58.82352941,Safari,1440,900,,,,,10,755,,,,,,,,,,,,,,,,,139,S,star,1,0,,,,,,,,,,,,,,,,repeat,number,numRpt,d,0.8,Lo,,,,,,0,,,,,,,,high,10,0,10,0,1,,,,,,,,,
293119,2022-11-28_15h37.24.332,vts_reward_expectancy_bt,2022.2.4,MacIntel,58.82352941,Safari,1440,900,,,,,1,756,,,,,,,,,,,,,,,,,132,F,circle,1,0,,,,,,,,,,,,,,,,switch,letter,lettSwt,j,0.614,Hi,,,,,,0,,,,,,,,high,11,0,11,0,1,,,,,,,,,
293119,2022-11-28_15h37.24.332,vts_reward_expectancy_bt,2022.2.4,MacIntel,58.82352941,Safari,1440,900,,,,,0,756,,,,,,,,,,,,,,,,,181,B,circle,1,0,,,,,,,,,,,,,,,,repeat,letter,lettRpt,j,1.12,Hi,,,,,,0,,,,,,,,high,12,0,12,0,1,,,,,,,,,
293119,2022-11-28_15h37.24.332,vts_reward_expectancy_bt,2022.2.4,MacIntel,58.82352941,Safari,1440,900,,,,,10,766,,,,,,,,,,,,,,,,,174,H,triangle,1,0,,,,,,,,,,,,,,,,repeat,letter,lettRpt,j,0.584,Hi,,,,,,0,,,,,,,,high,13,0,13,0,1,,,,,,,,,
293119,2022-11-28_15h37.24.332,vts_reward_expectancy_bt,2022.2.4,MacIntel,58.82352941,Safari,1440,900,,,,,1,767,,,,,,,,,,,,,,,,,125,W,hexagon,1,0,,,,,,,,,,,,,,,,switch,number,numSwt,d,0.55,Lo,,,,,,0,,,,,,,,high,14,0,14,0,1,,,,,,,,,
293119,2022-11-28_15h37.24.332,vts_reward_expectancy_bt,2022.2.4,MacIntel,58.82352941,Safari,1440,900,,,,,1,768,,,,,,,,,,,,,,,,,146,Y,star,1,0,,,,,,,,,,,,,,,,repeat,number,numRpt,d,0.67,Lo,,,,,,0,,,,,,,,high,15,0,15,0,1,,,,,,,,,
293119,2022-11-28_15h37.24.332,vts_reward_expectancy_bt,2022.2.4,MacIntel,58.82352941,Safari,1440,900,,,,,1,769,,,,,,,,,,,,,,,,,139,U,star,1,0,,,,,,,,,,,,,,,,switch,letter,lettSwt,k,0.582,Lo,,,,,,0,,,,,,,,high,16,0,16,0,1,,,,,,,,,
293119,2022-11-28_15h37.24.332,vts_reward_expectancy_bt,2022.2.4,MacIntel,58.82352941,Safari,1440,900,,,,,1,770,,,,,,,,,,,,,,,,,132,S,hexagon,1,0,,,,,,,,,,,,,,,,switch,number,numSwt,d,0.78,Lo,,,,,,0,,,,,,,,high,17,0,17,0,1,,,,,,,,,
293119,2022-11-28_15h37.24.332,vts_reward_expectancy_bt,2022.2.4,MacIntel,58.82352941,Safari,1440,900,,,,,10,780,,,,,,,,,,,,,,,,,160,H,circle,1,0,,,,,,,,,,,,,,,,switch,letter,lettSwt,j,0.731,Hi,,,,,,0,,,,,,,,high,18,0,18,0,1,,,,,,,,,
293119,2022-11-28_15h37.24.332,vts_reward_expectancy_bt,2022.2.4,MacIntel,58.82352941,Safari,1440,900,,,,,10,790,,,,,,,,,,,,,,,,,125,B,triangle,1,0,,,,,,,,,,,,,,,,repeat,letter,lettRpt,j,0.53,Hi,,,,,,0,,,,,,,,high,19,0,19,0,1,,,,,,,,,
293119,2022-11-28_15h37.24.332,vts_reward_expectancy_bt,2022.2.4,MacIntel,58.82352941,Safari,1440,900,,,,,1,791,,,,,,,,,,,,,,,,,174,Y,star,1,0,,,,,,,,,,,,,,,,switch,number,numSwt,f,0.764,Lo,,,,,,0,,,,,,,,high,20,0,20,0,1,,,,,,,,,
293119,2022-11-28_15h37.24.332,vts_reward_expectancy_bt,2022.2.4,MacIntel,58.82352941,Safari,1440,900,,,,,0,791,,,,,,,,,,,,,,,,,181,D,circle,1,0,,,,,,,,,,,,,,,,switch,letter,lettSwt,j,0.933,Hi,,,,,,0,,,,,,,,high,21,0,21,0,1,,,,,,,,,
293119,2022-11-28_15h37.24.332,vts_reward_expectancy_bt,2022.2.4,MacIntel,58.82352941,Safari,1440,900,,,,,10,801,,,,,,,,,,,,,,,,,146,W,hexagon,1,0,,,,,,,,,,,,,,,,switch,number,numSwt,d,0.581,Lo,,,,,,0,,,,,,,,high,22,0,22,0,1,,,,,,,,,
293119,2022-11-28_15h37.24.332,vts_reward_expectancy_bt,2022.2.4,MacIntel,58.82352941,Safari,1440,900,,,,,1,802,,,,,,,,,,,,,,,,,167,F,triangle,1,0,,,,,,,,,,,,,,,,switch,letter,lettSwt,j,0.549,Hi,,,,,,0,,,,,,,,high,23,0,23,0,1,,,,,,,,,
293119,2022-11-28_15h37.24.332,vts_reward_expectancy_bt,2022.2.4,MacIntel,58.82352941,Safari,1440,900,,,,,10,812,,,,,,,,,,,,,,,,,125,H,circle,1,0,,,,,,,,,,,,,,,,repeat,letter,lettRpt,j,0.45,Hi,,,,,,0,,,,,,,,high,24,0,24,0,1,,,,,,,,,
293119,2022-11-28_15h37.24.332,vts_reward_expectancy_bt,2022.2.4,MacIntel,58.82352941,Safari,1440,900,,,,,1,813,,,,,,,,,,,,,,,,,139,W,star,1,0,,,,,,,,,,,,,,,,switch,number,numSwt,d,0.569,Lo,,,,,,0,,,,,,,,high,25,0,25,0,1,,,,,,,,,
293119,2022-11-28_15h37.24.332,vts_reward_expectancy_bt,2022.2.4,MacIntel,58.82352941,Safari,1440,900,,,,,1,814,,,,,,,,,,,,,,,,,160,Y,hexagon,1,0,,,,,,,,,,,,,,,,repeat,number,numRpt,f,0.615,Lo,,,,,,0,,,,,,,,high,26,0,26,0,1,,,,,,,,,
293119,2022-11-28_15h37.24.332,vts_reward_expectancy_bt,2022.2.4,MacIntel,58.82352941,Safari,1440,900,,,,,10,824,,,,,,,,,,,,,,,,,167,D,triangle,1,0,,,,,,,,,,,,,,,,switch,letter,lettSwt,j,0.434,Hi,,,,,,0,,,,,,,,high,27,0,27,0,1,,,,,,,,,
293119,2022-11-28_15h37.24.332,vts_reward_expectancy_bt,2022.2.4,MacIntel,58.82352941,Safari,1440,900,,,,,10,834,,,,,,,,,,,,,,,,,174,B,circle,1,0,,,,,,,,,,,,,,,,repeat,letter,lettRpt,j,0.497,Hi,,,,,,0,,,,,,,,high,28,0,28,0,1,,,,,,,,,
293119,2022-11-28_15h37.24.332,vts_reward_expectancy_bt,2022.2.4,MacIntel,58.82352941,Safari,1440,900,,,,,1,835,,,,,,,,,,,,,,,,,132,F,triangle,1,0,,,,,,,,,,,,,,,,repeat,letter,lettRpt,j,0.447,Hi,,,,,,0,,,,,,,,high,29,0,29,0,1,,,,,,,,,
293119,2022-11-28_15h37.24.332,vts_reward_expectancy_bt,2022.2.4,MacIntel,58.82352941,Safari,1440,900,,,,,0,835,,,,,,,,,,,,,,,,,181,U,hexagon,0,0,,,,,,,,,,,,,,,,switch,number,NA,d,0.613,Hi,,,,,,0,,,,,,,,high,30,0,30,0,1,,,,,,,,,
293119,2022-11-28_15h37.24.332,vts_reward_expectancy_bt,2022.2.4,MacIntel,58.82352941,Safari,1440,900,,,,,10,845,,,,,,,,,,,,,,,,,146,S,star,1,1,,,,,,,,,,,,,,,,repeat,number,numRpt,d,0.682,Lo,,,,,,0,,,,,,,,high,31,0,31,0,1,,,,,,,,,
293119,2022-11-28_15h37.24.332,vts_reward_expectancy_bt,2022.2.4,MacIntel,58.82352941,Safari,1440,900,,,,,0,845,,,,,,,,,,,,,,,,,174,S,circle,1,0,,,,,,,,,,,,,,,,repeat,number,numRpt,f,0.904,Hi,,,,,,1,,,,,,space,2.171,high,0,0,0,0,1,,,,,,,,,
293119,2022-11-28_15h37.24.332,vts_reward_expectancy_bt,2022.2.4,MacIntel,58.82352941,Safari,1440,900,,,,,1,846,,,,,,,,,,,,,,,,,132,U,star,1,0,,,,,,,,,,,,,,,,repeat,number,numRpt,d,0.663,Lo,,,,,,1,,,,,,,,high,1,0,1,0,1,,,,,,,,,
293119,2022-11-28_15h37.24.332,vts_reward_expectancy_bt,2022.2.4,MacIntel,58.82352941,Safari,1440,900,,,,,10,856,,,,,,,,,,,,,,,,,160,H,triangle,1,0,,,,,,,,,,,,,,,,switch,letter,lettSwt,j,0.484,Hi,,,,,,1,,,,,,,,high,2,0,2,0,1,,,,,,,,,
293119,2022-11-28_15h37.24.332,vts_reward_expectancy_bt,2022.2.4,MacIntel,58.82352941,Safari,1440,900,,,,,10,866,,,,,,,,,,,,,,,,,167,Y,hexagon,1,0,,,,,,,,,,,,,,,,switch,number,numSwt,f,0.702,Lo,,,,,,1,,,,,,,,high,3,0,3,0,1,,,,,,,,,
293119,2022-11-28_15h37.24.332,vts_reward_expectancy_bt,2022.2.4,MacIntel,58.82352941,Safari,1440,900,,,,,0,866,,,,,,,,,,,,,,,,,181,B,circle,1,0,,,,,,,,,,,,,,,,repeat,number,numRpt,f,0.745,Hi,,,,,,1,,,,,,,,high,4,0,4,0,1,,,,,,,,,
293119,2022-11-28_15h37.24.332,vts_reward_expectancy_bt,2022.2.4,MacIntel,58.82352941,Safari,1440,900,,,,,1,867,,,,,,,,,,,,,,,,,146,F,star,1,0,,,,,,,,,,,,,,,,repeat,number,numRpt,d,0.529,Lo,,,,,,1,,,,,,,,high,5,0,5,0,1,,,,,,,,,
293119,2022-11-28_15h37.24.332,vts_reward_expectancy_bt,2022.2.4,MacIntel,58.82352941,Safari,1440,900,,,,,10,877,,,,,,,,,,,,,,,,,125,D,triangle,1,0,,,,,,,,,,,,,,,,switch,letter,lettSwt,j,0.551,Hi,,,,,,1,,,,,,,,high,6,0,6,0,1,,,,,,,,,
293119,2022-11-28_15h37.24.332,vts_reward_expectancy_bt,2022.2.4,MacIntel,58.82352941,Safari,1440,900,,,,,1,878,,,,,,,,,,,,,,,,,139,W,hexagon,1,0,,,,,,,,,,,,,,,,repeat,letter,lettRpt,k,0.77,Lo,,,,,,1,,,,,,,,high,7,0,7,0,1,,,,,,,,,
293119,2022-11-28_15h37.24.332,vts_reward_expectancy_bt,2022.2.4,MacIntel,58.82352941,Safari,1440,900,,,,,1,879,,,,,,,,,,,,,,,,,174,S,star,1,0,,,,,,,,,,,,,,,,switch,number,numSwt,f,0.598,Lo,,,,,,1,,,,,,,,high,8,0,8,0,1,,,,,,,,,
293119,2022-11-28_15h37.24.332,vts_reward_expectancy_bt,2022.2.4,MacIntel,58.82352941,Safari,1440,900,,,,,10,889,,,,,,,,,,,,,,,,,132,U,circle,1,0,,,,,,,,,,,,,,,,switch,letter,lettSwt,k,0.55,Hi,,,,,,1,,,,,,,,high,9,0,9,0,1,,,,,,,,,
293119,2022-11-28_15h37.24.332,vts_reward_expectancy_bt,2022.2.4,MacIntel,58.82352941,Safari,1440,900,,,,,10,899,,,,,,,,,,,,,,,,,160,H,triangle,1,0,,,,,,,,,,,,,,,,repeat,letter,lettRpt,j,0.518,Hi,,,,,,1,,,,,,,,high,10,0,10,0,1,,,,,,,,,
293119,2022-11-28_15h37.24.332,vts_reward_expectancy_bt,2022.2.4,MacIntel,58.82352941,Safari,1440,900,,,,,1,900,,,,,,,,,,,,,,,,,167,Y,hexagon,1,0,,,,,,,,,,,,,,,,switch,number,numSwt,f,0.682,Lo,,,,,,1,,,,,,,,high,11,0,11,0,1,,,,,,,,,
293119,2022-11-28_15h37.24.332,vts_reward_expectancy_bt,2022.2.4,MacIntel,58.82352941,Safari,1440,900,,,,,1,901,,,,,,,,,,,,,,,,,181,B,star,1,0,,,,,,,,,,,,,,,,switch,letter,lettSwt,j,0.732,Lo,,,,,,1,,,,,,,,high,12,0,12,0,1,,,,,,,,,
293119,2022-11-28_15h37.24.332,vts_reward_expectancy_bt,2022.2.4,MacIntel,58.82352941,Safari,1440,900,,,,,0,901,,,,,,,,,,,,,,,,,146,F,circle,1,0,,,,,,,,,,,,,,,,repeat,letter,lettRpt,j,0.819,Hi,,,,,,1,,,,,,,,high,13,0,13,0,1,,,,,,,,,
293119,2022-11-28_15h37.24.332,vts_reward_expectancy_bt,2022.2.4,MacIntel,58.82352941,Safari,1440,900,,,,,0,901,,,,,,,,,,,,,,,,,125,D,triangle,1,0,,,,,,,,,,,,,,,,switch,number,numSwt,d,0.601,Hi,,,,,,1,,,,,,,,high,14,0,14,0,1,,,,,,,,,
293119,2022-11-28_15h37.24.332,vts_reward_expectancy_bt,2022.2.4,MacIntel,58.82352941,Safari,1440,900,,,,,0,901,,,,,,,,,,,,,,,,,139,W,hexagon,0,0,,,,,,,,,,,,,,,,switch,letter,NA,j,0.55,Hi,,,,,,1,,,,,,,,high,15,0,15,0,1,,,,,,,,,
293119,2022-11-28_15h37.24.332,vts_reward_expectancy_bt,2022.2.4,MacIntel,58.82352941,Safari,1440,900,,,,,0,901,,,,,,,,,,,,,,,,,132,H,triangle,1,1,,,,,,,,,,,,,,,,repeat,letter,lettRpt,j,0.534,Hi,,,,,,1,,,,,,,,high,16,0,16,0,1,,,,,,,,,
293119,2022-11-28_15h37.24.332,vts_reward_expectancy_bt,2022.2.4,MacIntel,58.82352941,Safari,1440,900,,,,,10,911,,,,,,,,,,,,,,,,,146,U,star,1,0,,,,,,,,,,,,,,,,switch,number,numSwt,d,0.55,Lo,,,,,,1,,,,,,,,high,17,0,17,0,1,,,,,,,,,
293119,2022-11-28_15h37.24.332,vts_reward_expectancy_bt,2022.2.4,MacIntel,58.82352941,Safari,1440,900,,,,,10,921,,,,,,,,,,,,,,,,,174,F,circle,1,0,,,,,,,,,,,,,,,,repeat,number,numRpt,f,0.513,Hi,,,,,,1,,,,,,,,high,18,0,18,0,1,,,,,,,,,
293119,2022-11-28_15h37.24.332,vts_reward_expectancy_bt,2022.2.4,MacIntel,58.82352941,Safari,1440,900,,,,,1,922,,,,,,,,,,,,,,,,,139,S,hexagon,1,0,,,,,,,,,,,,,,,,switch,letter,lettSwt,k,0.547,Lo,,,,,,1,,,,,,,,high,19,0,19,0,1,,,,,,,,,
293119,2022-11-28_15h37.24.332,vts_reward_expectancy_bt,2022.2.4,MacIntel,58.82352941,Safari,1440,900,,,,,10,932,,,,,,,,,,,,,,,,,167,Y,circle,1,0,,,,,,,,,,,,,,,,repeat,letter,lettRpt,k,0.51,Hi,,,,,,1,,,,,,,,high,20,0,20,0,1,,,,,,,,,
293119,2022-11-28_15h37.24.332,vts_reward_expectancy_bt,2022.2.4,MacIntel,58.82352941,Safari,1440,900,,,,,1,933,,,,,,,,,,,,,,,,,160,B,star,1,0,,,,,,,,,,,,,,,,repeat,letter,lettRpt,j,0.5,Lo,,,,,,1,,,,,,,,high,21,0,21,0,1,,,,,,,,,
293119,2022-11-28_15h37.24.332,vts_reward_expectancy_bt,2022.2.4,MacIntel,58.82352941,Safari,1440,900,,,,,0,933,,,,,,,,,,,,,,,,,181,D,triangle,1,0,,,,,,,,,,,,,,,,switch,number,numSwt,f,0.696,Hi,,,,,,1,,,,,,,,high,22,0,22,0,1,,,,,,,,,
293119,2022-11-28_15h37.24.332,vts_reward_expectancy_bt,2022.2.4,MacIntel,58.82352941,Safari,1440,900,,,,,1,934,,,,,,,,,,,,,,,,,125,W,hexagon,1,0,,,,,,,,,,,,,,,,repeat,number,numRpt,d,0.533,Lo,,,,,,1,,,,,,,,high,23,0,23,0,1,,,,,,,,,
293119,2022-11-28_15h37.24.332,vts_reward_expectancy_bt,2022.2.4,MacIntel,58.82352941,Safari,1440,900,,,,,0,934,,,,,,,,,,,,,,,,,132,F,triangle,1,0,,,,,,,,,,,,,,,,switch,letter,lettSwt,j,0.85,Hi,,,,,,1,,,,,,,,high,24,0,24,0,1,,,,,,,,,
293119,2022-11-28_15h37.24.332,vts_reward_expectancy_bt,2022.2.4,MacIntel,58.82352941,Safari,1440,900,,,,,1,935,,,,,,,,,,,,,,,,,160,B,star,1,0,,,,,,,,,,,,,,,,switch,number,numSwt,f,0.628,Lo,,,,,,1,,,,,,,,high,25,0,25,0,1,,,,,,,,,
293119,2022-11-28_15h37.24.332,vts_reward_expectancy_bt,2022.2.4,MacIntel,58.82352941,Safari,1440,900,,,,,1,936,,,,,,,,,,,,,,,,,174,H,circle,1,0,,,,,,,,,,,,,,,,repeat,number,numRpt,f,0.584,Hi,,,,,,1,,,,,,,,high,26,0,26,0,1,,,,,,,,,
293119,2022-11-28_15h37.24.332,vts_reward_expectancy_bt,2022.2.4,MacIntel,58.82352941,Safari,1440,900,,,,,10,946,,,,,,,,,,,,,,,,,181,D,hexagon,1,0,,,,,,,,,,,,,,,,switch,letter,lettSwt,j,0.622,Lo,,,,,,1,,,,,,,,high,27,0,27,0,1,,,,,,,,,
293119,2022-11-28_15h37.24.332,vts_reward_expectancy_bt,2022.2.4,MacIntel,58.82352941,Safari,1440,900,,,,,1,947,,,,,,,,,,,,,,,,,167,U,star,1,0,,,,,,,,,,,,,,,,repeat,letter,lettRpt,k,0.95,Lo,,,,,,1,,,,,,,,high,28,0,28,0,1,,,,,,,,,
293119,2022-11-28_15h37.24.332,vts_reward_expectancy_bt,2022.2.4,MacIntel,58.82352941,Safari,1440,900,,,,,1,948,,,,,,,,,,,,,,,,,139,S,hexagon,1,0,,,,,,,,,,,,,,,,repeat,letter,lettRpt,k,0.779,Lo,,,,,,1,,,,,,,,high,29,0,29,0,1,,,,,,,,,
293119,2022-11-28_15h37.24.332,vts_reward_expectancy_bt,2022.2.4,MacIntel,58.82352941,Safari,1440,900,,,,,0,948,,,,,,,,,,,,,,,,,125,Y,circle,1,0,,,,,,,,,,,,,,,,switch,number,numSwt,d,0.596,Hi,,,,,,1,,,,,,,,high,30,0,30,0,1,,,,,,,,,
293119,2022-11-28_15h37.24.332,vts_reward_expectancy_bt,2022.2.4,MacIntel,58.82352941,Safari,1440,900,,,,,10,958,,,,,,,,,,,,,,,,,146,W,triangle,1,0,,,,,,,,,,,,,,,,switch,letter,lettSwt,k,0.535,Hi,,,,,,1,,,,,,,,high,31,0,31,0,1,,,,,,,,,
293119,2022-11-28_15h37.24.332,vts_reward_expectancy_bt,2022.2.4,MacIntel,58.82352941,Safari,1440,900,,,,,0,958,,,,,,,,,,,,,,,,,146,U,triangle,1,0,,,,,,,,,,,,,,,,switch,number,numSwt,d,0.77,Hi,,,,,,2,,,,,,space,1.084,high,0,0,0,0,1,,,,,,,,,
293119,2022-11-28_15h37.24.332,vts_reward_expectancy_bt,2022.2.4,MacIntel,58.82352941,Safari,1440,900,,,,,1,959,,,,,,,,,,,,,,,,,174,Y,star,1,0,,,,,,,,,,,,,,,,repeat,number,numRpt,f,0.527,Lo,,,,,,2,,,,,,,,high,1,0,1,0,1,,,,,,,,,
293119,2022-11-28_15h37.24.332,vts_reward_expectancy_bt,2022.2.4,MacIntel,58.82352941,Safari,1440,900,,,,,0,959,,,,,,,,,,,,,,,,,132,H,circle,1,0,,,,,,,,,,,,,,,,switch,letter,lettSwt,j,0.921,Hi,,,,,,2,,,,,,,,high,2,0,2,0,1,,,,,,,,,
293119,2022-11-28_15h37.24.332,vts_reward_expectancy_bt,2022.2.4,MacIntel,58.82352941,Safari,1440,900,,,,,1,960,,,,,,,,,,,,,,,,,139,B,hexagon,1,0,,,,,,,,,,,,,,,,repeat,letter,lettRpt,j,0.6,Lo,,,,,,2,,,,,,,,high,3,0,3,0,1,,,,,,,,,
293119,2022-11-28_15h37.24.332,vts_reward_expectancy_bt,2022.2.4,MacIntel,58.82352941,Safari,1440,900,,,,,0,960,,,,,,,,,,,,,,,,,160,S,triangle,1,0,,,,,,,,,,,,,,,,repeat,letter,lettRpt,k,0.532,Hi,,,,,,2,,,,,,,,high,4,0,4,0,1,,,,,,,,,
293119,2022-11-28_15h37.24.332,vts_reward_expectancy_bt,2022.2.4,MacIntel,58.82352941,Safari,1440,900,,,,,10,970,,,,,,,,,,,,,,,,,167,D,star,1,0,,,,,,,,,,,,,,,,repeat,letter,lettRpt,j,0.579,Lo,,,,,,2,,,,,,,,high,5,0,5,0,1,,,,,,,,,
293119,2022-11-28_15h37.24.332,vts_reward_expectancy_bt,2022.2.4,MacIntel,58.82352941,Safari,1440,900,,,,,0,970,,,,,,,,,,,,,,,,,181,W,circle,1,0,,,,,,,,,,,,,,,,switch,number,numSwt,f,0.65,Hi,,,,,,2,,,,,,,,high,6,0,6,0,1,,,,,,,,,
293119,2022-11-28_15h37.24.332,vts_reward_expectancy_bt,2022.2.4,MacIntel,58.82352941,Safari,1440,900,,,,,10,980,,,,,,,,,,,,,,,,,125,F,hexagon,1,0,,,,,,,,,,,,,,,,repeat,number,numRpt,d,0.452,Lo,,,,,,2,,,,,,,,high,7,0,7,0,1,,,,,,,,,
293119,2022-11-28_15h37.24.332,vts_reward_expectancy_bt,2022.2.4,MacIntel,58.82352941,Safari,1440,900,,,,,0,980,,,,,,,,,,,,,,,,,146,U,triangle,0,0,,,,,,,,,,,,,,,,switch,letter,NA,j,0.634,Lo,,,,,,2,,,,,,,,high,8,0,8,0,1,,,,,,,,,
293119,2022-11-28_15h37.24.332,vts_reward_expectancy_bt,2022.2.4,MacIntel,58.82352941,Safari,1440,900,,,,,0,980,,,,,,,,,,,,,,,,,174,Y,circle,1,1,,,,,,,,,,,,,,,,repeat,letter,lettRpt,k,0.566,Hi,,,,,,2,,,,,,,,high,9,0,9,0,1,,,,,,,,,
293119,2022-11-28_15h37.24.332,vts_reward_expectancy_bt,2022.2.4,MacIntel,58.82352941,Safari,1440,900,,,,,10,990,,,,,,,,,,,,,,,,,132,H,star,1,0,,,,,,,,,,,,,,,,repeat,letter,lettRpt,j,0.682,Lo,,,,,,2,,,,,,,,high,10,0,10,0,1,,,,,,,,,
293119,2022-11-28_15h37.24.332,vts_reward_expectancy_bt,2022.2.4,MacIntel,58.82352941,Safari,1440,900,,,,,10,1000,,,,,,,,,,,,,,,,,139,B,hexagon,1,0,,,,,,,,,,,,,,,,switch,number,numSwt,d,0.75,Lo,,,,,,2,,,,,,,,high,11,0,11,0,1,,,,,,,,,
293119,2022-11-28_15h37.24.332,vts_reward_expectancy_bt,2022.2.4,MacIntel,58.82352941,Safari,1440,900,,,,,1,1001,,,,,,,,,,,,,,,,,160,S,star,1,0,,,,,,,,,,,,,,,,repeat,number,numRpt,f,0.515,Lo,,,,,,2,,,,,,,,high,12,0,12,0,1,,,,,,,,,
293119,2022-11-28_15h37.24.332,vts_reward_expectancy_bt,2022.2.4,MacIntel,58.82352941,Safari,1440,900,,,,,1,1002,,,,,,,,,,,,,,,,,167,D,circle,1,0,,,,,,,,,,,,,,,,switch,letter,lettSwt,j,0.481,Hi,,,,,,2,,,,,,,,high,13,0,13,0,1,,,,,,,,,
293119,2022-11-28_15h37.24.332,vts_reward_expectancy_bt,2022.2.4,MacIntel,58.82352941,Safari,1440,900,,,,,10,1012,,,,,,,,,,,,,,,,,181,W,triangle,1,0,,,,,,,,,,,,,,,,switch,number,numSwt,f,0.45,Hi,,,,,,2,,,,,,,,high,14,0,14,0,1,,,,,,,,,
293119,2022-11-28_15h37.24.332,vts_reward_expectancy_bt,2022.2.4,MacIntel,58.82352941,Safari,1440,900,,,,,1,1013,,,,,,,,,,,,,,,,,125,F,hexagon,1,0,,,,,,,,,,,,,,,,switch,letter,lettSwt,j,0.685,Lo,,,,,,2,,,,,,,,high,15,0,15,0,1,,,,,,,,,
293119,2022-11-28_15h37.24.332,vts_reward_expectancy_bt,2022.2.4,MacIntel,58.82352941,Safari,1440,900,,,,,1,1014,,,,,,,,,,,,,,,,,160,Y,star,1,0,,,,,,,,,,,,,,,,switch,number,numSwt,f,0.45,Lo,,,,,,2,,,,,,,,high,16,0,16,0,1,,,,,,,,,
293119,2022-11-28_15h37.24.332,vts_reward_expectancy_bt,2022.2.4,MacIntel,58.82352941,Safari,1440,900,,,,,10,1024,,,,,,,,,,,,,,,,,174,U,hexagon,1,0,,,,,,,,,,,,,,,,repeat,number,numRpt,f,0.762,Lo,,,,,,2,,,,,,,,high,17,0,17,0,1,,,,,,,,,
293119,2022-11-28_15h37.24.332,vts_reward_expectancy_bt,2022.2.4,MacIntel,58.82352941,Safari,1440,900,,,,,10,1034,,,,,,,,,,,,,,,,,167,B,triangle,1,0,,,,,,,,,,,,,,,,switch,letter,lettSwt,j,0.547,Hi,,,,,,2,,,,,,,,high,18,0,18,0,1,,,,,,,,,
293119,2022-11-28_15h37.24.332,vts_reward_expectancy_bt,2022.2.4,MacIntel,58.82352941,Safari,1440,900,,,,,0,1034,,,,,,,,,,,,,,,,,125,F,circle,0,0,,,,,,,,,,,,,,,,repeat,letter,NA,k,0.679,Hi,,,,,,2,,,,,,,,high,19,0,19,0,1,,,,,,,,,
293119,2022-11-28_15h37.24.332,vts_reward_expectancy_bt,2022.2.4,MacIntel,58.82352941,Safari,1440,900,,,,,1,1035,,,,,,,,,,,,,,,,,139,D,hexagon,1,1,,,,,,,,,,,,,,,,repeat,letter,lettRpt,j,0.949,Lo,,,,,,2,,,,,,,,high,20,0,20,0,1,,,,,,,,,
293119,2022-11-28_15h37.24.332,vts_reward_expectancy_bt,2022.2.4,MacIntel,58.82352941,Safari,1440,900,,,,,0,1035,,,,,,,,,,,,,,,,,132,W,triangle,1,0,,,,,,,,,,,,,,,,switch,number,numSwt,d,0.632,Hi,,,,,,2,,,,,,,,high,21,0,21,0,1,,,,,,,,,
293119,2022-11-28_15h37.24.332,vts_reward_expectancy_bt,2022.2.4,MacIntel,58.82352941,Safari,1440,900,,,,,0,1035,,,,,,,,,,,,,,,,,181,H,circle,0,0,,,,,,,,,,,,,,,,repeat,number,NA,d,0.58,Hi,,,,,,2,,,,,,,,high,22,0,22,0,1,,,,,,,,,
293119,2022-11-28_15h37.24.332,vts_reward_expectancy_bt,2022.2.4,MacIntel,58.82352941,Safari,1440,900,,,,,1,1036,,,,,,,,,,,,,,,,,146,S,star,1,1,,,,,,,,,,,,,,,,repeat,number,numRpt,d,0.698,Lo,,,,,,2,,,,,,,,high,23,0,23,0,1,,,,,,,,,
293119,2022-11-28_15h37.24.332,vts_reward_expectancy_bt,2022.2.4,MacIntel,58.82352941,Safari,1440,900,,,,,1,1037,,,,,,,,,,,,,,,,,132,U,star,1,0,,,,,,,,,,,,,,,,switch,letter,lettSwt,k,0.762,Lo,,,,,,2,,,,,,,,high,24,0,24,0,1,,,,,,,,,
293119,2022-11-28_15h37.24.332,vts_reward_expectancy_bt,2022.2.4,MacIntel,58.82352941,Safari,1440,900,,,,,0,1037,,,,,,,,,,,,,,,,,125,S,circle,0,0,,,,,,,,,,,,,,,,repeat,letter,NA,j,0.694,Lo,,,,,,2,,,,,,,,high,25,0,25,0,1,,,,,,,,,
293119,2022-11-28_15h37.24.332,vts_reward_expectancy_bt,2022.2.4,MacIntel,58.82352941,Safari,1440,900,,,,,1,1038,,,,,,,,,,,,,,,,,139,F,hexagon,1,1,,,,,,,,,,,,,,,,repeat,letter,lettRpt,j,0.902,Lo,,,,,,2,,,,,,,,high,26,0,26,0,1,,,,,,,,,
293119,2022-11-28_15h37.24.332,vts_reward_expectancy_bt,2022.2.4,MacIntel,58.82352941,Safari,1440,900,,,,,0,1038,,,,,,,,,,,,,,,,,174,D,triangle,1,0,,,,,,,,,,,,,,,,repeat,letter,lettRpt,j,0.619,Hi,,,,,,2,,,,,,,,high,27,0,27,0,1,,,,,,,,,
293119,2022-11-28_15h37.24.332,vts_reward_expectancy_bt,2022.2.4,MacIntel,58.82352941,Safari,1440,900,,,,,1,1039,,,,,,,,,,,,,,,,,160,W,hexagon,1,0,,,,,,,,,,,,,,,,repeat,letter,lettRpt,k,0.596,Lo,,,,,,2,,,,,,,,high,28,0,28,0,1,,,,,,,,,
293119,2022-11-28_15h37.24.332,vts_reward_expectancy_bt,2022.2.4,MacIntel,58.82352941,Safari,1440,900,,,,,1,1040,,,,,,,,,,,,,,,,,146,H,star,1,0,,,,,,,,,,,,,,,,switch,number,numSwt,d,0.596,Lo,,,,,,2,,,,,,,,high,29,0,29,0,1,,,,,,,,,
293119,2022-11-28_15h37.24.332,vts_reward_expectancy_bt,2022.2.4,MacIntel,58.82352941,Safari,1440,900,,,,,0,1040,,,,,,,,,,,,,,,,,181,Y,triangle,1,0,,,,,,,,,,,,,,,,repeat,number,numRpt,f,1.001,Hi,,,,,,2,,,,,,,,high,30,0,30,0,1,,,,,,,,,
293119,2022-11-28_15h37.24.332,vts_reward_expectancy_bt,2022.2.4,MacIntel,58.82352941,Safari,1440,900,,,,,0,1040,,,,,,,,,,,,,,,,,167,B,circle,1,0,,,,,,,,,,,,,,,,repeat,number,numRpt,f,0.596,Hi,,,,,,2,,,,,,,,high,31,0,31,0,1,,,,,,,,,
293119,2022-11-28_15h37.24.332,vts_reward_expectancy_bt,2022.2.4,MacIntel,58.82352941,Safari,1440,900,,,,,0,1040,,,,,,,,,,,,,,,,,160,D,hexagon,0,0,,,,,,,,,,,,,,,,switch,letter,NA,k,1.277,Hi,,,,,,3,,,,,,space,1.29,high,0,0,0,0,1,,,,,,,,,
293119,2022-11-28_15h37.24.332,vts_reward_expectancy_bt,2022.2.4,MacIntel,58.82352941,Safari,1440,900,,,,,0,1040,,,,,,,,,,,,,,,,,181,U,circle,1,1,,,,,,,,,,,,,,,,repeat,letter,lettRpt,k,0.61,Hi,,,,,,3,,,,,,,,high,1,0,1,0,1,,,,,,,,,
293119,2022-11-28_15h37.24.332,vts_reward_expectancy_bt,2022.2.4,MacIntel,58.82352941,Safari,1440,900,,,,,1,1041,,,,,,,,,,,,,,,,,125,S,star,1,0,,,,,,,,,,,,,,,,repeat,letter,lettRpt,k,0.582,Lo,,,,,,3,,,,,,,,high,2,0,2,0,1,,,,,,,,,
293119,2022-11-28_15h37.24.332,vts_reward_expectancy_bt,2022.2.4,MacIntel,58.82352941,Safari,1440,900,,,,,0,1041,,,,,,,,,,,,,,,,,132,W,triangle,1,0,,,,,,,,,,,,,,,,switch,number,numSwt,d,0.66,Hi,,,,,,3,,,,,,,,high,3,0,3,0,1,,,,,,,,,
293119,2022-11-28_15h37.24.332,vts_reward_expectancy_bt,2022.2.4,MacIntel,58.82352941,Safari,1440,900,,,,,0,1041,,,,,,,,,,,,,,,,,174,H,hexagon,0,0,,,,,,,,,,,,,,,,repeat,number,NA,d,0.342,Hi,,,,,,3,,,,,,,,high,4,0,4,0,1,,,,,,,,,
293119,2022-11-28_15h37.24.332,vts_reward_expectancy_bt,2022.2.4,MacIntel,58.82352941,Safari,1440,900,,,,,0,1041,,,,,,,,,,,,,,,,,139,F,circle,1,1,,,,,,,,,,,,,,,,repeat,number,numRpt,d,0.566,Hi,,,,,,3,,,,,,,,high,5,0,5,0,1,,,,,,,,,
293119,2022-11-28_15h37.24.332,vts_reward_expectancy_bt,2022.2.4,MacIntel,58.82352941,Safari,1440,900,,,,,1,1042,,,,,,,,,,,,,,,,,146,B,star,1,0,,,,,,,,,,,,,,,,switch,letter,lettSwt,j,0.38,Lo,,,,,,3,,,,,,,,high,6,0,6,0,1,,,,,,,,,
293119,2022-11-28_15h37.24.332,vts_reward_expectancy_bt,2022.2.4,MacIntel,58.82352941,Safari,1440,900,,,,,1,1043,,,,,,,,,,,,,,,,,167,Y,triangle,1,0,,,,,,,,,,,,,,,,repeat,letter,lettRpt,k,0.466,Hi,,,,,,3,,,,,,,,high,7,0,7,0,1,,,,,,,,,
293119,2022-11-28_15h37.24.332,vts_reward_expectancy_bt,2022.2.4,MacIntel,58.82352941,Safari,1440,900,,,,,10,1053,,,,,,,,,,,,,,,,,160,D,circle,1,0,,,,,,,,,,,,,,,,repeat,letter,lettRpt,j,0.319,Hi,,,,,,3,,,,,,,,high,8,0,8,0,1,,,,,,,,,
293119,2022-11-28_15h37.24.332,vts_reward_expectancy_bt,2022.2.4,MacIntel,58.82352941,Safari,1440,900,,,,,10,1063,,,,,,,,,,,,,,,,,181,U,triangle,1,0,,,,,,,,,,,,,,,,repeat,letter,lettRpt,k,0.427,Hi,,,,,,3,,,,,,,,high,9,0,9,0,1,,,,,,,,,
293119,2022-11-28_15h37.24.332,vts_reward_expectancy_bt,2022.2.4,MacIntel,58.82352941,Safari,1440,900,,,,,10,1073,,,,,,,,,,,,,,,,,125,S,star,1,0,,,,,,,,,,,,,,,,switch,number,numSwt,d,0.386,Lo,,,,,,3,,,,,,,,high,10,0,10,0,1,,,,,,,,,
293119,2022-11-28_15h37.24.332,vts_reward_expectancy_bt,2022.2.4,MacIntel,58.82352941,Safari,1440,900,,,,,1,1074,,,,,,,,,,,,,,,,,132,W,hexagon,1,0,,,,,,,,,,,,,,,,repeat,number,numRpt,d,0.467,Lo,,,,,,3,,,,,,,,high,11,0,11,0,1,,,,,,,,,
293119,2022-11-28_15h37.24.332,vts_reward_expectancy_bt,2022.2.4,MacIntel,58.82352941,Safari,1440,900,,,,,1,1075,,,,,,,,,,,,,,,,,174,H,hexagon,1,0,,,,,,,,,,,,,,,,switch,letter,lettSwt,j,0.367,Lo,,,,,,3,,,,,,,,high,12,0,12,0,1,,,,,,,,,
293119,2022-11-28_15h37.24.332,vts_reward_expectancy_bt,2022.2.4,MacIntel,58.82352941,Safari,1440,900,,,,,0,1075,,,,,,,,,,,,,,,,,139,F,circle,0,0,,,,,,,,,,,,,,,,repeat,letter,NA,k,0.496,Lo,,,,,,3,,,,,,,,high,13,0,13,0,1,,,,,,,,,
293119,2022-11-28_15h37.24.332,vts_reward_expectancy_bt,2022.2.4,MacIntel,58.82352941,Safari,1440,900,,,,,10,1085,,,,,,,,,,,,,,,,,146,B,triangle,1,1,,,,,,,,,,,,,,,,repeat,letter,lettRpt,j,0.384,Hi,,,,,,3,,,,,,,,high,14,0,14,0,1,,,,,,,,,
293119,2022-11-28_15h37.24.332,vts_reward_expectancy_bt,2022.2.4,MacIntel,58.82352941,Safari,1440,900,,,,,1,1086,,,,,,,,,,,,,,,,,167,Y,star,1,0,,,,,,,,,,,,,,,,repeat,letter,lettRpt,k,0.559,Lo,,,,,,3,,,,,,,,high,15,0,15,0,1,,,,,,,,,
293119,2022-11-28_15h37.24.332,vts_reward_expectancy_bt,2022.2.4,MacIntel,58.82352941,Safari,1440,900,,,,,1,1087,,,,,,,,,,,,,,,,,146,H,hexagon,1,0,,,,,,,,,,,,,,,,repeat,letter,lettRpt,j,0.627,Lo,,,,,,3,,,,,,,,high,16,0,16,0,1,,,,,,,,,
293119,2022-11-28_15h37.24.332,vts_reward_expectancy_bt,2022.2.4,MacIntel,58.82352941,Safari,1440,900,,,,,0,1087,,,,,,,,,,,,,,,,,160,S,triangle,1,0,,,,,,,,,,,,,,,,repeat,letter,lettRpt,k,0.785,Hi,,,,,,3,,,,,,,,high,17,0,17,0,1,,,,,,,,,
293119,2022-11-28_15h37.24.332,vts_reward_expectancy_bt,2022.2.4,MacIntel,58.82352941,Safari,1440,900,,,,,0,1087,,,,,,,,,,,,,,,,,181,Y,circle,0,0,,,,,,,,,,,,,,,,switch,number,NA,d,0.613,Hi,,,,,,3,,,,,,,,high,18,0,18,0,1,,,,,,,,,
293119,2022-11-28_15h37.24.332,vts_reward_expectancy_bt,2022.2.4,MacIntel,58.82352941,Safari,1440,900,,,,,1,1088,,,,,,,,,,,,,,,,,174,D,star,1,1,,,,,,,,,,,,,,,,repeat,number,numRpt,f,0.514,Lo,,,,,,3,,,,,,,,high,19,0,19,0,1,,,,,,,,,
293119,2022-11-28_15h37.24.332,vts_reward_expectancy_bt,2022.2.4,MacIntel,58.82352941,Safari,1440,900,,,,,1,1089,,,,,,,,,,,,,,,,,132,F,hexagon,1,0,,,,,,,,,,,,,,,,repeat,number,numRpt,d,0.511,Lo,,,,,,3,,,,,,,,high,20,0,20,0,1,,,,,,,,,
293119,2022-11-28_15h37.24.332,vts_reward_expectancy_bt,2022.2.4,MacIntel,58.82352941,Safari,1440,900,,,,,10,1099,,,,,,,,,,,,,,,,,125,B,triangle,1,0,,,,,,,,,,,,,,,,switch,letter,lettSwt,j,0.545,Hi,,,,,,3,,,,,,,,high,21,0,21,0,1,,,,,,,,,
293119,2022-11-28_15h37.24.332,vts_reward_expectancy_bt,2022.2.4,MacIntel,58.82352941,Safari,1440,900,,,,,10,1109,,,,,,,,,,,,,,,,,139,U,circle,1,0,,,,,,,,,,,,,,,,switch,number,numSwt,d,0.549,Hi,,,,,,3,,,,,,,,high,22,0,22,0,1,,,,,,,,,
293119,2022-11-28_15h37.24.332,vts_reward_expectancy_bt,2022.2.4,MacIntel,58.82352941,Safari,1440,900,,,,,0,1109,,,,,,,,,,,,,,,,,167,W,star,0,0,,,,,,,,,,,,,,,,repeat,number,NA,d,0.528,Hi,,,,,,3,,,,,,,,high,23,0,23,0,1,,,,,,,,,
293119,2022-11-28_15h37.24.332,vts_reward_expectancy_bt,2022.2.4,MacIntel,58.82352941,Safari,1440,900,,,,,0,1109,,,,,,,,,,,,,,,,,174,B,triangle,0,1,,,,,,,,,,,,,,,,switch,letter,NA,k,0.969,Hi,,,,,,3,,,,,,,,high,24,0,24,0,1,,,,,,,,,
293119,2022-11-28_15h37.24.332,vts_reward_expectancy_bt,2022.2.4,MacIntel,58.82352941,Safari,1440,900,,,,,10,1119,,,,,,,,,,,,,,,,,125,D,circle,1,1,,,,,,,,,,,,,,,,repeat,letter,lettRpt,j,0.499,Hi,,,,,,3,,,,,,,,high,25,0,25,0,1,,,,,,,,,
293119,2022-11-28_15h37.24.332,vts_reward_expectancy_bt,2022.2.4,MacIntel,58.82352941,Safari,1440,900,,,,,1,1120,,,,,,,,,,,,,,,,,181,S,star,1,0,,,,,,,,,,,,,,,,repeat,letter,lettRpt,k,0.601,Lo,,,,,,3,,,,,,,,high,26,0,26,0,1,,,,,,,,,
293119,2022-11-28_15h37.24.332,vts_reward_expectancy_bt,2022.2.4,MacIntel,58.82352941,Safari,1440,900,,,,,1,1121,,,,,,,,,,,,,,,,,146,U,hexagon,1,0,,,,,,,,,,,,,,,,switch,number,numSwt,d,0.617,Lo,,,,,,3,,,,,,,,high,27,0,27,0,1,,,,,,,,,
293119,2022-11-28_15h37.24.332,vts_reward_expectancy_bt,2022.2.4,MacIntel,58.82352941,Safari,1440,900,,,,,0,1121,,,,,,,,,,,,,,,,,132,Y,circle,1,0,,,,,,,,,,,,,,,,repeat,number,numRpt,d,0.697,Hi,,,,,,3,,,,,,,,high,28,0,28,0,1,,,,,,,,,
293119,2022-11-28_15h37.24.332,vts_reward_expectancy_bt,2022.2.4,MacIntel,58.82352941,Safari,1440,900,,,,,10,1131,,,,,,,,,,,,,,,,,139,H,star,1,0,,,,,,,,,,,,,,,,repeat,number,numRpt,d,0.582,Lo,,,,,,3,,,,,,,,high,29,0,29,0,1,,,,,,,,,
293119,2022-11-28_15h37.24.332,vts_reward_expectancy_bt,2022.2.4,MacIntel,58.82352941,Safari,1440,900,,,,,10,1141,,,,,,,,,,,,,,,,,167,F,triangle,1,0,,,,,,,,,,,,,,,,switch,letter,lettSwt,j,0.417,Hi,,,,,,3,,,,,,,,high,30,0,30,0,1,,,,,,,,,
293119,2022-11-28_15h37.24.332,vts_reward_expectancy_bt,2022.2.4,MacIntel,58.82352941,Safari,1440,900,,,,,0,1141,,,,,,,,,,,,,,,,,160,W,hexagon,0,0,,,,,,,,,,,,,,,,switch,number,NA,d,0.467,Hi,,,,,,3,,,,,,,,high,31,0,31,0,1,,,,,,,,,
293119,2022-11-28_15h37.24.332,vts_reward_expectancy_bt,2022.2.4,MacIntel,58.82352941,Safari,1440,900,,,,,1,1142,,,,,,,,,,,,,,,,,132,Y,star,1,1,,,,,,,,,,,,,,,,repeat,number,numRpt,d,0.647,Lo,,,,,,4,,,,,,space,0.576,high,0,0,0,0,1,,,,,,,,,
293119,2022-11-28_15h37.24.332,vts_reward_expectancy_bt,2022.2.4,MacIntel,58.82352941,Safari,1440,900,,,,,0,1142,,,,,,,,,,,,,,,,,174,S,triangle,1,0,,,,,,,,,,,,,,,,repeat,number,numRpt,f,0.716,Hi,,,,,,4,,,,,,,,high,1,0,1,0,1,,,,,,,,,
293119,2022-11-28_15h37.24.332,vts_reward_expectancy_bt,2022.2.4,MacIntel,58.82352941,Safari,1440,900,,,,,0,1142,,,,,,,,,,,,,,,,,167,U,hexagon,0,0,,,,,,,,,,,,,,,,repeat,number,NA,d,0.547,Hi,,,,,,4,,,,,,,,high,2,0,2,0,1,,,,,,,,,
293119,2022-11-28_15h37.24.332,vts_reward_expectancy_bt,2022.2.4,MacIntel,58.82352941,Safari,1440,900,,,,,0,1142,,,,,,,,,,,,,,,,,125,W,circle,1,1,,,,,,,,,,,,,,,,switch,letter,lettSwt,k,0.533,Hi,,,,,,4,,,,,,,,high,3,0,3,0,1,,,,,,,,,
293119,2022-11-28_15h37.24.332,vts_reward_expectancy_bt,2022.2.4,MacIntel,58.82352941,Safari,1440,900,,,,,1,1143,,,,,,,,,,,,,,,,,146,F,star,1,0,,,,,,,,,,,,,,,,repeat,letter,lettRpt,j,0.562,Lo,,,,,,4,,,,,,,,high,4,0,4,0,1,,,,,,,,,
293119,2022-11-28_15h37.24.332,vts_reward_expectancy_bt,2022.2.4,MacIntel,58.82352941,Safari,1440,900,,,,,0,1143,,,,,,,,,,,,,,,,,160,B,triangle,1,0,,,,,,,,,,,,,,,,switch,number,numSwt,f,0.633,Hi,,,,,,4,,,,,,,,high,5,0,5,0,1,,,,,,,,,
293119,2022-11-28_15h37.24.332,vts_reward_expectancy_bt,2022.2.4,MacIntel,58.82352941,Safari,1440,900,,,,,10,1153,,,,,,,,,,,,,,,,,139,D,hexagon,1,0,,,,,,,,,,,,,,,,repeat,number,numRpt,d,0.497,Lo,,,,,,4,,,,,,,,high,6,0,6,0,1,,,,,,,,,
293119,2022-11-28_15h37.24.332,vts_reward_expectancy_bt,2022.2.4,MacIntel,58.82352941,Safari,1440,900,,,,,0,1153,,,,,,,,,,,,,,,,,181,H,circle,1,0,,,,,,,,,,,,,,,,repeat,number,numRpt,f,0.586,Hi,,,,,,4,,,,,,,,high,7,0,7,0,1,,,,,,,,,
293119,2022-11-28_15h37.24.332,vts_reward_expectancy_bt,2022.2.4,MacIntel,58.82352941,Safari,1440,900,,,,,0,1153,,,,,,,,,,,,,,,,,132,Y,circle,1,0,,,,,,,,,,,,,,,,repeat,number,numRpt,d,0.519,Hi,,,,,,4,,,,,,,,high,8,0,8,0,1,,,,,,,,,
293119,2022-11-28_15h37.24.332,vts_reward_expectancy_bt,2022.2.4,MacIntel,58.82352941,Safari,1440,900,,,,,10,1163,,,,,,,,,,,,,,,,,174,S,triangle,1,0,,,,,,,,,,,,,,,,repeat,number,numRpt,f,0.452,Hi,,,,,,4,,,,,,,,high,9,0,9,0,1,,,,,,,,,
293119,2022-11-28_15h37.24.332,vts_reward_expectancy_bt,2022.2.4,MacIntel,58.82352941,Safari,1440,900,,,,,1,1164,,,,,,,,,,,,,,,,,167,U,hexagon,1,0,,,,,,,,,,,,,,,,switch,letter,lettSwt,k,0.511,Lo,,,,,,4,,,,,,,,high,10,0,10,0,1,,,,,,,,,
293119,2022-11-28_15h37.24.332,vts_reward_expectancy_bt,2022.2.4,MacIntel,58.82352941,Safari,1440,900,,,,,1,1165,,,,,,,,,,,,,,,,,125,W,star,1,0,,,,,,,,,,,,,,,,repeat,letter,lettRpt,k,0.53,Lo,,,,,,4,,,,,,,,high,11,0,11,0,1,,,,,,,,,
293119,2022-11-28_15h37.24.332,vts_reward_expectancy_bt,2022.2.4,MacIntel,58.82352941,Safari,1440,900,,,,,10,1175,,,,,,,,,,,,,,,,,146,F,circle,1,0,,,,,,,,,,,,,,,,switch,number,numSwt,d,0.483,Hi,,,,,,4,,,,,,,,high,12,0,12,0,1,,,,,,,,,
293119,2022-11-28_15h37.24.332,vts_reward_expectancy_bt,2022.2.4,MacIntel,58.82352941,Safari,1440,900,,,,,0,1175,,,,,,,,,,,,,,,,,160,B,triangle,1,0,,,,,,,,,,,,,,,,switch,letter,lettSwt,j,0.516,Hi,,,,,,4,,,,,,,,high,13,0,13,0,1,,,,,,,,,
293119,2022-11-28_15h37.24.332,vts_reward_expectancy_bt,2022.2.4,MacIntel,58.82352941,Safari,1440,900,,,,,1,1176,,,,,,,,,,,,,,,,,139,D,hexagon,1,0,,,,,,,,,,,,,,,,switch,number,numSwt,d,0.581,Lo,,,,,,4,,,,,,,,high,14,0,14,0,1,,,,,,,,,
293119,2022-11-28_15h37.24.332,vts_reward_expectancy_bt,2022.2.4,MacIntel,58.82352941,Safari,1440,900,,,,,1,1177,,,,,,,,,,,,,,,,,181,H,star,1,0,,,,,,,,,,,,,,,,switch,letter,lettSwt,j,0.711,Lo,,,,,,4,,,,,,,,high,15,0,15,0,1,,,,,,,,,
293119,2022-11-28_15h37.24.332,vts_reward_expectancy_bt,2022.2.4,MacIntel,58.82352941,Safari,1440,900,,,,,10,1187,,,,,,,,,,,,,,,,,181,F,hexagon,1,0,,,,,,,,,,,,,,,,repeat,letter,lettRpt,j,0.581,Lo,,,,,,4,,,,,,,,high,16,0,16,0,1,,,,,,,,,
293119,2022-11-28_15h37.24.332,vts_reward_expectancy_bt,2022.2.4,MacIntel,58.82352941,Safari,1440,900,,,,,0,1187,,,,,,,,,,,,,,,,,174,D,circle,0,0,,,,,,,,,,,,,,,,switch,number,NA,d,0.574,Lo,,,,,,4,,,,,,,,high,17,0,17,0,1,,,,,,,,,
293119,2022-11-28_15h37.24.332,vts_reward_expectancy_bt,2022.2.4,MacIntel,58.82352941,Safari,1440,900,,,,,0,1187,,,,,,,,,,,,,,,,,125,W,triangle,1,1,,,,,,,,,,,,,,,,repeat,number,numRpt,d,0.619,Hi,,,,,,4,,,,,,,,high,18,0,18,0,1,,,,,,,,,
293119,2022-11-28_15h37.24.332,vts_reward_expectancy_bt,2022.2.4,MacIntel,58.82352941,Safari,1440,900,,,,,1,1188,,,,,,,,,,,,,,,,,167,Y,star,1,0,,,,,,,,,,,,,,,,repeat,number,numRpt,f,0.717,Lo,,,,,,4,,,,,,,,high,19,0,19,0,1,,,,,,,,,
293119,2022-11-28_15h37.24.332,vts_reward_expectancy_bt,2022.2.4,MacIntel,58.82352941,Safari,1440,900,,,,,0,1188,,,,,,,,,,,,,,,,,139,S,circle,1,0,,,,,,,,,,,,,,,,repeat,number,numRpt,d,0.633,Hi,,,,,,4,,,,,,,,high,20,0,20,0,1,,,,,,,,,
293119,2022-11-28_15h37.24.332,vts_reward_expectancy_bt,2022.2.4,MacIntel,58.82352941,Safari,1440,900,,,,,1,1189,,,,,,,,,,,,,,,,,160,B,star,1,0,,,,,,,,,,,,,,,,repeat,number,numRpt,f,0.684,Lo,,,,,,4,,,,,,,,high,21,0,21,0,1,,,,,,,,,
293119,2022-11-28_15h37.24.332,vts_reward_expectancy_bt,2022.2.4,MacIntel,58.82352941,Safari,1440,900,,,,,0,1189,,,,,,,,,,,,,,,,,146,H,hexagon,0,0,,,,,,,,,,,,,,,,repeat,number,NA,f,0.684,Lo,,,,,,4,,,,,,,,high,22,0,22,0,1,,,,,,,,,
293119,2022-11-28_15h37.24.332,vts_reward_expectancy_bt,2022.2.4,MacIntel,58.82352941,Safari,1440,900,,,,,0,1189,,,,,,,,,,,,,,,,,132,U,triangle,1,1,,,,,,,,,,,,,,,,switch,letter,lettSwt,k,0.896,Hi,,,,,,4,,,,,,,,high,23,0,23,0,1,,,,,,,,,
293119,2022-11-28_15h37.24.332,vts_reward_expectancy_bt,2022.2.4,MacIntel,58.82352941,Safari,1440,900,,,,,0,1189,,,,,,,,,,,,,,,,,125,S,circle,1,0,,,,,,,,,,,,,,,,repeat,letter,lettRpt,k,0.7,Hi,,,,,,4,,,,,,,,high,24,0,24,0,1,,,,,,,,,
293119,2022-11-28_15h37.24.332,vts_reward_expectancy_bt,2022.2.4,MacIntel,58.82352941,Safari,1440,900,,,,,0,1189,,,,,,,,,,,,,,,,,146,D,hexagon,0,0,,,,,,,,,,,,,,,,repeat,letter,NA,k,0.617,Hi,,,,,,4,,,,,,,,high,25,0,25,0,1,,,,,,,,,
293119,2022-11-28_15h37.24.332,vts_reward_expectancy_bt,2022.2.4,MacIntel,58.82352941,Safari,1440,900,,,,,10,1199,,,,,,,,,,,,,,,,,174,Y,star,1,1,,,,,,,,,,,,,,,,repeat,letter,lettRpt,k,0.552,Lo,,,,,,4,,,,,,,,high,26,0,26,0,1,,,,,,,,,
293119,2022-11-28_15h37.24.332,vts_reward_expectancy_bt,2022.2.4,MacIntel,58.82352941,Safari,1440,900,,,,,0,1199,,,,,,,,,,,,,,,,,139,H,triangle,1,0,,,,,,,,,,,,,,,,switch,number,numSwt,d,0.979,Hi,,,,,,4,,,,,,,,high,27,0,27,0,1,,,,,,,,,
293119,2022-11-28_15h37.24.332,vts_reward_expectancy_bt,2022.2.4,MacIntel,58.82352941,Safari,1440,900,,,,,10,1209,,,,,,,,,,,,,,,,,132,U,triangle,1,0,,,,,,,,,,,,,,,,repeat,number,numRpt,d,0.453,Hi,,,,,,4,,,,,,,,high,28,0,28,0,1,,,,,,,,,
293119,2022-11-28_15h37.24.332,vts_reward_expectancy_bt,2022.2.4,MacIntel,58.82352941,Safari,1440,900,,,,,0,1209,,,,,,,,,,,,,,,,,181,F,circle,0,0,,,,,,,,,,,,,,,,repeat,number,NA,d,0.577,Hi,,,,,,4,,,,,,,,high,29,0,29,0,1,,,,,,,,,
293119,2022-11-28_15h37.24.332,vts_reward_expectancy_bt,2022.2.4,MacIntel,58.82352941,Safari,1440,900,,,,,1,1210,,,,,,,,,,,,,,,,,167,B,star,1,1,,,,,,,,,,,,,,,,repeat,number,numRpt,f,0.499,Lo,,,,,,4,,,,,,,,high,30,0,30,0,1,,,,,,,,,
293119,2022-11-28_15h37.24.332,vts_reward_expectancy_bt,2022.2.4,MacIntel,58.82352941,Safari,1440,900,,,,,1,1211,,,,,,,,,,,,,,,,,160,W,hexagon,1,0,,,,,,,,,,,,,,,,switch,letter,lettSwt,k,0.801,Lo,,,,,,4,,,,,,,,high,31,0,31,0,1,,,,,,,,,
293119,2022-11-28_15h37.24.332,vts_reward_expectancy_bt,2022.2.4,MacIntel,58.82352941,Safari,1440,900,,,,,1,1212,,,,,,,,,,,,,,,,,125,U,hexagon,1,0,,,,,,,,,,,,,,,,switch,number,numSwt,d,0.599,Lo,,,,,,5,,,,,,space,0.575,high,0,0,0,0,1,,,,,,,,,
293119,2022-11-28_15h37.24.332,vts_reward_expectancy_bt,2022.2.4,MacIntel,58.82352941,Safari,1440,900,,,,,1,1213,,,,,,,,,,,,,,,,,174,S,star,1,0,,,,,,,,,,,,,,,,switch,letter,lettSwt,k,0.534,Lo,,,,,,5,,,,,,,,high,1,0,1,0,1,,,,,,,,,
293119,2022-11-28_15h37.24.332,vts_reward_expectancy_bt,2022.2.4,MacIntel,58.82352941,Safari,1440,900,,,,,10,1223,,,,,,,,,,,,,,,,,139,B,circle,1,0,,,,,,,,,,,,,,,,switch,number,numSwt,d,0.51,Hi,,,,,,5,,,,,,,,high,2,0,2,0,1,,,,,,,,,
293119,2022-11-28_15h37.24.332,vts_reward_expectancy_bt,2022.2.4,MacIntel,58.82352941,Safari,1440,900,,,,,0,1223,,,,,,,,,,,,,,,,,167,H,triangle,0,0,,,,,,,,,,,,,,,,switch,letter,NA,k,0.683,Hi,,,,,,5,,,,,,,,high,3,0,3,0,1,,,,,,,,,
293119,2022-11-28_15h37.24.332,vts_reward_expectancy_bt,2022.2.4,MacIntel,58.82352941,Safari,1440,900,,,,,1,1224,,,,,,,,,,,,,,,,,146,D,hexagon,1,1,,,,,,,,,,,,,,,,repeat,letter,lettRpt,j,0.65,Lo,,,,,,5,,,,,,,,high,4,0,4,0,1,,,,,,,,,
293119,2022-11-28_15h37.24.332,vts_reward_expectancy_bt,2022.2.4,MacIntel,58.82352941,Safari,1440,900,,,,,1,1225,,,,,,,,,,,,,,,,,132,W,star,1,0,,,,,,,,,,,,,,,,repeat,letter,lettRpt,k,0.521,Lo,,,,,,5,,,,,,,,high,5,0,5,0,1,,,,,,,,,
293119,2022-11-28_15h37.24.332,vts_reward_expectancy_bt,2022.2.4,MacIntel,58.82352941,Safari,1440,900,,,,,0,1225,,,,,,,,,,,,,,,,,160,Y,circle,0,0,,,,,,,,,,,,,,,,switch,number,NA,d,0.646,Lo,,,,,,5,,,,,,,,high,6,0,6,0,1,,,,,,,,,
293119,2022-11-28_15h37.24.332,vts_reward_expectancy_bt,2022.2.4,MacIntel,58.82352941,Safari,1440,900,,,,,0,1225,,,,,,,,,,,,,,,,,181,F,triangle,1,1,,,,,,,,,,,,,,,,repeat,number,numRpt,f,0.664,Hi,,,,,,5,,,,,,,,high,7,0,7,0,1,,,,,,,,,
293119,2022-11-28_15h37.24.332,vts_reward_expectancy_bt,2022.2.4,MacIntel,58.82352941,Safari,1440,900,,,,,1,1226,,,,,,,,,,,,,,,,,125,U,hexagon,1,0,,,,,,,,,,,,,,,,repeat,number,numRpt,d,0.603,Lo,,,,,,5,,,,,,,,high,8,0,8,0,1,,,,,,,,,
293119,2022-11-28_15h37.24.332,vts_reward_expectancy_bt,2022.2.4,MacIntel,58.82352941,Safari,1440,900,,,,,0,1226,,,,,,,,,,,,,,,,,174,S,circle,1,0,,,,,,,,,,,,,,,,switch,letter,lettSwt,k,1.231,Hi,,,,,,5,,,,,,,,high,9,0,9,0,1,,,,,,,,,
293119,2022-11-28_15h37.24.332,vts_reward_expectancy_bt,2022.2.4,MacIntel,58.82352941,Safari,1440,900,,,,,0,1226,,,,,,,,,,,,,,,,,139,B,triangle,1,0,,,,,,,,,,,,,,,,repeat,letter,lettRpt,j,0.633,Hi,,,,,,5,,,,,,,,high,10,0,10,0,1,,,,,,,,,
293119,2022-11-28_15h37.24.332,vts_reward_expectancy_bt,2022.2.4,MacIntel,58.82352941,Safari,1440,900,,,,,0,1226,,,,,,,,,,,,,,,,,167,H,star,0,0,,,,,,,,,,,,,,,,repeat,letter,NA,k,0.617,Hi,,,,,,5,,,,,,,,high,11,0,11,0,1,,,,,,,,,
293119,2022-11-28_15h37.24.332,vts_reward_expectancy_bt,2022.2.4,MacIntel,58.82352941,Safari,1440,900,,,,,1,1227,,,,,,,,,,,,,,,,,146,D,star,1,1,,,,,,,,,,,,,,,,switch,number,numSwt,d,0.713,Lo,,,,,,5,,,,,,,,high,12,0,12,0,1,,,,,,,,,
293119,2022-11-28_15h37.24.332,vts_reward_expectancy_bt,2022.2.4,MacIntel,58.82352941,Safari,1440,900,,,,,0,1227,,,,,,,,,,,,,,,,,132,W,circle,1,0,,,,,,,,,,,,,,,,repeat,number,numRpt,d,0.516,Hi,,,,,,5,,,,,,,,high,13,0,13,0,1,,,,,,,,,
293119,2022-11-28_15h37.24.332,vts_reward_expectancy_bt,2022.2.4,MacIntel,58.82352941,Safari,1440,900,,,,,10,1237,,,,,,,,,,,,,,,,,160,Y,triangle,1,0,,,,,,,,,,,,,,,,switch,letter,lettSwt,k,0.517,Hi,,,,,,5,,,,,,,,high,14,0,14,0,1,,,,,,,,,
293119,2022-11-28_15h37.24.332,vts_reward_expectancy_bt,2022.2.4,MacIntel,58.82352941,Safari,1440,900,,,,,10,1247,,,,,,,,,,,,,,,,,181,F,hexagon,1,0,,,,,,,,,,,,,,,,repeat,letter,lettRpt,j,0.717,Lo,,,,,,5,,,,,,,,high,15,0,15,0,1,,,,,,,,,
293119,2022-11-28_15h37.24.332,vts_reward_expectancy_bt,2022.2.4,MacIntel,58.82352941,Safari,1440,900,,,,,1,1248,,,,,,,,,,,,,,,,,181,F,star,1,0,,,,,,,,,,,,,,,,switch,number,numSwt,f,0.49,Lo,,,,,,5,,,,,,,,high,16,0,16,0,1,,,,,,,,,
293119,2022-11-28_15h37.24.332,vts_reward_expectancy_bt,2022.2.4,MacIntel,58.82352941,Safari,1440,900,,,,,10,1258,,,,,,,,,,,,,,,,,174,B,circle,1,0,,,,,,,,,,,,,,,,repeat,number,numRpt,f,0.478,Hi,,,,,,5,,,,,,,,high,17,0,17,0,1,,,,,,,,,
293119,2022-11-28_15h37.24.332,vts_reward_expectancy_bt,2022.2.4,MacIntel,58.82352941,Safari,1440,900,,,,,0,1258,,,,,,,,,,,,,,,,,132,U,triangle,1,0,,,,,,,,,,,,,,,,switch,letter,lettSwt,k,0.696,Hi,,,,,,5,,,,,,,,high,18,0,18,0,1,,,,,,,,,
293119,2022-11-28_15h37.24.332,vts_reward_expectancy_bt,2022.2.4,MacIntel,58.82352941,Safari,1440,900,,,,,1,1259,,,,,,,,,,,,,,,,,125,Y,hexagon,1,0,,,,,,,,,,,,,,,,repeat,letter,lettRpt,k,0.946,Lo,,,,,,5,,,,,,,,high,19,0,19,0,1,,,,,,,,,
293119,2022-11-28_15h37.24.332,vts_reward_expectancy_bt,2022.2.4,MacIntel,58.82352941,Safari,1440,900,,,,,10,1269,,,,,,,,,,,,,,,,,160,S,circle,1,0,,,,,,,,,,,,,,,,switch,number,numSwt,f,0.483,Hi,,,,,,5,,,,,,,,high,20,0,20,0,1,,,,,,,,,
293119,2022-11-28_15h37.24.332,vts_reward_expectancy_bt,2022.2.4,MacIntel,58.82352941,Safari,1440,900,,,,,0,1269,,,,,,,,,,,,,,,,,146,H,hexagon,0,0,,,,,,,,,,,,,,,,switch,letter,NA,k,0.731,Hi,,,,,,5,,,,,,,,high,21,0,21,0,1,,,,,,,,,
293119,2022-11-28_15h37.24.332,vts_reward_expectancy_bt,2022.2.4,MacIntel,58.82352941,Safari,1440,900,,,,,1,1270,,,,,,,,,,,,,,,,,167,D,star,1,1,,,,,,,,,,,,,,,,repeat,letter,lettRpt,j,0.632,Lo,,,,,,5,,,,,,,,high,22,0,22,0,1,,,,,,,,,
293119,2022-11-28_15h37.24.332,vts_reward_expectancy_bt,2022.2.4,MacIntel,58.82352941,Safari,1440,900,,,,,0,1270,,,,,,,,,,,,,,,,,139,W,triangle,1,0,,,,,,,,,,,,,,,,switch,number,numSwt,d,0.718,Hi,,,,,,5,,,,,,,,high,23,0,23,0,1,,,,,,,,,
293119,2022-11-28_15h37.24.332,vts_reward_expectancy_bt,2022.2.4,MacIntel,58.82352941,Safari,1440,900,,,,,0,1270,,,,,,,,,,,,,,,,,132,S,triangle,0,0,,,,,,,,,,,,,,,,repeat,number,NA,f,0.799,Hi,,,,,,5,,,,,,,,high,24,0,24,0,1,,,,,,,,,
293119,2022-11-28_15h37.24.332,vts_reward_expectancy_bt,2022.2.4,MacIntel,58.82352941,Safari,1440,900,,,,,1,1271,,,,,,,,,,,,,,,,,174,W,hexagon,1,1,,,,,,,,,,,,,,,,switch,letter,lettSwt,k,0.65,Lo,,,,,,5,,,,,,,,high,25,0,25,0,1,,,,,,,,,
293119,2022-11-28_15h37.24.332,vts_reward_expectancy_bt,2022.2.4,MacIntel,58.82352941,Safari,1440,900,,,,,0,1271,,,,,,,,,,,,,,,,,167,B,circle,1,0,,,,,,,,,,,,,,,,switch,number,numSwt,f,0.696,Hi,,,,,,5,,,,,,,,high,26,0,26,0,1,,,,,,,,,
