participant,date,expName,psychopyVersion,OS,frameRate,browser,xResolution,yResolution,key_resp.keys,key_resp.rt,training_resp.keys,training_resp.rt,points_trial,points_cumul,trainBlock,training.thisRepN,training.thisTrialN,training.thisN,training.thisIndex,training.ran,LTriangleOpac,LCircleOpac,LHexagonOpac,LStarOpac,RTriangleOpac,RCircleOpac,RHexagonOpac,RStarOpac,LShape_ID,RShape_ID,curr_topStim,curr_bottStim,curr_shape,acc,E1,target_resp_prac1.keys,pracBlock,task1_prac_trials.thisRepN,task1_prac_trials.thisTrialN,task1_prac_trials.thisN,task1_prac_trials.thisIndex,task1_prac_trials.ran,target_resp_prac1.rt,target_resp_prac2.keys,target_resp_prac2.rt,task2_praac_trials.thisRepN,task2_praac_trials.thisTrialN,task2_praac_trials.thisN,task2_praac_trials.thisIndex,task2_praac_trials.ran,alt,task,condition,target_resp.keys,target_resp.rt,rewCond,vts_practice_trials.thisRepN,vts_practice_trials.thisTrialN,vts_practice_trials.thisN,vts_practice_trials.thisIndex,vts_practice_trials.ran,blockNum,trials_norew.thisRepN,trials_norew.thisTrialN,trials_norew.thisN,trials_norew.thisIndex,trials_norew.ran,key_resp_2.keys,key_resp_2.rt,rewExpectancy,trials_rew.thisRepN,trials_rew.thisTrialN,trials_rew.thisN,trials_rew.thisIndex,trials_rew.ran,Q1,Q2,Q2_text,Q3,Q4,Q5_text,Q5,xRes,yRes
293299,2022-11-30_09h02.57.532,vts_reward_expectancy_bt,2022.2.4,Win32,59.77286312,Chrome,1756,1098,,,,,,,,,,,,,,,,,,,,,,,,,,,,,,,,,,,,,,,,,,,,,,,,,,,,,,,,,,,,,,,,,,,,,,,,,,,,
293299,2022-11-30_09h02.57.532,vts_reward_expectancy_bt,2022.2.4,Win32,59.77286312,Chrome,1756,1098,space,12.1756,,,,,,,,,,,,,,,,,,,,,,,,,,,,,,,,,,,,,,,,,,,,,,,,,,,,,,,,,,,,,,,,,,,,,,,,,,
293299,2022-11-30_09h02.57.532,vts_reward_expectancy_bt,2022.2.4,Win32,59.77286312,Chrome,1756,1098,,,,,,,,,,,,,,,,,,,,,,,,,,,,,,,,,,,,,,,,,,,,,,,,,,,,,,,,,,,,,,,,,,,,,,,,,,,,
293299,2022-11-30_09h02.57.532,vts_reward_expectancy_bt,2022.2.4,Win32,59.77286312,Chrome,1756,1098,,,a,1.8175,10,10,0,0,0,0,4,1,0,1,0,0,0,0,1,0,circle,hexagon,,,,,,,,,,,,,,,,,,,,,,,,,,,,,,,,,,,,,,,,,,,,,,,,,,,,,,
293299,2022-11-30_09h02.57.532,vts_reward_expectancy_bt,2022.2.4,Win32,59.77286312,Chrome,1756,1098,,,a,1.4596,10,20,0,0,1,1,8,1,0,0,1,0,0,0,0,1,hexagon,star,,,,,,,,,,,,,,,,,,,,,,,,,,,,,,,,,,,,,,,,,,,,,,,,,,,,,,
293299,2022-11-30_09h02.57.532,vts_reward_expectancy_bt,2022.2.4,Win32,59.77286312,Chrome,1756,1098,,,a,0.7269,10,30,0,0,2,2,5,1,0,1,0,0,0,0,0,1,circle,star,,,,,,,,,,,,,,,,,,,,,,,,,,,,,,,,,,,,,,,,,,,,,,,,,,,,,,
293299,2022-11-30_09h02.57.532,vts_reward_expectancy_bt,2022.2.4,Win32,59.77286312,Chrome,1756,1098,,,l,0.5915,10,40,0,0,3,3,7,1,0,0,1,0,0,1,0,0,hexagon,circle,,,,,,,,,,,,,,,,,,,,,,,,,,,,,,,,,,,,,,,,,,,,,,,,,,,,,,
293299,2022-11-30_09h02.57.532,vts_reward_expectancy_bt,2022.2.4,Win32,59.77286312,Chrome,1756,1098,,,l,1.1755,10,50,0,0,4,4,6,1,0,0,1,0,1,0,0,0,hexagon,triangle,,,,,,,,,,,,,,,,,,,,,,,,,,,,,,,,,,,,,,,,,,,,,,,,,,,,,,
293299,2022-11-30_09h02.57.532,vts_reward_expectancy_bt,2022.2.4,Win32,59.77286312,Chrome,1756,1098,,,l,1.3318,1,51,0,0,5,5,0,1,1,0,0,0,0,1,0,0,triangle,circle,,,,,,,,,,,,,,,,,,,,,,,,,,,,,,,,,,,,,,,,,,,,,,,,,,,,,,
293299,2022-11-30_09h02.57.532,vts_reward_expectancy_bt,2022.2.4,Win32,59.77286312,Chrome,1756,1098,,,a,0.6241,10,61,0,0,6,6,2,1,1,0,0,0,0,0,0,1,triangle,star,,,,,,,,,,,,,,,,,,,,,,,,,,,,,,,,,,,,,,,,,,,,,,,,,,,,,,
293299,2022-11-30_09h02.57.532,vts_reward_expectancy_bt,2022.2.4,Win32,59.77286312,Chrome,1756,1098,,,l,0.9142,10,71,0,0,7,7,3,1,0,1,0,0,1,0,0,0,circle,triangle,,,,,,,,,,,,,,,,,,,,,,,,,,,,,,,,,,,,,,,,,,,,,,,,,,,,,,
293299,2022-11-30_09h02.57.532,vts_reward_expectancy_bt,2022.2.4,Win32,59.77286312,Chrome,1756,1098,,,a,0.7399,10,81,0,0,8,8,1,1,1,0,0,0,0,0,1,0,triangle,hexagon,,,,,,,,,,,,,,,,,,,,,,,,,,,,,,,,,,,,,,,,,,,,,,,,,,,,,,
293299,2022-11-30_09h02.57.532,vts_reward_expectancy_bt,2022.2.4,Win32,59.77286312,Chrome,1756,1098,,,l,0.9817,1,82,0,0,9,9,11,1,0,0,0,1,0,0,1,0,star,hexagon,,,,,,,,,,,,,,,,,,,,,,,,,,,,,,,,,,,,,,,,,,,,,,,,,,,,,,
293299,2022-11-30_09h02.57.532,vts_reward_expectancy_bt,2022.2.4,Win32,59.77286312,Chrome,1756,1098,,,l,1.7825,10,92,0,0,10,10,10,1,0,0,0,1,0,1,0,0,star ,circle,,,,,,,,,,,,,,,,,,,,,,,,,,,,,,,,,,,,,,,,,,,,,,,,,,,,,,
293299,2022-11-30_09h02.57.532,vts_reward_expectancy_bt,2022.2.4,Win32,59.77286312,Chrome,1756,1098,,,l,1.1657,10,102,0,0,11,11,9,1,0,0,0,1,1,0,0,0,star,triangle,,,,,,,,,,,,,,,,,,,,,,,,,,,,,,,,,,,,,,,,,,,,,,,,,,,,,,
293299,2022-11-30_09h02.57.532,vts_reward_expectancy_bt,2022.2.4,Win32,59.77286312,Chrome,1756,1098,,,a,1.7972,10,112,0,1,0,12,0,1,1,0,0,0,0,1,0,0,triangle,circle,,,,,,,,,,,,,,,,,,,,,,,,,,,,,,,,,,,,,,,,,,,,,,,,,,,,,,
293299,2022-11-30_09h02.57.532,vts_reward_expectancy_bt,2022.2.4,Win32,59.77286312,Chrome,1756,1098,,,a,0.8775,10,122,0,1,1,13,4,1,0,1,0,0,0,0,1,0,circle,hexagon,,,,,,,,,,,,,,,,,,,,,,,,,,,,,,,,,,,,,,,,,,,,,,,,,,,,,,
293299,2022-11-30_09h02.57.532,vts_reward_expectancy_bt,2022.2.4,Win32,59.77286312,Chrome,1756,1098,,,l,0.6525,10,132,0,1,2,14,7,1,0,0,1,0,0,1,0,0,hexagon,circle,,,,,,,,,,,,,,,,,,,,,,,,,,,,,,,,,,,,,,,,,,,,,,,,,,,,,,
293299,2022-11-30_09h02.57.532,vts_reward_expectancy_bt,2022.2.4,Win32,59.77286312,Chrome,1756,1098,,,l,0.8851,1,133,0,1,3,15,2,1,1,0,0,0,0,0,0,1,triangle,star,,,,,,,,,,,,,,,,,,,,,,,,,,,,,,,,,,,,,,,,,,,,,,,,,,,,,,
293299,2022-11-30_09h02.57.532,vts_reward_expectancy_bt,2022.2.4,Win32,59.77286312,Chrome,1756,1098,,,l,1.3134,10,143,0,1,4,16,9,1,0,0,0,1,1,0,0,0,star,triangle,,,,,,,,,,,,,,,,,,,,,,,,,,,,,,,,,,,,,,,,,,,,,,,,,,,,,,
293299,2022-11-30_09h02.57.532,vts_reward_expectancy_bt,2022.2.4,Win32,59.77286312,Chrome,1756,1098,,,l,1.1714,10,153,0,1,5,17,6,1,0,0,1,0,1,0,0,0,hexagon,triangle,,,,,,,,,,,,,,,,,,,,,,,,,,,,,,,,,,,,,,,,,,,,,,,,,,,,,,
293299,2022-11-30_09h02.57.532,vts_reward_expectancy_bt,2022.2.4,Win32,59.77286312,Chrome,1756,1098,,,a,0.7323,10,163,0,1,6,18,5,1,0,1,0,0,0,0,0,1,circle,star,,,,,,,,,,,,,,,,,,,,,,,,,,,,,,,,,,,,,,,,,,,,,,,,,,,,,,
293299,2022-11-30_09h02.57.532,vts_reward_expectancy_bt,2022.2.4,Win32,59.77286312,Chrome,1756,1098,,,l,1.003,10,173,0,1,7,19,3,1,0,1,0,0,1,0,0,0,circle,triangle,,,,,,,,,,,,,,,,,,,,,,,,,,,,,,,,,,,,,,,,,,,,,,,,,,,,,,
293299,2022-11-30_09h02.57.532,vts_reward_expectancy_bt,2022.2.4,Win32,59.77286312,Chrome,1756,1098,,,l,1.1814,10,183,0,1,8,20,8,1,0,0,1,0,0,0,0,1,hexagon,star,,,,,,,,,,,,,,,,,,,,,,,,,,,,,,,,,,,,,,,,,,,,,,,,,,,,,,
293299,2022-11-30_09h02.57.532,vts_reward_expectancy_bt,2022.2.4,Win32,59.77286312,Chrome,1756,1098,,,a,1.2119,1,184,0,1,9,21,11,1,0,0,0,1,0,0,1,0,star,hexagon,,,,,,,,,,,,,,,,,,,,,,,,,,,,,,,,,,,,,,,,,,,,,,,,,,,,,,
293299,2022-11-30_09h02.57.532,vts_reward_expectancy_bt,2022.2.4,Win32,59.77286312,Chrome,1756,1098,,,l,1.5281,1,185,0,1,10,22,10,1,0,0,0,1,0,1,0,0,star ,circle,,,,,,,,,,,,,,,,,,,,,,,,,,,,,,,,,,,,,,,,,,,,,,,,,,,,,,
293299,2022-11-30_09h02.57.532,vts_reward_expectancy_bt,2022.2.4,Win32,59.77286312,Chrome,1756,1098,,,a,0.7987,1,186,0,1,11,23,1,1,1,0,0,0,0,0,1,0,triangle,hexagon,,,,,,,,,,,,,,,,,,,,,,,,,,,,,,,,,,,,,,,,,,,,,,,,,,,,,,
293299,2022-11-30_09h02.57.532,vts_reward_expectancy_bt,2022.2.4,Win32,59.77286312,Chrome,1756,1098,,,l,1.3978,1,187,0,2,0,24,1,1,1,0,0,0,0,0,1,0,triangle,hexagon,,,,,,,,,,,,,,,,,,,,,,,,,,,,,,,,,,,,,,,,,,,,,,,,,,,,,,
293299,2022-11-30_09h02.57.532,vts_reward_expectancy_bt,2022.2.4,Win32,59.77286312,Chrome,1756,1098,,,a,1.0124,1,188,0,2,1,25,11,1,0,0,0,1,0,0,1,0,star,hexagon,,,,,,,,,,,,,,,,,,,,,,,,,,,,,,,,,,,,,,,,,,,,,,,,,,,,,,
293299,2022-11-30_09h02.57.532,vts_reward_expectancy_bt,2022.2.4,Win32,59.77286312,Chrome,1756,1098,,,a,1.1152,10,198,0,2,2,26,0,1,1,0,0,0,0,1,0,0,triangle,circle,,,,,,,,,,,,,,,,,,,,,,,,,,,,,,,,,,,,,,,,,,,,,,,,,,,,,,
293299,2022-11-30_09h02.57.532,vts_reward_expectancy_bt,2022.2.4,Win32,59.77286312,Chrome,1756,1098,,,l,1.0491,10,208,0,2,3,27,6,1,0,0,1,0,1,0,0,0,hexagon,triangle,,,,,,,,,,,,,,,,,,,,,,,,,,,,,,,,,,,,,,,,,,,,,,,,,,,,,,
293299,2022-11-30_09h02.57.532,vts_reward_expectancy_bt,2022.2.4,Win32,59.77286312,Chrome,1756,1098,,,a,0.7326,10,218,0,2,4,28,4,1,0,1,0,0,0,0,1,0,circle,hexagon,,,,,,,,,,,,,,,,,,,,,,,,,,,,,,,,,,,,,,,,,,,,,,,,,,,,,,
293299,2022-11-30_09h02.57.532,vts_reward_expectancy_bt,2022.2.4,Win32,59.77286312,Chrome,1756,1098,,,l,0.8491,10,228,0,2,5,29,7,1,0,0,1,0,0,1,0,0,hexagon,circle,,,,,,,,,,,,,,,,,,,,,,,,,,,,,,,,,,,,,,,,,,,,,,,,,,,,,,
293299,2022-11-30_09h02.57.532,vts_reward_expectancy_bt,2022.2.4,Win32,59.77286312,Chrome,1756,1098,,,a,1.913,10,238,0,2,6,30,2,1,1,0,0,0,0,0,0,1,triangle,star,,,,,,,,,,,,,,,,,,,,,,,,,,,,,,,,,,,,,,,,,,,,,,,,,,,,,,
293299,2022-11-30_09h02.57.532,vts_reward_expectancy_bt,2022.2.4,Win32,59.77286312,Chrome,1756,1098,,,l,0.9851,10,248,0,2,7,31,9,1,0,0,0,1,1,0,0,0,star,triangle,,,,,,,,,,,,,,,,,,,,,,,,,,,,,,,,,,,,,,,,,,,,,,,,,,,,,,
293299,2022-11-30_09h02.57.532,vts_reward_expectancy_bt,2022.2.4,Win32,59.77286312,Chrome,1756,1098,,,a,0.6162,10,258,0,2,8,32,3,1,0,1,0,0,1,0,0,0,circle,triangle,,,,,,,,,,,,,,,,,,,,,,,,,,,,,,,,,,,,,,,,,,,,,,,,,,,,,,
293299,2022-11-30_09h02.57.532,vts_reward_expectancy_bt,2022.2.4,Win32,59.77286312,Chrome,1756,1098,,,l,1.0984,10,268,0,2,9,33,10,1,0,0,0,1,0,1,0,0,star ,circle,,,,,,,,,,,,,,,,,,,,,,,,,,,,,,,,,,,,,,,,,,,,,,,,,,,,,,
293299,2022-11-30_09h02.57.532,vts_reward_expectancy_bt,2022.2.4,Win32,59.77286312,Chrome,1756,1098,,,a,2.5959,10,278,0,2,10,34,5,1,0,1,0,0,0,0,0,1,circle,star,,,,,,,,,,,,,,,,,,,,,,,,,,,,,,,,,,,,,,,,,,,,,,,,,,,,,,
293299,2022-11-30_09h02.57.532,vts_reward_expectancy_bt,2022.2.4,Win32,59.77286312,Chrome,1756,1098,,,l,2.4506,1,279,0,2,11,35,8,1,0,0,1,0,0,0,0,1,hexagon,star,,,,,,,,,,,,,,,,,,,,,,,,,,,,,,,,,,,,,,,,,,,,,,,,,,,,,,
293299,2022-11-30_09h02.57.532,vts_reward_expectancy_bt,2022.2.4,Win32,59.77286312,Chrome,1756,1098,,,l,1.3253,1,280,1,0,0,0,9,1,0,0,0,1,1,0,0,0,star,triangle,,,,,,,,,,,,,,,,,,,,,,,,,,,,,,,,,,,,,,,,,,,,,,,,,,,,,,
293299,2022-11-30_09h02.57.532,vts_reward_expectancy_bt,2022.2.4,Win32,59.77286312,Chrome,1756,1098,,,a,1.3142,10,290,1,0,1,1,0,1,1,0,0,0,0,1,0,0,triangle,circle,,,,,,,,,,,,,,,,,,,,,,,,,,,,,,,,,,,,,,,,,,,,,,,,,,,,,,
293299,2022-11-30_09h02.57.532,vts_reward_expectancy_bt,2022.2.4,Win32,59.77286312,Chrome,1756,1098,,,l,1.6302,1,291,1,0,2,2,8,1,0,0,1,0,0,0,0,1,hexagon,star,,,,,,,,,,,,,,,,,,,,,,,,,,,,,,,,,,,,,,,,,,,,,,,,,,,,,,
293299,2022-11-30_09h02.57.532,vts_reward_expectancy_bt,2022.2.4,Win32,59.77286312,Chrome,1756,1098,,,l,0.978,10,301,1,0,3,3,10,1,0,0,0,1,0,1,0,0,star ,circle,,,,,,,,,,,,,,,,,,,,,,,,,,,,,,,,,,,,,,,,,,,,,,,,,,,,,,
293299,2022-11-30_09h02.57.532,vts_reward_expectancy_bt,2022.2.4,Win32,59.77286312,Chrome,1756,1098,,,l,1.2617,10,311,1,0,4,4,6,1,0,0,1,0,1,0,0,0,hexagon,triangle,,,,,,,,,,,,,,,,,,,,,,,,,,,,,,,,,,,,,,,,,,,,,,,,,,,,,,
293299,2022-11-30_09h02.57.532,vts_reward_expectancy_bt,2022.2.4,Win32,59.77286312,Chrome,1756,1098,,,l,0.8995,10,321,1,0,5,5,7,1,0,0,1,0,0,1,0,0,hexagon,circle,,,,,,,,,,,,,,,,,,,,,,,,,,,,,,,,,,,,,,,,,,,,,,,,,,,,,,
293299,2022-11-30_09h02.57.532,vts_reward_expectancy_bt,2022.2.4,Win32,59.77286312,Chrome,1756,1098,,,l,1.2584,1,322,1,0,6,6,11,1,0,0,0,1,0,0,1,0,star,hexagon,,,,,,,,,,,,,,,,,,,,,,,,,,,,,,,,,,,,,,,,,,,,,,,,,,,,,,
293299,2022-11-30_09h02.57.532,vts_reward_expectancy_bt,2022.2.4,Win32,59.77286312,Chrome,1756,1098,,,a,1.0338,10,332,1,0,7,7,1,1,1,0,0,0,0,0,1,0,triangle,hexagon,,,,,,,,,,,,,,,,,,,,,,,,,,,,,,,,,,,,,,,,,,,,,,,,,,,,,,
293299,2022-11-30_09h02.57.532,vts_reward_expectancy_bt,2022.2.4,Win32,59.77286312,Chrome,1756,1098,,,a,0.9104,10,342,1,0,8,8,5,1,0,1,0,0,0,0,0,1,circle,star,,,,,,,,,,,,,,,,,,,,,,,,,,,,,,,,,,,,,,,,,,,,,,,,,,,,,,
293299,2022-11-30_09h02.57.532,vts_reward_expectancy_bt,2022.2.4,Win32,59.77286312,Chrome,1756,1098,,,a,0.9663,10,352,1,0,9,9,2,1,1,0,0,0,0,0,0,1,triangle,star,,,,,,,,,,,,,,,,,,,,,,,,,,,,,,,,,,,,,,,,,,,,,,,,,,,,,,
293299,2022-11-30_09h02.57.532,vts_reward_expectancy_bt,2022.2.4,Win32,59.77286312,Chrome,1756,1098,,,a,0.8288,10,362,1,0,10,10,4,1,0,1,0,0,0,0,1,0,circle,hexagon,,,,,,,,,,,,,,,,,,,,,,,,,,,,,,,,,,,,,,,,,,,,,,,,,,,,,,
293299,2022-11-30_09h02.57.532,vts_reward_expectancy_bt,2022.2.4,Win32,59.77286312,Chrome,1756,1098,,,a,2.0798,1,363,1,0,11,11,3,1,0,1,0,0,1,0,0,0,circle,triangle,,,,,,,,,,,,,,,,,,,,,,,,,,,,,,,,,,,,,,,,,,,,,,,,,,,,,,
293299,2022-11-30_09h02.57.532,vts_reward_expectancy_bt,2022.2.4,Win32,59.77286312,Chrome,1756,1098,,,a,1.7436,1,364,1,1,0,12,11,1,0,0,0,1,0,0,1,0,star,hexagon,,,,,,,,,,,,,,,,,,,,,,,,,,,,,,,,,,,,,,,,,,,,,,,,,,,,,,
293299,2022-11-30_09h02.57.532,vts_reward_expectancy_bt,2022.2.4,Win32,59.77286312,Chrome,1756,1098,,,a,0.6615,1,365,1,1,1,13,4,1,0,1,0,0,0,0,1,0,circle,hexagon,,,,,,,,,,,,,,,,,,,,,,,,,,,,,,,,,,,,,,,,,,,,,,,,,,,,,,
293299,2022-11-30_09h02.57.532,vts_reward_expectancy_bt,2022.2.4,Win32,59.77286312,Chrome,1756,1098,,,l,1.31,10,375,1,1,2,14,9,1,0,0,0,1,1,0,0,0,star,triangle,,,,,,,,,,,,,,,,,,,,,,,,,,,,,,,,,,,,,,,,,,,,,,,,,,,,,,
293299,2022-11-30_09h02.57.532,vts_reward_expectancy_bt,2022.2.4,Win32,59.77286312,Chrome,1756,1098,,,l,1.3314,10,385,1,1,3,15,10,1,0,0,0,1,0,1,0,0,star ,circle,,,,,,,,,,,,,,,,,,,,,,,,,,,,,,,,,,,,,,,,,,,,,,,,,,,,,,
293299,2022-11-30_09h02.57.532,vts_reward_expectancy_bt,2022.2.4,Win32,59.77286312,Chrome,1756,1098,,,a,0.9947,10,395,1,1,4,16,5,1,0,1,0,0,0,0,0,1,circle,star,,,,,,,,,,,,,,,,,,,,,,,,,,,,,,,,,,,,,,,,,,,,,,,,,,,,,,
293299,2022-11-30_09h02.57.532,vts_reward_expectancy_bt,2022.2.4,Win32,59.77286312,Chrome,1756,1098,,,a,1.0483,10,405,1,1,5,17,1,1,1,0,0,0,0,0,1,0,triangle,hexagon,,,,,,,,,,,,,,,,,,,,,,,,,,,,,,,,,,,,,,,,,,,,,,,,,,,,,,
293299,2022-11-30_09h02.57.532,vts_reward_expectancy_bt,2022.2.4,Win32,59.77286312,Chrome,1756,1098,,,a,1.2474,10,415,1,1,6,18,2,1,1,0,0,0,0,0,0,1,triangle,star,,,,,,,,,,,,,,,,,,,,,,,,,,,,,,,,,,,,,,,,,,,,,,,,,,,,,,
293299,2022-11-30_09h02.57.532,vts_reward_expectancy_bt,2022.2.4,Win32,59.77286312,Chrome,1756,1098,,,l,0.8994,10,425,1,1,7,19,0,1,1,0,0,0,0,1,0,0,triangle,circle,,,,,,,,,,,,,,,,,,,,,,,,,,,,,,,,,,,,,,,,,,,,,,,,,,,,,,
293299,2022-11-30_09h02.57.532,vts_reward_expectancy_bt,2022.2.4,Win32,59.77286312,Chrome,1756,1098,,,a,0.7784,10,435,1,1,8,20,3,1,0,1,0,0,1,0,0,0,circle,triangle,,,,,,,,,,,,,,,,,,,,,,,,,,,,,,,,,,,,,,,,,,,,,,,,,,,,,,
293299,2022-11-30_09h02.57.532,vts_reward_expectancy_bt,2022.2.4,Win32,59.77286312,Chrome,1756,1098,,,a,1.3672,10,445,1,1,9,21,8,1,0,0,1,0,0,0,0,1,hexagon,star,,,,,,,,,,,,,,,,,,,,,,,,,,,,,,,,,,,,,,,,,,,,,,,,,,,,,,
293299,2022-11-30_09h02.57.532,vts_reward_expectancy_bt,2022.2.4,Win32,59.77286312,Chrome,1756,1098,,,l,0.9275,10,455,1,1,10,22,7,1,0,0,1,0,0,1,0,0,hexagon,circle,,,,,,,,,,,,,,,,,,,,,,,,,,,,,,,,,,,,,,,,,,,,,,,,,,,,,,
293299,2022-11-30_09h02.57.532,vts_reward_expectancy_bt,2022.2.4,Win32,59.77286312,Chrome,1756,1098,,,l,0.9996,10,465,1,1,11,23,6,1,0,0,1,0,1,0,0,0,hexagon,triangle,,,,,,,,,,,,,,,,,,,,,,,,,,,,,,,,,,,,,,,,,,,,,,,,,,,,,,
293299,2022-11-30_09h02.57.532,vts_reward_expectancy_bt,2022.2.4,Win32,59.77286312,Chrome,1756,1098,,,l,1.5281,1,466,1,2,0,24,11,1,0,0,0,1,0,0,1,0,star,hexagon,,,,,,,,,,,,,,,,,,,,,,,,,,,,,,,,,,,,,,,,,,,,,,,,,,,,,,
293299,2022-11-30_09h02.57.532,vts_reward_expectancy_bt,2022.2.4,Win32,59.77286312,Chrome,1756,1098,,,a,3.4538,1,467,1,2,1,25,8,1,0,0,1,0,0,0,0,1,hexagon,star,,,,,,,,,,,,,,,,,,,,,,,,,,,,,,,,,,,,,,,,,,,,,,,,,,,,,,
293299,2022-11-30_09h02.57.532,vts_reward_expectancy_bt,2022.2.4,Win32,59.77286312,Chrome,1756,1098,,,a,1.3266,10,477,1,2,2,26,4,1,0,1,0,0,0,0,1,0,circle,hexagon,,,,,,,,,,,,,,,,,,,,,,,,,,,,,,,,,,,,,,,,,,,,,,,,,,,,,,
293299,2022-11-30_09h02.57.532,vts_reward_expectancy_bt,2022.2.4,Win32,59.77286312,Chrome,1756,1098,,,a,1.1148,1,478,1,2,3,27,5,1,0,1,0,0,0,0,0,1,circle,star,,,,,,,,,,,,,,,,,,,,,,,,,,,,,,,,,,,,,,,,,,,,,,,,,,,,,,
293299,2022-11-30_09h02.57.532,vts_reward_expectancy_bt,2022.2.4,Win32,59.77286312,Chrome,1756,1098,,,l,1.0438,1,479,1,2,4,28,7,1,0,0,1,0,0,1,0,0,hexagon,circle,,,,,,,,,,,,,,,,,,,,,,,,,,,,,,,,,,,,,,,,,,,,,,,,,,,,,,
293299,2022-11-30_09h02.57.532,vts_reward_expectancy_bt,2022.2.4,Win32,59.77286312,Chrome,1756,1098,,,l,1.3307,10,489,1,2,5,29,6,1,0,0,1,0,1,0,0,0,hexagon,triangle,,,,,,,,,,,,,,,,,,,,,,,,,,,,,,,,,,,,,,,,,,,,,,,,,,,,,,
293299,2022-11-30_09h02.57.532,vts_reward_expectancy_bt,2022.2.4,Win32,59.77286312,Chrome,1756,1098,,,l,1.1311,10,499,1,2,6,30,10,1,0,0,0,1,0,1,0,0,star ,circle,,,,,,,,,,,,,,,,,,,,,,,,,,,,,,,,,,,,,,,,,,,,,,,,,,,,,,
293299,2022-11-30_09h02.57.532,vts_reward_expectancy_bt,2022.2.4,Win32,59.77286312,Chrome,1756,1098,,,a,0.8824,10,509,1,2,7,31,1,1,1,0,0,0,0,0,1,0,triangle,hexagon,,,,,,,,,,,,,,,,,,,,,,,,,,,,,,,,,,,,,,,,,,,,,,,,,,,,,,
293299,2022-11-30_09h02.57.532,vts_reward_expectancy_bt,2022.2.4,Win32,59.77286312,Chrome,1756,1098,,,a,0.9151,10,519,1,2,8,32,2,1,1,0,0,0,0,0,0,1,triangle,star,,,,,,,,,,,,,,,,,,,,,,,,,,,,,,,,,,,,,,,,,,,,,,,,,,,,,,
293299,2022-11-30_09h02.57.532,vts_reward_expectancy_bt,2022.2.4,Win32,59.77286312,Chrome,1756,1098,,,a,0.8982,10,529,1,2,9,33,3,1,0,1,0,0,1,0,0,0,circle,triangle,,,,,,,,,,,,,,,,,,,,,,,,,,,,,,,,,,,,,,,,,,,,,,,,,,,,,,
293299,2022-11-30_09h02.57.532,vts_reward_expectancy_bt,2022.2.4,Win32,59.77286312,Chrome,1756,1098,,,l,1.526,10,539,1,2,10,34,9,1,0,0,0,1,1,0,0,0,star,triangle,,,,,,,,,,,,,,,,,,,,,,,,,,,,,,,,,,,,,,,,,,,,,,,,,,,,,,
293299,2022-11-30_09h02.57.532,vts_reward_expectancy_bt,2022.2.4,Win32,59.77286312,Chrome,1756,1098,,,l,1.0633,10,549,1,2,11,35,0,1,1,0,0,0,0,1,0,0,triangle,circle,,,,,,,,,,,,,,,,,,,,,,,,,,,,,,,,,,,,,,,,,,,,,,,,,,,,,,
293299,2022-11-30_09h02.57.532,vts_reward_expectancy_bt,2022.2.4,Win32,59.77286312,Chrome,1756,1098,,,l,1.4734,10,559,2,0,0,0,6,1,0,0,1,0,1,0,0,0,hexagon,triangle,,,,,,,,,,,,,,,,,,,,,,,,,,,,,,,,,,,,,,,,,,,,,,,,,,,,,,
293299,2022-11-30_09h02.57.532,vts_reward_expectancy_bt,2022.2.4,Win32,59.77286312,Chrome,1756,1098,,,a,1.5086,1,560,2,0,1,1,5,1,0,1,0,0,0,0,0,1,circle,star,,,,,,,,,,,,,,,,,,,,,,,,,,,,,,,,,,,,,,,,,,,,,,,,,,,,,,
293299,2022-11-30_09h02.57.532,vts_reward_expectancy_bt,2022.2.4,Win32,59.77286312,Chrome,1756,1098,,,a,0.712,10,570,2,0,2,2,3,1,0,1,0,0,1,0,0,0,circle,triangle,,,,,,,,,,,,,,,,,,,,,,,,,,,,,,,,,,,,,,,,,,,,,,,,,,,,,,
293299,2022-11-30_09h02.57.532,vts_reward_expectancy_bt,2022.2.4,Win32,59.77286312,Chrome,1756,1098,,,l,0.5352,10,580,2,0,3,3,10,1,0,0,0,1,0,1,0,0,star ,circle,,,,,,,,,,,,,,,,,,,,,,,,,,,,,,,,,,,,,,,,,,,,,,,,,,,,,,
293299,2022-11-30_09h02.57.532,vts_reward_expectancy_bt,2022.2.4,Win32,59.77286312,Chrome,1756,1098,,,a,0.5193,10,590,2,0,4,4,2,1,1,0,0,0,0,0,0,1,triangle,star,,,,,,,,,,,,,,,,,,,,,,,,,,,,,,,,,,,,,,,,,,,,,,,,,,,,,,
293299,2022-11-30_09h02.57.532,vts_reward_expectancy_bt,2022.2.4,Win32,59.77286312,Chrome,1756,1098,,,l,0.5432,10,600,2,0,5,5,7,1,0,0,1,0,0,1,0,0,hexagon,circle,,,,,,,,,,,,,,,,,,,,,,,,,,,,,,,,,,,,,,,,,,,,,,,,,,,,,,
293299,2022-11-30_09h02.57.532,vts_reward_expectancy_bt,2022.2.4,Win32,59.77286312,Chrome,1756,1098,,,l,0.5521,1,601,2,0,6,6,11,1,0,0,0,1,0,0,1,0,star,hexagon,,,,,,,,,,,,,,,,,,,,,,,,,,,,,,,,,,,,,,,,,,,,,,,,,,,,,,
293299,2022-11-30_09h02.57.532,vts_reward_expectancy_bt,2022.2.4,Win32,59.77286312,Chrome,1756,1098,,,a,0.7306,1,602,2,0,7,7,4,1,0,1,0,0,0,0,1,0,circle,hexagon,,,,,,,,,,,,,,,,,,,,,,,,,,,,,,,,,,,,,,,,,,,,,,,,,,,,,,
293299,2022-11-30_09h02.57.532,vts_reward_expectancy_bt,2022.2.4,Win32,59.77286312,Chrome,1756,1098,,,l,0.6448,10,612,2,0,8,8,0,1,1,0,0,0,0,1,0,0,triangle,circle,,,,,,,,,,,,,,,,,,,,,,,,,,,,,,,,,,,,,,,,,,,,,,,,,,,,,,
293299,2022-11-30_09h02.57.532,vts_reward_expectancy_bt,2022.2.4,Win32,59.77286312,Chrome,1756,1098,,,a,0.7819,1,613,2,0,9,9,1,1,1,0,0,0,0,0,1,0,triangle,hexagon,,,,,,,,,,,,,,,,,,,,,,,,,,,,,,,,,,,,,,,,,,,,,,,,,,,,,,
293299,2022-11-30_09h02.57.532,vts_reward_expectancy_bt,2022.2.4,Win32,59.77286312,Chrome,1756,1098,,,a,0.6153,1,614,2,0,10,10,8,1,0,0,1,0,0,0,0,1,hexagon,star,,,,,,,,,,,,,,,,,,,,,,,,,,,,,,,,,,,,,,,,,,,,,,,,,,,,,,
293299,2022-11-30_09h02.57.532,vts_reward_expectancy_bt,2022.2.4,Win32,59.77286312,Chrome,1756,1098,,,a,1.2625,1,615,2,0,11,11,9,1,0,0,0,1,1,0,0,0,star,triangle,,,,,,,,,,,,,,,,,,,,,,,,,,,,,,,,,,,,,,,,,,,,,,,,,,,,,,
293299,2022-11-30_09h02.57.532,vts_reward_expectancy_bt,2022.2.4,Win32,59.77286312,Chrome,1756,1098,,,a,0.9154,10,625,2,1,0,12,2,1,1,0,0,0,0,0,0,1,triangle,star,,,,,,,,,,,,,,,,,,,,,,,,,,,,,,,,,,,,,,,,,,,,,,,,,,,,,,
293299,2022-11-30_09h02.57.532,vts_reward_expectancy_bt,2022.2.4,Win32,59.77286312,Chrome,1756,1098,,,a,1.3284,1,626,2,1,1,13,8,1,0,0,1,0,0,0,0,1,hexagon,star,,,,,,,,,,,,,,,,,,,,,,,,,,,,,,,,,,,,,,,,,,,,,,,,,,,,,,
293299,2022-11-30_09h02.57.532,vts_reward_expectancy_bt,2022.2.4,Win32,59.77286312,Chrome,1756,1098,,,l,0.8487,10,636,2,1,2,14,10,1,0,0,0,1,0,1,0,0,star ,circle,,,,,,,,,,,,,,,,,,,,,,,,,,,,,,,,,,,,,,,,,,,,,,,,,,,,,,
293299,2022-11-30_09h02.57.532,vts_reward_expectancy_bt,2022.2.4,Win32,59.77286312,Chrome,1756,1098,,,l,0.8769,10,646,2,1,3,15,9,1,0,0,0,1,1,0,0,0,star,triangle,,,,,,,,,,,,,,,,,,,,,,,,,,,,,,,,,,,,,,,,,,,,,,,,,,,,,,
293299,2022-11-30_09h02.57.532,vts_reward_expectancy_bt,2022.2.4,Win32,59.77286312,Chrome,1756,1098,,,a,0.6663,10,656,2,1,4,16,5,1,0,1,0,0,0,0,0,1,circle,star,,,,,,,,,,,,,,,,,,,,,,,,,,,,,,,,,,,,,,,,,,,,,,,,,,,,,,
293299,2022-11-30_09h02.57.532,vts_reward_expectancy_bt,2022.2.4,Win32,59.77286312,Chrome,1756,1098,,,l,0.5772,10,666,2,1,5,17,6,1,0,0,1,0,1,0,0,0,hexagon,triangle,,,,,,,,,,,,,,,,,,,,,,,,,,,,,,,,,,,,,,,,,,,,,,,,,,,,,,
293299,2022-11-30_09h02.57.532,vts_reward_expectancy_bt,2022.2.4,Win32,59.77286312,Chrome,1756,1098,,,a,0.6662,1,667,2,1,6,18,3,1,0,1,0,0,1,0,0,0,circle,triangle,,,,,,,,,,,,,,,,,,,,,,,,,,,,,,,,,,,,,,,,,,,,,,,,,,,,,,
293299,2022-11-30_09h02.57.532,vts_reward_expectancy_bt,2022.2.4,Win32,59.77286312,Chrome,1756,1098,,,a,0.6483,10,677,2,1,7,19,4,1,0,1,0,0,0,0,1,0,circle,hexagon,,,,,,,,,,,,,,,,,,,,,,,,,,,,,,,,,,,,,,,,,,,,,,,,,,,,,,
293299,2022-11-30_09h02.57.532,vts_reward_expectancy_bt,2022.2.4,Win32,59.77286312,Chrome,1756,1098,,,l,0.5653,1,678,2,1,8,20,11,1,0,0,0,1,0,0,1,0,star,hexagon,,,,,,,,,,,,,,,,,,,,,,,,,,,,,,,,,,,,,,,,,,,,,,,,,,,,,,
293299,2022-11-30_09h02.57.532,vts_reward_expectancy_bt,2022.2.4,Win32,59.77286312,Chrome,1756,1098,,,l,0.9612,1,679,2,1,9,21,0,1,1,0,0,0,0,1,0,0,triangle,circle,,,,,,,,,,,,,,,,,,,,,,,,,,,,,,,,,,,,,,,,,,,,,,,,,,,,,,
293299,2022-11-30_09h02.57.532,vts_reward_expectancy_bt,2022.2.4,Win32,59.77286312,Chrome,1756,1098,,,a,1.2312,1,680,2,1,10,22,7,1,0,0,1,0,0,1,0,0,hexagon,circle,,,,,,,,,,,,,,,,,,,,,,,,,,,,,,,,,,,,,,,,,,,,,,,,,,,,,,
293299,2022-11-30_09h02.57.532,vts_reward_expectancy_bt,2022.2.4,Win32,59.77286312,Chrome,1756,1098,,,l,1.2318,1,681,2,1,11,23,1,1,1,0,0,0,0,0,1,0,triangle,hexagon,,,,,,,,,,,,,,,,,,,,,,,,,,,,,,,,,,,,,,,,,,,,,,,,,,,,,,
293299,2022-11-30_09h02.57.532,vts_reward_expectancy_bt,2022.2.4,Win32,59.77286312,Chrome,1756,1098,,,a,0.9738,10,691,2,2,0,24,3,1,0,1,0,0,1,0,0,0,circle,triangle,,,,,,,,,,,,,,,,,,,,,,,,,,,,,,,,,,,,,,,,,,,,,,,,,,,,,,
293299,2022-11-30_09h02.57.532,vts_reward_expectancy_bt,2022.2.4,Win32,59.77286312,Chrome,1756,1098,,,a,0.6496,10,701,2,2,1,25,5,1,0,1,0,0,0,0,0,1,circle,star,,,,,,,,,,,,,,,,,,,,,,,,,,,,,,,,,,,,,,,,,,,,,,,,,,,,,,
293299,2022-11-30_09h02.57.532,vts_reward_expectancy_bt,2022.2.4,Win32,59.77286312,Chrome,1756,1098,,,l,0.5657,10,711,2,2,2,26,0,1,1,0,0,0,0,1,0,0,triangle,circle,,,,,,,,,,,,,,,,,,,,,,,,,,,,,,,,,,,,,,,,,,,,,,,,,,,,,,
293299,2022-11-30_09h02.57.532,vts_reward_expectancy_bt,2022.2.4,Win32,59.77286312,Chrome,1756,1098,,,a,0.546,10,721,2,2,3,27,2,1,1,0,0,0,0,0,0,1,triangle,star,,,,,,,,,,,,,,,,,,,,,,,,,,,,,,,,,,,,,,,,,,,,,,,,,,,,,,
293299,2022-11-30_09h02.57.532,vts_reward_expectancy_bt,2022.2.4,Win32,59.77286312,Chrome,1756,1098,,,l,0.5828,10,731,2,2,4,28,9,1,0,0,0,1,1,0,0,0,star,triangle,,,,,,,,,,,,,,,,,,,,,,,,,,,,,,,,,,,,,,,,,,,,,,,,,,,,,,
293299,2022-11-30_09h02.57.532,vts_reward_expectancy_bt,2022.2.4,Win32,59.77286312,Chrome,1756,1098,,,a,0.2335,1,732,2,2,5,29,6,1,0,0,1,0,1,0,0,0,hexagon,triangle,,,,,,,,,,,,,,,,,,,,,,,,,,,,,,,,,,,,,,,,,,,,,,,,,,,,,,
293299,2022-11-30_09h02.57.532,vts_reward_expectancy_bt,2022.2.4,Win32,59.77286312,Chrome,1756,1098,,,a,0.8652,10,742,2,2,6,30,1,1,1,0,0,0,0,0,1,0,triangle,hexagon,,,,,,,,,,,,,,,,,,,,,,,,,,,,,,,,,,,,,,,,,,,,,,,,,,,,,,
293299,2022-11-30_09h02.57.532,vts_reward_expectancy_bt,2022.2.4,Win32,59.77286312,Chrome,1756,1098,,,l,0.5116,1,743,2,2,7,31,7,1,0,0,1,0,0,1,0,0,hexagon,circle,,,,,,,,,,,,,,,,,,,,,,,,,,,,,,,,,,,,,,,,,,,,,,,,,,,,,,
293299,2022-11-30_09h02.57.532,vts_reward_expectancy_bt,2022.2.4,Win32,59.77286312,Chrome,1756,1098,,,l,0.5515,10,753,2,2,8,32,10,1,0,0,0,1,0,1,0,0,star ,circle,,,,,,,,,,,,,,,,,,,,,,,,,,,,,,,,,,,,,,,,,,,,,,,,,,,,,,
293299,2022-11-30_09h02.57.532,vts_reward_expectancy_bt,2022.2.4,Win32,59.77286312,Chrome,1756,1098,,,l,2.1298,1,754,2,2,9,33,11,1,0,0,0,1,0,0,1,0,star,hexagon,,,,,,,,,,,,,,,,,,,,,,,,,,,,,,,,,,,,,,,,,,,,,,,,,,,,,,
293299,2022-11-30_09h02.57.532,vts_reward_expectancy_bt,2022.2.4,Win32,59.77286312,Chrome,1756,1098,,,a,0.5614,10,764,2,2,10,34,4,1,0,1,0,0,0,0,1,0,circle,hexagon,,,,,,,,,,,,,,,,,,,,,,,,,,,,,,,,,,,,,,,,,,,,,,,,,,,,,,
293299,2022-11-30_09h02.57.532,vts_reward_expectancy_bt,2022.2.4,Win32,59.77286312,Chrome,1756,1098,,,a,0.5467,10,774,2,2,11,35,8,1,0,0,1,0,0,0,0,1,hexagon,star,,,,,,,,,,,,,,,,,,,,,,,,,,,,,,,,,,,,,,,,,,,,,,,,,,,,,,
293299,2022-11-30_09h02.57.532,vts_reward_expectancy_bt,2022.2.4,Win32,59.77286312,Chrome,1756,1098,,,,,,,,,,,,,,,,,,,,,,,Y,125,triangle,0,0,,0,0,0,0,0,1,,,,,,,,,,,,,,,,,,,,,,,,,,,,,,,,,,,,,,,,,,
293299,2022-11-30_09h02.57.532,vts_reward_expectancy_bt,2022.2.4,Win32,59.77286312,Chrome,1756,1098,,,,,,,,,,,,,,,,,,,,,,,B,167,hexagon,1,1,d,0,1,0,1,0,1,0.6987,,,,,,,,,,,,,,,,,,,,,,,,,,,,,,,,,,,,,,,,,
293299,2022-11-30_09h02.57.532,vts_reward_expectancy_bt,2022.2.4,Win32,59.77286312,Chrome,1756,1098,,,,,,,,,,,,,,,,,,,,,,,F,181,star,0,0,f,0,2,0,2,0,1,1.1998,,,,,,,,,,,,,,,,,,,,,,,,,,,,,,,,,,,,,,,,,
293299,2022-11-30_09h02.57.532,vts_reward_expectancy_bt,2022.2.4,Win32,59.77286312,Chrome,1756,1098,,,,,,,,,,,,,,,,,,,,,,,S,146,circle,1,1,f,0,3,0,3,0,1,0.6776,,,,,,,,,,,,,,,,,,,,,,,,,,,,,,,,,,,,,,,,,
293299,2022-11-30_09h02.57.532,vts_reward_expectancy_bt,2022.2.4,Win32,59.77286312,Chrome,1756,1098,,,,,,,,,,,,,,,,,,,,,,,H,160,triangle,1,0,d,0,4,0,4,0,1,0.8437,,,,,,,,,,,,,,,,,,,,,,,,,,,,,,,,,,,,,,,,,
293299,2022-11-30_09h02.57.532,vts_reward_expectancy_bt,2022.2.4,Win32,59.77286312,Chrome,1756,1098,,,,,,,,,,,,,,,,,,,,,,,W,174,hexagon,1,0,f,0,5,0,5,0,1,0.6602,,,,,,,,,,,,,,,,,,,,,,,,,,,,,,,,,,,,,,,,,
293299,2022-11-30_09h02.57.532,vts_reward_expectancy_bt,2022.2.4,Win32,59.77286312,Chrome,1756,1098,,,,,,,,,,,,,,,,,,,,,,,U,132,star,1,0,f,0,6,0,6,0,1,0.6483,,,,,,,,,,,,,,,,,,,,,,,,,,,,,,,,,,,,,,,,,
293299,2022-11-30_09h02.57.532,vts_reward_expectancy_bt,2022.2.4,Win32,59.77286312,Chrome,1756,1098,,,,,,,,,,,,,,,,,,,,,,,D,139,circle,1,0,d,0,7,0,7,0,1,0.5105,,,,,,,,,,,,,,,,,,,,,,,,,,,,,,,,,,,,,,,,,
293299,2022-11-30_09h02.57.532,vts_reward_expectancy_bt,2022.2.4,Win32,59.77286312,Chrome,1756,1098,,,,,,,,,,,,,,,,,,,,,,,Y,125,circle,1,0,f,0,8,0,8,0,1,0.4789,,,,,,,,,,,,,,,,,,,,,,,,,,,,,,,,,,,,,,,,,
293299,2022-11-30_09h02.57.532,vts_reward_expectancy_bt,2022.2.4,Win32,59.77286312,Chrome,1756,1098,,,,,,,,,,,,,,,,,,,,,,,B,167,triangle,1,0,d,0,9,0,9,0,1,0.4285,,,,,,,,,,,,,,,,,,,,,,,,,,,,,,,,,,,,,,,,,
293299,2022-11-30_09h02.57.532,vts_reward_expectancy_bt,2022.2.4,Win32,59.77286312,Chrome,1756,1098,,,,,,,,,,,,,,,,,,,,,,,Y,174,triangle,1,0,f,1,0,0,0,0,1,1.0314,,,,,,,,,,,,,,,,,,,,,,,,,,,,,,,,,,,,,,,,,
293299,2022-11-30_09h02.57.532,vts_reward_expectancy_bt,2022.2.4,Win32,59.77286312,Chrome,1756,1098,,,,,,,,,,,,,,,,,,,,,,,W,160,hexagon,1,0,f,1,1,0,1,0,1,0.7325,,,,,,,,,,,,,,,,,,,,,,,,,,,,,,,,,,,,,,,,,
293299,2022-11-30_09h02.57.532,vts_reward_expectancy_bt,2022.2.4,Win32,59.77286312,Chrome,1756,1098,,,,,,,,,,,,,,,,,,,,,,,U,181,star,1,0,f,1,2,0,2,0,1,0.6011,,,,,,,,,,,,,,,,,,,,,,,,,,,,,,,,,,,,,,,,,
293299,2022-11-30_09h02.57.532,vts_reward_expectancy_bt,2022.2.4,Win32,59.77286312,Chrome,1756,1098,,,,,,,,,,,,,,,,,,,,,,,D,146,circle,1,0,d,1,3,0,3,0,1,0.7853,,,,,,,,,,,,,,,,,,,,,,,,,,,,,,,,,,,,,,,,,
293299,2022-11-30_09h02.57.532,vts_reward_expectancy_bt,2022.2.4,Win32,59.77286312,Chrome,1756,1098,,,,,,,,,,,,,,,,,,,,,,,F,125,triangle,0,0,f,1,4,0,4,0,1,0.5998,,,,,,,,,,,,,,,,,,,,,,,,,,,,,,,,,,,,,,,,,
293299,2022-11-30_09h02.57.532,vts_reward_expectancy_bt,2022.2.4,Win32,59.77286312,Chrome,1756,1098,,,,,,,,,,,,,,,,,,,,,,,S,132,hexagon,1,1,f,1,5,0,5,0,1,0.7655,,,,,,,,,,,,,,,,,,,,,,,,,,,,,,,,,,,,,,,,,
293299,2022-11-30_09h02.57.532,vts_reward_expectancy_bt,2022.2.4,Win32,59.77286312,Chrome,1756,1098,,,,,,,,,,,,,,,,,,,,,,,H,167,star,1,0,d,1,6,0,6,0,1,0.7022,,,,,,,,,,,,,,,,,,,,,,,,,,,,,,,,,,,,,,,,,
293299,2022-11-30_09h02.57.532,vts_reward_expectancy_bt,2022.2.4,Win32,59.77286312,Chrome,1756,1098,,,,,,,,,,,,,,,,,,,,,,,B,139,circle,1,0,d,1,7,0,7,0,1,0.698,,,,,,,,,,,,,,,,,,,,,,,,,,,,,,,,,,,,,,,,,
293299,2022-11-30_09h02.57.532,vts_reward_expectancy_bt,2022.2.4,Win32,59.77286312,Chrome,1756,1098,,,,,,,,,,,,,,,,,,,,,,,Y,174,star,1,0,f,1,8,0,8,0,1,1.4824,,,,,,,,,,,,,,,,,,,,,,,,,,,,,,,,,,,,,,,,,
293299,2022-11-30_09h02.57.532,vts_reward_expectancy_bt,2022.2.4,Win32,59.77286312,Chrome,1756,1098,,,,,,,,,,,,,,,,,,,,,,,W,160,circle,1,0,f,1,9,0,9,0,1,0.5532,,,,,,,,,,,,,,,,,,,,,,,,,,,,,,,,,,,,,,,,,
293299,2022-11-30_09h02.57.532,vts_reward_expectancy_bt,2022.2.4,Win32,59.77286312,Chrome,1756,1098,,,,,,,,,,,,,,,,,,,,,,,B,132,circle,1,0,,2,,,,,,,j,0.8337,0,0,0,0,1,,,,,,,,,,,,,,,,,,,,,,,,,,,,,,,,,,
293299,2022-11-30_09h02.57.532,vts_reward_expectancy_bt,2022.2.4,Win32,59.77286312,Chrome,1756,1098,,,,,,,,,,,,,,,,,,,,,,,D,174,triangle,1,0,,2,,,,,,,k,0.4729,1,0,1,0,1,,,,,,,,,,,,,,,,,,,,,,,,,,,,,,,,,,
293299,2022-11-30_09h02.57.532,vts_reward_expectancy_bt,2022.2.4,Win32,59.77286312,Chrome,1756,1098,,,,,,,,,,,,,,,,,,,,,,,U,181,hexagon,1,0,,2,,,,,,,k,0.7325,2,0,2,0,1,,,,,,,,,,,,,,,,,,,,,,,,,,,,,,,,,,
293299,2022-11-30_09h02.57.532,vts_reward_expectancy_bt,2022.2.4,Win32,59.77286312,Chrome,1756,1098,,,,,,,,,,,,,,,,,,,,,,,S,125,star,1,0,,2,,,,,,,j,0.5538,3,0,3,0,1,,,,,,,,,,,,,,,,,,,,,,,,,,,,,,,,,,
293299,2022-11-30_09h02.57.532,vts_reward_expectancy_bt,2022.2.4,Win32,59.77286312,Chrome,1756,1098,,,,,,,,,,,,,,,,,,,,,,,Y,139,circle,1,0,,2,,,,,,,j,0.5873,4,0,4,0,1,,,,,,,,,,,,,,,,,,,,,,,,,,,,,,,,,,
293299,2022-11-30_09h02.57.532,vts_reward_expectancy_bt,2022.2.4,Win32,59.77286312,Chrome,1756,1098,,,,,,,,,,,,,,,,,,,,,,,F,160,triangle,1,0,,2,,,,,,,k,0.573,5,0,5,0,1,,,,,,,,,,,,,,,,,,,,,,,,,,,,,,,,,,
293299,2022-11-30_09h02.57.532,vts_reward_expectancy_bt,2022.2.4,Win32,59.77286312,Chrome,1756,1098,,,,,,,,,,,,,,,,,,,,,,,W,167,hexagon,1,0,,2,,,,,,,k,0.549,6,0,6,0,1,,,,,,,,,,,,,,,,,,,,,,,,,,,,,,,,,,
293299,2022-11-30_09h02.57.532,vts_reward_expectancy_bt,2022.2.4,Win32,59.77286312,Chrome,1756,1098,,,,,,,,,,,,,,,,,,,,,,,H,146,star,1,0,,2,,,,,,,j,1.0571,7,0,7,0,1,,,,,,,,,,,,,,,,,,,,,,,,,,,,,,,,,,
293299,2022-11-30_09h02.57.532,vts_reward_expectancy_bt,2022.2.4,Win32,59.77286312,Chrome,1756,1098,,,,,,,,,,,,,,,,,,,,,,,B,132,hexagon,1,0,,2,,,,,,,j,0.6996,8,0,8,0,1,,,,,,,,,,,,,,,,,,,,,,,,,,,,,,,,,,
293299,2022-11-30_09h02.57.532,vts_reward_expectancy_bt,2022.2.4,Win32,59.77286312,Chrome,1756,1098,,,,,,,,,,,,,,,,,,,,,,,D,174,triangle,1,0,,2,,,,,,,k,0.5657,9,0,9,0,1,,,,,,,,,,,,,,,,,,,,,,,,,,,,,,,,,,
293299,2022-11-30_09h02.57.532,vts_reward_expectancy_bt,2022.2.4,Win32,59.77286312,Chrome,1756,1098,,,,,0,774,,,,,,,,,,,,,,,,,W,167,star,0,0,,3,,,,,,,,,,,,,,-1,number,NA,j,0.8192,vtsPrac,0,0,0,0,1,,,,,,,,,,,,,,,,,,,,,,,
293299,2022-11-30_09h02.57.532,vts_reward_expectancy_bt,2022.2.4,Win32,59.77286312,Chrome,1756,1098,,,,,0,774,,,,,,,,,,,,,,,,,H,160,circle,-1,1,,3,,,,,,,,,,,,,,switch,no_choice,NA,,,vtsPrac,1,0,1,0,1,,,,,,,,,,,,,,,,,,,,,,,
293299,2022-11-30_09h02.57.532,vts_reward_expectancy_bt,2022.2.4,Win32,59.77286312,Chrome,1756,1098,,,,,0,774,,,,,,,,,,,,,,,,,Y,125,star,1,0,,3,,,,,,,,,,,,,,switch,letter,lettSwt,f,1.0157,vtsPrac,2,0,2,0,1,,,,,,,,,,,,,,,,,,,,,,,
293299,2022-11-30_09h02.57.532,vts_reward_expectancy_bt,2022.2.4,Win32,59.77286312,Chrome,1756,1098,,,,,0,774,,,,,,,,,,,,,,,,,B,146,circle,1,0,,3,,,,,,,,,,,,,,switch,number,numSwt,j,1.0982,vtsPrac,3,0,3,0,1,,,,,,,,,,,,,,,,,,,,,,,
293299,2022-11-30_09h02.57.532,vts_reward_expectancy_bt,2022.2.4,Win32,59.77286312,Chrome,1756,1098,,,,,0,774,,,,,,,,,,,,,,,,,W,167,circle,1,0,,3,,,,,,,,,,,,,,switch,letter,lettSwt,f,0.8334,vtsPrac,4,0,4,0,1,,,,,,,,,,,,,,,,,,,,,,,
293299,2022-11-30_09h02.57.532,vts_reward_expectancy_bt,2022.2.4,Win32,59.77286312,Chrome,1756,1098,,,,,0,774,,,,,,,,,,,,,,,,,H,160,star,1,0,,3,,,,,,,,,,,,,,switch,number,numSwt,k,0.9309,vtsPrac,5,0,5,0,1,,,,,,,,,,,,,,,,,,,,,,,
293299,2022-11-30_09h02.57.532,vts_reward_expectancy_bt,2022.2.4,Win32,59.77286312,Chrome,1756,1098,,,,,0,774,,,,,,,,,,,,,,,,,Y,125,star,1,0,,3,,,,,,,,,,,,,,repeat,number,numRpt,j,0.8025,vtsPrac,6,0,6,0,1,,,,,,,,,,,,,,,,,,,,,,,
293299,2022-11-30_09h02.57.532,vts_reward_expectancy_bt,2022.2.4,Win32,59.77286312,Chrome,1756,1098,,,,,0,774,,,,,,,,,,,,,,,,,B,146,triangle,0,0,,3,,,,,,,,,,,,,,repeat,number,NA,k,0.9662,vtsPrac,7,0,7,0,1,,,,,,,,,,,,,,,,,,,,,,,
293299,2022-11-30_09h02.57.532,vts_reward_expectancy_bt,2022.2.4,Win32,59.77286312,Chrome,1756,1098,,,,,0,774,,,,,,,,,,,,,,,,,D,132,circle,1,1,,3,,,,,,,,,,,,,,switch,letter,lettSwt,d,1.4642,vtsPrac,8,0,8,0,1,,,,,,,,,,,,,,,,,,,,,,,
293299,2022-11-30_09h02.57.532,vts_reward_expectancy_bt,2022.2.4,Win32,59.77286312,Chrome,1756,1098,,,,,0,774,,,,,,,,,,,,,,,,,F,125,star,1,0,,3,,,,,,,,,,,,,,switch,number,numSwt,j,1.7503,vtsPrac,9,0,9,0,1,,,,,,,,,,,,,,,,,,,,,,,
293299,2022-11-30_09h02.57.532,vts_reward_expectancy_bt,2022.2.4,Win32,59.77286312,Chrome,1756,1098,,,,,0,774,,,,,,,,,,,,,,,,,Y,181,hexagon,1,0,,3,,,,,,,,,,,,,,switch,letter,lettSwt,f,0.95,vtsPrac,10,0,10,0,1,,,,,,,,,,,,,,,,,,,,,,,
293299,2022-11-30_09h02.57.532,vts_reward_expectancy_bt,2022.2.4,Win32,59.77286312,Chrome,1756,1098,,,,,0,774,,,,,,,,,,,,,,,,,H,139,circle,1,0,,3,,,,,,,,,,,,,,switch,number,numSwt,j,1.2711,vtsPrac,11,0,11,0,1,,,,,,,,,,,,,,,,,,,,,,,
293299,2022-11-30_09h02.57.532,vts_reward_expectancy_bt,2022.2.4,Win32,59.77286312,Chrome,1756,1098,,,,,0,774,,,,,,,,,,,,,,,,,D,167,circle,1,0,,3,,,,,,,,,,,,,,switch,letter,lettSwt,d,1.1324,vtsPrac,12,0,12,0,1,,,,,,,,,,,,,,,,,,,,,,,
293299,2022-11-30_09h02.57.532,vts_reward_expectancy_bt,2022.2.4,Win32,59.77286312,Chrome,1756,1098,,,,,0,774,,,,,,,,,,,,,,,,,Y,174,hexagon,1,0,,3,,,,,,,,,,,,,,repeat,letter,lettRpt,f,0.8162,vtsPrac,13,0,13,0,1,,,,,,,,,,,,,,,,,,,,,,,
293299,2022-11-30_09h02.57.532,vts_reward_expectancy_bt,2022.2.4,Win32,59.77286312,Chrome,1756,1098,,,,,0,774,,,,,,,,,,,,,,,,,S,125,star,0,0,,3,,,,,,,,,,,,,,repeat,letter,NA,d,1.7134,vtsPrac,14,0,14,0,1,,,,,,,,,,,,,,,,,,,,,,,
293299,2022-11-30_09h02.57.532,vts_reward_expectancy_bt,2022.2.4,Win32,59.77286312,Chrome,1756,1098,,,,,0,774,,,,,,,,,,,,,,,,,F,181,triangle,1,1,,3,,,,,,,,,,,,,,switch,number,numSwt,k,1.2313,vtsPrac,15,0,15,0,1,,,,,,,,,,,,,,,,,,,,,,,
293299,2022-11-30_09h02.57.532,vts_reward_expectancy_bt,2022.2.4,Win32,59.77286312,Chrome,1756,1098,,,,,0,774,,,,,,,,,,,,,,,,,F,181,triangle,1,0,,3,,,,,,,,,,,,,,repeat,number,numRpt,k,1.3483,vtsPrac,16,0,16,0,1,,,,,,,,,,,,,,,,,,,,,,,
293299,2022-11-30_09h02.57.532,vts_reward_expectancy_bt,2022.2.4,Win32,59.77286312,Chrome,1756,1098,,,,,0,774,,,,,,,,,,,,,,,,,D,160,circle,1,0,,3,,,,,,,,,,,,,,repeat,number,numRpt,k,1.1016,vtsPrac,17,0,17,0,1,,,,,,,,,,,,,,,,,,,,,,,
293299,2022-11-30_09h02.57.532,vts_reward_expectancy_bt,2022.2.4,Win32,59.77286312,Chrome,1756,1098,,,,,0,774,,,,,,,,,,,,,,,,,W,139,hexagon,1,0,,3,,,,,,,,,,,,,,repeat,number,numRpt,j,0.8147,vtsPrac,18,0,18,0,1,,,,,,,,,,,,,,,,,,,,,,,
293299,2022-11-30_09h02.57.532,vts_reward_expectancy_bt,2022.2.4,Win32,59.77286312,Chrome,1756,1098,,,,,0,774,,,,,,,,,,,,,,,,,H,125,triangle,1,0,,3,,,,,,,,,,,,,,repeat,number,numRpt,j,1.081,vtsPrac,19,0,19,0,1,,,,,,,,,,,,,,,,,,,,,,,
293299,2022-11-30_09h02.57.532,vts_reward_expectancy_bt,2022.2.4,Win32,59.77286312,Chrome,1756,1098,,,,,0,774,,,,,,,,,,,,,,,,,S,181,star,1,0,,3,,,,,,,,,,,,,,repeat,number,numRpt,k,1.1488,vtsPrac,20,0,20,0,1,,,,,,,,,,,,,,,,,,,,,,,
293299,2022-11-30_09h02.57.532,vts_reward_expectancy_bt,2022.2.4,Win32,59.77286312,Chrome,1756,1098,,,,,0,774,,,,,,,,,,,,,,,,,F,125,circle,1,0,,3,,,,,,,,,,,,,,switch,letter,lettSwt,d,0.9662,vtsPrac,21,0,21,0,1,,,,,,,,,,,,,,,,,,,,,,,
293299,2022-11-30_09h02.57.532,vts_reward_expectancy_bt,2022.2.4,Win32,59.77286312,Chrome,1756,1098,,,,,0,774,,,,,,,,,,,,,,,,,Y,167,circle,1,0,,3,,,,,,,,,,,,,,repeat,letter,lettRpt,f,1.0318,vtsPrac,22,0,22,0,1,,,,,,,,,,,,,,,,,,,,,,,
293299,2022-11-30_09h02.57.532,vts_reward_expectancy_bt,2022.2.4,Win32,59.77286312,Chrome,1756,1098,,,,,0,774,,,,,,,,,,,,,,,,,W,132,hexagon,1,0,,3,,,,,,,,,,,,,,switch,number,numSwt,j,0.7825,vtsPrac,23,0,23,0,1,,,,,,,,,,,,,,,,,,,,,,,
293299,2022-11-30_09h02.57.532,vts_reward_expectancy_bt,2022.2.4,Win32,59.77286312,Chrome,1756,1098,,,,,0,774,,,,,,,,,,,,,,,,,W,160,star,1,0,,3,,,,,,,,,,,,,,switch,letter,lettSwt,f,0.7835,vtsPrac,24,0,24,0,1,,,,,,,,,,,,,,,,,,,,,,,
293299,2022-11-30_09h02.57.532,vts_reward_expectancy_bt,2022.2.4,Win32,59.77286312,Chrome,1756,1098,,,,,0,774,,,,,,,,,,,,,,,,,Y,146,triangle,1,0,,3,,,,,,,,,,,,,,repeat,letter,lettRpt,f,0.7989,vtsPrac,25,0,25,0,1,,,,,,,,,,,,,,,,,,,,,,,
293299,2022-11-30_09h02.57.532,vts_reward_expectancy_bt,2022.2.4,Win32,59.77286312,Chrome,1756,1098,,,,,0,774,,,,,,,,,,,,,,,,,U,125,star,1,0,,3,,,,,,,,,,,,,,switch,number,numSwt,j,1.6816,vtsPrac,26,0,26,0,1,,,,,,,,,,,,,,,,,,,,,,,
293299,2022-11-30_09h02.57.532,vts_reward_expectancy_bt,2022.2.4,Win32,59.77286312,Chrome,1756,1098,,,,,0,774,,,,,,,,,,,,,,,,,F,174,triangle,1,0,,3,,,,,,,,,,,,,,repeat,number,numRpt,k,1.3819,vtsPrac,27,0,27,0,1,,,,,,,,,,,,,,,,,,,,,,,
293299,2022-11-30_09h02.57.532,vts_reward_expectancy_bt,2022.2.4,Win32,59.77286312,Chrome,1756,1098,,,,,0,774,,,,,,,,,,,,,,,,,H,125,star,1,0,,3,,,,,,,,,,,,,,repeat,number,numRpt,j,1.1482,vtsPrac,28,0,28,0,1,,,,,,,,,,,,,,,,,,,,,,,
293299,2022-11-30_09h02.57.532,vts_reward_expectancy_bt,2022.2.4,Win32,59.77286312,Chrome,1756,1098,,,,,0,774,,,,,,,,,,,,,,,,,B,167,triangle,1,0,,3,,,,,,,,,,,,,,switch,letter,lettSwt,d,0.905,vtsPrac,29,0,29,0,1,,,,,,,,,,,,,,,,,,,,,,,
293299,2022-11-30_09h02.57.532,vts_reward_expectancy_bt,2022.2.4,Win32,59.77286312,Chrome,1756,1098,,,,,0,774,,,,,,,,,,,,,,,,,W,181,triangle,1,0,,3,,,,,,,,,,,,,,repeat,letter,lettRpt,f,0.7657,vtsPrac,30,0,30,0,1,,,,,,,,,,,,,,,,,,,,,,,
293299,2022-11-30_09h02.57.532,vts_reward_expectancy_bt,2022.2.4,Win32,59.77286312,Chrome,1756,1098,,,,,0,774,,,,,,,,,,,,,,,,,U,139,hexagon,1,0,,3,,,,,,,,,,,,,,switch,number,numSwt,j,0.5338,vtsPrac,31,0,31,0,1,,,,,,,,,,,,,,,,,,,,,,,
293299,2022-11-30_09h02.57.532,vts_reward_expectancy_bt,2022.2.4,Win32,59.77286312,Chrome,1756,1098,,,,,,,,,,,,,,,,,,,,,,,,,,,,,,,,,,,,,,,,,,,,,,,,,,,,,,,,,,,,,,,,,,,,,,,,,,,,
293299,2022-11-30_09h02.57.532,vts_reward_expectancy_bt,2022.2.4,Win32,59.77286312,Chrome,1756,1098,,,,,,,,,,,,,,,,,,,,,,,,,,,,,,,,,,,,,,,,,,,,,,,,,,,,,,,,,,,,,,,,,,,,,,,,,,,,
293299,2022-11-30_09h02.57.532,vts_reward_expectancy_bt,2022.2.4,Win32,59.77286312,Chrome,1756,1098,,,,,0,774,,,,,,,,,,,,,,,,,D,139,star,1,0,,,,,,,,,,,,,,,,switch,letter,lettSwt,d,2.7351,noRew,,,,,,0,0,0,0,0,1,,,,,,,,,,,,,,,,,
293299,2022-11-30_09h02.57.532,vts_reward_expectancy_bt,2022.2.4,Win32,59.77286312,Chrome,1756,1098,,,,,0,774,,,,,,,,,,,,,,,,,F,132,hexagon,1,0,,,,,,,,,,,,,,,,switch,number,numSwt,j,1.1878,noRew,,,,,,0,1,0,1,0,1,,,,,,,,,,,,,,,,,
293299,2022-11-30_09h02.57.532,vts_reward_expectancy_bt,2022.2.4,Win32,59.77286312,Chrome,1756,1098,,,,,0,774,,,,,,,,,,,,,,,,,Y,160,star,1,0,,,,,,,,,,,,,,,,switch,letter,lettSwt,f,0.7995,noRew,,,,,,0,2,0,2,0,1,,,,,,,,,,,,,,,,,
293299,2022-11-30_09h02.57.532,vts_reward_expectancy_bt,2022.2.4,Win32,59.77286312,Chrome,1756,1098,,,,,0,774,,,,,,,,,,,,,,,,,S,181,hexagon,1,0,,,,,,,,,,,,,,,,repeat,letter,lettRpt,f,0.689,noRew,,,,,,0,3,0,3,0,1,,,,,,,,,,,,,,,,,
293299,2022-11-30_09h02.57.532,vts_reward_expectancy_bt,2022.2.4,Win32,59.77286312,Chrome,1756,1098,,,,,0,774,,,,,,,,,,,,,,,,,D,139,triangle,1,0,,,,,,,,,,,,,,,,repeat,letter,lettRpt,d,0.6836,noRew,,,,,,0,4,0,4,0,1,,,,,,,,,,,,,,,,,
293299,2022-11-30_09h02.57.532,vts_reward_expectancy_bt,2022.2.4,Win32,59.77286312,Chrome,1756,1098,,,,,0,774,,,,,,,,,,,,,,,,,F,132,hexagon,1,0,,,,,,,,,,,,,,,,switch,number,numSwt,j,0.7831,noRew,,,,,,0,5,0,5,0,1,,,,,,,,,,,,,,,,,
293299,2022-11-30_09h02.57.532,vts_reward_expectancy_bt,2022.2.4,Win32,59.77286312,Chrome,1756,1098,,,,,0,774,,,,,,,,,,,,,,,,,Y,160,triangle,1,0,,,,,,,,,,,,,,,,switch,letter,lettSwt,f,0.7331,noRew,,,,,,0,6,0,6,0,1,,,,,,,,,,,,,,,,,
293299,2022-11-30_09h02.57.532,vts_reward_expectancy_bt,2022.2.4,Win32,59.77286312,Chrome,1756,1098,,,,,0,774,,,,,,,,,,,,,,,,,S,181,star,1,0,,,,,,,,,,,,,,,,switch,number,numSwt,k,0.8822,noRew,,,,,,0,7,0,7,0,1,,,,,,,,,,,,,,,,,
293299,2022-11-30_09h02.57.532,vts_reward_expectancy_bt,2022.2.4,Win32,59.77286312,Chrome,1756,1098,,,,,0,774,,,,,,,,,,,,,,,,,B,132,circle,1,0,,,,,,,,,,,,,,,,switch,letter,lettSwt,d,1.8664,noRew,,,,,,0,8,0,8,0,1,,,,,,,,,,,,,,,,,
293299,2022-11-30_09h02.57.532,vts_reward_expectancy_bt,2022.2.4,Win32,59.77286312,Chrome,1756,1098,,,,,0,774,,,,,,,,,,,,,,,,,W,174,star,1,0,,,,,,,,,,,,,,,,switch,number,numSwt,k,1.2814,noRew,,,,,,0,9,0,9,0,1,,,,,,,,,,,,,,,,,
293299,2022-11-30_09h02.57.532,vts_reward_expectancy_bt,2022.2.4,Win32,59.77286312,Chrome,1756,1098,,,,,0,774,,,,,,,,,,,,,,,,,U,125,star,1,0,,,,,,,,,,,,,,,,repeat,number,numRpt,j,0.7215,noRew,,,,,,0,10,0,10,0,1,,,,,,,,,,,,,,,,,
293299,2022-11-30_09h02.57.532,vts_reward_expectancy_bt,2022.2.4,Win32,59.77286312,Chrome,1756,1098,,,,,0,774,,,,,,,,,,,,,,,,,H,139,triangle,1,0,,,,,,,,,,,,,,,,repeat,number,numRpt,j,0.7039,noRew,,,,,,0,11,0,11,0,1,,,,,,,,,,,,,,,,,
293299,2022-11-30_09h02.57.532,vts_reward_expectancy_bt,2022.2.4,Win32,59.77286312,Chrome,1756,1098,,,,,0,774,,,,,,,,,,,,,,,,,Y,167,triangle,1,0,,,,,,,,,,,,,,,,switch,letter,lettSwt,f,0.6068,noRew,,,,,,0,12,0,12,0,1,,,,,,,,,,,,,,,,,
293299,2022-11-30_09h02.57.532,vts_reward_expectancy_bt,2022.2.4,Win32,59.77286312,Chrome,1756,1098,,,,,0,774,,,,,,,,,,,,,,,,,U,139,circle,1,0,,,,,,,,,,,,,,,,repeat,letter,lettRpt,f,0.7329,noRew,,,,,,0,13,0,13,0,1,,,,,,,,,,,,,,,,,
293299,2022-11-30_09h02.57.532,vts_reward_expectancy_bt,2022.2.4,Win32,59.77286312,Chrome,1756,1098,,,,,0,774,,,,,,,,,,,,,,,,,F,160,star,1,0,,,,,,,,,,,,,,,,switch,number,numSwt,k,1.3984,noRew,,,,,,0,14,0,14,0,1,,,,,,,,,,,,,,,,,
293299,2022-11-30_09h02.57.532,vts_reward_expectancy_bt,2022.2.4,Win32,59.77286312,Chrome,1756,1098,,,,,0,774,,,,,,,,,,,,,,,,,H,181,hexagon,1,0,,,,,,,,,,,,,,,,repeat,number,numRpt,k,1.5606,noRew,,,,,,0,15,0,15,0,1,,,,,,,,,,,,,,,,,
293299,2022-11-30_09h02.57.532,vts_reward_expectancy_bt,2022.2.4,Win32,59.77286312,Chrome,1756,1098,,,,,0,774,,,,,,,,,,,,,,,,,B,181,circle,1,0,,,,,,,,,,,,,,,,repeat,number,numRpt,k,1.1441,noRew,,,,,,0,16,0,16,0,1,,,,,,,,,,,,,,,,,
293299,2022-11-30_09h02.57.532,vts_reward_expectancy_bt,2022.2.4,Win32,59.77286312,Chrome,1756,1098,,,,,0,774,,,,,,,,,,,,,,,,,F,160,hexagon,1,0,,,,,,,,,,,,,,,,repeat,number,numRpt,k,0.4846,noRew,,,,,,0,17,0,17,0,1,,,,,,,,,,,,,,,,,
293299,2022-11-30_09h02.57.532,vts_reward_expectancy_bt,2022.2.4,Win32,59.77286312,Chrome,1756,1098,,,,,0,774,,,,,,,,,,,,,,,,,W,167,hexagon,1,0,,,,,,,,,,,,,,,,switch,letter,lettSwt,f,0.716,noRew,,,,,,0,18,0,18,0,1,,,,,,,,,,,,,,,,,
293299,2022-11-30_09h02.57.532,vts_reward_expectancy_bt,2022.2.4,Win32,59.77286312,Chrome,1756,1098,,,,,0,774,,,,,,,,,,,,,,,,,H,139,circle,1,0,,,,,,,,,,,,,,,,switch,number,numSwt,j,1.5209,noRew,,,,,,0,19,0,19,0,1,,,,,,,,,,,,,,,,,
293299,2022-11-30_09h02.57.532,vts_reward_expectancy_bt,2022.2.4,Win32,59.77286312,Chrome,1756,1098,,,,,0,774,,,,,,,,,,,,,,,,,B,132,star,1,0,,,,,,,,,,,,,,,,switch,letter,lettSwt,d,0.5666,noRew,,,,,,0,20,0,20,0,1,,,,,,,,,,,,,,,,,
293299,2022-11-30_09h02.57.532,vts_reward_expectancy_bt,2022.2.4,Win32,59.77286312,Chrome,1756,1098,,,,,0,774,,,,,,,,,,,,,,,,,D,181,triangle,1,0,,,,,,,,,,,,,,,,switch,number,numSwt,k,1.0767,noRew,,,,,,0,21,0,21,0,1,,,,,,,,,,,,,,,,,
293299,2022-11-30_09h02.57.532,vts_reward_expectancy_bt,2022.2.4,Win32,59.77286312,Chrome,1756,1098,,,,,0,774,,,,,,,,,,,,,,,,,U,160,circle,1,0,,,,,,,,,,,,,,,,switch,letter,lettSwt,f,0.8494,noRew,,,,,,0,22,0,22,0,1,,,,,,,,,,,,,,,,,
293299,2022-11-30_09h02.57.532,vts_reward_expectancy_bt,2022.2.4,Win32,59.77286312,Chrome,1756,1098,,,,,0,774,,,,,,,,,,,,,,,,,S,146,star,1,0,,,,,,,,,,,,,,,,switch,number,numSwt,j,1.0686,noRew,,,,,,0,23,0,23,0,1,,,,,,,,,,,,,,,,,
293299,2022-11-30_09h02.57.532,vts_reward_expectancy_bt,2022.2.4,Win32,59.77286312,Chrome,1756,1098,,,,,0,774,,,,,,,,,,,,,,,,,S,167,triangle,1,0,,,,,,,,,,,,,,,,switch,letter,lettSwt,f,0.7838,noRew,,,,,,0,24,0,24,0,1,,,,,,,,,,,,,,,,,
293299,2022-11-30_09h02.57.532,vts_reward_expectancy_bt,2022.2.4,Win32,59.77286312,Chrome,1756,1098,,,,,0,774,,,,,,,,,,,,,,,,,W,139,circle,1,0,,,,,,,,,,,,,,,,switch,number,numSwt,j,1.4184,noRew,,,,,,0,25,0,25,0,1,,,,,,,,,,,,,,,,,
293299,2022-11-30_09h02.57.532,vts_reward_expectancy_bt,2022.2.4,Win32,59.77286312,Chrome,1756,1098,,,,,0,774,,,,,,,,,,,,,,,,,B,125,star,1,0,,,,,,,,,,,,,,,,switch,letter,lettSwt,d,1.9138,noRew,,,,,,0,26,0,26,0,1,,,,,,,,,,,,,,,,,
293299,2022-11-30_09h02.57.532,vts_reward_expectancy_bt,2022.2.4,Win32,59.77286312,Chrome,1756,1098,,,,,0,774,,,,,,,,,,,,,,,,,Y,174,triangle,1,0,,,,,,,,,,,,,,,,repeat,letter,lettRpt,f,0.9695,noRew,,,,,,0,27,0,27,0,1,,,,,,,,,,,,,,,,,
293299,2022-11-30_09h02.57.532,vts_reward_expectancy_bt,2022.2.4,Win32,59.77286312,Chrome,1756,1098,,,,,0,774,,,,,,,,,,,,,,,,,W,174,triangle,1,0,,,,,,,,,,,,,,,,repeat,letter,lettRpt,f,1.07,noRew,,,,,,0,28,0,28,0,1,,,,,,,,,,,,,,,,,
293299,2022-11-30_09h02.57.532,vts_reward_expectancy_bt,2022.2.4,Win32,59.77286312,Chrome,1756,1098,,,,,0,774,,,,,,,,,,,,,,,,,U,132,star,1,0,,,,,,,,,,,,,,,,switch,number,numSwt,j,1.231,noRew,,,,,,0,29,0,29,0,1,,,,,,,,,,,,,,,,,
293299,2022-11-30_09h02.57.532,vts_reward_expectancy_bt,2022.2.4,Win32,59.77286312,Chrome,1756,1098,,,,,0,774,,,,,,,,,,,,,,,,,F,139,circle,0,0,,,,,,,,,,,,,,,,switch,letter,NA,f,0.9976,noRew,,,,,,0,30,0,30,0,1,,,,,,,,,,,,,,,,,
293299,2022-11-30_09h02.57.532,vts_reward_expectancy_bt,2022.2.4,Win32,59.77286312,Chrome,1756,1098,,,,,0,774,,,,,,,,,,,,,,,,,D,160,triangle,1,1,,,,,,,,,,,,,,,,switch,number,numSwt,k,1.6134,noRew,,,,,,0,31,0,31,0,1,,,,,,,,,,,,,,,,,
293299,2022-11-30_09h02.57.532,vts_reward_expectancy_bt,2022.2.4,Win32,59.77286312,Chrome,1756,1098,,,,,0,774,,,,,,,,,,,,,,,,,Y,160,star,1,0,,,,,,,,,,,,,,,,repeat,number,numRpt,k,1.0653,noRew,,,,,,0,32,0,32,0,1,,,,,,,,,,,,,,,,,
293299,2022-11-30_09h02.57.532,vts_reward_expectancy_bt,2022.2.4,Win32,59.77286312,Chrome,1756,1098,,,,,0,774,,,,,,,,,,,,,,,,,U,174,hexagon,1,0,,,,,,,,,,,,,,,,switch,letter,lettSwt,f,0.8498,noRew,,,,,,0,33,0,33,0,1,,,,,,,,,,,,,,,,,
293299,2022-11-30_09h02.57.532,vts_reward_expectancy_bt,2022.2.4,Win32,59.77286312,Chrome,1756,1098,,,,,0,774,,,,,,,,,,,,,,,,,W,167,star,1,0,,,,,,,,,,,,,,,,switch,number,numSwt,k,1.0039,noRew,,,,,,0,34,0,34,0,1,,,,,,,,,,,,,,,,,
293299,2022-11-30_09h02.57.532,vts_reward_expectancy_bt,2022.2.4,Win32,59.77286312,Chrome,1756,1098,,,,,0,774,,,,,,,,,,,,,,,,,S,139,triangle,1,0,,,,,,,,,,,,,,,,switch,letter,lettSwt,f,1.5971,noRew,,,,,,0,35,0,35,0,1,,,,,,,,,,,,,,,,,
293299,2022-11-30_09h02.57.532,vts_reward_expectancy_bt,2022.2.4,Win32,59.77286312,Chrome,1756,1098,,,,,0,774,,,,,,,,,,,,,,,,,Y,181,star,1,0,,,,,,,,,,,,,,,,repeat,letter,lettRpt,f,1.4803,noRew,,,,,,0,36,0,36,0,1,,,,,,,,,,,,,,,,,
293299,2022-11-30_09h02.57.532,vts_reward_expectancy_bt,2022.2.4,Win32,59.77286312,Chrome,1756,1098,,,,,0,774,,,,,,,,,,,,,,,,,D,132,hexagon,1,0,,,,,,,,,,,,,,,,switch,number,numSwt,j,1.6652,noRew,,,,,,0,37,0,37,0,1,,,,,,,,,,,,,,,,,
293299,2022-11-30_09h02.57.532,vts_reward_expectancy_bt,2022.2.4,Win32,59.77286312,Chrome,1756,1098,,,,,0,774,,,,,,,,,,,,,,,,,W,139,star,1,0,,,,,,,,,,,,,,,,repeat,number,numRpt,j,1.1527,noRew,,,,,,0,38,0,38,0,1,,,,,,,,,,,,,,,,,
293299,2022-11-30_09h02.57.532,vts_reward_expectancy_bt,2022.2.4,Win32,59.77286312,Chrome,1756,1098,,,,,0,774,,,,,,,,,,,,,,,,,S,174,triangle,1,0,,,,,,,,,,,,,,,,repeat,number,numRpt,k,0.8161,noRew,,,,,,0,39,0,39,0,1,,,,,,,,,,,,,,,,,
293299,2022-11-30_09h02.57.532,vts_reward_expectancy_bt,2022.2.4,Win32,59.77286312,Chrome,1756,1098,,,,,0,774,,,,,,,,,,,,,,,,,W,139,triangle,1,0,,,,,,,,,,,,,,,,repeat,number,numRpt,j,0.9153,noRew,,,,,,0,40,0,40,0,1,,,,,,,,,,,,,,,,,
293299,2022-11-30_09h02.57.532,vts_reward_expectancy_bt,2022.2.4,Win32,59.77286312,Chrome,1756,1098,,,,,0,774,,,,,,,,,,,,,,,,,S,132,star,1,0,,,,,,,,,,,,,,,,repeat,number,numRpt,j,1.8309,noRew,,,,,,0,41,0,41,0,1,,,,,,,,,,,,,,,,,
293299,2022-11-30_09h02.57.532,vts_reward_expectancy_bt,2022.2.4,Win32,59.77286312,Chrome,1756,1098,,,,,0,774,,,,,,,,,,,,,,,,,Y,174,triangle,0,0,,,,,,,,,,,,,,,,switch,letter,NA,d,2.4976,noRew,,,,,,0,42,0,42,0,1,,,,,,,,,,,,,,,,,
293299,2022-11-30_09h02.57.532,vts_reward_expectancy_bt,2022.2.4,Win32,59.77286312,Chrome,1756,1098,,,,,0,774,,,,,,,,,,,,,,,,,B,125,star,1,1,,,,,,,,,,,,,,,,repeat,letter,lettRpt,d,1.9584,noRew,,,,,,0,43,0,43,0,1,,,,,,,,,,,,,,,,,
293299,2022-11-30_09h02.57.532,vts_reward_expectancy_bt,2022.2.4,Win32,59.77286312,Chrome,1756,1098,,,,,0,774,,,,,,,,,,,,,,,,,B,139,star,1,0,,,,,,,,,,,,,,,,switch,number,numSwt,j,2.7908,noRew,,,,,,0,44,0,44,0,1,,,,,,,,,,,,,,,,,
293299,2022-11-30_09h02.57.532,vts_reward_expectancy_bt,2022.2.4,Win32,59.77286312,Chrome,1756,1098,,,,,0,774,,,,,,,,,,,,,,,,,S,146,triangle,1,0,,,,,,,,,,,,,,,,switch,letter,lettSwt,f,1.3478,noRew,,,,,,0,45,0,45,0,1,,,,,,,,,,,,,,,,,
293299,2022-11-30_09h02.57.532,vts_reward_expectancy_bt,2022.2.4,Win32,59.77286312,Chrome,1756,1098,,,,,0,774,,,,,,,,,,,,,,,,,Y,160,triangle,1,0,,,,,,,,,,,,,,,,repeat,letter,lettRpt,f,0.6666,noRew,,,,,,0,46,0,46,0,1,,,,,,,,,,,,,,,,,
293299,2022-11-30_09h02.57.532,vts_reward_expectancy_bt,2022.2.4,Win32,59.77286312,Chrome,1756,1098,,,,,0,774,,,,,,,,,,,,,,,,,U,125,star,1,0,,,,,,,,,,,,,,,,switch,number,numSwt,j,1.016,noRew,,,,,,0,47,0,47,0,1,,,,,,,,,,,,,,,,,
293299,2022-11-30_09h02.57.532,vts_reward_expectancy_bt,2022.2.4,Win32,59.77286312,Chrome,1756,1098,,,,,0,774,,,,,,,,,,,,,,,,,U,139,hexagon,1,0,,,,,,,,,,,,,,,,repeat,number,numRpt,j,1.2154,noRew,,,,,,0,48,0,48,0,1,,,,,,,,,,,,,,,,,
293299,2022-11-30_09h02.57.532,vts_reward_expectancy_bt,2022.2.4,Win32,59.77286312,Chrome,1756,1098,,,,,0,774,,,,,,,,,,,,,,,,,Y,146,star,0,0,,,,,,,,,,,,,,,,repeat,number,NA,k,1.0976,noRew,,,,,,0,49,0,49,0,1,,,,,,,,,,,,,,,,,
293299,2022-11-30_09h02.57.532,vts_reward_expectancy_bt,2022.2.4,Win32,59.77286312,Chrome,1756,1098,,,,,0,774,,,,,,,,,,,,,,,,,D,174,hexagon,1,1,,,,,,,,,,,,,,,,switch,letter,lettSwt,d,0.8618,noRew,,,,,,0,50,0,50,0,1,,,,,,,,,,,,,,,,,
293299,2022-11-30_09h02.57.532,vts_reward_expectancy_bt,2022.2.4,Win32,59.77286312,Chrome,1756,1098,,,,,0,774,,,,,,,,,,,,,,,,,W,132,triangle,1,0,,,,,,,,,,,,,,,,repeat,letter,lettRpt,f,0.8225,noRew,,,,,,0,51,0,51,0,1,,,,,,,,,,,,,,,,,
293299,2022-11-30_09h02.57.532,vts_reward_expectancy_bt,2022.2.4,Win32,59.77286312,Chrome,1756,1098,,,,,0,774,,,,,,,,,,,,,,,,,D,139,star,1,0,,,,,,,,,,,,,,,,switch,number,numSwt,j,0.8434,noRew,,,,,,0,52,0,52,0,1,,,,,,,,,,,,,,,,,
293299,2022-11-30_09h02.57.532,vts_reward_expectancy_bt,2022.2.4,Win32,59.77286312,Chrome,1756,1098,,,,,0,774,,,,,,,,,,,,,,,,,H,174,triangle,1,0,,,,,,,,,,,,,,,,repeat,number,numRpt,k,0.6183,noRew,,,,,,0,53,0,53,0,1,,,,,,,,,,,,,,,,,
293299,2022-11-30_09h02.57.532,vts_reward_expectancy_bt,2022.2.4,Win32,59.77286312,Chrome,1756,1098,,,,,0,774,,,,,,,,,,,,,,,,,F,160,circle,0,0,,,,,,,,,,,,,,,,switch,letter,NA,f,1.5803,noRew,,,,,,0,54,0,54,0,1,,,,,,,,,,,,,,,,,
293299,2022-11-30_09h02.57.532,vts_reward_expectancy_bt,2022.2.4,Win32,59.77286312,Chrome,1756,1098,,,,,0,774,,,,,,,,,,,,,,,,,Y,125,star,1,1,,,,,,,,,,,,,,,,repeat,letter,lettRpt,f,0.9562,noRew,,,,,,0,55,0,55,0,1,,,,,,,,,,,,,,,,,
293299,2022-11-30_09h02.57.532,vts_reward_expectancy_bt,2022.2.4,Win32,59.77286312,Chrome,1756,1098,,,,,0,774,,,,,,,,,,,,,,,,,F,167,triangle,1,0,,,,,,,,,,,,,,,,repeat,letter,lettRpt,d,1.2653,noRew,,,,,,0,56,0,56,0,1,,,,,,,,,,,,,,,,,
293299,2022-11-30_09h02.57.532,vts_reward_expectancy_bt,2022.2.4,Win32,59.77286312,Chrome,1756,1098,,,,,0,774,,,,,,,,,,,,,,,,,H,132,hexagon,1,0,,,,,,,,,,,,,,,,repeat,letter,lettRpt,d,1.3479,noRew,,,,,,0,57,0,57,0,1,,,,,,,,,,,,,,,,,
293299,2022-11-30_09h02.57.532,vts_reward_expectancy_bt,2022.2.4,Win32,59.77286312,Chrome,1756,1098,,,,,0,774,,,,,,,,,,,,,,,,,S,139,circle,1,0,,,,,,,,,,,,,,,,repeat,letter,lettRpt,f,0.9145,noRew,,,,,,0,58,0,58,0,1,,,,,,,,,,,,,,,,,
293299,2022-11-30_09h02.57.532,vts_reward_expectancy_bt,2022.2.4,Win32,59.77286312,Chrome,1756,1098,,,,,0,774,,,,,,,,,,,,,,,,,B,181,triangle,1,0,,,,,,,,,,,,,,,,repeat,letter,lettRpt,d,0.6333,noRew,,,,,,0,59,0,59,0,1,,,,,,,,,,,,,,,,,
293299,2022-11-30_09h02.57.532,vts_reward_expectancy_bt,2022.2.4,Win32,59.77286312,Chrome,1756,1098,,,,,0,774,,,,,,,,,,,,,,,,,S,181,triangle,1,0,,,,,,,,,,,,,,,,repeat,letter,lettRpt,f,0.9155,noRew,,,,,,0,60,0,60,0,1,,,,,,,,,,,,,,,,,
293299,2022-11-30_09h02.57.532,vts_reward_expectancy_bt,2022.2.4,Win32,59.77286312,Chrome,1756,1098,,,,,0,774,,,,,,,,,,,,,,,,,Y,125,circle,0,0,,,,,,,,,,,,,,,,repeat,letter,NA,d,0.7157,noRew,,,,,,0,61,0,61,0,1,,,,,,,,,,,,,,,,,
293299,2022-11-30_09h02.57.532,vts_reward_expectancy_bt,2022.2.4,Win32,59.77286312,Chrome,1756,1098,,,,,0,774,,,,,,,,,,,,,,,,,U,160,triangle,1,1,,,,,,,,,,,,,,,,switch,number,numSwt,k,1.0051,noRew,,,,,,0,62,0,62,0,1,,,,,,,,,,,,,,,,,
293299,2022-11-30_09h02.57.532,vts_reward_expectancy_bt,2022.2.4,Win32,59.77286312,Chrome,1756,1098,,,,,0,774,,,,,,,,,,,,,,,,,W,139,star,1,0,,,,,,,,,,,,,,,,repeat,number,numRpt,j,0.697,noRew,,,,,,0,63,0,63,0,1,,,,,,,,,,,,,,,,,
293299,2022-11-30_09h02.57.532,vts_reward_expectancy_bt,2022.2.4,Win32,59.77286312,Chrome,1756,1098,,,,,,,,,,,,,,,,,,,,,,,,,,,,,,,,,,,,,,,,,,,,,,,,,,,,,,,,,,,,,,,,,,,,,,,,,,,,
293299,2022-11-30_09h02.57.532,vts_reward_expectancy_bt,2022.2.4,Win32,59.77286312,Chrome,1756,1098,,,,,0,774,,,,,,,,,,,,,,,,,S,167,hexagon,0,0,,,,,,,,,,,,,,,,switch,letter,NA,d,0.832,noRew,,,,,,0,,,,,,space,7.1232,high,0,0,0,0,1,,,,,,,,,
293299,2022-11-30_09h02.57.532,vts_reward_expectancy_bt,2022.2.4,Win32,59.77286312,Chrome,1756,1098,,,,,1,775,,,,,,,,,,,,,,,,,D,174,star,1,1,,,,,,,,,,,,,,,,repeat,letter,lettRpt,d,0.639,Lo,,,,,,0,,,,,,,,high,1,0,1,0,1,,,,,,,,,
293299,2022-11-30_09h02.57.532,vts_reward_expectancy_bt,2022.2.4,Win32,59.77286312,Chrome,1756,1098,,,,,1,776,,,,,,,,,,,,,,,,,F,181,triangle,1,0,,,,,,,,,,,,,,,,switch,number,numSwt,k,0.6679,Hi,,,,,,0,,,,,,,,high,2,0,2,0,1,,,,,,,,,
293299,2022-11-30_09h02.57.532,vts_reward_expectancy_bt,2022.2.4,Win32,59.77286312,Chrome,1756,1098,,,,,0,776,,,,,,,,,,,,,,,,,Y,132,circle,1,0,,,,,,,,,,,,,,,,repeat,number,numRpt,j,0.9987,Hi,,,,,,0,,,,,,,,high,3,0,3,0,1,,,,,,,,,
293299,2022-11-30_09h02.57.532,vts_reward_expectancy_bt,2022.2.4,Win32,59.77286312,Chrome,1756,1098,,,,,1,777,,,,,,,,,,,,,,,,,U,139,hexagon,1,0,,,,,,,,,,,,,,,,switch,letter,lettSwt,f,0.0426,Lo,,,,,,0,,,,,,,,high,4,0,4,0,1,,,,,,,,,
293299,2022-11-30_09h02.57.532,vts_reward_expectancy_bt,2022.2.4,Win32,59.77286312,Chrome,1756,1098,,,,,1,778,,,,,,,,,,,,,,,,,B,125,star,1,0,,,,,,,,,,,,,,,,switch,number,numSwt,j,0.062,Lo,,,,,,0,,,,,,,,high,5,0,5,0,1,,,,,,,,,
293299,2022-11-30_09h02.57.532,vts_reward_expectancy_bt,2022.2.4,Win32,59.77286312,Chrome,1756,1098,,,,,10,788,,,,,,,,,,,,,,,,,H,160,triangle,1,0,,,,,,,,,,,,,,,,switch,letter,lettSwt,d,0.3317,Hi,,,,,,0,,,,,,,,high,6,0,6,0,1,,,,,,,,,
293299,2022-11-30_09h02.57.532,vts_reward_expectancy_bt,2022.2.4,Win32,59.77286312,Chrome,1756,1098,,,,,10,798,,,,,,,,,,,,,,,,,W,146,circle,1,0,,,,,,,,,,,,,,,,repeat,letter,lettRpt,f,0.2926,Hi,,,,,,0,,,,,,,,high,7,0,7,0,1,,,,,,,,,
293299,2022-11-30_09h02.57.532,vts_reward_expectancy_bt,2022.2.4,Win32,59.77286312,Chrome,1756,1098,,,,,1,799,,,,,,,,,,,,,,,,,S,167,circle,1,0,,,,,,,,,,,,,,,,repeat,letter,lettRpt,f,0.2188,Hi,,,,,,0,,,,,,,,high,8,0,8,0,1,,,,,,,,,
293299,2022-11-30_09h02.57.532,vts_reward_expectancy_bt,2022.2.4,Win32,59.77286312,Chrome,1756,1098,,,,,1,800,,,,,,,,,,,,,,,,,D,174,star,1,0,,,,,,,,,,,,,,,,repeat,letter,lettRpt,d,0.5942,Lo,,,,,,0,,,,,,,,high,9,0,9,0,1,,,,,,,,,
293299,2022-11-30_09h02.57.532,vts_reward_expectancy_bt,2022.2.4,Win32,59.77286312,Chrome,1756,1098,,,,,0,800,,,,,,,,,,,,,,,,,F,181,hexagon,0,0,,,,,,,,,,,,,,,,switch,number,NA,j,0.2484,Lo,,,,,,0,,,,,,,,high,10,0,10,0,1,,,,,,,,,
293299,2022-11-30_09h02.57.532,vts_reward_expectancy_bt,2022.2.4,Win32,59.77286312,Chrome,1756,1098,,,,,10,810,,,,,,,,,,,,,,,,,Y,132,triangle,1,1,,,,,,,,,,,,,,,,switch,letter,lettSwt,f,0.0007,Hi,,,,,,0,,,,,,,,high,11,0,11,0,1,,,,,,,,,
293299,2022-11-30_09h02.57.532,vts_reward_expectancy_bt,2022.2.4,Win32,59.77286312,Chrome,1756,1098,,,,,0,810,,,,,,,,,,,,,,,,,U,139,hexagon,0,0,,,,,,,,,,,,,,,,switch,number,NA,k,0.2101,Hi,,,,,,0,,,,,,,,high,12,0,12,0,1,,,,,,,,,
293299,2022-11-30_09h02.57.532,vts_reward_expectancy_bt,2022.2.4,Win32,59.77286312,Chrome,1756,1098,,,,,0,810,,,,,,,,,,,,,,,,,B,125,triangle,0,1,,,,,,,,,,,,,,,,switch,letter,NA,f,0.3753,Hi,,,,,,0,,,,,,,,high,13,0,13,0,1,,,,,,,,,
293299,2022-11-30_09h02.57.532,vts_reward_expectancy_bt,2022.2.4,Win32,59.77286312,Chrome,1756,1098,,,,,0,810,,,,,,,,,,,,,,,,,H,160,circle,0,1,,,,,,,,,,,,,,,,switch,number,NA,j,0.3104,Hi,,,,,,0,,,,,,,,high,14,0,14,0,1,,,,,,,,,
293299,2022-11-30_09h02.57.532,vts_reward_expectancy_bt,2022.2.4,Win32,59.77286312,Chrome,1756,1098,,,,,1,811,,,,,,,,,,,,,,,,,W,146,star,1,1,,,,,,,,,,,,,,,,repeat,number,numRpt,j,0.3776,Lo,,,,,,0,,,,,,,,high,15,0,15,0,1,,,,,,,,,
293299,2022-11-30_09h02.57.532,vts_reward_expectancy_bt,2022.2.4,Win32,59.77286312,Chrome,1756,1098,,,,,0,811,,,,,,,,,,,,,,,,,D,125,hexagon,0,0,,,,,,,,,,,,,,,,repeat,number,NA,k,0.2277,Lo,,,,,,0,,,,,,,,high,16,0,16,0,1,,,,,,,,,
293299,2022-11-30_09h02.57.532,vts_reward_expectancy_bt,2022.2.4,Win32,59.77286312,Chrome,1756,1098,,,,,0,811,,,,,,,,,,,,,,,,,B,132,triangle,0,1,,,,,,,,,,,,,,,,repeat,number,NA,k,0.6272,Lo,,,,,,0,,,,,,,,high,17,0,17,0,1,,,,,,,,,
293299,2022-11-30_09h02.57.532,vts_reward_expectancy_bt,2022.2.4,Win32,59.77286312,Chrome,1756,1098,,,,,0,811,,,,,,,,,,,,,,,,,F,174,circle,0,1,,,,,,,,,,,,,,,,switch,letter,NA,f,0.7129,Lo,,,,,,0,,,,,,,,high,18,0,18,0,1,,,,,,,,,
293299,2022-11-30_09h02.57.532,vts_reward_expectancy_bt,2022.2.4,Win32,59.77286312,Chrome,1756,1098,,,,,1,812,,,,,,,,,,,,,,,,,H,146,star,1,1,,,,,,,,,,,,,,,,repeat,letter,lettRpt,d,0.5273,Lo,,,,,,0,,,,,,,,high,19,0,19,0,1,,,,,,,,,
293299,2022-11-30_09h02.57.532,vts_reward_expectancy_bt,2022.2.4,Win32,59.77286312,Chrome,1756,1098,,,,,0,812,,,,,,,,,,,,,,,,,U,181,star,0,0,,,,,,,,,,,,,,,,switch,number,NA,j,0.3309,Lo,,,,,,0,,,,,,,,high,20,0,20,0,1,,,,,,,,,
293299,2022-11-30_09h02.57.532,vts_reward_expectancy_bt,2022.2.4,Win32,59.77286312,Chrome,1756,1098,,,,,1,813,,,,,,,,,,,,,,,,,W,139,circle,1,1,,,,,,,,,,,,,,,,switch,letter,lettSwt,f,0.6438,Hi,,,,,,0,,,,,,,,high,21,0,21,0,1,,,,,,,,,
293299,2022-11-30_09h02.57.532,vts_reward_expectancy_bt,2022.2.4,Win32,59.77286312,Chrome,1756,1098,,,,,10,823,,,,,,,,,,,,,,,,,S,167,triangle,1,0,,,,,,,,,,,,,,,,switch,number,numSwt,k,0.4454,Hi,,,,,,0,,,,,,,,high,22,0,22,0,1,,,,,,,,,
293299,2022-11-30_09h02.57.532,vts_reward_expectancy_bt,2022.2.4,Win32,59.77286312,Chrome,1756,1098,,,,,1,824,,,,,,,,,,,,,,,,,Y,160,hexagon,1,0,,,,,,,,,,,,,,,,switch,letter,lettSwt,f,0.7788,Lo,,,,,,0,,,,,,,,high,23,0,23,0,1,,,,,,,,,
293299,2022-11-30_09h02.57.532,vts_reward_expectancy_bt,2022.2.4,Win32,59.77286312,Chrome,1756,1098,,,,,10,834,,,,,,,,,,,,,,,,,Y,181,star,1,0,,,,,,,,,,,,,,,,switch,number,numSwt,k,0.4265,Lo,,,,,,0,,,,,,,,high,24,0,24,0,1,,,,,,,,,
293299,2022-11-30_09h02.57.532,vts_reward_expectancy_bt,2022.2.4,Win32,59.77286312,Chrome,1756,1098,,,,,1,835,,,,,,,,,,,,,,,,,U,132,hexagon,1,0,,,,,,,,,,,,,,,,repeat,number,numRpt,j,0.5918,Lo,,,,,,0,,,,,,,,high,25,0,25,0,1,,,,,,,,,
293299,2022-11-30_09h02.57.532,vts_reward_expectancy_bt,2022.2.4,Win32,59.77286312,Chrome,1756,1098,,,,,1,836,,,,,,,,,,,,,,,,,S,167,triangle,1,0,,,,,,,,,,,,,,,,switch,letter,lettSwt,f,0.5519,Hi,,,,,,0,,,,,,,,high,26,0,26,0,1,,,,,,,,,
293299,2022-11-30_09h02.57.532,vts_reward_expectancy_bt,2022.2.4,Win32,59.77286312,Chrome,1756,1098,,,,,10,846,,,,,,,,,,,,,,,,,B,125,circle,1,0,,,,,,,,,,,,,,,,switch,number,numSwt,j,0.51,Hi,,,,,,0,,,,,,,,high,27,0,27,0,1,,,,,,,,,
293299,2022-11-30_09h02.57.532,vts_reward_expectancy_bt,2022.2.4,Win32,59.77286312,Chrome,1756,1098,,,,,10,856,,,,,,,,,,,,,,,,,F,160,triangle,1,0,,,,,,,,,,,,,,,,repeat,number,numRpt,k,0.5485,Hi,,,,,,0,,,,,,,,high,28,0,28,0,1,,,,,,,,,
293299,2022-11-30_09h02.57.532,vts_reward_expectancy_bt,2022.2.4,Win32,59.77286312,Chrome,1756,1098,,,,,1,857,,,,,,,,,,,,,,,,,D,139,hexagon,1,0,,,,,,,,,,,,,,,,repeat,number,numRpt,j,0.6165,Lo,,,,,,0,,,,,,,,high,29,0,29,0,1,,,,,,,,,
293299,2022-11-30_09h02.57.532,vts_reward_expectancy_bt,2022.2.4,Win32,59.77286312,Chrome,1756,1098,,,,,1,858,,,,,,,,,,,,,,,,,W,174,star,1,0,,,,,,,,,,,,,,,,repeat,number,numRpt,k,0.4422,Lo,,,,,,0,,,,,,,,high,30,0,30,0,1,,,,,,,,,
293299,2022-11-30_09h02.57.532,vts_reward_expectancy_bt,2022.2.4,Win32,59.77286312,Chrome,1756,1098,,,,,0,858,,,,,,,,,,,,,,,,,H,146,circle,1,0,,,,,,,,,,,,,,,,repeat,number,numRpt,j,0.7329,Hi,,,,,,0,,,,,,,,high,31,0,31,0,1,,,,,,,,,
293299,2022-11-30_09h02.57.532,vts_reward_expectancy_bt,2022.2.4,Win32,59.77286312,Chrome,1756,1098,,,,,0,858,,,,,,,,,,,,,,,,,S,174,circle,1,0,,,,,,,,,,,,,,,,repeat,number,numRpt,k,0.7174,Hi,,,,,,1,,,,,,space,1.2214,high,0,0,0,0,1,,,,,,,,,
293299,2022-11-30_09h02.57.532,vts_reward_expectancy_bt,2022.2.4,Win32,59.77286312,Chrome,1756,1098,,,,,1,859,,,,,,,,,,,,,,,,,D,139,star,1,0,,,,,,,,,,,,,,,,repeat,number,numRpt,j,0.2792,Lo,,,,,,1,,,,,,,,high,1,0,1,0,1,,,,,,,,,
293299,2022-11-30_09h02.57.532,vts_reward_expectancy_bt,2022.2.4,Win32,59.77286312,Chrome,1756,1098,,,,,10,869,,,,,,,,,,,,,,,,,W,181,hexagon,1,0,,,,,,,,,,,,,,,,repeat,number,numRpt,k,0.3946,Lo,,,,,,1,,,,,,,,high,2,0,2,0,1,,,,,,,,,
293299,2022-11-30_09h02.57.532,vts_reward_expectancy_bt,2022.2.4,Win32,59.77286312,Chrome,1756,1098,,,,,0,869,,,,,,,,,,,,,,,,,F,146,triangle,1,0,,,,,,,,,,,,,,,,switch,letter,lettSwt,d,0.415,Hi,,,,,,1,,,,,,,,high,3,0,3,0,1,,,,,,,,,
293299,2022-11-30_09h02.57.532,vts_reward_expectancy_bt,2022.2.4,Win32,59.77286312,Chrome,1756,1098,,,,,10,879,,,,,,,,,,,,,,,,,H,132,circle,1,0,,,,,,,,,,,,,,,,switch,number,numSwt,j,0.3595,Hi,,,,,,1,,,,,,,,high,4,0,4,0,1,,,,,,,,,
293299,2022-11-30_09h02.57.532,vts_reward_expectancy_bt,2022.2.4,Win32,59.77286312,Chrome,1756,1098,,,,,1,880,,,,,,,,,,,,,,,,,Y,160,star,1,0,,,,,,,,,,,,,,,,repeat,number,numRpt,k,0.4648,Lo,,,,,,1,,,,,,,,high,5,0,5,0,1,,,,,,,,,
293299,2022-11-30_09h02.57.532,vts_reward_expectancy_bt,2022.2.4,Win32,59.77286312,Chrome,1756,1098,,,,,1,881,,,,,,,,,,,,,,,,,U,167,hexagon,1,0,,,,,,,,,,,,,,,,repeat,number,numRpt,k,0.4993,Lo,,,,,,1,,,,,,,,high,6,0,6,0,1,,,,,,,,,
293299,2022-11-30_09h02.57.532,vts_reward_expectancy_bt,2022.2.4,Win32,59.77286312,Chrome,1756,1098,,,,,0,881,,,,,,,,,,,,,,,,,B,125,triangle,1,0,,,,,,,,,,,,,,,,repeat,number,numRpt,j,0.6396,Hi,,,,,,1,,,,,,,,high,7,0,7,0,1,,,,,,,,,
293299,2022-11-30_09h02.57.532,vts_reward_expectancy_bt,2022.2.4,Win32,59.77286312,Chrome,1756,1098,,,,,10,891,,,,,,,,,,,,,,,,,S,174,circle,1,0,,,,,,,,,,,,,,,,repeat,number,numRpt,k,0.3394,Hi,,,,,,1,,,,,,,,high,8,0,8,0,1,,,,,,,,,
293299,2022-11-30_09h02.57.532,vts_reward_expectancy_bt,2022.2.4,Win32,59.77286312,Chrome,1756,1098,,,,,0,891,,,,,,,,,,,,,,,,,D,139,hexagon,0,0,,,,,,,,,,,,,,,,switch,letter,NA,f,0.3837,Hi,,,,,,1,,,,,,,,high,9,0,9,0,1,,,,,,,,,
293299,2022-11-30_09h02.57.532,vts_reward_expectancy_bt,2022.2.4,Win32,59.77286312,Chrome,1756,1098,,,,,0,891,,,,,,,,,,,,,,,,,W,181,triangle,1,1,,,,,,,,,,,,,,,,switch,number,numSwt,k,0.5021,Hi,,,,,,1,,,,,,,,high,10,0,10,0,1,,,,,,,,,
293299,2022-11-30_09h02.57.532,vts_reward_expectancy_bt,2022.2.4,Win32,59.77286312,Chrome,1756,1098,,,,,10,901,,,,,,,,,,,,,,,,,F,146,star,1,0,,,,,,,,,,,,,,,,switch,letter,lettSwt,d,0.3798,Lo,,,,,,1,,,,,,,,high,11,0,11,0,1,,,,,,,,,
293299,2022-11-30_09h02.57.532,vts_reward_expectancy_bt,2022.2.4,Win32,59.77286312,Chrome,1756,1098,,,,,1,902,,,,,,,,,,,,,,,,,H,132,star,1,0,,,,,,,,,,,,,,,,repeat,letter,lettRpt,d,0.3307,Lo,,,,,,1,,,,,,,,high,12,0,12,0,1,,,,,,,,,
293299,2022-11-30_09h02.57.532,vts_reward_expectancy_bt,2022.2.4,Win32,59.77286312,Chrome,1756,1098,,,,,10,912,,,,,,,,,,,,,,,,,Y,160,circle,1,0,,,,,,,,,,,,,,,,switch,number,numSwt,k,0.3793,Hi,,,,,,1,,,,,,,,high,13,0,13,0,1,,,,,,,,,
293299,2022-11-30_09h02.57.532,vts_reward_expectancy_bt,2022.2.4,Win32,59.77286312,Chrome,1756,1098,,,,,10,922,,,,,,,,,,,,,,,,,U,167,triangle,1,0,,,,,,,,,,,,,,,,repeat,number,numRpt,k,0.3982,Hi,,,,,,1,,,,,,,,high,14,0,14,0,1,,,,,,,,,
293299,2022-11-30_09h02.57.532,vts_reward_expectancy_bt,2022.2.4,Win32,59.77286312,Chrome,1756,1098,,,,,1,923,,,,,,,,,,,,,,,,,B,125,hexagon,1,0,,,,,,,,,,,,,,,,repeat,number,numRpt,j,0.3958,Lo,,,,,,1,,,,,,,,high,15,0,15,0,1,,,,,,,,,
293299,2022-11-30_09h02.57.532,vts_reward_expectancy_bt,2022.2.4,Win32,59.77286312,Chrome,1756,1098,,,,,1,924,,,,,,,,,,,,,,,,,F,174,hexagon,1,0,,,,,,,,,,,,,,,,switch,letter,lettSwt,d,0.3624,Lo,,,,,,1,,,,,,,,high,16,0,16,0,1,,,,,,,,,
293299,2022-11-30_09h02.57.532,vts_reward_expectancy_bt,2022.2.4,Win32,59.77286312,Chrome,1756,1098,,,,,1,925,,,,,,,,,,,,,,,,,D,139,triangle,1,0,,,,,,,,,,,,,,,,switch,number,numSwt,j,0.4298,Hi,,,,,,1,,,,,,,,high,17,0,17,0,1,,,,,,,,,
293299,2022-11-30_09h02.57.532,vts_reward_expectancy_bt,2022.2.4,Win32,59.77286312,Chrome,1756,1098,,,,,0,925,,,,,,,,,,,,,,,,,U,160,star,0,0,,,,,,,,,,,,,,,,switch,letter,NA,d,0.3352,Hi,,,,,,1,,,,,,,,high,18,0,18,0,1,,,,,,,,,
293299,2022-11-30_09h02.57.532,vts_reward_expectancy_bt,2022.2.4,Win32,59.77286312,Chrome,1756,1098,,,,,0,925,,,,,,,,,,,,,,,,,W,132,circle,0,1,,,,,,,,,,,,,,,,repeat,letter,NA,d,0.4651,Hi,,,,,,1,,,,,,,,high,19,0,19,0,1,,,,,,,,,
293299,2022-11-30_09h02.57.532,vts_reward_expectancy_bt,2022.2.4,Win32,59.77286312,Chrome,1756,1098,,,,,0,925,,,,,,,,,,,,,,,,,S,125,triangle,0,1,,,,,,,,,,,,,,,,switch,number,NA,k,0.7996,Hi,,,,,,1,,,,,,,,high,20,0,20,0,1,,,,,,,,,
293299,2022-11-30_09h02.57.532,vts_reward_expectancy_bt,2022.2.4,Win32,59.77286312,Chrome,1756,1098,,,,,0,925,,,,,,,,,,,,,,,,,Y,146,circle,1,1,,,,,,,,,,,,,,,,switch,letter,lettSwt,f,0.5937,Hi,,,,,,1,,,,,,,,high,21,0,21,0,1,,,,,,,,,
293299,2022-11-30_09h02.57.532,vts_reward_expectancy_bt,2022.2.4,Win32,59.77286312,Chrome,1756,1098,,,,,0,925,,,,,,,,,,,,,,,,,H,181,star,0,0,,,,,,,,,,,,,,,,switch,number,NA,j,0.3437,Hi,,,,,,1,,,,,,,,high,22,0,22,0,1,,,,,,,,,
293299,2022-11-30_09h02.57.532,vts_reward_expectancy_bt,2022.2.4,Win32,59.77286312,Chrome,1756,1098,,,,,0,925,,,,,,,,,,,,,,,,,B,167,hexagon,0,1,,,,,,,,,,,,,,,,switch,letter,NA,f,0.3966,Hi,,,,,,1,,,,,,,,high,23,0,23,0,1,,,,,,,,,
293299,2022-11-30_09h02.57.532,vts_reward_expectancy_bt,2022.2.4,Win32,59.77286312,Chrome,1756,1098,,,,,1,926,,,,,,,,,,,,,,,,,B,174,hexagon,1,1,,,,,,,,,,,,,,,,repeat,letter,lettRpt,d,0.3492,Lo,,,,,,1,,,,,,,,high,24,0,24,0,1,,,,,,,,,
293299,2022-11-30_09h02.57.532,vts_reward_expectancy_bt,2022.2.4,Win32,59.77286312,Chrome,1756,1098,,,,,10,936,,,,,,,,,,,,,,,,,W,132,triangle,1,0,,,,,,,,,,,,,,,,switch,number,numSwt,j,0.4148,Hi,,,,,,1,,,,,,,,high,25,0,25,0,1,,,,,,,,,
293299,2022-11-30_09h02.57.532,vts_reward_expectancy_bt,2022.2.4,Win32,59.77286312,Chrome,1756,1098,,,,,1,937,,,,,,,,,,,,,,,,,F,181,star,1,0,,,,,,,,,,,,,,,,switch,letter,lettSwt,d,0.681,Lo,,,,,,1,,,,,,,,high,26,0,26,0,1,,,,,,,,,
293299,2022-11-30_09h02.57.532,vts_reward_expectancy_bt,2022.2.4,Win32,59.77286312,Chrome,1756,1098,,,,,0,937,,,,,,,,,,,,,,,,,U,160,circle,1,0,,,,,,,,,,,,,,,,repeat,letter,lettRpt,f,0.5856,Hi,,,,,,1,,,,,,,,high,27,0,27,0,1,,,,,,,,,
293299,2022-11-30_09h02.57.532,vts_reward_expectancy_bt,2022.2.4,Win32,59.77286312,Chrome,1756,1098,,,,,1,938,,,,,,,,,,,,,,,,,S,167,hexagon,1,0,,,,,,,,,,,,,,,,switch,number,numSwt,k,0.5988,Lo,,,,,,1,,,,,,,,high,28,0,28,0,1,,,,,,,,,
293299,2022-11-30_09h02.57.532,vts_reward_expectancy_bt,2022.2.4,Win32,59.77286312,Chrome,1756,1098,,,,,1,939,,,,,,,,,,,,,,,,,H,139,star,1,0,,,,,,,,,,,,,,,,switch,letter,lettSwt,d,0.5482,Lo,,,,,,1,,,,,,,,high,29,0,29,0,1,,,,,,,,,
293299,2022-11-30_09h02.57.532,vts_reward_expectancy_bt,2022.2.4,Win32,59.77286312,Chrome,1756,1098,,,,,0,939,,,,,,,,,,,,,,,,,D,125,triangle,1,0,,,,,,,,,,,,,,,,switch,number,numSwt,j,0.5327,Hi,,,,,,1,,,,,,,,high,30,0,30,0,1,,,,,,,,,
293299,2022-11-30_09h02.57.532,vts_reward_expectancy_bt,2022.2.4,Win32,59.77286312,Chrome,1756,1098,,,,,10,949,,,,,,,,,,,,,,,,,Y,146,circle,1,0,,,,,,,,,,,,,,,,repeat,number,numRpt,j,0.5134,Hi,,,,,,1,,,,,,,,high,31,0,31,0,1,,,,,,,,,
293299,2022-11-30_09h02.57.532,vts_reward_expectancy_bt,2022.2.4,Win32,59.77286312,Chrome,1756,1098,,,,,0,949,,,,,,,,,,,,,,,,,H,160,circle,0,0,,,,,,,,,,,,,,,,switch,letter,NA,f,0.4503,Hi,,,,,,2,,,,,,space,2.8433,high,0,0,0,0,1,,,,,,,,,
293299,2022-11-30_09h02.57.532,vts_reward_expectancy_bt,2022.2.4,Win32,59.77286312,Chrome,1756,1098,,,,,0,949,,,,,,,,,,,,,,,,,W,139,star,0,1,,,,,,,,,,,,,,,,switch,number,NA,k,0.2512,Hi,,,,,,2,,,,,,,,high,1,0,1,0,1,,,,,,,,,
293299,2022-11-30_09h02.57.532,vts_reward_expectancy_bt,2022.2.4,Win32,59.77286312,Chrome,1756,1098,,,,,0,949,,,,,,,,,,,,,,,,,F,132,triangle,1,1,,,,,,,,,,,,,,,,switch,letter,lettSwt,d,0.4149,Hi,,,,,,2,,,,,,,,high,2,0,2,0,1,,,,,,,,,
293299,2022-11-30_09h02.57.532,vts_reward_expectancy_bt,2022.2.4,Win32,59.77286312,Chrome,1756,1098,,,,,0,949,,,,,,,,,,,,,,,,,D,167,hexagon,0,0,,,,,,,,,,,,,,,,switch,number,NA,j,0.2791,Hi,,,,,,2,,,,,,,,high,3,0,3,0,1,,,,,,,,,
293299,2022-11-30_09h02.57.532,vts_reward_expectancy_bt,2022.2.4,Win32,59.77286312,Chrome,1756,1098,,,,,1,950,,,,,,,,,,,,,,,,,B,181,circle,1,1,,,,,,,,,,,,,,,,switch,letter,lettSwt,d,0.3817,Hi,,,,,,2,,,,,,,,high,4,0,4,0,1,,,,,,,,,
293299,2022-11-30_09h02.57.532,vts_reward_expectancy_bt,2022.2.4,Win32,59.77286312,Chrome,1756,1098,,,,,0,950,,,,,,,,,,,,,,,,,S,174,star,0,0,,,,,,,,,,,,,,,,switch,number,NA,j,0.0799,Hi,,,,,,2,,,,,,,,high,5,0,5,0,1,,,,,,,,,
293299,2022-11-30_09h02.57.532,vts_reward_expectancy_bt,2022.2.4,Win32,59.77286312,Chrome,1756,1098,,,,,0,950,,,,,,,,,,,,,,,,,Y,146,triangle,0,1,,,,,,,,,,,,,,,,switch,letter,NA,d,0.6786,Hi,,,,,,2,,,,,,,,high,6,0,6,0,1,,,,,,,,,
293299,2022-11-30_09h02.57.532,vts_reward_expectancy_bt,2022.2.4,Win32,59.77286312,Chrome,1756,1098,,,,,1,951,,,,,,,,,,,,,,,,,U,125,hexagon,1,1,,,,,,,,,,,,,,,,switch,number,numSwt,j,0.5632,Lo,,,,,,2,,,,,,,,high,7,0,7,0,1,,,,,,,,,
293299,2022-11-30_09h02.57.532,vts_reward_expectancy_bt,2022.2.4,Win32,59.77286312,Chrome,1756,1098,,,,,0,951,,,,,,,,,,,,,,,,,H,160,triangle,0,0,,,,,,,,,,,,,,,,repeat,number,NA,j,0.4134,Lo,,,,,,2,,,,,,,,high,8,0,8,0,1,,,,,,,,,
293299,2022-11-30_09h02.57.532,vts_reward_expectancy_bt,2022.2.4,Win32,59.77286312,Chrome,1756,1098,,,,,1,952,,,,,,,,,,,,,,,,,W,139,star,1,1,,,,,,,,,,,,,,,,repeat,number,numRpt,j,0.3691,Lo,,,,,,2,,,,,,,,high,9,0,9,0,1,,,,,,,,,
293299,2022-11-30_09h02.57.532,vts_reward_expectancy_bt,2022.2.4,Win32,59.77286312,Chrome,1756,1098,,,,,0,952,,,,,,,,,,,,,,,,,F,132,circle,1,0,,,,,,,,,,,,,,,,repeat,number,numRpt,j,0.4128,Hi,,,,,,2,,,,,,,,high,10,0,10,0,1,,,,,,,,,
293299,2022-11-30_09h02.57.532,vts_reward_expectancy_bt,2022.2.4,Win32,59.77286312,Chrome,1756,1098,,,,,1,953,,,,,,,,,,,,,,,,,D,167,hexagon,1,0,,,,,,,,,,,,,,,,repeat,number,numRpt,k,0.4006,Lo,,,,,,2,,,,,,,,high,11,0,11,0,1,,,,,,,,,
293299,2022-11-30_09h02.57.532,vts_reward_expectancy_bt,2022.2.4,Win32,59.77286312,Chrome,1756,1098,,,,,0,953,,,,,,,,,,,,,,,,,B,181,circle,0,0,,,,,,,,,,,,,,,,repeat,number,NA,j,0.3295,Lo,,,,,,2,,,,,,,,high,12,0,12,0,1,,,,,,,,,
293299,2022-11-30_09h02.57.532,vts_reward_expectancy_bt,2022.2.4,Win32,59.77286312,Chrome,1756,1098,,,,,0,953,,,,,,,,,,,,,,,,,S,174,triangle,0,1,,,,,,,,,,,,,,,,repeat,number,NA,j,0.3586,Lo,,,,,,2,,,,,,,,high,13,0,13,0,1,,,,,,,,,
293299,2022-11-30_09h02.57.532,vts_reward_expectancy_bt,2022.2.4,Win32,59.77286312,Chrome,1756,1098,,,,,0,953,,,,,,,,,,,,,,,,,Y,146,star,0,1,,,,,,,,,,,,,,,,repeat,number,NA,k,0.4036,Lo,,,,,,2,,,,,,,,high,14,0,14,0,1,,,,,,,,,
293299,2022-11-30_09h02.57.532,vts_reward_expectancy_bt,2022.2.4,Win32,59.77286312,Chrome,1756,1098,,,,,0,953,,,,,,,,,,,,,,,,,U,125,hexagon,0,1,,,,,,,,,,,,,,,,repeat,number,NA,k,0.2919,Lo,,,,,,2,,,,,,,,high,15,0,15,0,1,,,,,,,,,
293299,2022-11-30_09h02.57.532,vts_reward_expectancy_bt,2022.2.4,Win32,59.77286312,Chrome,1756,1098,,,,,1,954,,,,,,,,,,,,,,,,,U,174,hexagon,1,1,,,,,,,,,,,,,,,,repeat,number,numRpt,k,0.5492,Lo,,,,,,2,,,,,,,,high,16,0,16,0,1,,,,,,,,,
293299,2022-11-30_09h02.57.532,vts_reward_expectancy_bt,2022.2.4,Win32,59.77286312,Chrome,1756,1098,,,,,0,954,,,,,,,,,,,,,,,,,W,132,circle,1,0,,,,,,,,,,,,,,,,repeat,number,numRpt,j,0.401,Hi,,,,,,2,,,,,,,,high,17,0,17,0,1,,,,,,,,,
293299,2022-11-30_09h02.57.532,vts_reward_expectancy_bt,2022.2.4,Win32,59.77286312,Chrome,1756,1098,,,,,1,955,,,,,,,,,,,,,,,,,S,125,star,1,0,,,,,,,,,,,,,,,,repeat,number,numRpt,j,0.4291,Lo,,,,,,2,,,,,,,,high,18,0,18,0,1,,,,,,,,,
293299,2022-11-30_09h02.57.532,vts_reward_expectancy_bt,2022.2.4,Win32,59.77286312,Chrome,1756,1098,,,,,0,955,,,,,,,,,,,,,,,,,B,139,triangle,1,0,,,,,,,,,,,,,,,,switch,letter,lettSwt,d,0.4918,Hi,,,,,,2,,,,,,,,high,19,0,19,0,1,,,,,,,,,
293299,2022-11-30_09h02.57.532,vts_reward_expectancy_bt,2022.2.4,Win32,59.77286312,Chrome,1756,1098,,,,,1,956,,,,,,,,,,,,,,,,,F,181,star,1,0,,,,,,,,,,,,,,,,repeat,letter,lettRpt,d,0.9175,Lo,,,,,,2,,,,,,,,high,20,0,20,0,1,,,,,,,,,
293299,2022-11-30_09h02.57.532,vts_reward_expectancy_bt,2022.2.4,Win32,59.77286312,Chrome,1756,1098,,,,,0,956,,,,,,,,,,,,,,,,,D,167,triangle,1,0,,,,,,,,,,,,,,,,repeat,letter,lettRpt,d,0.4828,Hi,,,,,,2,,,,,,,,high,21,0,21,0,1,,,,,,,,,
293299,2022-11-30_09h02.57.532,vts_reward_expectancy_bt,2022.2.4,Win32,59.77286312,Chrome,1756,1098,,,,,0,956,,,,,,,,,,,,,,,,,Y,146,hexagon,0,0,,,,,,,,,,,,,,,,switch,number,NA,k,0.4551,Hi,,,,,,2,,,,,,,,high,22,0,22,0,1,,,,,,,,,
293299,2022-11-30_09h02.57.532,vts_reward_expectancy_bt,2022.2.4,Win32,59.77286312,Chrome,1756,1098,,,,,0,956,,,,,,,,,,,,,,,,,H,160,circle,1,1,,,,,,,,,,,,,,,,repeat,number,numRpt,k,0.4171,Hi,,,,,,2,,,,,,,,high,23,0,23,0,1,,,,,,,,,
293299,2022-11-30_09h02.57.532,vts_reward_expectancy_bt,2022.2.4,Win32,59.77286312,Chrome,1756,1098,,,,,10,966,,,,,,,,,,,,,,,,,H,160,star,1,0,,,,,,,,,,,,,,,,repeat,number,numRpt,k,0.3854,Lo,,,,,,2,,,,,,,,high,24,0,24,0,1,,,,,,,,,
293299,2022-11-30_09h02.57.532,vts_reward_expectancy_bt,2022.2.4,Win32,59.77286312,Chrome,1756,1098,,,,,0,966,,,,,,,,,,,,,,,,,D,174,circle,0,0,,,,,,,,,,,,,,,,repeat,number,NA,j,0.3343,Lo,,,,,,2,,,,,,,,high,25,0,25,0,1,,,,,,,,,
293299,2022-11-30_09h02.57.532,vts_reward_expectancy_bt,2022.2.4,Win32,59.77286312,Chrome,1756,1098,,,,,0,966,,,,,,,,,,,,,,,,,B,146,hexagon,0,1,,,,,,,,,,,,,,,,repeat,number,NA,k,0.3957,Lo,,,,,,2,,,,,,,,high,26,0,26,0,1,,,,,,,,,
293299,2022-11-30_09h02.57.532,vts_reward_expectancy_bt,2022.2.4,Win32,59.77286312,Chrome,1756,1098,,,,,0,966,,,,,,,,,,,,,,,,,Y,167,triangle,1,1,,,,,,,,,,,,,,,,repeat,number,numRpt,k,0.4864,Hi,,,,,,2,,,,,,,,high,27,0,27,0,1,,,,,,,,,
293299,2022-11-30_09h02.57.532,vts_reward_expectancy_bt,2022.2.4,Win32,59.77286312,Chrome,1756,1098,,,,,1,967,,,,,,,,,,,,,,,,,F,139,hexagon,1,0,,,,,,,,,,,,,,,,repeat,number,numRpt,j,0.4714,Lo,,,,,,2,,,,,,,,high,28,0,28,0,1,,,,,,,,,
293299,2022-11-30_09h02.57.532,vts_reward_expectancy_bt,2022.2.4,Win32,59.77286312,Chrome,1756,1098,,,,,10,977,,,,,,,,,,,,,,,,,W,125,triangle,1,0,,,,,,,,,,,,,,,,repeat,number,numRpt,j,0.3388,Hi,,,,,,2,,,,,,,,high,29,0,29,0,1,,,,,,,,,
293299,2022-11-30_09h02.57.532,vts_reward_expectancy_bt,2022.2.4,Win32,59.77286312,Chrome,1756,1098,,,,,10,987,,,,,,,,,,,,,,,,,S,132,circle,1,0,,,,,,,,,,,,,,,,repeat,number,numRpt,j,0.3833,Hi,,,,,,2,,,,,,,,high,30,0,30,0,1,,,,,,,,,
293299,2022-11-30_09h02.57.532,vts_reward_expectancy_bt,2022.2.4,Win32,59.77286312,Chrome,1756,1098,,,,,1,988,,,,,,,,,,,,,,,,,U,181,star,1,0,,,,,,,,,,,,,,,,repeat,number,numRpt,k,0.4008,Lo,,,,,,2,,,,,,,,high,31,0,31,0,1,,,,,,,,,
293299,2022-11-30_09h02.57.532,vts_reward_expectancy_bt,2022.2.4,Win32,59.77286312,Chrome,1756,1098,,,,,1,989,,,,,,,,,,,,,,,,,Y,167,star,1,0,,,,,,,,,,,,,,,,repeat,number,numRpt,k,0.4332,Lo,,,,,,3,,,,,,space,1.0349,high,0,0,0,0,1,,,,,,,,,
293299,2022-11-30_09h02.57.532,vts_reward_expectancy_bt,2022.2.4,Win32,59.77286312,Chrome,1756,1098,,,,,10,999,,,,,,,,,,,,,,,,,H,125,triangle,1,0,,,,,,,,,,,,,,,,repeat,number,numRpt,j,0.3345,Hi,,,,,,3,,,,,,,,high,1,0,1,0,1,,,,,,,,,
293299,2022-11-30_09h02.57.532,vts_reward_expectancy_bt,2022.2.4,Win32,59.77286312,Chrome,1756,1098,,,,,1,1000,,,,,,,,,,,,,,,,,B,146,hexagon,1,0,,,,,,,,,,,,,,,,repeat,number,numRpt,j,0.3341,Lo,,,,,,3,,,,,,,,high,2,0,2,0,1,,,,,,,,,
293299,2022-11-30_09h02.57.532,vts_reward_expectancy_bt,2022.2.4,Win32,59.77286312,Chrome,1756,1098,,,,,0,1000,,,,,,,,,,,,,,,,,S,174,circle,0,0,,,,,,,,,,,,,,,,repeat,number,NA,j,0.3378,Lo,,,,,,3,,,,,,,,high,3,0,3,0,1,,,,,,,,,
293299,2022-11-30_09h02.57.532,vts_reward_expectancy_bt,2022.2.4,Win32,59.77286312,Chrome,1756,1098,,,,,1,1001,,,,,,,,,,,,,,,,,F,181,star,1,1,,,,,,,,,,,,,,,,repeat,number,numRpt,k,0.4497,Lo,,,,,,3,,,,,,,,high,4,0,4,0,1,,,,,,,,,
293299,2022-11-30_09h02.57.532,vts_reward_expectancy_bt,2022.2.4,Win32,59.77286312,Chrome,1756,1098,,,,,0,1001,,,,,,,,,,,,,,,,,W,160,triangle,1,0,,,,,,,,,,,,,,,,repeat,number,numRpt,k,0.4172,Hi,,,,,,3,,,,,,,,high,5,0,5,0,1,,,,,,,,,
293299,2022-11-30_09h02.57.532,vts_reward_expectancy_bt,2022.2.4,Win32,59.77286312,Chrome,1756,1098,,,,,1,1002,,,,,,,,,,,,,,,,,D,139,hexagon,1,0,,,,,,,,,,,,,,,,repeat,number,numRpt,j,0.3718,Lo,,,,,,3,,,,,,,,high,6,0,6,0,1,,,,,,,,,
293299,2022-11-30_09h02.57.532,vts_reward_expectancy_bt,2022.2.4,Win32,59.77286312,Chrome,1756,1098,,,,,0,1002,,,,,,,,,,,,,,,,,U,132,circle,1,0,,,,,,,,,,,,,,,,repeat,number,numRpt,j,0.4371,Hi,,,,,,3,,,,,,,,high,7,0,7,0,1,,,,,,,,,
293299,2022-11-30_09h02.57.532,vts_reward_expectancy_bt,2022.2.4,Win32,59.77286312,Chrome,1756,1098,,,,,1,1003,,,,,,,,,,,,,,,,,Y,167,hexagon,1,0,,,,,,,,,,,,,,,,switch,letter,lettSwt,f,0.4645,Lo,,,,,,3,,,,,,,,high,8,0,8,0,1,,,,,,,,,
293299,2022-11-30_09h02.57.532,vts_reward_expectancy_bt,2022.2.4,Win32,59.77286312,Chrome,1756,1098,,,,,10,1013,,,,,,,,,,,,,,,,,H,125,star,1,0,,,,,,,,,,,,,,,,repeat,letter,lettRpt,d,0.3865,Lo,,,,,,3,,,,,,,,high,9,0,9,0,1,,,,,,,,,
293299,2022-11-30_09h02.57.532,vts_reward_expectancy_bt,2022.2.4,Win32,59.77286312,Chrome,1756,1098,,,,,0,1013,,,,,,,,,,,,,,,,,B,146,triangle,0,0,,,,,,,,,,,,,,,,repeat,letter,NA,f,0.362,Lo,,,,,,3,,,,,,,,high,10,0,10,0,1,,,,,,,,,
293299,2022-11-30_09h02.57.532,vts_reward_expectancy_bt,2022.2.4,Win32,59.77286312,Chrome,1756,1098,,,,,10,1023,,,,,,,,,,,,,,,,,S,174,circle,1,1,,,,,,,,,,,,,,,,repeat,letter,lettRpt,f,0.4828,Hi,,,,,,3,,,,,,,,high,11,0,11,0,1,,,,,,,,,
293299,2022-11-30_09h02.57.532,vts_reward_expectancy_bt,2022.2.4,Win32,59.77286312,Chrome,1756,1098,,,,,10,1033,,,,,,,,,,,,,,,,,F,181,circle,1,0,,,,,,,,,,,,,,,,repeat,letter,lettRpt,d,0.6443,Hi,,,,,,3,,,,,,,,high,12,0,12,0,1,,,,,,,,,
293299,2022-11-30_09h02.57.532,vts_reward_expectancy_bt,2022.2.4,Win32,59.77286312,Chrome,1756,1098,,,,,1,1034,,,,,,,,,,,,,,,,,W,160,hexagon,1,0,,,,,,,,,,,,,,,,repeat,letter,lettRpt,f,1.0319,Lo,,,,,,3,,,,,,,,high,13,0,13,0,1,,,,,,,,,
293299,2022-11-30_09h02.57.532,vts_reward_expectancy_bt,2022.2.4,Win32,59.77286312,Chrome,1756,1098,,,,,1,1035,,,,,,,,,,,,,,,,,D,139,star,1,0,,,,,,,,,,,,,,,,repeat,letter,lettRpt,d,0.5324,Lo,,,,,,3,,,,,,,,high,14,0,14,0,1,,,,,,,,,
293299,2022-11-30_09h02.57.532,vts_reward_expectancy_bt,2022.2.4,Win32,59.77286312,Chrome,1756,1098,,,,,0,1035,,,,,,,,,,,,,,,,,U,132,triangle,0,0,,,,,,,,,,,,,,,,switch,number,NA,k,0.385,Lo,,,,,,3,,,,,,,,high,15,0,15,0,1,,,,,,,,,
293299,2022-11-30_09h02.57.532,vts_reward_expectancy_bt,2022.2.4,Win32,59.77286312,Chrome,1756,1098,,,,,1,1036,,,,,,,,,,,,,,,,,F,181,star,1,1,,,,,,,,,,,,,,,,repeat,number,numRpt,k,0.445,Lo,,,,,,3,,,,,,,,high,16,0,16,0,1,,,,,,,,,
293299,2022-11-30_09h02.57.532,vts_reward_expectancy_bt,2022.2.4,Win32,59.77286312,Chrome,1756,1098,,,,,0,1036,,,,,,,,,,,,,,,,,H,125,hexagon,0,0,,,,,,,,,,,,,,,,switch,letter,NA,f,0.4618,Lo,,,,,,3,,,,,,,,high,17,0,17,0,1,,,,,,,,,
293299,2022-11-30_09h02.57.532,vts_reward_expectancy_bt,2022.2.4,Win32,59.77286312,Chrome,1756,1098,,,,,10,1046,,,,,,,,,,,,,,,,,U,174,triangle,1,1,,,,,,,,,,,,,,,,repeat,letter,lettRpt,f,0.5254,Hi,,,,,,3,,,,,,,,high,18,0,18,0,1,,,,,,,,,
293299,2022-11-30_09h02.57.532,vts_reward_expectancy_bt,2022.2.4,Win32,59.77286312,Chrome,1756,1098,,,,,1,1047,,,,,,,,,,,,,,,,,S,160,circle,1,0,,,,,,,,,,,,,,,,repeat,letter,lettRpt,f,0.5665,Hi,,,,,,3,,,,,,,,high,19,0,19,0,1,,,,,,,,,
293299,2022-11-30_09h02.57.532,vts_reward_expectancy_bt,2022.2.4,Win32,59.77286312,Chrome,1756,1098,,,,,10,1057,,,,,,,,,,,,,,,,,Y,146,circle,1,0,,,,,,,,,,,,,,,,repeat,letter,lettRpt,f,0.4215,Hi,,,,,,3,,,,,,,,high,20,0,20,0,1,,,,,,,,,
293299,2022-11-30_09h02.57.532,vts_reward_expectancy_bt,2022.2.4,Win32,59.77286312,Chrome,1756,1098,,,,,1,1058,,,,,,,,,,,,,,,,,W,139,triangle,1,0,,,,,,,,,,,,,,,,repeat,letter,lettRpt,f,0.4165,Hi,,,,,,3,,,,,,,,high,21,0,21,0,1,,,,,,,,,
293299,2022-11-30_09h02.57.532,vts_reward_expectancy_bt,2022.2.4,Win32,59.77286312,Chrome,1756,1098,,,,,1,1059,,,,,,,,,,,,,,,,,B,167,star,1,0,,,,,,,,,,,,,,,,repeat,letter,lettRpt,d,0.5036,Lo,,,,,,3,,,,,,,,high,22,0,22,0,1,,,,,,,,,
293299,2022-11-30_09h02.57.532,vts_reward_expectancy_bt,2022.2.4,Win32,59.77286312,Chrome,1756,1098,,,,,10,1069,,,,,,,,,,,,,,,,,D,132,hexagon,1,0,,,,,,,,,,,,,,,,repeat,letter,lettRpt,d,0.6994,Lo,,,,,,3,,,,,,,,high,23,0,23,0,1,,,,,,,,,
293299,2022-11-30_09h02.57.532,vts_reward_expectancy_bt,2022.2.4,Win32,59.77286312,Chrome,1756,1098,,,,,10,1079,,,,,,,,,,,,,,,,,D,174,star,1,0,,,,,,,,,,,,,,,,repeat,letter,lettRpt,d,0.5121,Lo,,,,,,3,,,,,,,,high,24,0,24,0,1,,,,,,,,,
293299,2022-11-30_09h02.57.532,vts_reward_expectancy_bt,2022.2.4,Win32,59.77286312,Chrome,1756,1098,,,,,10,1089,,,,,,,,,,,,,,,,,H,125,circle,1,0,,,,,,,,,,,,,,,,repeat,letter,lettRpt,d,0.6561,Hi,,,,,,3,,,,,,,,high,25,0,25,0,1,,,,,,,,,
293299,2022-11-30_09h02.57.532,vts_reward_expectancy_bt,2022.2.4,Win32,59.77286312,Chrome,1756,1098,,,,,1,1090,,,,,,,,,,,,,,,,,W,167,hexagon,1,0,,,,,,,,,,,,,,,,repeat,letter,lettRpt,f,0.4835,Lo,,,,,,3,,,,,,,,high,26,0,26,0,1,,,,,,,,,
293299,2022-11-30_09h02.57.532,vts_reward_expectancy_bt,2022.2.4,Win32,59.77286312,Chrome,1756,1098,,,,,10,1100,,,,,,,,,,,,,,,,,S,132,triangle,1,0,,,,,,,,,,,,,,,,repeat,letter,lettRpt,f,0.5726,Hi,,,,,,3,,,,,,,,high,27,0,27,0,1,,,,,,,,,
293299,2022-11-30_09h02.57.532,vts_reward_expectancy_bt,2022.2.4,Win32,59.77286312,Chrome,1756,1098,,,,,1,1101,,,,,,,,,,,,,,,,,Y,181,star,1,0,,,,,,,,,,,,,,,,repeat,letter,lettRpt,f,0.5503,Lo,,,,,,3,,,,,,,,high,28,0,28,0,1,,,,,,,,,
293299,2022-11-30_09h02.57.532,vts_reward_expectancy_bt,2022.2.4,Win32,59.77286312,Chrome,1756,1098,,,,,1,1102,,,,,,,,,,,,,,,,,U,146,circle,1,0,,,,,,,,,,,,,,,,repeat,letter,lettRpt,f,0.569,Hi,,,,,,3,,,,,,,,high,29,0,29,0,1,,,,,,,,,
293299,2022-11-30_09h02.57.532,vts_reward_expectancy_bt,2022.2.4,Win32,59.77286312,Chrome,1756,1098,,,,,1,1103,,,,,,,,,,,,,,,,,B,139,triangle,1,0,,,,,,,,,,,,,,,,repeat,letter,lettRpt,d,0.4026,Hi,,,,,,3,,,,,,,,high,30,0,30,0,1,,,,,,,,,
293299,2022-11-30_09h02.57.532,vts_reward_expectancy_bt,2022.2.4,Win32,59.77286312,Chrome,1756,1098,,,,,1,1104,,,,,,,,,,,,,,,,,F,160,hexagon,1,0,,,,,,,,,,,,,,,,repeat,letter,lettRpt,d,0.566,Lo,,,,,,3,,,,,,,,high,31,0,31,0,1,,,,,,,,,
293299,2022-11-30_09h02.57.532,vts_reward_expectancy_bt,2022.2.4,Win32,59.77286312,Chrome,1756,1098,,,,,1,1105,,,,,,,,,,,,,,,,,W,181,hexagon,1,0,,,,,,,,,,,,,,,,repeat,letter,lettRpt,f,0.5827,Lo,,,,,,4,,,,,,space,1.023,high,0,0,0,0,1,,,,,,,,,
293299,2022-11-30_09h02.57.532,vts_reward_expectancy_bt,2022.2.4,Win32,59.77286312,Chrome,1756,1098,,,,,1,1106,,,,,,,,,,,,,,,,,S,132,star,1,0,,,,,,,,,,,,,,,,repeat,letter,lettRpt,f,0.4173,Lo,,,,,,4,,,,,,,,high,1,0,1,0,1,,,,,,,,,
293299,2022-11-30_09h02.57.532,vts_reward_expectancy_bt,2022.2.4,Win32,59.77286312,Chrome,1756,1098,,,,,0,1106,,,,,,,,,,,,,,,,,F,167,triangle,0,0,,,,,,,,,,,,,,,,repeat,letter,NA,f,0.4833,Lo,,,,,,4,,,,,,,,high,2,0,2,0,1,,,,,,,,,
293299,2022-11-30_09h02.57.532,vts_reward_expectancy_bt,2022.2.4,Win32,59.77286312,Chrome,1756,1098,,,,,10,1116,,,,,,,,,,,,,,,,,D,139,circle,1,1,,,,,,,,,,,,,,,,repeat,letter,lettRpt,d,0.4997,Hi,,,,,,4,,,,,,,,high,3,0,3,0,1,,,,,,,,,
293299,2022-11-30_09h02.57.532,vts_reward_expectancy_bt,2022.2.4,Win32,59.77286312,Chrome,1756,1098,,,,,10,1126,,,,,,,,,,,,,,,,,H,160,hexagon,1,0,,,,,,,,,,,,,,,,repeat,letter,lettRpt,d,0.5995,Lo,,,,,,4,,,,,,,,high,4,0,4,0,1,,,,,,,,,
293299,2022-11-30_09h02.57.532,vts_reward_expectancy_bt,2022.2.4,Win32,59.77286312,Chrome,1756,1098,,,,,1,1127,,,,,,,,,,,,,,,,,U,174,star,1,0,,,,,,,,,,,,,,,,repeat,letter,lettRpt,f,0.603,Lo,,,,,,4,,,,,,,,high,5,0,5,0,1,,,,,,,,,
293299,2022-11-30_09h02.57.532,vts_reward_expectancy_bt,2022.2.4,Win32,59.77286312,Chrome,1756,1098,,,,,10,1137,,,,,,,,,,,,,,,,,B,146,triangle,1,0,,,,,,,,,,,,,,,,repeat,letter,lettRpt,d,0.4431,Hi,,,,,,4,,,,,,,,high,6,0,6,0,1,,,,,,,,,
293299,2022-11-30_09h02.57.532,vts_reward_expectancy_bt,2022.2.4,Win32,59.77286312,Chrome,1756,1098,,,,,10,1147,,,,,,,,,,,,,,,,,Y,125,circle,1,0,,,,,,,,,,,,,,,,repeat,letter,lettRpt,f,0.4993,Hi,,,,,,4,,,,,,,,high,7,0,7,0,1,,,,,,,,,
293299,2022-11-30_09h02.57.532,vts_reward_expectancy_bt,2022.2.4,Win32,59.77286312,Chrome,1756,1098,,,,,0,1147,,,,,,,,,,,,,,,,,W,181,triangle,1,0,,,,,,,,,,,,,,,,repeat,letter,lettRpt,f,0.5449,Hi,,,,,,4,,,,,,,,high,8,0,8,0,1,,,,,,,,,
293299,2022-11-30_09h02.57.532,vts_reward_expectancy_bt,2022.2.4,Win32,59.77286312,Chrome,1756,1098,,,,,1,1148,,,,,,,,,,,,,,,,,S,132,star,1,0,,,,,,,,,,,,,,,,repeat,letter,lettRpt,f,0.6345,Lo,,,,,,4,,,,,,,,high,9,0,9,0,1,,,,,,,,,
293299,2022-11-30_09h02.57.532,vts_reward_expectancy_bt,2022.2.4,Win32,59.77286312,Chrome,1756,1098,,,,,1,1149,,,,,,,,,,,,,,,,,F,167,hexagon,1,0,,,,,,,,,,,,,,,,repeat,letter,lettRpt,d,0.398,Lo,,,,,,4,,,,,,,,high,10,0,10,0,1,,,,,,,,,
293299,2022-11-30_09h02.57.532,vts_reward_expectancy_bt,2022.2.4,Win32,59.77286312,Chrome,1756,1098,,,,,0,1149,,,,,,,,,,,,,,,,,D,139,circle,1,0,,,,,,,,,,,,,,,,repeat,letter,lettRpt,d,0.5275,Hi,,,,,,4,,,,,,,,high,11,0,11,0,1,,,,,,,,,
293299,2022-11-30_09h02.57.532,vts_reward_expectancy_bt,2022.2.4,Win32,59.77286312,Chrome,1756,1098,,,,,1,1150,,,,,,,,,,,,,,,,,H,160,star,1,0,,,,,,,,,,,,,,,,repeat,letter,lettRpt,d,0.4993,Lo,,,,,,4,,,,,,,,high,12,0,12,0,1,,,,,,,,,
293299,2022-11-30_09h02.57.532,vts_reward_expectancy_bt,2022.2.4,Win32,59.77286312,Chrome,1756,1098,,,,,10,1160,,,,,,,,,,,,,,,,,U,174,triangle,1,0,,,,,,,,,,,,,,,,switch,number,numSwt,k,0.4484,Hi,,,,,,4,,,,,,,,high,13,0,13,0,1,,,,,,,,,
293299,2022-11-30_09h02.57.532,vts_reward_expectancy_bt,2022.2.4,Win32,59.77286312,Chrome,1756,1098,,,,,0,1160,,,,,,,,,,,,,,,,,B,146,circle,0,0,,,,,,,,,,,,,,,,repeat,number,NA,k,0.4396,Hi,,,,,,4,,,,,,,,high,14,0,14,0,1,,,,,,,,,
293299,2022-11-30_09h02.57.532,vts_reward_expectancy_bt,2022.2.4,Win32,59.77286312,Chrome,1756,1098,,,,,1,1161,,,,,,,,,,,,,,,,,Y,125,hexagon,1,1,,,,,,,,,,,,,,,,repeat,number,numRpt,j,0.7499,Lo,,,,,,4,,,,,,,,high,15,0,15,0,1,,,,,,,,,
293299,2022-11-30_09h02.57.532,vts_reward_expectancy_bt,2022.2.4,Win32,59.77286312,Chrome,1756,1098,,,,,1,1162,,,,,,,,,,,,,,,,,B,167,hexagon,1,0,,,,,,,,,,,,,,,,repeat,number,numRpt,k,0.7991,Lo,,,,,,4,,,,,,,,high,16,0,16,0,1,,,,,,,,,
293299,2022-11-30_09h02.57.532,vts_reward_expectancy_bt,2022.2.4,Win32,59.77286312,Chrome,1756,1098,,,,,0,1162,,,,,,,,,,,,,,,,,W,181,triangle,0,0,,,,,,,,,,,,,,,,repeat,number,NA,j,0.4496,Lo,,,,,,4,,,,,,,,high,17,0,17,0,1,,,,,,,,,
293299,2022-11-30_09h02.57.532,vts_reward_expectancy_bt,2022.2.4,Win32,59.77286312,Chrome,1756,1098,,,,,0,1162,,,,,,,,,,,,,,,,,U,139,circle,1,1,,,,,,,,,,,,,,,,repeat,number,numRpt,j,0.8347,Hi,,,,,,4,,,,,,,,high,18,0,18,0,1,,,,,,,,,
293299,2022-11-30_09h02.57.532,vts_reward_expectancy_bt,2022.2.4,Win32,59.77286312,Chrome,1756,1098,,,,,0,1162,,,,,,,,,,,,,,,,,Y,160,star,0,0,,,,,,,,,,,,,,,,repeat,number,NA,j,0.4872,Hi,,,,,,4,,,,,,,,high,19,0,19,0,1,,,,,,,,,
293299,2022-11-30_09h02.57.532,vts_reward_expectancy_bt,2022.2.4,Win32,59.77286312,Chrome,1756,1098,,,,,0,1162,,,,,,,,,,,,,,,,,D,125,circle,1,1,,,,,,,,,,,,,,,,repeat,number,numRpt,j,0.4492,Hi,,,,,,4,,,,,,,,high,20,0,20,0,1,,,,,,,,,
293299,2022-11-30_09h02.57.532,vts_reward_expectancy_bt,2022.2.4,Win32,59.77286312,Chrome,1756,1098,,,,,0,1162,,,,,,,,,,,,,,,,,F,132,triangle,1,0,,,,,,,,,,,,,,,,repeat,number,numRpt,j,0.4666,Hi,,,,,,4,,,,,,,,high,21,0,21,0,1,,,,,,,,,
293299,2022-11-30_09h02.57.532,vts_reward_expectancy_bt,2022.2.4,Win32,59.77286312,Chrome,1756,1098,,,,,1,1163,,,,,,,,,,,,,,,,,H,174,hexagon,1,0,,,,,,,,,,,,,,,,repeat,number,numRpt,k,0.3959,Lo,,,,,,4,,,,,,,,high,22,0,22,0,1,,,,,,,,,
293299,2022-11-30_09h02.57.532,vts_reward_expectancy_bt,2022.2.4,Win32,59.77286312,Chrome,1756,1098,,,,,1,1164,,,,,,,,,,,,,,,,,S,146,star,1,0,,,,,,,,,,,,,,,,switch,letter,lettSwt,f,0.5058,Lo,,,,,,4,,,,,,,,high,23,0,23,0,1,,,,,,,,,
293299,2022-11-30_09h02.57.532,vts_reward_expectancy_bt,2022.2.4,Win32,59.77286312,Chrome,1756,1098,,,,,1,1165,,,,,,,,,,,,,,,,,Y,174,star,1,0,,,,,,,,,,,,,,,,repeat,letter,lettRpt,f,0.6508,Lo,,,,,,4,,,,,,,,high,24,0,24,0,1,,,,,,,,,
293299,2022-11-30_09h02.57.532,vts_reward_expectancy_bt,2022.2.4,Win32,59.77286312,Chrome,1756,1098,,,,,0,1165,,,,,,,,,,,,,,,,,F,125,circle,1,0,,,,,,,,,,,,,,,,repeat,letter,lettRpt,d,0.5696,Hi,,,,,,4,,,,,,,,high,25,0,25,0,1,,,,,,,,,
293299,2022-11-30_09h02.57.532,vts_reward_expectancy_bt,2022.2.4,Win32,59.77286312,Chrome,1756,1098,,,,,1,1166,,,,,,,,,,,,,,,,,B,181,triangle,1,0,,,,,,,,,,,,,,,,repeat,letter,lettRpt,d,0.4831,Hi,,,,,,4,,,,,,,,high,26,0,26,0,1,,,,,,,,,
293299,2022-11-30_09h02.57.532,vts_reward_expectancy_bt,2022.2.4,Win32,59.77286312,Chrome,1756,1098,,,,,1,1167,,,,,,,,,,,,,,,,,D,167,hexagon,1,0,,,,,,,,,,,,,,,,repeat,letter,lettRpt,d,0.5161,Lo,,,,,,4,,,,,,,,high,27,0,27,0,1,,,,,,,,,
293299,2022-11-30_09h02.57.532,vts_reward_expectancy_bt,2022.2.4,Win32,59.77286312,Chrome,1756,1098,,,,,1,1168,,,,,,,,,,,,,,,,,U,160,hexagon,1,0,,,,,,,,,,,,,,,,repeat,letter,lettRpt,f,0.5391,Lo,,,,,,4,,,,,,,,high,28,0,28,0,1,,,,,,,,,
293299,2022-11-30_09h02.57.532,vts_reward_expectancy_bt,2022.2.4,Win32,59.77286312,Chrome,1756,1098,,,,,10,1178,,,,,,,,,,,,,,,,,W,146,circle,1,0,,,,,,,,,,,,,,,,repeat,letter,lettRpt,f,0.5001,Hi,,,,,,4,,,,,,,,high,29,0,29,0,1,,,,,,,,,
293299,2022-11-30_09h02.57.532,vts_reward_expectancy_bt,2022.2.4,Win32,59.77286312,Chrome,1756,1098,,,,,1,1179,,,,,,,,,,,,,,,,,H,132,triangle,1,0,,,,,,,,,,,,,,,,repeat,letter,lettRpt,d,0.4662,Hi,,,,,,4,,,,,,,,high,30,0,30,0,1,,,,,,,,,
293299,2022-11-30_09h02.57.532,vts_reward_expectancy_bt,2022.2.4,Win32,59.77286312,Chrome,1756,1098,,,,,1,1180,,,,,,,,,,,,,,,,,S,139,star,1,0,,,,,,,,,,,,,,,,repeat,letter,lettRpt,f,0.5661,Lo,,,,,,4,,,,,,,,high,31,0,31,0,1,,,,,,,,,
293299,2022-11-30_09h02.57.532,vts_reward_expectancy_bt,2022.2.4,Win32,59.77286312,Chrome,1756,1098,,,,,10,1190,,,,,,,,,,,,,,,,,U,125,triangle,1,0,,,,,,,,,,,,,,,,repeat,letter,lettRpt,f,0.4954,Hi,,,,,,5,,,,,,space,1.83,high,0,0,0,0,1,,,,,,,,,
293299,2022-11-30_09h02.57.532,vts_reward_expectancy_bt,2022.2.4,Win32,59.77286312,Chrome,1756,1098,,,,,10,1200,,,,,,,,,,,,,,,,,W,160,star,1,0,,,,,,,,,,,,,,,,repeat,letter,lettRpt,f,0.4509,Lo,,,,,,5,,,,,,,,high,1,0,1,0,1,,,,,,,,,
293299,2022-11-30_09h02.57.532,vts_reward_expectancy_bt,2022.2.4,Win32,59.77286312,Chrome,1756,1098,,,,,10,1210,,,,,,,,,,,,,,,,,S,139,circle,1,0,,,,,,,,,,,,,,,,repeat,letter,lettRpt,f,0.4833,Hi,,,,,,5,,,,,,,,high,2,0,2,0,1,,,,,,,,,
293299,2022-11-30_09h02.57.532,vts_reward_expectancy_bt,2022.2.4,Win32,59.77286312,Chrome,1756,1098,,,,,1,1211,,,,,,,,,,,,,,,,,B,174,hexagon,1,0,,,,,,,,,,,,,,,,repeat,letter,lettRpt,d,1.813,Lo,,,,,,5,,,,,,,,high,3,0,3,0,1,,,,,,,,,
293299,2022-11-30_09h02.57.532,vts_reward_expectancy_bt,2022.2.4,Win32,59.77286312,Chrome,1756,1098,,,,,0,1211,,,,,,,,,,,,,,,,,F,167,triangle,0,0,,,,,,,,,,,,,,,,repeat,letter,NA,f,0.5826,Lo,,,,,,5,,,,,,,,high,4,0,4,0,1,,,,,,,,,
293299,2022-11-30_09h02.57.532,vts_reward_expectancy_bt,2022.2.4,Win32,59.77286312,Chrome,1756,1098,,,,,10,1221,,,,,,,,,,,,,,,,,H,146,star,1,1,,,,,,,,,,,,,,,,repeat,letter,lettRpt,d,0.5661,Lo,,,,,,5,,,,,,,,high,5,0,5,0,1,,,,,,,,,
293299,2022-11-30_09h02.57.532,vts_reward_expectancy_bt,2022.2.4,Win32,59.77286312,Chrome,1756,1098,,,,,10,1231,,,,,,,,,,,,,,,,,Y,181,circle,1,0,,,,,,,,,,,,,,,,repeat,letter,lettRpt,f,0.4745,Hi,,,,,,5,,,,,,,,high,6,0,6,0,1,,,,,,,,,
293299,2022-11-30_09h02.57.532,vts_reward_expectancy_bt,2022.2.4,Win32,59.77286312,Chrome,1756,1098,,,,,1,1232,,,,,,,,,,,,,,,,,D,132,hexagon,1,0,,,,,,,,,,,,,,,,repeat,letter,lettRpt,d,0.5487,Lo,,,,,,5,,,,,,,,high,7,0,7,0,1,,,,,,,,,
293299,2022-11-30_09h02.57.532,vts_reward_expectancy_bt,2022.2.4,Win32,59.77286312,Chrome,1756,1098,,,,,1,1233,,,,,,,,,,,,,,,,,U,125,hexagon,1,0,,,,,,,,,,,,,,,,repeat,letter,lettRpt,f,0.5324,Lo,,,,,,5,,,,,,,,high,8,0,8,0,1,,,,,,,,,
293299,2022-11-30_09h02.57.532,vts_reward_expectancy_bt,2022.2.4,Win32,59.77286312,Chrome,1756,1098,,,,,0,1233,,,,,,,,,,,,,,,,,W,160,circle,1,0,,,,,,,,,,,,,,,,repeat,letter,lettRpt,f,0.6495,Hi,,,,,,5,,,,,,,,high,9,0,9,0,1,,,,,,,,,
293299,2022-11-30_09h02.57.532,vts_reward_expectancy_bt,2022.2.4,Win32,59.77286312,Chrome,1756,1098,,,,,10,1243,,,,,,,,,,,,,,,,,S,139,triangle,1,0,,,,,,,,,,,,,,,,repeat,letter,lettRpt,f,0.476,Hi,,,,,,5,,,,,,,,high,10,0,10,0,1,,,,,,,,,
293299,2022-11-30_09h02.57.532,vts_reward_expectancy_bt,2022.2.4,Win32,59.77286312,Chrome,1756,1098,,,,,10,1253,,,,,,,,,,,,,,,,,B,174,star,1,0,,,,,,,,,,,,,,,,repeat,letter,lettRpt,d,0.4429,Lo,,,,,,5,,,,,,,,high,11,0,11,0,1,,,,,,,,,
293299,2022-11-30_09h02.57.532,vts_reward_expectancy_bt,2022.2.4,Win32,59.77286312,Chrome,1756,1098,,,,,1,1254,,,,,,,,,,,,,,,,,F,167,hexagon,1,0,,,,,,,,,,,,,,,,repeat,letter,lettRpt,d,0.5355,Lo,,,,,,5,,,,,,,,high,12,0,12,0,1,,,,,,,,,
293299,2022-11-30_09h02.57.532,vts_reward_expectancy_bt,2022.2.4,Win32,59.77286312,Chrome,1756,1098,,,,,1,1255,,,,,,,,,,,,,,,,,H,146,circle,1,0,,,,,,,,,,,,,,,,repeat,letter,lettRpt,d,0.45,Hi,,,,,,5,,,,,,,,high,13,0,13,0,1,,,,,,,,,
293299,2022-11-30_09h02.57.532,vts_reward_expectancy_bt,2022.2.4,Win32,59.77286312,Chrome,1756,1098,,,,,0,1255,,,,,,,,,,,,,,,,,Y,181,triangle,1,0,,,,,,,,,,,,,,,,repeat,letter,lettRpt,f,0.516,Hi,,,,,,5,,,,,,,,high,14,0,14,0,1,,,,,,,,,
293299,2022-11-30_09h02.57.532,vts_reward_expectancy_bt,2022.2.4,Win32,59.77286312,Chrome,1756,1098,,,,,0,1255,,,,,,,,,,,,,,,,,D,132,star,0,0,,,,,,,,,,,,,,,,repeat,letter,NA,f,0.3977,Hi,,,,,,5,,,,,,,,high,15,0,15,0,1,,,,,,,,,
293299,2022-11-30_09h02.57.532,vts_reward_expectancy_bt,2022.2.4,Win32,59.77286312,Chrome,1756,1098,,,,,1,1256,,,,,,,,,,,,,,,,,B,139,hexagon,1,1,,,,,,,,,,,,,,,,repeat,letter,lettRpt,d,0.4246,Lo,,,,,,5,,,,,,,,high,16,0,16,0,1,,,,,,,,,
293299,2022-11-30_09h02.57.532,vts_reward_expectancy_bt,2022.2.4,Win32,59.77286312,Chrome,1756,1098,,,,,0,1256,,,,,,,,,,,,,,,,,Y,181,circle,1,0,,,,,,,,,,,,,,,,repeat,letter,lettRpt,f,0.5327,Hi,,,,,,5,,,,,,,,high,17,0,17,0,1,,,,,,,,,
293299,2022-11-30_09h02.57.532,vts_reward_expectancy_bt,2022.2.4,Win32,59.77286312,Chrome,1756,1098,,,,,0,1256,,,,,,,,,,,,,,,,,S,174,triangle,0,0,,,,,,,,,,,,,,,,repeat,letter,NA,d,0.7853,Hi,,,,,,5,,,,,,,,high,18,0,18,0,1,,,,,,,,,
293299,2022-11-30_09h02.57.532,vts_reward_expectancy_bt,2022.2.4,Win32,59.77286312,Chrome,1756,1098,,,,,0,1256,,,,,,,,,,,,,,,,,U,132,star,0,1,,,,,,,,,,,,,,,,repeat,letter,NA,d,0.3588,Hi,,,,,,5,,,,,,,,high,19,0,19,0,1,,,,,,,,,
293299,2022-11-30_09h02.57.532,vts_reward_expectancy_bt,2022.2.4,Win32,59.77286312,Chrome,1756,1098,,,,,0,1256,,,,,,,,,,,,,,,,,D,167,circle,1,1,,,,,,,,,,,,,,,,repeat,letter,lettRpt,d,0.5452,Hi,,,,,,5,,,,,,,,high,20,0,20,0,1,,,,,,,,,
293299,2022-11-30_09h02.57.532,vts_reward_expectancy_bt,2022.2.4,Win32,59.77286312,Chrome,1756,1098,,,,,0,1256,,,,,,,,,,,,,,,,,W,160,star,0,0,,,,,,,,,,,,,,,,repeat,letter,NA,d,0.3861,Hi,,,,,,5,,,,,,,,high,21,0,21,0,1,,,,,,,,,
293299,2022-11-30_09h02.57.532,vts_reward_expectancy_bt,2022.2.4,Win32,59.77286312,Chrome,1756,1098,,,,,1,1257,,,,,,,,,,,,,,,,,H,146,hexagon,1,1,,,,,,,,,,,,,,,,repeat,letter,lettRpt,d,0.5321,Lo,,,,,,5,,,,,,,,high,22,0,22,0,1,,,,,,,,,
293299,2022-11-30_09h02.57.532,vts_reward_expectancy_bt,2022.2.4,Win32,59.77286312,Chrome,1756,1098,,,,,0,1257,,,,,,,,,,,,,,,,,F,125,triangle,1,0,,,,,,,,,,,,,,,,switch,number,numSwt,j,0.5328,Hi,,,,,,5,,,,,,,,high,23,0,23,0,1,,,,,,,,,
293299,2022-11-30_09h02.57.532,vts_reward_expectancy_bt,2022.2.4,Win32,59.77286312,Chrome,1756,1098,,,,,0,1257,,,,,,,,,,,,,,,,,D,125,triangle,1,0,,,,,,,,,,,,,,,,repeat,number,numRpt,j,0.5524,Hi,,,,,,5,,,,,,,,high,24,0,24,0,1,,,,,,,,,
293299,2022-11-30_09h02.57.532,vts_reward_expectancy_bt,2022.2.4,Win32,59.77286312,Chrome,1756,1098,,,,,0,1257,,,,,,,,,,,,,,,,,Y,181,hexagon,0,0,,,,,,,,,,,,,,,,repeat,number,NA,j,0.3173,Hi,,,,,,5,,,,,,,,high,25,0,25,0,1,,,,,,,,,
293299,2022-11-30_09h02.57.532,vts_reward_expectancy_bt,2022.2.4,Win32,59.77286312,Chrome,1756,1098,,,,,1,1258,,,,,,,,,,,,,,,,,S,132,star,1,1,,,,,,,,,,,,,,,,repeat,number,numRpt,j,0.3513,Lo,,,,,,5,,,,,,,,high,26,0,26,0,1,,,,,,,,,
293299,2022-11-30_09h02.57.532,vts_reward_expectancy_bt,2022.2.4,Win32,59.77286312,Chrome,1756,1098,,,,,10,1268,,,,,,,,,,,,,,,,,B,139,circle,1,0,,,,,,,,,,,,,,,,repeat,number,numRpt,j,0.3807,Hi,,,,,,5,,,,,,,,high,27,0,27,0,1,,,,,,,,,
293299,2022-11-30_09h02.57.532,vts_reward_expectancy_bt,2022.2.4,Win32,59.77286312,Chrome,1756,1098,,,,,10,1278,,,,,,,,,,,,,,,,,U,160,hexagon,1,0,,,,,,,,,,,,,,,,repeat,number,numRpt,k,0.3189,Lo,,,,,,5,,,,,,,,high,28,0,28,0,1,,,,,,,,,
293299,2022-11-30_09h02.57.532,vts_reward_expectancy_bt,2022.2.4,Win32,59.77286312,Chrome,1756,1098,,,,,1,1279,,,,,,,,,,,,,,,,,W,146,star,1,0,,,,,,,,,,,,,,,,repeat,number,numRpt,j,0.4505,Lo,,,,,,5,,,,,,,,high,29,0,29,0,1,,,,,,,,,
293299,2022-11-30_09h02.57.532,vts_reward_expectancy_bt,2022.2.4,Win32,59.77286312,Chrome,1756,1098,,,,,10,1289,,,,,,,,,,,,,,,,,H,174,triangle,1,0,,,,,,,,,,,,,,,,repeat,number,numRpt,k,0.4539,Hi,,,,,,5,,,,,,,,high,30,0,30,0,1,,,,,,,,,
293299,2022-11-30_09h02.57.532,vts_reward_expectancy_bt,2022.2.4,Win32,59.77286312,Chrome,1756,1098,,,,,0,1289,,,,,,,,,,,,,,,,,F,167,circle,1,0,,,,,,,,,,,,,,,,repeat,number,numRpt,k,0.4655,Hi,,,,,,5,,,,,,,,high,31,0,31,0,1,,,,,,,,,
293299,2022-11-30_09h02.57.532,vts_reward_expectancy_bt,2022.2.4,Win32,59.77286312,Chrome,1756,1098,,,,,1,1290,,,,,,,,,,,,,,,,,H,167,star,1,0,,,,,,,,,,,,,,,,switch,letter,lettSwt,d,0.5485,Lo,,,,,,6,,,,,,space,1.5282,high,0,0,0,0,1,,,,,,,,,
293299,2022-11-30_09h02.57.532,vts_reward_expectancy_bt,2022.2.4,Win32,59.77286312,Chrome,1756,1098,,,,,10,1300,,,,,,,,,,,,,,,,,S,139,triangle,1,0,,,,,,,,,,,,,,,,repeat,letter,lettRpt,f,0.3801,Hi,,,,,,6,,,,,,,,high,1,0,1,0,1,,,,,,,,,
293299,2022-11-30_09h02.57.532,vts_reward_expectancy_bt,2022.2.4,Win32,59.77286312,Chrome,1756,1098,,,,,0,1300,,,,,,,,,,,,,,,,,F,174,circle,0,0,,,,,,,,,,,,,,,,repeat,letter,NA,f,0.4973,Hi,,,,,,6,,,,,,,,high,2,0,2,0,1,,,,,,,,,
293299,2022-11-30_09h02.57.532,vts_reward_expectancy_bt,2022.2.4,Win32,59.77286312,Chrome,1756,1098,,,,,1,1301,,,,,,,,,,,,,,,,,U,132,hexagon,1,1,,,,,,,,,,,,,,,,repeat,letter,lettRpt,f,0.4637,Lo,,,,,,6,,,,,,,,high,3,0,3,0,1,,,,,,,,,
293299,2022-11-30_09h02.57.532,vts_reward_expectancy_bt,2022.2.4,Win32,59.77286312,Chrome,1756,1098,,,,,10,1311,,,,,,,,,,,,,,,,,W,181,star,1,0,,,,,,,,,,,,,,,,repeat,letter,lettRpt,f,0.6602,Lo,,,,,,6,,,,,,,,high,4,0,4,0,1,,,,,,,,,
293299,2022-11-30_09h02.57.532,vts_reward_expectancy_bt,2022.2.4,Win32,59.77286312,Chrome,1756,1098,,,,,10,1321,,,,,,,,,,,,,,,,,D,146,triangle,1,0,,,,,,,,,,,,,,,,repeat,letter,lettRpt,d,0.4795,Hi,,,,,,6,,,,,,,,high,5,0,5,0,1,,,,,,,,,
