participant,date,expName,psychopyVersion,OS,frameRate,browser,xResolution,yResolution,key_resp.keys,key_resp.rt,training_resp.keys,training_resp.rt,points_trial,points_cumul,trainBlock,training.thisRepN,training.thisTrialN,training.thisN,training.thisIndex,training.ran,LTriangleOpac,LCircleOpac,LHexagonOpac,LStarOpac,RTriangleOpac,RCircleOpac,RHexagonOpac,RStarOpac,LShape_ID,RShape_ID,curr_topStim,curr_bottStim,curr_shape,acc,E1,target_resp_prac1.keys,target_resp_prac1.rt,pracBlock,task1_prac_trials.thisRepN,task1_prac_trials.thisTrialN,task1_prac_trials.thisN,task1_prac_trials.thisIndex,task1_prac_trials.ran,target_resp_prac2.keys,target_resp_prac2.rt,task2_praac_trials.thisRepN,task2_praac_trials.thisTrialN,task2_praac_trials.thisN,task2_praac_trials.thisIndex,task2_praac_trials.ran,alt,task,condition,target_resp.keys,target_resp.rt,rewCond,vts_practice_trials.thisRepN,vts_practice_trials.thisTrialN,vts_practice_trials.thisN,vts_practice_trials.thisIndex,vts_practice_trials.ran,blockNum,trials_norew.thisRepN,trials_norew.thisTrialN,trials_norew.thisN,trials_norew.thisIndex,trials_norew.ran,key_resp_2.keys,key_resp_2.rt,rewExpectancy,trials_rew.thisRepN,trials_rew.thisTrialN,trials_rew.thisN,trials_rew.thisIndex,trials_rew.ran,Q1,Q2,Q2_text,Q3,Q4,Q5_text,Q5,xRes,yRes
293323,2022-11-16_08h25.14.938,vts_reward_expectancy_bt,2022.2.4,MacIntel,60.0024001,Chrome,1920,1200,,,,,,,,,,,,,,,,,,,,,,,,,,,,,,,,,,,,,,,,,,,,,,,,,,,,,,,,,,,,,,,,,,,,,,,,,,,,
293323,2022-11-16_08h25.14.938,vts_reward_expectancy_bt,2022.2.4,MacIntel,60.0024001,Chrome,1920,1200,space,19.3162,,,,,,,,,,,,,,,,,,,,,,,,,,,,,,,,,,,,,,,,,,,,,,,,,,,,,,,,,,,,,,,,,,,,,,,,,,
293323,2022-11-16_08h25.14.938,vts_reward_expectancy_bt,2022.2.4,MacIntel,60.0024001,Chrome,1920,1200,,,,,,,,,,,,,,,,,,,,,,,,,,,,,,,,,,,,,,,,,,,,,,,,,,,,,,,,,,,,,,,,,,,,,,,,,,,,
293323,2022-11-16_08h25.14.938,vts_reward_expectancy_bt,2022.2.4,MacIntel,60.0024001,Chrome,1920,1200,,,a,1.3765,1,1,0,0,0,0,7,1,0,0,1,0,0,1,0,0,hexagon,circle,,,,,,,,,,,,,,,,,,,,,,,,,,,,,,,,,,,,,,,,,,,,,,,,,,,,,,
293323,2022-11-16_08h25.14.938,vts_reward_expectancy_bt,2022.2.4,MacIntel,60.0024001,Chrome,1920,1200,,,l,0.9157,1,2,0,0,1,1,8,1,0,0,1,0,0,0,0,1,hexagon,star,,,,,,,,,,,,,,,,,,,,,,,,,,,,,,,,,,,,,,,,,,,,,,,,,,,,,,
293323,2022-11-16_08h25.14.938,vts_reward_expectancy_bt,2022.2.4,MacIntel,60.0024001,Chrome,1920,1200,,,l,0.5236,10,12,0,0,2,2,1,1,1,0,0,0,0,0,1,0,triangle,hexagon,,,,,,,,,,,,,,,,,,,,,,,,,,,,,,,,,,,,,,,,,,,,,,,,,,,,,,
293323,2022-11-16_08h25.14.938,vts_reward_expectancy_bt,2022.2.4,MacIntel,60.0024001,Chrome,1920,1200,,,a,1.917,1,13,0,0,3,3,4,1,0,1,0,0,0,0,1,0,circle,hexagon,,,,,,,,,,,,,,,,,,,,,,,,,,,,,,,,,,,,,,,,,,,,,,,,,,,,,,
293323,2022-11-16_08h25.14.938,vts_reward_expectancy_bt,2022.2.4,MacIntel,60.0024001,Chrome,1920,1200,,,a,1.1057,10,23,0,0,4,4,5,1,0,1,0,0,0,0,0,1,circle,star,,,,,,,,,,,,,,,,,,,,,,,,,,,,,,,,,,,,,,,,,,,,,,,,,,,,,,
293323,2022-11-16_08h25.14.938,vts_reward_expectancy_bt,2022.2.4,MacIntel,60.0024001,Chrome,1920,1200,,,l,0.9984,10,33,0,0,5,5,11,1,0,0,0,1,0,0,1,0,star,hexagon,,,,,,,,,,,,,,,,,,,,,,,,,,,,,,,,,,,,,,,,,,,,,,,,,,,,,,
293323,2022-11-16_08h25.14.938,vts_reward_expectancy_bt,2022.2.4,MacIntel,60.0024001,Chrome,1920,1200,,,l,0.8716,1,34,0,0,6,6,2,1,1,0,0,0,0,0,0,1,triangle,star,,,,,,,,,,,,,,,,,,,,,,,,,,,,,,,,,,,,,,,,,,,,,,,,,,,,,,
293323,2022-11-16_08h25.14.938,vts_reward_expectancy_bt,2022.2.4,MacIntel,60.0024001,Chrome,1920,1200,,,l,0.82,1,35,0,0,7,7,6,1,0,0,1,0,1,0,0,0,hexagon,triangle,,,,,,,,,,,,,,,,,,,,,,,,,,,,,,,,,,,,,,,,,,,,,,,,,,,,,,
293323,2022-11-16_08h25.14.938,vts_reward_expectancy_bt,2022.2.4,MacIntel,60.0024001,Chrome,1920,1200,,,l,1.62,1,36,0,0,8,8,10,1,0,0,0,1,0,1,0,0,star ,circle,,,,,,,,,,,,,,,,,,,,,,,,,,,,,,,,,,,,,,,,,,,,,,,,,,,,,,
293323,2022-11-16_08h25.14.938,vts_reward_expectancy_bt,2022.2.4,MacIntel,60.0024001,Chrome,1920,1200,,,a,1.2033,1,37,0,0,9,9,3,1,0,1,0,0,1,0,0,0,circle,triangle,,,,,,,,,,,,,,,,,,,,,,,,,,,,,,,,,,,,,,,,,,,,,,,,,,,,,,
293323,2022-11-16_08h25.14.938,vts_reward_expectancy_bt,2022.2.4,MacIntel,60.0024001,Chrome,1920,1200,,,l,1.5194,1,38,0,0,10,10,0,1,1,0,0,0,0,1,0,0,triangle,circle,,,,,,,,,,,,,,,,,,,,,,,,,,,,,,,,,,,,,,,,,,,,,,,,,,,,,,
293323,2022-11-16_08h25.14.938,vts_reward_expectancy_bt,2022.2.4,MacIntel,60.0024001,Chrome,1920,1200,,,a,0.9888,1,39,0,0,11,11,9,1,0,0,0,1,1,0,0,0,star,triangle,,,,,,,,,,,,,,,,,,,,,,,,,,,,,,,,,,,,,,,,,,,,,,,,,,,,,,
293323,2022-11-16_08h25.14.938,vts_reward_expectancy_bt,2022.2.4,MacIntel,60.0024001,Chrome,1920,1200,,,l,0.6037,1,40,0,1,0,12,2,1,1,0,0,0,0,0,0,1,triangle,star,,,,,,,,,,,,,,,,,,,,,,,,,,,,,,,,,,,,,,,,,,,,,,,,,,,,,,
293323,2022-11-16_08h25.14.938,vts_reward_expectancy_bt,2022.2.4,MacIntel,60.0024001,Chrome,1920,1200,,,a,0.9328,10,50,0,1,1,13,6,1,0,0,1,0,1,0,0,0,hexagon,triangle,,,,,,,,,,,,,,,,,,,,,,,,,,,,,,,,,,,,,,,,,,,,,,,,,,,,,,
293323,2022-11-16_08h25.14.938,vts_reward_expectancy_bt,2022.2.4,MacIntel,60.0024001,Chrome,1920,1200,,,a,0.9482,1,51,0,1,2,14,4,1,0,1,0,0,0,0,1,0,circle,hexagon,,,,,,,,,,,,,,,,,,,,,,,,,,,,,,,,,,,,,,,,,,,,,,,,,,,,,,
293323,2022-11-16_08h25.14.938,vts_reward_expectancy_bt,2022.2.4,MacIntel,60.0024001,Chrome,1920,1200,,,a,1.1098,1,52,0,1,3,15,5,1,0,1,0,0,0,0,0,1,circle,star,,,,,,,,,,,,,,,,,,,,,,,,,,,,,,,,,,,,,,,,,,,,,,,,,,,,,,
293323,2022-11-16_08h25.14.938,vts_reward_expectancy_bt,2022.2.4,MacIntel,60.0024001,Chrome,1920,1200,,,l,0.9686,1,53,0,1,4,16,8,1,0,0,1,0,0,0,0,1,hexagon,star,,,,,,,,,,,,,,,,,,,,,,,,,,,,,,,,,,,,,,,,,,,,,,,,,,,,,,
293323,2022-11-16_08h25.14.938,vts_reward_expectancy_bt,2022.2.4,MacIntel,60.0024001,Chrome,1920,1200,,,a,1.0879,1,54,0,1,5,17,9,1,0,0,0,1,1,0,0,0,star,triangle,,,,,,,,,,,,,,,,,,,,,,,,,,,,,,,,,,,,,,,,,,,,,,,,,,,,,,
293323,2022-11-16_08h25.14.938,vts_reward_expectancy_bt,2022.2.4,MacIntel,60.0024001,Chrome,1920,1200,,,a,0.9808,1,55,0,1,6,18,0,1,1,0,0,0,0,1,0,0,triangle,circle,,,,,,,,,,,,,,,,,,,,,,,,,,,,,,,,,,,,,,,,,,,,,,,,,,,,,,
293323,2022-11-16_08h25.14.938,vts_reward_expectancy_bt,2022.2.4,MacIntel,60.0024001,Chrome,1920,1200,,,l,1.9043,1,56,0,1,7,19,3,1,0,1,0,0,1,0,0,0,circle,triangle,,,,,,,,,,,,,,,,,,,,,,,,,,,,,,,,,,,,,,,,,,,,,,,,,,,,,,
293323,2022-11-16_08h25.14.938,vts_reward_expectancy_bt,2022.2.4,MacIntel,60.0024001,Chrome,1920,1200,,,l,1.1572,10,66,0,1,8,20,11,1,0,0,0,1,0,0,1,0,star,hexagon,,,,,,,,,,,,,,,,,,,,,,,,,,,,,,,,,,,,,,,,,,,,,,,,,,,,,,
293323,2022-11-16_08h25.14.938,vts_reward_expectancy_bt,2022.2.4,MacIntel,60.0024001,Chrome,1920,1200,,,l,0.5657,1,67,0,1,9,21,10,1,0,0,0,1,0,1,0,0,star ,circle,,,,,,,,,,,,,,,,,,,,,,,,,,,,,,,,,,,,,,,,,,,,,,,,,,,,,,
293323,2022-11-16_08h25.14.938,vts_reward_expectancy_bt,2022.2.4,MacIntel,60.0024001,Chrome,1920,1200,,,a,1.6709,1,68,0,1,10,22,1,1,1,0,0,0,0,0,1,0,triangle,hexagon,,,,,,,,,,,,,,,,,,,,,,,,,,,,,,,,,,,,,,,,,,,,,,,,,,,,,,
293323,2022-11-16_08h25.14.938,vts_reward_expectancy_bt,2022.2.4,MacIntel,60.0024001,Chrome,1920,1200,,,a,0.5417,1,69,0,1,11,23,7,1,0,0,1,0,0,1,0,0,hexagon,circle,,,,,,,,,,,,,,,,,,,,,,,,,,,,,,,,,,,,,,,,,,,,,,,,,,,,,,
293323,2022-11-16_08h25.14.938,vts_reward_expectancy_bt,2022.2.4,MacIntel,60.0024001,Chrome,1920,1200,,,a,0.5359,1,70,0,2,0,24,6,1,0,0,1,0,1,0,0,0,hexagon,triangle,,,,,,,,,,,,,,,,,,,,,,,,,,,,,,,,,,,,,,,,,,,,,,,,,,,,,,
293323,2022-11-16_08h25.14.938,vts_reward_expectancy_bt,2022.2.4,MacIntel,60.0024001,Chrome,1920,1200,,,a,0.7167,1,71,0,2,1,25,5,1,0,1,0,0,0,0,0,1,circle,star,,,,,,,,,,,,,,,,,,,,,,,,,,,,,,,,,,,,,,,,,,,,,,,,,,,,,,
293323,2022-11-16_08h25.14.938,vts_reward_expectancy_bt,2022.2.4,MacIntel,60.0024001,Chrome,1920,1200,,,a,0.4703,10,81,0,2,2,26,7,1,0,0,1,0,0,1,0,0,hexagon,circle,,,,,,,,,,,,,,,,,,,,,,,,,,,,,,,,,,,,,,,,,,,,,,,,,,,,,,
293323,2022-11-16_08h25.14.938,vts_reward_expectancy_bt,2022.2.4,MacIntel,60.0024001,Chrome,1920,1200,,,l,1.3321,10,91,0,2,3,27,1,1,1,0,0,0,0,0,1,0,triangle,hexagon,,,,,,,,,,,,,,,,,,,,,,,,,,,,,,,,,,,,,,,,,,,,,,,,,,,,,,
293323,2022-11-16_08h25.14.938,vts_reward_expectancy_bt,2022.2.4,MacIntel,60.0024001,Chrome,1920,1200,,,l,1.4998,1,92,0,2,4,28,10,1,0,0,0,1,0,1,0,0,star ,circle,,,,,,,,,,,,,,,,,,,,,,,,,,,,,,,,,,,,,,,,,,,,,,,,,,,,,,
293323,2022-11-16_08h25.14.938,vts_reward_expectancy_bt,2022.2.4,MacIntel,60.0024001,Chrome,1920,1200,,,a,0.6549,1,93,0,2,5,29,9,1,0,0,0,1,1,0,0,0,star,triangle,,,,,,,,,,,,,,,,,,,,,,,,,,,,,,,,,,,,,,,,,,,,,,,,,,,,,,
293323,2022-11-16_08h25.14.938,vts_reward_expectancy_bt,2022.2.4,MacIntel,60.0024001,Chrome,1920,1200,,,a,0.5388,1,94,0,2,6,30,2,1,1,0,0,0,0,0,0,1,triangle,star,,,,,,,,,,,,,,,,,,,,,,,,,,,,,,,,,,,,,,,,,,,,,,,,,,,,,,
293323,2022-11-16_08h25.14.938,vts_reward_expectancy_bt,2022.2.4,MacIntel,60.0024001,Chrome,1920,1200,,,a,0.7835,10,104,0,2,7,31,0,1,1,0,0,0,0,1,0,0,triangle,circle,,,,,,,,,,,,,,,,,,,,,,,,,,,,,,,,,,,,,,,,,,,,,,,,,,,,,,
293323,2022-11-16_08h25.14.938,vts_reward_expectancy_bt,2022.2.4,MacIntel,60.0024001,Chrome,1920,1200,,,a,1.7984,1,105,0,2,8,32,11,1,0,0,0,1,0,0,1,0,star,hexagon,,,,,,,,,,,,,,,,,,,,,,,,,,,,,,,,,,,,,,,,,,,,,,,,,,,,,,
293323,2022-11-16_08h25.14.938,vts_reward_expectancy_bt,2022.2.4,MacIntel,60.0024001,Chrome,1920,1200,,,a,0.6393,1,106,0,2,9,33,4,1,0,1,0,0,0,0,1,0,circle,hexagon,,,,,,,,,,,,,,,,,,,,,,,,,,,,,,,,,,,,,,,,,,,,,,,,,,,,,,
293323,2022-11-16_08h25.14.938,vts_reward_expectancy_bt,2022.2.4,MacIntel,60.0024001,Chrome,1920,1200,,,a,1.0534,1,107,0,2,10,34,3,1,0,1,0,0,1,0,0,0,circle,triangle,,,,,,,,,,,,,,,,,,,,,,,,,,,,,,,,,,,,,,,,,,,,,,,,,,,,,,
293323,2022-11-16_08h25.14.938,vts_reward_expectancy_bt,2022.2.4,MacIntel,60.0024001,Chrome,1920,1200,,,a,1.2892,10,117,0,2,11,35,8,1,0,0,1,0,0,0,0,1,hexagon,star,,,,,,,,,,,,,,,,,,,,,,,,,,,,,,,,,,,,,,,,,,,,,,,,,,,,,,
293323,2022-11-16_08h25.14.938,vts_reward_expectancy_bt,2022.2.4,MacIntel,60.0024001,Chrome,1920,1200,,,l,1.871,1,118,1,0,0,0,7,1,0,0,1,0,0,1,0,0,hexagon,circle,,,,,,,,,,,,,,,,,,,,,,,,,,,,,,,,,,,,,,,,,,,,,,,,,,,,,,
293323,2022-11-16_08h25.14.938,vts_reward_expectancy_bt,2022.2.4,MacIntel,60.0024001,Chrome,1920,1200,,,l,0.5066,10,128,1,0,1,1,4,1,0,1,0,0,0,0,1,0,circle,hexagon,,,,,,,,,,,,,,,,,,,,,,,,,,,,,,,,,,,,,,,,,,,,,,,,,,,,,,
293323,2022-11-16_08h25.14.938,vts_reward_expectancy_bt,2022.2.4,MacIntel,60.0024001,Chrome,1920,1200,,,l,0.3556,10,138,1,0,2,2,9,1,0,0,0,1,1,0,0,0,star,triangle,,,,,,,,,,,,,,,,,,,,,,,,,,,,,,,,,,,,,,,,,,,,,,,,,,,,,,
293323,2022-11-16_08h25.14.938,vts_reward_expectancy_bt,2022.2.4,MacIntel,60.0024001,Chrome,1920,1200,,,l,0.4167,1,139,1,0,3,3,11,1,0,0,0,1,0,0,1,0,star,hexagon,,,,,,,,,,,,,,,,,,,,,,,,,,,,,,,,,,,,,,,,,,,,,,,,,,,,,,
293323,2022-11-16_08h25.14.938,vts_reward_expectancy_bt,2022.2.4,MacIntel,60.0024001,Chrome,1920,1200,,,a,0.3845,10,149,1,0,4,4,8,1,0,0,1,0,0,0,0,1,hexagon,star,,,,,,,,,,,,,,,,,,,,,,,,,,,,,,,,,,,,,,,,,,,,,,,,,,,,,,
293323,2022-11-16_08h25.14.938,vts_reward_expectancy_bt,2022.2.4,MacIntel,60.0024001,Chrome,1920,1200,,,a,1.4994,1,150,1,0,5,5,1,1,1,0,0,0,0,0,1,0,triangle,hexagon,,,,,,,,,,,,,,,,,,,,,,,,,,,,,,,,,,,,,,,,,,,,,,,,,,,,,,
293323,2022-11-16_08h25.14.938,vts_reward_expectancy_bt,2022.2.4,MacIntel,60.0024001,Chrome,1920,1200,,,l,0.2868,1,151,1,0,6,6,5,1,0,1,0,0,0,0,0,1,circle,star,,,,,,,,,,,,,,,,,,,,,,,,,,,,,,,,,,,,,,,,,,,,,,,,,,,,,,
293323,2022-11-16_08h25.14.938,vts_reward_expectancy_bt,2022.2.4,MacIntel,60.0024001,Chrome,1920,1200,,,l,0.3863,1,152,1,0,7,7,2,1,1,0,0,0,0,0,0,1,triangle,star,,,,,,,,,,,,,,,,,,,,,,,,,,,,,,,,,,,,,,,,,,,,,,,,,,,,,,
293323,2022-11-16_08h25.14.938,vts_reward_expectancy_bt,2022.2.4,MacIntel,60.0024001,Chrome,1920,1200,,,l,0.351,10,162,1,0,8,8,6,1,0,0,1,0,1,0,0,0,hexagon,triangle,,,,,,,,,,,,,,,,,,,,,,,,,,,,,,,,,,,,,,,,,,,,,,,,,,,,,,
293323,2022-11-16_08h25.14.938,vts_reward_expectancy_bt,2022.2.4,MacIntel,60.0024001,Chrome,1920,1200,,,a,0.4983,1,163,1,0,9,9,3,1,0,1,0,0,1,0,0,0,circle,triangle,,,,,,,,,,,,,,,,,,,,,,,,,,,,,,,,,,,,,,,,,,,,,,,,,,,,,,
293323,2022-11-16_08h25.14.938,vts_reward_expectancy_bt,2022.2.4,MacIntel,60.0024001,Chrome,1920,1200,,,l,1.7896,1,164,1,0,10,10,0,1,1,0,0,0,0,1,0,0,triangle,circle,,,,,,,,,,,,,,,,,,,,,,,,,,,,,,,,,,,,,,,,,,,,,,,,,,,,,,
293323,2022-11-16_08h25.14.938,vts_reward_expectancy_bt,2022.2.4,MacIntel,60.0024001,Chrome,1920,1200,,,l,0.8234,1,165,1,0,11,11,10,1,0,0,0,1,0,1,0,0,star ,circle,,,,,,,,,,,,,,,,,,,,,,,,,,,,,,,,,,,,,,,,,,,,,,,,,,,,,,
293323,2022-11-16_08h25.14.938,vts_reward_expectancy_bt,2022.2.4,MacIntel,60.0024001,Chrome,1920,1200,,,l,0.2953,10,175,1,1,0,12,3,1,0,1,0,0,1,0,0,0,circle,triangle,,,,,,,,,,,,,,,,,,,,,,,,,,,,,,,,,,,,,,,,,,,,,,,,,,,,,,
293323,2022-11-16_08h25.14.938,vts_reward_expectancy_bt,2022.2.4,MacIntel,60.0024001,Chrome,1920,1200,,,a,0.6649,1,176,1,1,1,13,7,1,0,0,1,0,0,1,0,0,hexagon,circle,,,,,,,,,,,,,,,,,,,,,,,,,,,,,,,,,,,,,,,,,,,,,,,,,,,,,,
293323,2022-11-16_08h25.14.938,vts_reward_expectancy_bt,2022.2.4,MacIntel,60.0024001,Chrome,1920,1200,,,l,0.3084,1,177,1,1,2,14,0,1,1,0,0,0,0,1,0,0,triangle,circle,,,,,,,,,,,,,,,,,,,,,,,,,,,,,,,,,,,,,,,,,,,,,,,,,,,,,,
293323,2022-11-16_08h25.14.938,vts_reward_expectancy_bt,2022.2.4,MacIntel,60.0024001,Chrome,1920,1200,,,a,0.3645,10,187,1,1,3,15,6,1,0,0,1,0,1,0,0,0,hexagon,triangle,,,,,,,,,,,,,,,,,,,,,,,,,,,,,,,,,,,,,,,,,,,,,,,,,,,,,,
293323,2022-11-16_08h25.14.938,vts_reward_expectancy_bt,2022.2.4,MacIntel,60.0024001,Chrome,1920,1200,,,l,0.0651,10,197,1,1,4,16,2,1,1,0,0,0,0,0,0,1,triangle,star,,,,,,,,,,,,,,,,,,,,,,,,,,,,,,,,,,,,,,,,,,,,,,,,,,,,,,
293323,2022-11-16_08h25.14.938,vts_reward_expectancy_bt,2022.2.4,MacIntel,60.0024001,Chrome,1920,1200,,,a,0.3331,1,198,1,1,5,17,4,1,0,1,0,0,0,0,1,0,circle,hexagon,,,,,,,,,,,,,,,,,,,,,,,,,,,,,,,,,,,,,,,,,,,,,,,,,,,,,,
293323,2022-11-16_08h25.14.938,vts_reward_expectancy_bt,2022.2.4,MacIntel,60.0024001,Chrome,1920,1200,,,l,0.4326,1,199,1,1,6,18,10,1,0,0,0,1,0,1,0,0,star ,circle,,,,,,,,,,,,,,,,,,,,,,,,,,,,,,,,,,,,,,,,,,,,,,,,,,,,,,
293323,2022-11-16_08h25.14.938,vts_reward_expectancy_bt,2022.2.4,MacIntel,60.0024001,Chrome,1920,1200,,,a,0.4805,10,209,1,1,7,19,8,1,0,0,1,0,0,0,0,1,hexagon,star,,,,,,,,,,,,,,,,,,,,,,,,,,,,,,,,,,,,,,,,,,,,,,,,,,,,,,
293323,2022-11-16_08h25.14.938,vts_reward_expectancy_bt,2022.2.4,MacIntel,60.0024001,Chrome,1920,1200,,,l,0.4561,10,219,1,1,8,20,11,1,0,0,0,1,0,0,1,0,star,hexagon,,,,,,,,,,,,,,,,,,,,,,,,,,,,,,,,,,,,,,,,,,,,,,,,,,,,,,
293323,2022-11-16_08h25.14.938,vts_reward_expectancy_bt,2022.2.4,MacIntel,60.0024001,Chrome,1920,1200,,,a,0.619,10,229,1,1,9,21,1,1,1,0,0,0,0,0,1,0,triangle,hexagon,,,,,,,,,,,,,,,,,,,,,,,,,,,,,,,,,,,,,,,,,,,,,,,,,,,,,,
293323,2022-11-16_08h25.14.938,vts_reward_expectancy_bt,2022.2.4,MacIntel,60.0024001,Chrome,1920,1200,,,l,0.5657,1,230,1,1,10,22,5,1,0,1,0,0,0,0,0,1,circle,star,,,,,,,,,,,,,,,,,,,,,,,,,,,,,,,,,,,,,,,,,,,,,,,,,,,,,,
293323,2022-11-16_08h25.14.938,vts_reward_expectancy_bt,2022.2.4,MacIntel,60.0024001,Chrome,1920,1200,,,a,0.6154,10,240,1,1,11,23,9,1,0,0,0,1,1,0,0,0,star,triangle,,,,,,,,,,,,,,,,,,,,,,,,,,,,,,,,,,,,,,,,,,,,,,,,,,,,,,
293323,2022-11-16_08h25.14.938,vts_reward_expectancy_bt,2022.2.4,MacIntel,60.0024001,Chrome,1920,1200,,,l,0.5543,1,241,1,2,0,24,2,1,1,0,0,0,0,0,0,1,triangle,star,,,,,,,,,,,,,,,,,,,,,,,,,,,,,,,,,,,,,,,,,,,,,,,,,,,,,,
293323,2022-11-16_08h25.14.938,vts_reward_expectancy_bt,2022.2.4,MacIntel,60.0024001,Chrome,1920,1200,,,a,0.8167,1,242,1,2,1,25,3,1,0,1,0,0,1,0,0,0,circle,triangle,,,,,,,,,,,,,,,,,,,,,,,,,,,,,,,,,,,,,,,,,,,,,,,,,,,,,,
293323,2022-11-16_08h25.14.938,vts_reward_expectancy_bt,2022.2.4,MacIntel,60.0024001,Chrome,1920,1200,,,l,0.348,1,243,1,2,2,26,0,1,1,0,0,0,0,1,0,0,triangle,circle,,,,,,,,,,,,,,,,,,,,,,,,,,,,,,,,,,,,,,,,,,,,,,,,,,,,,,
293323,2022-11-16_08h25.14.938,vts_reward_expectancy_bt,2022.2.4,MacIntel,60.0024001,Chrome,1920,1200,,,a,0.7712,10,253,1,2,3,27,4,1,0,1,0,0,0,0,1,0,circle,hexagon,,,,,,,,,,,,,,,,,,,,,,,,,,,,,,,,,,,,,,,,,,,,,,,,,,,,,,
293323,2022-11-16_08h25.14.938,vts_reward_expectancy_bt,2022.2.4,MacIntel,60.0024001,Chrome,1920,1200,,,l,0.404,1,254,1,2,4,28,5,1,0,1,0,0,0,0,0,1,circle,star,,,,,,,,,,,,,,,,,,,,,,,,,,,,,,,,,,,,,,,,,,,,,,,,,,,,,,
293323,2022-11-16_08h25.14.938,vts_reward_expectancy_bt,2022.2.4,MacIntel,60.0024001,Chrome,1920,1200,,,a,0.7522,1,255,1,2,5,29,9,1,0,0,0,1,1,0,0,0,star,triangle,,,,,,,,,,,,,,,,,,,,,,,,,,,,,,,,,,,,,,,,,,,,,,,,,,,,,,
293323,2022-11-16_08h25.14.938,vts_reward_expectancy_bt,2022.2.4,MacIntel,60.0024001,Chrome,1920,1200,,,l,0.5386,1,256,1,2,6,30,10,1,0,0,0,1,0,1,0,0,star ,circle,,,,,,,,,,,,,,,,,,,,,,,,,,,,,,,,,,,,,,,,,,,,,,,,,,,,,,
293323,2022-11-16_08h25.14.938,vts_reward_expectancy_bt,2022.2.4,MacIntel,60.0024001,Chrome,1920,1200,,,a,0.5504,10,266,1,2,7,31,7,1,0,0,1,0,0,1,0,0,hexagon,circle,,,,,,,,,,,,,,,,,,,,,,,,,,,,,,,,,,,,,,,,,,,,,,,,,,,,,,
293323,2022-11-16_08h25.14.938,vts_reward_expectancy_bt,2022.2.4,MacIntel,60.0024001,Chrome,1920,1200,,,a,0.5498,10,276,1,2,8,32,6,1,0,0,1,0,1,0,0,0,hexagon,triangle,,,,,,,,,,,,,,,,,,,,,,,,,,,,,,,,,,,,,,,,,,,,,,,,,,,,,,
293323,2022-11-16_08h25.14.938,vts_reward_expectancy_bt,2022.2.4,MacIntel,60.0024001,Chrome,1920,1200,,,l,0.4014,1,277,1,2,9,33,8,1,0,0,1,0,0,0,0,1,hexagon,star,,,,,,,,,,,,,,,,,,,,,,,,,,,,,,,,,,,,,,,,,,,,,,,,,,,,,,
293323,2022-11-16_08h25.14.938,vts_reward_expectancy_bt,2022.2.4,MacIntel,60.0024001,Chrome,1920,1200,,,a,0.4404,10,287,1,2,10,34,11,1,0,0,0,1,0,0,1,0,star,hexagon,,,,,,,,,,,,,,,,,,,,,,,,,,,,,,,,,,,,,,,,,,,,,,,,,,,,,,
293323,2022-11-16_08h25.14.938,vts_reward_expectancy_bt,2022.2.4,MacIntel,60.0024001,Chrome,1920,1200,,,a,0.6328,10,297,1,2,11,35,1,1,1,0,0,0,0,0,1,0,triangle,hexagon,,,,,,,,,,,,,,,,,,,,,,,,,,,,,,,,,,,,,,,,,,,,,,,,,,,,,,
293323,2022-11-16_08h25.14.938,vts_reward_expectancy_bt,2022.2.4,MacIntel,60.0024001,Chrome,1920,1200,,,l,1.7606,1,298,2,0,0,0,10,1,0,0,0,1,0,1,0,0,star ,circle,,,,,,,,,,,,,,,,,,,,,,,,,,,,,,,,,,,,,,,,,,,,,,,,,,,,,,
293323,2022-11-16_08h25.14.938,vts_reward_expectancy_bt,2022.2.4,MacIntel,60.0024001,Chrome,1920,1200,,,l,0.3036,1,299,2,0,1,1,0,1,1,0,0,0,0,1,0,0,triangle,circle,,,,,,,,,,,,,,,,,,,,,,,,,,,,,,,,,,,,,,,,,,,,,,,,,,,,,,
293323,2022-11-16_08h25.14.938,vts_reward_expectancy_bt,2022.2.4,MacIntel,60.0024001,Chrome,1920,1200,,,l,0.2387,1,300,2,0,2,2,5,1,0,1,0,0,0,0,0,1,circle,star,,,,,,,,,,,,,,,,,,,,,,,,,,,,,,,,,,,,,,,,,,,,,,,,,,,,,,
293323,2022-11-16_08h25.14.938,vts_reward_expectancy_bt,2022.2.4,MacIntel,60.0024001,Chrome,1920,1200,,,l,0.3164,1,301,2,0,3,3,4,1,0,1,0,0,0,0,1,0,circle,hexagon,,,,,,,,,,,,,,,,,,,,,,,,,,,,,,,,,,,,,,,,,,,,,,,,,,,,,,
293323,2022-11-16_08h25.14.938,vts_reward_expectancy_bt,2022.2.4,MacIntel,60.0024001,Chrome,1920,1200,,,l,0.4636,1,302,2,0,4,4,8,1,0,0,1,0,0,0,0,1,hexagon,star,,,,,,,,,,,,,,,,,,,,,,,,,,,,,,,,,,,,,,,,,,,,,,,,,,,,,,
293323,2022-11-16_08h25.14.938,vts_reward_expectancy_bt,2022.2.4,MacIntel,60.0024001,Chrome,1920,1200,,,l,0.566,10,312,2,0,5,5,6,1,0,0,1,0,1,0,0,0,hexagon,triangle,,,,,,,,,,,,,,,,,,,,,,,,,,,,,,,,,,,,,,,,,,,,,,,,,,,,,,
293323,2022-11-16_08h25.14.938,vts_reward_expectancy_bt,2022.2.4,MacIntel,60.0024001,Chrome,1920,1200,,,l,0.5519,10,322,2,0,6,6,9,1,0,0,0,1,1,0,0,0,star,triangle,,,,,,,,,,,,,,,,,,,,,,,,,,,,,,,,,,,,,,,,,,,,,,,,,,,,,,
293323,2022-11-16_08h25.14.938,vts_reward_expectancy_bt,2022.2.4,MacIntel,60.0024001,Chrome,1920,1200,,,a,0.3896,10,332,2,0,7,7,7,1,0,0,1,0,0,1,0,0,hexagon,circle,,,,,,,,,,,,,,,,,,,,,,,,,,,,,,,,,,,,,,,,,,,,,,,,,,,,,,
293323,2022-11-16_08h25.14.938,vts_reward_expectancy_bt,2022.2.4,MacIntel,60.0024001,Chrome,1920,1200,,,a,0.4318,10,342,2,0,8,8,1,1,1,0,0,0,0,0,1,0,triangle,hexagon,,,,,,,,,,,,,,,,,,,,,,,,,,,,,,,,,,,,,,,,,,,,,,,,,,,,,,
293323,2022-11-16_08h25.14.938,vts_reward_expectancy_bt,2022.2.4,MacIntel,60.0024001,Chrome,1920,1200,,,l,0.5841,10,352,2,0,9,9,11,1,0,0,0,1,0,0,1,0,star,hexagon,,,,,,,,,,,,,,,,,,,,,,,,,,,,,,,,,,,,,,,,,,,,,,,,,,,,,,
293323,2022-11-16_08h25.14.938,vts_reward_expectancy_bt,2022.2.4,MacIntel,60.0024001,Chrome,1920,1200,,,l,0.4307,10,362,2,0,10,10,3,1,0,1,0,0,1,0,0,0,circle,triangle,,,,,,,,,,,,,,,,,,,,,,,,,,,,,,,,,,,,,,,,,,,,,,,,,,,,,,
293323,2022-11-16_08h25.14.938,vts_reward_expectancy_bt,2022.2.4,MacIntel,60.0024001,Chrome,1920,1200,,,a,0.5084,10,372,2,0,11,11,2,1,1,0,0,0,0,0,0,1,triangle,star,,,,,,,,,,,,,,,,,,,,,,,,,,,,,,,,,,,,,,,,,,,,,,,,,,,,,,
293323,2022-11-16_08h25.14.938,vts_reward_expectancy_bt,2022.2.4,MacIntel,60.0024001,Chrome,1920,1200,,,a,0.4867,10,382,2,1,0,12,0,1,1,0,0,0,0,1,0,0,triangle,circle,,,,,,,,,,,,,,,,,,,,,,,,,,,,,,,,,,,,,,,,,,,,,,,,,,,,,,
293323,2022-11-16_08h25.14.938,vts_reward_expectancy_bt,2022.2.4,MacIntel,60.0024001,Chrome,1920,1200,,,l,0.4157,10,392,2,1,1,13,8,1,0,0,1,0,0,0,0,1,hexagon,star,,,,,,,,,,,,,,,,,,,,,,,,,,,,,,,,,,,,,,,,,,,,,,,,,,,,,,
293323,2022-11-16_08h25.14.938,vts_reward_expectancy_bt,2022.2.4,MacIntel,60.0024001,Chrome,1920,1200,,,l,0.3506,10,402,2,1,2,14,1,1,1,0,0,0,0,0,1,0,triangle,hexagon,,,,,,,,,,,,,,,,,,,,,,,,,,,,,,,,,,,,,,,,,,,,,,,,,,,,,,
293323,2022-11-16_08h25.14.938,vts_reward_expectancy_bt,2022.2.4,MacIntel,60.0024001,Chrome,1920,1200,,,a,0.4037,1,403,2,1,3,15,3,1,0,1,0,0,1,0,0,0,circle,triangle,,,,,,,,,,,,,,,,,,,,,,,,,,,,,,,,,,,,,,,,,,,,,,,,,,,,,,
293323,2022-11-16_08h25.14.938,vts_reward_expectancy_bt,2022.2.4,MacIntel,60.0024001,Chrome,1920,1200,,,a,0.4002,10,413,2,1,4,16,9,1,0,0,0,1,1,0,0,0,star,triangle,,,,,,,,,,,,,,,,,,,,,,,,,,,,,,,,,,,,,,,,,,,,,,,,,,,,,,
293323,2022-11-16_08h25.14.938,vts_reward_expectancy_bt,2022.2.4,MacIntel,60.0024001,Chrome,1920,1200,,,a,0.3821,1,414,2,1,5,17,7,1,0,0,1,0,0,1,0,0,hexagon,circle,,,,,,,,,,,,,,,,,,,,,,,,,,,,,,,,,,,,,,,,,,,,,,,,,,,,,,
293323,2022-11-16_08h25.14.938,vts_reward_expectancy_bt,2022.2.4,MacIntel,60.0024001,Chrome,1920,1200,,,l,0.2488,1,415,2,1,6,18,2,1,1,0,0,0,0,0,0,1,triangle,star,,,,,,,,,,,,,,,,,,,,,,,,,,,,,,,,,,,,,,,,,,,,,,,,,,,,,,
293323,2022-11-16_08h25.14.938,vts_reward_expectancy_bt,2022.2.4,MacIntel,60.0024001,Chrome,1920,1200,,,l,0.9986,10,425,2,1,7,19,11,1,0,0,0,1,0,0,1,0,star,hexagon,,,,,,,,,,,,,,,,,,,,,,,,,,,,,,,,,,,,,,,,,,,,,,,,,,,,,,
293323,2022-11-16_08h25.14.938,vts_reward_expectancy_bt,2022.2.4,MacIntel,60.0024001,Chrome,1920,1200,,,l,0.574,10,435,2,1,8,20,4,1,0,1,0,0,0,0,1,0,circle,hexagon,,,,,,,,,,,,,,,,,,,,,,,,,,,,,,,,,,,,,,,,,,,,,,,,,,,,,,
293323,2022-11-16_08h25.14.938,vts_reward_expectancy_bt,2022.2.4,MacIntel,60.0024001,Chrome,1920,1200,,,a,0.4005,1,436,2,1,9,21,5,1,0,1,0,0,0,0,0,1,circle,star,,,,,,,,,,,,,,,,,,,,,,,,,,,,,,,,,,,,,,,,,,,,,,,,,,,,,,
293323,2022-11-16_08h25.14.938,vts_reward_expectancy_bt,2022.2.4,MacIntel,60.0024001,Chrome,1920,1200,,,a,0.3653,1,437,2,1,10,22,6,1,0,0,1,0,1,0,0,0,hexagon,triangle,,,,,,,,,,,,,,,,,,,,,,,,,,,,,,,,,,,,,,,,,,,,,,,,,,,,,,
293323,2022-11-16_08h25.14.938,vts_reward_expectancy_bt,2022.2.4,MacIntel,60.0024001,Chrome,1920,1200,,,a,0.5058,1,438,2,1,11,23,10,1,0,0,0,1,0,1,0,0,star ,circle,,,,,,,,,,,,,,,,,,,,,,,,,,,,,,,,,,,,,,,,,,,,,,,,,,,,,,
293323,2022-11-16_08h25.14.938,vts_reward_expectancy_bt,2022.2.4,MacIntel,60.0024001,Chrome,1920,1200,,,a,0.5001,10,448,2,2,0,24,6,1,0,0,1,0,1,0,0,0,hexagon,triangle,,,,,,,,,,,,,,,,,,,,,,,,,,,,,,,,,,,,,,,,,,,,,,,,,,,,,,
293323,2022-11-16_08h25.14.938,vts_reward_expectancy_bt,2022.2.4,MacIntel,60.0024001,Chrome,1920,1200,,,a,0.3479,10,458,2,2,1,25,1,1,1,0,0,0,0,0,1,0,triangle,hexagon,,,,,,,,,,,,,,,,,,,,,,,,,,,,,,,,,,,,,,,,,,,,,,,,,,,,,,
293323,2022-11-16_08h25.14.938,vts_reward_expectancy_bt,2022.2.4,MacIntel,60.0024001,Chrome,1920,1200,,,l,0.099,1,459,2,2,2,26,10,1,0,0,0,1,0,1,0,0,star ,circle,,,,,,,,,,,,,,,,,,,,,,,,,,,,,,,,,,,,,,,,,,,,,,,,,,,,,,
293323,2022-11-16_08h25.14.938,vts_reward_expectancy_bt,2022.2.4,MacIntel,60.0024001,Chrome,1920,1200,,,l,0.5492,10,469,2,2,3,27,3,1,0,1,0,0,1,0,0,0,circle,triangle,,,,,,,,,,,,,,,,,,,,,,,,,,,,,,,,,,,,,,,,,,,,,,,,,,,,,,
293323,2022-11-16_08h25.14.938,vts_reward_expectancy_bt,2022.2.4,MacIntel,60.0024001,Chrome,1920,1200,,,l,0.5895,1,470,2,2,4,28,7,1,0,0,1,0,0,1,0,0,hexagon,circle,,,,,,,,,,,,,,,,,,,,,,,,,,,,,,,,,,,,,,,,,,,,,,,,,,,,,,
293323,2022-11-16_08h25.14.938,vts_reward_expectancy_bt,2022.2.4,MacIntel,60.0024001,Chrome,1920,1200,,,l,0.7814,1,471,2,2,5,29,2,1,1,0,0,0,0,0,0,1,triangle,star,,,,,,,,,,,,,,,,,,,,,,,,,,,,,,,,,,,,,,,,,,,,,,,,,,,,,,
293323,2022-11-16_08h25.14.938,vts_reward_expectancy_bt,2022.2.4,MacIntel,60.0024001,Chrome,1920,1200,,,l,0.5836,10,481,2,2,6,30,9,1,0,0,0,1,1,0,0,0,star,triangle,,,,,,,,,,,,,,,,,,,,,,,,,,,,,,,,,,,,,,,,,,,,,,,,,,,,,,
293323,2022-11-16_08h25.14.938,vts_reward_expectancy_bt,2022.2.4,MacIntel,60.0024001,Chrome,1920,1200,,,l,0.5053,1,482,2,2,7,31,8,1,0,0,1,0,0,0,0,1,hexagon,star,,,,,,,,,,,,,,,,,,,,,,,,,,,,,,,,,,,,,,,,,,,,,,,,,,,,,,
293323,2022-11-16_08h25.14.938,vts_reward_expectancy_bt,2022.2.4,MacIntel,60.0024001,Chrome,1920,1200,,,a,0.5332,1,483,2,2,8,32,11,1,0,0,0,1,0,0,1,0,star,hexagon,,,,,,,,,,,,,,,,,,,,,,,,,,,,,,,,,,,,,,,,,,,,,,,,,,,,,,
293323,2022-11-16_08h25.14.938,vts_reward_expectancy_bt,2022.2.4,MacIntel,60.0024001,Chrome,1920,1200,,,a,0.4499,1,484,2,2,9,33,4,1,0,1,0,0,0,0,1,0,circle,hexagon,,,,,,,,,,,,,,,,,,,,,,,,,,,,,,,,,,,,,,,,,,,,,,,,,,,,,,
293323,2022-11-16_08h25.14.938,vts_reward_expectancy_bt,2022.2.4,MacIntel,60.0024001,Chrome,1920,1200,,,a,0.3491,1,485,2,2,10,34,0,1,1,0,0,0,0,1,0,0,triangle,circle,,,,,,,,,,,,,,,,,,,,,,,,,,,,,,,,,,,,,,,,,,,,,,,,,,,,,,
293323,2022-11-16_08h25.14.938,vts_reward_expectancy_bt,2022.2.4,MacIntel,60.0024001,Chrome,1920,1200,,,a,0.42,1,486,2,2,11,35,5,1,0,1,0,0,0,0,0,1,circle,star,,,,,,,,,,,,,,,,,,,,,,,,,,,,,,,,,,,,,,,,,,,,,,,,,,,,,,
293323,2022-11-16_08h25.14.938,vts_reward_expectancy_bt,2022.2.4,MacIntel,60.0024001,Chrome,1920,1200,,,,,,,,,,,,,,,,,,,,,,,F,125,triangle,1,0,d,0.9262,0,0,0,0,0,1,,,,,,,,,,,,,,,,,,,,,,,,,,,,,,,,,,,,,,,,,
293323,2022-11-16_08h25.14.938,vts_reward_expectancy_bt,2022.2.4,MacIntel,60.0024001,Chrome,1920,1200,,,,,,,,,,,,,,,,,,,,,,,Y,160,star,1,0,f,0.6104,0,1,0,1,0,1,,,,,,,,,,,,,,,,,,,,,,,,,,,,,,,,,,,,,,,,,
293323,2022-11-16_08h25.14.938,vts_reward_expectancy_bt,2022.2.4,MacIntel,60.0024001,Chrome,1920,1200,,,,,,,,,,,,,,,,,,,,,,,H,139,hexagon,1,0,d,0.6576,0,2,0,2,0,1,,,,,,,,,,,,,,,,,,,,,,,,,,,,,,,,,,,,,,,,,
293323,2022-11-16_08h25.14.938,vts_reward_expectancy_bt,2022.2.4,MacIntel,60.0024001,Chrome,1920,1200,,,,,,,,,,,,,,,,,,,,,,,U,132,circle,1,0,f,0.6903,0,3,0,3,0,1,,,,,,,,,,,,,,,,,,,,,,,,,,,,,,,,,,,,,,,,,
293323,2022-11-16_08h25.14.938,vts_reward_expectancy_bt,2022.2.4,MacIntel,60.0024001,Chrome,1920,1200,,,,,,,,,,,,,,,,,,,,,,,B,146,triangle,1,0,d,0.5731,0,4,0,4,0,1,,,,,,,,,,,,,,,,,,,,,,,,,,,,,,,,,,,,,,,,,
293323,2022-11-16_08h25.14.938,vts_reward_expectancy_bt,2022.2.4,MacIntel,60.0024001,Chrome,1920,1200,,,,,,,,,,,,,,,,,,,,,,,W,174,star,1,0,f,0.9395,0,5,0,5,0,1,,,,,,,,,,,,,,,,,,,,,,,,,,,,,,,,,,,,,,,,,
293323,2022-11-16_08h25.14.938,vts_reward_expectancy_bt,2022.2.4,MacIntel,60.0024001,Chrome,1920,1200,,,,,,,,,,,,,,,,,,,,,,,D,167,hexagon,1,0,d,0.8067,0,6,0,6,0,1,,,,,,,,,,,,,,,,,,,,,,,,,,,,,,,,,,,,,,,,,
293323,2022-11-16_08h25.14.938,vts_reward_expectancy_bt,2022.2.4,MacIntel,60.0024001,Chrome,1920,1200,,,,,,,,,,,,,,,,,,,,,,,S,181,circle,1,0,f,0.8456,0,7,0,7,0,1,,,,,,,,,,,,,,,,,,,,,,,,,,,,,,,,,,,,,,,,,
293323,2022-11-16_08h25.14.938,vts_reward_expectancy_bt,2022.2.4,MacIntel,60.0024001,Chrome,1920,1200,,,,,,,,,,,,,,,,,,,,,,,F,125,hexagon,1,0,d,0.9743,0,8,0,8,0,1,,,,,,,,,,,,,,,,,,,,,,,,,,,,,,,,,,,,,,,,,
293323,2022-11-16_08h25.14.938,vts_reward_expectancy_bt,2022.2.4,MacIntel,60.0024001,Chrome,1920,1200,,,,,,,,,,,,,,,,,,,,,,,Y,160,star,1,0,f,0.6951,0,9,0,9,0,1,,,,,,,,,,,,,,,,,,,,,,,,,,,,,,,,,,,,,,,,,
293323,2022-11-16_08h25.14.938,vts_reward_expectancy_bt,2022.2.4,MacIntel,60.0024001,Chrome,1920,1200,,,,,,,,,,,,,,,,,,,,,,,S,139,star,1,0,,,1,,,,,,j,0.5126,0,0,0,0,1,,,,,,,,,,,,,,,,,,,,,,,,,,,,,,,,,,
293323,2022-11-16_08h25.14.938,vts_reward_expectancy_bt,2022.2.4,MacIntel,60.0024001,Chrome,1920,1200,,,,,,,,,,,,,,,,,,,,,,,W,146,triangle,1,0,,,1,,,,,,j,0.7623,1,0,1,0,1,,,,,,,,,,,,,,,,,,,,,,,,,,,,,,,,,,
293323,2022-11-16_08h25.14.938,vts_reward_expectancy_bt,2022.2.4,MacIntel,60.0024001,Chrome,1920,1200,,,,,,,,,,,,,,,,,,,,,,,H,181,hexagon,1,0,,,1,,,,,,k,0.6891,2,0,2,0,1,,,,,,,,,,,,,,,,,,,,,,,,,,,,,,,,,,
293323,2022-11-16_08h25.14.938,vts_reward_expectancy_bt,2022.2.4,MacIntel,60.0024001,Chrome,1920,1200,,,,,,,,,,,,,,,,,,,,,,,D,125,circle,1,0,,,1,,,,,,j,1.1069,3,0,3,0,1,,,,,,,,,,,,,,,,,,,,,,,,,,,,,,,,,,
293323,2022-11-16_08h25.14.938,vts_reward_expectancy_bt,2022.2.4,MacIntel,60.0024001,Chrome,1920,1200,,,,,,,,,,,,,,,,,,,,,,,F,167,star,1,0,,,1,,,,,,k,0.8238,4,0,4,0,1,,,,,,,,,,,,,,,,,,,,,,,,,,,,,,,,,,
293323,2022-11-16_08h25.14.938,vts_reward_expectancy_bt,2022.2.4,MacIntel,60.0024001,Chrome,1920,1200,,,,,,,,,,,,,,,,,,,,,,,U,174,triangle,1,0,,,1,,,,,,k,0.9399,5,0,5,0,1,,,,,,,,,,,,,,,,,,,,,,,,,,,,,,,,,,
293323,2022-11-16_08h25.14.938,vts_reward_expectancy_bt,2022.2.4,MacIntel,60.0024001,Chrome,1920,1200,,,,,,,,,,,,,,,,,,,,,,,Y,132,hexagon,1,0,,,1,,,,,,j,1.4935,6,0,6,0,1,,,,,,,,,,,,,,,,,,,,,,,,,,,,,,,,,,
293323,2022-11-16_08h25.14.938,vts_reward_expectancy_bt,2022.2.4,MacIntel,60.0024001,Chrome,1920,1200,,,,,,,,,,,,,,,,,,,,,,,B,160,circle,1,0,,,1,,,,,,k,1.0428,7,0,7,0,1,,,,,,,,,,,,,,,,,,,,,,,,,,,,,,,,,,
293323,2022-11-16_08h25.14.938,vts_reward_expectancy_bt,2022.2.4,MacIntel,60.0024001,Chrome,1920,1200,,,,,,,,,,,,,,,,,,,,,,,S,139,circle,1,0,,,1,,,,,,j,1.0909,8,0,8,0,1,,,,,,,,,,,,,,,,,,,,,,,,,,,,,,,,,,
293323,2022-11-16_08h25.14.938,vts_reward_expectancy_bt,2022.2.4,MacIntel,60.0024001,Chrome,1920,1200,,,,,,,,,,,,,,,,,,,,,,,W,146,star,1,0,,,1,,,,,,j,0.8731,9,0,9,0,1,,,,,,,,,,,,,,,,,,,,,,,,,,,,,,,,,,
293323,2022-11-16_08h25.14.938,vts_reward_expectancy_bt,2022.2.4,MacIntel,60.0024001,Chrome,1920,1200,,,,,0,486,,,,,,,,,,,,,,,,,F,139,triangle,1,0,,,2,,,,,,,,,,,,,-1,letter,NA,d,2.2042,vtsPrac,0,0,0,0,1,,,,,,,,,,,,,,,,,,,,,,,
293323,2022-11-16_08h25.14.938,vts_reward_expectancy_bt,2022.2.4,MacIntel,60.0024001,Chrome,1920,1200,,,,,0,486,,,,,,,,,,,,,,,,,W,167,star,1,0,,,2,,,,,,,,,,,,,repeat,letter,lettRpt,f,1.0743,vtsPrac,1,0,1,0,1,,,,,,,,,,,,,,,,,,,,,,,
293323,2022-11-16_08h25.14.938,vts_reward_expectancy_bt,2022.2.4,MacIntel,60.0024001,Chrome,1920,1200,,,,,0,486,,,,,,,,,,,,,,,,,H,132,triangle,1,0,,,2,,,,,,,,,,,,,switch,number,numSwt,j,2.5405,vtsPrac,2,0,2,0,1,,,,,,,,,,,,,,,,,,,,,,,
293323,2022-11-16_08h25.14.938,vts_reward_expectancy_bt,2022.2.4,MacIntel,60.0024001,Chrome,1920,1200,,,,,0,486,,,,,,,,,,,,,,,,,U,160,star,1,0,,,2,,,,,,,,,,,,,switch,letter,lettSwt,f,0.9599,vtsPrac,3,0,3,0,1,,,,,,,,,,,,,,,,,,,,,,,
293323,2022-11-16_08h25.14.938,vts_reward_expectancy_bt,2022.2.4,MacIntel,60.0024001,Chrome,1920,1200,,,,,0,486,,,,,,,,,,,,,,,,,F,139,circle,1,0,,,2,,,,,,,,,,,,,switch,number,numSwt,j,0.6425,vtsPrac,4,0,4,0,1,,,,,,,,,,,,,,,,,,,,,,,
293323,2022-11-16_08h25.14.938,vts_reward_expectancy_bt,2022.2.4,MacIntel,60.0024001,Chrome,1920,1200,,,,,0,486,,,,,,,,,,,,,,,,,W,167,triangle,1,0,,,2,,,,,,,,,,,,,repeat,number,numRpt,k,1.1572,vtsPrac,5,0,5,0,1,,,,,,,,,,,,,,,,,,,,,,,
293323,2022-11-16_08h25.14.938,vts_reward_expectancy_bt,2022.2.4,MacIntel,60.0024001,Chrome,1920,1200,,,,,0,486,,,,,,,,,,,,,,,,,H,132,star,1,0,,,2,,,,,,,,,,,,,repeat,number,numRpt,j,0.7766,vtsPrac,6,0,6,0,1,,,,,,,,,,,,,,,,,,,,,,,
293323,2022-11-16_08h25.14.938,vts_reward_expectancy_bt,2022.2.4,MacIntel,60.0024001,Chrome,1920,1200,,,,,0,486,,,,,,,,,,,,,,,,,U,160,triangle,1,0,,,2,,,,,,,,,,,,,repeat,number,numRpt,k,1.0258,vtsPrac,7,0,7,0,1,,,,,,,,,,,,,,,,,,,,,,,
293323,2022-11-16_08h25.14.938,vts_reward_expectancy_bt,2022.2.4,MacIntel,60.0024001,Chrome,1920,1200,,,,,0,486,,,,,,,,,,,,,,,,,B,146,triangle,1,0,,,2,,,,,,,,,,,,,switch,letter,lettSwt,d,0.711,vtsPrac,8,0,8,0,1,,,,,,,,,,,,,,,,,,,,,,,
293323,2022-11-16_08h25.14.938,vts_reward_expectancy_bt,2022.2.4,MacIntel,60.0024001,Chrome,1920,1200,,,,,0,486,,,,,,,,,,,,,,,,,S,174,hexagon,1,0,,,2,,,,,,,,,,,,,switch,number,numSwt,k,1.4573,vtsPrac,9,0,9,0,1,,,,,,,,,,,,,,,,,,,,,,,
293323,2022-11-16_08h25.14.938,vts_reward_expectancy_bt,2022.2.4,MacIntel,60.0024001,Chrome,1920,1200,,,,,0,486,,,,,,,,,,,,,,,,,W,167,triangle,1,0,,,2,,,,,,,,,,,,,switch,letter,lettSwt,f,1.2798,vtsPrac,10,0,10,0,1,,,,,,,,,,,,,,,,,,,,,,,
293323,2022-11-16_08h25.14.938,vts_reward_expectancy_bt,2022.2.4,MacIntel,60.0024001,Chrome,1920,1200,,,,,0,486,,,,,,,,,,,,,,,,,U,125,hexagon,1,0,,,2,,,,,,,,,,,,,repeat,letter,lettRpt,f,0.8246,vtsPrac,11,0,11,0,1,,,,,,,,,,,,,,,,,,,,,,,
293323,2022-11-16_08h25.14.938,vts_reward_expectancy_bt,2022.2.4,MacIntel,60.0024001,Chrome,1920,1200,,,,,0,486,,,,,,,,,,,,,,,,,B,132,star,1,0,,,2,,,,,,,,,,,,,repeat,letter,lettRpt,d,0.9565,vtsPrac,12,0,12,0,1,,,,,,,,,,,,,,,,,,,,,,,
293323,2022-11-16_08h25.14.938,vts_reward_expectancy_bt,2022.2.4,MacIntel,60.0024001,Chrome,1920,1200,,,,,0,486,,,,,,,,,,,,,,,,,Y,160,hexagon,1,0,,,2,,,,,,,,,,,,,repeat,letter,lettRpt,f,0.8764,vtsPrac,13,0,13,0,1,,,,,,,,,,,,,,,,,,,,,,,
293323,2022-11-16_08h25.14.938,vts_reward_expectancy_bt,2022.2.4,MacIntel,60.0024001,Chrome,1920,1200,,,,,0,486,,,,,,,,,,,,,,,,,U,146,triangle,1,0,,,2,,,,,,,,,,,,,repeat,letter,lettRpt,f,0.8253,vtsPrac,14,0,14,0,1,,,,,,,,,,,,,,,,,,,,,,,
293323,2022-11-16_08h25.14.938,vts_reward_expectancy_bt,2022.2.4,MacIntel,60.0024001,Chrome,1920,1200,,,,,0,486,,,,,,,,,,,,,,,,,W,125,circle,1,0,,,2,,,,,,,,,,,,,switch,number,numSwt,j,0.6763,vtsPrac,15,0,15,0,1,,,,,,,,,,,,,,,,,,,,,,,
293323,2022-11-16_08h25.14.938,vts_reward_expectancy_bt,2022.2.4,MacIntel,60.0024001,Chrome,1920,1200,,,,,0,486,,,,,,,,,,,,,,,,,Y,174,star,1,0,,,2,,,,,,,,,,,,,repeat,number,numRpt,k,1.8605,vtsPrac,16,0,16,0,1,,,,,,,,,,,,,,,,,,,,,,,
293323,2022-11-16_08h25.14.938,vts_reward_expectancy_bt,2022.2.4,MacIntel,60.0024001,Chrome,1920,1200,,,,,0,486,,,,,,,,,,,,,,,,,U,146,hexagon,1,0,,,2,,,,,,,,,,,,,repeat,number,numRpt,j,2.3906,vtsPrac,17,0,17,0,1,,,,,,,,,,,,,,,,,,,,,,,
293323,2022-11-16_08h25.14.938,vts_reward_expectancy_bt,2022.2.4,MacIntel,60.0024001,Chrome,1920,1200,,,,,0,486,,,,,,,,,,,,,,,,,B,160,triangle,1,0,,,2,,,,,,,,,,,,,switch,letter,lettSwt,d,2.6073,vtsPrac,18,0,18,0,1,,,,,,,,,,,,,,,,,,,,,,,
293323,2022-11-16_08h25.14.938,vts_reward_expectancy_bt,2022.2.4,MacIntel,60.0024001,Chrome,1920,1200,,,,,0,486,,,,,,,,,,,,,,,,,H,139,hexagon,1,0,,,2,,,,,,,,,,,,,switch,number,numSwt,j,2.6917,vtsPrac,19,0,19,0,1,,,,,,,,,,,,,,,,,,,,,,,
293323,2022-11-16_08h25.14.938,vts_reward_expectancy_bt,2022.2.4,MacIntel,60.0024001,Chrome,1920,1200,,,,,0,486,,,,,,,,,,,,,,,,,H,125,star,1,0,,,2,,,,,,,,,,,,,repeat,number,numRpt,j,2.8654,vtsPrac,20,0,20,0,1,,,,,,,,,,,,,,,,,,,,,,,
293323,2022-11-16_08h25.14.938,vts_reward_expectancy_bt,2022.2.4,MacIntel,60.0024001,Chrome,1920,1200,,,,,0,486,,,,,,,,,,,,,,,,,Y,167,triangle,1,0,,,2,,,,,,,,,,,,,repeat,number,numRpt,k,1.8571,vtsPrac,21,0,21,0,1,,,,,,,,,,,,,,,,,,,,,,,
293323,2022-11-16_08h25.14.938,vts_reward_expectancy_bt,2022.2.4,MacIntel,60.0024001,Chrome,1920,1200,,,,,0,486,,,,,,,,,,,,,,,,,S,181,circle,1,0,,,2,,,,,,,,,,,,,switch,letter,lettSwt,f,1.3393,vtsPrac,22,0,22,0,1,,,,,,,,,,,,,,,,,,,,,,,
293323,2022-11-16_08h25.14.938,vts_reward_expectancy_bt,2022.2.4,MacIntel,60.0024001,Chrome,1920,1200,,,,,0,486,,,,,,,,,,,,,,,,,F,139,star,1,0,,,2,,,,,,,,,,,,,repeat,letter,lettRpt,d,1.1735,vtsPrac,23,0,23,0,1,,,,,,,,,,,,,,,,,,,,,,,
293323,2022-11-16_08h25.14.938,vts_reward_expectancy_bt,2022.2.4,MacIntel,60.0024001,Chrome,1920,1200,,,,,0,486,,,,,,,,,,,,,,,,,Y,167,hexagon,1,0,,,2,,,,,,,,,,,,,switch,number,numSwt,k,1.7081,vtsPrac,24,0,24,0,1,,,,,,,,,,,,,,,,,,,,,,,
293323,2022-11-16_08h25.14.938,vts_reward_expectancy_bt,2022.2.4,MacIntel,60.0024001,Chrome,1920,1200,,,,,0,486,,,,,,,,,,,,,,,,,B,139,star,1,0,,,2,,,,,,,,,,,,,switch,letter,lettSwt,d,0.7427,vtsPrac,25,0,25,0,1,,,,,,,,,,,,,,,,,,,,,,,
293323,2022-11-16_08h25.14.938,vts_reward_expectancy_bt,2022.2.4,MacIntel,60.0024001,Chrome,1920,1200,,,,,0,486,,,,,,,,,,,,,,,,,U,125,circle,1,0,,,2,,,,,,,,,,,,,repeat,letter,lettRpt,f,1.3073,vtsPrac,26,0,26,0,1,,,,,,,,,,,,,,,,,,,,,,,
293323,2022-11-16_08h25.14.938,vts_reward_expectancy_bt,2022.2.4,MacIntel,60.0024001,Chrome,1920,1200,,,,,0,486,,,,,,,,,,,,,,,,,H,174,hexagon,1,0,,,2,,,,,,,,,,,,,switch,number,numSwt,k,2.6909,vtsPrac,27,0,27,0,1,,,,,,,,,,,,,,,,,,,,,,,
293323,2022-11-16_08h25.14.938,vts_reward_expectancy_bt,2022.2.4,MacIntel,60.0024001,Chrome,1920,1200,,,,,0,486,,,,,,,,,,,,,,,,,W,160,star,1,0,,,2,,,,,,,,,,,,,switch,letter,lettSwt,f,1.2108,vtsPrac,28,0,28,0,1,,,,,,,,,,,,,,,,,,,,,,,
293323,2022-11-16_08h25.14.938,vts_reward_expectancy_bt,2022.2.4,MacIntel,60.0024001,Chrome,1920,1200,,,,,0,486,,,,,,,,,,,,,,,,,D,125,circle,1,0,,,2,,,,,,,,,,,,,repeat,letter,lettRpt,d,1.7765,vtsPrac,29,0,29,0,1,,,,,,,,,,,,,,,,,,,,,,,
293323,2022-11-16_08h25.14.938,vts_reward_expectancy_bt,2022.2.4,MacIntel,60.0024001,Chrome,1920,1200,,,,,0,486,,,,,,,,,,,,,,,,,B,181,star,1,0,,,2,,,,,,,,,,,,,repeat,letter,lettRpt,d,1.7584,vtsPrac,30,0,30,0,1,,,,,,,,,,,,,,,,,,,,,,,
293323,2022-11-16_08h25.14.938,vts_reward_expectancy_bt,2022.2.4,MacIntel,60.0024001,Chrome,1920,1200,,,,,0,486,,,,,,,,,,,,,,,,,Y,146,triangle,1,0,,,2,,,,,,,,,,,,,repeat,letter,lettRpt,f,1.6259,vtsPrac,31,0,31,0,1,,,,,,,,,,,,,,,,,,,,,,,
293323,2022-11-16_08h25.14.938,vts_reward_expectancy_bt,2022.2.4,MacIntel,60.0024001,Chrome,1920,1200,,,,,,,,,,,,,,,,,,,,,,,,,,,,,,,,,,,,,,,,,,,,,,,,,,,,,,,,,,,,,,,,,,,,,,,,,,,,
293323,2022-11-16_08h25.14.938,vts_reward_expectancy_bt,2022.2.4,MacIntel,60.0024001,Chrome,1920,1200,,,,,,,,,,,,,,,,,,,,,,,,,,,,,,,,,,,,,,,,,,,,,,,,,,,,,,,,,,,,,,,,,,,,,,,,,,,,
293323,2022-11-16_08h25.14.938,vts_reward_expectancy_bt,2022.2.4,MacIntel,60.0024001,Chrome,1920,1200,,,,,0,486,,,,,,,,,,,,,,,,,F,160,triangle,1,0,,,,,,,,,,,,,,,,repeat,letter,lettRpt,d,2.4434,noRew,,,,,,0,0,0,0,0,1,,,,,,,,,,,,,,,,,
293323,2022-11-16_08h25.14.938,vts_reward_expectancy_bt,2022.2.4,MacIntel,60.0024001,Chrome,1920,1200,,,,,0,486,,,,,,,,,,,,,,,,,B,174,circle,1,0,,,,,,,,,,,,,,,,repeat,letter,lettRpt,d,2.0903,noRew,,,,,,0,1,0,1,0,1,,,,,,,,,,,,,,,,,
293323,2022-11-16_08h25.14.938,vts_reward_expectancy_bt,2022.2.4,MacIntel,60.0024001,Chrome,1920,1200,,,,,0,486,,,,,,,,,,,,,,,,,Y,132,triangle,1,0,,,,,,,,,,,,,,,,switch,number,numSwt,j,1.226,noRew,,,,,,0,2,0,2,0,1,,,,,,,,,,,,,,,,,
293323,2022-11-16_08h25.14.938,vts_reward_expectancy_bt,2022.2.4,MacIntel,60.0024001,Chrome,1920,1200,,,,,0,486,,,,,,,,,,,,,,,,,W,139,circle,1,0,,,,,,,,,,,,,,,,repeat,number,numRpt,j,1.5297,noRew,,,,,,0,3,0,3,0,1,,,,,,,,,,,,,,,,,
293323,2022-11-16_08h25.14.938,vts_reward_expectancy_bt,2022.2.4,MacIntel,60.0024001,Chrome,1920,1200,,,,,0,486,,,,,,,,,,,,,,,,,F,160,circle,1,0,,,,,,,,,,,,,,,,repeat,number,numRpt,k,1.4081,noRew,,,,,,0,4,0,4,0,1,,,,,,,,,,,,,,,,,
293323,2022-11-16_08h25.14.938,vts_reward_expectancy_bt,2022.2.4,MacIntel,60.0024001,Chrome,1920,1200,,,,,0,486,,,,,,,,,,,,,,,,,B,174,hexagon,1,0,,,,,,,,,,,,,,,,switch,letter,lettSwt,d,0.9917,noRew,,,,,,0,5,0,5,0,1,,,,,,,,,,,,,,,,,
293323,2022-11-16_08h25.14.938,vts_reward_expectancy_bt,2022.2.4,MacIntel,60.0024001,Chrome,1920,1200,,,,,0,486,,,,,,,,,,,,,,,,,Y,132,hexagon,1,0,,,,,,,,,,,,,,,,repeat,letter,lettRpt,f,1.3427,noRew,,,,,,0,6,0,6,0,1,,,,,,,,,,,,,,,,,
293323,2022-11-16_08h25.14.938,vts_reward_expectancy_bt,2022.2.4,MacIntel,60.0024001,Chrome,1920,1200,,,,,0,486,,,,,,,,,,,,,,,,,W,139,circle,1,0,,,,,,,,,,,,,,,,repeat,letter,lettRpt,f,1.4411,noRew,,,,,,0,7,0,7,0,1,,,,,,,,,,,,,,,,,
293323,2022-11-16_08h25.14.938,vts_reward_expectancy_bt,2022.2.4,MacIntel,60.0024001,Chrome,1920,1200,,,,,0,486,,,,,,,,,,,,,,,,,S,181,hexagon,1,0,,,,,,,,,,,,,,,,switch,number,numSwt,k,2.5423,noRew,,,,,,0,8,0,8,0,1,,,,,,,,,,,,,,,,,
293323,2022-11-16_08h25.14.938,vts_reward_expectancy_bt,2022.2.4,MacIntel,60.0024001,Chrome,1920,1200,,,,,0,486,,,,,,,,,,,,,,,,,Y,139,star,-1,0,,,,,,,,,,,,,,,,switch,no_choice,NA,,,noRew,,,,,,0,9,0,9,0,1,,,,,,,,,,,,,,,,,
293323,2022-11-16_08h25.14.938,vts_reward_expectancy_bt,2022.2.4,MacIntel,60.0024001,Chrome,1920,1200,,,,,0,486,,,,,,,,,,,,,,,,,U,160,triangle,1,0,,,,,,,,,,,,,,,,switch,letter,lettSwt,f,1.2083,noRew,,,,,,0,10,0,10,0,1,,,,,,,,,,,,,,,,,
293323,2022-11-16_08h25.14.938,vts_reward_expectancy_bt,2022.2.4,MacIntel,60.0024001,Chrome,1920,1200,,,,,0,486,,,,,,,,,,,,,,,,,F,167,hexagon,1,0,,,,,,,,,,,,,,,,switch,number,numSwt,k,1.7583,noRew,,,,,,0,11,0,11,0,1,,,,,,,,,,,,,,,,,
293323,2022-11-16_08h25.14.938,vts_reward_expectancy_bt,2022.2.4,MacIntel,60.0024001,Chrome,1920,1200,,,,,0,486,,,,,,,,,,,,,,,,,W,181,hexagon,1,0,,,,,,,,,,,,,,,,switch,letter,lettSwt,f,1.4415,noRew,,,,,,0,12,0,12,0,1,,,,,,,,,,,,,,,,,
293323,2022-11-16_08h25.14.938,vts_reward_expectancy_bt,2022.2.4,MacIntel,60.0024001,Chrome,1920,1200,,,,,0,486,,,,,,,,,,,,,,,,,U,139,star,1,0,,,,,,,,,,,,,,,,switch,number,numSwt,j,2.0724,noRew,,,,,,0,13,0,13,0,1,,,,,,,,,,,,,,,,,
293323,2022-11-16_08h25.14.938,vts_reward_expectancy_bt,2022.2.4,MacIntel,60.0024001,Chrome,1920,1200,,,,,0,486,,,,,,,,,,,,,,,,,Y,174,hexagon,1,0,,,,,,,,,,,,,,,,repeat,number,numRpt,k,1.5743,noRew,,,,,,0,14,0,14,0,1,,,,,,,,,,,,,,,,,
293323,2022-11-16_08h25.14.938,vts_reward_expectancy_bt,2022.2.4,MacIntel,60.0024001,Chrome,1920,1200,,,,,0,486,,,,,,,,,,,,,,,,,H,125,triangle,1,0,,,,,,,,,,,,,,,,switch,letter,lettSwt,d,1.5403,noRew,,,,,,0,15,0,15,0,1,,,,,,,,,,,,,,,,,
293323,2022-11-16_08h25.14.938,vts_reward_expectancy_bt,2022.2.4,MacIntel,60.0024001,Chrome,1920,1200,,,,,0,486,,,,,,,,,,,,,,,,,F,167,star,1,0,,,,,,,,,,,,,,,,repeat,letter,lettRpt,d,0.9744,noRew,,,,,,0,16,0,16,0,1,,,,,,,,,,,,,,,,,
293323,2022-11-16_08h25.14.938,vts_reward_expectancy_bt,2022.2.4,MacIntel,60.0024001,Chrome,1920,1200,,,,,0,486,,,,,,,,,,,,,,,,,Y,132,triangle,1,0,,,,,,,,,,,,,,,,repeat,letter,lettRpt,f,0.7923,noRew,,,,,,0,17,0,17,0,1,,,,,,,,,,,,,,,,,
293323,2022-11-16_08h25.14.938,vts_reward_expectancy_bt,2022.2.4,MacIntel,60.0024001,Chrome,1920,1200,,,,,0,486,,,,,,,,,,,,,,,,,W,174,circle,1,0,,,,,,,,,,,,,,,,repeat,letter,lettRpt,f,0.8439,noRew,,,,,,0,18,0,18,0,1,,,,,,,,,,,,,,,,,
293323,2022-11-16_08h25.14.938,vts_reward_expectancy_bt,2022.2.4,MacIntel,60.0024001,Chrome,1920,1200,,,,,0,486,,,,,,,,,,,,,,,,,S,160,hexagon,1,0,,,,,,,,,,,,,,,,switch,number,numSwt,k,1.408,noRew,,,,,,0,19,0,19,0,1,,,,,,,,,,,,,,,,,
293323,2022-11-16_08h25.14.938,vts_reward_expectancy_bt,2022.2.4,MacIntel,60.0024001,Chrome,1920,1200,,,,,0,486,,,,,,,,,,,,,,,,,D,139,circle,1,0,,,,,,,,,,,,,,,,repeat,number,numRpt,j,1.3926,noRew,,,,,,0,20,0,20,0,1,,,,,,,,,,,,,,,,,
293323,2022-11-16_08h25.14.938,vts_reward_expectancy_bt,2022.2.4,MacIntel,60.0024001,Chrome,1920,1200,,,,,0,486,,,,,,,,,,,,,,,,,B,146,triangle,1,0,,,,,,,,,,,,,,,,switch,letter,lettSwt,d,2.0944,noRew,,,,,,0,21,0,21,0,1,,,,,,,,,,,,,,,,,
293323,2022-11-16_08h25.14.938,vts_reward_expectancy_bt,2022.2.4,MacIntel,60.0024001,Chrome,1920,1200,,,,,0,486,,,,,,,,,,,,,,,,,F,181,circle,1,0,,,,,,,,,,,,,,,,repeat,letter,lettRpt,d,1.6946,noRew,,,,,,0,22,0,22,0,1,,,,,,,,,,,,,,,,,
293323,2022-11-16_08h25.14.938,vts_reward_expectancy_bt,2022.2.4,MacIntel,60.0024001,Chrome,1920,1200,,,,,0,486,,,,,,,,,,,,,,,,,Y,132,hexagon,1,0,,,,,,,,,,,,,,,,switch,number,numSwt,j,1.0273,noRew,,,,,,0,23,0,23,0,1,,,,,,,,,,,,,,,,,
293323,2022-11-16_08h25.14.938,vts_reward_expectancy_bt,2022.2.4,MacIntel,60.0024001,Chrome,1920,1200,,,,,0,486,,,,,,,,,,,,,,,,,U,146,circle,1,0,,,,,,,,,,,,,,,,switch,letter,lettSwt,f,1.1579,noRew,,,,,,0,24,0,24,0,1,,,,,,,,,,,,,,,,,
293323,2022-11-16_08h25.14.938,vts_reward_expectancy_bt,2022.2.4,MacIntel,60.0024001,Chrome,1920,1200,,,,,0,486,,,,,,,,,,,,,,,,,D,181,star,1,0,,,,,,,,,,,,,,,,switch,number,numSwt,k,1.2416,noRew,,,,,,0,25,0,25,0,1,,,,,,,,,,,,,,,,,
293323,2022-11-16_08h25.14.938,vts_reward_expectancy_bt,2022.2.4,MacIntel,60.0024001,Chrome,1920,1200,,,,,0,486,,,,,,,,,,,,,,,,,Y,167,hexagon,1,0,,,,,,,,,,,,,,,,repeat,number,numRpt,k,1.7259,noRew,,,,,,0,26,0,26,0,1,,,,,,,,,,,,,,,,,
293323,2022-11-16_08h25.14.938,vts_reward_expectancy_bt,2022.2.4,MacIntel,60.0024001,Chrome,1920,1200,,,,,0,486,,,,,,,,,,,,,,,,,F,125,circle,1,0,,,,,,,,,,,,,,,,switch,letter,lettSwt,d,1.3949,noRew,,,,,,0,27,0,27,0,1,,,,,,,,,,,,,,,,,
293323,2022-11-16_08h25.14.938,vts_reward_expectancy_bt,2022.2.4,MacIntel,60.0024001,Chrome,1920,1200,,,,,0,486,,,,,,,,,,,,,,,,,H,160,triangle,1,0,,,,,,,,,,,,,,,,repeat,letter,lettRpt,d,1.412,noRew,,,,,,0,28,0,28,0,1,,,,,,,,,,,,,,,,,
293323,2022-11-16_08h25.14.938,vts_reward_expectancy_bt,2022.2.4,MacIntel,60.0024001,Chrome,1920,1200,,,,,0,486,,,,,,,,,,,,,,,,,Y,167,star,1,0,,,,,,,,,,,,,,,,switch,number,numSwt,k,1.3412,noRew,,,,,,0,29,0,29,0,1,,,,,,,,,,,,,,,,,
293323,2022-11-16_08h25.14.938,vts_reward_expectancy_bt,2022.2.4,MacIntel,60.0024001,Chrome,1920,1200,,,,,0,486,,,,,,,,,,,,,,,,,W,146,star,1,0,,,,,,,,,,,,,,,,repeat,number,numRpt,j,1.6599,noRew,,,,,,0,30,0,30,0,1,,,,,,,,,,,,,,,,,
293323,2022-11-16_08h25.14.938,vts_reward_expectancy_bt,2022.2.4,MacIntel,60.0024001,Chrome,1920,1200,,,,,0,486,,,,,,,,,,,,,,,,,F,132,hexagon,1,0,,,,,,,,,,,,,,,,switch,letter,lettSwt,d,1.2935,noRew,,,,,,0,31,0,31,0,1,,,,,,,,,,,,,,,,,
293323,2022-11-16_08h25.14.938,vts_reward_expectancy_bt,2022.2.4,MacIntel,60.0024001,Chrome,1920,1200,,,,,0,486,,,,,,,,,,,,,,,,,W,146,circle,1,0,,,,,,,,,,,,,,,,switch,number,numSwt,j,1.8581,noRew,,,,,,0,32,0,32,0,1,,,,,,,,,,,,,,,,,
293323,2022-11-16_08h25.14.938,vts_reward_expectancy_bt,2022.2.4,MacIntel,60.0024001,Chrome,1920,1200,,,,,0,486,,,,,,,,,,,,,,,,,F,132,star,1,0,,,,,,,,,,,,,,,,switch,letter,lettSwt,d,1.5582,noRew,,,,,,0,33,0,33,0,1,,,,,,,,,,,,,,,,,
293323,2022-11-16_08h25.14.938,vts_reward_expectancy_bt,2022.2.4,MacIntel,60.0024001,Chrome,1920,1200,,,,,0,486,,,,,,,,,,,,,,,,,D,160,triangle,1,0,,,,,,,,,,,,,,,,switch,number,numSwt,k,2.4901,noRew,,,,,,0,34,0,34,0,1,,,,,,,,,,,,,,,,,
293323,2022-11-16_08h25.14.938,vts_reward_expectancy_bt,2022.2.4,MacIntel,60.0024001,Chrome,1920,1200,,,,,0,486,,,,,,,,,,,,,,,,,U,139,circle,1,0,,,,,,,,,,,,,,,,switch,letter,lettSwt,f,1.5072,noRew,,,,,,0,35,0,35,0,1,,,,,,,,,,,,,,,,,
293323,2022-11-16_08h25.14.938,vts_reward_expectancy_bt,2022.2.4,MacIntel,60.0024001,Chrome,1920,1200,,,,,0,486,,,,,,,,,,,,,,,,,U,181,circle,1,0,,,,,,,,,,,,,,,,switch,number,numSwt,k,2.3477,noRew,,,,,,0,36,0,36,0,1,,,,,,,,,,,,,,,,,
293323,2022-11-16_08h25.14.938,vts_reward_expectancy_bt,2022.2.4,MacIntel,60.0024001,Chrome,1920,1200,,,,,0,486,,,,,,,,,,,,,,,,,W,139,triangle,1,0,,,,,,,,,,,,,,,,repeat,number,numRpt,j,1.8592,noRew,,,,,,0,37,0,37,0,1,,,,,,,,,,,,,,,,,
293323,2022-11-16_08h25.14.938,vts_reward_expectancy_bt,2022.2.4,MacIntel,60.0024001,Chrome,1920,1200,,,,,0,486,,,,,,,,,,,,,,,,,B,160,star,1,0,,,,,,,,,,,,,,,,repeat,number,numRpt,k,1.559,noRew,,,,,,0,38,0,38,0,1,,,,,,,,,,,,,,,,,
293323,2022-11-16_08h25.14.938,vts_reward_expectancy_bt,2022.2.4,MacIntel,60.0024001,Chrome,1920,1200,,,,,0,486,,,,,,,,,,,,,,,,,S,167,circle,1,0,,,,,,,,,,,,,,,,repeat,number,numRpt,k,1.1265,noRew,,,,,,0,39,0,39,0,1,,,,,,,,,,,,,,,,,
293323,2022-11-16_08h25.14.938,vts_reward_expectancy_bt,2022.2.4,MacIntel,60.0024001,Chrome,1920,1200,,,,,0,486,,,,,,,,,,,,,,,,,Y,125,triangle,1,0,,,,,,,,,,,,,,,,switch,letter,lettSwt,f,0.7586,noRew,,,,,,0,40,0,40,0,1,,,,,,,,,,,,,,,,,
293323,2022-11-16_08h25.14.938,vts_reward_expectancy_bt,2022.2.4,MacIntel,60.0024001,Chrome,1920,1200,,,,,0,486,,,,,,,,,,,,,,,,,F,174,star,1,0,,,,,,,,,,,,,,,,switch,number,numSwt,k,1.1581,noRew,,,,,,0,41,0,41,0,1,,,,,,,,,,,,,,,,,
293323,2022-11-16_08h25.14.938,vts_reward_expectancy_bt,2022.2.4,MacIntel,60.0024001,Chrome,1920,1200,,,,,0,486,,,,,,,,,,,,,,,,,S,160,hexagon,1,0,,,,,,,,,,,,,,,,switch,letter,lettSwt,f,1.1086,noRew,,,,,,0,42,0,42,0,1,,,,,,,,,,,,,,,,,
293323,2022-11-16_08h25.14.938,vts_reward_expectancy_bt,2022.2.4,MacIntel,60.0024001,Chrome,1920,1200,,,,,0,486,,,,,,,,,,,,,,,,,W,139,star,1,0,,,,,,,,,,,,,,,,repeat,letter,lettRpt,f,0.8093,noRew,,,,,,0,43,0,43,0,1,,,,,,,,,,,,,,,,,
293323,2022-11-16_08h25.14.938,vts_reward_expectancy_bt,2022.2.4,MacIntel,60.0024001,Chrome,1920,1200,,,,,0,486,,,,,,,,,,,,,,,,,D,174,hexagon,1,0,,,,,,,,,,,,,,,,repeat,letter,lettRpt,d,1.3594,noRew,,,,,,0,44,0,44,0,1,,,,,,,,,,,,,,,,,
293323,2022-11-16_08h25.14.938,vts_reward_expectancy_bt,2022.2.4,MacIntel,60.0024001,Chrome,1920,1200,,,,,0,486,,,,,,,,,,,,,,,,,Y,139,circle,1,0,,,,,,,,,,,,,,,,repeat,letter,lettRpt,f,2.4082,noRew,,,,,,0,45,0,45,0,1,,,,,,,,,,,,,,,,,
293323,2022-11-16_08h25.14.938,vts_reward_expectancy_bt,2022.2.4,MacIntel,60.0024001,Chrome,1920,1200,,,,,0,486,,,,,,,,,,,,,,,,,F,167,star,1,0,,,,,,,,,,,,,,,,switch,number,numSwt,k,1.8434,noRew,,,,,,0,46,0,46,0,1,,,,,,,,,,,,,,,,,
293323,2022-11-16_08h25.14.938,vts_reward_expectancy_bt,2022.2.4,MacIntel,60.0024001,Chrome,1920,1200,,,,,0,486,,,,,,,,,,,,,,,,,H,160,hexagon,0,0,,,,,,,,,,,,,,,,switch,letter,NA,f,0.1588,noRew,,,,,,0,47,0,47,0,1,,,,,,,,,,,,,,,,,
293323,2022-11-16_08h25.14.938,vts_reward_expectancy_bt,2022.2.4,MacIntel,60.0024001,Chrome,1920,1200,,,,,0,486,,,,,,,,,,,,,,,,,W,174,star,1,1,,,,,,,,,,,,,,,,repeat,letter,lettRpt,f,1.6594,noRew,,,,,,0,48,0,48,0,1,,,,,,,,,,,,,,,,,
293323,2022-11-16_08h25.14.938,vts_reward_expectancy_bt,2022.2.4,MacIntel,60.0024001,Chrome,1920,1200,,,,,0,486,,,,,,,,,,,,,,,,,Y,132,triangle,1,0,,,,,,,,,,,,,,,,repeat,letter,lettRpt,f,1.043,noRew,,,,,,0,49,0,49,0,1,,,,,,,,,,,,,,,,,
293323,2022-11-16_08h25.14.938,vts_reward_expectancy_bt,2022.2.4,MacIntel,60.0024001,Chrome,1920,1200,,,,,0,486,,,,,,,,,,,,,,,,,H,167,triangle,1,0,,,,,,,,,,,,,,,,switch,number,numSwt,k,1.2579,noRew,,,,,,0,50,0,50,0,1,,,,,,,,,,,,,,,,,
293323,2022-11-16_08h25.14.938,vts_reward_expectancy_bt,2022.2.4,MacIntel,60.0024001,Chrome,1920,1200,,,,,0,486,,,,,,,,,,,,,,,,,D,181,hexagon,1,0,,,,,,,,,,,,,,,,repeat,number,numRpt,k,1.2575,noRew,,,,,,0,51,0,51,0,1,,,,,,,,,,,,,,,,,
293323,2022-11-16_08h25.14.938,vts_reward_expectancy_bt,2022.2.4,MacIntel,60.0024001,Chrome,1920,1200,,,,,0,486,,,,,,,,,,,,,,,,,U,146,triangle,1,0,,,,,,,,,,,,,,,,repeat,number,numRpt,j,0.8589,noRew,,,,,,0,52,0,52,0,1,,,,,,,,,,,,,,,,,
293323,2022-11-16_08h25.14.938,vts_reward_expectancy_bt,2022.2.4,MacIntel,60.0024001,Chrome,1920,1200,,,,,0,486,,,,,,,,,,,,,,,,,W,132,circle,1,0,,,,,,,,,,,,,,,,switch,letter,lettSwt,f,1.3085,noRew,,,,,,0,53,0,53,0,1,,,,,,,,,,,,,,,,,
293323,2022-11-16_08h25.14.938,vts_reward_expectancy_bt,2022.2.4,MacIntel,60.0024001,Chrome,1920,1200,,,,,0,486,,,,,,,,,,,,,,,,,Y,181,triangle,1,0,,,,,,,,,,,,,,,,switch,number,numSwt,k,1.3084,noRew,,,,,,0,54,0,54,0,1,,,,,,,,,,,,,,,,,
293323,2022-11-16_08h25.14.938,vts_reward_expectancy_bt,2022.2.4,MacIntel,60.0024001,Chrome,1920,1200,,,,,0,486,,,,,,,,,,,,,,,,,H,160,hexagon,1,0,,,,,,,,,,,,,,,,switch,letter,lettSwt,d,2.1121,noRew,,,,,,0,55,0,55,0,1,,,,,,,,,,,,,,,,,
293323,2022-11-16_08h25.14.938,vts_reward_expectancy_bt,2022.2.4,MacIntel,60.0024001,Chrome,1920,1200,,,,,0,486,,,,,,,,,,,,,,,,,D,146,triangle,1,0,,,,,,,,,,,,,,,,repeat,letter,lettRpt,d,1.1903,noRew,,,,,,0,56,0,56,0,1,,,,,,,,,,,,,,,,,
293323,2022-11-16_08h25.14.938,vts_reward_expectancy_bt,2022.2.4,MacIntel,60.0024001,Chrome,1920,1200,,,,,0,486,,,,,,,,,,,,,,,,,B,174,circle,1,0,,,,,,,,,,,,,,,,repeat,letter,lettRpt,d,0.8912,noRew,,,,,,0,57,0,57,0,1,,,,,,,,,,,,,,,,,
293323,2022-11-16_08h25.14.938,vts_reward_expectancy_bt,2022.2.4,MacIntel,60.0024001,Chrome,1920,1200,,,,,0,486,,,,,,,,,,,,,,,,,F,160,hexagon,1,0,,,,,,,,,,,,,,,,switch,number,numSwt,k,1.2451,noRew,,,,,,0,58,0,58,0,1,,,,,,,,,,,,,,,,,
293323,2022-11-16_08h25.14.938,vts_reward_expectancy_bt,2022.2.4,MacIntel,60.0024001,Chrome,1920,1200,,,,,0,486,,,,,,,,,,,,,,,,,U,125,triangle,1,0,,,,,,,,,,,,,,,,switch,letter,lettSwt,f,1.6425,noRew,,,,,,0,59,0,59,0,1,,,,,,,,,,,,,,,,,
293323,2022-11-16_08h25.14.938,vts_reward_expectancy_bt,2022.2.4,MacIntel,60.0024001,Chrome,1920,1200,,,,,0,486,,,,,,,,,,,,,,,,,S,146,circle,1,0,,,,,,,,,,,,,,,,switch,number,numSwt,j,1.7408,noRew,,,,,,0,60,0,60,0,1,,,,,,,,,,,,,,,,,
293323,2022-11-16_08h25.14.938,vts_reward_expectancy_bt,2022.2.4,MacIntel,60.0024001,Chrome,1920,1200,,,,,0,486,,,,,,,,,,,,,,,,,F,181,star,1,0,,,,,,,,,,,,,,,,repeat,number,numRpt,k,1.2422,noRew,,,,,,0,61,0,61,0,1,,,,,,,,,,,,,,,,,
293323,2022-11-16_08h25.14.938,vts_reward_expectancy_bt,2022.2.4,MacIntel,60.0024001,Chrome,1920,1200,,,,,0,486,,,,,,,,,,,,,,,,,H,160,hexagon,-1,0,,,,,,,,,,,,,,,,switch,no_choice,NA,,,noRew,,,,,,0,62,0,62,0,1,,,,,,,,,,,,,,,,,
293323,2022-11-16_08h25.14.938,vts_reward_expectancy_bt,2022.2.4,MacIntel,60.0024001,Chrome,1920,1200,,,,,0,486,,,,,,,,,,,,,,,,,U,132,triangle,1,0,,,,,,,,,,,,,,,,switch,letter,lettSwt,f,0.7928,noRew,,,,,,0,63,0,63,0,1,,,,,,,,,,,,,,,,,
293323,2022-11-16_08h25.14.938,vts_reward_expectancy_bt,2022.2.4,MacIntel,60.0024001,Chrome,1920,1200,,,,,,,,,,,,,,,,,,,,,,,,,,,,,,,,,,,,,,,,,,,,,,,,,,,,,,,,,,,,,,,,,,,,,,,,,,,,
293323,2022-11-16_08h25.14.938,vts_reward_expectancy_bt,2022.2.4,MacIntel,60.0024001,Chrome,1920,1200,,,,,0,486,,,,,,,,,,,,,,,,,F,174,hexagon,1,0,,,,,,,,,,,,,,,,repeat,letter,lettRpt,d,1.659,Hi,,,,,,0,,,,,,space,9.9143,high,0,0,0,0,1,,,,,,,,,
293323,2022-11-16_08h25.14.938,vts_reward_expectancy_bt,2022.2.4,MacIntel,60.0024001,Chrome,1920,1200,,,,,1,487,,,,,,,,,,,,,,,,,B,132,star,1,0,,,,,,,,,,,,,,,,repeat,letter,lettRpt,d,0.776,Lo,,,,,,0,,,,,,,,high,1,0,1,0,1,,,,,,,,,
293323,2022-11-16_08h25.14.938,vts_reward_expectancy_bt,2022.2.4,MacIntel,60.0024001,Chrome,1920,1200,,,,,10,497,,,,,,,,,,,,,,,,,S,160,circle,1,0,,,,,,,,,,,,,,,,switch,number,numSwt,k,1.1019,Lo,,,,,,0,,,,,,,,high,2,0,2,0,1,,,,,,,,,
293323,2022-11-16_08h25.14.938,vts_reward_expectancy_bt,2022.2.4,MacIntel,60.0024001,Chrome,1920,1200,,,,,10,507,,,,,,,,,,,,,,,,,U,146,triangle,1,0,,,,,,,,,,,,,,,,switch,letter,lettSwt,f,0.8416,Hi,,,,,,0,,,,,,,,high,3,0,3,0,1,,,,,,,,,
293323,2022-11-16_08h25.14.938,vts_reward_expectancy_bt,2022.2.4,MacIntel,60.0024001,Chrome,1920,1200,,,,,0,507,,,,,,,,,,,,,,,,,H,181,hexagon,1,0,,,,,,,,,,,,,,,,repeat,letter,lettRpt,d,1.1594,Hi,,,,,,0,,,,,,,,high,4,0,4,0,1,,,,,,,,,
293323,2022-11-16_08h25.14.938,vts_reward_expectancy_bt,2022.2.4,MacIntel,60.0024001,Chrome,1920,1200,,,,,1,508,,,,,,,,,,,,,,,,,Y,125,star,1,0,,,,,,,,,,,,,,,,switch,number,numSwt,j,1.2426,Lo,,,,,,0,,,,,,,,high,5,0,5,0,1,,,,,,,,,
293323,2022-11-16_08h25.14.938,vts_reward_expectancy_bt,2022.2.4,MacIntel,60.0024001,Chrome,1920,1200,,,,,1,509,,,,,,,,,,,,,,,,,W,139,circle,1,0,,,,,,,,,,,,,,,,repeat,number,numRpt,j,0.8753,Lo,,,,,,0,,,,,,,,high,6,0,6,0,1,,,,,,,,,
293323,2022-11-16_08h25.14.938,vts_reward_expectancy_bt,2022.2.4,MacIntel,60.0024001,Chrome,1920,1200,,,,,10,519,,,,,,,,,,,,,,,,,D,167,triangle,1,0,,,,,,,,,,,,,,,,switch,letter,lettSwt,d,1.0259,Hi,,,,,,0,,,,,,,,high,7,0,7,0,1,,,,,,,,,
293323,2022-11-16_08h25.14.938,vts_reward_expectancy_bt,2022.2.4,MacIntel,60.0024001,Chrome,1920,1200,,,,,1,520,,,,,,,,,,,,,,,,,F,174,star,1,0,,,,,,,,,,,,,,,,switch,number,numSwt,k,1.226,Lo,,,,,,0,,,,,,,,high,8,0,8,0,1,,,,,,,,,
293323,2022-11-16_08h25.14.938,vts_reward_expectancy_bt,2022.2.4,MacIntel,60.0024001,Chrome,1920,1200,,,,,10,530,,,,,,,,,,,,,,,,,B,132,triangle,1,0,,,,,,,,,,,,,,,,switch,letter,lettSwt,d,0.7619,Hi,,,,,,0,,,,,,,,high,9,0,9,0,1,,,,,,,,,
293323,2022-11-16_08h25.14.938,vts_reward_expectancy_bt,2022.2.4,MacIntel,60.0024001,Chrome,1920,1200,,,,,10,540,,,,,,,,,,,,,,,,,S,160,hexagon,1,0,,,,,,,,,,,,,,,,switch,number,numSwt,k,0.9754,Hi,,,,,,0,,,,,,,,high,10,0,10,0,1,,,,,,,,,
293323,2022-11-16_08h25.14.938,vts_reward_expectancy_bt,2022.2.4,MacIntel,60.0024001,Chrome,1920,1200,,,,,10,550,,,,,,,,,,,,,,,,,U,146,circle,1,0,,,,,,,,,,,,,,,,repeat,number,numRpt,j,1.2083,Lo,,,,,,0,,,,,,,,high,11,0,11,0,1,,,,,,,,,
293323,2022-11-16_08h25.14.938,vts_reward_expectancy_bt,2022.2.4,MacIntel,60.0024001,Chrome,1920,1200,,,,,1,551,,,,,,,,,,,,,,,,,H,181,triangle,1,0,,,,,,,,,,,,,,,,switch,letter,lettSwt,d,1.0925,Hi,,,,,,0,,,,,,,,high,12,0,12,0,1,,,,,,,,,
293323,2022-11-16_08h25.14.938,vts_reward_expectancy_bt,2022.2.4,MacIntel,60.0024001,Chrome,1920,1200,,,,,10,561,,,,,,,,,,,,,,,,,Y,125,circle,1,0,,,,,,,,,,,,,,,,switch,number,numSwt,j,1.7595,Lo,,,,,,0,,,,,,,,high,13,0,13,0,1,,,,,,,,,
293323,2022-11-16_08h25.14.938,vts_reward_expectancy_bt,2022.2.4,MacIntel,60.0024001,Chrome,1920,1200,,,,,1,562,,,,,,,,,,,,,,,,,W,139,star,1,0,,,,,,,,,,,,,,,,switch,letter,lettSwt,f,1.3097,Lo,,,,,,0,,,,,,,,high,14,0,14,0,1,,,,,,,,,
293323,2022-11-16_08h25.14.938,vts_reward_expectancy_bt,2022.2.4,MacIntel,60.0024001,Chrome,1920,1200,,,,,0,562,,,,,,,,,,,,,,,,,D,167,hexagon,1,0,,,,,,,,,,,,,,,,switch,number,numSwt,k,1.8758,Hi,,,,,,0,,,,,,,,high,15,0,15,0,1,,,,,,,,,
293323,2022-11-16_08h25.14.938,vts_reward_expectancy_bt,2022.2.4,MacIntel,60.0024001,Chrome,1920,1200,,,,,0,562,,,,,,,,,,,,,,,,,Y,125,triangle,1,0,,,,,,,,,,,,,,,,switch,letter,lettSwt,f,1.5093,Hi,,,,,,0,,,,,,,,high,16,0,16,0,1,,,,,,,,,
293323,2022-11-16_08h25.14.938,vts_reward_expectancy_bt,2022.2.4,MacIntel,60.0024001,Chrome,1920,1200,,,,,10,572,,,,,,,,,,,,,,,,,S,146,hexagon,1,0,,,,,,,,,,,,,,,,switch,number,numSwt,j,0.9745,Hi,,,,,,0,,,,,,,,high,17,0,17,0,1,,,,,,,,,
293323,2022-11-16_08h25.14.938,vts_reward_expectancy_bt,2022.2.4,MacIntel,60.0024001,Chrome,1920,1200,,,,,1,573,,,,,,,,,,,,,,,,,W,181,star,1,0,,,,,,,,,,,,,,,,switch,letter,lettSwt,f,0.9597,Lo,,,,,,0,,,,,,,,high,18,0,18,0,1,,,,,,,,,
293323,2022-11-16_08h25.14.938,vts_reward_expectancy_bt,2022.2.4,MacIntel,60.0024001,Chrome,1920,1200,,,,,1,574,,,,,,,,,,,,,,,,,B,160,circle,1,0,,,,,,,,,,,,,,,,switch,number,numSwt,k,0.8089,Lo,,,,,,0,,,,,,,,high,19,0,19,0,1,,,,,,,,,
293323,2022-11-16_08h25.14.938,vts_reward_expectancy_bt,2022.2.4,MacIntel,60.0024001,Chrome,1920,1200,,,,,10,584,,,,,,,,,,,,,,,,,U,167,triangle,1,0,,,,,,,,,,,,,,,,switch,letter,lettSwt,f,0.7289,Hi,,,,,,0,,,,,,,,high,20,0,20,0,1,,,,,,,,,
293323,2022-11-16_08h25.14.938,vts_reward_expectancy_bt,2022.2.4,MacIntel,60.0024001,Chrome,1920,1200,,,,,1,585,,,,,,,,,,,,,,,,,H,139,hexagon,1,0,,,,,,,,,,,,,,,,switch,number,numSwt,j,1.1579,Hi,,,,,,0,,,,,,,,high,21,0,21,0,1,,,,,,,,,
293323,2022-11-16_08h25.14.938,vts_reward_expectancy_bt,2022.2.4,MacIntel,60.0024001,Chrome,1920,1200,,,,,1,586,,,,,,,,,,,,,,,,,F,132,circle,1,0,,,,,,,,,,,,,,,,switch,letter,lettSwt,d,2.3428,Lo,,,,,,0,,,,,,,,high,22,0,22,0,1,,,,,,,,,
293323,2022-11-16_08h25.14.938,vts_reward_expectancy_bt,2022.2.4,MacIntel,60.0024001,Chrome,1920,1200,,,,,1,587,,,,,,,,,,,,,,,,,D,174,star,1,0,,,,,,,,,,,,,,,,switch,number,numSwt,k,0.7261,Lo,,,,,,0,,,,,,,,high,23,0,23,0,1,,,,,,,,,
293323,2022-11-16_08h25.14.938,vts_reward_expectancy_bt,2022.2.4,MacIntel,60.0024001,Chrome,1920,1200,,,,,10,597,,,,,,,,,,,,,,,,,W,139,hexagon,1,0,,,,,,,,,,,,,,,,repeat,number,numRpt,j,0.796,Hi,,,,,,0,,,,,,,,high,24,0,24,0,1,,,,,,,,,
293323,2022-11-16_08h25.14.938,vts_reward_expectancy_bt,2022.2.4,MacIntel,60.0024001,Chrome,1920,1200,,,,,1,598,,,,,,,,,,,,,,,,,B,167,circle,1,0,,,,,,,,,,,,,,,,repeat,number,numRpt,k,0.8425,Lo,,,,,,0,,,,,,,,high,25,0,25,0,1,,,,,,,,,
293323,2022-11-16_08h25.14.938,vts_reward_expectancy_bt,2022.2.4,MacIntel,60.0024001,Chrome,1920,1200,,,,,1,599,,,,,,,,,,,,,,,,,Y,160,triangle,1,0,,,,,,,,,,,,,,,,switch,letter,lettSwt,f,0.96,Hi,,,,,,0,,,,,,,,high,26,0,26,0,1,,,,,,,,,
293323,2022-11-16_08h25.14.938,vts_reward_expectancy_bt,2022.2.4,MacIntel,60.0024001,Chrome,1920,1200,,,,,1,600,,,,,,,,,,,,,,,,,F,146,star,1,0,,,,,,,,,,,,,,,,repeat,letter,lettRpt,d,1.3445,Lo,,,,,,0,,,,,,,,high,27,0,27,0,1,,,,,,,,,
293323,2022-11-16_08h25.14.938,vts_reward_expectancy_bt,2022.2.4,MacIntel,60.0024001,Chrome,1920,1200,,,,,0,600,,,,,,,,,,,,,,,,,D,125,triangle,1,0,,,,,,,,,,,,,,,,switch,number,numSwt,j,1.509,Hi,,,,,,0,,,,,,,,high,28,0,28,0,1,,,,,,,,,
293323,2022-11-16_08h25.14.938,vts_reward_expectancy_bt,2022.2.4,MacIntel,60.0024001,Chrome,1920,1200,,,,,1,601,,,,,,,,,,,,,,,,,U,174,hexagon,1,0,,,,,,,,,,,,,,,,repeat,number,numRpt,k,1.1784,Hi,,,,,,0,,,,,,,,high,29,0,29,0,1,,,,,,,,,
293323,2022-11-16_08h25.14.938,vts_reward_expectancy_bt,2022.2.4,MacIntel,60.0024001,Chrome,1920,1200,,,,,1,602,,,,,,,,,,,,,,,,,H,181,star,1,0,,,,,,,,,,,,,,,,switch,letter,lettSwt,d,0.9605,Lo,,,,,,0,,,,,,,,high,30,0,30,0,1,,,,,,,,,
293323,2022-11-16_08h25.14.938,vts_reward_expectancy_bt,2022.2.4,MacIntel,60.0024001,Chrome,1920,1200,,,,,1,603,,,,,,,,,,,,,,,,,S,132,circle,1,0,,,,,,,,,,,,,,,,switch,number,numSwt,j,0.7755,Lo,,,,,,0,,,,,,,,high,31,0,31,0,1,,,,,,,,,
293323,2022-11-16_08h25.14.938,vts_reward_expectancy_bt,2022.2.4,MacIntel,60.0024001,Chrome,1920,1200,,,,,1,604,,,,,,,,,,,,,,,,,B,146,circle,1,0,,,,,,,,,,,,,,,,repeat,number,numRpt,j,0.9108,Lo,,,,,,1,,,,,,space,2.8386,high,0,0,0,0,1,,,,,,,,,
293323,2022-11-16_08h25.14.938,vts_reward_expectancy_bt,2022.2.4,MacIntel,60.0024001,Chrome,1920,1200,,,,,1,605,,,,,,,,,,,,,,,,,Y,125,star,1,0,,,,,,,,,,,,,,,,repeat,number,numRpt,j,1.0591,Lo,,,,,,1,,,,,,,,high,1,0,1,0,1,,,,,,,,,
293323,2022-11-16_08h25.14.938,vts_reward_expectancy_bt,2022.2.4,MacIntel,60.0024001,Chrome,1920,1200,,,,,10,615,,,,,,,,,,,,,,,,,W,160,triangle,1,0,,,,,,,,,,,,,,,,switch,letter,lettSwt,f,0.8787,Hi,,,,,,1,,,,,,,,high,2,0,2,0,1,,,,,,,,,
293323,2022-11-16_08h25.14.938,vts_reward_expectancy_bt,2022.2.4,MacIntel,60.0024001,Chrome,1920,1200,,,,,10,625,,,,,,,,,,,,,,,,,H,174,hexagon,1,0,,,,,,,,,,,,,,,,repeat,letter,lettRpt,d,1.0458,Hi,,,,,,1,,,,,,,,high,3,0,3,0,1,,,,,,,,,
293323,2022-11-16_08h25.14.938,vts_reward_expectancy_bt,2022.2.4,MacIntel,60.0024001,Chrome,1920,1200,,,,,10,635,,,,,,,,,,,,,,,,,U,181,circle,1,0,,,,,,,,,,,,,,,,switch,number,numSwt,k,1.011,Lo,,,,,,1,,,,,,,,high,4,0,4,0,1,,,,,,,,,
293323,2022-11-16_08h25.14.938,vts_reward_expectancy_bt,2022.2.4,MacIntel,60.0024001,Chrome,1920,1200,,,,,1,636,,,,,,,,,,,,,,,,,S,132,star,1,0,,,,,,,,,,,,,,,,repeat,number,numRpt,j,0.6925,Lo,,,,,,1,,,,,,,,high,5,0,5,0,1,,,,,,,,,
293323,2022-11-16_08h25.14.938,vts_reward_expectancy_bt,2022.2.4,MacIntel,60.0024001,Chrome,1920,1200,,,,,10,646,,,,,,,,,,,,,,,,,F,167,triangle,1,0,,,,,,,,,,,,,,,,switch,letter,lettSwt,d,0.9294,Hi,,,,,,1,,,,,,,,high,6,0,6,0,1,,,,,,,,,
293323,2022-11-16_08h25.14.938,vts_reward_expectancy_bt,2022.2.4,MacIntel,60.0024001,Chrome,1920,1200,,,,,10,656,,,,,,,,,,,,,,,,,D,139,hexagon,1,0,,,,,,,,,,,,,,,,repeat,letter,lettRpt,d,0.5757,Hi,,,,,,1,,,,,,,,high,7,0,7,0,1,,,,,,,,,
293323,2022-11-16_08h25.14.938,vts_reward_expectancy_bt,2022.2.4,MacIntel,60.0024001,Chrome,1920,1200,,,,,1,657,,,,,,,,,,,,,,,,,B,146,circle,1,0,,,,,,,,,,,,,,,,switch,number,numSwt,j,0.9581,Lo,,,,,,1,,,,,,,,high,8,0,8,0,1,,,,,,,,,
293323,2022-11-16_08h25.14.938,vts_reward_expectancy_bt,2022.2.4,MacIntel,60.0024001,Chrome,1920,1200,,,,,1,658,,,,,,,,,,,,,,,,,Y,125,star,1,0,,,,,,,,,,,,,,,,switch,letter,lettSwt,f,1.8084,Lo,,,,,,1,,,,,,,,high,9,0,9,0,1,,,,,,,,,
293323,2022-11-16_08h25.14.938,vts_reward_expectancy_bt,2022.2.4,MacIntel,60.0024001,Chrome,1920,1200,,,,,0,658,,,,,,,,,,,,,,,,,W,160,hexagon,1,0,,,,,,,,,,,,,,,,repeat,letter,lettRpt,f,1.7434,Hi,,,,,,1,,,,,,,,high,10,0,10,0,1,,,,,,,,,
293323,2022-11-16_08h25.14.938,vts_reward_expectancy_bt,2022.2.4,MacIntel,60.0024001,Chrome,1920,1200,,,,,0,658,,,,,,,,,,,,,,,,,H,174,triangle,1,0,,,,,,,,,,,,,,,,repeat,letter,lettRpt,d,1.6429,Hi,,,,,,1,,,,,,,,high,11,0,11,0,1,,,,,,,,,
293323,2022-11-16_08h25.14.938,vts_reward_expectancy_bt,2022.2.4,MacIntel,60.0024001,Chrome,1920,1200,,,,,1,659,,,,,,,,,,,,,,,,,U,181,circle,1,0,,,,,,,,,,,,,,,,repeat,letter,lettRpt,f,1.2432,Lo,,,,,,1,,,,,,,,high,12,0,12,0,1,,,,,,,,,
293323,2022-11-16_08h25.14.938,vts_reward_expectancy_bt,2022.2.4,MacIntel,60.0024001,Chrome,1920,1200,,,,,10,669,,,,,,,,,,,,,,,,,S,132,hexagon,1,0,,,,,,,,,,,,,,,,repeat,letter,lettRpt,f,0.8597,Hi,,,,,,1,,,,,,,,high,13,0,13,0,1,,,,,,,,,
293323,2022-11-16_08h25.14.938,vts_reward_expectancy_bt,2022.2.4,MacIntel,60.0024001,Chrome,1920,1200,,,,,1,670,,,,,,,,,,,,,,,,,F,167,triangle,1,0,,,,,,,,,,,,,,,,repeat,letter,lettRpt,d,0.8262,Hi,,,,,,1,,,,,,,,high,14,0,14,0,1,,,,,,,,,
293323,2022-11-16_08h25.14.938,vts_reward_expectancy_bt,2022.2.4,MacIntel,60.0024001,Chrome,1920,1200,,,,,1,671,,,,,,,,,,,,,,,,,D,139,star,1,0,,,,,,,,,,,,,,,,repeat,letter,lettRpt,d,0.6759,Lo,,,,,,1,,,,,,,,high,15,0,15,0,1,,,,,,,,,
293323,2022-11-16_08h25.14.938,vts_reward_expectancy_bt,2022.2.4,MacIntel,60.0024001,Chrome,1920,1200,,,,,1,672,,,,,,,,,,,,,,,,,U,125,circle,1,0,,,,,,,,,,,,,,,,repeat,letter,lettRpt,f,0.6758,Lo,,,,,,1,,,,,,,,high,16,0,16,0,1,,,,,,,,,
293323,2022-11-16_08h25.14.938,vts_reward_expectancy_bt,2022.2.4,MacIntel,60.0024001,Chrome,1920,1200,,,,,1,673,,,,,,,,,,,,,,,,,D,160,hexagon,1,0,,,,,,,,,,,,,,,,repeat,letter,lettRpt,d,0.692,Hi,,,,,,1,,,,,,,,high,17,0,17,0,1,,,,,,,,,
293323,2022-11-16_08h25.14.938,vts_reward_expectancy_bt,2022.2.4,MacIntel,60.0024001,Chrome,1920,1200,,,,,1,674,,,,,,,,,,,,,,,,,S,167,triangle,1,0,,,,,,,,,,,,,,,,repeat,letter,lettRpt,f,0.642,Hi,,,,,,1,,,,,,,,high,18,0,18,0,1,,,,,,,,,
293323,2022-11-16_08h25.14.938,vts_reward_expectancy_bt,2022.2.4,MacIntel,60.0024001,Chrome,1920,1200,,,,,1,675,,,,,,,,,,,,,,,,,H,146,star,1,0,,,,,,,,,,,,,,,,repeat,letter,lettRpt,d,0.6086,Lo,,,,,,1,,,,,,,,high,19,0,19,0,1,,,,,,,,,
293323,2022-11-16_08h25.14.938,vts_reward_expectancy_bt,2022.2.4,MacIntel,60.0024001,Chrome,1920,1200,,,,,1,676,,,,,,,,,,,,,,,,,Y,139,triangle,1,0,,,,,,,,,,,,,,,,switch,number,numSwt,j,0.5256,Hi,,,,,,1,,,,,,,,high,20,0,20,0,1,,,,,,,,,
293323,2022-11-16_08h25.14.938,vts_reward_expectancy_bt,2022.2.4,MacIntel,60.0024001,Chrome,1920,1200,,,,,1,677,,,,,,,,,,,,,,,,,W,174,circle,1,0,,,,,,,,,,,,,,,,repeat,number,numRpt,k,0.9272,Lo,,,,,,1,,,,,,,,high,21,0,21,0,1,,,,,,,,,
293323,2022-11-16_08h25.14.938,vts_reward_expectancy_bt,2022.2.4,MacIntel,60.0024001,Chrome,1920,1200,,,,,1,678,,,,,,,,,,,,,,,,,F,181,star,1,0,,,,,,,,,,,,,,,,switch,letter,lettSwt,d,0.6422,Lo,,,,,,1,,,,,,,,high,22,0,22,0,1,,,,,,,,,
293323,2022-11-16_08h25.14.938,vts_reward_expectancy_bt,2022.2.4,MacIntel,60.0024001,Chrome,1920,1200,,,,,1,679,,,,,,,,,,,,,,,,,B,132,hexagon,1,0,,,,,,,,,,,,,,,,repeat,letter,lettRpt,d,0.7098,Hi,,,,,,1,,,,,,,,high,23,0,23,0,1,,,,,,,,,
293323,2022-11-16_08h25.14.938,vts_reward_expectancy_bt,2022.2.4,MacIntel,60.0024001,Chrome,1920,1200,,,,,0,679,,,,,,,,,,,,,,,,,W,132,hexagon,1,0,,,,,,,,,,,,,,,,switch,number,numSwt,j,1.5269,Hi,,,,,,1,,,,,,,,high,24,0,24,0,1,,,,,,,,,
293323,2022-11-16_08h25.14.938,vts_reward_expectancy_bt,2022.2.4,MacIntel,60.0024001,Chrome,1920,1200,,,,,1,680,,,,,,,,,,,,,,,,,Y,181,circle,1,0,,,,,,,,,,,,,,,,repeat,number,numRpt,k,0.9092,Lo,,,,,,1,,,,,,,,high,25,0,25,0,1,,,,,,,,,
293323,2022-11-16_08h25.14.938,vts_reward_expectancy_bt,2022.2.4,MacIntel,60.0024001,Chrome,1920,1200,,,,,1,681,,,,,,,,,,,,,,,,,S,167,star,1,0,,,,,,,,,,,,,,,,repeat,number,numRpt,k,1.0089,Lo,,,,,,1,,,,,,,,high,26,0,26,0,1,,,,,,,,,
293323,2022-11-16_08h25.14.938,vts_reward_expectancy_bt,2022.2.4,MacIntel,60.0024001,Chrome,1920,1200,,,,,10,691,,,,,,,,,,,,,,,,,B,160,triangle,1,0,,,,,,,,,,,,,,,,repeat,number,numRpt,k,0.7771,Hi,,,,,,1,,,,,,,,high,27,0,27,0,1,,,,,,,,,
293323,2022-11-16_08h25.14.938,vts_reward_expectancy_bt,2022.2.4,MacIntel,60.0024001,Chrome,1920,1200,,,,,1,692,,,,,,,,,,,,,,,,,H,174,star,1,0,,,,,,,,,,,,,,,,repeat,number,numRpt,k,0.7318,Lo,,,,,,1,,,,,,,,high,28,0,28,0,1,,,,,,,,,
293323,2022-11-16_08h25.14.938,vts_reward_expectancy_bt,2022.2.4,MacIntel,60.0024001,Chrome,1920,1200,,,,,10,702,,,,,,,,,,,,,,,,,F,125,triangle,1,0,,,,,,,,,,,,,,,,repeat,number,numRpt,j,0.6766,Hi,,,,,,1,,,,,,,,high,29,0,29,0,1,,,,,,,,,
293323,2022-11-16_08h25.14.938,vts_reward_expectancy_bt,2022.2.4,MacIntel,60.0024001,Chrome,1920,1200,,,,,0,702,,,,,,,,,,,,,,,,,D,146,hexagon,1,0,,,,,,,,,,,,,,,,repeat,number,numRpt,j,0.8931,Hi,,,,,,1,,,,,,,,high,30,0,30,0,1,,,,,,,,,
293323,2022-11-16_08h25.14.938,vts_reward_expectancy_bt,2022.2.4,MacIntel,60.0024001,Chrome,1920,1200,,,,,1,703,,,,,,,,,,,,,,,,,U,139,circle,1,0,,,,,,,,,,,,,,,,repeat,number,numRpt,j,0.6256,Lo,,,,,,1,,,,,,,,high,31,0,31,0,1,,,,,,,,,
293323,2022-11-16_08h25.14.938,vts_reward_expectancy_bt,2022.2.4,MacIntel,60.0024001,Chrome,1920,1200,,,,,1,704,,,,,,,,,,,,,,,,,D,181,circle,1,0,,,,,,,,,,,,,,,,repeat,number,numRpt,k,0.776,Lo,,,,,,2,,,,,,space,3.1727,high,0,0,0,0,1,,,,,,,,,
293323,2022-11-16_08h25.14.938,vts_reward_expectancy_bt,2022.2.4,MacIntel,60.0024001,Chrome,1920,1200,,,,,1,705,,,,,,,,,,,,,,,,,S,167,star,1,0,,,,,,,,,,,,,,,,repeat,number,numRpt,k,0.8595,Lo,,,,,,2,,,,,,,,high,1,0,1,0,1,,,,,,,,,
293323,2022-11-16_08h25.14.938,vts_reward_expectancy_bt,2022.2.4,MacIntel,60.0024001,Chrome,1920,1200,,,,,0,705,,,,,,,,,,,,,,,,,W,132,hexagon,1,0,,,,,,,,,,,,,,,,switch,letter,lettSwt,f,1.2937,Hi,,,,,,2,,,,,,,,high,2,0,2,0,1,,,,,,,,,
293323,2022-11-16_08h25.14.938,vts_reward_expectancy_bt,2022.2.4,MacIntel,60.0024001,Chrome,1920,1200,,,,,0,705,,,,,,,,,,,,,,,,,U,139,triangle,1,0,,,,,,,,,,,,,,,,repeat,letter,lettRpt,f,1.2286,Hi,,,,,,2,,,,,,,,high,3,0,3,0,1,,,,,,,,,
293323,2022-11-16_08h25.14.938,vts_reward_expectancy_bt,2022.2.4,MacIntel,60.0024001,Chrome,1920,1200,,,,,1,706,,,,,,,,,,,,,,,,,H,174,circle,1,0,,,,,,,,,,,,,,,,repeat,letter,lettRpt,d,0.7788,Lo,,,,,,2,,,,,,,,high,4,0,4,0,1,,,,,,,,,
293323,2022-11-16_08h25.14.938,vts_reward_expectancy_bt,2022.2.4,MacIntel,60.0024001,Chrome,1920,1200,,,,,1,707,,,,,,,,,,,,,,,,,F,146,star,1,0,,,,,,,,,,,,,,,,switch,number,numSwt,j,0.9937,Lo,,,,,,2,,,,,,,,high,5,0,5,0,1,,,,,,,,,
293323,2022-11-16_08h25.14.938,vts_reward_expectancy_bt,2022.2.4,MacIntel,60.0024001,Chrome,1920,1200,,,,,0,707,,,,,,,,,,,,,,,,,Y,125,hexagon,1,0,,,,,,,,,,,,,,,,switch,letter,lettSwt,f,1.292,Hi,,,,,,2,,,,,,,,high,6,0,6,0,1,,,,,,,,,
293323,2022-11-16_08h25.14.938,vts_reward_expectancy_bt,2022.2.4,MacIntel,60.0024001,Chrome,1920,1200,,,,,0,707,,,,,,,,,,,,,,,,,B,160,triangle,1,0,,,,,,,,,,,,,,,,repeat,letter,lettRpt,d,0.8094,Hi,,,,,,2,,,,,,,,high,7,0,7,0,1,,,,,,,,,
293323,2022-11-16_08h25.14.938,vts_reward_expectancy_bt,2022.2.4,MacIntel,60.0024001,Chrome,1920,1200,,,,,1,708,,,,,,,,,,,,,,,,,D,181,star,1,0,,,,,,,,,,,,,,,,repeat,letter,lettRpt,d,0.4757,Lo,,,,,,2,,,,,,,,high,8,0,8,0,1,,,,,,,,,
293323,2022-11-16_08h25.14.938,vts_reward_expectancy_bt,2022.2.4,MacIntel,60.0024001,Chrome,1920,1200,,,,,1,709,,,,,,,,,,,,,,,,,S,167,circle,1,0,,,,,,,,,,,,,,,,switch,number,numSwt,k,0.563,Lo,,,,,,2,,,,,,,,high,9,0,9,0,1,,,,,,,,,
293323,2022-11-16_08h25.14.938,vts_reward_expectancy_bt,2022.2.4,MacIntel,60.0024001,Chrome,1920,1200,,,,,10,719,,,,,,,,,,,,,,,,,W,132,hexagon,1,0,,,,,,,,,,,,,,,,switch,letter,lettSwt,f,0.5773,Hi,,,,,,2,,,,,,,,high,10,0,10,0,1,,,,,,,,,
293323,2022-11-16_08h25.14.938,vts_reward_expectancy_bt,2022.2.4,MacIntel,60.0024001,Chrome,1920,1200,,,,,10,729,,,,,,,,,,,,,,,,,U,139,triangle,1,0,,,,,,,,,,,,,,,,repeat,letter,lettRpt,f,0.6581,Hi,,,,,,2,,,,,,,,high,11,0,11,0,1,,,,,,,,,
293323,2022-11-16_08h25.14.938,vts_reward_expectancy_bt,2022.2.4,MacIntel,60.0024001,Chrome,1920,1200,,,,,10,739,,,,,,,,,,,,,,,,,H,174,triangle,1,0,,,,,,,,,,,,,,,,repeat,letter,lettRpt,d,0.644,Hi,,,,,,2,,,,,,,,high,12,0,12,0,1,,,,,,,,,
293323,2022-11-16_08h25.14.938,vts_reward_expectancy_bt,2022.2.4,MacIntel,60.0024001,Chrome,1920,1200,,,,,0,739,,,,,,,,,,,,,,,,,F,146,hexagon,1,0,,,,,,,,,,,,,,,,repeat,letter,lettRpt,d,0.8092,Hi,,,,,,2,,,,,,,,high,13,0,13,0,1,,,,,,,,,
293323,2022-11-16_08h25.14.938,vts_reward_expectancy_bt,2022.2.4,MacIntel,60.0024001,Chrome,1920,1200,,,,,1,740,,,,,,,,,,,,,,,,,Y,125,star,1,0,,,,,,,,,,,,,,,,repeat,letter,lettRpt,f,0.9593,Lo,,,,,,2,,,,,,,,high,14,0,14,0,1,,,,,,,,,
293323,2022-11-16_08h25.14.938,vts_reward_expectancy_bt,2022.2.4,MacIntel,60.0024001,Chrome,1920,1200,,,,,1,741,,,,,,,,,,,,,,,,,B,160,circle,1,0,,,,,,,,,,,,,,,,switch,number,numSwt,k,0.8623,Lo,,,,,,2,,,,,,,,high,15,0,15,0,1,,,,,,,,,
293323,2022-11-16_08h25.14.938,vts_reward_expectancy_bt,2022.2.4,MacIntel,60.0024001,Chrome,1920,1200,,,,,1,742,,,,,,,,,,,,,,,,,U,139,triangle,1,0,,,,,,,,,,,,,,,,switch,letter,lettSwt,f,0.642,Hi,,,,,,2,,,,,,,,high,16,0,16,0,1,,,,,,,,,
293323,2022-11-16_08h25.14.938,vts_reward_expectancy_bt,2022.2.4,MacIntel,60.0024001,Chrome,1920,1200,,,,,1,743,,,,,,,,,,,,,,,,,F,174,star,1,0,,,,,,,,,,,,,,,,switch,number,numSwt,k,1.2766,Lo,,,,,,2,,,,,,,,high,17,0,17,0,1,,,,,,,,,
293323,2022-11-16_08h25.14.938,vts_reward_expectancy_bt,2022.2.4,MacIntel,60.0024001,Chrome,1920,1200,,,,,10,753,,,,,,,,,,,,,,,,,D,167,hexagon,1,0,,,,,,,,,,,,,,,,repeat,number,numRpt,k,0.5274,Hi,,,,,,2,,,,,,,,high,18,0,18,0,1,,,,,,,,,
293323,2022-11-16_08h25.14.938,vts_reward_expectancy_bt,2022.2.4,MacIntel,60.0024001,Chrome,1920,1200,,,,,10,763,,,,,,,,,,,,,,,,,W,181,circle,1,0,,,,,,,,,,,,,,,,switch,letter,lettSwt,f,0.9605,Lo,,,,,,2,,,,,,,,high,19,0,19,0,1,,,,,,,,,
293323,2022-11-16_08h25.14.938,vts_reward_expectancy_bt,2022.2.4,MacIntel,60.0024001,Chrome,1920,1200,,,,,1,764,,,,,,,,,,,,,,,,,B,132,circle,1,0,,,,,,,,,,,,,,,,repeat,letter,lettRpt,d,1.2768,Lo,,,,,,2,,,,,,,,high,20,0,20,0,1,,,,,,,,,
293323,2022-11-16_08h25.14.938,vts_reward_expectancy_bt,2022.2.4,MacIntel,60.0024001,Chrome,1920,1200,,,,,1,765,,,,,,,,,,,,,,,,,Y,146,star,1,0,,,,,,,,,,,,,,,,repeat,letter,lettRpt,f,0.8937,Lo,,,,,,2,,,,,,,,high,21,0,21,0,1,,,,,,,,,
293323,2022-11-16_08h25.14.938,vts_reward_expectancy_bt,2022.2.4,MacIntel,60.0024001,Chrome,1920,1200,,,,,0,765,,,,,,,,,,,,,,,,,S,160,triangle,1,0,,,,,,,,,,,,,,,,switch,number,numSwt,k,1.3086,Hi,,,,,,2,,,,,,,,high,22,0,22,0,1,,,,,,,,,
293323,2022-11-16_08h25.14.938,vts_reward_expectancy_bt,2022.2.4,MacIntel,60.0024001,Chrome,1920,1200,,,,,0,765,,,,,,,,,,,,,,,,,H,125,hexagon,1,0,,,,,,,,,,,,,,,,repeat,number,numRpt,j,1.0607,Hi,,,,,,2,,,,,,,,high,23,0,23,0,1,,,,,,,,,
293323,2022-11-16_08h25.14.938,vts_reward_expectancy_bt,2022.2.4,MacIntel,60.0024001,Chrome,1920,1200,,,,,10,775,,,,,,,,,,,,,,,,,F,125,triangle,1,0,,,,,,,,,,,,,,,,repeat,number,numRpt,j,0.5105,Hi,,,,,,2,,,,,,,,high,24,0,24,0,1,,,,,,,,,
293323,2022-11-16_08h25.14.938,vts_reward_expectancy_bt,2022.2.4,MacIntel,60.0024001,Chrome,1920,1200,,,,,1,776,,,,,,,,,,,,,,,,,H,160,circle,1,0,,,,,,,,,,,,,,,,repeat,number,numRpt,k,0.4774,Lo,,,,,,2,,,,,,,,high,25,0,25,0,1,,,,,,,,,
293323,2022-11-16_08h25.14.938,vts_reward_expectancy_bt,2022.2.4,MacIntel,60.0024001,Chrome,1920,1200,,,,,1,777,,,,,,,,,,,,,,,,,S,146,star,1,0,,,,,,,,,,,,,,,,switch,letter,lettSwt,f,0.6091,Lo,,,,,,2,,,,,,,,high,26,0,26,0,1,,,,,,,,,
293323,2022-11-16_08h25.14.938,vts_reward_expectancy_bt,2022.2.4,MacIntel,60.0024001,Chrome,1920,1200,,,,,0,777,,,,,,,,,,,,,,,,,Y,181,hexagon,1,0,,,,,,,,,,,,,,,,repeat,letter,lettRpt,f,0.762,Hi,,,,,,2,,,,,,,,high,27,0,27,0,1,,,,,,,,,
293323,2022-11-16_08h25.14.938,vts_reward_expectancy_bt,2022.2.4,MacIntel,60.0024001,Chrome,1920,1200,,,,,1,778,,,,,,,,,,,,,,,,,D,167,circle,1,0,,,,,,,,,,,,,,,,repeat,letter,lettRpt,d,0.5092,Lo,,,,,,2,,,,,,,,high,28,0,28,0,1,,,,,,,,,
293323,2022-11-16_08h25.14.938,vts_reward_expectancy_bt,2022.2.4,MacIntel,60.0024001,Chrome,1920,1200,,,,,10,788,,,,,,,,,,,,,,,,,B,132,triangle,1,0,,,,,,,,,,,,,,,,switch,number,numSwt,j,0.5752,Hi,,,,,,2,,,,,,,,high,29,0,29,0,1,,,,,,,,,
293323,2022-11-16_08h25.14.938,vts_reward_expectancy_bt,2022.2.4,MacIntel,60.0024001,Chrome,1920,1200,,,,,1,789,,,,,,,,,,,,,,,,,W,139,star,1,0,,,,,,,,,,,,,,,,repeat,number,numRpt,j,1.026,Lo,,,,,,2,,,,,,,,high,30,0,30,0,1,,,,,,,,,
293323,2022-11-16_08h25.14.938,vts_reward_expectancy_bt,2022.2.4,MacIntel,60.0024001,Chrome,1920,1200,,,,,10,799,,,,,,,,,,,,,,,,,U,174,hexagon,1,0,,,,,,,,,,,,,,,,repeat,number,numRpt,k,0.4756,Hi,,,,,,2,,,,,,,,high,31,0,31,0,1,,,,,,,,,
293323,2022-11-16_08h25.14.938,vts_reward_expectancy_bt,2022.2.4,MacIntel,60.0024001,Chrome,1920,1200,,,,,1,800,,,,,,,,,,,,,,,,,S,146,star,1,0,,,,,,,,,,,,,,,,repeat,number,numRpt,j,1.044,Lo,,,,,,3,,,,,,space,1.1225,high,0,0,0,0,1,,,,,,,,,
293323,2022-11-16_08h25.14.938,vts_reward_expectancy_bt,2022.2.4,MacIntel,60.0024001,Chrome,1920,1200,,,,,0,800,,,,,,,,,,,,,,,,,D,181,hexagon,1,0,,,,,,,,,,,,,,,,repeat,number,numRpt,k,0.6084,Hi,,,,,,3,,,,,,,,high,1,0,1,0,1,,,,,,,,,
293323,2022-11-16_08h25.14.938,vts_reward_expectancy_bt,2022.2.4,MacIntel,60.0024001,Chrome,1920,1200,,,,,10,810,,,,,,,,,,,,,,,,,Y,167,circle,1,0,,,,,,,,,,,,,,,,repeat,number,numRpt,k,0.5601,Lo,,,,,,3,,,,,,,,high,2,0,2,0,1,,,,,,,,,
293323,2022-11-16_08h25.14.938,vts_reward_expectancy_bt,2022.2.4,MacIntel,60.0024001,Chrome,1920,1200,,,,,0,810,,,,,,,,,,,,,,,,,F,139,triangle,1,0,,,,,,,,,,,,,,,,repeat,number,numRpt,j,0.8276,Hi,,,,,,3,,,,,,,,high,3,0,3,0,1,,,,,,,,,
293323,2022-11-16_08h25.14.938,vts_reward_expectancy_bt,2022.2.4,MacIntel,60.0024001,Chrome,1920,1200,,,,,1,811,,,,,,,,,,,,,,,,,H,160,star,1,0,,,,,,,,,,,,,,,,repeat,number,numRpt,k,0.526,Lo,,,,,,3,,,,,,,,high,4,0,4,0,1,,,,,,,,,
293323,2022-11-16_08h25.14.938,vts_reward_expectancy_bt,2022.2.4,MacIntel,60.0024001,Chrome,1920,1200,,,,,10,821,,,,,,,,,,,,,,,,,B,174,hexagon,1,0,,,,,,,,,,,,,,,,switch,letter,lettSwt,d,0.5437,Hi,,,,,,3,,,,,,,,high,5,0,5,0,1,,,,,,,,,
293323,2022-11-16_08h25.14.938,vts_reward_expectancy_bt,2022.2.4,MacIntel,60.0024001,Chrome,1920,1200,,,,,10,831,,,,,,,,,,,,,,,,,U,125,circle,1,0,,,,,,,,,,,,,,,,switch,number,numSwt,j,0.4755,Lo,,,,,,3,,,,,,,,high,6,0,6,0,1,,,,,,,,,
293323,2022-11-16_08h25.14.938,vts_reward_expectancy_bt,2022.2.4,MacIntel,60.0024001,Chrome,1920,1200,,,,,10,841,,,,,,,,,,,,,,,,,W,132,triangle,1,0,,,,,,,,,,,,,,,,switch,letter,lettSwt,f,0.5293,Hi,,,,,,3,,,,,,,,high,7,0,7,0,1,,,,,,,,,
293323,2022-11-16_08h25.14.938,vts_reward_expectancy_bt,2022.2.4,MacIntel,60.0024001,Chrome,1920,1200,,,,,10,851,,,,,,,,,,,,,,,,,S,146,star,1,0,,,,,,,,,,,,,,,,switch,number,numSwt,j,0.56,Lo,,,,,,3,,,,,,,,high,8,0,8,0,1,,,,,,,,,
293323,2022-11-16_08h25.14.938,vts_reward_expectancy_bt,2022.2.4,MacIntel,60.0024001,Chrome,1920,1200,,,,,1,852,,,,,,,,,,,,,,,,,D,181,circle,1,0,,,,,,,,,,,,,,,,repeat,number,numRpt,k,0.7765,Lo,,,,,,3,,,,,,,,high,9,0,9,0,1,,,,,,,,,
293323,2022-11-16_08h25.14.938,vts_reward_expectancy_bt,2022.2.4,MacIntel,60.0024001,Chrome,1920,1200,,,,,0,852,,,,,,,,,,,,,,,,,Y,167,hexagon,1,0,,,,,,,,,,,,,,,,switch,letter,lettSwt,f,0.9925,Hi,,,,,,3,,,,,,,,high,10,0,10,0,1,,,,,,,,,
293323,2022-11-16_08h25.14.938,vts_reward_expectancy_bt,2022.2.4,MacIntel,60.0024001,Chrome,1920,1200,,,,,0,852,,,,,,,,,,,,,,,,,F,139,triangle,1,0,,,,,,,,,,,,,,,,repeat,letter,lettRpt,d,1.1592,Hi,,,,,,3,,,,,,,,high,11,0,11,0,1,,,,,,,,,
293323,2022-11-16_08h25.14.938,vts_reward_expectancy_bt,2022.2.4,MacIntel,60.0024001,Chrome,1920,1200,,,,,1,853,,,,,,,,,,,,,,,,,H,160,circle,1,0,,,,,,,,,,,,,,,,repeat,letter,lettRpt,d,1.2606,Lo,,,,,,3,,,,,,,,high,12,0,12,0,1,,,,,,,,,
293323,2022-11-16_08h25.14.938,vts_reward_expectancy_bt,2022.2.4,MacIntel,60.0024001,Chrome,1920,1200,,,,,10,863,,,,,,,,,,,,,,,,,B,174,star,1,0,,,,,,,,,,,,,,,,switch,number,numSwt,k,0.6919,Lo,,,,,,3,,,,,,,,high,13,0,13,0,1,,,,,,,,,
293323,2022-11-16_08h25.14.938,vts_reward_expectancy_bt,2022.2.4,MacIntel,60.0024001,Chrome,1920,1200,,,,,0,863,,,,,,,,,,,,,,,,,U,125,hexagon,1,0,,,,,,,,,,,,,,,,switch,letter,lettSwt,f,1.0249,Hi,,,,,,3,,,,,,,,high,14,0,14,0,1,,,,,,,,,
293323,2022-11-16_08h25.14.938,vts_reward_expectancy_bt,2022.2.4,MacIntel,60.0024001,Chrome,1920,1200,,,,,10,873,,,,,,,,,,,,,,,,,W,132,triangle,1,0,,,,,,,,,,,,,,,,repeat,letter,lettRpt,f,0.4933,Hi,,,,,,3,,,,,,,,high,15,0,15,0,1,,,,,,,,,
293323,2022-11-16_08h25.14.938,vts_reward_expectancy_bt,2022.2.4,MacIntel,60.0024001,Chrome,1920,1200,,,,,10,883,,,,,,,,,,,,,,,,,D,125,triangle,1,0,,,,,,,,,,,,,,,,repeat,letter,lettRpt,d,0.4929,Hi,,,,,,3,,,,,,,,high,16,0,16,0,1,,,,,,,,,
293323,2022-11-16_08h25.14.938,vts_reward_expectancy_bt,2022.2.4,MacIntel,60.0024001,Chrome,1920,1200,,,,,1,884,,,,,,,,,,,,,,,,,W,160,circle,1,0,,,,,,,,,,,,,,,,switch,number,numSwt,k,0.5435,Lo,,,,,,3,,,,,,,,high,17,0,17,0,1,,,,,,,,,
293323,2022-11-16_08h25.14.938,vts_reward_expectancy_bt,2022.2.4,MacIntel,60.0024001,Chrome,1920,1200,,,,,0,884,,,,,,,,,,,,,,,,,B,167,hexagon,1,0,,,,,,,,,,,,,,,,switch,letter,lettSwt,d,1.0094,Hi,,,,,,3,,,,,,,,high,18,0,18,0,1,,,,,,,,,
293323,2022-11-16_08h25.14.938,vts_reward_expectancy_bt,2022.2.4,MacIntel,60.0024001,Chrome,1920,1200,,,,,1,885,,,,,,,,,,,,,,,,,S,132,star,1,0,,,,,,,,,,,,,,,,switch,number,numSwt,j,0.7139,Lo,,,,,,3,,,,,,,,high,19,0,19,0,1,,,,,,,,,
293323,2022-11-16_08h25.14.938,vts_reward_expectancy_bt,2022.2.4,MacIntel,60.0024001,Chrome,1920,1200,,,,,10,895,,,,,,,,,,,,,,,,,Y,146,hexagon,1,0,,,,,,,,,,,,,,,,switch,letter,lettSwt,f,0.5438,Hi,,,,,,3,,,,,,,,high,20,0,20,0,1,,,,,,,,,
293323,2022-11-16_08h25.14.938,vts_reward_expectancy_bt,2022.2.4,MacIntel,60.0024001,Chrome,1920,1200,,,,,10,905,,,,,,,,,,,,,,,,,F,139,triangle,1,0,,,,,,,,,,,,,,,,repeat,letter,lettRpt,d,0.6436,Hi,,,,,,3,,,,,,,,high,21,0,21,0,1,,,,,,,,,
293323,2022-11-16_08h25.14.938,vts_reward_expectancy_bt,2022.2.4,MacIntel,60.0024001,Chrome,1920,1200,,,,,10,915,,,,,,,,,,,,,,,,,U,181,star,1,0,,,,,,,,,,,,,,,,repeat,letter,lettRpt,f,1.0269,Lo,,,,,,3,,,,,,,,high,22,0,22,0,1,,,,,,,,,
293323,2022-11-16_08h25.14.938,vts_reward_expectancy_bt,2022.2.4,MacIntel,60.0024001,Chrome,1920,1200,,,,,1,916,,,,,,,,,,,,,,,,,H,174,circle,1,0,,,,,,,,,,,,,,,,switch,number,numSwt,k,1.0617,Lo,,,,,,3,,,,,,,,high,23,0,23,0,1,,,,,,,,,
293323,2022-11-16_08h25.14.938,vts_reward_expectancy_bt,2022.2.4,MacIntel,60.0024001,Chrome,1920,1200,,,,,1,917,,,,,,,,,,,,,,,,,W,125,star,1,0,,,,,,,,,,,,,,,,repeat,number,numRpt,j,1.0591,Lo,,,,,,3,,,,,,,,high,24,0,24,0,1,,,,,,,,,
293323,2022-11-16_08h25.14.938,vts_reward_expectancy_bt,2022.2.4,MacIntel,60.0024001,Chrome,1920,1200,,,,,1,918,,,,,,,,,,,,,,,,,H,160,circle,1,0,,,,,,,,,,,,,,,,repeat,number,numRpt,k,1.1599,Lo,,,,,,3,,,,,,,,high,25,0,25,0,1,,,,,,,,,
293323,2022-11-16_08h25.14.938,vts_reward_expectancy_bt,2022.2.4,MacIntel,60.0024001,Chrome,1920,1200,,,,,0,918,,,,,,,,,,,,,,,,,B,139,triangle,1,0,,,,,,,,,,,,,,,,repeat,number,numRpt,j,1.315,Hi,,,,,,3,,,,,,,,high,26,0,26,0,1,,,,,,,,,
293323,2022-11-16_08h25.14.938,vts_reward_expectancy_bt,2022.2.4,MacIntel,60.0024001,Chrome,1920,1200,,,,,10,928,,,,,,,,,,,,,,,,,F,132,hexagon,1,0,,,,,,,,,,,,,,,,switch,letter,lettSwt,d,0.6106,Hi,,,,,,3,,,,,,,,high,27,0,27,0,1,,,,,,,,,
293323,2022-11-16_08h25.14.938,vts_reward_expectancy_bt,2022.2.4,MacIntel,60.0024001,Chrome,1920,1200,,,,,1,929,,,,,,,,,,,,,,,,,Y,167,triangle,1,0,,,,,,,,,,,,,,,,repeat,letter,lettRpt,f,0.6985,Hi,,,,,,3,,,,,,,,high,28,0,28,0,1,,,,,,,,,
293323,2022-11-16_08h25.14.938,vts_reward_expectancy_bt,2022.2.4,MacIntel,60.0024001,Chrome,1920,1200,,,,,1,930,,,,,,,,,,,,,,,,,D,146,star,1,0,,,,,,,,,,,,,,,,switch,number,numSwt,j,0.7758,Lo,,,,,,3,,,,,,,,high,29,0,29,0,1,,,,,,,,,
293323,2022-11-16_08h25.14.938,vts_reward_expectancy_bt,2022.2.4,MacIntel,60.0024001,Chrome,1920,1200,,,,,1,931,,,,,,,,,,,,,,,,,U,181,circle,1,0,,,,,,,,,,,,,,,,repeat,number,numRpt,k,1.0263,Lo,,,,,,3,,,,,,,,high,30,0,30,0,1,,,,,,,,,
293323,2022-11-16_08h25.14.938,vts_reward_expectancy_bt,2022.2.4,MacIntel,60.0024001,Chrome,1920,1200,,,,,0,931,,,,,,,,,,,,,,,,,S,174,hexagon,1,0,,,,,,,,,,,,,,,,switch,letter,lettSwt,f,0.7938,Hi,,,,,,3,,,,,,,,high,31,0,31,0,1,,,,,,,,,
293323,2022-11-16_08h25.14.938,vts_reward_expectancy_bt,2022.2.4,MacIntel,60.0024001,Chrome,1920,1200,,,,,1,932,,,,,,,,,,,,,,,,,F,132,star,1,0,,,,,,,,,,,,,,,,switch,number,numSwt,j,0.8609,Lo,,,,,,4,,,,,,space,0.6215,high,0,0,0,0,1,,,,,,,,,
293323,2022-11-16_08h25.14.938,vts_reward_expectancy_bt,2022.2.4,MacIntel,60.0024001,Chrome,1920,1200,,,,,10,942,,,,,,,,,,,,,,,,,S,160,circle,1,0,,,,,,,,,,,,,,,,switch,letter,lettSwt,f,1.228,Lo,,,,,,4,,,,,,,,high,1,0,1,0,1,,,,,,,,,
293323,2022-11-16_08h25.14.938,vts_reward_expectancy_bt,2022.2.4,MacIntel,60.0024001,Chrome,1920,1200,,,,,0,942,,,,,,,,,,,,,,,,,Y,146,hexagon,1,0,,,,,,,,,,,,,,,,repeat,letter,lettRpt,f,1.1938,Hi,,,,,,4,,,,,,,,high,2,0,2,0,1,,,,,,,,,
293323,2022-11-16_08h25.14.938,vts_reward_expectancy_bt,2022.2.4,MacIntel,60.0024001,Chrome,1920,1200,,,,,10,952,,,,,,,,,,,,,,,,,H,125,triangle,1,0,,,,,,,,,,,,,,,,repeat,letter,lettRpt,d,0.4765,Hi,,,,,,4,,,,,,,,high,3,0,3,0,1,,,,,,,,,
293323,2022-11-16_08h25.14.938,vts_reward_expectancy_bt,2022.2.4,MacIntel,60.0024001,Chrome,1920,1200,,,,,1,953,,,,,,,,,,,,,,,,,B,139,star,1,0,,,,,,,,,,,,,,,,switch,number,numSwt,j,0.7822,Lo,,,,,,4,,,,,,,,high,4,0,4,0,1,,,,,,,,,
293323,2022-11-16_08h25.14.938,vts_reward_expectancy_bt,2022.2.4,MacIntel,60.0024001,Chrome,1920,1200,,,,,1,954,,,,,,,,,,,,,,,,,D,181,circle,1,0,,,,,,,,,,,,,,,,repeat,number,numRpt,k,1.0602,Lo,,,,,,4,,,,,,,,high,5,0,5,0,1,,,,,,,,,
293323,2022-11-16_08h25.14.938,vts_reward_expectancy_bt,2022.2.4,MacIntel,60.0024001,Chrome,1920,1200,,,,,0,954,,,,,,,,,,,,,,,,,W,174,hexagon,1,0,,,,,,,,,,,,,,,,switch,letter,lettSwt,f,0.9147,Hi,,,,,,4,,,,,,,,high,6,0,6,0,1,,,,,,,,,
293323,2022-11-16_08h25.14.938,vts_reward_expectancy_bt,2022.2.4,MacIntel,60.0024001,Chrome,1920,1200,,,,,0,954,,,,,,,,,,,,,,,,,U,167,triangle,1,0,,,,,,,,,,,,,,,,repeat,letter,lettRpt,f,0.8946,Hi,,,,,,4,,,,,,,,high,7,0,7,0,1,,,,,,,,,
293323,2022-11-16_08h25.14.938,vts_reward_expectancy_bt,2022.2.4,MacIntel,60.0024001,Chrome,1920,1200,,,,,1,955,,,,,,,,,,,,,,,,,F,132,circle,1,0,,,,,,,,,,,,,,,,switch,number,numSwt,j,0.4615,Lo,,,,,,4,,,,,,,,high,8,0,8,0,1,,,,,,,,,
293323,2022-11-16_08h25.14.938,vts_reward_expectancy_bt,2022.2.4,MacIntel,60.0024001,Chrome,1920,1200,,,,,0,955,,,,,,,,,,,,,,,,,S,160,triangle,1,0,,,,,,,,,,,,,,,,switch,letter,lettSwt,f,0.7329,Hi,,,,,,4,,,,,,,,high,9,0,9,0,1,,,,,,,,,
293323,2022-11-16_08h25.14.938,vts_reward_expectancy_bt,2022.2.4,MacIntel,60.0024001,Chrome,1920,1200,,,,,10,965,,,,,,,,,,,,,,,,,Y,146,hexagon,1,0,,,,,,,,,,,,,,,,repeat,letter,lettRpt,f,0.5288,Hi,,,,,,4,,,,,,,,high,10,0,10,0,1,,,,,,,,,
293323,2022-11-16_08h25.14.938,vts_reward_expectancy_bt,2022.2.4,MacIntel,60.0024001,Chrome,1920,1200,,,,,1,966,,,,,,,,,,,,,,,,,H,125,star,1,0,,,,,,,,,,,,,,,,switch,number,numSwt,j,0.7423,Lo,,,,,,4,,,,,,,,high,11,0,11,0,1,,,,,,,,,
293323,2022-11-16_08h25.14.938,vts_reward_expectancy_bt,2022.2.4,MacIntel,60.0024001,Chrome,1920,1200,,,,,0,966,,,,,,,,,,,,,,,,,B,139,triangle,1,0,,,,,,,,,,,,,,,,switch,letter,lettSwt,d,0.6287,Hi,,,,,,4,,,,,,,,high,12,0,12,0,1,,,,,,,,,
293323,2022-11-16_08h25.14.938,vts_reward_expectancy_bt,2022.2.4,MacIntel,60.0024001,Chrome,1920,1200,,,,,1,967,,,,,,,,,,,,,,,,,D,181,star,1,0,,,,,,,,,,,,,,,,switch,number,numSwt,k,0.6809,Lo,,,,,,4,,,,,,,,high,13,0,13,0,1,,,,,,,,,
293323,2022-11-16_08h25.14.938,vts_reward_expectancy_bt,2022.2.4,MacIntel,60.0024001,Chrome,1920,1200,,,,,1,968,,,,,,,,,,,,,,,,,W,174,circle,1,0,,,,,,,,,,,,,,,,repeat,number,numRpt,k,0.6945,Lo,,,,,,4,,,,,,,,high,14,0,14,0,1,,,,,,,,,
293323,2022-11-16_08h25.14.938,vts_reward_expectancy_bt,2022.2.4,MacIntel,60.0024001,Chrome,1920,1200,,,,,0,968,,,,,,,,,,,,,,,,,U,167,hexagon,1,0,,,,,,,,,,,,,,,,switch,letter,lettSwt,f,0.9326,Hi,,,,,,4,,,,,,,,high,15,0,15,0,1,,,,,,,,,
293323,2022-11-16_08h25.14.938,vts_reward_expectancy_bt,2022.2.4,MacIntel,60.0024001,Chrome,1920,1200,,,,,10,978,,,,,,,,,,,,,,,,,S,174,triangle,1,0,,,,,,,,,,,,,,,,repeat,letter,lettRpt,f,0.4806,Hi,,,,,,4,,,,,,,,high,16,0,16,0,1,,,,,,,,,
293323,2022-11-16_08h25.14.938,vts_reward_expectancy_bt,2022.2.4,MacIntel,60.0024001,Chrome,1920,1200,,,,,1,979,,,,,,,,,,,,,,,,,D,146,star,1,0,,,,,,,,,,,,,,,,switch,number,numSwt,j,0.7474,Lo,,,,,,4,,,,,,,,high,17,0,17,0,1,,,,,,,,,
293323,2022-11-16_08h25.14.938,vts_reward_expectancy_bt,2022.2.4,MacIntel,60.0024001,Chrome,1920,1200,,,,,10,989,,,,,,,,,,,,,,,,,Y,160,hexagon,1,0,,,,,,,,,,,,,,,,switch,letter,lettSwt,f,0.3984,Hi,,,,,,4,,,,,,,,high,18,0,18,0,1,,,,,,,,,
293323,2022-11-16_08h25.14.938,vts_reward_expectancy_bt,2022.2.4,MacIntel,60.0024001,Chrome,1920,1200,,,,,1,990,,,,,,,,,,,,,,,,,U,181,circle,1,0,,,,,,,,,,,,,,,,switch,number,numSwt,k,0.8274,Lo,,,,,,4,,,,,,,,high,19,0,19,0,1,,,,,,,,,
293323,2022-11-16_08h25.14.938,vts_reward_expectancy_bt,2022.2.4,MacIntel,60.0024001,Chrome,1920,1200,,,,,1,991,,,,,,,,,,,,,,,,,B,167,circle,1,0,,,,,,,,,,,,,,,,switch,letter,lettSwt,d,1.0779,Lo,,,,,,4,,,,,,,,high,20,0,20,0,1,,,,,,,,,
293323,2022-11-16_08h25.14.938,vts_reward_expectancy_bt,2022.2.4,MacIntel,60.0024001,Chrome,1920,1200,,,,,10,1001,,,,,,,,,,,,,,,,,H,139,hexagon,1,0,,,,,,,,,,,,,,,,repeat,letter,lettRpt,d,0.5951,Hi,,,,,,4,,,,,,,,high,21,0,21,0,1,,,,,,,,,
293323,2022-11-16_08h25.14.938,vts_reward_expectancy_bt,2022.2.4,MacIntel,60.0024001,Chrome,1920,1200,,,,,10,1011,,,,,,,,,,,,,,,,,W,125,star,1,0,,,,,,,,,,,,,,,,repeat,letter,lettRpt,f,0.882,Lo,,,,,,4,,,,,,,,high,22,0,22,0,1,,,,,,,,,
293323,2022-11-16_08h25.14.938,vts_reward_expectancy_bt,2022.2.4,MacIntel,60.0024001,Chrome,1920,1200,,,,,0,1011,,,,,,,,,,,,,,,,,F,132,triangle,1,0,,,,,,,,,,,,,,,,repeat,letter,lettRpt,d,0.7287,Hi,,,,,,4,,,,,,,,high,23,0,23,0,1,,,,,,,,,
293323,2022-11-16_08h25.14.938,vts_reward_expectancy_bt,2022.2.4,MacIntel,60.0024001,Chrome,1920,1200,,,,,10,1021,,,,,,,,,,,,,,,,,F,167,triangle,1,0,,,,,,,,,,,,,,,,repeat,letter,lettRpt,d,0.4651,Hi,,,,,,4,,,,,,,,high,24,0,24,0,1,,,,,,,,,
293323,2022-11-16_08h25.14.938,vts_reward_expectancy_bt,2022.2.4,MacIntel,60.0024001,Chrome,1920,1200,,,,,1,1022,,,,,,,,,,,,,,,,,D,132,hexagon,1,0,,,,,,,,,,,,,,,,repeat,letter,lettRpt,d,0.4988,Hi,,,,,,4,,,,,,,,high,25,0,25,0,1,,,,,,,,,
293323,2022-11-16_08h25.14.938,vts_reward_expectancy_bt,2022.2.4,MacIntel,60.0024001,Chrome,1920,1200,,,,,10,1032,,,,,,,,,,,,,,,,,Y,181,star,1,0,,,,,,,,,,,,,,,,repeat,letter,lettRpt,f,0.5652,Lo,,,,,,4,,,,,,,,high,26,0,26,0,1,,,,,,,,,
293323,2022-11-16_08h25.14.938,vts_reward_expectancy_bt,2022.2.4,MacIntel,60.0024001,Chrome,1920,1200,,,,,10,1042,,,,,,,,,,,,,,,,,S,160,circle,1,0,,,,,,,,,,,,,,,,repeat,letter,lettRpt,f,0.5821,Lo,,,,,,4,,,,,,,,high,27,0,27,0,1,,,,,,,,,
293323,2022-11-16_08h25.14.938,vts_reward_expectancy_bt,2022.2.4,MacIntel,60.0024001,Chrome,1920,1200,,,,,10,1052,,,,,,,,,,,,,,,,,W,146,hexagon,1,0,,,,,,,,,,,,,,,,repeat,letter,lettRpt,f,0.4981,Hi,,,,,,4,,,,,,,,high,28,0,28,0,1,,,,,,,,,
293323,2022-11-16_08h25.14.938,vts_reward_expectancy_bt,2022.2.4,MacIntel,60.0024001,Chrome,1920,1200,,,,,1,1053,,,,,,,,,,,,,,,,,U,139,star,1,0,,,,,,,,,,,,,,,,repeat,letter,lettRpt,f,0.4946,Lo,,,,,,4,,,,,,,,high,29,0,29,0,1,,,,,,,,,
293323,2022-11-16_08h25.14.938,vts_reward_expectancy_bt,2022.2.4,MacIntel,60.0024001,Chrome,1920,1200,,,,,10,1063,,,,,,,,,,,,,,,,,B,125,triangle,1,0,,,,,,,,,,,,,,,,repeat,letter,lettRpt,d,0.4977,Hi,,,,,,4,,,,,,,,high,30,0,30,0,1,,,,,,,,,
293323,2022-11-16_08h25.14.938,vts_reward_expectancy_bt,2022.2.4,MacIntel,60.0024001,Chrome,1920,1200,,,,,0,1063,,,,,,,,,,,,,,,,,H,174,circle,0,0,,,,,,,,,,,,,,,,repeat,letter,NA,f,0.3957,Hi,,,,,,4,,,,,,,,high,31,0,31,0,1,,,,,,,,,
293323,2022-11-16_08h25.14.938,vts_reward_expectancy_bt,2022.2.4,MacIntel,60.0024001,Chrome,1920,1200,,,,,1,1064,,,,,,,,,,,,,,,,,F,160,triangle,1,1,,,,,,,,,,,,,,,,repeat,letter,lettRpt,d,0.4125,Hi,,,,,,5,,,,,,space,1.1223,high,0,0,0,0,1,,,,,,,,,
293323,2022-11-16_08h25.14.938,vts_reward_expectancy_bt,2022.2.4,MacIntel,60.0024001,Chrome,1920,1200,,,,,0,1064,,,,,,,,,,,,,,,,,H,167,hexagon,1,0,,,,,,,,,,,,,,,,repeat,letter,lettRpt,d,0.5772,Hi,,,,,,5,,,,,,,,high,1,0,1,0,1,,,,,,,,,
293323,2022-11-16_08h25.14.938,vts_reward_expectancy_bt,2022.2.4,MacIntel,60.0024001,Chrome,1920,1200,,,,,10,1074,,,,,,,,,,,,,,,,,S,146,circle,1,0,,,,,,,,,,,,,,,,switch,number,numSwt,j,0.4953,Lo,,,,,,5,,,,,,,,high,2,0,2,0,1,,,,,,,,,
293323,2022-11-16_08h25.14.938,vts_reward_expectancy_bt,2022.2.4,MacIntel,60.0024001,Chrome,1920,1200,,,,,1,1075,,,,,,,,,,,,,,,,,D,125,star,1,0,,,,,,,,,,,,,,,,repeat,number,numRpt,j,0.9115,Lo,,,,,,5,,,,,,,,high,3,0,3,0,1,,,,,,,,,
293323,2022-11-16_08h25.14.938,vts_reward_expectancy_bt,2022.2.4,MacIntel,60.0024001,Chrome,1920,1200,,,,,10,1085,,,,,,,,,,,,,,,,,U,139,triangle,1,0,,,,,,,,,,,,,,,,switch,letter,lettSwt,f,0.5485,Hi,,,,,,5,,,,,,,,high,4,0,4,0,1,,,,,,,,,
293323,2022-11-16_08h25.14.938,vts_reward_expectancy_bt,2022.2.4,MacIntel,60.0024001,Chrome,1920,1200,,,,,0,1085,,,,,,,,,,,,,,,,,W,181,hexagon,1,0,,,,,,,,,,,,,,,,repeat,letter,lettRpt,f,0.7317,Hi,,,,,,5,,,,,,,,high,5,0,5,0,1,,,,,,,,,
293323,2022-11-16_08h25.14.938,vts_reward_expectancy_bt,2022.2.4,MacIntel,60.0024001,Chrome,1920,1200,,,,,1,1086,,,,,,,,,,,,,,,,,Y,132,circle,1,0,,,,,,,,,,,,,,,,switch,number,numSwt,j,0.7117,Lo,,,,,,5,,,,,,,,high,6,0,6,0,1,,,,,,,,,
293323,2022-11-16_08h25.14.938,vts_reward_expectancy_bt,2022.2.4,MacIntel,60.0024001,Chrome,1920,1200,,,,,1,1087,,,,,,,,,,,,,,,,,B,174,star,1,0,,,,,,,,,,,,,,,,repeat,number,numRpt,k,0.9312,Lo,,,,,,5,,,,,,,,high,7,0,7,0,1,,,,,,,,,
293323,2022-11-16_08h25.14.938,vts_reward_expectancy_bt,2022.2.4,MacIntel,60.0024001,Chrome,1920,1200,,,,,1,1088,,,,,,,,,,,,,,,,,F,160,hexagon,1,0,,,,,,,,,,,,,,,,switch,letter,lettSwt,d,0.5481,Hi,,,,,,5,,,,,,,,high,8,0,8,0,1,,,,,,,,,
293323,2022-11-16_08h25.14.938,vts_reward_expectancy_bt,2022.2.4,MacIntel,60.0024001,Chrome,1920,1200,,,,,1,1089,,,,,,,,,,,,,,,,,H,167,circle,1,0,,,,,,,,,,,,,,,,repeat,letter,lettRpt,d,0.561,Lo,,,,,,5,,,,,,,,high,9,0,9,0,1,,,,,,,,,
293323,2022-11-16_08h25.14.938,vts_reward_expectancy_bt,2022.2.4,MacIntel,60.0024001,Chrome,1920,1200,,,,,1,1090,,,,,,,,,,,,,,,,,S,146,star,1,0,,,,,,,,,,,,,,,,repeat,letter,lettRpt,f,0.7152,Lo,,,,,,5,,,,,,,,high,10,0,10,0,1,,,,,,,,,
293323,2022-11-16_08h25.14.938,vts_reward_expectancy_bt,2022.2.4,MacIntel,60.0024001,Chrome,1920,1200,,,,,10,1100,,,,,,,,,,,,,,,,,D,125,triangle,1,0,,,,,,,,,,,,,,,,repeat,letter,lettRpt,d,0.46,Hi,,,,,,5,,,,,,,,high,11,0,11,0,1,,,,,,,,,
293323,2022-11-16_08h25.14.938,vts_reward_expectancy_bt,2022.2.4,MacIntel,60.0024001,Chrome,1920,1200,,,,,1,1101,,,,,,,,,,,,,,,,,U,139,circle,1,0,,,,,,,,,,,,,,,,repeat,letter,lettRpt,f,0.6499,Lo,,,,,,5,,,,,,,,high,12,0,12,0,1,,,,,,,,,
293323,2022-11-16_08h25.14.938,vts_reward_expectancy_bt,2022.2.4,MacIntel,60.0024001,Chrome,1920,1200,,,,,1,1102,,,,,,,,,,,,,,,,,W,181,star,1,0,,,,,,,,,,,,,,,,repeat,letter,lettRpt,f,0.5128,Lo,,,,,,5,,,,,,,,high,13,0,13,0,1,,,,,,,,,
293323,2022-11-16_08h25.14.938,vts_reward_expectancy_bt,2022.2.4,MacIntel,60.0024001,Chrome,1920,1200,,,,,0,1102,,,,,,,,,,,,,,,,,Y,132,triangle,1,0,,,,,,,,,,,,,,,,repeat,letter,lettRpt,f,0.5014,Hi,,,,,,5,,,,,,,,high,14,0,14,0,1,,,,,,,,,
293323,2022-11-16_08h25.14.938,vts_reward_expectancy_bt,2022.2.4,MacIntel,60.0024001,Chrome,1920,1200,,,,,0,1102,,,,,,,,,,,,,,,,,B,174,hexagon,1,0,,,,,,,,,,,,,,,,repeat,letter,lettRpt,d,0.5618,Hi,,,,,,5,,,,,,,,high,15,0,15,0,1,,,,,,,,,
293323,2022-11-16_08h25.14.938,vts_reward_expectancy_bt,2022.2.4,MacIntel,60.0024001,Chrome,1920,1200,,,,,10,1112,,,,,,,,,,,,,,,,,H,167,hexagon,1,0,,,,,,,,,,,,,,,,repeat,letter,lettRpt,d,0.4321,Hi,,,,,,5,,,,,,,,high,16,0,16,0,1,,,,,,,,,
293323,2022-11-16_08h25.14.938,vts_reward_expectancy_bt,2022.2.4,MacIntel,60.0024001,Chrome,1920,1200,,,,,1,1113,,,,,,,,,,,,,,,,,W,132,star,1,0,,,,,,,,,,,,,,,,repeat,letter,lettRpt,f,0.5318,Lo,,,,,,5,,,,,,,,high,17,0,17,0,1,,,,,,,,,
293323,2022-11-16_08h25.14.938,vts_reward_expectancy_bt,2022.2.4,MacIntel,60.0024001,Chrome,1920,1200,,,,,1,1114,,,,,,,,,,,,,,,,,B,160,circle,1,0,,,,,,,,,,,,,,,,repeat,letter,lettRpt,d,0.5979,Lo,,,,,,5,,,,,,,,high,18,0,18,0,1,,,,,,,,,
293323,2022-11-16_08h25.14.938,vts_reward_expectancy_bt,2022.2.4,MacIntel,60.0024001,Chrome,1920,1200,,,,,0,1114,,,,,,,,,,,,,,,,,S,174,triangle,1,0,,,,,,,,,,,,,,,,repeat,letter,lettRpt,f,0.5266,Hi,,,,,,5,,,,,,,,high,19,0,19,0,1,,,,,,,,,
293323,2022-11-16_08h25.14.938,vts_reward_expectancy_bt,2022.2.4,MacIntel,60.0024001,Chrome,1920,1200,,,,,10,1124,,,,,,,,,,,,,,,,,U,139,triangle,1,0,,,,,,,,,,,,,,,,switch,number,numSwt,j,0.6024,Hi,,,,,,5,,,,,,,,high,20,0,20,0,1,,,,,,,,,
293323,2022-11-16_08h25.14.938,vts_reward_expectancy_bt,2022.2.4,MacIntel,60.0024001,Chrome,1920,1200,,,,,0,1124,,,,,,,,,,,,,,,,,F,181,star,0,0,,,,,,,,,,,,,,,,switch,letter,NA,f,1.3153,Hi,,,,,,5,,,,,,,,high,21,0,21,0,1,,,,,,,,,
293323,2022-11-16_08h25.14.938,vts_reward_expectancy_bt,2022.2.4,MacIntel,60.0024001,Chrome,1920,1200,,,,,1,1125,,,,,,,,,,,,,,,,,Y,125,circle,1,1,,,,,,,,,,,,,,,,repeat,letter,lettRpt,f,0.7305,Lo,,,,,,5,,,,,,,,high,22,0,22,0,1,,,,,,,,,
293323,2022-11-16_08h25.14.938,vts_reward_expectancy_bt,2022.2.4,MacIntel,60.0024001,Chrome,1920,1200,,,,,0,1125,,,,,,,,,,,,,,,,,D,146,hexagon,1,0,,,,,,,,,,,,,,,,repeat,letter,lettRpt,d,0.5463,Hi,,,,,,5,,,,,,,,high,23,0,23,0,1,,,,,,,,,
293323,2022-11-16_08h25.14.938,vts_reward_expectancy_bt,2022.2.4,MacIntel,60.0024001,Chrome,1920,1200,,,,,10,1135,,,,,,,,,,,,,,,,,D,139,triangle,1,0,,,,,,,,,,,,,,,,switch,number,numSwt,j,0.4787,Hi,,,,,,5,,,,,,,,high,24,0,24,0,1,,,,,,,,,
293323,2022-11-16_08h25.14.938,vts_reward_expectancy_bt,2022.2.4,MacIntel,60.0024001,Chrome,1920,1200,,,,,1,1136,,,,,,,,,,,,,,,,,B,160,circle,1,0,,,,,,,,,,,,,,,,repeat,number,numRpt,k,0.8307,Lo,,,,,,5,,,,,,,,high,25,0,25,0,1,,,,,,,,,
293323,2022-11-16_08h25.14.938,vts_reward_expectancy_bt,2022.2.4,MacIntel,60.0024001,Chrome,1920,1200,,,,,1,1137,,,,,,,,,,,,,,,,,H,167,star,1,0,,,,,,,,,,,,,,,,repeat,number,numRpt,k,0.7619,Lo,,,,,,5,,,,,,,,high,26,0,26,0,1,,,,,,,,,
293323,2022-11-16_08h25.14.938,vts_reward_expectancy_bt,2022.2.4,MacIntel,60.0024001,Chrome,1920,1200,,,,,10,1147,,,,,,,,,,,,,,,,,F,125,hexagon,1,0,,,,,,,,,,,,,,,,repeat,number,numRpt,j,0.3929,Hi,,,,,,5,,,,,,,,high,27,0,27,0,1,,,,,,,,,
293323,2022-11-16_08h25.14.938,vts_reward_expectancy_bt,2022.2.4,MacIntel,60.0024001,Chrome,1920,1200,,,,,10,1157,,,,,,,,,,,,,,,,,U,146,triangle,1,0,,,,,,,,,,,,,,,,repeat,number,numRpt,j,0.4952,Hi,,,,,,5,,,,,,,,high,28,0,28,0,1,,,,,,,,,
293323,2022-11-16_08h25.14.938,vts_reward_expectancy_bt,2022.2.4,MacIntel,60.0024001,Chrome,1920,1200,,,,,10,1167,,,,,,,,,,,,,,,,,Y,181,hexagon,1,0,,,,,,,,,,,,,,,,repeat,number,numRpt,k,0.5999,Hi,,,,,,5,,,,,,,,high,29,0,29,0,1,,,,,,,,,
293323,2022-11-16_08h25.14.938,vts_reward_expectancy_bt,2022.2.4,MacIntel,60.0024001,Chrome,1920,1200,,,,,1,1168,,,,,,,,,,,,,,,,,S,132,circle,1,0,,,,,,,,,,,,,,,,repeat,number,numRpt,j,0.4167,Lo,,,,,,5,,,,,,,,high,30,0,30,0,1,,,,,,,,,
293323,2022-11-16_08h25.14.938,vts_reward_expectancy_bt,2022.2.4,MacIntel,60.0024001,Chrome,1920,1200,,,,,1,1169,,,,,,,,,,,,,,,,,W,174,star,1,0,,,,,,,,,,,,,,,,repeat,number,numRpt,k,0.5151,Lo,,,,,,5,,,,,,,,high,31,0,31,0,1,,,,,,,,,
293323,2022-11-16_08h25.14.938,vts_reward_expectancy_bt,2022.2.4,MacIntel,60.0024001,Chrome,1920,1200,,,,,0,1169,,,,,,,,,,,,,,,,,D,139,triangle,1,0,,,,,,,,,,,,,,,,switch,letter,lettSwt,d,0.5603,Hi,,,,,,6,,,,,,space,0.5596,high,0,0,0,0,1,,,,,,,,,
293323,2022-11-16_08h25.14.938,vts_reward_expectancy_bt,2022.2.4,MacIntel,60.0024001,Chrome,1920,1200,,,,,0,1169,,,,,,,,,,,,,,,,,W,146,hexagon,1,0,,,,,,,,,,,,,,,,repeat,letter,lettRpt,f,0.615,Hi,,,,,,6,,,,,,,,high,1,0,1,0,1,,,,,,,,,
293323,2022-11-16_08h25.14.938,vts_reward_expectancy_bt,2022.2.4,MacIntel,60.0024001,Chrome,1920,1200,,,,,10,1179,,,,,,,,,,,,,,,,,B,174,star,1,0,,,,,,,,,,,,,,,,switch,number,numSwt,k,1.0813,Lo,,,,,,6,,,,,,,,high,2,0,2,0,1,,,,,,,,,
293323,2022-11-16_08h25.14.938,vts_reward_expectancy_bt,2022.2.4,MacIntel,60.0024001,Chrome,1920,1200,,,,,1,1180,,,,,,,,,,,,,,,,,S,160,circle,1,0,,,,,,,,,,,,,,,,repeat,number,numRpt,k,0.9608,Lo,,,,,,6,,,,,,,,high,3,0,3,0,1,,,,,,,,,
293323,2022-11-16_08h25.14.938,vts_reward_expectancy_bt,2022.2.4,MacIntel,60.0024001,Chrome,1920,1200,,,,,0,1180,,,,,,,,,,,,,,,,,F,125,triangle,1,0,,,,,,,,,,,,,,,,repeat,number,numRpt,j,0.5591,Hi,,,,,,6,,,,,,,,high,4,0,4,0,1,,,,,,,,,
293323,2022-11-16_08h25.14.938,vts_reward_expectancy_bt,2022.2.4,MacIntel,60.0024001,Chrome,1920,1200,,,,,0,1180,,,,,,,,,,,,,,,,,Y,167,hexagon,1,0,,,,,,,,,,,,,,,,repeat,number,numRpt,k,0.5315,Hi,,,,,,6,,,,,,,,high,5,0,5,0,1,,,,,,,,,
293323,2022-11-16_08h25.14.938,vts_reward_expectancy_bt,2022.2.4,MacIntel,60.0024001,Chrome,1920,1200,,,,,1,1181,,,,,,,,,,,,,,,,,U,181,star,1,0,,,,,,,,,,,,,,,,repeat,number,numRpt,k,0.479,Lo,,,,,,6,,,,,,,,high,6,0,6,0,1,,,,,,,,,
293323,2022-11-16_08h25.14.938,vts_reward_expectancy_bt,2022.2.4,MacIntel,60.0024001,Chrome,1920,1200,,,,,1,1182,,,,,,,,,,,,,,,,,H,132,circle,1,0,,,,,,,,,,,,,,,,repeat,number,numRpt,j,0.3798,Lo,,,,,,6,,,,,,,,high,7,0,7,0,1,,,,,,,,,
293323,2022-11-16_08h25.14.938,vts_reward_expectancy_bt,2022.2.4,MacIntel,60.0024001,Chrome,1920,1200,,,,,0,1182,,,,,,,,,,,,,,,,,D,139,triangle,1,0,,,,,,,,,,,,,,,,repeat,number,numRpt,j,0.5122,Hi,,,,,,6,,,,,,,,high,8,0,8,0,1,,,,,,,,,
293323,2022-11-16_08h25.14.938,vts_reward_expectancy_bt,2022.2.4,MacIntel,60.0024001,Chrome,1920,1200,,,,,1,1183,,,,,,,,,,,,,,,,,W,146,star,1,0,,,,,,,,,,,,,,,,repeat,number,numRpt,j,0.5986,Lo,,,,,,6,,,,,,,,high,9,0,9,0,1,,,,,,,,,
