participant,date,expName,psychopyVersion,OS,frameRate,browser,xResolution,yResolution,key_resp.keys,key_resp.rt,training_resp.keys,training_resp.rt,points_trial,points_cumul,trainBlock,training.thisRepN,training.thisTrialN,training.thisN,training.thisIndex,training.ran,LTriangleOpac,LCircleOpac,LHexagonOpac,LStarOpac,RTriangleOpac,RCircleOpac,RHexagonOpac,RStarOpac,LShape_ID,RShape_ID,curr_topStim,curr_bottStim,curr_shape,acc,E1,target_resp_prac1.keys,target_resp_prac1.rt,pracBlock,task1_prac_trials.thisRepN,task1_prac_trials.thisTrialN,task1_prac_trials.thisN,task1_prac_trials.thisIndex,task1_prac_trials.ran,target_resp_prac2.keys,target_resp_prac2.rt,task2_praac_trials.thisRepN,task2_praac_trials.thisTrialN,task2_praac_trials.thisN,task2_praac_trials.thisIndex,task2_praac_trials.ran,alt,task,condition,target_resp.keys,target_resp.rt,rewCond,vts_practice_trials.thisRepN,vts_practice_trials.thisTrialN,vts_practice_trials.thisN,vts_practice_trials.thisIndex,vts_practice_trials.ran,blockNum,trials_norew.thisRepN,trials_norew.thisTrialN,trials_norew.thisN,trials_norew.thisIndex,trials_norew.ran,key_resp_2.keys,key_resp_2.rt,rewExpectancy,trials_rew.thisRepN,trials_rew.thisTrialN,trials_rew.thisN,trials_rew.thisIndex,trials_rew.ran,Q1,Q2,Q2_text,Q3,Q4,Q5_text,Q5,xRes,yRes
293305,2022-12-05_22h39.00.900,vts_reward_expectancy_bt,2022.2.4,MacIntel,60.0024001,Chrome,1440,900,,,,,,,,,,,,,,,,,,,,,,,,,,,,,,,,,,,,,,,,,,,,,,,,,,,,,,,,,,,,,,,,,,,,,,,,,,,,
293305,2022-12-05_22h39.00.900,vts_reward_expectancy_bt,2022.2.4,MacIntel,60.0024001,Chrome,1440,900,space,8.5467,,,,,,,,,,,,,,,,,,,,,,,,,,,,,,,,,,,,,,,,,,,,,,,,,,,,,,,,,,,,,,,,,,,,,,,,,,
293305,2022-12-05_22h39.00.900,vts_reward_expectancy_bt,2022.2.4,MacIntel,60.0024001,Chrome,1440,900,,,,,,,,,,,,,,,,,,,,,,,,,,,,,,,,,,,,,,,,,,,,,,,,,,,,,,,,,,,,,,,,,,,,,,,,,,,,
293305,2022-12-05_22h39.00.900,vts_reward_expectancy_bt,2022.2.4,MacIntel,60.0024001,Chrome,1440,900,,,l,2.3376,10,10,0,0,0,0,5,1,0,1,0,0,0,0,0,1,circle,star,,,,,,,,,,,,,,,,,,,,,,,,,,,,,,,,,,,,,,,,,,,,,,,,,,,,,,
293305,2022-12-05_22h39.00.900,vts_reward_expectancy_bt,2022.2.4,MacIntel,60.0024001,Chrome,1440,900,,,l,0.0691,10,20,0,0,1,1,3,1,0,1,0,0,1,0,0,0,circle,triangle,,,,,,,,,,,,,,,,,,,,,,,,,,,,,,,,,,,,,,,,,,,,,,,,,,,,,,
293305,2022-12-05_22h39.00.900,vts_reward_expectancy_bt,2022.2.4,MacIntel,60.0024001,Chrome,1440,900,,,a,1.0818,10,30,0,0,2,2,6,1,0,0,1,0,1,0,0,0,hexagon,triangle,,,,,,,,,,,,,,,,,,,,,,,,,,,,,,,,,,,,,,,,,,,,,,,,,,,,,,
293305,2022-12-05_22h39.00.900,vts_reward_expectancy_bt,2022.2.4,MacIntel,60.0024001,Chrome,1440,900,,,a,0.934,10,40,0,0,3,3,0,1,1,0,0,0,0,1,0,0,triangle,circle,,,,,,,,,,,,,,,,,,,,,,,,,,,,,,,,,,,,,,,,,,,,,,,,,,,,,,
293305,2022-12-05_22h39.00.900,vts_reward_expectancy_bt,2022.2.4,MacIntel,60.0024001,Chrome,1440,900,,,l,1.492,10,50,0,0,4,4,8,1,0,0,1,0,0,0,0,1,hexagon,star,,,,,,,,,,,,,,,,,,,,,,,,,,,,,,,,,,,,,,,,,,,,,,,,,,,,,,
293305,2022-12-05_22h39.00.900,vts_reward_expectancy_bt,2022.2.4,MacIntel,60.0024001,Chrome,1440,900,,,a,0.7602,10,60,0,0,5,5,10,1,0,0,0,1,0,1,0,0,star ,circle,,,,,,,,,,,,,,,,,,,,,,,,,,,,,,,,,,,,,,,,,,,,,,,,,,,,,,
293305,2022-12-05_22h39.00.900,vts_reward_expectancy_bt,2022.2.4,MacIntel,60.0024001,Chrome,1440,900,,,l,0.7996,10,70,0,0,6,6,2,1,1,0,0,0,0,0,0,1,triangle,star,,,,,,,,,,,,,,,,,,,,,,,,,,,,,,,,,,,,,,,,,,,,,,,,,,,,,,
293305,2022-12-05_22h39.00.900,vts_reward_expectancy_bt,2022.2.4,MacIntel,60.0024001,Chrome,1440,900,,,a,0.8161,1,71,0,0,7,7,7,1,0,0,1,0,0,1,0,0,hexagon,circle,,,,,,,,,,,,,,,,,,,,,,,,,,,,,,,,,,,,,,,,,,,,,,,,,,,,,,
293305,2022-12-05_22h39.00.900,vts_reward_expectancy_bt,2022.2.4,MacIntel,60.0024001,Chrome,1440,900,,,l,1.3861,1,72,0,0,8,8,1,1,1,0,0,0,0,0,1,0,triangle,hexagon,,,,,,,,,,,,,,,,,,,,,,,,,,,,,,,,,,,,,,,,,,,,,,,,,,,,,,
293305,2022-12-05_22h39.00.900,vts_reward_expectancy_bt,2022.2.4,MacIntel,60.0024001,Chrome,1440,900,,,a,1.4337,10,82,0,0,9,9,9,1,0,0,0,1,1,0,0,0,star,triangle,,,,,,,,,,,,,,,,,,,,,,,,,,,,,,,,,,,,,,,,,,,,,,,,,,,,,,
293305,2022-12-05_22h39.00.900,vts_reward_expectancy_bt,2022.2.4,MacIntel,60.0024001,Chrome,1440,900,,,a,0.6387,1,83,0,0,10,10,11,1,0,0,0,1,0,0,1,0,star,hexagon,,,,,,,,,,,,,,,,,,,,,,,,,,,,,,,,,,,,,,,,,,,,,,,,,,,,,,
293305,2022-12-05_22h39.00.900,vts_reward_expectancy_bt,2022.2.4,MacIntel,60.0024001,Chrome,1440,900,,,l,1.1666,1,84,0,0,11,11,4,1,0,1,0,0,0,0,1,0,circle,hexagon,,,,,,,,,,,,,,,,,,,,,,,,,,,,,,,,,,,,,,,,,,,,,,,,,,,,,,
293305,2022-12-05_22h39.00.900,vts_reward_expectancy_bt,2022.2.4,MacIntel,60.0024001,Chrome,1440,900,,,a,1.4558,1,85,0,1,0,12,3,1,0,1,0,0,1,0,0,0,circle,triangle,,,,,,,,,,,,,,,,,,,,,,,,,,,,,,,,,,,,,,,,,,,,,,,,,,,,,,
293305,2022-12-05_22h39.00.900,vts_reward_expectancy_bt,2022.2.4,MacIntel,60.0024001,Chrome,1440,900,,,a,0.9883,1,86,0,1,1,13,6,1,0,0,1,0,1,0,0,0,hexagon,triangle,,,,,,,,,,,,,,,,,,,,,,,,,,,,,,,,,,,,,,,,,,,,,,,,,,,,,,
293305,2022-12-05_22h39.00.900,vts_reward_expectancy_bt,2022.2.4,MacIntel,60.0024001,Chrome,1440,900,,,a,0.6315,1,87,0,1,2,14,10,1,0,0,0,1,0,1,0,0,star ,circle,,,,,,,,,,,,,,,,,,,,,,,,,,,,,,,,,,,,,,,,,,,,,,,,,,,,,,
293305,2022-12-05_22h39.00.900,vts_reward_expectancy_bt,2022.2.4,MacIntel,60.0024001,Chrome,1440,900,,,l,0.8237,10,97,0,1,3,15,1,1,1,0,0,0,0,0,1,0,triangle,hexagon,,,,,,,,,,,,,,,,,,,,,,,,,,,,,,,,,,,,,,,,,,,,,,,,,,,,,,
293305,2022-12-05_22h39.00.900,vts_reward_expectancy_bt,2022.2.4,MacIntel,60.0024001,Chrome,1440,900,,,l,0.8821,1,98,0,1,4,16,0,1,1,0,0,0,0,1,0,0,triangle,circle,,,,,,,,,,,,,,,,,,,,,,,,,,,,,,,,,,,,,,,,,,,,,,,,,,,,,,
293305,2022-12-05_22h39.00.900,vts_reward_expectancy_bt,2022.2.4,MacIntel,60.0024001,Chrome,1440,900,,,l,0.1386,10,108,0,1,5,17,8,1,0,0,1,0,0,0,0,1,hexagon,star,,,,,,,,,,,,,,,,,,,,,,,,,,,,,,,,,,,,,,,,,,,,,,,,,,,,,,
293305,2022-12-05_22h39.00.900,vts_reward_expectancy_bt,2022.2.4,MacIntel,60.0024001,Chrome,1440,900,,,a,0.0611,10,118,0,1,6,18,11,1,0,0,0,1,0,0,1,0,star,hexagon,,,,,,,,,,,,,,,,,,,,,,,,,,,,,,,,,,,,,,,,,,,,,,,,,,,,,,
293305,2022-12-05_22h39.00.900,vts_reward_expectancy_bt,2022.2.4,MacIntel,60.0024001,Chrome,1440,900,,,a,0.0199,10,128,0,1,7,19,9,1,0,0,0,1,1,0,0,0,star,triangle,,,,,,,,,,,,,,,,,,,,,,,,,,,,,,,,,,,,,,,,,,,,,,,,,,,,,,
293305,2022-12-05_22h39.00.900,vts_reward_expectancy_bt,2022.2.4,MacIntel,60.0024001,Chrome,1440,900,,,a,0.0128,1,129,0,1,8,20,4,1,0,1,0,0,0,0,1,0,circle,hexagon,,,,,,,,,,,,,,,,,,,,,,,,,,,,,,,,,,,,,,,,,,,,,,,,,,,,,,
293305,2022-12-05_22h39.00.900,vts_reward_expectancy_bt,2022.2.4,MacIntel,60.0024001,Chrome,1440,900,,,a,0.2039,10,139,0,1,9,21,2,1,1,0,0,0,0,0,0,1,triangle,star,,,,,,,,,,,,,,,,,,,,,,,,,,,,,,,,,,,,,,,,,,,,,,,,,,,,,,
293305,2022-12-05_22h39.00.900,vts_reward_expectancy_bt,2022.2.4,MacIntel,60.0024001,Chrome,1440,900,,,l,0.0506,10,149,0,1,10,22,7,1,0,0,1,0,0,1,0,0,hexagon,circle,,,,,,,,,,,,,,,,,,,,,,,,,,,,,,,,,,,,,,,,,,,,,,,,,,,,,,
293305,2022-12-05_22h39.00.900,vts_reward_expectancy_bt,2022.2.4,MacIntel,60.0024001,Chrome,1440,900,,,l,0.014,1,150,0,1,11,23,5,1,0,1,0,0,0,0,0,1,circle,star,,,,,,,,,,,,,,,,,,,,,,,,,,,,,,,,,,,,,,,,,,,,,,,,,,,,,,
293305,2022-12-05_22h39.00.900,vts_reward_expectancy_bt,2022.2.4,MacIntel,60.0024001,Chrome,1440,900,,,l,0.0735,10,160,0,2,0,24,2,1,1,0,0,0,0,0,0,1,triangle,star,,,,,,,,,,,,,,,,,,,,,,,,,,,,,,,,,,,,,,,,,,,,,,,,,,,,,,
293305,2022-12-05_22h39.00.900,vts_reward_expectancy_bt,2022.2.4,MacIntel,60.0024001,Chrome,1440,900,,,l,0.0492,10,170,0,2,1,25,9,1,0,0,0,1,1,0,0,0,star,triangle,,,,,,,,,,,,,,,,,,,,,,,,,,,,,,,,,,,,,,,,,,,,,,,,,,,,,,
293305,2022-12-05_22h39.00.900,vts_reward_expectancy_bt,2022.2.4,MacIntel,60.0024001,Chrome,1440,900,,,a,0.082,1,171,0,2,2,26,4,1,0,1,0,0,0,0,1,0,circle,hexagon,,,,,,,,,,,,,,,,,,,,,,,,,,,,,,,,,,,,,,,,,,,,,,,,,,,,,,
293305,2022-12-05_22h39.00.900,vts_reward_expectancy_bt,2022.2.4,MacIntel,60.0024001,Chrome,1440,900,,,l,0.117,1,172,0,2,3,27,8,1,0,0,1,0,0,0,0,1,hexagon,star,,,,,,,,,,,,,,,,,,,,,,,,,,,,,,,,,,,,,,,,,,,,,,,,,,,,,,
293305,2022-12-05_22h39.00.900,vts_reward_expectancy_bt,2022.2.4,MacIntel,60.0024001,Chrome,1440,900,,,a,0.1039,10,182,0,2,4,28,0,1,1,0,0,0,0,1,0,0,triangle,circle,,,,,,,,,,,,,,,,,,,,,,,,,,,,,,,,,,,,,,,,,,,,,,,,,,,,,,
293305,2022-12-05_22h39.00.900,vts_reward_expectancy_bt,2022.2.4,MacIntel,60.0024001,Chrome,1440,900,,,l,0.0005,10,192,0,2,5,29,6,1,0,0,1,0,1,0,0,0,hexagon,triangle,,,,,,,,,,,,,,,,,,,,,,,,,,,,,,,,,,,,,,,,,,,,,,,,,,,,,,
293305,2022-12-05_22h39.00.900,vts_reward_expectancy_bt,2022.2.4,MacIntel,60.0024001,Chrome,1440,900,,,l,0.0492,1,193,0,2,6,30,5,1,0,1,0,0,0,0,0,1,circle,star,,,,,,,,,,,,,,,,,,,,,,,,,,,,,,,,,,,,,,,,,,,,,,,,,,,,,,
293305,2022-12-05_22h39.00.900,vts_reward_expectancy_bt,2022.2.4,MacIntel,60.0024001,Chrome,1440,900,,,a,0.0994,1,194,0,2,7,31,3,1,0,1,0,0,1,0,0,0,circle,triangle,,,,,,,,,,,,,,,,,,,,,,,,,,,,,,,,,,,,,,,,,,,,,,,,,,,,,,
293305,2022-12-05_22h39.00.900,vts_reward_expectancy_bt,2022.2.4,MacIntel,60.0024001,Chrome,1440,900,,,l,0.2656,1,195,0,2,8,32,10,1,0,0,0,1,0,1,0,0,star ,circle,,,,,,,,,,,,,,,,,,,,,,,,,,,,,,,,,,,,,,,,,,,,,,,,,,,,,,
293305,2022-12-05_22h39.00.900,vts_reward_expectancy_bt,2022.2.4,MacIntel,60.0024001,Chrome,1440,900,,,l,0.3395,1,196,0,2,9,33,7,1,0,0,1,0,0,1,0,0,hexagon,circle,,,,,,,,,,,,,,,,,,,,,,,,,,,,,,,,,,,,,,,,,,,,,,,,,,,,,,
293305,2022-12-05_22h39.00.900,vts_reward_expectancy_bt,2022.2.4,MacIntel,60.0024001,Chrome,1440,900,,,a,0.0823,10,206,0,2,10,34,11,1,0,0,0,1,0,0,1,0,star,hexagon,,,,,,,,,,,,,,,,,,,,,,,,,,,,,,,,,,,,,,,,,,,,,,,,,,,,,,
293305,2022-12-05_22h39.00.900,vts_reward_expectancy_bt,2022.2.4,MacIntel,60.0024001,Chrome,1440,900,,,a,0.1159,1,207,0,2,11,35,1,1,1,0,0,0,0,0,1,0,triangle,hexagon,,,,,,,,,,,,,,,,,,,,,,,,,,,,,,,,,,,,,,,,,,,,,,,,,,,,,,
293305,2022-12-05_22h39.00.900,vts_reward_expectancy_bt,2022.2.4,MacIntel,60.0024001,Chrome,1440,900,,,l,0.5964,1,208,1,0,0,0,8,1,0,0,1,0,0,0,0,1,hexagon,star,,,,,,,,,,,,,,,,,,,,,,,,,,,,,,,,,,,,,,,,,,,,,,,,,,,,,,
293305,2022-12-05_22h39.00.900,vts_reward_expectancy_bt,2022.2.4,MacIntel,60.0024001,Chrome,1440,900,,,a,0.1323,1,209,1,0,1,1,7,1,0,0,1,0,0,1,0,0,hexagon,circle,,,,,,,,,,,,,,,,,,,,,,,,,,,,,,,,,,,,,,,,,,,,,,,,,,,,,,
293305,2022-12-05_22h39.00.900,vts_reward_expectancy_bt,2022.2.4,MacIntel,60.0024001,Chrome,1440,900,,,l,0.1327,1,210,1,0,2,2,6,1,0,0,1,0,1,0,0,0,hexagon,triangle,,,,,,,,,,,,,,,,,,,,,,,,,,,,,,,,,,,,,,,,,,,,,,,,,,,,,,
293305,2022-12-05_22h39.00.900,vts_reward_expectancy_bt,2022.2.4,MacIntel,60.0024001,Chrome,1440,900,,,a,0.0499,10,220,1,0,3,3,0,1,1,0,0,0,0,1,0,0,triangle,circle,,,,,,,,,,,,,,,,,,,,,,,,,,,,,,,,,,,,,,,,,,,,,,,,,,,,,,
293305,2022-12-05_22h39.00.900,vts_reward_expectancy_bt,2022.2.4,MacIntel,60.0024001,Chrome,1440,900,,,a,0.1707,10,230,1,0,4,4,10,1,0,0,0,1,0,1,0,0,star ,circle,,,,,,,,,,,,,,,,,,,,,,,,,,,,,,,,,,,,,,,,,,,,,,,,,,,,,,
293305,2022-12-05_22h39.00.900,vts_reward_expectancy_bt,2022.2.4,MacIntel,60.0024001,Chrome,1440,900,,,a,0.0978,1,231,1,0,5,5,4,1,0,1,0,0,0,0,1,0,circle,hexagon,,,,,,,,,,,,,,,,,,,,,,,,,,,,,,,,,,,,,,,,,,,,,,,,,,,,,,
293305,2022-12-05_22h39.00.900,vts_reward_expectancy_bt,2022.2.4,MacIntel,60.0024001,Chrome,1440,900,,,a,0.0473,10,241,1,0,6,6,1,1,1,0,0,0,0,0,1,0,triangle,hexagon,,,,,,,,,,,,,,,,,,,,,,,,,,,,,,,,,,,,,,,,,,,,,,,,,,,,,,
293305,2022-12-05_22h39.00.900,vts_reward_expectancy_bt,2022.2.4,MacIntel,60.0024001,Chrome,1440,900,,,l,0.0662,10,251,1,0,7,7,5,1,0,1,0,0,0,0,0,1,circle,star,,,,,,,,,,,,,,,,,,,,,,,,,,,,,,,,,,,,,,,,,,,,,,,,,,,,,,
293305,2022-12-05_22h39.00.900,vts_reward_expectancy_bt,2022.2.4,MacIntel,60.0024001,Chrome,1440,900,,,l,0.0817,10,261,1,0,8,8,11,1,0,0,0,1,0,0,1,0,star,hexagon,,,,,,,,,,,,,,,,,,,,,,,,,,,,,,,,,,,,,,,,,,,,,,,,,,,,,,
293305,2022-12-05_22h39.00.900,vts_reward_expectancy_bt,2022.2.4,MacIntel,60.0024001,Chrome,1440,900,,,a,0.0512,1,262,1,0,9,9,9,1,0,0,0,1,1,0,0,0,star,triangle,,,,,,,,,,,,,,,,,,,,,,,,,,,,,,,,,,,,,,,,,,,,,,,,,,,,,,
293305,2022-12-05_22h39.00.900,vts_reward_expectancy_bt,2022.2.4,MacIntel,60.0024001,Chrome,1440,900,,,l,0.1533,1,263,1,0,10,10,2,1,1,0,0,0,0,0,0,1,triangle,star,,,,,,,,,,,,,,,,,,,,,,,,,,,,,,,,,,,,,,,,,,,,,,,,,,,,,,
293305,2022-12-05_22h39.00.900,vts_reward_expectancy_bt,2022.2.4,MacIntel,60.0024001,Chrome,1440,900,,,l,0.0331,10,273,1,0,11,11,3,1,0,1,0,0,1,0,0,0,circle,triangle,,,,,,,,,,,,,,,,,,,,,,,,,,,,,,,,,,,,,,,,,,,,,,,,,,,,,,
293305,2022-12-05_22h39.00.900,vts_reward_expectancy_bt,2022.2.4,MacIntel,60.0024001,Chrome,1440,900,,,l,0.1486,1,274,1,1,0,12,6,1,0,0,1,0,1,0,0,0,hexagon,triangle,,,,,,,,,,,,,,,,,,,,,,,,,,,,,,,,,,,,,,,,,,,,,,,,,,,,,,
293305,2022-12-05_22h39.00.900,vts_reward_expectancy_bt,2022.2.4,MacIntel,60.0024001,Chrome,1440,900,,,l,0.0234,1,275,1,1,1,13,4,1,0,1,0,0,0,0,1,0,circle,hexagon,,,,,,,,,,,,,,,,,,,,,,,,,,,,,,,,,,,,,,,,,,,,,,,,,,,,,,
293305,2022-12-05_22h39.00.900,vts_reward_expectancy_bt,2022.2.4,MacIntel,60.0024001,Chrome,1440,900,,,a,0.0004,10,285,1,1,2,14,2,1,1,0,0,0,0,0,0,1,triangle,star,,,,,,,,,,,,,,,,,,,,,,,,,,,,,,,,,,,,,,,,,,,,,,,,,,,,,,
293305,2022-12-05_22h39.00.900,vts_reward_expectancy_bt,2022.2.4,MacIntel,60.0024001,Chrome,1440,900,,,a,0.1561,1,286,1,1,3,15,9,1,0,0,0,1,1,0,0,0,star,triangle,,,,,,,,,,,,,,,,,,,,,,,,,,,,,,,,,,,,,,,,,,,,,,,,,,,,,,
293305,2022-12-05_22h39.00.900,vts_reward_expectancy_bt,2022.2.4,MacIntel,60.0024001,Chrome,1440,900,,,a,0.0032,10,296,1,1,4,16,0,1,1,0,0,0,0,1,0,0,triangle,circle,,,,,,,,,,,,,,,,,,,,,,,,,,,,,,,,,,,,,,,,,,,,,,,,,,,,,,
293305,2022-12-05_22h39.00.900,vts_reward_expectancy_bt,2022.2.4,MacIntel,60.0024001,Chrome,1440,900,,,l,0.105,1,297,1,1,5,17,1,1,1,0,0,0,0,0,1,0,triangle,hexagon,,,,,,,,,,,,,,,,,,,,,,,,,,,,,,,,,,,,,,,,,,,,,,,,,,,,,,
293305,2022-12-05_22h39.00.900,vts_reward_expectancy_bt,2022.2.4,MacIntel,60.0024001,Chrome,1440,900,,,a,0.0986,1,298,1,1,6,18,10,1,0,0,0,1,0,1,0,0,star ,circle,,,,,,,,,,,,,,,,,,,,,,,,,,,,,,,,,,,,,,,,,,,,,,,,,,,,,,
293305,2022-12-05_22h39.00.900,vts_reward_expectancy_bt,2022.2.4,MacIntel,60.0024001,Chrome,1440,900,,,a,0.0485,10,308,1,1,7,19,5,1,0,1,0,0,0,0,0,1,circle,star,,,,,,,,,,,,,,,,,,,,,,,,,,,,,,,,,,,,,,,,,,,,,,,,,,,,,,
293305,2022-12-05_22h39.00.900,vts_reward_expectancy_bt,2022.2.4,MacIntel,60.0024001,Chrome,1440,900,,,a,0.0731,1,309,1,1,8,20,8,1,0,0,1,0,0,0,0,1,hexagon,star,,,,,,,,,,,,,,,,,,,,,,,,,,,,,,,,,,,,,,,,,,,,,,,,,,,,,,
293305,2022-12-05_22h39.00.900,vts_reward_expectancy_bt,2022.2.4,MacIntel,60.0024001,Chrome,1440,900,,,a,0.0817,10,319,1,1,9,21,7,1,0,0,1,0,0,1,0,0,hexagon,circle,,,,,,,,,,,,,,,,,,,,,,,,,,,,,,,,,,,,,,,,,,,,,,,,,,,,,,
293305,2022-12-05_22h39.00.900,vts_reward_expectancy_bt,2022.2.4,MacIntel,60.0024001,Chrome,1440,900,,,a,0.0662,10,329,1,1,10,22,11,1,0,0,0,1,0,0,1,0,star,hexagon,,,,,,,,,,,,,,,,,,,,,,,,,,,,,,,,,,,,,,,,,,,,,,,,,,,,,,
293305,2022-12-05_22h39.00.900,vts_reward_expectancy_bt,2022.2.4,MacIntel,60.0024001,Chrome,1440,900,,,a,0.0515,1,330,1,1,11,23,3,1,0,1,0,0,1,0,0,0,circle,triangle,,,,,,,,,,,,,,,,,,,,,,,,,,,,,,,,,,,,,,,,,,,,,,,,,,,,,,
293305,2022-12-05_22h39.00.900,vts_reward_expectancy_bt,2022.2.4,MacIntel,60.0024001,Chrome,1440,900,,,l,0.0571,1,331,1,2,0,24,4,1,0,1,0,0,0,0,1,0,circle,hexagon,,,,,,,,,,,,,,,,,,,,,,,,,,,,,,,,,,,,,,,,,,,,,,,,,,,,,,
293305,2022-12-05_22h39.00.900,vts_reward_expectancy_bt,2022.2.4,MacIntel,60.0024001,Chrome,1440,900,,,l,0.0973,10,341,1,2,1,25,2,1,1,0,0,0,0,0,0,1,triangle,star,,,,,,,,,,,,,,,,,,,,,,,,,,,,,,,,,,,,,,,,,,,,,,,,,,,,,,
293305,2022-12-05_22h39.00.900,vts_reward_expectancy_bt,2022.2.4,MacIntel,60.0024001,Chrome,1440,900,,,l,0.2854,10,351,1,2,2,26,9,1,0,0,0,1,1,0,0,0,star,triangle,,,,,,,,,,,,,,,,,,,,,,,,,,,,,,,,,,,,,,,,,,,,,,,,,,,,,,
293305,2022-12-05_22h39.00.900,vts_reward_expectancy_bt,2022.2.4,MacIntel,60.0024001,Chrome,1440,900,,,l,0.2834,1,352,1,2,3,27,10,1,0,0,0,1,0,1,0,0,star ,circle,,,,,,,,,,,,,,,,,,,,,,,,,,,,,,,,,,,,,,,,,,,,,,,,,,,,,,
293305,2022-12-05_22h39.00.900,vts_reward_expectancy_bt,2022.2.4,MacIntel,60.0024001,Chrome,1440,900,,,l,0.5341,1,353,1,2,4,28,0,1,1,0,0,0,0,1,0,0,triangle,circle,,,,,,,,,,,,,,,,,,,,,,,,,,,,,,,,,,,,,,,,,,,,,,,,,,,,,,
293305,2022-12-05_22h39.00.900,vts_reward_expectancy_bt,2022.2.4,MacIntel,60.0024001,Chrome,1440,900,,,l,0.4912,10,363,1,2,5,29,8,1,0,0,1,0,0,0,0,1,hexagon,star,,,,,,,,,,,,,,,,,,,,,,,,,,,,,,,,,,,,,,,,,,,,,,,,,,,,,,
293305,2022-12-05_22h39.00.900,vts_reward_expectancy_bt,2022.2.4,MacIntel,60.0024001,Chrome,1440,900,,,l,0.2998,10,373,1,2,6,30,7,1,0,0,1,0,0,1,0,0,hexagon,circle,,,,,,,,,,,,,,,,,,,,,,,,,,,,,,,,,,,,,,,,,,,,,,,,,,,,,,
293305,2022-12-05_22h39.00.900,vts_reward_expectancy_bt,2022.2.4,MacIntel,60.0024001,Chrome,1440,900,,,l,0.7655,1,374,1,2,7,31,1,1,1,0,0,0,0,0,1,0,triangle,hexagon,,,,,,,,,,,,,,,,,,,,,,,,,,,,,,,,,,,,,,,,,,,,,,,,,,,,,,
293305,2022-12-05_22h39.00.900,vts_reward_expectancy_bt,2022.2.4,MacIntel,60.0024001,Chrome,1440,900,,,a,1.8652,10,384,1,2,8,32,11,1,0,0,0,1,0,0,1,0,star,hexagon,,,,,,,,,,,,,,,,,,,,,,,,,,,,,,,,,,,,,,,,,,,,,,,,,,,,,,
293305,2022-12-05_22h39.00.900,vts_reward_expectancy_bt,2022.2.4,MacIntel,60.0024001,Chrome,1440,900,,,l,0.8102,10,394,1,2,9,33,3,1,0,1,0,0,1,0,0,0,circle,triangle,,,,,,,,,,,,,,,,,,,,,,,,,,,,,,,,,,,,,,,,,,,,,,,,,,,,,,
293305,2022-12-05_22h39.00.900,vts_reward_expectancy_bt,2022.2.4,MacIntel,60.0024001,Chrome,1440,900,,,a,1.4577,1,395,1,2,10,34,6,1,0,0,1,0,1,0,0,0,hexagon,triangle,,,,,,,,,,,,,,,,,,,,,,,,,,,,,,,,,,,,,,,,,,,,,,,,,,,,,,
293305,2022-12-05_22h39.00.900,vts_reward_expectancy_bt,2022.2.4,MacIntel,60.0024001,Chrome,1440,900,,,l,1.3813,10,405,1,2,11,35,5,1,0,1,0,0,0,0,0,1,circle,star,,,,,,,,,,,,,,,,,,,,,,,,,,,,,,,,,,,,,,,,,,,,,,,,,,,,,,
293305,2022-12-05_22h39.00.900,vts_reward_expectancy_bt,2022.2.4,MacIntel,60.0024001,Chrome,1440,900,,,a,0.7304,1,406,2,0,0,0,4,1,0,1,0,0,0,0,1,0,circle,hexagon,,,,,,,,,,,,,,,,,,,,,,,,,,,,,,,,,,,,,,,,,,,,,,,,,,,,,,
293305,2022-12-05_22h39.00.900,vts_reward_expectancy_bt,2022.2.4,MacIntel,60.0024001,Chrome,1440,900,,,a,0.6326,10,416,2,0,1,1,11,1,0,0,0,1,0,0,1,0,star,hexagon,,,,,,,,,,,,,,,,,,,,,,,,,,,,,,,,,,,,,,,,,,,,,,,,,,,,,,
293305,2022-12-05_22h39.00.900,vts_reward_expectancy_bt,2022.2.4,MacIntel,60.0024001,Chrome,1440,900,,,l,0.6512,10,426,2,0,2,2,3,1,0,1,0,0,1,0,0,0,circle,triangle,,,,,,,,,,,,,,,,,,,,,,,,,,,,,,,,,,,,,,,,,,,,,,,,,,,,,,
293305,2022-12-05_22h39.00.900,vts_reward_expectancy_bt,2022.2.4,MacIntel,60.0024001,Chrome,1440,900,,,a,0.6072,10,436,2,0,3,3,9,1,0,0,0,1,1,0,0,0,star,triangle,,,,,,,,,,,,,,,,,,,,,,,,,,,,,,,,,,,,,,,,,,,,,,,,,,,,,,
293305,2022-12-05_22h39.00.900,vts_reward_expectancy_bt,2022.2.4,MacIntel,60.0024001,Chrome,1440,900,,,a,0.8868,10,446,2,0,4,4,1,1,1,0,0,0,0,0,1,0,triangle,hexagon,,,,,,,,,,,,,,,,,,,,,,,,,,,,,,,,,,,,,,,,,,,,,,,,,,,,,,
293305,2022-12-05_22h39.00.900,vts_reward_expectancy_bt,2022.2.4,MacIntel,60.0024001,Chrome,1440,900,,,l,0.7229,10,456,2,0,5,5,5,1,0,1,0,0,0,0,0,1,circle,star,,,,,,,,,,,,,,,,,,,,,,,,,,,,,,,,,,,,,,,,,,,,,,,,,,,,,,
293305,2022-12-05_22h39.00.900,vts_reward_expectancy_bt,2022.2.4,MacIntel,60.0024001,Chrome,1440,900,,,a,0.5481,10,466,2,0,6,6,10,1,0,0,0,1,0,1,0,0,star ,circle,,,,,,,,,,,,,,,,,,,,,,,,,,,,,,,,,,,,,,,,,,,,,,,,,,,,,,
293305,2022-12-05_22h39.00.900,vts_reward_expectancy_bt,2022.2.4,MacIntel,60.0024001,Chrome,1440,900,,,l,1.1023,1,467,2,0,7,7,6,1,0,0,1,0,1,0,0,0,hexagon,triangle,,,,,,,,,,,,,,,,,,,,,,,,,,,,,,,,,,,,,,,,,,,,,,,,,,,,,,
293305,2022-12-05_22h39.00.900,vts_reward_expectancy_bt,2022.2.4,MacIntel,60.0024001,Chrome,1440,900,,,l,0.9471,1,468,2,0,8,8,7,1,0,0,1,0,0,1,0,0,hexagon,circle,,,,,,,,,,,,,,,,,,,,,,,,,,,,,,,,,,,,,,,,,,,,,,,,,,,,,,
293305,2022-12-05_22h39.00.900,vts_reward_expectancy_bt,2022.2.4,MacIntel,60.0024001,Chrome,1440,900,,,l,0.6304,10,478,2,0,9,9,2,1,1,0,0,0,0,0,0,1,triangle,star,,,,,,,,,,,,,,,,,,,,,,,,,,,,,,,,,,,,,,,,,,,,,,,,,,,,,,
293305,2022-12-05_22h39.00.900,vts_reward_expectancy_bt,2022.2.4,MacIntel,60.0024001,Chrome,1440,900,,,l,0.5868,10,488,2,0,10,10,8,1,0,0,1,0,0,0,0,1,hexagon,star,,,,,,,,,,,,,,,,,,,,,,,,,,,,,,,,,,,,,,,,,,,,,,,,,,,,,,
293305,2022-12-05_22h39.00.900,vts_reward_expectancy_bt,2022.2.4,MacIntel,60.0024001,Chrome,1440,900,,,a,0.7818,10,498,2,0,11,11,0,1,1,0,0,0,0,1,0,0,triangle,circle,,,,,,,,,,,,,,,,,,,,,,,,,,,,,,,,,,,,,,,,,,,,,,,,,,,,,,
293305,2022-12-05_22h39.00.900,vts_reward_expectancy_bt,2022.2.4,MacIntel,60.0024001,Chrome,1440,900,,,a,0.6063,10,508,2,1,0,12,11,1,0,0,0,1,0,0,1,0,star,hexagon,,,,,,,,,,,,,,,,,,,,,,,,,,,,,,,,,,,,,,,,,,,,,,,,,,,,,,
293305,2022-12-05_22h39.00.900,vts_reward_expectancy_bt,2022.2.4,MacIntel,60.0024001,Chrome,1440,900,,,l,0.6568,1,509,2,1,1,13,0,1,1,0,0,0,0,1,0,0,triangle,circle,,,,,,,,,,,,,,,,,,,,,,,,,,,,,,,,,,,,,,,,,,,,,,,,,,,,,,
293305,2022-12-05_22h39.00.900,vts_reward_expectancy_bt,2022.2.4,MacIntel,60.0024001,Chrome,1440,900,,,l,0.5821,10,519,2,1,2,14,5,1,0,1,0,0,0,0,0,1,circle,star,,,,,,,,,,,,,,,,,,,,,,,,,,,,,,,,,,,,,,,,,,,,,,,,,,,,,,
293305,2022-12-05_22h39.00.900,vts_reward_expectancy_bt,2022.2.4,MacIntel,60.0024001,Chrome,1440,900,,,a,0.5899,10,529,2,1,3,15,10,1,0,0,0,1,0,1,0,0,star ,circle,,,,,,,,,,,,,,,,,,,,,,,,,,,,,,,,,,,,,,,,,,,,,,,,,,,,,,
293305,2022-12-05_22h39.00.900,vts_reward_expectancy_bt,2022.2.4,MacIntel,60.0024001,Chrome,1440,900,,,a,0.7824,10,539,2,1,4,16,9,1,0,0,0,1,1,0,0,0,star,triangle,,,,,,,,,,,,,,,,,,,,,,,,,,,,,,,,,,,,,,,,,,,,,,,,,,,,,,
293305,2022-12-05_22h39.00.900,vts_reward_expectancy_bt,2022.2.4,MacIntel,60.0024001,Chrome,1440,900,,,l,1.0147,1,540,2,1,5,17,4,1,0,1,0,0,0,0,1,0,circle,hexagon,,,,,,,,,,,,,,,,,,,,,,,,,,,,,,,,,,,,,,,,,,,,,,,,,,,,,,
293305,2022-12-05_22h39.00.900,vts_reward_expectancy_bt,2022.2.4,MacIntel,60.0024001,Chrome,1440,900,,,a,0.8246,1,541,2,1,6,18,6,1,0,0,1,0,1,0,0,0,hexagon,triangle,,,,,,,,,,,,,,,,,,,,,,,,,,,,,,,,,,,,,,,,,,,,,,,,,,,,,,
293305,2022-12-05_22h39.00.900,vts_reward_expectancy_bt,2022.2.4,MacIntel,60.0024001,Chrome,1440,900,,,l,0.9207,10,551,2,1,7,19,2,1,1,0,0,0,0,0,0,1,triangle,star,,,,,,,,,,,,,,,,,,,,,,,,,,,,,,,,,,,,,,,,,,,,,,,,,,,,,,
293305,2022-12-05_22h39.00.900,vts_reward_expectancy_bt,2022.2.4,MacIntel,60.0024001,Chrome,1440,900,,,l,1.2819,1,552,2,1,8,20,1,1,1,0,0,0,0,0,1,0,triangle,hexagon,,,,,,,,,,,,,,,,,,,,,,,,,,,,,,,,,,,,,,,,,,,,,,,,,,,,,,
293305,2022-12-05_22h39.00.900,vts_reward_expectancy_bt,2022.2.4,MacIntel,60.0024001,Chrome,1440,900,,,l,2.1481,10,562,2,1,9,21,3,1,0,1,0,0,1,0,0,0,circle,triangle,,,,,,,,,,,,,,,,,,,,,,,,,,,,,,,,,,,,,,,,,,,,,,,,,,,,,,
293305,2022-12-05_22h39.00.900,vts_reward_expectancy_bt,2022.2.4,MacIntel,60.0024001,Chrome,1440,900,,,l,0.9451,10,572,2,1,10,22,8,1,0,0,1,0,0,0,0,1,hexagon,star,,,,,,,,,,,,,,,,,,,,,,,,,,,,,,,,,,,,,,,,,,,,,,,,,,,,,,
293305,2022-12-05_22h39.00.900,vts_reward_expectancy_bt,2022.2.4,MacIntel,60.0024001,Chrome,1440,900,,,a,1.9417,10,582,2,1,11,23,7,1,0,0,1,0,0,1,0,0,hexagon,circle,,,,,,,,,,,,,,,,,,,,,,,,,,,,,,,,,,,,,,,,,,,,,,,,,,,,,,
293305,2022-12-05_22h39.00.900,vts_reward_expectancy_bt,2022.2.4,MacIntel,60.0024001,Chrome,1440,900,,,a,1.1912,1,583,2,2,0,24,9,1,0,0,0,1,1,0,0,0,star,triangle,,,,,,,,,,,,,,,,,,,,,,,,,,,,,,,,,,,,,,,,,,,,,,,,,,,,,,
293305,2022-12-05_22h39.00.900,vts_reward_expectancy_bt,2022.2.4,MacIntel,60.0024001,Chrome,1440,900,,,l,1.5986,1,584,2,2,1,25,0,1,1,0,0,0,0,1,0,0,triangle,circle,,,,,,,,,,,,,,,,,,,,,,,,,,,,,,,,,,,,,,,,,,,,,,,,,,,,,,
293305,2022-12-05_22h39.00.900,vts_reward_expectancy_bt,2022.2.4,MacIntel,60.0024001,Chrome,1440,900,,,l,0.0037,10,594,2,2,2,26,3,1,0,1,0,0,1,0,0,0,circle,triangle,,,,,,,,,,,,,,,,,,,,,,,,,,,,,,,,,,,,,,,,,,,,,,,,,,,,,,
293305,2022-12-05_22h39.00.900,vts_reward_expectancy_bt,2022.2.4,MacIntel,60.0024001,Chrome,1440,900,,,l,0.1533,10,604,2,2,3,27,4,1,0,1,0,0,0,0,1,0,circle,hexagon,,,,,,,,,,,,,,,,,,,,,,,,,,,,,,,,,,,,,,,,,,,,,,,,,,,,,,
293305,2022-12-05_22h39.00.900,vts_reward_expectancy_bt,2022.2.4,MacIntel,60.0024001,Chrome,1440,900,,,l,0.1344,1,605,2,2,4,28,1,1,1,0,0,0,0,0,1,0,triangle,hexagon,,,,,,,,,,,,,,,,,,,,,,,,,,,,,,,,,,,,,,,,,,,,,,,,,,,,,,
293305,2022-12-05_22h39.00.900,vts_reward_expectancy_bt,2022.2.4,MacIntel,60.0024001,Chrome,1440,900,,,l,0.0649,10,615,2,2,5,29,6,1,0,0,1,0,1,0,0,0,hexagon,triangle,,,,,,,,,,,,,,,,,,,,,,,,,,,,,,,,,,,,,,,,,,,,,,,,,,,,,,
293305,2022-12-05_22h39.00.900,vts_reward_expectancy_bt,2022.2.4,MacIntel,60.0024001,Chrome,1440,900,,,l,0.0479,1,616,2,2,6,30,10,1,0,0,0,1,0,1,0,0,star ,circle,,,,,,,,,,,,,,,,,,,,,,,,,,,,,,,,,,,,,,,,,,,,,,,,,,,,,,
293305,2022-12-05_22h39.00.900,vts_reward_expectancy_bt,2022.2.4,MacIntel,60.0024001,Chrome,1440,900,,,l,0.1663,10,626,2,2,7,31,2,1,1,0,0,0,0,0,0,1,triangle,star,,,,,,,,,,,,,,,,,,,,,,,,,,,,,,,,,,,,,,,,,,,,,,,,,,,,,,
293305,2022-12-05_22h39.00.900,vts_reward_expectancy_bt,2022.2.4,MacIntel,60.0024001,Chrome,1440,900,,,l,0.1241,1,627,2,2,8,32,7,1,0,0,1,0,0,1,0,0,hexagon,circle,,,,,,,,,,,,,,,,,,,,,,,,,,,,,,,,,,,,,,,,,,,,,,,,,,,,,,
293305,2022-12-05_22h39.00.900,vts_reward_expectancy_bt,2022.2.4,MacIntel,60.0024001,Chrome,1440,900,,,l,1.2476,10,637,2,2,9,33,5,1,0,1,0,0,0,0,0,1,circle,star,,,,,,,,,,,,,,,,,,,,,,,,,,,,,,,,,,,,,,,,,,,,,,,,,,,,,,
293305,2022-12-05_22h39.00.900,vts_reward_expectancy_bt,2022.2.4,MacIntel,60.0024001,Chrome,1440,900,,,l,0.0332,10,647,2,2,10,34,8,1,0,0,1,0,0,0,0,1,hexagon,star,,,,,,,,,,,,,,,,,,,,,,,,,,,,,,,,,,,,,,,,,,,,,,,,,,,,,,
293305,2022-12-05_22h39.00.900,vts_reward_expectancy_bt,2022.2.4,MacIntel,60.0024001,Chrome,1440,900,,,l,0.1235,10,657,2,2,11,35,11,1,0,0,0,1,0,0,1,0,star,hexagon,,,,,,,,,,,,,,,,,,,,,,,,,,,,,,,,,,,,,,,,,,,,,,,,,,,,,,
293305,2022-12-05_22h39.00.900,vts_reward_expectancy_bt,2022.2.4,MacIntel,60.0024001,Chrome,1440,900,,,,,,,,,,,,,,,,,,,,,,,B,181,circle,1,0,d,1.4826,0,0,0,0,0,1,,,,,,,,,,,,,,,,,,,,,,,,,,,,,,,,,,,,,,,,,
293305,2022-12-05_22h39.00.900,vts_reward_expectancy_bt,2022.2.4,MacIntel,60.0024001,Chrome,1440,900,,,,,,,,,,,,,,,,,,,,,,,D,139,star,0,0,f,0.3186,0,1,0,1,0,1,,,,,,,,,,,,,,,,,,,,,,,,,,,,,,,,,,,,,,,,,
293305,2022-12-05_22h39.00.900,vts_reward_expectancy_bt,2022.2.4,MacIntel,60.0024001,Chrome,1440,900,,,,,,,,,,,,,,,,,,,,,,,S,132,triangle,0,1,d,0.618,0,2,0,2,0,1,,,,,,,,,,,,,,,,,,,,,,,,,,,,,,,,,,,,,,,,,
293305,2022-12-05_22h39.00.900,vts_reward_expectancy_bt,2022.2.4,MacIntel,60.0024001,Chrome,1440,900,,,,,,,,,,,,,,,,,,,,,,,H,174,hexagon,1,1,d,0.6481,0,3,0,3,0,1,,,,,,,,,,,,,,,,,,,,,,,,,,,,,,,,,,,,,,,,,
293305,2022-12-05_22h39.00.900,vts_reward_expectancy_bt,2022.2.4,MacIntel,60.0024001,Chrome,1440,900,,,,,,,,,,,,,,,,,,,,,,,Y,125,circle,0,0,d,0.5855,0,4,0,4,0,1,,,,,,,,,,,,,,,,,,,,,,,,,,,,,,,,,,,,,,,,,
293305,2022-12-05_22h39.00.900,vts_reward_expectancy_bt,2022.2.4,MacIntel,60.0024001,Chrome,1440,900,,,,,,,,,,,,,,,,,,,,,,,U,160,star,1,1,f,1.2698,0,5,0,5,0,1,,,,,,,,,,,,,,,,,,,,,,,,,,,,,,,,,,,,,,,,,
293305,2022-12-05_22h39.00.900,vts_reward_expectancy_bt,2022.2.4,MacIntel,60.0024001,Chrome,1440,900,,,,,,,,,,,,,,,,,,,,,,,W,146,triangle,1,0,f,0.9139,0,6,0,6,0,1,,,,,,,,,,,,,,,,,,,,,,,,,,,,,,,,,,,,,,,,,
293305,2022-12-05_22h39.00.900,vts_reward_expectancy_bt,2022.2.4,MacIntel,60.0024001,Chrome,1440,900,,,,,,,,,,,,,,,,,,,,,,,F,167,hexagon,1,0,d,2.0984,0,7,0,7,0,1,,,,,,,,,,,,,,,,,,,,,,,,,,,,,,,,,,,,,,,,,
293305,2022-12-05_22h39.00.900,vts_reward_expectancy_bt,2022.2.4,MacIntel,60.0024001,Chrome,1440,900,,,,,,,,,,,,,,,,,,,,,,,B,181,hexagon,1,0,d,0.8975,0,8,0,8,0,1,,,,,,,,,,,,,,,,,,,,,,,,,,,,,,,,,,,,,,,,,
293305,2022-12-05_22h39.00.900,vts_reward_expectancy_bt,2022.2.4,MacIntel,60.0024001,Chrome,1440,900,,,,,,,,,,,,,,,,,,,,,,,D,139,triangle,1,0,d,0.8807,0,9,0,9,0,1,,,,,,,,,,,,,,,,,,,,,,,,,,,,,,,,,,,,,,,,,
293305,2022-12-05_22h39.00.900,vts_reward_expectancy_bt,2022.2.4,MacIntel,60.0024001,Chrome,1440,900,,,,,,,,,,,,,,,,,,,,,,,U,174,star,1,0,f,0.7354,1,0,0,0,0,1,,,,,,,,,,,,,,,,,,,,,,,,,,,,,,,,,,,,,,,,,
293305,2022-12-05_22h39.00.900,vts_reward_expectancy_bt,2022.2.4,MacIntel,60.0024001,Chrome,1440,900,,,,,,,,,,,,,,,,,,,,,,,F,167,hexagon,1,0,d,0.9806,1,1,0,1,0,1,,,,,,,,,,,,,,,,,,,,,,,,,,,,,,,,,,,,,,,,,
293305,2022-12-05_22h39.00.900,vts_reward_expectancy_bt,2022.2.4,MacIntel,60.0024001,Chrome,1440,900,,,,,,,,,,,,,,,,,,,,,,,D,132,circle,1,0,d,0.8621,1,2,0,2,0,1,,,,,,,,,,,,,,,,,,,,,,,,,,,,,,,,,,,,,,,,,
293305,2022-12-05_22h39.00.900,vts_reward_expectancy_bt,2022.2.4,MacIntel,60.0024001,Chrome,1440,900,,,,,,,,,,,,,,,,,,,,,,,S,139,triangle,1,0,f,1.1813,1,3,0,3,0,1,,,,,,,,,,,,,,,,,,,,,,,,,,,,,,,,,,,,,,,,,
293305,2022-12-05_22h39.00.900,vts_reward_expectancy_bt,2022.2.4,MacIntel,60.0024001,Chrome,1440,900,,,,,,,,,,,,,,,,,,,,,,,B,125,star,1,0,d,0.8306,1,4,0,4,0,1,,,,,,,,,,,,,,,,,,,,,,,,,,,,,,,,,,,,,,,,,
293305,2022-12-05_22h39.00.900,vts_reward_expectancy_bt,2022.2.4,MacIntel,60.0024001,Chrome,1440,900,,,,,,,,,,,,,,,,,,,,,,,H,160,hexagon,1,0,d,0.664,1,5,0,5,0,1,,,,,,,,,,,,,,,,,,,,,,,,,,,,,,,,,,,,,,,,,
293305,2022-12-05_22h39.00.900,vts_reward_expectancy_bt,2022.2.4,MacIntel,60.0024001,Chrome,1440,900,,,,,,,,,,,,,,,,,,,,,,,W,146,circle,1,0,f,0.7149,1,6,0,6,0,1,,,,,,,,,,,,,,,,,,,,,,,,,,,,,,,,,,,,,,,,,
293305,2022-12-05_22h39.00.900,vts_reward_expectancy_bt,2022.2.4,MacIntel,60.0024001,Chrome,1440,900,,,,,,,,,,,,,,,,,,,,,,,Y,181,triangle,1,0,f,0.7807,1,7,0,7,0,1,,,,,,,,,,,,,,,,,,,,,,,,,,,,,,,,,,,,,,,,,
293305,2022-12-05_22h39.00.900,vts_reward_expectancy_bt,2022.2.4,MacIntel,60.0024001,Chrome,1440,900,,,,,,,,,,,,,,,,,,,,,,,U,174,triangle,1,0,f,1.1994,1,8,0,8,0,1,,,,,,,,,,,,,,,,,,,,,,,,,,,,,,,,,,,,,,,,,
293305,2022-12-05_22h39.00.900,vts_reward_expectancy_bt,2022.2.4,MacIntel,60.0024001,Chrome,1440,900,,,,,,,,,,,,,,,,,,,,,,,F,167,hexagon,0,0,f,0.9867,1,9,0,9,0,1,,,,,,,,,,,,,,,,,,,,,,,,,,,,,,,,,,,,,,,,,
293305,2022-12-05_22h39.00.900,vts_reward_expectancy_bt,2022.2.4,MacIntel,60.0024001,Chrome,1440,900,,,,,,,,,,,,,,,,,,,,,,,S,139,circle,1,1,,,2,,,,,,j,1.1718,0,0,0,0,1,,,,,,,,,,,,,,,,,,,,,,,,,,,,,,,,,,
293305,2022-12-05_22h39.00.900,vts_reward_expectancy_bt,2022.2.4,MacIntel,60.0024001,Chrome,1440,900,,,,,,,,,,,,,,,,,,,,,,,W,125,hexagon,1,0,,,2,,,,,,j,1.0306,1,0,1,0,1,,,,,,,,,,,,,,,,,,,,,,,,,,,,,,,,,,
293305,2022-12-05_22h39.00.900,vts_reward_expectancy_bt,2022.2.4,MacIntel,60.0024001,Chrome,1440,900,,,,,,,,,,,,,,,,,,,,,,,H,167,triangle,1,0,,,2,,,,,,k,0.765,2,0,2,0,1,,,,,,,,,,,,,,,,,,,,,,,,,,,,,,,,,,
293305,2022-12-05_22h39.00.900,vts_reward_expectancy_bt,2022.2.4,MacIntel,60.0024001,Chrome,1440,900,,,,,,,,,,,,,,,,,,,,,,,B,160,star,1,0,,,2,,,,,,k,0.8771,3,0,3,0,1,,,,,,,,,,,,,,,,,,,,,,,,,,,,,,,,,,
293305,2022-12-05_22h39.00.900,vts_reward_expectancy_bt,2022.2.4,MacIntel,60.0024001,Chrome,1440,900,,,,,,,,,,,,,,,,,,,,,,,Y,146,circle,1,0,,,2,,,,,,j,1.0974,4,0,4,0,1,,,,,,,,,,,,,,,,,,,,,,,,,,,,,,,,,,
293305,2022-12-05_22h39.00.900,vts_reward_expectancy_bt,2022.2.4,MacIntel,60.0024001,Chrome,1440,900,,,,,,,,,,,,,,,,,,,,,,,F,132,hexagon,1,0,,,2,,,,,,j,0.6801,5,0,5,0,1,,,,,,,,,,,,,,,,,,,,,,,,,,,,,,,,,,
293305,2022-12-05_22h39.00.900,vts_reward_expectancy_bt,2022.2.4,MacIntel,60.0024001,Chrome,1440,900,,,,,,,,,,,,,,,,,,,,,,,U,181,triangle,1,0,,,2,,,,,,k,1.8629,6,0,6,0,1,,,,,,,,,,,,,,,,,,,,,,,,,,,,,,,,,,
293305,2022-12-05_22h39.00.900,vts_reward_expectancy_bt,2022.2.4,MacIntel,60.0024001,Chrome,1440,900,,,,,,,,,,,,,,,,,,,,,,,D,174,star,1,0,,,2,,,,,,k,1.1476,7,0,7,0,1,,,,,,,,,,,,,,,,,,,,,,,,,,,,,,,,,,
293305,2022-12-05_22h39.00.900,vts_reward_expectancy_bt,2022.2.4,MacIntel,60.0024001,Chrome,1440,900,,,,,,,,,,,,,,,,,,,,,,,S,139,triangle,1,0,,,2,,,,,,j,0.7808,8,0,8,0,1,,,,,,,,,,,,,,,,,,,,,,,,,,,,,,,,,,
293305,2022-12-05_22h39.00.900,vts_reward_expectancy_bt,2022.2.4,MacIntel,60.0024001,Chrome,1440,900,,,,,,,,,,,,,,,,,,,,,,,W,125,star,1,0,,,2,,,,,,j,0.7295,9,0,9,0,1,,,,,,,,,,,,,,,,,,,,,,,,,,,,,,,,,,
293305,2022-12-05_22h39.00.900,vts_reward_expectancy_bt,2022.2.4,MacIntel,60.0024001,Chrome,1440,900,,,,,0,657,,,,,,,,,,,,,,,,,F,167,circle,1,0,,,3,,,,,,,,,,,,,-1,letter,NA,d,1.3196,vtsPrac,0,0,0,0,1,,,,,,,,,,,,,,,,,,,,,,,
293305,2022-12-05_22h39.00.900,vts_reward_expectancy_bt,2022.2.4,MacIntel,60.0024001,Chrome,1440,900,,,,,0,657,,,,,,,,,,,,,,,,,D,146,hexagon,0,0,,,3,,,,,,,,,,,,,switch,number,NA,k,0.1822,vtsPrac,1,0,1,0,1,,,,,,,,,,,,,,,,,,,,,,,
293305,2022-12-05_22h39.00.900,vts_reward_expectancy_bt,2022.2.4,MacIntel,60.0024001,Chrome,1440,900,,,,,0,657,,,,,,,,,,,,,,,,,S,132,circle,0,1,,,3,,,,,,,,,,,,,switch,letter,NA,d,0.8143,vtsPrac,2,0,2,0,1,,,,,,,,,,,,,,,,,,,,,,,
293305,2022-12-05_22h39.00.900,vts_reward_expectancy_bt,2022.2.4,MacIntel,60.0024001,Chrome,1440,900,,,,,0,657,,,,,,,,,,,,,,,,,B,174,hexagon,0,1,,,3,,,,,,,,,,,,,switch,number,NA,j,1.8803,vtsPrac,3,0,3,0,1,,,,,,,,,,,,,,,,,,,,,,,
293305,2022-12-05_22h39.00.900,vts_reward_expectancy_bt,2022.2.4,MacIntel,60.0024001,Chrome,1440,900,,,,,0,657,,,,,,,,,,,,,,,,,F,167,hexagon,1,1,,,3,,,,,,,,,,,,,switch,letter,lettSwt,d,0.3311,vtsPrac,4,0,4,0,1,,,,,,,,,,,,,,,,,,,,,,,
293305,2022-12-05_22h39.00.900,vts_reward_expectancy_bt,2022.2.4,MacIntel,60.0024001,Chrome,1440,900,,,,,0,657,,,,,,,,,,,,,,,,,D,146,circle,0,0,,,3,,,,,,,,,,,,,repeat,letter,NA,f,0.0805,vtsPrac,5,0,5,0,1,,,,,,,,,,,,,,,,,,,,,,,
293305,2022-12-05_22h39.00.900,vts_reward_expectancy_bt,2022.2.4,MacIntel,60.0024001,Chrome,1440,900,,,,,0,657,,,,,,,,,,,,,,,,,S,132,triangle,1,1,,,3,,,,,,,,,,,,,repeat,letter,lettRpt,f,0.6805,vtsPrac,6,0,6,0,1,,,,,,,,,,,,,,,,,,,,,,,
293305,2022-12-05_22h39.00.900,vts_reward_expectancy_bt,2022.2.4,MacIntel,60.0024001,Chrome,1440,900,,,,,0,657,,,,,,,,,,,,,,,,,B,174,hexagon,0,0,,,3,,,,,,,,,,,,,repeat,letter,NA,f,0.2665,vtsPrac,7,0,7,0,1,,,,,,,,,,,,,,,,,,,,,,,
293305,2022-12-05_22h39.00.900,vts_reward_expectancy_bt,2022.2.4,MacIntel,60.0024001,Chrome,1440,900,,,,,0,657,,,,,,,,,,,,,,,,,Y,146,circle,0,1,,,3,,,,,,,,,,,,,repeat,letter,NA,d,0.2477,vtsPrac,8,0,8,0,1,,,,,,,,,,,,,,,,,,,,,,,
293305,2022-12-05_22h39.00.900,vts_reward_expectancy_bt,2022.2.4,MacIntel,60.0024001,Chrome,1440,900,,,,,0,657,,,,,,,,,,,,,,,,,H,139,triangle,1,1,,,3,,,,,,,,,,,,,switch,number,numSwt,j,0.148,vtsPrac,9,0,9,0,1,,,,,,,,,,,,,,,,,,,,,,,
293305,2022-12-05_22h39.00.900,vts_reward_expectancy_bt,2022.2.4,MacIntel,60.0024001,Chrome,1440,900,,,,,0,657,,,,,,,,,,,,,,,,,W,181,star,1,0,,,3,,,,,,,,,,,,,switch,letter,lettSwt,f,0.3025,vtsPrac,10,0,10,0,1,,,,,,,,,,,,,,,,,,,,,,,
293305,2022-12-05_22h39.00.900,vts_reward_expectancy_bt,2022.2.4,MacIntel,60.0024001,Chrome,1440,900,,,,,0,657,,,,,,,,,,,,,,,,,B,167,triangle,1,0,,,3,,,,,,,,,,,,,switch,number,numSwt,k,0.2644,vtsPrac,11,0,11,0,1,,,,,,,,,,,,,,,,,,,,,,,
293305,2022-12-05_22h39.00.900,vts_reward_expectancy_bt,2022.2.4,MacIntel,60.0024001,Chrome,1440,900,,,,,0,657,,,,,,,,,,,,,,,,,Y,160,hexagon,1,0,,,3,,,,,,,,,,,,,switch,letter,lettSwt,f,0.4865,vtsPrac,12,0,12,0,1,,,,,,,,,,,,,,,,,,,,,,,
293305,2022-12-05_22h39.00.900,vts_reward_expectancy_bt,2022.2.4,MacIntel,60.0024001,Chrome,1440,900,,,,,0,657,,,,,,,,,,,,,,,,,B,132,triangle,0,0,,,3,,,,,,,,,,,,,repeat,letter,NA,f,0.0131,vtsPrac,13,0,13,0,1,,,,,,,,,,,,,,,,,,,,,,,
293305,2022-12-05_22h39.00.900,vts_reward_expectancy_bt,2022.2.4,MacIntel,60.0024001,Chrome,1440,900,,,,,0,657,,,,,,,,,,,,,,,,,F,125,star,1,1,,,3,,,,,,,,,,,,,switch,number,numSwt,j,0.7144,vtsPrac,14,0,14,0,1,,,,,,,,,,,,,,,,,,,,,,,
293305,2022-12-05_22h39.00.900,vts_reward_expectancy_bt,2022.2.4,MacIntel,60.0024001,Chrome,1440,900,,,,,0,657,,,,,,,,,,,,,,,,,W,139,triangle,1,0,,,3,,,,,,,,,,,,,switch,letter,lettSwt,f,0.8305,vtsPrac,15,0,15,0,1,,,,,,,,,,,,,,,,,,,,,,,
293305,2022-12-05_22h39.00.900,vts_reward_expectancy_bt,2022.2.4,MacIntel,60.0024001,Chrome,1440,900,,,,,0,657,,,,,,,,,,,,,,,,,U,139,star,1,0,,,3,,,,,,,,,,,,,repeat,letter,lettRpt,f,0.1652,vtsPrac,16,0,16,0,1,,,,,,,,,,,,,,,,,,,,,,,
293305,2022-12-05_22h39.00.900,vts_reward_expectancy_bt,2022.2.4,MacIntel,60.0024001,Chrome,1440,900,,,,,0,657,,,,,,,,,,,,,,,,,H,174,circle,0,0,,,3,,,,,,,,,,,,,repeat,letter,NA,f,1.1801,vtsPrac,17,0,17,0,1,,,,,,,,,,,,,,,,,,,,,,,
293305,2022-12-05_22h39.00.900,vts_reward_expectancy_bt,2022.2.4,MacIntel,60.0024001,Chrome,1440,900,,,,,0,657,,,,,,,,,,,,,,,,,W,132,circle,1,1,,,3,,,,,,,,,,,,,repeat,letter,lettRpt,f,0.331,vtsPrac,18,0,18,0,1,,,,,,,,,,,,,,,,,,,,,,,
293305,2022-12-05_22h39.00.900,vts_reward_expectancy_bt,2022.2.4,MacIntel,60.0024001,Chrome,1440,900,,,,,0,657,,,,,,,,,,,,,,,,,B,146,triangle,0,0,,,3,,,,,,,,,,,,,switch,number,NA,k,0.5478,vtsPrac,19,0,19,0,1,,,,,,,,,,,,,,,,,,,,,,,
293305,2022-12-05_22h39.00.900,vts_reward_expectancy_bt,2022.2.4,MacIntel,60.0024001,Chrome,1440,900,,,,,0,657,,,,,,,,,,,,,,,,,H,174,circle,1,1,,,3,,,,,,,,,,,,,switch,letter,lettSwt,d,0.2717,vtsPrac,20,0,20,0,1,,,,,,,,,,,,,,,,,,,,,,,
293305,2022-12-05_22h39.00.900,vts_reward_expectancy_bt,2022.2.4,MacIntel,60.0024001,Chrome,1440,900,,,,,0,657,,,,,,,,,,,,,,,,,W,167,triangle,0,0,,,3,,,,,,,,,,,,,repeat,letter,NA,d,0.5637,vtsPrac,21,0,21,0,1,,,,,,,,,,,,,,,,,,,,,,,
293305,2022-12-05_22h39.00.900,vts_reward_expectancy_bt,2022.2.4,MacIntel,60.0024001,Chrome,1440,900,,,,,0,657,,,,,,,,,,,,,,,,,U,160,star,0,1,,,3,,,,,,,,,,,,,repeat,letter,NA,d,0.5329,vtsPrac,22,0,22,0,1,,,,,,,,,,,,,,,,,,,,,,,
293305,2022-12-05_22h39.00.900,vts_reward_expectancy_bt,2022.2.4,MacIntel,60.0024001,Chrome,1440,900,,,,,0,657,,,,,,,,,,,,,,,,,B,132,triangle,0,1,,,3,,,,,,,,,,,,,switch,number,NA,k,0.1968,vtsPrac,23,0,23,0,1,,,,,,,,,,,,,,,,,,,,,,,
293305,2022-12-05_22h39.00.900,vts_reward_expectancy_bt,2022.2.4,MacIntel,60.0024001,Chrome,1440,900,,,,,0,657,,,,,,,,,,,,,,,,,F,160,hexagon,0,1,,,3,,,,,,,,,,,,,switch,letter,NA,f,0.3316,vtsPrac,24,0,24,0,1,,,,,,,,,,,,,,,,,,,,,,,
293305,2022-12-05_22h39.00.900,vts_reward_expectancy_bt,2022.2.4,MacIntel,60.0024001,Chrome,1440,900,,,,,0,657,,,,,,,,,,,,,,,,,S,167,triangle,0,1,,,3,,,,,,,,,,,,,switch,number,NA,j,0.5151,vtsPrac,25,0,25,0,1,,,,,,,,,,,,,,,,,,,,,,,
293305,2022-12-05_22h39.00.900,vts_reward_expectancy_bt,2022.2.4,MacIntel,60.0024001,Chrome,1440,900,,,,,0,657,,,,,,,,,,,,,,,,,D,174,triangle,0,1,,,3,,,,,,,,,,,,,repeat,number,NA,j,0.1108,vtsPrac,26,0,26,0,1,,,,,,,,,,,,,,,,,,,,,,,
293305,2022-12-05_22h39.00.900,vts_reward_expectancy_bt,2022.2.4,MacIntel,60.0024001,Chrome,1440,900,,,,,0,657,,,,,,,,,,,,,,,,,Y,139,circle,1,1,,,3,,,,,,,,,,,,,repeat,number,numRpt,j,0.0333,vtsPrac,27,0,27,0,1,,,,,,,,,,,,,,,,,,,,,,,
293305,2022-12-05_22h39.00.900,vts_reward_expectancy_bt,2022.2.4,MacIntel,60.0024001,Chrome,1440,900,,,,,0,657,,,,,,,,,,,,,,,,,D,181,hexagon,0,0,,,3,,,,,,,,,,,,,repeat,number,NA,j,0.0008,vtsPrac,28,0,28,0,1,,,,,,,,,,,,,,,,,,,,,,,
293305,2022-12-05_22h39.00.900,vts_reward_expectancy_bt,2022.2.4,MacIntel,60.0024001,Chrome,1440,900,,,,,0,657,,,,,,,,,,,,,,,,,F,139,circle,1,1,,,3,,,,,,,,,,,,,repeat,number,numRpt,j,0.1051,vtsPrac,29,0,29,0,1,,,,,,,,,,,,,,,,,,,,,,,
293305,2022-12-05_22h39.00.900,vts_reward_expectancy_bt,2022.2.4,MacIntel,60.0024001,Chrome,1440,900,,,,,0,657,,,,,,,,,,,,,,,,,W,125,triangle,0,0,,,3,,,,,,,,,,,,,repeat,number,NA,k,0.0072,vtsPrac,30,0,30,0,1,,,,,,,,,,,,,,,,,,,,,,,
293305,2022-12-05_22h39.00.900,vts_reward_expectancy_bt,2022.2.4,MacIntel,60.0024001,Chrome,1440,900,,,,,0,657,,,,,,,,,,,,,,,,,S,132,circle,0,1,,,3,,,,,,,,,,,,,repeat,number,NA,k,0.0656,vtsPrac,31,0,31,0,1,,,,,,,,,,,,,,,,,,,,,,,
293305,2022-12-05_22h39.00.900,vts_reward_expectancy_bt,2022.2.4,MacIntel,60.0024001,Chrome,1440,900,,,,,0,657,,,,,,,,,,,,,,,,,H,167,star,1,1,,,4,,,,,,,,,,,,,repeat,number,numRpt,k,0.0003,vtsPrac,0,0,0,0,1,,,,,,,,,,,,,,,,,,,,,,,
293305,2022-12-05_22h39.00.900,vts_reward_expectancy_bt,2022.2.4,MacIntel,60.0024001,Chrome,1440,900,,,,,0,657,,,,,,,,,,,,,,,,,F,174,hexagon,1,0,,,4,,,,,,,,,,,,,repeat,number,numRpt,k,0.1137,vtsPrac,1,0,1,0,1,,,,,,,,,,,,,,,,,,,,,,,
293305,2022-12-05_22h39.00.900,vts_reward_expectancy_bt,2022.2.4,MacIntel,60.0024001,Chrome,1440,900,,,,,0,657,,,,,,,,,,,,,,,,,Y,139,star,0,0,,,4,,,,,,,,,,,,,repeat,number,NA,k,0.0474,vtsPrac,2,0,2,0,1,,,,,,,,,,,,,,,,,,,,,,,
293305,2022-12-05_22h39.00.900,vts_reward_expectancy_bt,2022.2.4,MacIntel,60.0024001,Chrome,1440,900,,,,,0,657,,,,,,,,,,,,,,,,,D,160,hexagon,1,1,,,4,,,,,,,,,,,,,repeat,number,numRpt,k,2.5969,vtsPrac,3,0,3,0,1,,,,,,,,,,,,,,,,,,,,,,,
293305,2022-12-05_22h39.00.900,vts_reward_expectancy_bt,2022.2.4,MacIntel,60.0024001,Chrome,1440,900,,,,,0,657,,,,,,,,,,,,,,,,,H,167,triangle,0,0,,,4,,,,,,,,,,,,,repeat,number,NA,j,0.4394,vtsPrac,4,0,4,0,1,,,,,,,,,,,,,,,,,,,,,,,
293305,2022-12-05_22h39.00.900,vts_reward_expectancy_bt,2022.2.4,MacIntel,60.0024001,Chrome,1440,900,,,,,0,657,,,,,,,,,,,,,,,,,F,174,star,1,1,,,4,,,,,,,,,,,,,repeat,number,numRpt,k,0.1649,vtsPrac,5,0,5,0,1,,,,,,,,,,,,,,,,,,,,,,,
293305,2022-12-05_22h39.00.900,vts_reward_expectancy_bt,2022.2.4,MacIntel,60.0024001,Chrome,1440,900,,,,,0,657,,,,,,,,,,,,,,,,,Y,139,circle,0,0,,,4,,,,,,,,,,,,,repeat,number,NA,k,0.1637,vtsPrac,6,0,6,0,1,,,,,,,,,,,,,,,,,,,,,,,
293305,2022-12-05_22h39.00.900,vts_reward_expectancy_bt,2022.2.4,MacIntel,60.0024001,Chrome,1440,900,,,,,0,657,,,,,,,,,,,,,,,,,D,160,hexagon,1,1,,,4,,,,,,,,,,,,,repeat,number,numRpt,k,0.0175,vtsPrac,7,0,7,0,1,,,,,,,,,,,,,,,,,,,,,,,
293305,2022-12-05_22h39.00.900,vts_reward_expectancy_bt,2022.2.4,MacIntel,60.0024001,Chrome,1440,900,,,,,0,657,,,,,,,,,,,,,,,,,U,181,circle,0,0,,,4,,,,,,,,,,,,,repeat,number,NA,j,0.03,vtsPrac,8,0,8,0,1,,,,,,,,,,,,,,,,,,,,,,,
293305,2022-12-05_22h39.00.900,vts_reward_expectancy_bt,2022.2.4,MacIntel,60.0024001,Chrome,1440,900,,,,,0,657,,,,,,,,,,,,,,,,,H,174,hexagon,1,1,,,4,,,,,,,,,,,,,repeat,number,numRpt,k,0.352,vtsPrac,9,0,9,0,1,,,,,,,,,,,,,,,,,,,,,,,
293305,2022-12-05_22h39.00.900,vts_reward_expectancy_bt,2022.2.4,MacIntel,60.0024001,Chrome,1440,900,,,,,0,657,,,,,,,,,,,,,,,,,Y,146,triangle,0,0,,,4,,,,,,,,,,,,,repeat,number,NA,k,0.2812,vtsPrac,10,0,10,0,1,,,,,,,,,,,,,,,,,,,,,,,
293305,2022-12-05_22h39.00.900,vts_reward_expectancy_bt,2022.2.4,MacIntel,60.0024001,Chrome,1440,900,,,,,0,657,,,,,,,,,,,,,,,,,F,125,hexagon,-1,1,,,4,,,,,,,,,,,,,switch,no_choice,NA,,,vtsPrac,11,0,11,0,1,,,,,,,,,,,,,,,,,,,,,,,
293305,2022-12-05_22h39.00.900,vts_reward_expectancy_bt,2022.2.4,MacIntel,60.0024001,Chrome,1440,900,,,,,0,657,,,,,,,,,,,,,,,,,W,132,hexagon,0,0,,,4,,,,,,,,,,,,,switch,number,NA,k,0.0978,vtsPrac,12,0,12,0,1,,,,,,,,,,,,,,,,,,,,,,,
293305,2022-12-05_22h39.00.900,vts_reward_expectancy_bt,2022.2.4,MacIntel,60.0024001,Chrome,1440,900,,,,,0,657,,,,,,,,,,,,,,,,,F,146,triangle,1,1,,,4,,,,,,,,,,,,,repeat,number,numRpt,j,0.0148,vtsPrac,13,0,13,0,1,,,,,,,,,,,,,,,,,,,,,,,
293305,2022-12-05_22h39.00.900,vts_reward_expectancy_bt,2022.2.4,MacIntel,60.0024001,Chrome,1440,900,,,,,0,657,,,,,,,,,,,,,,,,,H,125,star,0,0,,,4,,,,,,,,,,,,,repeat,number,NA,k,0.0875,vtsPrac,14,0,14,0,1,,,,,,,,,,,,,,,,,,,,,,,
293305,2022-12-05_22h39.00.900,vts_reward_expectancy_bt,2022.2.4,MacIntel,60.0024001,Chrome,1440,900,,,,,0,657,,,,,,,,,,,,,,,,,U,139,hexagon,1,1,,,4,,,,,,,,,,,,,repeat,number,numRpt,j,0.0003,vtsPrac,15,0,15,0,1,,,,,,,,,,,,,,,,,,,,,,,
293305,2022-12-05_22h39.00.900,vts_reward_expectancy_bt,2022.2.4,MacIntel,60.0024001,Chrome,1440,900,,,,,0,657,,,,,,,,,,,,,,,,,H,167,hexagon,1,0,,,4,,,,,,,,,,,,,repeat,number,numRpt,k,0.3643,vtsPrac,16,0,16,0,1,,,,,,,,,,,,,,,,,,,,,,,
293305,2022-12-05_22h39.00.900,vts_reward_expectancy_bt,2022.2.4,MacIntel,60.0024001,Chrome,1440,900,,,,,0,657,,,,,,,,,,,,,,,,,W,125,triangle,1,0,,,4,,,,,,,,,,,,,repeat,number,numRpt,j,0.033,vtsPrac,17,0,17,0,1,,,,,,,,,,,,,,,,,,,,,,,
293305,2022-12-05_22h39.00.900,vts_reward_expectancy_bt,2022.2.4,MacIntel,60.0024001,Chrome,1440,900,,,,,0,657,,,,,,,,,,,,,,,,,D,181,triangle,1,0,,,4,,,,,,,,,,,,,repeat,number,numRpt,k,0.1135,vtsPrac,18,0,18,0,1,,,,,,,,,,,,,,,,,,,,,,,
293305,2022-12-05_22h39.00.900,vts_reward_expectancy_bt,2022.2.4,MacIntel,60.0024001,Chrome,1440,900,,,,,0,657,,,,,,,,,,,,,,,,,S,132,hexagon,0,0,,,4,,,,,,,,,,,,,repeat,number,NA,k,0.1365,vtsPrac,19,0,19,0,1,,,,,,,,,,,,,,,,,,,,,,,
293305,2022-12-05_22h39.00.900,vts_reward_expectancy_bt,2022.2.4,MacIntel,60.0024001,Chrome,1440,900,,,,,0,657,,,,,,,,,,,,,,,,,H,181,triangle,1,1,,,4,,,,,,,,,,,,,repeat,number,numRpt,k,0.0699,vtsPrac,20,0,20,0,1,,,,,,,,,,,,,,,,,,,,,,,
293305,2022-12-05_22h39.00.900,vts_reward_expectancy_bt,2022.2.4,MacIntel,60.0024001,Chrome,1440,900,,,,,0,657,,,,,,,,,,,,,,,,,U,174,circle,0,0,,,4,,,,,,,,,,,,,repeat,number,NA,j,0.0003,vtsPrac,21,0,21,0,1,,,,,,,,,,,,,,,,,,,,,,,
293305,2022-12-05_22h39.00.900,vts_reward_expectancy_bt,2022.2.4,MacIntel,60.0024001,Chrome,1440,900,,,,,0,657,,,,,,,,,,,,,,,,,F,167,star,0,1,,,4,,,,,,,,,,,,,repeat,number,NA,j,0.0491,vtsPrac,22,0,22,0,1,,,,,,,,,,,,,,,,,,,,,,,
293305,2022-12-05_22h39.00.900,vts_reward_expectancy_bt,2022.2.4,MacIntel,60.0024001,Chrome,1440,900,,,,,0,657,,,,,,,,,,,,,,,,,W,160,circle,1,1,,,4,,,,,,,,,,,,,repeat,number,numRpt,k,0.1546,vtsPrac,23,0,23,0,1,,,,,,,,,,,,,,,,,,,,,,,
293305,2022-12-05_22h39.00.900,vts_reward_expectancy_bt,2022.2.4,MacIntel,60.0024001,Chrome,1440,900,,,,,0,657,,,,,,,,,,,,,,,,,U,125,star,0,0,,,4,,,,,,,,,,,,,repeat,number,NA,k,0.0806,vtsPrac,24,0,24,0,1,,,,,,,,,,,,,,,,,,,,,,,
293305,2022-12-05_22h39.00.900,vts_reward_expectancy_bt,2022.2.4,MacIntel,60.0024001,Chrome,1440,900,,,,,0,657,,,,,,,,,,,,,,,,,W,146,hexagon,0,1,,,4,,,,,,,,,,,,,repeat,number,NA,k,0.0296,vtsPrac,25,0,25,0,1,,,,,,,,,,,,,,,,,,,,,,,
293305,2022-12-05_22h39.00.900,vts_reward_expectancy_bt,2022.2.4,MacIntel,60.0024001,Chrome,1440,900,,,,,0,657,,,,,,,,,,,,,,,,,Y,174,star,1,1,,,4,,,,,,,,,,,,,repeat,number,numRpt,k,0.1144,vtsPrac,26,0,26,0,1,,,,,,,,,,,,,,,,,,,,,,,
293305,2022-12-05_22h39.00.900,vts_reward_expectancy_bt,2022.2.4,MacIntel,60.0024001,Chrome,1440,900,,,,,0,657,,,,,,,,,,,,,,,,,H,160,circle,1,0,,,4,,,,,,,,,,,,,repeat,number,numRpt,k,0.0124,vtsPrac,27,0,27,0,1,,,,,,,,,,,,,,,,,,,,,,,
293305,2022-12-05_22h39.00.900,vts_reward_expectancy_bt,2022.2.4,MacIntel,60.0024001,Chrome,1440,900,,,,,0,657,,,,,,,,,,,,,,,,,W,174,hexagon,0,0,,,4,,,,,,,,,,,,,repeat,number,NA,j,0.0667,vtsPrac,28,0,28,0,1,,,,,,,,,,,,,,,,,,,,,,,
293305,2022-12-05_22h39.00.900,vts_reward_expectancy_bt,2022.2.4,MacIntel,60.0024001,Chrome,1440,900,,,,,0,657,,,,,,,,,,,,,,,,,H,167,star,1,1,,,4,,,,,,,,,,,,,repeat,number,numRpt,k,0.1293,vtsPrac,29,0,29,0,1,,,,,,,,,,,,,,,,,,,,,,,
293305,2022-12-05_22h39.00.900,vts_reward_expectancy_bt,2022.2.4,MacIntel,60.0024001,Chrome,1440,900,,,,,0,657,,,,,,,,,,,,,,,,,U,139,hexagon,0,0,,,4,,,,,,,,,,,,,repeat,number,NA,k,0.215,vtsPrac,30,0,30,0,1,,,,,,,,,,,,,,,,,,,,,,,
293305,2022-12-05_22h39.00.900,vts_reward_expectancy_bt,2022.2.4,MacIntel,60.0024001,Chrome,1440,900,,,,,0,657,,,,,,,,,,,,,,,,,F,125,circle,1,1,,,4,,,,,,,,,,,,,repeat,number,numRpt,j,0.0686,vtsPrac,31,0,31,0,1,,,,,,,,,,,,,,,,,,,,,,,
293305,2022-12-05_22h39.00.900,vts_reward_expectancy_bt,2022.2.4,MacIntel,60.0024001,Chrome,1440,900,,,,,0,657,,,,,,,,,,,,,,,,,Y,125,circle,1,0,,,5,,,,,,,,,,,,,switch,letter,lettSwt,f,1.1657,vtsPrac,0,0,0,0,1,,,,,,,,,,,,,,,,,,,,,,,
293305,2022-12-05_22h39.00.900,vts_reward_expectancy_bt,2022.2.4,MacIntel,60.0024001,Chrome,1440,900,,,,,0,657,,,,,,,,,,,,,,,,,W,146,triangle,0,0,,,5,,,,,,,,,,,,,switch,number,NA,k,1.0645,vtsPrac,1,0,1,0,1,,,,,,,,,,,,,,,,,,,,,,,
293305,2022-12-05_22h39.00.900,vts_reward_expectancy_bt,2022.2.4,MacIntel,60.0024001,Chrome,1440,900,,,,,0,657,,,,,,,,,,,,,,,,,B,160,circle,1,1,,,5,,,,,,,,,,,,,repeat,number,numRpt,k,1.3139,vtsPrac,2,0,2,0,1,,,,,,,,,,,,,,,,,,,,,,,
293305,2022-12-05_22h39.00.900,vts_reward_expectancy_bt,2022.2.4,MacIntel,60.0024001,Chrome,1440,900,,,,,0,657,,,,,,,,,,,,,,,,,D,139,triangle,1,0,,,5,,,,,,,,,,,,,switch,letter,lettSwt,d,1.8491,vtsPrac,3,0,3,0,1,,,,,,,,,,,,,,,,,,,,,,,
293305,2022-12-05_22h39.00.900,vts_reward_expectancy_bt,2022.2.4,MacIntel,60.0024001,Chrome,1440,900,,,,,0,657,,,,,,,,,,,,,,,,,Y,125,hexagon,1,0,,,5,,,,,,,,,,,,,repeat,letter,lettRpt,f,1.0159,vtsPrac,4,0,4,0,1,,,,,,,,,,,,,,,,,,,,,,,
293305,2022-12-05_22h39.00.900,vts_reward_expectancy_bt,2022.2.4,MacIntel,60.0024001,Chrome,1440,900,,,,,0,657,,,,,,,,,,,,,,,,,W,146,circle,1,0,,,5,,,,,,,,,,,,,switch,number,numSwt,j,1.1975,vtsPrac,5,0,5,0,1,,,,,,,,,,,,,,,,,,,,,,,
293305,2022-12-05_22h39.00.900,vts_reward_expectancy_bt,2022.2.4,MacIntel,60.0024001,Chrome,1440,900,,,,,0,657,,,,,,,,,,,,,,,,,B,160,star,1,0,,,5,,,,,,,,,,,,,repeat,number,numRpt,k,0.7643,vtsPrac,6,0,6,0,1,,,,,,,,,,,,,,,,,,,,,,,
293305,2022-12-05_22h39.00.900,vts_reward_expectancy_bt,2022.2.4,MacIntel,60.0024001,Chrome,1440,900,,,,,0,657,,,,,,,,,,,,,,,,,D,139,circle,1,0,,,5,,,,,,,,,,,,,switch,letter,lettSwt,d,1.9811,vtsPrac,7,0,7,0,1,,,,,,,,,,,,,,,,,,,,,,,
293305,2022-12-05_22h39.00.900,vts_reward_expectancy_bt,2022.2.4,MacIntel,60.0024001,Chrome,1440,900,,,,,0,657,,,,,,,,,,,,,,,,,S,181,star,1,0,,,5,,,,,,,,,,,,,repeat,letter,lettRpt,f,1.3255,vtsPrac,8,0,8,0,1,,,,,,,,,,,,,,,,,,,,,,,
293305,2022-12-05_22h39.00.900,vts_reward_expectancy_bt,2022.2.4,MacIntel,60.0024001,Chrome,1440,900,,,,,0,657,,,,,,,,,,,,,,,,,W,139,triangle,0,0,,,5,,,,,,,,,,,,,repeat,letter,NA,d,1.1471,vtsPrac,9,0,9,0,1,,,,,,,,,,,,,,,,,,,,,,,
293305,2022-12-05_22h39.00.900,vts_reward_expectancy_bt,2022.2.4,MacIntel,60.0024001,Chrome,1440,900,,,,,0,657,,,,,,,,,,,,,,,,,U,160,star,1,1,,,5,,,,,,,,,,,,,repeat,letter,lettRpt,f,0.2519,vtsPrac,10,0,10,0,1,,,,,,,,,,,,,,,,,,,,,,,
293305,2022-12-05_22h39.00.900,vts_reward_expectancy_bt,2022.2.4,MacIntel,60.0024001,Chrome,1440,900,,,,,0,657,,,,,,,,,,,,,,,,,H,132,triangle,1,0,,,5,,,,,,,,,,,,,repeat,letter,lettRpt,d,0.8479,vtsPrac,11,0,11,0,1,,,,,,,,,,,,,,,,,,,,,,,
293305,2022-12-05_22h39.00.900,vts_reward_expectancy_bt,2022.2.4,MacIntel,60.0024001,Chrome,1440,900,,,,,0,657,,,,,,,,,,,,,,,,,F,139,hexagon,1,0,,,5,,,,,,,,,,,,,switch,number,numSwt,j,1.5728,vtsPrac,12,0,12,0,1,,,,,,,,,,,,,,,,,,,,,,,
293305,2022-12-05_22h39.00.900,vts_reward_expectancy_bt,2022.2.4,MacIntel,60.0024001,Chrome,1440,900,,,,,0,657,,,,,,,,,,,,,,,,,D,146,star,1,0,,,5,,,,,,,,,,,,,repeat,number,numRpt,j,2.8339,vtsPrac,13,0,13,0,1,,,,,,,,,,,,,,,,,,,,,,,
293305,2022-12-05_22h39.00.900,vts_reward_expectancy_bt,2022.2.4,MacIntel,60.0024001,Chrome,1440,900,,,,,0,657,,,,,,,,,,,,,,,,,H,132,circle,1,0,,,5,,,,,,,,,,,,,repeat,number,numRpt,j,2.2845,vtsPrac,14,0,14,0,1,,,,,,,,,,,,,,,,,,,,,,,
293305,2022-12-05_22h39.00.900,vts_reward_expectancy_bt,2022.2.4,MacIntel,60.0024001,Chrome,1440,900,,,,,0,657,,,,,,,,,,,,,,,,,B,160,star,1,0,,,5,,,,,,,,,,,,,switch,letter,lettSwt,d,1.4474,vtsPrac,15,0,15,0,1,,,,,,,,,,,,,,,,,,,,,,,
293305,2022-12-05_22h39.00.900,vts_reward_expectancy_bt,2022.2.4,MacIntel,60.0024001,Chrome,1440,900,,,,,0,657,,,,,,,,,,,,,,,,,S,125,star,1,0,,,5,,,,,,,,,,,,,repeat,letter,lettRpt,f,0.767,vtsPrac,16,0,16,0,1,,,,,,,,,,,,,,,,,,,,,,,
293305,2022-12-05_22h39.00.900,vts_reward_expectancy_bt,2022.2.4,MacIntel,60.0024001,Chrome,1440,900,,,,,0,657,,,,,,,,,,,,,,,,,D,146,circle,1,0,,,5,,,,,,,,,,,,,switch,number,numSwt,j,1.0646,vtsPrac,17,0,17,0,1,,,,,,,,,,,,,,,,,,,,,,,
293305,2022-12-05_22h39.00.900,vts_reward_expectancy_bt,2022.2.4,MacIntel,60.0024001,Chrome,1440,900,,,,,0,657,,,,,,,,,,,,,,,,,H,160,circle,1,0,,,5,,,,,,,,,,,,,repeat,number,numRpt,k,0.6304,vtsPrac,18,0,18,0,1,,,,,,,,,,,,,,,,,,,,,,,
293305,2022-12-05_22h39.00.900,vts_reward_expectancy_bt,2022.2.4,MacIntel,60.0024001,Chrome,1440,900,,,,,0,657,,,,,,,,,,,,,,,,,B,181,triangle,1,0,,,5,,,,,,,,,,,,,switch,letter,lettSwt,d,0.6021,vtsPrac,19,0,19,0,1,,,,,,,,,,,,,,,,,,,,,,,
293305,2022-12-05_22h39.00.900,vts_reward_expectancy_bt,2022.2.4,MacIntel,60.0024001,Chrome,1440,900,,,,,0,657,,,,,,,,,,,,,,,,,S,132,circle,0,0,,,5,,,,,,,,,,,,,switch,number,NA,k,2.2981,vtsPrac,20,0,20,0,1,,,,,,,,,,,,,,,,,,,,,,,
293305,2022-12-05_22h39.00.900,vts_reward_expectancy_bt,2022.2.4,MacIntel,60.0024001,Chrome,1440,900,,,,,0,657,,,,,,,,,,,,,,,,,F,167,triangle,1,1,,,5,,,,,,,,,,,,,repeat,number,numRpt,k,1.4476,vtsPrac,21,0,21,0,1,,,,,,,,,,,,,,,,,,,,,,,
293305,2022-12-05_22h39.00.900,vts_reward_expectancy_bt,2022.2.4,MacIntel,60.0024001,Chrome,1440,900,,,,,0,657,,,,,,,,,,,,,,,,,D,139,triangle,1,0,,,5,,,,,,,,,,,,,switch,letter,lettSwt,d,1.7454,vtsPrac,22,0,22,0,1,,,,,,,,,,,,,,,,,,,,,,,
293305,2022-12-05_22h39.00.900,vts_reward_expectancy_bt,2022.2.4,MacIntel,60.0024001,Chrome,1440,900,,,,,0,657,,,,,,,,,,,,,,,,,U,174,hexagon,1,0,,,5,,,,,,,,,,,,,repeat,letter,lettRpt,f,0.6845,vtsPrac,23,0,23,0,1,,,,,,,,,,,,,,,,,,,,,,,
293305,2022-12-05_22h39.00.900,vts_reward_expectancy_bt,2022.2.4,MacIntel,60.0024001,Chrome,1440,900,,,,,0,657,,,,,,,,,,,,,,,,,D,174,hexagon,1,0,,,5,,,,,,,,,,,,,switch,number,numSwt,k,1.0708,vtsPrac,24,0,24,0,1,,,,,,,,,,,,,,,,,,,,,,,
293305,2022-12-05_22h39.00.900,vts_reward_expectancy_bt,2022.2.4,MacIntel,60.0024001,Chrome,1440,900,,,,,0,657,,,,,,,,,,,,,,,,,S,167,circle,1,0,,,5,,,,,,,,,,,,,repeat,number,numRpt,k,0.6029,vtsPrac,25,0,25,0,1,,,,,,,,,,,,,,,,,,,,,,,
293305,2022-12-05_22h39.00.900,vts_reward_expectancy_bt,2022.2.4,MacIntel,60.0024001,Chrome,1440,900,,,,,0,657,,,,,,,,,,,,,,,,,F,181,triangle,1,0,,,5,,,,,,,,,,,,,switch,letter,lettSwt,d,1.0548,vtsPrac,26,0,26,0,1,,,,,,,,,,,,,,,,,,,,,,,
293305,2022-12-05_22h39.00.900,vts_reward_expectancy_bt,2022.2.4,MacIntel,60.0024001,Chrome,1440,900,,,,,0,657,,,,,,,,,,,,,,,,,W,132,hexagon,1,0,,,5,,,,,,,,,,,,,repeat,letter,lettRpt,f,0.8978,vtsPrac,27,0,27,0,1,,,,,,,,,,,,,,,,,,,,,,,
293305,2022-12-05_22h39.00.900,vts_reward_expectancy_bt,2022.2.4,MacIntel,60.0024001,Chrome,1440,900,,,,,0,657,,,,,,,,,,,,,,,,,D,125,circle,1,0,,,5,,,,,,,,,,,,,repeat,letter,lettRpt,d,1.2835,vtsPrac,28,0,28,0,1,,,,,,,,,,,,,,,,,,,,,,,
293305,2022-12-05_22h39.00.900,vts_reward_expectancy_bt,2022.2.4,MacIntel,60.0024001,Chrome,1440,900,,,,,0,657,,,,,,,,,,,,,,,,,B,160,triangle,1,0,,,5,,,,,,,,,,,,,switch,number,numSwt,k,0.5897,vtsPrac,29,0,29,0,1,,,,,,,,,,,,,,,,,,,,,,,
293305,2022-12-05_22h39.00.900,vts_reward_expectancy_bt,2022.2.4,MacIntel,60.0024001,Chrome,1440,900,,,,,0,657,,,,,,,,,,,,,,,,,S,174,hexagon,1,0,,,5,,,,,,,,,,,,,repeat,number,numRpt,k,0.7159,vtsPrac,30,0,30,0,1,,,,,,,,,,,,,,,,,,,,,,,
293305,2022-12-05_22h39.00.900,vts_reward_expectancy_bt,2022.2.4,MacIntel,60.0024001,Chrome,1440,900,,,,,0,657,,,,,,,,,,,,,,,,,W,132,circle,1,0,,,5,,,,,,,,,,,,,switch,letter,lettSwt,f,0.5147,vtsPrac,31,0,31,0,1,,,,,,,,,,,,,,,,,,,,,,,
293305,2022-12-05_22h39.00.900,vts_reward_expectancy_bt,2022.2.4,MacIntel,60.0024001,Chrome,1440,900,,,,,,,,,,,,,,,,,,,,,,,,,,,,,,,,,,,,,,,,,,,,,,,,,,,,,,,,,,,,,,,,,,,,,,,,,,,,
293305,2022-12-05_22h39.00.900,vts_reward_expectancy_bt,2022.2.4,MacIntel,60.0024001,Chrome,1440,900,,,,,,,,,,,,,,,,,,,,,,,,,,,,,,,,,,,,,,,,,,,,,,,,,,,,,,,,,,,,,,,,,,,,,,,,,,,,
293305,2022-12-05_22h39.00.900,vts_reward_expectancy_bt,2022.2.4,MacIntel,60.0024001,Chrome,1440,900,,,,,0,657,,,,,,,,,,,,,,,,,B,125,circle,1,0,,,,,,,,,,,,,,,,repeat,letter,lettRpt,d,1.0147,noRew,,,,,,0,0,0,0,0,1,,,,,,,,,,,,,,,,,
293305,2022-12-05_22h39.00.900,vts_reward_expectancy_bt,2022.2.4,MacIntel,60.0024001,Chrome,1440,900,,,,,0,657,,,,,,,,,,,,,,,,,W,174,hexagon,1,0,,,,,,,,,,,,,,,,switch,number,numSwt,k,0.8635,noRew,,,,,,0,1,0,1,0,1,,,,,,,,,,,,,,,,,
293305,2022-12-05_22h39.00.900,vts_reward_expectancy_bt,2022.2.4,MacIntel,60.0024001,Chrome,1440,900,,,,,0,657,,,,,,,,,,,,,,,,,U,160,circle,1,0,,,,,,,,,,,,,,,,repeat,number,numRpt,k,0.8807,noRew,,,,,,0,2,0,2,0,1,,,,,,,,,,,,,,,,,
293305,2022-12-05_22h39.00.900,vts_reward_expectancy_bt,2022.2.4,MacIntel,60.0024001,Chrome,1440,900,,,,,0,657,,,,,,,,,,,,,,,,,S,132,hexagon,1,0,,,,,,,,,,,,,,,,repeat,number,numRpt,j,0.7709,noRew,,,,,,0,3,0,3,0,1,,,,,,,,,,,,,,,,,
293305,2022-12-05_22h39.00.900,vts_reward_expectancy_bt,2022.2.4,MacIntel,60.0024001,Chrome,1440,900,,,,,0,657,,,,,,,,,,,,,,,,,B,125,star,1,0,,,,,,,,,,,,,,,,switch,letter,lettSwt,d,0.7637,noRew,,,,,,0,4,0,4,0,1,,,,,,,,,,,,,,,,,
293305,2022-12-05_22h39.00.900,vts_reward_expectancy_bt,2022.2.4,MacIntel,60.0024001,Chrome,1440,900,,,,,0,657,,,,,,,,,,,,,,,,,W,174,triangle,1,0,,,,,,,,,,,,,,,,repeat,letter,lettRpt,f,0.431,noRew,,,,,,0,5,0,5,0,1,,,,,,,,,,,,,,,,,
293305,2022-12-05_22h39.00.900,vts_reward_expectancy_bt,2022.2.4,MacIntel,60.0024001,Chrome,1440,900,,,,,0,657,,,,,,,,,,,,,,,,,U,160,triangle,1,0,,,,,,,,,,,,,,,,switch,number,numSwt,k,0.6188,noRew,,,,,,0,6,0,6,0,1,,,,,,,,,,,,,,,,,
293305,2022-12-05_22h39.00.900,vts_reward_expectancy_bt,2022.2.4,MacIntel,60.0024001,Chrome,1440,900,,,,,0,657,,,,,,,,,,,,,,,,,S,132,hexagon,1,0,,,,,,,,,,,,,,,,repeat,number,numRpt,j,0.6802,noRew,,,,,,0,7,0,7,0,1,,,,,,,,,,,,,,,,,
293305,2022-12-05_22h39.00.900,vts_reward_expectancy_bt,2022.2.4,MacIntel,60.0024001,Chrome,1440,900,,,,,0,657,,,,,,,,,,,,,,,,,F,160,triangle,1,0,,,,,,,,,,,,,,,,switch,letter,lettSwt,d,0.5983,noRew,,,,,,0,8,0,8,0,1,,,,,,,,,,,,,,,,,
293305,2022-12-05_22h39.00.900,vts_reward_expectancy_bt,2022.2.4,MacIntel,60.0024001,Chrome,1440,900,,,,,0,657,,,,,,,,,,,,,,,,,H,174,circle,0,0,,,,,,,,,,,,,,,,repeat,letter,NA,f,0.8811,noRew,,,,,,0,9,0,9,0,1,,,,,,,,,,,,,,,,,
293305,2022-12-05_22h39.00.900,vts_reward_expectancy_bt,2022.2.4,MacIntel,60.0024001,Chrome,1440,900,,,,,0,657,,,,,,,,,,,,,,,,,W,125,circle,1,1,,,,,,,,,,,,,,,,switch,number,numSwt,j,0.7149,noRew,,,,,,0,10,0,10,0,1,,,,,,,,,,,,,,,,,
293305,2022-12-05_22h39.00.900,vts_reward_expectancy_bt,2022.2.4,MacIntel,60.0024001,Chrome,1440,900,,,,,0,657,,,,,,,,,,,,,,,,,U,132,star,1,0,,,,,,,,,,,,,,,,repeat,number,numRpt,j,0.798,noRew,,,,,,0,11,0,11,0,1,,,,,,,,,,,,,,,,,
293305,2022-12-05_22h39.00.900,vts_reward_expectancy_bt,2022.2.4,MacIntel,60.0024001,Chrome,1440,900,,,,,0,657,,,,,,,,,,,,,,,,,S,160,hexagon,1,0,,,,,,,,,,,,,,,,switch,letter,lettSwt,f,2.6817,noRew,,,,,,0,12,0,12,0,1,,,,,,,,,,,,,,,,,
293305,2022-12-05_22h39.00.900,vts_reward_expectancy_bt,2022.2.4,MacIntel,60.0024001,Chrome,1440,900,,,,,0,657,,,,,,,,,,,,,,,,,U,125,star,-1,0,,,,,,,,,,,,,,,,switch,no_choice,NA,,,noRew,,,,,,0,13,0,13,0,1,,,,,,,,,,,,,,,,,
293305,2022-12-05_22h39.00.900,vts_reward_expectancy_bt,2022.2.4,MacIntel,60.0024001,Chrome,1440,900,,,,,0,657,,,,,,,,,,,,,,,,,Y,181,circle,1,0,,,,,,,,,,,,,,,,switch,letter,lettSwt,f,0.7695,noRew,,,,,,0,14,0,14,0,1,,,,,,,,,,,,,,,,,
293305,2022-12-05_22h39.00.900,vts_reward_expectancy_bt,2022.2.4,MacIntel,60.0024001,Chrome,1440,900,,,,,0,657,,,,,,,,,,,,,,,,,F,167,star,1,0,,,,,,,,,,,,,,,,repeat,letter,lettRpt,d,1.6467,noRew,,,,,,0,15,0,15,0,1,,,,,,,,,,,,,,,,,
293305,2022-12-05_22h39.00.900,vts_reward_expectancy_bt,2022.2.4,MacIntel,60.0024001,Chrome,1440,900,,,,,0,657,,,,,,,,,,,,,,,,,S,146,triangle,0,0,,,,,,,,,,,,,,,,switch,number,NA,k,0.9168,noRew,,,,,,0,16,0,16,0,1,,,,,,,,,,,,,,,,,
293305,2022-12-05_22h39.00.900,vts_reward_expectancy_bt,2022.2.4,MacIntel,60.0024001,Chrome,1440,900,,,,,0,657,,,,,,,,,,,,,,,,,H,181,hexagon,0,1,,,,,,,,,,,,,,,,repeat,number,NA,j,1.247,noRew,,,,,,0,17,0,17,0,1,,,,,,,,,,,,,,,,,
293305,2022-12-05_22h39.00.900,vts_reward_expectancy_bt,2022.2.4,MacIntel,60.0024001,Chrome,1440,900,,,,,0,657,,,,,,,,,,,,,,,,,Y,125,circle,1,1,,,,,,,,,,,,,,,,repeat,number,numRpt,j,1.2667,noRew,,,,,,0,18,0,18,0,1,,,,,,,,,,,,,,,,,
293305,2022-12-05_22h39.00.900,vts_reward_expectancy_bt,2022.2.4,MacIntel,60.0024001,Chrome,1440,900,,,,,0,657,,,,,,,,,,,,,,,,,F,174,star,1,0,,,,,,,,,,,,,,,,repeat,number,numRpt,k,0.7329,noRew,,,,,,0,19,0,19,0,1,,,,,,,,,,,,,,,,,
293305,2022-12-05_22h39.00.900,vts_reward_expectancy_bt,2022.2.4,MacIntel,60.0024001,Chrome,1440,900,,,,,0,657,,,,,,,,,,,,,,,,,S,160,circle,1,0,,,,,,,,,,,,,,,,switch,letter,lettSwt,f,1.6481,noRew,,,,,,0,20,0,20,0,1,,,,,,,,,,,,,,,,,
293305,2022-12-05_22h39.00.900,vts_reward_expectancy_bt,2022.2.4,MacIntel,60.0024001,Chrome,1440,900,,,,,0,657,,,,,,,,,,,,,,,,,B,132,triangle,1,0,,,,,,,,,,,,,,,,repeat,letter,lettRpt,d,1.4978,noRew,,,,,,0,21,0,21,0,1,,,,,,,,,,,,,,,,,
293305,2022-12-05_22h39.00.900,vts_reward_expectancy_bt,2022.2.4,MacIntel,60.0024001,Chrome,1440,900,,,,,0,657,,,,,,,,,,,,,,,,,D,125,star,1,0,,,,,,,,,,,,,,,,repeat,letter,lettRpt,d,2.9487,noRew,,,,,,0,22,0,22,0,1,,,,,,,,,,,,,,,,,
293305,2022-12-05_22h39.00.900,vts_reward_expectancy_bt,2022.2.4,MacIntel,60.0024001,Chrome,1440,900,,,,,0,657,,,,,,,,,,,,,,,,,Y,146,triangle,1,0,,,,,,,,,,,,,,,,switch,number,numSwt,j,0.8736,noRew,,,,,,0,23,0,23,0,1,,,,,,,,,,,,,,,,,
293305,2022-12-05_22h39.00.900,vts_reward_expectancy_bt,2022.2.4,MacIntel,60.0024001,Chrome,1440,900,,,,,0,657,,,,,,,,,,,,,,,,,H,125,triangle,1,0,,,,,,,,,,,,,,,,switch,letter,lettSwt,d,2.7307,noRew,,,,,,0,24,0,24,0,1,,,,,,,,,,,,,,,,,
293305,2022-12-05_22h39.00.900,vts_reward_expectancy_bt,2022.2.4,MacIntel,60.0024001,Chrome,1440,900,,,,,0,657,,,,,,,,,,,,,,,,,W,174,hexagon,1,0,,,,,,,,,,,,,,,,repeat,letter,lettRpt,f,0.9323,noRew,,,,,,0,25,0,25,0,1,,,,,,,,,,,,,,,,,
293305,2022-12-05_22h39.00.900,vts_reward_expectancy_bt,2022.2.4,MacIntel,60.0024001,Chrome,1440,900,,,,,0,657,,,,,,,,,,,,,,,,,B,139,triangle,0,0,,,,,,,,,,,,,,,,switch,number,NA,k,2.5203,noRew,,,,,,0,26,0,26,0,1,,,,,,,,,,,,,,,,,
293305,2022-12-05_22h39.00.900,vts_reward_expectancy_bt,2022.2.4,MacIntel,60.0024001,Chrome,1440,900,,,,,0,657,,,,,,,,,,,,,,,,,U,167,circle,1,1,,,,,,,,,,,,,,,,repeat,number,numRpt,k,0.6333,noRew,,,,,,0,27,0,27,0,1,,,,,,,,,,,,,,,,,
293305,2022-12-05_22h39.00.900,vts_reward_expectancy_bt,2022.2.4,MacIntel,60.0024001,Chrome,1440,900,,,,,0,657,,,,,,,,,,,,,,,,,D,146,triangle,-1,0,,,,,,,,,,,,,,,,switch,no_choice,NA,,,noRew,,,,,,0,28,0,28,0,1,,,,,,,,,,,,,,,,,
293305,2022-12-05_22h39.00.900,vts_reward_expectancy_bt,2022.2.4,MacIntel,60.0024001,Chrome,1440,900,,,,,0,657,,,,,,,,,,,,,,,,,F,181,hexagon,1,0,,,,,,,,,,,,,,,,switch,letter,lettSwt,d,0.954,noRew,,,,,,0,29,0,29,0,1,,,,,,,,,,,,,,,,,
293305,2022-12-05_22h39.00.900,vts_reward_expectancy_bt,2022.2.4,MacIntel,60.0024001,Chrome,1440,900,,,,,0,657,,,,,,,,,,,,,,,,,S,167,triangle,1,0,,,,,,,,,,,,,,,,switch,number,numSwt,k,1.1828,noRew,,,,,,0,30,0,30,0,1,,,,,,,,,,,,,,,,,
293305,2022-12-05_22h39.00.900,vts_reward_expectancy_bt,2022.2.4,MacIntel,60.0024001,Chrome,1440,900,,,,,0,657,,,,,,,,,,,,,,,,,H,125,circle,0,0,,,,,,,,,,,,,,,,repeat,number,NA,k,0.7306,noRew,,,,,,0,31,0,31,0,1,,,,,,,,,,,,,,,,,
293305,2022-12-05_22h39.00.900,vts_reward_expectancy_bt,2022.2.4,MacIntel,60.0024001,Chrome,1440,900,,,,,0,657,,,,,,,,,,,,,,,,,B,146,circle,1,1,,,,,,,,,,,,,,,,switch,letter,lettSwt,d,2.2637,noRew,,,,,,0,32,0,32,0,1,,,,,,,,,,,,,,,,,
293305,2022-12-05_22h39.00.900,vts_reward_expectancy_bt,2022.2.4,MacIntel,60.0024001,Chrome,1440,900,,,,,0,657,,,,,,,,,,,,,,,,,S,132,star,1,0,,,,,,,,,,,,,,,,repeat,letter,lettRpt,f,1.717,noRew,,,,,,0,33,0,33,0,1,,,,,,,,,,,,,,,,,
293305,2022-12-05_22h39.00.900,vts_reward_expectancy_bt,2022.2.4,MacIntel,60.0024001,Chrome,1440,900,,,,,0,657,,,,,,,,,,,,,,,,,U,181,triangle,1,0,,,,,,,,,,,,,,,,switch,number,numSwt,k,1.9976,noRew,,,,,,0,34,0,34,0,1,,,,,,,,,,,,,,,,,
293305,2022-12-05_22h39.00.900,vts_reward_expectancy_bt,2022.2.4,MacIntel,60.0024001,Chrome,1440,900,,,,,0,657,,,,,,,,,,,,,,,,,H,167,circle,1,0,,,,,,,,,,,,,,,,repeat,number,numRpt,k,0.9485,noRew,,,,,,0,35,0,35,0,1,,,,,,,,,,,,,,,,,
293305,2022-12-05_22h39.00.900,vts_reward_expectancy_bt,2022.2.4,MacIntel,60.0024001,Chrome,1440,900,,,,,0,657,,,,,,,,,,,,,,,,,Y,181,triangle,1,0,,,,,,,,,,,,,,,,switch,letter,lettSwt,f,0.7813,noRew,,,,,,0,36,0,36,0,1,,,,,,,,,,,,,,,,,
293305,2022-12-05_22h39.00.900,vts_reward_expectancy_bt,2022.2.4,MacIntel,60.0024001,Chrome,1440,900,,,,,0,657,,,,,,,,,,,,,,,,,H,167,star,1,0,,,,,,,,,,,,,,,,repeat,letter,lettRpt,d,0.8484,noRew,,,,,,0,37,0,37,0,1,,,,,,,,,,,,,,,,,
293305,2022-12-05_22h39.00.900,vts_reward_expectancy_bt,2022.2.4,MacIntel,60.0024001,Chrome,1440,900,,,,,0,657,,,,,,,,,,,,,,,,,S,139,circle,1,0,,,,,,,,,,,,,,,,switch,number,numSwt,j,1.5015,noRew,,,,,,0,38,0,38,0,1,,,,,,,,,,,,,,,,,
293305,2022-12-05_22h39.00.900,vts_reward_expectancy_bt,2022.2.4,MacIntel,60.0024001,Chrome,1440,900,,,,,0,657,,,,,,,,,,,,,,,,,U,132,star,1,0,,,,,,,,,,,,,,,,repeat,number,numRpt,j,0.7839,noRew,,,,,,0,39,0,39,0,1,,,,,,,,,,,,,,,,,
293305,2022-12-05_22h39.00.900,vts_reward_expectancy_bt,2022.2.4,MacIntel,60.0024001,Chrome,1440,900,,,,,0,657,,,,,,,,,,,,,,,,,U,132,circle,1,0,,,,,,,,,,,,,,,,switch,letter,lettSwt,f,1.1882,noRew,,,,,,0,40,0,40,0,1,,,,,,,,,,,,,,,,,
293305,2022-12-05_22h39.00.900,vts_reward_expectancy_bt,2022.2.4,MacIntel,60.0024001,Chrome,1440,900,,,,,0,657,,,,,,,,,,,,,,,,,W,160,star,1,0,,,,,,,,,,,,,,,,repeat,letter,lettRpt,f,1.1697,noRew,,,,,,0,41,0,41,0,1,,,,,,,,,,,,,,,,,
293305,2022-12-05_22h39.00.900,vts_reward_expectancy_bt,2022.2.4,MacIntel,60.0024001,Chrome,1440,900,,,,,0,657,,,,,,,,,,,,,,,,,Y,125,circle,1,0,,,,,,,,,,,,,,,,switch,number,numSwt,j,0.8543,noRew,,,,,,0,42,0,42,0,1,,,,,,,,,,,,,,,,,
293305,2022-12-05_22h39.00.900,vts_reward_expectancy_bt,2022.2.4,MacIntel,60.0024001,Chrome,1440,900,,,,,0,657,,,,,,,,,,,,,,,,,D,146,hexagon,1,0,,,,,,,,,,,,,,,,repeat,number,numRpt,j,0.7145,noRew,,,,,,0,43,0,43,0,1,,,,,,,,,,,,,,,,,
293305,2022-12-05_22h39.00.900,vts_reward_expectancy_bt,2022.2.4,MacIntel,60.0024001,Chrome,1440,900,,,,,0,657,,,,,,,,,,,,,,,,,D,125,circle,1,0,,,,,,,,,,,,,,,,repeat,number,numRpt,j,1.2492,noRew,,,,,,0,44,0,44,0,1,,,,,,,,,,,,,,,,,
293305,2022-12-05_22h39.00.900,vts_reward_expectancy_bt,2022.2.4,MacIntel,60.0024001,Chrome,1440,900,,,,,0,657,,,,,,,,,,,,,,,,,S,139,triangle,0,0,,,,,,,,,,,,,,,,switch,letter,NA,d,0.8968,noRew,,,,,,0,45,0,45,0,1,,,,,,,,,,,,,,,,,
293305,2022-12-05_22h39.00.900,vts_reward_expectancy_bt,2022.2.4,MacIntel,60.0024001,Chrome,1440,900,,,,,0,657,,,,,,,,,,,,,,,,,H,167,hexagon,0,1,,,,,,,,,,,,,,,,repeat,letter,NA,f,1.031,noRew,,,,,,0,46,0,46,0,1,,,,,,,,,,,,,,,,,
293305,2022-12-05_22h39.00.900,vts_reward_expectancy_bt,2022.2.4,MacIntel,60.0024001,Chrome,1440,900,,,,,0,657,,,,,,,,,,,,,,,,,W,174,star,1,1,,,,,,,,,,,,,,,,repeat,letter,lettRpt,f,0.9034,noRew,,,,,,0,47,0,47,0,1,,,,,,,,,,,,,,,,,
293305,2022-12-05_22h39.00.900,vts_reward_expectancy_bt,2022.2.4,MacIntel,60.0024001,Chrome,1440,900,,,,,0,657,,,,,,,,,,,,,,,,,D,146,hexagon,1,0,,,,,,,,,,,,,,,,repeat,letter,lettRpt,d,0.9659,noRew,,,,,,0,48,0,48,0,1,,,,,,,,,,,,,,,,,
293305,2022-12-05_22h39.00.900,vts_reward_expectancy_bt,2022.2.4,MacIntel,60.0024001,Chrome,1440,900,,,,,0,657,,,,,,,,,,,,,,,,,U,160,circle,1,0,,,,,,,,,,,,,,,,switch,number,numSwt,k,0.8648,noRew,,,,,,0,49,0,49,0,1,,,,,,,,,,,,,,,,,
293305,2022-12-05_22h39.00.900,vts_reward_expectancy_bt,2022.2.4,MacIntel,60.0024001,Chrome,1440,900,,,,,0,657,,,,,,,,,,,,,,,,,W,139,star,1,0,,,,,,,,,,,,,,,,repeat,number,numRpt,j,1.3011,noRew,,,,,,0,50,0,50,0,1,,,,,,,,,,,,,,,,,
293305,2022-12-05_22h39.00.900,vts_reward_expectancy_bt,2022.2.4,MacIntel,60.0024001,Chrome,1440,900,,,,,0,657,,,,,,,,,,,,,,,,,S,167,hexagon,0,0,,,,,,,,,,,,,,,,switch,letter,NA,d,2.0138,noRew,,,,,,0,51,0,51,0,1,,,,,,,,,,,,,,,,,
293305,2022-12-05_22h39.00.900,vts_reward_expectancy_bt,2022.2.4,MacIntel,60.0024001,Chrome,1440,900,,,,,0,657,,,,,,,,,,,,,,,,,H,139,hexagon,1,1,,,,,,,,,,,,,,,,repeat,letter,lettRpt,d,2.7888,noRew,,,,,,0,52,0,52,0,1,,,,,,,,,,,,,,,,,
293305,2022-12-05_22h39.00.900,vts_reward_expectancy_bt,2022.2.4,MacIntel,60.0024001,Chrome,1440,900,,,,,0,657,,,,,,,,,,,,,,,,,F,167,star,1,0,,,,,,,,,,,,,,,,repeat,letter,lettRpt,d,1.4634,noRew,,,,,,0,53,0,53,0,1,,,,,,,,,,,,,,,,,
293305,2022-12-05_22h39.00.900,vts_reward_expectancy_bt,2022.2.4,MacIntel,60.0024001,Chrome,1440,900,,,,,0,657,,,,,,,,,,,,,,,,,S,174,star,1,0,,,,,,,,,,,,,,,,switch,number,numSwt,k,1.4157,noRew,,,,,,0,54,0,54,0,1,,,,,,,,,,,,,,,,,
293305,2022-12-05_22h39.00.900,vts_reward_expectancy_bt,2022.2.4,MacIntel,60.0024001,Chrome,1440,900,,,,,0,657,,,,,,,,,,,,,,,,,W,132,triangle,1,0,,,,,,,,,,,,,,,,repeat,number,numRpt,j,0.7823,noRew,,,,,,0,55,0,55,0,1,,,,,,,,,,,,,,,,,
293305,2022-12-05_22h39.00.900,vts_reward_expectancy_bt,2022.2.4,MacIntel,60.0024001,Chrome,1440,900,,,,,0,657,,,,,,,,,,,,,,,,,B,146,hexagon,1,0,,,,,,,,,,,,,,,,repeat,number,numRpt,j,0.9478,noRew,,,,,,0,56,0,56,0,1,,,,,,,,,,,,,,,,,
293305,2022-12-05_22h39.00.900,vts_reward_expectancy_bt,2022.2.4,MacIntel,60.0024001,Chrome,1440,900,,,,,0,657,,,,,,,,,,,,,,,,,W,174,circle,1,0,,,,,,,,,,,,,,,,switch,letter,lettSwt,f,1.6178,noRew,,,,,,0,57,0,57,0,1,,,,,,,,,,,,,,,,,
293305,2022-12-05_22h39.00.900,vts_reward_expectancy_bt,2022.2.4,MacIntel,60.0024001,Chrome,1440,900,,,,,0,657,,,,,,,,,,,,,,,,,S,167,circle,1,0,,,,,,,,,,,,,,,,repeat,letter,lettRpt,f,1.1838,noRew,,,,,,0,58,0,58,0,1,,,,,,,,,,,,,,,,,
293305,2022-12-05_22h39.00.900,vts_reward_expectancy_bt,2022.2.4,MacIntel,60.0024001,Chrome,1440,900,,,,,0,657,,,,,,,,,,,,,,,,,Y,160,star,1,0,,,,,,,,,,,,,,,,repeat,letter,lettRpt,f,0.6151,noRew,,,,,,0,59,0,59,0,1,,,,,,,,,,,,,,,,,
293305,2022-12-05_22h39.00.900,vts_reward_expectancy_bt,2022.2.4,MacIntel,60.0024001,Chrome,1440,900,,,,,0,657,,,,,,,,,,,,,,,,,S,181,circle,1,0,,,,,,,,,,,,,,,,switch,number,numSwt,k,0.7977,noRew,,,,,,0,60,0,60,0,1,,,,,,,,,,,,,,,,,
293305,2022-12-05_22h39.00.900,vts_reward_expectancy_bt,2022.2.4,MacIntel,60.0024001,Chrome,1440,900,,,,,0,657,,,,,,,,,,,,,,,,,H,174,triangle,1,0,,,,,,,,,,,,,,,,repeat,number,numRpt,k,0.7811,noRew,,,,,,0,61,0,61,0,1,,,,,,,,,,,,,,,,,
293305,2022-12-05_22h39.00.900,vts_reward_expectancy_bt,2022.2.4,MacIntel,60.0024001,Chrome,1440,900,,,,,0,657,,,,,,,,,,,,,,,,,B,132,hexagon,1,0,,,,,,,,,,,,,,,,switch,letter,lettSwt,d,1.5637,noRew,,,,,,0,62,0,62,0,1,,,,,,,,,,,,,,,,,
293305,2022-12-05_22h39.00.900,vts_reward_expectancy_bt,2022.2.4,MacIntel,60.0024001,Chrome,1440,900,,,,,0,657,,,,,,,,,,,,,,,,,U,167,star,1,0,,,,,,,,,,,,,,,,repeat,letter,lettRpt,f,1.0198,noRew,,,,,,0,63,0,63,0,1,,,,,,,,,,,,,,,,,
293305,2022-12-05_22h39.00.900,vts_reward_expectancy_bt,2022.2.4,MacIntel,60.0024001,Chrome,1440,900,,,,,,,,,,,,,,,,,,,,,,,,,,,,,,,,,,,,,,,,,,,,,,,,,,,,,,,,,,,,,,,,,,,,,,,,,,,,
293305,2022-12-05_22h39.00.900,vts_reward_expectancy_bt,2022.2.4,MacIntel,60.0024001,Chrome,1440,900,,,,,1,658,,,,,,,,,,,,,,,,,F,181,hexagon,1,0,,,,,,,,,,,,,,,,repeat,letter,lettRpt,d,0.8208,Lo,,,,,,0,,,,,,space,20.1185,high,0,0,0,0,1,,,,,,,,,
293305,2022-12-05_22h39.00.900,vts_reward_expectancy_bt,2022.2.4,MacIntel,60.0024001,Chrome,1440,900,,,,,1,659,,,,,,,,,,,,,,,,,H,160,circle,1,0,,,,,,,,,,,,,,,,switch,number,numSwt,k,0.903,Lo,,,,,,0,,,,,,,,high,1,0,1,0,1,,,,,,,,,
293305,2022-12-05_22h39.00.900,vts_reward_expectancy_bt,2022.2.4,MacIntel,60.0024001,Chrome,1440,900,,,,,10,669,,,,,,,,,,,,,,,,,D,174,star,1,0,,,,,,,,,,,,,,,,switch,letter,lettSwt,d,0.5974,Hi,,,,,,0,,,,,,,,high,2,0,2,0,1,,,,,,,,,
293305,2022-12-05_22h39.00.900,vts_reward_expectancy_bt,2022.2.4,MacIntel,60.0024001,Chrome,1440,900,,,,,0,669,,,,,,,,,,,,,,,,,B,125,triangle,0,0,,,,,,,,,,,,,,,,switch,number,NA,k,1.2376,Hi,,,,,,0,,,,,,,,high,3,0,3,0,1,,,,,,,,,
293305,2022-12-05_22h39.00.900,vts_reward_expectancy_bt,2022.2.4,MacIntel,60.0024001,Chrome,1440,900,,,,,0,669,,,,,,,,,,,,,,,,,U,146,hexagon,0,1,,,,,,,,,,,,,,,,switch,letter,NA,d,0.1313,Hi,,,,,,0,,,,,,,,high,4,0,4,0,1,,,,,,,,,
293305,2022-12-05_22h39.00.900,vts_reward_expectancy_bt,2022.2.4,MacIntel,60.0024001,Chrome,1440,900,,,,,0,669,,,,,,,,,,,,,,,,,W,167,circle,0,1,,,,,,,,,,,,,,,,repeat,letter,NA,d,0.0176,Hi,,,,,,0,,,,,,,,high,5,0,5,0,1,,,,,,,,,
293305,2022-12-05_22h39.00.900,vts_reward_expectancy_bt,2022.2.4,MacIntel,60.0024001,Chrome,1440,900,,,,,0,669,,,,,,,,,,,,,,,,,S,132,star,0,1,,,,,,,,,,,,,,,,repeat,letter,NA,d,0.0039,Hi,,,,,,0,,,,,,,,high,6,0,6,0,1,,,,,,,,,
293305,2022-12-05_22h39.00.900,vts_reward_expectancy_bt,2022.2.4,MacIntel,60.0024001,Chrome,1440,900,,,,,10,679,,,,,,,,,,,,,,,,,Y,139,triangle,1,1,,,,,,,,,,,,,,,,switch,number,numSwt,j,0.0822,Hi,,,,,,0,,,,,,,,high,7,0,7,0,1,,,,,,,,,
293305,2022-12-05_22h39.00.900,vts_reward_expectancy_bt,2022.2.4,MacIntel,60.0024001,Chrome,1440,900,,,,,1,680,,,,,,,,,,,,,,,,,F,181,circle,1,0,,,,,,,,,,,,,,,,switch,letter,lettSwt,d,0.244,Lo,,,,,,0,,,,,,,,high,8,0,8,0,1,,,,,,,,,
293305,2022-12-05_22h39.00.900,vts_reward_expectancy_bt,2022.2.4,MacIntel,60.0024001,Chrome,1440,900,,,,,10,690,,,,,,,,,,,,,,,,,H,160,triangle,1,0,,,,,,,,,,,,,,,,repeat,letter,lettRpt,d,0.03,Hi,,,,,,0,,,,,,,,high,9,0,9,0,1,,,,,,,,,
293305,2022-12-05_22h39.00.900,vts_reward_expectancy_bt,2022.2.4,MacIntel,60.0024001,Chrome,1440,900,,,,,10,700,,,,,,,,,,,,,,,,,D,174,star,1,0,,,,,,,,,,,,,,,,repeat,letter,lettRpt,d,0.0003,Hi,,,,,,0,,,,,,,,high,10,0,10,0,1,,,,,,,,,
293305,2022-12-05_22h39.00.900,vts_reward_expectancy_bt,2022.2.4,MacIntel,60.0024001,Chrome,1440,900,,,,,0,700,,,,,,,,,,,,,,,,,B,125,hexagon,-1,0,,,,,,,,,,,,,,,,switch,no_choice,NA,,,Hi,,,,,,0,,,,,,,,high,11,0,11,0,1,,,,,,,,,
293305,2022-12-05_22h39.00.900,vts_reward_expectancy_bt,2022.2.4,MacIntel,60.0024001,Chrome,1440,900,,,,,0,700,,,,,,,,,,,,,,,,,U,146,circle,0,0,,,,,,,,,,,,,,,,switch,letter,NA,d,0.8996,Hi,,,,,,0,,,,,,,,high,12,0,12,0,1,,,,,,,,,
293305,2022-12-05_22h39.00.900,vts_reward_expectancy_bt,2022.2.4,MacIntel,60.0024001,Chrome,1440,900,,,,,0,700,,,,,,,,,,,,,,,,,W,167,triangle,0,1,,,,,,,,,,,,,,,,repeat,letter,NA,d,0.2655,Hi,,,,,,0,,,,,,,,high,13,0,13,0,1,,,,,,,,,
293305,2022-12-05_22h39.00.900,vts_reward_expectancy_bt,2022.2.4,MacIntel,60.0024001,Chrome,1440,900,,,,,0,700,,,,,,,,,,,,,,,,,S,132,star,0,1,,,,,,,,,,,,,,,,switch,number,NA,k,0.0304,Hi,,,,,,0,,,,,,,,high,14,0,14,0,1,,,,,,,,,
293305,2022-12-05_22h39.00.900,vts_reward_expectancy_bt,2022.2.4,MacIntel,60.0024001,Chrome,1440,900,,,,,0,700,,,,,,,,,,,,,,,,,Y,139,hexagon,0,1,,,,,,,,,,,,,,,,repeat,number,NA,k,0.0465,Hi,,,,,,0,,,,,,,,high,15,0,15,0,1,,,,,,,,,
293305,2022-12-05_22h39.00.900,vts_reward_expectancy_bt,2022.2.4,MacIntel,60.0024001,Chrome,1440,900,,,,,1,701,,,,,,,,,,,,,,,,,W,139,hexagon,1,1,,,,,,,,,,,,,,,,switch,letter,lettSwt,f,0.7656,Lo,,,,,,0,,,,,,,,high,16,0,16,0,1,,,,,,,,,
293305,2022-12-05_22h39.00.900,vts_reward_expectancy_bt,2022.2.4,MacIntel,60.0024001,Chrome,1440,900,,,,,1,702,,,,,,,,,,,,,,,,,S,160,triangle,1,0,,,,,,,,,,,,,,,,switch,number,numSwt,k,0.665,Hi,,,,,,0,,,,,,,,high,17,0,17,0,1,,,,,,,,,
293305,2022-12-05_22h39.00.900,vts_reward_expectancy_bt,2022.2.4,MacIntel,60.0024001,Chrome,1440,900,,,,,0,702,,,,,,,,,,,,,,,,,Y,174,star,0,0,,,,,,,,,,,,,,,,switch,letter,NA,d,0.3634,Hi,,,,,,0,,,,,,,,high,18,0,18,0,1,,,,,,,,,
293305,2022-12-05_22h39.00.900,vts_reward_expectancy_bt,2022.2.4,MacIntel,60.0024001,Chrome,1440,900,,,,,0,702,,,,,,,,,,,,,,,,,U,167,circle,0,1,,,,,,,,,,,,,,,,switch,number,NA,j,0.2326,Hi,,,,,,0,,,,,,,,high,19,0,19,0,1,,,,,,,,,
293305,2022-12-05_22h39.00.900,vts_reward_expectancy_bt,2022.2.4,MacIntel,60.0024001,Chrome,1440,900,,,,,10,712,,,,,,,,,,,,,,,,,F,146,circle,1,1,,,,,,,,,,,,,,,,repeat,number,numRpt,j,0.3813,Lo,,,,,,0,,,,,,,,high,20,0,20,0,1,,,,,,,,,
293305,2022-12-05_22h39.00.900,vts_reward_expectancy_bt,2022.2.4,MacIntel,60.0024001,Chrome,1440,900,,,,,0,712,,,,,,,,,,,,,,,,,D,132,star,0,0,,,,,,,,,,,,,,,,repeat,number,NA,k,0.1129,Lo,,,,,,0,,,,,,,,high,21,0,21,0,1,,,,,,,,,
293305,2022-12-05_22h39.00.900,vts_reward_expectancy_bt,2022.2.4,MacIntel,60.0024001,Chrome,1440,900,,,,,0,712,,,,,,,,,,,,,,,,,H,181,hexagon,0,1,,,,,,,,,,,,,,,,switch,letter,NA,f,0.0004,Lo,,,,,,0,,,,,,,,high,22,0,22,0,1,,,,,,,,,
293305,2022-12-05_22h39.00.900,vts_reward_expectancy_bt,2022.2.4,MacIntel,60.0024001,Chrome,1440,900,,,,,0,712,,,,,,,,,,,,,,,,,B,125,triangle,0,1,,,,,,,,,,,,,,,,switch,number,NA,k,0.0354,Lo,,,,,,0,,,,,,,,high,23,0,23,0,1,,,,,,,,,
293305,2022-12-05_22h39.00.900,vts_reward_expectancy_bt,2022.2.4,MacIntel,60.0024001,Chrome,1440,900,,,,,0,712,,,,,,,,,,,,,,,,,Y,146,triangle,0,1,,,,,,,,,,,,,,,,switch,letter,NA,d,0.2142,Lo,,,,,,0,,,,,,,,high,24,0,24,0,1,,,,,,,,,
293305,2022-12-05_22h39.00.900,vts_reward_expectancy_bt,2022.2.4,MacIntel,60.0024001,Chrome,1440,900,,,,,0,712,,,,,,,,,,,,,,,,,B,174,circle,0,1,,,,,,,,,,,,,,,,repeat,letter,NA,f,0.1813,Lo,,,,,,0,,,,,,,,high,25,0,25,0,1,,,,,,,,,
293305,2022-12-05_22h39.00.900,vts_reward_expectancy_bt,2022.2.4,MacIntel,60.0024001,Chrome,1440,900,,,,,0,712,,,,,,,,,,,,,,,,,W,139,star,0,1,,,,,,,,,,,,,,,,repeat,letter,NA,d,0.3489,Lo,,,,,,0,,,,,,,,high,26,0,26,0,1,,,,,,,,,
293305,2022-12-05_22h39.00.900,vts_reward_expectancy_bt,2022.2.4,MacIntel,60.0024001,Chrome,1440,900,,,,,1,713,,,,,,,,,,,,,,,,,D,181,hexagon,1,1,,,,,,,,,,,,,,,,repeat,letter,lettRpt,d,0.3808,Lo,,,,,,0,,,,,,,,high,27,0,27,0,1,,,,,,,,,
293305,2022-12-05_22h39.00.900,vts_reward_expectancy_bt,2022.2.4,MacIntel,60.0024001,Chrome,1440,900,,,,,0,713,,,,,,,,,,,,,,,,,S,160,star,0,0,,,,,,,,,,,,,,,,repeat,letter,NA,d,0.0623,Lo,,,,,,0,,,,,,,,high,28,0,28,0,1,,,,,,,,,
293305,2022-12-05_22h39.00.900,vts_reward_expectancy_bt,2022.2.4,MacIntel,60.0024001,Chrome,1440,900,,,,,0,713,,,,,,,,,,,,,,,,,F,125,circle,0,1,,,,,,,,,,,,,,,,repeat,letter,NA,f,0.5861,Lo,,,,,,0,,,,,,,,high,29,0,29,0,1,,,,,,,,,
293305,2022-12-05_22h39.00.900,vts_reward_expectancy_bt,2022.2.4,MacIntel,60.0024001,Chrome,1440,900,,,,,10,723,,,,,,,,,,,,,,,,,H,167,triangle,1,1,,,,,,,,,,,,,,,,switch,number,numSwt,k,0.4196,Hi,,,,,,0,,,,,,,,high,30,0,30,0,1,,,,,,,,,
293305,2022-12-05_22h39.00.900,vts_reward_expectancy_bt,2022.2.4,MacIntel,60.0024001,Chrome,1440,900,,,,,0,723,,,,,,,,,,,,,,,,,U,132,hexagon,0,0,,,,,,,,,,,,,,,,repeat,number,NA,k,0.0639,Hi,,,,,,0,,,,,,,,high,31,0,31,0,1,,,,,,,,,
293305,2022-12-05_22h39.00.900,vts_reward_expectancy_bt,2022.2.4,MacIntel,60.0024001,Chrome,1440,900,,,,,10,733,,,,,,,,,,,,,,,,,W,167,star,1,1,,,,,,,,,,,,,,,,repeat,number,numRpt,k,0.0999,Hi,,,,,,1,,,,,,space,1.0894,high,0,0,0,0,1,,,,,,,,,
293305,2022-12-05_22h39.00.900,vts_reward_expectancy_bt,2022.2.4,MacIntel,60.0024001,Chrome,1440,900,,,,,0,733,,,,,,,,,,,,,,,,,F,174,circle,-1,0,,,,,,,,,,,,,,,,switch,no_choice,NA,,,Hi,,,,,,1,,,,,,,,high,1,0,1,0,1,,,,,,,,,
293305,2022-12-05_22h39.00.900,vts_reward_expectancy_bt,2022.2.4,MacIntel,60.0024001,Chrome,1440,900,,,,,1,734,,,,,,,,,,,,,,,,,H,181,hexagon,1,0,,,,,,,,,,,,,,,,switch,letter,lettSwt,d,1.2821,Lo,,,,,,1,,,,,,,,high,2,0,2,0,1,,,,,,,,,
293305,2022-12-05_22h39.00.900,vts_reward_expectancy_bt,2022.2.4,MacIntel,60.0024001,Chrome,1440,900,,,,,1,735,,,,,,,,,,,,,,,,,B,146,triangle,1,0,,,,,,,,,,,,,,,,repeat,letter,lettRpt,d,0.0117,Hi,,,,,,1,,,,,,,,high,3,0,3,0,1,,,,,,,,,
293305,2022-12-05_22h39.00.900,vts_reward_expectancy_bt,2022.2.4,MacIntel,60.0024001,Chrome,1440,900,,,,,0,735,,,,,,,,,,,,,,,,,U,132,star,0,0,,,,,,,,,,,,,,,,switch,number,NA,k,0.1281,Hi,,,,,,1,,,,,,,,high,4,0,4,0,1,,,,,,,,,
293305,2022-12-05_22h39.00.900,vts_reward_expectancy_bt,2022.2.4,MacIntel,60.0024001,Chrome,1440,900,,,,,0,735,,,,,,,,,,,,,,,,,S,160,circle,0,1,,,,,,,,,,,,,,,,repeat,number,NA,j,0.028,Hi,,,,,,1,,,,,,,,high,5,0,5,0,1,,,,,,,,,
293305,2022-12-05_22h39.00.900,vts_reward_expectancy_bt,2022.2.4,MacIntel,60.0024001,Chrome,1440,900,,,,,0,735,,,,,,,,,,,,,,,,,D,125,hexagon,0,1,,,,,,,,,,,,,,,,repeat,number,NA,k,0.35,Hi,,,,,,1,,,,,,,,high,6,0,6,0,1,,,,,,,,,
293305,2022-12-05_22h39.00.900,vts_reward_expectancy_bt,2022.2.4,MacIntel,60.0024001,Chrome,1440,900,,,,,0,735,,,,,,,,,,,,,,,,,Y,139,triangle,0,1,,,,,,,,,,,,,,,,repeat,number,NA,k,0.0817,Hi,,,,,,1,,,,,,,,high,7,0,7,0,1,,,,,,,,,
293305,2022-12-05_22h39.00.900,vts_reward_expectancy_bt,2022.2.4,MacIntel,60.0024001,Chrome,1440,900,,,,,0,735,,,,,,,,,,,,,,,,,W,167,star,0,1,,,,,,,,,,,,,,,,switch,letter,NA,d,0.0519,Hi,,,,,,1,,,,,,,,high,8,0,8,0,1,,,,,,,,,
293305,2022-12-05_22h39.00.900,vts_reward_expectancy_bt,2022.2.4,MacIntel,60.0024001,Chrome,1440,900,,,,,10,745,,,,,,,,,,,,,,,,,F,174,hexagon,1,1,,,,,,,,,,,,,,,,repeat,letter,lettRpt,d,0.1799,Lo,,,,,,1,,,,,,,,high,9,0,9,0,1,,,,,,,,,
293305,2022-12-05_22h39.00.900,vts_reward_expectancy_bt,2022.2.4,MacIntel,60.0024001,Chrome,1440,900,,,,,1,746,,,,,,,,,,,,,,,,,H,181,circle,1,0,,,,,,,,,,,,,,,,repeat,letter,lettRpt,d,0.1156,Lo,,,,,,1,,,,,,,,high,10,0,10,0,1,,,,,,,,,
293305,2022-12-05_22h39.00.900,vts_reward_expectancy_bt,2022.2.4,MacIntel,60.0024001,Chrome,1440,900,,,,,0,746,,,,,,,,,,,,,,,,,B,146,triangle,1,0,,,,,,,,,,,,,,,,repeat,letter,lettRpt,d,0.1813,Hi,,,,,,1,,,,,,,,high,11,0,11,0,1,,,,,,,,,
293305,2022-12-05_22h39.00.900,vts_reward_expectancy_bt,2022.2.4,MacIntel,60.0024001,Chrome,1440,900,,,,,1,747,,,,,,,,,,,,,,,,,U,132,circle,1,0,,,,,,,,,,,,,,,,repeat,letter,lettRpt,f,0.0648,Lo,,,,,,1,,,,,,,,high,12,0,12,0,1,,,,,,,,,
293305,2022-12-05_22h39.00.900,vts_reward_expectancy_bt,2022.2.4,MacIntel,60.0024001,Chrome,1440,900,,,,,0,747,,,,,,,,,,,,,,,,,S,160,star,0,0,,,,,,,,,,,,,,,,switch,number,NA,j,0.2173,Lo,,,,,,1,,,,,,,,high,13,0,13,0,1,,,,,,,,,
293305,2022-12-05_22h39.00.900,vts_reward_expectancy_bt,2022.2.4,MacIntel,60.0024001,Chrome,1440,900,,,,,1,748,,,,,,,,,,,,,,,,,D,125,triangle,1,1,,,,,,,,,,,,,,,,repeat,number,numRpt,j,0.2479,Hi,,,,,,1,,,,,,,,high,14,0,14,0,1,,,,,,,,,
293305,2022-12-05_22h39.00.900,vts_reward_expectancy_bt,2022.2.4,MacIntel,60.0024001,Chrome,1440,900,,,,,1,749,,,,,,,,,,,,,,,,,Y,139,hexagon,1,0,,,,,,,,,,,,,,,,switch,letter,lettSwt,f,0.2675,Lo,,,,,,1,,,,,,,,high,15,0,15,0,1,,,,,,,,,
293305,2022-12-05_22h39.00.900,vts_reward_expectancy_bt,2022.2.4,MacIntel,60.0024001,Chrome,1440,900,,,,,0,749,,,,,,,,,,,,,,,,,U,146,star,0,0,,,,,,,,,,,,,,,,switch,number,NA,k,0.4153,Lo,,,,,,1,,,,,,,,high,16,0,16,0,1,,,,,,,,,
293305,2022-12-05_22h39.00.900,vts_reward_expectancy_bt,2022.2.4,MacIntel,60.0024001,Chrome,1440,900,,,,,1,750,,,,,,,,,,,,,,,,,Y,174,hexagon,1,1,,,,,,,,,,,,,,,,repeat,number,numRpt,k,0.4149,Lo,,,,,,1,,,,,,,,high,17,0,17,0,1,,,,,,,,,
293305,2022-12-05_22h39.00.900,vts_reward_expectancy_bt,2022.2.4,MacIntel,60.0024001,Chrome,1440,900,,,,,0,750,,,,,,,,,,,,,,,,,H,139,triangle,1,0,,,,,,,,,,,,,,,,switch,letter,lettSwt,d,0.617,Hi,,,,,,1,,,,,,,,high,18,0,18,0,1,,,,,,,,,
293305,2022-12-05_22h39.00.900,vts_reward_expectancy_bt,2022.2.4,MacIntel,60.0024001,Chrome,1440,900,,,,,1,751,,,,,,,,,,,,,,,,,D,132,circle,1,0,,,,,,,,,,,,,,,,switch,number,numSwt,j,0.4677,Lo,,,,,,1,,,,,,,,high,19,0,19,0,1,,,,,,,,,
293305,2022-12-05_22h39.00.900,vts_reward_expectancy_bt,2022.2.4,MacIntel,60.0024001,Chrome,1440,900,,,,,1,752,,,,,,,,,,,,,,,,,W,181,circle,1,0,,,,,,,,,,,,,,,,switch,letter,lettSwt,f,0.3796,Lo,,,,,,1,,,,,,,,high,20,0,20,0,1,,,,,,,,,
293305,2022-12-05_22h39.00.900,vts_reward_expectancy_bt,2022.2.4,MacIntel,60.0024001,Chrome,1440,900,,,,,1,753,,,,,,,,,,,,,,,,,S,160,hexagon,1,0,,,,,,,,,,,,,,,,repeat,letter,lettRpt,f,0.6035,Lo,,,,,,1,,,,,,,,high,21,0,21,0,1,,,,,,,,,
293305,2022-12-05_22h39.00.900,vts_reward_expectancy_bt,2022.2.4,MacIntel,60.0024001,Chrome,1440,900,,,,,0,753,,,,,,,,,,,,,,,,,B,167,star,1,0,,,,,,,,,,,,,,,,repeat,letter,lettRpt,d,0.6826,Hi,,,,,,1,,,,,,,,high,22,0,22,0,1,,,,,,,,,
293305,2022-12-05_22h39.00.900,vts_reward_expectancy_bt,2022.2.4,MacIntel,60.0024001,Chrome,1440,900,,,,,10,763,,,,,,,,,,,,,,,,,F,125,triangle,1,0,,,,,,,,,,,,,,,,switch,number,numSwt,j,0.244,Hi,,,,,,1,,,,,,,,high,23,0,23,0,1,,,,,,,,,
293305,2022-12-05_22h39.00.900,vts_reward_expectancy_bt,2022.2.4,MacIntel,60.0024001,Chrome,1440,900,,,,,0,763,,,,,,,,,,,,,,,,,U,174,triangle,0,0,,,,,,,,,,,,,,,,switch,letter,NA,d,0.3998,Hi,,,,,,1,,,,,,,,high,24,0,24,0,1,,,,,,,,,
293305,2022-12-05_22h39.00.900,vts_reward_expectancy_bt,2022.2.4,MacIntel,60.0024001,Chrome,1440,900,,,,,1,764,,,,,,,,,,,,,,,,,W,181,circle,1,1,,,,,,,,,,,,,,,,repeat,letter,lettRpt,f,0.2978,Lo,,,,,,1,,,,,,,,high,25,0,25,0,1,,,,,,,,,
293305,2022-12-05_22h39.00.900,vts_reward_expectancy_bt,2022.2.4,MacIntel,60.0024001,Chrome,1440,900,,,,,1,765,,,,,,,,,,,,,,,,,S,167,hexagon,1,0,,,,,,,,,,,,,,,,repeat,letter,lettRpt,f,0.4002,Lo,,,,,,1,,,,,,,,high,26,0,26,0,1,,,,,,,,,
293305,2022-12-05_22h39.00.900,vts_reward_expectancy_bt,2022.2.4,MacIntel,60.0024001,Chrome,1440,900,,,,,10,775,,,,,,,,,,,,,,,,,D,139,star,1,0,,,,,,,,,,,,,,,,switch,number,numSwt,j,0.1823,Hi,,,,,,1,,,,,,,,high,27,0,27,0,1,,,,,,,,,
293305,2022-12-05_22h39.00.900,vts_reward_expectancy_bt,2022.2.4,MacIntel,60.0024001,Chrome,1440,900,,,,,1,776,,,,,,,,,,,,,,,,,H,146,circle,1,0,,,,,,,,,,,,,,,,repeat,number,numRpt,j,0.5164,Lo,,,,,,1,,,,,,,,high,28,0,28,0,1,,,,,,,,,
293305,2022-12-05_22h39.00.900,vts_reward_expectancy_bt,2022.2.4,MacIntel,60.0024001,Chrome,1440,900,,,,,10,786,,,,,,,,,,,,,,,,,Y,132,triangle,1,0,,,,,,,,,,,,,,,,switch,letter,lettSwt,f,0.1864,Hi,,,,,,1,,,,,,,,high,29,0,29,0,1,,,,,,,,,
293305,2022-12-05_22h39.00.900,vts_reward_expectancy_bt,2022.2.4,MacIntel,60.0024001,Chrome,1440,900,,,,,0,786,,,,,,,,,,,,,,,,,B,160,star,0,0,,,,,,,,,,,,,,,,repeat,letter,NA,f,0.2486,Hi,,,,,,1,,,,,,,,high,30,0,30,0,1,,,,,,,,,
293305,2022-12-05_22h39.00.900,vts_reward_expectancy_bt,2022.2.4,MacIntel,60.0024001,Chrome,1440,900,,,,,0,786,,,,,,,,,,,,,,,,,F,125,hexagon,0,1,,,,,,,,,,,,,,,,switch,number,NA,k,0.2144,Hi,,,,,,1,,,,,,,,high,31,0,31,0,1,,,,,,,,,
293305,2022-12-05_22h39.00.900,vts_reward_expectancy_bt,2022.2.4,MacIntel,60.0024001,Chrome,1440,900,,,,,1,787,,,,,,,,,,,,,,,,,B,139,hexagon,1,1,,,,,,,,,,,,,,,,switch,letter,lettSwt,d,0.0628,Lo,,,,,,2,,,,,,space,150.2679,high,0,0,0,0,1,,,,,,,,,
293305,2022-12-05_22h39.00.900,vts_reward_expectancy_bt,2022.2.4,MacIntel,60.0024001,Chrome,1440,900,,,,,1,788,,,,,,,,,,,,,,,,,H,132,circle,1,0,,,,,,,,,,,,,,,,switch,number,numSwt,j,0.0703,Lo,,,,,,2,,,,,,,,high,1,0,1,0,1,,,,,,,,,
293305,2022-12-05_22h39.00.900,vts_reward_expectancy_bt,2022.2.4,MacIntel,60.0024001,Chrome,1440,900,,,,,0,788,,,,,,,,,,,,,,,,,F,181,star,0,0,,,,,,,,,,,,,,,,switch,letter,NA,f,0.0303,Lo,,,,,,2,,,,,,,,high,2,0,2,0,1,,,,,,,,,
293305,2022-12-05_22h39.00.900,vts_reward_expectancy_bt,2022.2.4,MacIntel,60.0024001,Chrome,1440,900,,,,,0,788,,,,,,,,,,,,,,,,,W,174,triangle,0,1,,,,,,,,,,,,,,,,repeat,letter,NA,d,0.0291,Lo,,,,,,2,,,,,,,,high,3,0,3,0,1,,,,,,,,,
293305,2022-12-05_22h39.00.900,vts_reward_expectancy_bt,2022.2.4,MacIntel,60.0024001,Chrome,1440,900,,,,,10,798,,,,,,,,,,,,,,,,,S,146,hexagon,1,1,,,,,,,,,,,,,,,,repeat,letter,lettRpt,f,0.0004,Lo,,,,,,2,,,,,,,,high,4,0,4,0,1,,,,,,,,,
293305,2022-12-05_22h39.00.900,vts_reward_expectancy_bt,2022.2.4,MacIntel,60.0024001,Chrome,1440,900,,,,,1,799,,,,,,,,,,,,,,,,,Y,160,circle,1,0,,,,,,,,,,,,,,,,switch,number,numSwt,k,0.3636,Lo,,,,,,2,,,,,,,,high,5,0,5,0,1,,,,,,,,,
293305,2022-12-05_22h39.00.900,vts_reward_expectancy_bt,2022.2.4,MacIntel,60.0024001,Chrome,1440,900,,,,,0,799,,,,,,,,,,,,,,,,,D,167,star,0,0,,,,,,,,,,,,,,,,repeat,number,NA,j,1.1119,Lo,,,,,,2,,,,,,,,high,6,0,6,0,1,,,,,,,,,
293305,2022-12-05_22h39.00.900,vts_reward_expectancy_bt,2022.2.4,MacIntel,60.0024001,Chrome,1440,900,,,,,0,799,,,,,,,,,,,,,,,,,U,125,triangle,0,1,,,,,,,,,,,,,,,,repeat,number,NA,k,0.8007,Lo,,,,,,2,,,,,,,,high,7,0,7,0,1,,,,,,,,,
293305,2022-12-05_22h39.00.900,vts_reward_expectancy_bt,2022.2.4,MacIntel,60.0024001,Chrome,1440,900,,,,,0,799,,,,,,,,,,,,,,,,,B,139,triangle,1,1,,,,,,,,,,,,,,,,switch,letter,lettSwt,d,1.2466,Hi,,,,,,2,,,,,,,,high,8,0,8,0,1,,,,,,,,,
293305,2022-12-05_22h39.00.900,vts_reward_expectancy_bt,2022.2.4,MacIntel,60.0024001,Chrome,1440,900,,,,,1,800,,,,,,,,,,,,,,,,,H,132,circle,1,0,,,,,,,,,,,,,,,,repeat,letter,lettRpt,d,0.0982,Lo,,,,,,2,,,,,,,,high,9,0,9,0,1,,,,,,,,,
293305,2022-12-05_22h39.00.900,vts_reward_expectancy_bt,2022.2.4,MacIntel,60.0024001,Chrome,1440,900,,,,,0,800,,,,,,,,,,,,,,,,,F,181,star,0,0,,,,,,,,,,,,,,,,switch,number,NA,j,0.0003,Lo,,,,,,2,,,,,,,,high,10,0,10,0,1,,,,,,,,,
293305,2022-12-05_22h39.00.900,vts_reward_expectancy_bt,2022.2.4,MacIntel,60.0024001,Chrome,1440,900,,,,,0,800,,,,,,,,,,,,,,,,,W,174,hexagon,0,1,,,,,,,,,,,,,,,,switch,letter,NA,d,0.1327,Lo,,,,,,2,,,,,,,,high,11,0,11,0,1,,,,,,,,,
293305,2022-12-05_22h39.00.900,vts_reward_expectancy_bt,2022.2.4,MacIntel,60.0024001,Chrome,1440,900,,,,,10,810,,,,,,,,,,,,,,,,,S,146,hexagon,1,1,,,,,,,,,,,,,,,,switch,number,numSwt,j,0.0367,Lo,,,,,,2,,,,,,,,high,12,0,12,0,1,,,,,,,,,
293305,2022-12-05_22h39.00.900,vts_reward_expectancy_bt,2022.2.4,MacIntel,60.0024001,Chrome,1440,900,,,,,0,810,,,,,,,,,,,,,,,,,Y,160,triangle,1,0,,,,,,,,,,,,,,,,repeat,number,numRpt,k,0.5973,Hi,,,,,,2,,,,,,,,high,13,0,13,0,1,,,,,,,,,
293305,2022-12-05_22h39.00.900,vts_reward_expectancy_bt,2022.2.4,MacIntel,60.0024001,Chrome,1440,900,,,,,0,810,,,,,,,,,,,,,,,,,D,167,circle,0,0,,,,,,,,,,,,,,,,repeat,number,NA,j,0.1228,Hi,,,,,,2,,,,,,,,high,14,0,14,0,1,,,,,,,,,
293305,2022-12-05_22h39.00.900,vts_reward_expectancy_bt,2022.2.4,MacIntel,60.0024001,Chrome,1440,900,,,,,10,820,,,,,,,,,,,,,,,,,U,125,star,1,1,,,,,,,,,,,,,,,,switch,letter,lettSwt,f,0.0494,Hi,,,,,,2,,,,,,,,high,15,0,15,0,1,,,,,,,,,
293305,2022-12-05_22h39.00.900,vts_reward_expectancy_bt,2022.2.4,MacIntel,60.0024001,Chrome,1440,900,,,,,10,830,,,,,,,,,,,,,,,,,F,146,star,1,0,,,,,,,,,,,,,,,,repeat,letter,lettRpt,d,0.0004,Hi,,,,,,2,,,,,,,,high,16,0,16,0,1,,,,,,,,,
293305,2022-12-05_22h39.00.900,vts_reward_expectancy_bt,2022.2.4,MacIntel,60.0024001,Chrome,1440,900,,,,,0,830,,,,,,,,,,,,,,,,,U,167,triangle,0,0,,,,,,,,,,,,,,,,repeat,letter,NA,d,0.0113,Hi,,,,,,2,,,,,,,,high,17,0,17,0,1,,,,,,,,,
293305,2022-12-05_22h39.00.900,vts_reward_expectancy_bt,2022.2.4,MacIntel,60.0024001,Chrome,1440,900,,,,,0,830,,,,,,,,,,,,,,,,,H,132,circle,0,1,,,,,,,,,,,,,,,,switch,number,NA,k,0.1297,Hi,,,,,,2,,,,,,,,high,18,0,18,0,1,,,,,,,,,
293305,2022-12-05_22h39.00.900,vts_reward_expectancy_bt,2022.2.4,MacIntel,60.0024001,Chrome,1440,900,,,,,0,830,,,,,,,,,,,,,,,,,S,125,hexagon,0,1,,,,,,,,,,,,,,,,repeat,number,NA,k,0.0477,Hi,,,,,,2,,,,,,,,high,19,0,19,0,1,,,,,,,,,
293305,2022-12-05_22h39.00.900,vts_reward_expectancy_bt,2022.2.4,MacIntel,60.0024001,Chrome,1440,900,,,,,10,840,,,,,,,,,,,,,,,,,D,139,triangle,1,1,,,,,,,,,,,,,,,,repeat,number,numRpt,j,0.081,Hi,,,,,,2,,,,,,,,high,20,0,20,0,1,,,,,,,,,
293305,2022-12-05_22h39.00.900,vts_reward_expectancy_bt,2022.2.4,MacIntel,60.0024001,Chrome,1440,900,,,,,1,841,,,,,,,,,,,,,,,,,W,160,star,1,0,,,,,,,,,,,,,,,,switch,letter,lettSwt,f,0.0141,Hi,,,,,,2,,,,,,,,high,21,0,21,0,1,,,,,,,,,
293305,2022-12-05_22h39.00.900,vts_reward_expectancy_bt,2022.2.4,MacIntel,60.0024001,Chrome,1440,900,,,,,0,841,,,,,,,,,,,,,,,,,Y,181,hexagon,0,0,,,,,,,,,,,,,,,,switch,number,NA,j,0.1307,Hi,,,,,,2,,,,,,,,high,22,0,22,0,1,,,,,,,,,
293305,2022-12-05_22h39.00.900,vts_reward_expectancy_bt,2022.2.4,MacIntel,60.0024001,Chrome,1440,900,,,,,10,851,,,,,,,,,,,,,,,,,B,174,circle,1,1,,,,,,,,,,,,,,,,repeat,number,numRpt,k,0.1665,Lo,,,,,,2,,,,,,,,high,23,0,23,0,1,,,,,,,,,
293305,2022-12-05_22h39.00.900,vts_reward_expectancy_bt,2022.2.4,MacIntel,60.0024001,Chrome,1440,900,,,,,0,851,,,,,,,,,,,,,,,,,F,132,star,0,0,,,,,,,,,,,,,,,,repeat,number,NA,k,0.0004,Lo,,,,,,2,,,,,,,,high,24,0,24,0,1,,,,,,,,,
293305,2022-12-05_22h39.00.900,vts_reward_expectancy_bt,2022.2.4,MacIntel,60.0024001,Chrome,1440,900,,,,,10,861,,,,,,,,,,,,,,,,,H,174,triangle,1,1,,,,,,,,,,,,,,,,switch,letter,lettSwt,d,0.1,Hi,,,,,,2,,,,,,,,high,25,0,25,0,1,,,,,,,,,
293305,2022-12-05_22h39.00.900,vts_reward_expectancy_bt,2022.2.4,MacIntel,60.0024001,Chrome,1440,900,,,,,0,861,,,,,,,,,,,,,,,,,D,181,circle,0,0,,,,,,,,,,,,,,,,switch,number,NA,j,0.037,Hi,,,,,,2,,,,,,,,high,26,0,26,0,1,,,,,,,,,
293305,2022-12-05_22h39.00.900,vts_reward_expectancy_bt,2022.2.4,MacIntel,60.0024001,Chrome,1440,900,,,,,0,861,,,,,,,,,,,,,,,,,W,146,hexagon,0,1,,,,,,,,,,,,,,,,switch,letter,NA,d,0.0486,Hi,,,,,,2,,,,,,,,high,27,0,27,0,1,,,,,,,,,
293305,2022-12-05_22h39.00.900,vts_reward_expectancy_bt,2022.2.4,MacIntel,60.0024001,Chrome,1440,900,,,,,0,861,,,,,,,,,,,,,,,,,Y,160,circle,0,1,,,,,,,,,,,,,,,,repeat,letter,NA,d,0.0036,Hi,,,,,,2,,,,,,,,high,28,0,28,0,1,,,,,,,,,
293305,2022-12-05_22h39.00.900,vts_reward_expectancy_bt,2022.2.4,MacIntel,60.0024001,Chrome,1440,900,,,,,10,871,,,,,,,,,,,,,,,,,S,139,hexagon,1,1,,,,,,,,,,,,,,,,switch,number,numSwt,j,0.0002,Lo,,,,,,2,,,,,,,,high,29,0,29,0,1,,,,,,,,,
293305,2022-12-05_22h39.00.900,vts_reward_expectancy_bt,2022.2.4,MacIntel,60.0024001,Chrome,1440,900,,,,,0,871,,,,,,,,,,,,,,,,,B,125,star,0,0,,,,,,,,,,,,,,,,switch,letter,NA,f,0.0831,Lo,,,,,,2,,,,,,,,high,30,0,30,0,1,,,,,,,,,
293305,2022-12-05_22h39.00.900,vts_reward_expectancy_bt,2022.2.4,MacIntel,60.0024001,Chrome,1440,900,,,,,10,881,,,,,,,,,,,,,,,,,U,167,triangle,1,1,,,,,,,,,,,,,,,,switch,number,numSwt,k,0.0985,Hi,,,,,,2,,,,,,,,high,31,0,31,0,1,,,,,,,,,
293305,2022-12-05_22h39.00.900,vts_reward_expectancy_bt,2022.2.4,MacIntel,60.0024001,Chrome,1440,900,,,,,10,891,,,,,,,,,,,,,,,,,H,174,star,1,0,,,,,,,,,,,,,,,,repeat,number,numRpt,k,0.0458,Hi,,,,,,3,,,,,,space,1.1587,high,0,0,0,0,1,,,,,,,,,
293305,2022-12-05_22h39.00.900,vts_reward_expectancy_bt,2022.2.4,MacIntel,60.0024001,Chrome,1440,900,,,,,0,891,,,,,,,,,,,,,,,,,U,160,triangle,1,0,,,,,,,,,,,,,,,,switch,letter,lettSwt,f,0.132,Hi,,,,,,3,,,,,,,,high,1,0,1,0,1,,,,,,,,,
293305,2022-12-05_22h39.00.900,vts_reward_expectancy_bt,2022.2.4,MacIntel,60.0024001,Chrome,1440,900,,,,,0,891,,,,,,,,,,,,,,,,,Y,181,hexagon,0,0,,,,,,,,,,,,,,,,repeat,letter,NA,d,0.1062,Hi,,,,,,3,,,,,,,,high,2,0,2,0,1,,,,,,,,,
293305,2022-12-05_22h39.00.900,vts_reward_expectancy_bt,2022.2.4,MacIntel,60.0024001,Chrome,1440,900,,,,,0,891,,,,,,,,,,,,,,,,,B,146,circle,0,1,,,,,,,,,,,,,,,,repeat,letter,NA,f,0.0162,Hi,,,,,,3,,,,,,,,high,3,0,3,0,1,,,,,,,,,
293305,2022-12-05_22h39.00.900,vts_reward_expectancy_bt,2022.2.4,MacIntel,60.0024001,Chrome,1440,900,,,,,0,891,,,,,,,,,,,,,,,,,S,132,star,0,1,,,,,,,,,,,,,,,,repeat,letter,NA,d,0.0147,Hi,,,,,,3,,,,,,,,high,4,0,4,0,1,,,,,,,,,
293305,2022-12-05_22h39.00.900,vts_reward_expectancy_bt,2022.2.4,MacIntel,60.0024001,Chrome,1440,900,,,,,0,891,,,,,,,,,,,,,,,,,F,125,triangle,0,1,,,,,,,,,,,,,,,,repeat,letter,NA,f,0.1878,Hi,,,,,,3,,,,,,,,high,5,0,5,0,1,,,,,,,,,
293305,2022-12-05_22h39.00.900,vts_reward_expectancy_bt,2022.2.4,MacIntel,60.0024001,Chrome,1440,900,,,,,0,891,,,,,,,,,,,,,,,,,W,139,hexagon,0,1,,,,,,,,,,,,,,,,switch,number,NA,k,0.1813,Hi,,,,,,3,,,,,,,,high,6,0,6,0,1,,,,,,,,,
293305,2022-12-05_22h39.00.900,vts_reward_expectancy_bt,2022.2.4,MacIntel,60.0024001,Chrome,1440,900,,,,,0,891,,,,,,,,,,,,,,,,,D,167,circle,0,1,,,,,,,,,,,,,,,,switch,letter,NA,f,0.113,Hi,,,,,,3,,,,,,,,high,7,0,7,0,1,,,,,,,,,
293305,2022-12-05_22h39.00.900,vts_reward_expectancy_bt,2022.2.4,MacIntel,60.0024001,Chrome,1440,900,,,,,0,891,,,,,,,,,,,,,,,,,H,174,hexagon,0,1,,,,,,,,,,,,,,,,repeat,letter,NA,f,0.2805,Hi,,,,,,3,,,,,,,,high,8,0,8,0,1,,,,,,,,,
293305,2022-12-05_22h39.00.900,vts_reward_expectancy_bt,2022.2.4,MacIntel,60.0024001,Chrome,1440,900,,,,,0,891,,,,,,,,,,,,,,,,,U,160,star,1,1,,,,,,,,,,,,,,,,switch,number,numSwt,k,0.6081,Hi,,,,,,3,,,,,,,,high,9,0,9,0,1,,,,,,,,,
293305,2022-12-05_22h39.00.900,vts_reward_expectancy_bt,2022.2.4,MacIntel,60.0024001,Chrome,1440,900,,,,,0,891,,,,,,,,,,,,,,,,,Y,181,circle,0,0,,,,,,,,,,,,,,,,repeat,number,NA,j,0.2887,Hi,,,,,,3,,,,,,,,high,10,0,10,0,1,,,,,,,,,
293305,2022-12-05_22h39.00.900,vts_reward_expectancy_bt,2022.2.4,MacIntel,60.0024001,Chrome,1440,900,,,,,0,891,,,,,,,,,,,,,,,,,B,146,triangle,1,1,,,,,,,,,,,,,,,,switch,letter,lettSwt,d,0.0632,Hi,,,,,,3,,,,,,,,high,11,0,11,0,1,,,,,,,,,
293305,2022-12-05_22h39.00.900,vts_reward_expectancy_bt,2022.2.4,MacIntel,60.0024001,Chrome,1440,900,,,,,1,892,,,,,,,,,,,,,,,,,S,132,circle,1,0,,,,,,,,,,,,,,,,repeat,letter,lettRpt,f,0.0004,Lo,,,,,,3,,,,,,,,high,12,0,12,0,1,,,,,,,,,
293305,2022-12-05_22h39.00.900,vts_reward_expectancy_bt,2022.2.4,MacIntel,60.0024001,Chrome,1440,900,,,,,0,892,,,,,,,,,,,,,,,,,F,125,triangle,0,0,,,,,,,,,,,,,,,,switch,number,NA,k,0.0003,Lo,,,,,,3,,,,,,,,high,13,0,13,0,1,,,,,,,,,
293305,2022-12-05_22h39.00.900,vts_reward_expectancy_bt,2022.2.4,MacIntel,60.0024001,Chrome,1440,900,,,,,0,892,,,,,,,,,,,,,,,,,W,139,star,0,1,,,,,,,,,,,,,,,,repeat,number,NA,k,0.0657,Lo,,,,,,3,,,,,,,,high,14,0,14,0,1,,,,,,,,,
293305,2022-12-05_22h39.00.900,vts_reward_expectancy_bt,2022.2.4,MacIntel,60.0024001,Chrome,1440,900,,,,,1,893,,,,,,,,,,,,,,,,,D,167,hexagon,1,1,,,,,,,,,,,,,,,,switch,letter,lettSwt,d,0.0521,Lo,,,,,,3,,,,,,,,high,15,0,15,0,1,,,,,,,,,
293305,2022-12-05_22h39.00.900,vts_reward_expectancy_bt,2022.2.4,MacIntel,60.0024001,Chrome,1440,900,,,,,0,893,,,,,,,,,,,,,,,,,Y,167,hexagon,0,0,,,,,,,,,,,,,,,,repeat,letter,NA,d,0.0387,Lo,,,,,,3,,,,,,,,high,16,0,16,0,1,,,,,,,,,
293305,2022-12-05_22h39.00.900,vts_reward_expectancy_bt,2022.2.4,MacIntel,60.0024001,Chrome,1440,900,,,,,0,893,,,,,,,,,,,,,,,,,D,146,star,1,1,,,,,,,,,,,,,,,,repeat,letter,lettRpt,d,0.0701,Hi,,,,,,3,,,,,,,,high,17,0,17,0,1,,,,,,,,,
293305,2022-12-05_22h39.00.900,vts_reward_expectancy_bt,2022.2.4,MacIntel,60.0024001,Chrome,1440,900,,,,,0,893,,,,,,,,,,,,,,,,,U,174,triangle,0,0,,,,,,,,,,,,,,,,switch,number,NA,j,0.0144,Hi,,,,,,3,,,,,,,,high,18,0,18,0,1,,,,,,,,,
293305,2022-12-05_22h39.00.900,vts_reward_expectancy_bt,2022.2.4,MacIntel,60.0024001,Chrome,1440,900,,,,,1,894,,,,,,,,,,,,,,,,,H,132,circle,1,1,,,,,,,,,,,,,,,,repeat,number,numRpt,j,2.2139,Lo,,,,,,3,,,,,,,,high,19,0,19,0,1,,,,,,,,,
293305,2022-12-05_22h39.00.900,vts_reward_expectancy_bt,2022.2.4,MacIntel,60.0024001,Chrome,1440,900,,,,,0,894,,,,,,,,,,,,,,,,,W,139,circle,0,0,,,,,,,,,,,,,,,,switch,letter,NA,d,0.0003,Lo,,,,,,3,,,,,,,,high,20,0,20,0,1,,,,,,,,,
293305,2022-12-05_22h39.00.900,vts_reward_expectancy_bt,2022.2.4,MacIntel,60.0024001,Chrome,1440,900,,,,,0,894,,,,,,,,,,,,,,,,,S,181,triangle,0,1,,,,,,,,,,,,,,,,switch,number,NA,j,0.0304,Lo,,,,,,3,,,,,,,,high,21,0,21,0,1,,,,,,,,,
293305,2022-12-05_22h39.00.900,vts_reward_expectancy_bt,2022.2.4,MacIntel,60.0024001,Chrome,1440,900,,,,,1,895,,,,,,,,,,,,,,,,,F,125,hexagon,1,1,,,,,,,,,,,,,,,,switch,letter,lettSwt,d,0.0858,Lo,,,,,,3,,,,,,,,high,22,0,22,0,1,,,,,,,,,
293305,2022-12-05_22h39.00.900,vts_reward_expectancy_bt,2022.2.4,MacIntel,60.0024001,Chrome,1440,900,,,,,0,895,,,,,,,,,,,,,,,,,B,160,star,1,0,,,,,,,,,,,,,,,,repeat,letter,lettRpt,d,0.165,Hi,,,,,,3,,,,,,,,high,23,0,23,0,1,,,,,,,,,
293305,2022-12-05_22h39.00.900,vts_reward_expectancy_bt,2022.2.4,MacIntel,60.0024001,Chrome,1440,900,,,,,1,896,,,,,,,,,,,,,,,,,S,125,hexagon,1,0,,,,,,,,,,,,,,,,switch,number,numSwt,j,0.0288,Lo,,,,,,3,,,,,,,,high,24,0,24,0,1,,,,,,,,,
293305,2022-12-05_22h39.00.900,vts_reward_expectancy_bt,2022.2.4,MacIntel,60.0024001,Chrome,1440,900,,,,,10,906,,,,,,,,,,,,,,,,,D,174,triangle,1,0,,,,,,,,,,,,,,,,repeat,number,numRpt,k,0.0954,Hi,,,,,,3,,,,,,,,high,25,0,25,0,1,,,,,,,,,
293305,2022-12-05_22h39.00.900,vts_reward_expectancy_bt,2022.2.4,MacIntel,60.0024001,Chrome,1440,900,,,,,0,906,,,,,,,,,,,,,,,,,F,181,circle,0,0,,,,,,,,,,,,,,,,repeat,number,NA,j,0.0021,Hi,,,,,,3,,,,,,,,high,26,0,26,0,1,,,,,,,,,
293305,2022-12-05_22h39.00.900,vts_reward_expectancy_bt,2022.2.4,MacIntel,60.0024001,Chrome,1440,900,,,,,1,907,,,,,,,,,,,,,,,,,B,160,star,1,1,,,,,,,,,,,,,,,,repeat,number,numRpt,k,0.0289,Hi,,,,,,3,,,,,,,,high,27,0,27,0,1,,,,,,,,,
293305,2022-12-05_22h39.00.900,vts_reward_expectancy_bt,2022.2.4,MacIntel,60.0024001,Chrome,1440,900,,,,,0,907,,,,,,,,,,,,,,,,,W,167,triangle,1,0,,,,,,,,,,,,,,,,switch,letter,lettSwt,f,0.0964,Hi,,,,,,3,,,,,,,,high,28,0,28,0,1,,,,,,,,,
293305,2022-12-05_22h39.00.900,vts_reward_expectancy_bt,2022.2.4,MacIntel,60.0024001,Chrome,1440,900,,,,,0,907,,,,,,,,,,,,,,,,,Y,132,hexagon,0,0,,,,,,,,,,,,,,,,repeat,letter,NA,d,0.0312,Hi,,,,,,3,,,,,,,,high,29,0,29,0,1,,,,,,,,,
293305,2022-12-05_22h39.00.900,vts_reward_expectancy_bt,2022.2.4,MacIntel,60.0024001,Chrome,1440,900,,,,,0,907,,,,,,,,,,,,,,,,,U,146,star,0,1,,,,,,,,,,,,,,,,switch,number,NA,k,0.0532,Hi,,,,,,3,,,,,,,,high,30,0,30,0,1,,,,,,,,,
293305,2022-12-05_22h39.00.900,vts_reward_expectancy_bt,2022.2.4,MacIntel,60.0024001,Chrome,1440,900,,,,,0,907,,,,,,,,,,,,,,,,,H,139,circle,0,1,,,,,,,,,,,,,,,,repeat,number,NA,k,0.0833,Hi,,,,,,3,,,,,,,,high,31,0,31,0,1,,,,,,,,,
293305,2022-12-05_22h39.00.900,vts_reward_expectancy_bt,2022.2.4,MacIntel,60.0024001,Chrome,1440,900,,,,,10,917,,,,,,,,,,,,,,,,,D,139,hexagon,1,1,,,,,,,,,,,,,,,,switch,letter,lettSwt,d,0.0314,Lo,,,,,,4,,,,,,space,0.6428,high,0,0,0,0,1,,,,,,,,,
293305,2022-12-05_22h39.00.900,vts_reward_expectancy_bt,2022.2.4,MacIntel,60.0024001,Chrome,1440,900,,,,,0,917,,,,,,,,,,,,,,,,,U,132,circle,0,0,,,,,,,,,,,,,,,,repeat,letter,NA,d,0.0285,Lo,,,,,,4,,,,,,,,high,1,0,1,0,1,,,,,,,,,
293305,2022-12-05_22h39.00.900,vts_reward_expectancy_bt,2022.2.4,MacIntel,60.0024001,Chrome,1440,900,,,,,1,918,,,,,,,,,,,,,,,,,W,174,triangle,1,1,,,,,,,,,,,,,,,,switch,number,numSwt,k,0.0003,Hi,,,,,,4,,,,,,,,high,2,0,2,0,1,,,,,,,,,
293305,2022-12-05_22h39.00.900,vts_reward_expectancy_bt,2022.2.4,MacIntel,60.0024001,Chrome,1440,900,,,,,0,918,,,,,,,,,,,,,,,,,S,181,star,0,0,,,,,,,,,,,,,,,,repeat,number,NA,j,0.0119,Hi,,,,,,4,,,,,,,,high,3,0,3,0,1,,,,,,,,,
293305,2022-12-05_22h39.00.900,vts_reward_expectancy_bt,2022.2.4,MacIntel,60.0024001,Chrome,1440,900,,,,,0,918,,,,,,,,,,,,,,,,,H,125,hexagon,0,1,,,,,,,,,,,,,,,,switch,letter,NA,f,0.8511,Hi,,,,,,4,,,,,,,,high,4,0,4,0,1,,,,,,,,,
