participant,date,expName,psychopyVersion,OS,frameRate,browser,xResolution,yResolution,key_resp.keys,key_resp.rt,training_resp.keys,training_resp.rt,points_trial,points_cumul,trainBlock,training.thisRepN,training.thisTrialN,training.thisN,training.thisIndex,training.ran,LTriangleOpac,LCircleOpac,LHexagonOpac,LStarOpac,RTriangleOpac,RCircleOpac,RHexagonOpac,RStarOpac,LShape_ID,RShape_ID,curr_topStim,curr_bottStim,curr_shape,acc,E1,target_resp_prac1.keys,pracBlock,task1_prac_trials.thisRepN,task1_prac_trials.thisTrialN,task1_prac_trials.thisN,task1_prac_trials.thisIndex,task1_prac_trials.ran,target_resp_prac1.rt,target_resp_prac2.keys,target_resp_prac2.rt,task2_praac_trials.thisRepN,task2_praac_trials.thisTrialN,task2_praac_trials.thisN,task2_praac_trials.thisIndex,task2_praac_trials.ran,alt,task,condition,target_resp.keys,target_resp.rt,rewCond,vts_practice_trials.thisRepN,vts_practice_trials.thisTrialN,vts_practice_trials.thisN,vts_practice_trials.thisIndex,vts_practice_trials.ran,blockNum,trials_norew.thisRepN,trials_norew.thisTrialN,trials_norew.thisN,trials_norew.thisIndex,trials_norew.ran,key_resp_2.keys,key_resp_2.rt,rewExpectancy,trials_rew.thisRepN,trials_rew.thisTrialN,trials_rew.thisN,trials_rew.thisIndex,trials_rew.ran,Q1,Q2,Q2_text,Q3,Q4,Q5_text,Q5,xRes,yRes
293326,2022-12-05_12h34.40.609,vts_reward_expectancy_bt,2022.2.4,Win32,61.50439756,Chrome,1920,1080,,,,,,,,,,,,,,,,,,,,,,,,,,,,,,,,,,,,,,,,,,,,,,,,,,,,,,,,,,,,,,,,,,,,,,,,,,,,
293326,2022-12-05_12h34.40.609,vts_reward_expectancy_bt,2022.2.4,Win32,61.50439756,Chrome,1920,1080,space,6.9491,,,,,,,,,,,,,,,,,,,,,,,,,,,,,,,,,,,,,,,,,,,,,,,,,,,,,,,,,,,,,,,,,,,,,,,,,,
293326,2022-12-05_12h34.40.609,vts_reward_expectancy_bt,2022.2.4,Win32,61.50439756,Chrome,1920,1080,,,,,,,,,,,,,,,,,,,,,,,,,,,,,,,,,,,,,,,,,,,,,,,,,,,,,,,,,,,,,,,,,,,,,,,,,,,,
293326,2022-12-05_12h34.40.609,vts_reward_expectancy_bt,2022.2.4,Win32,61.50439756,Chrome,1920,1080,,,l,4.0974,1,1,0,0,0,0,6,1,0,0,1,0,1,0,0,0,hexagon,triangle,,,,,,,,,,,,,,,,,,,,,,,,,,,,,,,,,,,,,,,,,,,,,,,,,,,,,,
293326,2022-12-05_12h34.40.609,vts_reward_expectancy_bt,2022.2.4,Win32,61.50439756,Chrome,1920,1080,,,l,1.0075,1,2,0,0,1,1,8,1,0,0,1,0,0,0,0,1,hexagon,star,,,,,,,,,,,,,,,,,,,,,,,,,,,,,,,,,,,,,,,,,,,,,,,,,,,,,,
293326,2022-12-05_12h34.40.609,vts_reward_expectancy_bt,2022.2.4,Win32,61.50439756,Chrome,1920,1080,,,l,1.1071,1,3,0,0,2,2,11,1,0,0,0,1,0,0,1,0,star,hexagon,,,,,,,,,,,,,,,,,,,,,,,,,,,,,,,,,,,,,,,,,,,,,,,,,,,,,,
293326,2022-12-05_12h34.40.609,vts_reward_expectancy_bt,2022.2.4,Win32,61.50439756,Chrome,1920,1080,,,l,1.3254,1,4,0,0,3,3,4,1,0,1,0,0,0,0,1,0,circle,hexagon,,,,,,,,,,,,,,,,,,,,,,,,,,,,,,,,,,,,,,,,,,,,,,,,,,,,,,
293326,2022-12-05_12h34.40.609,vts_reward_expectancy_bt,2022.2.4,Win32,61.50439756,Chrome,1920,1080,,,a,0.4886,1,5,0,0,4,4,9,1,0,0,0,1,1,0,0,0,star,triangle,,,,,,,,,,,,,,,,,,,,,,,,,,,,,,,,,,,,,,,,,,,,,,,,,,,,,,
293326,2022-12-05_12h34.40.609,vts_reward_expectancy_bt,2022.2.4,Win32,61.50439756,Chrome,1920,1080,,,a,0.6677,10,15,0,0,5,5,5,1,0,1,0,0,0,0,0,1,circle,star,,,,,,,,,,,,,,,,,,,,,,,,,,,,,,,,,,,,,,,,,,,,,,,,,,,,,,
293326,2022-12-05_12h34.40.609,vts_reward_expectancy_bt,2022.2.4,Win32,61.50439756,Chrome,1920,1080,,,a,1.3698,10,25,0,0,6,6,0,1,1,0,0,0,0,1,0,0,triangle,circle,,,,,,,,,,,,,,,,,,,,,,,,,,,,,,,,,,,,,,,,,,,,,,,,,,,,,,
293326,2022-12-05_12h34.40.609,vts_reward_expectancy_bt,2022.2.4,Win32,61.50439756,Chrome,1920,1080,,,l,2.7866,1,26,0,0,7,7,7,1,0,0,1,0,0,1,0,0,hexagon,circle,,,,,,,,,,,,,,,,,,,,,,,,,,,,,,,,,,,,,,,,,,,,,,,,,,,,,,
293326,2022-12-05_12h34.40.609,vts_reward_expectancy_bt,2022.2.4,Win32,61.50439756,Chrome,1920,1080,,,l,1.3952,1,27,0,0,8,8,3,1,0,1,0,0,1,0,0,0,circle,triangle,,,,,,,,,,,,,,,,,,,,,,,,,,,,,,,,,,,,,,,,,,,,,,,,,,,,,,
293326,2022-12-05_12h34.40.609,vts_reward_expectancy_bt,2022.2.4,Win32,61.50439756,Chrome,1920,1080,,,l,1.3289,1,28,0,0,9,9,1,1,1,0,0,0,0,0,1,0,triangle,hexagon,,,,,,,,,,,,,,,,,,,,,,,,,,,,,,,,,,,,,,,,,,,,,,,,,,,,,,
293326,2022-12-05_12h34.40.609,vts_reward_expectancy_bt,2022.2.4,Win32,61.50439756,Chrome,1920,1080,,,a,0.3352,1,29,0,0,10,10,10,1,0,0,0,1,0,1,0,0,star ,circle,,,,,,,,,,,,,,,,,,,,,,,,,,,,,,,,,,,,,,,,,,,,,,,,,,,,,,
293326,2022-12-05_12h34.40.609,vts_reward_expectancy_bt,2022.2.4,Win32,61.50439756,Chrome,1920,1080,,,a,0.1819,1,30,0,0,11,11,2,1,1,0,0,0,0,0,0,1,triangle,star,,,,,,,,,,,,,,,,,,,,,,,,,,,,,,,,,,,,,,,,,,,,,,,,,,,,,,
293326,2022-12-05_12h34.40.609,vts_reward_expectancy_bt,2022.2.4,Win32,61.50439756,Chrome,1920,1080,,,l,0.3536,10,40,0,1,0,12,7,1,0,0,1,0,0,1,0,0,hexagon,circle,,,,,,,,,,,,,,,,,,,,,,,,,,,,,,,,,,,,,,,,,,,,,,,,,,,,,,
293326,2022-12-05_12h34.40.609,vts_reward_expectancy_bt,2022.2.4,Win32,61.50439756,Chrome,1920,1080,,,l,0.5594,1,41,0,1,1,13,3,1,0,1,0,0,1,0,0,0,circle,triangle,,,,,,,,,,,,,,,,,,,,,,,,,,,,,,,,,,,,,,,,,,,,,,,,,,,,,,
293326,2022-12-05_12h34.40.609,vts_reward_expectancy_bt,2022.2.4,Win32,61.50439756,Chrome,1920,1080,,,a,0.2621,10,51,0,1,2,14,0,1,1,0,0,0,0,1,0,0,triangle,circle,,,,,,,,,,,,,,,,,,,,,,,,,,,,,,,,,,,,,,,,,,,,,,,,,,,,,,
293326,2022-12-05_12h34.40.609,vts_reward_expectancy_bt,2022.2.4,Win32,61.50439756,Chrome,1920,1080,,,l,0.3177,10,61,0,1,3,15,6,1,0,0,1,0,1,0,0,0,hexagon,triangle,,,,,,,,,,,,,,,,,,,,,,,,,,,,,,,,,,,,,,,,,,,,,,,,,,,,,,
293326,2022-12-05_12h34.40.609,vts_reward_expectancy_bt,2022.2.4,Win32,61.50439756,Chrome,1920,1080,,,a,0.3047,1,62,0,1,4,16,11,1,0,0,0,1,0,0,1,0,star,hexagon,,,,,,,,,,,,,,,,,,,,,,,,,,,,,,,,,,,,,,,,,,,,,,,,,,,,,,
293326,2022-12-05_12h34.40.609,vts_reward_expectancy_bt,2022.2.4,Win32,61.50439756,Chrome,1920,1080,,,l,0.785,10,72,0,1,5,17,2,1,1,0,0,0,0,0,0,1,triangle,star,,,,,,,,,,,,,,,,,,,,,,,,,,,,,,,,,,,,,,,,,,,,,,,,,,,,,,
293326,2022-12-05_12h34.40.609,vts_reward_expectancy_bt,2022.2.4,Win32,61.50439756,Chrome,1920,1080,,,l,0.4223,10,82,0,1,6,18,10,1,0,0,0,1,0,1,0,0,star ,circle,,,,,,,,,,,,,,,,,,,,,,,,,,,,,,,,,,,,,,,,,,,,,,,,,,,,,,
293326,2022-12-05_12h34.40.609,vts_reward_expectancy_bt,2022.2.4,Win32,61.50439756,Chrome,1920,1080,,,a,0.3685,1,83,0,1,7,19,8,1,0,0,1,0,0,0,0,1,hexagon,star,,,,,,,,,,,,,,,,,,,,,,,,,,,,,,,,,,,,,,,,,,,,,,,,,,,,,,
293326,2022-12-05_12h34.40.609,vts_reward_expectancy_bt,2022.2.4,Win32,61.50439756,Chrome,1920,1080,,,a,0.2911,10,93,0,1,8,20,4,1,0,1,0,0,0,0,1,0,circle,hexagon,,,,,,,,,,,,,,,,,,,,,,,,,,,,,,,,,,,,,,,,,,,,,,,,,,,,,,
293326,2022-12-05_12h34.40.609,vts_reward_expectancy_bt,2022.2.4,Win32,61.50439756,Chrome,1920,1080,,,a,0.3788,10,103,0,1,9,21,1,1,1,0,0,0,0,0,1,0,triangle,hexagon,,,,,,,,,,,,,,,,,,,,,,,,,,,,,,,,,,,,,,,,,,,,,,,,,,,,,,
293326,2022-12-05_12h34.40.609,vts_reward_expectancy_bt,2022.2.4,Win32,61.50439756,Chrome,1920,1080,,,a,0.3023,10,113,0,1,10,22,5,1,0,1,0,0,0,0,0,1,circle,star,,,,,,,,,,,,,,,,,,,,,,,,,,,,,,,,,,,,,,,,,,,,,,,,,,,,,,
293326,2022-12-05_12h34.40.609,vts_reward_expectancy_bt,2022.2.4,Win32,61.50439756,Chrome,1920,1080,,,a,0.4182,1,114,0,1,11,23,9,1,0,0,0,1,1,0,0,0,star,triangle,,,,,,,,,,,,,,,,,,,,,,,,,,,,,,,,,,,,,,,,,,,,,,,,,,,,,,
293326,2022-12-05_12h34.40.609,vts_reward_expectancy_bt,2022.2.4,Win32,61.50439756,Chrome,1920,1080,,,a,0.3011,10,124,0,2,0,24,0,1,1,0,0,0,0,1,0,0,triangle,circle,,,,,,,,,,,,,,,,,,,,,,,,,,,,,,,,,,,,,,,,,,,,,,,,,,,,,,
293326,2022-12-05_12h34.40.609,vts_reward_expectancy_bt,2022.2.4,Win32,61.50439756,Chrome,1920,1080,,,l,0.3015,10,134,0,2,1,25,7,1,0,0,1,0,0,1,0,0,hexagon,circle,,,,,,,,,,,,,,,,,,,,,,,,,,,,,,,,,,,,,,,,,,,,,,,,,,,,,,
293326,2022-12-05_12h34.40.609,vts_reward_expectancy_bt,2022.2.4,Win32,61.50439756,Chrome,1920,1080,,,a,0.2964,1,135,0,2,2,26,1,1,1,0,0,0,0,0,1,0,triangle,hexagon,,,,,,,,,,,,,,,,,,,,,,,,,,,,,,,,,,,,,,,,,,,,,,,,,,,,,,
293326,2022-12-05_12h34.40.609,vts_reward_expectancy_bt,2022.2.4,Win32,61.50439756,Chrome,1920,1080,,,l,0.3014,10,145,0,2,3,27,6,1,0,0,1,0,1,0,0,0,hexagon,triangle,,,,,,,,,,,,,,,,,,,,,,,,,,,,,,,,,,,,,,,,,,,,,,,,,,,,,,
293326,2022-12-05_12h34.40.609,vts_reward_expectancy_bt,2022.2.4,Win32,61.50439756,Chrome,1920,1080,,,a,0.4117,1,146,0,2,4,28,8,1,0,0,1,0,0,0,0,1,hexagon,star,,,,,,,,,,,,,,,,,,,,,,,,,,,,,,,,,,,,,,,,,,,,,,,,,,,,,,
293326,2022-12-05_12h34.40.609,vts_reward_expectancy_bt,2022.2.4,Win32,61.50439756,Chrome,1920,1080,,,a,0.201,1,147,0,2,5,29,10,1,0,0,0,1,0,1,0,0,star ,circle,,,,,,,,,,,,,,,,,,,,,,,,,,,,,,,,,,,,,,,,,,,,,,,,,,,,,,
293326,2022-12-05_12h34.40.609,vts_reward_expectancy_bt,2022.2.4,Win32,61.50439756,Chrome,1920,1080,,,l,0.077,1,148,0,2,6,30,2,1,1,0,0,0,0,0,0,1,triangle,star,,,,,,,,,,,,,,,,,,,,,,,,,,,,,,,,,,,,,,,,,,,,,,,,,,,,,,
293326,2022-12-05_12h34.40.609,vts_reward_expectancy_bt,2022.2.4,Win32,61.50439756,Chrome,1920,1080,,,a,0.6354,10,158,0,2,7,31,9,1,0,0,0,1,1,0,0,0,star,triangle,,,,,,,,,,,,,,,,,,,,,,,,,,,,,,,,,,,,,,,,,,,,,,,,,,,,,,
293326,2022-12-05_12h34.40.609,vts_reward_expectancy_bt,2022.2.4,Win32,61.50439756,Chrome,1920,1080,,,l,0.1645,1,159,0,2,8,32,4,1,0,1,0,0,0,0,1,0,circle,hexagon,,,,,,,,,,,,,,,,,,,,,,,,,,,,,,,,,,,,,,,,,,,,,,,,,,,,,,
293326,2022-12-05_12h34.40.609,vts_reward_expectancy_bt,2022.2.4,Win32,61.50439756,Chrome,1920,1080,,,a,1.9367,10,169,0,2,9,33,11,1,0,0,0,1,0,0,1,0,star,hexagon,,,,,,,,,,,,,,,,,,,,,,,,,,,,,,,,,,,,,,,,,,,,,,,,,,,,,,
293326,2022-12-05_12h34.40.609,vts_reward_expectancy_bt,2022.2.4,Win32,61.50439756,Chrome,1920,1080,,,a,0.3625,10,179,0,2,10,34,5,1,0,1,0,0,0,0,0,1,circle,star,,,,,,,,,,,,,,,,,,,,,,,,,,,,,,,,,,,,,,,,,,,,,,,,,,,,,,
293326,2022-12-05_12h34.40.609,vts_reward_expectancy_bt,2022.2.4,Win32,61.50439756,Chrome,1920,1080,,,a,1.1783,1,180,0,2,11,35,3,1,0,1,0,0,1,0,0,0,circle,triangle,,,,,,,,,,,,,,,,,,,,,,,,,,,,,,,,,,,,,,,,,,,,,,,,,,,,,,
293326,2022-12-05_12h34.40.609,vts_reward_expectancy_bt,2022.2.4,Win32,61.50439756,Chrome,1920,1080,,,a,1.3068,1,181,1,0,0,0,10,1,0,0,0,1,0,1,0,0,star ,circle,,,,,,,,,,,,,,,,,,,,,,,,,,,,,,,,,,,,,,,,,,,,,,,,,,,,,,
293326,2022-12-05_12h34.40.609,vts_reward_expectancy_bt,2022.2.4,Win32,61.50439756,Chrome,1920,1080,,,l,0.3204,10,191,1,0,1,1,7,1,0,0,1,0,0,1,0,0,hexagon,circle,,,,,,,,,,,,,,,,,,,,,,,,,,,,,,,,,,,,,,,,,,,,,,,,,,,,,,
293326,2022-12-05_12h34.40.609,vts_reward_expectancy_bt,2022.2.4,Win32,61.50439756,Chrome,1920,1080,,,a,0.2245,10,201,1,0,2,2,4,1,0,1,0,0,0,0,1,0,circle,hexagon,,,,,,,,,,,,,,,,,,,,,,,,,,,,,,,,,,,,,,,,,,,,,,,,,,,,,,
293326,2022-12-05_12h34.40.609,vts_reward_expectancy_bt,2022.2.4,Win32,61.50439756,Chrome,1920,1080,,,l,0.3415,10,211,1,0,3,3,9,1,0,0,0,1,1,0,0,0,star,triangle,,,,,,,,,,,,,,,,,,,,,,,,,,,,,,,,,,,,,,,,,,,,,,,,,,,,,,
293326,2022-12-05_12h34.40.609,vts_reward_expectancy_bt,2022.2.4,Win32,61.50439756,Chrome,1920,1080,,,a,0.3063,10,221,1,0,4,4,3,1,0,1,0,0,1,0,0,0,circle,triangle,,,,,,,,,,,,,,,,,,,,,,,,,,,,,,,,,,,,,,,,,,,,,,,,,,,,,,
293326,2022-12-05_12h34.40.609,vts_reward_expectancy_bt,2022.2.4,Win32,61.50439756,Chrome,1920,1080,,,l,0.265,10,231,1,0,5,5,6,1,0,0,1,0,1,0,0,0,hexagon,triangle,,,,,,,,,,,,,,,,,,,,,,,,,,,,,,,,,,,,,,,,,,,,,,,,,,,,,,
293326,2022-12-05_12h34.40.609,vts_reward_expectancy_bt,2022.2.4,Win32,61.50439756,Chrome,1920,1080,,,a,0.3652,10,241,1,0,6,6,2,1,1,0,0,0,0,0,0,1,triangle,star,,,,,,,,,,,,,,,,,,,,,,,,,,,,,,,,,,,,,,,,,,,,,,,,,,,,,,
293326,2022-12-05_12h34.40.609,vts_reward_expectancy_bt,2022.2.4,Win32,61.50439756,Chrome,1920,1080,,,l,0.2819,1,242,1,0,7,7,1,1,1,0,0,0,0,0,1,0,triangle,hexagon,,,,,,,,,,,,,,,,,,,,,,,,,,,,,,,,,,,,,,,,,,,,,,,,,,,,,,
293326,2022-12-05_12h34.40.609,vts_reward_expectancy_bt,2022.2.4,Win32,61.50439756,Chrome,1920,1080,,,a,0.3489,1,243,1,0,8,8,11,1,0,0,0,1,0,0,1,0,star,hexagon,,,,,,,,,,,,,,,,,,,,,,,,,,,,,,,,,,,,,,,,,,,,,,,,,,,,,,
293326,2022-12-05_12h34.40.609,vts_reward_expectancy_bt,2022.2.4,Win32,61.50439756,Chrome,1920,1080,,,l,0.2488,1,244,1,0,9,9,0,1,1,0,0,0,0,1,0,0,triangle,circle,,,,,,,,,,,,,,,,,,,,,,,,,,,,,,,,,,,,,,,,,,,,,,,,,,,,,,
293326,2022-12-05_12h34.40.609,vts_reward_expectancy_bt,2022.2.4,Win32,61.50439756,Chrome,1920,1080,,,l,0.3296,1,245,1,0,10,10,8,1,0,0,1,0,0,0,0,1,hexagon,star,,,,,,,,,,,,,,,,,,,,,,,,,,,,,,,,,,,,,,,,,,,,,,,,,,,,,,
293326,2022-12-05_12h34.40.609,vts_reward_expectancy_bt,2022.2.4,Win32,61.50439756,Chrome,1920,1080,,,l,0.3354,10,255,1,0,11,11,5,1,0,1,0,0,0,0,0,1,circle,star,,,,,,,,,,,,,,,,,,,,,,,,,,,,,,,,,,,,,,,,,,,,,,,,,,,,,,
293326,2022-12-05_12h34.40.609,vts_reward_expectancy_bt,2022.2.4,Win32,61.50439756,Chrome,1920,1080,,,a,0.4424,1,256,1,1,0,12,5,1,0,1,0,0,0,0,0,1,circle,star,,,,,,,,,,,,,,,,,,,,,,,,,,,,,,,,,,,,,,,,,,,,,,,,,,,,,,
293326,2022-12-05_12h34.40.609,vts_reward_expectancy_bt,2022.2.4,Win32,61.50439756,Chrome,1920,1080,,,l,0.3252,1,257,1,1,1,13,7,1,0,0,1,0,0,1,0,0,hexagon,circle,,,,,,,,,,,,,,,,,,,,,,,,,,,,,,,,,,,,,,,,,,,,,,,,,,,,,,
293326,2022-12-05_12h34.40.609,vts_reward_expectancy_bt,2022.2.4,Win32,61.50439756,Chrome,1920,1080,,,a,0.0854,10,267,1,1,2,14,3,1,0,1,0,0,1,0,0,0,circle,triangle,,,,,,,,,,,,,,,,,,,,,,,,,,,,,,,,,,,,,,,,,,,,,,,,,,,,,,
293326,2022-12-05_12h34.40.609,vts_reward_expectancy_bt,2022.2.4,Win32,61.50439756,Chrome,1920,1080,,,a,0.368,10,277,1,1,3,15,1,1,1,0,0,0,0,0,1,0,triangle,hexagon,,,,,,,,,,,,,,,,,,,,,,,,,,,,,,,,,,,,,,,,,,,,,,,,,,,,,,
293326,2022-12-05_12h34.40.609,vts_reward_expectancy_bt,2022.2.4,Win32,61.50439756,Chrome,1920,1080,,,l,0.2616,1,278,1,1,4,16,8,1,0,0,1,0,0,0,0,1,hexagon,star,,,,,,,,,,,,,,,,,,,,,,,,,,,,,,,,,,,,,,,,,,,,,,,,,,,,,,
293326,2022-12-05_12h34.40.609,vts_reward_expectancy_bt,2022.2.4,Win32,61.50439756,Chrome,1920,1080,,,a,0.2531,10,288,1,1,5,17,2,1,1,0,0,0,0,0,0,1,triangle,star,,,,,,,,,,,,,,,,,,,,,,,,,,,,,,,,,,,,,,,,,,,,,,,,,,,,,,
293326,2022-12-05_12h34.40.609,vts_reward_expectancy_bt,2022.2.4,Win32,61.50439756,Chrome,1920,1080,,,l,0.0345,1,289,1,1,6,18,4,1,0,1,0,0,0,0,1,0,circle,hexagon,,,,,,,,,,,,,,,,,,,,,,,,,,,,,,,,,,,,,,,,,,,,,,,,,,,,,,
293326,2022-12-05_12h34.40.609,vts_reward_expectancy_bt,2022.2.4,Win32,61.50439756,Chrome,1920,1080,,,l,0.1715,10,299,1,1,7,19,6,1,0,0,1,0,1,0,0,0,hexagon,triangle,,,,,,,,,,,,,,,,,,,,,,,,,,,,,,,,,,,,,,,,,,,,,,,,,,,,,,
293326,2022-12-05_12h34.40.609,vts_reward_expectancy_bt,2022.2.4,Win32,61.50439756,Chrome,1920,1080,,,a,0.8524,10,309,1,1,8,20,0,1,1,0,0,0,0,1,0,0,triangle,circle,,,,,,,,,,,,,,,,,,,,,,,,,,,,,,,,,,,,,,,,,,,,,,,,,,,,,,
293326,2022-12-05_12h34.40.609,vts_reward_expectancy_bt,2022.2.4,Win32,61.50439756,Chrome,1920,1080,,,l,0.2348,10,319,1,1,9,21,10,1,0,0,0,1,0,1,0,0,star ,circle,,,,,,,,,,,,,,,,,,,,,,,,,,,,,,,,,,,,,,,,,,,,,,,,,,,,,,
293326,2022-12-05_12h34.40.609,vts_reward_expectancy_bt,2022.2.4,Win32,61.50439756,Chrome,1920,1080,,,a,0.3452,1,320,1,1,10,22,9,1,0,0,0,1,1,0,0,0,star,triangle,,,,,,,,,,,,,,,,,,,,,,,,,,,,,,,,,,,,,,,,,,,,,,,,,,,,,,
293326,2022-12-05_12h34.40.609,vts_reward_expectancy_bt,2022.2.4,Win32,61.50439756,Chrome,1920,1080,,,l,0.0925,10,330,1,1,11,23,11,1,0,0,0,1,0,0,1,0,star,hexagon,,,,,,,,,,,,,,,,,,,,,,,,,,,,,,,,,,,,,,,,,,,,,,,,,,,,,,
293326,2022-12-05_12h34.40.609,vts_reward_expectancy_bt,2022.2.4,Win32,61.50439756,Chrome,1920,1080,,,l,0.2843,10,340,1,2,0,24,1,1,1,0,0,0,0,0,1,0,triangle,hexagon,,,,,,,,,,,,,,,,,,,,,,,,,,,,,,,,,,,,,,,,,,,,,,,,,,,,,,
293326,2022-12-05_12h34.40.609,vts_reward_expectancy_bt,2022.2.4,Win32,61.50439756,Chrome,1920,1080,,,l,0.0235,1,341,1,2,1,25,5,1,0,1,0,0,0,0,0,1,circle,star,,,,,,,,,,,,,,,,,,,,,,,,,,,,,,,,,,,,,,,,,,,,,,,,,,,,,,
293326,2022-12-05_12h34.40.609,vts_reward_expectancy_bt,2022.2.4,Win32,61.50439756,Chrome,1920,1080,,,a,0.0677,1,342,1,2,2,26,6,1,0,0,1,0,1,0,0,0,hexagon,triangle,,,,,,,,,,,,,,,,,,,,,,,,,,,,,,,,,,,,,,,,,,,,,,,,,,,,,,
293326,2022-12-05_12h34.40.609,vts_reward_expectancy_bt,2022.2.4,Win32,61.50439756,Chrome,1920,1080,,,l,0.1414,1,343,1,2,3,27,3,1,0,1,0,0,1,0,0,0,circle,triangle,,,,,,,,,,,,,,,,,,,,,,,,,,,,,,,,,,,,,,,,,,,,,,,,,,,,,,
293326,2022-12-05_12h34.40.609,vts_reward_expectancy_bt,2022.2.4,Win32,61.50439756,Chrome,1920,1080,,,a,0.1345,1,344,1,2,4,28,7,1,0,0,1,0,0,1,0,0,hexagon,circle,,,,,,,,,,,,,,,,,,,,,,,,,,,,,,,,,,,,,,,,,,,,,,,,,,,,,,
293326,2022-12-05_12h34.40.609,vts_reward_expectancy_bt,2022.2.4,Win32,61.50439756,Chrome,1920,1080,,,l,0.0508,1,345,1,2,5,29,4,1,0,1,0,0,0,0,1,0,circle,hexagon,,,,,,,,,,,,,,,,,,,,,,,,,,,,,,,,,,,,,,,,,,,,,,,,,,,,,,
293326,2022-12-05_12h34.40.609,vts_reward_expectancy_bt,2022.2.4,Win32,61.50439756,Chrome,1920,1080,,,l,0.2188,1,346,1,2,6,30,10,1,0,0,0,1,0,1,0,0,star ,circle,,,,,,,,,,,,,,,,,,,,,,,,,,,,,,,,,,,,,,,,,,,,,,,,,,,,,,
293326,2022-12-05_12h34.40.609,vts_reward_expectancy_bt,2022.2.4,Win32,61.50439756,Chrome,1920,1080,,,a,0.0268,1,347,1,2,7,31,9,1,0,0,0,1,1,0,0,0,star,triangle,,,,,,,,,,,,,,,,,,,,,,,,,,,,,,,,,,,,,,,,,,,,,,,,,,,,,,
293326,2022-12-05_12h34.40.609,vts_reward_expectancy_bt,2022.2.4,Win32,61.50439756,Chrome,1920,1080,,,l,0.0863,10,357,1,2,8,32,11,1,0,0,0,1,0,0,1,0,star,hexagon,,,,,,,,,,,,,,,,,,,,,,,,,,,,,,,,,,,,,,,,,,,,,,,,,,,,,,
293326,2022-12-05_12h34.40.609,vts_reward_expectancy_bt,2022.2.4,Win32,61.50439756,Chrome,1920,1080,,,l,0.3845,1,358,1,2,9,33,2,1,1,0,0,0,0,0,0,1,triangle,star,,,,,,,,,,,,,,,,,,,,,,,,,,,,,,,,,,,,,,,,,,,,,,,,,,,,,,
293326,2022-12-05_12h34.40.609,vts_reward_expectancy_bt,2022.2.4,Win32,61.50439756,Chrome,1920,1080,,,a,0.3785,10,368,1,2,10,34,8,1,0,0,1,0,0,0,0,1,hexagon,star,,,,,,,,,,,,,,,,,,,,,,,,,,,,,,,,,,,,,,,,,,,,,,,,,,,,,,
293326,2022-12-05_12h34.40.609,vts_reward_expectancy_bt,2022.2.4,Win32,61.50439756,Chrome,1920,1080,,,a,0.4579,1,369,1,2,11,35,0,1,1,0,0,0,0,1,0,0,triangle,circle,,,,,,,,,,,,,,,,,,,,,,,,,,,,,,,,,,,,,,,,,,,,,,,,,,,,,,
293326,2022-12-05_12h34.40.609,vts_reward_expectancy_bt,2022.2.4,Win32,61.50439756,Chrome,1920,1080,,,a,2.4413,10,379,2,0,0,0,4,1,0,1,0,0,0,0,1,0,circle,hexagon,,,,,,,,,,,,,,,,,,,,,,,,,,,,,,,,,,,,,,,,,,,,,,,,,,,,,,
293326,2022-12-05_12h34.40.609,vts_reward_expectancy_bt,2022.2.4,Win32,61.50439756,Chrome,1920,1080,,,a,1.1971,1,380,2,0,1,1,5,1,0,1,0,0,0,0,0,1,circle,star,,,,,,,,,,,,,,,,,,,,,,,,,,,,,,,,,,,,,,,,,,,,,,,,,,,,,,
293326,2022-12-05_12h34.40.609,vts_reward_expectancy_bt,2022.2.4,Win32,61.50439756,Chrome,1920,1080,,,a,4.7628,1,381,2,0,2,2,9,1,0,0,0,1,1,0,0,0,star,triangle,,,,,,,,,,,,,,,,,,,,,,,,,,,,,,,,,,,,,,,,,,,,,,,,,,,,,,
293326,2022-12-05_12h34.40.609,vts_reward_expectancy_bt,2022.2.4,Win32,61.50439756,Chrome,1920,1080,,,l,2.0804,10,391,2,0,3,3,2,1,1,0,0,0,0,0,0,1,triangle,star,,,,,,,,,,,,,,,,,,,,,,,,,,,,,,,,,,,,,,,,,,,,,,,,,,,,,,
293326,2022-12-05_12h34.40.609,vts_reward_expectancy_bt,2022.2.4,Win32,61.50439756,Chrome,1920,1080,,,a,2.0867,1,392,2,0,4,4,11,1,0,0,0,1,0,0,1,0,star,hexagon,,,,,,,,,,,,,,,,,,,,,,,,,,,,,,,,,,,,,,,,,,,,,,,,,,,,,,
293326,2022-12-05_12h34.40.609,vts_reward_expectancy_bt,2022.2.4,Win32,61.50439756,Chrome,1920,1080,,,l,1.0549,1,393,2,0,5,5,0,1,1,0,0,0,0,1,0,0,triangle,circle,,,,,,,,,,,,,,,,,,,,,,,,,,,,,,,,,,,,,,,,,,,,,,,,,,,,,,
293326,2022-12-05_12h34.40.609,vts_reward_expectancy_bt,2022.2.4,Win32,61.50439756,Chrome,1920,1080,,,l,0.7572,10,403,2,0,6,6,7,1,0,0,1,0,0,1,0,0,hexagon,circle,,,,,,,,,,,,,,,,,,,,,,,,,,,,,,,,,,,,,,,,,,,,,,,,,,,,,,
293326,2022-12-05_12h34.40.609,vts_reward_expectancy_bt,2022.2.4,Win32,61.50439756,Chrome,1920,1080,,,l,1.0841,10,413,2,0,7,7,6,1,0,0,1,0,1,0,0,0,hexagon,triangle,,,,,,,,,,,,,,,,,,,,,,,,,,,,,,,,,,,,,,,,,,,,,,,,,,,,,,
293326,2022-12-05_12h34.40.609,vts_reward_expectancy_bt,2022.2.4,Win32,61.50439756,Chrome,1920,1080,,,l,1.539,1,414,2,0,8,8,8,1,0,0,1,0,0,0,0,1,hexagon,star,,,,,,,,,,,,,,,,,,,,,,,,,,,,,,,,,,,,,,,,,,,,,,,,,,,,,,
293326,2022-12-05_12h34.40.609,vts_reward_expectancy_bt,2022.2.4,Win32,61.50439756,Chrome,1920,1080,,,a,1.1178,10,424,2,0,9,9,3,1,0,1,0,0,1,0,0,0,circle,triangle,,,,,,,,,,,,,,,,,,,,,,,,,,,,,,,,,,,,,,,,,,,,,,,,,,,,,,
293326,2022-12-05_12h34.40.609,vts_reward_expectancy_bt,2022.2.4,Win32,61.50439756,Chrome,1920,1080,,,l,1.8483,1,425,2,0,10,10,10,1,0,0,0,1,0,1,0,0,star ,circle,,,,,,,,,,,,,,,,,,,,,,,,,,,,,,,,,,,,,,,,,,,,,,,,,,,,,,
293326,2022-12-05_12h34.40.609,vts_reward_expectancy_bt,2022.2.4,Win32,61.50439756,Chrome,1920,1080,,,l,1.5798,10,435,2,0,11,11,1,1,1,0,0,0,0,0,1,0,triangle,hexagon,,,,,,,,,,,,,,,,,,,,,,,,,,,,,,,,,,,,,,,,,,,,,,,,,,,,,,
293326,2022-12-05_12h34.40.609,vts_reward_expectancy_bt,2022.2.4,Win32,61.50439756,Chrome,1920,1080,,,l,1.1171,10,445,2,1,0,12,6,1,0,0,1,0,1,0,0,0,hexagon,triangle,,,,,,,,,,,,,,,,,,,,,,,,,,,,,,,,,,,,,,,,,,,,,,,,,,,,,,
293326,2022-12-05_12h34.40.609,vts_reward_expectancy_bt,2022.2.4,Win32,61.50439756,Chrome,1920,1080,,,a,1.189,1,446,2,1,1,13,11,1,0,0,0,1,0,0,1,0,star,hexagon,,,,,,,,,,,,,,,,,,,,,,,,,,,,,,,,,,,,,,,,,,,,,,,,,,,,,,
293326,2022-12-05_12h34.40.609,vts_reward_expectancy_bt,2022.2.4,Win32,61.50439756,Chrome,1920,1080,,,l,2.5141,10,456,2,1,2,14,9,1,0,0,0,1,1,0,0,0,star,triangle,,,,,,,,,,,,,,,,,,,,,,,,,,,,,,,,,,,,,,,,,,,,,,,,,,,,,,
293326,2022-12-05_12h34.40.609,vts_reward_expectancy_bt,2022.2.4,Win32,61.50439756,Chrome,1920,1080,,,a,1.0954,1,457,2,1,3,15,4,1,0,1,0,0,0,0,1,0,circle,hexagon,,,,,,,,,,,,,,,,,,,,,,,,,,,,,,,,,,,,,,,,,,,,,,,,,,,,,,
293326,2022-12-05_12h34.40.609,vts_reward_expectancy_bt,2022.2.4,Win32,61.50439756,Chrome,1920,1080,,,a,1.1021,1,458,2,1,4,16,8,1,0,0,1,0,0,0,0,1,hexagon,star,,,,,,,,,,,,,,,,,,,,,,,,,,,,,,,,,,,,,,,,,,,,,,,,,,,,,,
293326,2022-12-05_12h34.40.609,vts_reward_expectancy_bt,2022.2.4,Win32,61.50439756,Chrome,1920,1080,,,a,1.7034,1,459,2,1,5,17,10,1,0,0,0,1,0,1,0,0,star ,circle,,,,,,,,,,,,,,,,,,,,,,,,,,,,,,,,,,,,,,,,,,,,,,,,,,,,,,
293326,2022-12-05_12h34.40.609,vts_reward_expectancy_bt,2022.2.4,Win32,61.50439756,Chrome,1920,1080,,,l,0.1121,10,469,2,1,6,18,1,1,1,0,0,0,0,0,1,0,triangle,hexagon,,,,,,,,,,,,,,,,,,,,,,,,,,,,,,,,,,,,,,,,,,,,,,,,,,,,,,
293326,2022-12-05_12h34.40.609,vts_reward_expectancy_bt,2022.2.4,Win32,61.50439756,Chrome,1920,1080,,,a,1.3091,10,479,2,1,7,19,3,1,0,1,0,0,1,0,0,0,circle,triangle,,,,,,,,,,,,,,,,,,,,,,,,,,,,,,,,,,,,,,,,,,,,,,,,,,,,,,
293326,2022-12-05_12h34.40.609,vts_reward_expectancy_bt,2022.2.4,Win32,61.50439756,Chrome,1920,1080,,,l,1.2911,1,480,2,1,8,20,2,1,1,0,0,0,0,0,0,1,triangle,star,,,,,,,,,,,,,,,,,,,,,,,,,,,,,,,,,,,,,,,,,,,,,,,,,,,,,,
293326,2022-12-05_12h34.40.609,vts_reward_expectancy_bt,2022.2.4,Win32,61.50439756,Chrome,1920,1080,,,l,0.954,1,481,2,1,9,21,0,1,1,0,0,0,0,1,0,0,triangle,circle,,,,,,,,,,,,,,,,,,,,,,,,,,,,,,,,,,,,,,,,,,,,,,,,,,,,,,
293326,2022-12-05_12h34.40.609,vts_reward_expectancy_bt,2022.2.4,Win32,61.50439756,Chrome,1920,1080,,,a,0.2136,10,491,2,1,10,22,5,1,0,1,0,0,0,0,0,1,circle,star,,,,,,,,,,,,,,,,,,,,,,,,,,,,,,,,,,,,,,,,,,,,,,,,,,,,,,
293326,2022-12-05_12h34.40.609,vts_reward_expectancy_bt,2022.2.4,Win32,61.50439756,Chrome,1920,1080,,,l,0.0387,10,501,2,1,11,23,7,1,0,0,1,0,0,1,0,0,hexagon,circle,,,,,,,,,,,,,,,,,,,,,,,,,,,,,,,,,,,,,,,,,,,,,,,,,,,,,,
293326,2022-12-05_12h34.40.609,vts_reward_expectancy_bt,2022.2.4,Win32,61.50439756,Chrome,1920,1080,,,a,0.1183,10,511,2,2,0,24,4,1,0,1,0,0,0,0,1,0,circle,hexagon,,,,,,,,,,,,,,,,,,,,,,,,,,,,,,,,,,,,,,,,,,,,,,,,,,,,,,
293326,2022-12-05_12h34.40.609,vts_reward_expectancy_bt,2022.2.4,Win32,61.50439756,Chrome,1920,1080,,,l,0.0739,1,512,2,2,1,25,3,1,0,1,0,0,1,0,0,0,circle,triangle,,,,,,,,,,,,,,,,,,,,,,,,,,,,,,,,,,,,,,,,,,,,,,,,,,,,,,
293326,2022-12-05_12h34.40.609,vts_reward_expectancy_bt,2022.2.4,Win32,61.50439756,Chrome,1920,1080,,,l,0.0069,10,522,2,2,2,26,6,1,0,0,1,0,1,0,0,0,hexagon,triangle,,,,,,,,,,,,,,,,,,,,,,,,,,,,,,,,,,,,,,,,,,,,,,,,,,,,,,
293326,2022-12-05_12h34.40.609,vts_reward_expectancy_bt,2022.2.4,Win32,61.50439756,Chrome,1920,1080,,,a,0.0003,1,523,2,2,3,27,11,1,0,0,0,1,0,0,1,0,star,hexagon,,,,,,,,,,,,,,,,,,,,,,,,,,,,,,,,,,,,,,,,,,,,,,,,,,,,,,
293326,2022-12-05_12h34.40.609,vts_reward_expectancy_bt,2022.2.4,Win32,61.50439756,Chrome,1920,1080,,,l,0.0344,10,533,2,2,4,28,1,1,1,0,0,0,0,0,1,0,triangle,hexagon,,,,,,,,,,,,,,,,,,,,,,,,,,,,,,,,,,,,,,,,,,,,,,,,,,,,,,
293326,2022-12-05_12h34.40.609,vts_reward_expectancy_bt,2022.2.4,Win32,61.50439756,Chrome,1920,1080,,,l,0.0737,1,534,2,2,5,29,8,1,0,0,1,0,0,0,0,1,hexagon,star,,,,,,,,,,,,,,,,,,,,,,,,,,,,,,,,,,,,,,,,,,,,,,,,,,,,,,
293326,2022-12-05_12h34.40.609,vts_reward_expectancy_bt,2022.2.4,Win32,61.50439756,Chrome,1920,1080,,,a,0.2113,10,544,2,2,6,30,2,1,1,0,0,0,0,0,0,1,triangle,star,,,,,,,,,,,,,,,,,,,,,,,,,,,,,,,,,,,,,,,,,,,,,,,,,,,,,,
293326,2022-12-05_12h34.40.609,vts_reward_expectancy_bt,2022.2.4,Win32,61.50439756,Chrome,1920,1080,,,a,0.6185,10,554,2,2,7,31,10,1,0,0,0,1,0,1,0,0,star ,circle,,,,,,,,,,,,,,,,,,,,,,,,,,,,,,,,,,,,,,,,,,,,,,,,,,,,,,
293326,2022-12-05_12h34.40.609,vts_reward_expectancy_bt,2022.2.4,Win32,61.50439756,Chrome,1920,1080,,,a,0.1012,10,564,2,2,8,32,0,1,1,0,0,0,0,1,0,0,triangle,circle,,,,,,,,,,,,,,,,,,,,,,,,,,,,,,,,,,,,,,,,,,,,,,,,,,,,,,
293326,2022-12-05_12h34.40.609,vts_reward_expectancy_bt,2022.2.4,Win32,61.50439756,Chrome,1920,1080,,,a,0.1684,10,574,2,2,9,33,5,1,0,1,0,0,0,0,0,1,circle,star,,,,,,,,,,,,,,,,,,,,,,,,,,,,,,,,,,,,,,,,,,,,,,,,,,,,,,
293326,2022-12-05_12h34.40.609,vts_reward_expectancy_bt,2022.2.4,Win32,61.50439756,Chrome,1920,1080,,,l,0.2999,1,575,2,2,10,34,9,1,0,0,0,1,1,0,0,0,star,triangle,,,,,,,,,,,,,,,,,,,,,,,,,,,,,,,,,,,,,,,,,,,,,,,,,,,,,,
293326,2022-12-05_12h34.40.609,vts_reward_expectancy_bt,2022.2.4,Win32,61.50439756,Chrome,1920,1080,,,l,0.4112,10,585,2,2,11,35,7,1,0,0,1,0,0,1,0,0,hexagon,circle,,,,,,,,,,,,,,,,,,,,,,,,,,,,,,,,,,,,,,,,,,,,,,,,,,,,,,
293326,2022-12-05_12h34.40.609,vts_reward_expectancy_bt,2022.2.4,Win32,61.50439756,Chrome,1920,1080,,,,,,,,,,,,,,,,,,,,,,,W,167,triangle,0,0,,0,0,0,0,0,1,,,,,,,,,,,,,,,,,,,,,,,,,,,,,,,,,,,,,,,,,,
293326,2022-12-05_12h34.40.609,vts_reward_expectancy_bt,2022.2.4,Win32,61.50439756,Chrome,1920,1080,,,,,,,,,,,,,,,,,,,,,,,D,132,circle,1,1,d,0,1,0,1,0,1,0.9019,,,,,,,,,,,,,,,,,,,,,,,,,,,,,,,,,,,,,,,,,
293326,2022-12-05_12h34.40.609,vts_reward_expectancy_bt,2022.2.4,Win32,61.50439756,Chrome,1920,1080,,,,,,,,,,,,,,,,,,,,,,,F,139,star,0,0,f,0,2,0,2,0,1,0.7012,,,,,,,,,,,,,,,,,,,,,,,,,,,,,,,,,,,,,,,,,
293326,2022-12-05_12h34.40.609,vts_reward_expectancy_bt,2022.2.4,Win32,61.50439756,Chrome,1920,1080,,,,,,,,,,,,,,,,,,,,,,,B,181,hexagon,1,1,d,0,3,0,3,0,1,0.685,,,,,,,,,,,,,,,,,,,,,,,,,,,,,,,,,,,,,,,,,
293326,2022-12-05_12h34.40.609,vts_reward_expectancy_bt,2022.2.4,Win32,61.50439756,Chrome,1920,1080,,,,,,,,,,,,,,,,,,,,,,,U,125,triangle,1,0,f,0,4,0,4,0,1,0.6016,,,,,,,,,,,,,,,,,,,,,,,,,,,,,,,,,,,,,,,,,
293326,2022-12-05_12h34.40.609,vts_reward_expectancy_bt,2022.2.4,Win32,61.50439756,Chrome,1920,1080,,,,,,,,,,,,,,,,,,,,,,,H,174,circle,1,0,d,0,5,0,5,0,1,0.9518,,,,,,,,,,,,,,,,,,,,,,,,,,,,,,,,,,,,,,,,,
293326,2022-12-05_12h34.40.609,vts_reward_expectancy_bt,2022.2.4,Win32,61.50439756,Chrome,1920,1080,,,,,,,,,,,,,,,,,,,,,,,Y,146,star,1,0,f,0,6,0,6,0,1,0.8274,,,,,,,,,,,,,,,,,,,,,,,,,,,,,,,,,,,,,,,,,
293326,2022-12-05_12h34.40.609,vts_reward_expectancy_bt,2022.2.4,Win32,61.50439756,Chrome,1920,1080,,,,,,,,,,,,,,,,,,,,,,,S,160,hexagon,1,0,f,0,7,0,7,0,1,1.0605,,,,,,,,,,,,,,,,,,,,,,,,,,,,,,,,,,,,,,,,,
293326,2022-12-05_12h34.40.609,vts_reward_expectancy_bt,2022.2.4,Win32,61.50439756,Chrome,1920,1080,,,,,,,,,,,,,,,,,,,,,,,W,167,hexagon,1,0,f,0,8,0,8,0,1,0.885,,,,,,,,,,,,,,,,,,,,,,,,,,,,,,,,,,,,,,,,,
293326,2022-12-05_12h34.40.609,vts_reward_expectancy_bt,2022.2.4,Win32,61.50439756,Chrome,1920,1080,,,,,,,,,,,,,,,,,,,,,,,D,132,triangle,1,0,d,0,9,0,9,0,1,0.5703,,,,,,,,,,,,,,,,,,,,,,,,,,,,,,,,,,,,,,,,,
293326,2022-12-05_12h34.40.609,vts_reward_expectancy_bt,2022.2.4,Win32,61.50439756,Chrome,1920,1080,,,,,,,,,,,,,,,,,,,,,,,H,167,circle,1,0,d,1,0,0,0,0,1,0.8058,,,,,,,,,,,,,,,,,,,,,,,,,,,,,,,,,,,,,,,,,
293326,2022-12-05_12h34.40.609,vts_reward_expectancy_bt,2022.2.4,Win32,61.50439756,Chrome,1920,1080,,,,,,,,,,,,,,,,,,,,,,,W,181,hexagon,1,0,f,1,1,0,1,0,1,0.5012,,,,,,,,,,,,,,,,,,,,,,,,,,,,,,,,,,,,,,,,,
293326,2022-12-05_12h34.40.609,vts_reward_expectancy_bt,2022.2.4,Win32,61.50439756,Chrome,1920,1080,,,,,,,,,,,,,,,,,,,,,,,S,160,triangle,1,0,f,1,2,0,2,0,1,0.5682,,,,,,,,,,,,,,,,,,,,,,,,,,,,,,,,,,,,,,,,,
293326,2022-12-05_12h34.40.609,vts_reward_expectancy_bt,2022.2.4,Win32,61.50439756,Chrome,1920,1080,,,,,,,,,,,,,,,,,,,,,,,Y,125,star,1,0,f,1,3,0,3,0,1,0.5523,,,,,,,,,,,,,,,,,,,,,,,,,,,,,,,,,,,,,,,,,
293326,2022-12-05_12h34.40.609,vts_reward_expectancy_bt,2022.2.4,Win32,61.50439756,Chrome,1920,1080,,,,,,,,,,,,,,,,,,,,,,,D,146,circle,1,0,d,1,4,0,4,0,1,0.4448,,,,,,,,,,,,,,,,,,,,,,,,,,,,,,,,,,,,,,,,,
293326,2022-12-05_12h34.40.609,vts_reward_expectancy_bt,2022.2.4,Win32,61.50439756,Chrome,1920,1080,,,,,,,,,,,,,,,,,,,,,,,F,174,hexagon,1,0,d,1,5,0,5,0,1,0.6681,,,,,,,,,,,,,,,,,,,,,,,,,,,,,,,,,,,,,,,,,
293326,2022-12-05_12h34.40.609,vts_reward_expectancy_bt,2022.2.4,Win32,61.50439756,Chrome,1920,1080,,,,,,,,,,,,,,,,,,,,,,,U,139,triangle,1,0,f,1,6,0,6,0,1,0.5518,,,,,,,,,,,,,,,,,,,,,,,,,,,,,,,,,,,,,,,,,
293326,2022-12-05_12h34.40.609,vts_reward_expectancy_bt,2022.2.4,Win32,61.50439756,Chrome,1920,1080,,,,,,,,,,,,,,,,,,,,,,,B,132,star,1,0,d,1,7,0,7,0,1,0.4729,,,,,,,,,,,,,,,,,,,,,,,,,,,,,,,,,,,,,,,,,
293326,2022-12-05_12h34.40.609,vts_reward_expectancy_bt,2022.2.4,Win32,61.50439756,Chrome,1920,1080,,,,,,,,,,,,,,,,,,,,,,,H,167,hexagon,1,0,d,1,8,0,8,0,1,0.9931,,,,,,,,,,,,,,,,,,,,,,,,,,,,,,,,,,,,,,,,,
293326,2022-12-05_12h34.40.609,vts_reward_expectancy_bt,2022.2.4,Win32,61.50439756,Chrome,1920,1080,,,,,,,,,,,,,,,,,,,,,,,W,181,star,1,0,f,1,9,0,9,0,1,0.5949,,,,,,,,,,,,,,,,,,,,,,,,,,,,,,,,,,,,,,,,,
293326,2022-12-05_12h34.40.609,vts_reward_expectancy_bt,2022.2.4,Win32,61.50439756,Chrome,1920,1080,,,,,,,,,,,,,,,,,,,,,,,D,174,triangle,1,0,,2,,,,,,,k,1.5246,0,0,0,0,1,,,,,,,,,,,,,,,,,,,,,,,,,,,,,,,,,,
293326,2022-12-05_12h34.40.609,vts_reward_expectancy_bt,2022.2.4,Win32,61.50439756,Chrome,1920,1080,,,,,,,,,,,,,,,,,,,,,,,H,146,star,1,0,,2,,,,,,,j,0.5345,1,0,1,0,1,,,,,,,,,,,,,,,,,,,,,,,,,,,,,,,,,,
293326,2022-12-05_12h34.40.609,vts_reward_expectancy_bt,2022.2.4,Win32,61.50439756,Chrome,1920,1080,,,,,,,,,,,,,,,,,,,,,,,W,125,circle,1,0,,2,,,,,,,j,0.5348,2,0,2,0,1,,,,,,,,,,,,,,,,,,,,,,,,,,,,,,,,,,
293326,2022-12-05_12h34.40.609,vts_reward_expectancy_bt,2022.2.4,Win32,61.50439756,Chrome,1920,1080,,,,,,,,,,,,,,,,,,,,,,,U,181,hexagon,1,0,,2,,,,,,,k,0.4907,3,0,3,0,1,,,,,,,,,,,,,,,,,,,,,,,,,,,,,,,,,,
293326,2022-12-05_12h34.40.609,vts_reward_expectancy_bt,2022.2.4,Win32,61.50439756,Chrome,1920,1080,,,,,,,,,,,,,,,,,,,,,,,S,167,triangle,1,0,,2,,,,,,,k,0.6418,4,0,4,0,1,,,,,,,,,,,,,,,,,,,,,,,,,,,,,,,,,,
293326,2022-12-05_12h34.40.609,vts_reward_expectancy_bt,2022.2.4,Win32,61.50439756,Chrome,1920,1080,,,,,,,,,,,,,,,,,,,,,,,Y,132,star,1,0,,2,,,,,,,j,0.594,5,0,5,0,1,,,,,,,,,,,,,,,,,,,,,,,,,,,,,,,,,,
293326,2022-12-05_12h34.40.609,vts_reward_expectancy_bt,2022.2.4,Win32,61.50439756,Chrome,1920,1080,,,,,,,,,,,,,,,,,,,,,,,B,160,circle,1,0,,2,,,,,,,k,0.6928,6,0,6,0,1,,,,,,,,,,,,,,,,,,,,,,,,,,,,,,,,,,
293326,2022-12-05_12h34.40.609,vts_reward_expectancy_bt,2022.2.4,Win32,61.50439756,Chrome,1920,1080,,,,,,,,,,,,,,,,,,,,,,,F,139,hexagon,1,0,,2,,,,,,,j,0.5848,7,0,7,0,1,,,,,,,,,,,,,,,,,,,,,,,,,,,,,,,,,,
293326,2022-12-05_12h34.40.609,vts_reward_expectancy_bt,2022.2.4,Win32,61.50439756,Chrome,1920,1080,,,,,,,,,,,,,,,,,,,,,,,D,174,star,1,0,,2,,,,,,,k,0.774,8,0,8,0,1,,,,,,,,,,,,,,,,,,,,,,,,,,,,,,,,,,
293326,2022-12-05_12h34.40.609,vts_reward_expectancy_bt,2022.2.4,Win32,61.50439756,Chrome,1920,1080,,,,,,,,,,,,,,,,,,,,,,,H,146,circle,1,0,,2,,,,,,,j,0.4686,9,0,9,0,1,,,,,,,,,,,,,,,,,,,,,,,,,,,,,,,,,,
293326,2022-12-05_12h34.40.609,vts_reward_expectancy_bt,2022.2.4,Win32,61.50439756,Chrome,1920,1080,,,,,0,585,,,,,,,,,,,,,,,,,W,160,hexagon,1,0,,3,,,,,,,,,,,,,,-1,letter,NA,f,2.4122,vtsPrac,0,0,0,0,1,,,,,,,,,,,,,,,,,,,,,,,
293326,2022-12-05_12h34.40.609,vts_reward_expectancy_bt,2022.2.4,Win32,61.50439756,Chrome,1920,1080,,,,,0,585,,,,,,,,,,,,,,,,,U,181,star,1,0,,3,,,,,,,,,,,,,,repeat,letter,lettRpt,f,1.9593,vtsPrac,1,0,1,0,1,,,,,,,,,,,,,,,,,,,,,,,
293326,2022-12-05_12h34.40.609,vts_reward_expectancy_bt,2022.2.4,Win32,61.50439756,Chrome,1920,1080,,,,,0,585,,,,,,,,,,,,,,,,,Y,146,hexagon,1,0,,3,,,,,,,,,,,,,,switch,number,numSwt,j,0.7693,vtsPrac,2,0,2,0,1,,,,,,,,,,,,,,,,,,,,,,,
293326,2022-12-05_12h34.40.609,vts_reward_expectancy_bt,2022.2.4,Win32,61.50439756,Chrome,1920,1080,,,,,0,585,,,,,,,,,,,,,,,,,S,174,star,1,0,,3,,,,,,,,,,,,,,switch,letter,lettSwt,f,0.9085,vtsPrac,3,0,3,0,1,,,,,,,,,,,,,,,,,,,,,,,
293326,2022-12-05_12h34.40.609,vts_reward_expectancy_bt,2022.2.4,Win32,61.50439756,Chrome,1920,1080,,,,,0,585,,,,,,,,,,,,,,,,,W,160,triangle,1,0,,3,,,,,,,,,,,,,,switch,number,numSwt,k,0.6591,vtsPrac,4,0,4,0,1,,,,,,,,,,,,,,,,,,,,,,,
293326,2022-12-05_12h34.40.609,vts_reward_expectancy_bt,2022.2.4,Win32,61.50439756,Chrome,1920,1080,,,,,0,585,,,,,,,,,,,,,,,,,U,181,circle,1,0,,3,,,,,,,,,,,,,,switch,letter,lettSwt,f,0.7701,vtsPrac,5,0,5,0,1,,,,,,,,,,,,,,,,,,,,,,,
293326,2022-12-05_12h34.40.609,vts_reward_expectancy_bt,2022.2.4,Win32,61.50439756,Chrome,1920,1080,,,,,0,585,,,,,,,,,,,,,,,,,Y,146,star,1,0,,3,,,,,,,,,,,,,,switch,number,numSwt,j,0.7354,vtsPrac,6,0,6,0,1,,,,,,,,,,,,,,,,,,,,,,,
293326,2022-12-05_12h34.40.609,vts_reward_expectancy_bt,2022.2.4,Win32,61.50439756,Chrome,1920,1080,,,,,0,585,,,,,,,,,,,,,,,,,S,174,circle,1,0,,3,,,,,,,,,,,,,,switch,letter,lettSwt,f,0.7517,vtsPrac,7,0,7,0,1,,,,,,,,,,,,,,,,,,,,,,,
293326,2022-12-05_12h34.40.609,vts_reward_expectancy_bt,2022.2.4,Win32,61.50439756,Chrome,1920,1080,,,,,0,585,,,,,,,,,,,,,,,,,W,174,circle,1,0,,3,,,,,,,,,,,,,,switch,number,numSwt,k,0.6783,vtsPrac,8,0,8,0,1,,,,,,,,,,,,,,,,,,,,,,,
293326,2022-12-05_12h34.40.609,vts_reward_expectancy_bt,2022.2.4,Win32,61.50439756,Chrome,1920,1080,,,,,0,585,,,,,,,,,,,,,,,,,S,146,star,1,0,,3,,,,,,,,,,,,,,switch,letter,lettSwt,f,0.8057,vtsPrac,9,0,9,0,1,,,,,,,,,,,,,,,,,,,,,,,
293326,2022-12-05_12h34.40.609,vts_reward_expectancy_bt,2022.2.4,Win32,61.50439756,Chrome,1920,1080,,,,,0,585,,,,,,,,,,,,,,,,,D,160,star,1,0,,3,,,,,,,,,,,,,,switch,number,numSwt,k,0.9438,vtsPrac,10,0,10,0,1,,,,,,,,,,,,,,,,,,,,,,,
293326,2022-12-05_12h34.40.609,vts_reward_expectancy_bt,2022.2.4,Win32,61.50439756,Chrome,1920,1080,,,,,0,585,,,,,,,,,,,,,,,,,B,181,triangle,1,0,,3,,,,,,,,,,,,,,switch,letter,lettSwt,d,0.535,vtsPrac,11,0,11,0,1,,,,,,,,,,,,,,,,,,,,,,,
293326,2022-12-05_12h34.40.609,vts_reward_expectancy_bt,2022.2.4,Win32,61.50439756,Chrome,1920,1080,,,,,0,585,,,,,,,,,,,,,,,,,Y,167,triangle,1,0,,3,,,,,,,,,,,,,,switch,number,numSwt,k,0.6847,vtsPrac,12,0,12,0,1,,,,,,,,,,,,,,,,,,,,,,,
293326,2022-12-05_12h34.40.609,vts_reward_expectancy_bt,2022.2.4,Win32,61.50439756,Chrome,1920,1080,,,,,0,585,,,,,,,,,,,,,,,,,U,181,star,1,0,,3,,,,,,,,,,,,,,repeat,number,numRpt,k,0.6847,vtsPrac,13,0,13,0,1,,,,,,,,,,,,,,,,,,,,,,,
293326,2022-12-05_12h34.40.609,vts_reward_expectancy_bt,2022.2.4,Win32,61.50439756,Chrome,1920,1080,,,,,0,585,,,,,,,,,,,,,,,,,F,160,star,1,0,,3,,,,,,,,,,,,,,switch,letter,lettSwt,d,0.7417,vtsPrac,14,0,14,0,1,,,,,,,,,,,,,,,,,,,,,,,
293326,2022-12-05_12h34.40.609,vts_reward_expectancy_bt,2022.2.4,Win32,61.50439756,Chrome,1920,1080,,,,,0,585,,,,,,,,,,,,,,,,,H,146,circle,1,0,,3,,,,,,,,,,,,,,repeat,letter,lettRpt,d,1.1677,vtsPrac,15,0,15,0,1,,,,,,,,,,,,,,,,,,,,,,,
293326,2022-12-05_12h34.40.609,vts_reward_expectancy_bt,2022.2.4,Win32,61.50439756,Chrome,1920,1080,,,,,0,585,,,,,,,,,,,,,,,,,H,174,triangle,1,0,,3,,,,,,,,,,,,,,switch,number,numSwt,k,0.6692,vtsPrac,16,0,16,0,1,,,,,,,,,,,,,,,,,,,,,,,
293326,2022-12-05_12h34.40.609,vts_reward_expectancy_bt,2022.2.4,Win32,61.50439756,Chrome,1920,1080,,,,,0,585,,,,,,,,,,,,,,,,,Y,132,star,1,0,,3,,,,,,,,,,,,,,switch,letter,lettSwt,f,0.8602,vtsPrac,17,0,17,0,1,,,,,,,,,,,,,,,,,,,,,,,
293326,2022-12-05_12h34.40.609,vts_reward_expectancy_bt,2022.2.4,Win32,61.50439756,Chrome,1920,1080,,,,,0,585,,,,,,,,,,,,,,,,,S,139,hexagon,1,0,,3,,,,,,,,,,,,,,switch,number,numSwt,j,0.8519,vtsPrac,18,0,18,0,1,,,,,,,,,,,,,,,,,,,,,,,
293326,2022-12-05_12h34.40.609,vts_reward_expectancy_bt,2022.2.4,Win32,61.50439756,Chrome,1920,1080,,,,,0,585,,,,,,,,,,,,,,,,,D,167,circle,1,0,,3,,,,,,,,,,,,,,switch,letter,lettSwt,d,0.8445,vtsPrac,19,0,19,0,1,,,,,,,,,,,,,,,,,,,,,,,
293326,2022-12-05_12h34.40.609,vts_reward_expectancy_bt,2022.2.4,Win32,61.50439756,Chrome,1920,1080,,,,,0,585,,,,,,,,,,,,,,,,,H,139,triangle,1,0,,3,,,,,,,,,,,,,,switch,number,numSwt,j,0.5846,vtsPrac,20,0,20,0,1,,,,,,,,,,,,,,,,,,,,,,,
293326,2022-12-05_12h34.40.609,vts_reward_expectancy_bt,2022.2.4,Win32,61.50439756,Chrome,1920,1080,,,,,0,585,,,,,,,,,,,,,,,,,D,132,star,1,0,,3,,,,,,,,,,,,,,switch,letter,lettSwt,d,1.0684,vtsPrac,21,0,21,0,1,,,,,,,,,,,,,,,,,,,,,,,
293326,2022-12-05_12h34.40.609,vts_reward_expectancy_bt,2022.2.4,Win32,61.50439756,Chrome,1920,1080,,,,,0,585,,,,,,,,,,,,,,,,,F,181,circle,1,0,,3,,,,,,,,,,,,,,repeat,letter,lettRpt,d,0.5678,vtsPrac,22,0,22,0,1,,,,,,,,,,,,,,,,,,,,,,,
293326,2022-12-05_12h34.40.609,vts_reward_expectancy_bt,2022.2.4,Win32,61.50439756,Chrome,1920,1080,,,,,0,585,,,,,,,,,,,,,,,,,S,160,triangle,1,0,,3,,,,,,,,,,,,,,switch,number,numSwt,k,0.5211,vtsPrac,23,0,23,0,1,,,,,,,,,,,,,,,,,,,,,,,
293326,2022-12-05_12h34.40.609,vts_reward_expectancy_bt,2022.2.4,Win32,61.50439756,Chrome,1920,1080,,,,,0,585,,,,,,,,,,,,,,,,,Y,146,hexagon,1,0,,3,,,,,,,,,,,,,,repeat,number,numRpt,j,1.1521,vtsPrac,24,0,24,0,1,,,,,,,,,,,,,,,,,,,,,,,
293326,2022-12-05_12h34.40.609,vts_reward_expectancy_bt,2022.2.4,Win32,61.50439756,Chrome,1920,1080,,,,,0,585,,,,,,,,,,,,,,,,,H,160,circle,1,0,,3,,,,,,,,,,,,,,switch,letter,lettSwt,d,1.3519,vtsPrac,25,0,25,0,1,,,,,,,,,,,,,,,,,,,,,,,
293326,2022-12-05_12h34.40.609,vts_reward_expectancy_bt,2022.2.4,Win32,61.50439756,Chrome,1920,1080,,,,,0,585,,,,,,,,,,,,,,,,,U,167,star,1,0,,3,,,,,,,,,,,,,,switch,number,numSwt,k,1.2191,vtsPrac,26,0,26,0,1,,,,,,,,,,,,,,,,,,,,,,,
293326,2022-12-05_12h34.40.609,vts_reward_expectancy_bt,2022.2.4,Win32,61.50439756,Chrome,1920,1080,,,,,0,585,,,,,,,,,,,,,,,,,W,174,circle,1,0,,3,,,,,,,,,,,,,,switch,letter,lettSwt,f,0.7431,vtsPrac,27,0,27,0,1,,,,,,,,,,,,,,,,,,,,,,,
293326,2022-12-05_12h34.40.609,vts_reward_expectancy_bt,2022.2.4,Win32,61.50439756,Chrome,1920,1080,,,,,0,585,,,,,,,,,,,,,,,,,W,146,star,1,0,,3,,,,,,,,,,,,,,repeat,letter,lettRpt,f,0.6268,vtsPrac,28,0,28,0,1,,,,,,,,,,,,,,,,,,,,,,,
293326,2022-12-05_12h34.40.609,vts_reward_expectancy_bt,2022.2.4,Win32,61.50439756,Chrome,1920,1080,,,,,0,585,,,,,,,,,,,,,,,,,H,174,triangle,1,0,,3,,,,,,,,,,,,,,repeat,letter,lettRpt,d,1.2856,vtsPrac,29,0,29,0,1,,,,,,,,,,,,,,,,,,,,,,,
293326,2022-12-05_12h34.40.609,vts_reward_expectancy_bt,2022.2.4,Win32,61.50439756,Chrome,1920,1080,,,,,0,585,,,,,,,,,,,,,,,,,F,125,star,1,0,,3,,,,,,,,,,,,,,switch,number,numSwt,j,0.6847,vtsPrac,30,0,30,0,1,,,,,,,,,,,,,,,,,,,,,,,
293326,2022-12-05_12h34.40.609,vts_reward_expectancy_bt,2022.2.4,Win32,61.50439756,Chrome,1920,1080,,,,,0,585,,,,,,,,,,,,,,,,,D,181,triangle,1,0,,3,,,,,,,,,,,,,,repeat,number,numRpt,k,0.7183,vtsPrac,31,0,31,0,1,,,,,,,,,,,,,,,,,,,,,,,
293326,2022-12-05_12h34.40.609,vts_reward_expectancy_bt,2022.2.4,Win32,61.50439756,Chrome,1920,1080,,,,,,,,,,,,,,,,,,,,,,,,,,,,,,,,,,,,,,,,,,,,,,,,,,,,,,,,,,,,,,,,,,,,,,,,,,,,
293326,2022-12-05_12h34.40.609,vts_reward_expectancy_bt,2022.2.4,Win32,61.50439756,Chrome,1920,1080,,,,,,,,,,,,,,,,,,,,,,,,,,,,,,,,,,,,,,,,,,,,,,,,,,,,,,,,,,,,,,,,,,,,,,,,,,,,
293326,2022-12-05_12h34.40.609,vts_reward_expectancy_bt,2022.2.4,Win32,61.50439756,Chrome,1920,1080,,,,,0,585,,,,,,,,,,,,,,,,,F,160,triangle,1,0,,,,,,,,,,,,,,,,switch,letter,lettSwt,d,1.0018,noRew,,,,,,0,0,0,0,0,1,,,,,,,,,,,,,,,,,
293326,2022-12-05_12h34.40.609,vts_reward_expectancy_bt,2022.2.4,Win32,61.50439756,Chrome,1920,1080,,,,,0,585,,,,,,,,,,,,,,,,,D,181,circle,1,0,,,,,,,,,,,,,,,,repeat,letter,lettRpt,d,0.7762,noRew,,,,,,0,1,0,1,0,1,,,,,,,,,,,,,,,,,
293326,2022-12-05_12h34.40.609,vts_reward_expectancy_bt,2022.2.4,Win32,61.50439756,Chrome,1920,1080,,,,,0,585,,,,,,,,,,,,,,,,,B,146,triangle,1,0,,,,,,,,,,,,,,,,repeat,letter,lettRpt,d,0.6128,noRew,,,,,,0,2,0,2,0,1,,,,,,,,,,,,,,,,,
293326,2022-12-05_12h34.40.609,vts_reward_expectancy_bt,2022.2.4,Win32,61.50439756,Chrome,1920,1080,,,,,0,585,,,,,,,,,,,,,,,,,U,132,circle,1,0,,,,,,,,,,,,,,,,repeat,letter,lettRpt,f,0.4856,noRew,,,,,,0,3,0,3,0,1,,,,,,,,,,,,,,,,,
293326,2022-12-05_12h34.40.609,vts_reward_expectancy_bt,2022.2.4,Win32,61.50439756,Chrome,1920,1080,,,,,0,585,,,,,,,,,,,,,,,,,F,160,hexagon,1,0,,,,,,,,,,,,,,,,repeat,letter,lettRpt,d,0.7678,noRew,,,,,,0,4,0,4,0,1,,,,,,,,,,,,,,,,,
293326,2022-12-05_12h34.40.609,vts_reward_expectancy_bt,2022.2.4,Win32,61.50439756,Chrome,1920,1080,,,,,0,585,,,,,,,,,,,,,,,,,D,181,star,1,0,,,,,,,,,,,,,,,,switch,number,numSwt,k,0.856,noRew,,,,,,0,5,0,5,0,1,,,,,,,,,,,,,,,,,
293326,2022-12-05_12h34.40.609,vts_reward_expectancy_bt,2022.2.4,Win32,61.50439756,Chrome,1920,1080,,,,,0,585,,,,,,,,,,,,,,,,,B,146,hexagon,1,0,,,,,,,,,,,,,,,,repeat,number,numRpt,j,0.8019,noRew,,,,,,0,6,0,6,0,1,,,,,,,,,,,,,,,,,
293326,2022-12-05_12h34.40.609,vts_reward_expectancy_bt,2022.2.4,Win32,61.50439756,Chrome,1920,1080,,,,,0,585,,,,,,,,,,,,,,,,,U,132,circle,1,0,,,,,,,,,,,,,,,,repeat,number,numRpt,j,0.9533,noRew,,,,,,0,7,0,7,0,1,,,,,,,,,,,,,,,,,
293326,2022-12-05_12h34.40.609,vts_reward_expectancy_bt,2022.2.4,Win32,61.50439756,Chrome,1920,1080,,,,,0,585,,,,,,,,,,,,,,,,,B,146,triangle,1,0,,,,,,,,,,,,,,,,repeat,number,numRpt,j,0.6907,noRew,,,,,,0,8,0,8,0,1,,,,,,,,,,,,,,,,,
293326,2022-12-05_12h34.40.609,vts_reward_expectancy_bt,2022.2.4,Win32,61.50439756,Chrome,1920,1080,,,,,0,585,,,,,,,,,,,,,,,,,S,139,hexagon,1,0,,,,,,,,,,,,,,,,switch,letter,lettSwt,f,0.7799,noRew,,,,,,0,9,0,9,0,1,,,,,,,,,,,,,,,,,
293326,2022-12-05_12h34.40.609,vts_reward_expectancy_bt,2022.2.4,Win32,61.50439756,Chrome,1920,1080,,,,,0,585,,,,,,,,,,,,,,,,,Y,160,star,1,0,,,,,,,,,,,,,,,,repeat,letter,lettRpt,f,0.7106,noRew,,,,,,0,10,0,10,0,1,,,,,,,,,,,,,,,,,
293326,2022-12-05_12h34.40.609,vts_reward_expectancy_bt,2022.2.4,Win32,61.50439756,Chrome,1920,1080,,,,,0,585,,,,,,,,,,,,,,,,,D,167,hexagon,1,0,,,,,,,,,,,,,,,,repeat,letter,lettRpt,d,0.535,noRew,,,,,,0,11,0,11,0,1,,,,,,,,,,,,,,,,,
293326,2022-12-05_12h34.40.609,vts_reward_expectancy_bt,2022.2.4,Win32,61.50439756,Chrome,1920,1080,,,,,0,585,,,,,,,,,,,,,,,,,D,181,triangle,1,0,,,,,,,,,,,,,,,,switch,number,numSwt,k,1.6253,noRew,,,,,,0,12,0,12,0,1,,,,,,,,,,,,,,,,,
293326,2022-12-05_12h34.40.609,vts_reward_expectancy_bt,2022.2.4,Win32,61.50439756,Chrome,1920,1080,,,,,0,585,,,,,,,,,,,,,,,,,S,132,hexagon,1,0,,,,,,,,,,,,,,,,repeat,number,numRpt,j,0.61,noRew,,,,,,0,13,0,13,0,1,,,,,,,,,,,,,,,,,
293326,2022-12-05_12h34.40.609,vts_reward_expectancy_bt,2022.2.4,Win32,61.50439756,Chrome,1920,1080,,,,,0,585,,,,,,,,,,,,,,,,,W,125,hexagon,1,0,,,,,,,,,,,,,,,,repeat,number,numRpt,j,0.5182,noRew,,,,,,0,14,0,14,0,1,,,,,,,,,,,,,,,,,
293326,2022-12-05_12h34.40.609,vts_reward_expectancy_bt,2022.2.4,Win32,61.50439756,Chrome,1920,1080,,,,,0,585,,,,,,,,,,,,,,,,,F,167,star,1,0,,,,,,,,,,,,,,,,switch,letter,lettSwt,d,1.0355,noRew,,,,,,0,15,0,15,0,1,,,,,,,,,,,,,,,,,
293326,2022-12-05_12h34.40.609,vts_reward_expectancy_bt,2022.2.4,Win32,61.50439756,Chrome,1920,1080,,,,,0,585,,,,,,,,,,,,,,,,,W,167,star,1,0,,,,,,,,,,,,,,,,repeat,letter,lettRpt,f,0.9061,noRew,,,,,,0,16,0,16,0,1,,,,,,,,,,,,,,,,,
293326,2022-12-05_12h34.40.609,vts_reward_expectancy_bt,2022.2.4,Win32,61.50439756,Chrome,1920,1080,,,,,0,585,,,,,,,,,,,,,,,,,H,160,hexagon,1,0,,,,,,,,,,,,,,,,switch,number,numSwt,k,0.814,noRew,,,,,,0,17,0,17,0,1,,,,,,,,,,,,,,,,,
293326,2022-12-05_12h34.40.609,vts_reward_expectancy_bt,2022.2.4,Win32,61.50439756,Chrome,1920,1080,,,,,0,585,,,,,,,,,,,,,,,,,B,174,hexagon,1,0,,,,,,,,,,,,,,,,repeat,number,numRpt,k,0.7878,noRew,,,,,,0,18,0,18,0,1,,,,,,,,,,,,,,,,,
293326,2022-12-05_12h34.40.609,vts_reward_expectancy_bt,2022.2.4,Win32,61.50439756,Chrome,1920,1080,,,,,0,585,,,,,,,,,,,,,,,,,S,125,triangle,1,0,,,,,,,,,,,,,,,,switch,letter,lettSwt,f,1.4553,noRew,,,,,,0,19,0,19,0,1,,,,,,,,,,,,,,,,,
293326,2022-12-05_12h34.40.609,vts_reward_expectancy_bt,2022.2.4,Win32,61.50439756,Chrome,1920,1080,,,,,0,585,,,,,,,,,,,,,,,,,U,146,hexagon,1,0,,,,,,,,,,,,,,,,repeat,letter,lettRpt,f,0.5804,noRew,,,,,,0,20,0,20,0,1,,,,,,,,,,,,,,,,,
293326,2022-12-05_12h34.40.609,vts_reward_expectancy_bt,2022.2.4,Win32,61.50439756,Chrome,1920,1080,,,,,0,585,,,,,,,,,,,,,,,,,D,132,triangle,1,0,,,,,,,,,,,,,,,,repeat,letter,lettRpt,d,0.7706,noRew,,,,,,0,21,0,21,0,1,,,,,,,,,,,,,,,,,
293326,2022-12-05_12h34.40.609,vts_reward_expectancy_bt,2022.2.4,Win32,61.50439756,Chrome,1920,1080,,,,,0,585,,,,,,,,,,,,,,,,,S,139,star,1,0,,,,,,,,,,,,,,,,switch,number,numSwt,j,0.6307,noRew,,,,,,0,22,0,22,0,1,,,,,,,,,,,,,,,,,
293326,2022-12-05_12h34.40.609,vts_reward_expectancy_bt,2022.2.4,Win32,61.50439756,Chrome,1920,1080,,,,,0,585,,,,,,,,,,,,,,,,,W,125,triangle,1,0,,,,,,,,,,,,,,,,repeat,number,numRpt,j,0.6397,noRew,,,,,,0,23,0,23,0,1,,,,,,,,,,,,,,,,,
293326,2022-12-05_12h34.40.609,vts_reward_expectancy_bt,2022.2.4,Win32,61.50439756,Chrome,1920,1080,,,,,0,585,,,,,,,,,,,,,,,,,H,174,triangle,1,0,,,,,,,,,,,,,,,,repeat,number,numRpt,k,0.7205,noRew,,,,,,0,24,0,24,0,1,,,,,,,,,,,,,,,,,
293326,2022-12-05_12h34.40.609,vts_reward_expectancy_bt,2022.2.4,Win32,61.50439756,Chrome,1920,1080,,,,,0,585,,,,,,,,,,,,,,,,,W,167,circle,1,0,,,,,,,,,,,,,,,,switch,letter,lettSwt,f,0.6396,noRew,,,,,,0,25,0,25,0,1,,,,,,,,,,,,,,,,,
293326,2022-12-05_12h34.40.609,vts_reward_expectancy_bt,2022.2.4,Win32,61.50439756,Chrome,1920,1080,,,,,0,585,,,,,,,,,,,,,,,,,B,132,hexagon,1,0,,,,,,,,,,,,,,,,repeat,letter,lettRpt,d,0.7693,noRew,,,,,,0,26,0,26,0,1,,,,,,,,,,,,,,,,,
293326,2022-12-05_12h34.40.609,vts_reward_expectancy_bt,2022.2.4,Win32,61.50439756,Chrome,1920,1080,,,,,0,585,,,,,,,,,,,,,,,,,S,125,circle,1,0,,,,,,,,,,,,,,,,repeat,letter,lettRpt,f,1.1,noRew,,,,,,0,27,0,27,0,1,,,,,,,,,,,,,,,,,
293326,2022-12-05_12h34.40.609,vts_reward_expectancy_bt,2022.2.4,Win32,61.50439756,Chrome,1920,1080,,,,,0,585,,,,,,,,,,,,,,,,,B,125,circle,1,0,,,,,,,,,,,,,,,,repeat,letter,lettRpt,d,0.5567,noRew,,,,,,0,28,0,28,0,1,,,,,,,,,,,,,,,,,
293326,2022-12-05_12h34.40.609,vts_reward_expectancy_bt,2022.2.4,Win32,61.50439756,Chrome,1920,1080,,,,,0,585,,,,,,,,,,,,,,,,,D,132,triangle,1,0,,,,,,,,,,,,,,,,switch,number,numSwt,j,0.5807,noRew,,,,,,0,29,0,29,0,1,,,,,,,,,,,,,,,,,
293326,2022-12-05_12h34.40.609,vts_reward_expectancy_bt,2022.2.4,Win32,61.50439756,Chrome,1920,1080,,,,,0,585,,,,,,,,,,,,,,,,,S,167,star,1,0,,,,,,,,,,,,,,,,repeat,number,numRpt,k,0.4667,noRew,,,,,,0,30,0,30,0,1,,,,,,,,,,,,,,,,,
293326,2022-12-05_12h34.40.609,vts_reward_expectancy_bt,2022.2.4,Win32,61.50439756,Chrome,1920,1080,,,,,0,585,,,,,,,,,,,,,,,,,U,160,hexagon,1,0,,,,,,,,,,,,,,,,repeat,number,numRpt,k,0.7824,noRew,,,,,,0,31,0,31,0,1,,,,,,,,,,,,,,,,,
293326,2022-12-05_12h34.40.609,vts_reward_expectancy_bt,2022.2.4,Win32,61.50439756,Chrome,1920,1080,,,,,0,585,,,,,,,,,,,,,,,,,W,125,star,1,0,,,,,,,,,,,,,,,,repeat,number,numRpt,j,0.6466,noRew,,,,,,0,32,0,32,0,1,,,,,,,,,,,,,,,,,
293326,2022-12-05_12h34.40.609,vts_reward_expectancy_bt,2022.2.4,Win32,61.50439756,Chrome,1920,1080,,,,,0,585,,,,,,,,,,,,,,,,,D,146,circle,1,0,,,,,,,,,,,,,,,,switch,letter,lettSwt,d,0.8715,noRew,,,,,,0,33,0,33,0,1,,,,,,,,,,,,,,,,,
293326,2022-12-05_12h34.40.609,vts_reward_expectancy_bt,2022.2.4,Win32,61.50439756,Chrome,1920,1080,,,,,0,585,,,,,,,,,,,,,,,,,U,160,triangle,1,0,,,,,,,,,,,,,,,,repeat,letter,lettRpt,f,0.7516,noRew,,,,,,0,34,0,34,0,1,,,,,,,,,,,,,,,,,
293326,2022-12-05_12h34.40.609,vts_reward_expectancy_bt,2022.2.4,Win32,61.50439756,Chrome,1920,1080,,,,,0,585,,,,,,,,,,,,,,,,,F,167,circle,1,0,,,,,,,,,,,,,,,,repeat,letter,lettRpt,d,0.9139,noRew,,,,,,0,35,0,35,0,1,,,,,,,,,,,,,,,,,
293326,2022-12-05_12h34.40.609,vts_reward_expectancy_bt,2022.2.4,Win32,61.50439756,Chrome,1920,1080,,,,,0,585,,,,,,,,,,,,,,,,,W,146,hexagon,1,0,,,,,,,,,,,,,,,,repeat,letter,lettRpt,f,0.6138,noRew,,,,,,0,36,0,36,0,1,,,,,,,,,,,,,,,,,
293326,2022-12-05_12h34.40.609,vts_reward_expectancy_bt,2022.2.4,Win32,61.50439756,Chrome,1920,1080,,,,,0,585,,,,,,,,,,,,,,,,,H,174,star,1,0,,,,,,,,,,,,,,,,switch,number,numSwt,k,0.6995,noRew,,,,,,0,37,0,37,0,1,,,,,,,,,,,,,,,,,
293326,2022-12-05_12h34.40.609,vts_reward_expectancy_bt,2022.2.4,Win32,61.50439756,Chrome,1920,1080,,,,,0,585,,,,,,,,,,,,,,,,,F,125,star,1,0,,,,,,,,,,,,,,,,repeat,number,numRpt,j,0.9142,noRew,,,,,,0,38,0,38,0,1,,,,,,,,,,,,,,,,,
293326,2022-12-05_12h34.40.609,vts_reward_expectancy_bt,2022.2.4,Win32,61.50439756,Chrome,1920,1080,,,,,0,585,,,,,,,,,,,,,,,,,Y,181,circle,1,0,,,,,,,,,,,,,,,,repeat,number,numRpt,k,0.6804,noRew,,,,,,0,39,0,39,0,1,,,,,,,,,,,,,,,,,
293326,2022-12-05_12h34.40.609,vts_reward_expectancy_bt,2022.2.4,Win32,61.50439756,Chrome,1920,1080,,,,,0,585,,,,,,,,,,,,,,,,,H,146,star,1,0,,,,,,,,,,,,,,,,switch,letter,lettSwt,d,1.1639,noRew,,,,,,0,40,0,40,0,1,,,,,,,,,,,,,,,,,
293326,2022-12-05_12h34.40.609,vts_reward_expectancy_bt,2022.2.4,Win32,61.50439756,Chrome,1920,1080,,,,,0,585,,,,,,,,,,,,,,,,,F,139,circle,1,0,,,,,,,,,,,,,,,,repeat,letter,lettRpt,d,0.7218,noRew,,,,,,0,41,0,41,0,1,,,,,,,,,,,,,,,,,
293326,2022-12-05_12h34.40.609,vts_reward_expectancy_bt,2022.2.4,Win32,61.50439756,Chrome,1920,1080,,,,,0,585,,,,,,,,,,,,,,,,,D,125,star,1,0,,,,,,,,,,,,,,,,repeat,letter,lettRpt,d,0.6365,noRew,,,,,,0,42,0,42,0,1,,,,,,,,,,,,,,,,,
293326,2022-12-05_12h34.40.609,vts_reward_expectancy_bt,2022.2.4,Win32,61.50439756,Chrome,1920,1080,,,,,0,585,,,,,,,,,,,,,,,,,W,167,triangle,1,0,,,,,,,,,,,,,,,,switch,number,numSwt,k,0.5643,noRew,,,,,,0,43,0,43,0,1,,,,,,,,,,,,,,,,,
293326,2022-12-05_12h34.40.609,vts_reward_expectancy_bt,2022.2.4,Win32,61.50439756,Chrome,1920,1080,,,,,0,585,,,,,,,,,,,,,,,,,Y,174,star,1,0,,,,,,,,,,,,,,,,repeat,number,numRpt,k,0.9333,noRew,,,,,,0,44,0,44,0,1,,,,,,,,,,,,,,,,,
293326,2022-12-05_12h34.40.609,vts_reward_expectancy_bt,2022.2.4,Win32,61.50439756,Chrome,1920,1080,,,,,0,585,,,,,,,,,,,,,,,,,D,181,circle,1,0,,,,,,,,,,,,,,,,repeat,number,numRpt,k,0.5543,noRew,,,,,,0,45,0,45,0,1,,,,,,,,,,,,,,,,,
293326,2022-12-05_12h34.40.609,vts_reward_expectancy_bt,2022.2.4,Win32,61.50439756,Chrome,1920,1080,,,,,0,585,,,,,,,,,,,,,,,,,H,125,circle,1,0,,,,,,,,,,,,,,,,switch,letter,lettSwt,d,0.9304,noRew,,,,,,0,46,0,46,0,1,,,,,,,,,,,,,,,,,
293326,2022-12-05_12h34.40.609,vts_reward_expectancy_bt,2022.2.4,Win32,61.50439756,Chrome,1920,1080,,,,,0,585,,,,,,,,,,,,,,,,,B,167,hexagon,1,0,,,,,,,,,,,,,,,,repeat,letter,lettRpt,d,0.7722,noRew,,,,,,0,47,0,47,0,1,,,,,,,,,,,,,,,,,
293326,2022-12-05_12h34.40.609,vts_reward_expectancy_bt,2022.2.4,Win32,61.50439756,Chrome,1920,1080,,,,,0,585,,,,,,,,,,,,,,,,,U,174,circle,1,0,,,,,,,,,,,,,,,,repeat,letter,lettRpt,f,0.6141,noRew,,,,,,0,48,0,48,0,1,,,,,,,,,,,,,,,,,
293326,2022-12-05_12h34.40.609,vts_reward_expectancy_bt,2022.2.4,Win32,61.50439756,Chrome,1920,1080,,,,,0,585,,,,,,,,,,,,,,,,,H,167,hexagon,1,0,,,,,,,,,,,,,,,,switch,number,numSwt,k,1.0138,noRew,,,,,,0,49,0,49,0,1,,,,,,,,,,,,,,,,,
293326,2022-12-05_12h34.40.609,vts_reward_expectancy_bt,2022.2.4,Win32,61.50439756,Chrome,1920,1080,,,,,0,585,,,,,,,,,,,,,,,,,Y,146,triangle,1,0,,,,,,,,,,,,,,,,repeat,number,numRpt,j,0.6803,noRew,,,,,,0,50,0,50,0,1,,,,,,,,,,,,,,,,,
293326,2022-12-05_12h34.40.609,vts_reward_expectancy_bt,2022.2.4,Win32,61.50439756,Chrome,1920,1080,,,,,0,585,,,,,,,,,,,,,,,,,D,125,circle,1,0,,,,,,,,,,,,,,,,repeat,number,numRpt,j,0.8345,noRew,,,,,,0,51,0,51,0,1,,,,,,,,,,,,,,,,,
293326,2022-12-05_12h34.40.609,vts_reward_expectancy_bt,2022.2.4,Win32,61.50439756,Chrome,1920,1080,,,,,0,585,,,,,,,,,,,,,,,,,U,181,star,1,0,,,,,,,,,,,,,,,,repeat,number,numRpt,k,0.7014,noRew,,,,,,0,52,0,52,0,1,,,,,,,,,,,,,,,,,
293326,2022-12-05_12h34.40.609,vts_reward_expectancy_bt,2022.2.4,Win32,61.50439756,Chrome,1920,1080,,,,,0,585,,,,,,,,,,,,,,,,,F,146,triangle,1,0,,,,,,,,,,,,,,,,switch,letter,lettSwt,d,0.7307,noRew,,,,,,0,53,0,53,0,1,,,,,,,,,,,,,,,,,
293326,2022-12-05_12h34.40.609,vts_reward_expectancy_bt,2022.2.4,Win32,61.50439756,Chrome,1920,1080,,,,,0,585,,,,,,,,,,,,,,,,,D,125,star,1,0,,,,,,,,,,,,,,,,repeat,letter,lettRpt,d,1.0151,noRew,,,,,,0,54,0,54,0,1,,,,,,,,,,,,,,,,,
293326,2022-12-05_12h34.40.609,vts_reward_expectancy_bt,2022.2.4,Win32,61.50439756,Chrome,1920,1080,,,,,0,585,,,,,,,,,,,,,,,,,Y,139,triangle,1,0,,,,,,,,,,,,,,,,repeat,letter,lettRpt,f,0.7807,noRew,,,,,,0,55,0,55,0,1,,,,,,,,,,,,,,,,,
293326,2022-12-05_12h34.40.609,vts_reward_expectancy_bt,2022.2.4,Win32,61.50439756,Chrome,1920,1080,,,,,0,585,,,,,,,,,,,,,,,,,U,174,star,1,0,,,,,,,,,,,,,,,,repeat,letter,lettRpt,f,0.7892,noRew,,,,,,0,56,0,56,0,1,,,,,,,,,,,,,,,,,
293326,2022-12-05_12h34.40.609,vts_reward_expectancy_bt,2022.2.4,Win32,61.50439756,Chrome,1920,1080,,,,,0,585,,,,,,,,,,,,,,,,,Y,146,triangle,1,0,,,,,,,,,,,,,,,,repeat,letter,lettRpt,f,0.6147,noRew,,,,,,0,57,0,57,0,1,,,,,,,,,,,,,,,,,
293326,2022-12-05_12h34.40.609,vts_reward_expectancy_bt,2022.2.4,Win32,61.50439756,Chrome,1920,1080,,,,,0,585,,,,,,,,,,,,,,,,,B,181,hexagon,1,0,,,,,,,,,,,,,,,,repeat,letter,lettRpt,d,0.7543,noRew,,,,,,0,58,0,58,0,1,,,,,,,,,,,,,,,,,
293326,2022-12-05_12h34.40.609,vts_reward_expectancy_bt,2022.2.4,Win32,61.50439756,Chrome,1920,1080,,,,,0,585,,,,,,,,,,,,,,,,,S,139,circle,1,0,,,,,,,,,,,,,,,,switch,number,numSwt,j,0.6378,noRew,,,,,,0,59,0,59,0,1,,,,,,,,,,,,,,,,,
293326,2022-12-05_12h34.40.609,vts_reward_expectancy_bt,2022.2.4,Win32,61.50439756,Chrome,1920,1080,,,,,0,585,,,,,,,,,,,,,,,,,H,146,circle,1,0,,,,,,,,,,,,,,,,repeat,number,numRpt,j,0.6156,noRew,,,,,,0,60,0,60,0,1,,,,,,,,,,,,,,,,,
293326,2022-12-05_12h34.40.609,vts_reward_expectancy_bt,2022.2.4,Win32,61.50439756,Chrome,1920,1080,,,,,0,585,,,,,,,,,,,,,,,,,D,160,triangle,1,0,,,,,,,,,,,,,,,,repeat,number,numRpt,k,0.8827,noRew,,,,,,0,61,0,61,0,1,,,,,,,,,,,,,,,,,
293326,2022-12-05_12h34.40.609,vts_reward_expectancy_bt,2022.2.4,Win32,61.50439756,Chrome,1920,1080,,,,,0,585,,,,,,,,,,,,,,,,,B,181,star,1,0,,,,,,,,,,,,,,,,repeat,number,numRpt,k,0.9532,noRew,,,,,,0,62,0,62,0,1,,,,,,,,,,,,,,,,,
293326,2022-12-05_12h34.40.609,vts_reward_expectancy_bt,2022.2.4,Win32,61.50439756,Chrome,1920,1080,,,,,0,585,,,,,,,,,,,,,,,,,S,139,circle,1,0,,,,,,,,,,,,,,,,repeat,number,numRpt,j,0.7333,noRew,,,,,,0,63,0,63,0,1,,,,,,,,,,,,,,,,,
293326,2022-12-05_12h34.40.609,vts_reward_expectancy_bt,2022.2.4,Win32,61.50439756,Chrome,1920,1080,,,,,,,,,,,,,,,,,,,,,,,,,,,,,,,,,,,,,,,,,,,,,,,,,,,,,,,,,,,,,,,,,,,,,,,,,,,,
293326,2022-12-05_12h34.40.609,vts_reward_expectancy_bt,2022.2.4,Win32,61.50439756,Chrome,1920,1080,,,,,10,595,,,,,,,,,,,,,,,,,D,174,hexagon,1,0,,,,,,,,,,,,,,,,switch,letter,lettSwt,d,2.1103,Lo,,,,,,0,,,,,,space,10.8311,low,0,0,0,0,1,,,,,,,,,
293326,2022-12-05_12h34.40.609,vts_reward_expectancy_bt,2022.2.4,Win32,61.50439756,Chrome,1920,1080,,,,,0,595,,,,,,,,,,,,,,,,,W,125,circle,1,0,,,,,,,,,,,,,,,,repeat,letter,lettRpt,f,0.8515,Hi,,,,,,0,,,,,,,,low,1,0,1,0,1,,,,,,,,,
293326,2022-12-05_12h34.40.609,vts_reward_expectancy_bt,2022.2.4,Win32,61.50439756,Chrome,1920,1080,,,,,0,595,,,,,,,,,,,,,,,,,U,139,triangle,1,0,,,,,,,,,,,,,,,,repeat,letter,lettRpt,f,0.752,Hi,,,,,,0,,,,,,,,low,2,0,2,0,1,,,,,,,,,
293326,2022-12-05_12h34.40.609,vts_reward_expectancy_bt,2022.2.4,Win32,61.50439756,Chrome,1920,1080,,,,,1,596,,,,,,,,,,,,,,,,,S,167,star,1,0,,,,,,,,,,,,,,,,switch,number,numSwt,k,0.9189,Lo,,,,,,0,,,,,,,,low,3,0,3,0,1,,,,,,,,,
293326,2022-12-05_12h34.40.609,vts_reward_expectancy_bt,2022.2.4,Win32,61.50439756,Chrome,1920,1080,,,,,10,606,,,,,,,,,,,,,,,,,F,181,hexagon,1,0,,,,,,,,,,,,,,,,repeat,number,numRpt,k,0.5243,Lo,,,,,,0,,,,,,,,low,4,0,4,0,1,,,,,,,,,
293326,2022-12-05_12h34.40.609,vts_reward_expectancy_bt,2022.2.4,Win32,61.50439756,Chrome,1920,1080,,,,,1,607,,,,,,,,,,,,,,,,,H,146,circle,1,0,,,,,,,,,,,,,,,,repeat,number,numRpt,j,0.4188,Hi,,,,,,0,,,,,,,,low,5,0,5,0,1,,,,,,,,,
293326,2022-12-05_12h34.40.609,vts_reward_expectancy_bt,2022.2.4,Win32,61.50439756,Chrome,1920,1080,,,,,10,617,,,,,,,,,,,,,,,,,Y,132,triangle,1,0,,,,,,,,,,,,,,,,switch,letter,lettSwt,f,0.5865,Hi,,,,,,0,,,,,,,,low,6,0,6,0,1,,,,,,,,,
293326,2022-12-05_12h34.40.609,vts_reward_expectancy_bt,2022.2.4,Win32,61.50439756,Chrome,1920,1080,,,,,10,627,,,,,,,,,,,,,,,,,B,160,star,1,0,,,,,,,,,,,,,,,,repeat,letter,lettRpt,d,0.6536,Lo,,,,,,0,,,,,,,,low,7,0,7,0,1,,,,,,,,,
293326,2022-12-05_12h34.40.609,vts_reward_expectancy_bt,2022.2.4,Win32,61.50439756,Chrome,1920,1080,,,,,0,627,,,,,,,,,,,,,,,,,D,174,triangle,1,0,,,,,,,,,,,,,,,,repeat,letter,lettRpt,d,0.6531,Hi,,,,,,0,,,,,,,,low,8,0,8,0,1,,,,,,,,,
293326,2022-12-05_12h34.40.609,vts_reward_expectancy_bt,2022.2.4,Win32,61.50439756,Chrome,1920,1080,,,,,10,637,,,,,,,,,,,,,,,,,W,125,circle,1,0,,,,,,,,,,,,,,,,switch,number,numSwt,j,0.4623,Hi,,,,,,0,,,,,,,,low,9,0,9,0,1,,,,,,,,,
293326,2022-12-05_12h34.40.609,vts_reward_expectancy_bt,2022.2.4,Win32,61.50439756,Chrome,1920,1080,,,,,10,647,,,,,,,,,,,,,,,,,U,139,hexagon,1,0,,,,,,,,,,,,,,,,repeat,number,numRpt,j,0.6012,Lo,,,,,,0,,,,,,,,low,10,0,10,0,1,,,,,,,,,
293326,2022-12-05_12h34.40.609,vts_reward_expectancy_bt,2022.2.4,Win32,61.50439756,Chrome,1920,1080,,,,,1,648,,,,,,,,,,,,,,,,,S,167,star,1,0,,,,,,,,,,,,,,,,repeat,number,numRpt,k,0.8077,Lo,,,,,,0,,,,,,,,low,11,0,11,0,1,,,,,,,,,
293326,2022-12-05_12h34.40.609,vts_reward_expectancy_bt,2022.2.4,Win32,61.50439756,Chrome,1920,1080,,,,,10,658,,,,,,,,,,,,,,,,,F,181,triangle,1,0,,,,,,,,,,,,,,,,switch,letter,lettSwt,d,0.7691,Hi,,,,,,0,,,,,,,,low,12,0,12,0,1,,,,,,,,,
293326,2022-12-05_12h34.40.609,vts_reward_expectancy_bt,2022.2.4,Win32,61.50439756,Chrome,1920,1080,,,,,1,659,,,,,,,,,,,,,,,,,H,146,star,1,0,,,,,,,,,,,,,,,,switch,number,numSwt,j,0.8778,Lo,,,,,,0,,,,,,,,low,13,0,13,0,1,,,,,,,,,
293326,2022-12-05_12h34.40.609,vts_reward_expectancy_bt,2022.2.4,Win32,61.50439756,Chrome,1920,1080,,,,,10,669,,,,,,,,,,,,,,,,,Y,132,hexagon,1,0,,,,,,,,,,,,,,,,switch,letter,lettSwt,f,0.691,Lo,,,,,,0,,,,,,,,low,14,0,14,0,1,,,,,,,,,
293326,2022-12-05_12h34.40.609,vts_reward_expectancy_bt,2022.2.4,Win32,61.50439756,Chrome,1920,1080,,,,,10,679,,,,,,,,,,,,,,,,,B,160,circle,1,0,,,,,,,,,,,,,,,,switch,number,numSwt,k,0.4678,Hi,,,,,,0,,,,,,,,low,15,0,15,0,1,,,,,,,,,
293326,2022-12-05_12h34.40.609,vts_reward_expectancy_bt,2022.2.4,Win32,61.50439756,Chrome,1920,1080,,,,,10,689,,,,,,,,,,,,,,,,,F,132,circle,1,0,,,,,,,,,,,,,,,,switch,letter,lettSwt,d,0.685,Hi,,,,,,0,,,,,,,,low,16,0,16,0,1,,,,,,,,,
293326,2022-12-05_12h34.40.609,vts_reward_expectancy_bt,2022.2.4,Win32,61.50439756,Chrome,1920,1080,,,,,1,690,,,,,,,,,,,,,,,,,B,125,hexagon,1,0,,,,,,,,,,,,,,,,switch,number,numSwt,j,0.3765,Lo,,,,,,0,,,,,,,,low,17,0,17,0,1,,,,,,,,,
293326,2022-12-05_12h34.40.609,vts_reward_expectancy_bt,2022.2.4,Win32,61.50439756,Chrome,1920,1080,,,,,10,700,,,,,,,,,,,,,,,,,D,174,star,1,0,,,,,,,,,,,,,,,,repeat,number,numRpt,k,0.5845,Lo,,,,,,0,,,,,,,,low,18,0,18,0,1,,,,,,,,,
293326,2022-12-05_12h34.40.609,vts_reward_expectancy_bt,2022.2.4,Win32,61.50439756,Chrome,1920,1080,,,,,10,710,,,,,,,,,,,,,,,,,W,160,triangle,1,0,,,,,,,,,,,,,,,,switch,letter,lettSwt,f,0.6017,Hi,,,,,,0,,,,,,,,low,19,0,19,0,1,,,,,,,,,
293326,2022-12-05_12h34.40.609,vts_reward_expectancy_bt,2022.2.4,Win32,61.50439756,Chrome,1920,1080,,,,,0,710,,,,,,,,,,,,,,,,,U,167,circle,1,0,,,,,,,,,,,,,,,,repeat,letter,lettRpt,f,0.6849,Hi,,,,,,0,,,,,,,,low,20,0,20,0,1,,,,,,,,,
293326,2022-12-05_12h34.40.609,vts_reward_expectancy_bt,2022.2.4,Win32,61.50439756,Chrome,1920,1080,,,,,1,711,,,,,,,,,,,,,,,,,H,146,hexagon,1,0,,,,,,,,,,,,,,,,repeat,letter,lettRpt,d,0.6958,Lo,,,,,,0,,,,,,,,low,21,0,21,0,1,,,,,,,,,
293326,2022-12-05_12h34.40.609,vts_reward_expectancy_bt,2022.2.4,Win32,61.50439756,Chrome,1920,1080,,,,,1,712,,,,,,,,,,,,,,,,,S,181,star,1,0,,,,,,,,,,,,,,,,switch,number,numSwt,k,0.8385,Lo,,,,,,0,,,,,,,,low,22,0,22,0,1,,,,,,,,,
293326,2022-12-05_12h34.40.609,vts_reward_expectancy_bt,2022.2.4,Win32,61.50439756,Chrome,1920,1080,,,,,10,722,,,,,,,,,,,,,,,,,Y,139,triangle,1,0,,,,,,,,,,,,,,,,repeat,number,numRpt,j,0.5589,Hi,,,,,,0,,,,,,,,low,23,0,23,0,1,,,,,,,,,
293326,2022-12-05_12h34.40.609,vts_reward_expectancy_bt,2022.2.4,Win32,61.50439756,Chrome,1920,1080,,,,,10,732,,,,,,,,,,,,,,,,,W,174,circle,1,0,,,,,,,,,,,,,,,,repeat,number,numRpt,k,0.6587,Hi,,,,,,0,,,,,,,,low,24,0,24,0,1,,,,,,,,,
293326,2022-12-05_12h34.40.609,vts_reward_expectancy_bt,2022.2.4,Win32,61.50439756,Chrome,1920,1080,,,,,10,742,,,,,,,,,,,,,,,,,S,146,star,1,0,,,,,,,,,,,,,,,,repeat,number,numRpt,j,0.7082,Lo,,,,,,0,,,,,,,,low,25,0,25,0,1,,,,,,,,,
293326,2022-12-05_12h34.40.609,vts_reward_expectancy_bt,2022.2.4,Win32,61.50439756,Chrome,1920,1080,,,,,10,752,,,,,,,,,,,,,,,,,F,167,hexagon,1,0,,,,,,,,,,,,,,,,repeat,number,numRpt,k,0.7043,Lo,,,,,,0,,,,,,,,low,26,0,26,0,1,,,,,,,,,
293326,2022-12-05_12h34.40.609,vts_reward_expectancy_bt,2022.2.4,Win32,61.50439756,Chrome,1920,1080,,,,,1,753,,,,,,,,,,,,,,,,,U,139,triangle,1,0,,,,,,,,,,,,,,,,repeat,number,numRpt,j,0.4845,Hi,,,,,,0,,,,,,,,low,27,0,27,0,1,,,,,,,,,
293326,2022-12-05_12h34.40.609,vts_reward_expectancy_bt,2022.2.4,Win32,61.50439756,Chrome,1920,1080,,,,,0,753,,,,,,,,,,,,,,,,,D,181,triangle,1,0,,,,,,,,,,,,,,,,repeat,number,numRpt,k,0.7905,Hi,,,,,,0,,,,,,,,low,28,0,28,0,1,,,,,,,,,
293326,2022-12-05_12h34.40.609,vts_reward_expectancy_bt,2022.2.4,Win32,61.50439756,Chrome,1920,1080,,,,,1,754,,,,,,,,,,,,,,,,,B,132,star,1,0,,,,,,,,,,,,,,,,switch,letter,lettSwt,d,0.6246,Lo,,,,,,0,,,,,,,,low,29,0,29,0,1,,,,,,,,,
293326,2022-12-05_12h34.40.609,vts_reward_expectancy_bt,2022.2.4,Win32,61.50439756,Chrome,1920,1080,,,,,10,764,,,,,,,,,,,,,,,,,H,125,hexagon,1,0,,,,,,,,,,,,,,,,repeat,letter,lettRpt,d,0.7168,Lo,,,,,,0,,,,,,,,low,30,0,30,0,1,,,,,,,,,
293326,2022-12-05_12h34.40.609,vts_reward_expectancy_bt,2022.2.4,Win32,61.50439756,Chrome,1920,1080,,,,,0,764,,,,,,,,,,,,,,,,,Y,160,circle,1,0,,,,,,,,,,,,,,,,repeat,letter,lettRpt,f,0.6562,Hi,,,,,,0,,,,,,,,low,31,0,31,0,1,,,,,,,,,
293326,2022-12-05_12h34.40.609,vts_reward_expectancy_bt,2022.2.4,Win32,61.50439756,Chrome,1920,1080,,,,,10,774,,,,,,,,,,,,,,,,,F,160,star,1,0,,,,,,,,,,,,,,,,repeat,letter,lettRpt,d,0.8786,Lo,,,,,,1,,,,,,space,6.9202,low,0,0,0,0,1,,,,,,,,,
293326,2022-12-05_12h34.40.609,vts_reward_expectancy_bt,2022.2.4,Win32,61.50439756,Chrome,1920,1080,,,,,1,775,,,,,,,,,,,,,,,,,W,125,triangle,1,0,,,,,,,,,,,,,,,,repeat,letter,lettRpt,f,0.5348,Hi,,,,,,1,,,,,,,,low,1,0,1,0,1,,,,,,,,,
293326,2022-12-05_12h34.40.609,vts_reward_expectancy_bt,2022.2.4,Win32,61.50439756,Chrome,1920,1080,,,,,10,785,,,,,,,,,,,,,,,,,B,139,circle,1,0,,,,,,,,,,,,,,,,switch,number,numSwt,j,0.4268,Hi,,,,,,1,,,,,,,,low,2,0,2,0,1,,,,,,,,,
293326,2022-12-05_12h34.40.609,vts_reward_expectancy_bt,2022.2.4,Win32,61.50439756,Chrome,1920,1080,,,,,1,786,,,,,,,,,,,,,,,,,D,167,hexagon,1,0,,,,,,,,,,,,,,,,repeat,number,numRpt,k,1.0288,Lo,,,,,,1,,,,,,,,low,3,0,3,0,1,,,,,,,,,
293326,2022-12-05_12h34.40.609,vts_reward_expectancy_bt,2022.2.4,Win32,61.50439756,Chrome,1920,1080,,,,,1,787,,,,,,,,,,,,,,,,,S,146,star,1,0,,,,,,,,,,,,,,,,repeat,number,numRpt,j,0.4699,Lo,,,,,,1,,,,,,,,low,4,0,4,0,1,,,,,,,,,
293326,2022-12-05_12h34.40.609,vts_reward_expectancy_bt,2022.2.4,Win32,61.50439756,Chrome,1920,1080,,,,,0,787,,,,,,,,,,,,,,,,,U,132,triangle,1,0,,,,,,,,,,,,,,,,switch,letter,lettSwt,f,0.7181,Hi,,,,,,1,,,,,,,,low,5,0,5,0,1,,,,,,,,,
293326,2022-12-05_12h34.40.609,vts_reward_expectancy_bt,2022.2.4,Win32,61.50439756,Chrome,1920,1080,,,,,1,788,,,,,,,,,,,,,,,,,H,174,circle,1,0,,,,,,,,,,,,,,,,repeat,letter,lettRpt,d,0.6357,Hi,,,,,,1,,,,,,,,low,6,0,6,0,1,,,,,,,,,
293326,2022-12-05_12h34.40.609,vts_reward_expectancy_bt,2022.2.4,Win32,61.50439756,Chrome,1920,1080,,,,,10,798,,,,,,,,,,,,,,,,,Y,181,hexagon,1,0,,,,,,,,,,,,,,,,switch,number,numSwt,k,0.7685,Lo,,,,,,1,,,,,,,,low,7,0,7,0,1,,,,,,,,,
293326,2022-12-05_12h34.40.609,vts_reward_expectancy_bt,2022.2.4,Win32,61.50439756,Chrome,1920,1080,,,,,1,799,,,,,,,,,,,,,,,,,F,160,hexagon,1,0,,,,,,,,,,,,,,,,repeat,number,numRpt,k,0.8238,Lo,,,,,,1,,,,,,,,low,8,0,8,0,1,,,,,,,,,
293326,2022-12-05_12h34.40.609,vts_reward_expectancy_bt,2022.2.4,Win32,61.50439756,Chrome,1920,1080,,,,,0,799,,,,,,,,,,,,,,,,,W,125,triangle,1,0,,,,,,,,,,,,,,,,repeat,number,numRpt,j,0.6898,Hi,,,,,,1,,,,,,,,low,9,0,9,0,1,,,,,,,,,
293326,2022-12-05_12h34.40.609,vts_reward_expectancy_bt,2022.2.4,Win32,61.50439756,Chrome,1920,1080,,,,,1,800,,,,,,,,,,,,,,,,,B,139,star,1,0,,,,,,,,,,,,,,,,repeat,number,numRpt,j,0.7195,Lo,,,,,,1,,,,,,,,low,10,0,10,0,1,,,,,,,,,
293326,2022-12-05_12h34.40.609,vts_reward_expectancy_bt,2022.2.4,Win32,61.50439756,Chrome,1920,1080,,,,,0,800,,,,,,,,,,,,,,,,,D,167,circle,1,0,,,,,,,,,,,,,,,,switch,letter,lettSwt,d,0.6534,Hi,,,,,,1,,,,,,,,low,11,0,11,0,1,,,,,,,,,
293326,2022-12-05_12h34.40.609,vts_reward_expectancy_bt,2022.2.4,Win32,61.50439756,Chrome,1920,1080,,,,,10,810,,,,,,,,,,,,,,,,,S,146,hexagon,1,0,,,,,,,,,,,,,,,,repeat,letter,lettRpt,f,0.5091,Lo,,,,,,1,,,,,,,,low,12,0,12,0,1,,,,,,,,,
293326,2022-12-05_12h34.40.609,vts_reward_expectancy_bt,2022.2.4,Win32,61.50439756,Chrome,1920,1080,,,,,1,811,,,,,,,,,,,,,,,,,U,132,circle,1,0,,,,,,,,,,,,,,,,repeat,letter,lettRpt,f,0.5846,Hi,,,,,,1,,,,,,,,low,13,0,13,0,1,,,,,,,,,
293326,2022-12-05_12h34.40.609,vts_reward_expectancy_bt,2022.2.4,Win32,61.50439756,Chrome,1920,1080,,,,,1,812,,,,,,,,,,,,,,,,,H,174,star,1,0,,,,,,,,,,,,,,,,repeat,letter,lettRpt,d,0.7738,Lo,,,,,,1,,,,,,,,low,14,0,14,0,1,,,,,,,,,
293326,2022-12-05_12h34.40.609,vts_reward_expectancy_bt,2022.2.4,Win32,61.50439756,Chrome,1920,1080,,,,,0,812,,,,,,,,,,,,,,,,,Y,181,triangle,1,0,,,,,,,,,,,,,,,,switch,number,numSwt,k,0.6096,Hi,,,,,,1,,,,,,,,low,15,0,15,0,1,,,,,,,,,
293326,2022-12-05_12h34.40.609,vts_reward_expectancy_bt,2022.2.4,Win32,61.50439756,Chrome,1920,1080,,,,,1,813,,,,,,,,,,,,,,,,,B,167,hexagon,1,0,,,,,,,,,,,,,,,,repeat,number,numRpt,k,0.5516,Lo,,,,,,1,,,,,,,,low,16,0,16,0,1,,,,,,,,,
293326,2022-12-05_12h34.40.609,vts_reward_expectancy_bt,2022.2.4,Win32,61.50439756,Chrome,1920,1080,,,,,10,823,,,,,,,,,,,,,,,,,H,125,star,1,0,,,,,,,,,,,,,,,,repeat,number,numRpt,j,0.5684,Lo,,,,,,1,,,,,,,,low,17,0,17,0,1,,,,,,,,,
293326,2022-12-05_12h34.40.609,vts_reward_expectancy_bt,2022.2.4,Win32,61.50439756,Chrome,1920,1080,,,,,0,823,,,,,,,,,,,,,,,,,D,174,triangle,1,0,,,,,,,,,,,,,,,,repeat,number,numRpt,k,0.6849,Hi,,,,,,1,,,,,,,,low,18,0,18,0,1,,,,,,,,,
293326,2022-12-05_12h34.40.609,vts_reward_expectancy_bt,2022.2.4,Win32,61.50439756,Chrome,1920,1080,,,,,0,823,,,,,,,,,,,,,,,,,S,160,circle,1,0,,,,,,,,,,,,,,,,repeat,number,numRpt,k,1.8528,Hi,,,,,,1,,,,,,,,low,19,0,19,0,1,,,,,,,,,
293326,2022-12-05_12h34.40.609,vts_reward_expectancy_bt,2022.2.4,Win32,61.50439756,Chrome,1920,1080,,,,,1,824,,,,,,,,,,,,,,,,,F,181,star,1,0,,,,,,,,,,,,,,,,switch,letter,lettSwt,d,0.8362,Lo,,,,,,1,,,,,,,,low,20,0,20,0,1,,,,,,,,,
293326,2022-12-05_12h34.40.609,vts_reward_expectancy_bt,2022.2.4,Win32,61.50439756,Chrome,1920,1080,,,,,1,825,,,,,,,,,,,,,,,,,U,132,hexagon,1,0,,,,,,,,,,,,,,,,repeat,letter,lettRpt,f,1.7412,Lo,,,,,,1,,,,,,,,low,21,0,21,0,1,,,,,,,,,
293326,2022-12-05_12h34.40.609,vts_reward_expectancy_bt,2022.2.4,Win32,61.50439756,Chrome,1920,1080,,,,,0,825,,,,,,,,,,,,,,,,,Y,139,triangle,1,0,,,,,,,,,,,,,,,,switch,number,numSwt,j,0.738,Hi,,,,,,1,,,,,,,,low,22,0,22,0,1,,,,,,,,,
293326,2022-12-05_12h34.40.609,vts_reward_expectancy_bt,2022.2.4,Win32,61.50439756,Chrome,1920,1080,,,,,0,825,,,,,,,,,,,,,,,,,W,146,circle,1,0,,,,,,,,,,,,,,,,repeat,number,numRpt,j,0.6544,Hi,,,,,,1,,,,,,,,low,23,0,23,0,1,,,,,,,,,
293326,2022-12-05_12h34.40.609,vts_reward_expectancy_bt,2022.2.4,Win32,61.50439756,Chrome,1920,1080,,,,,10,835,,,,,,,,,,,,,,,,,D,146,star,1,0,,,,,,,,,,,,,,,,switch,letter,lettSwt,d,0.6258,Lo,,,,,,1,,,,,,,,low,24,0,24,0,1,,,,,,,,,
293326,2022-12-05_12h34.40.609,vts_reward_expectancy_bt,2022.2.4,Win32,61.50439756,Chrome,1920,1080,,,,,1,836,,,,,,,,,,,,,,,,,Y,174,triangle,1,0,,,,,,,,,,,,,,,,repeat,letter,lettRpt,f,0.5966,Hi,,,,,,1,,,,,,,,low,25,0,25,0,1,,,,,,,,,
293326,2022-12-05_12h34.40.609,vts_reward_expectancy_bt,2022.2.4,Win32,61.50439756,Chrome,1920,1080,,,,,10,846,,,,,,,,,,,,,,,,,H,132,hexagon,1,0,,,,,,,,,,,,,,,,repeat,letter,lettRpt,d,1.2514,Lo,,,,,,1,,,,,,,,low,26,0,26,0,1,,,,,,,,,
293326,2022-12-05_12h34.40.609,vts_reward_expectancy_bt,2022.2.4,Win32,61.50439756,Chrome,1920,1080,,,,,0,846,,,,,,,,,,,,,,,,,U,160,circle,1,0,,,,,,,,,,,,,,,,repeat,letter,lettRpt,f,0.8471,Hi,,,,,,1,,,,,,,,low,27,0,27,0,1,,,,,,,,,
293326,2022-12-05_12h34.40.609,vts_reward_expectancy_bt,2022.2.4,Win32,61.50439756,Chrome,1920,1080,,,,,0,846,,,,,,,,,,,,,,,,,F,125,triangle,1,0,,,,,,,,,,,,,,,,switch,number,numSwt,j,0.5644,Hi,,,,,,1,,,,,,,,low,28,0,28,0,1,,,,,,,,,
293326,2022-12-05_12h34.40.609,vts_reward_expectancy_bt,2022.2.4,Win32,61.50439756,Chrome,1920,1080,,,,,1,847,,,,,,,,,,,,,,,,,W,139,circle,1,0,,,,,,,,,,,,,,,,repeat,number,numRpt,j,0.5207,Hi,,,,,,1,,,,,,,,low,29,0,29,0,1,,,,,,,,,
293326,2022-12-05_12h34.40.609,vts_reward_expectancy_bt,2022.2.4,Win32,61.50439756,Chrome,1920,1080,,,,,1,848,,,,,,,,,,,,,,,,,B,181,hexagon,1,0,,,,,,,,,,,,,,,,repeat,number,numRpt,k,0.6549,Lo,,,,,,1,,,,,,,,low,30,0,30,0,1,,,,,,,,,
293326,2022-12-05_12h34.40.609,vts_reward_expectancy_bt,2022.2.4,Win32,61.50439756,Chrome,1920,1080,,,,,1,849,,,,,,,,,,,,,,,,,S,167,star,1,0,,,,,,,,,,,,,,,,switch,letter,lettSwt,f,1.1833,Lo,,,,,,1,,,,,,,,low,31,0,31,0,1,,,,,,,,,
293326,2022-12-05_12h34.40.609,vts_reward_expectancy_bt,2022.2.4,Win32,61.50439756,Chrome,1920,1080,,,,,0,849,,,,,,,,,,,,,,,,,F,160,triangle,1,0,,,,,,,,,,,,,,,,repeat,letter,lettRpt,d,0.8975,Hi,,,,,,2,,,,,,space,2.2684,low,0,0,0,0,1,,,,,,,,,
293326,2022-12-05_12h34.40.609,vts_reward_expectancy_bt,2022.2.4,Win32,61.50439756,Chrome,1920,1080,,,,,1,850,,,,,,,,,,,,,,,,,D,146,hexagon,1,0,,,,,,,,,,,,,,,,repeat,letter,lettRpt,d,0.4865,Lo,,,,,,2,,,,,,,,low,1,0,1,0,1,,,,,,,,,
293326,2022-12-05_12h34.40.609,vts_reward_expectancy_bt,2022.2.4,Win32,61.50439756,Chrome,1920,1080,,,,,10,860,,,,,,,,,,,,,,,,,W,125,star,1,0,,,,,,,,,,,,,,,,repeat,letter,lettRpt,f,0.5885,Lo,,,,,,2,,,,,,,,low,2,0,2,0,1,,,,,,,,,
293326,2022-12-05_12h34.40.609,vts_reward_expectancy_bt,2022.2.4,Win32,61.50439756,Chrome,1920,1080,,,,,0,860,,,,,,,,,,,,,,,,,H,174,circle,1,0,,,,,,,,,,,,,,,,repeat,letter,lettRpt,d,0.9307,Hi,,,,,,2,,,,,,,,low,3,0,3,0,1,,,,,,,,,
293326,2022-12-05_12h34.40.609,vts_reward_expectancy_bt,2022.2.4,Win32,61.50439756,Chrome,1920,1080,,,,,10,870,,,,,,,,,,,,,,,,,U,181,triangle,1,0,,,,,,,,,,,,,,,,repeat,letter,lettRpt,f,0.581,Hi,,,,,,2,,,,,,,,low,4,0,4,0,1,,,,,,,,,
293326,2022-12-05_12h34.40.609,vts_reward_expectancy_bt,2022.2.4,Win32,61.50439756,Chrome,1920,1080,,,,,1,871,,,,,,,,,,,,,,,,,Y,132,hexagon,1,0,,,,,,,,,,,,,,,,switch,number,numSwt,j,0.6969,Lo,,,,,,2,,,,,,,,low,5,0,5,0,1,,,,,,,,,
293326,2022-12-05_12h34.40.609,vts_reward_expectancy_bt,2022.2.4,Win32,61.50439756,Chrome,1920,1080,,,,,1,872,,,,,,,,,,,,,,,,,B,167,star,1,0,,,,,,,,,,,,,,,,repeat,number,numRpt,k,0.7806,Lo,,,,,,2,,,,,,,,low,6,0,6,0,1,,,,,,,,,
293326,2022-12-05_12h34.40.609,vts_reward_expectancy_bt,2022.2.4,Win32,61.50439756,Chrome,1920,1080,,,,,10,882,,,,,,,,,,,,,,,,,S,139,circle,1,0,,,,,,,,,,,,,,,,repeat,number,numRpt,j,0.5306,Hi,,,,,,2,,,,,,,,low,7,0,7,0,1,,,,,,,,,
293326,2022-12-05_12h34.40.609,vts_reward_expectancy_bt,2022.2.4,Win32,61.50439756,Chrome,1920,1080,,,,,1,883,,,,,,,,,,,,,,,,,F,160,star,1,0,,,,,,,,,,,,,,,,repeat,number,numRpt,k,0.6806,Lo,,,,,,2,,,,,,,,low,8,0,8,0,1,,,,,,,,,
293326,2022-12-05_12h34.40.609,vts_reward_expectancy_bt,2022.2.4,Win32,61.50439756,Chrome,1920,1080,,,,,0,883,,,,,,,,,,,,,,,,,D,146,circle,1,0,,,,,,,,,,,,,,,,switch,letter,lettSwt,d,1.0315,Hi,,,,,,2,,,,,,,,low,9,0,9,0,1,,,,,,,,,
293326,2022-12-05_12h34.40.609,vts_reward_expectancy_bt,2022.2.4,Win32,61.50439756,Chrome,1920,1080,,,,,0,883,,,,,,,,,,,,,,,,,W,125,triangle,1,0,,,,,,,,,,,,,,,,repeat,letter,lettRpt,f,0.6975,Hi,,,,,,2,,,,,,,,low,10,0,10,0,1,,,,,,,,,
293326,2022-12-05_12h34.40.609,vts_reward_expectancy_bt,2022.2.4,Win32,61.50439756,Chrome,1920,1080,,,,,1,884,,,,,,,,,,,,,,,,,H,174,hexagon,1,0,,,,,,,,,,,,,,,,switch,number,numSwt,k,0.5834,Lo,,,,,,2,,,,,,,,low,11,0,11,0,1,,,,,,,,,
293326,2022-12-05_12h34.40.609,vts_reward_expectancy_bt,2022.2.4,Win32,61.50439756,Chrome,1920,1080,,,,,0,884,,,,,,,,,,,,,,,,,U,181,circle,1,0,,,,,,,,,,,,,,,,switch,letter,lettSwt,f,0.7806,Hi,,,,,,2,,,,,,,,low,12,0,12,0,1,,,,,,,,,
293326,2022-12-05_12h34.40.609,vts_reward_expectancy_bt,2022.2.4,Win32,61.50439756,Chrome,1920,1080,,,,,0,884,,,,,,,,,,,,,,,,,Y,132,triangle,1,0,,,,,,,,,,,,,,,,repeat,letter,lettRpt,f,0.7636,Hi,,,,,,2,,,,,,,,low,13,0,13,0,1,,,,,,,,,
293326,2022-12-05_12h34.40.609,vts_reward_expectancy_bt,2022.2.4,Win32,61.50439756,Chrome,1920,1080,,,,,10,894,,,,,,,,,,,,,,,,,B,167,hexagon,1,0,,,,,,,,,,,,,,,,switch,number,numSwt,k,0.898,Lo,,,,,,2,,,,,,,,low,14,0,14,0,1,,,,,,,,,
293326,2022-12-05_12h34.40.609,vts_reward_expectancy_bt,2022.2.4,Win32,61.50439756,Chrome,1920,1080,,,,,1,895,,,,,,,,,,,,,,,,,S,139,star,1,0,,,,,,,,,,,,,,,,repeat,number,numRpt,j,0.7476,Lo,,,,,,2,,,,,,,,low,15,0,15,0,1,,,,,,,,,
293326,2022-12-05_12h34.40.609,vts_reward_expectancy_bt,2022.2.4,Win32,61.50439756,Chrome,1920,1080,,,,,10,905,,,,,,,,,,,,,,,,,H,139,hexagon,1,0,,,,,,,,,,,,,,,,repeat,number,numRpt,j,0.9033,Lo,,,,,,2,,,,,,,,low,16,0,16,0,1,,,,,,,,,
293326,2022-12-05_12h34.40.609,vts_reward_expectancy_bt,2022.2.4,Win32,61.50439756,Chrome,1920,1080,,,,,1,906,,,,,,,,,,,,,,,,,Y,181,star,1,0,,,,,,,,,,,,,,,,switch,letter,lettSwt,f,0.6204,Lo,,,,,,2,,,,,,,,low,17,0,17,0,1,,,,,,,,,
293326,2022-12-05_12h34.40.609,vts_reward_expectancy_bt,2022.2.4,Win32,61.50439756,Chrome,1920,1080,,,,,0,906,,,,,,,,,,,,,,,,,D,160,triangle,1,0,,,,,,,,,,,,,,,,repeat,letter,lettRpt,d,0.9308,Hi,,,,,,2,,,,,,,,low,18,0,18,0,1,,,,,,,,,
293326,2022-12-05_12h34.40.609,vts_reward_expectancy_bt,2022.2.4,Win32,61.50439756,Chrome,1920,1080,,,,,1,907,,,,,,,,,,,,,,,,,B,132,circle,1,0,,,,,,,,,,,,,,,,switch,number,numSwt,j,0.4501,Hi,,,,,,2,,,,,,,,low,19,0,19,0,1,,,,,,,,,
293326,2022-12-05_12h34.40.609,vts_reward_expectancy_bt,2022.2.4,Win32,61.50439756,Chrome,1920,1080,,,,,0,907,,,,,,,,,,,,,,,,,F,125,circle,1,0,,,,,,,,,,,,,,,,repeat,number,numRpt,j,0.7324,Hi,,,,,,2,,,,,,,,low,20,0,20,0,1,,,,,,,,,
293326,2022-12-05_12h34.40.609,vts_reward_expectancy_bt,2022.2.4,Win32,61.50439756,Chrome,1920,1080,,,,,1,908,,,,,,,,,,,,,,,,,S,174,star,1,0,,,,,,,,,,,,,,,,switch,letter,lettSwt,f,0.8306,Lo,,,,,,2,,,,,,,,low,21,0,21,0,1,,,,,,,,,
293326,2022-12-05_12h34.40.609,vts_reward_expectancy_bt,2022.2.4,Win32,61.50439756,Chrome,1920,1080,,,,,0,908,,,,,,,,,,,,,,,,,W,146,triangle,1,0,,,,,,,,,,,,,,,,repeat,letter,lettRpt,f,0.7057,Hi,,,,,,2,,,,,,,,low,22,0,22,0,1,,,,,,,,,
293326,2022-12-05_12h34.40.609,vts_reward_expectancy_bt,2022.2.4,Win32,61.50439756,Chrome,1920,1080,,,,,10,918,,,,,,,,,,,,,,,,,U,167,hexagon,1,0,,,,,,,,,,,,,,,,repeat,letter,lettRpt,f,0.6144,Lo,,,,,,2,,,,,,,,low,23,0,23,0,1,,,,,,,,,
293326,2022-12-05_12h34.40.609,vts_reward_expectancy_bt,2022.2.4,Win32,61.50439756,Chrome,1920,1080,,,,,1,919,,,,,,,,,,,,,,,,,F,132,hexagon,1,0,,,,,,,,,,,,,,,,switch,number,numSwt,j,0.547,Lo,,,,,,2,,,,,,,,low,24,0,24,0,1,,,,,,,,,
293326,2022-12-05_12h34.40.609,vts_reward_expectancy_bt,2022.2.4,Win32,61.50439756,Chrome,1920,1080,,,,,1,920,,,,,,,,,,,,,,,,,D,139,star,1,0,,,,,,,,,,,,,,,,repeat,number,numRpt,j,0.6515,Lo,,,,,,2,,,,,,,,low,25,0,25,0,1,,,,,,,,,
293326,2022-12-05_12h34.40.609,vts_reward_expectancy_bt,2022.2.4,Win32,61.50439756,Chrome,1920,1080,,,,,0,920,,,,,,,,,,,,,,,,,B,160,circle,1,0,,,,,,,,,,,,,,,,repeat,number,numRpt,k,0.8002,Hi,,,,,,2,,,,,,,,low,26,0,26,0,1,,,,,,,,,
293326,2022-12-05_12h34.40.609,vts_reward_expectancy_bt,2022.2.4,Win32,61.50439756,Chrome,1920,1080,,,,,1,921,,,,,,,,,,,,,,,,,Y,167,triangle,1,0,,,,,,,,,,,,,,,,repeat,number,numRpt,k,0.5504,Hi,,,,,,2,,,,,,,,low,27,0,27,0,1,,,,,,,,,
293326,2022-12-05_12h34.40.609,vts_reward_expectancy_bt,2022.2.4,Win32,61.50439756,Chrome,1920,1080,,,,,10,931,,,,,,,,,,,,,,,,,H,174,circle,1,0,,,,,,,,,,,,,,,,repeat,number,numRpt,k,0.5508,Hi,,,,,,2,,,,,,,,low,28,0,28,0,1,,,,,,,,,
293326,2022-12-05_12h34.40.609,vts_reward_expectancy_bt,2022.2.4,Win32,61.50439756,Chrome,1920,1080,,,,,1,932,,,,,,,,,,,,,,,,,U,125,triangle,1,0,,,,,,,,,,,,,,,,switch,letter,lettSwt,f,0.6033,Hi,,,,,,2,,,,,,,,low,29,0,29,0,1,,,,,,,,,
293326,2022-12-05_12h34.40.609,vts_reward_expectancy_bt,2022.2.4,Win32,61.50439756,Chrome,1920,1080,,,,,1,933,,,,,,,,,,,,,,,,,W,181,hexagon,1,0,,,,,,,,,,,,,,,,repeat,letter,lettRpt,f,0.4306,Lo,,,,,,2,,,,,,,,low,30,0,30,0,1,,,,,,,,,
293326,2022-12-05_12h34.40.609,vts_reward_expectancy_bt,2022.2.4,Win32,61.50439756,Chrome,1920,1080,,,,,1,934,,,,,,,,,,,,,,,,,S,146,star,1,0,,,,,,,,,,,,,,,,repeat,letter,lettRpt,f,0.7475,Lo,,,,,,2,,,,,,,,low,31,0,31,0,1,,,,,,,,,
293326,2022-12-05_12h34.40.609,vts_reward_expectancy_bt,2022.2.4,Win32,61.50439756,Chrome,1920,1080,,,,,0,934,,,,,,,,,,,,,,,,,D,174,circle,1,0,,,,,,,,,,,,,,,,repeat,letter,lettRpt,d,0.7463,Hi,,,,,,3,,,,,,space,9.1411,low,0,0,0,0,1,,,,,,,,,
293326,2022-12-05_12h34.40.609,vts_reward_expectancy_bt,2022.2.4,Win32,61.50439756,Chrome,1920,1080,,,,,1,935,,,,,,,,,,,,,,,,,W,125,hexagon,1,0,,,,,,,,,,,,,,,,repeat,letter,lettRpt,f,0.487,Lo,,,,,,3,,,,,,,,low,1,0,1,0,1,,,,,,,,,
293326,2022-12-05_12h34.40.609,vts_reward_expectancy_bt,2022.2.4,Win32,61.50439756,Chrome,1920,1080,,,,,0,935,,,,,,,,,,,,,,,,,S,146,triangle,1,0,,,,,,,,,,,,,,,,repeat,letter,lettRpt,f,0.686,Hi,,,,,,3,,,,,,,,low,2,0,2,0,1,,,,,,,,,
293326,2022-12-05_12h34.40.609,vts_reward_expectancy_bt,2022.2.4,Win32,61.50439756,Chrome,1920,1080,,,,,10,945,,,,,,,,,,,,,,,,,B,139,star,1,0,,,,,,,,,,,,,,,,repeat,letter,lettRpt,d,0.6543,Lo,,,,,,3,,,,,,,,low,3,0,3,0,1,,,,,,,,,
293326,2022-12-05_12h34.40.609,vts_reward_expectancy_bt,2022.2.4,Win32,61.50439756,Chrome,1920,1080,,,,,0,945,,,,,,,,,,,,,,,,,H,181,circle,1,0,,,,,,,,,,,,,,,,switch,number,numSwt,k,1.8718,Hi,,,,,,3,,,,,,,,low,4,0,4,0,1,,,,,,,,,
293326,2022-12-05_12h34.40.609,vts_reward_expectancy_bt,2022.2.4,Win32,61.50439756,Chrome,1920,1080,,,,,10,955,,,,,,,,,,,,,,,,,Y,132,hexagon,1,0,,,,,,,,,,,,,,,,repeat,number,numRpt,j,0.5802,Lo,,,,,,3,,,,,,,,low,5,0,5,0,1,,,,,,,,,
293326,2022-12-05_12h34.40.609,vts_reward_expectancy_bt,2022.2.4,Win32,61.50439756,Chrome,1920,1080,,,,,1,956,,,,,,,,,,,,,,,,,U,160,triangle,1,0,,,,,,,,,,,,,,,,repeat,number,numRpt,k,0.4975,Hi,,,,,,3,,,,,,,,low,6,0,6,0,1,,,,,,,,,
293326,2022-12-05_12h34.40.609,vts_reward_expectancy_bt,2022.2.4,Win32,61.50439756,Chrome,1920,1080,,,,,1,957,,,,,,,,,,,,,,,,,F,167,star,1,0,,,,,,,,,,,,,,,,repeat,number,numRpt,k,0.6479,Lo,,,,,,3,,,,,,,,low,7,0,7,0,1,,,,,,,,,
293326,2022-12-05_12h34.40.609,vts_reward_expectancy_bt,2022.2.4,Win32,61.50439756,Chrome,1920,1080,,,,,1,958,,,,,,,,,,,,,,,,,D,174,star,1,0,,,,,,,,,,,,,,,,switch,letter,lettSwt,d,0.5685,Lo,,,,,,3,,,,,,,,low,8,0,8,0,1,,,,,,,,,
293326,2022-12-05_12h34.40.609,vts_reward_expectancy_bt,2022.2.4,Win32,61.50439756,Chrome,1920,1080,,,,,0,958,,,,,,,,,,,,,,,,,W,125,triangle,1,0,,,,,,,,,,,,,,,,switch,number,numSwt,j,0.7475,Hi,,,,,,3,,,,,,,,low,9,0,9,0,1,,,,,,,,,
293326,2022-12-05_12h34.40.609,vts_reward_expectancy_bt,2022.2.4,Win32,61.50439756,Chrome,1920,1080,,,,,1,959,,,,,,,,,,,,,,,,,S,146,hexagon,1,0,,,,,,,,,,,,,,,,switch,letter,lettSwt,f,1.6475,Lo,,,,,,3,,,,,,,,low,10,0,10,0,1,,,,,,,,,
293326,2022-12-05_12h34.40.609,vts_reward_expectancy_bt,2022.2.4,Win32,61.50439756,Chrome,1920,1080,,,,,0,959,,,,,,,,,,,,,,,,,B,139,circle,1,0,,,,,,,,,,,,,,,,repeat,letter,lettRpt,d,0.7532,Hi,,,,,,3,,,,,,,,low,11,0,11,0,1,,,,,,,,,
293326,2022-12-05_12h34.40.609,vts_reward_expectancy_bt,2022.2.4,Win32,61.50439756,Chrome,1920,1080,,,,,10,969,,,,,,,,,,,,,,,,,H,181,hexagon,1,0,,,,,,,,,,,,,,,,repeat,letter,lettRpt,d,0.8143,Lo,,,,,,3,,,,,,,,low,12,0,12,0,1,,,,,,,,,
293326,2022-12-05_12h34.40.609,vts_reward_expectancy_bt,2022.2.4,Win32,61.50439756,Chrome,1920,1080,,,,,10,979,,,,,,,,,,,,,,,,,Y,132,star,1,0,,,,,,,,,,,,,,,,repeat,letter,lettRpt,f,0.5036,Lo,,,,,,3,,,,,,,,low,13,0,13,0,1,,,,,,,,,
293326,2022-12-05_12h34.40.609,vts_reward_expectancy_bt,2022.2.4,Win32,61.50439756,Chrome,1920,1080,,,,,0,979,,,,,,,,,,,,,,,,,U,160,circle,1,0,,,,,,,,,,,,,,,,switch,number,numSwt,k,0.8786,Hi,,,,,,3,,,,,,,,low,14,0,14,0,1,,,,,,,,,
293326,2022-12-05_12h34.40.609,vts_reward_expectancy_bt,2022.2.4,Win32,61.50439756,Chrome,1920,1080,,,,,0,979,,,,,,,,,,,,,,,,,F,167,triangle,1,0,,,,,,,,,,,,,,,,repeat,number,numRpt,k,0.6643,Hi,,,,,,3,,,,,,,,low,15,0,15,0,1,,,,,,,,,
293326,2022-12-05_12h34.40.609,vts_reward_expectancy_bt,2022.2.4,Win32,61.50439756,Chrome,1920,1080,,,,,0,979,,,,,,,,,,,,,,,,,D,139,triangle,1,0,,,,,,,,,,,,,,,,repeat,number,numRpt,j,0.768,Hi,,,,,,3,,,,,,,,low,16,0,16,0,1,,,,,,,,,
293326,2022-12-05_12h34.40.609,vts_reward_expectancy_bt,2022.2.4,Win32,61.50439756,Chrome,1920,1080,,,,,1,980,,,,,,,,,,,,,,,,,F,146,hexagon,1,0,,,,,,,,,,,,,,,,switch,letter,lettSwt,d,1.0311,Lo,,,,,,3,,,,,,,,low,17,0,17,0,1,,,,,,,,,
293326,2022-12-05_12h34.40.609,vts_reward_expectancy_bt,2022.2.4,Win32,61.50439756,Chrome,1920,1080,,,,,10,990,,,,,,,,,,,,,,,,,H,181,star,1,0,,,,,,,,,,,,,,,,switch,number,numSwt,k,0.5979,Lo,,,,,,3,,,,,,,,low,18,0,18,0,1,,,,,,,,,
293326,2022-12-05_12h34.40.609,vts_reward_expectancy_bt,2022.2.4,Win32,61.50439756,Chrome,1920,1080,,,,,0,990,,,,,,,,,,,,,,,,,Y,174,circle,1,0,,,,,,,,,,,,,,,,switch,letter,lettSwt,f,0.8849,Hi,,,,,,3,,,,,,,,low,19,0,19,0,1,,,,,,,,,
293326,2022-12-05_12h34.40.609,vts_reward_expectancy_bt,2022.2.4,Win32,61.50439756,Chrome,1920,1080,,,,,0,990,,,,,,,,,,,,,,,,,B,125,triangle,1,0,,,,,,,,,,,,,,,,switch,number,numSwt,j,0.6668,Hi,,,,,,3,,,,,,,,low,20,0,20,0,1,,,,,,,,,
293326,2022-12-05_12h34.40.609,vts_reward_expectancy_bt,2022.2.4,Win32,61.50439756,Chrome,1920,1080,,,,,10,1000,,,,,,,,,,,,,,,,,W,160,star,1,0,,,,,,,,,,,,,,,,switch,letter,lettSwt,f,1.3144,Lo,,,,,,3,,,,,,,,low,21,0,21,0,1,,,,,,,,,
293326,2022-12-05_12h34.40.609,vts_reward_expectancy_bt,2022.2.4,Win32,61.50439756,Chrome,1920,1080,,,,,10,1010,,,,,,,,,,,,,,,,,S,167,hexagon,1,0,,,,,,,,,,,,,,,,repeat,letter,lettRpt,f,0.6138,Lo,,,,,,3,,,,,,,,low,22,0,22,0,1,,,,,,,,,
293326,2022-12-05_12h34.40.609,vts_reward_expectancy_bt,2022.2.4,Win32,61.50439756,Chrome,1920,1080,,,,,0,1010,,,,,,,,,,,,,,,,,U,132,circle,1,0,,,,,,,,,,,,,,,,repeat,letter,lettRpt,f,0.7229,Hi,,,,,,3,,,,,,,,low,23,0,23,0,1,,,,,,,,,
293326,2022-12-05_12h34.40.609,vts_reward_expectancy_bt,2022.2.4,Win32,61.50439756,Chrome,1920,1080,,,,,10,1020,,,,,,,,,,,,,,,,,W,125,star,1,0,,,,,,,,,,,,,,,,repeat,letter,lettRpt,f,0.8,Lo,,,,,,3,,,,,,,,low,24,0,24,0,1,,,,,,,,,
293326,2022-12-05_12h34.40.609,vts_reward_expectancy_bt,2022.2.4,Win32,61.50439756,Chrome,1920,1080,,,,,0,1020,,,,,,,,,,,,,,,,,H,174,circle,1,0,,,,,,,,,,,,,,,,switch,number,numSwt,k,0.6031,Hi,,,,,,3,,,,,,,,low,25,0,25,0,1,,,,,,,,,
293326,2022-12-05_12h34.40.609,vts_reward_expectancy_bt,2022.2.4,Win32,61.50439756,Chrome,1920,1080,,,,,0,1020,,,,,,,,,,,,,,,,,F,146,triangle,1,0,,,,,,,,,,,,,,,,repeat,number,numRpt,j,0.654,Hi,,,,,,3,,,,,,,,low,26,0,26,0,1,,,,,,,,,
293326,2022-12-05_12h34.40.609,vts_reward_expectancy_bt,2022.2.4,Win32,61.50439756,Chrome,1920,1080,,,,,10,1030,,,,,,,,,,,,,,,,,S,139,hexagon,1,0,,,,,,,,,,,,,,,,repeat,number,numRpt,j,0.9641,Lo,,,,,,3,,,,,,,,low,27,0,27,0,1,,,,,,,,,
293326,2022-12-05_12h34.40.609,vts_reward_expectancy_bt,2022.2.4,Win32,61.50439756,Chrome,1920,1080,,,,,1,1031,,,,,,,,,,,,,,,,,Y,181,hexagon,1,0,,,,,,,,,,,,,,,,repeat,number,numRpt,k,0.6133,Lo,,,,,,3,,,,,,,,low,28,0,28,0,1,,,,,,,,,
293326,2022-12-05_12h34.40.609,vts_reward_expectancy_bt,2022.2.4,Win32,61.50439756,Chrome,1920,1080,,,,,10,1041,,,,,,,,,,,,,,,,,U,160,star,1,0,,,,,,,,,,,,,,,,repeat,number,numRpt,k,0.6138,Lo,,,,,,3,,,,,,,,low,29,0,29,0,1,,,,,,,,,
293326,2022-12-05_12h34.40.609,vts_reward_expectancy_bt,2022.2.4,Win32,61.50439756,Chrome,1920,1080,,,,,1,1042,,,,,,,,,,,,,,,,,B,132,circle,1,0,,,,,,,,,,,,,,,,switch,letter,lettSwt,d,0.552,Hi,,,,,,3,,,,,,,,low,30,0,30,0,1,,,,,,,,,
293326,2022-12-05_12h34.40.609,vts_reward_expectancy_bt,2022.2.4,Win32,61.50439756,Chrome,1920,1080,,,,,0,1042,,,,,,,,,,,,,,,,,D,167,triangle,1,0,,,,,,,,,,,,,,,,repeat,letter,lettRpt,d,0.7813,Hi,,,,,,3,,,,,,,,low,31,0,31,0,1,,,,,,,,,
293326,2022-12-05_12h34.40.609,vts_reward_expectancy_bt,2022.2.4,Win32,61.50439756,Chrome,1920,1080,,,,,0,1042,,,,,,,,,,,,,,,,,H,125,circle,1,0,,,,,,,,,,,,,,,,repeat,letter,lettRpt,d,0.8044,Hi,,,,,,4,,,,,,space,2.4671,low,0,0,0,0,1,,,,,,,,,
293326,2022-12-05_12h34.40.609,vts_reward_expectancy_bt,2022.2.4,Win32,61.50439756,Chrome,1920,1080,,,,,1,1043,,,,,,,,,,,,,,,,,S,139,star,1,0,,,,,,,,,,,,,,,,repeat,letter,lettRpt,f,0.6552,Lo,,,,,,4,,,,,,,,low,1,0,1,0,1,,,,,,,,,
293326,2022-12-05_12h34.40.609,vts_reward_expectancy_bt,2022.2.4,Win32,61.50439756,Chrome,1920,1080,,,,,0,1043,,,,,,,,,,,,,,,,,B,174,triangle,1,0,,,,,,,,,,,,,,,,switch,number,numSwt,k,1.2145,Hi,,,,,,4,,,,,,,,low,2,0,2,0,1,,,,,,,,,
293326,2022-12-05_12h34.40.609,vts_reward_expectancy_bt,2022.2.4,Win32,61.50439756,Chrome,1920,1080,,,,,10,1053,,,,,,,,,,,,,,,,,U,167,hexagon,1,0,,,,,,,,,,,,,,,,switch,letter,lettSwt,f,1.5312,Lo,,,,,,4,,,,,,,,low,3,0,3,0,1,,,,,,,,,
293326,2022-12-05_12h34.40.609,vts_reward_expectancy_bt,2022.2.4,Win32,61.50439756,Chrome,1920,1080,,,,,0,1053,,,,,,,,,,,,,,,,,D,132,circle,1,0,,,,,,,,,,,,,,,,repeat,letter,lettRpt,d,0.79,Hi,,,,,,4,,,,,,,,low,4,0,4,0,1,,,,,,,,,
293326,2022-12-05_12h34.40.609,vts_reward_expectancy_bt,2022.2.4,Win32,61.50439756,Chrome,1920,1080,,,,,1,1054,,,,,,,,,,,,,,,,,Y,146,star,1,0,,,,,,,,,,,,,,,,switch,number,numSwt,j,2.2912,Lo,,,,,,4,,,,,,,,low,5,0,5,0,1,,,,,,,,,
293326,2022-12-05_12h34.40.609,vts_reward_expectancy_bt,2022.2.4,Win32,61.50439756,Chrome,1920,1080,,,,,0,1054,,,,,,,,,,,,,,,,,W,160,triangle,1,0,,,,,,,,,,,,,,,,repeat,number,numRpt,k,0.7823,Hi,,,,,,4,,,,,,,,low,6,0,6,0,1,,,,,,,,,
293326,2022-12-05_12h34.40.609,vts_reward_expectancy_bt,2022.2.4,Win32,61.50439756,Chrome,1920,1080,,,,,10,1064,,,,,,,,,,,,,,,,,F,181,hexagon,1,0,,,,,,,,,,,,,,,,repeat,number,numRpt,k,1.098,Lo,,,,,,4,,,,,,,,low,7,0,7,0,1,,,,,,,,,
293326,2022-12-05_12h34.40.609,vts_reward_expectancy_bt,2022.2.4,Win32,61.50439756,Chrome,1920,1080,,,,,0,1064,,,,,,,,,,,,,,,,,H,125,triangle,1,0,,,,,,,,,,,,,,,,repeat,number,numRpt,j,0.9204,Hi,,,,,,4,,,,,,,,low,8,0,8,0,1,,,,,,,,,
293326,2022-12-05_12h34.40.609,vts_reward_expectancy_bt,2022.2.4,Win32,61.50439756,Chrome,1920,1080,,,,,10,1074,,,,,,,,,,,,,,,,,S,139,star,1,0,,,,,,,,,,,,,,,,repeat,number,numRpt,j,0.8144,Lo,,,,,,4,,,,,,,,low,9,0,9,0,1,,,,,,,,,
293326,2022-12-05_12h34.40.609,vts_reward_expectancy_bt,2022.2.4,Win32,61.50439756,Chrome,1920,1080,,,,,1,1075,,,,,,,,,,,,,,,,,B,174,hexagon,1,0,,,,,,,,,,,,,,,,repeat,number,numRpt,k,0.8723,Lo,,,,,,4,,,,,,,,low,10,0,10,0,1,,,,,,,,,
293326,2022-12-05_12h34.40.609,vts_reward_expectancy_bt,2022.2.4,Win32,61.50439756,Chrome,1920,1080,,,,,1,1076,,,,,,,,,,,,,,,,,U,167,circle,1,0,,,,,,,,,,,,,,,,switch,letter,lettSwt,f,0.5977,Hi,,,,,,4,,,,,,,,low,11,0,11,0,1,,,,,,,,,
293326,2022-12-05_12h34.40.609,vts_reward_expectancy_bt,2022.2.4,Win32,61.50439756,Chrome,1920,1080,,,,,0,1076,,,,,,,,,,,,,,,,,D,132,triangle,1,0,,,,,,,,,,,,,,,,repeat,letter,lettRpt,d,0.9314,Hi,,,,,,4,,,,,,,,low,12,0,12,0,1,,,,,,,,,
293326,2022-12-05_12h34.40.609,vts_reward_expectancy_bt,2022.2.4,Win32,61.50439756,Chrome,1920,1080,,,,,0,1076,,,,,,,,,,,,,,,,,Y,146,circle,1,0,,,,,,,,,,,,,,,,repeat,letter,lettRpt,f,0.731,Hi,,,,,,4,,,,,,,,low,13,0,13,0,1,,,,,,,,,
293326,2022-12-05_12h34.40.609,vts_reward_expectancy_bt,2022.2.4,Win32,61.50439756,Chrome,1920,1080,,,,,1,1077,,,,,,,,,,,,,,,,,W,160,hexagon,1,0,,,,,,,,,,,,,,,,repeat,letter,lettRpt,f,0.8054,Lo,,,,,,4,,,,,,,,low,14,0,14,0,1,,,,,,,,,
293326,2022-12-05_12h34.40.609,vts_reward_expectancy_bt,2022.2.4,Win32,61.50439756,Chrome,1920,1080,,,,,1,1078,,,,,,,,,,,,,,,,,F,181,star,1,0,,,,,,,,,,,,,,,,repeat,letter,lettRpt,d,0.8315,Lo,,,,,,4,,,,,,,,low,15,0,15,0,1,,,,,,,,,
293326,2022-12-05_12h34.40.609,vts_reward_expectancy_bt,2022.2.4,Win32,61.50439756,Chrome,1920,1080,,,,,0,1078,,,,,,,,,,,,,,,,,H,181,triangle,1,0,,,,,,,,,,,,,,,,switch,number,numSwt,k,1.4506,Hi,,,,,,4,,,,,,,,low,16,0,16,0,1,,,,,,,,,
293326,2022-12-05_12h34.40.609,vts_reward_expectancy_bt,2022.2.4,Win32,61.50439756,Chrome,1920,1080,,,,,1,1079,,,,,,,,,,,,,,,,,W,146,star,1,0,,,,,,,,,,,,,,,,switch,letter,lettSwt,f,1.5315,Lo,,,,,,4,,,,,,,,low,17,0,17,0,1,,,,,,,,,
293326,2022-12-05_12h34.40.609,vts_reward_expectancy_bt,2022.2.4,Win32,61.50439756,Chrome,1920,1080,,,,,0,1079,,,,,,,,,,,,,,,,,S,132,circle,1,0,,,,,,,,,,,,,,,,switch,number,numSwt,j,1.0976,Hi,,,,,,4,,,,,,,,low,18,0,18,0,1,,,,,,,,,
293326,2022-12-05_12h34.40.609,vts_reward_expectancy_bt,2022.2.4,Win32,61.50439756,Chrome,1920,1080,,,,,10,1089,,,,,,,,,,,,,,,,,B,167,hexagon,1,0,,,,,,,,,,,,,,,,switch,letter,lettSwt,d,1.2186,Lo,,,,,,4,,,,,,,,low,19,0,19,0,1,,,,,,,,,
293326,2022-12-05_12h34.40.609,vts_reward_expectancy_bt,2022.2.4,Win32,61.50439756,Chrome,1920,1080,,,,,0,1089,,,,,,,,,,,,,,,,,D,160,circle,1,0,,,,,,,,,,,,,,,,switch,number,numSwt,k,0.7653,Hi,,,,,,4,,,,,,,,low,20,0,20,0,1,,,,,,,,,
293326,2022-12-05_12h34.40.609,vts_reward_expectancy_bt,2022.2.4,Win32,61.50439756,Chrome,1920,1080,,,,,1,1090,,,,,,,,,,,,,,,,,U,174,star,1,0,,,,,,,,,,,,,,,,repeat,number,numRpt,k,0.6976,Lo,,,,,,4,,,,,,,,low,21,0,21,0,1,,,,,,,,,
293326,2022-12-05_12h34.40.609,vts_reward_expectancy_bt,2022.2.4,Win32,61.50439756,Chrome,1920,1080,,,,,10,1100,,,,,,,,,,,,,,,,,Y,139,triangle,1,0,,,,,,,,,,,,,,,,repeat,number,numRpt,j,0.4857,Hi,,,,,,4,,,,,,,,low,22,0,22,0,1,,,,,,,,,
293326,2022-12-05_12h34.40.609,vts_reward_expectancy_bt,2022.2.4,Win32,61.50439756,Chrome,1920,1080,,,,,1,1101,,,,,,,,,,,,,,,,,F,125,hexagon,1,0,,,,,,,,,,,,,,,,repeat,number,numRpt,j,0.5805,Lo,,,,,,4,,,,,,,,low,23,0,23,0,1,,,,,,,,,
293326,2022-12-05_12h34.40.609,vts_reward_expectancy_bt,2022.2.4,Win32,61.50439756,Chrome,1920,1080,,,,,1,1102,,,,,,,,,,,,,,,,,U,146,star,1,0,,,,,,,,,,,,,,,,switch,letter,lettSwt,f,0.8013,Lo,,,,,,4,,,,,,,,low,24,0,24,0,1,,,,,,,,,
293326,2022-12-05_12h34.40.609,vts_reward_expectancy_bt,2022.2.4,Win32,61.50439756,Chrome,1920,1080,,,,,10,1112,,,,,,,,,,,,,,,,,B,181,hexagon,1,0,,,,,,,,,,,,,,,,repeat,letter,lettRpt,d,0.8316,Lo,,,,,,4,,,,,,,,low,25,0,25,0,1,,,,,,,,,
293326,2022-12-05_12h34.40.609,vts_reward_expectancy_bt,2022.2.4,Win32,61.50439756,Chrome,1920,1080,,,,,1,1113,,,,,,,,,,,,,,,,,W,174,triangle,1,0,,,,,,,,,,,,,,,,repeat,letter,lettRpt,f,0.5336,Hi,,,,,,4,,,,,,,,low,26,0,26,0,1,,,,,,,,,
293326,2022-12-05_12h34.40.609,vts_reward_expectancy_bt,2022.2.4,Win32,61.50439756,Chrome,1920,1080,,,,,0,1113,,,,,,,,,,,,,,,,,D,139,circle,1,0,,,,,,,,,,,,,,,,repeat,letter,lettRpt,d,0.7839,Hi,,,,,,4,,,,,,,,low,27,0,27,0,1,,,,,,,,,
293326,2022-12-05_12h34.40.609,vts_reward_expectancy_bt,2022.2.4,Win32,61.50439756,Chrome,1920,1080,,,,,0,1113,,,,,,,,,,,,,,,,,S,160,circle,1,0,,,,,,,,,,,,,,,,repeat,letter,lettRpt,f,0.9326,Hi,,,,,,4,,,,,,,,low,28,0,28,0,1,,,,,,,,,
293326,2022-12-05_12h34.40.609,vts_reward_expectancy_bt,2022.2.4,Win32,61.50439756,Chrome,1920,1080,,,,,0,1113,,,,,,,,,,,,,,,,,F,125,triangle,1,0,,,,,,,,,,,,,,,,repeat,letter,lettRpt,d,0.8659,Hi,,,,,,4,,,,,,,,low,29,0,29,0,1,,,,,,,,,
293326,2022-12-05_12h34.40.609,vts_reward_expectancy_bt,2022.2.4,Win32,61.50439756,Chrome,1920,1080,,,,,10,1123,,,,,,,,,,,,,,,,,Y,167,star,1,0,,,,,,,,,,,,,,,,switch,number,numSwt,k,0.7864,Lo,,,,,,4,,,,,,,,low,30,0,30,0,1,,,,,,,,,
293326,2022-12-05_12h34.40.609,vts_reward_expectancy_bt,2022.2.4,Win32,61.50439756,Chrome,1920,1080,,,,,1,1124,,,,,,,,,,,,,,,,,H,132,hexagon,1,0,,,,,,,,,,,,,,,,repeat,number,numRpt,j,0.7656,Lo,,,,,,4,,,,,,,,low,31,0,31,0,1,,,,,,,,,
293326,2022-12-05_12h34.40.609,vts_reward_expectancy_bt,2022.2.4,Win32,61.50439756,Chrome,1920,1080,,,,,0,1124,,,,,,,,,,,,,,,,,W,146,triangle,1,0,,,,,,,,,,,,,,,,switch,letter,lettSwt,f,1.231,Hi,,,,,,5,,,,,,space,1.3386,low,0,0,0,0,1,,,,,,,,,
293326,2022-12-05_12h34.40.609,vts_reward_expectancy_bt,2022.2.4,Win32,61.50439756,Chrome,1920,1080,,,,,1,1125,,,,,,,,,,,,,,,,,S,125,star,1,0,,,,,,,,,,,,,,,,repeat,letter,lettRpt,f,0.714,Lo,,,,,,5,,,,,,,,low,1,0,1,0,1,,,,,,,,,
293326,2022-12-05_12h34.40.609,vts_reward_expectancy_bt,2022.2.4,Win32,61.50439756,Chrome,1920,1080,,,,,10,1135,,,,,,,,,,,,,,,,,U,160,hexagon,1,0,,,,,,,,,,,,,,,,switch,number,numSwt,k,0.764,Lo,,,,,,5,,,,,,,,low,2,0,2,0,1,,,,,,,,,
293326,2022-12-05_12h34.40.609,vts_reward_expectancy_bt,2022.2.4,Win32,61.50439756,Chrome,1920,1080,,,,,1,1136,,,,,,,,,,,,,,,,,B,132,circle,1,0,,,,,,,,,,,,,,,,switch,letter,lettSwt,d,0.5155,Hi,,,,,,5,,,,,,,,low,3,0,3,0,1,,,,,,,,,
293326,2022-12-05_12h34.40.609,vts_reward_expectancy_bt,2022.2.4,Win32,61.50439756,Chrome,1920,1080,,,,,0,1136,,,,,,,,,,,,,,,,,D,174,triangle,1,0,,,,,,,,,,,,,,,,repeat,letter,lettRpt,d,0.814,Hi,,,,,,5,,,,,,,,low,4,0,4,0,1,,,,,,,,,
293326,2022-12-05_12h34.40.609,vts_reward_expectancy_bt,2022.2.4,Win32,61.50439756,Chrome,1920,1080,,,,,10,1146,,,,,,,,,,,,,,,,,H,181,star,1,0,,,,,,,,,,,,,,,,switch,number,numSwt,k,0.663,Lo,,,,,,5,,,,,,,,low,5,0,5,0,1,,,,,,,,,
293326,2022-12-05_12h34.40.609,vts_reward_expectancy_bt,2022.2.4,Win32,61.50439756,Chrome,1920,1080,,,,,1,1147,,,,,,,,,,,,,,,,,F,167,hexagon,1,0,,,,,,,,,,,,,,,,repeat,number,numRpt,k,0.7999,Lo,,,,,,5,,,,,,,,low,6,0,6,0,1,,,,,,,,,
293326,2022-12-05_12h34.40.609,vts_reward_expectancy_bt,2022.2.4,Win32,61.50439756,Chrome,1920,1080,,,,,0,1147,,,,,,,,,,,,,,,,,Y,139,circle,1,0,,,,,,,,,,,,,,,,repeat,number,numRpt,j,0.8809,Hi,,,,,,5,,,,,,,,low,7,0,7,0,1,,,,,,,,,
293326,2022-12-05_12h34.40.609,vts_reward_expectancy_bt,2022.2.4,Win32,61.50439756,Chrome,1920,1080,,,,,10,1157,,,,,,,,,,,,,,,,,W,146,star,1,0,,,,,,,,,,,,,,,,repeat,number,numRpt,j,0.6145,Lo,,,,,,5,,,,,,,,low,8,0,8,0,1,,,,,,,,,
293326,2022-12-05_12h34.40.609,vts_reward_expectancy_bt,2022.2.4,Win32,61.50439756,Chrome,1920,1080,,,,,1,1158,,,,,,,,,,,,,,,,,S,125,triangle,1,0,,,,,,,,,,,,,,,,switch,letter,lettSwt,f,0.6304,Hi,,,,,,5,,,,,,,,low,9,0,9,0,1,,,,,,,,,
293326,2022-12-05_12h34.40.609,vts_reward_expectancy_bt,2022.2.4,Win32,61.50439756,Chrome,1920,1080,,,,,10,1168,,,,,,,,,,,,,,,,,U,160,hexagon,1,0,,,,,,,,,,,,,,,,repeat,letter,lettRpt,f,0.7967,Lo,,,,,,5,,,,,,,,low,10,0,10,0,1,,,,,,,,,
293326,2022-12-05_12h34.40.609,vts_reward_expectancy_bt,2022.2.4,Win32,61.50439756,Chrome,1920,1080,,,,,10,1178,,,,,,,,,,,,,,,,,B,132,circle,1,0,,,,,,,,,,,,,,,,repeat,letter,lettRpt,d,0.5971,Hi,,,,,,5,,,,,,,,low,11,0,11,0,1,,,,,,,,,
293326,2022-12-05_12h34.40.609,vts_reward_expectancy_bt,2022.2.4,Win32,61.50439756,Chrome,1920,1080,,,,,10,1188,,,,,,,,,,,,,,,,,D,174,hexagon,1,0,,,,,,,,,,,,,,,,repeat,letter,lettRpt,d,0.707,Lo,,,,,,5,,,,,,,,low,12,0,12,0,1,,,,,,,,,
293326,2022-12-05_12h34.40.609,vts_reward_expectancy_bt,2022.2.4,Win32,61.50439756,Chrome,1920,1080,,,,,0,1188,,,,,,,,,,,,,,,,,H,181,circle,1,0,,,,,,,,,,,,,,,,repeat,letter,lettRpt,d,1.065,Hi,,,,,,5,,,,,,,,low,13,0,13,0,1,,,,,,,,,
293326,2022-12-05_12h34.40.609,vts_reward_expectancy_bt,2022.2.4,Win32,61.50439756,Chrome,1920,1080,,,,,0,1188,,,,,,,,,,,,,,,,,F,167,triangle,1,0,,,,,,,,,,,,,,,,repeat,letter,lettRpt,d,1.1373,Hi,,,,,,5,,,,,,,,low,14,0,14,0,1,,,,,,,,,
293326,2022-12-05_12h34.40.609,vts_reward_expectancy_bt,2022.2.4,Win32,61.50439756,Chrome,1920,1080,,,,,10,1198,,,,,,,,,,,,,,,,,Y,139,star,1,0,,,,,,,,,,,,,,,,switch,number,numSwt,j,0.6866,Lo,,,,,,5,,,,,,,,low,15,0,15,0,1,,,,,,,,,
293326,2022-12-05_12h34.40.609,vts_reward_expectancy_bt,2022.2.4,Win32,61.50439756,Chrome,1920,1080,,,,,1,1199,,,,,,,,,,,,,,,,,D,174,hexagon,1,0,,,,,,,,,,,,,,,,repeat,number,numRpt,k,0.7342,Lo,,,,,,5,,,,,,,,low,16,0,16,0,1,,,,,,,,,
293326,2022-12-05_12h34.40.609,vts_reward_expectancy_bt,2022.2.4,Win32,61.50439756,Chrome,1920,1080,,,,,10,1209,,,,,,,,,,,,,,,,,F,181,circle,1,0,,,,,,,,,,,,,,,,repeat,number,numRpt,k,0.6026,Hi,,,,,,5,,,,,,,,low,17,0,17,0,1,,,,,,,,,
293326,2022-12-05_12h34.40.609,vts_reward_expectancy_bt,2022.2.4,Win32,61.50439756,Chrome,1920,1080,,,,,1,1210,,,,,,,,,,,,,,,,,W,167,star,1,0,,,,,,,,,,,,,,,,repeat,number,numRpt,k,0.5888,Lo,,,,,,5,,,,,,,,low,18,0,18,0,1,,,,,,,,,
293326,2022-12-05_12h34.40.609,vts_reward_expectancy_bt,2022.2.4,Win32,61.50439756,Chrome,1920,1080,,,,,1,1211,,,,,,,,,,,,,,,,,Y,125,triangle,1,0,,,,,,,,,,,,,,,,repeat,number,numRpt,j,0.4812,Hi,,,,,,5,,,,,,,,low,19,0,19,0,1,,,,,,,,,
293326,2022-12-05_12h34.40.609,vts_reward_expectancy_bt,2022.2.4,Win32,61.50439756,Chrome,1920,1080,,,,,10,1221,,,,,,,,,,,,,,,,,B,139,star,1,0,,,,,,,,,,,,,,,,switch,letter,lettSwt,d,0.5684,Lo,,,,,,5,,,,,,,,low,20,0,20,0,1,,,,,,,,,
293326,2022-12-05_12h34.40.609,vts_reward_expectancy_bt,2022.2.4,Win32,61.50439756,Chrome,1920,1080,,,,,10,1231,,,,,,,,,,,,,,,,,U,132,circle,1,0,,,,,,,,,,,,,,,,repeat,letter,lettRpt,f,0.6686,Hi,,,,,,5,,,,,,,,low,21,0,21,0,1,,,,,,,,,
293326,2022-12-05_12h34.40.609,vts_reward_expectancy_bt,2022.2.4,Win32,61.50439756,Chrome,1920,1080,,,,,10,1241,,,,,,,,,,,,,,,,,S,160,triangle,1,0,,,,,,,,,,,,,,,,switch,number,numSwt,k,0.7163,Hi,,,,,,5,,,,,,,,low,22,0,22,0,1,,,,,,,,,
293326,2022-12-05_12h34.40.609,vts_reward_expectancy_bt,2022.2.4,Win32,61.50439756,Chrome,1920,1080,,,,,10,1251,,,,,,,,,,,,,,,,,H,146,hexagon,1,0,,,,,,,,,,,,,,,,repeat,number,numRpt,j,0.8906,Lo,,,,,,5,,,,,,,,low,23,0,23,0,1,,,,,,,,,
293326,2022-12-05_12h34.40.609,vts_reward_expectancy_bt,2022.2.4,Win32,61.50439756,Chrome,1920,1080,,,,,1,1252,,,,,,,,,,,,,,,,,Y,174,star,1,0,,,,,,,,,,,,,,,,repeat,number,numRpt,k,0.5478,Lo,,,,,,5,,,,,,,,low,24,0,24,0,1,,,,,,,,,
293326,2022-12-05_12h34.40.609,vts_reward_expectancy_bt,2022.2.4,Win32,61.50439756,Chrome,1920,1080,,,,,1,1253,,,,,,,,,,,,,,,,,D,125,triangle,1,0,,,,,,,,,,,,,,,,switch,letter,lettSwt,d,0.698,Hi,,,,,,5,,,,,,,,low,25,0,25,0,1,,,,,,,,,
293326,2022-12-05_12h34.40.609,vts_reward_expectancy_bt,2022.2.4,Win32,61.50439756,Chrome,1920,1080,,,,,0,1253,,,,,,,,,,,,,,,,,H,167,circle,1,0,,,,,,,,,,,,,,,,repeat,letter,lettRpt,d,0.9172,Hi,,,,,,5,,,,,,,,low,26,0,26,0,1,,,,,,,,,
293326,2022-12-05_12h34.40.609,vts_reward_expectancy_bt,2022.2.4,Win32,61.50439756,Chrome,1920,1080,,,,,1,1254,,,,,,,,,,,,,,,,,F,160,hexagon,1,0,,,,,,,,,,,,,,,,repeat,letter,lettRpt,d,0.7308,Lo,,,,,,5,,,,,,,,low,27,0,27,0,1,,,,,,,,,
293326,2022-12-05_12h34.40.609,vts_reward_expectancy_bt,2022.2.4,Win32,61.50439756,Chrome,1920,1080,,,,,10,1264,,,,,,,,,,,,,,,,,S,146,hexagon,1,0,,,,,,,,,,,,,,,,switch,number,numSwt,j,0.9846,Lo,,,,,,5,,,,,,,,low,28,0,28,0,1,,,,,,,,,
293326,2022-12-05_12h34.40.609,vts_reward_expectancy_bt,2022.2.4,Win32,61.50439756,Chrome,1920,1080,,,,,0,1264,,,,,,,,,,,,,,,,,U,139,circle,1,0,,,,,,,,,,,,,,,,repeat,number,numRpt,j,0.764,Hi,,,,,,5,,,,,,,,low,29,0,29,0,1,,,,,,,,,
293326,2022-12-05_12h34.40.609,vts_reward_expectancy_bt,2022.2.4,Win32,61.50439756,Chrome,1920,1080,,,,,10,1274,,,,,,,,,,,,,,,,,W,181,star,1,0,,,,,,,,,,,,,,,,repeat,number,numRpt,k,0.9031,Lo,,,,,,5,,,,,,,,low,30,0,30,0,1,,,,,,,,,
293326,2022-12-05_12h34.40.609,vts_reward_expectancy_bt,2022.2.4,Win32,61.50439756,Chrome,1920,1080,,,,,0,1274,,,,,,,,,,,,,,,,,B,132,triangle,1,0,,,,,,,,,,,,,,,,repeat,number,numRpt,j,0.8977,Hi,,,,,,5,,,,,,,,low,31,0,31,0,1,,,,,,,,,
293326,2022-12-05_12h34.40.609,vts_reward_expectancy_bt,2022.2.4,Win32,61.50439756,Chrome,1920,1080,,,,,0,1274,,,,,,,,,,,,,,,,,H,146,triangle,1,0,,,,,,,,,,,,,,,,switch,letter,lettSwt,d,0.6473,Hi,,,,,,6,,,,,,space,5.802,low,0,0,0,0,1,,,,,,,,,
293326,2022-12-05_12h34.40.609,vts_reward_expectancy_bt,2022.2.4,Win32,61.50439756,Chrome,1920,1080,,,,,10,1284,,,,,,,,,,,,,,,,,S,160,hexagon,1,0,,,,,,,,,,,,,,,,repeat,letter,lettRpt,f,0.8384,Lo,,,,,,6,,,,,,,,low,1,0,1,0,1,,,,,,,,,
293326,2022-12-05_12h34.40.609,vts_reward_expectancy_bt,2022.2.4,Win32,61.50439756,Chrome,1920,1080,,,,,1,1285,,,,,,,,,,,,,,,,,F,167,star,1,0,,,,,,,,,,,,,,,,repeat,letter,lettRpt,d,0.4803,Lo,,,,,,6,,,,,,,,low,2,0,2,0,1,,,,,,,,,
293326,2022-12-05_12h34.40.609,vts_reward_expectancy_bt,2022.2.4,Win32,61.50439756,Chrome,1920,1080,,,,,10,1295,,,,,,,,,,,,,,,,,U,125,circle,1,0,,,,,,,,,,,,,,,,repeat,letter,lettRpt,f,0.6476,Hi,,,,,,6,,,,,,,,low,3,0,3,0,1,,,,,,,,,
293326,2022-12-05_12h34.40.609,vts_reward_expectancy_bt,2022.2.4,Win32,61.50439756,Chrome,1920,1080,,,,,0,1295,,,,,,,,,,,,,,,,,B,181,triangle,1,0,,,,,,,,,,,,,,,,switch,number,numSwt,k,0.8142,Hi,,,,,,6,,,,,,,,low,4,0,4,0,1,,,,,,,,,
293326,2022-12-05_12h34.40.609,vts_reward_expectancy_bt,2022.2.4,Win32,61.50439756,Chrome,1920,1080,,,,,1,1296,,,,,,,,,,,,,,,,,D,132,hexagon,1,0,,,,,,,,,,,,,,,,repeat,number,numRpt,j,0.6638,Lo,,,,,,6,,,,,,,,low,5,0,5,0,1,,,,,,,,,
