participant,date,expName,psychopyVersion,OS,frameRate,browser,xResolution,yResolution,key_resp.keys,key_resp.rt,training_resp.keys,training_resp.rt,points_trial,points_cumul,trainBlock,training.thisRepN,training.thisTrialN,training.thisN,training.thisIndex,training.ran,LTriangleOpac,LCircleOpac,LHexagonOpac,LStarOpac,RTriangleOpac,RCircleOpac,RHexagonOpac,RStarOpac,LShape_ID,RShape_ID,curr_topStim,curr_bottStim,curr_shape,acc,E1,target_resp_prac1.keys,pracBlock,task1_prac_trials.thisRepN,task1_prac_trials.thisTrialN,task1_prac_trials.thisN,task1_prac_trials.thisIndex,task1_prac_trials.ran,target_resp_prac1.rt,target_resp_prac2.keys,target_resp_prac2.rt,task2_praac_trials.thisRepN,task2_praac_trials.thisTrialN,task2_praac_trials.thisN,task2_praac_trials.thisIndex,task2_praac_trials.ran,alt,task,condition,target_resp.keys,target_resp.rt,rewCond,vts_practice_trials.thisRepN,vts_practice_trials.thisTrialN,vts_practice_trials.thisN,vts_practice_trials.thisIndex,vts_practice_trials.ran,blockNum,trials_norew.thisRepN,trials_norew.thisTrialN,trials_norew.thisN,trials_norew.thisIndex,trials_norew.ran,key_resp_2.keys,key_resp_2.rt,rewExpectancy,trials_rew.thisRepN,trials_rew.thisTrialN,trials_rew.thisN,trials_rew.thisIndex,trials_rew.ran,Q1,Q2,Q2_text,Q3,Q4,Q5_text,Q5,xRes,yRes
293443,2022-11-30_17h51.22.750,vts_reward_expectancy_bt,2022.2.4,MacIntel,60.04202942,Chrome,1440,900,,,,,,,,,,,,,,,,,,,,,,,,,,,,,,,,,,,,,,,,,,,,,,,,,,,,,,,,,,,,,,,,,,,,,,,,,,,,
293443,2022-11-30_17h51.22.750,vts_reward_expectancy_bt,2022.2.4,MacIntel,60.04202942,Chrome,1440,900,space,20.9281,,,,,,,,,,,,,,,,,,,,,,,,,,,,,,,,,,,,,,,,,,,,,,,,,,,,,,,,,,,,,,,,,,,,,,,,,,
293443,2022-11-30_17h51.22.750,vts_reward_expectancy_bt,2022.2.4,MacIntel,60.04202942,Chrome,1440,900,,,,,,,,,,,,,,,,,,,,,,,,,,,,,,,,,,,,,,,,,,,,,,,,,,,,,,,,,,,,,,,,,,,,,,,,,,,,
293443,2022-11-30_17h51.22.750,vts_reward_expectancy_bt,2022.2.4,MacIntel,60.04202942,Chrome,1440,900,,,a,1.8018,10,10,0,0,0,0,8,1,0,0,1,0,0,0,0,1,hexagon,star,,,,,,,,,,,,,,,,,,,,,,,,,,,,,,,,,,,,,,,,,,,,,,,,,,,,,,
293443,2022-11-30_17h51.22.750,vts_reward_expectancy_bt,2022.2.4,MacIntel,60.04202942,Chrome,1440,900,,,l,2.0686,10,20,0,0,1,1,10,1,0,0,0,1,0,1,0,0,star ,circle,,,,,,,,,,,,,,,,,,,,,,,,,,,,,,,,,,,,,,,,,,,,,,,,,,,,,,
293443,2022-11-30_17h51.22.750,vts_reward_expectancy_bt,2022.2.4,MacIntel,60.04202942,Chrome,1440,900,,,l,0.8149,10,30,0,0,2,2,9,1,0,0,0,1,1,0,0,0,star,triangle,,,,,,,,,,,,,,,,,,,,,,,,,,,,,,,,,,,,,,,,,,,,,,,,,,,,,,
293443,2022-11-30_17h51.22.750,vts_reward_expectancy_bt,2022.2.4,MacIntel,60.04202942,Chrome,1440,900,,,a,1.9802,1,31,0,0,3,3,4,1,0,1,0,0,0,0,1,0,circle,hexagon,,,,,,,,,,,,,,,,,,,,,,,,,,,,,,,,,,,,,,,,,,,,,,,,,,,,,,
293443,2022-11-30_17h51.22.750,vts_reward_expectancy_bt,2022.2.4,MacIntel,60.04202942,Chrome,1440,900,,,a,0.7798,1,32,0,0,4,4,5,1,0,1,0,0,0,0,0,1,circle,star,,,,,,,,,,,,,,,,,,,,,,,,,,,,,,,,,,,,,,,,,,,,,,,,,,,,,,
293443,2022-11-30_17h51.22.750,vts_reward_expectancy_bt,2022.2.4,MacIntel,60.04202942,Chrome,1440,900,,,l,1.7658,1,33,0,0,5,5,11,1,0,0,0,1,0,0,1,0,star,hexagon,,,,,,,,,,,,,,,,,,,,,,,,,,,,,,,,,,,,,,,,,,,,,,,,,,,,,,
293443,2022-11-30_17h51.22.750,vts_reward_expectancy_bt,2022.2.4,MacIntel,60.04202942,Chrome,1440,900,,,l,1.3183,10,43,0,0,6,6,3,1,0,1,0,0,1,0,0,0,circle,triangle,,,,,,,,,,,,,,,,,,,,,,,,,,,,,,,,,,,,,,,,,,,,,,,,,,,,,,
293443,2022-11-30_17h51.22.750,vts_reward_expectancy_bt,2022.2.4,MacIntel,60.04202942,Chrome,1440,900,,,l,1.4787,10,53,0,0,7,7,6,1,0,0,1,0,1,0,0,0,hexagon,triangle,,,,,,,,,,,,,,,,,,,,,,,,,,,,,,,,,,,,,,,,,,,,,,,,,,,,,,
293443,2022-11-30_17h51.22.750,vts_reward_expectancy_bt,2022.2.4,MacIntel,60.04202942,Chrome,1440,900,,,l,1.5444,10,63,0,0,8,8,1,1,1,0,0,0,0,0,1,0,triangle,hexagon,,,,,,,,,,,,,,,,,,,,,,,,,,,,,,,,,,,,,,,,,,,,,,,,,,,,,,
293443,2022-11-30_17h51.22.750,vts_reward_expectancy_bt,2022.2.4,MacIntel,60.04202942,Chrome,1440,900,,,a,2.2872,1,64,0,0,9,9,0,1,1,0,0,0,0,1,0,0,triangle,circle,,,,,,,,,,,,,,,,,,,,,,,,,,,,,,,,,,,,,,,,,,,,,,,,,,,,,,
293443,2022-11-30_17h51.22.750,vts_reward_expectancy_bt,2022.2.4,MacIntel,60.04202942,Chrome,1440,900,,,l,1.167,10,74,0,0,10,10,2,1,1,0,0,0,0,0,0,1,triangle,star,,,,,,,,,,,,,,,,,,,,,,,,,,,,,,,,,,,,,,,,,,,,,,,,,,,,,,
293443,2022-11-30_17h51.22.750,vts_reward_expectancy_bt,2022.2.4,MacIntel,60.04202942,Chrome,1440,900,,,a,1.2575,1,75,0,0,11,11,7,1,0,0,1,0,0,1,0,0,hexagon,circle,,,,,,,,,,,,,,,,,,,,,,,,,,,,,,,,,,,,,,,,,,,,,,,,,,,,,,
293443,2022-11-30_17h51.22.750,vts_reward_expectancy_bt,2022.2.4,MacIntel,60.04202942,Chrome,1440,900,,,l,1.3522,10,85,0,1,0,12,1,1,1,0,0,0,0,0,1,0,triangle,hexagon,,,,,,,,,,,,,,,,,,,,,,,,,,,,,,,,,,,,,,,,,,,,,,,,,,,,,,
293443,2022-11-30_17h51.22.750,vts_reward_expectancy_bt,2022.2.4,MacIntel,60.04202942,Chrome,1440,900,,,l,0.9168,1,86,0,1,1,13,7,1,0,0,1,0,0,1,0,0,hexagon,circle,,,,,,,,,,,,,,,,,,,,,,,,,,,,,,,,,,,,,,,,,,,,,,,,,,,,,,
293443,2022-11-30_17h51.22.750,vts_reward_expectancy_bt,2022.2.4,MacIntel,60.04202942,Chrome,1440,900,,,l,1.4194,10,96,0,1,2,14,4,1,0,1,0,0,0,0,1,0,circle,hexagon,,,,,,,,,,,,,,,,,,,,,,,,,,,,,,,,,,,,,,,,,,,,,,,,,,,,,,
293443,2022-11-30_17h51.22.750,vts_reward_expectancy_bt,2022.2.4,MacIntel,60.04202942,Chrome,1440,900,,,l,1.5729,10,106,0,1,3,15,3,1,0,1,0,0,1,0,0,0,circle,triangle,,,,,,,,,,,,,,,,,,,,,,,,,,,,,,,,,,,,,,,,,,,,,,,,,,,,,,
293443,2022-11-30_17h51.22.750,vts_reward_expectancy_bt,2022.2.4,MacIntel,60.04202942,Chrome,1440,900,,,a,2.0314,10,116,0,1,4,16,0,1,1,0,0,0,0,1,0,0,triangle,circle,,,,,,,,,,,,,,,,,,,,,,,,,,,,,,,,,,,,,,,,,,,,,,,,,,,,,,
293443,2022-11-30_17h51.22.750,vts_reward_expectancy_bt,2022.2.4,MacIntel,60.04202942,Chrome,1440,900,,,a,1.2234,10,126,0,1,5,17,10,1,0,0,0,1,0,1,0,0,star ,circle,,,,,,,,,,,,,,,,,,,,,,,,,,,,,,,,,,,,,,,,,,,,,,,,,,,,,,
293443,2022-11-30_17h51.22.750,vts_reward_expectancy_bt,2022.2.4,MacIntel,60.04202942,Chrome,1440,900,,,a,2.1447,10,136,0,1,6,18,2,1,1,0,0,0,0,0,0,1,triangle,star,,,,,,,,,,,,,,,,,,,,,,,,,,,,,,,,,,,,,,,,,,,,,,,,,,,,,,
293443,2022-11-30_17h51.22.750,vts_reward_expectancy_bt,2022.2.4,MacIntel,60.04202942,Chrome,1440,900,,,a,0.9042,10,146,0,1,7,19,8,1,0,0,1,0,0,0,0,1,hexagon,star,,,,,,,,,,,,,,,,,,,,,,,,,,,,,,,,,,,,,,,,,,,,,,,,,,,,,,
293443,2022-11-30_17h51.22.750,vts_reward_expectancy_bt,2022.2.4,MacIntel,60.04202942,Chrome,1440,900,,,a,1.1155,1,147,0,1,8,20,6,1,0,0,1,0,1,0,0,0,hexagon,triangle,,,,,,,,,,,,,,,,,,,,,,,,,,,,,,,,,,,,,,,,,,,,,,,,,,,,,,
293443,2022-11-30_17h51.22.750,vts_reward_expectancy_bt,2022.2.4,MacIntel,60.04202942,Chrome,1440,900,,,l,2.0673,10,157,0,1,9,21,9,1,0,0,0,1,1,0,0,0,star,triangle,,,,,,,,,,,,,,,,,,,,,,,,,,,,,,,,,,,,,,,,,,,,,,,,,,,,,,
293443,2022-11-30_17h51.22.750,vts_reward_expectancy_bt,2022.2.4,MacIntel,60.04202942,Chrome,1440,900,,,l,1.9848,10,167,0,1,10,22,11,1,0,0,0,1,0,0,1,0,star,hexagon,,,,,,,,,,,,,,,,,,,,,,,,,,,,,,,,,,,,,,,,,,,,,,,,,,,,,,
293443,2022-11-30_17h51.22.750,vts_reward_expectancy_bt,2022.2.4,MacIntel,60.04202942,Chrome,1440,900,,,l,0.8878,1,168,0,1,11,23,5,1,0,1,0,0,0,0,0,1,circle,star,,,,,,,,,,,,,,,,,,,,,,,,,,,,,,,,,,,,,,,,,,,,,,,,,,,,,,
293443,2022-11-30_17h51.22.750,vts_reward_expectancy_bt,2022.2.4,MacIntel,60.04202942,Chrome,1440,900,,,l,1.2193,1,169,0,2,0,24,10,1,0,0,0,1,0,1,0,0,star ,circle,,,,,,,,,,,,,,,,,,,,,,,,,,,,,,,,,,,,,,,,,,,,,,,,,,,,,,
293443,2022-11-30_17h51.22.750,vts_reward_expectancy_bt,2022.2.4,MacIntel,60.04202942,Chrome,1440,900,,,l,1.0806,10,179,0,2,1,25,11,1,0,0,0,1,0,0,1,0,star,hexagon,,,,,,,,,,,,,,,,,,,,,,,,,,,,,,,,,,,,,,,,,,,,,,,,,,,,,,
293443,2022-11-30_17h51.22.750,vts_reward_expectancy_bt,2022.2.4,MacIntel,60.04202942,Chrome,1440,900,,,a,0.6483,1,180,0,2,2,26,5,1,0,1,0,0,0,0,0,1,circle,star,,,,,,,,,,,,,,,,,,,,,,,,,,,,,,,,,,,,,,,,,,,,,,,,,,,,,,
293443,2022-11-30_17h51.22.750,vts_reward_expectancy_bt,2022.2.4,MacIntel,60.04202942,Chrome,1440,900,,,l,2.3232,1,181,0,2,3,27,4,1,0,1,0,0,0,0,1,0,circle,hexagon,,,,,,,,,,,,,,,,,,,,,,,,,,,,,,,,,,,,,,,,,,,,,,,,,,,,,,
293443,2022-11-30_17h51.22.750,vts_reward_expectancy_bt,2022.2.4,MacIntel,60.04202942,Chrome,1440,900,,,l,0.8256,1,182,0,2,4,28,7,1,0,0,1,0,0,1,0,0,hexagon,circle,,,,,,,,,,,,,,,,,,,,,,,,,,,,,,,,,,,,,,,,,,,,,,,,,,,,,,
293443,2022-11-30_17h51.22.750,vts_reward_expectancy_bt,2022.2.4,MacIntel,60.04202942,Chrome,1440,900,,,a,0.7761,10,192,0,2,5,29,1,1,1,0,0,0,0,0,1,0,triangle,hexagon,,,,,,,,,,,,,,,,,,,,,,,,,,,,,,,,,,,,,,,,,,,,,,,,,,,,,,
293443,2022-11-30_17h51.22.750,vts_reward_expectancy_bt,2022.2.4,MacIntel,60.04202942,Chrome,1440,900,,,l,0.5962,10,202,0,2,6,30,9,1,0,0,0,1,1,0,0,0,star,triangle,,,,,,,,,,,,,,,,,,,,,,,,,,,,,,,,,,,,,,,,,,,,,,,,,,,,,,
293443,2022-11-30_17h51.22.750,vts_reward_expectancy_bt,2022.2.4,MacIntel,60.04202942,Chrome,1440,900,,,l,0.7249,10,212,0,2,7,31,6,1,0,0,1,0,1,0,0,0,hexagon,triangle,,,,,,,,,,,,,,,,,,,,,,,,,,,,,,,,,,,,,,,,,,,,,,,,,,,,,,
293443,2022-11-30_17h51.22.750,vts_reward_expectancy_bt,2022.2.4,MacIntel,60.04202942,Chrome,1440,900,,,a,0.6324,10,222,0,2,8,32,0,1,1,0,0,0,0,1,0,0,triangle,circle,,,,,,,,,,,,,,,,,,,,,,,,,,,,,,,,,,,,,,,,,,,,,,,,,,,,,,
293443,2022-11-30_17h51.22.750,vts_reward_expectancy_bt,2022.2.4,MacIntel,60.04202942,Chrome,1440,900,,,l,0.9501,10,232,0,2,9,33,3,1,0,1,0,0,1,0,0,0,circle,triangle,,,,,,,,,,,,,,,,,,,,,,,,,,,,,,,,,,,,,,,,,,,,,,,,,,,,,,
293443,2022-11-30_17h51.22.750,vts_reward_expectancy_bt,2022.2.4,MacIntel,60.04202942,Chrome,1440,900,,,a,1.0357,10,242,0,2,10,34,8,1,0,0,1,0,0,0,0,1,hexagon,star,,,,,,,,,,,,,,,,,,,,,,,,,,,,,,,,,,,,,,,,,,,,,,,,,,,,,,
293443,2022-11-30_17h51.22.750,vts_reward_expectancy_bt,2022.2.4,MacIntel,60.04202942,Chrome,1440,900,,,a,1.2732,10,252,0,2,11,35,2,1,1,0,0,0,0,0,0,1,triangle,star,,,,,,,,,,,,,,,,,,,,,,,,,,,,,,,,,,,,,,,,,,,,,,,,,,,,,,
293443,2022-11-30_17h51.22.750,vts_reward_expectancy_bt,2022.2.4,MacIntel,60.04202942,Chrome,1440,900,,,l,2.1329,10,262,1,0,0,0,4,1,0,1,0,0,0,0,1,0,circle,hexagon,,,,,,,,,,,,,,,,,,,,,,,,,,,,,,,,,,,,,,,,,,,,,,,,,,,,,,
293443,2022-11-30_17h51.22.750,vts_reward_expectancy_bt,2022.2.4,MacIntel,60.04202942,Chrome,1440,900,,,l,1.3029,1,263,1,0,1,1,5,1,0,1,0,0,0,0,0,1,circle,star,,,,,,,,,,,,,,,,,,,,,,,,,,,,,,,,,,,,,,,,,,,,,,,,,,,,,,
293443,2022-11-30_17h51.22.750,vts_reward_expectancy_bt,2022.2.4,MacIntel,60.04202942,Chrome,1440,900,,,l,1.3211,10,273,1,0,2,2,3,1,0,1,0,0,1,0,0,0,circle,triangle,,,,,,,,,,,,,,,,,,,,,,,,,,,,,,,,,,,,,,,,,,,,,,,,,,,,,,
293443,2022-11-30_17h51.22.750,vts_reward_expectancy_bt,2022.2.4,MacIntel,60.04202942,Chrome,1440,900,,,l,0.5519,10,283,1,0,3,3,9,1,0,0,0,1,1,0,0,0,star,triangle,,,,,,,,,,,,,,,,,,,,,,,,,,,,,,,,,,,,,,,,,,,,,,,,,,,,,,
293443,2022-11-30_17h51.22.750,vts_reward_expectancy_bt,2022.2.4,MacIntel,60.04202942,Chrome,1440,900,,,a,0.6173,1,284,1,0,4,4,2,1,1,0,0,0,0,0,0,1,triangle,star,,,,,,,,,,,,,,,,,,,,,,,,,,,,,,,,,,,,,,,,,,,,,,,,,,,,,,
293443,2022-11-30_17h51.22.750,vts_reward_expectancy_bt,2022.2.4,MacIntel,60.04202942,Chrome,1440,900,,,l,0.9891,10,294,1,0,5,5,6,1,0,0,1,0,1,0,0,0,hexagon,triangle,,,,,,,,,,,,,,,,,,,,,,,,,,,,,,,,,,,,,,,,,,,,,,,,,,,,,,
293443,2022-11-30_17h51.22.750,vts_reward_expectancy_bt,2022.2.4,MacIntel,60.04202942,Chrome,1440,900,,,l,1.9581,10,304,1,0,6,6,11,1,0,0,0,1,0,0,1,0,star,hexagon,,,,,,,,,,,,,,,,,,,,,,,,,,,,,,,,,,,,,,,,,,,,,,,,,,,,,,
293443,2022-11-30_17h51.22.750,vts_reward_expectancy_bt,2022.2.4,MacIntel,60.04202942,Chrome,1440,900,,,a,1.2338,10,314,1,0,7,7,10,1,0,0,0,1,0,1,0,0,star ,circle,,,,,,,,,,,,,,,,,,,,,,,,,,,,,,,,,,,,,,,,,,,,,,,,,,,,,,
293443,2022-11-30_17h51.22.750,vts_reward_expectancy_bt,2022.2.4,MacIntel,60.04202942,Chrome,1440,900,,,a,0.9162,1,315,1,0,8,8,7,1,0,0,1,0,0,1,0,0,hexagon,circle,,,,,,,,,,,,,,,,,,,,,,,,,,,,,,,,,,,,,,,,,,,,,,,,,,,,,,
293443,2022-11-30_17h51.22.750,vts_reward_expectancy_bt,2022.2.4,MacIntel,60.04202942,Chrome,1440,900,,,a,1.0913,1,316,1,0,9,9,1,1,1,0,0,0,0,0,1,0,triangle,hexagon,,,,,,,,,,,,,,,,,,,,,,,,,,,,,,,,,,,,,,,,,,,,,,,,,,,,,,
293443,2022-11-30_17h51.22.750,vts_reward_expectancy_bt,2022.2.4,MacIntel,60.04202942,Chrome,1440,900,,,a,1.0362,10,326,1,0,10,10,8,1,0,0,1,0,0,0,0,1,hexagon,star,,,,,,,,,,,,,,,,,,,,,,,,,,,,,,,,,,,,,,,,,,,,,,,,,,,,,,
293443,2022-11-30_17h51.22.750,vts_reward_expectancy_bt,2022.2.4,MacIntel,60.04202942,Chrome,1440,900,,,a,0.6489,10,336,1,0,11,11,0,1,1,0,0,0,0,1,0,0,triangle,circle,,,,,,,,,,,,,,,,,,,,,,,,,,,,,,,,,,,,,,,,,,,,,,,,,,,,,,
293443,2022-11-30_17h51.22.750,vts_reward_expectancy_bt,2022.2.4,MacIntel,60.04202942,Chrome,1440,900,,,l,1.9403,1,337,1,1,0,12,11,1,0,0,0,1,0,0,1,0,star,hexagon,,,,,,,,,,,,,,,,,,,,,,,,,,,,,,,,,,,,,,,,,,,,,,,,,,,,,,
293443,2022-11-30_17h51.22.750,vts_reward_expectancy_bt,2022.2.4,MacIntel,60.04202942,Chrome,1440,900,,,a,0.8213,10,347,1,1,1,13,1,1,1,0,0,0,0,0,1,0,triangle,hexagon,,,,,,,,,,,,,,,,,,,,,,,,,,,,,,,,,,,,,,,,,,,,,,,,,,,,,,
293443,2022-11-30_17h51.22.750,vts_reward_expectancy_bt,2022.2.4,MacIntel,60.04202942,Chrome,1440,900,,,a,0.9234,10,357,1,1,2,14,7,1,0,0,1,0,0,1,0,0,hexagon,circle,,,,,,,,,,,,,,,,,,,,,,,,,,,,,,,,,,,,,,,,,,,,,,,,,,,,,,
293443,2022-11-30_17h51.22.750,vts_reward_expectancy_bt,2022.2.4,MacIntel,60.04202942,Chrome,1440,900,,,a,0.7043,10,367,1,1,3,15,2,1,1,0,0,0,0,0,0,1,triangle,star,,,,,,,,,,,,,,,,,,,,,,,,,,,,,,,,,,,,,,,,,,,,,,,,,,,,,,
293443,2022-11-30_17h51.22.750,vts_reward_expectancy_bt,2022.2.4,MacIntel,60.04202942,Chrome,1440,900,,,a,0.8455,10,377,1,1,4,16,10,1,0,0,0,1,0,1,0,0,star ,circle,,,,,,,,,,,,,,,,,,,,,,,,,,,,,,,,,,,,,,,,,,,,,,,,,,,,,,
293443,2022-11-30_17h51.22.750,vts_reward_expectancy_bt,2022.2.4,MacIntel,60.04202942,Chrome,1440,900,,,l,1.4321,10,387,1,1,5,17,4,1,0,1,0,0,0,0,1,0,circle,hexagon,,,,,,,,,,,,,,,,,,,,,,,,,,,,,,,,,,,,,,,,,,,,,,,,,,,,,,
293443,2022-11-30_17h51.22.750,vts_reward_expectancy_bt,2022.2.4,MacIntel,60.04202942,Chrome,1440,900,,,l,1.22,1,388,1,1,6,18,9,1,0,0,0,1,1,0,0,0,star,triangle,,,,,,,,,,,,,,,,,,,,,,,,,,,,,,,,,,,,,,,,,,,,,,,,,,,,,,
293443,2022-11-30_17h51.22.750,vts_reward_expectancy_bt,2022.2.4,MacIntel,60.04202942,Chrome,1440,900,,,a,1.5706,10,398,1,1,7,19,8,1,0,0,1,0,0,0,0,1,hexagon,star,,,,,,,,,,,,,,,,,,,,,,,,,,,,,,,,,,,,,,,,,,,,,,,,,,,,,,
293443,2022-11-30_17h51.22.750,vts_reward_expectancy_bt,2022.2.4,MacIntel,60.04202942,Chrome,1440,900,,,l,0.8936,1,399,1,1,8,20,6,1,0,0,1,0,1,0,0,0,hexagon,triangle,,,,,,,,,,,,,,,,,,,,,,,,,,,,,,,,,,,,,,,,,,,,,,,,,,,,,,
293443,2022-11-30_17h51.22.750,vts_reward_expectancy_bt,2022.2.4,MacIntel,60.04202942,Chrome,1440,900,,,a,0.7236,10,409,1,1,9,21,0,1,1,0,0,0,0,1,0,0,triangle,circle,,,,,,,,,,,,,,,,,,,,,,,,,,,,,,,,,,,,,,,,,,,,,,,,,,,,,,
293443,2022-11-30_17h51.22.750,vts_reward_expectancy_bt,2022.2.4,MacIntel,60.04202942,Chrome,1440,900,,,l,1.3777,1,410,1,1,10,22,5,1,0,1,0,0,0,0,0,1,circle,star,,,,,,,,,,,,,,,,,,,,,,,,,,,,,,,,,,,,,,,,,,,,,,,,,,,,,,
293443,2022-11-30_17h51.22.750,vts_reward_expectancy_bt,2022.2.4,MacIntel,60.04202942,Chrome,1440,900,,,l,0.9355,10,420,1,1,11,23,3,1,0,1,0,0,1,0,0,0,circle,triangle,,,,,,,,,,,,,,,,,,,,,,,,,,,,,,,,,,,,,,,,,,,,,,,,,,,,,,
293443,2022-11-30_17h51.22.750,vts_reward_expectancy_bt,2022.2.4,MacIntel,60.04202942,Chrome,1440,900,,,a,0.5205,1,421,1,2,0,24,1,1,1,0,0,0,0,0,1,0,triangle,hexagon,,,,,,,,,,,,,,,,,,,,,,,,,,,,,,,,,,,,,,,,,,,,,,,,,,,,,,
293443,2022-11-30_17h51.22.750,vts_reward_expectancy_bt,2022.2.4,MacIntel,60.04202942,Chrome,1440,900,,,a,1.4808,1,422,1,2,1,25,10,1,0,0,0,1,0,1,0,0,star ,circle,,,,,,,,,,,,,,,,,,,,,,,,,,,,,,,,,,,,,,,,,,,,,,,,,,,,,,
293443,2022-11-30_17h51.22.750,vts_reward_expectancy_bt,2022.2.4,MacIntel,60.04202942,Chrome,1440,900,,,l,1.0062,10,432,1,2,2,26,9,1,0,0,0,1,1,0,0,0,star,triangle,,,,,,,,,,,,,,,,,,,,,,,,,,,,,,,,,,,,,,,,,,,,,,,,,,,,,,
293443,2022-11-30_17h51.22.750,vts_reward_expectancy_bt,2022.2.4,MacIntel,60.04202942,Chrome,1440,900,,,a,0.7202,10,442,1,2,3,27,2,1,1,0,0,0,0,0,0,1,triangle,star,,,,,,,,,,,,,,,,,,,,,,,,,,,,,,,,,,,,,,,,,,,,,,,,,,,,,,
293443,2022-11-30_17h51.22.750,vts_reward_expectancy_bt,2022.2.4,MacIntel,60.04202942,Chrome,1440,900,,,l,0.7914,10,452,1,2,4,28,6,1,0,0,1,0,1,0,0,0,hexagon,triangle,,,,,,,,,,,,,,,,,,,,,,,,,,,,,,,,,,,,,,,,,,,,,,,,,,,,,,
293443,2022-11-30_17h51.22.750,vts_reward_expectancy_bt,2022.2.4,MacIntel,60.04202942,Chrome,1440,900,,,l,0.8348,10,462,1,2,5,29,3,1,0,1,0,0,1,0,0,0,circle,triangle,,,,,,,,,,,,,,,,,,,,,,,,,,,,,,,,,,,,,,,,,,,,,,,,,,,,,,
293443,2022-11-30_17h51.22.750,vts_reward_expectancy_bt,2022.2.4,MacIntel,60.04202942,Chrome,1440,900,,,l,1.2703,10,472,1,2,6,30,8,1,0,0,1,0,0,0,0,1,hexagon,star,,,,,,,,,,,,,,,,,,,,,,,,,,,,,,,,,,,,,,,,,,,,,,,,,,,,,,
293443,2022-11-30_17h51.22.750,vts_reward_expectancy_bt,2022.2.4,MacIntel,60.04202942,Chrome,1440,900,,,a,1.1138,10,482,1,2,7,31,11,1,0,0,0,1,0,0,1,0,star,hexagon,,,,,,,,,,,,,,,,,,,,,,,,,,,,,,,,,,,,,,,,,,,,,,,,,,,,,,
293443,2022-11-30_17h51.22.750,vts_reward_expectancy_bt,2022.2.4,MacIntel,60.04202942,Chrome,1440,900,,,l,0.7201,10,492,1,2,8,32,5,1,0,1,0,0,0,0,0,1,circle,star,,,,,,,,,,,,,,,,,,,,,,,,,,,,,,,,,,,,,,,,,,,,,,,,,,,,,,
293443,2022-11-30_17h51.22.750,vts_reward_expectancy_bt,2022.2.4,MacIntel,60.04202942,Chrome,1440,900,,,a,0.8175,10,502,1,2,9,33,0,1,1,0,0,0,0,1,0,0,triangle,circle,,,,,,,,,,,,,,,,,,,,,,,,,,,,,,,,,,,,,,,,,,,,,,,,,,,,,,
293443,2022-11-30_17h51.22.750,vts_reward_expectancy_bt,2022.2.4,MacIntel,60.04202942,Chrome,1440,900,,,l,1.0268,10,512,1,2,10,34,4,1,0,1,0,0,0,0,1,0,circle,hexagon,,,,,,,,,,,,,,,,,,,,,,,,,,,,,,,,,,,,,,,,,,,,,,,,,,,,,,
293443,2022-11-30_17h51.22.750,vts_reward_expectancy_bt,2022.2.4,MacIntel,60.04202942,Chrome,1440,900,,,a,1.0324,1,513,1,2,11,35,7,1,0,0,1,0,0,1,0,0,hexagon,circle,,,,,,,,,,,,,,,,,,,,,,,,,,,,,,,,,,,,,,,,,,,,,,,,,,,,,,
293443,2022-11-30_17h51.22.750,vts_reward_expectancy_bt,2022.2.4,MacIntel,60.04202942,Chrome,1440,900,,,l,1.4835,1,514,2,0,0,0,9,1,0,0,0,1,1,0,0,0,star,triangle,,,,,,,,,,,,,,,,,,,,,,,,,,,,,,,,,,,,,,,,,,,,,,,,,,,,,,
293443,2022-11-30_17h51.22.750,vts_reward_expectancy_bt,2022.2.4,MacIntel,60.04202942,Chrome,1440,900,,,a,0.6488,1,515,2,0,1,1,10,1,0,0,0,1,0,1,0,0,star ,circle,,,,,,,,,,,,,,,,,,,,,,,,,,,,,,,,,,,,,,,,,,,,,,,,,,,,,,
293443,2022-11-30_17h51.22.750,vts_reward_expectancy_bt,2022.2.4,MacIntel,60.04202942,Chrome,1440,900,,,l,0.8671,1,516,2,0,2,2,2,1,1,0,0,0,0,0,0,1,triangle,star,,,,,,,,,,,,,,,,,,,,,,,,,,,,,,,,,,,,,,,,,,,,,,,,,,,,,,
293443,2022-11-30_17h51.22.750,vts_reward_expectancy_bt,2022.2.4,MacIntel,60.04202942,Chrome,1440,900,,,l,0.6222,10,526,2,0,3,3,6,1,0,0,1,0,1,0,0,0,hexagon,triangle,,,,,,,,,,,,,,,,,,,,,,,,,,,,,,,,,,,,,,,,,,,,,,,,,,,,,,
293443,2022-11-30_17h51.22.750,vts_reward_expectancy_bt,2022.2.4,MacIntel,60.04202942,Chrome,1440,900,,,l,1.1248,10,536,2,0,4,4,8,1,0,0,1,0,0,0,0,1,hexagon,star,,,,,,,,,,,,,,,,,,,,,,,,,,,,,,,,,,,,,,,,,,,,,,,,,,,,,,
293443,2022-11-30_17h51.22.750,vts_reward_expectancy_bt,2022.2.4,MacIntel,60.04202942,Chrome,1440,900,,,a,0.7921,1,537,2,0,5,5,1,1,1,0,0,0,0,0,1,0,triangle,hexagon,,,,,,,,,,,,,,,,,,,,,,,,,,,,,,,,,,,,,,,,,,,,,,,,,,,,,,
293443,2022-11-30_17h51.22.750,vts_reward_expectancy_bt,2022.2.4,MacIntel,60.04202942,Chrome,1440,900,,,a,0.9702,10,547,2,0,6,6,0,1,1,0,0,0,0,1,0,0,triangle,circle,,,,,,,,,,,,,,,,,,,,,,,,,,,,,,,,,,,,,,,,,,,,,,,,,,,,,,
293443,2022-11-30_17h51.22.750,vts_reward_expectancy_bt,2022.2.4,MacIntel,60.04202942,Chrome,1440,900,,,a,1.1307,10,557,2,0,7,7,7,1,0,0,1,0,0,1,0,0,hexagon,circle,,,,,,,,,,,,,,,,,,,,,,,,,,,,,,,,,,,,,,,,,,,,,,,,,,,,,,
293443,2022-11-30_17h51.22.750,vts_reward_expectancy_bt,2022.2.4,MacIntel,60.04202942,Chrome,1440,900,,,l,1.1634,10,567,2,0,8,8,4,1,0,1,0,0,0,0,1,0,circle,hexagon,,,,,,,,,,,,,,,,,,,,,,,,,,,,,,,,,,,,,,,,,,,,,,,,,,,,,,
293443,2022-11-30_17h51.22.750,vts_reward_expectancy_bt,2022.2.4,MacIntel,60.04202942,Chrome,1440,900,,,l,1.035,10,577,2,0,9,9,3,1,0,1,0,0,1,0,0,0,circle,triangle,,,,,,,,,,,,,,,,,,,,,,,,,,,,,,,,,,,,,,,,,,,,,,,,,,,,,,
293443,2022-11-30_17h51.22.750,vts_reward_expectancy_bt,2022.2.4,MacIntel,60.04202942,Chrome,1440,900,,,a,0.9559,1,578,2,0,10,10,11,1,0,0,0,1,0,0,1,0,star,hexagon,,,,,,,,,,,,,,,,,,,,,,,,,,,,,,,,,,,,,,,,,,,,,,,,,,,,,,
293443,2022-11-30_17h51.22.750,vts_reward_expectancy_bt,2022.2.4,MacIntel,60.04202942,Chrome,1440,900,,,l,1.2883,1,579,2,0,11,11,5,1,0,1,0,0,0,0,0,1,circle,star,,,,,,,,,,,,,,,,,,,,,,,,,,,,,,,,,,,,,,,,,,,,,,,,,,,,,,
293443,2022-11-30_17h51.22.750,vts_reward_expectancy_bt,2022.2.4,MacIntel,60.04202942,Chrome,1440,900,,,l,0.7147,10,589,2,1,0,12,3,1,0,1,0,0,1,0,0,0,circle,triangle,,,,,,,,,,,,,,,,,,,,,,,,,,,,,,,,,,,,,,,,,,,,,,,,,,,,,,
293443,2022-11-30_17h51.22.750,vts_reward_expectancy_bt,2022.2.4,MacIntel,60.04202942,Chrome,1440,900,,,l,2.1334,1,590,2,1,1,13,8,1,0,0,1,0,0,0,0,1,hexagon,star,,,,,,,,,,,,,,,,,,,,,,,,,,,,,,,,,,,,,,,,,,,,,,,,,,,,,,
293443,2022-11-30_17h51.22.750,vts_reward_expectancy_bt,2022.2.4,MacIntel,60.04202942,Chrome,1440,900,,,a,1.3804,10,600,2,1,2,14,1,1,1,0,0,0,0,0,1,0,triangle,hexagon,,,,,,,,,,,,,,,,,,,,,,,,,,,,,,,,,,,,,,,,,,,,,,,,,,,,,,
293443,2022-11-30_17h51.22.750,vts_reward_expectancy_bt,2022.2.4,MacIntel,60.04202942,Chrome,1440,900,,,a,0.7527,1,601,2,1,3,15,5,1,0,1,0,0,0,0,0,1,circle,star,,,,,,,,,,,,,,,,,,,,,,,,,,,,,,,,,,,,,,,,,,,,,,,,,,,,,,
293443,2022-11-30_17h51.22.750,vts_reward_expectancy_bt,2022.2.4,MacIntel,60.04202942,Chrome,1440,900,,,l,0.7265,10,611,2,1,4,16,6,1,0,0,1,0,1,0,0,0,hexagon,triangle,,,,,,,,,,,,,,,,,,,,,,,,,,,,,,,,,,,,,,,,,,,,,,,,,,,,,,
293443,2022-11-30_17h51.22.750,vts_reward_expectancy_bt,2022.2.4,MacIntel,60.04202942,Chrome,1440,900,,,l,0.6956,1,612,2,1,5,17,7,1,0,0,1,0,0,1,0,0,hexagon,circle,,,,,,,,,,,,,,,,,,,,,,,,,,,,,,,,,,,,,,,,,,,,,,,,,,,,,,
293443,2022-11-30_17h51.22.750,vts_reward_expectancy_bt,2022.2.4,MacIntel,60.04202942,Chrome,1440,900,,,l,0.9062,10,622,2,1,6,18,4,1,0,1,0,0,0,0,1,0,circle,hexagon,,,,,,,,,,,,,,,,,,,,,,,,,,,,,,,,,,,,,,,,,,,,,,,,,,,,,,
293443,2022-11-30_17h51.22.750,vts_reward_expectancy_bt,2022.2.4,MacIntel,60.04202942,Chrome,1440,900,,,a,0.6037,10,632,2,1,7,19,0,1,1,0,0,0,0,1,0,0,triangle,circle,,,,,,,,,,,,,,,,,,,,,,,,,,,,,,,,,,,,,,,,,,,,,,,,,,,,,,
293443,2022-11-30_17h51.22.750,vts_reward_expectancy_bt,2022.2.4,MacIntel,60.04202942,Chrome,1440,900,,,l,1.4735,10,642,2,1,8,20,9,1,0,0,0,1,1,0,0,0,star,triangle,,,,,,,,,,,,,,,,,,,,,,,,,,,,,,,,,,,,,,,,,,,,,,,,,,,,,,
293443,2022-11-30_17h51.22.750,vts_reward_expectancy_bt,2022.2.4,MacIntel,60.04202942,Chrome,1440,900,,,a,0.6574,10,652,2,1,9,21,2,1,1,0,0,0,0,0,0,1,triangle,star,,,,,,,,,,,,,,,,,,,,,,,,,,,,,,,,,,,,,,,,,,,,,,,,,,,,,,
293443,2022-11-30_17h51.22.750,vts_reward_expectancy_bt,2022.2.4,MacIntel,60.04202942,Chrome,1440,900,,,a,1.082,10,662,2,1,10,22,10,1,0,0,0,1,0,1,0,0,star ,circle,,,,,,,,,,,,,,,,,,,,,,,,,,,,,,,,,,,,,,,,,,,,,,,,,,,,,,
293443,2022-11-30_17h51.22.750,vts_reward_expectancy_bt,2022.2.4,MacIntel,60.04202942,Chrome,1440,900,,,a,1.4747,1,663,2,1,11,23,11,1,0,0,0,1,0,0,1,0,star,hexagon,,,,,,,,,,,,,,,,,,,,,,,,,,,,,,,,,,,,,,,,,,,,,,,,,,,,,,
293443,2022-11-30_17h51.22.750,vts_reward_expectancy_bt,2022.2.4,MacIntel,60.04202942,Chrome,1440,900,,,a,0.9056,10,673,2,2,0,24,8,1,0,0,1,0,0,0,0,1,hexagon,star,,,,,,,,,,,,,,,,,,,,,,,,,,,,,,,,,,,,,,,,,,,,,,,,,,,,,,
293443,2022-11-30_17h51.22.750,vts_reward_expectancy_bt,2022.2.4,MacIntel,60.04202942,Chrome,1440,900,,,a,1.1141,10,683,2,2,1,25,10,1,0,0,0,1,0,1,0,0,star ,circle,,,,,,,,,,,,,,,,,,,,,,,,,,,,,,,,,,,,,,,,,,,,,,,,,,,,,,
293443,2022-11-30_17h51.22.750,vts_reward_expectancy_bt,2022.2.4,MacIntel,60.04202942,Chrome,1440,900,,,a,1.2337,1,684,2,2,2,26,7,1,0,0,1,0,0,1,0,0,hexagon,circle,,,,,,,,,,,,,,,,,,,,,,,,,,,,,,,,,,,,,,,,,,,,,,,,,,,,,,
293443,2022-11-30_17h51.22.750,vts_reward_expectancy_bt,2022.2.4,MacIntel,60.04202942,Chrome,1440,900,,,l,1.3214,1,685,2,2,3,27,5,1,0,1,0,0,0,0,0,1,circle,star,,,,,,,,,,,,,,,,,,,,,,,,,,,,,,,,,,,,,,,,,,,,,,,,,,,,,,
293443,2022-11-30_17h51.22.750,vts_reward_expectancy_bt,2022.2.4,MacIntel,60.04202942,Chrome,1440,900,,,l,0.9745,1,686,2,2,4,28,3,1,0,1,0,0,1,0,0,0,circle,triangle,,,,,,,,,,,,,,,,,,,,,,,,,,,,,,,,,,,,,,,,,,,,,,,,,,,,,,
293443,2022-11-30_17h51.22.750,vts_reward_expectancy_bt,2022.2.4,MacIntel,60.04202942,Chrome,1440,900,,,a,0.8337,10,696,2,2,5,29,2,1,1,0,0,0,0,0,0,1,triangle,star,,,,,,,,,,,,,,,,,,,,,,,,,,,,,,,,,,,,,,,,,,,,,,,,,,,,,,
293443,2022-11-30_17h51.22.750,vts_reward_expectancy_bt,2022.2.4,MacIntel,60.04202942,Chrome,1440,900,,,a,1.5489,10,706,2,2,6,30,1,1,1,0,0,0,0,0,1,0,triangle,hexagon,,,,,,,,,,,,,,,,,,,,,,,,,,,,,,,,,,,,,,,,,,,,,,,,,,,,,,
293443,2022-11-30_17h51.22.750,vts_reward_expectancy_bt,2022.2.4,MacIntel,60.04202942,Chrome,1440,900,,,a,2.7478,10,716,2,2,7,31,0,1,1,0,0,0,0,1,0,0,triangle,circle,,,,,,,,,,,,,,,,,,,,,,,,,,,,,,,,,,,,,,,,,,,,,,,,,,,,,,
293443,2022-11-30_17h51.22.750,vts_reward_expectancy_bt,2022.2.4,MacIntel,60.04202942,Chrome,1440,900,,,l,1.3151,10,726,2,2,8,32,9,1,0,0,0,1,1,0,0,0,star,triangle,,,,,,,,,,,,,,,,,,,,,,,,,,,,,,,,,,,,,,,,,,,,,,,,,,,,,,
293443,2022-11-30_17h51.22.750,vts_reward_expectancy_bt,2022.2.4,MacIntel,60.04202942,Chrome,1440,900,,,l,1.6716,10,736,2,2,9,33,11,1,0,0,0,1,0,0,1,0,star,hexagon,,,,,,,,,,,,,,,,,,,,,,,,,,,,,,,,,,,,,,,,,,,,,,,,,,,,,,
293443,2022-11-30_17h51.22.750,vts_reward_expectancy_bt,2022.2.4,MacIntel,60.04202942,Chrome,1440,900,,,a,1.3162,10,746,2,2,10,34,4,1,0,1,0,0,0,0,1,0,circle,hexagon,,,,,,,,,,,,,,,,,,,,,,,,,,,,,,,,,,,,,,,,,,,,,,,,,,,,,,
293443,2022-11-30_17h51.22.750,vts_reward_expectancy_bt,2022.2.4,MacIntel,60.04202942,Chrome,1440,900,,,l,1.0487,10,756,2,2,11,35,6,1,0,0,1,0,1,0,0,0,hexagon,triangle,,,,,,,,,,,,,,,,,,,,,,,,,,,,,,,,,,,,,,,,,,,,,,,,,,,,,,
293443,2022-11-30_17h51.22.750,vts_reward_expectancy_bt,2022.2.4,MacIntel,60.04202942,Chrome,1440,900,,,,,,,,,,,,,,,,,,,,,,,U,181,star,0,0,,0,0,0,0,0,1,,,,,,,,,,,,,,,,,,,,,,,,,,,,,,,,,,,,,,,,,,
293443,2022-11-30_17h51.22.750,vts_reward_expectancy_bt,2022.2.4,MacIntel,60.04202942,Chrome,1440,900,,,,,,,,,,,,,,,,,,,,,,,W,139,triangle,1,1,f,0,1,0,1,0,1,1.0092,,,,,,,,,,,,,,,,,,,,,,,,,,,,,,,,,,,,,,,,,
293443,2022-11-30_17h51.22.750,vts_reward_expectancy_bt,2022.2.4,MacIntel,60.04202942,Chrome,1440,900,,,,,,,,,,,,,,,,,,,,,,,F,125,circle,1,0,d,0,2,0,2,0,1,1.6104,,,,,,,,,,,,,,,,,,,,,,,,,,,,,,,,,,,,,,,,,
293443,2022-11-30_17h51.22.750,vts_reward_expectancy_bt,2022.2.4,MacIntel,60.04202942,Chrome,1440,900,,,,,,,,,,,,,,,,,,,,,,,S,146,hexagon,1,0,f,0,3,0,3,0,1,0.8799,,,,,,,,,,,,,,,,,,,,,,,,,,,,,,,,,,,,,,,,,
293443,2022-11-30_17h51.22.750,vts_reward_expectancy_bt,2022.2.4,MacIntel,60.04202942,Chrome,1440,900,,,,,,,,,,,,,,,,,,,,,,,Y,132,star,1,0,f,0,4,0,4,0,1,0.7475,,,,,,,,,,,,,,,,,,,,,,,,,,,,,,,,,,,,,,,,,
293443,2022-11-30_17h51.22.750,vts_reward_expectancy_bt,2022.2.4,MacIntel,60.04202942,Chrome,1440,900,,,,,,,,,,,,,,,,,,,,,,,B,160,triangle,1,0,d,0,5,0,5,0,1,1.182,,,,,,,,,,,,,,,,,,,,,,,,,,,,,,,,,,,,,,,,,
293443,2022-11-30_17h51.22.750,vts_reward_expectancy_bt,2022.2.4,MacIntel,60.04202942,Chrome,1440,900,,,,,,,,,,,,,,,,,,,,,,,D,174,circle,1,0,d,0,6,0,6,0,1,0.8697,,,,,,,,,,,,,,,,,,,,,,,,,,,,,,,,,,,,,,,,,
293443,2022-11-30_17h51.22.750,vts_reward_expectancy_bt,2022.2.4,MacIntel,60.04202942,Chrome,1440,900,,,,,,,,,,,,,,,,,,,,,,,H,167,hexagon,1,0,d,0,7,0,7,0,1,1.0049,,,,,,,,,,,,,,,,,,,,,,,,,,,,,,,,,,,,,,,,,
293443,2022-11-30_17h51.22.750,vts_reward_expectancy_bt,2022.2.4,MacIntel,60.04202942,Chrome,1440,900,,,,,,,,,,,,,,,,,,,,,,,U,181,star,1,0,f,0,8,0,8,0,1,0.9756,,,,,,,,,,,,,,,,,,,,,,,,,,,,,,,,,,,,,,,,,
293443,2022-11-30_17h51.22.750,vts_reward_expectancy_bt,2022.2.4,MacIntel,60.04202942,Chrome,1440,900,,,,,,,,,,,,,,,,,,,,,,,W,139,hexagon,1,0,f,0,9,0,9,0,1,1.024,,,,,,,,,,,,,,,,,,,,,,,,,,,,,,,,,,,,,,,,,
293443,2022-11-30_17h51.22.750,vts_reward_expectancy_bt,2022.2.4,MacIntel,60.04202942,Chrome,1440,900,,,,,,,,,,,,,,,,,,,,,,,D,125,star,1,0,,1,,,,,,,j,1.385,0,0,0,0,1,,,,,,,,,,,,,,,,,,,,,,,,,,,,,,,,,,
293443,2022-11-30_17h51.22.750,vts_reward_expectancy_bt,2022.2.4,MacIntel,60.04202942,Chrome,1440,900,,,,,,,,,,,,,,,,,,,,,,,B,160,triangle,1,0,,1,,,,,,,k,0.9797,1,0,1,0,1,,,,,,,,,,,,,,,,,,,,,,,,,,,,,,,,,,
293443,2022-11-30_17h51.22.750,vts_reward_expectancy_bt,2022.2.4,MacIntel,60.04202942,Chrome,1440,900,,,,,,,,,,,,,,,,,,,,,,,S,146,hexagon,1,0,,1,,,,,,,j,1.2277,2,0,2,0,1,,,,,,,,,,,,,,,,,,,,,,,,,,,,,,,,,,
293443,2022-11-30_17h51.22.750,vts_reward_expectancy_bt,2022.2.4,MacIntel,60.04202942,Chrome,1440,900,,,,,,,,,,,,,,,,,,,,,,,Y,174,circle,1,0,,1,,,,,,,k,0.9622,3,0,3,0,1,,,,,,,,,,,,,,,,,,,,,,,,,,,,,,,,,,
293443,2022-11-30_17h51.22.750,vts_reward_expectancy_bt,2022.2.4,MacIntel,60.04202942,Chrome,1440,900,,,,,,,,,,,,,,,,,,,,,,,W,167,star,1,0,,1,,,,,,,k,0.7551,4,0,4,0,1,,,,,,,,,,,,,,,,,,,,,,,,,,,,,,,,,,
293443,2022-11-30_17h51.22.750,vts_reward_expectancy_bt,2022.2.4,MacIntel,60.04202942,Chrome,1440,900,,,,,,,,,,,,,,,,,,,,,,,F,139,triangle,1,0,,1,,,,,,,j,0.7812,5,0,5,0,1,,,,,,,,,,,,,,,,,,,,,,,,,,,,,,,,,,
293443,2022-11-30_17h51.22.750,vts_reward_expectancy_bt,2022.2.4,MacIntel,60.04202942,Chrome,1440,900,,,,,,,,,,,,,,,,,,,,,,,U,132,hexagon,1,0,,1,,,,,,,j,1.4817,6,0,6,0,1,,,,,,,,,,,,,,,,,,,,,,,,,,,,,,,,,,
293443,2022-11-30_17h51.22.750,vts_reward_expectancy_bt,2022.2.4,MacIntel,60.04202942,Chrome,1440,900,,,,,,,,,,,,,,,,,,,,,,,H,181,circle,1,0,,1,,,,,,,k,0.9461,7,0,7,0,1,,,,,,,,,,,,,,,,,,,,,,,,,,,,,,,,,,
293443,2022-11-30_17h51.22.750,vts_reward_expectancy_bt,2022.2.4,MacIntel,60.04202942,Chrome,1440,900,,,,,,,,,,,,,,,,,,,,,,,D,125,star,1,0,,1,,,,,,,j,1.662,8,0,8,0,1,,,,,,,,,,,,,,,,,,,,,,,,,,,,,,,,,,
293443,2022-11-30_17h51.22.750,vts_reward_expectancy_bt,2022.2.4,MacIntel,60.04202942,Chrome,1440,900,,,,,,,,,,,,,,,,,,,,,,,B,160,hexagon,1,0,,1,,,,,,,k,1.8173,9,0,9,0,1,,,,,,,,,,,,,,,,,,,,,,,,,,,,,,,,,,
293443,2022-11-30_17h51.22.750,vts_reward_expectancy_bt,2022.2.4,MacIntel,60.04202942,Chrome,1440,900,,,,,0,756,,,,,,,,,,,,,,,,,F,181,hexagon,1,0,,2,,,,,,,,,,,,,,-1,letter,NA,d,2.2369,vtsPrac,0,0,0,0,1,,,,,,,,,,,,,,,,,,,,,,,
293443,2022-11-30_17h51.22.750,vts_reward_expectancy_bt,2022.2.4,MacIntel,60.04202942,Chrome,1440,900,,,,,0,756,,,,,,,,,,,,,,,,,S,139,circle,1,0,,2,,,,,,,,,,,,,,repeat,letter,lettRpt,f,1.2554,vtsPrac,1,0,1,0,1,,,,,,,,,,,,,,,,,,,,,,,
293443,2022-11-30_17h51.22.750,vts_reward_expectancy_bt,2022.2.4,MacIntel,60.04202942,Chrome,1440,900,,,,,0,756,,,,,,,,,,,,,,,,,B,160,hexagon,1,0,,2,,,,,,,,,,,,,,switch,number,numSwt,k,1.6597,vtsPrac,2,0,2,0,1,,,,,,,,,,,,,,,,,,,,,,,
293443,2022-11-30_17h51.22.750,vts_reward_expectancy_bt,2022.2.4,MacIntel,60.04202942,Chrome,1440,900,,,,,0,756,,,,,,,,,,,,,,,,,W,167,circle,1,0,,2,,,,,,,,,,,,,,repeat,number,numRpt,k,1.5609,vtsPrac,3,0,3,0,1,,,,,,,,,,,,,,,,,,,,,,,
293443,2022-11-30_17h51.22.750,vts_reward_expectancy_bt,2022.2.4,MacIntel,60.04202942,Chrome,1440,900,,,,,0,756,,,,,,,,,,,,,,,,,F,181,triangle,1,0,,2,,,,,,,,,,,,,,repeat,number,numRpt,k,0.8472,vtsPrac,4,0,4,0,1,,,,,,,,,,,,,,,,,,,,,,,
293443,2022-11-30_17h51.22.750,vts_reward_expectancy_bt,2022.2.4,MacIntel,60.04202942,Chrome,1440,900,,,,,0,756,,,,,,,,,,,,,,,,,S,139,star,1,0,,2,,,,,,,,,,,,,,switch,letter,lettSwt,f,1.3657,vtsPrac,5,0,5,0,1,,,,,,,,,,,,,,,,,,,,,,,
293443,2022-11-30_17h51.22.750,vts_reward_expectancy_bt,2022.2.4,MacIntel,60.04202942,Chrome,1440,900,,,,,0,756,,,,,,,,,,,,,,,,,B,160,circle,1,0,,2,,,,,,,,,,,,,,switch,number,numSwt,k,1.115,vtsPrac,6,0,6,0,1,,,,,,,,,,,,,,,,,,,,,,,
293443,2022-11-30_17h51.22.750,vts_reward_expectancy_bt,2022.2.4,MacIntel,60.04202942,Chrome,1440,900,,,,,0,756,,,,,,,,,,,,,,,,,W,167,hexagon,1,0,,2,,,,,,,,,,,,,,switch,letter,lettSwt,f,1.1289,vtsPrac,7,0,7,0,1,,,,,,,,,,,,,,,,,,,,,,,
293443,2022-11-30_17h51.22.750,vts_reward_expectancy_bt,2022.2.4,MacIntel,60.04202942,Chrome,1440,900,,,,,0,756,,,,,,,,,,,,,,,,,W,160,triangle,1,0,,2,,,,,,,,,,,,,,repeat,letter,lettRpt,f,1.6065,vtsPrac,8,0,8,0,1,,,,,,,,,,,,,,,,,,,,,,,
293443,2022-11-30_17h51.22.750,vts_reward_expectancy_bt,2022.2.4,MacIntel,60.04202942,Chrome,1440,900,,,,,0,756,,,,,,,,,,,,,,,,,Y,139,circle,1,0,,2,,,,,,,,,,,,,,repeat,letter,lettRpt,f,0.691,vtsPrac,9,0,9,0,1,,,,,,,,,,,,,,,,,,,,,,,
293443,2022-11-30_17h51.22.750,vts_reward_expectancy_bt,2022.2.4,MacIntel,60.04202942,Chrome,1440,900,,,,,0,756,,,,,,,,,,,,,,,,,F,174,triangle,1,0,,2,,,,,,,,,,,,,,switch,number,numSwt,k,1.1259,vtsPrac,10,0,10,0,1,,,,,,,,,,,,,,,,,,,,,,,
293443,2022-11-30_17h51.22.750,vts_reward_expectancy_bt,2022.2.4,MacIntel,60.04202942,Chrome,1440,900,,,,,0,756,,,,,,,,,,,,,,,,,S,181,star,1,0,,2,,,,,,,,,,,,,,repeat,number,numRpt,k,0.84,vtsPrac,11,0,11,0,1,,,,,,,,,,,,,,,,,,,,,,,
293443,2022-11-30_17h51.22.750,vts_reward_expectancy_bt,2022.2.4,MacIntel,60.04202942,Chrome,1440,900,,,,,0,756,,,,,,,,,,,,,,,,,H,181,triangle,1,0,,2,,,,,,,,,,,,,,switch,letter,lettSwt,d,1.8349,vtsPrac,12,0,12,0,1,,,,,,,,,,,,,,,,,,,,,,,
293443,2022-11-30_17h51.22.750,vts_reward_expectancy_bt,2022.2.4,MacIntel,60.04202942,Chrome,1440,900,,,,,0,756,,,,,,,,,,,,,,,,,B,167,hexagon,1,0,,2,,,,,,,,,,,,,,repeat,letter,lettRpt,d,0.7316,vtsPrac,13,0,13,0,1,,,,,,,,,,,,,,,,,,,,,,,
293443,2022-11-30_17h51.22.750,vts_reward_expectancy_bt,2022.2.4,MacIntel,60.04202942,Chrome,1440,900,,,,,0,756,,,,,,,,,,,,,,,,,S,174,triangle,1,0,,2,,,,,,,,,,,,,,switch,number,numSwt,k,0.9864,vtsPrac,14,0,14,0,1,,,,,,,,,,,,,,,,,,,,,,,
293443,2022-11-30_17h51.22.750,vts_reward_expectancy_bt,2022.2.4,MacIntel,60.04202942,Chrome,1440,900,,,,,0,756,,,,,,,,,,,,,,,,,F,139,circle,1,0,,2,,,,,,,,,,,,,,switch,letter,lettSwt,d,0.983,vtsPrac,15,0,15,0,1,,,,,,,,,,,,,,,,,,,,,,,
293443,2022-11-30_17h51.22.750,vts_reward_expectancy_bt,2022.2.4,MacIntel,60.04202942,Chrome,1440,900,,,,,0,756,,,,,,,,,,,,,,,,,H,174,triangle,1,0,,2,,,,,,,,,,,,,,switch,number,numSwt,k,0.8871,vtsPrac,16,0,16,0,1,,,,,,,,,,,,,,,,,,,,,,,
293443,2022-11-30_17h51.22.750,vts_reward_expectancy_bt,2022.2.4,MacIntel,60.04202942,Chrome,1440,900,,,,,0,756,,,,,,,,,,,,,,,,,D,160,hexagon,1,0,,2,,,,,,,,,,,,,,repeat,number,numRpt,k,1.0044,vtsPrac,17,0,17,0,1,,,,,,,,,,,,,,,,,,,,,,,
293443,2022-11-30_17h51.22.750,vts_reward_expectancy_bt,2022.2.4,MacIntel,60.04202942,Chrome,1440,900,,,,,0,756,,,,,,,,,,,,,,,,,F,125,star,1,0,,2,,,,,,,,,,,,,,repeat,number,numRpt,j,1.0462,vtsPrac,18,0,18,0,1,,,,,,,,,,,,,,,,,,,,,,,
293443,2022-11-30_17h51.22.750,vts_reward_expectancy_bt,2022.2.4,MacIntel,60.04202942,Chrome,1440,900,,,,,0,756,,,,,,,,,,,,,,,,,B,181,circle,1,0,,2,,,,,,,,,,,,,,switch,letter,lettSwt,d,1.2218,vtsPrac,19,0,19,0,1,,,,,,,,,,,,,,,,,,,,,,,
293443,2022-11-30_17h51.22.750,vts_reward_expectancy_bt,2022.2.4,MacIntel,60.04202942,Chrome,1440,900,,,,,0,756,,,,,,,,,,,,,,,,,F,146,circle,1,0,,2,,,,,,,,,,,,,,repeat,letter,lettRpt,d,0.9297,vtsPrac,20,0,20,0,1,,,,,,,,,,,,,,,,,,,,,,,
293443,2022-11-30_17h51.22.750,vts_reward_expectancy_bt,2022.2.4,MacIntel,60.04202942,Chrome,1440,900,,,,,0,756,,,,,,,,,,,,,,,,,B,139,triangle,1,0,,2,,,,,,,,,,,,,,switch,number,numSwt,j,1.0424,vtsPrac,21,0,21,0,1,,,,,,,,,,,,,,,,,,,,,,,
293443,2022-11-30_17h51.22.750,vts_reward_expectancy_bt,2022.2.4,MacIntel,60.04202942,Chrome,1440,900,,,,,0,756,,,,,,,,,,,,,,,,,H,160,star,1,0,,2,,,,,,,,,,,,,,switch,letter,lettSwt,d,0.9249,vtsPrac,22,0,22,0,1,,,,,,,,,,,,,,,,,,,,,,,
293443,2022-11-30_17h51.22.750,vts_reward_expectancy_bt,2022.2.4,MacIntel,60.04202942,Chrome,1440,900,,,,,0,756,,,,,,,,,,,,,,,,,D,132,triangle,1,0,,2,,,,,,,,,,,,,,switch,number,numSwt,j,1.1887,vtsPrac,23,0,23,0,1,,,,,,,,,,,,,,,,,,,,,,,
293443,2022-11-30_17h51.22.750,vts_reward_expectancy_bt,2022.2.4,MacIntel,60.04202942,Chrome,1440,900,,,,,0,756,,,,,,,,,,,,,,,,,D,174,star,1,0,,2,,,,,,,,,,,,,,repeat,number,numRpt,k,0.8358,vtsPrac,24,0,24,0,1,,,,,,,,,,,,,,,,,,,,,,,
293443,2022-11-30_17h51.22.750,vts_reward_expectancy_bt,2022.2.4,MacIntel,60.04202942,Chrome,1440,900,,,,,0,756,,,,,,,,,,,,,,,,,Y,181,circle,1,0,,2,,,,,,,,,,,,,,repeat,number,numRpt,k,0.7605,vtsPrac,25,0,25,0,1,,,,,,,,,,,,,,,,,,,,,,,
293443,2022-11-30_17h51.22.750,vts_reward_expectancy_bt,2022.2.4,MacIntel,60.04202942,Chrome,1440,900,,,,,0,756,,,,,,,,,,,,,,,,,W,132,hexagon,1,0,,2,,,,,,,,,,,,,,switch,letter,lettSwt,f,1.1006,vtsPrac,26,0,26,0,1,,,,,,,,,,,,,,,,,,,,,,,
293443,2022-11-30_17h51.22.750,vts_reward_expectancy_bt,2022.2.4,MacIntel,60.04202942,Chrome,1440,900,,,,,0,756,,,,,,,,,,,,,,,,,U,160,star,1,0,,2,,,,,,,,,,,,,,switch,number,numSwt,k,1.0298,vtsPrac,27,0,27,0,1,,,,,,,,,,,,,,,,,,,,,,,
293443,2022-11-30_17h51.22.750,vts_reward_expectancy_bt,2022.2.4,MacIntel,60.04202942,Chrome,1440,900,,,,,0,756,,,,,,,,,,,,,,,,,H,146,hexagon,1,0,,2,,,,,,,,,,,,,,repeat,number,numRpt,j,2.4641,vtsPrac,28,0,28,0,1,,,,,,,,,,,,,,,,,,,,,,,
293443,2022-11-30_17h51.22.750,vts_reward_expectancy_bt,2022.2.4,MacIntel,60.04202942,Chrome,1440,900,,,,,0,756,,,,,,,,,,,,,,,,,Y,132,circle,1,0,,2,,,,,,,,,,,,,,switch,letter,lettSwt,f,0.6958,vtsPrac,29,0,29,0,1,,,,,,,,,,,,,,,,,,,,,,,
293443,2022-11-30_17h51.22.750,vts_reward_expectancy_bt,2022.2.4,MacIntel,60.04202942,Chrome,1440,900,,,,,0,756,,,,,,,,,,,,,,,,,S,160,star,1,0,,2,,,,,,,,,,,,,,repeat,letter,lettRpt,f,1.0443,vtsPrac,30,0,30,0,1,,,,,,,,,,,,,,,,,,,,,,,
293443,2022-11-30_17h51.22.750,vts_reward_expectancy_bt,2022.2.4,MacIntel,60.04202942,Chrome,1440,900,,,,,0,756,,,,,,,,,,,,,,,,,U,139,circle,1,0,,2,,,,,,,,,,,,,,repeat,letter,lettRpt,f,1.2984,vtsPrac,31,0,31,0,1,,,,,,,,,,,,,,,,,,,,,,,
293443,2022-11-30_17h51.22.750,vts_reward_expectancy_bt,2022.2.4,MacIntel,60.04202942,Chrome,1440,900,,,,,,,,,,,,,,,,,,,,,,,,,,,,,,,,,,,,,,,,,,,,,,,,,,,,,,,,,,,,,,,,,,,,,,,,,,,,
293443,2022-11-30_17h51.22.750,vts_reward_expectancy_bt,2022.2.4,MacIntel,60.04202942,Chrome,1440,900,,,,,,,,,,,,,,,,,,,,,,,,,,,,,,,,,,,,,,,,,,,,,,,,,,,,,,,,,,,,,,,,,,,,,,,,,,,,
293443,2022-11-30_17h51.22.750,vts_reward_expectancy_bt,2022.2.4,MacIntel,60.04202942,Chrome,1440,900,,,,,0,756,,,,,,,,,,,,,,,,,U,125,star,1,0,,,,,,,,,,,,,,,,repeat,letter,lettRpt,f,1.3068,noRew,,,,,,0,0,0,0,0,1,,,,,,,,,,,,,,,,,
293443,2022-11-30_17h51.22.750,vts_reward_expectancy_bt,2022.2.4,MacIntel,60.04202942,Chrome,1440,900,,,,,0,756,,,,,,,,,,,,,,,,,Y,146,triangle,1,0,,,,,,,,,,,,,,,,switch,number,numSwt,j,1.3564,noRew,,,,,,0,1,0,1,0,1,,,,,,,,,,,,,,,,,
293443,2022-11-30_17h51.22.750,vts_reward_expectancy_bt,2022.2.4,MacIntel,60.04202942,Chrome,1440,900,,,,,0,756,,,,,,,,,,,,,,,,,W,167,star,1,0,,,,,,,,,,,,,,,,repeat,number,numRpt,k,1.2827,noRew,,,,,,0,2,0,2,0,1,,,,,,,,,,,,,,,,,
293443,2022-11-30_17h51.22.750,vts_reward_expectancy_bt,2022.2.4,MacIntel,60.04202942,Chrome,1440,900,,,,,0,756,,,,,,,,,,,,,,,,,D,174,triangle,1,0,,,,,,,,,,,,,,,,repeat,number,numRpt,k,0.7891,noRew,,,,,,0,3,0,3,0,1,,,,,,,,,,,,,,,,,
293443,2022-11-30_17h51.22.750,vts_reward_expectancy_bt,2022.2.4,MacIntel,60.04202942,Chrome,1440,900,,,,,0,756,,,,,,,,,,,,,,,,,U,125,triangle,1,0,,,,,,,,,,,,,,,,repeat,number,numRpt,j,1.6281,noRew,,,,,,0,4,0,4,0,1,,,,,,,,,,,,,,,,,
293443,2022-11-30_17h51.22.750,vts_reward_expectancy_bt,2022.2.4,MacIntel,60.04202942,Chrome,1440,900,,,,,0,756,,,,,,,,,,,,,,,,,Y,146,star,1,0,,,,,,,,,,,,,,,,switch,letter,lettSwt,f,0.7809,noRew,,,,,,0,5,0,5,0,1,,,,,,,,,,,,,,,,,
293443,2022-11-30_17h51.22.750,vts_reward_expectancy_bt,2022.2.4,MacIntel,60.04202942,Chrome,1440,900,,,,,0,756,,,,,,,,,,,,,,,,,W,167,hexagon,1,0,,,,,,,,,,,,,,,,repeat,letter,lettRpt,f,0.9242,noRew,,,,,,0,6,0,6,0,1,,,,,,,,,,,,,,,,,
293443,2022-11-30_17h51.22.750,vts_reward_expectancy_bt,2022.2.4,MacIntel,60.04202942,Chrome,1440,900,,,,,0,756,,,,,,,,,,,,,,,,,D,174,triangle,1,0,,,,,,,,,,,,,,,,switch,number,numSwt,k,0.9569,noRew,,,,,,0,7,0,7,0,1,,,,,,,,,,,,,,,,,
293443,2022-11-30_17h51.22.750,vts_reward_expectancy_bt,2022.2.4,MacIntel,60.04202942,Chrome,1440,900,,,,,0,756,,,,,,,,,,,,,,,,,W,167,triangle,1,0,,,,,,,,,,,,,,,,repeat,number,numRpt,k,1.9466,noRew,,,,,,0,8,0,8,0,1,,,,,,,,,,,,,,,,,
293443,2022-11-30_17h51.22.750,vts_reward_expectancy_bt,2022.2.4,MacIntel,60.04202942,Chrome,1440,900,,,,,0,756,,,,,,,,,,,,,,,,,S,132,circle,1,0,,,,,,,,,,,,,,,,switch,letter,lettSwt,f,1.4994,noRew,,,,,,0,9,0,9,0,1,,,,,,,,,,,,,,,,,
293443,2022-11-30_17h51.22.750,vts_reward_expectancy_bt,2022.2.4,MacIntel,60.04202942,Chrome,1440,900,,,,,0,756,,,,,,,,,,,,,,,,,F,160,star,1,0,,,,,,,,,,,,,,,,repeat,letter,lettRpt,d,1.326,noRew,,,,,,0,10,0,10,0,1,,,,,,,,,,,,,,,,,
293443,2022-11-30_17h51.22.750,vts_reward_expectancy_bt,2022.2.4,MacIntel,60.04202942,Chrome,1440,900,,,,,0,756,,,,,,,,,,,,,,,,,H,125,hexagon,1,0,,,,,,,,,,,,,,,,repeat,letter,lettRpt,d,1.2544,noRew,,,,,,0,11,0,11,0,1,,,,,,,,,,,,,,,,,
293443,2022-11-30_17h51.22.750,vts_reward_expectancy_bt,2022.2.4,MacIntel,60.04202942,Chrome,1440,900,,,,,0,756,,,,,,,,,,,,,,,,,B,181,circle,1,0,,,,,,,,,,,,,,,,repeat,letter,lettRpt,d,0.8608,noRew,,,,,,0,12,0,12,0,1,,,,,,,,,,,,,,,,,
293443,2022-11-30_17h51.22.750,vts_reward_expectancy_bt,2022.2.4,MacIntel,60.04202942,Chrome,1440,900,,,,,0,756,,,,,,,,,,,,,,,,,W,167,triangle,1,0,,,,,,,,,,,,,,,,repeat,letter,lettRpt,f,0.5676,noRew,,,,,,0,13,0,13,0,1,,,,,,,,,,,,,,,,,
293443,2022-11-30_17h51.22.750,vts_reward_expectancy_bt,2022.2.4,MacIntel,60.04202942,Chrome,1440,900,,,,,0,756,,,,,,,,,,,,,,,,,F,125,hexagon,1,0,,,,,,,,,,,,,,,,switch,number,numSwt,j,1.6547,noRew,,,,,,0,14,0,14,0,1,,,,,,,,,,,,,,,,,
293443,2022-11-30_17h51.22.750,vts_reward_expectancy_bt,2022.2.4,MacIntel,60.04202942,Chrome,1440,900,,,,,0,756,,,,,,,,,,,,,,,,,S,146,star,1,0,,,,,,,,,,,,,,,,switch,letter,lettSwt,f,0.6644,noRew,,,,,,0,15,0,15,0,1,,,,,,,,,,,,,,,,,
293443,2022-11-30_17h51.22.750,vts_reward_expectancy_bt,2022.2.4,MacIntel,60.04202942,Chrome,1440,900,,,,,0,756,,,,,,,,,,,,,,,,,W,174,star,1,0,,,,,,,,,,,,,,,,switch,number,numSwt,k,0.8297,noRew,,,,,,0,16,0,16,0,1,,,,,,,,,,,,,,,,,
293443,2022-11-30_17h51.22.750,vts_reward_expectancy_bt,2022.2.4,MacIntel,60.04202942,Chrome,1440,900,,,,,0,756,,,,,,,,,,,,,,,,,U,181,circle,1,0,,,,,,,,,,,,,,,,repeat,number,numRpt,k,0.8662,noRew,,,,,,0,17,0,17,0,1,,,,,,,,,,,,,,,,,
293443,2022-11-30_17h51.22.750,vts_reward_expectancy_bt,2022.2.4,MacIntel,60.04202942,Chrome,1440,900,,,,,0,756,,,,,,,,,,,,,,,,,D,167,star,1,0,,,,,,,,,,,,,,,,repeat,number,numRpt,k,1.5782,noRew,,,,,,0,18,0,18,0,1,,,,,,,,,,,,,,,,,
293443,2022-11-30_17h51.22.750,vts_reward_expectancy_bt,2022.2.4,MacIntel,60.04202942,Chrome,1440,900,,,,,0,756,,,,,,,,,,,,,,,,,Y,132,hexagon,1,0,,,,,,,,,,,,,,,,switch,letter,lettSwt,f,0.7395,noRew,,,,,,0,19,0,19,0,1,,,,,,,,,,,,,,,,,
293443,2022-11-30_17h51.22.750,vts_reward_expectancy_bt,2022.2.4,MacIntel,60.04202942,Chrome,1440,900,,,,,0,756,,,,,,,,,,,,,,,,,H,125,hexagon,1,0,,,,,,,,,,,,,,,,switch,number,numSwt,j,0.9925,noRew,,,,,,0,20,0,20,0,1,,,,,,,,,,,,,,,,,
293443,2022-11-30_17h51.22.750,vts_reward_expectancy_bt,2022.2.4,MacIntel,60.04202942,Chrome,1440,900,,,,,0,756,,,,,,,,,,,,,,,,,Y,174,triangle,1,0,,,,,,,,,,,,,,,,repeat,number,numRpt,k,1.0951,noRew,,,,,,0,21,0,21,0,1,,,,,,,,,,,,,,,,,
293443,2022-11-30_17h51.22.750,vts_reward_expectancy_bt,2022.2.4,MacIntel,60.04202942,Chrome,1440,900,,,,,0,756,,,,,,,,,,,,,,,,,D,146,star,1,0,,,,,,,,,,,,,,,,switch,letter,lettSwt,d,1.538,noRew,,,,,,0,22,0,22,0,1,,,,,,,,,,,,,,,,,
293443,2022-11-30_17h51.22.750,vts_reward_expectancy_bt,2022.2.4,MacIntel,60.04202942,Chrome,1440,900,,,,,0,756,,,,,,,,,,,,,,,,,B,132,triangle,1,0,,,,,,,,,,,,,,,,repeat,letter,lettRpt,d,1.0827,noRew,,,,,,0,23,0,23,0,1,,,,,,,,,,,,,,,,,
293443,2022-11-30_17h51.22.750,vts_reward_expectancy_bt,2022.2.4,MacIntel,60.04202942,Chrome,1440,900,,,,,0,756,,,,,,,,,,,,,,,,,W,139,triangle,1,0,,,,,,,,,,,,,,,,switch,number,numSwt,j,1.5843,noRew,,,,,,0,24,0,24,0,1,,,,,,,,,,,,,,,,,
293443,2022-11-30_17h51.22.750,vts_reward_expectancy_bt,2022.2.4,MacIntel,60.04202942,Chrome,1440,900,,,,,0,756,,,,,,,,,,,,,,,,,S,174,star,1,0,,,,,,,,,,,,,,,,repeat,number,numRpt,k,1.1492,noRew,,,,,,0,25,0,25,0,1,,,,,,,,,,,,,,,,,
293443,2022-11-30_17h51.22.750,vts_reward_expectancy_bt,2022.2.4,MacIntel,60.04202942,Chrome,1440,900,,,,,0,756,,,,,,,,,,,,,,,,,Y,146,circle,1,0,,,,,,,,,,,,,,,,switch,letter,lettSwt,f,1.1218,noRew,,,,,,0,26,0,26,0,1,,,,,,,,,,,,,,,,,
293443,2022-11-30_17h51.22.750,vts_reward_expectancy_bt,2022.2.4,MacIntel,60.04202942,Chrome,1440,900,,,,,0,756,,,,,,,,,,,,,,,,,H,160,hexagon,1,0,,,,,,,,,,,,,,,,repeat,letter,lettRpt,d,1.1097,noRew,,,,,,0,27,0,27,0,1,,,,,,,,,,,,,,,,,
293443,2022-11-30_17h51.22.750,vts_reward_expectancy_bt,2022.2.4,MacIntel,60.04202942,Chrome,1440,900,,,,,0,756,,,,,,,,,,,,,,,,,D,181,hexagon,1,0,,,,,,,,,,,,,,,,repeat,letter,lettRpt,d,0.8231,noRew,,,,,,0,28,0,28,0,1,,,,,,,,,,,,,,,,,
293443,2022-11-30_17h51.22.750,vts_reward_expectancy_bt,2022.2.4,MacIntel,60.04202942,Chrome,1440,900,,,,,0,756,,,,,,,,,,,,,,,,,S,125,circle,1,0,,,,,,,,,,,,,,,,repeat,letter,lettRpt,f,0.7663,noRew,,,,,,0,29,0,29,0,1,,,,,,,,,,,,,,,,,
293443,2022-11-30_17h51.22.750,vts_reward_expectancy_bt,2022.2.4,MacIntel,60.04202942,Chrome,1440,900,,,,,0,756,,,,,,,,,,,,,,,,,F,167,star,1,0,,,,,,,,,,,,,,,,repeat,letter,lettRpt,d,0.9761,noRew,,,,,,0,30,0,30,0,1,,,,,,,,,,,,,,,,,
293443,2022-11-30_17h51.22.750,vts_reward_expectancy_bt,2022.2.4,MacIntel,60.04202942,Chrome,1440,900,,,,,0,756,,,,,,,,,,,,,,,,,U,160,triangle,1,0,,,,,,,,,,,,,,,,switch,number,numSwt,k,1.4561,noRew,,,,,,0,31,0,31,0,1,,,,,,,,,,,,,,,,,
293443,2022-11-30_17h51.22.750,vts_reward_expectancy_bt,2022.2.4,MacIntel,60.04202942,Chrome,1440,900,,,,,0,756,,,,,,,,,,,,,,,,,W,146,hexagon,1,0,,,,,,,,,,,,,,,,repeat,number,numRpt,j,1.4591,noRew,,,,,,0,32,0,32,0,1,,,,,,,,,,,,,,,,,
293443,2022-11-30_17h51.22.750,vts_reward_expectancy_bt,2022.2.4,MacIntel,60.04202942,Chrome,1440,900,,,,,0,756,,,,,,,,,,,,,,,,,U,139,triangle,1,0,,,,,,,,,,,,,,,,switch,letter,lettSwt,f,1.2232,noRew,,,,,,0,33,0,33,0,1,,,,,,,,,,,,,,,,,
293443,2022-11-30_17h51.22.750,vts_reward_expectancy_bt,2022.2.4,MacIntel,60.04202942,Chrome,1440,900,,,,,0,756,,,,,,,,,,,,,,,,,D,125,triangle,1,0,,,,,,,,,,,,,,,,switch,number,numSwt,j,0.9403,noRew,,,,,,0,34,0,34,0,1,,,,,,,,,,,,,,,,,
293443,2022-11-30_17h51.22.750,vts_reward_expectancy_bt,2022.2.4,MacIntel,60.04202942,Chrome,1440,900,,,,,0,756,,,,,,,,,,,,,,,,,F,167,hexagon,1,0,,,,,,,,,,,,,,,,repeat,number,numRpt,k,1.1784,noRew,,,,,,0,35,0,35,0,1,,,,,,,,,,,,,,,,,
293443,2022-11-30_17h51.22.750,vts_reward_expectancy_bt,2022.2.4,MacIntel,60.04202942,Chrome,1440,900,,,,,0,756,,,,,,,,,,,,,,,,,W,125,hexagon,1,0,,,,,,,,,,,,,,,,repeat,number,numRpt,j,1.1037,noRew,,,,,,0,36,0,36,0,1,,,,,,,,,,,,,,,,,
293443,2022-11-30_17h51.22.750,vts_reward_expectancy_bt,2022.2.4,MacIntel,60.04202942,Chrome,1440,900,,,,,0,756,,,,,,,,,,,,,,,,,U,146,triangle,1,0,,,,,,,,,,,,,,,,repeat,number,numRpt,j,1.6549,noRew,,,,,,0,37,0,37,0,1,,,,,,,,,,,,,,,,,
293443,2022-11-30_17h51.22.750,vts_reward_expectancy_bt,2022.2.4,MacIntel,60.04202942,Chrome,1440,900,,,,,0,756,,,,,,,,,,,,,,,,,D,174,circle,1,0,,,,,,,,,,,,,,,,switch,letter,lettSwt,d,1.2211,noRew,,,,,,0,38,0,38,0,1,,,,,,,,,,,,,,,,,
293443,2022-11-30_17h51.22.750,vts_reward_expectancy_bt,2022.2.4,MacIntel,60.04202942,Chrome,1440,900,,,,,0,756,,,,,,,,,,,,,,,,,Y,181,hexagon,1,0,,,,,,,,,,,,,,,,repeat,letter,lettRpt,f,1.3342,noRew,,,,,,0,39,0,39,0,1,,,,,,,,,,,,,,,,,
293443,2022-11-30_17h51.22.750,vts_reward_expectancy_bt,2022.2.4,MacIntel,60.04202942,Chrome,1440,900,,,,,0,756,,,,,,,,,,,,,,,,,S,125,circle,1,0,,,,,,,,,,,,,,,,repeat,letter,lettRpt,f,0.8106,noRew,,,,,,0,40,0,40,0,1,,,,,,,,,,,,,,,,,
293443,2022-11-30_17h51.22.750,vts_reward_expectancy_bt,2022.2.4,MacIntel,60.04202942,Chrome,1440,900,,,,,0,756,,,,,,,,,,,,,,,,,D,132,triangle,0,0,,,,,,,,,,,,,,,,repeat,letter,NA,f,2.7333,noRew,,,,,,0,41,0,41,0,1,,,,,,,,,,,,,,,,,
293443,2022-11-30_17h51.22.750,vts_reward_expectancy_bt,2022.2.4,MacIntel,60.04202942,Chrome,1440,900,,,,,0,756,,,,,,,,,,,,,,,,,Y,139,hexagon,1,1,,,,,,,,,,,,,,,,repeat,letter,lettRpt,f,0.9326,noRew,,,,,,0,42,0,42,0,1,,,,,,,,,,,,,,,,,
293443,2022-11-30_17h51.22.750,vts_reward_expectancy_bt,2022.2.4,MacIntel,60.04202942,Chrome,1440,900,,,,,0,756,,,,,,,,,,,,,,,,,H,146,triangle,1,0,,,,,,,,,,,,,,,,switch,number,numSwt,j,1.5858,noRew,,,,,,0,43,0,43,0,1,,,,,,,,,,,,,,,,,
293443,2022-11-30_17h51.22.750,vts_reward_expectancy_bt,2022.2.4,MacIntel,60.04202942,Chrome,1440,900,,,,,0,756,,,,,,,,,,,,,,,,,B,146,star,1,0,,,,,,,,,,,,,,,,repeat,number,numRpt,j,1.251,noRew,,,,,,0,44,0,44,0,1,,,,,,,,,,,,,,,,,
293443,2022-11-30_17h51.22.750,vts_reward_expectancy_bt,2022.2.4,MacIntel,60.04202942,Chrome,1440,900,,,,,0,756,,,,,,,,,,,,,,,,,W,160,hexagon,1,0,,,,,,,,,,,,,,,,switch,letter,lettSwt,f,0.6455,noRew,,,,,,0,45,0,45,0,1,,,,,,,,,,,,,,,,,
293443,2022-11-30_17h51.22.750,vts_reward_expectancy_bt,2022.2.4,MacIntel,60.04202942,Chrome,1440,900,,,,,0,756,,,,,,,,,,,,,,,,,H,125,star,1,0,,,,,,,,,,,,,,,,repeat,letter,lettRpt,d,1.1983,noRew,,,,,,0,46,0,46,0,1,,,,,,,,,,,,,,,,,
293443,2022-11-30_17h51.22.750,vts_reward_expectancy_bt,2022.2.4,MacIntel,60.04202942,Chrome,1440,900,,,,,0,756,,,,,,,,,,,,,,,,,Y,181,hexagon,1,0,,,,,,,,,,,,,,,,repeat,letter,lettRpt,f,1.2121,noRew,,,,,,0,47,0,47,0,1,,,,,,,,,,,,,,,,,
293443,2022-11-30_17h51.22.750,vts_reward_expectancy_bt,2022.2.4,MacIntel,60.04202942,Chrome,1440,900,,,,,0,756,,,,,,,,,,,,,,,,,S,125,triangle,1,0,,,,,,,,,,,,,,,,repeat,letter,lettRpt,f,0.7925,noRew,,,,,,0,48,0,48,0,1,,,,,,,,,,,,,,,,,
293443,2022-11-30_17h51.22.750,vts_reward_expectancy_bt,2022.2.4,MacIntel,60.04202942,Chrome,1440,900,,,,,0,756,,,,,,,,,,,,,,,,,W,181,hexagon,1,0,,,,,,,,,,,,,,,,repeat,letter,lettRpt,f,0.7575,noRew,,,,,,0,49,0,49,0,1,,,,,,,,,,,,,,,,,
293443,2022-11-30_17h51.22.750,vts_reward_expectancy_bt,2022.2.4,MacIntel,60.04202942,Chrome,1440,900,,,,,0,756,,,,,,,,,,,,,,,,,H,146,hexagon,1,0,,,,,,,,,,,,,,,,repeat,letter,lettRpt,d,1.0423,noRew,,,,,,0,50,0,50,0,1,,,,,,,,,,,,,,,,,
293443,2022-11-30_17h51.22.750,vts_reward_expectancy_bt,2022.2.4,MacIntel,60.04202942,Chrome,1440,900,,,,,0,756,,,,,,,,,,,,,,,,,B,139,circle,1,0,,,,,,,,,,,,,,,,switch,number,numSwt,j,0.7315,noRew,,,,,,0,51,0,51,0,1,,,,,,,,,,,,,,,,,
293443,2022-11-30_17h51.22.750,vts_reward_expectancy_bt,2022.2.4,MacIntel,60.04202942,Chrome,1440,900,,,,,0,756,,,,,,,,,,,,,,,,,H,139,star,1,0,,,,,,,,,,,,,,,,repeat,number,numRpt,j,1.2417,noRew,,,,,,0,52,0,52,0,1,,,,,,,,,,,,,,,,,
293443,2022-11-30_17h51.22.750,vts_reward_expectancy_bt,2022.2.4,MacIntel,60.04202942,Chrome,1440,900,,,,,0,756,,,,,,,,,,,,,,,,,B,132,triangle,1,0,,,,,,,,,,,,,,,,switch,letter,lettSwt,d,0.6102,noRew,,,,,,0,53,0,53,0,1,,,,,,,,,,,,,,,,,
293443,2022-11-30_17h51.22.750,vts_reward_expectancy_bt,2022.2.4,MacIntel,60.04202942,Chrome,1440,900,,,,,0,756,,,,,,,,,,,,,,,,,D,167,circle,1,0,,,,,,,,,,,,,,,,switch,number,numSwt,k,1.0071,noRew,,,,,,0,54,0,54,0,1,,,,,,,,,,,,,,,,,
293443,2022-11-30_17h51.22.750,vts_reward_expectancy_bt,2022.2.4,MacIntel,60.04202942,Chrome,1440,900,,,,,0,756,,,,,,,,,,,,,,,,,S,160,star,1,0,,,,,,,,,,,,,,,,switch,letter,lettSwt,f,0.9058,noRew,,,,,,0,55,0,55,0,1,,,,,,,,,,,,,,,,,
293443,2022-11-30_17h51.22.750,vts_reward_expectancy_bt,2022.2.4,MacIntel,60.04202942,Chrome,1440,900,,,,,0,756,,,,,,,,,,,,,,,,,S,174,hexagon,1,0,,,,,,,,,,,,,,,,switch,number,numSwt,k,0.8557,noRew,,,,,,0,56,0,56,0,1,,,,,,,,,,,,,,,,,
293443,2022-11-30_17h51.22.750,vts_reward_expectancy_bt,2022.2.4,MacIntel,60.04202942,Chrome,1440,900,,,,,0,756,,,,,,,,,,,,,,,,,F,139,star,1,0,,,,,,,,,,,,,,,,repeat,number,numRpt,j,1.0172,noRew,,,,,,0,57,0,57,0,1,,,,,,,,,,,,,,,,,
293443,2022-11-30_17h51.22.750,vts_reward_expectancy_bt,2022.2.4,MacIntel,60.04202942,Chrome,1440,900,,,,,0,756,,,,,,,,,,,,,,,,,H,132,circle,1,0,,,,,,,,,,,,,,,,repeat,number,numRpt,j,0.9396,noRew,,,,,,0,58,0,58,0,1,,,,,,,,,,,,,,,,,
293443,2022-11-30_17h51.22.750,vts_reward_expectancy_bt,2022.2.4,MacIntel,60.04202942,Chrome,1440,900,,,,,0,756,,,,,,,,,,,,,,,,,D,125,star,1,0,,,,,,,,,,,,,,,,repeat,number,numRpt,j,1.0198,noRew,,,,,,0,59,0,59,0,1,,,,,,,,,,,,,,,,,
293443,2022-11-30_17h51.22.750,vts_reward_expectancy_bt,2022.2.4,MacIntel,60.04202942,Chrome,1440,900,,,,,0,756,,,,,,,,,,,,,,,,,B,139,circle,1,0,,,,,,,,,,,,,,,,switch,letter,lettSwt,d,1.1433,noRew,,,,,,0,60,0,60,0,1,,,,,,,,,,,,,,,,,
293443,2022-11-30_17h51.22.750,vts_reward_expectancy_bt,2022.2.4,MacIntel,60.04202942,Chrome,1440,900,,,,,0,756,,,,,,,,,,,,,,,,,W,125,triangle,1,0,,,,,,,,,,,,,,,,repeat,letter,lettRpt,f,0.9388,noRew,,,,,,0,61,0,61,0,1,,,,,,,,,,,,,,,,,
293443,2022-11-30_17h51.22.750,vts_reward_expectancy_bt,2022.2.4,MacIntel,60.04202942,Chrome,1440,900,,,,,0,756,,,,,,,,,,,,,,,,,H,132,circle,1,0,,,,,,,,,,,,,,,,repeat,letter,lettRpt,d,1.0403,noRew,,,,,,0,62,0,62,0,1,,,,,,,,,,,,,,,,,
293443,2022-11-30_17h51.22.750,vts_reward_expectancy_bt,2022.2.4,MacIntel,60.04202942,Chrome,1440,900,,,,,0,756,,,,,,,,,,,,,,,,,Y,167,triangle,1,0,,,,,,,,,,,,,,,,repeat,letter,lettRpt,f,0.9047,noRew,,,,,,0,63,0,63,0,1,,,,,,,,,,,,,,,,,
293443,2022-11-30_17h51.22.750,vts_reward_expectancy_bt,2022.2.4,MacIntel,60.04202942,Chrome,1440,900,,,,,,,,,,,,,,,,,,,,,,,,,,,,,,,,,,,,,,,,,,,,,,,,,,,,,,,,,,,,,,,,,,,,,,,,,,,,
293443,2022-11-30_17h51.22.750,vts_reward_expectancy_bt,2022.2.4,MacIntel,60.04202942,Chrome,1440,900,,,,,0,756,,,,,,,,,,,,,,,,,S,167,hexagon,1,0,,,,,,,,,,,,,,,,repeat,letter,lettRpt,f,1.0482,Hi,,,,,,0,,,,,,space,3.426,high,0,0,0,0,1,,,,,,,,,
293443,2022-11-30_17h51.22.750,vts_reward_expectancy_bt,2022.2.4,MacIntel,60.04202942,Chrome,1440,900,,,,,0,756,,,,,,,,,,,,,,,,,F,132,triangle,1,0,,,,,,,,,,,,,,,,repeat,letter,lettRpt,d,1.1125,Hi,,,,,,0,,,,,,,,high,1,0,1,0,1,,,,,,,,,
293443,2022-11-30_17h51.22.750,vts_reward_expectancy_bt,2022.2.4,MacIntel,60.04202942,Chrome,1440,900,,,,,1,757,,,,,,,,,,,,,,,,,D,174,circle,1,0,,,,,,,,,,,,,,,,switch,number,numSwt,k,0.7225,Lo,,,,,,0,,,,,,,,high,2,0,2,0,1,,,,,,,,,
293443,2022-11-30_17h51.22.750,vts_reward_expectancy_bt,2022.2.4,MacIntel,60.04202942,Chrome,1440,900,,,,,1,758,,,,,,,,,,,,,,,,,H,181,star,1,0,,,,,,,,,,,,,,,,repeat,number,numRpt,k,0.5652,Lo,,,,,,0,,,,,,,,high,3,0,3,0,1,,,,,,,,,
293443,2022-11-30_17h51.22.750,vts_reward_expectancy_bt,2022.2.4,MacIntel,60.04202942,Chrome,1440,900,,,,,1,759,,,,,,,,,,,,,,,,,U,160,hexagon,1,0,,,,,,,,,,,,,,,,switch,letter,lettSwt,f,0.6414,Hi,,,,,,0,,,,,,,,high,4,0,4,0,1,,,,,,,,,
293443,2022-11-30_17h51.22.750,vts_reward_expectancy_bt,2022.2.4,MacIntel,60.04202942,Chrome,1440,900,,,,,10,769,,,,,,,,,,,,,,,,,B,139,triangle,1,0,,,,,,,,,,,,,,,,switch,number,numSwt,j,0.6108,Hi,,,,,,0,,,,,,,,high,5,0,5,0,1,,,,,,,,,
293443,2022-11-30_17h51.22.750,vts_reward_expectancy_bt,2022.2.4,MacIntel,60.04202942,Chrome,1440,900,,,,,1,770,,,,,,,,,,,,,,,,,Y,146,circle,1,0,,,,,,,,,,,,,,,,switch,letter,lettSwt,f,0.6579,Lo,,,,,,0,,,,,,,,high,6,0,6,0,1,,,,,,,,,
293443,2022-11-30_17h51.22.750,vts_reward_expectancy_bt,2022.2.4,MacIntel,60.04202942,Chrome,1440,900,,,,,1,771,,,,,,,,,,,,,,,,,W,125,star,1,0,,,,,,,,,,,,,,,,switch,number,numSwt,j,1.3375,Lo,,,,,,0,,,,,,,,high,7,0,7,0,1,,,,,,,,,
293443,2022-11-30_17h51.22.750,vts_reward_expectancy_bt,2022.2.4,MacIntel,60.04202942,Chrome,1440,900,,,,,10,781,,,,,,,,,,,,,,,,,S,167,circle,1,0,,,,,,,,,,,,,,,,repeat,number,numRpt,k,1.1333,Lo,,,,,,0,,,,,,,,high,8,0,8,0,1,,,,,,,,,
293443,2022-11-30_17h51.22.750,vts_reward_expectancy_bt,2022.2.4,MacIntel,60.04202942,Chrome,1440,900,,,,,10,791,,,,,,,,,,,,,,,,,F,132,star,1,0,,,,,,,,,,,,,,,,switch,letter,lettSwt,d,0.9403,Lo,,,,,,0,,,,,,,,high,9,0,9,0,1,,,,,,,,,
293443,2022-11-30_17h51.22.750,vts_reward_expectancy_bt,2022.2.4,MacIntel,60.04202942,Chrome,1440,900,,,,,10,801,,,,,,,,,,,,,,,,,D,174,hexagon,1,0,,,,,,,,,,,,,,,,repeat,letter,lettRpt,d,0.8696,Hi,,,,,,0,,,,,,,,high,10,0,10,0,1,,,,,,,,,
293443,2022-11-30_17h51.22.750,vts_reward_expectancy_bt,2022.2.4,MacIntel,60.04202942,Chrome,1440,900,,,,,10,811,,,,,,,,,,,,,,,,,H,181,triangle,1,0,,,,,,,,,,,,,,,,switch,number,numSwt,k,0.7915,Hi,,,,,,0,,,,,,,,high,11,0,11,0,1,,,,,,,,,
293443,2022-11-30_17h51.22.750,vts_reward_expectancy_bt,2022.2.4,MacIntel,60.04202942,Chrome,1440,900,,,,,0,811,,,,,,,,,,,,,,,,,U,160,triangle,1,0,,,,,,,,,,,,,,,,repeat,number,numRpt,k,1.3432,Hi,,,,,,0,,,,,,,,high,12,0,12,0,1,,,,,,,,,
293443,2022-11-30_17h51.22.750,vts_reward_expectancy_bt,2022.2.4,MacIntel,60.04202942,Chrome,1440,900,,,,,10,821,,,,,,,,,,,,,,,,,B,139,star,1,0,,,,,,,,,,,,,,,,switch,letter,lettSwt,d,0.8154,Lo,,,,,,0,,,,,,,,high,13,0,13,0,1,,,,,,,,,
293443,2022-11-30_17h51.22.750,vts_reward_expectancy_bt,2022.2.4,MacIntel,60.04202942,Chrome,1440,900,,,,,1,822,,,,,,,,,,,,,,,,,Y,146,circle,1,0,,,,,,,,,,,,,,,,switch,number,numSwt,j,0.7342,Lo,,,,,,0,,,,,,,,high,14,0,14,0,1,,,,,,,,,
293443,2022-11-30_17h51.22.750,vts_reward_expectancy_bt,2022.2.4,MacIntel,60.04202942,Chrome,1440,900,,,,,10,832,,,,,,,,,,,,,,,,,W,125,hexagon,1,0,,,,,,,,,,,,,,,,repeat,number,numRpt,j,0.8077,Hi,,,,,,0,,,,,,,,high,15,0,15,0,1,,,,,,,,,
293443,2022-11-30_17h51.22.750,vts_reward_expectancy_bt,2022.2.4,MacIntel,60.04202942,Chrome,1440,900,,,,,1,833,,,,,,,,,,,,,,,,,Y,132,circle,1,0,,,,,,,,,,,,,,,,repeat,number,numRpt,j,0.8412,Lo,,,,,,0,,,,,,,,high,16,0,16,0,1,,,,,,,,,
293443,2022-11-30_17h51.22.750,vts_reward_expectancy_bt,2022.2.4,MacIntel,60.04202942,Chrome,1440,900,,,,,10,843,,,,,,,,,,,,,,,,,H,146,hexagon,1,0,,,,,,,,,,,,,,,,repeat,number,numRpt,j,0.6866,Hi,,,,,,0,,,,,,,,high,17,0,17,0,1,,,,,,,,,
293443,2022-11-30_17h51.22.750,vts_reward_expectancy_bt,2022.2.4,MacIntel,60.04202942,Chrome,1440,900,,,,,10,853,,,,,,,,,,,,,,,,,U,160,star,1,0,,,,,,,,,,,,,,,,switch,letter,lettSwt,f,0.8525,Lo,,,,,,0,,,,,,,,high,18,0,18,0,1,,,,,,,,,
293443,2022-11-30_17h51.22.750,vts_reward_expectancy_bt,2022.2.4,MacIntel,60.04202942,Chrome,1440,900,,,,,0,853,,,,,,,,,,,,,,,,,S,174,triangle,1,0,,,,,,,,,,,,,,,,switch,number,numSwt,k,1.072,Hi,,,,,,0,,,,,,,,high,19,0,19,0,1,,,,,,,,,
293443,2022-11-30_17h51.22.750,vts_reward_expectancy_bt,2022.2.4,MacIntel,60.04202942,Chrome,1440,900,,,,,0,853,,,,,,,,,,,,,,,,,W,167,hexagon,1,0,,,,,,,,,,,,,,,,switch,letter,lettSwt,f,0.9091,Hi,,,,,,0,,,,,,,,high,20,0,20,0,1,,,,,,,,,
293443,2022-11-30_17h51.22.750,vts_reward_expectancy_bt,2022.2.4,MacIntel,60.04202942,Chrome,1440,900,,,,,10,863,,,,,,,,,,,,,,,,,F,125,circle,1,0,,,,,,,,,,,,,,,,repeat,letter,lettRpt,d,0.9491,Lo,,,,,,0,,,,,,,,high,21,0,21,0,1,,,,,,,,,
293443,2022-11-30_17h51.22.750,vts_reward_expectancy_bt,2022.2.4,MacIntel,60.04202942,Chrome,1440,900,,,,,1,864,,,,,,,,,,,,,,,,,B,181,star,1,0,,,,,,,,,,,,,,,,repeat,letter,lettRpt,d,0.6056,Lo,,,,,,0,,,,,,,,high,22,0,22,0,1,,,,,,,,,
293443,2022-11-30_17h51.22.750,vts_reward_expectancy_bt,2022.2.4,MacIntel,60.04202942,Chrome,1440,900,,,,,0,864,,,,,,,,,,,,,,,,,D,139,triangle,1,0,,,,,,,,,,,,,,,,repeat,letter,lettRpt,d,0.9988,Hi,,,,,,0,,,,,,,,high,23,0,23,0,1,,,,,,,,,
293443,2022-11-30_17h51.22.750,vts_reward_expectancy_bt,2022.2.4,MacIntel,60.04202942,Chrome,1440,900,,,,,10,874,,,,,,,,,,,,,,,,,W,146,triangle,1,0,,,,,,,,,,,,,,,,repeat,letter,lettRpt,f,0.7464,Hi,,,,,,0,,,,,,,,high,24,0,24,0,1,,,,,,,,,
293443,2022-11-30_17h51.22.750,vts_reward_expectancy_bt,2022.2.4,MacIntel,60.04202942,Chrome,1440,900,,,,,10,884,,,,,,,,,,,,,,,,,U,181,circle,1,0,,,,,,,,,,,,,,,,switch,number,numSwt,k,0.9028,Lo,,,,,,0,,,,,,,,high,25,0,25,0,1,,,,,,,,,
293443,2022-11-30_17h51.22.750,vts_reward_expectancy_bt,2022.2.4,MacIntel,60.04202942,Chrome,1440,900,,,,,1,885,,,,,,,,,,,,,,,,,D,139,star,1,0,,,,,,,,,,,,,,,,repeat,number,numRpt,j,0.6698,Lo,,,,,,0,,,,,,,,high,26,0,26,0,1,,,,,,,,,
293443,2022-11-30_17h51.22.750,vts_reward_expectancy_bt,2022.2.4,MacIntel,60.04202942,Chrome,1440,900,,,,,10,895,,,,,,,,,,,,,,,,,Y,132,hexagon,1,0,,,,,,,,,,,,,,,,repeat,number,numRpt,j,0.7587,Hi,,,,,,0,,,,,,,,high,27,0,27,0,1,,,,,,,,,
293443,2022-11-30_17h51.22.750,vts_reward_expectancy_bt,2022.2.4,MacIntel,60.04202942,Chrome,1440,900,,,,,10,905,,,,,,,,,,,,,,,,,B,167,star,1,0,,,,,,,,,,,,,,,,switch,letter,lettSwt,d,0.6466,Lo,,,,,,0,,,,,,,,high,28,0,28,0,1,,,,,,,,,
293443,2022-11-30_17h51.22.750,vts_reward_expectancy_bt,2022.2.4,MacIntel,60.04202942,Chrome,1440,900,,,,,1,906,,,,,,,,,,,,,,,,,H,160,circle,1,0,,,,,,,,,,,,,,,,switch,number,numSwt,k,1.1674,Lo,,,,,,0,,,,,,,,high,29,0,29,0,1,,,,,,,,,
293443,2022-11-30_17h51.22.750,vts_reward_expectancy_bt,2022.2.4,MacIntel,60.04202942,Chrome,1440,900,,,,,1,907,,,,,,,,,,,,,,,,,F,174,triangle,1,0,,,,,,,,,,,,,,,,repeat,number,numRpt,k,0.8369,Hi,,,,,,0,,,,,,,,high,30,0,30,0,1,,,,,,,,,
293443,2022-11-30_17h51.22.750,vts_reward_expectancy_bt,2022.2.4,MacIntel,60.04202942,Chrome,1440,900,,,,,10,917,,,,,,,,,,,,,,,,,S,125,hexagon,1,0,,,,,,,,,,,,,,,,repeat,number,numRpt,j,0.823,Hi,,,,,,0,,,,,,,,high,31,0,31,0,1,,,,,,,,,
293443,2022-11-30_17h51.22.750,vts_reward_expectancy_bt,2022.2.4,MacIntel,60.04202942,Chrome,1440,900,,,,,1,918,,,,,,,,,,,,,,,,,H,139,circle,1,0,,,,,,,,,,,,,,,,repeat,number,numRpt,j,1.0592,Lo,,,,,,1,,,,,,space,1.5588,high,0,0,0,0,1,,,,,,,,,
293443,2022-11-30_17h51.22.750,vts_reward_expectancy_bt,2022.2.4,MacIntel,60.04202942,Chrome,1440,900,,,,,0,918,,,,,,,,,,,,,,,,,U,146,hexagon,1,0,,,,,,,,,,,,,,,,repeat,number,numRpt,j,0.8867,Hi,,,,,,1,,,,,,,,high,1,0,1,0,1,,,,,,,,,
293443,2022-11-30_17h51.22.750,vts_reward_expectancy_bt,2022.2.4,MacIntel,60.04202942,Chrome,1440,900,,,,,1,919,,,,,,,,,,,,,,,,,Y,160,star,1,0,,,,,,,,,,,,,,,,repeat,number,numRpt,k,0.6199,Lo,,,,,,1,,,,,,,,high,2,0,2,0,1,,,,,,,,,
293443,2022-11-30_17h51.22.750,vts_reward_expectancy_bt,2022.2.4,MacIntel,60.04202942,Chrome,1440,900,,,,,10,929,,,,,,,,,,,,,,,,,W,174,triangle,1,0,,,,,,,,,,,,,,,,switch,letter,lettSwt,f,0.5627,Hi,,,,,,1,,,,,,,,high,3,0,3,0,1,,,,,,,,,
293443,2022-11-30_17h51.22.750,vts_reward_expectancy_bt,2022.2.4,MacIntel,60.04202942,Chrome,1440,900,,,,,1,930,,,,,,,,,,,,,,,,,F,125,circle,1,0,,,,,,,,,,,,,,,,repeat,letter,lettRpt,d,0.9344,Lo,,,,,,1,,,,,,,,high,4,0,4,0,1,,,,,,,,,
293443,2022-11-30_17h51.22.750,vts_reward_expectancy_bt,2022.2.4,MacIntel,60.04202942,Chrome,1440,900,,,,,0,930,,,,,,,,,,,,,,,,,S,181,hexagon,1,0,,,,,,,,,,,,,,,,switch,number,numSwt,k,0.9603,Hi,,,,,,1,,,,,,,,high,5,0,5,0,1,,,,,,,,,
293443,2022-11-30_17h51.22.750,vts_reward_expectancy_bt,2022.2.4,MacIntel,60.04202942,Chrome,1440,900,,,,,1,931,,,,,,,,,,,,,,,,,D,132,star,1,0,,,,,,,,,,,,,,,,repeat,number,numRpt,j,0.8031,Lo,,,,,,1,,,,,,,,high,6,0,6,0,1,,,,,,,,,
293443,2022-11-30_17h51.22.750,vts_reward_expectancy_bt,2022.2.4,MacIntel,60.04202942,Chrome,1440,900,,,,,0,931,,,,,,,,,,,,,,,,,B,167,triangle,1,0,,,,,,,,,,,,,,,,switch,letter,lettSwt,d,0.7255,Hi,,,,,,1,,,,,,,,high,7,0,7,0,1,,,,,,,,,
293443,2022-11-30_17h51.22.750,vts_reward_expectancy_bt,2022.2.4,MacIntel,60.04202942,Chrome,1440,900,,,,,0,931,,,,,,,,,,,,,,,,,H,139,triangle,0,0,,,,,,,,,,,,,,,,repeat,letter,NA,f,0.9321,Hi,,,,,,1,,,,,,,,high,8,0,8,0,1,,,,,,,,,
293443,2022-11-30_17h51.22.750,vts_reward_expectancy_bt,2022.2.4,MacIntel,60.04202942,Chrome,1440,900,,,,,1,932,,,,,,,,,,,,,,,,,U,146,star,1,1,,,,,,,,,,,,,,,,repeat,letter,lettRpt,f,0.7043,Lo,,,,,,1,,,,,,,,high,9,0,9,0,1,,,,,,,,,
293443,2022-11-30_17h51.22.750,vts_reward_expectancy_bt,2022.2.4,MacIntel,60.04202942,Chrome,1440,900,,,,,1,933,,,,,,,,,,,,,,,,,Y,160,circle,1,0,,,,,,,,,,,,,,,,switch,number,numSwt,k,1.0357,Lo,,,,,,1,,,,,,,,high,10,0,10,0,1,,,,,,,,,
293443,2022-11-30_17h51.22.750,vts_reward_expectancy_bt,2022.2.4,MacIntel,60.04202942,Chrome,1440,900,,,,,0,933,,,,,,,,,,,,,,,,,W,174,hexagon,1,0,,,,,,,,,,,,,,,,repeat,number,numRpt,k,0.8291,Hi,,,,,,1,,,,,,,,high,11,0,11,0,1,,,,,,,,,
293443,2022-11-30_17h51.22.750,vts_reward_expectancy_bt,2022.2.4,MacIntel,60.04202942,Chrome,1440,900,,,,,1,934,,,,,,,,,,,,,,,,,F,125,hexagon,1,0,,,,,,,,,,,,,,,,repeat,number,numRpt,j,0.6732,Hi,,,,,,1,,,,,,,,high,12,0,12,0,1,,,,,,,,,
293443,2022-11-30_17h51.22.750,vts_reward_expectancy_bt,2022.2.4,MacIntel,60.04202942,Chrome,1440,900,,,,,0,934,,,,,,,,,,,,,,,,,S,181,triangle,1,0,,,,,,,,,,,,,,,,switch,letter,lettSwt,f,0.7803,Hi,,,,,,1,,,,,,,,high,13,0,13,0,1,,,,,,,,,
293443,2022-11-30_17h51.22.750,vts_reward_expectancy_bt,2022.2.4,MacIntel,60.04202942,Chrome,1440,900,,,,,0,934,,,,,,,,,,,,,,,,,D,132,circle,-1,0,,,,,,,,,,,,,,,,switch,no_choice,NA,,,Hi,,,,,,1,,,,,,,,high,14,0,14,0,1,,,,,,,,,
293443,2022-11-30_17h51.22.750,vts_reward_expectancy_bt,2022.2.4,MacIntel,60.04202942,Chrome,1440,900,,,,,10,944,,,,,,,,,,,,,,,,,B,167,star,1,0,,,,,,,,,,,,,,,,switch,letter,lettSwt,d,0.716,Lo,,,,,,1,,,,,,,,high,15,0,15,0,1,,,,,,,,,
293443,2022-11-30_17h51.22.750,vts_reward_expectancy_bt,2022.2.4,MacIntel,60.04202942,Chrome,1440,900,,,,,10,954,,,,,,,,,,,,,,,,,Y,125,circle,1,0,,,,,,,,,,,,,,,,switch,number,numSwt,j,1.4478,Lo,,,,,,1,,,,,,,,high,16,0,16,0,1,,,,,,,,,
293443,2022-11-30_17h51.22.750,vts_reward_expectancy_bt,2022.2.4,MacIntel,60.04202942,Chrome,1440,900,,,,,10,964,,,,,,,,,,,,,,,,,W,132,hexagon,1,0,,,,,,,,,,,,,,,,repeat,number,numRpt,j,0.7395,Hi,,,,,,1,,,,,,,,high,17,0,17,0,1,,,,,,,,,
293443,2022-11-30_17h51.22.750,vts_reward_expectancy_bt,2022.2.4,MacIntel,60.04202942,Chrome,1440,900,,,,,10,974,,,,,,,,,,,,,,,,,F,167,star,1,0,,,,,,,,,,,,,,,,switch,letter,lettSwt,d,0.6974,Lo,,,,,,1,,,,,,,,high,18,0,18,0,1,,,,,,,,,
293443,2022-11-30_17h51.22.750,vts_reward_expectancy_bt,2022.2.4,MacIntel,60.04202942,Chrome,1440,900,,,,,0,974,,,,,,,,,,,,,,,,,U,174,triangle,1,0,,,,,,,,,,,,,,,,repeat,letter,lettRpt,f,0.9232,Hi,,,,,,1,,,,,,,,high,19,0,19,0,1,,,,,,,,,
293443,2022-11-30_17h51.22.750,vts_reward_expectancy_bt,2022.2.4,MacIntel,60.04202942,Chrome,1440,900,,,,,1,975,,,,,,,,,,,,,,,,,S,160,star,1,0,,,,,,,,,,,,,,,,repeat,letter,lettRpt,f,0.5973,Lo,,,,,,1,,,,,,,,high,20,0,20,0,1,,,,,,,,,
293443,2022-11-30_17h51.22.750,vts_reward_expectancy_bt,2022.2.4,MacIntel,60.04202942,Chrome,1440,900,,,,,10,985,,,,,,,,,,,,,,,,,B,139,circle,1,0,,,,,,,,,,,,,,,,switch,number,numSwt,j,0.7173,Lo,,,,,,1,,,,,,,,high,21,0,21,0,1,,,,,,,,,
293443,2022-11-30_17h51.22.750,vts_reward_expectancy_bt,2022.2.4,MacIntel,60.04202942,Chrome,1440,900,,,,,0,985,,,,,,,,,,,,,,,,,H,146,triangle,1,0,,,,,,,,,,,,,,,,switch,letter,lettSwt,d,0.8774,Hi,,,,,,1,,,,,,,,high,22,0,22,0,1,,,,,,,,,
293443,2022-11-30_17h51.22.750,vts_reward_expectancy_bt,2022.2.4,MacIntel,60.04202942,Chrome,1440,900,,,,,10,995,,,,,,,,,,,,,,,,,D,181,hexagon,1,0,,,,,,,,,,,,,,,,switch,number,numSwt,k,0.632,Hi,,,,,,1,,,,,,,,high,23,0,23,0,1,,,,,,,,,
293443,2022-11-30_17h51.22.750,vts_reward_expectancy_bt,2022.2.4,MacIntel,60.04202942,Chrome,1440,900,,,,,1,996,,,,,,,,,,,,,,,,,S,167,star,1,0,,,,,,,,,,,,,,,,repeat,number,numRpt,k,0.8658,Lo,,,,,,1,,,,,,,,high,24,0,24,0,1,,,,,,,,,
293443,2022-11-30_17h51.22.750,vts_reward_expectancy_bt,2022.2.4,MacIntel,60.04202942,Chrome,1440,900,,,,,10,1006,,,,,,,,,,,,,,,,,W,174,hexagon,1,0,,,,,,,,,,,,,,,,repeat,number,numRpt,k,0.6732,Hi,,,,,,1,,,,,,,,high,25,0,25,0,1,,,,,,,,,
293443,2022-11-30_17h51.22.750,vts_reward_expectancy_bt,2022.2.4,MacIntel,60.04202942,Chrome,1440,900,,,,,10,1016,,,,,,,,,,,,,,,,,F,160,triangle,1,0,,,,,,,,,,,,,,,,switch,letter,lettSwt,d,0.5763,Hi,,,,,,1,,,,,,,,high,26,0,26,0,1,,,,,,,,,
293443,2022-11-30_17h51.22.750,vts_reward_expectancy_bt,2022.2.4,MacIntel,60.04202942,Chrome,1440,900,,,,,1,1017,,,,,,,,,,,,,,,,,U,146,circle,1,0,,,,,,,,,,,,,,,,switch,number,numSwt,j,0.627,Lo,,,,,,1,,,,,,,,high,27,0,27,0,1,,,,,,,,,
293443,2022-11-30_17h51.22.750,vts_reward_expectancy_bt,2022.2.4,MacIntel,60.04202942,Chrome,1440,900,,,,,0,1017,,,,,,,,,,,,,,,,,B,139,triangle,1,0,,,,,,,,,,,,,,,,switch,letter,lettSwt,d,1.0122,Hi,,,,,,1,,,,,,,,high,28,0,28,0,1,,,,,,,,,
293443,2022-11-30_17h51.22.750,vts_reward_expectancy_bt,2022.2.4,MacIntel,60.04202942,Chrome,1440,900,,,,,10,1027,,,,,,,,,,,,,,,,,D,181,circle,1,0,,,,,,,,,,,,,,,,switch,number,numSwt,k,0.7642,Lo,,,,,,1,,,,,,,,high,29,0,29,0,1,,,,,,,,,
293443,2022-11-30_17h51.22.750,vts_reward_expectancy_bt,2022.2.4,MacIntel,60.04202942,Chrome,1440,900,,,,,1,1028,,,,,,,,,,,,,,,,,H,125,star,1,0,,,,,,,,,,,,,,,,repeat,number,numRpt,j,0.7018,Lo,,,,,,1,,,,,,,,high,30,0,30,0,1,,,,,,,,,
293443,2022-11-30_17h51.22.750,vts_reward_expectancy_bt,2022.2.4,MacIntel,60.04202942,Chrome,1440,900,,,,,10,1038,,,,,,,,,,,,,,,,,Y,132,hexagon,1,0,,,,,,,,,,,,,,,,repeat,number,numRpt,j,0.7143,Hi,,,,,,1,,,,,,,,high,31,0,31,0,1,,,,,,,,,
293443,2022-11-30_17h51.22.750,vts_reward_expectancy_bt,2022.2.4,MacIntel,60.04202942,Chrome,1440,900,,,,,0,1038,,,,,,,,,,,,,,,,,U,146,triangle,1,0,,,,,,,,,,,,,,,,switch,letter,lettSwt,f,0.7084,Hi,,,,,,2,,,,,,space,0.8585,high,0,0,0,0,1,,,,,,,,,
293443,2022-11-30_17h51.22.750,vts_reward_expectancy_bt,2022.2.4,MacIntel,60.04202942,Chrome,1440,900,,,,,1,1039,,,,,,,,,,,,,,,,,B,181,star,1,0,,,,,,,,,,,,,,,,switch,number,numSwt,k,0.7492,Lo,,,,,,2,,,,,,,,high,1,0,1,0,1,,,,,,,,,
293443,2022-11-30_17h51.22.750,vts_reward_expectancy_bt,2022.2.4,MacIntel,60.04202942,Chrome,1440,900,,,,,1,1040,,,,,,,,,,,,,,,,,H,167,circle,1,0,,,,,,,,,,,,,,,,repeat,number,numRpt,k,0.7693,Lo,,,,,,2,,,,,,,,high,2,0,2,0,1,,,,,,,,,
293443,2022-11-30_17h51.22.750,vts_reward_expectancy_bt,2022.2.4,MacIntel,60.04202942,Chrome,1440,900,,,,,0,1040,,,,,,,,,,,,,,,,,W,139,hexagon,1,0,,,,,,,,,,,,,,,,repeat,number,numRpt,j,0.8318,Hi,,,,,,2,,,,,,,,high,3,0,3,0,1,,,,,,,,,
293443,2022-11-30_17h51.22.750,vts_reward_expectancy_bt,2022.2.4,MacIntel,60.04202942,Chrome,1440,900,,,,,10,1050,,,,,,,,,,,,,,,,,F,174,triangle,1,0,,,,,,,,,,,,,,,,switch,letter,lettSwt,d,0.6964,Hi,,,,,,2,,,,,,,,high,4,0,4,0,1,,,,,,,,,
293443,2022-11-30_17h51.22.750,vts_reward_expectancy_bt,2022.2.4,MacIntel,60.04202942,Chrome,1440,900,,,,,1,1051,,,,,,,,,,,,,,,,,S,132,star,1,0,,,,,,,,,,,,,,,,repeat,letter,lettRpt,f,0.8866,Lo,,,,,,2,,,,,,,,high,5,0,5,0,1,,,,,,,,,
293443,2022-11-30_17h51.22.750,vts_reward_expectancy_bt,2022.2.4,MacIntel,60.04202942,Chrome,1440,900,,,,,10,1061,,,,,,,,,,,,,,,,,Y,125,circle,1,0,,,,,,,,,,,,,,,,switch,number,numSwt,j,0.6718,Lo,,,,,,2,,,,,,,,high,6,0,6,0,1,,,,,,,,,
293443,2022-11-30_17h51.22.750,vts_reward_expectancy_bt,2022.2.4,MacIntel,60.04202942,Chrome,1440,900,,,,,0,1061,,,,,,,,,,,,,,,,,D,160,hexagon,1,0,,,,,,,,,,,,,,,,repeat,number,numRpt,k,0.7316,Hi,,,,,,2,,,,,,,,high,7,0,7,0,1,,,,,,,,,
293443,2022-11-30_17h51.22.750,vts_reward_expectancy_bt,2022.2.4,MacIntel,60.04202942,Chrome,1440,900,,,,,1,1062,,,,,,,,,,,,,,,,,U,146,star,1,0,,,,,,,,,,,,,,,,switch,letter,lettSwt,f,0.665,Lo,,,,,,2,,,,,,,,high,8,0,8,0,1,,,,,,,,,
293443,2022-11-30_17h51.22.750,vts_reward_expectancy_bt,2022.2.4,MacIntel,60.04202942,Chrome,1440,900,,,,,1,1063,,,,,,,,,,,,,,,,,B,181,circle,1,0,,,,,,,,,,,,,,,,switch,number,numSwt,k,0.5253,Lo,,,,,,2,,,,,,,,high,9,0,9,0,1,,,,,,,,,
293443,2022-11-30_17h51.22.750,vts_reward_expectancy_bt,2022.2.4,MacIntel,60.04202942,Chrome,1440,900,,,,,0,1063,,,,,,,,,,,,,,,,,H,167,triangle,0,0,,,,,,,,,,,,,,,,switch,letter,NA,f,0.7735,Lo,,,,,,2,,,,,,,,high,10,0,10,0,1,,,,,,,,,
293443,2022-11-30_17h51.22.750,vts_reward_expectancy_bt,2022.2.4,MacIntel,60.04202942,Chrome,1440,900,,,,,0,1063,,,,,,,,,,,,,,,,,W,139,hexagon,1,1,,,,,,,,,,,,,,,,switch,number,numSwt,j,1.3094,Hi,,,,,,2,,,,,,,,high,11,0,11,0,1,,,,,,,,,
293443,2022-11-30_17h51.22.750,vts_reward_expectancy_bt,2022.2.4,MacIntel,60.04202942,Chrome,1440,900,,,,,0,1063,,,,,,,,,,,,,,,,,F,174,hexagon,1,0,,,,,,,,,,,,,,,,repeat,number,numRpt,k,0.7716,Hi,,,,,,2,,,,,,,,high,12,0,12,0,1,,,,,,,,,
293443,2022-11-30_17h51.22.750,vts_reward_expectancy_bt,2022.2.4,MacIntel,60.04202942,Chrome,1440,900,,,,,0,1063,,,,,,,,,,,,,,,,,S,132,triangle,1,0,,,,,,,,,,,,,,,,switch,letter,lettSwt,f,1.0671,Hi,,,,,,2,,,,,,,,high,13,0,13,0,1,,,,,,,,,
293443,2022-11-30_17h51.22.750,vts_reward_expectancy_bt,2022.2.4,MacIntel,60.04202942,Chrome,1440,900,,,,,1,1064,,,,,,,,,,,,,,,,,Y,125,circle,1,0,,,,,,,,,,,,,,,,switch,number,numSwt,j,0.9738,Lo,,,,,,2,,,,,,,,high,14,0,14,0,1,,,,,,,,,
293443,2022-11-30_17h51.22.750,vts_reward_expectancy_bt,2022.2.4,MacIntel,60.04202942,Chrome,1440,900,,,,,10,1074,,,,,,,,,,,,,,,,,D,160,star,1,0,,,,,,,,,,,,,,,,repeat,number,numRpt,k,0.659,Lo,,,,,,2,,,,,,,,high,15,0,15,0,1,,,,,,,,,
293443,2022-11-30_17h51.22.750,vts_reward_expectancy_bt,2022.2.4,MacIntel,60.04202942,Chrome,1440,900,,,,,1,1075,,,,,,,,,,,,,,,,,H,174,circle,1,0,,,,,,,,,,,,,,,,switch,letter,lettSwt,d,0.6775,Lo,,,,,,2,,,,,,,,high,16,0,16,0,1,,,,,,,,,
293443,2022-11-30_17h51.22.750,vts_reward_expectancy_bt,2022.2.4,MacIntel,60.04202942,Chrome,1440,900,,,,,10,1085,,,,,,,,,,,,,,,,,B,125,hexagon,1,0,,,,,,,,,,,,,,,,switch,number,numSwt,j,0.6906,Hi,,,,,,2,,,,,,,,high,17,0,17,0,1,,,,,,,,,
293443,2022-11-30_17h51.22.750,vts_reward_expectancy_bt,2022.2.4,MacIntel,60.04202942,Chrome,1440,900,,,,,10,1095,,,,,,,,,,,,,,,,,D,160,star,1,0,,,,,,,,,,,,,,,,switch,letter,lettSwt,d,0.5844,Lo,,,,,,2,,,,,,,,high,18,0,18,0,1,,,,,,,,,
293443,2022-11-30_17h51.22.750,vts_reward_expectancy_bt,2022.2.4,MacIntel,60.04202942,Chrome,1440,900,,,,,1,1096,,,,,,,,,,,,,,,,,S,146,triangle,1,0,,,,,,,,,,,,,,,,repeat,letter,lettRpt,f,0.6254,Hi,,,,,,2,,,,,,,,high,19,0,19,0,1,,,,,,,,,
293443,2022-11-30_17h51.22.750,vts_reward_expectancy_bt,2022.2.4,MacIntel,60.04202942,Chrome,1440,900,,,,,1,1097,,,,,,,,,,,,,,,,,Y,167,circle,1,0,,,,,,,,,,,,,,,,repeat,letter,lettRpt,f,0.7088,Lo,,,,,,2,,,,,,,,high,20,0,20,0,1,,,,,,,,,
293443,2022-11-30_17h51.22.750,vts_reward_expectancy_bt,2022.2.4,MacIntel,60.04202942,Chrome,1440,900,,,,,0,1097,,,,,,,,,,,,,,,,,F,139,hexagon,1,0,,,,,,,,,,,,,,,,switch,number,numSwt,j,0.7976,Hi,,,,,,2,,,,,,,,high,21,0,21,0,1,,,,,,,,,
293443,2022-11-30_17h51.22.750,vts_reward_expectancy_bt,2022.2.4,MacIntel,60.04202942,Chrome,1440,900,,,,,1,1098,,,,,,,,,,,,,,,,,U,181,star,1,0,,,,,,,,,,,,,,,,repeat,number,numRpt,k,0.903,Lo,,,,,,2,,,,,,,,high,22,0,22,0,1,,,,,,,,,
293443,2022-11-30_17h51.22.750,vts_reward_expectancy_bt,2022.2.4,MacIntel,60.04202942,Chrome,1440,900,,,,,10,1108,,,,,,,,,,,,,,,,,W,132,triangle,1,0,,,,,,,,,,,,,,,,repeat,number,numRpt,j,0.6952,Hi,,,,,,2,,,,,,,,high,23,0,23,0,1,,,,,,,,,
293443,2022-11-30_17h51.22.750,vts_reward_expectancy_bt,2022.2.4,MacIntel,60.04202942,Chrome,1440,900,,,,,1,1109,,,,,,,,,,,,,,,,,F,125,triangle,1,0,,,,,,,,,,,,,,,,repeat,number,numRpt,j,0.5711,Hi,,,,,,2,,,,,,,,high,24,0,24,0,1,,,,,,,,,
293443,2022-11-30_17h51.22.750,vts_reward_expectancy_bt,2022.2.4,MacIntel,60.04202942,Chrome,1440,900,,,,,1,1110,,,,,,,,,,,,,,,,,S,139,circle,1,0,,,,,,,,,,,,,,,,repeat,number,numRpt,j,0.7387,Lo,,,,,,2,,,,,,,,high,25,0,25,0,1,,,,,,,,,
293443,2022-11-30_17h51.22.750,vts_reward_expectancy_bt,2022.2.4,MacIntel,60.04202942,Chrome,1440,900,,,,,10,1120,,,,,,,,,,,,,,,,,W,132,hexagon,1,0,,,,,,,,,,,,,,,,repeat,number,numRpt,j,0.563,Hi,,,,,,2,,,,,,,,high,26,0,26,0,1,,,,,,,,,
293443,2022-11-30_17h51.22.750,vts_reward_expectancy_bt,2022.2.4,MacIntel,60.04202942,Chrome,1440,900,,,,,1,1121,,,,,,,,,,,,,,,,,B,181,star,1,0,,,,,,,,,,,,,,,,switch,letter,lettSwt,d,0.619,Lo,,,,,,2,,,,,,,,high,27,0,27,0,1,,,,,,,,,
293443,2022-11-30_17h51.22.750,vts_reward_expectancy_bt,2022.2.4,MacIntel,60.04202942,Chrome,1440,900,,,,,10,1131,,,,,,,,,,,,,,,,,Y,174,triangle,1,0,,,,,,,,,,,,,,,,repeat,letter,lettRpt,f,0.6778,Hi,,,,,,2,,,,,,,,high,28,0,28,0,1,,,,,,,,,
293443,2022-11-30_17h51.22.750,vts_reward_expectancy_bt,2022.2.4,MacIntel,60.04202942,Chrome,1440,900,,,,,1,1132,,,,,,,,,,,,,,,,,H,167,star,1,0,,,,,,,,,,,,,,,,switch,number,numSwt,k,1.2494,Lo,,,,,,2,,,,,,,,high,29,0,29,0,1,,,,,,,,,
293443,2022-11-30_17h51.22.750,vts_reward_expectancy_bt,2022.2.4,MacIntel,60.04202942,Chrome,1440,900,,,,,0,1132,,,,,,,,,,,,,,,,,D,146,hexagon,1,0,,,,,,,,,,,,,,,,repeat,number,numRpt,j,0.862,Hi,,,,,,2,,,,,,,,high,30,0,30,0,1,,,,,,,,,
293443,2022-11-30_17h51.22.750,vts_reward_expectancy_bt,2022.2.4,MacIntel,60.04202942,Chrome,1440,900,,,,,1,1133,,,,,,,,,,,,,,,,,U,160,circle,1,0,,,,,,,,,,,,,,,,switch,letter,lettSwt,f,0.6547,Lo,,,,,,2,,,,,,,,high,31,0,31,0,1,,,,,,,,,
293443,2022-11-30_17h51.22.750,vts_reward_expectancy_bt,2022.2.4,MacIntel,60.04202942,Chrome,1440,900,,,,,0,1133,,,,,,,,,,,,,,,,,W,125,triangle,1,0,,,,,,,,,,,,,,,,repeat,letter,lettRpt,f,0.9044,Hi,,,,,,3,,,,,,space,1.4111,high,0,0,0,0,1,,,,,,,,,
293443,2022-11-30_17h51.22.750,vts_reward_expectancy_bt,2022.2.4,MacIntel,60.04202942,Chrome,1440,900,,,,,0,1133,,,,,,,,,,,,,,,,,B,132,hexagon,1,0,,,,,,,,,,,,,,,,switch,number,numSwt,j,0.7251,Hi,,,,,,3,,,,,,,,high,1,0,1,0,1,,,,,,,,,
293443,2022-11-30_17h51.22.750,vts_reward_expectancy_bt,2022.2.4,MacIntel,60.04202942,Chrome,1440,900,,,,,1,1134,,,,,,,,,,,,,,,,,D,139,star,1,0,,,,,,,,,,,,,,,,repeat,number,numRpt,j,0.6068,Lo,,,,,,3,,,,,,,,high,2,0,2,0,1,,,,,,,,,
293443,2022-11-30_17h51.22.750,vts_reward_expectancy_bt,2022.2.4,MacIntel,60.04202942,Chrome,1440,900,,,,,1,1135,,,,,,,,,,,,,,,,,S,174,circle,1,0,,,,,,,,,,,,,,,,repeat,number,numRpt,k,0.6834,Lo,,,,,,3,,,,,,,,high,3,0,3,0,1,,,,,,,,,
293443,2022-11-30_17h51.22.750,vts_reward_expectancy_bt,2022.2.4,MacIntel,60.04202942,Chrome,1440,900,,,,,0,1135,,,,,,,,,,,,,,,,,U,160,triangle,1,0,,,,,,,,,,,,,,,,switch,letter,lettSwt,f,0.8613,Hi,,,,,,3,,,,,,,,high,4,0,4,0,1,,,,,,,,,
293443,2022-11-30_17h51.22.750,vts_reward_expectancy_bt,2022.2.4,MacIntel,60.04202942,Chrome,1440,900,,,,,0,1135,,,,,,,,,,,,,,,,,Y,146,hexagon,1,0,,,,,,,,,,,,,,,,switch,number,numSwt,j,0.7259,Hi,,,,,,3,,,,,,,,high,5,0,5,0,1,,,,,,,,,
293443,2022-11-30_17h51.22.750,vts_reward_expectancy_bt,2022.2.4,MacIntel,60.04202942,Chrome,1440,900,,,,,1,1136,,,,,,,,,,,,,,,,,H,181,star,1,0,,,,,,,,,,,,,,,,repeat,number,numRpt,k,0.6523,Lo,,,,,,3,,,,,,,,high,6,0,6,0,1,,,,,,,,,
293443,2022-11-30_17h51.22.750,vts_reward_expectancy_bt,2022.2.4,MacIntel,60.04202942,Chrome,1440,900,,,,,1,1137,,,,,,,,,,,,,,,,,F,167,circle,1,0,,,,,,,,,,,,,,,,repeat,number,numRpt,k,0.7219,Lo,,,,,,3,,,,,,,,high,7,0,7,0,1,,,,,,,,,
293443,2022-11-30_17h51.22.750,vts_reward_expectancy_bt,2022.2.4,MacIntel,60.04202942,Chrome,1440,900,,,,,0,1137,,,,,,,,,,,,,,,,,W,125,hexagon,1,0,,,,,,,,,,,,,,,,switch,letter,lettSwt,f,0.7244,Hi,,,,,,3,,,,,,,,high,8,0,8,0,1,,,,,,,,,
293443,2022-11-30_17h51.22.750,vts_reward_expectancy_bt,2022.2.4,MacIntel,60.04202942,Chrome,1440,900,,,,,1,1138,,,,,,,,,,,,,,,,,B,132,circle,1,0,,,,,,,,,,,,,,,,repeat,letter,lettRpt,d,0.7894,Lo,,,,,,3,,,,,,,,high,9,0,9,0,1,,,,,,,,,
293443,2022-11-30_17h51.22.750,vts_reward_expectancy_bt,2022.2.4,MacIntel,60.04202942,Chrome,1440,900,,,,,0,1138,,,,,,,,,,,,,,,,,D,139,star,0,0,,,,,,,,,,,,,,,,repeat,letter,NA,f,0.6798,Lo,,,,,,3,,,,,,,,high,10,0,10,0,1,,,,,,,,,
293443,2022-11-30_17h51.22.750,vts_reward_expectancy_bt,2022.2.4,MacIntel,60.04202942,Chrome,1440,900,,,,,0,1138,,,,,,,,,,,,,,,,,S,174,triangle,1,1,,,,,,,,,,,,,,,,switch,number,numSwt,k,0.7169,Hi,,,,,,3,,,,,,,,high,11,0,11,0,1,,,,,,,,,
293443,2022-11-30_17h51.22.750,vts_reward_expectancy_bt,2022.2.4,MacIntel,60.04202942,Chrome,1440,900,,,,,0,1138,,,,,,,,,,,,,,,,,U,160,hexagon,1,0,,,,,,,,,,,,,,,,repeat,number,numRpt,k,0.7715,Hi,,,,,,3,,,,,,,,high,12,0,12,0,1,,,,,,,,,
293443,2022-11-30_17h51.22.750,vts_reward_expectancy_bt,2022.2.4,MacIntel,60.04202942,Chrome,1440,900,,,,,1,1139,,,,,,,,,,,,,,,,,Y,146,circle,1,0,,,,,,,,,,,,,,,,repeat,number,numRpt,j,1.3166,Lo,,,,,,3,,,,,,,,high,13,0,13,0,1,,,,,,,,,
293443,2022-11-30_17h51.22.750,vts_reward_expectancy_bt,2022.2.4,MacIntel,60.04202942,Chrome,1440,900,,,,,10,1149,,,,,,,,,,,,,,,,,H,181,triangle,1,0,,,,,,,,,,,,,,,,repeat,number,numRpt,k,0.6739,Hi,,,,,,3,,,,,,,,high,14,0,14,0,1,,,,,,,,,
293443,2022-11-30_17h51.22.750,vts_reward_expectancy_bt,2022.2.4,MacIntel,60.04202942,Chrome,1440,900,,,,,10,1159,,,,,,,,,,,,,,,,,F,167,star,1,0,,,,,,,,,,,,,,,,repeat,number,numRpt,k,0.6936,Lo,,,,,,3,,,,,,,,high,15,0,15,0,1,,,,,,,,,
293443,2022-11-30_17h51.22.750,vts_reward_expectancy_bt,2022.2.4,MacIntel,60.04202942,Chrome,1440,900,,,,,0,1159,,,,,,,,,,,,,,,,,S,181,triangle,1,0,,,,,,,,,,,,,,,,repeat,number,numRpt,k,0.7579,Hi,,,,,,3,,,,,,,,high,16,0,16,0,1,,,,,,,,,
293443,2022-11-30_17h51.22.750,vts_reward_expectancy_bt,2022.2.4,MacIntel,60.04202942,Chrome,1440,900,,,,,10,1169,,,,,,,,,,,,,,,,,H,139,circle,1,0,,,,,,,,,,,,,,,,repeat,number,numRpt,j,0.7691,Lo,,,,,,3,,,,,,,,high,17,0,17,0,1,,,,,,,,,
293443,2022-11-30_17h51.22.750,vts_reward_expectancy_bt,2022.2.4,MacIntel,60.04202942,Chrome,1440,900,,,,,10,1179,,,,,,,,,,,,,,,,,D,125,hexagon,1,0,,,,,,,,,,,,,,,,repeat,number,numRpt,j,0.674,Hi,,,,,,3,,,,,,,,high,18,0,18,0,1,,,,,,,,,
293443,2022-11-30_17h51.22.750,vts_reward_expectancy_bt,2022.2.4,MacIntel,60.04202942,Chrome,1440,900,,,,,0,1179,,,,,,,,,,,,,,,,,B,167,star,0,0,,,,,,,,,,,,,,,,repeat,number,NA,j,1.1697,Hi,,,,,,3,,,,,,,,high,19,0,19,0,1,,,,,,,,,
293443,2022-11-30_17h51.22.750,vts_reward_expectancy_bt,2022.2.4,MacIntel,60.04202942,Chrome,1440,900,,,,,0,1179,,,,,,,,,,,,,,,,,Y,160,triangle,1,1,,,,,,,,,,,,,,,,switch,letter,lettSwt,f,0.8172,Hi,,,,,,3,,,,,,,,high,20,0,20,0,1,,,,,,,,,
293443,2022-11-30_17h51.22.750,vts_reward_expectancy_bt,2022.2.4,MacIntel,60.04202942,Chrome,1440,900,,,,,0,1179,,,,,,,,,,,,,,,,,F,132,star,0,0,,,,,,,,,,,,,,,,repeat,letter,NA,f,0.6225,Hi,,,,,,3,,,,,,,,high,21,0,21,0,1,,,,,,,,,
293443,2022-11-30_17h51.22.750,vts_reward_expectancy_bt,2022.2.4,MacIntel,60.04202942,Chrome,1440,900,,,,,1,1180,,,,,,,,,,,,,,,,,W,174,circle,1,1,,,,,,,,,,,,,,,,repeat,letter,lettRpt,f,0.853,Lo,,,,,,3,,,,,,,,high,22,0,22,0,1,,,,,,,,,
293443,2022-11-30_17h51.22.750,vts_reward_expectancy_bt,2022.2.4,MacIntel,60.04202942,Chrome,1440,900,,,,,0,1180,,,,,,,,,,,,,,,,,U,146,hexagon,1,0,,,,,,,,,,,,,,,,switch,number,numSwt,j,0.7881,Hi,,,,,,3,,,,,,,,high,23,0,23,0,1,,,,,,,,,
293443,2022-11-30_17h51.22.750,vts_reward_expectancy_bt,2022.2.4,MacIntel,60.04202942,Chrome,1440,900,,,,,0,1180,,,,,,,,,,,,,,,,,S,181,triangle,1,0,,,,,,,,,,,,,,,,switch,letter,lettSwt,f,0.6795,Hi,,,,,,3,,,,,,,,high,24,0,24,0,1,,,,,,,,,
293443,2022-11-30_17h51.22.750,vts_reward_expectancy_bt,2022.2.4,MacIntel,60.04202942,Chrome,1440,900,,,,,1,1181,,,,,,,,,,,,,,,,,Y,146,circle,1,0,,,,,,,,,,,,,,,,repeat,letter,lettRpt,f,0.6481,Lo,,,,,,3,,,,,,,,high,25,0,25,0,1,,,,,,,,,
293443,2022-11-30_17h51.22.750,vts_reward_expectancy_bt,2022.2.4,MacIntel,60.04202942,Chrome,1440,900,,,,,1,1182,,,,,,,,,,,,,,,,,F,174,star,1,0,,,,,,,,,,,,,,,,repeat,letter,lettRpt,d,0.8426,Lo,,,,,,3,,,,,,,,high,26,0,26,0,1,,,,,,,,,
293443,2022-11-30_17h51.22.750,vts_reward_expectancy_bt,2022.2.4,MacIntel,60.04202942,Chrome,1440,900,,,,,0,1182,,,,,,,,,,,,,,,,,D,160,hexagon,1,0,,,,,,,,,,,,,,,,switch,number,numSwt,k,0.9755,Hi,,,,,,3,,,,,,,,high,27,0,27,0,1,,,,,,,,,
293443,2022-11-30_17h51.22.750,vts_reward_expectancy_bt,2022.2.4,MacIntel,60.04202942,Chrome,1440,900,,,,,0,1182,,,,,,,,,,,,,,,,,U,132,triangle,1,0,,,,,,,,,,,,,,,,repeat,number,numRpt,j,1.0715,Hi,,,,,,3,,,,,,,,high,28,0,28,0,1,,,,,,,,,
293443,2022-11-30_17h51.22.750,vts_reward_expectancy_bt,2022.2.4,MacIntel,60.04202942,Chrome,1440,900,,,,,1,1183,,,,,,,,,,,,,,,,,W,139,star,1,0,,,,,,,,,,,,,,,,repeat,number,numRpt,j,0.9054,Lo,,,,,,3,,,,,,,,high,29,0,29,0,1,,,,,,,,,
293443,2022-11-30_17h51.22.750,vts_reward_expectancy_bt,2022.2.4,MacIntel,60.04202942,Chrome,1440,900,,,,,1,1184,,,,,,,,,,,,,,,,,H,167,circle,1,0,,,,,,,,,,,,,,,,repeat,number,numRpt,k,1.0777,Lo,,,,,,3,,,,,,,,high,30,0,30,0,1,,,,,,,,,
293443,2022-11-30_17h51.22.750,vts_reward_expectancy_bt,2022.2.4,MacIntel,60.04202942,Chrome,1440,900,,,,,0,1184,,,,,,,,,,,,,,,,,B,125,hexagon,1,0,,,,,,,,,,,,,,,,repeat,number,numRpt,j,0.9115,Hi,,,,,,3,,,,,,,,high,31,0,31,0,1,,,,,,,,,
293443,2022-11-30_17h51.22.750,vts_reward_expectancy_bt,2022.2.4,MacIntel,60.04202942,Chrome,1440,900,,,,,0,1184,,,,,,,,,,,,,,,,,Y,146,hexagon,1,0,,,,,,,,,,,,,,,,repeat,number,numRpt,j,0.6923,Hi,,,,,,4,,,,,,space,0.5136,high,0,0,0,0,1,,,,,,,,,
293443,2022-11-30_17h51.22.750,vts_reward_expectancy_bt,2022.2.4,MacIntel,60.04202942,Chrome,1440,900,,,,,1,1185,,,,,,,,,,,,,,,,,U,139,circle,1,0,,,,,,,,,,,,,,,,repeat,number,numRpt,j,0.5208,Lo,,,,,,4,,,,,,,,high,1,0,1,0,1,,,,,,,,,
293443,2022-11-30_17h51.22.750,vts_reward_expectancy_bt,2022.2.4,MacIntel,60.04202942,Chrome,1440,900,,,,,10,1195,,,,,,,,,,,,,,,,,D,160,triangle,1,0,,,,,,,,,,,,,,,,switch,letter,lettSwt,d,0.5821,Hi,,,,,,4,,,,,,,,high,2,0,2,0,1,,,,,,,,,
293443,2022-11-30_17h51.22.750,vts_reward_expectancy_bt,2022.2.4,MacIntel,60.04202942,Chrome,1440,900,,,,,10,1205,,,,,,,,,,,,,,,,,H,174,star,1,0,,,,,,,,,,,,,,,,switch,number,numSwt,k,0.618,Lo,,,,,,4,,,,,,,,high,3,0,3,0,1,,,,,,,,,
293443,2022-11-30_17h51.22.750,vts_reward_expectancy_bt,2022.2.4,MacIntel,60.04202942,Chrome,1440,900,,,,,1,1206,,,,,,,,,,,,,,,,,F,167,hexagon,1,0,,,,,,,,,,,,,,,,repeat,number,numRpt,k,0.5133,Hi,,,,,,4,,,,,,,,high,4,0,4,0,1,,,,,,,,,
293443,2022-11-30_17h51.22.750,vts_reward_expectancy_bt,2022.2.4,MacIntel,60.04202942,Chrome,1440,900,,,,,1,1207,,,,,,,,,,,,,,,,,B,181,circle,1,0,,,,,,,,,,,,,,,,repeat,number,numRpt,k,0.5826,Lo,,,,,,4,,,,,,,,high,5,0,5,0,1,,,,,,,,,
293443,2022-11-30_17h51.22.750,vts_reward_expectancy_bt,2022.2.4,MacIntel,60.04202942,Chrome,1440,900,,,,,1,1208,,,,,,,,,,,,,,,,,S,125,triangle,1,0,,,,,,,,,,,,,,,,switch,letter,lettSwt,f,0.601,Hi,,,,,,4,,,,,,,,high,6,0,6,0,1,,,,,,,,,
293443,2022-11-30_17h51.22.750,vts_reward_expectancy_bt,2022.2.4,MacIntel,60.04202942,Chrome,1440,900,,,,,1,1209,,,,,,,,,,,,,,,,,W,132,star,1,0,,,,,,,,,,,,,,,,switch,number,numSwt,j,0.6422,Lo,,,,,,4,,,,,,,,high,7,0,7,0,1,,,,,,,,,
293443,2022-11-30_17h51.22.750,vts_reward_expectancy_bt,2022.2.4,MacIntel,60.04202942,Chrome,1440,900,,,,,1,1210,,,,,,,,,,,,,,,,,Y,146,hexagon,1,0,,,,,,,,,,,,,,,,switch,letter,lettSwt,f,0.5774,Hi,,,,,,4,,,,,,,,high,8,0,8,0,1,,,,,,,,,
293443,2022-11-30_17h51.22.750,vts_reward_expectancy_bt,2022.2.4,MacIntel,60.04202942,Chrome,1440,900,,,,,10,1220,,,,,,,,,,,,,,,,,U,139,triangle,1,0,,,,,,,,,,,,,,,,repeat,letter,lettRpt,f,0.6658,Hi,,,,,,4,,,,,,,,high,9,0,9,0,1,,,,,,,,,
293443,2022-11-30_17h51.22.750,vts_reward_expectancy_bt,2022.2.4,MacIntel,60.04202942,Chrome,1440,900,,,,,10,1230,,,,,,,,,,,,,,,,,D,160,star,1,0,,,,,,,,,,,,,,,,repeat,letter,lettRpt,d,0.8714,Lo,,,,,,4,,,,,,,,high,10,0,10,0,1,,,,,,,,,
293443,2022-11-30_17h51.22.750,vts_reward_expectancy_bt,2022.2.4,MacIntel,60.04202942,Chrome,1440,900,,,,,1,1231,,,,,,,,,,,,,,,,,H,174,circle,1,0,,,,,,,,,,,,,,,,repeat,letter,lettRpt,d,0.8659,Lo,,,,,,4,,,,,,,,high,11,0,11,0,1,,,,,,,,,
293443,2022-11-30_17h51.22.750,vts_reward_expectancy_bt,2022.2.4,MacIntel,60.04202942,Chrome,1440,900,,,,,1,1232,,,,,,,,,,,,,,,,,F,167,circle,1,0,,,,,,,,,,,,,,,,switch,number,numSwt,k,0.9552,Lo,,,,,,4,,,,,,,,high,12,0,12,0,1,,,,,,,,,
293443,2022-11-30_17h51.22.750,vts_reward_expectancy_bt,2022.2.4,MacIntel,60.04202942,Chrome,1440,900,,,,,0,1232,,,,,,,,,,,,,,,,,B,181,hexagon,1,0,,,,,,,,,,,,,,,,repeat,number,numRpt,k,0.7357,Hi,,,,,,4,,,,,,,,high,13,0,13,0,1,,,,,,,,,
293443,2022-11-30_17h51.22.750,vts_reward_expectancy_bt,2022.2.4,MacIntel,60.04202942,Chrome,1440,900,,,,,10,1242,,,,,,,,,,,,,,,,,S,125,triangle,1,0,,,,,,,,,,,,,,,,switch,letter,lettSwt,f,0.5848,Hi,,,,,,4,,,,,,,,high,14,0,14,0,1,,,,,,,,,
293443,2022-11-30_17h51.22.750,vts_reward_expectancy_bt,2022.2.4,MacIntel,60.04202942,Chrome,1440,900,,,,,1,1243,,,,,,,,,,,,,,,,,W,132,star,1,0,,,,,,,,,,,,,,,,switch,number,numSwt,j,0.6448,Lo,,,,,,4,,,,,,,,high,15,0,15,0,1,,,,,,,,,
293443,2022-11-30_17h51.22.750,vts_reward_expectancy_bt,2022.2.4,MacIntel,60.04202942,Chrome,1440,900,,,,,10,1253,,,,,,,,,,,,,,,,,H,125,triangle,1,0,,,,,,,,,,,,,,,,switch,letter,lettSwt,d,0.6855,Hi,,,,,,4,,,,,,,,high,16,0,16,0,1,,,,,,,,,
293443,2022-11-30_17h51.22.750,vts_reward_expectancy_bt,2022.2.4,MacIntel,60.04202942,Chrome,1440,900,,,,,10,1263,,,,,,,,,,,,,,,,,Y,146,star,1,0,,,,,,,,,,,,,,,,repeat,letter,lettRpt,f,0.7145,Lo,,,,,,4,,,,,,,,high,17,0,17,0,1,,,,,,,,,
293443,2022-11-30_17h51.22.750,vts_reward_expectancy_bt,2022.2.4,MacIntel,60.04202942,Chrome,1440,900,,,,,0,1263,,,,,,,,,,,,,,,,,S,167,hexagon,1,0,,,,,,,,,,,,,,,,switch,number,numSwt,k,0.7786,Hi,,,,,,4,,,,,,,,high,18,0,18,0,1,,,,,,,,,
293443,2022-11-30_17h51.22.750,vts_reward_expectancy_bt,2022.2.4,MacIntel,60.04202942,Chrome,1440,900,,,,,1,1264,,,,,,,,,,,,,,,,,D,181,circle,1,0,,,,,,,,,,,,,,,,repeat,number,numRpt,k,0.5566,Lo,,,,,,4,,,,,,,,high,19,0,19,0,1,,,,,,,,,
293443,2022-11-30_17h51.22.750,vts_reward_expectancy_bt,2022.2.4,MacIntel,60.04202942,Chrome,1440,900,,,,,1,1265,,,,,,,,,,,,,,,,,B,160,circle,1,0,,,,,,,,,,,,,,,,repeat,number,numRpt,k,0.5493,Lo,,,,,,4,,,,,,,,high,20,0,20,0,1,,,,,,,,,
293443,2022-11-30_17h51.22.750,vts_reward_expectancy_bt,2022.2.4,MacIntel,60.04202942,Chrome,1440,900,,,,,1,1266,,,,,,,,,,,,,,,,,F,139,star,1,0,,,,,,,,,,,,,,,,switch,letter,lettSwt,d,0.6619,Lo,,,,,,4,,,,,,,,high,21,0,21,0,1,,,,,,,,,
293443,2022-11-30_17h51.22.750,vts_reward_expectancy_bt,2022.2.4,MacIntel,60.04202942,Chrome,1440,900,,,,,1,1267,,,,,,,,,,,,,,,,,W,174,hexagon,1,0,,,,,,,,,,,,,,,,repeat,letter,lettRpt,f,0.7631,Hi,,,,,,4,,,,,,,,high,22,0,22,0,1,,,,,,,,,
293443,2022-11-30_17h51.22.750,vts_reward_expectancy_bt,2022.2.4,MacIntel,60.04202942,Chrome,1440,900,,,,,0,1267,,,,,,,,,,,,,,,,,U,132,triangle,0,0,,,,,,,,,,,,,,,,repeat,letter,NA,d,1.5807,Hi,,,,,,4,,,,,,,,high,23,0,23,0,1,,,,,,,,,
293443,2022-11-30_17h51.22.750,vts_reward_expectancy_bt,2022.2.4,MacIntel,60.04202942,Chrome,1440,900,,,,,1,1268,,,,,,,,,,,,,,,,,D,139,star,1,1,,,,,,,,,,,,,,,,repeat,letter,lettRpt,d,0.6314,Lo,,,,,,4,,,,,,,,high,24,0,24,0,1,,,,,,,,,
293443,2022-11-30_17h51.22.750,vts_reward_expectancy_bt,2022.2.4,MacIntel,60.04202942,Chrome,1440,900,,,,,0,1268,,,,,,,,,,,,,,,,,W,160,circle,0,0,,,,,,,,,,,,,,,,switch,number,NA,j,0.8886,Lo,,,,,,4,,,,,,,,high,25,0,25,0,1,,,,,,,,,
293443,2022-11-30_17h51.22.750,vts_reward_expectancy_bt,2022.2.4,MacIntel,60.04202942,Chrome,1440,900,,,,,1,1269,,,,,,,,,,,,,,,,,S,125,triangle,1,1,,,,,,,,,,,,,,,,switch,letter,lettSwt,f,0.5272,Hi,,,,,,4,,,,,,,,high,26,0,26,0,1,,,,,,,,,
293443,2022-11-30_17h51.22.750,vts_reward_expectancy_bt,2022.2.4,MacIntel,60.04202942,Chrome,1440,900,,,,,10,1279,,,,,,,,,,,,,,,,,Y,181,hexagon,1,0,,,,,,,,,,,,,,,,switch,number,numSwt,k,0.6382,Hi,,,,,,4,,,,,,,,high,27,0,27,0,1,,,,,,,,,
293443,2022-11-30_17h51.22.750,vts_reward_expectancy_bt,2022.2.4,MacIntel,60.04202942,Chrome,1440,900,,,,,1,1280,,,,,,,,,,,,,,,,,U,146,star,1,0,,,,,,,,,,,,,,,,switch,letter,lettSwt,f,0.7157,Lo,,,,,,4,,,,,,,,high,28,0,28,0,1,,,,,,,,,
293443,2022-11-30_17h51.22.750,vts_reward_expectancy_bt,2022.2.4,MacIntel,60.04202942,Chrome,1440,900,,,,,10,1290,,,,,,,,,,,,,,,,,H,167,triangle,1,0,,,,,,,,,,,,,,,,repeat,letter,lettRpt,d,0.7722,Hi,,,,,,4,,,,,,,,high,29,0,29,0,1,,,,,,,,,
293443,2022-11-30_17h51.22.750,vts_reward_expectancy_bt,2022.2.4,MacIntel,60.04202942,Chrome,1440,900,,,,,10,1300,,,,,,,,,,,,,,,,,B,174,hexagon,1,0,,,,,,,,,,,,,,,,switch,number,numSwt,k,0.5676,Hi,,,,,,4,,,,,,,,high,30,0,30,0,1,,,,,,,,,
293443,2022-11-30_17h51.22.750,vts_reward_expectancy_bt,2022.2.4,MacIntel,60.04202942,Chrome,1440,900,,,,,10,1310,,,,,,,,,,,,,,,,,F,132,circle,1,0,,,,,,,,,,,,,,,,repeat,number,numRpt,j,0.6161,Lo,,,,,,4,,,,,,,,high,31,0,31,0,1,,,,,,,,,
293443,2022-11-30_17h51.22.750,vts_reward_expectancy_bt,2022.2.4,MacIntel,60.04202942,Chrome,1440,900,,,,,1,1311,,,,,,,,,,,,,,,,,Y,181,star,1,0,,,,,,,,,,,,,,,,switch,letter,lettSwt,f,0.7757,Lo,,,,,,5,,,,,,space,0.3308,high,0,0,0,0,1,,,,,,,,,
293443,2022-11-30_17h51.22.750,vts_reward_expectancy_bt,2022.2.4,MacIntel,60.04202942,Chrome,1440,900,,,,,10,1321,,,,,,,,,,,,,,,,,U,125,hexagon,1,0,,,,,,,,,,,,,,,,switch,number,numSwt,j,0.5322,Hi,,,,,,5,,,,,,,,high,1,0,1,0,1,,,,,,,,,
293443,2022-11-30_17h51.22.750,vts_reward_expectancy_bt,2022.2.4,MacIntel,60.04202942,Chrome,1440,900,,,,,1,1322,,,,,,,,,,,,,,,,,B,139,circle,1,0,,,,,,,,,,,,,,,,repeat,number,numRpt,j,0.6003,Lo,,,,,,5,,,,,,,,high,2,0,2,0,1,,,,,,,,,
293443,2022-11-30_17h51.22.750,vts_reward_expectancy_bt,2022.2.4,MacIntel,60.04202942,Chrome,1440,900,,,,,0,1322,,,,,,,,,,,,,,,,,W,167,triangle,1,0,,,,,,,,,,,,,,,,switch,letter,lettSwt,f,0.6941,Hi,,,,,,5,,,,,,,,high,3,0,3,0,1,,,,,,,,,
293443,2022-11-30_17h51.22.750,vts_reward_expectancy_bt,2022.2.4,MacIntel,60.04202942,Chrome,1440,900,,,,,1,1323,,,,,,,,,,,,,,,,,D,160,star,1,0,,,,,,,,,,,,,,,,switch,number,numSwt,k,0.9174,Lo,,,,,,5,,,,,,,,high,4,0,4,0,1,,,,,,,,,
293443,2022-11-30_17h51.22.750,vts_reward_expectancy_bt,2022.2.4,MacIntel,60.04202942,Chrome,1440,900,,,,,0,1323,,,,,,,,,,,,,,,,,F,146,hexagon,1,0,,,,,,,,,,,,,,,,repeat,number,numRpt,j,1.1145,Hi,,,,,,5,,,,,,,,high,5,0,5,0,1,,,,,,,,,
293443,2022-11-30_17h51.22.750,vts_reward_expectancy_bt,2022.2.4,MacIntel,60.04202942,Chrome,1440,900,,,,,1,1324,,,,,,,,,,,,,,,,,H,132,circle,1,0,,,,,,,,,,,,,,,,repeat,number,numRpt,j,0.5983,Lo,,,,,,5,,,,,,,,high,6,0,6,0,1,,,,,,,,,
293443,2022-11-30_17h51.22.750,vts_reward_expectancy_bt,2022.2.4,MacIntel,60.04202942,Chrome,1440,900,,,,,0,1324,,,,,,,,,,,,,,,,,S,174,triangle,1,0,,,,,,,,,,,,,,,,switch,letter,lettSwt,f,0.6168,Hi,,,,,,5,,,,,,,,high,7,0,7,0,1,,,,,,,,,
293443,2022-11-30_17h51.22.750,vts_reward_expectancy_bt,2022.2.4,MacIntel,60.04202942,Chrome,1440,900,,,,,10,1334,,,,,,,,,,,,,,,,,Y,181,hexagon,1,0,,,,,,,,,,,,,,,,repeat,letter,lettRpt,f,0.7009,Hi,,,,,,5,,,,,,,,high,8,0,8,0,1,,,,,,,,,
293443,2022-11-30_17h51.22.750,vts_reward_expectancy_bt,2022.2.4,MacIntel,60.04202942,Chrome,1440,900,,,,,1,1335,,,,,,,,,,,,,,,,,U,125,circle,1,0,,,,,,,,,,,,,,,,repeat,letter,lettRpt,f,0.6568,Lo,,,,,,5,,,,,,,,high,9,0,9,0,1,,,,,,,,,
293443,2022-11-30_17h51.22.750,vts_reward_expectancy_bt,2022.2.4,MacIntel,60.04202942,Chrome,1440,900,,,,,1,1336,,,,,,,,,,,,,,,,,B,139,triangle,1,0,,,,,,,,,,,,,,,,repeat,letter,lettRpt,d,0.6483,Hi,,,,,,5,,,,,,,,high,10,0,10,0,1,,,,,,,,,
293443,2022-11-30_17h51.22.750,vts_reward_expectancy_bt,2022.2.4,MacIntel,60.04202942,Chrome,1440,900,,,,,1,1337,,,,,,,,,,,,,,,,,W,167,star,1,0,,,,,,,,,,,,,,,,switch,number,numSwt,k,0.7629,Lo,,,,,,5,,,,,,,,high,11,0,11,0,1,,,,,,,,,
293443,2022-11-30_17h51.22.750,vts_reward_expectancy_bt,2022.2.4,MacIntel,60.04202942,Chrome,1440,900,,,,,1,1338,,,,,,,,,,,,,,,,,D,160,circle,1,0,,,,,,,,,,,,,,,,repeat,number,numRpt,k,0.7538,Lo,,,,,,5,,,,,,,,high,12,0,12,0,1,,,,,,,,,
293443,2022-11-30_17h51.22.750,vts_reward_expectancy_bt,2022.2.4,MacIntel,60.04202942,Chrome,1440,900,,,,,10,1348,,,,,,,,,,,,,,,,,F,146,star,1,0,,,,,,,,,,,,,,,,repeat,number,numRpt,j,0.7465,Lo,,,,,,5,,,,,,,,high,13,0,13,0,1,,,,,,,,,
293443,2022-11-30_17h51.22.750,vts_reward_expectancy_bt,2022.2.4,MacIntel,60.04202942,Chrome,1440,900,,,,,0,1348,,,,,,,,,,,,,,,,,H,132,hexagon,1,0,,,,,,,,,,,,,,,,switch,letter,lettSwt,d,0.8254,Hi,,,,,,5,,,,,,,,high,14,0,14,0,1,,,,,,,,,
293443,2022-11-30_17h51.22.750,vts_reward_expectancy_bt,2022.2.4,MacIntel,60.04202942,Chrome,1440,900,,,,,0,1348,,,,,,,,,,,,,,,,,S,174,triangle,1,0,,,,,,,,,,,,,,,,switch,number,numSwt,k,0.7871,Hi,,,,,,5,,,,,,,,high,15,0,15,0,1,,,,,,,,,
293443,2022-11-30_17h51.22.750,vts_reward_expectancy_bt,2022.2.4,MacIntel,60.04202942,Chrome,1440,900,,,,,1,1349,,,,,,,,,,,,,,,,,B,146,star,1,0,,,,,,,,,,,,,,,,repeat,number,numRpt,j,0.6102,Lo,,,,,,5,,,,,,,,high,16,0,16,0,1,,,,,,,,,
293443,2022-11-30_17h51.22.750,vts_reward_expectancy_bt,2022.2.4,MacIntel,60.04202942,Chrome,1440,900,,,,,0,1349,,,,,,,,,,,,,,,,,H,174,hexagon,1,0,,,,,,,,,,,,,,,,repeat,number,numRpt,k,0.7099,Hi,,,,,,5,,,,,,,,high,17,0,17,0,1,,,,,,,,,
293443,2022-11-30_17h51.22.750,vts_reward_expectancy_bt,2022.2.4,MacIntel,60.04202942,Chrome,1440,900,,,,,0,1349,,,,,,,,,,,,,,,,,W,167,triangle,1,0,,,,,,,,,,,,,,,,switch,letter,lettSwt,f,0.9574,Hi,,,,,,5,,,,,,,,high,18,0,18,0,1,,,,,,,,,
293443,2022-11-30_17h51.22.750,vts_reward_expectancy_bt,2022.2.4,MacIntel,60.04202942,Chrome,1440,900,,,,,10,1359,,,,,,,,,,,,,,,,,S,125,circle,1,0,,,,,,,,,,,,,,,,switch,number,numSwt,j,0.7376,Lo,,,,,,5,,,,,,,,high,19,0,19,0,1,,,,,,,,,
293443,2022-11-30_17h51.22.750,vts_reward_expectancy_bt,2022.2.4,MacIntel,60.04202942,Chrome,1440,900,,,,,1,1360,,,,,,,,,,,,,,,,,Y,181,circle,1,0,,,,,,,,,,,,,,,,repeat,number,numRpt,k,0.5957,Lo,,,,,,5,,,,,,,,high,20,0,20,0,1,,,,,,,,,
293443,2022-11-30_17h51.22.750,vts_reward_expectancy_bt,2022.2.4,MacIntel,60.04202942,Chrome,1440,900,,,,,0,1360,,,,,,,,,,,,,,,,,U,160,triangle,1,0,,,,,,,,,,,,,,,,switch,letter,lettSwt,f,0.8611,Hi,,,,,,5,,,,,,,,high,21,0,21,0,1,,,,,,,,,
293443,2022-11-30_17h51.22.750,vts_reward_expectancy_bt,2022.2.4,MacIntel,60.04202942,Chrome,1440,900,,,,,0,1360,,,,,,,,,,,,,,,,,D,139,hexagon,1,0,,,,,,,,,,,,,,,,switch,number,numSwt,j,0.6898,Hi,,,,,,5,,,,,,,,high,22,0,22,0,1,,,,,,,,,
293443,2022-11-30_17h51.22.750,vts_reward_expectancy_bt,2022.2.4,MacIntel,60.04202942,Chrome,1440,900,,,,,1,1361,,,,,,,,,,,,,,,,,F,132,star,1,0,,,,,,,,,,,,,,,,repeat,number,numRpt,j,0.6526,Lo,,,,,,5,,,,,,,,high,23,0,23,0,1,,,,,,,,,
293443,2022-11-30_17h51.22.750,vts_reward_expectancy_bt,2022.2.4,MacIntel,60.04202942,Chrome,1440,900,,,,,0,1361,,,,,,,,,,,,,,,,,H,174,triangle,1,0,,,,,,,,,,,,,,,,repeat,number,numRpt,k,0.673,Hi,,,,,,5,,,,,,,,high,24,0,24,0,1,,,,,,,,,
293443,2022-11-30_17h51.22.750,vts_reward_expectancy_bt,2022.2.4,MacIntel,60.04202942,Chrome,1440,900,,,,,1,1362,,,,,,,,,,,,,,,,,B,132,circle,1,0,,,,,,,,,,,,,,,,repeat,number,numRpt,j,0.6101,Lo,,,,,,5,,,,,,,,high,25,0,25,0,1,,,,,,,,,
293443,2022-11-30_17h51.22.750,vts_reward_expectancy_bt,2022.2.4,MacIntel,60.04202942,Chrome,1440,900,,,,,0,1362,,,,,,,,,,,,,,,,,Y,139,hexagon,1,0,,,,,,,,,,,,,,,,switch,letter,lettSwt,f,0.7989,Hi,,,,,,5,,,,,,,,high,26,0,26,0,1,,,,,,,,,
293443,2022-11-30_17h51.22.750,vts_reward_expectancy_bt,2022.2.4,MacIntel,60.04202942,Chrome,1440,900,,,,,1,1363,,,,,,,,,,,,,,,,,U,146,star,1,0,,,,,,,,,,,,,,,,repeat,letter,lettRpt,f,0.5594,Lo,,,,,,5,,,,,,,,high,27,0,27,0,1,,,,,,,,,
293443,2022-11-30_17h51.22.750,vts_reward_expectancy_bt,2022.2.4,MacIntel,60.04202942,Chrome,1440,900,,,,,1,1364,,,,,,,,,,,,,,,,,W,167,circle,1,0,,,,,,,,,,,,,,,,switch,number,numSwt,k,0.7626,Lo,,,,,,5,,,,,,,,high,28,0,28,0,1,,,,,,,,,
293443,2022-11-30_17h51.22.750,vts_reward_expectancy_bt,2022.2.4,MacIntel,60.04202942,Chrome,1440,900,,,,,1,1365,,,,,,,,,,,,,,,,,D,160,star,1,0,,,,,,,,,,,,,,,,repeat,number,numRpt,k,0.958,Lo,,,,,,5,,,,,,,,high,29,0,29,0,1,,,,,,,,,
293443,2022-11-30_17h51.22.750,vts_reward_expectancy_bt,2022.2.4,MacIntel,60.04202942,Chrome,1440,900,,,,,10,1375,,,,,,,,,,,,,,,,,F,125,hexagon,1,0,,,,,,,,,,,,,,,,switch,letter,lettSwt,d,0.5739,Hi,,,,,,5,,,,,,,,high,30,0,30,0,1,,,,,,,,,
293443,2022-11-30_17h51.22.750,vts_reward_expectancy_bt,2022.2.4,MacIntel,60.04202942,Chrome,1440,900,,,,,0,1375,,,,,,,,,,,,,,,,,S,181,triangle,1,0,,,,,,,,,,,,,,,,repeat,letter,lettRpt,f,0.7893,Hi,,,,,,5,,,,,,,,high,31,0,31,0,1,,,,,,,,,
293443,2022-11-30_17h51.22.750,vts_reward_expectancy_bt,2022.2.4,MacIntel,60.04202942,Chrome,1440,900,,,,,10,1385,,,,,,,,,,,,,,,,,U,125,circle,1,0,,,,,,,,,,,,,,,,repeat,letter,lettRpt,f,0.7938,Lo,,,,,,6,,,,,,space,1.4917,high,0,0,0,0,1,,,,,,,,,
293443,2022-11-30_17h51.22.750,vts_reward_expectancy_bt,2022.2.4,MacIntel,60.04202942,Chrome,1440,900,,,,,0,1385,,,,,,,,,,,,,,,,,H,167,triangle,0,0,,,,,,,,,,,,,,,,switch,number,NA,j,0.6781,Lo,,,,,,6,,,,,,,,high,1,0,1,0,1,,,,,,,,,
293443,2022-11-30_17h51.22.750,vts_reward_expectancy_bt,2022.2.4,MacIntel,60.04202942,Chrome,1440,900,,,,,1,1386,,,,,,,,,,,,,,,,,B,146,star,1,1,,,,,,,,,,,,,,,,switch,letter,lettSwt,d,0.9935,Lo,,,,,,6,,,,,,,,high,2,0,2,0,1,,,,,,,,,
293443,2022-11-30_17h51.22.750,vts_reward_expectancy_bt,2022.2.4,MacIntel,60.04202942,Chrome,1440,900,,,,,10,1396,,,,,,,,,,,,,,,,,S,160,hexagon,1,0,,,,,,,,,,,,,,,,repeat,letter,lettRpt,f,0.4737,Hi,,,,,,6,,,,,,,,high,3,0,3,0,1,,,,,,,,,
293443,2022-11-30_17h51.22.750,vts_reward_expectancy_bt,2022.2.4,MacIntel,60.04202942,Chrome,1440,900,,,,,1,1397,,,,,,,,,,,,,,,,,D,181,circle,1,0,,,,,,,,,,,,,,,,switch,number,numSwt,k,0.6444,Lo,,,,,,6,,,,,,,,high,4,0,4,0,1,,,,,,,,,
293443,2022-11-30_17h51.22.750,vts_reward_expectancy_bt,2022.2.4,MacIntel,60.04202942,Chrome,1440,900,,,,,0,1397,,,,,,,,,,,,,,,,,Y,174,triangle,1,0,,,,,,,,,,,,,,,,repeat,number,numRpt,k,0.724,Hi,,,,,,6,,,,,,,,high,5,0,5,0,1,,,,,,,,,
293443,2022-11-30_17h51.22.750,vts_reward_expectancy_bt,2022.2.4,MacIntel,60.04202942,Chrome,1440,900,,,,,10,1407,,,,,,,,,,,,,,,,,F,132,star,1,0,,,,,,,,,,,,,,,,repeat,number,numRpt,j,0.6244,Lo,,,,,,6,,,,,,,,high,6,0,6,0,1,,,,,,,,,
293443,2022-11-30_17h51.22.750,vts_reward_expectancy_bt,2022.2.4,MacIntel,60.04202942,Chrome,1440,900,,,,,10,1417,,,,,,,,,,,,,,,,,W,139,hexagon,1,0,,,,,,,,,,,,,,,,switch,letter,lettSwt,f,0.5977,Hi,,,,,,6,,,,,,,,high,7,0,7,0,1,,,,,,,,,
293443,2022-11-30_17h51.22.750,vts_reward_expectancy_bt,2022.2.4,MacIntel,60.04202942,Chrome,1440,900,,,,,1,1418,,,,,,,,,,,,,,,,,U,125,circle,1,0,,,,,,,,,,,,,,,,repeat,letter,lettRpt,f,0.634,Lo,,,,,,6,,,,,,,,high,8,0,8,0,1,,,,,,,,,
293443,2022-11-30_17h51.22.750,vts_reward_expectancy_bt,2022.2.4,MacIntel,60.04202942,Chrome,1440,900,,,,,10,1428,,,,,,,,,,,,,,,,,H,167,star,1,0,,,,,,,,,,,,,,,,repeat,letter,lettRpt,d,0.6751,Lo,,,,,,6,,,,,,,,high,9,0,9,0,1,,,,,,,,,
