participant,date,expName,psychopyVersion,OS,frameRate,browser,xResolution,yResolution,key_resp.keys,key_resp.rt,training_resp.keys,training_resp.rt,points_trial,points_cumul,trainBlock,training.thisRepN,training.thisTrialN,training.thisN,training.thisIndex,training.ran,LTriangleOpac,LCircleOpac,LHexagonOpac,LStarOpac,RTriangleOpac,RCircleOpac,RHexagonOpac,RStarOpac,LShape_ID,RShape_ID,curr_topStim,curr_bottStim,curr_shape,acc,E1,target_resp_prac1.keys,pracBlock,task1_prac_trials.thisRepN,task1_prac_trials.thisTrialN,task1_prac_trials.thisN,task1_prac_trials.thisIndex,task1_prac_trials.ran,target_resp_prac1.rt,target_resp_prac2.keys,target_resp_prac2.rt,task2_praac_trials.thisRepN,task2_praac_trials.thisTrialN,task2_praac_trials.thisN,task2_praac_trials.thisIndex,task2_praac_trials.ran,alt,task,condition,target_resp.keys,target_resp.rt,rewCond,vts_practice_trials.thisRepN,vts_practice_trials.thisTrialN,vts_practice_trials.thisN,vts_practice_trials.thisIndex,vts_practice_trials.ran,blockNum,trials_norew.thisRepN,trials_norew.thisTrialN,trials_norew.thisN,trials_norew.thisIndex,trials_norew.ran,key_resp_2.keys,key_resp_2.rt,rewExpectancy,trials_rew.thisRepN,trials_rew.thisTrialN,trials_rew.thisN,trials_rew.thisIndex,trials_rew.ran,Q1,Q2,Q2_text,Q3,Q4,Q5_text,Q5,xRes,yRes
293488,2022-11-14_10h46.08.390,vts_reward_expectancy_bt,2022.2.4,Win32,59.82292414,Chrome,1280,800,,,,,,,,,,,,,,,,,,,,,,,,,,,,,,,,,,,,,,,,,,,,,,,,,,,,,,,,,,,,,,,,,,,,,,,,,,,,
293488,2022-11-14_10h46.08.390,vts_reward_expectancy_bt,2022.2.4,Win32,59.82292414,Chrome,1280,800,space,13.8693,,,,,,,,,,,,,,,,,,,,,,,,,,,,,,,,,,,,,,,,,,,,,,,,,,,,,,,,,,,,,,,,,,,,,,,,,,
293488,2022-11-14_10h46.08.390,vts_reward_expectancy_bt,2022.2.4,Win32,59.82292414,Chrome,1280,800,,,,,,,,,,,,,,,,,,,,,,,,,,,,,,,,,,,,,,,,,,,,,,,,,,,,,,,,,,,,,,,,,,,,,,,,,,,,
293488,2022-11-14_10h46.08.390,vts_reward_expectancy_bt,2022.2.4,Win32,59.82292414,Chrome,1280,800,,,a,1.4176,1,1,0,0,0,0,11,1,0,0,0,1,0,0,1,0,star,hexagon,,,,,,,,,,,,,,,,,,,,,,,,,,,,,,,,,,,,,,,,,,,,,,,,,,,,,,
293488,2022-11-14_10h46.08.390,vts_reward_expectancy_bt,2022.2.4,Win32,59.82292414,Chrome,1280,800,,,l,1.1207,1,2,0,0,1,1,6,1,0,0,1,0,1,0,0,0,hexagon,triangle,,,,,,,,,,,,,,,,,,,,,,,,,,,,,,,,,,,,,,,,,,,,,,,,,,,,,,
293488,2022-11-14_10h46.08.390,vts_reward_expectancy_bt,2022.2.4,Win32,59.82292414,Chrome,1280,800,,,a,1.4354,10,12,0,0,2,2,2,1,1,0,0,0,0,0,0,1,triangle,star,,,,,,,,,,,,,,,,,,,,,,,,,,,,,,,,,,,,,,,,,,,,,,,,,,,,,,
293488,2022-11-14_10h46.08.390,vts_reward_expectancy_bt,2022.2.4,Win32,59.82292414,Chrome,1280,800,,,l,1.1293,10,22,0,0,3,3,3,1,0,1,0,0,1,0,0,0,circle,triangle,,,,,,,,,,,,,,,,,,,,,,,,,,,,,,,,,,,,,,,,,,,,,,,,,,,,,,
293488,2022-11-14_10h46.08.390,vts_reward_expectancy_bt,2022.2.4,Win32,59.82292414,Chrome,1280,800,,,l,1.6017,10,32,0,0,4,4,1,1,1,0,0,0,0,0,1,0,triangle,hexagon,,,,,,,,,,,,,,,,,,,,,,,,,,,,,,,,,,,,,,,,,,,,,,,,,,,,,,
293488,2022-11-14_10h46.08.390,vts_reward_expectancy_bt,2022.2.4,Win32,59.82292414,Chrome,1280,800,,,a,0.8116,10,42,0,0,5,5,8,1,0,0,1,0,0,0,0,1,hexagon,star,,,,,,,,,,,,,,,,,,,,,,,,,,,,,,,,,,,,,,,,,,,,,,,,,,,,,,
293488,2022-11-14_10h46.08.390,vts_reward_expectancy_bt,2022.2.4,Win32,59.82292414,Chrome,1280,800,,,l,1.0076,10,52,0,0,6,6,4,1,0,1,0,0,0,0,1,0,circle,hexagon,,,,,,,,,,,,,,,,,,,,,,,,,,,,,,,,,,,,,,,,,,,,,,,,,,,,,,
293488,2022-11-14_10h46.08.390,vts_reward_expectancy_bt,2022.2.4,Win32,59.82292414,Chrome,1280,800,,,l,1.2406,1,53,0,0,7,7,9,1,0,0,0,1,1,0,0,0,star,triangle,,,,,,,,,,,,,,,,,,,,,,,,,,,,,,,,,,,,,,,,,,,,,,,,,,,,,,
293488,2022-11-14_10h46.08.390,vts_reward_expectancy_bt,2022.2.4,Win32,59.82292414,Chrome,1280,800,,,a,0.7821,1,54,0,0,8,8,10,1,0,0,0,1,0,1,0,0,star ,circle,,,,,,,,,,,,,,,,,,,,,,,,,,,,,,,,,,,,,,,,,,,,,,,,,,,,,,
293488,2022-11-14_10h46.08.390,vts_reward_expectancy_bt,2022.2.4,Win32,59.82292414,Chrome,1280,800,,,a,1.8972,1,55,0,0,9,9,5,1,0,1,0,0,0,0,0,1,circle,star,,,,,,,,,,,,,,,,,,,,,,,,,,,,,,,,,,,,,,,,,,,,,,,,,,,,,,
293488,2022-11-14_10h46.08.390,vts_reward_expectancy_bt,2022.2.4,Win32,59.82292414,Chrome,1280,800,,,l,3.477,1,56,0,0,10,10,0,1,1,0,0,0,0,1,0,0,triangle,circle,,,,,,,,,,,,,,,,,,,,,,,,,,,,,,,,,,,,,,,,,,,,,,,,,,,,,,
293488,2022-11-14_10h46.08.390,vts_reward_expectancy_bt,2022.2.4,Win32,59.82292414,Chrome,1280,800,,,a,0.9448,10,66,0,0,11,11,7,1,0,0,1,0,0,1,0,0,hexagon,circle,,,,,,,,,,,,,,,,,,,,,,,,,,,,,,,,,,,,,,,,,,,,,,,,,,,,,,
293488,2022-11-14_10h46.08.390,vts_reward_expectancy_bt,2022.2.4,Win32,59.82292414,Chrome,1280,800,,,a,1.1359,10,76,0,1,0,12,6,1,0,0,1,0,1,0,0,0,hexagon,triangle,,,,,,,,,,,,,,,,,,,,,,,,,,,,,,,,,,,,,,,,,,,,,,,,,,,,,,
293488,2022-11-14_10h46.08.390,vts_reward_expectancy_bt,2022.2.4,Win32,59.82292414,Chrome,1280,800,,,l,0.6835,10,86,0,1,1,13,1,1,1,0,0,0,0,0,1,0,triangle,hexagon,,,,,,,,,,,,,,,,,,,,,,,,,,,,,,,,,,,,,,,,,,,,,,,,,,,,,,
293488,2022-11-14_10h46.08.390,vts_reward_expectancy_bt,2022.2.4,Win32,59.82292414,Chrome,1280,800,,,l,1.2406,10,96,0,1,2,14,5,1,0,1,0,0,0,0,0,1,circle,star,,,,,,,,,,,,,,,,,,,,,,,,,,,,,,,,,,,,,,,,,,,,,,,,,,,,,,
293488,2022-11-14_10h46.08.390,vts_reward_expectancy_bt,2022.2.4,Win32,59.82292414,Chrome,1280,800,,,a,0.8154,1,97,0,1,3,15,11,1,0,0,0,1,0,0,1,0,star,hexagon,,,,,,,,,,,,,,,,,,,,,,,,,,,,,,,,,,,,,,,,,,,,,,,,,,,,,,
293488,2022-11-14_10h46.08.390,vts_reward_expectancy_bt,2022.2.4,Win32,59.82292414,Chrome,1280,800,,,l,1.3068,10,107,0,1,4,16,9,1,0,0,0,1,1,0,0,0,star,triangle,,,,,,,,,,,,,,,,,,,,,,,,,,,,,,,,,,,,,,,,,,,,,,,,,,,,,,
293488,2022-11-14_10h46.08.390,vts_reward_expectancy_bt,2022.2.4,Win32,59.82292414,Chrome,1280,800,,,a,0.7592,1,108,0,1,5,17,7,1,0,0,1,0,0,1,0,0,hexagon,circle,,,,,,,,,,,,,,,,,,,,,,,,,,,,,,,,,,,,,,,,,,,,,,,,,,,,,,
293488,2022-11-14_10h46.08.390,vts_reward_expectancy_bt,2022.2.4,Win32,59.82292414,Chrome,1280,800,,,a,0.8819,1,109,0,1,6,18,3,1,0,1,0,0,1,0,0,0,circle,triangle,,,,,,,,,,,,,,,,,,,,,,,,,,,,,,,,,,,,,,,,,,,,,,,,,,,,,,
293488,2022-11-14_10h46.08.390,vts_reward_expectancy_bt,2022.2.4,Win32,59.82292414,Chrome,1280,800,,,a,1.0586,1,110,0,1,7,19,8,1,0,0,1,0,0,0,0,1,hexagon,star,,,,,,,,,,,,,,,,,,,,,,,,,,,,,,,,,,,,,,,,,,,,,,,,,,,,,,
293488,2022-11-14_10h46.08.390,vts_reward_expectancy_bt,2022.2.4,Win32,59.82292414,Chrome,1280,800,,,l,2.3192,10,120,0,1,8,20,4,1,0,1,0,0,0,0,1,0,circle,hexagon,,,,,,,,,,,,,,,,,,,,,,,,,,,,,,,,,,,,,,,,,,,,,,,,,,,,,,
293488,2022-11-14_10h46.08.390,vts_reward_expectancy_bt,2022.2.4,Win32,59.82292414,Chrome,1280,800,,,l,1.629,1,121,0,1,9,21,2,1,1,0,0,0,0,0,0,1,triangle,star,,,,,,,,,,,,,,,,,,,,,,,,,,,,,,,,,,,,,,,,,,,,,,,,,,,,,,
293488,2022-11-14_10h46.08.390,vts_reward_expectancy_bt,2022.2.4,Win32,59.82292414,Chrome,1280,800,,,l,1.9672,10,131,0,1,10,22,10,1,0,0,0,1,0,1,0,0,star ,circle,,,,,,,,,,,,,,,,,,,,,,,,,,,,,,,,,,,,,,,,,,,,,,,,,,,,,,
293488,2022-11-14_10h46.08.390,vts_reward_expectancy_bt,2022.2.4,Win32,59.82292414,Chrome,1280,800,,,a,2.2249,10,141,0,1,11,23,0,1,1,0,0,0,0,1,0,0,triangle,circle,,,,,,,,,,,,,,,,,,,,,,,,,,,,,,,,,,,,,,,,,,,,,,,,,,,,,,
293488,2022-11-14_10h46.08.390,vts_reward_expectancy_bt,2022.2.4,Win32,59.82292414,Chrome,1280,800,,,l,1.6181,10,151,0,2,0,24,0,1,1,0,0,0,0,1,0,0,triangle,circle,,,,,,,,,,,,,,,,,,,,,,,,,,,,,,,,,,,,,,,,,,,,,,,,,,,,,,
293488,2022-11-14_10h46.08.390,vts_reward_expectancy_bt,2022.2.4,Win32,59.82292414,Chrome,1280,800,,,a,1.638,1,152,0,2,1,25,8,1,0,0,1,0,0,0,0,1,hexagon,star,,,,,,,,,,,,,,,,,,,,,,,,,,,,,,,,,,,,,,,,,,,,,,,,,,,,,,
293488,2022-11-14_10h46.08.390,vts_reward_expectancy_bt,2022.2.4,Win32,59.82292414,Chrome,1280,800,,,a,1.7906,1,153,0,2,2,26,5,1,0,1,0,0,0,0,0,1,circle,star,,,,,,,,,,,,,,,,,,,,,,,,,,,,,,,,,,,,,,,,,,,,,,,,,,,,,,
293488,2022-11-14_10h46.08.390,vts_reward_expectancy_bt,2022.2.4,Win32,59.82292414,Chrome,1280,800,,,a,1.6019,1,154,0,2,3,27,3,1,0,1,0,0,1,0,0,0,circle,triangle,,,,,,,,,,,,,,,,,,,,,,,,,,,,,,,,,,,,,,,,,,,,,,,,,,,,,,
293488,2022-11-14_10h46.08.390,vts_reward_expectancy_bt,2022.2.4,Win32,59.82292414,Chrome,1280,800,,,l,0.6025,10,164,0,2,4,28,1,1,1,0,0,0,0,0,1,0,triangle,hexagon,,,,,,,,,,,,,,,,,,,,,,,,,,,,,,,,,,,,,,,,,,,,,,,,,,,,,,
293488,2022-11-14_10h46.08.390,vts_reward_expectancy_bt,2022.2.4,Win32,59.82292414,Chrome,1280,800,,,l,0.8349,1,165,0,2,5,29,2,1,1,0,0,0,0,0,0,1,triangle,star,,,,,,,,,,,,,,,,,,,,,,,,,,,,,,,,,,,,,,,,,,,,,,,,,,,,,,
293488,2022-11-14_10h46.08.390,vts_reward_expectancy_bt,2022.2.4,Win32,59.82292414,Chrome,1280,800,,,l,1.536,10,175,0,2,6,30,6,1,0,0,1,0,1,0,0,0,hexagon,triangle,,,,,,,,,,,,,,,,,,,,,,,,,,,,,,,,,,,,,,,,,,,,,,,,,,,,,,
293488,2022-11-14_10h46.08.390,vts_reward_expectancy_bt,2022.2.4,Win32,59.82292414,Chrome,1280,800,,,l,0.9018,10,185,0,2,7,31,4,1,0,1,0,0,0,0,1,0,circle,hexagon,,,,,,,,,,,,,,,,,,,,,,,,,,,,,,,,,,,,,,,,,,,,,,,,,,,,,,
293488,2022-11-14_10h46.08.390,vts_reward_expectancy_bt,2022.2.4,Win32,59.82292414,Chrome,1280,800,,,l,1.237,1,186,0,2,8,32,7,1,0,0,1,0,0,1,0,0,hexagon,circle,,,,,,,,,,,,,,,,,,,,,,,,,,,,,,,,,,,,,,,,,,,,,,,,,,,,,,
293488,2022-11-14_10h46.08.390,vts_reward_expectancy_bt,2022.2.4,Win32,59.82292414,Chrome,1280,800,,,l,0.7948,10,196,0,2,9,33,11,1,0,0,0,1,0,0,1,0,star,hexagon,,,,,,,,,,,,,,,,,,,,,,,,,,,,,,,,,,,,,,,,,,,,,,,,,,,,,,
293488,2022-11-14_10h46.08.390,vts_reward_expectancy_bt,2022.2.4,Win32,59.82292414,Chrome,1280,800,,,l,2.0527,10,206,0,2,10,34,9,1,0,0,0,1,1,0,0,0,star,triangle,,,,,,,,,,,,,,,,,,,,,,,,,,,,,,,,,,,,,,,,,,,,,,,,,,,,,,
293488,2022-11-14_10h46.08.390,vts_reward_expectancy_bt,2022.2.4,Win32,59.82292414,Chrome,1280,800,,,a,1.6215,10,216,0,2,11,35,10,1,0,0,0,1,0,1,0,0,star ,circle,,,,,,,,,,,,,,,,,,,,,,,,,,,,,,,,,,,,,,,,,,,,,,,,,,,,,,
293488,2022-11-14_10h46.08.390,vts_reward_expectancy_bt,2022.2.4,Win32,59.82292414,Chrome,1280,800,,,l,0.8697,10,226,1,0,0,0,1,1,1,0,0,0,0,0,1,0,triangle,hexagon,,,,,,,,,,,,,,,,,,,,,,,,,,,,,,,,,,,,,,,,,,,,,,,,,,,,,,
293488,2022-11-14_10h46.08.390,vts_reward_expectancy_bt,2022.2.4,Win32,59.82292414,Chrome,1280,800,,,l,1.2017,10,236,1,0,1,1,7,1,0,0,1,0,0,1,0,0,hexagon,circle,,,,,,,,,,,,,,,,,,,,,,,,,,,,,,,,,,,,,,,,,,,,,,,,,,,,,,
293488,2022-11-14_10h46.08.390,vts_reward_expectancy_bt,2022.2.4,Win32,59.82292414,Chrome,1280,800,,,l,1.8209,10,246,1,0,2,2,5,1,0,1,0,0,0,0,0,1,circle,star,,,,,,,,,,,,,,,,,,,,,,,,,,,,,,,,,,,,,,,,,,,,,,,,,,,,,,
293488,2022-11-14_10h46.08.390,vts_reward_expectancy_bt,2022.2.4,Win32,59.82292414,Chrome,1280,800,,,a,1.7379,1,247,1,0,3,3,8,1,0,0,1,0,0,0,0,1,hexagon,star,,,,,,,,,,,,,,,,,,,,,,,,,,,,,,,,,,,,,,,,,,,,,,,,,,,,,,
293488,2022-11-14_10h46.08.390,vts_reward_expectancy_bt,2022.2.4,Win32,59.82292414,Chrome,1280,800,,,a,1.7813,1,248,1,0,4,4,10,1,0,0,0,1,0,1,0,0,star ,circle,,,,,,,,,,,,,,,,,,,,,,,,,,,,,,,,,,,,,,,,,,,,,,,,,,,,,,
293488,2022-11-14_10h46.08.390,vts_reward_expectancy_bt,2022.2.4,Win32,59.82292414,Chrome,1280,800,,,a,1.2904,1,249,1,0,5,5,0,1,1,0,0,0,0,1,0,0,triangle,circle,,,,,,,,,,,,,,,,,,,,,,,,,,,,,,,,,,,,,,,,,,,,,,,,,,,,,,
293488,2022-11-14_10h46.08.390,vts_reward_expectancy_bt,2022.2.4,Win32,59.82292414,Chrome,1280,800,,,a,1.799,10,259,1,0,6,6,2,1,1,0,0,0,0,0,0,1,triangle,star,,,,,,,,,,,,,,,,,,,,,,,,,,,,,,,,,,,,,,,,,,,,,,,,,,,,,,
293488,2022-11-14_10h46.08.390,vts_reward_expectancy_bt,2022.2.4,Win32,59.82292414,Chrome,1280,800,,,l,0.7943,1,260,1,0,7,7,4,1,0,1,0,0,0,0,1,0,circle,hexagon,,,,,,,,,,,,,,,,,,,,,,,,,,,,,,,,,,,,,,,,,,,,,,,,,,,,,,
293488,2022-11-14_10h46.08.390,vts_reward_expectancy_bt,2022.2.4,Win32,59.82292414,Chrome,1280,800,,,l,1.1204,10,270,1,0,8,8,3,1,0,1,0,0,1,0,0,0,circle,triangle,,,,,,,,,,,,,,,,,,,,,,,,,,,,,,,,,,,,,,,,,,,,,,,,,,,,,,
293488,2022-11-14_10h46.08.390,vts_reward_expectancy_bt,2022.2.4,Win32,59.82292414,Chrome,1280,800,,,a,2.4759,1,271,1,0,9,9,9,1,0,0,0,1,1,0,0,0,star,triangle,,,,,,,,,,,,,,,,,,,,,,,,,,,,,,,,,,,,,,,,,,,,,,,,,,,,,,
293488,2022-11-14_10h46.08.390,vts_reward_expectancy_bt,2022.2.4,Win32,59.82292414,Chrome,1280,800,,,a,1.6101,10,281,1,0,10,10,6,1,0,0,1,0,1,0,0,0,hexagon,triangle,,,,,,,,,,,,,,,,,,,,,,,,,,,,,,,,,,,,,,,,,,,,,,,,,,,,,,
293488,2022-11-14_10h46.08.390,vts_reward_expectancy_bt,2022.2.4,Win32,59.82292414,Chrome,1280,800,,,l,1.7473,10,291,1,0,11,11,11,1,0,0,0,1,0,0,1,0,star,hexagon,,,,,,,,,,,,,,,,,,,,,,,,,,,,,,,,,,,,,,,,,,,,,,,,,,,,,,
293488,2022-11-14_10h46.08.390,vts_reward_expectancy_bt,2022.2.4,Win32,59.82292414,Chrome,1280,800,,,a,3.2459,10,301,1,1,0,12,5,1,0,1,0,0,0,0,0,1,circle,star,,,,,,,,,,,,,,,,,,,,,,,,,,,,,,,,,,,,,,,,,,,,,,,,,,,,,,
293488,2022-11-14_10h46.08.390,vts_reward_expectancy_bt,2022.2.4,Win32,59.82292414,Chrome,1280,800,,,l,0.6582,1,302,1,1,1,13,10,1,0,0,0,1,0,1,0,0,star ,circle,,,,,,,,,,,,,,,,,,,,,,,,,,,,,,,,,,,,,,,,,,,,,,,,,,,,,,
293488,2022-11-14_10h46.08.390,vts_reward_expectancy_bt,2022.2.4,Win32,59.82292414,Chrome,1280,800,,,a,0.9663,10,312,1,1,2,14,6,1,0,0,1,0,1,0,0,0,hexagon,triangle,,,,,,,,,,,,,,,,,,,,,,,,,,,,,,,,,,,,,,,,,,,,,,,,,,,,,,
293488,2022-11-14_10h46.08.390,vts_reward_expectancy_bt,2022.2.4,Win32,59.82292414,Chrome,1280,800,,,l,1.7655,1,313,1,1,3,15,0,1,1,0,0,0,0,1,0,0,triangle,circle,,,,,,,,,,,,,,,,,,,,,,,,,,,,,,,,,,,,,,,,,,,,,,,,,,,,,,
293488,2022-11-14_10h46.08.390,vts_reward_expectancy_bt,2022.2.4,Win32,59.82292414,Chrome,1280,800,,,a,0.942,10,323,1,1,4,16,7,1,0,0,1,0,0,1,0,0,hexagon,circle,,,,,,,,,,,,,,,,,,,,,,,,,,,,,,,,,,,,,,,,,,,,,,,,,,,,,,
293488,2022-11-14_10h46.08.390,vts_reward_expectancy_bt,2022.2.4,Win32,59.82292414,Chrome,1280,800,,,l,0.972,1,324,1,1,5,17,3,1,0,1,0,0,1,0,0,0,circle,triangle,,,,,,,,,,,,,,,,,,,,,,,,,,,,,,,,,,,,,,,,,,,,,,,,,,,,,,
293488,2022-11-14_10h46.08.390,vts_reward_expectancy_bt,2022.2.4,Win32,59.82292414,Chrome,1280,800,,,l,0.9031,1,325,1,1,6,18,8,1,0,0,1,0,0,0,0,1,hexagon,star,,,,,,,,,,,,,,,,,,,,,,,,,,,,,,,,,,,,,,,,,,,,,,,,,,,,,,
293488,2022-11-14_10h46.08.390,vts_reward_expectancy_bt,2022.2.4,Win32,59.82292414,Chrome,1280,800,,,a,0.8245,1,326,1,1,7,19,9,1,0,0,0,1,1,0,0,0,star,triangle,,,,,,,,,,,,,,,,,,,,,,,,,,,,,,,,,,,,,,,,,,,,,,,,,,,,,,
293488,2022-11-14_10h46.08.390,vts_reward_expectancy_bt,2022.2.4,Win32,59.82292414,Chrome,1280,800,,,l,0.7183,1,327,1,1,8,20,11,1,0,0,0,1,0,0,1,0,star,hexagon,,,,,,,,,,,,,,,,,,,,,,,,,,,,,,,,,,,,,,,,,,,,,,,,,,,,,,
293488,2022-11-14_10h46.08.390,vts_reward_expectancy_bt,2022.2.4,Win32,59.82292414,Chrome,1280,800,,,l,0.7365,1,328,1,1,9,21,1,1,1,0,0,0,0,0,1,0,triangle,hexagon,,,,,,,,,,,,,,,,,,,,,,,,,,,,,,,,,,,,,,,,,,,,,,,,,,,,,,
293488,2022-11-14_10h46.08.390,vts_reward_expectancy_bt,2022.2.4,Win32,59.82292414,Chrome,1280,800,,,l,0.8117,10,338,1,1,10,22,4,1,0,1,0,0,0,0,1,0,circle,hexagon,,,,,,,,,,,,,,,,,,,,,,,,,,,,,,,,,,,,,,,,,,,,,,,,,,,,,,
293488,2022-11-14_10h46.08.390,vts_reward_expectancy_bt,2022.2.4,Win32,59.82292414,Chrome,1280,800,,,a,1.4391,10,348,1,1,11,23,2,1,1,0,0,0,0,0,0,1,triangle,star,,,,,,,,,,,,,,,,,,,,,,,,,,,,,,,,,,,,,,,,,,,,,,,,,,,,,,
293488,2022-11-14_10h46.08.390,vts_reward_expectancy_bt,2022.2.4,Win32,59.82292414,Chrome,1280,800,,,a,1.4316,1,349,1,2,0,24,6,1,0,0,1,0,1,0,0,0,hexagon,triangle,,,,,,,,,,,,,,,,,,,,,,,,,,,,,,,,,,,,,,,,,,,,,,,,,,,,,,
293488,2022-11-14_10h46.08.390,vts_reward_expectancy_bt,2022.2.4,Win32,59.82292414,Chrome,1280,800,,,l,0.5967,1,350,1,2,1,25,0,1,1,0,0,0,0,1,0,0,triangle,circle,,,,,,,,,,,,,,,,,,,,,,,,,,,,,,,,,,,,,,,,,,,,,,,,,,,,,,
293488,2022-11-14_10h46.08.390,vts_reward_expectancy_bt,2022.2.4,Win32,59.82292414,Chrome,1280,800,,,l,1.1687,10,360,1,2,2,26,4,1,0,1,0,0,0,0,1,0,circle,hexagon,,,,,,,,,,,,,,,,,,,,,,,,,,,,,,,,,,,,,,,,,,,,,,,,,,,,,,
293488,2022-11-14_10h46.08.390,vts_reward_expectancy_bt,2022.2.4,Win32,59.82292414,Chrome,1280,800,,,l,2.2539,10,370,1,2,3,27,3,1,0,1,0,0,1,0,0,0,circle,triangle,,,,,,,,,,,,,,,,,,,,,,,,,,,,,,,,,,,,,,,,,,,,,,,,,,,,,,
293488,2022-11-14_10h46.08.390,vts_reward_expectancy_bt,2022.2.4,Win32,59.82292414,Chrome,1280,800,,,a,1.1268,10,380,1,2,4,28,7,1,0,0,1,0,0,1,0,0,hexagon,circle,,,,,,,,,,,,,,,,,,,,,,,,,,,,,,,,,,,,,,,,,,,,,,,,,,,,,,
293488,2022-11-14_10h46.08.390,vts_reward_expectancy_bt,2022.2.4,Win32,59.82292414,Chrome,1280,800,,,a,1.2202,10,390,1,2,5,29,1,1,1,0,0,0,0,0,1,0,triangle,hexagon,,,,,,,,,,,,,,,,,,,,,,,,,,,,,,,,,,,,,,,,,,,,,,,,,,,,,,
293488,2022-11-14_10h46.08.390,vts_reward_expectancy_bt,2022.2.4,Win32,59.82292414,Chrome,1280,800,,,a,2.5561,1,391,1,2,6,30,11,1,0,0,0,1,0,0,1,0,star,hexagon,,,,,,,,,,,,,,,,,,,,,,,,,,,,,,,,,,,,,,,,,,,,,,,,,,,,,,
293488,2022-11-14_10h46.08.390,vts_reward_expectancy_bt,2022.2.4,Win32,59.82292414,Chrome,1280,800,,,l,0.8744,10,401,1,2,7,31,9,1,0,0,0,1,1,0,0,0,star,triangle,,,,,,,,,,,,,,,,,,,,,,,,,,,,,,,,,,,,,,,,,,,,,,,,,,,,,,
293488,2022-11-14_10h46.08.390,vts_reward_expectancy_bt,2022.2.4,Win32,59.82292414,Chrome,1280,800,,,l,0.876,1,402,1,2,8,32,2,1,1,0,0,0,0,0,0,1,triangle,star,,,,,,,,,,,,,,,,,,,,,,,,,,,,,,,,,,,,,,,,,,,,,,,,,,,,,,
293488,2022-11-14_10h46.08.390,vts_reward_expectancy_bt,2022.2.4,Win32,59.82292414,Chrome,1280,800,,,l,0.9865,1,403,1,2,9,33,10,1,0,0,0,1,0,1,0,0,star ,circle,,,,,,,,,,,,,,,,,,,,,,,,,,,,,,,,,,,,,,,,,,,,,,,,,,,,,,
293488,2022-11-14_10h46.08.390,vts_reward_expectancy_bt,2022.2.4,Win32,59.82292414,Chrome,1280,800,,,a,0.8198,1,404,1,2,10,34,5,1,0,1,0,0,0,0,0,1,circle,star,,,,,,,,,,,,,,,,,,,,,,,,,,,,,,,,,,,,,,,,,,,,,,,,,,,,,,
293488,2022-11-14_10h46.08.390,vts_reward_expectancy_bt,2022.2.4,Win32,59.82292414,Chrome,1280,800,,,l,0.5397,1,405,1,2,11,35,8,1,0,0,1,0,0,0,0,1,hexagon,star,,,,,,,,,,,,,,,,,,,,,,,,,,,,,,,,,,,,,,,,,,,,,,,,,,,,,,
293488,2022-11-14_10h46.08.390,vts_reward_expectancy_bt,2022.2.4,Win32,59.82292414,Chrome,1280,800,,,l,0.7179,10,415,2,0,0,0,2,1,1,0,0,0,0,0,0,1,triangle,star,,,,,,,,,,,,,,,,,,,,,,,,,,,,,,,,,,,,,,,,,,,,,,,,,,,,,,
293488,2022-11-14_10h46.08.390,vts_reward_expectancy_bt,2022.2.4,Win32,59.82292414,Chrome,1280,800,,,l,1.3021,1,416,2,0,1,1,3,1,0,1,0,0,1,0,0,0,circle,triangle,,,,,,,,,,,,,,,,,,,,,,,,,,,,,,,,,,,,,,,,,,,,,,,,,,,,,,
293488,2022-11-14_10h46.08.390,vts_reward_expectancy_bt,2022.2.4,Win32,59.82292414,Chrome,1280,800,,,a,0.5915,10,426,2,0,2,2,8,1,0,0,1,0,0,0,0,1,hexagon,star,,,,,,,,,,,,,,,,,,,,,,,,,,,,,,,,,,,,,,,,,,,,,,,,,,,,,,
293488,2022-11-14_10h46.08.390,vts_reward_expectancy_bt,2022.2.4,Win32,59.82292414,Chrome,1280,800,,,a,0.8016,10,436,2,0,3,3,6,1,0,0,1,0,1,0,0,0,hexagon,triangle,,,,,,,,,,,,,,,,,,,,,,,,,,,,,,,,,,,,,,,,,,,,,,,,,,,,,,
293488,2022-11-14_10h46.08.390,vts_reward_expectancy_bt,2022.2.4,Win32,59.82292414,Chrome,1280,800,,,a,2.4189,10,446,2,0,4,4,1,1,1,0,0,0,0,0,1,0,triangle,hexagon,,,,,,,,,,,,,,,,,,,,,,,,,,,,,,,,,,,,,,,,,,,,,,,,,,,,,,
293488,2022-11-14_10h46.08.390,vts_reward_expectancy_bt,2022.2.4,Win32,59.82292414,Chrome,1280,800,,,l,0.8473,10,456,2,0,5,5,5,1,0,1,0,0,0,0,0,1,circle,star,,,,,,,,,,,,,,,,,,,,,,,,,,,,,,,,,,,,,,,,,,,,,,,,,,,,,,
293488,2022-11-14_10h46.08.390,vts_reward_expectancy_bt,2022.2.4,Win32,59.82292414,Chrome,1280,800,,,a,1.6058,1,457,2,0,6,6,7,1,0,0,1,0,0,1,0,0,hexagon,circle,,,,,,,,,,,,,,,,,,,,,,,,,,,,,,,,,,,,,,,,,,,,,,,,,,,,,,
293488,2022-11-14_10h46.08.390,vts_reward_expectancy_bt,2022.2.4,Win32,59.82292414,Chrome,1280,800,,,a,2.3263,1,458,2,0,7,7,10,1,0,0,0,1,0,1,0,0,star ,circle,,,,,,,,,,,,,,,,,,,,,,,,,,,,,,,,,,,,,,,,,,,,,,,,,,,,,,
293488,2022-11-14_10h46.08.390,vts_reward_expectancy_bt,2022.2.4,Win32,59.82292414,Chrome,1280,800,,,l,0.8593,1,459,2,0,8,8,9,1,0,0,0,1,1,0,0,0,star,triangle,,,,,,,,,,,,,,,,,,,,,,,,,,,,,,,,,,,,,,,,,,,,,,,,,,,,,,
293488,2022-11-14_10h46.08.390,vts_reward_expectancy_bt,2022.2.4,Win32,59.82292414,Chrome,1280,800,,,a,0.7903,1,460,2,0,9,9,11,1,0,0,0,1,0,0,1,0,star,hexagon,,,,,,,,,,,,,,,,,,,,,,,,,,,,,,,,,,,,,,,,,,,,,,,,,,,,,,
293488,2022-11-14_10h46.08.390,vts_reward_expectancy_bt,2022.2.4,Win32,59.82292414,Chrome,1280,800,,,l,0.5035,10,470,2,0,10,10,4,1,0,1,0,0,0,0,1,0,circle,hexagon,,,,,,,,,,,,,,,,,,,,,,,,,,,,,,,,,,,,,,,,,,,,,,,,,,,,,,
293488,2022-11-14_10h46.08.390,vts_reward_expectancy_bt,2022.2.4,Win32,59.82292414,Chrome,1280,800,,,a,1.2407,10,480,2,0,11,11,0,1,1,0,0,0,0,1,0,0,triangle,circle,,,,,,,,,,,,,,,,,,,,,,,,,,,,,,,,,,,,,,,,,,,,,,,,,,,,,,
293488,2022-11-14_10h46.08.390,vts_reward_expectancy_bt,2022.2.4,Win32,59.82292414,Chrome,1280,800,,,a,1.1257,1,481,2,1,0,12,0,1,1,0,0,0,0,1,0,0,triangle,circle,,,,,,,,,,,,,,,,,,,,,,,,,,,,,,,,,,,,,,,,,,,,,,,,,,,,,,
293488,2022-11-14_10h46.08.390,vts_reward_expectancy_bt,2022.2.4,Win32,59.82292414,Chrome,1280,800,,,l,0.7403,10,491,2,1,1,13,9,1,0,0,0,1,1,0,0,0,star,triangle,,,,,,,,,,,,,,,,,,,,,,,,,,,,,,,,,,,,,,,,,,,,,,,,,,,,,,
293488,2022-11-14_10h46.08.390,vts_reward_expectancy_bt,2022.2.4,Win32,59.82292414,Chrome,1280,800,,,l,0.6853,1,492,2,1,2,14,2,1,1,0,0,0,0,0,0,1,triangle,star,,,,,,,,,,,,,,,,,,,,,,,,,,,,,,,,,,,,,,,,,,,,,,,,,,,,,,
293488,2022-11-14_10h46.08.390,vts_reward_expectancy_bt,2022.2.4,Win32,59.82292414,Chrome,1280,800,,,l,0.8928,10,502,2,1,3,15,3,1,0,1,0,0,1,0,0,0,circle,triangle,,,,,,,,,,,,,,,,,,,,,,,,,,,,,,,,,,,,,,,,,,,,,,,,,,,,,,
293488,2022-11-14_10h46.08.390,vts_reward_expectancy_bt,2022.2.4,Win32,59.82292414,Chrome,1280,800,,,a,1.2189,1,503,2,1,4,16,8,1,0,0,1,0,0,0,0,1,hexagon,star,,,,,,,,,,,,,,,,,,,,,,,,,,,,,,,,,,,,,,,,,,,,,,,,,,,,,,
293488,2022-11-14_10h46.08.390,vts_reward_expectancy_bt,2022.2.4,Win32,59.82292414,Chrome,1280,800,,,a,1.2766,1,504,2,1,5,17,10,1,0,0,0,1,0,1,0,0,star ,circle,,,,,,,,,,,,,,,,,,,,,,,,,,,,,,,,,,,,,,,,,,,,,,,,,,,,,,
293488,2022-11-14_10h46.08.390,vts_reward_expectancy_bt,2022.2.4,Win32,59.82292414,Chrome,1280,800,,,l,0.7354,10,514,2,1,6,18,6,1,0,0,1,0,1,0,0,0,hexagon,triangle,,,,,,,,,,,,,,,,,,,,,,,,,,,,,,,,,,,,,,,,,,,,,,,,,,,,,,
293488,2022-11-14_10h46.08.390,vts_reward_expectancy_bt,2022.2.4,Win32,59.82292414,Chrome,1280,800,,,l,0.6386,1,515,2,1,7,19,5,1,0,1,0,0,0,0,0,1,circle,star,,,,,,,,,,,,,,,,,,,,,,,,,,,,,,,,,,,,,,,,,,,,,,,,,,,,,,
293488,2022-11-14_10h46.08.390,vts_reward_expectancy_bt,2022.2.4,Win32,59.82292414,Chrome,1280,800,,,l,0.9346,10,525,2,1,8,20,4,1,0,1,0,0,0,0,1,0,circle,hexagon,,,,,,,,,,,,,,,,,,,,,,,,,,,,,,,,,,,,,,,,,,,,,,,,,,,,,,
293488,2022-11-14_10h46.08.390,vts_reward_expectancy_bt,2022.2.4,Win32,59.82292414,Chrome,1280,800,,,l,0.8512,10,535,2,1,9,21,1,1,1,0,0,0,0,0,1,0,triangle,hexagon,,,,,,,,,,,,,,,,,,,,,,,,,,,,,,,,,,,,,,,,,,,,,,,,,,,,,,
293488,2022-11-14_10h46.08.390,vts_reward_expectancy_bt,2022.2.4,Win32,59.82292414,Chrome,1280,800,,,l,0.895,10,545,2,1,10,22,11,1,0,0,0,1,0,0,1,0,star,hexagon,,,,,,,,,,,,,,,,,,,,,,,,,,,,,,,,,,,,,,,,,,,,,,,,,,,,,,
293488,2022-11-14_10h46.08.390,vts_reward_expectancy_bt,2022.2.4,Win32,59.82292414,Chrome,1280,800,,,a,1.0906,10,555,2,1,11,23,7,1,0,0,1,0,0,1,0,0,hexagon,circle,,,,,,,,,,,,,,,,,,,,,,,,,,,,,,,,,,,,,,,,,,,,,,,,,,,,,,
293488,2022-11-14_10h46.08.390,vts_reward_expectancy_bt,2022.2.4,Win32,59.82292414,Chrome,1280,800,,,a,1.0918,1,556,2,2,0,24,1,1,1,0,0,0,0,0,1,0,triangle,hexagon,,,,,,,,,,,,,,,,,,,,,,,,,,,,,,,,,,,,,,,,,,,,,,,,,,,,,,
293488,2022-11-14_10h46.08.390,vts_reward_expectancy_bt,2022.2.4,Win32,59.82292414,Chrome,1280,800,,,l,0.5226,10,566,2,2,1,25,4,1,0,1,0,0,0,0,1,0,circle,hexagon,,,,,,,,,,,,,,,,,,,,,,,,,,,,,,,,,,,,,,,,,,,,,,,,,,,,,,
293488,2022-11-14_10h46.08.390,vts_reward_expectancy_bt,2022.2.4,Win32,59.82292414,Chrome,1280,800,,,l,1.6658,10,576,2,2,2,26,3,1,0,1,0,0,1,0,0,0,circle,triangle,,,,,,,,,,,,,,,,,,,,,,,,,,,,,,,,,,,,,,,,,,,,,,,,,,,,,,
293488,2022-11-14_10h46.08.390,vts_reward_expectancy_bt,2022.2.4,Win32,59.82292414,Chrome,1280,800,,,l,2.3883,10,586,2,2,3,27,10,1,0,0,0,1,0,1,0,0,star ,circle,,,,,,,,,,,,,,,,,,,,,,,,,,,,,,,,,,,,,,,,,,,,,,,,,,,,,,
293488,2022-11-14_10h46.08.390,vts_reward_expectancy_bt,2022.2.4,Win32,59.82292414,Chrome,1280,800,,,a,1.5156,10,596,2,2,4,28,11,1,0,0,0,1,0,0,1,0,star,hexagon,,,,,,,,,,,,,,,,,,,,,,,,,,,,,,,,,,,,,,,,,,,,,,,,,,,,,,
293488,2022-11-14_10h46.08.390,vts_reward_expectancy_bt,2022.2.4,Win32,59.82292414,Chrome,1280,800,,,l,1.5179,1,597,2,2,5,29,9,1,0,0,0,1,1,0,0,0,star,triangle,,,,,,,,,,,,,,,,,,,,,,,,,,,,,,,,,,,,,,,,,,,,,,,,,,,,,,
293488,2022-11-14_10h46.08.390,vts_reward_expectancy_bt,2022.2.4,Win32,59.82292414,Chrome,1280,800,,,a,1.1042,1,598,2,2,6,30,7,1,0,0,1,0,0,1,0,0,hexagon,circle,,,,,,,,,,,,,,,,,,,,,,,,,,,,,,,,,,,,,,,,,,,,,,,,,,,,,,
293488,2022-11-14_10h46.08.390,vts_reward_expectancy_bt,2022.2.4,Win32,59.82292414,Chrome,1280,800,,,l,0.5403,1,599,2,2,7,31,5,1,0,1,0,0,0,0,0,1,circle,star,,,,,,,,,,,,,,,,,,,,,,,,,,,,,,,,,,,,,,,,,,,,,,,,,,,,,,
293488,2022-11-14_10h46.08.390,vts_reward_expectancy_bt,2022.2.4,Win32,59.82292414,Chrome,1280,800,,,l,1.6358,1,600,2,2,8,32,2,1,1,0,0,0,0,0,0,1,triangle,star,,,,,,,,,,,,,,,,,,,,,,,,,,,,,,,,,,,,,,,,,,,,,,,,,,,,,,
293488,2022-11-14_10h46.08.390,vts_reward_expectancy_bt,2022.2.4,Win32,59.82292414,Chrome,1280,800,,,a,0.6705,10,610,2,2,9,33,8,1,0,0,1,0,0,0,0,1,hexagon,star,,,,,,,,,,,,,,,,,,,,,,,,,,,,,,,,,,,,,,,,,,,,,,,,,,,,,,
293488,2022-11-14_10h46.08.390,vts_reward_expectancy_bt,2022.2.4,Win32,59.82292414,Chrome,1280,800,,,a,0.9345,1,611,2,2,10,34,0,1,1,0,0,0,0,1,0,0,triangle,circle,,,,,,,,,,,,,,,,,,,,,,,,,,,,,,,,,,,,,,,,,,,,,,,,,,,,,,
293488,2022-11-14_10h46.08.390,vts_reward_expectancy_bt,2022.2.4,Win32,59.82292414,Chrome,1280,800,,,l,0.5035,1,612,2,2,11,35,6,1,0,0,1,0,1,0,0,0,hexagon,triangle,,,,,,,,,,,,,,,,,,,,,,,,,,,,,,,,,,,,,,,,,,,,,,,,,,,,,,
293488,2022-11-14_10h46.08.390,vts_reward_expectancy_bt,2022.2.4,Win32,59.82292414,Chrome,1280,800,,,,,,,,,,,,,,,,,,,,,,,D,132,triangle,0,0,,0,0,0,0,0,1,,,,,,,,,,,,,,,,,,,,,,,,,,,,,,,,,,,,,,,,,,
293488,2022-11-14_10h46.08.390,vts_reward_expectancy_bt,2022.2.4,Win32,59.82292414,Chrome,1280,800,,,,,,,,,,,,,,,,,,,,,,,B,146,circle,1,1,d,0,1,0,1,0,1,0.6495,,,,,,,,,,,,,,,,,,,,,,,,,,,,,,,,,,,,,,,,,
293488,2022-11-14_10h46.08.390,vts_reward_expectancy_bt,2022.2.4,Win32,59.82292414,Chrome,1280,800,,,,,,,,,,,,,,,,,,,,,,,F,167,hexagon,0,0,,0,2,0,2,0,1,,,,,,,,,,,,,,,,,,,,,,,,,,,,,,,,,,,,,,,,,,
293488,2022-11-14_10h46.08.390,vts_reward_expectancy_bt,2022.2.4,Win32,59.82292414,Chrome,1280,800,,,,,,,,,,,,,,,,,,,,,,,S,125,star,1,1,f,0,3,0,3,0,1,1.4308,,,,,,,,,,,,,,,,,,,,,,,,,,,,,,,,,,,,,,,,,
293488,2022-11-14_10h46.08.390,vts_reward_expectancy_bt,2022.2.4,Win32,59.82292414,Chrome,1280,800,,,,,,,,,,,,,,,,,,,,,,,U,160,triangle,1,0,f,0,4,0,4,0,1,1.1144,,,,,,,,,,,,,,,,,,,,,,,,,,,,,,,,,,,,,,,,,
293488,2022-11-14_10h46.08.390,vts_reward_expectancy_bt,2022.2.4,Win32,59.82292414,Chrome,1280,800,,,,,,,,,,,,,,,,,,,,,,,H,181,circle,1,0,d,0,5,0,5,0,1,0.9829,,,,,,,,,,,,,,,,,,,,,,,,,,,,,,,,,,,,,,,,,
293488,2022-11-14_10h46.08.390,vts_reward_expectancy_bt,2022.2.4,Win32,59.82292414,Chrome,1280,800,,,,,,,,,,,,,,,,,,,,,,,W,139,hexagon,1,0,f,0,6,0,6,0,1,0.6832,,,,,,,,,,,,,,,,,,,,,,,,,,,,,,,,,,,,,,,,,
293488,2022-11-14_10h46.08.390,vts_reward_expectancy_bt,2022.2.4,Win32,59.82292414,Chrome,1280,800,,,,,,,,,,,,,,,,,,,,,,,Y,174,star,1,0,f,0,7,0,7,0,1,0.6648,,,,,,,,,,,,,,,,,,,,,,,,,,,,,,,,,,,,,,,,,
293488,2022-11-14_10h46.08.390,vts_reward_expectancy_bt,2022.2.4,Win32,59.82292414,Chrome,1280,800,,,,,,,,,,,,,,,,,,,,,,,D,132,star,1,0,d,0,8,0,8,0,1,0.6012,,,,,,,,,,,,,,,,,,,,,,,,,,,,,,,,,,,,,,,,,
293488,2022-11-14_10h46.08.390,vts_reward_expectancy_bt,2022.2.4,Win32,59.82292414,Chrome,1280,800,,,,,,,,,,,,,,,,,,,,,,,B,146,triangle,1,0,d,0,9,0,9,0,1,0.6632,,,,,,,,,,,,,,,,,,,,,,,,,,,,,,,,,,,,,,,,,
293488,2022-11-14_10h46.08.390,vts_reward_expectancy_bt,2022.2.4,Win32,59.82292414,Chrome,1280,800,,,,,,,,,,,,,,,,,,,,,,,S,160,hexagon,1,0,f,1,0,0,0,0,1,0.8168,,,,,,,,,,,,,,,,,,,,,,,,,,,,,,,,,,,,,,,,,
293488,2022-11-14_10h46.08.390,vts_reward_expectancy_bt,2022.2.4,Win32,59.82292414,Chrome,1280,800,,,,,,,,,,,,,,,,,,,,,,,B,132,circle,1,0,d,1,1,0,1,0,1,0.6342,,,,,,,,,,,,,,,,,,,,,,,,,,,,,,,,,,,,,,,,,
293488,2022-11-14_10h46.08.390,vts_reward_expectancy_bt,2022.2.4,Win32,59.82292414,Chrome,1280,800,,,,,,,,,,,,,,,,,,,,,,,Y,181,star,1,0,f,1,2,0,2,0,1,0.6029,,,,,,,,,,,,,,,,,,,,,,,,,,,,,,,,,,,,,,,,,
293488,2022-11-14_10h46.08.390,vts_reward_expectancy_bt,2022.2.4,Win32,59.82292414,Chrome,1280,800,,,,,,,,,,,,,,,,,,,,,,,H,125,triangle,1,0,d,1,3,0,3,0,1,0.8015,,,,,,,,,,,,,,,,,,,,,,,,,,,,,,,,,,,,,,,,,
293488,2022-11-14_10h46.08.390,vts_reward_expectancy_bt,2022.2.4,Win32,59.82292414,Chrome,1280,800,,,,,,,,,,,,,,,,,,,,,,,U,167,hexagon,1,0,f,1,4,0,4,0,1,0.6075,,,,,,,,,,,,,,,,,,,,,,,,,,,,,,,,,,,,,,,,,
293488,2022-11-14_10h46.08.390,vts_reward_expectancy_bt,2022.2.4,Win32,59.82292414,Chrome,1280,800,,,,,,,,,,,,,,,,,,,,,,,F,146,circle,1,0,d,1,5,0,5,0,1,0.6174,,,,,,,,,,,,,,,,,,,,,,,,,,,,,,,,,,,,,,,,,
293488,2022-11-14_10h46.08.390,vts_reward_expectancy_bt,2022.2.4,Win32,59.82292414,Chrome,1280,800,,,,,,,,,,,,,,,,,,,,,,,D,174,star,1,0,d,1,6,0,6,0,1,0.5069,,,,,,,,,,,,,,,,,,,,,,,,,,,,,,,,,,,,,,,,,
293488,2022-11-14_10h46.08.390,vts_reward_expectancy_bt,2022.2.4,Win32,59.82292414,Chrome,1280,800,,,,,,,,,,,,,,,,,,,,,,,W,139,triangle,1,0,f,1,7,0,7,0,1,0.4906,,,,,,,,,,,,,,,,,,,,,,,,,,,,,,,,,,,,,,,,,
293488,2022-11-14_10h46.08.390,vts_reward_expectancy_bt,2022.2.4,Win32,59.82292414,Chrome,1280,800,,,,,,,,,,,,,,,,,,,,,,,S,160,triangle,1,0,f,1,8,0,8,0,1,0.6476,,,,,,,,,,,,,,,,,,,,,,,,,,,,,,,,,,,,,,,,,
293488,2022-11-14_10h46.08.390,vts_reward_expectancy_bt,2022.2.4,Win32,59.82292414,Chrome,1280,800,,,,,,,,,,,,,,,,,,,,,,,B,132,star,1,0,d,1,9,0,9,0,1,0.5394,,,,,,,,,,,,,,,,,,,,,,,,,,,,,,,,,,,,,,,,,
293488,2022-11-14_10h46.08.390,vts_reward_expectancy_bt,2022.2.4,Win32,59.82292414,Chrome,1280,800,,,,,,,,,,,,,,,,,,,,,,,B,139,circle,1,0,,2,,,,,,,j,0.6353,0,0,0,0,1,,,,,,,,,,,,,,,,,,,,,,,,,,,,,,,,,,
293488,2022-11-14_10h46.08.390,vts_reward_expectancy_bt,2022.2.4,Win32,59.82292414,Chrome,1280,800,,,,,,,,,,,,,,,,,,,,,,,W,174,triangle,1,0,,2,,,,,,,k,0.6632,1,0,1,0,1,,,,,,,,,,,,,,,,,,,,,,,,,,,,,,,,,,
293488,2022-11-14_10h46.08.390,vts_reward_expectancy_bt,2022.2.4,Win32,59.82292414,Chrome,1280,800,,,,,,,,,,,,,,,,,,,,,,,F,132,star,1,0,,2,,,,,,,j,0.6145,2,0,2,0,1,,,,,,,,,,,,,,,,,,,,,,,,,,,,,,,,,,
293488,2022-11-14_10h46.08.390,vts_reward_expectancy_bt,2022.2.4,Win32,59.82292414,Chrome,1280,800,,,,,,,,,,,,,,,,,,,,,,,H,146,hexagon,0,0,,2,,,,,,,k,0.5512,3,0,3,0,1,,,,,,,,,,,,,,,,,,,,,,,,,,,,,,,,,,
293488,2022-11-14_10h46.08.390,vts_reward_expectancy_bt,2022.2.4,Win32,59.82292414,Chrome,1280,800,,,,,,,,,,,,,,,,,,,,,,,S,181,circle,1,1,,2,,,,,,,k,1.4188,4,0,4,0,1,,,,,,,,,,,,,,,,,,,,,,,,,,,,,,,,,,
293488,2022-11-14_10h46.08.390,vts_reward_expectancy_bt,2022.2.4,Win32,59.82292414,Chrome,1280,800,,,,,,,,,,,,,,,,,,,,,,,Y,160,triangle,1,0,,2,,,,,,,k,0.8868,5,0,5,0,1,,,,,,,,,,,,,,,,,,,,,,,,,,,,,,,,,,
293488,2022-11-14_10h46.08.390,vts_reward_expectancy_bt,2022.2.4,Win32,59.82292414,Chrome,1280,800,,,,,,,,,,,,,,,,,,,,,,,U,167,star,1,0,,2,,,,,,,k,0.6331,6,0,6,0,1,,,,,,,,,,,,,,,,,,,,,,,,,,,,,,,,,,
293488,2022-11-14_10h46.08.390,vts_reward_expectancy_bt,2022.2.4,Win32,59.82292414,Chrome,1280,800,,,,,,,,,,,,,,,,,,,,,,,D,125,hexagon,1,0,,2,,,,,,,j,0.7168,7,0,7,0,1,,,,,,,,,,,,,,,,,,,,,,,,,,,,,,,,,,
293488,2022-11-14_10h46.08.390,vts_reward_expectancy_bt,2022.2.4,Win32,59.82292414,Chrome,1280,800,,,,,,,,,,,,,,,,,,,,,,,B,139,circle,1,0,,2,,,,,,,j,0.7646,8,0,8,0,1,,,,,,,,,,,,,,,,,,,,,,,,,,,,,,,,,,
293488,2022-11-14_10h46.08.390,vts_reward_expectancy_bt,2022.2.4,Win32,59.82292414,Chrome,1280,800,,,,,,,,,,,,,,,,,,,,,,,W,174,hexagon,1,0,,2,,,,,,,k,0.5313,9,0,9,0,1,,,,,,,,,,,,,,,,,,,,,,,,,,,,,,,,,,
293488,2022-11-14_10h46.08.390,vts_reward_expectancy_bt,2022.2.4,Win32,59.82292414,Chrome,1280,800,,,,,0,612,,,,,,,,,,,,,,,,,B,125,circle,1,0,,3,,,,,,,,,,,,,,-1,letter,NA,d,1.0293,vtsPrac,0,0,0,0,1,,,,,,,,,,,,,,,,,,,,,,,
293488,2022-11-14_10h46.08.390,vts_reward_expectancy_bt,2022.2.4,Win32,59.82292414,Chrome,1280,800,,,,,0,612,,,,,,,,,,,,,,,,,Y,174,triangle,1,0,,3,,,,,,,,,,,,,,switch,number,numSwt,k,0.7802,vtsPrac,1,0,1,0,1,,,,,,,,,,,,,,,,,,,,,,,
293488,2022-11-14_10h46.08.390,vts_reward_expectancy_bt,2022.2.4,Win32,59.82292414,Chrome,1280,800,,,,,0,612,,,,,,,,,,,,,,,,,F,167,circle,1,0,,3,,,,,,,,,,,,,,switch,letter,lettSwt,d,0.993,vtsPrac,2,0,2,0,1,,,,,,,,,,,,,,,,,,,,,,,
293488,2022-11-14_10h46.08.390,vts_reward_expectancy_bt,2022.2.4,Win32,59.82292414,Chrome,1280,800,,,,,0,612,,,,,,,,,,,,,,,,,U,139,triangle,1,0,,3,,,,,,,,,,,,,,switch,number,numSwt,j,1.0156,vtsPrac,3,0,3,0,1,,,,,,,,,,,,,,,,,,,,,,,
293488,2022-11-14_10h46.08.390,vts_reward_expectancy_bt,2022.2.4,Win32,59.82292414,Chrome,1280,800,,,,,0,612,,,,,,,,,,,,,,,,,B,125,star,1,0,,3,,,,,,,,,,,,,,switch,letter,lettSwt,d,0.9143,vtsPrac,4,0,4,0,1,,,,,,,,,,,,,,,,,,,,,,,
293488,2022-11-14_10h46.08.390,vts_reward_expectancy_bt,2022.2.4,Win32,59.82292414,Chrome,1280,800,,,,,0,612,,,,,,,,,,,,,,,,,Y,174,triangle,1,0,,3,,,,,,,,,,,,,,switch,number,numSwt,k,0.5335,vtsPrac,5,0,5,0,1,,,,,,,,,,,,,,,,,,,,,,,
293488,2022-11-14_10h46.08.390,vts_reward_expectancy_bt,2022.2.4,Win32,59.82292414,Chrome,1280,800,,,,,0,612,,,,,,,,,,,,,,,,,F,167,circle,1,0,,3,,,,,,,,,,,,,,switch,letter,lettSwt,d,0.7688,vtsPrac,6,0,6,0,1,,,,,,,,,,,,,,,,,,,,,,,
293488,2022-11-14_10h46.08.390,vts_reward_expectancy_bt,2022.2.4,Win32,59.82292414,Chrome,1280,800,,,,,0,612,,,,,,,,,,,,,,,,,U,139,hexagon,1,0,,3,,,,,,,,,,,,,,switch,number,numSwt,j,0.6474,vtsPrac,7,0,7,0,1,,,,,,,,,,,,,,,,,,,,,,,
293488,2022-11-14_10h46.08.390,vts_reward_expectancy_bt,2022.2.4,Win32,59.82292414,Chrome,1280,800,,,,,0,612,,,,,,,,,,,,,,,,,F,132,circle,1,0,,3,,,,,,,,,,,,,,switch,letter,lettSwt,d,1.8003,vtsPrac,8,0,8,0,1,,,,,,,,,,,,,,,,,,,,,,,
293488,2022-11-14_10h46.08.390,vts_reward_expectancy_bt,2022.2.4,Win32,59.82292414,Chrome,1280,800,,,,,0,612,,,,,,,,,,,,,,,,,D,174,star,1,0,,3,,,,,,,,,,,,,,switch,number,numSwt,k,0.5984,vtsPrac,9,0,9,0,1,,,,,,,,,,,,,,,,,,,,,,,
293488,2022-11-14_10h46.08.390,vts_reward_expectancy_bt,2022.2.4,Win32,59.82292414,Chrome,1280,800,,,,,0,612,,,,,,,,,,,,,,,,,H,167,triangle,1,0,,3,,,,,,,,,,,,,,switch,letter,lettSwt,d,0.8968,vtsPrac,10,0,10,0,1,,,,,,,,,,,,,,,,,,,,,,,
293488,2022-11-14_10h46.08.390,vts_reward_expectancy_bt,2022.2.4,Win32,59.82292414,Chrome,1280,800,,,,,0,612,,,,,,,,,,,,,,,,,B,160,star,1,0,,3,,,,,,,,,,,,,,switch,number,numSwt,k,0.5807,vtsPrac,11,0,11,0,1,,,,,,,,,,,,,,,,,,,,,,,
293488,2022-11-14_10h46.08.390,vts_reward_expectancy_bt,2022.2.4,Win32,59.82292414,Chrome,1280,800,,,,,0,612,,,,,,,,,,,,,,,,,W,160,hexagon,1,0,,3,,,,,,,,,,,,,,switch,letter,lettSwt,f,0.807,vtsPrac,12,0,12,0,1,,,,,,,,,,,,,,,,,,,,,,,
293488,2022-11-14_10h46.08.390,vts_reward_expectancy_bt,2022.2.4,Win32,59.82292414,Chrome,1280,800,,,,,0,612,,,,,,,,,,,,,,,,,U,125,star,1,0,,3,,,,,,,,,,,,,,switch,number,numSwt,j,0.9318,vtsPrac,13,0,13,0,1,,,,,,,,,,,,,,,,,,,,,,,
293488,2022-11-14_10h46.08.390,vts_reward_expectancy_bt,2022.2.4,Win32,59.82292414,Chrome,1280,800,,,,,0,612,,,,,,,,,,,,,,,,,H,146,triangle,1,0,,3,,,,,,,,,,,,,,switch,letter,lettSwt,d,1.4134,vtsPrac,14,0,14,0,1,,,,,,,,,,,,,,,,,,,,,,,
293488,2022-11-14_10h46.08.390,vts_reward_expectancy_bt,2022.2.4,Win32,59.82292414,Chrome,1280,800,,,,,0,612,,,,,,,,,,,,,,,,,Y,132,hexagon,1,0,,3,,,,,,,,,,,,,,switch,number,numSwt,j,1.1006,vtsPrac,15,0,15,0,1,,,,,,,,,,,,,,,,,,,,,,,
293488,2022-11-14_10h46.08.390,vts_reward_expectancy_bt,2022.2.4,Win32,59.82292414,Chrome,1280,800,,,,,0,612,,,,,,,,,,,,,,,,,H,132,triangle,1,0,,3,,,,,,,,,,,,,,switch,letter,lettSwt,d,0.802,vtsPrac,16,0,16,0,1,,,,,,,,,,,,,,,,,,,,,,,
293488,2022-11-14_10h46.08.390,vts_reward_expectancy_bt,2022.2.4,Win32,59.82292414,Chrome,1280,800,,,,,0,612,,,,,,,,,,,,,,,,,D,125,hexagon,1,0,,3,,,,,,,,,,,,,,switch,number,numSwt,j,0.5446,vtsPrac,17,0,17,0,1,,,,,,,,,,,,,,,,,,,,,,,
293488,2022-11-14_10h46.08.390,vts_reward_expectancy_bt,2022.2.4,Win32,59.82292414,Chrome,1280,800,,,,,0,612,,,,,,,,,,,,,,,,,F,174,circle,1,0,,3,,,,,,,,,,,,,,switch,letter,lettSwt,d,0.7603,vtsPrac,18,0,18,0,1,,,,,,,,,,,,,,,,,,,,,,,
293488,2022-11-14_10h46.08.390,vts_reward_expectancy_bt,2022.2.4,Win32,59.82292414,Chrome,1280,800,,,,,0,612,,,,,,,,,,,,,,,,,Y,139,star,1,0,,3,,,,,,,,,,,,,,switch,number,numSwt,j,0.8631,vtsPrac,19,0,19,0,1,,,,,,,,,,,,,,,,,,,,,,,
293488,2022-11-14_10h46.08.390,vts_reward_expectancy_bt,2022.2.4,Win32,59.82292414,Chrome,1280,800,,,,,0,612,,,,,,,,,,,,,,,,,D,125,circle,1,0,,3,,,,,,,,,,,,,,switch,letter,lettSwt,d,0.6807,vtsPrac,20,0,20,0,1,,,,,,,,,,,,,,,,,,,,,,,
293488,2022-11-14_10h46.08.390,vts_reward_expectancy_bt,2022.2.4,Win32,59.82292414,Chrome,1280,800,,,,,0,612,,,,,,,,,,,,,,,,,Y,132,star,1,0,,3,,,,,,,,,,,,,,switch,number,numSwt,j,0.7362,vtsPrac,21,0,21,0,1,,,,,,,,,,,,,,,,,,,,,,,
293488,2022-11-14_10h46.08.390,vts_reward_expectancy_bt,2022.2.4,Win32,59.82292414,Chrome,1280,800,,,,,0,612,,,,,,,,,,,,,,,,,H,160,hexagon,1,0,,3,,,,,,,,,,,,,,switch,letter,lettSwt,d,0.7999,vtsPrac,22,0,22,0,1,,,,,,,,,,,,,,,,,,,,,,,
293488,2022-11-14_10h46.08.390,vts_reward_expectancy_bt,2022.2.4,Win32,59.82292414,Chrome,1280,800,,,,,0,612,,,,,,,,,,,,,,,,,S,139,circle,1,0,,3,,,,,,,,,,,,,,switch,number,numSwt,j,0.834,vtsPrac,23,0,23,0,1,,,,,,,,,,,,,,,,,,,,,,,
293488,2022-11-14_10h46.08.390,vts_reward_expectancy_bt,2022.2.4,Win32,59.82292414,Chrome,1280,800,,,,,0,612,,,,,,,,,,,,,,,,,B,125,hexagon,1,0,,3,,,,,,,,,,,,,,switch,letter,lettSwt,d,0.6485,vtsPrac,24,0,24,0,1,,,,,,,,,,,,,,,,,,,,,,,
293488,2022-11-14_10h46.08.390,vts_reward_expectancy_bt,2022.2.4,Win32,59.82292414,Chrome,1280,800,,,,,0,612,,,,,,,,,,,,,,,,,S,146,triangle,1,0,,3,,,,,,,,,,,,,,switch,number,numSwt,j,0.7831,vtsPrac,25,0,25,0,1,,,,,,,,,,,,,,,,,,,,,,,
293488,2022-11-14_10h46.08.390,vts_reward_expectancy_bt,2022.2.4,Win32,59.82292414,Chrome,1280,800,,,,,0,612,,,,,,,,,,,,,,,,,Y,160,hexagon,1,0,,3,,,,,,,,,,,,,,switch,letter,lettSwt,f,0.7813,vtsPrac,26,0,26,0,1,,,,,,,,,,,,,,,,,,,,,,,
293488,2022-11-14_10h46.08.390,vts_reward_expectancy_bt,2022.2.4,Win32,59.82292414,Chrome,1280,800,,,,,0,612,,,,,,,,,,,,,,,,,W,167,circle,1,0,,3,,,,,,,,,,,,,,switch,number,numSwt,k,1.5487,vtsPrac,27,0,27,0,1,,,,,,,,,,,,,,,,,,,,,,,
293488,2022-11-14_10h46.08.390,vts_reward_expectancy_bt,2022.2.4,Win32,59.82292414,Chrome,1280,800,,,,,0,612,,,,,,,,,,,,,,,,,B,160,circle,1,0,,3,,,,,,,,,,,,,,switch,letter,lettSwt,d,0.7978,vtsPrac,28,0,28,0,1,,,,,,,,,,,,,,,,,,,,,,,
293488,2022-11-14_10h46.08.390,vts_reward_expectancy_bt,2022.2.4,Win32,59.82292414,Chrome,1280,800,,,,,0,612,,,,,,,,,,,,,,,,,S,146,triangle,1,0,,3,,,,,,,,,,,,,,switch,number,numSwt,j,0.6651,vtsPrac,29,0,29,0,1,,,,,,,,,,,,,,,,,,,,,,,
293488,2022-11-14_10h46.08.390,vts_reward_expectancy_bt,2022.2.4,Win32,59.82292414,Chrome,1280,800,,,,,0,612,,,,,,,,,,,,,,,,,U,132,triangle,1,0,,3,,,,,,,,,,,,,,switch,letter,lettSwt,f,1.5329,vtsPrac,30,0,30,0,1,,,,,,,,,,,,,,,,,,,,,,,
293488,2022-11-14_10h46.08.390,vts_reward_expectancy_bt,2022.2.4,Win32,59.82292414,Chrome,1280,800,,,,,0,612,,,,,,,,,,,,,,,,,W,174,star,1,0,,3,,,,,,,,,,,,,,switch,number,numSwt,k,1.3506,vtsPrac,31,0,31,0,1,,,,,,,,,,,,,,,,,,,,,,,
293488,2022-11-14_10h46.08.390,vts_reward_expectancy_bt,2022.2.4,Win32,59.82292414,Chrome,1280,800,,,,,0,612,,,,,,,,,,,,,,,,,B,181,hexagon,1,0,,4,,,,,,,,,,,,,,switch,letter,lettSwt,d,1.714,vtsPrac,0,0,0,0,1,,,,,,,,,,,,,,,,,,,,,,,
293488,2022-11-14_10h46.08.390,vts_reward_expectancy_bt,2022.2.4,Win32,59.82292414,Chrome,1280,800,,,,,0,612,,,,,,,,,,,,,,,,,H,139,circle,1,0,,4,,,,,,,,,,,,,,repeat,letter,lettRpt,d,0.8027,vtsPrac,1,0,1,0,1,,,,,,,,,,,,,,,,,,,,,,,
293488,2022-11-14_10h46.08.390,vts_reward_expectancy_bt,2022.2.4,Win32,59.82292414,Chrome,1280,800,,,,,0,612,,,,,,,,,,,,,,,,,F,160,hexagon,1,0,,4,,,,,,,,,,,,,,repeat,letter,lettRpt,d,0.7688,vtsPrac,2,0,2,0,1,,,,,,,,,,,,,,,,,,,,,,,
293488,2022-11-14_10h46.08.390,vts_reward_expectancy_bt,2022.2.4,Win32,59.82292414,Chrome,1280,800,,,,,0,612,,,,,,,,,,,,,,,,,Y,132,circle,1,0,,4,,,,,,,,,,,,,,repeat,letter,lettRpt,f,0.5825,vtsPrac,3,0,3,0,1,,,,,,,,,,,,,,,,,,,,,,,
293488,2022-11-14_10h46.08.390,vts_reward_expectancy_bt,2022.2.4,Win32,59.82292414,Chrome,1280,800,,,,,0,612,,,,,,,,,,,,,,,,,B,181,hexagon,1,0,,4,,,,,,,,,,,,,,repeat,letter,lettRpt,d,0.5158,vtsPrac,4,0,4,0,1,,,,,,,,,,,,,,,,,,,,,,,
293488,2022-11-14_10h46.08.390,vts_reward_expectancy_bt,2022.2.4,Win32,59.82292414,Chrome,1280,800,,,,,0,612,,,,,,,,,,,,,,,,,H,139,star,1,0,,4,,,,,,,,,,,,,,repeat,letter,lettRpt,d,0.5037,vtsPrac,5,0,5,0,1,,,,,,,,,,,,,,,,,,,,,,,
293488,2022-11-14_10h46.08.390,vts_reward_expectancy_bt,2022.2.4,Win32,59.82292414,Chrome,1280,800,,,,,0,612,,,,,,,,,,,,,,,,,F,160,triangle,1,0,,4,,,,,,,,,,,,,,repeat,letter,lettRpt,d,0.7644,vtsPrac,6,0,6,0,1,,,,,,,,,,,,,,,,,,,,,,,
293488,2022-11-14_10h46.08.390,vts_reward_expectancy_bt,2022.2.4,Win32,59.82292414,Chrome,1280,800,,,,,0,612,,,,,,,,,,,,,,,,,Y,132,hexagon,1,0,,4,,,,,,,,,,,,,,repeat,letter,lettRpt,f,0.5503,vtsPrac,7,0,7,0,1,,,,,,,,,,,,,,,,,,,,,,,
293488,2022-11-14_10h46.08.390,vts_reward_expectancy_bt,2022.2.4,Win32,59.82292414,Chrome,1280,800,,,,,0,612,,,,,,,,,,,,,,,,,H,139,star,1,0,,4,,,,,,,,,,,,,,repeat,letter,lettRpt,d,0.682,vtsPrac,8,0,8,0,1,,,,,,,,,,,,,,,,,,,,,,,
293488,2022-11-14_10h46.08.390,vts_reward_expectancy_bt,2022.2.4,Win32,59.82292414,Chrome,1280,800,,,,,0,612,,,,,,,,,,,,,,,,,F,174,hexagon,1,0,,4,,,,,,,,,,,,,,repeat,letter,lettRpt,d,0.6815,vtsPrac,9,0,9,0,1,,,,,,,,,,,,,,,,,,,,,,,
293488,2022-11-14_10h46.08.390,vts_reward_expectancy_bt,2022.2.4,Win32,59.82292414,Chrome,1280,800,,,,,0,612,,,,,,,,,,,,,,,,,S,132,hexagon,1,0,,4,,,,,,,,,,,,,,repeat,letter,lettRpt,f,0.7328,vtsPrac,10,0,10,0,1,,,,,,,,,,,,,,,,,,,,,,,
293488,2022-11-14_10h46.08.390,vts_reward_expectancy_bt,2022.2.4,Win32,59.82292414,Chrome,1280,800,,,,,0,612,,,,,,,,,,,,,,,,,U,146,star,1,0,,4,,,,,,,,,,,,,,repeat,letter,lettRpt,f,1.2037,vtsPrac,11,0,11,0,1,,,,,,,,,,,,,,,,,,,,,,,
293488,2022-11-14_10h46.08.390,vts_reward_expectancy_bt,2022.2.4,Win32,59.82292414,Chrome,1280,800,,,,,0,612,,,,,,,,,,,,,,,,,U,139,triangle,1,0,,4,,,,,,,,,,,,,,switch,number,numSwt,j,0.6693,vtsPrac,12,0,12,0,1,,,,,,,,,,,,,,,,,,,,,,,
293488,2022-11-14_10h46.08.390,vts_reward_expectancy_bt,2022.2.4,Win32,59.82292414,Chrome,1280,800,,,,,0,612,,,,,,,,,,,,,,,,,D,146,hexagon,1,0,,4,,,,,,,,,,,,,,repeat,number,numRpt,j,0.7653,vtsPrac,13,0,13,0,1,,,,,,,,,,,,,,,,,,,,,,,
293488,2022-11-14_10h46.08.390,vts_reward_expectancy_bt,2022.2.4,Win32,59.82292414,Chrome,1280,800,,,,,0,612,,,,,,,,,,,,,,,,,Y,181,circle,1,0,,4,,,,,,,,,,,,,,repeat,number,numRpt,k,0.4531,vtsPrac,14,0,14,0,1,,,,,,,,,,,,,,,,,,,,,,,
293488,2022-11-14_10h46.08.390,vts_reward_expectancy_bt,2022.2.4,Win32,59.82292414,Chrome,1280,800,,,,,0,612,,,,,,,,,,,,,,,,,W,132,triangle,1,0,,4,,,,,,,,,,,,,,repeat,number,numRpt,j,0.514,vtsPrac,15,0,15,0,1,,,,,,,,,,,,,,,,,,,,,,,
293488,2022-11-14_10h46.08.390,vts_reward_expectancy_bt,2022.2.4,Win32,59.82292414,Chrome,1280,800,,,,,0,612,,,,,,,,,,,,,,,,,Y,146,triangle,1,0,,4,,,,,,,,,,,,,,repeat,number,numRpt,j,0.5485,vtsPrac,16,0,16,0,1,,,,,,,,,,,,,,,,,,,,,,,
293488,2022-11-14_10h46.08.390,vts_reward_expectancy_bt,2022.2.4,Win32,59.82292414,Chrome,1280,800,,,,,0,612,,,,,,,,,,,,,,,,,S,167,circle,1,0,,4,,,,,,,,,,,,,,repeat,number,numRpt,k,0.513,vtsPrac,17,0,17,0,1,,,,,,,,,,,,,,,,,,,,,,,
293488,2022-11-14_10h46.08.390,vts_reward_expectancy_bt,2022.2.4,Win32,59.82292414,Chrome,1280,800,,,,,0,612,,,,,,,,,,,,,,,,,H,181,hexagon,1,0,,4,,,,,,,,,,,,,,repeat,number,numRpt,k,0.5607,vtsPrac,18,0,18,0,1,,,,,,,,,,,,,,,,,,,,,,,
293488,2022-11-14_10h46.08.390,vts_reward_expectancy_bt,2022.2.4,Win32,59.82292414,Chrome,1280,800,,,,,0,612,,,,,,,,,,,,,,,,,D,174,star,1,0,,4,,,,,,,,,,,,,,repeat,number,numRpt,k,0.4817,vtsPrac,19,0,19,0,1,,,,,,,,,,,,,,,,,,,,,,,
293488,2022-11-14_10h46.08.390,vts_reward_expectancy_bt,2022.2.4,Win32,59.82292414,Chrome,1280,800,,,,,0,612,,,,,,,,,,,,,,,,,S,167,triangle,1,0,,4,,,,,,,,,,,,,,repeat,number,numRpt,k,0.4648,vtsPrac,20,0,20,0,1,,,,,,,,,,,,,,,,,,,,,,,
293488,2022-11-14_10h46.08.390,vts_reward_expectancy_bt,2022.2.4,Win32,59.82292414,Chrome,1280,800,,,,,0,612,,,,,,,,,,,,,,,,,B,125,circle,1,0,,4,,,,,,,,,,,,,,repeat,number,numRpt,j,0.4817,vtsPrac,21,0,21,0,1,,,,,,,,,,,,,,,,,,,,,,,
293488,2022-11-14_10h46.08.390,vts_reward_expectancy_bt,2022.2.4,Win32,59.82292414,Chrome,1280,800,,,,,0,612,,,,,,,,,,,,,,,,,D,139,star,1,0,,4,,,,,,,,,,,,,,repeat,number,numRpt,j,0.5983,vtsPrac,22,0,22,0,1,,,,,,,,,,,,,,,,,,,,,,,
293488,2022-11-14_10h46.08.390,vts_reward_expectancy_bt,2022.2.4,Win32,59.82292414,Chrome,1280,800,,,,,0,612,,,,,,,,,,,,,,,,,Y,146,circle,1,0,,4,,,,,,,,,,,,,,repeat,number,numRpt,j,0.8315,vtsPrac,23,0,23,0,1,,,,,,,,,,,,,,,,,,,,,,,
293488,2022-11-14_10h46.08.390,vts_reward_expectancy_bt,2022.2.4,Win32,59.82292414,Chrome,1280,800,,,,,0,612,,,,,,,,,,,,,,,,,S,125,circle,1,0,,4,,,,,,,,,,,,,,repeat,number,numRpt,j,0.5482,vtsPrac,24,0,24,0,1,,,,,,,,,,,,,,,,,,,,,,,
293488,2022-11-14_10h46.08.390,vts_reward_expectancy_bt,2022.2.4,Win32,59.82292414,Chrome,1280,800,,,,,0,612,,,,,,,,,,,,,,,,,H,146,triangle,1,0,,4,,,,,,,,,,,,,,repeat,number,numRpt,j,0.4655,vtsPrac,25,0,25,0,1,,,,,,,,,,,,,,,,,,,,,,,
293488,2022-11-14_10h46.08.390,vts_reward_expectancy_bt,2022.2.4,Win32,59.82292414,Chrome,1280,800,,,,,0,612,,,,,,,,,,,,,,,,,F,132,triangle,1,0,,4,,,,,,,,,,,,,,repeat,number,numRpt,j,1.5535,vtsPrac,26,0,26,0,1,,,,,,,,,,,,,,,,,,,,,,,
293488,2022-11-14_10h46.08.390,vts_reward_expectancy_bt,2022.2.4,Win32,59.82292414,Chrome,1280,800,,,,,0,612,,,,,,,,,,,,,,,,,W,167,circle,1,0,,4,,,,,,,,,,,,,,repeat,number,numRpt,k,0.6,vtsPrac,27,0,27,0,1,,,,,,,,,,,,,,,,,,,,,,,
293488,2022-11-14_10h46.08.390,vts_reward_expectancy_bt,2022.2.4,Win32,59.82292414,Chrome,1280,800,,,,,0,612,,,,,,,,,,,,,,,,,Y,125,star,1,0,,4,,,,,,,,,,,,,,repeat,number,numRpt,j,0.5348,vtsPrac,28,0,28,0,1,,,,,,,,,,,,,,,,,,,,,,,
293488,2022-11-14_10h46.08.390,vts_reward_expectancy_bt,2022.2.4,Win32,59.82292414,Chrome,1280,800,,,,,0,612,,,,,,,,,,,,,,,,,D,167,hexagon,1,0,,4,,,,,,,,,,,,,,repeat,number,numRpt,k,1.0864,vtsPrac,29,0,29,0,1,,,,,,,,,,,,,,,,,,,,,,,
293488,2022-11-14_10h46.08.390,vts_reward_expectancy_bt,2022.2.4,Win32,59.82292414,Chrome,1280,800,,,,,0,612,,,,,,,,,,,,,,,,,S,181,triangle,1,0,,4,,,,,,,,,,,,,,repeat,number,numRpt,k,0.6188,vtsPrac,30,0,30,0,1,,,,,,,,,,,,,,,,,,,,,,,
293488,2022-11-14_10h46.08.390,vts_reward_expectancy_bt,2022.2.4,Win32,59.82292414,Chrome,1280,800,,,,,0,612,,,,,,,,,,,,,,,,,F,146,star,1,0,,4,,,,,,,,,,,,,,switch,letter,lettSwt,d,0.8317,vtsPrac,31,0,31,0,1,,,,,,,,,,,,,,,,,,,,,,,
293488,2022-11-14_10h46.08.390,vts_reward_expectancy_bt,2022.2.4,Win32,59.82292414,Chrome,1280,800,,,,,0,612,,,,,,,,,,,,,,,,,F,174,circle,1,0,,5,,,,,,,,,,,,,,repeat,letter,lettRpt,d,0.7577,vtsPrac,0,0,0,0,1,,,,,,,,,,,,,,,,,,,,,,,
293488,2022-11-14_10h46.08.390,vts_reward_expectancy_bt,2022.2.4,Win32,59.82292414,Chrome,1280,800,,,,,0,612,,,,,,,,,,,,,,,,,U,132,star,1,0,,5,,,,,,,,,,,,,,switch,number,numSwt,j,0.8794,vtsPrac,1,0,1,0,1,,,,,,,,,,,,,,,,,,,,,,,
293488,2022-11-14_10h46.08.390,vts_reward_expectancy_bt,2022.2.4,Win32,59.82292414,Chrome,1280,800,,,,,0,612,,,,,,,,,,,,,,,,,W,139,circle,1,0,,5,,,,,,,,,,,,,,switch,letter,lettSwt,f,0.734,vtsPrac,2,0,2,0,1,,,,,,,,,,,,,,,,,,,,,,,
293488,2022-11-14_10h46.08.390,vts_reward_expectancy_bt,2022.2.4,Win32,59.82292414,Chrome,1280,800,,,,,0,612,,,,,,,,,,,,,,,,,Y,125,star,1,0,,5,,,,,,,,,,,,,,switch,number,numSwt,j,0.9815,vtsPrac,3,0,3,0,1,,,,,,,,,,,,,,,,,,,,,,,
293488,2022-11-14_10h46.08.390,vts_reward_expectancy_bt,2022.2.4,Win32,59.82292414,Chrome,1280,800,,,,,0,612,,,,,,,,,,,,,,,,,F,174,star,1,0,,5,,,,,,,,,,,,,,switch,letter,lettSwt,d,1.5143,vtsPrac,4,0,4,0,1,,,,,,,,,,,,,,,,,,,,,,,
293488,2022-11-14_10h46.08.390,vts_reward_expectancy_bt,2022.2.4,Win32,59.82292414,Chrome,1280,800,,,,,0,612,,,,,,,,,,,,,,,,,U,132,circle,1,0,,5,,,,,,,,,,,,,,switch,number,numSwt,j,1.4475,vtsPrac,5,0,5,0,1,,,,,,,,,,,,,,,,,,,,,,,
293488,2022-11-14_10h46.08.390,vts_reward_expectancy_bt,2022.2.4,Win32,59.82292414,Chrome,1280,800,,,,,0,612,,,,,,,,,,,,,,,,,W,139,circle,1,0,,5,,,,,,,,,,,,,,switch,letter,lettSwt,f,0.8876,vtsPrac,6,0,6,0,1,,,,,,,,,,,,,,,,,,,,,,,
293488,2022-11-14_10h46.08.390,vts_reward_expectancy_bt,2022.2.4,Win32,59.82292414,Chrome,1280,800,,,,,0,612,,,,,,,,,,,,,,,,,Y,125,hexagon,1,0,,5,,,,,,,,,,,,,,switch,number,numSwt,j,1.313,vtsPrac,7,0,7,0,1,,,,,,,,,,,,,,,,,,,,,,,
293488,2022-11-14_10h46.08.390,vts_reward_expectancy_bt,2022.2.4,Win32,59.82292414,Chrome,1280,800,,,,,0,612,,,,,,,,,,,,,,,,,F,181,triangle,1,0,,5,,,,,,,,,,,,,,switch,letter,lettSwt,d,0.6315,vtsPrac,8,0,8,0,1,,,,,,,,,,,,,,,,,,,,,,,
293488,2022-11-14_10h46.08.390,vts_reward_expectancy_bt,2022.2.4,Win32,59.82292414,Chrome,1280,800,,,,,0,612,,,,,,,,,,,,,,,,,S,160,hexagon,1,0,,5,,,,,,,,,,,,,,switch,number,numSwt,k,1.0156,vtsPrac,9,0,9,0,1,,,,,,,,,,,,,,,,,,,,,,,
293488,2022-11-14_10h46.08.390,vts_reward_expectancy_bt,2022.2.4,Win32,59.82292414,Chrome,1280,800,,,,,0,612,,,,,,,,,,,,,,,,,W,132,star,1,0,,5,,,,,,,,,,,,,,switch,letter,lettSwt,f,0.9977,vtsPrac,10,0,10,0,1,,,,,,,,,,,,,,,,,,,,,,,
293488,2022-11-14_10h46.08.390,vts_reward_expectancy_bt,2022.2.4,Win32,59.82292414,Chrome,1280,800,,,,,0,612,,,,,,,,,,,,,,,,,Y,139,hexagon,1,0,,5,,,,,,,,,,,,,,switch,number,numSwt,j,0.816,vtsPrac,11,0,11,0,1,,,,,,,,,,,,,,,,,,,,,,,
293488,2022-11-14_10h46.08.390,vts_reward_expectancy_bt,2022.2.4,Win32,59.82292414,Chrome,1280,800,,,,,0,612,,,,,,,,,,,,,,,,,F,132,star,1,0,,5,,,,,,,,,,,,,,switch,letter,lettSwt,d,1.189,vtsPrac,12,0,12,0,1,,,,,,,,,,,,,,,,,,,,,,,
293488,2022-11-14_10h46.08.390,vts_reward_expectancy_bt,2022.2.4,Win32,59.82292414,Chrome,1280,800,,,,,0,612,,,,,,,,,,,,,,,,,U,139,hexagon,1,0,,5,,,,,,,,,,,,,,repeat,letter,lettRpt,f,1.9331,vtsPrac,13,0,13,0,1,,,,,,,,,,,,,,,,,,,,,,,
293488,2022-11-14_10h46.08.390,vts_reward_expectancy_bt,2022.2.4,Win32,59.82292414,Chrome,1280,800,,,,,0,612,,,,,,,,,,,,,,,,,Y,167,circle,1,0,,5,,,,,,,,,,,,,,switch,number,numSwt,k,0.8308,vtsPrac,14,0,14,0,1,,,,,,,,,,,,,,,,,,,,,,,
293488,2022-11-14_10h46.08.390,vts_reward_expectancy_bt,2022.2.4,Win32,59.82292414,Chrome,1280,800,,,,,0,612,,,,,,,,,,,,,,,,,W,146,star,1,0,,5,,,,,,,,,,,,,,repeat,number,numRpt,j,1.7152,vtsPrac,15,0,15,0,1,,,,,,,,,,,,,,,,,,,,,,,
293488,2022-11-14_10h46.08.390,vts_reward_expectancy_bt,2022.2.4,Win32,59.82292414,Chrome,1280,800,,,,,0,612,,,,,,,,,,,,,,,,,F,181,hexagon,1,0,,5,,,,,,,,,,,,,,switch,letter,lettSwt,d,1.0156,vtsPrac,16,0,16,0,1,,,,,,,,,,,,,,,,,,,,,,,
293488,2022-11-14_10h46.08.390,vts_reward_expectancy_bt,2022.2.4,Win32,59.82292414,Chrome,1280,800,,,,,0,612,,,,,,,,,,,,,,,,,W,146,star,1,0,,5,,,,,,,,,,,,,,switch,number,numSwt,j,0.8039,vtsPrac,17,0,17,0,1,,,,,,,,,,,,,,,,,,,,,,,
293488,2022-11-14_10h46.08.390,vts_reward_expectancy_bt,2022.2.4,Win32,59.82292414,Chrome,1280,800,,,,,0,612,,,,,,,,,,,,,,,,,S,132,circle,1,0,,5,,,,,,,,,,,,,,switch,letter,lettSwt,f,1.4189,vtsPrac,18,0,18,0,1,,,,,,,,,,,,,,,,,,,,,,,
293488,2022-11-14_10h46.08.390,vts_reward_expectancy_bt,2022.2.4,Win32,59.82292414,Chrome,1280,800,,,,,0,612,,,,,,,,,,,,,,,,,H,167,triangle,1,0,,5,,,,,,,,,,,,,,switch,number,numSwt,k,2.2976,vtsPrac,19,0,19,0,1,,,,,,,,,,,,,,,,,,,,,,,
293488,2022-11-14_10h46.08.390,vts_reward_expectancy_bt,2022.2.4,Win32,59.82292414,Chrome,1280,800,,,,,0,612,,,,,,,,,,,,,,,,,B,181,hexagon,1,0,,5,,,,,,,,,,,,,,switch,letter,lettSwt,d,0.9192,vtsPrac,20,0,20,0,1,,,,,,,,,,,,,,,,,,,,,,,
293488,2022-11-14_10h46.08.390,vts_reward_expectancy_bt,2022.2.4,Win32,59.82292414,Chrome,1280,800,,,,,0,612,,,,,,,,,,,,,,,,,F,139,star,1,0,,5,,,,,,,,,,,,,,repeat,letter,lettRpt,d,1.2791,vtsPrac,21,0,21,0,1,,,,,,,,,,,,,,,,,,,,,,,
293488,2022-11-14_10h46.08.390,vts_reward_expectancy_bt,2022.2.4,Win32,59.82292414,Chrome,1280,800,,,,,0,612,,,,,,,,,,,,,,,,,D,125,circle,1,0,,5,,,,,,,,,,,,,,switch,number,numSwt,j,1.0034,vtsPrac,22,0,22,0,1,,,,,,,,,,,,,,,,,,,,,,,
293488,2022-11-14_10h46.08.390,vts_reward_expectancy_bt,2022.2.4,Win32,59.82292414,Chrome,1280,800,,,,,0,612,,,,,,,,,,,,,,,,,S,132,star,0,0,,5,,,,,,,,,,,,,,repeat,number,NA,k,1.6849,vtsPrac,23,0,23,0,1,,,,,,,,,,,,,,,,,,,,,,,
293488,2022-11-14_10h46.08.390,vts_reward_expectancy_bt,2022.2.4,Win32,59.82292414,Chrome,1280,800,,,,,0,612,,,,,,,,,,,,,,,,,Y,132,circle,1,1,,5,,,,,,,,,,,,,,repeat,number,numRpt,j,1.149,vtsPrac,24,0,24,0,1,,,,,,,,,,,,,,,,,,,,,,,
293488,2022-11-14_10h46.08.390,vts_reward_expectancy_bt,2022.2.4,Win32,59.82292414,Chrome,1280,800,,,,,0,612,,,,,,,,,,,,,,,,,D,167,hexagon,1,0,,5,,,,,,,,,,,,,,switch,letter,lettSwt,d,1.3282,vtsPrac,25,0,25,0,1,,,,,,,,,,,,,,,,,,,,,,,
293488,2022-11-14_10h46.08.390,vts_reward_expectancy_bt,2022.2.4,Win32,59.82292414,Chrome,1280,800,,,,,0,612,,,,,,,,,,,,,,,,,B,181,star,1,0,,5,,,,,,,,,,,,,,repeat,letter,lettRpt,d,0.9024,vtsPrac,26,0,26,0,1,,,,,,,,,,,,,,,,,,,,,,,
293488,2022-11-14_10h46.08.390,vts_reward_expectancy_bt,2022.2.4,Win32,59.82292414,Chrome,1280,800,,,,,0,612,,,,,,,,,,,,,,,,,W,174,triangle,1,0,,5,,,,,,,,,,,,,,repeat,letter,lettRpt,f,1.1165,vtsPrac,27,0,27,0,1,,,,,,,,,,,,,,,,,,,,,,,
293488,2022-11-14_10h46.08.390,vts_reward_expectancy_bt,2022.2.4,Win32,59.82292414,Chrome,1280,800,,,,,0,612,,,,,,,,,,,,,,,,,U,146,star,1,0,,5,,,,,,,,,,,,,,switch,number,numSwt,j,0.9499,vtsPrac,28,0,28,0,1,,,,,,,,,,,,,,,,,,,,,,,
293488,2022-11-14_10h46.08.390,vts_reward_expectancy_bt,2022.2.4,Win32,59.82292414,Chrome,1280,800,,,,,0,612,,,,,,,,,,,,,,,,,Y,160,circle,-1,0,,5,,,,,,,,,,,,,,switch,no_choice,NA,,,vtsPrac,29,0,29,0,1,,,,,,,,,,,,,,,,,,,,,,,
293488,2022-11-14_10h46.08.390,vts_reward_expectancy_bt,2022.2.4,Win32,59.82292414,Chrome,1280,800,,,,,0,612,,,,,,,,,,,,,,,,,D,125,circle,1,0,,5,,,,,,,,,,,,,,switch,number,numSwt,j,0.8321,vtsPrac,30,0,30,0,1,,,,,,,,,,,,,,,,,,,,,,,
293488,2022-11-14_10h46.08.390,vts_reward_expectancy_bt,2022.2.4,Win32,59.82292414,Chrome,1280,800,,,,,0,612,,,,,,,,,,,,,,,,,H,139,triangle,1,0,,5,,,,,,,,,,,,,,repeat,number,numRpt,j,0.7818,vtsPrac,31,0,31,0,1,,,,,,,,,,,,,,,,,,,,,,,
293488,2022-11-14_10h46.08.390,vts_reward_expectancy_bt,2022.2.4,Win32,59.82292414,Chrome,1280,800,,,,,,,,,,,,,,,,,,,,,,,,,,,,,,,,,,,,,,,,,,,,,,,,,,,,,,,,,,,,,,,,,,,,,,,,,,,,
293488,2022-11-14_10h46.08.390,vts_reward_expectancy_bt,2022.2.4,Win32,59.82292414,Chrome,1280,800,,,,,,,,,,,,,,,,,,,,,,,,,,,,,,,,,,,,,,,,,,,,,,,,,,,,,,,,,,,,,,,,,,,,,,,,,,,,
293488,2022-11-14_10h46.08.390,vts_reward_expectancy_bt,2022.2.4,Win32,59.82292414,Chrome,1280,800,,,,,0,612,,,,,,,,,,,,,,,,,H,160,star,0,0,,,,,,,,,,,,,,,,repeat,number,NA,j,1.2816,noRew,,,,,,0,0,0,0,0,1,,,,,,,,,,,,,,,,,
293488,2022-11-14_10h46.08.390,vts_reward_expectancy_bt,2022.2.4,Win32,59.82292414,Chrome,1280,800,,,,,0,612,,,,,,,,,,,,,,,,,S,146,triangle,1,1,,,,,,,,,,,,,,,,repeat,number,numRpt,j,0.4295,noRew,,,,,,0,1,0,1,0,1,,,,,,,,,,,,,,,,,
293488,2022-11-14_10h46.08.390,vts_reward_expectancy_bt,2022.2.4,Win32,59.82292414,Chrome,1280,800,,,,,0,612,,,,,,,,,,,,,,,,,Y,181,star,1,0,,,,,,,,,,,,,,,,switch,letter,lettSwt,f,0.5961,noRew,,,,,,0,2,0,2,0,1,,,,,,,,,,,,,,,,,
293488,2022-11-14_10h46.08.390,vts_reward_expectancy_bt,2022.2.4,Win32,59.82292414,Chrome,1280,800,,,,,0,612,,,,,,,,,,,,,,,,,D,132,triangle,1,0,,,,,,,,,,,,,,,,switch,number,numSwt,j,0.6357,noRew,,,,,,0,3,0,3,0,1,,,,,,,,,,,,,,,,,
293488,2022-11-14_10h46.08.390,vts_reward_expectancy_bt,2022.2.4,Win32,59.82292414,Chrome,1280,800,,,,,0,612,,,,,,,,,,,,,,,,,H,160,triangle,0,0,,,,,,,,,,,,,,,,repeat,number,NA,j,0.8829,noRew,,,,,,0,4,0,4,0,1,,,,,,,,,,,,,,,,,
293488,2022-11-14_10h46.08.390,vts_reward_expectancy_bt,2022.2.4,Win32,59.82292414,Chrome,1280,800,,,,,0,612,,,,,,,,,,,,,,,,,S,146,star,0,1,,,,,,,,,,,,,,,,switch,letter,NA,d,1.239,noRew,,,,,,0,5,0,5,0,1,,,,,,,,,,,,,,,,,
293488,2022-11-14_10h46.08.390,vts_reward_expectancy_bt,2022.2.4,Win32,59.82292414,Chrome,1280,800,,,,,0,612,,,,,,,,,,,,,,,,,Y,181,triangle,1,1,,,,,,,,,,,,,,,,repeat,letter,lettRpt,f,0.7305,noRew,,,,,,0,6,0,6,0,1,,,,,,,,,,,,,,,,,
293488,2022-11-14_10h46.08.390,vts_reward_expectancy_bt,2022.2.4,Win32,59.82292414,Chrome,1280,800,,,,,0,612,,,,,,,,,,,,,,,,,D,132,star,1,0,,,,,,,,,,,,,,,,repeat,letter,lettRpt,d,0.7475,noRew,,,,,,0,7,0,7,0,1,,,,,,,,,,,,,,,,,
293488,2022-11-14_10h46.08.390,vts_reward_expectancy_bt,2022.2.4,Win32,59.82292414,Chrome,1280,800,,,,,0,612,,,,,,,,,,,,,,,,,W,146,circle,1,0,,,,,,,,,,,,,,,,repeat,letter,lettRpt,f,1.8343,noRew,,,,,,0,8,0,8,0,1,,,,,,,,,,,,,,,,,
293488,2022-11-14_10h46.08.390,vts_reward_expectancy_bt,2022.2.4,Win32,59.82292414,Chrome,1280,800,,,,,0,612,,,,,,,,,,,,,,,,,U,167,triangle,1,0,,,,,,,,,,,,,,,,switch,number,numSwt,k,1.1317,noRew,,,,,,0,9,0,9,0,1,,,,,,,,,,,,,,,,,
293488,2022-11-14_10h46.08.390,vts_reward_expectancy_bt,2022.2.4,Win32,59.82292414,Chrome,1280,800,,,,,0,612,,,,,,,,,,,,,,,,,S,139,triangle,1,0,,,,,,,,,,,,,,,,repeat,number,numRpt,j,1.6382,noRew,,,,,,0,10,0,10,0,1,,,,,,,,,,,,,,,,,
293488,2022-11-14_10h46.08.390,vts_reward_expectancy_bt,2022.2.4,Win32,59.82292414,Chrome,1280,800,,,,,0,612,,,,,,,,,,,,,,,,,F,181,circle,1,0,,,,,,,,,,,,,,,,repeat,number,numRpt,k,1.0515,noRew,,,,,,0,11,0,11,0,1,,,,,,,,,,,,,,,,,
293488,2022-11-14_10h46.08.390,vts_reward_expectancy_bt,2022.2.4,Win32,59.82292414,Chrome,1280,800,,,,,0,612,,,,,,,,,,,,,,,,,D,146,triangle,1,0,,,,,,,,,,,,,,,,switch,letter,lettSwt,d,1.1547,noRew,,,,,,0,12,0,12,0,1,,,,,,,,,,,,,,,,,
293488,2022-11-14_10h46.08.390,vts_reward_expectancy_bt,2022.2.4,Win32,59.82292414,Chrome,1280,800,,,,,0,612,,,,,,,,,,,,,,,,,H,167,star,1,0,,,,,,,,,,,,,,,,repeat,letter,lettRpt,d,1.053,noRew,,,,,,0,13,0,13,0,1,,,,,,,,,,,,,,,,,
293488,2022-11-14_10h46.08.390,vts_reward_expectancy_bt,2022.2.4,Win32,59.82292414,Chrome,1280,800,,,,,0,612,,,,,,,,,,,,,,,,,F,125,hexagon,1,0,,,,,,,,,,,,,,,,repeat,letter,lettRpt,d,0.9263,noRew,,,,,,0,14,0,14,0,1,,,,,,,,,,,,,,,,,
293488,2022-11-14_10h46.08.390,vts_reward_expectancy_bt,2022.2.4,Win32,59.82292414,Chrome,1280,800,,,,,0,612,,,,,,,,,,,,,,,,,W,181,triangle,1,0,,,,,,,,,,,,,,,,repeat,letter,lettRpt,f,1.0317,noRew,,,,,,0,15,0,15,0,1,,,,,,,,,,,,,,,,,
293488,2022-11-14_10h46.08.390,vts_reward_expectancy_bt,2022.2.4,Win32,59.82292414,Chrome,1280,800,,,,,0,612,,,,,,,,,,,,,,,,,D,132,circle,1,0,,,,,,,,,,,,,,,,repeat,letter,lettRpt,d,1.097,noRew,,,,,,0,16,0,16,0,1,,,,,,,,,,,,,,,,,
293488,2022-11-14_10h46.08.390,vts_reward_expectancy_bt,2022.2.4,Win32,59.82292414,Chrome,1280,800,,,,,0,612,,,,,,,,,,,,,,,,,W,139,hexagon,1,0,,,,,,,,,,,,,,,,switch,number,numSwt,j,1.2359,noRew,,,,,,0,17,0,17,0,1,,,,,,,,,,,,,,,,,
293488,2022-11-14_10h46.08.390,vts_reward_expectancy_bt,2022.2.4,Win32,59.82292414,Chrome,1280,800,,,,,0,612,,,,,,,,,,,,,,,,,B,167,circle,1,0,,,,,,,,,,,,,,,,repeat,number,numRpt,k,0.7023,noRew,,,,,,0,18,0,18,0,1,,,,,,,,,,,,,,,,,
293488,2022-11-14_10h46.08.390,vts_reward_expectancy_bt,2022.2.4,Win32,59.82292414,Chrome,1280,800,,,,,0,612,,,,,,,,,,,,,,,,,S,174,hexagon,1,0,,,,,,,,,,,,,,,,repeat,number,numRpt,k,0.6015,noRew,,,,,,0,19,0,19,0,1,,,,,,,,,,,,,,,,,
293488,2022-11-14_10h46.08.390,vts_reward_expectancy_bt,2022.2.4,Win32,59.82292414,Chrome,1280,800,,,,,0,612,,,,,,,,,,,,,,,,,D,174,circle,1,0,,,,,,,,,,,,,,,,repeat,number,numRpt,k,0.6034,noRew,,,,,,0,20,0,20,0,1,,,,,,,,,,,,,,,,,
293488,2022-11-14_10h46.08.390,vts_reward_expectancy_bt,2022.2.4,Win32,59.82292414,Chrome,1280,800,,,,,0,612,,,,,,,,,,,,,,,,,H,125,hexagon,1,0,,,,,,,,,,,,,,,,repeat,number,numRpt,j,0.5642,noRew,,,,,,0,21,0,21,0,1,,,,,,,,,,,,,,,,,
293488,2022-11-14_10h46.08.390,vts_reward_expectancy_bt,2022.2.4,Win32,59.82292414,Chrome,1280,800,,,,,0,612,,,,,,,,,,,,,,,,,Y,181,triangle,1,0,,,,,,,,,,,,,,,,repeat,number,numRpt,k,0.7637,noRew,,,,,,0,22,0,22,0,1,,,,,,,,,,,,,,,,,
293488,2022-11-14_10h46.08.390,vts_reward_expectancy_bt,2022.2.4,Win32,59.82292414,Chrome,1280,800,,,,,0,612,,,,,,,,,,,,,,,,,U,146,circle,1,0,,,,,,,,,,,,,,,,repeat,number,numRpt,j,0.7336,noRew,,,,,,0,23,0,23,0,1,,,,,,,,,,,,,,,,,
293488,2022-11-14_10h46.08.390,vts_reward_expectancy_bt,2022.2.4,Win32,59.82292414,Chrome,1280,800,,,,,0,612,,,,,,,,,,,,,,,,,B,125,triangle,1,0,,,,,,,,,,,,,,,,switch,letter,lettSwt,d,0.8311,noRew,,,,,,0,24,0,24,0,1,,,,,,,,,,,,,,,,,
293488,2022-11-14_10h46.08.390,vts_reward_expectancy_bt,2022.2.4,Win32,59.82292414,Chrome,1280,800,,,,,0,612,,,,,,,,,,,,,,,,,Y,160,star,1,0,,,,,,,,,,,,,,,,repeat,letter,lettRpt,f,0.7198,noRew,,,,,,0,25,0,25,0,1,,,,,,,,,,,,,,,,,
293488,2022-11-14_10h46.08.390,vts_reward_expectancy_bt,2022.2.4,Win32,59.82292414,Chrome,1280,800,,,,,0,612,,,,,,,,,,,,,,,,,F,167,star,1,0,,,,,,,,,,,,,,,,repeat,letter,lettRpt,d,0.9681,noRew,,,,,,0,26,0,26,0,1,,,,,,,,,,,,,,,,,
293488,2022-11-14_10h46.08.390,vts_reward_expectancy_bt,2022.2.4,Win32,59.82292414,Chrome,1280,800,,,,,0,612,,,,,,,,,,,,,,,,,S,181,triangle,1,0,,,,,,,,,,,,,,,,repeat,letter,lettRpt,f,0.8767,noRew,,,,,,0,27,0,27,0,1,,,,,,,,,,,,,,,,,
293488,2022-11-14_10h46.08.390,vts_reward_expectancy_bt,2022.2.4,Win32,59.82292414,Chrome,1280,800,,,,,0,612,,,,,,,,,,,,,,,,,W,146,circle,1,0,,,,,,,,,,,,,,,,repeat,letter,lettRpt,f,0.6661,noRew,,,,,,0,28,0,28,0,1,,,,,,,,,,,,,,,,,
293488,2022-11-14_10h46.08.390,vts_reward_expectancy_bt,2022.2.4,Win32,59.82292414,Chrome,1280,800,,,,,0,612,,,,,,,,,,,,,,,,,S,167,star,1,0,,,,,,,,,,,,,,,,repeat,letter,lettRpt,f,0.6631,noRew,,,,,,0,29,0,29,0,1,,,,,,,,,,,,,,,,,
293488,2022-11-14_10h46.08.390,vts_reward_expectancy_bt,2022.2.4,Win32,59.82292414,Chrome,1280,800,,,,,0,612,,,,,,,,,,,,,,,,,H,160,triangle,1,0,,,,,,,,,,,,,,,,repeat,letter,lettRpt,d,0.7231,noRew,,,,,,0,30,0,30,0,1,,,,,,,,,,,,,,,,,
293488,2022-11-14_10h46.08.390,vts_reward_expectancy_bt,2022.2.4,Win32,59.82292414,Chrome,1280,800,,,,,0,612,,,,,,,,,,,,,,,,,F,174,star,1,0,,,,,,,,,,,,,,,,switch,number,numSwt,k,0.7371,noRew,,,,,,0,31,0,31,0,1,,,,,,,,,,,,,,,,,
293488,2022-11-14_10h46.08.390,vts_reward_expectancy_bt,2022.2.4,Win32,59.82292414,Chrome,1280,800,,,,,0,612,,,,,,,,,,,,,,,,,B,181,hexagon,1,0,,,,,,,,,,,,,,,,repeat,number,numRpt,k,0.5217,noRew,,,,,,0,32,0,32,0,1,,,,,,,,,,,,,,,,,
293488,2022-11-14_10h46.08.390,vts_reward_expectancy_bt,2022.2.4,Win32,59.82292414,Chrome,1280,800,,,,,0,612,,,,,,,,,,,,,,,,,H,167,star,1,0,,,,,,,,,,,,,,,,repeat,number,numRpt,k,0.6853,noRew,,,,,,0,33,0,33,0,1,,,,,,,,,,,,,,,,,
293488,2022-11-14_10h46.08.390,vts_reward_expectancy_bt,2022.2.4,Win32,59.82292414,Chrome,1280,800,,,,,0,612,,,,,,,,,,,,,,,,,F,146,hexagon,1,0,,,,,,,,,,,,,,,,repeat,number,numRpt,j,1.582,noRew,,,,,,0,34,0,34,0,1,,,,,,,,,,,,,,,,,
293488,2022-11-14_10h46.08.390,vts_reward_expectancy_bt,2022.2.4,Win32,59.82292414,Chrome,1280,800,,,,,0,612,,,,,,,,,,,,,,,,,S,174,triangle,1,0,,,,,,,,,,,,,,,,repeat,number,numRpt,k,0.5205,noRew,,,,,,0,35,0,35,0,1,,,,,,,,,,,,,,,,,
293488,2022-11-14_10h46.08.390,vts_reward_expectancy_bt,2022.2.4,Win32,59.82292414,Chrome,1280,800,,,,,0,612,,,,,,,,,,,,,,,,,F,174,hexagon,1,0,,,,,,,,,,,,,,,,repeat,number,numRpt,k,0.6815,noRew,,,,,,0,36,0,36,0,1,,,,,,,,,,,,,,,,,
293488,2022-11-14_10h46.08.390,vts_reward_expectancy_bt,2022.2.4,Win32,59.82292414,Chrome,1280,800,,,,,0,612,,,,,,,,,,,,,,,,,B,125,circle,1,0,,,,,,,,,,,,,,,,repeat,number,numRpt,j,0.5668,noRew,,,,,,0,37,0,37,0,1,,,,,,,,,,,,,,,,,
293488,2022-11-14_10h46.08.390,vts_reward_expectancy_bt,2022.2.4,Win32,59.82292414,Chrome,1280,800,,,,,0,612,,,,,,,,,,,,,,,,,S,167,star,0,0,,,,,,,,,,,,,,,,repeat,number,NA,j,0.6624,noRew,,,,,,0,38,0,38,0,1,,,,,,,,,,,,,,,,,
293488,2022-11-14_10h46.08.390,vts_reward_expectancy_bt,2022.2.4,Win32,59.82292414,Chrome,1280,800,,,,,0,612,,,,,,,,,,,,,,,,,U,139,triangle,1,1,,,,,,,,,,,,,,,,repeat,number,numRpt,j,0.7667,noRew,,,,,,0,39,0,39,0,1,,,,,,,,,,,,,,,,,
293488,2022-11-14_10h46.08.390,vts_reward_expectancy_bt,2022.2.4,Win32,59.82292414,Chrome,1280,800,,,,,0,612,,,,,,,,,,,,,,,,,H,174,hexagon,1,0,,,,,,,,,,,,,,,,repeat,number,numRpt,k,0.6819,noRew,,,,,,0,40,0,40,0,1,,,,,,,,,,,,,,,,,
293488,2022-11-14_10h46.08.390,vts_reward_expectancy_bt,2022.2.4,Win32,59.82292414,Chrome,1280,800,,,,,0,612,,,,,,,,,,,,,,,,,U,160,star,1,0,,,,,,,,,,,,,,,,switch,letter,lettSwt,f,1.2347,noRew,,,,,,0,41,0,41,0,1,,,,,,,,,,,,,,,,,
293488,2022-11-14_10h46.08.390,vts_reward_expectancy_bt,2022.2.4,Win32,59.82292414,Chrome,1280,800,,,,,0,612,,,,,,,,,,,,,,,,,Y,139,triangle,1,0,,,,,,,,,,,,,,,,repeat,letter,lettRpt,f,1.1199,noRew,,,,,,0,42,0,42,0,1,,,,,,,,,,,,,,,,,
293488,2022-11-14_10h46.08.390,vts_reward_expectancy_bt,2022.2.4,Win32,59.82292414,Chrome,1280,800,,,,,0,612,,,,,,,,,,,,,,,,,S,167,circle,1,0,,,,,,,,,,,,,,,,repeat,letter,lettRpt,f,0.8351,noRew,,,,,,0,43,0,43,0,1,,,,,,,,,,,,,,,,,
293488,2022-11-14_10h46.08.390,vts_reward_expectancy_bt,2022.2.4,Win32,59.82292414,Chrome,1280,800,,,,,0,612,,,,,,,,,,,,,,,,,Y,146,star,1,0,,,,,,,,,,,,,,,,repeat,letter,lettRpt,f,0.7637,noRew,,,,,,0,44,0,44,0,1,,,,,,,,,,,,,,,,,
293488,2022-11-14_10h46.08.390,vts_reward_expectancy_bt,2022.2.4,Win32,59.82292414,Chrome,1280,800,,,,,0,612,,,,,,,,,,,,,,,,,B,160,triangle,1,0,,,,,,,,,,,,,,,,repeat,letter,lettRpt,d,0.6797,noRew,,,,,,0,45,0,45,0,1,,,,,,,,,,,,,,,,,
293488,2022-11-14_10h46.08.390,vts_reward_expectancy_bt,2022.2.4,Win32,59.82292414,Chrome,1280,800,,,,,0,612,,,,,,,,,,,,,,,,,S,139,hexagon,1,0,,,,,,,,,,,,,,,,repeat,letter,lettRpt,f,1.2359,noRew,,,,,,0,46,0,46,0,1,,,,,,,,,,,,,,,,,
293488,2022-11-14_10h46.08.390,vts_reward_expectancy_bt,2022.2.4,Win32,59.82292414,Chrome,1280,800,,,,,0,612,,,,,,,,,,,,,,,,,W,174,star,1,0,,,,,,,,,,,,,,,,repeat,letter,lettRpt,f,0.7191,noRew,,,,,,0,47,0,47,0,1,,,,,,,,,,,,,,,,,
293488,2022-11-14_10h46.08.390,vts_reward_expectancy_bt,2022.2.4,Win32,59.82292414,Chrome,1280,800,,,,,0,612,,,,,,,,,,,,,,,,,F,181,triangle,1,0,,,,,,,,,,,,,,,,repeat,letter,lettRpt,d,1.502,noRew,,,,,,0,48,0,48,0,1,,,,,,,,,,,,,,,,,
293488,2022-11-14_10h46.08.390,vts_reward_expectancy_bt,2022.2.4,Win32,59.82292414,Chrome,1280,800,,,,,0,612,,,,,,,,,,,,,,,,,Y,132,circle,1,0,,,,,,,,,,,,,,,,repeat,letter,lettRpt,f,0.7824,noRew,,,,,,0,49,0,49,0,1,,,,,,,,,,,,,,,,,
293488,2022-11-14_10h46.08.390,vts_reward_expectancy_bt,2022.2.4,Win32,59.82292414,Chrome,1280,800,,,,,0,612,,,,,,,,,,,,,,,,,U,167,triangle,1,0,,,,,,,,,,,,,,,,repeat,letter,lettRpt,f,1.2832,noRew,,,,,,0,50,0,50,0,1,,,,,,,,,,,,,,,,,
293488,2022-11-14_10h46.08.390,vts_reward_expectancy_bt,2022.2.4,Win32,59.82292414,Chrome,1280,800,,,,,0,612,,,,,,,,,,,,,,,,,S,139,circle,1,0,,,,,,,,,,,,,,,,switch,number,numSwt,j,1.6868,noRew,,,,,,0,51,0,51,0,1,,,,,,,,,,,,,,,,,
293488,2022-11-14_10h46.08.390,vts_reward_expectancy_bt,2022.2.4,Win32,59.82292414,Chrome,1280,800,,,,,0,612,,,,,,,,,,,,,,,,,Y,125,star,1,0,,,,,,,,,,,,,,,,repeat,number,numRpt,j,1.5364,noRew,,,,,,0,52,0,52,0,1,,,,,,,,,,,,,,,,,
293488,2022-11-14_10h46.08.390,vts_reward_expectancy_bt,2022.2.4,Win32,59.82292414,Chrome,1280,800,,,,,0,612,,,,,,,,,,,,,,,,,B,132,circle,1,0,,,,,,,,,,,,,,,,repeat,number,numRpt,j,1.1168,noRew,,,,,,0,53,0,53,0,1,,,,,,,,,,,,,,,,,
293488,2022-11-14_10h46.08.390,vts_reward_expectancy_bt,2022.2.4,Win32,59.82292414,Chrome,1280,800,,,,,0,612,,,,,,,,,,,,,,,,,F,146,star,1,0,,,,,,,,,,,,,,,,repeat,number,numRpt,j,1.0649,noRew,,,,,,0,54,0,54,0,1,,,,,,,,,,,,,,,,,
293488,2022-11-14_10h46.08.390,vts_reward_expectancy_bt,2022.2.4,Win32,59.82292414,Chrome,1280,800,,,,,0,612,,,,,,,,,,,,,,,,,H,160,hexagon,1,0,,,,,,,,,,,,,,,,switch,letter,lettSwt,d,1.537,noRew,,,,,,0,55,0,55,0,1,,,,,,,,,,,,,,,,,
293488,2022-11-14_10h46.08.390,vts_reward_expectancy_bt,2022.2.4,Win32,59.82292414,Chrome,1280,800,,,,,0,612,,,,,,,,,,,,,,,,,B,146,star,1,0,,,,,,,,,,,,,,,,repeat,letter,lettRpt,d,0.7316,noRew,,,,,,0,56,0,56,0,1,,,,,,,,,,,,,,,,,
293488,2022-11-14_10h46.08.390,vts_reward_expectancy_bt,2022.2.4,Win32,59.82292414,Chrome,1280,800,,,,,0,612,,,,,,,,,,,,,,,,,D,139,hexagon,1,0,,,,,,,,,,,,,,,,switch,number,numSwt,j,1.1831,noRew,,,,,,0,57,0,57,0,1,,,,,,,,,,,,,,,,,
293488,2022-11-14_10h46.08.390,vts_reward_expectancy_bt,2022.2.4,Win32,59.82292414,Chrome,1280,800,,,,,0,612,,,,,,,,,,,,,,,,,S,125,star,1,0,,,,,,,,,,,,,,,,repeat,number,numRpt,j,1.3525,noRew,,,,,,0,58,0,58,0,1,,,,,,,,,,,,,,,,,
293488,2022-11-14_10h46.08.390,vts_reward_expectancy_bt,2022.2.4,Win32,59.82292414,Chrome,1280,800,,,,,0,612,,,,,,,,,,,,,,,,,Y,167,triangle,1,0,,,,,,,,,,,,,,,,repeat,number,numRpt,k,0.7845,noRew,,,,,,0,59,0,59,0,1,,,,,,,,,,,,,,,,,
293488,2022-11-14_10h46.08.390,vts_reward_expectancy_bt,2022.2.4,Win32,59.82292414,Chrome,1280,800,,,,,0,612,,,,,,,,,,,,,,,,,D,132,triangle,1,0,,,,,,,,,,,,,,,,repeat,number,numRpt,j,0.6926,noRew,,,,,,0,60,0,60,0,1,,,,,,,,,,,,,,,,,
293488,2022-11-14_10h46.08.390,vts_reward_expectancy_bt,2022.2.4,Win32,59.82292414,Chrome,1280,800,,,,,0,612,,,,,,,,,,,,,,,,,U,125,circle,1,0,,,,,,,,,,,,,,,,repeat,number,numRpt,j,0.5664,noRew,,,,,,0,61,0,61,0,1,,,,,,,,,,,,,,,,,
293488,2022-11-14_10h46.08.390,vts_reward_expectancy_bt,2022.2.4,Win32,59.82292414,Chrome,1280,800,,,,,0,612,,,,,,,,,,,,,,,,,B,146,triangle,1,0,,,,,,,,,,,,,,,,repeat,number,numRpt,j,0.7504,noRew,,,,,,0,62,0,62,0,1,,,,,,,,,,,,,,,,,
293488,2022-11-14_10h46.08.390,vts_reward_expectancy_bt,2022.2.4,Win32,59.82292414,Chrome,1280,800,,,,,0,612,,,,,,,,,,,,,,,,,Y,181,circle,1,0,,,,,,,,,,,,,,,,repeat,number,numRpt,k,0.6238,noRew,,,,,,0,63,0,63,0,1,,,,,,,,,,,,,,,,,
293488,2022-11-14_10h46.08.390,vts_reward_expectancy_bt,2022.2.4,Win32,59.82292414,Chrome,1280,800,,,,,,,,,,,,,,,,,,,,,,,,,,,,,,,,,,,,,,,,,,,,,,,,,,,,,,,,,,,,,,,,,,,,,,,,,,,,
293488,2022-11-14_10h46.08.390,vts_reward_expectancy_bt,2022.2.4,Win32,59.82292414,Chrome,1280,800,,,,,0,612,,,,,,,,,,,,,,,,,D,160,triangle,1,0,,,,,,,,,,,,,,,,switch,letter,lettSwt,d,1.2554,Hi,,,,,,0,,,,,,space,10.6115,low,0,0,0,0,1,,,,,,,,,
293488,2022-11-14_10h46.08.390,vts_reward_expectancy_bt,2022.2.4,Win32,59.82292414,Chrome,1280,800,,,,,10,622,,,,,,,,,,,,,,,,,F,125,hexagon,1,0,,,,,,,,,,,,,,,,repeat,letter,lettRpt,d,0.5556,Hi,,,,,,0,,,,,,,,low,1,0,1,0,1,,,,,,,,,
293488,2022-11-14_10h46.08.390,vts_reward_expectancy_bt,2022.2.4,Win32,59.82292414,Chrome,1280,800,,,,,1,623,,,,,,,,,,,,,,,,,H,167,circle,1,0,,,,,,,,,,,,,,,,repeat,letter,lettRpt,d,0.5169,Lo,,,,,,0,,,,,,,,low,2,0,2,0,1,,,,,,,,,
293488,2022-11-14_10h46.08.390,vts_reward_expectancy_bt,2022.2.4,Win32,59.82292414,Chrome,1280,800,,,,,1,624,,,,,,,,,,,,,,,,,B,181,star,1,0,,,,,,,,,,,,,,,,switch,number,numSwt,k,0.7177,Lo,,,,,,0,,,,,,,,low,3,0,3,0,1,,,,,,,,,
293488,2022-11-14_10h46.08.390,vts_reward_expectancy_bt,2022.2.4,Win32,59.82292414,Chrome,1280,800,,,,,10,634,,,,,,,,,,,,,,,,,U,139,triangle,1,0,,,,,,,,,,,,,,,,switch,letter,lettSwt,f,0.5337,Hi,,,,,,0,,,,,,,,low,4,0,4,0,1,,,,,,,,,
293488,2022-11-14_10h46.08.390,vts_reward_expectancy_bt,2022.2.4,Win32,59.82292414,Chrome,1280,800,,,,,1,635,,,,,,,,,,,,,,,,,W,132,hexagon,1,0,,,,,,,,,,,,,,,,switch,number,numSwt,j,0.6892,Hi,,,,,,0,,,,,,,,low,5,0,5,0,1,,,,,,,,,
293488,2022-11-14_10h46.08.390,vts_reward_expectancy_bt,2022.2.4,Win32,59.82292414,Chrome,1280,800,,,,,10,645,,,,,,,,,,,,,,,,,Y,174,circle,1,0,,,,,,,,,,,,,,,,switch,letter,lettSwt,f,0.8339,Lo,,,,,,0,,,,,,,,low,6,0,6,0,1,,,,,,,,,
293488,2022-11-14_10h46.08.390,vts_reward_expectancy_bt,2022.2.4,Win32,59.82292414,Chrome,1280,800,,,,,1,646,,,,,,,,,,,,,,,,,S,146,star,1,0,,,,,,,,,,,,,,,,switch,number,numSwt,j,0.5832,Lo,,,,,,0,,,,,,,,low,7,0,7,0,1,,,,,,,,,
293488,2022-11-14_10h46.08.390,vts_reward_expectancy_bt,2022.2.4,Win32,59.82292414,Chrome,1280,800,,,,,0,646,,,,,,,,,,,,,,,,,D,160,hexagon,0,0,,,,,,,,,,,,,,,,repeat,number,NA,j,0.5615,Lo,,,,,,0,,,,,,,,low,8,0,8,0,1,,,,,,,,,
293488,2022-11-14_10h46.08.390,vts_reward_expectancy_bt,2022.2.4,Win32,59.82292414,Chrome,1280,800,,,,,1,647,,,,,,,,,,,,,,,,,F,125,triangle,1,1,,,,,,,,,,,,,,,,repeat,number,numRpt,j,0.5849,Hi,,,,,,0,,,,,,,,low,9,0,9,0,1,,,,,,,,,
293488,2022-11-14_10h46.08.390,vts_reward_expectancy_bt,2022.2.4,Win32,59.82292414,Chrome,1280,800,,,,,1,648,,,,,,,,,,,,,,,,,H,167,star,1,0,,,,,,,,,,,,,,,,switch,letter,lettSwt,d,0.8047,Lo,,,,,,0,,,,,,,,low,10,0,10,0,1,,,,,,,,,
293488,2022-11-14_10h46.08.390,vts_reward_expectancy_bt,2022.2.4,Win32,59.82292414,Chrome,1280,800,,,,,1,649,,,,,,,,,,,,,,,,,B,181,circle,1,0,,,,,,,,,,,,,,,,switch,number,numSwt,k,0.5461,Lo,,,,,,0,,,,,,,,low,11,0,11,0,1,,,,,,,,,
293488,2022-11-14_10h46.08.390,vts_reward_expectancy_bt,2022.2.4,Win32,59.82292414,Chrome,1280,800,,,,,10,659,,,,,,,,,,,,,,,,,U,139,circle,1,0,,,,,,,,,,,,,,,,switch,letter,lettSwt,f,0.7027,Lo,,,,,,0,,,,,,,,low,12,0,12,0,1,,,,,,,,,
293488,2022-11-14_10h46.08.390,vts_reward_expectancy_bt,2022.2.4,Win32,59.82292414,Chrome,1280,800,,,,,10,669,,,,,,,,,,,,,,,,,W,132,star,1,0,,,,,,,,,,,,,,,,switch,number,numSwt,j,0.6487,Lo,,,,,,0,,,,,,,,low,13,0,13,0,1,,,,,,,,,
293488,2022-11-14_10h46.08.390,vts_reward_expectancy_bt,2022.2.4,Win32,59.82292414,Chrome,1280,800,,,,,0,669,,,,,,,,,,,,,,,,,Y,174,hexagon,1,0,,,,,,,,,,,,,,,,repeat,number,numRpt,k,0.7718,Hi,,,,,,0,,,,,,,,low,14,0,14,0,1,,,,,,,,,
293488,2022-11-14_10h46.08.390,vts_reward_expectancy_bt,2022.2.4,Win32,59.82292414,Chrome,1280,800,,,,,10,679,,,,,,,,,,,,,,,,,S,146,triangle,1,0,,,,,,,,,,,,,,,,repeat,number,numRpt,j,0.5299,Hi,,,,,,0,,,,,,,,low,15,0,15,0,1,,,,,,,,,
293488,2022-11-14_10h46.08.390,vts_reward_expectancy_bt,2022.2.4,Win32,59.82292414,Chrome,1280,800,,,,,10,689,,,,,,,,,,,,,,,,,F,125,hexagon,1,0,,,,,,,,,,,,,,,,switch,letter,lettSwt,d,0.648,Hi,,,,,,0,,,,,,,,low,16,0,16,0,1,,,,,,,,,
293488,2022-11-14_10h46.08.390,vts_reward_expectancy_bt,2022.2.4,Win32,59.82292414,Chrome,1280,800,,,,,10,699,,,,,,,,,,,,,,,,,Y,181,triangle,1,0,,,,,,,,,,,,,,,,switch,number,numSwt,k,0.5283,Hi,,,,,,0,,,,,,,,low,17,0,17,0,1,,,,,,,,,
293488,2022-11-14_10h46.08.390,vts_reward_expectancy_bt,2022.2.4,Win32,59.82292414,Chrome,1280,800,,,,,10,709,,,,,,,,,,,,,,,,,S,132,star,1,0,,,,,,,,,,,,,,,,repeat,number,numRpt,j,0.5696,Lo,,,,,,0,,,,,,,,low,18,0,18,0,1,,,,,,,,,
293488,2022-11-14_10h46.08.390,vts_reward_expectancy_bt,2022.2.4,Win32,59.82292414,Chrome,1280,800,,,,,1,710,,,,,,,,,,,,,,,,,U,167,circle,1,0,,,,,,,,,,,,,,,,switch,letter,lettSwt,f,0.7799,Lo,,,,,,0,,,,,,,,low,19,0,19,0,1,,,,,,,,,
293488,2022-11-14_10h46.08.390,vts_reward_expectancy_bt,2022.2.4,Win32,59.82292414,Chrome,1280,800,,,,,1,711,,,,,,,,,,,,,,,,,W,139,hexagon,1,0,,,,,,,,,,,,,,,,switch,number,numSwt,j,0.5992,Hi,,,,,,0,,,,,,,,low,20,0,20,0,1,,,,,,,,,
293488,2022-11-14_10h46.08.390,vts_reward_expectancy_bt,2022.2.4,Win32,59.82292414,Chrome,1280,800,,,,,1,712,,,,,,,,,,,,,,,,,D,160,triangle,1,0,,,,,,,,,,,,,,,,switch,letter,lettSwt,d,0.7225,Hi,,,,,,0,,,,,,,,low,21,0,21,0,1,,,,,,,,,
293488,2022-11-14_10h46.08.390,vts_reward_expectancy_bt,2022.2.4,Win32,59.82292414,Chrome,1280,800,,,,,1,713,,,,,,,,,,,,,,,,,B,174,star,1,0,,,,,,,,,,,,,,,,switch,number,numSwt,k,0.6143,Lo,,,,,,0,,,,,,,,low,22,0,22,0,1,,,,,,,,,
293488,2022-11-14_10h46.08.390,vts_reward_expectancy_bt,2022.2.4,Win32,59.82292414,Chrome,1280,800,,,,,1,714,,,,,,,,,,,,,,,,,H,146,circle,1,0,,,,,,,,,,,,,,,,repeat,number,numRpt,j,0.5984,Lo,,,,,,0,,,,,,,,low,23,0,23,0,1,,,,,,,,,
293488,2022-11-14_10h46.08.390,vts_reward_expectancy_bt,2022.2.4,Win32,59.82292414,Chrome,1280,800,,,,,0,714,,,,,,,,,,,,,,,,,B,167,hexagon,0,0,,,,,,,,,,,,,,,,repeat,number,NA,j,0.4157,Lo,,,,,,0,,,,,,,,low,24,0,24,0,1,,,,,,,,,
293488,2022-11-14_10h46.08.390,vts_reward_expectancy_bt,2022.2.4,Win32,59.82292414,Chrome,1280,800,,,,,10,724,,,,,,,,,,,,,,,,,U,146,circle,1,1,,,,,,,,,,,,,,,,repeat,number,numRpt,j,0.5818,Lo,,,,,,0,,,,,,,,low,25,0,25,0,1,,,,,,,,,
293488,2022-11-14_10h46.08.390,vts_reward_expectancy_bt,2022.2.4,Win32,59.82292414,Chrome,1280,800,,,,,10,734,,,,,,,,,,,,,,,,,F,160,star,1,0,,,,,,,,,,,,,,,,switch,letter,lettSwt,d,0.7496,Lo,,,,,,0,,,,,,,,low,26,0,26,0,1,,,,,,,,,
293488,2022-11-14_10h46.08.390,vts_reward_expectancy_bt,2022.2.4,Win32,59.82292414,Chrome,1280,800,,,,,0,734,,,,,,,,,,,,,,,,,D,174,triangle,1,0,,,,,,,,,,,,,,,,repeat,letter,lettRpt,d,0.7673,Hi,,,,,,0,,,,,,,,low,27,0,27,0,1,,,,,,,,,
293488,2022-11-14_10h46.08.390,vts_reward_expectancy_bt,2022.2.4,Win32,59.82292414,Chrome,1280,800,,,,,10,744,,,,,,,,,,,,,,,,,H,125,triangle,1,0,,,,,,,,,,,,,,,,repeat,letter,lettRpt,d,0.6228,Hi,,,,,,0,,,,,,,,low,28,0,28,0,1,,,,,,,,,
293488,2022-11-14_10h46.08.390,vts_reward_expectancy_bt,2022.2.4,Win32,59.82292414,Chrome,1280,800,,,,,1,745,,,,,,,,,,,,,,,,,W,181,hexagon,1,0,,,,,,,,,,,,,,,,repeat,letter,lettRpt,f,0.6319,Hi,,,,,,0,,,,,,,,low,29,0,29,0,1,,,,,,,,,
293488,2022-11-14_10h46.08.390,vts_reward_expectancy_bt,2022.2.4,Win32,59.82292414,Chrome,1280,800,,,,,1,746,,,,,,,,,,,,,,,,,S,132,star,1,0,,,,,,,,,,,,,,,,switch,number,numSwt,j,0.5855,Lo,,,,,,0,,,,,,,,low,30,0,30,0,1,,,,,,,,,
293488,2022-11-14_10h46.08.390,vts_reward_expectancy_bt,2022.2.4,Win32,59.82292414,Chrome,1280,800,,,,,1,747,,,,,,,,,,,,,,,,,Y,139,circle,1,0,,,,,,,,,,,,,,,,repeat,number,numRpt,j,0.5514,Lo,,,,,,0,,,,,,,,low,31,0,31,0,1,,,,,,,,,
293488,2022-11-14_10h46.08.390,vts_reward_expectancy_bt,2022.2.4,Win32,59.82292414,Chrome,1280,800,,,,,10,757,,,,,,,,,,,,,,,,,F,174,triangle,1,0,,,,,,,,,,,,,,,,switch,letter,lettSwt,d,0.6575,Hi,,,,,,1,,,,,,space,4.916,low,0,0,0,0,1,,,,,,,,,
293488,2022-11-14_10h46.08.390,vts_reward_expectancy_bt,2022.2.4,Win32,59.82292414,Chrome,1280,800,,,,,10,767,,,,,,,,,,,,,,,,,H,132,hexagon,1,0,,,,,,,,,,,,,,,,switch,number,numSwt,j,0.5468,Hi,,,,,,1,,,,,,,,low,1,0,1,0,1,,,,,,,,,
293488,2022-11-14_10h46.08.390,vts_reward_expectancy_bt,2022.2.4,Win32,59.82292414,Chrome,1280,800,,,,,10,777,,,,,,,,,,,,,,,,,B,160,star,1,0,,,,,,,,,,,,,,,,switch,letter,lettSwt,d,0.6177,Lo,,,,,,1,,,,,,,,low,2,0,2,0,1,,,,,,,,,
293488,2022-11-14_10h46.08.390,vts_reward_expectancy_bt,2022.2.4,Win32,59.82292414,Chrome,1280,800,,,,,1,778,,,,,,,,,,,,,,,,,W,181,circle,1,0,,,,,,,,,,,,,,,,switch,number,numSwt,k,0.5989,Lo,,,,,,1,,,,,,,,low,3,0,3,0,1,,,,,,,,,
293488,2022-11-14_10h46.08.390,vts_reward_expectancy_bt,2022.2.4,Win32,59.82292414,Chrome,1280,800,,,,,10,788,,,,,,,,,,,,,,,,,Y,146,triangle,1,0,,,,,,,,,,,,,,,,switch,letter,lettSwt,f,0.5999,Hi,,,,,,1,,,,,,,,low,4,0,4,0,1,,,,,,,,,
293488,2022-11-14_10h46.08.390,vts_reward_expectancy_bt,2022.2.4,Win32,59.82292414,Chrome,1280,800,,,,,0,788,,,,,,,,,,,,,,,,,S,125,hexagon,1,0,,,,,,,,,,,,,,,,repeat,letter,lettRpt,f,0.6486,Hi,,,,,,1,,,,,,,,low,5,0,5,0,1,,,,,,,,,
293488,2022-11-14_10h46.08.390,vts_reward_expectancy_bt,2022.2.4,Win32,59.82292414,Chrome,1280,800,,,,,1,789,,,,,,,,,,,,,,,,,D,167,star,1,0,,,,,,,,,,,,,,,,repeat,letter,lettRpt,d,0.4785,Lo,,,,,,1,,,,,,,,low,6,0,6,0,1,,,,,,,,,
293488,2022-11-14_10h46.08.390,vts_reward_expectancy_bt,2022.2.4,Win32,59.82292414,Chrome,1280,800,,,,,10,799,,,,,,,,,,,,,,,,,U,139,circle,1,0,,,,,,,,,,,,,,,,switch,number,numSwt,j,0.5482,Lo,,,,,,1,,,,,,,,low,7,0,7,0,1,,,,,,,,,
293488,2022-11-14_10h46.08.390,vts_reward_expectancy_bt,2022.2.4,Win32,59.82292414,Chrome,1280,800,,,,,10,809,,,,,,,,,,,,,,,,,F,174,hexagon,1,0,,,,,,,,,,,,,,,,switch,letter,lettSwt,d,0.5295,Hi,,,,,,1,,,,,,,,low,8,0,8,0,1,,,,,,,,,
293488,2022-11-14_10h46.08.390,vts_reward_expectancy_bt,2022.2.4,Win32,59.82292414,Chrome,1280,800,,,,,10,819,,,,,,,,,,,,,,,,,H,132,circle,1,0,,,,,,,,,,,,,,,,switch,number,numSwt,j,0.4976,Lo,,,,,,1,,,,,,,,low,9,0,9,0,1,,,,,,,,,
293488,2022-11-14_10h46.08.390,vts_reward_expectancy_bt,2022.2.4,Win32,59.82292414,Chrome,1280,800,,,,,10,829,,,,,,,,,,,,,,,,,B,160,star,1,0,,,,,,,,,,,,,,,,switch,letter,lettSwt,d,0.4982,Lo,,,,,,1,,,,,,,,low,10,0,10,0,1,,,,,,,,,
293488,2022-11-14_10h46.08.390,vts_reward_expectancy_bt,2022.2.4,Win32,59.82292414,Chrome,1280,800,,,,,0,829,,,,,,,,,,,,,,,,,W,181,triangle,1,0,,,,,,,,,,,,,,,,switch,number,numSwt,k,0.7532,Hi,,,,,,1,,,,,,,,low,11,0,11,0,1,,,,,,,,,
293488,2022-11-14_10h46.08.390,vts_reward_expectancy_bt,2022.2.4,Win32,59.82292414,Chrome,1280,800,,,,,1,830,,,,,,,,,,,,,,,,,Y,146,hexagon,1,0,,,,,,,,,,,,,,,,repeat,number,numRpt,j,0.5164,Hi,,,,,,1,,,,,,,,low,12,0,12,0,1,,,,,,,,,
293488,2022-11-14_10h46.08.390,vts_reward_expectancy_bt,2022.2.4,Win32,59.82292414,Chrome,1280,800,,,,,1,831,,,,,,,,,,,,,,,,,S,125,star,1,0,,,,,,,,,,,,,,,,repeat,number,numRpt,j,0.8969,Lo,,,,,,1,,,,,,,,low,13,0,13,0,1,,,,,,,,,
293488,2022-11-14_10h46.08.390,vts_reward_expectancy_bt,2022.2.4,Win32,59.82292414,Chrome,1280,800,,,,,0,831,,,,,,,,,,,,,,,,,D,167,triangle,1,0,,,,,,,,,,,,,,,,repeat,number,numRpt,k,0.9201,Hi,,,,,,1,,,,,,,,low,14,0,14,0,1,,,,,,,,,
293488,2022-11-14_10h46.08.390,vts_reward_expectancy_bt,2022.2.4,Win32,59.82292414,Chrome,1280,800,,,,,0,831,,,,,,,,,,,,,,,,,U,139,circle,0,0,,,,,,,,,,,,,,,,switch,letter,NA,d,0.733,Hi,,,,,,1,,,,,,,,low,15,0,15,0,1,,,,,,,,,
293488,2022-11-14_10h46.08.390,vts_reward_expectancy_bt,2022.2.4,Win32,59.82292414,Chrome,1280,800,,,,,10,841,,,,,,,,,,,,,,,,,Y,132,circle,1,1,,,,,,,,,,,,,,,,repeat,letter,lettRpt,f,0.613,Lo,,,,,,1,,,,,,,,low,16,0,16,0,1,,,,,,,,,
293488,2022-11-14_10h46.08.390,vts_reward_expectancy_bt,2022.2.4,Win32,59.82292414,Chrome,1280,800,,,,,0,841,,,,,,,,,,,,,,,,,W,125,hexagon,1,0,,,,,,,,,,,,,,,,repeat,letter,lettRpt,f,0.6158,Hi,,,,,,1,,,,,,,,low,17,0,17,0,1,,,,,,,,,
293488,2022-11-14_10h46.08.390,vts_reward_expectancy_bt,2022.2.4,Win32,59.82292414,Chrome,1280,800,,,,,0,841,,,,,,,,,,,,,,,,,S,139,triangle,0,0,,,,,,,,,,,,,,,,repeat,letter,NA,d,0.2357,Hi,,,,,,1,,,,,,,,low,18,0,18,0,1,,,,,,,,,
293488,2022-11-14_10h46.08.390,vts_reward_expectancy_bt,2022.2.4,Win32,59.82292414,Chrome,1280,800,,,,,10,851,,,,,,,,,,,,,,,,,D,146,star,1,1,,,,,,,,,,,,,,,,repeat,letter,lettRpt,d,0.5185,Lo,,,,,,1,,,,,,,,low,19,0,19,0,1,,,,,,,,,
293488,2022-11-14_10h46.08.390,vts_reward_expectancy_bt,2022.2.4,Win32,59.82292414,Chrome,1280,800,,,,,1,852,,,,,,,,,,,,,,,,,B,167,hexagon,1,0,,,,,,,,,,,,,,,,repeat,letter,lettRpt,d,0.5508,Hi,,,,,,1,,,,,,,,low,20,0,20,0,1,,,,,,,,,
293488,2022-11-14_10h46.08.390,vts_reward_expectancy_bt,2022.2.4,Win32,59.82292414,Chrome,1280,800,,,,,10,862,,,,,,,,,,,,,,,,,F,160,circle,1,0,,,,,,,,,,,,,,,,repeat,letter,lettRpt,d,0.5819,Lo,,,,,,1,,,,,,,,low,21,0,21,0,1,,,,,,,,,
293488,2022-11-14_10h46.08.390,vts_reward_expectancy_bt,2022.2.4,Win32,59.82292414,Chrome,1280,800,,,,,1,863,,,,,,,,,,,,,,,,,U,174,star,1,0,,,,,,,,,,,,,,,,repeat,letter,lettRpt,f,0.5864,Lo,,,,,,1,,,,,,,,low,22,0,22,0,1,,,,,,,,,
293488,2022-11-14_10h46.08.390,vts_reward_expectancy_bt,2022.2.4,Win32,59.82292414,Chrome,1280,800,,,,,10,873,,,,,,,,,,,,,,,,,H,181,triangle,1,0,,,,,,,,,,,,,,,,repeat,letter,lettRpt,d,0.5663,Hi,,,,,,1,,,,,,,,low,23,0,23,0,1,,,,,,,,,
293488,2022-11-14_10h46.08.390,vts_reward_expectancy_bt,2022.2.4,Win32,59.82292414,Chrome,1280,800,,,,,0,873,,,,,,,,,,,,,,,,,D,139,hexagon,1,0,,,,,,,,,,,,,,,,repeat,letter,lettRpt,d,0.6824,Hi,,,,,,1,,,,,,,,low,24,0,24,0,1,,,,,,,,,
293488,2022-11-14_10h46.08.390,vts_reward_expectancy_bt,2022.2.4,Win32,59.82292414,Chrome,1280,800,,,,,1,874,,,,,,,,,,,,,,,,,F,174,star,1,0,,,,,,,,,,,,,,,,repeat,letter,lettRpt,d,0.5829,Lo,,,,,,1,,,,,,,,low,25,0,25,0,1,,,,,,,,,
293488,2022-11-14_10h46.08.390,vts_reward_expectancy_bt,2022.2.4,Win32,59.82292414,Chrome,1280,800,,,,,10,884,,,,,,,,,,,,,,,,,Y,125,circle,1,0,,,,,,,,,,,,,,,,switch,number,numSwt,j,0.4444,Lo,,,,,,1,,,,,,,,low,26,0,26,0,1,,,,,,,,,
293488,2022-11-14_10h46.08.390,vts_reward_expectancy_bt,2022.2.4,Win32,59.82292414,Chrome,1280,800,,,,,10,894,,,,,,,,,,,,,,,,,H,132,triangle,1,0,,,,,,,,,,,,,,,,repeat,number,numRpt,j,0.5355,Hi,,,,,,1,,,,,,,,low,27,0,27,0,1,,,,,,,,,
293488,2022-11-14_10h46.08.390,vts_reward_expectancy_bt,2022.2.4,Win32,59.82292414,Chrome,1280,800,,,,,0,894,,,,,,,,,,,,,,,,,S,146,triangle,1,0,,,,,,,,,,,,,,,,repeat,number,numRpt,j,0.6176,Hi,,,,,,1,,,,,,,,low,28,0,28,0,1,,,,,,,,,
293488,2022-11-14_10h46.08.390,vts_reward_expectancy_bt,2022.2.4,Win32,59.82292414,Chrome,1280,800,,,,,10,904,,,,,,,,,,,,,,,,,B,167,hexagon,1,0,,,,,,,,,,,,,,,,repeat,number,numRpt,k,0.4985,Hi,,,,,,1,,,,,,,,low,29,0,29,0,1,,,,,,,,,
293488,2022-11-14_10h46.08.390,vts_reward_expectancy_bt,2022.2.4,Win32,59.82292414,Chrome,1280,800,,,,,1,905,,,,,,,,,,,,,,,,,U,181,circle,1,0,,,,,,,,,,,,,,,,repeat,number,numRpt,k,0.4903,Lo,,,,,,1,,,,,,,,low,30,0,30,0,1,,,,,,,,,
293488,2022-11-14_10h46.08.390,vts_reward_expectancy_bt,2022.2.4,Win32,59.82292414,Chrome,1280,800,,,,,1,906,,,,,,,,,,,,,,,,,W,160,star,1,0,,,,,,,,,,,,,,,,repeat,number,numRpt,k,0.4807,Lo,,,,,,1,,,,,,,,low,31,0,31,0,1,,,,,,,,,
293488,2022-11-14_10h46.08.390,vts_reward_expectancy_bt,2022.2.4,Win32,59.82292414,Chrome,1280,800,,,,,1,907,,,,,,,,,,,,,,,,,Y,132,star,1,0,,,,,,,,,,,,,,,,repeat,number,numRpt,j,0.8013,Lo,,,,,,2,,,,,,space,1.7623,low,0,0,0,0,1,,,,,,,,,
293488,2022-11-14_10h46.08.390,vts_reward_expectancy_bt,2022.2.4,Win32,59.82292414,Chrome,1280,800,,,,,0,907,,,,,,,,,,,,,,,,,W,125,hexagon,1,0,,,,,,,,,,,,,,,,repeat,number,numRpt,j,0.5453,Hi,,,,,,2,,,,,,,,low,1,0,1,0,1,,,,,,,,,
293488,2022-11-14_10h46.08.390,vts_reward_expectancy_bt,2022.2.4,Win32,59.82292414,Chrome,1280,800,,,,,0,907,,,,,,,,,,,,,,,,,B,174,triangle,0,0,,,,,,,,,,,,,,,,repeat,number,NA,j,0.3963,Hi,,,,,,2,,,,,,,,low,2,0,2,0,1,,,,,,,,,
293488,2022-11-14_10h46.08.390,vts_reward_expectancy_bt,2022.2.4,Win32,59.82292414,Chrome,1280,800,,,,,1,908,,,,,,,,,,,,,,,,,D,139,circle,1,1,,,,,,,,,,,,,,,,repeat,number,numRpt,j,0.5332,Lo,,,,,,2,,,,,,,,low,3,0,3,0,1,,,,,,,,,
293488,2022-11-14_10h46.08.390,vts_reward_expectancy_bt,2022.2.4,Win32,59.82292414,Chrome,1280,800,,,,,10,918,,,,,,,,,,,,,,,,,H,167,star,1,0,,,,,,,,,,,,,,,,repeat,number,numRpt,k,0.4025,Lo,,,,,,2,,,,,,,,low,4,0,4,0,1,,,,,,,,,
293488,2022-11-14_10h46.08.390,vts_reward_expectancy_bt,2022.2.4,Win32,59.82292414,Chrome,1280,800,,,,,0,918,,,,,,,,,,,,,,,,,U,160,hexagon,1,0,,,,,,,,,,,,,,,,repeat,number,numRpt,k,0.6857,Hi,,,,,,2,,,,,,,,low,5,0,5,0,1,,,,,,,,,
293488,2022-11-14_10h46.08.390,vts_reward_expectancy_bt,2022.2.4,Win32,59.82292414,Chrome,1280,800,,,,,10,928,,,,,,,,,,,,,,,,,S,181,triangle,1,0,,,,,,,,,,,,,,,,repeat,number,numRpt,k,0.3691,Hi,,,,,,2,,,,,,,,low,6,0,6,0,1,,,,,,,,,
293488,2022-11-14_10h46.08.390,vts_reward_expectancy_bt,2022.2.4,Win32,59.82292414,Chrome,1280,800,,,,,1,929,,,,,,,,,,,,,,,,,F,146,circle,1,0,,,,,,,,,,,,,,,,repeat,number,numRpt,j,0.6175,Lo,,,,,,2,,,,,,,,low,7,0,7,0,1,,,,,,,,,
293488,2022-11-14_10h46.08.390,vts_reward_expectancy_bt,2022.2.4,Win32,59.82292414,Chrome,1280,800,,,,,10,939,,,,,,,,,,,,,,,,,Y,132,circle,1,0,,,,,,,,,,,,,,,,switch,letter,lettSwt,f,0.5237,Lo,,,,,,2,,,,,,,,low,8,0,8,0,1,,,,,,,,,
293488,2022-11-14_10h46.08.390,vts_reward_expectancy_bt,2022.2.4,Win32,59.82292414,Chrome,1280,800,,,,,1,940,,,,,,,,,,,,,,,,,W,125,star,1,0,,,,,,,,,,,,,,,,repeat,letter,lettRpt,f,0.5901,Lo,,,,,,2,,,,,,,,low,9,0,9,0,1,,,,,,,,,
293488,2022-11-14_10h46.08.390,vts_reward_expectancy_bt,2022.2.4,Win32,59.82292414,Chrome,1280,800,,,,,1,941,,,,,,,,,,,,,,,,,B,174,hexagon,1,0,,,,,,,,,,,,,,,,repeat,letter,lettRpt,d,0.5263,Hi,,,,,,2,,,,,,,,low,10,0,10,0,1,,,,,,,,,
293488,2022-11-14_10h46.08.390,vts_reward_expectancy_bt,2022.2.4,Win32,59.82292414,Chrome,1280,800,,,,,10,951,,,,,,,,,,,,,,,,,D,139,triangle,1,0,,,,,,,,,,,,,,,,repeat,letter,lettRpt,d,0.5506,Hi,,,,,,2,,,,,,,,low,11,0,11,0,1,,,,,,,,,
293488,2022-11-14_10h46.08.390,vts_reward_expectancy_bt,2022.2.4,Win32,59.82292414,Chrome,1280,800,,,,,10,961,,,,,,,,,,,,,,,,,H,167,triangle,1,0,,,,,,,,,,,,,,,,repeat,letter,lettRpt,d,0.5008,Hi,,,,,,2,,,,,,,,low,12,0,12,0,1,,,,,,,,,
293488,2022-11-14_10h46.08.390,vts_reward_expectancy_bt,2022.2.4,Win32,59.82292414,Chrome,1280,800,,,,,1,962,,,,,,,,,,,,,,,,,U,160,circle,1,0,,,,,,,,,,,,,,,,repeat,letter,lettRpt,f,0.6013,Lo,,,,,,2,,,,,,,,low,13,0,13,0,1,,,,,,,,,
293488,2022-11-14_10h46.08.390,vts_reward_expectancy_bt,2022.2.4,Win32,59.82292414,Chrome,1280,800,,,,,0,962,,,,,,,,,,,,,,,,,S,181,hexagon,0,0,,,,,,,,,,,,,,,,repeat,letter,NA,d,0.5136,Lo,,,,,,2,,,,,,,,low,14,0,14,0,1,,,,,,,,,
293488,2022-11-14_10h46.08.390,vts_reward_expectancy_bt,2022.2.4,Win32,59.82292414,Chrome,1280,800,,,,,10,972,,,,,,,,,,,,,,,,,F,146,star,1,1,,,,,,,,,,,,,,,,repeat,letter,lettRpt,d,0.6627,Lo,,,,,,2,,,,,,,,low,15,0,15,0,1,,,,,,,,,
293488,2022-11-14_10h46.08.390,vts_reward_expectancy_bt,2022.2.4,Win32,59.82292414,Chrome,1280,800,,,,,0,972,,,,,,,,,,,,,,,,,U,139,circle,0,0,,,,,,,,,,,,,,,,repeat,letter,NA,d,0.4917,Lo,,,,,,2,,,,,,,,low,16,0,16,0,1,,,,,,,,,
293488,2022-11-14_10h46.08.390,vts_reward_expectancy_bt,2022.2.4,Win32,59.82292414,Chrome,1280,800,,,,,10,982,,,,,,,,,,,,,,,,,F,167,hexagon,1,1,,,,,,,,,,,,,,,,repeat,letter,lettRpt,d,0.5319,Hi,,,,,,2,,,,,,,,low,17,0,17,0,1,,,,,,,,,
293488,2022-11-14_10h46.08.390,vts_reward_expectancy_bt,2022.2.4,Win32,59.82292414,Chrome,1280,800,,,,,10,992,,,,,,,,,,,,,,,,,W,132,triangle,1,0,,,,,,,,,,,,,,,,switch,number,numSwt,j,0.4121,Hi,,,,,,2,,,,,,,,low,18,0,18,0,1,,,,,,,,,
293488,2022-11-14_10h46.08.390,vts_reward_expectancy_bt,2022.2.4,Win32,59.82292414,Chrome,1280,800,,,,,10,1002,,,,,,,,,,,,,,,,,D,181,star,1,0,,,,,,,,,,,,,,,,repeat,number,numRpt,k,0.4108,Lo,,,,,,2,,,,,,,,low,19,0,19,0,1,,,,,,,,,
293488,2022-11-14_10h46.08.390,vts_reward_expectancy_bt,2022.2.4,Win32,59.82292414,Chrome,1280,800,,,,,1,1003,,,,,,,,,,,,,,,,,S,174,circle,1,0,,,,,,,,,,,,,,,,repeat,number,numRpt,k,0.6441,Lo,,,,,,2,,,,,,,,low,20,0,20,0,1,,,,,,,,,
293488,2022-11-14_10h46.08.390,vts_reward_expectancy_bt,2022.2.4,Win32,59.82292414,Chrome,1280,800,,,,,0,1003,,,,,,,,,,,,,,,,,H,125,triangle,1,0,,,,,,,,,,,,,,,,repeat,number,numRpt,j,0.5905,Hi,,,,,,2,,,,,,,,low,21,0,21,0,1,,,,,,,,,
293488,2022-11-14_10h46.08.390,vts_reward_expectancy_bt,2022.2.4,Win32,59.82292414,Chrome,1280,800,,,,,0,1003,,,,,,,,,,,,,,,,,B,146,hexagon,1,0,,,,,,,,,,,,,,,,repeat,number,numRpt,j,0.619,Hi,,,,,,2,,,,,,,,low,22,0,22,0,1,,,,,,,,,
293488,2022-11-14_10h46.08.390,vts_reward_expectancy_bt,2022.2.4,Win32,59.82292414,Chrome,1280,800,,,,,0,1003,,,,,,,,,,,,,,,,,Y,160,star,0,0,,,,,,,,,,,,,,,,repeat,number,NA,j,0.3014,Hi,,,,,,2,,,,,,,,low,23,0,23,0,1,,,,,,,,,
293488,2022-11-14_10h46.08.390,vts_reward_expectancy_bt,2022.2.4,Win32,59.82292414,Chrome,1280,800,,,,,1,1004,,,,,,,,,,,,,,,,,D,174,star,1,1,,,,,,,,,,,,,,,,repeat,number,numRpt,k,0.41,Lo,,,,,,2,,,,,,,,low,24,0,24,0,1,,,,,,,,,
293488,2022-11-14_10h46.08.390,vts_reward_expectancy_bt,2022.2.4,Win32,59.82292414,Chrome,1280,800,,,,,1,1005,,,,,,,,,,,,,,,,,W,146,circle,1,0,,,,,,,,,,,,,,,,repeat,number,numRpt,j,0.4696,Lo,,,,,,2,,,,,,,,low,25,0,25,0,1,,,,,,,,,
293488,2022-11-14_10h46.08.390,vts_reward_expectancy_bt,2022.2.4,Win32,59.82292414,Chrome,1280,800,,,,,1,1006,,,,,,,,,,,,,,,,,B,160,hexagon,1,0,,,,,,,,,,,,,,,,repeat,number,numRpt,k,0.3688,Hi,,,,,,2,,,,,,,,low,26,0,26,0,1,,,,,,,,,
293488,2022-11-14_10h46.08.390,vts_reward_expectancy_bt,2022.2.4,Win32,59.82292414,Chrome,1280,800,,,,,0,1006,,,,,,,,,,,,,,,,,F,181,triangle,1,0,,,,,,,,,,,,,,,,repeat,number,numRpt,k,0.6201,Hi,,,,,,2,,,,,,,,low,27,0,27,0,1,,,,,,,,,
293488,2022-11-14_10h46.08.390,vts_reward_expectancy_bt,2022.2.4,Win32,59.82292414,Chrome,1280,800,,,,,0,1006,,,,,,,,,,,,,,,,,S,125,triangle,0,0,,,,,,,,,,,,,,,,repeat,number,NA,k,0.3676,Hi,,,,,,2,,,,,,,,low,28,0,28,0,1,,,,,,,,,
293488,2022-11-14_10h46.08.390,vts_reward_expectancy_bt,2022.2.4,Win32,59.82292414,Chrome,1280,800,,,,,10,1016,,,,,,,,,,,,,,,,,H,139,star,1,1,,,,,,,,,,,,,,,,repeat,number,numRpt,j,0.5016,Lo,,,,,,2,,,,,,,,low,29,0,29,0,1,,,,,,,,,
293488,2022-11-14_10h46.08.390,vts_reward_expectancy_bt,2022.2.4,Win32,59.82292414,Chrome,1280,800,,,,,10,1026,,,,,,,,,,,,,,,,,Y,132,hexagon,1,0,,,,,,,,,,,,,,,,repeat,number,numRpt,j,0.3846,Hi,,,,,,2,,,,,,,,low,30,0,30,0,1,,,,,,,,,
293488,2022-11-14_10h46.08.390,vts_reward_expectancy_bt,2022.2.4,Win32,59.82292414,Chrome,1280,800,,,,,0,1026,,,,,,,,,,,,,,,,,U,167,circle,0,0,,,,,,,,,,,,,,,,repeat,number,NA,j,0.3882,Hi,,,,,,2,,,,,,,,low,31,0,31,0,1,,,,,,,,,
293488,2022-11-14_10h46.08.390,vts_reward_expectancy_bt,2022.2.4,Win32,59.82292414,Chrome,1280,800,,,,,1,1027,,,,,,,,,,,,,,,,,B,139,hexagon,1,1,,,,,,,,,,,,,,,,switch,letter,lettSwt,d,0.4368,Hi,,,,,,3,,,,,,space,3.0226,low,0,0,0,0,1,,,,,,,,,
293488,2022-11-14_10h46.08.390,vts_reward_expectancy_bt,2022.2.4,Win32,59.82292414,Chrome,1280,800,,,,,0,1027,,,,,,,,,,,,,,,,,H,132,triangle,0,0,,,,,,,,,,,,,,,,repeat,letter,NA,f,0.4686,Hi,,,,,,3,,,,,,,,low,1,0,1,0,1,,,,,,,,,
293488,2022-11-14_10h46.08.390,vts_reward_expectancy_bt,2022.2.4,Win32,59.82292414,Chrome,1280,800,,,,,1,1028,,,,,,,,,,,,,,,,,F,167,star,1,1,,,,,,,,,,,,,,,,repeat,letter,lettRpt,d,0.6184,Lo,,,,,,3,,,,,,,,low,2,0,2,0,1,,,,,,,,,
293488,2022-11-14_10h46.08.390,vts_reward_expectancy_bt,2022.2.4,Win32,59.82292414,Chrome,1280,800,,,,,1,1029,,,,,,,,,,,,,,,,,W,146,circle,1,0,,,,,,,,,,,,,,,,repeat,letter,lettRpt,f,0.5334,Lo,,,,,,3,,,,,,,,low,3,0,3,0,1,,,,,,,,,
293488,2022-11-14_10h46.08.390,vts_reward_expectancy_bt,2022.2.4,Win32,59.82292414,Chrome,1280,800,,,,,10,1039,,,,,,,,,,,,,,,,,Y,125,hexagon,1,0,,,,,,,,,,,,,,,,repeat,letter,lettRpt,f,0.4543,Hi,,,,,,3,,,,,,,,low,4,0,4,0,1,,,,,,,,,
293488,2022-11-14_10h46.08.390,vts_reward_expectancy_bt,2022.2.4,Win32,59.82292414,Chrome,1280,800,,,,,0,1039,,,,,,,,,,,,,,,,,S,160,triangle,1,0,,,,,,,,,,,,,,,,repeat,letter,lettRpt,f,0.5734,Hi,,,,,,3,,,,,,,,low,5,0,5,0,1,,,,,,,,,
293488,2022-11-14_10h46.08.390,vts_reward_expectancy_bt,2022.2.4,Win32,59.82292414,Chrome,1280,800,,,,,10,1049,,,,,,,,,,,,,,,,,U,181,star,1,0,,,,,,,,,,,,,,,,repeat,letter,lettRpt,f,0.5347,Lo,,,,,,3,,,,,,,,low,6,0,6,0,1,,,,,,,,,
293488,2022-11-14_10h46.08.390,vts_reward_expectancy_bt,2022.2.4,Win32,59.82292414,Chrome,1280,800,,,,,1,1050,,,,,,,,,,,,,,,,,D,174,circle,1,0,,,,,,,,,,,,,,,,switch,number,numSwt,k,0.4874,Lo,,,,,,3,,,,,,,,low,7,0,7,0,1,,,,,,,,,
293488,2022-11-14_10h46.08.390,vts_reward_expectancy_bt,2022.2.4,Win32,59.82292414,Chrome,1280,800,,,,,0,1050,,,,,,,,,,,,,,,,,B,139,triangle,1,0,,,,,,,,,,,,,,,,repeat,number,numRpt,j,0.5354,Hi,,,,,,3,,,,,,,,low,8,0,8,0,1,,,,,,,,,
293488,2022-11-14_10h46.08.390,vts_reward_expectancy_bt,2022.2.4,Win32,59.82292414,Chrome,1280,800,,,,,10,1060,,,,,,,,,,,,,,,,,H,132,star,1,0,,,,,,,,,,,,,,,,repeat,number,numRpt,j,0.334,Lo,,,,,,3,,,,,,,,low,9,0,9,0,1,,,,,,,,,
293488,2022-11-14_10h46.08.390,vts_reward_expectancy_bt,2022.2.4,Win32,59.82292414,Chrome,1280,800,,,,,10,1070,,,,,,,,,,,,,,,,,F,167,circle,1,0,,,,,,,,,,,,,,,,repeat,number,numRpt,k,0.4853,Lo,,,,,,3,,,,,,,,low,10,0,10,0,1,,,,,,,,,
293488,2022-11-14_10h46.08.390,vts_reward_expectancy_bt,2022.2.4,Win32,59.82292414,Chrome,1280,800,,,,,10,1080,,,,,,,,,,,,,,,,,W,146,hexagon,1,0,,,,,,,,,,,,,,,,repeat,number,numRpt,j,0.4221,Hi,,,,,,3,,,,,,,,low,11,0,11,0,1,,,,,,,,,
293488,2022-11-14_10h46.08.390,vts_reward_expectancy_bt,2022.2.4,Win32,59.82292414,Chrome,1280,800,,,,,0,1080,,,,,,,,,,,,,,,,,Y,125,triangle,1,0,,,,,,,,,,,,,,,,repeat,number,numRpt,j,0.4677,Hi,,,,,,3,,,,,,,,low,12,0,12,0,1,,,,,,,,,
293488,2022-11-14_10h46.08.390,vts_reward_expectancy_bt,2022.2.4,Win32,59.82292414,Chrome,1280,800,,,,,0,1080,,,,,,,,,,,,,,,,,S,160,circle,0,0,,,,,,,,,,,,,,,,repeat,number,NA,j,0.4687,Hi,,,,,,3,,,,,,,,low,13,0,13,0,1,,,,,,,,,
293488,2022-11-14_10h46.08.390,vts_reward_expectancy_bt,2022.2.4,Win32,59.82292414,Chrome,1280,800,,,,,0,1080,,,,,,,,,,,,,,,,,U,181,hexagon,1,1,,,,,,,,,,,,,,,,repeat,number,numRpt,k,0.5857,Hi,,,,,,3,,,,,,,,low,14,0,14,0,1,,,,,,,,,
293488,2022-11-14_10h46.08.390,vts_reward_expectancy_bt,2022.2.4,Win32,59.82292414,Chrome,1280,800,,,,,0,1080,,,,,,,,,,,,,,,,,D,174,star,0,0,,,,,,,,,,,,,,,,repeat,number,NA,j,0.5267,Hi,,,,,,3,,,,,,,,low,15,0,15,0,1,,,,,,,,,
293488,2022-11-14_10h46.08.390,vts_reward_expectancy_bt,2022.2.4,Win32,59.82292414,Chrome,1280,800,,,,,1,1081,,,,,,,,,,,,,,,,,B,167,star,1,1,,,,,,,,,,,,,,,,repeat,number,numRpt,k,0.3724,Lo,,,,,,3,,,,,,,,low,16,0,16,0,1,,,,,,,,,
293488,2022-11-14_10h46.08.390,vts_reward_expectancy_bt,2022.2.4,Win32,59.82292414,Chrome,1280,800,,,,,1,1082,,,,,,,,,,,,,,,,,U,125,circle,1,0,,,,,,,,,,,,,,,,repeat,number,numRpt,j,0.3834,Lo,,,,,,3,,,,,,,,low,17,0,17,0,1,,,,,,,,,
293488,2022-11-14_10h46.08.390,vts_reward_expectancy_bt,2022.2.4,Win32,59.82292414,Chrome,1280,800,,,,,0,1082,,,,,,,,,,,,,,,,,D,181,hexagon,0,0,,,,,,,,,,,,,,,,repeat,number,NA,j,0.5204,Lo,,,,,,3,,,,,,,,low,18,0,18,0,1,,,,,,,,,
293488,2022-11-14_10h46.08.390,vts_reward_expectancy_bt,2022.2.4,Win32,59.82292414,Chrome,1280,800,,,,,10,1092,,,,,,,,,,,,,,,,,S,160,triangle,1,1,,,,,,,,,,,,,,,,repeat,number,numRpt,k,0.3761,Hi,,,,,,3,,,,,,,,low,19,0,19,0,1,,,,,,,,,
293488,2022-11-14_10h46.08.390,vts_reward_expectancy_bt,2022.2.4,Win32,59.82292414,Chrome,1280,800,,,,,1,1093,,,,,,,,,,,,,,,,,Y,146,star,1,0,,,,,,,,,,,,,,,,repeat,number,numRpt,j,0.517,Lo,,,,,,3,,,,,,,,low,20,0,20,0,1,,,,,,,,,
293488,2022-11-14_10h46.08.390,vts_reward_expectancy_bt,2022.2.4,Win32,59.82292414,Chrome,1280,800,,,,,0,1093,,,,,,,,,,,,,,,,,F,139,hexagon,1,0,,,,,,,,,,,,,,,,repeat,number,numRpt,j,0.4774,Hi,,,,,,3,,,,,,,,low,21,0,21,0,1,,,,,,,,,
293488,2022-11-14_10h46.08.390,vts_reward_expectancy_bt,2022.2.4,Win32,59.82292414,Chrome,1280,800,,,,,0,1093,,,,,,,,,,,,,,,,,W,132,triangle,1,0,,,,,,,,,,,,,,,,repeat,number,numRpt,j,0.5015,Hi,,,,,,3,,,,,,,,low,22,0,22,0,1,,,,,,,,,
293488,2022-11-14_10h46.08.390,vts_reward_expectancy_bt,2022.2.4,Win32,59.82292414,Chrome,1280,800,,,,,0,1093,,,,,,,,,,,,,,,,,H,174,circle,0,0,,,,,,,,,,,,,,,,repeat,number,NA,j,0.3675,Hi,,,,,,3,,,,,,,,low,23,0,23,0,1,,,,,,,,,
293488,2022-11-14_10h46.08.390,vts_reward_expectancy_bt,2022.2.4,Win32,59.82292414,Chrome,1280,800,,,,,1,1094,,,,,,,,,,,,,,,,,H,174,triangle,1,1,,,,,,,,,,,,,,,,repeat,number,numRpt,k,0.3701,Hi,,,,,,3,,,,,,,,low,24,0,24,0,1,,,,,,,,,
293488,2022-11-14_10h46.08.390,vts_reward_expectancy_bt,2022.2.4,Win32,59.82292414,Chrome,1280,800,,,,,1,1095,,,,,,,,,,,,,,,,,Y,146,star,1,0,,,,,,,,,,,,,,,,repeat,number,numRpt,j,0.5041,Lo,,,,,,3,,,,,,,,low,25,0,25,0,1,,,,,,,,,
293488,2022-11-14_10h46.08.390,vts_reward_expectancy_bt,2022.2.4,Win32,59.82292414,Chrome,1280,800,,,,,0,1095,,,,,,,,,,,,,,,,,S,160,hexagon,0,0,,,,,,,,,,,,,,,,repeat,number,NA,j,0.5186,Lo,,,,,,3,,,,,,,,low,26,0,26,0,1,,,,,,,,,
293488,2022-11-14_10h46.08.390,vts_reward_expectancy_bt,2022.2.4,Win32,59.82292414,Chrome,1280,800,,,,,1,1096,,,,,,,,,,,,,,,,,U,139,circle,1,1,,,,,,,,,,,,,,,,repeat,number,numRpt,j,0.5787,Lo,,,,,,3,,,,,,,,low,27,0,27,0,1,,,,,,,,,
293488,2022-11-14_10h46.08.390,vts_reward_expectancy_bt,2022.2.4,Win32,59.82292414,Chrome,1280,800,,,,,0,1096,,,,,,,,,,,,,,,,,D,125,hexagon,0,0,,,,,,,,,,,,,,,,repeat,number,NA,k,0.3524,Lo,,,,,,3,,,,,,,,low,28,0,28,0,1,,,,,,,,,
293488,2022-11-14_10h46.08.390,vts_reward_expectancy_bt,2022.2.4,Win32,59.82292414,Chrome,1280,800,,,,,10,1106,,,,,,,,,,,,,,,,,B,181,star,1,1,,,,,,,,,,,,,,,,repeat,number,numRpt,k,0.4921,Lo,,,,,,3,,,,,,,,low,29,0,29,0,1,,,,,,,,,
293488,2022-11-14_10h46.08.390,vts_reward_expectancy_bt,2022.2.4,Win32,59.82292414,Chrome,1280,800,,,,,1,1107,,,,,,,,,,,,,,,,,F,167,circle,1,0,,,,,,,,,,,,,,,,repeat,number,numRpt,k,0.4345,Lo,,,,,,3,,,,,,,,low,30,0,30,0,1,,,,,,,,,
293488,2022-11-14_10h46.08.390,vts_reward_expectancy_bt,2022.2.4,Win32,59.82292414,Chrome,1280,800,,,,,0,1107,,,,,,,,,,,,,,,,,W,132,triangle,1,0,,,,,,,,,,,,,,,,repeat,number,numRpt,j,0.4993,Hi,,,,,,3,,,,,,,,low,31,0,31,0,1,,,,,,,,,
293488,2022-11-14_10h46.08.390,vts_reward_expectancy_bt,2022.2.4,Win32,59.82292414,Chrome,1280,800,,,,,0,1107,,,,,,,,,,,,,,,,,Y,167,star,0,0,,,,,,,,,,,,,,,,repeat,number,NA,j,0.5692,Hi,,,,,,4,,,,,,space,1.1155,low,0,0,0,0,1,,,,,,,,,
293488,2022-11-14_10h46.08.390,vts_reward_expectancy_bt,2022.2.4,Win32,59.82292414,Chrome,1280,800,,,,,1,1108,,,,,,,,,,,,,,,,,W,132,circle,1,1,,,,,,,,,,,,,,,,repeat,number,numRpt,j,0.4686,Lo,,,,,,4,,,,,,,,low,1,0,1,0,1,,,,,,,,,
293488,2022-11-14_10h46.08.390,vts_reward_expectancy_bt,2022.2.4,Win32,59.82292414,Chrome,1280,800,,,,,0,1108,,,,,,,,,,,,,,,,,U,146,hexagon,1,0,,,,,,,,,,,,,,,,repeat,number,numRpt,j,0.7576,Hi,,,,,,4,,,,,,,,low,2,0,2,0,1,,,,,,,,,
293488,2022-11-14_10h46.08.390,vts_reward_expectancy_bt,2022.2.4,Win32,59.82292414,Chrome,1280,800,,,,,0,1108,,,,,,,,,,,,,,,,,H,174,triangle,1,0,,,,,,,,,,,,,,,,repeat,number,numRpt,k,0.4403,Hi,,,,,,4,,,,,,,,low,3,0,3,0,1,,,,,,,,,
293488,2022-11-14_10h46.08.390,vts_reward_expectancy_bt,2022.2.4,Win32,59.82292414,Chrome,1280,800,,,,,0,1108,,,,,,,,,,,,,,,,,S,160,star,0,0,,,,,,,,,,,,,,,,repeat,number,NA,j,0.3411,Hi,,,,,,4,,,,,,,,low,4,0,4,0,1,,,,,,,,,
293488,2022-11-14_10h46.08.390,vts_reward_expectancy_bt,2022.2.4,Win32,59.82292414,Chrome,1280,800,,,,,1,1109,,,,,,,,,,,,,,,,,D,181,circle,1,1,,,,,,,,,,,,,,,,repeat,number,numRpt,k,0.4529,Lo,,,,,,4,,,,,,,,low,5,0,5,0,1,,,,,,,,,
293488,2022-11-14_10h46.08.390,vts_reward_expectancy_bt,2022.2.4,Win32,59.82292414,Chrome,1280,800,,,,,0,1109,,,,,,,,,,,,,,,,,F,125,hexagon,1,0,,,,,,,,,,,,,,,,repeat,number,numRpt,j,0.4495,Hi,,,,,,4,,,,,,,,low,6,0,6,0,1,,,,,,,,,
293488,2022-11-14_10h46.08.390,vts_reward_expectancy_bt,2022.2.4,Win32,59.82292414,Chrome,1280,800,,,,,0,1109,,,,,,,,,,,,,,,,,B,139,triangle,1,0,,,,,,,,,,,,,,,,repeat,number,numRpt,j,0.4362,Hi,,,,,,4,,,,,,,,low,7,0,7,0,1,,,,,,,,,
