participant,date,expName,psychopyVersion,OS,frameRate,browser,xResolution,yResolution,key_resp.keys,key_resp.rt,training_resp.keys,training_resp.rt,points_trial,points_cumul,trainBlock,training.thisRepN,training.thisTrialN,training.thisN,training.thisIndex,training.ran,LTriangleOpac,LCircleOpac,LHexagonOpac,LStarOpac,RTriangleOpac,RCircleOpac,RHexagonOpac,RStarOpac,LShape_ID,RShape_ID,curr_topStim,curr_bottStim,curr_shape,acc,E1,target_resp_prac1.keys,target_resp_prac1.rt,pracBlock,task1_prac_trials.thisRepN,task1_prac_trials.thisTrialN,task1_prac_trials.thisN,task1_prac_trials.thisIndex,task1_prac_trials.ran,target_resp_prac2.keys,task2_praac_trials.thisRepN,task2_praac_trials.thisTrialN,task2_praac_trials.thisN,task2_praac_trials.thisIndex,task2_praac_trials.ran,target_resp_prac2.rt,alt,task,condition,target_resp.keys,target_resp.rt,rewCond,vts_practice_trials.thisRepN,vts_practice_trials.thisTrialN,vts_practice_trials.thisN,vts_practice_trials.thisIndex,vts_practice_trials.ran,blockNum,trials_norew.thisRepN,trials_norew.thisTrialN,trials_norew.thisN,trials_norew.thisIndex,trials_norew.ran,key_resp_2.keys,key_resp_2.rt,rewExpectancy,trials_rew.thisRepN,trials_rew.thisTrialN,trials_rew.thisN,trials_rew.thisIndex,trials_rew.ran,Q1,Q2,Q2_text,Q3,Q4,Q5_text,Q5,xRes,yRes
293419,2022-11-15_12h22.59.226,vts_reward_expectancy_bt,2022.2.4,MacIntel,60.0024001,Chrome,1440,900,,,,,,,,,,,,,,,,,,,,,,,,,,,,,,,,,,,,,,,,,,,,,,,,,,,,,,,,,,,,,,,,,,,,,,,,,,,,
293419,2022-11-15_12h22.59.226,vts_reward_expectancy_bt,2022.2.4,MacIntel,60.0024001,Chrome,1440,900,space,5.7339,,,,,,,,,,,,,,,,,,,,,,,,,,,,,,,,,,,,,,,,,,,,,,,,,,,,,,,,,,,,,,,,,,,,,,,,,,
293419,2022-11-15_12h22.59.226,vts_reward_expectancy_bt,2022.2.4,MacIntel,60.0024001,Chrome,1440,900,,,,,,,,,,,,,,,,,,,,,,,,,,,,,,,,,,,,,,,,,,,,,,,,,,,,,,,,,,,,,,,,,,,,,,,,,,,,
293419,2022-11-15_12h22.59.226,vts_reward_expectancy_bt,2022.2.4,MacIntel,60.0024001,Chrome,1440,900,,,l,1.5794,10,10,0,0,0,0,2,1,1,0,0,0,0,0,0,1,triangle,star,,,,,,,,,,,,,,,,,,,,,,,,,,,,,,,,,,,,,,,,,,,,,,,,,,,,,,
293419,2022-11-15_12h22.59.226,vts_reward_expectancy_bt,2022.2.4,MacIntel,60.0024001,Chrome,1440,900,,,a,2.4794,10,20,0,0,1,1,7,1,0,0,1,0,0,1,0,0,hexagon,circle,,,,,,,,,,,,,,,,,,,,,,,,,,,,,,,,,,,,,,,,,,,,,,,,,,,,,,
293419,2022-11-15_12h22.59.226,vts_reward_expectancy_bt,2022.2.4,MacIntel,60.0024001,Chrome,1440,900,,,a,0.8015,10,30,0,0,2,2,10,1,0,0,0,1,0,1,0,0,star ,circle,,,,,,,,,,,,,,,,,,,,,,,,,,,,,,,,,,,,,,,,,,,,,,,,,,,,,,
293419,2022-11-15_12h22.59.226,vts_reward_expectancy_bt,2022.2.4,MacIntel,60.0024001,Chrome,1440,900,,,l,0.7326,10,40,0,0,3,3,1,1,1,0,0,0,0,0,1,0,triangle,hexagon,,,,,,,,,,,,,,,,,,,,,,,,,,,,,,,,,,,,,,,,,,,,,,,,,,,,,,
293419,2022-11-15_12h22.59.226,vts_reward_expectancy_bt,2022.2.4,MacIntel,60.0024001,Chrome,1440,900,,,a,0.7488,10,50,0,0,4,4,6,1,0,0,1,0,1,0,0,0,hexagon,triangle,,,,,,,,,,,,,,,,,,,,,,,,,,,,,,,,,,,,,,,,,,,,,,,,,,,,,,
293419,2022-11-15_12h22.59.226,vts_reward_expectancy_bt,2022.2.4,MacIntel,60.0024001,Chrome,1440,900,,,l,0.4699,10,60,0,0,5,5,5,1,0,1,0,0,0,0,0,1,circle,star,,,,,,,,,,,,,,,,,,,,,,,,,,,,,,,,,,,,,,,,,,,,,,,,,,,,,,
293419,2022-11-15_12h22.59.226,vts_reward_expectancy_bt,2022.2.4,MacIntel,60.0024001,Chrome,1440,900,,,l,0.5995,1,61,0,0,6,6,3,1,0,1,0,0,1,0,0,0,circle,triangle,,,,,,,,,,,,,,,,,,,,,,,,,,,,,,,,,,,,,,,,,,,,,,,,,,,,,,
293419,2022-11-15_12h22.59.226,vts_reward_expectancy_bt,2022.2.4,MacIntel,60.0024001,Chrome,1440,900,,,a,2.0206,1,62,0,0,7,7,0,1,1,0,0,0,0,1,0,0,triangle,circle,,,,,,,,,,,,,,,,,,,,,,,,,,,,,,,,,,,,,,,,,,,,,,,,,,,,,,
293419,2022-11-15_12h22.59.226,vts_reward_expectancy_bt,2022.2.4,MacIntel,60.0024001,Chrome,1440,900,,,a,1.771,10,72,0,0,8,8,11,1,0,0,0,1,0,0,1,0,star,hexagon,,,,,,,,,,,,,,,,,,,,,,,,,,,,,,,,,,,,,,,,,,,,,,,,,,,,,,
293419,2022-11-15_12h22.59.226,vts_reward_expectancy_bt,2022.2.4,MacIntel,60.0024001,Chrome,1440,900,,,a,1.1882,10,82,0,0,9,9,9,1,0,0,0,1,1,0,0,0,star,triangle,,,,,,,,,,,,,,,,,,,,,,,,,,,,,,,,,,,,,,,,,,,,,,,,,,,,,,
293419,2022-11-15_12h22.59.226,vts_reward_expectancy_bt,2022.2.4,MacIntel,60.0024001,Chrome,1440,900,,,l,4.0832,10,92,0,0,10,10,8,1,0,0,1,0,0,0,0,1,hexagon,star,,,,,,,,,,,,,,,,,,,,,,,,,,,,,,,,,,,,,,,,,,,,,,,,,,,,,,
293419,2022-11-15_12h22.59.226,vts_reward_expectancy_bt,2022.2.4,MacIntel,60.0024001,Chrome,1440,900,,,a,2.9544,10,102,0,0,11,11,4,1,0,1,0,0,0,0,1,0,circle,hexagon,,,,,,,,,,,,,,,,,,,,,,,,,,,,,,,,,,,,,,,,,,,,,,,,,,,,,,
293419,2022-11-15_12h22.59.226,vts_reward_expectancy_bt,2022.2.4,MacIntel,60.0024001,Chrome,1440,900,,,a,1.5026,1,103,0,1,0,12,4,1,0,1,0,0,0,0,1,0,circle,hexagon,,,,,,,,,,,,,,,,,,,,,,,,,,,,,,,,,,,,,,,,,,,,,,,,,,,,,,
293419,2022-11-15_12h22.59.226,vts_reward_expectancy_bt,2022.2.4,MacIntel,60.0024001,Chrome,1440,900,,,l,0.9148,10,113,0,1,1,13,2,1,1,0,0,0,0,0,0,1,triangle,star,,,,,,,,,,,,,,,,,,,,,,,,,,,,,,,,,,,,,,,,,,,,,,,,,,,,,,
293419,2022-11-15_12h22.59.226,vts_reward_expectancy_bt,2022.2.4,MacIntel,60.0024001,Chrome,1440,900,,,a,1.4876,10,123,0,1,2,14,1,1,1,0,0,0,0,0,1,0,triangle,hexagon,,,,,,,,,,,,,,,,,,,,,,,,,,,,,,,,,,,,,,,,,,,,,,,,,,,,,,
293419,2022-11-15_12h22.59.226,vts_reward_expectancy_bt,2022.2.4,MacIntel,60.0024001,Chrome,1440,900,,,a,1.4003,10,133,0,1,3,15,6,1,0,0,1,0,1,0,0,0,hexagon,triangle,,,,,,,,,,,,,,,,,,,,,,,,,,,,,,,,,,,,,,,,,,,,,,,,,,,,,,
293419,2022-11-15_12h22.59.226,vts_reward_expectancy_bt,2022.2.4,MacIntel,60.0024001,Chrome,1440,900,,,a,4.4085,10,143,0,1,4,16,11,1,0,0,0,1,0,0,1,0,star,hexagon,,,,,,,,,,,,,,,,,,,,,,,,,,,,,,,,,,,,,,,,,,,,,,,,,,,,,,
293419,2022-11-15_12h22.59.226,vts_reward_expectancy_bt,2022.2.4,MacIntel,60.0024001,Chrome,1440,900,,,a,1.2734,10,153,0,1,5,17,9,1,0,0,0,1,1,0,0,0,star,triangle,,,,,,,,,,,,,,,,,,,,,,,,,,,,,,,,,,,,,,,,,,,,,,,,,,,,,,
293419,2022-11-15_12h22.59.226,vts_reward_expectancy_bt,2022.2.4,MacIntel,60.0024001,Chrome,1440,900,,,a,2.1397,1,154,0,1,6,18,0,1,1,0,0,0,0,1,0,0,triangle,circle,,,,,,,,,,,,,,,,,,,,,,,,,,,,,,,,,,,,,,,,,,,,,,,,,,,,,,
293419,2022-11-15_12h22.59.226,vts_reward_expectancy_bt,2022.2.4,MacIntel,60.0024001,Chrome,1440,900,,,a,1.2217,1,155,0,1,7,19,10,1,0,0,0,1,0,1,0,0,star ,circle,,,,,,,,,,,,,,,,,,,,,,,,,,,,,,,,,,,,,,,,,,,,,,,,,,,,,,
293419,2022-11-15_12h22.59.226,vts_reward_expectancy_bt,2022.2.4,MacIntel,60.0024001,Chrome,1440,900,,,l,1.2405,10,165,0,1,8,20,8,1,0,0,1,0,0,0,0,1,hexagon,star,,,,,,,,,,,,,,,,,,,,,,,,,,,,,,,,,,,,,,,,,,,,,,,,,,,,,,
293419,2022-11-15_12h22.59.226,vts_reward_expectancy_bt,2022.2.4,MacIntel,60.0024001,Chrome,1440,900,,,a,7.9109,10,175,0,1,9,21,7,1,0,0,1,0,0,1,0,0,hexagon,circle,,,,,,,,,,,,,,,,,,,,,,,,,,,,,,,,,,,,,,,,,,,,,,,,,,,,,,
293419,2022-11-15_12h22.59.226,vts_reward_expectancy_bt,2022.2.4,MacIntel,60.0024001,Chrome,1440,900,,,a,1.5745,10,185,0,1,10,22,5,1,0,1,0,0,0,0,0,1,circle,star,,,,,,,,,,,,,,,,,,,,,,,,,,,,,,,,,,,,,,,,,,,,,,,,,,,,,,
293419,2022-11-15_12h22.59.226,vts_reward_expectancy_bt,2022.2.4,MacIntel,60.0024001,Chrome,1440,900,,,a,0.9905,10,195,0,1,11,23,3,1,0,1,0,0,1,0,0,0,circle,triangle,,,,,,,,,,,,,,,,,,,,,,,,,,,,,,,,,,,,,,,,,,,,,,,,,,,,,,
293419,2022-11-15_12h22.59.226,vts_reward_expectancy_bt,2022.2.4,MacIntel,60.0024001,Chrome,1440,900,,,l,1.5527,10,205,0,2,0,24,1,1,1,0,0,0,0,0,1,0,triangle,hexagon,,,,,,,,,,,,,,,,,,,,,,,,,,,,,,,,,,,,,,,,,,,,,,,,,,,,,,
293419,2022-11-15_12h22.59.226,vts_reward_expectancy_bt,2022.2.4,MacIntel,60.0024001,Chrome,1440,900,,,l,1.0026,10,215,0,2,1,25,2,1,1,0,0,0,0,0,0,1,triangle,star,,,,,,,,,,,,,,,,,,,,,,,,,,,,,,,,,,,,,,,,,,,,,,,,,,,,,,
293419,2022-11-15_12h22.59.226,vts_reward_expectancy_bt,2022.2.4,MacIntel,60.0024001,Chrome,1440,900,,,a,0.716,1,216,0,2,2,26,9,1,0,0,0,1,1,0,0,0,star,triangle,,,,,,,,,,,,,,,,,,,,,,,,,,,,,,,,,,,,,,,,,,,,,,,,,,,,,,
293419,2022-11-15_12h22.59.226,vts_reward_expectancy_bt,2022.2.4,MacIntel,60.0024001,Chrome,1440,900,,,a,1.4836,1,217,0,2,3,27,5,1,0,1,0,0,0,0,0,1,circle,star,,,,,,,,,,,,,,,,,,,,,,,,,,,,,,,,,,,,,,,,,,,,,,,,,,,,,,
293419,2022-11-15_12h22.59.226,vts_reward_expectancy_bt,2022.2.4,MacIntel,60.0024001,Chrome,1440,900,,,a,1.1479,10,227,0,2,4,28,11,1,0,0,0,1,0,0,1,0,star,hexagon,,,,,,,,,,,,,,,,,,,,,,,,,,,,,,,,,,,,,,,,,,,,,,,,,,,,,,
293419,2022-11-15_12h22.59.226,vts_reward_expectancy_bt,2022.2.4,MacIntel,60.0024001,Chrome,1440,900,,,a,1.6063,10,237,0,2,5,29,0,1,1,0,0,0,0,1,0,0,triangle,circle,,,,,,,,,,,,,,,,,,,,,,,,,,,,,,,,,,,,,,,,,,,,,,,,,,,,,,
293419,2022-11-15_12h22.59.226,vts_reward_expectancy_bt,2022.2.4,MacIntel,60.0024001,Chrome,1440,900,,,l,20.8685,1,238,0,2,6,30,3,1,0,1,0,0,1,0,0,0,circle,triangle,,,,,,,,,,,,,,,,,,,,,,,,,,,,,,,,,,,,,,,,,,,,,,,,,,,,,,
293419,2022-11-15_12h22.59.226,vts_reward_expectancy_bt,2022.2.4,MacIntel,60.0024001,Chrome,1440,900,,,a,11.0509,1,239,0,2,7,31,10,1,0,0,0,1,0,1,0,0,star ,circle,,,,,,,,,,,,,,,,,,,,,,,,,,,,,,,,,,,,,,,,,,,,,,,,,,,,,,
293419,2022-11-15_12h22.59.226,vts_reward_expectancy_bt,2022.2.4,MacIntel,60.0024001,Chrome,1440,900,,,a,10.0625,1,240,0,2,8,32,4,1,0,1,0,0,0,0,1,0,circle,hexagon,,,,,,,,,,,,,,,,,,,,,,,,,,,,,,,,,,,,,,,,,,,,,,,,,,,,,,
293419,2022-11-15_12h22.59.226,vts_reward_expectancy_bt,2022.2.4,MacIntel,60.0024001,Chrome,1440,900,,,l,1.1543,1,241,0,2,9,33,6,1,0,0,1,0,1,0,0,0,hexagon,triangle,,,,,,,,,,,,,,,,,,,,,,,,,,,,,,,,,,,,,,,,,,,,,,,,,,,,,,
293419,2022-11-15_12h22.59.226,vts_reward_expectancy_bt,2022.2.4,MacIntel,60.0024001,Chrome,1440,900,,,a,0.8998,10,251,0,2,10,34,8,1,0,0,1,0,0,0,0,1,hexagon,star,,,,,,,,,,,,,,,,,,,,,,,,,,,,,,,,,,,,,,,,,,,,,,,,,,,,,,
293419,2022-11-15_12h22.59.226,vts_reward_expectancy_bt,2022.2.4,MacIntel,60.0024001,Chrome,1440,900,,,a,0.8862,1,252,0,2,11,35,7,1,0,0,1,0,0,1,0,0,hexagon,circle,,,,,,,,,,,,,,,,,,,,,,,,,,,,,,,,,,,,,,,,,,,,,,,,,,,,,,
293419,2022-11-15_12h22.59.226,vts_reward_expectancy_bt,2022.2.4,MacIntel,60.0024001,Chrome,1440,900,,,a,1.0943,1,253,1,0,0,0,9,1,0,0,0,1,1,0,0,0,star,triangle,,,,,,,,,,,,,,,,,,,,,,,,,,,,,,,,,,,,,,,,,,,,,,,,,,,,,,
293419,2022-11-15_12h22.59.226,vts_reward_expectancy_bt,2022.2.4,MacIntel,60.0024001,Chrome,1440,900,,,a,2.7918,10,263,1,0,1,1,1,1,1,0,0,0,0,0,1,0,triangle,hexagon,,,,,,,,,,,,,,,,,,,,,,,,,,,,,,,,,,,,,,,,,,,,,,,,,,,,,,
293419,2022-11-15_12h22.59.226,vts_reward_expectancy_bt,2022.2.4,MacIntel,60.0024001,Chrome,1440,900,,,l,1.5327,10,273,1,0,2,2,5,1,0,1,0,0,0,0,0,1,circle,star,,,,,,,,,,,,,,,,,,,,,,,,,,,,,,,,,,,,,,,,,,,,,,,,,,,,,,
293419,2022-11-15_12h22.59.226,vts_reward_expectancy_bt,2022.2.4,MacIntel,60.0024001,Chrome,1440,900,,,l,1.0829,1,274,1,0,3,3,10,1,0,0,0,1,0,1,0,0,star ,circle,,,,,,,,,,,,,,,,,,,,,,,,,,,,,,,,,,,,,,,,,,,,,,,,,,,,,,
293419,2022-11-15_12h22.59.226,vts_reward_expectancy_bt,2022.2.4,MacIntel,60.0024001,Chrome,1440,900,,,a,0.8683,1,275,1,0,4,4,0,1,1,0,0,0,0,1,0,0,triangle,circle,,,,,,,,,,,,,,,,,,,,,,,,,,,,,,,,,,,,,,,,,,,,,,,,,,,,,,
293419,2022-11-15_12h22.59.226,vts_reward_expectancy_bt,2022.2.4,MacIntel,60.0024001,Chrome,1440,900,,,a,1.3238,10,285,1,0,5,5,3,1,0,1,0,0,1,0,0,0,circle,triangle,,,,,,,,,,,,,,,,,,,,,,,,,,,,,,,,,,,,,,,,,,,,,,,,,,,,,,
293419,2022-11-15_12h22.59.226,vts_reward_expectancy_bt,2022.2.4,MacIntel,60.0024001,Chrome,1440,900,,,l,2.0358,1,286,1,0,6,6,6,1,0,0,1,0,1,0,0,0,hexagon,triangle,,,,,,,,,,,,,,,,,,,,,,,,,,,,,,,,,,,,,,,,,,,,,,,,,,,,,,
293419,2022-11-15_12h22.59.226,vts_reward_expectancy_bt,2022.2.4,MacIntel,60.0024001,Chrome,1440,900,,,l,1.6359,10,296,1,0,7,7,11,1,0,0,0,1,0,0,1,0,star,hexagon,,,,,,,,,,,,,,,,,,,,,,,,,,,,,,,,,,,,,,,,,,,,,,,,,,,,,,
293419,2022-11-15_12h22.59.226,vts_reward_expectancy_bt,2022.2.4,MacIntel,60.0024001,Chrome,1440,900,,,a,1.622,1,297,1,0,8,8,4,1,0,1,0,0,0,0,1,0,circle,hexagon,,,,,,,,,,,,,,,,,,,,,,,,,,,,,,,,,,,,,,,,,,,,,,,,,,,,,,
293419,2022-11-15_12h22.59.226,vts_reward_expectancy_bt,2022.2.4,MacIntel,60.0024001,Chrome,1440,900,,,a,1.3405,10,307,1,0,9,9,7,1,0,0,1,0,0,1,0,0,hexagon,circle,,,,,,,,,,,,,,,,,,,,,,,,,,,,,,,,,,,,,,,,,,,,,,,,,,,,,,
293419,2022-11-15_12h22.59.226,vts_reward_expectancy_bt,2022.2.4,MacIntel,60.0024001,Chrome,1440,900,,,a,1.5721,1,308,1,0,10,10,2,1,1,0,0,0,0,0,0,1,triangle,star,,,,,,,,,,,,,,,,,,,,,,,,,,,,,,,,,,,,,,,,,,,,,,,,,,,,,,
293419,2022-11-15_12h22.59.226,vts_reward_expectancy_bt,2022.2.4,MacIntel,60.0024001,Chrome,1440,900,,,a,0.963,1,309,1,0,11,11,8,1,0,0,1,0,0,0,0,1,hexagon,star,,,,,,,,,,,,,,,,,,,,,,,,,,,,,,,,,,,,,,,,,,,,,,,,,,,,,,
293419,2022-11-15_12h22.59.226,vts_reward_expectancy_bt,2022.2.4,MacIntel,60.0024001,Chrome,1440,900,,,a,2.6907,1,310,1,1,0,12,4,1,0,1,0,0,0,0,1,0,circle,hexagon,,,,,,,,,,,,,,,,,,,,,,,,,,,,,,,,,,,,,,,,,,,,,,,,,,,,,,
293419,2022-11-15_12h22.59.226,vts_reward_expectancy_bt,2022.2.4,MacIntel,60.0024001,Chrome,1440,900,,,a,1.5344,1,311,1,1,1,13,5,1,0,1,0,0,0,0,0,1,circle,star,,,,,,,,,,,,,,,,,,,,,,,,,,,,,,,,,,,,,,,,,,,,,,,,,,,,,,
293419,2022-11-15_12h22.59.226,vts_reward_expectancy_bt,2022.2.4,MacIntel,60.0024001,Chrome,1440,900,,,a,0.677,10,321,1,1,2,14,9,1,0,0,0,1,1,0,0,0,star,triangle,,,,,,,,,,,,,,,,,,,,,,,,,,,,,,,,,,,,,,,,,,,,,,,,,,,,,,
293419,2022-11-15_12h22.59.226,vts_reward_expectancy_bt,2022.2.4,MacIntel,60.0024001,Chrome,1440,900,,,l,1.004,10,331,1,1,3,15,1,1,1,0,0,0,0,0,1,0,triangle,hexagon,,,,,,,,,,,,,,,,,,,,,,,,,,,,,,,,,,,,,,,,,,,,,,,,,,,,,,
293419,2022-11-15_12h22.59.226,vts_reward_expectancy_bt,2022.2.4,MacIntel,60.0024001,Chrome,1440,900,,,l,1.016,10,341,1,1,4,16,0,1,1,0,0,0,0,1,0,0,triangle,circle,,,,,,,,,,,,,,,,,,,,,,,,,,,,,,,,,,,,,,,,,,,,,,,,,,,,,,
293419,2022-11-15_12h22.59.226,vts_reward_expectancy_bt,2022.2.4,MacIntel,60.0024001,Chrome,1440,900,,,a,0.6207,10,351,1,1,5,17,3,1,0,1,0,0,1,0,0,0,circle,triangle,,,,,,,,,,,,,,,,,,,,,,,,,,,,,,,,,,,,,,,,,,,,,,,,,,,,,,
293419,2022-11-15_12h22.59.226,vts_reward_expectancy_bt,2022.2.4,MacIntel,60.0024001,Chrome,1440,900,,,a,0.9979,10,361,1,1,6,18,7,1,0,0,1,0,0,1,0,0,hexagon,circle,,,,,,,,,,,,,,,,,,,,,,,,,,,,,,,,,,,,,,,,,,,,,,,,,,,,,,
293419,2022-11-15_12h22.59.226,vts_reward_expectancy_bt,2022.2.4,MacIntel,60.0024001,Chrome,1440,900,,,l,1.1508,1,362,1,1,7,19,11,1,0,0,0,1,0,0,1,0,star,hexagon,,,,,,,,,,,,,,,,,,,,,,,,,,,,,,,,,,,,,,,,,,,,,,,,,,,,,,
293419,2022-11-15_12h22.59.226,vts_reward_expectancy_bt,2022.2.4,MacIntel,60.0024001,Chrome,1440,900,,,a,0.4414,1,363,1,1,8,20,10,1,0,0,0,1,0,1,0,0,star ,circle,,,,,,,,,,,,,,,,,,,,,,,,,,,,,,,,,,,,,,,,,,,,,,,,,,,,,,
293419,2022-11-15_12h22.59.226,vts_reward_expectancy_bt,2022.2.4,MacIntel,60.0024001,Chrome,1440,900,,,l,0.9573,10,373,1,1,9,21,2,1,1,0,0,0,0,0,0,1,triangle,star,,,,,,,,,,,,,,,,,,,,,,,,,,,,,,,,,,,,,,,,,,,,,,,,,,,,,,
293419,2022-11-15_12h22.59.226,vts_reward_expectancy_bt,2022.2.4,MacIntel,60.0024001,Chrome,1440,900,,,l,0.9222,1,374,1,1,10,22,8,1,0,0,1,0,0,0,0,1,hexagon,star,,,,,,,,,,,,,,,,,,,,,,,,,,,,,,,,,,,,,,,,,,,,,,,,,,,,,,
293419,2022-11-15_12h22.59.226,vts_reward_expectancy_bt,2022.2.4,MacIntel,60.0024001,Chrome,1440,900,,,a,1.9822,10,384,1,1,11,23,6,1,0,0,1,0,1,0,0,0,hexagon,triangle,,,,,,,,,,,,,,,,,,,,,,,,,,,,,,,,,,,,,,,,,,,,,,,,,,,,,,
293419,2022-11-15_12h22.59.226,vts_reward_expectancy_bt,2022.2.4,MacIntel,60.0024001,Chrome,1440,900,,,a,1.1846,10,394,1,2,0,24,4,1,0,1,0,0,0,0,1,0,circle,hexagon,,,,,,,,,,,,,,,,,,,,,,,,,,,,,,,,,,,,,,,,,,,,,,,,,,,,,,
293419,2022-11-15_12h22.59.226,vts_reward_expectancy_bt,2022.2.4,MacIntel,60.0024001,Chrome,1440,900,,,a,1.9083,10,404,1,2,1,25,9,1,0,0,0,1,1,0,0,0,star,triangle,,,,,,,,,,,,,,,,,,,,,,,,,,,,,,,,,,,,,,,,,,,,,,,,,,,,,,
293419,2022-11-15_12h22.59.226,vts_reward_expectancy_bt,2022.2.4,MacIntel,60.0024001,Chrome,1440,900,,,a,0.8008,10,414,1,2,2,26,7,1,0,0,1,0,0,1,0,0,hexagon,circle,,,,,,,,,,,,,,,,,,,,,,,,,,,,,,,,,,,,,,,,,,,,,,,,,,,,,,
293419,2022-11-15_12h22.59.226,vts_reward_expectancy_bt,2022.2.4,MacIntel,60.0024001,Chrome,1440,900,,,a,0.5373,10,424,1,2,3,27,10,1,0,0,0,1,0,1,0,0,star ,circle,,,,,,,,,,,,,,,,,,,,,,,,,,,,,,,,,,,,,,,,,,,,,,,,,,,,,,
293419,2022-11-15_12h22.59.226,vts_reward_expectancy_bt,2022.2.4,MacIntel,60.0024001,Chrome,1440,900,,,l,0.5675,10,434,1,2,4,28,0,1,1,0,0,0,0,1,0,0,triangle,circle,,,,,,,,,,,,,,,,,,,,,,,,,,,,,,,,,,,,,,,,,,,,,,,,,,,,,,
293419,2022-11-15_12h22.59.226,vts_reward_expectancy_bt,2022.2.4,MacIntel,60.0024001,Chrome,1440,900,,,a,0.6679,10,444,1,2,5,29,6,1,0,0,1,0,1,0,0,0,hexagon,triangle,,,,,,,,,,,,,,,,,,,,,,,,,,,,,,,,,,,,,,,,,,,,,,,,,,,,,,
293419,2022-11-15_12h22.59.226,vts_reward_expectancy_bt,2022.2.4,MacIntel,60.0024001,Chrome,1440,900,,,l,0.5249,10,454,1,2,6,30,1,1,1,0,0,0,0,0,1,0,triangle,hexagon,,,,,,,,,,,,,,,,,,,,,,,,,,,,,,,,,,,,,,,,,,,,,,,,,,,,,,
293419,2022-11-15_12h22.59.226,vts_reward_expectancy_bt,2022.2.4,MacIntel,60.0024001,Chrome,1440,900,,,a,0.584,10,464,1,2,7,31,8,1,0,0,1,0,0,0,0,1,hexagon,star,,,,,,,,,,,,,,,,,,,,,,,,,,,,,,,,,,,,,,,,,,,,,,,,,,,,,,
293419,2022-11-15_12h22.59.226,vts_reward_expectancy_bt,2022.2.4,MacIntel,60.0024001,Chrome,1440,900,,,l,0.6034,10,474,1,2,8,32,11,1,0,0,0,1,0,0,1,0,star,hexagon,,,,,,,,,,,,,,,,,,,,,,,,,,,,,,,,,,,,,,,,,,,,,,,,,,,,,,
293419,2022-11-15_12h22.59.226,vts_reward_expectancy_bt,2022.2.4,MacIntel,60.0024001,Chrome,1440,900,,,a,0.941,1,475,1,2,9,33,3,1,0,1,0,0,1,0,0,0,circle,triangle,,,,,,,,,,,,,,,,,,,,,,,,,,,,,,,,,,,,,,,,,,,,,,,,,,,,,,
293419,2022-11-15_12h22.59.226,vts_reward_expectancy_bt,2022.2.4,MacIntel,60.0024001,Chrome,1440,900,,,l,0.3754,10,485,1,2,10,34,5,1,0,1,0,0,0,0,0,1,circle,star,,,,,,,,,,,,,,,,,,,,,,,,,,,,,,,,,,,,,,,,,,,,,,,,,,,,,,
293419,2022-11-15_12h22.59.226,vts_reward_expectancy_bt,2022.2.4,MacIntel,60.0024001,Chrome,1440,900,,,l,0.5246,10,495,1,2,11,35,2,1,1,0,0,0,0,0,0,1,triangle,star,,,,,,,,,,,,,,,,,,,,,,,,,,,,,,,,,,,,,,,,,,,,,,,,,,,,,,
293419,2022-11-15_12h22.59.226,vts_reward_expectancy_bt,2022.2.4,MacIntel,60.0024001,Chrome,1440,900,,,l,0.6307,1,496,2,0,0,0,3,1,0,1,0,0,1,0,0,0,circle,triangle,,,,,,,,,,,,,,,,,,,,,,,,,,,,,,,,,,,,,,,,,,,,,,,,,,,,,,
293419,2022-11-15_12h22.59.226,vts_reward_expectancy_bt,2022.2.4,MacIntel,60.0024001,Chrome,1440,900,,,a,0.44,1,497,2,0,1,1,4,1,0,1,0,0,0,0,1,0,circle,hexagon,,,,,,,,,,,,,,,,,,,,,,,,,,,,,,,,,,,,,,,,,,,,,,,,,,,,,,
293419,2022-11-15_12h22.59.226,vts_reward_expectancy_bt,2022.2.4,MacIntel,60.0024001,Chrome,1440,900,,,a,1.1431,10,507,2,0,2,2,6,1,0,0,1,0,1,0,0,0,hexagon,triangle,,,,,,,,,,,,,,,,,,,,,,,,,,,,,,,,,,,,,,,,,,,,,,,,,,,,,,
293419,2022-11-15_12h22.59.226,vts_reward_expectancy_bt,2022.2.4,MacIntel,60.0024001,Chrome,1440,900,,,a,1.0044,10,517,2,0,3,3,9,1,0,0,0,1,1,0,0,0,star,triangle,,,,,,,,,,,,,,,,,,,,,,,,,,,,,,,,,,,,,,,,,,,,,,,,,,,,,,
293419,2022-11-15_12h22.59.226,vts_reward_expectancy_bt,2022.2.4,MacIntel,60.0024001,Chrome,1440,900,,,l,0.7727,1,518,2,0,4,4,0,1,1,0,0,0,0,1,0,0,triangle,circle,,,,,,,,,,,,,,,,,,,,,,,,,,,,,,,,,,,,,,,,,,,,,,,,,,,,,,
293419,2022-11-15_12h22.59.226,vts_reward_expectancy_bt,2022.2.4,MacIntel,60.0024001,Chrome,1440,900,,,a,0.3157,1,519,2,0,5,5,10,1,0,0,0,1,0,1,0,0,star ,circle,,,,,,,,,,,,,,,,,,,,,,,,,,,,,,,,,,,,,,,,,,,,,,,,,,,,,,
293419,2022-11-15_12h22.59.226,vts_reward_expectancy_bt,2022.2.4,MacIntel,60.0024001,Chrome,1440,900,,,l,0.6483,1,520,2,0,6,6,7,1,0,0,1,0,0,1,0,0,hexagon,circle,,,,,,,,,,,,,,,,,,,,,,,,,,,,,,,,,,,,,,,,,,,,,,,,,,,,,,
293419,2022-11-15_12h22.59.226,vts_reward_expectancy_bt,2022.2.4,MacIntel,60.0024001,Chrome,1440,900,,,a,1.7517,10,530,2,0,7,7,5,1,0,1,0,0,0,0,0,1,circle,star,,,,,,,,,,,,,,,,,,,,,,,,,,,,,,,,,,,,,,,,,,,,,,,,,,,,,,
293419,2022-11-15_12h22.59.226,vts_reward_expectancy_bt,2022.2.4,MacIntel,60.0024001,Chrome,1440,900,,,l,0.6743,10,540,2,0,8,8,1,1,1,0,0,0,0,0,1,0,triangle,hexagon,,,,,,,,,,,,,,,,,,,,,,,,,,,,,,,,,,,,,,,,,,,,,,,,,,,,,,
293419,2022-11-15_12h22.59.226,vts_reward_expectancy_bt,2022.2.4,MacIntel,60.0024001,Chrome,1440,900,,,l,0.5164,1,541,2,0,9,9,2,1,1,0,0,0,0,0,0,1,triangle,star,,,,,,,,,,,,,,,,,,,,,,,,,,,,,,,,,,,,,,,,,,,,,,,,,,,,,,
293419,2022-11-15_12h22.59.226,vts_reward_expectancy_bt,2022.2.4,MacIntel,60.0024001,Chrome,1440,900,,,a,1.4074,10,551,2,0,10,10,8,1,0,0,1,0,0,0,0,1,hexagon,star,,,,,,,,,,,,,,,,,,,,,,,,,,,,,,,,,,,,,,,,,,,,,,,,,,,,,,
293419,2022-11-15_12h22.59.226,vts_reward_expectancy_bt,2022.2.4,MacIntel,60.0024001,Chrome,1440,900,,,l,0.6585,10,561,2,0,11,11,11,1,0,0,0,1,0,0,1,0,star,hexagon,,,,,,,,,,,,,,,,,,,,,,,,,,,,,,,,,,,,,,,,,,,,,,,,,,,,,,
293419,2022-11-15_12h22.59.226,vts_reward_expectancy_bt,2022.2.4,MacIntel,60.0024001,Chrome,1440,900,,,l,0.8668,1,562,2,1,0,12,10,1,0,0,0,1,0,1,0,0,star ,circle,,,,,,,,,,,,,,,,,,,,,,,,,,,,,,,,,,,,,,,,,,,,,,,,,,,,,,
293419,2022-11-15_12h22.59.226,vts_reward_expectancy_bt,2022.2.4,MacIntel,60.0024001,Chrome,1440,900,,,l,0.9799,1,563,2,1,1,13,1,1,1,0,0,0,0,0,1,0,triangle,hexagon,,,,,,,,,,,,,,,,,,,,,,,,,,,,,,,,,,,,,,,,,,,,,,,,,,,,,,
293419,2022-11-15_12h22.59.226,vts_reward_expectancy_bt,2022.2.4,MacIntel,60.0024001,Chrome,1440,900,,,a,0.814,1,564,2,1,2,14,7,1,0,0,1,0,0,1,0,0,hexagon,circle,,,,,,,,,,,,,,,,,,,,,,,,,,,,,,,,,,,,,,,,,,,,,,,,,,,,,,
293419,2022-11-15_12h22.59.226,vts_reward_expectancy_bt,2022.2.4,MacIntel,60.0024001,Chrome,1440,900,,,l,1.3175,1,565,2,1,3,15,8,1,0,0,1,0,0,0,0,1,hexagon,star,,,,,,,,,,,,,,,,,,,,,,,,,,,,,,,,,,,,,,,,,,,,,,,,,,,,,,
293419,2022-11-15_12h22.59.226,vts_reward_expectancy_bt,2022.2.4,MacIntel,60.0024001,Chrome,1440,900,,,a,1.2664,10,575,2,1,4,16,4,1,0,1,0,0,0,0,1,0,circle,hexagon,,,,,,,,,,,,,,,,,,,,,,,,,,,,,,,,,,,,,,,,,,,,,,,,,,,,,,
293419,2022-11-15_12h22.59.226,vts_reward_expectancy_bt,2022.2.4,MacIntel,60.0024001,Chrome,1440,900,,,a,0.5566,1,576,2,1,5,17,2,1,1,0,0,0,0,0,0,1,triangle,star,,,,,,,,,,,,,,,,,,,,,,,,,,,,,,,,,,,,,,,,,,,,,,,,,,,,,,
293419,2022-11-15_12h22.59.226,vts_reward_expectancy_bt,2022.2.4,MacIntel,60.0024001,Chrome,1440,900,,,a,1.6477,1,577,2,1,6,18,5,1,0,1,0,0,0,0,0,1,circle,star,,,,,,,,,,,,,,,,,,,,,,,,,,,,,,,,,,,,,,,,,,,,,,,,,,,,,,
293419,2022-11-15_12h22.59.226,vts_reward_expectancy_bt,2022.2.4,MacIntel,60.0024001,Chrome,1440,900,,,a,0.6359,10,587,2,1,7,19,6,1,0,0,1,0,1,0,0,0,hexagon,triangle,,,,,,,,,,,,,,,,,,,,,,,,,,,,,,,,,,,,,,,,,,,,,,,,,,,,,,
293419,2022-11-15_12h22.59.226,vts_reward_expectancy_bt,2022.2.4,MacIntel,60.0024001,Chrome,1440,900,,,a,0.4652,1,588,2,1,8,20,0,1,1,0,0,0,0,1,0,0,triangle,circle,,,,,,,,,,,,,,,,,,,,,,,,,,,,,,,,,,,,,,,,,,,,,,,,,,,,,,
293419,2022-11-15_12h22.59.226,vts_reward_expectancy_bt,2022.2.4,MacIntel,60.0024001,Chrome,1440,900,,,a,1.1721,1,589,2,1,9,21,3,1,0,1,0,0,1,0,0,0,circle,triangle,,,,,,,,,,,,,,,,,,,,,,,,,,,,,,,,,,,,,,,,,,,,,,,,,,,,,,
293419,2022-11-15_12h22.59.226,vts_reward_expectancy_bt,2022.2.4,MacIntel,60.0024001,Chrome,1440,900,,,a,0.8756,10,599,2,1,10,22,11,1,0,0,0,1,0,0,1,0,star,hexagon,,,,,,,,,,,,,,,,,,,,,,,,,,,,,,,,,,,,,,,,,,,,,,,,,,,,,,
293419,2022-11-15_12h22.59.226,vts_reward_expectancy_bt,2022.2.4,MacIntel,60.0024001,Chrome,1440,900,,,l,0.9601,1,600,2,1,11,23,9,1,0,0,0,1,1,0,0,0,star,triangle,,,,,,,,,,,,,,,,,,,,,,,,,,,,,,,,,,,,,,,,,,,,,,,,,,,,,,
293419,2022-11-15_12h22.59.226,vts_reward_expectancy_bt,2022.2.4,MacIntel,60.0024001,Chrome,1440,900,,,a,1.0484,1,601,2,2,0,24,2,1,1,0,0,0,0,0,0,1,triangle,star,,,,,,,,,,,,,,,,,,,,,,,,,,,,,,,,,,,,,,,,,,,,,,,,,,,,,,
293419,2022-11-15_12h22.59.226,vts_reward_expectancy_bt,2022.2.4,MacIntel,60.0024001,Chrome,1440,900,,,l,0.4523,10,611,2,2,1,25,0,1,1,0,0,0,0,1,0,0,triangle,circle,,,,,,,,,,,,,,,,,,,,,,,,,,,,,,,,,,,,,,,,,,,,,,,,,,,,,,
293419,2022-11-15_12h22.59.226,vts_reward_expectancy_bt,2022.2.4,MacIntel,60.0024001,Chrome,1440,900,,,l,0.8567,10,621,2,2,2,26,8,1,0,0,1,0,0,0,0,1,hexagon,star,,,,,,,,,,,,,,,,,,,,,,,,,,,,,,,,,,,,,,,,,,,,,,,,,,,,,,
293419,2022-11-15_12h22.59.226,vts_reward_expectancy_bt,2022.2.4,MacIntel,60.0024001,Chrome,1440,900,,,l,0.4873,10,631,2,2,3,27,1,1,1,0,0,0,0,0,1,0,triangle,hexagon,,,,,,,,,,,,,,,,,,,,,,,,,,,,,,,,,,,,,,,,,,,,,,,,,,,,,,
293419,2022-11-15_12h22.59.226,vts_reward_expectancy_bt,2022.2.4,MacIntel,60.0024001,Chrome,1440,900,,,a,0.3899,1,632,2,2,4,28,3,1,0,1,0,0,1,0,0,0,circle,triangle,,,,,,,,,,,,,,,,,,,,,,,,,,,,,,,,,,,,,,,,,,,,,,,,,,,,,,
293419,2022-11-15_12h22.59.226,vts_reward_expectancy_bt,2022.2.4,MacIntel,60.0024001,Chrome,1440,900,,,a,0.683,10,642,2,2,5,29,11,1,0,0,0,1,0,0,1,0,star,hexagon,,,,,,,,,,,,,,,,,,,,,,,,,,,,,,,,,,,,,,,,,,,,,,,,,,,,,,
293419,2022-11-15_12h22.59.226,vts_reward_expectancy_bt,2022.2.4,MacIntel,60.0024001,Chrome,1440,900,,,a,0.5824,1,643,2,2,6,30,9,1,0,0,0,1,1,0,0,0,star,triangle,,,,,,,,,,,,,,,,,,,,,,,,,,,,,,,,,,,,,,,,,,,,,,,,,,,,,,
293419,2022-11-15_12h22.59.226,vts_reward_expectancy_bt,2022.2.4,MacIntel,60.0024001,Chrome,1440,900,,,a,1.4684,1,644,2,2,7,31,10,1,0,0,0,1,0,1,0,0,star ,circle,,,,,,,,,,,,,,,,,,,,,,,,,,,,,,,,,,,,,,,,,,,,,,,,,,,,,,
293419,2022-11-15_12h22.59.226,vts_reward_expectancy_bt,2022.2.4,MacIntel,60.0024001,Chrome,1440,900,,,l,1.8863,1,645,2,2,8,32,7,1,0,0,1,0,0,1,0,0,hexagon,circle,,,,,,,,,,,,,,,,,,,,,,,,,,,,,,,,,,,,,,,,,,,,,,,,,,,,,,
293419,2022-11-15_12h22.59.226,vts_reward_expectancy_bt,2022.2.4,MacIntel,60.0024001,Chrome,1440,900,,,a,1.8363,10,655,2,2,9,33,6,1,0,0,1,0,1,0,0,0,hexagon,triangle,,,,,,,,,,,,,,,,,,,,,,,,,,,,,,,,,,,,,,,,,,,,,,,,,,,,,,
293419,2022-11-15_12h22.59.226,vts_reward_expectancy_bt,2022.2.4,MacIntel,60.0024001,Chrome,1440,900,,,a,0.8719,1,656,2,2,10,34,5,1,0,1,0,0,0,0,0,1,circle,star,,,,,,,,,,,,,,,,,,,,,,,,,,,,,,,,,,,,,,,,,,,,,,,,,,,,,,
293419,2022-11-15_12h22.59.226,vts_reward_expectancy_bt,2022.2.4,MacIntel,60.0024001,Chrome,1440,900,,,l,1.777,10,666,2,2,11,35,4,1,0,1,0,0,0,0,1,0,circle,hexagon,,,,,,,,,,,,,,,,,,,,,,,,,,,,,,,,,,,,,,,,,,,,,,,,,,,,,,
293419,2022-11-15_12h22.59.226,vts_reward_expectancy_bt,2022.2.4,MacIntel,60.0024001,Chrome,1440,900,,,,,,,,,,,,,,,,,,,,,,,181,F,triangle,0,0,d,1.1285,0,0,0,0,0,1,,,,,,,,,,,,,,,,,,,,,,,,,,,,,,,,,,,,,,,,,
293419,2022-11-15_12h22.59.226,vts_reward_expectancy_bt,2022.2.4,MacIntel,60.0024001,Chrome,1440,900,,,,,,,,,,,,,,,,,,,,,,,167,H,hexagon,1,1,f,0.7975,0,1,0,1,0,1,,,,,,,,,,,,,,,,,,,,,,,,,,,,,,,,,,,,,,,,,
293419,2022-11-15_12h22.59.226,vts_reward_expectancy_bt,2022.2.4,MacIntel,60.0024001,Chrome,1440,900,,,,,,,,,,,,,,,,,,,,,,,146,U,circle,1,0,d,0.5999,0,2,0,2,0,1,,,,,,,,,,,,,,,,,,,,,,,,,,,,,,,,,,,,,,,,,
293419,2022-11-15_12h22.59.226,vts_reward_expectancy_bt,2022.2.4,MacIntel,60.0024001,Chrome,1440,900,,,,,,,,,,,,,,,,,,,,,,,160,D,star,1,0,f,0.5288,0,3,0,3,0,1,,,,,,,,,,,,,,,,,,,,,,,,,,,,,,,,,,,,,,,,,
293419,2022-11-15_12h22.59.226,vts_reward_expectancy_bt,2022.2.4,MacIntel,60.0024001,Chrome,1440,900,,,,,,,,,,,,,,,,,,,,,,,132,S,triangle,1,0,d,0.5144,0,4,0,4,0,1,,,,,,,,,,,,,,,,,,,,,,,,,,,,,,,,,,,,,,,,,
293419,2022-11-15_12h22.59.226,vts_reward_expectancy_bt,2022.2.4,MacIntel,60.0024001,Chrome,1440,900,,,,,,,,,,,,,,,,,,,,,,,125,W,hexagon,1,0,d,0.7617,0,5,0,5,0,1,,,,,,,,,,,,,,,,,,,,,,,,,,,,,,,,,,,,,,,,,
293419,2022-11-15_12h22.59.226,vts_reward_expectancy_bt,2022.2.4,MacIntel,60.0024001,Chrome,1440,900,,,,,,,,,,,,,,,,,,,,,,,174,Y,circle,1,0,f,0.4463,0,6,0,6,0,1,,,,,,,,,,,,,,,,,,,,,,,,,,,,,,,,,,,,,,,,,
293419,2022-11-15_12h22.59.226,vts_reward_expectancy_bt,2022.2.4,MacIntel,60.0024001,Chrome,1440,900,,,,,,,,,,,,,,,,,,,,,,,139,B,star,1,0,d,0.348,0,7,0,7,0,1,,,,,,,,,,,,,,,,,,,,,,,,,,,,,,,,,,,,,,,,,
293419,2022-11-15_12h22.59.226,vts_reward_expectancy_bt,2022.2.4,MacIntel,60.0024001,Chrome,1440,900,,,,,,,,,,,,,,,,,,,,,,,181,F,triangle,1,0,f,0.4336,0,8,0,8,0,1,,,,,,,,,,,,,,,,,,,,,,,,,,,,,,,,,,,,,,,,,
293419,2022-11-15_12h22.59.226,vts_reward_expectancy_bt,2022.2.4,MacIntel,60.0024001,Chrome,1440,900,,,,,,,,,,,,,,,,,,,,,,,167,H,hexagon,0,0,d,0.4688,0,9,0,9,0,1,,,,,,,,,,,,,,,,,,,,,,,,,,,,,,,,,,,,,,,,,
293419,2022-11-15_12h22.59.226,vts_reward_expectancy_bt,2022.2.4,MacIntel,60.0024001,Chrome,1440,900,,,,,,,,,,,,,,,,,,,,,,,132,S,hexagon,1,1,d,0.8948,1,0,0,0,0,1,,,,,,,,,,,,,,,,,,,,,,,,,,,,,,,,,,,,,,,,,
293419,2022-11-15_12h22.59.226,vts_reward_expectancy_bt,2022.2.4,MacIntel,60.0024001,Chrome,1440,900,,,,,,,,,,,,,,,,,,,,,,,160,F,triangle,1,0,f,0.5142,1,1,0,1,0,1,,,,,,,,,,,,,,,,,,,,,,,,,,,,,,,,,,,,,,,,,
293419,2022-11-15_12h22.59.226,vts_reward_expectancy_bt,2022.2.4,MacIntel,60.0024001,Chrome,1440,900,,,,,,,,,,,,,,,,,,,,,,,167,B,star,1,0,f,0.6796,1,2,0,2,0,1,,,,,,,,,,,,,,,,,,,,,,,,,,,,,,,,,,,,,,,,,
293419,2022-11-15_12h22.59.226,vts_reward_expectancy_bt,2022.2.4,MacIntel,60.0024001,Chrome,1440,900,,,,,,,,,,,,,,,,,,,,,,,174,H,circle,1,0,f,0.5961,1,3,0,3,0,1,,,,,,,,,,,,,,,,,,,,,,,,,,,,,,,,,,,,,,,,,
293419,2022-11-15_12h22.59.226,vts_reward_expectancy_bt,2022.2.4,MacIntel,60.0024001,Chrome,1440,900,,,,,,,,,,,,,,,,,,,,,,,125,W,hexagon,1,0,d,0.5337,1,4,0,4,0,1,,,,,,,,,,,,,,,,,,,,,,,,,,,,,,,,,,,,,,,,,
293419,2022-11-15_12h22.59.226,vts_reward_expectancy_bt,2022.2.4,MacIntel,60.0024001,Chrome,1440,900,,,,,,,,,,,,,,,,,,,,,,,181,U,triangle,1,0,f,0.4384,1,5,0,5,0,1,,,,,,,,,,,,,,,,,,,,,,,,,,,,,,,,,,,,,,,,,
293419,2022-11-15_12h22.59.226,vts_reward_expectancy_bt,2022.2.4,MacIntel,60.0024001,Chrome,1440,900,,,,,,,,,,,,,,,,,,,,,,,139,D,star,1,0,d,0.4812,1,6,0,6,0,1,,,,,,,,,,,,,,,,,,,,,,,,,,,,,,,,,,,,,,,,,
293419,2022-11-15_12h22.59.226,vts_reward_expectancy_bt,2022.2.4,MacIntel,60.0024001,Chrome,1440,900,,,,,,,,,,,,,,,,,,,,,,,146,Y,circle,0,0,f,0.3151,1,7,0,7,0,1,,,,,,,,,,,,,,,,,,,,,,,,,,,,,,,,,,,,,,,,,
293419,2022-11-15_12h22.59.226,vts_reward_expectancy_bt,2022.2.4,MacIntel,60.0024001,Chrome,1440,900,,,,,,,,,,,,,,,,,,,,,,,132,S,star,1,1,d,0.6639,1,8,0,8,0,1,,,,,,,,,,,,,,,,,,,,,,,,,,,,,,,,,,,,,,,,,
293419,2022-11-15_12h22.59.226,vts_reward_expectancy_bt,2022.2.4,MacIntel,60.0024001,Chrome,1440,900,,,,,,,,,,,,,,,,,,,,,,,160,F,hexagon,1,0,f,0.7813,1,9,0,9,0,1,,,,,,,,,,,,,,,,,,,,,,,,,,,,,,,,,,,,,,,,,
293419,2022-11-15_12h22.59.226,vts_reward_expectancy_bt,2022.2.4,MacIntel,60.0024001,Chrome,1440,900,,,,,,,,,,,,,,,,,,,,,,,146,U,star,0,0,,,2,,,,,,,0,0,0,0,1,,,,,,,,,,,,,,,,,,,,,,,,,,,,,,,,,,,
293419,2022-11-15_12h22.59.226,vts_reward_expectancy_bt,2022.2.4,MacIntel,60.0024001,Chrome,1440,900,,,,,,,,,,,,,,,,,,,,,,,181,F,hexagon,1,1,,,2,,,,,,j,1,0,1,0,1,0.8304,,,,,,,,,,,,,,,,,,,,,,,,,,,,,,,,,,
293419,2022-11-15_12h22.59.226,vts_reward_expectancy_bt,2022.2.4,MacIntel,60.0024001,Chrome,1440,900,,,,,,,,,,,,,,,,,,,,,,,167,W,circle,1,0,,,2,,,,,,k,2,0,2,0,1,0.634,,,,,,,,,,,,,,,,,,,,,,,,,,,,,,,,,,
293419,2022-11-15_12h22.59.226,vts_reward_expectancy_bt,2022.2.4,MacIntel,60.0024001,Chrome,1440,900,,,,,,,,,,,,,,,,,,,,,,,139,H,triangle,1,0,,,2,,,,,,j,3,0,3,0,1,0.8948,,,,,,,,,,,,,,,,,,,,,,,,,,,,,,,,,,
293419,2022-11-15_12h22.59.226,vts_reward_expectancy_bt,2022.2.4,MacIntel,60.0024001,Chrome,1440,900,,,,,,,,,,,,,,,,,,,,,,,125,D,star,1,0,,,2,,,,,,j,4,0,4,0,1,0.7364,,,,,,,,,,,,,,,,,,,,,,,,,,,,,,,,,,
293419,2022-11-15_12h22.59.226,vts_reward_expectancy_bt,2022.2.4,MacIntel,60.0024001,Chrome,1440,900,,,,,,,,,,,,,,,,,,,,,,,160,S,hexagon,1,0,,,2,,,,,,k,5,0,5,0,1,1.2293,,,,,,,,,,,,,,,,,,,,,,,,,,,,,,,,,,
293419,2022-11-15_12h22.59.226,vts_reward_expectancy_bt,2022.2.4,MacIntel,60.0024001,Chrome,1440,900,,,,,,,,,,,,,,,,,,,,,,,132,B,circle,1,0,,,2,,,,,,j,6,0,6,0,1,0.5385,,,,,,,,,,,,,,,,,,,,,,,,,,,,,,,,,,
293419,2022-11-15_12h22.59.226,vts_reward_expectancy_bt,2022.2.4,MacIntel,60.0024001,Chrome,1440,900,,,,,,,,,,,,,,,,,,,,,,,174,Y,triangle,1,0,,,2,,,,,,k,7,0,7,0,1,0.7507,,,,,,,,,,,,,,,,,,,,,,,,,,,,,,,,,,
293419,2022-11-15_12h22.59.226,vts_reward_expectancy_bt,2022.2.4,MacIntel,60.0024001,Chrome,1440,900,,,,,,,,,,,,,,,,,,,,,,,146,U,circle,1,0,,,2,,,,,,k,8,0,8,0,1,0.7127,,,,,,,,,,,,,,,,,,,,,,,,,,,,,,,,,,
293419,2022-11-15_12h22.59.226,vts_reward_expectancy_bt,2022.2.4,MacIntel,60.0024001,Chrome,1440,900,,,,,,,,,,,,,,,,,,,,,,,181,F,hexagon,1,0,,,2,,,,,,j,9,0,9,0,1,0.5965,,,,,,,,,,,,,,,,,,,,,,,,,,,,,,,,,,
293419,2022-11-15_12h22.59.226,vts_reward_expectancy_bt,2022.2.4,MacIntel,60.0024001,Chrome,1440,900,,,,,0,666,,,,,,,,,,,,,,,,,167,H,hexagon,0,0,,,3,,,,,,,,,,,,,-1,number,NA,d,1.2404,vtsPrac,0,0,0,0,1,,,,,,,,,,,,,,,,,,,,,,,
293419,2022-11-15_12h22.59.226,vts_reward_expectancy_bt,2022.2.4,MacIntel,60.0024001,Chrome,1440,900,,,,,0,666,,,,,,,,,,,,,,,,,146,D,circle,0,1,,,3,,,,,,,,,,,,,repeat,number,NA,f,0.8302,vtsPrac,1,0,1,0,1,,,,,,,,,,,,,,,,,,,,,,,
293419,2022-11-15_12h22.59.226,vts_reward_expectancy_bt,2022.2.4,MacIntel,60.0024001,Chrome,1440,900,,,,,0,666,,,,,,,,,,,,,,,,,181,B,hexagon,1,1,,,3,,,,,,,,,,,,,switch,letter,lettSwt,j,0.6784,vtsPrac,2,0,2,0,1,,,,,,,,,,,,,,,,,,,,,,,
293419,2022-11-15_12h22.59.226,vts_reward_expectancy_bt,2022.2.4,MacIntel,60.0024001,Chrome,1440,900,,,,,0,666,,,,,,,,,,,,,,,,,174,Y,circle,1,0,,,3,,,,,,,,,,,,,repeat,letter,lettRpt,k,0.696,vtsPrac,3,0,3,0,1,,,,,,,,,,,,,,,,,,,,,,,
293419,2022-11-15_12h22.59.226,vts_reward_expectancy_bt,2022.2.4,MacIntel,60.0024001,Chrome,1440,900,,,,,0,666,,,,,,,,,,,,,,,,,167,H,triangle,0,0,,,3,,,,,,,,,,,,,repeat,letter,NA,k,0.6626,vtsPrac,4,0,4,0,1,,,,,,,,,,,,,,,,,,,,,,,
293419,2022-11-15_12h22.59.226,vts_reward_expectancy_bt,2022.2.4,MacIntel,60.0024001,Chrome,1440,900,,,,,0,666,,,,,,,,,,,,,,,,,146,D,hexagon,1,1,,,3,,,,,,,,,,,,,repeat,letter,lettRpt,j,0.5494,vtsPrac,5,0,5,0,1,,,,,,,,,,,,,,,,,,,,,,,
293419,2022-11-15_12h22.59.226,vts_reward_expectancy_bt,2022.2.4,MacIntel,60.0024001,Chrome,1440,900,,,,,0,666,,,,,,,,,,,,,,,,,181,B,triangle,1,0,,,3,,,,,,,,,,,,,repeat,letter,lettRpt,j,0.4483,vtsPrac,6,0,6,0,1,,,,,,,,,,,,,,,,,,,,,,,
293419,2022-11-15_12h22.59.226,vts_reward_expectancy_bt,2022.2.4,MacIntel,60.0024001,Chrome,1440,900,,,,,0,666,,,,,,,,,,,,,,,,,174,Y,star,1,0,,,3,,,,,,,,,,,,,repeat,letter,lettRpt,k,0.7118,vtsPrac,7,0,7,0,1,,,,,,,,,,,,,,,,,,,,,,,
293419,2022-11-15_12h22.59.226,vts_reward_expectancy_bt,2022.2.4,MacIntel,60.0024001,Chrome,1440,900,,,,,0,666,,,,,,,,,,,,,,,,,181,S,circle,1,0,,,3,,,,,,,,,,,,,repeat,letter,lettRpt,k,0.9733,vtsPrac,8,0,8,0,1,,,,,,,,,,,,,,,,,,,,,,,
293419,2022-11-15_12h22.59.226,vts_reward_expectancy_bt,2022.2.4,MacIntel,60.0024001,Chrome,1440,900,,,,,0,666,,,,,,,,,,,,,,,,,125,F,star,0,0,,,3,,,,,,,,,,,,,repeat,letter,NA,k,0.614,vtsPrac,9,0,9,0,1,,,,,,,,,,,,,,,,,,,,,,,
293419,2022-11-15_12h22.59.226,vts_reward_expectancy_bt,2022.2.4,MacIntel,60.0024001,Chrome,1440,900,,,,,0,666,,,,,,,,,,,,,,,,,160,H,circle,0,1,,,3,,,,,,,,,,,,,repeat,letter,NA,k,0.8132,vtsPrac,10,0,10,0,1,,,,,,,,,,,,,,,,,,,,,,,
293419,2022-11-15_12h22.59.226,vts_reward_expectancy_bt,2022.2.4,MacIntel,60.0024001,Chrome,1440,900,,,,,0,666,,,,,,,,,,,,,,,,,139,U,hexagon,1,1,,,3,,,,,,,,,,,,,repeat,letter,lettRpt,k,1.0348,vtsPrac,11,0,11,0,1,,,,,,,,,,,,,,,,,,,,,,,
293419,2022-11-15_12h22.59.226,vts_reward_expectancy_bt,2022.2.4,MacIntel,60.0024001,Chrome,1440,900,,,,,0,666,,,,,,,,,,,,,,,,,167,W,hexagon,1,0,,,3,,,,,,,,,,,,,repeat,letter,lettRpt,k,1.0294,vtsPrac,12,0,12,0,1,,,,,,,,,,,,,,,,,,,,,,,
293419,2022-11-15_12h22.59.226,vts_reward_expectancy_bt,2022.2.4,MacIntel,60.0024001,Chrome,1440,900,,,,,0,666,,,,,,,,,,,,,,,,,181,S,triangle,1,0,,,3,,,,,,,,,,,,,switch,number,numSwt,f,0.5989,vtsPrac,13,0,13,0,1,,,,,,,,,,,,,,,,,,,,,,,
293419,2022-11-15_12h22.59.226,vts_reward_expectancy_bt,2022.2.4,MacIntel,60.0024001,Chrome,1440,900,,,,,0,666,,,,,,,,,,,,,,,,,146,U,star,1,0,,,3,,,,,,,,,,,,,repeat,number,numRpt,d,0.4963,vtsPrac,14,0,14,0,1,,,,,,,,,,,,,,,,,,,,,,,
293419,2022-11-15_12h22.59.226,vts_reward_expectancy_bt,2022.2.4,MacIntel,60.0024001,Chrome,1440,900,,,,,0,666,,,,,,,,,,,,,,,,,125,Y,hexagon,1,0,,,3,,,,,,,,,,,,,repeat,number,numRpt,d,0.564,vtsPrac,15,0,15,0,1,,,,,,,,,,,,,,,,,,,,,,,
293419,2022-11-15_12h22.59.226,vts_reward_expectancy_bt,2022.2.4,MacIntel,60.0024001,Chrome,1440,900,,,,,0,666,,,,,,,,,,,,,,,,,167,H,triangle,1,0,,,3,,,,,,,,,,,,,repeat,number,numRpt,f,0.5498,vtsPrac,16,0,16,0,1,,,,,,,,,,,,,,,,,,,,,,,
293419,2022-11-15_12h22.59.226,vts_reward_expectancy_bt,2022.2.4,MacIntel,60.0024001,Chrome,1440,900,,,,,0,666,,,,,,,,,,,,,,,,,146,Y,star,1,0,,,3,,,,,,,,,,,,,repeat,number,numRpt,d,0.5802,vtsPrac,17,0,17,0,1,,,,,,,,,,,,,,,,,,,,,,,
293419,2022-11-15_12h22.59.226,vts_reward_expectancy_bt,2022.2.4,MacIntel,60.0024001,Chrome,1440,900,,,,,0,666,,,,,,,,,,,,,,,,,174,F,circle,1,0,,,3,,,,,,,,,,,,,repeat,number,numRpt,f,0.4652,vtsPrac,18,0,18,0,1,,,,,,,,,,,,,,,,,,,,,,,
293419,2022-11-15_12h22.59.226,vts_reward_expectancy_bt,2022.2.4,MacIntel,60.0024001,Chrome,1440,900,,,,,0,666,,,,,,,,,,,,,,,,,132,S,star,1,0,,,3,,,,,,,,,,,,,repeat,number,numRpt,d,0.4286,vtsPrac,19,0,19,0,1,,,,,,,,,,,,,,,,,,,,,,,
293419,2022-11-15_12h22.59.226,vts_reward_expectancy_bt,2022.2.4,MacIntel,60.0024001,Chrome,1440,900,,,,,0,666,,,,,,,,,,,,,,,,,146,D,hexagon,0,0,,,3,,,,,,,,,,,,,repeat,number,NA,f,0.4721,vtsPrac,20,0,20,0,1,,,,,,,,,,,,,,,,,,,,,,,
293419,2022-11-15_12h22.59.226,vts_reward_expectancy_bt,2022.2.4,MacIntel,60.0024001,Chrome,1440,900,,,,,0,666,,,,,,,,,,,,,,,,,160,Y,star,1,1,,,3,,,,,,,,,,,,,repeat,number,numRpt,f,0.9873,vtsPrac,21,0,21,0,1,,,,,,,,,,,,,,,,,,,,,,,
293419,2022-11-15_12h22.59.226,vts_reward_expectancy_bt,2022.2.4,MacIntel,60.0024001,Chrome,1440,900,,,,,0,666,,,,,,,,,,,,,,,,,167,U,hexagon,1,0,,,3,,,,,,,,,,,,,repeat,number,numRpt,f,0.6172,vtsPrac,22,0,22,0,1,,,,,,,,,,,,,,,,,,,,,,,
293419,2022-11-15_12h22.59.226,vts_reward_expectancy_bt,2022.2.4,MacIntel,60.0024001,Chrome,1440,900,,,,,0,666,,,,,,,,,,,,,,,,,174,F,triangle,0,0,,,3,,,,,,,,,,,,,repeat,number,NA,d,0.58,vtsPrac,23,0,23,0,1,,,,,,,,,,,,,,,,,,,,,,,
293419,2022-11-15_12h22.59.226,vts_reward_expectancy_bt,2022.2.4,MacIntel,60.0024001,Chrome,1440,900,,,,,0,666,,,,,,,,,,,,,,,,,139,W,hexagon,1,1,,,3,,,,,,,,,,,,,repeat,number,numRpt,d,0.7662,vtsPrac,24,0,24,0,1,,,,,,,,,,,,,,,,,,,,,,,
293419,2022-11-15_12h22.59.226,vts_reward_expectancy_bt,2022.2.4,MacIntel,60.0024001,Chrome,1440,900,,,,,0,666,,,,,,,,,,,,,,,,,167,H,triangle,1,0,,,3,,,,,,,,,,,,,repeat,number,numRpt,f,0.5479,vtsPrac,25,0,25,0,1,,,,,,,,,,,,,,,,,,,,,,,
293419,2022-11-15_12h22.59.226,vts_reward_expectancy_bt,2022.2.4,MacIntel,60.0024001,Chrome,1440,900,,,,,0,666,,,,,,,,,,,,,,,,,132,Y,star,1,0,,,3,,,,,,,,,,,,,repeat,number,numRpt,d,1.1985,vtsPrac,26,0,26,0,1,,,,,,,,,,,,,,,,,,,,,,,
293419,2022-11-15_12h22.59.226,vts_reward_expectancy_bt,2022.2.4,MacIntel,60.0024001,Chrome,1440,900,,,,,0,666,,,,,,,,,,,,,,,,,146,D,triangle,1,0,,,3,,,,,,,,,,,,,repeat,number,numRpt,d,0.5195,vtsPrac,27,0,27,0,1,,,,,,,,,,,,,,,,,,,,,,,
293419,2022-11-15_12h22.59.226,vts_reward_expectancy_bt,2022.2.4,MacIntel,60.0024001,Chrome,1440,900,,,,,0,666,,,,,,,,,,,,,,,,,125,D,triangle,1,0,,,3,,,,,,,,,,,,,repeat,number,numRpt,d,0.467,vtsPrac,28,0,28,0,1,,,,,,,,,,,,,,,,,,,,,,,
293419,2022-11-15_12h22.59.226,vts_reward_expectancy_bt,2022.2.4,MacIntel,60.0024001,Chrome,1440,900,,,,,0,666,,,,,,,,,,,,,,,,,139,B,hexagon,1,0,,,3,,,,,,,,,,,,,repeat,number,numRpt,d,0.6139,vtsPrac,29,0,29,0,1,,,,,,,,,,,,,,,,,,,,,,,
293419,2022-11-15_12h22.59.226,vts_reward_expectancy_bt,2022.2.4,MacIntel,60.0024001,Chrome,1440,900,,,,,0,666,,,,,,,,,,,,,,,,,181,Y,star,1,0,,,3,,,,,,,,,,,,,repeat,number,numRpt,f,0.4464,vtsPrac,30,0,30,0,1,,,,,,,,,,,,,,,,,,,,,,,
293419,2022-11-15_12h22.59.226,vts_reward_expectancy_bt,2022.2.4,MacIntel,60.0024001,Chrome,1440,900,,,,,0,666,,,,,,,,,,,,,,,,,174,W,hexagon,1,0,,,3,,,,,,,,,,,,,repeat,number,numRpt,f,0.462,vtsPrac,31,0,31,0,1,,,,,,,,,,,,,,,,,,,,,,,
293419,2022-11-15_12h22.59.226,vts_reward_expectancy_bt,2022.2.4,MacIntel,60.0024001,Chrome,1440,900,,,,,0,666,,,,,,,,,,,,,,,,,167,F,circle,-1,0,,,4,,,,,,,,,,,,,switch,no_choice,NA,,,vtsPrac,0,0,0,0,1,,,,,,,,,,,,,,,,,,,,,,,
293419,2022-11-15_12h22.59.226,vts_reward_expectancy_bt,2022.2.4,MacIntel,60.0024001,Chrome,1440,900,,,,,0,666,,,,,,,,,,,,,,,,,146,D,hexagon,1,0,,,4,,,,,,,,,,,,,switch,letter,lettSwt,j,1.1861,vtsPrac,1,0,1,0,1,,,,,,,,,,,,,,,,,,,,,,,
293419,2022-11-15_12h22.59.226,vts_reward_expectancy_bt,2022.2.4,MacIntel,60.0024001,Chrome,1440,900,,,,,0,666,,,,,,,,,,,,,,,,,160,Y,circle,1,0,,,4,,,,,,,,,,,,,switch,number,numSwt,f,0.9187,vtsPrac,2,0,2,0,1,,,,,,,,,,,,,,,,,,,,,,,
293419,2022-11-15_12h22.59.226,vts_reward_expectancy_bt,2022.2.4,MacIntel,60.0024001,Chrome,1440,900,,,,,0,666,,,,,,,,,,,,,,,,,181,B,hexagon,0,0,,,4,,,,,,,,,,,,,switch,letter,NA,k,1.7333,vtsPrac,3,0,3,0,1,,,,,,,,,,,,,,,,,,,,,,,
293419,2022-11-15_12h22.59.226,vts_reward_expectancy_bt,2022.2.4,MacIntel,60.0024001,Chrome,1440,900,,,,,0,666,,,,,,,,,,,,,,,,,167,F,star,0,1,,,4,,,,,,,,,,,,,switch,number,NA,d,1.0857,vtsPrac,4,0,4,0,1,,,,,,,,,,,,,,,,,,,,,,,
293419,2022-11-15_12h22.59.226,vts_reward_expectancy_bt,2022.2.4,MacIntel,60.0024001,Chrome,1440,900,,,,,0,666,,,,,,,,,,,,,,,,,146,D,triangle,1,1,,,4,,,,,,,,,,,,,repeat,number,numRpt,d,1.5609,vtsPrac,5,0,5,0,1,,,,,,,,,,,,,,,,,,,,,,,
293419,2022-11-15_12h22.59.226,vts_reward_expectancy_bt,2022.2.4,MacIntel,60.0024001,Chrome,1440,900,,,,,0,666,,,,,,,,,,,,,,,,,160,Y,hexagon,1,0,,,4,,,,,,,,,,,,,switch,letter,lettSwt,k,1.4647,vtsPrac,6,0,6,0,1,,,,,,,,,,,,,,,,,,,,,,,
293419,2022-11-15_12h22.59.226,vts_reward_expectancy_bt,2022.2.4,MacIntel,60.0024001,Chrome,1440,900,,,,,0,666,,,,,,,,,,,,,,,,,181,B,circle,0,0,,,4,,,,,,,,,,,,,switch,number,NA,d,1.2124,vtsPrac,7,0,7,0,1,,,,,,,,,,,,,,,,,,,,,,,
293419,2022-11-15_12h22.59.226,vts_reward_expectancy_bt,2022.2.4,MacIntel,60.0024001,Chrome,1440,900,,,,,0,666,,,,,,,,,,,,,,,,,146,U,circle,0,1,,,4,,,,,,,,,,,,,switch,letter,NA,j,2.9041,vtsPrac,8,0,8,0,1,,,,,,,,,,,,,,,,,,,,,,,
293419,2022-11-15_12h22.59.226,vts_reward_expectancy_bt,2022.2.4,MacIntel,60.0024001,Chrome,1440,900,,,,,0,666,,,,,,,,,,,,,,,,,167,S,star,1,1,,,4,,,,,,,,,,,,,switch,number,numSwt,f,1.2867,vtsPrac,9,0,9,0,1,,,,,,,,,,,,,,,,,,,,,,,
293419,2022-11-15_12h22.59.226,vts_reward_expectancy_bt,2022.2.4,MacIntel,60.0024001,Chrome,1440,900,,,,,0,666,,,,,,,,,,,,,,,,,125,D,hexagon,0,0,,,4,,,,,,,,,,,,,switch,letter,NA,k,1.9611,vtsPrac,10,0,10,0,1,,,,,,,,,,,,,,,,,,,,,,,
293419,2022-11-15_12h22.59.226,vts_reward_expectancy_bt,2022.2.4,MacIntel,60.0024001,Chrome,1440,900,,,,,0,666,,,,,,,,,,,,,,,,,160,F,circle,-1,1,,,4,,,,,,,,,,,,,switch,no_choice,NA,,,vtsPrac,11,0,11,0,1,,,,,,,,,,,,,,,,,,,,,,,
293419,2022-11-15_12h22.59.226,vts_reward_expectancy_bt,2022.2.4,MacIntel,60.0024001,Chrome,1440,900,,,,,0,666,,,,,,,,,,,,,,,,,167,B,hexagon,1,0,,,4,,,,,,,,,,,,,switch,letter,lettSwt,j,2.8301,vtsPrac,12,0,12,0,1,,,,,,,,,,,,,,,,,,,,,,,
293419,2022-11-15_12h22.59.226,vts_reward_expectancy_bt,2022.2.4,MacIntel,60.0024001,Chrome,1440,900,,,,,0,666,,,,,,,,,,,,,,,,,132,S,star,0,0,,,4,,,,,,,,,,,,,switch,number,NA,f,2.2968,vtsPrac,13,0,13,0,1,,,,,,,,,,,,,,,,,,,,,,,
293419,2022-11-15_12h22.59.226,vts_reward_expectancy_bt,2022.2.4,MacIntel,60.0024001,Chrome,1440,900,,,,,0,666,,,,,,,,,,,,,,,,,160,H,triangle,1,1,,,4,,,,,,,,,,,,,repeat,number,numRpt,f,0.6661,vtsPrac,14,0,14,0,1,,,,,,,,,,,,,,,,,,,,,,,
293419,2022-11-15_12h22.59.226,vts_reward_expectancy_bt,2022.2.4,MacIntel,60.0024001,Chrome,1440,900,,,,,0,666,,,,,,,,,,,,,,,,,181,Y,hexagon,1,0,,,4,,,,,,,,,,,,,repeat,number,numRpt,f,0.7979,vtsPrac,15,0,15,0,1,,,,,,,,,,,,,,,,,,,,,,,
293419,2022-11-15_12h22.59.226,vts_reward_expectancy_bt,2022.2.4,MacIntel,60.0024001,Chrome,1440,900,,,,,0,666,,,,,,,,,,,,,,,,,174,Y,hexagon,0,0,,,4,,,,,,,,,,,,,switch,letter,NA,j,1.8992,vtsPrac,16,0,16,0,1,,,,,,,,,,,,,,,,,,,,,,,
293419,2022-11-15_12h22.59.226,vts_reward_expectancy_bt,2022.2.4,MacIntel,60.0024001,Chrome,1440,900,,,,,0,666,,,,,,,,,,,,,,,,,125,H,circle,0,1,,,4,,,,,,,,,,,,,repeat,letter,NA,k,2.761,vtsPrac,17,0,17,0,1,,,,,,,,,,,,,,,,,,,,,,,
293419,2022-11-15_12h22.59.226,vts_reward_expectancy_bt,2022.2.4,MacIntel,60.0024001,Chrome,1440,900,,,,,0,666,,,,,,,,,,,,,,,,,160,U,circle,1,1,,,4,,,,,,,,,,,,,switch,number,numSwt,f,1.2647,vtsPrac,18,0,18,0,1,,,,,,,,,,,,,,,,,,,,,,,
293419,2022-11-15_12h22.59.226,vts_reward_expectancy_bt,2022.2.4,MacIntel,60.0024001,Chrome,1440,900,,,,,0,666,,,,,,,,,,,,,,,,,146,W,star,0,0,,,4,,,,,,,,,,,,,switch,letter,NA,j,2.4308,vtsPrac,19,0,19,0,1,,,,,,,,,,,,,,,,,,,,,,,
293419,2022-11-15_12h22.59.226,vts_reward_expectancy_bt,2022.2.4,MacIntel,60.0024001,Chrome,1440,900,,,,,0,666,,,,,,,,,,,,,,,,,132,S,star,1,1,,,4,,,,,,,,,,,,,switch,number,numSwt,d,2.1801,vtsPrac,20,0,20,0,1,,,,,,,,,,,,,,,,,,,,,,,
293419,2022-11-15_12h22.59.226,vts_reward_expectancy_bt,2022.2.4,MacIntel,60.0024001,Chrome,1440,900,,,,,0,666,,,,,,,,,,,,,,,,,174,W,triangle,1,0,,,4,,,,,,,,,,,,,switch,letter,lettSwt,k,1.6944,vtsPrac,21,0,21,0,1,,,,,,,,,,,,,,,,,,,,,,,
293419,2022-11-15_12h22.59.226,vts_reward_expectancy_bt,2022.2.4,MacIntel,60.0024001,Chrome,1440,900,,,,,0,666,,,,,,,,,,,,,,,,,146,U,star,1,0,,,4,,,,,,,,,,,,,repeat,letter,lettRpt,k,1.2972,vtsPrac,22,0,22,0,1,,,,,,,,,,,,,,,,,,,,,,,
293419,2022-11-15_12h22.59.226,vts_reward_expectancy_bt,2022.2.4,MacIntel,60.0024001,Chrome,1440,900,,,,,0,666,,,,,,,,,,,,,,,,,139,Y,triangle,-1,0,,,4,,,,,,,,,,,,,switch,no_choice,NA,,,vtsPrac,23,0,23,0,1,,,,,,,,,,,,,,,,,,,,,,,
293419,2022-11-15_12h22.59.226,vts_reward_expectancy_bt,2022.2.4,MacIntel,60.0024001,Chrome,1440,900,,,,,0,666,,,,,,,,,,,,,,,,,181,Y,triangle,1,0,,,4,,,,,,,,,,,,,switch,letter,lettSwt,k,1.6422,vtsPrac,24,0,24,0,1,,,,,,,,,,,,,,,,,,,,,,,
293419,2022-11-15_12h22.59.226,vts_reward_expectancy_bt,2022.2.4,MacIntel,60.0024001,Chrome,1440,900,,,,,0,666,,,,,,,,,,,,,,,,,146,W,circle,1,0,,,4,,,,,,,,,,,,,repeat,letter,lettRpt,k,0.6992,vtsPrac,25,0,25,0,1,,,,,,,,,,,,,,,,,,,,,,,
293419,2022-11-15_12h22.59.226,vts_reward_expectancy_bt,2022.2.4,MacIntel,60.0024001,Chrome,1440,900,,,,,0,666,,,,,,,,,,,,,,,,,132,D,circle,1,0,,,4,,,,,,,,,,,,,switch,number,numSwt,d,0.8804,vtsPrac,26,0,26,0,1,,,,,,,,,,,,,,,,,,,,,,,
293419,2022-11-15_12h22.59.226,vts_reward_expectancy_bt,2022.2.4,MacIntel,60.0024001,Chrome,1440,900,,,,,0,666,,,,,,,,,,,,,,,,,125,B,hexagon,1,0,,,4,,,,,,,,,,,,,repeat,number,numRpt,d,0.544,vtsPrac,27,0,27,0,1,,,,,,,,,,,,,,,,,,,,,,,
293419,2022-11-15_12h22.59.226,vts_reward_expectancy_bt,2022.2.4,MacIntel,60.0024001,Chrome,1440,900,,,,,0,666,,,,,,,,,,,,,,,,,160,U,triangle,1,0,,,4,,,,,,,,,,,,,switch,letter,lettSwt,k,0.6021,vtsPrac,28,0,28,0,1,,,,,,,,,,,,,,,,,,,,,,,
293419,2022-11-15_12h22.59.226,vts_reward_expectancy_bt,2022.2.4,MacIntel,60.0024001,Chrome,1440,900,,,,,0,666,,,,,,,,,,,,,,,,,167,S,star,1,0,,,4,,,,,,,,,,,,,switch,number,numSwt,f,0.7454,vtsPrac,29,0,29,0,1,,,,,,,,,,,,,,,,,,,,,,,
293419,2022-11-15_12h22.59.226,vts_reward_expectancy_bt,2022.2.4,MacIntel,60.0024001,Chrome,1440,900,,,,,0,666,,,,,,,,,,,,,,,,,132,B,triangle,1,0,,,4,,,,,,,,,,,,,switch,letter,lettSwt,j,0.7289,vtsPrac,30,0,30,0,1,,,,,,,,,,,,,,,,,,,,,,,
293419,2022-11-15_12h22.59.226,vts_reward_expectancy_bt,2022.2.4,MacIntel,60.0024001,Chrome,1440,900,,,,,0,666,,,,,,,,,,,,,,,,,181,H,star,0,0,,,4,,,,,,,,,,,,,repeat,letter,NA,k,0.6023,vtsPrac,31,0,31,0,1,,,,,,,,,,,,,,,,,,,,,,,
293419,2022-11-15_12h22.59.226,vts_reward_expectancy_bt,2022.2.4,MacIntel,60.0024001,Chrome,1440,900,,,,,0,666,,,,,,,,,,,,,,,,,167,Y,triangle,1,1,,,5,,,,,,,,,,,,,switch,number,numSwt,f,0.8959,vtsPrac,0,0,0,0,1,,,,,,,,,,,,,,,,,,,,,,,
293419,2022-11-15_12h22.59.226,vts_reward_expectancy_bt,2022.2.4,MacIntel,60.0024001,Chrome,1440,900,,,,,0,666,,,,,,,,,,,,,,,,,125,H,star,0,0,,,5,,,,,,,,,,,,,switch,letter,NA,k,0.9701,vtsPrac,1,0,1,0,1,,,,,,,,,,,,,,,,,,,,,,,
293419,2022-11-15_12h22.59.226,vts_reward_expectancy_bt,2022.2.4,MacIntel,60.0024001,Chrome,1440,900,,,,,0,666,,,,,,,,,,,,,,,,,160,S,triangle,1,1,,,5,,,,,,,,,,,,,switch,number,numSwt,f,1.1811,vtsPrac,2,0,2,0,1,,,,,,,,,,,,,,,,,,,,,,,
293419,2022-11-15_12h22.59.226,vts_reward_expectancy_bt,2022.2.4,MacIntel,60.0024001,Chrome,1440,900,,,,,0,666,,,,,,,,,,,,,,,,,132,B,star,1,0,,,5,,,,,,,,,,,,,repeat,number,numRpt,d,1.4039,vtsPrac,3,0,3,0,1,,,,,,,,,,,,,,,,,,,,,,,
293419,2022-11-15_12h22.59.226,vts_reward_expectancy_bt,2022.2.4,MacIntel,60.0024001,Chrome,1440,900,,,,,0,666,,,,,,,,,,,,,,,,,167,Y,triangle,1,0,,,5,,,,,,,,,,,,,switch,letter,lettSwt,k,0.718,vtsPrac,4,0,4,0,1,,,,,,,,,,,,,,,,,,,,,,,
293419,2022-11-15_12h22.59.226,vts_reward_expectancy_bt,2022.2.4,MacIntel,60.0024001,Chrome,1440,900,,,,,0,666,,,,,,,,,,,,,,,,,125,H,circle,1,0,,,5,,,,,,,,,,,,,switch,number,numSwt,d,0.9327,vtsPrac,5,0,5,0,1,,,,,,,,,,,,,,,,,,,,,,,
293419,2022-11-15_12h22.59.226,vts_reward_expectancy_bt,2022.2.4,MacIntel,60.0024001,Chrome,1440,900,,,,,0,666,,,,,,,,,,,,,,,,,160,S,star,1,0,,,5,,,,,,,,,,,,,switch,letter,lettSwt,k,0.7714,vtsPrac,6,0,6,0,1,,,,,,,,,,,,,,,,,,,,,,,
293419,2022-11-15_12h22.59.226,vts_reward_expectancy_bt,2022.2.4,MacIntel,60.0024001,Chrome,1440,900,,,,,0,666,,,,,,,,,,,,,,,,,132,B,triangle,1,0,,,5,,,,,,,,,,,,,repeat,letter,lettRpt,j,0.5628,vtsPrac,7,0,7,0,1,,,,,,,,,,,,,,,,,,,,,,,
293419,2022-11-15_12h22.59.226,vts_reward_expectancy_bt,2022.2.4,MacIntel,60.0024001,Chrome,1440,900,,,,,0,666,,,,,,,,,,,,,,,,,125,Y,circle,1,0,,,5,,,,,,,,,,,,,repeat,letter,lettRpt,k,0.7284,vtsPrac,8,0,8,0,1,,,,,,,,,,,,,,,,,,,,,,,
293419,2022-11-15_12h22.59.226,vts_reward_expectancy_bt,2022.2.4,MacIntel,60.0024001,Chrome,1440,900,,,,,0,666,,,,,,,,,,,,,,,,,181,S,hexagon,1,0,,,5,,,,,,,,,,,,,switch,number,numSwt,f,1.2807,vtsPrac,9,0,9,0,1,,,,,,,,,,,,,,,,,,,,,,,
293419,2022-11-15_12h22.59.226,vts_reward_expectancy_bt,2022.2.4,MacIntel,60.0024001,Chrome,1440,900,,,,,0,666,,,,,,,,,,,,,,,,,146,D,triangle,1,0,,,5,,,,,,,,,,,,,repeat,number,numRpt,d,1.2619,vtsPrac,10,0,10,0,1,,,,,,,,,,,,,,,,,,,,,,,
293419,2022-11-15_12h22.59.226,vts_reward_expectancy_bt,2022.2.4,MacIntel,60.0024001,Chrome,1440,900,,,,,0,666,,,,,,,,,,,,,,,,,160,W,star,1,0,,,5,,,,,,,,,,,,,switch,letter,lettSwt,k,1.1164,vtsPrac,11,0,11,0,1,,,,,,,,,,,,,,,,,,,,,,,
293419,2022-11-15_12h22.59.226,vts_reward_expectancy_bt,2022.2.4,MacIntel,60.0024001,Chrome,1440,900,,,,,0,666,,,,,,,,,,,,,,,,,125,H,star,0,0,,,5,,,,,,,,,,,,,repeat,letter,NA,k,0.8445,vtsPrac,12,0,12,0,1,,,,,,,,,,,,,,,,,,,,,,,
293419,2022-11-15_12h22.59.226,vts_reward_expectancy_bt,2022.2.4,MacIntel,60.0024001,Chrome,1440,900,,,,,0,666,,,,,,,,,,,,,,,,,181,U,hexagon,1,1,,,5,,,,,,,,,,,,,repeat,letter,lettRpt,k,0.8474,vtsPrac,13,0,13,0,1,,,,,,,,,,,,,,,,,,,,,,,
293419,2022-11-15_12h22.59.226,vts_reward_expectancy_bt,2022.2.4,MacIntel,60.0024001,Chrome,1440,900,,,,,0,666,,,,,,,,,,,,,,,,,167,B,triangle,1,0,,,5,,,,,,,,,,,,,switch,number,numSwt,f,0.7787,vtsPrac,14,0,14,0,1,,,,,,,,,,,,,,,,,,,,,,,
293419,2022-11-15_12h22.59.226,vts_reward_expectancy_bt,2022.2.4,MacIntel,60.0024001,Chrome,1440,900,,,,,0,666,,,,,,,,,,,,,,,,,174,D,circle,1,0,,,5,,,,,,,,,,,,,switch,letter,lettSwt,j,0.7451,vtsPrac,15,0,15,0,1,,,,,,,,,,,,,,,,,,,,,,,
293419,2022-11-15_12h22.59.226,vts_reward_expectancy_bt,2022.2.4,MacIntel,60.0024001,Chrome,1440,900,,,,,0,666,,,,,,,,,,,,,,,,,167,Y,star,1,0,,,5,,,,,,,,,,,,,switch,number,numSwt,f,1.0985,vtsPrac,16,0,16,0,1,,,,,,,,,,,,,,,,,,,,,,,
293419,2022-11-15_12h22.59.226,vts_reward_expectancy_bt,2022.2.4,MacIntel,60.0024001,Chrome,1440,900,,,,,0,666,,,,,,,,,,,,,,,,,146,D,triangle,1,0,,,5,,,,,,,,,,,,,switch,letter,lettSwt,j,0.7682,vtsPrac,17,0,17,0,1,,,,,,,,,,,,,,,,,,,,,,,
293419,2022-11-15_12h22.59.226,vts_reward_expectancy_bt,2022.2.4,MacIntel,60.0024001,Chrome,1440,900,,,,,0,666,,,,,,,,,,,,,,,,,132,H,hexagon,0,0,,,5,,,,,,,,,,,,,repeat,letter,NA,k,0.6814,vtsPrac,18,0,18,0,1,,,,,,,,,,,,,,,,,,,,,,,
293419,2022-11-15_12h22.59.226,vts_reward_expectancy_bt,2022.2.4,MacIntel,60.0024001,Chrome,1440,900,,,,,0,666,,,,,,,,,,,,,,,,,125,W,triangle,1,1,,,5,,,,,,,,,,,,,repeat,letter,lettRpt,k,0.7209,vtsPrac,19,0,19,0,1,,,,,,,,,,,,,,,,,,,,,,,
293419,2022-11-15_12h22.59.226,vts_reward_expectancy_bt,2022.2.4,MacIntel,60.0024001,Chrome,1440,900,,,,,0,666,,,,,,,,,,,,,,,,,181,S,triangle,1,0,,,5,,,,,,,,,,,,,repeat,letter,lettRpt,k,0.694,vtsPrac,20,0,20,0,1,,,,,,,,,,,,,,,,,,,,,,,
293419,2022-11-15_12h22.59.226,vts_reward_expectancy_bt,2022.2.4,MacIntel,60.0024001,Chrome,1440,900,,,,,0,666,,,,,,,,,,,,,,,,,174,B,star,1,0,,,5,,,,,,,,,,,,,repeat,letter,lettRpt,j,0.5945,vtsPrac,21,0,21,0,1,,,,,,,,,,,,,,,,,,,,,,,
293419,2022-11-15_12h22.59.226,vts_reward_expectancy_bt,2022.2.4,MacIntel,60.0024001,Chrome,1440,900,,,,,0,666,,,,,,,,,,,,,,,,,167,D,triangle,1,0,,,5,,,,,,,,,,,,,switch,number,numSwt,f,0.6999,vtsPrac,22,0,22,0,1,,,,,,,,,,,,,,,,,,,,,,,
293419,2022-11-15_12h22.59.226,vts_reward_expectancy_bt,2022.2.4,MacIntel,60.0024001,Chrome,1440,900,,,,,0,666,,,,,,,,,,,,,,,,,125,Y,star,1,0,,,5,,,,,,,,,,,,,repeat,number,numRpt,d,0.6385,vtsPrac,23,0,23,0,1,,,,,,,,,,,,,,,,,,,,,,,
293419,2022-11-15_12h22.59.226,vts_reward_expectancy_bt,2022.2.4,MacIntel,60.0024001,Chrome,1440,900,,,,,0,666,,,,,,,,,,,,,,,,,181,H,circle,1,0,,,5,,,,,,,,,,,,,switch,letter,lettSwt,j,0.762,vtsPrac,24,0,24,0,1,,,,,,,,,,,,,,,,,,,,,,,
293419,2022-11-15_12h22.59.226,vts_reward_expectancy_bt,2022.2.4,MacIntel,60.0024001,Chrome,1440,900,,,,,0,666,,,,,,,,,,,,,,,,,139,S,hexagon,1,0,,,5,,,,,,,,,,,,,switch,number,numSwt,d,0.8983,vtsPrac,25,0,25,0,1,,,,,,,,,,,,,,,,,,,,,,,
293419,2022-11-15_12h22.59.226,vts_reward_expectancy_bt,2022.2.4,MacIntel,60.0024001,Chrome,1440,900,,,,,0,666,,,,,,,,,,,,,,,,,146,W,star,1,0,,,5,,,,,,,,,,,,,switch,letter,lettSwt,k,1.2453,vtsPrac,26,0,26,0,1,,,,,,,,,,,,,,,,,,,,,,,
293419,2022-11-15_12h22.59.226,vts_reward_expectancy_bt,2022.2.4,MacIntel,60.0024001,Chrome,1440,900,,,,,0,666,,,,,,,,,,,,,,,,,132,Y,triangle,0,0,,,5,,,,,,,,,,,,,repeat,letter,NA,j,0.667,vtsPrac,27,0,27,0,1,,,,,,,,,,,,,,,,,,,,,,,
293419,2022-11-15_12h22.59.226,vts_reward_expectancy_bt,2022.2.4,MacIntel,60.0024001,Chrome,1440,900,,,,,0,666,,,,,,,,,,,,,,,,,174,H,hexagon,1,1,,,5,,,,,,,,,,,,,switch,number,numSwt,f,0.5911,vtsPrac,28,0,28,0,1,,,,,,,,,,,,,,,,,,,,,,,
293419,2022-11-15_12h22.59.226,vts_reward_expectancy_bt,2022.2.4,MacIntel,60.0024001,Chrome,1440,900,,,,,0,666,,,,,,,,,,,,,,,,,132,D,circle,1,0,,,5,,,,,,,,,,,,,repeat,number,numRpt,d,1.5139,vtsPrac,29,0,29,0,1,,,,,,,,,,,,,,,,,,,,,,,
293419,2022-11-15_12h22.59.226,vts_reward_expectancy_bt,2022.2.4,MacIntel,60.0024001,Chrome,1440,900,,,,,0,666,,,,,,,,,,,,,,,,,160,F,star,1,0,,,5,,,,,,,,,,,,,repeat,number,numRpt,f,0.6134,vtsPrac,30,0,30,0,1,,,,,,,,,,,,,,,,,,,,,,,
293419,2022-11-15_12h22.59.226,vts_reward_expectancy_bt,2022.2.4,MacIntel,60.0024001,Chrome,1440,900,,,,,0,666,,,,,,,,,,,,,,,,,167,U,circle,1,0,,,5,,,,,,,,,,,,,switch,letter,lettSwt,k,1.0115,vtsPrac,31,0,31,0,1,,,,,,,,,,,,,,,,,,,,,,,
293419,2022-11-15_12h22.59.226,vts_reward_expectancy_bt,2022.2.4,MacIntel,60.0024001,Chrome,1440,900,,,,,,,,,,,,,,,,,,,,,,,,,,,,,,,,,,,,,,,,,,,,,,,,,,,,,,,,,,,,,,,,,,,,,,,,,,,,
293419,2022-11-15_12h22.59.226,vts_reward_expectancy_bt,2022.2.4,MacIntel,60.0024001,Chrome,1440,900,,,,,,,,,,,,,,,,,,,,,,,,,,,,,,,,,,,,,,,,,,,,,,,,,,,,,,,,,,,,,,,,,,,,,,,,,,,,
293419,2022-11-15_12h22.59.226,vts_reward_expectancy_bt,2022.2.4,MacIntel,60.0024001,Chrome,1440,900,,,,,0,666,,,,,,,,,,,,,,,,,132,H,hexagon,1,0,,,,,,,,,,,,,,,,switch,number,numSwt,d,1.0363,noRew,,,,,,0,0,0,0,0,1,,,,,,,,,,,,,,,,,
293419,2022-11-15_12h22.59.226,vts_reward_expectancy_bt,2022.2.4,MacIntel,60.0024001,Chrome,1440,900,,,,,0,666,,,,,,,,,,,,,,,,,146,Y,circle,1,0,,,,,,,,,,,,,,,,repeat,number,numRpt,d,1.1286,noRew,,,,,,0,1,0,1,0,1,,,,,,,,,,,,,,,,,
293419,2022-11-15_12h22.59.226,vts_reward_expectancy_bt,2022.2.4,MacIntel,60.0024001,Chrome,1440,900,,,,,0,666,,,,,,,,,,,,,,,,,167,S,hexagon,1,0,,,,,,,,,,,,,,,,switch,letter,lettSwt,k,0.6304,noRew,,,,,,0,2,0,2,0,1,,,,,,,,,,,,,,,,,
293419,2022-11-15_12h22.59.226,vts_reward_expectancy_bt,2022.2.4,MacIntel,60.0024001,Chrome,1440,900,,,,,0,666,,,,,,,,,,,,,,,,,139,W,circle,1,0,,,,,,,,,,,,,,,,switch,number,numSwt,d,0.8822,noRew,,,,,,0,3,0,3,0,1,,,,,,,,,,,,,,,,,
293419,2022-11-15_12h22.59.226,vts_reward_expectancy_bt,2022.2.4,MacIntel,60.0024001,Chrome,1440,900,,,,,0,666,,,,,,,,,,,,,,,,,132,H,star,1,0,,,,,,,,,,,,,,,,repeat,number,numRpt,d,0.8963,noRew,,,,,,0,4,0,4,0,1,,,,,,,,,,,,,,,,,
293419,2022-11-15_12h22.59.226,vts_reward_expectancy_bt,2022.2.4,MacIntel,60.0024001,Chrome,1440,900,,,,,0,666,,,,,,,,,,,,,,,,,146,Y,hexagon,1,0,,,,,,,,,,,,,,,,switch,letter,lettSwt,k,0.6621,noRew,,,,,,0,5,0,5,0,1,,,,,,,,,,,,,,,,,
293419,2022-11-15_12h22.59.226,vts_reward_expectancy_bt,2022.2.4,MacIntel,60.0024001,Chrome,1440,900,,,,,0,666,,,,,,,,,,,,,,,,,167,S,circle,1,0,,,,,,,,,,,,,,,,repeat,letter,lettRpt,k,0.7959,noRew,,,,,,0,6,0,6,0,1,,,,,,,,,,,,,,,,,
293419,2022-11-15_12h22.59.226,vts_reward_expectancy_bt,2022.2.4,MacIntel,60.0024001,Chrome,1440,900,,,,,0,666,,,,,,,,,,,,,,,,,139,W,triangle,1,0,,,,,,,,,,,,,,,,switch,number,numSwt,d,0.8618,noRew,,,,,,0,7,0,7,0,1,,,,,,,,,,,,,,,,,
293419,2022-11-15_12h22.59.226,vts_reward_expectancy_bt,2022.2.4,MacIntel,60.0024001,Chrome,1440,900,,,,,0,666,,,,,,,,,,,,,,,,,125,Y,triangle,1,0,,,,,,,,,,,,,,,,switch,letter,lettSwt,k,0.6615,noRew,,,,,,0,8,0,8,0,1,,,,,,,,,,,,,,,,,
293419,2022-11-15_12h22.59.226,vts_reward_expectancy_bt,2022.2.4,MacIntel,60.0024001,Chrome,1440,900,,,,,0,666,,,,,,,,,,,,,,,,,167,W,hexagon,1,0,,,,,,,,,,,,,,,,repeat,letter,lettRpt,k,0.5793,noRew,,,,,,0,9,0,9,0,1,,,,,,,,,,,,,,,,,
293419,2022-11-15_12h22.59.226,vts_reward_expectancy_bt,2022.2.4,MacIntel,60.0024001,Chrome,1440,900,,,,,0,666,,,,,,,,,,,,,,,,,160,H,hexagon,1,0,,,,,,,,,,,,,,,,repeat,letter,lettRpt,j,0.7974,noRew,,,,,,0,10,0,10,0,1,,,,,,,,,,,,,,,,,
293419,2022-11-15_12h22.59.226,vts_reward_expectancy_bt,2022.2.4,MacIntel,60.0024001,Chrome,1440,900,,,,,0,666,,,,,,,,,,,,,,,,,132,F,triangle,1,0,,,,,,,,,,,,,,,,switch,number,numSwt,d,1.1617,noRew,,,,,,0,11,0,11,0,1,,,,,,,,,,,,,,,,,
293419,2022-11-15_12h22.59.226,vts_reward_expectancy_bt,2022.2.4,MacIntel,60.0024001,Chrome,1440,900,,,,,0,666,,,,,,,,,,,,,,,,,125,S,circle,1,0,,,,,,,,,,,,,,,,repeat,number,numRpt,d,0.6461,noRew,,,,,,0,12,0,12,0,1,,,,,,,,,,,,,,,,,
293419,2022-11-15_12h22.59.226,vts_reward_expectancy_bt,2022.2.4,MacIntel,60.0024001,Chrome,1440,900,,,,,0,666,,,,,,,,,,,,,,,,,167,B,hexagon,1,0,,,,,,,,,,,,,,,,switch,letter,lettSwt,j,0.9355,noRew,,,,,,0,13,0,13,0,1,,,,,,,,,,,,,,,,,
293419,2022-11-15_12h22.59.226,vts_reward_expectancy_bt,2022.2.4,MacIntel,60.0024001,Chrome,1440,900,,,,,0,666,,,,,,,,,,,,,,,,,146,W,star,1,0,,,,,,,,,,,,,,,,switch,number,numSwt,d,0.9617,noRew,,,,,,0,14,0,14,0,1,,,,,,,,,,,,,,,,,
293419,2022-11-15_12h22.59.226,vts_reward_expectancy_bt,2022.2.4,MacIntel,60.0024001,Chrome,1440,900,,,,,0,666,,,,,,,,,,,,,,,,,174,H,circle,1,0,,,,,,,,,,,,,,,,repeat,number,numRpt,f,0.5988,noRew,,,,,,0,15,0,15,0,1,,,,,,,,,,,,,,,,,
293419,2022-11-15_12h22.59.226,vts_reward_expectancy_bt,2022.2.4,MacIntel,60.0024001,Chrome,1440,900,,,,,0,666,,,,,,,,,,,,,,,,,174,W,star,1,0,,,,,,,,,,,,,,,,repeat,number,numRpt,f,0.6873,noRew,,,,,,0,16,0,16,0,1,,,,,,,,,,,,,,,,,
293419,2022-11-15_12h22.59.226,vts_reward_expectancy_bt,2022.2.4,MacIntel,60.0024001,Chrome,1440,900,,,,,0,666,,,,,,,,,,,,,,,,,160,B,hexagon,1,0,,,,,,,,,,,,,,,,switch,letter,lettSwt,j,0.6056,noRew,,,,,,0,17,0,17,0,1,,,,,,,,,,,,,,,,,
293419,2022-11-15_12h22.59.226,vts_reward_expectancy_bt,2022.2.4,MacIntel,60.0024001,Chrome,1440,900,,,,,0,666,,,,,,,,,,,,,,,,,139,U,hexagon,1,0,,,,,,,,,,,,,,,,repeat,letter,lettRpt,k,0.6196,noRew,,,,,,0,18,0,18,0,1,,,,,,,,,,,,,,,,,
293419,2022-11-15_12h22.59.226,vts_reward_expectancy_bt,2022.2.4,MacIntel,60.0024001,Chrome,1440,900,,,,,0,666,,,,,,,,,,,,,,,,,132,F,circle,1,0,,,,,,,,,,,,,,,,switch,number,numSwt,d,1.0323,noRew,,,,,,0,19,0,19,0,1,,,,,,,,,,,,,,,,,
293419,2022-11-15_12h22.59.226,vts_reward_expectancy_bt,2022.2.4,MacIntel,60.0024001,Chrome,1440,900,,,,,0,666,,,,,,,,,,,,,,,,,181,S,hexagon,1,0,,,,,,,,,,,,,,,,switch,letter,lettSwt,k,0.6618,noRew,,,,,,0,20,0,20,0,1,,,,,,,,,,,,,,,,,
293419,2022-11-15_12h22.59.226,vts_reward_expectancy_bt,2022.2.4,MacIntel,60.0024001,Chrome,1440,900,,,,,0,666,,,,,,,,,,,,,,,,,146,B,triangle,0,0,,,,,,,,,,,,,,,,repeat,letter,NA,k,0.8793,noRew,,,,,,0,21,0,21,0,1,,,,,,,,,,,,,,,,,
293419,2022-11-15_12h22.59.226,vts_reward_expectancy_bt,2022.2.4,MacIntel,60.0024001,Chrome,1440,900,,,,,0,666,,,,,,,,,,,,,,,,,125,D,hexagon,1,1,,,,,,,,,,,,,,,,repeat,letter,lettRpt,j,0.9107,noRew,,,,,,0,22,0,22,0,1,,,,,,,,,,,,,,,,,
293419,2022-11-15_12h22.59.226,vts_reward_expectancy_bt,2022.2.4,MacIntel,60.0024001,Chrome,1440,900,,,,,0,666,,,,,,,,,,,,,,,,,174,F,triangle,0,0,,,,,,,,,,,,,,,,switch,number,NA,d,1.0786,noRew,,,,,,0,23,0,23,0,1,,,,,,,,,,,,,,,,,
293419,2022-11-15_12h22.59.226,vts_reward_expectancy_bt,2022.2.4,MacIntel,60.0024001,Chrome,1440,900,,,,,0,666,,,,,,,,,,,,,,,,,174,S,circle,1,1,,,,,,,,,,,,,,,,repeat,number,numRpt,f,0.8411,noRew,,,,,,0,24,0,24,0,1,,,,,,,,,,,,,,,,,
293419,2022-11-15_12h22.59.226,vts_reward_expectancy_bt,2022.2.4,MacIntel,60.0024001,Chrome,1440,900,,,,,0,666,,,,,,,,,,,,,,,,,181,D,triangle,1,0,,,,,,,,,,,,,,,,repeat,number,numRpt,f,0.5128,noRew,,,,,,0,25,0,25,0,1,,,,,,,,,,,,,,,,,
293419,2022-11-15_12h22.59.226,vts_reward_expectancy_bt,2022.2.4,MacIntel,60.0024001,Chrome,1440,900,,,,,0,666,,,,,,,,,,,,,,,,,146,F,triangle,0,0,,,,,,,,,,,,,,,,switch,letter,NA,k,1.011,noRew,,,,,,0,26,0,26,0,1,,,,,,,,,,,,,,,,,
293419,2022-11-15_12h22.59.226,vts_reward_expectancy_bt,2022.2.4,MacIntel,60.0024001,Chrome,1440,900,,,,,0,666,,,,,,,,,,,,,,,,,125,W,circle,1,1,,,,,,,,,,,,,,,,switch,number,numSwt,d,0.6645,noRew,,,,,,0,27,0,27,0,1,,,,,,,,,,,,,,,,,
293419,2022-11-15_12h22.59.226,vts_reward_expectancy_bt,2022.2.4,MacIntel,60.0024001,Chrome,1440,900,,,,,0,666,,,,,,,,,,,,,,,,,132,W,star,1,0,,,,,,,,,,,,,,,,switch,letter,lettSwt,k,0.8546,noRew,,,,,,0,28,0,28,0,1,,,,,,,,,,,,,,,,,
293419,2022-11-15_12h22.59.226,vts_reward_expectancy_bt,2022.2.4,MacIntel,60.0024001,Chrome,1440,900,,,,,0,666,,,,,,,,,,,,,,,,,139,Y,hexagon,1,0,,,,,,,,,,,,,,,,repeat,letter,lettRpt,k,0.6476,noRew,,,,,,0,29,0,29,0,1,,,,,,,,,,,,,,,,,
293419,2022-11-15_12h22.59.226,vts_reward_expectancy_bt,2022.2.4,MacIntel,60.0024001,Chrome,1440,900,,,,,0,666,,,,,,,,,,,,,,,,,146,U,triangle,1,0,,,,,,,,,,,,,,,,switch,number,numSwt,d,1.0632,noRew,,,,,,0,30,0,30,0,1,,,,,,,,,,,,,,,,,
293419,2022-11-15_12h22.59.226,vts_reward_expectancy_bt,2022.2.4,MacIntel,60.0024001,Chrome,1440,900,,,,,0,666,,,,,,,,,,,,,,,,,160,D,hexagon,1,0,,,,,,,,,,,,,,,,switch,letter,lettSwt,j,0.8145,noRew,,,,,,0,31,0,31,0,1,,,,,,,,,,,,,,,,,
293419,2022-11-15_12h22.59.226,vts_reward_expectancy_bt,2022.2.4,MacIntel,60.0024001,Chrome,1440,900,,,,,0,666,,,,,,,,,,,,,,,,,146,B,star,1,0,,,,,,,,,,,,,,,,switch,number,numSwt,d,0.3855,noRew,,,,,,0,32,0,32,0,1,,,,,,,,,,,,,,,,,
293419,2022-11-15_12h22.59.226,vts_reward_expectancy_bt,2022.2.4,MacIntel,60.0024001,Chrome,1440,900,,,,,0,666,,,,,,,,,,,,,,,,,160,Y,circle,1,0,,,,,,,,,,,,,,,,repeat,number,numRpt,f,0.7313,noRew,,,,,,0,33,0,33,0,1,,,,,,,,,,,,,,,,,
293419,2022-11-15_12h22.59.226,vts_reward_expectancy_bt,2022.2.4,MacIntel,60.0024001,Chrome,1440,900,,,,,0,666,,,,,,,,,,,,,,,,,132,U,hexagon,1,0,,,,,,,,,,,,,,,,repeat,number,numRpt,d,0.4537,noRew,,,,,,0,34,0,34,0,1,,,,,,,,,,,,,,,,,
293419,2022-11-15_12h22.59.226,vts_reward_expectancy_bt,2022.2.4,MacIntel,60.0024001,Chrome,1440,900,,,,,0,666,,,,,,,,,,,,,,,,,167,H,circle,1,0,,,,,,,,,,,,,,,,switch,letter,lettSwt,j,1.145,noRew,,,,,,0,35,0,35,0,1,,,,,,,,,,,,,,,,,
293419,2022-11-15_12h22.59.226,vts_reward_expectancy_bt,2022.2.4,MacIntel,60.0024001,Chrome,1440,900,,,,,0,666,,,,,,,,,,,,,,,,,146,Y,star,1,0,,,,,,,,,,,,,,,,repeat,letter,lettRpt,k,0.5123,noRew,,,,,,0,36,0,36,0,1,,,,,,,,,,,,,,,,,
293419,2022-11-15_12h22.59.226,vts_reward_expectancy_bt,2022.2.4,MacIntel,60.0024001,Chrome,1440,900,,,,,0,666,,,,,,,,,,,,,,,,,139,D,hexagon,1,0,,,,,,,,,,,,,,,,switch,number,numSwt,d,1.0052,noRew,,,,,,0,37,0,37,0,1,,,,,,,,,,,,,,,,,
293419,2022-11-15_12h22.59.226,vts_reward_expectancy_bt,2022.2.4,MacIntel,60.0024001,Chrome,1440,900,,,,,0,666,,,,,,,,,,,,,,,,,174,B,star,1,0,,,,,,,,,,,,,,,,switch,letter,lettSwt,j,0.6322,noRew,,,,,,0,38,0,38,0,1,,,,,,,,,,,,,,,,,
293419,2022-11-15_12h22.59.226,vts_reward_expectancy_bt,2022.2.4,MacIntel,60.0024001,Chrome,1440,900,,,,,0,666,,,,,,,,,,,,,,,,,167,F,triangle,0,0,,,,,,,,,,,,,,,,repeat,letter,NA,k,0.4122,noRew,,,,,,0,39,0,39,0,1,,,,,,,,,,,,,,,,,
293419,2022-11-15_12h22.59.226,vts_reward_expectancy_bt,2022.2.4,MacIntel,60.0024001,Chrome,1440,900,,,,,0,666,,,,,,,,,,,,,,,,,132,Y,hexagon,1,1,,,,,,,,,,,,,,,,repeat,letter,lettRpt,k,0.6543,noRew,,,,,,0,40,0,40,0,1,,,,,,,,,,,,,,,,,
293419,2022-11-15_12h22.59.226,vts_reward_expectancy_bt,2022.2.4,MacIntel,60.0024001,Chrome,1440,900,,,,,0,666,,,,,,,,,,,,,,,,,174,F,star,1,0,,,,,,,,,,,,,,,,repeat,letter,lettRpt,j,1.1497,noRew,,,,,,0,41,0,41,0,1,,,,,,,,,,,,,,,,,
293419,2022-11-15_12h22.59.226,vts_reward_expectancy_bt,2022.2.4,MacIntel,60.0024001,Chrome,1440,900,,,,,0,666,,,,,,,,,,,,,,,,,125,W,hexagon,1,0,,,,,,,,,,,,,,,,switch,number,numSwt,d,0.8526,noRew,,,,,,0,42,0,42,0,1,,,,,,,,,,,,,,,,,
293419,2022-11-15_12h22.59.226,vts_reward_expectancy_bt,2022.2.4,MacIntel,60.0024001,Chrome,1440,900,,,,,0,666,,,,,,,,,,,,,,,,,146,H,triangle,1,0,,,,,,,,,,,,,,,,repeat,number,numRpt,d,1.18,noRew,,,,,,0,43,0,43,0,1,,,,,,,,,,,,,,,,,
293419,2022-11-15_12h22.59.226,vts_reward_expectancy_bt,2022.2.4,MacIntel,60.0024001,Chrome,1440,900,,,,,0,666,,,,,,,,,,,,,,,,,125,W,triangle,1,0,,,,,,,,,,,,,,,,switch,letter,lettSwt,k,0.7047,noRew,,,,,,0,44,0,44,0,1,,,,,,,,,,,,,,,,,
293419,2022-11-15_12h22.59.226,vts_reward_expectancy_bt,2022.2.4,MacIntel,60.0024001,Chrome,1440,900,,,,,0,666,,,,,,,,,,,,,,,,,146,F,hexagon,1,0,,,,,,,,,,,,,,,,repeat,letter,lettRpt,j,0.6968,noRew,,,,,,0,45,0,45,0,1,,,,,,,,,,,,,,,,,
293419,2022-11-15_12h22.59.226,vts_reward_expectancy_bt,2022.2.4,MacIntel,60.0024001,Chrome,1440,900,,,,,0,666,,,,,,,,,,,,,,,,,181,B,hexagon,1,0,,,,,,,,,,,,,,,,repeat,letter,lettRpt,j,1.7479,noRew,,,,,,0,46,0,46,0,1,,,,,,,,,,,,,,,,,
293419,2022-11-15_12h22.59.226,vts_reward_expectancy_bt,2022.2.4,MacIntel,60.0024001,Chrome,1440,900,,,,,0,666,,,,,,,,,,,,,,,,,167,Y,star,0,0,,,,,,,,,,,,,,,,switch,number,NA,d,1.0813,noRew,,,,,,0,47,0,47,0,1,,,,,,,,,,,,,,,,,
293419,2022-11-15_12h22.59.226,vts_reward_expectancy_bt,2022.2.4,MacIntel,60.0024001,Chrome,1440,900,,,,,0,666,,,,,,,,,,,,,,,,,167,B,hexagon,1,1,,,,,,,,,,,,,,,,repeat,number,numRpt,f,0.6829,noRew,,,,,,0,48,0,48,0,1,,,,,,,,,,,,,,,,,
293419,2022-11-15_12h22.59.226,vts_reward_expectancy_bt,2022.2.4,MacIntel,60.0024001,Chrome,1440,900,,,,,0,666,,,,,,,,,,,,,,,,,181,Y,triangle,1,0,,,,,,,,,,,,,,,,switch,letter,lettSwt,k,0.5446,noRew,,,,,,0,49,0,49,0,1,,,,,,,,,,,,,,,,,
293419,2022-11-15_12h22.59.226,vts_reward_expectancy_bt,2022.2.4,MacIntel,60.0024001,Chrome,1440,900,,,,,0,666,,,,,,,,,,,,,,,,,125,S,star,1,0,,,,,,,,,,,,,,,,switch,number,numSwt,d,0.5844,noRew,,,,,,0,50,0,50,0,1,,,,,,,,,,,,,,,,,
293419,2022-11-15_12h22.59.226,vts_reward_expectancy_bt,2022.2.4,MacIntel,60.0024001,Chrome,1440,900,,,,,0,666,,,,,,,,,,,,,,,,,132,U,hexagon,1,0,,,,,,,,,,,,,,,,switch,letter,lettSwt,k,0.8147,noRew,,,,,,0,51,0,51,0,1,,,,,,,,,,,,,,,,,
293419,2022-11-15_12h22.59.226,vts_reward_expectancy_bt,2022.2.4,MacIntel,60.0024001,Chrome,1440,900,,,,,0,666,,,,,,,,,,,,,,,,,167,F,hexagon,1,0,,,,,,,,,,,,,,,,repeat,letter,lettRpt,j,1.3657,noRew,,,,,,0,52,0,52,0,1,,,,,,,,,,,,,,,,,
293419,2022-11-15_12h22.59.226,vts_reward_expectancy_bt,2022.2.4,MacIntel,60.0024001,Chrome,1440,900,,,,,0,666,,,,,,,,,,,,,,,,,160,B,star,1,0,,,,,,,,,,,,,,,,repeat,letter,lettRpt,j,0.5306,noRew,,,,,,0,53,0,53,0,1,,,,,,,,,,,,,,,,,
293419,2022-11-15_12h22.59.226,vts_reward_expectancy_bt,2022.2.4,MacIntel,60.0024001,Chrome,1440,900,,,,,0,666,,,,,,,,,,,,,,,,,146,H,hexagon,1,0,,,,,,,,,,,,,,,,switch,number,numSwt,d,0.8342,noRew,,,,,,0,54,0,54,0,1,,,,,,,,,,,,,,,,,
293419,2022-11-15_12h22.59.226,vts_reward_expectancy_bt,2022.2.4,MacIntel,60.0024001,Chrome,1440,900,,,,,0,666,,,,,,,,,,,,,,,,,125,D,circle,1,0,,,,,,,,,,,,,,,,repeat,number,numRpt,d,0.8944,noRew,,,,,,0,55,0,55,0,1,,,,,,,,,,,,,,,,,
293419,2022-11-15_12h22.59.226,vts_reward_expectancy_bt,2022.2.4,MacIntel,60.0024001,Chrome,1440,900,,,,,0,666,,,,,,,,,,,,,,,,,160,D,star,1,0,,,,,,,,,,,,,,,,switch,letter,lettSwt,j,0.7319,noRew,,,,,,0,56,0,56,0,1,,,,,,,,,,,,,,,,,
293419,2022-11-15_12h22.59.226,vts_reward_expectancy_bt,2022.2.4,MacIntel,60.0024001,Chrome,1440,900,,,,,0,666,,,,,,,,,,,,,,,,,167,H,circle,1,0,,,,,,,,,,,,,,,,switch,number,numSwt,f,1.1219,noRew,,,,,,0,57,0,57,0,1,,,,,,,,,,,,,,,,,
293419,2022-11-15_12h22.59.226,vts_reward_expectancy_bt,2022.2.4,MacIntel,60.0024001,Chrome,1440,900,,,,,0,666,,,,,,,,,,,,,,,,,139,F,hexagon,1,0,,,,,,,,,,,,,,,,repeat,number,numRpt,d,1.0614,noRew,,,,,,0,58,0,58,0,1,,,,,,,,,,,,,,,,,
293419,2022-11-15_12h22.59.226,vts_reward_expectancy_bt,2022.2.4,MacIntel,60.0024001,Chrome,1440,900,,,,,0,666,,,,,,,,,,,,,,,,,174,S,circle,1,0,,,,,,,,,,,,,,,,switch,letter,lettSwt,k,1.6965,noRew,,,,,,0,59,0,59,0,1,,,,,,,,,,,,,,,,,
293419,2022-11-15_12h22.59.226,vts_reward_expectancy_bt,2022.2.4,MacIntel,60.0024001,Chrome,1440,900,,,,,0,666,,,,,,,,,,,,,,,,,160,W,triangle,1,0,,,,,,,,,,,,,,,,repeat,letter,lettRpt,k,0.8136,noRew,,,,,,0,60,0,60,0,1,,,,,,,,,,,,,,,,,
293419,2022-11-15_12h22.59.226,vts_reward_expectancy_bt,2022.2.4,MacIntel,60.0024001,Chrome,1440,900,,,,,0,666,,,,,,,,,,,,,,,,,167,F,circle,1,0,,,,,,,,,,,,,,,,switch,number,numSwt,f,0.8306,noRew,,,,,,0,61,0,61,0,1,,,,,,,,,,,,,,,,,
293419,2022-11-15_12h22.59.226,vts_reward_expectancy_bt,2022.2.4,MacIntel,60.0024001,Chrome,1440,900,,,,,0,666,,,,,,,,,,,,,,,,,125,U,hexagon,1,0,,,,,,,,,,,,,,,,switch,letter,lettSwt,k,0.5997,noRew,,,,,,0,62,0,62,0,1,,,,,,,,,,,,,,,,,
293419,2022-11-15_12h22.59.226,vts_reward_expectancy_bt,2022.2.4,MacIntel,60.0024001,Chrome,1440,900,,,,,0,666,,,,,,,,,,,,,,,,,132,D,star,1,0,,,,,,,,,,,,,,,,switch,number,numSwt,d,0.7143,noRew,,,,,,0,63,0,63,0,1,,,,,,,,,,,,,,,,,
293419,2022-11-15_12h22.59.226,vts_reward_expectancy_bt,2022.2.4,MacIntel,60.0024001,Chrome,1440,900,,,,,,,,,,,,,,,,,,,,,,,,,,,,,,,,,,,,,,,,,,,,,,,,,,,,,,,,,,,,,,,,,,,,,,,,,,,,
293419,2022-11-15_12h22.59.226,vts_reward_expectancy_bt,2022.2.4,MacIntel,60.0024001,Chrome,1440,900,,,,,1,667,,,,,,,,,,,,,,,,,181,U,circle,1,0,,,,,,,,,,,,,,,,repeat,number,numRpt,f,1.0807,Lo,,,,,,0,,,,,,space,9.329,high,0,0,0,0,1,,,,,,,,,
293419,2022-11-15_12h22.59.226,vts_reward_expectancy_bt,2022.2.4,MacIntel,60.0024001,Chrome,1440,900,,,,,0,667,,,,,,,,,,,,,,,,,132,B,star,1,0,,,,,,,,,,,,,,,,repeat,number,numRpt,d,0.6889,Hi,,,,,,0,,,,,,,,high,1,0,1,0,1,,,,,,,,,
293419,2022-11-15_12h22.59.226,vts_reward_expectancy_bt,2022.2.4,MacIntel,60.0024001,Chrome,1440,900,,,,,10,677,,,,,,,,,,,,,,,,,146,H,hexagon,1,0,,,,,,,,,,,,,,,,switch,letter,lettSwt,j,0.6175,Hi,,,,,,0,,,,,,,,high,2,0,2,0,1,,,,,,,,,
293419,2022-11-15_12h22.59.226,vts_reward_expectancy_bt,2022.2.4,MacIntel,60.0024001,Chrome,1440,900,,,,,1,678,,,,,,,,,,,,,,,,,174,D,triangle,1,0,,,,,,,,,,,,,,,,repeat,letter,lettRpt,j,0.4305,Lo,,,,,,0,,,,,,,,high,3,0,3,0,1,,,,,,,,,
293419,2022-11-15_12h22.59.226,vts_reward_expectancy_bt,2022.2.4,MacIntel,60.0024001,Chrome,1440,900,,,,,10,688,,,,,,,,,,,,,,,,,160,Y,circle,1,0,,,,,,,,,,,,,,,,switch,number,numSwt,f,0.4308,Lo,,,,,,0,,,,,,,,high,4,0,4,0,1,,,,,,,,,
293419,2022-11-15_12h22.59.226,vts_reward_expectancy_bt,2022.2.4,MacIntel,60.0024001,Chrome,1440,900,,,,,0,688,,,,,,,,,,,,,,,,,167,S,star,0,0,,,,,,,,,,,,,,,,switch,letter,NA,j,0.3785,Lo,,,,,,0,,,,,,,,high,5,0,5,0,1,,,,,,,,,
293419,2022-11-15_12h22.59.226,vts_reward_expectancy_bt,2022.2.4,MacIntel,60.0024001,Chrome,1440,900,,,,,0,688,,,,,,,,,,,,,,,,,125,F,hexagon,0,1,,,,,,,,,,,,,,,,repeat,letter,NA,k,0.5448,Lo,,,,,,0,,,,,,,,high,6,0,6,0,1,,,,,,,,,
293419,2022-11-15_12h22.59.226,vts_reward_expectancy_bt,2022.2.4,MacIntel,60.0024001,Chrome,1440,900,,,,,1,689,,,,,,,,,,,,,,,,,139,W,triangle,1,1,,,,,,,,,,,,,,,,repeat,letter,lettRpt,k,0.5038,Lo,,,,,,0,,,,,,,,high,7,0,7,0,1,,,,,,,,,
293419,2022-11-15_12h22.59.226,vts_reward_expectancy_bt,2022.2.4,MacIntel,60.0024001,Chrome,1440,900,,,,,1,690,,,,,,,,,,,,,,,,,181,U,circle,1,0,,,,,,,,,,,,,,,,switch,number,numSwt,f,0.4546,Lo,,,,,,0,,,,,,,,high,8,0,8,0,1,,,,,,,,,
293419,2022-11-15_12h22.59.226,vts_reward_expectancy_bt,2022.2.4,MacIntel,60.0024001,Chrome,1440,900,,,,,1,691,,,,,,,,,,,,,,,,,132,B,triangle,1,0,,,,,,,,,,,,,,,,repeat,number,numRpt,d,0.4482,Lo,,,,,,0,,,,,,,,high,9,0,9,0,1,,,,,,,,,
293419,2022-11-15_12h22.59.226,vts_reward_expectancy_bt,2022.2.4,MacIntel,60.0024001,Chrome,1440,900,,,,,10,701,,,,,,,,,,,,,,,,,146,H,star,1,0,,,,,,,,,,,,,,,,repeat,number,numRpt,d,0.6154,Hi,,,,,,0,,,,,,,,high,10,0,10,0,1,,,,,,,,,
293419,2022-11-15_12h22.59.226,vts_reward_expectancy_bt,2022.2.4,MacIntel,60.0024001,Chrome,1440,900,,,,,0,701,,,,,,,,,,,,,,,,,174,D,hexagon,0,0,,,,,,,,,,,,,,,,switch,letter,NA,k,0.603,Hi,,,,,,0,,,,,,,,high,11,0,11,0,1,,,,,,,,,
293419,2022-11-15_12h22.59.226,vts_reward_expectancy_bt,2022.2.4,MacIntel,60.0024001,Chrome,1440,900,,,,,1,702,,,,,,,,,,,,,,,,,160,Y,circle,1,1,,,,,,,,,,,,,,,,repeat,letter,lettRpt,k,0.5962,Lo,,,,,,0,,,,,,,,high,12,0,12,0,1,,,,,,,,,
293419,2022-11-15_12h22.59.226,vts_reward_expectancy_bt,2022.2.4,MacIntel,60.0024001,Chrome,1440,900,,,,,1,703,,,,,,,,,,,,,,,,,167,S,star,1,0,,,,,,,,,,,,,,,,repeat,letter,lettRpt,k,0.5379,Hi,,,,,,0,,,,,,,,high,13,0,13,0,1,,,,,,,,,
293419,2022-11-15_12h22.59.226,vts_reward_expectancy_bt,2022.2.4,MacIntel,60.0024001,Chrome,1440,900,,,,,10,713,,,,,,,,,,,,,,,,,125,F,hexagon,1,0,,,,,,,,,,,,,,,,repeat,letter,lettRpt,j,0.599,Hi,,,,,,0,,,,,,,,high,14,0,14,0,1,,,,,,,,,
293419,2022-11-15_12h22.59.226,vts_reward_expectancy_bt,2022.2.4,MacIntel,60.0024001,Chrome,1440,900,,,,,1,714,,,,,,,,,,,,,,,,,139,W,triangle,1,0,,,,,,,,,,,,,,,,switch,number,numSwt,d,0.4487,Lo,,,,,,0,,,,,,,,high,15,0,15,0,1,,,,,,,,,
293419,2022-11-15_12h22.59.226,vts_reward_expectancy_bt,2022.2.4,MacIntel,60.0024001,Chrome,1440,900,,,,,0,714,,,,,,,,,,,,,,,,,167,B,star,1,0,,,,,,,,,,,,,,,,repeat,number,numRpt,f,0.7385,Hi,,,,,,0,,,,,,,,high,16,0,16,0,1,,,,,,,,,
293419,2022-11-15_12h22.59.226,vts_reward_expectancy_bt,2022.2.4,MacIntel,60.0024001,Chrome,1440,900,,,,,10,724,,,,,,,,,,,,,,,,,146,Y,hexagon,1,0,,,,,,,,,,,,,,,,repeat,number,numRpt,d,0.6362,Hi,,,,,,0,,,,,,,,high,17,0,17,0,1,,,,,,,,,
293419,2022-11-15_12h22.59.226,vts_reward_expectancy_bt,2022.2.4,MacIntel,60.0024001,Chrome,1440,900,,,,,1,725,,,,,,,,,,,,,,,,,139,S,triangle,1,0,,,,,,,,,,,,,,,,switch,letter,lettSwt,k,0.6308,Lo,,,,,,0,,,,,,,,high,18,0,18,0,1,,,,,,,,,
293419,2022-11-15_12h22.59.226,vts_reward_expectancy_bt,2022.2.4,MacIntel,60.0024001,Chrome,1440,900,,,,,1,726,,,,,,,,,,,,,,,,,174,F,circle,1,0,,,,,,,,,,,,,,,,repeat,letter,lettRpt,j,0.696,Lo,,,,,,0,,,,,,,,high,19,0,19,0,1,,,,,,,,,
293419,2022-11-15_12h22.59.226,vts_reward_expectancy_bt,2022.2.4,MacIntel,60.0024001,Chrome,1440,900,,,,,1,727,,,,,,,,,,,,,,,,,132,H,triangle,1,0,,,,,,,,,,,,,,,,switch,number,numSwt,d,0.4814,Lo,,,,,,0,,,,,,,,high,20,0,20,0,1,,,,,,,,,
293419,2022-11-15_12h22.59.226,vts_reward_expectancy_bt,2022.2.4,MacIntel,60.0024001,Chrome,1440,900,,,,,1,728,,,,,,,,,,,,,,,,,181,W,circle,1,0,,,,,,,,,,,,,,,,repeat,number,numRpt,f,0.6116,Lo,,,,,,0,,,,,,,,high,21,0,21,0,1,,,,,,,,,
293419,2022-11-15_12h22.59.226,vts_reward_expectancy_bt,2022.2.4,MacIntel,60.0024001,Chrome,1440,900,,,,,10,738,,,,,,,,,,,,,,,,,160,U,star,1,0,,,,,,,,,,,,,,,,switch,letter,lettSwt,k,0.6294,Hi,,,,,,0,,,,,,,,high,22,0,22,0,1,,,,,,,,,
293419,2022-11-15_12h22.59.226,vts_reward_expectancy_bt,2022.2.4,MacIntel,60.0024001,Chrome,1440,900,,,,,10,748,,,,,,,,,,,,,,,,,125,D,hexagon,1,0,,,,,,,,,,,,,,,,switch,number,numSwt,d,0.4993,Hi,,,,,,0,,,,,,,,high,23,0,23,0,1,,,,,,,,,
293419,2022-11-15_12h22.59.226,vts_reward_expectancy_bt,2022.2.4,MacIntel,60.0024001,Chrome,1440,900,,,,,1,749,,,,,,,,,,,,,,,,,167,F,hexagon,1,0,,,,,,,,,,,,,,,,repeat,number,numRpt,f,0.4301,Hi,,,,,,0,,,,,,,,high,24,0,24,0,1,,,,,,,,,
293419,2022-11-15_12h22.59.226,vts_reward_expectancy_bt,2022.2.4,MacIntel,60.0024001,Chrome,1440,900,,,,,1,750,,,,,,,,,,,,,,,,,146,U,triangle,1,0,,,,,,,,,,,,,,,,switch,letter,lettSwt,k,0.5648,Lo,,,,,,0,,,,,,,,high,25,0,25,0,1,,,,,,,,,
293419,2022-11-15_12h22.59.226,vts_reward_expectancy_bt,2022.2.4,MacIntel,60.0024001,Chrome,1440,900,,,,,1,751,,,,,,,,,,,,,,,,,132,H,circle,1,0,,,,,,,,,,,,,,,,switch,number,numSwt,d,0.6821,Lo,,,,,,0,,,,,,,,high,26,0,26,0,1,,,,,,,,,
293419,2022-11-15_12h22.59.226,vts_reward_expectancy_bt,2022.2.4,MacIntel,60.0024001,Chrome,1440,900,,,,,0,751,,,,,,,,,,,,,,,,,160,D,star,1,0,,,,,,,,,,,,,,,,switch,letter,lettSwt,j,0.8014,Hi,,,,,,0,,,,,,,,high,27,0,27,0,1,,,,,,,,,
293419,2022-11-15_12h22.59.226,vts_reward_expectancy_bt,2022.2.4,MacIntel,60.0024001,Chrome,1440,900,,,,,1,752,,,,,,,,,,,,,,,,,181,S,triangle,1,0,,,,,,,,,,,,,,,,repeat,letter,lettRpt,k,0.6957,Lo,,,,,,0,,,,,,,,high,28,0,28,0,1,,,,,,,,,
293419,2022-11-15_12h22.59.226,vts_reward_expectancy_bt,2022.2.4,MacIntel,60.0024001,Chrome,1440,900,,,,,10,762,,,,,,,,,,,,,,,,,125,B,hexagon,1,0,,,,,,,,,,,,,,,,switch,number,numSwt,d,0.6968,Hi,,,,,,0,,,,,,,,high,29,0,29,0,1,,,,,,,,,
293419,2022-11-15_12h22.59.226,vts_reward_expectancy_bt,2022.2.4,MacIntel,60.0024001,Chrome,1440,900,,,,,10,772,,,,,,,,,,,,,,,,,174,W,star,1,0,,,,,,,,,,,,,,,,repeat,number,numRpt,f,0.4675,Hi,,,,,,0,,,,,,,,high,30,0,30,0,1,,,,,,,,,
293419,2022-11-15_12h22.59.226,vts_reward_expectancy_bt,2022.2.4,MacIntel,60.0024001,Chrome,1440,900,,,,,1,773,,,,,,,,,,,,,,,,,139,Y,circle,1,0,,,,,,,,,,,,,,,,switch,letter,lettSwt,k,0.8059,Lo,,,,,,0,,,,,,,,high,31,0,31,0,1,,,,,,,,,
293419,2022-11-15_12h22.59.226,vts_reward_expectancy_bt,2022.2.4,MacIntel,60.0024001,Chrome,1440,900,,,,,1,774,,,,,,,,,,,,,,,,,160,S,circle,1,0,,,,,,,,,,,,,,,,switch,number,numSwt,f,0.6149,Lo,,,,,,1,,,,,,space,5.0059,high,0,0,0,0,1,,,,,,,,,
293419,2022-11-15_12h22.59.226,vts_reward_expectancy_bt,2022.2.4,MacIntel,60.0024001,Chrome,1440,900,,,,,0,774,,,,,,,,,,,,,,,,,174,B,star,1,0,,,,,,,,,,,,,,,,repeat,number,numRpt,f,0.8179,Hi,,,,,,1,,,,,,,,high,1,0,1,0,1,,,,,,,,,
293419,2022-11-15_12h22.59.226,vts_reward_expectancy_bt,2022.2.4,MacIntel,60.0024001,Chrome,1440,900,,,,,0,774,,,,,,,,,,,,,,,,,146,U,hexagon,1,0,,,,,,,,,,,,,,,,switch,letter,lettSwt,k,0.9023,Hi,,,,,,1,,,,,,,,high,2,0,2,0,1,,,,,,,,,
293419,2022-11-15_12h22.59.226,vts_reward_expectancy_bt,2022.2.4,MacIntel,60.0024001,Chrome,1440,900,,,,,1,775,,,,,,,,,,,,,,,,,132,Y,triangle,1,0,,,,,,,,,,,,,,,,repeat,letter,lettRpt,k,0.6216,Lo,,,,,,1,,,,,,,,high,3,0,3,0,1,,,,,,,,,
293419,2022-11-15_12h22.59.226,vts_reward_expectancy_bt,2022.2.4,MacIntel,60.0024001,Chrome,1440,900,,,,,1,776,,,,,,,,,,,,,,,,,167,H,circle,1,0,,,,,,,,,,,,,,,,repeat,letter,lettRpt,j,1.0186,Lo,,,,,,1,,,,,,,,high,4,0,4,0,1,,,,,,,,,
293419,2022-11-15_12h22.59.226,vts_reward_expectancy_bt,2022.2.4,MacIntel,60.0024001,Chrome,1440,900,,,,,0,776,,,,,,,,,,,,,,,,,181,D,star,1,0,,,,,,,,,,,,,,,,switch,number,numSwt,f,0.6543,Hi,,,,,,1,,,,,,,,high,5,0,5,0,1,,,,,,,,,
293419,2022-11-15_12h22.59.226,vts_reward_expectancy_bt,2022.2.4,MacIntel,60.0024001,Chrome,1440,900,,,,,0,776,,,,,,,,,,,,,,,,,139,F,hexagon,1,0,,,,,,,,,,,,,,,,repeat,number,numRpt,d,0.5871,Hi,,,,,,1,,,,,,,,high,6,0,6,0,1,,,,,,,,,
293419,2022-11-15_12h22.59.226,vts_reward_expectancy_bt,2022.2.4,MacIntel,60.0024001,Chrome,1440,900,,,,,1,777,,,,,,,,,,,,,,,,,125,W,triangle,1,0,,,,,,,,,,,,,,,,repeat,number,numRpt,d,0.4615,Lo,,,,,,1,,,,,,,,high,7,0,7,0,1,,,,,,,,,
293419,2022-11-15_12h22.59.226,vts_reward_expectancy_bt,2022.2.4,MacIntel,60.0024001,Chrome,1440,900,,,,,1,778,,,,,,,,,,,,,,,,,160,S,hexagon,1,0,,,,,,,,,,,,,,,,repeat,number,numRpt,f,0.4941,Hi,,,,,,1,,,,,,,,high,8,0,8,0,1,,,,,,,,,
293419,2022-11-15_12h22.59.226,vts_reward_expectancy_bt,2022.2.4,MacIntel,60.0024001,Chrome,1440,900,,,,,1,779,,,,,,,,,,,,,,,,,174,B,triangle,1,0,,,,,,,,,,,,,,,,repeat,number,numRpt,f,0.5646,Lo,,,,,,1,,,,,,,,high,9,0,9,0,1,,,,,,,,,
293419,2022-11-15_12h22.59.226,vts_reward_expectancy_bt,2022.2.4,MacIntel,60.0024001,Chrome,1440,900,,,,,10,789,,,,,,,,,,,,,,,,,146,U,circle,1,0,,,,,,,,,,,,,,,,repeat,number,numRpt,d,0.4647,Lo,,,,,,1,,,,,,,,high,10,0,10,0,1,,,,,,,,,
293419,2022-11-15_12h22.59.226,vts_reward_expectancy_bt,2022.2.4,MacIntel,60.0024001,Chrome,1440,900,,,,,1,790,,,,,,,,,,,,,,,,,132,Y,star,1,0,,,,,,,,,,,,,,,,switch,letter,lettSwt,k,0.5478,Hi,,,,,,1,,,,,,,,high,11,0,11,0,1,,,,,,,,,
293419,2022-11-15_12h22.59.226,vts_reward_expectancy_bt,2022.2.4,MacIntel,60.0024001,Chrome,1440,900,,,,,0,790,,,,,,,,,,,,,,,,,167,H,triangle,0,0,,,,,,,,,,,,,,,,repeat,letter,NA,k,0.5305,Hi,,,,,,1,,,,,,,,high,12,0,12,0,1,,,,,,,,,
293419,2022-11-15_12h22.59.226,vts_reward_expectancy_bt,2022.2.4,MacIntel,60.0024001,Chrome,1440,900,,,,,1,791,,,,,,,,,,,,,,,,,181,D,circle,1,1,,,,,,,,,,,,,,,,repeat,letter,lettRpt,j,0.6777,Lo,,,,,,1,,,,,,,,high,13,0,13,0,1,,,,,,,,,
293419,2022-11-15_12h22.59.226,vts_reward_expectancy_bt,2022.2.4,MacIntel,60.0024001,Chrome,1440,900,,,,,0,791,,,,,,,,,,,,,,,,,139,F,hexagon,1,0,,,,,,,,,,,,,,,,switch,number,numSwt,d,0.6798,Hi,,,,,,1,,,,,,,,high,14,0,14,0,1,,,,,,,,,
293419,2022-11-15_12h22.59.226,vts_reward_expectancy_bt,2022.2.4,MacIntel,60.0024001,Chrome,1440,900,,,,,0,791,,,,,,,,,,,,,,,,,125,W,star,0,0,,,,,,,,,,,,,,,,switch,letter,NA,j,1.2172,Hi,,,,,,1,,,,,,,,high,15,0,15,0,1,,,,,,,,,
293419,2022-11-15_12h22.59.226,vts_reward_expectancy_bt,2022.2.4,MacIntel,60.0024001,Chrome,1440,900,,,,,1,792,,,,,,,,,,,,,,,,,125,H,triangle,1,1,,,,,,,,,,,,,,,,repeat,letter,lettRpt,j,0.6329,Lo,,,,,,1,,,,,,,,high,16,0,16,0,1,,,,,,,,,
293419,2022-11-15_12h22.59.226,vts_reward_expectancy_bt,2022.2.4,MacIntel,60.0024001,Chrome,1440,900,,,,,1,793,,,,,,,,,,,,,,,,,132,B,circle,1,0,,,,,,,,,,,,,,,,repeat,letter,lettRpt,j,0.5636,Lo,,,,,,1,,,,,,,,high,17,0,17,0,1,,,,,,,,,
293419,2022-11-15_12h22.59.226,vts_reward_expectancy_bt,2022.2.4,MacIntel,60.0024001,Chrome,1440,900,,,,,0,793,,,,,,,,,,,,,,,,,167,F,hexagon,1,0,,,,,,,,,,,,,,,,repeat,letter,lettRpt,j,0.6634,Hi,,,,,,1,,,,,,,,high,18,0,18,0,1,,,,,,,,,
293419,2022-11-15_12h22.59.226,vts_reward_expectancy_bt,2022.2.4,MacIntel,60.0024001,Chrome,1440,900,,,,,0,793,,,,,,,,,,,,,,,,,160,Y,star,0,0,,,,,,,,,,,,,,,,switch,number,NA,d,0.6344,Hi,,,,,,1,,,,,,,,high,19,0,19,0,1,,,,,,,,,
293419,2022-11-15_12h22.59.226,vts_reward_expectancy_bt,2022.2.4,MacIntel,60.0024001,Chrome,1440,900,,,,,10,803,,,,,,,,,,,,,,,,,146,U,triangle,1,1,,,,,,,,,,,,,,,,repeat,number,numRpt,d,0.7041,Lo,,,,,,1,,,,,,,,high,20,0,20,0,1,,,,,,,,,
293419,2022-11-15_12h22.59.226,vts_reward_expectancy_bt,2022.2.4,MacIntel,60.0024001,Chrome,1440,900,,,,,10,813,,,,,,,,,,,,,,,,,181,D,hexagon,1,0,,,,,,,,,,,,,,,,repeat,number,numRpt,f,0.5538,Hi,,,,,,1,,,,,,,,high,21,0,21,0,1,,,,,,,,,
293419,2022-11-15_12h22.59.226,vts_reward_expectancy_bt,2022.2.4,MacIntel,60.0024001,Chrome,1440,900,,,,,0,813,,,,,,,,,,,,,,,,,139,W,star,1,0,,,,,,,,,,,,,,,,switch,letter,lettSwt,k,0.6466,Hi,,,,,,1,,,,,,,,high,22,0,22,0,1,,,,,,,,,
293419,2022-11-15_12h22.59.226,vts_reward_expectancy_bt,2022.2.4,MacIntel,60.0024001,Chrome,1440,900,,,,,0,813,,,,,,,,,,,,,,,,,174,S,circle,0,0,,,,,,,,,,,,,,,,repeat,letter,NA,j,0.9462,Hi,,,,,,1,,,,,,,,high,23,0,23,0,1,,,,,,,,,
293419,2022-11-15_12h22.59.226,vts_reward_expectancy_bt,2022.2.4,MacIntel,60.0024001,Chrome,1440,900,,,,,1,814,,,,,,,,,,,,,,,,,174,Y,triangle,1,1,,,,,,,,,,,,,,,,repeat,letter,lettRpt,k,0.6478,Lo,,,,,,1,,,,,,,,high,24,0,24,0,1,,,,,,,,,
293419,2022-11-15_12h22.59.226,vts_reward_expectancy_bt,2022.2.4,MacIntel,60.0024001,Chrome,1440,900,,,,,0,814,,,,,,,,,,,,,,,,,160,W,hexagon,1,0,,,,,,,,,,,,,,,,repeat,letter,lettRpt,k,0.6608,Hi,,,,,,1,,,,,,,,high,25,0,25,0,1,,,,,,,,,
293419,2022-11-15_12h22.59.226,vts_reward_expectancy_bt,2022.2.4,MacIntel,60.0024001,Chrome,1440,900,,,,,0,814,,,,,,,,,,,,,,,,,181,F,circle,0,0,,,,,,,,,,,,,,,,repeat,letter,NA,k,0.7466,Hi,,,,,,1,,,,,,,,high,26,0,26,0,1,,,,,,,,,
293419,2022-11-15_12h22.59.226,vts_reward_expectancy_bt,2022.2.4,MacIntel,60.0024001,Chrome,1440,900,,,,,0,814,,,,,,,,,,,,,,,,,125,U,star,1,1,,,,,,,,,,,,,,,,switch,number,numSwt,d,0.9167,Hi,,,,,,1,,,,,,,,high,27,0,27,0,1,,,,,,,,,
293419,2022-11-15_12h22.59.226,vts_reward_expectancy_bt,2022.2.4,MacIntel,60.0024001,Chrome,1440,900,,,,,0,814,,,,,,,,,,,,,,,,,167,S,hexagon,1,0,,,,,,,,,,,,,,,,repeat,number,numRpt,f,0.6868,Hi,,,,,,1,,,,,,,,high,28,0,28,0,1,,,,,,,,,
293419,2022-11-15_12h22.59.226,vts_reward_expectancy_bt,2022.2.4,MacIntel,60.0024001,Chrome,1440,900,,,,,1,815,,,,,,,,,,,,,,,,,139,B,triangle,1,0,,,,,,,,,,,,,,,,repeat,number,numRpt,d,0.9818,Lo,,,,,,1,,,,,,,,high,29,0,29,0,1,,,,,,,,,
293419,2022-11-15_12h22.59.226,vts_reward_expectancy_bt,2022.2.4,MacIntel,60.0024001,Chrome,1440,900,,,,,1,816,,,,,,,,,,,,,,,,,132,D,circle,1,0,,,,,,,,,,,,,,,,repeat,number,numRpt,d,0.6222,Lo,,,,,,1,,,,,,,,high,30,0,30,0,1,,,,,,,,,
293419,2022-11-15_12h22.59.226,vts_reward_expectancy_bt,2022.2.4,MacIntel,60.0024001,Chrome,1440,900,,,,,0,816,,,,,,,,,,,,,,,,,146,H,star,1,0,,,,,,,,,,,,,,,,switch,letter,lettSwt,j,0.647,Hi,,,,,,1,,,,,,,,high,31,0,31,0,1,,,,,,,,,
293419,2022-11-15_12h22.59.226,vts_reward_expectancy_bt,2022.2.4,MacIntel,60.0024001,Chrome,1440,900,,,,,10,826,,,,,,,,,,,,,,,,,181,W,hexagon,1,0,,,,,,,,,,,,,,,,switch,number,numSwt,f,0.6122,Hi,,,,,,2,,,,,,space,9.7461,high,0,0,0,0,1,,,,,,,,,
293419,2022-11-15_12h22.59.226,vts_reward_expectancy_bt,2022.2.4,MacIntel,60.0024001,Chrome,1440,900,,,,,0,826,,,,,,,,,,,,,,,,,139,Y,star,0,0,,,,,,,,,,,,,,,,switch,letter,NA,j,0.7012,Hi,,,,,,2,,,,,,,,high,1,0,1,0,1,,,,,,,,,
293419,2022-11-15_12h22.59.226,vts_reward_expectancy_bt,2022.2.4,MacIntel,60.0024001,Chrome,1440,900,,,,,1,827,,,,,,,,,,,,,,,,,132,F,triangle,1,1,,,,,,,,,,,,,,,,repeat,letter,lettRpt,j,0.6316,Lo,,,,,,2,,,,,,,,high,2,0,2,0,1,,,,,,,,,
293419,2022-11-15_12h22.59.226,vts_reward_expectancy_bt,2022.2.4,MacIntel,60.0024001,Chrome,1440,900,,,,,1,828,,,,,,,,,,,,,,,,,146,H,circle,1,0,,,,,,,,,,,,,,,,switch,number,numSwt,d,0.6107,Lo,,,,,,2,,,,,,,,high,3,0,3,0,1,,,,,,,,,
293419,2022-11-15_12h22.59.226,vts_reward_expectancy_bt,2022.2.4,MacIntel,60.0024001,Chrome,1440,900,,,,,10,838,,,,,,,,,,,,,,,,,167,B,hexagon,1,0,,,,,,,,,,,,,,,,switch,letter,lettSwt,j,0.4446,Hi,,,,,,2,,,,,,,,high,4,0,4,0,1,,,,,,,,,
293419,2022-11-15_12h22.59.226,vts_reward_expectancy_bt,2022.2.4,MacIntel,60.0024001,Chrome,1440,900,,,,,0,838,,,,,,,,,,,,,,,,,174,U,star,1,0,,,,,,,,,,,,,,,,repeat,letter,lettRpt,k,0.7181,Hi,,,,,,2,,,,,,,,high,5,0,5,0,1,,,,,,,,,
293419,2022-11-15_12h22.59.226,vts_reward_expectancy_bt,2022.2.4,MacIntel,60.0024001,Chrome,1440,900,,,,,10,848,,,,,,,,,,,,,,,,,125,D,triangle,1,0,,,,,,,,,,,,,,,,repeat,letter,lettRpt,j,0.5344,Lo,,,,,,2,,,,,,,,high,6,0,6,0,1,,,,,,,,,
293419,2022-11-15_12h22.59.226,vts_reward_expectancy_bt,2022.2.4,MacIntel,60.0024001,Chrome,1440,900,,,,,1,849,,,,,,,,,,,,,,,,,160,S,circle,1,0,,,,,,,,,,,,,,,,switch,number,numSwt,f,0.4807,Lo,,,,,,2,,,,,,,,high,7,0,7,0,1,,,,,,,,,
293419,2022-11-15_12h22.59.226,vts_reward_expectancy_bt,2022.2.4,MacIntel,60.0024001,Chrome,1440,900,,,,,10,859,,,,,,,,,,,,,,,,,181,W,hexagon,1,0,,,,,,,,,,,,,,,,repeat,number,numRpt,f,0.5492,Hi,,,,,,2,,,,,,,,high,8,0,8,0,1,,,,,,,,,
293419,2022-11-15_12h22.59.226,vts_reward_expectancy_bt,2022.2.4,MacIntel,60.0024001,Chrome,1440,900,,,,,1,860,,,,,,,,,,,,,,,,,139,Y,triangle,1,0,,,,,,,,,,,,,,,,repeat,number,numRpt,d,0.4791,Lo,,,,,,2,,,,,,,,high,9,0,9,0,1,,,,,,,,,
293419,2022-11-15_12h22.59.226,vts_reward_expectancy_bt,2022.2.4,MacIntel,60.0024001,Chrome,1440,900,,,,,10,870,,,,,,,,,,,,,,,,,132,F,circle,1,0,,,,,,,,,,,,,,,,switch,letter,lettSwt,j,0.582,Lo,,,,,,2,,,,,,,,high,10,0,10,0,1,,,,,,,,,
293419,2022-11-15_12h22.59.226,vts_reward_expectancy_bt,2022.2.4,MacIntel,60.0024001,Chrome,1440,900,,,,,10,880,,,,,,,,,,,,,,,,,146,H,star,1,0,,,,,,,,,,,,,,,,repeat,letter,lettRpt,j,0.6208,Hi,,,,,,2,,,,,,,,high,11,0,11,0,1,,,,,,,,,
293419,2022-11-15_12h22.59.226,vts_reward_expectancy_bt,2022.2.4,MacIntel,60.0024001,Chrome,1440,900,,,,,10,890,,,,,,,,,,,,,,,,,167,B,hexagon,1,0,,,,,,,,,,,,,,,,switch,number,numSwt,f,0.512,Hi,,,,,,2,,,,,,,,high,12,0,12,0,1,,,,,,,,,
293419,2022-11-15_12h22.59.226,vts_reward_expectancy_bt,2022.2.4,MacIntel,60.0024001,Chrome,1440,900,,,,,0,890,,,,,,,,,,,,,,,,,174,U,triangle,0,0,,,,,,,,,,,,,,,,switch,letter,NA,j,0.6328,Hi,,,,,,2,,,,,,,,high,13,0,13,0,1,,,,,,,,,
293419,2022-11-15_12h22.59.226,vts_reward_expectancy_bt,2022.2.4,MacIntel,60.0024001,Chrome,1440,900,,,,,10,900,,,,,,,,,,,,,,,,,125,D,circle,1,1,,,,,,,,,,,,,,,,repeat,letter,lettRpt,j,0.6037,Lo,,,,,,2,,,,,,,,high,14,0,14,0,1,,,,,,,,,
293419,2022-11-15_12h22.59.226,vts_reward_expectancy_bt,2022.2.4,MacIntel,60.0024001,Chrome,1440,900,,,,,0,900,,,,,,,,,,,,,,,,,160,S,star,0,0,,,,,,,,,,,,,,,,switch,number,NA,d,0.6785,Lo,,,,,,2,,,,,,,,high,15,0,15,0,1,,,,,,,,,
293419,2022-11-15_12h22.59.226,vts_reward_expectancy_bt,2022.2.4,MacIntel,60.0024001,Chrome,1440,900,,,,,0,900,,,,,,,,,,,,,,,,,181,W,hexagon,1,1,,,,,,,,,,,,,,,,repeat,number,numRpt,f,0.5957,Hi,,,,,,2,,,,,,,,high,16,0,16,0,1,,,,,,,,,
293419,2022-11-15_12h22.59.226,vts_reward_expectancy_bt,2022.2.4,MacIntel,60.0024001,Chrome,1440,900,,,,,0,900,,,,,,,,,,,,,,,,,167,S,circle,0,0,,,,,,,,,,,,,,,,repeat,number,NA,d,0.57,Hi,,,,,,2,,,,,,,,high,17,0,17,0,1,,,,,,,,,
293419,2022-11-15_12h22.59.226,vts_reward_expectancy_bt,2022.2.4,MacIntel,60.0024001,Chrome,1440,900,,,,,0,900,,,,,,,,,,,,,,,,,125,H,triangle,0,1,,,,,,,,,,,,,,,,switch,letter,NA,k,0.7148,Hi,,,,,,2,,,,,,,,high,18,0,18,0,1,,,,,,,,,
293419,2022-11-15_12h22.59.226,vts_reward_expectancy_bt,2022.2.4,MacIntel,60.0024001,Chrome,1440,900,,,,,0,900,,,,,,,,,,,,,,,,,132,F,star,1,1,,,,,,,,,,,,,,,,switch,number,numSwt,d,0.9319,Hi,,,,,,2,,,,,,,,high,19,0,19,0,1,,,,,,,,,
293419,2022-11-15_12h22.59.226,vts_reward_expectancy_bt,2022.2.4,MacIntel,60.0024001,Chrome,1440,900,,,,,10,910,,,,,,,,,,,,,,,,,174,Y,triangle,1,0,,,,,,,,,,,,,,,,repeat,number,numRpt,f,0.503,Lo,,,,,,2,,,,,,,,high,20,0,20,0,1,,,,,,,,,
293419,2022-11-15_12h22.59.226,vts_reward_expectancy_bt,2022.2.4,MacIntel,60.0024001,Chrome,1440,900,,,,,1,911,,,,,,,,,,,,,,,,,146,D,circle,1,0,,,,,,,,,,,,,,,,repeat,number,numRpt,d,0.9474,Lo,,,,,,2,,,,,,,,high,21,0,21,0,1,,,,,,,,,
293419,2022-11-15_12h22.59.226,vts_reward_expectancy_bt,2022.2.4,MacIntel,60.0024001,Chrome,1440,900,,,,,0,911,,,,,,,,,,,,,,,,,160,U,star,1,0,,,,,,,,,,,,,,,,switch,letter,lettSwt,k,0.6816,Hi,,,,,,2,,,,,,,,high,22,0,22,0,1,,,,,,,,,
293419,2022-11-15_12h22.59.226,vts_reward_expectancy_bt,2022.2.4,MacIntel,60.0024001,Chrome,1440,900,,,,,10,921,,,,,,,,,,,,,,,,,139,B,hexagon,1,0,,,,,,,,,,,,,,,,switch,number,numSwt,d,0.5704,Hi,,,,,,2,,,,,,,,high,23,0,23,0,1,,,,,,,,,
293419,2022-11-15_12h22.59.226,vts_reward_expectancy_bt,2022.2.4,MacIntel,60.0024001,Chrome,1440,900,,,,,0,921,,,,,,,,,,,,,,,,,167,F,star,1,0,,,,,,,,,,,,,,,,switch,letter,lettSwt,j,0.6816,Hi,,,,,,2,,,,,,,,high,24,0,24,0,1,,,,,,,,,
293419,2022-11-15_12h22.59.226,vts_reward_expectancy_bt,2022.2.4,MacIntel,60.0024001,Chrome,1440,900,,,,,1,922,,,,,,,,,,,,,,,,,132,B,circle,1,0,,,,,,,,,,,,,,,,switch,number,numSwt,d,0.6019,Lo,,,,,,2,,,,,,,,high,25,0,25,0,1,,,,,,,,,
293419,2022-11-15_12h22.59.226,vts_reward_expectancy_bt,2022.2.4,MacIntel,60.0024001,Chrome,1440,900,,,,,10,932,,,,,,,,,,,,,,,,,181,Y,hexagon,1,0,,,,,,,,,,,,,,,,switch,letter,lettSwt,k,0.5457,Hi,,,,,,2,,,,,,,,high,26,0,26,0,1,,,,,,,,,
293419,2022-11-15_12h22.59.226,vts_reward_expectancy_bt,2022.2.4,MacIntel,60.0024001,Chrome,1440,900,,,,,1,933,,,,,,,,,,,,,,,,,174,U,triangle,1,0,,,,,,,,,,,,,,,,repeat,letter,lettRpt,k,0.5363,Lo,,,,,,2,,,,,,,,high,27,0,27,0,1,,,,,,,,,
293419,2022-11-15_12h22.59.226,vts_reward_expectancy_bt,2022.2.4,MacIntel,60.0024001,Chrome,1440,900,,,,,0,933,,,,,,,,,,,,,,,,,146,W,hexagon,1,0,,,,,,,,,,,,,,,,repeat,letter,lettRpt,k,0.798,Hi,,,,,,2,,,,,,,,high,28,0,28,0,1,,,,,,,,,
293419,2022-11-15_12h22.59.226,vts_reward_expectancy_bt,2022.2.4,MacIntel,60.0024001,Chrome,1440,900,,,,,1,934,,,,,,,,,,,,,,,,,139,S,star,1,0,,,,,,,,,,,,,,,,repeat,letter,lettRpt,k,0.5807,Hi,,,,,,2,,,,,,,,high,29,0,29,0,1,,,,,,,,,
293419,2022-11-15_12h22.59.226,vts_reward_expectancy_bt,2022.2.4,MacIntel,60.0024001,Chrome,1440,900,,,,,1,935,,,,,,,,,,,,,,,,,160,D,circle,1,0,,,,,,,,,,,,,,,,switch,number,numSwt,f,0.6955,Lo,,,,,,2,,,,,,,,high,30,0,30,0,1,,,,,,,,,
293419,2022-11-15_12h22.59.226,vts_reward_expectancy_bt,2022.2.4,MacIntel,60.0024001,Chrome,1440,900,,,,,0,935,,,,,,,,,,,,,,,,,125,H,triangle,0,0,,,,,,,,,,,,,,,,switch,letter,NA,k,0.6809,Lo,,,,,,2,,,,,,,,high,31,0,31,0,1,,,,,,,,,
293419,2022-11-15_12h22.59.226,vts_reward_expectancy_bt,2022.2.4,MacIntel,60.0024001,Chrome,1440,900,,,,,1,936,,,,,,,,,,,,,,,,,181,B,triangle,1,1,,,,,,,,,,,,,,,,switch,number,numSwt,f,1.0388,Lo,,,,,,3,,,,,,space,5.1169,high,0,0,0,0,1,,,,,,,,,
293419,2022-11-15_12h22.59.226,vts_reward_expectancy_bt,2022.2.4,MacIntel,60.0024001,Chrome,1440,900,,,,,1,937,,,,,,,,,,,,,,,,,167,W,circle,1,0,,,,,,,,,,,,,,,,switch,letter,lettSwt,k,0.5009,Lo,,,,,,3,,,,,,,,high,1,0,1,0,1,,,,,,,,,
293419,2022-11-15_12h22.59.226,vts_reward_expectancy_bt,2022.2.4,MacIntel,60.0024001,Chrome,1440,900,,,,,10,947,,,,,,,,,,,,,,,,,125,Y,star,1,0,,,,,,,,,,,,,,,,repeat,letter,lettRpt,k,0.5008,Hi,,,,,,3,,,,,,,,high,2,0,2,0,1,,,,,,,,,
293419,2022-11-15_12h22.59.226,vts_reward_expectancy_bt,2022.2.4,MacIntel,60.0024001,Chrome,1440,900,,,,,10,957,,,,,,,,,,,,,,,,,160,U,hexagon,1,0,,,,,,,,,,,,,,,,switch,number,numSwt,f,0.5493,Hi,,,,,,3,,,,,,,,high,3,0,3,0,1,,,,,,,,,
293419,2022-11-15_12h22.59.226,vts_reward_expectancy_bt,2022.2.4,MacIntel,60.0024001,Chrome,1440,900,,,,,1,958,,,,,,,,,,,,,,,,,146,F,triangle,1,0,,,,,,,,,,,,,,,,repeat,number,numRpt,d,0.6483,Lo,,,,,,3,,,,,,,,high,4,0,4,0,1,,,,,,,,,
293419,2022-11-15_12h22.59.226,vts_reward_expectancy_bt,2022.2.4,MacIntel,60.0024001,Chrome,1440,900,,,,,1,959,,,,,,,,,,,,,,,,,139,D,circle,1,0,,,,,,,,,,,,,,,,repeat,number,numRpt,d,0.8786,Lo,,,,,,3,,,,,,,,high,5,0,5,0,1,,,,,,,,,
293419,2022-11-15_12h22.59.226,vts_reward_expectancy_bt,2022.2.4,MacIntel,60.0024001,Chrome,1440,900,,,,,0,959,,,,,,,,,,,,,,,,,132,S,star,1,0,,,,,,,,,,,,,,,,switch,letter,lettSwt,k,0.61,Hi,,,,,,3,,,,,,,,high,6,0,6,0,1,,,,,,,,,
293419,2022-11-15_12h22.59.226,vts_reward_expectancy_bt,2022.2.4,MacIntel,60.0024001,Chrome,1440,900,,,,,0,959,,,,,,,,,,,,,,,,,174,H,hexagon,0,0,,,,,,,,,,,,,,,,repeat,letter,NA,k,0.5785,Hi,,,,,,3,,,,,,,,high,7,0,7,0,1,,,,,,,,,
293419,2022-11-15_12h22.59.226,vts_reward_expectancy_bt,2022.2.4,MacIntel,60.0024001,Chrome,1440,900,,,,,0,959,,,,,,,,,,,,,,,,,181,B,hexagon,1,1,,,,,,,,,,,,,,,,repeat,letter,lettRpt,j,0.7765,Hi,,,,,,3,,,,,,,,high,8,0,8,0,1,,,,,,,,,
293419,2022-11-15_12h22.59.226,vts_reward_expectancy_bt,2022.2.4,MacIntel,60.0024001,Chrome,1440,900,,,,,1,960,,,,,,,,,,,,,,,,,167,W,triangle,1,0,,,,,,,,,,,,,,,,repeat,letter,lettRpt,k,0.6832,Lo,,,,,,3,,,,,,,,high,9,0,9,0,1,,,,,,,,,
293419,2022-11-15_12h22.59.226,vts_reward_expectancy_bt,2022.2.4,MacIntel,60.0024001,Chrome,1440,900,,,,,10,970,,,,,,,,,,,,,,,,,125,Y,star,1,0,,,,,,,,,,,,,,,,switch,number,numSwt,d,0.5119,Hi,,,,,,3,,,,,,,,high,10,0,10,0,1,,,,,,,,,
293419,2022-11-15_12h22.59.226,vts_reward_expectancy_bt,2022.2.4,MacIntel,60.0024001,Chrome,1440,900,,,,,1,971,,,,,,,,,,,,,,,,,160,U,circle,1,0,,,,,,,,,,,,,,,,repeat,number,numRpt,f,0.4807,Lo,,,,,,3,,,,,,,,high,11,0,11,0,1,,,,,,,,,
293419,2022-11-15_12h22.59.226,vts_reward_expectancy_bt,2022.2.4,MacIntel,60.0024001,Chrome,1440,900,,,,,1,972,,,,,,,,,,,,,,,,,146,F,triangle,1,0,,,,,,,,,,,,,,,,switch,letter,lettSwt,j,0.5645,Lo,,,,,,3,,,,,,,,high,12,0,12,0,1,,,,,,,,,
293419,2022-11-15_12h22.59.226,vts_reward_expectancy_bt,2022.2.4,MacIntel,60.0024001,Chrome,1440,900,,,,,0,972,,,,,,,,,,,,,,,,,139,D,star,1,0,,,,,,,,,,,,,,,,switch,number,numSwt,d,0.7543,Hi,,,,,,3,,,,,,,,high,13,0,13,0,1,,,,,,,,,
293419,2022-11-15_12h22.59.226,vts_reward_expectancy_bt,2022.2.4,MacIntel,60.0024001,Chrome,1440,900,,,,,0,972,,,,,,,,,,,,,,,,,132,S,hexagon,1,0,,,,,,,,,,,,,,,,switch,letter,lettSwt,k,0.7811,Hi,,,,,,3,,,,,,,,high,14,0,14,0,1,,,,,,,,,
293419,2022-11-15_12h22.59.226,vts_reward_expectancy_bt,2022.2.4,MacIntel,60.0024001,Chrome,1440,900,,,,,10,982,,,,,,,,,,,,,,,,,174,H,circle,1,0,,,,,,,,,,,,,,,,switch,number,numSwt,f,0.678,Lo,,,,,,3,,,,,,,,high,15,0,15,0,1,,,,,,,,,
293419,2022-11-15_12h22.59.226,vts_reward_expectancy_bt,2022.2.4,MacIntel,60.0024001,Chrome,1440,900,,,,,0,982,,,,,,,,,,,,,,,,,146,H,triangle,0,0,,,,,,,,,,,,,,,,switch,letter,NA,k,0.8359,Lo,,,,,,3,,,,,,,,high,16,0,16,0,1,,,,,,,,,
293419,2022-11-15_12h22.59.226,vts_reward_expectancy_bt,2022.2.4,MacIntel,60.0024001,Chrome,1440,900,,,,,1,983,,,,,,,,,,,,,,,,,181,W,hexagon,1,1,,,,,,,,,,,,,,,,repeat,letter,lettRpt,k,0.5792,Hi,,,,,,3,,,,,,,,high,17,0,17,0,1,,,,,,,,,
293419,2022-11-15_12h22.59.226,vts_reward_expectancy_bt,2022.2.4,MacIntel,60.0024001,Chrome,1440,900,,,,,0,983,,,,,,,,,,,,,,,,,139,F,star,1,0,,,,,,,,,,,,,,,,repeat,letter,lettRpt,j,0.6518,Hi,,,,,,3,,,,,,,,high,18,0,18,0,1,,,,,,,,,
293419,2022-11-15_12h22.59.226,vts_reward_expectancy_bt,2022.2.4,MacIntel,60.0024001,Chrome,1440,900,,,,,1,984,,,,,,,,,,,,,,,,,160,D,circle,1,0,,,,,,,,,,,,,,,,switch,number,numSwt,f,0.7972,Lo,,,,,,3,,,,,,,,high,19,0,19,0,1,,,,,,,,,
293419,2022-11-15_12h22.59.226,vts_reward_expectancy_bt,2022.2.4,MacIntel,60.0024001,Chrome,1440,900,,,,,0,984,,,,,,,,,,,,,,,,,132,U,star,1,0,,,,,,,,,,,,,,,,repeat,number,numRpt,d,0.5619,Hi,,,,,,3,,,,,,,,high,20,0,20,0,1,,,,,,,,,
293419,2022-11-15_12h22.59.226,vts_reward_expectancy_bt,2022.2.4,MacIntel,60.0024001,Chrome,1440,900,,,,,1,985,,,,,,,,,,,,,,,,,167,B,triangle,1,0,,,,,,,,,,,,,,,,repeat,number,numRpt,f,0.8138,Lo,,,,,,3,,,,,,,,high,21,0,21,0,1,,,,,,,,,
293419,2022-11-15_12h22.59.226,vts_reward_expectancy_bt,2022.2.4,MacIntel,60.0024001,Chrome,1440,900,,,,,0,985,,,,,,,,,,,,,,,,,125,Y,hexagon,1,0,,,,,,,,,,,,,,,,repeat,number,numRpt,d,0.6055,Hi,,,,,,3,,,,,,,,high,22,0,22,0,1,,,,,,,,,
293419,2022-11-15_12h22.59.226,vts_reward_expectancy_bt,2022.2.4,MacIntel,60.0024001,Chrome,1440,900,,,,,1,986,,,,,,,,,,,,,,,,,174,S,circle,1,0,,,,,,,,,,,,,,,,switch,letter,lettSwt,k,0.6049,Lo,,,,,,3,,,,,,,,high,23,0,23,0,1,,,,,,,,,
293419,2022-11-15_12h22.59.226,vts_reward_expectancy_bt,2022.2.4,MacIntel,60.0024001,Chrome,1440,900,,,,,10,996,,,,,,,,,,,,,,,,,146,W,triangle,1,0,,,,,,,,,,,,,,,,repeat,letter,lettRpt,k,0.6195,Lo,,,,,,3,,,,,,,,high,24,0,24,0,1,,,,,,,,,
293419,2022-11-15_12h22.59.226,vts_reward_expectancy_bt,2022.2.4,MacIntel,60.0024001,Chrome,1440,900,,,,,1,997,,,,,,,,,,,,,,,,,160,H,circle,1,0,,,,,,,,,,,,,,,,switch,number,numSwt,f,0.5614,Lo,,,,,,3,,,,,,,,high,25,0,25,0,1,,,,,,,,,
293419,2022-11-15_12h22.59.226,vts_reward_expectancy_bt,2022.2.4,MacIntel,60.0024001,Chrome,1440,900,,,,,0,997,,,,,,,,,,,,,,,,,125,U,star,1,0,,,,,,,,,,,,,,,,repeat,number,numRpt,d,1.0632,Hi,,,,,,3,,,,,,,,high,26,0,26,0,1,,,,,,,,,
293419,2022-11-15_12h22.59.226,vts_reward_expectancy_bt,2022.2.4,MacIntel,60.0024001,Chrome,1440,900,,,,,0,997,,,,,,,,,,,,,,,,,167,D,hexagon,1,0,,,,,,,,,,,,,,,,switch,letter,lettSwt,j,0.8485,Hi,,,,,,3,,,,,,,,high,27,0,27,0,1,,,,,,,,,
293419,2022-11-15_12h22.59.226,vts_reward_expectancy_bt,2022.2.4,MacIntel,60.0024001,Chrome,1440,900,,,,,10,1007,,,,,,,,,,,,,,,,,174,B,circle,1,0,,,,,,,,,,,,,,,,repeat,letter,lettRpt,j,0.5713,Lo,,,,,,3,,,,,,,,high,28,0,28,0,1,,,,,,,,,
293419,2022-11-15_12h22.59.226,vts_reward_expectancy_bt,2022.2.4,MacIntel,60.0024001,Chrome,1440,900,,,,,10,1017,,,,,,,,,,,,,,,,,181,Y,hexagon,1,0,,,,,,,,,,,,,,,,repeat,letter,lettRpt,k,0.5145,Hi,,,,,,3,,,,,,,,high,29,0,29,0,1,,,,,,,,,
293419,2022-11-15_12h22.59.226,vts_reward_expectancy_bt,2022.2.4,MacIntel,60.0024001,Chrome,1440,900,,,,,1,1018,,,,,,,,,,,,,,,,,139,F,triangle,1,0,,,,,,,,,,,,,,,,switch,number,numSwt,d,0.4485,Lo,,,,,,3,,,,,,,,high,30,0,30,0,1,,,,,,,,,
293419,2022-11-15_12h22.59.226,vts_reward_expectancy_bt,2022.2.4,MacIntel,60.0024001,Chrome,1440,900,,,,,0,1018,,,,,,,,,,,,,,,,,132,S,star,1,0,,,,,,,,,,,,,,,,repeat,number,numRpt,d,0.5422,Hi,,,,,,3,,,,,,,,high,31,0,31,0,1,,,,,,,,,
293419,2022-11-15_12h22.59.226,vts_reward_expectancy_bt,2022.2.4,MacIntel,60.0024001,Chrome,1440,900,,,,,0,1018,,,,,,,,,,,,,,,,,139,D,star,1,0,,,,,,,,,,,,,,,,repeat,number,numRpt,d,0.7368,Hi,,,,,,4,,,,,,space,4.1289,high,0,0,0,0,1,,,,,,,,,
293419,2022-11-15_12h22.59.226,vts_reward_expectancy_bt,2022.2.4,MacIntel,60.0024001,Chrome,1440,900,,,,,10,1028,,,,,,,,,,,,,,,,,132,Y,circle,1,0,,,,,,,,,,,,,,,,repeat,number,numRpt,d,0.5937,Lo,,,,,,4,,,,,,,,high,1,0,1,0,1,,,,,,,,,
293419,2022-11-15_12h22.59.226,vts_reward_expectancy_bt,2022.2.4,MacIntel,60.0024001,Chrome,1440,900,,,,,10,1038,,,,,,,,,,,,,,,,,174,H,hexagon,1,0,,,,,,,,,,,,,,,,repeat,number,numRpt,f,0.4477,Hi,,,,,,4,,,,,,,,high,2,0,2,0,1,,,,,,,,,
293419,2022-11-15_12h22.59.226,vts_reward_expectancy_bt,2022.2.4,MacIntel,60.0024001,Chrome,1440,900,,,,,0,1038,,,,,,,,,,,,,,,,,146,S,triangle,0,0,,,,,,,,,,,,,,,,switch,letter,NA,j,0.4322,Hi,,,,,,4,,,,,,,,high,3,0,3,0,1,,,,,,,,,
