participant,date,expName,psychopyVersion,OS,frameRate,browser,xResolution,yResolution,key_resp.keys,key_resp.rt,training_resp.keys,training_resp.rt,points_trial,points_cumul,trainBlock,training.thisRepN,training.thisTrialN,training.thisN,training.thisIndex,training.ran,LTriangleOpac,LCircleOpac,LHexagonOpac,LStarOpac,RTriangleOpac,RCircleOpac,RHexagonOpac,RStarOpac,LShape_ID,RShape_ID,curr_topStim,curr_bottStim,curr_shape,acc,E1,target_resp_prac1.keys,target_resp_prac1.rt,pracBlock,task1_prac_trials.thisRepN,task1_prac_trials.thisTrialN,task1_prac_trials.thisN,task1_prac_trials.thisIndex,task1_prac_trials.ran,target_resp_prac2.keys,target_resp_prac2.rt,task2_praac_trials.thisRepN,task2_praac_trials.thisTrialN,task2_praac_trials.thisN,task2_praac_trials.thisIndex,task2_praac_trials.ran,alt,task,condition,target_resp.keys,rewCond,vts_practice_trials.thisRepN,vts_practice_trials.thisTrialN,vts_practice_trials.thisN,vts_practice_trials.thisIndex,vts_practice_trials.ran,target_resp.rt,blockNum,trials_norew.thisRepN,trials_norew.thisTrialN,trials_norew.thisN,trials_norew.thisIndex,trials_norew.ran,key_resp_2.keys,key_resp_2.rt,rewExpectancy,trials_rew.thisRepN,trials_rew.thisTrialN,trials_rew.thisN,trials_rew.thisIndex,trials_rew.ran,Q1,Q2,Q2_text,Q3,Q4,Q5_text,Q5,xRes,yRes
293455,2022-11-15_18h37.48.524,vts_reward_expectancy_bt,2022.2.4,MacIntel,59.99880002,Chrome,1440,900,,,,,,,,,,,,,,,,,,,,,,,,,,,,,,,,,,,,,,,,,,,,,,,,,,,,,,,,,,,,,,,,,,,,,,,,,,,,
293455,2022-11-15_18h37.48.524,vts_reward_expectancy_bt,2022.2.4,MacIntel,59.99880002,Chrome,1440,900,space,3.0621,,,,,,,,,,,,,,,,,,,,,,,,,,,,,,,,,,,,,,,,,,,,,,,,,,,,,,,,,,,,,,,,,,,,,,,,,,
293455,2022-11-15_18h37.48.524,vts_reward_expectancy_bt,2022.2.4,MacIntel,59.99880002,Chrome,1440,900,,,,,,,,,,,,,,,,,,,,,,,,,,,,,,,,,,,,,,,,,,,,,,,,,,,,,,,,,,,,,,,,,,,,,,,,,,,,
293455,2022-11-15_18h37.48.524,vts_reward_expectancy_bt,2022.2.4,MacIntel,59.99880002,Chrome,1440,900,,,a,1.5841,10,10,0,0,0,0,6,1,0,0,1,0,1,0,0,0,hexagon,triangle,,,,,,,,,,,,,,,,,,,,,,,,,,,,,,,,,,,,,,,,,,,,,,,,,,,,,,
293455,2022-11-15_18h37.48.524,vts_reward_expectancy_bt,2022.2.4,MacIntel,59.99880002,Chrome,1440,900,,,l,1.35,1,11,0,0,1,1,1,1,1,0,0,0,0,0,1,0,triangle,hexagon,,,,,,,,,,,,,,,,,,,,,,,,,,,,,,,,,,,,,,,,,,,,,,,,,,,,,,
293455,2022-11-15_18h37.48.524,vts_reward_expectancy_bt,2022.2.4,MacIntel,59.99880002,Chrome,1440,900,,,l,1.3917,10,21,0,0,2,2,2,1,1,0,0,0,0,0,0,1,triangle,star,,,,,,,,,,,,,,,,,,,,,,,,,,,,,,,,,,,,,,,,,,,,,,,,,,,,,,
293455,2022-11-15_18h37.48.524,vts_reward_expectancy_bt,2022.2.4,MacIntel,59.99880002,Chrome,1440,900,,,a,0.5659,10,31,0,0,3,3,9,1,0,0,0,1,1,0,0,0,star,triangle,,,,,,,,,,,,,,,,,,,,,,,,,,,,,,,,,,,,,,,,,,,,,,,,,,,,,,
293455,2022-11-15_18h37.48.524,vts_reward_expectancy_bt,2022.2.4,MacIntel,59.99880002,Chrome,1440,900,,,l,0.5323,10,41,0,0,4,4,8,1,0,0,1,0,0,0,0,1,hexagon,star,,,,,,,,,,,,,,,,,,,,,,,,,,,,,,,,,,,,,,,,,,,,,,,,,,,,,,
293455,2022-11-15_18h37.48.524,vts_reward_expectancy_bt,2022.2.4,MacIntel,59.99880002,Chrome,1440,900,,,l,1.0558,1,42,0,0,5,5,4,1,0,1,0,0,0,0,1,0,circle,hexagon,,,,,,,,,,,,,,,,,,,,,,,,,,,,,,,,,,,,,,,,,,,,,,,,,,,,,,
293455,2022-11-15_18h37.48.524,vts_reward_expectancy_bt,2022.2.4,MacIntel,59.99880002,Chrome,1440,900,,,l,2.0205,1,43,0,0,6,6,3,1,0,1,0,0,1,0,0,0,circle,triangle,,,,,,,,,,,,,,,,,,,,,,,,,,,,,,,,,,,,,,,,,,,,,,,,,,,,,,
293455,2022-11-15_18h37.48.524,vts_reward_expectancy_bt,2022.2.4,MacIntel,59.99880002,Chrome,1440,900,,,a,1.1183,10,53,0,0,7,7,7,1,0,0,1,0,0,1,0,0,hexagon,circle,,,,,,,,,,,,,,,,,,,,,,,,,,,,,,,,,,,,,,,,,,,,,,,,,,,,,,
293455,2022-11-15_18h37.48.524,vts_reward_expectancy_bt,2022.2.4,MacIntel,59.99880002,Chrome,1440,900,,,a,0.717,1,54,0,0,8,8,0,1,1,0,0,0,0,1,0,0,triangle,circle,,,,,,,,,,,,,,,,,,,,,,,,,,,,,,,,,,,,,,,,,,,,,,,,,,,,,,
293455,2022-11-15_18h37.48.524,vts_reward_expectancy_bt,2022.2.4,MacIntel,59.99880002,Chrome,1440,900,,,l,0.7105,1,55,0,0,9,9,10,1,0,0,0,1,0,1,0,0,star ,circle,,,,,,,,,,,,,,,,,,,,,,,,,,,,,,,,,,,,,,,,,,,,,,,,,,,,,,
293455,2022-11-15_18h37.48.524,vts_reward_expectancy_bt,2022.2.4,MacIntel,59.99880002,Chrome,1440,900,,,a,0.5162,10,65,0,0,10,10,11,1,0,0,0,1,0,0,1,0,star,hexagon,,,,,,,,,,,,,,,,,,,,,,,,,,,,,,,,,,,,,,,,,,,,,,,,,,,,,,
293455,2022-11-15_18h37.48.524,vts_reward_expectancy_bt,2022.2.4,MacIntel,59.99880002,Chrome,1440,900,,,l,1.2002,1,66,0,0,11,11,5,1,0,1,0,0,0,0,0,1,circle,star,,,,,,,,,,,,,,,,,,,,,,,,,,,,,,,,,,,,,,,,,,,,,,,,,,,,,,
293455,2022-11-15_18h37.48.524,vts_reward_expectancy_bt,2022.2.4,MacIntel,59.99880002,Chrome,1440,900,,,l,1.5597,10,76,0,1,0,12,3,1,0,1,0,0,1,0,0,0,circle,triangle,,,,,,,,,,,,,,,,,,,,,,,,,,,,,,,,,,,,,,,,,,,,,,,,,,,,,,
293455,2022-11-15_18h37.48.524,vts_reward_expectancy_bt,2022.2.4,MacIntel,59.99880002,Chrome,1440,900,,,a,0.6554,1,77,0,1,1,13,11,1,0,0,0,1,0,0,1,0,star,hexagon,,,,,,,,,,,,,,,,,,,,,,,,,,,,,,,,,,,,,,,,,,,,,,,,,,,,,,
293455,2022-11-15_18h37.48.524,vts_reward_expectancy_bt,2022.2.4,MacIntel,59.99880002,Chrome,1440,900,,,a,0.8659,1,78,0,1,2,14,2,1,1,0,0,0,0,0,0,1,triangle,star,,,,,,,,,,,,,,,,,,,,,,,,,,,,,,,,,,,,,,,,,,,,,,,,,,,,,,
293455,2022-11-15_18h37.48.524,vts_reward_expectancy_bt,2022.2.4,MacIntel,59.99880002,Chrome,1440,900,,,a,0.8522,1,79,0,1,3,15,10,1,0,0,0,1,0,1,0,0,star ,circle,,,,,,,,,,,,,,,,,,,,,,,,,,,,,,,,,,,,,,,,,,,,,,,,,,,,,,
293455,2022-11-15_18h37.48.524,vts_reward_expectancy_bt,2022.2.4,MacIntel,59.99880002,Chrome,1440,900,,,l,0.9343,10,89,0,1,4,16,5,1,0,1,0,0,0,0,0,1,circle,star,,,,,,,,,,,,,,,,,,,,,,,,,,,,,,,,,,,,,,,,,,,,,,,,,,,,,,
293455,2022-11-15_18h37.48.524,vts_reward_expectancy_bt,2022.2.4,MacIntel,59.99880002,Chrome,1440,900,,,l,0.8036,1,90,0,1,5,17,7,1,0,0,1,0,0,1,0,0,hexagon,circle,,,,,,,,,,,,,,,,,,,,,,,,,,,,,,,,,,,,,,,,,,,,,,,,,,,,,,
293455,2022-11-15_18h37.48.524,vts_reward_expectancy_bt,2022.2.4,MacIntel,59.99880002,Chrome,1440,900,,,a,0.75,1,91,0,1,6,18,4,1,0,1,0,0,0,0,1,0,circle,hexagon,,,,,,,,,,,,,,,,,,,,,,,,,,,,,,,,,,,,,,,,,,,,,,,,,,,,,,
293455,2022-11-15_18h37.48.524,vts_reward_expectancy_bt,2022.2.4,MacIntel,59.99880002,Chrome,1440,900,,,a,0.588,10,101,0,1,7,19,8,1,0,0,1,0,0,0,0,1,hexagon,star,,,,,,,,,,,,,,,,,,,,,,,,,,,,,,,,,,,,,,,,,,,,,,,,,,,,,,
293455,2022-11-15_18h37.48.524,vts_reward_expectancy_bt,2022.2.4,MacIntel,59.99880002,Chrome,1440,900,,,l,0.4867,1,102,0,1,8,20,1,1,1,0,0,0,0,0,1,0,triangle,hexagon,,,,,,,,,,,,,,,,,,,,,,,,,,,,,,,,,,,,,,,,,,,,,,,,,,,,,,
293455,2022-11-15_18h37.48.524,vts_reward_expectancy_bt,2022.2.4,MacIntel,59.99880002,Chrome,1440,900,,,a,0.6826,10,112,0,1,9,21,6,1,0,0,1,0,1,0,0,0,hexagon,triangle,,,,,,,,,,,,,,,,,,,,,,,,,,,,,,,,,,,,,,,,,,,,,,,,,,,,,,
293455,2022-11-15_18h37.48.524,vts_reward_expectancy_bt,2022.2.4,MacIntel,59.99880002,Chrome,1440,900,,,l,6.1666,10,122,0,1,10,22,9,1,0,0,0,1,1,0,0,0,star,triangle,,,,,,,,,,,,,,,,,,,,,,,,,,,,,,,,,,,,,,,,,,,,,,,,,,,,,,
293455,2022-11-15_18h37.48.524,vts_reward_expectancy_bt,2022.2.4,MacIntel,59.99880002,Chrome,1440,900,,,a,1.0012,10,132,0,1,11,23,0,1,1,0,0,0,0,1,0,0,triangle,circle,,,,,,,,,,,,,,,,,,,,,,,,,,,,,,,,,,,,,,,,,,,,,,,,,,,,,,
293455,2022-11-15_18h37.48.524,vts_reward_expectancy_bt,2022.2.4,MacIntel,59.99880002,Chrome,1440,900,,,a,1.3071,10,142,0,2,0,24,8,1,0,0,1,0,0,0,0,1,hexagon,star,,,,,,,,,,,,,,,,,,,,,,,,,,,,,,,,,,,,,,,,,,,,,,,,,,,,,,
293455,2022-11-15_18h37.48.524,vts_reward_expectancy_bt,2022.2.4,MacIntel,59.99880002,Chrome,1440,900,,,l,0.9029,1,143,0,2,1,25,3,1,0,1,0,0,1,0,0,0,circle,triangle,,,,,,,,,,,,,,,,,,,,,,,,,,,,,,,,,,,,,,,,,,,,,,,,,,,,,,
293455,2022-11-15_18h37.48.524,vts_reward_expectancy_bt,2022.2.4,MacIntel,59.99880002,Chrome,1440,900,,,a,1.2442,10,153,0,2,2,26,6,1,0,0,1,0,1,0,0,0,hexagon,triangle,,,,,,,,,,,,,,,,,,,,,,,,,,,,,,,,,,,,,,,,,,,,,,,,,,,,,,
293455,2022-11-15_18h37.48.524,vts_reward_expectancy_bt,2022.2.4,MacIntel,59.99880002,Chrome,1440,900,,,l,1.0495,10,163,0,2,3,27,5,1,0,1,0,0,0,0,0,1,circle,star,,,,,,,,,,,,,,,,,,,,,,,,,,,,,,,,,,,,,,,,,,,,,,,,,,,,,,
293455,2022-11-15_18h37.48.524,vts_reward_expectancy_bt,2022.2.4,MacIntel,59.99880002,Chrome,1440,900,,,a,0.723,1,164,0,2,4,28,0,1,1,0,0,0,0,1,0,0,triangle,circle,,,,,,,,,,,,,,,,,,,,,,,,,,,,,,,,,,,,,,,,,,,,,,,,,,,,,,
293455,2022-11-15_18h37.48.524,vts_reward_expectancy_bt,2022.2.4,MacIntel,59.99880002,Chrome,1440,900,,,l,0.7171,10,174,0,2,5,29,4,1,0,1,0,0,0,0,1,0,circle,hexagon,,,,,,,,,,,,,,,,,,,,,,,,,,,,,,,,,,,,,,,,,,,,,,,,,,,,,,
293455,2022-11-15_18h37.48.524,vts_reward_expectancy_bt,2022.2.4,MacIntel,59.99880002,Chrome,1440,900,,,a,1.4358,10,184,0,2,6,30,7,1,0,0,1,0,0,1,0,0,hexagon,circle,,,,,,,,,,,,,,,,,,,,,,,,,,,,,,,,,,,,,,,,,,,,,,,,,,,,,,
293455,2022-11-15_18h37.48.524,vts_reward_expectancy_bt,2022.2.4,MacIntel,59.99880002,Chrome,1440,900,,,l,0.6825,1,185,0,2,7,31,9,1,0,0,0,1,1,0,0,0,star,triangle,,,,,,,,,,,,,,,,,,,,,,,,,,,,,,,,,,,,,,,,,,,,,,,,,,,,,,
293455,2022-11-15_18h37.48.524,vts_reward_expectancy_bt,2022.2.4,MacIntel,59.99880002,Chrome,1440,900,,,a,0.624,10,195,0,2,8,32,11,1,0,0,0,1,0,0,1,0,star,hexagon,,,,,,,,,,,,,,,,,,,,,,,,,,,,,,,,,,,,,,,,,,,,,,,,,,,,,,
293455,2022-11-15_18h37.48.524,vts_reward_expectancy_bt,2022.2.4,MacIntel,59.99880002,Chrome,1440,900,,,l,0.6664,1,196,0,2,9,33,10,1,0,0,0,1,0,1,0,0,star ,circle,,,,,,,,,,,,,,,,,,,,,,,,,,,,,,,,,,,,,,,,,,,,,,,,,,,,,,
293455,2022-11-15_18h37.48.524,vts_reward_expectancy_bt,2022.2.4,MacIntel,59.99880002,Chrome,1440,900,,,a,0.55,1,197,0,2,10,34,1,1,1,0,0,0,0,0,1,0,triangle,hexagon,,,,,,,,,,,,,,,,,,,,,,,,,,,,,,,,,,,,,,,,,,,,,,,,,,,,,,
293455,2022-11-15_18h37.48.524,vts_reward_expectancy_bt,2022.2.4,MacIntel,59.99880002,Chrome,1440,900,,,l,0.8535,10,207,0,2,11,35,2,1,1,0,0,0,0,0,0,1,triangle,star,,,,,,,,,,,,,,,,,,,,,,,,,,,,,,,,,,,,,,,,,,,,,,,,,,,,,,
293455,2022-11-15_18h37.48.524,vts_reward_expectancy_bt,2022.2.4,MacIntel,59.99880002,Chrome,1440,900,,,a,0.9108,10,217,1,0,0,0,10,1,0,0,0,1,0,1,0,0,star ,circle,,,,,,,,,,,,,,,,,,,,,,,,,,,,,,,,,,,,,,,,,,,,,,,,,,,,,,
293455,2022-11-15_18h37.48.524,vts_reward_expectancy_bt,2022.2.4,MacIntel,59.99880002,Chrome,1440,900,,,l,0.5161,10,227,1,0,1,1,4,1,0,1,0,0,0,0,1,0,circle,hexagon,,,,,,,,,,,,,,,,,,,,,,,,,,,,,,,,,,,,,,,,,,,,,,,,,,,,,,
293455,2022-11-15_18h37.48.524,vts_reward_expectancy_bt,2022.2.4,MacIntel,59.99880002,Chrome,1440,900,,,a,0.8686,1,228,1,0,2,2,3,1,0,1,0,0,1,0,0,0,circle,triangle,,,,,,,,,,,,,,,,,,,,,,,,,,,,,,,,,,,,,,,,,,,,,,,,,,,,,,
293455,2022-11-15_18h37.48.524,vts_reward_expectancy_bt,2022.2.4,MacIntel,59.99880002,Chrome,1440,900,,,l,6.5731,1,229,1,0,3,3,6,1,0,0,1,0,1,0,0,0,hexagon,triangle,,,,,,,,,,,,,,,,,,,,,,,,,,,,,,,,,,,,,,,,,,,,,,,,,,,,,,
293455,2022-11-15_18h37.48.524,vts_reward_expectancy_bt,2022.2.4,MacIntel,59.99880002,Chrome,1440,900,,,l,0.4389,10,239,1,0,4,4,2,1,1,0,0,0,0,0,0,1,triangle,star,,,,,,,,,,,,,,,,,,,,,,,,,,,,,,,,,,,,,,,,,,,,,,,,,,,,,,
293455,2022-11-15_18h37.48.524,vts_reward_expectancy_bt,2022.2.4,MacIntel,59.99880002,Chrome,1440,900,,,a,0.5228,10,249,1,0,5,5,11,1,0,0,0,1,0,0,1,0,star,hexagon,,,,,,,,,,,,,,,,,,,,,,,,,,,,,,,,,,,,,,,,,,,,,,,,,,,,,,
293455,2022-11-15_18h37.48.524,vts_reward_expectancy_bt,2022.2.4,MacIntel,59.99880002,Chrome,1440,900,,,l,0.6706,1,250,1,0,6,6,5,1,0,1,0,0,0,0,0,1,circle,star,,,,,,,,,,,,,,,,,,,,,,,,,,,,,,,,,,,,,,,,,,,,,,,,,,,,,,
293455,2022-11-15_18h37.48.524,vts_reward_expectancy_bt,2022.2.4,MacIntel,59.99880002,Chrome,1440,900,,,a,0.6392,10,260,1,0,7,7,7,1,0,0,1,0,0,1,0,0,hexagon,circle,,,,,,,,,,,,,,,,,,,,,,,,,,,,,,,,,,,,,,,,,,,,,,,,,,,,,,
293455,2022-11-15_18h37.48.524,vts_reward_expectancy_bt,2022.2.4,MacIntel,59.99880002,Chrome,1440,900,,,l,0.6336,10,270,1,0,8,8,8,1,0,0,1,0,0,0,0,1,hexagon,star,,,,,,,,,,,,,,,,,,,,,,,,,,,,,,,,,,,,,,,,,,,,,,,,,,,,,,
293455,2022-11-15_18h37.48.524,vts_reward_expectancy_bt,2022.2.4,MacIntel,59.99880002,Chrome,1440,900,,,a,0.504,1,271,1,0,9,9,0,1,1,0,0,0,0,1,0,0,triangle,circle,,,,,,,,,,,,,,,,,,,,,,,,,,,,,,,,,,,,,,,,,,,,,,,,,,,,,,
293455,2022-11-15_18h37.48.524,vts_reward_expectancy_bt,2022.2.4,MacIntel,59.99880002,Chrome,1440,900,,,l,0.4829,1,272,1,0,10,10,9,1,0,0,0,1,1,0,0,0,star,triangle,,,,,,,,,,,,,,,,,,,,,,,,,,,,,,,,,,,,,,,,,,,,,,,,,,,,,,
293455,2022-11-15_18h37.48.524,vts_reward_expectancy_bt,2022.2.4,MacIntel,59.99880002,Chrome,1440,900,,,a,0.4494,1,273,1,0,11,11,1,1,1,0,0,0,0,0,1,0,triangle,hexagon,,,,,,,,,,,,,,,,,,,,,,,,,,,,,,,,,,,,,,,,,,,,,,,,,,,,,,
293455,2022-11-15_18h37.48.524,vts_reward_expectancy_bt,2022.2.4,MacIntel,59.99880002,Chrome,1440,900,,,l,0.3366,10,283,1,1,0,12,6,1,0,0,1,0,1,0,0,0,hexagon,triangle,,,,,,,,,,,,,,,,,,,,,,,,,,,,,,,,,,,,,,,,,,,,,,,,,,,,,,
293455,2022-11-15_18h37.48.524,vts_reward_expectancy_bt,2022.2.4,MacIntel,59.99880002,Chrome,1440,900,,,l,0.3184,10,293,1,1,1,13,4,1,0,1,0,0,0,0,1,0,circle,hexagon,,,,,,,,,,,,,,,,,,,,,,,,,,,,,,,,,,,,,,,,,,,,,,,,,,,,,,
293455,2022-11-15_18h37.48.524,vts_reward_expectancy_bt,2022.2.4,MacIntel,59.99880002,Chrome,1440,900,,,l,0.2665,1,294,1,1,2,14,10,1,0,0,0,1,0,1,0,0,star ,circle,,,,,,,,,,,,,,,,,,,,,,,,,,,,,,,,,,,,,,,,,,,,,,,,,,,,,,
293455,2022-11-15_18h37.48.524,vts_reward_expectancy_bt,2022.2.4,MacIntel,59.99880002,Chrome,1440,900,,,a,0.4685,10,304,1,1,3,15,7,1,0,0,1,0,0,1,0,0,hexagon,circle,,,,,,,,,,,,,,,,,,,,,,,,,,,,,,,,,,,,,,,,,,,,,,,,,,,,,,
293455,2022-11-15_18h37.48.524,vts_reward_expectancy_bt,2022.2.4,MacIntel,59.99880002,Chrome,1440,900,,,a,0.3211,1,305,1,1,4,16,3,1,0,1,0,0,1,0,0,0,circle,triangle,,,,,,,,,,,,,,,,,,,,,,,,,,,,,,,,,,,,,,,,,,,,,,,,,,,,,,
293455,2022-11-15_18h37.48.524,vts_reward_expectancy_bt,2022.2.4,MacIntel,59.99880002,Chrome,1440,900,,,l,0.6167,1,306,1,1,5,17,0,1,1,0,0,0,0,1,0,0,triangle,circle,,,,,,,,,,,,,,,,,,,,,,,,,,,,,,,,,,,,,,,,,,,,,,,,,,,,,,
293455,2022-11-15_18h37.48.524,vts_reward_expectancy_bt,2022.2.4,MacIntel,59.99880002,Chrome,1440,900,,,l,0.7455,1,307,1,1,6,18,5,1,0,1,0,0,0,0,0,1,circle,star,,,,,,,,,,,,,,,,,,,,,,,,,,,,,,,,,,,,,,,,,,,,,,,,,,,,,,
293455,2022-11-15_18h37.48.524,vts_reward_expectancy_bt,2022.2.4,MacIntel,59.99880002,Chrome,1440,900,,,a,0.4499,1,308,1,1,7,19,1,1,1,0,0,0,0,0,1,0,triangle,hexagon,,,,,,,,,,,,,,,,,,,,,,,,,,,,,,,,,,,,,,,,,,,,,,,,,,,,,,
293455,2022-11-15_18h37.48.524,vts_reward_expectancy_bt,2022.2.4,MacIntel,59.99880002,Chrome,1440,900,,,l,0.5696,10,318,1,1,8,20,9,1,0,0,0,1,1,0,0,0,star,triangle,,,,,,,,,,,,,,,,,,,,,,,,,,,,,,,,,,,,,,,,,,,,,,,,,,,,,,
293455,2022-11-15_18h37.48.524,vts_reward_expectancy_bt,2022.2.4,MacIntel,59.99880002,Chrome,1440,900,,,l,0.4,10,328,1,1,9,21,2,1,1,0,0,0,0,0,0,1,triangle,star,,,,,,,,,,,,,,,,,,,,,,,,,,,,,,,,,,,,,,,,,,,,,,,,,,,,,,
293455,2022-11-15_18h37.48.524,vts_reward_expectancy_bt,2022.2.4,MacIntel,59.99880002,Chrome,1440,900,,,l,0.5635,10,338,1,1,10,22,8,1,0,0,1,0,0,0,0,1,hexagon,star,,,,,,,,,,,,,,,,,,,,,,,,,,,,,,,,,,,,,,,,,,,,,,,,,,,,,,
293455,2022-11-15_18h37.48.524,vts_reward_expectancy_bt,2022.2.4,MacIntel,59.99880002,Chrome,1440,900,,,a,0.2403,10,348,1,1,11,23,11,1,0,0,0,1,0,0,1,0,star,hexagon,,,,,,,,,,,,,,,,,,,,,,,,,,,,,,,,,,,,,,,,,,,,,,,,,,,,,,
293455,2022-11-15_18h37.48.524,vts_reward_expectancy_bt,2022.2.4,MacIntel,59.99880002,Chrome,1440,900,,,a,0.0477,1,349,1,2,0,24,3,1,0,1,0,0,1,0,0,0,circle,triangle,,,,,,,,,,,,,,,,,,,,,,,,,,,,,,,,,,,,,,,,,,,,,,,,,,,,,,
293455,2022-11-15_18h37.48.524,vts_reward_expectancy_bt,2022.2.4,MacIntel,59.99880002,Chrome,1440,900,,,l,0.4331,10,359,1,2,1,25,8,1,0,0,1,0,0,0,0,1,hexagon,star,,,,,,,,,,,,,,,,,,,,,,,,,,,,,,,,,,,,,,,,,,,,,,,,,,,,,,
293455,2022-11-15_18h37.48.524,vts_reward_expectancy_bt,2022.2.4,MacIntel,59.99880002,Chrome,1440,900,,,a,1.1664,10,369,1,2,2,26,6,1,0,0,1,0,1,0,0,0,hexagon,triangle,,,,,,,,,,,,,,,,,,,,,,,,,,,,,,,,,,,,,,,,,,,,,,,,,,,,,,
293455,2022-11-15_18h37.48.524,vts_reward_expectancy_bt,2022.2.4,MacIntel,59.99880002,Chrome,1440,900,,,l,1.2036,1,370,1,2,3,27,7,1,0,0,1,0,0,1,0,0,hexagon,circle,,,,,,,,,,,,,,,,,,,,,,,,,,,,,,,,,,,,,,,,,,,,,,,,,,,,,,
293455,2022-11-15_18h37.48.524,vts_reward_expectancy_bt,2022.2.4,MacIntel,59.99880002,Chrome,1440,900,,,a,0.2704,1,371,1,2,4,28,0,1,1,0,0,0,0,1,0,0,triangle,circle,,,,,,,,,,,,,,,,,,,,,,,,,,,,,,,,,,,,,,,,,,,,,,,,,,,,,,
293455,2022-11-15_18h37.48.524,vts_reward_expectancy_bt,2022.2.4,MacIntel,59.99880002,Chrome,1440,900,,,a,0.5169,10,381,1,2,5,29,11,1,0,0,0,1,0,0,1,0,star,hexagon,,,,,,,,,,,,,,,,,,,,,,,,,,,,,,,,,,,,,,,,,,,,,,,,,,,,,,
293455,2022-11-15_18h37.48.524,vts_reward_expectancy_bt,2022.2.4,MacIntel,59.99880002,Chrome,1440,900,,,a,0.352,1,382,1,2,6,30,1,1,1,0,0,0,0,0,1,0,triangle,hexagon,,,,,,,,,,,,,,,,,,,,,,,,,,,,,,,,,,,,,,,,,,,,,,,,,,,,,,
293455,2022-11-15_18h37.48.524,vts_reward_expectancy_bt,2022.2.4,MacIntel,59.99880002,Chrome,1440,900,,,l,0.2327,10,392,1,2,7,31,2,1,1,0,0,0,0,0,0,1,triangle,star,,,,,,,,,,,,,,,,,,,,,,,,,,,,,,,,,,,,,,,,,,,,,,,,,,,,,,
293455,2022-11-15_18h37.48.524,vts_reward_expectancy_bt,2022.2.4,MacIntel,59.99880002,Chrome,1440,900,,,l,0.3835,10,402,1,2,8,32,5,1,0,1,0,0,0,0,0,1,circle,star,,,,,,,,,,,,,,,,,,,,,,,,,,,,,,,,,,,,,,,,,,,,,,,,,,,,,,
293455,2022-11-15_18h37.48.524,vts_reward_expectancy_bt,2022.2.4,MacIntel,59.99880002,Chrome,1440,900,,,l,0.3137,1,403,1,2,9,33,10,1,0,0,0,1,0,1,0,0,star ,circle,,,,,,,,,,,,,,,,,,,,,,,,,,,,,,,,,,,,,,,,,,,,,,,,,,,,,,
293455,2022-11-15_18h37.48.524,vts_reward_expectancy_bt,2022.2.4,MacIntel,59.99880002,Chrome,1440,900,,,a,0.1432,10,413,1,2,10,34,4,1,0,1,0,0,0,0,1,0,circle,hexagon,,,,,,,,,,,,,,,,,,,,,,,,,,,,,,,,,,,,,,,,,,,,,,,,,,,,,,
293455,2022-11-15_18h37.48.524,vts_reward_expectancy_bt,2022.2.4,MacIntel,59.99880002,Chrome,1440,900,,,l,0.1004,1,414,1,2,11,35,9,1,0,0,0,1,1,0,0,0,star,triangle,,,,,,,,,,,,,,,,,,,,,,,,,,,,,,,,,,,,,,,,,,,,,,,,,,,,,,
293455,2022-11-15_18h37.48.524,vts_reward_expectancy_bt,2022.2.4,MacIntel,59.99880002,Chrome,1440,900,,,a,0.5293,1,415,2,0,0,0,5,1,0,1,0,0,0,0,0,1,circle,star,,,,,,,,,,,,,,,,,,,,,,,,,,,,,,,,,,,,,,,,,,,,,,,,,,,,,,
293455,2022-11-15_18h37.48.524,vts_reward_expectancy_bt,2022.2.4,MacIntel,59.99880002,Chrome,1440,900,,,l,0.3401,1,416,2,0,1,1,0,1,1,0,0,0,0,1,0,0,triangle,circle,,,,,,,,,,,,,,,,,,,,,,,,,,,,,,,,,,,,,,,,,,,,,,,,,,,,,,
293455,2022-11-15_18h37.48.524,vts_reward_expectancy_bt,2022.2.4,MacIntel,59.99880002,Chrome,1440,900,,,a,0.301,1,417,2,0,2,2,10,1,0,0,0,1,0,1,0,0,star ,circle,,,,,,,,,,,,,,,,,,,,,,,,,,,,,,,,,,,,,,,,,,,,,,,,,,,,,,
293455,2022-11-15_18h37.48.524,vts_reward_expectancy_bt,2022.2.4,MacIntel,59.99880002,Chrome,1440,900,,,l,0.2497,10,427,2,0,3,3,2,1,1,0,0,0,0,0,0,1,triangle,star,,,,,,,,,,,,,,,,,,,,,,,,,,,,,,,,,,,,,,,,,,,,,,,,,,,,,,
293455,2022-11-15_18h37.48.524,vts_reward_expectancy_bt,2022.2.4,MacIntel,59.99880002,Chrome,1440,900,,,a,0.6188,10,437,2,0,4,4,11,1,0,0,0,1,0,0,1,0,star,hexagon,,,,,,,,,,,,,,,,,,,,,,,,,,,,,,,,,,,,,,,,,,,,,,,,,,,,,,
293455,2022-11-15_18h37.48.524,vts_reward_expectancy_bt,2022.2.4,MacIntel,59.99880002,Chrome,1440,900,,,l,0.3848,1,438,2,0,5,5,3,1,0,1,0,0,1,0,0,0,circle,triangle,,,,,,,,,,,,,,,,,,,,,,,,,,,,,,,,,,,,,,,,,,,,,,,,,,,,,,
293455,2022-11-15_18h37.48.524,vts_reward_expectancy_bt,2022.2.4,MacIntel,59.99880002,Chrome,1440,900,,,a,0.4327,1,439,2,0,6,6,7,1,0,0,1,0,0,1,0,0,hexagon,circle,,,,,,,,,,,,,,,,,,,,,,,,,,,,,,,,,,,,,,,,,,,,,,,,,,,,,,
293455,2022-11-15_18h37.48.524,vts_reward_expectancy_bt,2022.2.4,MacIntel,59.99880002,Chrome,1440,900,,,l,0.1209,10,449,2,0,7,7,8,1,0,0,1,0,0,0,0,1,hexagon,star,,,,,,,,,,,,,,,,,,,,,,,,,,,,,,,,,,,,,,,,,,,,,,,,,,,,,,
293455,2022-11-15_18h37.48.524,vts_reward_expectancy_bt,2022.2.4,MacIntel,59.99880002,Chrome,1440,900,,,a,0.5159,10,459,2,0,8,8,6,1,0,0,1,0,1,0,0,0,hexagon,triangle,,,,,,,,,,,,,,,,,,,,,,,,,,,,,,,,,,,,,,,,,,,,,,,,,,,,,,
293455,2022-11-15_18h37.48.524,vts_reward_expectancy_bt,2022.2.4,MacIntel,59.99880002,Chrome,1440,900,,,l,0.2692,1,460,2,0,9,9,9,1,0,0,0,1,1,0,0,0,star,triangle,,,,,,,,,,,,,,,,,,,,,,,,,,,,,,,,,,,,,,,,,,,,,,,,,,,,,,
293455,2022-11-15_18h37.48.524,vts_reward_expectancy_bt,2022.2.4,MacIntel,59.99880002,Chrome,1440,900,,,a,0.3517,10,470,2,0,10,10,1,1,1,0,0,0,0,0,1,0,triangle,hexagon,,,,,,,,,,,,,,,,,,,,,,,,,,,,,,,,,,,,,,,,,,,,,,,,,,,,,,
293455,2022-11-15_18h37.48.524,vts_reward_expectancy_bt,2022.2.4,MacIntel,59.99880002,Chrome,1440,900,,,l,0.6017,10,480,2,0,11,11,4,1,0,1,0,0,0,0,1,0,circle,hexagon,,,,,,,,,,,,,,,,,,,,,,,,,,,,,,,,,,,,,,,,,,,,,,,,,,,,,,
293455,2022-11-15_18h37.48.524,vts_reward_expectancy_bt,2022.2.4,MacIntel,59.99880002,Chrome,1440,900,,,a,3.0332,1,481,2,1,0,12,0,1,1,0,0,0,0,1,0,0,triangle,circle,,,,,,,,,,,,,,,,,,,,,,,,,,,,,,,,,,,,,,,,,,,,,,,,,,,,,,
293455,2022-11-15_18h37.48.524,vts_reward_expectancy_bt,2022.2.4,MacIntel,59.99880002,Chrome,1440,900,,,l,0.5358,1,482,2,1,1,13,6,1,0,0,1,0,1,0,0,0,hexagon,triangle,,,,,,,,,,,,,,,,,,,,,,,,,,,,,,,,,,,,,,,,,,,,,,,,,,,,,,
293455,2022-11-15_18h37.48.524,vts_reward_expectancy_bt,2022.2.4,MacIntel,59.99880002,Chrome,1440,900,,,a,0.4199,1,483,2,1,2,14,4,1,0,1,0,0,0,0,1,0,circle,hexagon,,,,,,,,,,,,,,,,,,,,,,,,,,,,,,,,,,,,,,,,,,,,,,,,,,,,,,
293455,2022-11-15_18h37.48.524,vts_reward_expectancy_bt,2022.2.4,MacIntel,59.99880002,Chrome,1440,900,,,l,0.7152,1,484,2,1,3,15,3,1,0,1,0,0,1,0,0,0,circle,triangle,,,,,,,,,,,,,,,,,,,,,,,,,,,,,,,,,,,,,,,,,,,,,,,,,,,,,,
293455,2022-11-15_18h37.48.524,vts_reward_expectancy_bt,2022.2.4,MacIntel,59.99880002,Chrome,1440,900,,,a,0.4341,1,485,2,1,4,16,1,1,1,0,0,0,0,0,1,0,triangle,hexagon,,,,,,,,,,,,,,,,,,,,,,,,,,,,,,,,,,,,,,,,,,,,,,,,,,,,,,
293455,2022-11-15_18h37.48.524,vts_reward_expectancy_bt,2022.2.4,MacIntel,59.99880002,Chrome,1440,900,,,l,0.32,10,495,2,1,5,17,2,1,1,0,0,0,0,0,0,1,triangle,star,,,,,,,,,,,,,,,,,,,,,,,,,,,,,,,,,,,,,,,,,,,,,,,,,,,,,,
293455,2022-11-15_18h37.48.524,vts_reward_expectancy_bt,2022.2.4,MacIntel,59.99880002,Chrome,1440,900,,,l,0.2684,10,505,2,1,6,18,8,1,0,0,1,0,0,0,0,1,hexagon,star,,,,,,,,,,,,,,,,,,,,,,,,,,,,,,,,,,,,,,,,,,,,,,,,,,,,,,
293455,2022-11-15_18h37.48.524,vts_reward_expectancy_bt,2022.2.4,MacIntel,59.99880002,Chrome,1440,900,,,a,1.0521,1,506,2,1,7,19,5,1,0,1,0,0,0,0,0,1,circle,star,,,,,,,,,,,,,,,,,,,,,,,,,,,,,,,,,,,,,,,,,,,,,,,,,,,,,,
293455,2022-11-15_18h37.48.524,vts_reward_expectancy_bt,2022.2.4,MacIntel,59.99880002,Chrome,1440,900,,,l,0.0831,1,507,2,1,8,20,7,1,0,0,1,0,0,1,0,0,hexagon,circle,,,,,,,,,,,,,,,,,,,,,,,,,,,,,,,,,,,,,,,,,,,,,,,,,,,,,,
293455,2022-11-15_18h37.48.524,vts_reward_expectancy_bt,2022.2.4,MacIntel,59.99880002,Chrome,1440,900,,,a,0.0655,10,517,2,1,9,21,9,1,0,0,0,1,1,0,0,0,star,triangle,,,,,,,,,,,,,,,,,,,,,,,,,,,,,,,,,,,,,,,,,,,,,,,,,,,,,,
293455,2022-11-15_18h37.48.524,vts_reward_expectancy_bt,2022.2.4,MacIntel,59.99880002,Chrome,1440,900,,,a,0.3698,10,527,2,1,10,22,11,1,0,0,0,1,0,0,1,0,star,hexagon,,,,,,,,,,,,,,,,,,,,,,,,,,,,,,,,,,,,,,,,,,,,,,,,,,,,,,
293455,2022-11-15_18h37.48.524,vts_reward_expectancy_bt,2022.2.4,MacIntel,59.99880002,Chrome,1440,900,,,a,0.9117,10,537,2,1,11,23,10,1,0,0,0,1,0,1,0,0,star ,circle,,,,,,,,,,,,,,,,,,,,,,,,,,,,,,,,,,,,,,,,,,,,,,,,,,,,,,
293455,2022-11-15_18h37.48.524,vts_reward_expectancy_bt,2022.2.4,MacIntel,59.99880002,Chrome,1440,900,,,a,0.6558,1,538,2,2,0,24,7,1,0,0,1,0,0,1,0,0,hexagon,circle,,,,,,,,,,,,,,,,,,,,,,,,,,,,,,,,,,,,,,,,,,,,,,,,,,,,,,
293455,2022-11-15_18h37.48.524,vts_reward_expectancy_bt,2022.2.4,MacIntel,59.99880002,Chrome,1440,900,,,l,0.3138,10,548,2,2,1,25,5,1,0,1,0,0,0,0,0,1,circle,star,,,,,,,,,,,,,,,,,,,,,,,,,,,,,,,,,,,,,,,,,,,,,,,,,,,,,,
293455,2022-11-15_18h37.48.524,vts_reward_expectancy_bt,2022.2.4,MacIntel,59.99880002,Chrome,1440,900,,,l,0.4873,10,558,2,2,2,26,2,1,1,0,0,0,0,0,0,1,triangle,star,,,,,,,,,,,,,,,,,,,,,,,,,,,,,,,,,,,,,,,,,,,,,,,,,,,,,,
293455,2022-11-15_18h37.48.524,vts_reward_expectancy_bt,2022.2.4,MacIntel,59.99880002,Chrome,1440,900,,,a,1.3166,10,568,2,2,3,27,0,1,1,0,0,0,0,1,0,0,triangle,circle,,,,,,,,,,,,,,,,,,,,,,,,,,,,,,,,,,,,,,,,,,,,,,,,,,,,,,
293455,2022-11-15_18h37.48.524,vts_reward_expectancy_bt,2022.2.4,MacIntel,59.99880002,Chrome,1440,900,,,l,0.5907,10,578,2,2,4,28,8,1,0,0,1,0,0,0,0,1,hexagon,star,,,,,,,,,,,,,,,,,,,,,,,,,,,,,,,,,,,,,,,,,,,,,,,,,,,,,,
293455,2022-11-15_18h37.48.524,vts_reward_expectancy_bt,2022.2.4,MacIntel,59.99880002,Chrome,1440,900,,,a,0.4341,1,579,2,2,5,29,3,1,0,1,0,0,1,0,0,0,circle,triangle,,,,,,,,,,,,,,,,,,,,,,,,,,,,,,,,,,,,,,,,,,,,,,,,,,,,,,
293455,2022-11-15_18h37.48.524,vts_reward_expectancy_bt,2022.2.4,MacIntel,59.99880002,Chrome,1440,900,,,l,0.6987,10,589,2,2,6,30,6,1,0,0,1,0,1,0,0,0,hexagon,triangle,,,,,,,,,,,,,,,,,,,,,,,,,,,,,,,,,,,,,,,,,,,,,,,,,,,,,,
293455,2022-11-15_18h37.48.524,vts_reward_expectancy_bt,2022.2.4,MacIntel,59.99880002,Chrome,1440,900,,,a,0.5,10,599,2,2,7,31,9,1,0,0,0,1,1,0,0,0,star,triangle,,,,,,,,,,,,,,,,,,,,,,,,,,,,,,,,,,,,,,,,,,,,,,,,,,,,,,
293455,2022-11-15_18h37.48.524,vts_reward_expectancy_bt,2022.2.4,MacIntel,59.99880002,Chrome,1440,900,,,l,0.6421,10,609,2,2,8,32,10,1,0,0,0,1,0,1,0,0,star ,circle,,,,,,,,,,,,,,,,,,,,,,,,,,,,,,,,,,,,,,,,,,,,,,,,,,,,,,
293455,2022-11-15_18h37.48.524,vts_reward_expectancy_bt,2022.2.4,MacIntel,59.99880002,Chrome,1440,900,,,a,0.2828,1,610,2,2,9,33,1,1,1,0,0,0,0,0,1,0,triangle,hexagon,,,,,,,,,,,,,,,,,,,,,,,,,,,,,,,,,,,,,,,,,,,,,,,,,,,,,,
293455,2022-11-15_18h37.48.524,vts_reward_expectancy_bt,2022.2.4,MacIntel,59.99880002,Chrome,1440,900,,,l,0.437,1,611,2,2,10,34,11,1,0,0,0,1,0,0,1,0,star,hexagon,,,,,,,,,,,,,,,,,,,,,,,,,,,,,,,,,,,,,,,,,,,,,,,,,,,,,,
293455,2022-11-15_18h37.48.524,vts_reward_expectancy_bt,2022.2.4,MacIntel,59.99880002,Chrome,1440,900,,,a,0.0722,10,621,2,2,11,35,4,1,0,1,0,0,0,0,1,0,circle,hexagon,,,,,,,,,,,,,,,,,,,,,,,,,,,,,,,,,,,,,,,,,,,,,,,,,,,,,,
293455,2022-11-15_18h37.48.524,vts_reward_expectancy_bt,2022.2.4,MacIntel,59.99880002,Chrome,1440,900,,,,,,,,,,,,,,,,,,,,,,,167,U,triangle,1,0,f,2.364,0,0,0,0,0,1,,,,,,,,,,,,,,,,,,,,,,,,,,,,,,,,,,,,,,,,,
293455,2022-11-15_18h37.48.524,vts_reward_expectancy_bt,2022.2.4,MacIntel,59.99880002,Chrome,1440,900,,,,,,,,,,,,,,,,,,,,,,,146,W,hexagon,1,0,d,0.881,0,1,0,1,0,1,,,,,,,,,,,,,,,,,,,,,,,,,,,,,,,,,,,,,,,,,
293455,2022-11-15_18h37.48.524,vts_reward_expectancy_bt,2022.2.4,MacIntel,59.99880002,Chrome,1440,900,,,,,,,,,,,,,,,,,,,,,,,160,B,circle,1,0,f,0.4979,0,2,0,2,0,1,,,,,,,,,,,,,,,,,,,,,,,,,,,,,,,,,,,,,,,,,
293455,2022-11-15_18h37.48.524,vts_reward_expectancy_bt,2022.2.4,MacIntel,59.99880002,Chrome,1440,900,,,,,,,,,,,,,,,,,,,,,,,125,D,star,1,0,d,0.6145,0,3,0,3,0,1,,,,,,,,,,,,,,,,,,,,,,,,,,,,,,,,,,,,,,,,,
293455,2022-11-15_18h37.48.524,vts_reward_expectancy_bt,2022.2.4,MacIntel,59.99880002,Chrome,1440,900,,,,,,,,,,,,,,,,,,,,,,,132,Y,triangle,1,0,d,0.6453,0,4,0,4,0,1,,,,,,,,,,,,,,,,,,,,,,,,,,,,,,,,,,,,,,,,,
293455,2022-11-15_18h37.48.524,vts_reward_expectancy_bt,2022.2.4,MacIntel,59.99880002,Chrome,1440,900,,,,,,,,,,,,,,,,,,,,,,,181,S,hexagon,1,0,f,0.7304,0,5,0,5,0,1,,,,,,,,,,,,,,,,,,,,,,,,,,,,,,,,,,,,,,,,,
293455,2022-11-15_18h37.48.524,vts_reward_expectancy_bt,2022.2.4,MacIntel,59.99880002,Chrome,1440,900,,,,,,,,,,,,,,,,,,,,,,,139,H,circle,1,0,d,0.6841,0,6,0,6,0,1,,,,,,,,,,,,,,,,,,,,,,,,,,,,,,,,,,,,,,,,,
293455,2022-11-15_18h37.48.524,vts_reward_expectancy_bt,2022.2.4,MacIntel,59.99880002,Chrome,1440,900,,,,,,,,,,,,,,,,,,,,,,,174,F,star,1,0,f,1.0302,0,7,0,7,0,1,,,,,,,,,,,,,,,,,,,,,,,,,,,,,,,,,,,,,,,,,
293455,2022-11-15_18h37.48.524,vts_reward_expectancy_bt,2022.2.4,MacIntel,59.99880002,Chrome,1440,900,,,,,,,,,,,,,,,,,,,,,,,167,U,star,1,0,f,0.8075,0,8,0,8,0,1,,,,,,,,,,,,,,,,,,,,,,,,,,,,,,,,,,,,,,,,,
293455,2022-11-15_18h37.48.524,vts_reward_expectancy_bt,2022.2.4,MacIntel,59.99880002,Chrome,1440,900,,,,,,,,,,,,,,,,,,,,,,,146,W,circle,1,0,d,0.6015,0,9,0,9,0,1,,,,,,,,,,,,,,,,,,,,,,,,,,,,,,,,,,,,,,,,,
293455,2022-11-15_18h37.48.524,vts_reward_expectancy_bt,2022.2.4,MacIntel,59.99880002,Chrome,1440,900,,,,,,,,,,,,,,,,,,,,,,,181,B,triangle,1,0,,,1,,,,,,j,2.1137,0,0,0,0,1,,,,,,,,,,,,,,,,,,,,,,,,,,,,,,,,,,
293455,2022-11-15_18h37.48.524,vts_reward_expectancy_bt,2022.2.4,MacIntel,59.99880002,Chrome,1440,900,,,,,,,,,,,,,,,,,,,,,,,167,S,circle,1,0,,,1,,,,,,k,0.8881,1,0,1,0,1,,,,,,,,,,,,,,,,,,,,,,,,,,,,,,,,,,
293455,2022-11-15_18h37.48.524,vts_reward_expectancy_bt,2022.2.4,MacIntel,59.99880002,Chrome,1440,900,,,,,,,,,,,,,,,,,,,,,,,174,W,star,1,0,,,1,,,,,,k,0.6798,2,0,2,0,1,,,,,,,,,,,,,,,,,,,,,,,,,,,,,,,,,,
293455,2022-11-15_18h37.48.524,vts_reward_expectancy_bt,2022.2.4,MacIntel,59.99880002,Chrome,1440,900,,,,,,,,,,,,,,,,,,,,,,,125,H,hexagon,1,0,,,1,,,,,,j,0.4835,3,0,3,0,1,,,,,,,,,,,,,,,,,,,,,,,,,,,,,,,,,,
293455,2022-11-15_18h37.48.524,vts_reward_expectancy_bt,2022.2.4,MacIntel,59.99880002,Chrome,1440,900,,,,,,,,,,,,,,,,,,,,,,,146,Y,triangle,1,0,,,1,,,,,,k,0.5311,4,0,4,0,1,,,,,,,,,,,,,,,,,,,,,,,,,,,,,,,,,,
293455,2022-11-15_18h37.48.524,vts_reward_expectancy_bt,2022.2.4,MacIntel,59.99880002,Chrome,1440,900,,,,,,,,,,,,,,,,,,,,,,,132,F,circle,1,0,,,1,,,,,,j,0.7123,5,0,5,0,1,,,,,,,,,,,,,,,,,,,,,,,,,,,,,,,,,,
293455,2022-11-15_18h37.48.524,vts_reward_expectancy_bt,2022.2.4,MacIntel,59.99880002,Chrome,1440,900,,,,,,,,,,,,,,,,,,,,,,,160,U,star,1,0,,,1,,,,,,k,0.6806,6,0,6,0,1,,,,,,,,,,,,,,,,,,,,,,,,,,,,,,,,,,
293455,2022-11-15_18h37.48.524,vts_reward_expectancy_bt,2022.2.4,MacIntel,59.99880002,Chrome,1440,900,,,,,,,,,,,,,,,,,,,,,,,139,D,hexagon,1,0,,,1,,,,,,j,0.6681,7,0,7,0,1,,,,,,,,,,,,,,,,,,,,,,,,,,,,,,,,,,
293455,2022-11-15_18h37.48.524,vts_reward_expectancy_bt,2022.2.4,MacIntel,59.99880002,Chrome,1440,900,,,,,,,,,,,,,,,,,,,,,,,181,B,triangle,1,0,,,1,,,,,,j,0.631,8,0,8,0,1,,,,,,,,,,,,,,,,,,,,,,,,,,,,,,,,,,
293455,2022-11-15_18h37.48.524,vts_reward_expectancy_bt,2022.2.4,MacIntel,59.99880002,Chrome,1440,900,,,,,,,,,,,,,,,,,,,,,,,167,S,hexagon,1,0,,,1,,,,,,k,0.5806,9,0,9,0,1,,,,,,,,,,,,,,,,,,,,,,,,,,,,,,,,,,
293455,2022-11-15_18h37.48.524,vts_reward_expectancy_bt,2022.2.4,MacIntel,59.99880002,Chrome,1440,900,,,,,0,621,,,,,,,,,,,,,,,,,132,S,triangle,-1,0,,,2,,,,,,,,,,,,,-1,no_choice,NA,,vtsPrac,0,0,0,0,1,,,,,,,,,,,,,,,,,,,,,,,,
293455,2022-11-15_18h37.48.524,vts_reward_expectancy_bt,2022.2.4,MacIntel,59.99880002,Chrome,1440,900,,,,,0,621,,,,,,,,,,,,,,,,,125,D,star,0,0,,,2,,,,,,,,,,,,,switch,number,NA,f,vtsPrac,1,0,1,0,1,1.6147,,,,,,,,,,,,,,,,,,,,,,,
293455,2022-11-15_18h37.48.524,vts_reward_expectancy_bt,2022.2.4,MacIntel,59.99880002,Chrome,1440,900,,,,,0,621,,,,,,,,,,,,,,,,,167,Y,triangle,0,1,,,2,,,,,,,,,,,,,repeat,number,NA,d,vtsPrac,2,0,2,0,1,1.4997,,,,,,,,,,,,,,,,,,,,,,,
293455,2022-11-15_18h37.48.524,vts_reward_expectancy_bt,2022.2.4,MacIntel,59.99880002,Chrome,1440,900,,,,,0,621,,,,,,,,,,,,,,,,,139,U,star,0,1,,,2,,,,,,,,,,,,,repeat,number,NA,f,vtsPrac,3,0,3,0,1,0.7057,,,,,,,,,,,,,,,,,,,,,,,
293455,2022-11-15_18h37.48.524,vts_reward_expectancy_bt,2022.2.4,MacIntel,59.99880002,Chrome,1440,900,,,,,0,621,,,,,,,,,,,,,,,,,132,S,triangle,0,1,,,2,,,,,,,,,,,,,repeat,number,NA,f,vtsPrac,4,0,4,0,1,1.2441,,,,,,,,,,,,,,,,,,,,,,,
293455,2022-11-15_18h37.48.524,vts_reward_expectancy_bt,2022.2.4,MacIntel,59.99880002,Chrome,1440,900,,,,,0,621,,,,,,,,,,,,,,,,,125,D,circle,0,1,,,2,,,,,,,,,,,,,repeat,number,NA,f,vtsPrac,5,0,5,0,1,0.7954,,,,,,,,,,,,,,,,,,,,,,,
293455,2022-11-15_18h37.48.524,vts_reward_expectancy_bt,2022.2.4,MacIntel,59.99880002,Chrome,1440,900,,,,,0,621,,,,,,,,,,,,,,,,,167,Y,circle,0,1,,,2,,,,,,,,,,,,,repeat,number,NA,d,vtsPrac,6,0,6,0,1,1.1311,,,,,,,,,,,,,,,,,,,,,,,
293455,2022-11-15_18h37.48.524,vts_reward_expectancy_bt,2022.2.4,MacIntel,59.99880002,Chrome,1440,900,,,,,0,621,,,,,,,,,,,,,,,,,139,U,hexagon,0,1,,,2,,,,,,,,,,,,,repeat,number,NA,f,vtsPrac,7,0,7,0,1,1.264,,,,,,,,,,,,,,,,,,,,,,,
293455,2022-11-15_18h37.48.524,vts_reward_expectancy_bt,2022.2.4,MacIntel,59.99880002,Chrome,1440,900,,,,,0,621,,,,,,,,,,,,,,,,,181,U,circle,0,1,,,2,,,,,,,,,,,,,repeat,number,NA,d,vtsPrac,8,0,8,0,1,1.2836,,,,,,,,,,,,,,,,,,,,,,,
293455,2022-11-15_18h37.48.524,vts_reward_expectancy_bt,2022.2.4,MacIntel,59.99880002,Chrome,1440,900,,,,,0,621,,,,,,,,,,,,,,,,,146,Y,hexagon,1,1,,,2,,,,,,,,,,,,,repeat,number,numRpt,d,vtsPrac,9,0,9,0,1,0.4128,,,,,,,,,,,,,,,,,,,,,,,
293455,2022-11-15_18h37.48.524,vts_reward_expectancy_bt,2022.2.4,MacIntel,59.99880002,Chrome,1440,900,,,,,0,621,,,,,,,,,,,,,,,,,167,B,triangle,1,0,,,2,,,,,,,,,,,,,repeat,number,numRpt,f,vtsPrac,10,0,10,0,1,1.2561,,,,,,,,,,,,,,,,,,,,,,,
293455,2022-11-15_18h37.48.524,vts_reward_expectancy_bt,2022.2.4,MacIntel,59.99880002,Chrome,1440,900,,,,,0,621,,,,,,,,,,,,,,,,,132,F,star,1,0,,,2,,,,,,,,,,,,,repeat,number,numRpt,d,vtsPrac,11,0,11,0,1,0.6497,,,,,,,,,,,,,,,,,,,,,,,
293455,2022-11-15_18h37.48.524,vts_reward_expectancy_bt,2022.2.4,MacIntel,59.99880002,Chrome,1440,900,,,,,0,621,,,,,,,,,,,,,,,,,132,Y,triangle,0,0,,,2,,,,,,,,,,,,,repeat,number,NA,f,vtsPrac,12,0,12,0,1,2.1332,,,,,,,,,,,,,,,,,,,,,,,
293455,2022-11-15_18h37.48.524,vts_reward_expectancy_bt,2022.2.4,MacIntel,59.99880002,Chrome,1440,900,,,,,0,621,,,,,,,,,,,,,,,,,139,W,hexagon,1,1,,,2,,,,,,,,,,,,,repeat,number,numRpt,d,vtsPrac,13,0,13,0,1,1.0468,,,,,,,,,,,,,,,,,,,,,,,
293455,2022-11-15_18h37.48.524,vts_reward_expectancy_bt,2022.2.4,MacIntel,59.99880002,Chrome,1440,900,,,,,0,621,,,,,,,,,,,,,,,,,125,F,circle,1,0,,,2,,,,,,,,,,,,,repeat,number,numRpt,d,vtsPrac,14,0,14,0,1,1.664,,,,,,,,,,,,,,,,,,,,,,,
293455,2022-11-15_18h37.48.524,vts_reward_expectancy_bt,2022.2.4,MacIntel,59.99880002,Chrome,1440,900,,,,,0,621,,,,,,,,,,,,,,,,,167,U,star,1,0,,,2,,,,,,,,,,,,,repeat,number,numRpt,f,vtsPrac,15,0,15,0,1,1.1493,,,,,,,,,,,,,,,,,,,,,,,
293455,2022-11-15_18h37.48.524,vts_reward_expectancy_bt,2022.2.4,MacIntel,59.99880002,Chrome,1440,900,,,,,0,621,,,,,,,,,,,,,,,,,167,H,triangle,0,0,,,2,,,,,,,,,,,,,repeat,number,NA,d,vtsPrac,16,0,16,0,1,2.919,,,,,,,,,,,,,,,,,,,,,,,
293455,2022-11-15_18h37.48.524,vts_reward_expectancy_bt,2022.2.4,MacIntel,59.99880002,Chrome,1440,900,,,,,0,621,,,,,,,,,,,,,,,,,181,W,hexagon,1,1,,,2,,,,,,,,,,,,,repeat,number,numRpt,f,vtsPrac,17,0,17,0,1,0.8634,,,,,,,,,,,,,,,,,,,,,,,
293455,2022-11-15_18h37.48.524,vts_reward_expectancy_bt,2022.2.4,MacIntel,59.99880002,Chrome,1440,900,,,,,0,621,,,,,,,,,,,,,,,,,125,F,star,1,0,,,2,,,,,,,,,,,,,repeat,number,numRpt,d,vtsPrac,18,0,18,0,1,0.7479,,,,,,,,,,,,,,,,,,,,,,,
293455,2022-11-15_18h37.48.524,vts_reward_expectancy_bt,2022.2.4,MacIntel,59.99880002,Chrome,1440,900,,,,,0,621,,,,,,,,,,,,,,,,,160,B,hexagon,0,0,,,2,,,,,,,,,,,,,switch,letter,NA,k,vtsPrac,19,0,19,0,1,1.4476,,,,,,,,,,,,,,,,,,,,,,,
293455,2022-11-15_18h37.48.524,vts_reward_expectancy_bt,2022.2.4,MacIntel,59.99880002,Chrome,1440,900,,,,,0,621,,,,,,,,,,,,,,,,,132,S,circle,0,1,,,2,,,,,,,,,,,,,switch,number,NA,f,vtsPrac,20,0,20,0,1,1.0987,,,,,,,,,,,,,,,,,,,,,,,
293455,2022-11-15_18h37.48.524,vts_reward_expectancy_bt,2022.2.4,MacIntel,59.99880002,Chrome,1440,900,,,,,0,621,,,,,,,,,,,,,,,,,146,B,triangle,1,1,,,2,,,,,,,,,,,,,repeat,number,numRpt,d,vtsPrac,21,0,21,0,1,0.7158,,,,,,,,,,,,,,,,,,,,,,,
293455,2022-11-15_18h37.48.524,vts_reward_expectancy_bt,2022.2.4,MacIntel,59.99880002,Chrome,1440,900,,,,,0,621,,,,,,,,,,,,,,,,,174,W,hexagon,0,0,,,2,,,,,,,,,,,,,repeat,number,NA,d,vtsPrac,22,0,22,0,1,0.649,,,,,,,,,,,,,,,,,,,,,,,
293455,2022-11-15_18h37.48.524,vts_reward_expectancy_bt,2022.2.4,MacIntel,59.99880002,Chrome,1440,900,,,,,0,621,,,,,,,,,,,,,,,,,160,U,triangle,1,1,,,2,,,,,,,,,,,,,switch,letter,lettSwt,k,vtsPrac,23,0,23,0,1,0.383,,,,,,,,,,,,,,,,,,,,,,,
293455,2022-11-15_18h37.48.524,vts_reward_expectancy_bt,2022.2.4,MacIntel,59.99880002,Chrome,1440,900,,,,,0,621,,,,,,,,,,,,,,,,,167,B,triangle,1,0,,,2,,,,,,,,,,,,,switch,number,numSwt,f,vtsPrac,24,0,24,0,1,0.6808,,,,,,,,,,,,,,,,,,,,,,,
293455,2022-11-15_18h37.48.524,vts_reward_expectancy_bt,2022.2.4,MacIntel,59.99880002,Chrome,1440,900,,,,,0,621,,,,,,,,,,,,,,,,,139,F,circle,1,0,,,2,,,,,,,,,,,,,repeat,number,numRpt,d,vtsPrac,25,0,25,0,1,1.8049,,,,,,,,,,,,,,,,,,,,,,,
293455,2022-11-15_18h37.48.524,vts_reward_expectancy_bt,2022.2.4,MacIntel,59.99880002,Chrome,1440,900,,,,,0,621,,,,,,,,,,,,,,,,,146,S,triangle,1,0,,,2,,,,,,,,,,,,,repeat,number,numRpt,d,vtsPrac,26,0,26,0,1,2.2348,,,,,,,,,,,,,,,,,,,,,,,
293455,2022-11-15_18h37.48.524,vts_reward_expectancy_bt,2022.2.4,MacIntel,59.99880002,Chrome,1440,900,,,,,0,621,,,,,,,,,,,,,,,,,160,H,circle,0,0,,,2,,,,,,,,,,,,,switch,letter,NA,k,vtsPrac,27,0,27,0,1,0.931,,,,,,,,,,,,,,,,,,,,,,,
293455,2022-11-15_18h37.48.524,vts_reward_expectancy_bt,2022.2.4,MacIntel,59.99880002,Chrome,1440,900,,,,,0,621,,,,,,,,,,,,,,,,,146,F,star,1,1,,,2,,,,,,,,,,,,,switch,number,numSwt,d,vtsPrac,28,0,28,0,1,0.7322,,,,,,,,,,,,,,,,,,,,,,,
293455,2022-11-15_18h37.48.524,vts_reward_expectancy_bt,2022.2.4,MacIntel,59.99880002,Chrome,1440,900,,,,,0,621,,,,,,,,,,,,,,,,,125,H,hexagon,1,0,,,2,,,,,,,,,,,,,repeat,number,numRpt,d,vtsPrac,29,0,29,0,1,1.0312,,,,,,,,,,,,,,,,,,,,,,,
293455,2022-11-15_18h37.48.524,vts_reward_expectancy_bt,2022.2.4,MacIntel,59.99880002,Chrome,1440,900,,,,,0,621,,,,,,,,,,,,,,,,,139,Y,triangle,1,0,,,2,,,,,,,,,,,,,switch,letter,lettSwt,k,vtsPrac,30,0,30,0,1,0.731,,,,,,,,,,,,,,,,,,,,,,,
293455,2022-11-15_18h37.48.524,vts_reward_expectancy_bt,2022.2.4,MacIntel,59.99880002,Chrome,1440,900,,,,,0,621,,,,,,,,,,,,,,,,,167,D,hexagon,0,0,,,2,,,,,,,,,,,,,repeat,letter,NA,k,vtsPrac,31,0,31,0,1,0.7306,,,,,,,,,,,,,,,,,,,,,,,
293455,2022-11-15_18h37.48.524,vts_reward_expectancy_bt,2022.2.4,MacIntel,59.99880002,Chrome,1440,900,,,,,0,621,,,,,,,,,,,,,,,,,132,U,circle,1,1,,,3,,,,,,,,,,,,,switch,number,numSwt,d,vtsPrac,0,0,0,0,1,1.0529,,,,,,,,,,,,,,,,,,,,,,,
293455,2022-11-15_18h37.48.524,vts_reward_expectancy_bt,2022.2.4,MacIntel,59.99880002,Chrome,1440,900,,,,,0,621,,,,,,,,,,,,,,,,,181,D,star,0,0,,,3,,,,,,,,,,,,,switch,letter,NA,k,vtsPrac,1,0,1,0,1,1.1478,,,,,,,,,,,,,,,,,,,,,,,
293455,2022-11-15_18h37.48.524,vts_reward_expectancy_bt,2022.2.4,MacIntel,59.99880002,Chrome,1440,900,,,,,0,621,,,,,,,,,,,,,,,,,174,B,circle,0,1,,,3,,,,,,,,,,,,,switch,number,NA,d,vtsPrac,2,0,2,0,1,1.4716,,,,,,,,,,,,,,,,,,,,,,,
293455,2022-11-15_18h37.48.524,vts_reward_expectancy_bt,2022.2.4,MacIntel,59.99880002,Chrome,1440,900,,,,,0,621,,,,,,,,,,,,,,,,,125,Y,star,1,1,,,3,,,,,,,,,,,,,switch,letter,lettSwt,k,vtsPrac,3,0,3,0,1,0.5528,,,,,,,,,,,,,,,,,,,,,,,
293455,2022-11-15_18h37.48.524,vts_reward_expectancy_bt,2022.2.4,MacIntel,59.99880002,Chrome,1440,900,,,,,0,621,,,,,,,,,,,,,,,,,132,U,star,1,0,,,3,,,,,,,,,,,,,repeat,letter,lettRpt,k,vtsPrac,4,0,4,0,1,1.0225,,,,,,,,,,,,,,,,,,,,,,,
293455,2022-11-15_18h37.48.524,vts_reward_expectancy_bt,2022.2.4,MacIntel,59.99880002,Chrome,1440,900,,,,,0,621,,,,,,,,,,,,,,,,,181,D,triangle,0,0,,,3,,,,,,,,,,,,,switch,number,NA,d,vtsPrac,5,0,5,0,1,0.8831,,,,,,,,,,,,,,,,,,,,,,,
293455,2022-11-15_18h37.48.524,vts_reward_expectancy_bt,2022.2.4,MacIntel,59.99880002,Chrome,1440,900,,,,,0,621,,,,,,,,,,,,,,,,,174,B,circle,1,1,,,3,,,,,,,,,,,,,repeat,number,numRpt,f,vtsPrac,6,0,6,0,1,1.0676,,,,,,,,,,,,,,,,,,,,,,,
293455,2022-11-15_18h37.48.524,vts_reward_expectancy_bt,2022.2.4,MacIntel,59.99880002,Chrome,1440,900,,,,,0,621,,,,,,,,,,,,,,,,,125,Y,star,1,0,,,3,,,,,,,,,,,,,switch,letter,lettSwt,k,vtsPrac,7,0,7,0,1,0.9684,,,,,,,,,,,,,,,,,,,,,,,
293455,2022-11-15_18h37.48.524,vts_reward_expectancy_bt,2022.2.4,MacIntel,59.99880002,Chrome,1440,900,,,,,0,621,,,,,,,,,,,,,,,,,125,B,circle,0,0,,,3,,,,,,,,,,,,,repeat,letter,NA,k,vtsPrac,8,0,8,0,1,0.7355,,,,,,,,,,,,,,,,,,,,,,,
293455,2022-11-15_18h37.48.524,vts_reward_expectancy_bt,2022.2.4,MacIntel,59.99880002,Chrome,1440,900,,,,,0,621,,,,,,,,,,,,,,,,,146,H,star,1,1,,,3,,,,,,,,,,,,,switch,number,numSwt,d,vtsPrac,9,0,9,0,1,0.6299,,,,,,,,,,,,,,,,,,,,,,,
293455,2022-11-15_18h37.48.524,vts_reward_expectancy_bt,2022.2.4,MacIntel,59.99880002,Chrome,1440,900,,,,,0,621,,,,,,,,,,,,,,,,,139,W,triangle,1,0,,,3,,,,,,,,,,,,,switch,letter,lettSwt,k,vtsPrac,10,0,10,0,1,0.7126,,,,,,,,,,,,,,,,,,,,,,,
293455,2022-11-15_18h37.48.524,vts_reward_expectancy_bt,2022.2.4,MacIntel,59.99880002,Chrome,1440,900,,,,,0,621,,,,,,,,,,,,,,,,,174,S,hexagon,0,0,,,3,,,,,,,,,,,,,switch,number,NA,d,vtsPrac,11,0,11,0,1,0.7308,,,,,,,,,,,,,,,,,,,,,,,
293455,2022-11-15_18h37.48.524,vts_reward_expectancy_bt,2022.2.4,MacIntel,59.99880002,Chrome,1440,900,,,,,0,621,,,,,,,,,,,,,,,,,125,U,circle,1,1,,,3,,,,,,,,,,,,,repeat,number,numRpt,d,vtsPrac,12,0,12,0,1,0.8309,,,,,,,,,,,,,,,,,,,,,,,
293455,2022-11-15_18h37.48.524,vts_reward_expectancy_bt,2022.2.4,MacIntel,59.99880002,Chrome,1440,900,,,,,0,621,,,,,,,,,,,,,,,,,132,W,triangle,1,0,,,3,,,,,,,,,,,,,switch,letter,lettSwt,k,vtsPrac,13,0,13,0,1,0.704,,,,,,,,,,,,,,,,,,,,,,,
293455,2022-11-15_18h37.48.524,vts_reward_expectancy_bt,2022.2.4,MacIntel,59.99880002,Chrome,1440,900,,,,,0,621,,,,,,,,,,,,,,,,,146,B,triangle,0,0,,,3,,,,,,,,,,,,,repeat,letter,NA,k,vtsPrac,14,0,14,0,1,0.9989,,,,,,,,,,,,,,,,,,,,,,,
293455,2022-11-15_18h37.48.524,vts_reward_expectancy_bt,2022.2.4,MacIntel,59.99880002,Chrome,1440,900,,,,,0,621,,,,,,,,,,,,,,,,,139,H,star,1,1,,,3,,,,,,,,,,,,,switch,number,numSwt,d,vtsPrac,15,0,15,0,1,0.7316,,,,,,,,,,,,,,,,,,,,,,,
293455,2022-11-15_18h37.48.524,vts_reward_expectancy_bt,2022.2.4,MacIntel,59.99880002,Chrome,1440,900,,,,,0,621,,,,,,,,,,,,,,,,,167,F,circle,1,0,,,3,,,,,,,,,,,,,switch,letter,lettSwt,j,vtsPrac,16,0,16,0,1,0.4642,,,,,,,,,,,,,,,,,,,,,,,
293455,2022-11-15_18h37.48.524,vts_reward_expectancy_bt,2022.2.4,MacIntel,59.99880002,Chrome,1440,900,,,,,0,621,,,,,,,,,,,,,,,,,146,D,triangle,1,0,,,3,,,,,,,,,,,,,switch,number,numSwt,d,vtsPrac,17,0,17,0,1,2.3802,,,,,,,,,,,,,,,,,,,,,,,
293455,2022-11-15_18h37.48.524,vts_reward_expectancy_bt,2022.2.4,MacIntel,59.99880002,Chrome,1440,900,,,,,0,621,,,,,,,,,,,,,,,,,181,S,circle,1,0,,,3,,,,,,,,,,,,,repeat,number,numRpt,f,vtsPrac,18,0,18,0,1,1.3628,,,,,,,,,,,,,,,,,,,,,,,
293455,2022-11-15_18h37.48.524,vts_reward_expectancy_bt,2022.2.4,MacIntel,59.99880002,Chrome,1440,900,,,,,0,621,,,,,,,,,,,,,,,,,139,W,star,1,0,,,3,,,,,,,,,,,,,switch,letter,lettSwt,k,vtsPrac,19,0,19,0,1,1.0846,,,,,,,,,,,,,,,,,,,,,,,
293455,2022-11-15_18h37.48.524,vts_reward_expectancy_bt,2022.2.4,MacIntel,59.99880002,Chrome,1440,900,,,,,0,621,,,,,,,,,,,,,,,,,132,U,circle,0,0,,,3,,,,,,,,,,,,,repeat,letter,NA,j,vtsPrac,20,0,20,0,1,2.4146,,,,,,,,,,,,,,,,,,,,,,,
293455,2022-11-15_18h37.48.524,vts_reward_expectancy_bt,2022.2.4,MacIntel,59.99880002,Chrome,1440,900,,,,,0,621,,,,,,,,,,,,,,,,,139,B,triangle,1,1,,,3,,,,,,,,,,,,,switch,number,numSwt,d,vtsPrac,21,0,21,0,1,0.7972,,,,,,,,,,,,,,,,,,,,,,,
293455,2022-11-15_18h37.48.524,vts_reward_expectancy_bt,2022.2.4,MacIntel,59.99880002,Chrome,1440,900,,,,,0,621,,,,,,,,,,,,,,,,,181,S,circle,1,0,,,3,,,,,,,,,,,,,repeat,number,numRpt,f,vtsPrac,22,0,22,0,1,1.2801,,,,,,,,,,,,,,,,,,,,,,,
293455,2022-11-15_18h37.48.524,vts_reward_expectancy_bt,2022.2.4,MacIntel,59.99880002,Chrome,1440,900,,,,,0,621,,,,,,,,,,,,,,,,,174,F,star,1,0,,,3,,,,,,,,,,,,,switch,letter,lettSwt,j,vtsPrac,23,0,23,0,1,1.5786,,,,,,,,,,,,,,,,,,,,,,,
293455,2022-11-15_18h37.48.524,vts_reward_expectancy_bt,2022.2.4,MacIntel,59.99880002,Chrome,1440,900,,,,,0,621,,,,,,,,,,,,,,,,,167,S,triangle,1,0,,,3,,,,,,,,,,,,,repeat,letter,lettRpt,k,vtsPrac,24,0,24,0,1,1.5973,,,,,,,,,,,,,,,,,,,,,,,
293455,2022-11-15_18h37.48.524,vts_reward_expectancy_bt,2022.2.4,MacIntel,59.99880002,Chrome,1440,900,,,,,0,621,,,,,,,,,,,,,,,,,139,F,star,1,0,,,3,,,,,,,,,,,,,switch,number,numSwt,d,vtsPrac,25,0,25,0,1,0.7978,,,,,,,,,,,,,,,,,,,,,,,
293455,2022-11-15_18h37.48.524,vts_reward_expectancy_bt,2022.2.4,MacIntel,59.99880002,Chrome,1440,900,,,,,0,621,,,,,,,,,,,,,,,,,174,W,star,0,0,,,3,,,,,,,,,,,,,switch,letter,NA,j,vtsPrac,26,0,26,0,1,2.7172,,,,,,,,,,,,,,,,,,,,,,,
293455,2022-11-15_18h37.48.524,vts_reward_expectancy_bt,2022.2.4,MacIntel,59.99880002,Chrome,1440,900,,,,,0,621,,,,,,,,,,,,,,,,,181,D,triangle,1,1,,,3,,,,,,,,,,,,,switch,number,numSwt,f,vtsPrac,27,0,27,0,1,1.4158,,,,,,,,,,,,,,,,,,,,,,,
293455,2022-11-15_18h37.48.524,vts_reward_expectancy_bt,2022.2.4,MacIntel,59.99880002,Chrome,1440,900,,,,,0,621,,,,,,,,,,,,,,,,,132,F,triangle,0,0,,,3,,,,,,,,,,,,,switch,letter,NA,k,vtsPrac,28,0,28,0,1,0.6492,,,,,,,,,,,,,,,,,,,,,,,
293455,2022-11-15_18h37.48.524,vts_reward_expectancy_bt,2022.2.4,MacIntel,59.99880002,Chrome,1440,900,,,,,0,621,,,,,,,,,,,,,,,,,160,W,star,1,1,,,3,,,,,,,,,,,,,repeat,letter,lettRpt,k,vtsPrac,29,0,29,0,1,1.1473,,,,,,,,,,,,,,,,,,,,,,,
293455,2022-11-15_18h37.48.524,vts_reward_expectancy_bt,2022.2.4,MacIntel,59.99880002,Chrome,1440,900,,,,,0,621,,,,,,,,,,,,,,,,,174,Y,hexagon,1,0,,,3,,,,,,,,,,,,,repeat,letter,lettRpt,k,vtsPrac,30,0,30,0,1,1.7748,,,,,,,,,,,,,,,,,,,,,,,
293455,2022-11-15_18h37.48.524,vts_reward_expectancy_bt,2022.2.4,MacIntel,59.99880002,Chrome,1440,900,,,,,0,621,,,,,,,,,,,,,,,,,125,H,triangle,1,0,,,3,,,,,,,,,,,,,switch,number,numSwt,d,vtsPrac,31,0,31,0,1,2.1969,,,,,,,,,,,,,,,,,,,,,,,
293455,2022-11-15_18h37.48.524,vts_reward_expectancy_bt,2022.2.4,MacIntel,59.99880002,Chrome,1440,900,,,,,0,621,,,,,,,,,,,,,,,,,174,D,star,1,0,,,4,,,,,,,,,,,,,repeat,number,numRpt,f,vtsPrac,0,0,0,0,1,0.9794,,,,,,,,,,,,,,,,,,,,,,,
293455,2022-11-15_18h37.48.524,vts_reward_expectancy_bt,2022.2.4,MacIntel,59.99880002,Chrome,1440,900,,,,,0,621,,,,,,,,,,,,,,,,,139,S,triangle,1,0,,,4,,,,,,,,,,,,,switch,letter,lettSwt,k,vtsPrac,1,0,1,0,1,0.8635,,,,,,,,,,,,,,,,,,,,,,,
293455,2022-11-15_18h37.48.524,vts_reward_expectancy_bt,2022.2.4,MacIntel,59.99880002,Chrome,1440,900,,,,,0,621,,,,,,,,,,,,,,,,,160,B,star,1,0,,,4,,,,,,,,,,,,,repeat,letter,lettRpt,j,vtsPrac,2,0,2,0,1,1.1006,,,,,,,,,,,,,,,,,,,,,,,
293455,2022-11-15_18h37.48.524,vts_reward_expectancy_bt,2022.2.4,MacIntel,59.99880002,Chrome,1440,900,,,,,0,621,,,,,,,,,,,,,,,,,146,W,triangle,1,0,,,4,,,,,,,,,,,,,switch,number,numSwt,d,vtsPrac,3,0,3,0,1,1.2989,,,,,,,,,,,,,,,,,,,,,,,
293455,2022-11-15_18h37.48.524,vts_reward_expectancy_bt,2022.2.4,MacIntel,59.99880002,Chrome,1440,900,,,,,0,621,,,,,,,,,,,,,,,,,174,D,hexagon,1,0,,,4,,,,,,,,,,,,,repeat,number,numRpt,f,vtsPrac,4,0,4,0,1,1.9153,,,,,,,,,,,,,,,,,,,,,,,
293455,2022-11-15_18h37.48.524,vts_reward_expectancy_bt,2022.2.4,MacIntel,59.99880002,Chrome,1440,900,,,,,0,621,,,,,,,,,,,,,,,,,139,S,circle,1,0,,,4,,,,,,,,,,,,,repeat,number,numRpt,d,vtsPrac,5,0,5,0,1,1.2185,,,,,,,,,,,,,,,,,,,,,,,
293455,2022-11-15_18h37.48.524,vts_reward_expectancy_bt,2022.2.4,MacIntel,59.99880002,Chrome,1440,900,,,,,0,621,,,,,,,,,,,,,,,,,160,B,hexagon,1,0,,,4,,,,,,,,,,,,,switch,letter,lettSwt,j,vtsPrac,6,0,6,0,1,1.8644,,,,,,,,,,,,,,,,,,,,,,,
293455,2022-11-15_18h37.48.524,vts_reward_expectancy_bt,2022.2.4,MacIntel,59.99880002,Chrome,1440,900,,,,,0,621,,,,,,,,,,,,,,,,,146,W,circle,1,0,,,4,,,,,,,,,,,,,repeat,letter,lettRpt,k,vtsPrac,7,0,7,0,1,0.9468,,,,,,,,,,,,,,,,,,,,,,,
293455,2022-11-15_18h37.48.524,vts_reward_expectancy_bt,2022.2.4,MacIntel,59.99880002,Chrome,1440,900,,,,,0,621,,,,,,,,,,,,,,,,,160,B,hexagon,1,0,,,4,,,,,,,,,,,,,switch,number,numSwt,f,vtsPrac,8,0,8,0,1,0.8176,,,,,,,,,,,,,,,,,,,,,,,
293455,2022-11-15_18h37.48.524,vts_reward_expectancy_bt,2022.2.4,MacIntel,59.99880002,Chrome,1440,900,,,,,0,621,,,,,,,,,,,,,,,,,125,W,star,1,0,,,4,,,,,,,,,,,,,switch,letter,lettSwt,k,vtsPrac,9,0,9,0,1,0.8344,,,,,,,,,,,,,,,,,,,,,,,
293455,2022-11-15_18h37.48.524,vts_reward_expectancy_bt,2022.2.4,MacIntel,59.99880002,Chrome,1440,900,,,,,0,621,,,,,,,,,,,,,,,,,167,S,triangle,1,0,,,4,,,,,,,,,,,,,repeat,letter,lettRpt,k,vtsPrac,10,0,10,0,1,1.5828,,,,,,,,,,,,,,,,,,,,,,,
293455,2022-11-15_18h37.48.524,vts_reward_expectancy_bt,2022.2.4,MacIntel,59.99880002,Chrome,1440,900,,,,,0,621,,,,,,,,,,,,,,,,,132,F,star,1,0,,,4,,,,,,,,,,,,,switch,number,numSwt,d,vtsPrac,11,0,11,0,1,1.9834,,,,,,,,,,,,,,,,,,,,,,,
293455,2022-11-15_18h37.48.524,vts_reward_expectancy_bt,2022.2.4,MacIntel,59.99880002,Chrome,1440,900,,,,,0,621,,,,,,,,,,,,,,,,,139,F,star,1,0,,,4,,,,,,,,,,,,,repeat,number,numRpt,d,vtsPrac,12,0,12,0,1,0.8531,,,,,,,,,,,,,,,,,,,,,,,
293455,2022-11-15_18h37.48.524,vts_reward_expectancy_bt,2022.2.4,MacIntel,59.99880002,Chrome,1440,900,,,,,0,621,,,,,,,,,,,,,,,,,181,S,hexagon,1,0,,,4,,,,,,,,,,,,,switch,letter,lettSwt,k,vtsPrac,13,0,13,0,1,1.1968,,,,,,,,,,,,,,,,,,,,,,,
293455,2022-11-15_18h37.48.524,vts_reward_expectancy_bt,2022.2.4,MacIntel,59.99880002,Chrome,1440,900,,,,,0,621,,,,,,,,,,,,,,,,,174,W,circle,1,0,,,4,,,,,,,,,,,,,repeat,letter,lettRpt,k,vtsPrac,14,0,14,0,1,1.1823,,,,,,,,,,,,,,,,,,,,,,,
293455,2022-11-15_18h37.48.524,vts_reward_expectancy_bt,2022.2.4,MacIntel,59.99880002,Chrome,1440,900,,,,,0,621,,,,,,,,,,,,,,,,,167,U,star,1,0,,,4,,,,,,,,,,,,,switch,number,numSwt,f,vtsPrac,15,0,15,0,1,1.0645,,,,,,,,,,,,,,,,,,,,,,,
293455,2022-11-15_18h37.48.524,vts_reward_expectancy_bt,2022.2.4,MacIntel,59.99880002,Chrome,1440,900,,,,,0,621,,,,,,,,,,,,,,,,,139,D,circle,1,0,,,4,,,,,,,,,,,,,repeat,number,numRpt,d,vtsPrac,16,0,16,0,1,1.9984,,,,,,,,,,,,,,,,,,,,,,,
293455,2022-11-15_18h37.48.524,vts_reward_expectancy_bt,2022.2.4,MacIntel,59.99880002,Chrome,1440,900,,,,,0,621,,,,,,,,,,,,,,,,,132,Y,hexagon,0,0,,,4,,,,,,,,,,,,,switch,letter,NA,j,vtsPrac,17,0,17,0,1,0.9143,,,,,,,,,,,,,,,,,,,,,,,
293455,2022-11-15_18h37.48.524,vts_reward_expectancy_bt,2022.2.4,MacIntel,59.99880002,Chrome,1440,900,,,,,0,621,,,,,,,,,,,,,,,,,174,S,triangle,1,1,,,4,,,,,,,,,,,,,repeat,letter,lettRpt,k,vtsPrac,18,0,18,0,1,1.8225,,,,,,,,,,,,,,,,,,,,,,,
293455,2022-11-15_18h37.48.524,vts_reward_expectancy_bt,2022.2.4,MacIntel,59.99880002,Chrome,1440,900,,,,,0,621,,,,,,,,,,,,,,,,,181,B,star,1,0,,,4,,,,,,,,,,,,,switch,number,numSwt,f,vtsPrac,19,0,19,0,1,1.9224,,,,,,,,,,,,,,,,,,,,,,,
293455,2022-11-15_18h37.48.524,vts_reward_expectancy_bt,2022.2.4,MacIntel,59.99880002,Chrome,1440,900,,,,,0,621,,,,,,,,,,,,,,,,,139,Y,hexagon,0,0,,,4,,,,,,,,,,,,,switch,letter,NA,j,vtsPrac,20,0,20,0,1,1.8804,,,,,,,,,,,,,,,,,,,,,,,
293455,2022-11-15_18h37.48.524,vts_reward_expectancy_bt,2022.2.4,MacIntel,59.99880002,Chrome,1440,900,,,,,0,621,,,,,,,,,,,,,,,,,181,D,star,1,1,,,4,,,,,,,,,,,,,switch,number,numSwt,f,vtsPrac,21,0,21,0,1,1.2155,,,,,,,,,,,,,,,,,,,,,,,
293455,2022-11-15_18h37.48.524,vts_reward_expectancy_bt,2022.2.4,MacIntel,59.99880002,Chrome,1440,900,,,,,0,621,,,,,,,,,,,,,,,,,167,U,circle,1,0,,,4,,,,,,,,,,,,,switch,letter,lettSwt,k,vtsPrac,22,0,22,0,1,1.2871,,,,,,,,,,,,,,,,,,,,,,,
293455,2022-11-15_18h37.48.524,vts_reward_expectancy_bt,2022.2.4,MacIntel,59.99880002,Chrome,1440,900,,,,,0,621,,,,,,,,,,,,,,,,,160,S,hexagon,1,0,,,4,,,,,,,,,,,,,repeat,letter,lettRpt,k,vtsPrac,23,0,23,0,1,1.3866,,,,,,,,,,,,,,,,,,,,,,,
293455,2022-11-15_18h37.48.524,vts_reward_expectancy_bt,2022.2.4,MacIntel,59.99880002,Chrome,1440,900,,,,,0,621,,,,,,,,,,,,,,,,,139,F,hexagon,1,0,,,4,,,,,,,,,,,,,repeat,letter,lettRpt,j,vtsPrac,24,0,24,0,1,2.0461,,,,,,,,,,,,,,,,,,,,,,,
293455,2022-11-15_18h37.48.524,vts_reward_expectancy_bt,2022.2.4,MacIntel,59.99880002,Chrome,1440,900,,,,,0,621,,,,,,,,,,,,,,,,,132,U,triangle,0,0,,,4,,,,,,,,,,,,,repeat,letter,NA,j,vtsPrac,25,0,25,0,1,1.9647,,,,,,,,,,,,,,,,,,,,,,,
293455,2022-11-15_18h37.48.524,vts_reward_expectancy_bt,2022.2.4,MacIntel,59.99880002,Chrome,1440,900,,,,,0,621,,,,,,,,,,,,,,,,,125,S,triangle,1,1,,,4,,,,,,,,,,,,,repeat,letter,lettRpt,k,vtsPrac,26,0,26,0,1,1.4473,,,,,,,,,,,,,,,,,,,,,,,
293455,2022-11-15_18h37.48.524,vts_reward_expectancy_bt,2022.2.4,MacIntel,59.99880002,Chrome,1440,900,,,,,0,621,,,,,,,,,,,,,,,,,146,D,star,0,0,,,4,,,,,,,,,,,,,repeat,letter,NA,k,vtsPrac,27,0,27,0,1,1.83,,,,,,,,,,,,,,,,,,,,,,,
293455,2022-11-15_18h37.48.524,vts_reward_expectancy_bt,2022.2.4,MacIntel,59.99880002,Chrome,1440,900,,,,,0,621,,,,,,,,,,,,,,,,,181,Y,triangle,0,1,,,4,,,,,,,,,,,,,switch,number,NA,d,vtsPrac,28,0,28,0,1,1.6848,,,,,,,,,,,,,,,,,,,,,,,
293455,2022-11-15_18h37.48.524,vts_reward_expectancy_bt,2022.2.4,MacIntel,59.99880002,Chrome,1440,900,,,,,0,621,,,,,,,,,,,,,,,,,146,D,hexagon,1,1,,,4,,,,,,,,,,,,,repeat,number,numRpt,d,vtsPrac,29,0,29,0,1,2.0472,,,,,,,,,,,,,,,,,,,,,,,
293455,2022-11-15_18h37.48.524,vts_reward_expectancy_bt,2022.2.4,MacIntel,59.99880002,Chrome,1440,900,,,,,0,621,,,,,,,,,,,,,,,,,167,F,hexagon,1,0,,,4,,,,,,,,,,,,,switch,letter,lettSwt,j,vtsPrac,30,0,30,0,1,1.7131,,,,,,,,,,,,,,,,,,,,,,,
293455,2022-11-15_18h37.48.524,vts_reward_expectancy_bt,2022.2.4,MacIntel,59.99880002,Chrome,1440,900,,,,,0,621,,,,,,,,,,,,,,,,,132,H,triangle,1,0,,,4,,,,,,,,,,,,,switch,number,numSwt,d,vtsPrac,31,0,31,0,1,1.2989,,,,,,,,,,,,,,,,,,,,,,,
293455,2022-11-15_18h37.48.524,vts_reward_expectancy_bt,2022.2.4,MacIntel,59.99880002,Chrome,1440,900,,,,,,,,,,,,,,,,,,,,,,,,,,,,,,,,,,,,,,,,,,,,,,,,,,,,,,,,,,,,,,,,,,,,,,,,,,,,
293455,2022-11-15_18h37.48.524,vts_reward_expectancy_bt,2022.2.4,MacIntel,59.99880002,Chrome,1440,900,,,,,,,,,,,,,,,,,,,,,,,,,,,,,,,,,,,,,,,,,,,,,,,,,,,,,,,,,,,,,,,,,,,,,,,,,,,,
293455,2022-11-15_18h37.48.524,vts_reward_expectancy_bt,2022.2.4,MacIntel,59.99880002,Chrome,1440,900,,,,,0,621,,,,,,,,,,,,,,,,,132,B,star,1,0,,,,,,,,,,,,,,,,switch,letter,lettSwt,j,noRew,,,,,,1.3994,0,0,0,0,0,1,,,,,,,,,,,,,,,,,
293455,2022-11-15_18h37.48.524,vts_reward_expectancy_bt,2022.2.4,MacIntel,59.99880002,Chrome,1440,900,,,,,0,621,,,,,,,,,,,,,,,,,167,W,triangle,1,0,,,,,,,,,,,,,,,,switch,number,numSwt,f,noRew,,,,,,1.02,0,1,0,1,0,1,,,,,,,,,,,,,,,,,
293455,2022-11-15_18h37.48.524,vts_reward_expectancy_bt,2022.2.4,MacIntel,59.99880002,Chrome,1440,900,,,,,0,621,,,,,,,,,,,,,,,,,125,S,star,1,0,,,,,,,,,,,,,,,,repeat,number,numRpt,d,noRew,,,,,,0.8659,0,2,0,2,0,1,,,,,,,,,,,,,,,,,
293455,2022-11-15_18h37.48.524,vts_reward_expectancy_bt,2022.2.4,MacIntel,59.99880002,Chrome,1440,900,,,,,0,621,,,,,,,,,,,,,,,,,174,H,triangle,1,0,,,,,,,,,,,,,,,,repeat,number,numRpt,f,noRew,,,,,,0.682,0,3,0,3,0,1,,,,,,,,,,,,,,,,,
293455,2022-11-15_18h37.48.524,vts_reward_expectancy_bt,2022.2.4,MacIntel,59.99880002,Chrome,1440,900,,,,,0,621,,,,,,,,,,,,,,,,,132,B,star,1,0,,,,,,,,,,,,,,,,repeat,number,numRpt,d,noRew,,,,,,0.6796,0,4,0,4,0,1,,,,,,,,,,,,,,,,,
293455,2022-11-15_18h37.48.524,vts_reward_expectancy_bt,2022.2.4,MacIntel,59.99880002,Chrome,1440,900,,,,,0,621,,,,,,,,,,,,,,,,,167,W,triangle,1,0,,,,,,,,,,,,,,,,repeat,number,numRpt,f,noRew,,,,,,0.5784,0,5,0,5,0,1,,,,,,,,,,,,,,,,,
293455,2022-11-15_18h37.48.524,vts_reward_expectancy_bt,2022.2.4,MacIntel,59.99880002,Chrome,1440,900,,,,,0,621,,,,,,,,,,,,,,,,,125,S,circle,1,0,,,,,,,,,,,,,,,,repeat,number,numRpt,d,noRew,,,,,,0.6327,0,6,0,6,0,1,,,,,,,,,,,,,,,,,
293455,2022-11-15_18h37.48.524,vts_reward_expectancy_bt,2022.2.4,MacIntel,59.99880002,Chrome,1440,900,,,,,0,621,,,,,,,,,,,,,,,,,174,H,triangle,1,0,,,,,,,,,,,,,,,,repeat,number,numRpt,f,noRew,,,,,,0.6316,0,7,0,7,0,1,,,,,,,,,,,,,,,,,
293455,2022-11-15_18h37.48.524,vts_reward_expectancy_bt,2022.2.4,MacIntel,59.99880002,Chrome,1440,900,,,,,0,621,,,,,,,,,,,,,,,,,125,H,triangle,1,0,,,,,,,,,,,,,,,,repeat,number,numRpt,d,noRew,,,,,,0.8665,0,8,0,8,0,1,,,,,,,,,,,,,,,,,
293455,2022-11-15_18h37.48.524,vts_reward_expectancy_bt,2022.2.4,MacIntel,59.99880002,Chrome,1440,900,,,,,0,621,,,,,,,,,,,,,,,,,139,B,circle,1,0,,,,,,,,,,,,,,,,repeat,number,numRpt,d,noRew,,,,,,0.7225,0,9,0,9,0,1,,,,,,,,,,,,,,,,,
293455,2022-11-15_18h37.48.524,vts_reward_expectancy_bt,2022.2.4,MacIntel,59.99880002,Chrome,1440,900,,,,,0,621,,,,,,,,,,,,,,,,,181,Y,triangle,1,0,,,,,,,,,,,,,,,,repeat,number,numRpt,f,noRew,,,,,,0.6319,0,10,0,10,0,1,,,,,,,,,,,,,,,,,
293455,2022-11-15_18h37.48.524,vts_reward_expectancy_bt,2022.2.4,MacIntel,59.99880002,Chrome,1440,900,,,,,0,621,,,,,,,,,,,,,,,,,167,W,star,1,0,,,,,,,,,,,,,,,,repeat,number,numRpt,f,noRew,,,,,,0.6188,0,11,0,11,0,1,,,,,,,,,,,,,,,,,
293455,2022-11-15_18h37.48.524,vts_reward_expectancy_bt,2022.2.4,MacIntel,59.99880002,Chrome,1440,900,,,,,0,621,,,,,,,,,,,,,,,,,125,F,triangle,1,0,,,,,,,,,,,,,,,,repeat,number,numRpt,d,noRew,,,,,,0.815,0,12,0,12,0,1,,,,,,,,,,,,,,,,,
293455,2022-11-15_18h37.48.524,vts_reward_expectancy_bt,2022.2.4,MacIntel,59.99880002,Chrome,1440,900,,,,,0,621,,,,,,,,,,,,,,,,,181,H,circle,1,0,,,,,,,,,,,,,,,,repeat,number,numRpt,f,noRew,,,,,,0.5309,0,13,0,13,0,1,,,,,,,,,,,,,,,,,
293455,2022-11-15_18h37.48.524,vts_reward_expectancy_bt,2022.2.4,MacIntel,59.99880002,Chrome,1440,900,,,,,0,621,,,,,,,,,,,,,,,,,174,U,star,1,0,,,,,,,,,,,,,,,,repeat,number,numRpt,f,noRew,,,,,,0.7465,0,14,0,14,0,1,,,,,,,,,,,,,,,,,
293455,2022-11-15_18h37.48.524,vts_reward_expectancy_bt,2022.2.4,MacIntel,59.99880002,Chrome,1440,900,,,,,0,621,,,,,,,,,,,,,,,,,139,D,circle,1,0,,,,,,,,,,,,,,,,repeat,number,numRpt,d,noRew,,,,,,0.8813,0,15,0,15,0,1,,,,,,,,,,,,,,,,,
293455,2022-11-15_18h37.48.524,vts_reward_expectancy_bt,2022.2.4,MacIntel,59.99880002,Chrome,1440,900,,,,,0,621,,,,,,,,,,,,,,,,,167,U,circle,1,0,,,,,,,,,,,,,,,,repeat,number,numRpt,f,noRew,,,,,,0.564,0,16,0,16,0,1,,,,,,,,,,,,,,,,,
293455,2022-11-15_18h37.48.524,vts_reward_expectancy_bt,2022.2.4,MacIntel,59.99880002,Chrome,1440,900,,,,,0,621,,,,,,,,,,,,,,,,,125,H,triangle,1,0,,,,,,,,,,,,,,,,repeat,number,numRpt,d,noRew,,,,,,0.7053,0,17,0,17,0,1,,,,,,,,,,,,,,,,,
293455,2022-11-15_18h37.48.524,vts_reward_expectancy_bt,2022.2.4,MacIntel,59.99880002,Chrome,1440,900,,,,,0,621,,,,,,,,,,,,,,,,,139,D,circle,1,0,,,,,,,,,,,,,,,,repeat,number,numRpt,d,noRew,,,,,,1.1326,0,18,0,18,0,1,,,,,,,,,,,,,,,,,
293455,2022-11-15_18h37.48.524,vts_reward_expectancy_bt,2022.2.4,MacIntel,59.99880002,Chrome,1440,900,,,,,0,621,,,,,,,,,,,,,,,,,146,W,star,1,0,,,,,,,,,,,,,,,,repeat,number,numRpt,d,noRew,,,,,,1.0205,0,19,0,19,0,1,,,,,,,,,,,,,,,,,
293455,2022-11-15_18h37.48.524,vts_reward_expectancy_bt,2022.2.4,MacIntel,59.99880002,Chrome,1440,900,,,,,0,621,,,,,,,,,,,,,,,,,146,Y,triangle,1,0,,,,,,,,,,,,,,,,repeat,number,numRpt,d,noRew,,,,,,0.8663,0,20,0,20,0,1,,,,,,,,,,,,,,,,,
293455,2022-11-15_18h37.48.524,vts_reward_expectancy_bt,2022.2.4,MacIntel,59.99880002,Chrome,1440,900,,,,,0,621,,,,,,,,,,,,,,,,,174,F,circle,1,0,,,,,,,,,,,,,,,,repeat,number,numRpt,f,noRew,,,,,,0.9275,0,21,0,21,0,1,,,,,,,,,,,,,,,,,
293455,2022-11-15_18h37.48.524,vts_reward_expectancy_bt,2022.2.4,MacIntel,59.99880002,Chrome,1440,900,,,,,0,621,,,,,,,,,,,,,,,,,125,W,star,1,0,,,,,,,,,,,,,,,,repeat,number,numRpt,d,noRew,,,,,,2.1978,0,22,0,22,0,1,,,,,,,,,,,,,,,,,
293455,2022-11-15_18h37.48.524,vts_reward_expectancy_bt,2022.2.4,MacIntel,59.99880002,Chrome,1440,900,,,,,0,621,,,,,,,,,,,,,,,,,132,B,hexagon,1,0,,,,,,,,,,,,,,,,repeat,number,numRpt,d,noRew,,,,,,0.914,0,23,0,23,0,1,,,,,,,,,,,,,,,,,
293455,2022-11-15_18h37.48.524,vts_reward_expectancy_bt,2022.2.4,MacIntel,59.99880002,Chrome,1440,900,,,,,0,621,,,,,,,,,,,,,,,,,132,B,hexagon,1,0,,,,,,,,,,,,,,,,repeat,number,numRpt,d,noRew,,,,,,0.7327,0,24,0,24,0,1,,,,,,,,,,,,,,,,,
293455,2022-11-15_18h37.48.524,vts_reward_expectancy_bt,2022.2.4,MacIntel,59.99880002,Chrome,1440,900,,,,,0,621,,,,,,,,,,,,,,,,,167,U,circle,1,0,,,,,,,,,,,,,,,,repeat,number,numRpt,f,noRew,,,,,,0.897,0,25,0,25,0,1,,,,,,,,,,,,,,,,,
293455,2022-11-15_18h37.48.524,vts_reward_expectancy_bt,2022.2.4,MacIntel,59.99880002,Chrome,1440,900,,,,,0,621,,,,,,,,,,,,,,,,,139,S,triangle,1,0,,,,,,,,,,,,,,,,repeat,number,numRpt,d,noRew,,,,,,0.796,0,26,0,26,0,1,,,,,,,,,,,,,,,,,
293455,2022-11-15_18h37.48.524,vts_reward_expectancy_bt,2022.2.4,MacIntel,59.99880002,Chrome,1440,900,,,,,0,621,,,,,,,,,,,,,,,,,146,D,hexagon,1,0,,,,,,,,,,,,,,,,repeat,number,numRpt,d,noRew,,,,,,0.9509,0,27,0,27,0,1,,,,,,,,,,,,,,,,,
293455,2022-11-15_18h37.48.524,vts_reward_expectancy_bt,2022.2.4,MacIntel,59.99880002,Chrome,1440,900,,,,,0,621,,,,,,,,,,,,,,,,,181,H,triangle,1,0,,,,,,,,,,,,,,,,repeat,number,numRpt,f,noRew,,,,,,0.6634,0,28,0,28,0,1,,,,,,,,,,,,,,,,,
293455,2022-11-15_18h37.48.524,vts_reward_expectancy_bt,2022.2.4,MacIntel,59.99880002,Chrome,1440,900,,,,,0,621,,,,,,,,,,,,,,,,,146,W,circle,1,0,,,,,,,,,,,,,,,,repeat,number,numRpt,d,noRew,,,,,,0.7335,0,29,0,29,0,1,,,,,,,,,,,,,,,,,
293455,2022-11-15_18h37.48.524,vts_reward_expectancy_bt,2022.2.4,MacIntel,59.99880002,Chrome,1440,900,,,,,0,621,,,,,,,,,,,,,,,,,139,F,triangle,1,0,,,,,,,,,,,,,,,,repeat,number,numRpt,d,noRew,,,,,,0.9478,0,30,0,30,0,1,,,,,,,,,,,,,,,,,
293455,2022-11-15_18h37.48.524,vts_reward_expectancy_bt,2022.2.4,MacIntel,59.99880002,Chrome,1440,900,,,,,0,621,,,,,,,,,,,,,,,,,167,U,circle,1,0,,,,,,,,,,,,,,,,repeat,number,numRpt,f,noRew,,,,,,0.5807,0,31,0,31,0,1,,,,,,,,,,,,,,,,,
293455,2022-11-15_18h37.48.524,vts_reward_expectancy_bt,2022.2.4,MacIntel,59.99880002,Chrome,1440,900,,,,,0,621,,,,,,,,,,,,,,,,,167,H,triangle,1,0,,,,,,,,,,,,,,,,repeat,number,numRpt,f,noRew,,,,,,1.4814,0,32,0,32,0,1,,,,,,,,,,,,,,,,,
293455,2022-11-15_18h37.48.524,vts_reward_expectancy_bt,2022.2.4,MacIntel,59.99880002,Chrome,1440,900,,,,,0,621,,,,,,,,,,,,,,,,,181,B,circle,1,0,,,,,,,,,,,,,,,,repeat,number,numRpt,f,noRew,,,,,,0.6162,0,33,0,33,0,1,,,,,,,,,,,,,,,,,
293455,2022-11-15_18h37.48.524,vts_reward_expectancy_bt,2022.2.4,MacIntel,59.99880002,Chrome,1440,900,,,,,0,621,,,,,,,,,,,,,,,,,160,D,circle,1,0,,,,,,,,,,,,,,,,repeat,number,numRpt,f,noRew,,,,,,0.7977,0,34,0,34,0,1,,,,,,,,,,,,,,,,,
293455,2022-11-15_18h37.48.524,vts_reward_expectancy_bt,2022.2.4,MacIntel,59.99880002,Chrome,1440,900,,,,,0,621,,,,,,,,,,,,,,,,,174,Y,triangle,1,0,,,,,,,,,,,,,,,,repeat,number,numRpt,f,noRew,,,,,,0.597,0,35,0,35,0,1,,,,,,,,,,,,,,,,,
293455,2022-11-15_18h37.48.524,vts_reward_expectancy_bt,2022.2.4,MacIntel,59.99880002,Chrome,1440,900,,,,,0,621,,,,,,,,,,,,,,,,,132,U,hexagon,1,0,,,,,,,,,,,,,,,,repeat,number,numRpt,d,noRew,,,,,,0.9982,0,36,0,36,0,1,,,,,,,,,,,,,,,,,
293455,2022-11-15_18h37.48.524,vts_reward_expectancy_bt,2022.2.4,MacIntel,59.99880002,Chrome,1440,900,,,,,0,621,,,,,,,,,,,,,,,,,174,D,triangle,1,0,,,,,,,,,,,,,,,,repeat,number,numRpt,f,noRew,,,,,,0.8017,0,37,0,37,0,1,,,,,,,,,,,,,,,,,
293455,2022-11-15_18h37.48.524,vts_reward_expectancy_bt,2022.2.4,MacIntel,59.99880002,Chrome,1440,900,,,,,0,621,,,,,,,,,,,,,,,,,160,H,triangle,1,0,,,,,,,,,,,,,,,,repeat,number,numRpt,f,noRew,,,,,,1.7315,0,38,0,38,0,1,,,,,,,,,,,,,,,,,
293455,2022-11-15_18h37.48.524,vts_reward_expectancy_bt,2022.2.4,MacIntel,59.99880002,Chrome,1440,900,,,,,0,621,,,,,,,,,,,,,,,,,139,S,star,1,0,,,,,,,,,,,,,,,,repeat,number,numRpt,d,noRew,,,,,,0.8809,0,39,0,39,0,1,,,,,,,,,,,,,,,,,
293455,2022-11-15_18h37.48.524,vts_reward_expectancy_bt,2022.2.4,MacIntel,59.99880002,Chrome,1440,900,,,,,0,621,,,,,,,,,,,,,,,,,139,F,circle,1,0,,,,,,,,,,,,,,,,repeat,number,numRpt,d,noRew,,,,,,0.7685,0,40,0,40,0,1,,,,,,,,,,,,,,,,,
293455,2022-11-15_18h37.48.524,vts_reward_expectancy_bt,2022.2.4,MacIntel,59.99880002,Chrome,1440,900,,,,,0,621,,,,,,,,,,,,,,,,,125,D,hexagon,1,0,,,,,,,,,,,,,,,,repeat,number,numRpt,d,noRew,,,,,,0.7144,0,41,0,41,0,1,,,,,,,,,,,,,,,,,
293455,2022-11-15_18h37.48.524,vts_reward_expectancy_bt,2022.2.4,MacIntel,59.99880002,Chrome,1440,900,,,,,0,621,,,,,,,,,,,,,,,,,132,W,hexagon,1,0,,,,,,,,,,,,,,,,repeat,number,numRpt,d,noRew,,,,,,0.8142,0,42,0,42,0,1,,,,,,,,,,,,,,,,,
293455,2022-11-15_18h37.48.524,vts_reward_expectancy_bt,2022.2.4,MacIntel,59.99880002,Chrome,1440,900,,,,,0,621,,,,,,,,,,,,,,,,,174,B,circle,1,0,,,,,,,,,,,,,,,,repeat,number,numRpt,f,noRew,,,,,,0.9173,0,43,0,43,0,1,,,,,,,,,,,,,,,,,
293455,2022-11-15_18h37.48.524,vts_reward_expectancy_bt,2022.2.4,MacIntel,59.99880002,Chrome,1440,900,,,,,0,621,,,,,,,,,,,,,,,,,139,D,triangle,1,0,,,,,,,,,,,,,,,,repeat,number,numRpt,d,noRew,,,,,,0.6471,0,44,0,44,0,1,,,,,,,,,,,,,,,,,
293455,2022-11-15_18h37.48.524,vts_reward_expectancy_bt,2022.2.4,MacIntel,59.99880002,Chrome,1440,900,,,,,0,621,,,,,,,,,,,,,,,,,181,F,circle,1,0,,,,,,,,,,,,,,,,repeat,number,numRpt,f,noRew,,,,,,0.6235,0,45,0,45,0,1,,,,,,,,,,,,,,,,,
293455,2022-11-15_18h37.48.524,vts_reward_expectancy_bt,2022.2.4,MacIntel,59.99880002,Chrome,1440,900,,,,,0,621,,,,,,,,,,,,,,,,,146,S,star,1,0,,,,,,,,,,,,,,,,repeat,number,numRpt,d,noRew,,,,,,0.8386,0,46,0,46,0,1,,,,,,,,,,,,,,,,,
293455,2022-11-15_18h37.48.524,vts_reward_expectancy_bt,2022.2.4,MacIntel,59.99880002,Chrome,1440,900,,,,,0,621,,,,,,,,,,,,,,,,,160,U,circle,1,0,,,,,,,,,,,,,,,,repeat,number,numRpt,f,noRew,,,,,,0.7645,0,47,0,47,0,1,,,,,,,,,,,,,,,,,
293455,2022-11-15_18h37.48.524,vts_reward_expectancy_bt,2022.2.4,MacIntel,59.99880002,Chrome,1440,900,,,,,0,621,,,,,,,,,,,,,,,,,139,B,circle,1,0,,,,,,,,,,,,,,,,repeat,number,numRpt,d,noRew,,,,,,0.8145,0,48,0,48,0,1,,,,,,,,,,,,,,,,,
293455,2022-11-15_18h37.48.524,vts_reward_expectancy_bt,2022.2.4,MacIntel,59.99880002,Chrome,1440,900,,,,,0,621,,,,,,,,,,,,,,,,,132,S,star,1,0,,,,,,,,,,,,,,,,repeat,number,numRpt,d,noRew,,,,,,0.6316,0,49,0,49,0,1,,,,,,,,,,,,,,,,,
293455,2022-11-15_18h37.48.524,vts_reward_expectancy_bt,2022.2.4,MacIntel,59.99880002,Chrome,1440,900,,,,,0,621,,,,,,,,,,,,,,,,,174,W,circle,1,0,,,,,,,,,,,,,,,,repeat,number,numRpt,f,noRew,,,,,,1.281,0,50,0,50,0,1,,,,,,,,,,,,,,,,,
293455,2022-11-15_18h37.48.524,vts_reward_expectancy_bt,2022.2.4,MacIntel,59.99880002,Chrome,1440,900,,,,,0,621,,,,,,,,,,,,,,,,,146,Y,hexagon,1,0,,,,,,,,,,,,,,,,repeat,number,numRpt,d,noRew,,,,,,1.0139,0,51,0,51,0,1,,,,,,,,,,,,,,,,,
293455,2022-11-15_18h37.48.524,vts_reward_expectancy_bt,2022.2.4,MacIntel,59.99880002,Chrome,1440,900,,,,,0,621,,,,,,,,,,,,,,,,,174,B,circle,1,0,,,,,,,,,,,,,,,,repeat,number,numRpt,f,noRew,,,,,,0.847,0,52,0,52,0,1,,,,,,,,,,,,,,,,,
293455,2022-11-15_18h37.48.524,vts_reward_expectancy_bt,2022.2.4,MacIntel,59.99880002,Chrome,1440,900,,,,,0,621,,,,,,,,,,,,,,,,,146,Y,hexagon,1,0,,,,,,,,,,,,,,,,repeat,number,numRpt,d,noRew,,,,,,0.7018,0,53,0,53,0,1,,,,,,,,,,,,,,,,,
293455,2022-11-15_18h37.48.524,vts_reward_expectancy_bt,2022.2.4,MacIntel,59.99880002,Chrome,1440,900,,,,,0,621,,,,,,,,,,,,,,,,,181,H,star,1,0,,,,,,,,,,,,,,,,repeat,number,numRpt,f,noRew,,,,,,0.9806,0,54,0,54,0,1,,,,,,,,,,,,,,,,,
293455,2022-11-15_18h37.48.524,vts_reward_expectancy_bt,2022.2.4,MacIntel,59.99880002,Chrome,1440,900,,,,,0,621,,,,,,,,,,,,,,,,,160,F,triangle,1,0,,,,,,,,,,,,,,,,repeat,number,numRpt,f,noRew,,,,,,0.884,0,55,0,55,0,1,,,,,,,,,,,,,,,,,
293455,2022-11-15_18h37.48.524,vts_reward_expectancy_bt,2022.2.4,MacIntel,59.99880002,Chrome,1440,900,,,,,0,621,,,,,,,,,,,,,,,,,174,W,star,1,0,,,,,,,,,,,,,,,,repeat,number,numRpt,f,noRew,,,,,,1.2312,0,56,0,56,0,1,,,,,,,,,,,,,,,,,
293455,2022-11-15_18h37.48.524,vts_reward_expectancy_bt,2022.2.4,MacIntel,59.99880002,Chrome,1440,900,,,,,0,621,,,,,,,,,,,,,,,,,160,U,triangle,1,0,,,,,,,,,,,,,,,,repeat,number,numRpt,f,noRew,,,,,,0.6999,0,57,0,57,0,1,,,,,,,,,,,,,,,,,
293455,2022-11-15_18h37.48.524,vts_reward_expectancy_bt,2022.2.4,MacIntel,59.99880002,Chrome,1440,900,,,,,0,621,,,,,,,,,,,,,,,,,167,D,star,1,0,,,,,,,,,,,,,,,,repeat,number,numRpt,f,noRew,,,,,,0.6469,0,58,0,58,0,1,,,,,,,,,,,,,,,,,
293455,2022-11-15_18h37.48.524,vts_reward_expectancy_bt,2022.2.4,MacIntel,59.99880002,Chrome,1440,900,,,,,0,621,,,,,,,,,,,,,,,,,181,S,triangle,1,0,,,,,,,,,,,,,,,,repeat,number,numRpt,f,noRew,,,,,,0.532,0,59,0,59,0,1,,,,,,,,,,,,,,,,,
293455,2022-11-15_18h37.48.524,vts_reward_expectancy_bt,2022.2.4,MacIntel,59.99880002,Chrome,1440,900,,,,,0,621,,,,,,,,,,,,,,,,,181,F,hexagon,1,0,,,,,,,,,,,,,,,,repeat,number,numRpt,f,noRew,,,,,,0.7709,0,60,0,60,0,1,,,,,,,,,,,,,,,,,
293455,2022-11-15_18h37.48.524,vts_reward_expectancy_bt,2022.2.4,MacIntel,59.99880002,Chrome,1440,900,,,,,0,621,,,,,,,,,,,,,,,,,174,S,circle,1,0,,,,,,,,,,,,,,,,repeat,number,numRpt,f,noRew,,,,,,0.6827,0,61,0,61,0,1,,,,,,,,,,,,,,,,,
293455,2022-11-15_18h37.48.524,vts_reward_expectancy_bt,2022.2.4,MacIntel,59.99880002,Chrome,1440,900,,,,,0,621,,,,,,,,,,,,,,,,,125,Y,star,1,0,,,,,,,,,,,,,,,,repeat,number,numRpt,d,noRew,,,,,,0.5997,0,62,0,62,0,1,,,,,,,,,,,,,,,,,
293455,2022-11-15_18h37.48.524,vts_reward_expectancy_bt,2022.2.4,MacIntel,59.99880002,Chrome,1440,900,,,,,0,621,,,,,,,,,,,,,,,,,146,U,circle,1,0,,,,,,,,,,,,,,,,repeat,number,numRpt,d,noRew,,,,,,1.3515,0,63,0,63,0,1,,,,,,,,,,,,,,,,,
293455,2022-11-15_18h37.48.524,vts_reward_expectancy_bt,2022.2.4,MacIntel,59.99880002,Chrome,1440,900,,,,,,,,,,,,,,,,,,,,,,,,,,,,,,,,,,,,,,,,,,,,,,,,,,,,,,,,,,,,,,,,,,,,,,,,,,,,
293455,2022-11-15_18h37.48.524,vts_reward_expectancy_bt,2022.2.4,MacIntel,59.99880002,Chrome,1440,900,,,,,0,621,,,,,,,,,,,,,,,,,139,W,star,1,0,,,,,,,,,,,,,,,,repeat,number,numRpt,d,Hi,,,,,,1.7319,0,,,,,,space,8.9699,high,0,0,0,0,1,,,,,,,,,
293455,2022-11-15_18h37.48.524,vts_reward_expectancy_bt,2022.2.4,MacIntel,59.99880002,Chrome,1440,900,,,,,1,622,,,,,,,,,,,,,,,,,167,B,circle,1,0,,,,,,,,,,,,,,,,repeat,number,numRpt,f,Lo,,,,,,0.7138,0,,,,,,,,high,1,0,1,0,1,,,,,,,,,
293455,2022-11-15_18h37.48.524,vts_reward_expectancy_bt,2022.2.4,MacIntel,59.99880002,Chrome,1440,900,,,,,10,632,,,,,,,,,,,,,,,,,174,F,triangle,1,0,,,,,,,,,,,,,,,,repeat,number,numRpt,f,Lo,,,,,,1.2847,0,,,,,,,,high,2,0,2,0,1,,,,,,,,,
293455,2022-11-15_18h37.48.524,vts_reward_expectancy_bt,2022.2.4,MacIntel,59.99880002,Chrome,1440,900,,,,,1,633,,,,,,,,,,,,,,,,,181,S,hexagon,1,0,,,,,,,,,,,,,,,,switch,letter,lettSwt,k,Hi,,,,,,0.7193,0,,,,,,,,high,3,0,3,0,1,,,,,,,,,
293455,2022-11-15_18h37.48.524,vts_reward_expectancy_bt,2022.2.4,MacIntel,59.99880002,Chrome,1440,900,,,,,10,643,,,,,,,,,,,,,,,,,160,Y,star,1,0,,,,,,,,,,,,,,,,switch,number,numSwt,f,Hi,,,,,,0.5035,0,,,,,,,,high,4,0,4,0,1,,,,,,,,,
293455,2022-11-15_18h37.48.524,vts_reward_expectancy_bt,2022.2.4,MacIntel,59.99880002,Chrome,1440,900,,,,,0,643,,,,,,,,,,,,,,,,,132,D,circle,0,0,,,,,,,,,,,,,,,,repeat,number,NA,f,Hi,,,,,,0.4625,0,,,,,,,,high,5,0,5,0,1,,,,,,,,,
293455,2022-11-15_18h37.48.524,vts_reward_expectancy_bt,2022.2.4,MacIntel,59.99880002,Chrome,1440,900,,,,,1,644,,,,,,,,,,,,,,,,,125,U,triangle,1,1,,,,,,,,,,,,,,,,repeat,number,numRpt,d,Lo,,,,,,0.6472,0,,,,,,,,high,6,0,6,0,1,,,,,,,,,
293455,2022-11-15_18h37.48.524,vts_reward_expectancy_bt,2022.2.4,MacIntel,59.99880002,Chrome,1440,900,,,,,1,645,,,,,,,,,,,,,,,,,146,H,hexagon,1,0,,,,,,,,,,,,,,,,switch,letter,lettSwt,j,Hi,,,,,,0.801,0,,,,,,,,high,7,0,7,0,1,,,,,,,,,
293455,2022-11-15_18h37.48.524,vts_reward_expectancy_bt,2022.2.4,MacIntel,59.99880002,Chrome,1440,900,,,,,10,655,,,,,,,,,,,,,,,,,139,W,circle,1,0,,,,,,,,,,,,,,,,switch,number,numSwt,d,Lo,,,,,,0.7144,0,,,,,,,,high,8,0,8,0,1,,,,,,,,,
293455,2022-11-15_18h37.48.524,vts_reward_expectancy_bt,2022.2.4,MacIntel,59.99880002,Chrome,1440,900,,,,,0,655,,,,,,,,,,,,,,,,,167,B,star,1,0,,,,,,,,,,,,,,,,repeat,number,numRpt,f,Hi,,,,,,0.8477,0,,,,,,,,high,9,0,9,0,1,,,,,,,,,
293455,2022-11-15_18h37.48.524,vts_reward_expectancy_bt,2022.2.4,MacIntel,59.99880002,Chrome,1440,900,,,,,10,665,,,,,,,,,,,,,,,,,174,F,hexagon,1,0,,,,,,,,,,,,,,,,repeat,number,numRpt,f,Hi,,,,,,0.5976,0,,,,,,,,high,10,0,10,0,1,,,,,,,,,
293455,2022-11-15_18h37.48.524,vts_reward_expectancy_bt,2022.2.4,MacIntel,59.99880002,Chrome,1440,900,,,,,10,675,,,,,,,,,,,,,,,,,181,S,triangle,1,0,,,,,,,,,,,,,,,,repeat,number,numRpt,f,Lo,,,,,,0.4971,0,,,,,,,,high,11,0,11,0,1,,,,,,,,,
293455,2022-11-15_18h37.48.524,vts_reward_expectancy_bt,2022.2.4,MacIntel,59.99880002,Chrome,1440,900,,,,,0,675,,,,,,,,,,,,,,,,,160,Y,star,1,0,,,,,,,,,,,,,,,,repeat,number,numRpt,f,Hi,,,,,,0.8846,0,,,,,,,,high,12,0,12,0,1,,,,,,,,,
293455,2022-11-15_18h37.48.524,vts_reward_expectancy_bt,2022.2.4,MacIntel,59.99880002,Chrome,1440,900,,,,,10,685,,,,,,,,,,,,,,,,,132,D,circle,1,0,,,,,,,,,,,,,,,,repeat,number,numRpt,d,Lo,,,,,,0.431,0,,,,,,,,high,13,0,13,0,1,,,,,,,,,
293455,2022-11-15_18h37.48.524,vts_reward_expectancy_bt,2022.2.4,MacIntel,59.99880002,Chrome,1440,900,,,,,0,685,,,,,,,,,,,,,,,,,125,U,triangle,0,0,,,,,,,,,,,,,,,,repeat,number,NA,f,Lo,,,,,,0.4208,0,,,,,,,,high,14,0,14,0,1,,,,,,,,,
293455,2022-11-15_18h37.48.524,vts_reward_expectancy_bt,2022.2.4,MacIntel,59.99880002,Chrome,1440,900,,,,,10,695,,,,,,,,,,,,,,,,,146,H,hexagon,1,1,,,,,,,,,,,,,,,,repeat,number,numRpt,d,Hi,,,,,,0.6553,0,,,,,,,,high,15,0,15,0,1,,,,,,,,,
293455,2022-11-15_18h37.48.524,vts_reward_expectancy_bt,2022.2.4,MacIntel,59.99880002,Chrome,1440,900,,,,,10,705,,,,,,,,,,,,,,,,,160,H,hexagon,1,0,,,,,,,,,,,,,,,,repeat,number,numRpt,f,Hi,,,,,,0.6335,0,,,,,,,,high,16,0,16,0,1,,,,,,,,,
293455,2022-11-15_18h37.48.524,vts_reward_expectancy_bt,2022.2.4,MacIntel,59.99880002,Chrome,1440,900,,,,,1,706,,,,,,,,,,,,,,,,,181,Y,triangle,1,0,,,,,,,,,,,,,,,,repeat,number,numRpt,f,Lo,,,,,,0.5316,0,,,,,,,,high,17,0,17,0,1,,,,,,,,,
293455,2022-11-15_18h37.48.524,vts_reward_expectancy_bt,2022.2.4,MacIntel,59.99880002,Chrome,1440,900,,,,,10,716,,,,,,,,,,,,,,,,,174,U,star,1,0,,,,,,,,,,,,,,,,repeat,number,numRpt,f,Hi,,,,,,0.6684,0,,,,,,,,high,18,0,18,0,1,,,,,,,,,
293455,2022-11-15_18h37.48.524,vts_reward_expectancy_bt,2022.2.4,MacIntel,59.99880002,Chrome,1440,900,,,,,10,726,,,,,,,,,,,,,,,,,167,F,circle,1,0,,,,,,,,,,,,,,,,repeat,number,numRpt,f,Lo,,,,,,1.3959,0,,,,,,,,high,19,0,19,0,1,,,,,,,,,
293455,2022-11-15_18h37.48.524,vts_reward_expectancy_bt,2022.2.4,MacIntel,59.99880002,Chrome,1440,900,,,,,10,736,,,,,,,,,,,,,,,,,132,S,hexagon,1,0,,,,,,,,,,,,,,,,repeat,number,numRpt,d,Hi,,,,,,0.6482,0,,,,,,,,high,20,0,20,0,1,,,,,,,,,
293455,2022-11-15_18h37.48.524,vts_reward_expectancy_bt,2022.2.4,MacIntel,59.99880002,Chrome,1440,900,,,,,0,736,,,,,,,,,,,,,,,,,146,W,star,1,0,,,,,,,,,,,,,,,,repeat,number,numRpt,d,Hi,,,,,,0.7823,0,,,,,,,,high,21,0,21,0,1,,,,,,,,,
293455,2022-11-15_18h37.48.524,vts_reward_expectancy_bt,2022.2.4,MacIntel,59.99880002,Chrome,1440,900,,,,,1,737,,,,,,,,,,,,,,,,,139,D,triangle,1,0,,,,,,,,,,,,,,,,repeat,number,numRpt,d,Lo,,,,,,0.7158,0,,,,,,,,high,22,0,22,0,1,,,,,,,,,
293455,2022-11-15_18h37.48.524,vts_reward_expectancy_bt,2022.2.4,MacIntel,59.99880002,Chrome,1440,900,,,,,1,738,,,,,,,,,,,,,,,,,125,B,circle,1,0,,,,,,,,,,,,,,,,repeat,number,numRpt,d,Lo,,,,,,0.4966,0,,,,,,,,high,23,0,23,0,1,,,,,,,,,
293455,2022-11-15_18h37.48.524,vts_reward_expectancy_bt,2022.2.4,MacIntel,59.99880002,Chrome,1440,900,,,,,1,739,,,,,,,,,,,,,,,,,181,S,circle,1,0,,,,,,,,,,,,,,,,repeat,number,numRpt,f,Lo,,,,,,0.8012,0,,,,,,,,high,24,0,24,0,1,,,,,,,,,
293455,2022-11-15_18h37.48.524,vts_reward_expectancy_bt,2022.2.4,MacIntel,59.99880002,Chrome,1440,900,,,,,10,749,,,,,,,,,,,,,,,,,160,B,star,1,0,,,,,,,,,,,,,,,,switch,letter,lettSwt,j,Hi,,,,,,0.7121,0,,,,,,,,high,25,0,25,0,1,,,,,,,,,
293455,2022-11-15_18h37.48.524,vts_reward_expectancy_bt,2022.2.4,MacIntel,59.99880002,Chrome,1440,900,,,,,1,750,,,,,,,,,,,,,,,,,167,F,triangle,1,0,,,,,,,,,,,,,,,,repeat,letter,lettRpt,j,Lo,,,,,,1.0128,0,,,,,,,,high,26,0,26,0,1,,,,,,,,,
293455,2022-11-15_18h37.48.524,vts_reward_expectancy_bt,2022.2.4,MacIntel,59.99880002,Chrome,1440,900,,,,,1,751,,,,,,,,,,,,,,,,,139,U,hexagon,1,0,,,,,,,,,,,,,,,,switch,number,numSwt,d,Hi,,,,,,0.605,0,,,,,,,,high,27,0,27,0,1,,,,,,,,,
293455,2022-11-15_18h37.48.524,vts_reward_expectancy_bt,2022.2.4,MacIntel,59.99880002,Chrome,1440,900,,,,,0,751,,,,,,,,,,,,,,,,,132,Y,circle,0,0,,,,,,,,,,,,,,,,repeat,number,NA,f,Hi,,,,,,0.751,0,,,,,,,,high,28,0,28,0,1,,,,,,,,,
293455,2022-11-15_18h37.48.524,vts_reward_expectancy_bt,2022.2.4,MacIntel,59.99880002,Chrome,1440,900,,,,,0,751,,,,,,,,,,,,,,,,,174,W,hexagon,1,1,,,,,,,,,,,,,,,,repeat,number,numRpt,f,Hi,,,,,,0.7003,0,,,,,,,,high,29,0,29,0,1,,,,,,,,,
293455,2022-11-15_18h37.48.524,vts_reward_expectancy_bt,2022.2.4,MacIntel,59.99880002,Chrome,1440,900,,,,,10,761,,,,,,,,,,,,,,,,,125,D,star,1,0,,,,,,,,,,,,,,,,repeat,number,numRpt,d,Hi,,,,,,0.4806,0,,,,,,,,high,30,0,30,0,1,,,,,,,,,
293455,2022-11-15_18h37.48.524,vts_reward_expectancy_bt,2022.2.4,MacIntel,59.99880002,Chrome,1440,900,,,,,1,762,,,,,,,,,,,,,,,,,146,H,triangle,1,0,,,,,,,,,,,,,,,,repeat,number,numRpt,d,Lo,,,,,,0.6521,0,,,,,,,,high,31,0,31,0,1,,,,,,,,,
293455,2022-11-15_18h37.48.524,vts_reward_expectancy_bt,2022.2.4,MacIntel,59.99880002,Chrome,1440,900,,,,,10,772,,,,,,,,,,,,,,,,,125,H,circle,1,0,,,,,,,,,,,,,,,,repeat,number,numRpt,d,Lo,,,,,,0.6887,1,,,,,,space,8.705,high,0,0,0,0,1,,,,,,,,,
293455,2022-11-15_18h37.48.524,vts_reward_expectancy_bt,2022.2.4,MacIntel,59.99880002,Chrome,1440,900,,,,,10,782,,,,,,,,,,,,,,,,,167,S,hexagon,1,0,,,,,,,,,,,,,,,,repeat,number,numRpt,f,Hi,,,,,,0.4816,1,,,,,,,,high,1,0,1,0,1,,,,,,,,,
293455,2022-11-15_18h37.48.524,vts_reward_expectancy_bt,2022.2.4,MacIntel,59.99880002,Chrome,1440,900,,,,,10,792,,,,,,,,,,,,,,,,,174,B,star,1,0,,,,,,,,,,,,,,,,repeat,number,numRpt,f,Hi,,,,,,0.4816,1,,,,,,,,high,2,0,2,0,1,,,,,,,,,
293455,2022-11-15_18h37.48.524,vts_reward_expectancy_bt,2022.2.4,MacIntel,59.99880002,Chrome,1440,900,,,,,1,793,,,,,,,,,,,,,,,,,181,U,triangle,1,0,,,,,,,,,,,,,,,,repeat,number,numRpt,f,Lo,,,,,,0.5491,1,,,,,,,,high,3,0,3,0,1,,,,,,,,,
293455,2022-11-15_18h37.48.524,vts_reward_expectancy_bt,2022.2.4,MacIntel,59.99880002,Chrome,1440,900,,,,,1,794,,,,,,,,,,,,,,,,,146,F,circle,1,0,,,,,,,,,,,,,,,,repeat,number,numRpt,d,Lo,,,,,,0.8134,1,,,,,,,,high,4,0,4,0,1,,,,,,,,,
293455,2022-11-15_18h37.48.524,vts_reward_expectancy_bt,2022.2.4,MacIntel,59.99880002,Chrome,1440,900,,,,,10,804,,,,,,,,,,,,,,,,,160,D,hexagon,1,0,,,,,,,,,,,,,,,,repeat,number,numRpt,f,Hi,,,,,,0.6029,1,,,,,,,,high,5,0,5,0,1,,,,,,,,,
293455,2022-11-15_18h37.48.524,vts_reward_expectancy_bt,2022.2.4,MacIntel,59.99880002,Chrome,1440,900,,,,,10,814,,,,,,,,,,,,,,,,,132,Y,star,1,0,,,,,,,,,,,,,,,,repeat,number,numRpt,d,Hi,,,,,,0.6137,1,,,,,,,,high,6,0,6,0,1,,,,,,,,,
293455,2022-11-15_18h37.48.524,vts_reward_expectancy_bt,2022.2.4,MacIntel,59.99880002,Chrome,1440,900,,,,,10,824,,,,,,,,,,,,,,,,,139,W,triangle,1,0,,,,,,,,,,,,,,,,repeat,number,numRpt,d,Lo,,,,,,1.0151,1,,,,,,,,high,7,0,7,0,1,,,,,,,,,
293455,2022-11-15_18h37.48.524,vts_reward_expectancy_bt,2022.2.4,MacIntel,59.99880002,Chrome,1440,900,,,,,1,825,,,,,,,,,,,,,,,,,125,H,triangle,1,0,,,,,,,,,,,,,,,,repeat,number,numRpt,d,Lo,,,,,,0.6486,1,,,,,,,,high,8,0,8,0,1,,,,,,,,,
293455,2022-11-15_18h37.48.524,vts_reward_expectancy_bt,2022.2.4,MacIntel,59.99880002,Chrome,1440,900,,,,,10,835,,,,,,,,,,,,,,,,,167,S,star,1,0,,,,,,,,,,,,,,,,repeat,number,numRpt,f,Hi,,,,,,0.5647,1,,,,,,,,high,9,0,9,0,1,,,,,,,,,
293455,2022-11-15_18h37.48.524,vts_reward_expectancy_bt,2022.2.4,MacIntel,59.99880002,Chrome,1440,900,,,,,10,845,,,,,,,,,,,,,,,,,174,B,circle,1,0,,,,,,,,,,,,,,,,repeat,number,numRpt,f,Lo,,,,,,0.8307,1,,,,,,,,high,10,0,10,0,1,,,,,,,,,
293455,2022-11-15_18h37.48.524,vts_reward_expectancy_bt,2022.2.4,MacIntel,59.99880002,Chrome,1440,900,,,,,10,855,,,,,,,,,,,,,,,,,181,U,hexagon,1,0,,,,,,,,,,,,,,,,repeat,number,numRpt,f,Hi,,,,,,0.55,1,,,,,,,,high,11,0,11,0,1,,,,,,,,,
293455,2022-11-15_18h37.48.524,vts_reward_expectancy_bt,2022.2.4,MacIntel,59.99880002,Chrome,1440,900,,,,,0,855,,,,,,,,,,,,,,,,,146,F,hexagon,1,0,,,,,,,,,,,,,,,,repeat,number,numRpt,d,Hi,,,,,,0.6702,1,,,,,,,,high,12,0,12,0,1,,,,,,,,,
293455,2022-11-15_18h37.48.524,vts_reward_expectancy_bt,2022.2.4,MacIntel,59.99880002,Chrome,1440,900,,,,,10,865,,,,,,,,,,,,,,,,,160,D,triangle,1,0,,,,,,,,,,,,,,,,repeat,number,numRpt,f,Lo,,,,,,0.4838,1,,,,,,,,high,13,0,13,0,1,,,,,,,,,
293455,2022-11-15_18h37.48.524,vts_reward_expectancy_bt,2022.2.4,MacIntel,59.99880002,Chrome,1440,900,,,,,1,866,,,,,,,,,,,,,,,,,132,Y,circle,1,0,,,,,,,,,,,,,,,,repeat,number,numRpt,d,Lo,,,,,,0.5181,1,,,,,,,,high,14,0,14,0,1,,,,,,,,,
293455,2022-11-15_18h37.48.524,vts_reward_expectancy_bt,2022.2.4,MacIntel,59.99880002,Chrome,1440,900,,,,,0,866,,,,,,,,,,,,,,,,,139,W,star,0,0,,,,,,,,,,,,,,,,repeat,number,NA,f,Lo,,,,,,0.6302,1,,,,,,,,high,15,0,15,0,1,,,,,,,,,
293455,2022-11-15_18h37.48.524,vts_reward_expectancy_bt,2022.2.4,MacIntel,59.99880002,Chrome,1440,900,,,,,1,867,,,,,,,,,,,,,,,,,181,D,triangle,1,1,,,,,,,,,,,,,,,,repeat,number,numRpt,f,Lo,,,,,,0.4975,1,,,,,,,,high,16,0,16,0,1,,,,,,,,,
293455,2022-11-15_18h37.48.524,vts_reward_expectancy_bt,2022.2.4,MacIntel,59.99880002,Chrome,1440,900,,,,,1,868,,,,,,,,,,,,,,,,,125,W,circle,1,0,,,,,,,,,,,,,,,,repeat,number,numRpt,d,Lo,,,,,,0.8476,1,,,,,,,,high,17,0,17,0,1,,,,,,,,,
293455,2022-11-15_18h37.48.524,vts_reward_expectancy_bt,2022.2.4,MacIntel,59.99880002,Chrome,1440,900,,,,,0,868,,,,,,,,,,,,,,,,,139,U,hexagon,0,0,,,,,,,,,,,,,,,,repeat,number,NA,f,Lo,,,,,,0.6305,1,,,,,,,,high,18,0,18,0,1,,,,,,,,,
293455,2022-11-15_18h37.48.524,vts_reward_expectancy_bt,2022.2.4,MacIntel,59.99880002,Chrome,1440,900,,,,,0,868,,,,,,,,,,,,,,,,,132,Y,star,1,1,,,,,,,,,,,,,,,,repeat,number,numRpt,d,Hi,,,,,,1.1654,1,,,,,,,,high,19,0,19,0,1,,,,,,,,,
293455,2022-11-15_18h37.48.524,vts_reward_expectancy_bt,2022.2.4,MacIntel,59.99880002,Chrome,1440,900,,,,,1,869,,,,,,,,,,,,,,,,,167,H,circle,1,0,,,,,,,,,,,,,,,,repeat,number,numRpt,f,Lo,,,,,,0.5144,1,,,,,,,,high,20,0,20,0,1,,,,,,,,,
293455,2022-11-15_18h37.48.524,vts_reward_expectancy_bt,2022.2.4,MacIntel,59.99880002,Chrome,1440,900,,,,,10,879,,,,,,,,,,,,,,,,,174,F,triangle,1,0,,,,,,,,,,,,,,,,repeat,number,numRpt,f,Lo,,,,,,0.5158,1,,,,,,,,high,21,0,21,0,1,,,,,,,,,
293455,2022-11-15_18h37.48.524,vts_reward_expectancy_bt,2022.2.4,MacIntel,59.99880002,Chrome,1440,900,,,,,0,879,,,,,,,,,,,,,,,,,160,S,hexagon,1,0,,,,,,,,,,,,,,,,repeat,number,numRpt,f,Hi,,,,,,0.7168,1,,,,,,,,high,22,0,22,0,1,,,,,,,,,
293455,2022-11-15_18h37.48.524,vts_reward_expectancy_bt,2022.2.4,MacIntel,59.99880002,Chrome,1440,900,,,,,10,889,,,,,,,,,,,,,,,,,146,B,star,1,0,,,,,,,,,,,,,,,,repeat,number,numRpt,d,Hi,,,,,,0.6159,1,,,,,,,,high,23,0,23,0,1,,,,,,,,,
293455,2022-11-15_18h37.48.524,vts_reward_expectancy_bt,2022.2.4,MacIntel,59.99880002,Chrome,1440,900,,,,,10,899,,,,,,,,,,,,,,,,,174,B,star,1,0,,,,,,,,,,,,,,,,repeat,number,numRpt,f,Hi,,,,,,0.517,1,,,,,,,,high,24,0,24,0,1,,,,,,,,,
293455,2022-11-15_18h37.48.524,vts_reward_expectancy_bt,2022.2.4,MacIntel,59.99880002,Chrome,1440,900,,,,,0,899,,,,,,,,,,,,,,,,,181,H,hexagon,1,0,,,,,,,,,,,,,,,,repeat,number,numRpt,f,Hi,,,,,,0.9658,1,,,,,,,,high,25,0,25,0,1,,,,,,,,,
293455,2022-11-15_18h37.48.524,vts_reward_expectancy_bt,2022.2.4,MacIntel,59.99880002,Chrome,1440,900,,,,,1,900,,,,,,,,,,,,,,,,,125,U,circle,1,0,,,,,,,,,,,,,,,,repeat,number,numRpt,d,Lo,,,,,,0.5645,1,,,,,,,,high,26,0,26,0,1,,,,,,,,,
293455,2022-11-15_18h37.48.524,vts_reward_expectancy_bt,2022.2.4,MacIntel,59.99880002,Chrome,1440,900,,,,,1,901,,,,,,,,,,,,,,,,,160,W,triangle,1,0,,,,,,,,,,,,,,,,repeat,number,numRpt,f,Lo,,,,,,0.5864,1,,,,,,,,high,27,0,27,0,1,,,,,,,,,
293455,2022-11-15_18h37.48.524,vts_reward_expectancy_bt,2022.2.4,MacIntel,59.99880002,Chrome,1440,900,,,,,1,902,,,,,,,,,,,,,,,,,167,F,circle,1,0,,,,,,,,,,,,,,,,repeat,number,numRpt,f,Lo,,,,,,0.6149,1,,,,,,,,high,28,0,28,0,1,,,,,,,,,
293455,2022-11-15_18h37.48.524,vts_reward_expectancy_bt,2022.2.4,MacIntel,59.99880002,Chrome,1440,900,,,,,1,903,,,,,,,,,,,,,,,,,132,Y,triangle,1,0,,,,,,,,,,,,,,,,repeat,number,numRpt,d,Lo,,,,,,0.7798,1,,,,,,,,high,29,0,29,0,1,,,,,,,,,
293455,2022-11-15_18h37.48.524,vts_reward_expectancy_bt,2022.2.4,MacIntel,59.99880002,Chrome,1440,900,,,,,0,903,,,,,,,,,,,,,,,,,146,S,star,1,0,,,,,,,,,,,,,,,,repeat,number,numRpt,d,Hi,,,,,,0.9473,1,,,,,,,,high,30,0,30,0,1,,,,,,,,,
293455,2022-11-15_18h37.48.524,vts_reward_expectancy_bt,2022.2.4,MacIntel,59.99880002,Chrome,1440,900,,,,,1,904,,,,,,,,,,,,,,,,,139,D,hexagon,1,0,,,,,,,,,,,,,,,,repeat,number,numRpt,d,Hi,,,,,,0.5314,1,,,,,,,,high,31,0,31,0,1,,,,,,,,,
293455,2022-11-15_18h37.48.524,vts_reward_expectancy_bt,2022.2.4,MacIntel,59.99880002,Chrome,1440,900,,,,,1,905,,,,,,,,,,,,,,,,,139,W,star,1,0,,,,,,,,,,,,,,,,repeat,number,numRpt,d,Hi,,,,,,0.4697,2,,,,,,space,1.278,high,0,0,0,0,1,,,,,,,,,
293455,2022-11-15_18h37.48.524,vts_reward_expectancy_bt,2022.2.4,MacIntel,59.99880002,Chrome,1440,900,,,,,1,906,,,,,,,,,,,,,,,,,146,U,triangle,1,0,,,,,,,,,,,,,,,,repeat,number,numRpt,d,Lo,,,,,,0.7304,2,,,,,,,,high,1,0,1,0,1,,,,,,,,,
293455,2022-11-15_18h37.48.524,vts_reward_expectancy_bt,2022.2.4,MacIntel,59.99880002,Chrome,1440,900,,,,,1,907,,,,,,,,,,,,,,,,,160,Y,circle,1,0,,,,,,,,,,,,,,,,repeat,number,numRpt,f,Lo,,,,,,0.5476,2,,,,,,,,high,2,0,2,0,1,,,,,,,,,
293455,2022-11-15_18h37.48.524,vts_reward_expectancy_bt,2022.2.4,MacIntel,59.99880002,Chrome,1440,900,,,,,10,917,,,,,,,,,,,,,,,,,174,S,hexagon,1,0,,,,,,,,,,,,,,,,repeat,number,numRpt,f,Hi,,,,,,0.481,2,,,,,,,,high,3,0,3,0,1,,,,,,,,,
293455,2022-11-15_18h37.48.524,vts_reward_expectancy_bt,2022.2.4,MacIntel,59.99880002,Chrome,1440,900,,,,,10,927,,,,,,,,,,,,,,,,,125,D,star,1,0,,,,,,,,,,,,,,,,repeat,number,numRpt,d,Hi,,,,,,0.5484,2,,,,,,,,high,4,0,4,0,1,,,,,,,,,
293455,2022-11-15_18h37.48.524,vts_reward_expectancy_bt,2022.2.4,MacIntel,59.99880002,Chrome,1440,900,,,,,1,928,,,,,,,,,,,,,,,,,167,B,triangle,1,0,,,,,,,,,,,,,,,,repeat,number,numRpt,f,Lo,,,,,,0.8809,2,,,,,,,,high,5,0,5,0,1,,,,,,,,,
293455,2022-11-15_18h37.48.524,vts_reward_expectancy_bt,2022.2.4,MacIntel,59.99880002,Chrome,1440,900,,,,,1,929,,,,,,,,,,,,,,,,,181,H,circle,1,0,,,,,,,,,,,,,,,,repeat,number,numRpt,f,Lo,,,,,,0.6696,2,,,,,,,,high,6,0,6,0,1,,,,,,,,,
293455,2022-11-15_18h37.48.524,vts_reward_expectancy_bt,2022.2.4,MacIntel,59.99880002,Chrome,1440,900,,,,,0,929,,,,,,,,,,,,,,,,,132,F,hexagon,1,0,,,,,,,,,,,,,,,,repeat,number,numRpt,d,Hi,,,,,,0.5973,2,,,,,,,,high,7,0,7,0,1,,,,,,,,,
293455,2022-11-15_18h37.48.524,vts_reward_expectancy_bt,2022.2.4,MacIntel,59.99880002,Chrome,1440,900,,,,,0,929,,,,,,,,,,,,,,,,,139,W,hexagon,1,0,,,,,,,,,,,,,,,,repeat,number,numRpt,d,Hi,,,,,,0.5646,2,,,,,,,,high,8,0,8,0,1,,,,,,,,,
293455,2022-11-15_18h37.48.524,vts_reward_expectancy_bt,2022.2.4,MacIntel,59.99880002,Chrome,1440,900,,,,,1,930,,,,,,,,,,,,,,,,,146,U,circle,1,0,,,,,,,,,,,,,,,,repeat,number,numRpt,d,Lo,,,,,,1.03,2,,,,,,,,high,9,0,9,0,1,,,,,,,,,
293455,2022-11-15_18h37.48.524,vts_reward_expectancy_bt,2022.2.4,MacIntel,59.99880002,Chrome,1440,900,,,,,1,931,,,,,,,,,,,,,,,,,160,Y,triangle,1,0,,,,,,,,,,,,,,,,repeat,number,numRpt,f,Lo,,,,,,0.5129,2,,,,,,,,high,10,0,10,0,1,,,,,,,,,
293455,2022-11-15_18h37.48.524,vts_reward_expectancy_bt,2022.2.4,MacIntel,59.99880002,Chrome,1440,900,,,,,0,931,,,,,,,,,,,,,,,,,174,S,star,1,0,,,,,,,,,,,,,,,,repeat,number,numRpt,f,Hi,,,,,,0.7457,2,,,,,,,,high,11,0,11,0,1,,,,,,,,,
293455,2022-11-15_18h37.48.524,vts_reward_expectancy_bt,2022.2.4,MacIntel,59.99880002,Chrome,1440,900,,,,,0,931,,,,,,,,,,,,,,,,,125,D,star,1,0,,,,,,,,,,,,,,,,repeat,number,numRpt,d,Hi,,,,,,0.7469,2,,,,,,,,high,12,0,12,0,1,,,,,,,,,
293455,2022-11-15_18h37.48.524,vts_reward_expectancy_bt,2022.2.4,MacIntel,59.99880002,Chrome,1440,900,,,,,0,931,,,,,,,,,,,,,,,,,167,B,hexagon,1,0,,,,,,,,,,,,,,,,repeat,number,numRpt,f,Hi,,,,,,0.6741,2,,,,,,,,high,13,0,13,0,1,,,,,,,,,
293455,2022-11-15_18h37.48.524,vts_reward_expectancy_bt,2022.2.4,MacIntel,59.99880002,Chrome,1440,900,,,,,1,932,,,,,,,,,,,,,,,,,181,H,circle,1,0,,,,,,,,,,,,,,,,repeat,number,numRpt,f,Lo,,,,,,0.4643,2,,,,,,,,high,14,0,14,0,1,,,,,,,,,
293455,2022-11-15_18h37.48.524,vts_reward_expectancy_bt,2022.2.4,MacIntel,59.99880002,Chrome,1440,900,,,,,1,933,,,,,,,,,,,,,,,,,132,F,triangle,1,0,,,,,,,,,,,,,,,,repeat,number,numRpt,d,Lo,,,,,,0.515,2,,,,,,,,high,15,0,15,0,1,,,,,,,,,
293455,2022-11-15_18h37.48.524,vts_reward_expectancy_bt,2022.2.4,MacIntel,59.99880002,Chrome,1440,900,,,,,1,934,,,,,,,,,,,,,,,,,174,W,triangle,1,0,,,,,,,,,,,,,,,,repeat,number,numRpt,f,Lo,,,,,,0.5475,2,,,,,,,,high,16,0,16,0,1,,,,,,,,,
293455,2022-11-15_18h37.48.524,vts_reward_expectancy_bt,2022.2.4,MacIntel,59.99880002,Chrome,1440,900,,,,,0,934,,,,,,,,,,,,,,,,,167,U,hexagon,1,0,,,,,,,,,,,,,,,,repeat,number,numRpt,f,Hi,,,,,,0.6631,2,,,,,,,,high,17,0,17,0,1,,,,,,,,,
293455,2022-11-15_18h37.48.524,vts_reward_expectancy_bt,2022.2.4,MacIntel,59.99880002,Chrome,1440,900,,,,,0,934,,,,,,,,,,,,,,,,,132,Y,star,1,0,,,,,,,,,,,,,,,,repeat,number,numRpt,d,Hi,,,,,,0.5808,2,,,,,,,,high,18,0,18,0,1,,,,,,,,,
293455,2022-11-15_18h37.48.524,vts_reward_expectancy_bt,2022.2.4,MacIntel,59.99880002,Chrome,1440,900,,,,,1,935,,,,,,,,,,,,,,,,,160,H,circle,1,0,,,,,,,,,,,,,,,,repeat,number,numRpt,f,Lo,,,,,,0.4474,2,,,,,,,,high,19,0,19,0,1,,,,,,,,,
293455,2022-11-15_18h37.48.524,vts_reward_expectancy_bt,2022.2.4,MacIntel,59.99880002,Chrome,1440,900,,,,,10,945,,,,,,,,,,,,,,,,,181,D,circle,1,0,,,,,,,,,,,,,,,,repeat,number,numRpt,f,Lo,,,,,,0.5145,2,,,,,,,,high,20,0,20,0,1,,,,,,,,,
293455,2022-11-15_18h37.48.524,vts_reward_expectancy_bt,2022.2.4,MacIntel,59.99880002,Chrome,1440,900,,,,,0,945,,,,,,,,,,,,,,,,,125,S,triangle,0,0,,,,,,,,,,,,,,,,repeat,number,NA,f,Lo,,,,,,0.4663,2,,,,,,,,high,21,0,21,0,1,,,,,,,,,
293455,2022-11-15_18h37.48.524,vts_reward_expectancy_bt,2022.2.4,MacIntel,59.99880002,Chrome,1440,900,,,,,0,945,,,,,,,,,,,,,,,,,146,B,hexagon,1,1,,,,,,,,,,,,,,,,repeat,number,numRpt,d,Hi,,,,,,0.7891,2,,,,,,,,high,22,0,22,0,1,,,,,,,,,
293455,2022-11-15_18h37.48.524,vts_reward_expectancy_bt,2022.2.4,MacIntel,59.99880002,Chrome,1440,900,,,,,10,955,,,,,,,,,,,,,,,,,139,F,star,1,0,,,,,,,,,,,,,,,,repeat,number,numRpt,d,Hi,,,,,,0.4986,2,,,,,,,,high,23,0,23,0,1,,,,,,,,,
293455,2022-11-15_18h37.48.524,vts_reward_expectancy_bt,2022.2.4,MacIntel,59.99880002,Chrome,1440,900,,,,,1,956,,,,,,,,,,,,,,,,,139,B,triangle,1,0,,,,,,,,,,,,,,,,repeat,number,numRpt,d,Lo,,,,,,0.6843,2,,,,,,,,high,24,0,24,0,1,,,,,,,,,
293455,2022-11-15_18h37.48.524,vts_reward_expectancy_bt,2022.2.4,MacIntel,59.99880002,Chrome,1440,900,,,,,0,956,,,,,,,,,,,,,,,,,167,S,hexagon,1,0,,,,,,,,,,,,,,,,repeat,number,numRpt,f,Hi,,,,,,1.635,2,,,,,,,,high,25,0,25,0,1,,,,,,,,,
293455,2022-11-15_18h37.48.524,vts_reward_expectancy_bt,2022.2.4,MacIntel,59.99880002,Chrome,1440,900,,,,,0,956,,,,,,,,,,,,,,,,,146,Y,star,1,0,,,,,,,,,,,,,,,,repeat,number,numRpt,d,Hi,,,,,,0.5699,2,,,,,,,,high,26,0,26,0,1,,,,,,,,,
293455,2022-11-15_18h37.48.524,vts_reward_expectancy_bt,2022.2.4,MacIntel,59.99880002,Chrome,1440,900,,,,,1,957,,,,,,,,,,,,,,,,,125,W,circle,1,0,,,,,,,,,,,,,,,,repeat,number,numRpt,d,Lo,,,,,,0.6484,2,,,,,,,,high,27,0,27,0,1,,,,,,,,,
293455,2022-11-15_18h37.48.524,vts_reward_expectancy_bt,2022.2.4,MacIntel,59.99880002,Chrome,1440,900,,,,,10,967,,,,,,,,,,,,,,,,,174,U,hexagon,1,0,,,,,,,,,,,,,,,,repeat,number,numRpt,f,Hi,,,,,,0.548,2,,,,,,,,high,28,0,28,0,1,,,,,,,,,
293455,2022-11-15_18h37.48.524,vts_reward_expectancy_bt,2022.2.4,MacIntel,59.99880002,Chrome,1440,900,,,,,0,967,,,,,,,,,,,,,,,,,160,D,star,0,0,,,,,,,,,,,,,,,,repeat,number,NA,d,Hi,,,,,,1.5578,2,,,,,,,,high,29,0,29,0,1,,,,,,,,,
293455,2022-11-15_18h37.48.524,vts_reward_expectancy_bt,2022.2.4,MacIntel,59.99880002,Chrome,1440,900,,,,,1,968,,,,,,,,,,,,,,,,,132,F,triangle,1,1,,,,,,,,,,,,,,,,repeat,number,numRpt,d,Lo,,,,,,1.0027,2,,,,,,,,high,30,0,30,0,1,,,,,,,,,
293455,2022-11-15_18h37.48.524,vts_reward_expectancy_bt,2022.2.4,MacIntel,59.99880002,Chrome,1440,900,,,,,1,969,,,,,,,,,,,,,,,,,181,H,circle,1,0,,,,,,,,,,,,,,,,repeat,number,numRpt,f,Lo,,,,,,0.5515,2,,,,,,,,high,31,0,31,0,1,,,,,,,,,
293455,2022-11-15_18h37.48.524,vts_reward_expectancy_bt,2022.2.4,MacIntel,59.99880002,Chrome,1440,900,,,,,10,979,,,,,,,,,,,,,,,,,174,B,triangle,1,0,,,,,,,,,,,,,,,,repeat,number,numRpt,f,Lo,,,,,,0.4881,3,,,,,,space,0.6357,high,0,0,0,0,1,,,,,,,,,
293455,2022-11-15_18h37.48.524,vts_reward_expectancy_bt,2022.2.4,MacIntel,59.99880002,Chrome,1440,900,,,,,10,989,,,,,,,,,,,,,,,,,181,U,star,1,0,,,,,,,,,,,,,,,,repeat,number,numRpt,f,Hi,,,,,,0.4479,3,,,,,,,,high,1,0,1,0,1,,,,,,,,,
293455,2022-11-15_18h37.48.524,vts_reward_expectancy_bt,2022.2.4,MacIntel,59.99880002,Chrome,1440,900,,,,,10,999,,,,,,,,,,,,,,,,,139,Y,hexagon,1,0,,,,,,,,,,,,,,,,repeat,number,numRpt,d,Hi,,,,,,0.5221,3,,,,,,,,high,2,0,2,0,1,,,,,,,,,
293455,2022-11-15_18h37.48.524,vts_reward_expectancy_bt,2022.2.4,MacIntel,59.99880002,Chrome,1440,900,,,,,1,1000,,,,,,,,,,,,,,,,,167,S,circle,1,0,,,,,,,,,,,,,,,,repeat,number,numRpt,f,Lo,,,,,,0.4168,3,,,,,,,,high,3,0,3,0,1,,,,,,,,,
293455,2022-11-15_18h37.48.524,vts_reward_expectancy_bt,2022.2.4,MacIntel,59.99880002,Chrome,1440,900,,,,,1,1001,,,,,,,,,,,,,,,,,146,W,triangle,1,0,,,,,,,,,,,,,,,,repeat,number,numRpt,d,Lo,,,,,,0.4476,3,,,,,,,,high,4,0,4,0,1,,,,,,,,,
293455,2022-11-15_18h37.48.524,vts_reward_expectancy_bt,2022.2.4,MacIntel,59.99880002,Chrome,1440,900,,,,,0,1001,,,,,,,,,,,,,,,,,132,H,star,1,0,,,,,,,,,,,,,,,,repeat,number,numRpt,d,Hi,,,,,,0.6313,3,,,,,,,,high,5,0,5,0,1,,,,,,,,,
293455,2022-11-15_18h37.48.524,vts_reward_expectancy_bt,2022.2.4,MacIntel,59.99880002,Chrome,1440,900,,,,,0,1001,,,,,,,,,,,,,,,,,125,D,hexagon,1,0,,,,,,,,,,,,,,,,repeat,number,numRpt,d,Hi,,,,,,0.6637,3,,,,,,,,high,6,0,6,0,1,,,,,,,,,
293455,2022-11-15_18h37.48.524,vts_reward_expectancy_bt,2022.2.4,MacIntel,59.99880002,Chrome,1440,900,,,,,1,1002,,,,,,,,,,,,,,,,,160,F,circle,1,0,,,,,,,,,,,,,,,,repeat,number,numRpt,f,Lo,,,,,,0.4317,3,,,,,,,,high,7,0,7,0,1,,,,,,,,,
293455,2022-11-15_18h37.48.524,vts_reward_expectancy_bt,2022.2.4,MacIntel,59.99880002,Chrome,1440,900,,,,,1,1003,,,,,,,,,,,,,,,,,174,B,triangle,1,0,,,,,,,,,,,,,,,,repeat,number,numRpt,f,Lo,,,,,,0.5312,3,,,,,,,,high,8,0,8,0,1,,,,,,,,,
293455,2022-11-15_18h37.48.524,vts_reward_expectancy_bt,2022.2.4,MacIntel,59.99880002,Chrome,1440,900,,,,,1,1004,,,,,,,,,,,,,,,,,181,U,circle,1,0,,,,,,,,,,,,,,,,repeat,number,numRpt,f,Lo,,,,,,0.5391,3,,,,,,,,high,9,0,9,0,1,,,,,,,,,
293455,2022-11-15_18h37.48.524,vts_reward_expectancy_bt,2022.2.4,MacIntel,59.99880002,Chrome,1440,900,,,,,0,1004,,,,,,,,,,,,,,,,,139,Y,star,1,0,,,,,,,,,,,,,,,,repeat,number,numRpt,d,Hi,,,,,,0.669,3,,,,,,,,high,10,0,10,0,1,,,,,,,,,
293455,2022-11-15_18h37.48.524,vts_reward_expectancy_bt,2022.2.4,MacIntel,59.99880002,Chrome,1440,900,,,,,10,1014,,,,,,,,,,,,,,,,,167,S,hexagon,1,0,,,,,,,,,,,,,,,,repeat,number,numRpt,f,Hi,,,,,,0.5346,3,,,,,,,,high,11,0,11,0,1,,,,,,,,,
293455,2022-11-15_18h37.48.524,vts_reward_expectancy_bt,2022.2.4,MacIntel,59.99880002,Chrome,1440,900,,,,,10,1024,,,,,,,,,,,,,,,,,146,W,circle,1,0,,,,,,,,,,,,,,,,repeat,number,numRpt,d,Lo,,,,,,0.8498,3,,,,,,,,high,12,0,12,0,1,,,,,,,,,
293455,2022-11-15_18h37.48.524,vts_reward_expectancy_bt,2022.2.4,MacIntel,59.99880002,Chrome,1440,900,,,,,0,1024,,,,,,,,,,,,,,,,,132,H,hexagon,1,0,,,,,,,,,,,,,,,,repeat,number,numRpt,d,Hi,,,,,,0.5989,3,,,,,,,,high,13,0,13,0,1,,,,,,,,,
293455,2022-11-15_18h37.48.524,vts_reward_expectancy_bt,2022.2.4,MacIntel,59.99880002,Chrome,1440,900,,,,,0,1024,,,,,,,,,,,,,,,,,125,D,star,1,0,,,,,,,,,,,,,,,,repeat,number,numRpt,d,Hi,,,,,,0.5532,3,,,,,,,,high,14,0,14,0,1,,,,,,,,,
293455,2022-11-15_18h37.48.524,vts_reward_expectancy_bt,2022.2.4,MacIntel,59.99880002,Chrome,1440,900,,,,,0,1024,,,,,,,,,,,,,,,,,160,F,triangle,0,0,,,,,,,,,,,,,,,,repeat,number,NA,d,Hi,,,,,,0.4381,3,,,,,,,,high,15,0,15,0,1,,,,,,,,,
293455,2022-11-15_18h37.48.524,vts_reward_expectancy_bt,2022.2.4,MacIntel,59.99880002,Chrome,1440,900,,,,,0,1024,,,,,,,,,,,,,,,,,139,H,star,1,1,,,,,,,,,,,,,,,,repeat,number,numRpt,d,Hi,,,,,,1.4466,3,,,,,,,,high,16,0,16,0,1,,,,,,,,,
293455,2022-11-15_18h37.48.524,vts_reward_expectancy_bt,2022.2.4,MacIntel,59.99880002,Chrome,1440,900,,,,,1,1025,,,,,,,,,,,,,,,,,132,Y,triangle,1,0,,,,,,,,,,,,,,,,repeat,number,numRpt,d,Lo,,,,,,0.5492,3,,,,,,,,high,17,0,17,0,1,,,,,,,,,
293455,2022-11-15_18h37.48.524,vts_reward_expectancy_bt,2022.2.4,MacIntel,59.99880002,Chrome,1440,900,,,,,10,1035,,,,,,,,,,,,,,,,,167,W,hexagon,1,0,,,,,,,,,,,,,,,,repeat,number,numRpt,f,Hi,,,,,,0.5166,3,,,,,,,,high,18,0,18,0,1,,,,,,,,,
293455,2022-11-15_18h37.48.524,vts_reward_expectancy_bt,2022.2.4,MacIntel,59.99880002,Chrome,1440,900,,,,,10,1045,,,,,,,,,,,,,,,,,146,F,circle,1,0,,,,,,,,,,,,,,,,repeat,number,numRpt,d,Lo,,,,,,0.531,3,,,,,,,,high,19,0,19,0,1,,,,,,,,,
293455,2022-11-15_18h37.48.524,vts_reward_expectancy_bt,2022.2.4,MacIntel,59.99880002,Chrome,1440,900,,,,,10,1055,,,,,,,,,,,,,,,,,181,B,hexagon,1,0,,,,,,,,,,,,,,,,repeat,number,numRpt,f,Hi,,,,,,0.4833,3,,,,,,,,high,20,0,20,0,1,,,,,,,,,
293455,2022-11-15_18h37.48.524,vts_reward_expectancy_bt,2022.2.4,MacIntel,59.99880002,Chrome,1440,900,,,,,0,1055,,,,,,,,,,,,,,,,,125,U,star,1,0,,,,,,,,,,,,,,,,repeat,number,numRpt,d,Hi,,,,,,0.5951,3,,,,,,,,high,21,0,21,0,1,,,,,,,,,
293455,2022-11-15_18h37.48.524,vts_reward_expectancy_bt,2022.2.4,MacIntel,59.99880002,Chrome,1440,900,,,,,1,1056,,,,,,,,,,,,,,,,,160,D,triangle,1,0,,,,,,,,,,,,,,,,repeat,number,numRpt,f,Lo,,,,,,0.4038,3,,,,,,,,high,22,0,22,0,1,,,,,,,,,
293455,2022-11-15_18h37.48.524,vts_reward_expectancy_bt,2022.2.4,MacIntel,59.99880002,Chrome,1440,900,,,,,10,1066,,,,,,,,,,,,,,,,,174,S,circle,1,0,,,,,,,,,,,,,,,,repeat,number,numRpt,f,Lo,,,,,,0.4805,3,,,,,,,,high,23,0,23,0,1,,,,,,,,,
293455,2022-11-15_18h37.48.524,vts_reward_expectancy_bt,2022.2.4,MacIntel,59.99880002,Chrome,1440,900,,,,,0,1066,,,,,,,,,,,,,,,,,132,D,star,1,0,,,,,,,,,,,,,,,,repeat,number,numRpt,d,Hi,,,,,,0.5976,3,,,,,,,,high,24,0,24,0,1,,,,,,,,,
293455,2022-11-15_18h37.48.524,vts_reward_expectancy_bt,2022.2.4,MacIntel,59.99880002,Chrome,1440,900,,,,,1,1067,,,,,,,,,,,,,,,,,125,S,triangle,1,0,,,,,,,,,,,,,,,,repeat,number,numRpt,d,Lo,,,,,,0.5813,3,,,,,,,,high,25,0,25,0,1,,,,,,,,,
293455,2022-11-15_18h37.48.524,vts_reward_expectancy_bt,2022.2.4,MacIntel,59.99880002,Chrome,1440,900,,,,,1,1068,,,,,,,,,,,,,,,,,160,H,circle,1,0,,,,,,,,,,,,,,,,repeat,number,numRpt,f,Lo,,,,,,0.6055,3,,,,,,,,high,26,0,26,0,1,,,,,,,,,
293455,2022-11-15_18h37.48.524,vts_reward_expectancy_bt,2022.2.4,MacIntel,59.99880002,Chrome,1440,900,,,,,0,1068,,,,,,,,,,,,,,,,,146,F,hexagon,1,0,,,,,,,,,,,,,,,,repeat,number,numRpt,d,Hi,,,,,,0.7026,3,,,,,,,,high,27,0,27,0,1,,,,,,,,,
293455,2022-11-15_18h37.48.524,vts_reward_expectancy_bt,2022.2.4,MacIntel,59.99880002,Chrome,1440,900,,,,,1,1069,,,,,,,,,,,,,,,,,167,W,circle,1,0,,,,,,,,,,,,,,,,repeat,number,numRpt,f,Lo,,,,,,0.4631,3,,,,,,,,high,28,0,28,0,1,,,,,,,,,
293455,2022-11-15_18h37.48.524,vts_reward_expectancy_bt,2022.2.4,MacIntel,59.99880002,Chrome,1440,900,,,,,0,1069,,,,,,,,,,,,,,,,,174,Y,star,1,0,,,,,,,,,,,,,,,,repeat,number,numRpt,f,Hi,,,,,,0.7035,3,,,,,,,,high,29,0,29,0,1,,,,,,,,,
293455,2022-11-15_18h37.48.524,vts_reward_expectancy_bt,2022.2.4,MacIntel,59.99880002,Chrome,1440,900,,,,,1,1070,,,,,,,,,,,,,,,,,139,B,triangle,1,0,,,,,,,,,,,,,,,,repeat,number,numRpt,d,Lo,,,,,,0.3811,3,,,,,,,,high,30,0,30,0,1,,,,,,,,,
293455,2022-11-15_18h37.48.524,vts_reward_expectancy_bt,2022.2.4,MacIntel,59.99880002,Chrome,1440,900,,,,,10,1080,,,,,,,,,,,,,,,,,181,U,hexagon,1,0,,,,,,,,,,,,,,,,repeat,number,numRpt,f,Hi,,,,,,0.5315,3,,,,,,,,high,31,0,31,0,1,,,,,,,,,
293455,2022-11-15_18h37.48.524,vts_reward_expectancy_bt,2022.2.4,MacIntel,59.99880002,Chrome,1440,900,,,,,1,1081,,,,,,,,,,,,,,,,,160,U,circle,1,0,,,,,,,,,,,,,,,,repeat,number,numRpt,f,Lo,,,,,,0.4219,4,,,,,,space,0.5898,high,0,0,0,0,1,,,,,,,,,
293455,2022-11-15_18h37.48.524,vts_reward_expectancy_bt,2022.2.4,MacIntel,59.99880002,Chrome,1440,900,,,,,0,1081,,,,,,,,,,,,,,,,,132,S,hexagon,0,0,,,,,,,,,,,,,,,,repeat,number,NA,f,Lo,,,,,,0.4464,4,,,,,,,,high,1,0,1,0,1,,,,,,,,,
293455,2022-11-15_18h37.48.524,vts_reward_expectancy_bt,2022.2.4,MacIntel,59.99880002,Chrome,1440,900,,,,,0,1081,,,,,,,,,,,,,,,,,125,F,star,1,1,,,,,,,,,,,,,,,,repeat,number,numRpt,d,Hi,,,,,,0.5368,4,,,,,,,,high,2,0,2,0,1,,,,,,,,,
293455,2022-11-15_18h37.48.524,vts_reward_expectancy_bt,2022.2.4,MacIntel,59.99880002,Chrome,1440,900,,,,,1,1082,,,,,,,,,,,,,,,,,139,D,triangle,1,0,,,,,,,,,,,,,,,,repeat,number,numRpt,d,Lo,,,,,,0.6475,4,,,,,,,,high,3,0,3,0,1,,,,,,,,,
293455,2022-11-15_18h37.48.524,vts_reward_expectancy_bt,2022.2.4,MacIntel,59.99880002,Chrome,1440,900,,,,,1,1083,,,,,,,,,,,,,,,,,181,W,circle,1,0,,,,,,,,,,,,,,,,repeat,number,numRpt,f,Lo,,,,,,0.6143,4,,,,,,,,high,4,0,4,0,1,,,,,,,,,
293455,2022-11-15_18h37.48.524,vts_reward_expectancy_bt,2022.2.4,MacIntel,59.99880002,Chrome,1440,900,,,,,0,1083,,,,,,,,,,,,,,,,,146,Y,hexagon,1,0,,,,,,,,,,,,,,,,repeat,number,numRpt,d,Hi,,,,,,0.7152,4,,,,,,,,high,5,0,5,0,1,,,,,,,,,
293455,2022-11-15_18h37.48.524,vts_reward_expectancy_bt,2022.2.4,MacIntel,59.99880002,Chrome,1440,900,,,,,0,1083,,,,,,,,,,,,,,,,,167,H,star,1,0,,,,,,,,,,,,,,,,repeat,number,numRpt,f,Hi,,,,,,0.616,4,,,,,,,,high,6,0,6,0,1,,,,,,,,,
293455,2022-11-15_18h37.48.524,vts_reward_expectancy_bt,2022.2.4,MacIntel,59.99880002,Chrome,1440,900,,,,,1,1084,,,,,,,,,,,,,,,,,174,B,triangle,1,0,,,,,,,,,,,,,,,,repeat,number,numRpt,f,Lo,,,,,,0.4978,4,,,,,,,,high,7,0,7,0,1,,,,,,,,,
293455,2022-11-15_18h37.48.524,vts_reward_expectancy_bt,2022.2.4,MacIntel,59.99880002,Chrome,1440,900,,,,,0,1084,,,,,,,,,,,,,,,,,160,U,star,0,0,,,,,,,,,,,,,,,,repeat,number,NA,d,Lo,,,,,,0.4016,4,,,,,,,,high,8,0,8,0,1,,,,,,,,,
293455,2022-11-15_18h37.48.524,vts_reward_expectancy_bt,2022.2.4,MacIntel,59.99880002,Chrome,1440,900,,,,,1,1085,,,,,,,,,,,,,,,,,132,S,triangle,1,1,,,,,,,,,,,,,,,,repeat,number,numRpt,d,Lo,,,,,,0.5805,4,,,,,,,,high,9,0,9,0,1,,,,,,,,,
293455,2022-11-15_18h37.48.524,vts_reward_expectancy_bt,2022.2.4,MacIntel,59.99880002,Chrome,1440,900,,,,,1,1086,,,,,,,,,,,,,,,,,125,F,circle,1,0,,,,,,,,,,,,,,,,repeat,number,numRpt,d,Lo,,,,,,0.586,4,,,,,,,,high,10,0,10,0,1,,,,,,,,,
