participant,date,expName,psychopyVersion,OS,frameRate,browser,xResolution,yResolution,key_resp.keys,key_resp.rt,training_resp.keys,training_resp.rt,points_trial,points_cumul,trainBlock,training.thisRepN,training.thisTrialN,training.thisN,training.thisIndex,training.ran,LTriangleOpac,LCircleOpac,LHexagonOpac,LStarOpac,RTriangleOpac,RCircleOpac,RHexagonOpac,RStarOpac,LShape_ID,RShape_ID,curr_topStim,curr_bottStim,curr_shape,acc,E1,target_resp_prac1.keys,target_resp_prac1.rt,pracBlock,task1_prac_trials.thisRepN,task1_prac_trials.thisTrialN,task1_prac_trials.thisN,task1_prac_trials.thisIndex,task1_prac_trials.ran,target_resp_prac2.keys,target_resp_prac2.rt,task2_praac_trials.thisRepN,task2_praac_trials.thisTrialN,task2_praac_trials.thisN,task2_praac_trials.thisIndex,task2_praac_trials.ran,alt,task,condition,target_resp.keys,target_resp.rt,rewCond,vts_practice_trials.thisRepN,vts_practice_trials.thisTrialN,vts_practice_trials.thisN,vts_practice_trials.thisIndex,vts_practice_trials.ran,blockNum,trials_norew.thisRepN,trials_norew.thisTrialN,trials_norew.thisN,trials_norew.thisIndex,trials_norew.ran,key_resp_2.keys,key_resp_2.rt,rewExpectancy,trials_rew.thisRepN,trials_rew.thisTrialN,trials_rew.thisN,trials_rew.thisIndex,trials_rew.ran,Q1,Q2,Q2_text,Q3,Q4,Q5_text,Q5,xRes,yRes
293530,2022-12-06_15h16.14.241,vts_reward_expectancy_bt,2022.2.4,MacIntel,58.82352941,Safari,1440,900,,,,,,,,,,,,,,,,,,,,,,,,,,,,,,,,,,,,,,,,,,,,,,,,,,,,,,,,,,,,,,,,,,,,,,,,,,,,
293530,2022-12-06_15h16.14.241,vts_reward_expectancy_bt,2022.2.4,MacIntel,58.82352941,Safari,1440,900,space,3026.259,,,,,,,,,,,,,,,,,,,,,,,,,,,,,,,,,,,,,,,,,,,,,,,,,,,,,,,,,,,,,,,,,,,,,,,,,,
293530,2022-12-06_15h16.14.241,vts_reward_expectancy_bt,2022.2.4,MacIntel,58.82352941,Safari,1440,900,,,,,,,,,,,,,,,,,,,,,,,,,,,,,,,,,,,,,,,,,,,,,,,,,,,,,,,,,,,,,,,,,,,,,,,,,,,,
293530,2022-12-06_15h16.14.241,vts_reward_expectancy_bt,2022.2.4,MacIntel,58.82352941,Safari,1440,900,,,a,7.198,10,10,0,0,0,0,0,1,1,0,0,0,0,1,0,0,triangle,circle,,,,,,,,,,,,,,,,,,,,,,,,,,,,,,,,,,,,,,,,,,,,,,,,,,,,,,
293530,2022-12-06_15h16.14.241,vts_reward_expectancy_bt,2022.2.4,MacIntel,58.82352941,Safari,1440,900,,,a,1.483,10,20,0,0,1,1,6,1,0,0,1,0,1,0,0,0,hexagon,triangle,,,,,,,,,,,,,,,,,,,,,,,,,,,,,,,,,,,,,,,,,,,,,,,,,,,,,,
293530,2022-12-06_15h16.14.241,vts_reward_expectancy_bt,2022.2.4,MacIntel,58.82352941,Safari,1440,900,,,a,1.866,10,30,0,0,2,2,4,1,0,1,0,0,0,0,1,0,circle,hexagon,,,,,,,,,,,,,,,,,,,,,,,,,,,,,,,,,,,,,,,,,,,,,,,,,,,,,,
293530,2022-12-06_15h16.14.241,vts_reward_expectancy_bt,2022.2.4,MacIntel,58.82352941,Safari,1440,900,,,l,1.297,1,31,0,0,3,3,3,1,0,1,0,0,1,0,0,0,circle,triangle,,,,,,,,,,,,,,,,,,,,,,,,,,,,,,,,,,,,,,,,,,,,,,,,,,,,,,
293530,2022-12-06_15h16.14.241,vts_reward_expectancy_bt,2022.2.4,MacIntel,58.82352941,Safari,1440,900,,,a,3.068,1,32,0,0,4,4,11,1,0,0,0,1,0,0,1,0,star,hexagon,,,,,,,,,,,,,,,,,,,,,,,,,,,,,,,,,,,,,,,,,,,,,,,,,,,,,,
293530,2022-12-06_15h16.14.241,vts_reward_expectancy_bt,2022.2.4,MacIntel,58.82352941,Safari,1440,900,,,a,1.182,1,33,0,0,5,5,10,1,0,0,0,1,0,1,0,0,star ,circle,,,,,,,,,,,,,,,,,,,,,,,,,,,,,,,,,,,,,,,,,,,,,,,,,,,,,,
293530,2022-12-06_15h16.14.241,vts_reward_expectancy_bt,2022.2.4,MacIntel,58.82352941,Safari,1440,900,,,a,0.766,1,34,0,0,6,6,5,1,0,1,0,0,0,0,0,1,circle,star,,,,,,,,,,,,,,,,,,,,,,,,,,,,,,,,,,,,,,,,,,,,,,,,,,,,,,
293530,2022-12-06_15h16.14.241,vts_reward_expectancy_bt,2022.2.4,MacIntel,58.82352941,Safari,1440,900,,,l,0.902,1,35,0,0,7,7,7,1,0,0,1,0,0,1,0,0,hexagon,circle,,,,,,,,,,,,,,,,,,,,,,,,,,,,,,,,,,,,,,,,,,,,,,,,,,,,,,
293530,2022-12-06_15h16.14.241,vts_reward_expectancy_bt,2022.2.4,MacIntel,58.82352941,Safari,1440,900,,,a,0.834,1,36,0,0,8,8,8,1,0,0,1,0,0,0,0,1,hexagon,star,,,,,,,,,,,,,,,,,,,,,,,,,,,,,,,,,,,,,,,,,,,,,,,,,,,,,,
293530,2022-12-06_15h16.14.241,vts_reward_expectancy_bt,2022.2.4,MacIntel,58.82352941,Safari,1440,900,,,a,6.65,10,46,0,0,9,9,1,1,1,0,0,0,0,0,1,0,triangle,hexagon,,,,,,,,,,,,,,,,,,,,,,,,,,,,,,,,,,,,,,,,,,,,,,,,,,,,,,
293530,2022-12-06_15h16.14.241,vts_reward_expectancy_bt,2022.2.4,MacIntel,58.82352941,Safari,1440,900,,,a,54.889,10,56,0,0,10,10,2,1,1,0,0,0,0,0,0,1,triangle,star,,,,,,,,,,,,,,,,,,,,,,,,,,,,,,,,,,,,,,,,,,,,,,,,,,,,,,
293530,2022-12-06_15h16.14.241,vts_reward_expectancy_bt,2022.2.4,MacIntel,58.82352941,Safari,1440,900,,,l,5.42,10,66,0,0,11,11,9,1,0,0,0,1,1,0,0,0,star,triangle,,,,,,,,,,,,,,,,,,,,,,,,,,,,,,,,,,,,,,,,,,,,,,,,,,,,,,
293530,2022-12-06_15h16.14.241,vts_reward_expectancy_bt,2022.2.4,MacIntel,58.82352941,Safari,1440,900,,,a,0.997,1,67,0,1,0,12,5,1,0,1,0,0,0,0,0,1,circle,star,,,,,,,,,,,,,,,,,,,,,,,,,,,,,,,,,,,,,,,,,,,,,,,,,,,,,,
293530,2022-12-06_15h16.14.241,vts_reward_expectancy_bt,2022.2.4,MacIntel,58.82352941,Safari,1440,900,,,a,1.251,1,68,0,1,1,13,0,1,1,0,0,0,0,1,0,0,triangle,circle,,,,,,,,,,,,,,,,,,,,,,,,,,,,,,,,,,,,,,,,,,,,,,,,,,,,,,
293530,2022-12-06_15h16.14.241,vts_reward_expectancy_bt,2022.2.4,MacIntel,58.82352941,Safari,1440,900,,,a,0.966,1,69,0,1,2,14,2,1,1,0,0,0,0,0,0,1,triangle,star,,,,,,,,,,,,,,,,,,,,,,,,,,,,,,,,,,,,,,,,,,,,,,,,,,,,,,
293530,2022-12-06_15h16.14.241,vts_reward_expectancy_bt,2022.2.4,MacIntel,58.82352941,Safari,1440,900,,,a,0.873,10,79,0,1,3,15,6,1,0,0,1,0,1,0,0,0,hexagon,triangle,,,,,,,,,,,,,,,,,,,,,,,,,,,,,,,,,,,,,,,,,,,,,,,,,,,,,,
293530,2022-12-06_15h16.14.241,vts_reward_expectancy_bt,2022.2.4,MacIntel,58.82352941,Safari,1440,900,,,a,3.911,10,89,0,1,4,16,10,1,0,0,0,1,0,1,0,0,star ,circle,,,,,,,,,,,,,,,,,,,,,,,,,,,,,,,,,,,,,,,,,,,,,,,,,,,,,,
293530,2022-12-06_15h16.14.241,vts_reward_expectancy_bt,2022.2.4,MacIntel,58.82352941,Safari,1440,900,,,a,2.082,1,90,0,1,5,17,8,1,0,0,1,0,0,0,0,1,hexagon,star,,,,,,,,,,,,,,,,,,,,,,,,,,,,,,,,,,,,,,,,,,,,,,,,,,,,,,
293530,2022-12-06_15h16.14.241,vts_reward_expectancy_bt,2022.2.4,MacIntel,58.82352941,Safari,1440,900,,,a,3.098,10,100,0,1,6,18,1,1,1,0,0,0,0,0,1,0,triangle,hexagon,,,,,,,,,,,,,,,,,,,,,,,,,,,,,,,,,,,,,,,,,,,,,,,,,,,,,,
293530,2022-12-06_15h16.14.241,vts_reward_expectancy_bt,2022.2.4,MacIntel,58.82352941,Safari,1440,900,,,l,83.74,1,101,0,1,7,19,4,1,0,1,0,0,0,0,1,0,circle,hexagon,,,,,,,,,,,,,,,,,,,,,,,,,,,,,,,,,,,,,,,,,,,,,,,,,,,,,,
293530,2022-12-06_15h16.14.241,vts_reward_expectancy_bt,2022.2.4,MacIntel,58.82352941,Safari,1440,900,,,a,2.333,10,111,0,1,8,20,7,1,0,0,1,0,0,1,0,0,hexagon,circle,,,,,,,,,,,,,,,,,,,,,,,,,,,,,,,,,,,,,,,,,,,,,,,,,,,,,,
293530,2022-12-06_15h16.14.241,vts_reward_expectancy_bt,2022.2.4,MacIntel,58.82352941,Safari,1440,900,,,l,15.285,10,121,0,1,9,21,9,1,0,0,0,1,1,0,0,0,star,triangle,,,,,,,,,,,,,,,,,,,,,,,,,,,,,,,,,,,,,,,,,,,,,,,,,,,,,,
293530,2022-12-06_15h16.14.241,vts_reward_expectancy_bt,2022.2.4,MacIntel,58.82352941,Safari,1440,900,,,a,22.166,10,131,0,1,10,22,11,1,0,0,0,1,0,0,1,0,star,hexagon,,,,,,,,,,,,,,,,,,,,,,,,,,,,,,,,,,,,,,,,,,,,,,,,,,,,,,
293530,2022-12-06_15h16.14.241,vts_reward_expectancy_bt,2022.2.4,MacIntel,58.82352941,Safari,1440,900,,,a,1.315,1,132,0,1,11,23,3,1,0,1,0,0,1,0,0,0,circle,triangle,,,,,,,,,,,,,,,,,,,,,,,,,,,,,,,,,,,,,,,,,,,,,,,,,,,,,,
293530,2022-12-06_15h16.14.241,vts_reward_expectancy_bt,2022.2.4,MacIntel,58.82352941,Safari,1440,900,,,a,0.718,1,133,0,2,0,24,2,1,1,0,0,0,0,0,0,1,triangle,star,,,,,,,,,,,,,,,,,,,,,,,,,,,,,,,,,,,,,,,,,,,,,,,,,,,,,,
293530,2022-12-06_15h16.14.241,vts_reward_expectancy_bt,2022.2.4,MacIntel,58.82352941,Safari,1440,900,,,l,1.183,10,143,0,2,1,25,5,1,0,1,0,0,0,0,0,1,circle,star,,,,,,,,,,,,,,,,,,,,,,,,,,,,,,,,,,,,,,,,,,,,,,,,,,,,,,
293530,2022-12-06_15h16.14.241,vts_reward_expectancy_bt,2022.2.4,MacIntel,58.82352941,Safari,1440,900,,,a,5.648,10,153,0,2,2,26,7,1,0,0,1,0,0,1,0,0,hexagon,circle,,,,,,,,,,,,,,,,,,,,,,,,,,,,,,,,,,,,,,,,,,,,,,,,,,,,,,
293530,2022-12-06_15h16.14.241,vts_reward_expectancy_bt,2022.2.4,MacIntel,58.82352941,Safari,1440,900,,,l,13.169,10,163,0,2,3,27,4,1,0,1,0,0,0,0,1,0,circle,hexagon,,,,,,,,,,,,,,,,,,,,,,,,,,,,,,,,,,,,,,,,,,,,,,,,,,,,,,
293530,2022-12-06_15h16.14.241,vts_reward_expectancy_bt,2022.2.4,MacIntel,58.82352941,Safari,1440,900,,,a,10.122,1,164,0,2,4,28,6,1,0,0,1,0,1,0,0,0,hexagon,triangle,,,,,,,,,,,,,,,,,,,,,,,,,,,,,,,,,,,,,,,,,,,,,,,,,,,,,,
293530,2022-12-06_15h16.14.241,vts_reward_expectancy_bt,2022.2.4,MacIntel,58.82352941,Safari,1440,900,,,a,8.459,1,165,0,2,5,29,9,1,0,0,0,1,1,0,0,0,star,triangle,,,,,,,,,,,,,,,,,,,,,,,,,,,,,,,,,,,,,,,,,,,,,,,,,,,,,,
293530,2022-12-06_15h16.14.241,vts_reward_expectancy_bt,2022.2.4,MacIntel,58.82352941,Safari,1440,900,,,l,2.099,10,175,0,2,6,30,8,1,0,0,1,0,0,0,0,1,hexagon,star,,,,,,,,,,,,,,,,,,,,,,,,,,,,,,,,,,,,,,,,,,,,,,,,,,,,,,
293530,2022-12-06_15h16.14.241,vts_reward_expectancy_bt,2022.2.4,MacIntel,58.82352941,Safari,1440,900,,,a,45.085,1,176,0,2,7,31,11,1,0,0,0,1,0,0,1,0,star,hexagon,,,,,,,,,,,,,,,,,,,,,,,,,,,,,,,,,,,,,,,,,,,,,,,,,,,,,,
293530,2022-12-06_15h16.14.241,vts_reward_expectancy_bt,2022.2.4,MacIntel,58.82352941,Safari,1440,900,,,l,6.734,1,177,0,2,8,32,1,1,1,0,0,0,0,0,1,0,triangle,hexagon,,,,,,,,,,,,,,,,,,,,,,,,,,,,,,,,,,,,,,,,,,,,,,,,,,,,,,
293530,2022-12-06_15h16.14.241,vts_reward_expectancy_bt,2022.2.4,MacIntel,58.82352941,Safari,1440,900,,,a,0.708,10,187,0,2,9,33,0,1,1,0,0,0,0,1,0,0,triangle,circle,,,,,,,,,,,,,,,,,,,,,,,,,,,,,,,,,,,,,,,,,,,,,,,,,,,,,,
293530,2022-12-06_15h16.14.241,vts_reward_expectancy_bt,2022.2.4,MacIntel,58.82352941,Safari,1440,900,,,l,1.717,10,197,0,2,10,34,3,1,0,1,0,0,1,0,0,0,circle,triangle,,,,,,,,,,,,,,,,,,,,,,,,,,,,,,,,,,,,,,,,,,,,,,,,,,,,,,
293530,2022-12-06_15h16.14.241,vts_reward_expectancy_bt,2022.2.4,MacIntel,58.82352941,Safari,1440,900,,,a,1.27,10,207,0,2,11,35,10,1,0,0,0,1,0,1,0,0,star ,circle,,,,,,,,,,,,,,,,,,,,,,,,,,,,,,,,,,,,,,,,,,,,,,,,,,,,,,
293530,2022-12-06_15h16.14.241,vts_reward_expectancy_bt,2022.2.4,MacIntel,58.82352941,Safari,1440,900,,,a,2.57,10,217,1,0,0,0,10,1,0,0,0,1,0,1,0,0,star ,circle,,,,,,,,,,,,,,,,,,,,,,,,,,,,,,,,,,,,,,,,,,,,,,,,,,,,,,
293530,2022-12-06_15h16.14.241,vts_reward_expectancy_bt,2022.2.4,MacIntel,58.82352941,Safari,1440,900,,,a,13.198,10,227,1,0,1,1,11,1,0,0,0,1,0,0,1,0,star,hexagon,,,,,,,,,,,,,,,,,,,,,,,,,,,,,,,,,,,,,,,,,,,,,,,,,,,,,,
293530,2022-12-06_15h16.14.241,vts_reward_expectancy_bt,2022.2.4,MacIntel,58.82352941,Safari,1440,900,,,a,1.567,1,228,1,0,2,2,6,1,0,0,1,0,1,0,0,0,hexagon,triangle,,,,,,,,,,,,,,,,,,,,,,,,,,,,,,,,,,,,,,,,,,,,,,,,,,,,,,
293530,2022-12-06_15h16.14.241,vts_reward_expectancy_bt,2022.2.4,MacIntel,58.82352941,Safari,1440,900,,,l,1.851,10,238,1,0,3,3,8,1,0,0,1,0,0,0,0,1,hexagon,star,,,,,,,,,,,,,,,,,,,,,,,,,,,,,,,,,,,,,,,,,,,,,,,,,,,,,,
293530,2022-12-06_15h16.14.241,vts_reward_expectancy_bt,2022.2.4,MacIntel,58.82352941,Safari,1440,900,,,a,17.967,10,248,1,0,4,4,3,1,0,1,0,0,1,0,0,0,circle,triangle,,,,,,,,,,,,,,,,,,,,,,,,,,,,,,,,,,,,,,,,,,,,,,,,,,,,,,
293530,2022-12-06_15h16.14.241,vts_reward_expectancy_bt,2022.2.4,MacIntel,58.82352941,Safari,1440,900,,,a,1.3,10,258,1,0,5,5,7,1,0,0,1,0,0,1,0,0,hexagon,circle,,,,,,,,,,,,,,,,,,,,,,,,,,,,,,,,,,,,,,,,,,,,,,,,,,,,,,
293530,2022-12-06_15h16.14.241,vts_reward_expectancy_bt,2022.2.4,MacIntel,58.82352941,Safari,1440,900,,,l,11.532,1,259,1,0,6,6,4,1,0,1,0,0,0,0,1,0,circle,hexagon,,,,,,,,,,,,,,,,,,,,,,,,,,,,,,,,,,,,,,,,,,,,,,,,,,,,,,
293530,2022-12-06_15h16.14.241,vts_reward_expectancy_bt,2022.2.4,MacIntel,58.82352941,Safari,1440,900,,,a,2.904,1,260,1,0,7,7,9,1,0,0,0,1,1,0,0,0,star,triangle,,,,,,,,,,,,,,,,,,,,,,,,,,,,,,,,,,,,,,,,,,,,,,,,,,,,,,
293530,2022-12-06_15h16.14.241,vts_reward_expectancy_bt,2022.2.4,MacIntel,58.82352941,Safari,1440,900,,,a,0.492,10,270,1,0,8,8,0,1,1,0,0,0,0,1,0,0,triangle,circle,,,,,,,,,,,,,,,,,,,,,,,,,,,,,,,,,,,,,,,,,,,,,,,,,,,,,,
293530,2022-12-06_15h16.14.241,vts_reward_expectancy_bt,2022.2.4,MacIntel,58.82352941,Safari,1440,900,,,a,0.775,1,271,1,0,9,9,1,1,1,0,0,0,0,0,1,0,triangle,hexagon,,,,,,,,,,,,,,,,,,,,,,,,,,,,,,,,,,,,,,,,,,,,,,,,,,,,,,
293530,2022-12-06_15h16.14.241,vts_reward_expectancy_bt,2022.2.4,MacIntel,58.82352941,Safari,1440,900,,,l,1.691,1,272,1,0,10,10,2,1,1,0,0,0,0,0,0,1,triangle,star,,,,,,,,,,,,,,,,,,,,,,,,,,,,,,,,,,,,,,,,,,,,,,,,,,,,,,
293530,2022-12-06_15h16.14.241,vts_reward_expectancy_bt,2022.2.4,MacIntel,58.82352941,Safari,1440,900,,,l,1.035,10,282,1,0,11,11,5,1,0,1,0,0,0,0,0,1,circle,star,,,,,,,,,,,,,,,,,,,,,,,,,,,,,,,,,,,,,,,,,,,,,,,,,,,,,,
293530,2022-12-06_15h16.14.241,vts_reward_expectancy_bt,2022.2.4,MacIntel,58.82352941,Safari,1440,900,,,l,1.287,1,283,1,1,0,12,2,1,1,0,0,0,0,0,0,1,triangle,star,,,,,,,,,,,,,,,,,,,,,,,,,,,,,,,,,,,,,,,,,,,,,,,,,,,,,,
293530,2022-12-06_15h16.14.241,vts_reward_expectancy_bt,2022.2.4,MacIntel,58.82352941,Safari,1440,900,,,l,1.374,10,293,1,1,1,13,5,1,0,1,0,0,0,0,0,1,circle,star,,,,,,,,,,,,,,,,,,,,,,,,,,,,,,,,,,,,,,,,,,,,,,,,,,,,,,
293530,2022-12-06_15h16.14.241,vts_reward_expectancy_bt,2022.2.4,MacIntel,58.82352941,Safari,1440,900,,,a,1.87,10,303,1,1,2,14,8,1,0,0,1,0,0,0,0,1,hexagon,star,,,,,,,,,,,,,,,,,,,,,,,,,,,,,,,,,,,,,,,,,,,,,,,,,,,,,,
293530,2022-12-06_15h16.14.241,vts_reward_expectancy_bt,2022.2.4,MacIntel,58.82352941,Safari,1440,900,,,l,18.713,10,313,1,1,3,15,3,1,0,1,0,0,1,0,0,0,circle,triangle,,,,,,,,,,,,,,,,,,,,,,,,,,,,,,,,,,,,,,,,,,,,,,,,,,,,,,
293530,2022-12-06_15h16.14.241,vts_reward_expectancy_bt,2022.2.4,MacIntel,58.82352941,Safari,1440,900,,,a,34.798,1,314,1,1,4,16,0,1,1,0,0,0,0,1,0,0,triangle,circle,,,,,,,,,,,,,,,,,,,,,,,,,,,,,,,,,,,,,,,,,,,,,,,,,,,,,,
293530,2022-12-06_15h16.14.241,vts_reward_expectancy_bt,2022.2.4,MacIntel,58.82352941,Safari,1440,900,,,l,2.284,10,324,1,1,5,17,4,1,0,1,0,0,0,0,1,0,circle,hexagon,,,,,,,,,,,,,,,,,,,,,,,,,,,,,,,,,,,,,,,,,,,,,,,,,,,,,,
293530,2022-12-06_15h16.14.241,vts_reward_expectancy_bt,2022.2.4,MacIntel,58.82352941,Safari,1440,900,,,a,70.732,10,334,1,1,6,18,10,1,0,0,0,1,0,1,0,0,star ,circle,,,,,,,,,,,,,,,,,,,,,,,,,,,,,,,,,,,,,,,,,,,,,,,,,,,,,,
293530,2022-12-06_15h16.14.241,vts_reward_expectancy_bt,2022.2.4,MacIntel,58.82352941,Safari,1440,900,,,a,1.586,10,344,1,1,7,19,9,1,0,0,0,1,1,0,0,0,star,triangle,,,,,,,,,,,,,,,,,,,,,,,,,,,,,,,,,,,,,,,,,,,,,,,,,,,,,,
293530,2022-12-06_15h16.14.241,vts_reward_expectancy_bt,2022.2.4,MacIntel,58.82352941,Safari,1440,900,,,a,0.518,1,345,1,1,8,20,11,1,0,0,0,1,0,0,1,0,star,hexagon,,,,,,,,,,,,,,,,,,,,,,,,,,,,,,,,,,,,,,,,,,,,,,,,,,,,,,
293530,2022-12-06_15h16.14.241,vts_reward_expectancy_bt,2022.2.4,MacIntel,58.82352941,Safari,1440,900,,,l,0.81,1,346,1,1,9,21,1,1,1,0,0,0,0,0,1,0,triangle,hexagon,,,,,,,,,,,,,,,,,,,,,,,,,,,,,,,,,,,,,,,,,,,,,,,,,,,,,,
293530,2022-12-06_15h16.14.241,vts_reward_expectancy_bt,2022.2.4,MacIntel,58.82352941,Safari,1440,900,,,l,15.484,1,347,1,1,10,22,6,1,0,0,1,0,1,0,0,0,hexagon,triangle,,,,,,,,,,,,,,,,,,,,,,,,,,,,,,,,,,,,,,,,,,,,,,,,,,,,,,
293530,2022-12-06_15h16.14.241,vts_reward_expectancy_bt,2022.2.4,MacIntel,58.82352941,Safari,1440,900,,,a,1.299,1,348,1,1,11,23,7,1,0,0,1,0,0,1,0,0,hexagon,circle,,,,,,,,,,,,,,,,,,,,,,,,,,,,,,,,,,,,,,,,,,,,,,,,,,,,,,
293530,2022-12-06_15h16.14.241,vts_reward_expectancy_bt,2022.2.4,MacIntel,58.82352941,Safari,1440,900,,,a,7.55,10,358,1,2,0,24,8,1,0,0,1,0,0,0,0,1,hexagon,star,,,,,,,,,,,,,,,,,,,,,,,,,,,,,,,,,,,,,,,,,,,,,,,,,,,,,,
293530,2022-12-06_15h16.14.241,vts_reward_expectancy_bt,2022.2.4,MacIntel,58.82352941,Safari,1440,900,,,l,46.689,1,359,1,2,1,25,4,1,0,1,0,0,0,0,1,0,circle,hexagon,,,,,,,,,,,,,,,,,,,,,,,,,,,,,,,,,,,,,,,,,,,,,,,,,,,,,,
293530,2022-12-06_15h16.14.241,vts_reward_expectancy_bt,2022.2.4,MacIntel,58.82352941,Safari,1440,900,,,a,0.634,1,360,1,2,2,26,5,1,0,1,0,0,0,0,0,1,circle,star,,,,,,,,,,,,,,,,,,,,,,,,,,,,,,,,,,,,,,,,,,,,,,,,,,,,,,
293530,2022-12-06_15h16.14.241,vts_reward_expectancy_bt,2022.2.4,MacIntel,58.82352941,Safari,1440,900,,,a,6.825,10,370,1,2,3,27,6,1,0,0,1,0,1,0,0,0,hexagon,triangle,,,,,,,,,,,,,,,,,,,,,,,,,,,,,,,,,,,,,,,,,,,,,,,,,,,,,,
293530,2022-12-06_15h16.14.241,vts_reward_expectancy_bt,2022.2.4,MacIntel,58.82352941,Safari,1440,900,,,a,17.686,10,380,1,2,4,28,0,1,1,0,0,0,0,1,0,0,triangle,circle,,,,,,,,,,,,,,,,,,,,,,,,,,,,,,,,,,,,,,,,,,,,,,,,,,,,,,
293530,2022-12-06_15h16.14.241,vts_reward_expectancy_bt,2022.2.4,MacIntel,58.82352941,Safari,1440,900,,,l,1.105,1,381,1,2,5,29,2,1,1,0,0,0,0,0,0,1,triangle,star,,,,,,,,,,,,,,,,,,,,,,,,,,,,,,,,,,,,,,,,,,,,,,,,,,,,,,
293530,2022-12-06_15h16.14.241,vts_reward_expectancy_bt,2022.2.4,MacIntel,58.82352941,Safari,1440,900,,,l,48.549,10,391,1,2,6,30,3,1,0,1,0,0,1,0,0,0,circle,triangle,,,,,,,,,,,,,,,,,,,,,,,,,,,,,,,,,,,,,,,,,,,,,,,,,,,,,,
293530,2022-12-06_15h16.14.241,vts_reward_expectancy_bt,2022.2.4,MacIntel,58.82352941,Safari,1440,900,,,l,2.433,10,401,1,2,7,31,9,1,0,0,0,1,1,0,0,0,star,triangle,,,,,,,,,,,,,,,,,,,,,,,,,,,,,,,,,,,,,,,,,,,,,,,,,,,,,,
293530,2022-12-06_15h16.14.241,vts_reward_expectancy_bt,2022.2.4,MacIntel,58.82352941,Safari,1440,900,,,a,6.748,10,411,1,2,8,32,10,1,0,0,0,1,0,1,0,0,star ,circle,,,,,,,,,,,,,,,,,,,,,,,,,,,,,,,,,,,,,,,,,,,,,,,,,,,,,,
293530,2022-12-06_15h16.14.241,vts_reward_expectancy_bt,2022.2.4,MacIntel,58.82352941,Safari,1440,900,,,l,19.436,1,412,1,2,9,33,11,1,0,0,0,1,0,0,1,0,star,hexagon,,,,,,,,,,,,,,,,,,,,,,,,,,,,,,,,,,,,,,,,,,,,,,,,,,,,,,
293530,2022-12-06_15h16.14.241,vts_reward_expectancy_bt,2022.2.4,MacIntel,58.82352941,Safari,1440,900,,,a,2.066,10,422,1,2,10,34,1,1,1,0,0,0,0,0,1,0,triangle,hexagon,,,,,,,,,,,,,,,,,,,,,,,,,,,,,,,,,,,,,,,,,,,,,,,,,,,,,,
293530,2022-12-06_15h16.14.241,vts_reward_expectancy_bt,2022.2.4,MacIntel,58.82352941,Safari,1440,900,,,a,1.57,10,432,1,2,11,35,7,1,0,0,1,0,0,1,0,0,hexagon,circle,,,,,,,,,,,,,,,,,,,,,,,,,,,,,,,,,,,,,,,,,,,,,,,,,,,,,,
293530,2022-12-06_15h16.14.241,vts_reward_expectancy_bt,2022.2.4,MacIntel,58.82352941,Safari,1440,900,,,a,1.139,10,442,2,0,0,0,0,1,1,0,0,0,0,1,0,0,triangle,circle,,,,,,,,,,,,,,,,,,,,,,,,,,,,,,,,,,,,,,,,,,,,,,,,,,,,,,
293530,2022-12-06_15h16.14.241,vts_reward_expectancy_bt,2022.2.4,MacIntel,58.82352941,Safari,1440,900,,,a,6.248,1,443,2,0,1,1,11,1,0,0,0,1,0,0,1,0,star,hexagon,,,,,,,,,,,,,,,,,,,,,,,,,,,,,,,,,,,,,,,,,,,,,,,,,,,,,,
293530,2022-12-06_15h16.14.241,vts_reward_expectancy_bt,2022.2.4,MacIntel,58.82352941,Safari,1440,900,,,a,0.751,1,444,2,0,2,2,7,1,0,0,1,0,0,1,0,0,hexagon,circle,,,,,,,,,,,,,,,,,,,,,,,,,,,,,,,,,,,,,,,,,,,,,,,,,,,,,,
293530,2022-12-06_15h16.14.241,vts_reward_expectancy_bt,2022.2.4,MacIntel,58.82352941,Safari,1440,900,,,l,1.385,1,445,2,0,3,3,6,1,0,0,1,0,1,0,0,0,hexagon,triangle,,,,,,,,,,,,,,,,,,,,,,,,,,,,,,,,,,,,,,,,,,,,,,,,,,,,,,
293530,2022-12-06_15h16.14.241,vts_reward_expectancy_bt,2022.2.4,MacIntel,58.82352941,Safari,1440,900,,,l,0.863,1,446,2,0,4,4,4,1,0,1,0,0,0,0,1,0,circle,hexagon,,,,,,,,,,,,,,,,,,,,,,,,,,,,,,,,,,,,,,,,,,,,,,,,,,,,,,
293530,2022-12-06_15h16.14.241,vts_reward_expectancy_bt,2022.2.4,MacIntel,58.82352941,Safari,1440,900,,,l,1.366,10,456,2,0,5,5,2,1,1,0,0,0,0,0,0,1,triangle,star,,,,,,,,,,,,,,,,,,,,,,,,,,,,,,,,,,,,,,,,,,,,,,,,,,,,,,
293530,2022-12-06_15h16.14.241,vts_reward_expectancy_bt,2022.2.4,MacIntel,58.82352941,Safari,1440,900,,,a,0.933,1,457,2,0,6,6,9,1,0,0,0,1,1,0,0,0,star,triangle,,,,,,,,,,,,,,,,,,,,,,,,,,,,,,,,,,,,,,,,,,,,,,,,,,,,,,
293530,2022-12-06_15h16.14.241,vts_reward_expectancy_bt,2022.2.4,MacIntel,58.82352941,Safari,1440,900,,,a,2.434,10,467,2,0,7,7,8,1,0,0,1,0,0,0,0,1,hexagon,star,,,,,,,,,,,,,,,,,,,,,,,,,,,,,,,,,,,,,,,,,,,,,,,,,,,,,,
293530,2022-12-06_15h16.14.241,vts_reward_expectancy_bt,2022.2.4,MacIntel,58.82352941,Safari,1440,900,,,l,0.926,10,477,2,0,8,8,5,1,0,1,0,0,0,0,0,1,circle,star,,,,,,,,,,,,,,,,,,,,,,,,,,,,,,,,,,,,,,,,,,,,,,,,,,,,,,
293530,2022-12-06_15h16.14.241,vts_reward_expectancy_bt,2022.2.4,MacIntel,58.82352941,Safari,1440,900,,,l,1.186,10,487,2,0,9,9,3,1,0,1,0,0,1,0,0,0,circle,triangle,,,,,,,,,,,,,,,,,,,,,,,,,,,,,,,,,,,,,,,,,,,,,,,,,,,,,,
293530,2022-12-06_15h16.14.241,vts_reward_expectancy_bt,2022.2.4,MacIntel,58.82352941,Safari,1440,900,,,l,2.4,10,497,2,0,10,10,1,1,1,0,0,0,0,0,1,0,triangle,hexagon,,,,,,,,,,,,,,,,,,,,,,,,,,,,,,,,,,,,,,,,,,,,,,,,,,,,,,
293530,2022-12-06_15h16.14.241,vts_reward_expectancy_bt,2022.2.4,MacIntel,58.82352941,Safari,1440,900,,,a,9.301,10,507,2,0,11,11,10,1,0,0,0,1,0,1,0,0,star ,circle,,,,,,,,,,,,,,,,,,,,,,,,,,,,,,,,,,,,,,,,,,,,,,,,,,,,,,
293530,2022-12-06_15h16.14.241,vts_reward_expectancy_bt,2022.2.4,MacIntel,58.82352941,Safari,1440,900,,,a,3.266,1,508,2,1,0,12,7,1,0,0,1,0,0,1,0,0,hexagon,circle,,,,,,,,,,,,,,,,,,,,,,,,,,,,,,,,,,,,,,,,,,,,,,,,,,,,,,
293530,2022-12-06_15h16.14.241,vts_reward_expectancy_bt,2022.2.4,MacIntel,58.82352941,Safari,1440,900,,,l,1.083,10,518,2,1,1,13,9,1,0,0,0,1,1,0,0,0,star,triangle,,,,,,,,,,,,,,,,,,,,,,,,,,,,,,,,,,,,,,,,,,,,,,,,,,,,,,
293530,2022-12-06_15h16.14.241,vts_reward_expectancy_bt,2022.2.4,MacIntel,58.82352941,Safari,1440,900,,,a,1.558,10,528,2,1,2,14,2,1,1,0,0,0,0,0,0,1,triangle,star,,,,,,,,,,,,,,,,,,,,,,,,,,,,,,,,,,,,,,,,,,,,,,,,,,,,,,
293530,2022-12-06_15h16.14.241,vts_reward_expectancy_bt,2022.2.4,MacIntel,58.82352941,Safari,1440,900,,,l,3.854,1,529,2,1,3,15,5,1,0,1,0,0,0,0,0,1,circle,star,,,,,,,,,,,,,,,,,,,,,,,,,,,,,,,,,,,,,,,,,,,,,,,,,,,,,,
293530,2022-12-06_15h16.14.241,vts_reward_expectancy_bt,2022.2.4,MacIntel,58.82352941,Safari,1440,900,,,a,1.609,1,530,2,1,4,16,10,1,0,0,0,1,0,1,0,0,star ,circle,,,,,,,,,,,,,,,,,,,,,,,,,,,,,,,,,,,,,,,,,,,,,,,,,,,,,,
293530,2022-12-06_15h16.14.241,vts_reward_expectancy_bt,2022.2.4,MacIntel,58.82352941,Safari,1440,900,,,l,1.207,1,531,2,1,5,17,1,1,1,0,0,0,0,0,1,0,triangle,hexagon,,,,,,,,,,,,,,,,,,,,,,,,,,,,,,,,,,,,,,,,,,,,,,,,,,,,,,
293530,2022-12-06_15h16.14.241,vts_reward_expectancy_bt,2022.2.4,MacIntel,58.82352941,Safari,1440,900,,,l,1.808,1,532,2,1,6,18,3,1,0,1,0,0,1,0,0,0,circle,triangle,,,,,,,,,,,,,,,,,,,,,,,,,,,,,,,,,,,,,,,,,,,,,,,,,,,,,,
293530,2022-12-06_15h16.14.241,vts_reward_expectancy_bt,2022.2.4,MacIntel,58.82352941,Safari,1440,900,,,a,3.804,1,533,2,1,7,19,11,1,0,0,0,1,0,0,1,0,star,hexagon,,,,,,,,,,,,,,,,,,,,,,,,,,,,,,,,,,,,,,,,,,,,,,,,,,,,,,
293530,2022-12-06_15h16.14.241,vts_reward_expectancy_bt,2022.2.4,MacIntel,58.82352941,Safari,1440,900,,,l,1.726,1,534,2,1,8,20,8,1,0,0,1,0,0,0,0,1,hexagon,star,,,,,,,,,,,,,,,,,,,,,,,,,,,,,,,,,,,,,,,,,,,,,,,,,,,,,,
293530,2022-12-06_15h16.14.241,vts_reward_expectancy_bt,2022.2.4,MacIntel,58.82352941,Safari,1440,900,,,a,0.934,10,544,2,1,9,21,6,1,0,0,1,0,1,0,0,0,hexagon,triangle,,,,,,,,,,,,,,,,,,,,,,,,,,,,,,,,,,,,,,,,,,,,,,,,,,,,,,
293530,2022-12-06_15h16.14.241,vts_reward_expectancy_bt,2022.2.4,MacIntel,58.82352941,Safari,1440,900,,,a,3.965,10,554,2,1,10,22,4,1,0,1,0,0,0,0,1,0,circle,hexagon,,,,,,,,,,,,,,,,,,,,,,,,,,,,,,,,,,,,,,,,,,,,,,,,,,,,,,
293530,2022-12-06_15h16.14.241,vts_reward_expectancy_bt,2022.2.4,MacIntel,58.82352941,Safari,1440,900,,,l,2.35,10,564,2,1,11,23,0,1,1,0,0,0,0,1,0,0,triangle,circle,,,,,,,,,,,,,,,,,,,,,,,,,,,,,,,,,,,,,,,,,,,,,,,,,,,,,,
293530,2022-12-06_15h16.14.241,vts_reward_expectancy_bt,2022.2.4,MacIntel,58.82352941,Safari,1440,900,,,a,1.15,10,574,2,2,0,24,3,1,0,1,0,0,1,0,0,0,circle,triangle,,,,,,,,,,,,,,,,,,,,,,,,,,,,,,,,,,,,,,,,,,,,,,,,,,,,,,
293530,2022-12-06_15h16.14.241,vts_reward_expectancy_bt,2022.2.4,MacIntel,58.82352941,Safari,1440,900,,,l,12.35,1,575,2,2,1,25,5,1,0,1,0,0,0,0,0,1,circle,star,,,,,,,,,,,,,,,,,,,,,,,,,,,,,,,,,,,,,,,,,,,,,,,,,,,,,,
293530,2022-12-06_15h16.14.241,vts_reward_expectancy_bt,2022.2.4,MacIntel,58.82352941,Safari,1440,900,,,a,5.333,1,576,2,2,2,26,10,1,0,0,0,1,0,1,0,0,star ,circle,,,,,,,,,,,,,,,,,,,,,,,,,,,,,,,,,,,,,,,,,,,,,,,,,,,,,,
293530,2022-12-06_15h16.14.241,vts_reward_expectancy_bt,2022.2.4,MacIntel,58.82352941,Safari,1440,900,,,l,2.316,10,586,2,2,3,27,1,1,1,0,0,0,0,0,1,0,triangle,hexagon,,,,,,,,,,,,,,,,,,,,,,,,,,,,,,,,,,,,,,,,,,,,,,,,,,,,,,
293530,2022-12-06_15h16.14.241,vts_reward_expectancy_bt,2022.2.4,MacIntel,58.82352941,Safari,1440,900,,,a,0.959,10,596,2,2,4,28,2,1,1,0,0,0,0,0,0,1,triangle,star,,,,,,,,,,,,,,,,,,,,,,,,,,,,,,,,,,,,,,,,,,,,,,,,,,,,,,
293530,2022-12-06_15h16.14.241,vts_reward_expectancy_bt,2022.2.4,MacIntel,58.82352941,Safari,1440,900,,,a,0.555,10,606,2,2,5,29,0,1,1,0,0,0,0,1,0,0,triangle,circle,,,,,,,,,,,,,,,,,,,,,,,,,,,,,,,,,,,,,,,,,,,,,,,,,,,,,,
293530,2022-12-06_15h16.14.241,vts_reward_expectancy_bt,2022.2.4,MacIntel,58.82352941,Safari,1440,900,,,a,1.117,10,616,2,2,6,30,7,1,0,0,1,0,0,1,0,0,hexagon,circle,,,,,,,,,,,,,,,,,,,,,,,,,,,,,,,,,,,,,,,,,,,,,,,,,,,,,,
293530,2022-12-06_15h16.14.241,vts_reward_expectancy_bt,2022.2.4,MacIntel,58.82352941,Safari,1440,900,,,a,0.638,10,626,2,2,7,31,6,1,0,0,1,0,1,0,0,0,hexagon,triangle,,,,,,,,,,,,,,,,,,,,,,,,,,,,,,,,,,,,,,,,,,,,,,,,,,,,,,
293530,2022-12-06_15h16.14.241,vts_reward_expectancy_bt,2022.2.4,MacIntel,58.82352941,Safari,1440,900,,,l,0.457,10,636,2,2,8,32,4,1,0,1,0,0,0,0,1,0,circle,hexagon,,,,,,,,,,,,,,,,,,,,,,,,,,,,,,,,,,,,,,,,,,,,,,,,,,,,,,
293530,2022-12-06_15h16.14.241,vts_reward_expectancy_bt,2022.2.4,MacIntel,58.82352941,Safari,1440,900,,,l,0.801,1,637,2,2,9,33,8,1,0,0,1,0,0,0,0,1,hexagon,star,,,,,,,,,,,,,,,,,,,,,,,,,,,,,,,,,,,,,,,,,,,,,,,,,,,,,,
293530,2022-12-06_15h16.14.241,vts_reward_expectancy_bt,2022.2.4,MacIntel,58.82352941,Safari,1440,900,,,l,0.685,10,647,2,2,10,34,11,1,0,0,0,1,0,0,1,0,star,hexagon,,,,,,,,,,,,,,,,,,,,,,,,,,,,,,,,,,,,,,,,,,,,,,,,,,,,,,
293530,2022-12-06_15h16.14.241,vts_reward_expectancy_bt,2022.2.4,MacIntel,58.82352941,Safari,1440,900,,,l,0.676,10,657,2,2,11,35,9,1,0,0,0,1,1,0,0,0,star,triangle,,,,,,,,,,,,,,,,,,,,,,,,,,,,,,,,,,,,,,,,,,,,,,,,,,,,,,
293530,2022-12-06_15h16.14.241,vts_reward_expectancy_bt,2022.2.4,MacIntel,58.82352941,Safari,1440,900,,,,,,,,,,,,,,,,,,,,,,,B,132,circle,1,0,d,2.515,0,0,0,0,0,1,,,,,,,,,,,,,,,,,,,,,,,,,,,,,,,,,,,,,,,,,
293530,2022-12-06_15h16.14.241,vts_reward_expectancy_bt,2022.2.4,MacIntel,58.82352941,Safari,1440,900,,,,,,,,,,,,,,,,,,,,,,,F,174,hexagon,1,0,d,1.074,0,1,0,1,0,1,,,,,,,,,,,,,,,,,,,,,,,,,,,,,,,,,,,,,,,,,
293530,2022-12-06_15h16.14.241,vts_reward_expectancy_bt,2022.2.4,MacIntel,58.82352941,Safari,1440,900,,,,,,,,,,,,,,,,,,,,,,,W,125,star,0,0,,,0,2,0,2,0,1,,,,,,,,,,,,,,,,,,,,,,,,,,,,,,,,,,,,,,,,,
293530,2022-12-06_15h16.14.241,vts_reward_expectancy_bt,2022.2.4,MacIntel,58.82352941,Safari,1440,900,,,,,,,,,,,,,,,,,,,,,,,Y,160,triangle,0,1,,,0,3,0,3,0,1,,,,,,,,,,,,,,,,,,,,,,,,,,,,,,,,,,,,,,,,,
293530,2022-12-06_15h16.14.241,vts_reward_expectancy_bt,2022.2.4,MacIntel,58.82352941,Safari,1440,900,,,,,,,,,,,,,,,,,,,,,,,D,167,circle,0,1,,,0,4,0,4,0,1,,,,,,,,,,,,,,,,,,,,,,,,,,,,,,,,,,,,,,,,,
293530,2022-12-06_15h16.14.241,vts_reward_expectancy_bt,2022.2.4,MacIntel,58.82352941,Safari,1440,900,,,,,,,,,,,,,,,,,,,,,,,H,146,hexagon,1,1,d,2.483,0,5,0,5,0,1,,,,,,,,,,,,,,,,,,,,,,,,,,,,,,,,,,,,,,,,,
293530,2022-12-06_15h16.14.241,vts_reward_expectancy_bt,2022.2.4,MacIntel,58.82352941,Safari,1440,900,,,,,,,,,,,,,,,,,,,,,,,U,139,star,1,0,f,2.204,0,6,0,6,0,1,,,,,,,,,,,,,,,,,,,,,,,,,,,,,,,,,,,,,,,,,
293530,2022-12-06_15h16.14.241,vts_reward_expectancy_bt,2022.2.4,MacIntel,58.82352941,Safari,1440,900,,,,,,,,,,,,,,,,,,,,,,,S,181,triangle,1,0,f,1.009,0,7,0,7,0,1,,,,,,,,,,,,,,,,,,,,,,,,,,,,,,,,,,,,,,,,,
293530,2022-12-06_15h16.14.241,vts_reward_expectancy_bt,2022.2.4,MacIntel,58.82352941,Safari,1440,900,,,,,,,,,,,,,,,,,,,,,,,B,132,circle,1,0,d,0.625,0,8,0,8,0,1,,,,,,,,,,,,,,,,,,,,,,,,,,,,,,,,,,,,,,,,,
293530,2022-12-06_15h16.14.241,vts_reward_expectancy_bt,2022.2.4,MacIntel,58.82352941,Safari,1440,900,,,,,,,,,,,,,,,,,,,,,,,F,174,star,1,0,d,0.73,0,9,0,9,0,1,,,,,,,,,,,,,,,,,,,,,,,,,,,,,,,,,,,,,,,,,
293530,2022-12-06_15h16.14.241,vts_reward_expectancy_bt,2022.2.4,MacIntel,58.82352941,Safari,1440,900,,,,,,,,,,,,,,,,,,,,,,,Y,139,triangle,1,0,f,1.979,1,0,0,0,0,1,,,,,,,,,,,,,,,,,,,,,,,,,,,,,,,,,,,,,,,,,
293530,2022-12-06_15h16.14.241,vts_reward_expectancy_bt,2022.2.4,MacIntel,58.82352941,Safari,1440,900,,,,,,,,,,,,,,,,,,,,,,,U,125,star,1,0,f,0.824,1,1,0,1,0,1,,,,,,,,,,,,,,,,,,,,,,,,,,,,,,,,,,,,,,,,,
293530,2022-12-06_15h16.14.241,vts_reward_expectancy_bt,2022.2.4,MacIntel,58.82352941,Safari,1440,900,,,,,,,,,,,,,,,,,,,,,,,F,167,circle,1,0,d,0.586,1,2,0,2,0,1,,,,,,,,,,,,,,,,,,,,,,,,,,,,,,,,,,,,,,,,,
293530,2022-12-06_15h16.14.241,vts_reward_expectancy_bt,2022.2.4,MacIntel,58.82352941,Safari,1440,900,,,,,,,,,,,,,,,,,,,,,,,B,146,hexagon,1,0,d,0.921,1,3,0,3,0,1,,,,,,,,,,,,,,,,,,,,,,,,,,,,,,,,,,,,,,,,,
293530,2022-12-06_15h16.14.241,vts_reward_expectancy_bt,2022.2.4,MacIntel,58.82352941,Safari,1440,900,,,,,,,,,,,,,,,,,,,,,,,H,174,triangle,1,0,d,0.794,1,4,0,4,0,1,,,,,,,,,,,,,,,,,,,,,,,,,,,,,,,,,,,,,,,,,
293530,2022-12-06_15h16.14.241,vts_reward_expectancy_bt,2022.2.4,MacIntel,58.82352941,Safari,1440,900,,,,,,,,,,,,,,,,,,,,,,,S,181,star,1,0,f,0.91,1,5,0,5,0,1,,,,,,,,,,,,,,,,,,,,,,,,,,,,,,,,,,,,,,,,,
293530,2022-12-06_15h16.14.241,vts_reward_expectancy_bt,2022.2.4,MacIntel,58.82352941,Safari,1440,900,,,,,,,,,,,,,,,,,,,,,,,W,160,circle,1,0,f,0.687,1,6,0,6,0,1,,,,,,,,,,,,,,,,,,,,,,,,,,,,,,,,,,,,,,,,,
293530,2022-12-06_15h16.14.241,vts_reward_expectancy_bt,2022.2.4,MacIntel,58.82352941,Safari,1440,900,,,,,,,,,,,,,,,,,,,,,,,D,132,hexagon,1,0,d,0.591,1,7,0,7,0,1,,,,,,,,,,,,,,,,,,,,,,,,,,,,,,,,,,,,,,,,,
293530,2022-12-06_15h16.14.241,vts_reward_expectancy_bt,2022.2.4,MacIntel,58.82352941,Safari,1440,900,,,,,,,,,,,,,,,,,,,,,,,Y,139,circle,1,0,f,0.613,1,8,0,8,0,1,,,,,,,,,,,,,,,,,,,,,,,,,,,,,,,,,,,,,,,,,
293530,2022-12-06_15h16.14.241,vts_reward_expectancy_bt,2022.2.4,MacIntel,58.82352941,Safari,1440,900,,,,,,,,,,,,,,,,,,,,,,,U,125,hexagon,1,0,f,0.744,1,9,0,9,0,1,,,,,,,,,,,,,,,,,,,,,,,,,,,,,,,,,,,,,,,,,
293530,2022-12-06_15h16.14.241,vts_reward_expectancy_bt,2022.2.4,MacIntel,58.82352941,Safari,1440,900,,,,,,,,,,,,,,,,,,,,,,,U,181,star,1,0,,,2,,,,,,k,0.679,0,0,0,0,1,,,,,,,,,,,,,,,,,,,,,,,,,,,,,,,,,,
293530,2022-12-06_15h16.14.241,vts_reward_expectancy_bt,2022.2.4,MacIntel,58.82352941,Safari,1440,900,,,,,,,,,,,,,,,,,,,,,,,B,132,hexagon,1,0,,,2,,,,,,j,0.964,1,0,1,0,1,,,,,,,,,,,,,,,,,,,,,,,,,,,,,,,,,,
293530,2022-12-06_15h16.14.241,vts_reward_expectancy_bt,2022.2.4,MacIntel,58.82352941,Safari,1440,900,,,,,,,,,,,,,,,,,,,,,,,S,167,circle,1,0,,,2,,,,,,k,0.936,2,0,2,0,1,,,,,,,,,,,,,,,,,,,,,,,,,,,,,,,,,,
293530,2022-12-06_15h16.14.241,vts_reward_expectancy_bt,2022.2.4,MacIntel,58.82352941,Safari,1440,900,,,,,,,,,,,,,,,,,,,,,,,Y,160,triangle,1,0,,,2,,,,,,k,1.204,3,0,3,0,1,,,,,,,,,,,,,,,,,,,,,,,,,,,,,,,,,,
293530,2022-12-06_15h16.14.241,vts_reward_expectancy_bt,2022.2.4,MacIntel,58.82352941,Safari,1440,900,,,,,,,,,,,,,,,,,,,,,,,F,125,star,1,0,,,2,,,,,,j,1.953,4,0,4,0,1,,,,,,,,,,,,,,,,,,,,,,,,,,,,,,,,,,
293530,2022-12-06_15h16.14.241,vts_reward_expectancy_bt,2022.2.4,MacIntel,58.82352941,Safari,1440,900,,,,,,,,,,,,,,,,,,,,,,,D,174,hexagon,1,0,,,2,,,,,,k,0.808,5,0,5,0,1,,,,,,,,,,,,,,,,,,,,,,,,,,,,,,,,,,
293530,2022-12-06_15h16.14.241,vts_reward_expectancy_bt,2022.2.4,MacIntel,58.82352941,Safari,1440,900,,,,,,,,,,,,,,,,,,,,,,,H,146,circle,0,0,,,2,,,,,,,,6,0,6,0,1,,,,,,,,,,,,,,,,,,,,,,,,,,,,,,,,,,
293530,2022-12-06_15h16.14.241,vts_reward_expectancy_bt,2022.2.4,MacIntel,58.82352941,Safari,1440,900,,,,,,,,,,,,,,,,,,,,,,,W,139,triangle,1,1,,,2,,,,,,j,1.465,7,0,7,0,1,,,,,,,,,,,,,,,,,,,,,,,,,,,,,,,,,,
293530,2022-12-06_15h16.14.241,vts_reward_expectancy_bt,2022.2.4,MacIntel,58.82352941,Safari,1440,900,,,,,,,,,,,,,,,,,,,,,,,U,181,triangle,1,0,,,2,,,,,,k,1.089,8,0,8,0,1,,,,,,,,,,,,,,,,,,,,,,,,,,,,,,,,,,
293530,2022-12-06_15h16.14.241,vts_reward_expectancy_bt,2022.2.4,MacIntel,58.82352941,Safari,1440,900,,,,,,,,,,,,,,,,,,,,,,,B,132,circle,1,0,,,2,,,,,,j,0.646,9,0,9,0,1,,,,,,,,,,,,,,,,,,,,,,,,,,,,,,,,,,
293530,2022-12-06_15h16.14.241,vts_reward_expectancy_bt,2022.2.4,MacIntel,58.82352941,Safari,1440,900,,,,,0,657,,,,,,,,,,,,,,,,,S,132,triangle,1,0,,,3,,,,,,,,,,,,,-1,letter,NA,f,1.091,vtsPrac,0,0,0,0,1,,,,,,,,,,,,,,,,,,,,,,,
293530,2022-12-06_15h16.14.241,vts_reward_expectancy_bt,2022.2.4,MacIntel,58.82352941,Safari,1440,900,,,,,0,657,,,,,,,,,,,,,,,,,B,146,hexagon,1,0,,,3,,,,,,,,,,,,,switch,number,numSwt,j,2.001,vtsPrac,1,0,1,0,1,,,,,,,,,,,,,,,,,,,,,,,
293530,2022-12-06_15h16.14.241,vts_reward_expectancy_bt,2022.2.4,MacIntel,58.82352941,Safari,1440,900,,,,,0,657,,,,,,,,,,,,,,,,,D,181,triangle,1,0,,,3,,,,,,,,,,,,,repeat,number,numRpt,k,0.696,vtsPrac,2,0,2,0,1,,,,,,,,,,,,,,,,,,,,,,,
293530,2022-12-06_15h16.14.241,vts_reward_expectancy_bt,2022.2.4,MacIntel,58.82352941,Safari,1440,900,,,,,0,657,,,,,,,,,,,,,,,,,H,160,hexagon,1,0,,,3,,,,,,,,,,,,,repeat,number,numRpt,k,2.963,vtsPrac,3,0,3,0,1,,,,,,,,,,,,,,,,,,,,,,,
293530,2022-12-06_15h16.14.241,vts_reward_expectancy_bt,2022.2.4,MacIntel,58.82352941,Safari,1440,900,,,,,0,657,,,,,,,,,,,,,,,,,S,132,circle,1,0,,,3,,,,,,,,,,,,,repeat,number,numRpt,j,0.997,vtsPrac,4,0,4,0,1,,,,,,,,,,,,,,,,,,,,,,,
293530,2022-12-06_15h16.14.241,vts_reward_expectancy_bt,2022.2.4,MacIntel,58.82352941,Safari,1440,900,,,,,0,657,,,,,,,,,,,,,,,,,B,146,triangle,1,0,,,3,,,,,,,,,,,,,switch,letter,lettSwt,d,1.504,vtsPrac,5,0,5,0,1,,,,,,,,,,,,,,,,,,,,,,,
293530,2022-12-06_15h16.14.241,vts_reward_expectancy_bt,2022.2.4,MacIntel,58.82352941,Safari,1440,900,,,,,0,657,,,,,,,,,,,,,,,,,D,181,triangle,1,0,,,3,,,,,,,,,,,,,switch,number,numSwt,k,2.111,vtsPrac,6,0,6,0,1,,,,,,,,,,,,,,,,,,,,,,,
293530,2022-12-06_15h16.14.241,vts_reward_expectancy_bt,2022.2.4,MacIntel,58.82352941,Safari,1440,900,,,,,0,657,,,,,,,,,,,,,,,,,H,160,star,1,0,,,3,,,,,,,,,,,,,repeat,number,numRpt,k,1.382,vtsPrac,7,0,7,0,1,,,,,,,,,,,,,,,,,,,,,,,
293530,2022-12-06_15h16.14.241,vts_reward_expectancy_bt,2022.2.4,MacIntel,58.82352941,Safari,1440,900,,,,,0,657,,,,,,,,,,,,,,,,,S,174,circle,1,0,,,3,,,,,,,,,,,,,switch,letter,lettSwt,f,1.713,vtsPrac,8,0,8,0,1,,,,,,,,,,,,,,,,,,,,,,,
293530,2022-12-06_15h16.14.241,vts_reward_expectancy_bt,2022.2.4,MacIntel,58.82352941,Safari,1440,900,,,,,0,657,,,,,,,,,,,,,,,,,Y,125,star,1,0,,,3,,,,,,,,,,,,,repeat,letter,lettRpt,f,0.954,vtsPrac,9,0,9,0,1,,,,,,,,,,,,,,,,,,,,,,,
293530,2022-12-06_15h16.14.241,vts_reward_expectancy_bt,2022.2.4,MacIntel,58.82352941,Safari,1440,900,,,,,0,657,,,,,,,,,,,,,,,,,F,132,circle,1,0,,,3,,,,,,,,,,,,,switch,number,numSwt,j,0.973,vtsPrac,10,0,10,0,1,,,,,,,,,,,,,,,,,,,,,,,
293530,2022-12-06_15h16.14.241,vts_reward_expectancy_bt,2022.2.4,MacIntel,58.82352941,Safari,1440,900,,,,,0,657,,,,,,,,,,,,,,,,,W,146,star,1,0,,,3,,,,,,,,,,,,,switch,letter,lettSwt,f,1.672,vtsPrac,11,0,11,0,1,,,,,,,,,,,,,,,,,,,,,,,
293530,2022-12-06_15h16.14.241,vts_reward_expectancy_bt,2022.2.4,MacIntel,58.82352941,Safari,1440,900,,,,,0,657,,,,,,,,,,,,,,,,,F,132,circle,1,0,,,3,,,,,,,,,,,,,repeat,letter,lettRpt,d,1.232,vtsPrac,12,0,12,0,1,,,,,,,,,,,,,,,,,,,,,,,
293530,2022-12-06_15h16.14.241,vts_reward_expectancy_bt,2022.2.4,MacIntel,58.82352941,Safari,1440,900,,,,,0,657,,,,,,,,,,,,,,,,,U,139,triangle,1,0,,,3,,,,,,,,,,,,,switch,number,numSwt,j,1.215,vtsPrac,13,0,13,0,1,,,,,,,,,,,,,,,,,,,,,,,
293530,2022-12-06_15h16.14.241,vts_reward_expectancy_bt,2022.2.4,MacIntel,58.82352941,Safari,1440,900,,,,,0,657,,,,,,,,,,,,,,,,,H,174,triangle,1,0,,,3,,,,,,,,,,,,,switch,letter,lettSwt,d,1.057,vtsPrac,14,0,14,0,1,,,,,,,,,,,,,,,,,,,,,,,
293530,2022-12-06_15h16.14.241,vts_reward_expectancy_bt,2022.2.4,MacIntel,58.82352941,Safari,1440,900,,,,,0,657,,,,,,,,,,,,,,,,,Y,146,star,1,0,,,3,,,,,,,,,,,,,switch,number,numSwt,j,1.18,vtsPrac,15,0,15,0,1,,,,,,,,,,,,,,,,,,,,,,,
293530,2022-12-06_15h16.14.241,vts_reward_expectancy_bt,2022.2.4,MacIntel,58.82352941,Safari,1440,900,,,,,0,657,,,,,,,,,,,,,,,,,W,139,triangle,1,0,,,3,,,,,,,,,,,,,switch,letter,lettSwt,f,1.546,vtsPrac,16,0,16,0,1,,,,,,,,,,,,,,,,,,,,,,,
293530,2022-12-06_15h16.14.241,vts_reward_expectancy_bt,2022.2.4,MacIntel,58.82352941,Safari,1440,900,,,,,0,657,,,,,,,,,,,,,,,,,S,181,hexagon,1,0,,,3,,,,,,,,,,,,,repeat,letter,lettRpt,f,1.085,vtsPrac,17,0,17,0,1,,,,,,,,,,,,,,,,,,,,,,,
293530,2022-12-06_15h16.14.241,vts_reward_expectancy_bt,2022.2.4,MacIntel,58.82352941,Safari,1440,900,,,,,0,657,,,,,,,,,,,,,,,,,U,160,hexagon,1,0,,,3,,,,,,,,,,,,,switch,number,numSwt,k,0.58,vtsPrac,18,0,18,0,1,,,,,,,,,,,,,,,,,,,,,,,
293530,2022-12-06_15h16.14.241,vts_reward_expectancy_bt,2022.2.4,MacIntel,58.82352941,Safari,1440,900,,,,,0,657,,,,,,,,,,,,,,,,,B,132,star,1,0,,,3,,,,,,,,,,,,,switch,letter,lettSwt,d,0.572,vtsPrac,19,0,19,0,1,,,,,,,,,,,,,,,,,,,,,,,
293530,2022-12-06_15h16.14.241,vts_reward_expectancy_bt,2022.2.4,MacIntel,58.82352941,Safari,1440,900,,,,,0,657,,,,,,,,,,,,,,,,,D,167,star,1,0,,,3,,,,,,,,,,,,,switch,number,numSwt,k,1.062,vtsPrac,20,0,20,0,1,,,,,,,,,,,,,,,,,,,,,,,
293530,2022-12-06_15h16.14.241,vts_reward_expectancy_bt,2022.2.4,MacIntel,58.82352941,Safari,1440,900,,,,,0,657,,,,,,,,,,,,,,,,,F,132,triangle,1,0,,,3,,,,,,,,,,,,,repeat,number,numRpt,j,0.83,vtsPrac,21,0,21,0,1,,,,,,,,,,,,,,,,,,,,,,,
293530,2022-12-06_15h16.14.241,vts_reward_expectancy_bt,2022.2.4,MacIntel,58.82352941,Safari,1440,900,,,,,0,657,,,,,,,,,,,,,,,,,H,181,hexagon,1,0,,,3,,,,,,,,,,,,,repeat,number,numRpt,k,0.689,vtsPrac,22,0,22,0,1,,,,,,,,,,,,,,,,,,,,,,,
293530,2022-12-06_15h16.14.241,vts_reward_expectancy_bt,2022.2.4,MacIntel,58.82352941,Safari,1440,900,,,,,0,657,,,,,,,,,,,,,,,,,S,160,star,1,0,,,3,,,,,,,,,,,,,repeat,number,numRpt,k,0.664,vtsPrac,23,0,23,0,1,,,,,,,,,,,,,,,,,,,,,,,
293530,2022-12-06_15h16.14.241,vts_reward_expectancy_bt,2022.2.4,MacIntel,58.82352941,Safari,1440,900,,,,,0,657,,,,,,,,,,,,,,,,,F,167,circle,1,0,,,3,,,,,,,,,,,,,repeat,number,numRpt,k,1.129,vtsPrac,24,0,24,0,1,,,,,,,,,,,,,,,,,,,,,,,
293530,2022-12-06_15h16.14.241,vts_reward_expectancy_bt,2022.2.4,MacIntel,58.82352941,Safari,1440,900,,,,,0,657,,,,,,,,,,,,,,,,,B,174,hexagon,1,0,,,3,,,,,,,,,,,,,switch,letter,lettSwt,d,0.946,vtsPrac,25,0,25,0,1,,,,,,,,,,,,,,,,,,,,,,,
293530,2022-12-06_15h16.14.241,vts_reward_expectancy_bt,2022.2.4,MacIntel,58.82352941,Safari,1440,900,,,,,0,657,,,,,,,,,,,,,,,,,Y,181,star,1,0,,,3,,,,,,,,,,,,,repeat,letter,lettRpt,f,1.287,vtsPrac,26,0,26,0,1,,,,,,,,,,,,,,,,,,,,,,,
293530,2022-12-06_15h16.14.241,vts_reward_expectancy_bt,2022.2.4,MacIntel,58.82352941,Safari,1440,900,,,,,0,657,,,,,,,,,,,,,,,,,U,146,circle,1,0,,,3,,,,,,,,,,,,,repeat,letter,lettRpt,f,0.815,vtsPrac,27,0,27,0,1,,,,,,,,,,,,,,,,,,,,,,,
293530,2022-12-06_15h16.14.241,vts_reward_expectancy_bt,2022.2.4,MacIntel,58.82352941,Safari,1440,900,,,,,0,657,,,,,,,,,,,,,,,,,S,125,circle,1,0,,,3,,,,,,,,,,,,,repeat,letter,lettRpt,f,1.133,vtsPrac,28,0,28,0,1,,,,,,,,,,,,,,,,,,,,,,,
293530,2022-12-06_15h16.14.241,vts_reward_expectancy_bt,2022.2.4,MacIntel,58.82352941,Safari,1440,900,,,,,0,657,,,,,,,,,,,,,,,,,U,160,star,1,0,,,3,,,,,,,,,,,,,repeat,letter,lettRpt,f,0.745,vtsPrac,29,0,29,0,1,,,,,,,,,,,,,,,,,,,,,,,
293530,2022-12-06_15h16.14.241,vts_reward_expectancy_bt,2022.2.4,MacIntel,58.82352941,Safari,1440,900,,,,,0,657,,,,,,,,,,,,,,,,,W,139,star,1,0,,,3,,,,,,,,,,,,,switch,number,numSwt,j,0.614,vtsPrac,30,0,30,0,1,,,,,,,,,,,,,,,,,,,,,,,
293530,2022-12-06_15h16.14.241,vts_reward_expectancy_bt,2022.2.4,MacIntel,58.82352941,Safari,1440,900,,,,,0,657,,,,,,,,,,,,,,,,,H,146,hexagon,1,0,,,3,,,,,,,,,,,,,repeat,number,numRpt,j,0.802,vtsPrac,31,0,31,0,1,,,,,,,,,,,,,,,,,,,,,,,
293530,2022-12-06_15h16.14.241,vts_reward_expectancy_bt,2022.2.4,MacIntel,58.82352941,Safari,1440,900,,,,,,,,,,,,,,,,,,,,,,,,,,,,,,,,,,,,,,,,,,,,,,,,,,,,,,,,,,,,,,,,,,,,,,,,,,,,
293530,2022-12-06_15h16.14.241,vts_reward_expectancy_bt,2022.2.4,MacIntel,58.82352941,Safari,1440,900,,,,,,,,,,,,,,,,,,,,,,,,,,,,,,,,,,,,,,,,,,,,,,,,,,,,,,,,,,,,,,,,,,,,,,,,,,,,
293530,2022-12-06_15h16.14.241,vts_reward_expectancy_bt,2022.2.4,MacIntel,58.82352941,Safari,1440,900,,,,,0,657,,,,,,,,,,,,,,,,,Y,167,triangle,-1,0,,,,,,,,,,,,,,,,switch,no_choice,NA,,,noRew,,,,,,0,0,0,0,0,1,,,,,,,,,,,,,,,,,
293530,2022-12-06_15h16.14.241,vts_reward_expectancy_bt,2022.2.4,MacIntel,58.82352941,Safari,1440,900,,,,,0,657,,,,,,,,,,,,,,,,,B,125,hexagon,1,0,,,,,,,,,,,,,,,,switch,letter,lettSwt,d,0.547,noRew,,,,,,0,1,0,1,0,1,,,,,,,,,,,,,,,,,
293530,2022-12-06_15h16.14.241,vts_reward_expectancy_bt,2022.2.4,MacIntel,58.82352941,Safari,1440,900,,,,,0,657,,,,,,,,,,,,,,,,,D,174,triangle,1,0,,,,,,,,,,,,,,,,switch,number,numSwt,k,0.5,noRew,,,,,,0,2,0,2,0,1,,,,,,,,,,,,,,,,,
293530,2022-12-06_15h16.14.241,vts_reward_expectancy_bt,2022.2.4,MacIntel,58.82352941,Safari,1440,900,,,,,0,657,,,,,,,,,,,,,,,,,W,139,hexagon,1,0,,,,,,,,,,,,,,,,repeat,number,numRpt,j,0.697,noRew,,,,,,0,3,0,3,0,1,,,,,,,,,,,,,,,,,
293530,2022-12-06_15h16.14.241,vts_reward_expectancy_bt,2022.2.4,MacIntel,58.82352941,Safari,1440,900,,,,,0,657,,,,,,,,,,,,,,,,,Y,167,hexagon,1,0,,,,,,,,,,,,,,,,switch,letter,lettSwt,f,0.695,noRew,,,,,,0,4,0,4,0,1,,,,,,,,,,,,,,,,,
293530,2022-12-06_15h16.14.241,vts_reward_expectancy_bt,2022.2.4,MacIntel,58.82352941,Safari,1440,900,,,,,0,657,,,,,,,,,,,,,,,,,B,125,triangle,1,0,,,,,,,,,,,,,,,,repeat,letter,lettRpt,d,0.581,noRew,,,,,,0,5,0,5,0,1,,,,,,,,,,,,,,,,,
293530,2022-12-06_15h16.14.241,vts_reward_expectancy_bt,2022.2.4,MacIntel,58.82352941,Safari,1440,900,,,,,0,657,,,,,,,,,,,,,,,,,D,174,hexagon,1,0,,,,,,,,,,,,,,,,repeat,letter,lettRpt,d,0.864,noRew,,,,,,0,6,0,6,0,1,,,,,,,,,,,,,,,,,
293530,2022-12-06_15h16.14.241,vts_reward_expectancy_bt,2022.2.4,MacIntel,58.82352941,Safari,1440,900,,,,,0,657,,,,,,,,,,,,,,,,,W,139,star,1,0,,,,,,,,,,,,,,,,repeat,letter,lettRpt,f,0.751,noRew,,,,,,0,7,0,7,0,1,,,,,,,,,,,,,,,,,
293530,2022-12-06_15h16.14.241,vts_reward_expectancy_bt,2022.2.4,MacIntel,58.82352941,Safari,1440,900,,,,,0,657,,,,,,,,,,,,,,,,,D,174,circle,1,0,,,,,,,,,,,,,,,,switch,number,numSwt,k,1.131,noRew,,,,,,0,8,0,8,0,1,,,,,,,,,,,,,,,,,
293530,2022-12-06_15h16.14.241,vts_reward_expectancy_bt,2022.2.4,MacIntel,58.82352941,Safari,1440,900,,,,,0,657,,,,,,,,,,,,,,,,,S,167,hexagon,1,0,,,,,,,,,,,,,,,,repeat,number,numRpt,k,0.931,noRew,,,,,,0,9,0,9,0,1,,,,,,,,,,,,,,,,,
293530,2022-12-06_15h16.14.241,vts_reward_expectancy_bt,2022.2.4,MacIntel,58.82352941,Safari,1440,900,,,,,0,657,,,,,,,,,,,,,,,,,Y,139,triangle,1,0,,,,,,,,,,,,,,,,repeat,number,numRpt,j,0.869,noRew,,,,,,0,10,0,10,0,1,,,,,,,,,,,,,,,,,
293530,2022-12-06_15h16.14.241,vts_reward_expectancy_bt,2022.2.4,MacIntel,58.82352941,Safari,1440,900,,,,,0,657,,,,,,,,,,,,,,,,,B,181,star,1,0,,,,,,,,,,,,,,,,repeat,number,numRpt,k,0.763,noRew,,,,,,0,11,0,11,0,1,,,,,,,,,,,,,,,,,
293530,2022-12-06_15h16.14.241,vts_reward_expectancy_bt,2022.2.4,MacIntel,58.82352941,Safari,1440,900,,,,,0,657,,,,,,,,,,,,,,,,,Y,181,triangle,1,0,,,,,,,,,,,,,,,,switch,letter,lettSwt,f,0.904,noRew,,,,,,0,12,0,12,0,1,,,,,,,,,,,,,,,,,
293530,2022-12-06_15h16.14.241,vts_reward_expectancy_bt,2022.2.4,MacIntel,58.82352941,Safari,1440,900,,,,,0,657,,,,,,,,,,,,,,,,,H,139,hexagon,1,0,,,,,,,,,,,,,,,,switch,number,numSwt,j,1.114,noRew,,,,,,0,13,0,13,0,1,,,,,,,,,,,,,,,,,
293530,2022-12-06_15h16.14.241,vts_reward_expectancy_bt,2022.2.4,MacIntel,58.82352941,Safari,1440,900,,,,,0,657,,,,,,,,,,,,,,,,,U,167,hexagon,1,0,,,,,,,,,,,,,,,,repeat,number,numRpt,k,1.162,noRew,,,,,,0,14,0,14,0,1,,,,,,,,,,,,,,,,,
293530,2022-12-06_15h16.14.241,vts_reward_expectancy_bt,2022.2.4,MacIntel,58.82352941,Safari,1440,900,,,,,0,657,,,,,,,,,,,,,,,,,S,125,triangle,1,0,,,,,,,,,,,,,,,,switch,letter,lettSwt,f,0.891,noRew,,,,,,0,15,0,15,0,1,,,,,,,,,,,,,,,,,
293530,2022-12-06_15h16.14.241,vts_reward_expectancy_bt,2022.2.4,MacIntel,58.82352941,Safari,1440,900,,,,,0,657,,,,,,,,,,,,,,,,,D,174,hexagon,1,0,,,,,,,,,,,,,,,,repeat,letter,lettRpt,d,1.18,noRew,,,,,,0,16,0,16,0,1,,,,,,,,,,,,,,,,,
293530,2022-12-06_15h16.14.241,vts_reward_expectancy_bt,2022.2.4,MacIntel,58.82352941,Safari,1440,900,,,,,0,657,,,,,,,,,,,,,,,,,W,125,triangle,1,0,,,,,,,,,,,,,,,,repeat,letter,lettRpt,f,0.962,noRew,,,,,,0,17,0,17,0,1,,,,,,,,,,,,,,,,,
293530,2022-12-06_15h16.14.241,vts_reward_expectancy_bt,2022.2.4,MacIntel,58.82352941,Safari,1440,900,,,,,0,657,,,,,,,,,,,,,,,,,U,139,hexagon,1,0,,,,,,,,,,,,,,,,repeat,letter,lettRpt,f,0.829,noRew,,,,,,0,18,0,18,0,1,,,,,,,,,,,,,,,,,
293530,2022-12-06_15h16.14.241,vts_reward_expectancy_bt,2022.2.4,MacIntel,58.82352941,Safari,1440,900,,,,,0,657,,,,,,,,,,,,,,,,,F,160,circle,1,0,,,,,,,,,,,,,,,,switch,number,numSwt,k,1.217,noRew,,,,,,0,19,0,19,0,1,,,,,,,,,,,,,,,,,
293530,2022-12-06_15h16.14.241,vts_reward_expectancy_bt,2022.2.4,MacIntel,58.82352941,Safari,1440,900,,,,,0,657,,,,,,,,,,,,,,,,,H,160,triangle,1,0,,,,,,,,,,,,,,,,repeat,number,numRpt,k,0.782,noRew,,,,,,0,20,0,20,0,1,,,,,,,,,,,,,,,,,
293530,2022-12-06_15h16.14.241,vts_reward_expectancy_bt,2022.2.4,MacIntel,58.82352941,Safari,1440,900,,,,,0,657,,,,,,,,,,,,,,,,,S,132,star,1,0,,,,,,,,,,,,,,,,repeat,number,numRpt,j,0.982,noRew,,,,,,0,21,0,21,0,1,,,,,,,,,,,,,,,,,
293530,2022-12-06_15h16.14.241,vts_reward_expectancy_bt,2022.2.4,MacIntel,58.82352941,Safari,1440,900,,,,,0,657,,,,,,,,,,,,,,,,,B,125,triangle,1,0,,,,,,,,,,,,,,,,repeat,number,numRpt,j,1.246,noRew,,,,,,0,22,0,22,0,1,,,,,,,,,,,,,,,,,
293530,2022-12-06_15h16.14.241,vts_reward_expectancy_bt,2022.2.4,MacIntel,58.82352941,Safari,1440,900,,,,,0,657,,,,,,,,,,,,,,,,,W,146,circle,1,0,,,,,,,,,,,,,,,,switch,letter,lettSwt,f,0.68,noRew,,,,,,0,23,0,23,0,1,,,,,,,,,,,,,,,,,
293530,2022-12-06_15h16.14.241,vts_reward_expectancy_bt,2022.2.4,MacIntel,58.82352941,Safari,1440,900,,,,,0,657,,,,,,,,,,,,,,,,,F,132,triangle,1,0,,,,,,,,,,,,,,,,repeat,letter,lettRpt,d,0.713,noRew,,,,,,0,24,0,24,0,1,,,,,,,,,,,,,,,,,
293530,2022-12-06_15h16.14.241,vts_reward_expectancy_bt,2022.2.4,MacIntel,58.82352941,Safari,1440,900,,,,,0,657,,,,,,,,,,,,,,,,,S,167,circle,1,0,,,,,,,,,,,,,,,,switch,number,numSwt,k,1.17,noRew,,,,,,0,25,0,25,0,1,,,,,,,,,,,,,,,,,
293530,2022-12-06_15h16.14.241,vts_reward_expectancy_bt,2022.2.4,MacIntel,58.82352941,Safari,1440,900,,,,,0,657,,,,,,,,,,,,,,,,,B,125,star,1,0,,,,,,,,,,,,,,,,switch,letter,lettSwt,d,0.696,noRew,,,,,,0,26,0,26,0,1,,,,,,,,,,,,,,,,,
293530,2022-12-06_15h16.14.241,vts_reward_expectancy_bt,2022.2.4,MacIntel,58.82352941,Safari,1440,900,,,,,0,657,,,,,,,,,,,,,,,,,H,146,circle,1,0,,,,,,,,,,,,,,,,switch,number,numSwt,j,1.312,noRew,,,,,,0,27,0,27,0,1,,,,,,,,,,,,,,,,,
293530,2022-12-06_15h16.14.241,vts_reward_expectancy_bt,2022.2.4,MacIntel,58.82352941,Safari,1440,900,,,,,0,657,,,,,,,,,,,,,,,,,B,174,star,1,0,,,,,,,,,,,,,,,,repeat,number,numRpt,k,0.785,noRew,,,,,,0,28,0,28,0,1,,,,,,,,,,,,,,,,,
293530,2022-12-06_15h16.14.241,vts_reward_expectancy_bt,2022.2.4,MacIntel,58.82352941,Safari,1440,900,,,,,0,657,,,,,,,,,,,,,,,,,H,125,triangle,1,0,,,,,,,,,,,,,,,,switch,letter,lettSwt,d,1.073,noRew,,,,,,0,29,0,29,0,1,,,,,,,,,,,,,,,,,
293530,2022-12-06_15h16.14.241,vts_reward_expectancy_bt,2022.2.4,MacIntel,58.82352941,Safari,1440,900,,,,,0,657,,,,,,,,,,,,,,,,,S,146,circle,1,0,,,,,,,,,,,,,,,,switch,number,numSwt,j,0.95,noRew,,,,,,0,30,0,30,0,1,,,,,,,,,,,,,,,,,
293530,2022-12-06_15h16.14.241,vts_reward_expectancy_bt,2022.2.4,MacIntel,58.82352941,Safari,1440,900,,,,,0,657,,,,,,,,,,,,,,,,,W,167,hexagon,1,0,,,,,,,,,,,,,,,,repeat,number,numRpt,k,1.047,noRew,,,,,,0,31,0,31,0,1,,,,,,,,,,,,,,,,,
293530,2022-12-06_15h16.14.241,vts_reward_expectancy_bt,2022.2.4,MacIntel,58.82352941,Safari,1440,900,,,,,0,657,,,,,,,,,,,,,,,,,U,167,circle,1,0,,,,,,,,,,,,,,,,repeat,number,numRpt,k,1.08,noRew,,,,,,0,32,0,32,0,1,,,,,,,,,,,,,,,,,
293530,2022-12-06_15h16.14.241,vts_reward_expectancy_bt,2022.2.4,MacIntel,58.82352941,Safari,1440,900,,,,,0,657,,,,,,,,,,,,,,,,,F,181,star,1,0,,,,,,,,,,,,,,,,repeat,number,numRpt,k,0.783,noRew,,,,,,0,33,0,33,0,1,,,,,,,,,,,,,,,,,
293530,2022-12-06_15h16.14.241,vts_reward_expectancy_bt,2022.2.4,MacIntel,58.82352941,Safari,1440,900,,,,,0,657,,,,,,,,,,,,,,,,,H,125,circle,1,0,,,,,,,,,,,,,,,,repeat,number,numRpt,j,0.847,noRew,,,,,,0,34,0,34,0,1,,,,,,,,,,,,,,,,,
293530,2022-12-06_15h16.14.241,vts_reward_expectancy_bt,2022.2.4,MacIntel,58.82352941,Safari,1440,900,,,,,0,657,,,,,,,,,,,,,,,,,B,132,triangle,1,0,,,,,,,,,,,,,,,,repeat,number,numRpt,j,2.031,noRew,,,,,,0,35,0,35,0,1,,,,,,,,,,,,,,,,,
293530,2022-12-06_15h16.14.241,vts_reward_expectancy_bt,2022.2.4,MacIntel,58.82352941,Safari,1440,900,,,,,0,657,,,,,,,,,,,,,,,,,W,132,triangle,1,0,,,,,,,,,,,,,,,,repeat,number,numRpt,j,0.938,noRew,,,,,,0,36,0,36,0,1,,,,,,,,,,,,,,,,,
293530,2022-12-06_15h16.14.241,vts_reward_expectancy_bt,2022.2.4,MacIntel,58.82352941,Safari,1440,900,,,,,0,657,,,,,,,,,,,,,,,,,F,125,hexagon,1,0,,,,,,,,,,,,,,,,switch,letter,lettSwt,d,1.229,noRew,,,,,,0,37,0,37,0,1,,,,,,,,,,,,,,,,,
293530,2022-12-06_15h16.14.241,vts_reward_expectancy_bt,2022.2.4,MacIntel,58.82352941,Safari,1440,900,,,,,0,657,,,,,,,,,,,,,,,,,H,181,star,1,0,,,,,,,,,,,,,,,,switch,number,numSwt,k,0.781,noRew,,,,,,0,38,0,38,0,1,,,,,,,,,,,,,,,,,
293530,2022-12-06_15h16.14.241,vts_reward_expectancy_bt,2022.2.4,MacIntel,58.82352941,Safari,1440,900,,,,,0,657,,,,,,,,,,,,,,,,,D,160,hexagon,1,0,,,,,,,,,,,,,,,,repeat,number,numRpt,k,1.413,noRew,,,,,,0,39,0,39,0,1,,,,,,,,,,,,,,,,,
293530,2022-12-06_15h16.14.241,vts_reward_expectancy_bt,2022.2.4,MacIntel,58.82352941,Safari,1440,900,,,,,0,657,,,,,,,,,,,,,,,,,U,174,circle,1,0,,,,,,,,,,,,,,,,switch,letter,lettSwt,f,0.896,noRew,,,,,,0,40,0,40,0,1,,,,,,,,,,,,,,,,,
293530,2022-12-06_15h16.14.241,vts_reward_expectancy_bt,2022.2.4,MacIntel,58.82352941,Safari,1440,900,,,,,0,657,,,,,,,,,,,,,,,,,Y,139,hexagon,1,0,,,,,,,,,,,,,,,,switch,number,numSwt,j,1.456,noRew,,,,,,0,41,0,41,0,1,,,,,,,,,,,,,,,,,
293530,2022-12-06_15h16.14.241,vts_reward_expectancy_bt,2022.2.4,MacIntel,58.82352941,Safari,1440,900,,,,,0,657,,,,,,,,,,,,,,,,,D,181,circle,1,0,,,,,,,,,,,,,,,,repeat,number,numRpt,k,1.181,noRew,,,,,,0,42,0,42,0,1,,,,,,,,,,,,,,,,,
293530,2022-12-06_15h16.14.241,vts_reward_expectancy_bt,2022.2.4,MacIntel,58.82352941,Safari,1440,900,,,,,0,657,,,,,,,,,,,,,,,,,B,125,hexagon,1,0,,,,,,,,,,,,,,,,switch,letter,lettSwt,d,0.799,noRew,,,,,,0,43,0,43,0,1,,,,,,,,,,,,,,,,,
293530,2022-12-06_15h16.14.241,vts_reward_expectancy_bt,2022.2.4,MacIntel,58.82352941,Safari,1440,900,,,,,0,657,,,,,,,,,,,,,,,,,B,146,circle,1,0,,,,,,,,,,,,,,,,repeat,letter,lettRpt,d,0.983,noRew,,,,,,0,44,0,44,0,1,,,,,,,,,,,,,,,,,
293530,2022-12-06_15h16.14.241,vts_reward_expectancy_bt,2022.2.4,MacIntel,58.82352941,Safari,1440,900,,,,,0,657,,,,,,,,,,,,,,,,,S,181,star,1,0,,,,,,,,,,,,,,,,repeat,letter,lettRpt,f,0.87,noRew,,,,,,0,45,0,45,0,1,,,,,,,,,,,,,,,,,
293530,2022-12-06_15h16.14.241,vts_reward_expectancy_bt,2022.2.4,MacIntel,58.82352941,Safari,1440,900,,,,,0,657,,,,,,,,,,,,,,,,,W,125,triangle,1,0,,,,,,,,,,,,,,,,repeat,letter,lettRpt,f,0.864,noRew,,,,,,0,46,0,46,0,1,,,,,,,,,,,,,,,,,
293530,2022-12-06_15h16.14.241,vts_reward_expectancy_bt,2022.2.4,MacIntel,58.82352941,Safari,1440,900,,,,,0,657,,,,,,,,,,,,,,,,,U,139,circle,1,0,,,,,,,,,,,,,,,,switch,number,numSwt,j,1.651,noRew,,,,,,0,47,0,47,0,1,,,,,,,,,,,,,,,,,
293530,2022-12-06_15h16.14.241,vts_reward_expectancy_bt,2022.2.4,MacIntel,58.82352941,Safari,1440,900,,,,,0,657,,,,,,,,,,,,,,,,,H,132,triangle,1,0,,,,,,,,,,,,,,,,repeat,number,numRpt,j,0.612,noRew,,,,,,0,48,0,48,0,1,,,,,,,,,,,,,,,,,
293530,2022-12-06_15h16.14.241,vts_reward_expectancy_bt,2022.2.4,MacIntel,58.82352941,Safari,1440,900,,,,,0,657,,,,,,,,,,,,,,,,,W,181,star,1,0,,,,,,,,,,,,,,,,repeat,number,numRpt,k,0.819,noRew,,,,,,0,49,0,49,0,1,,,,,,,,,,,,,,,,,
293530,2022-12-06_15h16.14.241,vts_reward_expectancy_bt,2022.2.4,MacIntel,58.82352941,Safari,1440,900,,,,,0,657,,,,,,,,,,,,,,,,,S,139,circle,1,0,,,,,,,,,,,,,,,,repeat,number,numRpt,j,1.157,noRew,,,,,,0,50,0,50,0,1,,,,,,,,,,,,,,,,,
293530,2022-12-06_15h16.14.241,vts_reward_expectancy_bt,2022.2.4,MacIntel,58.82352941,Safari,1440,900,,,,,0,657,,,,,,,,,,,,,,,,,B,146,hexagon,1,0,,,,,,,,,,,,,,,,repeat,number,numRpt,j,0.75,noRew,,,,,,0,51,0,51,0,1,,,,,,,,,,,,,,,,,
293530,2022-12-06_15h16.14.241,vts_reward_expectancy_bt,2022.2.4,MacIntel,58.82352941,Safari,1440,900,,,,,0,657,,,,,,,,,,,,,,,,,D,160,hexagon,1,0,,,,,,,,,,,,,,,,switch,letter,lettSwt,d,0.9,noRew,,,,,,0,52,0,52,0,1,,,,,,,,,,,,,,,,,
293530,2022-12-06_15h16.14.241,vts_reward_expectancy_bt,2022.2.4,MacIntel,58.82352941,Safari,1440,900,,,,,0,657,,,,,,,,,,,,,,,,,H,132,triangle,1,0,,,,,,,,,,,,,,,,repeat,letter,lettRpt,d,0.96,noRew,,,,,,0,53,0,53,0,1,,,,,,,,,,,,,,,,,
293530,2022-12-06_15h16.14.241,vts_reward_expectancy_bt,2022.2.4,MacIntel,58.82352941,Safari,1440,900,,,,,0,657,,,,,,,,,,,,,,,,,W,181,triangle,1,0,,,,,,,,,,,,,,,,switch,number,numSwt,k,1.107,noRew,,,,,,0,54,0,54,0,1,,,,,,,,,,,,,,,,,
293530,2022-12-06_15h16.14.241,vts_reward_expectancy_bt,2022.2.4,MacIntel,58.82352941,Safari,1440,900,,,,,0,657,,,,,,,,,,,,,,,,,Y,146,star,1,0,,,,,,,,,,,,,,,,switch,letter,lettSwt,f,0.697,noRew,,,,,,0,55,0,55,0,1,,,,,,,,,,,,,,,,,
293530,2022-12-06_15h16.14.241,vts_reward_expectancy_bt,2022.2.4,MacIntel,58.82352941,Safari,1440,900,,,,,0,657,,,,,,,,,,,,,,,,,D,146,hexagon,1,0,,,,,,,,,,,,,,,,repeat,letter,lettRpt,d,0.938,noRew,,,,,,0,56,0,56,0,1,,,,,,,,,,,,,,,,,
293530,2022-12-06_15h16.14.241,vts_reward_expectancy_bt,2022.2.4,MacIntel,58.82352941,Safari,1440,900,,,,,0,657,,,,,,,,,,,,,,,,,W,139,triangle,1,0,,,,,,,,,,,,,,,,switch,number,numSwt,j,0.69,noRew,,,,,,0,57,0,57,0,1,,,,,,,,,,,,,,,,,
293530,2022-12-06_15h16.14.241,vts_reward_expectancy_bt,2022.2.4,MacIntel,58.82352941,Safari,1440,900,,,,,0,657,,,,,,,,,,,,,,,,,F,132,triangle,1,0,,,,,,,,,,,,,,,,repeat,number,numRpt,j,0.81,noRew,,,,,,0,58,0,58,0,1,,,,,,,,,,,,,,,,,
293530,2022-12-06_15h16.14.241,vts_reward_expectancy_bt,2022.2.4,MacIntel,58.82352941,Safari,1440,900,,,,,0,657,,,,,,,,,,,,,,,,,U,125,circle,1,0,,,,,,,,,,,,,,,,repeat,number,numRpt,j,1.184,noRew,,,,,,0,59,0,59,0,1,,,,,,,,,,,,,,,,,
293530,2022-12-06_15h16.14.241,vts_reward_expectancy_bt,2022.2.4,MacIntel,58.82352941,Safari,1440,900,,,,,0,657,,,,,,,,,,,,,,,,,H,139,triangle,1,0,,,,,,,,,,,,,,,,repeat,number,numRpt,j,0.928,noRew,,,,,,0,60,0,60,0,1,,,,,,,,,,,,,,,,,
293530,2022-12-06_15h16.14.241,vts_reward_expectancy_bt,2022.2.4,MacIntel,58.82352941,Safari,1440,900,,,,,0,657,,,,,,,,,,,,,,,,,W,132,hexagon,1,0,,,,,,,,,,,,,,,,switch,letter,lettSwt,f,0.753,noRew,,,,,,0,61,0,61,0,1,,,,,,,,,,,,,,,,,
293530,2022-12-06_15h16.14.241,vts_reward_expectancy_bt,2022.2.4,MacIntel,58.82352941,Safari,1440,900,,,,,0,657,,,,,,,,,,,,,,,,,B,174,triangle,1,0,,,,,,,,,,,,,,,,repeat,letter,lettRpt,d,0.597,noRew,,,,,,0,62,0,62,0,1,,,,,,,,,,,,,,,,,
293530,2022-12-06_15h16.14.241,vts_reward_expectancy_bt,2022.2.4,MacIntel,58.82352941,Safari,1440,900,,,,,0,657,,,,,,,,,,,,,,,,,U,181,circle,1,0,,,,,,,,,,,,,,,,repeat,letter,lettRpt,f,0.83,noRew,,,,,,0,63,0,63,0,1,,,,,,,,,,,,,,,,,
293530,2022-12-06_15h16.14.241,vts_reward_expectancy_bt,2022.2.4,MacIntel,58.82352941,Safari,1440,900,,,,,,,,,,,,,,,,,,,,,,,,,,,,,,,,,,,,,,,,,,,,,,,,,,,,,,,,,,,,,,,,,,,,,,,,,,,,
293530,2022-12-06_15h16.14.241,vts_reward_expectancy_bt,2022.2.4,MacIntel,58.82352941,Safari,1440,900,,,,,0,657,,,,,,,,,,,,,,,,,W,139,triangle,1,0,,,,,,,,,,,,,,,,repeat,letter,lettRpt,f,0.906,Hi,,,,,,0,,,,,,space,16.444,low,0,0,0,0,1,,,,,,,,,
293530,2022-12-06_15h16.14.241,vts_reward_expectancy_bt,2022.2.4,MacIntel,58.82352941,Safari,1440,900,,,,,10,667,,,,,,,,,,,,,,,,,U,181,hexagon,1,0,,,,,,,,,,,,,,,,repeat,letter,lettRpt,f,0.618,Lo,,,,,,0,,,,,,,,low,1,0,1,0,1,,,,,,,,,
293530,2022-12-06_15h16.14.241,vts_reward_expectancy_bt,2022.2.4,MacIntel,58.82352941,Safari,1440,900,,,,,0,667,,,,,,,,,,,,,,,,,F,125,star,1,0,,,,,,,,,,,,,,,,repeat,letter,lettRpt,d,1.008,Hi,,,,,,0,,,,,,,,low,2,0,2,0,1,,,,,,,,,
293530,2022-12-06_15h16.14.241,vts_reward_expectancy_bt,2022.2.4,MacIntel,58.82352941,Safari,1440,900,,,,,10,677,,,,,,,,,,,,,,,,,H,146,circle,1,0,,,,,,,,,,,,,,,,switch,number,numSwt,j,1.035,Lo,,,,,,0,,,,,,,,low,3,0,3,0,1,,,,,,,,,
293530,2022-12-06_15h16.14.241,vts_reward_expectancy_bt,2022.2.4,MacIntel,58.82352941,Safari,1440,900,,,,,0,677,,,,,,,,,,,,,,,,,D,132,triangle,1,0,,,,,,,,,,,,,,,,switch,letter,lettSwt,d,0.848,Hi,,,,,,0,,,,,,,,low,4,0,4,0,1,,,,,,,,,
293530,2022-12-06_15h16.14.241,vts_reward_expectancy_bt,2022.2.4,MacIntel,58.82352941,Safari,1440,900,,,,,1,678,,,,,,,,,,,,,,,,,Y,174,hexagon,1,0,,,,,,,,,,,,,,,,switch,number,numSwt,k,0.759,Lo,,,,,,0,,,,,,,,low,5,0,5,0,1,,,,,,,,,
293530,2022-12-06_15h16.14.241,vts_reward_expectancy_bt,2022.2.4,MacIntel,58.82352941,Safari,1440,900,,,,,10,688,,,,,,,,,,,,,,,,,S,160,star,1,0,,,,,,,,,,,,,,,,switch,letter,lettSwt,f,0.594,Hi,,,,,,0,,,,,,,,low,6,0,6,0,1,,,,,,,,,
293530,2022-12-06_15h16.14.241,vts_reward_expectancy_bt,2022.2.4,MacIntel,58.82352941,Safari,1440,900,,,,,10,698,,,,,,,,,,,,,,,,,B,167,circle,1,0,,,,,,,,,,,,,,,,switch,number,numSwt,k,0.84,Lo,,,,,,0,,,,,,,,low,7,0,7,0,1,,,,,,,,,
293530,2022-12-06_15h16.14.241,vts_reward_expectancy_bt,2022.2.4,MacIntel,58.82352941,Safari,1440,900,,,,,10,708,,,,,,,,,,,,,,,,,W,139,star,1,0,,,,,,,,,,,,,,,,repeat,number,numRpt,j,0.627,Hi,,,,,,0,,,,,,,,low,8,0,8,0,1,,,,,,,,,
293530,2022-12-06_15h16.14.241,vts_reward_expectancy_bt,2022.2.4,MacIntel,58.82352941,Safari,1440,900,,,,,1,709,,,,,,,,,,,,,,,,,U,181,hexagon,1,0,,,,,,,,,,,,,,,,switch,letter,lettSwt,f,1.025,Lo,,,,,,0,,,,,,,,low,9,0,9,0,1,,,,,,,,,
293530,2022-12-06_15h16.14.241,vts_reward_expectancy_bt,2022.2.4,MacIntel,58.82352941,Safari,1440,900,,,,,0,709,,,,,,,,,,,,,,,,,F,125,triangle,1,0,,,,,,,,,,,,,,,,repeat,letter,lettRpt,d,0.915,Hi,,,,,,0,,,,,,,,low,10,0,10,0,1,,,,,,,,,
293530,2022-12-06_15h16.14.241,vts_reward_expectancy_bt,2022.2.4,MacIntel,58.82352941,Safari,1440,900,,,,,1,710,,,,,,,,,,,,,,,,,H,146,circle,1,0,,,,,,,,,,,,,,,,switch,number,numSwt,j,0.809,Lo,,,,,,0,,,,,,,,low,11,0,11,0,1,,,,,,,,,
293530,2022-12-06_15h16.14.241,vts_reward_expectancy_bt,2022.2.4,MacIntel,58.82352941,Safari,1440,900,,,,,10,720,,,,,,,,,,,,,,,,,D,132,star,1,0,,,,,,,,,,,,,,,,switch,letter,lettSwt,d,0.694,Hi,,,,,,0,,,,,,,,low,12,0,12,0,1,,,,,,,,,
293530,2022-12-06_15h16.14.241,vts_reward_expectancy_bt,2022.2.4,MacIntel,58.82352941,Safari,1440,900,,,,,10,730,,,,,,,,,,,,,,,,,Y,174,circle,1,0,,,,,,,,,,,,,,,,switch,number,numSwt,k,0.834,Lo,,,,,,0,,,,,,,,low,13,0,13,0,1,,,,,,,,,
293530,2022-12-06_15h16.14.241,vts_reward_expectancy_bt,2022.2.4,MacIntel,58.82352941,Safari,1440,900,,,,,10,740,,,,,,,,,,,,,,,,,S,160,hexagon,1,0,,,,,,,,,,,,,,,,switch,letter,lettSwt,f,1.034,Lo,,,,,,0,,,,,,,,low,14,0,14,0,1,,,,,,,,,
293530,2022-12-06_15h16.14.241,vts_reward_expectancy_bt,2022.2.4,MacIntel,58.82352941,Safari,1440,900,,,,,1,741,,,,,,,,,,,,,,,,,B,167,triangle,1,0,,,,,,,,,,,,,,,,repeat,letter,lettRpt,d,0.38,Hi,,,,,,0,,,,,,,,low,15,0,15,0,1,,,,,,,,,
293530,2022-12-06_15h16.14.241,vts_reward_expectancy_bt,2022.2.4,MacIntel,58.82352941,Safari,1440,900,,,,,1,742,,,,,,,,,,,,,,,,,B,146,star,1,0,,,,,,,,,,,,,,,,repeat,letter,lettRpt,d,0.645,Hi,,,,,,0,,,,,,,,low,16,0,16,0,1,,,,,,,,,
293530,2022-12-06_15h16.14.241,vts_reward_expectancy_bt,2022.2.4,MacIntel,58.82352941,Safari,1440,900,,,,,0,742,,,,,,,,,,,,,,,,,Y,139,circle,0,0,,,,,,,,,,,,,,,,repeat,letter,NA,d,0.41,Hi,,,,,,0,,,,,,,,low,17,0,17,0,1,,,,,,,,,
293530,2022-12-06_15h16.14.241,vts_reward_expectancy_bt,2022.2.4,MacIntel,58.82352941,Safari,1440,900,,,,,10,752,,,,,,,,,,,,,,,,,D,174,hexagon,1,1,,,,,,,,,,,,,,,,switch,number,numSwt,k,1.068,Lo,,,,,,0,,,,,,,,low,18,0,18,0,1,,,,,,,,,
293530,2022-12-06_15h16.14.241,vts_reward_expectancy_bt,2022.2.4,MacIntel,58.82352941,Safari,1440,900,,,,,0,752,,,,,,,,,,,,,,,,,H,181,triangle,1,0,,,,,,,,,,,,,,,,switch,letter,lettSwt,d,0.907,Hi,,,,,,0,,,,,,,,low,19,0,19,0,1,,,,,,,,,
293530,2022-12-06_15h16.14.241,vts_reward_expectancy_bt,2022.2.4,MacIntel,58.82352941,Safari,1440,900,,,,,1,753,,,,,,,,,,,,,,,,,S,125,hexagon,1,0,,,,,,,,,,,,,,,,repeat,letter,lettRpt,f,0.559,Lo,,,,,,0,,,,,,,,low,20,0,20,0,1,,,,,,,,,
293530,2022-12-06_15h16.14.241,vts_reward_expectancy_bt,2022.2.4,MacIntel,58.82352941,Safari,1440,900,,,,,1,754,,,,,,,,,,,,,,,,,U,132,circle,1,0,,,,,,,,,,,,,,,,repeat,letter,lettRpt,f,0.653,Lo,,,,,,0,,,,,,,,low,21,0,21,0,1,,,,,,,,,
293530,2022-12-06_15h16.14.241,vts_reward_expectancy_bt,2022.2.4,MacIntel,58.82352941,Safari,1440,900,,,,,1,755,,,,,,,,,,,,,,,,,W,167,triangle,1,0,,,,,,,,,,,,,,,,switch,number,numSwt,k,0.625,Hi,,,,,,0,,,,,,,,low,22,0,22,0,1,,,,,,,,,
293530,2022-12-06_15h16.14.241,vts_reward_expectancy_bt,2022.2.4,MacIntel,58.82352941,Safari,1440,900,,,,,0,755,,,,,,,,,,,,,,,,,F,160,star,1,0,,,,,,,,,,,,,,,,switch,letter,lettSwt,d,0.978,Hi,,,,,,0,,,,,,,,low,23,0,23,0,1,,,,,,,,,
293530,2022-12-06_15h16.14.241,vts_reward_expectancy_bt,2022.2.4,MacIntel,58.82352941,Safari,1440,900,,,,,0,755,,,,,,,,,,,,,,,,,S,146,star,1,0,,,,,,,,,,,,,,,,repeat,letter,lettRpt,f,0.88,Hi,,,,,,0,,,,,,,,low,24,0,24,0,1,,,,,,,,,
293530,2022-12-06_15h16.14.241,vts_reward_expectancy_bt,2022.2.4,MacIntel,58.82352941,Safari,1440,900,,,,,10,765,,,,,,,,,,,,,,,,,W,160,triangle,1,0,,,,,,,,,,,,,,,,switch,number,numSwt,k,0.726,Hi,,,,,,0,,,,,,,,low,25,0,25,0,1,,,,,,,,,
293530,2022-12-06_15h16.14.241,vts_reward_expectancy_bt,2022.2.4,MacIntel,58.82352941,Safari,1440,900,,,,,10,775,,,,,,,,,,,,,,,,,F,132,hexagon,1,0,,,,,,,,,,,,,,,,switch,letter,lettSwt,d,0.649,Lo,,,,,,0,,,,,,,,low,26,0,26,0,1,,,,,,,,,
293530,2022-12-06_15h16.14.241,vts_reward_expectancy_bt,2022.2.4,MacIntel,58.82352941,Safari,1440,900,,,,,10,785,,,,,,,,,,,,,,,,,D,125,circle,1,0,,,,,,,,,,,,,,,,repeat,letter,lettRpt,d,0.674,Lo,,,,,,0,,,,,,,,low,27,0,27,0,1,,,,,,,,,
293530,2022-12-06_15h16.14.241,vts_reward_expectancy_bt,2022.2.4,MacIntel,58.82352941,Safari,1440,900,,,,,0,785,,,,,,,,,,,,,,,,,U,139,star,1,0,,,,,,,,,,,,,,,,repeat,letter,lettRpt,f,0.894,Hi,,,,,,0,,,,,,,,low,28,0,28,0,1,,,,,,,,,
293530,2022-12-06_15h16.14.241,vts_reward_expectancy_bt,2022.2.4,MacIntel,58.82352941,Safari,1440,900,,,,,10,795,,,,,,,,,,,,,,,,,H,181,hexagon,1,0,,,,,,,,,,,,,,,,repeat,letter,lettRpt,d,0.594,Lo,,,,,,0,,,,,,,,low,29,0,29,0,1,,,,,,,,,
293530,2022-12-06_15h16.14.241,vts_reward_expectancy_bt,2022.2.4,MacIntel,58.82352941,Safari,1440,900,,,,,10,805,,,,,,,,,,,,,,,,,Y,174,triangle,1,0,,,,,,,,,,,,,,,,repeat,letter,lettRpt,f,0.592,Hi,,,,,,0,,,,,,,,low,30,0,30,0,1,,,,,,,,,
293530,2022-12-06_15h16.14.241,vts_reward_expectancy_bt,2022.2.4,MacIntel,58.82352941,Safari,1440,900,,,,,1,806,,,,,,,,,,,,,,,,,B,167,circle,1,0,,,,,,,,,,,,,,,,repeat,letter,lettRpt,d,0.752,Lo,,,,,,0,,,,,,,,low,31,0,31,0,1,,,,,,,,,
293530,2022-12-06_15h16.14.241,vts_reward_expectancy_bt,2022.2.4,MacIntel,58.82352941,Safari,1440,900,,,,,1,807,,,,,,,,,,,,,,,,,D,132,hexagon,1,0,,,,,,,,,,,,,,,,repeat,letter,lettRpt,d,0.824,Lo,,,,,,1,,,,,,space,3.962,low,0,0,0,0,1,,,,,,,,,
293530,2022-12-06_15h16.14.241,vts_reward_expectancy_bt,2022.2.4,MacIntel,58.82352941,Safari,1440,900,,,,,1,808,,,,,,,,,,,,,,,,,U,125,circle,1,0,,,,,,,,,,,,,,,,switch,number,numSwt,j,1.036,Lo,,,,,,1,,,,,,,,low,1,0,1,0,1,,,,,,,,,
293530,2022-12-06_15h16.14.241,vts_reward_expectancy_bt,2022.2.4,MacIntel,58.82352941,Safari,1440,900,,,,,0,808,,,,,,,,,,,,,,,,,S,146,triangle,1,0,,,,,,,,,,,,,,,,repeat,number,numRpt,j,0.681,Hi,,,,,,1,,,,,,,,low,2,0,2,0,1,,,,,,,,,
293530,2022-12-06_15h16.14.241,vts_reward_expectancy_bt,2022.2.4,MacIntel,58.82352941,Safari,1440,900,,,,,0,808,,,,,,,,,,,,,,,,,W,167,star,1,0,,,,,,,,,,,,,,,,repeat,number,numRpt,k,0.858,Hi,,,,,,1,,,,,,,,low,3,0,3,0,1,,,,,,,,,
293530,2022-12-06_15h16.14.241,vts_reward_expectancy_bt,2022.2.4,MacIntel,58.82352941,Safari,1440,900,,,,,10,818,,,,,,,,,,,,,,,,,B,160,hexagon,1,0,,,,,,,,,,,,,,,,repeat,number,numRpt,k,0.919,Lo,,,,,,1,,,,,,,,low,4,0,4,0,1,,,,,,,,,
293530,2022-12-06_15h16.14.241,vts_reward_expectancy_bt,2022.2.4,MacIntel,58.82352941,Safari,1440,900,,,,,10,828,,,,,,,,,,,,,,,,,H,174,circle,1,0,,,,,,,,,,,,,,,,repeat,number,numRpt,k,0.761,Lo,,,,,,1,,,,,,,,low,5,0,5,0,1,,,,,,,,,
293530,2022-12-06_15h16.14.241,vts_reward_expectancy_bt,2022.2.4,MacIntel,58.82352941,Safari,1440,900,,,,,0,828,,,,,,,,,,,,,,,,,Y,181,triangle,1,0,,,,,,,,,,,,,,,,switch,letter,lettSwt,f,0.796,Hi,,,,,,1,,,,,,,,low,6,0,6,0,1,,,,,,,,,
293530,2022-12-06_15h16.14.241,vts_reward_expectancy_bt,2022.2.4,MacIntel,58.82352941,Safari,1440,900,,,,,0,828,,,,,,,,,,,,,,,,,F,139,star,1,0,,,,,,,,,,,,,,,,repeat,letter,lettRpt,d,0.675,Hi,,,,,,1,,,,,,,,low,7,0,7,0,1,,,,,,,,,
293530,2022-12-06_15h16.14.241,vts_reward_expectancy_bt,2022.2.4,MacIntel,58.82352941,Safari,1440,900,,,,,1,829,,,,,,,,,,,,,,,,,D,132,star,1,0,,,,,,,,,,,,,,,,switch,number,numSwt,j,0.476,Hi,,,,,,1,,,,,,,,low,8,0,8,0,1,,,,,,,,,
293530,2022-12-06_15h16.14.241,vts_reward_expectancy_bt,2022.2.4,MacIntel,58.82352941,Safari,1440,900,,,,,1,830,,,,,,,,,,,,,,,,,U,125,circle,1,0,,,,,,,,,,,,,,,,repeat,number,numRpt,j,0.725,Lo,,,,,,1,,,,,,,,low,9,0,9,0,1,,,,,,,,,
293530,2022-12-06_15h16.14.241,vts_reward_expectancy_bt,2022.2.4,MacIntel,58.82352941,Safari,1440,900,,,,,0,830,,,,,,,,,,,,,,,,,S,146,triangle,1,0,,,,,,,,,,,,,,,,repeat,number,numRpt,j,1.253,Hi,,,,,,1,,,,,,,,low,10,0,10,0,1,,,,,,,,,
293530,2022-12-06_15h16.14.241,vts_reward_expectancy_bt,2022.2.4,MacIntel,58.82352941,Safari,1440,900,,,,,10,840,,,,,,,,,,,,,,,,,W,167,hexagon,1,0,,,,,,,,,,,,,,,,switch,letter,lettSwt,f,1.843,Lo,,,,,,1,,,,,,,,low,11,0,11,0,1,,,,,,,,,
293530,2022-12-06_15h16.14.241,vts_reward_expectancy_bt,2022.2.4,MacIntel,58.82352941,Safari,1440,900,,,,,0,840,,,,,,,,,,,,,,,,,B,160,triangle,1,0,,,,,,,,,,,,,,,,repeat,letter,lettRpt,d,0.807,Hi,,,,,,1,,,,,,,,low,12,0,12,0,1,,,,,,,,,
293530,2022-12-06_15h16.14.241,vts_reward_expectancy_bt,2022.2.4,MacIntel,58.82352941,Safari,1440,900,,,,,10,850,,,,,,,,,,,,,,,,,H,174,hexagon,1,0,,,,,,,,,,,,,,,,repeat,letter,lettRpt,d,0.744,Lo,,,,,,1,,,,,,,,low,13,0,13,0,1,,,,,,,,,
293530,2022-12-06_15h16.14.241,vts_reward_expectancy_bt,2022.2.4,MacIntel,58.82352941,Safari,1440,900,,,,,0,850,,,,,,,,,,,,,,,,,Y,181,star,1,0,,,,,,,,,,,,,,,,repeat,letter,lettRpt,f,1.043,Hi,,,,,,1,,,,,,,,low,14,0,14,0,1,,,,,,,,,
293530,2022-12-06_15h16.14.241,vts_reward_expectancy_bt,2022.2.4,MacIntel,58.82352941,Safari,1440,900,,,,,10,860,,,,,,,,,,,,,,,,,F,139,circle,1,0,,,,,,,,,,,,,,,,repeat,letter,lettRpt,d,2.02,Lo,,,,,,1,,,,,,,,low,15,0,15,0,1,,,,,,,,,
293530,2022-12-06_15h16.14.241,vts_reward_expectancy_bt,2022.2.4,MacIntel,58.82352941,Safari,1440,900,,,,,0,860,,,,,,,,,,,,,,,,,F,139,triangle,1,0,,,,,,,,,,,,,,,,repeat,letter,lettRpt,d,0.805,Hi,,,,,,1,,,,,,,,low,16,0,16,0,1,,,,,,,,,
293530,2022-12-06_15h16.14.241,vts_reward_expectancy_bt,2022.2.4,MacIntel,58.82352941,Safari,1440,900,,,,,0,860,,,,,,,,,,,,,,,,,H,174,star,1,0,,,,,,,,,,,,,,,,repeat,letter,lettRpt,d,0.672,Hi,,,,,,1,,,,,,,,low,17,0,17,0,1,,,,,,,,,
293530,2022-12-06_15h16.14.241,vts_reward_expectancy_bt,2022.2.4,MacIntel,58.82352941,Safari,1440,900,,,,,10,870,,,,,,,,,,,,,,,,,W,125,hexagon,1,0,,,,,,,,,,,,,,,,repeat,letter,lettRpt,f,0.729,Lo,,,,,,1,,,,,,,,low,18,0,18,0,1,,,,,,,,,
293530,2022-12-06_15h16.14.241,vts_reward_expectancy_bt,2022.2.4,MacIntel,58.82352941,Safari,1440,900,,,,,1,871,,,,,,,,,,,,,,,,,Y,181,circle,1,0,,,,,,,,,,,,,,,,repeat,letter,lettRpt,f,0.681,Lo,,,,,,1,,,,,,,,low,19,0,19,0,1,,,,,,,,,
293530,2022-12-06_15h16.14.241,vts_reward_expectancy_bt,2022.2.4,MacIntel,58.82352941,Safari,1440,900,,,,,0,871,,,,,,,,,,,,,,,,,D,160,star,1,0,,,,,,,,,,,,,,,,repeat,letter,lettRpt,d,0.794,Hi,,,,,,1,,,,,,,,low,20,0,20,0,1,,,,,,,,,
293530,2022-12-06_15h16.14.241,vts_reward_expectancy_bt,2022.2.4,MacIntel,58.82352941,Safari,1440,900,,,,,10,881,,,,,,,,,,,,,,,,,S,167,hexagon,1,0,,,,,,,,,,,,,,,,repeat,letter,lettRpt,f,0.64,Lo,,,,,,1,,,,,,,,low,21,0,21,0,1,,,,,,,,,
293530,2022-12-06_15h16.14.241,vts_reward_expectancy_bt,2022.2.4,MacIntel,58.82352941,Safari,1440,900,,,,,1,882,,,,,,,,,,,,,,,,,U,132,circle,1,0,,,,,,,,,,,,,,,,repeat,letter,lettRpt,f,0.886,Lo,,,,,,1,,,,,,,,low,22,0,22,0,1,,,,,,,,,
293530,2022-12-06_15h16.14.241,vts_reward_expectancy_bt,2022.2.4,MacIntel,58.82352941,Safari,1440,900,,,,,0,882,,,,,,,,,,,,,,,,,B,146,triangle,1,0,,,,,,,,,,,,,,,,repeat,letter,lettRpt,d,0.825,Hi,,,,,,1,,,,,,,,low,23,0,23,0,1,,,,,,,,,
293530,2022-12-06_15h16.14.241,vts_reward_expectancy_bt,2022.2.4,MacIntel,58.82352941,Safari,1440,900,,,,,0,882,,,,,,,,,,,,,,,,,S,160,triangle,1,0,,,,,,,,,,,,,,,,repeat,letter,lettRpt,f,0.677,Hi,,,,,,1,,,,,,,,low,24,0,24,0,1,,,,,,,,,
293530,2022-12-06_15h16.14.241,vts_reward_expectancy_bt,2022.2.4,MacIntel,58.82352941,Safari,1440,900,,,,,10,892,,,,,,,,,,,,,,,,,H,132,circle,1,0,,,,,,,,,,,,,,,,repeat,letter,lettRpt,d,0.808,Lo,,,,,,1,,,,,,,,low,25,0,25,0,1,,,,,,,,,
293530,2022-12-06_15h16.14.241,vts_reward_expectancy_bt,2022.2.4,MacIntel,58.82352941,Safari,1440,900,,,,,1,893,,,,,,,,,,,,,,,,,Y,139,hexagon,1,0,,,,,,,,,,,,,,,,repeat,letter,lettRpt,f,0.661,Lo,,,,,,1,,,,,,,,low,26,0,26,0,1,,,,,,,,,
293530,2022-12-06_15h16.14.241,vts_reward_expectancy_bt,2022.2.4,MacIntel,58.82352941,Safari,1440,900,,,,,0,893,,,,,,,,,,,,,,,,,F,146,star,1,0,,,,,,,,,,,,,,,,repeat,letter,lettRpt,d,0.659,Hi,,,,,,1,,,,,,,,low,27,0,27,0,1,,,,,,,,,
293530,2022-12-06_15h16.14.241,vts_reward_expectancy_bt,2022.2.4,MacIntel,58.82352941,Safari,1440,900,,,,,0,893,,,,,,,,,,,,,,,,,B,167,star,1,0,,,,,,,,,,,,,,,,repeat,letter,lettRpt,d,0.645,Hi,,,,,,1,,,,,,,,low,28,0,28,0,1,,,,,,,,,
293530,2022-12-06_15h16.14.241,vts_reward_expectancy_bt,2022.2.4,MacIntel,58.82352941,Safari,1440,900,,,,,10,903,,,,,,,,,,,,,,,,,U,125,hexagon,1,0,,,,,,,,,,,,,,,,repeat,letter,lettRpt,f,0.922,Lo,,,,,,1,,,,,,,,low,29,0,29,0,1,,,,,,,,,
293530,2022-12-06_15h16.14.241,vts_reward_expectancy_bt,2022.2.4,MacIntel,58.82352941,Safari,1440,900,,,,,1,904,,,,,,,,,,,,,,,,,D,181,circle,1,0,,,,,,,,,,,,,,,,repeat,letter,lettRpt,d,0.949,Lo,,,,,,1,,,,,,,,low,30,0,30,0,1,,,,,,,,,
293530,2022-12-06_15h16.14.241,vts_reward_expectancy_bt,2022.2.4,MacIntel,58.82352941,Safari,1440,900,,,,,0,904,,,,,,,,,,,,,,,,,W,174,triangle,1,0,,,,,,,,,,,,,,,,repeat,letter,lettRpt,f,0.793,Hi,,,,,,1,,,,,,,,low,31,0,31,0,1,,,,,,,,,
293530,2022-12-06_15h16.14.241,vts_reward_expectancy_bt,2022.2.4,MacIntel,58.82352941,Safari,1440,900,,,,,10,914,,,,,,,,,,,,,,,,,D,146,hexagon,1,0,,,,,,,,,,,,,,,,repeat,letter,lettRpt,d,0.659,Lo,,,,,,2,,,,,,space,1.182,low,0,0,0,0,1,,,,,,,,,
293530,2022-12-06_15h16.14.241,vts_reward_expectancy_bt,2022.2.4,MacIntel,58.82352941,Safari,1440,900,,,,,10,924,,,,,,,,,,,,,,,,,H,174,circle,1,0,,,,,,,,,,,,,,,,repeat,letter,lettRpt,d,1.723,Lo,,,,,,2,,,,,,,,low,1,0,1,0,1,,,,,,,,,
293530,2022-12-06_15h16.14.241,vts_reward_expectancy_bt,2022.2.4,MacIntel,58.82352941,Safari,1440,900,,,,,0,924,,,,,,,,,,,,,,,,,S,167,star,1,0,,,,,,,,,,,,,,,,repeat,letter,lettRpt,f,1.648,Hi,,,,,,2,,,,,,,,low,2,0,2,0,1,,,,,,,,,
293530,2022-12-06_15h16.14.241,vts_reward_expectancy_bt,2022.2.4,MacIntel,58.82352941,Safari,1440,900,,,,,1,925,,,,,,,,,,,,,,,,,Y,139,triangle,1,0,,,,,,,,,,,,,,,,repeat,letter,lettRpt,f,0.578,Hi,,,,,,2,,,,,,,,low,3,0,3,0,1,,,,,,,,,
293530,2022-12-06_15h16.14.241,vts_reward_expectancy_bt,2022.2.4,MacIntel,58.82352941,Safari,1440,900,,,,,1,926,,,,,,,,,,,,,,,,,U,132,hexagon,1,0,,,,,,,,,,,,,,,,switch,number,numSwt,j,0.475,Lo,,,,,,2,,,,,,,,low,4,0,4,0,1,,,,,,,,,
293530,2022-12-06_15h16.14.241,vts_reward_expectancy_bt,2022.2.4,MacIntel,58.82352941,Safari,1440,900,,,,,1,927,,,,,,,,,,,,,,,,,F,181,circle,1,0,,,,,,,,,,,,,,,,repeat,number,numRpt,k,0.995,Lo,,,,,,2,,,,,,,,low,5,0,5,0,1,,,,,,,,,
293530,2022-12-06_15h16.14.241,vts_reward_expectancy_bt,2022.2.4,MacIntel,58.82352941,Safari,1440,900,,,,,0,927,,,,,,,,,,,,,,,,,W,160,star,1,0,,,,,,,,,,,,,,,,repeat,number,numRpt,k,0.924,Hi,,,,,,2,,,,,,,,low,6,0,6,0,1,,,,,,,,,
293530,2022-12-06_15h16.14.241,vts_reward_expectancy_bt,2022.2.4,MacIntel,58.82352941,Safari,1440,900,,,,,1,928,,,,,,,,,,,,,,,,,B,125,triangle,1,0,,,,,,,,,,,,,,,,repeat,number,numRpt,j,0.606,Hi,,,,,,2,,,,,,,,low,7,0,7,0,1,,,,,,,,,
293530,2022-12-06_15h16.14.241,vts_reward_expectancy_bt,2022.2.4,MacIntel,58.82352941,Safari,1440,900,,,,,1,929,,,,,,,,,,,,,,,,,D,146,hexagon,1,0,,,,,,,,,,,,,,,,repeat,number,numRpt,j,0.775,Lo,,,,,,2,,,,,,,,low,8,0,8,0,1,,,,,,,,,
293530,2022-12-06_15h16.14.241,vts_reward_expectancy_bt,2022.2.4,MacIntel,58.82352941,Safari,1440,900,,,,,10,939,,,,,,,,,,,,,,,,,H,174,star,1,0,,,,,,,,,,,,,,,,switch,letter,lettSwt,d,0.589,Hi,,,,,,2,,,,,,,,low,9,0,9,0,1,,,,,,,,,
293530,2022-12-06_15h16.14.241,vts_reward_expectancy_bt,2022.2.4,MacIntel,58.82352941,Safari,1440,900,,,,,1,940,,,,,,,,,,,,,,,,,S,167,circle,1,0,,,,,,,,,,,,,,,,repeat,letter,lettRpt,f,0.69,Lo,,,,,,2,,,,,,,,low,10,0,10,0,1,,,,,,,,,
293530,2022-12-06_15h16.14.241,vts_reward_expectancy_bt,2022.2.4,MacIntel,58.82352941,Safari,1440,900,,,,,0,940,,,,,,,,,,,,,,,,,Y,139,triangle,1,0,,,,,,,,,,,,,,,,repeat,letter,lettRpt,f,0.772,Hi,,,,,,2,,,,,,,,low,11,0,11,0,1,,,,,,,,,
293530,2022-12-06_15h16.14.241,vts_reward_expectancy_bt,2022.2.4,MacIntel,58.82352941,Safari,1440,900,,,,,0,940,,,,,,,,,,,,,,,,,U,132,star,1,0,,,,,,,,,,,,,,,,repeat,letter,lettRpt,f,0.692,Hi,,,,,,2,,,,,,,,low,12,0,12,0,1,,,,,,,,,
293530,2022-12-06_15h16.14.241,vts_reward_expectancy_bt,2022.2.4,MacIntel,58.82352941,Safari,1440,900,,,,,0,940,,,,,,,,,,,,,,,,,F,181,triangle,1,0,,,,,,,,,,,,,,,,repeat,letter,lettRpt,d,0.758,Hi,,,,,,2,,,,,,,,low,13,0,13,0,1,,,,,,,,,
293530,2022-12-06_15h16.14.241,vts_reward_expectancy_bt,2022.2.4,MacIntel,58.82352941,Safari,1440,900,,,,,1,941,,,,,,,,,,,,,,,,,W,160,hexagon,1,0,,,,,,,,,,,,,,,,repeat,letter,lettRpt,f,0.694,Lo,,,,,,2,,,,,,,,low,14,0,14,0,1,,,,,,,,,
293530,2022-12-06_15h16.14.241,vts_reward_expectancy_bt,2022.2.4,MacIntel,58.82352941,Safari,1440,900,,,,,1,942,,,,,,,,,,,,,,,,,B,125,circle,1,0,,,,,,,,,,,,,,,,repeat,letter,lettRpt,d,0.729,Lo,,,,,,2,,,,,,,,low,15,0,15,0,1,,,,,,,,,
293530,2022-12-06_15h16.14.241,vts_reward_expectancy_bt,2022.2.4,MacIntel,58.82352941,Safari,1440,900,,,,,10,952,,,,,,,,,,,,,,,,,W,174,hexagon,1,0,,,,,,,,,,,,,,,,repeat,letter,lettRpt,f,1.098,Lo,,,,,,2,,,,,,,,low,16,0,16,0,1,,,,,,,,,
293530,2022-12-06_15h16.14.241,vts_reward_expectancy_bt,2022.2.4,MacIntel,58.82352941,Safari,1440,900,,,,,0,952,,,,,,,,,,,,,,,,,Y,132,triangle,1,0,,,,,,,,,,,,,,,,repeat,letter,lettRpt,f,0.798,Hi,,,,,,2,,,,,,,,low,17,0,17,0,1,,,,,,,,,
293530,2022-12-06_15h16.14.241,vts_reward_expectancy_bt,2022.2.4,MacIntel,58.82352941,Safari,1440,900,,,,,1,953,,,,,,,,,,,,,,,,,H,139,circle,1,0,,,,,,,,,,,,,,,,repeat,letter,lettRpt,d,0.768,Lo,,,,,,2,,,,,,,,low,18,0,18,0,1,,,,,,,,,
293530,2022-12-06_15h16.14.241,vts_reward_expectancy_bt,2022.2.4,MacIntel,58.82352941,Safari,1440,900,,,,,1,954,,,,,,,,,,,,,,,,,B,167,star,1,0,,,,,,,,,,,,,,,,repeat,letter,lettRpt,d,0.609,Hi,,,,,,2,,,,,,,,low,19,0,19,0,1,,,,,,,,,
293530,2022-12-06_15h16.14.241,vts_reward_expectancy_bt,2022.2.4,MacIntel,58.82352941,Safari,1440,900,,,,,10,964,,,,,,,,,,,,,,,,,F,146,circle,1,0,,,,,,,,,,,,,,,,repeat,letter,lettRpt,d,0.73,Lo,,,,,,2,,,,,,,,low,20,0,20,0,1,,,,,,,,,
293530,2022-12-06_15h16.14.241,vts_reward_expectancy_bt,2022.2.4,MacIntel,58.82352941,Safari,1440,900,,,,,0,964,,,,,,,,,,,,,,,,,S,181,triangle,0,0,,,,,,,,,,,,,,,,repeat,letter,NA,d,0.688,Lo,,,,,,2,,,,,,,,low,21,0,21,0,1,,,,,,,,,
293530,2022-12-06_15h16.14.241,vts_reward_expectancy_bt,2022.2.4,MacIntel,58.82352941,Safari,1440,900,,,,,10,974,,,,,,,,,,,,,,,,,D,160,star,1,1,,,,,,,,,,,,,,,,switch,number,numSwt,k,0.673,Hi,,,,,,2,,,,,,,,low,22,0,22,0,1,,,,,,,,,
293530,2022-12-06_15h16.14.241,vts_reward_expectancy_bt,2022.2.4,MacIntel,58.82352941,Safari,1440,900,,,,,1,975,,,,,,,,,,,,,,,,,U,125,hexagon,1,0,,,,,,,,,,,,,,,,repeat,number,numRpt,j,0.754,Lo,,,,,,2,,,,,,,,low,23,0,23,0,1,,,,,,,,,
293530,2022-12-06_15h16.14.241,vts_reward_expectancy_bt,2022.2.4,MacIntel,58.82352941,Safari,1440,900,,,,,0,975,,,,,,,,,,,,,,,,,W,146,triangle,1,0,,,,,,,,,,,,,,,,repeat,number,numRpt,j,0.755,Hi,,,,,,2,,,,,,,,low,24,0,24,0,1,,,,,,,,,
293530,2022-12-06_15h16.14.241,vts_reward_expectancy_bt,2022.2.4,MacIntel,58.82352941,Safari,1440,900,,,,,1,976,,,,,,,,,,,,,,,,,F,167,hexagon,1,0,,,,,,,,,,,,,,,,switch,letter,lettSwt,d,0.71,Lo,,,,,,2,,,,,,,,low,25,0,25,0,1,,,,,,,,,
293530,2022-12-06_15h16.14.241,vts_reward_expectancy_bt,2022.2.4,MacIntel,58.82352941,Safari,1440,900,,,,,0,976,,,,,,,,,,,,,,,,,S,174,star,1,0,,,,,,,,,,,,,,,,repeat,letter,lettRpt,f,0.777,Hi,,,,,,2,,,,,,,,low,26,0,26,0,1,,,,,,,,,
293530,2022-12-06_15h16.14.241,vts_reward_expectancy_bt,2022.2.4,MacIntel,58.82352941,Safari,1440,900,,,,,1,977,,,,,,,,,,,,,,,,,U,181,circle,1,0,,,,,,,,,,,,,,,,repeat,letter,lettRpt,f,0.794,Lo,,,,,,2,,,,,,,,low,27,0,27,0,1,,,,,,,,,
293530,2022-12-06_15h16.14.241,vts_reward_expectancy_bt,2022.2.4,MacIntel,58.82352941,Safari,1440,900,,,,,0,977,,,,,,,,,,,,,,,,,B,139,triangle,1,0,,,,,,,,,,,,,,,,repeat,letter,lettRpt,d,0.682,Hi,,,,,,2,,,,,,,,low,28,0,28,0,1,,,,,,,,,
293530,2022-12-06_15h16.14.241,vts_reward_expectancy_bt,2022.2.4,MacIntel,58.82352941,Safari,1440,900,,,,,1,978,,,,,,,,,,,,,,,,,H,132,circle,1,0,,,,,,,,,,,,,,,,repeat,letter,lettRpt,d,0.761,Lo,,,,,,2,,,,,,,,low,29,0,29,0,1,,,,,,,,,
293530,2022-12-06_15h16.14.241,vts_reward_expectancy_bt,2022.2.4,MacIntel,58.82352941,Safari,1440,900,,,,,10,988,,,,,,,,,,,,,,,,,Y,160,hexagon,1,0,,,,,,,,,,,,,,,,repeat,letter,lettRpt,f,0.693,Lo,,,,,,2,,,,,,,,low,30,0,30,0,1,,,,,,,,,
293530,2022-12-06_15h16.14.241,vts_reward_expectancy_bt,2022.2.4,MacIntel,58.82352941,Safari,1440,900,,,,,0,988,,,,,,,,,,,,,,,,,D,125,star,1,0,,,,,,,,,,,,,,,,repeat,letter,lettRpt,d,0.995,Hi,,,,,,2,,,,,,,,low,31,0,31,0,1,,,,,,,,,
293530,2022-12-06_15h16.14.241,vts_reward_expectancy_bt,2022.2.4,MacIntel,58.82352941,Safari,1440,900,,,,,1,989,,,,,,,,,,,,,,,,,H,160,circle,1,0,,,,,,,,,,,,,,,,repeat,letter,lettRpt,d,1.11,Lo,,,,,,3,,,,,,space,1.087,low,0,0,0,0,1,,,,,,,,,
293530,2022-12-06_15h16.14.241,vts_reward_expectancy_bt,2022.2.4,MacIntel,58.82352941,Safari,1440,900,,,,,10,999,,,,,,,,,,,,,,,,,Y,167,hexagon,1,0,,,,,,,,,,,,,,,,repeat,letter,lettRpt,f,0.727,Lo,,,,,,3,,,,,,,,low,1,0,1,0,1,,,,,,,,,
293530,2022-12-06_15h16.14.241,vts_reward_expectancy_bt,2022.2.4,MacIntel,58.82352941,Safari,1440,900,,,,,0,999,,,,,,,,,,,,,,,,,D,139,triangle,1,0,,,,,,,,,,,,,,,,repeat,letter,lettRpt,d,1.61,Hi,,,,,,3,,,,,,,,low,2,0,2,0,1,,,,,,,,,
293530,2022-12-06_15h16.14.241,vts_reward_expectancy_bt,2022.2.4,MacIntel,58.82352941,Safari,1440,900,,,,,0,999,,,,,,,,,,,,,,,,,U,132,star,1,0,,,,,,,,,,,,,,,,repeat,letter,lettRpt,f,1.374,Hi,,,,,,3,,,,,,,,low,3,0,3,0,1,,,,,,,,,
293530,2022-12-06_15h16.14.241,vts_reward_expectancy_bt,2022.2.4,MacIntel,58.82352941,Safari,1440,900,,,,,10,1009,,,,,,,,,,,,,,,,,W,146,circle,1,0,,,,,,,,,,,,,,,,switch,number,numSwt,j,0.6,Lo,,,,,,3,,,,,,,,low,4,0,4,0,1,,,,,,,,,
293530,2022-12-06_15h16.14.241,vts_reward_expectancy_bt,2022.2.4,MacIntel,58.82352941,Safari,1440,900,,,,,1,1010,,,,,,,,,,,,,,,,,B,125,hexagon,1,0,,,,,,,,,,,,,,,,repeat,number,numRpt,j,0.808,Lo,,,,,,3,,,,,,,,low,5,0,5,0,1,,,,,,,,,
293530,2022-12-06_15h16.14.241,vts_reward_expectancy_bt,2022.2.4,MacIntel,58.82352941,Safari,1440,900,,,,,0,1010,,,,,,,,,,,,,,,,,F,181,triangle,1,0,,,,,,,,,,,,,,,,repeat,number,numRpt,k,0.825,Hi,,,,,,3,,,,,,,,low,6,0,6,0,1,,,,,,,,,
293530,2022-12-06_15h16.14.241,vts_reward_expectancy_bt,2022.2.4,MacIntel,58.82352941,Safari,1440,900,,,,,0,1010,,,,,,,,,,,,,,,,,S,174,star,1,0,,,,,,,,,,,,,,,,repeat,number,numRpt,k,0.858,Hi,,,,,,3,,,,,,,,low,7,0,7,0,1,,,,,,,,,
293530,2022-12-06_15h16.14.241,vts_reward_expectancy_bt,2022.2.4,MacIntel,58.82352941,Safari,1440,900,,,,,1,1011,,,,,,,,,,,,,,,,,H,160,circle,1,0,,,,,,,,,,,,,,,,repeat,number,numRpt,k,0.944,Lo,,,,,,3,,,,,,,,low,8,0,8,0,1,,,,,,,,,
293530,2022-12-06_15h16.14.241,vts_reward_expectancy_bt,2022.2.4,MacIntel,58.82352941,Safari,1440,900,,,,,0,1011,,,,,,,,,,,,,,,,,Y,167,triangle,1,0,,,,,,,,,,,,,,,,repeat,number,numRpt,k,0.911,Hi,,,,,,3,,,,,,,,low,9,0,9,0,1,,,,,,,,,
293530,2022-12-06_15h16.14.241,vts_reward_expectancy_bt,2022.2.4,MacIntel,58.82352941,Safari,1440,900,,,,,0,1011,,,,,,,,,,,,,,,,,D,139,star,1,0,,,,,,,,,,,,,,,,repeat,number,numRpt,j,0.957,Hi,,,,,,3,,,,,,,,low,10,0,10,0,1,,,,,,,,,
293530,2022-12-06_15h16.14.241,vts_reward_expectancy_bt,2022.2.4,MacIntel,58.82352941,Safari,1440,900,,,,,1,1012,,,,,,,,,,,,,,,,,U,132,hexagon,1,0,,,,,,,,,,,,,,,,switch,letter,lettSwt,f,0.947,Lo,,,,,,3,,,,,,,,low,11,0,11,0,1,,,,,,,,,
293530,2022-12-06_15h16.14.241,vts_reward_expectancy_bt,2022.2.4,MacIntel,58.82352941,Safari,1440,900,,,,,0,1012,,,,,,,,,,,,,,,,,W,146,triangle,1,0,,,,,,,,,,,,,,,,switch,number,numSwt,j,1.109,Hi,,,,,,3,,,,,,,,low,12,0,12,0,1,,,,,,,,,
293530,2022-12-06_15h16.14.241,vts_reward_expectancy_bt,2022.2.4,MacIntel,58.82352941,Safari,1440,900,,,,,1,1013,,,,,,,,,,,,,,,,,B,125,circle,1,0,,,,,,,,,,,,,,,,repeat,number,numRpt,j,0.96,Lo,,,,,,3,,,,,,,,low,13,0,13,0,1,,,,,,,,,
293530,2022-12-06_15h16.14.241,vts_reward_expectancy_bt,2022.2.4,MacIntel,58.82352941,Safari,1440,900,,,,,0,1013,,,,,,,,,,,,,,,,,F,181,star,1,0,,,,,,,,,,,,,,,,repeat,number,numRpt,k,1.305,Hi,,,,,,3,,,,,,,,low,14,0,14,0,1,,,,,,,,,
293530,2022-12-06_15h16.14.241,vts_reward_expectancy_bt,2022.2.4,MacIntel,58.82352941,Safari,1440,900,,,,,10,1023,,,,,,,,,,,,,,,,,S,174,hexagon,1,0,,,,,,,,,,,,,,,,switch,letter,lettSwt,f,0.751,Lo,,,,,,3,,,,,,,,low,15,0,15,0,1,,,,,,,,,
293530,2022-12-06_15h16.14.241,vts_reward_expectancy_bt,2022.2.4,MacIntel,58.82352941,Safari,1440,900,,,,,1,1024,,,,,,,,,,,,,,,,,F,167,hexagon,1,0,,,,,,,,,,,,,,,,repeat,letter,lettRpt,d,1.311,Lo,,,,,,3,,,,,,,,low,16,0,16,0,1,,,,,,,,,
293530,2022-12-06_15h16.14.241,vts_reward_expectancy_bt,2022.2.4,MacIntel,58.82352941,Safari,1440,900,,,,,10,1034,,,,,,,,,,,,,,,,,S,174,circle,1,0,,,,,,,,,,,,,,,,repeat,letter,lettRpt,f,0.975,Lo,,,,,,3,,,,,,,,low,17,0,17,0,1,,,,,,,,,
293530,2022-12-06_15h16.14.241,vts_reward_expectancy_bt,2022.2.4,MacIntel,58.82352941,Safari,1440,900,,,,,0,1034,,,,,,,,,,,,,,,,,B,146,star,1,0,,,,,,,,,,,,,,,,repeat,letter,lettRpt,d,1.413,Hi,,,,,,3,,,,,,,,low,18,0,18,0,1,,,,,,,,,
293530,2022-12-06_15h16.14.241,vts_reward_expectancy_bt,2022.2.4,MacIntel,58.82352941,Safari,1440,900,,,,,0,1034,,,,,,,,,,,,,,,,,W,181,triangle,1,0,,,,,,,,,,,,,,,,repeat,letter,lettRpt,f,0.78,Hi,,,,,,3,,,,,,,,low,19,0,19,0,1,,,,,,,,,
293530,2022-12-06_15h16.14.241,vts_reward_expectancy_bt,2022.2.4,MacIntel,58.82352941,Safari,1440,900,,,,,0,1034,,,,,,,,,,,,,,,,,Y,125,star,1,0,,,,,,,,,,,,,,,,repeat,letter,lettRpt,f,1.056,Hi,,,,,,3,,,,,,,,low,20,0,20,0,1,,,,,,,,,
293530,2022-12-06_15h16.14.241,vts_reward_expectancy_bt,2022.2.4,MacIntel,58.82352941,Safari,1440,900,,,,,1,1035,,,,,,,,,,,,,,,,,H,160,triangle,1,0,,,,,,,,,,,,,,,,repeat,letter,lettRpt,d,0.673,Hi,,,,,,3,,,,,,,,low,21,0,21,0,1,,,,,,,,,
293530,2022-12-06_15h16.14.241,vts_reward_expectancy_bt,2022.2.4,MacIntel,58.82352941,Safari,1440,900,,,,,10,1045,,,,,,,,,,,,,,,,,D,139,circle,1,0,,,,,,,,,,,,,,,,repeat,letter,lettRpt,d,0.792,Lo,,,,,,3,,,,,,,,low,22,0,22,0,1,,,,,,,,,
293530,2022-12-06_15h16.14.241,vts_reward_expectancy_bt,2022.2.4,MacIntel,58.82352941,Safari,1440,900,,,,,1,1046,,,,,,,,,,,,,,,,,U,132,hexagon,1,0,,,,,,,,,,,,,,,,repeat,letter,lettRpt,f,0.841,Lo,,,,,,3,,,,,,,,low,23,0,23,0,1,,,,,,,,,
293530,2022-12-06_15h16.14.241,vts_reward_expectancy_bt,2022.2.4,MacIntel,58.82352941,Safari,1440,900,,,,,0,1046,,,,,,,,,,,,,,,,,D,139,triangle,1,0,,,,,,,,,,,,,,,,repeat,letter,lettRpt,d,1.21,Hi,,,,,,3,,,,,,,,low,24,0,24,0,1,,,,,,,,,
293530,2022-12-06_15h16.14.241,vts_reward_expectancy_bt,2022.2.4,MacIntel,58.82352941,Safari,1440,900,,,,,0,1046,,,,,,,,,,,,,,,,,H,132,star,0,0,,,,,,,,,,,,,,,,repeat,letter,NA,f,1.107,Hi,,,,,,3,,,,,,,,low,25,0,25,0,1,,,,,,,,,
293530,2022-12-06_15h16.14.241,vts_reward_expectancy_bt,2022.2.4,MacIntel,58.82352941,Safari,1440,900,,,,,1,1047,,,,,,,,,,,,,,,,,B,167,hexagon,1,1,,,,,,,,,,,,,,,,repeat,letter,lettRpt,d,0.707,Lo,,,,,,3,,,,,,,,low,26,0,26,0,1,,,,,,,,,
293530,2022-12-06_15h16.14.241,vts_reward_expectancy_bt,2022.2.4,MacIntel,58.82352941,Safari,1440,900,,,,,10,1057,,,,,,,,,,,,,,,,,S,125,circle,1,0,,,,,,,,,,,,,,,,repeat,letter,lettRpt,f,0.646,Lo,,,,,,3,,,,,,,,low,27,0,27,0,1,,,,,,,,,
293530,2022-12-06_15h16.14.241,vts_reward_expectancy_bt,2022.2.4,MacIntel,58.82352941,Safari,1440,900,,,,,10,1067,,,,,,,,,,,,,,,,,U,174,triangle,1,0,,,,,,,,,,,,,,,,repeat,letter,lettRpt,f,0.692,Hi,,,,,,3,,,,,,,,low,28,0,28,0,1,,,,,,,,,
293530,2022-12-06_15h16.14.241,vts_reward_expectancy_bt,2022.2.4,MacIntel,58.82352941,Safari,1440,900,,,,,1,1068,,,,,,,,,,,,,,,,,F,181,circle,1,0,,,,,,,,,,,,,,,,repeat,letter,lettRpt,d,0.693,Lo,,,,,,3,,,,,,,,low,29,0,29,0,1,,,,,,,,,
293530,2022-12-06_15h16.14.241,vts_reward_expectancy_bt,2022.2.4,MacIntel,58.82352941,Safari,1440,900,,,,,0,1068,,,,,,,,,,,,,,,,,W,160,star,1,0,,,,,,,,,,,,,,,,repeat,letter,lettRpt,f,1.733,Hi,,,,,,3,,,,,,,,low,30,0,30,0,1,,,,,,,,,
293530,2022-12-06_15h16.14.241,vts_reward_expectancy_bt,2022.2.4,MacIntel,58.82352941,Safari,1440,900,,,,,1,1069,,,,,,,,,,,,,,,,,Y,146,hexagon,1,0,,,,,,,,,,,,,,,,repeat,letter,lettRpt,f,0.768,Lo,,,,,,3,,,,,,,,low,31,0,31,0,1,,,,,,,,,
293530,2022-12-06_15h16.14.241,vts_reward_expectancy_bt,2022.2.4,MacIntel,58.82352941,Safari,1440,900,,,,,1,1070,,,,,,,,,,,,,,,,,W,132,circle,1,0,,,,,,,,,,,,,,,,repeat,letter,lettRpt,f,0.746,Lo,,,,,,4,,,,,,space,1.027,low,0,0,0,0,1,,,,,,,,,
293530,2022-12-06_15h16.14.241,vts_reward_expectancy_bt,2022.2.4,MacIntel,58.82352941,Safari,1440,900,,,,,10,1080,,,,,,,,,,,,,,,,,Y,174,triangle,1,0,,,,,,,,,,,,,,,,repeat,letter,lettRpt,f,0.572,Hi,,,,,,4,,,,,,,,low,1,0,1,0,1,,,,,,,,,
293530,2022-12-06_15h16.14.241,vts_reward_expectancy_bt,2022.2.4,MacIntel,58.82352941,Safari,1440,900,,,,,0,1080,,,,,,,,,,,,,,,,,H,139,star,0,0,,,,,,,,,,,,,,,,repeat,letter,NA,f,0.717,Hi,,,,,,4,,,,,,,,low,2,0,2,0,1,,,,,,,,,
293530,2022-12-06_15h16.14.241,vts_reward_expectancy_bt,2022.2.4,MacIntel,58.82352941,Safari,1440,900,,,,,10,1090,,,,,,,,,,,,,,,,,F,125,hexagon,1,1,,,,,,,,,,,,,,,,repeat,letter,lettRpt,d,0.826,Lo,,,,,,4,,,,,,,,low,3,0,3,0,1,,,,,,,,,
293530,2022-12-06_15h16.14.241,vts_reward_expectancy_bt,2022.2.4,MacIntel,58.82352941,Safari,1440,900,,,,,10,1100,,,,,,,,,,,,,,,,,U,181,circle,1,0,,,,,,,,,,,,,,,,repeat,letter,lettRpt,f,0.615,Lo,,,,,,4,,,,,,,,low,4,0,4,0,1,,,,,,,,,
293530,2022-12-06_15h16.14.241,vts_reward_expectancy_bt,2022.2.4,MacIntel,58.82352941,Safari,1440,900,,,,,1,1101,,,,,,,,,,,,,,,,,B,146,triangle,1,0,,,,,,,,,,,,,,,,repeat,letter,lettRpt,d,0.615,Hi,,,,,,4,,,,,,,,low,5,0,5,0,1,,,,,,,,,
293530,2022-12-06_15h16.14.241,vts_reward_expectancy_bt,2022.2.4,MacIntel,58.82352941,Safari,1440,900,,,,,0,1101,,,,,,,,,,,,,,,,,S,160,star,1,0,,,,,,,,,,,,,,,,repeat,letter,lettRpt,f,0.992,Hi,,,,,,4,,,,,,,,low,6,0,6,0,1,,,,,,,,,
293530,2022-12-06_15h16.14.241,vts_reward_expectancy_bt,2022.2.4,MacIntel,58.82352941,Safari,1440,900,,,,,10,1111,,,,,,,,,,,,,,,,,D,167,hexagon,1,0,,,,,,,,,,,,,,,,repeat,letter,lettRpt,d,0.96,Lo,,,,,,4,,,,,,,,low,7,0,7,0,1,,,,,,,,,
293530,2022-12-06_15h16.14.241,vts_reward_expectancy_bt,2022.2.4,MacIntel,58.82352941,Safari,1440,900,,,,,10,1121,,,,,,,,,,,,,,,,,W,132,circle,1,0,,,,,,,,,,,,,,,,switch,number,numSwt,j,0.838,Lo,,,,,,4,,,,,,,,low,8,0,8,0,1,,,,,,,,,
293530,2022-12-06_15h16.14.241,vts_reward_expectancy_bt,2022.2.4,MacIntel,58.82352941,Safari,1440,900,,,,,10,1131,,,,,,,,,,,,,,,,,Y,174,triangle,1,0,,,,,,,,,,,,,,,,repeat,number,numRpt,k,0.752,Hi,,,,,,4,,,,,,,,low,9,0,9,0,1,,,,,,,,,
293530,2022-12-06_15h16.14.241,vts_reward_expectancy_bt,2022.2.4,MacIntel,58.82352941,Safari,1440,900,,,,,1,1132,,,,,,,,,,,,,,,,,H,139,hexagon,1,0,,,,,,,,,,,,,,,,repeat,number,numRpt,j,0.829,Lo,,,,,,4,,,,,,,,low,10,0,10,0,1,,,,,,,,,
293530,2022-12-06_15h16.14.241,vts_reward_expectancy_bt,2022.2.4,MacIntel,58.82352941,Safari,1440,900,,,,,1,1133,,,,,,,,,,,,,,,,,F,125,star,1,0,,,,,,,,,,,,,,,,repeat,number,numRpt,j,0.779,Hi,,,,,,4,,,,,,,,low,11,0,11,0,1,,,,,,,,,
293530,2022-12-06_15h16.14.241,vts_reward_expectancy_bt,2022.2.4,MacIntel,58.82352941,Safari,1440,900,,,,,10,1143,,,,,,,,,,,,,,,,,U,181,circle,1,0,,,,,,,,,,,,,,,,repeat,number,numRpt,k,0.826,Lo,,,,,,4,,,,,,,,low,12,0,12,0,1,,,,,,,,,
293530,2022-12-06_15h16.14.241,vts_reward_expectancy_bt,2022.2.4,MacIntel,58.82352941,Safari,1440,900,,,,,1,1144,,,,,,,,,,,,,,,,,B,146,triangle,1,0,,,,,,,,,,,,,,,,switch,letter,lettSwt,d,0.792,Hi,,,,,,4,,,,,,,,low,13,0,13,0,1,,,,,,,,,
293530,2022-12-06_15h16.14.241,vts_reward_expectancy_bt,2022.2.4,MacIntel,58.82352941,Safari,1440,900,,,,,0,1144,,,,,,,,,,,,,,,,,S,160,star,1,0,,,,,,,,,,,,,,,,switch,number,numSwt,k,0.962,Hi,,,,,,4,,,,,,,,low,14,0,14,0,1,,,,,,,,,
293530,2022-12-06_15h16.14.241,vts_reward_expectancy_bt,2022.2.4,MacIntel,58.82352941,Safari,1440,900,,,,,10,1154,,,,,,,,,,,,,,,,,D,167,hexagon,1,0,,,,,,,,,,,,,,,,repeat,number,numRpt,k,1.044,Lo,,,,,,4,,,,,,,,low,15,0,15,0,1,,,,,,,,,
293530,2022-12-06_15h16.14.241,vts_reward_expectancy_bt,2022.2.4,MacIntel,58.82352941,Safari,1440,900,,,,,1,1155,,,,,,,,,,,,,,,,,Y,167,star,1,0,,,,,,,,,,,,,,,,switch,letter,lettSwt,f,0.595,Hi,,,,,,4,,,,,,,,low,16,0,16,0,1,,,,,,,,,
293530,2022-12-06_15h16.14.241,vts_reward_expectancy_bt,2022.2.4,MacIntel,58.82352941,Safari,1440,900,,,,,1,1156,,,,,,,,,,,,,,,,,U,160,circle,1,0,,,,,,,,,,,,,,,,repeat,letter,lettRpt,f,0.806,Lo,,,,,,4,,,,,,,,low,17,0,17,0,1,,,,,,,,,
293530,2022-12-06_15h16.14.241,vts_reward_expectancy_bt,2022.2.4,MacIntel,58.82352941,Safari,1440,900,,,,,1,1157,,,,,,,,,,,,,,,,,H,146,hexagon,1,0,,,,,,,,,,,,,,,,repeat,letter,lettRpt,d,0.928,Lo,,,,,,4,,,,,,,,low,18,0,18,0,1,,,,,,,,,
293530,2022-12-06_15h16.14.241,vts_reward_expectancy_bt,2022.2.4,MacIntel,58.82352941,Safari,1440,900,,,,,0,1157,,,,,,,,,,,,,,,,,W,125,triangle,1,0,,,,,,,,,,,,,,,,switch,number,numSwt,j,1.3,Hi,,,,,,4,,,,,,,,low,19,0,19,0,1,,,,,,,,,
293530,2022-12-06_15h16.14.241,vts_reward_expectancy_bt,2022.2.4,MacIntel,58.82352941,Safari,1440,900,,,,,0,1157,,,,,,,,,,,,,,,,,F,174,star,1,0,,,,,,,,,,,,,,,,switch,letter,lettSwt,d,1.091,Hi,,,,,,4,,,,,,,,low,20,0,20,0,1,,,,,,,,,
293530,2022-12-06_15h16.14.241,vts_reward_expectancy_bt,2022.2.4,MacIntel,58.82352941,Safari,1440,900,,,,,1,1158,,,,,,,,,,,,,,,,,D,132,hexagon,1,0,,,,,,,,,,,,,,,,repeat,letter,lettRpt,d,1.108,Lo,,,,,,4,,,,,,,,low,21,0,21,0,1,,,,,,,,,
293530,2022-12-06_15h16.14.241,vts_reward_expectancy_bt,2022.2.4,MacIntel,58.82352941,Safari,1440,900,,,,,10,1168,,,,,,,,,,,,,,,,,B,139,circle,1,0,,,,,,,,,,,,,,,,repeat,letter,lettRpt,d,1.148,Lo,,,,,,4,,,,,,,,low,22,0,22,0,1,,,,,,,,,
293530,2022-12-06_15h16.14.241,vts_reward_expectancy_bt,2022.2.4,MacIntel,58.82352941,Safari,1440,900,,,,,0,1168,,,,,,,,,,,,,,,,,S,181,triangle,1,0,,,,,,,,,,,,,,,,repeat,letter,lettRpt,f,0.793,Hi,,,,,,4,,,,,,,,low,23,0,23,0,1,,,,,,,,,
293530,2022-12-06_15h16.14.241,vts_reward_expectancy_bt,2022.2.4,MacIntel,58.82352941,Safari,1440,900,,,,,1,1169,,,,,,,,,,,,,,,,,S,125,hexagon,1,0,,,,,,,,,,,,,,,,repeat,letter,lettRpt,f,0.875,Lo,,,,,,4,,,,,,,,low,24,0,24,0,1,,,,,,,,,
293530,2022-12-06_15h16.14.241,vts_reward_expectancy_bt,2022.2.4,MacIntel,58.82352941,Safari,1440,900,,,,,0,1169,,,,,,,,,,,,,,,,,W,139,star,1,0,,,,,,,,,,,,,,,,switch,number,numSwt,j,0.692,Hi,,,,,,4,,,,,,,,low,25,0,25,0,1,,,,,,,,,
293530,2022-12-06_15h16.14.241,vts_reward_expectancy_bt,2022.2.4,MacIntel,58.82352941,Safari,1440,900,,,,,1,1170,,,,,,,,,,,,,,,,,H,132,circle,1,0,,,,,,,,,,,,,,,,repeat,number,numRpt,j,1.01,Lo,,,,,,4,,,,,,,,low,26,0,26,0,1,,,,,,,,,
293530,2022-12-06_15h16.14.241,vts_reward_expectancy_bt,2022.2.4,MacIntel,58.82352941,Safari,1440,900,,,,,10,1180,,,,,,,,,,,,,,,,,F,146,triangle,1,0,,,,,,,,,,,,,,,,repeat,number,numRpt,j,0.759,Hi,,,,,,4,,,,,,,,low,27,0,27,0,1,,,,,,,,,
293530,2022-12-06_15h16.14.241,vts_reward_expectancy_bt,2022.2.4,MacIntel,58.82352941,Safari,1440,900,,,,,10,1190,,,,,,,,,,,,,,,,,D,160,circle,1,0,,,,,,,,,,,,,,,,switch,letter,lettSwt,d,1.081,Lo,,,,,,4,,,,,,,,low,28,0,28,0,1,,,,,,,,,
293530,2022-12-06_15h16.14.241,vts_reward_expectancy_bt,2022.2.4,MacIntel,58.82352941,Safari,1440,900,,,,,1,1191,,,,,,,,,,,,,,,,,B,167,triangle,1,0,,,,,,,,,,,,,,,,repeat,letter,lettRpt,d,0.725,Hi,,,,,,4,,,,,,,,low,29,0,29,0,1,,,,,,,,,
293530,2022-12-06_15h16.14.241,vts_reward_expectancy_bt,2022.2.4,MacIntel,58.82352941,Safari,1440,900,,,,,0,1191,,,,,,,,,,,,,,,,,U,181,star,1,0,,,,,,,,,,,,,,,,repeat,letter,lettRpt,f,0.867,Hi,,,,,,4,,,,,,,,low,30,0,30,0,1,,,,,,,,,
293530,2022-12-06_15h16.14.241,vts_reward_expectancy_bt,2022.2.4,MacIntel,58.82352941,Safari,1440,900,,,,,10,1201,,,,,,,,,,,,,,,,,Y,174,hexagon,1,0,,,,,,,,,,,,,,,,repeat,letter,lettRpt,f,1.07,Lo,,,,,,4,,,,,,,,low,31,0,31,0,1,,,,,,,,,
293530,2022-12-06_15h16.14.241,vts_reward_expectancy_bt,2022.2.4,MacIntel,58.82352941,Safari,1440,900,,,,,10,1211,,,,,,,,,,,,,,,,,S,181,circle,1,0,,,,,,,,,,,,,,,,repeat,letter,lettRpt,f,1.597,Lo,,,,,,5,,,,,,space,1.05,low,0,0,0,0,1,,,,,,,,,
293530,2022-12-06_15h16.14.241,vts_reward_expectancy_bt,2022.2.4,MacIntel,58.82352941,Safari,1440,900,,,,,1,1212,,,,,,,,,,,,,,,,,W,132,triangle,1,0,,,,,,,,,,,,,,,,repeat,letter,lettRpt,f,0.685,Hi,,,,,,5,,,,,,,,low,1,0,1,0,1,,,,,,,,,
293530,2022-12-06_15h16.14.241,vts_reward_expectancy_bt,2022.2.4,MacIntel,58.82352941,Safari,1440,900,,,,,10,1222,,,,,,,,,,,,,,,,,F,125,star,1,0,,,,,,,,,,,,,,,,repeat,letter,lettRpt,d,0.742,Hi,,,,,,5,,,,,,,,low,2,0,2,0,1,,,,,,,,,
293530,2022-12-06_15h16.14.241,vts_reward_expectancy_bt,2022.2.4,MacIntel,58.82352941,Safari,1440,900,,,,,1,1223,,,,,,,,,,,,,,,,,U,174,hexagon,1,0,,,,,,,,,,,,,,,,repeat,letter,lettRpt,f,1.827,Lo,,,,,,5,,,,,,,,low,3,0,3,0,1,,,,,,,,,
293530,2022-12-06_15h16.14.241,vts_reward_expectancy_bt,2022.2.4,MacIntel,58.82352941,Safari,1440,900,,,,,10,1233,,,,,,,,,,,,,,,,,D,167,circle,1,0,,,,,,,,,,,,,,,,repeat,letter,lettRpt,d,1.777,Lo,,,,,,5,,,,,,,,low,4,0,4,0,1,,,,,,,,,
293530,2022-12-06_15h16.14.241,vts_reward_expectancy_bt,2022.2.4,MacIntel,58.82352941,Safari,1440,900,,,,,10,1243,,,,,,,,,,,,,,,,,B,146,triangle,1,0,,,,,,,,,,,,,,,,repeat,letter,lettRpt,d,0.742,Hi,,,,,,5,,,,,,,,low,5,0,5,0,1,,,,,,,,,
293530,2022-12-06_15h16.14.241,vts_reward_expectancy_bt,2022.2.4,MacIntel,58.82352941,Safari,1440,900,,,,,10,1253,,,,,,,,,,,,,,,,,H,139,star,1,0,,,,,,,,,,,,,,,,repeat,letter,lettRpt,d,0.754,Hi,,,,,,5,,,,,,,,low,6,0,6,0,1,,,,,,,,,
293530,2022-12-06_15h16.14.241,vts_reward_expectancy_bt,2022.2.4,MacIntel,58.82352941,Safari,1440,900,,,,,10,1263,,,,,,,,,,,,,,,,,Y,160,hexagon,1,0,,,,,,,,,,,,,,,,repeat,letter,lettRpt,f,2.914,Lo,,,,,,5,,,,,,,,low,7,0,7,0,1,,,,,,,,,
293530,2022-12-06_15h16.14.241,vts_reward_expectancy_bt,2022.2.4,MacIntel,58.82352941,Safari,1440,900,,,,,10,1273,,,,,,,,,,,,,,,,,S,181,star,1,0,,,,,,,,,,,,,,,,switch,number,numSwt,k,0.779,Hi,,,,,,5,,,,,,,,low,8,0,8,0,1,,,,,,,,,
293530,2022-12-06_15h16.14.241,vts_reward_expectancy_bt,2022.2.4,MacIntel,58.82352941,Safari,1440,900,,,,,10,1283,,,,,,,,,,,,,,,,,W,132,hexagon,1,0,,,,,,,,,,,,,,,,repeat,number,numRpt,j,1.236,Lo,,,,,,5,,,,,,,,low,9,0,9,0,1,,,,,,,,,
293530,2022-12-06_15h16.14.241,vts_reward_expectancy_bt,2022.2.4,MacIntel,58.82352941,Safari,1440,900,,,,,10,1293,,,,,,,,,,,,,,,,,F,125,triangle,1,0,,,,,,,,,,,,,,,,repeat,number,numRpt,j,0.552,Hi,,,,,,5,,,,,,,,low,10,0,10,0,1,,,,,,,,,
293530,2022-12-06_15h16.14.241,vts_reward_expectancy_bt,2022.2.4,MacIntel,58.82352941,Safari,1440,900,,,,,10,1303,,,,,,,,,,,,,,,,,U,174,circle,1,0,,,,,,,,,,,,,,,,repeat,number,numRpt,k,1.031,Lo,,,,,,5,,,,,,,,low,11,0,11,0,1,,,,,,,,,
293530,2022-12-06_15h16.14.241,vts_reward_expectancy_bt,2022.2.4,MacIntel,58.82352941,Safari,1440,900,,,,,10,1313,,,,,,,,,,,,,,,,,D,167,hexagon,1,0,,,,,,,,,,,,,,,,repeat,number,numRpt,k,1.298,Lo,,,,,,5,,,,,,,,low,12,0,12,0,1,,,,,,,,,
293530,2022-12-06_15h16.14.241,vts_reward_expectancy_bt,2022.2.4,MacIntel,58.82352941,Safari,1440,900,,,,,10,1323,,,,,,,,,,,,,,,,,B,146,circle,1,0,,,,,,,,,,,,,,,,repeat,number,numRpt,j,1.694,Lo,,,,,,5,,,,,,,,low,13,0,13,0,1,,,,,,,,,
293530,2022-12-06_15h16.14.241,vts_reward_expectancy_bt,2022.2.4,MacIntel,58.82352941,Safari,1440,900,,,,,0,1323,,,,,,,,,,,,,,,,,H,139,star,1,0,,,,,,,,,,,,,,,,repeat,number,numRpt,j,1.067,Hi,,,,,,5,,,,,,,,low,14,0,14,0,1,,,,,,,,,
293530,2022-12-06_15h16.14.241,vts_reward_expectancy_bt,2022.2.4,MacIntel,58.82352941,Safari,1440,900,,,,,10,1333,,,,,,,,,,,,,,,,,Y,160,triangle,1,0,,,,,,,,,,,,,,,,switch,letter,lettSwt,f,0.661,Hi,,,,,,5,,,,,,,,low,15,0,15,0,1,,,,,,,,,
293530,2022-12-06_15h16.14.241,vts_reward_expectancy_bt,2022.2.4,MacIntel,58.82352941,Safari,1440,900,,,,,1,1334,,,,,,,,,,,,,,,,,F,139,hexagon,1,0,,,,,,,,,,,,,,,,switch,number,numSwt,j,0.762,Lo,,,,,,5,,,,,,,,low,16,0,16,0,1,,,,,,,,,
293530,2022-12-06_15h16.14.241,vts_reward_expectancy_bt,2022.2.4,MacIntel,58.82352941,Safari,1440,900,,,,,1,1335,,,,,,,,,,,,,,,,,Y,132,triangle,1,0,,,,,,,,,,,,,,,,repeat,number,numRpt,j,0.711,Hi,,,,,,5,,,,,,,,low,17,0,17,0,1,,,,,,,,,
293530,2022-12-06_15h16.14.241,vts_reward_expectancy_bt,2022.2.4,MacIntel,58.82352941,Safari,1440,900,,,,,1,1336,,,,,,,,,,,,,,,,,S,181,circle,1,0,,,,,,,,,,,,,,,,repeat,number,numRpt,k,0.815,Lo,,,,,,5,,,,,,,,low,18,0,18,0,1,,,,,,,,,
293530,2022-12-06_15h16.14.241,vts_reward_expectancy_bt,2022.2.4,MacIntel,58.82352941,Safari,1440,900,,,,,0,1336,,,,,,,,,,,,,,,,,U,167,star,1,0,,,,,,,,,,,,,,,,repeat,number,numRpt,k,1.291,Hi,,,,,,5,,,,,,,,low,19,0,19,0,1,,,,,,,,,
293530,2022-12-06_15h16.14.241,vts_reward_expectancy_bt,2022.2.4,MacIntel,58.82352941,Safari,1440,900,,,,,0,1336,,,,,,,,,,,,,,,,,W,160,triangle,1,0,,,,,,,,,,,,,,,,repeat,number,numRpt,k,1.308,Hi,,,,,,5,,,,,,,,low,20,0,20,0,1,,,,,,,,,
293530,2022-12-06_15h16.14.241,vts_reward_expectancy_bt,2022.2.4,MacIntel,58.82352941,Safari,1440,900,,,,,1,1337,,,,,,,,,,,,,,,,,B,174,hexagon,1,0,,,,,,,,,,,,,,,,switch,letter,lettSwt,d,0.646,Lo,,,,,,5,,,,,,,,low,21,0,21,0,1,,,,,,,,,
293530,2022-12-06_15h16.14.241,vts_reward_expectancy_bt,2022.2.4,MacIntel,58.82352941,Safari,1440,900,,,,,1,1338,,,,,,,,,,,,,,,,,D,146,circle,1,0,,,,,,,,,,,,,,,,switch,number,numSwt,j,0.87,Lo,,,,,,5,,,,,,,,low,22,0,22,0,1,,,,,,,,,
293530,2022-12-06_15h16.14.241,vts_reward_expectancy_bt,2022.2.4,MacIntel,58.82352941,Safari,1440,900,,,,,0,1338,,,,,,,,,,,,,,,,,H,125,star,1,0,,,,,,,,,,,,,,,,switch,letter,lettSwt,d,1.084,Hi,,,,,,5,,,,,,,,low,23,0,23,0,1,,,,,,,,,
293530,2022-12-06_15h16.14.241,vts_reward_expectancy_bt,2022.2.4,MacIntel,58.82352941,Safari,1440,900,,,,,1,1339,,,,,,,,,,,,,,,,,H,160,star,1,0,,,,,,,,,,,,,,,,switch,number,numSwt,k,0.804,Hi,,,,,,5,,,,,,,,low,24,0,24,0,1,,,,,,,,,
293530,2022-12-06_15h16.14.241,vts_reward_expectancy_bt,2022.2.4,MacIntel,58.82352941,Safari,1440,900,,,,,1,1340,,,,,,,,,,,,,,,,,W,174,hexagon,1,0,,,,,,,,,,,,,,,,repeat,number,numRpt,k,1.626,Lo,,,,,,5,,,,,,,,low,25,0,25,0,1,,,,,,,,,
293530,2022-12-06_15h16.14.241,vts_reward_expectancy_bt,2022.2.4,MacIntel,58.82352941,Safari,1440,900,,,,,10,1350,,,,,,,,,,,,,,,,,D,181,circle,1,0,,,,,,,,,,,,,,,,repeat,number,numRpt,k,0.914,Lo,,,,,,5,,,,,,,,low,26,0,26,0,1,,,,,,,,,
293530,2022-12-06_15h16.14.241,vts_reward_expectancy_bt,2022.2.4,MacIntel,58.82352941,Safari,1440,900,,,,,0,1350,,,,,,,,,,,,,,,,,Y,125,triangle,1,0,,,,,,,,,,,,,,,,repeat,number,numRpt,j,1.559,Hi,,,,,,5,,,,,,,,low,27,0,27,0,1,,,,,,,,,
293530,2022-12-06_15h16.14.241,vts_reward_expectancy_bt,2022.2.4,MacIntel,58.82352941,Safari,1440,900,,,,,1,1351,,,,,,,,,,,,,,,,,F,132,hexagon,1,0,,,,,,,,,,,,,,,,repeat,number,numRpt,j,0.811,Lo,,,,,,5,,,,,,,,low,28,0,28,0,1,,,,,,,,,
293530,2022-12-06_15h16.14.241,vts_reward_expectancy_bt,2022.2.4,MacIntel,58.82352941,Safari,1440,900,,,,,10,1361,,,,,,,,,,,,,,,,,S,167,circle,1,0,,,,,,,,,,,,,,,,switch,letter,lettSwt,f,0.797,Lo,,,,,,5,,,,,,,,low,29,0,29,0,1,,,,,,,,,
293530,2022-12-06_15h16.14.241,vts_reward_expectancy_bt,2022.2.4,MacIntel,58.82352941,Safari,1440,900,,,,,0,1361,,,,,,,,,,,,,,,,,U,146,triangle,1,0,,,,,,,,,,,,,,,,repeat,letter,lettRpt,f,1.315,Hi,,,,,,5,,,,,,,,low,30,0,30,0,1,,,,,,,,,
293530,2022-12-06_15h16.14.241,vts_reward_expectancy_bt,2022.2.4,MacIntel,58.82352941,Safari,1440,900,,,,,0,1361,,,,,,,,,,,,,,,,,B,139,star,1,0,,,,,,,,,,,,,,,,switch,number,numSwt,j,1.277,Hi,,,,,,5,,,,,,,,low,31,0,31,0,1,,,,,,,,,
293530,2022-12-06_15h16.14.241,vts_reward_expectancy_bt,2022.2.4,MacIntel,58.82352941,Safari,1440,900,,,,,10,1371,,,,,,,,,,,,,,,,,B,167,star,1,0,,,,,,,,,,,,,,,,switch,letter,lettSwt,d,0.631,Hi,,,,,,6,,,,,,space,0.733,low,0,0,0,0,1,,,,,,,,,
293530,2022-12-06_15h16.14.241,vts_reward_expectancy_bt,2022.2.4,MacIntel,58.82352941,Safari,1440,900,,,,,1,1372,,,,,,,,,,,,,,,,,H,139,hexagon,1,0,,,,,,,,,,,,,,,,switch,number,numSwt,j,1.065,Lo,,,,,,6,,,,,,,,low,1,0,1,0,1,,,,,,,,,
293530,2022-12-06_15h16.14.241,vts_reward_expectancy_bt,2022.2.4,MacIntel,58.82352941,Safari,1440,900,,,,,0,1372,,,,,,,,,,,,,,,,,Y,132,triangle,1,0,,,,,,,,,,,,,,,,repeat,number,numRpt,j,1.116,Hi,,,,,,6,,,,,,,,low,2,0,2,0,1,,,,,,,,,
293530,2022-12-06_15h16.14.241,vts_reward_expectancy_bt,2022.2.4,MacIntel,58.82352941,Safari,1440,900,,,,,10,1382,,,,,,,,,,,,,,,,,W,174,circle,1,0,,,,,,,,,,,,,,,,switch,letter,lettSwt,f,1.127,Lo,,,,,,6,,,,,,,,low,3,0,3,0,1,,,,,,,,,
