participant,date,expName,psychopyVersion,OS,frameRate,browser,xResolution,yResolution,key_resp.keys,key_resp.rt,training_resp.keys,training_resp.rt,points_trial,points_cumul,trainBlock,training.thisRepN,training.thisTrialN,training.thisN,training.thisIndex,training.ran,LTriangleOpac,LCircleOpac,LHexagonOpac,LStarOpac,RTriangleOpac,RCircleOpac,RHexagonOpac,RStarOpac,LShape_ID,RShape_ID,curr_topStim,curr_bottStim,curr_shape,acc,E1,target_resp_prac1.keys,target_resp_prac1.rt,pracBlock,task1_prac_trials.thisRepN,task1_prac_trials.thisTrialN,task1_prac_trials.thisN,task1_prac_trials.thisIndex,task1_prac_trials.ran,target_resp_prac2.keys,target_resp_prac2.rt,task2_praac_trials.thisRepN,task2_praac_trials.thisTrialN,task2_praac_trials.thisN,task2_praac_trials.thisIndex,task2_praac_trials.ran,alt,task,condition,target_resp.keys,target_resp.rt,rewCond,vts_practice_trials.thisRepN,vts_practice_trials.thisTrialN,vts_practice_trials.thisN,vts_practice_trials.thisIndex,vts_practice_trials.ran,blockNum,trials_norew.thisRepN,trials_norew.thisTrialN,trials_norew.thisN,trials_norew.thisIndex,trials_norew.ran,key_resp_2.keys,key_resp_2.rt,rewExpectancy,trials_rew.thisRepN,trials_rew.thisTrialN,trials_rew.thisN,trials_rew.thisIndex,trials_rew.ran,Q1,Q2,Q2_text,Q3,Q4,Q5_text,Q5,xRes,yRes
293584,2022-12-06_13h53.58.209,vts_reward_expectancy_bt,2022.2.4,Win32,57.14612264,Chrome,1536,864,,,,,,,,,,,,,,,,,,,,,,,,,,,,,,,,,,,,,,,,,,,,,,,,,,,,,,,,,,,,,,,,,,,,,,,,,,,,
293584,2022-12-06_13h53.58.209,vts_reward_expectancy_bt,2022.2.4,Win32,57.14612264,Chrome,1536,864,space,2.8101,,,,,,,,,,,,,,,,,,,,,,,,,,,,,,,,,,,,,,,,,,,,,,,,,,,,,,,,,,,,,,,,,,,,,,,,,,
293584,2022-12-06_13h53.58.209,vts_reward_expectancy_bt,2022.2.4,Win32,57.14612264,Chrome,1536,864,,,,,,,,,,,,,,,,,,,,,,,,,,,,,,,,,,,,,,,,,,,,,,,,,,,,,,,,,,,,,,,,,,,,,,,,,,,,
293584,2022-12-06_13h53.58.209,vts_reward_expectancy_bt,2022.2.4,Win32,57.14612264,Chrome,1536,864,,,a,15.6048,10,10,0,0,0,0,2,1,1,0,0,0,0,0,0,1,triangle,star,,,,,,,,,,,,,,,,,,,,,,,,,,,,,,,,,,,,,,,,,,,,,,,,,,,,,,
293584,2022-12-06_13h53.58.209,vts_reward_expectancy_bt,2022.2.4,Win32,57.14612264,Chrome,1536,864,,,a,13.9567,1,11,0,0,1,1,8,1,0,0,1,0,0,0,0,1,hexagon,star,,,,,,,,,,,,,,,,,,,,,,,,,,,,,,,,,,,,,,,,,,,,,,,,,,,,,,
293584,2022-12-06_13h53.58.209,vts_reward_expectancy_bt,2022.2.4,Win32,57.14612264,Chrome,1536,864,,,a,0.6045,10,21,0,0,2,2,3,1,0,1,0,0,1,0,0,0,circle,triangle,,,,,,,,,,,,,,,,,,,,,,,,,,,,,,,,,,,,,,,,,,,,,,,,,,,,,,
293584,2022-12-06_13h53.58.209,vts_reward_expectancy_bt,2022.2.4,Win32,57.14612264,Chrome,1536,864,,,a,0.5009,1,22,0,0,3,3,11,1,0,0,0,1,0,0,1,0,star,hexagon,,,,,,,,,,,,,,,,,,,,,,,,,,,,,,,,,,,,,,,,,,,,,,,,,,,,,,
293584,2022-12-06_13h53.58.209,vts_reward_expectancy_bt,2022.2.4,Win32,57.14612264,Chrome,1536,864,,,a,0.7804,1,23,0,0,4,4,7,1,0,0,1,0,0,1,0,0,hexagon,circle,,,,,,,,,,,,,,,,,,,,,,,,,,,,,,,,,,,,,,,,,,,,,,,,,,,,,,
293584,2022-12-06_13h53.58.209,vts_reward_expectancy_bt,2022.2.4,Win32,57.14612264,Chrome,1536,864,,,l,0.179,1,24,0,0,5,5,5,1,0,1,0,0,0,0,0,1,circle,star,,,,,,,,,,,,,,,,,,,,,,,,,,,,,,,,,,,,,,,,,,,,,,,,,,,,,,
293584,2022-12-06_13h53.58.209,vts_reward_expectancy_bt,2022.2.4,Win32,57.14612264,Chrome,1536,864,,,a,0.0806,10,34,0,0,6,6,9,1,0,0,0,1,1,0,0,0,star,triangle,,,,,,,,,,,,,,,,,,,,,,,,,,,,,,,,,,,,,,,,,,,,,,,,,,,,,,
293584,2022-12-06_13h53.58.209,vts_reward_expectancy_bt,2022.2.4,Win32,57.14612264,Chrome,1536,864,,,l,0.0802,10,44,0,0,7,7,4,1,0,1,0,0,0,0,1,0,circle,hexagon,,,,,,,,,,,,,,,,,,,,,,,,,,,,,,,,,,,,,,,,,,,,,,,,,,,,,,
293584,2022-12-06_13h53.58.209,vts_reward_expectancy_bt,2022.2.4,Win32,57.14612264,Chrome,1536,864,,,l,0.385,1,45,0,0,8,8,1,1,1,0,0,0,0,0,1,0,triangle,hexagon,,,,,,,,,,,,,,,,,,,,,,,,,,,,,,,,,,,,,,,,,,,,,,,,,,,,,,
293584,2022-12-06_13h53.58.209,vts_reward_expectancy_bt,2022.2.4,Win32,57.14612264,Chrome,1536,864,,,a,0.7028,10,55,0,0,9,9,0,1,1,0,0,0,0,1,0,0,triangle,circle,,,,,,,,,,,,,,,,,,,,,,,,,,,,,,,,,,,,,,,,,,,,,,,,,,,,,,
293584,2022-12-06_13h53.58.209,vts_reward_expectancy_bt,2022.2.4,Win32,57.14612264,Chrome,1536,864,,,a,0.573,10,65,0,0,10,10,10,1,0,0,0,1,0,1,0,0,star ,circle,,,,,,,,,,,,,,,,,,,,,,,,,,,,,,,,,,,,,,,,,,,,,,,,,,,,,,
293584,2022-12-06_13h53.58.209,vts_reward_expectancy_bt,2022.2.4,Win32,57.14612264,Chrome,1536,864,,,a,0.8417,10,75,0,0,11,11,6,1,0,0,1,0,1,0,0,0,hexagon,triangle,,,,,,,,,,,,,,,,,,,,,,,,,,,,,,,,,,,,,,,,,,,,,,,,,,,,,,
293584,2022-12-06_13h53.58.209,vts_reward_expectancy_bt,2022.2.4,Win32,57.14612264,Chrome,1536,864,,,l,0.4947,1,76,0,1,0,12,4,1,0,1,0,0,0,0,1,0,circle,hexagon,,,,,,,,,,,,,,,,,,,,,,,,,,,,,,,,,,,,,,,,,,,,,,,,,,,,,,
293584,2022-12-06_13h53.58.209,vts_reward_expectancy_bt,2022.2.4,Win32,57.14612264,Chrome,1536,864,,,a,0.5641,1,77,0,1,1,13,11,1,0,0,0,1,0,0,1,0,star,hexagon,,,,,,,,,,,,,,,,,,,,,,,,,,,,,,,,,,,,,,,,,,,,,,,,,,,,,,
293584,2022-12-06_13h53.58.209,vts_reward_expectancy_bt,2022.2.4,Win32,57.14612264,Chrome,1536,864,,,l,0.5502,1,78,0,1,2,14,3,1,0,1,0,0,1,0,0,0,circle,triangle,,,,,,,,,,,,,,,,,,,,,,,,,,,,,,,,,,,,,,,,,,,,,,,,,,,,,,
293584,2022-12-06_13h53.58.209,vts_reward_expectancy_bt,2022.2.4,Win32,57.14612264,Chrome,1536,864,,,l,0.4599,1,79,0,1,3,15,8,1,0,0,1,0,0,0,0,1,hexagon,star,,,,,,,,,,,,,,,,,,,,,,,,,,,,,,,,,,,,,,,,,,,,,,,,,,,,,,
293584,2022-12-06_13h53.58.209,vts_reward_expectancy_bt,2022.2.4,Win32,57.14612264,Chrome,1536,864,,,a,0.5519,10,89,0,1,4,16,5,1,0,1,0,0,0,0,0,1,circle,star,,,,,,,,,,,,,,,,,,,,,,,,,,,,,,,,,,,,,,,,,,,,,,,,,,,,,,
293584,2022-12-06_13h53.58.209,vts_reward_expectancy_bt,2022.2.4,Win32,57.14612264,Chrome,1536,864,,,l,0.4041,1,90,0,1,5,17,0,1,1,0,0,0,0,1,0,0,triangle,circle,,,,,,,,,,,,,,,,,,,,,,,,,,,,,,,,,,,,,,,,,,,,,,,,,,,,,,
293584,2022-12-06_13h53.58.209,vts_reward_expectancy_bt,2022.2.4,Win32,57.14612264,Chrome,1536,864,,,a,0.2688,1,91,0,1,6,18,1,1,1,0,0,0,0,0,1,0,triangle,hexagon,,,,,,,,,,,,,,,,,,,,,,,,,,,,,,,,,,,,,,,,,,,,,,,,,,,,,,
293584,2022-12-06_13h53.58.209,vts_reward_expectancy_bt,2022.2.4,Win32,57.14612264,Chrome,1536,864,,,l,0.0735,1,92,0,1,7,19,10,1,0,0,0,1,0,1,0,0,star ,circle,,,,,,,,,,,,,,,,,,,,,,,,,,,,,,,,,,,,,,,,,,,,,,,,,,,,,,
293584,2022-12-06_13h53.58.209,vts_reward_expectancy_bt,2022.2.4,Win32,57.14612264,Chrome,1536,864,,,a,0.0808,10,102,0,1,8,20,9,1,0,0,0,1,1,0,0,0,star,triangle,,,,,,,,,,,,,,,,,,,,,,,,,,,,,,,,,,,,,,,,,,,,,,,,,,,,,,
293584,2022-12-06_13h53.58.209,vts_reward_expectancy_bt,2022.2.4,Win32,57.14612264,Chrome,1536,864,,,a,0.0967,10,112,0,1,9,21,7,1,0,0,1,0,0,1,0,0,hexagon,circle,,,,,,,,,,,,,,,,,,,,,,,,,,,,,,,,,,,,,,,,,,,,,,,,,,,,,,
293584,2022-12-06_13h53.58.209,vts_reward_expectancy_bt,2022.2.4,Win32,57.14612264,Chrome,1536,864,,,l,0.2312,10,122,0,1,10,22,2,1,1,0,0,0,0,0,0,1,triangle,star,,,,,,,,,,,,,,,,,,,,,,,,,,,,,,,,,,,,,,,,,,,,,,,,,,,,,,
293584,2022-12-06_13h53.58.209,vts_reward_expectancy_bt,2022.2.4,Win32,57.14612264,Chrome,1536,864,,,a,0.6503,1,123,0,1,11,23,6,1,0,0,1,0,1,0,0,0,hexagon,triangle,,,,,,,,,,,,,,,,,,,,,,,,,,,,,,,,,,,,,,,,,,,,,,,,,,,,,,
293584,2022-12-06_13h53.58.209,vts_reward_expectancy_bt,2022.2.4,Win32,57.14612264,Chrome,1536,864,,,a,0.5669,10,133,0,2,0,24,0,1,1,0,0,0,0,1,0,0,triangle,circle,,,,,,,,,,,,,,,,,,,,,,,,,,,,,,,,,,,,,,,,,,,,,,,,,,,,,,
293584,2022-12-06_13h53.58.209,vts_reward_expectancy_bt,2022.2.4,Win32,57.14612264,Chrome,1536,864,,,a,0.9193,10,143,0,2,1,25,4,1,0,1,0,0,0,0,1,0,circle,hexagon,,,,,,,,,,,,,,,,,,,,,,,,,,,,,,,,,,,,,,,,,,,,,,,,,,,,,,
293584,2022-12-06_13h53.58.209,vts_reward_expectancy_bt,2022.2.4,Win32,57.14612264,Chrome,1536,864,,,l,0.5747,10,153,0,2,2,26,6,1,0,0,1,0,1,0,0,0,hexagon,triangle,,,,,,,,,,,,,,,,,,,,,,,,,,,,,,,,,,,,,,,,,,,,,,,,,,,,,,
293584,2022-12-06_13h53.58.209,vts_reward_expectancy_bt,2022.2.4,Win32,57.14612264,Chrome,1536,864,,,a,0.6067,1,154,0,2,3,27,2,1,1,0,0,0,0,0,0,1,triangle,star,,,,,,,,,,,,,,,,,,,,,,,,,,,,,,,,,,,,,,,,,,,,,,,,,,,,,,
293584,2022-12-06_13h53.58.209,vts_reward_expectancy_bt,2022.2.4,Win32,57.14612264,Chrome,1536,864,,,l,0.3397,1,155,0,2,4,28,1,1,1,0,0,0,0,0,1,0,triangle,hexagon,,,,,,,,,,,,,,,,,,,,,,,,,,,,,,,,,,,,,,,,,,,,,,,,,,,,,,
293584,2022-12-06_13h53.58.209,vts_reward_expectancy_bt,2022.2.4,Win32,57.14612264,Chrome,1536,864,,,a,0.0247,1,156,0,2,5,29,10,1,0,0,0,1,0,1,0,0,star ,circle,,,,,,,,,,,,,,,,,,,,,,,,,,,,,,,,,,,,,,,,,,,,,,,,,,,,,,
293584,2022-12-06_13h53.58.209,vts_reward_expectancy_bt,2022.2.4,Win32,57.14612264,Chrome,1536,864,,,l,0.5643,10,166,0,2,6,30,5,1,0,1,0,0,0,0,0,1,circle,star,,,,,,,,,,,,,,,,,,,,,,,,,,,,,,,,,,,,,,,,,,,,,,,,,,,,,,
293584,2022-12-06_13h53.58.209,vts_reward_expectancy_bt,2022.2.4,Win32,57.14612264,Chrome,1536,864,,,l,0.2192,10,176,0,2,7,31,8,1,0,0,1,0,0,0,0,1,hexagon,star,,,,,,,,,,,,,,,,,,,,,,,,,,,,,,,,,,,,,,,,,,,,,,,,,,,,,,
293584,2022-12-06_13h53.58.209,vts_reward_expectancy_bt,2022.2.4,Win32,57.14612264,Chrome,1536,864,,,a,0.8349,10,186,0,2,8,32,11,1,0,0,0,1,0,0,1,0,star,hexagon,,,,,,,,,,,,,,,,,,,,,,,,,,,,,,,,,,,,,,,,,,,,,,,,,,,,,,
293584,2022-12-06_13h53.58.209,vts_reward_expectancy_bt,2022.2.4,Win32,57.14612264,Chrome,1536,864,,,l,0.4645,10,196,0,2,9,33,3,1,0,1,0,0,1,0,0,0,circle,triangle,,,,,,,,,,,,,,,,,,,,,,,,,,,,,,,,,,,,,,,,,,,,,,,,,,,,,,
293584,2022-12-06_13h53.58.209,vts_reward_expectancy_bt,2022.2.4,Win32,57.14612264,Chrome,1536,864,,,l,0.6,1,197,0,2,10,34,9,1,0,0,0,1,1,0,0,0,star,triangle,,,,,,,,,,,,,,,,,,,,,,,,,,,,,,,,,,,,,,,,,,,,,,,,,,,,,,
293584,2022-12-06_13h53.58.209,vts_reward_expectancy_bt,2022.2.4,Win32,57.14612264,Chrome,1536,864,,,a,0.0652,10,207,0,2,11,35,7,1,0,0,1,0,0,1,0,0,hexagon,circle,,,,,,,,,,,,,,,,,,,,,,,,,,,,,,,,,,,,,,,,,,,,,,,,,,,,,,
293584,2022-12-06_13h53.58.209,vts_reward_expectancy_bt,2022.2.4,Win32,57.14612264,Chrome,1536,864,,,a,1.1354,10,217,1,0,0,0,0,1,1,0,0,0,0,1,0,0,triangle,circle,,,,,,,,,,,,,,,,,,,,,,,,,,,,,,,,,,,,,,,,,,,,,,,,,,,,,,
293584,2022-12-06_13h53.58.209,vts_reward_expectancy_bt,2022.2.4,Win32,57.14612264,Chrome,1536,864,,,a,0.2679,1,218,1,0,1,1,11,1,0,0,0,1,0,0,1,0,star,hexagon,,,,,,,,,,,,,,,,,,,,,,,,,,,,,,,,,,,,,,,,,,,,,,,,,,,,,,
293584,2022-12-06_13h53.58.209,vts_reward_expectancy_bt,2022.2.4,Win32,57.14612264,Chrome,1536,864,,,l,0.0266,1,219,1,0,2,2,9,1,0,0,0,1,1,0,0,0,star,triangle,,,,,,,,,,,,,,,,,,,,,,,,,,,,,,,,,,,,,,,,,,,,,,,,,,,,,,
293584,2022-12-06_13h53.58.209,vts_reward_expectancy_bt,2022.2.4,Win32,57.14612264,Chrome,1536,864,,,a,0.4534,1,220,1,0,3,3,8,1,0,0,1,0,0,0,0,1,hexagon,star,,,,,,,,,,,,,,,,,,,,,,,,,,,,,,,,,,,,,,,,,,,,,,,,,,,,,,
293584,2022-12-06_13h53.58.209,vts_reward_expectancy_bt,2022.2.4,Win32,57.14612264,Chrome,1536,864,,,l,0.1172,10,230,1,0,4,4,5,1,0,1,0,0,0,0,0,1,circle,star,,,,,,,,,,,,,,,,,,,,,,,,,,,,,,,,,,,,,,,,,,,,,,,,,,,,,,
293584,2022-12-06_13h53.58.209,vts_reward_expectancy_bt,2022.2.4,Win32,57.14612264,Chrome,1536,864,,,l,0.2839,1,231,1,0,5,5,1,1,1,0,0,0,0,0,1,0,triangle,hexagon,,,,,,,,,,,,,,,,,,,,,,,,,,,,,,,,,,,,,,,,,,,,,,,,,,,,,,
293584,2022-12-06_13h53.58.209,vts_reward_expectancy_bt,2022.2.4,Win32,57.14612264,Chrome,1536,864,,,a,0.141,1,232,1,0,6,6,7,1,0,0,1,0,0,1,0,0,hexagon,circle,,,,,,,,,,,,,,,,,,,,,,,,,,,,,,,,,,,,,,,,,,,,,,,,,,,,,,
293584,2022-12-06_13h53.58.209,vts_reward_expectancy_bt,2022.2.4,Win32,57.14612264,Chrome,1536,864,,,l,0.1018,10,242,1,0,7,7,3,1,0,1,0,0,1,0,0,0,circle,triangle,,,,,,,,,,,,,,,,,,,,,,,,,,,,,,,,,,,,,,,,,,,,,,,,,,,,,,
293584,2022-12-06_13h53.58.209,vts_reward_expectancy_bt,2022.2.4,Win32,57.14612264,Chrome,1536,864,,,l,0.4831,1,243,1,0,8,8,10,1,0,0,0,1,0,1,0,0,star ,circle,,,,,,,,,,,,,,,,,,,,,,,,,,,,,,,,,,,,,,,,,,,,,,,,,,,,,,
293584,2022-12-06_13h53.58.209,vts_reward_expectancy_bt,2022.2.4,Win32,57.14612264,Chrome,1536,864,,,a,0.3176,1,244,1,0,9,9,6,1,0,0,1,0,1,0,0,0,hexagon,triangle,,,,,,,,,,,,,,,,,,,,,,,,,,,,,,,,,,,,,,,,,,,,,,,,,,,,,,
293584,2022-12-06_13h53.58.209,vts_reward_expectancy_bt,2022.2.4,Win32,57.14612264,Chrome,1536,864,,,a,0.4506,10,254,1,0,10,10,2,1,1,0,0,0,0,0,0,1,triangle,star,,,,,,,,,,,,,,,,,,,,,,,,,,,,,,,,,,,,,,,,,,,,,,,,,,,,,,
293584,2022-12-06_13h53.58.209,vts_reward_expectancy_bt,2022.2.4,Win32,57.14612264,Chrome,1536,864,,,a,0.8543,10,264,1,0,11,11,4,1,0,1,0,0,0,0,1,0,circle,hexagon,,,,,,,,,,,,,,,,,,,,,,,,,,,,,,,,,,,,,,,,,,,,,,,,,,,,,,
293584,2022-12-06_13h53.58.209,vts_reward_expectancy_bt,2022.2.4,Win32,57.14612264,Chrome,1536,864,,,a,0.501,10,274,1,1,0,12,2,1,1,0,0,0,0,0,0,1,triangle,star,,,,,,,,,,,,,,,,,,,,,,,,,,,,,,,,,,,,,,,,,,,,,,,,,,,,,,
293584,2022-12-06_13h53.58.209,vts_reward_expectancy_bt,2022.2.4,Win32,57.14612264,Chrome,1536,864,,,l,0.5196,10,284,1,1,1,13,10,1,0,0,0,1,0,1,0,0,star ,circle,,,,,,,,,,,,,,,,,,,,,,,,,,,,,,,,,,,,,,,,,,,,,,,,,,,,,,
293584,2022-12-06_13h53.58.209,vts_reward_expectancy_bt,2022.2.4,Win32,57.14612264,Chrome,1536,864,,,l,0.4825,1,285,1,1,2,14,3,1,0,1,0,0,1,0,0,0,circle,triangle,,,,,,,,,,,,,,,,,,,,,,,,,,,,,,,,,,,,,,,,,,,,,,,,,,,,,,
293584,2022-12-06_13h53.58.209,vts_reward_expectancy_bt,2022.2.4,Win32,57.14612264,Chrome,1536,864,,,a,0.4657,1,286,1,1,3,15,5,1,0,1,0,0,0,0,0,1,circle,star,,,,,,,,,,,,,,,,,,,,,,,,,,,,,,,,,,,,,,,,,,,,,,,,,,,,,,
293584,2022-12-06_13h53.58.209,vts_reward_expectancy_bt,2022.2.4,Win32,57.14612264,Chrome,1536,864,,,a,0.5408,1,287,1,1,4,16,8,1,0,0,1,0,0,0,0,1,hexagon,star,,,,,,,,,,,,,,,,,,,,,,,,,,,,,,,,,,,,,,,,,,,,,,,,,,,,,,
293584,2022-12-06_13h53.58.209,vts_reward_expectancy_bt,2022.2.4,Win32,57.14612264,Chrome,1536,864,,,l,0.3833,10,297,1,1,5,17,9,1,0,0,0,1,1,0,0,0,star,triangle,,,,,,,,,,,,,,,,,,,,,,,,,,,,,,,,,,,,,,,,,,,,,,,,,,,,,,
293584,2022-12-06_13h53.58.209,vts_reward_expectancy_bt,2022.2.4,Win32,57.14612264,Chrome,1536,864,,,a,0.6321,1,298,1,1,6,18,4,1,0,1,0,0,0,0,1,0,circle,hexagon,,,,,,,,,,,,,,,,,,,,,,,,,,,,,,,,,,,,,,,,,,,,,,,,,,,,,,
293584,2022-12-06_13h53.58.209,vts_reward_expectancy_bt,2022.2.4,Win32,57.14612264,Chrome,1536,864,,,l,0.3823,10,308,1,1,7,19,11,1,0,0,0,1,0,0,1,0,star,hexagon,,,,,,,,,,,,,,,,,,,,,,,,,,,,,,,,,,,,,,,,,,,,,,,,,,,,,,
293584,2022-12-06_13h53.58.209,vts_reward_expectancy_bt,2022.2.4,Win32,57.14612264,Chrome,1536,864,,,a,0.4046,10,318,1,1,8,20,6,1,0,0,1,0,1,0,0,0,hexagon,triangle,,,,,,,,,,,,,,,,,,,,,,,,,,,,,,,,,,,,,,,,,,,,,,,,,,,,,,
293584,2022-12-06_13h53.58.209,vts_reward_expectancy_bt,2022.2.4,Win32,57.14612264,Chrome,1536,864,,,a,0.5308,10,328,1,1,9,21,0,1,1,0,0,0,0,1,0,0,triangle,circle,,,,,,,,,,,,,,,,,,,,,,,,,,,,,,,,,,,,,,,,,,,,,,,,,,,,,,
293584,2022-12-06_13h53.58.209,vts_reward_expectancy_bt,2022.2.4,Win32,57.14612264,Chrome,1536,864,,,l,1.0191,10,338,1,1,10,22,7,1,0,0,1,0,0,1,0,0,hexagon,circle,,,,,,,,,,,,,,,,,,,,,,,,,,,,,,,,,,,,,,,,,,,,,,,,,,,,,,
293584,2022-12-06_13h53.58.209,vts_reward_expectancy_bt,2022.2.4,Win32,57.14612264,Chrome,1536,864,,,a,0.5377,1,339,1,1,11,23,1,1,1,0,0,0,0,0,1,0,triangle,hexagon,,,,,,,,,,,,,,,,,,,,,,,,,,,,,,,,,,,,,,,,,,,,,,,,,,,,,,
293584,2022-12-06_13h53.58.209,vts_reward_expectancy_bt,2022.2.4,Win32,57.14612264,Chrome,1536,864,,,l,0.5677,10,349,1,2,0,24,0,1,1,0,0,0,0,1,0,0,triangle,circle,,,,,,,,,,,,,,,,,,,,,,,,,,,,,,,,,,,,,,,,,,,,,,,,,,,,,,
293584,2022-12-06_13h53.58.209,vts_reward_expectancy_bt,2022.2.4,Win32,57.14612264,Chrome,1536,864,,,a,0.4843,10,359,1,2,1,25,5,1,0,1,0,0,0,0,0,1,circle,star,,,,,,,,,,,,,,,,,,,,,,,,,,,,,,,,,,,,,,,,,,,,,,,,,,,,,,
293584,2022-12-06_13h53.58.209,vts_reward_expectancy_bt,2022.2.4,Win32,57.14612264,Chrome,1536,864,,,l,0.6715,1,360,1,2,2,26,7,1,0,0,1,0,0,1,0,0,hexagon,circle,,,,,,,,,,,,,,,,,,,,,,,,,,,,,,,,,,,,,,,,,,,,,,,,,,,,,,
293584,2022-12-06_13h53.58.209,vts_reward_expectancy_bt,2022.2.4,Win32,57.14612264,Chrome,1536,864,,,a,0.7002,10,370,1,2,3,27,1,1,1,0,0,0,0,0,1,0,triangle,hexagon,,,,,,,,,,,,,,,,,,,,,,,,,,,,,,,,,,,,,,,,,,,,,,,,,,,,,,
293584,2022-12-06_13h53.58.209,vts_reward_expectancy_bt,2022.2.4,Win32,57.14612264,Chrome,1536,864,,,l,0.6003,10,380,1,2,4,28,10,1,0,0,0,1,0,1,0,0,star ,circle,,,,,,,,,,,,,,,,,,,,,,,,,,,,,,,,,,,,,,,,,,,,,,,,,,,,,,
293584,2022-12-06_13h53.58.209,vts_reward_expectancy_bt,2022.2.4,Win32,57.14612264,Chrome,1536,864,,,l,0.6339,1,381,1,2,5,29,6,1,0,0,1,0,1,0,0,0,hexagon,triangle,,,,,,,,,,,,,,,,,,,,,,,,,,,,,,,,,,,,,,,,,,,,,,,,,,,,,,
293584,2022-12-06_13h53.58.209,vts_reward_expectancy_bt,2022.2.4,Win32,57.14612264,Chrome,1536,864,,,l,0.484,1,382,1,2,6,30,3,1,0,1,0,0,1,0,0,0,circle,triangle,,,,,,,,,,,,,,,,,,,,,,,,,,,,,,,,,,,,,,,,,,,,,,,,,,,,,,
293584,2022-12-06_13h53.58.209,vts_reward_expectancy_bt,2022.2.4,Win32,57.14612264,Chrome,1536,864,,,a,0.3675,1,383,1,2,7,31,8,1,0,0,1,0,0,0,0,1,hexagon,star,,,,,,,,,,,,,,,,,,,,,,,,,,,,,,,,,,,,,,,,,,,,,,,,,,,,,,
293584,2022-12-06_13h53.58.209,vts_reward_expectancy_bt,2022.2.4,Win32,57.14612264,Chrome,1536,864,,,l,0.2233,1,384,1,2,8,32,2,1,1,0,0,0,0,0,0,1,triangle,star,,,,,,,,,,,,,,,,,,,,,,,,,,,,,,,,,,,,,,,,,,,,,,,,,,,,,,
293584,2022-12-06_13h53.58.209,vts_reward_expectancy_bt,2022.2.4,Win32,57.14612264,Chrome,1536,864,,,l,0.6337,10,394,1,2,9,33,11,1,0,0,0,1,0,0,1,0,star,hexagon,,,,,,,,,,,,,,,,,,,,,,,,,,,,,,,,,,,,,,,,,,,,,,,,,,,,,,
293584,2022-12-06_13h53.58.209,vts_reward_expectancy_bt,2022.2.4,Win32,57.14612264,Chrome,1536,864,,,a,0.7,1,395,1,2,10,34,9,1,0,0,0,1,1,0,0,0,star,triangle,,,,,,,,,,,,,,,,,,,,,,,,,,,,,,,,,,,,,,,,,,,,,,,,,,,,,,
293584,2022-12-06_13h53.58.209,vts_reward_expectancy_bt,2022.2.4,Win32,57.14612264,Chrome,1536,864,,,l,0.5343,10,405,1,2,11,35,4,1,0,1,0,0,0,0,1,0,circle,hexagon,,,,,,,,,,,,,,,,,,,,,,,,,,,,,,,,,,,,,,,,,,,,,,,,,,,,,,
293584,2022-12-06_13h53.58.209,vts_reward_expectancy_bt,2022.2.4,Win32,57.14612264,Chrome,1536,864,,,l,0.7856,10,415,2,0,0,0,4,1,0,1,0,0,0,0,1,0,circle,hexagon,,,,,,,,,,,,,,,,,,,,,,,,,,,,,,,,,,,,,,,,,,,,,,,,,,,,,,
293584,2022-12-06_13h53.58.209,vts_reward_expectancy_bt,2022.2.4,Win32,57.14612264,Chrome,1536,864,,,a,0.5994,10,425,2,0,1,1,3,1,0,1,0,0,1,0,0,0,circle,triangle,,,,,,,,,,,,,,,,,,,,,,,,,,,,,,,,,,,,,,,,,,,,,,,,,,,,,,
293584,2022-12-06_13h53.58.209,vts_reward_expectancy_bt,2022.2.4,Win32,57.14612264,Chrome,1536,864,,,l,0.417,1,426,2,0,2,2,11,1,0,0,0,1,0,0,1,0,star,hexagon,,,,,,,,,,,,,,,,,,,,,,,,,,,,,,,,,,,,,,,,,,,,,,,,,,,,,,
293584,2022-12-06_13h53.58.209,vts_reward_expectancy_bt,2022.2.4,Win32,57.14612264,Chrome,1536,864,,,a,0.2499,1,427,2,0,3,3,7,1,0,0,1,0,0,1,0,0,hexagon,circle,,,,,,,,,,,,,,,,,,,,,,,,,,,,,,,,,,,,,,,,,,,,,,,,,,,,,,
293584,2022-12-06_13h53.58.209,vts_reward_expectancy_bt,2022.2.4,Win32,57.14612264,Chrome,1536,864,,,l,0.3169,10,437,2,0,4,4,1,1,1,0,0,0,0,0,1,0,triangle,hexagon,,,,,,,,,,,,,,,,,,,,,,,,,,,,,,,,,,,,,,,,,,,,,,,,,,,,,,
293584,2022-12-06_13h53.58.209,vts_reward_expectancy_bt,2022.2.4,Win32,57.14612264,Chrome,1536,864,,,l,0.3595,1,438,2,0,5,5,2,1,1,0,0,0,0,0,0,1,triangle,star,,,,,,,,,,,,,,,,,,,,,,,,,,,,,,,,,,,,,,,,,,,,,,,,,,,,,,
293584,2022-12-06_13h53.58.209,vts_reward_expectancy_bt,2022.2.4,Win32,57.14612264,Chrome,1536,864,,,l,0.0176,10,448,2,0,6,6,9,1,0,0,0,1,1,0,0,0,star,triangle,,,,,,,,,,,,,,,,,,,,,,,,,,,,,,,,,,,,,,,,,,,,,,,,,,,,,,
293584,2022-12-06_13h53.58.209,vts_reward_expectancy_bt,2022.2.4,Win32,57.14612264,Chrome,1536,864,,,l,1.0711,1,449,2,0,7,7,0,1,1,0,0,0,0,1,0,0,triangle,circle,,,,,,,,,,,,,,,,,,,,,,,,,,,,,,,,,,,,,,,,,,,,,,,,,,,,,,
293584,2022-12-06_13h53.58.209,vts_reward_expectancy_bt,2022.2.4,Win32,57.14612264,Chrome,1536,864,,,a,0.2677,10,459,2,0,8,8,8,1,0,0,1,0,0,0,0,1,hexagon,star,,,,,,,,,,,,,,,,,,,,,,,,,,,,,,,,,,,,,,,,,,,,,,,,,,,,,,
293584,2022-12-06_13h53.58.209,vts_reward_expectancy_bt,2022.2.4,Win32,57.14612264,Chrome,1536,864,,,a,0.4164,10,469,2,0,9,9,5,1,0,1,0,0,0,0,0,1,circle,star,,,,,,,,,,,,,,,,,,,,,,,,,,,,,,,,,,,,,,,,,,,,,,,,,,,,,,
293584,2022-12-06_13h53.58.209,vts_reward_expectancy_bt,2022.2.4,Win32,57.14612264,Chrome,1536,864,,,l,0.3719,10,479,2,0,10,10,6,1,0,0,1,0,1,0,0,0,hexagon,triangle,,,,,,,,,,,,,,,,,,,,,,,,,,,,,,,,,,,,,,,,,,,,,,,,,,,,,,
293584,2022-12-06_13h53.58.209,vts_reward_expectancy_bt,2022.2.4,Win32,57.14612264,Chrome,1536,864,,,a,0.2838,10,489,2,0,11,11,10,1,0,0,0,1,0,1,0,0,star ,circle,,,,,,,,,,,,,,,,,,,,,,,,,,,,,,,,,,,,,,,,,,,,,,,,,,,,,,
293584,2022-12-06_13h53.58.209,vts_reward_expectancy_bt,2022.2.4,Win32,57.14612264,Chrome,1536,864,,,l,0.5514,10,499,2,1,0,12,0,1,1,0,0,0,0,1,0,0,triangle,circle,,,,,,,,,,,,,,,,,,,,,,,,,,,,,,,,,,,,,,,,,,,,,,,,,,,,,,
293584,2022-12-06_13h53.58.209,vts_reward_expectancy_bt,2022.2.4,Win32,57.14612264,Chrome,1536,864,,,l,0.1104,10,509,2,1,1,13,5,1,0,1,0,0,0,0,0,1,circle,star,,,,,,,,,,,,,,,,,,,,,,,,,,,,,,,,,,,,,,,,,,,,,,,,,,,,,,
293584,2022-12-06_13h53.58.209,vts_reward_expectancy_bt,2022.2.4,Win32,57.14612264,Chrome,1536,864,,,a,0.3686,10,519,2,1,2,14,6,1,0,0,1,0,1,0,0,0,hexagon,triangle,,,,,,,,,,,,,,,,,,,,,,,,,,,,,,,,,,,,,,,,,,,,,,,,,,,,,,
293584,2022-12-06_13h53.58.209,vts_reward_expectancy_bt,2022.2.4,Win32,57.14612264,Chrome,1536,864,,,l,0.1408,10,529,2,1,3,15,10,1,0,0,0,1,0,1,0,0,star ,circle,,,,,,,,,,,,,,,,,,,,,,,,,,,,,,,,,,,,,,,,,,,,,,,,,,,,,,
293584,2022-12-06_13h53.58.209,vts_reward_expectancy_bt,2022.2.4,Win32,57.14612264,Chrome,1536,864,,,l,0.0809,10,539,2,1,4,16,3,1,0,1,0,0,1,0,0,0,circle,triangle,,,,,,,,,,,,,,,,,,,,,,,,,,,,,,,,,,,,,,,,,,,,,,,,,,,,,,
293584,2022-12-06_13h53.58.209,vts_reward_expectancy_bt,2022.2.4,Win32,57.14612264,Chrome,1536,864,,,l,0.1915,10,549,2,1,5,17,7,1,0,0,1,0,0,1,0,0,hexagon,circle,,,,,,,,,,,,,,,,,,,,,,,,,,,,,,,,,,,,,,,,,,,,,,,,,,,,,,
293584,2022-12-06_13h53.58.209,vts_reward_expectancy_bt,2022.2.4,Win32,57.14612264,Chrome,1536,864,,,l,0.4178,1,550,2,1,6,18,2,1,1,0,0,0,0,0,0,1,triangle,star,,,,,,,,,,,,,,,,,,,,,,,,,,,,,,,,,,,,,,,,,,,,,,,,,,,,,,
293584,2022-12-06_13h53.58.209,vts_reward_expectancy_bt,2022.2.4,Win32,57.14612264,Chrome,1536,864,,,a,0.2661,1,551,2,1,7,19,4,1,0,1,0,0,0,0,1,0,circle,hexagon,,,,,,,,,,,,,,,,,,,,,,,,,,,,,,,,,,,,,,,,,,,,,,,,,,,,,,
293584,2022-12-06_13h53.58.209,vts_reward_expectancy_bt,2022.2.4,Win32,57.14612264,Chrome,1536,864,,,l,0.0175,10,561,2,1,8,20,11,1,0,0,0,1,0,0,1,0,star,hexagon,,,,,,,,,,,,,,,,,,,,,,,,,,,,,,,,,,,,,,,,,,,,,,,,,,,,,,
293584,2022-12-06_13h53.58.209,vts_reward_expectancy_bt,2022.2.4,Win32,57.14612264,Chrome,1536,864,,,l,0.1504,1,562,2,1,9,21,9,1,0,0,0,1,1,0,0,0,star,triangle,,,,,,,,,,,,,,,,,,,,,,,,,,,,,,,,,,,,,,,,,,,,,,,,,,,,,,
293584,2022-12-06_13h53.58.209,vts_reward_expectancy_bt,2022.2.4,Win32,57.14612264,Chrome,1536,864,,,a,0.0004,1,563,2,1,10,22,8,1,0,0,1,0,0,0,0,1,hexagon,star,,,,,,,,,,,,,,,,,,,,,,,,,,,,,,,,,,,,,,,,,,,,,,,,,,,,,,
293584,2022-12-06_13h53.58.209,vts_reward_expectancy_bt,2022.2.4,Win32,57.14612264,Chrome,1536,864,,,a,0.0004,1,564,2,1,11,23,1,1,1,0,0,0,0,0,1,0,triangle,hexagon,,,,,,,,,,,,,,,,,,,,,,,,,,,,,,,,,,,,,,,,,,,,,,,,,,,,,,
293584,2022-12-06_13h53.58.209,vts_reward_expectancy_bt,2022.2.4,Win32,57.14612264,Chrome,1536,864,,,a,0.2804,1,565,2,2,0,24,0,1,1,0,0,0,0,1,0,0,triangle,circle,,,,,,,,,,,,,,,,,,,,,,,,,,,,,,,,,,,,,,,,,,,,,,,,,,,,,,
293584,2022-12-06_13h53.58.209,vts_reward_expectancy_bt,2022.2.4,Win32,57.14612264,Chrome,1536,864,,,a,0.2497,10,575,2,2,1,25,2,1,1,0,0,0,0,0,0,1,triangle,star,,,,,,,,,,,,,,,,,,,,,,,,,,,,,,,,,,,,,,,,,,,,,,,,,,,,,,
293584,2022-12-06_13h53.58.209,vts_reward_expectancy_bt,2022.2.4,Win32,57.14612264,Chrome,1536,864,,,l,0.4549,1,576,2,2,2,26,1,1,1,0,0,0,0,0,1,0,triangle,hexagon,,,,,,,,,,,,,,,,,,,,,,,,,,,,,,,,,,,,,,,,,,,,,,,,,,,,,,
293584,2022-12-06_13h53.58.209,vts_reward_expectancy_bt,2022.2.4,Win32,57.14612264,Chrome,1536,864,,,a,0.0495,10,586,2,2,3,27,4,1,0,1,0,0,0,0,1,0,circle,hexagon,,,,,,,,,,,,,,,,,,,,,,,,,,,,,,,,,,,,,,,,,,,,,,,,,,,,,,
293584,2022-12-06_13h53.58.209,vts_reward_expectancy_bt,2022.2.4,Win32,57.14612264,Chrome,1536,864,,,l,0.3876,1,587,2,2,4,28,11,1,0,0,0,1,0,0,1,0,star,hexagon,,,,,,,,,,,,,,,,,,,,,,,,,,,,,,,,,,,,,,,,,,,,,,,,,,,,,,
293584,2022-12-06_13h53.58.209,vts_reward_expectancy_bt,2022.2.4,Win32,57.14612264,Chrome,1536,864,,,a,0.1886,1,588,2,2,5,29,5,1,0,1,0,0,0,0,0,1,circle,star,,,,,,,,,,,,,,,,,,,,,,,,,,,,,,,,,,,,,,,,,,,,,,,,,,,,,,
293584,2022-12-06_13h53.58.209,vts_reward_expectancy_bt,2022.2.4,Win32,57.14612264,Chrome,1536,864,,,a,0.1672,10,598,2,2,6,30,8,1,0,0,1,0,0,0,0,1,hexagon,star,,,,,,,,,,,,,,,,,,,,,,,,,,,,,,,,,,,,,,,,,,,,,,,,,,,,,,
293584,2022-12-06_13h53.58.209,vts_reward_expectancy_bt,2022.2.4,Win32,57.14612264,Chrome,1536,864,,,l,0.5832,10,608,2,2,7,31,3,1,0,1,0,0,1,0,0,0,circle,triangle,,,,,,,,,,,,,,,,,,,,,,,,,,,,,,,,,,,,,,,,,,,,,,,,,,,,,,
293584,2022-12-06_13h53.58.209,vts_reward_expectancy_bt,2022.2.4,Win32,57.14612264,Chrome,1536,864,,,a,0.732,10,618,2,2,8,32,10,1,0,0,0,1,0,1,0,0,star ,circle,,,,,,,,,,,,,,,,,,,,,,,,,,,,,,,,,,,,,,,,,,,,,,,,,,,,,,
293584,2022-12-06_13h53.58.209,vts_reward_expectancy_bt,2022.2.4,Win32,57.14612264,Chrome,1536,864,,,a,0.634,1,619,2,2,9,33,6,1,0,0,1,0,1,0,0,0,hexagon,triangle,,,,,,,,,,,,,,,,,,,,,,,,,,,,,,,,,,,,,,,,,,,,,,,,,,,,,,
293584,2022-12-06_13h53.58.209,vts_reward_expectancy_bt,2022.2.4,Win32,57.14612264,Chrome,1536,864,,,l,0.76,10,629,2,2,10,34,7,1,0,0,1,0,0,1,0,0,hexagon,circle,,,,,,,,,,,,,,,,,,,,,,,,,,,,,,,,,,,,,,,,,,,,,,,,,,,,,,
293584,2022-12-06_13h53.58.209,vts_reward_expectancy_bt,2022.2.4,Win32,57.14612264,Chrome,1536,864,,,l,0.6257,10,639,2,2,11,35,9,1,0,0,0,1,1,0,0,0,star,triangle,,,,,,,,,,,,,,,,,,,,,,,,,,,,,,,,,,,,,,,,,,,,,,,,,,,,,,
293584,2022-12-06_13h53.58.209,vts_reward_expectancy_bt,2022.2.4,Win32,57.14612264,Chrome,1536,864,,,,,,,,,,,,,,,,,,,,,,,S,132,hexagon,0,0,d,1.5549,0,0,0,0,0,1,,,,,,,,,,,,,,,,,,,,,,,,,,,,,,,,,,,,,,,,,
293584,2022-12-06_13h53.58.209,vts_reward_expectancy_bt,2022.2.4,Win32,57.14612264,Chrome,1536,864,,,,,,,,,,,,,,,,,,,,,,,D,181,star,0,1,,,0,1,0,1,0,1,,,,,,,,,,,,,,,,,,,,,,,,,,,,,,,,,,,,,,,,,
293584,2022-12-06_13h53.58.209,vts_reward_expectancy_bt,2022.2.4,Win32,57.14612264,Chrome,1536,864,,,,,,,,,,,,,,,,,,,,,,,W,146,circle,0,1,d,0.6172,0,2,0,2,0,1,,,,,,,,,,,,,,,,,,,,,,,,,,,,,,,,,,,,,,,,,
293584,2022-12-06_13h53.58.209,vts_reward_expectancy_bt,2022.2.4,Win32,57.14612264,Chrome,1536,864,,,,,,,,,,,,,,,,,,,,,,,Y,139,triangle,1,1,f,0.1041,0,3,0,3,0,1,,,,,,,,,,,,,,,,,,,,,,,,,,,,,,,,,,,,,,,,,
293584,2022-12-06_13h53.58.209,vts_reward_expectancy_bt,2022.2.4,Win32,57.14612264,Chrome,1536,864,,,,,,,,,,,,,,,,,,,,,,,F,167,hexagon,1,0,d,1.0851,0,4,0,4,0,1,,,,,,,,,,,,,,,,,,,,,,,,,,,,,,,,,,,,,,,,,
293584,2022-12-06_13h53.58.209,vts_reward_expectancy_bt,2022.2.4,Win32,57.14612264,Chrome,1536,864,,,,,,,,,,,,,,,,,,,,,,,U,125,star,1,0,f,0.5383,0,5,0,5,0,1,,,,,,,,,,,,,,,,,,,,,,,,,,,,,,,,,,,,,,,,,
293584,2022-12-06_13h53.58.209,vts_reward_expectancy_bt,2022.2.4,Win32,57.14612264,Chrome,1536,864,,,,,,,,,,,,,,,,,,,,,,,H,174,circle,1,0,d,0.9209,0,6,0,6,0,1,,,,,,,,,,,,,,,,,,,,,,,,,,,,,,,,,,,,,,,,,
293584,2022-12-06_13h53.58.209,vts_reward_expectancy_bt,2022.2.4,Win32,57.14612264,Chrome,1536,864,,,,,,,,,,,,,,,,,,,,,,,B,160,triangle,1,0,d,0.551,0,7,0,7,0,1,,,,,,,,,,,,,,,,,,,,,,,,,,,,,,,,,,,,,,,,,
293584,2022-12-06_13h53.58.209,vts_reward_expectancy_bt,2022.2.4,Win32,57.14612264,Chrome,1536,864,,,,,,,,,,,,,,,,,,,,,,,S,132,hexagon,1,0,f,0.7559,0,8,0,8,0,1,,,,,,,,,,,,,,,,,,,,,,,,,,,,,,,,,,,,,,,,,
293584,2022-12-06_13h53.58.209,vts_reward_expectancy_bt,2022.2.4,Win32,57.14612264,Chrome,1536,864,,,,,,,,,,,,,,,,,,,,,,,D,181,star,1,0,d,0.5812,0,9,0,9,0,1,,,,,,,,,,,,,,,,,,,,,,,,,,,,,,,,,,,,,,,,,
293584,2022-12-06_13h53.58.209,vts_reward_expectancy_bt,2022.2.4,Win32,57.14612264,Chrome,1536,864,,,,,,,,,,,,,,,,,,,,,,,U,174,hexagon,1,0,f,0.7174,1,0,0,0,0,1,,,,,,,,,,,,,,,,,,,,,,,,,,,,,,,,,,,,,,,,,
293584,2022-12-06_13h53.58.209,vts_reward_expectancy_bt,2022.2.4,Win32,57.14612264,Chrome,1536,864,,,,,,,,,,,,,,,,,,,,,,,D,132,triangle,1,0,d,0.76,1,1,0,1,0,1,,,,,,,,,,,,,,,,,,,,,,,,,,,,,,,,,,,,,,,,,
293584,2022-12-06_13h53.58.209,vts_reward_expectancy_bt,2022.2.4,Win32,57.14612264,Chrome,1536,864,,,,,,,,,,,,,,,,,,,,,,,H,181,circle,1,0,d,0.6838,1,2,0,2,0,1,,,,,,,,,,,,,,,,,,,,,,,,,,,,,,,,,,,,,,,,,
293584,2022-12-06_13h53.58.209,vts_reward_expectancy_bt,2022.2.4,Win32,57.14612264,Chrome,1536,864,,,,,,,,,,,,,,,,,,,,,,,F,139,star,1,0,d,0.5639,1,3,0,3,0,1,,,,,,,,,,,,,,,,,,,,,,,,,,,,,,,,,,,,,,,,,
293584,2022-12-06_13h53.58.209,vts_reward_expectancy_bt,2022.2.4,Win32,57.14612264,Chrome,1536,864,,,,,,,,,,,,,,,,,,,,,,,W,125,hexagon,1,0,f,0.5366,1,4,0,4,0,1,,,,,,,,,,,,,,,,,,,,,,,,,,,,,,,,,,,,,,,,,
293584,2022-12-06_13h53.58.209,vts_reward_expectancy_bt,2022.2.4,Win32,57.14612264,Chrome,1536,864,,,,,,,,,,,,,,,,,,,,,,,S,167,triangle,1,0,f,0.6865,1,5,0,5,0,1,,,,,,,,,,,,,,,,,,,,,,,,,,,,,,,,,,,,,,,,,
293584,2022-12-06_13h53.58.209,vts_reward_expectancy_bt,2022.2.4,Win32,57.14612264,Chrome,1536,864,,,,,,,,,,,,,,,,,,,,,,,B,160,circle,1,0,d,0.6513,1,6,0,6,0,1,,,,,,,,,,,,,,,,,,,,,,,,,,,,,,,,,,,,,,,,,
293584,2022-12-06_13h53.58.209,vts_reward_expectancy_bt,2022.2.4,Win32,57.14612264,Chrome,1536,864,,,,,,,,,,,,,,,,,,,,,,,Y,146,star,1,0,f,0.6088,1,7,0,7,0,1,,,,,,,,,,,,,,,,,,,,,,,,,,,,,,,,,,,,,,,,,
293584,2022-12-06_13h53.58.209,vts_reward_expectancy_bt,2022.2.4,Win32,57.14612264,Chrome,1536,864,,,,,,,,,,,,,,,,,,,,,,,U,174,hexagon,1,0,f,0.7005,1,8,0,8,0,1,,,,,,,,,,,,,,,,,,,,,,,,,,,,,,,,,,,,,,,,,
293584,2022-12-06_13h53.58.209,vts_reward_expectancy_bt,2022.2.4,Win32,57.14612264,Chrome,1536,864,,,,,,,,,,,,,,,,,,,,,,,D,132,circle,1,0,d,0.5433,1,9,0,9,0,1,,,,,,,,,,,,,,,,,,,,,,,,,,,,,,,,,,,,,,,,,
293584,2022-12-06_13h53.58.209,vts_reward_expectancy_bt,2022.2.4,Win32,57.14612264,Chrome,1536,864,,,,,,,,,,,,,,,,,,,,,,,W,160,triangle,1,0,,,2,,,,,,k,1.8914,0,0,0,0,1,,,,,,,,,,,,,,,,,,,,,,,,,,,,,,,,,,
293584,2022-12-06_13h53.58.209,vts_reward_expectancy_bt,2022.2.4,Win32,57.14612264,Chrome,1536,864,,,,,,,,,,,,,,,,,,,,,,,Y,125,hexagon,1,0,,,2,,,,,,j,2.5018,1,0,1,0,1,,,,,,,,,,,,,,,,,,,,,,,,,,,,,,,,,,
293584,2022-12-06_13h53.58.209,vts_reward_expectancy_bt,2022.2.4,Win32,57.14612264,Chrome,1536,864,,,,,,,,,,,,,,,,,,,,,,,B,132,star,1,0,,,2,,,,,,j,1.4163,2,0,2,0,1,,,,,,,,,,,,,,,,,,,,,,,,,,,,,,,,,,
293584,2022-12-06_13h53.58.209,vts_reward_expectancy_bt,2022.2.4,Win32,57.14612264,Chrome,1536,864,,,,,,,,,,,,,,,,,,,,,,,U,146,circle,1,0,,,2,,,,,,j,0.692,3,0,3,0,1,,,,,,,,,,,,,,,,,,,,,,,,,,,,,,,,,,
293584,2022-12-06_13h53.58.209,vts_reward_expectancy_bt,2022.2.4,Win32,57.14612264,Chrome,1536,864,,,,,,,,,,,,,,,,,,,,,,,S,139,triangle,1,0,,,2,,,,,,j,0.8264,4,0,4,0,1,,,,,,,,,,,,,,,,,,,,,,,,,,,,,,,,,,
293584,2022-12-06_13h53.58.209,vts_reward_expectancy_bt,2022.2.4,Win32,57.14612264,Chrome,1536,864,,,,,,,,,,,,,,,,,,,,,,,H,167,hexagon,1,0,,,2,,,,,,k,0.4862,5,0,5,0,1,,,,,,,,,,,,,,,,,,,,,,,,,,,,,,,,,,
293584,2022-12-06_13h53.58.209,vts_reward_expectancy_bt,2022.2.4,Win32,57.14612264,Chrome,1536,864,,,,,,,,,,,,,,,,,,,,,,,D,174,star,1,0,,,2,,,,,,k,0.6178,6,0,6,0,1,,,,,,,,,,,,,,,,,,,,,,,,,,,,,,,,,,
293584,2022-12-06_13h53.58.209,vts_reward_expectancy_bt,2022.2.4,Win32,57.14612264,Chrome,1536,864,,,,,,,,,,,,,,,,,,,,,,,F,181,circle,1,0,,,2,,,,,,k,0.6422,7,0,7,0,1,,,,,,,,,,,,,,,,,,,,,,,,,,,,,,,,,,
293584,2022-12-06_13h53.58.209,vts_reward_expectancy_bt,2022.2.4,Win32,57.14612264,Chrome,1536,864,,,,,,,,,,,,,,,,,,,,,,,W,160,triangle,1,0,,,2,,,,,,k,0.6183,8,0,8,0,1,,,,,,,,,,,,,,,,,,,,,,,,,,,,,,,,,,
293584,2022-12-06_13h53.58.209,vts_reward_expectancy_bt,2022.2.4,Win32,57.14612264,Chrome,1536,864,,,,,,,,,,,,,,,,,,,,,,,Y,125,hexagon,1,0,,,2,,,,,,j,0.8169,9,0,9,0,1,,,,,,,,,,,,,,,,,,,,,,,,,,,,,,,,,,
293584,2022-12-06_13h53.58.209,vts_reward_expectancy_bt,2022.2.4,Win32,57.14612264,Chrome,1536,864,,,,,0,639,,,,,,,,,,,,,,,,,D,125,circle,1,0,,,3,,,,,,,,,,,,,-1,letter,NA,d,1.6241,vtsPrac,0,0,0,0,1,,,,,,,,,,,,,,,,,,,,,,,
293584,2022-12-06_13h53.58.209,vts_reward_expectancy_bt,2022.2.4,Win32,57.14612264,Chrome,1536,864,,,,,0,639,,,,,,,,,,,,,,,,,S,167,hexagon,1,0,,,3,,,,,,,,,,,,,repeat,letter,lettRpt,f,1.2312,vtsPrac,1,0,1,0,1,,,,,,,,,,,,,,,,,,,,,,,
293584,2022-12-06_13h53.58.209,vts_reward_expectancy_bt,2022.2.4,Win32,57.14612264,Chrome,1536,864,,,,,0,639,,,,,,,,,,,,,,,,,H,181,circle,1,0,,,3,,,,,,,,,,,,,switch,number,numSwt,k,1.2697,vtsPrac,2,0,2,0,1,,,,,,,,,,,,,,,,,,,,,,,
293584,2022-12-06_13h53.58.209,vts_reward_expectancy_bt,2022.2.4,Win32,57.14612264,Chrome,1536,864,,,,,0,639,,,,,,,,,,,,,,,,,U,160,hexagon,1,0,,,3,,,,,,,,,,,,,repeat,number,numRpt,k,1.4454,vtsPrac,3,0,3,0,1,,,,,,,,,,,,,,,,,,,,,,,
293584,2022-12-06_13h53.58.209,vts_reward_expectancy_bt,2022.2.4,Win32,57.14612264,Chrome,1536,864,,,,,0,639,,,,,,,,,,,,,,,,,D,125,hexagon,1,0,,,3,,,,,,,,,,,,,switch,letter,lettSwt,d,0.7001,vtsPrac,4,0,4,0,1,,,,,,,,,,,,,,,,,,,,,,,
293584,2022-12-06_13h53.58.209,vts_reward_expectancy_bt,2022.2.4,Win32,57.14612264,Chrome,1536,864,,,,,0,639,,,,,,,,,,,,,,,,,S,167,triangle,1,0,,,3,,,,,,,,,,,,,switch,number,numSwt,k,0.7652,vtsPrac,5,0,5,0,1,,,,,,,,,,,,,,,,,,,,,,,
293584,2022-12-06_13h53.58.209,vts_reward_expectancy_bt,2022.2.4,Win32,57.14612264,Chrome,1536,864,,,,,0,639,,,,,,,,,,,,,,,,,H,181,hexagon,1,0,,,3,,,,,,,,,,,,,switch,letter,lettSwt,d,0.8299,vtsPrac,6,0,6,0,1,,,,,,,,,,,,,,,,,,,,,,,
293584,2022-12-06_13h53.58.209,vts_reward_expectancy_bt,2022.2.4,Win32,57.14612264,Chrome,1536,864,,,,,0,639,,,,,,,,,,,,,,,,,U,160,circle,1,0,,,3,,,,,,,,,,,,,repeat,letter,lettRpt,f,0.7675,vtsPrac,7,0,7,0,1,,,,,,,,,,,,,,,,,,,,,,,
293584,2022-12-06_13h53.58.209,vts_reward_expectancy_bt,2022.2.4,Win32,57.14612264,Chrome,1536,864,,,,,0,639,,,,,,,,,,,,,,,,,D,139,hexagon,1,0,,,3,,,,,,,,,,,,,switch,number,numSwt,j,1.4125,vtsPrac,8,0,8,0,1,,,,,,,,,,,,,,,,,,,,,,,
293584,2022-12-06_13h53.58.209,vts_reward_expectancy_bt,2022.2.4,Win32,57.14612264,Chrome,1536,864,,,,,0,639,,,,,,,,,,,,,,,,,S,174,star,1,0,,,3,,,,,,,,,,,,,switch,letter,lettSwt,f,1.6515,vtsPrac,9,0,9,0,1,,,,,,,,,,,,,,,,,,,,,,,
293584,2022-12-06_13h53.58.209,vts_reward_expectancy_bt,2022.2.4,Win32,57.14612264,Chrome,1536,864,,,,,0,639,,,,,,,,,,,,,,,,,F,132,hexagon,1,0,,,3,,,,,,,,,,,,,switch,number,numSwt,j,0.751,vtsPrac,10,0,10,0,1,,,,,,,,,,,,,,,,,,,,,,,
293584,2022-12-06_13h53.58.209,vts_reward_expectancy_bt,2022.2.4,Win32,57.14612264,Chrome,1536,864,,,,,0,639,,,,,,,,,,,,,,,,,U,146,circle,1,0,,,3,,,,,,,,,,,,,repeat,number,numRpt,j,1.129,vtsPrac,11,0,11,0,1,,,,,,,,,,,,,,,,,,,,,,,
293584,2022-12-06_13h53.58.209,vts_reward_expectancy_bt,2022.2.4,Win32,57.14612264,Chrome,1536,864,,,,,0,639,,,,,,,,,,,,,,,,,Y,181,hexagon,1,0,,,3,,,,,,,,,,,,,switch,letter,lettSwt,f,0.7485,vtsPrac,12,0,12,0,1,,,,,,,,,,,,,,,,,,,,,,,
293584,2022-12-06_13h53.58.209,vts_reward_expectancy_bt,2022.2.4,Win32,57.14612264,Chrome,1536,864,,,,,0,639,,,,,,,,,,,,,,,,,W,167,star,1,0,,,3,,,,,,,,,,,,,repeat,letter,lettRpt,f,1.036,vtsPrac,13,0,13,0,1,,,,,,,,,,,,,,,,,,,,,,,
293584,2022-12-06_13h53.58.209,vts_reward_expectancy_bt,2022.2.4,Win32,57.14612264,Chrome,1536,864,,,,,0,639,,,,,,,,,,,,,,,,,D,132,triangle,1,0,,,3,,,,,,,,,,,,,repeat,letter,lettRpt,d,0.712,vtsPrac,14,0,14,0,1,,,,,,,,,,,,,,,,,,,,,,,
293584,2022-12-06_13h53.58.209,vts_reward_expectancy_bt,2022.2.4,Win32,57.14612264,Chrome,1536,864,,,,,0,639,,,,,,,,,,,,,,,,,H,125,circle,1,0,,,3,,,,,,,,,,,,,repeat,letter,lettRpt,d,0.8043,vtsPrac,15,0,15,0,1,,,,,,,,,,,,,,,,,,,,,,,
293584,2022-12-06_13h53.58.209,vts_reward_expectancy_bt,2022.2.4,Win32,57.14612264,Chrome,1536,864,,,,,0,639,,,,,,,,,,,,,,,,,U,139,circle,1,0,,,3,,,,,,,,,,,,,repeat,letter,lettRpt,f,0.916,vtsPrac,16,0,16,0,1,,,,,,,,,,,,,,,,,,,,,,,
293584,2022-12-06_13h53.58.209,vts_reward_expectancy_bt,2022.2.4,Win32,57.14612264,Chrome,1536,864,,,,,0,639,,,,,,,,,,,,,,,,,B,181,star,1,0,,,3,,,,,,,,,,,,,switch,number,numSwt,k,1.0797,vtsPrac,17,0,17,0,1,,,,,,,,,,,,,,,,,,,,,,,
293584,2022-12-06_13h53.58.209,vts_reward_expectancy_bt,2022.2.4,Win32,57.14612264,Chrome,1536,864,,,,,0,639,,,,,,,,,,,,,,,,,S,167,circle,1,0,,,3,,,,,,,,,,,,,switch,letter,lettSwt,f,0.7544,vtsPrac,18,0,18,0,1,,,,,,,,,,,,,,,,,,,,,,,
293584,2022-12-06_13h53.58.209,vts_reward_expectancy_bt,2022.2.4,Win32,57.14612264,Chrome,1536,864,,,,,0,639,,,,,,,,,,,,,,,,,W,132,star,1,0,,,3,,,,,,,,,,,,,repeat,letter,lettRpt,f,1.2789,vtsPrac,19,0,19,0,1,,,,,,,,,,,,,,,,,,,,,,,
293584,2022-12-06_13h53.58.209,vts_reward_expectancy_bt,2022.2.4,Win32,57.14612264,Chrome,1536,864,,,,,0,639,,,,,,,,,,,,,,,,,D,174,hexagon,1,0,,,3,,,,,,,,,,,,,repeat,letter,lettRpt,d,1.3531,vtsPrac,20,0,20,0,1,,,,,,,,,,,,,,,,,,,,,,,
293584,2022-12-06_13h53.58.209,vts_reward_expectancy_bt,2022.2.4,Win32,57.14612264,Chrome,1536,864,,,,,0,639,,,,,,,,,,,,,,,,,Y,181,triangle,1,0,,,3,,,,,,,,,,,,,repeat,letter,lettRpt,f,1.3479,vtsPrac,21,0,21,0,1,,,,,,,,,,,,,,,,,,,,,,,
293584,2022-12-06_13h53.58.209,vts_reward_expectancy_bt,2022.2.4,Win32,57.14612264,Chrome,1536,864,,,,,0,639,,,,,,,,,,,,,,,,,F,167,hexagon,1,0,,,3,,,,,,,,,,,,,repeat,letter,lettRpt,d,1.5162,vtsPrac,22,0,22,0,1,,,,,,,,,,,,,,,,,,,,,,,
293584,2022-12-06_13h53.58.209,vts_reward_expectancy_bt,2022.2.4,Win32,57.14612264,Chrome,1536,864,,,,,0,639,,,,,,,,,,,,,,,,,W,125,circle,1,0,,,3,,,,,,,,,,,,,repeat,letter,lettRpt,f,0.6632,vtsPrac,23,0,23,0,1,,,,,,,,,,,,,,,,,,,,,,,
293584,2022-12-06_13h53.58.209,vts_reward_expectancy_bt,2022.2.4,Win32,57.14612264,Chrome,1536,864,,,,,0,639,,,,,,,,,,,,,,,,,D,181,circle,1,0,,,3,,,,,,,,,,,,,switch,number,numSwt,k,0.896,vtsPrac,24,0,24,0,1,,,,,,,,,,,,,,,,,,,,,,,
293584,2022-12-06_13h53.58.209,vts_reward_expectancy_bt,2022.2.4,Win32,57.14612264,Chrome,1536,864,,,,,0,639,,,,,,,,,,,,,,,,,W,125,triangle,1,0,,,3,,,,,,,,,,,,,switch,letter,lettSwt,f,0.7717,vtsPrac,25,0,25,0,1,,,,,,,,,,,,,,,,,,,,,,,
293584,2022-12-06_13h53.58.209,vts_reward_expectancy_bt,2022.2.4,Win32,57.14612264,Chrome,1536,864,,,,,0,639,,,,,,,,,,,,,,,,,U,139,star,1,0,,,3,,,,,,,,,,,,,repeat,letter,lettRpt,f,1.0815,vtsPrac,26,0,26,0,1,,,,,,,,,,,,,,,,,,,,,,,
293584,2022-12-06_13h53.58.209,vts_reward_expectancy_bt,2022.2.4,Win32,57.14612264,Chrome,1536,864,,,,,0,639,,,,,,,,,,,,,,,,,Y,160,circle,1,0,,,3,,,,,,,,,,,,,repeat,letter,lettRpt,f,1.7613,vtsPrac,27,0,27,0,1,,,,,,,,,,,,,,,,,,,,,,,
293584,2022-12-06_13h53.58.209,vts_reward_expectancy_bt,2022.2.4,Win32,57.14612264,Chrome,1536,864,,,,,0,639,,,,,,,,,,,,,,,,,U,174,hexagon,1,0,,,3,,,,,,,,,,,,,repeat,letter,lettRpt,f,1.2627,vtsPrac,28,0,28,0,1,,,,,,,,,,,,,,,,,,,,,,,
293584,2022-12-06_13h53.58.209,vts_reward_expectancy_bt,2022.2.4,Win32,57.14612264,Chrome,1536,864,,,,,0,639,,,,,,,,,,,,,,,,,B,132,triangle,1,0,,,3,,,,,,,,,,,,,repeat,letter,lettRpt,d,1.2028,vtsPrac,29,0,29,0,1,,,,,,,,,,,,,,,,,,,,,,,
293584,2022-12-06_13h53.58.209,vts_reward_expectancy_bt,2022.2.4,Win32,57.14612264,Chrome,1536,864,,,,,0,639,,,,,,,,,,,,,,,,,D,181,circle,1,0,,,3,,,,,,,,,,,,,repeat,letter,lettRpt,d,0.7795,vtsPrac,30,0,30,0,1,,,,,,,,,,,,,,,,,,,,,,,
293584,2022-12-06_13h53.58.209,vts_reward_expectancy_bt,2022.2.4,Win32,57.14612264,Chrome,1536,864,,,,,0,639,,,,,,,,,,,,,,,,,F,139,star,1,0,,,3,,,,,,,,,,,,,switch,number,numSwt,j,1.1131,vtsPrac,31,0,31,0,1,,,,,,,,,,,,,,,,,,,,,,,
293584,2022-12-06_13h53.58.209,vts_reward_expectancy_bt,2022.2.4,Win32,57.14612264,Chrome,1536,864,,,,,,,,,,,,,,,,,,,,,,,,,,,,,,,,,,,,,,,,,,,,,,,,,,,,,,,,,,,,,,,,,,,,,,,,,,,,
293584,2022-12-06_13h53.58.209,vts_reward_expectancy_bt,2022.2.4,Win32,57.14612264,Chrome,1536,864,,,,,,,,,,,,,,,,,,,,,,,,,,,,,,,,,,,,,,,,,,,,,,,,,,,,,,,,,,,,,,,,,,,,,,,,,,,,
293584,2022-12-06_13h53.58.209,vts_reward_expectancy_bt,2022.2.4,Win32,57.14612264,Chrome,1536,864,,,,,0,639,,,,,,,,,,,,,,,,,U,181,hexagon,1,0,,,,,,,,,,,,,,,,repeat,number,numRpt,k,2.1663,noRew,,,,,,0,0,0,0,0,1,,,,,,,,,,,,,,,,,
293584,2022-12-06_13h53.58.209,vts_reward_expectancy_bt,2022.2.4,Win32,57.14612264,Chrome,1536,864,,,,,0,639,,,,,,,,,,,,,,,,,S,174,triangle,1,0,,,,,,,,,,,,,,,,repeat,number,numRpt,k,2.0459,noRew,,,,,,0,1,0,1,0,1,,,,,,,,,,,,,,,,,
293584,2022-12-06_13h53.58.209,vts_reward_expectancy_bt,2022.2.4,Win32,57.14612264,Chrome,1536,864,,,,,0,639,,,,,,,,,,,,,,,,,Y,139,hexagon,1,0,,,,,,,,,,,,,,,,switch,letter,lettSwt,f,1.8043,noRew,,,,,,0,2,0,2,0,1,,,,,,,,,,,,,,,,,
293584,2022-12-06_13h53.58.209,vts_reward_expectancy_bt,2022.2.4,Win32,57.14612264,Chrome,1536,864,,,,,0,639,,,,,,,,,,,,,,,,,H,160,triangle,1,0,,,,,,,,,,,,,,,,repeat,letter,lettRpt,d,0.8139,noRew,,,,,,0,3,0,3,0,1,,,,,,,,,,,,,,,,,
293584,2022-12-06_13h53.58.209,vts_reward_expectancy_bt,2022.2.4,Win32,57.14612264,Chrome,1536,864,,,,,0,639,,,,,,,,,,,,,,,,,U,181,star,1,0,,,,,,,,,,,,,,,,repeat,letter,lettRpt,f,0.9628,noRew,,,,,,0,4,0,4,0,1,,,,,,,,,,,,,,,,,
293584,2022-12-06_13h53.58.209,vts_reward_expectancy_bt,2022.2.4,Win32,57.14612264,Chrome,1536,864,,,,,0,639,,,,,,,,,,,,,,,,,S,174,triangle,1,0,,,,,,,,,,,,,,,,switch,number,numSwt,k,0.7988,noRew,,,,,,0,5,0,5,0,1,,,,,,,,,,,,,,,,,
293584,2022-12-06_13h53.58.209,vts_reward_expectancy_bt,2022.2.4,Win32,57.14612264,Chrome,1536,864,,,,,0,639,,,,,,,,,,,,,,,,,Y,139,triangle,1,0,,,,,,,,,,,,,,,,repeat,number,numRpt,j,0.8127,noRew,,,,,,0,6,0,6,0,1,,,,,,,,,,,,,,,,,
293584,2022-12-06_13h53.58.209,vts_reward_expectancy_bt,2022.2.4,Win32,57.14612264,Chrome,1536,864,,,,,0,639,,,,,,,,,,,,,,,,,H,160,circle,1,0,,,,,,,,,,,,,,,,switch,letter,lettSwt,d,0.8465,noRew,,,,,,0,7,0,7,0,1,,,,,,,,,,,,,,,,,
293584,2022-12-06_13h53.58.209,vts_reward_expectancy_bt,2022.2.4,Win32,57.14612264,Chrome,1536,864,,,,,0,639,,,,,,,,,,,,,,,,,F,139,hexagon,1,0,,,,,,,,,,,,,,,,switch,number,numSwt,j,1.1208,noRew,,,,,,0,8,0,8,0,1,,,,,,,,,,,,,,,,,
293584,2022-12-06_13h53.58.209,vts_reward_expectancy_bt,2022.2.4,Win32,57.14612264,Chrome,1536,864,,,,,0,639,,,,,,,,,,,,,,,,,S,160,star,1,0,,,,,,,,,,,,,,,,repeat,number,numRpt,k,1.895,noRew,,,,,,0,9,0,9,0,1,,,,,,,,,,,,,,,,,
293584,2022-12-06_13h53.58.209,vts_reward_expectancy_bt,2022.2.4,Win32,57.14612264,Chrome,1536,864,,,,,0,639,,,,,,,,,,,,,,,,,U,132,star,1,0,,,,,,,,,,,,,,,,repeat,number,numRpt,j,2.9455,noRew,,,,,,0,10,0,10,0,1,,,,,,,,,,,,,,,,,
293584,2022-12-06_13h53.58.209,vts_reward_expectancy_bt,2022.2.4,Win32,57.14612264,Chrome,1536,864,,,,,0,639,,,,,,,,,,,,,,,,,W,167,triangle,1,0,,,,,,,,,,,,,,,,switch,letter,lettSwt,f,0.6144,noRew,,,,,,0,11,0,11,0,1,,,,,,,,,,,,,,,,,
293584,2022-12-06_13h53.58.209,vts_reward_expectancy_bt,2022.2.4,Win32,57.14612264,Chrome,1536,864,,,,,0,639,,,,,,,,,,,,,,,,,F,146,triangle,1,0,,,,,,,,,,,,,,,,repeat,letter,lettRpt,d,1.4469,noRew,,,,,,0,12,0,12,0,1,,,,,,,,,,,,,,,,,
293584,2022-12-06_13h53.58.209,vts_reward_expectancy_bt,2022.2.4,Win32,57.14612264,Chrome,1536,864,,,,,0,639,,,,,,,,,,,,,,,,,S,167,circle,1,0,,,,,,,,,,,,,,,,switch,number,numSwt,k,0.5297,noRew,,,,,,0,13,0,13,0,1,,,,,,,,,,,,,,,,,
293584,2022-12-06_13h53.58.209,vts_reward_expectancy_bt,2022.2.4,Win32,57.14612264,Chrome,1536,864,,,,,0,639,,,,,,,,,,,,,,,,,D,125,hexagon,1,0,,,,,,,,,,,,,,,,switch,letter,lettSwt,d,0.6298,noRew,,,,,,0,14,0,14,0,1,,,,,,,,,,,,,,,,,
293584,2022-12-06_13h53.58.209,vts_reward_expectancy_bt,2022.2.4,Win32,57.14612264,Chrome,1536,864,,,,,0,639,,,,,,,,,,,,,,,,,H,160,star,1,0,,,,,,,,,,,,,,,,repeat,letter,lettRpt,d,0.7539,noRew,,,,,,0,15,0,15,0,1,,,,,,,,,,,,,,,,,
293584,2022-12-06_13h53.58.209,vts_reward_expectancy_bt,2022.2.4,Win32,57.14612264,Chrome,1536,864,,,,,0,639,,,,,,,,,,,,,,,,,W,125,circle,0,0,,,,,,,,,,,,,,,,repeat,letter,NA,d,0.7375,noRew,,,,,,0,16,0,16,0,1,,,,,,,,,,,,,,,,,
293584,2022-12-06_13h53.58.209,vts_reward_expectancy_bt,2022.2.4,Win32,57.14612264,Chrome,1536,864,,,,,0,639,,,,,,,,,,,,,,,,,B,181,triangle,1,1,,,,,,,,,,,,,,,,repeat,letter,lettRpt,d,0.7313,noRew,,,,,,0,17,0,17,0,1,,,,,,,,,,,,,,,,,
293584,2022-12-06_13h53.58.209,vts_reward_expectancy_bt,2022.2.4,Win32,57.14612264,Chrome,1536,864,,,,,0,639,,,,,,,,,,,,,,,,,D,132,circle,1,0,,,,,,,,,,,,,,,,repeat,letter,lettRpt,d,0.7704,noRew,,,,,,0,18,0,18,0,1,,,,,,,,,,,,,,,,,
293584,2022-12-06_13h53.58.209,vts_reward_expectancy_bt,2022.2.4,Win32,57.14612264,Chrome,1536,864,,,,,0,639,,,,,,,,,,,,,,,,,S,146,triangle,1,0,,,,,,,,,,,,,,,,repeat,letter,lettRpt,f,1.1973,noRew,,,,,,0,19,0,19,0,1,,,,,,,,,,,,,,,,,
293584,2022-12-06_13h53.58.209,vts_reward_expectancy_bt,2022.2.4,Win32,57.14612264,Chrome,1536,864,,,,,0,639,,,,,,,,,,,,,,,,,Y,125,star,1,0,,,,,,,,,,,,,,,,repeat,letter,lettRpt,f,1.2121,noRew,,,,,,0,20,0,20,0,1,,,,,,,,,,,,,,,,,
293584,2022-12-06_13h53.58.209,vts_reward_expectancy_bt,2022.2.4,Win32,57.14612264,Chrome,1536,864,,,,,0,639,,,,,,,,,,,,,,,,,S,146,hexagon,1,0,,,,,,,,,,,,,,,,repeat,letter,lettRpt,f,1.2791,noRew,,,,,,0,21,0,21,0,1,,,,,,,,,,,,,,,,,
293584,2022-12-06_13h53.58.209,vts_reward_expectancy_bt,2022.2.4,Win32,57.14612264,Chrome,1536,864,,,,,0,639,,,,,,,,,,,,,,,,,F,160,circle,1,0,,,,,,,,,,,,,,,,repeat,letter,lettRpt,d,0.8798,noRew,,,,,,0,22,0,22,0,1,,,,,,,,,,,,,,,,,
293584,2022-12-06_13h53.58.209,vts_reward_expectancy_bt,2022.2.4,Win32,57.14612264,Chrome,1536,864,,,,,0,639,,,,,,,,,,,,,,,,,W,181,triangle,1,0,,,,,,,,,,,,,,,,repeat,letter,lettRpt,f,1.0151,noRew,,,,,,0,23,0,23,0,1,,,,,,,,,,,,,,,,,
293584,2022-12-06_13h53.58.209,vts_reward_expectancy_bt,2022.2.4,Win32,57.14612264,Chrome,1536,864,,,,,0,639,,,,,,,,,,,,,,,,,W,132,triangle,1,0,,,,,,,,,,,,,,,,repeat,letter,lettRpt,f,1.135,noRew,,,,,,0,24,0,24,0,1,,,,,,,,,,,,,,,,,
293584,2022-12-06_13h53.58.209,vts_reward_expectancy_bt,2022.2.4,Win32,57.14612264,Chrome,1536,864,,,,,0,639,,,,,,,,,,,,,,,,,Y,181,hexagon,1,0,,,,,,,,,,,,,,,,switch,number,numSwt,k,1.2222,noRew,,,,,,0,25,0,25,0,1,,,,,,,,,,,,,,,,,
293584,2022-12-06_13h53.58.209,vts_reward_expectancy_bt,2022.2.4,Win32,57.14612264,Chrome,1536,864,,,,,0,639,,,,,,,,,,,,,,,,,S,160,hexagon,1,0,,,,,,,,,,,,,,,,switch,letter,lettSwt,f,1.0975,noRew,,,,,,0,26,0,26,0,1,,,,,,,,,,,,,,,,,
293584,2022-12-06_13h53.58.209,vts_reward_expectancy_bt,2022.2.4,Win32,57.14612264,Chrome,1536,864,,,,,0,639,,,,,,,,,,,,,,,,,U,167,triangle,1,0,,,,,,,,,,,,,,,,switch,number,numSwt,k,1.7206,noRew,,,,,,0,27,0,27,0,1,,,,,,,,,,,,,,,,,
293584,2022-12-06_13h53.58.209,vts_reward_expectancy_bt,2022.2.4,Win32,57.14612264,Chrome,1536,864,,,,,0,639,,,,,,,,,,,,,,,,,D,174,hexagon,-1,0,,,,,,,,,,,,,,,,switch,no_choice,NA,,,noRew,,,,,,0,28,0,28,0,1,,,,,,,,,,,,,,,,,
293584,2022-12-06_13h53.58.209,vts_reward_expectancy_bt,2022.2.4,Win32,57.14612264,Chrome,1536,864,,,,,0,639,,,,,,,,,,,,,,,,,S,132,triangle,1,0,,,,,,,,,,,,,,,,switch,letter,lettSwt,f,0.6344,noRew,,,,,,0,29,0,29,0,1,,,,,,,,,,,,,,,,,
293584,2022-12-06_13h53.58.209,vts_reward_expectancy_bt,2022.2.4,Win32,57.14612264,Chrome,1536,864,,,,,0,639,,,,,,,,,,,,,,,,,W,167,hexagon,1,0,,,,,,,,,,,,,,,,repeat,letter,lettRpt,f,1.1033,noRew,,,,,,0,30,0,30,0,1,,,,,,,,,,,,,,,,,
293584,2022-12-06_13h53.58.209,vts_reward_expectancy_bt,2022.2.4,Win32,57.14612264,Chrome,1536,864,,,,,0,639,,,,,,,,,,,,,,,,,F,139,triangle,1,0,,,,,,,,,,,,,,,,switch,number,numSwt,j,1.7451,noRew,,,,,,0,31,0,31,0,1,,,,,,,,,,,,,,,,,
293584,2022-12-06_13h53.58.209,vts_reward_expectancy_bt,2022.2.4,Win32,57.14612264,Chrome,1536,864,,,,,0,639,,,,,,,,,,,,,,,,,W,139,triangle,1,0,,,,,,,,,,,,,,,,repeat,number,numRpt,j,1.3544,noRew,,,,,,0,32,0,32,0,1,,,,,,,,,,,,,,,,,
293584,2022-12-06_13h53.58.209,vts_reward_expectancy_bt,2022.2.4,Win32,57.14612264,Chrome,1536,864,,,,,0,639,,,,,,,,,,,,,,,,,B,174,hexagon,1,0,,,,,,,,,,,,,,,,switch,letter,lettSwt,d,1.2948,noRew,,,,,,0,33,0,33,0,1,,,,,,,,,,,,,,,,,
293584,2022-12-06_13h53.58.209,vts_reward_expectancy_bt,2022.2.4,Win32,57.14612264,Chrome,1536,864,,,,,0,639,,,,,,,,,,,,,,,,,S,160,triangle,1,0,,,,,,,,,,,,,,,,switch,number,numSwt,k,1.9546,noRew,,,,,,0,34,0,34,0,1,,,,,,,,,,,,,,,,,
293584,2022-12-06_13h53.58.209,vts_reward_expectancy_bt,2022.2.4,Win32,57.14612264,Chrome,1536,864,,,,,0,639,,,,,,,,,,,,,,,,,F,181,star,1,0,,,,,,,,,,,,,,,,repeat,number,numRpt,k,1.1966,noRew,,,,,,0,35,0,35,0,1,,,,,,,,,,,,,,,,,
293584,2022-12-06_13h53.58.209,vts_reward_expectancy_bt,2022.2.4,Win32,57.14612264,Chrome,1536,864,,,,,0,639,,,,,,,,,,,,,,,,,W,125,circle,1,0,,,,,,,,,,,,,,,,switch,letter,lettSwt,f,1.4794,noRew,,,,,,0,36,0,36,0,1,,,,,,,,,,,,,,,,,
293584,2022-12-06_13h53.58.209,vts_reward_expectancy_bt,2022.2.4,Win32,57.14612264,Chrome,1536,864,,,,,0,639,,,,,,,,,,,,,,,,,B,181,hexagon,1,0,,,,,,,,,,,,,,,,repeat,letter,lettRpt,d,1.08,noRew,,,,,,0,37,0,37,0,1,,,,,,,,,,,,,,,,,
293584,2022-12-06_13h53.58.209,vts_reward_expectancy_bt,2022.2.4,Win32,57.14612264,Chrome,1536,864,,,,,0,639,,,,,,,,,,,,,,,,,D,132,circle,1,0,,,,,,,,,,,,,,,,switch,number,numSwt,j,1.204,noRew,,,,,,0,38,0,38,0,1,,,,,,,,,,,,,,,,,
293584,2022-12-06_13h53.58.209,vts_reward_expectancy_bt,2022.2.4,Win32,57.14612264,Chrome,1536,864,,,,,0,639,,,,,,,,,,,,,,,,,S,146,triangle,-1,0,,,,,,,,,,,,,,,,switch,no_choice,NA,,,noRew,,,,,,0,39,0,39,0,1,,,,,,,,,,,,,,,,,
293584,2022-12-06_13h53.58.209,vts_reward_expectancy_bt,2022.2.4,Win32,57.14612264,Chrome,1536,864,,,,,0,639,,,,,,,,,,,,,,,,,Y,125,hexagon,1,0,,,,,,,,,,,,,,,,switch,letter,lettSwt,f,0.839,noRew,,,,,,0,40,0,40,0,1,,,,,,,,,,,,,,,,,
293584,2022-12-06_13h53.58.209,vts_reward_expectancy_bt,2022.2.4,Win32,57.14612264,Chrome,1536,864,,,,,0,639,,,,,,,,,,,,,,,,,H,132,triangle,0,0,,,,,,,,,,,,,,,,repeat,letter,NA,f,2.3268,noRew,,,,,,0,41,0,41,0,1,,,,,,,,,,,,,,,,,
293584,2022-12-06_13h53.58.209,vts_reward_expectancy_bt,2022.2.4,Win32,57.14612264,Chrome,1536,864,,,,,0,639,,,,,,,,,,,,,,,,,B,174,circle,1,1,,,,,,,,,,,,,,,,repeat,letter,lettRpt,d,0.5841,noRew,,,,,,0,42,0,42,0,1,,,,,,,,,,,,,,,,,
293584,2022-12-06_13h53.58.209,vts_reward_expectancy_bt,2022.2.4,Win32,57.14612264,Chrome,1536,864,,,,,0,639,,,,,,,,,,,,,,,,,U,146,triangle,1,0,,,,,,,,,,,,,,,,repeat,letter,lettRpt,f,0.684,noRew,,,,,,0,43,0,43,0,1,,,,,,,,,,,,,,,,,
293584,2022-12-06_13h53.58.209,vts_reward_expectancy_bt,2022.2.4,Win32,57.14612264,Chrome,1536,864,,,,,0,639,,,,,,,,,,,,,,,,,W,174,hexagon,1,0,,,,,,,,,,,,,,,,repeat,letter,lettRpt,f,1.0668,noRew,,,,,,0,44,0,44,0,1,,,,,,,,,,,,,,,,,
293584,2022-12-06_13h53.58.209,vts_reward_expectancy_bt,2022.2.4,Win32,57.14612264,Chrome,1536,864,,,,,0,639,,,,,,,,,,,,,,,,,S,181,circle,1,0,,,,,,,,,,,,,,,,repeat,letter,lettRpt,f,0.8948,noRew,,,,,,0,45,0,45,0,1,,,,,,,,,,,,,,,,,
293584,2022-12-06_13h53.58.209,vts_reward_expectancy_bt,2022.2.4,Win32,57.14612264,Chrome,1536,864,,,,,0,639,,,,,,,,,,,,,,,,,U,167,circle,1,0,,,,,,,,,,,,,,,,repeat,letter,lettRpt,f,0.8684,noRew,,,,,,0,46,0,46,0,1,,,,,,,,,,,,,,,,,
293584,2022-12-06_13h53.58.209,vts_reward_expectancy_bt,2022.2.4,Win32,57.14612264,Chrome,1536,864,,,,,0,639,,,,,,,,,,,,,,,,,Y,146,star,1,0,,,,,,,,,,,,,,,,switch,number,numSwt,j,0.9917,noRew,,,,,,0,47,0,47,0,1,,,,,,,,,,,,,,,,,
293584,2022-12-06_13h53.58.209,vts_reward_expectancy_bt,2022.2.4,Win32,57.14612264,Chrome,1536,864,,,,,0,639,,,,,,,,,,,,,,,,,U,132,circle,1,0,,,,,,,,,,,,,,,,repeat,number,numRpt,j,1.2004,noRew,,,,,,0,48,0,48,0,1,,,,,,,,,,,,,,,,,
293584,2022-12-06_13h53.58.209,vts_reward_expectancy_bt,2022.2.4,Win32,57.14612264,Chrome,1536,864,,,,,0,639,,,,,,,,,,,,,,,,,H,146,hexagon,1,0,,,,,,,,,,,,,,,,switch,letter,lettSwt,d,0.8842,noRew,,,,,,0,49,0,49,0,1,,,,,,,,,,,,,,,,,
293584,2022-12-06_13h53.58.209,vts_reward_expectancy_bt,2022.2.4,Win32,57.14612264,Chrome,1536,864,,,,,0,639,,,,,,,,,,,,,,,,,F,139,circle,1,0,,,,,,,,,,,,,,,,repeat,letter,lettRpt,d,0.9511,noRew,,,,,,0,50,0,50,0,1,,,,,,,,,,,,,,,,,
293584,2022-12-06_13h53.58.209,vts_reward_expectancy_bt,2022.2.4,Win32,57.14612264,Chrome,1536,864,,,,,0,639,,,,,,,,,,,,,,,,,W,125,star,1,0,,,,,,,,,,,,,,,,repeat,letter,lettRpt,f,0.7921,noRew,,,,,,0,51,0,51,0,1,,,,,,,,,,,,,,,,,
293584,2022-12-06_13h53.58.209,vts_reward_expectancy_bt,2022.2.4,Win32,57.14612264,Chrome,1536,864,,,,,0,639,,,,,,,,,,,,,,,,,F,160,hexagon,1,0,,,,,,,,,,,,,,,,repeat,letter,lettRpt,d,1.0339,noRew,,,,,,0,52,0,52,0,1,,,,,,,,,,,,,,,,,
293584,2022-12-06_13h53.58.209,vts_reward_expectancy_bt,2022.2.4,Win32,57.14612264,Chrome,1536,864,,,,,0,639,,,,,,,,,,,,,,,,,D,146,triangle,1,0,,,,,,,,,,,,,,,,repeat,letter,lettRpt,d,1.117,noRew,,,,,,0,53,0,53,0,1,,,,,,,,,,,,,,,,,
293584,2022-12-06_13h53.58.209,vts_reward_expectancy_bt,2022.2.4,Win32,57.14612264,Chrome,1536,864,,,,,0,639,,,,,,,,,,,,,,,,,B,181,star,1,0,,,,,,,,,,,,,,,,switch,number,numSwt,k,1.3537,noRew,,,,,,0,54,0,54,0,1,,,,,,,,,,,,,,,,,
293584,2022-12-06_13h53.58.209,vts_reward_expectancy_bt,2022.2.4,Win32,57.14612264,Chrome,1536,864,,,,,0,639,,,,,,,,,,,,,,,,,Y,167,hexagon,1,0,,,,,,,,,,,,,,,,switch,letter,lettSwt,f,0.767,noRew,,,,,,0,55,0,55,0,1,,,,,,,,,,,,,,,,,
293584,2022-12-06_13h53.58.209,vts_reward_expectancy_bt,2022.2.4,Win32,57.14612264,Chrome,1536,864,,,,,0,639,,,,,,,,,,,,,,,,,W,181,star,1,0,,,,,,,,,,,,,,,,switch,number,numSwt,k,1.0004,noRew,,,,,,0,56,0,56,0,1,,,,,,,,,,,,,,,,,
293584,2022-12-06_13h53.58.209,vts_reward_expectancy_bt,2022.2.4,Win32,57.14612264,Chrome,1536,864,,,,,0,639,,,,,,,,,,,,,,,,,D,146,circle,0,0,,,,,,,,,,,,,,,,switch,letter,NA,f,2.5173,noRew,,,,,,0,57,0,57,0,1,,,,,,,,,,,,,,,,,
293584,2022-12-06_13h53.58.209,vts_reward_expectancy_bt,2022.2.4,Win32,57.14612264,Chrome,1536,864,,,,,0,639,,,,,,,,,,,,,,,,,F,167,triangle,1,1,,,,,,,,,,,,,,,,switch,number,numSwt,k,1.47,noRew,,,,,,0,58,0,58,0,1,,,,,,,,,,,,,,,,,
293584,2022-12-06_13h53.58.209,vts_reward_expectancy_bt,2022.2.4,Win32,57.14612264,Chrome,1536,864,,,,,0,639,,,,,,,,,,,,,,,,,Y,160,circle,1,0,,,,,,,,,,,,,,,,repeat,number,numRpt,k,1.0354,noRew,,,,,,0,59,0,59,0,1,,,,,,,,,,,,,,,,,
293584,2022-12-06_13h53.58.209,vts_reward_expectancy_bt,2022.2.4,Win32,57.14612264,Chrome,1536,864,,,,,0,639,,,,,,,,,,,,,,,,,F,167,circle,1,0,,,,,,,,,,,,,,,,switch,letter,lettSwt,d,0.8914,noRew,,,,,,0,60,0,60,0,1,,,,,,,,,,,,,,,,,
293584,2022-12-06_13h53.58.209,vts_reward_expectancy_bt,2022.2.4,Win32,57.14612264,Chrome,1536,864,,,,,0,639,,,,,,,,,,,,,,,,,U,174,hexagon,1,0,,,,,,,,,,,,,,,,repeat,letter,lettRpt,f,1.4009,noRew,,,,,,0,61,0,61,0,1,,,,,,,,,,,,,,,,,
293584,2022-12-06_13h53.58.209,vts_reward_expectancy_bt,2022.2.4,Win32,57.14612264,Chrome,1536,864,,,,,0,639,,,,,,,,,,,,,,,,,S,181,hexagon,1,0,,,,,,,,,,,,,,,,switch,number,numSwt,k,1.5995,noRew,,,,,,0,62,0,62,0,1,,,,,,,,,,,,,,,,,
293584,2022-12-06_13h53.58.209,vts_reward_expectancy_bt,2022.2.4,Win32,57.14612264,Chrome,1536,864,,,,,0,639,,,,,,,,,,,,,,,,,B,125,triangle,1,0,,,,,,,,,,,,,,,,repeat,number,numRpt,j,1.1508,noRew,,,,,,0,63,0,63,0,1,,,,,,,,,,,,,,,,,
293584,2022-12-06_13h53.58.209,vts_reward_expectancy_bt,2022.2.4,Win32,57.14612264,Chrome,1536,864,,,,,,,,,,,,,,,,,,,,,,,,,,,,,,,,,,,,,,,,,,,,,,,,,,,,,,,,,,,,,,,,,,,,,,,,,,,,
293584,2022-12-06_13h53.58.209,vts_reward_expectancy_bt,2022.2.4,Win32,57.14612264,Chrome,1536,864,,,,,10,649,,,,,,,,,,,,,,,,,D,181,triangle,1,0,,,,,,,,,,,,,,,,switch,letter,lettSwt,d,0.6995,Hi,,,,,,0,,,,,,space,17.3707,low,0,0,0,0,1,,,,,,,,,
293584,2022-12-06_13h53.58.209,vts_reward_expectancy_bt,2022.2.4,Win32,57.14612264,Chrome,1536,864,,,,,1,650,,,,,,,,,,,,,,,,,Y,146,star,1,0,,,,,,,,,,,,,,,,repeat,letter,lettRpt,f,1.2385,Lo,,,,,,0,,,,,,,,low,1,0,1,0,1,,,,,,,,,
293584,2022-12-06_13h53.58.209,vts_reward_expectancy_bt,2022.2.4,Win32,57.14612264,Chrome,1536,864,,,,,10,660,,,,,,,,,,,,,,,,,U,132,circle,1,0,,,,,,,,,,,,,,,,switch,number,numSwt,j,0.9335,Hi,,,,,,0,,,,,,,,low,2,0,2,0,1,,,,,,,,,
293584,2022-12-06_13h53.58.209,vts_reward_expectancy_bt,2022.2.4,Win32,57.14612264,Chrome,1536,864,,,,,1,661,,,,,,,,,,,,,,,,,S,174,hexagon,1,0,,,,,,,,,,,,,,,,switch,letter,lettSwt,f,0.8837,Lo,,,,,,0,,,,,,,,low,3,0,3,0,1,,,,,,,,,
293584,2022-12-06_13h53.58.209,vts_reward_expectancy_bt,2022.2.4,Win32,57.14612264,Chrome,1536,864,,,,,1,662,,,,,,,,,,,,,,,,,B,167,triangle,1,0,,,,,,,,,,,,,,,,switch,number,numSwt,k,1.0514,Hi,,,,,,0,,,,,,,,low,4,0,4,0,1,,,,,,,,,
293584,2022-12-06_13h53.58.209,vts_reward_expectancy_bt,2022.2.4,Win32,57.14612264,Chrome,1536,864,,,,,1,663,,,,,,,,,,,,,,,,,W,125,star,1,0,,,,,,,,,,,,,,,,switch,letter,lettSwt,f,0.6675,Lo,,,,,,0,,,,,,,,low,5,0,5,0,1,,,,,,,,,
293584,2022-12-06_13h53.58.209,vts_reward_expectancy_bt,2022.2.4,Win32,57.14612264,Chrome,1536,864,,,,,10,673,,,,,,,,,,,,,,,,,F,160,circle,1,0,,,,,,,,,,,,,,,,switch,number,numSwt,k,0.7008,Hi,,,,,,0,,,,,,,,low,6,0,6,0,1,,,,,,,,,
293584,2022-12-06_13h53.58.209,vts_reward_expectancy_bt,2022.2.4,Win32,57.14612264,Chrome,1536,864,,,,,10,683,,,,,,,,,,,,,,,,,H,139,hexagon,1,0,,,,,,,,,,,,,,,,switch,letter,lettSwt,d,1.0893,Lo,,,,,,0,,,,,,,,low,7,0,7,0,1,,,,,,,,,
293584,2022-12-06_13h53.58.209,vts_reward_expectancy_bt,2022.2.4,Win32,57.14612264,Chrome,1536,864,,,,,10,693,,,,,,,,,,,,,,,,,D,181,hexagon,1,0,,,,,,,,,,,,,,,,repeat,letter,lettRpt,d,0.7549,Lo,,,,,,0,,,,,,,,low,8,0,8,0,1,,,,,,,,,
293584,2022-12-06_13h53.58.209,vts_reward_expectancy_bt,2022.2.4,Win32,57.14612264,Chrome,1536,864,,,,,10,703,,,,,,,,,,,,,,,,,Y,146,circle,1,0,,,,,,,,,,,,,,,,switch,number,numSwt,j,1.0837,Hi,,,,,,0,,,,,,,,low,9,0,9,0,1,,,,,,,,,
293584,2022-12-06_13h53.58.209,vts_reward_expectancy_bt,2022.2.4,Win32,57.14612264,Chrome,1536,864,,,,,10,713,,,,,,,,,,,,,,,,,U,132,triangle,1,0,,,,,,,,,,,,,,,,repeat,number,numRpt,j,0.9029,Hi,,,,,,0,,,,,,,,low,10,0,10,0,1,,,,,,,,,
293584,2022-12-06_13h53.58.209,vts_reward_expectancy_bt,2022.2.4,Win32,57.14612264,Chrome,1536,864,,,,,10,723,,,,,,,,,,,,,,,,,S,174,star,1,0,,,,,,,,,,,,,,,,switch,letter,lettSwt,f,0.9023,Lo,,,,,,0,,,,,,,,low,11,0,11,0,1,,,,,,,,,
293584,2022-12-06_13h53.58.209,vts_reward_expectancy_bt,2022.2.4,Win32,57.14612264,Chrome,1536,864,,,,,10,733,,,,,,,,,,,,,,,,,B,167,hexagon,1,0,,,,,,,,,,,,,,,,switch,number,numSwt,k,0.7894,Lo,,,,,,0,,,,,,,,low,12,0,12,0,1,,,,,,,,,
293584,2022-12-06_13h53.58.209,vts_reward_expectancy_bt,2022.2.4,Win32,57.14612264,Chrome,1536,864,,,,,10,743,,,,,,,,,,,,,,,,,W,125,star,1,0,,,,,,,,,,,,,,,,switch,letter,lettSwt,f,0.7017,Lo,,,,,,0,,,,,,,,low,13,0,13,0,1,,,,,,,,,
293584,2022-12-06_13h53.58.209,vts_reward_expectancy_bt,2022.2.4,Win32,57.14612264,Chrome,1536,864,,,,,10,753,,,,,,,,,,,,,,,,,F,160,circle,1,0,,,,,,,,,,,,,,,,switch,number,numSwt,k,0.8854,Hi,,,,,,0,,,,,,,,low,14,0,14,0,1,,,,,,,,,
293584,2022-12-06_13h53.58.209,vts_reward_expectancy_bt,2022.2.4,Win32,57.14612264,Chrome,1536,864,,,,,10,763,,,,,,,,,,,,,,,,,H,139,triangle,1,0,,,,,,,,,,,,,,,,switch,letter,lettSwt,d,0.6714,Hi,,,,,,0,,,,,,,,low,15,0,15,0,1,,,,,,,,,
293584,2022-12-06_13h53.58.209,vts_reward_expectancy_bt,2022.2.4,Win32,57.14612264,Chrome,1536,864,,,,,1,764,,,,,,,,,,,,,,,,,B,174,circle,1,0,,,,,,,,,,,,,,,,switch,number,numSwt,k,0.6082,Hi,,,,,,0,,,,,,,,low,16,0,16,0,1,,,,,,,,,
293584,2022-12-06_13h53.58.209,vts_reward_expectancy_bt,2022.2.4,Win32,57.14612264,Chrome,1536,864,,,,,10,774,,,,,,,,,,,,,,,,,D,132,hexagon,1,0,,,,,,,,,,,,,,,,switch,letter,lettSwt,d,0.7066,Lo,,,,,,0,,,,,,,,low,17,0,17,0,1,,,,,,,,,
293584,2022-12-06_13h53.58.209,vts_reward_expectancy_bt,2022.2.4,Win32,57.14612264,Chrome,1536,864,,,,,1,775,,,,,,,,,,,,,,,,,Y,125,star,1,0,,,,,,,,,,,,,,,,repeat,letter,lettRpt,f,0.601,Lo,,,,,,0,,,,,,,,low,18,0,18,0,1,,,,,,,,,
293584,2022-12-06_13h53.58.209,vts_reward_expectancy_bt,2022.2.4,Win32,57.14612264,Chrome,1536,864,,,,,1,776,,,,,,,,,,,,,,,,,W,146,triangle,1,0,,,,,,,,,,,,,,,,repeat,letter,lettRpt,f,0.6863,Hi,,,,,,0,,,,,,,,low,19,0,19,0,1,,,,,,,,,
293584,2022-12-06_13h53.58.209,vts_reward_expectancy_bt,2022.2.4,Win32,57.14612264,Chrome,1536,864,,,,,1,777,,,,,,,,,,,,,,,,,H,160,star,1,0,,,,,,,,,,,,,,,,switch,number,numSwt,k,0.5529,Lo,,,,,,0,,,,,,,,low,20,0,20,0,1,,,,,,,,,
293584,2022-12-06_13h53.58.209,vts_reward_expectancy_bt,2022.2.4,Win32,57.14612264,Chrome,1536,864,,,,,1,778,,,,,,,,,,,,,,,,,F,139,circle,1,0,,,,,,,,,,,,,,,,repeat,number,numRpt,j,0.472,Hi,,,,,,0,,,,,,,,low,21,0,21,0,1,,,,,,,,,
293584,2022-12-06_13h53.58.209,vts_reward_expectancy_bt,2022.2.4,Win32,57.14612264,Chrome,1536,864,,,,,1,779,,,,,,,,,,,,,,,,,S,167,hexagon,1,0,,,,,,,,,,,,,,,,switch,letter,lettSwt,f,0.6048,Lo,,,,,,0,,,,,,,,low,22,0,22,0,1,,,,,,,,,
293584,2022-12-06_13h53.58.209,vts_reward_expectancy_bt,2022.2.4,Win32,57.14612264,Chrome,1536,864,,,,,1,780,,,,,,,,,,,,,,,,,U,181,triangle,1,0,,,,,,,,,,,,,,,,repeat,letter,lettRpt,f,0.8544,Hi,,,,,,0,,,,,,,,low,23,0,23,0,1,,,,,,,,,
293584,2022-12-06_13h53.58.209,vts_reward_expectancy_bt,2022.2.4,Win32,57.14612264,Chrome,1536,864,,,,,1,781,,,,,,,,,,,,,,,,,Y,181,hexagon,1,0,,,,,,,,,,,,,,,,repeat,letter,lettRpt,f,0.7104,Lo,,,,,,0,,,,,,,,low,24,0,24,0,1,,,,,,,,,
293584,2022-12-06_13h53.58.209,vts_reward_expectancy_bt,2022.2.4,Win32,57.14612264,Chrome,1536,864,,,,,10,791,,,,,,,,,,,,,,,,,B,146,star,1,0,,,,,,,,,,,,,,,,switch,number,numSwt,j,1.5024,Lo,,,,,,0,,,,,,,,low,25,0,25,0,1,,,,,,,,,
293584,2022-12-06_13h53.58.209,vts_reward_expectancy_bt,2022.2.4,Win32,57.14612264,Chrome,1536,864,,,,,1,792,,,,,,,,,,,,,,,,,H,174,circle,1,0,,,,,,,,,,,,,,,,repeat,number,numRpt,k,0.8391,Hi,,,,,,0,,,,,,,,low,26,0,26,0,1,,,,,,,,,
293584,2022-12-06_13h53.58.209,vts_reward_expectancy_bt,2022.2.4,Win32,57.14612264,Chrome,1536,864,,,,,10,802,,,,,,,,,,,,,,,,,U,132,triangle,1,0,,,,,,,,,,,,,,,,repeat,number,numRpt,j,0.6331,Hi,,,,,,0,,,,,,,,low,27,0,27,0,1,,,,,,,,,
293584,2022-12-06_13h53.58.209,vts_reward_expectancy_bt,2022.2.4,Win32,57.14612264,Chrome,1536,864,,,,,1,803,,,,,,,,,,,,,,,,,W,160,hexagon,1,0,,,,,,,,,,,,,,,,switch,letter,lettSwt,f,1.098,Lo,,,,,,0,,,,,,,,low,28,0,28,0,1,,,,,,,,,
293584,2022-12-06_13h53.58.209,vts_reward_expectancy_bt,2022.2.4,Win32,57.14612264,Chrome,1536,864,,,,,10,813,,,,,,,,,,,,,,,,,S,167,circle,1,0,,,,,,,,,,,,,,,,switch,number,numSwt,k,0.85,Hi,,,,,,0,,,,,,,,low,29,0,29,0,1,,,,,,,,,
293584,2022-12-06_13h53.58.209,vts_reward_expectancy_bt,2022.2.4,Win32,57.14612264,Chrome,1536,864,,,,,1,814,,,,,,,,,,,,,,,,,F,139,star,1,0,,,,,,,,,,,,,,,,switch,letter,lettSwt,d,0.7005,Lo,,,,,,0,,,,,,,,low,30,0,30,0,1,,,,,,,,,
293584,2022-12-06_13h53.58.209,vts_reward_expectancy_bt,2022.2.4,Win32,57.14612264,Chrome,1536,864,,,,,1,815,,,,,,,,,,,,,,,,,D,125,triangle,1,0,,,,,,,,,,,,,,,,switch,number,numSwt,j,0.7161,Hi,,,,,,0,,,,,,,,low,31,0,31,0,1,,,,,,,,,
293584,2022-12-06_13h53.58.209,vts_reward_expectancy_bt,2022.2.4,Win32,57.14612264,Chrome,1536,864,,,,,0,815,,,,,,,,,,,,,,,,,H,146,hexagon,0,0,,,,,,,,,,,,,,,,repeat,number,NA,k,0.655,Hi,,,,,,1,,,,,,space,5.2811,low,0,0,0,0,1,,,,,,,,,
293584,2022-12-06_13h53.58.209,vts_reward_expectancy_bt,2022.2.4,Win32,57.14612264,Chrome,1536,864,,,,,0,815,,,,,,,,,,,,,,,,,F,132,triangle,0,1,,,,,,,,,,,,,,,,repeat,number,NA,k,0.0749,Hi,,,,,,1,,,,,,,,low,1,0,1,0,1,,,,,,,,,
293584,2022-12-06_13h53.58.209,vts_reward_expectancy_bt,2022.2.4,Win32,57.14612264,Chrome,1536,864,,,,,0,815,,,,,,,,,,,,,,,,,S,125,circle,0,1,,,,,,,,,,,,,,,,switch,letter,NA,d,0.3349,Hi,,,,,,1,,,,,,,,low,2,0,2,0,1,,,,,,,,,
293584,2022-12-06_13h53.58.209,vts_reward_expectancy_bt,2022.2.4,Win32,57.14612264,Chrome,1536,864,,,,,1,816,,,,,,,,,,,,,,,,,D,181,star,1,1,,,,,,,,,,,,,,,,switch,number,numSwt,k,0.2376,Lo,,,,,,1,,,,,,,,low,3,0,3,0,1,,,,,,,,,
293584,2022-12-06_13h53.58.209,vts_reward_expectancy_bt,2022.2.4,Win32,57.14612264,Chrome,1536,864,,,,,10,826,,,,,,,,,,,,,,,,,B,160,hexagon,1,0,,,,,,,,,,,,,,,,switch,letter,lettSwt,d,0.3751,Lo,,,,,,1,,,,,,,,low,4,0,4,0,1,,,,,,,,,
293584,2022-12-06_13h53.58.209,vts_reward_expectancy_bt,2022.2.4,Win32,57.14612264,Chrome,1536,864,,,,,0,826,,,,,,,,,,,,,,,,,Y,174,triangle,0,0,,,,,,,,,,,,,,,,repeat,letter,NA,d,0.3515,Lo,,,,,,1,,,,,,,,low,5,0,5,0,1,,,,,,,,,
293584,2022-12-06_13h53.58.209,vts_reward_expectancy_bt,2022.2.4,Win32,57.14612264,Chrome,1536,864,,,,,1,827,,,,,,,,,,,,,,,,,U,167,circle,1,1,,,,,,,,,,,,,,,,repeat,letter,lettRpt,f,0.0213,Hi,,,,,,1,,,,,,,,low,6,0,6,0,1,,,,,,,,,
293584,2022-12-06_13h53.58.209,vts_reward_expectancy_bt,2022.2.4,Win32,57.14612264,Chrome,1536,864,,,,,0,827,,,,,,,,,,,,,,,,,W,139,star,0,0,,,,,,,,,,,,,,,,repeat,letter,NA,d,0.3683,Hi,,,,,,1,,,,,,,,low,7,0,7,0,1,,,,,,,,,
293584,2022-12-06_13h53.58.209,vts_reward_expectancy_bt,2022.2.4,Win32,57.14612264,Chrome,1536,864,,,,,0,827,,,,,,,,,,,,,,,,,H,146,triangle,1,1,,,,,,,,,,,,,,,,repeat,letter,lettRpt,d,0.9344,Hi,,,,,,1,,,,,,,,low,8,0,8,0,1,,,,,,,,,
293584,2022-12-06_13h53.58.209,vts_reward_expectancy_bt,2022.2.4,Win32,57.14612264,Chrome,1536,864,,,,,1,828,,,,,,,,,,,,,,,,,F,132,hexagon,1,0,,,,,,,,,,,,,,,,repeat,letter,lettRpt,d,0.4317,Lo,,,,,,1,,,,,,,,low,9,0,9,0,1,,,,,,,,,
293584,2022-12-06_13h53.58.209,vts_reward_expectancy_bt,2022.2.4,Win32,57.14612264,Chrome,1536,864,,,,,0,828,,,,,,,,,,,,,,,,,S,125,star,0,0,,,,,,,,,,,,,,,,repeat,letter,NA,d,0.0436,Lo,,,,,,1,,,,,,,,low,10,0,10,0,1,,,,,,,,,
293584,2022-12-06_13h53.58.209,vts_reward_expectancy_bt,2022.2.4,Win32,57.14612264,Chrome,1536,864,,,,,1,829,,,,,,,,,,,,,,,,,D,181,circle,1,1,,,,,,,,,,,,,,,,repeat,letter,lettRpt,d,0.1489,Hi,,,,,,1,,,,,,,,low,11,0,11,0,1,,,,,,,,,
293584,2022-12-06_13h53.58.209,vts_reward_expectancy_bt,2022.2.4,Win32,57.14612264,Chrome,1536,864,,,,,1,830,,,,,,,,,,,,,,,,,B,160,star,1,0,,,,,,,,,,,,,,,,repeat,letter,lettRpt,d,0.0856,Lo,,,,,,1,,,,,,,,low,12,0,12,0,1,,,,,,,,,
293584,2022-12-06_13h53.58.209,vts_reward_expectancy_bt,2022.2.4,Win32,57.14612264,Chrome,1536,864,,,,,0,830,,,,,,,,,,,,,,,,,Y,174,hexagon,0,0,,,,,,,,,,,,,,,,repeat,letter,NA,d,0.2546,Lo,,,,,,1,,,,,,,,low,13,0,13,0,1,,,,,,,,,
293584,2022-12-06_13h53.58.209,vts_reward_expectancy_bt,2022.2.4,Win32,57.14612264,Chrome,1536,864,,,,,0,830,,,,,,,,,,,,,,,,,U,167,circle,0,1,,,,,,,,,,,,,,,,repeat,letter,NA,d,0.2098,Lo,,,,,,1,,,,,,,,low,14,0,14,0,1,,,,,,,,,
293584,2022-12-06_13h53.58.209,vts_reward_expectancy_bt,2022.2.4,Win32,57.14612264,Chrome,1536,864,,,,,10,840,,,,,,,,,,,,,,,,,W,139,triangle,1,1,,,,,,,,,,,,,,,,repeat,letter,lettRpt,f,0.6461,Hi,,,,,,1,,,,,,,,low,15,0,15,0,1,,,,,,,,,
293584,2022-12-06_13h53.58.209,vts_reward_expectancy_bt,2022.2.4,Win32,57.14612264,Chrome,1536,864,,,,,0,840,,,,,,,,,,,,,,,,,F,146,circle,1,0,,,,,,,,,,,,,,,,repeat,letter,lettRpt,d,0.8118,Hi,,,,,,1,,,,,,,,low,16,0,16,0,1,,,,,,,,,
293584,2022-12-06_13h53.58.209,vts_reward_expectancy_bt,2022.2.4,Win32,57.14612264,Chrome,1536,864,,,,,10,850,,,,,,,,,,,,,,,,,Y,125,triangle,1,0,,,,,,,,,,,,,,,,repeat,letter,lettRpt,f,0.5487,Hi,,,,,,1,,,,,,,,low,17,0,17,0,1,,,,,,,,,
293584,2022-12-06_13h53.58.209,vts_reward_expectancy_bt,2022.2.4,Win32,57.14612264,Chrome,1536,864,,,,,1,851,,,,,,,,,,,,,,,,,H,167,star,1,0,,,,,,,,,,,,,,,,repeat,letter,lettRpt,d,0.565,Lo,,,,,,1,,,,,,,,low,18,0,18,0,1,,,,,,,,,
293584,2022-12-06_13h53.58.209,vts_reward_expectancy_bt,2022.2.4,Win32,57.14612264,Chrome,1536,864,,,,,10,861,,,,,,,,,,,,,,,,,D,139,hexagon,1,0,,,,,,,,,,,,,,,,repeat,letter,lettRpt,d,0.5666,Lo,,,,,,1,,,,,,,,low,19,0,19,0,1,,,,,,,,,
293584,2022-12-06_13h53.58.209,vts_reward_expectancy_bt,2022.2.4,Win32,57.14612264,Chrome,1536,864,,,,,10,871,,,,,,,,,,,,,,,,,B,132,triangle,1,0,,,,,,,,,,,,,,,,repeat,letter,lettRpt,d,0.4945,Hi,,,,,,1,,,,,,,,low,20,0,20,0,1,,,,,,,,,
293584,2022-12-06_13h53.58.209,vts_reward_expectancy_bt,2022.2.4,Win32,57.14612264,Chrome,1536,864,,,,,10,881,,,,,,,,,,,,,,,,,S,174,hexagon,1,0,,,,,,,,,,,,,,,,repeat,letter,lettRpt,f,0.6274,Lo,,,,,,1,,,,,,,,low,21,0,21,0,1,,,,,,,,,
293584,2022-12-06_13h53.58.209,vts_reward_expectancy_bt,2022.2.4,Win32,57.14612264,Chrome,1536,864,,,,,10,891,,,,,,,,,,,,,,,,,W,160,star,1,0,,,,,,,,,,,,,,,,repeat,letter,lettRpt,f,0.9196,Lo,,,,,,1,,,,,,,,low,22,0,22,0,1,,,,,,,,,
293584,2022-12-06_13h53.58.209,vts_reward_expectancy_bt,2022.2.4,Win32,57.14612264,Chrome,1536,864,,,,,0,891,,,,,,,,,,,,,,,,,U,181,circle,1,0,,,,,,,,,,,,,,,,repeat,letter,lettRpt,f,1.1446,Hi,,,,,,1,,,,,,,,low,23,0,23,0,1,,,,,,,,,
293584,2022-12-06_13h53.58.209,vts_reward_expectancy_bt,2022.2.4,Win32,57.14612264,Chrome,1536,864,,,,,10,901,,,,,,,,,,,,,,,,,D,160,triangle,1,0,,,,,,,,,,,,,,,,repeat,letter,lettRpt,d,0.5311,Hi,,,,,,1,,,,,,,,low,24,0,24,0,1,,,,,,,,,
293584,2022-12-06_13h53.58.209,vts_reward_expectancy_bt,2022.2.4,Win32,57.14612264,Chrome,1536,864,,,,,10,911,,,,,,,,,,,,,,,,,F,132,hexagon,1,0,,,,,,,,,,,,,,,,repeat,letter,lettRpt,d,0.4613,Lo,,,,,,1,,,,,,,,low,25,0,25,0,1,,,,,,,,,
293584,2022-12-06_13h53.58.209,vts_reward_expectancy_bt,2022.2.4,Win32,57.14612264,Chrome,1536,864,,,,,10,921,,,,,,,,,,,,,,,,,W,139,circle,1,0,,,,,,,,,,,,,,,,repeat,letter,lettRpt,f,0.5037,Hi,,,,,,1,,,,,,,,low,26,0,26,0,1,,,,,,,,,
293584,2022-12-06_13h53.58.209,vts_reward_expectancy_bt,2022.2.4,Win32,57.14612264,Chrome,1536,864,,,,,0,921,,,,,,,,,,,,,,,,,S,146,star,0,0,,,,,,,,,,,,,,,,repeat,letter,NA,d,1.3774,Hi,,,,,,1,,,,,,,,low,27,0,27,0,1,,,,,,,,,
293584,2022-12-06_13h53.58.209,vts_reward_expectancy_bt,2022.2.4,Win32,57.14612264,Chrome,1536,864,,,,,10,931,,,,,,,,,,,,,,,,,H,181,triangle,1,1,,,,,,,,,,,,,,,,repeat,letter,lettRpt,d,0.498,Hi,,,,,,1,,,,,,,,low,28,0,28,0,1,,,,,,,,,
293584,2022-12-06_13h53.58.209,vts_reward_expectancy_bt,2022.2.4,Win32,57.14612264,Chrome,1536,864,,,,,1,932,,,,,,,,,,,,,,,,,Y,167,hexagon,1,0,,,,,,,,,,,,,,,,repeat,letter,lettRpt,f,0.901,Lo,,,,,,1,,,,,,,,low,29,0,29,0,1,,,,,,,,,
293584,2022-12-06_13h53.58.209,vts_reward_expectancy_bt,2022.2.4,Win32,57.14612264,Chrome,1536,864,,,,,1,933,,,,,,,,,,,,,,,,,B,125,star,1,0,,,,,,,,,,,,,,,,repeat,letter,lettRpt,d,0.5447,Lo,,,,,,1,,,,,,,,low,30,0,30,0,1,,,,,,,,,
293584,2022-12-06_13h53.58.209,vts_reward_expectancy_bt,2022.2.4,Win32,57.14612264,Chrome,1536,864,,,,,1,934,,,,,,,,,,,,,,,,,U,174,circle,1,0,,,,,,,,,,,,,,,,repeat,letter,lettRpt,f,0.5848,Hi,,,,,,1,,,,,,,,low,31,0,31,0,1,,,,,,,,,
293584,2022-12-06_13h53.58.209,vts_reward_expectancy_bt,2022.2.4,Win32,57.14612264,Chrome,1536,864,,,,,10,944,,,,,,,,,,,,,,,,,D,146,star,1,0,,,,,,,,,,,,,,,,repeat,letter,lettRpt,d,1.0507,Lo,,,,,,2,,,,,,space,3.3821,low,0,0,0,0,1,,,,,,,,,
293584,2022-12-06_13h53.58.209,vts_reward_expectancy_bt,2022.2.4,Win32,57.14612264,Chrome,1536,864,,,,,0,944,,,,,,,,,,,,,,,,,U,132,hexagon,0,0,,,,,,,,,,,,,,,,repeat,letter,NA,d,0.5523,Lo,,,,,,2,,,,,,,,low,1,0,1,0,1,,,,,,,,,
293584,2022-12-06_13h53.58.209,vts_reward_expectancy_bt,2022.2.4,Win32,57.14612264,Chrome,1536,864,,,,,0,944,,,,,,,,,,,,,,,,,H,174,triangle,1,1,,,,,,,,,,,,,,,,repeat,letter,lettRpt,d,0.8526,Hi,,,,,,2,,,,,,,,low,2,0,2,0,1,,,,,,,,,
293584,2022-12-06_13h53.58.209,vts_reward_expectancy_bt,2022.2.4,Win32,57.14612264,Chrome,1536,864,,,,,0,944,,,,,,,,,,,,,,,,,B,160,circle,1,0,,,,,,,,,,,,,,,,repeat,letter,lettRpt,d,0.6103,Hi,,,,,,2,,,,,,,,low,3,0,3,0,1,,,,,,,,,
293584,2022-12-06_13h53.58.209,vts_reward_expectancy_bt,2022.2.4,Win32,57.14612264,Chrome,1536,864,,,,,0,944,,,,,,,,,,,,,,,,,S,139,star,0,0,,,,,,,,,,,,,,,,repeat,letter,NA,d,0.3714,Hi,,,,,,2,,,,,,,,low,4,0,4,0,1,,,,,,,,,
293584,2022-12-06_13h53.58.209,vts_reward_expectancy_bt,2022.2.4,Win32,57.14612264,Chrome,1536,864,,,,,10,954,,,,,,,,,,,,,,,,,Y,181,hexagon,1,1,,,,,,,,,,,,,,,,repeat,letter,lettRpt,f,0.5373,Lo,,,,,,2,,,,,,,,low,5,0,5,0,1,,,,,,,,,
293584,2022-12-06_13h53.58.209,vts_reward_expectancy_bt,2022.2.4,Win32,57.14612264,Chrome,1536,864,,,,,10,964,,,,,,,,,,,,,,,,,F,125,triangle,1,0,,,,,,,,,,,,,,,,repeat,letter,lettRpt,d,0.4471,Hi,,,,,,2,,,,,,,,low,6,0,6,0,1,,,,,,,,,
293584,2022-12-06_13h53.58.209,vts_reward_expectancy_bt,2022.2.4,Win32,57.14612264,Chrome,1536,864,,,,,10,974,,,,,,,,,,,,,,,,,W,167,circle,1,0,,,,,,,,,,,,,,,,repeat,letter,lettRpt,f,0.3621,Hi,,,,,,2,,,,,,,,low,7,0,7,0,1,,,,,,,,,
293584,2022-12-06_13h53.58.209,vts_reward_expectancy_bt,2022.2.4,Win32,57.14612264,Chrome,1536,864,,,,,10,984,,,,,,,,,,,,,,,,,D,146,circle,1,0,,,,,,,,,,,,,,,,repeat,letter,lettRpt,d,0.462,Hi,,,,,,2,,,,,,,,low,8,0,8,0,1,,,,,,,,,
293584,2022-12-06_13h53.58.209,vts_reward_expectancy_bt,2022.2.4,Win32,57.14612264,Chrome,1536,864,,,,,10,994,,,,,,,,,,,,,,,,,U,132,star,1,0,,,,,,,,,,,,,,,,repeat,letter,lettRpt,f,0.4951,Lo,,,,,,2,,,,,,,,low,9,0,9,0,1,,,,,,,,,
293584,2022-12-06_13h53.58.209,vts_reward_expectancy_bt,2022.2.4,Win32,57.14612264,Chrome,1536,864,,,,,1,995,,,,,,,,,,,,,,,,,H,174,hexagon,1,0,,,,,,,,,,,,,,,,repeat,letter,lettRpt,d,0.7115,Lo,,,,,,2,,,,,,,,low,10,0,10,0,1,,,,,,,,,
293584,2022-12-06_13h53.58.209,vts_reward_expectancy_bt,2022.2.4,Win32,57.14612264,Chrome,1536,864,,,,,10,1005,,,,,,,,,,,,,,,,,B,160,triangle,1,0,,,,,,,,,,,,,,,,repeat,letter,lettRpt,d,0.4531,Hi,,,,,,2,,,,,,,,low,11,0,11,0,1,,,,,,,,,
293584,2022-12-06_13h53.58.209,vts_reward_expectancy_bt,2022.2.4,Win32,57.14612264,Chrome,1536,864,,,,,1,1006,,,,,,,,,,,,,,,,,S,139,star,1,0,,,,,,,,,,,,,,,,repeat,letter,lettRpt,f,0.6515,Lo,,,,,,2,,,,,,,,low,12,0,12,0,1,,,,,,,,,
293584,2022-12-06_13h53.58.209,vts_reward_expectancy_bt,2022.2.4,Win32,57.14612264,Chrome,1536,864,,,,,0,1006,,,,,,,,,,,,,,,,,Y,181,circle,1,0,,,,,,,,,,,,,,,,repeat,letter,lettRpt,f,0.5112,Hi,,,,,,2,,,,,,,,low,13,0,13,0,1,,,,,,,,,
293584,2022-12-06_13h53.58.209,vts_reward_expectancy_bt,2022.2.4,Win32,57.14612264,Chrome,1536,864,,,,,1,1007,,,,,,,,,,,,,,,,,F,125,hexagon,1,0,,,,,,,,,,,,,,,,repeat,letter,lettRpt,d,0.5196,Lo,,,,,,2,,,,,,,,low,14,0,14,0,1,,,,,,,,,
293584,2022-12-06_13h53.58.209,vts_reward_expectancy_bt,2022.2.4,Win32,57.14612264,Chrome,1536,864,,,,,10,1017,,,,,,,,,,,,,,,,,W,167,triangle,1,0,,,,,,,,,,,,,,,,repeat,letter,lettRpt,f,0.4612,Hi,,,,,,2,,,,,,,,low,15,0,15,0,1,,,,,,,,,
293584,2022-12-06_13h53.58.209,vts_reward_expectancy_bt,2022.2.4,Win32,57.14612264,Chrome,1536,864,,,,,0,1017,,,,,,,,,,,,,,,,,H,146,circle,1,0,,,,,,,,,,,,,,,,repeat,letter,lettRpt,d,0.685,Hi,,,,,,2,,,,,,,,low,16,0,16,0,1,,,,,,,,,
293584,2022-12-06_13h53.58.209,vts_reward_expectancy_bt,2022.2.4,Win32,57.14612264,Chrome,1536,864,,,,,10,1027,,,,,,,,,,,,,,,,,Y,167,star,1,0,,,,,,,,,,,,,,,,repeat,letter,lettRpt,f,0.4652,Lo,,,,,,2,,,,,,,,low,17,0,17,0,1,,,,,,,,,
293584,2022-12-06_13h53.58.209,vts_reward_expectancy_bt,2022.2.4,Win32,57.14612264,Chrome,1536,864,,,,,0,1027,,,,,,,,,,,,,,,,,S,132,triangle,1,0,,,,,,,,,,,,,,,,repeat,letter,lettRpt,f,0.5964,Hi,,,,,,2,,,,,,,,low,18,0,18,0,1,,,,,,,,,
293584,2022-12-06_13h53.58.209,vts_reward_expectancy_bt,2022.2.4,Win32,57.14612264,Chrome,1536,864,,,,,0,1027,,,,,,,,,,,,,,,,,D,160,hexagon,0,0,,,,,,,,,,,,,,,,repeat,letter,NA,f,0.434,Hi,,,,,,2,,,,,,,,low,19,0,19,0,1,,,,,,,,,
293584,2022-12-06_13h53.58.209,vts_reward_expectancy_bt,2022.2.4,Win32,57.14612264,Chrome,1536,864,,,,,1,1028,,,,,,,,,,,,,,,,,U,181,star,1,1,,,,,,,,,,,,,,,,repeat,letter,lettRpt,f,0.4608,Lo,,,,,,2,,,,,,,,low,20,0,20,0,1,,,,,,,,,
293584,2022-12-06_13h53.58.209,vts_reward_expectancy_bt,2022.2.4,Win32,57.14612264,Chrome,1536,864,,,,,0,1028,,,,,,,,,,,,,,,,,W,125,circle,0,0,,,,,,,,,,,,,,,,repeat,letter,NA,d,0.318,Lo,,,,,,2,,,,,,,,low,21,0,21,0,1,,,,,,,,,
293584,2022-12-06_13h53.58.209,vts_reward_expectancy_bt,2022.2.4,Win32,57.14612264,Chrome,1536,864,,,,,0,1028,,,,,,,,,,,,,,,,,F,139,triangle,0,1,,,,,,,,,,,,,,,,repeat,letter,NA,f,0.0789,Lo,,,,,,2,,,,,,,,low,22,0,22,0,1,,,,,,,,,
293584,2022-12-06_13h53.58.209,vts_reward_expectancy_bt,2022.2.4,Win32,57.14612264,Chrome,1536,864,,,,,10,1038,,,,,,,,,,,,,,,,,B,174,hexagon,1,1,,,,,,,,,,,,,,,,repeat,letter,lettRpt,d,0.1491,Lo,,,,,,2,,,,,,,,low,23,0,23,0,1,,,,,,,,,
293584,2022-12-06_13h53.58.209,vts_reward_expectancy_bt,2022.2.4,Win32,57.14612264,Chrome,1536,864,,,,,10,1048,,,,,,,,,,,,,,,,,D,160,circle,1,0,,,,,,,,,,,,,,,,repeat,letter,lettRpt,d,0.0126,Hi,,,,,,2,,,,,,,,low,24,0,24,0,1,,,,,,,,,
293584,2022-12-06_13h53.58.209,vts_reward_expectancy_bt,2022.2.4,Win32,57.14612264,Chrome,1536,864,,,,,0,1048,,,,,,,,,,,,,,,,,Y,132,star,0,0,,,,,,,,,,,,,,,,repeat,letter,NA,d,0.597,Hi,,,,,,2,,,,,,,,low,25,0,25,0,1,,,,,,,,,
293584,2022-12-06_13h53.58.209,vts_reward_expectancy_bt,2022.2.4,Win32,57.14612264,Chrome,1536,864,,,,,1,1049,,,,,,,,,,,,,,,,,S,167,triangle,1,1,,,,,,,,,,,,,,,,repeat,letter,lettRpt,f,0.497,Hi,,,,,,2,,,,,,,,low,26,0,26,0,1,,,,,,,,,
293584,2022-12-06_13h53.58.209,vts_reward_expectancy_bt,2022.2.4,Win32,57.14612264,Chrome,1536,864,,,,,10,1059,,,,,,,,,,,,,,,,,H,146,hexagon,1,0,,,,,,,,,,,,,,,,repeat,letter,lettRpt,d,0.5459,Lo,,,,,,2,,,,,,,,low,27,0,27,0,1,,,,,,,,,
293584,2022-12-06_13h53.58.209,vts_reward_expectancy_bt,2022.2.4,Win32,57.14612264,Chrome,1536,864,,,,,1,1060,,,,,,,,,,,,,,,,,W,125,triangle,1,0,,,,,,,,,,,,,,,,repeat,letter,lettRpt,f,0.4465,Hi,,,,,,2,,,,,,,,low,28,0,28,0,1,,,,,,,,,
293584,2022-12-06_13h53.58.209,vts_reward_expectancy_bt,2022.2.4,Win32,57.14612264,Chrome,1536,864,,,,,10,1070,,,,,,,,,,,,,,,,,F,181,circle,1,0,,,,,,,,,,,,,,,,repeat,letter,lettRpt,d,0.4937,Hi,,,,,,2,,,,,,,,low,29,0,29,0,1,,,,,,,,,
293584,2022-12-06_13h53.58.209,vts_reward_expectancy_bt,2022.2.4,Win32,57.14612264,Chrome,1536,864,,,,,1,1071,,,,,,,,,,,,,,,,,B,174,hexagon,1,0,,,,,,,,,,,,,,,,repeat,letter,lettRpt,d,0.7781,Lo,,,,,,2,,,,,,,,low,30,0,30,0,1,,,,,,,,,
293584,2022-12-06_13h53.58.209,vts_reward_expectancy_bt,2022.2.4,Win32,57.14612264,Chrome,1536,864,,,,,1,1072,,,,,,,,,,,,,,,,,U,139,star,1,0,,,,,,,,,,,,,,,,repeat,letter,lettRpt,f,0.5018,Lo,,,,,,2,,,,,,,,low,31,0,31,0,1,,,,,,,,,
293584,2022-12-06_13h53.58.209,vts_reward_expectancy_bt,2022.2.4,Win32,57.14612264,Chrome,1536,864,,,,,1,1073,,,,,,,,,,,,,,,,,F,132,star,1,0,,,,,,,,,,,,,,,,repeat,letter,lettRpt,d,0.2945,Lo,,,,,,3,,,,,,space,1.3555,low,0,0,0,0,1,,,,,,,,,
293584,2022-12-06_13h53.58.209,vts_reward_expectancy_bt,2022.2.4,Win32,57.14612264,Chrome,1536,864,,,,,0,1073,,,,,,,,,,,,,,,,,S,125,hexagon,0,0,,,,,,,,,,,,,,,,repeat,letter,NA,d,0.406,Lo,,,,,,3,,,,,,,,low,1,0,1,0,1,,,,,,,,,
293584,2022-12-06_13h53.58.209,vts_reward_expectancy_bt,2022.2.4,Win32,57.14612264,Chrome,1536,864,,,,,0,1073,,,,,,,,,,,,,,,,,B,139,circle,1,1,,,,,,,,,,,,,,,,repeat,letter,lettRpt,d,0.512,Hi,,,,,,3,,,,,,,,low,2,0,2,0,1,,,,,,,,,
293584,2022-12-06_13h53.58.209,vts_reward_expectancy_bt,2022.2.4,Win32,57.14612264,Chrome,1536,864,,,,,0,1073,,,,,,,,,,,,,,,,,Y,167,triangle,1,0,,,,,,,,,,,,,,,,repeat,letter,lettRpt,f,0.4949,Hi,,,,,,3,,,,,,,,low,3,0,3,0,1,,,,,,,,,
293584,2022-12-06_13h53.58.209,vts_reward_expectancy_bt,2022.2.4,Win32,57.14612264,Chrome,1536,864,,,,,0,1073,,,,,,,,,,,,,,,,,W,174,star,0,0,,,,,,,,,,,,,,,,repeat,letter,NA,d,1.0793,Hi,,,,,,3,,,,,,,,low,4,0,4,0,1,,,,,,,,,
293584,2022-12-06_13h53.58.209,vts_reward_expectancy_bt,2022.2.4,Win32,57.14612264,Chrome,1536,864,,,,,0,1073,,,,,,,,,,,,,,,,,U,181,hexagon,0,1,,,,,,,,,,,,,,,,repeat,letter,NA,d,0.5946,Hi,,,,,,3,,,,,,,,low,5,0,5,0,1,,,,,,,,,
293584,2022-12-06_13h53.58.209,vts_reward_expectancy_bt,2022.2.4,Win32,57.14612264,Chrome,1536,864,,,,,0,1073,,,,,,,,,,,,,,,,,D,160,circle,0,1,,,,,,,,,,,,,,,,repeat,letter,NA,f,0.3302,Hi,,,,,,3,,,,,,,,low,6,0,6,0,1,,,,,,,,,
293584,2022-12-06_13h53.58.209,vts_reward_expectancy_bt,2022.2.4,Win32,57.14612264,Chrome,1536,864,,,,,10,1083,,,,,,,,,,,,,,,,,H,146,triangle,1,1,,,,,,,,,,,,,,,,repeat,letter,lettRpt,d,0.2142,Hi,,,,,,3,,,,,,,,low,7,0,7,0,1,,,,,,,,,
293584,2022-12-06_13h53.58.209,vts_reward_expectancy_bt,2022.2.4,Win32,57.14612264,Chrome,1536,864,,,,,1,1084,,,,,,,,,,,,,,,,,F,132,hexagon,1,0,,,,,,,,,,,,,,,,repeat,letter,lettRpt,d,0.7531,Lo,,,,,,3,,,,,,,,low,8,0,8,0,1,,,,,,,,,
293584,2022-12-06_13h53.58.209,vts_reward_expectancy_bt,2022.2.4,Win32,57.14612264,Chrome,1536,864,,,,,0,1084,,,,,,,,,,,,,,,,,S,125,circle,1,0,,,,,,,,,,,,,,,,repeat,letter,lettRpt,f,0.6045,Hi,,,,,,3,,,,,,,,low,9,0,9,0,1,,,,,,,,,
293584,2022-12-06_13h53.58.209,vts_reward_expectancy_bt,2022.2.4,Win32,57.14612264,Chrome,1536,864,,,,,0,1084,,,,,,,,,,,,,,,,,B,139,triangle,1,0,,,,,,,,,,,,,,,,repeat,letter,lettRpt,d,0.5122,Hi,,,,,,3,,,,,,,,low,10,0,10,0,1,,,,,,,,,
293584,2022-12-06_13h53.58.209,vts_reward_expectancy_bt,2022.2.4,Win32,57.14612264,Chrome,1536,864,,,,,1,1085,,,,,,,,,,,,,,,,,Y,167,star,1,0,,,,,,,,,,,,,,,,repeat,letter,lettRpt,f,0.6209,Lo,,,,,,3,,,,,,,,low,11,0,11,0,1,,,,,,,,,
293584,2022-12-06_13h53.58.209,vts_reward_expectancy_bt,2022.2.4,Win32,57.14612264,Chrome,1536,864,,,,,1,1086,,,,,,,,,,,,,,,,,W,174,circle,1,0,,,,,,,,,,,,,,,,repeat,letter,lettRpt,f,0.4612,Hi,,,,,,3,,,,,,,,low,12,0,12,0,1,,,,,,,,,
293584,2022-12-06_13h53.58.209,vts_reward_expectancy_bt,2022.2.4,Win32,57.14612264,Chrome,1536,864,,,,,0,1086,,,,,,,,,,,,,,,,,U,181,hexagon,0,0,,,,,,,,,,,,,,,,repeat,letter,NA,d,0.5125,Hi,,,,,,3,,,,,,,,low,13,0,13,0,1,,,,,,,,,
293584,2022-12-06_13h53.58.209,vts_reward_expectancy_bt,2022.2.4,Win32,57.14612264,Chrome,1536,864,,,,,0,1086,,,,,,,,,,,,,,,,,D,160,star,0,1,,,,,,,,,,,,,,,,repeat,letter,NA,f,0.2603,Hi,,,,,,3,,,,,,,,low,14,0,14,0,1,,,,,,,,,
293584,2022-12-06_13h53.58.209,vts_reward_expectancy_bt,2022.2.4,Win32,57.14612264,Chrome,1536,864,,,,,0,1086,,,,,,,,,,,,,,,,,H,146,triangle,0,1,,,,,,,,,,,,,,,,repeat,letter,NA,f,0.4132,Hi,,,,,,3,,,,,,,,low,15,0,15,0,1,,,,,,,,,
293584,2022-12-06_13h53.58.209,vts_reward_expectancy_bt,2022.2.4,Win32,57.14612264,Chrome,1536,864,,,,,10,1096,,,,,,,,,,,,,,,,,F,125,star,1,1,,,,,,,,,,,,,,,,repeat,letter,lettRpt,d,0.6115,Lo,,,,,,3,,,,,,,,low,16,0,16,0,1,,,,,,,,,
293584,2022-12-06_13h53.58.209,vts_reward_expectancy_bt,2022.2.4,Win32,57.14612264,Chrome,1536,864,,,,,0,1096,,,,,,,,,,,,,,,,,W,146,circle,1,0,,,,,,,,,,,,,,,,repeat,letter,lettRpt,f,0.5452,Hi,,,,,,3,,,,,,,,low,17,0,17,0,1,,,,,,,,,
293584,2022-12-06_13h53.58.209,vts_reward_expectancy_bt,2022.2.4,Win32,57.14612264,Chrome,1536,864,,,,,1,1097,,,,,,,,,,,,,,,,,H,139,hexagon,1,0,,,,,,,,,,,,,,,,repeat,letter,lettRpt,d,0.5634,Lo,,,,,,3,,,,,,,,low,18,0,18,0,1,,,,,,,,,
293584,2022-12-06_13h53.58.209,vts_reward_expectancy_bt,2022.2.4,Win32,57.14612264,Chrome,1536,864,,,,,0,1097,,,,,,,,,,,,,,,,,U,181,triangle,1,0,,,,,,,,,,,,,,,,repeat,letter,lettRpt,f,0.52,Hi,,,,,,3,,,,,,,,low,19,0,19,0,1,,,,,,,,,
293584,2022-12-06_13h53.58.209,vts_reward_expectancy_bt,2022.2.4,Win32,57.14612264,Chrome,1536,864,,,,,0,1097,,,,,,,,,,,,,,,,,S,132,hexagon,0,0,,,,,,,,,,,,,,,,repeat,letter,NA,d,0.3278,Hi,,,,,,3,,,,,,,,low,20,0,20,0,1,,,,,,,,,
293584,2022-12-06_13h53.58.209,vts_reward_expectancy_bt,2022.2.4,Win32,57.14612264,Chrome,1536,864,,,,,1,1098,,,,,,,,,,,,,,,,,Y,174,star,1,1,,,,,,,,,,,,,,,,repeat,letter,lettRpt,f,0.7318,Lo,,,,,,3,,,,,,,,low,21,0,21,0,1,,,,,,,,,
293584,2022-12-06_13h53.58.209,vts_reward_expectancy_bt,2022.2.4,Win32,57.14612264,Chrome,1536,864,,,,,0,1098,,,,,,,,,,,,,,,,,B,160,triangle,1,0,,,,,,,,,,,,,,,,repeat,letter,lettRpt,d,0.4641,Hi,,,,,,3,,,,,,,,low,22,0,22,0,1,,,,,,,,,
293584,2022-12-06_13h53.58.209,vts_reward_expectancy_bt,2022.2.4,Win32,57.14612264,Chrome,1536,864,,,,,0,1098,,,,,,,,,,,,,,,,,D,167,circle,0,0,,,,,,,,,,,,,,,,repeat,letter,NA,f,0.6277,Hi,,,,,,3,,,,,,,,low,23,0,23,0,1,,,,,,,,,
293584,2022-12-06_13h53.58.209,vts_reward_expectancy_bt,2022.2.4,Win32,57.14612264,Chrome,1536,864,,,,,10,1108,,,,,,,,,,,,,,,,,F,181,triangle,1,1,,,,,,,,,,,,,,,,repeat,letter,lettRpt,d,0.4453,Hi,,,,,,3,,,,,,,,low,24,0,24,0,1,,,,,,,,,
293584,2022-12-06_13h53.58.209,vts_reward_expectancy_bt,2022.2.4,Win32,57.14612264,Chrome,1536,864,,,,,10,1118,,,,,,,,,,,,,,,,,B,174,circle,1,0,,,,,,,,,,,,,,,,repeat,letter,lettRpt,d,0.4111,Hi,,,,,,3,,,,,,,,low,25,0,25,0,1,,,,,,,,,
293584,2022-12-06_13h53.58.209,vts_reward_expectancy_bt,2022.2.4,Win32,57.14612264,Chrome,1536,864,,,,,0,1118,,,,,,,,,,,,,,,,,U,132,hexagon,0,0,,,,,,,,,,,,,,,,repeat,letter,NA,d,0.1505,Hi,,,,,,3,,,,,,,,low,26,0,26,0,1,,,,,,,,,
293584,2022-12-06_13h53.58.209,vts_reward_expectancy_bt,2022.2.4,Win32,57.14612264,Chrome,1536,864,,,,,1,1119,,,,,,,,,,,,,,,,,Y,125,star,1,1,,,,,,,,,,,,,,,,repeat,letter,lettRpt,f,0.3791,Lo,,,,,,3,,,,,,,,low,27,0,27,0,1,,,,,,,,,
293584,2022-12-06_13h53.58.209,vts_reward_expectancy_bt,2022.2.4,Win32,57.14612264,Chrome,1536,864,,,,,10,1129,,,,,,,,,,,,,,,,,D,160,hexagon,1,0,,,,,,,,,,,,,,,,repeat,letter,lettRpt,d,0.4616,Lo,,,,,,3,,,,,,,,low,28,0,28,0,1,,,,,,,,,
293584,2022-12-06_13h53.58.209,vts_reward_expectancy_bt,2022.2.4,Win32,57.14612264,Chrome,1536,864,,,,,0,1129,,,,,,,,,,,,,,,,,H,167,circle,1,0,,,,,,,,,,,,,,,,repeat,letter,lettRpt,d,0.9491,Hi,,,,,,3,,,,,,,,low,29,0,29,0,1,,,,,,,,,
293584,2022-12-06_13h53.58.209,vts_reward_expectancy_bt,2022.2.4,Win32,57.14612264,Chrome,1536,864,,,,,0,1129,,,,,,,,,,,,,,,,,W,146,triangle,1,0,,,,,,,,,,,,,,,,repeat,letter,lettRpt,f,0.5552,Hi,,,,,,3,,,,,,,,low,30,0,30,0,1,,,,,,,,,
293584,2022-12-06_13h53.58.209,vts_reward_expectancy_bt,2022.2.4,Win32,57.14612264,Chrome,1536,864,,,,,1,1130,,,,,,,,,,,,,,,,,S,139,star,1,0,,,,,,,,,,,,,,,,repeat,letter,lettRpt,f,0.6145,Lo,,,,,,3,,,,,,,,low,31,0,31,0,1,,,,,,,,,
293584,2022-12-06_13h53.58.209,vts_reward_expectancy_bt,2022.2.4,Win32,57.14612264,Chrome,1536,864,,,,,0,1130,,,,,,,,,,,,,,,,,H,146,hexagon,0,0,,,,,,,,,,,,,,,,repeat,letter,NA,f,0.4641,Lo,,,,,,4,,,,,,space,0.7999,low,0,0,0,0,1,,,,,,,,,
293584,2022-12-06_13h53.58.209,vts_reward_expectancy_bt,2022.2.4,Win32,57.14612264,Chrome,1536,864,,,,,0,1130,,,,,,,,,,,,,,,,,S,132,triangle,0,1,,,,,,,,,,,,,,,,repeat,letter,NA,d,0.3507,Lo,,,,,,4,,,,,,,,low,1,0,1,0,1,,,,,,,,,
293584,2022-12-06_13h53.58.209,vts_reward_expectancy_bt,2022.2.4,Win32,57.14612264,Chrome,1536,864,,,,,10,1140,,,,,,,,,,,,,,,,,F,125,circle,1,1,,,,,,,,,,,,,,,,repeat,letter,lettRpt,d,0.3159,Hi,,,,,,4,,,,,,,,low,2,0,2,0,1,,,,,,,,,
293584,2022-12-06_13h53.58.209,vts_reward_expectancy_bt,2022.2.4,Win32,57.14612264,Chrome,1536,864,,,,,0,1140,,,,,,,,,,,,,,,,,Y,174,star,0,0,,,,,,,,,,,,,,,,repeat,letter,NA,d,0.1875,Hi,,,,,,4,,,,,,,,low,3,0,3,0,1,,,,,,,,,
293584,2022-12-06_13h53.58.209,vts_reward_expectancy_bt,2022.2.4,Win32,57.14612264,Chrome,1536,864,,,,,1,1141,,,,,,,,,,,,,,,,,B,139,hexagon,1,1,,,,,,,,,,,,,,,,repeat,letter,lettRpt,d,0.0957,Lo,,,,,,4,,,,,,,,low,4,0,4,0,1,,,,,,,,,
293584,2022-12-06_13h53.58.209,vts_reward_expectancy_bt,2022.2.4,Win32,57.14612264,Chrome,1536,864,,,,,0,1141,,,,,,,,,,,,,,,,,W,167,triangle,0,0,,,,,,,,,,,,,,,,repeat,letter,NA,d,0.1298,Lo,,,,,,4,,,,,,,,low,5,0,5,0,1,,,,,,,,,
293584,2022-12-06_13h53.58.209,vts_reward_expectancy_bt,2022.2.4,Win32,57.14612264,Chrome,1536,864,,,,,0,1141,,,,,,,,,,,,,,,,,D,181,circle,1,1,,,,,,,,,,,,,,,,repeat,letter,lettRpt,d,0.5854,Hi,,,,,,4,,,,,,,,low,6,0,6,0,1,,,,,,,,,
293584,2022-12-06_13h53.58.209,vts_reward_expectancy_bt,2022.2.4,Win32,57.14612264,Chrome,1536,864,,,,,0,1141,,,,,,,,,,,,,,,,,U,160,star,0,0,,,,,,,,,,,,,,,,repeat,letter,NA,d,0.0789,Hi,,,,,,4,,,,,,,,low,7,0,7,0,1,,,,,,,,,
293584,2022-12-06_13h53.58.209,vts_reward_expectancy_bt,2022.2.4,Win32,57.14612264,Chrome,1536,864,,,,,10,1151,,,,,,,,,,,,,,,,,H,146,hexagon,1,1,,,,,,,,,,,,,,,,repeat,letter,lettRpt,d,0.1852,Lo,,,,,,4,,,,,,,,low,8,0,8,0,1,,,,,,,,,
293584,2022-12-06_13h53.58.209,vts_reward_expectancy_bt,2022.2.4,Win32,57.14612264,Chrome,1536,864,,,,,0,1151,,,,,,,,,,,,,,,,,S,132,circle,0,0,,,,,,,,,,,,,,,,repeat,letter,NA,d,0.1285,Lo,,,,,,4,,,,,,,,low,9,0,9,0,1,,,,,,,,,
293584,2022-12-06_13h53.58.209,vts_reward_expectancy_bt,2022.2.4,Win32,57.14612264,Chrome,1536,864,,,,,1,1152,,,,,,,,,,,,,,,,,F,125,star,1,1,,,,,,,,,,,,,,,,repeat,letter,lettRpt,d,0.1811,Lo,,,,,,4,,,,,,,,low,10,0,10,0,1,,,,,,,,,
293584,2022-12-06_13h53.58.209,vts_reward_expectancy_bt,2022.2.4,Win32,57.14612264,Chrome,1536,864,,,,,0,1152,,,,,,,,,,,,,,,,,Y,174,triangle,0,0,,,,,,,,,,,,,,,,repeat,letter,NA,d,0.087,Lo,,,,,,4,,,,,,,,low,11,0,11,0,1,,,,,,,,,
293584,2022-12-06_13h53.58.209,vts_reward_expectancy_bt,2022.2.4,Win32,57.14612264,Chrome,1536,864,,,,,10,1162,,,,,,,,,,,,,,,,,B,139,triangle,1,1,,,,,,,,,,,,,,,,repeat,letter,lettRpt,d,0.0804,Hi,,,,,,4,,,,,,,,low,12,0,12,0,1,,,,,,,,,
293584,2022-12-06_13h53.58.209,vts_reward_expectancy_bt,2022.2.4,Win32,57.14612264,Chrome,1536,864,,,,,0,1162,,,,,,,,,,,,,,,,,W,167,star,0,0,,,,,,,,,,,,,,,,repeat,letter,NA,d,0.4277,Hi,,,,,,4,,,,,,,,low,13,0,13,0,1,,,,,,,,,
293584,2022-12-06_13h53.58.209,vts_reward_expectancy_bt,2022.2.4,Win32,57.14612264,Chrome,1536,864,,,,,10,1172,,,,,,,,,,,,,,,,,D,181,hexagon,1,1,,,,,,,,,,,,,,,,repeat,letter,lettRpt,d,0.2349,Lo,,,,,,4,,,,,,,,low,14,0,14,0,1,,,,,,,,,
293584,2022-12-06_13h53.58.209,vts_reward_expectancy_bt,2022.2.4,Win32,57.14612264,Chrome,1536,864,,,,,0,1172,,,,,,,,,,,,,,,,,U,160,circle,0,0,,,,,,,,,,,,,,,,repeat,letter,NA,d,0.2658,Lo,,,,,,4,,,,,,,,low,15,0,15,0,1,,,,,,,,,
293584,2022-12-06_13h53.58.209,vts_reward_expectancy_bt,2022.2.4,Win32,57.14612264,Chrome,1536,864,,,,,0,1172,,,,,,,,,,,,,,,,,U,167,star,0,1,,,,,,,,,,,,,,,,repeat,letter,NA,d,0.3295,Lo,,,,,,4,,,,,,,,low,16,0,16,0,1,,,,,,,,,
293584,2022-12-06_13h53.58.209,vts_reward_expectancy_bt,2022.2.4,Win32,57.14612264,Chrome,1536,864,,,,,0,1172,,,,,,,,,,,,,,,,,W,174,triangle,0,1,,,,,,,,,,,,,,,,repeat,letter,NA,d,0.2878,Lo,,,,,,4,,,,,,,,low,17,0,17,0,1,,,,,,,,,
293584,2022-12-06_13h53.58.209,vts_reward_expectancy_bt,2022.2.4,Win32,57.14612264,Chrome,1536,864,,,,,0,1172,,,,,,,,,,,,,,,,,D,146,circle,1,1,,,,,,,,,,,,,,,,repeat,letter,lettRpt,d,0.495,Hi,,,,,,4,,,,,,,,low,18,0,18,0,1,,,,,,,,,
293584,2022-12-06_13h53.58.209,vts_reward_expectancy_bt,2022.2.4,Win32,57.14612264,Chrome,1536,864,,,,,0,1172,,,,,,,,,,,,,,,,,S,160,hexagon,0,0,,,,,,,,,,,,,,,,repeat,letter,NA,d,0.0815,Hi,,,,,,4,,,,,,,,low,19,0,19,0,1,,,,,,,,,
293584,2022-12-06_13h53.58.209,vts_reward_expectancy_bt,2022.2.4,Win32,57.14612264,Chrome,1536,864,,,,,0,1172,,,,,,,,,,,,,,,,,Y,125,hexagon,0,1,,,,,,,,,,,,,,,,repeat,letter,NA,d,0.0166,Hi,,,,,,4,,,,,,,,low,20,0,20,0,1,,,,,,,,,
293584,2022-12-06_13h53.58.209,vts_reward_expectancy_bt,2022.2.4,Win32,57.14612264,Chrome,1536,864,,,,,10,1182,,,,,,,,,,,,,,,,,H,132,triangle,1,1,,,,,,,,,,,,,,,,repeat,letter,lettRpt,d,0.2358,Hi,,,,,,4,,,,,,,,low,21,0,21,0,1,,,,,,,,,
293584,2022-12-06_13h53.58.209,vts_reward_expectancy_bt,2022.2.4,Win32,57.14612264,Chrome,1536,864,,,,,1,1183,,,,,,,,,,,,,,,,,F,139,circle,1,0,,,,,,,,,,,,,,,,repeat,letter,lettRpt,d,0.2018,Hi,,,,,,4,,,,,,,,low,22,0,22,0,1,,,,,,,,,
293584,2022-12-06_13h53.58.209,vts_reward_expectancy_bt,2022.2.4,Win32,57.14612264,Chrome,1536,864,,,,,10,1193,,,,,,,,,,,,,,,,,B,181,star,1,0,,,,,,,,,,,,,,,,repeat,letter,lettRpt,d,0.1704,Lo,,,,,,4,,,,,,,,low,23,0,23,0,1,,,,,,,,,
293584,2022-12-06_13h53.58.209,vts_reward_expectancy_bt,2022.2.4,Win32,57.14612264,Chrome,1536,864,,,,,0,1193,,,,,,,,,,,,,,,,,S,132,triangle,0,0,,,,,,,,,,,,,,,,repeat,letter,NA,d,0.0945,Lo,,,,,,4,,,,,,,,low,24,0,24,0,1,,,,,,,,,
293584,2022-12-06_13h53.58.209,vts_reward_expectancy_bt,2022.2.4,Win32,57.14612264,Chrome,1536,864,,,,,0,1193,,,,,,,,,,,,,,,,,Y,139,star,0,1,,,,,,,,,,,,,,,,repeat,letter,NA,d,0.2975,Lo,,,,,,4,,,,,,,,low,25,0,25,0,1,,,,,,,,,
293584,2022-12-06_13h53.58.209,vts_reward_expectancy_bt,2022.2.4,Win32,57.14612264,Chrome,1536,864,,,,,0,1193,,,,,,,,,,,,,,,,,U,167,circle,0,1,,,,,,,,,,,,,,,,repeat,letter,NA,d,0.0836,Lo,,,,,,4,,,,,,,,low,26,0,26,0,1,,,,,,,,,
293584,2022-12-06_13h53.58.209,vts_reward_expectancy_bt,2022.2.4,Win32,57.14612264,Chrome,1536,864,,,,,1,1194,,,,,,,,,,,,,,,,,B,146,hexagon,1,1,,,,,,,,,,,,,,,,repeat,letter,lettRpt,d,0.2133,Lo,,,,,,4,,,,,,,,low,27,0,27,0,1,,,,,,,,,
293584,2022-12-06_13h53.58.209,vts_reward_expectancy_bt,2022.2.4,Win32,57.14612264,Chrome,1536,864,,,,,0,1194,,,,,,,,,,,,,,,,,W,125,hexagon,0,0,,,,,,,,,,,,,,,,repeat,letter,NA,d,0.138,Lo,,,,,,4,,,,,,,,low,28,0,28,0,1,,,,,,,,,
293584,2022-12-06_13h53.58.209,vts_reward_expectancy_bt,2022.2.4,Win32,57.14612264,Chrome,1536,864,,,,,1,1195,,,,,,,,,,,,,,,,,F,181,triangle,1,1,,,,,,,,,,,,,,,,repeat,letter,lettRpt,d,0.0491,Hi,,,,,,4,,,,,,,,low,29,0,29,0,1,,,,,,,,,
293584,2022-12-06_13h53.58.209,vts_reward_expectancy_bt,2022.2.4,Win32,57.14612264,Chrome,1536,864,,,,,10,1205,,,,,,,,,,,,,,,,,D,174,circle,1,0,,,,,,,,,,,,,,,,repeat,letter,lettRpt,d,0.0563,Hi,,,,,,4,,,,,,,,low,30,0,30,0,1,,,,,,,,,
293584,2022-12-06_13h53.58.209,vts_reward_expectancy_bt,2022.2.4,Win32,57.14612264,Chrome,1536,864,,,,,10,1215,,,,,,,,,,,,,,,,,H,160,star,1,0,,,,,,,,,,,,,,,,repeat,letter,lettRpt,d,0.0953,Lo,,,,,,4,,,,,,,,low,31,0,31,0,1,,,,,,,,,
293584,2022-12-06_13h53.58.209,vts_reward_expectancy_bt,2022.2.4,Win32,57.14612264,Chrome,1536,864,,,,,0,1215,,,,,,,,,,,,,,,,,B,181,triangle,1,0,,,,,,,,,,,,,,,,repeat,letter,lettRpt,d,0.3213,Hi,,,,,,5,,,,,,space,1.1599,low,0,0,0,0,1,,,,,,,,,
293584,2022-12-06_13h53.58.209,vts_reward_expectancy_bt,2022.2.4,Win32,57.14612264,Chrome,1536,864,,,,,0,1215,,,,,,,,,,,,,,,,,W,125,star,0,0,,,,,,,,,,,,,,,,repeat,letter,NA,d,0.3332,Hi,,,,,,5,,,,,,,,low,1,0,1,0,1,,,,,,,,,
293584,2022-12-06_13h53.58.209,vts_reward_expectancy_bt,2022.2.4,Win32,57.14612264,Chrome,1536,864,,,,,0,1215,,,,,,,,,,,,,,,,,Y,160,circle,0,1,,,,,,,,,,,,,,,,repeat,letter,NA,d,0.0779,Hi,,,,,,5,,,,,,,,low,2,0,2,0,1,,,,,,,,,
293584,2022-12-06_13h53.58.209,vts_reward_expectancy_bt,2022.2.4,Win32,57.14612264,Chrome,1536,864,,,,,0,1215,,,,,,,,,,,,,,,,,S,174,hexagon,0,1,,,,,,,,,,,,,,,,repeat,letter,NA,d,0.1896,Hi,,,,,,5,,,,,,,,low,3,0,3,0,1,,,,,,,,,
293584,2022-12-06_13h53.58.209,vts_reward_expectancy_bt,2022.2.4,Win32,57.14612264,Chrome,1536,864,,,,,0,1215,,,,,,,,,,,,,,,,,U,167,triangle,0,1,,,,,,,,,,,,,,,,repeat,letter,NA,d,0.971,Hi,,,,,,5,,,,,,,,low,4,0,4,0,1,,,,,,,,,
293584,2022-12-06_13h53.58.209,vts_reward_expectancy_bt,2022.2.4,Win32,57.14612264,Chrome,1536,864,,,,,0,1215,,,,,,,,,,,,,,,,,F,132,star,0,1,,,,,,,,,,,,,,,,repeat,letter,NA,f,0.3321,Hi,,,,,,5,,,,,,,,low,5,0,5,0,1,,,,,,,,,
293584,2022-12-06_13h53.58.209,vts_reward_expectancy_bt,2022.2.4,Win32,57.14612264,Chrome,1536,864,,,,,0,1215,,,,,,,,,,,,,,,,,D,139,circle,0,1,,,,,,,,,,,,,,,,repeat,letter,NA,f,0.2281,Hi,,,,,,5,,,,,,,,low,6,0,6,0,1,,,,,,,,,
293584,2022-12-06_13h53.58.209,vts_reward_expectancy_bt,2022.2.4,Win32,57.14612264,Chrome,1536,864,,,,,0,1215,,,,,,,,,,,,,,,,,H,146,hexagon,0,1,,,,,,,,,,,,,,,,repeat,letter,NA,f,0.0842,Hi,,,,,,5,,,,,,,,low,7,0,7,0,1,,,,,,,,,
293584,2022-12-06_13h53.58.209,vts_reward_expectancy_bt,2022.2.4,Win32,57.14612264,Chrome,1536,864,,,,,0,1215,,,,,,,,,,,,,,,,,B,181,circle,1,1,,,,,,,,,,,,,,,,repeat,letter,lettRpt,d,0.4817,Hi,,,,,,5,,,,,,,,low,8,0,8,0,1,,,,,,,,,
293584,2022-12-06_13h53.58.209,vts_reward_expectancy_bt,2022.2.4,Win32,57.14612264,Chrome,1536,864,,,,,0,1215,,,,,,,,,,,,,,,,,W,125,star,0,0,,,,,,,,,,,,,,,,repeat,letter,NA,d,0.1193,Hi,,,,,,5,,,,,,,,low,9,0,9,0,1,,,,,,,,,
293584,2022-12-06_13h53.58.209,vts_reward_expectancy_bt,2022.2.4,Win32,57.14612264,Chrome,1536,864,,,,,0,1215,,,,,,,,,,,,,,,,,Y,160,triangle,1,1,,,,,,,,,,,,,,,,repeat,letter,lettRpt,f,0.5004,Hi,,,,,,5,,,,,,,,low,10,0,10,0,1,,,,,,,,,
293584,2022-12-06_13h53.58.209,vts_reward_expectancy_bt,2022.2.4,Win32,57.14612264,Chrome,1536,864,,,,,1,1216,,,,,,,,,,,,,,,,,S,174,hexagon,1,0,,,,,,,,,,,,,,,,repeat,letter,lettRpt,f,0.0314,Lo,,,,,,5,,,,,,,,low,11,0,11,0,1,,,,,,,,,
293584,2022-12-06_13h53.58.209,vts_reward_expectancy_bt,2022.2.4,Win32,57.14612264,Chrome,1536,864,,,,,1,1217,,,,,,,,,,,,,,,,,U,167,star,1,0,,,,,,,,,,,,,,,,repeat,letter,lettRpt,f,0.2289,Lo,,,,,,5,,,,,,,,low,12,0,12,0,1,,,,,,,,,
293584,2022-12-06_13h53.58.209,vts_reward_expectancy_bt,2022.2.4,Win32,57.14612264,Chrome,1536,864,,,,,0,1217,,,,,,,,,,,,,,,,,F,132,circle,0,0,,,,,,,,,,,,,,,,repeat,letter,NA,f,0.2142,Lo,,,,,,5,,,,,,,,low,13,0,13,0,1,,,,,,,,,
293584,2022-12-06_13h53.58.209,vts_reward_expectancy_bt,2022.2.4,Win32,57.14612264,Chrome,1536,864,,,,,1,1218,,,,,,,,,,,,,,,,,D,139,hexagon,1,1,,,,,,,,,,,,,,,,repeat,letter,lettRpt,d,0.111,Lo,,,,,,5,,,,,,,,low,14,0,14,0,1,,,,,,,,,
293584,2022-12-06_13h53.58.209,vts_reward_expectancy_bt,2022.2.4,Win32,57.14612264,Chrome,1536,864,,,,,10,1228,,,,,,,,,,,,,,,,,H,146,triangle,1,0,,,,,,,,,,,,,,,,repeat,letter,lettRpt,d,0.1296,Hi,,,,,,5,,,,,,,,low,15,0,15,0,1,,,,,,,,,
293584,2022-12-06_13h53.58.209,vts_reward_expectancy_bt,2022.2.4,Win32,57.14612264,Chrome,1536,864,,,,,10,1238,,,,,,,,,,,,,,,,,W,181,triangle,1,0,,,,,,,,,,,,,,,,repeat,letter,lettRpt,f,0.0007,Hi,,,,,,5,,,,,,,,low,16,0,16,0,1,,,,,,,,,
293584,2022-12-06_13h53.58.209,vts_reward_expectancy_bt,2022.2.4,Win32,57.14612264,Chrome,1536,864,,,,,0,1238,,,,,,,,,,,,,,,,,B,139,circle,1,0,,,,,,,,,,,,,,,,repeat,letter,lettRpt,d,0.2815,Hi,,,,,,5,,,,,,,,low,17,0,17,0,1,,,,,,,,,
293584,2022-12-06_13h53.58.209,vts_reward_expectancy_bt,2022.2.4,Win32,57.14612264,Chrome,1536,864,,,,,0,1238,,,,,,,,,,,,,,,,,U,174,hexagon,0,0,,,,,,,,,,,,,,,,repeat,letter,NA,d,0.6788,Hi,,,,,,5,,,,,,,,low,18,0,18,0,1,,,,,,,,,
293584,2022-12-06_13h53.58.209,vts_reward_expectancy_bt,2022.2.4,Win32,57.14612264,Chrome,1536,864,,,,,0,1238,,,,,,,,,,,,,,,,,S,160,star,0,1,,,,,,,,,,,,,,,,repeat,letter,NA,d,0.1114,Hi,,,,,,5,,,,,,,,low,19,0,19,0,1,,,,,,,,,
293584,2022-12-06_13h53.58.209,vts_reward_expectancy_bt,2022.2.4,Win32,57.14612264,Chrome,1536,864,,,,,0,1238,,,,,,,,,,,,,,,,,H,132,circle,1,1,,,,,,,,,,,,,,,,repeat,letter,lettRpt,d,0.2804,Hi,,,,,,5,,,,,,,,low,20,0,20,0,1,,,,,,,,,
293584,2022-12-06_13h53.58.209,vts_reward_expectancy_bt,2022.2.4,Win32,57.14612264,Chrome,1536,864,,,,,0,1238,,,,,,,,,,,,,,,,,F,167,triangle,0,0,,,,,,,,,,,,,,,,repeat,letter,NA,f,0.2665,Hi,,,,,,5,,,,,,,,low,21,0,21,0,1,,,,,,,,,
293584,2022-12-06_13h53.58.209,vts_reward_expectancy_bt,2022.2.4,Win32,57.14612264,Chrome,1536,864,,,,,0,1238,,,,,,,,,,,,,,,,,Y,146,star,0,1,,,,,,,,,,,,,,,,repeat,letter,NA,d,0.3442,Hi,,,,,,5,,,,,,,,low,22,0,22,0,1,,,,,,,,,
293584,2022-12-06_13h53.58.209,vts_reward_expectancy_bt,2022.2.4,Win32,57.14612264,Chrome,1536,864,,,,,0,1238,,,,,,,,,,,,,,,,,D,125,hexagon,0,1,,,,,,,,,,,,,,,,repeat,letter,NA,f,0.3273,Hi,,,,,,5,,,,,,,,low,23,0,23,0,1,,,,,,,,,
293584,2022-12-06_13h53.58.209,vts_reward_expectancy_bt,2022.2.4,Win32,57.14612264,Chrome,1536,864,,,,,0,1238,,,,,,,,,,,,,,,,,W,181,hexagon,0,1,,,,,,,,,,,,,,,,repeat,letter,NA,d,0.0456,Hi,,,,,,5,,,,,,,,low,24,0,24,0,1,,,,,,,,,
293584,2022-12-06_13h53.58.209,vts_reward_expectancy_bt,2022.2.4,Win32,57.14612264,Chrome,1536,864,,,,,0,1238,,,,,,,,,,,,,,,,,Y,160,triangle,1,1,,,,,,,,,,,,,,,,repeat,letter,lettRpt,f,0.2789,Hi,,,,,,5,,,,,,,,low,25,0,25,0,1,,,,,,,,,
293584,2022-12-06_13h53.58.209,vts_reward_expectancy_bt,2022.2.4,Win32,57.14612264,Chrome,1536,864,,,,,0,1238,,,,,,,,,,,,,,,,,U,167,star,0,0,,,,,,,,,,,,,,,,repeat,letter,NA,d,0.6977,Hi,,,,,,5,,,,,,,,low,26,0,26,0,1,,,,,,,,,
293584,2022-12-06_13h53.58.209,vts_reward_expectancy_bt,2022.2.4,Win32,57.14612264,Chrome,1536,864,,,,,0,1238,,,,,,,,,,,,,,,,,D,146,circle,1,1,,,,,,,,,,,,,,,,repeat,letter,lettRpt,d,0.2794,Hi,,,,,,5,,,,,,,,low,27,0,27,0,1,,,,,,,,,
293584,2022-12-06_13h53.58.209,vts_reward_expectancy_bt,2022.2.4,Win32,57.14612264,Chrome,1536,864,,,,,0,1238,,,,,,,,,,,,,,,,,B,174,circle,1,0,,,,,,,,,,,,,,,,repeat,letter,lettRpt,d,0.6598,Hi,,,,,,5,,,,,,,,low,28,0,28,0,1,,,,,,,,,
293584,2022-12-06_13h53.58.209,vts_reward_expectancy_bt,2022.2.4,Win32,57.14612264,Chrome,1536,864,,,,,0,1238,,,,,,,,,,,,,,,,,S,139,hexagon,-1,0,,,,,,,,,,,,,,,,switch,no_choice,NA,,,Hi,,,,,,5,,,,,,,,low,29,0,29,0,1,,,,,,,,,
293584,2022-12-06_13h53.58.209,vts_reward_expectancy_bt,2022.2.4,Win32,57.14612264,Chrome,1536,864,,,,,0,1238,,,,,,,,,,,,,,,,,H,125,triangle,-1,0,,,,,,,,,,,,,,,,repeat,no_choice,NA,,,Hi,,,,,,5,,,,,,,,low,30,0,30,0,1,,,,,,,,,
293584,2022-12-06_13h53.58.209,vts_reward_expectancy_bt,2022.2.4,Win32,57.14612264,Chrome,1536,864,,,,,0,1238,,,,,,,,,,,,,,,,,F,132,star,-1,0,,,,,,,,,,,,,,,,repeat,no_choice,NA,,,Hi,,,,,,5,,,,,,,,low,31,0,31,0,1,,,,,,,,,
293584,2022-12-06_13h53.58.209,vts_reward_expectancy_bt,2022.2.4,Win32,57.14612264,Chrome,1536,864,,,,,0,1238,,,,,,,,,,,,,,,,,F,181,circle,-1,0,,,,,,,,,,,,,,,,repeat,no_choice,NA,,,Hi,,,,,,6,,,,,,space,0.8906,low,0,0,0,0,1,,,,,,,,,
293584,2022-12-06_13h53.58.209,vts_reward_expectancy_bt,2022.2.4,Win32,57.14612264,Chrome,1536,864,,,,,0,1238,,,,,,,,,,,,,,,,,H,139,hexagon,-1,0,,,,,,,,,,,,,,,,repeat,no_choice,NA,,,Hi,,,,,,6,,,,,,,,low,1,0,1,0,1,,,,,,,,,
293584,2022-12-06_13h53.58.209,vts_reward_expectancy_bt,2022.2.4,Win32,57.14612264,Chrome,1536,864,,,,,0,1238,,,,,,,,,,,,,,,,,B,174,triangle,-1,0,,,,,,,,,,,,,,,,repeat,no_choice,NA,,,Hi,,,,,,6,,,,,,,,low,2,0,2,0,1,,,,,,,,,
293584,2022-12-06_13h53.58.209,vts_reward_expectancy_bt,2022.2.4,Win32,57.14612264,Chrome,1536,864,,,,,0,1238,,,,,,,,,,,,,,,,,S,167,star,-1,0,,,,,,,,,,,,,,,,repeat,no_choice,NA,,,Hi,,,,,,6,,,,,,,,low,3,0,3,0,1,,,,,,,,,
293584,2022-12-06_13h53.58.209,vts_reward_expectancy_bt,2022.2.4,Win32,57.14612264,Chrome,1536,864,,,,,0,1238,,,,,,,,,,,,,,,,,U,160,circle,-1,0,,,,,,,,,,,,,,,,repeat,no_choice,NA,,,Hi,,,,,,6,,,,,,,,low,4,0,4,0,1,,,,,,,,,
293584,2022-12-06_13h53.58.209,vts_reward_expectancy_bt,2022.2.4,Win32,57.14612264,Chrome,1536,864,,,,,0,1238,,,,,,,,,,,,,,,,,D,132,hexagon,-1,0,,,,,,,,,,,,,,,,repeat,no_choice,NA,,,Hi,,,,,,6,,,,,,,,low,5,0,5,0,1,,,,,,,,,
293584,2022-12-06_13h53.58.209,vts_reward_expectancy_bt,2022.2.4,Win32,57.14612264,Chrome,1536,864,,,,,0,1238,,,,,,,,,,,,,,,,,Y,125,triangle,-1,0,,,,,,,,,,,,,,,,repeat,no_choice,NA,,,Hi,,,,,,6,,,,,,,,low,6,0,6,0,1,,,,,,,,,
293584,2022-12-06_13h53.58.209,vts_reward_expectancy_bt,2022.2.4,Win32,57.14612264,Chrome,1536,864,,,,,0,1238,,,,,,,,,,,,,,,,,W,146,star,-1,0,,,,,,,,,,,,,,,,repeat,no_choice,NA,,,Hi,,,,,,6,,,,,,,,low,7,0,7,0,1,,,,,,,,,
293584,2022-12-06_13h53.58.209,vts_reward_expectancy_bt,2022.2.4,Win32,57.14612264,Chrome,1536,864,,,,,0,1238,,,,,,,,,,,,,,,,,F,181,star,-1,0,,,,,,,,,,,,,,,,repeat,no_choice,NA,,,Hi,,,,,,6,,,,,,,,low,8,0,8,0,1,,,,,,,,,
