participant,date,expName,psychopyVersion,OS,frameRate,browser,xResolution,yResolution,key_resp.keys,key_resp.rt,training_resp.keys,training_resp.rt,points_trial,points_cumul,trainBlock,training.thisRepN,training.thisTrialN,training.thisN,training.thisIndex,training.ran,LTriangleOpac,LCircleOpac,LHexagonOpac,LStarOpac,RTriangleOpac,RCircleOpac,RHexagonOpac,RStarOpac,LShape_ID,RShape_ID,curr_topStim,curr_bottStim,curr_shape,acc,E1,target_resp_prac1.keys,target_resp_prac1.rt,pracBlock,task1_prac_trials.thisRepN,task1_prac_trials.thisTrialN,task1_prac_trials.thisN,task1_prac_trials.thisIndex,task1_prac_trials.ran,target_resp_prac2.keys,target_resp_prac2.rt,task2_praac_trials.thisRepN,task2_praac_trials.thisTrialN,task2_praac_trials.thisN,task2_praac_trials.thisIndex,task2_praac_trials.ran,alt,task,condition,target_resp.keys,target_resp.rt,rewCond,vts_practice_trials.thisRepN,vts_practice_trials.thisTrialN,vts_practice_trials.thisN,vts_practice_trials.thisIndex,vts_practice_trials.ran,blockNum,trials_norew.thisRepN,trials_norew.thisTrialN,trials_norew.thisN,trials_norew.thisIndex,trials_norew.ran,key_resp_2.keys,key_resp_2.rt,rewExpectancy,trials_rew.thisRepN,trials_rew.thisTrialN,trials_rew.thisN,trials_rew.thisIndex,trials_rew.ran,Q1,Q2,Q2_text,Q3,Q4,Q5_text,Q5,xRes,yRes
293635,2022-12-06_17h02.17.233,vts_reward_expectancy_bt,2022.2.4,MacIntel,60.0024001,Chrome,1440,900,,,,,,,,,,,,,,,,,,,,,,,,,,,,,,,,,,,,,,,,,,,,,,,,,,,,,,,,,,,,,,,,,,,,,,,,,,,,
293635,2022-12-06_17h02.17.233,vts_reward_expectancy_bt,2022.2.4,MacIntel,60.0024001,Chrome,1440,900,space,24.2739,,,,,,,,,,,,,,,,,,,,,,,,,,,,,,,,,,,,,,,,,,,,,,,,,,,,,,,,,,,,,,,,,,,,,,,,,,
293635,2022-12-06_17h02.17.233,vts_reward_expectancy_bt,2022.2.4,MacIntel,60.0024001,Chrome,1440,900,,,,,,,,,,,,,,,,,,,,,,,,,,,,,,,,,,,,,,,,,,,,,,,,,,,,,,,,,,,,,,,,,,,,,,,,,,,,
293635,2022-12-06_17h02.17.233,vts_reward_expectancy_bt,2022.2.4,MacIntel,60.0024001,Chrome,1440,900,,,a,2.0851,1,1,0,0,0,0,5,1,0,1,0,0,0,0,0,1,circle,star,,,,,,,,,,,,,,,,,,,,,,,,,,,,,,,,,,,,,,,,,,,,,,,,,,,,,,
293635,2022-12-06_17h02.17.233,vts_reward_expectancy_bt,2022.2.4,MacIntel,60.0024001,Chrome,1440,900,,,l,2.2285,10,11,0,0,1,1,4,1,0,1,0,0,0,0,1,0,circle,hexagon,,,,,,,,,,,,,,,,,,,,,,,,,,,,,,,,,,,,,,,,,,,,,,,,,,,,,,
293635,2022-12-06_17h02.17.233,vts_reward_expectancy_bt,2022.2.4,MacIntel,60.0024001,Chrome,1440,900,,,l,3.3151,10,21,0,0,2,2,11,1,0,0,0,1,0,0,1,0,star,hexagon,,,,,,,,,,,,,,,,,,,,,,,,,,,,,,,,,,,,,,,,,,,,,,,,,,,,,,
293635,2022-12-06_17h02.17.233,vts_reward_expectancy_bt,2022.2.4,MacIntel,60.0024001,Chrome,1440,900,,,a,2.6343,10,31,0,0,3,3,2,1,1,0,0,0,0,0,0,1,triangle,star,,,,,,,,,,,,,,,,,,,,,,,,,,,,,,,,,,,,,,,,,,,,,,,,,,,,,,
293635,2022-12-06_17h02.17.233,vts_reward_expectancy_bt,2022.2.4,MacIntel,60.0024001,Chrome,1440,900,,,a,1.9363,10,41,0,0,4,4,1,1,1,0,0,0,0,0,1,0,triangle,hexagon,,,,,,,,,,,,,,,,,,,,,,,,,,,,,,,,,,,,,,,,,,,,,,,,,,,,,,
293635,2022-12-06_17h02.17.233,vts_reward_expectancy_bt,2022.2.4,MacIntel,60.0024001,Chrome,1440,900,,,l,1.2344,10,51,0,0,5,5,7,1,0,0,1,0,0,1,0,0,hexagon,circle,,,,,,,,,,,,,,,,,,,,,,,,,,,,,,,,,,,,,,,,,,,,,,,,,,,,,,
293635,2022-12-06_17h02.17.233,vts_reward_expectancy_bt,2022.2.4,MacIntel,60.0024001,Chrome,1440,900,,,l,2.5965,1,52,0,0,6,6,3,1,0,1,0,0,1,0,0,0,circle,triangle,,,,,,,,,,,,,,,,,,,,,,,,,,,,,,,,,,,,,,,,,,,,,,,,,,,,,,
293635,2022-12-06_17h02.17.233,vts_reward_expectancy_bt,2022.2.4,MacIntel,60.0024001,Chrome,1440,900,,,l,1.3009,1,53,0,0,7,7,0,1,1,0,0,0,0,1,0,0,triangle,circle,,,,,,,,,,,,,,,,,,,,,,,,,,,,,,,,,,,,,,,,,,,,,,,,,,,,,,
293635,2022-12-06_17h02.17.233,vts_reward_expectancy_bt,2022.2.4,MacIntel,60.0024001,Chrome,1440,900,,,l,1.2159,1,54,0,0,8,8,8,1,0,0,1,0,0,0,0,1,hexagon,star,,,,,,,,,,,,,,,,,,,,,,,,,,,,,,,,,,,,,,,,,,,,,,,,,,,,,,
293635,2022-12-06_17h02.17.233,vts_reward_expectancy_bt,2022.2.4,MacIntel,60.0024001,Chrome,1440,900,,,l,1.0237,10,64,0,0,9,9,9,1,0,0,0,1,1,0,0,0,star,triangle,,,,,,,,,,,,,,,,,,,,,,,,,,,,,,,,,,,,,,,,,,,,,,,,,,,,,,
293635,2022-12-06_17h02.17.233,vts_reward_expectancy_bt,2022.2.4,MacIntel,60.0024001,Chrome,1440,900,,,a,1.2285,10,74,0,0,10,10,10,1,0,0,0,1,0,1,0,0,star ,circle,,,,,,,,,,,,,,,,,,,,,,,,,,,,,,,,,,,,,,,,,,,,,,,,,,,,,,
293635,2022-12-06_17h02.17.233,vts_reward_expectancy_bt,2022.2.4,MacIntel,60.0024001,Chrome,1440,900,,,a,2.3705,10,84,0,0,11,11,6,1,0,0,1,0,1,0,0,0,hexagon,triangle,,,,,,,,,,,,,,,,,,,,,,,,,,,,,,,,,,,,,,,,,,,,,,,,,,,,,,
293635,2022-12-06_17h02.17.233,vts_reward_expectancy_bt,2022.2.4,MacIntel,60.0024001,Chrome,1440,900,,,l,0.941,1,85,0,1,0,12,2,1,1,0,0,0,0,0,0,1,triangle,star,,,,,,,,,,,,,,,,,,,,,,,,,,,,,,,,,,,,,,,,,,,,,,,,,,,,,,
293635,2022-12-06_17h02.17.233,vts_reward_expectancy_bt,2022.2.4,MacIntel,60.0024001,Chrome,1440,900,,,l,0.9345,1,86,0,1,1,13,5,1,0,1,0,0,0,0,0,1,circle,star,,,,,,,,,,,,,,,,,,,,,,,,,,,,,,,,,,,,,,,,,,,,,,,,,,,,,,
293635,2022-12-06_17h02.17.233,vts_reward_expectancy_bt,2022.2.4,MacIntel,60.0024001,Chrome,1440,900,,,l,1.1991,10,96,0,1,2,14,11,1,0,0,0,1,0,0,1,0,star,hexagon,,,,,,,,,,,,,,,,,,,,,,,,,,,,,,,,,,,,,,,,,,,,,,,,,,,,,,
293635,2022-12-06_17h02.17.233,vts_reward_expectancy_bt,2022.2.4,MacIntel,60.0024001,Chrome,1440,900,,,a,1.2707,10,106,0,1,3,15,0,1,1,0,0,0,0,1,0,0,triangle,circle,,,,,,,,,,,,,,,,,,,,,,,,,,,,,,,,,,,,,,,,,,,,,,,,,,,,,,
293635,2022-12-06_17h02.17.233,vts_reward_expectancy_bt,2022.2.4,MacIntel,60.0024001,Chrome,1440,900,,,a,0.9722,10,116,0,1,4,16,7,1,0,0,1,0,0,1,0,0,hexagon,circle,,,,,,,,,,,,,,,,,,,,,,,,,,,,,,,,,,,,,,,,,,,,,,,,,,,,,,
293635,2022-12-06_17h02.17.233,vts_reward_expectancy_bt,2022.2.4,MacIntel,60.0024001,Chrome,1440,900,,,l,0.949,1,117,0,1,5,17,4,1,0,1,0,0,0,0,1,0,circle,hexagon,,,,,,,,,,,,,,,,,,,,,,,,,,,,,,,,,,,,,,,,,,,,,,,,,,,,,,
293635,2022-12-06_17h02.17.233,vts_reward_expectancy_bt,2022.2.4,MacIntel,60.0024001,Chrome,1440,900,,,l,0.7843,10,127,0,1,6,18,1,1,1,0,0,0,0,0,1,0,triangle,hexagon,,,,,,,,,,,,,,,,,,,,,,,,,,,,,,,,,,,,,,,,,,,,,,,,,,,,,,
293635,2022-12-06_17h02.17.233,vts_reward_expectancy_bt,2022.2.4,MacIntel,60.0024001,Chrome,1440,900,,,a,0.7664,10,137,0,1,7,19,10,1,0,0,0,1,0,1,0,0,star ,circle,,,,,,,,,,,,,,,,,,,,,,,,,,,,,,,,,,,,,,,,,,,,,,,,,,,,,,
293635,2022-12-06_17h02.17.233,vts_reward_expectancy_bt,2022.2.4,MacIntel,60.0024001,Chrome,1440,900,,,a,0.7024,10,147,0,1,8,20,9,1,0,0,0,1,1,0,0,0,star,triangle,,,,,,,,,,,,,,,,,,,,,,,,,,,,,,,,,,,,,,,,,,,,,,,,,,,,,,
293635,2022-12-06_17h02.17.233,vts_reward_expectancy_bt,2022.2.4,MacIntel,60.0024001,Chrome,1440,900,,,l,0.8872,1,148,0,1,9,21,8,1,0,0,1,0,0,0,0,1,hexagon,star,,,,,,,,,,,,,,,,,,,,,,,,,,,,,,,,,,,,,,,,,,,,,,,,,,,,,,
293635,2022-12-06_17h02.17.233,vts_reward_expectancy_bt,2022.2.4,MacIntel,60.0024001,Chrome,1440,900,,,l,1.016,10,158,0,1,10,22,6,1,0,0,1,0,1,0,0,0,hexagon,triangle,,,,,,,,,,,,,,,,,,,,,,,,,,,,,,,,,,,,,,,,,,,,,,,,,,,,,,
293635,2022-12-06_17h02.17.233,vts_reward_expectancy_bt,2022.2.4,MacIntel,60.0024001,Chrome,1440,900,,,a,1.6595,1,159,0,1,11,23,3,1,0,1,0,0,1,0,0,0,circle,triangle,,,,,,,,,,,,,,,,,,,,,,,,,,,,,,,,,,,,,,,,,,,,,,,,,,,,,,
293635,2022-12-06_17h02.17.233,vts_reward_expectancy_bt,2022.2.4,MacIntel,60.0024001,Chrome,1440,900,,,a,1.4633,10,169,0,2,0,24,9,1,0,0,0,1,1,0,0,0,star,triangle,,,,,,,,,,,,,,,,,,,,,,,,,,,,,,,,,,,,,,,,,,,,,,,,,,,,,,
293635,2022-12-06_17h02.17.233,vts_reward_expectancy_bt,2022.2.4,MacIntel,60.0024001,Chrome,1440,900,,,l,1.0224,10,179,0,2,1,25,1,1,1,0,0,0,0,0,1,0,triangle,hexagon,,,,,,,,,,,,,,,,,,,,,,,,,,,,,,,,,,,,,,,,,,,,,,,,,,,,,,
293635,2022-12-06_17h02.17.233,vts_reward_expectancy_bt,2022.2.4,MacIntel,60.0024001,Chrome,1440,900,,,a,1.1358,10,189,0,2,2,26,8,1,0,0,1,0,0,0,0,1,hexagon,star,,,,,,,,,,,,,,,,,,,,,,,,,,,,,,,,,,,,,,,,,,,,,,,,,,,,,,
293635,2022-12-06_17h02.17.233,vts_reward_expectancy_bt,2022.2.4,MacIntel,60.0024001,Chrome,1440,900,,,a,0.8171,10,199,0,2,3,27,10,1,0,0,0,1,0,1,0,0,star ,circle,,,,,,,,,,,,,,,,,,,,,,,,,,,,,,,,,,,,,,,,,,,,,,,,,,,,,,
293635,2022-12-06_17h02.17.233,vts_reward_expectancy_bt,2022.2.4,MacIntel,60.0024001,Chrome,1440,900,,,a,1.7445,10,209,0,2,4,28,6,1,0,0,1,0,1,0,0,0,hexagon,triangle,,,,,,,,,,,,,,,,,,,,,,,,,,,,,,,,,,,,,,,,,,,,,,,,,,,,,,
293635,2022-12-06_17h02.17.233,vts_reward_expectancy_bt,2022.2.4,MacIntel,60.0024001,Chrome,1440,900,,,l,1.9657,10,219,0,2,5,29,4,1,0,1,0,0,0,0,1,0,circle,hexagon,,,,,,,,,,,,,,,,,,,,,,,,,,,,,,,,,,,,,,,,,,,,,,,,,,,,,,
293635,2022-12-06_17h02.17.233,vts_reward_expectancy_bt,2022.2.4,MacIntel,60.0024001,Chrome,1440,900,,,l,1.4891,1,220,0,2,6,30,0,1,1,0,0,0,0,1,0,0,triangle,circle,,,,,,,,,,,,,,,,,,,,,,,,,,,,,,,,,,,,,,,,,,,,,,,,,,,,,,
293635,2022-12-06_17h02.17.233,vts_reward_expectancy_bt,2022.2.4,MacIntel,60.0024001,Chrome,1440,900,,,l,1.027,1,221,0,2,7,31,5,1,0,1,0,0,0,0,0,1,circle,star,,,,,,,,,,,,,,,,,,,,,,,,,,,,,,,,,,,,,,,,,,,,,,,,,,,,,,
293635,2022-12-06_17h02.17.233,vts_reward_expectancy_bt,2022.2.4,MacIntel,60.0024001,Chrome,1440,900,,,l,1.0847,10,231,0,2,8,32,11,1,0,0,0,1,0,0,1,0,star,hexagon,,,,,,,,,,,,,,,,,,,,,,,,,,,,,,,,,,,,,,,,,,,,,,,,,,,,,,
293635,2022-12-06_17h02.17.233,vts_reward_expectancy_bt,2022.2.4,MacIntel,60.0024001,Chrome,1440,900,,,l,0.902,10,241,0,2,9,33,3,1,0,1,0,0,1,0,0,0,circle,triangle,,,,,,,,,,,,,,,,,,,,,,,,,,,,,,,,,,,,,,,,,,,,,,,,,,,,,,
293635,2022-12-06_17h02.17.233,vts_reward_expectancy_bt,2022.2.4,MacIntel,60.0024001,Chrome,1440,900,,,a,1.2398,10,251,0,2,10,34,2,1,1,0,0,0,0,0,0,1,triangle,star,,,,,,,,,,,,,,,,,,,,,,,,,,,,,,,,,,,,,,,,,,,,,,,,,,,,,,
293635,2022-12-06_17h02.17.233,vts_reward_expectancy_bt,2022.2.4,MacIntel,60.0024001,Chrome,1440,900,,,a,1.6789,10,261,0,2,11,35,7,1,0,0,1,0,0,1,0,0,hexagon,circle,,,,,,,,,,,,,,,,,,,,,,,,,,,,,,,,,,,,,,,,,,,,,,,,,,,,,,
293635,2022-12-06_17h02.17.233,vts_reward_expectancy_bt,2022.2.4,MacIntel,60.0024001,Chrome,1440,900,,,l,1.0785,10,271,1,0,0,0,11,1,0,0,0,1,0,0,1,0,star,hexagon,,,,,,,,,,,,,,,,,,,,,,,,,,,,,,,,,,,,,,,,,,,,,,,,,,,,,,
293635,2022-12-06_17h02.17.233,vts_reward_expectancy_bt,2022.2.4,MacIntel,60.0024001,Chrome,1440,900,,,a,0.7312,10,281,1,0,1,1,0,1,1,0,0,0,0,1,0,0,triangle,circle,,,,,,,,,,,,,,,,,,,,,,,,,,,,,,,,,,,,,,,,,,,,,,,,,,,,,,
293635,2022-12-06_17h02.17.233,vts_reward_expectancy_bt,2022.2.4,MacIntel,60.0024001,Chrome,1440,900,,,l,0.6699,1,282,1,0,2,2,8,1,0,0,1,0,0,0,0,1,hexagon,star,,,,,,,,,,,,,,,,,,,,,,,,,,,,,,,,,,,,,,,,,,,,,,,,,,,,,,
293635,2022-12-06_17h02.17.233,vts_reward_expectancy_bt,2022.2.4,MacIntel,60.0024001,Chrome,1440,900,,,a,0.8532,10,292,1,0,3,3,6,1,0,0,1,0,1,0,0,0,hexagon,triangle,,,,,,,,,,,,,,,,,,,,,,,,,,,,,,,,,,,,,,,,,,,,,,,,,,,,,,
293635,2022-12-06_17h02.17.233,vts_reward_expectancy_bt,2022.2.4,MacIntel,60.0024001,Chrome,1440,900,,,l,0.7689,10,302,1,0,4,4,1,1,1,0,0,0,0,0,1,0,triangle,hexagon,,,,,,,,,,,,,,,,,,,,,,,,,,,,,,,,,,,,,,,,,,,,,,,,,,,,,,
293635,2022-12-06_17h02.17.233,vts_reward_expectancy_bt,2022.2.4,MacIntel,60.0024001,Chrome,1440,900,,,a,0.7061,10,312,1,0,5,5,7,1,0,0,1,0,0,1,0,0,hexagon,circle,,,,,,,,,,,,,,,,,,,,,,,,,,,,,,,,,,,,,,,,,,,,,,,,,,,,,,
293635,2022-12-06_17h02.17.233,vts_reward_expectancy_bt,2022.2.4,MacIntel,60.0024001,Chrome,1440,900,,,l,0.6533,10,322,1,0,6,6,4,1,0,1,0,0,0,0,1,0,circle,hexagon,,,,,,,,,,,,,,,,,,,,,,,,,,,,,,,,,,,,,,,,,,,,,,,,,,,,,,
293635,2022-12-06_17h02.17.233,vts_reward_expectancy_bt,2022.2.4,MacIntel,60.0024001,Chrome,1440,900,,,a,0.9381,1,323,1,0,7,7,9,1,0,0,0,1,1,0,0,0,star,triangle,,,,,,,,,,,,,,,,,,,,,,,,,,,,,,,,,,,,,,,,,,,,,,,,,,,,,,
293635,2022-12-06_17h02.17.233,vts_reward_expectancy_bt,2022.2.4,MacIntel,60.0024001,Chrome,1440,900,,,a,1.7064,1,324,1,0,8,8,10,1,0,0,0,1,0,1,0,0,star ,circle,,,,,,,,,,,,,,,,,,,,,,,,,,,,,,,,,,,,,,,,,,,,,,,,,,,,,,
293635,2022-12-06_17h02.17.233,vts_reward_expectancy_bt,2022.2.4,MacIntel,60.0024001,Chrome,1440,900,,,a,1.4709,10,334,1,0,9,9,2,1,1,0,0,0,0,0,0,1,triangle,star,,,,,,,,,,,,,,,,,,,,,,,,,,,,,,,,,,,,,,,,,,,,,,,,,,,,,,
293635,2022-12-06_17h02.17.233,vts_reward_expectancy_bt,2022.2.4,MacIntel,60.0024001,Chrome,1440,900,,,a,0.891,1,335,1,0,10,10,5,1,0,1,0,0,0,0,0,1,circle,star,,,,,,,,,,,,,,,,,,,,,,,,,,,,,,,,,,,,,,,,,,,,,,,,,,,,,,
293635,2022-12-06_17h02.17.233,vts_reward_expectancy_bt,2022.2.4,MacIntel,60.0024001,Chrome,1440,900,,,l,1.1163,10,345,1,0,11,11,3,1,0,1,0,0,1,0,0,0,circle,triangle,,,,,,,,,,,,,,,,,,,,,,,,,,,,,,,,,,,,,,,,,,,,,,,,,,,,,,
293635,2022-12-06_17h02.17.233,vts_reward_expectancy_bt,2022.2.4,MacIntel,60.0024001,Chrome,1440,900,,,a,1.0041,10,355,1,1,0,12,7,1,0,0,1,0,0,1,0,0,hexagon,circle,,,,,,,,,,,,,,,,,,,,,,,,,,,,,,,,,,,,,,,,,,,,,,,,,,,,,,
293635,2022-12-06_17h02.17.233,vts_reward_expectancy_bt,2022.2.4,MacIntel,60.0024001,Chrome,1440,900,,,a,1.5529,1,356,1,1,1,13,2,1,1,0,0,0,0,0,0,1,triangle,star,,,,,,,,,,,,,,,,,,,,,,,,,,,,,,,,,,,,,,,,,,,,,,,,,,,,,,
293635,2022-12-06_17h02.17.233,vts_reward_expectancy_bt,2022.2.4,MacIntel,60.0024001,Chrome,1440,900,,,a,1.1416,10,366,1,1,2,14,8,1,0,0,1,0,0,0,0,1,hexagon,star,,,,,,,,,,,,,,,,,,,,,,,,,,,,,,,,,,,,,,,,,,,,,,,,,,,,,,
293635,2022-12-06_17h02.17.233,vts_reward_expectancy_bt,2022.2.4,MacIntel,60.0024001,Chrome,1440,900,,,l,0.6908,10,376,1,1,3,15,1,1,1,0,0,0,0,0,1,0,triangle,hexagon,,,,,,,,,,,,,,,,,,,,,,,,,,,,,,,,,,,,,,,,,,,,,,,,,,,,,,
293635,2022-12-06_17h02.17.233,vts_reward_expectancy_bt,2022.2.4,MacIntel,60.0024001,Chrome,1440,900,,,l,1.1245,1,377,1,1,4,16,9,1,0,0,0,1,1,0,0,0,star,triangle,,,,,,,,,,,,,,,,,,,,,,,,,,,,,,,,,,,,,,,,,,,,,,,,,,,,,,
293635,2022-12-06_17h02.17.233,vts_reward_expectancy_bt,2022.2.4,MacIntel,60.0024001,Chrome,1440,900,,,a,1.2203,10,387,1,1,5,17,0,1,1,0,0,0,0,1,0,0,triangle,circle,,,,,,,,,,,,,,,,,,,,,,,,,,,,,,,,,,,,,,,,,,,,,,,,,,,,,,
293635,2022-12-06_17h02.17.233,vts_reward_expectancy_bt,2022.2.4,MacIntel,60.0024001,Chrome,1440,900,,,l,0.8661,10,397,1,1,6,18,11,1,0,0,0,1,0,0,1,0,star,hexagon,,,,,,,,,,,,,,,,,,,,,,,,,,,,,,,,,,,,,,,,,,,,,,,,,,,,,,
293635,2022-12-06_17h02.17.233,vts_reward_expectancy_bt,2022.2.4,MacIntel,60.0024001,Chrome,1440,900,,,a,1.7161,1,398,1,1,7,19,5,1,0,1,0,0,0,0,0,1,circle,star,,,,,,,,,,,,,,,,,,,,,,,,,,,,,,,,,,,,,,,,,,,,,,,,,,,,,,
293635,2022-12-06_17h02.17.233,vts_reward_expectancy_bt,2022.2.4,MacIntel,60.0024001,Chrome,1440,900,,,l,1.6367,10,408,1,1,8,20,4,1,0,1,0,0,0,0,1,0,circle,hexagon,,,,,,,,,,,,,,,,,,,,,,,,,,,,,,,,,,,,,,,,,,,,,,,,,,,,,,
293635,2022-12-06_17h02.17.233,vts_reward_expectancy_bt,2022.2.4,MacIntel,60.0024001,Chrome,1440,900,,,a,1.1429,10,418,1,1,9,21,10,1,0,0,0,1,0,1,0,0,star ,circle,,,,,,,,,,,,,,,,,,,,,,,,,,,,,,,,,,,,,,,,,,,,,,,,,,,,,,
293635,2022-12-06_17h02.17.233,vts_reward_expectancy_bt,2022.2.4,MacIntel,60.0024001,Chrome,1440,900,,,l,0.83,10,428,1,1,10,22,3,1,0,1,0,0,1,0,0,0,circle,triangle,,,,,,,,,,,,,,,,,,,,,,,,,,,,,,,,,,,,,,,,,,,,,,,,,,,,,,
293635,2022-12-06_17h02.17.233,vts_reward_expectancy_bt,2022.2.4,MacIntel,60.0024001,Chrome,1440,900,,,a,0.762,10,438,1,1,11,23,6,1,0,0,1,0,1,0,0,0,hexagon,triangle,,,,,,,,,,,,,,,,,,,,,,,,,,,,,,,,,,,,,,,,,,,,,,,,,,,,,,
293635,2022-12-06_17h02.17.233,vts_reward_expectancy_bt,2022.2.4,MacIntel,60.0024001,Chrome,1440,900,,,a,1.3601,10,448,1,2,0,24,8,1,0,0,1,0,0,0,0,1,hexagon,star,,,,,,,,,,,,,,,,,,,,,,,,,,,,,,,,,,,,,,,,,,,,,,,,,,,,,,
293635,2022-12-06_17h02.17.233,vts_reward_expectancy_bt,2022.2.4,MacIntel,60.0024001,Chrome,1440,900,,,a,0.7658,10,458,1,2,1,25,0,1,1,0,0,0,0,1,0,0,triangle,circle,,,,,,,,,,,,,,,,,,,,,,,,,,,,,,,,,,,,,,,,,,,,,,,,,,,,,,
293635,2022-12-06_17h02.17.233,vts_reward_expectancy_bt,2022.2.4,MacIntel,60.0024001,Chrome,1440,900,,,l,0.8982,10,468,1,2,2,26,3,1,0,1,0,0,1,0,0,0,circle,triangle,,,,,,,,,,,,,,,,,,,,,,,,,,,,,,,,,,,,,,,,,,,,,,,,,,,,,,
293635,2022-12-06_17h02.17.233,vts_reward_expectancy_bt,2022.2.4,MacIntel,60.0024001,Chrome,1440,900,,,l,0.8525,10,478,1,2,3,27,9,1,0,0,0,1,1,0,0,0,star,triangle,,,,,,,,,,,,,,,,,,,,,,,,,,,,,,,,,,,,,,,,,,,,,,,,,,,,,,
293635,2022-12-06_17h02.17.233,vts_reward_expectancy_bt,2022.2.4,MacIntel,60.0024001,Chrome,1440,900,,,l,0.9264,1,479,1,2,4,28,11,1,0,0,0,1,0,0,1,0,star,hexagon,,,,,,,,,,,,,,,,,,,,,,,,,,,,,,,,,,,,,,,,,,,,,,,,,,,,,,
293635,2022-12-06_17h02.17.233,vts_reward_expectancy_bt,2022.2.4,MacIntel,60.0024001,Chrome,1440,900,,,l,1.0551,10,489,1,2,5,29,4,1,0,1,0,0,0,0,1,0,circle,hexagon,,,,,,,,,,,,,,,,,,,,,,,,,,,,,,,,,,,,,,,,,,,,,,,,,,,,,,
293635,2022-12-06_17h02.17.233,vts_reward_expectancy_bt,2022.2.4,MacIntel,60.0024001,Chrome,1440,900,,,a,0.907,1,490,1,2,6,30,2,1,1,0,0,0,0,0,0,1,triangle,star,,,,,,,,,,,,,,,,,,,,,,,,,,,,,,,,,,,,,,,,,,,,,,,,,,,,,,
293635,2022-12-06_17h02.17.233,vts_reward_expectancy_bt,2022.2.4,MacIntel,60.0024001,Chrome,1440,900,,,a,1.2002,10,500,1,2,7,31,6,1,0,0,1,0,1,0,0,0,hexagon,triangle,,,,,,,,,,,,,,,,,,,,,,,,,,,,,,,,,,,,,,,,,,,,,,,,,,,,,,
293635,2022-12-06_17h02.17.233,vts_reward_expectancy_bt,2022.2.4,MacIntel,60.0024001,Chrome,1440,900,,,l,0.9312,10,510,1,2,8,32,1,1,1,0,0,0,0,0,1,0,triangle,hexagon,,,,,,,,,,,,,,,,,,,,,,,,,,,,,,,,,,,,,,,,,,,,,,,,,,,,,,
293635,2022-12-06_17h02.17.233,vts_reward_expectancy_bt,2022.2.4,MacIntel,60.0024001,Chrome,1440,900,,,a,1.0033,10,520,1,2,9,33,7,1,0,0,1,0,0,1,0,0,hexagon,circle,,,,,,,,,,,,,,,,,,,,,,,,,,,,,,,,,,,,,,,,,,,,,,,,,,,,,,
293635,2022-12-06_17h02.17.233,vts_reward_expectancy_bt,2022.2.4,MacIntel,60.0024001,Chrome,1440,900,,,l,1.5076,1,521,1,2,10,34,10,1,0,0,0,1,0,1,0,0,star ,circle,,,,,,,,,,,,,,,,,,,,,,,,,,,,,,,,,,,,,,,,,,,,,,,,,,,,,,
293635,2022-12-06_17h02.17.233,vts_reward_expectancy_bt,2022.2.4,MacIntel,60.0024001,Chrome,1440,900,,,a,1.9117,10,531,1,2,11,35,5,1,0,1,0,0,0,0,0,1,circle,star,,,,,,,,,,,,,,,,,,,,,,,,,,,,,,,,,,,,,,,,,,,,,,,,,,,,,,
293635,2022-12-06_17h02.17.233,vts_reward_expectancy_bt,2022.2.4,MacIntel,60.0024001,Chrome,1440,900,,,l,1.7798,1,532,2,0,0,0,5,1,0,1,0,0,0,0,0,1,circle,star,,,,,,,,,,,,,,,,,,,,,,,,,,,,,,,,,,,,,,,,,,,,,,,,,,,,,,
293635,2022-12-06_17h02.17.233,vts_reward_expectancy_bt,2022.2.4,MacIntel,60.0024001,Chrome,1440,900,,,a,1.1394,10,542,2,0,1,1,2,1,1,0,0,0,0,0,0,1,triangle,star,,,,,,,,,,,,,,,,,,,,,,,,,,,,,,,,,,,,,,,,,,,,,,,,,,,,,,
293635,2022-12-06_17h02.17.233,vts_reward_expectancy_bt,2022.2.4,MacIntel,60.0024001,Chrome,1440,900,,,a,0.8061,10,552,2,0,2,2,7,1,0,0,1,0,0,1,0,0,hexagon,circle,,,,,,,,,,,,,,,,,,,,,,,,,,,,,,,,,,,,,,,,,,,,,,,,,,,,,,
293635,2022-12-06_17h02.17.233,vts_reward_expectancy_bt,2022.2.4,MacIntel,60.0024001,Chrome,1440,900,,,l,0.752,10,562,2,0,3,3,3,1,0,1,0,0,1,0,0,0,circle,triangle,,,,,,,,,,,,,,,,,,,,,,,,,,,,,,,,,,,,,,,,,,,,,,,,,,,,,,
293635,2022-12-06_17h02.17.233,vts_reward_expectancy_bt,2022.2.4,MacIntel,60.0024001,Chrome,1440,900,,,a,0.7079,10,572,2,0,4,4,1,1,1,0,0,0,0,0,1,0,triangle,hexagon,,,,,,,,,,,,,,,,,,,,,,,,,,,,,,,,,,,,,,,,,,,,,,,,,,,,,,
293635,2022-12-06_17h02.17.233,vts_reward_expectancy_bt,2022.2.4,MacIntel,60.0024001,Chrome,1440,900,,,l,2.8868,10,582,2,0,5,5,9,1,0,0,0,1,1,0,0,0,star,triangle,,,,,,,,,,,,,,,,,,,,,,,,,,,,,,,,,,,,,,,,,,,,,,,,,,,,,,
293635,2022-12-06_17h02.17.233,vts_reward_expectancy_bt,2022.2.4,MacIntel,60.0024001,Chrome,1440,900,,,a,1.1136,10,592,2,0,6,6,8,1,0,0,1,0,0,0,0,1,hexagon,star,,,,,,,,,,,,,,,,,,,,,,,,,,,,,,,,,,,,,,,,,,,,,,,,,,,,,,
293635,2022-12-06_17h02.17.233,vts_reward_expectancy_bt,2022.2.4,MacIntel,60.0024001,Chrome,1440,900,,,l,1.2647,10,602,2,0,7,7,4,1,0,1,0,0,0,0,1,0,circle,hexagon,,,,,,,,,,,,,,,,,,,,,,,,,,,,,,,,,,,,,,,,,,,,,,,,,,,,,,
293635,2022-12-06_17h02.17.233,vts_reward_expectancy_bt,2022.2.4,MacIntel,60.0024001,Chrome,1440,900,,,l,1.056,10,612,2,0,8,8,6,1,0,0,1,0,1,0,0,0,hexagon,triangle,,,,,,,,,,,,,,,,,,,,,,,,,,,,,,,,,,,,,,,,,,,,,,,,,,,,,,
293635,2022-12-06_17h02.17.233,vts_reward_expectancy_bt,2022.2.4,MacIntel,60.0024001,Chrome,1440,900,,,a,1.6266,10,622,2,0,9,9,10,1,0,0,0,1,0,1,0,0,star ,circle,,,,,,,,,,,,,,,,,,,,,,,,,,,,,,,,,,,,,,,,,,,,,,,,,,,,,,
293635,2022-12-06_17h02.17.233,vts_reward_expectancy_bt,2022.2.4,MacIntel,60.0024001,Chrome,1440,900,,,l,1.3485,10,632,2,0,10,10,11,1,0,0,0,1,0,0,1,0,star,hexagon,,,,,,,,,,,,,,,,,,,,,,,,,,,,,,,,,,,,,,,,,,,,,,,,,,,,,,
293635,2022-12-06_17h02.17.233,vts_reward_expectancy_bt,2022.2.4,MacIntel,60.0024001,Chrome,1440,900,,,a,2.0149,10,642,2,0,11,11,0,1,1,0,0,0,0,1,0,0,triangle,circle,,,,,,,,,,,,,,,,,,,,,,,,,,,,,,,,,,,,,,,,,,,,,,,,,,,,,,
293635,2022-12-06_17h02.17.233,vts_reward_expectancy_bt,2022.2.4,MacIntel,60.0024001,Chrome,1440,900,,,a,0.949,10,652,2,1,0,12,8,1,0,0,1,0,0,0,0,1,hexagon,star,,,,,,,,,,,,,,,,,,,,,,,,,,,,,,,,,,,,,,,,,,,,,,,,,,,,,,
293635,2022-12-06_17h02.17.233,vts_reward_expectancy_bt,2022.2.4,MacIntel,60.0024001,Chrome,1440,900,,,l,0.6705,1,653,2,1,1,13,3,1,0,1,0,0,1,0,0,0,circle,triangle,,,,,,,,,,,,,,,,,,,,,,,,,,,,,,,,,,,,,,,,,,,,,,,,,,,,,,
293635,2022-12-06_17h02.17.233,vts_reward_expectancy_bt,2022.2.4,MacIntel,60.0024001,Chrome,1440,900,,,a,1.5474,1,654,2,1,2,14,10,1,0,0,0,1,0,1,0,0,star ,circle,,,,,,,,,,,,,,,,,,,,,,,,,,,,,,,,,,,,,,,,,,,,,,,,,,,,,,
293635,2022-12-06_17h02.17.233,vts_reward_expectancy_bt,2022.2.4,MacIntel,60.0024001,Chrome,1440,900,,,a,0.9324,10,664,2,1,3,15,2,1,1,0,0,0,0,0,0,1,triangle,star,,,,,,,,,,,,,,,,,,,,,,,,,,,,,,,,,,,,,,,,,,,,,,,,,,,,,,
293635,2022-12-06_17h02.17.233,vts_reward_expectancy_bt,2022.2.4,MacIntel,60.0024001,Chrome,1440,900,,,a,1.4578,10,674,2,1,4,16,7,1,0,0,1,0,0,1,0,0,hexagon,circle,,,,,,,,,,,,,,,,,,,,,,,,,,,,,,,,,,,,,,,,,,,,,,,,,,,,,,
293635,2022-12-06_17h02.17.233,vts_reward_expectancy_bt,2022.2.4,MacIntel,60.0024001,Chrome,1440,900,,,a,0.7882,1,675,2,1,5,17,0,1,1,0,0,0,0,1,0,0,triangle,circle,,,,,,,,,,,,,,,,,,,,,,,,,,,,,,,,,,,,,,,,,,,,,,,,,,,,,,
293635,2022-12-06_17h02.17.233,vts_reward_expectancy_bt,2022.2.4,MacIntel,60.0024001,Chrome,1440,900,,,l,1.0515,1,676,2,1,6,18,11,1,0,0,0,1,0,0,1,0,star,hexagon,,,,,,,,,,,,,,,,,,,,,,,,,,,,,,,,,,,,,,,,,,,,,,,,,,,,,,
293635,2022-12-06_17h02.17.233,vts_reward_expectancy_bt,2022.2.4,MacIntel,60.0024001,Chrome,1440,900,,,l,0.913,10,686,2,1,7,19,6,1,0,0,1,0,1,0,0,0,hexagon,triangle,,,,,,,,,,,,,,,,,,,,,,,,,,,,,,,,,,,,,,,,,,,,,,,,,,,,,,
293635,2022-12-06_17h02.17.233,vts_reward_expectancy_bt,2022.2.4,MacIntel,60.0024001,Chrome,1440,900,,,l,1.3391,10,696,2,1,8,20,4,1,0,1,0,0,0,0,1,0,circle,hexagon,,,,,,,,,,,,,,,,,,,,,,,,,,,,,,,,,,,,,,,,,,,,,,,,,,,,,,
293635,2022-12-06_17h02.17.233,vts_reward_expectancy_bt,2022.2.4,MacIntel,60.0024001,Chrome,1440,900,,,l,1.3379,10,706,2,1,9,21,9,1,0,0,0,1,1,0,0,0,star,triangle,,,,,,,,,,,,,,,,,,,,,,,,,,,,,,,,,,,,,,,,,,,,,,,,,,,,,,
293635,2022-12-06_17h02.17.233,vts_reward_expectancy_bt,2022.2.4,MacIntel,60.0024001,Chrome,1440,900,,,l,0.639,1,707,2,1,10,22,5,1,0,1,0,0,0,0,0,1,circle,star,,,,,,,,,,,,,,,,,,,,,,,,,,,,,,,,,,,,,,,,,,,,,,,,,,,,,,
293635,2022-12-06_17h02.17.233,vts_reward_expectancy_bt,2022.2.4,MacIntel,60.0024001,Chrome,1440,900,,,l,0.7548,10,717,2,1,11,23,1,1,1,0,0,0,0,0,1,0,triangle,hexagon,,,,,,,,,,,,,,,,,,,,,,,,,,,,,,,,,,,,,,,,,,,,,,,,,,,,,,
293635,2022-12-06_17h02.17.233,vts_reward_expectancy_bt,2022.2.4,MacIntel,60.0024001,Chrome,1440,900,,,l,1.0243,10,727,2,2,0,24,3,1,0,1,0,0,1,0,0,0,circle,triangle,,,,,,,,,,,,,,,,,,,,,,,,,,,,,,,,,,,,,,,,,,,,,,,,,,,,,,
293635,2022-12-06_17h02.17.233,vts_reward_expectancy_bt,2022.2.4,MacIntel,60.0024001,Chrome,1440,900,,,a,0.5372,10,737,2,2,1,25,10,1,0,0,0,1,0,1,0,0,star ,circle,,,,,,,,,,,,,,,,,,,,,,,,,,,,,,,,,,,,,,,,,,,,,,,,,,,,,,
293635,2022-12-06_17h02.17.233,vts_reward_expectancy_bt,2022.2.4,MacIntel,60.0024001,Chrome,1440,900,,,a,1.3707,1,738,2,2,2,26,2,1,1,0,0,0,0,0,0,1,triangle,star,,,,,,,,,,,,,,,,,,,,,,,,,,,,,,,,,,,,,,,,,,,,,,,,,,,,,,
293635,2022-12-06_17h02.17.233,vts_reward_expectancy_bt,2022.2.4,MacIntel,60.0024001,Chrome,1440,900,,,l,1.1617,10,748,2,2,3,27,9,1,0,0,0,1,1,0,0,0,star,triangle,,,,,,,,,,,,,,,,,,,,,,,,,,,,,,,,,,,,,,,,,,,,,,,,,,,,,,
293635,2022-12-06_17h02.17.233,vts_reward_expectancy_bt,2022.2.4,MacIntel,60.0024001,Chrome,1440,900,,,l,1.0834,1,749,2,2,4,28,6,1,0,0,1,0,1,0,0,0,hexagon,triangle,,,,,,,,,,,,,,,,,,,,,,,,,,,,,,,,,,,,,,,,,,,,,,,,,,,,,,
293635,2022-12-06_17h02.17.233,vts_reward_expectancy_bt,2022.2.4,MacIntel,60.0024001,Chrome,1440,900,,,l,1.3909,10,759,2,2,5,29,5,1,0,1,0,0,0,0,0,1,circle,star,,,,,,,,,,,,,,,,,,,,,,,,,,,,,,,,,,,,,,,,,,,,,,,,,,,,,,
293635,2022-12-06_17h02.17.233,vts_reward_expectancy_bt,2022.2.4,MacIntel,60.0024001,Chrome,1440,900,,,a,0.9034,10,769,2,2,6,30,7,1,0,0,1,0,0,1,0,0,hexagon,circle,,,,,,,,,,,,,,,,,,,,,,,,,,,,,,,,,,,,,,,,,,,,,,,,,,,,,,
293635,2022-12-06_17h02.17.233,vts_reward_expectancy_bt,2022.2.4,MacIntel,60.0024001,Chrome,1440,900,,,a,1.6789,10,779,2,2,7,31,8,1,0,0,1,0,0,0,0,1,hexagon,star,,,,,,,,,,,,,,,,,,,,,,,,,,,,,,,,,,,,,,,,,,,,,,,,,,,,,,
293635,2022-12-06_17h02.17.233,vts_reward_expectancy_bt,2022.2.4,MacIntel,60.0024001,Chrome,1440,900,,,l,1.049,1,780,2,2,8,32,1,1,1,0,0,0,0,0,1,0,triangle,hexagon,,,,,,,,,,,,,,,,,,,,,,,,,,,,,,,,,,,,,,,,,,,,,,,,,,,,,,
293635,2022-12-06_17h02.17.233,vts_reward_expectancy_bt,2022.2.4,MacIntel,60.0024001,Chrome,1440,900,,,l,1.0674,10,790,2,2,9,33,11,1,0,0,0,1,0,0,1,0,star,hexagon,,,,,,,,,,,,,,,,,,,,,,,,,,,,,,,,,,,,,,,,,,,,,,,,,,,,,,
293635,2022-12-06_17h02.17.233,vts_reward_expectancy_bt,2022.2.4,MacIntel,60.0024001,Chrome,1440,900,,,a,0.4584,10,800,2,2,10,34,4,1,0,1,0,0,0,0,1,0,circle,hexagon,,,,,,,,,,,,,,,,,,,,,,,,,,,,,,,,,,,,,,,,,,,,,,,,,,,,,,
293635,2022-12-06_17h02.17.233,vts_reward_expectancy_bt,2022.2.4,MacIntel,60.0024001,Chrome,1440,900,,,l,0.2949,1,801,2,2,11,35,0,1,1,0,0,0,0,1,0,0,triangle,circle,,,,,,,,,,,,,,,,,,,,,,,,,,,,,,,,,,,,,,,,,,,,,,,,,,,,,,
293635,2022-12-06_17h02.17.233,vts_reward_expectancy_bt,2022.2.4,MacIntel,60.0024001,Chrome,1440,900,,,,,,,,,,,,,,,,,,,,,,,W,160,triangle,1,0,f,1.4948,0,0,0,0,0,1,,,,,,,,,,,,,,,,,,,,,,,,,,,,,,,,,,,,,,,,,
293635,2022-12-06_17h02.17.233,vts_reward_expectancy_bt,2022.2.4,MacIntel,60.0024001,Chrome,1440,900,,,,,,,,,,,,,,,,,,,,,,,S,146,circle,1,0,f,0.9879,0,1,0,1,0,1,,,,,,,,,,,,,,,,,,,,,,,,,,,,,,,,,,,,,,,,,
293635,2022-12-06_17h02.17.233,vts_reward_expectancy_bt,2022.2.4,MacIntel,60.0024001,Chrome,1440,900,,,,,,,,,,,,,,,,,,,,,,,D,167,hexagon,1,0,d,0.9109,0,2,0,2,0,1,,,,,,,,,,,,,,,,,,,,,,,,,,,,,,,,,,,,,,,,,
293635,2022-12-06_17h02.17.233,vts_reward_expectancy_bt,2022.2.4,MacIntel,60.0024001,Chrome,1440,900,,,,,,,,,,,,,,,,,,,,,,,B,139,star,1,0,d,1.4656,0,3,0,3,0,1,,,,,,,,,,,,,,,,,,,,,,,,,,,,,,,,,,,,,,,,,
293635,2022-12-06_17h02.17.233,vts_reward_expectancy_bt,2022.2.4,MacIntel,60.0024001,Chrome,1440,900,,,,,,,,,,,,,,,,,,,,,,,F,132,triangle,1,0,d,1.3587,0,4,0,4,0,1,,,,,,,,,,,,,,,,,,,,,,,,,,,,,,,,,,,,,,,,,
293635,2022-12-06_17h02.17.233,vts_reward_expectancy_bt,2022.2.4,MacIntel,60.0024001,Chrome,1440,900,,,,,,,,,,,,,,,,,,,,,,,Y,181,circle,1,0,f,1.0756,0,5,0,5,0,1,,,,,,,,,,,,,,,,,,,,,,,,,,,,,,,,,,,,,,,,,
293635,2022-12-06_17h02.17.233,vts_reward_expectancy_bt,2022.2.4,MacIntel,60.0024001,Chrome,1440,900,,,,,,,,,,,,,,,,,,,,,,,H,174,hexagon,1,0,d,1.1216,0,6,0,6,0,1,,,,,,,,,,,,,,,,,,,,,,,,,,,,,,,,,,,,,,,,,
293635,2022-12-06_17h02.17.233,vts_reward_expectancy_bt,2022.2.4,MacIntel,60.0024001,Chrome,1440,900,,,,,,,,,,,,,,,,,,,,,,,U,125,star,1,0,f,0.81,0,7,0,7,0,1,,,,,,,,,,,,,,,,,,,,,,,,,,,,,,,,,,,,,,,,,
293635,2022-12-06_17h02.17.233,vts_reward_expectancy_bt,2022.2.4,MacIntel,60.0024001,Chrome,1440,900,,,,,,,,,,,,,,,,,,,,,,,W,160,hexagon,1,0,f,0.9435,0,8,0,8,0,1,,,,,,,,,,,,,,,,,,,,,,,,,,,,,,,,,,,,,,,,,
293635,2022-12-06_17h02.17.233,vts_reward_expectancy_bt,2022.2.4,MacIntel,60.0024001,Chrome,1440,900,,,,,,,,,,,,,,,,,,,,,,,S,146,star,1,0,f,0.7981,0,9,0,9,0,1,,,,,,,,,,,,,,,,,,,,,,,,,,,,,,,,,,,,,,,,,
293635,2022-12-06_17h02.17.233,vts_reward_expectancy_bt,2022.2.4,MacIntel,60.0024001,Chrome,1440,900,,,,,,,,,,,,,,,,,,,,,,,U,146,star,1,0,,,1,,,,,,j,1.2122,0,0,0,0,1,,,,,,,,,,,,,,,,,,,,,,,,,,,,,,,,,,
293635,2022-12-06_17h02.17.233,vts_reward_expectancy_bt,2022.2.4,MacIntel,60.0024001,Chrome,1440,900,,,,,,,,,,,,,,,,,,,,,,,B,125,triangle,1,0,,,1,,,,,,j,0.8478,1,0,1,0,1,,,,,,,,,,,,,,,,,,,,,,,,,,,,,,,,,,
293635,2022-12-06_17h02.17.233,vts_reward_expectancy_bt,2022.2.4,MacIntel,60.0024001,Chrome,1440,900,,,,,,,,,,,,,,,,,,,,,,,S,167,hexagon,1,0,,,1,,,,,,k,0.6958,2,0,2,0,1,,,,,,,,,,,,,,,,,,,,,,,,,,,,,,,,,,
293635,2022-12-06_17h02.17.233,vts_reward_expectancy_bt,2022.2.4,MacIntel,60.0024001,Chrome,1440,900,,,,,,,,,,,,,,,,,,,,,,,Y,160,circle,1,0,,,1,,,,,,k,0.6021,3,0,3,0,1,,,,,,,,,,,,,,,,,,,,,,,,,,,,,,,,,,
293635,2022-12-06_17h02.17.233,vts_reward_expectancy_bt,2022.2.4,MacIntel,60.0024001,Chrome,1440,900,,,,,,,,,,,,,,,,,,,,,,,H,139,star,1,0,,,1,,,,,,j,1.2939,4,0,4,0,1,,,,,,,,,,,,,,,,,,,,,,,,,,,,,,,,,,
293635,2022-12-06_17h02.17.233,vts_reward_expectancy_bt,2022.2.4,MacIntel,60.0024001,Chrome,1440,900,,,,,,,,,,,,,,,,,,,,,,,D,132,triangle,1,0,,,1,,,,,,j,0.7119,5,0,5,0,1,,,,,,,,,,,,,,,,,,,,,,,,,,,,,,,,,,
293635,2022-12-06_17h02.17.233,vts_reward_expectancy_bt,2022.2.4,MacIntel,60.0024001,Chrome,1440,900,,,,,,,,,,,,,,,,,,,,,,,F,174,hexagon,1,0,,,1,,,,,,k,0.7875,6,0,6,0,1,,,,,,,,,,,,,,,,,,,,,,,,,,,,,,,,,,
293635,2022-12-06_17h02.17.233,vts_reward_expectancy_bt,2022.2.4,MacIntel,60.0024001,Chrome,1440,900,,,,,,,,,,,,,,,,,,,,,,,W,181,circle,1,0,,,1,,,,,,k,0.6958,7,0,7,0,1,,,,,,,,,,,,,,,,,,,,,,,,,,,,,,,,,,
293635,2022-12-06_17h02.17.233,vts_reward_expectancy_bt,2022.2.4,MacIntel,60.0024001,Chrome,1440,900,,,,,,,,,,,,,,,,,,,,,,,U,146,hexagon,1,0,,,1,,,,,,j,0.9768,8,0,8,0,1,,,,,,,,,,,,,,,,,,,,,,,,,,,,,,,,,,
293635,2022-12-06_17h02.17.233,vts_reward_expectancy_bt,2022.2.4,MacIntel,60.0024001,Chrome,1440,900,,,,,,,,,,,,,,,,,,,,,,,B,125,circle,1,0,,,1,,,,,,j,0.6276,9,0,9,0,1,,,,,,,,,,,,,,,,,,,,,,,,,,,,,,,,,,
293635,2022-12-06_17h02.17.233,vts_reward_expectancy_bt,2022.2.4,MacIntel,60.0024001,Chrome,1440,900,,,,,0,801,,,,,,,,,,,,,,,,,D,146,hexagon,1,0,,,2,,,,,,,,,,,,,-1,letter,NA,d,2.061,vtsPrac,0,0,0,0,1,,,,,,,,,,,,,,,,,,,,,,,
293635,2022-12-06_17h02.17.233,vts_reward_expectancy_bt,2022.2.4,MacIntel,60.0024001,Chrome,1440,900,,,,,0,801,,,,,,,,,,,,,,,,,S,167,triangle,1,0,,,2,,,,,,,,,,,,,repeat,letter,lettRpt,f,0.9953,vtsPrac,1,0,1,0,1,,,,,,,,,,,,,,,,,,,,,,,
293635,2022-12-06_17h02.17.233,vts_reward_expectancy_bt,2022.2.4,MacIntel,60.0024001,Chrome,1440,900,,,,,0,801,,,,,,,,,,,,,,,,,B,160,hexagon,1,0,,,2,,,,,,,,,,,,,switch,number,numSwt,k,0.9169,vtsPrac,2,0,2,0,1,,,,,,,,,,,,,,,,,,,,,,,
293635,2022-12-06_17h02.17.233,vts_reward_expectancy_bt,2022.2.4,MacIntel,60.0024001,Chrome,1440,900,,,,,0,801,,,,,,,,,,,,,,,,,W,181,triangle,1,0,,,2,,,,,,,,,,,,,repeat,number,numRpt,k,0.8145,vtsPrac,3,0,3,0,1,,,,,,,,,,,,,,,,,,,,,,,
293635,2022-12-06_17h02.17.233,vts_reward_expectancy_bt,2022.2.4,MacIntel,60.0024001,Chrome,1440,900,,,,,0,801,,,,,,,,,,,,,,,,,D,146,hexagon,1,0,,,2,,,,,,,,,,,,,switch,letter,lettSwt,d,0.6832,vtsPrac,4,0,4,0,1,,,,,,,,,,,,,,,,,,,,,,,
293635,2022-12-06_17h02.17.233,vts_reward_expectancy_bt,2022.2.4,MacIntel,60.0024001,Chrome,1440,900,,,,,0,801,,,,,,,,,,,,,,,,,S,167,triangle,1,0,,,2,,,,,,,,,,,,,repeat,letter,lettRpt,f,1.6263,vtsPrac,5,0,5,0,1,,,,,,,,,,,,,,,,,,,,,,,
293635,2022-12-06_17h02.17.233,vts_reward_expectancy_bt,2022.2.4,MacIntel,60.0024001,Chrome,1440,900,,,,,0,801,,,,,,,,,,,,,,,,,B,160,star,1,0,,,2,,,,,,,,,,,,,repeat,letter,lettRpt,d,1.0316,vtsPrac,6,0,6,0,1,,,,,,,,,,,,,,,,,,,,,,,
293635,2022-12-06_17h02.17.233,vts_reward_expectancy_bt,2022.2.4,MacIntel,60.0024001,Chrome,1440,900,,,,,0,801,,,,,,,,,,,,,,,,,W,181,circle,1,0,,,2,,,,,,,,,,,,,switch,number,numSwt,k,0.979,vtsPrac,7,0,7,0,1,,,,,,,,,,,,,,,,,,,,,,,
293635,2022-12-06_17h02.17.233,vts_reward_expectancy_bt,2022.2.4,MacIntel,60.0024001,Chrome,1440,900,,,,,0,801,,,,,,,,,,,,,,,,,S,146,circle,1,0,,,2,,,,,,,,,,,,,repeat,number,numRpt,j,0.8267,vtsPrac,8,0,8,0,1,,,,,,,,,,,,,,,,,,,,,,,
293635,2022-12-06_17h02.17.233,vts_reward_expectancy_bt,2022.2.4,MacIntel,60.0024001,Chrome,1440,900,,,,,0,801,,,,,,,,,,,,,,,,,F,160,triangle,1,0,,,2,,,,,,,,,,,,,switch,letter,lettSwt,d,1.3994,vtsPrac,9,0,9,0,1,,,,,,,,,,,,,,,,,,,,,,,
293635,2022-12-06_17h02.17.233,vts_reward_expectancy_bt,2022.2.4,MacIntel,60.0024001,Chrome,1440,900,,,,,0,801,,,,,,,,,,,,,,,,,Y,125,hexagon,1,0,,,2,,,,,,,,,,,,,repeat,letter,lettRpt,f,0.8741,vtsPrac,10,0,10,0,1,,,,,,,,,,,,,,,,,,,,,,,
293635,2022-12-06_17h02.17.233,vts_reward_expectancy_bt,2022.2.4,MacIntel,60.0024001,Chrome,1440,900,,,,,0,801,,,,,,,,,,,,,,,,,B,181,circle,1,0,,,2,,,,,,,,,,,,,repeat,letter,lettRpt,d,0.9816,vtsPrac,11,0,11,0,1,,,,,,,,,,,,,,,,,,,,,,,
293635,2022-12-06_17h02.17.233,vts_reward_expectancy_bt,2022.2.4,MacIntel,60.0024001,Chrome,1440,900,,,,,0,801,,,,,,,,,,,,,,,,,F,146,triangle,1,0,,,2,,,,,,,,,,,,,switch,number,numSwt,j,1.0444,vtsPrac,12,0,12,0,1,,,,,,,,,,,,,,,,,,,,,,,
293635,2022-12-06_17h02.17.233,vts_reward_expectancy_bt,2022.2.4,MacIntel,60.0024001,Chrome,1440,900,,,,,0,801,,,,,,,,,,,,,,,,,B,167,star,1,0,,,2,,,,,,,,,,,,,switch,letter,lettSwt,d,1.8038,vtsPrac,13,0,13,0,1,,,,,,,,,,,,,,,,,,,,,,,
293635,2022-12-06_17h02.17.233,vts_reward_expectancy_bt,2022.2.4,MacIntel,60.0024001,Chrome,1440,900,,,,,0,801,,,,,,,,,,,,,,,,,U,174,hexagon,1,0,,,2,,,,,,,,,,,,,repeat,letter,lettRpt,f,1.6943,vtsPrac,14,0,14,0,1,,,,,,,,,,,,,,,,,,,,,,,
293635,2022-12-06_17h02.17.233,vts_reward_expectancy_bt,2022.2.4,MacIntel,60.0024001,Chrome,1440,900,,,,,0,801,,,,,,,,,,,,,,,,,W,132,star,1,0,,,2,,,,,,,,,,,,,repeat,letter,lettRpt,f,0.9469,vtsPrac,15,0,15,0,1,,,,,,,,,,,,,,,,,,,,,,,
293635,2022-12-06_17h02.17.233,vts_reward_expectancy_bt,2022.2.4,MacIntel,60.0024001,Chrome,1440,900,,,,,0,801,,,,,,,,,,,,,,,,,W,139,star,1,0,,,2,,,,,,,,,,,,,switch,number,numSwt,j,1.4935,vtsPrac,16,0,16,0,1,,,,,,,,,,,,,,,,,,,,,,,
293635,2022-12-06_17h02.17.233,vts_reward_expectancy_bt,2022.2.4,MacIntel,60.0024001,Chrome,1440,900,,,,,0,801,,,,,,,,,,,,,,,,,B,160,hexagon,1,0,,,2,,,,,,,,,,,,,switch,letter,lettSwt,d,0.9813,vtsPrac,17,0,17,0,1,,,,,,,,,,,,,,,,,,,,,,,
293635,2022-12-06_17h02.17.233,vts_reward_expectancy_bt,2022.2.4,MacIntel,60.0024001,Chrome,1440,900,,,,,0,801,,,,,,,,,,,,,,,,,F,146,circle,1,0,,,2,,,,,,,,,,,,,switch,number,numSwt,j,0.8373,vtsPrac,18,0,18,0,1,,,,,,,,,,,,,,,,,,,,,,,
293635,2022-12-06_17h02.17.233,vts_reward_expectancy_bt,2022.2.4,MacIntel,60.0024001,Chrome,1440,900,,,,,0,801,,,,,,,,,,,,,,,,,Y,174,hexagon,1,0,,,2,,,,,,,,,,,,,repeat,number,numRpt,k,0.7653,vtsPrac,19,0,19,0,1,,,,,,,,,,,,,,,,,,,,,,,
293635,2022-12-06_17h02.17.233,vts_reward_expectancy_bt,2022.2.4,MacIntel,60.0024001,Chrome,1440,900,,,,,0,801,,,,,,,,,,,,,,,,,S,125,hexagon,1,0,,,2,,,,,,,,,,,,,repeat,number,numRpt,j,0.6321,vtsPrac,20,0,20,0,1,,,,,,,,,,,,,,,,,,,,,,,
293635,2022-12-06_17h02.17.233,vts_reward_expectancy_bt,2022.2.4,MacIntel,60.0024001,Chrome,1440,900,,,,,0,801,,,,,,,,,,,,,,,,,W,132,star,1,0,,,2,,,,,,,,,,,,,repeat,number,numRpt,j,1.1543,vtsPrac,21,0,21,0,1,,,,,,,,,,,,,,,,,,,,,,,
293635,2022-12-06_17h02.17.233,vts_reward_expectancy_bt,2022.2.4,MacIntel,60.0024001,Chrome,1440,900,,,,,0,801,,,,,,,,,,,,,,,,,B,146,hexagon,1,0,,,2,,,,,,,,,,,,,switch,letter,lettSwt,d,0.5496,vtsPrac,22,0,22,0,1,,,,,,,,,,,,,,,,,,,,,,,
293635,2022-12-06_17h02.17.233,vts_reward_expectancy_bt,2022.2.4,MacIntel,60.0024001,Chrome,1440,900,,,,,0,801,,,,,,,,,,,,,,,,,U,181,star,1,0,,,2,,,,,,,,,,,,,repeat,letter,lettRpt,f,0.9446,vtsPrac,23,0,23,0,1,,,,,,,,,,,,,,,,,,,,,,,
293635,2022-12-06_17h02.17.233,vts_reward_expectancy_bt,2022.2.4,MacIntel,60.0024001,Chrome,1440,900,,,,,0,801,,,,,,,,,,,,,,,,,H,167,triangle,1,0,,,2,,,,,,,,,,,,,switch,number,numSwt,k,0.8975,vtsPrac,24,0,24,0,1,,,,,,,,,,,,,,,,,,,,,,,
293635,2022-12-06_17h02.17.233,vts_reward_expectancy_bt,2022.2.4,MacIntel,60.0024001,Chrome,1440,900,,,,,0,801,,,,,,,,,,,,,,,,,W,139,star,1,0,,,2,,,,,,,,,,,,,repeat,number,numRpt,j,0.7008,vtsPrac,25,0,25,0,1,,,,,,,,,,,,,,,,,,,,,,,
293635,2022-12-06_17h02.17.233,vts_reward_expectancy_bt,2022.2.4,MacIntel,60.0024001,Chrome,1440,900,,,,,0,801,,,,,,,,,,,,,,,,,B,132,triangle,1,0,,,2,,,,,,,,,,,,,repeat,number,numRpt,j,1.3316,vtsPrac,26,0,26,0,1,,,,,,,,,,,,,,,,,,,,,,,
293635,2022-12-06_17h02.17.233,vts_reward_expectancy_bt,2022.2.4,MacIntel,60.0024001,Chrome,1440,900,,,,,0,801,,,,,,,,,,,,,,,,,U,125,hexagon,1,0,,,2,,,,,,,,,,,,,switch,letter,lettSwt,f,1.3146,vtsPrac,27,0,27,0,1,,,,,,,,,,,,,,,,,,,,,,,
293635,2022-12-06_17h02.17.233,vts_reward_expectancy_bt,2022.2.4,MacIntel,60.0024001,Chrome,1440,900,,,,,0,801,,,,,,,,,,,,,,,,,Y,132,star,0,0,,,2,,,,,,,,,,,,,repeat,letter,NA,d,1.3316,vtsPrac,28,0,28,0,1,,,,,,,,,,,,,,,,,,,,,,,
293635,2022-12-06_17h02.17.233,vts_reward_expectancy_bt,2022.2.4,MacIntel,60.0024001,Chrome,1440,900,,,,,0,801,,,,,,,,,,,,,,,,,D,160,triangle,1,1,,,2,,,,,,,,,,,,,repeat,letter,lettRpt,d,1.5767,vtsPrac,29,0,29,0,1,,,,,,,,,,,,,,,,,,,,,,,
293635,2022-12-06_17h02.17.233,vts_reward_expectancy_bt,2022.2.4,MacIntel,60.0024001,Chrome,1440,900,,,,,0,801,,,,,,,,,,,,,,,,,B,181,circle,1,0,,,2,,,,,,,,,,,,,switch,number,numSwt,k,1.2983,vtsPrac,30,0,30,0,1,,,,,,,,,,,,,,,,,,,,,,,
293635,2022-12-06_17h02.17.233,vts_reward_expectancy_bt,2022.2.4,MacIntel,60.0024001,Chrome,1440,900,,,,,0,801,,,,,,,,,,,,,,,,,F,125,triangle,1,0,,,2,,,,,,,,,,,,,switch,letter,lettSwt,d,1.2142,vtsPrac,31,0,31,0,1,,,,,,,,,,,,,,,,,,,,,,,
293635,2022-12-06_17h02.17.233,vts_reward_expectancy_bt,2022.2.4,MacIntel,60.0024001,Chrome,1440,900,,,,,,,,,,,,,,,,,,,,,,,,,,,,,,,,,,,,,,,,,,,,,,,,,,,,,,,,,,,,,,,,,,,,,,,,,,,,
293635,2022-12-06_17h02.17.233,vts_reward_expectancy_bt,2022.2.4,MacIntel,60.0024001,Chrome,1440,900,,,,,,,,,,,,,,,,,,,,,,,,,,,,,,,,,,,,,,,,,,,,,,,,,,,,,,,,,,,,,,,,,,,,,,,,,,,,
293635,2022-12-06_17h02.17.233,vts_reward_expectancy_bt,2022.2.4,MacIntel,60.0024001,Chrome,1440,900,,,,,0,801,,,,,,,,,,,,,,,,,F,174,hexagon,1,0,,,,,,,,,,,,,,,,repeat,letter,lettRpt,d,1.0967,noRew,,,,,,0,0,0,0,0,1,,,,,,,,,,,,,,,,,
293635,2022-12-06_17h02.17.233,vts_reward_expectancy_bt,2022.2.4,MacIntel,60.0024001,Chrome,1440,900,,,,,0,801,,,,,,,,,,,,,,,,,B,160,triangle,1,0,,,,,,,,,,,,,,,,repeat,letter,lettRpt,d,1.1844,noRew,,,,,,0,1,0,1,0,1,,,,,,,,,,,,,,,,,
293635,2022-12-06_17h02.17.233,vts_reward_expectancy_bt,2022.2.4,MacIntel,60.0024001,Chrome,1440,900,,,,,0,801,,,,,,,,,,,,,,,,,Y,139,hexagon,1,0,,,,,,,,,,,,,,,,switch,number,numSwt,j,0.8724,noRew,,,,,,0,2,0,2,0,1,,,,,,,,,,,,,,,,,
293635,2022-12-06_17h02.17.233,vts_reward_expectancy_bt,2022.2.4,MacIntel,60.0024001,Chrome,1440,900,,,,,0,801,,,,,,,,,,,,,,,,,U,146,triangle,1,0,,,,,,,,,,,,,,,,repeat,number,numRpt,j,0.8845,noRew,,,,,,0,3,0,3,0,1,,,,,,,,,,,,,,,,,
293635,2022-12-06_17h02.17.233,vts_reward_expectancy_bt,2022.2.4,MacIntel,60.0024001,Chrome,1440,900,,,,,0,801,,,,,,,,,,,,,,,,,F,174,star,1,0,,,,,,,,,,,,,,,,repeat,number,numRpt,k,1.3103,noRew,,,,,,0,4,0,4,0,1,,,,,,,,,,,,,,,,,
293635,2022-12-06_17h02.17.233,vts_reward_expectancy_bt,2022.2.4,MacIntel,60.0024001,Chrome,1440,900,,,,,0,801,,,,,,,,,,,,,,,,,B,160,triangle,1,0,,,,,,,,,,,,,,,,repeat,number,numRpt,k,0.9287,noRew,,,,,,0,5,0,5,0,1,,,,,,,,,,,,,,,,,
293635,2022-12-06_17h02.17.233,vts_reward_expectancy_bt,2022.2.4,MacIntel,60.0024001,Chrome,1440,900,,,,,0,801,,,,,,,,,,,,,,,,,Y,139,triangle,1,0,,,,,,,,,,,,,,,,switch,letter,lettSwt,f,1.635,noRew,,,,,,0,6,0,6,0,1,,,,,,,,,,,,,,,,,
293635,2022-12-06_17h02.17.233,vts_reward_expectancy_bt,2022.2.4,MacIntel,60.0024001,Chrome,1440,900,,,,,0,801,,,,,,,,,,,,,,,,,U,146,hexagon,1,0,,,,,,,,,,,,,,,,switch,number,numSwt,j,1.072,noRew,,,,,,0,7,0,7,0,1,,,,,,,,,,,,,,,,,
293635,2022-12-06_17h02.17.233,vts_reward_expectancy_bt,2022.2.4,MacIntel,60.0024001,Chrome,1440,900,,,,,0,801,,,,,,,,,,,,,,,,,H,139,circle,1,0,,,,,,,,,,,,,,,,switch,letter,lettSwt,d,1.3316,noRew,,,,,,0,8,0,8,0,1,,,,,,,,,,,,,,,,,
293635,2022-12-06_17h02.17.233,vts_reward_expectancy_bt,2022.2.4,MacIntel,60.0024001,Chrome,1440,900,,,,,0,801,,,,,,,,,,,,,,,,,F,181,hexagon,1,0,,,,,,,,,,,,,,,,repeat,letter,lettRpt,d,1.0953,noRew,,,,,,0,9,0,9,0,1,,,,,,,,,,,,,,,,,
293635,2022-12-06_17h02.17.233,vts_reward_expectancy_bt,2022.2.4,MacIntel,60.0024001,Chrome,1440,900,,,,,0,801,,,,,,,,,,,,,,,,,U,125,triangle,1,0,,,,,,,,,,,,,,,,repeat,letter,lettRpt,f,1.7144,noRew,,,,,,0,10,0,10,0,1,,,,,,,,,,,,,,,,,
293635,2022-12-06_17h02.17.233,vts_reward_expectancy_bt,2022.2.4,MacIntel,60.0024001,Chrome,1440,900,,,,,0,801,,,,,,,,,,,,,,,,,S,132,star,1,0,,,,,,,,,,,,,,,,repeat,letter,lettRpt,f,1.0429,noRew,,,,,,0,11,0,11,0,1,,,,,,,,,,,,,,,,,
293635,2022-12-06_17h02.17.233,vts_reward_expectancy_bt,2022.2.4,MacIntel,60.0024001,Chrome,1440,900,,,,,0,801,,,,,,,,,,,,,,,,,S,160,circle,1,0,,,,,,,,,,,,,,,,repeat,letter,lettRpt,f,0.7793,noRew,,,,,,0,12,0,12,0,1,,,,,,,,,,,,,,,,,
293635,2022-12-06_17h02.17.233,vts_reward_expectancy_bt,2022.2.4,MacIntel,60.0024001,Chrome,1440,900,,,,,0,801,,,,,,,,,,,,,,,,,D,146,triangle,1,0,,,,,,,,,,,,,,,,switch,number,numSwt,j,0.9135,noRew,,,,,,0,13,0,13,0,1,,,,,,,,,,,,,,,,,
293635,2022-12-06_17h02.17.233,vts_reward_expectancy_bt,2022.2.4,MacIntel,60.0024001,Chrome,1440,900,,,,,0,801,,,,,,,,,,,,,,,,,H,139,triangle,1,0,,,,,,,,,,,,,,,,switch,letter,lettSwt,d,1.2639,noRew,,,,,,0,14,0,14,0,1,,,,,,,,,,,,,,,,,
293635,2022-12-06_17h02.17.233,vts_reward_expectancy_bt,2022.2.4,MacIntel,60.0024001,Chrome,1440,900,,,,,0,801,,,,,,,,,,,,,,,,,B,174,hexagon,1,0,,,,,,,,,,,,,,,,switch,number,numSwt,k,1.3137,noRew,,,,,,0,15,0,15,0,1,,,,,,,,,,,,,,,,,
293635,2022-12-06_17h02.17.233,vts_reward_expectancy_bt,2022.2.4,MacIntel,60.0024001,Chrome,1440,900,,,,,0,801,,,,,,,,,,,,,,,,,D,181,star,1,0,,,,,,,,,,,,,,,,repeat,number,numRpt,k,1.3352,noRew,,,,,,0,16,0,16,0,1,,,,,,,,,,,,,,,,,
293635,2022-12-06_17h02.17.233,vts_reward_expectancy_bt,2022.2.4,MacIntel,60.0024001,Chrome,1440,900,,,,,0,801,,,,,,,,,,,,,,,,,Y,125,circle,1,0,,,,,,,,,,,,,,,,switch,letter,lettSwt,f,1.1784,noRew,,,,,,0,17,0,17,0,1,,,,,,,,,,,,,,,,,
293635,2022-12-06_17h02.17.233,vts_reward_expectancy_bt,2022.2.4,MacIntel,60.0024001,Chrome,1440,900,,,,,0,801,,,,,,,,,,,,,,,,,S,139,triangle,1,0,,,,,,,,,,,,,,,,switch,number,numSwt,j,1.2251,noRew,,,,,,0,18,0,18,0,1,,,,,,,,,,,,,,,,,
293635,2022-12-06_17h02.17.233,vts_reward_expectancy_bt,2022.2.4,MacIntel,60.0024001,Chrome,1440,900,,,,,0,801,,,,,,,,,,,,,,,,,W,132,star,1,0,,,,,,,,,,,,,,,,switch,letter,lettSwt,f,1.0935,noRew,,,,,,0,19,0,19,0,1,,,,,,,,,,,,,,,,,
293635,2022-12-06_17h02.17.233,vts_reward_expectancy_bt,2022.2.4,MacIntel,60.0024001,Chrome,1440,900,,,,,0,801,,,,,,,,,,,,,,,,,U,174,star,1,0,,,,,,,,,,,,,,,,switch,number,numSwt,k,1.7412,noRew,,,,,,0,20,0,20,0,1,,,,,,,,,,,,,,,,,
293635,2022-12-06_17h02.17.233,vts_reward_expectancy_bt,2022.2.4,MacIntel,60.0024001,Chrome,1440,900,,,,,0,801,,,,,,,,,,,,,,,,,B,160,triangle,1,0,,,,,,,,,,,,,,,,repeat,number,numRpt,k,1.6695,noRew,,,,,,0,21,0,21,0,1,,,,,,,,,,,,,,,,,
293635,2022-12-06_17h02.17.233,vts_reward_expectancy_bt,2022.2.4,MacIntel,60.0024001,Chrome,1440,900,,,,,0,801,,,,,,,,,,,,,,,,,W,181,hexagon,1,0,,,,,,,,,,,,,,,,repeat,number,numRpt,k,0.7778,noRew,,,,,,0,22,0,22,0,1,,,,,,,,,,,,,,,,,
293635,2022-12-06_17h02.17.233,vts_reward_expectancy_bt,2022.2.4,MacIntel,60.0024001,Chrome,1440,900,,,,,0,801,,,,,,,,,,,,,,,,,S,139,star,1,0,,,,,,,,,,,,,,,,repeat,number,numRpt,j,0.8686,noRew,,,,,,0,23,0,23,0,1,,,,,,,,,,,,,,,,,
293635,2022-12-06_17h02.17.233,vts_reward_expectancy_bt,2022.2.4,MacIntel,60.0024001,Chrome,1440,900,,,,,0,801,,,,,,,,,,,,,,,,,H,167,circle,1,0,,,,,,,,,,,,,,,,switch,letter,lettSwt,d,1.7491,noRew,,,,,,0,24,0,24,0,1,,,,,,,,,,,,,,,,,
293635,2022-12-06_17h02.17.233,vts_reward_expectancy_bt,2022.2.4,MacIntel,60.0024001,Chrome,1440,900,,,,,0,801,,,,,,,,,,,,,,,,,F,125,triangle,1,0,,,,,,,,,,,,,,,,switch,number,numSwt,j,1.0732,noRew,,,,,,0,25,0,25,0,1,,,,,,,,,,,,,,,,,
293635,2022-12-06_17h02.17.233,vts_reward_expectancy_bt,2022.2.4,MacIntel,60.0024001,Chrome,1440,900,,,,,0,801,,,,,,,,,,,,,,,,,B,160,star,1,0,,,,,,,,,,,,,,,,switch,letter,lettSwt,d,0.6073,noRew,,,,,,0,26,0,26,0,1,,,,,,,,,,,,,,,,,
293635,2022-12-06_17h02.17.233,vts_reward_expectancy_bt,2022.2.4,MacIntel,60.0024001,Chrome,1440,900,,,,,0,801,,,,,,,,,,,,,,,,,Y,146,triangle,1,0,,,,,,,,,,,,,,,,switch,number,numSwt,j,1.2587,noRew,,,,,,0,27,0,27,0,1,,,,,,,,,,,,,,,,,
293635,2022-12-06_17h02.17.233,vts_reward_expectancy_bt,2022.2.4,MacIntel,60.0024001,Chrome,1440,900,,,,,0,801,,,,,,,,,,,,,,,,,D,167,circle,1,0,,,,,,,,,,,,,,,,switch,letter,lettSwt,d,2.161,noRew,,,,,,0,28,0,28,0,1,,,,,,,,,,,,,,,,,
293635,2022-12-06_17h02.17.233,vts_reward_expectancy_bt,2022.2.4,MacIntel,60.0024001,Chrome,1440,900,,,,,0,801,,,,,,,,,,,,,,,,,B,125,star,1,0,,,,,,,,,,,,,,,,repeat,letter,lettRpt,d,0.894,noRew,,,,,,0,29,0,29,0,1,,,,,,,,,,,,,,,,,
293635,2022-12-06_17h02.17.233,vts_reward_expectancy_bt,2022.2.4,MacIntel,60.0024001,Chrome,1440,900,,,,,0,801,,,,,,,,,,,,,,,,,Y,181,triangle,1,0,,,,,,,,,,,,,,,,switch,number,numSwt,k,1.2564,noRew,,,,,,0,30,0,30,0,1,,,,,,,,,,,,,,,,,
293635,2022-12-06_17h02.17.233,vts_reward_expectancy_bt,2022.2.4,MacIntel,60.0024001,Chrome,1440,900,,,,,0,801,,,,,,,,,,,,,,,,,S,160,hexagon,1,0,,,,,,,,,,,,,,,,repeat,number,numRpt,k,1.1495,noRew,,,,,,0,31,0,31,0,1,,,,,,,,,,,,,,,,,
293635,2022-12-06_17h02.17.233,vts_reward_expectancy_bt,2022.2.4,MacIntel,60.0024001,Chrome,1440,900,,,,,0,801,,,,,,,,,,,,,,,,,F,146,circle,1,0,,,,,,,,,,,,,,,,repeat,number,numRpt,j,1.6472,noRew,,,,,,0,32,0,32,0,1,,,,,,,,,,,,,,,,,
293635,2022-12-06_17h02.17.233,vts_reward_expectancy_bt,2022.2.4,MacIntel,60.0024001,Chrome,1440,900,,,,,0,801,,,,,,,,,,,,,,,,,U,139,triangle,1,0,,,,,,,,,,,,,,,,switch,letter,lettSwt,f,0.7058,noRew,,,,,,0,33,0,33,0,1,,,,,,,,,,,,,,,,,
293635,2022-12-06_17h02.17.233,vts_reward_expectancy_bt,2022.2.4,MacIntel,60.0024001,Chrome,1440,900,,,,,0,801,,,,,,,,,,,,,,,,,D,160,hexagon,1,0,,,,,,,,,,,,,,,,repeat,letter,lettRpt,d,0.897,noRew,,,,,,0,34,0,34,0,1,,,,,,,,,,,,,,,,,
293635,2022-12-06_17h02.17.233,vts_reward_expectancy_bt,2022.2.4,MacIntel,60.0024001,Chrome,1440,900,,,,,0,801,,,,,,,,,,,,,,,,,Y,132,star,1,0,,,,,,,,,,,,,,,,switch,number,numSwt,j,1.5105,noRew,,,,,,0,35,0,35,0,1,,,,,,,,,,,,,,,,,
293635,2022-12-06_17h02.17.233,vts_reward_expectancy_bt,2022.2.4,MacIntel,60.0024001,Chrome,1440,900,,,,,0,801,,,,,,,,,,,,,,,,,H,174,hexagon,1,0,,,,,,,,,,,,,,,,switch,letter,lettSwt,d,0.8255,noRew,,,,,,0,36,0,36,0,1,,,,,,,,,,,,,,,,,
293635,2022-12-06_17h02.17.233,vts_reward_expectancy_bt,2022.2.4,MacIntel,60.0024001,Chrome,1440,900,,,,,0,801,,,,,,,,,,,,,,,,,Y,139,triangle,1,0,,,,,,,,,,,,,,,,repeat,letter,lettRpt,f,1.4889,noRew,,,,,,0,37,0,37,0,1,,,,,,,,,,,,,,,,,
293635,2022-12-06_17h02.17.233,vts_reward_expectancy_bt,2022.2.4,MacIntel,60.0024001,Chrome,1440,900,,,,,0,801,,,,,,,,,,,,,,,,,D,181,triangle,1,0,,,,,,,,,,,,,,,,repeat,letter,lettRpt,d,1.3281,noRew,,,,,,0,38,0,38,0,1,,,,,,,,,,,,,,,,,
293635,2022-12-06_17h02.17.233,vts_reward_expectancy_bt,2022.2.4,MacIntel,60.0024001,Chrome,1440,900,,,,,0,801,,,,,,,,,,,,,,,,,B,132,star,1,0,,,,,,,,,,,,,,,,switch,number,numSwt,j,1.0648,noRew,,,,,,0,39,0,39,0,1,,,,,,,,,,,,,,,,,
293635,2022-12-06_17h02.17.233,vts_reward_expectancy_bt,2022.2.4,MacIntel,60.0024001,Chrome,1440,900,,,,,0,801,,,,,,,,,,,,,,,,,H,139,circle,1,0,,,,,,,,,,,,,,,,repeat,number,numRpt,j,1.377,noRew,,,,,,0,40,0,40,0,1,,,,,,,,,,,,,,,,,
293635,2022-12-06_17h02.17.233,vts_reward_expectancy_bt,2022.2.4,MacIntel,60.0024001,Chrome,1440,900,,,,,0,801,,,,,,,,,,,,,,,,,S,160,star,1,0,,,,,,,,,,,,,,,,switch,letter,lettSwt,f,2.1161,noRew,,,,,,0,41,0,41,0,1,,,,,,,,,,,,,,,,,
293635,2022-12-06_17h02.17.233,vts_reward_expectancy_bt,2022.2.4,MacIntel,60.0024001,Chrome,1440,900,,,,,0,801,,,,,,,,,,,,,,,,,D,132,circle,1,0,,,,,,,,,,,,,,,,repeat,letter,lettRpt,d,1.0199,noRew,,,,,,0,42,0,42,0,1,,,,,,,,,,,,,,,,,
293635,2022-12-06_17h02.17.233,vts_reward_expectancy_bt,2022.2.4,MacIntel,60.0024001,Chrome,1440,900,,,,,0,801,,,,,,,,,,,,,,,,,W,146,hexagon,1,0,,,,,,,,,,,,,,,,repeat,letter,lettRpt,f,0.9269,noRew,,,,,,0,43,0,43,0,1,,,,,,,,,,,,,,,,,
293635,2022-12-06_17h02.17.233,vts_reward_expectancy_bt,2022.2.4,MacIntel,60.0024001,Chrome,1440,900,,,,,0,801,,,,,,,,,,,,,,,,,U,146,star,1,0,,,,,,,,,,,,,,,,repeat,letter,lettRpt,f,1.1893,noRew,,,,,,0,44,0,44,0,1,,,,,,,,,,,,,,,,,
293635,2022-12-06_17h02.17.233,vts_reward_expectancy_bt,2022.2.4,MacIntel,60.0024001,Chrome,1440,900,,,,,0,801,,,,,,,,,,,,,,,,,S,174,circle,1,0,,,,,,,,,,,,,,,,switch,number,numSwt,k,0.8853,noRew,,,,,,0,45,0,45,0,1,,,,,,,,,,,,,,,,,
293635,2022-12-06_17h02.17.233,vts_reward_expectancy_bt,2022.2.4,MacIntel,60.0024001,Chrome,1440,900,,,,,0,801,,,,,,,,,,,,,,,,,H,132,hexagon,1,0,,,,,,,,,,,,,,,,repeat,number,numRpt,j,1.2431,noRew,,,,,,0,46,0,46,0,1,,,,,,,,,,,,,,,,,
293635,2022-12-06_17h02.17.233,vts_reward_expectancy_bt,2022.2.4,MacIntel,60.0024001,Chrome,1440,900,,,,,0,801,,,,,,,,,,,,,,,,,W,181,star,1,0,,,,,,,,,,,,,,,,repeat,number,numRpt,k,1.4448,noRew,,,,,,0,47,0,47,0,1,,,,,,,,,,,,,,,,,
293635,2022-12-06_17h02.17.233,vts_reward_expectancy_bt,2022.2.4,MacIntel,60.0024001,Chrome,1440,900,,,,,0,801,,,,,,,,,,,,,,,,,D,174,star,1,0,,,,,,,,,,,,,,,,switch,letter,lettSwt,d,1.4649,noRew,,,,,,0,48,0,48,0,1,,,,,,,,,,,,,,,,,
293635,2022-12-06_17h02.17.233,vts_reward_expectancy_bt,2022.2.4,MacIntel,60.0024001,Chrome,1440,900,,,,,0,801,,,,,,,,,,,,,,,,,S,167,circle,1,0,,,,,,,,,,,,,,,,repeat,letter,lettRpt,f,0.6429,noRew,,,,,,0,49,0,49,0,1,,,,,,,,,,,,,,,,,
293635,2022-12-06_17h02.17.233,vts_reward_expectancy_bt,2022.2.4,MacIntel,60.0024001,Chrome,1440,900,,,,,0,801,,,,,,,,,,,,,,,,,F,146,hexagon,1,0,,,,,,,,,,,,,,,,switch,number,numSwt,j,0.9973,noRew,,,,,,0,50,0,50,0,1,,,,,,,,,,,,,,,,,
293635,2022-12-06_17h02.17.233,vts_reward_expectancy_bt,2022.2.4,MacIntel,60.0024001,Chrome,1440,900,,,,,0,801,,,,,,,,,,,,,,,,,U,132,star,1,0,,,,,,,,,,,,,,,,repeat,number,numRpt,j,1.6319,noRew,,,,,,0,51,0,51,0,1,,,,,,,,,,,,,,,,,
293635,2022-12-06_17h02.17.233,vts_reward_expectancy_bt,2022.2.4,MacIntel,60.0024001,Chrome,1440,900,,,,,0,801,,,,,,,,,,,,,,,,,W,167,circle,1,0,,,,,,,,,,,,,,,,repeat,number,numRpt,k,1.1153,noRew,,,,,,0,52,0,52,0,1,,,,,,,,,,,,,,,,,
293635,2022-12-06_17h02.17.233,vts_reward_expectancy_bt,2022.2.4,MacIntel,60.0024001,Chrome,1440,900,,,,,0,801,,,,,,,,,,,,,,,,,H,139,star,1,0,,,,,,,,,,,,,,,,switch,letter,lettSwt,d,0.8747,noRew,,,,,,0,53,0,53,0,1,,,,,,,,,,,,,,,,,
293635,2022-12-06_17h02.17.233,vts_reward_expectancy_bt,2022.2.4,MacIntel,60.0024001,Chrome,1440,900,,,,,0,801,,,,,,,,,,,,,,,,,D,125,triangle,1,0,,,,,,,,,,,,,,,,switch,number,numSwt,j,1.0238,noRew,,,,,,0,54,0,54,0,1,,,,,,,,,,,,,,,,,
293635,2022-12-06_17h02.17.233,vts_reward_expectancy_bt,2022.2.4,MacIntel,60.0024001,Chrome,1440,900,,,,,0,801,,,,,,,,,,,,,,,,,F,160,circle,1,0,,,,,,,,,,,,,,,,switch,letter,lettSwt,d,1.3348,noRew,,,,,,0,55,0,55,0,1,,,,,,,,,,,,,,,,,
293635,2022-12-06_17h02.17.233,vts_reward_expectancy_bt,2022.2.4,MacIntel,60.0024001,Chrome,1440,900,,,,,0,801,,,,,,,,,,,,,,,,,U,181,circle,1,0,,,,,,,,,,,,,,,,repeat,letter,lettRpt,f,0.9271,noRew,,,,,,0,56,0,56,0,1,,,,,,,,,,,,,,,,,
293635,2022-12-06_17h02.17.233,vts_reward_expectancy_bt,2022.2.4,MacIntel,60.0024001,Chrome,1440,900,,,,,0,801,,,,,,,,,,,,,,,,,F,146,star,1,0,,,,,,,,,,,,,,,,switch,number,numSwt,j,1.089,noRew,,,,,,0,57,0,57,0,1,,,,,,,,,,,,,,,,,
293635,2022-12-06_17h02.17.233,vts_reward_expectancy_bt,2022.2.4,MacIntel,60.0024001,Chrome,1440,900,,,,,0,801,,,,,,,,,,,,,,,,,D,160,star,1,0,,,,,,,,,,,,,,,,repeat,number,numRpt,k,1.2309,noRew,,,,,,0,58,0,58,0,1,,,,,,,,,,,,,,,,,
293635,2022-12-06_17h02.17.233,vts_reward_expectancy_bt,2022.2.4,MacIntel,60.0024001,Chrome,1440,900,,,,,0,801,,,,,,,,,,,,,,,,,B,167,circle,1,0,,,,,,,,,,,,,,,,switch,letter,lettSwt,d,1.2304,noRew,,,,,,0,59,0,59,0,1,,,,,,,,,,,,,,,,,
293635,2022-12-06_17h02.17.233,vts_reward_expectancy_bt,2022.2.4,MacIntel,60.0024001,Chrome,1440,900,,,,,0,801,,,,,,,,,,,,,,,,,W,181,hexagon,1,0,,,,,,,,,,,,,,,,repeat,letter,lettRpt,f,1.6288,noRew,,,,,,0,60,0,60,0,1,,,,,,,,,,,,,,,,,
293635,2022-12-06_17h02.17.233,vts_reward_expectancy_bt,2022.2.4,MacIntel,60.0024001,Chrome,1440,900,,,,,0,801,,,,,,,,,,,,,,,,,U,146,triangle,0,0,,,,,,,,,,,,,,,,switch,number,NA,k,1.1835,noRew,,,,,,0,61,0,61,0,1,,,,,,,,,,,,,,,,,
293635,2022-12-06_17h02.17.233,vts_reward_expectancy_bt,2022.2.4,MacIntel,60.0024001,Chrome,1440,900,,,,,0,801,,,,,,,,,,,,,,,,,B,160,triangle,1,1,,,,,,,,,,,,,,,,repeat,number,numRpt,k,0.7587,noRew,,,,,,0,62,0,62,0,1,,,,,,,,,,,,,,,,,
293635,2022-12-06_17h02.17.233,vts_reward_expectancy_bt,2022.2.4,MacIntel,60.0024001,Chrome,1440,900,,,,,0,801,,,,,,,,,,,,,,,,,H,139,circle,1,0,,,,,,,,,,,,,,,,repeat,number,numRpt,j,0.9108,noRew,,,,,,0,63,0,63,0,1,,,,,,,,,,,,,,,,,
293635,2022-12-06_17h02.17.233,vts_reward_expectancy_bt,2022.2.4,MacIntel,60.0024001,Chrome,1440,900,,,,,,,,,,,,,,,,,,,,,,,,,,,,,,,,,,,,,,,,,,,,,,,,,,,,,,,,,,,,,,,,,,,,,,,,,,,,
293635,2022-12-06_17h02.17.233,vts_reward_expectancy_bt,2022.2.4,MacIntel,60.0024001,Chrome,1440,900,,,,,1,802,,,,,,,,,,,,,,,,,S,160,hexagon,1,0,,,,,,,,,,,,,,,,switch,letter,lettSwt,f,0.9816,Hi,,,,,,0,,,,,,space,5.6511,high,0,0,0,0,1,,,,,,,,,
293635,2022-12-06_17h02.17.233,vts_reward_expectancy_bt,2022.2.4,MacIntel,60.0024001,Chrome,1440,900,,,,,1,803,,,,,,,,,,,,,,,,,W,181,star,1,0,,,,,,,,,,,,,,,,repeat,letter,lettRpt,f,1.3436,Lo,,,,,,0,,,,,,,,high,1,0,1,0,1,,,,,,,,,
293635,2022-12-06_17h02.17.233,vts_reward_expectancy_bt,2022.2.4,MacIntel,60.0024001,Chrome,1440,900,,,,,1,804,,,,,,,,,,,,,,,,,Y,174,circle,1,0,,,,,,,,,,,,,,,,switch,number,numSwt,k,1.695,Lo,,,,,,0,,,,,,,,high,2,0,2,0,1,,,,,,,,,
293635,2022-12-06_17h02.17.233,vts_reward_expectancy_bt,2022.2.4,MacIntel,60.0024001,Chrome,1440,900,,,,,10,814,,,,,,,,,,,,,,,,,F,167,triangle,1,0,,,,,,,,,,,,,,,,switch,letter,lettSwt,d,1.0488,Hi,,,,,,0,,,,,,,,high,3,0,3,0,1,,,,,,,,,
293635,2022-12-06_17h02.17.233,vts_reward_expectancy_bt,2022.2.4,MacIntel,60.0024001,Chrome,1440,900,,,,,0,814,,,,,,,,,,,,,,,,,H,132,hexagon,1,0,,,,,,,,,,,,,,,,repeat,letter,lettRpt,d,1.0529,Hi,,,,,,0,,,,,,,,high,4,0,4,0,1,,,,,,,,,
293635,2022-12-06_17h02.17.233,vts_reward_expectancy_bt,2022.2.4,MacIntel,60.0024001,Chrome,1440,900,,,,,1,815,,,,,,,,,,,,,,,,,B,146,star,1,0,,,,,,,,,,,,,,,,switch,number,numSwt,j,0.6683,Lo,,,,,,0,,,,,,,,high,5,0,5,0,1,,,,,,,,,
293635,2022-12-06_17h02.17.233,vts_reward_expectancy_bt,2022.2.4,MacIntel,60.0024001,Chrome,1440,900,,,,,1,816,,,,,,,,,,,,,,,,,U,139,circle,1,0,,,,,,,,,,,,,,,,switch,letter,lettSwt,f,0.9565,Lo,,,,,,0,,,,,,,,high,6,0,6,0,1,,,,,,,,,
293635,2022-12-06_17h02.17.233,vts_reward_expectancy_bt,2022.2.4,MacIntel,60.0024001,Chrome,1440,900,,,,,1,817,,,,,,,,,,,,,,,,,D,125,triangle,1,0,,,,,,,,,,,,,,,,repeat,letter,lettRpt,d,0.5357,Hi,,,,,,0,,,,,,,,high,7,0,7,0,1,,,,,,,,,
293635,2022-12-06_17h02.17.233,vts_reward_expectancy_bt,2022.2.4,MacIntel,60.0024001,Chrome,1440,900,,,,,10,827,,,,,,,,,,,,,,,,,S,160,hexagon,1,0,,,,,,,,,,,,,,,,repeat,letter,lettRpt,f,0.7044,Hi,,,,,,0,,,,,,,,high,8,0,8,0,1,,,,,,,,,
293635,2022-12-06_17h02.17.233,vts_reward_expectancy_bt,2022.2.4,MacIntel,60.0024001,Chrome,1440,900,,,,,10,837,,,,,,,,,,,,,,,,,W,181,triangle,1,0,,,,,,,,,,,,,,,,repeat,letter,lettRpt,f,0.7835,Hi,,,,,,0,,,,,,,,high,9,0,9,0,1,,,,,,,,,
293635,2022-12-06_17h02.17.233,vts_reward_expectancy_bt,2022.2.4,MacIntel,60.0024001,Chrome,1440,900,,,,,1,838,,,,,,,,,,,,,,,,,Y,174,circle,1,0,,,,,,,,,,,,,,,,switch,number,numSwt,k,0.5704,Lo,,,,,,0,,,,,,,,high,10,0,10,0,1,,,,,,,,,
293635,2022-12-06_17h02.17.233,vts_reward_expectancy_bt,2022.2.4,MacIntel,60.0024001,Chrome,1440,900,,,,,1,839,,,,,,,,,,,,,,,,,F,167,star,1,0,,,,,,,,,,,,,,,,repeat,number,numRpt,k,0.6674,Lo,,,,,,0,,,,,,,,high,11,0,11,0,1,,,,,,,,,
293635,2022-12-06_17h02.17.233,vts_reward_expectancy_bt,2022.2.4,MacIntel,60.0024001,Chrome,1440,900,,,,,0,839,,,,,,,,,,,,,,,,,H,132,circle,0,0,,,,,,,,,,,,,,,,repeat,number,NA,k,1.6311,Lo,,,,,,0,,,,,,,,high,12,0,12,0,1,,,,,,,,,
293635,2022-12-06_17h02.17.233,vts_reward_expectancy_bt,2022.2.4,MacIntel,60.0024001,Chrome,1440,900,,,,,10,849,,,,,,,,,,,,,,,,,B,146,hexagon,1,1,,,,,,,,,,,,,,,,switch,letter,lettSwt,d,0.8093,Hi,,,,,,0,,,,,,,,high,13,0,13,0,1,,,,,,,,,
293635,2022-12-06_17h02.17.233,vts_reward_expectancy_bt,2022.2.4,MacIntel,60.0024001,Chrome,1440,900,,,,,0,849,,,,,,,,,,,,,,,,,U,139,star,0,0,,,,,,,,,,,,,,,,repeat,letter,NA,d,1.1475,Hi,,,,,,0,,,,,,,,high,14,0,14,0,1,,,,,,,,,
293635,2022-12-06_17h02.17.233,vts_reward_expectancy_bt,2022.2.4,MacIntel,60.0024001,Chrome,1440,900,,,,,10,859,,,,,,,,,,,,,,,,,D,125,triangle,1,1,,,,,,,,,,,,,,,,repeat,letter,lettRpt,d,0.8638,Hi,,,,,,0,,,,,,,,high,15,0,15,0,1,,,,,,,,,
293635,2022-12-06_17h02.17.233,vts_reward_expectancy_bt,2022.2.4,MacIntel,60.0024001,Chrome,1440,900,,,,,1,860,,,,,,,,,,,,,,,,,W,174,hexagon,1,0,,,,,,,,,,,,,,,,repeat,letter,lettRpt,f,0.6943,Hi,,,,,,0,,,,,,,,high,16,0,16,0,1,,,,,,,,,
293635,2022-12-06_17h02.17.233,vts_reward_expectancy_bt,2022.2.4,MacIntel,60.0024001,Chrome,1440,900,,,,,1,861,,,,,,,,,,,,,,,,,D,146,circle,1,0,,,,,,,,,,,,,,,,repeat,letter,lettRpt,d,0.8648,Lo,,,,,,0,,,,,,,,high,17,0,17,0,1,,,,,,,,,
293635,2022-12-06_17h02.17.233,vts_reward_expectancy_bt,2022.2.4,MacIntel,60.0024001,Chrome,1440,900,,,,,10,871,,,,,,,,,,,,,,,,,B,139,triangle,1,0,,,,,,,,,,,,,,,,repeat,letter,lettRpt,d,0.6155,Hi,,,,,,0,,,,,,,,high,18,0,18,0,1,,,,,,,,,
293635,2022-12-06_17h02.17.233,vts_reward_expectancy_bt,2022.2.4,MacIntel,60.0024001,Chrome,1440,900,,,,,1,872,,,,,,,,,,,,,,,,,H,167,star,1,0,,,,,,,,,,,,,,,,switch,number,numSwt,k,1.027,Lo,,,,,,0,,,,,,,,high,19,0,19,0,1,,,,,,,,,
293635,2022-12-06_17h02.17.233,vts_reward_expectancy_bt,2022.2.4,MacIntel,60.0024001,Chrome,1440,900,,,,,1,873,,,,,,,,,,,,,,,,,U,132,hexagon,1,0,,,,,,,,,,,,,,,,switch,letter,lettSwt,f,0.74,Hi,,,,,,0,,,,,,,,high,20,0,20,0,1,,,,,,,,,
293635,2022-12-06_17h02.17.233,vts_reward_expectancy_bt,2022.2.4,MacIntel,60.0024001,Chrome,1440,900,,,,,1,874,,,,,,,,,,,,,,,,,F,125,triangle,1,0,,,,,,,,,,,,,,,,repeat,letter,lettRpt,d,0.9066,Hi,,,,,,0,,,,,,,,high,21,0,21,0,1,,,,,,,,,
293635,2022-12-06_17h02.17.233,vts_reward_expectancy_bt,2022.2.4,MacIntel,60.0024001,Chrome,1440,900,,,,,10,884,,,,,,,,,,,,,,,,,S,160,star,1,0,,,,,,,,,,,,,,,,switch,number,numSwt,k,1.2939,Lo,,,,,,0,,,,,,,,high,22,0,22,0,1,,,,,,,,,
293635,2022-12-06_17h02.17.233,vts_reward_expectancy_bt,2022.2.4,MacIntel,60.0024001,Chrome,1440,900,,,,,1,885,,,,,,,,,,,,,,,,,Y,181,circle,1,0,,,,,,,,,,,,,,,,repeat,number,numRpt,k,1.1048,Lo,,,,,,0,,,,,,,,high,23,0,23,0,1,,,,,,,,,
293635,2022-12-06_17h02.17.233,vts_reward_expectancy_bt,2022.2.4,MacIntel,60.0024001,Chrome,1440,900,,,,,1,886,,,,,,,,,,,,,,,,,S,181,circle,1,0,,,,,,,,,,,,,,,,repeat,number,numRpt,k,0.7498,Lo,,,,,,0,,,,,,,,high,24,0,24,0,1,,,,,,,,,
293635,2022-12-06_17h02.17.233,vts_reward_expectancy_bt,2022.2.4,MacIntel,60.0024001,Chrome,1440,900,,,,,1,887,,,,,,,,,,,,,,,,,B,146,triangle,1,0,,,,,,,,,,,,,,,,repeat,number,numRpt,j,0.728,Hi,,,,,,0,,,,,,,,high,25,0,25,0,1,,,,,,,,,
293635,2022-12-06_17h02.17.233,vts_reward_expectancy_bt,2022.2.4,MacIntel,60.0024001,Chrome,1440,900,,,,,1,888,,,,,,,,,,,,,,,,,F,125,star,1,0,,,,,,,,,,,,,,,,repeat,number,numRpt,j,1.3157,Lo,,,,,,0,,,,,,,,high,26,0,26,0,1,,,,,,,,,
293635,2022-12-06_17h02.17.233,vts_reward_expectancy_bt,2022.2.4,MacIntel,60.0024001,Chrome,1440,900,,,,,10,898,,,,,,,,,,,,,,,,,W,132,hexagon,1,0,,,,,,,,,,,,,,,,switch,letter,lettSwt,f,0.8934,Hi,,,,,,0,,,,,,,,high,27,0,27,0,1,,,,,,,,,
293635,2022-12-06_17h02.17.233,vts_reward_expectancy_bt,2022.2.4,MacIntel,60.0024001,Chrome,1440,900,,,,,0,898,,,,,,,,,,,,,,,,,U,160,triangle,1,0,,,,,,,,,,,,,,,,repeat,letter,lettRpt,f,1.3809,Hi,,,,,,0,,,,,,,,high,28,0,28,0,1,,,,,,,,,
293635,2022-12-06_17h02.17.233,vts_reward_expectancy_bt,2022.2.4,MacIntel,60.0024001,Chrome,1440,900,,,,,1,899,,,,,,,,,,,,,,,,,H,167,circle,1,0,,,,,,,,,,,,,,,,switch,number,numSwt,k,1.029,Lo,,,,,,0,,,,,,,,high,29,0,29,0,1,,,,,,,,,
293635,2022-12-06_17h02.17.233,vts_reward_expectancy_bt,2022.2.4,MacIntel,60.0024001,Chrome,1440,900,,,,,10,909,,,,,,,,,,,,,,,,,D,174,hexagon,1,0,,,,,,,,,,,,,,,,switch,letter,lettSwt,d,0.6438,Hi,,,,,,0,,,,,,,,high,30,0,30,0,1,,,,,,,,,
293635,2022-12-06_17h02.17.233,vts_reward_expectancy_bt,2022.2.4,MacIntel,60.0024001,Chrome,1440,900,,,,,1,910,,,,,,,,,,,,,,,,,Y,139,star,1,0,,,,,,,,,,,,,,,,switch,number,numSwt,j,0.6817,Lo,,,,,,0,,,,,,,,high,31,0,31,0,1,,,,,,,,,
293635,2022-12-06_17h02.17.233,vts_reward_expectancy_bt,2022.2.4,MacIntel,60.0024001,Chrome,1440,900,,,,,10,920,,,,,,,,,,,,,,,,,H,167,hexagon,1,0,,,,,,,,,,,,,,,,repeat,number,numRpt,k,0.692,Hi,,,,,,1,,,,,,space,5.2549,high,0,0,0,0,1,,,,,,,,,
293635,2022-12-06_17h02.17.233,vts_reward_expectancy_bt,2022.2.4,MacIntel,60.0024001,Chrome,1440,900,,,,,10,930,,,,,,,,,,,,,,,,,U,174,triangle,1,0,,,,,,,,,,,,,,,,switch,letter,lettSwt,f,0.7489,Hi,,,,,,1,,,,,,,,high,1,0,1,0,1,,,,,,,,,
293635,2022-12-06_17h02.17.233,vts_reward_expectancy_bt,2022.2.4,MacIntel,60.0024001,Chrome,1440,900,,,,,1,931,,,,,,,,,,,,,,,,,Y,181,circle,1,0,,,,,,,,,,,,,,,,repeat,letter,lettRpt,f,0.7305,Lo,,,,,,1,,,,,,,,high,2,0,2,0,1,,,,,,,,,
293635,2022-12-06_17h02.17.233,vts_reward_expectancy_bt,2022.2.4,MacIntel,60.0024001,Chrome,1440,900,,,,,1,932,,,,,,,,,,,,,,,,,F,160,star,1,0,,,,,,,,,,,,,,,,repeat,letter,lettRpt,d,1.3614,Lo,,,,,,1,,,,,,,,high,3,0,3,0,1,,,,,,,,,
293635,2022-12-06_17h02.17.233,vts_reward_expectancy_bt,2022.2.4,MacIntel,60.0024001,Chrome,1440,900,,,,,10,942,,,,,,,,,,,,,,,,,W,139,hexagon,1,0,,,,,,,,,,,,,,,,repeat,letter,lettRpt,f,0.6276,Hi,,,,,,1,,,,,,,,high,4,0,4,0,1,,,,,,,,,
293635,2022-12-06_17h02.17.233,vts_reward_expectancy_bt,2022.2.4,MacIntel,60.0024001,Chrome,1440,900,,,,,0,942,,,,,,,,,,,,,,,,,S,132,triangle,1,0,,,,,,,,,,,,,,,,repeat,letter,lettRpt,f,0.8943,Hi,,,,,,1,,,,,,,,high,5,0,5,0,1,,,,,,,,,
293635,2022-12-06_17h02.17.233,vts_reward_expectancy_bt,2022.2.4,MacIntel,60.0024001,Chrome,1440,900,,,,,1,943,,,,,,,,,,,,,,,,,D,146,circle,1,0,,,,,,,,,,,,,,,,switch,number,numSwt,j,1.1825,Lo,,,,,,1,,,,,,,,high,6,0,6,0,1,,,,,,,,,
293635,2022-12-06_17h02.17.233,vts_reward_expectancy_bt,2022.2.4,MacIntel,60.0024001,Chrome,1440,900,,,,,1,944,,,,,,,,,,,,,,,,,B,125,star,1,0,,,,,,,,,,,,,,,,repeat,number,numRpt,j,0.8948,Lo,,,,,,1,,,,,,,,high,7,0,7,0,1,,,,,,,,,
293635,2022-12-06_17h02.17.233,vts_reward_expectancy_bt,2022.2.4,MacIntel,60.0024001,Chrome,1440,900,,,,,0,944,,,,,,,,,,,,,,,,,H,167,triangle,1,0,,,,,,,,,,,,,,,,repeat,number,numRpt,k,0.9769,Hi,,,,,,1,,,,,,,,high,8,0,8,0,1,,,,,,,,,
293635,2022-12-06_17h02.17.233,vts_reward_expectancy_bt,2022.2.4,MacIntel,60.0024001,Chrome,1440,900,,,,,1,945,,,,,,,,,,,,,,,,,U,174,star,1,0,,,,,,,,,,,,,,,,repeat,number,numRpt,k,0.544,Lo,,,,,,1,,,,,,,,high,9,0,9,0,1,,,,,,,,,
293635,2022-12-06_17h02.17.233,vts_reward_expectancy_bt,2022.2.4,MacIntel,60.0024001,Chrome,1440,900,,,,,10,955,,,,,,,,,,,,,,,,,Y,181,hexagon,1,0,,,,,,,,,,,,,,,,repeat,number,numRpt,k,0.6468,Hi,,,,,,1,,,,,,,,high,10,0,10,0,1,,,,,,,,,
293635,2022-12-06_17h02.17.233,vts_reward_expectancy_bt,2022.2.4,MacIntel,60.0024001,Chrome,1440,900,,,,,1,956,,,,,,,,,,,,,,,,,F,160,circle,1,0,,,,,,,,,,,,,,,,repeat,number,numRpt,k,0.7815,Lo,,,,,,1,,,,,,,,high,11,0,11,0,1,,,,,,,,,
293635,2022-12-06_17h02.17.233,vts_reward_expectancy_bt,2022.2.4,MacIntel,60.0024001,Chrome,1440,900,,,,,10,966,,,,,,,,,,,,,,,,,W,139,hexagon,1,0,,,,,,,,,,,,,,,,repeat,number,numRpt,j,0.6002,Hi,,,,,,1,,,,,,,,high,12,0,12,0,1,,,,,,,,,
293635,2022-12-06_17h02.17.233,vts_reward_expectancy_bt,2022.2.4,MacIntel,60.0024001,Chrome,1440,900,,,,,1,967,,,,,,,,,,,,,,,,,S,132,star,1,0,,,,,,,,,,,,,,,,repeat,number,numRpt,j,0.8338,Lo,,,,,,1,,,,,,,,high,13,0,13,0,1,,,,,,,,,
293635,2022-12-06_17h02.17.233,vts_reward_expectancy_bt,2022.2.4,MacIntel,60.0024001,Chrome,1440,900,,,,,0,967,,,,,,,,,,,,,,,,,D,146,triangle,1,0,,,,,,,,,,,,,,,,switch,letter,lettSwt,d,1.1326,Hi,,,,,,1,,,,,,,,high,14,0,14,0,1,,,,,,,,,
293635,2022-12-06_17h02.17.233,vts_reward_expectancy_bt,2022.2.4,MacIntel,60.0024001,Chrome,1440,900,,,,,10,977,,,,,,,,,,,,,,,,,B,125,circle,1,0,,,,,,,,,,,,,,,,switch,number,numSwt,j,0.8437,Lo,,,,,,1,,,,,,,,high,15,0,15,0,1,,,,,,,,,
293635,2022-12-06_17h02.17.233,vts_reward_expectancy_bt,2022.2.4,MacIntel,60.0024001,Chrome,1440,900,,,,,0,977,,,,,,,,,,,,,,,,,H,125,hexagon,1,0,,,,,,,,,,,,,,,,repeat,number,numRpt,j,0.7967,Hi,,,,,,1,,,,,,,,high,16,0,16,0,1,,,,,,,,,
293635,2022-12-06_17h02.17.233,vts_reward_expectancy_bt,2022.2.4,MacIntel,60.0024001,Chrome,1440,900,,,,,10,987,,,,,,,,,,,,,,,,,W,146,circle,1,0,,,,,,,,,,,,,,,,repeat,number,numRpt,j,0.9599,Lo,,,,,,1,,,,,,,,high,17,0,17,0,1,,,,,,,,,
293635,2022-12-06_17h02.17.233,vts_reward_expectancy_bt,2022.2.4,MacIntel,60.0024001,Chrome,1440,900,,,,,10,997,,,,,,,,,,,,,,,,,F,181,triangle,1,0,,,,,,,,,,,,,,,,repeat,number,numRpt,k,0.6957,Hi,,,,,,1,,,,,,,,high,18,0,18,0,1,,,,,,,,,
293635,2022-12-06_17h02.17.233,vts_reward_expectancy_bt,2022.2.4,MacIntel,60.0024001,Chrome,1440,900,,,,,10,1007,,,,,,,,,,,,,,,,,S,132,star,1,0,,,,,,,,,,,,,,,,repeat,number,numRpt,j,0.8955,Lo,,,,,,1,,,,,,,,high,19,0,19,0,1,,,,,,,,,
293635,2022-12-06_17h02.17.233,vts_reward_expectancy_bt,2022.2.4,MacIntel,60.0024001,Chrome,1440,900,,,,,0,1007,,,,,,,,,,,,,,,,,B,174,hexagon,1,0,,,,,,,,,,,,,,,,repeat,number,numRpt,k,0.7472,Hi,,,,,,1,,,,,,,,high,20,0,20,0,1,,,,,,,,,
293635,2022-12-06_17h02.17.233,vts_reward_expectancy_bt,2022.2.4,MacIntel,60.0024001,Chrome,1440,900,,,,,10,1017,,,,,,,,,,,,,,,,,D,160,circle,1,0,,,,,,,,,,,,,,,,repeat,number,numRpt,k,1.0563,Lo,,,,,,1,,,,,,,,high,21,0,21,0,1,,,,,,,,,
293635,2022-12-06_17h02.17.233,vts_reward_expectancy_bt,2022.2.4,MacIntel,60.0024001,Chrome,1440,900,,,,,1,1018,,,,,,,,,,,,,,,,,U,139,star,1,0,,,,,,,,,,,,,,,,repeat,number,numRpt,j,0.7627,Lo,,,,,,1,,,,,,,,high,22,0,22,0,1,,,,,,,,,
293635,2022-12-06_17h02.17.233,vts_reward_expectancy_bt,2022.2.4,MacIntel,60.0024001,Chrome,1440,900,,,,,0,1018,,,,,,,,,,,,,,,,,Y,167,triangle,1,0,,,,,,,,,,,,,,,,repeat,number,numRpt,k,0.8037,Hi,,,,,,1,,,,,,,,high,23,0,23,0,1,,,,,,,,,
293635,2022-12-06_17h02.17.233,vts_reward_expectancy_bt,2022.2.4,MacIntel,60.0024001,Chrome,1440,900,,,,,10,1028,,,,,,,,,,,,,,,,,Y,174,triangle,1,0,,,,,,,,,,,,,,,,switch,letter,lettSwt,f,0.6658,Hi,,,,,,1,,,,,,,,high,24,0,24,0,1,,,,,,,,,
293635,2022-12-06_17h02.17.233,vts_reward_expectancy_bt,2022.2.4,MacIntel,60.0024001,Chrome,1440,900,,,,,1,1029,,,,,,,,,,,,,,,,,S,167,circle,1,0,,,,,,,,,,,,,,,,switch,number,numSwt,k,0.8823,Lo,,,,,,1,,,,,,,,high,25,0,25,0,1,,,,,,,,,
293635,2022-12-06_17h02.17.233,vts_reward_expectancy_bt,2022.2.4,MacIntel,60.0024001,Chrome,1440,900,,,,,10,1039,,,,,,,,,,,,,,,,,W,160,star,1,0,,,,,,,,,,,,,,,,repeat,number,numRpt,k,0.7118,Lo,,,,,,1,,,,,,,,high,26,0,26,0,1,,,,,,,,,
293635,2022-12-06_17h02.17.233,vts_reward_expectancy_bt,2022.2.4,MacIntel,60.0024001,Chrome,1440,900,,,,,10,1049,,,,,,,,,,,,,,,,,U,139,hexagon,1,0,,,,,,,,,,,,,,,,switch,letter,lettSwt,f,0.6087,Hi,,,,,,1,,,,,,,,high,27,0,27,0,1,,,,,,,,,
293635,2022-12-06_17h02.17.233,vts_reward_expectancy_bt,2022.2.4,MacIntel,60.0024001,Chrome,1440,900,,,,,10,1059,,,,,,,,,,,,,,,,,B,146,triangle,1,0,,,,,,,,,,,,,,,,repeat,letter,lettRpt,d,0.6461,Hi,,,,,,1,,,,,,,,high,28,0,28,0,1,,,,,,,,,
293635,2022-12-06_17h02.17.233,vts_reward_expectancy_bt,2022.2.4,MacIntel,60.0024001,Chrome,1440,900,,,,,1,1060,,,,,,,,,,,,,,,,,D,125,circle,1,0,,,,,,,,,,,,,,,,repeat,letter,lettRpt,d,0.7602,Lo,,,,,,1,,,,,,,,high,29,0,29,0,1,,,,,,,,,
293635,2022-12-06_17h02.17.233,vts_reward_expectancy_bt,2022.2.4,MacIntel,60.0024001,Chrome,1440,900,,,,,1,1061,,,,,,,,,,,,,,,,,F,132,hexagon,1,0,,,,,,,,,,,,,,,,repeat,letter,lettRpt,d,0.7058,Hi,,,,,,1,,,,,,,,high,30,0,30,0,1,,,,,,,,,
293635,2022-12-06_17h02.17.233,vts_reward_expectancy_bt,2022.2.4,MacIntel,60.0024001,Chrome,1440,900,,,,,1,1062,,,,,,,,,,,,,,,,,H,181,star,1,0,,,,,,,,,,,,,,,,repeat,letter,lettRpt,d,0.652,Lo,,,,,,1,,,,,,,,high,31,0,31,0,1,,,,,,,,,
293635,2022-12-06_17h02.17.233,vts_reward_expectancy_bt,2022.2.4,MacIntel,60.0024001,Chrome,1440,900,,,,,0,1062,,,,,,,,,,,,,,,,,S,125,hexagon,1,0,,,,,,,,,,,,,,,,repeat,letter,lettRpt,f,0.712,Hi,,,,,,2,,,,,,space,5.1257,high,0,0,0,0,1,,,,,,,,,
293635,2022-12-06_17h02.17.233,vts_reward_expectancy_bt,2022.2.4,MacIntel,60.0024001,Chrome,1440,900,,,,,10,1072,,,,,,,,,,,,,,,,,D,160,triangle,1,0,,,,,,,,,,,,,,,,repeat,letter,lettRpt,d,0.5307,Hi,,,,,,2,,,,,,,,high,1,0,1,0,1,,,,,,,,,
293635,2022-12-06_17h02.17.233,vts_reward_expectancy_bt,2022.2.4,MacIntel,60.0024001,Chrome,1440,900,,,,,1,1073,,,,,,,,,,,,,,,,,H,181,circle,1,0,,,,,,,,,,,,,,,,switch,number,numSwt,k,0.457,Lo,,,,,,2,,,,,,,,high,2,0,2,0,1,,,,,,,,,
293635,2022-12-06_17h02.17.233,vts_reward_expectancy_bt,2022.2.4,MacIntel,60.0024001,Chrome,1440,900,,,,,1,1074,,,,,,,,,,,,,,,,,B,139,star,1,0,,,,,,,,,,,,,,,,repeat,number,numRpt,j,0.5846,Lo,,,,,,2,,,,,,,,high,3,0,3,0,1,,,,,,,,,
293635,2022-12-06_17h02.17.233,vts_reward_expectancy_bt,2022.2.4,MacIntel,60.0024001,Chrome,1440,900,,,,,10,1084,,,,,,,,,,,,,,,,,F,167,hexagon,1,0,,,,,,,,,,,,,,,,switch,letter,lettSwt,d,0.5854,Hi,,,,,,2,,,,,,,,high,4,0,4,0,1,,,,,,,,,
293635,2022-12-06_17h02.17.233,vts_reward_expectancy_bt,2022.2.4,MacIntel,60.0024001,Chrome,1440,900,,,,,10,1094,,,,,,,,,,,,,,,,,Y,174,triangle,1,0,,,,,,,,,,,,,,,,repeat,letter,lettRpt,f,0.4563,Hi,,,,,,2,,,,,,,,high,5,0,5,0,1,,,,,,,,,
293635,2022-12-06_17h02.17.233,vts_reward_expectancy_bt,2022.2.4,MacIntel,60.0024001,Chrome,1440,900,,,,,1,1095,,,,,,,,,,,,,,,,,U,132,circle,1,0,,,,,,,,,,,,,,,,repeat,letter,lettRpt,f,0.7406,Lo,,,,,,2,,,,,,,,high,6,0,6,0,1,,,,,,,,,
293635,2022-12-06_17h02.17.233,vts_reward_expectancy_bt,2022.2.4,MacIntel,60.0024001,Chrome,1440,900,,,,,1,1096,,,,,,,,,,,,,,,,,W,146,star,1,0,,,,,,,,,,,,,,,,switch,number,numSwt,j,1.0863,Lo,,,,,,2,,,,,,,,high,7,0,7,0,1,,,,,,,,,
293635,2022-12-06_17h02.17.233,vts_reward_expectancy_bt,2022.2.4,MacIntel,60.0024001,Chrome,1440,900,,,,,1,1097,,,,,,,,,,,,,,,,,S,125,circle,1,0,,,,,,,,,,,,,,,,switch,letter,lettSwt,f,0.8594,Lo,,,,,,2,,,,,,,,high,8,0,8,0,1,,,,,,,,,
293635,2022-12-06_17h02.17.233,vts_reward_expectancy_bt,2022.2.4,MacIntel,60.0024001,Chrome,1440,900,,,,,1,1098,,,,,,,,,,,,,,,,,D,160,star,1,0,,,,,,,,,,,,,,,,repeat,letter,lettRpt,d,0.7812,Lo,,,,,,2,,,,,,,,high,9,0,9,0,1,,,,,,,,,
293635,2022-12-06_17h02.17.233,vts_reward_expectancy_bt,2022.2.4,MacIntel,60.0024001,Chrome,1440,900,,,,,0,1098,,,,,,,,,,,,,,,,,H,181,triangle,1,0,,,,,,,,,,,,,,,,switch,number,numSwt,k,0.923,Hi,,,,,,2,,,,,,,,high,10,0,10,0,1,,,,,,,,,
293635,2022-12-06_17h02.17.233,vts_reward_expectancy_bt,2022.2.4,MacIntel,60.0024001,Chrome,1440,900,,,,,1,1099,,,,,,,,,,,,,,,,,B,139,hexagon,1,0,,,,,,,,,,,,,,,,repeat,number,numRpt,j,0.7118,Hi,,,,,,2,,,,,,,,high,11,0,11,0,1,,,,,,,,,
293635,2022-12-06_17h02.17.233,vts_reward_expectancy_bt,2022.2.4,MacIntel,60.0024001,Chrome,1440,900,,,,,10,1109,,,,,,,,,,,,,,,,,F,167,hexagon,1,0,,,,,,,,,,,,,,,,repeat,number,numRpt,k,0.6,Hi,,,,,,2,,,,,,,,high,12,0,12,0,1,,,,,,,,,
293635,2022-12-06_17h02.17.233,vts_reward_expectancy_bt,2022.2.4,MacIntel,60.0024001,Chrome,1440,900,,,,,10,1119,,,,,,,,,,,,,,,,,Y,174,circle,1,0,,,,,,,,,,,,,,,,switch,letter,lettSwt,f,0.5635,Lo,,,,,,2,,,,,,,,high,13,0,13,0,1,,,,,,,,,
293635,2022-12-06_17h02.17.233,vts_reward_expectancy_bt,2022.2.4,MacIntel,60.0024001,Chrome,1440,900,,,,,10,1129,,,,,,,,,,,,,,,,,U,132,star,1,0,,,,,,,,,,,,,,,,repeat,letter,lettRpt,f,0.6481,Lo,,,,,,2,,,,,,,,high,14,0,14,0,1,,,,,,,,,
293635,2022-12-06_17h02.17.233,vts_reward_expectancy_bt,2022.2.4,MacIntel,60.0024001,Chrome,1440,900,,,,,10,1139,,,,,,,,,,,,,,,,,W,146,triangle,1,0,,,,,,,,,,,,,,,,switch,number,numSwt,j,0.5141,Hi,,,,,,2,,,,,,,,high,15,0,15,0,1,,,,,,,,,
293635,2022-12-06_17h02.17.233,vts_reward_expectancy_bt,2022.2.4,MacIntel,60.0024001,Chrome,1440,900,,,,,1,1140,,,,,,,,,,,,,,,,,W,174,star,1,0,,,,,,,,,,,,,,,,repeat,number,numRpt,k,0.466,Lo,,,,,,2,,,,,,,,high,16,0,16,0,1,,,,,,,,,
293635,2022-12-06_17h02.17.233,vts_reward_expectancy_bt,2022.2.4,MacIntel,60.0024001,Chrome,1440,900,,,,,1,1141,,,,,,,,,,,,,,,,,Y,160,circle,1,0,,,,,,,,,,,,,,,,repeat,number,numRpt,k,0.7078,Lo,,,,,,2,,,,,,,,high,17,0,17,0,1,,,,,,,,,
293635,2022-12-06_17h02.17.233,vts_reward_expectancy_bt,2022.2.4,MacIntel,60.0024001,Chrome,1440,900,,,,,10,1151,,,,,,,,,,,,,,,,,U,132,hexagon,1,0,,,,,,,,,,,,,,,,switch,letter,lettSwt,f,0.4328,Hi,,,,,,2,,,,,,,,high,18,0,18,0,1,,,,,,,,,
293635,2022-12-06_17h02.17.233,vts_reward_expectancy_bt,2022.2.4,MacIntel,60.0024001,Chrome,1440,900,,,,,10,1161,,,,,,,,,,,,,,,,,D,146,triangle,1,0,,,,,,,,,,,,,,,,repeat,letter,lettRpt,d,0.4284,Hi,,,,,,2,,,,,,,,high,19,0,19,0,1,,,,,,,,,
293635,2022-12-06_17h02.17.233,vts_reward_expectancy_bt,2022.2.4,MacIntel,60.0024001,Chrome,1440,900,,,,,10,1171,,,,,,,,,,,,,,,,,B,125,hexagon,1,0,,,,,,,,,,,,,,,,switch,number,numSwt,j,0.5314,Hi,,,,,,2,,,,,,,,high,20,0,20,0,1,,,,,,,,,
293635,2022-12-06_17h02.17.233,vts_reward_expectancy_bt,2022.2.4,MacIntel,60.0024001,Chrome,1440,900,,,,,1,1172,,,,,,,,,,,,,,,,,S,139,star,1,0,,,,,,,,,,,,,,,,switch,letter,lettSwt,f,0.4183,Lo,,,,,,2,,,,,,,,high,21,0,21,0,1,,,,,,,,,
293635,2022-12-06_17h02.17.233,vts_reward_expectancy_bt,2022.2.4,MacIntel,60.0024001,Chrome,1440,900,,,,,1,1173,,,,,,,,,,,,,,,,,H,181,triangle,1,0,,,,,,,,,,,,,,,,repeat,letter,lettRpt,d,0.498,Hi,,,,,,2,,,,,,,,high,22,0,22,0,1,,,,,,,,,
293635,2022-12-06_17h02.17.233,vts_reward_expectancy_bt,2022.2.4,MacIntel,60.0024001,Chrome,1440,900,,,,,0,1173,,,,,,,,,,,,,,,,,F,167,circle,0,0,,,,,,,,,,,,,,,,repeat,letter,NA,f,0.665,Hi,,,,,,2,,,,,,,,high,23,0,23,0,1,,,,,,,,,
293635,2022-12-06_17h02.17.233,vts_reward_expectancy_bt,2022.2.4,MacIntel,60.0024001,Chrome,1440,900,,,,,1,1174,,,,,,,,,,,,,,,,,S,132,circle,1,1,,,,,,,,,,,,,,,,repeat,letter,lettRpt,f,0.5936,Lo,,,,,,2,,,,,,,,high,24,0,24,0,1,,,,,,,,,
293635,2022-12-06_17h02.17.233,vts_reward_expectancy_bt,2022.2.4,MacIntel,60.0024001,Chrome,1440,900,,,,,10,1184,,,,,,,,,,,,,,,,,Y,146,hexagon,1,0,,,,,,,,,,,,,,,,repeat,letter,lettRpt,f,0.4932,Hi,,,,,,2,,,,,,,,high,25,0,25,0,1,,,,,,,,,
293635,2022-12-06_17h02.17.233,vts_reward_expectancy_bt,2022.2.4,MacIntel,60.0024001,Chrome,1440,900,,,,,10,1194,,,,,,,,,,,,,,,,,D,160,star,1,0,,,,,,,,,,,,,,,,switch,number,numSwt,k,0.5805,Lo,,,,,,2,,,,,,,,high,26,0,26,0,1,,,,,,,,,
293635,2022-12-06_17h02.17.233,vts_reward_expectancy_bt,2022.2.4,MacIntel,60.0024001,Chrome,1440,900,,,,,10,1204,,,,,,,,,,,,,,,,,B,181,triangle,1,0,,,,,,,,,,,,,,,,switch,letter,lettSwt,d,0.5779,Hi,,,,,,2,,,,,,,,high,27,0,27,0,1,,,,,,,,,
293635,2022-12-06_17h02.17.233,vts_reward_expectancy_bt,2022.2.4,MacIntel,60.0024001,Chrome,1440,900,,,,,0,1204,,,,,,,,,,,,,,,,,F,167,star,0,0,,,,,,,,,,,,,,,,repeat,letter,NA,f,0.4589,Hi,,,,,,2,,,,,,,,high,28,0,28,0,1,,,,,,,,,
293635,2022-12-06_17h02.17.233,vts_reward_expectancy_bt,2022.2.4,MacIntel,60.0024001,Chrome,1440,900,,,,,10,1214,,,,,,,,,,,,,,,,,W,125,triangle,1,1,,,,,,,,,,,,,,,,repeat,letter,lettRpt,f,0.6443,Hi,,,,,,2,,,,,,,,high,29,0,29,0,1,,,,,,,,,
293635,2022-12-06_17h02.17.233,vts_reward_expectancy_bt,2022.2.4,MacIntel,60.0024001,Chrome,1440,900,,,,,10,1224,,,,,,,,,,,,,,,,,H,174,hexagon,1,0,,,,,,,,,,,,,,,,switch,number,numSwt,k,0.6825,Hi,,,,,,2,,,,,,,,high,30,0,30,0,1,,,,,,,,,
293635,2022-12-06_17h02.17.233,vts_reward_expectancy_bt,2022.2.4,MacIntel,60.0024001,Chrome,1440,900,,,,,10,1234,,,,,,,,,,,,,,,,,U,139,circle,1,0,,,,,,,,,,,,,,,,switch,letter,lettSwt,f,0.7497,Lo,,,,,,2,,,,,,,,high,31,0,31,0,1,,,,,,,,,
293635,2022-12-06_17h02.17.233,vts_reward_expectancy_bt,2022.2.4,MacIntel,60.0024001,Chrome,1440,900,,,,,1,1235,,,,,,,,,,,,,,,,,H,125,star,1,0,,,,,,,,,,,,,,,,switch,number,numSwt,j,0.5808,Lo,,,,,,3,,,,,,space,1.7254,high,0,0,0,0,1,,,,,,,,,
293635,2022-12-06_17h02.17.233,vts_reward_expectancy_bt,2022.2.4,MacIntel,60.0024001,Chrome,1440,900,,,,,1,1236,,,,,,,,,,,,,,,,,W,167,circle,1,0,,,,,,,,,,,,,,,,switch,letter,lettSwt,f,0.6118,Lo,,,,,,3,,,,,,,,high,1,0,1,0,1,,,,,,,,,
293635,2022-12-06_17h02.17.233,vts_reward_expectancy_bt,2022.2.4,MacIntel,60.0024001,Chrome,1440,900,,,,,0,1236,,,,,,,,,,,,,,,,,D,132,triangle,1,0,,,,,,,,,,,,,,,,switch,number,numSwt,j,0.6455,Hi,,,,,,3,,,,,,,,high,2,0,2,0,1,,,,,,,,,
293635,2022-12-06_17h02.17.233,vts_reward_expectancy_bt,2022.2.4,MacIntel,60.0024001,Chrome,1440,900,,,,,10,1246,,,,,,,,,,,,,,,,,U,174,hexagon,1,0,,,,,,,,,,,,,,,,repeat,number,numRpt,k,0.4045,Hi,,,,,,3,,,,,,,,high,3,0,3,0,1,,,,,,,,,
293635,2022-12-06_17h02.17.233,vts_reward_expectancy_bt,2022.2.4,MacIntel,60.0024001,Chrome,1440,900,,,,,10,1256,,,,,,,,,,,,,,,,,Y,146,star,1,0,,,,,,,,,,,,,,,,switch,letter,lettSwt,f,0.4272,Lo,,,,,,3,,,,,,,,high,4,0,4,0,1,,,,,,,,,
293635,2022-12-06_17h02.17.233,vts_reward_expectancy_bt,2022.2.4,MacIntel,60.0024001,Chrome,1440,900,,,,,10,1266,,,,,,,,,,,,,,,,,B,160,circle,1,0,,,,,,,,,,,,,,,,repeat,letter,lettRpt,d,0.4552,Lo,,,,,,3,,,,,,,,high,5,0,5,0,1,,,,,,,,,
293635,2022-12-06_17h02.17.233,vts_reward_expectancy_bt,2022.2.4,MacIntel,60.0024001,Chrome,1440,900,,,,,0,1266,,,,,,,,,,,,,,,,,S,181,triangle,1,0,,,,,,,,,,,,,,,,switch,number,numSwt,k,0.561,Hi,,,,,,3,,,,,,,,high,6,0,6,0,1,,,,,,,,,
293635,2022-12-06_17h02.17.233,vts_reward_expectancy_bt,2022.2.4,MacIntel,60.0024001,Chrome,1440,900,,,,,10,1276,,,,,,,,,,,,,,,,,F,139,hexagon,1,0,,,,,,,,,,,,,,,,repeat,number,numRpt,j,0.4975,Hi,,,,,,3,,,,,,,,high,7,0,7,0,1,,,,,,,,,
293635,2022-12-06_17h02.17.233,vts_reward_expectancy_bt,2022.2.4,MacIntel,60.0024001,Chrome,1440,900,,,,,10,1286,,,,,,,,,,,,,,,,,H,125,hexagon,1,0,,,,,,,,,,,,,,,,repeat,number,numRpt,j,0.4654,Hi,,,,,,3,,,,,,,,high,8,0,8,0,1,,,,,,,,,
293635,2022-12-06_17h02.17.233,vts_reward_expectancy_bt,2022.2.4,MacIntel,60.0024001,Chrome,1440,900,,,,,10,1296,,,,,,,,,,,,,,,,,W,167,star,1,0,,,,,,,,,,,,,,,,switch,letter,lettSwt,f,0.3947,Lo,,,,,,3,,,,,,,,high,9,0,9,0,1,,,,,,,,,
293635,2022-12-06_17h02.17.233,vts_reward_expectancy_bt,2022.2.4,MacIntel,60.0024001,Chrome,1440,900,,,,,10,1306,,,,,,,,,,,,,,,,,D,132,triangle,1,0,,,,,,,,,,,,,,,,switch,number,numSwt,j,0.5114,Hi,,,,,,3,,,,,,,,high,10,0,10,0,1,,,,,,,,,
293635,2022-12-06_17h02.17.233,vts_reward_expectancy_bt,2022.2.4,MacIntel,60.0024001,Chrome,1440,900,,,,,1,1307,,,,,,,,,,,,,,,,,U,174,circle,1,0,,,,,,,,,,,,,,,,repeat,number,numRpt,k,0.5338,Lo,,,,,,3,,,,,,,,high,11,0,11,0,1,,,,,,,,,
293635,2022-12-06_17h02.17.233,vts_reward_expectancy_bt,2022.2.4,MacIntel,60.0024001,Chrome,1440,900,,,,,1,1308,,,,,,,,,,,,,,,,,Y,146,circle,1,0,,,,,,,,,,,,,,,,repeat,number,numRpt,j,0.5134,Lo,,,,,,3,,,,,,,,high,12,0,12,0,1,,,,,,,,,
293635,2022-12-06_17h02.17.233,vts_reward_expectancy_bt,2022.2.4,MacIntel,60.0024001,Chrome,1440,900,,,,,1,1309,,,,,,,,,,,,,,,,,B,160,star,1,0,,,,,,,,,,,,,,,,repeat,number,numRpt,k,0.4644,Lo,,,,,,3,,,,,,,,high,13,0,13,0,1,,,,,,,,,
293635,2022-12-06_17h02.17.233,vts_reward_expectancy_bt,2022.2.4,MacIntel,60.0024001,Chrome,1440,900,,,,,10,1319,,,,,,,,,,,,,,,,,S,181,triangle,1,0,,,,,,,,,,,,,,,,repeat,number,numRpt,k,0.5516,Hi,,,,,,3,,,,,,,,high,14,0,14,0,1,,,,,,,,,
293635,2022-12-06_17h02.17.233,vts_reward_expectancy_bt,2022.2.4,MacIntel,60.0024001,Chrome,1440,900,,,,,10,1329,,,,,,,,,,,,,,,,,F,139,hexagon,1,0,,,,,,,,,,,,,,,,repeat,number,numRpt,j,0.4814,Hi,,,,,,3,,,,,,,,high,15,0,15,0,1,,,,,,,,,
293635,2022-12-06_17h02.17.233,vts_reward_expectancy_bt,2022.2.4,MacIntel,60.0024001,Chrome,1440,900,,,,,10,1339,,,,,,,,,,,,,,,,,B,174,triangle,1,0,,,,,,,,,,,,,,,,switch,letter,lettSwt,d,0.5055,Hi,,,,,,3,,,,,,,,high,16,0,16,0,1,,,,,,,,,
293635,2022-12-06_17h02.17.233,vts_reward_expectancy_bt,2022.2.4,MacIntel,60.0024001,Chrome,1440,900,,,,,0,1339,,,,,,,,,,,,,,,,,Y,132,hexagon,1,0,,,,,,,,,,,,,,,,switch,number,numSwt,j,0.5802,Hi,,,,,,3,,,,,,,,high,17,0,17,0,1,,,,,,,,,
293635,2022-12-06_17h02.17.233,vts_reward_expectancy_bt,2022.2.4,MacIntel,60.0024001,Chrome,1440,900,,,,,0,1339,,,,,,,,,,,,,,,,,S,125,circle,0,0,,,,,,,,,,,,,,,,repeat,number,NA,k,0.8937,Hi,,,,,,3,,,,,,,,high,18,0,18,0,1,,,,,,,,,
293635,2022-12-06_17h02.17.233,vts_reward_expectancy_bt,2022.2.4,MacIntel,60.0024001,Chrome,1440,900,,,,,1,1340,,,,,,,,,,,,,,,,,W,181,star,1,1,,,,,,,,,,,,,,,,repeat,number,numRpt,k,0.6846,Lo,,,,,,3,,,,,,,,high,19,0,19,0,1,,,,,,,,,
293635,2022-12-06_17h02.17.233,vts_reward_expectancy_bt,2022.2.4,MacIntel,60.0024001,Chrome,1440,900,,,,,10,1350,,,,,,,,,,,,,,,,,H,160,star,1,0,,,,,,,,,,,,,,,,repeat,number,numRpt,k,0.7214,Lo,,,,,,3,,,,,,,,high,20,0,20,0,1,,,,,,,,,
293635,2022-12-06_17h02.17.233,vts_reward_expectancy_bt,2022.2.4,MacIntel,60.0024001,Chrome,1440,900,,,,,1,1351,,,,,,,,,,,,,,,,,U,167,circle,1,0,,,,,,,,,,,,,,,,switch,letter,lettSwt,f,0.5194,Lo,,,,,,3,,,,,,,,high,21,0,21,0,1,,,,,,,,,
293635,2022-12-06_17h02.17.233,vts_reward_expectancy_bt,2022.2.4,MacIntel,60.0024001,Chrome,1440,900,,,,,0,1351,,,,,,,,,,,,,,,,,F,139,triangle,1,0,,,,,,,,,,,,,,,,repeat,letter,lettRpt,d,0.6571,Hi,,,,,,3,,,,,,,,high,22,0,22,0,1,,,,,,,,,
293635,2022-12-06_17h02.17.233,vts_reward_expectancy_bt,2022.2.4,MacIntel,60.0024001,Chrome,1440,900,,,,,0,1351,,,,,,,,,,,,,,,,,D,146,hexagon,1,0,,,,,,,,,,,,,,,,repeat,letter,lettRpt,d,0.5773,Hi,,,,,,3,,,,,,,,high,23,0,23,0,1,,,,,,,,,
293635,2022-12-06_17h02.17.233,vts_reward_expectancy_bt,2022.2.4,MacIntel,60.0024001,Chrome,1440,900,,,,,1,1352,,,,,,,,,,,,,,,,,Y,146,hexagon,1,0,,,,,,,,,,,,,,,,repeat,letter,lettRpt,f,0.4399,Hi,,,,,,3,,,,,,,,high,24,0,24,0,1,,,,,,,,,
293635,2022-12-06_17h02.17.233,vts_reward_expectancy_bt,2022.2.4,MacIntel,60.0024001,Chrome,1440,900,,,,,1,1353,,,,,,,,,,,,,,,,,B,139,circle,1,0,,,,,,,,,,,,,,,,switch,number,numSwt,j,0.5223,Lo,,,,,,3,,,,,,,,high,25,0,25,0,1,,,,,,,,,
293635,2022-12-06_17h02.17.233,vts_reward_expectancy_bt,2022.2.4,MacIntel,60.0024001,Chrome,1440,900,,,,,1,1354,,,,,,,,,,,,,,,,,S,167,star,1,0,,,,,,,,,,,,,,,,repeat,number,numRpt,k,0.4822,Lo,,,,,,3,,,,,,,,high,26,0,26,0,1,,,,,,,,,
293635,2022-12-06_17h02.17.233,vts_reward_expectancy_bt,2022.2.4,MacIntel,60.0024001,Chrome,1440,900,,,,,0,1354,,,,,,,,,,,,,,,,,W,160,triangle,1,0,,,,,,,,,,,,,,,,switch,letter,lettSwt,f,0.7713,Hi,,,,,,3,,,,,,,,high,27,0,27,0,1,,,,,,,,,
293635,2022-12-06_17h02.17.233,vts_reward_expectancy_bt,2022.2.4,MacIntel,60.0024001,Chrome,1440,900,,,,,1,1355,,,,,,,,,,,,,,,,,D,181,circle,1,0,,,,,,,,,,,,,,,,repeat,letter,lettRpt,d,0.4061,Lo,,,,,,3,,,,,,,,high,28,0,28,0,1,,,,,,,,,
293635,2022-12-06_17h02.17.233,vts_reward_expectancy_bt,2022.2.4,MacIntel,60.0024001,Chrome,1440,900,,,,,1,1356,,,,,,,,,,,,,,,,,H,132,hexagon,1,0,,,,,,,,,,,,,,,,repeat,letter,lettRpt,d,0.4981,Hi,,,,,,3,,,,,,,,high,29,0,29,0,1,,,,,,,,,
293635,2022-12-06_17h02.17.233,vts_reward_expectancy_bt,2022.2.4,MacIntel,60.0024001,Chrome,1440,900,,,,,1,1357,,,,,,,,,,,,,,,,,U,174,triangle,1,0,,,,,,,,,,,,,,,,switch,number,numSwt,k,0.4544,Hi,,,,,,3,,,,,,,,high,30,0,30,0,1,,,,,,,,,
293635,2022-12-06_17h02.17.233,vts_reward_expectancy_bt,2022.2.4,MacIntel,60.0024001,Chrome,1440,900,,,,,0,1357,,,,,,,,,,,,,,,,,F,125,star,0,0,,,,,,,,,,,,,,,,switch,letter,NA,f,0.6142,Hi,,,,,,3,,,,,,,,high,31,0,31,0,1,,,,,,,,,
293635,2022-12-06_17h02.17.233,vts_reward_expectancy_bt,2022.2.4,MacIntel,60.0024001,Chrome,1440,900,,,,,1,1358,,,,,,,,,,,,,,,,,H,174,star,1,1,,,,,,,,,,,,,,,,switch,number,numSwt,k,0.5762,Lo,,,,,,4,,,,,,space,3.9793,high,0,0,0,0,1,,,,,,,,,
293635,2022-12-06_17h02.17.233,vts_reward_expectancy_bt,2022.2.4,MacIntel,60.0024001,Chrome,1440,900,,,,,10,1368,,,,,,,,,,,,,,,,,W,132,triangle,1,0,,,,,,,,,,,,,,,,repeat,number,numRpt,j,0.4806,Hi,,,,,,4,,,,,,,,high,1,0,1,0,1,,,,,,,,,
293635,2022-12-06_17h02.17.233,vts_reward_expectancy_bt,2022.2.4,MacIntel,60.0024001,Chrome,1440,900,,,,,0,1368,,,,,,,,,,,,,,,,,U,167,hexagon,1,0,,,,,,,,,,,,,,,,switch,letter,lettSwt,f,0.6465,Hi,,,,,,4,,,,,,,,high,2,0,2,0,1,,,,,,,,,
293635,2022-12-06_17h02.17.233,vts_reward_expectancy_bt,2022.2.4,MacIntel,60.0024001,Chrome,1440,900,,,,,1,1369,,,,,,,,,,,,,,,,,S,181,circle,1,0,,,,,,,,,,,,,,,,repeat,letter,lettRpt,f,0.5798,Lo,,,,,,4,,,,,,,,high,3,0,3,0,1,,,,,,,,,
293635,2022-12-06_17h02.17.233,vts_reward_expectancy_bt,2022.2.4,MacIntel,60.0024001,Chrome,1440,900,,,,,1,1370,,,,,,,,,,,,,,,,,B,160,star,1,0,,,,,,,,,,,,,,,,repeat,letter,lettRpt,d,0.6072,Lo,,,,,,4,,,,,,,,high,4,0,4,0,1,,,,,,,,,
293635,2022-12-06_17h02.17.233,vts_reward_expectancy_bt,2022.2.4,MacIntel,60.0024001,Chrome,1440,900,,,,,0,1370,,,,,,,,,,,,,,,,,Y,146,triangle,1,0,,,,,,,,,,,,,,,,repeat,letter,lettRpt,f,0.514,Hi,,,,,,4,,,,,,,,high,5,0,5,0,1,,,,,,,,,
293635,2022-12-06_17h02.17.233,vts_reward_expectancy_bt,2022.2.4,MacIntel,60.0024001,Chrome,1440,900,,,,,0,1370,,,,,,,,,,,,,,,,,F,125,hexagon,0,0,,,,,,,,,,,,,,,,repeat,letter,NA,f,0.4644,Hi,,,,,,4,,,,,,,,high,6,0,6,0,1,,,,,,,,,
293635,2022-12-06_17h02.17.233,vts_reward_expectancy_bt,2022.2.4,MacIntel,60.0024001,Chrome,1440,900,,,,,1,1371,,,,,,,,,,,,,,,,,D,139,circle,1,1,,,,,,,,,,,,,,,,repeat,letter,lettRpt,d,0.688,Lo,,,,,,4,,,,,,,,high,7,0,7,0,1,,,,,,,,,
293635,2022-12-06_17h02.17.233,vts_reward_expectancy_bt,2022.2.4,MacIntel,60.0024001,Chrome,1440,900,,,,,1,1372,,,,,,,,,,,,,,,,,H,174,circle,1,0,,,,,,,,,,,,,,,,switch,number,numSwt,k,0.4207,Lo,,,,,,4,,,,,,,,high,8,0,8,0,1,,,,,,,,,
293635,2022-12-06_17h02.17.233,vts_reward_expectancy_bt,2022.2.4,MacIntel,60.0024001,Chrome,1440,900,,,,,0,1372,,,,,,,,,,,,,,,,,W,132,triangle,1,0,,,,,,,,,,,,,,,,switch,letter,lettSwt,f,0.5794,Hi,,,,,,4,,,,,,,,high,9,0,9,0,1,,,,,,,,,
293635,2022-12-06_17h02.17.233,vts_reward_expectancy_bt,2022.2.4,MacIntel,60.0024001,Chrome,1440,900,,,,,1,1373,,,,,,,,,,,,,,,,,U,167,star,1,0,,,,,,,,,,,,,,,,repeat,letter,lettRpt,f,0.529,Lo,,,,,,4,,,,,,,,high,10,0,10,0,1,,,,,,,,,
293635,2022-12-06_17h02.17.233,vts_reward_expectancy_bt,2022.2.4,MacIntel,60.0024001,Chrome,1440,900,,,,,0,1373,,,,,,,,,,,,,,,,,S,181,hexagon,0,0,,,,,,,,,,,,,,,,repeat,letter,NA,d,0.4387,Lo,,,,,,4,,,,,,,,high,11,0,11,0,1,,,,,,,,,
293635,2022-12-06_17h02.17.233,vts_reward_expectancy_bt,2022.2.4,MacIntel,60.0024001,Chrome,1440,900,,,,,1,1374,,,,,,,,,,,,,,,,,B,160,star,1,1,,,,,,,,,,,,,,,,repeat,letter,lettRpt,d,0.6792,Lo,,,,,,4,,,,,,,,high,12,0,12,0,1,,,,,,,,,
293635,2022-12-06_17h02.17.233,vts_reward_expectancy_bt,2022.2.4,MacIntel,60.0024001,Chrome,1440,900,,,,,0,1374,,,,,,,,,,,,,,,,,Y,146,triangle,1,0,,,,,,,,,,,,,,,,repeat,letter,lettRpt,f,0.5399,Hi,,,,,,4,,,,,,,,high,13,0,13,0,1,,,,,,,,,
293635,2022-12-06_17h02.17.233,vts_reward_expectancy_bt,2022.2.4,MacIntel,60.0024001,Chrome,1440,900,,,,,0,1374,,,,,,,,,,,,,,,,,F,125,hexagon,0,0,,,,,,,,,,,,,,,,repeat,letter,NA,f,0.517,Hi,,,,,,4,,,,,,,,high,14,0,14,0,1,,,,,,,,,
293635,2022-12-06_17h02.17.233,vts_reward_expectancy_bt,2022.2.4,MacIntel,60.0024001,Chrome,1440,900,,,,,1,1375,,,,,,,,,,,,,,,,,D,139,circle,1,1,,,,,,,,,,,,,,,,repeat,letter,lettRpt,d,0.4948,Lo,,,,,,4,,,,,,,,high,15,0,15,0,1,,,,,,,,,
293635,2022-12-06_17h02.17.233,vts_reward_expectancy_bt,2022.2.4,MacIntel,60.0024001,Chrome,1440,900,,,,,10,1385,,,,,,,,,,,,,,,,,D,160,triangle,1,0,,,,,,,,,,,,,,,,repeat,letter,lettRpt,d,0.4273,Hi,,,,,,4,,,,,,,,high,16,0,16,0,1,,,,,,,,,
293635,2022-12-06_17h02.17.233,vts_reward_expectancy_bt,2022.2.4,MacIntel,60.0024001,Chrome,1440,900,,,,,0,1385,,,,,,,,,,,,,,,,,U,146,hexagon,0,0,,,,,,,,,,,,,,,,repeat,letter,NA,d,0.4276,Hi,,,,,,4,,,,,,,,high,17,0,17,0,1,,,,,,,,,
293635,2022-12-06_17h02.17.233,vts_reward_expectancy_bt,2022.2.4,MacIntel,60.0024001,Chrome,1440,900,,,,,10,1395,,,,,,,,,,,,,,,,,Y,132,star,1,1,,,,,,,,,,,,,,,,switch,number,numSwt,j,0.5504,Lo,,,,,,4,,,,,,,,high,18,0,18,0,1,,,,,,,,,
293635,2022-12-06_17h02.17.233,vts_reward_expectancy_bt,2022.2.4,MacIntel,60.0024001,Chrome,1440,900,,,,,1,1396,,,,,,,,,,,,,,,,,B,167,circle,1,0,,,,,,,,,,,,,,,,switch,letter,lettSwt,d,0.4989,Lo,,,,,,4,,,,,,,,high,19,0,19,0,1,,,,,,,,,
293635,2022-12-06_17h02.17.233,vts_reward_expectancy_bt,2022.2.4,MacIntel,60.0024001,Chrome,1440,900,,,,,1,1397,,,,,,,,,,,,,,,,,H,139,circle,1,0,,,,,,,,,,,,,,,,repeat,letter,lettRpt,d,0.596,Lo,,,,,,4,,,,,,,,high,20,0,20,0,1,,,,,,,,,
293635,2022-12-06_17h02.17.233,vts_reward_expectancy_bt,2022.2.4,MacIntel,60.0024001,Chrome,1440,900,,,,,10,1407,,,,,,,,,,,,,,,,,S,181,star,1,0,,,,,,,,,,,,,,,,switch,number,numSwt,k,0.4486,Lo,,,,,,4,,,,,,,,high,21,0,21,0,1,,,,,,,,,
293635,2022-12-06_17h02.17.233,vts_reward_expectancy_bt,2022.2.4,MacIntel,60.0024001,Chrome,1440,900,,,,,0,1407,,,,,,,,,,,,,,,,,F,174,hexagon,1,0,,,,,,,,,,,,,,,,repeat,number,numRpt,k,0.5797,Hi,,,,,,4,,,,,,,,high,22,0,22,0,1,,,,,,,,,
293635,2022-12-06_17h02.17.233,vts_reward_expectancy_bt,2022.2.4,MacIntel,60.0024001,Chrome,1440,900,,,,,10,1417,,,,,,,,,,,,,,,,,W,125,triangle,1,0,,,,,,,,,,,,,,,,repeat,number,numRpt,j,0.4497,Hi,,,,,,4,,,,,,,,high,23,0,23,0,1,,,,,,,,,
293635,2022-12-06_17h02.17.233,vts_reward_expectancy_bt,2022.2.4,MacIntel,60.0024001,Chrome,1440,900,,,,,1,1418,,,,,,,,,,,,,,,,,Y,181,star,1,0,,,,,,,,,,,,,,,,repeat,number,numRpt,k,0.6029,Lo,,,,,,4,,,,,,,,high,24,0,24,0,1,,,,,,,,,
293635,2022-12-06_17h02.17.233,vts_reward_expectancy_bt,2022.2.4,MacIntel,60.0024001,Chrome,1440,900,,,,,0,1418,,,,,,,,,,,,,,,,,F,167,hexagon,1,0,,,,,,,,,,,,,,,,repeat,number,numRpt,k,0.791,Hi,,,,,,4,,,,,,,,high,25,0,25,0,1,,,,,,,,,
293635,2022-12-06_17h02.17.233,vts_reward_expectancy_bt,2022.2.4,MacIntel,60.0024001,Chrome,1440,900,,,,,1,1419,,,,,,,,,,,,,,,,,W,146,circle,1,0,,,,,,,,,,,,,,,,switch,letter,lettSwt,f,0.4439,Lo,,,,,,4,,,,,,,,high,26,0,26,0,1,,,,,,,,,
293635,2022-12-06_17h02.17.233,vts_reward_expectancy_bt,2022.2.4,MacIntel,60.0024001,Chrome,1440,900,,,,,0,1419,,,,,,,,,,,,,,,,,B,139,triangle,1,0,,,,,,,,,,,,,,,,repeat,letter,lettRpt,d,0.5328,Hi,,,,,,4,,,,,,,,high,27,0,27,0,1,,,,,,,,,
293635,2022-12-06_17h02.17.233,vts_reward_expectancy_bt,2022.2.4,MacIntel,60.0024001,Chrome,1440,900,,,,,0,1419,,,,,,,,,,,,,,,,,H,125,circle,0,0,,,,,,,,,,,,,,,,repeat,letter,NA,f,0.4779,Hi,,,,,,4,,,,,,,,high,28,0,28,0,1,,,,,,,,,
293635,2022-12-06_17h02.17.233,vts_reward_expectancy_bt,2022.2.4,MacIntel,60.0024001,Chrome,1440,900,,,,,1,1420,,,,,,,,,,,,,,,,,D,132,star,1,1,,,,,,,,,,,,,,,,repeat,letter,lettRpt,d,0.5036,Lo,,,,,,4,,,,,,,,high,29,0,29,0,1,,,,,,,,,
293635,2022-12-06_17h02.17.233,vts_reward_expectancy_bt,2022.2.4,MacIntel,60.0024001,Chrome,1440,900,,,,,1,1421,,,,,,,,,,,,,,,,,S,160,triangle,1,0,,,,,,,,,,,,,,,,switch,number,numSwt,k,0.5187,Hi,,,,,,4,,,,,,,,high,30,0,30,0,1,,,,,,,,,
293635,2022-12-06_17h02.17.233,vts_reward_expectancy_bt,2022.2.4,MacIntel,60.0024001,Chrome,1440,900,,,,,10,1431,,,,,,,,,,,,,,,,,U,174,hexagon,1,0,,,,,,,,,,,,,,,,repeat,number,numRpt,k,0.4773,Hi,,,,,,4,,,,,,,,high,31,0,31,0,1,,,,,,,,,
293635,2022-12-06_17h02.17.233,vts_reward_expectancy_bt,2022.2.4,MacIntel,60.0024001,Chrome,1440,900,,,,,0,1431,,,,,,,,,,,,,,,,,U,125,star,0,0,,,,,,,,,,,,,,,,repeat,number,NA,k,0.6868,Hi,,,,,,5,,,,,,space,1.9194,high,0,0,0,0,1,,,,,,,,,
293635,2022-12-06_17h02.17.233,vts_reward_expectancy_bt,2022.2.4,MacIntel,60.0024001,Chrome,1440,900,,,,,10,1441,,,,,,,,,,,,,,,,,F,146,circle,1,1,,,,,,,,,,,,,,,,repeat,number,numRpt,j,0.6295,Lo,,,,,,5,,,,,,,,high,1,0,1,0,1,,,,,,,,,
293635,2022-12-06_17h02.17.233,vts_reward_expectancy_bt,2022.2.4,MacIntel,60.0024001,Chrome,1440,900,,,,,0,1441,,,,,,,,,,,,,,,,,H,139,hexagon,0,0,,,,,,,,,,,,,,,,repeat,number,NA,k,0.5766,Lo,,,,,,5,,,,,,,,high,2,0,2,0,1,,,,,,,,,
293635,2022-12-06_17h02.17.233,vts_reward_expectancy_bt,2022.2.4,MacIntel,60.0024001,Chrome,1440,900,,,,,10,1451,,,,,,,,,,,,,,,,,B,181,triangle,1,1,,,,,,,,,,,,,,,,repeat,number,numRpt,k,0.4446,Hi,,,,,,5,,,,,,,,high,3,0,3,0,1,,,,,,,,,
293635,2022-12-06_17h02.17.233,vts_reward_expectancy_bt,2022.2.4,MacIntel,60.0024001,Chrome,1440,900,,,,,1,1452,,,,,,,,,,,,,,,,,Y,160,star,1,0,,,,,,,,,,,,,,,,repeat,number,numRpt,k,0.6141,Lo,,,,,,5,,,,,,,,high,4,0,4,0,1,,,,,,,,,
293635,2022-12-06_17h02.17.233,vts_reward_expectancy_bt,2022.2.4,MacIntel,60.0024001,Chrome,1440,900,,,,,1,1453,,,,,,,,,,,,,,,,,D,174,circle,1,0,,,,,,,,,,,,,,,,switch,letter,lettSwt,d,0.5474,Lo,,,,,,5,,,,,,,,high,5,0,5,0,1,,,,,,,,,
293635,2022-12-06_17h02.17.233,vts_reward_expectancy_bt,2022.2.4,MacIntel,60.0024001,Chrome,1440,900,,,,,0,1453,,,,,,,,,,,,,,,,,W,132,hexagon,1,0,,,,,,,,,,,,,,,,switch,number,numSwt,j,0.5933,Hi,,,,,,5,,,,,,,,high,6,0,6,0,1,,,,,,,,,
293635,2022-12-06_17h02.17.233,vts_reward_expectancy_bt,2022.2.4,MacIntel,60.0024001,Chrome,1440,900,,,,,0,1453,,,,,,,,,,,,,,,,,S,167,triangle,1,0,,,,,,,,,,,,,,,,repeat,number,numRpt,k,0.5305,Hi,,,,,,5,,,,,,,,high,7,0,7,0,1,,,,,,,,,
293635,2022-12-06_17h02.17.233,vts_reward_expectancy_bt,2022.2.4,MacIntel,60.0024001,Chrome,1440,900,,,,,10,1463,,,,,,,,,,,,,,,,,U,125,star,1,0,,,,,,,,,,,,,,,,switch,letter,lettSwt,f,0.5442,Lo,,,,,,5,,,,,,,,high,8,0,8,0,1,,,,,,,,,
293635,2022-12-06_17h02.17.233,vts_reward_expectancy_bt,2022.2.4,MacIntel,60.0024001,Chrome,1440,900,,,,,0,1463,,,,,,,,,,,,,,,,,F,146,triangle,1,0,,,,,,,,,,,,,,,,switch,number,numSwt,j,0.5655,Hi,,,,,,5,,,,,,,,high,9,0,9,0,1,,,,,,,,,
293635,2022-12-06_17h02.17.233,vts_reward_expectancy_bt,2022.2.4,MacIntel,60.0024001,Chrome,1440,900,,,,,0,1463,,,,,,,,,,,,,,,,,H,139,hexagon,1,0,,,,,,,,,,,,,,,,repeat,number,numRpt,j,0.516,Hi,,,,,,5,,,,,,,,high,10,0,10,0,1,,,,,,,,,
293635,2022-12-06_17h02.17.233,vts_reward_expectancy_bt,2022.2.4,MacIntel,60.0024001,Chrome,1440,900,,,,,1,1464,,,,,,,,,,,,,,,,,B,181,circle,1,0,,,,,,,,,,,,,,,,repeat,number,numRpt,k,0.4479,Lo,,,,,,5,,,,,,,,high,11,0,11,0,1,,,,,,,,,
293635,2022-12-06_17h02.17.233,vts_reward_expectancy_bt,2022.2.4,MacIntel,60.0024001,Chrome,1440,900,,,,,10,1474,,,,,,,,,,,,,,,,,Y,160,hexagon,1,0,,,,,,,,,,,,,,,,repeat,number,numRpt,k,0.4719,Hi,,,,,,5,,,,,,,,high,12,0,12,0,1,,,,,,,,,
293635,2022-12-06_17h02.17.233,vts_reward_expectancy_bt,2022.2.4,MacIntel,60.0024001,Chrome,1440,900,,,,,0,1474,,,,,,,,,,,,,,,,,D,174,triangle,0,0,,,,,,,,,,,,,,,,switch,letter,NA,f,0.3915,Hi,,,,,,5,,,,,,,,high,13,0,13,0,1,,,,,,,,,
293635,2022-12-06_17h02.17.233,vts_reward_expectancy_bt,2022.2.4,MacIntel,60.0024001,Chrome,1440,900,,,,,1,1475,,,,,,,,,,,,,,,,,W,132,star,1,1,,,,,,,,,,,,,,,,repeat,letter,lettRpt,f,0.444,Lo,,,,,,5,,,,,,,,high,14,0,14,0,1,,,,,,,,,
293635,2022-12-06_17h02.17.233,vts_reward_expectancy_bt,2022.2.4,MacIntel,60.0024001,Chrome,1440,900,,,,,1,1476,,,,,,,,,,,,,,,,,S,167,circle,1,0,,,,,,,,,,,,,,,,switch,number,numSwt,k,0.3612,Lo,,,,,,5,,,,,,,,high,15,0,15,0,1,,,,,,,,,
293635,2022-12-06_17h02.17.233,vts_reward_expectancy_bt,2022.2.4,MacIntel,60.0024001,Chrome,1440,900,,,,,0,1476,,,,,,,,,,,,,,,,,W,146,circle,0,0,,,,,,,,,,,,,,,,repeat,number,NA,k,0.445,Lo,,,,,,5,,,,,,,,high,16,0,16,0,1,,,,,,,,,
293635,2022-12-06_17h02.17.233,vts_reward_expectancy_bt,2022.2.4,MacIntel,60.0024001,Chrome,1440,900,,,,,1,1477,,,,,,,,,,,,,,,,,H,132,star,1,1,,,,,,,,,,,,,,,,repeat,number,numRpt,j,0.481,Lo,,,,,,5,,,,,,,,high,17,0,17,0,1,,,,,,,,,
293635,2022-12-06_17h02.17.233,vts_reward_expectancy_bt,2022.2.4,MacIntel,60.0024001,Chrome,1440,900,,,,,1,1478,,,,,,,,,,,,,,,,,S,181,triangle,1,0,,,,,,,,,,,,,,,,repeat,number,numRpt,k,0.4132,Hi,,,,,,5,,,,,,,,high,18,0,18,0,1,,,,,,,,,
293635,2022-12-06_17h02.17.233,vts_reward_expectancy_bt,2022.2.4,MacIntel,60.0024001,Chrome,1440,900,,,,,0,1478,,,,,,,,,,,,,,,,,F,160,hexagon,1,0,,,,,,,,,,,,,,,,repeat,number,numRpt,k,0.577,Hi,,,,,,5,,,,,,,,high,19,0,19,0,1,,,,,,,,,
293635,2022-12-06_17h02.17.233,vts_reward_expectancy_bt,2022.2.4,MacIntel,60.0024001,Chrome,1440,900,,,,,10,1488,,,,,,,,,,,,,,,,,B,174,hexagon,1,0,,,,,,,,,,,,,,,,repeat,number,numRpt,k,0.4794,Hi,,,,,,5,,,,,,,,high,20,0,20,0,1,,,,,,,,,
293635,2022-12-06_17h02.17.233,vts_reward_expectancy_bt,2022.2.4,MacIntel,60.0024001,Chrome,1440,900,,,,,0,1488,,,,,,,,,,,,,,,,,Y,125,triangle,1,0,,,,,,,,,,,,,,,,switch,letter,lettSwt,f,0.5155,Hi,,,,,,5,,,,,,,,high,21,0,21,0,1,,,,,,,,,
293635,2022-12-06_17h02.17.233,vts_reward_expectancy_bt,2022.2.4,MacIntel,60.0024001,Chrome,1440,900,,,,,1,1489,,,,,,,,,,,,,,,,,D,139,circle,1,0,,,,,,,,,,,,,,,,repeat,letter,lettRpt,d,0.3822,Lo,,,,,,5,,,,,,,,high,22,0,22,0,1,,,,,,,,,
293635,2022-12-06_17h02.17.233,vts_reward_expectancy_bt,2022.2.4,MacIntel,60.0024001,Chrome,1440,900,,,,,10,1499,,,,,,,,,,,,,,,,,U,167,star,1,0,,,,,,,,,,,,,,,,repeat,letter,lettRpt,f,0.4812,Lo,,,,,,5,,,,,,,,high,23,0,23,0,1,,,,,,,,,
293635,2022-12-06_17h02.17.233,vts_reward_expectancy_bt,2022.2.4,MacIntel,60.0024001,Chrome,1440,900,,,,,0,1499,,,,,,,,,,,,,,,,,S,125,hexagon,1,0,,,,,,,,,,,,,,,,switch,number,numSwt,j,0.5478,Hi,,,,,,5,,,,,,,,high,24,0,24,0,1,,,,,,,,,
293635,2022-12-06_17h02.17.233,vts_reward_expectancy_bt,2022.2.4,MacIntel,60.0024001,Chrome,1440,900,,,,,0,1499,,,,,,,,,,,,,,,,,W,132,triangle,0,0,,,,,,,,,,,,,,,,repeat,number,NA,k,0.467,Hi,,,,,,5,,,,,,,,high,25,0,25,0,1,,,,,,,,,
293635,2022-12-06_17h02.17.233,vts_reward_expectancy_bt,2022.2.4,MacIntel,60.0024001,Chrome,1440,900,,,,,10,1509,,,,,,,,,,,,,,,,,B,146,star,1,1,,,,,,,,,,,,,,,,repeat,number,numRpt,j,0.5901,Lo,,,,,,5,,,,,,,,high,26,0,26,0,1,,,,,,,,,
293635,2022-12-06_17h02.17.233,vts_reward_expectancy_bt,2022.2.4,MacIntel,60.0024001,Chrome,1440,900,,,,,1,1510,,,,,,,,,,,,,,,,,H,160,circle,1,0,,,,,,,,,,,,,,,,switch,letter,lettSwt,d,0.4808,Lo,,,,,,5,,,,,,,,high,27,0,27,0,1,,,,,,,,,
293635,2022-12-06_17h02.17.233,vts_reward_expectancy_bt,2022.2.4,MacIntel,60.0024001,Chrome,1440,900,,,,,10,1520,,,,,,,,,,,,,,,,,D,181,hexagon,1,0,,,,,,,,,,,,,,,,switch,number,numSwt,k,0.4675,Hi,,,,,,5,,,,,,,,high,28,0,28,0,1,,,,,,,,,
293635,2022-12-06_17h02.17.233,vts_reward_expectancy_bt,2022.2.4,MacIntel,60.0024001,Chrome,1440,900,,,,,1,1521,,,,,,,,,,,,,,,,,Y,167,star,1,0,,,,,,,,,,,,,,,,repeat,number,numRpt,k,0.5478,Lo,,,,,,5,,,,,,,,high,29,0,29,0,1,,,,,,,,,
293635,2022-12-06_17h02.17.233,vts_reward_expectancy_bt,2022.2.4,MacIntel,60.0024001,Chrome,1440,900,,,,,0,1521,,,,,,,,,,,,,,,,,F,139,triangle,1,0,,,,,,,,,,,,,,,,repeat,number,numRpt,j,0.512,Hi,,,,,,5,,,,,,,,high,30,0,30,0,1,,,,,,,,,
293635,2022-12-06_17h02.17.233,vts_reward_expectancy_bt,2022.2.4,MacIntel,60.0024001,Chrome,1440,900,,,,,1,1522,,,,,,,,,,,,,,,,,U,174,circle,1,0,,,,,,,,,,,,,,,,repeat,number,numRpt,k,0.5701,Lo,,,,,,5,,,,,,,,high,31,0,31,0,1,,,,,,,,,
293635,2022-12-06_17h02.17.233,vts_reward_expectancy_bt,2022.2.4,MacIntel,60.0024001,Chrome,1440,900,,,,,0,1522,,,,,,,,,,,,,,,,,Y,181,hexagon,0,0,,,,,,,,,,,,,,,,repeat,number,NA,j,0.9027,Lo,,,,,,6,,,,,,space,1.6048,high,0,0,0,0,1,,,,,,,,,
293635,2022-12-06_17h02.17.233,vts_reward_expectancy_bt,2022.2.4,MacIntel,60.0024001,Chrome,1440,900,,,,,1,1523,,,,,,,,,,,,,,,,,H,125,triangle,1,1,,,,,,,,,,,,,,,,switch,letter,lettSwt,d,0.4029,Hi,,,,,,6,,,,,,,,high,1,0,1,0,1,,,,,,,,,
293635,2022-12-06_17h02.17.233,vts_reward_expectancy_bt,2022.2.4,MacIntel,60.0024001,Chrome,1440,900,,,,,1,1524,,,,,,,,,,,,,,,,,W,146,star,1,0,,,,,,,,,,,,,,,,switch,number,numSwt,j,0.5276,Lo,,,,,,6,,,,,,,,high,2,0,2,0,1,,,,,,,,,
293635,2022-12-06_17h02.17.233,vts_reward_expectancy_bt,2022.2.4,MacIntel,60.0024001,Chrome,1440,900,,,,,1,1525,,,,,,,,,,,,,,,,,F,167,circle,1,0,,,,,,,,,,,,,,,,switch,letter,lettSwt,d,0.5614,Lo,,,,,,6,,,,,,,,high,3,0,3,0,1,,,,,,,,,
293635,2022-12-06_17h02.17.233,vts_reward_expectancy_bt,2022.2.4,MacIntel,60.0024001,Chrome,1440,900,,,,,0,1525,,,,,,,,,,,,,,,,,D,139,hexagon,1,0,,,,,,,,,,,,,,,,switch,number,numSwt,j,0.5306,Hi,,,,,,6,,,,,,,,high,4,0,4,0,1,,,,,,,,,
293635,2022-12-06_17h02.17.233,vts_reward_expectancy_bt,2022.2.4,MacIntel,60.0024001,Chrome,1440,900,,,,,0,1525,,,,,,,,,,,,,,,,,B,174,triangle,1,0,,,,,,,,,,,,,,,,repeat,number,numRpt,k,0.5169,Hi,,,,,,6,,,,,,,,high,5,0,5,0,1,,,,,,,,,
293635,2022-12-06_17h02.17.233,vts_reward_expectancy_bt,2022.2.4,MacIntel,60.0024001,Chrome,1440,900,,,,,10,1535,,,,,,,,,,,,,,,,,U,160,star,1,0,,,,,,,,,,,,,,,,repeat,number,numRpt,k,0.573,Lo,,,,,,6,,,,,,,,high,6,0,6,0,1,,,,,,,,,
293635,2022-12-06_17h02.17.233,vts_reward_expectancy_bt,2022.2.4,MacIntel,60.0024001,Chrome,1440,900,,,,,0,1535,,,,,,,,,,,,,,,,,S,132,circle,0,0,,,,,,,,,,,,,,,,switch,letter,NA,d,0.4787,Lo,,,,,,6,,,,,,,,high,7,0,7,0,1,,,,,,,,,
293635,2022-12-06_17h02.17.233,vts_reward_expectancy_bt,2022.2.4,MacIntel,60.0024001,Chrome,1440,900,,,,,1,1536,,,,,,,,,,,,,,,,,Y,181,circle,1,1,,,,,,,,,,,,,,,,switch,number,numSwt,k,0.464,Lo,,,,,,6,,,,,,,,high,8,0,8,0,1,,,,,,,,,
293635,2022-12-06_17h02.17.233,vts_reward_expectancy_bt,2022.2.4,MacIntel,60.0024001,Chrome,1440,900,,,,,0,1536,,,,,,,,,,,,,,,,,H,125,hexagon,1,0,,,,,,,,,,,,,,,,switch,letter,lettSwt,d,0.5438,Hi,,,,,,6,,,,,,,,high,9,0,9,0,1,,,,,,,,,
293635,2022-12-06_17h02.17.233,vts_reward_expectancy_bt,2022.2.4,MacIntel,60.0024001,Chrome,1440,900,,,,,10,1546,,,,,,,,,,,,,,,,,W,146,star,1,0,,,,,,,,,,,,,,,,repeat,letter,lettRpt,f,0.3953,Lo,,,,,,6,,,,,,,,high,10,0,10,0,1,,,,,,,,,
293635,2022-12-06_17h02.17.233,vts_reward_expectancy_bt,2022.2.4,MacIntel,60.0024001,Chrome,1440,900,,,,,10,1556,,,,,,,,,,,,,,,,,F,167,triangle,1,0,,,,,,,,,,,,,,,,switch,number,numSwt,k,0.4643,Hi,,,,,,6,,,,,,,,high,11,0,11,0,1,,,,,,,,,
