participant,date,expName,psychopyVersion,OS,frameRate,browser,xResolution,yResolution,key_resp.keys,key_resp.rt,training_resp.keys,training_resp.rt,points_trial,points_cumul,trainBlock,training.thisRepN,training.thisTrialN,training.thisN,training.thisIndex,training.ran,LTriangleOpac,LCircleOpac,LHexagonOpac,LStarOpac,RTriangleOpac,RCircleOpac,RHexagonOpac,RStarOpac,LShape_ID,RShape_ID,curr_topStim,curr_bottStim,curr_shape,acc,E1,target_resp_prac1.keys,target_resp_prac1.rt,pracBlock,task1_prac_trials.thisRepN,task1_prac_trials.thisTrialN,task1_prac_trials.thisN,task1_prac_trials.thisIndex,task1_prac_trials.ran,target_resp_prac2.keys,target_resp_prac2.rt,task2_praac_trials.thisRepN,task2_praac_trials.thisTrialN,task2_praac_trials.thisN,task2_praac_trials.thisIndex,task2_praac_trials.ran,alt,task,condition,target_resp.keys,target_resp.rt,rewCond,vts_practice_trials.thisRepN,vts_practice_trials.thisTrialN,vts_practice_trials.thisN,vts_practice_trials.thisIndex,vts_practice_trials.ran,blockNum,trials_norew.thisRepN,trials_norew.thisTrialN,trials_norew.thisN,trials_norew.thisIndex,trials_norew.ran,key_resp_2.keys,key_resp_2.rt,rewExpectancy,trials_rew.thisRepN,trials_rew.thisTrialN,trials_rew.thisN,trials_rew.thisIndex,trials_rew.ran,Q1,Q2,Q2_text,Q3,Q4,Q5,Q5_text,xRes,yRes
293791,2022-11-15_21h04.50.808,vts_reward_expectancy_bt,2022.2.4,Win32,144.092219,Firefox,2560,1440,,,,,,,,,,,,,,,,,,,,,,,,,,,,,,,,,,,,,,,,,,,,,,,,,,,,,,,,,,,,,,,,,,,,,,,,,,,,
293791,2022-11-15_21h04.50.808,vts_reward_expectancy_bt,2022.2.4,Win32,144.092219,Firefox,2560,1440,space,32.986,,,,,,,,,,,,,,,,,,,,,,,,,,,,,,,,,,,,,,,,,,,,,,,,,,,,,,,,,,,,,,,,,,,,,,,,,,
293791,2022-11-15_21h04.50.808,vts_reward_expectancy_bt,2022.2.4,Win32,144.092219,Firefox,2560,1440,,,,,,,,,,,,,,,,,,,,,,,,,,,,,,,,,,,,,,,,,,,,,,,,,,,,,,,,,,,,,,,,,,,,,,,,,,,,
293791,2022-11-15_21h04.50.808,vts_reward_expectancy_bt,2022.2.4,Win32,144.092219,Firefox,2560,1440,,,l,4.152,1,1,0,0,0,0,2,1,1,0,0,0,0,0,0,1,triangle,star,,,,,,,,,,,,,,,,,,,,,,,,,,,,,,,,,,,,,,,,,,,,,,,,,,,,,,
293791,2022-11-15_21h04.50.808,vts_reward_expectancy_bt,2022.2.4,Win32,144.092219,Firefox,2560,1440,,,l,1.322,10,11,0,0,1,1,9,1,0,0,0,1,1,0,0,0,star,triangle,,,,,,,,,,,,,,,,,,,,,,,,,,,,,,,,,,,,,,,,,,,,,,,,,,,,,,
293791,2022-11-15_21h04.50.808,vts_reward_expectancy_bt,2022.2.4,Win32,144.092219,Firefox,2560,1440,,,l,1.307,10,21,0,0,2,2,11,1,0,0,0,1,0,0,1,0,star,hexagon,,,,,,,,,,,,,,,,,,,,,,,,,,,,,,,,,,,,,,,,,,,,,,,,,,,,,,
293791,2022-11-15_21h04.50.808,vts_reward_expectancy_bt,2022.2.4,Win32,144.092219,Firefox,2560,1440,,,a,0.716,1,22,0,0,3,3,8,1,0,0,1,0,0,0,0,1,hexagon,star,,,,,,,,,,,,,,,,,,,,,,,,,,,,,,,,,,,,,,,,,,,,,,,,,,,,,,
293791,2022-11-15_21h04.50.808,vts_reward_expectancy_bt,2022.2.4,Win32,144.092219,Firefox,2560,1440,,,a,2.115,10,32,0,0,4,4,0,1,1,0,0,0,0,1,0,0,triangle,circle,,,,,,,,,,,,,,,,,,,,,,,,,,,,,,,,,,,,,,,,,,,,,,,,,,,,,,
293791,2022-11-15_21h04.50.808,vts_reward_expectancy_bt,2022.2.4,Win32,144.092219,Firefox,2560,1440,,,a,0.71,10,42,0,0,5,5,1,1,1,0,0,0,0,0,1,0,triangle,hexagon,,,,,,,,,,,,,,,,,,,,,,,,,,,,,,,,,,,,,,,,,,,,,,,,,,,,,,
293791,2022-11-15_21h04.50.808,vts_reward_expectancy_bt,2022.2.4,Win32,144.092219,Firefox,2560,1440,,,a,1.884,10,52,0,0,6,6,7,1,0,0,1,0,0,1,0,0,hexagon,circle,,,,,,,,,,,,,,,,,,,,,,,,,,,,,,,,,,,,,,,,,,,,,,,,,,,,,,
293791,2022-11-15_21h04.50.808,vts_reward_expectancy_bt,2022.2.4,Win32,144.092219,Firefox,2560,1440,,,l,0.678,10,62,0,0,7,7,4,1,0,1,0,0,0,0,1,0,circle,hexagon,,,,,,,,,,,,,,,,,,,,,,,,,,,,,,,,,,,,,,,,,,,,,,,,,,,,,,
293791,2022-11-15_21h04.50.808,vts_reward_expectancy_bt,2022.2.4,Win32,144.092219,Firefox,2560,1440,,,l,0.863,1,63,0,0,8,8,5,1,0,1,0,0,0,0,0,1,circle,star,,,,,,,,,,,,,,,,,,,,,,,,,,,,,,,,,,,,,,,,,,,,,,,,,,,,,,
293791,2022-11-15_21h04.50.808,vts_reward_expectancy_bt,2022.2.4,Win32,144.092219,Firefox,2560,1440,,,l,0.992,1,64,0,0,9,9,10,1,0,0,0,1,0,1,0,0,star ,circle,,,,,,,,,,,,,,,,,,,,,,,,,,,,,,,,,,,,,,,,,,,,,,,,,,,,,,
293791,2022-11-15_21h04.50.808,vts_reward_expectancy_bt,2022.2.4,Win32,144.092219,Firefox,2560,1440,,,l,0.842,10,74,0,0,10,10,3,1,0,1,0,0,1,0,0,0,circle,triangle,,,,,,,,,,,,,,,,,,,,,,,,,,,,,,,,,,,,,,,,,,,,,,,,,,,,,,
293791,2022-11-15_21h04.50.808,vts_reward_expectancy_bt,2022.2.4,Win32,144.092219,Firefox,2560,1440,,,l,0.643,1,75,0,0,11,11,6,1,0,0,1,0,1,0,0,0,hexagon,triangle,,,,,,,,,,,,,,,,,,,,,,,,,,,,,,,,,,,,,,,,,,,,,,,,,,,,,,
293791,2022-11-15_21h04.50.808,vts_reward_expectancy_bt,2022.2.4,Win32,144.092219,Firefox,2560,1440,,,a,0.584,10,85,0,1,0,12,2,1,1,0,0,0,0,0,0,1,triangle,star,,,,,,,,,,,,,,,,,,,,,,,,,,,,,,,,,,,,,,,,,,,,,,,,,,,,,,
293791,2022-11-15_21h04.50.808,vts_reward_expectancy_bt,2022.2.4,Win32,144.092219,Firefox,2560,1440,,,a,0.85,10,95,0,1,1,13,6,1,0,0,1,0,1,0,0,0,hexagon,triangle,,,,,,,,,,,,,,,,,,,,,,,,,,,,,,,,,,,,,,,,,,,,,,,,,,,,,,
293791,2022-11-15_21h04.50.808,vts_reward_expectancy_bt,2022.2.4,Win32,144.092219,Firefox,2560,1440,,,l,0.916,1,96,0,1,2,14,5,1,0,1,0,0,0,0,0,1,circle,star,,,,,,,,,,,,,,,,,,,,,,,,,,,,,,,,,,,,,,,,,,,,,,,,,,,,,,
293791,2022-11-15_21h04.50.808,vts_reward_expectancy_bt,2022.2.4,Win32,144.092219,Firefox,2560,1440,,,a,0.441,10,106,0,1,3,15,9,1,0,0,0,1,1,0,0,0,star,triangle,,,,,,,,,,,,,,,,,,,,,,,,,,,,,,,,,,,,,,,,,,,,,,,,,,,,,,
293791,2022-11-15_21h04.50.808,vts_reward_expectancy_bt,2022.2.4,Win32,144.092219,Firefox,2560,1440,,,l,0.627,1,107,0,1,4,16,8,1,0,0,1,0,0,0,0,1,hexagon,star,,,,,,,,,,,,,,,,,,,,,,,,,,,,,,,,,,,,,,,,,,,,,,,,,,,,,,
293791,2022-11-15_21h04.50.808,vts_reward_expectancy_bt,2022.2.4,Win32,144.092219,Firefox,2560,1440,,,a,0.585,1,108,0,1,5,17,11,1,0,0,0,1,0,0,1,0,star,hexagon,,,,,,,,,,,,,,,,,,,,,,,,,,,,,,,,,,,,,,,,,,,,,,,,,,,,,,
293791,2022-11-15_21h04.50.808,vts_reward_expectancy_bt,2022.2.4,Win32,144.092219,Firefox,2560,1440,,,a,0.604,10,118,0,1,6,18,1,1,1,0,0,0,0,0,1,0,triangle,hexagon,,,,,,,,,,,,,,,,,,,,,,,,,,,,,,,,,,,,,,,,,,,,,,,,,,,,,,
293791,2022-11-15_21h04.50.808,vts_reward_expectancy_bt,2022.2.4,Win32,144.092219,Firefox,2560,1440,,,a,0.537,10,128,0,1,7,19,0,1,1,0,0,0,0,1,0,0,triangle,circle,,,,,,,,,,,,,,,,,,,,,,,,,,,,,,,,,,,,,,,,,,,,,,,,,,,,,,
293791,2022-11-15_21h04.50.808,vts_reward_expectancy_bt,2022.2.4,Win32,144.092219,Firefox,2560,1440,,,l,1.316,10,138,0,1,8,20,4,1,0,1,0,0,0,0,1,0,circle,hexagon,,,,,,,,,,,,,,,,,,,,,,,,,,,,,,,,,,,,,,,,,,,,,,,,,,,,,,
293791,2022-11-15_21h04.50.808,vts_reward_expectancy_bt,2022.2.4,Win32,144.092219,Firefox,2560,1440,,,l,0.563,10,148,0,1,9,21,3,1,0,1,0,0,1,0,0,0,circle,triangle,,,,,,,,,,,,,,,,,,,,,,,,,,,,,,,,,,,,,,,,,,,,,,,,,,,,,,
293791,2022-11-15_21h04.50.808,vts_reward_expectancy_bt,2022.2.4,Win32,144.092219,Firefox,2560,1440,,,l,0.727,1,149,0,1,10,22,10,1,0,0,0,1,0,1,0,0,star ,circle,,,,,,,,,,,,,,,,,,,,,,,,,,,,,,,,,,,,,,,,,,,,,,,,,,,,,,
293791,2022-11-15_21h04.50.808,vts_reward_expectancy_bt,2022.2.4,Win32,144.092219,Firefox,2560,1440,,,a,0.62,1,150,0,1,11,23,7,1,0,0,1,0,0,1,0,0,hexagon,circle,,,,,,,,,,,,,,,,,,,,,,,,,,,,,,,,,,,,,,,,,,,,,,,,,,,,,,
293791,2022-11-15_21h04.50.808,vts_reward_expectancy_bt,2022.2.4,Win32,144.092219,Firefox,2560,1440,,,l,0.6,10,160,0,2,0,24,10,1,0,0,0,1,0,1,0,0,star ,circle,,,,,,,,,,,,,,,,,,,,,,,,,,,,,,,,,,,,,,,,,,,,,,,,,,,,,,
293791,2022-11-15_21h04.50.808,vts_reward_expectancy_bt,2022.2.4,Win32,144.092219,Firefox,2560,1440,,,a,0.459,10,170,0,2,1,25,8,1,0,0,1,0,0,0,0,1,hexagon,star,,,,,,,,,,,,,,,,,,,,,,,,,,,,,,,,,,,,,,,,,,,,,,,,,,,,,,
293791,2022-11-15_21h04.50.808,vts_reward_expectancy_bt,2022.2.4,Win32,144.092219,Firefox,2560,1440,,,a,0.507,10,180,0,2,2,26,5,1,0,1,0,0,0,0,0,1,circle,star,,,,,,,,,,,,,,,,,,,,,,,,,,,,,,,,,,,,,,,,,,,,,,,,,,,,,,
293791,2022-11-15_21h04.50.808,vts_reward_expectancy_bt,2022.2.4,Win32,144.092219,Firefox,2560,1440,,,a,0.534,10,190,0,2,3,27,0,1,1,0,0,0,0,1,0,0,triangle,circle,,,,,,,,,,,,,,,,,,,,,,,,,,,,,,,,,,,,,,,,,,,,,,,,,,,,,,
293791,2022-11-15_21h04.50.808,vts_reward_expectancy_bt,2022.2.4,Win32,144.092219,Firefox,2560,1440,,,a,0.465,10,200,0,2,4,28,1,1,1,0,0,0,0,0,1,0,triangle,hexagon,,,,,,,,,,,,,,,,,,,,,,,,,,,,,,,,,,,,,,,,,,,,,,,,,,,,,,
293791,2022-11-15_21h04.50.808,vts_reward_expectancy_bt,2022.2.4,Win32,144.092219,Firefox,2560,1440,,,a,0.341,10,210,0,2,5,29,7,1,0,0,1,0,0,1,0,0,hexagon,circle,,,,,,,,,,,,,,,,,,,,,,,,,,,,,,,,,,,,,,,,,,,,,,,,,,,,,,
293791,2022-11-15_21h04.50.808,vts_reward_expectancy_bt,2022.2.4,Win32,144.092219,Firefox,2560,1440,,,a,0.37,10,220,0,2,6,30,2,1,1,0,0,0,0,0,0,1,triangle,star,,,,,,,,,,,,,,,,,,,,,,,,,,,,,,,,,,,,,,,,,,,,,,,,,,,,,,
293791,2022-11-15_21h04.50.808,vts_reward_expectancy_bt,2022.2.4,Win32,144.092219,Firefox,2560,1440,,,l,0.593,10,230,0,2,7,31,6,1,0,0,1,0,1,0,0,0,hexagon,triangle,,,,,,,,,,,,,,,,,,,,,,,,,,,,,,,,,,,,,,,,,,,,,,,,,,,,,,
293791,2022-11-15_21h04.50.808,vts_reward_expectancy_bt,2022.2.4,Win32,144.092219,Firefox,2560,1440,,,l,0.627,10,240,0,2,8,32,4,1,0,1,0,0,0,0,1,0,circle,hexagon,,,,,,,,,,,,,,,,,,,,,,,,,,,,,,,,,,,,,,,,,,,,,,,,,,,,,,
293791,2022-11-15_21h04.50.808,vts_reward_expectancy_bt,2022.2.4,Win32,144.092219,Firefox,2560,1440,,,l,0.548,1,241,0,2,9,33,11,1,0,0,0,1,0,0,1,0,star,hexagon,,,,,,,,,,,,,,,,,,,,,,,,,,,,,,,,,,,,,,,,,,,,,,,,,,,,,,
293791,2022-11-15_21h04.50.808,vts_reward_expectancy_bt,2022.2.4,Win32,144.092219,Firefox,2560,1440,,,l,0.529,10,251,0,2,10,34,3,1,0,1,0,0,1,0,0,0,circle,triangle,,,,,,,,,,,,,,,,,,,,,,,,,,,,,,,,,,,,,,,,,,,,,,,,,,,,,,
293791,2022-11-15_21h04.50.808,vts_reward_expectancy_bt,2022.2.4,Win32,144.092219,Firefox,2560,1440,,,l,0.356,10,261,0,2,11,35,9,1,0,0,0,1,1,0,0,0,star,triangle,,,,,,,,,,,,,,,,,,,,,,,,,,,,,,,,,,,,,,,,,,,,,,,,,,,,,,
293791,2022-11-15_21h04.50.808,vts_reward_expectancy_bt,2022.2.4,Win32,144.092219,Firefox,2560,1440,,,l,0.986,10,271,1,0,0,0,11,1,0,0,0,1,0,0,1,0,star,hexagon,,,,,,,,,,,,,,,,,,,,,,,,,,,,,,,,,,,,,,,,,,,,,,,,,,,,,,
293791,2022-11-15_21h04.50.808,vts_reward_expectancy_bt,2022.2.4,Win32,144.092219,Firefox,2560,1440,,,l,4.043,10,281,1,0,1,1,9,1,0,0,0,1,1,0,0,0,star,triangle,,,,,,,,,,,,,,,,,,,,,,,,,,,,,,,,,,,,,,,,,,,,,,,,,,,,,,
293791,2022-11-15_21h04.50.808,vts_reward_expectancy_bt,2022.2.4,Win32,144.092219,Firefox,2560,1440,,,l,0.695,10,291,1,0,2,2,6,1,0,0,1,0,1,0,0,0,hexagon,triangle,,,,,,,,,,,,,,,,,,,,,,,,,,,,,,,,,,,,,,,,,,,,,,,,,,,,,,
293791,2022-11-15_21h04.50.808,vts_reward_expectancy_bt,2022.2.4,Win32,144.092219,Firefox,2560,1440,,,a,0.543,10,301,1,0,3,3,0,1,1,0,0,0,0,1,0,0,triangle,circle,,,,,,,,,,,,,,,,,,,,,,,,,,,,,,,,,,,,,,,,,,,,,,,,,,,,,,
293791,2022-11-15_21h04.50.808,vts_reward_expectancy_bt,2022.2.4,Win32,144.092219,Firefox,2560,1440,,,a,0.369,10,311,1,0,4,4,2,1,1,0,0,0,0,0,0,1,triangle,star,,,,,,,,,,,,,,,,,,,,,,,,,,,,,,,,,,,,,,,,,,,,,,,,,,,,,,
293791,2022-11-15_21h04.50.808,vts_reward_expectancy_bt,2022.2.4,Win32,144.092219,Firefox,2560,1440,,,a,0.485,1,312,1,0,5,5,8,1,0,0,1,0,0,0,0,1,hexagon,star,,,,,,,,,,,,,,,,,,,,,,,,,,,,,,,,,,,,,,,,,,,,,,,,,,,,,,
293791,2022-11-15_21h04.50.808,vts_reward_expectancy_bt,2022.2.4,Win32,144.092219,Firefox,2560,1440,,,a,0.517,1,313,1,0,6,6,5,1,0,1,0,0,0,0,0,1,circle,star,,,,,,,,,,,,,,,,,,,,,,,,,,,,,,,,,,,,,,,,,,,,,,,,,,,,,,
293791,2022-11-15_21h04.50.808,vts_reward_expectancy_bt,2022.2.4,Win32,144.092219,Firefox,2560,1440,,,l,0.529,1,314,1,0,7,7,4,1,0,1,0,0,0,0,1,0,circle,hexagon,,,,,,,,,,,,,,,,,,,,,,,,,,,,,,,,,,,,,,,,,,,,,,,,,,,,,,
293791,2022-11-15_21h04.50.808,vts_reward_expectancy_bt,2022.2.4,Win32,144.092219,Firefox,2560,1440,,,l,0.442,1,315,1,0,8,8,10,1,0,0,0,1,0,1,0,0,star ,circle,,,,,,,,,,,,,,,,,,,,,,,,,,,,,,,,,,,,,,,,,,,,,,,,,,,,,,
293791,2022-11-15_21h04.50.808,vts_reward_expectancy_bt,2022.2.4,Win32,144.092219,Firefox,2560,1440,,,a,0.486,10,325,1,0,9,9,1,1,1,0,0,0,0,0,1,0,triangle,hexagon,,,,,,,,,,,,,,,,,,,,,,,,,,,,,,,,,,,,,,,,,,,,,,,,,,,,,,
293791,2022-11-15_21h04.50.808,vts_reward_expectancy_bt,2022.2.4,Win32,144.092219,Firefox,2560,1440,,,a,0.368,10,335,1,0,10,10,7,1,0,0,1,0,0,1,0,0,hexagon,circle,,,,,,,,,,,,,,,,,,,,,,,,,,,,,,,,,,,,,,,,,,,,,,,,,,,,,,
293791,2022-11-15_21h04.50.808,vts_reward_expectancy_bt,2022.2.4,Win32,144.092219,Firefox,2560,1440,,,l,0.529,10,345,1,0,11,11,3,1,0,1,0,0,1,0,0,0,circle,triangle,,,,,,,,,,,,,,,,,,,,,,,,,,,,,,,,,,,,,,,,,,,,,,,,,,,,,,
293791,2022-11-15_21h04.50.808,vts_reward_expectancy_bt,2022.2.4,Win32,144.092219,Firefox,2560,1440,,,l,1.015,10,355,1,1,0,12,6,1,0,0,1,0,1,0,0,0,hexagon,triangle,,,,,,,,,,,,,,,,,,,,,,,,,,,,,,,,,,,,,,,,,,,,,,,,,,,,,,
293791,2022-11-15_21h04.50.808,vts_reward_expectancy_bt,2022.2.4,Win32,144.092219,Firefox,2560,1440,,,l,0.833,10,365,1,1,1,13,3,1,0,1,0,0,1,0,0,0,circle,triangle,,,,,,,,,,,,,,,,,,,,,,,,,,,,,,,,,,,,,,,,,,,,,,,,,,,,,,
293791,2022-11-15_21h04.50.808,vts_reward_expectancy_bt,2022.2.4,Win32,144.092219,Firefox,2560,1440,,,a,0.508,1,366,1,1,2,14,1,1,1,0,0,0,0,0,1,0,triangle,hexagon,,,,,,,,,,,,,,,,,,,,,,,,,,,,,,,,,,,,,,,,,,,,,,,,,,,,,,
293791,2022-11-15_21h04.50.808,vts_reward_expectancy_bt,2022.2.4,Win32,144.092219,Firefox,2560,1440,,,a,0.514,1,367,1,1,3,15,2,1,1,0,0,0,0,0,0,1,triangle,star,,,,,,,,,,,,,,,,,,,,,,,,,,,,,,,,,,,,,,,,,,,,,,,,,,,,,,
293791,2022-11-15_21h04.50.808,vts_reward_expectancy_bt,2022.2.4,Win32,144.092219,Firefox,2560,1440,,,l,1.271,10,377,1,1,4,16,11,1,0,0,0,1,0,0,1,0,star,hexagon,,,,,,,,,,,,,,,,,,,,,,,,,,,,,,,,,,,,,,,,,,,,,,,,,,,,,,
293791,2022-11-15_21h04.50.808,vts_reward_expectancy_bt,2022.2.4,Win32,144.092219,Firefox,2560,1440,,,l,1.738,1,378,1,1,5,17,4,1,0,1,0,0,0,0,1,0,circle,hexagon,,,,,,,,,,,,,,,,,,,,,,,,,,,,,,,,,,,,,,,,,,,,,,,,,,,,,,
293791,2022-11-15_21h04.50.808,vts_reward_expectancy_bt,2022.2.4,Win32,144.092219,Firefox,2560,1440,,,l,0.754,10,388,1,1,6,18,7,1,0,0,1,0,0,1,0,0,hexagon,circle,,,,,,,,,,,,,,,,,,,,,,,,,,,,,,,,,,,,,,,,,,,,,,,,,,,,,,
293791,2022-11-15_21h04.50.808,vts_reward_expectancy_bt,2022.2.4,Win32,144.092219,Firefox,2560,1440,,,l,1.11,10,398,1,1,7,19,9,1,0,0,0,1,1,0,0,0,star,triangle,,,,,,,,,,,,,,,,,,,,,,,,,,,,,,,,,,,,,,,,,,,,,,,,,,,,,,
293791,2022-11-15_21h04.50.808,vts_reward_expectancy_bt,2022.2.4,Win32,144.092219,Firefox,2560,1440,,,a,1.953,10,408,1,1,8,20,0,1,1,0,0,0,0,1,0,0,triangle,circle,,,,,,,,,,,,,,,,,,,,,,,,,,,,,,,,,,,,,,,,,,,,,,,,,,,,,,
293791,2022-11-15_21h04.50.808,vts_reward_expectancy_bt,2022.2.4,Win32,144.092219,Firefox,2560,1440,,,a,2.735,1,409,1,1,9,21,5,1,0,1,0,0,0,0,0,1,circle,star,,,,,,,,,,,,,,,,,,,,,,,,,,,,,,,,,,,,,,,,,,,,,,,,,,,,,,
293791,2022-11-15_21h04.50.808,vts_reward_expectancy_bt,2022.2.4,Win32,144.092219,Firefox,2560,1440,,,l,0.617,1,410,1,1,10,22,10,1,0,0,0,1,0,1,0,0,star ,circle,,,,,,,,,,,,,,,,,,,,,,,,,,,,,,,,,,,,,,,,,,,,,,,,,,,,,,
293791,2022-11-15_21h04.50.808,vts_reward_expectancy_bt,2022.2.4,Win32,144.092219,Firefox,2560,1440,,,a,1.084,10,420,1,1,11,23,8,1,0,0,1,0,0,0,0,1,hexagon,star,,,,,,,,,,,,,,,,,,,,,,,,,,,,,,,,,,,,,,,,,,,,,,,,,,,,,,
293791,2022-11-15_21h04.50.808,vts_reward_expectancy_bt,2022.2.4,Win32,144.092219,Firefox,2560,1440,,,a,0.734,10,430,1,2,0,24,2,1,1,0,0,0,0,0,0,1,triangle,star,,,,,,,,,,,,,,,,,,,,,,,,,,,,,,,,,,,,,,,,,,,,,,,,,,,,,,
293791,2022-11-15_21h04.50.808,vts_reward_expectancy_bt,2022.2.4,Win32,144.092219,Firefox,2560,1440,,,a,0.968,10,440,1,2,1,25,0,1,1,0,0,0,0,1,0,0,triangle,circle,,,,,,,,,,,,,,,,,,,,,,,,,,,,,,,,,,,,,,,,,,,,,,,,,,,,,,
293791,2022-11-15_21h04.50.808,vts_reward_expectancy_bt,2022.2.4,Win32,144.092219,Firefox,2560,1440,,,l,0.836,10,450,1,2,2,26,9,1,0,0,0,1,1,0,0,0,star,triangle,,,,,,,,,,,,,,,,,,,,,,,,,,,,,,,,,,,,,,,,,,,,,,,,,,,,,,
293791,2022-11-15_21h04.50.808,vts_reward_expectancy_bt,2022.2.4,Win32,144.092219,Firefox,2560,1440,,,a,0.577,1,451,1,2,3,27,1,1,1,0,0,0,0,0,1,0,triangle,hexagon,,,,,,,,,,,,,,,,,,,,,,,,,,,,,,,,,,,,,,,,,,,,,,,,,,,,,,
293791,2022-11-15_21h04.50.808,vts_reward_expectancy_bt,2022.2.4,Win32,144.092219,Firefox,2560,1440,,,a,1.988,1,452,1,2,4,28,7,1,0,0,1,0,0,1,0,0,hexagon,circle,,,,,,,,,,,,,,,,,,,,,,,,,,,,,,,,,,,,,,,,,,,,,,,,,,,,,,
293791,2022-11-15_21h04.50.808,vts_reward_expectancy_bt,2022.2.4,Win32,144.092219,Firefox,2560,1440,,,a,1.718,1,453,1,2,5,29,10,1,0,0,0,1,0,1,0,0,star ,circle,,,,,,,,,,,,,,,,,,,,,,,,,,,,,,,,,,,,,,,,,,,,,,,,,,,,,,
293791,2022-11-15_21h04.50.808,vts_reward_expectancy_bt,2022.2.4,Win32,144.092219,Firefox,2560,1440,,,l,1.285,10,463,1,2,6,30,4,1,0,1,0,0,0,0,1,0,circle,hexagon,,,,,,,,,,,,,,,,,,,,,,,,,,,,,,,,,,,,,,,,,,,,,,,,,,,,,,
293791,2022-11-15_21h04.50.808,vts_reward_expectancy_bt,2022.2.4,Win32,144.092219,Firefox,2560,1440,,,a,0.618,10,473,1,2,7,31,8,1,0,0,1,0,0,0,0,1,hexagon,star,,,,,,,,,,,,,,,,,,,,,,,,,,,,,,,,,,,,,,,,,,,,,,,,,,,,,,
293791,2022-11-15_21h04.50.808,vts_reward_expectancy_bt,2022.2.4,Win32,144.092219,Firefox,2560,1440,,,l,0.515,1,474,1,2,8,32,6,1,0,0,1,0,1,0,0,0,hexagon,triangle,,,,,,,,,,,,,,,,,,,,,,,,,,,,,,,,,,,,,,,,,,,,,,,,,,,,,,
293791,2022-11-15_21h04.50.808,vts_reward_expectancy_bt,2022.2.4,Win32,144.092219,Firefox,2560,1440,,,l,0.437,10,484,1,2,9,33,3,1,0,1,0,0,1,0,0,0,circle,triangle,,,,,,,,,,,,,,,,,,,,,,,,,,,,,,,,,,,,,,,,,,,,,,,,,,,,,,
293791,2022-11-15_21h04.50.808,vts_reward_expectancy_bt,2022.2.4,Win32,144.092219,Firefox,2560,1440,,,l,0.508,1,485,1,2,10,34,11,1,0,0,0,1,0,0,1,0,star,hexagon,,,,,,,,,,,,,,,,,,,,,,,,,,,,,,,,,,,,,,,,,,,,,,,,,,,,,,
293791,2022-11-15_21h04.50.808,vts_reward_expectancy_bt,2022.2.4,Win32,144.092219,Firefox,2560,1440,,,a,0.458,1,486,1,2,11,35,5,1,0,1,0,0,0,0,0,1,circle,star,,,,,,,,,,,,,,,,,,,,,,,,,,,,,,,,,,,,,,,,,,,,,,,,,,,,,,
293791,2022-11-15_21h04.50.808,vts_reward_expectancy_bt,2022.2.4,Win32,144.092219,Firefox,2560,1440,,,l,1.593,1,487,2,0,0,0,5,1,0,1,0,0,0,0,0,1,circle,star,,,,,,,,,,,,,,,,,,,,,,,,,,,,,,,,,,,,,,,,,,,,,,,,,,,,,,
293791,2022-11-15_21h04.50.808,vts_reward_expectancy_bt,2022.2.4,Win32,144.092219,Firefox,2560,1440,,,a,0.578,10,497,2,0,1,1,8,1,0,0,1,0,0,0,0,1,hexagon,star,,,,,,,,,,,,,,,,,,,,,,,,,,,,,,,,,,,,,,,,,,,,,,,,,,,,,,
293791,2022-11-15_21h04.50.808,vts_reward_expectancy_bt,2022.2.4,Win32,144.092219,Firefox,2560,1440,,,l,0.457,10,507,2,0,2,2,6,1,0,0,1,0,1,0,0,0,hexagon,triangle,,,,,,,,,,,,,,,,,,,,,,,,,,,,,,,,,,,,,,,,,,,,,,,,,,,,,,
293791,2022-11-15_21h04.50.808,vts_reward_expectancy_bt,2022.2.4,Win32,144.092219,Firefox,2560,1440,,,a,0.511,1,508,2,0,3,3,2,1,1,0,0,0,0,0,0,1,triangle,star,,,,,,,,,,,,,,,,,,,,,,,,,,,,,,,,,,,,,,,,,,,,,,,,,,,,,,
293791,2022-11-15_21h04.50.808,vts_reward_expectancy_bt,2022.2.4,Win32,144.092219,Firefox,2560,1440,,,a,0.477,10,518,2,0,4,4,0,1,1,0,0,0,0,1,0,0,triangle,circle,,,,,,,,,,,,,,,,,,,,,,,,,,,,,,,,,,,,,,,,,,,,,,,,,,,,,,
293791,2022-11-15_21h04.50.808,vts_reward_expectancy_bt,2022.2.4,Win32,144.092219,Firefox,2560,1440,,,l,0.562,10,528,2,0,5,5,11,1,0,0,0,1,0,0,1,0,star,hexagon,,,,,,,,,,,,,,,,,,,,,,,,,,,,,,,,,,,,,,,,,,,,,,,,,,,,,,
293791,2022-11-15_21h04.50.808,vts_reward_expectancy_bt,2022.2.4,Win32,144.092219,Firefox,2560,1440,,,l,0.433,10,538,2,0,6,6,3,1,0,1,0,0,1,0,0,0,circle,triangle,,,,,,,,,,,,,,,,,,,,,,,,,,,,,,,,,,,,,,,,,,,,,,,,,,,,,,
293791,2022-11-15_21h04.50.808,vts_reward_expectancy_bt,2022.2.4,Win32,144.092219,Firefox,2560,1440,,,a,0.454,1,539,2,0,7,7,4,1,0,1,0,0,0,0,1,0,circle,hexagon,,,,,,,,,,,,,,,,,,,,,,,,,,,,,,,,,,,,,,,,,,,,,,,,,,,,,,
293791,2022-11-15_21h04.50.808,vts_reward_expectancy_bt,2022.2.4,Win32,144.092219,Firefox,2560,1440,,,a,1.035,1,540,2,0,8,8,10,1,0,0,0,1,0,1,0,0,star ,circle,,,,,,,,,,,,,,,,,,,,,,,,,,,,,,,,,,,,,,,,,,,,,,,,,,,,,,
293791,2022-11-15_21h04.50.808,vts_reward_expectancy_bt,2022.2.4,Win32,144.092219,Firefox,2560,1440,,,a,0.677,10,550,2,0,9,9,7,1,0,0,1,0,0,1,0,0,hexagon,circle,,,,,,,,,,,,,,,,,,,,,,,,,,,,,,,,,,,,,,,,,,,,,,,,,,,,,,
293791,2022-11-15_21h04.50.808,vts_reward_expectancy_bt,2022.2.4,Win32,144.092219,Firefox,2560,1440,,,l,0.479,10,560,2,0,10,10,9,1,0,0,0,1,1,0,0,0,star,triangle,,,,,,,,,,,,,,,,,,,,,,,,,,,,,,,,,,,,,,,,,,,,,,,,,,,,,,
293791,2022-11-15_21h04.50.808,vts_reward_expectancy_bt,2022.2.4,Win32,144.092219,Firefox,2560,1440,,,a,0.508,1,561,2,0,11,11,1,1,1,0,0,0,0,0,1,0,triangle,hexagon,,,,,,,,,,,,,,,,,,,,,,,,,,,,,,,,,,,,,,,,,,,,,,,,,,,,,,
293791,2022-11-15_21h04.50.808,vts_reward_expectancy_bt,2022.2.4,Win32,144.092219,Firefox,2560,1440,,,l,0.334,10,571,2,1,0,12,9,1,0,0,0,1,1,0,0,0,star,triangle,,,,,,,,,,,,,,,,,,,,,,,,,,,,,,,,,,,,,,,,,,,,,,,,,,,,,,
293791,2022-11-15_21h04.50.808,vts_reward_expectancy_bt,2022.2.4,Win32,144.092219,Firefox,2560,1440,,,a,0.457,1,572,2,1,1,13,5,1,0,1,0,0,0,0,0,1,circle,star,,,,,,,,,,,,,,,,,,,,,,,,,,,,,,,,,,,,,,,,,,,,,,,,,,,,,,
293791,2022-11-15_21h04.50.808,vts_reward_expectancy_bt,2022.2.4,Win32,144.092219,Firefox,2560,1440,,,l,0.542,10,582,2,1,2,14,4,1,0,1,0,0,0,0,1,0,circle,hexagon,,,,,,,,,,,,,,,,,,,,,,,,,,,,,,,,,,,,,,,,,,,,,,,,,,,,,,
293791,2022-11-15_21h04.50.808,vts_reward_expectancy_bt,2022.2.4,Win32,144.092219,Firefox,2560,1440,,,l,0.632,1,583,2,1,3,15,10,1,0,0,0,1,0,1,0,0,star ,circle,,,,,,,,,,,,,,,,,,,,,,,,,,,,,,,,,,,,,,,,,,,,,,,,,,,,,,
293791,2022-11-15_21h04.50.808,vts_reward_expectancy_bt,2022.2.4,Win32,144.092219,Firefox,2560,1440,,,l,0.466,1,584,2,1,4,16,3,1,0,1,0,0,1,0,0,0,circle,triangle,,,,,,,,,,,,,,,,,,,,,,,,,,,,,,,,,,,,,,,,,,,,,,,,,,,,,,
293791,2022-11-15_21h04.50.808,vts_reward_expectancy_bt,2022.2.4,Win32,144.092219,Firefox,2560,1440,,,l,0.513,10,594,2,1,5,17,11,1,0,0,0,1,0,0,1,0,star,hexagon,,,,,,,,,,,,,,,,,,,,,,,,,,,,,,,,,,,,,,,,,,,,,,,,,,,,,,
293791,2022-11-15_21h04.50.808,vts_reward_expectancy_bt,2022.2.4,Win32,144.092219,Firefox,2560,1440,,,a,0.515,10,604,2,1,6,18,2,1,1,0,0,0,0,0,0,1,triangle,star,,,,,,,,,,,,,,,,,,,,,,,,,,,,,,,,,,,,,,,,,,,,,,,,,,,,,,
293791,2022-11-15_21h04.50.808,vts_reward_expectancy_bt,2022.2.4,Win32,144.092219,Firefox,2560,1440,,,l,0.426,1,605,2,1,7,19,8,1,0,0,1,0,0,0,0,1,hexagon,star,,,,,,,,,,,,,,,,,,,,,,,,,,,,,,,,,,,,,,,,,,,,,,,,,,,,,,
293791,2022-11-15_21h04.50.808,vts_reward_expectancy_bt,2022.2.4,Win32,144.092219,Firefox,2560,1440,,,a,0.589,10,615,2,1,8,20,7,1,0,0,1,0,0,1,0,0,hexagon,circle,,,,,,,,,,,,,,,,,,,,,,,,,,,,,,,,,,,,,,,,,,,,,,,,,,,,,,
293791,2022-11-15_21h04.50.808,vts_reward_expectancy_bt,2022.2.4,Win32,144.092219,Firefox,2560,1440,,,l,0.482,10,625,2,1,9,21,6,1,0,0,1,0,1,0,0,0,hexagon,triangle,,,,,,,,,,,,,,,,,,,,,,,,,,,,,,,,,,,,,,,,,,,,,,,,,,,,,,
293791,2022-11-15_21h04.50.808,vts_reward_expectancy_bt,2022.2.4,Win32,144.092219,Firefox,2560,1440,,,l,0.494,10,635,2,1,10,22,0,1,1,0,0,0,0,1,0,0,triangle,circle,,,,,,,,,,,,,,,,,,,,,,,,,,,,,,,,,,,,,,,,,,,,,,,,,,,,,,
293791,2022-11-15_21h04.50.808,vts_reward_expectancy_bt,2022.2.4,Win32,144.092219,Firefox,2560,1440,,,a,0.656,10,645,2,1,11,23,1,1,1,0,0,0,0,0,1,0,triangle,hexagon,,,,,,,,,,,,,,,,,,,,,,,,,,,,,,,,,,,,,,,,,,,,,,,,,,,,,,
293791,2022-11-15_21h04.50.808,vts_reward_expectancy_bt,2022.2.4,Win32,144.092219,Firefox,2560,1440,,,l,0.731,10,655,2,2,0,24,9,1,0,0,0,1,1,0,0,0,star,triangle,,,,,,,,,,,,,,,,,,,,,,,,,,,,,,,,,,,,,,,,,,,,,,,,,,,,,,
293791,2022-11-15_21h04.50.808,vts_reward_expectancy_bt,2022.2.4,Win32,144.092219,Firefox,2560,1440,,,a,0.501,10,665,2,2,1,25,1,1,1,0,0,0,0,0,1,0,triangle,hexagon,,,,,,,,,,,,,,,,,,,,,,,,,,,,,,,,,,,,,,,,,,,,,,,,,,,,,,
293791,2022-11-15_21h04.50.808,vts_reward_expectancy_bt,2022.2.4,Win32,144.092219,Firefox,2560,1440,,,l,0.495,10,675,2,2,2,26,3,1,0,1,0,0,1,0,0,0,circle,triangle,,,,,,,,,,,,,,,,,,,,,,,,,,,,,,,,,,,,,,,,,,,,,,,,,,,,,,
293791,2022-11-15_21h04.50.808,vts_reward_expectancy_bt,2022.2.4,Win32,144.092219,Firefox,2560,1440,,,a,0.432,1,676,2,2,3,27,2,1,1,0,0,0,0,0,0,1,triangle,star,,,,,,,,,,,,,,,,,,,,,,,,,,,,,,,,,,,,,,,,,,,,,,,,,,,,,,
293791,2022-11-15_21h04.50.808,vts_reward_expectancy_bt,2022.2.4,Win32,144.092219,Firefox,2560,1440,,,a,0.563,10,686,2,2,4,28,8,1,0,0,1,0,0,0,0,1,hexagon,star,,,,,,,,,,,,,,,,,,,,,,,,,,,,,,,,,,,,,,,,,,,,,,,,,,,,,,
293791,2022-11-15_21h04.50.808,vts_reward_expectancy_bt,2022.2.4,Win32,144.092219,Firefox,2560,1440,,,a,0.635,10,696,2,2,5,29,7,1,0,0,1,0,0,1,0,0,hexagon,circle,,,,,,,,,,,,,,,,,,,,,,,,,,,,,,,,,,,,,,,,,,,,,,,,,,,,,,
293791,2022-11-15_21h04.50.808,vts_reward_expectancy_bt,2022.2.4,Win32,144.092219,Firefox,2560,1440,,,l,0.61,10,706,2,2,6,30,11,1,0,0,0,1,0,0,1,0,star,hexagon,,,,,,,,,,,,,,,,,,,,,,,,,,,,,,,,,,,,,,,,,,,,,,,,,,,,,,
293791,2022-11-15_21h04.50.808,vts_reward_expectancy_bt,2022.2.4,Win32,144.092219,Firefox,2560,1440,,,l,0.512,10,716,2,2,7,31,4,1,0,1,0,0,0,0,1,0,circle,hexagon,,,,,,,,,,,,,,,,,,,,,,,,,,,,,,,,,,,,,,,,,,,,,,,,,,,,,,
293791,2022-11-15_21h04.50.808,vts_reward_expectancy_bt,2022.2.4,Win32,144.092219,Firefox,2560,1440,,,a,0.653,10,726,2,2,8,32,10,1,0,0,0,1,0,1,0,0,star ,circle,,,,,,,,,,,,,,,,,,,,,,,,,,,,,,,,,,,,,,,,,,,,,,,,,,,,,,
293791,2022-11-15_21h04.50.808,vts_reward_expectancy_bt,2022.2.4,Win32,144.092219,Firefox,2560,1440,,,l,0.628,10,736,2,2,9,33,6,1,0,0,1,0,1,0,0,0,hexagon,triangle,,,,,,,,,,,,,,,,,,,,,,,,,,,,,,,,,,,,,,,,,,,,,,,,,,,,,,
293791,2022-11-15_21h04.50.808,vts_reward_expectancy_bt,2022.2.4,Win32,144.092219,Firefox,2560,1440,,,l,0.607,1,737,2,2,10,34,5,1,0,1,0,0,0,0,0,1,circle,star,,,,,,,,,,,,,,,,,,,,,,,,,,,,,,,,,,,,,,,,,,,,,,,,,,,,,,
293791,2022-11-15_21h04.50.808,vts_reward_expectancy_bt,2022.2.4,Win32,144.092219,Firefox,2560,1440,,,a,0.499,10,747,2,2,11,35,0,1,1,0,0,0,0,1,0,0,triangle,circle,,,,,,,,,,,,,,,,,,,,,,,,,,,,,,,,,,,,,,,,,,,,,,,,,,,,,,
293791,2022-11-15_21h04.50.808,vts_reward_expectancy_bt,2022.2.4,Win32,144.092219,Firefox,2560,1440,,,,,,,,,,,,,,,,,,,,,,,D,181,star,1,0,d,1.027,0,0,0,0,0,1,,,,,,,,,,,,,,,,,,,,,,,,,,,,,,,,,,,,,,,,,
293791,2022-11-15_21h04.50.808,vts_reward_expectancy_bt,2022.2.4,Win32,144.092219,Firefox,2560,1440,,,,,,,,,,,,,,,,,,,,,,,F,167,circle,0,0,f,0.662,0,1,0,1,0,1,,,,,,,,,,,,,,,,,,,,,,,,,,,,,,,,,,,,,,,,,
293791,2022-11-15_21h04.50.808,vts_reward_expectancy_bt,2022.2.4,Win32,144.092219,Firefox,2560,1440,,,,,,,,,,,,,,,,,,,,,,,S,132,hexagon,1,1,f,0.798,0,2,0,2,0,1,,,,,,,,,,,,,,,,,,,,,,,,,,,,,,,,,,,,,,,,,
293791,2022-11-15_21h04.50.808,vts_reward_expectancy_bt,2022.2.4,Win32,144.092219,Firefox,2560,1440,,,,,,,,,,,,,,,,,,,,,,,U,174,triangle,1,0,f,1.112,0,3,0,3,0,1,,,,,,,,,,,,,,,,,,,,,,,,,,,,,,,,,,,,,,,,,
293791,2022-11-15_21h04.50.808,vts_reward_expectancy_bt,2022.2.4,Win32,144.092219,Firefox,2560,1440,,,,,,,,,,,,,,,,,,,,,,,Y,139,star,1,0,f,0.38,0,4,0,4,0,1,,,,,,,,,,,,,,,,,,,,,,,,,,,,,,,,,,,,,,,,,
293791,2022-11-15_21h04.50.808,vts_reward_expectancy_bt,2022.2.4,Win32,144.092219,Firefox,2560,1440,,,,,,,,,,,,,,,,,,,,,,,B,146,circle,1,0,d,0.706,0,5,0,5,0,1,,,,,,,,,,,,,,,,,,,,,,,,,,,,,,,,,,,,,,,,,
293791,2022-11-15_21h04.50.808,vts_reward_expectancy_bt,2022.2.4,Win32,144.092219,Firefox,2560,1440,,,,,,,,,,,,,,,,,,,,,,,W,125,hexagon,1,0,f,0.681,0,6,0,6,0,1,,,,,,,,,,,,,,,,,,,,,,,,,,,,,,,,,,,,,,,,,
293791,2022-11-15_21h04.50.808,vts_reward_expectancy_bt,2022.2.4,Win32,144.092219,Firefox,2560,1440,,,,,,,,,,,,,,,,,,,,,,,H,160,triangle,1,0,d,0.999,0,7,0,7,0,1,,,,,,,,,,,,,,,,,,,,,,,,,,,,,,,,,,,,,,,,,
293791,2022-11-15_21h04.50.808,vts_reward_expectancy_bt,2022.2.4,Win32,144.092219,Firefox,2560,1440,,,,,,,,,,,,,,,,,,,,,,,D,181,star,1,0,d,0.539,0,8,0,8,0,1,,,,,,,,,,,,,,,,,,,,,,,,,,,,,,,,,,,,,,,,,
293791,2022-11-15_21h04.50.808,vts_reward_expectancy_bt,2022.2.4,Win32,144.092219,Firefox,2560,1440,,,,,,,,,,,,,,,,,,,,,,,F,167,hexagon,1,0,d,0.539,0,9,0,9,0,1,,,,,,,,,,,,,,,,,,,,,,,,,,,,,,,,,,,,,,,,,
293791,2022-11-15_21h04.50.808,vts_reward_expectancy_bt,2022.2.4,Win32,144.092219,Firefox,2560,1440,,,,,,,,,,,,,,,,,,,,,,,F,160,triangle,1,0,,,1,,,,,,k,0.779,0,0,0,0,1,,,,,,,,,,,,,,,,,,,,,,,,,,,,,,,,,,
293791,2022-11-15_21h04.50.808,vts_reward_expectancy_bt,2022.2.4,Win32,144.092219,Firefox,2560,1440,,,,,,,,,,,,,,,,,,,,,,,S,167,hexagon,1,0,,,1,,,,,,k,0.526,1,0,1,0,1,,,,,,,,,,,,,,,,,,,,,,,,,,,,,,,,,,
293791,2022-11-15_21h04.50.808,vts_reward_expectancy_bt,2022.2.4,Win32,144.092219,Firefox,2560,1440,,,,,,,,,,,,,,,,,,,,,,,H,181,circle,1,0,,,1,,,,,,k,0.484,2,0,2,0,1,,,,,,,,,,,,,,,,,,,,,,,,,,,,,,,,,,
293791,2022-11-15_21h04.50.808,vts_reward_expectancy_bt,2022.2.4,Win32,144.092219,Firefox,2560,1440,,,,,,,,,,,,,,,,,,,,,,,U,174,star,1,0,,,1,,,,,,k,0.519,3,0,3,0,1,,,,,,,,,,,,,,,,,,,,,,,,,,,,,,,,,,
293791,2022-11-15_21h04.50.808,vts_reward_expectancy_bt,2022.2.4,Win32,144.092219,Firefox,2560,1440,,,,,,,,,,,,,,,,,,,,,,,D,125,triangle,1,0,,,1,,,,,,j,0.493,4,0,4,0,1,,,,,,,,,,,,,,,,,,,,,,,,,,,,,,,,,,
293791,2022-11-15_21h04.50.808,vts_reward_expectancy_bt,2022.2.4,Win32,144.092219,Firefox,2560,1440,,,,,,,,,,,,,,,,,,,,,,,Y,139,hexagon,1,0,,,1,,,,,,j,0.464,5,0,5,0,1,,,,,,,,,,,,,,,,,,,,,,,,,,,,,,,,,,
293791,2022-11-15_21h04.50.808,vts_reward_expectancy_bt,2022.2.4,Win32,144.092219,Firefox,2560,1440,,,,,,,,,,,,,,,,,,,,,,,W,132,circle,1,0,,,1,,,,,,j,0.419,6,0,6,0,1,,,,,,,,,,,,,,,,,,,,,,,,,,,,,,,,,,
293791,2022-11-15_21h04.50.808,vts_reward_expectancy_bt,2022.2.4,Win32,144.092219,Firefox,2560,1440,,,,,,,,,,,,,,,,,,,,,,,B,146,star,1,0,,,1,,,,,,j,0.393,7,0,7,0,1,,,,,,,,,,,,,,,,,,,,,,,,,,,,,,,,,,
293791,2022-11-15_21h04.50.808,vts_reward_expectancy_bt,2022.2.4,Win32,144.092219,Firefox,2560,1440,,,,,,,,,,,,,,,,,,,,,,,F,160,circle,1,0,,,1,,,,,,k,0.596,8,0,8,0,1,,,,,,,,,,,,,,,,,,,,,,,,,,,,,,,,,,
293791,2022-11-15_21h04.50.808,vts_reward_expectancy_bt,2022.2.4,Win32,144.092219,Firefox,2560,1440,,,,,,,,,,,,,,,,,,,,,,,S,167,hexagon,1,0,,,1,,,,,,k,0.444,9,0,9,0,1,,,,,,,,,,,,,,,,,,,,,,,,,,,,,,,,,,
293791,2022-11-15_21h04.50.808,vts_reward_expectancy_bt,2022.2.4,Win32,144.092219,Firefox,2560,1440,,,,,0,747,,,,,,,,,,,,,,,,,H,167,star,1,0,,,2,,,,,,,,,,,,,-1,letter,NA,d,0.599,vtsPrac,0,0,0,0,1,,,,,,,,,,,,,,,,,,,,,,,
293791,2022-11-15_21h04.50.808,vts_reward_expectancy_bt,2022.2.4,Win32,144.092219,Firefox,2560,1440,,,,,0,747,,,,,,,,,,,,,,,,,F,160,triangle,1,0,,,2,,,,,,,,,,,,,repeat,letter,lettRpt,d,0.727,vtsPrac,1,0,1,0,1,,,,,,,,,,,,,,,,,,,,,,,
293791,2022-11-15_21h04.50.808,vts_reward_expectancy_bt,2022.2.4,Win32,144.092219,Firefox,2560,1440,,,,,0,747,,,,,,,,,,,,,,,,,U,125,star,0,0,,,2,,,,,,,,,,,,,repeat,letter,NA,d,0.46,vtsPrac,2,0,2,0,1,,,,,,,,,,,,,,,,,,,,,,,
293791,2022-11-15_21h04.50.808,vts_reward_expectancy_bt,2022.2.4,Win32,144.092219,Firefox,2560,1440,,,,,0,747,,,,,,,,,,,,,,,,,S,174,triangle,1,1,,,2,,,,,,,,,,,,,repeat,letter,lettRpt,f,0.444,vtsPrac,3,0,3,0,1,,,,,,,,,,,,,,,,,,,,,,,
293791,2022-11-15_21h04.50.808,vts_reward_expectancy_bt,2022.2.4,Win32,144.092219,Firefox,2560,1440,,,,,0,747,,,,,,,,,,,,,,,,,H,167,star,0,0,,,2,,,,,,,,,,,,,repeat,letter,NA,f,0.409,vtsPrac,4,0,4,0,1,,,,,,,,,,,,,,,,,,,,,,,
293791,2022-11-15_21h04.50.808,vts_reward_expectancy_bt,2022.2.4,Win32,144.092219,Firefox,2560,1440,,,,,0,747,,,,,,,,,,,,,,,,,F,160,triangle,1,1,,,2,,,,,,,,,,,,,switch,number,numSwt,k,0.694,vtsPrac,5,0,5,0,1,,,,,,,,,,,,,,,,,,,,,,,
293791,2022-11-15_21h04.50.808,vts_reward_expectancy_bt,2022.2.4,Win32,144.092219,Firefox,2560,1440,,,,,0,747,,,,,,,,,,,,,,,,,U,125,hexagon,1,0,,,2,,,,,,,,,,,,,repeat,number,numRpt,j,0.588,vtsPrac,6,0,6,0,1,,,,,,,,,,,,,,,,,,,,,,,
293791,2022-11-15_21h04.50.808,vts_reward_expectancy_bt,2022.2.4,Win32,144.092219,Firefox,2560,1440,,,,,0,747,,,,,,,,,,,,,,,,,S,174,star,1,0,,,2,,,,,,,,,,,,,repeat,number,numRpt,k,0.522,vtsPrac,7,0,7,0,1,,,,,,,,,,,,,,,,,,,,,,,
293791,2022-11-15_21h04.50.808,vts_reward_expectancy_bt,2022.2.4,Win32,144.092219,Firefox,2560,1440,,,,,0,747,,,,,,,,,,,,,,,,,W,146,star,1,0,,,2,,,,,,,,,,,,,repeat,number,numRpt,j,0.576,vtsPrac,8,0,8,0,1,,,,,,,,,,,,,,,,,,,,,,,
293791,2022-11-15_21h04.50.808,vts_reward_expectancy_bt,2022.2.4,Win32,144.092219,Firefox,2560,1440,,,,,0,747,,,,,,,,,,,,,,,,,H,125,circle,1,0,,,2,,,,,,,,,,,,,repeat,number,numRpt,j,0.487,vtsPrac,9,0,9,0,1,,,,,,,,,,,,,,,,,,,,,,,
293791,2022-11-15_21h04.50.808,vts_reward_expectancy_bt,2022.2.4,Win32,144.092219,Firefox,2560,1440,,,,,0,747,,,,,,,,,,,,,,,,,S,160,star,1,0,,,2,,,,,,,,,,,,,switch,letter,lettSwt,f,0.596,vtsPrac,10,0,10,0,1,,,,,,,,,,,,,,,,,,,,,,,
293791,2022-11-15_21h04.50.808,vts_reward_expectancy_bt,2022.2.4,Win32,144.092219,Firefox,2560,1440,,,,,0,747,,,,,,,,,,,,,,,,,Y,139,hexagon,1,0,,,2,,,,,,,,,,,,,repeat,letter,lettRpt,f,0.555,vtsPrac,11,0,11,0,1,,,,,,,,,,,,,,,,,,,,,,,
293791,2022-11-15_21h04.50.808,vts_reward_expectancy_bt,2022.2.4,Win32,144.092219,Firefox,2560,1440,,,,,0,747,,,,,,,,,,,,,,,,,Y,132,hexagon,1,0,,,2,,,,,,,,,,,,,repeat,letter,lettRpt,f,0.424,vtsPrac,12,0,12,0,1,,,,,,,,,,,,,,,,,,,,,,,
293791,2022-11-15_21h04.50.808,vts_reward_expectancy_bt,2022.2.4,Win32,144.092219,Firefox,2560,1440,,,,,0,747,,,,,,,,,,,,,,,,,B,125,star,1,0,,,2,,,,,,,,,,,,,repeat,letter,lettRpt,d,0.627,vtsPrac,13,0,13,0,1,,,,,,,,,,,,,,,,,,,,,,,
293791,2022-11-15_21h04.50.808,vts_reward_expectancy_bt,2022.2.4,Win32,144.092219,Firefox,2560,1440,,,,,0,747,,,,,,,,,,,,,,,,,F,146,star,1,0,,,2,,,,,,,,,,,,,repeat,letter,lettRpt,d,0.824,vtsPrac,14,0,14,0,1,,,,,,,,,,,,,,,,,,,,,,,
293791,2022-11-15_21h04.50.808,vts_reward_expectancy_bt,2022.2.4,Win32,144.092219,Firefox,2560,1440,,,,,0,747,,,,,,,,,,,,,,,,,H,181,triangle,0,0,,,2,,,,,,,,,,,,,repeat,letter,NA,f,0.528,vtsPrac,15,0,15,0,1,,,,,,,,,,,,,,,,,,,,,,,
293791,2022-11-15_21h04.50.808,vts_reward_expectancy_bt,2022.2.4,Win32,144.092219,Firefox,2560,1440,,,,,0,747,,,,,,,,,,,,,,,,,D,146,triangle,1,1,,,2,,,,,,,,,,,,,repeat,letter,lettRpt,d,0.549,vtsPrac,16,0,16,0,1,,,,,,,,,,,,,,,,,,,,,,,
293791,2022-11-15_21h04.50.808,vts_reward_expectancy_bt,2022.2.4,Win32,144.092219,Firefox,2560,1440,,,,,0,747,,,,,,,,,,,,,,,,,U,125,hexagon,1,0,,,2,,,,,,,,,,,,,switch,number,numSwt,j,0.54,vtsPrac,17,0,17,0,1,,,,,,,,,,,,,,,,,,,,,,,
293791,2022-11-15_21h04.50.808,vts_reward_expectancy_bt,2022.2.4,Win32,144.092219,Firefox,2560,1440,,,,,0,747,,,,,,,,,,,,,,,,,F,139,circle,1,0,,,2,,,,,,,,,,,,,repeat,number,numRpt,j,0.409,vtsPrac,18,0,18,0,1,,,,,,,,,,,,,,,,,,,,,,,
293791,2022-11-15_21h04.50.808,vts_reward_expectancy_bt,2022.2.4,Win32,144.092219,Firefox,2560,1440,,,,,0,747,,,,,,,,,,,,,,,,,S,181,triangle,1,0,,,2,,,,,,,,,,,,,repeat,number,numRpt,k,0.52,vtsPrac,19,0,19,0,1,,,,,,,,,,,,,,,,,,,,,,,
293791,2022-11-15_21h04.50.808,vts_reward_expectancy_bt,2022.2.4,Win32,144.092219,Firefox,2560,1440,,,,,0,747,,,,,,,,,,,,,,,,,U,181,circle,1,0,,,2,,,,,,,,,,,,,repeat,number,numRpt,k,0.519,vtsPrac,20,0,20,0,1,,,,,,,,,,,,,,,,,,,,,,,
293791,2022-11-15_21h04.50.808,vts_reward_expectancy_bt,2022.2.4,Win32,144.092219,Firefox,2560,1440,,,,,0,747,,,,,,,,,,,,,,,,,F,125,star,1,0,,,2,,,,,,,,,,,,,repeat,number,numRpt,j,0.595,vtsPrac,21,0,21,0,1,,,,,,,,,,,,,,,,,,,,,,,
293791,2022-11-15_21h04.50.808,vts_reward_expectancy_bt,2022.2.4,Win32,144.092219,Firefox,2560,1440,,,,,0,747,,,,,,,,,,,,,,,,,H,139,hexagon,1,0,,,2,,,,,,,,,,,,,repeat,number,numRpt,j,0.452,vtsPrac,22,0,22,0,1,,,,,,,,,,,,,,,,,,,,,,,
293791,2022-11-15_21h04.50.808,vts_reward_expectancy_bt,2022.2.4,Win32,144.092219,Firefox,2560,1440,,,,,0,747,,,,,,,,,,,,,,,,,Y,167,circle,1,0,,,2,,,,,,,,,,,,,repeat,number,numRpt,k,0.54,vtsPrac,23,0,23,0,1,,,,,,,,,,,,,,,,,,,,,,,
293791,2022-11-15_21h04.50.808,vts_reward_expectancy_bt,2022.2.4,Win32,144.092219,Firefox,2560,1440,,,,,0,747,,,,,,,,,,,,,,,,,H,146,star,1,0,,,2,,,,,,,,,,,,,switch,letter,lettSwt,d,0.616,vtsPrac,24,0,24,0,1,,,,,,,,,,,,,,,,,,,,,,,
293791,2022-11-15_21h04.50.808,vts_reward_expectancy_bt,2022.2.4,Win32,144.092219,Firefox,2560,1440,,,,,0,747,,,,,,,,,,,,,,,,,Y,181,circle,1,0,,,2,,,,,,,,,,,,,switch,number,numSwt,k,0.595,vtsPrac,25,0,25,0,1,,,,,,,,,,,,,,,,,,,,,,,
293791,2022-11-15_21h04.50.808,vts_reward_expectancy_bt,2022.2.4,Win32,144.092219,Firefox,2560,1440,,,,,0,747,,,,,,,,,,,,,,,,,U,132,hexagon,1,0,,,2,,,,,,,,,,,,,repeat,number,numRpt,j,0.549,vtsPrac,26,0,26,0,1,,,,,,,,,,,,,,,,,,,,,,,
293791,2022-11-15_21h04.50.808,vts_reward_expectancy_bt,2022.2.4,Win32,144.092219,Firefox,2560,1440,,,,,0,747,,,,,,,,,,,,,,,,,F,174,star,1,0,,,2,,,,,,,,,,,,,switch,letter,lettSwt,d,0.598,vtsPrac,27,0,27,0,1,,,,,,,,,,,,,,,,,,,,,,,
293791,2022-11-15_21h04.50.808,vts_reward_expectancy_bt,2022.2.4,Win32,144.092219,Firefox,2560,1440,,,,,0,747,,,,,,,,,,,,,,,,,D,167,star,1,0,,,2,,,,,,,,,,,,,repeat,letter,lettRpt,d,0.553,vtsPrac,28,0,28,0,1,,,,,,,,,,,,,,,,,,,,,,,
293791,2022-11-15_21h04.50.808,vts_reward_expectancy_bt,2022.2.4,Win32,144.092219,Firefox,2560,1440,,,,,0,747,,,,,,,,,,,,,,,,,B,132,triangle,1,0,,,2,,,,,,,,,,,,,repeat,letter,lettRpt,d,0.867,vtsPrac,29,0,29,0,1,,,,,,,,,,,,,,,,,,,,,,,
293791,2022-11-15_21h04.50.808,vts_reward_expectancy_bt,2022.2.4,Win32,144.092219,Firefox,2560,1440,,,,,0,747,,,,,,,,,,,,,,,,,S,139,star,1,0,,,2,,,,,,,,,,,,,repeat,letter,lettRpt,f,0.713,vtsPrac,30,0,30,0,1,,,,,,,,,,,,,,,,,,,,,,,
293791,2022-11-15_21h04.50.808,vts_reward_expectancy_bt,2022.2.4,Win32,144.092219,Firefox,2560,1440,,,,,0,747,,,,,,,,,,,,,,,,,H,174,hexagon,1,0,,,2,,,,,,,,,,,,,repeat,letter,lettRpt,d,0.666,vtsPrac,31,0,31,0,1,,,,,,,,,,,,,,,,,,,,,,,
293791,2022-11-15_21h04.50.808,vts_reward_expectancy_bt,2022.2.4,Win32,144.092219,Firefox,2560,1440,,,,,0,747,,,,,,,,,,,,,,,,,B,132,hexagon,-1,0,,,3,,,,,,,,,,,,,switch,no_choice,NA,,,vtsPrac,0,0,0,0,1,,,,,,,,,,,,,,,,,,,,,,,
293791,2022-11-15_21h04.50.808,vts_reward_expectancy_bt,2022.2.4,Win32,144.092219,Firefox,2560,1440,,,,,0,747,,,,,,,,,,,,,,,,,Y,146,circle,1,0,,,3,,,,,,,,,,,,,switch,letter,lettSwt,f,2.073,vtsPrac,1,0,1,0,1,,,,,,,,,,,,,,,,,,,,,,,
293791,2022-11-15_21h04.50.808,vts_reward_expectancy_bt,2022.2.4,Win32,144.092219,Firefox,2560,1440,,,,,0,747,,,,,,,,,,,,,,,,,D,167,hexagon,1,0,,,3,,,,,,,,,,,,,repeat,letter,lettRpt,d,0.681,vtsPrac,2,0,2,0,1,,,,,,,,,,,,,,,,,,,,,,,
293791,2022-11-15_21h04.50.808,vts_reward_expectancy_bt,2022.2.4,Win32,144.092219,Firefox,2560,1440,,,,,0,747,,,,,,,,,,,,,,,,,H,125,circle,1,0,,,3,,,,,,,,,,,,,switch,number,numSwt,j,0.668,vtsPrac,3,0,3,0,1,,,,,,,,,,,,,,,,,,,,,,,
293791,2022-11-15_21h04.50.808,vts_reward_expectancy_bt,2022.2.4,Win32,144.092219,Firefox,2560,1440,,,,,0,747,,,,,,,,,,,,,,,,,B,132,hexagon,1,0,,,3,,,,,,,,,,,,,repeat,number,numRpt,j,0.351,vtsPrac,4,0,4,0,1,,,,,,,,,,,,,,,,,,,,,,,
293791,2022-11-15_21h04.50.808,vts_reward_expectancy_bt,2022.2.4,Win32,144.092219,Firefox,2560,1440,,,,,0,747,,,,,,,,,,,,,,,,,Y,146,triangle,1,0,,,3,,,,,,,,,,,,,switch,letter,lettSwt,f,0.414,vtsPrac,5,0,5,0,1,,,,,,,,,,,,,,,,,,,,,,,
293791,2022-11-15_21h04.50.808,vts_reward_expectancy_bt,2022.2.4,Win32,144.092219,Firefox,2560,1440,,,,,0,747,,,,,,,,,,,,,,,,,D,167,circle,1,0,,,3,,,,,,,,,,,,,repeat,letter,lettRpt,d,0.493,vtsPrac,6,0,6,0,1,,,,,,,,,,,,,,,,,,,,,,,
293791,2022-11-15_21h04.50.808,vts_reward_expectancy_bt,2022.2.4,Win32,144.092219,Firefox,2560,1440,,,,,0,747,,,,,,,,,,,,,,,,,H,125,triangle,1,0,,,3,,,,,,,,,,,,,switch,number,numSwt,j,0.376,vtsPrac,7,0,7,0,1,,,,,,,,,,,,,,,,,,,,,,,
293791,2022-11-15_21h04.50.808,vts_reward_expectancy_bt,2022.2.4,Win32,144.092219,Firefox,2560,1440,,,,,0,747,,,,,,,,,,,,,,,,,S,174,circle,1,0,,,3,,,,,,,,,,,,,repeat,number,numRpt,k,0.603,vtsPrac,8,0,8,0,1,,,,,,,,,,,,,,,,,,,,,,,
293791,2022-11-15_21h04.50.808,vts_reward_expectancy_bt,2022.2.4,Win32,144.092219,Firefox,2560,1440,,,,,0,747,,,,,,,,,,,,,,,,,Y,132,triangle,1,0,,,3,,,,,,,,,,,,,switch,letter,lettSwt,f,0.46,vtsPrac,9,0,9,0,1,,,,,,,,,,,,,,,,,,,,,,,
293791,2022-11-15_21h04.50.808,vts_reward_expectancy_bt,2022.2.4,Win32,144.092219,Firefox,2560,1440,,,,,0,747,,,,,,,,,,,,,,,,,F,167,triangle,1,0,,,3,,,,,,,,,,,,,repeat,letter,lettRpt,d,0.633,vtsPrac,10,0,10,0,1,,,,,,,,,,,,,,,,,,,,,,,
293791,2022-11-15_21h04.50.808,vts_reward_expectancy_bt,2022.2.4,Win32,144.092219,Firefox,2560,1440,,,,,0,747,,,,,,,,,,,,,,,,,H,160,star,1,0,,,3,,,,,,,,,,,,,switch,number,numSwt,k,0.757,vtsPrac,11,0,11,0,1,,,,,,,,,,,,,,,,,,,,,,,
293791,2022-11-15_21h04.50.808,vts_reward_expectancy_bt,2022.2.4,Win32,144.092219,Firefox,2560,1440,,,,,0,747,,,,,,,,,,,,,,,,,S,125,circle,1,0,,,3,,,,,,,,,,,,,repeat,number,numRpt,j,0.443,vtsPrac,12,0,12,0,1,,,,,,,,,,,,,,,,,,,,,,,
293791,2022-11-15_21h04.50.808,vts_reward_expectancy_bt,2022.2.4,Win32,144.092219,Firefox,2560,1440,,,,,0,747,,,,,,,,,,,,,,,,,B,174,hexagon,1,0,,,3,,,,,,,,,,,,,switch,letter,lettSwt,d,0.602,vtsPrac,13,0,13,0,1,,,,,,,,,,,,,,,,,,,,,,,
293791,2022-11-15_21h04.50.808,vts_reward_expectancy_bt,2022.2.4,Win32,144.092219,Firefox,2560,1440,,,,,0,747,,,,,,,,,,,,,,,,,Y,132,hexagon,1,0,,,3,,,,,,,,,,,,,repeat,letter,lettRpt,f,0.403,vtsPrac,14,0,14,0,1,,,,,,,,,,,,,,,,,,,,,,,
293791,2022-11-15_21h04.50.808,vts_reward_expectancy_bt,2022.2.4,Win32,144.092219,Firefox,2560,1440,,,,,0,747,,,,,,,,,,,,,,,,,D,139,star,1,0,,,3,,,,,,,,,,,,,repeat,letter,lettRpt,d,0.367,vtsPrac,15,0,15,0,1,,,,,,,,,,,,,,,,,,,,,,,
293791,2022-11-15_21h04.50.808,vts_reward_expectancy_bt,2022.2.4,Win32,144.092219,Firefox,2560,1440,,,,,0,747,,,,,,,,,,,,,,,,,S,167,triangle,1,0,,,3,,,,,,,,,,,,,switch,number,numSwt,k,0.665,vtsPrac,16,0,16,0,1,,,,,,,,,,,,,,,,,,,,,,,
293791,2022-11-15_21h04.50.808,vts_reward_expectancy_bt,2022.2.4,Win32,144.092219,Firefox,2560,1440,,,,,0,747,,,,,,,,,,,,,,,,,Y,160,circle,1,0,,,3,,,,,,,,,,,,,repeat,number,numRpt,k,0.422,vtsPrac,17,0,17,0,1,,,,,,,,,,,,,,,,,,,,,,,
293791,2022-11-15_21h04.50.808,vts_reward_expectancy_bt,2022.2.4,Win32,144.092219,Firefox,2560,1440,,,,,0,747,,,,,,,,,,,,,,,,,D,139,triangle,1,0,,,3,,,,,,,,,,,,,repeat,number,numRpt,j,0.638,vtsPrac,18,0,18,0,1,,,,,,,,,,,,,,,,,,,,,,,
293791,2022-11-15_21h04.50.808,vts_reward_expectancy_bt,2022.2.4,Win32,144.092219,Firefox,2560,1440,,,,,0,747,,,,,,,,,,,,,,,,,F,174,star,1,0,,,3,,,,,,,,,,,,,switch,letter,lettSwt,d,0.757,vtsPrac,19,0,19,0,1,,,,,,,,,,,,,,,,,,,,,,,
293791,2022-11-15_21h04.50.808,vts_reward_expectancy_bt,2022.2.4,Win32,144.092219,Firefox,2560,1440,,,,,0,747,,,,,,,,,,,,,,,,,B,160,triangle,1,0,,,3,,,,,,,,,,,,,repeat,letter,lettRpt,d,0.503,vtsPrac,20,0,20,0,1,,,,,,,,,,,,,,,,,,,,,,,
293791,2022-11-15_21h04.50.808,vts_reward_expectancy_bt,2022.2.4,Win32,144.092219,Firefox,2560,1440,,,,,0,747,,,,,,,,,,,,,,,,,Y,181,hexagon,1,0,,,3,,,,,,,,,,,,,repeat,letter,lettRpt,f,0.539,vtsPrac,21,0,21,0,1,,,,,,,,,,,,,,,,,,,,,,,
293791,2022-11-15_21h04.50.808,vts_reward_expectancy_bt,2022.2.4,Win32,144.092219,Firefox,2560,1440,,,,,0,747,,,,,,,,,,,,,,,,,F,132,star,1,0,,,3,,,,,,,,,,,,,repeat,letter,lettRpt,d,0.409,vtsPrac,22,0,22,0,1,,,,,,,,,,,,,,,,,,,,,,,
293791,2022-11-15_21h04.50.808,vts_reward_expectancy_bt,2022.2.4,Win32,144.092219,Firefox,2560,1440,,,,,0,747,,,,,,,,,,,,,,,,,D,125,triangle,1,0,,,3,,,,,,,,,,,,,switch,number,numSwt,j,0.555,vtsPrac,23,0,23,0,1,,,,,,,,,,,,,,,,,,,,,,,
293791,2022-11-15_21h04.50.808,vts_reward_expectancy_bt,2022.2.4,Win32,144.092219,Firefox,2560,1440,,,,,0,747,,,,,,,,,,,,,,,,,H,132,hexagon,1,0,,,3,,,,,,,,,,,,,repeat,number,numRpt,j,0.831,vtsPrac,24,0,24,0,1,,,,,,,,,,,,,,,,,,,,,,,
293791,2022-11-15_21h04.50.808,vts_reward_expectancy_bt,2022.2.4,Win32,144.092219,Firefox,2560,1440,,,,,0,747,,,,,,,,,,,,,,,,,F,125,triangle,1,0,,,3,,,,,,,,,,,,,repeat,number,numRpt,j,0.439,vtsPrac,25,0,25,0,1,,,,,,,,,,,,,,,,,,,,,,,
293791,2022-11-15_21h04.50.808,vts_reward_expectancy_bt,2022.2.4,Win32,144.092219,Firefox,2560,1440,,,,,0,747,,,,,,,,,,,,,,,,,U,174,triangle,1,0,,,3,,,,,,,,,,,,,switch,letter,lettSwt,f,0.507,vtsPrac,26,0,26,0,1,,,,,,,,,,,,,,,,,,,,,,,
293791,2022-11-15_21h04.50.808,vts_reward_expectancy_bt,2022.2.4,Win32,144.092219,Firefox,2560,1440,,,,,0,747,,,,,,,,,,,,,,,,,B,181,hexagon,1,0,,,3,,,,,,,,,,,,,repeat,letter,lettRpt,d,0.77,vtsPrac,27,0,27,0,1,,,,,,,,,,,,,,,,,,,,,,,
293791,2022-11-15_21h04.50.808,vts_reward_expectancy_bt,2022.2.4,Win32,144.092219,Firefox,2560,1440,,,,,0,747,,,,,,,,,,,,,,,,,B,174,circle,1,0,,,3,,,,,,,,,,,,,repeat,letter,lettRpt,d,0.593,vtsPrac,28,0,28,0,1,,,,,,,,,,,,,,,,,,,,,,,
293791,2022-11-15_21h04.50.808,vts_reward_expectancy_bt,2022.2.4,Win32,144.092219,Firefox,2560,1440,,,,,0,747,,,,,,,,,,,,,,,,,S,160,star,1,0,,,3,,,,,,,,,,,,,repeat,letter,lettRpt,f,0.571,vtsPrac,29,0,29,0,1,,,,,,,,,,,,,,,,,,,,,,,
293791,2022-11-15_21h04.50.808,vts_reward_expectancy_bt,2022.2.4,Win32,144.092219,Firefox,2560,1440,,,,,0,747,,,,,,,,,,,,,,,,,U,125,hexagon,1,0,,,3,,,,,,,,,,,,,switch,number,numSwt,j,0.437,vtsPrac,30,0,30,0,1,,,,,,,,,,,,,,,,,,,,,,,
293791,2022-11-15_21h04.50.808,vts_reward_expectancy_bt,2022.2.4,Win32,144.092219,Firefox,2560,1440,,,,,0,747,,,,,,,,,,,,,,,,,W,181,star,1,0,,,3,,,,,,,,,,,,,repeat,number,numRpt,k,0.873,vtsPrac,31,0,31,0,1,,,,,,,,,,,,,,,,,,,,,,,
293791,2022-11-15_21h04.50.808,vts_reward_expectancy_bt,2022.2.4,Win32,144.092219,Firefox,2560,1440,,,,,,,,,,,,,,,,,,,,,,,,,,,,,,,,,,,,,,,,,,,,,,,,,,,,,,,,,,,,,,,,,,,,,,,,,,,,
293791,2022-11-15_21h04.50.808,vts_reward_expectancy_bt,2022.2.4,Win32,144.092219,Firefox,2560,1440,,,,,,,,,,,,,,,,,,,,,,,,,,,,,,,,,,,,,,,,,,,,,,,,,,,,,,,,,,,,,,,,,,,,,,,,,,,,
293791,2022-11-15_21h04.50.808,vts_reward_expectancy_bt,2022.2.4,Win32,144.092219,Firefox,2560,1440,,,,,0,747,,,,,,,,,,,,,,,,,B,125,triangle,1,0,,,,,,,,,,,,,,,,switch,letter,lettSwt,d,0.54,noRew,,,,,,0,0,0,0,0,1,,,,,,,,,,,,,,,,,
293791,2022-11-15_21h04.50.808,vts_reward_expectancy_bt,2022.2.4,Win32,144.092219,Firefox,2560,1440,,,,,0,747,,,,,,,,,,,,,,,,,H,181,circle,1,0,,,,,,,,,,,,,,,,repeat,letter,lettRpt,d,0.699,noRew,,,,,,0,1,0,1,0,1,,,,,,,,,,,,,,,,,
293791,2022-11-15_21h04.50.808,vts_reward_expectancy_bt,2022.2.4,Win32,144.092219,Firefox,2560,1440,,,,,0,747,,,,,,,,,,,,,,,,,Y,167,triangle,1,0,,,,,,,,,,,,,,,,repeat,letter,lettRpt,f,0.422,noRew,,,,,,0,2,0,2,0,1,,,,,,,,,,,,,,,,,
293791,2022-11-15_21h04.50.808,vts_reward_expectancy_bt,2022.2.4,Win32,144.092219,Firefox,2560,1440,,,,,0,747,,,,,,,,,,,,,,,,,W,160,circle,1,0,,,,,,,,,,,,,,,,switch,number,numSwt,k,0.576,noRew,,,,,,0,3,0,3,0,1,,,,,,,,,,,,,,,,,
293791,2022-11-15_21h04.50.808,vts_reward_expectancy_bt,2022.2.4,Win32,144.092219,Firefox,2560,1440,,,,,0,747,,,,,,,,,,,,,,,,,B,125,hexagon,1,0,,,,,,,,,,,,,,,,repeat,number,numRpt,j,0.488,noRew,,,,,,0,4,0,4,0,1,,,,,,,,,,,,,,,,,
293791,2022-11-15_21h04.50.808,vts_reward_expectancy_bt,2022.2.4,Win32,144.092219,Firefox,2560,1440,,,,,0,747,,,,,,,,,,,,,,,,,H,181,triangle,1,0,,,,,,,,,,,,,,,,repeat,number,numRpt,k,0.521,noRew,,,,,,0,5,0,5,0,1,,,,,,,,,,,,,,,,,
293791,2022-11-15_21h04.50.808,vts_reward_expectancy_bt,2022.2.4,Win32,144.092219,Firefox,2560,1440,,,,,0,747,,,,,,,,,,,,,,,,,Y,167,star,1,0,,,,,,,,,,,,,,,,switch,letter,lettSwt,f,0.634,noRew,,,,,,0,6,0,6,0,1,,,,,,,,,,,,,,,,,
293791,2022-11-15_21h04.50.808,vts_reward_expectancy_bt,2022.2.4,Win32,144.092219,Firefox,2560,1440,,,,,0,747,,,,,,,,,,,,,,,,,W,160,circle,1,0,,,,,,,,,,,,,,,,repeat,letter,lettRpt,f,0.589,noRew,,,,,,0,7,0,7,0,1,,,,,,,,,,,,,,,,,
293791,2022-11-15_21h04.50.808,vts_reward_expectancy_bt,2022.2.4,Win32,144.092219,Firefox,2560,1440,,,,,0,747,,,,,,,,,,,,,,,,,B,125,star,1,0,,,,,,,,,,,,,,,,repeat,letter,lettRpt,d,0.546,noRew,,,,,,0,8,0,8,0,1,,,,,,,,,,,,,,,,,
293791,2022-11-15_21h04.50.808,vts_reward_expectancy_bt,2022.2.4,Win32,144.092219,Firefox,2560,1440,,,,,0,747,,,,,,,,,,,,,,,,,Y,132,circle,1,0,,,,,,,,,,,,,,,,repeat,letter,lettRpt,f,0.443,noRew,,,,,,0,9,0,9,0,1,,,,,,,,,,,,,,,,,
293791,2022-11-15_21h04.50.808,vts_reward_expectancy_bt,2022.2.4,Win32,144.092219,Firefox,2560,1440,,,,,0,747,,,,,,,,,,,,,,,,,H,181,triangle,1,0,,,,,,,,,,,,,,,,switch,number,numSwt,k,0.485,noRew,,,,,,0,10,0,10,0,1,,,,,,,,,,,,,,,,,
293791,2022-11-15_21h04.50.808,vts_reward_expectancy_bt,2022.2.4,Win32,144.092219,Firefox,2560,1440,,,,,0,747,,,,,,,,,,,,,,,,,D,174,star,1,0,,,,,,,,,,,,,,,,repeat,number,numRpt,k,0.47,noRew,,,,,,0,11,0,11,0,1,,,,,,,,,,,,,,,,,
293791,2022-11-15_21h04.50.808,vts_reward_expectancy_bt,2022.2.4,Win32,144.092219,Firefox,2560,1440,,,,,0,747,,,,,,,,,,,,,,,,,S,132,circle,1,0,,,,,,,,,,,,,,,,repeat,number,numRpt,j,0.527,noRew,,,,,,0,12,0,12,0,1,,,,,,,,,,,,,,,,,
293791,2022-11-15_21h04.50.808,vts_reward_expectancy_bt,2022.2.4,Win32,144.092219,Firefox,2560,1440,,,,,0,747,,,,,,,,,,,,,,,,,Y,167,hexagon,1,0,,,,,,,,,,,,,,,,repeat,number,numRpt,k,0.514,noRew,,,,,,0,13,0,13,0,1,,,,,,,,,,,,,,,,,
293791,2022-11-15_21h04.50.808,vts_reward_expectancy_bt,2022.2.4,Win32,144.092219,Firefox,2560,1440,,,,,0,747,,,,,,,,,,,,,,,,,U,160,circle,1,0,,,,,,,,,,,,,,,,repeat,number,numRpt,k,0.622,noRew,,,,,,0,14,0,14,0,1,,,,,,,,,,,,,,,,,
293791,2022-11-15_21h04.50.808,vts_reward_expectancy_bt,2022.2.4,Win32,144.092219,Firefox,2560,1440,,,,,0,747,,,,,,,,,,,,,,,,,F,174,star,1,0,,,,,,,,,,,,,,,,switch,letter,lettSwt,d,0.666,noRew,,,,,,0,15,0,15,0,1,,,,,,,,,,,,,,,,,
293791,2022-11-15_21h04.50.808,vts_reward_expectancy_bt,2022.2.4,Win32,144.092219,Firefox,2560,1440,,,,,0,747,,,,,,,,,,,,,,,,,F,146,star,1,0,,,,,,,,,,,,,,,,repeat,letter,lettRpt,d,0.771,noRew,,,,,,0,16,0,16,0,1,,,,,,,,,,,,,,,,,
293791,2022-11-15_21h04.50.808,vts_reward_expectancy_bt,2022.2.4,Win32,144.092219,Firefox,2560,1440,,,,,0,747,,,,,,,,,,,,,,,,,H,139,circle,1,0,,,,,,,,,,,,,,,,repeat,letter,lettRpt,d,0.638,noRew,,,,,,0,17,0,17,0,1,,,,,,,,,,,,,,,,,
293791,2022-11-15_21h04.50.808,vts_reward_expectancy_bt,2022.2.4,Win32,144.092219,Firefox,2560,1440,,,,,0,747,,,,,,,,,,,,,,,,,D,174,star,1,0,,,,,,,,,,,,,,,,repeat,letter,lettRpt,d,0.499,noRew,,,,,,0,18,0,18,0,1,,,,,,,,,,,,,,,,,
293791,2022-11-15_21h04.50.808,vts_reward_expectancy_bt,2022.2.4,Win32,144.092219,Firefox,2560,1440,,,,,0,747,,,,,,,,,,,,,,,,,S,167,hexagon,1,0,,,,,,,,,,,,,,,,repeat,letter,lettRpt,f,0.652,noRew,,,,,,0,19,0,19,0,1,,,,,,,,,,,,,,,,,
293791,2022-11-15_21h04.50.808,vts_reward_expectancy_bt,2022.2.4,Win32,144.092219,Firefox,2560,1440,,,,,0,747,,,,,,,,,,,,,,,,,H,139,hexagon,1,0,,,,,,,,,,,,,,,,switch,number,numSwt,j,0.604,noRew,,,,,,0,20,0,20,0,1,,,,,,,,,,,,,,,,,
293791,2022-11-15_21h04.50.808,vts_reward_expectancy_bt,2022.2.4,Win32,144.092219,Firefox,2560,1440,,,,,0,747,,,,,,,,,,,,,,,,,F,146,circle,1,0,,,,,,,,,,,,,,,,repeat,number,numRpt,j,0.485,noRew,,,,,,0,21,0,21,0,1,,,,,,,,,,,,,,,,,
293791,2022-11-15_21h04.50.808,vts_reward_expectancy_bt,2022.2.4,Win32,144.092219,Firefox,2560,1440,,,,,0,747,,,,,,,,,,,,,,,,,B,160,hexagon,1,0,,,,,,,,,,,,,,,,repeat,number,numRpt,k,0.473,noRew,,,,,,0,22,0,22,0,1,,,,,,,,,,,,,,,,,
293791,2022-11-15_21h04.50.808,vts_reward_expectancy_bt,2022.2.4,Win32,144.092219,Firefox,2560,1440,,,,,0,747,,,,,,,,,,,,,,,,,D,125,star,1,0,,,,,,,,,,,,,,,,repeat,number,numRpt,j,0.494,noRew,,,,,,0,23,0,23,0,1,,,,,,,,,,,,,,,,,
293791,2022-11-15_21h04.50.808,vts_reward_expectancy_bt,2022.2.4,Win32,144.092219,Firefox,2560,1440,,,,,0,747,,,,,,,,,,,,,,,,,S,160,hexagon,1,0,,,,,,,,,,,,,,,,repeat,number,numRpt,k,0.601,noRew,,,,,,0,24,0,24,0,1,,,,,,,,,,,,,,,,,
293791,2022-11-15_21h04.50.808,vts_reward_expectancy_bt,2022.2.4,Win32,144.092219,Firefox,2560,1440,,,,,0,747,,,,,,,,,,,,,,,,,U,174,circle,1,0,,,,,,,,,,,,,,,,repeat,number,numRpt,k,0.463,noRew,,,,,,0,25,0,25,0,1,,,,,,,,,,,,,,,,,
293791,2022-11-15_21h04.50.808,vts_reward_expectancy_bt,2022.2.4,Win32,144.092219,Firefox,2560,1440,,,,,0,747,,,,,,,,,,,,,,,,,H,125,star,1,0,,,,,,,,,,,,,,,,repeat,number,numRpt,j,0.486,noRew,,,,,,0,26,0,26,0,1,,,,,,,,,,,,,,,,,
293791,2022-11-15_21h04.50.808,vts_reward_expectancy_bt,2022.2.4,Win32,144.092219,Firefox,2560,1440,,,,,0,747,,,,,,,,,,,,,,,,,F,139,circle,1,0,,,,,,,,,,,,,,,,switch,letter,lettSwt,d,0.658,noRew,,,,,,0,27,0,27,0,1,,,,,,,,,,,,,,,,,
293791,2022-11-15_21h04.50.808,vts_reward_expectancy_bt,2022.2.4,Win32,144.092219,Firefox,2560,1440,,,,,0,747,,,,,,,,,,,,,,,,,U,139,circle,1,0,,,,,,,,,,,,,,,,repeat,letter,lettRpt,f,0.551,noRew,,,,,,0,28,0,28,0,1,,,,,,,,,,,,,,,,,
293791,2022-11-15_21h04.50.808,vts_reward_expectancy_bt,2022.2.4,Win32,144.092219,Firefox,2560,1440,,,,,0,747,,,,,,,,,,,,,,,,,W,167,hexagon,1,0,,,,,,,,,,,,,,,,repeat,letter,lettRpt,f,0.576,noRew,,,,,,0,29,0,29,0,1,,,,,,,,,,,,,,,,,
293791,2022-11-15_21h04.50.808,vts_reward_expectancy_bt,2022.2.4,Win32,144.092219,Firefox,2560,1440,,,,,0,747,,,,,,,,,,,,,,,,,S,146,star,1,0,,,,,,,,,,,,,,,,repeat,letter,lettRpt,f,0.611,noRew,,,,,,0,30,0,30,0,1,,,,,,,,,,,,,,,,,
293791,2022-11-15_21h04.50.808,vts_reward_expectancy_bt,2022.2.4,Win32,144.092219,Firefox,2560,1440,,,,,0,747,,,,,,,,,,,,,,,,,B,174,triangle,1,0,,,,,,,,,,,,,,,,repeat,letter,lettRpt,d,0.561,noRew,,,,,,0,31,0,31,0,1,,,,,,,,,,,,,,,,,
293791,2022-11-15_21h04.50.808,vts_reward_expectancy_bt,2022.2.4,Win32,144.092219,Firefox,2560,1440,,,,,0,747,,,,,,,,,,,,,,,,,U,139,circle,1,0,,,,,,,,,,,,,,,,repeat,letter,lettRpt,f,0.504,noRew,,,,,,0,32,0,32,0,1,,,,,,,,,,,,,,,,,
293791,2022-11-15_21h04.50.808,vts_reward_expectancy_bt,2022.2.4,Win32,144.092219,Firefox,2560,1440,,,,,0,747,,,,,,,,,,,,,,,,,F,146,star,0,0,,,,,,,,,,,,,,,,repeat,letter,NA,f,0.458,noRew,,,,,,0,33,0,33,0,1,,,,,,,,,,,,,,,,,
293791,2022-11-15_21h04.50.808,vts_reward_expectancy_bt,2022.2.4,Win32,144.092219,Firefox,2560,1440,,,,,0,747,,,,,,,,,,,,,,,,,Y,167,triangle,1,1,,,,,,,,,,,,,,,,switch,number,numSwt,k,0.643,noRew,,,,,,0,34,0,34,0,1,,,,,,,,,,,,,,,,,
293791,2022-11-15_21h04.50.808,vts_reward_expectancy_bt,2022.2.4,Win32,144.092219,Firefox,2560,1440,,,,,0,747,,,,,,,,,,,,,,,,,S,160,hexagon,1,0,,,,,,,,,,,,,,,,repeat,number,numRpt,k,0.546,noRew,,,,,,0,35,0,35,0,1,,,,,,,,,,,,,,,,,
293791,2022-11-15_21h04.50.808,vts_reward_expectancy_bt,2022.2.4,Win32,144.092219,Firefox,2560,1440,,,,,0,747,,,,,,,,,,,,,,,,,W,181,star,1,0,,,,,,,,,,,,,,,,repeat,number,numRpt,k,0.697,noRew,,,,,,0,36,0,36,0,1,,,,,,,,,,,,,,,,,
293791,2022-11-15_21h04.50.808,vts_reward_expectancy_bt,2022.2.4,Win32,144.092219,Firefox,2560,1440,,,,,0,747,,,,,,,,,,,,,,,,,U,132,hexagon,1,0,,,,,,,,,,,,,,,,repeat,number,numRpt,j,0.542,noRew,,,,,,0,37,0,37,0,1,,,,,,,,,,,,,,,,,
293791,2022-11-15_21h04.50.808,vts_reward_expectancy_bt,2022.2.4,Win32,144.092219,Firefox,2560,1440,,,,,0,747,,,,,,,,,,,,,,,,,Y,125,hexagon,1,0,,,,,,,,,,,,,,,,repeat,number,numRpt,j,0.432,noRew,,,,,,0,38,0,38,0,1,,,,,,,,,,,,,,,,,
293791,2022-11-15_21h04.50.808,vts_reward_expectancy_bt,2022.2.4,Win32,144.092219,Firefox,2560,1440,,,,,0,747,,,,,,,,,,,,,,,,,H,167,circle,1,0,,,,,,,,,,,,,,,,repeat,number,numRpt,k,0.643,noRew,,,,,,0,39,0,39,0,1,,,,,,,,,,,,,,,,,
293791,2022-11-15_21h04.50.808,vts_reward_expectancy_bt,2022.2.4,Win32,144.092219,Firefox,2560,1440,,,,,0,747,,,,,,,,,,,,,,,,,S,160,circle,1,0,,,,,,,,,,,,,,,,repeat,number,numRpt,k,0.519,noRew,,,,,,0,40,0,40,0,1,,,,,,,,,,,,,,,,,
293791,2022-11-15_21h04.50.808,vts_reward_expectancy_bt,2022.2.4,Win32,144.092219,Firefox,2560,1440,,,,,0,747,,,,,,,,,,,,,,,,,B,174,star,1,0,,,,,,,,,,,,,,,,repeat,number,numRpt,k,0.561,noRew,,,,,,0,41,0,41,0,1,,,,,,,,,,,,,,,,,
293791,2022-11-15_21h04.50.808,vts_reward_expectancy_bt,2022.2.4,Win32,144.092219,Firefox,2560,1440,,,,,0,747,,,,,,,,,,,,,,,,,H,125,triangle,1,0,,,,,,,,,,,,,,,,switch,letter,lettSwt,d,0.804,noRew,,,,,,0,42,0,42,0,1,,,,,,,,,,,,,,,,,
293791,2022-11-15_21h04.50.808,vts_reward_expectancy_bt,2022.2.4,Win32,144.092219,Firefox,2560,1440,,,,,0,747,,,,,,,,,,,,,,,,,W,181,hexagon,1,0,,,,,,,,,,,,,,,,repeat,letter,lettRpt,f,0.645,noRew,,,,,,0,43,0,43,0,1,,,,,,,,,,,,,,,,,
293791,2022-11-15_21h04.50.808,vts_reward_expectancy_bt,2022.2.4,Win32,144.092219,Firefox,2560,1440,,,,,0,747,,,,,,,,,,,,,,,,,F,181,star,1,0,,,,,,,,,,,,,,,,repeat,letter,lettRpt,d,0.646,noRew,,,,,,0,44,0,44,0,1,,,,,,,,,,,,,,,,,
293791,2022-11-15_21h04.50.808,vts_reward_expectancy_bt,2022.2.4,Win32,144.092219,Firefox,2560,1440,,,,,0,747,,,,,,,,,,,,,,,,,U,132,circle,1,0,,,,,,,,,,,,,,,,repeat,letter,lettRpt,f,0.534,noRew,,,,,,0,45,0,45,0,1,,,,,,,,,,,,,,,,,
293791,2022-11-15_21h04.50.808,vts_reward_expectancy_bt,2022.2.4,Win32,144.092219,Firefox,2560,1440,,,,,0,747,,,,,,,,,,,,,,,,,D,146,circle,1,0,,,,,,,,,,,,,,,,repeat,letter,lettRpt,d,0.581,noRew,,,,,,0,46,0,46,0,1,,,,,,,,,,,,,,,,,
293791,2022-11-15_21h04.50.808,vts_reward_expectancy_bt,2022.2.4,Win32,144.092219,Firefox,2560,1440,,,,,0,747,,,,,,,,,,,,,,,,,W,160,star,1,0,,,,,,,,,,,,,,,,repeat,letter,lettRpt,f,0.479,noRew,,,,,,0,47,0,47,0,1,,,,,,,,,,,,,,,,,
293791,2022-11-15_21h04.50.808,vts_reward_expectancy_bt,2022.2.4,Win32,144.092219,Firefox,2560,1440,,,,,0,747,,,,,,,,,,,,,,,,,H,160,triangle,1,0,,,,,,,,,,,,,,,,repeat,letter,lettRpt,d,0.614,noRew,,,,,,0,48,0,48,0,1,,,,,,,,,,,,,,,,,
293791,2022-11-15_21h04.50.808,vts_reward_expectancy_bt,2022.2.4,Win32,144.092219,Firefox,2560,1440,,,,,0,747,,,,,,,,,,,,,,,,,S,181,circle,1,0,,,,,,,,,,,,,,,,repeat,letter,lettRpt,f,0.971,noRew,,,,,,0,49,0,49,0,1,,,,,,,,,,,,,,,,,
293791,2022-11-15_21h04.50.808,vts_reward_expectancy_bt,2022.2.4,Win32,144.092219,Firefox,2560,1440,,,,,0,747,,,,,,,,,,,,,,,,,B,125,circle,1,0,,,,,,,,,,,,,,,,repeat,letter,lettRpt,d,0.55,noRew,,,,,,0,50,0,50,0,1,,,,,,,,,,,,,,,,,
293791,2022-11-15_21h04.50.808,vts_reward_expectancy_bt,2022.2.4,Win32,144.092219,Firefox,2560,1440,,,,,0,747,,,,,,,,,,,,,,,,,Y,174,triangle,1,0,,,,,,,,,,,,,,,,switch,number,numSwt,k,0.693,noRew,,,,,,0,51,0,51,0,1,,,,,,,,,,,,,,,,,
293791,2022-11-15_21h04.50.808,vts_reward_expectancy_bt,2022.2.4,Win32,144.092219,Firefox,2560,1440,,,,,0,747,,,,,,,,,,,,,,,,,F,139,star,1,0,,,,,,,,,,,,,,,,repeat,number,numRpt,j,0.598,noRew,,,,,,0,52,0,52,0,1,,,,,,,,,,,,,,,,,
293791,2022-11-15_21h04.50.808,vts_reward_expectancy_bt,2022.2.4,Win32,144.092219,Firefox,2560,1440,,,,,0,747,,,,,,,,,,,,,,,,,Y,160,triangle,1,0,,,,,,,,,,,,,,,,switch,letter,lettSwt,f,0.638,noRew,,,,,,0,53,0,53,0,1,,,,,,,,,,,,,,,,,
293791,2022-11-15_21h04.50.808,vts_reward_expectancy_bt,2022.2.4,Win32,144.092219,Firefox,2560,1440,,,,,0,747,,,,,,,,,,,,,,,,,D,174,triangle,0,0,,,,,,,,,,,,,,,,switch,number,NA,j,0.921,noRew,,,,,,0,54,0,54,0,1,,,,,,,,,,,,,,,,,
293791,2022-11-15_21h04.50.808,vts_reward_expectancy_bt,2022.2.4,Win32,144.092219,Firefox,2560,1440,,,,,0,747,,,,,,,,,,,,,,,,,H,132,star,1,1,,,,,,,,,,,,,,,,repeat,number,numRpt,j,0.629,noRew,,,,,,0,55,0,55,0,1,,,,,,,,,,,,,,,,,
293791,2022-11-15_21h04.50.808,vts_reward_expectancy_bt,2022.2.4,Win32,144.092219,Firefox,2560,1440,,,,,0,747,,,,,,,,,,,,,,,,,F,125,star,1,0,,,,,,,,,,,,,,,,repeat,number,numRpt,j,0.562,noRew,,,,,,0,56,0,56,0,1,,,,,,,,,,,,,,,,,
293791,2022-11-15_21h04.50.808,vts_reward_expectancy_bt,2022.2.4,Win32,144.092219,Firefox,2560,1440,,,,,0,747,,,,,,,,,,,,,,,,,D,167,circle,1,0,,,,,,,,,,,,,,,,repeat,number,numRpt,k,0.723,noRew,,,,,,0,57,0,57,0,1,,,,,,,,,,,,,,,,,
293791,2022-11-15_21h04.50.808,vts_reward_expectancy_bt,2022.2.4,Win32,144.092219,Firefox,2560,1440,,,,,0,747,,,,,,,,,,,,,,,,,U,174,triangle,1,0,,,,,,,,,,,,,,,,repeat,number,numRpt,k,0.577,noRew,,,,,,0,58,0,58,0,1,,,,,,,,,,,,,,,,,
293791,2022-11-15_21h04.50.808,vts_reward_expectancy_bt,2022.2.4,Win32,144.092219,Firefox,2560,1440,,,,,0,747,,,,,,,,,,,,,,,,,Y,160,circle,1,0,,,,,,,,,,,,,,,,switch,letter,lettSwt,f,0.556,noRew,,,,,,0,59,0,59,0,1,,,,,,,,,,,,,,,,,
293791,2022-11-15_21h04.50.808,vts_reward_expectancy_bt,2022.2.4,Win32,144.092219,Firefox,2560,1440,,,,,0,747,,,,,,,,,,,,,,,,,F,146,circle,1,0,,,,,,,,,,,,,,,,repeat,letter,lettRpt,d,0.664,noRew,,,,,,0,60,0,60,0,1,,,,,,,,,,,,,,,,,
293791,2022-11-15_21h04.50.808,vts_reward_expectancy_bt,2022.2.4,Win32,144.092219,Firefox,2560,1440,,,,,0,747,,,,,,,,,,,,,,,,,U,167,star,1,0,,,,,,,,,,,,,,,,repeat,letter,lettRpt,f,0.63,noRew,,,,,,0,61,0,61,0,1,,,,,,,,,,,,,,,,,
293791,2022-11-15_21h04.50.808,vts_reward_expectancy_bt,2022.2.4,Win32,144.092219,Firefox,2560,1440,,,,,0,747,,,,,,,,,,,,,,,,,Y,174,triangle,1,0,,,,,,,,,,,,,,,,repeat,letter,lettRpt,f,0.611,noRew,,,,,,0,62,0,62,0,1,,,,,,,,,,,,,,,,,
293791,2022-11-15_21h04.50.808,vts_reward_expectancy_bt,2022.2.4,Win32,144.092219,Firefox,2560,1440,,,,,0,747,,,,,,,,,,,,,,,,,H,181,circle,1,0,,,,,,,,,,,,,,,,switch,number,numSwt,k,0.633,noRew,,,,,,0,63,0,63,0,1,,,,,,,,,,,,,,,,,
293791,2022-11-15_21h04.50.808,vts_reward_expectancy_bt,2022.2.4,Win32,144.092219,Firefox,2560,1440,,,,,,,,,,,,,,,,,,,,,,,,,,,,,,,,,,,,,,,,,,,,,,,,,,,,,,,,,,,,,,,,,,,,,,,,,,,,
293791,2022-11-15_21h04.50.808,vts_reward_expectancy_bt,2022.2.4,Win32,144.092219,Firefox,2560,1440,,,,,1,748,,,,,,,,,,,,,,,,,H,174,star,1,0,,,,,,,,,,,,,,,,switch,letter,lettSwt,d,0.865,Lo,,,,,,0,,,,,,space,6.5,high,0,0,0,0,1,,,,,,,,,
293791,2022-11-15_21h04.50.808,vts_reward_expectancy_bt,2022.2.4,Win32,144.092219,Firefox,2560,1440,,,,,10,758,,,,,,,,,,,,,,,,,D,139,triangle,1,0,,,,,,,,,,,,,,,,repeat,letter,lettRpt,d,0.451,Hi,,,,,,0,,,,,,,,high,1,0,1,0,1,,,,,,,,,
293791,2022-11-15_21h04.50.808,vts_reward_expectancy_bt,2022.2.4,Win32,144.092219,Firefox,2560,1440,,,,,0,758,,,,,,,,,,,,,,,,,S,132,hexagon,0,0,,,,,,,,,,,,,,,,repeat,letter,NA,d,0.362,Hi,,,,,,0,,,,,,,,high,2,0,2,0,1,,,,,,,,,
293791,2022-11-15_21h04.50.808,vts_reward_expectancy_bt,2022.2.4,Win32,144.092219,Firefox,2560,1440,,,,,1,759,,,,,,,,,,,,,,,,,W,167,circle,1,1,,,,,,,,,,,,,,,,repeat,letter,lettRpt,f,0.59,Lo,,,,,,0,,,,,,,,high,3,0,3,0,1,,,,,,,,,
293791,2022-11-15_21h04.50.808,vts_reward_expectancy_bt,2022.2.4,Win32,144.092219,Firefox,2560,1440,,,,,1,760,,,,,,,,,,,,,,,,,U,125,star,1,0,,,,,,,,,,,,,,,,repeat,letter,lettRpt,f,0.541,Lo,,,,,,0,,,,,,,,high,4,0,4,0,1,,,,,,,,,
293791,2022-11-15_21h04.50.808,vts_reward_expectancy_bt,2022.2.4,Win32,144.092219,Firefox,2560,1440,,,,,10,770,,,,,,,,,,,,,,,,,Y,146,triangle,1,0,,,,,,,,,,,,,,,,repeat,letter,lettRpt,f,0.511,Hi,,,,,,0,,,,,,,,high,5,0,5,0,1,,,,,,,,,
293791,2022-11-15_21h04.50.808,vts_reward_expectancy_bt,2022.2.4,Win32,144.092219,Firefox,2560,1440,,,,,10,780,,,,,,,,,,,,,,,,,F,160,hexagon,1,0,,,,,,,,,,,,,,,,switch,number,numSwt,k,0.511,Hi,,,,,,0,,,,,,,,high,6,0,6,0,1,,,,,,,,,
293791,2022-11-15_21h04.50.808,vts_reward_expectancy_bt,2022.2.4,Win32,144.092219,Firefox,2560,1440,,,,,0,780,,,,,,,,,,,,,,,,,B,181,circle,0,0,,,,,,,,,,,,,,,,repeat,number,NA,j,0.569,Hi,,,,,,0,,,,,,,,high,7,0,7,0,1,,,,,,,,,
293791,2022-11-15_21h04.50.808,vts_reward_expectancy_bt,2022.2.4,Win32,144.092219,Firefox,2560,1440,,,,,1,781,,,,,,,,,,,,,,,,,H,174,star,1,1,,,,,,,,,,,,,,,,repeat,number,numRpt,k,0.548,Lo,,,,,,0,,,,,,,,high,8,0,8,0,1,,,,,,,,,
293791,2022-11-15_21h04.50.808,vts_reward_expectancy_bt,2022.2.4,Win32,144.092219,Firefox,2560,1440,,,,,0,781,,,,,,,,,,,,,,,,,D,139,triangle,1,0,,,,,,,,,,,,,,,,switch,letter,lettSwt,d,0.647,Hi,,,,,,0,,,,,,,,high,9,0,9,0,1,,,,,,,,,
293791,2022-11-15_21h04.50.808,vts_reward_expectancy_bt,2022.2.4,Win32,144.092219,Firefox,2560,1440,,,,,1,782,,,,,,,,,,,,,,,,,S,132,circle,1,0,,,,,,,,,,,,,,,,repeat,letter,lettRpt,f,0.59,Lo,,,,,,0,,,,,,,,high,10,0,10,0,1,,,,,,,,,
293791,2022-11-15_21h04.50.808,vts_reward_expectancy_bt,2022.2.4,Win32,144.092219,Firefox,2560,1440,,,,,0,782,,,,,,,,,,,,,,,,,W,167,hexagon,1,0,,,,,,,,,,,,,,,,switch,number,numSwt,k,0.648,Hi,,,,,,0,,,,,,,,high,11,0,11,0,1,,,,,,,,,
293791,2022-11-15_21h04.50.808,vts_reward_expectancy_bt,2022.2.4,Win32,144.092219,Firefox,2560,1440,,,,,0,782,,,,,,,,,,,,,,,,,U,125,hexagon,0,0,,,,,,,,,,,,,,,,switch,letter,NA,d,0.153,Hi,,,,,,0,,,,,,,,high,12,0,12,0,1,,,,,,,,,
293791,2022-11-15_21h04.50.808,vts_reward_expectancy_bt,2022.2.4,Win32,144.092219,Firefox,2560,1440,,,,,0,782,,,,,,,,,,,,,,,,,Y,146,star,0,1,,,,,,,,,,,,,,,,switch,number,NA,k,0.075,Hi,,,,,,0,,,,,,,,high,13,0,13,0,1,,,,,,,,,
293791,2022-11-15_21h04.50.808,vts_reward_expectancy_bt,2022.2.4,Win32,144.092219,Firefox,2560,1440,,,,,0,782,,,,,,,,,,,,,,,,,F,160,circle,0,1,,,,,,,,,,,,,,,,switch,letter,NA,f,0.003,Hi,,,,,,0,,,,,,,,high,14,0,14,0,1,,,,,,,,,
293791,2022-11-15_21h04.50.808,vts_reward_expectancy_bt,2022.2.4,Win32,144.092219,Firefox,2560,1440,,,,,10,792,,,,,,,,,,,,,,,,,B,181,triangle,1,1,,,,,,,,,,,,,,,,switch,number,numSwt,k,0.062,Hi,,,,,,0,,,,,,,,high,15,0,15,0,1,,,,,,,,,
293791,2022-11-15_21h04.50.808,vts_reward_expectancy_bt,2022.2.4,Win32,144.092219,Firefox,2560,1440,,,,,1,793,,,,,,,,,,,,,,,,,F,167,hexagon,1,0,,,,,,,,,,,,,,,,repeat,number,numRpt,k,0.075,Hi,,,,,,0,,,,,,,,high,16,0,16,0,1,,,,,,,,,
293791,2022-11-15_21h04.50.808,vts_reward_expectancy_bt,2022.2.4,Win32,144.092219,Firefox,2560,1440,,,,,1,794,,,,,,,,,,,,,,,,,B,160,star,1,0,,,,,,,,,,,,,,,,switch,letter,lettSwt,d,0.555,Lo,,,,,,0,,,,,,,,high,17,0,17,0,1,,,,,,,,,
293791,2022-11-15_21h04.50.808,vts_reward_expectancy_bt,2022.2.4,Win32,144.092219,Firefox,2560,1440,,,,,0,794,,,,,,,,,,,,,,,,,U,146,triangle,0,0,,,,,,,,,,,,,,,,repeat,letter,NA,d,0.486,Lo,,,,,,0,,,,,,,,high,18,0,18,0,1,,,,,,,,,
293791,2022-11-15_21h04.50.808,vts_reward_expectancy_bt,2022.2.4,Win32,144.092219,Firefox,2560,1440,,,,,1,795,,,,,,,,,,,,,,,,,H,181,circle,1,1,,,,,,,,,,,,,,,,switch,number,numSwt,k,0.519,Lo,,,,,,0,,,,,,,,high,19,0,19,0,1,,,,,,,,,
293791,2022-11-15_21h04.50.808,vts_reward_expectancy_bt,2022.2.4,Win32,144.092219,Firefox,2560,1440,,,,,1,796,,,,,,,,,,,,,,,,,S,174,hexagon,1,0,,,,,,,,,,,,,,,,repeat,number,numRpt,k,0.411,Hi,,,,,,0,,,,,,,,high,20,0,20,0,1,,,,,,,,,
293791,2022-11-15_21h04.50.808,vts_reward_expectancy_bt,2022.2.4,Win32,144.092219,Firefox,2560,1440,,,,,0,796,,,,,,,,,,,,,,,,,W,139,star,0,0,,,,,,,,,,,,,,,,repeat,number,NA,k,0.475,Hi,,,,,,0,,,,,,,,high,21,0,21,0,1,,,,,,,,,
293791,2022-11-15_21h04.50.808,vts_reward_expectancy_bt,2022.2.4,Win32,144.092219,Firefox,2560,1440,,,,,0,796,,,,,,,,,,,,,,,,,D,132,circle,0,1,,,,,,,,,,,,,,,,switch,letter,NA,f,0.563,Hi,,,,,,0,,,,,,,,high,22,0,22,0,1,,,,,,,,,
293791,2022-11-15_21h04.50.808,vts_reward_expectancy_bt,2022.2.4,Win32,144.092219,Firefox,2560,1440,,,,,1,797,,,,,,,,,,,,,,,,,Y,125,triangle,1,1,,,,,,,,,,,,,,,,switch,number,numSwt,j,0.355,Hi,,,,,,0,,,,,,,,high,23,0,23,0,1,,,,,,,,,
293791,2022-11-15_21h04.50.808,vts_reward_expectancy_bt,2022.2.4,Win32,144.092219,Firefox,2560,1440,,,,,1,798,,,,,,,,,,,,,,,,,D,174,circle,1,0,,,,,,,,,,,,,,,,repeat,number,numRpt,k,0.513,Lo,,,,,,0,,,,,,,,high,24,0,24,0,1,,,,,,,,,
293791,2022-11-15_21h04.50.808,vts_reward_expectancy_bt,2022.2.4,Win32,144.092219,Firefox,2560,1440,,,,,1,799,,,,,,,,,,,,,,,,,F,139,star,1,0,,,,,,,,,,,,,,,,repeat,number,numRpt,j,0.583,Lo,,,,,,0,,,,,,,,high,25,0,25,0,1,,,,,,,,,
293791,2022-11-15_21h04.50.808,vts_reward_expectancy_bt,2022.2.4,Win32,144.092219,Firefox,2560,1440,,,,,10,809,,,,,,,,,,,,,,,,,U,132,hexagon,1,0,,,,,,,,,,,,,,,,switch,letter,lettSwt,f,0.479,Hi,,,,,,0,,,,,,,,high,26,0,26,0,1,,,,,,,,,
293791,2022-11-15_21h04.50.808,vts_reward_expectancy_bt,2022.2.4,Win32,144.092219,Firefox,2560,1440,,,,,1,810,,,,,,,,,,,,,,,,,B,146,triangle,1,0,,,,,,,,,,,,,,,,switch,number,numSwt,j,0.473,Hi,,,,,,0,,,,,,,,high,27,0,27,0,1,,,,,,,,,
293791,2022-11-15_21h04.50.808,vts_reward_expectancy_bt,2022.2.4,Win32,144.092219,Firefox,2560,1440,,,,,0,810,,,,,,,,,,,,,,,,,H,160,star,0,0,,,,,,,,,,,,,,,,switch,letter,NA,f,0.561,Hi,,,,,,0,,,,,,,,high,28,0,28,0,1,,,,,,,,,
293791,2022-11-15_21h04.50.808,vts_reward_expectancy_bt,2022.2.4,Win32,144.092219,Firefox,2560,1440,,,,,0,810,,,,,,,,,,,,,,,,,W,167,hexagon,1,1,,,,,,,,,,,,,,,,repeat,letter,lettRpt,f,0.902,Hi,,,,,,0,,,,,,,,high,29,0,29,0,1,,,,,,,,,
293791,2022-11-15_21h04.50.808,vts_reward_expectancy_bt,2022.2.4,Win32,144.092219,Firefox,2560,1440,,,,,10,820,,,,,,,,,,,,,,,,,S,181,circle,1,0,,,,,,,,,,,,,,,,repeat,letter,lettRpt,f,0.556,Lo,,,,,,0,,,,,,,,high,30,0,30,0,1,,,,,,,,,
293791,2022-11-15_21h04.50.808,vts_reward_expectancy_bt,2022.2.4,Win32,144.092219,Firefox,2560,1440,,,,,10,830,,,,,,,,,,,,,,,,,Y,125,triangle,1,0,,,,,,,,,,,,,,,,repeat,letter,lettRpt,f,0.467,Hi,,,,,,0,,,,,,,,high,31,0,31,0,1,,,,,,,,,
293791,2022-11-15_21h04.50.808,vts_reward_expectancy_bt,2022.2.4,Win32,144.092219,Firefox,2560,1440,,,,,1,831,,,,,,,,,,,,,,,,,S,174,star,1,0,,,,,,,,,,,,,,,,repeat,letter,lettRpt,f,0.533,Lo,,,,,,1,,,,,,space,1.957,high,0,0,0,0,1,,,,,,,,,
293791,2022-11-15_21h04.50.808,vts_reward_expectancy_bt,2022.2.4,Win32,144.092219,Firefox,2560,1440,,,,,1,832,,,,,,,,,,,,,,,,,W,132,triangle,1,0,,,,,,,,,,,,,,,,switch,number,numSwt,j,0.406,Hi,,,,,,1,,,,,,,,high,1,0,1,0,1,,,,,,,,,
293791,2022-11-15_21h04.50.808,vts_reward_expectancy_bt,2022.2.4,Win32,144.092219,Firefox,2560,1440,,,,,1,833,,,,,,,,,,,,,,,,,U,146,circle,1,0,,,,,,,,,,,,,,,,switch,letter,lettSwt,f,0.444,Lo,,,,,,1,,,,,,,,high,2,0,2,0,1,,,,,,,,,
293791,2022-11-15_21h04.50.808,vts_reward_expectancy_bt,2022.2.4,Win32,144.092219,Firefox,2560,1440,,,,,10,843,,,,,,,,,,,,,,,,,F,167,hexagon,1,0,,,,,,,,,,,,,,,,switch,number,numSwt,k,0.32,Hi,,,,,,1,,,,,,,,high,3,0,3,0,1,,,,,,,,,
293791,2022-11-15_21h04.50.808,vts_reward_expectancy_bt,2022.2.4,Win32,144.092219,Firefox,2560,1440,,,,,1,844,,,,,,,,,,,,,,,,,B,125,star,1,0,,,,,,,,,,,,,,,,repeat,number,numRpt,j,0.507,Lo,,,,,,1,,,,,,,,high,4,0,4,0,1,,,,,,,,,
293791,2022-11-15_21h04.50.808,vts_reward_expectancy_bt,2022.2.4,Win32,144.092219,Firefox,2560,1440,,,,,10,854,,,,,,,,,,,,,,,,,H,160,triangle,1,0,,,,,,,,,,,,,,,,repeat,number,numRpt,k,0.415,Hi,,,,,,1,,,,,,,,high,5,0,5,0,1,,,,,,,,,
293791,2022-11-15_21h04.50.808,vts_reward_expectancy_bt,2022.2.4,Win32,144.092219,Firefox,2560,1440,,,,,1,855,,,,,,,,,,,,,,,,,Y,181,circle,1,0,,,,,,,,,,,,,,,,switch,letter,lettSwt,f,0.423,Lo,,,,,,1,,,,,,,,high,6,0,6,0,1,,,,,,,,,
293791,2022-11-15_21h04.50.808,vts_reward_expectancy_bt,2022.2.4,Win32,144.092219,Firefox,2560,1440,,,,,0,855,,,,,,,,,,,,,,,,,D,139,hexagon,1,0,,,,,,,,,,,,,,,,repeat,letter,lettRpt,d,0.597,Hi,,,,,,1,,,,,,,,high,7,0,7,0,1,,,,,,,,,
293791,2022-11-15_21h04.50.808,vts_reward_expectancy_bt,2022.2.4,Win32,144.092219,Firefox,2560,1440,,,,,0,855,,,,,,,,,,,,,,,,,S,174,triangle,0,0,,,,,,,,,,,,,,,,switch,number,NA,j,0.639,Hi,,,,,,1,,,,,,,,high,8,0,8,0,1,,,,,,,,,
293791,2022-11-15_21h04.50.808,vts_reward_expectancy_bt,2022.2.4,Win32,144.092219,Firefox,2560,1440,,,,,10,865,,,,,,,,,,,,,,,,,W,132,hexagon,1,1,,,,,,,,,,,,,,,,switch,letter,lettSwt,f,0.538,Hi,,,,,,1,,,,,,,,high,9,0,9,0,1,,,,,,,,,
293791,2022-11-15_21h04.50.808,vts_reward_expectancy_bt,2022.2.4,Win32,144.092219,Firefox,2560,1440,,,,,1,866,,,,,,,,,,,,,,,,,U,146,circle,1,0,,,,,,,,,,,,,,,,repeat,letter,lettRpt,f,0.46,Lo,,,,,,1,,,,,,,,high,10,0,10,0,1,,,,,,,,,
293791,2022-11-15_21h04.50.808,vts_reward_expectancy_bt,2022.2.4,Win32,144.092219,Firefox,2560,1440,,,,,1,867,,,,,,,,,,,,,,,,,F,167,star,1,0,,,,,,,,,,,,,,,,switch,number,numSwt,k,0.44,Lo,,,,,,1,,,,,,,,high,11,0,11,0,1,,,,,,,,,
293791,2022-11-15_21h04.50.808,vts_reward_expectancy_bt,2022.2.4,Win32,144.092219,Firefox,2560,1440,,,,,0,867,,,,,,,,,,,,,,,,,B,125,triangle,0,0,,,,,,,,,,,,,,,,repeat,number,NA,k,0.471,Lo,,,,,,1,,,,,,,,high,12,0,12,0,1,,,,,,,,,
293791,2022-11-15_21h04.50.808,vts_reward_expectancy_bt,2022.2.4,Win32,144.092219,Firefox,2560,1440,,,,,0,867,,,,,,,,,,,,,,,,,H,160,star,0,1,,,,,,,,,,,,,,,,repeat,number,NA,j,0.403,Lo,,,,,,1,,,,,,,,high,13,0,13,0,1,,,,,,,,,
293791,2022-11-15_21h04.50.808,vts_reward_expectancy_bt,2022.2.4,Win32,144.092219,Firefox,2560,1440,,,,,1,868,,,,,,,,,,,,,,,,,Y,181,circle,1,1,,,,,,,,,,,,,,,,repeat,number,numRpt,k,0.368,Lo,,,,,,1,,,,,,,,high,14,0,14,0,1,,,,,,,,,
293791,2022-11-15_21h04.50.808,vts_reward_expectancy_bt,2022.2.4,Win32,144.092219,Firefox,2560,1440,,,,,0,868,,,,,,,,,,,,,,,,,D,139,hexagon,1,0,,,,,,,,,,,,,,,,repeat,number,numRpt,j,0.456,Hi,,,,,,1,,,,,,,,high,15,0,15,0,1,,,,,,,,,
293791,2022-11-15_21h04.50.808,vts_reward_expectancy_bt,2022.2.4,Win32,144.092219,Firefox,2560,1440,,,,,0,868,,,,,,,,,,,,,,,,,D,181,circle,0,0,,,,,,,,,,,,,,,,repeat,number,NA,j,0.409,Hi,,,,,,1,,,,,,,,high,16,0,16,0,1,,,,,,,,,
293791,2022-11-15_21h04.50.808,vts_reward_expectancy_bt,2022.2.4,Win32,144.092219,Firefox,2560,1440,,,,,0,868,,,,,,,,,,,,,,,,,F,139,hexagon,0,1,,,,,,,,,,,,,,,,switch,letter,NA,f,0.387,Hi,,,,,,1,,,,,,,,high,17,0,17,0,1,,,,,,,,,
293791,2022-11-15_21h04.50.808,vts_reward_expectancy_bt,2022.2.4,Win32,144.092219,Firefox,2560,1440,,,,,0,868,,,,,,,,,,,,,,,,,S,167,triangle,0,1,,,,,,,,,,,,,,,,repeat,letter,NA,d,0.31,Hi,,,,,,1,,,,,,,,high,18,0,18,0,1,,,,,,,,,
293791,2022-11-15_21h04.50.808,vts_reward_expectancy_bt,2022.2.4,Win32,144.092219,Firefox,2560,1440,,,,,0,868,,,,,,,,,,,,,,,,,H,146,star,0,1,,,,,,,,,,,,,,,,repeat,letter,NA,f,0.083,Hi,,,,,,1,,,,,,,,high,19,0,19,0,1,,,,,,,,,
293791,2022-11-15_21h04.50.808,vts_reward_expectancy_bt,2022.2.4,Win32,144.092219,Firefox,2560,1440,,,,,10,878,,,,,,,,,,,,,,,,,U,125,circle,1,1,,,,,,,,,,,,,,,,repeat,letter,lettRpt,f,0.056,Lo,,,,,,1,,,,,,,,high,20,0,20,0,1,,,,,,,,,
293791,2022-11-15_21h04.50.808,vts_reward_expectancy_bt,2022.2.4,Win32,144.092219,Firefox,2560,1440,,,,,0,878,,,,,,,,,,,,,,,,,Y,160,star,0,0,,,,,,,,,,,,,,,,switch,number,NA,j,0.4,Lo,,,,,,1,,,,,,,,high,21,0,21,0,1,,,,,,,,,
293791,2022-11-15_21h04.50.808,vts_reward_expectancy_bt,2022.2.4,Win32,144.092219,Firefox,2560,1440,,,,,0,878,,,,,,,,,,,,,,,,,W,132,triangle,0,1,,,,,,,,,,,,,,,,repeat,number,NA,k,0.04,Lo,,,,,,1,,,,,,,,high,22,0,22,0,1,,,,,,,,,
293791,2022-11-15_21h04.50.808,vts_reward_expectancy_bt,2022.2.4,Win32,144.092219,Firefox,2560,1440,,,,,0,878,,,,,,,,,,,,,,,,,B,174,hexagon,0,1,,,,,,,,,,,,,,,,switch,letter,NA,f,0.089,Lo,,,,,,1,,,,,,,,high,23,0,23,0,1,,,,,,,,,
293791,2022-11-15_21h04.50.808,vts_reward_expectancy_bt,2022.2.4,Win32,144.092219,Firefox,2560,1440,,,,,0,878,,,,,,,,,,,,,,,,,F,167,triangle,0,1,,,,,,,,,,,,,,,,switch,number,NA,j,0.134,Lo,,,,,,1,,,,,,,,high,24,0,24,0,1,,,,,,,,,
293791,2022-11-15_21h04.50.808,vts_reward_expectancy_bt,2022.2.4,Win32,144.092219,Firefox,2560,1440,,,,,10,888,,,,,,,,,,,,,,,,,B,132,circle,1,1,,,,,,,,,,,,,,,,repeat,number,numRpt,j,0.067,Lo,,,,,,1,,,,,,,,high,25,0,25,0,1,,,,,,,,,
293791,2022-11-15_21h04.50.808,vts_reward_expectancy_bt,2022.2.4,Win32,144.092219,Firefox,2560,1440,,,,,1,889,,,,,,,,,,,,,,,,,D,181,star,1,0,,,,,,,,,,,,,,,,switch,letter,lettSwt,d,0.062,Lo,,,,,,1,,,,,,,,high,26,0,26,0,1,,,,,,,,,
293791,2022-11-15_21h04.50.808,vts_reward_expectancy_bt,2022.2.4,Win32,144.092219,Firefox,2560,1440,,,,,1,890,,,,,,,,,,,,,,,,,S,146,hexagon,1,0,,,,,,,,,,,,,,,,switch,number,numSwt,j,0.047,Hi,,,,,,1,,,,,,,,high,27,0,27,0,1,,,,,,,,,
293791,2022-11-15_21h04.50.808,vts_reward_expectancy_bt,2022.2.4,Win32,144.092219,Firefox,2560,1440,,,,,1,891,,,,,,,,,,,,,,,,,W,174,star,1,0,,,,,,,,,,,,,,,,switch,letter,lettSwt,f,0.509,Lo,,,,,,1,,,,,,,,high,28,0,28,0,1,,,,,,,,,
293791,2022-11-15_21h04.50.808,vts_reward_expectancy_bt,2022.2.4,Win32,144.092219,Firefox,2560,1440,,,,,0,891,,,,,,,,,,,,,,,,,H,139,triangle,0,0,,,,,,,,,,,,,,,,repeat,letter,NA,f,0.61,Lo,,,,,,1,,,,,,,,high,29,0,29,0,1,,,,,,,,,
293791,2022-11-15_21h04.50.808,vts_reward_expectancy_bt,2022.2.4,Win32,144.092219,Firefox,2560,1440,,,,,0,891,,,,,,,,,,,,,,,,,Y,125,hexagon,1,1,,,,,,,,,,,,,,,,switch,number,numSwt,j,0.493,Hi,,,,,,1,,,,,,,,high,30,0,30,0,1,,,,,,,,,
293791,2022-11-15_21h04.50.808,vts_reward_expectancy_bt,2022.2.4,Win32,144.092219,Firefox,2560,1440,,,,,0,891,,,,,,,,,,,,,,,,,U,160,circle,0,0,,,,,,,,,,,,,,,,repeat,number,NA,j,0.673,Hi,,,,,,1,,,,,,,,high,31,0,31,0,1,,,,,,,,,
293791,2022-11-15_21h04.50.808,vts_reward_expectancy_bt,2022.2.4,Win32,144.092219,Firefox,2560,1440,,,,,1,892,,,,,,,,,,,,,,,,,B,125,star,1,1,,,,,,,,,,,,,,,,repeat,number,numRpt,j,0.387,Lo,,,,,,2,,,,,,space,2.661,high,0,0,0,0,1,,,,,,,,,
293791,2022-11-15_21h04.50.808,vts_reward_expectancy_bt,2022.2.4,Win32,144.092219,Firefox,2560,1440,,,,,1,893,,,,,,,,,,,,,,,,,Y,160,circle,1,0,,,,,,,,,,,,,,,,switch,letter,lettSwt,f,0.473,Lo,,,,,,2,,,,,,,,high,1,0,1,0,1,,,,,,,,,
293791,2022-11-15_21h04.50.808,vts_reward_expectancy_bt,2022.2.4,Win32,144.092219,Firefox,2560,1440,,,,,0,893,,,,,,,,,,,,,,,,,F,146,hexagon,0,0,,,,,,,,,,,,,,,,repeat,letter,NA,f,0.437,Lo,,,,,,2,,,,,,,,high,2,0,2,0,1,,,,,,,,,
293791,2022-11-15_21h04.50.808,vts_reward_expectancy_bt,2022.2.4,Win32,144.092219,Firefox,2560,1440,,,,,0,893,,,,,,,,,,,,,,,,,U,181,triangle,1,1,,,,,,,,,,,,,,,,repeat,letter,lettRpt,f,0.54,Hi,,,,,,2,,,,,,,,high,3,0,3,0,1,,,,,,,,,
293791,2022-11-15_21h04.50.808,vts_reward_expectancy_bt,2022.2.4,Win32,144.092219,Firefox,2560,1440,,,,,0,893,,,,,,,,,,,,,,,,,H,167,star,0,0,,,,,,,,,,,,,,,,repeat,letter,NA,f,0.5,Hi,,,,,,2,,,,,,,,high,4,0,4,0,1,,,,,,,,,
293791,2022-11-15_21h04.50.808,vts_reward_expectancy_bt,2022.2.4,Win32,144.092219,Firefox,2560,1440,,,,,1,894,,,,,,,,,,,,,,,,,D,132,circle,1,1,,,,,,,,,,,,,,,,repeat,letter,lettRpt,d,0.38,Lo,,,,,,2,,,,,,,,high,5,0,5,0,1,,,,,,,,,
293791,2022-11-15_21h04.50.808,vts_reward_expectancy_bt,2022.2.4,Win32,144.092219,Firefox,2560,1440,,,,,0,894,,,,,,,,,,,,,,,,,W,139,hexagon,1,0,,,,,,,,,,,,,,,,repeat,letter,lettRpt,f,0.526,Hi,,,,,,2,,,,,,,,high,6,0,6,0,1,,,,,,,,,
293791,2022-11-15_21h04.50.808,vts_reward_expectancy_bt,2022.2.4,Win32,144.092219,Firefox,2560,1440,,,,,0,894,,,,,,,,,,,,,,,,,S,174,triangle,1,0,,,,,,,,,,,,,,,,repeat,letter,lettRpt,f,0.682,Hi,,,,,,2,,,,,,,,high,7,0,7,0,1,,,,,,,,,
293791,2022-11-15_21h04.50.808,vts_reward_expectancy_bt,2022.2.4,Win32,144.092219,Firefox,2560,1440,,,,,1,895,,,,,,,,,,,,,,,,,B,125,circle,1,0,,,,,,,,,,,,,,,,repeat,letter,lettRpt,d,0.47,Lo,,,,,,2,,,,,,,,high,8,0,8,0,1,,,,,,,,,
293791,2022-11-15_21h04.50.808,vts_reward_expectancy_bt,2022.2.4,Win32,144.092219,Firefox,2560,1440,,,,,0,895,,,,,,,,,,,,,,,,,Y,160,hexagon,1,0,,,,,,,,,,,,,,,,repeat,letter,lettRpt,f,0.533,Hi,,,,,,2,,,,,,,,high,9,0,9,0,1,,,,,,,,,
293791,2022-11-15_21h04.50.808,vts_reward_expectancy_bt,2022.2.4,Win32,144.092219,Firefox,2560,1440,,,,,0,895,,,,,,,,,,,,,,,,,F,146,star,0,0,,,,,,,,,,,,,,,,repeat,letter,NA,f,0.415,Hi,,,,,,2,,,,,,,,high,10,0,10,0,1,,,,,,,,,
293791,2022-11-15_21h04.50.808,vts_reward_expectancy_bt,2022.2.4,Win32,144.092219,Firefox,2560,1440,,,,,1,896,,,,,,,,,,,,,,,,,U,181,triangle,1,1,,,,,,,,,,,,,,,,repeat,letter,lettRpt,f,0.43,Hi,,,,,,2,,,,,,,,high,11,0,11,0,1,,,,,,,,,
293791,2022-11-15_21h04.50.808,vts_reward_expectancy_bt,2022.2.4,Win32,144.092219,Firefox,2560,1440,,,,,1,897,,,,,,,,,,,,,,,,,H,167,circle,1,0,,,,,,,,,,,,,,,,repeat,letter,lettRpt,d,0.577,Lo,,,,,,2,,,,,,,,high,12,0,12,0,1,,,,,,,,,
293791,2022-11-15_21h04.50.808,vts_reward_expectancy_bt,2022.2.4,Win32,144.092219,Firefox,2560,1440,,,,,0,897,,,,,,,,,,,,,,,,,D,132,triangle,0,0,,,,,,,,,,,,,,,,repeat,letter,NA,f,0.365,Lo,,,,,,2,,,,,,,,high,13,0,13,0,1,,,,,,,,,
293791,2022-11-15_21h04.50.808,vts_reward_expectancy_bt,2022.2.4,Win32,144.092219,Firefox,2560,1440,,,,,0,897,,,,,,,,,,,,,,,,,W,139,hexagon,1,1,,,,,,,,,,,,,,,,repeat,letter,lettRpt,f,0.499,Hi,,,,,,2,,,,,,,,high,14,0,14,0,1,,,,,,,,,
293791,2022-11-15_21h04.50.808,vts_reward_expectancy_bt,2022.2.4,Win32,144.092219,Firefox,2560,1440,,,,,10,907,,,,,,,,,,,,,,,,,S,174,star,1,0,,,,,,,,,,,,,,,,repeat,letter,lettRpt,f,0.422,Lo,,,,,,2,,,,,,,,high,15,0,15,0,1,,,,,,,,,
293791,2022-11-15_21h04.50.808,vts_reward_expectancy_bt,2022.2.4,Win32,144.092219,Firefox,2560,1440,,,,,0,907,,,,,,,,,,,,,,,,,F,167,circle,0,0,,,,,,,,,,,,,,,,repeat,letter,NA,f,0.436,Lo,,,,,,2,,,,,,,,high,16,0,16,0,1,,,,,,,,,
293791,2022-11-15_21h04.50.808,vts_reward_expectancy_bt,2022.2.4,Win32,144.092219,Firefox,2560,1440,,,,,10,917,,,,,,,,,,,,,,,,,H,139,star,1,1,,,,,,,,,,,,,,,,repeat,letter,lettRpt,d,0.576,Lo,,,,,,2,,,,,,,,high,17,0,17,0,1,,,,,,,,,
293791,2022-11-15_21h04.50.808,vts_reward_expectancy_bt,2022.2.4,Win32,144.092219,Firefox,2560,1440,,,,,0,917,,,,,,,,,,,,,,,,,Y,181,triangle,1,0,,,,,,,,,,,,,,,,repeat,letter,lettRpt,f,0.529,Hi,,,,,,2,,,,,,,,high,18,0,18,0,1,,,,,,,,,
293791,2022-11-15_21h04.50.808,vts_reward_expectancy_bt,2022.2.4,Win32,144.092219,Firefox,2560,1440,,,,,0,917,,,,,,,,,,,,,,,,,U,174,hexagon,1,0,,,,,,,,,,,,,,,,switch,number,numSwt,k,0.805,Hi,,,,,,2,,,,,,,,high,19,0,19,0,1,,,,,,,,,
293791,2022-11-15_21h04.50.808,vts_reward_expectancy_bt,2022.2.4,Win32,144.092219,Firefox,2560,1440,,,,,0,917,,,,,,,,,,,,,,,,,D,132,hexagon,1,0,,,,,,,,,,,,,,,,repeat,number,numRpt,j,0.526,Hi,,,,,,2,,,,,,,,high,20,0,20,0,1,,,,,,,,,
293791,2022-11-15_21h04.50.808,vts_reward_expectancy_bt,2022.2.4,Win32,144.092219,Firefox,2560,1440,,,,,0,917,,,,,,,,,,,,,,,,,W,125,triangle,1,0,,,,,,,,,,,,,,,,repeat,number,numRpt,j,0.416,Hi,,,,,,2,,,,,,,,high,21,0,21,0,1,,,,,,,,,
293791,2022-11-15_21h04.50.808,vts_reward_expectancy_bt,2022.2.4,Win32,144.092219,Firefox,2560,1440,,,,,10,927,,,,,,,,,,,,,,,,,S,160,circle,1,0,,,,,,,,,,,,,,,,repeat,number,numRpt,k,0.408,Lo,,,,,,2,,,,,,,,high,22,0,22,0,1,,,,,,,,,
293791,2022-11-15_21h04.50.808,vts_reward_expectancy_bt,2022.2.4,Win32,144.092219,Firefox,2560,1440,,,,,0,927,,,,,,,,,,,,,,,,,B,146,star,0,0,,,,,,,,,,,,,,,,repeat,number,NA,k,0.444,Lo,,,,,,2,,,,,,,,high,23,0,23,0,1,,,,,,,,,
293791,2022-11-15_21h04.50.808,vts_reward_expectancy_bt,2022.2.4,Win32,144.092219,Firefox,2560,1440,,,,,10,937,,,,,,,,,,,,,,,,,B,139,star,1,1,,,,,,,,,,,,,,,,repeat,number,numRpt,j,1.632,Lo,,,,,,2,,,,,,,,high,24,0,24,0,1,,,,,,,,,
293791,2022-11-15_21h04.50.808,vts_reward_expectancy_bt,2022.2.4,Win32,144.092219,Firefox,2560,1440,,,,,0,937,,,,,,,,,,,,,,,,,F,181,hexagon,1,0,,,,,,,,,,,,,,,,repeat,number,numRpt,k,0.525,Hi,,,,,,2,,,,,,,,high,25,0,25,0,1,,,,,,,,,
293791,2022-11-15_21h04.50.808,vts_reward_expectancy_bt,2022.2.4,Win32,144.092219,Firefox,2560,1440,,,,,1,938,,,,,,,,,,,,,,,,,H,125,circle,1,0,,,,,,,,,,,,,,,,repeat,number,numRpt,j,0.472,Lo,,,,,,2,,,,,,,,high,26,0,26,0,1,,,,,,,,,
293791,2022-11-15_21h04.50.808,vts_reward_expectancy_bt,2022.2.4,Win32,144.092219,Firefox,2560,1440,,,,,10,948,,,,,,,,,,,,,,,,,S,146,triangle,1,0,,,,,,,,,,,,,,,,repeat,number,numRpt,j,0.38,Hi,,,,,,2,,,,,,,,high,27,0,27,0,1,,,,,,,,,
293791,2022-11-15_21h04.50.808,vts_reward_expectancy_bt,2022.2.4,Win32,144.092219,Firefox,2560,1440,,,,,0,948,,,,,,,,,,,,,,,,,D,132,triangle,1,0,,,,,,,,,,,,,,,,repeat,number,numRpt,j,0.526,Hi,,,,,,2,,,,,,,,high,28,0,28,0,1,,,,,,,,,
293791,2022-11-15_21h04.50.808,vts_reward_expectancy_bt,2022.2.4,Win32,144.092219,Firefox,2560,1440,,,,,0,948,,,,,,,,,,,,,,,,,U,174,star,0,0,,,,,,,,,,,,,,,,switch,letter,NA,d,0.249,Hi,,,,,,2,,,,,,,,high,29,0,29,0,1,,,,,,,,,
293791,2022-11-15_21h04.50.808,vts_reward_expectancy_bt,2022.2.4,Win32,144.092219,Firefox,2560,1440,,,,,1,949,,,,,,,,,,,,,,,,,W,167,circle,1,1,,,,,,,,,,,,,,,,switch,number,numSwt,k,0.2,Lo,,,,,,2,,,,,,,,high,30,0,30,0,1,,,,,,,,,
293791,2022-11-15_21h04.50.808,vts_reward_expectancy_bt,2022.2.4,Win32,144.092219,Firefox,2560,1440,,,,,0,949,,,,,,,,,,,,,,,,,Y,160,hexagon,0,0,,,,,,,,,,,,,,,,switch,letter,NA,d,0.104,Lo,,,,,,2,,,,,,,,high,31,0,31,0,1,,,,,,,,,
293791,2022-11-15_21h04.50.808,vts_reward_expectancy_bt,2022.2.4,Win32,144.092219,Firefox,2560,1440,,,,,0,949,,,,,,,,,,,,,,,,,W,160,circle,0,1,,,,,,,,,,,,,,,,switch,number,NA,j,0.092,Lo,,,,,,3,,,,,,space,1.321,high,0,0,0,0,1,,,,,,,,,
293791,2022-11-15_21h04.50.808,vts_reward_expectancy_bt,2022.2.4,Win32,144.092219,Firefox,2560,1440,,,,,0,949,,,,,,,,,,,,,,,,,H,132,triangle,0,1,,,,,,,,,,,,,,,,switch,letter,NA,f,0.098,Lo,,,,,,3,,,,,,,,high,1,0,1,0,1,,,,,,,,,
293791,2022-11-15_21h04.50.808,vts_reward_expectancy_bt,2022.2.4,Win32,144.092219,Firefox,2560,1440,,,,,0,949,,,,,,,,,,,,,,,,,S,146,hexagon,0,1,,,,,,,,,,,,,,,,switch,number,NA,k,0.049,Lo,,,,,,3,,,,,,,,high,2,0,2,0,1,,,,,,,,,
293791,2022-11-15_21h04.50.808,vts_reward_expectancy_bt,2022.2.4,Win32,144.092219,Firefox,2560,1440,,,,,1,950,,,,,,,,,,,,,,,,,D,167,star,1,1,,,,,,,,,,,,,,,,switch,letter,lettSwt,d,0.131,Lo,,,,,,3,,,,,,,,high,3,0,3,0,1,,,,,,,,,
293791,2022-11-15_21h04.50.808,vts_reward_expectancy_bt,2022.2.4,Win32,144.092219,Firefox,2560,1440,,,,,0,950,,,,,,,,,,,,,,,,,B,174,circle,0,0,,,,,,,,,,,,,,,,switch,number,NA,j,0.074,Lo,,,,,,3,,,,,,,,high,4,0,4,0,1,,,,,,,,,
293791,2022-11-15_21h04.50.808,vts_reward_expectancy_bt,2022.2.4,Win32,144.092219,Firefox,2560,1440,,,,,1,951,,,,,,,,,,,,,,,,,U,139,triangle,1,1,,,,,,,,,,,,,,,,repeat,number,numRpt,j,0.001,Hi,,,,,,3,,,,,,,,high,5,0,5,0,1,,,,,,,,,
293791,2022-11-15_21h04.50.808,vts_reward_expectancy_bt,2022.2.4,Win32,144.092219,Firefox,2560,1440,,,,,10,961,,,,,,,,,,,,,,,,,Y,181,hexagon,1,0,,,,,,,,,,,,,,,,switch,letter,lettSwt,f,0.071,Hi,,,,,,3,,,,,,,,high,6,0,6,0,1,,,,,,,,,
293791,2022-11-15_21h04.50.808,vts_reward_expectancy_bt,2022.2.4,Win32,144.092219,Firefox,2560,1440,,,,,10,971,,,,,,,,,,,,,,,,,F,125,star,1,0,,,,,,,,,,,,,,,,switch,number,numSwt,j,0.201,Lo,,,,,,3,,,,,,,,high,7,0,7,0,1,,,,,,,,,
293791,2022-11-15_21h04.50.808,vts_reward_expectancy_bt,2022.2.4,Win32,144.092219,Firefox,2560,1440,,,,,0,971,,,,,,,,,,,,,,,,,W,160,star,0,0,,,,,,,,,,,,,,,,switch,letter,NA,d,0.049,Lo,,,,,,3,,,,,,,,high,8,0,8,0,1,,,,,,,,,
293791,2022-11-15_21h04.50.808,vts_reward_expectancy_bt,2022.2.4,Win32,144.092219,Firefox,2560,1440,,,,,0,971,,,,,,,,,,,,,,,,,H,132,triangle,0,1,,,,,,,,,,,,,,,,repeat,letter,NA,f,0.071,Lo,,,,,,3,,,,,,,,high,9,0,9,0,1,,,,,,,,,
293791,2022-11-15_21h04.50.808,vts_reward_expectancy_bt,2022.2.4,Win32,144.092219,Firefox,2560,1440,,,,,1,972,,,,,,,,,,,,,,,,,S,146,circle,1,1,,,,,,,,,,,,,,,,switch,number,numSwt,j,0.041,Lo,,,,,,3,,,,,,,,high,10,0,10,0,1,,,,,,,,,
293791,2022-11-15_21h04.50.808,vts_reward_expectancy_bt,2022.2.4,Win32,144.092219,Firefox,2560,1440,,,,,0,972,,,,,,,,,,,,,,,,,D,167,hexagon,0,0,,,,,,,,,,,,,,,,switch,letter,NA,f,0.08,Lo,,,,,,3,,,,,,,,high,11,0,11,0,1,,,,,,,,,
293791,2022-11-15_21h04.50.808,vts_reward_expectancy_bt,2022.2.4,Win32,144.092219,Firefox,2560,1440,,,,,0,972,,,,,,,,,,,,,,,,,B,174,star,0,1,,,,,,,,,,,,,,,,switch,number,NA,j,0.075,Lo,,,,,,3,,,,,,,,high,12,0,12,0,1,,,,,,,,,
293791,2022-11-15_21h04.50.808,vts_reward_expectancy_bt,2022.2.4,Win32,144.092219,Firefox,2560,1440,,,,,0,972,,,,,,,,,,,,,,,,,U,139,hexagon,0,1,,,,,,,,,,,,,,,,repeat,number,NA,k,0.007,Lo,,,,,,3,,,,,,,,high,13,0,13,0,1,,,,,,,,,
293791,2022-11-15_21h04.50.808,vts_reward_expectancy_bt,2022.2.4,Win32,144.092219,Firefox,2560,1440,,,,,1,973,,,,,,,,,,,,,,,,,Y,181,circle,1,1,,,,,,,,,,,,,,,,repeat,number,numRpt,k,0.025,Lo,,,,,,3,,,,,,,,high,14,0,14,0,1,,,,,,,,,
293791,2022-11-15_21h04.50.808,vts_reward_expectancy_bt,2022.2.4,Win32,144.092219,Firefox,2560,1440,,,,,0,973,,,,,,,,,,,,,,,,,F,125,triangle,0,0,,,,,,,,,,,,,,,,repeat,number,NA,k,0.045,Lo,,,,,,3,,,,,,,,high,15,0,15,0,1,,,,,,,,,
293791,2022-11-15_21h04.50.808,vts_reward_expectancy_bt,2022.2.4,Win32,144.092219,Firefox,2560,1440,,,,,1,974,,,,,,,,,,,,,,,,,D,167,star,1,1,,,,,,,,,,,,,,,,repeat,number,numRpt,k,0.022,Lo,,,,,,3,,,,,,,,high,16,0,16,0,1,,,,,,,,,
293791,2022-11-15_21h04.50.808,vts_reward_expectancy_bt,2022.2.4,Win32,144.092219,Firefox,2560,1440,,,,,0,974,,,,,,,,,,,,,,,,,Y,139,hexagon,0,0,,,,,,,,,,,,,,,,repeat,number,NA,k,0.104,Lo,,,,,,3,,,,,,,,high,17,0,17,0,1,,,,,,,,,
293791,2022-11-15_21h04.50.808,vts_reward_expectancy_bt,2022.2.4,Win32,144.092219,Firefox,2560,1440,,,,,1,975,,,,,,,,,,,,,,,,,F,160,triangle,1,1,,,,,,,,,,,,,,,,repeat,number,numRpt,k,0.061,Hi,,,,,,3,,,,,,,,high,18,0,18,0,1,,,,,,,,,
293791,2022-11-15_21h04.50.808,vts_reward_expectancy_bt,2022.2.4,Win32,144.092219,Firefox,2560,1440,,,,,1,976,,,,,,,,,,,,,,,,,S,174,circle,1,0,,,,,,,,,,,,,,,,repeat,number,numRpt,k,0.046,Lo,,,,,,3,,,,,,,,high,19,0,19,0,1,,,,,,,,,
293791,2022-11-15_21h04.50.808,vts_reward_expectancy_bt,2022.2.4,Win32,144.092219,Firefox,2560,1440,,,,,10,986,,,,,,,,,,,,,,,,,U,132,star,1,0,,,,,,,,,,,,,,,,switch,letter,lettSwt,f,0.235,Lo,,,,,,3,,,,,,,,high,20,0,20,0,1,,,,,,,,,
293791,2022-11-15_21h04.50.808,vts_reward_expectancy_bt,2022.2.4,Win32,144.092219,Firefox,2560,1440,,,,,1,987,,,,,,,,,,,,,,,,,W,181,circle,1,0,,,,,,,,,,,,,,,,repeat,letter,lettRpt,f,0.157,Lo,,,,,,3,,,,,,,,high,21,0,21,0,1,,,,,,,,,
293791,2022-11-15_21h04.50.808,vts_reward_expectancy_bt,2022.2.4,Win32,144.092219,Firefox,2560,1440,,,,,0,987,,,,,,,,,,,,,,,,,H,125,hexagon,0,0,,,,,,,,,,,,,,,,repeat,letter,NA,f,0.124,Lo,,,,,,3,,,,,,,,high,22,0,22,0,1,,,,,,,,,
293791,2022-11-15_21h04.50.808,vts_reward_expectancy_bt,2022.2.4,Win32,144.092219,Firefox,2560,1440,,,,,0,987,,,,,,,,,,,,,,,,,B,146,triangle,0,1,,,,,,,,,,,,,,,,repeat,letter,NA,f,0.227,Lo,,,,,,3,,,,,,,,high,23,0,23,0,1,,,,,,,,,
293791,2022-11-15_21h04.50.808,vts_reward_expectancy_bt,2022.2.4,Win32,144.092219,Firefox,2560,1440,,,,,1,988,,,,,,,,,,,,,,,,,U,167,star,1,1,,,,,,,,,,,,,,,,repeat,letter,lettRpt,f,0.207,Lo,,,,,,3,,,,,,,,high,24,0,24,0,1,,,,,,,,,
293791,2022-11-15_21h04.50.808,vts_reward_expectancy_bt,2022.2.4,Win32,144.092219,Firefox,2560,1440,,,,,0,988,,,,,,,,,,,,,,,,,W,160,triangle,0,0,,,,,,,,,,,,,,,,switch,number,NA,j,0.014,Lo,,,,,,3,,,,,,,,high,25,0,25,0,1,,,,,,,,,
293791,2022-11-15_21h04.50.808,vts_reward_expectancy_bt,2022.2.4,Win32,144.092219,Firefox,2560,1440,,,,,1,989,,,,,,,,,,,,,,,,,B,132,circle,1,1,,,,,,,,,,,,,,,,switch,letter,lettSwt,d,0.143,Lo,,,,,,3,,,,,,,,high,26,0,26,0,1,,,,,,,,,
293791,2022-11-15_21h04.50.808,vts_reward_expectancy_bt,2022.2.4,Win32,144.092219,Firefox,2560,1440,,,,,10,999,,,,,,,,,,,,,,,,,S,174,hexagon,1,0,,,,,,,,,,,,,,,,switch,number,numSwt,k,0.045,Hi,,,,,,3,,,,,,,,high,27,0,27,0,1,,,,,,,,,
293791,2022-11-15_21h04.50.808,vts_reward_expectancy_bt,2022.2.4,Win32,144.092219,Firefox,2560,1440,,,,,0,999,,,,,,,,,,,,,,,,,F,181,triangle,0,0,,,,,,,,,,,,,,,,switch,letter,NA,f,0.435,Hi,,,,,,3,,,,,,,,high,28,0,28,0,1,,,,,,,,,
293791,2022-11-15_21h04.50.808,vts_reward_expectancy_bt,2022.2.4,Win32,144.092219,Firefox,2560,1440,,,,,1,1000,,,,,,,,,,,,,,,,,H,139,circle,1,1,,,,,,,,,,,,,,,,repeat,letter,lettRpt,d,0.081,Lo,,,,,,3,,,,,,,,high,29,0,29,0,1,,,,,,,,,
293791,2022-11-15_21h04.50.808,vts_reward_expectancy_bt,2022.2.4,Win32,144.092219,Firefox,2560,1440,,,,,0,1000,,,,,,,,,,,,,,,,,Y,146,hexagon,1,0,,,,,,,,,,,,,,,,repeat,letter,lettRpt,f,0.513,Hi,,,,,,3,,,,,,,,high,30,0,30,0,1,,,,,,,,,
293791,2022-11-15_21h04.50.808,vts_reward_expectancy_bt,2022.2.4,Win32,144.092219,Firefox,2560,1440,,,,,0,1000,,,,,,,,,,,,,,,,,D,125,star,0,0,,,,,,,,,,,,,,,,switch,number,NA,k,0.091,Hi,,,,,,3,,,,,,,,high,31,0,31,0,1,,,,,,,,,
293791,2022-11-15_21h04.50.808,vts_reward_expectancy_bt,2022.2.4,Win32,144.092219,Firefox,2560,1440,,,,,0,1000,,,,,,,,,,,,,,,,,B,132,circle,0,1,,,,,,,,,,,,,,,,switch,letter,NA,f,0.146,Hi,,,,,,4,,,,,,space,0.9,high,0,0,0,0,1,,,,,,,,,
293791,2022-11-15_21h04.50.808,vts_reward_expectancy_bt,2022.2.4,Win32,144.092219,Firefox,2560,1440,,,,,10,1010,,,,,,,,,,,,,,,,,S,174,star,1,1,,,,,,,,,,,,,,,,repeat,letter,lettRpt,f,0.034,Lo,,,,,,4,,,,,,,,high,1,0,1,0,1,,,,,,,,,
293791,2022-11-15_21h04.50.808,vts_reward_expectancy_bt,2022.2.4,Win32,144.092219,Firefox,2560,1440,,,,,0,1010,,,,,,,,,,,,,,,,,D,139,triangle,1,0,,,,,,,,,,,,,,,,switch,number,numSwt,j,0.136,Hi,,,,,,4,,,,,,,,high,2,0,2,0,1,,,,,,,,,
293791,2022-11-15_21h04.50.808,vts_reward_expectancy_bt,2022.2.4,Win32,144.092219,Firefox,2560,1440,,,,,0,1010,,,,,,,,,,,,,,,,,H,167,hexagon,0,0,,,,,,,,,,,,,,,,switch,letter,NA,f,0.268,Hi,,,,,,4,,,,,,,,high,3,0,3,0,1,,,,,,,,,
293791,2022-11-15_21h04.50.808,vts_reward_expectancy_bt,2022.2.4,Win32,144.092219,Firefox,2560,1440,,,,,1,1011,,,,,,,,,,,,,,,,,Y,181,circle,1,1,,,,,,,,,,,,,,,,repeat,letter,lettRpt,f,0.387,Lo,,,,,,4,,,,,,,,high,4,0,4,0,1,,,,,,,,,
293791,2022-11-15_21h04.50.808,vts_reward_expectancy_bt,2022.2.4,Win32,144.092219,Firefox,2560,1440,,,,,0,1011,,,,,,,,,,,,,,,,,F,125,star,0,0,,,,,,,,,,,,,,,,repeat,letter,NA,f,0.366,Lo,,,,,,4,,,,,,,,high,5,0,5,0,1,,,,,,,,,
293791,2022-11-15_21h04.50.808,vts_reward_expectancy_bt,2022.2.4,Win32,144.092219,Firefox,2560,1440,,,,,0,1011,,,,,,,,,,,,,,,,,U,146,triangle,0,1,,,,,,,,,,,,,,,,repeat,letter,NA,d,0.363,Lo,,,,,,4,,,,,,,,high,6,0,6,0,1,,,,,,,,,
293791,2022-11-15_21h04.50.808,vts_reward_expectancy_bt,2022.2.4,Win32,144.092219,Firefox,2560,1440,,,,,0,1011,,,,,,,,,,,,,,,,,W,160,hexagon,0,1,,,,,,,,,,,,,,,,repeat,letter,NA,d,0.368,Lo,,,,,,4,,,,,,,,high,7,0,7,0,1,,,,,,,,,
293791,2022-11-15_21h04.50.808,vts_reward_expectancy_bt,2022.2.4,Win32,144.092219,Firefox,2560,1440,,,,,0,1011,,,,,,,,,,,,,,,,,B,132,hexagon,1,1,,,,,,,,,,,,,,,,switch,number,numSwt,j,0.45,Hi,,,,,,4,,,,,,,,high,8,0,8,0,1,,,,,,,,,
293791,2022-11-15_21h04.50.808,vts_reward_expectancy_bt,2022.2.4,Win32,144.092219,Firefox,2560,1440,,,,,0,1011,,,,,,,,,,,,,,,,,S,174,triangle,0,0,,,,,,,,,,,,,,,,switch,letter,NA,d,0.09,Hi,,,,,,4,,,,,,,,high,9,0,9,0,1,,,,,,,,,
293791,2022-11-15_21h04.50.808,vts_reward_expectancy_bt,2022.2.4,Win32,144.092219,Firefox,2560,1440,,,,,0,1011,,,,,,,,,,,,,,,,,D,139,circle,0,1,,,,,,,,,,,,,,,,repeat,letter,NA,f,0.053,Hi,,,,,,4,,,,,,,,high,10,0,10,0,1,,,,,,,,,
293791,2022-11-15_21h04.50.808,vts_reward_expectancy_bt,2022.2.4,Win32,144.092219,Firefox,2560,1440,,,,,0,1011,,,,,,,,,,,,,,,,,H,167,star,0,1,,,,,,,,,,,,,,,,repeat,letter,NA,f,0.002,Hi,,,,,,4,,,,,,,,high,11,0,11,0,1,,,,,,,,,
293791,2022-11-15_21h04.50.808,vts_reward_expectancy_bt,2022.2.4,Win32,144.092219,Firefox,2560,1440,,,,,1,1012,,,,,,,,,,,,,,,,,Y,181,circle,1,1,,,,,,,,,,,,,,,,switch,number,numSwt,k,0.102,Lo,,,,,,4,,,,,,,,high,12,0,12,0,1,,,,,,,,,
293791,2022-11-15_21h04.50.808,vts_reward_expectancy_bt,2022.2.4,Win32,144.092219,Firefox,2560,1440,,,,,1,1013,,,,,,,,,,,,,,,,,F,125,star,1,0,,,,,,,,,,,,,,,,repeat,number,numRpt,j,0.172,Lo,,,,,,4,,,,,,,,high,13,0,13,0,1,,,,,,,,,
293791,2022-11-15_21h04.50.808,vts_reward_expectancy_bt,2022.2.4,Win32,144.092219,Firefox,2560,1440,,,,,0,1013,,,,,,,,,,,,,,,,,U,146,triangle,1,0,,,,,,,,,,,,,,,,repeat,number,numRpt,j,0.034,Hi,,,,,,4,,,,,,,,high,14,0,14,0,1,,,,,,,,,
293791,2022-11-15_21h04.50.808,vts_reward_expectancy_bt,2022.2.4,Win32,144.092219,Firefox,2560,1440,,,,,0,1013,,,,,,,,,,,,,,,,,W,160,hexagon,0,0,,,,,,,,,,,,,,,,repeat,number,NA,j,0.381,Hi,,,,,,4,,,,,,,,high,15,0,15,0,1,,,,,,,,,
293791,2022-11-15_21h04.50.808,vts_reward_expectancy_bt,2022.2.4,Win32,144.092219,Firefox,2560,1440,,,,,0,1013,,,,,,,,,,,,,,,,,U,146,hexagon,1,1,,,,,,,,,,,,,,,,repeat,number,numRpt,j,0.076,Hi,,,,,,4,,,,,,,,high,16,0,16,0,1,,,,,,,,,
293791,2022-11-15_21h04.50.808,vts_reward_expectancy_bt,2022.2.4,Win32,144.092219,Firefox,2560,1440,,,,,0,1013,,,,,,,,,,,,,,,,,B,139,circle,0,0,,,,,,,,,,,,,,,,repeat,number,NA,k,0.041,Hi,,,,,,4,,,,,,,,high,17,0,17,0,1,,,,,,,,,
293791,2022-11-15_21h04.50.808,vts_reward_expectancy_bt,2022.2.4,Win32,144.092219,Firefox,2560,1440,,,,,0,1013,,,,,,,,,,,,,,,,,Y,132,triangle,0,1,,,,,,,,,,,,,,,,switch,letter,NA,d,0.112,Hi,,,,,,4,,,,,,,,high,18,0,18,0,1,,,,,,,,,
293791,2022-11-15_21h04.50.808,vts_reward_expectancy_bt,2022.2.4,Win32,144.092219,Firefox,2560,1440,,,,,1,1014,,,,,,,,,,,,,,,,,D,125,star,1,1,,,,,,,,,,,,,,,,switch,number,numSwt,j,0.121,Lo,,,,,,4,,,,,,,,high,19,0,19,0,1,,,,,,,,,
293791,2022-11-15_21h04.50.808,vts_reward_expectancy_bt,2022.2.4,Win32,144.092219,Firefox,2560,1440,,,,,0,1014,,,,,,,,,,,,,,,,,F,160,hexagon,0,0,,,,,,,,,,,,,,,,repeat,number,NA,j,0.034,Lo,,,,,,4,,,,,,,,high,20,0,20,0,1,,,,,,,,,
293791,2022-11-15_21h04.50.808,vts_reward_expectancy_bt,2022.2.4,Win32,144.092219,Firefox,2560,1440,,,,,0,1014,,,,,,,,,,,,,,,,,S,181,triangle,0,1,,,,,,,,,,,,,,,,repeat,number,NA,j,0.242,Lo,,,,,,4,,,,,,,,high,21,0,21,0,1,,,,,,,,,
293791,2022-11-15_21h04.50.808,vts_reward_expectancy_bt,2022.2.4,Win32,144.092219,Firefox,2560,1440,,,,,0,1014,,,,,,,,,,,,,,,,,W,167,circle,0,1,,,,,,,,,,,,,,,,repeat,number,NA,j,0.22,Lo,,,,,,4,,,,,,,,high,22,0,22,0,1,,,,,,,,,
293791,2022-11-15_21h04.50.808,vts_reward_expectancy_bt,2022.2.4,Win32,144.092219,Firefox,2560,1440,,,,,0,1014,,,,,,,,,,,,,,,,,H,174,star,0,1,,,,,,,,,,,,,,,,switch,letter,NA,f,0.062,Lo,,,,,,4,,,,,,,,high,23,0,23,0,1,,,,,,,,,
293791,2022-11-15_21h04.50.808,vts_reward_expectancy_bt,2022.2.4,Win32,144.092219,Firefox,2560,1440,,,,,10,1024,,,,,,,,,,,,,,,,,W,132,circle,1,1,,,,,,,,,,,,,,,,switch,number,numSwt,j,0.029,Lo,,,,,,4,,,,,,,,high,24,0,24,0,1,,,,,,,,,
293791,2022-11-15_21h04.50.808,vts_reward_expectancy_bt,2022.2.4,Win32,144.092219,Firefox,2560,1440,,,,,1,1025,,,,,,,,,,,,,,,,,D,160,triangle,1,0,,,,,,,,,,,,,,,,repeat,number,numRpt,k,0.02,Hi,,,,,,4,,,,,,,,high,25,0,25,0,1,,,,,,,,,
293791,2022-11-15_21h04.50.808,vts_reward_expectancy_bt,2022.2.4,Win32,144.092219,Firefox,2560,1440,,,,,1,1026,,,,,,,,,,,,,,,,,H,125,star,1,0,,,,,,,,,,,,,,,,switch,letter,lettSwt,d,0.151,Lo,,,,,,4,,,,,,,,high,26,0,26,0,1,,,,,,,,,
293791,2022-11-15_21h04.50.808,vts_reward_expectancy_bt,2022.2.4,Win32,144.092219,Firefox,2560,1440,,,,,0,1026,,,,,,,,,,,,,,,,,B,167,hexagon,1,0,,,,,,,,,,,,,,,,repeat,letter,lettRpt,d,0.845,Hi,,,,,,4,,,,,,,,high,27,0,27,0,1,,,,,,,,,
293791,2022-11-15_21h04.50.808,vts_reward_expectancy_bt,2022.2.4,Win32,144.092219,Firefox,2560,1440,,,,,0,1026,,,,,,,,,,,,,,,,,U,139,star,0,0,,,,,,,,,,,,,,,,repeat,letter,NA,d,0.263,Hi,,,,,,4,,,,,,,,high,28,0,28,0,1,,,,,,,,,
293791,2022-11-15_21h04.50.808,vts_reward_expectancy_bt,2022.2.4,Win32,144.092219,Firefox,2560,1440,,,,,1,1027,,,,,,,,,,,,,,,,,S,146,triangle,1,1,,,,,,,,,,,,,,,,switch,number,numSwt,j,0.01,Hi,,,,,,4,,,,,,,,high,29,0,29,0,1,,,,,,,,,
293791,2022-11-15_21h04.50.808,vts_reward_expectancy_bt,2022.2.4,Win32,144.092219,Firefox,2560,1440,,,,,10,1037,,,,,,,,,,,,,,,,,F,181,hexagon,1,0,,,,,,,,,,,,,,,,repeat,number,numRpt,k,0.021,Hi,,,,,,4,,,,,,,,high,30,0,30,0,1,,,,,,,,,
293791,2022-11-15_21h04.50.808,vts_reward_expectancy_bt,2022.2.4,Win32,144.092219,Firefox,2560,1440,,,,,1,1038,,,,,,,,,,,,,,,,,Y,174,circle,1,0,,,,,,,,,,,,,,,,repeat,number,numRpt,k,0.375,Lo,,,,,,4,,,,,,,,high,31,0,31,0,1,,,,,,,,,
293791,2022-11-15_21h04.50.808,vts_reward_expectancy_bt,2022.2.4,Win32,144.092219,Firefox,2560,1440,,,,,1,1039,,,,,,,,,,,,,,,,,W,181,star,1,0,,,,,,,,,,,,,,,,switch,letter,lettSwt,f,0.325,Lo,,,,,,5,,,,,,space,0.867,high,0,0,0,0,1,,,,,,,,,
293791,2022-11-15_21h04.50.808,vts_reward_expectancy_bt,2022.2.4,Win32,144.092219,Firefox,2560,1440,,,,,0,1039,,,,,,,,,,,,,,,,,U,139,triangle,1,0,,,,,,,,,,,,,,,,switch,number,numSwt,j,0.408,Hi,,,,,,5,,,,,,,,high,1,0,1,0,1,,,,,,,,,
293791,2022-11-15_21h04.50.808,vts_reward_expectancy_bt,2022.2.4,Win32,144.092219,Firefox,2560,1440,,,,,10,1049,,,,,,,,,,,,,,,,,B,146,circle,1,0,,,,,,,,,,,,,,,,repeat,number,numRpt,j,0.424,Lo,,,,,,5,,,,,,,,high,2,0,2,0,1,,,,,,,,,
293791,2022-11-15_21h04.50.808,vts_reward_expectancy_bt,2022.2.4,Win32,144.092219,Firefox,2560,1440,,,,,0,1049,,,,,,,,,,,,,,,,,S,132,hexagon,1,0,,,,,,,,,,,,,,,,repeat,number,numRpt,j,0.445,Hi,,,,,,5,,,,,,,,high,3,0,3,0,1,,,,,,,,,
293791,2022-11-15_21h04.50.808,vts_reward_expectancy_bt,2022.2.4,Win32,144.092219,Firefox,2560,1440,,,,,0,1049,,,,,,,,,,,,,,,,,H,167,star,0,0,,,,,,,,,,,,,,,,repeat,number,NA,j,0.351,Hi,,,,,,5,,,,,,,,high,4,0,4,0,1,,,,,,,,,
293791,2022-11-15_21h04.50.808,vts_reward_expectancy_bt,2022.2.4,Win32,144.092219,Firefox,2560,1440,,,,,0,1049,,,,,,,,,,,,,,,,,Y,160,triangle,1,1,,,,,,,,,,,,,,,,repeat,number,numRpt,k,0.396,Hi,,,,,,5,,,,,,,,high,5,0,5,0,1,,,,,,,,,
293791,2022-11-15_21h04.50.808,vts_reward_expectancy_bt,2022.2.4,Win32,144.092219,Firefox,2560,1440,,,,,1,1050,,,,,,,,,,,,,,,,,F,174,circle,1,0,,,,,,,,,,,,,,,,repeat,number,numRpt,k,0.437,Lo,,,,,,5,,,,,,,,high,6,0,6,0,1,,,,,,,,,
293791,2022-11-15_21h04.50.808,vts_reward_expectancy_bt,2022.2.4,Win32,144.092219,Firefox,2560,1440,,,,,0,1050,,,,,,,,,,,,,,,,,D,125,hexagon,0,0,,,,,,,,,,,,,,,,switch,letter,NA,f,0.41,Lo,,,,,,5,,,,,,,,high,7,0,7,0,1,,,,,,,,,
293791,2022-11-15_21h04.50.808,vts_reward_expectancy_bt,2022.2.4,Win32,144.092219,Firefox,2560,1440,,,,,1,1051,,,,,,,,,,,,,,,,,W,181,star,1,1,,,,,,,,,,,,,,,,repeat,letter,lettRpt,f,0.365,Lo,,,,,,5,,,,,,,,high,8,0,8,0,1,,,,,,,,,
293791,2022-11-15_21h04.50.808,vts_reward_expectancy_bt,2022.2.4,Win32,144.092219,Firefox,2560,1440,,,,,1,1052,,,,,,,,,,,,,,,,,U,139,circle,1,0,,,,,,,,,,,,,,,,repeat,letter,lettRpt,f,0.443,Lo,,,,,,5,,,,,,,,high,9,0,9,0,1,,,,,,,,,
293791,2022-11-15_21h04.50.808,vts_reward_expectancy_bt,2022.2.4,Win32,144.092219,Firefox,2560,1440,,,,,0,1052,,,,,,,,,,,,,,,,,B,146,hexagon,0,0,,,,,,,,,,,,,,,,repeat,letter,NA,f,0.459,Lo,,,,,,5,,,,,,,,high,10,0,10,0,1,,,,,,,,,
293791,2022-11-15_21h04.50.808,vts_reward_expectancy_bt,2022.2.4,Win32,144.092219,Firefox,2560,1440,,,,,0,1052,,,,,,,,,,,,,,,,,S,132,triangle,1,1,,,,,,,,,,,,,,,,switch,number,numSwt,j,0.326,Hi,,,,,,5,,,,,,,,high,11,0,11,0,1,,,,,,,,,
293791,2022-11-15_21h04.50.808,vts_reward_expectancy_bt,2022.2.4,Win32,144.092219,Firefox,2560,1440,,,,,0,1052,,,,,,,,,,,,,,,,,H,167,circle,0,0,,,,,,,,,,,,,,,,repeat,number,NA,j,0.352,Hi,,,,,,5,,,,,,,,high,12,0,12,0,1,,,,,,,,,
293791,2022-11-15_21h04.50.808,vts_reward_expectancy_bt,2022.2.4,Win32,144.092219,Firefox,2560,1440,,,,,0,1052,,,,,,,,,,,,,,,,,Y,160,hexagon,1,1,,,,,,,,,,,,,,,,repeat,number,numRpt,k,0.389,Hi,,,,,,5,,,,,,,,high,13,0,13,0,1,,,,,,,,,
293791,2022-11-15_21h04.50.808,vts_reward_expectancy_bt,2022.2.4,Win32,144.092219,Firefox,2560,1440,,,,,1,1053,,,,,,,,,,,,,,,,,F,174,star,1,0,,,,,,,,,,,,,,,,repeat,number,numRpt,k,0.536,Lo,,,,,,5,,,,,,,,high,14,0,14,0,1,,,,,,,,,
293791,2022-11-15_21h04.50.808,vts_reward_expectancy_bt,2022.2.4,Win32,144.092219,Firefox,2560,1440,,,,,0,1053,,,,,,,,,,,,,,,,,D,125,triangle,1,0,,,,,,,,,,,,,,,,repeat,number,numRpt,j,0.601,Hi,,,,,,5,,,,,,,,high,15,0,15,0,1,,,,,,,,,
293791,2022-11-15_21h04.50.808,vts_reward_expectancy_bt,2022.2.4,Win32,144.092219,Firefox,2560,1440,,,,,0,1053,,,,,,,,,,,,,,,,,H,132,triangle,1,0,,,,,,,,,,,,,,,,repeat,number,numRpt,j,0.395,Hi,,,,,,5,,,,,,,,high,16,0,16,0,1,,,,,,,,,
