participant,date,expName,psychopyVersion,OS,frameRate,browser,xResolution,yResolution,key_resp.keys,key_resp.rt,training_resp.keys,training_resp.rt,points_trial,points_cumul,trainBlock,training.thisRepN,training.thisTrialN,training.thisN,training.thisIndex,training.ran,LTriangleOpac,LCircleOpac,LHexagonOpac,LStarOpac,RTriangleOpac,RCircleOpac,RHexagonOpac,RStarOpac,LShape_ID,RShape_ID,curr_topStim,curr_bottStim,curr_shape,acc,E1,target_resp_prac1.keys,target_resp_prac1.rt,pracBlock,task1_prac_trials.thisRepN,task1_prac_trials.thisTrialN,task1_prac_trials.thisN,task1_prac_trials.thisIndex,task1_prac_trials.ran,target_resp_prac2.keys,target_resp_prac2.rt,task2_praac_trials.thisRepN,task2_praac_trials.thisTrialN,task2_praac_trials.thisN,task2_praac_trials.thisIndex,task2_praac_trials.ran,alt,task,condition,target_resp.keys,target_resp.rt,rewCond,vts_practice_trials.thisRepN,vts_practice_trials.thisTrialN,vts_practice_trials.thisN,vts_practice_trials.thisIndex,vts_practice_trials.ran,blockNum,trials_norew.thisRepN,trials_norew.thisTrialN,trials_norew.thisN,trials_norew.thisIndex,trials_norew.ran,key_resp_2.keys,key_resp_2.rt,rewExpectancy,trials_rew.thisRepN,trials_rew.thisTrialN,trials_rew.thisN,trials_rew.thisIndex,trials_rew.ran,Q1,Q2,Q2_text,Q3,Q4,Q5_text,Q5,xRes,yRes
293785,2022-12-01_20h07.38.470,vts_reward_expectancy_bt,2022.2.4,Win32,60.27727547,Chrome,1536,864,,,,,,,,,,,,,,,,,,,,,,,,,,,,,,,,,,,,,,,,,,,,,,,,,,,,,,,,,,,,,,,,,,,,,,,,,,,,
293785,2022-12-01_20h07.38.470,vts_reward_expectancy_bt,2022.2.4,Win32,60.27727547,Chrome,1536,864,space,1.3486,,,,,,,,,,,,,,,,,,,,,,,,,,,,,,,,,,,,,,,,,,,,,,,,,,,,,,,,,,,,,,,,,,,,,,,,,,
293785,2022-12-01_20h07.38.470,vts_reward_expectancy_bt,2022.2.4,Win32,60.27727547,Chrome,1536,864,,,,,,,,,,,,,,,,,,,,,,,,,,,,,,,,,,,,,,,,,,,,,,,,,,,,,,,,,,,,,,,,,,,,,,,,,,,,
293785,2022-12-01_20h07.38.470,vts_reward_expectancy_bt,2022.2.4,Win32,60.27727547,Chrome,1536,864,,,a,1.4898,0,0,0,0,0,0,10,1,0,0,0,1,0,1,0,0,star ,circle,,,,,,,,,,,,,,,,,,,,,,,,,,,,,,,,,,,,,,,,,,,,,,,,,,,,,,
293785,2022-12-01_20h07.38.470,vts_reward_expectancy_bt,2022.2.4,Win32,60.27727547,Chrome,1536,864,,,l,0.0172,10,10,0,0,1,1,3,1,0,1,0,0,1,0,0,0,circle,triangle,,,,,,,,,,,,,,,,,,,,,,,,,,,,,,,,,,,,,,,,,,,,,,,,,,,,,,
293785,2022-12-01_20h07.38.470,vts_reward_expectancy_bt,2022.2.4,Win32,60.27727547,Chrome,1536,864,,,a,0.2724,10,20,0,0,2,2,9,1,0,0,0,1,1,0,0,0,star,triangle,,,,,,,,,,,,,,,,,,,,,,,,,,,,,,,,,,,,,,,,,,,,,,,,,,,,,,
293785,2022-12-01_20h07.38.470,vts_reward_expectancy_bt,2022.2.4,Win32,60.27727547,Chrome,1536,864,,,l,0.1392,10,30,0,0,3,3,5,1,0,1,0,0,0,0,0,1,circle,star,,,,,,,,,,,,,,,,,,,,,,,,,,,,,,,,,,,,,,,,,,,,,,,,,,,,,,
293785,2022-12-01_20h07.38.470,vts_reward_expectancy_bt,2022.2.4,Win32,60.27727547,Chrome,1536,864,,,l,0.1172,1,31,0,0,4,4,0,1,1,0,0,0,0,1,0,0,triangle,circle,,,,,,,,,,,,,,,,,,,,,,,,,,,,,,,,,,,,,,,,,,,,,,,,,,,,,,
293785,2022-12-01_20h07.38.470,vts_reward_expectancy_bt,2022.2.4,Win32,60.27727547,Chrome,1536,864,,,l,0.0839,10,41,0,0,5,5,8,1,0,0,1,0,0,0,0,1,hexagon,star,,,,,,,,,,,,,,,,,,,,,,,,,,,,,,,,,,,,,,,,,,,,,,,,,,,,,,
293785,2022-12-01_20h07.38.470,vts_reward_expectancy_bt,2022.2.4,Win32,60.27727547,Chrome,1536,864,,,l,0.0503,10,51,0,0,6,6,1,1,1,0,0,0,0,0,1,0,triangle,hexagon,,,,,,,,,,,,,,,,,,,,,,,,,,,,,,,,,,,,,,,,,,,,,,,,,,,,,,
293785,2022-12-01_20h07.38.470,vts_reward_expectancy_bt,2022.2.4,Win32,60.27727547,Chrome,1536,864,,,a,0.0216,1,52,0,0,7,7,7,1,0,0,1,0,0,1,0,0,hexagon,circle,,,,,,,,,,,,,,,,,,,,,,,,,,,,,,,,,,,,,,,,,,,,,,,,,,,,,,
293785,2022-12-01_20h07.38.470,vts_reward_expectancy_bt,2022.2.4,Win32,60.27727547,Chrome,1536,864,,,l,0.0863,10,62,0,0,8,8,6,1,0,0,1,0,1,0,0,0,hexagon,triangle,,,,,,,,,,,,,,,,,,,,,,,,,,,,,,,,,,,,,,,,,,,,,,,,,,,,,,
293785,2022-12-01_20h07.38.470,vts_reward_expectancy_bt,2022.2.4,Win32,60.27727547,Chrome,1536,864,,,a,0.1387,10,72,0,0,9,9,2,1,1,0,0,0,0,0,0,1,triangle,star,,,,,,,,,,,,,,,,,,,,,,,,,,,,,,,,,,,,,,,,,,,,,,,,,,,,,,
293785,2022-12-01_20h07.38.470,vts_reward_expectancy_bt,2022.2.4,Win32,60.27727547,Chrome,1536,864,,,a,0.1344,10,82,0,0,10,10,11,1,0,0,0,1,0,0,1,0,star,hexagon,,,,,,,,,,,,,,,,,,,,,,,,,,,,,,,,,,,,,,,,,,,,,,,,,,,,,,
293785,2022-12-01_20h07.38.470,vts_reward_expectancy_bt,2022.2.4,Win32,60.27727547,Chrome,1536,864,,,l,0.1344,1,83,0,0,11,11,4,1,0,1,0,0,0,0,1,0,circle,hexagon,,,,,,,,,,,,,,,,,,,,,,,,,,,,,,,,,,,,,,,,,,,,,,,,,,,,,,
293785,2022-12-01_20h07.38.470,vts_reward_expectancy_bt,2022.2.4,Win32,60.27727547,Chrome,1536,864,,,l,0.0341,1,84,0,1,0,12,9,1,0,0,0,1,1,0,0,0,star,triangle,,,,,,,,,,,,,,,,,,,,,,,,,,,,,,,,,,,,,,,,,,,,,,,,,,,,,,
293785,2022-12-01_20h07.38.470,vts_reward_expectancy_bt,2022.2.4,Win32,60.27727547,Chrome,1536,864,,,l,0.1096,10,94,0,1,1,13,1,1,1,0,0,0,0,0,1,0,triangle,hexagon,,,,,,,,,,,,,,,,,,,,,,,,,,,,,,,,,,,,,,,,,,,,,,,,,,,,,,
293785,2022-12-01_20h07.38.470,vts_reward_expectancy_bt,2022.2.4,Win32,60.27727547,Chrome,1536,864,,,l,0.0004,10,104,0,1,2,14,3,1,0,1,0,0,1,0,0,0,circle,triangle,,,,,,,,,,,,,,,,,,,,,,,,,,,,,,,,,,,,,,,,,,,,,,,,,,,,,,
293785,2022-12-01_20h07.38.470,vts_reward_expectancy_bt,2022.2.4,Win32,60.27727547,Chrome,1536,864,,,l,0.0013,1,105,0,1,3,15,2,1,1,0,0,0,0,0,0,1,triangle,star,,,,,,,,,,,,,,,,,,,,,,,,,,,,,,,,,,,,,,,,,,,,,,,,,,,,,,
293785,2022-12-01_20h07.38.470,vts_reward_expectancy_bt,2022.2.4,Win32,60.27727547,Chrome,1536,864,,,a,1.2686,10,115,0,1,4,16,11,1,0,0,0,1,0,0,1,0,star,hexagon,,,,,,,,,,,,,,,,,,,,,,,,,,,,,,,,,,,,,,,,,,,,,,,,,,,,,,
293785,2022-12-01_20h07.38.470,vts_reward_expectancy_bt,2022.2.4,Win32,60.27727547,Chrome,1536,864,,,l,0.3687,10,125,0,1,5,17,8,1,0,0,1,0,0,0,0,1,hexagon,star,,,,,,,,,,,,,,,,,,,,,,,,,,,,,,,,,,,,,,,,,,,,,,,,,,,,,,
293785,2022-12-01_20h07.38.470,vts_reward_expectancy_bt,2022.2.4,Win32,60.27727547,Chrome,1536,864,,,l,0.1049,1,126,0,1,6,18,10,1,0,0,0,1,0,1,0,0,star ,circle,,,,,,,,,,,,,,,,,,,,,,,,,,,,,,,,,,,,,,,,,,,,,,,,,,,,,,
293785,2022-12-01_20h07.38.470,vts_reward_expectancy_bt,2022.2.4,Win32,60.27727547,Chrome,1536,864,,,a,0.0121,1,127,0,1,7,19,6,1,0,0,1,0,1,0,0,0,hexagon,triangle,,,,,,,,,,,,,,,,,,,,,,,,,,,,,,,,,,,,,,,,,,,,,,,,,,,,,,
293785,2022-12-01_20h07.38.470,vts_reward_expectancy_bt,2022.2.4,Win32,60.27727547,Chrome,1536,864,,,l,0.1685,1,128,0,1,8,20,4,1,0,1,0,0,0,0,1,0,circle,hexagon,,,,,,,,,,,,,,,,,,,,,,,,,,,,,,,,,,,,,,,,,,,,,,,,,,,,,,
293785,2022-12-01_20h07.38.470,vts_reward_expectancy_bt,2022.2.4,Win32,60.27727547,Chrome,1536,864,,,a,0.1155,1,129,0,1,9,21,7,1,0,0,1,0,0,1,0,0,hexagon,circle,,,,,,,,,,,,,,,,,,,,,,,,,,,,,,,,,,,,,,,,,,,,,,,,,,,,,,
293785,2022-12-01_20h07.38.470,vts_reward_expectancy_bt,2022.2.4,Win32,60.27727547,Chrome,1536,864,,,a,0.1018,1,130,0,1,10,22,5,1,0,1,0,0,0,0,0,1,circle,star,,,,,,,,,,,,,,,,,,,,,,,,,,,,,,,,,,,,,,,,,,,,,,,,,,,,,,
293785,2022-12-01_20h07.38.470,vts_reward_expectancy_bt,2022.2.4,Win32,60.27727547,Chrome,1536,864,,,l,1.0247,1,131,0,1,11,23,0,1,1,0,0,0,0,1,0,0,triangle,circle,,,,,,,,,,,,,,,,,,,,,,,,,,,,,,,,,,,,,,,,,,,,,,,,,,,,,,
293785,2022-12-01_20h07.38.470,vts_reward_expectancy_bt,2022.2.4,Win32,60.27727547,Chrome,1536,864,,,a,0.1482,1,132,0,2,0,24,2,1,1,0,0,0,0,0,0,1,triangle,star,,,,,,,,,,,,,,,,,,,,,,,,,,,,,,,,,,,,,,,,,,,,,,,,,,,,,,
293785,2022-12-01_20h07.38.470,vts_reward_expectancy_bt,2022.2.4,Win32,60.27727547,Chrome,1536,864,,,l,0.0007,1,133,0,2,1,25,1,1,1,0,0,0,0,0,1,0,triangle,hexagon,,,,,,,,,,,,,,,,,,,,,,,,,,,,,,,,,,,,,,,,,,,,,,,,,,,,,,
293785,2022-12-01_20h07.38.470,vts_reward_expectancy_bt,2022.2.4,Win32,60.27727547,Chrome,1536,864,,,l,0.1009,10,143,0,2,2,26,8,1,0,0,1,0,0,0,0,1,hexagon,star,,,,,,,,,,,,,,,,,,,,,,,,,,,,,,,,,,,,,,,,,,,,,,,,,,,,,,
293785,2022-12-01_20h07.38.470,vts_reward_expectancy_bt,2022.2.4,Win32,60.27727547,Chrome,1536,864,,,a,9.7216,1,144,0,2,3,27,7,1,0,0,1,0,0,1,0,0,hexagon,circle,,,,,,,,,,,,,,,,,,,,,,,,,,,,,,,,,,,,,,,,,,,,,,,,,,,,,,
293785,2022-12-01_20h07.38.470,vts_reward_expectancy_bt,2022.2.4,Win32,60.27727547,Chrome,1536,864,,,l,1.9916,10,154,0,2,4,28,9,1,0,0,0,1,1,0,0,0,star,triangle,,,,,,,,,,,,,,,,,,,,,,,,,,,,,,,,,,,,,,,,,,,,,,,,,,,,,,
293785,2022-12-01_20h07.38.470,vts_reward_expectancy_bt,2022.2.4,Win32,60.27727547,Chrome,1536,864,,,a,0.0005,10,164,0,2,5,29,4,1,0,1,0,0,0,0,1,0,circle,hexagon,,,,,,,,,,,,,,,,,,,,,,,,,,,,,,,,,,,,,,,,,,,,,,,,,,,,,,
293785,2022-12-01_20h07.38.470,vts_reward_expectancy_bt,2022.2.4,Win32,60.27727547,Chrome,1536,864,,,l,0.0534,1,165,0,2,6,30,10,1,0,0,0,1,0,1,0,0,star ,circle,,,,,,,,,,,,,,,,,,,,,,,,,,,,,,,,,,,,,,,,,,,,,,,,,,,,,,
293785,2022-12-01_20h07.38.470,vts_reward_expectancy_bt,2022.2.4,Win32,60.27727547,Chrome,1536,864,,,l,0.0825,10,175,0,2,7,31,5,1,0,1,0,0,0,0,0,1,circle,star,,,,,,,,,,,,,,,,,,,,,,,,,,,,,,,,,,,,,,,,,,,,,,,,,,,,,,
293785,2022-12-01_20h07.38.470,vts_reward_expectancy_bt,2022.2.4,Win32,60.27727547,Chrome,1536,864,,,l,0.0903,10,185,0,2,8,32,11,1,0,0,0,1,0,0,1,0,star,hexagon,,,,,,,,,,,,,,,,,,,,,,,,,,,,,,,,,,,,,,,,,,,,,,,,,,,,,,
293785,2022-12-01_20h07.38.470,vts_reward_expectancy_bt,2022.2.4,Win32,60.27727547,Chrome,1536,864,,,a,0.0055,1,186,0,2,9,33,3,1,0,1,0,0,1,0,0,0,circle,triangle,,,,,,,,,,,,,,,,,,,,,,,,,,,,,,,,,,,,,,,,,,,,,,,,,,,,,,
293785,2022-12-01_20h07.38.470,vts_reward_expectancy_bt,2022.2.4,Win32,60.27727547,Chrome,1536,864,,,l,0.1095,10,196,0,2,10,34,6,1,0,0,1,0,1,0,0,0,hexagon,triangle,,,,,,,,,,,,,,,,,,,,,,,,,,,,,,,,,,,,,,,,,,,,,,,,,,,,,,
293785,2022-12-01_20h07.38.470,vts_reward_expectancy_bt,2022.2.4,Win32,60.27727547,Chrome,1536,864,,,l,0.0486,1,197,0,2,11,35,0,1,1,0,0,0,0,1,0,0,triangle,circle,,,,,,,,,,,,,,,,,,,,,,,,,,,,,,,,,,,,,,,,,,,,,,,,,,,,,,
293785,2022-12-01_20h07.38.470,vts_reward_expectancy_bt,2022.2.4,Win32,60.27727547,Chrome,1536,864,,,a,0.4486,10,207,1,0,0,0,0,1,1,0,0,0,0,1,0,0,triangle,circle,,,,,,,,,,,,,,,,,,,,,,,,,,,,,,,,,,,,,,,,,,,,,,,,,,,,,,
293785,2022-12-01_20h07.38.470,vts_reward_expectancy_bt,2022.2.4,Win32,60.27727547,Chrome,1536,864,,,l,0.1974,1,208,1,0,1,1,1,1,1,0,0,0,0,0,1,0,triangle,hexagon,,,,,,,,,,,,,,,,,,,,,,,,,,,,,,,,,,,,,,,,,,,,,,,,,,,,,,
293785,2022-12-01_20h07.38.470,vts_reward_expectancy_bt,2022.2.4,Win32,60.27727547,Chrome,1536,864,,,a,0.0486,10,218,1,0,2,2,9,1,0,0,0,1,1,0,0,0,star,triangle,,,,,,,,,,,,,,,,,,,,,,,,,,,,,,,,,,,,,,,,,,,,,,,,,,,,,,
293785,2022-12-01_20h07.38.470,vts_reward_expectancy_bt,2022.2.4,Win32,60.27727547,Chrome,1536,864,,,l,0.0585,10,228,1,0,3,3,5,1,0,1,0,0,0,0,0,1,circle,star,,,,,,,,,,,,,,,,,,,,,,,,,,,,,,,,,,,,,,,,,,,,,,,,,,,,,,
293785,2022-12-01_20h07.38.470,vts_reward_expectancy_bt,2022.2.4,Win32,60.27727547,Chrome,1536,864,,,l,0.1869,1,229,1,0,4,4,11,1,0,0,0,1,0,0,1,0,star,hexagon,,,,,,,,,,,,,,,,,,,,,,,,,,,,,,,,,,,,,,,,,,,,,,,,,,,,,,
293785,2022-12-01_20h07.38.470,vts_reward_expectancy_bt,2022.2.4,Win32,60.27727547,Chrome,1536,864,,,a,0.0009,1,230,1,0,5,5,10,1,0,0,0,1,0,1,0,0,star ,circle,,,,,,,,,,,,,,,,,,,,,,,,,,,,,,,,,,,,,,,,,,,,,,,,,,,,,,
293785,2022-12-01_20h07.38.470,vts_reward_expectancy_bt,2022.2.4,Win32,60.27727547,Chrome,1536,864,,,l,0.0886,1,231,1,0,6,6,7,1,0,0,1,0,0,1,0,0,hexagon,circle,,,,,,,,,,,,,,,,,,,,,,,,,,,,,,,,,,,,,,,,,,,,,,,,,,,,,,
293785,2022-12-01_20h07.38.470,vts_reward_expectancy_bt,2022.2.4,Win32,60.27727547,Chrome,1536,864,,,l,0.1327,10,241,1,0,7,7,8,1,0,0,1,0,0,0,0,1,hexagon,star,,,,,,,,,,,,,,,,,,,,,,,,,,,,,,,,,,,,,,,,,,,,,,,,,,,,,,
293785,2022-12-01_20h07.38.470,vts_reward_expectancy_bt,2022.2.4,Win32,60.27727547,Chrome,1536,864,,,l,0.0507,10,251,1,0,8,8,6,1,0,0,1,0,1,0,0,0,hexagon,triangle,,,,,,,,,,,,,,,,,,,,,,,,,,,,,,,,,,,,,,,,,,,,,,,,,,,,,,
293785,2022-12-01_20h07.38.470,vts_reward_expectancy_bt,2022.2.4,Win32,60.27727547,Chrome,1536,864,,,l,0.0807,1,252,1,0,9,9,3,1,0,1,0,0,1,0,0,0,circle,triangle,,,,,,,,,,,,,,,,,,,,,,,,,,,,,,,,,,,,,,,,,,,,,,,,,,,,,,
293785,2022-12-01_20h07.38.470,vts_reward_expectancy_bt,2022.2.4,Win32,60.27727547,Chrome,1536,864,,,a,0.0845,10,262,1,0,10,10,2,1,1,0,0,0,0,0,0,1,triangle,star,,,,,,,,,,,,,,,,,,,,,,,,,,,,,,,,,,,,,,,,,,,,,,,,,,,,,,
293785,2022-12-01_20h07.38.470,vts_reward_expectancy_bt,2022.2.4,Win32,60.27727547,Chrome,1536,864,,,a,0.0537,10,272,1,0,11,11,4,1,0,1,0,0,0,0,1,0,circle,hexagon,,,,,,,,,,,,,,,,,,,,,,,,,,,,,,,,,,,,,,,,,,,,,,,,,,,,,,
293785,2022-12-01_20h07.38.470,vts_reward_expectancy_bt,2022.2.4,Win32,60.27727547,Chrome,1536,864,,,l,0.0587,10,282,1,1,0,12,4,1,0,1,0,0,0,0,1,0,circle,hexagon,,,,,,,,,,,,,,,,,,,,,,,,,,,,,,,,,,,,,,,,,,,,,,,,,,,,,,
293785,2022-12-01_20h07.38.470,vts_reward_expectancy_bt,2022.2.4,Win32,60.27727547,Chrome,1536,864,,,l,0.0332,1,283,1,1,1,13,10,1,0,0,0,1,0,1,0,0,star ,circle,,,,,,,,,,,,,,,,,,,,,,,,,,,,,,,,,,,,,,,,,,,,,,,,,,,,,,
293785,2022-12-01_20h07.38.470,vts_reward_expectancy_bt,2022.2.4,Win32,60.27727547,Chrome,1536,864,,,l,0.0345,1,284,1,1,2,14,0,1,1,0,0,0,0,1,0,0,triangle,circle,,,,,,,,,,,,,,,,,,,,,,,,,,,,,,,,,,,,,,,,,,,,,,,,,,,,,,
293785,2022-12-01_20h07.38.470,vts_reward_expectancy_bt,2022.2.4,Win32,60.27727547,Chrome,1536,864,,,a,0.0163,1,285,1,1,3,15,11,1,0,0,0,1,0,0,1,0,star,hexagon,,,,,,,,,,,,,,,,,,,,,,,,,,,,,,,,,,,,,,,,,,,,,,,,,,,,,,
293785,2022-12-01_20h07.38.470,vts_reward_expectancy_bt,2022.2.4,Win32,60.27727547,Chrome,1536,864,,,a,0.15,1,286,1,1,4,16,8,1,0,0,1,0,0,0,0,1,hexagon,star,,,,,,,,,,,,,,,,,,,,,,,,,,,,,,,,,,,,,,,,,,,,,,,,,,,,,,
293785,2022-12-01_20h07.38.470,vts_reward_expectancy_bt,2022.2.4,Win32,60.27727547,Chrome,1536,864,,,a,0.1013,10,296,1,1,5,17,2,1,1,0,0,0,0,0,0,1,triangle,star,,,,,,,,,,,,,,,,,,,,,,,,,,,,,,,,,,,,,,,,,,,,,,,,,,,,,,
293785,2022-12-01_20h07.38.470,vts_reward_expectancy_bt,2022.2.4,Win32,60.27727547,Chrome,1536,864,,,a,0.1009,10,306,1,1,6,18,9,1,0,0,0,1,1,0,0,0,star,triangle,,,,,,,,,,,,,,,,,,,,,,,,,,,,,,,,,,,,,,,,,,,,,,,,,,,,,,
293785,2022-12-01_20h07.38.470,vts_reward_expectancy_bt,2022.2.4,Win32,60.27727547,Chrome,1536,864,,,l,0.0324,10,316,1,1,7,19,3,1,0,1,0,0,1,0,0,0,circle,triangle,,,,,,,,,,,,,,,,,,,,,,,,,,,,,,,,,,,,,,,,,,,,,,,,,,,,,,
293785,2022-12-01_20h07.38.470,vts_reward_expectancy_bt,2022.2.4,Win32,60.27727547,Chrome,1536,864,,,a,0.001,1,317,1,1,8,20,7,1,0,0,1,0,0,1,0,0,hexagon,circle,,,,,,,,,,,,,,,,,,,,,,,,,,,,,,,,,,,,,,,,,,,,,,,,,,,,,,
293785,2022-12-01_20h07.38.470,vts_reward_expectancy_bt,2022.2.4,Win32,60.27727547,Chrome,1536,864,,,l,0.0538,10,327,1,1,9,21,6,1,0,0,1,0,1,0,0,0,hexagon,triangle,,,,,,,,,,,,,,,,,,,,,,,,,,,,,,,,,,,,,,,,,,,,,,,,,,,,,,
293785,2022-12-01_20h07.38.470,vts_reward_expectancy_bt,2022.2.4,Win32,60.27727547,Chrome,1536,864,,,l,0.0146,1,328,1,1,10,22,5,1,0,1,0,0,0,0,0,1,circle,star,,,,,,,,,,,,,,,,,,,,,,,,,,,,,,,,,,,,,,,,,,,,,,,,,,,,,,
293785,2022-12-01_20h07.38.470,vts_reward_expectancy_bt,2022.2.4,Win32,60.27727547,Chrome,1536,864,,,a,0.1001,10,338,1,1,11,23,1,1,1,0,0,0,0,0,1,0,triangle,hexagon,,,,,,,,,,,,,,,,,,,,,,,,,,,,,,,,,,,,,,,,,,,,,,,,,,,,,,
293785,2022-12-01_20h07.38.470,vts_reward_expectancy_bt,2022.2.4,Win32,60.27727547,Chrome,1536,864,,,a,0.0317,10,348,1,2,0,24,10,1,0,0,0,1,0,1,0,0,star ,circle,,,,,,,,,,,,,,,,,,,,,,,,,,,,,,,,,,,,,,,,,,,,,,,,,,,,,,
293785,2022-12-01_20h07.38.470,vts_reward_expectancy_bt,2022.2.4,Win32,60.27727547,Chrome,1536,864,,,a,0.0321,10,358,1,2,1,25,2,1,1,0,0,0,0,0,0,1,triangle,star,,,,,,,,,,,,,,,,,,,,,,,,,,,,,,,,,,,,,,,,,,,,,,,,,,,,,,
293785,2022-12-01_20h07.38.470,vts_reward_expectancy_bt,2022.2.4,Win32,60.27727547,Chrome,1536,864,,,a,0.1363,1,359,1,2,2,26,6,1,0,0,1,0,1,0,0,0,hexagon,triangle,,,,,,,,,,,,,,,,,,,,,,,,,,,,,,,,,,,,,,,,,,,,,,,,,,,,,,
293785,2022-12-01_20h07.38.470,vts_reward_expectancy_bt,2022.2.4,Win32,60.27727547,Chrome,1536,864,,,l,0.019,1,360,1,2,3,27,9,1,0,0,0,1,1,0,0,0,star,triangle,,,,,,,,,,,,,,,,,,,,,,,,,,,,,,,,,,,,,,,,,,,,,,,,,,,,,,
293785,2022-12-01_20h07.38.470,vts_reward_expectancy_bt,2022.2.4,Win32,60.27727547,Chrome,1536,864,,,l,0.1161,1,361,1,2,4,28,11,1,0,0,0,1,0,0,1,0,star,hexagon,,,,,,,,,,,,,,,,,,,,,,,,,,,,,,,,,,,,,,,,,,,,,,,,,,,,,,
293785,2022-12-01_20h07.38.470,vts_reward_expectancy_bt,2022.2.4,Win32,60.27727547,Chrome,1536,864,,,a,0.0146,10,371,1,2,5,29,1,1,1,0,0,0,0,0,1,0,triangle,hexagon,,,,,,,,,,,,,,,,,,,,,,,,,,,,,,,,,,,,,,,,,,,,,,,,,,,,,,
293785,2022-12-01_20h07.38.470,vts_reward_expectancy_bt,2022.2.4,Win32,60.27727547,Chrome,1536,864,,,a,0.0244,1,372,1,2,6,30,3,1,0,1,0,0,1,0,0,0,circle,triangle,,,,,,,,,,,,,,,,,,,,,,,,,,,,,,,,,,,,,,,,,,,,,,,,,,,,,,
293785,2022-12-01_20h07.38.470,vts_reward_expectancy_bt,2022.2.4,Win32,60.27727547,Chrome,1536,864,,,a,0.0855,1,373,1,2,7,31,7,1,0,0,1,0,0,1,0,0,hexagon,circle,,,,,,,,,,,,,,,,,,,,,,,,,,,,,,,,,,,,,,,,,,,,,,,,,,,,,,
293785,2022-12-01_20h07.38.470,vts_reward_expectancy_bt,2022.2.4,Win32,60.27727547,Chrome,1536,864,,,l,6.0694,10,383,1,2,8,32,5,1,0,1,0,0,0,0,0,1,circle,star,,,,,,,,,,,,,,,,,,,,,,,,,,,,,,,,,,,,,,,,,,,,,,,,,,,,,,
293785,2022-12-01_20h07.38.470,vts_reward_expectancy_bt,2022.2.4,Win32,60.27727547,Chrome,1536,864,,,a,2.709,1,384,1,2,9,33,4,1,0,1,0,0,0,0,1,0,circle,hexagon,,,,,,,,,,,,,,,,,,,,,,,,,,,,,,,,,,,,,,,,,,,,,,,,,,,,,,
293785,2022-12-01_20h07.38.470,vts_reward_expectancy_bt,2022.2.4,Win32,60.27727547,Chrome,1536,864,,,a,2.7108,1,385,1,2,10,34,8,1,0,0,1,0,0,0,0,1,hexagon,star,,,,,,,,,,,,,,,,,,,,,,,,,,,,,,,,,,,,,,,,,,,,,,,,,,,,,,
293785,2022-12-01_20h07.38.470,vts_reward_expectancy_bt,2022.2.4,Win32,60.27727547,Chrome,1536,864,,,l,0.0181,1,386,1,2,11,35,0,1,1,0,0,0,0,1,0,0,triangle,circle,,,,,,,,,,,,,,,,,,,,,,,,,,,,,,,,,,,,,,,,,,,,,,,,,,,,,,
293785,2022-12-01_20h07.38.470,vts_reward_expectancy_bt,2022.2.4,Win32,60.27727547,Chrome,1536,864,,,l,3.3021,10,396,2,0,0,0,8,1,0,0,1,0,0,0,0,1,hexagon,star,,,,,,,,,,,,,,,,,,,,,,,,,,,,,,,,,,,,,,,,,,,,,,,,,,,,,,
293785,2022-12-01_20h07.38.470,vts_reward_expectancy_bt,2022.2.4,Win32,60.27727547,Chrome,1536,864,,,a,0.0435,10,406,2,0,1,1,0,1,1,0,0,0,0,1,0,0,triangle,circle,,,,,,,,,,,,,,,,,,,,,,,,,,,,,,,,,,,,,,,,,,,,,,,,,,,,,,
293785,2022-12-01_20h07.38.470,vts_reward_expectancy_bt,2022.2.4,Win32,60.27727547,Chrome,1536,864,,,a,0.0341,10,416,2,0,2,2,6,1,0,0,1,0,1,0,0,0,hexagon,triangle,,,,,,,,,,,,,,,,,,,,,,,,,,,,,,,,,,,,,,,,,,,,,,,,,,,,,,
293785,2022-12-01_20h07.38.470,vts_reward_expectancy_bt,2022.2.4,Win32,60.27727547,Chrome,1536,864,,,a,0.0497,10,426,2,0,3,3,10,1,0,0,0,1,0,1,0,0,star ,circle,,,,,,,,,,,,,,,,,,,,,,,,,,,,,,,,,,,,,,,,,,,,,,,,,,,,,,
293785,2022-12-01_20h07.38.470,vts_reward_expectancy_bt,2022.2.4,Win32,60.27727547,Chrome,1536,864,,,a,0.0674,1,427,2,0,4,4,9,1,0,0,0,1,1,0,0,0,star,triangle,,,,,,,,,,,,,,,,,,,,,,,,,,,,,,,,,,,,,,,,,,,,,,,,,,,,,,
293785,2022-12-01_20h07.38.470,vts_reward_expectancy_bt,2022.2.4,Win32,60.27727547,Chrome,1536,864,,,l,0.0068,10,437,2,0,5,5,2,1,1,0,0,0,0,0,0,1,triangle,star,,,,,,,,,,,,,,,,,,,,,,,,,,,,,,,,,,,,,,,,,,,,,,,,,,,,,,
293785,2022-12-01_20h07.38.470,vts_reward_expectancy_bt,2022.2.4,Win32,60.27727547,Chrome,1536,864,,,a,0.0011,1,438,2,0,6,6,5,1,0,1,0,0,0,0,0,1,circle,star,,,,,,,,,,,,,,,,,,,,,,,,,,,,,,,,,,,,,,,,,,,,,,,,,,,,,,
293785,2022-12-01_20h07.38.470,vts_reward_expectancy_bt,2022.2.4,Win32,60.27727547,Chrome,1536,864,,,l,0.021,1,439,2,0,7,7,1,1,1,0,0,0,0,0,1,0,triangle,hexagon,,,,,,,,,,,,,,,,,,,,,,,,,,,,,,,,,,,,,,,,,,,,,,,,,,,,,,
293785,2022-12-01_20h07.38.470,vts_reward_expectancy_bt,2022.2.4,Win32,60.27727547,Chrome,1536,864,,,l,0.0235,1,440,2,0,8,8,4,1,0,1,0,0,0,0,1,0,circle,hexagon,,,,,,,,,,,,,,,,,,,,,,,,,,,,,,,,,,,,,,,,,,,,,,,,,,,,,,
293785,2022-12-01_20h07.38.470,vts_reward_expectancy_bt,2022.2.4,Win32,60.27727547,Chrome,1536,864,,,a,0.0401,10,450,2,0,9,9,7,1,0,0,1,0,0,1,0,0,hexagon,circle,,,,,,,,,,,,,,,,,,,,,,,,,,,,,,,,,,,,,,,,,,,,,,,,,,,,,,
293785,2022-12-01_20h07.38.470,vts_reward_expectancy_bt,2022.2.4,Win32,60.27727547,Chrome,1536,864,,,a,0.1317,1,451,2,0,10,10,3,1,0,1,0,0,1,0,0,0,circle,triangle,,,,,,,,,,,,,,,,,,,,,,,,,,,,,,,,,,,,,,,,,,,,,,,,,,,,,,
293785,2022-12-01_20h07.38.470,vts_reward_expectancy_bt,2022.2.4,Win32,60.27727547,Chrome,1536,864,,,a,0.3689,10,461,2,0,11,11,11,1,0,0,0,1,0,0,1,0,star,hexagon,,,,,,,,,,,,,,,,,,,,,,,,,,,,,,,,,,,,,,,,,,,,,,,,,,,,,,
293785,2022-12-01_20h07.38.470,vts_reward_expectancy_bt,2022.2.4,Win32,60.27727547,Chrome,1536,864,,,a,0.053,1,462,2,1,0,12,2,1,1,0,0,0,0,0,0,1,triangle,star,,,,,,,,,,,,,,,,,,,,,,,,,,,,,,,,,,,,,,,,,,,,,,,,,,,,,,
293785,2022-12-01_20h07.38.470,vts_reward_expectancy_bt,2022.2.4,Win32,60.27727547,Chrome,1536,864,,,l,0.1012,10,472,2,1,1,13,8,1,0,0,1,0,0,0,0,1,hexagon,star,,,,,,,,,,,,,,,,,,,,,,,,,,,,,,,,,,,,,,,,,,,,,,,,,,,,,,
293785,2022-12-01_20h07.38.470,vts_reward_expectancy_bt,2022.2.4,Win32,60.27727547,Chrome,1536,864,,,a,0.0416,10,482,2,1,2,14,11,1,0,0,0,1,0,0,1,0,star,hexagon,,,,,,,,,,,,,,,,,,,,,,,,,,,,,,,,,,,,,,,,,,,,,,,,,,,,,,
293785,2022-12-01_20h07.38.470,vts_reward_expectancy_bt,2022.2.4,Win32,60.27727547,Chrome,1536,864,,,l,0.1172,10,492,2,1,3,15,4,1,0,1,0,0,0,0,1,0,circle,hexagon,,,,,,,,,,,,,,,,,,,,,,,,,,,,,,,,,,,,,,,,,,,,,,,,,,,,,,
293785,2022-12-01_20h07.38.470,vts_reward_expectancy_bt,2022.2.4,Win32,60.27727547,Chrome,1536,864,,,l,0.1312,1,493,2,1,4,16,0,1,1,0,0,0,0,1,0,0,triangle,circle,,,,,,,,,,,,,,,,,,,,,,,,,,,,,,,,,,,,,,,,,,,,,,,,,,,,,,
293785,2022-12-01_20h07.38.470,vts_reward_expectancy_bt,2022.2.4,Win32,60.27727547,Chrome,1536,864,,,l,0.0836,10,503,2,1,5,17,10,1,0,0,0,1,0,1,0,0,star ,circle,,,,,,,,,,,,,,,,,,,,,,,,,,,,,,,,,,,,,,,,,,,,,,,,,,,,,,
293785,2022-12-01_20h07.38.470,vts_reward_expectancy_bt,2022.2.4,Win32,60.27727547,Chrome,1536,864,,,l,0.0174,1,504,2,1,6,18,1,1,1,0,0,0,0,0,1,0,triangle,hexagon,,,,,,,,,,,,,,,,,,,,,,,,,,,,,,,,,,,,,,,,,,,,,,,,,,,,,,
293785,2022-12-01_20h07.38.470,vts_reward_expectancy_bt,2022.2.4,Win32,60.27727547,Chrome,1536,864,,,l,0.708,10,514,2,1,7,19,9,1,0,0,0,1,1,0,0,0,star,triangle,,,,,,,,,,,,,,,,,,,,,,,,,,,,,,,,,,,,,,,,,,,,,,,,,,,,,,
293785,2022-12-01_20h07.38.470,vts_reward_expectancy_bt,2022.2.4,Win32,60.27727547,Chrome,1536,864,,,l,0.0009,10,524,2,1,8,20,6,1,0,0,1,0,1,0,0,0,hexagon,triangle,,,,,,,,,,,,,,,,,,,,,,,,,,,,,,,,,,,,,,,,,,,,,,,,,,,,,,
293785,2022-12-01_20h07.38.470,vts_reward_expectancy_bt,2022.2.4,Win32,60.27727547,Chrome,1536,864,,,a,0.0239,10,534,2,1,9,21,5,1,0,1,0,0,0,0,0,1,circle,star,,,,,,,,,,,,,,,,,,,,,,,,,,,,,,,,,,,,,,,,,,,,,,,,,,,,,,
293785,2022-12-01_20h07.38.470,vts_reward_expectancy_bt,2022.2.4,Win32,60.27727547,Chrome,1536,864,,,l,0.0479,1,535,2,1,10,22,7,1,0,0,1,0,0,1,0,0,hexagon,circle,,,,,,,,,,,,,,,,,,,,,,,,,,,,,,,,,,,,,,,,,,,,,,,,,,,,,,
293785,2022-12-01_20h07.38.470,vts_reward_expectancy_bt,2022.2.4,Win32,60.27727547,Chrome,1536,864,,,a,0.0382,1,536,2,1,11,23,3,1,0,1,0,0,1,0,0,0,circle,triangle,,,,,,,,,,,,,,,,,,,,,,,,,,,,,,,,,,,,,,,,,,,,,,,,,,,,,,
293785,2022-12-01_20h07.38.470,vts_reward_expectancy_bt,2022.2.4,Win32,60.27727547,Chrome,1536,864,,,a,0.0678,1,537,2,2,0,24,3,1,0,1,0,0,1,0,0,0,circle,triangle,,,,,,,,,,,,,,,,,,,,,,,,,,,,,,,,,,,,,,,,,,,,,,,,,,,,,,
293785,2022-12-01_20h07.38.470,vts_reward_expectancy_bt,2022.2.4,Win32,60.27727547,Chrome,1536,864,,,a,1.1172,10,547,2,2,1,25,11,1,0,0,0,1,0,0,1,0,star,hexagon,,,,,,,,,,,,,,,,,,,,,,,,,,,,,,,,,,,,,,,,,,,,,,,,,,,,,,
293785,2022-12-01_20h07.38.470,vts_reward_expectancy_bt,2022.2.4,Win32,60.27727547,Chrome,1536,864,,,a,0.0787,1,548,2,2,2,26,7,1,0,0,1,0,0,1,0,0,hexagon,circle,,,,,,,,,,,,,,,,,,,,,,,,,,,,,,,,,,,,,,,,,,,,,,,,,,,,,,
293785,2022-12-01_20h07.38.470,vts_reward_expectancy_bt,2022.2.4,Win32,60.27727547,Chrome,1536,864,,,a,0.1217,10,558,2,2,3,27,1,1,1,0,0,0,0,0,1,0,triangle,hexagon,,,,,,,,,,,,,,,,,,,,,,,,,,,,,,,,,,,,,,,,,,,,,,,,,,,,,,
293785,2022-12-01_20h07.38.470,vts_reward_expectancy_bt,2022.2.4,Win32,60.27727547,Chrome,1536,864,,,a,0.4201,1,559,2,2,4,28,2,1,1,0,0,0,0,0,0,1,triangle,star,,,,,,,,,,,,,,,,,,,,,,,,,,,,,,,,,,,,,,,,,,,,,,,,,,,,,,
293785,2022-12-01_20h07.38.470,vts_reward_expectancy_bt,2022.2.4,Win32,60.27727547,Chrome,1536,864,,,l,0.0927,10,569,2,2,5,29,6,1,0,0,1,0,1,0,0,0,hexagon,triangle,,,,,,,,,,,,,,,,,,,,,,,,,,,,,,,,,,,,,,,,,,,,,,,,,,,,,,
293785,2022-12-01_20h07.38.470,vts_reward_expectancy_bt,2022.2.4,Win32,60.27727547,Chrome,1536,864,,,l,0.0368,1,570,2,2,6,30,4,1,0,1,0,0,0,0,1,0,circle,hexagon,,,,,,,,,,,,,,,,,,,,,,,,,,,,,,,,,,,,,,,,,,,,,,,,,,,,,,
293785,2022-12-01_20h07.38.470,vts_reward_expectancy_bt,2022.2.4,Win32,60.27727547,Chrome,1536,864,,,l,0.4321,10,580,2,2,7,31,9,1,0,0,0,1,1,0,0,0,star,triangle,,,,,,,,,,,,,,,,,,,,,,,,,,,,,,,,,,,,,,,,,,,,,,,,,,,,,,
293785,2022-12-01_20h07.38.470,vts_reward_expectancy_bt,2022.2.4,Win32,60.27727547,Chrome,1536,864,,,a,3.9162,1,581,2,2,8,32,8,1,0,0,1,0,0,0,0,1,hexagon,star,,,,,,,,,,,,,,,,,,,,,,,,,,,,,,,,,,,,,,,,,,,,,,,,,,,,,,
293785,2022-12-01_20h07.38.470,vts_reward_expectancy_bt,2022.2.4,Win32,60.27727547,Chrome,1536,864,,,a,0.1651,1,582,2,2,9,33,10,1,0,0,0,1,0,1,0,0,star ,circle,,,,,,,,,,,,,,,,,,,,,,,,,,,,,,,,,,,,,,,,,,,,,,,,,,,,,,
293785,2022-12-01_20h07.38.470,vts_reward_expectancy_bt,2022.2.4,Win32,60.27727547,Chrome,1536,864,,,l,0.4266,1,583,2,2,10,34,0,1,1,0,0,0,0,1,0,0,triangle,circle,,,,,,,,,,,,,,,,,,,,,,,,,,,,,,,,,,,,,,,,,,,,,,,,,,,,,,
293785,2022-12-01_20h07.38.470,vts_reward_expectancy_bt,2022.2.4,Win32,60.27727547,Chrome,1536,864,,,l,0.0006,1,584,2,2,11,35,5,1,0,1,0,0,0,0,0,1,circle,star,,,,,,,,,,,,,,,,,,,,,,,,,,,,,,,,,,,,,,,,,,,,,,,,,,,,,,
293785,2022-12-01_20h07.38.470,vts_reward_expectancy_bt,2022.2.4,Win32,60.27727547,Chrome,1536,864,,,,,,,,,,,,,,,,,,,,,,,167,S,triangle,1,0,f,0.0473,0,0,0,0,0,1,,,,,,,,,,,,,,,,,,,,,,,,,,,,,,,,,,,,,,,,,
293785,2022-12-01_20h07.38.470,vts_reward_expectancy_bt,2022.2.4,Win32,60.27727547,Chrome,1536,864,,,,,,,,,,,,,,,,,,,,,,,139,H,circle,1,0,d,0.0854,0,1,0,1,0,1,,,,,,,,,,,,,,,,,,,,,,,,,,,,,,,,,,,,,,,,,
293785,2022-12-01_20h07.38.470,vts_reward_expectancy_bt,2022.2.4,Win32,60.27727547,Chrome,1536,864,,,,,,,,,,,,,,,,,,,,,,,146,D,star,1,0,d,0.0504,0,2,0,2,0,1,,,,,,,,,,,,,,,,,,,,,,,,,,,,,,,,,,,,,,,,,
293785,2022-12-01_20h07.38.470,vts_reward_expectancy_bt,2022.2.4,Win32,60.27727547,Chrome,1536,864,,,,,,,,,,,,,,,,,,,,,,,174,Y,hexagon,1,0,f,0.0008,0,3,0,3,0,1,,,,,,,,,,,,,,,,,,,,,,,,,,,,,,,,,,,,,,,,,
293785,2022-12-01_20h07.38.470,vts_reward_expectancy_bt,2022.2.4,Win32,60.27727547,Chrome,1536,864,,,,,,,,,,,,,,,,,,,,,,,132,U,triangle,1,0,d,0.0838,0,4,0,4,0,1,,,,,,,,,,,,,,,,,,,,,,,,,,,,,,,,,,,,,,,,,
293785,2022-12-01_20h07.38.470,vts_reward_expectancy_bt,2022.2.4,Win32,60.27727547,Chrome,1536,864,,,,,,,,,,,,,,,,,,,,,,,181,F,circle,1,0,f,0.0499,0,5,0,5,0,1,,,,,,,,,,,,,,,,,,,,,,,,,,,,,,,,,,,,,,,,,
293785,2022-12-01_20h07.38.470,vts_reward_expectancy_bt,2022.2.4,Win32,60.27727547,Chrome,1536,864,,,,,,,,,,,,,,,,,,,,,,,125,W,star,0,0,f,0.0707,0,6,0,6,0,1,,,,,,,,,,,,,,,,,,,,,,,,,,,,,,,,,,,,,,,,,
293785,2022-12-01_20h07.38.470,vts_reward_expectancy_bt,2022.2.4,Win32,60.27727547,Chrome,1536,864,,,,,,,,,,,,,,,,,,,,,,,160,B,hexagon,0,1,d,0.0009,0,7,0,7,0,1,,,,,,,,,,,,,,,,,,,,,,,,,,,,,,,,,,,,,,,,,
293785,2022-12-01_20h07.38.470,vts_reward_expectancy_bt,2022.2.4,Win32,60.27727547,Chrome,1536,864,,,,,,,,,,,,,,,,,,,,,,,167,S,triangle,0,1,d,0.0007,0,8,0,8,0,1,,,,,,,,,,,,,,,,,,,,,,,,,,,,,,,,,,,,,,,,,
293785,2022-12-01_20h07.38.470,vts_reward_expectancy_bt,2022.2.4,Win32,60.27727547,Chrome,1536,864,,,,,,,,,,,,,,,,,,,,,,,139,H,star,0,1,f,0.0841,0,9,0,9,0,1,,,,,,,,,,,,,,,,,,,,,,,,,,,,,,,,,,,,,,,,,
293785,2022-12-01_20h07.38.470,vts_reward_expectancy_bt,2022.2.4,Win32,60.27727547,Chrome,1536,864,,,,,,,,,,,,,,,,,,,,,,,174,H,hexagon,0,1,d,0.0385,1,0,0,0,0,1,,,,,,,,,,,,,,,,,,,,,,,,,,,,,,,,,,,,,,,,,
293785,2022-12-01_20h07.38.470,vts_reward_expectancy_bt,2022.2.4,Win32,60.27727547,Chrome,1536,864,,,,,,,,,,,,,,,,,,,,,,,125,W,triangle,1,1,d,0.1514,1,1,0,1,0,1,,,,,,,,,,,,,,,,,,,,,,,,,,,,,,,,,,,,,,,,,
293785,2022-12-01_20h07.38.470,vts_reward_expectancy_bt,2022.2.4,Win32,60.27727547,Chrome,1536,864,,,,,,,,,,,,,,,,,,,,,,,160,Y,star,0,0,d,0.001,1,2,0,2,0,1,,,,,,,,,,,,,,,,,,,,,,,,,,,,,,,,,,,,,,,,,
293785,2022-12-01_20h07.38.470,vts_reward_expectancy_bt,2022.2.4,Win32,60.27727547,Chrome,1536,864,,,,,,,,,,,,,,,,,,,,,,,132,S,circle,0,1,f,0.1038,1,3,0,3,0,1,,,,,,,,,,,,,,,,,,,,,,,,,,,,,,,,,,,,,,,,,
293785,2022-12-01_20h07.38.470,vts_reward_expectancy_bt,2022.2.4,Win32,60.27727547,Chrome,1536,864,,,,,,,,,,,,,,,,,,,,,,,139,F,hexagon,0,1,f,0.0509,1,4,0,4,0,1,,,,,,,,,,,,,,,,,,,,,,,,,,,,,,,,,,,,,,,,,
293785,2022-12-01_20h07.38.470,vts_reward_expectancy_bt,2022.2.4,Win32,60.27727547,Chrome,1536,864,,,,,,,,,,,,,,,,,,,,,,,146,U,triangle,1,1,d,0.1666,1,5,0,5,0,1,,,,,,,,,,,,,,,,,,,,,,,,,,,,,,,,,,,,,,,,,
293785,2022-12-01_20h07.38.470,vts_reward_expectancy_bt,2022.2.4,Win32,60.27727547,Chrome,1536,864,,,,,,,,,,,,,,,,,,,,,,,181,D,star,0,0,d,0.1548,1,6,0,6,0,1,,,,,,,,,,,,,,,,,,,,,,,,,,,,,,,,,,,,,,,,,
293785,2022-12-01_20h07.38.470,vts_reward_expectancy_bt,2022.2.4,Win32,60.27727547,Chrome,1536,864,,,,,,,,,,,,,,,,,,,,,,,167,B,circle,1,1,f,0.1047,1,7,0,7,0,1,,,,,,,,,,,,,,,,,,,,,,,,,,,,,,,,,,,,,,,,,
293785,2022-12-01_20h07.38.470,vts_reward_expectancy_bt,2022.2.4,Win32,60.27727547,Chrome,1536,864,,,,,,,,,,,,,,,,,,,,,,,174,H,star,1,0,f,0.058,1,8,0,8,0,1,,,,,,,,,,,,,,,,,,,,,,,,,,,,,,,,,,,,,,,,,
293785,2022-12-01_20h07.38.470,vts_reward_expectancy_bt,2022.2.4,Win32,60.27727547,Chrome,1536,864,,,,,,,,,,,,,,,,,,,,,,,125,W,circle,0,0,f,0.0237,1,9,0,9,0,1,,,,,,,,,,,,,,,,,,,,,,,,,,,,,,,,,,,,,,,,,
293785,2022-12-01_20h07.38.470,vts_reward_expectancy_bt,2022.2.4,Win32,60.27727547,Chrome,1536,864,,,,,,,,,,,,,,,,,,,,,,,167,H,hexagon,0,1,,,2,0,0,0,0,1,,,,,,,,,,,,,,,,,,,,,,,,,,,,,,,,,,,,,,,,,
293785,2022-12-01_20h07.38.470,vts_reward_expectancy_bt,2022.2.4,Win32,60.27727547,Chrome,1536,864,,,,,,,,,,,,,,,,,,,,,,,139,F,star,0,1,f,1.671,2,1,0,1,0,1,,,,,,,,,,,,,,,,,,,,,,,,,,,,,,,,,,,,,,,,,
293785,2022-12-01_20h07.38.470,vts_reward_expectancy_bt,2022.2.4,Win32,60.27727547,Chrome,1536,864,,,,,,,,,,,,,,,,,,,,,,,132,W,triangle,0,1,f,0.1345,2,2,0,2,0,1,,,,,,,,,,,,,,,,,,,,,,,,,,,,,,,,,,,,,,,,,
293785,2022-12-01_20h07.38.470,vts_reward_expectancy_bt,2022.2.4,Win32,60.27727547,Chrome,1536,864,,,,,,,,,,,,,,,,,,,,,,,125,U,circle,1,1,d,0.0868,2,3,0,3,0,1,,,,,,,,,,,,,,,,,,,,,,,,,,,,,,,,,,,,,,,,,
293785,2022-12-01_20h07.38.470,vts_reward_expectancy_bt,2022.2.4,Win32,60.27727547,Chrome,1536,864,,,,,,,,,,,,,,,,,,,,,,,160,Y,hexagon,0,0,d,0.0009,2,4,0,4,0,1,,,,,,,,,,,,,,,,,,,,,,,,,,,,,,,,,,,,,,,,,
293785,2022-12-01_20h07.38.470,vts_reward_expectancy_bt,2022.2.4,Win32,60.27727547,Chrome,1536,864,,,,,,,,,,,,,,,,,,,,,,,181,S,star,1,1,f,0.0185,2,5,0,5,0,1,,,,,,,,,,,,,,,,,,,,,,,,,,,,,,,,,,,,,,,,,
293785,2022-12-01_20h07.38.470,vts_reward_expectancy_bt,2022.2.4,Win32,60.27727547,Chrome,1536,864,,,,,,,,,,,,,,,,,,,,,,,174,B,triangle,1,0,f,0.0422,2,6,0,6,0,1,,,,,,,,,,,,,,,,,,,,,,,,,,,,,,,,,,,,,,,,,
293785,2022-12-01_20h07.38.470,vts_reward_expectancy_bt,2022.2.4,Win32,60.27727547,Chrome,1536,864,,,,,,,,,,,,,,,,,,,,,,,146,D,circle,1,0,d,0.0249,2,7,0,7,0,1,,,,,,,,,,,,,,,,,,,,,,,,,,,,,,,,,,,,,,,,,
293785,2022-12-01_20h07.38.470,vts_reward_expectancy_bt,2022.2.4,Win32,60.27727547,Chrome,1536,864,,,,,,,,,,,,,,,,,,,,,,,167,H,circle,0,0,d,0.0733,2,8,0,8,0,1,,,,,,,,,,,,,,,,,,,,,,,,,,,,,,,,,,,,,,,,,
293785,2022-12-01_20h07.38.470,vts_reward_expectancy_bt,2022.2.4,Win32,60.27727547,Chrome,1536,864,,,,,,,,,,,,,,,,,,,,,,,139,F,hexagon,1,1,d,0.0929,2,9,0,9,0,1,,,,,,,,,,,,,,,,,,,,,,,,,,,,,,,,,,,,,,,,,
293785,2022-12-01_20h07.38.470,vts_reward_expectancy_bt,2022.2.4,Win32,60.27727547,Chrome,1536,864,,,,,,,,,,,,,,,,,,,,,,,132,S,circle,0,0,,,3,,,,,,j,0.0005,0,0,0,0,1,,,,,,,,,,,,,,,,,,,,,,,,,,,,,,,,,,
293785,2022-12-01_20h07.38.470,vts_reward_expectancy_bt,2022.2.4,Win32,60.27727547,Chrome,1536,864,,,,,,,,,,,,,,,,,,,,,,,139,B,star,1,1,,,3,,,,,,j,0.0176,1,0,1,0,1,,,,,,,,,,,,,,,,,,,,,,,,,,,,,,,,,,
293785,2022-12-01_20h07.38.470,vts_reward_expectancy_bt,2022.2.4,Win32,60.27727547,Chrome,1536,864,,,,,,,,,,,,,,,,,,,,,,,174,U,triangle,0,0,,,3,,,,,,j,0.0839,2,0,2,0,1,,,,,,,,,,,,,,,,,,,,,,,,,,,,,,,,,,
293785,2022-12-01_20h07.38.470,vts_reward_expectancy_bt,2022.2.4,Win32,60.27727547,Chrome,1536,864,,,,,,,,,,,,,,,,,,,,,,,125,Y,hexagon,0,1,,,3,,,,,,j,0.025,3,0,3,0,1,,,,,,,,,,,,,,,,,,,,,,,,,,,,,,,,,,
293785,2022-12-01_20h07.38.470,vts_reward_expectancy_bt,2022.2.4,Win32,60.27727547,Chrome,1536,864,,,,,,,,,,,,,,,,,,,,,,,167,W,circle,0,1,,,3,,,,,,j,1.2173,4,0,4,0,1,,,,,,,,,,,,,,,,,,,,,,,,,,,,,,,,,,
293785,2022-12-01_20h07.38.470,vts_reward_expectancy_bt,2022.2.4,Win32,60.27727547,Chrome,1536,864,,,,,,,,,,,,,,,,,,,,,,,181,H,star,1,1,,,3,,,,,,j,0.0069,5,0,5,0,1,,,,,,,,,,,,,,,,,,,,,,,,,,,,,,,,,,
293785,2022-12-01_20h07.38.470,vts_reward_expectancy_bt,2022.2.4,Win32,60.27727547,Chrome,1536,864,,,,,,,,,,,,,,,,,,,,,,,160,F,triangle,1,0,,,3,,,,,,j,0.4566,6,0,6,0,1,,,,,,,,,,,,,,,,,,,,,,,,,,,,,,,,,,
293785,2022-12-01_20h07.38.470,vts_reward_expectancy_bt,2022.2.4,Win32,60.27727547,Chrome,1536,864,,,,,,,,,,,,,,,,,,,,,,,146,D,hexagon,1,0,,,3,,,,,,j,0.0844,7,0,7,0,1,,,,,,,,,,,,,,,,,,,,,,,,,,,,,,,,,,
293785,2022-12-01_20h07.38.470,vts_reward_expectancy_bt,2022.2.4,Win32,60.27727547,Chrome,1536,864,,,,,,,,,,,,,,,,,,,,,,,132,S,hexagon,0,0,,,3,,,,,,,,8,0,8,0,1,,,,,,,,,,,,,,,,,,,,,,,,,,,,,,,,,,
293785,2022-12-01_20h07.38.470,vts_reward_expectancy_bt,2022.2.4,Win32,60.27727547,Chrome,1536,864,,,,,,,,,,,,,,,,,,,,,,,139,B,star,0,1,,,3,,,,,,k,0.0008,9,0,9,0,1,,,,,,,,,,,,,,,,,,,,,,,,,,,,,,,,,,
293785,2022-12-01_20h07.38.470,vts_reward_expectancy_bt,2022.2.4,Win32,60.27727547,Chrome,1536,864,,,,,,,,,,,,,,,,,,,,,,,181,U,star,1,1,,,4,,,,,,k,0.0011,0,0,0,0,1,,,,,,,,,,,,,,,,,,,,,,,,,,,,,,,,,,
293785,2022-12-01_20h07.38.470,vts_reward_expectancy_bt,2022.2.4,Win32,60.27727547,Chrome,1536,864,,,,,,,,,,,,,,,,,,,,,,,139,W,hexagon,0,0,,,4,,,,,,j,0.066,1,0,1,0,1,,,,,,,,,,,,,,,,,,,,,,,,,,,,,,,,,,
293785,2022-12-01_20h07.38.470,vts_reward_expectancy_bt,2022.2.4,Win32,60.27727547,Chrome,1536,864,,,,,,,,,,,,,,,,,,,,,,,125,F,triangle,1,1,,,4,,,,,,j,0.6328,2,0,2,0,1,,,,,,,,,,,,,,,,,,,,,,,,,,,,,,,,,,
293785,2022-12-01_20h07.38.470,vts_reward_expectancy_bt,2022.2.4,Win32,60.27727547,Chrome,1536,864,,,,,,,,,,,,,,,,,,,,,,,167,H,circle,1,0,,,4,,,,,,j,0.2001,3,0,3,0,1,,,,,,,,,,,,,,,,,,,,,,,,,,,,,,,,,,
293785,2022-12-01_20h07.38.470,vts_reward_expectancy_bt,2022.2.4,Win32,60.27727547,Chrome,1536,864,,,,,,,,,,,,,,,,,,,,,,,160,D,star,1,0,,,4,,,,,,j,0.0522,4,0,4,0,1,,,,,,,,,,,,,,,,,,,,,,,,,,,,,,,,,,
293785,2022-12-01_20h07.38.470,vts_reward_expectancy_bt,2022.2.4,Win32,60.27727547,Chrome,1536,864,,,,,,,,,,,,,,,,,,,,,,,174,Y,hexagon,0,0,,,4,,,,,,j,0.3867,5,0,5,0,1,,,,,,,,,,,,,,,,,,,,,,,,,,,,,,,,,,
293785,2022-12-01_20h07.38.470,vts_reward_expectancy_bt,2022.2.4,Win32,60.27727547,Chrome,1536,864,,,,,,,,,,,,,,,,,,,,,,,132,B,triangle,0,1,,,4,,,,,,k,0.0424,6,0,6,0,1,,,,,,,,,,,,,,,,,,,,,,,,,,,,,,,,,,
293785,2022-12-01_20h07.38.470,vts_reward_expectancy_bt,2022.2.4,Win32,60.27727547,Chrome,1536,864,,,,,,,,,,,,,,,,,,,,,,,146,S,circle,1,1,,,4,,,,,,k,0.0008,7,0,7,0,1,,,,,,,,,,,,,,,,,,,,,,,,,,,,,,,,,,
293785,2022-12-01_20h07.38.470,vts_reward_expectancy_bt,2022.2.4,Win32,60.27727547,Chrome,1536,864,,,,,,,,,,,,,,,,,,,,,,,181,U,star,0,0,,,4,,,,,,j,0.0511,8,0,8,0,1,,,,,,,,,,,,,,,,,,,,,,,,,,,,,,,,,,
293785,2022-12-01_20h07.38.470,vts_reward_expectancy_bt,2022.2.4,Win32,60.27727547,Chrome,1536,864,,,,,,,,,,,,,,,,,,,,,,,139,W,triangle,0,1,,,4,,,,,,j,0.0229,9,0,9,0,1,,,,,,,,,,,,,,,,,,,,,,,,,,,,,,,,,,
293785,2022-12-01_20h07.38.470,vts_reward_expectancy_bt,2022.2.4,Win32,60.27727547,Chrome,1536,864,,,,,,,,,,,,,,,,,,,,,,,167,F,circle,0,1,,,5,,,,,,k,0.1501,0,0,0,0,1,,,,,,,,,,,,,,,,,,,,,,,,,,,,,,,,,,
293785,2022-12-01_20h07.38.470,vts_reward_expectancy_bt,2022.2.4,Win32,60.27727547,Chrome,1536,864,,,,,,,,,,,,,,,,,,,,,,,146,B,hexagon,0,1,,,5,,,,,,k,0.0221,1,0,1,0,1,,,,,,,,,,,,,,,,,,,,,,,,,,,,,,,,,,
293785,2022-12-01_20h07.38.470,vts_reward_expectancy_bt,2022.2.4,Win32,60.27727547,Chrome,1536,864,,,,,,,,,,,,,,,,,,,,,,,181,W,star,0,1,,,5,,,,,,j,0.0004,2,0,2,0,1,,,,,,,,,,,,,,,,,,,,,,,,,,,,,,,,,,
293785,2022-12-01_20h07.38.470,vts_reward_expectancy_bt,2022.2.4,Win32,60.27727547,Chrome,1536,864,,,,,,,,,,,,,,,,,,,,,,,160,S,triangle,1,1,,,5,,,,,,k,0.0589,3,0,3,0,1,,,,,,,,,,,,,,,,,,,,,,,,,,,,,,,,,,
293785,2022-12-01_20h07.38.470,vts_reward_expectancy_bt,2022.2.4,Win32,60.27727547,Chrome,1536,864,,,,,,,,,,,,,,,,,,,,,,,132,U,circle,0,0,,,5,,,,,,j,0.1427,4,0,4,0,1,,,,,,,,,,,,,,,,,,,,,,,,,,,,,,,,,,
293785,2022-12-01_20h07.38.470,vts_reward_expectancy_bt,2022.2.4,Win32,60.27727547,Chrome,1536,864,,,,,,,,,,,,,,,,,,,,,,,125,H,hexagon,0,1,,,5,,,,,,k,0.0368,5,0,5,0,1,,,,,,,,,,,,,,,,,,,,,,,,,,,,,,,,,,
293785,2022-12-01_20h07.38.470,vts_reward_expectancy_bt,2022.2.4,Win32,60.27727547,Chrome,1536,864,,,,,,,,,,,,,,,,,,,,,,,174,D,star,1,1,,,5,,,,,,j,0.0531,6,0,6,0,1,,,,,,,,,,,,,,,,,,,,,,,,,,,,,,,,,,
293785,2022-12-01_20h07.38.470,vts_reward_expectancy_bt,2022.2.4,Win32,60.27727547,Chrome,1536,864,,,,,,,,,,,,,,,,,,,,,,,139,Y,triangle,0,0,,,5,,,,,,j,0.033,7,0,7,0,1,,,,,,,,,,,,,,,,,,,,,,,,,,,,,,,,,,
293785,2022-12-01_20h07.38.470,vts_reward_expectancy_bt,2022.2.4,Win32,60.27727547,Chrome,1536,864,,,,,,,,,,,,,,,,,,,,,,,167,F,hexagon,0,1,,,5,,,,,,k,0.1064,8,0,8,0,1,,,,,,,,,,,,,,,,,,,,,,,,,,,,,,,,,,
293785,2022-12-01_20h07.38.470,vts_reward_expectancy_bt,2022.2.4,Win32,60.27727547,Chrome,1536,864,,,,,,,,,,,,,,,,,,,,,,,146,B,circle,0,1,,,5,,,,,,k,0.173,9,0,9,0,1,,,,,,,,,,,,,,,,,,,,,,,,,,,,,,,,,,
293785,2022-12-01_20h07.38.470,vts_reward_expectancy_bt,2022.2.4,Win32,60.27727547,Chrome,1536,864,,,,,0,584,,,,,,,,,,,,,,,,,167,S,circle,0,1,,,6,,,,,,,,,,,,,-1,number,NA,d,0.1951,vtsPrac,0,0,0,0,1,,,,,,,,,,,,,,,,,,,,,,,
293785,2022-12-01_20h07.38.470,vts_reward_expectancy_bt,2022.2.4,Win32,60.27727547,Chrome,1536,864,,,,,0,584,,,,,,,,,,,,,,,,,181,U,triangle,0,1,,,6,,,,,,,,,,,,,switch,letter,NA,j,0.1557,vtsPrac,1,0,1,0,1,,,,,,,,,,,,,,,,,,,,,,,
293785,2022-12-01_20h07.38.470,vts_reward_expectancy_bt,2022.2.4,Win32,60.27727547,Chrome,1536,864,,,,,0,584,,,,,,,,,,,,,,,,,132,H,circle,0,1,,,6,,,,,,,,,,,,,repeat,letter,NA,k,0.0022,vtsPrac,2,0,2,0,1,,,,,,,,,,,,,,,,,,,,,,,
293785,2022-12-01_20h07.38.470,vts_reward_expectancy_bt,2022.2.4,Win32,60.27727547,Chrome,1536,864,,,,,0,584,,,,,,,,,,,,,,,,,174,D,triangle,0,1,,,6,,,,,,,,,,,,,switch,number,NA,d,0.0274,vtsPrac,3,0,3,0,1,,,,,,,,,,,,,,,,,,,,,,,
293785,2022-12-01_20h07.38.470,vts_reward_expectancy_bt,2022.2.4,Win32,60.27727547,Chrome,1536,864,,,,,0,584,,,,,,,,,,,,,,,,,167,S,circle,1,1,,,6,,,,,,,,,,,,,repeat,number,numRpt,f,0.0093,vtsPrac,4,0,4,0,1,,,,,,,,,,,,,,,,,,,,,,,
293785,2022-12-01_20h07.38.470,vts_reward_expectancy_bt,2022.2.4,Win32,60.27727547,Chrome,1536,864,,,,,0,584,,,,,,,,,,,,,,,,,181,U,triangle,1,0,,,6,,,,,,,,,,,,,switch,letter,lettSwt,k,0.0007,vtsPrac,5,0,5,0,1,,,,,,,,,,,,,,,,,,,,,,,
293785,2022-12-01_20h07.38.470,vts_reward_expectancy_bt,2022.2.4,Win32,60.27727547,Chrome,1536,864,,,,,0,584,,,,,,,,,,,,,,,,,132,H,star,1,0,,,6,,,,,,,,,,,,,repeat,letter,lettRpt,j,0.0006,vtsPrac,6,0,6,0,1,,,,,,,,,,,,,,,,,,,,,,,
293785,2022-12-01_20h07.38.470,vts_reward_expectancy_bt,2022.2.4,Win32,60.27727547,Chrome,1536,864,,,,,0,584,,,,,,,,,,,,,,,,,174,D,hexagon,1,0,,,6,,,,,,,,,,,,,switch,number,numSwt,f,0.053,vtsPrac,7,0,7,0,1,,,,,,,,,,,,,,,,,,,,,,,
293785,2022-12-01_20h07.38.470,vts_reward_expectancy_bt,2022.2.4,Win32,60.27727547,Chrome,1536,864,,,,,0,584,,,,,,,,,,,,,,,,,125,U,hexagon,1,0,,,6,,,,,,,,,,,,,switch,letter,lettSwt,k,0.0006,vtsPrac,8,0,8,0,1,,,,,,,,,,,,,,,,,,,,,,,
293785,2022-12-01_20h07.38.470,vts_reward_expectancy_bt,2022.2.4,Win32,60.27727547,Chrome,1536,864,,,,,0,584,,,,,,,,,,,,,,,,,132,Y,circle,0,0,,,6,,,,,,,,,,,,,switch,number,NA,f,0.0327,vtsPrac,9,0,9,0,1,,,,,,,,,,,,,,,,,,,,,,,
293785,2022-12-01_20h07.38.470,vts_reward_expectancy_bt,2022.2.4,Win32,60.27727547,Chrome,1536,864,,,,,0,584,,,,,,,,,,,,,,,,,160,W,circle,0,1,,,6,,,,,,,,,,,,,repeat,number,NA,d,0.0333,vtsPrac,10,0,10,0,1,,,,,,,,,,,,,,,,,,,,,,,
293785,2022-12-01_20h07.38.470,vts_reward_expectancy_bt,2022.2.4,Win32,60.27727547,Chrome,1536,864,,,,,0,584,,,,,,,,,,,,,,,,,146,S,star,1,1,,,6,,,,,,,,,,,,,repeat,number,numRpt,d,0.0006,vtsPrac,11,0,11,0,1,,,,,,,,,,,,,,,,,,,,,,,
293785,2022-12-01_20h07.38.470,vts_reward_expectancy_bt,2022.2.4,Win32,60.27727547,Chrome,1536,864,,,,,0,584,,,,,,,,,,,,,,,,,174,D,circle,0,0,,,6,,,,,,,,,,,,,switch,letter,NA,k,0.0173,vtsPrac,12,0,12,0,1,,,,,,,,,,,,,,,,,,,,,,,
293785,2022-12-01_20h07.38.470,vts_reward_expectancy_bt,2022.2.4,Win32,60.27727547,Chrome,1536,864,,,,,0,584,,,,,,,,,,,,,,,,,125,W,hexagon,1,1,,,6,,,,,,,,,,,,,switch,number,numSwt,d,0.0861,vtsPrac,13,0,13,0,1,,,,,,,,,,,,,,,,,,,,,,,
293785,2022-12-01_20h07.38.470,vts_reward_expectancy_bt,2022.2.4,Win32,60.27727547,Chrome,1536,864,,,,,0,584,,,,,,,,,,,,,,,,,146,S,star,0,0,,,6,,,,,,,,,,,,,repeat,number,NA,f,0.1079,vtsPrac,14,0,14,0,1,,,,,,,,,,,,,,,,,,,,,,,
293785,2022-12-01_20h07.38.470,vts_reward_expectancy_bt,2022.2.4,Win32,60.27727547,Chrome,1536,864,,,,,0,584,,,,,,,,,,,,,,,,,160,Y,triangle,1,1,,,6,,,,,,,,,,,,,repeat,number,numRpt,f,0.0176,vtsPrac,15,0,15,0,1,,,,,,,,,,,,,,,,,,,,,,,
293785,2022-12-01_20h07.38.470,vts_reward_expectancy_bt,2022.2.4,Win32,60.27727547,Chrome,1536,864,,,,,0,584,,,,,,,,,,,,,,,,,174,F,circle,1,0,,,6,,,,,,,,,,,,,switch,letter,lettSwt,j,0.0336,vtsPrac,16,0,16,0,1,,,,,,,,,,,,,,,,,,,,,,,
293785,2022-12-01_20h07.38.470,vts_reward_expectancy_bt,2022.2.4,Win32,60.27727547,Chrome,1536,864,,,,,0,584,,,,,,,,,,,,,,,,,146,U,triangle,1,0,,,6,,,,,,,,,,,,,switch,number,numSwt,d,0.0005,vtsPrac,17,0,17,0,1,,,,,,,,,,,,,,,,,,,,,,,
293785,2022-12-01_20h07.38.470,vts_reward_expectancy_bt,2022.2.4,Win32,60.27727547,Chrome,1536,864,,,,,0,584,,,,,,,,,,,,,,,,,181,S,hexagon,0,0,,,6,,,,,,,,,,,,,switch,letter,NA,j,0.0366,vtsPrac,18,0,18,0,1,,,,,,,,,,,,,,,,,,,,,,,
293785,2022-12-01_20h07.38.470,vts_reward_expectancy_bt,2022.2.4,Win32,60.27727547,Chrome,1536,864,,,,,0,584,,,,,,,,,,,,,,,,,125,Y,star,1,1,,,6,,,,,,,,,,,,,switch,number,numSwt,d,0.1687,vtsPrac,19,0,19,0,1,,,,,,,,,,,,,,,,,,,,,,,
293785,2022-12-01_20h07.38.470,vts_reward_expectancy_bt,2022.2.4,Win32,60.27727547,Chrome,1536,864,,,,,0,584,,,,,,,,,,,,,,,,,167,H,circle,1,0,,,6,,,,,,,,,,,,,repeat,number,numRpt,f,0.0005,vtsPrac,20,0,20,0,1,,,,,,,,,,,,,,,,,,,,,,,
293785,2022-12-01_20h07.38.470,vts_reward_expectancy_bt,2022.2.4,Win32,60.27727547,Chrome,1536,864,,,,,0,584,,,,,,,,,,,,,,,,,139,Y,hexagon,1,0,,,6,,,,,,,,,,,,,switch,letter,lettSwt,k,0.0007,vtsPrac,21,0,21,0,1,,,,,,,,,,,,,,,,,,,,,,,
293785,2022-12-01_20h07.38.470,vts_reward_expectancy_bt,2022.2.4,Win32,60.27727547,Chrome,1536,864,,,,,0,584,,,,,,,,,,,,,,,,,132,U,triangle,0,0,,,6,,,,,,,,,,,,,repeat,letter,NA,j,0.0166,vtsPrac,22,0,22,0,1,,,,,,,,,,,,,,,,,,,,,,,
293785,2022-12-01_20h07.38.470,vts_reward_expectancy_bt,2022.2.4,Win32,60.27727547,Chrome,1536,864,,,,,0,584,,,,,,,,,,,,,,,,,160,B,hexagon,1,1,,,6,,,,,,,,,,,,,repeat,letter,lettRpt,j,0.968,vtsPrac,23,0,23,0,1,,,,,,,,,,,,,,,,,,,,,,,
293785,2022-12-01_20h07.38.470,vts_reward_expectancy_bt,2022.2.4,Win32,60.27727547,Chrome,1536,864,,,,,0,584,,,,,,,,,,,,,,,,,132,U,star,0,0,,,6,,,,,,,,,,,,,repeat,letter,NA,j,0.0007,vtsPrac,24,0,24,0,1,,,,,,,,,,,,,,,,,,,,,,,
293785,2022-12-01_20h07.38.470,vts_reward_expectancy_bt,2022.2.4,Win32,60.27727547,Chrome,1536,864,,,,,0,584,,,,,,,,,,,,,,,,,167,B,circle,1,1,,,6,,,,,,,,,,,,,repeat,letter,lettRpt,j,0.0517,vtsPrac,25,0,25,0,1,,,,,,,,,,,,,,,,,,,,,,,
293785,2022-12-01_20h07.38.470,vts_reward_expectancy_bt,2022.2.4,Win32,60.27727547,Chrome,1536,864,,,,,0,584,,,,,,,,,,,,,,,,,160,D,hexagon,1,0,,,6,,,,,,,,,,,,,switch,number,numSwt,f,0.0906,vtsPrac,26,0,26,0,1,,,,,,,,,,,,,,,,,,,,,,,
293785,2022-12-01_20h07.38.470,vts_reward_expectancy_bt,2022.2.4,Win32,60.27727547,Chrome,1536,864,,,,,0,584,,,,,,,,,,,,,,,,,146,S,triangle,1,0,,,6,,,,,,,,,,,,,switch,letter,lettSwt,k,0.0837,vtsPrac,27,0,27,0,1,,,,,,,,,,,,,,,,,,,,,,,
293785,2022-12-01_20h07.38.470,vts_reward_expectancy_bt,2022.2.4,Win32,60.27727547,Chrome,1536,864,,,,,0,584,,,,,,,,,,,,,,,,,174,B,star,0,0,,,6,,,,,,,,,,,,,switch,number,NA,d,0.0425,vtsPrac,28,0,28,0,1,,,,,,,,,,,,,,,,,,,,,,,
293785,2022-12-01_20h07.38.470,vts_reward_expectancy_bt,2022.2.4,Win32,60.27727547,Chrome,1536,864,,,,,0,584,,,,,,,,,,,,,,,,,160,U,hexagon,1,1,,,6,,,,,,,,,,,,,repeat,number,numRpt,f,0.0817,vtsPrac,29,0,29,0,1,,,,,,,,,,,,,,,,,,,,,,,
293785,2022-12-01_20h07.38.470,vts_reward_expectancy_bt,2022.2.4,Win32,60.27727547,Chrome,1536,864,,,,,0,584,,,,,,,,,,,,,,,,,125,F,triangle,1,0,,,6,,,,,,,,,,,,,switch,letter,lettSwt,j,0.0252,vtsPrac,30,0,30,0,1,,,,,,,,,,,,,,,,,,,,,,,
293785,2022-12-01_20h07.38.470,vts_reward_expectancy_bt,2022.2.4,Win32,60.27727547,Chrome,1536,864,,,,,0,584,,,,,,,,,,,,,,,,,132,Y,circle,0,0,,,6,,,,,,,,,,,,,repeat,letter,NA,j,0.0305,vtsPrac,31,0,31,0,1,,,,,,,,,,,,,,,,,,,,,,,
293785,2022-12-01_20h07.38.470,vts_reward_expectancy_bt,2022.2.4,Win32,60.27727547,Chrome,1536,864,,,,,0,584,,,,,,,,,,,,,,,,,132,U,triangle,-1,1,,,7,,,,,,,,,,,,,switch,no_choice,NA,,,vtsPrac,0,0,0,0,1,,,,,,,,,,,,,,,,,,,,,,,
293785,2022-12-01_20h07.38.470,vts_reward_expectancy_bt,2022.2.4,Win32,60.27727547,Chrome,1536,864,,,,,0,584,,,,,,,,,,,,,,,,,139,Y,star,0,0,,,7,,,,,,,,,,,,,switch,letter,NA,j,0.0336,vtsPrac,1,0,1,0,1,,,,,,,,,,,,,,,,,,,,,,,
293785,2022-12-01_20h07.38.470,vts_reward_expectancy_bt,2022.2.4,Win32,60.27727547,Chrome,1536,864,,,,,0,584,,,,,,,,,,,,,,,,,181,H,triangle,1,1,,,7,,,,,,,,,,,,,switch,number,numSwt,f,0.0008,vtsPrac,2,0,2,0,1,,,,,,,,,,,,,,,,,,,,,,,
293785,2022-12-01_20h07.38.470,vts_reward_expectancy_bt,2022.2.4,Win32,60.27727547,Chrome,1536,864,,,,,0,584,,,,,,,,,,,,,,,,,125,D,star,1,0,,,7,,,,,,,,,,,,,repeat,number,numRpt,d,0.0346,vtsPrac,3,0,3,0,1,,,,,,,,,,,,,,,,,,,,,,,
293785,2022-12-01_20h07.38.470,vts_reward_expectancy_bt,2022.2.4,Win32,60.27727547,Chrome,1536,864,,,,,0,584,,,,,,,,,,,,,,,,,132,U,circle,1,0,,,7,,,,,,,,,,,,,switch,letter,lettSwt,k,0.0387,vtsPrac,4,0,4,0,1,,,,,,,,,,,,,,,,,,,,,,,
293785,2022-12-01_20h07.38.470,vts_reward_expectancy_bt,2022.2.4,Win32,60.27727547,Chrome,1536,864,,,,,0,584,,,,,,,,,,,,,,,,,139,Y,hexagon,0,0,,,7,,,,,,,,,,,,,switch,number,NA,f,0.0342,vtsPrac,5,0,5,0,1,,,,,,,,,,,,,,,,,,,,,,,
293785,2022-12-01_20h07.38.470,vts_reward_expectancy_bt,2022.2.4,Win32,60.27727547,Chrome,1536,864,,,,,0,584,,,,,,,,,,,,,,,,,181,H,star,1,1,,,7,,,,,,,,,,,,,repeat,number,numRpt,f,0.0838,vtsPrac,6,0,6,0,1,,,,,,,,,,,,,,,,,,,,,,,
293785,2022-12-01_20h07.38.470,vts_reward_expectancy_bt,2022.2.4,Win32,60.27727547,Chrome,1536,864,,,,,0,584,,,,,,,,,,,,,,,,,125,D,triangle,0,0,,,7,,,,,,,,,,,,,switch,letter,NA,k,0.1183,vtsPrac,7,0,7,0,1,,,,,,,,,,,,,,,,,,,,,,,
293785,2022-12-01_20h07.38.470,vts_reward_expectancy_bt,2022.2.4,Win32,60.27727547,Chrome,1536,864,,,,,0,584,,,,,,,,,,,,,,,,,132,W,hexagon,0,1,,,7,,,,,,,,,,,,,repeat,letter,NA,j,0.071,vtsPrac,8,0,8,0,1,,,,,,,,,,,,,,,,,,,,,,,
293785,2022-12-01_20h07.38.470,vts_reward_expectancy_bt,2022.2.4,Win32,60.27727547,Chrome,1536,864,,,,,0,584,,,,,,,,,,,,,,,,,181,S,star,1,1,,,7,,,,,,,,,,,,,repeat,letter,lettRpt,k,0.026,vtsPrac,9,0,9,0,1,,,,,,,,,,,,,,,,,,,,,,,
293785,2022-12-01_20h07.38.470,vts_reward_expectancy_bt,2022.2.4,Win32,60.27727547,Chrome,1536,864,,,,,0,584,,,,,,,,,,,,,,,,,146,H,circle,1,0,,,7,,,,,,,,,,,,,repeat,letter,lettRpt,j,0.0386,vtsPrac,10,0,10,0,1,,,,,,,,,,,,,,,,,,,,,,,
293785,2022-12-01_20h07.38.470,vts_reward_expectancy_bt,2022.2.4,Win32,60.27727547,Chrome,1536,864,,,,,0,584,,,,,,,,,,,,,,,,,125,U,star,0,0,,,7,,,,,,,,,,,,,repeat,letter,NA,j,0.0741,vtsPrac,11,0,11,0,1,,,,,,,,,,,,,,,,,,,,,,,
293785,2022-12-01_20h07.38.470,vts_reward_expectancy_bt,2022.2.4,Win32,60.27727547,Chrome,1536,864,,,,,0,584,,,,,,,,,,,,,,,,,167,W,hexagon,0,1,,,7,,,,,,,,,,,,,repeat,letter,NA,j,0.0005,vtsPrac,12,0,12,0,1,,,,,,,,,,,,,,,,,,,,,,,
293785,2022-12-01_20h07.38.470,vts_reward_expectancy_bt,2022.2.4,Win32,60.27727547,Chrome,1536,864,,,,,0,584,,,,,,,,,,,,,,,,,160,Y,circle,0,1,,,7,,,,,,,,,,,,,repeat,letter,NA,j,0.0009,vtsPrac,13,0,13,0,1,,,,,,,,,,,,,,,,,,,,,,,
293785,2022-12-01_20h07.38.470,vts_reward_expectancy_bt,2022.2.4,Win32,60.27727547,Chrome,1536,864,,,,,0,584,,,,,,,,,,,,,,,,,174,U,triangle,1,1,,,7,,,,,,,,,,,,,repeat,letter,lettRpt,k,0.0005,vtsPrac,14,0,14,0,1,,,,,,,,,,,,,,,,,,,,,,,
293785,2022-12-01_20h07.38.470,vts_reward_expectancy_bt,2022.2.4,Win32,60.27727547,Chrome,1536,864,,,,,0,584,,,,,,,,,,,,,,,,,132,B,star,0,0,,,7,,,,,,,,,,,,,repeat,letter,NA,k,0.1103,vtsPrac,15,0,15,0,1,,,,,,,,,,,,,,,,,,,,,,,
293785,2022-12-01_20h07.38.470,vts_reward_expectancy_bt,2022.2.4,Win32,60.27727547,Chrome,1536,864,,,,,0,584,,,,,,,,,,,,,,,,,132,B,hexagon,0,1,,,7,,,,,,,,,,,,,switch,number,NA,f,0.0008,vtsPrac,16,0,16,0,1,,,,,,,,,,,,,,,,,,,,,,,
293785,2022-12-01_20h07.38.470,vts_reward_expectancy_bt,2022.2.4,Win32,60.27727547,Chrome,1536,864,,,,,0,584,,,,,,,,,,,,,,,,,181,Y,circle,0,1,,,7,,,,,,,,,,,,,repeat,number,NA,d,0.0686,vtsPrac,17,0,17,0,1,,,,,,,,,,,,,,,,,,,,,,,
293785,2022-12-01_20h07.38.470,vts_reward_expectancy_bt,2022.2.4,Win32,60.27727547,Chrome,1536,864,,,,,0,584,,,,,,,,,,,,,,,,,146,S,star,1,1,,,7,,,,,,,,,,,,,switch,letter,lettSwt,k,0.0008,vtsPrac,18,0,18,0,1,,,,,,,,,,,,,,,,,,,,,,,
293785,2022-12-01_20h07.38.470,vts_reward_expectancy_bt,2022.2.4,Win32,60.27727547,Chrome,1536,864,,,,,0,584,,,,,,,,,,,,,,,,,167,F,hexagon,0,0,,,7,,,,,,,,,,,,,switch,number,NA,d,0.0007,vtsPrac,19,0,19,0,1,,,,,,,,,,,,,,,,,,,,,,,
293785,2022-12-01_20h07.38.470,vts_reward_expectancy_bt,2022.2.4,Win32,60.27727547,Chrome,1536,864,,,,,0,584,,,,,,,,,,,,,,,,,174,Y,star,0,1,,,7,,,,,,,,,,,,,repeat,number,NA,d,0.0341,vtsPrac,20,0,20,0,1,,,,,,,,,,,,,,,,,,,,,,,
293785,2022-12-01_20h07.38.470,vts_reward_expectancy_bt,2022.2.4,Win32,60.27727547,Chrome,1536,864,,,,,0,584,,,,,,,,,,,,,,,,,132,S,triangle,0,1,,,7,,,,,,,,,,,,,switch,letter,NA,j,0.1174,vtsPrac,21,0,21,0,1,,,,,,,,,,,,,,,,,,,,,,,
293785,2022-12-01_20h07.38.470,vts_reward_expectancy_bt,2022.2.4,Win32,60.27727547,Chrome,1536,864,,,,,0,584,,,,,,,,,,,,,,,,,181,H,star,0,1,,,7,,,,,,,,,,,,,repeat,letter,NA,k,0.0164,vtsPrac,22,0,22,0,1,,,,,,,,,,,,,,,,,,,,,,,
293785,2022-12-01_20h07.38.470,vts_reward_expectancy_bt,2022.2.4,Win32,60.27727547,Chrome,1536,864,,,,,0,584,,,,,,,,,,,,,,,,,125,D,circle,0,1,,,7,,,,,,,,,,,,,switch,number,NA,f,0.0004,vtsPrac,23,0,23,0,1,,,,,,,,,,,,,,,,,,,,,,,
293785,2022-12-01_20h07.38.470,vts_reward_expectancy_bt,2022.2.4,Win32,60.27727547,Chrome,1536,864,,,,,0,584,,,,,,,,,,,,,,,,,132,S,circle,1,1,,,7,,,,,,,,,,,,,switch,letter,lettSwt,k,0.0374,vtsPrac,24,0,24,0,1,,,,,,,,,,,,,,,,,,,,,,,
293785,2022-12-01_20h07.38.470,vts_reward_expectancy_bt,2022.2.4,Win32,60.27727547,Chrome,1536,864,,,,,0,584,,,,,,,,,,,,,,,,,167,H,triangle,0,0,,,7,,,,,,,,,,,,,repeat,letter,NA,k,0.0259,vtsPrac,25,0,25,0,1,,,,,,,,,,,,,,,,,,,,,,,
293785,2022-12-01_20h07.38.470,vts_reward_expectancy_bt,2022.2.4,Win32,60.27727547,Chrome,1536,864,,,,,0,584,,,,,,,,,,,,,,,,,174,U,circle,1,1,,,7,,,,,,,,,,,,,switch,number,numSwt,f,0.0147,vtsPrac,26,0,26,0,1,,,,,,,,,,,,,,,,,,,,,,,
293785,2022-12-01_20h07.38.470,vts_reward_expectancy_bt,2022.2.4,Win32,60.27727547,Chrome,1536,864,,,,,0,584,,,,,,,,,,,,,,,,,160,Y,hexagon,0,0,,,7,,,,,,,,,,,,,switch,letter,NA,j,0.0063,vtsPrac,27,0,27,0,1,,,,,,,,,,,,,,,,,,,,,,,
293785,2022-12-01_20h07.38.470,vts_reward_expectancy_bt,2022.2.4,Win32,60.27727547,Chrome,1536,864,,,,,0,584,,,,,,,,,,,,,,,,,125,W,circle,0,1,,,7,,,,,,,,,,,,,switch,number,NA,f,0.1006,vtsPrac,28,0,28,0,1,,,,,,,,,,,,,,,,,,,,,,,
293785,2022-12-01_20h07.38.470,vts_reward_expectancy_bt,2022.2.4,Win32,60.27727547,Chrome,1536,864,,,,,0,584,,,,,,,,,,,,,,,,,146,B,triangle,0,1,,,7,,,,,,,,,,,,,repeat,number,NA,f,0.0763,vtsPrac,29,0,29,0,1,,,,,,,,,,,,,,,,,,,,,,,
293785,2022-12-01_20h07.38.470,vts_reward_expectancy_bt,2022.2.4,Win32,60.27727547,Chrome,1536,864,,,,,0,584,,,,,,,,,,,,,,,,,160,S,hexagon,0,1,,,7,,,,,,,,,,,,,switch,letter,NA,j,0.0339,vtsPrac,30,0,30,0,1,,,,,,,,,,,,,,,,,,,,,,,
293785,2022-12-01_20h07.38.470,vts_reward_expectancy_bt,2022.2.4,Win32,60.27727547,Chrome,1536,864,,,,,0,584,,,,,,,,,,,,,,,,,167,F,star,0,1,,,7,,,,,,,,,,,,,repeat,letter,NA,k,0.3845,vtsPrac,31,0,31,0,1,,,,,,,,,,,,,,,,,,,,,,,
293785,2022-12-01_20h07.38.470,vts_reward_expectancy_bt,2022.2.4,Win32,60.27727547,Chrome,1536,864,,,,,0,584,,,,,,,,,,,,,,,,,132,S,star,0,1,,,8,,,,,,,,,,,,,repeat,letter,NA,j,0.0581,vtsPrac,0,0,0,0,1,,,,,,,,,,,,,,,,,,,,,,,
293785,2022-12-01_20h07.38.470,vts_reward_expectancy_bt,2022.2.4,Win32,60.27727547,Chrome,1536,864,,,,,0,584,,,,,,,,,,,,,,,,,181,D,circle,1,1,,,8,,,,,,,,,,,,,switch,number,numSwt,f,1.3363,vtsPrac,1,0,1,0,1,,,,,,,,,,,,,,,,,,,,,,,
293785,2022-12-01_20h07.38.470,vts_reward_expectancy_bt,2022.2.4,Win32,60.27727547,Chrome,1536,864,,,,,0,584,,,,,,,,,,,,,,,,,174,F,star,0,0,,,8,,,,,,,,,,,,,repeat,number,NA,d,0.0222,vtsPrac,2,0,2,0,1,,,,,,,,,,,,,,,,,,,,,,,
293785,2022-12-01_20h07.38.470,vts_reward_expectancy_bt,2022.2.4,Win32,60.27727547,Chrome,1536,864,,,,,0,584,,,,,,,,,,,,,,,,,125,B,circle,0,1,,,8,,,,,,,,,,,,,switch,letter,NA,k,0.0367,vtsPrac,3,0,3,0,1,,,,,,,,,,,,,,,,,,,,,,,
293785,2022-12-01_20h07.38.470,vts_reward_expectancy_bt,2022.2.4,Win32,60.27727547,Chrome,1536,864,,,,,0,584,,,,,,,,,,,,,,,,,132,S,circle,1,1,,,8,,,,,,,,,,,,,switch,number,numSwt,d,0.0006,vtsPrac,4,0,4,0,1,,,,,,,,,,,,,,,,,,,,,,,
293785,2022-12-01_20h07.38.470,vts_reward_expectancy_bt,2022.2.4,Win32,60.27727547,Chrome,1536,864,,,,,0,584,,,,,,,,,,,,,,,,,181,D,triangle,1,0,,,8,,,,,,,,,,,,,switch,letter,lettSwt,j,0.2013,vtsPrac,5,0,5,0,1,,,,,,,,,,,,,,,,,,,,,,,
293785,2022-12-01_20h07.38.470,vts_reward_expectancy_bt,2022.2.4,Win32,60.27727547,Chrome,1536,864,,,,,0,584,,,,,,,,,,,,,,,,,174,F,star,0,0,,,8,,,,,,,,,,,,,switch,number,NA,d,0.1763,vtsPrac,6,0,6,0,1,,,,,,,,,,,,,,,,,,,,,,,
293785,2022-12-01_20h07.38.470,vts_reward_expectancy_bt,2022.2.4,Win32,60.27727547,Chrome,1536,864,,,,,0,584,,,,,,,,,,,,,,,,,125,B,circle,1,1,,,8,,,,,,,,,,,,,switch,letter,lettSwt,j,0.1836,vtsPrac,7,0,7,0,1,,,,,,,,,,,,,,,,,,,,,,,
293785,2022-12-01_20h07.38.470,vts_reward_expectancy_bt,2022.2.4,Win32,60.27727547,Chrome,1536,864,,,,,0,584,,,,,,,,,,,,,,,,,125,D,triangle,1,0,,,8,,,,,,,,,,,,,repeat,letter,lettRpt,j,0.1006,vtsPrac,8,0,8,0,1,,,,,,,,,,,,,,,,,,,,,,,
293785,2022-12-01_20h07.38.470,vts_reward_expectancy_bt,2022.2.4,Win32,60.27727547,Chrome,1536,864,,,,,0,584,,,,,,,,,,,,,,,,,139,B,hexagon,0,0,,,8,,,,,,,,,,,,,switch,number,NA,f,1.4674,vtsPrac,9,0,9,0,1,,,,,,,,,,,,,,,,,,,,,,,
293785,2022-12-01_20h07.38.470,vts_reward_expectancy_bt,2022.2.4,Win32,60.27727547,Chrome,1536,864,,,,,0,584,,,,,,,,,,,,,,,,,167,S,triangle,1,1,,,8,,,,,,,,,,,,,switch,letter,lettSwt,k,0.0427,vtsPrac,10,0,10,0,1,,,,,,,,,,,,,,,,,,,,,,,
293785,2022-12-01_20h07.38.470,vts_reward_expectancy_bt,2022.2.4,Win32,60.27727547,Chrome,1536,864,,,,,0,584,,,,,,,,,,,,,,,,,181,W,hexagon,0,0,,,8,,,,,,,,,,,,,repeat,letter,NA,j,0.0005,vtsPrac,11,0,11,0,1,,,,,,,,,,,,,,,,,,,,,,,
293785,2022-12-01_20h07.38.470,vts_reward_expectancy_bt,2022.2.4,Win32,60.27727547,Chrome,1536,864,,,,,0,584,,,,,,,,,,,,,,,,,132,H,hexagon,1,1,,,8,,,,,,,,,,,,,repeat,letter,lettRpt,j,0.0062,vtsPrac,12,0,12,0,1,,,,,,,,,,,,,,,,,,,,,,,
293785,2022-12-01_20h07.38.470,vts_reward_expectancy_bt,2022.2.4,Win32,60.27727547,Chrome,1536,864,,,,,0,584,,,,,,,,,,,,,,,,,139,W,star,0,0,,,8,,,,,,,,,,,,,repeat,letter,NA,j,0.3327,vtsPrac,13,0,13,0,1,,,,,,,,,,,,,,,,,,,,,,,
293785,2022-12-01_20h07.38.470,vts_reward_expectancy_bt,2022.2.4,Win32,60.27727547,Chrome,1536,864,,,,,0,584,,,,,,,,,,,,,,,,,174,F,star,1,1,,,8,,,,,,,,,,,,,repeat,letter,lettRpt,j,0.2437,vtsPrac,14,0,14,0,1,,,,,,,,,,,,,,,,,,,,,,,
293785,2022-12-01_20h07.38.470,vts_reward_expectancy_bt,2022.2.4,Win32,60.27727547,Chrome,1536,864,,,,,0,584,,,,,,,,,,,,,,,,,181,U,hexagon,1,0,,,8,,,,,,,,,,,,,repeat,letter,lettRpt,k,0.0673,vtsPrac,15,0,15,0,1,,,,,,,,,,,,,,,,,,,,,,,
293785,2022-12-01_20h07.38.470,vts_reward_expectancy_bt,2022.2.4,Win32,60.27727547,Chrome,1536,864,,,,,0,584,,,,,,,,,,,,,,,,,174,Y,hexagon,1,0,,,8,,,,,,,,,,,,,switch,number,numSwt,f,1.1163,vtsPrac,16,0,16,0,1,,,,,,,,,,,,,,,,,,,,,,,
293785,2022-12-01_20h07.38.470,vts_reward_expectancy_bt,2022.2.4,Win32,60.27727547,Chrome,1536,864,,,,,0,584,,,,,,,,,,,,,,,,,181,D,circle,0,0,,,8,,,,,,,,,,,,,switch,letter,NA,k,0.1663,vtsPrac,17,0,17,0,1,,,,,,,,,,,,,,,,,,,,,,,
293785,2022-12-01_20h07.38.470,vts_reward_expectancy_bt,2022.2.4,Win32,60.27727547,Chrome,1536,864,,,,,0,584,,,,,,,,,,,,,,,,,132,S,hexagon,0,1,,,8,,,,,,,,,,,,,repeat,letter,NA,j,0.0403,vtsPrac,18,0,18,0,1,,,,,,,,,,,,,,,,,,,,,,,
293785,2022-12-01_20h07.38.470,vts_reward_expectancy_bt,2022.2.4,Win32,60.27727547,Chrome,1536,864,,,,,0,584,,,,,,,,,,,,,,,,,160,F,circle,1,1,,,8,,,,,,,,,,,,,repeat,letter,lettRpt,j,0.0007,vtsPrac,19,0,19,0,1,,,,,,,,,,,,,,,,,,,,,,,
293785,2022-12-01_20h07.38.470,vts_reward_expectancy_bt,2022.2.4,Win32,60.27727547,Chrome,1536,864,,,,,0,584,,,,,,,,,,,,,,,,,181,D,star,1,0,,,8,,,,,,,,,,,,,switch,number,numSwt,f,0.2558,vtsPrac,20,0,20,0,1,,,,,,,,,,,,,,,,,,,,,,,
293785,2022-12-01_20h07.38.470,vts_reward_expectancy_bt,2022.2.4,Win32,60.27727547,Chrome,1536,864,,,,,0,584,,,,,,,,,,,,,,,,,160,U,triangle,0,0,,,8,,,,,,,,,,,,,switch,letter,NA,j,0.0581,vtsPrac,21,0,21,0,1,,,,,,,,,,,,,,,,,,,,,,,
293785,2022-12-01_20h07.38.470,vts_reward_expectancy_bt,2022.2.4,Win32,60.27727547,Chrome,1536,864,,,,,0,584,,,,,,,,,,,,,,,,,167,F,triangle,1,1,,,8,,,,,,,,,,,,,switch,number,numSwt,f,0.0938,vtsPrac,22,0,22,0,1,,,,,,,,,,,,,,,,,,,,,,,
293785,2022-12-01_20h07.38.470,vts_reward_expectancy_bt,2022.2.4,Win32,60.27727547,Chrome,1536,864,,,,,0,584,,,,,,,,,,,,,,,,,146,W,circle,0,0,,,8,,,,,,,,,,,,,repeat,number,NA,f,0.0598,vtsPrac,23,0,23,0,1,,,,,,,,,,,,,,,,,,,,,,,
293785,2022-12-01_20h07.38.470,vts_reward_expectancy_bt,2022.2.4,Win32,60.27727547,Chrome,1536,864,,,,,0,584,,,,,,,,,,,,,,,,,139,U,triangle,0,1,,,8,,,,,,,,,,,,,switch,letter,NA,j,0.1879,vtsPrac,24,0,24,0,1,,,,,,,,,,,,,,,,,,,,,,,
293785,2022-12-01_20h07.38.470,vts_reward_expectancy_bt,2022.2.4,Win32,60.27727547,Chrome,1536,864,,,,,0,584,,,,,,,,,,,,,,,,,167,B,circle,1,1,,,8,,,,,,,,,,,,,repeat,letter,lettRpt,j,0.2349,vtsPrac,25,0,25,0,1,,,,,,,,,,,,,,,,,,,,,,,
293785,2022-12-01_20h07.38.470,vts_reward_expectancy_bt,2022.2.4,Win32,60.27727547,Chrome,1536,864,,,,,0,584,,,,,,,,,,,,,,,,,146,S,circle,0,0,,,8,,,,,,,,,,,,,repeat,letter,NA,j,0.322,vtsPrac,26,0,26,0,1,,,,,,,,,,,,,,,,,,,,,,,
293785,2022-12-01_20h07.38.470,vts_reward_expectancy_bt,2022.2.4,Win32,60.27727547,Chrome,1536,864,,,,,0,584,,,,,,,,,,,,,,,,,160,Y,star,0,1,,,8,,,,,,,,,,,,,repeat,letter,NA,j,0.1352,vtsPrac,27,0,27,0,1,,,,,,,,,,,,,,,,,,,,,,,
293785,2022-12-01_20h07.38.470,vts_reward_expectancy_bt,2022.2.4,Win32,60.27727547,Chrome,1536,864,,,,,0,584,,,,,,,,,,,,,,,,,146,H,star,1,1,,,8,,,,,,,,,,,,,repeat,letter,lettRpt,j,0.0077,vtsPrac,28,0,28,0,1,,,,,,,,,,,,,,,,,,,,,,,
293785,2022-12-01_20h07.38.470,vts_reward_expectancy_bt,2022.2.4,Win32,60.27727547,Chrome,1536,864,,,,,0,584,,,,,,,,,,,,,,,,,167,Y,hexagon,0,0,,,8,,,,,,,,,,,,,switch,number,NA,d,0.0168,vtsPrac,29,0,29,0,1,,,,,,,,,,,,,,,,,,,,,,,
293785,2022-12-01_20h07.38.470,vts_reward_expectancy_bt,2022.2.4,Win32,60.27727547,Chrome,1536,864,,,,,0,584,,,,,,,,,,,,,,,,,132,B,triangle,1,1,,,8,,,,,,,,,,,,,repeat,number,numRpt,d,0.0832,vtsPrac,30,0,30,0,1,,,,,,,,,,,,,,,,,,,,,,,
293785,2022-12-01_20h07.38.470,vts_reward_expectancy_bt,2022.2.4,Win32,60.27727547,Chrome,1536,864,,,,,0,584,,,,,,,,,,,,,,,,,160,F,hexagon,0,0,,,8,,,,,,,,,,,,,repeat,number,NA,d,0.0968,vtsPrac,31,0,31,0,1,,,,,,,,,,,,,,,,,,,,,,,
293785,2022-12-01_20h07.38.470,vts_reward_expectancy_bt,2022.2.4,Win32,60.27727547,Chrome,1536,864,,,,,,,,,,,,,,,,,,,,,,,,,,,,,,,,,,,,,,,,,,,,,,,,,,,,,,,,,,,,,,,,,,,,,,,,,,,,
293785,2022-12-01_20h07.38.470,vts_reward_expectancy_bt,2022.2.4,Win32,60.27727547,Chrome,1536,864,,,,,,,,,,,,,,,,,,,,,,,,,,,,,,,,,,,,,,,,,,,,,,,,,,,,,,,,,,,,,,,,,,,,,,,,,,,,
293785,2022-12-01_20h07.38.470,vts_reward_expectancy_bt,2022.2.4,Win32,60.27727547,Chrome,1536,864,,,,,0,584,,,,,,,,,,,,,,,,,181,D,triangle,0,1,,,,,,,,,,,,,,,,repeat,number,NA,d,0.0741,noRew,,,,,,0,0,0,0,0,1,,,,,,,,,,,,,,,,,
293785,2022-12-01_20h07.38.470,vts_reward_expectancy_bt,2022.2.4,Win32,60.27727547,Chrome,1536,864,,,,,0,584,,,,,,,,,,,,,,,,,125,B,star,0,1,,,,,,,,,,,,,,,,repeat,number,NA,f,0.0677,noRew,,,,,,0,1,0,1,0,1,,,,,,,,,,,,,,,,,
293785,2022-12-01_20h07.38.470,vts_reward_expectancy_bt,2022.2.4,Win32,60.27727547,Chrome,1536,864,,,,,0,584,,,,,,,,,,,,,,,,,146,H,triangle,1,1,,,,,,,,,,,,,,,,repeat,number,numRpt,d,0.0917,noRew,,,,,,0,2,0,2,0,1,,,,,,,,,,,,,,,,,
293785,2022-12-01_20h07.38.470,vts_reward_expectancy_bt,2022.2.4,Win32,60.27727547,Chrome,1536,864,,,,,0,584,,,,,,,,,,,,,,,,,132,S,star,0,0,,,,,,,,,,,,,,,,switch,letter,NA,j,0.7517,noRew,,,,,,0,3,0,3,0,1,,,,,,,,,,,,,,,,,
293785,2022-12-01_20h07.38.470,vts_reward_expectancy_bt,2022.2.4,Win32,60.27727547,Chrome,1536,864,,,,,0,584,,,,,,,,,,,,,,,,,181,D,star,1,1,,,,,,,,,,,,,,,,repeat,letter,lettRpt,j,0.2169,noRew,,,,,,0,4,0,4,0,1,,,,,,,,,,,,,,,,,
293785,2022-12-01_20h07.38.470,vts_reward_expectancy_bt,2022.2.4,Win32,60.27727547,Chrome,1536,864,,,,,0,584,,,,,,,,,,,,,,,,,125,B,circle,1,0,,,,,,,,,,,,,,,,repeat,letter,lettRpt,j,0.0535,noRew,,,,,,0,5,0,5,0,1,,,,,,,,,,,,,,,,,
293785,2022-12-01_20h07.38.470,vts_reward_expectancy_bt,2022.2.4,Win32,60.27727547,Chrome,1536,864,,,,,0,584,,,,,,,,,,,,,,,,,146,H,triangle,1,0,,,,,,,,,,,,,,,,repeat,letter,lettRpt,j,0.0007,noRew,,,,,,0,6,0,6,0,1,,,,,,,,,,,,,,,,,
293785,2022-12-01_20h07.38.470,vts_reward_expectancy_bt,2022.2.4,Win32,60.27727547,Chrome,1536,864,,,,,0,584,,,,,,,,,,,,,,,,,132,S,star,0,0,,,,,,,,,,,,,,,,repeat,letter,NA,j,0.0694,noRew,,,,,,0,7,0,7,0,1,,,,,,,,,,,,,,,,,
293785,2022-12-01_20h07.38.470,vts_reward_expectancy_bt,2022.2.4,Win32,60.27727547,Chrome,1536,864,,,,,0,584,,,,,,,,,,,,,,,,,160,W,hexagon,0,1,,,,,,,,,,,,,,,,switch,number,NA,d,0.0836,noRew,,,,,,0,8,0,8,0,1,,,,,,,,,,,,,,,,,
293785,2022-12-01_20h07.38.470,vts_reward_expectancy_bt,2022.2.4,Win32,60.27727547,Chrome,1536,864,,,,,0,584,,,,,,,,,,,,,,,,,146,U,circle,1,1,,,,,,,,,,,,,,,,repeat,number,numRpt,d,0.3339,noRew,,,,,,0,9,0,9,0,1,,,,,,,,,,,,,,,,,
293785,2022-12-01_20h07.38.470,vts_reward_expectancy_bt,2022.2.4,Win32,60.27727547,Chrome,1536,864,,,,,0,584,,,,,,,,,,,,,,,,,174,F,triangle,0,0,,,,,,,,,,,,,,,,repeat,number,NA,d,0.043,noRew,,,,,,0,10,0,10,0,1,,,,,,,,,,,,,,,,,
293785,2022-12-01_20h07.38.470,vts_reward_expectancy_bt,2022.2.4,Win32,60.27727547,Chrome,1536,864,,,,,0,584,,,,,,,,,,,,,,,,,139,B,star,0,1,,,,,,,,,,,,,,,,repeat,number,NA,f,0.106,noRew,,,,,,0,11,0,11,0,1,,,,,,,,,,,,,,,,,
293785,2022-12-01_20h07.38.470,vts_reward_expectancy_bt,2022.2.4,Win32,60.27727547,Chrome,1536,864,,,,,0,584,,,,,,,,,,,,,,,,,181,F,hexagon,0,1,,,,,,,,,,,,,,,,repeat,number,NA,d,0.0007,noRew,,,,,,0,12,0,12,0,1,,,,,,,,,,,,,,,,,
293785,2022-12-01_20h07.38.470,vts_reward_expectancy_bt,2022.2.4,Win32,60.27727547,Chrome,1536,864,,,,,0,584,,,,,,,,,,,,,,,,,160,B,star,1,1,,,,,,,,,,,,,,,,switch,letter,lettSwt,j,0.2046,noRew,,,,,,0,13,0,13,0,1,,,,,,,,,,,,,,,,,
293785,2022-12-01_20h07.38.470,vts_reward_expectancy_bt,2022.2.4,Win32,60.27727547,Chrome,1536,864,,,,,0,584,,,,,,,,,,,,,,,,,167,U,circle,1,0,,,,,,,,,,,,,,,,repeat,letter,lettRpt,k,0.5253,noRew,,,,,,0,14,0,14,0,1,,,,,,,,,,,,,,,,,
293785,2022-12-01_20h07.38.470,vts_reward_expectancy_bt,2022.2.4,Win32,60.27727547,Chrome,1536,864,,,,,0,584,,,,,,,,,,,,,,,,,125,H,hexagon,1,0,,,,,,,,,,,,,,,,repeat,letter,lettRpt,j,0.0071,noRew,,,,,,0,15,0,15,0,1,,,,,,,,,,,,,,,,,
293785,2022-12-01_20h07.38.470,vts_reward_expectancy_bt,2022.2.4,Win32,60.27727547,Chrome,1536,864,,,,,0,584,,,,,,,,,,,,,,,,,181,Y,circle,0,0,,,,,,,,,,,,,,,,repeat,letter,NA,j,0.0005,noRew,,,,,,0,16,0,16,0,1,,,,,,,,,,,,,,,,,
293785,2022-12-01_20h07.38.470,vts_reward_expectancy_bt,2022.2.4,Win32,60.27727547,Chrome,1536,864,,,,,0,584,,,,,,,,,,,,,,,,,125,W,triangle,0,1,,,,,,,,,,,,,,,,repeat,letter,NA,j,0.0169,noRew,,,,,,0,17,0,17,0,1,,,,,,,,,,,,,,,,,
293785,2022-12-01_20h07.38.470,vts_reward_expectancy_bt,2022.2.4,Win32,60.27727547,Chrome,1536,864,,,,,0,584,,,,,,,,,,,,,,,,,160,H,star,0,1,,,,,,,,,,,,,,,,switch,number,NA,d,0.0667,noRew,,,,,,0,18,0,18,0,1,,,,,,,,,,,,,,,,,
293785,2022-12-01_20h07.38.470,vts_reward_expectancy_bt,2022.2.4,Win32,60.27727547,Chrome,1536,864,,,,,0,584,,,,,,,,,,,,,,,,,146,D,circle,0,1,,,,,,,,,,,,,,,,repeat,number,NA,f,0.0838,noRew,,,,,,0,19,0,19,0,1,,,,,,,,,,,,,,,,,
293785,2022-12-01_20h07.38.470,vts_reward_expectancy_bt,2022.2.4,Win32,60.27727547,Chrome,1536,864,,,,,0,584,,,,,,,,,,,,,,,,,181,B,triangle,0,1,,,,,,,,,,,,,,,,repeat,number,NA,d,1.4672,noRew,,,,,,0,20,0,20,0,1,,,,,,,,,,,,,,,,,
293785,2022-12-01_20h07.38.470,vts_reward_expectancy_bt,2022.2.4,Win32,60.27727547,Chrome,1536,864,,,,,0,584,,,,,,,,,,,,,,,,,146,F,hexagon,0,1,,,,,,,,,,,,,,,,repeat,number,NA,f,0.0339,noRew,,,,,,0,21,0,21,0,1,,,,,,,,,,,,,,,,,
293785,2022-12-01_20h07.38.470,vts_reward_expectancy_bt,2022.2.4,Win32,60.27727547,Chrome,1536,864,,,,,0,584,,,,,,,,,,,,,,,,,167,W,hexagon,0,1,,,,,,,,,,,,,,,,switch,letter,NA,j,0.0672,noRew,,,,,,0,22,0,22,0,1,,,,,,,,,,,,,,,,,
293785,2022-12-01_20h07.38.470,vts_reward_expectancy_bt,2022.2.4,Win32,60.27727547,Chrome,1536,864,,,,,0,584,,,,,,,,,,,,,,,,,160,S,circle,0,1,,,,,,,,,,,,,,,,switch,number,NA,d,0.0564,noRew,,,,,,0,23,0,23,0,1,,,,,,,,,,,,,,,,,
293785,2022-12-01_20h07.38.470,vts_reward_expectancy_bt,2022.2.4,Win32,60.27727547,Chrome,1536,864,,,,,0,584,,,,,,,,,,,,,,,,,160,D,star,1,1,,,,,,,,,,,,,,,,repeat,number,numRpt,f,0.0063,noRew,,,,,,0,24,0,24,0,1,,,,,,,,,,,,,,,,,
293785,2022-12-01_20h07.38.470,vts_reward_expectancy_bt,2022.2.4,Win32,60.27727547,Chrome,1536,864,,,,,0,584,,,,,,,,,,,,,,,,,146,F,circle,0,0,,,,,,,,,,,,,,,,repeat,number,NA,f,0.0944,noRew,,,,,,0,25,0,25,0,1,,,,,,,,,,,,,,,,,
293785,2022-12-01_20h07.38.470,vts_reward_expectancy_bt,2022.2.4,Win32,60.27727547,Chrome,1536,864,,,,,0,584,,,,,,,,,,,,,,,,,174,H,hexagon,1,1,,,,,,,,,,,,,,,,switch,letter,lettSwt,j,0.1147,noRew,,,,,,0,26,0,26,0,1,,,,,,,,,,,,,,,,,
293785,2022-12-01_20h07.38.470,vts_reward_expectancy_bt,2022.2.4,Win32,60.27727547,Chrome,1536,864,,,,,0,584,,,,,,,,,,,,,,,,,167,S,circle,1,0,,,,,,,,,,,,,,,,switch,number,numSwt,f,0.016,noRew,,,,,,0,27,0,27,0,1,,,,,,,,,,,,,,,,,
293785,2022-12-01_20h07.38.470,vts_reward_expectancy_bt,2022.2.4,Win32,60.27727547,Chrome,1536,864,,,,,0,584,,,,,,,,,,,,,,,,,160,Y,hexagon,0,0,,,,,,,,,,,,,,,,repeat,number,NA,d,0.0539,noRew,,,,,,0,28,0,28,0,1,,,,,,,,,,,,,,,,,
293785,2022-12-01_20h07.38.470,vts_reward_expectancy_bt,2022.2.4,Win32,60.27727547,Chrome,1536,864,,,,,0,584,,,,,,,,,,,,,,,,,174,F,circle,1,1,,,,,,,,,,,,,,,,switch,letter,lettSwt,j,2.3688,noRew,,,,,,0,29,0,29,0,1,,,,,,,,,,,,,,,,,
293785,2022-12-01_20h07.38.470,vts_reward_expectancy_bt,2022.2.4,Win32,60.27727547,Chrome,1536,864,,,,,0,584,,,,,,,,,,,,,,,,,139,U,triangle,1,0,,,,,,,,,,,,,,,,repeat,letter,lettRpt,k,0.0998,noRew,,,,,,0,30,0,30,0,1,,,,,,,,,,,,,,,,,
293785,2022-12-01_20h07.38.470,vts_reward_expectancy_bt,2022.2.4,Win32,60.27727547,Chrome,1536,864,,,,,0,584,,,,,,,,,,,,,,,,,125,B,star,1,0,,,,,,,,,,,,,,,,switch,number,numSwt,d,0.0242,noRew,,,,,,0,31,0,31,0,1,,,,,,,,,,,,,,,,,
293785,2022-12-01_20h07.38.470,vts_reward_expectancy_bt,2022.2.4,Win32,60.27727547,Chrome,1536,864,,,,,0,584,,,,,,,,,,,,,,,,,125,W,circle,0,0,,,,,,,,,,,,,,,,switch,letter,NA,j,0.4177,noRew,,,,,,0,32,0,32,0,1,,,,,,,,,,,,,,,,,
293785,2022-12-01_20h07.38.470,vts_reward_expectancy_bt,2022.2.4,Win32,60.27727547,Chrome,1536,864,,,,,0,584,,,,,,,,,,,,,,,,,139,S,hexagon,0,1,,,,,,,,,,,,,,,,repeat,letter,NA,j,0.0691,noRew,,,,,,0,33,0,33,0,1,,,,,,,,,,,,,,,,,
293785,2022-12-01_20h07.38.470,vts_reward_expectancy_bt,2022.2.4,Win32,60.27727547,Chrome,1536,864,,,,,0,584,,,,,,,,,,,,,,,,,181,B,star,0,1,,,,,,,,,,,,,,,,switch,number,NA,d,0.0754,noRew,,,,,,0,34,0,34,0,1,,,,,,,,,,,,,,,,,
293785,2022-12-01_20h07.38.470,vts_reward_expectancy_bt,2022.2.4,Win32,60.27727547,Chrome,1536,864,,,,,0,584,,,,,,,,,,,,,,,,,132,H,triangle,1,1,,,,,,,,,,,,,,,,repeat,number,numRpt,d,0.0508,noRew,,,,,,0,35,0,35,0,1,,,,,,,,,,,,,,,,,
293785,2022-12-01_20h07.38.470,vts_reward_expectancy_bt,2022.2.4,Win32,60.27727547,Chrome,1536,864,,,,,0,584,,,,,,,,,,,,,,,,,174,U,hexagon,1,0,,,,,,,,,,,,,,,,switch,letter,lettSwt,k,0.0069,noRew,,,,,,0,36,0,36,0,1,,,,,,,,,,,,,,,,,
293785,2022-12-01_20h07.38.470,vts_reward_expectancy_bt,2022.2.4,Win32,60.27727547,Chrome,1536,864,,,,,0,584,,,,,,,,,,,,,,,,,181,W,triangle,1,0,,,,,,,,,,,,,,,,repeat,letter,lettRpt,k,0.0676,noRew,,,,,,0,37,0,37,0,1,,,,,,,,,,,,,,,,,
293785,2022-12-01_20h07.38.470,vts_reward_expectancy_bt,2022.2.4,Win32,60.27727547,Chrome,1536,864,,,,,0,584,,,,,,,,,,,,,,,,,167,S,triangle,0,0,,,,,,,,,,,,,,,,repeat,letter,NA,j,0.0676,noRew,,,,,,0,38,0,38,0,1,,,,,,,,,,,,,,,,,
293785,2022-12-01_20h07.38.470,vts_reward_expectancy_bt,2022.2.4,Win32,60.27727547,Chrome,1536,864,,,,,0,584,,,,,,,,,,,,,,,,,139,Y,star,0,1,,,,,,,,,,,,,,,,switch,number,NA,f,0.0373,noRew,,,,,,0,39,0,39,0,1,,,,,,,,,,,,,,,,,
293785,2022-12-01_20h07.38.470,vts_reward_expectancy_bt,2022.2.4,Win32,60.27727547,Chrome,1536,864,,,,,0,584,,,,,,,,,,,,,,,,,160,U,triangle,1,1,,,,,,,,,,,,,,,,switch,letter,lettSwt,k,0.0763,noRew,,,,,,0,40,0,40,0,1,,,,,,,,,,,,,,,,,
293785,2022-12-01_20h07.38.470,vts_reward_expectancy_bt,2022.2.4,Win32,60.27727547,Chrome,1536,864,,,,,0,584,,,,,,,,,,,,,,,,,139,W,star,0,0,,,,,,,,,,,,,,,,switch,number,NA,f,0.0425,noRew,,,,,,0,41,0,41,0,1,,,,,,,,,,,,,,,,,
293785,2022-12-01_20h07.38.470,vts_reward_expectancy_bt,2022.2.4,Win32,60.27727547,Chrome,1536,864,,,,,0,584,,,,,,,,,,,,,,,,,181,D,star,0,1,,,,,,,,,,,,,,,,switch,letter,NA,k,0.0666,noRew,,,,,,0,42,0,42,0,1,,,,,,,,,,,,,,,,,
293785,2022-12-01_20h07.38.470,vts_reward_expectancy_bt,2022.2.4,Win32,60.27727547,Chrome,1536,864,,,,,0,584,,,,,,,,,,,,,,,,,174,Y,circle,1,1,,,,,,,,,,,,,,,,repeat,letter,lettRpt,k,0.4182,noRew,,,,,,0,43,0,43,0,1,,,,,,,,,,,,,,,,,
293785,2022-12-01_20h07.38.470,vts_reward_expectancy_bt,2022.2.4,Win32,60.27727547,Chrome,1536,864,,,,,0,584,,,,,,,,,,,,,,,,,132,B,circle,0,0,,,,,,,,,,,,,,,,repeat,letter,NA,k,0.4505,noRew,,,,,,0,44,0,44,0,1,,,,,,,,,,,,,,,,,
293785,2022-12-01_20h07.38.470,vts_reward_expectancy_bt,2022.2.4,Win32,60.27727547,Chrome,1536,864,,,,,0,584,,,,,,,,,,,,,,,,,160,H,hexagon,0,1,,,,,,,,,,,,,,,,repeat,letter,NA,k,0.0178,noRew,,,,,,0,45,0,45,0,1,,,,,,,,,,,,,,,,,
293785,2022-12-01_20h07.38.470,vts_reward_expectancy_bt,2022.2.4,Win32,60.27727547,Chrome,1536,864,,,,,0,584,,,,,,,,,,,,,,,,,146,U,hexagon,-1,1,,,,,,,,,,,,,,,,switch,no_choice,NA,,,noRew,,,,,,0,46,0,46,0,1,,,,,,,,,,,,,,,,,
293785,2022-12-01_20h07.38.470,vts_reward_expectancy_bt,2022.2.4,Win32,60.27727547,Chrome,1536,864,,,,,0,584,,,,,,,,,,,,,,,,,174,Y,star,0,0,,,,,,,,,,,,,,,,switch,letter,NA,j,0.0918,noRew,,,,,,0,47,0,47,0,1,,,,,,,,,,,,,,,,,
293785,2022-12-01_20h07.38.470,vts_reward_expectancy_bt,2022.2.4,Win32,60.27727547,Chrome,1536,864,,,,,0,584,,,,,,,,,,,,,,,,,146,F,star,0,1,,,,,,,,,,,,,,,,switch,number,NA,f,1.4177,noRew,,,,,,0,48,0,48,0,1,,,,,,,,,,,,,,,,,
293785,2022-12-01_20h07.38.470,vts_reward_expectancy_bt,2022.2.4,Win32,60.27727547,Chrome,1536,864,,,,,0,584,,,,,,,,,,,,,,,,,174,U,triangle,0,1,,,,,,,,,,,,,,,,switch,letter,NA,j,0.1585,noRew,,,,,,0,49,0,49,0,1,,,,,,,,,,,,,,,,,
293785,2022-12-01_20h07.38.470,vts_reward_expectancy_bt,2022.2.4,Win32,60.27727547,Chrome,1536,864,,,,,0,584,,,,,,,,,,,,,,,,,125,W,circle,1,1,,,,,,,,,,,,,,,,switch,number,numSwt,d,0.0008,noRew,,,,,,0,50,0,50,0,1,,,,,,,,,,,,,,,,,
293785,2022-12-01_20h07.38.470,vts_reward_expectancy_bt,2022.2.4,Win32,60.27727547,Chrome,1536,864,,,,,0,584,,,,,,,,,,,,,,,,,160,H,triangle,1,0,,,,,,,,,,,,,,,,repeat,number,numRpt,f,0.0898,noRew,,,,,,0,51,0,51,0,1,,,,,,,,,,,,,,,,,
293785,2022-12-01_20h07.38.470,vts_reward_expectancy_bt,2022.2.4,Win32,60.27727547,Chrome,1536,864,,,,,0,584,,,,,,,,,,,,,,,,,181,U,triangle,1,0,,,,,,,,,,,,,,,,repeat,number,numRpt,f,0.1702,noRew,,,,,,0,52,0,52,0,1,,,,,,,,,,,,,,,,,
293785,2022-12-01_20h07.38.470,vts_reward_expectancy_bt,2022.2.4,Win32,60.27727547,Chrome,1536,864,,,,,0,584,,,,,,,,,,,,,,,,,160,F,star,1,0,,,,,,,,,,,,,,,,switch,letter,lettSwt,j,0.3415,noRew,,,,,,0,53,0,53,0,1,,,,,,,,,,,,,,,,,
293785,2022-12-01_20h07.38.470,vts_reward_expectancy_bt,2022.2.4,Win32,60.27727547,Chrome,1536,864,,,,,0,584,,,,,,,,,,,,,,,,,174,W,circle,1,0,,,,,,,,,,,,,,,,switch,number,numSwt,f,0.106,noRew,,,,,,0,54,0,54,0,1,,,,,,,,,,,,,,,,,
293785,2022-12-01_20h07.38.470,vts_reward_expectancy_bt,2022.2.4,Win32,60.27727547,Chrome,1536,864,,,,,0,584,,,,,,,,,,,,,,,,,125,Y,triangle,0,0,,,,,,,,,,,,,,,,switch,letter,NA,j,0.0337,noRew,,,,,,0,55,0,55,0,1,,,,,,,,,,,,,,,,,
293785,2022-12-01_20h07.38.470,vts_reward_expectancy_bt,2022.2.4,Win32,60.27727547,Chrome,1536,864,,,,,0,584,,,,,,,,,,,,,,,,,160,Y,star,1,1,,,,,,,,,,,,,,,,switch,number,numSwt,f,0.0889,noRew,,,,,,0,56,0,56,0,1,,,,,,,,,,,,,,,,,
293785,2022-12-01_20h07.38.470,vts_reward_expectancy_bt,2022.2.4,Win32,60.27727547,Chrome,1536,864,,,,,0,584,,,,,,,,,,,,,,,,,139,D,hexagon,0,0,,,,,,,,,,,,,,,,switch,letter,NA,k,0.0232,noRew,,,,,,0,57,0,57,0,1,,,,,,,,,,,,,,,,,
293785,2022-12-01_20h07.38.470,vts_reward_expectancy_bt,2022.2.4,Win32,60.27727547,Chrome,1536,864,,,,,0,584,,,,,,,,,,,,,,,,,132,S,circle,0,1,,,,,,,,,,,,,,,,switch,number,NA,f,0.0255,noRew,,,,,,0,58,0,58,0,1,,,,,,,,,,,,,,,,,
293785,2022-12-01_20h07.38.470,vts_reward_expectancy_bt,2022.2.4,Win32,60.27727547,Chrome,1536,864,,,,,0,584,,,,,,,,,,,,,,,,,125,F,star,1,1,,,,,,,,,,,,,,,,repeat,number,numRpt,d,0.0683,noRew,,,,,,0,59,0,59,0,1,,,,,,,,,,,,,,,,,
293785,2022-12-01_20h07.38.470,vts_reward_expectancy_bt,2022.2.4,Win32,60.27727547,Chrome,1536,864,,,,,0,584,,,,,,,,,,,,,,,,,125,F,star,1,0,,,,,,,,,,,,,,,,switch,letter,lettSwt,j,0.1174,noRew,,,,,,0,60,0,60,0,1,,,,,,,,,,,,,,,,,
293785,2022-12-01_20h07.38.470,vts_reward_expectancy_bt,2022.2.4,Win32,60.27727547,Chrome,1536,864,,,,,0,584,,,,,,,,,,,,,,,,,181,Y,triangle,0,0,,,,,,,,,,,,,,,,repeat,letter,NA,j,0.4497,noRew,,,,,,0,61,0,61,0,1,,,,,,,,,,,,,,,,,
293785,2022-12-01_20h07.38.470,vts_reward_expectancy_bt,2022.2.4,Win32,60.27727547,Chrome,1536,864,,,,,0,584,,,,,,,,,,,,,,,,,160,H,circle,1,1,,,,,,,,,,,,,,,,repeat,letter,lettRpt,j,1.1854,noRew,,,,,,0,62,0,62,0,1,,,,,,,,,,,,,,,,,
293785,2022-12-01_20h07.38.470,vts_reward_expectancy_bt,2022.2.4,Win32,60.27727547,Chrome,1536,864,,,,,0,584,,,,,,,,,,,,,,,,,139,W,star,1,0,,,,,,,,,,,,,,,,repeat,letter,lettRpt,k,0.1328,noRew,,,,,,0,63,0,63,0,1,,,,,,,,,,,,,,,,,
293785,2022-12-01_20h07.38.470,vts_reward_expectancy_bt,2022.2.4,Win32,60.27727547,Chrome,1536,864,,,,,,,,,,,,,,,,,,,,,,,,,,,,,,,,,,,,,,,,,,,,,,,,,,,,,,,,,,,,,,,,,,,,,,,,,,,,
293785,2022-12-01_20h07.38.470,vts_reward_expectancy_bt,2022.2.4,Win32,60.27727547,Chrome,1536,864,,,,,0,584,,,,,,,,,,,,,,,,,174,H,triangle,1,0,,,,,,,,,,,,,,,,switch,number,numSwt,f,0.6105,Hi,,,,,,0,,,,,,space,1.1224,high,0,0,0,0,1,,,,,,,,,
293785,2022-12-01_20h07.38.470,vts_reward_expectancy_bt,2022.2.4,Win32,60.27727547,Chrome,1536,864,,,,,0,584,,,,,,,,,,,,,,,,,160,D,star,1,0,,,,,,,,,,,,,,,,repeat,number,numRpt,f,0.1312,Hi,,,,,,0,,,,,,,,high,1,0,1,0,1,,,,,,,,,
293785,2022-12-01_20h07.38.470,vts_reward_expectancy_bt,2022.2.4,Win32,60.27727547,Chrome,1536,864,,,,,0,584,,,,,,,,,,,,,,,,,132,F,hexagon,0,0,,,,,,,,,,,,,,,,switch,letter,NA,k,1.5484,Hi,,,,,,0,,,,,,,,high,2,0,2,0,1,,,,,,,,,
293785,2022-12-01_20h07.38.470,vts_reward_expectancy_bt,2022.2.4,Win32,60.27727547,Chrome,1536,864,,,,,0,584,,,,,,,,,,,,,,,,,181,U,circle,0,1,,,,,,,,,,,,,,,,switch,number,NA,d,0.6797,Hi,,,,,,0,,,,,,,,high,3,0,3,0,1,,,,,,,,,
293785,2022-12-01_20h07.38.470,vts_reward_expectancy_bt,2022.2.4,Win32,60.27727547,Chrome,1536,864,,,,,0,584,,,,,,,,,,,,,,,,,125,B,triangle,1,1,,,,,,,,,,,,,,,,repeat,number,numRpt,d,0.8272,Hi,,,,,,0,,,,,,,,high,4,0,4,0,1,,,,,,,,,
293785,2022-12-01_20h07.38.470,vts_reward_expectancy_bt,2022.2.4,Win32,60.27727547,Chrome,1536,864,,,,,1,585,,,,,,,,,,,,,,,,,139,S,star,1,0,,,,,,,,,,,,,,,,repeat,number,numRpt,d,0.0008,Hi,,,,,,0,,,,,,,,high,5,0,5,0,1,,,,,,,,,
293785,2022-12-01_20h07.38.470,vts_reward_expectancy_bt,2022.2.4,Win32,60.27727547,Chrome,1536,864,,,,,0,585,,,,,,,,,,,,,,,,,146,Y,hexagon,0,0,,,,,,,,,,,,,,,,repeat,number,NA,f,0.0073,Hi,,,,,,0,,,,,,,,high,6,0,6,0,1,,,,,,,,,
293785,2022-12-01_20h07.38.470,vts_reward_expectancy_bt,2022.2.4,Win32,60.27727547,Chrome,1536,864,,,,,0,585,,,,,,,,,,,,,,,,,167,W,circle,0,1,,,,,,,,,,,,,,,,switch,letter,NA,j,0.2477,Hi,,,,,,0,,,,,,,,high,7,0,7,0,1,,,,,,,,,
293785,2022-12-01_20h07.38.470,vts_reward_expectancy_bt,2022.2.4,Win32,60.27727547,Chrome,1536,864,,,,,0,585,,,,,,,,,,,,,,,,,174,H,circle,-1,1,,,,,,,,,,,,,,,,switch,no_choice,NA,,,Hi,,,,,,0,,,,,,,,high,8,0,8,0,1,,,,,,,,,
293785,2022-12-01_20h07.38.470,vts_reward_expectancy_bt,2022.2.4,Win32,60.27727547,Chrome,1536,864,,,,,0,585,,,,,,,,,,,,,,,,,160,D,triangle,-1,0,,,,,,,,,,,,,,,,repeat,no_choice,NA,,,Hi,,,,,,0,,,,,,,,high,9,0,9,0,1,,,,,,,,,
293785,2022-12-01_20h07.38.470,vts_reward_expectancy_bt,2022.2.4,Win32,60.27727547,Chrome,1536,864,,,,,0,585,,,,,,,,,,,,,,,,,132,F,star,-1,0,,,,,,,,,,,,,,,,repeat,no_choice,NA,,,Hi,,,,,,0,,,,,,,,high,10,0,10,0,1,,,,,,,,,
293785,2022-12-01_20h07.38.470,vts_reward_expectancy_bt,2022.2.4,Win32,60.27727547,Chrome,1536,864,,,,,0,585,,,,,,,,,,,,,,,,,181,U,hexagon,-1,0,,,,,,,,,,,,,,,,repeat,no_choice,NA,,,Hi,,,,,,0,,,,,,,,high,11,0,11,0,1,,,,,,,,,
293785,2022-12-01_20h07.38.470,vts_reward_expectancy_bt,2022.2.4,Win32,60.27727547,Chrome,1536,864,,,,,0,585,,,,,,,,,,,,,,,,,125,B,triangle,0,0,,,,,,,,,,,,,,,,switch,letter,NA,k,1.7381,Hi,,,,,,0,,,,,,,,high,12,0,12,0,1,,,,,,,,,
293785,2022-12-01_20h07.38.470,vts_reward_expectancy_bt,2022.2.4,Win32,60.27727547,Chrome,1536,864,,,,,0,585,,,,,,,,,,,,,,,,,139,S,star,0,1,,,,,,,,,,,,,,,,repeat,letter,NA,j,0.0908,Hi,,,,,,0,,,,,,,,high,13,0,13,0,1,,,,,,,,,
293785,2022-12-01_20h07.38.470,vts_reward_expectancy_bt,2022.2.4,Win32,60.27727547,Chrome,1536,864,,,,,0,585,,,,,,,,,,,,,,,,,146,Y,circle,-1,1,,,,,,,,,,,,,,,,switch,no_choice,NA,,,Hi,,,,,,0,,,,,,,,high,14,0,14,0,1,,,,,,,,,
293785,2022-12-01_20h07.38.470,vts_reward_expectancy_bt,2022.2.4,Win32,60.27727547,Chrome,1536,864,,,,,0,585,,,,,,,,,,,,,,,,,167,W,hexagon,0,0,,,,,,,,,,,,,,,,switch,number,NA,d,2.4905,Hi,,,,,,0,,,,,,,,high,15,0,15,0,1,,,,,,,,,
293785,2022-12-01_20h07.38.470,vts_reward_expectancy_bt,2022.2.4,Win32,60.27727547,Chrome,1536,864,,,,,0,585,,,,,,,,,,,,,,,,,160,H,hexagon,-1,1,,,,,,,,,,,,,,,,switch,no_choice,NA,,,Hi,,,,,,0,,,,,,,,high,16,0,16,0,1,,,,,,,,,
293785,2022-12-01_20h07.38.470,vts_reward_expectancy_bt,2022.2.4,Win32,60.27727547,Chrome,1536,864,,,,,0,585,,,,,,,,,,,,,,,,,174,D,circle,-1,0,,,,,,,,,,,,,,,,repeat,no_choice,NA,,,Hi,,,,,,0,,,,,,,,high,17,0,17,0,1,,,,,,,,,
293785,2022-12-01_20h07.38.470,vts_reward_expectancy_bt,2022.2.4,Win32,60.27727547,Chrome,1536,864,,,,,0,585,,,,,,,,,,,,,,,,,125,B,star,-1,0,,,,,,,,,,,,,,,,repeat,no_choice,NA,,,Hi,,,,,,0,,,,,,,,high,18,0,18,0,1,,,,,,,,,
293785,2022-12-01_20h07.38.470,vts_reward_expectancy_bt,2022.2.4,Win32,60.27727547,Chrome,1536,864,,,,,0,585,,,,,,,,,,,,,,,,,132,S,triangle,-1,0,,,,,,,,,,,,,,,,repeat,no_choice,NA,,,Hi,,,,,,0,,,,,,,,high,19,0,19,0,1,,,,,,,,,
293785,2022-12-01_20h07.38.470,vts_reward_expectancy_bt,2022.2.4,Win32,60.27727547,Chrome,1536,864,,,,,0,585,,,,,,,,,,,,,,,,,139,W,star,-1,0,,,,,,,,,,,,,,,,repeat,no_choice,NA,,,Hi,,,,,,0,,,,,,,,high,20,0,20,0,1,,,,,,,,,
293785,2022-12-01_20h07.38.470,vts_reward_expectancy_bt,2022.2.4,Win32,60.27727547,Chrome,1536,864,,,,,0,585,,,,,,,,,,,,,,,,,146,U,hexagon,0,0,,,,,,,,,,,,,,,,switch,letter,NA,j,0.0938,Hi,,,,,,0,,,,,,,,high,21,0,21,0,1,,,,,,,,,
293785,2022-12-01_20h07.38.470,vts_reward_expectancy_bt,2022.2.4,Win32,60.27727547,Chrome,1536,864,,,,,0,585,,,,,,,,,,,,,,,,,167,F,circle,0,1,,,,,,,,,,,,,,,,switch,number,NA,d,2.5242,Hi,,,,,,0,,,,,,,,high,22,0,22,0,1,,,,,,,,,
293785,2022-12-01_20h07.38.470,vts_reward_expectancy_bt,2022.2.4,Win32,60.27727547,Chrome,1536,864,,,,,0,585,,,,,,,,,,,,,,,,,181,Y,triangle,-1,1,,,,,,,,,,,,,,,,switch,no_choice,NA,,,Hi,,,,,,0,,,,,,,,high,23,0,23,0,1,,,,,,,,,
293785,2022-12-01_20h07.38.470,vts_reward_expectancy_bt,2022.2.4,Win32,60.27727547,Chrome,1536,864,,,,,0,585,,,,,,,,,,,,,,,,,181,Y,triangle,-1,0,,,,,,,,,,,,,,,,repeat,no_choice,NA,,,Hi,,,,,,0,,,,,,,,high,24,0,24,0,1,,,,,,,,,
293785,2022-12-01_20h07.38.470,vts_reward_expectancy_bt,2022.2.4,Win32,60.27727547,Chrome,1536,864,,,,,0,585,,,,,,,,,,,,,,,,,174,H,circle,-1,0,,,,,,,,,,,,,,,,repeat,no_choice,NA,,,Hi,,,,,,0,,,,,,,,high,25,0,25,0,1,,,,,,,,,
293785,2022-12-01_20h07.38.470,vts_reward_expectancy_bt,2022.2.4,Win32,60.27727547,Chrome,1536,864,,,,,0,585,,,,,,,,,,,,,,,,,132,D,hexagon,-1,0,,,,,,,,,,,,,,,,repeat,no_choice,NA,,,Hi,,,,,,0,,,,,,,,high,26,0,26,0,1,,,,,,,,,
293785,2022-12-01_20h07.38.470,vts_reward_expectancy_bt,2022.2.4,Win32,60.27727547,Chrome,1536,864,,,,,0,585,,,,,,,,,,,,,,,,,160,W,star,-1,0,,,,,,,,,,,,,,,,repeat,no_choice,NA,,,Hi,,,,,,0,,,,,,,,high,27,0,27,0,1,,,,,,,,,
293785,2022-12-01_20h07.38.470,vts_reward_expectancy_bt,2022.2.4,Win32,60.27727547,Chrome,1536,864,,,,,0,585,,,,,,,,,,,,,,,,,125,S,triangle,-1,0,,,,,,,,,,,,,,,,repeat,no_choice,NA,,,Hi,,,,,,0,,,,,,,,high,28,0,28,0,1,,,,,,,,,
293785,2022-12-01_20h07.38.470,vts_reward_expectancy_bt,2022.2.4,Win32,60.27727547,Chrome,1536,864,,,,,0,585,,,,,,,,,,,,,,,,,139,U,star,-1,0,,,,,,,,,,,,,,,,repeat,no_choice,NA,,,Hi,,,,,,0,,,,,,,,high,29,0,29,0,1,,,,,,,,,
293785,2022-12-01_20h07.38.470,vts_reward_expectancy_bt,2022.2.4,Win32,60.27727547,Chrome,1536,864,,,,,0,585,,,,,,,,,,,,,,,,,167,F,circle,-1,0,,,,,,,,,,,,,,,,repeat,no_choice,NA,,,Hi,,,,,,0,,,,,,,,high,30,0,30,0,1,,,,,,,,,
293785,2022-12-01_20h07.38.470,vts_reward_expectancy_bt,2022.2.4,Win32,60.27727547,Chrome,1536,864,,,,,0,585,,,,,,,,,,,,,,,,,146,B,hexagon,-1,0,,,,,,,,,,,,,,,,repeat,no_choice,NA,,,Hi,,,,,,0,,,,,,,,high,31,0,31,0,1,,,,,,,,,
293785,2022-12-01_20h07.38.470,vts_reward_expectancy_bt,2022.2.4,Win32,60.27727547,Chrome,1536,864,,,,,0,585,,,,,,,,,,,,,,,,,132,B,hexagon,0,0,,,,,,,,,,,,,,,,switch,letter,NA,k,0.0671,Hi,,,,,,1,,,,,,space,50.7585,high,0,0,0,0,1,,,,,,,,,
293785,2022-12-01_20h07.38.470,vts_reward_expectancy_bt,2022.2.4,Win32,60.27727547,Chrome,1536,864,,,,,0,585,,,,,,,,,,,,,,,,,125,H,circle,0,1,,,,,,,,,,,,,,,,repeat,letter,NA,k,0.0342,Hi,,,,,,1,,,,,,,,high,1,0,1,0,1,,,,,,,,,
293785,2022-12-01_20h07.38.470,vts_reward_expectancy_bt,2022.2.4,Win32,60.27727547,Chrome,1536,864,,,,,10,595,,,,,,,,,,,,,,,,,167,Y,triangle,1,1,,,,,,,,,,,,,,,,switch,number,numSwt,f,0.0008,Hi,,,,,,1,,,,,,,,high,2,0,2,0,1,,,,,,,,,
293785,2022-12-01_20h07.38.470,vts_reward_expectancy_bt,2022.2.4,Win32,60.27727547,Chrome,1536,864,,,,,0,595,,,,,,,,,,,,,,,,,174,F,star,0,0,,,,,,,,,,,,,,,,repeat,number,NA,d,0.0171,Hi,,,,,,1,,,,,,,,high,3,0,3,0,1,,,,,,,,,
293785,2022-12-01_20h07.38.470,vts_reward_expectancy_bt,2022.2.4,Win32,60.27727547,Chrome,1536,864,,,,,0,595,,,,,,,,,,,,,,,,,181,D,hexagon,0,1,,,,,,,,,,,,,,,,repeat,number,NA,d,0.0169,Hi,,,,,,1,,,,,,,,high,4,0,4,0,1,,,,,,,,,
293785,2022-12-01_20h07.38.470,vts_reward_expectancy_bt,2022.2.4,Win32,60.27727547,Chrome,1536,864,,,,,0,595,,,,,,,,,,,,,,,,,139,S,circle,0,1,,,,,,,,,,,,,,,,switch,letter,NA,j,0.2346,Hi,,,,,,1,,,,,,,,high,5,0,5,0,1,,,,,,,,,
293785,2022-12-01_20h07.38.470,vts_reward_expectancy_bt,2022.2.4,Win32,60.27727547,Chrome,1536,864,,,,,1,596,,,,,,,,,,,,,,,,,146,U,triangle,1,1,,,,,,,,,,,,,,,,switch,number,numSwt,d,0.284,Hi,,,,,,1,,,,,,,,high,6,0,6,0,1,,,,,,,,,
293785,2022-12-01_20h07.38.470,vts_reward_expectancy_bt,2022.2.4,Win32,60.27727547,Chrome,1536,864,,,,,10,606,,,,,,,,,,,,,,,,,160,W,star,1,0,,,,,,,,,,,,,,,,switch,letter,lettSwt,k,0.1824,Hi,,,,,,1,,,,,,,,high,7,0,7,0,1,,,,,,,,,
293785,2022-12-01_20h07.38.470,vts_reward_expectancy_bt,2022.2.4,Win32,60.27727547,Chrome,1536,864,,,,,0,606,,,,,,,,,,,,,,,,,132,B,hexagon,0,0,,,,,,,,,,,,,,,,switch,number,NA,f,0.0974,Hi,,,,,,1,,,,,,,,high,8,0,8,0,1,,,,,,,,,
293785,2022-12-01_20h07.38.470,vts_reward_expectancy_bt,2022.2.4,Win32,60.27727547,Chrome,1536,864,,,,,10,616,,,,,,,,,,,,,,,,,125,H,triangle,1,1,,,,,,,,,,,,,,,,switch,letter,lettSwt,j,0.0534,Hi,,,,,,1,,,,,,,,high,9,0,9,0,1,,,,,,,,,
293785,2022-12-01_20h07.38.470,vts_reward_expectancy_bt,2022.2.4,Win32,60.27727547,Chrome,1536,864,,,,,0,616,,,,,,,,,,,,,,,,,167,Y,star,0,0,,,,,,,,,,,,,,,,switch,number,NA,d,0.0141,Hi,,,,,,1,,,,,,,,high,10,0,10,0,1,,,,,,,,,
293785,2022-12-01_20h07.38.470,vts_reward_expectancy_bt,2022.2.4,Win32,60.27727547,Chrome,1536,864,,,,,1,617,,,,,,,,,,,,,,,,,174,F,circle,1,1,,,,,,,,,,,,,,,,repeat,number,numRpt,f,0.4022,Lo,,,,,,1,,,,,,,,high,11,0,11,0,1,,,,,,,,,
293785,2022-12-01_20h07.38.470,vts_reward_expectancy_bt,2022.2.4,Win32,60.27727547,Chrome,1536,864,,,,,0,617,,,,,,,,,,,,,,,,,181,D,triangle,0,0,,,,,,,,,,,,,,,,switch,letter,NA,k,0.0173,Lo,,,,,,1,,,,,,,,high,12,0,12,0,1,,,,,,,,,
293785,2022-12-01_20h07.38.470,vts_reward_expectancy_bt,2022.2.4,Win32,60.27727547,Chrome,1536,864,,,,,0,617,,,,,,,,,,,,,,,,,139,S,hexagon,0,1,,,,,,,,,,,,,,,,switch,number,NA,f,0.4862,Lo,,,,,,1,,,,,,,,high,13,0,13,0,1,,,,,,,,,
293785,2022-12-01_20h07.38.470,vts_reward_expectancy_bt,2022.2.4,Win32,60.27727547,Chrome,1536,864,,,,,0,617,,,,,,,,,,,,,,,,,146,U,star,0,1,,,,,,,,,,,,,,,,repeat,number,NA,f,0.093,Lo,,,,,,1,,,,,,,,high,14,0,14,0,1,,,,,,,,,
293785,2022-12-01_20h07.38.470,vts_reward_expectancy_bt,2022.2.4,Win32,60.27727547,Chrome,1536,864,,,,,0,617,,,,,,,,,,,,,,,,,160,W,circle,0,1,,,,,,,,,,,,,,,,repeat,number,NA,d,2.7421,Lo,,,,,,1,,,,,,,,high,15,0,15,0,1,,,,,,,,,
293785,2022-12-01_20h07.38.470,vts_reward_expectancy_bt,2022.2.4,Win32,60.27727547,Chrome,1536,864,,,,,0,617,,,,,,,,,,,,,,,,,132,W,triangle,0,1,,,,,,,,,,,,,,,,switch,letter,NA,j,0.0013,Lo,,,,,,1,,,,,,,,high,16,0,16,0,1,,,,,,,,,
293785,2022-12-01_20h07.38.470,vts_reward_expectancy_bt,2022.2.4,Win32,60.27727547,Chrome,1536,864,,,,,10,627,,,,,,,,,,,,,,,,,174,B,star,1,1,,,,,,,,,,,,,,,,switch,number,numSwt,f,0.0008,Hi,,,,,,1,,,,,,,,high,17,0,17,0,1,,,,,,,,,
293785,2022-12-01_20h07.38.470,vts_reward_expectancy_bt,2022.2.4,Win32,60.27727547,Chrome,1536,864,,,,,0,627,,,,,,,,,,,,,,,,,160,H,hexagon,0,0,,,,,,,,,,,,,,,,repeat,number,NA,d,0.1842,Hi,,,,,,1,,,,,,,,high,18,0,18,0,1,,,,,,,,,
293785,2022-12-01_20h07.38.470,vts_reward_expectancy_bt,2022.2.4,Win32,60.27727547,Chrome,1536,864,,,,,0,627,,,,,,,,,,,,,,,,,167,Y,circle,0,1,,,,,,,,,,,,,,,,switch,letter,NA,j,0.069,Hi,,,,,,1,,,,,,,,high,19,0,19,0,1,,,,,,,,,
293785,2022-12-01_20h07.38.470,vts_reward_expectancy_bt,2022.2.4,Win32,60.27727547,Chrome,1536,864,,,,,0,627,,,,,,,,,,,,,,,,,139,F,circle,0,1,,,,,,,,,,,,,,,,switch,number,NA,f,0.1174,Hi,,,,,,1,,,,,,,,high,20,0,20,0,1,,,,,,,,,
293785,2022-12-01_20h07.38.470,vts_reward_expectancy_bt,2022.2.4,Win32,60.27727547,Chrome,1536,864,,,,,0,627,,,,,,,,,,,,,,,,,125,U,star,1,1,,,,,,,,,,,,,,,,repeat,number,numRpt,d,0.2013,Hi,,,,,,1,,,,,,,,high,21,0,21,0,1,,,,,,,,,
293785,2022-12-01_20h07.38.470,vts_reward_expectancy_bt,2022.2.4,Win32,60.27727547,Chrome,1536,864,,,,,0,627,,,,,,,,,,,,,,,,,146,S,hexagon,0,0,,,,,,,,,,,,,,,,repeat,number,NA,f,0.0005,Hi,,,,,,1,,,,,,,,high,22,0,22,0,1,,,,,,,,,
293785,2022-12-01_20h07.38.470,vts_reward_expectancy_bt,2022.2.4,Win32,60.27727547,Chrome,1536,864,,,,,10,637,,,,,,,,,,,,,,,,,181,D,triangle,1,1,,,,,,,,,,,,,,,,switch,letter,lettSwt,j,1.6419,Hi,,,,,,1,,,,,,,,high,23,0,23,0,1,,,,,,,,,
293785,2022-12-01_20h07.38.470,vts_reward_expectancy_bt,2022.2.4,Win32,60.27727547,Chrome,1536,864,,,,,0,637,,,,,,,,,,,,,,,,,160,F,triangle,0,0,,,,,,,,,,,,,,,,switch,number,NA,d,0.0008,Hi,,,,,,1,,,,,,,,high,24,0,24,0,1,,,,,,,,,
293785,2022-12-01_20h07.38.470,vts_reward_expectancy_bt,2022.2.4,Win32,60.27727547,Chrome,1536,864,,,,,0,637,,,,,,,,,,,,,,,,,174,Y,star,0,1,,,,,,,,,,,,,,,,switch,letter,NA,j,0.0717,Hi,,,,,,1,,,,,,,,high,25,0,25,0,1,,,,,,,,,
293785,2022-12-01_20h07.38.470,vts_reward_expectancy_bt,2022.2.4,Win32,60.27727547,Chrome,1536,864,,,,,0,637,,,,,,,,,,,,,,,,,181,H,hexagon,0,1,,,,,,,,,,,,,,,,repeat,letter,NA,k,0.0173,Hi,,,,,,1,,,,,,,,high,26,0,26,0,1,,,,,,,,,
293785,2022-12-01_20h07.38.470,vts_reward_expectancy_bt,2022.2.4,Win32,60.27727547,Chrome,1536,864,,,,,1,638,,,,,,,,,,,,,,,,,132,S,circle,1,1,,,,,,,,,,,,,,,,repeat,letter,lettRpt,k,0.026,Lo,,,,,,1,,,,,,,,high,27,0,27,0,1,,,,,,,,,
293785,2022-12-01_20h07.38.470,vts_reward_expectancy_bt,2022.2.4,Win32,60.27727547,Chrome,1536,864,,,,,1,639,,,,,,,,,,,,,,,,,125,W,circle,1,0,,,,,,,,,,,,,,,,repeat,letter,lettRpt,k,0.0522,Lo,,,,,,1,,,,,,,,high,28,0,28,0,1,,,,,,,,,
293785,2022-12-01_20h07.38.470,vts_reward_expectancy_bt,2022.2.4,Win32,60.27727547,Chrome,1536,864,,,,,1,640,,,,,,,,,,,,,,,,,139,D,star,1,0,,,,,,,,,,,,,,,,switch,number,numSwt,d,0.0254,Hi,,,,,,1,,,,,,,,high,29,0,29,0,1,,,,,,,,,
293785,2022-12-01_20h07.38.470,vts_reward_expectancy_bt,2022.2.4,Win32,60.27727547,Chrome,1536,864,,,,,10,650,,,,,,,,,,,,,,,,,167,U,triangle,1,0,,,,,,,,,,,,,,,,repeat,number,numRpt,f,0.0672,Hi,,,,,,1,,,,,,,,high,30,0,30,0,1,,,,,,,,,
293785,2022-12-01_20h07.38.470,vts_reward_expectancy_bt,2022.2.4,Win32,60.27727547,Chrome,1536,864,,,,,0,650,,,,,,,,,,,,,,,,,146,B,hexagon,-1,0,,,,,,,,,,,,,,,,switch,no_choice,NA,,,Hi,,,,,,1,,,,,,,,high,31,0,31,0,1,,,,,,,,,
293785,2022-12-01_20h07.38.470,vts_reward_expectancy_bt,2022.2.4,Win32,60.27727547,Chrome,1536,864,,,,,0,650,,,,,,,,,,,,,,,,,181,B,star,0,0,,,,,,,,,,,,,,,,switch,letter,NA,k,0.1683,Hi,,,,,,2,,,,,,space,3.8383,high,0,0,0,0,1,,,,,,,,,
293785,2022-12-01_20h07.38.470,vts_reward_expectancy_bt,2022.2.4,Win32,60.27727547,Chrome,1536,864,,,,,1,651,,,,,,,,,,,,,,,,,132,Y,hexagon,1,1,,,,,,,,,,,,,,,,switch,number,numSwt,d,0.0681,Lo,,,,,,2,,,,,,,,high,1,0,1,0,1,,,,,,,,,
293785,2022-12-01_20h07.38.470,vts_reward_expectancy_bt,2022.2.4,Win32,60.27727547,Chrome,1536,864,,,,,10,661,,,,,,,,,,,,,,,,,174,F,triangle,1,0,,,,,,,,,,,,,,,,switch,letter,lettSwt,j,0.0165,Hi,,,,,,2,,,,,,,,high,2,0,2,0,1,,,,,,,,,
293785,2022-12-01_20h07.38.470,vts_reward_expectancy_bt,2022.2.4,Win32,60.27727547,Chrome,1536,864,,,,,1,662,,,,,,,,,,,,,,,,,160,W,circle,1,0,,,,,,,,,,,,,,,,switch,number,numSwt,f,0.0248,Lo,,,,,,2,,,,,,,,high,3,0,3,0,1,,,,,,,,,
293785,2022-12-01_20h07.38.470,vts_reward_expectancy_bt,2022.2.4,Win32,60.27727547,Chrome,1536,864,,,,,1,663,,,,,,,,,,,,,,,,,125,D,star,1,0,,,,,,,,,,,,,,,,repeat,number,numRpt,d,0.1059,Hi,,,,,,2,,,,,,,,high,4,0,4,0,1,,,,,,,,,
293785,2022-12-01_20h07.38.470,vts_reward_expectancy_bt,2022.2.4,Win32,60.27727547,Chrome,1536,864,,,,,0,663,,,,,,,,,,,,,,,,,167,H,hexagon,0,0,,,,,,,,,,,,,,,,switch,letter,NA,k,0.0743,Hi,,,,,,2,,,,,,,,high,5,0,5,0,1,,,,,,,,,
293785,2022-12-01_20h07.38.470,vts_reward_expectancy_bt,2022.2.4,Win32,60.27727547,Chrome,1536,864,,,,,10,673,,,,,,,,,,,,,,,,,146,S,triangle,1,1,,,,,,,,,,,,,,,,repeat,letter,lettRpt,k,0.0007,Hi,,,,,,2,,,,,,,,high,6,0,6,0,1,,,,,,,,,
293785,2022-12-01_20h07.38.470,vts_reward_expectancy_bt,2022.2.4,Win32,60.27727547,Chrome,1536,864,,,,,0,673,,,,,,,,,,,,,,,,,139,U,circle,0,0,,,,,,,,,,,,,,,,switch,number,NA,f,0.0007,Hi,,,,,,2,,,,,,,,high,7,0,7,0,1,,,,,,,,,
293785,2022-12-01_20h07.38.470,vts_reward_expectancy_bt,2022.2.4,Win32,60.27727547,Chrome,1536,864,,,,,0,673,,,,,,,,,,,,,,,,,181,B,circle,0,1,,,,,,,,,,,,,,,,switch,letter,NA,k,0.0223,Hi,,,,,,2,,,,,,,,high,8,0,8,0,1,,,,,,,,,
293785,2022-12-01_20h07.38.470,vts_reward_expectancy_bt,2022.2.4,Win32,60.27727547,Chrome,1536,864,,,,,0,673,,,,,,,,,,,,,,,,,132,Y,hexagon,0,1,,,,,,,,,,,,,,,,repeat,letter,NA,j,0.1002,Hi,,,,,,2,,,,,,,,high,9,0,9,0,1,,,,,,,,,
293785,2022-12-01_20h07.38.470,vts_reward_expectancy_bt,2022.2.4,Win32,60.27727547,Chrome,1536,864,,,,,0,673,,,,,,,,,,,,,,,,,174,F,star,1,1,,,,,,,,,,,,,,,,repeat,letter,lettRpt,j,0.1512,Hi,,,,,,2,,,,,,,,high,10,0,10,0,1,,,,,,,,,
293785,2022-12-01_20h07.38.470,vts_reward_expectancy_bt,2022.2.4,Win32,60.27727547,Chrome,1536,864,,,,,0,673,,,,,,,,,,,,,,,,,160,W,triangle,0,0,,,,,,,,,,,,,,,,repeat,letter,NA,j,0.2749,Hi,,,,,,2,,,,,,,,high,11,0,11,0,1,,,,,,,,,
293785,2022-12-01_20h07.38.470,vts_reward_expectancy_bt,2022.2.4,Win32,60.27727547,Chrome,1536,864,,,,,0,673,,,,,,,,,,,,,,,,,125,D,hexagon,0,1,,,,,,,,,,,,,,,,switch,number,NA,f,0.0006,Hi,,,,,,2,,,,,,,,high,12,0,12,0,1,,,,,,,,,
293785,2022-12-01_20h07.38.470,vts_reward_expectancy_bt,2022.2.4,Win32,60.27727547,Chrome,1536,864,,,,,1,674,,,,,,,,,,,,,,,,,167,H,circle,1,1,,,,,,,,,,,,,,,,repeat,number,numRpt,f,0.0515,Lo,,,,,,2,,,,,,,,high,13,0,13,0,1,,,,,,,,,
293785,2022-12-01_20h07.38.470,vts_reward_expectancy_bt,2022.2.4,Win32,60.27727547,Chrome,1536,864,,,,,10,684,,,,,,,,,,,,,,,,,146,S,star,1,0,,,,,,,,,,,,,,,,repeat,number,numRpt,d,0.0501,Hi,,,,,,2,,,,,,,,high,14,0,14,0,1,,,,,,,,,
293785,2022-12-01_20h07.38.470,vts_reward_expectancy_bt,2022.2.4,Win32,60.27727547,Chrome,1536,864,,,,,1,685,,,,,,,,,,,,,,,,,139,U,triangle,1,0,,,,,,,,,,,,,,,,switch,letter,lettSwt,k,0.1197,Hi,,,,,,2,,,,,,,,high,15,0,15,0,1,,,,,,,,,
293785,2022-12-01_20h07.38.470,vts_reward_expectancy_bt,2022.2.4,Win32,60.27727547,Chrome,1536,864,,,,,0,685,,,,,,,,,,,,,,,,,125,B,hexagon,0,0,,,,,,,,,,,,,,,,repeat,letter,NA,k,0.0065,Hi,,,,,,2,,,,,,,,high,16,0,16,0,1,,,,,,,,,
293785,2022-12-01_20h07.38.470,vts_reward_expectancy_bt,2022.2.4,Win32,60.27727547,Chrome,1536,864,,,,,0,685,,,,,,,,,,,,,,,,,167,W,star,0,1,,,,,,,,,,,,,,,,repeat,letter,NA,j,0.0009,Hi,,,,,,2,,,,,,,,high,17,0,17,0,1,,,,,,,,,
293785,2022-12-01_20h07.38.470,vts_reward_expectancy_bt,2022.2.4,Win32,60.27727547,Chrome,1536,864,,,,,0,685,,,,,,,,,,,,,,,,,132,S,triangle,0,1,,,,,,,,,,,,,,,,repeat,letter,NA,j,0.1572,Hi,,,,,,2,,,,,,,,high,18,0,18,0,1,,,,,,,,,
293785,2022-12-01_20h07.38.470,vts_reward_expectancy_bt,2022.2.4,Win32,60.27727547,Chrome,1536,864,,,,,0,685,,,,,,,,,,,,,,,,,160,F,circle,0,1,,,,,,,,,,,,,,,,switch,number,NA,d,0.0517,Hi,,,,,,2,,,,,,,,high,19,0,19,0,1,,,,,,,,,
293785,2022-12-01_20h07.38.470,vts_reward_expectancy_bt,2022.2.4,Win32,60.27727547,Chrome,1536,864,,,,,1,686,,,,,,,,,,,,,,,,,139,D,hexagon,1,1,,,,,,,,,,,,,,,,switch,letter,lettSwt,j,0.0803,Lo,,,,,,2,,,,,,,,high,20,0,20,0,1,,,,,,,,,
293785,2022-12-01_20h07.38.470,vts_reward_expectancy_bt,2022.2.4,Win32,60.27727547,Chrome,1536,864,,,,,0,686,,,,,,,,,,,,,,,,,181,U,triangle,0,0,,,,,,,,,,,,,,,,repeat,letter,NA,j,0.0008,Lo,,,,,,2,,,,,,,,high,21,0,21,0,1,,,,,,,,,
293785,2022-12-01_20h07.38.470,vts_reward_expectancy_bt,2022.2.4,Win32,60.27727547,Chrome,1536,864,,,,,0,686,,,,,,,,,,,,,,,,,174,Y,circle,0,1,,,,,,,,,,,,,,,,repeat,letter,NA,j,0.0009,Lo,,,,,,2,,,,,,,,high,22,0,22,0,1,,,,,,,,,
293785,2022-12-01_20h07.38.470,vts_reward_expectancy_bt,2022.2.4,Win32,60.27727547,Chrome,1536,864,,,,,0,686,,,,,,,,,,,,,,,,,146,H,star,-1,1,,,,,,,,,,,,,,,,switch,no_choice,NA,,,Lo,,,,,,2,,,,,,,,high,23,0,23,0,1,,,,,,,,,
293785,2022-12-01_20h07.38.470,vts_reward_expectancy_bt,2022.2.4,Win32,60.27727547,Chrome,1536,864,,,,,0,686,,,,,,,,,,,,,,,,,125,Y,star,0,0,,,,,,,,,,,,,,,,switch,number,NA,f,0.8456,Lo,,,,,,2,,,,,,,,high,24,0,24,0,1,,,,,,,,,
293785,2022-12-01_20h07.38.470,vts_reward_expectancy_bt,2022.2.4,Win32,60.27727547,Chrome,1536,864,,,,,10,696,,,,,,,,,,,,,,,,,181,S,hexagon,1,1,,,,,,,,,,,,,,,,repeat,number,numRpt,f,1.4143,Lo,,,,,,2,,,,,,,,high,25,0,25,0,1,,,,,,,,,
293785,2022-12-01_20h07.38.470,vts_reward_expectancy_bt,2022.2.4,Win32,60.27727547,Chrome,1536,864,,,,,10,706,,,,,,,,,,,,,,,,,160,F,triangle,1,0,,,,,,,,,,,,,,,,switch,letter,lettSwt,j,0.0171,Hi,,,,,,2,,,,,,,,high,26,0,26,0,1,,,,,,,,,
293785,2022-12-01_20h07.38.470,vts_reward_expectancy_bt,2022.2.4,Win32,60.27727547,Chrome,1536,864,,,,,0,706,,,,,,,,,,,,,,,,,174,U,circle,0,0,,,,,,,,,,,,,,,,switch,number,NA,d,0.1743,Hi,,,,,,2,,,,,,,,high,27,0,27,0,1,,,,,,,,,
293785,2022-12-01_20h07.38.470,vts_reward_expectancy_bt,2022.2.4,Win32,60.27727547,Chrome,1536,864,,,,,1,707,,,,,,,,,,,,,,,,,139,H,hexagon,1,1,,,,,,,,,,,,,,,,repeat,number,numRpt,d,0.0007,Lo,,,,,,2,,,,,,,,high,28,0,28,0,1,,,,,,,,,
293785,2022-12-01_20h07.38.470,vts_reward_expectancy_bt,2022.2.4,Win32,60.27727547,Chrome,1536,864,,,,,0,707,,,,,,,,,,,,,,,,,146,B,triangle,0,0,,,,,,,,,,,,,,,,repeat,number,NA,f,0.018,Lo,,,,,,2,,,,,,,,high,29,0,29,0,1,,,,,,,,,
293785,2022-12-01_20h07.38.470,vts_reward_expectancy_bt,2022.2.4,Win32,60.27727547,Chrome,1536,864,,,,,0,707,,,,,,,,,,,,,,,,,132,W,circle,0,1,,,,,,,,,,,,,,,,switch,letter,NA,j,0.0594,Lo,,,,,,2,,,,,,,,high,30,0,30,0,1,,,,,,,,,
293785,2022-12-01_20h07.38.470,vts_reward_expectancy_bt,2022.2.4,Win32,60.27727547,Chrome,1536,864,,,,,1,708,,,,,,,,,,,,,,,,,167,D,star,1,1,,,,,,,,,,,,,,,,switch,number,numSwt,f,0.0007,Hi,,,,,,2,,,,,,,,high,31,0,31,0,1,,,,,,,,,
293785,2022-12-01_20h07.38.470,vts_reward_expectancy_bt,2022.2.4,Win32,60.27727547,Chrome,1536,864,,,,,0,708,,,,,,,,,,,,,,,,,181,B,circle,0,0,,,,,,,,,,,,,,,,switch,letter,NA,k,0.1083,Hi,,,,,,3,,,,,,space,10.7169,high,0,0,0,0,1,,,,,,,,,
293785,2022-12-01_20h07.38.470,vts_reward_expectancy_bt,2022.2.4,Win32,60.27727547,Chrome,1536,864,,,,,0,708,,,,,,,,,,,,,,,,,160,S,star,1,1,,,,,,,,,,,,,,,,repeat,letter,lettRpt,k,0.1514,Hi,,,,,,3,,,,,,,,high,1,0,1,0,1,,,,,,,,,
293785,2022-12-01_20h07.38.470,vts_reward_expectancy_bt,2022.2.4,Win32,60.27727547,Chrome,1536,864,,,,,1,709,,,,,,,,,,,,,,,,,132,Y,hexagon,1,0,,,,,,,,,,,,,,,,repeat,letter,lettRpt,k,0.0007,Lo,,,,,,3,,,,,,,,high,2,0,2,0,1,,,,,,,,,
293785,2022-12-01_20h07.38.470,vts_reward_expectancy_bt,2022.2.4,Win32,60.27727547,Chrome,1536,864,,,,,10,719,,,,,,,,,,,,,,,,,167,D,triangle,1,0,,,,,,,,,,,,,,,,repeat,letter,lettRpt,j,0.0006,Hi,,,,,,3,,,,,,,,high,3,0,3,0,1,,,,,,,,,
293785,2022-12-01_20h07.38.470,vts_reward_expectancy_bt,2022.2.4,Win32,60.27727547,Chrome,1536,864,,,,,1,720,,,,,,,,,,,,,,,,,146,W,circle,1,0,,,,,,,,,,,,,,,,switch,number,numSwt,d,0.0176,Lo,,,,,,3,,,,,,,,high,4,0,4,0,1,,,,,,,,,
293785,2022-12-01_20h07.38.470,vts_reward_expectancy_bt,2022.2.4,Win32,60.27727547,Chrome,1536,864,,,,,0,720,,,,,,,,,,,,,,,,,139,U,star,0,0,,,,,,,,,,,,,,,,switch,letter,NA,j,0.3175,Lo,,,,,,3,,,,,,,,high,5,0,5,0,1,,,,,,,,,
293785,2022-12-01_20h07.38.470,vts_reward_expectancy_bt,2022.2.4,Win32,60.27727547,Chrome,1536,864,,,,,0,720,,,,,,,,,,,,,,,,,174,H,hexagon,0,1,,,,,,,,,,,,,,,,repeat,letter,NA,k,0.9728,Lo,,,,,,3,,,,,,,,high,6,0,6,0,1,,,,,,,,,
293785,2022-12-01_20h07.38.470,vts_reward_expectancy_bt,2022.2.4,Win32,60.27727547,Chrome,1536,864,,,,,0,720,,,,,,,,,,,,,,,,,125,F,triangle,1,1,,,,,,,,,,,,,,,,switch,number,numSwt,d,0.1558,Hi,,,,,,3,,,,,,,,high,7,0,7,0,1,,,,,,,,,
293785,2022-12-01_20h07.38.470,vts_reward_expectancy_bt,2022.2.4,Win32,60.27727547,Chrome,1536,864,,,,,10,730,,,,,,,,,,,,,,,,,181,B,circle,1,0,,,,,,,,,,,,,,,,switch,letter,lettSwt,j,0.0008,Lo,,,,,,3,,,,,,,,high,8,0,8,0,1,,,,,,,,,
293785,2022-12-01_20h07.38.470,vts_reward_expectancy_bt,2022.2.4,Win32,60.27727547,Chrome,1536,864,,,,,0,730,,,,,,,,,,,,,,,,,160,S,triangle,0,0,,,,,,,,,,,,,,,,repeat,letter,NA,j,0.167,Lo,,,,,,3,,,,,,,,high,9,0,9,0,1,,,,,,,,,
293785,2022-12-01_20h07.38.470,vts_reward_expectancy_bt,2022.2.4,Win32,60.27727547,Chrome,1536,864,,,,,0,730,,,,,,,,,,,,,,,,,132,Y,star,0,1,,,,,,,,,,,,,,,,repeat,letter,NA,j,2.7662,Lo,,,,,,3,,,,,,,,high,10,0,10,0,1,,,,,,,,,
293785,2022-12-01_20h07.38.470,vts_reward_expectancy_bt,2022.2.4,Win32,60.27727547,Chrome,1536,864,,,,,10,740,,,,,,,,,,,,,,,,,167,D,hexagon,1,1,,,,,,,,,,,,,,,,repeat,letter,lettRpt,j,0.0856,Lo,,,,,,3,,,,,,,,high,11,0,11,0,1,,,,,,,,,
293785,2022-12-01_20h07.38.470,vts_reward_expectancy_bt,2022.2.4,Win32,60.27727547,Chrome,1536,864,,,,,0,740,,,,,,,,,,,,,,,,,146,W,triangle,0,0,,,,,,,,,,,,,,,,repeat,letter,NA,j,0.0753,Lo,,,,,,3,,,,,,,,high,12,0,12,0,1,,,,,,,,,
293785,2022-12-01_20h07.38.470,vts_reward_expectancy_bt,2022.2.4,Win32,60.27727547,Chrome,1536,864,,,,,0,740,,,,,,,,,,,,,,,,,139,U,star,0,1,,,,,,,,,,,,,,,,switch,number,NA,f,0.0005,Lo,,,,,,3,,,,,,,,high,13,0,13,0,1,,,,,,,,,
293785,2022-12-01_20h07.38.470,vts_reward_expectancy_bt,2022.2.4,Win32,60.27727547,Chrome,1536,864,,,,,0,740,,,,,,,,,,,,,,,,,174,H,circle,0,1,,,,,,,,,,,,,,,,repeat,number,NA,d,0.0006,Lo,,,,,,3,,,,,,,,high,14,0,14,0,1,,,,,,,,,
293785,2022-12-01_20h07.38.470,vts_reward_expectancy_bt,2022.2.4,Win32,60.27727547,Chrome,1536,864,,,,,1,741,,,,,,,,,,,,,,,,,125,F,hexagon,1,1,,,,,,,,,,,,,,,,switch,letter,lettSwt,j,0.0408,Lo,,,,,,3,,,,,,,,high,15,0,15,0,1,,,,,,,,,
293785,2022-12-01_20h07.38.470,vts_reward_expectancy_bt,2022.2.4,Win32,60.27727547,Chrome,1536,864,,,,,0,741,,,,,,,,,,,,,,,,,146,F,hexagon,0,0,,,,,,,,,,,,,,,,switch,number,NA,f,0.0005,Lo,,,,,,3,,,,,,,,high,16,0,16,0,1,,,,,,,,,
