participant,date,expName,psychopyVersion,OS,frameRate,browser,xResolution,yResolution,key_resp.keys,key_resp.rt,training_resp.keys,training_resp.rt,points_trial,points_cumul,trainBlock,training.thisRepN,training.thisTrialN,training.thisN,training.thisIndex,training.ran,LTriangleOpac,LCircleOpac,LHexagonOpac,LStarOpac,RTriangleOpac,RCircleOpac,RHexagonOpac,RStarOpac,LShape_ID,RShape_ID,curr_topStim,curr_bottStim,curr_shape,acc,E1,target_resp_prac1.keys,target_resp_prac1.rt,pracBlock,task1_prac_trials.thisRepN,task1_prac_trials.thisTrialN,task1_prac_trials.thisN,task1_prac_trials.thisIndex,task1_prac_trials.ran,target_resp_prac2.keys,target_resp_prac2.rt,task2_praac_trials.thisRepN,task2_praac_trials.thisTrialN,task2_praac_trials.thisN,task2_praac_trials.thisIndex,task2_praac_trials.ran,alt,task,condition,target_resp.keys,target_resp.rt,rewCond,vts_practice_trials.thisRepN,vts_practice_trials.thisTrialN,vts_practice_trials.thisN,vts_practice_trials.thisIndex,vts_practice_trials.ran,blockNum,trials_norew.thisRepN,trials_norew.thisTrialN,trials_norew.thisN,trials_norew.thisIndex,trials_norew.ran,key_resp_2.keys,key_resp_2.rt,rewExpectancy,trials_rew.thisRepN,trials_rew.thisTrialN,trials_rew.thisN,trials_rew.thisIndex,trials_rew.ran,Q1,Q2,Q2_text,Q3,Q4,Q5_text,Q5,xRes,yRes
293857,2022-12-02_23h36.59.702,vts_reward_expectancy_bt,2022.2.4,MacIntel,60.0024001,Chrome,1440,900,,,,,,,,,,,,,,,,,,,,,,,,,,,,,,,,,,,,,,,,,,,,,,,,,,,,,,,,,,,,,,,,,,,,,,,,,,,,
293857,2022-12-02_23h36.59.702,vts_reward_expectancy_bt,2022.2.4,MacIntel,60.0024001,Chrome,1440,900,space,11.1156,,,,,,,,,,,,,,,,,,,,,,,,,,,,,,,,,,,,,,,,,,,,,,,,,,,,,,,,,,,,,,,,,,,,,,,,,,
293857,2022-12-02_23h36.59.702,vts_reward_expectancy_bt,2022.2.4,MacIntel,60.0024001,Chrome,1440,900,,,,,,,,,,,,,,,,,,,,,,,,,,,,,,,,,,,,,,,,,,,,,,,,,,,,,,,,,,,,,,,,,,,,,,,,,,,,
293857,2022-12-02_23h36.59.702,vts_reward_expectancy_bt,2022.2.4,MacIntel,60.0024001,Chrome,1440,900,,,a,5.1144,10,10,0,0,0,0,9,1,0,0,0,1,1,0,0,0,star,triangle,,,,,,,,,,,,,,,,,,,,,,,,,,,,,,,,,,,,,,,,,,,,,,,,,,,,,,
293857,2022-12-02_23h36.59.702,vts_reward_expectancy_bt,2022.2.4,MacIntel,60.0024001,Chrome,1440,900,,,l,5.9055,1,11,0,0,1,1,6,1,0,0,1,0,1,0,0,0,hexagon,triangle,,,,,,,,,,,,,,,,,,,,,,,,,,,,,,,,,,,,,,,,,,,,,,,,,,,,,,
293857,2022-12-02_23h36.59.702,vts_reward_expectancy_bt,2022.2.4,MacIntel,60.0024001,Chrome,1440,900,,,a,4.3599,1,12,0,0,2,2,10,1,0,0,0,1,0,1,0,0,star ,circle,,,,,,,,,,,,,,,,,,,,,,,,,,,,,,,,,,,,,,,,,,,,,,,,,,,,,,
293857,2022-12-02_23h36.59.702,vts_reward_expectancy_bt,2022.2.4,MacIntel,60.0024001,Chrome,1440,900,,,l,4.1038,1,13,0,0,3,3,11,1,0,0,0,1,0,0,1,0,star,hexagon,,,,,,,,,,,,,,,,,,,,,,,,,,,,,,,,,,,,,,,,,,,,,,,,,,,,,,
293857,2022-12-02_23h36.59.702,vts_reward_expectancy_bt,2022.2.4,MacIntel,60.0024001,Chrome,1440,900,,,l,1.4563,1,14,0,0,4,4,4,1,0,1,0,0,0,0,1,0,circle,hexagon,,,,,,,,,,,,,,,,,,,,,,,,,,,,,,,,,,,,,,,,,,,,,,,,,,,,,,
293857,2022-12-02_23h36.59.702,vts_reward_expectancy_bt,2022.2.4,MacIntel,60.0024001,Chrome,1440,900,,,a,1.8335,1,15,0,0,5,5,3,1,0,1,0,0,1,0,0,0,circle,triangle,,,,,,,,,,,,,,,,,,,,,,,,,,,,,,,,,,,,,,,,,,,,,,,,,,,,,,
293857,2022-12-02_23h36.59.702,vts_reward_expectancy_bt,2022.2.4,MacIntel,60.0024001,Chrome,1440,900,,,a,3.0392,10,25,0,0,6,6,5,1,0,1,0,0,0,0,0,1,circle,star,,,,,,,,,,,,,,,,,,,,,,,,,,,,,,,,,,,,,,,,,,,,,,,,,,,,,,
293857,2022-12-02_23h36.59.702,vts_reward_expectancy_bt,2022.2.4,MacIntel,60.0024001,Chrome,1440,900,,,a,1.5457,10,35,0,0,7,7,8,1,0,0,1,0,0,0,0,1,hexagon,star,,,,,,,,,,,,,,,,,,,,,,,,,,,,,,,,,,,,,,,,,,,,,,,,,,,,,,
293857,2022-12-02_23h36.59.702,vts_reward_expectancy_bt,2022.2.4,MacIntel,60.0024001,Chrome,1440,900,,,l,2.9698,10,45,0,0,8,8,0,1,1,0,0,0,0,1,0,0,triangle,circle,,,,,,,,,,,,,,,,,,,,,,,,,,,,,,,,,,,,,,,,,,,,,,,,,,,,,,
293857,2022-12-02_23h36.59.702,vts_reward_expectancy_bt,2022.2.4,MacIntel,60.0024001,Chrome,1440,900,,,a,1.2875,10,55,0,0,9,9,1,1,1,0,0,0,0,0,1,0,triangle,hexagon,,,,,,,,,,,,,,,,,,,,,,,,,,,,,,,,,,,,,,,,,,,,,,,,,,,,,,
293857,2022-12-02_23h36.59.702,vts_reward_expectancy_bt,2022.2.4,MacIntel,60.0024001,Chrome,1440,900,,,l,3.1264,10,65,0,0,10,10,7,1,0,0,1,0,0,1,0,0,hexagon,circle,,,,,,,,,,,,,,,,,,,,,,,,,,,,,,,,,,,,,,,,,,,,,,,,,,,,,,
293857,2022-12-02_23h36.59.702,vts_reward_expectancy_bt,2022.2.4,MacIntel,60.0024001,Chrome,1440,900,,,a,0.7765,1,66,0,0,11,11,2,1,1,0,0,0,0,0,0,1,triangle,star,,,,,,,,,,,,,,,,,,,,,,,,,,,,,,,,,,,,,,,,,,,,,,,,,,,,,,
293857,2022-12-02_23h36.59.702,vts_reward_expectancy_bt,2022.2.4,MacIntel,60.0024001,Chrome,1440,900,,,l,6.408,1,67,0,1,0,12,6,1,0,0,1,0,1,0,0,0,hexagon,triangle,,,,,,,,,,,,,,,,,,,,,,,,,,,,,,,,,,,,,,,,,,,,,,,,,,,,,,
293857,2022-12-02_23h36.59.702,vts_reward_expectancy_bt,2022.2.4,MacIntel,60.0024001,Chrome,1440,900,,,a,4.2965,1,68,0,1,1,13,8,1,0,0,1,0,0,0,0,1,hexagon,star,,,,,,,,,,,,,,,,,,,,,,,,,,,,,,,,,,,,,,,,,,,,,,,,,,,,,,
293857,2022-12-02_23h36.59.702,vts_reward_expectancy_bt,2022.2.4,MacIntel,60.0024001,Chrome,1440,900,,,l,1.3578,10,78,0,1,2,14,0,1,1,0,0,0,0,1,0,0,triangle,circle,,,,,,,,,,,,,,,,,,,,,,,,,,,,,,,,,,,,,,,,,,,,,,,,,,,,,,
293857,2022-12-02_23h36.59.702,vts_reward_expectancy_bt,2022.2.4,MacIntel,60.0024001,Chrome,1440,900,,,l,0.7881,10,88,0,1,3,15,4,1,0,1,0,0,0,0,1,0,circle,hexagon,,,,,,,,,,,,,,,,,,,,,,,,,,,,,,,,,,,,,,,,,,,,,,,,,,,,,,
293857,2022-12-02_23h36.59.702,vts_reward_expectancy_bt,2022.2.4,MacIntel,60.0024001,Chrome,1440,900,,,a,2.1367,10,98,0,1,4,16,3,1,0,1,0,0,1,0,0,0,circle,triangle,,,,,,,,,,,,,,,,,,,,,,,,,,,,,,,,,,,,,,,,,,,,,,,,,,,,,,
293857,2022-12-02_23h36.59.702,vts_reward_expectancy_bt,2022.2.4,MacIntel,60.0024001,Chrome,1440,900,,,l,1.5943,1,99,0,1,5,17,1,1,1,0,0,0,0,0,1,0,triangle,hexagon,,,,,,,,,,,,,,,,,,,,,,,,,,,,,,,,,,,,,,,,,,,,,,,,,,,,,,
293857,2022-12-02_23h36.59.702,vts_reward_expectancy_bt,2022.2.4,MacIntel,60.0024001,Chrome,1440,900,,,a,0.9718,10,109,0,1,6,18,7,1,0,0,1,0,0,1,0,0,hexagon,circle,,,,,,,,,,,,,,,,,,,,,,,,,,,,,,,,,,,,,,,,,,,,,,,,,,,,,,
293857,2022-12-02_23h36.59.702,vts_reward_expectancy_bt,2022.2.4,MacIntel,60.0024001,Chrome,1440,900,,,l,0.584,1,110,0,1,7,19,11,1,0,0,0,1,0,0,1,0,star,hexagon,,,,,,,,,,,,,,,,,,,,,,,,,,,,,,,,,,,,,,,,,,,,,,,,,,,,,,
293857,2022-12-02_23h36.59.702,vts_reward_expectancy_bt,2022.2.4,MacIntel,60.0024001,Chrome,1440,900,,,a,1.399,1,111,0,1,8,20,10,1,0,0,0,1,0,1,0,0,star ,circle,,,,,,,,,,,,,,,,,,,,,,,,,,,,,,,,,,,,,,,,,,,,,,,,,,,,,,
293857,2022-12-02_23h36.59.702,vts_reward_expectancy_bt,2022.2.4,MacIntel,60.0024001,Chrome,1440,900,,,a,3.1022,1,112,0,1,9,21,5,1,0,1,0,0,0,0,0,1,circle,star,,,,,,,,,,,,,,,,,,,,,,,,,,,,,,,,,,,,,,,,,,,,,,,,,,,,,,
293857,2022-12-02_23h36.59.702,vts_reward_expectancy_bt,2022.2.4,MacIntel,60.0024001,Chrome,1440,900,,,l,1.2389,10,122,0,1,10,22,9,1,0,0,0,1,1,0,0,0,star,triangle,,,,,,,,,,,,,,,,,,,,,,,,,,,,,,,,,,,,,,,,,,,,,,,,,,,,,,
293857,2022-12-02_23h36.59.702,vts_reward_expectancy_bt,2022.2.4,MacIntel,60.0024001,Chrome,1440,900,,,a,1.3987,10,132,0,1,11,23,2,1,1,0,0,0,0,0,0,1,triangle,star,,,,,,,,,,,,,,,,,,,,,,,,,,,,,,,,,,,,,,,,,,,,,,,,,,,,,,
293857,2022-12-02_23h36.59.702,vts_reward_expectancy_bt,2022.2.4,MacIntel,60.0024001,Chrome,1440,900,,,l,2.6055,1,133,0,2,0,24,1,1,1,0,0,0,0,0,1,0,triangle,hexagon,,,,,,,,,,,,,,,,,,,,,,,,,,,,,,,,,,,,,,,,,,,,,,,,,,,,,,
293857,2022-12-02_23h36.59.702,vts_reward_expectancy_bt,2022.2.4,MacIntel,60.0024001,Chrome,1440,900,,,a,0.6211,1,134,0,2,1,25,0,1,1,0,0,0,0,1,0,0,triangle,circle,,,,,,,,,,,,,,,,,,,,,,,,,,,,,,,,,,,,,,,,,,,,,,,,,,,,,,
293857,2022-12-02_23h36.59.702,vts_reward_expectancy_bt,2022.2.4,MacIntel,60.0024001,Chrome,1440,900,,,l,0.9626,10,144,0,2,2,26,8,1,0,0,1,0,0,0,0,1,hexagon,star,,,,,,,,,,,,,,,,,,,,,,,,,,,,,,,,,,,,,,,,,,,,,,,,,,,,,,
293857,2022-12-02_23h36.59.702,vts_reward_expectancy_bt,2022.2.4,MacIntel,60.0024001,Chrome,1440,900,,,a,1.6893,10,154,0,2,3,27,11,1,0,0,0,1,0,0,1,0,star,hexagon,,,,,,,,,,,,,,,,,,,,,,,,,,,,,,,,,,,,,,,,,,,,,,,,,,,,,,
293857,2022-12-02_23h36.59.702,vts_reward_expectancy_bt,2022.2.4,MacIntel,60.0024001,Chrome,1440,900,,,l,2.2454,1,155,0,2,4,28,6,1,0,0,1,0,1,0,0,0,hexagon,triangle,,,,,,,,,,,,,,,,,,,,,,,,,,,,,,,,,,,,,,,,,,,,,,,,,,,,,,
293857,2022-12-02_23h36.59.702,vts_reward_expectancy_bt,2022.2.4,MacIntel,60.0024001,Chrome,1440,900,,,a,1.789,10,165,0,2,5,29,9,1,0,0,0,1,1,0,0,0,star,triangle,,,,,,,,,,,,,,,,,,,,,,,,,,,,,,,,,,,,,,,,,,,,,,,,,,,,,,
293857,2022-12-02_23h36.59.702,vts_reward_expectancy_bt,2022.2.4,MacIntel,60.0024001,Chrome,1440,900,,,l,0.9954,10,175,0,2,6,30,2,1,1,0,0,0,0,0,0,1,triangle,star,,,,,,,,,,,,,,,,,,,,,,,,,,,,,,,,,,,,,,,,,,,,,,,,,,,,,,
293857,2022-12-02_23h36.59.702,vts_reward_expectancy_bt,2022.2.4,MacIntel,60.0024001,Chrome,1440,900,,,l,0.8411,10,185,0,2,7,31,5,1,0,1,0,0,0,0,0,1,circle,star,,,,,,,,,,,,,,,,,,,,,,,,,,,,,,,,,,,,,,,,,,,,,,,,,,,,,,
293857,2022-12-02_23h36.59.702,vts_reward_expectancy_bt,2022.2.4,MacIntel,60.0024001,Chrome,1440,900,,,a,1.149,10,195,0,2,8,32,7,1,0,0,1,0,0,1,0,0,hexagon,circle,,,,,,,,,,,,,,,,,,,,,,,,,,,,,,,,,,,,,,,,,,,,,,,,,,,,,,
293857,2022-12-02_23h36.59.702,vts_reward_expectancy_bt,2022.2.4,MacIntel,60.0024001,Chrome,1440,900,,,a,2.3416,10,205,0,2,9,33,10,1,0,0,0,1,0,1,0,0,star ,circle,,,,,,,,,,,,,,,,,,,,,,,,,,,,,,,,,,,,,,,,,,,,,,,,,,,,,,
293857,2022-12-02_23h36.59.702,vts_reward_expectancy_bt,2022.2.4,MacIntel,60.0024001,Chrome,1440,900,,,l,1.573,10,215,0,2,10,34,4,1,0,1,0,0,0,0,1,0,circle,hexagon,,,,,,,,,,,,,,,,,,,,,,,,,,,,,,,,,,,,,,,,,,,,,,,,,,,,,,
293857,2022-12-02_23h36.59.702,vts_reward_expectancy_bt,2022.2.4,MacIntel,60.0024001,Chrome,1440,900,,,a,1.3417,10,225,0,2,11,35,3,1,0,1,0,0,1,0,0,0,circle,triangle,,,,,,,,,,,,,,,,,,,,,,,,,,,,,,,,,,,,,,,,,,,,,,,,,,,,,,
293857,2022-12-02_23h36.59.702,vts_reward_expectancy_bt,2022.2.4,MacIntel,60.0024001,Chrome,1440,900,,,a,3.5911,1,226,1,0,0,0,7,1,0,0,1,0,0,1,0,0,hexagon,circle,,,,,,,,,,,,,,,,,,,,,,,,,,,,,,,,,,,,,,,,,,,,,,,,,,,,,,
293857,2022-12-02_23h36.59.702,vts_reward_expectancy_bt,2022.2.4,MacIntel,60.0024001,Chrome,1440,900,,,a,1.2075,1,227,1,0,1,1,10,1,0,0,0,1,0,1,0,0,star ,circle,,,,,,,,,,,,,,,,,,,,,,,,,,,,,,,,,,,,,,,,,,,,,,,,,,,,,,
293857,2022-12-02_23h36.59.702,vts_reward_expectancy_bt,2022.2.4,MacIntel,60.0024001,Chrome,1440,900,,,l,1.0722,1,228,1,0,2,2,1,1,1,0,0,0,0,0,1,0,triangle,hexagon,,,,,,,,,,,,,,,,,,,,,,,,,,,,,,,,,,,,,,,,,,,,,,,,,,,,,,
293857,2022-12-02_23h36.59.702,vts_reward_expectancy_bt,2022.2.4,MacIntel,60.0024001,Chrome,1440,900,,,a,0.8011,10,238,1,0,3,3,9,1,0,0,0,1,1,0,0,0,star,triangle,,,,,,,,,,,,,,,,,,,,,,,,,,,,,,,,,,,,,,,,,,,,,,,,,,,,,,
293857,2022-12-02_23h36.59.702,vts_reward_expectancy_bt,2022.2.4,MacIntel,60.0024001,Chrome,1440,900,,,l,0.9233,10,248,1,0,4,4,2,1,1,0,0,0,0,0,0,1,triangle,star,,,,,,,,,,,,,,,,,,,,,,,,,,,,,,,,,,,,,,,,,,,,,,,,,,,,,,
293857,2022-12-02_23h36.59.702,vts_reward_expectancy_bt,2022.2.4,MacIntel,60.0024001,Chrome,1440,900,,,a,1.6563,10,258,1,0,5,5,5,1,0,1,0,0,0,0,0,1,circle,star,,,,,,,,,,,,,,,,,,,,,,,,,,,,,,,,,,,,,,,,,,,,,,,,,,,,,,
293857,2022-12-02_23h36.59.702,vts_reward_expectancy_bt,2022.2.4,MacIntel,60.0024001,Chrome,1440,900,,,a,1.3568,1,259,1,0,6,6,8,1,0,0,1,0,0,0,0,1,hexagon,star,,,,,,,,,,,,,,,,,,,,,,,,,,,,,,,,,,,,,,,,,,,,,,,,,,,,,,
293857,2022-12-02_23h36.59.702,vts_reward_expectancy_bt,2022.2.4,MacIntel,60.0024001,Chrome,1440,900,,,l,1.0089,10,269,1,0,7,7,4,1,0,1,0,0,0,0,1,0,circle,hexagon,,,,,,,,,,,,,,,,,,,,,,,,,,,,,,,,,,,,,,,,,,,,,,,,,,,,,,
293857,2022-12-02_23h36.59.702,vts_reward_expectancy_bt,2022.2.4,MacIntel,60.0024001,Chrome,1440,900,,,a,1.4214,1,270,1,0,8,8,6,1,0,0,1,0,1,0,0,0,hexagon,triangle,,,,,,,,,,,,,,,,,,,,,,,,,,,,,,,,,,,,,,,,,,,,,,,,,,,,,,
293857,2022-12-02_23h36.59.702,vts_reward_expectancy_bt,2022.2.4,MacIntel,60.0024001,Chrome,1440,900,,,l,1.6584,1,271,1,0,9,9,11,1,0,0,0,1,0,0,1,0,star,hexagon,,,,,,,,,,,,,,,,,,,,,,,,,,,,,,,,,,,,,,,,,,,,,,,,,,,,,,
293857,2022-12-02_23h36.59.702,vts_reward_expectancy_bt,2022.2.4,MacIntel,60.0024001,Chrome,1440,900,,,a,1.0393,1,272,1,0,10,10,0,1,1,0,0,0,0,1,0,0,triangle,circle,,,,,,,,,,,,,,,,,,,,,,,,,,,,,,,,,,,,,,,,,,,,,,,,,,,,,,
293857,2022-12-02_23h36.59.702,vts_reward_expectancy_bt,2022.2.4,MacIntel,60.0024001,Chrome,1440,900,,,l,1.1852,1,273,1,0,11,11,3,1,0,1,0,0,1,0,0,0,circle,triangle,,,,,,,,,,,,,,,,,,,,,,,,,,,,,,,,,,,,,,,,,,,,,,,,,,,,,,
293857,2022-12-02_23h36.59.702,vts_reward_expectancy_bt,2022.2.4,MacIntel,60.0024001,Chrome,1440,900,,,a,1.738,1,274,1,1,0,12,3,1,0,1,0,0,1,0,0,0,circle,triangle,,,,,,,,,,,,,,,,,,,,,,,,,,,,,,,,,,,,,,,,,,,,,,,,,,,,,,
293857,2022-12-02_23h36.59.702,vts_reward_expectancy_bt,2022.2.4,MacIntel,60.0024001,Chrome,1440,900,,,a,1.6883,1,275,1,1,1,13,0,1,1,0,0,0,0,1,0,0,triangle,circle,,,,,,,,,,,,,,,,,,,,,,,,,,,,,,,,,,,,,,,,,,,,,,,,,,,,,,
293857,2022-12-02_23h36.59.702,vts_reward_expectancy_bt,2022.2.4,MacIntel,60.0024001,Chrome,1440,900,,,a,1.8741,10,285,1,1,2,14,11,1,0,0,0,1,0,0,1,0,star,hexagon,,,,,,,,,,,,,,,,,,,,,,,,,,,,,,,,,,,,,,,,,,,,,,,,,,,,,,
293857,2022-12-02_23h36.59.702,vts_reward_expectancy_bt,2022.2.4,MacIntel,60.0024001,Chrome,1440,900,,,l,1.8251,1,286,1,1,3,15,6,1,0,0,1,0,1,0,0,0,hexagon,triangle,,,,,,,,,,,,,,,,,,,,,,,,,,,,,,,,,,,,,,,,,,,,,,,,,,,,,,
293857,2022-12-02_23h36.59.702,vts_reward_expectancy_bt,2022.2.4,MacIntel,60.0024001,Chrome,1440,900,,,l,1.1243,10,296,1,1,4,16,5,1,0,1,0,0,0,0,0,1,circle,star,,,,,,,,,,,,,,,,,,,,,,,,,,,,,,,,,,,,,,,,,,,,,,,,,,,,,,
293857,2022-12-02_23h36.59.702,vts_reward_expectancy_bt,2022.2.4,MacIntel,60.0024001,Chrome,1440,900,,,a,1.1253,1,297,1,1,5,17,9,1,0,0,0,1,1,0,0,0,star,triangle,,,,,,,,,,,,,,,,,,,,,,,,,,,,,,,,,,,,,,,,,,,,,,,,,,,,,,
293857,2022-12-02_23h36.59.702,vts_reward_expectancy_bt,2022.2.4,MacIntel,60.0024001,Chrome,1440,900,,,l,1.3101,10,307,1,1,6,18,8,1,0,0,1,0,0,0,0,1,hexagon,star,,,,,,,,,,,,,,,,,,,,,,,,,,,,,,,,,,,,,,,,,,,,,,,,,,,,,,
293857,2022-12-02_23h36.59.702,vts_reward_expectancy_bt,2022.2.4,MacIntel,60.0024001,Chrome,1440,900,,,a,1.5079,1,308,1,1,7,19,1,1,1,0,0,0,0,0,1,0,triangle,hexagon,,,,,,,,,,,,,,,,,,,,,,,,,,,,,,,,,,,,,,,,,,,,,,,,,,,,,,
293857,2022-12-02_23h36.59.702,vts_reward_expectancy_bt,2022.2.4,MacIntel,60.0024001,Chrome,1440,900,,,l,1.1074,1,309,1,1,8,20,2,1,1,0,0,0,0,0,0,1,triangle,star,,,,,,,,,,,,,,,,,,,,,,,,,,,,,,,,,,,,,,,,,,,,,,,,,,,,,,
293857,2022-12-02_23h36.59.702,vts_reward_expectancy_bt,2022.2.4,MacIntel,60.0024001,Chrome,1440,900,,,a,1.4892,10,319,1,1,9,21,4,1,0,1,0,0,0,0,1,0,circle,hexagon,,,,,,,,,,,,,,,,,,,,,,,,,,,,,,,,,,,,,,,,,,,,,,,,,,,,,,
293857,2022-12-02_23h36.59.702,vts_reward_expectancy_bt,2022.2.4,MacIntel,60.0024001,Chrome,1440,900,,,l,1.1566,10,329,1,1,10,22,7,1,0,0,1,0,0,1,0,0,hexagon,circle,,,,,,,,,,,,,,,,,,,,,,,,,,,,,,,,,,,,,,,,,,,,,,,,,,,,,,
293857,2022-12-02_23h36.59.702,vts_reward_expectancy_bt,2022.2.4,MacIntel,60.0024001,Chrome,1440,900,,,a,1.4306,10,339,1,1,11,23,10,1,0,0,0,1,0,1,0,0,star ,circle,,,,,,,,,,,,,,,,,,,,,,,,,,,,,,,,,,,,,,,,,,,,,,,,,,,,,,
293857,2022-12-02_23h36.59.702,vts_reward_expectancy_bt,2022.2.4,MacIntel,60.0024001,Chrome,1440,900,,,l,1.7785,1,340,1,2,0,24,1,1,1,0,0,0,0,0,1,0,triangle,hexagon,,,,,,,,,,,,,,,,,,,,,,,,,,,,,,,,,,,,,,,,,,,,,,,,,,,,,,
293857,2022-12-02_23h36.59.702,vts_reward_expectancy_bt,2022.2.4,MacIntel,60.0024001,Chrome,1440,900,,,l,1.3058,10,350,1,2,1,25,5,1,0,1,0,0,0,0,0,1,circle,star,,,,,,,,,,,,,,,,,,,,,,,,,,,,,,,,,,,,,,,,,,,,,,,,,,,,,,
293857,2022-12-02_23h36.59.702,vts_reward_expectancy_bt,2022.2.4,MacIntel,60.0024001,Chrome,1440,900,,,a,1.5428,10,360,1,2,2,26,9,1,0,0,0,1,1,0,0,0,star,triangle,,,,,,,,,,,,,,,,,,,,,,,,,,,,,,,,,,,,,,,,,,,,,,,,,,,,,,
293857,2022-12-02_23h36.59.702,vts_reward_expectancy_bt,2022.2.4,MacIntel,60.0024001,Chrome,1440,900,,,a,1.6133,1,361,1,2,3,27,7,1,0,0,1,0,0,1,0,0,hexagon,circle,,,,,,,,,,,,,,,,,,,,,,,,,,,,,,,,,,,,,,,,,,,,,,,,,,,,,,
293857,2022-12-02_23h36.59.702,vts_reward_expectancy_bt,2022.2.4,MacIntel,60.0024001,Chrome,1440,900,,,l,0.8219,10,371,1,2,4,28,8,1,0,0,1,0,0,0,0,1,hexagon,star,,,,,,,,,,,,,,,,,,,,,,,,,,,,,,,,,,,,,,,,,,,,,,,,,,,,,,
293857,2022-12-02_23h36.59.702,vts_reward_expectancy_bt,2022.2.4,MacIntel,60.0024001,Chrome,1440,900,,,l,1.2346,1,372,1,2,5,29,11,1,0,0,0,1,0,0,1,0,star,hexagon,,,,,,,,,,,,,,,,,,,,,,,,,,,,,,,,,,,,,,,,,,,,,,,,,,,,,,
293857,2022-12-02_23h36.59.702,vts_reward_expectancy_bt,2022.2.4,MacIntel,60.0024001,Chrome,1440,900,,,l,1.6067,10,382,1,2,6,30,2,1,1,0,0,0,0,0,0,1,triangle,star,,,,,,,,,,,,,,,,,,,,,,,,,,,,,,,,,,,,,,,,,,,,,,,,,,,,,,
293857,2022-12-02_23h36.59.702,vts_reward_expectancy_bt,2022.2.4,MacIntel,60.0024001,Chrome,1440,900,,,l,0.9716,10,392,1,2,7,31,10,1,0,0,0,1,0,1,0,0,star ,circle,,,,,,,,,,,,,,,,,,,,,,,,,,,,,,,,,,,,,,,,,,,,,,,,,,,,,,
293857,2022-12-02_23h36.59.702,vts_reward_expectancy_bt,2022.2.4,MacIntel,60.0024001,Chrome,1440,900,,,a,1.4312,10,402,1,2,8,32,4,1,0,1,0,0,0,0,1,0,circle,hexagon,,,,,,,,,,,,,,,,,,,,,,,,,,,,,,,,,,,,,,,,,,,,,,,,,,,,,,
293857,2022-12-02_23h36.59.702,vts_reward_expectancy_bt,2022.2.4,MacIntel,60.0024001,Chrome,1440,900,,,a,2.1599,10,412,1,2,9,33,3,1,0,1,0,0,1,0,0,0,circle,triangle,,,,,,,,,,,,,,,,,,,,,,,,,,,,,,,,,,,,,,,,,,,,,,,,,,,,,,
293857,2022-12-02_23h36.59.702,vts_reward_expectancy_bt,2022.2.4,MacIntel,60.0024001,Chrome,1440,900,,,a,1.1764,1,413,1,2,10,34,6,1,0,0,1,0,1,0,0,0,hexagon,triangle,,,,,,,,,,,,,,,,,,,,,,,,,,,,,,,,,,,,,,,,,,,,,,,,,,,,,,
293857,2022-12-02_23h36.59.702,vts_reward_expectancy_bt,2022.2.4,MacIntel,60.0024001,Chrome,1440,900,,,l,0.9545,10,423,1,2,11,35,0,1,1,0,0,0,0,1,0,0,triangle,circle,,,,,,,,,,,,,,,,,,,,,,,,,,,,,,,,,,,,,,,,,,,,,,,,,,,,,,
293857,2022-12-02_23h36.59.702,vts_reward_expectancy_bt,2022.2.4,MacIntel,60.0024001,Chrome,1440,900,,,l,2.6977,10,433,2,0,0,0,7,1,0,0,1,0,0,1,0,0,hexagon,circle,,,,,,,,,,,,,,,,,,,,,,,,,,,,,,,,,,,,,,,,,,,,,,,,,,,,,,
293857,2022-12-02_23h36.59.702,vts_reward_expectancy_bt,2022.2.4,MacIntel,60.0024001,Chrome,1440,900,,,l,1.5613,10,443,2,0,1,1,8,1,0,0,1,0,0,0,0,1,hexagon,star,,,,,,,,,,,,,,,,,,,,,,,,,,,,,,,,,,,,,,,,,,,,,,,,,,,,,,
293857,2022-12-02_23h36.59.702,vts_reward_expectancy_bt,2022.2.4,MacIntel,60.0024001,Chrome,1440,900,,,a,1.1243,10,453,2,0,2,2,11,1,0,0,0,1,0,0,1,0,star,hexagon,,,,,,,,,,,,,,,,,,,,,,,,,,,,,,,,,,,,,,,,,,,,,,,,,,,,,,
293857,2022-12-02_23h36.59.702,vts_reward_expectancy_bt,2022.2.4,MacIntel,60.0024001,Chrome,1440,900,,,a,2.2752,1,454,2,0,3,3,6,1,0,0,1,0,1,0,0,0,hexagon,triangle,,,,,,,,,,,,,,,,,,,,,,,,,,,,,,,,,,,,,,,,,,,,,,,,,,,,,,
293857,2022-12-02_23h36.59.702,vts_reward_expectancy_bt,2022.2.4,MacIntel,60.0024001,Chrome,1440,900,,,a,1.2903,10,464,2,0,4,4,9,1,0,0,0,1,1,0,0,0,star,triangle,,,,,,,,,,,,,,,,,,,,,,,,,,,,,,,,,,,,,,,,,,,,,,,,,,,,,,
293857,2022-12-02_23h36.59.702,vts_reward_expectancy_bt,2022.2.4,MacIntel,60.0024001,Chrome,1440,900,,,l,1.5482,1,465,2,0,5,5,2,1,1,0,0,0,0,0,0,1,triangle,star,,,,,,,,,,,,,,,,,,,,,,,,,,,,,,,,,,,,,,,,,,,,,,,,,,,,,,
293857,2022-12-02_23h36.59.702,vts_reward_expectancy_bt,2022.2.4,MacIntel,60.0024001,Chrome,1440,900,,,a,1.7097,10,475,2,0,6,6,3,1,0,1,0,0,1,0,0,0,circle,triangle,,,,,,,,,,,,,,,,,,,,,,,,,,,,,,,,,,,,,,,,,,,,,,,,,,,,,,
293857,2022-12-02_23h36.59.702,vts_reward_expectancy_bt,2022.2.4,MacIntel,60.0024001,Chrome,1440,900,,,l,1.0078,10,485,2,0,7,7,10,1,0,0,0,1,0,1,0,0,star ,circle,,,,,,,,,,,,,,,,,,,,,,,,,,,,,,,,,,,,,,,,,,,,,,,,,,,,,,
293857,2022-12-02_23h36.59.702,vts_reward_expectancy_bt,2022.2.4,MacIntel,60.0024001,Chrome,1440,900,,,l,1.7019,1,486,2,0,8,8,1,1,1,0,0,0,0,0,1,0,triangle,hexagon,,,,,,,,,,,,,,,,,,,,,,,,,,,,,,,,,,,,,,,,,,,,,,,,,,,,,,
293857,2022-12-02_23h36.59.702,vts_reward_expectancy_bt,2022.2.4,MacIntel,60.0024001,Chrome,1440,900,,,a,1.0104,10,496,2,0,9,9,4,1,0,1,0,0,0,0,1,0,circle,hexagon,,,,,,,,,,,,,,,,,,,,,,,,,,,,,,,,,,,,,,,,,,,,,,,,,,,,,,
293857,2022-12-02_23h36.59.702,vts_reward_expectancy_bt,2022.2.4,MacIntel,60.0024001,Chrome,1440,900,,,a,1.1579,1,497,2,0,10,10,0,1,1,0,0,0,0,1,0,0,triangle,circle,,,,,,,,,,,,,,,,,,,,,,,,,,,,,,,,,,,,,,,,,,,,,,,,,,,,,,
293857,2022-12-02_23h36.59.702,vts_reward_expectancy_bt,2022.2.4,MacIntel,60.0024001,Chrome,1440,900,,,l,0.8909,10,507,2,0,11,11,5,1,0,1,0,0,0,0,0,1,circle,star,,,,,,,,,,,,,,,,,,,,,,,,,,,,,,,,,,,,,,,,,,,,,,,,,,,,,,
293857,2022-12-02_23h36.59.702,vts_reward_expectancy_bt,2022.2.4,MacIntel,60.0024001,Chrome,1440,900,,,l,2.2391,10,517,2,1,0,12,1,1,1,0,0,0,0,0,1,0,triangle,hexagon,,,,,,,,,,,,,,,,,,,,,,,,,,,,,,,,,,,,,,,,,,,,,,,,,,,,,,
293857,2022-12-02_23h36.59.702,vts_reward_expectancy_bt,2022.2.4,MacIntel,60.0024001,Chrome,1440,900,,,l,1.2951,10,527,2,1,1,13,3,1,0,1,0,0,1,0,0,0,circle,triangle,,,,,,,,,,,,,,,,,,,,,,,,,,,,,,,,,,,,,,,,,,,,,,,,,,,,,,
293857,2022-12-02_23h36.59.702,vts_reward_expectancy_bt,2022.2.4,MacIntel,60.0024001,Chrome,1440,900,,,a,1.0333,10,537,2,1,2,14,7,1,0,0,1,0,0,1,0,0,hexagon,circle,,,,,,,,,,,,,,,,,,,,,,,,,,,,,,,,,,,,,,,,,,,,,,,,,,,,,,
293857,2022-12-02_23h36.59.702,vts_reward_expectancy_bt,2022.2.4,MacIntel,60.0024001,Chrome,1440,900,,,a,1.5111,10,547,2,1,3,15,10,1,0,0,0,1,0,1,0,0,star ,circle,,,,,,,,,,,,,,,,,,,,,,,,,,,,,,,,,,,,,,,,,,,,,,,,,,,,,,
293857,2022-12-02_23h36.59.702,vts_reward_expectancy_bt,2022.2.4,MacIntel,60.0024001,Chrome,1440,900,,,l,1.3572,10,557,2,1,4,16,2,1,1,0,0,0,0,0,0,1,triangle,star,,,,,,,,,,,,,,,,,,,,,,,,,,,,,,,,,,,,,,,,,,,,,,,,,,,,,,
293857,2022-12-02_23h36.59.702,vts_reward_expectancy_bt,2022.2.4,MacIntel,60.0024001,Chrome,1440,900,,,l,1.1002,1,558,2,1,5,17,4,1,0,1,0,0,0,0,1,0,circle,hexagon,,,,,,,,,,,,,,,,,,,,,,,,,,,,,,,,,,,,,,,,,,,,,,,,,,,,,,
293857,2022-12-02_23h36.59.702,vts_reward_expectancy_bt,2022.2.4,MacIntel,60.0024001,Chrome,1440,900,,,a,0.7109,10,568,2,1,6,18,11,1,0,0,0,1,0,0,1,0,star,hexagon,,,,,,,,,,,,,,,,,,,,,,,,,,,,,,,,,,,,,,,,,,,,,,,,,,,,,,
293857,2022-12-02_23h36.59.702,vts_reward_expectancy_bt,2022.2.4,MacIntel,60.0024001,Chrome,1440,900,,,a,1.5677,10,578,2,1,7,19,9,1,0,0,0,1,1,0,0,0,star,triangle,,,,,,,,,,,,,,,,,,,,,,,,,,,,,,,,,,,,,,,,,,,,,,,,,,,,,,
293857,2022-12-02_23h36.59.702,vts_reward_expectancy_bt,2022.2.4,MacIntel,60.0024001,Chrome,1440,900,,,l,0.9103,10,588,2,1,8,20,8,1,0,0,1,0,0,0,0,1,hexagon,star,,,,,,,,,,,,,,,,,,,,,,,,,,,,,,,,,,,,,,,,,,,,,,,,,,,,,,
293857,2022-12-02_23h36.59.702,vts_reward_expectancy_bt,2022.2.4,MacIntel,60.0024001,Chrome,1440,900,,,a,2.0238,1,589,2,1,9,21,0,1,1,0,0,0,0,1,0,0,triangle,circle,,,,,,,,,,,,,,,,,,,,,,,,,,,,,,,,,,,,,,,,,,,,,,,,,,,,,,
293857,2022-12-02_23h36.59.702,vts_reward_expectancy_bt,2022.2.4,MacIntel,60.0024001,Chrome,1440,900,,,l,0.9939,10,599,2,1,10,22,5,1,0,1,0,0,0,0,0,1,circle,star,,,,,,,,,,,,,,,,,,,,,,,,,,,,,,,,,,,,,,,,,,,,,,,,,,,,,,
293857,2022-12-02_23h36.59.702,vts_reward_expectancy_bt,2022.2.4,MacIntel,60.0024001,Chrome,1440,900,,,l,1.5841,1,600,2,1,11,23,6,1,0,0,1,0,1,0,0,0,hexagon,triangle,,,,,,,,,,,,,,,,,,,,,,,,,,,,,,,,,,,,,,,,,,,,,,,,,,,,,,
293857,2022-12-02_23h36.59.702,vts_reward_expectancy_bt,2022.2.4,MacIntel,60.0024001,Chrome,1440,900,,,l,0.7029,1,601,2,2,0,24,5,1,0,1,0,0,0,0,0,1,circle,star,,,,,,,,,,,,,,,,,,,,,,,,,,,,,,,,,,,,,,,,,,,,,,,,,,,,,,
293857,2022-12-02_23h36.59.702,vts_reward_expectancy_bt,2022.2.4,MacIntel,60.0024001,Chrome,1440,900,,,a,1.8854,10,611,2,2,1,25,4,1,0,1,0,0,0,0,1,0,circle,hexagon,,,,,,,,,,,,,,,,,,,,,,,,,,,,,,,,,,,,,,,,,,,,,,,,,,,,,,
293857,2022-12-02_23h36.59.702,vts_reward_expectancy_bt,2022.2.4,MacIntel,60.0024001,Chrome,1440,900,,,a,1.2223,1,612,2,2,2,26,6,1,0,0,1,0,1,0,0,0,hexagon,triangle,,,,,,,,,,,,,,,,,,,,,,,,,,,,,,,,,,,,,,,,,,,,,,,,,,,,,,
293857,2022-12-02_23h36.59.702,vts_reward_expectancy_bt,2022.2.4,MacIntel,60.0024001,Chrome,1440,900,,,a,1.324,1,613,2,2,3,27,11,1,0,0,0,1,0,0,1,0,star,hexagon,,,,,,,,,,,,,,,,,,,,,,,,,,,,,,,,,,,,,,,,,,,,,,,,,,,,,,
293857,2022-12-02_23h36.59.702,vts_reward_expectancy_bt,2022.2.4,MacIntel,60.0024001,Chrome,1440,900,,,l,1.1332,1,614,2,2,4,28,1,1,1,0,0,0,0,0,1,0,triangle,hexagon,,,,,,,,,,,,,,,,,,,,,,,,,,,,,,,,,,,,,,,,,,,,,,,,,,,,,,
293857,2022-12-02_23h36.59.702,vts_reward_expectancy_bt,2022.2.4,MacIntel,60.0024001,Chrome,1440,900,,,a,1.006,1,615,2,2,5,29,7,1,0,0,1,0,0,1,0,0,hexagon,circle,,,,,,,,,,,,,,,,,,,,,,,,,,,,,,,,,,,,,,,,,,,,,,,,,,,,,,
293857,2022-12-02_23h36.59.702,vts_reward_expectancy_bt,2022.2.4,MacIntel,60.0024001,Chrome,1440,900,,,l,0.6405,1,616,2,2,6,30,8,1,0,0,1,0,0,0,0,1,hexagon,star,,,,,,,,,,,,,,,,,,,,,,,,,,,,,,,,,,,,,,,,,,,,,,,,,,,,,,
293857,2022-12-02_23h36.59.702,vts_reward_expectancy_bt,2022.2.4,MacIntel,60.0024001,Chrome,1440,900,,,a,1.3168,10,626,2,2,7,31,3,1,0,1,0,0,1,0,0,0,circle,triangle,,,,,,,,,,,,,,,,,,,,,,,,,,,,,,,,,,,,,,,,,,,,,,,,,,,,,,
293857,2022-12-02_23h36.59.702,vts_reward_expectancy_bt,2022.2.4,MacIntel,60.0024001,Chrome,1440,900,,,a,0.6995,1,627,2,2,8,32,9,1,0,0,0,1,1,0,0,0,star,triangle,,,,,,,,,,,,,,,,,,,,,,,,,,,,,,,,,,,,,,,,,,,,,,,,,,,,,,
293857,2022-12-02_23h36.59.702,vts_reward_expectancy_bt,2022.2.4,MacIntel,60.0024001,Chrome,1440,900,,,l,0.7857,10,637,2,2,9,33,2,1,1,0,0,0,0,0,0,1,triangle,star,,,,,,,,,,,,,,,,,,,,,,,,,,,,,,,,,,,,,,,,,,,,,,,,,,,,,,
293857,2022-12-02_23h36.59.702,vts_reward_expectancy_bt,2022.2.4,MacIntel,60.0024001,Chrome,1440,900,,,l,1.0841,1,638,2,2,10,34,0,1,1,0,0,0,0,1,0,0,triangle,circle,,,,,,,,,,,,,,,,,,,,,,,,,,,,,,,,,,,,,,,,,,,,,,,,,,,,,,
293857,2022-12-02_23h36.59.702,vts_reward_expectancy_bt,2022.2.4,MacIntel,60.0024001,Chrome,1440,900,,,a,0.7234,1,639,2,2,11,35,10,1,0,0,0,1,0,1,0,0,star ,circle,,,,,,,,,,,,,,,,,,,,,,,,,,,,,,,,,,,,,,,,,,,,,,,,,,,,,,
293857,2022-12-02_23h36.59.702,vts_reward_expectancy_bt,2022.2.4,MacIntel,60.0024001,Chrome,1440,900,,,,,,,,,,,,,,,,,,,,,,,139,H,circle,0,0,f,2.4813,0,0,0,0,0,1,,,,,,,,,,,,,,,,,,,,,,,,,,,,,,,,,,,,,,,,,
293857,2022-12-02_23h36.59.702,vts_reward_expectancy_bt,2022.2.4,MacIntel,60.0024001,Chrome,1440,900,,,,,,,,,,,,,,,,,,,,,,,174,F,hexagon,0,1,d,1.3627,0,1,0,1,0,1,,,,,,,,,,,,,,,,,,,,,,,,,,,,,,,,,,,,,,,,,
293857,2022-12-02_23h36.59.702,vts_reward_expectancy_bt,2022.2.4,MacIntel,60.0024001,Chrome,1440,900,,,,,,,,,,,,,,,,,,,,,,,160,Y,star,0,1,,,0,2,0,2,0,1,,,,,,,,,,,,,,,,,,,,,,,,,,,,,,,,,,,,,,,,,
293857,2022-12-02_23h36.59.702,vts_reward_expectancy_bt,2022.2.4,MacIntel,60.0024001,Chrome,1440,900,,,,,,,,,,,,,,,,,,,,,,,146,S,triangle,1,1,d,0.6879,0,3,0,3,0,1,,,,,,,,,,,,,,,,,,,,,,,,,,,,,,,,,,,,,,,,,
293857,2022-12-02_23h36.59.702,vts_reward_expectancy_bt,2022.2.4,MacIntel,60.0024001,Chrome,1440,900,,,,,,,,,,,,,,,,,,,,,,,181,U,circle,1,0,f,0.8802,0,4,0,4,0,1,,,,,,,,,,,,,,,,,,,,,,,,,,,,,,,,,,,,,,,,,
293857,2022-12-02_23h36.59.702,vts_reward_expectancy_bt,2022.2.4,MacIntel,60.0024001,Chrome,1440,900,,,,,,,,,,,,,,,,,,,,,,,167,W,hexagon,1,0,f,1.2066,0,5,0,5,0,1,,,,,,,,,,,,,,,,,,,,,,,,,,,,,,,,,,,,,,,,,
293857,2022-12-02_23h36.59.702,vts_reward_expectancy_bt,2022.2.4,MacIntel,60.0024001,Chrome,1440,900,,,,,,,,,,,,,,,,,,,,,,,125,B,star,1,0,d,0.6809,0,6,0,6,0,1,,,,,,,,,,,,,,,,,,,,,,,,,,,,,,,,,,,,,,,,,
293857,2022-12-02_23h36.59.702,vts_reward_expectancy_bt,2022.2.4,MacIntel,60.0024001,Chrome,1440,900,,,,,,,,,,,,,,,,,,,,,,,132,D,triangle,1,0,d,0.815,0,7,0,7,0,1,,,,,,,,,,,,,,,,,,,,,,,,,,,,,,,,,,,,,,,,,
293857,2022-12-02_23h36.59.702,vts_reward_expectancy_bt,2022.2.4,MacIntel,60.0024001,Chrome,1440,900,,,,,,,,,,,,,,,,,,,,,,,139,H,triangle,1,0,d,1.5511,0,8,0,8,0,1,,,,,,,,,,,,,,,,,,,,,,,,,,,,,,,,,,,,,,,,,
293857,2022-12-02_23h36.59.702,vts_reward_expectancy_bt,2022.2.4,MacIntel,60.0024001,Chrome,1440,900,,,,,,,,,,,,,,,,,,,,,,,174,F,circle,1,0,f,0.9828,0,9,0,9,0,1,,,,,,,,,,,,,,,,,,,,,,,,,,,,,,,,,,,,,,,,,
293857,2022-12-02_23h36.59.702,vts_reward_expectancy_bt,2022.2.4,MacIntel,60.0024001,Chrome,1440,900,,,,,,,,,,,,,,,,,,,,,,,174,U,triangle,1,0,f,1.0022,1,0,0,0,0,1,,,,,,,,,,,,,,,,,,,,,,,,,,,,,,,,,,,,,,,,,
293857,2022-12-02_23h36.59.702,vts_reward_expectancy_bt,2022.2.4,MacIntel,60.0024001,Chrome,1440,900,,,,,,,,,,,,,,,,,,,,,,,167,Y,star,1,0,f,0.7891,1,1,0,1,0,1,,,,,,,,,,,,,,,,,,,,,,,,,,,,,,,,,,,,,,,,,
293857,2022-12-02_23h36.59.702,vts_reward_expectancy_bt,2022.2.4,MacIntel,60.0024001,Chrome,1440,900,,,,,,,,,,,,,,,,,,,,,,,125,B,hexagon,1,0,d,0.5208,1,2,0,2,0,1,,,,,,,,,,,,,,,,,,,,,,,,,,,,,,,,,,,,,,,,,
293857,2022-12-02_23h36.59.702,vts_reward_expectancy_bt,2022.2.4,MacIntel,60.0024001,Chrome,1440,900,,,,,,,,,,,,,,,,,,,,,,,139,S,circle,1,0,d,0.597,1,3,0,3,0,1,,,,,,,,,,,,,,,,,,,,,,,,,,,,,,,,,,,,,,,,,
293857,2022-12-02_23h36.59.702,vts_reward_expectancy_bt,2022.2.4,MacIntel,60.0024001,Chrome,1440,900,,,,,,,,,,,,,,,,,,,,,,,146,F,triangle,1,0,d,1.5132,1,4,0,4,0,1,,,,,,,,,,,,,,,,,,,,,,,,,,,,,,,,,,,,,,,,,
293857,2022-12-02_23h36.59.702,vts_reward_expectancy_bt,2022.2.4,MacIntel,60.0024001,Chrome,1440,900,,,,,,,,,,,,,,,,,,,,,,,160,D,star,1,0,f,1.0819,1,5,0,5,0,1,,,,,,,,,,,,,,,,,,,,,,,,,,,,,,,,,,,,,,,,,
293857,2022-12-02_23h36.59.702,vts_reward_expectancy_bt,2022.2.4,MacIntel,60.0024001,Chrome,1440,900,,,,,,,,,,,,,,,,,,,,,,,132,H,hexagon,1,0,d,0.7451,1,6,0,6,0,1,,,,,,,,,,,,,,,,,,,,,,,,,,,,,,,,,,,,,,,,,
293857,2022-12-02_23h36.59.702,vts_reward_expectancy_bt,2022.2.4,MacIntel,60.0024001,Chrome,1440,900,,,,,,,,,,,,,,,,,,,,,,,181,W,circle,1,0,f,0.7773,1,7,0,7,0,1,,,,,,,,,,,,,,,,,,,,,,,,,,,,,,,,,,,,,,,,,
293857,2022-12-02_23h36.59.702,vts_reward_expectancy_bt,2022.2.4,MacIntel,60.0024001,Chrome,1440,900,,,,,,,,,,,,,,,,,,,,,,,174,U,circle,1,0,f,0.782,1,8,0,8,0,1,,,,,,,,,,,,,,,,,,,,,,,,,,,,,,,,,,,,,,,,,
293857,2022-12-02_23h36.59.702,vts_reward_expectancy_bt,2022.2.4,MacIntel,60.0024001,Chrome,1440,900,,,,,,,,,,,,,,,,,,,,,,,167,Y,hexagon,1,0,f,0.5981,1,9,0,9,0,1,,,,,,,,,,,,,,,,,,,,,,,,,,,,,,,,,,,,,,,,,
293857,2022-12-02_23h36.59.702,vts_reward_expectancy_bt,2022.2.4,MacIntel,60.0024001,Chrome,1440,900,,,,,,,,,,,,,,,,,,,,,,,132,U,circle,1,0,,,2,,,,,,k,0.783,0,0,0,0,1,,,,,,,,,,,,,,,,,,,,,,,,,,,,,,,,,,
293857,2022-12-02_23h36.59.702,vts_reward_expectancy_bt,2022.2.4,MacIntel,60.0024001,Chrome,1440,900,,,,,,,,,,,,,,,,,,,,,,,160,W,star,1,0,,,2,,,,,,k,0.7334,1,0,1,0,1,,,,,,,,,,,,,,,,,,,,,,,,,,,,,,,,,,
293857,2022-12-02_23h36.59.702,vts_reward_expectancy_bt,2022.2.4,MacIntel,60.0024001,Chrome,1440,900,,,,,,,,,,,,,,,,,,,,,,,174,F,hexagon,1,0,,,2,,,,,,j,1.1297,2,0,2,0,1,,,,,,,,,,,,,,,,,,,,,,,,,,,,,,,,,,
293857,2022-12-02_23h36.59.702,vts_reward_expectancy_bt,2022.2.4,MacIntel,60.0024001,Chrome,1440,900,,,,,,,,,,,,,,,,,,,,,,,167,S,triangle,1,0,,,2,,,,,,k,0.7671,3,0,3,0,1,,,,,,,,,,,,,,,,,,,,,,,,,,,,,,,,,,
293857,2022-12-02_23h36.59.702,vts_reward_expectancy_bt,2022.2.4,MacIntel,60.0024001,Chrome,1440,900,,,,,,,,,,,,,,,,,,,,,,,146,D,circle,1,0,,,2,,,,,,j,0.7008,4,0,4,0,1,,,,,,,,,,,,,,,,,,,,,,,,,,,,,,,,,,
293857,2022-12-02_23h36.59.702,vts_reward_expectancy_bt,2022.2.4,MacIntel,60.0024001,Chrome,1440,900,,,,,,,,,,,,,,,,,,,,,,,181,H,star,1,0,,,2,,,,,,j,1.1473,5,0,5,0,1,,,,,,,,,,,,,,,,,,,,,,,,,,,,,,,,,,
293857,2022-12-02_23h36.59.702,vts_reward_expectancy_bt,2022.2.4,MacIntel,60.0024001,Chrome,1440,900,,,,,,,,,,,,,,,,,,,,,,,139,Y,hexagon,1,0,,,2,,,,,,k,0.6872,6,0,6,0,1,,,,,,,,,,,,,,,,,,,,,,,,,,,,,,,,,,
293857,2022-12-02_23h36.59.702,vts_reward_expectancy_bt,2022.2.4,MacIntel,60.0024001,Chrome,1440,900,,,,,,,,,,,,,,,,,,,,,,,125,B,triangle,1,0,,,2,,,,,,j,0.6161,7,0,7,0,1,,,,,,,,,,,,,,,,,,,,,,,,,,,,,,,,,,
293857,2022-12-02_23h36.59.702,vts_reward_expectancy_bt,2022.2.4,MacIntel,60.0024001,Chrome,1440,900,,,,,,,,,,,,,,,,,,,,,,,132,U,triangle,1,0,,,2,,,,,,k,0.572,8,0,8,0,1,,,,,,,,,,,,,,,,,,,,,,,,,,,,,,,,,,
293857,2022-12-02_23h36.59.702,vts_reward_expectancy_bt,2022.2.4,MacIntel,60.0024001,Chrome,1440,900,,,,,,,,,,,,,,,,,,,,,,,160,W,hexagon,1,0,,,2,,,,,,k,0.6822,9,0,9,0,1,,,,,,,,,,,,,,,,,,,,,,,,,,,,,,,,,,
293857,2022-12-02_23h36.59.702,vts_reward_expectancy_bt,2022.2.4,MacIntel,60.0024001,Chrome,1440,900,,,,,0,639,,,,,,,,,,,,,,,,,139,S,circle,1,0,,,3,,,,,,,,,,,,,-1,number,NA,d,2.0577,vtsPrac,0,0,0,0,1,,,,,,,,,,,,,,,,,,,,,,,
293857,2022-12-02_23h36.59.702,vts_reward_expectancy_bt,2022.2.4,MacIntel,60.0024001,Chrome,1440,900,,,,,0,639,,,,,,,,,,,,,,,,,174,W,star,0,0,,,3,,,,,,,,,,,,,repeat,number,NA,d,1.7875,vtsPrac,1,0,1,0,1,,,,,,,,,,,,,,,,,,,,,,,
293857,2022-12-02_23h36.59.702,vts_reward_expectancy_bt,2022.2.4,MacIntel,60.0024001,Chrome,1440,900,,,,,0,639,,,,,,,,,,,,,,,,,167,D,circle,1,1,,,3,,,,,,,,,,,,,switch,letter,lettSwt,j,0.9289,vtsPrac,2,0,2,0,1,,,,,,,,,,,,,,,,,,,,,,,
293857,2022-12-02_23h36.59.702,vts_reward_expectancy_bt,2022.2.4,MacIntel,60.0024001,Chrome,1440,900,,,,,0,639,,,,,,,,,,,,,,,,,160,H,star,1,0,,,3,,,,,,,,,,,,,repeat,letter,lettRpt,j,1.1479,vtsPrac,3,0,3,0,1,,,,,,,,,,,,,,,,,,,,,,,
293857,2022-12-02_23h36.59.702,vts_reward_expectancy_bt,2022.2.4,MacIntel,60.0024001,Chrome,1440,900,,,,,0,639,,,,,,,,,,,,,,,,,139,S,hexagon,1,0,,,3,,,,,,,,,,,,,switch,number,numSwt,d,1.5516,vtsPrac,4,0,4,0,1,,,,,,,,,,,,,,,,,,,,,,,
293857,2022-12-02_23h36.59.702,vts_reward_expectancy_bt,2022.2.4,MacIntel,60.0024001,Chrome,1440,900,,,,,0,639,,,,,,,,,,,,,,,,,174,W,triangle,1,0,,,3,,,,,,,,,,,,,repeat,number,numRpt,f,1.8689,vtsPrac,5,0,5,0,1,,,,,,,,,,,,,,,,,,,,,,,
293857,2022-12-02_23h36.59.702,vts_reward_expectancy_bt,2022.2.4,MacIntel,60.0024001,Chrome,1440,900,,,,,0,639,,,,,,,,,,,,,,,,,167,D,triangle,1,0,,,3,,,,,,,,,,,,,repeat,number,numRpt,f,1.0706,vtsPrac,6,0,6,0,1,,,,,,,,,,,,,,,,,,,,,,,
293857,2022-12-02_23h36.59.702,vts_reward_expectancy_bt,2022.2.4,MacIntel,60.0024001,Chrome,1440,900,,,,,0,639,,,,,,,,,,,,,,,,,160,H,hexagon,1,0,,,3,,,,,,,,,,,,,switch,letter,lettSwt,j,1.0186,vtsPrac,7,0,7,0,1,,,,,,,,,,,,,,,,,,,,,,,
293857,2022-12-02_23h36.59.702,vts_reward_expectancy_bt,2022.2.4,MacIntel,60.0024001,Chrome,1440,900,,,,,0,639,,,,,,,,,,,,,,,,,132,B,triangle,1,0,,,3,,,,,,,,,,,,,repeat,letter,lettRpt,j,0.8456,vtsPrac,8,0,8,0,1,,,,,,,,,,,,,,,,,,,,,,,
293857,2022-12-02_23h36.59.702,vts_reward_expectancy_bt,2022.2.4,MacIntel,60.0024001,Chrome,1440,900,,,,,0,639,,,,,,,,,,,,,,,,,174,Y,hexagon,1,0,,,3,,,,,,,,,,,,,repeat,letter,lettRpt,k,0.8175,vtsPrac,9,0,9,0,1,,,,,,,,,,,,,,,,,,,,,,,
293857,2022-12-02_23h36.59.702,vts_reward_expectancy_bt,2022.2.4,MacIntel,60.0024001,Chrome,1440,900,,,,,0,639,,,,,,,,,,,,,,,,,160,D,hexagon,1,0,,,3,,,,,,,,,,,,,switch,number,numSwt,f,1.3137,vtsPrac,10,0,10,0,1,,,,,,,,,,,,,,,,,,,,,,,
293857,2022-12-02_23h36.59.702,vts_reward_expectancy_bt,2022.2.4,MacIntel,60.0024001,Chrome,1440,900,,,,,0,639,,,,,,,,,,,,,,,,,146,U,triangle,1,0,,,3,,,,,,,,,,,,,repeat,number,numRpt,d,0.9129,vtsPrac,11,0,11,0,1,,,,,,,,,,,,,,,,,,,,,,,
293857,2022-12-02_23h36.59.702,vts_reward_expectancy_bt,2022.2.4,MacIntel,60.0024001,Chrome,1440,900,,,,,0,639,,,,,,,,,,,,,,,,,146,Y,circle,1,0,,,3,,,,,,,,,,,,,repeat,number,numRpt,d,0.9024,vtsPrac,12,0,12,0,1,,,,,,,,,,,,,,,,,,,,,,,
293857,2022-12-02_23h36.59.702,vts_reward_expectancy_bt,2022.2.4,MacIntel,60.0024001,Chrome,1440,900,,,,,0,639,,,,,,,,,,,,,,,,,181,D,hexagon,1,0,,,3,,,,,,,,,,,,,switch,letter,lettSwt,j,0.9094,vtsPrac,13,0,13,0,1,,,,,,,,,,,,,,,,,,,,,,,
293857,2022-12-02_23h36.59.702,vts_reward_expectancy_bt,2022.2.4,MacIntel,60.0024001,Chrome,1440,900,,,,,0,639,,,,,,,,,,,,,,,,,160,W,hexagon,1,0,,,3,,,,,,,,,,,,,switch,number,numSwt,f,1.0462,vtsPrac,14,0,14,0,1,,,,,,,,,,,,,,,,,,,,,,,
293857,2022-12-02_23h36.59.702,vts_reward_expectancy_bt,2022.2.4,MacIntel,60.0024001,Chrome,1440,900,,,,,0,639,,,,,,,,,,,,,,,,,167,U,star,1,0,,,3,,,,,,,,,,,,,switch,letter,lettSwt,k,0.6795,vtsPrac,15,0,15,0,1,,,,,,,,,,,,,,,,,,,,,,,
293857,2022-12-02_23h36.59.702,vts_reward_expectancy_bt,2022.2.4,MacIntel,60.0024001,Chrome,1440,900,,,,,0,639,,,,,,,,,,,,,,,,,167,D,circle,1,0,,,3,,,,,,,,,,,,,repeat,letter,lettRpt,j,0.8163,vtsPrac,16,0,16,0,1,,,,,,,,,,,,,,,,,,,,,,,
293857,2022-12-02_23h36.59.702,vts_reward_expectancy_bt,2022.2.4,MacIntel,60.0024001,Chrome,1440,900,,,,,0,639,,,,,,,,,,,,,,,,,174,Y,triangle,1,0,,,3,,,,,,,,,,,,,repeat,letter,lettRpt,k,0.7958,vtsPrac,17,0,17,0,1,,,,,,,,,,,,,,,,,,,,,,,
293857,2022-12-02_23h36.59.702,vts_reward_expectancy_bt,2022.2.4,MacIntel,60.0024001,Chrome,1440,900,,,,,0,639,,,,,,,,,,,,,,,,,139,W,triangle,1,0,,,3,,,,,,,,,,,,,switch,number,numSwt,d,0.7716,vtsPrac,18,0,18,0,1,,,,,,,,,,,,,,,,,,,,,,,
293857,2022-12-02_23h36.59.702,vts_reward_expectancy_bt,2022.2.4,MacIntel,60.0024001,Chrome,1440,900,,,,,0,639,,,,,,,,,,,,,,,,,125,U,hexagon,1,0,,,3,,,,,,,,,,,,,repeat,number,numRpt,d,0.9647,vtsPrac,19,0,19,0,1,,,,,,,,,,,,,,,,,,,,,,,
293857,2022-12-02_23h36.59.702,vts_reward_expectancy_bt,2022.2.4,MacIntel,60.0024001,Chrome,1440,900,,,,,0,639,,,,,,,,,,,,,,,,,160,Y,hexagon,1,0,,,3,,,,,,,,,,,,,repeat,number,numRpt,f,0.9806,vtsPrac,20,0,20,0,1,,,,,,,,,,,,,,,,,,,,,,,
293857,2022-12-02_23h36.59.702,vts_reward_expectancy_bt,2022.2.4,MacIntel,60.0024001,Chrome,1440,900,,,,,0,639,,,,,,,,,,,,,,,,,139,B,circle,1,0,,,3,,,,,,,,,,,,,switch,letter,lettSwt,j,0.8054,vtsPrac,21,0,21,0,1,,,,,,,,,,,,,,,,,,,,,,,
293857,2022-12-02_23h36.59.702,vts_reward_expectancy_bt,2022.2.4,MacIntel,60.0024001,Chrome,1440,900,,,,,0,639,,,,,,,,,,,,,,,,,125,S,circle,1,0,,,3,,,,,,,,,,,,,switch,number,numSwt,d,0.8312,vtsPrac,22,0,22,0,1,,,,,,,,,,,,,,,,,,,,,,,
293857,2022-12-02_23h36.59.702,vts_reward_expectancy_bt,2022.2.4,MacIntel,60.0024001,Chrome,1440,900,,,,,0,639,,,,,,,,,,,,,,,,,132,D,triangle,1,0,,,3,,,,,,,,,,,,,repeat,number,numRpt,d,1.2313,vtsPrac,23,0,23,0,1,,,,,,,,,,,,,,,,,,,,,,,
293857,2022-12-02_23h36.59.702,vts_reward_expectancy_bt,2022.2.4,MacIntel,60.0024001,Chrome,1440,900,,,,,0,639,,,,,,,,,,,,,,,,,174,U,star,1,0,,,3,,,,,,,,,,,,,switch,letter,lettSwt,k,0.7512,vtsPrac,24,0,24,0,1,,,,,,,,,,,,,,,,,,,,,,,
293857,2022-12-02_23h36.59.702,vts_reward_expectancy_bt,2022.2.4,MacIntel,60.0024001,Chrome,1440,900,,,,,0,639,,,,,,,,,,,,,,,,,132,B,hexagon,1,0,,,3,,,,,,,,,,,,,repeat,letter,lettRpt,j,0.9021,vtsPrac,25,0,25,0,1,,,,,,,,,,,,,,,,,,,,,,,
293857,2022-12-02_23h36.59.702,vts_reward_expectancy_bt,2022.2.4,MacIntel,60.0024001,Chrome,1440,900,,,,,0,639,,,,,,,,,,,,,,,,,146,S,hexagon,1,0,,,3,,,,,,,,,,,,,repeat,letter,lettRpt,k,0.8209,vtsPrac,26,0,26,0,1,,,,,,,,,,,,,,,,,,,,,,,
293857,2022-12-02_23h36.59.702,vts_reward_expectancy_bt,2022.2.4,MacIntel,60.0024001,Chrome,1440,900,,,,,0,639,,,,,,,,,,,,,,,,,167,W,triangle,1,0,,,3,,,,,,,,,,,,,switch,number,numSwt,f,1.1203,vtsPrac,27,0,27,0,1,,,,,,,,,,,,,,,,,,,,,,,
293857,2022-12-02_23h36.59.702,vts_reward_expectancy_bt,2022.2.4,MacIntel,60.0024001,Chrome,1440,900,,,,,0,639,,,,,,,,,,,,,,,,,160,Y,star,1,0,,,3,,,,,,,,,,,,,repeat,number,numRpt,f,0.813,vtsPrac,28,0,28,0,1,,,,,,,,,,,,,,,,,,,,,,,
293857,2022-12-02_23h36.59.702,vts_reward_expectancy_bt,2022.2.4,MacIntel,60.0024001,Chrome,1440,900,,,,,0,639,,,,,,,,,,,,,,,,,181,F,triangle,1,0,,,3,,,,,,,,,,,,,repeat,number,numRpt,f,0.8838,vtsPrac,29,0,29,0,1,,,,,,,,,,,,,,,,,,,,,,,
293857,2022-12-02_23h36.59.702,vts_reward_expectancy_bt,2022.2.4,MacIntel,60.0024001,Chrome,1440,900,,,,,0,639,,,,,,,,,,,,,,,,,167,W,star,1,0,,,3,,,,,,,,,,,,,repeat,number,numRpt,f,0.8197,vtsPrac,30,0,30,0,1,,,,,,,,,,,,,,,,,,,,,,,
293857,2022-12-02_23h36.59.702,vts_reward_expectancy_bt,2022.2.4,MacIntel,60.0024001,Chrome,1440,900,,,,,0,639,,,,,,,,,,,,,,,,,146,D,triangle,1,0,,,3,,,,,,,,,,,,,switch,letter,lettSwt,j,0.5468,vtsPrac,31,0,31,0,1,,,,,,,,,,,,,,,,,,,,,,,
293857,2022-12-02_23h36.59.702,vts_reward_expectancy_bt,2022.2.4,MacIntel,60.0024001,Chrome,1440,900,,,,,,,,,,,,,,,,,,,,,,,,,,,,,,,,,,,,,,,,,,,,,,,,,,,,,,,,,,,,,,,,,,,,,,,,,,,,
293857,2022-12-02_23h36.59.702,vts_reward_expectancy_bt,2022.2.4,MacIntel,60.0024001,Chrome,1440,900,,,,,,,,,,,,,,,,,,,,,,,,,,,,,,,,,,,,,,,,,,,,,,,,,,,,,,,,,,,,,,,,,,,,,,,,,,,,
293857,2022-12-02_23h36.59.702,vts_reward_expectancy_bt,2022.2.4,MacIntel,60.0024001,Chrome,1440,900,,,,,0,639,,,,,,,,,,,,,,,,,146,S,triangle,1,0,,,,,,,,,,,,,,,,switch,number,numSwt,d,1.2821,noRew,,,,,,0,0,0,0,0,1,,,,,,,,,,,,,,,,,
293857,2022-12-02_23h36.59.702,vts_reward_expectancy_bt,2022.2.4,MacIntel,60.0024001,Chrome,1440,900,,,,,0,639,,,,,,,,,,,,,,,,,174,F,circle,0,0,,,,,,,,,,,,,,,,repeat,number,NA,d,0.8126,noRew,,,,,,0,1,0,1,0,1,,,,,,,,,,,,,,,,,
293857,2022-12-02_23h36.59.702,vts_reward_expectancy_bt,2022.2.4,MacIntel,60.0024001,Chrome,1440,900,,,,,0,639,,,,,,,,,,,,,,,,,125,H,triangle,1,1,,,,,,,,,,,,,,,,repeat,number,numRpt,d,0.7388,noRew,,,,,,0,2,0,2,0,1,,,,,,,,,,,,,,,,,
293857,2022-12-02_23h36.59.702,vts_reward_expectancy_bt,2022.2.4,MacIntel,60.0024001,Chrome,1440,900,,,,,0,639,,,,,,,,,,,,,,,,,160,D,circle,1,0,,,,,,,,,,,,,,,,repeat,number,numRpt,f,0.7807,noRew,,,,,,0,3,0,3,0,1,,,,,,,,,,,,,,,,,
293857,2022-12-02_23h36.59.702,vts_reward_expectancy_bt,2022.2.4,MacIntel,60.0024001,Chrome,1440,900,,,,,0,639,,,,,,,,,,,,,,,,,146,S,triangle,1,0,,,,,,,,,,,,,,,,repeat,number,numRpt,d,0.6031,noRew,,,,,,0,4,0,4,0,1,,,,,,,,,,,,,,,,,
293857,2022-12-02_23h36.59.702,vts_reward_expectancy_bt,2022.2.4,MacIntel,60.0024001,Chrome,1440,900,,,,,0,639,,,,,,,,,,,,,,,,,174,F,circle,1,0,,,,,,,,,,,,,,,,repeat,number,numRpt,f,0.7523,noRew,,,,,,0,5,0,5,0,1,,,,,,,,,,,,,,,,,
293857,2022-12-02_23h36.59.702,vts_reward_expectancy_bt,2022.2.4,MacIntel,60.0024001,Chrome,1440,900,,,,,0,639,,,,,,,,,,,,,,,,,125,H,circle,1,0,,,,,,,,,,,,,,,,repeat,number,numRpt,d,0.684,noRew,,,,,,0,6,0,6,0,1,,,,,,,,,,,,,,,,,
293857,2022-12-02_23h36.59.702,vts_reward_expectancy_bt,2022.2.4,MacIntel,60.0024001,Chrome,1440,900,,,,,0,639,,,,,,,,,,,,,,,,,160,D,triangle,1,0,,,,,,,,,,,,,,,,repeat,number,numRpt,f,0.7464,noRew,,,,,,0,7,0,7,0,1,,,,,,,,,,,,,,,,,
293857,2022-12-02_23h36.59.702,vts_reward_expectancy_bt,2022.2.4,MacIntel,60.0024001,Chrome,1440,900,,,,,0,639,,,,,,,,,,,,,,,,,125,H,star,1,0,,,,,,,,,,,,,,,,repeat,number,numRpt,d,0.6816,noRew,,,,,,0,8,0,8,0,1,,,,,,,,,,,,,,,,,
293857,2022-12-02_23h36.59.702,vts_reward_expectancy_bt,2022.2.4,MacIntel,60.0024001,Chrome,1440,900,,,,,0,639,,,,,,,,,,,,,,,,,139,S,triangle,1,0,,,,,,,,,,,,,,,,repeat,number,numRpt,d,0.8141,noRew,,,,,,0,9,0,9,0,1,,,,,,,,,,,,,,,,,
293857,2022-12-02_23h36.59.702,vts_reward_expectancy_bt,2022.2.4,MacIntel,60.0024001,Chrome,1440,900,,,,,0,639,,,,,,,,,,,,,,,,,160,U,star,1,0,,,,,,,,,,,,,,,,repeat,number,numRpt,f,0.8474,noRew,,,,,,0,10,0,10,0,1,,,,,,,,,,,,,,,,,
293857,2022-12-02_23h36.59.702,vts_reward_expectancy_bt,2022.2.4,MacIntel,60.0024001,Chrome,1440,900,,,,,0,639,,,,,,,,,,,,,,,,,146,Y,triangle,1,0,,,,,,,,,,,,,,,,repeat,number,numRpt,d,0.7521,noRew,,,,,,0,11,0,11,0,1,,,,,,,,,,,,,,,,,
293857,2022-12-02_23h36.59.702,vts_reward_expectancy_bt,2022.2.4,MacIntel,60.0024001,Chrome,1440,900,,,,,0,639,,,,,,,,,,,,,,,,,181,W,triangle,1,0,,,,,,,,,,,,,,,,repeat,number,numRpt,f,0.7648,noRew,,,,,,0,12,0,12,0,1,,,,,,,,,,,,,,,,,
293857,2022-12-02_23h36.59.702,vts_reward_expectancy_bt,2022.2.4,MacIntel,60.0024001,Chrome,1440,900,,,,,0,639,,,,,,,,,,,,,,,,,160,S,hexagon,1,0,,,,,,,,,,,,,,,,repeat,number,numRpt,f,1.3564,noRew,,,,,,0,13,0,13,0,1,,,,,,,,,,,,,,,,,
293857,2022-12-02_23h36.59.702,vts_reward_expectancy_bt,2022.2.4,MacIntel,60.0024001,Chrome,1440,900,,,,,0,639,,,,,,,,,,,,,,,,,125,D,hexagon,1,0,,,,,,,,,,,,,,,,repeat,number,numRpt,d,0.8013,noRew,,,,,,0,14,0,14,0,1,,,,,,,,,,,,,,,,,
293857,2022-12-02_23h36.59.702,vts_reward_expectancy_bt,2022.2.4,MacIntel,60.0024001,Chrome,1440,900,,,,,0,639,,,,,,,,,,,,,,,,,139,F,star,1,0,,,,,,,,,,,,,,,,repeat,number,numRpt,d,1.539,noRew,,,,,,0,15,0,15,0,1,,,,,,,,,,,,,,,,,
293857,2022-12-02_23h36.59.702,vts_reward_expectancy_bt,2022.2.4,MacIntel,60.0024001,Chrome,1440,900,,,,,0,639,,,,,,,,,,,,,,,,,167,B,star,1,0,,,,,,,,,,,,,,,,repeat,number,numRpt,f,0.7878,noRew,,,,,,0,16,0,16,0,1,,,,,,,,,,,,,,,,,
293857,2022-12-02_23h36.59.702,vts_reward_expectancy_bt,2022.2.4,MacIntel,60.0024001,Chrome,1440,900,,,,,0,639,,,,,,,,,,,,,,,,,132,U,hexagon,1,0,,,,,,,,,,,,,,,,repeat,number,numRpt,d,0.7385,noRew,,,,,,0,17,0,17,0,1,,,,,,,,,,,,,,,,,
293857,2022-12-02_23h36.59.702,vts_reward_expectancy_bt,2022.2.4,MacIntel,60.0024001,Chrome,1440,900,,,,,0,639,,,,,,,,,,,,,,,,,146,F,circle,1,0,,,,,,,,,,,,,,,,repeat,number,numRpt,d,0.733,noRew,,,,,,0,18,0,18,0,1,,,,,,,,,,,,,,,,,
293857,2022-12-02_23h36.59.702,vts_reward_expectancy_bt,2022.2.4,MacIntel,60.0024001,Chrome,1440,900,,,,,0,639,,,,,,,,,,,,,,,,,139,W,triangle,1,0,,,,,,,,,,,,,,,,repeat,number,numRpt,d,0.8167,noRew,,,,,,0,19,0,19,0,1,,,,,,,,,,,,,,,,,
293857,2022-12-02_23h36.59.702,vts_reward_expectancy_bt,2022.2.4,MacIntel,60.0024001,Chrome,1440,900,,,,,0,639,,,,,,,,,,,,,,,,,125,U,hexagon,1,0,,,,,,,,,,,,,,,,repeat,number,numRpt,d,0.6478,noRew,,,,,,0,20,0,20,0,1,,,,,,,,,,,,,,,,,
293857,2022-12-02_23h36.59.702,vts_reward_expectancy_bt,2022.2.4,MacIntel,60.0024001,Chrome,1440,900,,,,,0,639,,,,,,,,,,,,,,,,,146,S,star,1,0,,,,,,,,,,,,,,,,repeat,number,numRpt,d,0.7309,noRew,,,,,,0,21,0,21,0,1,,,,,,,,,,,,,,,,,
293857,2022-12-02_23h36.59.702,vts_reward_expectancy_bt,2022.2.4,MacIntel,60.0024001,Chrome,1440,900,,,,,0,639,,,,,,,,,,,,,,,,,139,B,hexagon,1,0,,,,,,,,,,,,,,,,repeat,number,numRpt,d,0.7636,noRew,,,,,,0,22,0,22,0,1,,,,,,,,,,,,,,,,,
293857,2022-12-02_23h36.59.702,vts_reward_expectancy_bt,2022.2.4,MacIntel,60.0024001,Chrome,1440,900,,,,,0,639,,,,,,,,,,,,,,,,,132,D,star,1,0,,,,,,,,,,,,,,,,repeat,number,numRpt,d,0.746,noRew,,,,,,0,23,0,23,0,1,,,,,,,,,,,,,,,,,
293857,2022-12-02_23h36.59.702,vts_reward_expectancy_bt,2022.2.4,MacIntel,60.0024001,Chrome,1440,900,,,,,0,639,,,,,,,,,,,,,,,,,132,H,circle,1,0,,,,,,,,,,,,,,,,repeat,number,numRpt,d,0.6202,noRew,,,,,,0,24,0,24,0,1,,,,,,,,,,,,,,,,,
293857,2022-12-02_23h36.59.702,vts_reward_expectancy_bt,2022.2.4,MacIntel,60.0024001,Chrome,1440,900,,,,,0,639,,,,,,,,,,,,,,,,,160,Y,triangle,1,0,,,,,,,,,,,,,,,,repeat,number,numRpt,f,1.0807,noRew,,,,,,0,25,0,25,0,1,,,,,,,,,,,,,,,,,
293857,2022-12-02_23h36.59.702,vts_reward_expectancy_bt,2022.2.4,MacIntel,60.0024001,Chrome,1440,900,,,,,0,639,,,,,,,,,,,,,,,,,125,F,star,1,0,,,,,,,,,,,,,,,,repeat,number,numRpt,d,0.7372,noRew,,,,,,0,26,0,26,0,1,,,,,,,,,,,,,,,,,
293857,2022-12-02_23h36.59.702,vts_reward_expectancy_bt,2022.2.4,MacIntel,60.0024001,Chrome,1440,900,,,,,0,639,,,,,,,,,,,,,,,,,174,D,circle,1,0,,,,,,,,,,,,,,,,repeat,number,numRpt,f,0.829,noRew,,,,,,0,27,0,27,0,1,,,,,,,,,,,,,,,,,
293857,2022-12-02_23h36.59.702,vts_reward_expectancy_bt,2022.2.4,MacIntel,60.0024001,Chrome,1440,900,,,,,0,639,,,,,,,,,,,,,,,,,139,F,circle,1,0,,,,,,,,,,,,,,,,repeat,number,numRpt,d,0.8466,noRew,,,,,,0,28,0,28,0,1,,,,,,,,,,,,,,,,,
293857,2022-12-02_23h36.59.702,vts_reward_expectancy_bt,2022.2.4,MacIntel,60.0024001,Chrome,1440,900,,,,,0,639,,,,,,,,,,,,,,,,,160,H,hexagon,1,0,,,,,,,,,,,,,,,,repeat,number,numRpt,f,0.6629,noRew,,,,,,0,29,0,29,0,1,,,,,,,,,,,,,,,,,
293857,2022-12-02_23h36.59.702,vts_reward_expectancy_bt,2022.2.4,MacIntel,60.0024001,Chrome,1440,900,,,,,0,639,,,,,,,,,,,,,,,,,167,S,triangle,1,0,,,,,,,,,,,,,,,,repeat,number,numRpt,f,0.8007,noRew,,,,,,0,30,0,30,0,1,,,,,,,,,,,,,,,,,
293857,2022-12-02_23h36.59.702,vts_reward_expectancy_bt,2022.2.4,MacIntel,60.0024001,Chrome,1440,900,,,,,0,639,,,,,,,,,,,,,,,,,181,Y,hexagon,1,0,,,,,,,,,,,,,,,,repeat,number,numRpt,f,0.6294,noRew,,,,,,0,31,0,31,0,1,,,,,,,,,,,,,,,,,
293857,2022-12-02_23h36.59.702,vts_reward_expectancy_bt,2022.2.4,MacIntel,60.0024001,Chrome,1440,900,,,,,0,639,,,,,,,,,,,,,,,,,174,B,star,1,0,,,,,,,,,,,,,,,,repeat,number,numRpt,f,0.6455,noRew,,,,,,0,32,0,32,0,1,,,,,,,,,,,,,,,,,
293857,2022-12-02_23h36.59.702,vts_reward_expectancy_bt,2022.2.4,MacIntel,60.0024001,Chrome,1440,900,,,,,0,639,,,,,,,,,,,,,,,,,167,Y,triangle,1,0,,,,,,,,,,,,,,,,repeat,number,numRpt,f,0.7331,noRew,,,,,,0,33,0,33,0,1,,,,,,,,,,,,,,,,,
293857,2022-12-02_23h36.59.702,vts_reward_expectancy_bt,2022.2.4,MacIntel,60.0024001,Chrome,1440,900,,,,,0,639,,,,,,,,,,,,,,,,,146,W,star,1,0,,,,,,,,,,,,,,,,repeat,number,numRpt,d,0.8137,noRew,,,,,,0,34,0,34,0,1,,,,,,,,,,,,,,,,,
293857,2022-12-02_23h36.59.702,vts_reward_expectancy_bt,2022.2.4,MacIntel,60.0024001,Chrome,1440,900,,,,,0,639,,,,,,,,,,,,,,,,,125,F,circle,1,0,,,,,,,,,,,,,,,,repeat,number,numRpt,d,0.7682,noRew,,,,,,0,35,0,35,0,1,,,,,,,,,,,,,,,,,
293857,2022-12-02_23h36.59.702,vts_reward_expectancy_bt,2022.2.4,MacIntel,60.0024001,Chrome,1440,900,,,,,0,639,,,,,,,,,,,,,,,,,160,D,triangle,1,0,,,,,,,,,,,,,,,,repeat,number,numRpt,f,0.6879,noRew,,,,,,0,36,0,36,0,1,,,,,,,,,,,,,,,,,
293857,2022-12-02_23h36.59.702,vts_reward_expectancy_bt,2022.2.4,MacIntel,60.0024001,Chrome,1440,900,,,,,0,639,,,,,,,,,,,,,,,,,146,F,star,1,0,,,,,,,,,,,,,,,,repeat,number,numRpt,d,0.6631,noRew,,,,,,0,37,0,37,0,1,,,,,,,,,,,,,,,,,
293857,2022-12-02_23h36.59.702,vts_reward_expectancy_bt,2022.2.4,MacIntel,60.0024001,Chrome,1440,900,,,,,0,639,,,,,,,,,,,,,,,,,132,U,star,1,0,,,,,,,,,,,,,,,,repeat,number,numRpt,d,0.7949,noRew,,,,,,0,38,0,38,0,1,,,,,,,,,,,,,,,,,
293857,2022-12-02_23h36.59.702,vts_reward_expectancy_bt,2022.2.4,MacIntel,60.0024001,Chrome,1440,900,,,,,0,639,,,,,,,,,,,,,,,,,174,S,circle,1,0,,,,,,,,,,,,,,,,repeat,number,numRpt,f,0.753,noRew,,,,,,0,39,0,39,0,1,,,,,,,,,,,,,,,,,
293857,2022-12-02_23h36.59.702,vts_reward_expectancy_bt,2022.2.4,MacIntel,60.0024001,Chrome,1440,900,,,,,0,639,,,,,,,,,,,,,,,,,174,S,star,1,0,,,,,,,,,,,,,,,,repeat,number,numRpt,f,0.7079,noRew,,,,,,0,40,0,40,0,1,,,,,,,,,,,,,,,,,
293857,2022-12-02_23h36.59.702,vts_reward_expectancy_bt,2022.2.4,MacIntel,60.0024001,Chrome,1440,900,,,,,0,639,,,,,,,,,,,,,,,,,146,H,circle,1,0,,,,,,,,,,,,,,,,repeat,number,numRpt,d,0.6797,noRew,,,,,,0,41,0,41,0,1,,,,,,,,,,,,,,,,,
293857,2022-12-02_23h36.59.702,vts_reward_expectancy_bt,2022.2.4,MacIntel,60.0024001,Chrome,1440,900,,,,,0,639,,,,,,,,,,,,,,,,,132,W,triangle,1,0,,,,,,,,,,,,,,,,repeat,number,numRpt,d,0.7456,noRew,,,,,,0,42,0,42,0,1,,,,,,,,,,,,,,,,,
293857,2022-12-02_23h36.59.702,vts_reward_expectancy_bt,2022.2.4,MacIntel,60.0024001,Chrome,1440,900,,,,,0,639,,,,,,,,,,,,,,,,,167,F,star,1,0,,,,,,,,,,,,,,,,repeat,number,numRpt,f,0.7152,noRew,,,,,,0,43,0,43,0,1,,,,,,,,,,,,,,,,,
293857,2022-12-02_23h36.59.702,vts_reward_expectancy_bt,2022.2.4,MacIntel,60.0024001,Chrome,1440,900,,,,,0,639,,,,,,,,,,,,,,,,,174,Y,triangle,1,0,,,,,,,,,,,,,,,,repeat,number,numRpt,f,0.7959,noRew,,,,,,0,44,0,44,0,1,,,,,,,,,,,,,,,,,
293857,2022-12-02_23h36.59.702,vts_reward_expectancy_bt,2022.2.4,MacIntel,60.0024001,Chrome,1440,900,,,,,0,639,,,,,,,,,,,,,,,,,146,F,circle,1,0,,,,,,,,,,,,,,,,repeat,number,numRpt,d,0.6641,noRew,,,,,,0,45,0,45,0,1,,,,,,,,,,,,,,,,,
293857,2022-12-02_23h36.59.702,vts_reward_expectancy_bt,2022.2.4,MacIntel,60.0024001,Chrome,1440,900,,,,,0,639,,,,,,,,,,,,,,,,,181,D,triangle,1,0,,,,,,,,,,,,,,,,repeat,number,numRpt,f,0.6965,noRew,,,,,,0,46,0,46,0,1,,,,,,,,,,,,,,,,,
293857,2022-12-02_23h36.59.702,vts_reward_expectancy_bt,2022.2.4,MacIntel,60.0024001,Chrome,1440,900,,,,,0,639,,,,,,,,,,,,,,,,,125,H,circle,1,0,,,,,,,,,,,,,,,,repeat,number,numRpt,d,0.8317,noRew,,,,,,0,47,0,47,0,1,,,,,,,,,,,,,,,,,
293857,2022-12-02_23h36.59.702,vts_reward_expectancy_bt,2022.2.4,MacIntel,60.0024001,Chrome,1440,900,,,,,0,639,,,,,,,,,,,,,,,,,160,F,triangle,1,0,,,,,,,,,,,,,,,,repeat,number,numRpt,f,0.7001,noRew,,,,,,0,48,0,48,0,1,,,,,,,,,,,,,,,,,
293857,2022-12-02_23h36.59.702,vts_reward_expectancy_bt,2022.2.4,MacIntel,60.0024001,Chrome,1440,900,,,,,0,639,,,,,,,,,,,,,,,,,167,B,star,1,0,,,,,,,,,,,,,,,,repeat,number,numRpt,f,0.706,noRew,,,,,,0,49,0,49,0,1,,,,,,,,,,,,,,,,,
293857,2022-12-02_23h36.59.702,vts_reward_expectancy_bt,2022.2.4,MacIntel,60.0024001,Chrome,1440,900,,,,,0,639,,,,,,,,,,,,,,,,,139,W,star,1,0,,,,,,,,,,,,,,,,repeat,number,numRpt,d,1.1001,noRew,,,,,,0,50,0,50,0,1,,,,,,,,,,,,,,,,,
293857,2022-12-02_23h36.59.702,vts_reward_expectancy_bt,2022.2.4,MacIntel,60.0024001,Chrome,1440,900,,,,,0,639,,,,,,,,,,,,,,,,,125,Y,triangle,1,0,,,,,,,,,,,,,,,,repeat,number,numRpt,d,0.7961,noRew,,,,,,0,51,0,51,0,1,,,,,,,,,,,,,,,,,
293857,2022-12-02_23h36.59.702,vts_reward_expectancy_bt,2022.2.4,MacIntel,60.0024001,Chrome,1440,900,,,,,0,639,,,,,,,,,,,,,,,,,160,H,hexagon,1,0,,,,,,,,,,,,,,,,repeat,number,numRpt,f,0.9108,noRew,,,,,,0,52,0,52,0,1,,,,,,,,,,,,,,,,,
293857,2022-12-02_23h36.59.702,vts_reward_expectancy_bt,2022.2.4,MacIntel,60.0024001,Chrome,1440,900,,,,,0,639,,,,,,,,,,,,,,,,,132,F,triangle,1,0,,,,,,,,,,,,,,,,repeat,number,numRpt,d,0.9155,noRew,,,,,,0,53,0,53,0,1,,,,,,,,,,,,,,,,,
293857,2022-12-02_23h36.59.702,vts_reward_expectancy_bt,2022.2.4,MacIntel,60.0024001,Chrome,1440,900,,,,,0,639,,,,,,,,,,,,,,,,,146,S,circle,1,0,,,,,,,,,,,,,,,,repeat,number,numRpt,d,1.0639,noRew,,,,,,0,54,0,54,0,1,,,,,,,,,,,,,,,,,
293857,2022-12-02_23h36.59.702,vts_reward_expectancy_bt,2022.2.4,MacIntel,60.0024001,Chrome,1440,900,,,,,0,639,,,,,,,,,,,,,,,,,181,Y,hexagon,1,0,,,,,,,,,,,,,,,,repeat,number,numRpt,f,0.7136,noRew,,,,,,0,55,0,55,0,1,,,,,,,,,,,,,,,,,
293857,2022-12-02_23h36.59.702,vts_reward_expectancy_bt,2022.2.4,MacIntel,60.0024001,Chrome,1440,900,,,,,0,639,,,,,,,,,,,,,,,,,132,U,circle,1,0,,,,,,,,,,,,,,,,repeat,number,numRpt,d,0.6444,noRew,,,,,,0,56,0,56,0,1,,,,,,,,,,,,,,,,,
293857,2022-12-02_23h36.59.702,vts_reward_expectancy_bt,2022.2.4,MacIntel,60.0024001,Chrome,1440,900,,,,,0,639,,,,,,,,,,,,,,,,,146,W,star,1,0,,,,,,,,,,,,,,,,repeat,number,numRpt,d,0.9552,noRew,,,,,,0,57,0,57,0,1,,,,,,,,,,,,,,,,,
293857,2022-12-02_23h36.59.702,vts_reward_expectancy_bt,2022.2.4,MacIntel,60.0024001,Chrome,1440,900,,,,,0,639,,,,,,,,,,,,,,,,,174,B,hexagon,1,0,,,,,,,,,,,,,,,,repeat,number,numRpt,f,0.7152,noRew,,,,,,0,58,0,58,0,1,,,,,,,,,,,,,,,,,
293857,2022-12-02_23h36.59.702,vts_reward_expectancy_bt,2022.2.4,MacIntel,60.0024001,Chrome,1440,900,,,,,0,639,,,,,,,,,,,,,,,,,167,Y,star,1,0,,,,,,,,,,,,,,,,repeat,number,numRpt,f,1.18,noRew,,,,,,0,59,0,59,0,1,,,,,,,,,,,,,,,,,
293857,2022-12-02_23h36.59.702,vts_reward_expectancy_bt,2022.2.4,MacIntel,60.0024001,Chrome,1440,900,,,,,0,639,,,,,,,,,,,,,,,,,160,B,hexagon,1,0,,,,,,,,,,,,,,,,repeat,number,numRpt,f,0.8153,noRew,,,,,,0,60,0,60,0,1,,,,,,,,,,,,,,,,,
293857,2022-12-02_23h36.59.702,vts_reward_expectancy_bt,2022.2.4,MacIntel,60.0024001,Chrome,1440,900,,,,,0,639,,,,,,,,,,,,,,,,,132,W,circle,1,0,,,,,,,,,,,,,,,,repeat,number,numRpt,d,0.9983,noRew,,,,,,0,61,0,61,0,1,,,,,,,,,,,,,,,,,
293857,2022-12-02_23h36.59.702,vts_reward_expectancy_bt,2022.2.4,MacIntel,60.0024001,Chrome,1440,900,,,,,0,639,,,,,,,,,,,,,,,,,125,Y,star,1,0,,,,,,,,,,,,,,,,repeat,number,numRpt,d,0.8815,noRew,,,,,,0,62,0,62,0,1,,,,,,,,,,,,,,,,,
293857,2022-12-02_23h36.59.702,vts_reward_expectancy_bt,2022.2.4,MacIntel,60.0024001,Chrome,1440,900,,,,,0,639,,,,,,,,,,,,,,,,,181,S,hexagon,1,0,,,,,,,,,,,,,,,,repeat,number,numRpt,f,0.5486,noRew,,,,,,0,63,0,63,0,1,,,,,,,,,,,,,,,,,
293857,2022-12-02_23h36.59.702,vts_reward_expectancy_bt,2022.2.4,MacIntel,60.0024001,Chrome,1440,900,,,,,,,,,,,,,,,,,,,,,,,,,,,,,,,,,,,,,,,,,,,,,,,,,,,,,,,,,,,,,,,,,,,,,,,,,,,,
293857,2022-12-02_23h36.59.702,vts_reward_expectancy_bt,2022.2.4,MacIntel,60.0024001,Chrome,1440,900,,,,,10,649,,,,,,,,,,,,,,,,,125,W,triangle,1,0,,,,,,,,,,,,,,,,switch,letter,lettSwt,k,1.3974,Lo,,,,,,0,,,,,,space,22.093,high,0,0,0,0,1,,,,,,,,,
293857,2022-12-02_23h36.59.702,vts_reward_expectancy_bt,2022.2.4,MacIntel,60.0024001,Chrome,1440,900,,,,,0,649,,,,,,,,,,,,,,,,,132,S,star,1,0,,,,,,,,,,,,,,,,switch,number,numSwt,d,1.6146,Hi,,,,,,0,,,,,,,,high,1,0,1,0,1,,,,,,,,,
293857,2022-12-02_23h36.59.702,vts_reward_expectancy_bt,2022.2.4,MacIntel,60.0024001,Chrome,1440,900,,,,,1,650,,,,,,,,,,,,,,,,,146,Y,hexagon,1,0,,,,,,,,,,,,,,,,switch,letter,lettSwt,k,0.7109,Lo,,,,,,0,,,,,,,,high,2,0,2,0,1,,,,,,,,,
293857,2022-12-02_23h36.59.702,vts_reward_expectancy_bt,2022.2.4,MacIntel,60.0024001,Chrome,1440,900,,,,,10,660,,,,,,,,,,,,,,,,,174,H,circle,1,0,,,,,,,,,,,,,,,,switch,number,numSwt,f,0.7026,Hi,,,,,,0,,,,,,,,high,3,0,3,0,1,,,,,,,,,
293857,2022-12-02_23h36.59.702,vts_reward_expectancy_bt,2022.2.4,MacIntel,60.0024001,Chrome,1440,900,,,,,1,661,,,,,,,,,,,,,,,,,181,U,triangle,1,0,,,,,,,,,,,,,,,,switch,letter,lettSwt,k,0.548,Lo,,,,,,0,,,,,,,,high,4,0,4,0,1,,,,,,,,,
293857,2022-12-02_23h36.59.702,vts_reward_expectancy_bt,2022.2.4,MacIntel,60.0024001,Chrome,1440,900,,,,,10,671,,,,,,,,,,,,,,,,,167,B,star,1,0,,,,,,,,,,,,,,,,switch,number,numSwt,f,0.9211,Hi,,,,,,0,,,,,,,,high,5,0,5,0,1,,,,,,,,,
293857,2022-12-02_23h36.59.702,vts_reward_expectancy_bt,2022.2.4,MacIntel,60.0024001,Chrome,1440,900,,,,,1,672,,,,,,,,,,,,,,,,,139,F,hexagon,1,0,,,,,,,,,,,,,,,,repeat,number,numRpt,d,0.5471,Lo,,,,,,0,,,,,,,,high,6,0,6,0,1,,,,,,,,,
293857,2022-12-02_23h36.59.702,vts_reward_expectancy_bt,2022.2.4,MacIntel,60.0024001,Chrome,1440,900,,,,,10,682,,,,,,,,,,,,,,,,,160,D,circle,1,0,,,,,,,,,,,,,,,,switch,letter,lettSwt,j,0.583,Hi,,,,,,0,,,,,,,,high,7,0,7,0,1,,,,,,,,,
293857,2022-12-02_23h36.59.702,vts_reward_expectancy_bt,2022.2.4,MacIntel,60.0024001,Chrome,1440,900,,,,,10,692,,,,,,,,,,,,,,,,,125,W,star,1,0,,,,,,,,,,,,,,,,repeat,letter,lettRpt,k,0.5806,Hi,,,,,,0,,,,,,,,high,8,0,8,0,1,,,,,,,,,
293857,2022-12-02_23h36.59.702,vts_reward_expectancy_bt,2022.2.4,MacIntel,60.0024001,Chrome,1440,900,,,,,0,692,,,,,,,,,,,,,,,,,132,S,circle,0,0,,,,,,,,,,,,,,,,switch,number,NA,f,0.5802,Hi,,,,,,0,,,,,,,,high,9,0,9,0,1,,,,,,,,,
293857,2022-12-02_23h36.59.702,vts_reward_expectancy_bt,2022.2.4,MacIntel,60.0024001,Chrome,1440,900,,,,,1,693,,,,,,,,,,,,,,,,,146,Y,triangle,1,1,,,,,,,,,,,,,,,,repeat,number,numRpt,d,0.8634,Lo,,,,,,0,,,,,,,,high,10,0,10,0,1,,,,,,,,,
293857,2022-12-02_23h36.59.702,vts_reward_expectancy_bt,2022.2.4,MacIntel,60.0024001,Chrome,1440,900,,,,,1,694,,,,,,,,,,,,,,,,,174,H,hexagon,1,0,,,,,,,,,,,,,,,,switch,letter,lettSwt,j,0.8294,Lo,,,,,,0,,,,,,,,high,11,0,11,0,1,,,,,,,,,
293857,2022-12-02_23h36.59.702,vts_reward_expectancy_bt,2022.2.4,MacIntel,60.0024001,Chrome,1440,900,,,,,10,704,,,,,,,,,,,,,,,,,181,U,star,1,0,,,,,,,,,,,,,,,,switch,number,numSwt,f,0.7626,Hi,,,,,,0,,,,,,,,high,12,0,12,0,1,,,,,,,,,
293857,2022-12-02_23h36.59.702,vts_reward_expectancy_bt,2022.2.4,MacIntel,60.0024001,Chrome,1440,900,,,,,1,705,,,,,,,,,,,,,,,,,167,B,circle,1,0,,,,,,,,,,,,,,,,switch,letter,lettSwt,j,0.8329,Hi,,,,,,0,,,,,,,,high,13,0,13,0,1,,,,,,,,,
293857,2022-12-02_23h36.59.702,vts_reward_expectancy_bt,2022.2.4,MacIntel,60.0024001,Chrome,1440,900,,,,,1,706,,,,,,,,,,,,,,,,,139,F,triangle,1,0,,,,,,,,,,,,,,,,switch,number,numSwt,d,0.8676,Lo,,,,,,0,,,,,,,,high,14,0,14,0,1,,,,,,,,,
293857,2022-12-02_23h36.59.702,vts_reward_expectancy_bt,2022.2.4,MacIntel,60.0024001,Chrome,1440,900,,,,,1,707,,,,,,,,,,,,,,,,,160,D,hexagon,1,0,,,,,,,,,,,,,,,,switch,letter,lettSwt,j,0.8897,Lo,,,,,,0,,,,,,,,high,15,0,15,0,1,,,,,,,,,
293857,2022-12-02_23h36.59.702,vts_reward_expectancy_bt,2022.2.4,MacIntel,60.0024001,Chrome,1440,900,,,,,10,717,,,,,,,,,,,,,,,,,160,F,star,1,0,,,,,,,,,,,,,,,,repeat,letter,lettRpt,j,1.0656,Hi,,,,,,0,,,,,,,,high,16,0,16,0,1,,,,,,,,,
293857,2022-12-02_23h36.59.702,vts_reward_expectancy_bt,2022.2.4,MacIntel,60.0024001,Chrome,1440,900,,,,,0,717,,,,,,,,,,,,,,,,,167,D,hexagon,0,0,,,,,,,,,,,,,,,,switch,number,NA,d,0.8648,Hi,,,,,,0,,,,,,,,high,17,0,17,0,1,,,,,,,,,
293857,2022-12-02_23h36.59.702,vts_reward_expectancy_bt,2022.2.4,MacIntel,60.0024001,Chrome,1440,900,,,,,1,718,,,,,,,,,,,,,,,,,139,B,triangle,1,1,,,,,,,,,,,,,,,,switch,letter,lettSwt,j,0.7882,Lo,,,,,,0,,,,,,,,high,18,0,18,0,1,,,,,,,,,
293857,2022-12-02_23h36.59.702,vts_reward_expectancy_bt,2022.2.4,MacIntel,60.0024001,Chrome,1440,900,,,,,10,728,,,,,,,,,,,,,,,,,132,S,circle,1,0,,,,,,,,,,,,,,,,repeat,letter,lettRpt,k,0.6156,Hi,,,,,,0,,,,,,,,high,19,0,19,0,1,,,,,,,,,
293857,2022-12-02_23h36.59.702,vts_reward_expectancy_bt,2022.2.4,MacIntel,60.0024001,Chrome,1440,900,,,,,1,729,,,,,,,,,,,,,,,,,174,H,hexagon,1,0,,,,,,,,,,,,,,,,switch,number,numSwt,f,0.597,Lo,,,,,,0,,,,,,,,high,20,0,20,0,1,,,,,,,,,
293857,2022-12-02_23h36.59.702,vts_reward_expectancy_bt,2022.2.4,MacIntel,60.0024001,Chrome,1440,900,,,,,1,730,,,,,,,,,,,,,,,,,181,W,triangle,1,0,,,,,,,,,,,,,,,,repeat,number,numRpt,f,0.6481,Lo,,,,,,0,,,,,,,,high,21,0,21,0,1,,,,,,,,,
293857,2022-12-02_23h36.59.702,vts_reward_expectancy_bt,2022.2.4,MacIntel,60.0024001,Chrome,1440,900,,,,,10,740,,,,,,,,,,,,,,,,,125,Y,circle,1,0,,,,,,,,,,,,,,,,switch,letter,lettSwt,k,0.9106,Hi,,,,,,0,,,,,,,,high,22,0,22,0,1,,,,,,,,,
293857,2022-12-02_23h36.59.702,vts_reward_expectancy_bt,2022.2.4,MacIntel,60.0024001,Chrome,1440,900,,,,,10,750,,,,,,,,,,,,,,,,,146,U,star,1,0,,,,,,,,,,,,,,,,switch,number,numSwt,d,0.8158,Hi,,,,,,0,,,,,,,,high,23,0,23,0,1,,,,,,,,,
293857,2022-12-02_23h36.59.702,vts_reward_expectancy_bt,2022.2.4,MacIntel,60.0024001,Chrome,1440,900,,,,,10,760,,,,,,,,,,,,,,,,,174,Y,circle,1,0,,,,,,,,,,,,,,,,switch,letter,lettSwt,k,0.5621,Hi,,,,,,0,,,,,,,,high,24,0,24,0,1,,,,,,,,,
293857,2022-12-02_23h36.59.702,vts_reward_expectancy_bt,2022.2.4,MacIntel,60.0024001,Chrome,1440,900,,,,,10,770,,,,,,,,,,,,,,,,,146,W,triangle,1,0,,,,,,,,,,,,,,,,repeat,letter,lettRpt,k,0.9298,Lo,,,,,,0,,,,,,,,high,25,0,25,0,1,,,,,,,,,
293857,2022-12-02_23h36.59.702,vts_reward_expectancy_bt,2022.2.4,MacIntel,60.0024001,Chrome,1440,900,,,,,1,771,,,,,,,,,,,,,,,,,167,U,hexagon,1,0,,,,,,,,,,,,,,,,repeat,letter,lettRpt,k,0.5675,Lo,,,,,,0,,,,,,,,high,26,0,26,0,1,,,,,,,,,
293857,2022-12-02_23h36.59.702,vts_reward_expectancy_bt,2022.2.4,MacIntel,60.0024001,Chrome,1440,900,,,,,10,781,,,,,,,,,,,,,,,,,139,H,star,1,0,,,,,,,,,,,,,,,,switch,number,numSwt,d,0.9464,Hi,,,,,,0,,,,,,,,high,27,0,27,0,1,,,,,,,,,
293857,2022-12-02_23h36.59.702,vts_reward_expectancy_bt,2022.2.4,MacIntel,60.0024001,Chrome,1440,900,,,,,1,782,,,,,,,,,,,,,,,,,160,D,triangle,1,0,,,,,,,,,,,,,,,,switch,letter,lettSwt,j,0.7128,Lo,,,,,,0,,,,,,,,high,28,0,28,0,1,,,,,,,,,
293857,2022-12-02_23h36.59.702,vts_reward_expectancy_bt,2022.2.4,MacIntel,60.0024001,Chrome,1440,900,,,,,10,792,,,,,,,,,,,,,,,,,181,F,circle,1,0,,,,,,,,,,,,,,,,repeat,letter,lettRpt,j,0.8325,Hi,,,,,,0,,,,,,,,high,29,0,29,0,1,,,,,,,,,
293857,2022-12-02_23h36.59.702,vts_reward_expectancy_bt,2022.2.4,MacIntel,60.0024001,Chrome,1440,900,,,,,10,802,,,,,,,,,,,,,,,,,125,B,star,1,0,,,,,,,,,,,,,,,,switch,number,numSwt,d,0.781,Hi,,,,,,0,,,,,,,,high,30,0,30,0,1,,,,,,,,,
293857,2022-12-02_23h36.59.702,vts_reward_expectancy_bt,2022.2.4,MacIntel,60.0024001,Chrome,1440,900,,,,,1,803,,,,,,,,,,,,,,,,,132,S,hexagon,1,0,,,,,,,,,,,,,,,,repeat,number,numRpt,d,0.7499,Lo,,,,,,0,,,,,,,,high,31,0,31,0,1,,,,,,,,,
293857,2022-12-02_23h36.59.702,vts_reward_expectancy_bt,2022.2.4,MacIntel,60.0024001,Chrome,1440,900,,,,,0,803,,,,,,,,,,,,,,,,,146,D,circle,1,0,,,,,,,,,,,,,,,,switch,letter,lettSwt,j,0.8058,Hi,,,,,,1,,,,,,space,7.2389,high,0,0,0,0,1,,,,,,,,,
293857,2022-12-02_23h36.59.702,vts_reward_expectancy_bt,2022.2.4,MacIntel,60.0024001,Chrome,1440,900,,,,,1,804,,,,,,,,,,,,,,,,,139,W,hexagon,1,0,,,,,,,,,,,,,,,,switch,number,numSwt,d,0.7057,Lo,,,,,,1,,,,,,,,high,1,0,1,0,1,,,,,,,,,
293857,2022-12-02_23h36.59.702,vts_reward_expectancy_bt,2022.2.4,MacIntel,60.0024001,Chrome,1440,900,,,,,10,814,,,,,,,,,,,,,,,,,125,B,star,1,0,,,,,,,,,,,,,,,,switch,letter,lettSwt,j,0.6648,Hi,,,,,,1,,,,,,,,high,2,0,2,0,1,,,,,,,,,
293857,2022-12-02_23h36.59.702,vts_reward_expectancy_bt,2022.2.4,MacIntel,60.0024001,Chrome,1440,900,,,,,0,814,,,,,,,,,,,,,,,,,181,S,triangle,0,0,,,,,,,,,,,,,,,,repeat,letter,NA,j,0.5153,Hi,,,,,,1,,,,,,,,high,3,0,3,0,1,,,,,,,,,
293857,2022-12-02_23h36.59.702,vts_reward_expectancy_bt,2022.2.4,MacIntel,60.0024001,Chrome,1440,900,,,,,0,814,,,,,,,,,,,,,,,,,174,Y,circle,1,1,,,,,,,,,,,,,,,,repeat,letter,lettRpt,k,0.6659,Hi,,,,,,1,,,,,,,,high,4,0,4,0,1,,,,,,,,,
293857,2022-12-02_23h36.59.702,vts_reward_expectancy_bt,2022.2.4,MacIntel,60.0024001,Chrome,1440,900,,,,,0,814,,,,,,,,,,,,,,,,,160,F,hexagon,0,0,,,,,,,,,,,,,,,,switch,number,NA,d,0.5655,Hi,,,,,,1,,,,,,,,high,5,0,5,0,1,,,,,,,,,
293857,2022-12-02_23h36.59.702,vts_reward_expectancy_bt,2022.2.4,MacIntel,60.0024001,Chrome,1440,900,,,,,1,815,,,,,,,,,,,,,,,,,167,U,star,1,1,,,,,,,,,,,,,,,,switch,letter,lettSwt,k,0.617,Hi,,,,,,1,,,,,,,,high,6,0,6,0,1,,,,,,,,,
293857,2022-12-02_23h36.59.702,vts_reward_expectancy_bt,2022.2.4,MacIntel,60.0024001,Chrome,1440,900,,,,,10,825,,,,,,,,,,,,,,,,,132,H,triangle,1,0,,,,,,,,,,,,,,,,repeat,letter,lettRpt,j,0.7772,Lo,,,,,,1,,,,,,,,high,7,0,7,0,1,,,,,,,,,
293857,2022-12-02_23h36.59.702,vts_reward_expectancy_bt,2022.2.4,MacIntel,60.0024001,Chrome,1440,900,,,,,0,825,,,,,,,,,,,,,,,,,146,D,star,1,0,,,,,,,,,,,,,,,,repeat,letter,lettRpt,j,0.7832,Hi,,,,,,1,,,,,,,,high,8,0,8,0,1,,,,,,,,,
293857,2022-12-02_23h36.59.702,vts_reward_expectancy_bt,2022.2.4,MacIntel,60.0024001,Chrome,1440,900,,,,,0,825,,,,,,,,,,,,,,,,,139,W,triangle,0,0,,,,,,,,,,,,,,,,repeat,letter,NA,j,0.4379,Hi,,,,,,1,,,,,,,,high,9,0,9,0,1,,,,,,,,,
293857,2022-12-02_23h36.59.702,vts_reward_expectancy_bt,2022.2.4,MacIntel,60.0024001,Chrome,1440,900,,,,,0,825,,,,,,,,,,,,,,,,,125,B,hexagon,-1,1,,,,,,,,,,,,,,,,switch,no_choice,NA,,,Hi,,,,,,1,,,,,,,,high,10,0,10,0,1,,,,,,,,,
293857,2022-12-02_23h36.59.702,vts_reward_expectancy_bt,2022.2.4,MacIntel,60.0024001,Chrome,1440,900,,,,,0,825,,,,,,,,,,,,,,,,,181,S,circle,1,0,,,,,,,,,,,,,,,,switch,number,numSwt,f,1.0636,Hi,,,,,,1,,,,,,,,high,11,0,11,0,1,,,,,,,,,
293857,2022-12-02_23h36.59.702,vts_reward_expectancy_bt,2022.2.4,MacIntel,60.0024001,Chrome,1440,900,,,,,10,835,,,,,,,,,,,,,,,,,174,Y,hexagon,1,0,,,,,,,,,,,,,,,,repeat,number,numRpt,f,0.5236,Lo,,,,,,1,,,,,,,,high,12,0,12,0,1,,,,,,,,,
293857,2022-12-02_23h36.59.702,vts_reward_expectancy_bt,2022.2.4,MacIntel,60.0024001,Chrome,1440,900,,,,,10,845,,,,,,,,,,,,,,,,,160,F,circle,1,0,,,,,,,,,,,,,,,,switch,letter,lettSwt,j,0.6785,Hi,,,,,,1,,,,,,,,high,13,0,13,0,1,,,,,,,,,
293857,2022-12-02_23h36.59.702,vts_reward_expectancy_bt,2022.2.4,MacIntel,60.0024001,Chrome,1440,900,,,,,0,845,,,,,,,,,,,,,,,,,167,U,star,1,0,,,,,,,,,,,,,,,,repeat,letter,lettRpt,k,0.714,Hi,,,,,,1,,,,,,,,high,14,0,14,0,1,,,,,,,,,
293857,2022-12-02_23h36.59.702,vts_reward_expectancy_bt,2022.2.4,MacIntel,60.0024001,Chrome,1440,900,,,,,1,846,,,,,,,,,,,,,,,,,132,H,triangle,1,0,,,,,,,,,,,,,,,,switch,number,numSwt,d,0.5974,Lo,,,,,,1,,,,,,,,high,15,0,15,0,1,,,,,,,,,
293857,2022-12-02_23h36.59.702,vts_reward_expectancy_bt,2022.2.4,MacIntel,60.0024001,Chrome,1440,900,,,,,10,856,,,,,,,,,,,,,,,,,139,U,star,1,0,,,,,,,,,,,,,,,,switch,letter,lettSwt,k,0.6123,Hi,,,,,,1,,,,,,,,high,16,0,16,0,1,,,,,,,,,
293857,2022-12-02_23h36.59.702,vts_reward_expectancy_bt,2022.2.4,MacIntel,60.0024001,Chrome,1440,900,,,,,10,866,,,,,,,,,,,,,,,,,181,B,hexagon,1,0,,,,,,,,,,,,,,,,switch,number,numSwt,f,1.0826,Lo,,,,,,1,,,,,,,,high,17,0,17,0,1,,,,,,,,,
293857,2022-12-02_23h36.59.702,vts_reward_expectancy_bt,2022.2.4,MacIntel,60.0024001,Chrome,1440,900,,,,,0,866,,,,,,,,,,,,,,,,,174,H,circle,0,0,,,,,,,,,,,,,,,,switch,letter,NA,k,0.7168,Lo,,,,,,1,,,,,,,,high,18,0,18,0,1,,,,,,,,,
293857,2022-12-02_23h36.59.702,vts_reward_expectancy_bt,2022.2.4,MacIntel,60.0024001,Chrome,1440,900,,,,,1,867,,,,,,,,,,,,,,,,,125,D,triangle,1,1,,,,,,,,,,,,,,,,switch,number,numSwt,d,0.6501,Lo,,,,,,1,,,,,,,,high,19,0,19,0,1,,,,,,,,,
293857,2022-12-02_23h36.59.702,vts_reward_expectancy_bt,2022.2.4,MacIntel,60.0024001,Chrome,1440,900,,,,,1,868,,,,,,,,,,,,,,,,,146,S,hexagon,1,0,,,,,,,,,,,,,,,,repeat,number,numRpt,d,0.7139,Lo,,,,,,1,,,,,,,,high,20,0,20,0,1,,,,,,,,,
293857,2022-12-02_23h36.59.702,vts_reward_expectancy_bt,2022.2.4,MacIntel,60.0024001,Chrome,1440,900,,,,,1,869,,,,,,,,,,,,,,,,,132,Y,circle,1,0,,,,,,,,,,,,,,,,switch,letter,lettSwt,k,0.6967,Hi,,,,,,1,,,,,,,,high,21,0,21,0,1,,,,,,,,,
293857,2022-12-02_23h36.59.702,vts_reward_expectancy_bt,2022.2.4,MacIntel,60.0024001,Chrome,1440,900,,,,,1,870,,,,,,,,,,,,,,,,,160,W,triangle,1,0,,,,,,,,,,,,,,,,repeat,letter,lettRpt,k,0.7625,Lo,,,,,,1,,,,,,,,high,22,0,22,0,1,,,,,,,,,
293857,2022-12-02_23h36.59.702,vts_reward_expectancy_bt,2022.2.4,MacIntel,60.0024001,Chrome,1440,900,,,,,0,870,,,,,,,,,,,,,,,,,167,F,star,1,0,,,,,,,,,,,,,,,,switch,number,numSwt,f,1.398,Hi,,,,,,1,,,,,,,,high,23,0,23,0,1,,,,,,,,,
293857,2022-12-02_23h36.59.702,vts_reward_expectancy_bt,2022.2.4,MacIntel,60.0024001,Chrome,1440,900,,,,,1,871,,,,,,,,,,,,,,,,,167,F,hexagon,1,0,,,,,,,,,,,,,,,,switch,letter,lettSwt,j,1.2922,Lo,,,,,,1,,,,,,,,high,24,0,24,0,1,,,,,,,,,
293857,2022-12-02_23h36.59.702,vts_reward_expectancy_bt,2022.2.4,MacIntel,60.0024001,Chrome,1440,900,,,,,10,881,,,,,,,,,,,,,,,,,139,B,triangle,1,0,,,,,,,,,,,,,,,,repeat,letter,lettRpt,j,0.7796,Lo,,,,,,1,,,,,,,,high,25,0,25,0,1,,,,,,,,,
293857,2022-12-02_23h36.59.702,vts_reward_expectancy_bt,2022.2.4,MacIntel,60.0024001,Chrome,1440,900,,,,,0,881,,,,,,,,,,,,,,,,,174,D,star,1,0,,,,,,,,,,,,,,,,repeat,letter,lettRpt,j,0.6639,Hi,,,,,,1,,,,,,,,high,26,0,26,0,1,,,,,,,,,
293857,2022-12-02_23h36.59.702,vts_reward_expectancy_bt,2022.2.4,MacIntel,60.0024001,Chrome,1440,900,,,,,10,891,,,,,,,,,,,,,,,,,132,U,circle,1,0,,,,,,,,,,,,,,,,repeat,letter,lettRpt,k,0.5381,Hi,,,,,,1,,,,,,,,high,27,0,27,0,1,,,,,,,,,
293857,2022-12-02_23h36.59.702,vts_reward_expectancy_bt,2022.2.4,MacIntel,60.0024001,Chrome,1440,900,,,,,0,891,,,,,,,,,,,,,,,,,125,H,circle,0,0,,,,,,,,,,,,,,,,repeat,letter,NA,k,0.6483,Hi,,,,,,1,,,,,,,,high,28,0,28,0,1,,,,,,,,,
293857,2022-12-02_23h36.59.702,vts_reward_expectancy_bt,2022.2.4,MacIntel,60.0024001,Chrome,1440,900,,,,,1,892,,,,,,,,,,,,,,,,,160,Y,triangle,1,1,,,,,,,,,,,,,,,,repeat,letter,lettRpt,k,0.7447,Lo,,,,,,1,,,,,,,,high,29,0,29,0,1,,,,,,,,,
293857,2022-12-02_23h36.59.702,vts_reward_expectancy_bt,2022.2.4,MacIntel,60.0024001,Chrome,1440,900,,,,,0,892,,,,,,,,,,,,,,,,,146,W,star,1,0,,,,,,,,,,,,,,,,repeat,letter,lettRpt,k,0.6786,Hi,,,,,,1,,,,,,,,high,30,0,30,0,1,,,,,,,,,
293857,2022-12-02_23h36.59.702,vts_reward_expectancy_bt,2022.2.4,MacIntel,60.0024001,Chrome,1440,900,,,,,1,893,,,,,,,,,,,,,,,,,181,S,hexagon,1,0,,,,,,,,,,,,,,,,switch,number,numSwt,f,0.5987,Lo,,,,,,1,,,,,,,,high,31,0,31,0,1,,,,,,,,,
293857,2022-12-02_23h36.59.702,vts_reward_expectancy_bt,2022.2.4,MacIntel,60.0024001,Chrome,1440,900,,,,,10,903,,,,,,,,,,,,,,,,,167,S,star,1,0,,,,,,,,,,,,,,,,switch,letter,lettSwt,k,0.6218,Hi,,,,,,2,,,,,,space,4.6144,high,0,0,0,0,1,,,,,,,,,
293857,2022-12-02_23h36.59.702,vts_reward_expectancy_bt,2022.2.4,MacIntel,60.0024001,Chrome,1440,900,,,,,1,904,,,,,,,,,,,,,,,,,125,Y,triangle,1,0,,,,,,,,,,,,,,,,switch,number,numSwt,d,0.7191,Lo,,,,,,2,,,,,,,,high,1,0,1,0,1,,,,,,,,,
293857,2022-12-02_23h36.59.702,vts_reward_expectancy_bt,2022.2.4,MacIntel,60.0024001,Chrome,1440,900,,,,,1,905,,,,,,,,,,,,,,,,,181,H,hexagon,1,0,,,,,,,,,,,,,,,,switch,letter,lettSwt,j,0.6447,Lo,,,,,,2,,,,,,,,high,2,0,2,0,1,,,,,,,,,
293857,2022-12-02_23h36.59.702,vts_reward_expectancy_bt,2022.2.4,MacIntel,60.0024001,Chrome,1440,900,,,,,10,915,,,,,,,,,,,,,,,,,139,F,circle,1,0,,,,,,,,,,,,,,,,repeat,letter,lettRpt,j,0.6028,Hi,,,,,,2,,,,,,,,high,3,0,3,0,1,,,,,,,,,
293857,2022-12-02_23h36.59.702,vts_reward_expectancy_bt,2022.2.4,MacIntel,60.0024001,Chrome,1440,900,,,,,0,915,,,,,,,,,,,,,,,,,146,W,star,1,0,,,,,,,,,,,,,,,,switch,number,numSwt,d,0.837,Hi,,,,,,2,,,,,,,,high,4,0,4,0,1,,,,,,,,,
293857,2022-12-02_23h36.59.702,vts_reward_expectancy_bt,2022.2.4,MacIntel,60.0024001,Chrome,1440,900,,,,,1,916,,,,,,,,,,,,,,,,,174,D,triangle,1,0,,,,,,,,,,,,,,,,repeat,number,numRpt,f,0.6646,Lo,,,,,,2,,,,,,,,high,5,0,5,0,1,,,,,,,,,
293857,2022-12-02_23h36.59.702,vts_reward_expectancy_bt,2022.2.4,MacIntel,60.0024001,Chrome,1440,900,,,,,10,926,,,,,,,,,,,,,,,,,132,B,hexagon,1,0,,,,,,,,,,,,,,,,repeat,number,numRpt,d,0.7068,Lo,,,,,,2,,,,,,,,high,6,0,6,0,1,,,,,,,,,
293857,2022-12-02_23h36.59.702,vts_reward_expectancy_bt,2022.2.4,MacIntel,60.0024001,Chrome,1440,900,,,,,10,936,,,,,,,,,,,,,,,,,160,U,circle,1,0,,,,,,,,,,,,,,,,switch,letter,lettSwt,k,0.5635,Hi,,,,,,2,,,,,,,,high,7,0,7,0,1,,,,,,,,,
293857,2022-12-02_23h36.59.702,vts_reward_expectancy_bt,2022.2.4,MacIntel,60.0024001,Chrome,1440,900,,,,,1,937,,,,,,,,,,,,,,,,,167,S,star,1,0,,,,,,,,,,,,,,,,repeat,letter,lettRpt,k,0.6564,Hi,,,,,,2,,,,,,,,high,8,0,8,0,1,,,,,,,,,
293857,2022-12-02_23h36.59.702,vts_reward_expectancy_bt,2022.2.4,MacIntel,60.0024001,Chrome,1440,900,,,,,10,947,,,,,,,,,,,,,,,,,125,Y,hexagon,1,0,,,,,,,,,,,,,,,,repeat,letter,lettRpt,k,0.7371,Lo,,,,,,2,,,,,,,,high,9,0,9,0,1,,,,,,,,,
293857,2022-12-02_23h36.59.702,vts_reward_expectancy_bt,2022.2.4,MacIntel,60.0024001,Chrome,1440,900,,,,,10,957,,,,,,,,,,,,,,,,,181,H,circle,1,0,,,,,,,,,,,,,,,,repeat,letter,lettRpt,j,0.6467,Hi,,,,,,2,,,,,,,,high,10,0,10,0,1,,,,,,,,,
293857,2022-12-02_23h36.59.702,vts_reward_expectancy_bt,2022.2.4,MacIntel,60.0024001,Chrome,1440,900,,,,,10,967,,,,,,,,,,,,,,,,,139,F,triangle,1,0,,,,,,,,,,,,,,,,switch,number,numSwt,d,0.7383,Lo,,,,,,2,,,,,,,,high,11,0,11,0,1,,,,,,,,,
293857,2022-12-02_23h36.59.702,vts_reward_expectancy_bt,2022.2.4,MacIntel,60.0024001,Chrome,1440,900,,,,,10,977,,,,,,,,,,,,,,,,,146,W,hexagon,1,0,,,,,,,,,,,,,,,,switch,letter,lettSwt,k,0.5395,Lo,,,,,,2,,,,,,,,high,12,0,12,0,1,,,,,,,,,
293857,2022-12-02_23h36.59.702,vts_reward_expectancy_bt,2022.2.4,MacIntel,60.0024001,Chrome,1440,900,,,,,1,978,,,,,,,,,,,,,,,,,174,D,triangle,1,0,,,,,,,,,,,,,,,,repeat,letter,lettRpt,j,0.6803,Lo,,,,,,2,,,,,,,,high,13,0,13,0,1,,,,,,,,,
293857,2022-12-02_23h36.59.702,vts_reward_expectancy_bt,2022.2.4,MacIntel,60.0024001,Chrome,1440,900,,,,,10,988,,,,,,,,,,,,,,,,,132,B,circle,1,0,,,,,,,,,,,,,,,,repeat,letter,lettRpt,j,0.6721,Hi,,,,,,2,,,,,,,,high,14,0,14,0,1,,,,,,,,,
293857,2022-12-02_23h36.59.702,vts_reward_expectancy_bt,2022.2.4,MacIntel,60.0024001,Chrome,1440,900,,,,,0,988,,,,,,,,,,,,,,,,,160,U,star,1,0,,,,,,,,,,,,,,,,repeat,letter,lettRpt,k,0.6822,Hi,,,,,,2,,,,,,,,high,15,0,15,0,1,,,,,,,,,
293857,2022-12-02_23h36.59.702,vts_reward_expectancy_bt,2022.2.4,MacIntel,60.0024001,Chrome,1440,900,,,,,1,989,,,,,,,,,,,,,,,,,125,D,hexagon,1,0,,,,,,,,,,,,,,,,switch,number,numSwt,d,0.6468,Lo,,,,,,2,,,,,,,,high,16,0,16,0,1,,,,,,,,,
293857,2022-12-02_23h36.59.702,vts_reward_expectancy_bt,2022.2.4,MacIntel,60.0024001,Chrome,1440,900,,,,,10,999,,,,,,,,,,,,,,,,,146,F,circle,1,0,,,,,,,,,,,,,,,,switch,letter,lettSwt,j,0.6383,Hi,,,,,,2,,,,,,,,high,17,0,17,0,1,,,,,,,,,
293857,2022-12-02_23h36.59.702,vts_reward_expectancy_bt,2022.2.4,MacIntel,60.0024001,Chrome,1440,900,,,,,0,999,,,,,,,,,,,,,,,,,132,H,star,1,0,,,,,,,,,,,,,,,,switch,number,numSwt,d,0.6641,Hi,,,,,,2,,,,,,,,high,18,0,18,0,1,,,,,,,,,
293857,2022-12-02_23h36.59.702,vts_reward_expectancy_bt,2022.2.4,MacIntel,60.0024001,Chrome,1440,900,,,,,10,1009,,,,,,,,,,,,,,,,,139,W,triangle,1,0,,,,,,,,,,,,,,,,switch,letter,lettSwt,k,0.732,Lo,,,,,,2,,,,,,,,high,19,0,19,0,1,,,,,,,,,
293857,2022-12-02_23h36.59.702,vts_reward_expectancy_bt,2022.2.4,MacIntel,60.0024001,Chrome,1440,900,,,,,1,1010,,,,,,,,,,,,,,,,,167,Y,hexagon,1,0,,,,,,,,,,,,,,,,repeat,letter,lettRpt,k,0.6633,Lo,,,,,,2,,,,,,,,high,20,0,20,0,1,,,,,,,,,
293857,2022-12-02_23h36.59.702,vts_reward_expectancy_bt,2022.2.4,MacIntel,60.0024001,Chrome,1440,900,,,,,1,1011,,,,,,,,,,,,,,,,,160,B,triangle,1,0,,,,,,,,,,,,,,,,switch,number,numSwt,f,0.6303,Lo,,,,,,2,,,,,,,,high,21,0,21,0,1,,,,,,,,,
293857,2022-12-02_23h36.59.702,vts_reward_expectancy_bt,2022.2.4,MacIntel,60.0024001,Chrome,1440,900,,,,,10,1021,,,,,,,,,,,,,,,,,174,S,circle,1,0,,,,,,,,,,,,,,,,switch,letter,lettSwt,k,0.6336,Hi,,,,,,2,,,,,,,,high,22,0,22,0,1,,,,,,,,,
293857,2022-12-02_23h36.59.702,vts_reward_expectancy_bt,2022.2.4,MacIntel,60.0024001,Chrome,1440,900,,,,,0,1021,,,,,,,,,,,,,,,,,181,U,star,1,0,,,,,,,,,,,,,,,,switch,number,numSwt,f,1.0013,Hi,,,,,,2,,,,,,,,high,23,0,23,0,1,,,,,,,,,
293857,2022-12-02_23h36.59.702,vts_reward_expectancy_bt,2022.2.4,MacIntel,60.0024001,Chrome,1440,900,,,,,10,1031,,,,,,,,,,,,,,,,,125,B,circle,1,0,,,,,,,,,,,,,,,,switch,letter,lettSwt,j,0.4817,Hi,,,,,,2,,,,,,,,high,24,0,24,0,1,,,,,,,,,
293857,2022-12-02_23h36.59.702,vts_reward_expectancy_bt,2022.2.4,MacIntel,60.0024001,Chrome,1440,900,,,,,1,1032,,,,,,,,,,,,,,,,,167,W,hexagon,1,0,,,,,,,,,,,,,,,,repeat,letter,lettRpt,k,0.5155,Lo,,,,,,2,,,,,,,,high,25,0,25,0,1,,,,,,,,,
293857,2022-12-02_23h36.59.702,vts_reward_expectancy_bt,2022.2.4,MacIntel,60.0024001,Chrome,1440,900,,,,,10,1042,,,,,,,,,,,,,,,,,139,U,triangle,1,0,,,,,,,,,,,,,,,,repeat,letter,lettRpt,k,0.6653,Lo,,,,,,2,,,,,,,,high,26,0,26,0,1,,,,,,,,,
293857,2022-12-02_23h36.59.702,vts_reward_expectancy_bt,2022.2.4,MacIntel,60.0024001,Chrome,1440,900,,,,,0,1042,,,,,,,,,,,,,,,,,132,H,star,1,0,,,,,,,,,,,,,,,,switch,number,numSwt,d,0.7827,Hi,,,,,,2,,,,,,,,high,27,0,27,0,1,,,,,,,,,
293857,2022-12-02_23h36.59.702,vts_reward_expectancy_bt,2022.2.4,MacIntel,60.0024001,Chrome,1440,900,,,,,10,1052,,,,,,,,,,,,,,,,,146,S,circle,1,0,,,,,,,,,,,,,,,,switch,letter,lettSwt,k,0.5532,Hi,,,,,,2,,,,,,,,high,28,0,28,0,1,,,,,,,,,
293857,2022-12-02_23h36.59.702,vts_reward_expectancy_bt,2022.2.4,MacIntel,60.0024001,Chrome,1440,900,,,,,1,1053,,,,,,,,,,,,,,,,,174,Y,hexagon,1,0,,,,,,,,,,,,,,,,switch,number,numSwt,f,0.7655,Lo,,,,,,2,,,,,,,,high,29,0,29,0,1,,,,,,,,,
293857,2022-12-02_23h36.59.702,vts_reward_expectancy_bt,2022.2.4,MacIntel,60.0024001,Chrome,1440,900,,,,,1,1054,,,,,,,,,,,,,,,,,181,F,triangle,1,0,,,,,,,,,,,,,,,,repeat,number,numRpt,f,0.5826,Lo,,,,,,2,,,,,,,,high,30,0,30,0,1,,,,,,,,,
293857,2022-12-02_23h36.59.702,vts_reward_expectancy_bt,2022.2.4,MacIntel,60.0024001,Chrome,1440,900,,,,,0,1054,,,,,,,,,,,,,,,,,160,D,star,1,0,,,,,,,,,,,,,,,,repeat,number,numRpt,f,0.747,Hi,,,,,,2,,,,,,,,high,31,0,31,0,1,,,,,,,,,
293857,2022-12-02_23h36.59.702,vts_reward_expectancy_bt,2022.2.4,MacIntel,60.0024001,Chrome,1440,900,,,,,0,1054,,,,,,,,,,,,,,,,,181,B,hexagon,0,0,,,,,,,,,,,,,,,,switch,letter,NA,k,0.4654,Hi,,,,,,3,,,,,,space,1.2752,high,0,0,0,0,1,,,,,,,,,
293857,2022-12-02_23h36.59.702,vts_reward_expectancy_bt,2022.2.4,MacIntel,60.0024001,Chrome,1440,900,,,,,10,1064,,,,,,,,,,,,,,,,,160,H,star,1,1,,,,,,,,,,,,,,,,repeat,letter,lettRpt,j,0.6148,Hi,,,,,,3,,,,,,,,high,1,0,1,0,1,,,,,,,,,
293857,2022-12-02_23h36.59.702,vts_reward_expectancy_bt,2022.2.4,MacIntel,60.0024001,Chrome,1440,900,,,,,0,1064,,,,,,,,,,,,,,,,,125,S,circle,1,0,,,,,,,,,,,,,,,,repeat,letter,lettRpt,k,0.6848,Hi,,,,,,3,,,,,,,,high,2,0,2,0,1,,,,,,,,,
293857,2022-12-02_23h36.59.702,vts_reward_expectancy_bt,2022.2.4,MacIntel,60.0024001,Chrome,1440,900,,,,,1,1065,,,,,,,,,,,,,,,,,146,W,triangle,1,0,,,,,,,,,,,,,,,,repeat,letter,lettRpt,k,0.8634,Lo,,,,,,3,,,,,,,,high,3,0,3,0,1,,,,,,,,,
293857,2022-12-02_23h36.59.702,vts_reward_expectancy_bt,2022.2.4,MacIntel,60.0024001,Chrome,1440,900,,,,,1,1066,,,,,,,,,,,,,,,,,167,Y,hexagon,1,0,,,,,,,,,,,,,,,,repeat,letter,lettRpt,k,0.6043,Lo,,,,,,3,,,,,,,,high,4,0,4,0,1,,,,,,,,,
293857,2022-12-02_23h36.59.702,vts_reward_expectancy_bt,2022.2.4,MacIntel,60.0024001,Chrome,1440,900,,,,,0,1066,,,,,,,,,,,,,,,,,132,U,star,1,0,,,,,,,,,,,,,,,,repeat,letter,lettRpt,k,0.6976,Hi,,,,,,3,,,,,,,,high,5,0,5,0,1,,,,,,,,,
293857,2022-12-02_23h36.59.702,vts_reward_expectancy_bt,2022.2.4,MacIntel,60.0024001,Chrome,1440,900,,,,,10,1076,,,,,,,,,,,,,,,,,139,D,circle,1,0,,,,,,,,,,,,,,,,repeat,letter,lettRpt,j,0.584,Hi,,,,,,3,,,,,,,,high,6,0,6,0,1,,,,,,,,,
293857,2022-12-02_23h36.59.702,vts_reward_expectancy_bt,2022.2.4,MacIntel,60.0024001,Chrome,1440,900,,,,,1,1077,,,,,,,,,,,,,,,,,174,F,triangle,1,0,,,,,,,,,,,,,,,,switch,number,numSwt,f,0.7355,Lo,,,,,,3,,,,,,,,high,7,0,7,0,1,,,,,,,,,
293857,2022-12-02_23h36.59.702,vts_reward_expectancy_bt,2022.2.4,MacIntel,60.0024001,Chrome,1440,900,,,,,10,1087,,,,,,,,,,,,,,,,,181,B,star,1,0,,,,,,,,,,,,,,,,repeat,number,numRpt,f,0.654,Hi,,,,,,3,,,,,,,,high,8,0,8,0,1,,,,,,,,,
293857,2022-12-02_23h36.59.702,vts_reward_expectancy_bt,2022.2.4,MacIntel,60.0024001,Chrome,1440,900,,,,,10,1097,,,,,,,,,,,,,,,,,160,H,triangle,1,0,,,,,,,,,,,,,,,,switch,letter,lettSwt,j,0.6497,Lo,,,,,,3,,,,,,,,high,9,0,9,0,1,,,,,,,,,
293857,2022-12-02_23h36.59.702,vts_reward_expectancy_bt,2022.2.4,MacIntel,60.0024001,Chrome,1440,900,,,,,1,1098,,,,,,,,,,,,,,,,,125,S,hexagon,1,0,,,,,,,,,,,,,,,,switch,number,numSwt,d,0.7151,Lo,,,,,,3,,,,,,,,high,10,0,10,0,1,,,,,,,,,
293857,2022-12-02_23h36.59.702,vts_reward_expectancy_bt,2022.2.4,MacIntel,60.0024001,Chrome,1440,900,,,,,0,1098,,,,,,,,,,,,,,,,,146,W,circle,1,0,,,,,,,,,,,,,,,,switch,letter,lettSwt,k,0.5645,Hi,,,,,,3,,,,,,,,high,11,0,11,0,1,,,,,,,,,
293857,2022-12-02_23h36.59.702,vts_reward_expectancy_bt,2022.2.4,MacIntel,60.0024001,Chrome,1440,900,,,,,10,1108,,,,,,,,,,,,,,,,,167,Y,triangle,1,0,,,,,,,,,,,,,,,,switch,number,numSwt,f,0.6456,Lo,,,,,,3,,,,,,,,high,12,0,12,0,1,,,,,,,,,
293857,2022-12-02_23h36.59.702,vts_reward_expectancy_bt,2022.2.4,MacIntel,60.0024001,Chrome,1440,900,,,,,0,1108,,,,,,,,,,,,,,,,,132,U,circle,1,0,,,,,,,,,,,,,,,,switch,letter,lettSwt,k,0.6132,Hi,,,,,,3,,,,,,,,high,13,0,13,0,1,,,,,,,,,
293857,2022-12-02_23h36.59.702,vts_reward_expectancy_bt,2022.2.4,MacIntel,60.0024001,Chrome,1440,900,,,,,0,1108,,,,,,,,,,,,,,,,,139,D,star,0,0,,,,,,,,,,,,,,,,switch,number,NA,f,0.5319,Hi,,,,,,3,,,,,,,,high,14,0,14,0,1,,,,,,,,,
293857,2022-12-02_23h36.59.702,vts_reward_expectancy_bt,2022.2.4,MacIntel,60.0024001,Chrome,1440,900,,,,,1,1109,,,,,,,,,,,,,,,,,174,F,hexagon,1,1,,,,,,,,,,,,,,,,repeat,number,numRpt,f,0.6638,Lo,,,,,,3,,,,,,,,high,15,0,15,0,1,,,,,,,,,
293857,2022-12-02_23h36.59.702,vts_reward_expectancy_bt,2022.2.4,MacIntel,60.0024001,Chrome,1440,900,,,,,0,1109,,,,,,,,,,,,,,,,,146,S,circle,0,0,,,,,,,,,,,,,,,,switch,letter,NA,j,0.8666,Lo,,,,,,3,,,,,,,,high,16,0,16,0,1,,,,,,,,,
293857,2022-12-02_23h36.59.702,vts_reward_expectancy_bt,2022.2.4,MacIntel,60.0024001,Chrome,1440,900,,,,,0,1109,,,,,,,,,,,,,,,,,132,H,star,1,1,,,,,,,,,,,,,,,,repeat,letter,lettRpt,j,0.698,Hi,,,,,,3,,,,,,,,high,17,0,17,0,1,,,,,,,,,
293857,2022-12-02_23h36.59.702,vts_reward_expectancy_bt,2022.2.4,MacIntel,60.0024001,Chrome,1440,900,,,,,1,1110,,,,,,,,,,,,,,,,,125,D,hexagon,1,0,,,,,,,,,,,,,,,,switch,number,numSwt,d,0.6456,Lo,,,,,,3,,,,,,,,high,18,0,18,0,1,,,,,,,,,
293857,2022-12-02_23h36.59.702,vts_reward_expectancy_bt,2022.2.4,MacIntel,60.0024001,Chrome,1440,900,,,,,1,1111,,,,,,,,,,,,,,,,,167,U,triangle,1,0,,,,,,,,,,,,,,,,repeat,number,numRpt,f,0.8185,Lo,,,,,,3,,,,,,,,high,19,0,19,0,1,,,,,,,,,
293857,2022-12-02_23h36.59.702,vts_reward_expectancy_bt,2022.2.4,MacIntel,60.0024001,Chrome,1440,900,,,,,10,1121,,,,,,,,,,,,,,,,,174,B,triangle,1,0,,,,,,,,,,,,,,,,switch,letter,lettSwt,j,0.6339,Lo,,,,,,3,,,,,,,,high,20,0,20,0,1,,,,,,,,,
293857,2022-12-02_23h36.59.702,vts_reward_expectancy_bt,2022.2.4,MacIntel,60.0024001,Chrome,1440,900,,,,,0,1121,,,,,,,,,,,,,,,,,160,W,circle,1,0,,,,,,,,,,,,,,,,repeat,letter,lettRpt,k,0.7795,Hi,,,,,,3,,,,,,,,high,21,0,21,0,1,,,,,,,,,
293857,2022-12-02_23h36.59.702,vts_reward_expectancy_bt,2022.2.4,MacIntel,60.0024001,Chrome,1440,900,,,,,0,1121,,,,,,,,,,,,,,,,,181,F,hexagon,0,0,,,,,,,,,,,,,,,,repeat,letter,NA,k,0.63,Hi,,,,,,3,,,,,,,,high,22,0,22,0,1,,,,,,,,,
293857,2022-12-02_23h36.59.702,vts_reward_expectancy_bt,2022.2.4,MacIntel,60.0024001,Chrome,1440,900,,,,,0,1121,,,,,,,,,,,,,,,,,139,Y,star,0,1,,,,,,,,,,,,,,,,switch,number,NA,f,0.6029,Hi,,,,,,3,,,,,,,,high,23,0,23,0,1,,,,,,,,,
293857,2022-12-02_23h36.59.702,vts_reward_expectancy_bt,2022.2.4,MacIntel,60.0024001,Chrome,1440,900,,,,,0,1121,,,,,,,,,,,,,,,,,125,H,star,0,1,,,,,,,,,,,,,,,,switch,letter,NA,k,0.798,Hi,,,,,,3,,,,,,,,high,24,0,24,0,1,,,,,,,,,
293857,2022-12-02_23h36.59.702,vts_reward_expectancy_bt,2022.2.4,MacIntel,60.0024001,Chrome,1440,900,,,,,1,1122,,,,,,,,,,,,,,,,,146,W,triangle,1,1,,,,,,,,,,,,,,,,repeat,letter,lettRpt,k,0.7485,Lo,,,,,,3,,,,,,,,high,25,0,25,0,1,,,,,,,,,
293857,2022-12-02_23h36.59.702,vts_reward_expectancy_bt,2022.2.4,MacIntel,60.0024001,Chrome,1440,900,,,,,1,1123,,,,,,,,,,,,,,,,,139,D,hexagon,1,0,,,,,,,,,,,,,,,,repeat,letter,lettRpt,j,0.6503,Lo,,,,,,3,,,,,,,,high,26,0,26,0,1,,,,,,,,,
293857,2022-12-02_23h36.59.702,vts_reward_expectancy_bt,2022.2.4,MacIntel,60.0024001,Chrome,1440,900,,,,,0,1123,,,,,,,,,,,,,,,,,174,Y,circle,1,0,,,,,,,,,,,,,,,,repeat,letter,lettRpt,k,0.7834,Hi,,,,,,3,,,,,,,,high,27,0,27,0,1,,,,,,,,,
293857,2022-12-02_23h36.59.702,vts_reward_expectancy_bt,2022.2.4,MacIntel,60.0024001,Chrome,1440,900,,,,,1,1124,,,,,,,,,,,,,,,,,167,U,hexagon,1,0,,,,,,,,,,,,,,,,repeat,letter,lettRpt,k,0.5051,Lo,,,,,,3,,,,,,,,high,28,0,28,0,1,,,,,,,,,
293857,2022-12-02_23h36.59.702,vts_reward_expectancy_bt,2022.2.4,MacIntel,60.0024001,Chrome,1440,900,,,,,10,1134,,,,,,,,,,,,,,,,,160,F,circle,1,0,,,,,,,,,,,,,,,,repeat,letter,lettRpt,j,0.5483,Hi,,,,,,3,,,,,,,,high,29,0,29,0,1,,,,,,,,,
293857,2022-12-02_23h36.59.702,vts_reward_expectancy_bt,2022.2.4,MacIntel,60.0024001,Chrome,1440,900,,,,,10,1144,,,,,,,,,,,,,,,,,132,B,star,1,0,,,,,,,,,,,,,,,,repeat,letter,lettRpt,j,0.4666,Hi,,,,,,3,,,,,,,,high,30,0,30,0,1,,,,,,,,,
293857,2022-12-02_23h36.59.702,vts_reward_expectancy_bt,2022.2.4,MacIntel,60.0024001,Chrome,1440,900,,,,,1,1145,,,,,,,,,,,,,,,,,181,S,triangle,1,0,,,,,,,,,,,,,,,,repeat,letter,lettRpt,k,0.4697,Lo,,,,,,3,,,,,,,,high,31,0,31,0,1,,,,,,,,,
293857,2022-12-02_23h36.59.702,vts_reward_expectancy_bt,2022.2.4,MacIntel,60.0024001,Chrome,1440,900,,,,,0,1145,,,,,,,,,,,,,,,,,146,S,star,1,0,,,,,,,,,,,,,,,,repeat,letter,lettRpt,k,0.6583,Hi,,,,,,4,,,,,,space,4.953,high,0,0,0,0,1,,,,,,,,,
293857,2022-12-02_23h36.59.702,vts_reward_expectancy_bt,2022.2.4,MacIntel,60.0024001,Chrome,1440,900,,,,,10,1155,,,,,,,,,,,,,,,,,125,B,circle,1,0,,,,,,,,,,,,,,,,repeat,letter,lettRpt,j,0.4005,Hi,,,,,,4,,,,,,,,high,1,0,1,0,1,,,,,,,,,
293857,2022-12-02_23h36.59.702,vts_reward_expectancy_bt,2022.2.4,MacIntel,60.0024001,Chrome,1440,900,,,,,1,1156,,,,,,,,,,,,,,,,,181,Y,triangle,1,0,,,,,,,,,,,,,,,,switch,number,numSwt,f,0.5302,Lo,,,,,,4,,,,,,,,high,2,0,2,0,1,,,,,,,,,
293857,2022-12-02_23h36.59.702,vts_reward_expectancy_bt,2022.2.4,MacIntel,60.0024001,Chrome,1440,900,,,,,1,1157,,,,,,,,,,,,,,,,,139,D,hexagon,1,0,,,,,,,,,,,,,,,,repeat,number,numRpt,d,0.5482,Lo,,,,,,4,,,,,,,,high,3,0,3,0,1,,,,,,,,,
293857,2022-12-02_23h36.59.702,vts_reward_expectancy_bt,2022.2.4,MacIntel,60.0024001,Chrome,1440,900,,,,,0,1157,,,,,,,,,,,,,,,,,160,H,star,0,0,,,,,,,,,,,,,,,,switch,letter,NA,k,0.5477,Lo,,,,,,4,,,,,,,,high,4,0,4,0,1,,,,,,,,,
293857,2022-12-02_23h36.59.702,vts_reward_expectancy_bt,2022.2.4,MacIntel,60.0024001,Chrome,1440,900,,,,,10,1167,,,,,,,,,,,,,,,,,174,U,circle,1,1,,,,,,,,,,,,,,,,repeat,letter,lettRpt,k,0.5628,Hi,,,,,,4,,,,,,,,high,5,0,5,0,1,,,,,,,,,
293857,2022-12-02_23h36.59.702,vts_reward_expectancy_bt,2022.2.4,MacIntel,60.0024001,Chrome,1440,900,,,,,1,1168,,,,,,,,,,,,,,,,,132,F,triangle,1,0,,,,,,,,,,,,,,,,repeat,letter,lettRpt,j,0.6494,Lo,,,,,,4,,,,,,,,high,6,0,6,0,1,,,,,,,,,
293857,2022-12-02_23h36.59.702,vts_reward_expectancy_bt,2022.2.4,MacIntel,60.0024001,Chrome,1440,900,,,,,1,1169,,,,,,,,,,,,,,,,,167,W,hexagon,1,0,,,,,,,,,,,,,,,,repeat,letter,lettRpt,k,0.5856,Lo,,,,,,4,,,,,,,,high,7,0,7,0,1,,,,,,,,,
293857,2022-12-02_23h36.59.702,vts_reward_expectancy_bt,2022.2.4,MacIntel,60.0024001,Chrome,1440,900,,,,,1,1170,,,,,,,,,,,,,,,,,146,S,hexagon,1,0,,,,,,,,,,,,,,,,switch,number,numSwt,d,0.7202,Lo,,,,,,4,,,,,,,,high,8,0,8,0,1,,,,,,,,,
293857,2022-12-02_23h36.59.702,vts_reward_expectancy_bt,2022.2.4,MacIntel,60.0024001,Chrome,1440,900,,,,,10,1180,,,,,,,,,,,,,,,,,125,B,circle,1,0,,,,,,,,,,,,,,,,switch,letter,lettSwt,j,0.5021,Hi,,,,,,4,,,,,,,,high,9,0,9,0,1,,,,,,,,,
293857,2022-12-02_23h36.59.702,vts_reward_expectancy_bt,2022.2.4,MacIntel,60.0024001,Chrome,1440,900,,,,,0,1180,,,,,,,,,,,,,,,,,181,Y,star,1,0,,,,,,,,,,,,,,,,repeat,letter,lettRpt,k,0.6202,Hi,,,,,,4,,,,,,,,high,10,0,10,0,1,,,,,,,,,
293857,2022-12-02_23h36.59.702,vts_reward_expectancy_bt,2022.2.4,MacIntel,60.0024001,Chrome,1440,900,,,,,0,1180,,,,,,,,,,,,,,,,,139,D,triangle,0,0,,,,,,,,,,,,,,,,repeat,letter,NA,k,0.5669,Hi,,,,,,4,,,,,,,,high,11,0,11,0,1,,,,,,,,,
293857,2022-12-02_23h36.59.702,vts_reward_expectancy_bt,2022.2.4,MacIntel,60.0024001,Chrome,1440,900,,,,,1,1181,,,,,,,,,,,,,,,,,160,H,triangle,1,1,,,,,,,,,,,,,,,,repeat,letter,lettRpt,j,0.7197,Lo,,,,,,4,,,,,,,,high,12,0,12,0,1,,,,,,,,,
293857,2022-12-02_23h36.59.702,vts_reward_expectancy_bt,2022.2.4,MacIntel,60.0024001,Chrome,1440,900,,,,,10,1191,,,,,,,,,,,,,,,,,174,U,circle,1,0,,,,,,,,,,,,,,,,repeat,letter,lettRpt,k,0.5121,Hi,,,,,,4,,,,,,,,high,13,0,13,0,1,,,,,,,,,
293857,2022-12-02_23h36.59.702,vts_reward_expectancy_bt,2022.2.4,MacIntel,60.0024001,Chrome,1440,900,,,,,1,1192,,,,,,,,,,,,,,,,,132,F,hexagon,1,0,,,,,,,,,,,,,,,,switch,number,numSwt,d,0.6335,Lo,,,,,,4,,,,,,,,high,14,0,14,0,1,,,,,,,,,
293857,2022-12-02_23h36.59.702,vts_reward_expectancy_bt,2022.2.4,MacIntel,60.0024001,Chrome,1440,900,,,,,10,1202,,,,,,,,,,,,,,,,,167,W,star,1,0,,,,,,,,,,,,,,,,repeat,number,numRpt,f,0.5813,Hi,,,,,,4,,,,,,,,high,15,0,15,0,1,,,,,,,,,
293857,2022-12-02_23h36.59.702,vts_reward_expectancy_bt,2022.2.4,MacIntel,60.0024001,Chrome,1440,900,,,,,1,1203,,,,,,,,,,,,,,,,,139,B,triangle,1,0,,,,,,,,,,,,,,,,switch,letter,lettSwt,j,0.6304,Lo,,,,,,4,,,,,,,,high,16,0,16,0,1,,,,,,,,,
293857,2022-12-02_23h36.59.702,vts_reward_expectancy_bt,2022.2.4,MacIntel,60.0024001,Chrome,1440,900,,,,,1,1204,,,,,,,,,,,,,,,,,181,Y,hexagon,1,0,,,,,,,,,,,,,,,,switch,number,numSwt,f,0.6161,Lo,,,,,,4,,,,,,,,high,17,0,17,0,1,,,,,,,,,
293857,2022-12-02_23h36.59.702,vts_reward_expectancy_bt,2022.2.4,MacIntel,60.0024001,Chrome,1440,900,,,,,0,1204,,,,,,,,,,,,,,,,,146,D,circle,1,0,,,,,,,,,,,,,,,,switch,letter,lettSwt,j,0.6292,Hi,,,,,,4,,,,,,,,high,18,0,18,0,1,,,,,,,,,
293857,2022-12-02_23h36.59.702,vts_reward_expectancy_bt,2022.2.4,MacIntel,60.0024001,Chrome,1440,900,,,,,0,1204,,,,,,,,,,,,,,,,,125,S,star,1,0,,,,,,,,,,,,,,,,switch,number,numSwt,d,0.7635,Hi,,,,,,4,,,,,,,,high,19,0,19,0,1,,,,,,,,,
293857,2022-12-02_23h36.59.702,vts_reward_expectancy_bt,2022.2.4,MacIntel,60.0024001,Chrome,1440,900,,,,,1,1205,,,,,,,,,,,,,,,,,160,F,hexagon,1,0,,,,,,,,,,,,,,,,repeat,number,numRpt,f,0.8561,Lo,,,,,,4,,,,,,,,high,20,0,20,0,1,,,,,,,,,
293857,2022-12-02_23h36.59.702,vts_reward_expectancy_bt,2022.2.4,MacIntel,60.0024001,Chrome,1440,900,,,,,0,1205,,,,,,,,,,,,,,,,,174,U,star,1,0,,,,,,,,,,,,,,,,switch,letter,lettSwt,k,0.6965,Hi,,,,,,4,,,,,,,,high,21,0,21,0,1,,,,,,,,,
293857,2022-12-02_23h36.59.702,vts_reward_expectancy_bt,2022.2.4,MacIntel,60.0024001,Chrome,1440,900,,,,,1,1206,,,,,,,,,,,,,,,,,132,H,triangle,1,0,,,,,,,,,,,,,,,,switch,number,numSwt,d,0.5687,Lo,,,,,,4,,,,,,,,high,22,0,22,0,1,,,,,,,,,
293857,2022-12-02_23h36.59.702,vts_reward_expectancy_bt,2022.2.4,MacIntel,60.0024001,Chrome,1440,900,,,,,10,1216,,,,,,,,,,,,,,,,,167,W,circle,1,0,,,,,,,,,,,,,,,,switch,letter,lettSwt,k,0.5043,Hi,,,,,,4,,,,,,,,high,23,0,23,0,1,,,,,,,,,
293857,2022-12-02_23h36.59.702,vts_reward_expectancy_bt,2022.2.4,MacIntel,60.0024001,Chrome,1440,900,,,,,1,1217,,,,,,,,,,,,,,,,,132,W,triangle,1,0,,,,,,,,,,,,,,,,repeat,letter,lettRpt,k,0.5915,Lo,,,,,,4,,,,,,,,high,24,0,24,0,1,,,,,,,,,
293857,2022-12-02_23h36.59.702,vts_reward_expectancy_bt,2022.2.4,MacIntel,60.0024001,Chrome,1440,900,,,,,10,1227,,,,,,,,,,,,,,,,,146,U,hexagon,1,0,,,,,,,,,,,,,,,,repeat,letter,lettRpt,k,0.5947,Lo,,,,,,4,,,,,,,,high,25,0,25,0,1,,,,,,,,,
293857,2022-12-02_23h36.59.702,vts_reward_expectancy_bt,2022.2.4,MacIntel,60.0024001,Chrome,1440,900,,,,,0,1227,,,,,,,,,,,,,,,,,174,B,circle,1,0,,,,,,,,,,,,,,,,repeat,letter,lettRpt,j,0.6052,Hi,,,,,,4,,,,,,,,high,26,0,26,0,1,,,,,,,,,
293857,2022-12-02_23h36.59.702,vts_reward_expectancy_bt,2022.2.4,MacIntel,60.0024001,Chrome,1440,900,,,,,0,1227,,,,,,,,,,,,,,,,,167,S,star,1,0,,,,,,,,,,,,,,,,switch,number,numSwt,f,0.8036,Hi,,,,,,4,,,,,,,,high,27,0,27,0,1,,,,,,,,,
293857,2022-12-02_23h36.59.702,vts_reward_expectancy_bt,2022.2.4,MacIntel,60.0024001,Chrome,1440,900,,,,,1,1228,,,,,,,,,,,,,,,,,125,D,star,1,0,,,,,,,,,,,,,,,,repeat,number,numRpt,d,0.4885,Hi,,,,,,4,,,,,,,,high,28,0,28,0,1,,,,,,,,,
293857,2022-12-02_23h36.59.702,vts_reward_expectancy_bt,2022.2.4,MacIntel,60.0024001,Chrome,1440,900,,,,,10,1238,,,,,,,,,,,,,,,,,139,Y,circle,1,0,,,,,,,,,,,,,,,,switch,letter,lettSwt,k,0.6042,Hi,,,,,,4,,,,,,,,high,29,0,29,0,1,,,,,,,,,
293857,2022-12-02_23h36.59.702,vts_reward_expectancy_bt,2022.2.4,MacIntel,60.0024001,Chrome,1440,900,,,,,1,1239,,,,,,,,,,,,,,,,,181,F,triangle,1,0,,,,,,,,,,,,,,,,switch,number,numSwt,f,0.749,Lo,,,,,,4,,,,,,,,high,30,0,30,0,1,,,,,,,,,
293857,2022-12-02_23h36.59.702,vts_reward_expectancy_bt,2022.2.4,MacIntel,60.0024001,Chrome,1440,900,,,,,1,1240,,,,,,,,,,,,,,,,,160,H,hexagon,1,0,,,,,,,,,,,,,,,,repeat,number,numRpt,f,0.8018,Lo,,,,,,4,,,,,,,,high,31,0,31,0,1,,,,,,,,,
293857,2022-12-02_23h36.59.702,vts_reward_expectancy_bt,2022.2.4,MacIntel,60.0024001,Chrome,1440,900,,,,,1,1241,,,,,,,,,,,,,,,,,174,W,triangle,1,0,,,,,,,,,,,,,,,,repeat,number,numRpt,f,0.6153,Lo,,,,,,5,,,,,,space,0.5674,high,0,0,0,0,1,,,,,,,,,
293857,2022-12-02_23h36.59.702,vts_reward_expectancy_bt,2022.2.4,MacIntel,60.0024001,Chrome,1440,900,,,,,1,1242,,,,,,,,,,,,,,,,,139,Y,hexagon,1,0,,,,,,,,,,,,,,,,switch,letter,lettSwt,k,0.6633,Lo,,,,,,5,,,,,,,,high,1,0,1,0,1,,,,,,,,,
293857,2022-12-02_23h36.59.702,vts_reward_expectancy_bt,2022.2.4,MacIntel,60.0024001,Chrome,1440,900,,,,,1,1243,,,,,,,,,,,,,,,,,160,D,star,1,0,,,,,,,,,,,,,,,,repeat,letter,lettRpt,j,0.5642,Hi,,,,,,5,,,,,,,,high,2,0,2,0,1,,,,,,,,,
293857,2022-12-02_23h36.59.702,vts_reward_expectancy_bt,2022.2.4,MacIntel,60.0024001,Chrome,1440,900,,,,,0,1243,,,,,,,,,,,,,,,,,181,B,circle,1,0,,,,,,,,,,,,,,,,repeat,letter,lettRpt,j,0.6042,Hi,,,,,,5,,,,,,,,high,3,0,3,0,1,,,,,,,,,
293857,2022-12-02_23h36.59.702,vts_reward_expectancy_bt,2022.2.4,MacIntel,60.0024001,Chrome,1440,900,,,,,1,1244,,,,,,,,,,,,,,,,,167,H,triangle,1,0,,,,,,,,,,,,,,,,switch,number,numSwt,f,0.5857,Lo,,,,,,5,,,,,,,,high,4,0,4,0,1,,,,,,,,,
293857,2022-12-02_23h36.59.702,vts_reward_expectancy_bt,2022.2.4,MacIntel,60.0024001,Chrome,1440,900,,,,,1,1245,,,,,,,,,,,,,,,,,132,U,hexagon,1,0,,,,,,,,,,,,,,,,switch,letter,lettSwt,k,0.6806,Lo,,,,,,5,,,,,,,,high,5,0,5,0,1,,,,,,,,,
293857,2022-12-02_23h36.59.702,vts_reward_expectancy_bt,2022.2.4,MacIntel,60.0024001,Chrome,1440,900,,,,,0,1245,,,,,,,,,,,,,,,,,146,F,star,1,0,,,,,,,,,,,,,,,,repeat,letter,lettRpt,j,0.6624,Hi,,,,,,5,,,,,,,,high,6,0,6,0,1,,,,,,,,,
293857,2022-12-02_23h36.59.702,vts_reward_expectancy_bt,2022.2.4,MacIntel,60.0024001,Chrome,1440,900,,,,,0,1245,,,,,,,,,,,,,,,,,125,S,circle,1,0,,,,,,,,,,,,,,,,repeat,letter,lettRpt,k,0.658,Hi,,,,,,5,,,,,,,,high,7,0,7,0,1,,,,,,,,,
293857,2022-12-02_23h36.59.702,vts_reward_expectancy_bt,2022.2.4,MacIntel,60.0024001,Chrome,1440,900,,,,,1,1246,,,,,,,,,,,,,,,,,174,W,circle,1,0,,,,,,,,,,,,,,,,repeat,letter,lettRpt,k,0.5481,Hi,,,,,,5,,,,,,,,high,8,0,8,0,1,,,,,,,,,
293857,2022-12-02_23h36.59.702,vts_reward_expectancy_bt,2022.2.4,MacIntel,60.0024001,Chrome,1440,900,,,,,0,1246,,,,,,,,,,,,,,,,,139,Y,star,1,0,,,,,,,,,,,,,,,,switch,number,numSwt,d,0.6458,Hi,,,,,,5,,,,,,,,high,9,0,9,0,1,,,,,,,,,
293857,2022-12-02_23h36.59.702,vts_reward_expectancy_bt,2022.2.4,MacIntel,60.0024001,Chrome,1440,900,,,,,1,1247,,,,,,,,,,,,,,,,,160,D,triangle,1,0,,,,,,,,,,,,,,,,switch,letter,lettSwt,j,0.663,Lo,,,,,,5,,,,,,,,high,10,0,10,0,1,,,,,,,,,
293857,2022-12-02_23h36.59.702,vts_reward_expectancy_bt,2022.2.4,MacIntel,60.0024001,Chrome,1440,900,,,,,1,1248,,,,,,,,,,,,,,,,,181,B,hexagon,1,0,,,,,,,,,,,,,,,,switch,number,numSwt,f,0.9718,Lo,,,,,,5,,,,,,,,high,11,0,11,0,1,,,,,,,,,
293857,2022-12-02_23h36.59.702,vts_reward_expectancy_bt,2022.2.4,MacIntel,60.0024001,Chrome,1440,900,,,,,0,1248,,,,,,,,,,,,,,,,,167,H,circle,1,0,,,,,,,,,,,,,,,,repeat,number,numRpt,f,0.8648,Hi,,,,,,5,,,,,,,,high,12,0,12,0,1,,,,,,,,,
293857,2022-12-02_23h36.59.702,vts_reward_expectancy_bt,2022.2.4,MacIntel,60.0024001,Chrome,1440,900,,,,,1,1249,,,,,,,,,,,,,,,,,132,U,hexagon,1,0,,,,,,,,,,,,,,,,switch,letter,lettSwt,k,0.4633,Lo,,,,,,5,,,,,,,,high,13,0,13,0,1,,,,,,,,,
293857,2022-12-02_23h36.59.702,vts_reward_expectancy_bt,2022.2.4,MacIntel,60.0024001,Chrome,1440,900,,,,,1,1250,,,,,,,,,,,,,,,,,146,F,triangle,1,0,,,,,,,,,,,,,,,,repeat,letter,lettRpt,j,0.645,Lo,,,,,,5,,,,,,,,high,14,0,14,0,1,,,,,,,,,
293857,2022-12-02_23h36.59.702,vts_reward_expectancy_bt,2022.2.4,MacIntel,60.0024001,Chrome,1440,900,,,,,10,1260,,,,,,,,,,,,,,,,,125,S,star,1,0,,,,,,,,,,,,,,,,repeat,letter,lettRpt,k,0.5804,Hi,,,,,,5,,,,,,,,high,15,0,15,0,1,,,,,,,,,
293857,2022-12-02_23h36.59.702,vts_reward_expectancy_bt,2022.2.4,MacIntel,60.0024001,Chrome,1440,900,,,,,1,1261,,,,,,,,,,,,,,,,,132,S,triangle,1,0,,,,,,,,,,,,,,,,repeat,letter,lettRpt,k,0.6831,Lo,,,,,,5,,,,,,,,high,16,0,16,0,1,,,,,,,,,
293857,2022-12-02_23h36.59.702,vts_reward_expectancy_bt,2022.2.4,MacIntel,60.0024001,Chrome,1440,900,,,,,1,1262,,,,,,,,,,,,,,,,,125,U,hexagon,1,0,,,,,,,,,,,,,,,,repeat,letter,lettRpt,k,0.573,Lo,,,,,,5,,,,,,,,high,17,0,17,0,1,,,,,,,,,
293857,2022-12-02_23h36.59.702,vts_reward_expectancy_bt,2022.2.4,MacIntel,60.0024001,Chrome,1440,900,,,,,10,1272,,,,,,,,,,,,,,,,,167,W,circle,1,0,,,,,,,,,,,,,,,,switch,number,numSwt,f,0.6155,Hi,,,,,,5,,,,,,,,high,18,0,18,0,1,,,,,,,,,
293857,2022-12-02_23h36.59.702,vts_reward_expectancy_bt,2022.2.4,MacIntel,60.0024001,Chrome,1440,900,,,,,0,1272,,,,,,,,,,,,,,,,,181,F,star,1,0,,,,,,,,,,,,,,,,repeat,number,numRpt,f,0.8723,Hi,,,,,,5,,,,,,,,high,19,0,19,0,1,,,,,,,,,
293857,2022-12-02_23h36.59.702,vts_reward_expectancy_bt,2022.2.4,MacIntel,60.0024001,Chrome,1440,900,,,,,1,1273,,,,,,,,,,,,,,,,,174,B,hexagon,1,0,,,,,,,,,,,,,,,,repeat,number,numRpt,f,0.7152,Lo,,,,,,5,,,,,,,,high,20,0,20,0,1,,,,,,,,,
293857,2022-12-02_23h36.59.702,vts_reward_expectancy_bt,2022.2.4,MacIntel,60.0024001,Chrome,1440,900,,,,,0,1273,,,,,,,,,,,,,,,,,146,Y,star,1,0,,,,,,,,,,,,,,,,repeat,number,numRpt,d,0.9366,Hi,,,,,,5,,,,,,,,high,21,0,21,0,1,,,,,,,,,
293857,2022-12-02_23h36.59.702,vts_reward_expectancy_bt,2022.2.4,MacIntel,60.0024001,Chrome,1440,900,,,,,1,1274,,,,,,,,,,,,,,,,,160,H,triangle,1,0,,,,,,,,,,,,,,,,repeat,number,numRpt,f,0.6553,Lo,,,,,,5,,,,,,,,high,22,0,22,0,1,,,,,,,,,
293857,2022-12-02_23h36.59.702,vts_reward_expectancy_bt,2022.2.4,MacIntel,60.0024001,Chrome,1440,900,,,,,0,1274,,,,,,,,,,,,,,,,,139,D,circle,1,0,,,,,,,,,,,,,,,,repeat,number,numRpt,d,0.7329,Hi,,,,,,5,,,,,,,,high,23,0,23,0,1,,,,,,,,,
293857,2022-12-02_23h36.59.702,vts_reward_expectancy_bt,2022.2.4,MacIntel,60.0024001,Chrome,1440,900,,,,,10,1284,,,,,,,,,,,,,,,,,132,U,hexagon,1,0,,,,,,,,,,,,,,,,repeat,number,numRpt,d,0.5831,Lo,,,,,,5,,,,,,,,high,24,0,24,0,1,,,,,,,,,
293857,2022-12-02_23h36.59.702,vts_reward_expectancy_bt,2022.2.4,MacIntel,60.0024001,Chrome,1440,900,,,,,0,1284,,,,,,,,,,,,,,,,,160,W,circle,1,0,,,,,,,,,,,,,,,,repeat,number,numRpt,f,0.6653,Hi,,,,,,5,,,,,,,,high,25,0,25,0,1,,,,,,,,,
293857,2022-12-02_23h36.59.702,vts_reward_expectancy_bt,2022.2.4,MacIntel,60.0024001,Chrome,1440,900,,,,,0,1284,,,,,,,,,,,,,,,,,181,F,star,1,0,,,,,,,,,,,,,,,,switch,letter,lettSwt,j,0.6482,Hi,,,,,,5,,,,,,,,high,26,0,26,0,1,,,,,,,,,
293857,2022-12-02_23h36.59.702,vts_reward_expectancy_bt,2022.2.4,MacIntel,60.0024001,Chrome,1440,900,,,,,1,1285,,,,,,,,,,,,,,,,,167,Y,triangle,1,0,,,,,,,,,,,,,,,,repeat,letter,lettRpt,k,0.501,Lo,,,,,,5,,,,,,,,high,27,0,27,0,1,,,,,,,,,
293857,2022-12-02_23h36.59.702,vts_reward_expectancy_bt,2022.2.4,MacIntel,60.0024001,Chrome,1440,900,,,,,1,1286,,,,,,,,,,,,,,,,,146,S,triangle,1,0,,,,,,,,,,,,,,,,repeat,letter,lettRpt,k,0.7134,Lo,,,,,,5,,,,,,,,high,28,0,28,0,1,,,,,,,,,
293857,2022-12-02_23h36.59.702,vts_reward_expectancy_bt,2022.2.4,MacIntel,60.0024001,Chrome,1440,900,,,,,0,1286,,,,,,,,,,,,,,,,,139,D,star,1,0,,,,,,,,,,,,,,,,repeat,letter,lettRpt,j,0.6469,Hi,,,,,,5,,,,,,,,high,29,0,29,0,1,,,,,,,,,
293857,2022-12-02_23h36.59.702,vts_reward_expectancy_bt,2022.2.4,MacIntel,60.0024001,Chrome,1440,900,,,,,0,1286,,,,,,,,,,,,,,,,,174,H,hexagon,0,0,,,,,,,,,,,,,,,,repeat,letter,NA,k,0.5661,Hi,,,,,,5,,,,,,,,high,30,0,30,0,1,,,,,,,,,
293857,2022-12-02_23h36.59.702,vts_reward_expectancy_bt,2022.2.4,MacIntel,60.0024001,Chrome,1440,900,,,,,0,1286,,,,,,,,,,,,,,,,,125,B,circle,1,1,,,,,,,,,,,,,,,,switch,number,numSwt,d,0.8024,Hi,,,,,,5,,,,,,,,high,31,0,31,0,1,,,,,,,,,
293857,2022-12-02_23h36.59.702,vts_reward_expectancy_bt,2022.2.4,MacIntel,60.0024001,Chrome,1440,900,,,,,0,1286,,,,,,,,,,,,,,,,,132,H,star,1,0,,,,,,,,,,,,,,,,switch,letter,lettSwt,j,0.8734,Hi,,,,,,6,,,,,,space,2.3892,high,0,0,0,0,1,,,,,,,,,
293857,2022-12-02_23h36.59.702,vts_reward_expectancy_bt,2022.2.4,MacIntel,60.0024001,Chrome,1440,900,,,,,1,1287,,,,,,,,,,,,,,,,,167,B,triangle,1,0,,,,,,,,,,,,,,,,switch,number,numSwt,f,0.9035,Lo,,,,,,6,,,,,,,,high,1,0,1,0,1,,,,,,,,,
293857,2022-12-02_23h36.59.702,vts_reward_expectancy_bt,2022.2.4,MacIntel,60.0024001,Chrome,1440,900,,,,,10,1297,,,,,,,,,,,,,,,,,139,S,circle,1,0,,,,,,,,,,,,,,,,switch,letter,lettSwt,k,0.5671,Hi,,,,,,6,,,,,,,,high,2,0,2,0,1,,,,,,,,,
