participant,date,expName,psychopyVersion,OS,frameRate,browser,xResolution,yResolution,key_resp.keys,key_resp.rt,training_resp.keys,training_resp.rt,points_trial,points_cumul,trainBlock,training.thisRepN,training.thisTrialN,training.thisN,training.thisIndex,training.ran,LTriangleOpac,LCircleOpac,LHexagonOpac,LStarOpac,RTriangleOpac,RCircleOpac,RHexagonOpac,RStarOpac,LShape_ID,RShape_ID,curr_topStim,curr_bottStim,curr_shape,acc,E1,target_resp_prac1.keys,target_resp_prac1.rt,pracBlock,task1_prac_trials.thisRepN,task1_prac_trials.thisTrialN,task1_prac_trials.thisN,task1_prac_trials.thisIndex,task1_prac_trials.ran,target_resp_prac2.keys,target_resp_prac2.rt,task2_praac_trials.thisRepN,task2_praac_trials.thisTrialN,task2_praac_trials.thisN,task2_praac_trials.thisIndex,task2_praac_trials.ran,alt,task,condition,target_resp.keys,rewCond,vts_practice_trials.thisRepN,vts_practice_trials.thisTrialN,vts_practice_trials.thisN,vts_practice_trials.thisIndex,vts_practice_trials.ran,target_resp.rt,blockNum,trials_norew.thisRepN,trials_norew.thisTrialN,trials_norew.thisN,trials_norew.thisIndex,trials_norew.ran,key_resp_2.keys,key_resp_2.rt,rewExpectancy,trials_rew.thisRepN,trials_rew.thisTrialN,trials_rew.thisN,trials_rew.thisIndex,trials_rew.ran,Q1,Q2,Q2_text,Q3,Q4,Q5_text,Q5,xRes,yRes
293881,2022-12-02_12h41.31.421,vts_reward_expectancy_bt,2022.2.4,Win32,60.0132029,Chrome,1366,768,,,,,,,,,,,,,,,,,,,,,,,,,,,,,,,,,,,,,,,,,,,,,,,,,,,,,,,,,,,,,,,,,,,,,,,,,,,,
293881,2022-12-02_12h41.31.421,vts_reward_expectancy_bt,2022.2.4,Win32,60.0132029,Chrome,1366,768,space,6.8041,,,,,,,,,,,,,,,,,,,,,,,,,,,,,,,,,,,,,,,,,,,,,,,,,,,,,,,,,,,,,,,,,,,,,,,,,,
293881,2022-12-02_12h41.31.421,vts_reward_expectancy_bt,2022.2.4,Win32,60.0132029,Chrome,1366,768,,,,,,,,,,,,,,,,,,,,,,,,,,,,,,,,,,,,,,,,,,,,,,,,,,,,,,,,,,,,,,,,,,,,,,,,,,,,
293881,2022-12-02_12h41.31.421,vts_reward_expectancy_bt,2022.2.4,Win32,60.0132029,Chrome,1366,768,,,l,4.5758,1,1,0,0,0,0,3,1,0,1,0,0,1,0,0,0,circle,triangle,,,,,,,,,,,,,,,,,,,,,,,,,,,,,,,,,,,,,,,,,,,,,,,,,,,,,,
293881,2022-12-02_12h41.31.421,vts_reward_expectancy_bt,2022.2.4,Win32,60.0132029,Chrome,1366,768,,,a,2.3107,1,2,0,0,1,1,9,1,0,0,0,1,1,0,0,0,star,triangle,,,,,,,,,,,,,,,,,,,,,,,,,,,,,,,,,,,,,,,,,,,,,,,,,,,,,,
293881,2022-12-02_12h41.31.421,vts_reward_expectancy_bt,2022.2.4,Win32,60.0132029,Chrome,1366,768,,,l,2.1239,1,3,0,0,2,2,4,1,0,1,0,0,0,0,1,0,circle,hexagon,,,,,,,,,,,,,,,,,,,,,,,,,,,,,,,,,,,,,,,,,,,,,,,,,,,,,,
293881,2022-12-02_12h41.31.421,vts_reward_expectancy_bt,2022.2.4,Win32,60.0132029,Chrome,1366,768,,,l,1.6589,10,13,0,0,3,3,10,1,0,0,0,1,0,1,0,0,star ,circle,,,,,,,,,,,,,,,,,,,,,,,,,,,,,,,,,,,,,,,,,,,,,,,,,,,,,,
293881,2022-12-02_12h41.31.421,vts_reward_expectancy_bt,2022.2.4,Win32,60.0132029,Chrome,1366,768,,,a,1.9842,10,23,0,0,4,4,8,1,0,0,1,0,0,0,0,1,hexagon,star,,,,,,,,,,,,,,,,,,,,,,,,,,,,,,,,,,,,,,,,,,,,,,,,,,,,,,
293881,2022-12-02_12h41.31.421,vts_reward_expectancy_bt,2022.2.4,Win32,60.0132029,Chrome,1366,768,,,l,1.5659,10,33,0,0,5,5,11,1,0,0,0,1,0,0,1,0,star,hexagon,,,,,,,,,,,,,,,,,,,,,,,,,,,,,,,,,,,,,,,,,,,,,,,,,,,,,,
293881,2022-12-02_12h41.31.421,vts_reward_expectancy_bt,2022.2.4,Win32,60.0132029,Chrome,1366,768,,,l,1.3365,10,43,0,0,6,6,1,1,1,0,0,0,0,0,1,0,triangle,hexagon,,,,,,,,,,,,,,,,,,,,,,,,,,,,,,,,,,,,,,,,,,,,,,,,,,,,,,
293881,2022-12-02_12h41.31.421,vts_reward_expectancy_bt,2022.2.4,Win32,60.0132029,Chrome,1366,768,,,a,1.4436,10,53,0,0,7,7,5,1,0,1,0,0,0,0,0,1,circle,star,,,,,,,,,,,,,,,,,,,,,,,,,,,,,,,,,,,,,,,,,,,,,,,,,,,,,,
293881,2022-12-02_12h41.31.421,vts_reward_expectancy_bt,2022.2.4,Win32,60.0132029,Chrome,1366,768,,,l,1.2395,10,63,0,0,8,8,7,1,0,0,1,0,0,1,0,0,hexagon,circle,,,,,,,,,,,,,,,,,,,,,,,,,,,,,,,,,,,,,,,,,,,,,,,,,,,,,,
293881,2022-12-02_12h41.31.421,vts_reward_expectancy_bt,2022.2.4,Win32,60.0132029,Chrome,1366,768,,,a,0.8511,10,73,0,0,9,9,2,1,1,0,0,0,0,0,0,1,triangle,star,,,,,,,,,,,,,,,,,,,,,,,,,,,,,,,,,,,,,,,,,,,,,,,,,,,,,,
293881,2022-12-02_12h41.31.421,vts_reward_expectancy_bt,2022.2.4,Win32,60.0132029,Chrome,1366,768,,,l,0.751,10,83,0,0,10,10,0,1,1,0,0,0,0,1,0,0,triangle,circle,,,,,,,,,,,,,,,,,,,,,,,,,,,,,,,,,,,,,,,,,,,,,,,,,,,,,,
293881,2022-12-02_12h41.31.421,vts_reward_expectancy_bt,2022.2.4,Win32,60.0132029,Chrome,1366,768,,,l,1.4341,1,84,0,0,11,11,6,1,0,0,1,0,1,0,0,0,hexagon,triangle,,,,,,,,,,,,,,,,,,,,,,,,,,,,,,,,,,,,,,,,,,,,,,,,,,,,,,
293881,2022-12-02_12h41.31.421,vts_reward_expectancy_bt,2022.2.4,Win32,60.0132029,Chrome,1366,768,,,l,1.3647,10,94,0,1,0,12,0,1,1,0,0,0,0,1,0,0,triangle,circle,,,,,,,,,,,,,,,,,,,,,,,,,,,,,,,,,,,,,,,,,,,,,,,,,,,,,,
293881,2022-12-02_12h41.31.421,vts_reward_expectancy_bt,2022.2.4,Win32,60.0132029,Chrome,1366,768,,,a,1.6127,1,95,0,1,1,13,4,1,0,1,0,0,0,0,1,0,circle,hexagon,,,,,,,,,,,,,,,,,,,,,,,,,,,,,,,,,,,,,,,,,,,,,,,,,,,,,,
293881,2022-12-02_12h41.31.421,vts_reward_expectancy_bt,2022.2.4,Win32,60.0132029,Chrome,1366,768,,,l,1.4659,10,105,0,1,2,14,7,1,0,0,1,0,0,1,0,0,hexagon,circle,,,,,,,,,,,,,,,,,,,,,,,,,,,,,,,,,,,,,,,,,,,,,,,,,,,,,,
293881,2022-12-02_12h41.31.421,vts_reward_expectancy_bt,2022.2.4,Win32,60.0132029,Chrome,1366,768,,,l,2.3039,1,106,0,1,3,15,6,1,0,0,1,0,1,0,0,0,hexagon,triangle,,,,,,,,,,,,,,,,,,,,,,,,,,,,,,,,,,,,,,,,,,,,,,,,,,,,,,
293881,2022-12-02_12h41.31.421,vts_reward_expectancy_bt,2022.2.4,Win32,60.0132029,Chrome,1366,768,,,l,1.1937,10,116,0,1,4,16,1,1,1,0,0,0,0,0,1,0,triangle,hexagon,,,,,,,,,,,,,,,,,,,,,,,,,,,,,,,,,,,,,,,,,,,,,,,,,,,,,,
293881,2022-12-02_12h41.31.421,vts_reward_expectancy_bt,2022.2.4,Win32,60.0132029,Chrome,1366,768,,,l,0.8914,1,117,0,1,5,17,9,1,0,0,0,1,1,0,0,0,star,triangle,,,,,,,,,,,,,,,,,,,,,,,,,,,,,,,,,,,,,,,,,,,,,,,,,,,,,,
293881,2022-12-02_12h41.31.421,vts_reward_expectancy_bt,2022.2.4,Win32,60.0132029,Chrome,1366,768,,,l,0.8811,1,118,0,1,6,18,2,1,1,0,0,0,0,0,0,1,triangle,star,,,,,,,,,,,,,,,,,,,,,,,,,,,,,,,,,,,,,,,,,,,,,,,,,,,,,,
293881,2022-12-02_12h41.31.421,vts_reward_expectancy_bt,2022.2.4,Win32,60.0132029,Chrome,1366,768,,,a,0.5926,10,128,0,1,7,19,8,1,0,0,1,0,0,0,0,1,hexagon,star,,,,,,,,,,,,,,,,,,,,,,,,,,,,,,,,,,,,,,,,,,,,,,,,,,,,,,
293881,2022-12-02_12h41.31.421,vts_reward_expectancy_bt,2022.2.4,Win32,60.0132029,Chrome,1366,768,,,a,0.9307,10,138,0,1,8,20,5,1,0,1,0,0,0,0,0,1,circle,star,,,,,,,,,,,,,,,,,,,,,,,,,,,,,,,,,,,,,,,,,,,,,,,,,,,,,,
293881,2022-12-02_12h41.31.421,vts_reward_expectancy_bt,2022.2.4,Win32,60.0132029,Chrome,1366,768,,,l,0.6439,10,148,0,1,9,21,10,1,0,0,0,1,0,1,0,0,star ,circle,,,,,,,,,,,,,,,,,,,,,,,,,,,,,,,,,,,,,,,,,,,,,,,,,,,,,,
293881,2022-12-02_12h41.31.421,vts_reward_expectancy_bt,2022.2.4,Win32,60.0132029,Chrome,1366,768,,,a,0.8076,10,158,0,1,10,22,3,1,0,1,0,0,1,0,0,0,circle,triangle,,,,,,,,,,,,,,,,,,,,,,,,,,,,,,,,,,,,,,,,,,,,,,,,,,,,,,
293881,2022-12-02_12h41.31.421,vts_reward_expectancy_bt,2022.2.4,Win32,60.0132029,Chrome,1366,768,,,l,0.4977,10,168,0,1,11,23,11,1,0,0,0,1,0,0,1,0,star,hexagon,,,,,,,,,,,,,,,,,,,,,,,,,,,,,,,,,,,,,,,,,,,,,,,,,,,,,,
293881,2022-12-02_12h41.31.421,vts_reward_expectancy_bt,2022.2.4,Win32,60.0132029,Chrome,1366,768,,,l,1.5679,10,178,0,2,0,24,7,1,0,0,1,0,0,1,0,0,hexagon,circle,,,,,,,,,,,,,,,,,,,,,,,,,,,,,,,,,,,,,,,,,,,,,,,,,,,,,,
293881,2022-12-02_12h41.31.421,vts_reward_expectancy_bt,2022.2.4,Win32,60.0132029,Chrome,1366,768,,,l,0.476,10,188,0,2,1,25,11,1,0,0,0,1,0,0,1,0,star,hexagon,,,,,,,,,,,,,,,,,,,,,,,,,,,,,,,,,,,,,,,,,,,,,,,,,,,,,,
293881,2022-12-02_12h41.31.421,vts_reward_expectancy_bt,2022.2.4,Win32,60.0132029,Chrome,1366,768,,,l,0.9984,1,189,0,2,2,26,1,1,1,0,0,0,0,0,1,0,triangle,hexagon,,,,,,,,,,,,,,,,,,,,,,,,,,,,,,,,,,,,,,,,,,,,,,,,,,,,,,
293881,2022-12-02_12h41.31.421,vts_reward_expectancy_bt,2022.2.4,Win32,60.0132029,Chrome,1366,768,,,a,0.7564,10,199,0,2,3,27,5,1,0,1,0,0,0,0,0,1,circle,star,,,,,,,,,,,,,,,,,,,,,,,,,,,,,,,,,,,,,,,,,,,,,,,,,,,,,,
293881,2022-12-02_12h41.31.421,vts_reward_expectancy_bt,2022.2.4,Win32,60.0132029,Chrome,1366,768,,,a,1.1523,1,200,0,2,4,28,8,1,0,0,1,0,0,0,0,1,hexagon,star,,,,,,,,,,,,,,,,,,,,,,,,,,,,,,,,,,,,,,,,,,,,,,,,,,,,,,
293881,2022-12-02_12h41.31.421,vts_reward_expectancy_bt,2022.2.4,Win32,60.0132029,Chrome,1366,768,,,l,0.629,1,201,0,2,5,29,6,1,0,0,1,0,1,0,0,0,hexagon,triangle,,,,,,,,,,,,,,,,,,,,,,,,,,,,,,,,,,,,,,,,,,,,,,,,,,,,,,
293881,2022-12-02_12h41.31.421,vts_reward_expectancy_bt,2022.2.4,Win32,60.0132029,Chrome,1366,768,,,l,0.9334,1,202,0,2,6,30,9,1,0,0,0,1,1,0,0,0,star,triangle,,,,,,,,,,,,,,,,,,,,,,,,,,,,,,,,,,,,,,,,,,,,,,,,,,,,,,
293881,2022-12-02_12h41.31.421,vts_reward_expectancy_bt,2022.2.4,Win32,60.0132029,Chrome,1366,768,,,a,0.4241,1,203,0,2,7,31,10,1,0,0,0,1,0,1,0,0,star ,circle,,,,,,,,,,,,,,,,,,,,,,,,,,,,,,,,,,,,,,,,,,,,,,,,,,,,,,
293881,2022-12-02_12h41.31.421,vts_reward_expectancy_bt,2022.2.4,Win32,60.0132029,Chrome,1366,768,,,l,0.3981,10,213,0,2,8,32,0,1,1,0,0,0,0,1,0,0,triangle,circle,,,,,,,,,,,,,,,,,,,,,,,,,,,,,,,,,,,,,,,,,,,,,,,,,,,,,,
293881,2022-12-02_12h41.31.421,vts_reward_expectancy_bt,2022.2.4,Win32,60.0132029,Chrome,1366,768,,,a,0.6709,10,223,0,2,9,33,3,1,0,1,0,0,1,0,0,0,circle,triangle,,,,,,,,,,,,,,,,,,,,,,,,,,,,,,,,,,,,,,,,,,,,,,,,,,,,,,
293881,2022-12-02_12h41.31.421,vts_reward_expectancy_bt,2022.2.4,Win32,60.0132029,Chrome,1366,768,,,a,0.6204,10,233,0,2,10,34,4,1,0,1,0,0,0,0,1,0,circle,hexagon,,,,,,,,,,,,,,,,,,,,,,,,,,,,,,,,,,,,,,,,,,,,,,,,,,,,,,
293881,2022-12-02_12h41.31.421,vts_reward_expectancy_bt,2022.2.4,Win32,60.0132029,Chrome,1366,768,,,a,0.6132,1,234,0,2,11,35,2,1,1,0,0,0,0,0,0,1,triangle,star,,,,,,,,,,,,,,,,,,,,,,,,,,,,,,,,,,,,,,,,,,,,,,,,,,,,,,
293881,2022-12-02_12h41.31.421,vts_reward_expectancy_bt,2022.2.4,Win32,60.0132029,Chrome,1366,768,,,a,1.1731,1,235,1,0,0,0,2,1,1,0,0,0,0,0,0,1,triangle,star,,,,,,,,,,,,,,,,,,,,,,,,,,,,,,,,,,,,,,,,,,,,,,,,,,,,,,
293881,2022-12-02_12h41.31.421,vts_reward_expectancy_bt,2022.2.4,Win32,60.0132029,Chrome,1366,768,,,l,0.5837,10,245,1,0,1,1,4,1,0,1,0,0,0,0,1,0,circle,hexagon,,,,,,,,,,,,,,,,,,,,,,,,,,,,,,,,,,,,,,,,,,,,,,,,,,,,,,
293881,2022-12-02_12h41.31.421,vts_reward_expectancy_bt,2022.2.4,Win32,60.0132029,Chrome,1366,768,,,a,0.6714,10,255,1,0,2,2,8,1,0,0,1,0,0,0,0,1,hexagon,star,,,,,,,,,,,,,,,,,,,,,,,,,,,,,,,,,,,,,,,,,,,,,,,,,,,,,,
293881,2022-12-02_12h41.31.421,vts_reward_expectancy_bt,2022.2.4,Win32,60.0132029,Chrome,1366,768,,,a,0.866,10,265,1,0,3,3,6,1,0,0,1,0,1,0,0,0,hexagon,triangle,,,,,,,,,,,,,,,,,,,,,,,,,,,,,,,,,,,,,,,,,,,,,,,,,,,,,,
293881,2022-12-02_12h41.31.421,vts_reward_expectancy_bt,2022.2.4,Win32,60.0132029,Chrome,1366,768,,,l,0.9744,10,275,1,0,4,4,3,1,0,1,0,0,1,0,0,0,circle,triangle,,,,,,,,,,,,,,,,,,,,,,,,,,,,,,,,,,,,,,,,,,,,,,,,,,,,,,
293881,2022-12-02_12h41.31.421,vts_reward_expectancy_bt,2022.2.4,Win32,60.0132029,Chrome,1366,768,,,a,0.7131,1,276,1,0,5,5,1,1,1,0,0,0,0,0,1,0,triangle,hexagon,,,,,,,,,,,,,,,,,,,,,,,,,,,,,,,,,,,,,,,,,,,,,,,,,,,,,,
293881,2022-12-02_12h41.31.421,vts_reward_expectancy_bt,2022.2.4,Win32,60.0132029,Chrome,1366,768,,,l,0.6659,10,286,1,0,6,6,0,1,1,0,0,0,0,1,0,0,triangle,circle,,,,,,,,,,,,,,,,,,,,,,,,,,,,,,,,,,,,,,,,,,,,,,,,,,,,,,
293881,2022-12-02_12h41.31.421,vts_reward_expectancy_bt,2022.2.4,Win32,60.0132029,Chrome,1366,768,,,l,0.7698,1,287,1,0,7,7,9,1,0,0,0,1,1,0,0,0,star,triangle,,,,,,,,,,,,,,,,,,,,,,,,,,,,,,,,,,,,,,,,,,,,,,,,,,,,,,
293881,2022-12-02_12h41.31.421,vts_reward_expectancy_bt,2022.2.4,Win32,60.0132029,Chrome,1366,768,,,l,1.0345,10,297,1,0,8,8,7,1,0,0,1,0,0,1,0,0,hexagon,circle,,,,,,,,,,,,,,,,,,,,,,,,,,,,,,,,,,,,,,,,,,,,,,,,,,,,,,
293881,2022-12-02_12h41.31.421,vts_reward_expectancy_bt,2022.2.4,Win32,60.0132029,Chrome,1366,768,,,a,0.925,10,307,1,0,9,9,11,1,0,0,0,1,0,0,1,0,star,hexagon,,,,,,,,,,,,,,,,,,,,,,,,,,,,,,,,,,,,,,,,,,,,,,,,,,,,,,
293881,2022-12-02_12h41.31.421,vts_reward_expectancy_bt,2022.2.4,Win32,60.0132029,Chrome,1366,768,,,l,2.2512,10,317,1,0,10,10,10,1,0,0,0,1,0,1,0,0,star ,circle,,,,,,,,,,,,,,,,,,,,,,,,,,,,,,,,,,,,,,,,,,,,,,,,,,,,,,
293881,2022-12-02_12h41.31.421,vts_reward_expectancy_bt,2022.2.4,Win32,60.0132029,Chrome,1366,768,,,a,1.0552,10,327,1,0,11,11,5,1,0,1,0,0,0,0,0,1,circle,star,,,,,,,,,,,,,,,,,,,,,,,,,,,,,,,,,,,,,,,,,,,,,,,,,,,,,,
293881,2022-12-02_12h41.31.421,vts_reward_expectancy_bt,2022.2.4,Win32,60.0132029,Chrome,1366,768,,,l,0.939,1,328,1,1,0,12,9,1,0,0,0,1,1,0,0,0,star,triangle,,,,,,,,,,,,,,,,,,,,,,,,,,,,,,,,,,,,,,,,,,,,,,,,,,,,,,
293881,2022-12-02_12h41.31.421,vts_reward_expectancy_bt,2022.2.4,Win32,60.0132029,Chrome,1366,768,,,a,0.5526,1,329,1,1,1,13,2,1,1,0,0,0,0,0,0,1,triangle,star,,,,,,,,,,,,,,,,,,,,,,,,,,,,,,,,,,,,,,,,,,,,,,,,,,,,,,
293881,2022-12-02_12h41.31.421,vts_reward_expectancy_bt,2022.2.4,Win32,60.0132029,Chrome,1366,768,,,l,2.4547,1,330,1,1,2,14,3,1,0,1,0,0,1,0,0,0,circle,triangle,,,,,,,,,,,,,,,,,,,,,,,,,,,,,,,,,,,,,,,,,,,,,,,,,,,,,,
293881,2022-12-02_12h41.31.421,vts_reward_expectancy_bt,2022.2.4,Win32,60.0132029,Chrome,1366,768,,,l,2.9666,10,340,1,1,3,15,7,1,0,0,1,0,0,1,0,0,hexagon,circle,,,,,,,,,,,,,,,,,,,,,,,,,,,,,,,,,,,,,,,,,,,,,,,,,,,,,,
293881,2022-12-02_12h41.31.421,vts_reward_expectancy_bt,2022.2.4,Win32,60.0132029,Chrome,1366,768,,,a,0.6073,10,350,1,1,4,16,8,1,0,0,1,0,0,0,0,1,hexagon,star,,,,,,,,,,,,,,,,,,,,,,,,,,,,,,,,,,,,,,,,,,,,,,,,,,,,,,
293881,2022-12-02_12h41.31.421,vts_reward_expectancy_bt,2022.2.4,Win32,60.0132029,Chrome,1366,768,,,a,0.6608,10,360,1,1,5,17,5,1,0,1,0,0,0,0,0,1,circle,star,,,,,,,,,,,,,,,,,,,,,,,,,,,,,,,,,,,,,,,,,,,,,,,,,,,,,,
293881,2022-12-02_12h41.31.421,vts_reward_expectancy_bt,2022.2.4,Win32,60.0132029,Chrome,1366,768,,,l,2.5787,1,361,1,1,6,18,6,1,0,0,1,0,1,0,0,0,hexagon,triangle,,,,,,,,,,,,,,,,,,,,,,,,,,,,,,,,,,,,,,,,,,,,,,,,,,,,,,
293881,2022-12-02_12h41.31.421,vts_reward_expectancy_bt,2022.2.4,Win32,60.0132029,Chrome,1366,768,,,a,1.266,1,362,1,1,7,19,10,1,0,0,0,1,0,1,0,0,star ,circle,,,,,,,,,,,,,,,,,,,,,,,,,,,,,,,,,,,,,,,,,,,,,,,,,,,,,,
293881,2022-12-02_12h41.31.421,vts_reward_expectancy_bt,2022.2.4,Win32,60.0132029,Chrome,1366,768,,,l,0.6148,10,372,1,1,8,20,1,1,1,0,0,0,0,0,1,0,triangle,hexagon,,,,,,,,,,,,,,,,,,,,,,,,,,,,,,,,,,,,,,,,,,,,,,,,,,,,,,
293881,2022-12-02_12h41.31.421,vts_reward_expectancy_bt,2022.2.4,Win32,60.0132029,Chrome,1366,768,,,l,4.9213,1,373,1,1,9,21,0,1,1,0,0,0,0,1,0,0,triangle,circle,,,,,,,,,,,,,,,,,,,,,,,,,,,,,,,,,,,,,,,,,,,,,,,,,,,,,,
293881,2022-12-02_12h41.31.421,vts_reward_expectancy_bt,2022.2.4,Win32,60.0132029,Chrome,1366,768,,,a,0.735,1,374,1,1,10,22,11,1,0,0,0,1,0,0,1,0,star,hexagon,,,,,,,,,,,,,,,,,,,,,,,,,,,,,,,,,,,,,,,,,,,,,,,,,,,,,,
293881,2022-12-02_12h41.31.421,vts_reward_expectancy_bt,2022.2.4,Win32,60.0132029,Chrome,1366,768,,,l,0.6555,10,384,1,1,11,23,4,1,0,1,0,0,0,0,1,0,circle,hexagon,,,,,,,,,,,,,,,,,,,,,,,,,,,,,,,,,,,,,,,,,,,,,,,,,,,,,,
293881,2022-12-02_12h41.31.421,vts_reward_expectancy_bt,2022.2.4,Win32,60.0132029,Chrome,1366,768,,,l,0.7542,1,385,1,2,0,24,11,1,0,0,0,1,0,0,1,0,star,hexagon,,,,,,,,,,,,,,,,,,,,,,,,,,,,,,,,,,,,,,,,,,,,,,,,,,,,,,
293881,2022-12-02_12h41.31.421,vts_reward_expectancy_bt,2022.2.4,Win32,60.0132029,Chrome,1366,768,,,a,0.4937,1,386,1,2,1,25,2,1,1,0,0,0,0,0,0,1,triangle,star,,,,,,,,,,,,,,,,,,,,,,,,,,,,,,,,,,,,,,,,,,,,,,,,,,,,,,
293881,2022-12-02_12h41.31.421,vts_reward_expectancy_bt,2022.2.4,Win32,60.0132029,Chrome,1366,768,,,l,0.5656,10,396,1,2,2,26,1,1,1,0,0,0,0,0,1,0,triangle,hexagon,,,,,,,,,,,,,,,,,,,,,,,,,,,,,,,,,,,,,,,,,,,,,,,,,,,,,,
293881,2022-12-02_12h41.31.421,vts_reward_expectancy_bt,2022.2.4,Win32,60.0132029,Chrome,1366,768,,,a,0.8344,10,406,1,2,3,27,6,1,0,0,1,0,1,0,0,0,hexagon,triangle,,,,,,,,,,,,,,,,,,,,,,,,,,,,,,,,,,,,,,,,,,,,,,,,,,,,,,
293881,2022-12-02_12h41.31.421,vts_reward_expectancy_bt,2022.2.4,Win32,60.0132029,Chrome,1366,768,,,l,0.558,10,416,1,2,4,28,10,1,0,0,0,1,0,1,0,0,star ,circle,,,,,,,,,,,,,,,,,,,,,,,,,,,,,,,,,,,,,,,,,,,,,,,,,,,,,,
293881,2022-12-02_12h41.31.421,vts_reward_expectancy_bt,2022.2.4,Win32,60.0132029,Chrome,1366,768,,,l,0.835,10,426,1,2,5,29,7,1,0,0,1,0,0,1,0,0,hexagon,circle,,,,,,,,,,,,,,,,,,,,,,,,,,,,,,,,,,,,,,,,,,,,,,,,,,,,,,
293881,2022-12-02_12h41.31.421,vts_reward_expectancy_bt,2022.2.4,Win32,60.0132029,Chrome,1366,768,,,l,1.051,1,427,1,2,6,30,3,1,0,1,0,0,1,0,0,0,circle,triangle,,,,,,,,,,,,,,,,,,,,,,,,,,,,,,,,,,,,,,,,,,,,,,,,,,,,,,
293881,2022-12-02_12h41.31.421,vts_reward_expectancy_bt,2022.2.4,Win32,60.0132029,Chrome,1366,768,,,a,0.6998,1,428,1,2,7,31,4,1,0,1,0,0,0,0,1,0,circle,hexagon,,,,,,,,,,,,,,,,,,,,,,,,,,,,,,,,,,,,,,,,,,,,,,,,,,,,,,
293881,2022-12-02_12h41.31.421,vts_reward_expectancy_bt,2022.2.4,Win32,60.0132029,Chrome,1366,768,,,l,0.7294,1,429,1,2,8,32,9,1,0,0,0,1,1,0,0,0,star,triangle,,,,,,,,,,,,,,,,,,,,,,,,,,,,,,,,,,,,,,,,,,,,,,,,,,,,,,
293881,2022-12-02_12h41.31.421,vts_reward_expectancy_bt,2022.2.4,Win32,60.0132029,Chrome,1366,768,,,a,0.803,10,439,1,2,9,33,5,1,0,1,0,0,0,0,0,1,circle,star,,,,,,,,,,,,,,,,,,,,,,,,,,,,,,,,,,,,,,,,,,,,,,,,,,,,,,
293881,2022-12-02_12h41.31.421,vts_reward_expectancy_bt,2022.2.4,Win32,60.0132029,Chrome,1366,768,,,l,1.0302,10,449,1,2,10,34,0,1,1,0,0,0,0,1,0,0,triangle,circle,,,,,,,,,,,,,,,,,,,,,,,,,,,,,,,,,,,,,,,,,,,,,,,,,,,,,,
293881,2022-12-02_12h41.31.421,vts_reward_expectancy_bt,2022.2.4,Win32,60.0132029,Chrome,1366,768,,,a,0.5899,1,450,1,2,11,35,8,1,0,0,1,0,0,0,0,1,hexagon,star,,,,,,,,,,,,,,,,,,,,,,,,,,,,,,,,,,,,,,,,,,,,,,,,,,,,,,
293881,2022-12-02_12h41.31.421,vts_reward_expectancy_bt,2022.2.4,Win32,60.0132029,Chrome,1366,768,,,a,1.6282,1,451,2,0,0,0,4,1,0,1,0,0,0,0,1,0,circle,hexagon,,,,,,,,,,,,,,,,,,,,,,,,,,,,,,,,,,,,,,,,,,,,,,,,,,,,,,
293881,2022-12-02_12h41.31.421,vts_reward_expectancy_bt,2022.2.4,Win32,60.0132029,Chrome,1366,768,,,l,0.5195,10,461,2,0,1,1,7,1,0,0,1,0,0,1,0,0,hexagon,circle,,,,,,,,,,,,,,,,,,,,,,,,,,,,,,,,,,,,,,,,,,,,,,,,,,,,,,
293881,2022-12-02_12h41.31.421,vts_reward_expectancy_bt,2022.2.4,Win32,60.0132029,Chrome,1366,768,,,l,0.5696,10,471,2,0,2,2,10,1,0,0,0,1,0,1,0,0,star ,circle,,,,,,,,,,,,,,,,,,,,,,,,,,,,,,,,,,,,,,,,,,,,,,,,,,,,,,
293881,2022-12-02_12h41.31.421,vts_reward_expectancy_bt,2022.2.4,Win32,60.0132029,Chrome,1366,768,,,a,0.9182,1,472,2,0,3,3,2,1,1,0,0,0,0,0,0,1,triangle,star,,,,,,,,,,,,,,,,,,,,,,,,,,,,,,,,,,,,,,,,,,,,,,,,,,,,,,
293881,2022-12-02_12h41.31.421,vts_reward_expectancy_bt,2022.2.4,Win32,60.0132029,Chrome,1366,768,,,l,0.8316,10,482,2,0,4,4,1,1,1,0,0,0,0,0,1,0,triangle,hexagon,,,,,,,,,,,,,,,,,,,,,,,,,,,,,,,,,,,,,,,,,,,,,,,,,,,,,,
293881,2022-12-02_12h41.31.421,vts_reward_expectancy_bt,2022.2.4,Win32,60.0132029,Chrome,1366,768,,,a,1.515,1,483,2,0,5,5,9,1,0,0,0,1,1,0,0,0,star,triangle,,,,,,,,,,,,,,,,,,,,,,,,,,,,,,,,,,,,,,,,,,,,,,,,,,,,,,
293881,2022-12-02_12h41.31.421,vts_reward_expectancy_bt,2022.2.4,Win32,60.0132029,Chrome,1366,768,,,l,0.9539,1,484,2,0,6,6,8,1,0,0,1,0,0,0,0,1,hexagon,star,,,,,,,,,,,,,,,,,,,,,,,,,,,,,,,,,,,,,,,,,,,,,,,,,,,,,,
293881,2022-12-02_12h41.31.421,vts_reward_expectancy_bt,2022.2.4,Win32,60.0132029,Chrome,1366,768,,,l,1.1695,1,485,2,0,7,7,11,1,0,0,0,1,0,0,1,0,star,hexagon,,,,,,,,,,,,,,,,,,,,,,,,,,,,,,,,,,,,,,,,,,,,,,,,,,,,,,
293881,2022-12-02_12h41.31.421,vts_reward_expectancy_bt,2022.2.4,Win32,60.0132029,Chrome,1366,768,,,a,1.3369,10,495,2,0,8,8,5,1,0,1,0,0,0,0,0,1,circle,star,,,,,,,,,,,,,,,,,,,,,,,,,,,,,,,,,,,,,,,,,,,,,,,,,,,,,,
293881,2022-12-02_12h41.31.421,vts_reward_expectancy_bt,2022.2.4,Win32,60.0132029,Chrome,1366,768,,,l,1.7202,10,505,2,0,9,9,0,1,1,0,0,0,0,1,0,0,triangle,circle,,,,,,,,,,,,,,,,,,,,,,,,,,,,,,,,,,,,,,,,,,,,,,,,,,,,,,
293881,2022-12-02_12h41.31.421,vts_reward_expectancy_bt,2022.2.4,Win32,60.0132029,Chrome,1366,768,,,a,0.6407,10,515,2,0,10,10,3,1,0,1,0,0,1,0,0,0,circle,triangle,,,,,,,,,,,,,,,,,,,,,,,,,,,,,,,,,,,,,,,,,,,,,,,,,,,,,,
293881,2022-12-02_12h41.31.421,vts_reward_expectancy_bt,2022.2.4,Win32,60.0132029,Chrome,1366,768,,,a,2.0952,10,525,2,0,11,11,6,1,0,0,1,0,1,0,0,0,hexagon,triangle,,,,,,,,,,,,,,,,,,,,,,,,,,,,,,,,,,,,,,,,,,,,,,,,,,,,,,
293881,2022-12-02_12h41.31.421,vts_reward_expectancy_bt,2022.2.4,Win32,60.0132029,Chrome,1366,768,,,l,0.8023,10,535,2,1,0,12,4,1,0,1,0,0,0,0,1,0,circle,hexagon,,,,,,,,,,,,,,,,,,,,,,,,,,,,,,,,,,,,,,,,,,,,,,,,,,,,,,
293881,2022-12-02_12h41.31.421,vts_reward_expectancy_bt,2022.2.4,Win32,60.0132029,Chrome,1366,768,,,a,1.1098,10,545,2,1,1,13,3,1,0,1,0,0,1,0,0,0,circle,triangle,,,,,,,,,,,,,,,,,,,,,,,,,,,,,,,,,,,,,,,,,,,,,,,,,,,,,,
293881,2022-12-02_12h41.31.421,vts_reward_expectancy_bt,2022.2.4,Win32,60.0132029,Chrome,1366,768,,,l,1.1996,1,546,2,1,2,14,2,1,1,0,0,0,0,0,0,1,triangle,star,,,,,,,,,,,,,,,,,,,,,,,,,,,,,,,,,,,,,,,,,,,,,,,,,,,,,,
293881,2022-12-02_12h41.31.421,vts_reward_expectancy_bt,2022.2.4,Win32,60.0132029,Chrome,1366,768,,,l,2.0205,10,556,2,1,3,15,1,1,1,0,0,0,0,0,1,0,triangle,hexagon,,,,,,,,,,,,,,,,,,,,,,,,,,,,,,,,,,,,,,,,,,,,,,,,,,,,,,
293881,2022-12-02_12h41.31.421,vts_reward_expectancy_bt,2022.2.4,Win32,60.0132029,Chrome,1366,768,,,a,0.8763,1,557,2,1,4,16,0,1,1,0,0,0,0,1,0,0,triangle,circle,,,,,,,,,,,,,,,,,,,,,,,,,,,,,,,,,,,,,,,,,,,,,,,,,,,,,,
293881,2022-12-02_12h41.31.421,vts_reward_expectancy_bt,2022.2.4,Win32,60.0132029,Chrome,1366,768,,,l,2.6839,1,558,2,1,5,17,6,1,0,0,1,0,1,0,0,0,hexagon,triangle,,,,,,,,,,,,,,,,,,,,,,,,,,,,,,,,,,,,,,,,,,,,,,,,,,,,,,
293881,2022-12-02_12h41.31.421,vts_reward_expectancy_bt,2022.2.4,Win32,60.0132029,Chrome,1366,768,,,a,0.3859,1,559,2,1,6,18,7,1,0,0,1,0,0,1,0,0,hexagon,circle,,,,,,,,,,,,,,,,,,,,,,,,,,,,,,,,,,,,,,,,,,,,,,,,,,,,,,
293881,2022-12-02_12h41.31.421,vts_reward_expectancy_bt,2022.2.4,Win32,60.0132029,Chrome,1366,768,,,l,0.4476,1,560,2,1,7,19,11,1,0,0,0,1,0,0,1,0,star,hexagon,,,,,,,,,,,,,,,,,,,,,,,,,,,,,,,,,,,,,,,,,,,,,,,,,,,,,,
293881,2022-12-02_12h41.31.421,vts_reward_expectancy_bt,2022.2.4,Win32,60.0132029,Chrome,1366,768,,,a,0.6134,10,570,2,1,8,20,5,1,0,1,0,0,0,0,0,1,circle,star,,,,,,,,,,,,,,,,,,,,,,,,,,,,,,,,,,,,,,,,,,,,,,,,,,,,,,
293881,2022-12-02_12h41.31.421,vts_reward_expectancy_bt,2022.2.4,Win32,60.0132029,Chrome,1366,768,,,l,0.9643,10,580,2,1,9,21,9,1,0,0,0,1,1,0,0,0,star,triangle,,,,,,,,,,,,,,,,,,,,,,,,,,,,,,,,,,,,,,,,,,,,,,,,,,,,,,
293881,2022-12-02_12h41.31.421,vts_reward_expectancy_bt,2022.2.4,Win32,60.0132029,Chrome,1366,768,,,a,0.6264,10,590,2,1,10,22,8,1,0,0,1,0,0,0,0,1,hexagon,star,,,,,,,,,,,,,,,,,,,,,,,,,,,,,,,,,,,,,,,,,,,,,,,,,,,,,,
293881,2022-12-02_12h41.31.421,vts_reward_expectancy_bt,2022.2.4,Win32,60.0132029,Chrome,1366,768,,,l,0.628,10,600,2,1,11,23,10,1,0,0,0,1,0,1,0,0,star ,circle,,,,,,,,,,,,,,,,,,,,,,,,,,,,,,,,,,,,,,,,,,,,,,,,,,,,,,
293881,2022-12-02_12h41.31.421,vts_reward_expectancy_bt,2022.2.4,Win32,60.0132029,Chrome,1366,768,,,a,0.6686,1,601,2,2,0,24,2,1,1,0,0,0,0,0,0,1,triangle,star,,,,,,,,,,,,,,,,,,,,,,,,,,,,,,,,,,,,,,,,,,,,,,,,,,,,,,
293881,2022-12-02_12h41.31.421,vts_reward_expectancy_bt,2022.2.4,Win32,60.0132029,Chrome,1366,768,,,l,0.3957,1,602,2,2,1,25,9,1,0,0,0,1,1,0,0,0,star,triangle,,,,,,,,,,,,,,,,,,,,,,,,,,,,,,,,,,,,,,,,,,,,,,,,,,,,,,
293881,2022-12-02_12h41.31.421,vts_reward_expectancy_bt,2022.2.4,Win32,60.0132029,Chrome,1366,768,,,l,0.721,10,612,2,2,2,26,10,1,0,0,0,1,0,1,0,0,star ,circle,,,,,,,,,,,,,,,,,,,,,,,,,,,,,,,,,,,,,,,,,,,,,,,,,,,,,,
293881,2022-12-02_12h41.31.421,vts_reward_expectancy_bt,2022.2.4,Win32,60.0132029,Chrome,1366,768,,,a,0.7036,10,622,2,2,3,27,5,1,0,1,0,0,0,0,0,1,circle,star,,,,,,,,,,,,,,,,,,,,,,,,,,,,,,,,,,,,,,,,,,,,,,,,,,,,,,
293881,2022-12-02_12h41.31.421,vts_reward_expectancy_bt,2022.2.4,Win32,60.0132029,Chrome,1366,768,,,l,0.5981,1,623,2,2,4,28,3,1,0,1,0,0,1,0,0,0,circle,triangle,,,,,,,,,,,,,,,,,,,,,,,,,,,,,,,,,,,,,,,,,,,,,,,,,,,,,,
293881,2022-12-02_12h41.31.421,vts_reward_expectancy_bt,2022.2.4,Win32,60.0132029,Chrome,1366,768,,,l,0.58,1,624,2,2,5,29,6,1,0,0,1,0,1,0,0,0,hexagon,triangle,,,,,,,,,,,,,,,,,,,,,,,,,,,,,,,,,,,,,,,,,,,,,,,,,,,,,,
293881,2022-12-02_12h41.31.421,vts_reward_expectancy_bt,2022.2.4,Win32,60.0132029,Chrome,1366,768,,,a,0.3879,10,634,2,2,6,30,7,1,0,0,1,0,0,1,0,0,hexagon,circle,,,,,,,,,,,,,,,,,,,,,,,,,,,,,,,,,,,,,,,,,,,,,,,,,,,,,,
293881,2022-12-02_12h41.31.421,vts_reward_expectancy_bt,2022.2.4,Win32,60.0132029,Chrome,1366,768,,,a,0.4899,1,635,2,2,7,31,1,1,1,0,0,0,0,0,1,0,triangle,hexagon,,,,,,,,,,,,,,,,,,,,,,,,,,,,,,,,,,,,,,,,,,,,,,,,,,,,,,
293881,2022-12-02_12h41.31.421,vts_reward_expectancy_bt,2022.2.4,Win32,60.0132029,Chrome,1366,768,,,l,0.3649,10,645,2,2,8,32,4,1,0,1,0,0,0,0,1,0,circle,hexagon,,,,,,,,,,,,,,,,,,,,,,,,,,,,,,,,,,,,,,,,,,,,,,,,,,,,,,
293881,2022-12-02_12h41.31.421,vts_reward_expectancy_bt,2022.2.4,Win32,60.0132029,Chrome,1366,768,,,l,0.7256,10,655,2,2,9,33,0,1,1,0,0,0,0,1,0,0,triangle,circle,,,,,,,,,,,,,,,,,,,,,,,,,,,,,,,,,,,,,,,,,,,,,,,,,,,,,,
293881,2022-12-02_12h41.31.421,vts_reward_expectancy_bt,2022.2.4,Win32,60.0132029,Chrome,1366,768,,,l,0.4762,10,665,2,2,10,34,11,1,0,0,0,1,0,0,1,0,star,hexagon,,,,,,,,,,,,,,,,,,,,,,,,,,,,,,,,,,,,,,,,,,,,,,,,,,,,,,
293881,2022-12-02_12h41.31.421,vts_reward_expectancy_bt,2022.2.4,Win32,60.0132029,Chrome,1366,768,,,a,0.9135,10,675,2,2,11,35,8,1,0,0,1,0,0,0,0,1,hexagon,star,,,,,,,,,,,,,,,,,,,,,,,,,,,,,,,,,,,,,,,,,,,,,,,,,,,,,,
293881,2022-12-02_12h41.31.421,vts_reward_expectancy_bt,2022.2.4,Win32,60.0132029,Chrome,1366,768,,,,,,,,,,,,,,,,,,,,,,,B,139,hexagon,1,0,d,1.7379,0,0,0,0,0,1,,,,,,,,,,,,,,,,,,,,,,,,,,,,,,,,,,,,,,,,,
293881,2022-12-02_12h41.31.421,vts_reward_expectancy_bt,2022.2.4,Win32,60.0132029,Chrome,1366,768,,,,,,,,,,,,,,,,,,,,,,,D,160,star,1,0,d,0.7816,0,1,0,1,0,1,,,,,,,,,,,,,,,,,,,,,,,,,,,,,,,,,,,,,,,,,
293881,2022-12-02_12h41.31.421,vts_reward_expectancy_bt,2022.2.4,Win32,60.0132029,Chrome,1366,768,,,,,,,,,,,,,,,,,,,,,,,F,132,circle,1,0,d,1.1283,0,2,0,2,0,1,,,,,,,,,,,,,,,,,,,,,,,,,,,,,,,,,,,,,,,,,
293881,2022-12-02_12h41.31.421,vts_reward_expectancy_bt,2022.2.4,Win32,60.0132029,Chrome,1366,768,,,,,,,,,,,,,,,,,,,,,,,S,181,triangle,0,0,d,0.8608,0,3,0,3,0,1,,,,,,,,,,,,,,,,,,,,,,,,,,,,,,,,,,,,,,,,,
293881,2022-12-02_12h41.31.421,vts_reward_expectancy_bt,2022.2.4,Win32,60.0132029,Chrome,1366,768,,,,,,,,,,,,,,,,,,,,,,,H,146,hexagon,1,1,d,1.1606,0,4,0,4,0,1,,,,,,,,,,,,,,,,,,,,,,,,,,,,,,,,,,,,,,,,,
293881,2022-12-02_12h41.31.421,vts_reward_expectancy_bt,2022.2.4,Win32,60.0132029,Chrome,1366,768,,,,,,,,,,,,,,,,,,,,,,,W,174,star,1,0,f,0.935,0,5,0,5,0,1,,,,,,,,,,,,,,,,,,,,,,,,,,,,,,,,,,,,,,,,,
293881,2022-12-02_12h41.31.421,vts_reward_expectancy_bt,2022.2.4,Win32,60.0132029,Chrome,1366,768,,,,,,,,,,,,,,,,,,,,,,,U,125,circle,1,0,f,0.6927,0,6,0,6,0,1,,,,,,,,,,,,,,,,,,,,,,,,,,,,,,,,,,,,,,,,,
293881,2022-12-02_12h41.31.421,vts_reward_expectancy_bt,2022.2.4,Win32,60.0132029,Chrome,1366,768,,,,,,,,,,,,,,,,,,,,,,,Y,167,triangle,1,0,f,0.6687,0,7,0,7,0,1,,,,,,,,,,,,,,,,,,,,,,,,,,,,,,,,,,,,,,,,,
293881,2022-12-02_12h41.31.421,vts_reward_expectancy_bt,2022.2.4,Win32,60.0132029,Chrome,1366,768,,,,,,,,,,,,,,,,,,,,,,,B,139,circle,1,0,d,0.742,0,8,0,8,0,1,,,,,,,,,,,,,,,,,,,,,,,,,,,,,,,,,,,,,,,,,
293881,2022-12-02_12h41.31.421,vts_reward_expectancy_bt,2022.2.4,Win32,60.0132029,Chrome,1366,768,,,,,,,,,,,,,,,,,,,,,,,D,160,hexagon,1,0,d,0.7772,0,9,0,9,0,1,,,,,,,,,,,,,,,,,,,,,,,,,,,,,,,,,,,,,,,,,
293881,2022-12-02_12h41.31.421,vts_reward_expectancy_bt,2022.2.4,Win32,60.0132029,Chrome,1366,768,,,,,,,,,,,,,,,,,,,,,,,B,146,circle,1,0,,,1,,,,,,j,1.4619,0,0,0,0,1,,,,,,,,,,,,,,,,,,,,,,,,,,,,,,,,,,
293881,2022-12-02_12h41.31.421,vts_reward_expectancy_bt,2022.2.4,Win32,60.0132029,Chrome,1366,768,,,,,,,,,,,,,,,,,,,,,,,D,125,triangle,1,0,,,1,,,,,,j,0.6193,1,0,1,0,1,,,,,,,,,,,,,,,,,,,,,,,,,,,,,,,,,,
293881,2022-12-02_12h41.31.421,vts_reward_expectancy_bt,2022.2.4,Win32,60.0132029,Chrome,1366,768,,,,,,,,,,,,,,,,,,,,,,,F,160,star,1,0,,,1,,,,,,k,0.9121,2,0,2,0,1,,,,,,,,,,,,,,,,,,,,,,,,,,,,,,,,,,
293881,2022-12-02_12h41.31.421,vts_reward_expectancy_bt,2022.2.4,Win32,60.0132029,Chrome,1366,768,,,,,,,,,,,,,,,,,,,,,,,H,139,hexagon,1,0,,,1,,,,,,j,0.6767,3,0,3,0,1,,,,,,,,,,,,,,,,,,,,,,,,,,,,,,,,,,
293881,2022-12-02_12h41.31.421,vts_reward_expectancy_bt,2022.2.4,Win32,60.0132029,Chrome,1366,768,,,,,,,,,,,,,,,,,,,,,,,Y,174,circle,1,0,,,1,,,,,,k,1.0282,4,0,4,0,1,,,,,,,,,,,,,,,,,,,,,,,,,,,,,,,,,,
293881,2022-12-02_12h41.31.421,vts_reward_expectancy_bt,2022.2.4,Win32,60.0132029,Chrome,1366,768,,,,,,,,,,,,,,,,,,,,,,,U,181,triangle,1,0,,,1,,,,,,k,0.6474,5,0,5,0,1,,,,,,,,,,,,,,,,,,,,,,,,,,,,,,,,,,
293881,2022-12-02_12h41.31.421,vts_reward_expectancy_bt,2022.2.4,Win32,60.0132029,Chrome,1366,768,,,,,,,,,,,,,,,,,,,,,,,S,132,star,1,0,,,1,,,,,,j,2.0775,6,0,6,0,1,,,,,,,,,,,,,,,,,,,,,,,,,,,,,,,,,,
293881,2022-12-02_12h41.31.421,vts_reward_expectancy_bt,2022.2.4,Win32,60.0132029,Chrome,1366,768,,,,,,,,,,,,,,,,,,,,,,,W,167,hexagon,1,0,,,1,,,,,,k,1.3771,7,0,7,0,1,,,,,,,,,,,,,,,,,,,,,,,,,,,,,,,,,,
293881,2022-12-02_12h41.31.421,vts_reward_expectancy_bt,2022.2.4,Win32,60.0132029,Chrome,1366,768,,,,,,,,,,,,,,,,,,,,,,,B,146,circle,1,0,,,1,,,,,,j,1.6963,8,0,8,0,1,,,,,,,,,,,,,,,,,,,,,,,,,,,,,,,,,,
293881,2022-12-02_12h41.31.421,vts_reward_expectancy_bt,2022.2.4,Win32,60.0132029,Chrome,1366,768,,,,,,,,,,,,,,,,,,,,,,,D,125,hexagon,1,0,,,1,,,,,,j,0.975,9,0,9,0,1,,,,,,,,,,,,,,,,,,,,,,,,,,,,,,,,,,
293881,2022-12-02_12h41.31.421,vts_reward_expectancy_bt,2022.2.4,Win32,60.0132029,Chrome,1366,768,,,,,0,675,,,,,,,,,,,,,,,,,S,132,circle,-1,0,,,2,,,,,,,,,,,,,-1,no_choice,NA,,vtsPrac,0,0,0,0,1,,,,,,,,,,,,,,,,,,,,,,,,
293881,2022-12-02_12h41.31.421,vts_reward_expectancy_bt,2022.2.4,Win32,60.0132029,Chrome,1366,768,,,,,0,675,,,,,,,,,,,,,,,,,U,139,hexagon,1,0,,,2,,,,,,,,,,,,,switch,number,numSwt,j,vtsPrac,1,0,1,0,1,0.6961,,,,,,,,,,,,,,,,,,,,,,,
293881,2022-12-02_12h41.31.421,vts_reward_expectancy_bt,2022.2.4,Win32,60.0132029,Chrome,1366,768,,,,,0,675,,,,,,,,,,,,,,,,,D,167,circle,1,0,,,2,,,,,,,,,,,,,repeat,number,numRpt,k,vtsPrac,2,0,2,0,1,0.9103,,,,,,,,,,,,,,,,,,,,,,,
293881,2022-12-02_12h41.31.421,vts_reward_expectancy_bt,2022.2.4,Win32,60.0132029,Chrome,1366,768,,,,,0,675,,,,,,,,,,,,,,,,,F,125,hexagon,1,0,,,2,,,,,,,,,,,,,repeat,number,numRpt,j,vtsPrac,3,0,3,0,1,2.3655,,,,,,,,,,,,,,,,,,,,,,,
293881,2022-12-02_12h41.31.421,vts_reward_expectancy_bt,2022.2.4,Win32,60.0132029,Chrome,1366,768,,,,,0,675,,,,,,,,,,,,,,,,,S,132,star,1,0,,,2,,,,,,,,,,,,,repeat,number,numRpt,j,vtsPrac,4,0,4,0,1,2.0262,,,,,,,,,,,,,,,,,,,,,,,
293881,2022-12-02_12h41.31.421,vts_reward_expectancy_bt,2022.2.4,Win32,60.0132029,Chrome,1366,768,,,,,0,675,,,,,,,,,,,,,,,,,U,139,circle,1,0,,,2,,,,,,,,,,,,,repeat,number,numRpt,j,vtsPrac,5,0,5,0,1,1.384,,,,,,,,,,,,,,,,,,,,,,,
293881,2022-12-02_12h41.31.421,vts_reward_expectancy_bt,2022.2.4,Win32,60.0132029,Chrome,1366,768,,,,,0,675,,,,,,,,,,,,,,,,,D,167,star,1,0,,,2,,,,,,,,,,,,,repeat,number,numRpt,k,vtsPrac,6,0,6,0,1,0.492,,,,,,,,,,,,,,,,,,,,,,,
293881,2022-12-02_12h41.31.421,vts_reward_expectancy_bt,2022.2.4,Win32,60.0132029,Chrome,1366,768,,,,,0,675,,,,,,,,,,,,,,,,,F,125,triangle,1,0,,,2,,,,,,,,,,,,,repeat,number,numRpt,j,vtsPrac,7,0,7,0,1,0.6426,,,,,,,,,,,,,,,,,,,,,,,
293881,2022-12-02_12h41.31.421,vts_reward_expectancy_bt,2022.2.4,Win32,60.0132029,Chrome,1366,768,,,,,0,675,,,,,,,,,,,,,,,,,H,125,triangle,1,0,,,2,,,,,,,,,,,,,repeat,number,numRpt,j,vtsPrac,8,0,8,0,1,1.006,,,,,,,,,,,,,,,,,,,,,,,
293881,2022-12-02_12h41.31.421,vts_reward_expectancy_bt,2022.2.4,Win32,60.0132029,Chrome,1366,768,,,,,0,675,,,,,,,,,,,,,,,,,F,132,star,1,0,,,2,,,,,,,,,,,,,repeat,number,numRpt,j,vtsPrac,9,0,9,0,1,0.6604,,,,,,,,,,,,,,,,,,,,,,,
293881,2022-12-02_12h41.31.421,vts_reward_expectancy_bt,2022.2.4,Win32,60.0132029,Chrome,1366,768,,,,,0,675,,,,,,,,,,,,,,,,,B,160,hexagon,0,0,,,2,,,,,,,,,,,,,repeat,number,NA,j,vtsPrac,10,0,10,0,1,0.9572,,,,,,,,,,,,,,,,,,,,,,,
293881,2022-12-02_12h41.31.421,vts_reward_expectancy_bt,2022.2.4,Win32,60.0132029,Chrome,1366,768,,,,,0,675,,,,,,,,,,,,,,,,,S,181,triangle,1,1,,,2,,,,,,,,,,,,,repeat,number,numRpt,k,vtsPrac,11,0,11,0,1,2.243,,,,,,,,,,,,,,,,,,,,,,,
293881,2022-12-02_12h41.31.421,vts_reward_expectancy_bt,2022.2.4,Win32,60.0132029,Chrome,1366,768,,,,,0,675,,,,,,,,,,,,,,,,,Y,160,circle,1,0,,,2,,,,,,,,,,,,,repeat,number,numRpt,k,vtsPrac,12,0,12,0,1,1.0084,,,,,,,,,,,,,,,,,,,,,,,
293881,2022-12-02_12h41.31.421,vts_reward_expectancy_bt,2022.2.4,Win32,60.0132029,Chrome,1366,768,,,,,0,675,,,,,,,,,,,,,,,,,D,167,star,1,0,,,2,,,,,,,,,,,,,repeat,number,numRpt,k,vtsPrac,13,0,13,0,1,0.7477,,,,,,,,,,,,,,,,,,,,,,,
293881,2022-12-02_12h41.31.421,vts_reward_expectancy_bt,2022.2.4,Win32,60.0132029,Chrome,1366,768,,,,,0,675,,,,,,,,,,,,,,,,,F,174,circle,1,0,,,2,,,,,,,,,,,,,repeat,number,numRpt,k,vtsPrac,14,0,14,0,1,0.7663,,,,,,,,,,,,,,,,,,,,,,,
293881,2022-12-02_12h41.31.421,vts_reward_expectancy_bt,2022.2.4,Win32,60.0132029,Chrome,1366,768,,,,,0,675,,,,,,,,,,,,,,,,,W,139,triangle,1,0,,,2,,,,,,,,,,,,,repeat,number,numRpt,j,vtsPrac,15,0,15,0,1,1.5231,,,,,,,,,,,,,,,,,,,,,,,
293881,2022-12-02_12h41.31.421,vts_reward_expectancy_bt,2022.2.4,Win32,60.0132029,Chrome,1366,768,,,,,0,675,,,,,,,,,,,,,,,,,W,146,circle,1,0,,,2,,,,,,,,,,,,,repeat,number,numRpt,j,vtsPrac,16,0,16,0,1,1.2153,,,,,,,,,,,,,,,,,,,,,,,
293881,2022-12-02_12h41.31.421,vts_reward_expectancy_bt,2022.2.4,Win32,60.0132029,Chrome,1366,768,,,,,0,675,,,,,,,,,,,,,,,,,U,132,triangle,1,0,,,2,,,,,,,,,,,,,repeat,number,numRpt,j,vtsPrac,17,0,17,0,1,0.8277,,,,,,,,,,,,,,,,,,,,,,,
293881,2022-12-02_12h41.31.421,vts_reward_expectancy_bt,2022.2.4,Win32,60.0132029,Chrome,1366,768,,,,,0,675,,,,,,,,,,,,,,,,,F,181,hexagon,1,0,,,2,,,,,,,,,,,,,repeat,number,numRpt,k,vtsPrac,18,0,18,0,1,1.5438,,,,,,,,,,,,,,,,,,,,,,,
293881,2022-12-02_12h41.31.421,vts_reward_expectancy_bt,2022.2.4,Win32,60.0132029,Chrome,1366,768,,,,,0,675,,,,,,,,,,,,,,,,,B,125,star,1,0,,,2,,,,,,,,,,,,,repeat,number,numRpt,j,vtsPrac,19,0,19,0,1,1.3446,,,,,,,,,,,,,,,,,,,,,,,
293881,2022-12-02_12h41.31.421,vts_reward_expectancy_bt,2022.2.4,Win32,60.0132029,Chrome,1366,768,,,,,0,675,,,,,,,,,,,,,,,,,S,160,circle,1,0,,,2,,,,,,,,,,,,,repeat,number,numRpt,k,vtsPrac,20,0,20,0,1,1.0495,,,,,,,,,,,,,,,,,,,,,,,
293881,2022-12-02_12h41.31.421,vts_reward_expectancy_bt,2022.2.4,Win32,60.0132029,Chrome,1366,768,,,,,0,675,,,,,,,,,,,,,,,,,U,174,triangle,1,0,,,2,,,,,,,,,,,,,repeat,number,numRpt,k,vtsPrac,21,0,21,0,1,0.7611,,,,,,,,,,,,,,,,,,,,,,,
293881,2022-12-02_12h41.31.421,vts_reward_expectancy_bt,2022.2.4,Win32,60.0132029,Chrome,1366,768,,,,,0,675,,,,,,,,,,,,,,,,,Y,146,triangle,1,0,,,2,,,,,,,,,,,,,repeat,number,numRpt,j,vtsPrac,22,0,22,0,1,2.1634,,,,,,,,,,,,,,,,,,,,,,,
293881,2022-12-02_12h41.31.421,vts_reward_expectancy_bt,2022.2.4,Win32,60.0132029,Chrome,1366,768,,,,,0,675,,,,,,,,,,,,,,,,,H,181,hexagon,1,0,,,2,,,,,,,,,,,,,repeat,number,numRpt,k,vtsPrac,23,0,23,0,1,0.9187,,,,,,,,,,,,,,,,,,,,,,,
293881,2022-12-02_12h41.31.421,vts_reward_expectancy_bt,2022.2.4,Win32,60.0132029,Chrome,1366,768,,,,,0,675,,,,,,,,,,,,,,,,,B,181,star,1,0,,,2,,,,,,,,,,,,,repeat,number,numRpt,k,vtsPrac,24,0,24,0,1,0.5975,,,,,,,,,,,,,,,,,,,,,,,
293881,2022-12-02_12h41.31.421,vts_reward_expectancy_bt,2022.2.4,Win32,60.0132029,Chrome,1366,768,,,,,0,675,,,,,,,,,,,,,,,,,S,146,hexagon,1,0,,,2,,,,,,,,,,,,,repeat,number,numRpt,j,vtsPrac,25,0,25,0,1,1.7099,,,,,,,,,,,,,,,,,,,,,,,
293881,2022-12-02_12h41.31.421,vts_reward_expectancy_bt,2022.2.4,Win32,60.0132029,Chrome,1366,768,,,,,0,675,,,,,,,,,,,,,,,,,Y,132,circle,1,0,,,2,,,,,,,,,,,,,repeat,number,numRpt,j,vtsPrac,26,0,26,0,1,1.801,,,,,,,,,,,,,,,,,,,,,,,
293881,2022-12-02_12h41.31.421,vts_reward_expectancy_bt,2022.2.4,Win32,60.0132029,Chrome,1366,768,,,,,0,675,,,,,,,,,,,,,,,,,F,125,hexagon,1,0,,,2,,,,,,,,,,,,,repeat,number,numRpt,j,vtsPrac,27,0,27,0,1,1.129,,,,,,,,,,,,,,,,,,,,,,,
293881,2022-12-02_12h41.31.421,vts_reward_expectancy_bt,2022.2.4,Win32,60.0132029,Chrome,1366,768,,,,,0,675,,,,,,,,,,,,,,,,,F,167,circle,1,0,,,2,,,,,,,,,,,,,repeat,number,numRpt,k,vtsPrac,28,0,28,0,1,1.5071,,,,,,,,,,,,,,,,,,,,,,,
293881,2022-12-02_12h41.31.421,vts_reward_expectancy_bt,2022.2.4,Win32,60.0132029,Chrome,1366,768,,,,,0,675,,,,,,,,,,,,,,,,,H,139,triangle,1,0,,,2,,,,,,,,,,,,,repeat,number,numRpt,j,vtsPrac,29,0,29,0,1,0.6793,,,,,,,,,,,,,,,,,,,,,,,
293881,2022-12-02_12h41.31.421,vts_reward_expectancy_bt,2022.2.4,Win32,60.0132029,Chrome,1366,768,,,,,0,675,,,,,,,,,,,,,,,,,W,181,circle,1,0,,,2,,,,,,,,,,,,,repeat,number,numRpt,k,vtsPrac,30,0,30,0,1,0.6772,,,,,,,,,,,,,,,,,,,,,,,
293881,2022-12-02_12h41.31.421,vts_reward_expectancy_bt,2022.2.4,Win32,60.0132029,Chrome,1366,768,,,,,0,675,,,,,,,,,,,,,,,,,S,132,hexagon,1,0,,,2,,,,,,,,,,,,,repeat,number,numRpt,j,vtsPrac,31,0,31,0,1,0.9106,,,,,,,,,,,,,,,,,,,,,,,
293881,2022-12-02_12h41.31.421,vts_reward_expectancy_bt,2022.2.4,Win32,60.0132029,Chrome,1366,768,,,,,0,675,,,,,,,,,,,,,,,,,D,174,triangle,1,0,,,3,,,,,,,,,,,,,switch,letter,lettSwt,d,vtsPrac,0,0,0,0,1,0.989,,,,,,,,,,,,,,,,,,,,,,,
293881,2022-12-02_12h41.31.421,vts_reward_expectancy_bt,2022.2.4,Win32,60.0132029,Chrome,1366,768,,,,,0,675,,,,,,,,,,,,,,,,,B,132,hexagon,1,0,,,3,,,,,,,,,,,,,repeat,letter,lettRpt,d,vtsPrac,1,0,1,0,1,0.6764,,,,,,,,,,,,,,,,,,,,,,,
293881,2022-12-02_12h41.31.421,vts_reward_expectancy_bt,2022.2.4,Win32,60.0132029,Chrome,1366,768,,,,,0,675,,,,,,,,,,,,,,,,,H,160,triangle,1,0,,,3,,,,,,,,,,,,,repeat,letter,lettRpt,d,vtsPrac,2,0,2,0,1,0.9042,,,,,,,,,,,,,,,,,,,,,,,
293881,2022-12-02_12h41.31.421,vts_reward_expectancy_bt,2022.2.4,Win32,60.0132029,Chrome,1366,768,,,,,0,675,,,,,,,,,,,,,,,,,S,167,hexagon,1,0,,,3,,,,,,,,,,,,,repeat,letter,lettRpt,f,vtsPrac,3,0,3,0,1,0.723,,,,,,,,,,,,,,,,,,,,,,,
293881,2022-12-02_12h41.31.421,vts_reward_expectancy_bt,2022.2.4,Win32,60.0132029,Chrome,1366,768,,,,,0,675,,,,,,,,,,,,,,,,,D,174,hexagon,1,0,,,3,,,,,,,,,,,,,repeat,letter,lettRpt,d,vtsPrac,4,0,4,0,1,0.719,,,,,,,,,,,,,,,,,,,,,,,
293881,2022-12-02_12h41.31.421,vts_reward_expectancy_bt,2022.2.4,Win32,60.0132029,Chrome,1366,768,,,,,0,675,,,,,,,,,,,,,,,,,B,132,star,1,0,,,3,,,,,,,,,,,,,repeat,letter,lettRpt,d,vtsPrac,5,0,5,0,1,0.5013,,,,,,,,,,,,,,,,,,,,,,,
293881,2022-12-02_12h41.31.421,vts_reward_expectancy_bt,2022.2.4,Win32,60.0132029,Chrome,1366,768,,,,,0,675,,,,,,,,,,,,,,,,,H,160,star,1,0,,,3,,,,,,,,,,,,,repeat,letter,lettRpt,d,vtsPrac,6,0,6,0,1,0.7209,,,,,,,,,,,,,,,,,,,,,,,
293881,2022-12-02_12h41.31.421,vts_reward_expectancy_bt,2022.2.4,Win32,60.0132029,Chrome,1366,768,,,,,0,675,,,,,,,,,,,,,,,,,S,167,circle,1,0,,,3,,,,,,,,,,,,,repeat,letter,lettRpt,f,vtsPrac,7,0,7,0,1,0.8605,,,,,,,,,,,,,,,,,,,,,,,
293881,2022-12-02_12h41.31.421,vts_reward_expectancy_bt,2022.2.4,Win32,60.0132029,Chrome,1366,768,,,,,0,675,,,,,,,,,,,,,,,,,S,181,circle,1,0,,,3,,,,,,,,,,,,,repeat,letter,lettRpt,f,vtsPrac,8,0,8,0,1,0.7979,,,,,,,,,,,,,,,,,,,,,,,
293881,2022-12-02_12h41.31.421,vts_reward_expectancy_bt,2022.2.4,Win32,60.0132029,Chrome,1366,768,,,,,0,675,,,,,,,,,,,,,,,,,Y,125,star,1,0,,,3,,,,,,,,,,,,,repeat,letter,lettRpt,f,vtsPrac,9,0,9,0,1,0.9609,,,,,,,,,,,,,,,,,,,,,,,
293881,2022-12-02_12h41.31.421,vts_reward_expectancy_bt,2022.2.4,Win32,60.0132029,Chrome,1366,768,,,,,0,675,,,,,,,,,,,,,,,,,F,146,star,1,0,,,3,,,,,,,,,,,,,repeat,letter,lettRpt,d,vtsPrac,10,0,10,0,1,0.9783,,,,,,,,,,,,,,,,,,,,,,,
293881,2022-12-02_12h41.31.421,vts_reward_expectancy_bt,2022.2.4,Win32,60.0132029,Chrome,1366,768,,,,,0,675,,,,,,,,,,,,,,,,,B,139,triangle,1,0,,,3,,,,,,,,,,,,,repeat,letter,lettRpt,d,vtsPrac,11,0,11,0,1,0.6697,,,,,,,,,,,,,,,,,,,,,,,
293881,2022-12-02_12h41.31.421,vts_reward_expectancy_bt,2022.2.4,Win32,60.0132029,Chrome,1366,768,,,,,0,675,,,,,,,,,,,,,,,,,W,139,hexagon,1,0,,,3,,,,,,,,,,,,,repeat,letter,lettRpt,f,vtsPrac,12,0,12,0,1,0.8853,,,,,,,,,,,,,,,,,,,,,,,
293881,2022-12-02_12h41.31.421,vts_reward_expectancy_bt,2022.2.4,Win32,60.0132029,Chrome,1366,768,,,,,0,675,,,,,,,,,,,,,,,,,B,146,star,1,0,,,3,,,,,,,,,,,,,repeat,letter,lettRpt,d,vtsPrac,13,0,13,0,1,0.8455,,,,,,,,,,,,,,,,,,,,,,,
293881,2022-12-02_12h41.31.421,vts_reward_expectancy_bt,2022.2.4,Win32,60.0132029,Chrome,1366,768,,,,,0,675,,,,,,,,,,,,,,,,,D,160,triangle,1,0,,,3,,,,,,,,,,,,,repeat,letter,lettRpt,d,vtsPrac,14,0,14,0,1,0.9279,,,,,,,,,,,,,,,,,,,,,,,
293881,2022-12-02_12h41.31.421,vts_reward_expectancy_bt,2022.2.4,Win32,60.0132029,Chrome,1366,768,,,,,0,675,,,,,,,,,,,,,,,,,Y,125,hexagon,1,0,,,3,,,,,,,,,,,,,repeat,letter,lettRpt,f,vtsPrac,15,0,15,0,1,0.8482,,,,,,,,,,,,,,,,,,,,,,,
293881,2022-12-02_12h41.31.421,vts_reward_expectancy_bt,2022.2.4,Win32,60.0132029,Chrome,1366,768,,,,,0,675,,,,,,,,,,,,,,,,,S,132,circle,1,0,,,3,,,,,,,,,,,,,repeat,letter,lettRpt,f,vtsPrac,16,0,16,0,1,1.2105,,,,,,,,,,,,,,,,,,,,,,,
293881,2022-12-02_12h41.31.421,vts_reward_expectancy_bt,2022.2.4,Win32,60.0132029,Chrome,1366,768,,,,,0,675,,,,,,,,,,,,,,,,,W,167,star,1,0,,,3,,,,,,,,,,,,,repeat,letter,lettRpt,f,vtsPrac,17,0,17,0,1,0.9129,,,,,,,,,,,,,,,,,,,,,,,
293881,2022-12-02_12h41.31.421,vts_reward_expectancy_bt,2022.2.4,Win32,60.0132029,Chrome,1366,768,,,,,0,675,,,,,,,,,,,,,,,,,Y,146,triangle,1,0,,,3,,,,,,,,,,,,,repeat,letter,lettRpt,f,vtsPrac,18,0,18,0,1,1.0144,,,,,,,,,,,,,,,,,,,,,,,
293881,2022-12-02_12h41.31.421,vts_reward_expectancy_bt,2022.2.4,Win32,60.0132029,Chrome,1366,768,,,,,0,675,,,,,,,,,,,,,,,,,U,160,star,1,0,,,3,,,,,,,,,,,,,repeat,letter,lettRpt,f,vtsPrac,19,0,19,0,1,1.0046,,,,,,,,,,,,,,,,,,,,,,,
293881,2022-12-02_12h41.31.421,vts_reward_expectancy_bt,2022.2.4,Win32,60.0132029,Chrome,1366,768,,,,,0,675,,,,,,,,,,,,,,,,,F,181,triangle,1,0,,,3,,,,,,,,,,,,,repeat,letter,lettRpt,d,vtsPrac,20,0,20,0,1,1.159,,,,,,,,,,,,,,,,,,,,,,,
293881,2022-12-02_12h41.31.421,vts_reward_expectancy_bt,2022.2.4,Win32,60.0132029,Chrome,1366,768,,,,,0,675,,,,,,,,,,,,,,,,,U,146,hexagon,1,0,,,3,,,,,,,,,,,,,repeat,letter,lettRpt,f,vtsPrac,21,0,21,0,1,0.6456,,,,,,,,,,,,,,,,,,,,,,,
293881,2022-12-02_12h41.31.421,vts_reward_expectancy_bt,2022.2.4,Win32,60.0132029,Chrome,1366,768,,,,,0,675,,,,,,,,,,,,,,,,,D,160,hexagon,1,0,,,3,,,,,,,,,,,,,repeat,letter,lettRpt,d,vtsPrac,22,0,22,0,1,0.6948,,,,,,,,,,,,,,,,,,,,,,,
293881,2022-12-02_12h41.31.421,vts_reward_expectancy_bt,2022.2.4,Win32,60.0132029,Chrome,1366,768,,,,,0,675,,,,,,,,,,,,,,,,,Y,174,triangle,1,0,,,3,,,,,,,,,,,,,repeat,letter,lettRpt,f,vtsPrac,23,0,23,0,1,0.6846,,,,,,,,,,,,,,,,,,,,,,,
293881,2022-12-02_12h41.31.421,vts_reward_expectancy_bt,2022.2.4,Win32,60.0132029,Chrome,1366,768,,,,,0,675,,,,,,,,,,,,,,,,,S,174,triangle,1,0,,,3,,,,,,,,,,,,,repeat,letter,lettRpt,f,vtsPrac,24,0,24,0,1,2.4572,,,,,,,,,,,,,,,,,,,,,,,
293881,2022-12-02_12h41.31.421,vts_reward_expectancy_bt,2022.2.4,Win32,60.0132029,Chrome,1366,768,,,,,0,675,,,,,,,,,,,,,,,,,F,167,circle,1,0,,,3,,,,,,,,,,,,,repeat,letter,lettRpt,d,vtsPrac,25,0,25,0,1,0.7671,,,,,,,,,,,,,,,,,,,,,,,
293881,2022-12-02_12h41.31.421,vts_reward_expectancy_bt,2022.2.4,Win32,60.0132029,Chrome,1366,768,,,,,0,675,,,,,,,,,,,,,,,,,U,125,triangle,1,0,,,3,,,,,,,,,,,,,repeat,letter,lettRpt,f,vtsPrac,26,0,26,0,1,0.9118,,,,,,,,,,,,,,,,,,,,,,,
293881,2022-12-02_12h41.31.421,vts_reward_expectancy_bt,2022.2.4,Win32,60.0132029,Chrome,1366,768,,,,,0,675,,,,,,,,,,,,,,,,,Y,139,hexagon,1,0,,,3,,,,,,,,,,,,,repeat,letter,lettRpt,f,vtsPrac,27,0,27,0,1,0.7659,,,,,,,,,,,,,,,,,,,,,,,
293881,2022-12-02_12h41.31.421,vts_reward_expectancy_bt,2022.2.4,Win32,60.0132029,Chrome,1366,768,,,,,0,675,,,,,,,,,,,,,,,,,B,146,triangle,1,0,,,3,,,,,,,,,,,,,repeat,letter,lettRpt,d,vtsPrac,28,0,28,0,1,0.6618,,,,,,,,,,,,,,,,,,,,,,,
293881,2022-12-02_12h41.31.421,vts_reward_expectancy_bt,2022.2.4,Win32,60.0132029,Chrome,1366,768,,,,,0,675,,,,,,,,,,,,,,,,,F,160,hexagon,1,0,,,3,,,,,,,,,,,,,repeat,letter,lettRpt,d,vtsPrac,29,0,29,0,1,0.6634,,,,,,,,,,,,,,,,,,,,,,,
293881,2022-12-02_12h41.31.421,vts_reward_expectancy_bt,2022.2.4,Win32,60.0132029,Chrome,1366,768,,,,,0,675,,,,,,,,,,,,,,,,,W,167,triangle,1,0,,,3,,,,,,,,,,,,,repeat,letter,lettRpt,f,vtsPrac,30,0,30,0,1,0.5195,,,,,,,,,,,,,,,,,,,,,,,
293881,2022-12-02_12h41.31.421,vts_reward_expectancy_bt,2022.2.4,Win32,60.0132029,Chrome,1366,768,,,,,0,675,,,,,,,,,,,,,,,,,S,125,hexagon,1,0,,,3,,,,,,,,,,,,,repeat,letter,lettRpt,f,vtsPrac,31,0,31,0,1,0.6474,,,,,,,,,,,,,,,,,,,,,,,
293881,2022-12-02_12h41.31.421,vts_reward_expectancy_bt,2022.2.4,Win32,60.0132029,Chrome,1366,768,,,,,0,675,,,,,,,,,,,,,,,,,W,125,hexagon,1,0,,,4,,,,,,,,,,,,,switch,number,numSwt,j,vtsPrac,0,0,0,0,1,1.6467,,,,,,,,,,,,,,,,,,,,,,,
293881,2022-12-02_12h41.31.421,vts_reward_expectancy_bt,2022.2.4,Win32,60.0132029,Chrome,1366,768,,,,,0,675,,,,,,,,,,,,,,,,,F,181,triangle,1,0,,,4,,,,,,,,,,,,,repeat,number,numRpt,k,vtsPrac,1,0,1,0,1,1.1092,,,,,,,,,,,,,,,,,,,,,,,
293881,2022-12-02_12h41.31.421,vts_reward_expectancy_bt,2022.2.4,Win32,60.0132029,Chrome,1366,768,,,,,0,675,,,,,,,,,,,,,,,,,S,146,hexagon,1,0,,,4,,,,,,,,,,,,,repeat,number,numRpt,j,vtsPrac,2,0,2,0,1,1.2787,,,,,,,,,,,,,,,,,,,,,,,
293881,2022-12-02_12h41.31.421,vts_reward_expectancy_bt,2022.2.4,Win32,60.0132029,Chrome,1366,768,,,,,0,675,,,,,,,,,,,,,,,,,D,132,triangle,1,0,,,4,,,,,,,,,,,,,switch,letter,lettSwt,d,vtsPrac,3,0,3,0,1,0.7294,,,,,,,,,,,,,,,,,,,,,,,
293881,2022-12-02_12h41.31.421,vts_reward_expectancy_bt,2022.2.4,Win32,60.0132029,Chrome,1366,768,,,,,0,675,,,,,,,,,,,,,,,,,W,125,star,1,0,,,4,,,,,,,,,,,,,repeat,letter,lettRpt,f,vtsPrac,4,0,4,0,1,0.7536,,,,,,,,,,,,,,,,,,,,,,,
293881,2022-12-02_12h41.31.421,vts_reward_expectancy_bt,2022.2.4,Win32,60.0132029,Chrome,1366,768,,,,,0,675,,,,,,,,,,,,,,,,,F,181,triangle,1,0,,,4,,,,,,,,,,,,,repeat,letter,lettRpt,d,vtsPrac,5,0,5,0,1,1.4944,,,,,,,,,,,,,,,,,,,,,,,
293881,2022-12-02_12h41.31.421,vts_reward_expectancy_bt,2022.2.4,Win32,60.0132029,Chrome,1366,768,,,,,0,675,,,,,,,,,,,,,,,,,S,146,triangle,1,0,,,4,,,,,,,,,,,,,repeat,letter,lettRpt,f,vtsPrac,6,0,6,0,1,1.1269,,,,,,,,,,,,,,,,,,,,,,,
293881,2022-12-02_12h41.31.421,vts_reward_expectancy_bt,2022.2.4,Win32,60.0132029,Chrome,1366,768,,,,,0,675,,,,,,,,,,,,,,,,,D,132,circle,1,0,,,4,,,,,,,,,,,,,switch,number,numSwt,j,vtsPrac,7,0,7,0,1,0.7632,,,,,,,,,,,,,,,,,,,,,,,
293881,2022-12-02_12h41.31.421,vts_reward_expectancy_bt,2022.2.4,Win32,60.0132029,Chrome,1366,768,,,,,0,675,,,,,,,,,,,,,,,,,H,181,triangle,1,0,,,4,,,,,,,,,,,,,switch,letter,lettSwt,d,vtsPrac,8,0,8,0,1,0.9987,,,,,,,,,,,,,,,,,,,,,,,
293881,2022-12-02_12h41.31.421,vts_reward_expectancy_bt,2022.2.4,Win32,60.0132029,Chrome,1366,768,,,,,0,675,,,,,,,,,,,,,,,,,F,139,hexagon,1,0,,,4,,,,,,,,,,,,,repeat,letter,lettRpt,d,vtsPrac,9,0,9,0,1,1.0438,,,,,,,,,,,,,,,,,,,,,,,
293881,2022-12-02_12h41.31.421,vts_reward_expectancy_bt,2022.2.4,Win32,60.0132029,Chrome,1366,768,,,,,0,675,,,,,,,,,,,,,,,,,D,167,star,1,0,,,4,,,,,,,,,,,,,switch,number,numSwt,k,vtsPrac,10,0,10,0,1,1.9814,,,,,,,,,,,,,,,,,,,,,,,
293881,2022-12-02_12h41.31.421,vts_reward_expectancy_bt,2022.2.4,Win32,60.0132029,Chrome,1366,768,,,,,0,675,,,,,,,,,,,,,,,,,Y,146,triangle,1,0,,,4,,,,,,,,,,,,,repeat,number,numRpt,j,vtsPrac,11,0,11,0,1,0.9641,,,,,,,,,,,,,,,,,,,,,,,
293881,2022-12-02_12h41.31.421,vts_reward_expectancy_bt,2022.2.4,Win32,60.0132029,Chrome,1366,768,,,,,0,675,,,,,,,,,,,,,,,,,D,125,triangle,1,0,,,4,,,,,,,,,,,,,repeat,number,numRpt,j,vtsPrac,12,0,12,0,1,0.9952,,,,,,,,,,,,,,,,,,,,,,,
293881,2022-12-02_12h41.31.421,vts_reward_expectancy_bt,2022.2.4,Win32,60.0132029,Chrome,1366,768,,,,,0,675,,,,,,,,,,,,,,,,,U,167,hexagon,1,0,,,4,,,,,,,,,,,,,repeat,number,numRpt,k,vtsPrac,13,0,13,0,1,1.5161,,,,,,,,,,,,,,,,,,,,,,,
293881,2022-12-02_12h41.31.421,vts_reward_expectancy_bt,2022.2.4,Win32,60.0132029,Chrome,1366,768,,,,,0,675,,,,,,,,,,,,,,,,,W,146,triangle,1,0,,,4,,,,,,,,,,,,,switch,letter,lettSwt,f,vtsPrac,14,0,14,0,1,0.6614,,,,,,,,,,,,,,,,,,,,,,,
293881,2022-12-02_12h41.31.421,vts_reward_expectancy_bt,2022.2.4,Win32,60.0132029,Chrome,1366,768,,,,,0,675,,,,,,,,,,,,,,,,,H,160,hexagon,1,0,,,4,,,,,,,,,,,,,repeat,letter,lettRpt,d,vtsPrac,15,0,15,0,1,0.8071,,,,,,,,,,,,,,,,,,,,,,,
293881,2022-12-02_12h41.31.421,vts_reward_expectancy_bt,2022.2.4,Win32,60.0132029,Chrome,1366,768,,,,,0,675,,,,,,,,,,,,,,,,,W,181,star,1,0,,,4,,,,,,,,,,,,,repeat,letter,lettRpt,f,vtsPrac,16,0,16,0,1,1.2167,,,,,,,,,,,,,,,,,,,,,,,
293881,2022-12-02_12h41.31.421,vts_reward_expectancy_bt,2022.2.4,Win32,60.0132029,Chrome,1366,768,,,,,0,675,,,,,,,,,,,,,,,,,F,139,circle,1,0,,,4,,,,,,,,,,,,,switch,number,numSwt,j,vtsPrac,17,0,17,0,1,0.633,,,,,,,,,,,,,,,,,,,,,,,
293881,2022-12-02_12h41.31.421,vts_reward_expectancy_bt,2022.2.4,Win32,60.0132029,Chrome,1366,768,,,,,0,675,,,,,,,,,,,,,,,,,S,160,circle,1,0,,,4,,,,,,,,,,,,,switch,letter,lettSwt,f,vtsPrac,18,0,18,0,1,0.7964,,,,,,,,,,,,,,,,,,,,,,,
293881,2022-12-02_12h41.31.421,vts_reward_expectancy_bt,2022.2.4,Win32,60.0132029,Chrome,1366,768,,,,,0,675,,,,,,,,,,,,,,,,,B,167,star,1,0,,,4,,,,,,,,,,,,,switch,number,numSwt,k,vtsPrac,19,0,19,0,1,2.7995,,,,,,,,,,,,,,,,,,,,,,,
293881,2022-12-02_12h41.31.421,vts_reward_expectancy_bt,2022.2.4,Win32,60.0132029,Chrome,1366,768,,,,,0,675,,,,,,,,,,,,,,,,,D,125,triangle,1,0,,,4,,,,,,,,,,,,,repeat,number,numRpt,j,vtsPrac,20,0,20,0,1,1.1435,,,,,,,,,,,,,,,,,,,,,,,
293881,2022-12-02_12h41.31.421,vts_reward_expectancy_bt,2022.2.4,Win32,60.0132029,Chrome,1366,768,,,,,0,675,,,,,,,,,,,,,,,,,U,167,hexagon,1,0,,,4,,,,,,,,,,,,,repeat,number,numRpt,k,vtsPrac,21,0,21,0,1,1.3825,,,,,,,,,,,,,,,,,,,,,,,
293881,2022-12-02_12h41.31.421,vts_reward_expectancy_bt,2022.2.4,Win32,60.0132029,Chrome,1366,768,,,,,0,675,,,,,,,,,,,,,,,,,Y,139,triangle,1,0,,,4,,,,,,,,,,,,,switch,letter,lettSwt,f,vtsPrac,22,0,22,0,1,0.7476,,,,,,,,,,,,,,,,,,,,,,,
293881,2022-12-02_12h41.31.421,vts_reward_expectancy_bt,2022.2.4,Win32,60.0132029,Chrome,1366,768,,,,,0,675,,,,,,,,,,,,,,,,,B,174,hexagon,1,0,,,4,,,,,,,,,,,,,switch,number,numSwt,k,vtsPrac,23,0,23,0,1,2.4597,,,,,,,,,,,,,,,,,,,,,,,
293881,2022-12-02_12h41.31.421,vts_reward_expectancy_bt,2022.2.4,Win32,60.0132029,Chrome,1366,768,,,,,0,675,,,,,,,,,,,,,,,,,U,146,hexagon,1,0,,,4,,,,,,,,,,,,,repeat,number,numRpt,j,vtsPrac,24,0,24,0,1,0.8131,,,,,,,,,,,,,,,,,,,,,,,
293881,2022-12-02_12h41.31.421,vts_reward_expectancy_bt,2022.2.4,Win32,60.0132029,Chrome,1366,768,,,,,0,675,,,,,,,,,,,,,,,,,H,132,circle,1,0,,,4,,,,,,,,,,,,,switch,letter,lettSwt,d,vtsPrac,25,0,25,0,1,0.9439,,,,,,,,,,,,,,,,,,,,,,,
293881,2022-12-02_12h41.31.421,vts_reward_expectancy_bt,2022.2.4,Win32,60.0132029,Chrome,1366,768,,,,,0,675,,,,,,,,,,,,,,,,,W,174,hexagon,1,0,,,4,,,,,,,,,,,,,switch,number,numSwt,k,vtsPrac,26,0,26,0,1,1.4984,,,,,,,,,,,,,,,,,,,,,,,
293881,2022-12-02_12h41.31.421,vts_reward_expectancy_bt,2022.2.4,Win32,60.0132029,Chrome,1366,768,,,,,0,675,,,,,,,,,,,,,,,,,F,160,circle,1,0,,,4,,,,,,,,,,,,,repeat,number,numRpt,k,vtsPrac,27,0,27,0,1,1.5262,,,,,,,,,,,,,,,,,,,,,,,
293881,2022-12-02_12h41.31.421,vts_reward_expectancy_bt,2022.2.4,Win32,60.0132029,Chrome,1366,768,,,,,0,675,,,,,,,,,,,,,,,,,D,167,triangle,1,0,,,4,,,,,,,,,,,,,switch,letter,lettSwt,d,vtsPrac,28,0,28,0,1,1.9944,,,,,,,,,,,,,,,,,,,,,,,
293881,2022-12-02_12h41.31.421,vts_reward_expectancy_bt,2022.2.4,Win32,60.0132029,Chrome,1366,768,,,,,0,675,,,,,,,,,,,,,,,,,U,146,hexagon,1,0,,,4,,,,,,,,,,,,,repeat,letter,lettRpt,f,vtsPrac,29,0,29,0,1,1.981,,,,,,,,,,,,,,,,,,,,,,,
293881,2022-12-02_12h41.31.421,vts_reward_expectancy_bt,2022.2.4,Win32,60.0132029,Chrome,1366,768,,,,,0,675,,,,,,,,,,,,,,,,,H,139,circle,1,0,,,4,,,,,,,,,,,,,repeat,letter,lettRpt,d,vtsPrac,30,0,30,0,1,0.7781,,,,,,,,,,,,,,,,,,,,,,,
293881,2022-12-02_12h41.31.421,vts_reward_expectancy_bt,2022.2.4,Win32,60.0132029,Chrome,1366,768,,,,,0,675,,,,,,,,,,,,,,,,,F,160,hexagon,1,0,,,4,,,,,,,,,,,,,repeat,letter,lettRpt,d,vtsPrac,31,0,31,0,1,0.926,,,,,,,,,,,,,,,,,,,,,,,
293881,2022-12-02_12h41.31.421,vts_reward_expectancy_bt,2022.2.4,Win32,60.0132029,Chrome,1366,768,,,,,,,,,,,,,,,,,,,,,,,,,,,,,,,,,,,,,,,,,,,,,,,,,,,,,,,,,,,,,,,,,,,,,,,,,,,,
293881,2022-12-02_12h41.31.421,vts_reward_expectancy_bt,2022.2.4,Win32,60.0132029,Chrome,1366,768,,,,,,,,,,,,,,,,,,,,,,,,,,,,,,,,,,,,,,,,,,,,,,,,,,,,,,,,,,,,,,,,,,,,,,,,,,,,
293881,2022-12-02_12h41.31.421,vts_reward_expectancy_bt,2022.2.4,Win32,60.0132029,Chrome,1366,768,,,,,0,675,,,,,,,,,,,,,,,,,Y,167,circle,1,0,,,,,,,,,,,,,,,,switch,number,numSwt,k,noRew,,,,,,1.2085,0,0,0,0,0,1,,,,,,,,,,,,,,,,,
293881,2022-12-02_12h41.31.421,vts_reward_expectancy_bt,2022.2.4,Win32,60.0132029,Chrome,1366,768,,,,,0,675,,,,,,,,,,,,,,,,,B,160,star,1,0,,,,,,,,,,,,,,,,switch,letter,lettSwt,d,noRew,,,,,,0.6257,0,1,0,1,0,1,,,,,,,,,,,,,,,,,
293881,2022-12-02_12h41.31.421,vts_reward_expectancy_bt,2022.2.4,Win32,60.0132029,Chrome,1366,768,,,,,0,675,,,,,,,,,,,,,,,,,S,132,circle,1,0,,,,,,,,,,,,,,,,repeat,letter,lettRpt,f,noRew,,,,,,0.8697,0,2,0,2,0,1,,,,,,,,,,,,,,,,,
293881,2022-12-02_12h41.31.421,vts_reward_expectancy_bt,2022.2.4,Win32,60.0132029,Chrome,1366,768,,,,,0,675,,,,,,,,,,,,,,,,,U,174,star,1,0,,,,,,,,,,,,,,,,switch,number,numSwt,k,noRew,,,,,,1.1641,0,3,0,3,0,1,,,,,,,,,,,,,,,,,
293881,2022-12-02_12h41.31.421,vts_reward_expectancy_bt,2022.2.4,Win32,60.0132029,Chrome,1366,768,,,,,0,675,,,,,,,,,,,,,,,,,Y,167,triangle,1,0,,,,,,,,,,,,,,,,repeat,number,numRpt,k,noRew,,,,,,2.2381,0,4,0,4,0,1,,,,,,,,,,,,,,,,,
293881,2022-12-02_12h41.31.421,vts_reward_expectancy_bt,2022.2.4,Win32,60.0132029,Chrome,1366,768,,,,,0,675,,,,,,,,,,,,,,,,,B,160,hexagon,1,0,,,,,,,,,,,,,,,,switch,letter,lettSwt,d,noRew,,,,,,0.577,0,5,0,5,0,1,,,,,,,,,,,,,,,,,
293881,2022-12-02_12h41.31.421,vts_reward_expectancy_bt,2022.2.4,Win32,60.0132029,Chrome,1366,768,,,,,0,675,,,,,,,,,,,,,,,,,S,132,hexagon,1,0,,,,,,,,,,,,,,,,switch,number,numSwt,j,noRew,,,,,,1.8005,0,6,0,6,0,1,,,,,,,,,,,,,,,,,
293881,2022-12-02_12h41.31.421,vts_reward_expectancy_bt,2022.2.4,Win32,60.0132029,Chrome,1366,768,,,,,0,675,,,,,,,,,,,,,,,,,U,174,star,1,0,,,,,,,,,,,,,,,,repeat,number,numRpt,k,noRew,,,,,,2.7801,0,7,0,7,0,1,,,,,,,,,,,,,,,,,
293881,2022-12-02_12h41.31.421,vts_reward_expectancy_bt,2022.2.4,Win32,60.0132029,Chrome,1366,768,,,,,0,675,,,,,,,,,,,,,,,,,H,167,hexagon,1,0,,,,,,,,,,,,,,,,switch,letter,lettSwt,d,noRew,,,,,,0.8608,0,8,0,8,0,1,,,,,,,,,,,,,,,,,
293881,2022-12-02_12h41.31.421,vts_reward_expectancy_bt,2022.2.4,Win32,60.0132029,Chrome,1366,768,,,,,0,675,,,,,,,,,,,,,,,,,W,174,star,1,0,,,,,,,,,,,,,,,,switch,number,numSwt,k,noRew,,,,,,1.6572,0,9,0,9,0,1,,,,,,,,,,,,,,,,,
293881,2022-12-02_12h41.31.421,vts_reward_expectancy_bt,2022.2.4,Win32,60.0132029,Chrome,1366,768,,,,,0,675,,,,,,,,,,,,,,,,,F,139,star,1,0,,,,,,,,,,,,,,,,switch,letter,lettSwt,d,noRew,,,,,,1.977,0,10,0,10,0,1,,,,,,,,,,,,,,,,,
293881,2022-12-02_12h41.31.421,vts_reward_expectancy_bt,2022.2.4,Win32,60.0132029,Chrome,1366,768,,,,,0,675,,,,,,,,,,,,,,,,,Y,132,circle,1,0,,,,,,,,,,,,,,,,switch,number,numSwt,j,noRew,,,,,,1.1439,0,11,0,11,0,1,,,,,,,,,,,,,,,,,
293881,2022-12-02_12h41.31.421,vts_reward_expectancy_bt,2022.2.4,Win32,60.0132029,Chrome,1366,768,,,,,0,675,,,,,,,,,,,,,,,,,Y,146,star,1,0,,,,,,,,,,,,,,,,repeat,number,numRpt,j,noRew,,,,,,2.6883,0,12,0,12,0,1,,,,,,,,,,,,,,,,,
293881,2022-12-02_12h41.31.421,vts_reward_expectancy_bt,2022.2.4,Win32,60.0132029,Chrome,1366,768,,,,,0,675,,,,,,,,,,,,,,,,,U,132,circle,1,0,,,,,,,,,,,,,,,,repeat,number,numRpt,j,noRew,,,,,,2.1263,0,13,0,13,0,1,,,,,,,,,,,,,,,,,
293881,2022-12-02_12h41.31.421,vts_reward_expectancy_bt,2022.2.4,Win32,60.0132029,Chrome,1366,768,,,,,0,675,,,,,,,,,,,,,,,,,D,125,star,1,0,,,,,,,,,,,,,,,,switch,letter,lettSwt,d,noRew,,,,,,0.914,0,14,0,14,0,1,,,,,,,,,,,,,,,,,
293881,2022-12-02_12h41.31.421,vts_reward_expectancy_bt,2022.2.4,Win32,60.0132029,Chrome,1366,768,,,,,0,675,,,,,,,,,,,,,,,,,B,174,triangle,1,0,,,,,,,,,,,,,,,,repeat,letter,lettRpt,d,noRew,,,,,,0.7446,0,15,0,15,0,1,,,,,,,,,,,,,,,,,
293881,2022-12-02_12h41.31.421,vts_reward_expectancy_bt,2022.2.4,Win32,60.0132029,Chrome,1366,768,,,,,0,675,,,,,,,,,,,,,,,,,B,139,circle,1,0,,,,,,,,,,,,,,,,repeat,letter,lettRpt,d,noRew,,,,,,0.6301,0,16,0,16,0,1,,,,,,,,,,,,,,,,,
293881,2022-12-02_12h41.31.421,vts_reward_expectancy_bt,2022.2.4,Win32,60.0132029,Chrome,1366,768,,,,,0,675,,,,,,,,,,,,,,,,,D,167,triangle,1,0,,,,,,,,,,,,,,,,repeat,letter,lettRpt,d,noRew,,,,,,0.7175,0,17,0,17,0,1,,,,,,,,,,,,,,,,,
293881,2022-12-02_12h41.31.421,vts_reward_expectancy_bt,2022.2.4,Win32,60.0132029,Chrome,1366,768,,,,,0,675,,,,,,,,,,,,,,,,,U,132,star,0,0,,,,,,,,,,,,,,,,switch,number,NA,k,noRew,,,,,,0.7266,0,18,0,18,0,1,,,,,,,,,,,,,,,,,
293881,2022-12-02_12h41.31.421,vts_reward_expectancy_bt,2022.2.4,Win32,60.0132029,Chrome,1366,768,,,,,0,675,,,,,,,,,,,,,,,,,S,125,triangle,1,1,,,,,,,,,,,,,,,,repeat,number,numRpt,j,noRew,,,,,,1.7797,0,19,0,19,0,1,,,,,,,,,,,,,,,,,
293881,2022-12-02_12h41.31.421,vts_reward_expectancy_bt,2022.2.4,Win32,60.0132029,Chrome,1366,768,,,,,0,675,,,,,,,,,,,,,,,,,U,146,triangle,1,0,,,,,,,,,,,,,,,,repeat,number,numRpt,j,noRew,,,,,,1.778,0,20,0,20,0,1,,,,,,,,,,,,,,,,,
293881,2022-12-02_12h41.31.421,vts_reward_expectancy_bt,2022.2.4,Win32,60.0132029,Chrome,1366,768,,,,,0,675,,,,,,,,,,,,,,,,,W,167,circle,0,0,,,,,,,,,,,,,,,,repeat,number,NA,j,noRew,,,,,,2.0965,0,21,0,21,0,1,,,,,,,,,,,,,,,,,
293881,2022-12-02_12h41.31.421,vts_reward_expectancy_bt,2022.2.4,Win32,60.0132029,Chrome,1366,768,,,,,0,675,,,,,,,,,,,,,,,,,Y,160,circle,1,1,,,,,,,,,,,,,,,,repeat,number,numRpt,k,noRew,,,,,,1.7958,0,22,0,22,0,1,,,,,,,,,,,,,,,,,
293881,2022-12-02_12h41.31.421,vts_reward_expectancy_bt,2022.2.4,Win32,60.0132029,Chrome,1366,768,,,,,0,675,,,,,,,,,,,,,,,,,S,132,hexagon,1,0,,,,,,,,,,,,,,,,switch,letter,lettSwt,f,noRew,,,,,,1.1677,0,23,0,23,0,1,,,,,,,,,,,,,,,,,
293881,2022-12-02_12h41.31.421,vts_reward_expectancy_bt,2022.2.4,Win32,60.0132029,Chrome,1366,768,,,,,0,675,,,,,,,,,,,,,,,,,F,174,star,1,0,,,,,,,,,,,,,,,,switch,number,numSwt,k,noRew,,,,,,1.7918,0,24,0,24,0,1,,,,,,,,,,,,,,,,,
293881,2022-12-02_12h41.31.421,vts_reward_expectancy_bt,2022.2.4,Win32,60.0132029,Chrome,1366,768,,,,,0,675,,,,,,,,,,,,,,,,,D,181,circle,1,0,,,,,,,,,,,,,,,,repeat,number,numRpt,k,noRew,,,,,,1.6962,0,25,0,25,0,1,,,,,,,,,,,,,,,,,
293881,2022-12-02_12h41.31.421,vts_reward_expectancy_bt,2022.2.4,Win32,60.0132029,Chrome,1366,768,,,,,0,675,,,,,,,,,,,,,,,,,S,167,hexagon,1,0,,,,,,,,,,,,,,,,repeat,number,numRpt,k,noRew,,,,,,1.811,0,26,0,26,0,1,,,,,,,,,,,,,,,,,
293881,2022-12-02_12h41.31.421,vts_reward_expectancy_bt,2022.2.4,Win32,60.0132029,Chrome,1366,768,,,,,0,675,,,,,,,,,,,,,,,,,U,146,star,1,0,,,,,,,,,,,,,,,,switch,letter,lettSwt,f,noRew,,,,,,0.6082,0,27,0,27,0,1,,,,,,,,,,,,,,,,,
293881,2022-12-02_12h41.31.421,vts_reward_expectancy_bt,2022.2.4,Win32,60.0132029,Chrome,1366,768,,,,,0,675,,,,,,,,,,,,,,,,,B,139,circle,1,0,,,,,,,,,,,,,,,,repeat,letter,lettRpt,d,noRew,,,,,,1.067,0,28,0,28,0,1,,,,,,,,,,,,,,,,,
293881,2022-12-02_12h41.31.421,vts_reward_expectancy_bt,2022.2.4,Win32,60.0132029,Chrome,1366,768,,,,,0,675,,,,,,,,,,,,,,,,,U,125,triangle,1,0,,,,,,,,,,,,,,,,repeat,letter,lettRpt,f,noRew,,,,,,0.5637,0,29,0,29,0,1,,,,,,,,,,,,,,,,,
293881,2022-12-02_12h41.31.421,vts_reward_expectancy_bt,2022.2.4,Win32,60.0132029,Chrome,1366,768,,,,,0,675,,,,,,,,,,,,,,,,,D,160,hexagon,1,0,,,,,,,,,,,,,,,,switch,number,numSwt,k,noRew,,,,,,1.1675,0,30,0,30,0,1,,,,,,,,,,,,,,,,,
293881,2022-12-02_12h41.31.421,vts_reward_expectancy_bt,2022.2.4,Win32,60.0132029,Chrome,1366,768,,,,,0,675,,,,,,,,,,,,,,,,,Y,132,star,1,0,,,,,,,,,,,,,,,,repeat,number,numRpt,j,noRew,,,,,,1.4895,0,31,0,31,0,1,,,,,,,,,,,,,,,,,
293881,2022-12-02_12h41.31.421,vts_reward_expectancy_bt,2022.2.4,Win32,60.0132029,Chrome,1366,768,,,,,0,675,,,,,,,,,,,,,,,,,H,125,circle,1,0,,,,,,,,,,,,,,,,switch,letter,lettSwt,d,noRew,,,,,,1.8348,0,32,0,32,0,1,,,,,,,,,,,,,,,,,
293881,2022-12-02_12h41.31.421,vts_reward_expectancy_bt,2022.2.4,Win32,60.0132029,Chrome,1366,768,,,,,0,675,,,,,,,,,,,,,,,,,W,146,triangle,1,0,,,,,,,,,,,,,,,,switch,number,numSwt,j,noRew,,,,,,1.7014,0,33,0,33,0,1,,,,,,,,,,,,,,,,,
293881,2022-12-02_12h41.31.421,vts_reward_expectancy_bt,2022.2.4,Win32,60.0132029,Chrome,1366,768,,,,,0,675,,,,,,,,,,,,,,,,,F,132,circle,1,0,,,,,,,,,,,,,,,,repeat,number,numRpt,j,noRew,,,,,,1.8446,0,34,0,34,0,1,,,,,,,,,,,,,,,,,
293881,2022-12-02_12h41.31.421,vts_reward_expectancy_bt,2022.2.4,Win32,60.0132029,Chrome,1366,768,,,,,0,675,,,,,,,,,,,,,,,,,B,160,triangle,1,0,,,,,,,,,,,,,,,,repeat,number,numRpt,k,noRew,,,,,,1.5423,0,35,0,35,0,1,,,,,,,,,,,,,,,,,
293881,2022-12-02_12h41.31.421,vts_reward_expectancy_bt,2022.2.4,Win32,60.0132029,Chrome,1366,768,,,,,0,675,,,,,,,,,,,,,,,,,D,125,circle,1,0,,,,,,,,,,,,,,,,switch,letter,lettSwt,d,noRew,,,,,,2.0482,0,36,0,36,0,1,,,,,,,,,,,,,,,,,
293881,2022-12-02_12h41.31.421,vts_reward_expectancy_bt,2022.2.4,Win32,60.0132029,Chrome,1366,768,,,,,0,675,,,,,,,,,,,,,,,,,S,167,star,1,0,,,,,,,,,,,,,,,,repeat,letter,lettRpt,f,noRew,,,,,,1.2838,0,37,0,37,0,1,,,,,,,,,,,,,,,,,
293881,2022-12-02_12h41.31.421,vts_reward_expectancy_bt,2022.2.4,Win32,60.0132029,Chrome,1366,768,,,,,0,675,,,,,,,,,,,,,,,,,F,181,triangle,1,0,,,,,,,,,,,,,,,,repeat,letter,lettRpt,d,noRew,,,,,,1.0083,0,38,0,38,0,1,,,,,,,,,,,,,,,,,
293881,2022-12-02_12h41.31.421,vts_reward_expectancy_bt,2022.2.4,Win32,60.0132029,Chrome,1366,768,,,,,0,675,,,,,,,,,,,,,,,,,W,174,star,1,0,,,,,,,,,,,,,,,,switch,number,numSwt,k,noRew,,,,,,2.8455,0,39,0,39,0,1,,,,,,,,,,,,,,,,,
293881,2022-12-02_12h41.31.421,vts_reward_expectancy_bt,2022.2.4,Win32,60.0132029,Chrome,1366,768,,,,,0,675,,,,,,,,,,,,,,,,,B,167,star,1,0,,,,,,,,,,,,,,,,switch,letter,lettSwt,d,noRew,,,,,,1.2767,0,40,0,40,0,1,,,,,,,,,,,,,,,,,
293881,2022-12-02_12h41.31.421,vts_reward_expectancy_bt,2022.2.4,Win32,60.0132029,Chrome,1366,768,,,,,0,675,,,,,,,,,,,,,,,,,W,146,hexagon,1,0,,,,,,,,,,,,,,,,repeat,letter,lettRpt,f,noRew,,,,,,2.6932,0,41,0,41,0,1,,,,,,,,,,,,,,,,,
293881,2022-12-02_12h41.31.421,vts_reward_expectancy_bt,2022.2.4,Win32,60.0132029,Chrome,1366,768,,,,,0,675,,,,,,,,,,,,,,,,,H,160,hexagon,1,0,,,,,,,,,,,,,,,,repeat,letter,lettRpt,d,noRew,,,,,,1.1101,0,42,0,42,0,1,,,,,,,,,,,,,,,,,
293881,2022-12-02_12h41.31.421,vts_reward_expectancy_bt,2022.2.4,Win32,60.0132029,Chrome,1366,768,,,,,0,675,,,,,,,,,,,,,,,,,S,132,circle,0,0,,,,,,,,,,,,,,,,switch,number,NA,k,noRew,,,,,,2.1337,0,43,0,43,0,1,,,,,,,,,,,,,,,,,
293881,2022-12-02_12h41.31.421,vts_reward_expectancy_bt,2022.2.4,Win32,60.0132029,Chrome,1366,768,,,,,0,675,,,,,,,,,,,,,,,,,W,125,triangle,1,1,,,,,,,,,,,,,,,,repeat,number,numRpt,j,noRew,,,,,,1.4623,0,44,0,44,0,1,,,,,,,,,,,,,,,,,
293881,2022-12-02_12h41.31.421,vts_reward_expectancy_bt,2022.2.4,Win32,60.0132029,Chrome,1366,768,,,,,0,675,,,,,,,,,,,,,,,,,D,181,circle,1,0,,,,,,,,,,,,,,,,switch,letter,lettSwt,d,noRew,,,,,,0.832,0,45,0,45,0,1,,,,,,,,,,,,,,,,,
293881,2022-12-02_12h41.31.421,vts_reward_expectancy_bt,2022.2.4,Win32,60.0132029,Chrome,1366,768,,,,,0,675,,,,,,,,,,,,,,,,,B,174,triangle,1,0,,,,,,,,,,,,,,,,repeat,letter,lettRpt,d,noRew,,,,,,1.1294,0,46,0,46,0,1,,,,,,,,,,,,,,,,,
293881,2022-12-02_12h41.31.421,vts_reward_expectancy_bt,2022.2.4,Win32,60.0132029,Chrome,1366,768,,,,,0,675,,,,,,,,,,,,,,,,,S,160,circle,1,0,,,,,,,,,,,,,,,,switch,number,numSwt,k,noRew,,,,,,1.547,0,47,0,47,0,1,,,,,,,,,,,,,,,,,
293881,2022-12-02_12h41.31.421,vts_reward_expectancy_bt,2022.2.4,Win32,60.0132029,Chrome,1366,768,,,,,0,675,,,,,,,,,,,,,,,,,W,181,hexagon,1,0,,,,,,,,,,,,,,,,repeat,number,numRpt,k,noRew,,,,,,1.0286,0,48,0,48,0,1,,,,,,,,,,,,,,,,,
293881,2022-12-02_12h41.31.421,vts_reward_expectancy_bt,2022.2.4,Win32,60.0132029,Chrome,1366,768,,,,,0,675,,,,,,,,,,,,,,,,,B,160,triangle,1,0,,,,,,,,,,,,,,,,switch,letter,lettSwt,d,noRew,,,,,,2.6285,0,49,0,49,0,1,,,,,,,,,,,,,,,,,
293881,2022-12-02_12h41.31.421,vts_reward_expectancy_bt,2022.2.4,Win32,60.0132029,Chrome,1366,768,,,,,0,675,,,,,,,,,,,,,,,,,H,146,circle,1,0,,,,,,,,,,,,,,,,repeat,letter,lettRpt,d,noRew,,,,,,1.0613,0,50,0,50,0,1,,,,,,,,,,,,,,,,,
293881,2022-12-02_12h41.31.421,vts_reward_expectancy_bt,2022.2.4,Win32,60.0132029,Chrome,1366,768,,,,,0,675,,,,,,,,,,,,,,,,,D,125,triangle,1,0,,,,,,,,,,,,,,,,repeat,letter,lettRpt,d,noRew,,,,,,1.1583,0,51,0,51,0,1,,,,,,,,,,,,,,,,,
293881,2022-12-02_12h41.31.421,vts_reward_expectancy_bt,2022.2.4,Win32,60.0132029,Chrome,1366,768,,,,,0,675,,,,,,,,,,,,,,,,,Y,181,star,1,0,,,,,,,,,,,,,,,,switch,number,numSwt,k,noRew,,,,,,0.792,0,52,0,52,0,1,,,,,,,,,,,,,,,,,
293881,2022-12-02_12h41.31.421,vts_reward_expectancy_bt,2022.2.4,Win32,60.0132029,Chrome,1366,768,,,,,0,675,,,,,,,,,,,,,,,,,F,160,triangle,1,0,,,,,,,,,,,,,,,,repeat,number,numRpt,k,noRew,,,,,,1.5468,0,53,0,53,0,1,,,,,,,,,,,,,,,,,
293881,2022-12-02_12h41.31.421,vts_reward_expectancy_bt,2022.2.4,Win32,60.0132029,Chrome,1366,768,,,,,0,675,,,,,,,,,,,,,,,,,U,125,star,0,0,,,,,,,,,,,,,,,,repeat,number,NA,k,noRew,,,,,,1.6995,0,54,0,54,0,1,,,,,,,,,,,,,,,,,
293881,2022-12-02_12h41.31.421,vts_reward_expectancy_bt,2022.2.4,Win32,60.0132029,Chrome,1366,768,,,,,0,675,,,,,,,,,,,,,,,,,H,146,circle,1,1,,,,,,,,,,,,,,,,switch,letter,lettSwt,d,noRew,,,,,,1.7723,0,55,0,55,0,1,,,,,,,,,,,,,,,,,
293881,2022-12-02_12h41.31.421,vts_reward_expectancy_bt,2022.2.4,Win32,60.0132029,Chrome,1366,768,,,,,0,675,,,,,,,,,,,,,,,,,D,174,circle,1,0,,,,,,,,,,,,,,,,repeat,letter,lettRpt,d,noRew,,,,,,0.8933,0,56,0,56,0,1,,,,,,,,,,,,,,,,,
293881,2022-12-02_12h41.31.421,vts_reward_expectancy_bt,2022.2.4,Win32,60.0132029,Chrome,1366,768,,,,,0,675,,,,,,,,,,,,,,,,,H,125,triangle,1,0,,,,,,,,,,,,,,,,switch,number,numSwt,j,noRew,,,,,,0.7284,0,57,0,57,0,1,,,,,,,,,,,,,,,,,
293881,2022-12-02_12h41.31.421,vts_reward_expectancy_bt,2022.2.4,Win32,60.0132029,Chrome,1366,768,,,,,0,675,,,,,,,,,,,,,,,,,U,132,hexagon,1,0,,,,,,,,,,,,,,,,switch,letter,lettSwt,f,noRew,,,,,,0.8161,0,58,0,58,0,1,,,,,,,,,,,,,,,,,
293881,2022-12-02_12h41.31.421,vts_reward_expectancy_bt,2022.2.4,Win32,60.0132029,Chrome,1366,768,,,,,0,675,,,,,,,,,,,,,,,,,B,167,star,1,0,,,,,,,,,,,,,,,,repeat,letter,lettRpt,d,noRew,,,,,,0.7291,0,59,0,59,0,1,,,,,,,,,,,,,,,,,
293881,2022-12-02_12h41.31.421,vts_reward_expectancy_bt,2022.2.4,Win32,60.0132029,Chrome,1366,768,,,,,0,675,,,,,,,,,,,,,,,,,W,125,hexagon,1,0,,,,,,,,,,,,,,,,repeat,letter,lettRpt,f,noRew,,,,,,1.1107,0,60,0,60,0,1,,,,,,,,,,,,,,,,,
293881,2022-12-02_12h41.31.421,vts_reward_expectancy_bt,2022.2.4,Win32,60.0132029,Chrome,1366,768,,,,,0,675,,,,,,,,,,,,,,,,,Y,181,circle,1,0,,,,,,,,,,,,,,,,repeat,letter,lettRpt,f,noRew,,,,,,1.412,0,61,0,61,0,1,,,,,,,,,,,,,,,,,
293881,2022-12-02_12h41.31.421,vts_reward_expectancy_bt,2022.2.4,Win32,60.0132029,Chrome,1366,768,,,,,0,675,,,,,,,,,,,,,,,,,S,139,circle,1,0,,,,,,,,,,,,,,,,switch,number,numSwt,j,noRew,,,,,,1.0437,0,62,0,62,0,1,,,,,,,,,,,,,,,,,
293881,2022-12-02_12h41.31.421,vts_reward_expectancy_bt,2022.2.4,Win32,60.0132029,Chrome,1366,768,,,,,0,675,,,,,,,,,,,,,,,,,B,167,triangle,1,0,,,,,,,,,,,,,,,,switch,letter,lettSwt,d,noRew,,,,,,1.179,0,63,0,63,0,1,,,,,,,,,,,,,,,,,
293881,2022-12-02_12h41.31.421,vts_reward_expectancy_bt,2022.2.4,Win32,60.0132029,Chrome,1366,768,,,,,,,,,,,,,,,,,,,,,,,,,,,,,,,,,,,,,,,,,,,,,,,,,,,,,,,,,,,,,,,,,,,,,,,,,,,,
293881,2022-12-02_12h41.31.421,vts_reward_expectancy_bt,2022.2.4,Win32,60.0132029,Chrome,1366,768,,,,,0,675,,,,,,,,,,,,,,,,,H,139,circle,1,0,,,,,,,,,,,,,,,,repeat,letter,lettRpt,d,Hi,,,,,,1.2938,0,,,,,,space,17.7221,high,0,0,0,0,1,,,,,,,,,
293881,2022-12-02_12h41.31.421,vts_reward_expectancy_bt,2022.2.4,Win32,60.0132029,Chrome,1366,768,,,,,10,685,,,,,,,,,,,,,,,,,B,160,hexagon,1,0,,,,,,,,,,,,,,,,switch,number,numSwt,k,Hi,,,,,,0.4352,0,,,,,,,,high,1,0,1,0,1,,,,,,,,,
293881,2022-12-02_12h41.31.421,vts_reward_expectancy_bt,2022.2.4,Win32,60.0132029,Chrome,1366,768,,,,,0,685,,,,,,,,,,,,,,,,,S,181,triangle,0,0,,,,,,,,,,,,,,,,repeat,number,NA,j,Hi,,,,,,0.4317,0,,,,,,,,high,2,0,2,0,1,,,,,,,,,
293881,2022-12-02_12h41.31.421,vts_reward_expectancy_bt,2022.2.4,Win32,60.0132029,Chrome,1366,768,,,,,1,686,,,,,,,,,,,,,,,,,Y,125,star,1,1,,,,,,,,,,,,,,,,repeat,number,numRpt,j,Lo,,,,,,0.4772,0,,,,,,,,high,3,0,3,0,1,,,,,,,,,
293881,2022-12-02_12h41.31.421,vts_reward_expectancy_bt,2022.2.4,Win32,60.0132029,Chrome,1366,768,,,,,10,696,,,,,,,,,,,,,,,,,F,174,circle,1,0,,,,,,,,,,,,,,,,switch,letter,lettSwt,d,Hi,,,,,,0.6164,0,,,,,,,,high,4,0,4,0,1,,,,,,,,,
293881,2022-12-02_12h41.31.421,vts_reward_expectancy_bt,2022.2.4,Win32,60.0132029,Chrome,1366,768,,,,,10,706,,,,,,,,,,,,,,,,,W,132,hexagon,1,0,,,,,,,,,,,,,,,,switch,number,numSwt,j,Hi,,,,,,0.7071,0,,,,,,,,high,5,0,5,0,1,,,,,,,,,
293881,2022-12-02_12h41.31.421,vts_reward_expectancy_bt,2022.2.4,Win32,60.0132029,Chrome,1366,768,,,,,1,707,,,,,,,,,,,,,,,,,D,146,triangle,1,0,,,,,,,,,,,,,,,,switch,letter,lettSwt,d,Lo,,,,,,0.5498,0,,,,,,,,high,6,0,6,0,1,,,,,,,,,
293881,2022-12-02_12h41.31.421,vts_reward_expectancy_bt,2022.2.4,Win32,60.0132029,Chrome,1366,768,,,,,10,717,,,,,,,,,,,,,,,,,U,167,star,1,0,,,,,,,,,,,,,,,,switch,number,numSwt,k,Lo,,,,,,1.0111,0,,,,,,,,high,7,0,7,0,1,,,,,,,,,
293881,2022-12-02_12h41.31.421,vts_reward_expectancy_bt,2022.2.4,Win32,60.0132029,Chrome,1366,768,,,,,10,727,,,,,,,,,,,,,,,,,H,139,circle,1,0,,,,,,,,,,,,,,,,repeat,number,numRpt,j,Hi,,,,,,0.5448,0,,,,,,,,high,8,0,8,0,1,,,,,,,,,
293881,2022-12-02_12h41.31.421,vts_reward_expectancy_bt,2022.2.4,Win32,60.0132029,Chrome,1366,768,,,,,1,728,,,,,,,,,,,,,,,,,B,160,star,1,0,,,,,,,,,,,,,,,,repeat,number,numRpt,k,Lo,,,,,,0.5523,0,,,,,,,,high,9,0,9,0,1,,,,,,,,,
293881,2022-12-02_12h41.31.421,vts_reward_expectancy_bt,2022.2.4,Win32,60.0132029,Chrome,1366,768,,,,,10,738,,,,,,,,,,,,,,,,,S,181,hexagon,1,0,,,,,,,,,,,,,,,,switch,letter,lettSwt,f,Hi,,,,,,0.5175,0,,,,,,,,high,10,0,10,0,1,,,,,,,,,
293881,2022-12-02_12h41.31.421,vts_reward_expectancy_bt,2022.2.4,Win32,60.0132029,Chrome,1366,768,,,,,1,739,,,,,,,,,,,,,,,,,Y,125,triangle,1,0,,,,,,,,,,,,,,,,repeat,letter,lettRpt,f,Lo,,,,,,0.534,0,,,,,,,,high,11,0,11,0,1,,,,,,,,,
293881,2022-12-02_12h41.31.421,vts_reward_expectancy_bt,2022.2.4,Win32,60.0132029,Chrome,1366,768,,,,,1,740,,,,,,,,,,,,,,,,,F,174,star,1,0,,,,,,,,,,,,,,,,switch,number,numSwt,k,Lo,,,,,,1.0172,0,,,,,,,,high,12,0,12,0,1,,,,,,,,,
293881,2022-12-02_12h41.31.421,vts_reward_expectancy_bt,2022.2.4,Win32,60.0132029,Chrome,1366,768,,,,,1,741,,,,,,,,,,,,,,,,,W,132,triangle,1,0,,,,,,,,,,,,,,,,repeat,number,numRpt,j,Lo,,,,,,0.8819,0,,,,,,,,high,13,0,13,0,1,,,,,,,,,
293881,2022-12-02_12h41.31.421,vts_reward_expectancy_bt,2022.2.4,Win32,60.0132029,Chrome,1366,768,,,,,10,751,,,,,,,,,,,,,,,,,D,146,hexagon,1,0,,,,,,,,,,,,,,,,repeat,number,numRpt,j,Hi,,,,,,0.7958,0,,,,,,,,high,14,0,14,0,1,,,,,,,,,
293881,2022-12-02_12h41.31.421,vts_reward_expectancy_bt,2022.2.4,Win32,60.0132029,Chrome,1366,768,,,,,0,751,,,,,,,,,,,,,,,,,U,167,circle,0,0,,,,,,,,,,,,,,,,repeat,number,NA,j,Hi,,,,,,0.802,0,,,,,,,,high,15,0,15,0,1,,,,,,,,,
293881,2022-12-02_12h41.31.421,vts_reward_expectancy_bt,2022.2.4,Win32,60.0132029,Chrome,1366,768,,,,,1,752,,,,,,,,,,,,,,,,,D,132,triangle,1,1,,,,,,,,,,,,,,,,repeat,number,numRpt,j,Lo,,,,,,0.7271,0,,,,,,,,high,16,0,16,0,1,,,,,,,,,
293881,2022-12-02_12h41.31.421,vts_reward_expectancy_bt,2022.2.4,Win32,60.0132029,Chrome,1366,768,,,,,10,762,,,,,,,,,,,,,,,,,F,146,circle,1,0,,,,,,,,,,,,,,,,switch,letter,lettSwt,d,Hi,,,,,,0.7606,0,,,,,,,,high,17,0,17,0,1,,,,,,,,,
293881,2022-12-02_12h41.31.421,vts_reward_expectancy_bt,2022.2.4,Win32,60.0132029,Chrome,1366,768,,,,,1,763,,,,,,,,,,,,,,,,,H,125,star,1,0,,,,,,,,,,,,,,,,repeat,letter,lettRpt,d,Lo,,,,,,1.2412,0,,,,,,,,high,18,0,18,0,1,,,,,,,,,
293881,2022-12-02_12h41.31.421,vts_reward_expectancy_bt,2022.2.4,Win32,60.0132029,Chrome,1366,768,,,,,0,763,,,,,,,,,,,,,,,,,W,160,hexagon,0,0,,,,,,,,,,,,,,,,switch,number,NA,j,Lo,,,,,,1.2785,0,,,,,,,,high,19,0,19,0,1,,,,,,,,,
293881,2022-12-02_12h41.31.421,vts_reward_expectancy_bt,2022.2.4,Win32,60.0132029,Chrome,1366,768,,,,,10,773,,,,,,,,,,,,,,,,,U,174,hexagon,1,1,,,,,,,,,,,,,,,,repeat,number,numRpt,k,Hi,,,,,,1.0843,0,,,,,,,,high,20,0,20,0,1,,,,,,,,,
293881,2022-12-02_12h41.31.421,vts_reward_expectancy_bt,2022.2.4,Win32,60.0132029,Chrome,1366,768,,,,,10,783,,,,,,,,,,,,,,,,,S,139,circle,1,0,,,,,,,,,,,,,,,,repeat,number,numRpt,j,Hi,,,,,,0.7443,0,,,,,,,,high,21,0,21,0,1,,,,,,,,,
293881,2022-12-02_12h41.31.421,vts_reward_expectancy_bt,2022.2.4,Win32,60.0132029,Chrome,1366,768,,,,,1,784,,,,,,,,,,,,,,,,,Y,167,triangle,1,0,,,,,,,,,,,,,,,,switch,letter,lettSwt,f,Lo,,,,,,1.5504,0,,,,,,,,high,22,0,22,0,1,,,,,,,,,
293881,2022-12-02_12h41.31.421,vts_reward_expectancy_bt,2022.2.4,Win32,60.0132029,Chrome,1366,768,,,,,1,785,,,,,,,,,,,,,,,,,B,181,star,1,0,,,,,,,,,,,,,,,,switch,number,numSwt,k,Lo,,,,,,0.7278,0,,,,,,,,high,23,0,23,0,1,,,,,,,,,
293881,2022-12-02_12h41.31.421,vts_reward_expectancy_bt,2022.2.4,Win32,60.0132029,Chrome,1366,768,,,,,1,786,,,,,,,,,,,,,,,,,W,181,circle,1,0,,,,,,,,,,,,,,,,switch,letter,lettSwt,f,Hi,,,,,,0.7975,0,,,,,,,,high,24,0,24,0,1,,,,,,,,,
293881,2022-12-02_12h41.31.421,vts_reward_expectancy_bt,2022.2.4,Win32,60.0132029,Chrome,1366,768,,,,,0,786,,,,,,,,,,,,,,,,,F,174,hexagon,1,0,,,,,,,,,,,,,,,,repeat,letter,lettRpt,d,Hi,,,,,,0.9787,0,,,,,,,,high,25,0,25,0,1,,,,,,,,,
293881,2022-12-02_12h41.31.421,vts_reward_expectancy_bt,2022.2.4,Win32,60.0132029,Chrome,1366,768,,,,,1,787,,,,,,,,,,,,,,,,,U,160,triangle,1,0,,,,,,,,,,,,,,,,switch,number,numSwt,k,Lo,,,,,,1.1996,0,,,,,,,,high,26,0,26,0,1,,,,,,,,,
293881,2022-12-02_12h41.31.421,vts_reward_expectancy_bt,2022.2.4,Win32,60.0132029,Chrome,1366,768,,,,,1,788,,,,,,,,,,,,,,,,,Y,146,star,1,0,,,,,,,,,,,,,,,,repeat,number,numRpt,j,Lo,,,,,,0.8791,0,,,,,,,,high,27,0,27,0,1,,,,,,,,,
293881,2022-12-02_12h41.31.421,vts_reward_expectancy_bt,2022.2.4,Win32,60.0132029,Chrome,1366,768,,,,,1,789,,,,,,,,,,,,,,,,,B,125,triangle,1,0,,,,,,,,,,,,,,,,switch,letter,lettSwt,d,Lo,,,,,,0.4451,0,,,,,,,,high,28,0,28,0,1,,,,,,,,,
293881,2022-12-02_12h41.31.421,vts_reward_expectancy_bt,2022.2.4,Win32,60.0132029,Chrome,1366,768,,,,,10,799,,,,,,,,,,,,,,,,,D,167,circle,1,0,,,,,,,,,,,,,,,,repeat,letter,lettRpt,d,Hi,,,,,,0.5149,0,,,,,,,,high,29,0,29,0,1,,,,,,,,,
293881,2022-12-02_12h41.31.421,vts_reward_expectancy_bt,2022.2.4,Win32,60.0132029,Chrome,1366,768,,,,,10,809,,,,,,,,,,,,,,,,,S,132,hexagon,1,0,,,,,,,,,,,,,,,,switch,number,numSwt,j,Hi,,,,,,0.7275,0,,,,,,,,high,30,0,30,0,1,,,,,,,,,
293881,2022-12-02_12h41.31.421,vts_reward_expectancy_bt,2022.2.4,Win32,60.0132029,Chrome,1366,768,,,,,1,810,,,,,,,,,,,,,,,,,H,139,star,1,0,,,,,,,,,,,,,,,,switch,letter,lettSwt,d,Lo,,,,,,0.7105,0,,,,,,,,high,31,0,31,0,1,,,,,,,,,
293881,2022-12-02_12h41.31.421,vts_reward_expectancy_bt,2022.2.4,Win32,60.0132029,Chrome,1366,768,,,,,0,810,,,,,,,,,,,,,,,,,Y,167,triangle,0,0,,,,,,,,,,,,,,,,switch,number,NA,j,Lo,,,,,,0.8399,1,,,,,,space,10.3652,high,0,0,0,0,1,,,,,,,,,
293881,2022-12-02_12h41.31.421,vts_reward_expectancy_bt,2022.2.4,Win32,60.0132029,Chrome,1366,768,,,,,0,810,,,,,,,,,,,,,,,,,B,139,circle,1,1,,,,,,,,,,,,,,,,repeat,number,numRpt,j,Hi,,,,,,0.6789,1,,,,,,,,high,1,0,1,0,1,,,,,,,,,
293881,2022-12-02_12h41.31.421,vts_reward_expectancy_bt,2022.2.4,Win32,60.0132029,Chrome,1366,768,,,,,1,811,,,,,,,,,,,,,,,,,S,174,star,1,0,,,,,,,,,,,,,,,,repeat,number,numRpt,k,Lo,,,,,,0.4609,1,,,,,,,,high,2,0,2,0,1,,,,,,,,,
293881,2022-12-02_12h41.31.421,vts_reward_expectancy_bt,2022.2.4,Win32,60.0132029,Chrome,1366,768,,,,,10,821,,,,,,,,,,,,,,,,,W,125,hexagon,1,0,,,,,,,,,,,,,,,,switch,letter,lettSwt,f,Hi,,,,,,0.483,1,,,,,,,,high,3,0,3,0,1,,,,,,,,,
293881,2022-12-02_12h41.31.421,vts_reward_expectancy_bt,2022.2.4,Win32,60.0132029,Chrome,1366,768,,,,,10,831,,,,,,,,,,,,,,,,,U,146,triangle,1,0,,,,,,,,,,,,,,,,repeat,letter,lettRpt,f,Lo,,,,,,1.301,1,,,,,,,,high,4,0,4,0,1,,,,,,,,,
293881,2022-12-02_12h41.31.421,vts_reward_expectancy_bt,2022.2.4,Win32,60.0132029,Chrome,1366,768,,,,,0,831,,,,,,,,,,,,,,,,,H,181,circle,0,0,,,,,,,,,,,,,,,,repeat,letter,NA,f,Lo,,,,,,1.0639,1,,,,,,,,high,5,0,5,0,1,,,,,,,,,
293881,2022-12-02_12h41.31.421,vts_reward_expectancy_bt,2022.2.4,Win32,60.0132029,Chrome,1366,768,,,,,1,832,,,,,,,,,,,,,,,,,F,160,star,1,1,,,,,,,,,,,,,,,,switch,number,numSwt,k,Lo,,,,,,0.961,1,,,,,,,,high,6,0,6,0,1,,,,,,,,,
293881,2022-12-02_12h41.31.421,vts_reward_expectancy_bt,2022.2.4,Win32,60.0132029,Chrome,1366,768,,,,,0,832,,,,,,,,,,,,,,,,,D,132,hexagon,1,0,,,,,,,,,,,,,,,,repeat,number,numRpt,j,Hi,,,,,,0.7896,1,,,,,,,,high,7,0,7,0,1,,,,,,,,,
293881,2022-12-02_12h41.31.421,vts_reward_expectancy_bt,2022.2.4,Win32,60.0132029,Chrome,1366,768,,,,,10,842,,,,,,,,,,,,,,,,,Y,167,hexagon,1,0,,,,,,,,,,,,,,,,repeat,number,numRpt,k,Hi,,,,,,0.595,1,,,,,,,,high,8,0,8,0,1,,,,,,,,,
293881,2022-12-02_12h41.31.421,vts_reward_expectancy_bt,2022.2.4,Win32,60.0132029,Chrome,1366,768,,,,,10,852,,,,,,,,,,,,,,,,,B,139,circle,1,0,,,,,,,,,,,,,,,,repeat,number,numRpt,j,Hi,,,,,,0.5682,1,,,,,,,,high,9,0,9,0,1,,,,,,,,,
293881,2022-12-02_12h41.31.421,vts_reward_expectancy_bt,2022.2.4,Win32,60.0132029,Chrome,1366,768,,,,,1,853,,,,,,,,,,,,,,,,,S,174,star,1,0,,,,,,,,,,,,,,,,switch,letter,lettSwt,f,Lo,,,,,,0.4948,1,,,,,,,,high,10,0,10,0,1,,,,,,,,,
293881,2022-12-02_12h41.31.421,vts_reward_expectancy_bt,2022.2.4,Win32,60.0132029,Chrome,1366,768,,,,,10,863,,,,,,,,,,,,,,,,,W,125,triangle,1,0,,,,,,,,,,,,,,,,repeat,letter,lettRpt,f,Lo,,,,,,0.527,1,,,,,,,,high,11,0,11,0,1,,,,,,,,,
293881,2022-12-02_12h41.31.421,vts_reward_expectancy_bt,2022.2.4,Win32,60.0132029,Chrome,1366,768,,,,,1,864,,,,,,,,,,,,,,,,,U,146,hexagon,1,0,,,,,,,,,,,,,,,,repeat,letter,lettRpt,f,Hi,,,,,,0.5959,1,,,,,,,,high,12,0,12,0,1,,,,,,,,,
293881,2022-12-02_12h41.31.421,vts_reward_expectancy_bt,2022.2.4,Win32,60.0132029,Chrome,1366,768,,,,,1,865,,,,,,,,,,,,,,,,,H,181,triangle,1,0,,,,,,,,,,,,,,,,repeat,letter,lettRpt,d,Lo,,,,,,0.7447,1,,,,,,,,high,13,0,13,0,1,,,,,,,,,
293881,2022-12-02_12h41.31.421,vts_reward_expectancy_bt,2022.2.4,Win32,60.0132029,Chrome,1366,768,,,,,1,866,,,,,,,,,,,,,,,,,F,160,circle,1,0,,,,,,,,,,,,,,,,repeat,letter,lettRpt,d,Hi,,,,,,0.668,1,,,,,,,,high,14,0,14,0,1,,,,,,,,,
293881,2022-12-02_12h41.31.421,vts_reward_expectancy_bt,2022.2.4,Win32,60.0132029,Chrome,1366,768,,,,,1,867,,,,,,,,,,,,,,,,,D,132,star,1,0,,,,,,,,,,,,,,,,switch,number,numSwt,j,Lo,,,,,,0.8111,1,,,,,,,,high,15,0,15,0,1,,,,,,,,,
293881,2022-12-02_12h41.31.421,vts_reward_expectancy_bt,2022.2.4,Win32,60.0132029,Chrome,1366,768,,,,,10,877,,,,,,,,,,,,,,,,,S,167,hexagon,1,0,,,,,,,,,,,,,,,,repeat,number,numRpt,k,Hi,,,,,,0.6443,1,,,,,,,,high,16,0,16,0,1,,,,,,,,,
293881,2022-12-02_12h41.31.421,vts_reward_expectancy_bt,2022.2.4,Win32,60.0132029,Chrome,1366,768,,,,,0,877,,,,,,,,,,,,,,,,,W,160,circle,1,0,,,,,,,,,,,,,,,,repeat,number,numRpt,k,Hi,,,,,,0.8951,1,,,,,,,,high,17,0,17,0,1,,,,,,,,,
293881,2022-12-02_12h41.31.421,vts_reward_expectancy_bt,2022.2.4,Win32,60.0132029,Chrome,1366,768,,,,,1,878,,,,,,,,,,,,,,,,,U,139,star,1,0,,,,,,,,,,,,,,,,repeat,number,numRpt,j,Lo,,,,,,0.6196,1,,,,,,,,high,18,0,18,0,1,,,,,,,,,
293881,2022-12-02_12h41.31.421,vts_reward_expectancy_bt,2022.2.4,Win32,60.0132029,Chrome,1366,768,,,,,1,879,,,,,,,,,,,,,,,,,B,181,triangle,1,0,,,,,,,,,,,,,,,,repeat,number,numRpt,k,Lo,,,,,,0.5771,1,,,,,,,,high,19,0,19,0,1,,,,,,,,,
293881,2022-12-02_12h41.31.421,vts_reward_expectancy_bt,2022.2.4,Win32,60.0132029,Chrome,1366,768,,,,,1,880,,,,,,,,,,,,,,,,,D,125,triangle,1,0,,,,,,,,,,,,,,,,repeat,number,numRpt,j,Lo,,,,,,0.6119,1,,,,,,,,high,20,0,20,0,1,,,,,,,,,
293881,2022-12-02_12h41.31.421,vts_reward_expectancy_bt,2022.2.4,Win32,60.0132029,Chrome,1366,768,,,,,0,880,,,,,,,,,,,,,,,,,Y,174,hexagon,1,0,,,,,,,,,,,,,,,,repeat,number,numRpt,k,Hi,,,,,,0.808,1,,,,,,,,high,21,0,21,0,1,,,,,,,,,
293881,2022-12-02_12h41.31.421,vts_reward_expectancy_bt,2022.2.4,Win32,60.0132029,Chrome,1366,768,,,,,1,881,,,,,,,,,,,,,,,,,H,146,star,1,0,,,,,,,,,,,,,,,,switch,letter,lettSwt,d,Lo,,,,,,0.6787,1,,,,,,,,high,22,0,22,0,1,,,,,,,,,
293881,2022-12-02_12h41.31.421,vts_reward_expectancy_bt,2022.2.4,Win32,60.0132029,Chrome,1366,768,,,,,0,881,,,,,,,,,,,,,,,,,F,132,circle,1,0,,,,,,,,,,,,,,,,switch,number,numSwt,j,Hi,,,,,,1.2438,1,,,,,,,,high,23,0,23,0,1,,,,,,,,,
293881,2022-12-02_12h41.31.421,vts_reward_expectancy_bt,2022.2.4,Win32,60.0132029,Chrome,1366,768,,,,,1,882,,,,,,,,,,,,,,,,,H,167,star,1,0,,,,,,,,,,,,,,,,repeat,number,numRpt,k,Lo,,,,,,0.5167,1,,,,,,,,high,24,0,24,0,1,,,,,,,,,
293881,2022-12-02_12h41.31.421,vts_reward_expectancy_bt,2022.2.4,Win32,60.0132029,Chrome,1366,768,,,,,1,883,,,,,,,,,,,,,,,,,F,139,triangle,1,0,,,,,,,,,,,,,,,,repeat,number,numRpt,j,Lo,,,,,,0.5458,1,,,,,,,,high,25,0,25,0,1,,,,,,,,,
293881,2022-12-02_12h41.31.421,vts_reward_expectancy_bt,2022.2.4,Win32,60.0132029,Chrome,1366,768,,,,,10,893,,,,,,,,,,,,,,,,,S,181,hexagon,1,0,,,,,,,,,,,,,,,,repeat,number,numRpt,k,Hi,,,,,,0.5568,1,,,,,,,,high,26,0,26,0,1,,,,,,,,,
293881,2022-12-02_12h41.31.421,vts_reward_expectancy_bt,2022.2.4,Win32,60.0132029,Chrome,1366,768,,,,,10,903,,,,,,,,,,,,,,,,,Y,125,circle,1,0,,,,,,,,,,,,,,,,repeat,number,numRpt,j,Hi,,,,,,0.5929,1,,,,,,,,high,27,0,27,0,1,,,,,,,,,
293881,2022-12-02_12h41.31.421,vts_reward_expectancy_bt,2022.2.4,Win32,60.0132029,Chrome,1366,768,,,,,1,904,,,,,,,,,,,,,,,,,B,132,star,1,0,,,,,,,,,,,,,,,,repeat,number,numRpt,j,Lo,,,,,,0.565,1,,,,,,,,high,28,0,28,0,1,,,,,,,,,
293881,2022-12-02_12h41.31.421,vts_reward_expectancy_bt,2022.2.4,Win32,60.0132029,Chrome,1366,768,,,,,10,914,,,,,,,,,,,,,,,,,U,174,circle,1,0,,,,,,,,,,,,,,,,switch,letter,lettSwt,f,Hi,,,,,,0.5167,1,,,,,,,,high,29,0,29,0,1,,,,,,,,,
293881,2022-12-02_12h41.31.421,vts_reward_expectancy_bt,2022.2.4,Win32,60.0132029,Chrome,1366,768,,,,,1,915,,,,,,,,,,,,,,,,,D,146,triangle,1,0,,,,,,,,,,,,,,,,repeat,letter,lettRpt,d,Lo,,,,,,0.5669,1,,,,,,,,high,30,0,30,0,1,,,,,,,,,
293881,2022-12-02_12h41.31.421,vts_reward_expectancy_bt,2022.2.4,Win32,60.0132029,Chrome,1366,768,,,,,10,925,,,,,,,,,,,,,,,,,W,160,hexagon,1,0,,,,,,,,,,,,,,,,repeat,letter,lettRpt,f,Hi,,,,,,0.4345,1,,,,,,,,high,31,0,31,0,1,,,,,,,,,
293881,2022-12-02_12h41.31.421,vts_reward_expectancy_bt,2022.2.4,Win32,60.0132029,Chrome,1366,768,,,,,10,935,,,,,,,,,,,,,,,,,U,125,star,1,0,,,,,,,,,,,,,,,,switch,number,numSwt,j,Lo,,,,,,0.518,2,,,,,,space,8.1823,high,0,0,0,0,1,,,,,,,,,
293881,2022-12-02_12h41.31.421,vts_reward_expectancy_bt,2022.2.4,Win32,60.0132029,Chrome,1366,768,,,,,0,935,,,,,,,,,,,,,,,,,H,139,circle,1,0,,,,,,,,,,,,,,,,switch,letter,lettSwt,d,Hi,,,,,,0.7016,2,,,,,,,,high,1,0,1,0,1,,,,,,,,,
293881,2022-12-02_12h41.31.421,vts_reward_expectancy_bt,2022.2.4,Win32,60.0132029,Chrome,1366,768,,,,,10,945,,,,,,,,,,,,,,,,,B,146,hexagon,1,0,,,,,,,,,,,,,,,,repeat,letter,lettRpt,d,Hi,,,,,,0.4852,2,,,,,,,,high,2,0,2,0,1,,,,,,,,,
293881,2022-12-02_12h41.31.421,vts_reward_expectancy_bt,2022.2.4,Win32,60.0132029,Chrome,1366,768,,,,,0,945,,,,,,,,,,,,,,,,,S,181,triangle,0,0,,,,,,,,,,,,,,,,repeat,letter,NA,d,Hi,,,,,,0.5842,2,,,,,,,,high,3,0,3,0,1,,,,,,,,,
293881,2022-12-02_12h41.31.421,vts_reward_expectancy_bt,2022.2.4,Win32,60.0132029,Chrome,1366,768,,,,,1,946,,,,,,,,,,,,,,,,,D,160,star,1,1,,,,,,,,,,,,,,,,switch,number,numSwt,k,Lo,,,,,,0.6624,2,,,,,,,,high,4,0,4,0,1,,,,,,,,,
293881,2022-12-02_12h41.31.421,vts_reward_expectancy_bt,2022.2.4,Win32,60.0132029,Chrome,1366,768,,,,,0,946,,,,,,,,,,,,,,,,,F,132,circle,1,0,,,,,,,,,,,,,,,,repeat,number,numRpt,j,Hi,,,,,,0.5958,2,,,,,,,,high,5,0,5,0,1,,,,,,,,,
293881,2022-12-02_12h41.31.421,vts_reward_expectancy_bt,2022.2.4,Win32,60.0132029,Chrome,1366,768,,,,,0,946,,,,,,,,,,,,,,,,,W,167,hexagon,1,0,,,,,,,,,,,,,,,,repeat,number,numRpt,k,Hi,,,,,,0.6345,2,,,,,,,,high,6,0,6,0,1,,,,,,,,,
293881,2022-12-02_12h41.31.421,vts_reward_expectancy_bt,2022.2.4,Win32,60.0132029,Chrome,1366,768,,,,,10,956,,,,,,,,,,,,,,,,,Y,174,triangle,1,0,,,,,,,,,,,,,,,,repeat,number,numRpt,k,Lo,,,,,,0.5272,2,,,,,,,,high,7,0,7,0,1,,,,,,,,,
293881,2022-12-02_12h41.31.421,vts_reward_expectancy_bt,2022.2.4,Win32,60.0132029,Chrome,1366,768,,,,,1,957,,,,,,,,,,,,,,,,,U,125,star,1,0,,,,,,,,,,,,,,,,repeat,number,numRpt,j,Lo,,,,,,0.5015,2,,,,,,,,high,8,0,8,0,1,,,,,,,,,
293881,2022-12-02_12h41.31.421,vts_reward_expectancy_bt,2022.2.4,Win32,60.0132029,Chrome,1366,768,,,,,0,957,,,,,,,,,,,,,,,,,H,139,circle,1,0,,,,,,,,,,,,,,,,switch,letter,lettSwt,d,Hi,,,,,,0.5839,2,,,,,,,,high,9,0,9,0,1,,,,,,,,,
293881,2022-12-02_12h41.31.421,vts_reward_expectancy_bt,2022.2.4,Win32,60.0132029,Chrome,1366,768,,,,,10,967,,,,,,,,,,,,,,,,,B,146,hexagon,1,0,,,,,,,,,,,,,,,,repeat,letter,lettRpt,d,Hi,,,,,,0.4074,2,,,,,,,,high,10,0,10,0,1,,,,,,,,,
293881,2022-12-02_12h41.31.421,vts_reward_expectancy_bt,2022.2.4,Win32,60.0132029,Chrome,1366,768,,,,,1,968,,,,,,,,,,,,,,,,,S,181,triangle,1,0,,,,,,,,,,,,,,,,repeat,letter,lettRpt,f,Lo,,,,,,0.6849,2,,,,,,,,high,11,0,11,0,1,,,,,,,,,
293881,2022-12-02_12h41.31.421,vts_reward_expectancy_bt,2022.2.4,Win32,60.0132029,Chrome,1366,768,,,,,1,969,,,,,,,,,,,,,,,,,D,160,star,1,0,,,,,,,,,,,,,,,,repeat,letter,lettRpt,d,Lo,,,,,,0.5679,2,,,,,,,,high,12,0,12,0,1,,,,,,,,,
293881,2022-12-02_12h41.31.421,vts_reward_expectancy_bt,2022.2.4,Win32,60.0132029,Chrome,1366,768,,,,,1,970,,,,,,,,,,,,,,,,,F,132,triangle,1,0,,,,,,,,,,,,,,,,repeat,letter,lettRpt,d,Lo,,,,,,0.8346,2,,,,,,,,high,13,0,13,0,1,,,,,,,,,
293881,2022-12-02_12h41.31.421,vts_reward_expectancy_bt,2022.2.4,Win32,60.0132029,Chrome,1366,768,,,,,1,971,,,,,,,,,,,,,,,,,W,167,hexagon,1,0,,,,,,,,,,,,,,,,switch,number,numSwt,k,Hi,,,,,,0.5498,2,,,,,,,,high,14,0,14,0,1,,,,,,,,,
293881,2022-12-02_12h41.31.421,vts_reward_expectancy_bt,2022.2.4,Win32,60.0132029,Chrome,1366,768,,,,,0,971,,,,,,,,,,,,,,,,,Y,174,circle,1,0,,,,,,,,,,,,,,,,repeat,number,numRpt,k,Hi,,,,,,0.7959,2,,,,,,,,high,15,0,15,0,1,,,,,,,,,
293881,2022-12-02_12h41.31.421,vts_reward_expectancy_bt,2022.2.4,Win32,60.0132029,Chrome,1366,768,,,,,1,972,,,,,,,,,,,,,,,,,H,160,star,1,0,,,,,,,,,,,,,,,,repeat,number,numRpt,k,Lo,,,,,,0.5777,2,,,,,,,,high,16,0,16,0,1,,,,,,,,,
293881,2022-12-02_12h41.31.421,vts_reward_expectancy_bt,2022.2.4,Win32,60.0132029,Chrome,1366,768,,,,,0,972,,,,,,,,,,,,,,,,,Y,167,hexagon,1,0,,,,,,,,,,,,,,,,repeat,number,numRpt,k,Hi,,,,,,0.6974,2,,,,,,,,high,17,0,17,0,1,,,,,,,,,
293881,2022-12-02_12h41.31.421,vts_reward_expectancy_bt,2022.2.4,Win32,60.0132029,Chrome,1366,768,,,,,10,982,,,,,,,,,,,,,,,,,F,125,circle,1,0,,,,,,,,,,,,,,,,repeat,number,numRpt,j,Hi,,,,,,0.4762,2,,,,,,,,high,18,0,18,0,1,,,,,,,,,
293881,2022-12-02_12h41.31.421,vts_reward_expectancy_bt,2022.2.4,Win32,60.0132029,Chrome,1366,768,,,,,1,983,,,,,,,,,,,,,,,,,D,174,triangle,1,0,,,,,,,,,,,,,,,,repeat,number,numRpt,k,Lo,,,,,,0.4468,2,,,,,,,,high,19,0,19,0,1,,,,,,,,,
293881,2022-12-02_12h41.31.421,vts_reward_expectancy_bt,2022.2.4,Win32,60.0132029,Chrome,1366,768,,,,,0,983,,,,,,,,,,,,,,,,,S,146,hexagon,1,0,,,,,,,,,,,,,,,,switch,letter,lettSwt,f,Hi,,,,,,0.5172,2,,,,,,,,high,20,0,20,0,1,,,,,,,,,
293881,2022-12-02_12h41.31.421,vts_reward_expectancy_bt,2022.2.4,Win32,60.0132029,Chrome,1366,768,,,,,1,984,,,,,,,,,,,,,,,,,B,181,star,1,0,,,,,,,,,,,,,,,,repeat,letter,lettRpt,d,Lo,,,,,,0.5789,2,,,,,,,,high,21,0,21,0,1,,,,,,,,,
293881,2022-12-02_12h41.31.421,vts_reward_expectancy_bt,2022.2.4,Win32,60.0132029,Chrome,1366,768,,,,,1,985,,,,,,,,,,,,,,,,,U,132,triangle,1,0,,,,,,,,,,,,,,,,repeat,letter,lettRpt,f,Lo,,,,,,0.5761,2,,,,,,,,high,22,0,22,0,1,,,,,,,,,
293881,2022-12-02_12h41.31.421,vts_reward_expectancy_bt,2022.2.4,Win32,60.0132029,Chrome,1366,768,,,,,0,985,,,,,,,,,,,,,,,,,W,139,circle,0,0,,,,,,,,,,,,,,,,repeat,letter,NA,d,Lo,,,,,,0.7181,2,,,,,,,,high,23,0,23,0,1,,,,,,,,,
293881,2022-12-02_12h41.31.421,vts_reward_expectancy_bt,2022.2.4,Win32,60.0132029,Chrome,1366,768,,,,,0,985,,,,,,,,,,,,,,,,,S,125,circle,0,1,,,,,,,,,,,,,,,,repeat,letter,NA,d,Lo,,,,,,0.6049,2,,,,,,,,high,24,0,24,0,1,,,,,,,,,
293881,2022-12-02_12h41.31.421,vts_reward_expectancy_bt,2022.2.4,Win32,60.0132029,Chrome,1366,768,,,,,1,986,,,,,,,,,,,,,,,,,F,139,triangle,1,1,,,,,,,,,,,,,,,,switch,number,numSwt,j,Lo,,,,,,0.579,2,,,,,,,,high,25,0,25,0,1,,,,,,,,,
293881,2022-12-02_12h41.31.421,vts_reward_expectancy_bt,2022.2.4,Win32,60.0132029,Chrome,1366,768,,,,,1,987,,,,,,,,,,,,,,,,,W,181,star,1,0,,,,,,,,,,,,,,,,repeat,number,numRpt,k,Lo,,,,,,0.4623,2,,,,,,,,high,26,0,26,0,1,,,,,,,,,
293881,2022-12-02_12h41.31.421,vts_reward_expectancy_bt,2022.2.4,Win32,60.0132029,Chrome,1366,768,,,,,10,997,,,,,,,,,,,,,,,,,Y,167,hexagon,1,0,,,,,,,,,,,,,,,,repeat,number,numRpt,k,Hi,,,,,,0.5395,2,,,,,,,,high,27,0,27,0,1,,,,,,,,,
293881,2022-12-02_12h41.31.421,vts_reward_expectancy_bt,2022.2.4,Win32,60.0132029,Chrome,1366,768,,,,,0,997,,,,,,,,,,,,,,,,,U,132,hexagon,1,0,,,,,,,,,,,,,,,,repeat,number,numRpt,j,Hi,,,,,,0.7446,2,,,,,,,,high,28,0,28,0,1,,,,,,,,,
293881,2022-12-02_12h41.31.421,vts_reward_expectancy_bt,2022.2.4,Win32,60.0132029,Chrome,1366,768,,,,,1,998,,,,,,,,,,,,,,,,,B,174,triangle,1,0,,,,,,,,,,,,,,,,switch,letter,lettSwt,d,Lo,,,,,,0.9971,2,,,,,,,,high,29,0,29,0,1,,,,,,,,,
293881,2022-12-02_12h41.31.421,vts_reward_expectancy_bt,2022.2.4,Win32,60.0132029,Chrome,1366,768,,,,,1,999,,,,,,,,,,,,,,,,,H,146,star,1,0,,,,,,,,,,,,,,,,repeat,letter,lettRpt,d,Lo,,,,,,0.5133,2,,,,,,,,high,30,0,30,0,1,,,,,,,,,
293881,2022-12-02_12h41.31.421,vts_reward_expectancy_bt,2022.2.4,Win32,60.0132029,Chrome,1366,768,,,,,0,999,,,,,,,,,,,,,,,,,D,160,circle,1,0,,,,,,,,,,,,,,,,repeat,letter,lettRpt,d,Hi,,,,,,0.5948,2,,,,,,,,high,31,0,31,0,1,,,,,,,,,
293881,2022-12-02_12h41.31.421,vts_reward_expectancy_bt,2022.2.4,Win32,60.0132029,Chrome,1366,768,,,,,1,1000,,,,,,,,,,,,,,,,,H,132,triangle,1,0,,,,,,,,,,,,,,,,switch,number,numSwt,j,Lo,,,,,,0.742,3,,,,,,space,8.0916,high,0,0,0,0,1,,,,,,,,,
293881,2022-12-02_12h41.31.421,vts_reward_expectancy_bt,2022.2.4,Win32,60.0132029,Chrome,1366,768,,,,,0,1000,,,,,,,,,,,,,,,,,F,160,hexagon,1,0,,,,,,,,,,,,,,,,switch,letter,lettSwt,d,Hi,,,,,,1.1933,3,,,,,,,,high,1,0,1,0,1,,,,,,,,,
293881,2022-12-02_12h41.31.421,vts_reward_expectancy_bt,2022.2.4,Win32,60.0132029,Chrome,1366,768,,,,,0,1000,,,,,,,,,,,,,,,,,B,167,circle,1,0,,,,,,,,,,,,,,,,switch,number,numSwt,k,Hi,,,,,,0.5955,3,,,,,,,,high,2,0,2,0,1,,,,,,,,,
293881,2022-12-02_12h41.31.421,vts_reward_expectancy_bt,2022.2.4,Win32,60.0132029,Chrome,1366,768,,,,,1,1001,,,,,,,,,,,,,,,,,Y,181,star,1,0,,,,,,,,,,,,,,,,repeat,number,numRpt,k,Lo,,,,,,0.6677,3,,,,,,,,high,3,0,3,0,1,,,,,,,,,
293881,2022-12-02_12h41.31.421,vts_reward_expectancy_bt,2022.2.4,Win32,60.0132029,Chrome,1366,768,,,,,1,1002,,,,,,,,,,,,,,,,,D,125,triangle,1,0,,,,,,,,,,,,,,,,repeat,number,numRpt,j,Lo,,,,,,0.5515,3,,,,,,,,high,4,0,4,0,1,,,,,,,,,
293881,2022-12-02_12h41.31.421,vts_reward_expectancy_bt,2022.2.4,Win32,60.0132029,Chrome,1366,768,,,,,0,1002,,,,,,,,,,,,,,,,,U,174,hexagon,1,0,,,,,,,,,,,,,,,,switch,letter,lettSwt,f,Hi,,,,,,0.7339,3,,,,,,,,high,5,0,5,0,1,,,,,,,,,
293881,2022-12-02_12h41.31.421,vts_reward_expectancy_bt,2022.2.4,Win32,60.0132029,Chrome,1366,768,,,,,0,1002,,,,,,,,,,,,,,,,,S,146,circle,1,0,,,,,,,,,,,,,,,,switch,number,numSwt,j,Hi,,,,,,0.6898,3,,,,,,,,high,6,0,6,0,1,,,,,,,,,
293881,2022-12-02_12h41.31.421,vts_reward_expectancy_bt,2022.2.4,Win32,60.0132029,Chrome,1366,768,,,,,1,1003,,,,,,,,,,,,,,,,,W,139,star,1,0,,,,,,,,,,,,,,,,repeat,number,numRpt,j,Lo,,,,,,0.6175,3,,,,,,,,high,7,0,7,0,1,,,,,,,,,
293881,2022-12-02_12h41.31.421,vts_reward_expectancy_bt,2022.2.4,Win32,60.0132029,Chrome,1366,768,,,,,1,1004,,,,,,,,,,,,,,,,,H,132,star,1,0,,,,,,,,,,,,,,,,repeat,number,numRpt,j,Lo,,,,,,0.5519,3,,,,,,,,high,8,0,8,0,1,,,,,,,,,
293881,2022-12-02_12h41.31.421,vts_reward_expectancy_bt,2022.2.4,Win32,60.0132029,Chrome,1366,768,,,,,0,1004,,,,,,,,,,,,,,,,,F,160,circle,0,0,,,,,,,,,,,,,,,,repeat,number,NA,j,Lo,,,,,,0.5809,3,,,,,,,,high,9,0,9,0,1,,,,,,,,,
293881,2022-12-02_12h41.31.421,vts_reward_expectancy_bt,2022.2.4,Win32,60.0132029,Chrome,1366,768,,,,,1,1005,,,,,,,,,,,,,,,,,B,167,triangle,1,1,,,,,,,,,,,,,,,,repeat,number,numRpt,k,Lo,,,,,,0.5099,3,,,,,,,,high,10,0,10,0,1,,,,,,,,,
293881,2022-12-02_12h41.31.421,vts_reward_expectancy_bt,2022.2.4,Win32,60.0132029,Chrome,1366,768,,,,,0,1005,,,,,,,,,,,,,,,,,Y,181,hexagon,1,0,,,,,,,,,,,,,,,,repeat,number,numRpt,k,Hi,,,,,,0.6611,3,,,,,,,,high,11,0,11,0,1,,,,,,,,,
293881,2022-12-02_12h41.31.421,vts_reward_expectancy_bt,2022.2.4,Win32,60.0132029,Chrome,1366,768,,,,,0,1005,,,,,,,,,,,,,,,,,D,125,circle,1,0,,,,,,,,,,,,,,,,repeat,number,numRpt,j,Hi,,,,,,0.6778,3,,,,,,,,high,12,0,12,0,1,,,,,,,,,
293881,2022-12-02_12h41.31.421,vts_reward_expectancy_bt,2022.2.4,Win32,60.0132029,Chrome,1366,768,,,,,1,1006,,,,,,,,,,,,,,,,,U,174,star,1,0,,,,,,,,,,,,,,,,repeat,number,numRpt,k,Lo,,,,,,0.5752,3,,,,,,,,high,13,0,13,0,1,,,,,,,,,
293881,2022-12-02_12h41.31.421,vts_reward_expectancy_bt,2022.2.4,Win32,60.0132029,Chrome,1366,768,,,,,10,1016,,,,,,,,,,,,,,,,,S,146,triangle,1,0,,,,,,,,,,,,,,,,switch,letter,lettSwt,f,Lo,,,,,,0.562,3,,,,,,,,high,14,0,14,0,1,,,,,,,,,
293881,2022-12-02_12h41.31.421,vts_reward_expectancy_bt,2022.2.4,Win32,60.0132029,Chrome,1366,768,,,,,0,1016,,,,,,,,,,,,,,,,,W,139,hexagon,1,0,,,,,,,,,,,,,,,,repeat,letter,lettRpt,f,Hi,,,,,,0.5611,3,,,,,,,,high,15,0,15,0,1,,,,,,,,,
293881,2022-12-02_12h41.31.421,vts_reward_expectancy_bt,2022.2.4,Win32,60.0132029,Chrome,1366,768,,,,,0,1016,,,,,,,,,,,,,,,,,F,174,triangle,0,0,,,,,,,,,,,,,,,,repeat,letter,NA,f,Hi,,,,,,0.6178,3,,,,,,,,high,16,0,16,0,1,,,,,,,,,
293881,2022-12-02_12h41.31.421,vts_reward_expectancy_bt,2022.2.4,Win32,60.0132029,Chrome,1366,768,,,,,1,1017,,,,,,,,,,,,,,,,,W,160,star,1,1,,,,,,,,,,,,,,,,repeat,letter,lettRpt,f,Lo,,,,,,0.5105,3,,,,,,,,high,17,0,17,0,1,,,,,,,,,
293881,2022-12-02_12h41.31.421,vts_reward_expectancy_bt,2022.2.4,Win32,60.0132029,Chrome,1366,768,,,,,0,1017,,,,,,,,,,,,,,,,,Y,181,hexagon,0,0,,,,,,,,,,,,,,,,repeat,letter,NA,d,Lo,,,,,,0.7445,3,,,,,,,,high,18,0,18,0,1,,,,,,,,,
293881,2022-12-02_12h41.31.421,vts_reward_expectancy_bt,2022.2.4,Win32,60.0132029,Chrome,1366,768,,,,,0,1017,,,,,,,,,,,,,,,,,S,146,circle,1,1,,,,,,,,,,,,,,,,repeat,letter,lettRpt,f,Hi,,,,,,0.6178,3,,,,,,,,high,19,0,19,0,1,,,,,,,,,
293881,2022-12-02_12h41.31.421,vts_reward_expectancy_bt,2022.2.4,Win32,60.0132029,Chrome,1366,768,,,,,0,1017,,,,,,,,,,,,,,,,,U,139,hexagon,1,0,,,,,,,,,,,,,,,,repeat,letter,lettRpt,f,Hi,,,,,,0.6452,3,,,,,,,,high,20,0,20,0,1,,,,,,,,,
293881,2022-12-02_12h41.31.421,vts_reward_expectancy_bt,2022.2.4,Win32,60.0132029,Chrome,1366,768,,,,,10,1027,,,,,,,,,,,,,,,,,B,167,triangle,1,0,,,,,,,,,,,,,,,,repeat,letter,lettRpt,d,Lo,,,,,,0.331,3,,,,,,,,high,21,0,21,0,1,,,,,,,,,
293881,2022-12-02_12h41.31.421,vts_reward_expectancy_bt,2022.2.4,Win32,60.0132029,Chrome,1366,768,,,,,1,1028,,,,,,,,,,,,,,,,,D,132,circle,1,0,,,,,,,,,,,,,,,,repeat,letter,lettRpt,d,Hi,,,,,,0.4727,3,,,,,,,,high,22,0,22,0,1,,,,,,,,,
293881,2022-12-02_12h41.31.421,vts_reward_expectancy_bt,2022.2.4,Win32,60.0132029,Chrome,1366,768,,,,,1,1029,,,,,,,,,,,,,,,,,H,125,star,1,0,,,,,,,,,,,,,,,,switch,number,numSwt,j,Lo,,,,,,0.6131,3,,,,,,,,high,23,0,23,0,1,,,,,,,,,
293881,2022-12-02_12h41.31.421,vts_reward_expectancy_bt,2022.2.4,Win32,60.0132029,Chrome,1366,768,,,,,10,1039,,,,,,,,,,,,,,,,,U,167,hexagon,1,0,,,,,,,,,,,,,,,,repeat,number,numRpt,k,Hi,,,,,,0.4616,3,,,,,,,,high,24,0,24,0,1,,,,,,,,,
293881,2022-12-02_12h41.31.421,vts_reward_expectancy_bt,2022.2.4,Win32,60.0132029,Chrome,1366,768,,,,,1,1040,,,,,,,,,,,,,,,,,D,139,triangle,1,0,,,,,,,,,,,,,,,,repeat,number,numRpt,j,Lo,,,,,,0.5466,3,,,,,,,,high,25,0,25,0,1,,,,,,,,,
293881,2022-12-02_12h41.31.421,vts_reward_expectancy_bt,2022.2.4,Win32,60.0132029,Chrome,1366,768,,,,,0,1040,,,,,,,,,,,,,,,,,F,160,circle,1,0,,,,,,,,,,,,,,,,repeat,number,numRpt,k,Hi,,,,,,0.6487,3,,,,,,,,high,26,0,26,0,1,,,,,,,,,
293881,2022-12-02_12h41.31.421,vts_reward_expectancy_bt,2022.2.4,Win32,60.0132029,Chrome,1366,768,,,,,1,1041,,,,,,,,,,,,,,,,,S,132,star,1,0,,,,,,,,,,,,,,,,repeat,number,numRpt,j,Lo,,,,,,0.4903,3,,,,,,,,high,27,0,27,0,1,,,,,,,,,
293881,2022-12-02_12h41.31.421,vts_reward_expectancy_bt,2022.2.4,Win32,60.0132029,Chrome,1366,768,,,,,0,1041,,,,,,,,,,,,,,,,,W,174,star,0,0,,,,,,,,,,,,,,,,repeat,number,NA,j,Lo,,,,,,0.5104,3,,,,,,,,high,28,0,28,0,1,,,,,,,,,
293881,2022-12-02_12h41.31.421,vts_reward_expectancy_bt,2022.2.4,Win32,60.0132029,Chrome,1366,768,,,,,1,1042,,,,,,,,,,,,,,,,,B,125,triangle,1,1,,,,,,,,,,,,,,,,switch,letter,lettSwt,d,Lo,,,,,,0.5195,3,,,,,,,,high,29,0,29,0,1,,,,,,,,,
293881,2022-12-02_12h41.31.421,vts_reward_expectancy_bt,2022.2.4,Win32,60.0132029,Chrome,1366,768,,,,,0,1042,,,,,,,,,,,,,,,,,H,146,circle,0,0,,,,,,,,,,,,,,,,repeat,letter,NA,f,Lo,,,,,,0.5859,3,,,,,,,,high,30,0,30,0,1,,,,,,,,,
293881,2022-12-02_12h41.31.421,vts_reward_expectancy_bt,2022.2.4,Win32,60.0132029,Chrome,1366,768,,,,,1,1043,,,,,,,,,,,,,,,,,Y,181,hexagon,1,1,,,,,,,,,,,,,,,,repeat,letter,lettRpt,f,Hi,,,,,,0.5117,3,,,,,,,,high,31,0,31,0,1,,,,,,,,,
293881,2022-12-02_12h41.31.421,vts_reward_expectancy_bt,2022.2.4,Win32,60.0132029,Chrome,1366,768,,,,,0,1043,,,,,,,,,,,,,,,,,Y,160,circle,1,0,,,,,,,,,,,,,,,,switch,number,numSwt,k,Hi,,,,,,0.6496,4,,,,,,space,1.6514,high,0,0,0,0,1,,,,,,,,,
293881,2022-12-02_12h41.31.421,vts_reward_expectancy_bt,2022.2.4,Win32,60.0132029,Chrome,1366,768,,,,,10,1053,,,,,,,,,,,,,,,,,D,181,triangle,1,0,,,,,,,,,,,,,,,,repeat,number,numRpt,k,Lo,,,,,,0.6791,4,,,,,,,,high,1,0,1,0,1,,,,,,,,,
293881,2022-12-02_12h41.31.421,vts_reward_expectancy_bt,2022.2.4,Win32,60.0132029,Chrome,1366,768,,,,,0,1053,,,,,,,,,,,,,,,,,F,167,hexagon,0,0,,,,,,,,,,,,,,,,repeat,number,NA,j,Lo,,,,,,0.537,4,,,,,,,,high,2,0,2,0,1,,,,,,,,,
293881,2022-12-02_12h41.31.421,vts_reward_expectancy_bt,2022.2.4,Win32,60.0132029,Chrome,1366,768,,,,,1,1054,,,,,,,,,,,,,,,,,U,174,star,1,1,,,,,,,,,,,,,,,,repeat,number,numRpt,k,Lo,,,,,,0.4117,4,,,,,,,,high,3,0,3,0,1,,,,,,,,,
293881,2022-12-02_12h41.31.421,vts_reward_expectancy_bt,2022.2.4,Win32,60.0132029,Chrome,1366,768,,,,,0,1054,,,,,,,,,,,,,,,,,H,146,circle,0,0,,,,,,,,,,,,,,,,repeat,number,NA,k,Lo,,,,,,0.5125,4,,,,,,,,high,4,0,4,0,1,,,,,,,,,
293881,2022-12-02_12h41.31.421,vts_reward_expectancy_bt,2022.2.4,Win32,60.0132029,Chrome,1366,768,,,,,1,1055,,,,,,,,,,,,,,,,,B,132,triangle,1,1,,,,,,,,,,,,,,,,repeat,number,numRpt,j,Lo,,,,,,0.4658,4,,,,,,,,high,5,0,5,0,1,,,,,,,,,
293881,2022-12-02_12h41.31.421,vts_reward_expectancy_bt,2022.2.4,Win32,60.0132029,Chrome,1366,768,,,,,0,1055,,,,,,,,,,,,,,,,,S,125,hexagon,1,0,,,,,,,,,,,,,,,,repeat,number,numRpt,j,Hi,,,,,,0.5661,4,,,,,,,,high,6,0,6,0,1,,,,,,,,,
293881,2022-12-02_12h41.31.421,vts_reward_expectancy_bt,2022.2.4,Win32,60.0132029,Chrome,1366,768,,,,,1,1056,,,,,,,,,,,,,,,,,W,139,star,1,0,,,,,,,,,,,,,,,,repeat,number,numRpt,j,Lo,,,,,,0.6119,4,,,,,,,,high,7,0,7,0,1,,,,,,,,,
293881,2022-12-02_12h41.31.421,vts_reward_expectancy_bt,2022.2.4,Win32,60.0132029,Chrome,1366,768,,,,,10,1066,,,,,,,,,,,,,,,,,Y,160,circle,1,0,,,,,,,,,,,,,,,,repeat,number,numRpt,k,Hi,,,,,,0.4943,4,,,,,,,,high,8,0,8,0,1,,,,,,,,,
293881,2022-12-02_12h41.31.421,vts_reward_expectancy_bt,2022.2.4,Win32,60.0132029,Chrome,1366,768,,,,,1,1067,,,,,,,,,,,,,,,,,D,181,triangle,1,0,,,,,,,,,,,,,,,,repeat,number,numRpt,k,Lo,,,,,,0.3778,4,,,,,,,,high,9,0,9,0,1,,,,,,,,,
293881,2022-12-02_12h41.31.421,vts_reward_expectancy_bt,2022.2.4,Win32,60.0132029,Chrome,1366,768,,,,,1,1068,,,,,,,,,,,,,,,,,F,167,star,1,0,,,,,,,,,,,,,,,,repeat,number,numRpt,k,Lo,,,,,,0.531,4,,,,,,,,high,10,0,10,0,1,,,,,,,,,
293881,2022-12-02_12h41.31.421,vts_reward_expectancy_bt,2022.2.4,Win32,60.0132029,Chrome,1366,768,,,,,10,1078,,,,,,,,,,,,,,,,,U,174,hexagon,1,0,,,,,,,,,,,,,,,,repeat,number,numRpt,k,Hi,,,,,,0.4151,4,,,,,,,,high,11,0,11,0,1,,,,,,,,,
293881,2022-12-02_12h41.31.421,vts_reward_expectancy_bt,2022.2.4,Win32,60.0132029,Chrome,1366,768,,,,,10,1088,,,,,,,,,,,,,,,,,H,146,circle,1,0,,,,,,,,,,,,,,,,repeat,number,numRpt,j,Hi,,,,,,0.5135,4,,,,,,,,high,12,0,12,0,1,,,,,,,,,
293881,2022-12-02_12h41.31.421,vts_reward_expectancy_bt,2022.2.4,Win32,60.0132029,Chrome,1366,768,,,,,1,1089,,,,,,,,,,,,,,,,,B,132,star,1,0,,,,,,,,,,,,,,,,repeat,number,numRpt,j,Lo,,,,,,0.4952,4,,,,,,,,high,13,0,13,0,1,,,,,,,,,
293881,2022-12-02_12h41.31.421,vts_reward_expectancy_bt,2022.2.4,Win32,60.0132029,Chrome,1366,768,,,,,10,1099,,,,,,,,,,,,,,,,,S,125,hexagon,1,0,,,,,,,,,,,,,,,,repeat,number,numRpt,j,Hi,,,,,,0.4516,4,,,,,,,,high,14,0,14,0,1,,,,,,,,,
293881,2022-12-02_12h41.31.421,vts_reward_expectancy_bt,2022.2.4,Win32,60.0132029,Chrome,1366,768,,,,,1,1100,,,,,,,,,,,,,,,,,W,139,triangle,1,0,,,,,,,,,,,,,,,,repeat,number,numRpt,j,Lo,,,,,,0.5345,4,,,,,,,,high,15,0,15,0,1,,,,,,,,,
293881,2022-12-02_12h41.31.421,vts_reward_expectancy_bt,2022.2.4,Win32,60.0132029,Chrome,1366,768,,,,,1,1101,,,,,,,,,,,,,,,,,Y,160,star,1,0,,,,,,,,,,,,,,,,repeat,number,numRpt,k,Lo,,,,,,0.5262,4,,,,,,,,high,16,0,16,0,1,,,,,,,,,
293881,2022-12-02_12h41.31.421,vts_reward_expectancy_bt,2022.2.4,Win32,60.0132029,Chrome,1366,768,,,,,0,1101,,,,,,,,,,,,,,,,,W,167,hexagon,1,0,,,,,,,,,,,,,,,,repeat,number,numRpt,k,Hi,,,,,,0.6274,4,,,,,,,,high,17,0,17,0,1,,,,,,,,,
