participant,date,expName,psychopyVersion,OS,frameRate,browser,xResolution,yResolution,key_resp.keys,key_resp.rt,training_resp.keys,training_resp.rt,points_trial,points_cumul,trainBlock,training.thisRepN,training.thisTrialN,training.thisN,training.thisIndex,training.ran,LTriangleOpac,LCircleOpac,LHexagonOpac,LStarOpac,RTriangleOpac,RCircleOpac,RHexagonOpac,RStarOpac,LShape_ID,RShape_ID,curr_topStim,curr_bottStim,curr_shape,acc,E1,target_resp_prac1.keys,target_resp_prac1.rt,pracBlock,task1_prac_trials.thisRepN,task1_prac_trials.thisTrialN,task1_prac_trials.thisN,task1_prac_trials.thisIndex,task1_prac_trials.ran,target_resp_prac2.keys,target_resp_prac2.rt,task2_praac_trials.thisRepN,task2_praac_trials.thisTrialN,task2_praac_trials.thisN,task2_praac_trials.thisIndex,task2_praac_trials.ran,alt,task,condition,target_resp.keys,target_resp.rt,rewCond,vts_practice_trials.thisRepN,vts_practice_trials.thisTrialN,vts_practice_trials.thisN,vts_practice_trials.thisIndex,vts_practice_trials.ran,blockNum,trials_norew.thisRepN,trials_norew.thisTrialN,trials_norew.thisN,trials_norew.thisIndex,trials_norew.ran,key_resp_2.keys,key_resp_2.rt,rewExpectancy,trials_rew.thisRepN,trials_rew.thisTrialN,trials_rew.thisN,trials_rew.thisIndex,trials_rew.ran,Q1,Q2,Q2_text,Q3,Q4,Q5_text,Q5,xRes,yRes
293983,2022-11-25_18h39.25.421,vts_reward_expectancy_bt,2022.2.4,Win32,59.61251863,Chrome,1368,912,,,,,,,,,,,,,,,,,,,,,,,,,,,,,,,,,,,,,,,,,,,,,,,,,,,,,,,,,,,,,,,,,,,,,,,,,,,,
293983,2022-11-25_18h39.25.421,vts_reward_expectancy_bt,2022.2.4,Win32,59.61251863,Chrome,1368,912,space,36.932,,,,,,,,,,,,,,,,,,,,,,,,,,,,,,,,,,,,,,,,,,,,,,,,,,,,,,,,,,,,,,,,,,,,,,,,,,
293983,2022-11-25_18h39.25.421,vts_reward_expectancy_bt,2022.2.4,Win32,59.61251863,Chrome,1368,912,,,,,,,,,,,,,,,,,,,,,,,,,,,,,,,,,,,,,,,,,,,,,,,,,,,,,,,,,,,,,,,,,,,,,,,,,,,,
293983,2022-11-25_18h39.25.421,vts_reward_expectancy_bt,2022.2.4,Win32,59.61251863,Chrome,1368,912,,,a,2.6049,10,10,0,0,0,0,2,1,1,0,0,0,0,0,0,1,triangle,star,,,,,,,,,,,,,,,,,,,,,,,,,,,,,,,,,,,,,,,,,,,,,,,,,,,,,,
293983,2022-11-25_18h39.25.421,vts_reward_expectancy_bt,2022.2.4,Win32,59.61251863,Chrome,1368,912,,,a,0.8368,1,11,0,0,1,1,1,1,1,0,0,0,0,0,1,0,triangle,hexagon,,,,,,,,,,,,,,,,,,,,,,,,,,,,,,,,,,,,,,,,,,,,,,,,,,,,,,
293983,2022-11-25_18h39.25.421,vts_reward_expectancy_bt,2022.2.4,Win32,59.61251863,Chrome,1368,912,,,l,1.4685,10,21,0,0,2,2,3,1,0,1,0,0,1,0,0,0,circle,triangle,,,,,,,,,,,,,,,,,,,,,,,,,,,,,,,,,,,,,,,,,,,,,,,,,,,,,,
293983,2022-11-25_18h39.25.421,vts_reward_expectancy_bt,2022.2.4,Win32,59.61251863,Chrome,1368,912,,,a,1.1157,10,31,0,0,3,3,10,1,0,0,0,1,0,1,0,0,star ,circle,,,,,,,,,,,,,,,,,,,,,,,,,,,,,,,,,,,,,,,,,,,,,,,,,,,,,,
293983,2022-11-25_18h39.25.421,vts_reward_expectancy_bt,2022.2.4,Win32,59.61251863,Chrome,1368,912,,,a,1.5693,1,32,0,0,4,4,7,1,0,0,1,0,0,1,0,0,hexagon,circle,,,,,,,,,,,,,,,,,,,,,,,,,,,,,,,,,,,,,,,,,,,,,,,,,,,,,,
293983,2022-11-25_18h39.25.421,vts_reward_expectancy_bt,2022.2.4,Win32,59.61251863,Chrome,1368,912,,,l,1.0196,1,33,0,0,5,5,4,1,0,1,0,0,0,0,1,0,circle,hexagon,,,,,,,,,,,,,,,,,,,,,,,,,,,,,,,,,,,,,,,,,,,,,,,,,,,,,,
293983,2022-11-25_18h39.25.421,vts_reward_expectancy_bt,2022.2.4,Win32,59.61251863,Chrome,1368,912,,,l,0.658,10,43,0,0,6,6,6,1,0,0,1,0,1,0,0,0,hexagon,triangle,,,,,,,,,,,,,,,,,,,,,,,,,,,,,,,,,,,,,,,,,,,,,,,,,,,,,,
293983,2022-11-25_18h39.25.421,vts_reward_expectancy_bt,2022.2.4,Win32,59.61251863,Chrome,1368,912,,,l,1.1188,10,53,0,0,7,7,9,1,0,0,0,1,1,0,0,0,star,triangle,,,,,,,,,,,,,,,,,,,,,,,,,,,,,,,,,,,,,,,,,,,,,,,,,,,,,,
293983,2022-11-25_18h39.25.421,vts_reward_expectancy_bt,2022.2.4,Win32,59.61251863,Chrome,1368,912,,,a,1.021,1,54,0,0,8,8,8,1,0,0,1,0,0,0,0,1,hexagon,star,,,,,,,,,,,,,,,,,,,,,,,,,,,,,,,,,,,,,,,,,,,,,,,,,,,,,,
293983,2022-11-25_18h39.25.421,vts_reward_expectancy_bt,2022.2.4,Win32,59.61251863,Chrome,1368,912,,,a,1.1519,10,64,0,0,9,9,5,1,0,1,0,0,0,0,0,1,circle,star,,,,,,,,,,,,,,,,,,,,,,,,,,,,,,,,,,,,,,,,,,,,,,,,,,,,,,
293983,2022-11-25_18h39.25.421,vts_reward_expectancy_bt,2022.2.4,Win32,59.61251863,Chrome,1368,912,,,a,1.082,1,65,0,0,10,10,11,1,0,0,0,1,0,0,1,0,star,hexagon,,,,,,,,,,,,,,,,,,,,,,,,,,,,,,,,,,,,,,,,,,,,,,,,,,,,,,
293983,2022-11-25_18h39.25.421,vts_reward_expectancy_bt,2022.2.4,Win32,59.61251863,Chrome,1368,912,,,a,0.8708,10,75,0,0,11,11,0,1,1,0,0,0,0,1,0,0,triangle,circle,,,,,,,,,,,,,,,,,,,,,,,,,,,,,,,,,,,,,,,,,,,,,,,,,,,,,,
293983,2022-11-25_18h39.25.421,vts_reward_expectancy_bt,2022.2.4,Win32,59.61251863,Chrome,1368,912,,,a,1.2336,1,76,0,1,0,12,11,1,0,0,0,1,0,0,1,0,star,hexagon,,,,,,,,,,,,,,,,,,,,,,,,,,,,,,,,,,,,,,,,,,,,,,,,,,,,,,
293983,2022-11-25_18h39.25.421,vts_reward_expectancy_bt,2022.2.4,Win32,59.61251863,Chrome,1368,912,,,a,1.4662,1,77,0,1,1,13,10,1,0,0,0,1,0,1,0,0,star ,circle,,,,,,,,,,,,,,,,,,,,,,,,,,,,,,,,,,,,,,,,,,,,,,,,,,,,,,
293983,2022-11-25_18h39.25.421,vts_reward_expectancy_bt,2022.2.4,Win32,59.61251863,Chrome,1368,912,,,a,1.0711,1,78,0,1,2,14,4,1,0,1,0,0,0,0,1,0,circle,hexagon,,,,,,,,,,,,,,,,,,,,,,,,,,,,,,,,,,,,,,,,,,,,,,,,,,,,,,
293983,2022-11-25_18h39.25.421,vts_reward_expectancy_bt,2022.2.4,Win32,59.61251863,Chrome,1368,912,,,a,1.1216,10,88,0,1,3,15,1,1,1,0,0,0,0,0,1,0,triangle,hexagon,,,,,,,,,,,,,,,,,,,,,,,,,,,,,,,,,,,,,,,,,,,,,,,,,,,,,,
293983,2022-11-25_18h39.25.421,vts_reward_expectancy_bt,2022.2.4,Win32,59.61251863,Chrome,1368,912,,,l,1.8196,10,98,0,1,4,16,5,1,0,1,0,0,0,0,0,1,circle,star,,,,,,,,,,,,,,,,,,,,,,,,,,,,,,,,,,,,,,,,,,,,,,,,,,,,,,
293983,2022-11-25_18h39.25.421,vts_reward_expectancy_bt,2022.2.4,Win32,59.61251863,Chrome,1368,912,,,l,0.8184,1,99,0,1,5,17,8,1,0,0,1,0,0,0,0,1,hexagon,star,,,,,,,,,,,,,,,,,,,,,,,,,,,,,,,,,,,,,,,,,,,,,,,,,,,,,,
293983,2022-11-25_18h39.25.421,vts_reward_expectancy_bt,2022.2.4,Win32,59.61251863,Chrome,1368,912,,,l,0.5346,10,109,0,1,6,18,9,1,0,0,0,1,1,0,0,0,star,triangle,,,,,,,,,,,,,,,,,,,,,,,,,,,,,,,,,,,,,,,,,,,,,,,,,,,,,,
293983,2022-11-25_18h39.25.421,vts_reward_expectancy_bt,2022.2.4,Win32,59.61251863,Chrome,1368,912,,,a,0.9646,1,110,0,1,7,19,7,1,0,0,1,0,0,1,0,0,hexagon,circle,,,,,,,,,,,,,,,,,,,,,,,,,,,,,,,,,,,,,,,,,,,,,,,,,,,,,,
293983,2022-11-25_18h39.25.421,vts_reward_expectancy_bt,2022.2.4,Win32,59.61251863,Chrome,1368,912,,,a,0.6359,1,111,0,1,8,20,2,1,1,0,0,0,0,0,0,1,triangle,star,,,,,,,,,,,,,,,,,,,,,,,,,,,,,,,,,,,,,,,,,,,,,,,,,,,,,,
293983,2022-11-25_18h39.25.421,vts_reward_expectancy_bt,2022.2.4,Win32,59.61251863,Chrome,1368,912,,,l,0.6161,1,112,0,1,9,21,3,1,0,1,0,0,1,0,0,0,circle,triangle,,,,,,,,,,,,,,,,,,,,,,,,,,,,,,,,,,,,,,,,,,,,,,,,,,,,,,
293983,2022-11-25_18h39.25.421,vts_reward_expectancy_bt,2022.2.4,Win32,59.61251863,Chrome,1368,912,,,l,0.9025,1,113,0,1,10,22,6,1,0,0,1,0,1,0,0,0,hexagon,triangle,,,,,,,,,,,,,,,,,,,,,,,,,,,,,,,,,,,,,,,,,,,,,,,,,,,,,,
293983,2022-11-25_18h39.25.421,vts_reward_expectancy_bt,2022.2.4,Win32,59.61251863,Chrome,1368,912,,,l,0.9977,10,123,0,1,11,23,0,1,1,0,0,0,0,1,0,0,triangle,circle,,,,,,,,,,,,,,,,,,,,,,,,,,,,,,,,,,,,,,,,,,,,,,,,,,,,,,
293983,2022-11-25_18h39.25.421,vts_reward_expectancy_bt,2022.2.4,Win32,59.61251863,Chrome,1368,912,,,l,0.7346,10,133,0,2,0,24,7,1,0,0,1,0,0,1,0,0,hexagon,circle,,,,,,,,,,,,,,,,,,,,,,,,,,,,,,,,,,,,,,,,,,,,,,,,,,,,,,
293983,2022-11-25_18h39.25.421,vts_reward_expectancy_bt,2022.2.4,Win32,59.61251863,Chrome,1368,912,,,l,0.5702,10,143,0,2,1,25,6,1,0,0,1,0,1,0,0,0,hexagon,triangle,,,,,,,,,,,,,,,,,,,,,,,,,,,,,,,,,,,,,,,,,,,,,,,,,,,,,,
293983,2022-11-25_18h39.25.421,vts_reward_expectancy_bt,2022.2.4,Win32,59.61251863,Chrome,1368,912,,,l,0.888,10,153,0,2,2,26,9,1,0,0,0,1,1,0,0,0,star,triangle,,,,,,,,,,,,,,,,,,,,,,,,,,,,,,,,,,,,,,,,,,,,,,,,,,,,,,
293983,2022-11-25_18h39.25.421,vts_reward_expectancy_bt,2022.2.4,Win32,59.61251863,Chrome,1368,912,,,l,0.6013,10,163,0,2,3,27,0,1,1,0,0,0,0,1,0,0,triangle,circle,,,,,,,,,,,,,,,,,,,,,,,,,,,,,,,,,,,,,,,,,,,,,,,,,,,,,,
293983,2022-11-25_18h39.25.421,vts_reward_expectancy_bt,2022.2.4,Win32,59.61251863,Chrome,1368,912,,,l,0.5176,1,164,0,2,4,28,3,1,0,1,0,0,1,0,0,0,circle,triangle,,,,,,,,,,,,,,,,,,,,,,,,,,,,,,,,,,,,,,,,,,,,,,,,,,,,,,
293983,2022-11-25_18h39.25.421,vts_reward_expectancy_bt,2022.2.4,Win32,59.61251863,Chrome,1368,912,,,a,0.0205,1,165,0,2,5,29,1,1,1,0,0,0,0,0,1,0,triangle,hexagon,,,,,,,,,,,,,,,,,,,,,,,,,,,,,,,,,,,,,,,,,,,,,,,,,,,,,,
293983,2022-11-25_18h39.25.421,vts_reward_expectancy_bt,2022.2.4,Win32,59.61251863,Chrome,1368,912,,,a,0.5517,10,175,0,2,6,30,2,1,1,0,0,0,0,0,0,1,triangle,star,,,,,,,,,,,,,,,,,,,,,,,,,,,,,,,,,,,,,,,,,,,,,,,,,,,,,,
293983,2022-11-25_18h39.25.421,vts_reward_expectancy_bt,2022.2.4,Win32,59.61251863,Chrome,1368,912,,,a,0.2845,10,185,0,2,7,31,10,1,0,0,0,1,0,1,0,0,star ,circle,,,,,,,,,,,,,,,,,,,,,,,,,,,,,,,,,,,,,,,,,,,,,,,,,,,,,,
293983,2022-11-25_18h39.25.421,vts_reward_expectancy_bt,2022.2.4,Win32,59.61251863,Chrome,1368,912,,,a,0.3847,1,186,0,2,8,32,11,1,0,0,0,1,0,0,1,0,star,hexagon,,,,,,,,,,,,,,,,,,,,,,,,,,,,,,,,,,,,,,,,,,,,,,,,,,,,,,
293983,2022-11-25_18h39.25.421,vts_reward_expectancy_bt,2022.2.4,Win32,59.61251863,Chrome,1368,912,,,l,2.1155,1,187,0,2,9,33,5,1,0,1,0,0,0,0,0,1,circle,star,,,,,,,,,,,,,,,,,,,,,,,,,,,,,,,,,,,,,,,,,,,,,,,,,,,,,,
293983,2022-11-25_18h39.25.421,vts_reward_expectancy_bt,2022.2.4,Win32,59.61251863,Chrome,1368,912,,,a,0.401,1,188,0,2,10,34,8,1,0,0,1,0,0,0,0,1,hexagon,star,,,,,,,,,,,,,,,,,,,,,,,,,,,,,,,,,,,,,,,,,,,,,,,,,,,,,,
293983,2022-11-25_18h39.25.421,vts_reward_expectancy_bt,2022.2.4,Win32,59.61251863,Chrome,1368,912,,,l,0.7582,1,189,0,2,11,35,4,1,0,1,0,0,0,0,1,0,circle,hexagon,,,,,,,,,,,,,,,,,,,,,,,,,,,,,,,,,,,,,,,,,,,,,,,,,,,,,,
293983,2022-11-25_18h39.25.421,vts_reward_expectancy_bt,2022.2.4,Win32,59.61251863,Chrome,1368,912,,,l,1.4875,1,190,1,0,0,0,11,1,0,0,0,1,0,0,1,0,star,hexagon,,,,,,,,,,,,,,,,,,,,,,,,,,,,,,,,,,,,,,,,,,,,,,,,,,,,,,
293983,2022-11-25_18h39.25.421,vts_reward_expectancy_bt,2022.2.4,Win32,59.61251863,Chrome,1368,912,,,l,0.406,10,200,1,0,1,1,6,1,0,0,1,0,1,0,0,0,hexagon,triangle,,,,,,,,,,,,,,,,,,,,,,,,,,,,,,,,,,,,,,,,,,,,,,,,,,,,,,
293983,2022-11-25_18h39.25.421,vts_reward_expectancy_bt,2022.2.4,Win32,59.61251863,Chrome,1368,912,,,l,0.3516,1,201,1,0,2,2,8,1,0,0,1,0,0,0,0,1,hexagon,star,,,,,,,,,,,,,,,,,,,,,,,,,,,,,,,,,,,,,,,,,,,,,,,,,,,,,,
293983,2022-11-25_18h39.25.421,vts_reward_expectancy_bt,2022.2.4,Win32,59.61251863,Chrome,1368,912,,,a,0.8362,10,211,1,0,3,3,0,1,1,0,0,0,0,1,0,0,triangle,circle,,,,,,,,,,,,,,,,,,,,,,,,,,,,,,,,,,,,,,,,,,,,,,,,,,,,,,
293983,2022-11-25_18h39.25.421,vts_reward_expectancy_bt,2022.2.4,Win32,59.61251863,Chrome,1368,912,,,l,1.1024,10,221,1,0,4,4,7,1,0,0,1,0,0,1,0,0,hexagon,circle,,,,,,,,,,,,,,,,,,,,,,,,,,,,,,,,,,,,,,,,,,,,,,,,,,,,,,
293983,2022-11-25_18h39.25.421,vts_reward_expectancy_bt,2022.2.4,Win32,59.61251863,Chrome,1368,912,,,l,0.6468,10,231,1,0,5,5,10,1,0,0,0,1,0,1,0,0,star ,circle,,,,,,,,,,,,,,,,,,,,,,,,,,,,,,,,,,,,,,,,,,,,,,,,,,,,,,
293983,2022-11-25_18h39.25.421,vts_reward_expectancy_bt,2022.2.4,Win32,59.61251863,Chrome,1368,912,,,l,0.6349,1,232,1,0,6,6,4,1,0,1,0,0,0,0,1,0,circle,hexagon,,,,,,,,,,,,,,,,,,,,,,,,,,,,,,,,,,,,,,,,,,,,,,,,,,,,,,
293983,2022-11-25_18h39.25.421,vts_reward_expectancy_bt,2022.2.4,Win32,59.61251863,Chrome,1368,912,,,l,0.7522,1,233,1,0,7,7,9,1,0,0,0,1,1,0,0,0,star,triangle,,,,,,,,,,,,,,,,,,,,,,,,,,,,,,,,,,,,,,,,,,,,,,,,,,,,,,
293983,2022-11-25_18h39.25.421,vts_reward_expectancy_bt,2022.2.4,Win32,59.61251863,Chrome,1368,912,,,a,1.5864,10,243,1,0,8,8,2,1,1,0,0,0,0,0,0,1,triangle,star,,,,,,,,,,,,,,,,,,,,,,,,,,,,,,,,,,,,,,,,,,,,,,,,,,,,,,
293983,2022-11-25_18h39.25.421,vts_reward_expectancy_bt,2022.2.4,Win32,59.61251863,Chrome,1368,912,,,l,0.6804,10,253,1,0,9,9,3,1,0,1,0,0,1,0,0,0,circle,triangle,,,,,,,,,,,,,,,,,,,,,,,,,,,,,,,,,,,,,,,,,,,,,,,,,,,,,,
293983,2022-11-25_18h39.25.421,vts_reward_expectancy_bt,2022.2.4,Win32,59.61251863,Chrome,1368,912,,,l,1.5196,1,254,1,0,10,10,5,1,0,1,0,0,0,0,0,1,circle,star,,,,,,,,,,,,,,,,,,,,,,,,,,,,,,,,,,,,,,,,,,,,,,,,,,,,,,
293983,2022-11-25_18h39.25.421,vts_reward_expectancy_bt,2022.2.4,Win32,59.61251863,Chrome,1368,912,,,a,0.9175,10,264,1,0,11,11,1,1,1,0,0,0,0,0,1,0,triangle,hexagon,,,,,,,,,,,,,,,,,,,,,,,,,,,,,,,,,,,,,,,,,,,,,,,,,,,,,,
293983,2022-11-25_18h39.25.421,vts_reward_expectancy_bt,2022.2.4,Win32,59.61251863,Chrome,1368,912,,,l,0.9021,10,274,1,1,0,12,7,1,0,0,1,0,0,1,0,0,hexagon,circle,,,,,,,,,,,,,,,,,,,,,,,,,,,,,,,,,,,,,,,,,,,,,,,,,,,,,,
293983,2022-11-25_18h39.25.421,vts_reward_expectancy_bt,2022.2.4,Win32,59.61251863,Chrome,1368,912,,,l,0.6829,1,275,1,1,1,13,5,1,0,1,0,0,0,0,0,1,circle,star,,,,,,,,,,,,,,,,,,,,,,,,,,,,,,,,,,,,,,,,,,,,,,,,,,,,,,
293983,2022-11-25_18h39.25.421,vts_reward_expectancy_bt,2022.2.4,Win32,59.61251863,Chrome,1368,912,,,a,1.0876,1,276,1,1,2,14,11,1,0,0,0,1,0,0,1,0,star,hexagon,,,,,,,,,,,,,,,,,,,,,,,,,,,,,,,,,,,,,,,,,,,,,,,,,,,,,,
293983,2022-11-25_18h39.25.421,vts_reward_expectancy_bt,2022.2.4,Win32,59.61251863,Chrome,1368,912,,,l,0.6529,10,286,1,1,3,15,4,1,0,1,0,0,0,0,1,0,circle,hexagon,,,,,,,,,,,,,,,,,,,,,,,,,,,,,,,,,,,,,,,,,,,,,,,,,,,,,,
293983,2022-11-25_18h39.25.421,vts_reward_expectancy_bt,2022.2.4,Win32,59.61251863,Chrome,1368,912,,,a,1.273,10,296,1,1,4,16,2,1,1,0,0,0,0,0,0,1,triangle,star,,,,,,,,,,,,,,,,,,,,,,,,,,,,,,,,,,,,,,,,,,,,,,,,,,,,,,
293983,2022-11-25_18h39.25.421,vts_reward_expectancy_bt,2022.2.4,Win32,59.61251863,Chrome,1368,912,,,l,0.5206,10,306,1,1,5,17,9,1,0,0,0,1,1,0,0,0,star,triangle,,,,,,,,,,,,,,,,,,,,,,,,,,,,,,,,,,,,,,,,,,,,,,,,,,,,,,
293983,2022-11-25_18h39.25.421,vts_reward_expectancy_bt,2022.2.4,Win32,59.61251863,Chrome,1368,912,,,l,0.5884,10,316,1,1,6,18,3,1,0,1,0,0,1,0,0,0,circle,triangle,,,,,,,,,,,,,,,,,,,,,,,,,,,,,,,,,,,,,,,,,,,,,,,,,,,,,,
293983,2022-11-25_18h39.25.421,vts_reward_expectancy_bt,2022.2.4,Win32,59.61251863,Chrome,1368,912,,,a,1.0851,10,326,1,1,7,19,10,1,0,0,0,1,0,1,0,0,star ,circle,,,,,,,,,,,,,,,,,,,,,,,,,,,,,,,,,,,,,,,,,,,,,,,,,,,,,,
293983,2022-11-25_18h39.25.421,vts_reward_expectancy_bt,2022.2.4,Win32,59.61251863,Chrome,1368,912,,,a,0.9009,10,336,1,1,8,20,1,1,1,0,0,0,0,0,1,0,triangle,hexagon,,,,,,,,,,,,,,,,,,,,,,,,,,,,,,,,,,,,,,,,,,,,,,,,,,,,,,
293983,2022-11-25_18h39.25.421,vts_reward_expectancy_bt,2022.2.4,Win32,59.61251863,Chrome,1368,912,,,l,0.6343,10,346,1,1,9,21,6,1,0,0,1,0,1,0,0,0,hexagon,triangle,,,,,,,,,,,,,,,,,,,,,,,,,,,,,,,,,,,,,,,,,,,,,,,,,,,,,,
293983,2022-11-25_18h39.25.421,vts_reward_expectancy_bt,2022.2.4,Win32,59.61251863,Chrome,1368,912,,,l,1.4349,1,347,1,1,10,22,8,1,0,0,1,0,0,0,0,1,hexagon,star,,,,,,,,,,,,,,,,,,,,,,,,,,,,,,,,,,,,,,,,,,,,,,,,,,,,,,
293983,2022-11-25_18h39.25.421,vts_reward_expectancy_bt,2022.2.4,Win32,59.61251863,Chrome,1368,912,,,a,0.901,10,357,1,1,11,23,0,1,1,0,0,0,0,1,0,0,triangle,circle,,,,,,,,,,,,,,,,,,,,,,,,,,,,,,,,,,,,,,,,,,,,,,,,,,,,,,
293983,2022-11-25_18h39.25.421,vts_reward_expectancy_bt,2022.2.4,Win32,59.61251863,Chrome,1368,912,,,a,1.24,10,367,1,2,0,24,0,1,1,0,0,0,0,1,0,0,triangle,circle,,,,,,,,,,,,,,,,,,,,,,,,,,,,,,,,,,,,,,,,,,,,,,,,,,,,,,
293983,2022-11-25_18h39.25.421,vts_reward_expectancy_bt,2022.2.4,Win32,59.61251863,Chrome,1368,912,,,l,0.8685,1,368,1,2,1,25,7,1,0,0,1,0,0,1,0,0,hexagon,circle,,,,,,,,,,,,,,,,,,,,,,,,,,,,,,,,,,,,,,,,,,,,,,,,,,,,,,
293983,2022-11-25_18h39.25.421,vts_reward_expectancy_bt,2022.2.4,Win32,59.61251863,Chrome,1368,912,,,a,1.3187,10,378,1,2,2,26,2,1,1,0,0,0,0,0,0,1,triangle,star,,,,,,,,,,,,,,,,,,,,,,,,,,,,,,,,,,,,,,,,,,,,,,,,,,,,,,
293983,2022-11-25_18h39.25.421,vts_reward_expectancy_bt,2022.2.4,Win32,59.61251863,Chrome,1368,912,,,l,2.6528,1,379,1,2,3,27,11,1,0,0,0,1,0,0,1,0,star,hexagon,,,,,,,,,,,,,,,,,,,,,,,,,,,,,,,,,,,,,,,,,,,,,,,,,,,,,,
293983,2022-11-25_18h39.25.421,vts_reward_expectancy_bt,2022.2.4,Win32,59.61251863,Chrome,1368,912,,,a,0.7239,1,380,1,2,4,28,1,1,1,0,0,0,0,0,1,0,triangle,hexagon,,,,,,,,,,,,,,,,,,,,,,,,,,,,,,,,,,,,,,,,,,,,,,,,,,,,,,
293983,2022-11-25_18h39.25.421,vts_reward_expectancy_bt,2022.2.4,Win32,59.61251863,Chrome,1368,912,,,l,1.137,10,390,1,2,5,29,10,1,0,0,0,1,0,1,0,0,star ,circle,,,,,,,,,,,,,,,,,,,,,,,,,,,,,,,,,,,,,,,,,,,,,,,,,,,,,,
293983,2022-11-25_18h39.25.421,vts_reward_expectancy_bt,2022.2.4,Win32,59.61251863,Chrome,1368,912,,,l,0.5692,10,400,1,2,6,30,6,1,0,0,1,0,1,0,0,0,hexagon,triangle,,,,,,,,,,,,,,,,,,,,,,,,,,,,,,,,,,,,,,,,,,,,,,,,,,,,,,
293983,2022-11-25_18h39.25.421,vts_reward_expectancy_bt,2022.2.4,Win32,59.61251863,Chrome,1368,912,,,l,0.452,10,410,1,2,7,31,9,1,0,0,0,1,1,0,0,0,star,triangle,,,,,,,,,,,,,,,,,,,,,,,,,,,,,,,,,,,,,,,,,,,,,,,,,,,,,,
293983,2022-11-25_18h39.25.421,vts_reward_expectancy_bt,2022.2.4,Win32,59.61251863,Chrome,1368,912,,,l,0.4241,1,411,1,2,8,32,3,1,0,1,0,0,1,0,0,0,circle,triangle,,,,,,,,,,,,,,,,,,,,,,,,,,,,,,,,,,,,,,,,,,,,,,,,,,,,,,
293983,2022-11-25_18h39.25.421,vts_reward_expectancy_bt,2022.2.4,Win32,59.61251863,Chrome,1368,912,,,a,0.8181,10,421,1,2,9,33,8,1,0,0,1,0,0,0,0,1,hexagon,star,,,,,,,,,,,,,,,,,,,,,,,,,,,,,,,,,,,,,,,,,,,,,,,,,,,,,,
293983,2022-11-25_18h39.25.421,vts_reward_expectancy_bt,2022.2.4,Win32,59.61251863,Chrome,1368,912,,,a,0.8344,10,431,1,2,10,34,4,1,0,1,0,0,0,0,1,0,circle,hexagon,,,,,,,,,,,,,,,,,,,,,,,,,,,,,,,,,,,,,,,,,,,,,,,,,,,,,,
293983,2022-11-25_18h39.25.421,vts_reward_expectancy_bt,2022.2.4,Win32,59.61251863,Chrome,1368,912,,,l,0.685,1,432,1,2,11,35,5,1,0,1,0,0,0,0,0,1,circle,star,,,,,,,,,,,,,,,,,,,,,,,,,,,,,,,,,,,,,,,,,,,,,,,,,,,,,,
293983,2022-11-25_18h39.25.421,vts_reward_expectancy_bt,2022.2.4,Win32,59.61251863,Chrome,1368,912,,,a,1.126,10,442,2,0,0,0,5,1,0,1,0,0,0,0,0,1,circle,star,,,,,,,,,,,,,,,,,,,,,,,,,,,,,,,,,,,,,,,,,,,,,,,,,,,,,,
293983,2022-11-25_18h39.25.421,vts_reward_expectancy_bt,2022.2.4,Win32,59.61251863,Chrome,1368,912,,,a,0.717,10,452,2,0,1,1,1,1,1,0,0,0,0,0,1,0,triangle,hexagon,,,,,,,,,,,,,,,,,,,,,,,,,,,,,,,,,,,,,,,,,,,,,,,,,,,,,,
293983,2022-11-25_18h39.25.421,vts_reward_expectancy_bt,2022.2.4,Win32,59.61251863,Chrome,1368,912,,,l,2.2822,10,462,2,0,2,2,7,1,0,0,1,0,0,1,0,0,hexagon,circle,,,,,,,,,,,,,,,,,,,,,,,,,,,,,,,,,,,,,,,,,,,,,,,,,,,,,,
293983,2022-11-25_18h39.25.421,vts_reward_expectancy_bt,2022.2.4,Win32,59.61251863,Chrome,1368,912,,,l,0.5013,1,463,2,0,3,3,10,1,0,0,0,1,0,1,0,0,star ,circle,,,,,,,,,,,,,,,,,,,,,,,,,,,,,,,,,,,,,,,,,,,,,,,,,,,,,,
293983,2022-11-25_18h39.25.421,vts_reward_expectancy_bt,2022.2.4,Win32,59.61251863,Chrome,1368,912,,,l,0.6682,10,473,2,0,4,4,6,1,0,0,1,0,1,0,0,0,hexagon,triangle,,,,,,,,,,,,,,,,,,,,,,,,,,,,,,,,,,,,,,,,,,,,,,,,,,,,,,
293983,2022-11-25_18h39.25.421,vts_reward_expectancy_bt,2022.2.4,Win32,59.61251863,Chrome,1368,912,,,a,0.6888,10,483,2,0,5,5,2,1,1,0,0,0,0,0,0,1,triangle,star,,,,,,,,,,,,,,,,,,,,,,,,,,,,,,,,,,,,,,,,,,,,,,,,,,,,,,
293983,2022-11-25_18h39.25.421,vts_reward_expectancy_bt,2022.2.4,Win32,59.61251863,Chrome,1368,912,,,l,0.4011,10,493,2,0,6,6,9,1,0,0,0,1,1,0,0,0,star,triangle,,,,,,,,,,,,,,,,,,,,,,,,,,,,,,,,,,,,,,,,,,,,,,,,,,,,,,
293983,2022-11-25_18h39.25.421,vts_reward_expectancy_bt,2022.2.4,Win32,59.61251863,Chrome,1368,912,,,a,0.4856,10,503,2,0,7,7,0,1,1,0,0,0,0,1,0,0,triangle,circle,,,,,,,,,,,,,,,,,,,,,,,,,,,,,,,,,,,,,,,,,,,,,,,,,,,,,,
293983,2022-11-25_18h39.25.421,vts_reward_expectancy_bt,2022.2.4,Win32,59.61251863,Chrome,1368,912,,,l,0.9574,10,513,2,0,8,8,8,1,0,0,1,0,0,0,0,1,hexagon,star,,,,,,,,,,,,,,,,,,,,,,,,,,,,,,,,,,,,,,,,,,,,,,,,,,,,,,
293983,2022-11-25_18h39.25.421,vts_reward_expectancy_bt,2022.2.4,Win32,59.61251863,Chrome,1368,912,,,l,1.2213,1,514,2,0,9,9,4,1,0,1,0,0,0,0,1,0,circle,hexagon,,,,,,,,,,,,,,,,,,,,,,,,,,,,,,,,,,,,,,,,,,,,,,,,,,,,,,
293983,2022-11-25_18h39.25.421,vts_reward_expectancy_bt,2022.2.4,Win32,59.61251863,Chrome,1368,912,,,l,0.4397,10,524,2,0,10,10,3,1,0,1,0,0,1,0,0,0,circle,triangle,,,,,,,,,,,,,,,,,,,,,,,,,,,,,,,,,,,,,,,,,,,,,,,,,,,,,,
293983,2022-11-25_18h39.25.421,vts_reward_expectancy_bt,2022.2.4,Win32,59.61251863,Chrome,1368,912,,,a,0.9348,1,525,2,0,11,11,11,1,0,0,0,1,0,0,1,0,star,hexagon,,,,,,,,,,,,,,,,,,,,,,,,,,,,,,,,,,,,,,,,,,,,,,,,,,,,,,
293983,2022-11-25_18h39.25.421,vts_reward_expectancy_bt,2022.2.4,Win32,59.61251863,Chrome,1368,912,,,l,0.4008,10,535,2,1,0,12,6,1,0,0,1,0,1,0,0,0,hexagon,triangle,,,,,,,,,,,,,,,,,,,,,,,,,,,,,,,,,,,,,,,,,,,,,,,,,,,,,,
293983,2022-11-25_18h39.25.421,vts_reward_expectancy_bt,2022.2.4,Win32,59.61251863,Chrome,1368,912,,,a,0.7015,10,545,2,1,1,13,0,1,1,0,0,0,0,1,0,0,triangle,circle,,,,,,,,,,,,,,,,,,,,,,,,,,,,,,,,,,,,,,,,,,,,,,,,,,,,,,
293983,2022-11-25_18h39.25.421,vts_reward_expectancy_bt,2022.2.4,Win32,59.61251863,Chrome,1368,912,,,a,0.6179,10,555,2,1,2,14,1,1,1,0,0,0,0,0,1,0,triangle,hexagon,,,,,,,,,,,,,,,,,,,,,,,,,,,,,,,,,,,,,,,,,,,,,,,,,,,,,,
293983,2022-11-25_18h39.25.421,vts_reward_expectancy_bt,2022.2.4,Win32,59.61251863,Chrome,1368,912,,,l,0.517,1,556,2,1,3,15,3,1,0,1,0,0,1,0,0,0,circle,triangle,,,,,,,,,,,,,,,,,,,,,,,,,,,,,,,,,,,,,,,,,,,,,,,,,,,,,,
293983,2022-11-25_18h39.25.421,vts_reward_expectancy_bt,2022.2.4,Win32,59.61251863,Chrome,1368,912,,,l,0.6688,10,566,2,1,4,16,9,1,0,0,0,1,1,0,0,0,star,triangle,,,,,,,,,,,,,,,,,,,,,,,,,,,,,,,,,,,,,,,,,,,,,,,,,,,,,,
293983,2022-11-25_18h39.25.421,vts_reward_expectancy_bt,2022.2.4,Win32,59.61251863,Chrome,1368,912,,,a,0.4848,10,576,2,1,5,17,2,1,1,0,0,0,0,0,0,1,triangle,star,,,,,,,,,,,,,,,,,,,,,,,,,,,,,,,,,,,,,,,,,,,,,,,,,,,,,,
293983,2022-11-25_18h39.25.421,vts_reward_expectancy_bt,2022.2.4,Win32,59.61251863,Chrome,1368,912,,,a,0.9574,10,586,2,1,6,18,4,1,0,1,0,0,0,0,1,0,circle,hexagon,,,,,,,,,,,,,,,,,,,,,,,,,,,,,,,,,,,,,,,,,,,,,,,,,,,,,,
293983,2022-11-25_18h39.25.421,vts_reward_expectancy_bt,2022.2.4,Win32,59.61251863,Chrome,1368,912,,,l,0.77,1,587,2,1,7,19,8,1,0,0,1,0,0,0,0,1,hexagon,star,,,,,,,,,,,,,,,,,,,,,,,,,,,,,,,,,,,,,,,,,,,,,,,,,,,,,,
293983,2022-11-25_18h39.25.421,vts_reward_expectancy_bt,2022.2.4,Win32,59.61251863,Chrome,1368,912,,,l,0.7181,1,588,2,1,8,20,11,1,0,0,0,1,0,0,1,0,star,hexagon,,,,,,,,,,,,,,,,,,,,,,,,,,,,,,,,,,,,,,,,,,,,,,,,,,,,,,
293983,2022-11-25_18h39.25.421,vts_reward_expectancy_bt,2022.2.4,Win32,59.61251863,Chrome,1368,912,,,a,0.5851,1,589,2,1,9,21,7,1,0,0,1,0,0,1,0,0,hexagon,circle,,,,,,,,,,,,,,,,,,,,,,,,,,,,,,,,,,,,,,,,,,,,,,,,,,,,,,
293983,2022-11-25_18h39.25.421,vts_reward_expectancy_bt,2022.2.4,Win32,59.61251863,Chrome,1368,912,,,l,0.6517,10,599,2,1,10,22,10,1,0,0,0,1,0,1,0,0,star ,circle,,,,,,,,,,,,,,,,,,,,,,,,,,,,,,,,,,,,,,,,,,,,,,,,,,,,,,
293983,2022-11-25_18h39.25.421,vts_reward_expectancy_bt,2022.2.4,Win32,59.61251863,Chrome,1368,912,,,a,0.5182,10,609,2,1,11,23,5,1,0,1,0,0,0,0,0,1,circle,star,,,,,,,,,,,,,,,,,,,,,,,,,,,,,,,,,,,,,,,,,,,,,,,,,,,,,,
293983,2022-11-25_18h39.25.421,vts_reward_expectancy_bt,2022.2.4,Win32,59.61251863,Chrome,1368,912,,,l,0.3814,10,619,2,2,0,24,11,1,0,0,0,1,0,0,1,0,star,hexagon,,,,,,,,,,,,,,,,,,,,,,,,,,,,,,,,,,,,,,,,,,,,,,,,,,,,,,
293983,2022-11-25_18h39.25.421,vts_reward_expectancy_bt,2022.2.4,Win32,59.61251863,Chrome,1368,912,,,l,0.7182,1,620,2,2,1,25,3,1,0,1,0,0,1,0,0,0,circle,triangle,,,,,,,,,,,,,,,,,,,,,,,,,,,,,,,,,,,,,,,,,,,,,,,,,,,,,,
293983,2022-11-25_18h39.25.421,vts_reward_expectancy_bt,2022.2.4,Win32,59.61251863,Chrome,1368,912,,,a,0.5346,10,630,2,2,2,26,2,1,1,0,0,0,0,0,0,1,triangle,star,,,,,,,,,,,,,,,,,,,,,,,,,,,,,,,,,,,,,,,,,,,,,,,,,,,,,,
293983,2022-11-25_18h39.25.421,vts_reward_expectancy_bt,2022.2.4,Win32,59.61251863,Chrome,1368,912,,,l,0.7011,1,631,2,2,3,27,0,1,1,0,0,0,0,1,0,0,triangle,circle,,,,,,,,,,,,,,,,,,,,,,,,,,,,,,,,,,,,,,,,,,,,,,,,,,,,,,
293983,2022-11-25_18h39.25.421,vts_reward_expectancy_bt,2022.2.4,Win32,59.61251863,Chrome,1368,912,,,l,0.4684,10,641,2,2,4,28,6,1,0,0,1,0,1,0,0,0,hexagon,triangle,,,,,,,,,,,,,,,,,,,,,,,,,,,,,,,,,,,,,,,,,,,,,,,,,,,,,,
293983,2022-11-25_18h39.25.421,vts_reward_expectancy_bt,2022.2.4,Win32,59.61251863,Chrome,1368,912,,,a,0.6354,10,651,2,2,5,29,4,1,0,1,0,0,0,0,1,0,circle,hexagon,,,,,,,,,,,,,,,,,,,,,,,,,,,,,,,,,,,,,,,,,,,,,,,,,,,,,,
293983,2022-11-25_18h39.25.421,vts_reward_expectancy_bt,2022.2.4,Win32,59.61251863,Chrome,1368,912,,,a,0.6508,10,661,2,2,6,30,1,1,1,0,0,0,0,0,1,0,triangle,hexagon,,,,,,,,,,,,,,,,,,,,,,,,,,,,,,,,,,,,,,,,,,,,,,,,,,,,,,
293983,2022-11-25_18h39.25.421,vts_reward_expectancy_bt,2022.2.4,Win32,59.61251863,Chrome,1368,912,,,l,0.4179,10,671,2,2,7,31,9,1,0,0,0,1,1,0,0,0,star,triangle,,,,,,,,,,,,,,,,,,,,,,,,,,,,,,,,,,,,,,,,,,,,,,,,,,,,,,
293983,2022-11-25_18h39.25.421,vts_reward_expectancy_bt,2022.2.4,Win32,59.61251863,Chrome,1368,912,,,a,0.4181,1,672,2,2,8,32,8,1,0,0,1,0,0,0,0,1,hexagon,star,,,,,,,,,,,,,,,,,,,,,,,,,,,,,,,,,,,,,,,,,,,,,,,,,,,,,,
293983,2022-11-25_18h39.25.421,vts_reward_expectancy_bt,2022.2.4,Win32,59.61251863,Chrome,1368,912,,,l,0.4848,10,682,2,2,9,33,10,1,0,0,0,1,0,1,0,0,star ,circle,,,,,,,,,,,,,,,,,,,,,,,,,,,,,,,,,,,,,,,,,,,,,,,,,,,,,,
293983,2022-11-25_18h39.25.421,vts_reward_expectancy_bt,2022.2.4,Win32,59.61251863,Chrome,1368,912,,,l,1.5037,10,692,2,2,10,34,7,1,0,0,1,0,0,1,0,0,hexagon,circle,,,,,,,,,,,,,,,,,,,,,,,,,,,,,,,,,,,,,,,,,,,,,,,,,,,,,,
293983,2022-11-25_18h39.25.421,vts_reward_expectancy_bt,2022.2.4,Win32,59.61251863,Chrome,1368,912,,,a,0.5848,10,702,2,2,11,35,5,1,0,1,0,0,0,0,0,1,circle,star,,,,,,,,,,,,,,,,,,,,,,,,,,,,,,,,,,,,,,,,,,,,,,,,,,,,,,
293983,2022-11-25_18h39.25.421,vts_reward_expectancy_bt,2022.2.4,Win32,59.61251863,Chrome,1368,912,,,,,,,,,,,,,,,,,,,,,,,B,174,hexagon,1,0,d,1.0851,0,0,0,0,0,1,,,,,,,,,,,,,,,,,,,,,,,,,,,,,,,,,,,,,,,,,
293983,2022-11-25_18h39.25.421,vts_reward_expectancy_bt,2022.2.4,Win32,59.61251863,Chrome,1368,912,,,,,,,,,,,,,,,,,,,,,,,D,160,star,1,0,d,0.6348,0,1,0,1,0,1,,,,,,,,,,,,,,,,,,,,,,,,,,,,,,,,,,,,,,,,,
293983,2022-11-25_18h39.25.421,vts_reward_expectancy_bt,2022.2.4,Win32,59.61251863,Chrome,1368,912,,,,,,,,,,,,,,,,,,,,,,,Y,125,circle,1,0,f,0.5879,0,2,0,2,0,1,,,,,,,,,,,,,,,,,,,,,,,,,,,,,,,,,,,,,,,,,
293983,2022-11-25_18h39.25.421,vts_reward_expectancy_bt,2022.2.4,Win32,59.61251863,Chrome,1368,912,,,,,,,,,,,,,,,,,,,,,,,U,181,triangle,1,0,f,0.6517,0,3,0,3,0,1,,,,,,,,,,,,,,,,,,,,,,,,,,,,,,,,,,,,,,,,,
293983,2022-11-25_18h39.25.421,vts_reward_expectancy_bt,2022.2.4,Win32,59.61251863,Chrome,1368,912,,,,,,,,,,,,,,,,,,,,,,,F,146,hexagon,1,0,d,0.5513,0,4,0,4,0,1,,,,,,,,,,,,,,,,,,,,,,,,,,,,,,,,,,,,,,,,,
293983,2022-11-25_18h39.25.421,vts_reward_expectancy_bt,2022.2.4,Win32,59.61251863,Chrome,1368,912,,,,,,,,,,,,,,,,,,,,,,,S,132,star,1,0,f,0.6181,0,5,0,5,0,1,,,,,,,,,,,,,,,,,,,,,,,,,,,,,,,,,,,,,,,,,
293983,2022-11-25_18h39.25.421,vts_reward_expectancy_bt,2022.2.4,Win32,59.61251863,Chrome,1368,912,,,,,,,,,,,,,,,,,,,,,,,H,139,circle,1,0,d,0.6716,0,6,0,6,0,1,,,,,,,,,,,,,,,,,,,,,,,,,,,,,,,,,,,,,,,,,
293983,2022-11-25_18h39.25.421,vts_reward_expectancy_bt,2022.2.4,Win32,59.61251863,Chrome,1368,912,,,,,,,,,,,,,,,,,,,,,,,W,167,triangle,1,0,f,0.6349,0,7,0,7,0,1,,,,,,,,,,,,,,,,,,,,,,,,,,,,,,,,,,,,,,,,,
293983,2022-11-25_18h39.25.421,vts_reward_expectancy_bt,2022.2.4,Win32,59.61251863,Chrome,1368,912,,,,,,,,,,,,,,,,,,,,,,,B,174,hexagon,1,0,d,0.4309,0,8,0,8,0,1,,,,,,,,,,,,,,,,,,,,,,,,,,,,,,,,,,,,,,,,,
293983,2022-11-25_18h39.25.421,vts_reward_expectancy_bt,2022.2.4,Win32,59.61251863,Chrome,1368,912,,,,,,,,,,,,,,,,,,,,,,,D,160,triangle,1,0,d,0.5176,0,9,0,9,0,1,,,,,,,,,,,,,,,,,,,,,,,,,,,,,,,,,,,,,,,,,
293983,2022-11-25_18h39.25.421,vts_reward_expectancy_bt,2022.2.4,Win32,59.61251863,Chrome,1368,912,,,,,,,,,,,,,,,,,,,,,,,B,132,star,1,0,,,1,,,,,,j,0.9013,0,0,0,0,1,,,,,,,,,,,,,,,,,,,,,,,,,,,,,,,,,,
293983,2022-11-25_18h39.25.421,vts_reward_expectancy_bt,2022.2.4,Win32,59.61251863,Chrome,1368,912,,,,,,,,,,,,,,,,,,,,,,,F,139,circle,1,0,,,1,,,,,,j,0.7187,1,0,1,0,1,,,,,,,,,,,,,,,,,,,,,,,,,,,,,,,,,,
293983,2022-11-25_18h39.25.421,vts_reward_expectancy_bt,2022.2.4,Win32,59.61251863,Chrome,1368,912,,,,,,,,,,,,,,,,,,,,,,,S,160,triangle,1,0,,,1,,,,,,k,0.9187,2,0,2,0,1,,,,,,,,,,,,,,,,,,,,,,,,,,,,,,,,,,
293983,2022-11-25_18h39.25.421,vts_reward_expectancy_bt,2022.2.4,Win32,59.61251863,Chrome,1368,912,,,,,,,,,,,,,,,,,,,,,,,Y,167,hexagon,1,0,,,1,,,,,,k,0.6186,3,0,3,0,1,,,,,,,,,,,,,,,,,,,,,,,,,,,,,,,,,,
293983,2022-11-25_18h39.25.421,vts_reward_expectancy_bt,2022.2.4,Win32,59.61251863,Chrome,1368,912,,,,,,,,,,,,,,,,,,,,,,,D,181,star,1,0,,,1,,,,,,k,0.5516,4,0,4,0,1,,,,,,,,,,,,,,,,,,,,,,,,,,,,,,,,,,
293983,2022-11-25_18h39.25.421,vts_reward_expectancy_bt,2022.2.4,Win32,59.61251863,Chrome,1368,912,,,,,,,,,,,,,,,,,,,,,,,H,146,circle,1,0,,,1,,,,,,j,0.5852,5,0,5,0,1,,,,,,,,,,,,,,,,,,,,,,,,,,,,,,,,,,
293983,2022-11-25_18h39.25.421,vts_reward_expectancy_bt,2022.2.4,Win32,59.61251863,Chrome,1368,912,,,,,,,,,,,,,,,,,,,,,,,W,174,triangle,1,0,,,1,,,,,,k,0.6199,6,0,6,0,1,,,,,,,,,,,,,,,,,,,,,,,,,,,,,,,,,,
293983,2022-11-25_18h39.25.421,vts_reward_expectancy_bt,2022.2.4,Win32,59.61251863,Chrome,1368,912,,,,,,,,,,,,,,,,,,,,,,,U,125,hexagon,1,0,,,1,,,,,,j,0.6016,7,0,7,0,1,,,,,,,,,,,,,,,,,,,,,,,,,,,,,,,,,,
293983,2022-11-25_18h39.25.421,vts_reward_expectancy_bt,2022.2.4,Win32,59.61251863,Chrome,1368,912,,,,,,,,,,,,,,,,,,,,,,,B,132,circle,1,0,,,1,,,,,,j,0.9184,8,0,8,0,1,,,,,,,,,,,,,,,,,,,,,,,,,,,,,,,,,,
293983,2022-11-25_18h39.25.421,vts_reward_expectancy_bt,2022.2.4,Win32,59.61251863,Chrome,1368,912,,,,,,,,,,,,,,,,,,,,,,,F,139,triangle,1,0,,,1,,,,,,j,0.6018,9,0,9,0,1,,,,,,,,,,,,,,,,,,,,,,,,,,,,,,,,,,
293983,2022-11-25_18h39.25.421,vts_reward_expectancy_bt,2022.2.4,Win32,59.61251863,Chrome,1368,912,,,,,0,702,,,,,,,,,,,,,,,,,B,181,star,1,0,,,2,,,,,,,,,,,,,-1,letter,NA,d,1.2049,vtsPrac,0,0,0,0,1,,,,,,,,,,,,,,,,,,,,,,,
293983,2022-11-25_18h39.25.421,vts_reward_expectancy_bt,2022.2.4,Win32,59.61251863,Chrome,1368,912,,,,,0,702,,,,,,,,,,,,,,,,,Y,174,hexagon,0,0,,,2,,,,,,,,,,,,,switch,number,NA,j,0.6684,vtsPrac,1,0,1,0,1,,,,,,,,,,,,,,,,,,,,,,,
293983,2022-11-25_18h39.25.421,vts_reward_expectancy_bt,2022.2.4,Win32,59.61251863,Chrome,1368,912,,,,,0,702,,,,,,,,,,,,,,,,,U,167,star,1,1,,,2,,,,,,,,,,,,,switch,letter,lettSwt,f,1.1016,vtsPrac,2,0,2,0,1,,,,,,,,,,,,,,,,,,,,,,,
293983,2022-11-25_18h39.25.421,vts_reward_expectancy_bt,2022.2.4,Win32,59.61251863,Chrome,1368,912,,,,,0,702,,,,,,,,,,,,,,,,,F,160,hexagon,1,0,,,2,,,,,,,,,,,,,switch,number,numSwt,k,0.8047,vtsPrac,3,0,3,0,1,,,,,,,,,,,,,,,,,,,,,,,
293983,2022-11-25_18h39.25.421,vts_reward_expectancy_bt,2022.2.4,Win32,59.61251863,Chrome,1368,912,,,,,0,702,,,,,,,,,,,,,,,,,B,181,circle,1,0,,,2,,,,,,,,,,,,,switch,letter,lettSwt,d,0.685,vtsPrac,4,0,4,0,1,,,,,,,,,,,,,,,,,,,,,,,
293983,2022-11-25_18h39.25.421,vts_reward_expectancy_bt,2022.2.4,Win32,59.61251863,Chrome,1368,912,,,,,0,702,,,,,,,,,,,,,,,,,Y,174,star,1,0,,,2,,,,,,,,,,,,,repeat,letter,lettRpt,f,0.7386,vtsPrac,5,0,5,0,1,,,,,,,,,,,,,,,,,,,,,,,
293983,2022-11-25_18h39.25.421,vts_reward_expectancy_bt,2022.2.4,Win32,59.61251863,Chrome,1368,912,,,,,0,702,,,,,,,,,,,,,,,,,U,167,triangle,1,0,,,2,,,,,,,,,,,,,switch,number,numSwt,k,0.8852,vtsPrac,6,0,6,0,1,,,,,,,,,,,,,,,,,,,,,,,
293983,2022-11-25_18h39.25.421,vts_reward_expectancy_bt,2022.2.4,Win32,59.61251863,Chrome,1368,912,,,,,0,702,,,,,,,,,,,,,,,,,F,160,hexagon,1,0,,,2,,,,,,,,,,,,,switch,letter,lettSwt,d,0.5338,vtsPrac,7,0,7,0,1,,,,,,,,,,,,,,,,,,,,,,,
293983,2022-11-25_18h39.25.421,vts_reward_expectancy_bt,2022.2.4,Win32,59.61251863,Chrome,1368,912,,,,,0,702,,,,,,,,,,,,,,,,,B,160,star,1,0,,,2,,,,,,,,,,,,,repeat,letter,lettRpt,d,1.2015,vtsPrac,8,0,8,0,1,,,,,,,,,,,,,,,,,,,,,,,
293983,2022-11-25_18h39.25.421,vts_reward_expectancy_bt,2022.2.4,Win32,59.61251863,Chrome,1368,912,,,,,0,702,,,,,,,,,,,,,,,,,D,139,triangle,1,0,,,2,,,,,,,,,,,,,switch,number,numSwt,j,0.471,vtsPrac,9,0,9,0,1,,,,,,,,,,,,,,,,,,,,,,,
293983,2022-11-25_18h39.25.421,vts_reward_expectancy_bt,2022.2.4,Win32,59.61251863,Chrome,1368,912,,,,,0,702,,,,,,,,,,,,,,,,,H,174,triangle,1,0,,,2,,,,,,,,,,,,,repeat,number,numRpt,k,0.7344,vtsPrac,10,0,10,0,1,,,,,,,,,,,,,,,,,,,,,,,
293983,2022-11-25_18h39.25.421,vts_reward_expectancy_bt,2022.2.4,Win32,59.61251863,Chrome,1368,912,,,,,0,702,,,,,,,,,,,,,,,,,U,132,hexagon,1,0,,,2,,,,,,,,,,,,,repeat,number,numRpt,j,1.4859,vtsPrac,11,0,11,0,1,,,,,,,,,,,,,,,,,,,,,,,
293983,2022-11-25_18h39.25.421,vts_reward_expectancy_bt,2022.2.4,Win32,59.61251863,Chrome,1368,912,,,,,0,702,,,,,,,,,,,,,,,,,S,160,star,1,0,,,2,,,,,,,,,,,,,switch,letter,lettSwt,f,0.7183,vtsPrac,12,0,12,0,1,,,,,,,,,,,,,,,,,,,,,,,
293983,2022-11-25_18h39.25.421,vts_reward_expectancy_bt,2022.2.4,Win32,59.61251863,Chrome,1368,912,,,,,0,702,,,,,,,,,,,,,,,,,B,174,circle,1,0,,,2,,,,,,,,,,,,,repeat,letter,lettRpt,d,1.2502,vtsPrac,13,0,13,0,1,,,,,,,,,,,,,,,,,,,,,,,
293983,2022-11-25_18h39.25.421,vts_reward_expectancy_bt,2022.2.4,Win32,59.61251863,Chrome,1368,912,,,,,0,702,,,,,,,,,,,,,,,,,H,167,circle,1,0,,,2,,,,,,,,,,,,,repeat,letter,lettRpt,d,0.7186,vtsPrac,14,0,14,0,1,,,,,,,,,,,,,,,,,,,,,,,
293983,2022-11-25_18h39.25.421,vts_reward_expectancy_bt,2022.2.4,Win32,59.61251863,Chrome,1368,912,,,,,0,702,,,,,,,,,,,,,,,,,F,146,hexagon,1,0,,,2,,,,,,,,,,,,,switch,number,numSwt,j,1.8353,vtsPrac,15,0,15,0,1,,,,,,,,,,,,,,,,,,,,,,,
293983,2022-11-25_18h39.25.421,vts_reward_expectancy_bt,2022.2.4,Win32,59.61251863,Chrome,1368,912,,,,,0,702,,,,,,,,,,,,,,,,,S,167,circle,1,0,,,2,,,,,,,,,,,,,switch,letter,lettSwt,f,0.6331,vtsPrac,16,0,16,0,1,,,,,,,,,,,,,,,,,,,,,,,
293983,2022-11-25_18h39.25.421,vts_reward_expectancy_bt,2022.2.4,Win32,59.61251863,Chrome,1368,912,,,,,0,702,,,,,,,,,,,,,,,,,D,139,triangle,1,0,,,2,,,,,,,,,,,,,switch,number,numSwt,j,0.5682,vtsPrac,17,0,17,0,1,,,,,,,,,,,,,,,,,,,,,,,
293983,2022-11-25_18h39.25.421,vts_reward_expectancy_bt,2022.2.4,Win32,59.61251863,Chrome,1368,912,,,,,0,702,,,,,,,,,,,,,,,,,H,125,star,1,0,,,2,,,,,,,,,,,,,switch,letter,lettSwt,d,0.5513,vtsPrac,18,0,18,0,1,,,,,,,,,,,,,,,,,,,,,,,
293983,2022-11-25_18h39.25.421,vts_reward_expectancy_bt,2022.2.4,Win32,59.61251863,Chrome,1368,912,,,,,0,702,,,,,,,,,,,,,,,,,Y,132,circle,1,0,,,2,,,,,,,,,,,,,repeat,letter,lettRpt,f,0.5847,vtsPrac,19,0,19,0,1,,,,,,,,,,,,,,,,,,,,,,,
293983,2022-11-25_18h39.25.421,vts_reward_expectancy_bt,2022.2.4,Win32,59.61251863,Chrome,1368,912,,,,,0,702,,,,,,,,,,,,,,,,,H,125,hexagon,1,0,,,2,,,,,,,,,,,,,switch,number,numSwt,j,0.8346,vtsPrac,20,0,20,0,1,,,,,,,,,,,,,,,,,,,,,,,
293983,2022-11-25_18h39.25.421,vts_reward_expectancy_bt,2022.2.4,Win32,59.61251863,Chrome,1368,912,,,,,0,702,,,,,,,,,,,,,,,,,S,139,circle,1,0,,,2,,,,,,,,,,,,,switch,letter,lettSwt,f,0.6353,vtsPrac,21,0,21,0,1,,,,,,,,,,,,,,,,,,,,,,,
293983,2022-11-25_18h39.25.421,vts_reward_expectancy_bt,2022.2.4,Win32,59.61251863,Chrome,1368,912,,,,,0,702,,,,,,,,,,,,,,,,,U,174,hexagon,1,0,,,2,,,,,,,,,,,,,switch,number,numSwt,k,1.0352,vtsPrac,22,0,22,0,1,,,,,,,,,,,,,,,,,,,,,,,
293983,2022-11-25_18h39.25.421,vts_reward_expectancy_bt,2022.2.4,Win32,59.61251863,Chrome,1368,912,,,,,0,702,,,,,,,,,,,,,,,,,D,146,circle,1,0,,,2,,,,,,,,,,,,,switch,letter,lettSwt,d,0.6042,vtsPrac,23,0,23,0,1,,,,,,,,,,,,,,,,,,,,,,,
293983,2022-11-25_18h39.25.421,vts_reward_expectancy_bt,2022.2.4,Win32,59.61251863,Chrome,1368,912,,,,,0,702,,,,,,,,,,,,,,,,,Y,132,star,1,0,,,2,,,,,,,,,,,,,repeat,letter,lettRpt,f,0.6349,vtsPrac,24,0,24,0,1,,,,,,,,,,,,,,,,,,,,,,,
293983,2022-11-25_18h39.25.421,vts_reward_expectancy_bt,2022.2.4,Win32,59.61251863,Chrome,1368,912,,,,,0,702,,,,,,,,,,,,,,,,,B,139,triangle,1,0,,,2,,,,,,,,,,,,,switch,number,numSwt,j,0.5378,vtsPrac,25,0,25,0,1,,,,,,,,,,,,,,,,,,,,,,,
293983,2022-11-25_18h39.25.421,vts_reward_expectancy_bt,2022.2.4,Win32,59.61251863,Chrome,1368,912,,,,,0,702,,,,,,,,,,,,,,,,,H,146,triangle,1,0,,,2,,,,,,,,,,,,,repeat,number,numRpt,j,0.6378,vtsPrac,26,0,26,0,1,,,,,,,,,,,,,,,,,,,,,,,
293983,2022-11-25_18h39.25.421,vts_reward_expectancy_bt,2022.2.4,Win32,59.61251863,Chrome,1368,912,,,,,0,702,,,,,,,,,,,,,,,,,S,160,star,1,0,,,2,,,,,,,,,,,,,switch,letter,lettSwt,f,0.6347,vtsPrac,27,0,27,0,1,,,,,,,,,,,,,,,,,,,,,,,
293983,2022-11-25_18h39.25.421,vts_reward_expectancy_bt,2022.2.4,Win32,59.61251863,Chrome,1368,912,,,,,0,702,,,,,,,,,,,,,,,,,S,167,triangle,1,0,,,2,,,,,,,,,,,,,switch,number,numSwt,k,0.5381,vtsPrac,28,0,28,0,1,,,,,,,,,,,,,,,,,,,,,,,
293983,2022-11-25_18h39.25.421,vts_reward_expectancy_bt,2022.2.4,Win32,59.61251863,Chrome,1368,912,,,,,0,702,,,,,,,,,,,,,,,,,W,139,circle,1,0,,,2,,,,,,,,,,,,,switch,letter,lettSwt,f,0.585,vtsPrac,29,0,29,0,1,,,,,,,,,,,,,,,,,,,,,,,
293983,2022-11-25_18h39.25.421,vts_reward_expectancy_bt,2022.2.4,Win32,59.61251863,Chrome,1368,912,,,,,0,702,,,,,,,,,,,,,,,,,B,125,circle,1,0,,,2,,,,,,,,,,,,,repeat,letter,lettRpt,d,0.4512,vtsPrac,30,0,30,0,1,,,,,,,,,,,,,,,,,,,,,,,
293983,2022-11-25_18h39.25.421,vts_reward_expectancy_bt,2022.2.4,Win32,59.61251863,Chrome,1368,912,,,,,0,702,,,,,,,,,,,,,,,,,U,146,star,1,0,,,2,,,,,,,,,,,,,repeat,letter,lettRpt,f,0.8185,vtsPrac,31,0,31,0,1,,,,,,,,,,,,,,,,,,,,,,,
293983,2022-11-25_18h39.25.421,vts_reward_expectancy_bt,2022.2.4,Win32,59.61251863,Chrome,1368,912,,,,,,,,,,,,,,,,,,,,,,,,,,,,,,,,,,,,,,,,,,,,,,,,,,,,,,,,,,,,,,,,,,,,,,,,,,,,
293983,2022-11-25_18h39.25.421,vts_reward_expectancy_bt,2022.2.4,Win32,59.61251863,Chrome,1368,912,,,,,,,,,,,,,,,,,,,,,,,,,,,,,,,,,,,,,,,,,,,,,,,,,,,,,,,,,,,,,,,,,,,,,,,,,,,,
293983,2022-11-25_18h39.25.421,vts_reward_expectancy_bt,2022.2.4,Win32,59.61251863,Chrome,1368,912,,,,,0,702,,,,,,,,,,,,,,,,,Y,174,triangle,1,0,,,,,,,,,,,,,,,,switch,number,numSwt,k,1.1655,noRew,,,,,,0,0,0,0,0,1,,,,,,,,,,,,,,,,,
293983,2022-11-25_18h39.25.421,vts_reward_expectancy_bt,2022.2.4,Win32,59.61251863,Chrome,1368,912,,,,,0,702,,,,,,,,,,,,,,,,,F,132,hexagon,1,0,,,,,,,,,,,,,,,,repeat,number,numRpt,j,0.5213,noRew,,,,,,0,1,0,1,0,1,,,,,,,,,,,,,,,,,
293983,2022-11-25_18h39.25.421,vts_reward_expectancy_bt,2022.2.4,Win32,59.61251863,Chrome,1368,912,,,,,0,702,,,,,,,,,,,,,,,,,B,181,triangle,1,0,,,,,,,,,,,,,,,,repeat,number,numRpt,k,0.6512,noRew,,,,,,0,2,0,2,0,1,,,,,,,,,,,,,,,,,
293983,2022-11-25_18h39.25.421,vts_reward_expectancy_bt,2022.2.4,Win32,59.61251863,Chrome,1368,912,,,,,0,702,,,,,,,,,,,,,,,,,W,167,hexagon,1,0,,,,,,,,,,,,,,,,repeat,number,numRpt,k,1.1706,noRew,,,,,,0,3,0,3,0,1,,,,,,,,,,,,,,,,,
293983,2022-11-25_18h39.25.421,vts_reward_expectancy_bt,2022.2.4,Win32,59.61251863,Chrome,1368,912,,,,,0,702,,,,,,,,,,,,,,,,,Y,174,hexagon,1,0,,,,,,,,,,,,,,,,repeat,number,numRpt,k,0.9884,noRew,,,,,,0,4,0,4,0,1,,,,,,,,,,,,,,,,,
293983,2022-11-25_18h39.25.421,vts_reward_expectancy_bt,2022.2.4,Win32,59.61251863,Chrome,1368,912,,,,,0,702,,,,,,,,,,,,,,,,,F,132,circle,1,0,,,,,,,,,,,,,,,,switch,letter,lettSwt,d,1.1021,noRew,,,,,,0,5,0,5,0,1,,,,,,,,,,,,,,,,,
293983,2022-11-25_18h39.25.421,vts_reward_expectancy_bt,2022.2.4,Win32,59.61251863,Chrome,1368,912,,,,,0,702,,,,,,,,,,,,,,,,,B,181,triangle,1,0,,,,,,,,,,,,,,,,switch,number,numSwt,k,0.9016,noRew,,,,,,0,6,0,6,0,1,,,,,,,,,,,,,,,,,
293983,2022-11-25_18h39.25.421,vts_reward_expectancy_bt,2022.2.4,Win32,59.61251863,Chrome,1368,912,,,,,0,702,,,,,,,,,,,,,,,,,W,167,hexagon,1,0,,,,,,,,,,,,,,,,repeat,number,numRpt,k,1.0687,noRew,,,,,,0,7,0,7,0,1,,,,,,,,,,,,,,,,,
293983,2022-11-25_18h39.25.421,vts_reward_expectancy_bt,2022.2.4,Win32,59.61251863,Chrome,1368,912,,,,,0,702,,,,,,,,,,,,,,,,,Y,132,hexagon,1,0,,,,,,,,,,,,,,,,repeat,number,numRpt,j,0.635,noRew,,,,,,0,8,0,8,0,1,,,,,,,,,,,,,,,,,
293983,2022-11-25_18h39.25.421,vts_reward_expectancy_bt,2022.2.4,Win32,59.61251863,Chrome,1368,912,,,,,0,702,,,,,,,,,,,,,,,,,F,167,circle,1,0,,,,,,,,,,,,,,,,repeat,number,numRpt,k,1.1189,noRew,,,,,,0,9,0,9,0,1,,,,,,,,,,,,,,,,,
293983,2022-11-25_18h39.25.421,vts_reward_expectancy_bt,2022.2.4,Win32,59.61251863,Chrome,1368,912,,,,,0,702,,,,,,,,,,,,,,,,,S,174,triangle,1,0,,,,,,,,,,,,,,,,switch,letter,lettSwt,f,1.3355,noRew,,,,,,0,10,0,10,0,1,,,,,,,,,,,,,,,,,
293983,2022-11-25_18h39.25.421,vts_reward_expectancy_bt,2022.2.4,Win32,59.61251863,Chrome,1368,912,,,,,0,702,,,,,,,,,,,,,,,,,D,160,star,1,0,,,,,,,,,,,,,,,,repeat,letter,lettRpt,d,1.4573,noRew,,,,,,0,11,0,11,0,1,,,,,,,,,,,,,,,,,
293983,2022-11-25_18h39.25.421,vts_reward_expectancy_bt,2022.2.4,Win32,59.61251863,Chrome,1368,912,,,,,0,702,,,,,,,,,,,,,,,,,D,132,triangle,1,0,,,,,,,,,,,,,,,,switch,number,numSwt,j,1.2892,noRew,,,,,,0,12,0,12,0,1,,,,,,,,,,,,,,,,,
293983,2022-11-25_18h39.25.421,vts_reward_expectancy_bt,2022.2.4,Win32,59.61251863,Chrome,1368,912,,,,,0,702,,,,,,,,,,,,,,,,,H,174,circle,1,0,,,,,,,,,,,,,,,,switch,letter,lettSwt,d,1.4018,noRew,,,,,,0,13,0,13,0,1,,,,,,,,,,,,,,,,,
293983,2022-11-25_18h39.25.421,vts_reward_expectancy_bt,2022.2.4,Win32,59.61251863,Chrome,1368,912,,,,,0,702,,,,,,,,,,,,,,,,,Y,139,circle,1,0,,,,,,,,,,,,,,,,repeat,letter,lettRpt,f,0.7851,noRew,,,,,,0,14,0,14,0,1,,,,,,,,,,,,,,,,,
293983,2022-11-25_18h39.25.421,vts_reward_expectancy_bt,2022.2.4,Win32,59.61251863,Chrome,1368,912,,,,,0,702,,,,,,,,,,,,,,,,,U,167,hexagon,1,0,,,,,,,,,,,,,,,,repeat,letter,lettRpt,f,1.0851,noRew,,,,,,0,15,0,15,0,1,,,,,,,,,,,,,,,,,
293983,2022-11-25_18h39.25.421,vts_reward_expectancy_bt,2022.2.4,Win32,59.61251863,Chrome,1368,912,,,,,0,702,,,,,,,,,,,,,,,,,U,181,hexagon,1,0,,,,,,,,,,,,,,,,switch,number,numSwt,k,0.9688,noRew,,,,,,0,16,0,16,0,1,,,,,,,,,,,,,,,,,
293983,2022-11-25_18h39.25.421,vts_reward_expectancy_bt,2022.2.4,Win32,59.61251863,Chrome,1368,912,,,,,0,702,,,,,,,,,,,,,,,,,D,139,triangle,1,0,,,,,,,,,,,,,,,,switch,letter,lettSwt,d,0.6853,noRew,,,,,,0,17,0,17,0,1,,,,,,,,,,,,,,,,,
293983,2022-11-25_18h39.25.421,vts_reward_expectancy_bt,2022.2.4,Win32,59.61251863,Chrome,1368,912,,,,,0,702,,,,,,,,,,,,,,,,,W,146,triangle,1,0,,,,,,,,,,,,,,,,switch,number,numSwt,j,0.8682,noRew,,,,,,0,18,0,18,0,1,,,,,,,,,,,,,,,,,
293983,2022-11-25_18h39.25.421,vts_reward_expectancy_bt,2022.2.4,Win32,59.61251863,Chrome,1368,912,,,,,0,702,,,,,,,,,,,,,,,,,H,167,circle,1,0,,,,,,,,,,,,,,,,repeat,number,numRpt,k,1.0181,noRew,,,,,,0,19,0,19,0,1,,,,,,,,,,,,,,,,,
293983,2022-11-25_18h39.25.421,vts_reward_expectancy_bt,2022.2.4,Win32,59.61251863,Chrome,1368,912,,,,,0,702,,,,,,,,,,,,,,,,,W,146,triangle,1,0,,,,,,,,,,,,,,,,repeat,number,numRpt,j,0.6722,noRew,,,,,,0,20,0,20,0,1,,,,,,,,,,,,,,,,,
293983,2022-11-25_18h39.25.421,vts_reward_expectancy_bt,2022.2.4,Win32,59.61251863,Chrome,1368,912,,,,,0,702,,,,,,,,,,,,,,,,,F,139,circle,1,0,,,,,,,,,,,,,,,,repeat,number,numRpt,j,0.5392,noRew,,,,,,0,21,0,21,0,1,,,,,,,,,,,,,,,,,
293983,2022-11-25_18h39.25.421,vts_reward_expectancy_bt,2022.2.4,Win32,59.61251863,Chrome,1368,912,,,,,0,702,,,,,,,,,,,,,,,,,U,181,star,1,0,,,,,,,,,,,,,,,,switch,letter,lettSwt,f,0.6015,noRew,,,,,,0,22,0,22,0,1,,,,,,,,,,,,,,,,,
293983,2022-11-25_18h39.25.421,vts_reward_expectancy_bt,2022.2.4,Win32,59.61251863,Chrome,1368,912,,,,,0,702,,,,,,,,,,,,,,,,,H,132,hexagon,1,0,,,,,,,,,,,,,,,,repeat,letter,lettRpt,d,0.5847,noRew,,,,,,0,23,0,23,0,1,,,,,,,,,,,,,,,,,
293983,2022-11-25_18h39.25.421,vts_reward_expectancy_bt,2022.2.4,Win32,59.61251863,Chrome,1368,912,,,,,0,702,,,,,,,,,,,,,,,,,B,146,star,1,0,,,,,,,,,,,,,,,,switch,number,numSwt,j,0.6681,noRew,,,,,,0,24,0,24,0,1,,,,,,,,,,,,,,,,,
293983,2022-11-25_18h39.25.421,vts_reward_expectancy_bt,2022.2.4,Win32,59.61251863,Chrome,1368,912,,,,,0,702,,,,,,,,,,,,,,,,,F,181,triangle,1,0,,,,,,,,,,,,,,,,switch,letter,lettSwt,d,0.8684,noRew,,,,,,0,25,0,25,0,1,,,,,,,,,,,,,,,,,
293983,2022-11-25_18h39.25.421,vts_reward_expectancy_bt,2022.2.4,Win32,59.61251863,Chrome,1368,912,,,,,0,702,,,,,,,,,,,,,,,,,S,132,star,1,0,,,,,,,,,,,,,,,,repeat,letter,lettRpt,f,2.0882,noRew,,,,,,0,26,0,26,0,1,,,,,,,,,,,,,,,,,
293983,2022-11-25_18h39.25.421,vts_reward_expectancy_bt,2022.2.4,Win32,59.61251863,Chrome,1368,912,,,,,0,702,,,,,,,,,,,,,,,,,H,160,hexagon,1,0,,,,,,,,,,,,,,,,switch,number,numSwt,k,1.6016,noRew,,,,,,0,27,0,27,0,1,,,,,,,,,,,,,,,,,
293983,2022-11-25_18h39.25.421,vts_reward_expectancy_bt,2022.2.4,Win32,59.61251863,Chrome,1368,912,,,,,0,702,,,,,,,,,,,,,,,,,W,160,star,1,0,,,,,,,,,,,,,,,,repeat,number,numRpt,k,0.7027,noRew,,,,,,0,28,0,28,0,1,,,,,,,,,,,,,,,,,
293983,2022-11-25_18h39.25.421,vts_reward_expectancy_bt,2022.2.4,Win32,59.61251863,Chrome,1368,912,,,,,0,702,,,,,,,,,,,,,,,,,U,125,circle,1,0,,,,,,,,,,,,,,,,repeat,number,numRpt,j,0.5849,noRew,,,,,,0,29,0,29,0,1,,,,,,,,,,,,,,,,,
293983,2022-11-25_18h39.25.421,vts_reward_expectancy_bt,2022.2.4,Win32,59.61251863,Chrome,1368,912,,,,,0,702,,,,,,,,,,,,,,,,,B,146,hexagon,1,0,,,,,,,,,,,,,,,,repeat,number,numRpt,j,0.8348,noRew,,,,,,0,30,0,30,0,1,,,,,,,,,,,,,,,,,
293983,2022-11-25_18h39.25.421,vts_reward_expectancy_bt,2022.2.4,Win32,59.61251863,Chrome,1368,912,,,,,0,702,,,,,,,,,,,,,,,,,S,174,circle,1,0,,,,,,,,,,,,,,,,repeat,number,numRpt,k,0.8546,noRew,,,,,,0,31,0,31,0,1,,,,,,,,,,,,,,,,,
293983,2022-11-25_18h39.25.421,vts_reward_expectancy_bt,2022.2.4,Win32,59.61251863,Chrome,1368,912,,,,,0,702,,,,,,,,,,,,,,,,,W,132,hexagon,1,0,,,,,,,,,,,,,,,,switch,letter,lettSwt,f,1.3402,noRew,,,,,,0,32,0,32,0,1,,,,,,,,,,,,,,,,,
293983,2022-11-25_18h39.25.421,vts_reward_expectancy_bt,2022.2.4,Win32,59.61251863,Chrome,1368,912,,,,,0,702,,,,,,,,,,,,,,,,,B,146,star,1,0,,,,,,,,,,,,,,,,repeat,letter,lettRpt,d,0.5346,noRew,,,,,,0,33,0,33,0,1,,,,,,,,,,,,,,,,,
293983,2022-11-25_18h39.25.421,vts_reward_expectancy_bt,2022.2.4,Win32,59.61251863,Chrome,1368,912,,,,,0,702,,,,,,,,,,,,,,,,,Y,160,circle,1,0,,,,,,,,,,,,,,,,switch,number,numSwt,k,0.9845,noRew,,,,,,0,34,0,34,0,1,,,,,,,,,,,,,,,,,
293983,2022-11-25_18h39.25.421,vts_reward_expectancy_bt,2022.2.4,Win32,59.61251863,Chrome,1368,912,,,,,0,702,,,,,,,,,,,,,,,,,F,139,triangle,1,0,,,,,,,,,,,,,,,,switch,letter,lettSwt,d,1.5186,noRew,,,,,,0,35,0,35,0,1,,,,,,,,,,,,,,,,,
293983,2022-11-25_18h39.25.421,vts_reward_expectancy_bt,2022.2.4,Win32,59.61251863,Chrome,1368,912,,,,,0,702,,,,,,,,,,,,,,,,,D,139,star,1,0,,,,,,,,,,,,,,,,repeat,letter,lettRpt,d,0.6077,noRew,,,,,,0,36,0,36,0,1,,,,,,,,,,,,,,,,,
293983,2022-11-25_18h39.25.421,vts_reward_expectancy_bt,2022.2.4,Win32,59.61251863,Chrome,1368,912,,,,,0,702,,,,,,,,,,,,,,,,,Y,181,triangle,1,0,,,,,,,,,,,,,,,,repeat,letter,lettRpt,f,0.6145,noRew,,,,,,0,37,0,37,0,1,,,,,,,,,,,,,,,,,
293983,2022-11-25_18h39.25.421,vts_reward_expectancy_bt,2022.2.4,Win32,59.61251863,Chrome,1368,912,,,,,0,702,,,,,,,,,,,,,,,,,U,132,triangle,1,0,,,,,,,,,,,,,,,,switch,number,numSwt,j,0.5851,noRew,,,,,,0,38,0,38,0,1,,,,,,,,,,,,,,,,,
293983,2022-11-25_18h39.25.421,vts_reward_expectancy_bt,2022.2.4,Win32,59.61251863,Chrome,1368,912,,,,,0,702,,,,,,,,,,,,,,,,,S,146,hexagon,1,0,,,,,,,,,,,,,,,,repeat,number,numRpt,j,0.8656,noRew,,,,,,0,39,0,39,0,1,,,,,,,,,,,,,,,,,
293983,2022-11-25_18h39.25.421,vts_reward_expectancy_bt,2022.2.4,Win32,59.61251863,Chrome,1368,912,,,,,0,702,,,,,,,,,,,,,,,,,W,139,circle,1,0,,,,,,,,,,,,,,,,switch,letter,lettSwt,f,0.9183,noRew,,,,,,0,40,0,40,0,1,,,,,,,,,,,,,,,,,
293983,2022-11-25_18h39.25.421,vts_reward_expectancy_bt,2022.2.4,Win32,59.61251863,Chrome,1368,912,,,,,0,702,,,,,,,,,,,,,,,,,F,167,triangle,1,0,,,,,,,,,,,,,,,,switch,number,numSwt,k,1.0006,noRew,,,,,,0,41,0,41,0,1,,,,,,,,,,,,,,,,,
293983,2022-11-25_18h39.25.421,vts_reward_expectancy_bt,2022.2.4,Win32,59.61251863,Chrome,1368,912,,,,,0,702,,,,,,,,,,,,,,,,,Y,174,hexagon,1,0,,,,,,,,,,,,,,,,repeat,number,numRpt,k,0.7517,noRew,,,,,,0,42,0,42,0,1,,,,,,,,,,,,,,,,,
293983,2022-11-25_18h39.25.421,vts_reward_expectancy_bt,2022.2.4,Win32,59.61251863,Chrome,1368,912,,,,,0,702,,,,,,,,,,,,,,,,,D,132,triangle,1,0,,,,,,,,,,,,,,,,switch,letter,lettSwt,d,0.4407,noRew,,,,,,0,43,0,43,0,1,,,,,,,,,,,,,,,,,
293983,2022-11-25_18h39.25.421,vts_reward_expectancy_bt,2022.2.4,Win32,59.61251863,Chrome,1368,912,,,,,0,702,,,,,,,,,,,,,,,,,U,160,hexagon,1,0,,,,,,,,,,,,,,,,switch,number,numSwt,k,1.2189,noRew,,,,,,0,44,0,44,0,1,,,,,,,,,,,,,,,,,
293983,2022-11-25_18h39.25.421,vts_reward_expectancy_bt,2022.2.4,Win32,59.61251863,Chrome,1368,912,,,,,0,702,,,,,,,,,,,,,,,,,S,125,circle,1,0,,,,,,,,,,,,,,,,switch,letter,lettSwt,f,1.3191,noRew,,,,,,0,45,0,45,0,1,,,,,,,,,,,,,,,,,
293983,2022-11-25_18h39.25.421,vts_reward_expectancy_bt,2022.2.4,Win32,59.61251863,Chrome,1368,912,,,,,0,702,,,,,,,,,,,,,,,,,H,132,star,1,0,,,,,,,,,,,,,,,,repeat,letter,lettRpt,d,0.6215,noRew,,,,,,0,46,0,46,0,1,,,,,,,,,,,,,,,,,
293983,2022-11-25_18h39.25.421,vts_reward_expectancy_bt,2022.2.4,Win32,59.61251863,Chrome,1368,912,,,,,0,702,,,,,,,,,,,,,,,,,W,167,triangle,1,0,,,,,,,,,,,,,,,,repeat,letter,lettRpt,f,0.684,noRew,,,,,,0,47,0,47,0,1,,,,,,,,,,,,,,,,,
293983,2022-11-25_18h39.25.421,vts_reward_expectancy_bt,2022.2.4,Win32,59.61251863,Chrome,1368,912,,,,,0,702,,,,,,,,,,,,,,,,,B,167,star,1,0,,,,,,,,,,,,,,,,repeat,letter,lettRpt,d,0.6368,noRew,,,,,,0,48,0,48,0,1,,,,,,,,,,,,,,,,,
293983,2022-11-25_18h39.25.421,vts_reward_expectancy_bt,2022.2.4,Win32,59.61251863,Chrome,1368,912,,,,,0,702,,,,,,,,,,,,,,,,,U,132,circle,1,0,,,,,,,,,,,,,,,,switch,number,numSwt,j,1.269,noRew,,,,,,0,49,0,49,0,1,,,,,,,,,,,,,,,,,
293983,2022-11-25_18h39.25.421,vts_reward_expectancy_bt,2022.2.4,Win32,59.61251863,Chrome,1368,912,,,,,0,702,,,,,,,,,,,,,,,,,W,139,circle,1,0,,,,,,,,,,,,,,,,repeat,number,numRpt,j,0.6513,noRew,,,,,,0,50,0,50,0,1,,,,,,,,,,,,,,,,,
293983,2022-11-25_18h39.25.421,vts_reward_expectancy_bt,2022.2.4,Win32,59.61251863,Chrome,1368,912,,,,,0,702,,,,,,,,,,,,,,,,,Y,146,star,1,0,,,,,,,,,,,,,,,,switch,letter,lettSwt,f,0.6683,noRew,,,,,,0,51,0,51,0,1,,,,,,,,,,,,,,,,,
293983,2022-11-25_18h39.25.421,vts_reward_expectancy_bt,2022.2.4,Win32,59.61251863,Chrome,1368,912,,,,,0,702,,,,,,,,,,,,,,,,,U,160,triangle,1,0,,,,,,,,,,,,,,,,switch,number,numSwt,k,1.201,noRew,,,,,,0,52,0,52,0,1,,,,,,,,,,,,,,,,,
293983,2022-11-25_18h39.25.421,vts_reward_expectancy_bt,2022.2.4,Win32,59.61251863,Chrome,1368,912,,,,,0,702,,,,,,,,,,,,,,,,,Y,167,hexagon,1,0,,,,,,,,,,,,,,,,repeat,number,numRpt,k,0.5843,noRew,,,,,,0,53,0,53,0,1,,,,,,,,,,,,,,,,,
293983,2022-11-25_18h39.25.421,vts_reward_expectancy_bt,2022.2.4,Win32,59.61251863,Chrome,1368,912,,,,,0,702,,,,,,,,,,,,,,,,,W,181,triangle,1,0,,,,,,,,,,,,,,,,repeat,number,numRpt,k,0.6681,noRew,,,,,,0,54,0,54,0,1,,,,,,,,,,,,,,,,,
293983,2022-11-25_18h39.25.421,vts_reward_expectancy_bt,2022.2.4,Win32,59.61251863,Chrome,1368,912,,,,,0,702,,,,,,,,,,,,,,,,,H,125,hexagon,1,0,,,,,,,,,,,,,,,,switch,letter,lettSwt,d,0.6025,noRew,,,,,,0,55,0,55,0,1,,,,,,,,,,,,,,,,,
293983,2022-11-25_18h39.25.421,vts_reward_expectancy_bt,2022.2.4,Win32,59.61251863,Chrome,1368,912,,,,,0,702,,,,,,,,,,,,,,,,,H,132,circle,1,0,,,,,,,,,,,,,,,,repeat,letter,lettRpt,d,0.6681,noRew,,,,,,0,56,0,56,0,1,,,,,,,,,,,,,,,,,
293983,2022-11-25_18h39.25.421,vts_reward_expectancy_bt,2022.2.4,Win32,59.61251863,Chrome,1368,912,,,,,0,702,,,,,,,,,,,,,,,,,B,167,star,1,0,,,,,,,,,,,,,,,,repeat,letter,lettRpt,d,0.6181,noRew,,,,,,0,57,0,57,0,1,,,,,,,,,,,,,,,,,
293983,2022-11-25_18h39.25.421,vts_reward_expectancy_bt,2022.2.4,Win32,59.61251863,Chrome,1368,912,,,,,0,702,,,,,,,,,,,,,,,,,D,160,star,1,0,,,,,,,,,,,,,,,,switch,number,numSwt,k,1.0012,noRew,,,,,,0,58,0,58,0,1,,,,,,,,,,,,,,,,,
293983,2022-11-25_18h39.25.421,vts_reward_expectancy_bt,2022.2.4,Win32,59.61251863,Chrome,1368,912,,,,,0,702,,,,,,,,,,,,,,,,,F,139,hexagon,1,0,,,,,,,,,,,,,,,,switch,letter,lettSwt,d,0.9517,noRew,,,,,,0,59,0,59,0,1,,,,,,,,,,,,,,,,,
293983,2022-11-25_18h39.25.421,vts_reward_expectancy_bt,2022.2.4,Win32,59.61251863,Chrome,1368,912,,,,,0,702,,,,,,,,,,,,,,,,,W,146,star,1,0,,,,,,,,,,,,,,,,switch,number,numSwt,j,1.8354,noRew,,,,,,0,60,0,60,0,1,,,,,,,,,,,,,,,,,
293983,2022-11-25_18h39.25.421,vts_reward_expectancy_bt,2022.2.4,Win32,59.61251863,Chrome,1368,912,,,,,0,702,,,,,,,,,,,,,,,,,H,160,triangle,1,0,,,,,,,,,,,,,,,,switch,letter,lettSwt,d,0.9348,noRew,,,,,,0,61,0,61,0,1,,,,,,,,,,,,,,,,,
293983,2022-11-25_18h39.25.421,vts_reward_expectancy_bt,2022.2.4,Win32,59.61251863,Chrome,1368,912,,,,,0,702,,,,,,,,,,,,,,,,,Y,181,star,1,0,,,,,,,,,,,,,,,,repeat,letter,lettRpt,f,0.604,noRew,,,,,,0,62,0,62,0,1,,,,,,,,,,,,,,,,,
293983,2022-11-25_18h39.25.421,vts_reward_expectancy_bt,2022.2.4,Win32,59.61251863,Chrome,1368,912,,,,,0,702,,,,,,,,,,,,,,,,,D,167,triangle,1,0,,,,,,,,,,,,,,,,repeat,letter,lettRpt,d,0.7017,noRew,,,,,,0,63,0,63,0,1,,,,,,,,,,,,,,,,,
293983,2022-11-25_18h39.25.421,vts_reward_expectancy_bt,2022.2.4,Win32,59.61251863,Chrome,1368,912,,,,,,,,,,,,,,,,,,,,,,,,,,,,,,,,,,,,,,,,,,,,,,,,,,,,,,,,,,,,,,,,,,,,,,,,,,,,
293983,2022-11-25_18h39.25.421,vts_reward_expectancy_bt,2022.2.4,Win32,59.61251863,Chrome,1368,912,,,,,0,702,,,,,,,,,,,,,,,,,S,167,triangle,1,0,,,,,,,,,,,,,,,,switch,number,numSwt,k,1.2519,Hi,,,,,,0,,,,,,space,26.8307,high,0,0,0,0,1,,,,,,,,,
293983,2022-11-25_18h39.25.421,vts_reward_expectancy_bt,2022.2.4,Win32,59.61251863,Chrome,1368,912,,,,,10,712,,,,,,,,,,,,,,,,,F,146,circle,1,0,,,,,,,,,,,,,,,,switch,letter,lettSwt,d,0.7345,Hi,,,,,,0,,,,,,,,high,1,0,1,0,1,,,,,,,,,
293983,2022-11-25_18h39.25.421,vts_reward_expectancy_bt,2022.2.4,Win32,59.61251863,Chrome,1368,912,,,,,1,713,,,,,,,,,,,,,,,,,Y,181,star,1,0,,,,,,,,,,,,,,,,switch,number,numSwt,k,0.5512,Lo,,,,,,0,,,,,,,,high,2,0,2,0,1,,,,,,,,,
293983,2022-11-25_18h39.25.421,vts_reward_expectancy_bt,2022.2.4,Win32,59.61251863,Chrome,1368,912,,,,,1,714,,,,,,,,,,,,,,,,,D,174,hexagon,1,0,,,,,,,,,,,,,,,,switch,letter,lettSwt,d,0.4352,Lo,,,,,,0,,,,,,,,high,3,0,3,0,1,,,,,,,,,
293983,2022-11-25_18h39.25.421,vts_reward_expectancy_bt,2022.2.4,Win32,59.61251863,Chrome,1368,912,,,,,10,724,,,,,,,,,,,,,,,,,W,125,triangle,1,0,,,,,,,,,,,,,,,,repeat,letter,lettRpt,f,0.4522,Hi,,,,,,0,,,,,,,,high,4,0,4,0,1,,,,,,,,,
293983,2022-11-25_18h39.25.421,vts_reward_expectancy_bt,2022.2.4,Win32,59.61251863,Chrome,1368,912,,,,,10,734,,,,,,,,,,,,,,,,,B,139,circle,1,0,,,,,,,,,,,,,,,,switch,number,numSwt,j,0.5012,Hi,,,,,,0,,,,,,,,high,5,0,5,0,1,,,,,,,,,
293983,2022-11-25_18h39.25.421,vts_reward_expectancy_bt,2022.2.4,Win32,59.61251863,Chrome,1368,912,,,,,1,735,,,,,,,,,,,,,,,,,H,132,star,1,0,,,,,,,,,,,,,,,,repeat,number,numRpt,j,0.4343,Lo,,,,,,0,,,,,,,,high,6,0,6,0,1,,,,,,,,,
293983,2022-11-25_18h39.25.421,vts_reward_expectancy_bt,2022.2.4,Win32,59.61251863,Chrome,1368,912,,,,,10,745,,,,,,,,,,,,,,,,,U,160,hexagon,1,0,,,,,,,,,,,,,,,,repeat,number,numRpt,k,0.6849,Lo,,,,,,0,,,,,,,,high,7,0,7,0,1,,,,,,,,,
293983,2022-11-25_18h39.25.421,vts_reward_expectancy_bt,2022.2.4,Win32,59.61251863,Chrome,1368,912,,,,,10,755,,,,,,,,,,,,,,,,,S,167,circle,1,0,,,,,,,,,,,,,,,,repeat,number,numRpt,k,0.4391,Hi,,,,,,0,,,,,,,,high,8,0,8,0,1,,,,,,,,,
293983,2022-11-25_18h39.25.421,vts_reward_expectancy_bt,2022.2.4,Win32,59.61251863,Chrome,1368,912,,,,,10,765,,,,,,,,,,,,,,,,,F,146,triangle,1,0,,,,,,,,,,,,,,,,switch,letter,lettSwt,d,0.3894,Hi,,,,,,0,,,,,,,,high,9,0,9,0,1,,,,,,,,,
293983,2022-11-25_18h39.25.421,vts_reward_expectancy_bt,2022.2.4,Win32,59.61251863,Chrome,1368,912,,,,,1,766,,,,,,,,,,,,,,,,,Y,181,hexagon,1,0,,,,,,,,,,,,,,,,repeat,letter,lettRpt,f,0.3343,Lo,,,,,,0,,,,,,,,high,10,0,10,0,1,,,,,,,,,
293983,2022-11-25_18h39.25.421,vts_reward_expectancy_bt,2022.2.4,Win32,59.61251863,Chrome,1368,912,,,,,1,767,,,,,,,,,,,,,,,,,D,174,star,1,0,,,,,,,,,,,,,,,,repeat,letter,lettRpt,d,0.6347,Lo,,,,,,0,,,,,,,,high,11,0,11,0,1,,,,,,,,,
293983,2022-11-25_18h39.25.421,vts_reward_expectancy_bt,2022.2.4,Win32,59.61251863,Chrome,1368,912,,,,,10,777,,,,,,,,,,,,,,,,,W,125,circle,1,0,,,,,,,,,,,,,,,,repeat,letter,lettRpt,f,0.4515,Hi,,,,,,0,,,,,,,,high,12,0,12,0,1,,,,,,,,,
293983,2022-11-25_18h39.25.421,vts_reward_expectancy_bt,2022.2.4,Win32,59.61251863,Chrome,1368,912,,,,,10,787,,,,,,,,,,,,,,,,,B,139,triangle,1,0,,,,,,,,,,,,,,,,switch,number,numSwt,j,0.5346,Hi,,,,,,0,,,,,,,,high,13,0,13,0,1,,,,,,,,,
293983,2022-11-25_18h39.25.421,vts_reward_expectancy_bt,2022.2.4,Win32,59.61251863,Chrome,1368,912,,,,,1,788,,,,,,,,,,,,,,,,,H,132,star,1,0,,,,,,,,,,,,,,,,repeat,number,numRpt,j,0.5848,Lo,,,,,,0,,,,,,,,high,14,0,14,0,1,,,,,,,,,
293983,2022-11-25_18h39.25.421,vts_reward_expectancy_bt,2022.2.4,Win32,59.61251863,Chrome,1368,912,,,,,0,788,,,,,,,,,,,,,,,,,U,160,hexagon,0,0,,,,,,,,,,,,,,,,repeat,number,NA,j,0.4846,Lo,,,,,,0,,,,,,,,high,15,0,15,0,1,,,,,,,,,
293983,2022-11-25_18h39.25.421,vts_reward_expectancy_bt,2022.2.4,Win32,59.61251863,Chrome,1368,912,,,,,0,788,,,,,,,,,,,,,,,,,Y,146,triangle,1,1,,,,,,,,,,,,,,,,repeat,number,numRpt,j,0.9853,Hi,,,,,,0,,,,,,,,high,16,0,16,0,1,,,,,,,,,
293983,2022-11-25_18h39.25.421,vts_reward_expectancy_bt,2022.2.4,Win32,59.61251863,Chrome,1368,912,,,,,10,798,,,,,,,,,,,,,,,,,U,139,circle,1,0,,,,,,,,,,,,,,,,repeat,number,numRpt,j,0.636,Hi,,,,,,0,,,,,,,,high,17,0,17,0,1,,,,,,,,,
293983,2022-11-25_18h39.25.421,vts_reward_expectancy_bt,2022.2.4,Win32,59.61251863,Chrome,1368,912,,,,,1,799,,,,,,,,,,,,,,,,,D,174,hexagon,1,0,,,,,,,,,,,,,,,,switch,letter,lettSwt,d,0.6343,Lo,,,,,,0,,,,,,,,high,18,0,18,0,1,,,,,,,,,
293983,2022-11-25_18h39.25.421,vts_reward_expectancy_bt,2022.2.4,Win32,59.61251863,Chrome,1368,912,,,,,1,800,,,,,,,,,,,,,,,,,H,125,star,1,0,,,,,,,,,,,,,,,,repeat,letter,lettRpt,d,0.6053,Lo,,,,,,0,,,,,,,,high,19,0,19,0,1,,,,,,,,,
293983,2022-11-25_18h39.25.421,vts_reward_expectancy_bt,2022.2.4,Win32,59.61251863,Chrome,1368,912,,,,,10,810,,,,,,,,,,,,,,,,,W,167,circle,1,0,,,,,,,,,,,,,,,,repeat,letter,lettRpt,f,0.4516,Hi,,,,,,0,,,,,,,,high,20,0,20,0,1,,,,,,,,,
293983,2022-11-25_18h39.25.421,vts_reward_expectancy_bt,2022.2.4,Win32,59.61251863,Chrome,1368,912,,,,,1,811,,,,,,,,,,,,,,,,,F,181,star,1,0,,,,,,,,,,,,,,,,switch,number,numSwt,k,0.6511,Lo,,,,,,0,,,,,,,,high,21,0,21,0,1,,,,,,,,,
293983,2022-11-25_18h39.25.421,vts_reward_expectancy_bt,2022.2.4,Win32,59.61251863,Chrome,1368,912,,,,,10,821,,,,,,,,,,,,,,,,,B,160,hexagon,1,0,,,,,,,,,,,,,,,,switch,letter,lettSwt,d,0.5342,Lo,,,,,,0,,,,,,,,high,22,0,22,0,1,,,,,,,,,
293983,2022-11-25_18h39.25.421,vts_reward_expectancy_bt,2022.2.4,Win32,59.61251863,Chrome,1368,912,,,,,0,821,,,,,,,,,,,,,,,,,S,132,triangle,1,0,,,,,,,,,,,,,,,,repeat,letter,lettRpt,f,0.6674,Hi,,,,,,0,,,,,,,,high,23,0,23,0,1,,,,,,,,,
293983,2022-11-25_18h39.25.421,vts_reward_expectancy_bt,2022.2.4,Win32,59.61251863,Chrome,1368,912,,,,,1,822,,,,,,,,,,,,,,,,,S,125,star,1,0,,,,,,,,,,,,,,,,switch,number,numSwt,j,0.5014,Lo,,,,,,0,,,,,,,,high,24,0,24,0,1,,,,,,,,,
293983,2022-11-25_18h39.25.421,vts_reward_expectancy_bt,2022.2.4,Win32,59.61251863,Chrome,1368,912,,,,,1,823,,,,,,,,,,,,,,,,,F,167,hexagon,1,0,,,,,,,,,,,,,,,,repeat,number,numRpt,k,0.4344,Lo,,,,,,0,,,,,,,,high,25,0,25,0,1,,,,,,,,,
293983,2022-11-25_18h39.25.421,vts_reward_expectancy_bt,2022.2.4,Win32,59.61251863,Chrome,1368,912,,,,,0,823,,,,,,,,,,,,,,,,,U,146,circle,1,0,,,,,,,,,,,,,,,,repeat,number,numRpt,j,0.6515,Hi,,,,,,0,,,,,,,,high,26,0,26,0,1,,,,,,,,,
293983,2022-11-25_18h39.25.421,vts_reward_expectancy_bt,2022.2.4,Win32,59.61251863,Chrome,1368,912,,,,,10,833,,,,,,,,,,,,,,,,,W,174,triangle,1,0,,,,,,,,,,,,,,,,repeat,number,numRpt,k,0.5838,Hi,,,,,,0,,,,,,,,high,27,0,27,0,1,,,,,,,,,
293983,2022-11-25_18h39.25.421,vts_reward_expectancy_bt,2022.2.4,Win32,59.61251863,Chrome,1368,912,,,,,10,843,,,,,,,,,,,,,,,,,H,160,triangle,1,0,,,,,,,,,,,,,,,,switch,letter,lettSwt,d,0.4992,Hi,,,,,,0,,,,,,,,high,28,0,28,0,1,,,,,,,,,
293983,2022-11-25_18h39.25.421,vts_reward_expectancy_bt,2022.2.4,Win32,59.61251863,Chrome,1368,912,,,,,1,844,,,,,,,,,,,,,,,,,B,181,hexagon,1,0,,,,,,,,,,,,,,,,repeat,letter,lettRpt,d,0.4678,Lo,,,,,,0,,,,,,,,high,29,0,29,0,1,,,,,,,,,
293983,2022-11-25_18h39.25.421,vts_reward_expectancy_bt,2022.2.4,Win32,59.61251863,Chrome,1368,912,,,,,10,854,,,,,,,,,,,,,,,,,Y,132,circle,1,0,,,,,,,,,,,,,,,,repeat,letter,lettRpt,f,0.5843,Hi,,,,,,0,,,,,,,,high,30,0,30,0,1,,,,,,,,,
293983,2022-11-25_18h39.25.421,vts_reward_expectancy_bt,2022.2.4,Win32,59.61251863,Chrome,1368,912,,,,,1,855,,,,,,,,,,,,,,,,,D,139,star,1,0,,,,,,,,,,,,,,,,repeat,letter,lettRpt,d,0.4993,Lo,,,,,,0,,,,,,,,high,31,0,31,0,1,,,,,,,,,
293983,2022-11-25_18h39.25.421,vts_reward_expectancy_bt,2022.2.4,Win32,59.61251863,Chrome,1368,912,,,,,10,865,,,,,,,,,,,,,,,,,H,167,triangle,1,0,,,,,,,,,,,,,,,,repeat,letter,lettRpt,d,0.4177,Hi,,,,,,1,,,,,,space,6.5867,high,0,0,0,0,1,,,,,,,,,
293983,2022-11-25_18h39.25.421,vts_reward_expectancy_bt,2022.2.4,Win32,59.61251863,Chrome,1368,912,,,,,10,875,,,,,,,,,,,,,,,,,W,139,circle,1,0,,,,,,,,,,,,,,,,repeat,letter,lettRpt,f,0.4183,Hi,,,,,,1,,,,,,,,high,1,0,1,0,1,,,,,,,,,
293983,2022-11-25_18h39.25.421,vts_reward_expectancy_bt,2022.2.4,Win32,59.61251863,Chrome,1368,912,,,,,1,876,,,,,,,,,,,,,,,,,B,132,hexagon,1,0,,,,,,,,,,,,,,,,repeat,letter,lettRpt,d,0.4676,Lo,,,,,,1,,,,,,,,high,2,0,2,0,1,,,,,,,,,
293983,2022-11-25_18h39.25.421,vts_reward_expectancy_bt,2022.2.4,Win32,59.61251863,Chrome,1368,912,,,,,10,886,,,,,,,,,,,,,,,,,Y,160,star,1,0,,,,,,,,,,,,,,,,repeat,letter,lettRpt,f,0.5678,Lo,,,,,,1,,,,,,,,high,3,0,3,0,1,,,,,,,,,
293983,2022-11-25_18h39.25.421,vts_reward_expectancy_bt,2022.2.4,Win32,59.61251863,Chrome,1368,912,,,,,1,887,,,,,,,,,,,,,,,,,F,181,triangle,1,0,,,,,,,,,,,,,,,,switch,number,numSwt,k,0.5225,Hi,,,,,,1,,,,,,,,high,4,0,4,0,1,,,,,,,,,
293983,2022-11-25_18h39.25.421,vts_reward_expectancy_bt,2022.2.4,Win32,59.61251863,Chrome,1368,912,,,,,0,887,,,,,,,,,,,,,,,,,S,174,circle,1,0,,,,,,,,,,,,,,,,repeat,number,numRpt,k,0.5515,Hi,,,,,,1,,,,,,,,high,5,0,5,0,1,,,,,,,,,
293983,2022-11-25_18h39.25.421,vts_reward_expectancy_bt,2022.2.4,Win32,59.61251863,Chrome,1368,912,,,,,1,888,,,,,,,,,,,,,,,,,U,125,hexagon,1,0,,,,,,,,,,,,,,,,repeat,number,numRpt,j,0.4509,Lo,,,,,,1,,,,,,,,high,6,0,6,0,1,,,,,,,,,
293983,2022-11-25_18h39.25.421,vts_reward_expectancy_bt,2022.2.4,Win32,59.61251863,Chrome,1368,912,,,,,1,889,,,,,,,,,,,,,,,,,D,146,star,1,0,,,,,,,,,,,,,,,,repeat,number,numRpt,j,0.4505,Lo,,,,,,1,,,,,,,,high,7,0,7,0,1,,,,,,,,,
293983,2022-11-25_18h39.25.421,vts_reward_expectancy_bt,2022.2.4,Win32,59.61251863,Chrome,1368,912,,,,,1,890,,,,,,,,,,,,,,,,,H,167,star,1,0,,,,,,,,,,,,,,,,repeat,number,numRpt,k,0.3551,Lo,,,,,,1,,,,,,,,high,8,0,8,0,1,,,,,,,,,
293983,2022-11-25_18h39.25.421,vts_reward_expectancy_bt,2022.2.4,Win32,59.61251863,Chrome,1368,912,,,,,1,891,,,,,,,,,,,,,,,,,W,139,hexagon,1,0,,,,,,,,,,,,,,,,switch,letter,lettSwt,f,0.5014,Lo,,,,,,1,,,,,,,,high,9,0,9,0,1,,,,,,,,,
293983,2022-11-25_18h39.25.421,vts_reward_expectancy_bt,2022.2.4,Win32,59.61251863,Chrome,1368,912,,,,,0,891,,,,,,,,,,,,,,,,,B,132,triangle,1,0,,,,,,,,,,,,,,,,repeat,letter,lettRpt,d,0.5677,Hi,,,,,,1,,,,,,,,high,10,0,10,0,1,,,,,,,,,
293983,2022-11-25_18h39.25.421,vts_reward_expectancy_bt,2022.2.4,Win32,59.61251863,Chrome,1368,912,,,,,10,901,,,,,,,,,,,,,,,,,Y,160,circle,1,0,,,,,,,,,,,,,,,,repeat,letter,lettRpt,f,0.4513,Hi,,,,,,1,,,,,,,,high,11,0,11,0,1,,,,,,,,,
293983,2022-11-25_18h39.25.421,vts_reward_expectancy_bt,2022.2.4,Win32,59.61251863,Chrome,1368,912,,,,,10,911,,,,,,,,,,,,,,,,,F,181,hexagon,1,0,,,,,,,,,,,,,,,,repeat,letter,lettRpt,d,0.453,Lo,,,,,,1,,,,,,,,high,12,0,12,0,1,,,,,,,,,
293983,2022-11-25_18h39.25.421,vts_reward_expectancy_bt,2022.2.4,Win32,59.61251863,Chrome,1368,912,,,,,1,912,,,,,,,,,,,,,,,,,S,174,star,1,0,,,,,,,,,,,,,,,,repeat,letter,lettRpt,f,0.4862,Lo,,,,,,1,,,,,,,,high,13,0,13,0,1,,,,,,,,,
293983,2022-11-25_18h39.25.421,vts_reward_expectancy_bt,2022.2.4,Win32,59.61251863,Chrome,1368,912,,,,,0,912,,,,,,,,,,,,,,,,,U,125,circle,1,0,,,,,,,,,,,,,,,,repeat,letter,lettRpt,f,0.5181,Hi,,,,,,1,,,,,,,,high,14,0,14,0,1,,,,,,,,,
293983,2022-11-25_18h39.25.421,vts_reward_expectancy_bt,2022.2.4,Win32,59.61251863,Chrome,1368,912,,,,,0,912,,,,,,,,,,,,,,,,,D,146,triangle,1,0,,,,,,,,,,,,,,,,switch,number,numSwt,j,0.5843,Hi,,,,,,1,,,,,,,,high,15,0,15,0,1,,,,,,,,,
293983,2022-11-25_18h39.25.421,vts_reward_expectancy_bt,2022.2.4,Win32,59.61251863,Chrome,1368,912,,,,,1,913,,,,,,,,,,,,,,,,,H,181,star,1,0,,,,,,,,,,,,,,,,repeat,number,numRpt,k,0.4133,Lo,,,,,,1,,,,,,,,high,16,0,16,0,1,,,,,,,,,
293983,2022-11-25_18h39.25.421,vts_reward_expectancy_bt,2022.2.4,Win32,59.61251863,Chrome,1368,912,,,,,10,923,,,,,,,,,,,,,,,,,U,132,triangle,1,0,,,,,,,,,,,,,,,,repeat,number,numRpt,j,0.4349,Hi,,,,,,1,,,,,,,,high,17,0,17,0,1,,,,,,,,,
293983,2022-11-25_18h39.25.421,vts_reward_expectancy_bt,2022.2.4,Win32,59.61251863,Chrome,1368,912,,,,,0,923,,,,,,,,,,,,,,,,,B,167,circle,1,0,,,,,,,,,,,,,,,,repeat,number,numRpt,k,0.7183,Hi,,,,,,1,,,,,,,,high,18,0,18,0,1,,,,,,,,,
293983,2022-11-25_18h39.25.421,vts_reward_expectancy_bt,2022.2.4,Win32,59.61251863,Chrome,1368,912,,,,,1,924,,,,,,,,,,,,,,,,,S,125,hexagon,1,0,,,,,,,,,,,,,,,,switch,letter,lettSwt,f,0.4528,Lo,,,,,,1,,,,,,,,high,19,0,19,0,1,,,,,,,,,
293983,2022-11-25_18h39.25.421,vts_reward_expectancy_bt,2022.2.4,Win32,59.61251863,Chrome,1368,912,,,,,10,934,,,,,,,,,,,,,,,,,Y,139,triangle,1,0,,,,,,,,,,,,,,,,repeat,letter,lettRpt,f,0.4039,Hi,,,,,,1,,,,,,,,high,20,0,20,0,1,,,,,,,,,
293983,2022-11-25_18h39.25.421,vts_reward_expectancy_bt,2022.2.4,Win32,59.61251863,Chrome,1368,912,,,,,1,935,,,,,,,,,,,,,,,,,F,160,hexagon,1,0,,,,,,,,,,,,,,,,repeat,letter,lettRpt,d,0.4352,Lo,,,,,,1,,,,,,,,high,21,0,21,0,1,,,,,,,,,
293983,2022-11-25_18h39.25.421,vts_reward_expectancy_bt,2022.2.4,Win32,59.61251863,Chrome,1368,912,,,,,10,945,,,,,,,,,,,,,,,,,W,146,circle,1,0,,,,,,,,,,,,,,,,repeat,letter,lettRpt,f,0.4192,Hi,,,,,,1,,,,,,,,high,22,0,22,0,1,,,,,,,,,
293983,2022-11-25_18h39.25.421,vts_reward_expectancy_bt,2022.2.4,Win32,59.61251863,Chrome,1368,912,,,,,1,946,,,,,,,,,,,,,,,,,D,174,star,1,0,,,,,,,,,,,,,,,,repeat,letter,lettRpt,d,0.5186,Lo,,,,,,1,,,,,,,,high,23,0,23,0,1,,,,,,,,,
293983,2022-11-25_18h39.25.421,vts_reward_expectancy_bt,2022.2.4,Win32,59.61251863,Chrome,1368,912,,,,,1,947,,,,,,,,,,,,,,,,,Y,125,star,1,0,,,,,,,,,,,,,,,,switch,number,numSwt,j,0.4009,Lo,,,,,,1,,,,,,,,high,24,0,24,0,1,,,,,,,,,
293983,2022-11-25_18h39.25.421,vts_reward_expectancy_bt,2022.2.4,Win32,59.61251863,Chrome,1368,912,,,,,10,957,,,,,,,,,,,,,,,,,U,139,triangle,1,0,,,,,,,,,,,,,,,,switch,letter,lettSwt,f,0.4716,Hi,,,,,,1,,,,,,,,high,25,0,25,0,1,,,,,,,,,
293983,2022-11-25_18h39.25.421,vts_reward_expectancy_bt,2022.2.4,Win32,59.61251863,Chrome,1368,912,,,,,1,958,,,,,,,,,,,,,,,,,B,132,hexagon,1,0,,,,,,,,,,,,,,,,repeat,letter,lettRpt,d,0.5184,Lo,,,,,,1,,,,,,,,high,26,0,26,0,1,,,,,,,,,
293983,2022-11-25_18h39.25.421,vts_reward_expectancy_bt,2022.2.4,Win32,59.61251863,Chrome,1368,912,,,,,0,958,,,,,,,,,,,,,,,,,W,167,circle,1,0,,,,,,,,,,,,,,,,switch,number,numSwt,k,0.5331,Hi,,,,,,1,,,,,,,,high,27,0,27,0,1,,,,,,,,,
293983,2022-11-25_18h39.25.421,vts_reward_expectancy_bt,2022.2.4,Win32,59.61251863,Chrome,1368,912,,,,,1,959,,,,,,,,,,,,,,,,,H,146,star,1,0,,,,,,,,,,,,,,,,repeat,number,numRpt,j,0.4667,Lo,,,,,,1,,,,,,,,high,28,0,28,0,1,,,,,,,,,
293983,2022-11-25_18h39.25.421,vts_reward_expectancy_bt,2022.2.4,Win32,59.61251863,Chrome,1368,912,,,,,10,969,,,,,,,,,,,,,,,,,S,160,triangle,1,0,,,,,,,,,,,,,,,,repeat,number,numRpt,k,0.4507,Hi,,,,,,1,,,,,,,,high,29,0,29,0,1,,,,,,,,,
293983,2022-11-25_18h39.25.421,vts_reward_expectancy_bt,2022.2.4,Win32,59.61251863,Chrome,1368,912,,,,,1,970,,,,,,,,,,,,,,,,,D,181,hexagon,1,0,,,,,,,,,,,,,,,,repeat,number,numRpt,k,0.4001,Lo,,,,,,1,,,,,,,,high,30,0,30,0,1,,,,,,,,,
293983,2022-11-25_18h39.25.421,vts_reward_expectancy_bt,2022.2.4,Win32,59.61251863,Chrome,1368,912,,,,,0,970,,,,,,,,,,,,,,,,,F,174,circle,1,0,,,,,,,,,,,,,,,,switch,letter,lettSwt,d,0.4999,Hi,,,,,,1,,,,,,,,high,31,0,31,0,1,,,,,,,,,
293983,2022-11-25_18h39.25.421,vts_reward_expectancy_bt,2022.2.4,Win32,59.61251863,Chrome,1368,912,,,,,0,970,,,,,,,,,,,,,,,,,S,139,hexagon,0,0,,,,,,,,,,,,,,,,repeat,letter,NA,d,0.6496,Hi,,,,,,2,,,,,,space,0.5167,high,0,0,0,0,1,,,,,,,,,
293983,2022-11-25_18h39.25.421,vts_reward_expectancy_bt,2022.2.4,Win32,59.61251863,Chrome,1368,912,,,,,1,971,,,,,,,,,,,,,,,,,U,125,star,1,1,,,,,,,,,,,,,,,,repeat,letter,lettRpt,f,0.6329,Lo,,,,,,2,,,,,,,,high,1,0,1,0,1,,,,,,,,,
293983,2022-11-25_18h39.25.421,vts_reward_expectancy_bt,2022.2.4,Win32,59.61251863,Chrome,1368,912,,,,,0,971,,,,,,,,,,,,,,,,,Y,174,triangle,1,0,,,,,,,,,,,,,,,,repeat,letter,lettRpt,f,0.5168,Hi,,,,,,2,,,,,,,,high,2,0,2,0,1,,,,,,,,,
293983,2022-11-25_18h39.25.421,vts_reward_expectancy_bt,2022.2.4,Win32,59.61251863,Chrome,1368,912,,,,,10,981,,,,,,,,,,,,,,,,,W,181,circle,1,0,,,,,,,,,,,,,,,,repeat,letter,lettRpt,f,0.4339,Hi,,,,,,2,,,,,,,,high,3,0,3,0,1,,,,,,,,,
293983,2022-11-25_18h39.25.421,vts_reward_expectancy_bt,2022.2.4,Win32,59.61251863,Chrome,1368,912,,,,,0,981,,,,,,,,,,,,,,,,,F,167,hexagon,0,0,,,,,,,,,,,,,,,,repeat,letter,NA,f,0.3996,Hi,,,,,,2,,,,,,,,high,4,0,4,0,1,,,,,,,,,
293983,2022-11-25_18h39.25.421,vts_reward_expectancy_bt,2022.2.4,Win32,59.61251863,Chrome,1368,912,,,,,10,991,,,,,,,,,,,,,,,,,H,132,star,1,1,,,,,,,,,,,,,,,,repeat,letter,lettRpt,d,0.3871,Lo,,,,,,2,,,,,,,,high,5,0,5,0,1,,,,,,,,,
293983,2022-11-25_18h39.25.421,vts_reward_expectancy_bt,2022.2.4,Win32,59.61251863,Chrome,1368,912,,,,,10,1001,,,,,,,,,,,,,,,,,B,160,triangle,1,0,,,,,,,,,,,,,,,,switch,number,numSwt,k,0.5166,Hi,,,,,,2,,,,,,,,high,6,0,6,0,1,,,,,,,,,
293983,2022-11-25_18h39.25.421,vts_reward_expectancy_bt,2022.2.4,Win32,59.61251863,Chrome,1368,912,,,,,10,1011,,,,,,,,,,,,,,,,,D,146,circle,1,0,,,,,,,,,,,,,,,,repeat,number,numRpt,j,0.4167,Hi,,,,,,2,,,,,,,,high,7,0,7,0,1,,,,,,,,,
293983,2022-11-25_18h39.25.421,vts_reward_expectancy_bt,2022.2.4,Win32,59.61251863,Chrome,1368,912,,,,,1,1012,,,,,,,,,,,,,,,,,S,139,star,1,0,,,,,,,,,,,,,,,,repeat,number,numRpt,j,0.4504,Lo,,,,,,2,,,,,,,,high,8,0,8,0,1,,,,,,,,,
293983,2022-11-25_18h39.25.421,vts_reward_expectancy_bt,2022.2.4,Win32,59.61251863,Chrome,1368,912,,,,,10,1022,,,,,,,,,,,,,,,,,U,125,circle,1,0,,,,,,,,,,,,,,,,repeat,number,numRpt,j,0.4027,Hi,,,,,,2,,,,,,,,high,9,0,9,0,1,,,,,,,,,
293983,2022-11-25_18h39.25.421,vts_reward_expectancy_bt,2022.2.4,Win32,59.61251863,Chrome,1368,912,,,,,1,1023,,,,,,,,,,,,,,,,,Y,174,hexagon,1,0,,,,,,,,,,,,,,,,repeat,number,numRpt,k,0.3993,Lo,,,,,,2,,,,,,,,high,10,0,10,0,1,,,,,,,,,
293983,2022-11-25_18h39.25.421,vts_reward_expectancy_bt,2022.2.4,Win32,59.61251863,Chrome,1368,912,,,,,0,1023,,,,,,,,,,,,,,,,,W,181,triangle,1,0,,,,,,,,,,,,,,,,switch,letter,lettSwt,f,0.6512,Hi,,,,,,2,,,,,,,,high,11,0,11,0,1,,,,,,,,,
293983,2022-11-25_18h39.25.421,vts_reward_expectancy_bt,2022.2.4,Win32,59.61251863,Chrome,1368,912,,,,,1,1024,,,,,,,,,,,,,,,,,F,167,hexagon,1,0,,,,,,,,,,,,,,,,repeat,letter,lettRpt,d,0.418,Lo,,,,,,2,,,,,,,,high,12,0,12,0,1,,,,,,,,,
293983,2022-11-25_18h39.25.421,vts_reward_expectancy_bt,2022.2.4,Win32,59.61251863,Chrome,1368,912,,,,,10,1034,,,,,,,,,,,,,,,,,H,132,star,1,0,,,,,,,,,,,,,,,,repeat,letter,lettRpt,d,0.4349,Lo,,,,,,2,,,,,,,,high,13,0,13,0,1,,,,,,,,,
293983,2022-11-25_18h39.25.421,vts_reward_expectancy_bt,2022.2.4,Win32,59.61251863,Chrome,1368,912,,,,,1,1035,,,,,,,,,,,,,,,,,B,160,circle,1,0,,,,,,,,,,,,,,,,repeat,letter,lettRpt,d,0.4045,Hi,,,,,,2,,,,,,,,high,14,0,14,0,1,,,,,,,,,
293983,2022-11-25_18h39.25.421,vts_reward_expectancy_bt,2022.2.4,Win32,59.61251863,Chrome,1368,912,,,,,10,1045,,,,,,,,,,,,,,,,,D,146,triangle,1,0,,,,,,,,,,,,,,,,repeat,letter,lettRpt,d,0.4012,Hi,,,,,,2,,,,,,,,high,15,0,15,0,1,,,,,,,,,
293983,2022-11-25_18h39.25.421,vts_reward_expectancy_bt,2022.2.4,Win32,59.61251863,Chrome,1368,912,,,,,1,1046,,,,,,,,,,,,,,,,,D,146,hexagon,1,0,,,,,,,,,,,,,,,,repeat,letter,lettRpt,d,0.4855,Lo,,,,,,2,,,,,,,,high,16,0,16,0,1,,,,,,,,,
293983,2022-11-25_18h39.25.421,vts_reward_expectancy_bt,2022.2.4,Win32,59.61251863,Chrome,1368,912,,,,,0,1046,,,,,,,,,,,,,,,,,U,139,circle,0,0,,,,,,,,,,,,,,,,repeat,letter,NA,d,0.4183,Lo,,,,,,2,,,,,,,,high,17,0,17,0,1,,,,,,,,,
293983,2022-11-25_18h39.25.421,vts_reward_expectancy_bt,2022.2.4,Win32,59.61251863,Chrome,1368,912,,,,,1,1047,,,,,,,,,,,,,,,,,F,125,star,1,1,,,,,,,,,,,,,,,,repeat,letter,lettRpt,d,0.4685,Lo,,,,,,2,,,,,,,,high,18,0,18,0,1,,,,,,,,,
293983,2022-11-25_18h39.25.421,vts_reward_expectancy_bt,2022.2.4,Win32,59.61251863,Chrome,1368,912,,,,,0,1047,,,,,,,,,,,,,,,,,B,167,triangle,1,0,,,,,,,,,,,,,,,,switch,number,numSwt,k,0.6055,Hi,,,,,,2,,,,,,,,high,19,0,19,0,1,,,,,,,,,
293983,2022-11-25_18h39.25.421,vts_reward_expectancy_bt,2022.2.4,Win32,59.61251863,Chrome,1368,912,,,,,1,1048,,,,,,,,,,,,,,,,,S,160,hexagon,1,0,,,,,,,,,,,,,,,,repeat,number,numRpt,k,0.5394,Lo,,,,,,2,,,,,,,,high,20,0,20,0,1,,,,,,,,,
293983,2022-11-25_18h39.25.421,vts_reward_expectancy_bt,2022.2.4,Win32,59.61251863,Chrome,1368,912,,,,,0,1048,,,,,,,,,,,,,,,,,H,174,circle,1,0,,,,,,,,,,,,,,,,repeat,number,numRpt,k,0.5339,Hi,,,,,,2,,,,,,,,high,21,0,21,0,1,,,,,,,,,
293983,2022-11-25_18h39.25.421,vts_reward_expectancy_bt,2022.2.4,Win32,59.61251863,Chrome,1368,912,,,,,0,1048,,,,,,,,,,,,,,,,,W,132,triangle,1,0,,,,,,,,,,,,,,,,repeat,number,numRpt,j,0.4513,Hi,,,,,,2,,,,,,,,high,22,0,22,0,1,,,,,,,,,
293983,2022-11-25_18h39.25.421,vts_reward_expectancy_bt,2022.2.4,Win32,59.61251863,Chrome,1368,912,,,,,0,1048,,,,,,,,,,,,,,,,,Y,181,star,0,0,,,,,,,,,,,,,,,,repeat,number,NA,j,0.5186,Hi,,,,,,2,,,,,,,,high,23,0,23,0,1,,,,,,,,,
293983,2022-11-25_18h39.25.421,vts_reward_expectancy_bt,2022.2.4,Win32,59.61251863,Chrome,1368,912,,,,,0,1048,,,,,,,,,,,,,,,,,F,160,star,0,1,,,,,,,,,,,,,,,,switch,letter,NA,f,0.4181,Hi,,,,,,2,,,,,,,,high,24,0,24,0,1,,,,,,,,,
293983,2022-11-25_18h39.25.421,vts_reward_expectancy_bt,2022.2.4,Win32,59.61251863,Chrome,1368,912,,,,,0,1048,,,,,,,,,,,,,,,,,W,132,circle,1,1,,,,,,,,,,,,,,,,repeat,letter,lettRpt,f,0.5872,Hi,,,,,,2,,,,,,,,high,25,0,25,0,1,,,,,,,,,
293983,2022-11-25_18h39.25.421,vts_reward_expectancy_bt,2022.2.4,Win32,59.61251863,Chrome,1368,912,,,,,10,1058,,,,,,,,,,,,,,,,,Y,125,hexagon,1,0,,,,,,,,,,,,,,,,repeat,letter,lettRpt,f,0.5676,Lo,,,,,,2,,,,,,,,high,26,0,26,0,1,,,,,,,,,
293983,2022-11-25_18h39.25.421,vts_reward_expectancy_bt,2022.2.4,Win32,59.61251863,Chrome,1368,912,,,,,0,1058,,,,,,,,,,,,,,,,,S,167,triangle,1,0,,,,,,,,,,,,,,,,repeat,letter,lettRpt,f,0.5345,Hi,,,,,,2,,,,,,,,high,27,0,27,0,1,,,,,,,,,
293983,2022-11-25_18h39.25.421,vts_reward_expectancy_bt,2022.2.4,Win32,59.61251863,Chrome,1368,912,,,,,1,1059,,,,,,,,,,,,,,,,,H,174,star,1,0,,,,,,,,,,,,,,,,repeat,letter,lettRpt,d,0.6147,Lo,,,,,,2,,,,,,,,high,28,0,28,0,1,,,,,,,,,
293983,2022-11-25_18h39.25.421,vts_reward_expectancy_bt,2022.2.4,Win32,59.61251863,Chrome,1368,912,,,,,0,1059,,,,,,,,,,,,,,,,,U,146,circle,1,0,,,,,,,,,,,,,,,,switch,number,numSwt,j,0.618,Hi,,,,,,2,,,,,,,,high,29,0,29,0,1,,,,,,,,,
293983,2022-11-25_18h39.25.421,vts_reward_expectancy_bt,2022.2.4,Win32,59.61251863,Chrome,1368,912,,,,,10,1069,,,,,,,,,,,,,,,,,D,139,triangle,1,0,,,,,,,,,,,,,,,,repeat,number,numRpt,j,0.4017,Hi,,,,,,2,,,,,,,,high,30,0,30,0,1,,,,,,,,,
293983,2022-11-25_18h39.25.421,vts_reward_expectancy_bt,2022.2.4,Win32,59.61251863,Chrome,1368,912,,,,,1,1070,,,,,,,,,,,,,,,,,B,181,hexagon,1,0,,,,,,,,,,,,,,,,repeat,number,numRpt,k,0.4521,Lo,,,,,,2,,,,,,,,high,31,0,31,0,1,,,,,,,,,
293983,2022-11-25_18h39.25.421,vts_reward_expectancy_bt,2022.2.4,Win32,59.61251863,Chrome,1368,912,,,,,1,1071,,,,,,,,,,,,,,,,,U,160,star,1,0,,,,,,,,,,,,,,,,switch,letter,lettSwt,f,0.6184,Lo,,,,,,3,,,,,,space,0.7341,high,0,0,0,0,1,,,,,,,,,
293983,2022-11-25_18h39.25.421,vts_reward_expectancy_bt,2022.2.4,Win32,59.61251863,Chrome,1368,912,,,,,0,1071,,,,,,,,,,,,,,,,,F,132,triangle,1,0,,,,,,,,,,,,,,,,repeat,letter,lettRpt,d,0.5514,Hi,,,,,,3,,,,,,,,high,1,0,1,0,1,,,,,,,,,
293983,2022-11-25_18h39.25.421,vts_reward_expectancy_bt,2022.2.4,Win32,59.61251863,Chrome,1368,912,,,,,1,1072,,,,,,,,,,,,,,,,,D,146,hexagon,1,0,,,,,,,,,,,,,,,,repeat,letter,lettRpt,d,0.3845,Lo,,,,,,3,,,,,,,,high,2,0,2,0,1,,,,,,,,,
293983,2022-11-25_18h39.25.421,vts_reward_expectancy_bt,2022.2.4,Win32,59.61251863,Chrome,1368,912,,,,,0,1072,,,,,,,,,,,,,,,,,B,139,circle,1,0,,,,,,,,,,,,,,,,repeat,letter,lettRpt,d,0.4512,Hi,,,,,,3,,,,,,,,high,3,0,3,0,1,,,,,,,,,
293983,2022-11-25_18h39.25.421,vts_reward_expectancy_bt,2022.2.4,Win32,59.61251863,Chrome,1368,912,,,,,1,1073,,,,,,,,,,,,,,,,,W,174,star,1,0,,,,,,,,,,,,,,,,repeat,letter,lettRpt,f,0.4032,Lo,,,,,,3,,,,,,,,high,4,0,4,0,1,,,,,,,,,
293983,2022-11-25_18h39.25.421,vts_reward_expectancy_bt,2022.2.4,Win32,59.61251863,Chrome,1368,912,,,,,0,1073,,,,,,,,,,,,,,,,,H,181,triangle,1,0,,,,,,,,,,,,,,,,repeat,letter,lettRpt,d,0.4684,Hi,,,,,,3,,,,,,,,high,5,0,5,0,1,,,,,,,,,
293983,2022-11-25_18h39.25.421,vts_reward_expectancy_bt,2022.2.4,Win32,59.61251863,Chrome,1368,912,,,,,1,1074,,,,,,,,,,,,,,,,,S,167,hexagon,1,0,,,,,,,,,,,,,,,,repeat,letter,lettRpt,f,0.5188,Lo,,,,,,3,,,,,,,,high,6,0,6,0,1,,,,,,,,,
293983,2022-11-25_18h39.25.421,vts_reward_expectancy_bt,2022.2.4,Win32,59.61251863,Chrome,1368,912,,,,,10,1084,,,,,,,,,,,,,,,,,Y,125,circle,1,0,,,,,,,,,,,,,,,,repeat,letter,lettRpt,f,0.4207,Hi,,,,,,3,,,,,,,,high,7,0,7,0,1,,,,,,,,,
293983,2022-11-25_18h39.25.421,vts_reward_expectancy_bt,2022.2.4,Win32,59.61251863,Chrome,1368,912,,,,,1,1085,,,,,,,,,,,,,,,,,U,160,star,1,0,,,,,,,,,,,,,,,,repeat,letter,lettRpt,f,0.5354,Lo,,,,,,3,,,,,,,,high,8,0,8,0,1,,,,,,,,,
293983,2022-11-25_18h39.25.421,vts_reward_expectancy_bt,2022.2.4,Win32,59.61251863,Chrome,1368,912,,,,,10,1095,,,,,,,,,,,,,,,,,F,132,circle,1,0,,,,,,,,,,,,,,,,switch,number,numSwt,j,0.4684,Hi,,,,,,3,,,,,,,,high,9,0,9,0,1,,,,,,,,,
293983,2022-11-25_18h39.25.421,vts_reward_expectancy_bt,2022.2.4,Win32,59.61251863,Chrome,1368,912,,,,,0,1095,,,,,,,,,,,,,,,,,D,146,triangle,1,0,,,,,,,,,,,,,,,,repeat,number,numRpt,j,0.5344,Hi,,,,,,3,,,,,,,,high,10,0,10,0,1,,,,,,,,,
293983,2022-11-25_18h39.25.421,vts_reward_expectancy_bt,2022.2.4,Win32,59.61251863,Chrome,1368,912,,,,,10,1105,,,,,,,,,,,,,,,,,B,139,hexagon,1,0,,,,,,,,,,,,,,,,repeat,number,numRpt,j,0.486,Lo,,,,,,3,,,,,,,,high,11,0,11,0,1,,,,,,,,,
293983,2022-11-25_18h39.25.421,vts_reward_expectancy_bt,2022.2.4,Win32,59.61251863,Chrome,1368,912,,,,,10,1115,,,,,,,,,,,,,,,,,W,174,triangle,1,0,,,,,,,,,,,,,,,,repeat,number,numRpt,k,0.3849,Hi,,,,,,3,,,,,,,,high,12,0,12,0,1,,,,,,,,,
293983,2022-11-25_18h39.25.421,vts_reward_expectancy_bt,2022.2.4,Win32,59.61251863,Chrome,1368,912,,,,,1,1116,,,,,,,,,,,,,,,,,H,181,star,1,0,,,,,,,,,,,,,,,,repeat,number,numRpt,k,0.3367,Lo,,,,,,3,,,,,,,,high,13,0,13,0,1,,,,,,,,,
293983,2022-11-25_18h39.25.421,vts_reward_expectancy_bt,2022.2.4,Win32,59.61251863,Chrome,1368,912,,,,,1,1117,,,,,,,,,,,,,,,,,S,167,hexagon,1,0,,,,,,,,,,,,,,,,repeat,number,numRpt,k,0.4016,Lo,,,,,,3,,,,,,,,high,14,0,14,0,1,,,,,,,,,
293983,2022-11-25_18h39.25.421,vts_reward_expectancy_bt,2022.2.4,Win32,59.61251863,Chrome,1368,912,,,,,10,1127,,,,,,,,,,,,,,,,,Y,125,circle,1,0,,,,,,,,,,,,,,,,repeat,number,numRpt,j,0.3851,Hi,,,,,,3,,,,,,,,high,15,0,15,0,1,,,,,,,,,
293983,2022-11-25_18h39.25.421,vts_reward_expectancy_bt,2022.2.4,Win32,59.61251863,Chrome,1368,912,,,,,10,1137,,,,,,,,,,,,,,,,,H,167,hexagon,1,0,,,,,,,,,,,,,,,,repeat,number,numRpt,k,0.4705,Lo,,,,,,3,,,,,,,,high,16,0,16,0,1,,,,,,,,,
293983,2022-11-25_18h39.25.421,vts_reward_expectancy_bt,2022.2.4,Win32,59.61251863,Chrome,1368,912,,,,,1,1138,,,,,,,,,,,,,,,,,Y,146,star,1,0,,,,,,,,,,,,,,,,repeat,number,numRpt,j,0.3382,Lo,,,,,,3,,,,,,,,high,17,0,17,0,1,,,,,,,,,
293983,2022-11-25_18h39.25.421,vts_reward_expectancy_bt,2022.2.4,Win32,59.61251863,Chrome,1368,912,,,,,0,1138,,,,,,,,,,,,,,,,,B,139,triangle,1,0,,,,,,,,,,,,,,,,repeat,number,numRpt,j,0.4848,Hi,,,,,,3,,,,,,,,high,18,0,18,0,1,,,,,,,,,
293983,2022-11-25_18h39.25.421,vts_reward_expectancy_bt,2022.2.4,Win32,59.61251863,Chrome,1368,912,,,,,10,1148,,,,,,,,,,,,,,,,,W,181,circle,1,0,,,,,,,,,,,,,,,,switch,letter,lettSwt,f,0.4516,Hi,,,,,,3,,,,,,,,high,19,0,19,0,1,,,,,,,,,
293983,2022-11-25_18h39.25.421,vts_reward_expectancy_bt,2022.2.4,Win32,59.61251863,Chrome,1368,912,,,,,1,1149,,,,,,,,,,,,,,,,,U,174,hexagon,1,0,,,,,,,,,,,,,,,,repeat,letter,lettRpt,f,0.6184,Lo,,,,,,3,,,,,,,,high,20,0,20,0,1,,,,,,,,,
293983,2022-11-25_18h39.25.421,vts_reward_expectancy_bt,2022.2.4,Win32,59.61251863,Chrome,1368,912,,,,,10,1159,,,,,,,,,,,,,,,,,D,160,circle,1,0,,,,,,,,,,,,,,,,repeat,letter,lettRpt,d,0.4214,Hi,,,,,,3,,,,,,,,high,21,0,21,0,1,,,,,,,,,
293983,2022-11-25_18h39.25.421,vts_reward_expectancy_bt,2022.2.4,Win32,59.61251863,Chrome,1368,912,,,,,10,1169,,,,,,,,,,,,,,,,,F,125,star,1,0,,,,,,,,,,,,,,,,repeat,letter,lettRpt,d,0.6521,Lo,,,,,,3,,,,,,,,high,22,0,22,0,1,,,,,,,,,
293983,2022-11-25_18h39.25.421,vts_reward_expectancy_bt,2022.2.4,Win32,59.61251863,Chrome,1368,912,,,,,0,1169,,,,,,,,,,,,,,,,,S,132,triangle,1,0,,,,,,,,,,,,,,,,repeat,letter,lettRpt,f,0.5514,Hi,,,,,,3,,,,,,,,high,23,0,23,0,1,,,,,,,,,
293983,2022-11-25_18h39.25.421,vts_reward_expectancy_bt,2022.2.4,Win32,59.61251863,Chrome,1368,912,,,,,0,1169,,,,,,,,,,,,,,,,,B,146,circle,1,0,,,,,,,,,,,,,,,,repeat,letter,lettRpt,d,0.4518,Hi,,,,,,3,,,,,,,,high,24,0,24,0,1,,,,,,,,,
293983,2022-11-25_18h39.25.421,vts_reward_expectancy_bt,2022.2.4,Win32,59.61251863,Chrome,1368,912,,,,,0,1169,,,,,,,,,,,,,,,,,Y,167,triangle,1,0,,,,,,,,,,,,,,,,repeat,letter,lettRpt,f,0.5061,Hi,,,,,,3,,,,,,,,high,25,0,25,0,1,,,,,,,,,
293983,2022-11-25_18h39.25.421,vts_reward_expectancy_bt,2022.2.4,Win32,59.61251863,Chrome,1368,912,,,,,1,1170,,,,,,,,,,,,,,,,,H,160,hexagon,1,0,,,,,,,,,,,,,,,,repeat,letter,lettRpt,d,0.5355,Lo,,,,,,3,,,,,,,,high,26,0,26,0,1,,,,,,,,,
293983,2022-11-25_18h39.25.421,vts_reward_expectancy_bt,2022.2.4,Win32,59.61251863,Chrome,1368,912,,,,,1,1171,,,,,,,,,,,,,,,,,F,181,star,1,0,,,,,,,,,,,,,,,,repeat,letter,lettRpt,d,0.4854,Lo,,,,,,3,,,,,,,,high,27,0,27,0,1,,,,,,,,,
293983,2022-11-25_18h39.25.421,vts_reward_expectancy_bt,2022.2.4,Win32,59.61251863,Chrome,1368,912,,,,,1,1172,,,,,,,,,,,,,,,,,S,125,star,1,0,,,,,,,,,,,,,,,,switch,number,numSwt,j,0.5351,Lo,,,,,,3,,,,,,,,high,28,0,28,0,1,,,,,,,,,
293983,2022-11-25_18h39.25.421,vts_reward_expectancy_bt,2022.2.4,Win32,59.61251863,Chrome,1368,912,,,,,10,1182,,,,,,,,,,,,,,,,,D,132,hexagon,1,0,,,,,,,,,,,,,,,,repeat,number,numRpt,j,0.4208,Lo,,,,,,3,,,,,,,,high,29,0,29,0,1,,,,,,,,,
293983,2022-11-25_18h39.25.421,vts_reward_expectancy_bt,2022.2.4,Win32,59.61251863,Chrome,1368,912,,,,,0,1182,,,,,,,,,,,,,,,,,U,174,triangle,0,0,,,,,,,,,,,,,,,,repeat,number,NA,j,0.4675,Lo,,,,,,3,,,,,,,,high,30,0,30,0,1,,,,,,,,,
293983,2022-11-25_18h39.25.421,vts_reward_expectancy_bt,2022.2.4,Win32,59.61251863,Chrome,1368,912,,,,,0,1182,,,,,,,,,,,,,,,,,W,139,circle,1,1,,,,,,,,,,,,,,,,repeat,number,numRpt,j,0.5999,Hi,,,,,,3,,,,,,,,high,31,0,31,0,1,,,,,,,,,
293983,2022-11-25_18h39.25.421,vts_reward_expectancy_bt,2022.2.4,Win32,59.61251863,Chrome,1368,912,,,,,10,1192,,,,,,,,,,,,,,,,,B,125,hexagon,1,0,,,,,,,,,,,,,,,,switch,letter,lettSwt,d,0.3859,Lo,,,,,,4,,,,,,space,1.5853,high,0,0,0,0,1,,,,,,,,,
293983,2022-11-25_18h39.25.421,vts_reward_expectancy_bt,2022.2.4,Win32,59.61251863,Chrome,1368,912,,,,,0,1192,,,,,,,,,,,,,,,,,D,132,circle,1,0,,,,,,,,,,,,,,,,repeat,letter,lettRpt,d,0.452,Hi,,,,,,4,,,,,,,,high,1,0,1,0,1,,,,,,,,,
293983,2022-11-25_18h39.25.421,vts_reward_expectancy_bt,2022.2.4,Win32,59.61251863,Chrome,1368,912,,,,,10,1202,,,,,,,,,,,,,,,,,Y,160,triangle,1,0,,,,,,,,,,,,,,,,repeat,letter,lettRpt,f,0.3683,Hi,,,,,,4,,,,,,,,high,2,0,2,0,1,,,,,,,,,
293983,2022-11-25_18h39.25.421,vts_reward_expectancy_bt,2022.2.4,Win32,59.61251863,Chrome,1368,912,,,,,0,1202,,,,,,,,,,,,,,,,,U,174,star,0,0,,,,,,,,,,,,,,,,repeat,letter,NA,d,0.4853,Hi,,,,,,4,,,,,,,,high,3,0,3,0,1,,,,,,,,,
293983,2022-11-25_18h39.25.421,vts_reward_expectancy_bt,2022.2.4,Win32,59.61251863,Chrome,1368,912,,,,,1,1203,,,,,,,,,,,,,,,,,W,146,hexagon,1,1,,,,,,,,,,,,,,,,repeat,letter,lettRpt,f,0.3847,Lo,,,,,,4,,,,,,,,high,4,0,4,0,1,,,,,,,,,
293983,2022-11-25_18h39.25.421,vts_reward_expectancy_bt,2022.2.4,Win32,59.61251863,Chrome,1368,912,,,,,0,1203,,,,,,,,,,,,,,,,,S,139,circle,0,0,,,,,,,,,,,,,,,,repeat,letter,NA,d,0.4016,Lo,,,,,,4,,,,,,,,high,5,0,5,0,1,,,,,,,,,
293983,2022-11-25_18h39.25.421,vts_reward_expectancy_bt,2022.2.4,Win32,59.61251863,Chrome,1368,912,,,,,0,1203,,,,,,,,,,,,,,,,,H,167,triangle,1,1,,,,,,,,,,,,,,,,repeat,letter,lettRpt,d,0.5821,Hi,,,,,,4,,,,,,,,high,6,0,6,0,1,,,,,,,,,
293983,2022-11-25_18h39.25.421,vts_reward_expectancy_bt,2022.2.4,Win32,59.61251863,Chrome,1368,912,,,,,1,1204,,,,,,,,,,,,,,,,,F,181,star,1,0,,,,,,,,,,,,,,,,repeat,letter,lettRpt,d,0.5303,Lo,,,,,,4,,,,,,,,high,7,0,7,0,1,,,,,,,,,
293983,2022-11-25_18h39.25.421,vts_reward_expectancy_bt,2022.2.4,Win32,59.61251863,Chrome,1368,912,,,,,1,1205,,,,,,,,,,,,,,,,,B,125,star,1,0,,,,,,,,,,,,,,,,switch,number,numSwt,j,0.4203,Lo,,,,,,4,,,,,,,,high,8,0,8,0,1,,,,,,,,,
293983,2022-11-25_18h39.25.421,vts_reward_expectancy_bt,2022.2.4,Win32,59.61251863,Chrome,1368,912,,,,,0,1205,,,,,,,,,,,,,,,,,D,132,circle,1,0,,,,,,,,,,,,,,,,repeat,number,numRpt,j,0.4498,Hi,,,,,,4,,,,,,,,high,9,0,9,0,1,,,,,,,,,
293983,2022-11-25_18h39.25.421,vts_reward_expectancy_bt,2022.2.4,Win32,59.61251863,Chrome,1368,912,,,,,0,1205,,,,,,,,,,,,,,,,,Y,160,triangle,0,0,,,,,,,,,,,,,,,,repeat,number,NA,j,0.4248,Hi,,,,,,4,,,,,,,,high,10,0,10,0,1,,,,,,,,,
293983,2022-11-25_18h39.25.421,vts_reward_expectancy_bt,2022.2.4,Win32,59.61251863,Chrome,1368,912,,,,,1,1206,,,,,,,,,,,,,,,,,U,174,hexagon,1,1,,,,,,,,,,,,,,,,repeat,number,numRpt,k,0.6371,Lo,,,,,,4,,,,,,,,high,11,0,11,0,1,,,,,,,,,
293983,2022-11-25_18h39.25.421,vts_reward_expectancy_bt,2022.2.4,Win32,59.61251863,Chrome,1368,912,,,,,1,1207,,,,,,,,,,,,,,,,,W,146,star,1,0,,,,,,,,,,,,,,,,repeat,number,numRpt,j,0.5027,Lo,,,,,,4,,,,,,,,high,12,0,12,0,1,,,,,,,,,
293983,2022-11-25_18h39.25.421,vts_reward_expectancy_bt,2022.2.4,Win32,59.61251863,Chrome,1368,912,,,,,0,1207,,,,,,,,,,,,,,,,,S,139,triangle,0,0,,,,,,,,,,,,,,,,repeat,number,NA,k,0.352,Lo,,,,,,4,,,,,,,,high,13,0,13,0,1,,,,,,,,,
293983,2022-11-25_18h39.25.421,vts_reward_expectancy_bt,2022.2.4,Win32,59.61251863,Chrome,1368,912,,,,,0,1207,,,,,,,,,,,,,,,,,H,167,circle,1,1,,,,,,,,,,,,,,,,repeat,number,numRpt,k,0.6165,Hi,,,,,,4,,,,,,,,high,14,0,14,0,1,,,,,,,,,
293983,2022-11-25_18h39.25.421,vts_reward_expectancy_bt,2022.2.4,Win32,59.61251863,Chrome,1368,912,,,,,10,1217,,,,,,,,,,,,,,,,,F,181,hexagon,1,0,,,,,,,,,,,,,,,,repeat,number,numRpt,k,0.5046,Lo,,,,,,4,,,,,,,,high,15,0,15,0,1,,,,,,,,,
293983,2022-11-25_18h39.25.421,vts_reward_expectancy_bt,2022.2.4,Win32,59.61251863,Chrome,1368,912,,,,,0,1217,,,,,,,,,,,,,,,,,H,160,triangle,1,0,,,,,,,,,,,,,,,,repeat,number,numRpt,k,0.4382,Hi,,,,,,4,,,,,,,,high,16,0,16,0,1,,,,,,,,,
293983,2022-11-25_18h39.25.421,vts_reward_expectancy_bt,2022.2.4,Win32,59.61251863,Chrome,1368,912,,,,,0,1217,,,,,,,,,,,,,,,,,W,139,circle,1,0,,,,,,,,,,,,,,,,repeat,number,numRpt,j,0.4186,Hi,,,,,,4,,,,,,,,high,17,0,17,0,1,,,,,,,,,
293983,2022-11-25_18h39.25.421,vts_reward_expectancy_bt,2022.2.4,Win32,59.61251863,Chrome,1368,912,,,,,1,1218,,,,,,,,,,,,,,,,,Y,146,star,1,0,,,,,,,,,,,,,,,,switch,letter,lettSwt,f,0.5181,Lo,,,,,,4,,,,,,,,high,18,0,18,0,1,,,,,,,,,
293983,2022-11-25_18h39.25.421,vts_reward_expectancy_bt,2022.2.4,Win32,59.61251863,Chrome,1368,912,,,,,1,1219,,,,,,,,,,,,,,,,,B,125,hexagon,1,0,,,,,,,,,,,,,,,,repeat,letter,lettRpt,d,0.4685,Lo,,,,,,4,,,,,,,,high,19,0,19,0,1,,,,,,,,,
293983,2022-11-25_18h39.25.421,vts_reward_expectancy_bt,2022.2.4,Win32,59.61251863,Chrome,1368,912,,,,,0,1219,,,,,,,,,,,,,,,,,D,132,triangle,1,0,,,,,,,,,,,,,,,,repeat,letter,lettRpt,d,0.4842,Hi,,,,,,4,,,,,,,,high,20,0,20,0,1,,,,,,,,,
293983,2022-11-25_18h39.25.421,vts_reward_expectancy_bt,2022.2.4,Win32,59.61251863,Chrome,1368,912,,,,,0,1219,,,,,,,,,,,,,,,,,U,174,circle,1,0,,,,,,,,,,,,,,,,repeat,letter,lettRpt,f,0.5987,Hi,,,,,,4,,,,,,,,high,21,0,21,0,1,,,,,,,,,
293983,2022-11-25_18h39.25.421,vts_reward_expectancy_bt,2022.2.4,Win32,59.61251863,Chrome,1368,912,,,,,1,1220,,,,,,,,,,,,,,,,,S,167,hexagon,1,0,,,,,,,,,,,,,,,,repeat,letter,lettRpt,f,0.4343,Lo,,,,,,4,,,,,,,,high,22,0,22,0,1,,,,,,,,,
293983,2022-11-25_18h39.25.421,vts_reward_expectancy_bt,2022.2.4,Win32,59.61251863,Chrome,1368,912,,,,,1,1221,,,,,,,,,,,,,,,,,F,181,star,1,0,,,,,,,,,,,,,,,,repeat,letter,lettRpt,d,0.4843,Lo,,,,,,4,,,,,,,,high,23,0,23,0,1,,,,,,,,,
293983,2022-11-25_18h39.25.421,vts_reward_expectancy_bt,2022.2.4,Win32,59.61251863,Chrome,1368,912,,,,,10,1231,,,,,,,,,,,,,,,,,U,146,circle,1,0,,,,,,,,,,,,,,,,repeat,letter,lettRpt,f,0.4177,Hi,,,,,,4,,,,,,,,high,24,0,24,0,1,,,,,,,,,
293983,2022-11-25_18h39.25.421,vts_reward_expectancy_bt,2022.2.4,Win32,59.61251863,Chrome,1368,912,,,,,0,1231,,,,,,,,,,,,,,,,,H,139,triangle,1,0,,,,,,,,,,,,,,,,repeat,letter,lettRpt,d,0.6018,Hi,,,,,,4,,,,,,,,high,25,0,25,0,1,,,,,,,,,
293983,2022-11-25_18h39.25.421,vts_reward_expectancy_bt,2022.2.4,Win32,59.61251863,Chrome,1368,912,,,,,0,1231,,,,,,,,,,,,,,,,,W,132,hexagon,0,0,,,,,,,,,,,,,,,,repeat,letter,NA,d,0.5018,Hi,,,,,,4,,,,,,,,high,26,0,26,0,1,,,,,,,,,
293983,2022-11-25_18h39.25.421,vts_reward_expectancy_bt,2022.2.4,Win32,59.61251863,Chrome,1368,912,,,,,1,1232,,,,,,,,,,,,,,,,,F,167,star,1,1,,,,,,,,,,,,,,,,switch,number,numSwt,k,0.4851,Lo,,,,,,4,,,,,,,,high,27,0,27,0,1,,,,,,,,,
293983,2022-11-25_18h39.25.421,vts_reward_expectancy_bt,2022.2.4,Win32,59.61251863,Chrome,1368,912,,,,,0,1232,,,,,,,,,,,,,,,,,Y,160,triangle,1,0,,,,,,,,,,,,,,,,repeat,number,numRpt,k,0.5006,Hi,,,,,,4,,,,,,,,high,28,0,28,0,1,,,,,,,,,
293983,2022-11-25_18h39.25.421,vts_reward_expectancy_bt,2022.2.4,Win32,59.61251863,Chrome,1368,912,,,,,1,1233,,,,,,,,,,,,,,,,,B,174,hexagon,1,0,,,,,,,,,,,,,,,,repeat,number,numRpt,k,0.5516,Lo,,,,,,4,,,,,,,,high,29,0,29,0,1,,,,,,,,,
293983,2022-11-25_18h39.25.421,vts_reward_expectancy_bt,2022.2.4,Win32,59.61251863,Chrome,1368,912,,,,,0,1233,,,,,,,,,,,,,,,,,D,181,circle,1,0,,,,,,,,,,,,,,,,repeat,number,numRpt,k,0.435,Hi,,,,,,4,,,,,,,,high,30,0,30,0,1,,,,,,,,,
293983,2022-11-25_18h39.25.421,vts_reward_expectancy_bt,2022.2.4,Win32,59.61251863,Chrome,1368,912,,,,,1,1234,,,,,,,,,,,,,,,,,S,125,star,1,0,,,,,,,,,,,,,,,,repeat,number,numRpt,j,0.3688,Lo,,,,,,4,,,,,,,,high,31,0,31,0,1,,,,,,,,,
293983,2022-11-25_18h39.25.421,vts_reward_expectancy_bt,2022.2.4,Win32,59.61251863,Chrome,1368,912,,,,,0,1234,,,,,,,,,,,,,,,,,W,160,circle,1,0,,,,,,,,,,,,,,,,switch,letter,lettSwt,f,0.438,Hi,,,,,,5,,,,,,space,0.9744,high,0,0,0,0,1,,,,,,,,,
293983,2022-11-25_18h39.25.421,vts_reward_expectancy_bt,2022.2.4,Win32,59.61251863,Chrome,1368,912,,,,,10,1244,,,,,,,,,,,,,,,,,B,167,hexagon,1,0,,,,,,,,,,,,,,,,repeat,letter,lettRpt,d,0.4391,Lo,,,,,,5,,,,,,,,high,1,0,1,0,1,,,,,,,,,
293983,2022-11-25_18h39.25.421,vts_reward_expectancy_bt,2022.2.4,Win32,59.61251863,Chrome,1368,912,,,,,0,1244,,,,,,,,,,,,,,,,,F,174,triangle,1,0,,,,,,,,,,,,,,,,repeat,letter,lettRpt,d,0.5236,Hi,,,,,,5,,,,,,,,high,2,0,2,0,1,,,,,,,,,
293983,2022-11-25_18h39.25.421,vts_reward_expectancy_bt,2022.2.4,Win32,59.61251863,Chrome,1368,912,,,,,1,1245,,,,,,,,,,,,,,,,,Y,146,star,1,0,,,,,,,,,,,,,,,,repeat,letter,lettRpt,f,0.4178,Lo,,,,,,5,,,,,,,,high,3,0,3,0,1,,,,,,,,,
293983,2022-11-25_18h39.25.421,vts_reward_expectancy_bt,2022.2.4,Win32,59.61251863,Chrome,1368,912,,,,,0,1245,,,,,,,,,,,,,,,,,U,139,circle,0,0,,,,,,,,,,,,,,,,repeat,letter,NA,d,0.4346,Lo,,,,,,5,,,,,,,,high,4,0,4,0,1,,,,,,,,,
293983,2022-11-25_18h39.25.421,vts_reward_expectancy_bt,2022.2.4,Win32,59.61251863,Chrome,1368,912,,,,,1,1246,,,,,,,,,,,,,,,,,S,181,hexagon,1,1,,,,,,,,,,,,,,,,repeat,letter,lettRpt,f,0.452,Lo,,,,,,5,,,,,,,,high,5,0,5,0,1,,,,,,,,,
293983,2022-11-25_18h39.25.421,vts_reward_expectancy_bt,2022.2.4,Win32,59.61251863,Chrome,1368,912,,,,,10,1256,,,,,,,,,,,,,,,,,H,132,triangle,1,0,,,,,,,,,,,,,,,,repeat,letter,lettRpt,d,0.4347,Hi,,,,,,5,,,,,,,,high,6,0,6,0,1,,,,,,,,,
293983,2022-11-25_18h39.25.421,vts_reward_expectancy_bt,2022.2.4,Win32,59.61251863,Chrome,1368,912,,,,,1,1257,,,,,,,,,,,,,,,,,D,125,star,1,0,,,,,,,,,,,,,,,,repeat,letter,lettRpt,d,0.4363,Lo,,,,,,5,,,,,,,,high,7,0,7,0,1,,,,,,,,,
293983,2022-11-25_18h39.25.421,vts_reward_expectancy_bt,2022.2.4,Win32,59.61251863,Chrome,1368,912,,,,,1,1258,,,,,,,,,,,,,,,,,W,160,hexagon,1,0,,,,,,,,,,,,,,,,repeat,letter,lettRpt,f,0.4663,Lo,,,,,,5,,,,,,,,high,8,0,8,0,1,,,,,,,,,
293983,2022-11-25_18h39.25.421,vts_reward_expectancy_bt,2022.2.4,Win32,59.61251863,Chrome,1368,912,,,,,0,1258,,,,,,,,,,,,,,,,,B,167,circle,1,0,,,,,,,,,,,,,,,,repeat,letter,lettRpt,d,0.6218,Hi,,,,,,5,,,,,,,,high,9,0,9,0,1,,,,,,,,,
293983,2022-11-25_18h39.25.421,vts_reward_expectancy_bt,2022.2.4,Win32,59.61251863,Chrome,1368,912,,,,,0,1258,,,,,,,,,,,,,,,,,F,174,triangle,1,0,,,,,,,,,,,,,,,,repeat,letter,lettRpt,d,0.5306,Hi,,,,,,5,,,,,,,,high,10,0,10,0,1,,,,,,,,,
293983,2022-11-25_18h39.25.421,vts_reward_expectancy_bt,2022.2.4,Win32,59.61251863,Chrome,1368,912,,,,,1,1259,,,,,,,,,,,,,,,,,Y,146,star,1,0,,,,,,,,,,,,,,,,repeat,letter,lettRpt,f,0.4857,Lo,,,,,,5,,,,,,,,high,11,0,11,0,1,,,,,,,,,
293983,2022-11-25_18h39.25.421,vts_reward_expectancy_bt,2022.2.4,Win32,59.61251863,Chrome,1368,912,,,,,10,1269,,,,,,,,,,,,,,,,,U,139,star,1,0,,,,,,,,,,,,,,,,switch,number,numSwt,j,0.4205,Lo,,,,,,5,,,,,,,,high,12,0,12,0,1,,,,,,,,,
293983,2022-11-25_18h39.25.421,vts_reward_expectancy_bt,2022.2.4,Win32,59.61251863,Chrome,1368,912,,,,,1,1270,,,,,,,,,,,,,,,,,S,181,hexagon,1,0,,,,,,,,,,,,,,,,repeat,number,numRpt,k,0.4352,Lo,,,,,,5,,,,,,,,high,13,0,13,0,1,,,,,,,,,
293983,2022-11-25_18h39.25.421,vts_reward_expectancy_bt,2022.2.4,Win32,59.61251863,Chrome,1368,912,,,,,0,1270,,,,,,,,,,,,,,,,,H,132,triangle,1,0,,,,,,,,,,,,,,,,repeat,number,numRpt,j,0.5364,Hi,,,,,,5,,,,,,,,high,14,0,14,0,1,,,,,,,,,
293983,2022-11-25_18h39.25.421,vts_reward_expectancy_bt,2022.2.4,Win32,59.61251863,Chrome,1368,912,,,,,10,1280,,,,,,,,,,,,,,,,,D,125,circle,1,0,,,,,,,,,,,,,,,,repeat,number,numRpt,j,0.402,Hi,,,,,,5,,,,,,,,high,15,0,15,0,1,,,,,,,,,
293983,2022-11-25_18h39.25.421,vts_reward_expectancy_bt,2022.2.4,Win32,59.61251863,Chrome,1368,912,,,,,1,1281,,,,,,,,,,,,,,,,,W,132,hexagon,1,0,,,,,,,,,,,,,,,,repeat,number,numRpt,j,0.5349,Lo,,,,,,5,,,,,,,,high,16,0,16,0,1,,,,,,,,,
293983,2022-11-25_18h39.25.421,vts_reward_expectancy_bt,2022.2.4,Win32,59.61251863,Chrome,1368,912,,,,,10,1291,,,,,,,,,,,,,,,,,S,139,triangle,1,0,,,,,,,,,,,,,,,,repeat,number,numRpt,j,0.3855,Hi,,,,,,5,,,,,,,,high,17,0,17,0,1,,,,,,,,,
293983,2022-11-25_18h39.25.421,vts_reward_expectancy_bt,2022.2.4,Win32,59.61251863,Chrome,1368,912,,,,,0,1291,,,,,,,,,,,,,,,,,B,146,circle,1,0,,,,,,,,,,,,,,,,repeat,number,numRpt,j,0.452,Hi,,,,,,5,,,,,,,,high,18,0,18,0,1,,,,,,,,,
293983,2022-11-25_18h39.25.421,vts_reward_expectancy_bt,2022.2.4,Win32,59.61251863,Chrome,1368,912,,,,,10,1301,,,,,,,,,,,,,,,,,U,125,star,1,0,,,,,,,,,,,,,,,,repeat,number,numRpt,j,0.5849,Lo,,,,,,5,,,,,,,,high,19,0,19,0,1,,,,,,,,,
293983,2022-11-25_18h39.25.421,vts_reward_expectancy_bt,2022.2.4,Win32,59.61251863,Chrome,1368,912,,,,,1,1302,,,,,,,,,,,,,,,,,F,160,star,1,0,,,,,,,,,,,,,,,,switch,letter,lettSwt,d,0.5525,Lo,,,,,,5,,,,,,,,high,20,0,20,0,1,,,,,,,,,
293983,2022-11-25_18h39.25.421,vts_reward_expectancy_bt,2022.2.4,Win32,59.61251863,Chrome,1368,912,,,,,0,1302,,,,,,,,,,,,,,,,,D,174,triangle,1,0,,,,,,,,,,,,,,,,repeat,letter,lettRpt,d,0.5355,Hi,,,,,,5,,,,,,,,high,21,0,21,0,1,,,,,,,,,
293983,2022-11-25_18h39.25.421,vts_reward_expectancy_bt,2022.2.4,Win32,59.61251863,Chrome,1368,912,,,,,0,1302,,,,,,,,,,,,,,,,,H,181,circle,1,0,,,,,,,,,,,,,,,,repeat,letter,lettRpt,d,0.466,Hi,,,,,,5,,,,,,,,high,22,0,22,0,1,,,,,,,,,
293983,2022-11-25_18h39.25.421,vts_reward_expectancy_bt,2022.2.4,Win32,59.61251863,Chrome,1368,912,,,,,0,1302,,,,,,,,,,,,,,,,,Y,167,hexagon,0,0,,,,,,,,,,,,,,,,repeat,letter,NA,d,0.4282,Hi,,,,,,5,,,,,,,,high,23,0,23,0,1,,,,,,,,,
293983,2022-11-25_18h39.25.421,vts_reward_expectancy_bt,2022.2.4,Win32,59.61251863,Chrome,1368,912,,,,,0,1302,,,,,,,,,,,,,,,,,D,181,triangle,1,1,,,,,,,,,,,,,,,,repeat,letter,lettRpt,d,0.5355,Hi,,,,,,5,,,,,,,,high,24,0,24,0,1,,,,,,,,,
293983,2022-11-25_18h39.25.421,vts_reward_expectancy_bt,2022.2.4,Win32,59.61251863,Chrome,1368,912,,,,,10,1312,,,,,,,,,,,,,,,,,U,132,circle,1,0,,,,,,,,,,,,,,,,switch,number,numSwt,j,0.3684,Hi,,,,,,5,,,,,,,,high,25,0,25,0,1,,,,,,,,,
293983,2022-11-25_18h39.25.421,vts_reward_expectancy_bt,2022.2.4,Win32,59.61251863,Chrome,1368,912,,,,,1,1313,,,,,,,,,,,,,,,,,S,146,star,1,0,,,,,,,,,,,,,,,,repeat,number,numRpt,j,0.5028,Lo,,,,,,5,,,,,,,,high,26,0,26,0,1,,,,,,,,,
293983,2022-11-25_18h39.25.421,vts_reward_expectancy_bt,2022.2.4,Win32,59.61251863,Chrome,1368,912,,,,,1,1314,,,,,,,,,,,,,,,,,F,125,hexagon,1,0,,,,,,,,,,,,,,,,repeat,number,numRpt,j,0.4186,Lo,,,,,,5,,,,,,,,high,27,0,27,0,1,,,,,,,,,
293983,2022-11-25_18h39.25.421,vts_reward_expectancy_bt,2022.2.4,Win32,59.61251863,Chrome,1368,912,,,,,10,1324,,,,,,,,,,,,,,,,,W,167,circle,1,0,,,,,,,,,,,,,,,,repeat,number,numRpt,k,0.4024,Hi,,,,,,5,,,,,,,,high,28,0,28,0,1,,,,,,,,,
293983,2022-11-25_18h39.25.421,vts_reward_expectancy_bt,2022.2.4,Win32,59.61251863,Chrome,1368,912,,,,,1,1325,,,,,,,,,,,,,,,,,Y,160,hexagon,1,0,,,,,,,,,,,,,,,,repeat,number,numRpt,k,0.3852,Lo,,,,,,5,,,,,,,,high,29,0,29,0,1,,,,,,,,,
293983,2022-11-25_18h39.25.421,vts_reward_expectancy_bt,2022.2.4,Win32,59.61251863,Chrome,1368,912,,,,,0,1325,,,,,,,,,,,,,,,,,B,174,triangle,1,0,,,,,,,,,,,,,,,,repeat,number,numRpt,k,0.5619,Hi,,,,,,5,,,,,,,,high,30,0,30,0,1,,,,,,,,,
293983,2022-11-25_18h39.25.421,vts_reward_expectancy_bt,2022.2.4,Win32,59.61251863,Chrome,1368,912,,,,,1,1326,,,,,,,,,,,,,,,,,H,139,star,1,0,,,,,,,,,,,,,,,,repeat,number,numRpt,j,0.5688,Lo,,,,,,5,,,,,,,,high,31,0,31,0,1,,,,,,,,,
293983,2022-11-25_18h39.25.421,vts_reward_expectancy_bt,2022.2.4,Win32,59.61251863,Chrome,1368,912,,,,,10,1336,,,,,,,,,,,,,,,,,D,139,star,1,0,,,,,,,,,,,,,,,,switch,letter,lettSwt,d,0.3866,Lo,,,,,,6,,,,,,space,1.0565,high,0,0,0,0,1,,,,,,,,,
293983,2022-11-25_18h39.25.421,vts_reward_expectancy_bt,2022.2.4,Win32,59.61251863,Chrome,1368,912,,,,,0,1336,,,,,,,,,,,,,,,,,S,167,circle,0,0,,,,,,,,,,,,,,,,repeat,letter,NA,d,0.3797,Lo,,,,,,6,,,,,,,,high,1,0,1,0,1,,,,,,,,,
293983,2022-11-25_18h39.25.421,vts_reward_expectancy_bt,2022.2.4,Win32,59.61251863,Chrome,1368,912,,,,,0,1336,,,,,,,,,,,,,,,,,W,125,triangle,1,1,,,,,,,,,,,,,,,,repeat,letter,lettRpt,f,0.4844,Hi,,,,,,6,,,,,,,,high,2,0,2,0,1,,,,,,,,,
293983,2022-11-25_18h39.25.421,vts_reward_expectancy_bt,2022.2.4,Win32,59.61251863,Chrome,1368,912,,,,,1,1337,,,,,,,,,,,,,,,,,B,160,hexagon,1,0,,,,,,,,,,,,,,,,repeat,letter,lettRpt,d,0.4353,Lo,,,,,,6,,,,,,,,high,3,0,3,0,1,,,,,,,,,
293983,2022-11-25_18h39.25.421,vts_reward_expectancy_bt,2022.2.4,Win32,59.61251863,Chrome,1368,912,,,,,10,1347,,,,,,,,,,,,,,,,,Y,146,star,1,0,,,,,,,,,,,,,,,,repeat,letter,lettRpt,f,0.4528,Lo,,,,,,6,,,,,,,,high,4,0,4,0,1,,,,,,,,,
293983,2022-11-25_18h39.25.421,vts_reward_expectancy_bt,2022.2.4,Win32,59.61251863,Chrome,1368,912,,,,,0,1347,,,,,,,,,,,,,,,,,F,181,circle,1,0,,,,,,,,,,,,,,,,repeat,letter,lettRpt,d,0.571,Hi,,,,,,6,,,,,,,,high,5,0,5,0,1,,,,,,,,,
293983,2022-11-25_18h39.25.421,vts_reward_expectancy_bt,2022.2.4,Win32,59.61251863,Chrome,1368,912,,,,,0,1347,,,,,,,,,,,,,,,,,H,174,triangle,1,0,,,,,,,,,,,,,,,,repeat,letter,lettRpt,d,0.4606,Hi,,,,,,6,,,,,,,,high,6,0,6,0,1,,,,,,,,,
293983,2022-11-25_18h39.25.421,vts_reward_expectancy_bt,2022.2.4,Win32,59.61251863,Chrome,1368,912,,,,,1,1348,,,,,,,,,,,,,,,,,U,132,hexagon,1,0,,,,,,,,,,,,,,,,repeat,letter,lettRpt,f,0.4517,Lo,,,,,,6,,,,,,,,high,7,0,7,0,1,,,,,,,,,
293983,2022-11-25_18h39.25.421,vts_reward_expectancy_bt,2022.2.4,Win32,59.61251863,Chrome,1368,912,,,,,1,1349,,,,,,,,,,,,,,,,,D,139,hexagon,1,0,,,,,,,,,,,,,,,,repeat,letter,lettRpt,d,0.3295,Lo,,,,,,6,,,,,,,,high,8,0,8,0,1,,,,,,,,,
293983,2022-11-25_18h39.25.421,vts_reward_expectancy_bt,2022.2.4,Win32,59.61251863,Chrome,1368,912,,,,,0,1349,,,,,,,,,,,,,,,,,S,167,circle,1,0,,,,,,,,,,,,,,,,switch,number,numSwt,k,0.4272,Hi,,,,,,6,,,,,,,,high,9,0,9,0,1,,,,,,,,,
293983,2022-11-25_18h39.25.421,vts_reward_expectancy_bt,2022.2.4,Win32,59.61251863,Chrome,1368,912,,,,,0,1349,,,,,,,,,,,,,,,,,W,125,triangle,1,0,,,,,,,,,,,,,,,,repeat,number,numRpt,j,0.452,Hi,,,,,,6,,,,,,,,high,10,0,10,0,1,,,,,,,,,
293983,2022-11-25_18h39.25.421,vts_reward_expectancy_bt,2022.2.4,Win32,59.61251863,Chrome,1368,912,,,,,0,1349,,,,,,,,,,,,,,,,,B,160,star,0,0,,,,,,,,,,,,,,,,repeat,number,NA,j,0.4018,Hi,,,,,,6,,,,,,,,high,11,0,11,0,1,,,,,,,,,
293983,2022-11-25_18h39.25.421,vts_reward_expectancy_bt,2022.2.4,Win32,59.61251863,Chrome,1368,912,,,,,0,1349,,,,,,,,,,,,,,,,,Y,146,star,0,1,,,,,,,,,,,,,,,,repeat,number,NA,k,0.4001,Hi,,,,,,6,,,,,,,,high,12,0,12,0,1,,,,,,,,,
293983,2022-11-25_18h39.25.421,vts_reward_expectancy_bt,2022.2.4,Win32,59.61251863,Chrome,1368,912,,,,,10,1359,,,,,,,,,,,,,,,,,F,181,circle,1,1,,,,,,,,,,,,,,,,repeat,number,numRpt,k,0.3634,Hi,,,,,,6,,,,,,,,high,13,0,13,0,1,,,,,,,,,
293983,2022-11-25_18h39.25.421,vts_reward_expectancy_bt,2022.2.4,Win32,59.61251863,Chrome,1368,912,,,,,10,1369,,,,,,,,,,,,,,,,,H,174,triangle,1,0,,,,,,,,,,,,,,,,repeat,number,numRpt,k,0.4052,Hi,,,,,,6,,,,,,,,high,14,0,14,0,1,,,,,,,,,
