participant,date,expName,psychopyVersion,OS,frameRate,browser,xResolution,yResolution,key_resp.keys,key_resp.rt,training_resp.keys,training_resp.rt,points_trial,points_cumul,trainBlock,training.thisRepN,training.thisTrialN,training.thisN,training.thisIndex,training.ran,LTriangleOpac,LCircleOpac,LHexagonOpac,LStarOpac,RTriangleOpac,RCircleOpac,RHexagonOpac,RStarOpac,LShape_ID,RShape_ID,curr_topStim,curr_bottStim,curr_shape,acc,E1,target_resp_prac1.keys,target_resp_prac1.rt,pracBlock,task1_prac_trials.thisRepN,task1_prac_trials.thisTrialN,task1_prac_trials.thisN,task1_prac_trials.thisIndex,task1_prac_trials.ran,target_resp_prac2.keys,target_resp_prac2.rt,task2_praac_trials.thisRepN,task2_praac_trials.thisTrialN,task2_praac_trials.thisN,task2_praac_trials.thisIndex,task2_praac_trials.ran,alt,task,condition,target_resp.keys,target_resp.rt,rewCond,vts_practice_trials.thisRepN,vts_practice_trials.thisTrialN,vts_practice_trials.thisN,vts_practice_trials.thisIndex,vts_practice_trials.ran,blockNum,trials_norew.thisRepN,trials_norew.thisTrialN,trials_norew.thisN,trials_norew.thisIndex,trials_norew.ran,key_resp_2.keys,key_resp_2.rt,rewExpectancy,trials_rew.thisRepN,trials_rew.thisTrialN,trials_rew.thisN,trials_rew.thisIndex,trials_rew.ran,Q1,Q2,Q2_text,Q3,Q4,Q5_text,Q5,xRes,yRes
293941,2022-11-21_12h01.05.798,vts_reward_expectancy_bt,2022.2.4,Win32,120.1923077,Firefox,1920,1080,,,,,,,,,,,,,,,,,,,,,,,,,,,,,,,,,,,,,,,,,,,,,,,,,,,,,,,,,,,,,,,,,,,,,,,,,,,,
293941,2022-11-21_12h01.05.798,vts_reward_expectancy_bt,2022.2.4,Win32,120.1923077,Firefox,1920,1080,space,22.392,,,,,,,,,,,,,,,,,,,,,,,,,,,,,,,,,,,,,,,,,,,,,,,,,,,,,,,,,,,,,,,,,,,,,,,,,,
293941,2022-11-21_12h01.05.798,vts_reward_expectancy_bt,2022.2.4,Win32,120.1923077,Firefox,1920,1080,,,,,,,,,,,,,,,,,,,,,,,,,,,,,,,,,,,,,,,,,,,,,,,,,,,,,,,,,,,,,,,,,,,,,,,,,,,,
293941,2022-11-21_12h01.05.798,vts_reward_expectancy_bt,2022.2.4,Win32,120.1923077,Firefox,1920,1080,,,l,4.919,1,1,0,0,0,0,7,1,0,0,1,0,0,1,0,0,hexagon,circle,,,,,,,,,,,,,,,,,,,,,,,,,,,,,,,,,,,,,,,,,,,,,,,,,,,,,,
293941,2022-11-21_12h01.05.798,vts_reward_expectancy_bt,2022.2.4,Win32,120.1923077,Firefox,1920,1080,,,l,1.935,10,11,0,0,1,1,3,1,0,1,0,0,1,0,0,0,circle,triangle,,,,,,,,,,,,,,,,,,,,,,,,,,,,,,,,,,,,,,,,,,,,,,,,,,,,,,
293941,2022-11-21_12h01.05.798,vts_reward_expectancy_bt,2022.2.4,Win32,120.1923077,Firefox,1920,1080,,,l,1.234,1,12,0,0,2,2,4,1,0,1,0,0,0,0,1,0,circle,hexagon,,,,,,,,,,,,,,,,,,,,,,,,,,,,,,,,,,,,,,,,,,,,,,,,,,,,,,
293941,2022-11-21_12h01.05.798,vts_reward_expectancy_bt,2022.2.4,Win32,120.1923077,Firefox,1920,1080,,,a,2.404,1,13,0,0,3,3,10,1,0,0,0,1,0,1,0,0,star ,circle,,,,,,,,,,,,,,,,,,,,,,,,,,,,,,,,,,,,,,,,,,,,,,,,,,,,,,
293941,2022-11-21_12h01.05.798,vts_reward_expectancy_bt,2022.2.4,Win32,120.1923077,Firefox,1920,1080,,,l,4.474,1,14,0,0,4,4,11,1,0,0,0,1,0,0,1,0,star,hexagon,,,,,,,,,,,,,,,,,,,,,,,,,,,,,,,,,,,,,,,,,,,,,,,,,,,,,,
293941,2022-11-21_12h01.05.798,vts_reward_expectancy_bt,2022.2.4,Win32,120.1923077,Firefox,1920,1080,,,a,1.29,1,15,0,0,5,5,5,1,0,1,0,0,0,0,0,1,circle,star,,,,,,,,,,,,,,,,,,,,,,,,,,,,,,,,,,,,,,,,,,,,,,,,,,,,,,
293941,2022-11-21_12h01.05.798,vts_reward_expectancy_bt,2022.2.4,Win32,120.1923077,Firefox,1920,1080,,,l,0.829,10,25,0,0,6,6,9,1,0,0,0,1,1,0,0,0,star,triangle,,,,,,,,,,,,,,,,,,,,,,,,,,,,,,,,,,,,,,,,,,,,,,,,,,,,,,
293941,2022-11-21_12h01.05.798,vts_reward_expectancy_bt,2022.2.4,Win32,120.1923077,Firefox,1920,1080,,,a,0.851,1,26,0,0,7,7,1,1,1,0,0,0,0,0,1,0,triangle,hexagon,,,,,,,,,,,,,,,,,,,,,,,,,,,,,,,,,,,,,,,,,,,,,,,,,,,,,,
293941,2022-11-21_12h01.05.798,vts_reward_expectancy_bt,2022.2.4,Win32,120.1923077,Firefox,1920,1080,,,l,1.593,10,36,0,0,8,8,8,1,0,0,1,0,0,0,0,1,hexagon,star,,,,,,,,,,,,,,,,,,,,,,,,,,,,,,,,,,,,,,,,,,,,,,,,,,,,,,
293941,2022-11-21_12h01.05.798,vts_reward_expectancy_bt,2022.2.4,Win32,120.1923077,Firefox,1920,1080,,,l,0.895,10,46,0,0,9,9,2,1,1,0,0,0,0,0,0,1,triangle,star,,,,,,,,,,,,,,,,,,,,,,,,,,,,,,,,,,,,,,,,,,,,,,,,,,,,,,
293941,2022-11-21_12h01.05.798,vts_reward_expectancy_bt,2022.2.4,Win32,120.1923077,Firefox,1920,1080,,,l,1.294,1,47,0,0,10,10,0,1,1,0,0,0,0,1,0,0,triangle,circle,,,,,,,,,,,,,,,,,,,,,,,,,,,,,,,,,,,,,,,,,,,,,,,,,,,,,,
293941,2022-11-21_12h01.05.798,vts_reward_expectancy_bt,2022.2.4,Win32,120.1923077,Firefox,1920,1080,,,l,0.608,10,57,0,0,11,11,6,1,0,0,1,0,1,0,0,0,hexagon,triangle,,,,,,,,,,,,,,,,,,,,,,,,,,,,,,,,,,,,,,,,,,,,,,,,,,,,,,
293941,2022-11-21_12h01.05.798,vts_reward_expectancy_bt,2022.2.4,Win32,120.1923077,Firefox,1920,1080,,,l,0.691,10,67,0,1,0,12,3,1,0,1,0,0,1,0,0,0,circle,triangle,,,,,,,,,,,,,,,,,,,,,,,,,,,,,,,,,,,,,,,,,,,,,,,,,,,,,,
293941,2022-11-21_12h01.05.798,vts_reward_expectancy_bt,2022.2.4,Win32,120.1923077,Firefox,1920,1080,,,l,1.417,10,77,0,1,1,13,9,1,0,0,0,1,1,0,0,0,star,triangle,,,,,,,,,,,,,,,,,,,,,,,,,,,,,,,,,,,,,,,,,,,,,,,,,,,,,,
293941,2022-11-21_12h01.05.798,vts_reward_expectancy_bt,2022.2.4,Win32,120.1923077,Firefox,1920,1080,,,l,1.1,10,87,0,1,2,14,5,1,0,1,0,0,0,0,0,1,circle,star,,,,,,,,,,,,,,,,,,,,,,,,,,,,,,,,,,,,,,,,,,,,,,,,,,,,,,
293941,2022-11-21_12h01.05.798,vts_reward_expectancy_bt,2022.2.4,Win32,120.1923077,Firefox,1920,1080,,,a,2.547,1,88,0,1,3,15,0,1,1,0,0,0,0,1,0,0,triangle,circle,,,,,,,,,,,,,,,,,,,,,,,,,,,,,,,,,,,,,,,,,,,,,,,,,,,,,,
293941,2022-11-21_12h01.05.798,vts_reward_expectancy_bt,2022.2.4,Win32,120.1923077,Firefox,1920,1080,,,a,1.666,10,98,0,1,4,16,11,1,0,0,0,1,0,0,1,0,star,hexagon,,,,,,,,,,,,,,,,,,,,,,,,,,,,,,,,,,,,,,,,,,,,,,,,,,,,,,
293941,2022-11-21_12h01.05.798,vts_reward_expectancy_bt,2022.2.4,Win32,120.1923077,Firefox,1920,1080,,,l,0.951,1,99,0,1,5,17,6,1,0,0,1,0,1,0,0,0,hexagon,triangle,,,,,,,,,,,,,,,,,,,,,,,,,,,,,,,,,,,,,,,,,,,,,,,,,,,,,,
293941,2022-11-21_12h01.05.798,vts_reward_expectancy_bt,2022.2.4,Win32,120.1923077,Firefox,1920,1080,,,l,1.382,1,100,0,1,6,18,4,1,0,1,0,0,0,0,1,0,circle,hexagon,,,,,,,,,,,,,,,,,,,,,,,,,,,,,,,,,,,,,,,,,,,,,,,,,,,,,,
293941,2022-11-21_12h01.05.798,vts_reward_expectancy_bt,2022.2.4,Win32,120.1923077,Firefox,1920,1080,,,a,1.204,10,110,0,1,7,19,1,1,1,0,0,0,0,0,1,0,triangle,hexagon,,,,,,,,,,,,,,,,,,,,,,,,,,,,,,,,,,,,,,,,,,,,,,,,,,,,,,
293941,2022-11-21_12h01.05.798,vts_reward_expectancy_bt,2022.2.4,Win32,120.1923077,Firefox,1920,1080,,,a,1.732,10,120,0,1,8,20,10,1,0,0,0,1,0,1,0,0,star ,circle,,,,,,,,,,,,,,,,,,,,,,,,,,,,,,,,,,,,,,,,,,,,,,,,,,,,,,
293941,2022-11-21_12h01.05.798,vts_reward_expectancy_bt,2022.2.4,Win32,120.1923077,Firefox,1920,1080,,,l,1.578,10,130,0,1,9,21,2,1,1,0,0,0,0,0,0,1,triangle,star,,,,,,,,,,,,,,,,,,,,,,,,,,,,,,,,,,,,,,,,,,,,,,,,,,,,,,
293941,2022-11-21_12h01.05.798,vts_reward_expectancy_bt,2022.2.4,Win32,120.1923077,Firefox,1920,1080,,,l,0.576,10,140,0,1,10,22,8,1,0,0,1,0,0,0,0,1,hexagon,star,,,,,,,,,,,,,,,,,,,,,,,,,,,,,,,,,,,,,,,,,,,,,,,,,,,,,,
293941,2022-11-21_12h01.05.798,vts_reward_expectancy_bt,2022.2.4,Win32,120.1923077,Firefox,1920,1080,,,a,1.845,1,141,0,1,11,23,7,1,0,0,1,0,0,1,0,0,hexagon,circle,,,,,,,,,,,,,,,,,,,,,,,,,,,,,,,,,,,,,,,,,,,,,,,,,,,,,,
293941,2022-11-21_12h01.05.798,vts_reward_expectancy_bt,2022.2.4,Win32,120.1923077,Firefox,1920,1080,,,l,0.624,10,151,0,2,0,24,3,1,0,1,0,0,1,0,0,0,circle,triangle,,,,,,,,,,,,,,,,,,,,,,,,,,,,,,,,,,,,,,,,,,,,,,,,,,,,,,
293941,2022-11-21_12h01.05.798,vts_reward_expectancy_bt,2022.2.4,Win32,120.1923077,Firefox,1920,1080,,,l,1.952,10,161,0,2,1,25,9,1,0,0,0,1,1,0,0,0,star,triangle,,,,,,,,,,,,,,,,,,,,,,,,,,,,,,,,,,,,,,,,,,,,,,,,,,,,,,
293941,2022-11-21_12h01.05.798,vts_reward_expectancy_bt,2022.2.4,Win32,120.1923077,Firefox,1920,1080,,,l,1.663,1,162,0,2,2,26,0,1,1,0,0,0,0,1,0,0,triangle,circle,,,,,,,,,,,,,,,,,,,,,,,,,,,,,,,,,,,,,,,,,,,,,,,,,,,,,,
293941,2022-11-21_12h01.05.798,vts_reward_expectancy_bt,2022.2.4,Win32,120.1923077,Firefox,1920,1080,,,a,0.594,10,172,0,2,3,27,11,1,0,0,0,1,0,0,1,0,star,hexagon,,,,,,,,,,,,,,,,,,,,,,,,,,,,,,,,,,,,,,,,,,,,,,,,,,,,,,
293941,2022-11-21_12h01.05.798,vts_reward_expectancy_bt,2022.2.4,Win32,120.1923077,Firefox,1920,1080,,,a,0.573,10,182,0,2,4,28,10,1,0,0,0,1,0,1,0,0,star ,circle,,,,,,,,,,,,,,,,,,,,,,,,,,,,,,,,,,,,,,,,,,,,,,,,,,,,,,
293941,2022-11-21_12h01.05.798,vts_reward_expectancy_bt,2022.2.4,Win32,120.1923077,Firefox,1920,1080,,,l,2.488,1,183,0,2,5,29,4,1,0,1,0,0,0,0,1,0,circle,hexagon,,,,,,,,,,,,,,,,,,,,,,,,,,,,,,,,,,,,,,,,,,,,,,,,,,,,,,
293941,2022-11-21_12h01.05.798,vts_reward_expectancy_bt,2022.2.4,Win32,120.1923077,Firefox,1920,1080,,,l,0.6,1,184,0,2,6,30,6,1,0,0,1,0,1,0,0,0,hexagon,triangle,,,,,,,,,,,,,,,,,,,,,,,,,,,,,,,,,,,,,,,,,,,,,,,,,,,,,,
293941,2022-11-21_12h01.05.798,vts_reward_expectancy_bt,2022.2.4,Win32,120.1923077,Firefox,1920,1080,,,l,0.456,10,194,0,2,7,31,2,1,1,0,0,0,0,0,0,1,triangle,star,,,,,,,,,,,,,,,,,,,,,,,,,,,,,,,,,,,,,,,,,,,,,,,,,,,,,,
293941,2022-11-21_12h01.05.798,vts_reward_expectancy_bt,2022.2.4,Win32,120.1923077,Firefox,1920,1080,,,l,0.977,1,195,0,2,8,32,7,1,0,0,1,0,0,1,0,0,hexagon,circle,,,,,,,,,,,,,,,,,,,,,,,,,,,,,,,,,,,,,,,,,,,,,,,,,,,,,,
293941,2022-11-21_12h01.05.798,vts_reward_expectancy_bt,2022.2.4,Win32,120.1923077,Firefox,1920,1080,,,l,0.461,10,205,0,2,9,33,5,1,0,1,0,0,0,0,0,1,circle,star,,,,,,,,,,,,,,,,,,,,,,,,,,,,,,,,,,,,,,,,,,,,,,,,,,,,,,
293941,2022-11-21_12h01.05.798,vts_reward_expectancy_bt,2022.2.4,Win32,120.1923077,Firefox,1920,1080,,,l,0.38,10,215,0,2,10,34,8,1,0,0,1,0,0,0,0,1,hexagon,star,,,,,,,,,,,,,,,,,,,,,,,,,,,,,,,,,,,,,,,,,,,,,,,,,,,,,,
293941,2022-11-21_12h01.05.798,vts_reward_expectancy_bt,2022.2.4,Win32,120.1923077,Firefox,1920,1080,,,a,0.861,10,225,0,2,11,35,1,1,1,0,0,0,0,0,1,0,triangle,hexagon,,,,,,,,,,,,,,,,,,,,,,,,,,,,,,,,,,,,,,,,,,,,,,,,,,,,,,
293941,2022-11-21_12h01.05.798,vts_reward_expectancy_bt,2022.2.4,Win32,120.1923077,Firefox,1920,1080,,,l,1.073,10,235,1,0,0,0,4,1,0,1,0,0,0,0,1,0,circle,hexagon,,,,,,,,,,,,,,,,,,,,,,,,,,,,,,,,,,,,,,,,,,,,,,,,,,,,,,
293941,2022-11-21_12h01.05.798,vts_reward_expectancy_bt,2022.2.4,Win32,120.1923077,Firefox,1920,1080,,,l,1.004,10,245,1,0,1,1,6,1,0,0,1,0,1,0,0,0,hexagon,triangle,,,,,,,,,,,,,,,,,,,,,,,,,,,,,,,,,,,,,,,,,,,,,,,,,,,,,,
293941,2022-11-21_12h01.05.798,vts_reward_expectancy_bt,2022.2.4,Win32,120.1923077,Firefox,1920,1080,,,l,0.804,10,255,1,0,2,2,8,1,0,0,1,0,0,0,0,1,hexagon,star,,,,,,,,,,,,,,,,,,,,,,,,,,,,,,,,,,,,,,,,,,,,,,,,,,,,,,
293941,2022-11-21_12h01.05.798,vts_reward_expectancy_bt,2022.2.4,Win32,120.1923077,Firefox,1920,1080,,,a,0.642,10,265,1,0,3,3,11,1,0,0,0,1,0,0,1,0,star,hexagon,,,,,,,,,,,,,,,,,,,,,,,,,,,,,,,,,,,,,,,,,,,,,,,,,,,,,,
293941,2022-11-21_12h01.05.798,vts_reward_expectancy_bt,2022.2.4,Win32,120.1923077,Firefox,1920,1080,,,l,2.098,10,275,1,0,4,4,9,1,0,0,0,1,1,0,0,0,star,triangle,,,,,,,,,,,,,,,,,,,,,,,,,,,,,,,,,,,,,,,,,,,,,,,,,,,,,,
293941,2022-11-21_12h01.05.798,vts_reward_expectancy_bt,2022.2.4,Win32,120.1923077,Firefox,1920,1080,,,l,1.655,1,276,1,0,5,5,1,1,1,0,0,0,0,0,1,0,triangle,hexagon,,,,,,,,,,,,,,,,,,,,,,,,,,,,,,,,,,,,,,,,,,,,,,,,,,,,,,
293941,2022-11-21_12h01.05.798,vts_reward_expectancy_bt,2022.2.4,Win32,120.1923077,Firefox,1920,1080,,,l,0.646,10,286,1,0,6,6,2,1,1,0,0,0,0,0,0,1,triangle,star,,,,,,,,,,,,,,,,,,,,,,,,,,,,,,,,,,,,,,,,,,,,,,,,,,,,,,
293941,2022-11-21_12h01.05.798,vts_reward_expectancy_bt,2022.2.4,Win32,120.1923077,Firefox,1920,1080,,,a,0.51,10,296,1,0,7,7,0,1,1,0,0,0,0,1,0,0,triangle,circle,,,,,,,,,,,,,,,,,,,,,,,,,,,,,,,,,,,,,,,,,,,,,,,,,,,,,,
293941,2022-11-21_12h01.05.798,vts_reward_expectancy_bt,2022.2.4,Win32,120.1923077,Firefox,1920,1080,,,l,0.525,1,297,1,0,8,8,5,1,0,1,0,0,0,0,0,1,circle,star,,,,,,,,,,,,,,,,,,,,,,,,,,,,,,,,,,,,,,,,,,,,,,,,,,,,,,
293941,2022-11-21_12h01.05.798,vts_reward_expectancy_bt,2022.2.4,Win32,120.1923077,Firefox,1920,1080,,,a,0.601,1,298,1,0,9,9,10,1,0,0,0,1,0,1,0,0,star ,circle,,,,,,,,,,,,,,,,,,,,,,,,,,,,,,,,,,,,,,,,,,,,,,,,,,,,,,
293941,2022-11-21_12h01.05.798,vts_reward_expectancy_bt,2022.2.4,Win32,120.1923077,Firefox,1920,1080,,,l,1.086,10,308,1,0,10,10,3,1,0,1,0,0,1,0,0,0,circle,triangle,,,,,,,,,,,,,,,,,,,,,,,,,,,,,,,,,,,,,,,,,,,,,,,,,,,,,,
293941,2022-11-21_12h01.05.798,vts_reward_expectancy_bt,2022.2.4,Win32,120.1923077,Firefox,1920,1080,,,a,1.047,10,318,1,0,11,11,7,1,0,0,1,0,0,1,0,0,hexagon,circle,,,,,,,,,,,,,,,,,,,,,,,,,,,,,,,,,,,,,,,,,,,,,,,,,,,,,,
293941,2022-11-21_12h01.05.798,vts_reward_expectancy_bt,2022.2.4,Win32,120.1923077,Firefox,1920,1080,,,l,1.707,10,328,1,1,0,12,3,1,0,1,0,0,1,0,0,0,circle,triangle,,,,,,,,,,,,,,,,,,,,,,,,,,,,,,,,,,,,,,,,,,,,,,,,,,,,,,
293941,2022-11-21_12h01.05.798,vts_reward_expectancy_bt,2022.2.4,Win32,120.1923077,Firefox,1920,1080,,,l,0.977,10,338,1,1,1,13,6,1,0,0,1,0,1,0,0,0,hexagon,triangle,,,,,,,,,,,,,,,,,,,,,,,,,,,,,,,,,,,,,,,,,,,,,,,,,,,,,,
293941,2022-11-21_12h01.05.798,vts_reward_expectancy_bt,2022.2.4,Win32,120.1923077,Firefox,1920,1080,,,a,1.192,10,348,1,1,2,14,0,1,1,0,0,0,0,1,0,0,triangle,circle,,,,,,,,,,,,,,,,,,,,,,,,,,,,,,,,,,,,,,,,,,,,,,,,,,,,,,
293941,2022-11-21_12h01.05.798,vts_reward_expectancy_bt,2022.2.4,Win32,120.1923077,Firefox,1920,1080,,,a,1.395,10,358,1,1,3,15,1,1,1,0,0,0,0,0,1,0,triangle,hexagon,,,,,,,,,,,,,,,,,,,,,,,,,,,,,,,,,,,,,,,,,,,,,,,,,,,,,,
293941,2022-11-21_12h01.05.798,vts_reward_expectancy_bt,2022.2.4,Win32,120.1923077,Firefox,1920,1080,,,l,3.414,1,359,1,1,4,16,4,1,0,1,0,0,0,0,1,0,circle,hexagon,,,,,,,,,,,,,,,,,,,,,,,,,,,,,,,,,,,,,,,,,,,,,,,,,,,,,,
293941,2022-11-21_12h01.05.798,vts_reward_expectancy_bt,2022.2.4,Win32,120.1923077,Firefox,1920,1080,,,l,1.284,10,369,1,1,5,17,2,1,1,0,0,0,0,0,0,1,triangle,star,,,,,,,,,,,,,,,,,,,,,,,,,,,,,,,,,,,,,,,,,,,,,,,,,,,,,,
293941,2022-11-21_12h01.05.798,vts_reward_expectancy_bt,2022.2.4,Win32,120.1923077,Firefox,1920,1080,,,a,1.17,10,379,1,1,6,18,9,1,0,0,0,1,1,0,0,0,star,triangle,,,,,,,,,,,,,,,,,,,,,,,,,,,,,,,,,,,,,,,,,,,,,,,,,,,,,,
293941,2022-11-21_12h01.05.798,vts_reward_expectancy_bt,2022.2.4,Win32,120.1923077,Firefox,1920,1080,,,l,1.514,10,389,1,1,7,19,8,1,0,0,1,0,0,0,0,1,hexagon,star,,,,,,,,,,,,,,,,,,,,,,,,,,,,,,,,,,,,,,,,,,,,,,,,,,,,,,
293941,2022-11-21_12h01.05.798,vts_reward_expectancy_bt,2022.2.4,Win32,120.1923077,Firefox,1920,1080,,,l,0.841,10,399,1,1,8,20,5,1,0,1,0,0,0,0,0,1,circle,star,,,,,,,,,,,,,,,,,,,,,,,,,,,,,,,,,,,,,,,,,,,,,,,,,,,,,,
293941,2022-11-21_12h01.05.798,vts_reward_expectancy_bt,2022.2.4,Win32,120.1923077,Firefox,1920,1080,,,l,1.488,10,409,1,1,9,21,7,1,0,0,1,0,0,1,0,0,hexagon,circle,,,,,,,,,,,,,,,,,,,,,,,,,,,,,,,,,,,,,,,,,,,,,,,,,,,,,,
293941,2022-11-21_12h01.05.798,vts_reward_expectancy_bt,2022.2.4,Win32,120.1923077,Firefox,1920,1080,,,a,1.008,10,419,1,1,10,22,11,1,0,0,0,1,0,0,1,0,star,hexagon,,,,,,,,,,,,,,,,,,,,,,,,,,,,,,,,,,,,,,,,,,,,,,,,,,,,,,
293941,2022-11-21_12h01.05.798,vts_reward_expectancy_bt,2022.2.4,Win32,120.1923077,Firefox,1920,1080,,,a,0.908,10,429,1,1,11,23,10,1,0,0,0,1,0,1,0,0,star ,circle,,,,,,,,,,,,,,,,,,,,,,,,,,,,,,,,,,,,,,,,,,,,,,,,,,,,,,
293941,2022-11-21_12h01.05.798,vts_reward_expectancy_bt,2022.2.4,Win32,120.1923077,Firefox,1920,1080,,,a,0.79,1,430,1,2,0,24,11,1,0,0,0,1,0,0,1,0,star,hexagon,,,,,,,,,,,,,,,,,,,,,,,,,,,,,,,,,,,,,,,,,,,,,,,,,,,,,,
293941,2022-11-21_12h01.05.798,vts_reward_expectancy_bt,2022.2.4,Win32,120.1923077,Firefox,1920,1080,,,a,1.247,10,440,1,2,1,25,1,1,1,0,0,0,0,0,1,0,triangle,hexagon,,,,,,,,,,,,,,,,,,,,,,,,,,,,,,,,,,,,,,,,,,,,,,,,,,,,,,
293941,2022-11-21_12h01.05.798,vts_reward_expectancy_bt,2022.2.4,Win32,120.1923077,Firefox,1920,1080,,,a,1.036,10,450,1,2,2,26,9,1,0,0,0,1,1,0,0,0,star,triangle,,,,,,,,,,,,,,,,,,,,,,,,,,,,,,,,,,,,,,,,,,,,,,,,,,,,,,
293941,2022-11-21_12h01.05.798,vts_reward_expectancy_bt,2022.2.4,Win32,120.1923077,Firefox,1920,1080,,,l,2.205,1,451,1,2,3,27,8,1,0,0,1,0,0,0,0,1,hexagon,star,,,,,,,,,,,,,,,,,,,,,,,,,,,,,,,,,,,,,,,,,,,,,,,,,,,,,,
293941,2022-11-21_12h01.05.798,vts_reward_expectancy_bt,2022.2.4,Win32,120.1923077,Firefox,1920,1080,,,a,1.114,10,461,1,2,4,28,0,1,1,0,0,0,0,1,0,0,triangle,circle,,,,,,,,,,,,,,,,,,,,,,,,,,,,,,,,,,,,,,,,,,,,,,,,,,,,,,
293941,2022-11-21_12h01.05.798,vts_reward_expectancy_bt,2022.2.4,Win32,120.1923077,Firefox,1920,1080,,,l,1.36,10,471,1,2,5,29,5,1,0,1,0,0,0,0,0,1,circle,star,,,,,,,,,,,,,,,,,,,,,,,,,,,,,,,,,,,,,,,,,,,,,,,,,,,,,,
293941,2022-11-21_12h01.05.798,vts_reward_expectancy_bt,2022.2.4,Win32,120.1923077,Firefox,1920,1080,,,l,1.218,10,481,1,2,6,30,6,1,0,0,1,0,1,0,0,0,hexagon,triangle,,,,,,,,,,,,,,,,,,,,,,,,,,,,,,,,,,,,,,,,,,,,,,,,,,,,,,
293941,2022-11-21_12h01.05.798,vts_reward_expectancy_bt,2022.2.4,Win32,120.1923077,Firefox,1920,1080,,,l,2.362,1,482,1,2,7,31,7,1,0,0,1,0,0,1,0,0,hexagon,circle,,,,,,,,,,,,,,,,,,,,,,,,,,,,,,,,,,,,,,,,,,,,,,,,,,,,,,
293941,2022-11-21_12h01.05.798,vts_reward_expectancy_bt,2022.2.4,Win32,120.1923077,Firefox,1920,1080,,,l,0.999,1,483,1,2,8,32,4,1,0,1,0,0,0,0,1,0,circle,hexagon,,,,,,,,,,,,,,,,,,,,,,,,,,,,,,,,,,,,,,,,,,,,,,,,,,,,,,
293941,2022-11-21_12h01.05.798,vts_reward_expectancy_bt,2022.2.4,Win32,120.1923077,Firefox,1920,1080,,,a,0.742,1,484,1,2,9,33,10,1,0,0,0,1,0,1,0,0,star ,circle,,,,,,,,,,,,,,,,,,,,,,,,,,,,,,,,,,,,,,,,,,,,,,,,,,,,,,
293941,2022-11-21_12h01.05.798,vts_reward_expectancy_bt,2022.2.4,Win32,120.1923077,Firefox,1920,1080,,,l,0.526,10,494,1,2,10,34,2,1,1,0,0,0,0,0,0,1,triangle,star,,,,,,,,,,,,,,,,,,,,,,,,,,,,,,,,,,,,,,,,,,,,,,,,,,,,,,
293941,2022-11-21_12h01.05.798,vts_reward_expectancy_bt,2022.2.4,Win32,120.1923077,Firefox,1920,1080,,,l,0.731,10,504,1,2,11,35,3,1,0,1,0,0,1,0,0,0,circle,triangle,,,,,,,,,,,,,,,,,,,,,,,,,,,,,,,,,,,,,,,,,,,,,,,,,,,,,,
293941,2022-11-21_12h01.05.798,vts_reward_expectancy_bt,2022.2.4,Win32,120.1923077,Firefox,1920,1080,,,a,0.942,10,514,2,0,0,0,1,1,1,0,0,0,0,0,1,0,triangle,hexagon,,,,,,,,,,,,,,,,,,,,,,,,,,,,,,,,,,,,,,,,,,,,,,,,,,,,,,
293941,2022-11-21_12h01.05.798,vts_reward_expectancy_bt,2022.2.4,Win32,120.1923077,Firefox,1920,1080,,,a,1.253,10,524,2,0,1,1,9,1,0,0,0,1,1,0,0,0,star,triangle,,,,,,,,,,,,,,,,,,,,,,,,,,,,,,,,,,,,,,,,,,,,,,,,,,,,,,
293941,2022-11-21_12h01.05.798,vts_reward_expectancy_bt,2022.2.4,Win32,120.1923077,Firefox,1920,1080,,,a,1.018,10,534,2,0,2,2,11,1,0,0,0,1,0,0,1,0,star,hexagon,,,,,,,,,,,,,,,,,,,,,,,,,,,,,,,,,,,,,,,,,,,,,,,,,,,,,,
293941,2022-11-21_12h01.05.798,vts_reward_expectancy_bt,2022.2.4,Win32,120.1923077,Firefox,1920,1080,,,l,3.388,1,535,2,0,3,3,7,1,0,0,1,0,0,1,0,0,hexagon,circle,,,,,,,,,,,,,,,,,,,,,,,,,,,,,,,,,,,,,,,,,,,,,,,,,,,,,,
293941,2022-11-21_12h01.05.798,vts_reward_expectancy_bt,2022.2.4,Win32,120.1923077,Firefox,1920,1080,,,l,0.696,10,545,2,0,4,4,8,1,0,0,1,0,0,0,0,1,hexagon,star,,,,,,,,,,,,,,,,,,,,,,,,,,,,,,,,,,,,,,,,,,,,,,,,,,,,,,
293941,2022-11-21_12h01.05.798,vts_reward_expectancy_bt,2022.2.4,Win32,120.1923077,Firefox,1920,1080,,,l,0.575,10,555,2,0,5,5,5,1,0,1,0,0,0,0,0,1,circle,star,,,,,,,,,,,,,,,,,,,,,,,,,,,,,,,,,,,,,,,,,,,,,,,,,,,,,,
293941,2022-11-21_12h01.05.798,vts_reward_expectancy_bt,2022.2.4,Win32,120.1923077,Firefox,1920,1080,,,l,0.635,1,556,2,0,6,6,3,1,0,1,0,0,1,0,0,0,circle,triangle,,,,,,,,,,,,,,,,,,,,,,,,,,,,,,,,,,,,,,,,,,,,,,,,,,,,,,
293941,2022-11-21_12h01.05.798,vts_reward_expectancy_bt,2022.2.4,Win32,120.1923077,Firefox,1920,1080,,,l,0.942,1,557,2,0,7,7,2,1,1,0,0,0,0,0,0,1,triangle,star,,,,,,,,,,,,,,,,,,,,,,,,,,,,,,,,,,,,,,,,,,,,,,,,,,,,,,
293941,2022-11-21_12h01.05.798,vts_reward_expectancy_bt,2022.2.4,Win32,120.1923077,Firefox,1920,1080,,,a,0.622,10,567,2,0,8,8,0,1,1,0,0,0,0,1,0,0,triangle,circle,,,,,,,,,,,,,,,,,,,,,,,,,,,,,,,,,,,,,,,,,,,,,,,,,,,,,,
293941,2022-11-21_12h01.05.798,vts_reward_expectancy_bt,2022.2.4,Win32,120.1923077,Firefox,1920,1080,,,a,1.497,1,568,2,0,9,9,4,1,0,1,0,0,0,0,1,0,circle,hexagon,,,,,,,,,,,,,,,,,,,,,,,,,,,,,,,,,,,,,,,,,,,,,,,,,,,,,,
293941,2022-11-21_12h01.05.798,vts_reward_expectancy_bt,2022.2.4,Win32,120.1923077,Firefox,1920,1080,,,l,0.748,1,569,2,0,10,10,6,1,0,0,1,0,1,0,0,0,hexagon,triangle,,,,,,,,,,,,,,,,,,,,,,,,,,,,,,,,,,,,,,,,,,,,,,,,,,,,,,
293941,2022-11-21_12h01.05.798,vts_reward_expectancy_bt,2022.2.4,Win32,120.1923077,Firefox,1920,1080,,,a,0.55,1,570,2,0,11,11,10,1,0,0,0,1,0,1,0,0,star ,circle,,,,,,,,,,,,,,,,,,,,,,,,,,,,,,,,,,,,,,,,,,,,,,,,,,,,,,
293941,2022-11-21_12h01.05.798,vts_reward_expectancy_bt,2022.2.4,Win32,120.1923077,Firefox,1920,1080,,,l,2.254,10,580,2,1,0,12,9,1,0,0,0,1,1,0,0,0,star,triangle,,,,,,,,,,,,,,,,,,,,,,,,,,,,,,,,,,,,,,,,,,,,,,,,,,,,,,
293941,2022-11-21_12h01.05.798,vts_reward_expectancy_bt,2022.2.4,Win32,120.1923077,Firefox,1920,1080,,,a,1.122,10,590,2,1,1,13,10,1,0,0,0,1,0,1,0,0,star ,circle,,,,,,,,,,,,,,,,,,,,,,,,,,,,,,,,,,,,,,,,,,,,,,,,,,,,,,
293941,2022-11-21_12h01.05.798,vts_reward_expectancy_bt,2022.2.4,Win32,120.1923077,Firefox,1920,1080,,,l,0.699,1,591,2,1,2,14,4,1,0,1,0,0,0,0,1,0,circle,hexagon,,,,,,,,,,,,,,,,,,,,,,,,,,,,,,,,,,,,,,,,,,,,,,,,,,,,,,
293941,2022-11-21_12h01.05.798,vts_reward_expectancy_bt,2022.2.4,Win32,120.1923077,Firefox,1920,1080,,,a,0.96,10,601,2,1,3,15,1,1,1,0,0,0,0,0,1,0,triangle,hexagon,,,,,,,,,,,,,,,,,,,,,,,,,,,,,,,,,,,,,,,,,,,,,,,,,,,,,,
293941,2022-11-21_12h01.05.798,vts_reward_expectancy_bt,2022.2.4,Win32,120.1923077,Firefox,1920,1080,,,l,0.545,10,611,2,1,4,16,3,1,0,1,0,0,1,0,0,0,circle,triangle,,,,,,,,,,,,,,,,,,,,,,,,,,,,,,,,,,,,,,,,,,,,,,,,,,,,,,
293941,2022-11-21_12h01.05.798,vts_reward_expectancy_bt,2022.2.4,Win32,120.1923077,Firefox,1920,1080,,,a,0.494,10,621,2,1,5,17,0,1,1,0,0,0,0,1,0,0,triangle,circle,,,,,,,,,,,,,,,,,,,,,,,,,,,,,,,,,,,,,,,,,,,,,,,,,,,,,,
293941,2022-11-21_12h01.05.798,vts_reward_expectancy_bt,2022.2.4,Win32,120.1923077,Firefox,1920,1080,,,a,0.93,10,631,2,1,6,18,11,1,0,0,0,1,0,0,1,0,star,hexagon,,,,,,,,,,,,,,,,,,,,,,,,,,,,,,,,,,,,,,,,,,,,,,,,,,,,,,
293941,2022-11-21_12h01.05.798,vts_reward_expectancy_bt,2022.2.4,Win32,120.1923077,Firefox,1920,1080,,,a,1.426,1,632,2,1,7,19,7,1,0,0,1,0,0,1,0,0,hexagon,circle,,,,,,,,,,,,,,,,,,,,,,,,,,,,,,,,,,,,,,,,,,,,,,,,,,,,,,
293941,2022-11-21_12h01.05.798,vts_reward_expectancy_bt,2022.2.4,Win32,120.1923077,Firefox,1920,1080,,,l,0.847,1,633,2,1,8,20,6,1,0,0,1,0,1,0,0,0,hexagon,triangle,,,,,,,,,,,,,,,,,,,,,,,,,,,,,,,,,,,,,,,,,,,,,,,,,,,,,,
293941,2022-11-21_12h01.05.798,vts_reward_expectancy_bt,2022.2.4,Win32,120.1923077,Firefox,1920,1080,,,l,0.61,10,643,2,1,9,21,8,1,0,0,1,0,0,0,0,1,hexagon,star,,,,,,,,,,,,,,,,,,,,,,,,,,,,,,,,,,,,,,,,,,,,,,,,,,,,,,
293941,2022-11-21_12h01.05.798,vts_reward_expectancy_bt,2022.2.4,Win32,120.1923077,Firefox,1920,1080,,,l,0.76,1,644,2,1,10,22,5,1,0,1,0,0,0,0,0,1,circle,star,,,,,,,,,,,,,,,,,,,,,,,,,,,,,,,,,,,,,,,,,,,,,,,,,,,,,,
293941,2022-11-21_12h01.05.798,vts_reward_expectancy_bt,2022.2.4,Win32,120.1923077,Firefox,1920,1080,,,l,1.39,10,654,2,1,11,23,2,1,1,0,0,0,0,0,0,1,triangle,star,,,,,,,,,,,,,,,,,,,,,,,,,,,,,,,,,,,,,,,,,,,,,,,,,,,,,,
293941,2022-11-21_12h01.05.798,vts_reward_expectancy_bt,2022.2.4,Win32,120.1923077,Firefox,1920,1080,,,a,0.68,10,664,2,2,0,24,10,1,0,0,0,1,0,1,0,0,star ,circle,,,,,,,,,,,,,,,,,,,,,,,,,,,,,,,,,,,,,,,,,,,,,,,,,,,,,,
293941,2022-11-21_12h01.05.798,vts_reward_expectancy_bt,2022.2.4,Win32,120.1923077,Firefox,1920,1080,,,a,0.815,10,674,2,2,1,25,11,1,0,0,0,1,0,0,1,0,star,hexagon,,,,,,,,,,,,,,,,,,,,,,,,,,,,,,,,,,,,,,,,,,,,,,,,,,,,,,
293941,2022-11-21_12h01.05.798,vts_reward_expectancy_bt,2022.2.4,Win32,120.1923077,Firefox,1920,1080,,,a,1.03,10,684,2,2,2,26,9,1,0,0,0,1,1,0,0,0,star,triangle,,,,,,,,,,,,,,,,,,,,,,,,,,,,,,,,,,,,,,,,,,,,,,,,,,,,,,
293941,2022-11-21_12h01.05.798,vts_reward_expectancy_bt,2022.2.4,Win32,120.1923077,Firefox,1920,1080,,,l,0.892,1,685,2,2,3,27,3,1,0,1,0,0,1,0,0,0,circle,triangle,,,,,,,,,,,,,,,,,,,,,,,,,,,,,,,,,,,,,,,,,,,,,,,,,,,,,,
293941,2022-11-21_12h01.05.798,vts_reward_expectancy_bt,2022.2.4,Win32,120.1923077,Firefox,1920,1080,,,a,1.732,1,686,2,2,4,28,6,1,0,0,1,0,1,0,0,0,hexagon,triangle,,,,,,,,,,,,,,,,,,,,,,,,,,,,,,,,,,,,,,,,,,,,,,,,,,,,,,
293941,2022-11-21_12h01.05.798,vts_reward_expectancy_bt,2022.2.4,Win32,120.1923077,Firefox,1920,1080,,,l,2.039,10,696,2,2,5,29,1,1,1,0,0,0,0,0,1,0,triangle,hexagon,,,,,,,,,,,,,,,,,,,,,,,,,,,,,,,,,,,,,,,,,,,,,,,,,,,,,,
293941,2022-11-21_12h01.05.798,vts_reward_expectancy_bt,2022.2.4,Win32,120.1923077,Firefox,1920,1080,,,l,0.657,10,706,2,2,6,30,2,1,1,0,0,0,0,0,0,1,triangle,star,,,,,,,,,,,,,,,,,,,,,,,,,,,,,,,,,,,,,,,,,,,,,,,,,,,,,,
293941,2022-11-21_12h01.05.798,vts_reward_expectancy_bt,2022.2.4,Win32,120.1923077,Firefox,1920,1080,,,l,0.919,10,716,2,2,7,31,5,1,0,1,0,0,0,0,0,1,circle,star,,,,,,,,,,,,,,,,,,,,,,,,,,,,,,,,,,,,,,,,,,,,,,,,,,,,,,
293941,2022-11-21_12h01.05.798,vts_reward_expectancy_bt,2022.2.4,Win32,120.1923077,Firefox,1920,1080,,,l,1.221,1,717,2,2,8,32,0,1,1,0,0,0,0,1,0,0,triangle,circle,,,,,,,,,,,,,,,,,,,,,,,,,,,,,,,,,,,,,,,,,,,,,,,,,,,,,,
293941,2022-11-21_12h01.05.798,vts_reward_expectancy_bt,2022.2.4,Win32,120.1923077,Firefox,1920,1080,,,a,1.583,1,718,2,2,9,33,4,1,0,1,0,0,0,0,1,0,circle,hexagon,,,,,,,,,,,,,,,,,,,,,,,,,,,,,,,,,,,,,,,,,,,,,,,,,,,,,,
293941,2022-11-21_12h01.05.798,vts_reward_expectancy_bt,2022.2.4,Win32,120.1923077,Firefox,1920,1080,,,l,1.018,1,719,2,2,10,34,7,1,0,0,1,0,0,1,0,0,hexagon,circle,,,,,,,,,,,,,,,,,,,,,,,,,,,,,,,,,,,,,,,,,,,,,,,,,,,,,,
293941,2022-11-21_12h01.05.798,vts_reward_expectancy_bt,2022.2.4,Win32,120.1923077,Firefox,1920,1080,,,l,0.812,1,720,2,2,11,35,8,1,0,0,1,0,0,0,0,1,hexagon,star,,,,,,,,,,,,,,,,,,,,,,,,,,,,,,,,,,,,,,,,,,,,,,,,,,,,,,
293941,2022-11-21_12h01.05.798,vts_reward_expectancy_bt,2022.2.4,Win32,120.1923077,Firefox,1920,1080,,,,,,,,,,,,,,,,,,,,,,,W,167,circle,1,0,f,1.263,0,0,0,0,0,1,,,,,,,,,,,,,,,,,,,,,,,,,,,,,,,,,,,,,,,,,
293941,2022-11-21_12h01.05.798,vts_reward_expectancy_bt,2022.2.4,Win32,120.1923077,Firefox,1920,1080,,,,,,,,,,,,,,,,,,,,,,,Y,132,star,1,0,f,0.677,0,1,0,1,0,1,,,,,,,,,,,,,,,,,,,,,,,,,,,,,,,,,,,,,,,,,
293941,2022-11-21_12h01.05.798,vts_reward_expectancy_bt,2022.2.4,Win32,120.1923077,Firefox,1920,1080,,,,,,,,,,,,,,,,,,,,,,,S,174,triangle,1,0,f,0.791,0,2,0,2,0,1,,,,,,,,,,,,,,,,,,,,,,,,,,,,,,,,,,,,,,,,,
293941,2022-11-21_12h01.05.798,vts_reward_expectancy_bt,2022.2.4,Win32,120.1923077,Firefox,1920,1080,,,,,,,,,,,,,,,,,,,,,,,F,160,hexagon,1,0,d,0.567,0,3,0,3,0,1,,,,,,,,,,,,,,,,,,,,,,,,,,,,,,,,,,,,,,,,,
293941,2022-11-21_12h01.05.798,vts_reward_expectancy_bt,2022.2.4,Win32,120.1923077,Firefox,1920,1080,,,,,,,,,,,,,,,,,,,,,,,B,146,circle,1,0,d,0.535,0,4,0,4,0,1,,,,,,,,,,,,,,,,,,,,,,,,,,,,,,,,,,,,,,,,,
293941,2022-11-21_12h01.05.798,vts_reward_expectancy_bt,2022.2.4,Win32,120.1923077,Firefox,1920,1080,,,,,,,,,,,,,,,,,,,,,,,U,181,star,1,0,f,0.75,0,5,0,5,0,1,,,,,,,,,,,,,,,,,,,,,,,,,,,,,,,,,,,,,,,,,
293941,2022-11-21_12h01.05.798,vts_reward_expectancy_bt,2022.2.4,Win32,120.1923077,Firefox,1920,1080,,,,,,,,,,,,,,,,,,,,,,,H,139,triangle,1,0,d,0.56,0,6,0,6,0,1,,,,,,,,,,,,,,,,,,,,,,,,,,,,,,,,,,,,,,,,,
293941,2022-11-21_12h01.05.798,vts_reward_expectancy_bt,2022.2.4,Win32,120.1923077,Firefox,1920,1080,,,,,,,,,,,,,,,,,,,,,,,D,125,hexagon,1,0,d,0.545,0,7,0,7,0,1,,,,,,,,,,,,,,,,,,,,,,,,,,,,,,,,,,,,,,,,,
293941,2022-11-21_12h01.05.798,vts_reward_expectancy_bt,2022.2.4,Win32,120.1923077,Firefox,1920,1080,,,,,,,,,,,,,,,,,,,,,,,W,167,hexagon,1,0,f,0.645,0,8,0,8,0,1,,,,,,,,,,,,,,,,,,,,,,,,,,,,,,,,,,,,,,,,,
293941,2022-11-21_12h01.05.798,vts_reward_expectancy_bt,2022.2.4,Win32,120.1923077,Firefox,1920,1080,,,,,,,,,,,,,,,,,,,,,,,Y,132,triangle,1,0,f,0.696,0,9,0,9,0,1,,,,,,,,,,,,,,,,,,,,,,,,,,,,,,,,,,,,,,,,,
293941,2022-11-21_12h01.05.798,vts_reward_expectancy_bt,2022.2.4,Win32,120.1923077,Firefox,1920,1080,,,,,,,,,,,,,,,,,,,,,,,U,181,hexagon,1,0,,,1,,,,,,k,0.581,0,0,0,0,1,,,,,,,,,,,,,,,,,,,,,,,,,,,,,,,,,,
293941,2022-11-21_12h01.05.798,vts_reward_expectancy_bt,2022.2.4,Win32,120.1923077,Firefox,1920,1080,,,,,,,,,,,,,,,,,,,,,,,B,139,circle,1,0,,,1,,,,,,j,0.535,1,0,1,0,1,,,,,,,,,,,,,,,,,,,,,,,,,,,,,,,,,,
293941,2022-11-21_12h01.05.798,vts_reward_expectancy_bt,2022.2.4,Win32,120.1923077,Firefox,1920,1080,,,,,,,,,,,,,,,,,,,,,,,S,167,star,1,0,,,1,,,,,,k,1.319,2,0,2,0,1,,,,,,,,,,,,,,,,,,,,,,,,,,,,,,,,,,
293941,2022-11-21_12h01.05.798,vts_reward_expectancy_bt,2022.2.4,Win32,120.1923077,Firefox,1920,1080,,,,,,,,,,,,,,,,,,,,,,,W,132,triangle,1,0,,,1,,,,,,j,0.798,3,0,3,0,1,,,,,,,,,,,,,,,,,,,,,,,,,,,,,,,,,,
293941,2022-11-21_12h01.05.798,vts_reward_expectancy_bt,2022.2.4,Win32,120.1923077,Firefox,1920,1080,,,,,,,,,,,,,,,,,,,,,,,H,160,hexagon,1,0,,,1,,,,,,k,0.897,4,0,4,0,1,,,,,,,,,,,,,,,,,,,,,,,,,,,,,,,,,,
293941,2022-11-21_12h01.05.798,vts_reward_expectancy_bt,2022.2.4,Win32,120.1923077,Firefox,1920,1080,,,,,,,,,,,,,,,,,,,,,,,Y,174,circle,1,0,,,1,,,,,,k,0.47,5,0,5,0,1,,,,,,,,,,,,,,,,,,,,,,,,,,,,,,,,,,
293941,2022-11-21_12h01.05.798,vts_reward_expectancy_bt,2022.2.4,Win32,120.1923077,Firefox,1920,1080,,,,,,,,,,,,,,,,,,,,,,,F,146,star,1,0,,,1,,,,,,j,0.553,6,0,6,0,1,,,,,,,,,,,,,,,,,,,,,,,,,,,,,,,,,,
293941,2022-11-21_12h01.05.798,vts_reward_expectancy_bt,2022.2.4,Win32,120.1923077,Firefox,1920,1080,,,,,,,,,,,,,,,,,,,,,,,D,125,triangle,1,0,,,1,,,,,,j,0.669,7,0,7,0,1,,,,,,,,,,,,,,,,,,,,,,,,,,,,,,,,,,
293941,2022-11-21_12h01.05.798,vts_reward_expectancy_bt,2022.2.4,Win32,120.1923077,Firefox,1920,1080,,,,,,,,,,,,,,,,,,,,,,,U,181,triangle,1,0,,,1,,,,,,k,0.506,8,0,8,0,1,,,,,,,,,,,,,,,,,,,,,,,,,,,,,,,,,,
293941,2022-11-21_12h01.05.798,vts_reward_expectancy_bt,2022.2.4,Win32,120.1923077,Firefox,1920,1080,,,,,,,,,,,,,,,,,,,,,,,B,139,circle,1,0,,,1,,,,,,j,0.774,9,0,9,0,1,,,,,,,,,,,,,,,,,,,,,,,,,,,,,,,,,,
293941,2022-11-21_12h01.05.798,vts_reward_expectancy_bt,2022.2.4,Win32,120.1923077,Firefox,1920,1080,,,,,0,720,,,,,,,,,,,,,,,,,W,167,hexagon,1,0,,,2,,,,,,,,,,,,,-1,letter,NA,f,2.274,vtsPrac,0,0,0,0,1,,,,,,,,,,,,,,,,,,,,,,,
293941,2022-11-21_12h01.05.798,vts_reward_expectancy_bt,2022.2.4,Win32,120.1923077,Firefox,1920,1080,,,,,0,720,,,,,,,,,,,,,,,,,Y,146,triangle,1,0,,,2,,,,,,,,,,,,,repeat,letter,lettRpt,f,1.135,vtsPrac,1,0,1,0,1,,,,,,,,,,,,,,,,,,,,,,,
293941,2022-11-21_12h01.05.798,vts_reward_expectancy_bt,2022.2.4,Win32,120.1923077,Firefox,1920,1080,,,,,0,720,,,,,,,,,,,,,,,,,D,132,hexagon,1,0,,,2,,,,,,,,,,,,,repeat,letter,lettRpt,d,0.608,vtsPrac,2,0,2,0,1,,,,,,,,,,,,,,,,,,,,,,,
293941,2022-11-21_12h01.05.798,vts_reward_expectancy_bt,2022.2.4,Win32,120.1923077,Firefox,1920,1080,,,,,0,720,,,,,,,,,,,,,,,,,S,174,triangle,1,0,,,2,,,,,,,,,,,,,repeat,letter,lettRpt,f,1.051,vtsPrac,3,0,3,0,1,,,,,,,,,,,,,,,,,,,,,,,
293941,2022-11-21_12h01.05.798,vts_reward_expectancy_bt,2022.2.4,Win32,120.1923077,Firefox,1920,1080,,,,,0,720,,,,,,,,,,,,,,,,,W,167,triangle,1,0,,,2,,,,,,,,,,,,,switch,number,numSwt,k,1.217,vtsPrac,4,0,4,0,1,,,,,,,,,,,,,,,,,,,,,,,
293941,2022-11-21_12h01.05.798,vts_reward_expectancy_bt,2022.2.4,Win32,120.1923077,Firefox,1920,1080,,,,,0,720,,,,,,,,,,,,,,,,,Y,146,hexagon,1,0,,,2,,,,,,,,,,,,,switch,letter,lettSwt,f,0.637,vtsPrac,5,0,5,0,1,,,,,,,,,,,,,,,,,,,,,,,
293941,2022-11-21_12h01.05.798,vts_reward_expectancy_bt,2022.2.4,Win32,120.1923077,Firefox,1920,1080,,,,,0,720,,,,,,,,,,,,,,,,,D,132,triangle,1,0,,,2,,,,,,,,,,,,,switch,number,numSwt,j,0.836,vtsPrac,6,0,6,0,1,,,,,,,,,,,,,,,,,,,,,,,
293941,2022-11-21_12h01.05.798,vts_reward_expectancy_bt,2022.2.4,Win32,120.1923077,Firefox,1920,1080,,,,,0,720,,,,,,,,,,,,,,,,,S,174,circle,1,0,,,2,,,,,,,,,,,,,repeat,number,numRpt,k,1.612,vtsPrac,7,0,7,0,1,,,,,,,,,,,,,,,,,,,,,,,
293941,2022-11-21_12h01.05.798,vts_reward_expectancy_bt,2022.2.4,Win32,120.1923077,Firefox,1920,1080,,,,,0,720,,,,,,,,,,,,,,,,,Y,139,star,1,0,,,2,,,,,,,,,,,,,repeat,number,numRpt,j,0.987,vtsPrac,8,0,8,0,1,,,,,,,,,,,,,,,,,,,,,,,
293941,2022-11-21_12h01.05.798,vts_reward_expectancy_bt,2022.2.4,Win32,120.1923077,Firefox,1920,1080,,,,,0,720,,,,,,,,,,,,,,,,,D,125,hexagon,1,0,,,2,,,,,,,,,,,,,repeat,number,numRpt,j,0.643,vtsPrac,9,0,9,0,1,,,,,,,,,,,,,,,,,,,,,,,
293941,2022-11-21_12h01.05.798,vts_reward_expectancy_bt,2022.2.4,Win32,120.1923077,Firefox,1920,1080,,,,,0,720,,,,,,,,,,,,,,,,,B,174,hexagon,1,0,,,2,,,,,,,,,,,,,repeat,number,numRpt,k,0.577,vtsPrac,10,0,10,0,1,,,,,,,,,,,,,,,,,,,,,,,
293941,2022-11-21_12h01.05.798,vts_reward_expectancy_bt,2022.2.4,Win32,120.1923077,Firefox,1920,1080,,,,,0,720,,,,,,,,,,,,,,,,,S,160,star,1,0,,,2,,,,,,,,,,,,,switch,letter,lettSwt,f,0.468,vtsPrac,11,0,11,0,1,,,,,,,,,,,,,,,,,,,,,,,
293941,2022-11-21_12h01.05.798,vts_reward_expectancy_bt,2022.2.4,Win32,120.1923077,Firefox,1920,1080,,,,,0,720,,,,,,,,,,,,,,,,,S,132,triangle,1,0,,,2,,,,,,,,,,,,,repeat,letter,lettRpt,f,0.552,vtsPrac,12,0,12,0,1,,,,,,,,,,,,,,,,,,,,,,,
293941,2022-11-21_12h01.05.798,vts_reward_expectancy_bt,2022.2.4,Win32,120.1923077,Firefox,1920,1080,,,,,0,720,,,,,,,,,,,,,,,,,F,174,circle,1,0,,,2,,,,,,,,,,,,,switch,number,numSwt,k,0.749,vtsPrac,13,0,13,0,1,,,,,,,,,,,,,,,,,,,,,,,
293941,2022-11-21_12h01.05.798,vts_reward_expectancy_bt,2022.2.4,Win32,120.1923077,Firefox,1920,1080,,,,,0,720,,,,,,,,,,,,,,,,,U,167,triangle,1,0,,,2,,,,,,,,,,,,,repeat,number,numRpt,k,0.631,vtsPrac,14,0,14,0,1,,,,,,,,,,,,,,,,,,,,,,,
293941,2022-11-21_12h01.05.798,vts_reward_expectancy_bt,2022.2.4,Win32,120.1923077,Firefox,1920,1080,,,,,0,720,,,,,,,,,,,,,,,,,W,139,star,1,0,,,2,,,,,,,,,,,,,repeat,number,numRpt,j,0.618,vtsPrac,15,0,15,0,1,,,,,,,,,,,,,,,,,,,,,,,
293941,2022-11-21_12h01.05.798,vts_reward_expectancy_bt,2022.2.4,Win32,120.1923077,Firefox,1920,1080,,,,,0,720,,,,,,,,,,,,,,,,,U,181,hexagon,1,0,,,2,,,,,,,,,,,,,repeat,number,numRpt,k,0.648,vtsPrac,16,0,16,0,1,,,,,,,,,,,,,,,,,,,,,,,
293941,2022-11-21_12h01.05.798,vts_reward_expectancy_bt,2022.2.4,Win32,120.1923077,Firefox,1920,1080,,,,,0,720,,,,,,,,,,,,,,,,,Y,139,circle,1,0,,,2,,,,,,,,,,,,,switch,letter,lettSwt,f,0.931,vtsPrac,17,0,17,0,1,,,,,,,,,,,,,,,,,,,,,,,
293941,2022-11-21_12h01.05.798,vts_reward_expectancy_bt,2022.2.4,Win32,120.1923077,Firefox,1920,1080,,,,,0,720,,,,,,,,,,,,,,,,,D,125,triangle,1,0,,,2,,,,,,,,,,,,,repeat,letter,lettRpt,d,1.129,vtsPrac,18,0,18,0,1,,,,,,,,,,,,,,,,,,,,,,,
293941,2022-11-21_12h01.05.798,vts_reward_expectancy_bt,2022.2.4,Win32,120.1923077,Firefox,1920,1080,,,,,0,720,,,,,,,,,,,,,,,,,B,146,star,1,0,,,2,,,,,,,,,,,,,repeat,letter,lettRpt,d,0.876,vtsPrac,19,0,19,0,1,,,,,,,,,,,,,,,,,,,,,,,
293941,2022-11-21_12h01.05.798,vts_reward_expectancy_bt,2022.2.4,Win32,120.1923077,Firefox,1920,1080,,,,,0,720,,,,,,,,,,,,,,,,,S,181,star,1,0,,,2,,,,,,,,,,,,,repeat,letter,lettRpt,f,0.909,vtsPrac,20,0,20,0,1,,,,,,,,,,,,,,,,,,,,,,,
293941,2022-11-21_12h01.05.798,vts_reward_expectancy_bt,2022.2.4,Win32,120.1923077,Firefox,1920,1080,,,,,0,720,,,,,,,,,,,,,,,,,B,139,circle,1,0,,,2,,,,,,,,,,,,,switch,number,numSwt,j,0.673,vtsPrac,21,0,21,0,1,,,,,,,,,,,,,,,,,,,,,,,
293941,2022-11-21_12h01.05.798,vts_reward_expectancy_bt,2022.2.4,Win32,120.1923077,Firefox,1920,1080,,,,,0,720,,,,,,,,,,,,,,,,,H,125,hexagon,1,0,,,2,,,,,,,,,,,,,switch,letter,lettSwt,d,1.026,vtsPrac,22,0,22,0,1,,,,,,,,,,,,,,,,,,,,,,,
293941,2022-11-21_12h01.05.798,vts_reward_expectancy_bt,2022.2.4,Win32,120.1923077,Firefox,1920,1080,,,,,0,720,,,,,,,,,,,,,,,,,U,132,triangle,1,0,,,2,,,,,,,,,,,,,repeat,letter,lettRpt,f,1.688,vtsPrac,23,0,23,0,1,,,,,,,,,,,,,,,,,,,,,,,
293941,2022-11-21_12h01.05.798,vts_reward_expectancy_bt,2022.2.4,Win32,120.1923077,Firefox,1920,1080,,,,,0,720,,,,,,,,,,,,,,,,,Y,167,circle,1,0,,,2,,,,,,,,,,,,,switch,number,numSwt,k,2.281,vtsPrac,24,0,24,0,1,,,,,,,,,,,,,,,,,,,,,,,
293941,2022-11-21_12h01.05.798,vts_reward_expectancy_bt,2022.2.4,Win32,120.1923077,Firefox,1920,1080,,,,,0,720,,,,,,,,,,,,,,,,,B,174,star,1,0,,,2,,,,,,,,,,,,,switch,letter,lettSwt,d,0.727,vtsPrac,25,0,25,0,1,,,,,,,,,,,,,,,,,,,,,,,
293941,2022-11-21_12h01.05.798,vts_reward_expectancy_bt,2022.2.4,Win32,120.1923077,Firefox,1920,1080,,,,,0,720,,,,,,,,,,,,,,,,,W,181,circle,1,0,,,2,,,,,,,,,,,,,repeat,letter,lettRpt,f,0.711,vtsPrac,26,0,26,0,1,,,,,,,,,,,,,,,,,,,,,,,
293941,2022-11-21_12h01.05.798,vts_reward_expectancy_bt,2022.2.4,Win32,120.1923077,Firefox,1920,1080,,,,,0,720,,,,,,,,,,,,,,,,,U,160,star,1,0,,,2,,,,,,,,,,,,,switch,number,numSwt,k,1.224,vtsPrac,27,0,27,0,1,,,,,,,,,,,,,,,,,,,,,,,
293941,2022-11-21_12h01.05.798,vts_reward_expectancy_bt,2022.2.4,Win32,120.1923077,Firefox,1920,1080,,,,,0,720,,,,,,,,,,,,,,,,,H,139,triangle,1,0,,,2,,,,,,,,,,,,,switch,letter,lettSwt,d,1.208,vtsPrac,28,0,28,0,1,,,,,,,,,,,,,,,,,,,,,,,
293941,2022-11-21_12h01.05.798,vts_reward_expectancy_bt,2022.2.4,Win32,120.1923077,Firefox,1920,1080,,,,,0,720,,,,,,,,,,,,,,,,,Y,125,circle,1,0,,,2,,,,,,,,,,,,,switch,number,numSwt,j,1.088,vtsPrac,29,0,29,0,1,,,,,,,,,,,,,,,,,,,,,,,
293941,2022-11-21_12h01.05.798,vts_reward_expectancy_bt,2022.2.4,Win32,120.1923077,Firefox,1920,1080,,,,,0,720,,,,,,,,,,,,,,,,,D,181,star,1,0,,,2,,,,,,,,,,,,,switch,letter,lettSwt,d,0.736,vtsPrac,30,0,30,0,1,,,,,,,,,,,,,,,,,,,,,,,
293941,2022-11-21_12h01.05.798,vts_reward_expectancy_bt,2022.2.4,Win32,120.1923077,Firefox,1920,1080,,,,,0,720,,,,,,,,,,,,,,,,,S,167,circle,1,0,,,2,,,,,,,,,,,,,repeat,letter,lettRpt,f,0.79,vtsPrac,31,0,31,0,1,,,,,,,,,,,,,,,,,,,,,,,
293941,2022-11-21_12h01.05.798,vts_reward_expectancy_bt,2022.2.4,Win32,120.1923077,Firefox,1920,1080,,,,,,,,,,,,,,,,,,,,,,,,,,,,,,,,,,,,,,,,,,,,,,,,,,,,,,,,,,,,,,,,,,,,,,,,,,,,
293941,2022-11-21_12h01.05.798,vts_reward_expectancy_bt,2022.2.4,Win32,120.1923077,Firefox,1920,1080,,,,,,,,,,,,,,,,,,,,,,,,,,,,,,,,,,,,,,,,,,,,,,,,,,,,,,,,,,,,,,,,,,,,,,,,,,,,
293941,2022-11-21_12h01.05.798,vts_reward_expectancy_bt,2022.2.4,Win32,120.1923077,Firefox,1920,1080,,,,,0,720,,,,,,,,,,,,,,,,,D,160,triangle,1,0,,,,,,,,,,,,,,,,repeat,letter,lettRpt,d,0.906,noRew,,,,,,0,0,0,0,0,1,,,,,,,,,,,,,,,,,
293941,2022-11-21_12h01.05.798,vts_reward_expectancy_bt,2022.2.4,Win32,120.1923077,Firefox,1920,1080,,,,,0,720,,,,,,,,,,,,,,,,,F,181,circle,1,0,,,,,,,,,,,,,,,,repeat,letter,lettRpt,d,1.003,noRew,,,,,,0,1,0,1,0,1,,,,,,,,,,,,,,,,,
293941,2022-11-21_12h01.05.798,vts_reward_expectancy_bt,2022.2.4,Win32,120.1923077,Firefox,1920,1080,,,,,0,720,,,,,,,,,,,,,,,,,U,132,triangle,1,0,,,,,,,,,,,,,,,,repeat,letter,lettRpt,f,0.612,noRew,,,,,,0,2,0,2,0,1,,,,,,,,,,,,,,,,,
293941,2022-11-21_12h01.05.798,vts_reward_expectancy_bt,2022.2.4,Win32,120.1923077,Firefox,1920,1080,,,,,0,720,,,,,,,,,,,,,,,,,B,139,circle,1,0,,,,,,,,,,,,,,,,switch,number,numSwt,j,0.634,noRew,,,,,,0,3,0,3,0,1,,,,,,,,,,,,,,,,,
293941,2022-11-21_12h01.05.798,vts_reward_expectancy_bt,2022.2.4,Win32,120.1923077,Firefox,1920,1080,,,,,0,720,,,,,,,,,,,,,,,,,D,160,circle,1,0,,,,,,,,,,,,,,,,repeat,number,numRpt,k,0.938,noRew,,,,,,0,4,0,4,0,1,,,,,,,,,,,,,,,,,
293941,2022-11-21_12h01.05.798,vts_reward_expectancy_bt,2022.2.4,Win32,120.1923077,Firefox,1920,1080,,,,,0,720,,,,,,,,,,,,,,,,,F,181,triangle,1,0,,,,,,,,,,,,,,,,switch,letter,lettSwt,d,1.035,noRew,,,,,,0,5,0,5,0,1,,,,,,,,,,,,,,,,,
293941,2022-11-21_12h01.05.798,vts_reward_expectancy_bt,2022.2.4,Win32,120.1923077,Firefox,1920,1080,,,,,0,720,,,,,,,,,,,,,,,,,U,132,star,1,0,,,,,,,,,,,,,,,,repeat,letter,lettRpt,f,0.996,noRew,,,,,,0,6,0,6,0,1,,,,,,,,,,,,,,,,,
293941,2022-11-21_12h01.05.798,vts_reward_expectancy_bt,2022.2.4,Win32,120.1923077,Firefox,1920,1080,,,,,0,720,,,,,,,,,,,,,,,,,B,139,hexagon,1,0,,,,,,,,,,,,,,,,repeat,letter,lettRpt,d,1.167,noRew,,,,,,0,7,0,7,0,1,,,,,,,,,,,,,,,,,
293941,2022-11-21_12h01.05.798,vts_reward_expectancy_bt,2022.2.4,Win32,120.1923077,Firefox,1920,1080,,,,,0,720,,,,,,,,,,,,,,,,,S,167,circle,1,0,,,,,,,,,,,,,,,,switch,number,numSwt,k,0.919,noRew,,,,,,0,8,0,8,0,1,,,,,,,,,,,,,,,,,
293941,2022-11-21_12h01.05.798,vts_reward_expectancy_bt,2022.2.4,Win32,120.1923077,Firefox,1920,1080,,,,,0,720,,,,,,,,,,,,,,,,,U,160,star,1,0,,,,,,,,,,,,,,,,repeat,number,numRpt,k,0.817,noRew,,,,,,0,9,0,9,0,1,,,,,,,,,,,,,,,,,
293941,2022-11-21_12h01.05.798,vts_reward_expectancy_bt,2022.2.4,Win32,120.1923077,Firefox,1920,1080,,,,,0,720,,,,,,,,,,,,,,,,,H,181,star,1,0,,,,,,,,,,,,,,,,repeat,number,numRpt,k,0.887,noRew,,,,,,0,10,0,10,0,1,,,,,,,,,,,,,,,,,
293941,2022-11-21_12h01.05.798,vts_reward_expectancy_bt,2022.2.4,Win32,120.1923077,Firefox,1920,1080,,,,,0,720,,,,,,,,,,,,,,,,,Y,146,triangle,1,0,,,,,,,,,,,,,,,,repeat,number,numRpt,j,0.832,noRew,,,,,,0,11,0,11,0,1,,,,,,,,,,,,,,,,,
293941,2022-11-21_12h01.05.798,vts_reward_expectancy_bt,2022.2.4,Win32,120.1923077,Firefox,1920,1080,,,,,0,720,,,,,,,,,,,,,,,,,Y,167,star,1,0,,,,,,,,,,,,,,,,repeat,number,numRpt,k,0.976,noRew,,,,,,0,12,0,12,0,1,,,,,,,,,,,,,,,,,
293941,2022-11-21_12h01.05.798,vts_reward_expectancy_bt,2022.2.4,Win32,120.1923077,Firefox,1920,1080,,,,,0,720,,,,,,,,,,,,,,,,,D,125,triangle,1,0,,,,,,,,,,,,,,,,switch,letter,lettSwt,d,1.053,noRew,,,,,,0,13,0,13,0,1,,,,,,,,,,,,,,,,,
293941,2022-11-21_12h01.05.798,vts_reward_expectancy_bt,2022.2.4,Win32,120.1923077,Firefox,1920,1080,,,,,0,720,,,,,,,,,,,,,,,,,B,139,star,1,0,,,,,,,,,,,,,,,,repeat,letter,lettRpt,d,0.659,noRew,,,,,,0,14,0,14,0,1,,,,,,,,,,,,,,,,,
293941,2022-11-21_12h01.05.798,vts_reward_expectancy_bt,2022.2.4,Win32,120.1923077,Firefox,1920,1080,,,,,0,720,,,,,,,,,,,,,,,,,W,132,triangle,1,0,,,,,,,,,,,,,,,,repeat,letter,lettRpt,f,0.958,noRew,,,,,,0,15,0,15,0,1,,,,,,,,,,,,,,,,,
293941,2022-11-21_12h01.05.798,vts_reward_expectancy_bt,2022.2.4,Win32,120.1923077,Firefox,1920,1080,,,,,0,720,,,,,,,,,,,,,,,,,B,125,star,1,0,,,,,,,,,,,,,,,,switch,number,numSwt,j,0.718,noRew,,,,,,0,16,0,16,0,1,,,,,,,,,,,,,,,,,
293941,2022-11-21_12h01.05.798,vts_reward_expectancy_bt,2022.2.4,Win32,120.1923077,Firefox,1920,1080,,,,,0,720,,,,,,,,,,,,,,,,,W,181,circle,1,0,,,,,,,,,,,,,,,,switch,letter,lettSwt,f,0.737,noRew,,,,,,0,17,0,17,0,1,,,,,,,,,,,,,,,,,
293941,2022-11-21_12h01.05.798,vts_reward_expectancy_bt,2022.2.4,Win32,120.1923077,Firefox,1920,1080,,,,,0,720,,,,,,,,,,,,,,,,,U,174,triangle,1,0,,,,,,,,,,,,,,,,repeat,letter,lettRpt,f,0.764,noRew,,,,,,0,18,0,18,0,1,,,,,,,,,,,,,,,,,
293941,2022-11-21_12h01.05.798,vts_reward_expectancy_bt,2022.2.4,Win32,120.1923077,Firefox,1920,1080,,,,,0,720,,,,,,,,,,,,,,,,,Y,139,star,1,0,,,,,,,,,,,,,,,,switch,number,numSwt,j,0.479,noRew,,,,,,0,19,0,19,0,1,,,,,,,,,,,,,,,,,
293941,2022-11-21_12h01.05.798,vts_reward_expectancy_bt,2022.2.4,Win32,120.1923077,Firefox,1920,1080,,,,,0,720,,,,,,,,,,,,,,,,,S,125,circle,1,0,,,,,,,,,,,,,,,,repeat,number,numRpt,j,0.605,noRew,,,,,,0,20,0,20,0,1,,,,,,,,,,,,,,,,,
293941,2022-11-21_12h01.05.798,vts_reward_expectancy_bt,2022.2.4,Win32,120.1923077,Firefox,1920,1080,,,,,0,720,,,,,,,,,,,,,,,,,B,174,hexagon,1,0,,,,,,,,,,,,,,,,repeat,number,numRpt,k,0.645,noRew,,,,,,0,21,0,21,0,1,,,,,,,,,,,,,,,,,
293941,2022-11-21_12h01.05.798,vts_reward_expectancy_bt,2022.2.4,Win32,120.1923077,Firefox,1920,1080,,,,,0,720,,,,,,,,,,,,,,,,,Y,146,circle,1,0,,,,,,,,,,,,,,,,switch,letter,lettSwt,f,0.719,noRew,,,,,,0,22,0,22,0,1,,,,,,,,,,,,,,,,,
293941,2022-11-21_12h01.05.798,vts_reward_expectancy_bt,2022.2.4,Win32,120.1923077,Firefox,1920,1080,,,,,0,720,,,,,,,,,,,,,,,,,F,160,triangle,1,0,,,,,,,,,,,,,,,,switch,number,numSwt,k,0.755,noRew,,,,,,0,23,0,23,0,1,,,,,,,,,,,,,,,,,
293941,2022-11-21_12h01.05.798,vts_reward_expectancy_bt,2022.2.4,Win32,120.1923077,Firefox,1920,1080,,,,,0,720,,,,,,,,,,,,,,,,,Y,125,circle,1,0,,,,,,,,,,,,,,,,repeat,number,numRpt,j,0.527,noRew,,,,,,0,24,0,24,0,1,,,,,,,,,,,,,,,,,
293941,2022-11-21_12h01.05.798,vts_reward_expectancy_bt,2022.2.4,Win32,120.1923077,Firefox,1920,1080,,,,,0,720,,,,,,,,,,,,,,,,,H,146,star,1,0,,,,,,,,,,,,,,,,repeat,number,numRpt,j,0.791,noRew,,,,,,0,25,0,25,0,1,,,,,,,,,,,,,,,,,
293941,2022-11-21_12h01.05.798,vts_reward_expectancy_bt,2022.2.4,Win32,120.1923077,Firefox,1920,1080,,,,,0,720,,,,,,,,,,,,,,,,,F,132,star,1,0,,,,,,,,,,,,,,,,repeat,number,numRpt,j,0.508,noRew,,,,,,0,26,0,26,0,1,,,,,,,,,,,,,,,,,
293941,2022-11-21_12h01.05.798,vts_reward_expectancy_bt,2022.2.4,Win32,120.1923077,Firefox,1920,1080,,,,,0,720,,,,,,,,,,,,,,,,,B,181,circle,1,0,,,,,,,,,,,,,,,,switch,letter,lettSwt,d,0.744,noRew,,,,,,0,27,0,27,0,1,,,,,,,,,,,,,,,,,
293941,2022-11-21_12h01.05.798,vts_reward_expectancy_bt,2022.2.4,Win32,120.1923077,Firefox,1920,1080,,,,,0,720,,,,,,,,,,,,,,,,,S,146,circle,1,0,,,,,,,,,,,,,,,,repeat,letter,lettRpt,f,0.62,noRew,,,,,,0,28,0,28,0,1,,,,,,,,,,,,,,,,,
293941,2022-11-21_12h01.05.798,vts_reward_expectancy_bt,2022.2.4,Win32,120.1923077,Firefox,1920,1080,,,,,0,720,,,,,,,,,,,,,,,,,U,160,triangle,1,0,,,,,,,,,,,,,,,,repeat,letter,lettRpt,f,0.664,noRew,,,,,,0,29,0,29,0,1,,,,,,,,,,,,,,,,,
293941,2022-11-21_12h01.05.798,vts_reward_expectancy_bt,2022.2.4,Win32,120.1923077,Firefox,1920,1080,,,,,0,720,,,,,,,,,,,,,,,,,W,125,hexagon,1,0,,,,,,,,,,,,,,,,repeat,letter,lettRpt,f,0.82,noRew,,,,,,0,30,0,30,0,1,,,,,,,,,,,,,,,,,
293941,2022-11-21_12h01.05.798,vts_reward_expectancy_bt,2022.2.4,Win32,120.1923077,Firefox,1920,1080,,,,,0,720,,,,,,,,,,,,,,,,,H,174,circle,1,0,,,,,,,,,,,,,,,,repeat,letter,lettRpt,d,1.077,noRew,,,,,,0,31,0,31,0,1,,,,,,,,,,,,,,,,,
293941,2022-11-21_12h01.05.798,vts_reward_expectancy_bt,2022.2.4,Win32,120.1923077,Firefox,1920,1080,,,,,0,720,,,,,,,,,,,,,,,,,D,146,circle,1,0,,,,,,,,,,,,,,,,repeat,letter,lettRpt,d,0.728,noRew,,,,,,0,32,0,32,0,1,,,,,,,,,,,,,,,,,
293941,2022-11-21_12h01.05.798,vts_reward_expectancy_bt,2022.2.4,Win32,120.1923077,Firefox,1920,1080,,,,,0,720,,,,,,,,,,,,,,,,,Y,174,hexagon,1,0,,,,,,,,,,,,,,,,switch,number,numSwt,k,0.703,noRew,,,,,,0,33,0,33,0,1,,,,,,,,,,,,,,,,,
293941,2022-11-21_12h01.05.798,vts_reward_expectancy_bt,2022.2.4,Win32,120.1923077,Firefox,1920,1080,,,,,0,720,,,,,,,,,,,,,,,,,W,181,star,0,0,,,,,,,,,,,,,,,,switch,letter,NA,d,0.686,noRew,,,,,,0,34,0,34,0,1,,,,,,,,,,,,,,,,,
293941,2022-11-21_12h01.05.798,vts_reward_expectancy_bt,2022.2.4,Win32,120.1923077,Firefox,1920,1080,,,,,0,720,,,,,,,,,,,,,,,,,U,132,triangle,1,1,,,,,,,,,,,,,,,,repeat,letter,lettRpt,f,0.943,noRew,,,,,,0,35,0,35,0,1,,,,,,,,,,,,,,,,,
293941,2022-11-21_12h01.05.798,vts_reward_expectancy_bt,2022.2.4,Win32,120.1923077,Firefox,1920,1080,,,,,0,720,,,,,,,,,,,,,,,,,U,167,star,1,0,,,,,,,,,,,,,,,,repeat,letter,lettRpt,f,0.611,noRew,,,,,,0,36,0,36,0,1,,,,,,,,,,,,,,,,,
293941,2022-11-21_12h01.05.798,vts_reward_expectancy_bt,2022.2.4,Win32,120.1923077,Firefox,1920,1080,,,,,0,720,,,,,,,,,,,,,,,,,F,139,triangle,1,0,,,,,,,,,,,,,,,,repeat,letter,lettRpt,d,1.024,noRew,,,,,,0,37,0,37,0,1,,,,,,,,,,,,,,,,,
293941,2022-11-21_12h01.05.798,vts_reward_expectancy_bt,2022.2.4,Win32,120.1923077,Firefox,1920,1080,,,,,0,720,,,,,,,,,,,,,,,,,B,132,hexagon,1,0,,,,,,,,,,,,,,,,repeat,letter,lettRpt,d,0.593,noRew,,,,,,0,38,0,38,0,1,,,,,,,,,,,,,,,,,
293941,2022-11-21_12h01.05.798,vts_reward_expectancy_bt,2022.2.4,Win32,120.1923077,Firefox,1920,1080,,,,,0,720,,,,,,,,,,,,,,,,,H,146,triangle,1,0,,,,,,,,,,,,,,,,switch,number,numSwt,j,0.676,noRew,,,,,,0,39,0,39,0,1,,,,,,,,,,,,,,,,,
293941,2022-11-21_12h01.05.798,vts_reward_expectancy_bt,2022.2.4,Win32,120.1923077,Firefox,1920,1080,,,,,0,720,,,,,,,,,,,,,,,,,S,160,triangle,1,0,,,,,,,,,,,,,,,,repeat,number,numRpt,k,1.22,noRew,,,,,,0,40,0,40,0,1,,,,,,,,,,,,,,,,,
293941,2022-11-21_12h01.05.798,vts_reward_expectancy_bt,2022.2.4,Win32,120.1923077,Firefox,1920,1080,,,,,0,720,,,,,,,,,,,,,,,,,D,174,hexagon,1,0,,,,,,,,,,,,,,,,repeat,number,numRpt,k,0.72,noRew,,,,,,0,41,0,41,0,1,,,,,,,,,,,,,,,,,
293941,2022-11-21_12h01.05.798,vts_reward_expectancy_bt,2022.2.4,Win32,120.1923077,Firefox,1920,1080,,,,,0,720,,,,,,,,,,,,,,,,,Y,125,hexagon,1,0,,,,,,,,,,,,,,,,repeat,number,numRpt,j,0.764,noRew,,,,,,0,42,0,42,0,1,,,,,,,,,,,,,,,,,
293941,2022-11-21_12h01.05.798,vts_reward_expectancy_bt,2022.2.4,Win32,120.1923077,Firefox,1920,1080,,,,,0,720,,,,,,,,,,,,,,,,,F,132,circle,1,0,,,,,,,,,,,,,,,,repeat,number,numRpt,j,0.618,noRew,,,,,,0,43,0,43,0,1,,,,,,,,,,,,,,,,,
293941,2022-11-21_12h01.05.798,vts_reward_expectancy_bt,2022.2.4,Win32,120.1923077,Firefox,1920,1080,,,,,0,720,,,,,,,,,,,,,,,,,H,181,circle,1,0,,,,,,,,,,,,,,,,repeat,number,numRpt,k,0.64,noRew,,,,,,0,44,0,44,0,1,,,,,,,,,,,,,,,,,
293941,2022-11-21_12h01.05.798,vts_reward_expectancy_bt,2022.2.4,Win32,120.1923077,Firefox,1920,1080,,,,,0,720,,,,,,,,,,,,,,,,,D,132,hexagon,1,0,,,,,,,,,,,,,,,,switch,letter,lettSwt,d,1.29,noRew,,,,,,0,45,0,45,0,1,,,,,,,,,,,,,,,,,
293941,2022-11-21_12h01.05.798,vts_reward_expectancy_bt,2022.2.4,Win32,120.1923077,Firefox,1920,1080,,,,,0,720,,,,,,,,,,,,,,,,,U,139,star,1,0,,,,,,,,,,,,,,,,repeat,letter,lettRpt,f,0.542,noRew,,,,,,0,46,0,46,0,1,,,,,,,,,,,,,,,,,
293941,2022-11-21_12h01.05.798,vts_reward_expectancy_bt,2022.2.4,Win32,120.1923077,Firefox,1920,1080,,,,,0,720,,,,,,,,,,,,,,,,,Y,125,triangle,1,0,,,,,,,,,,,,,,,,repeat,letter,lettRpt,f,0.776,noRew,,,,,,0,47,0,47,0,1,,,,,,,,,,,,,,,,,
293941,2022-11-21_12h01.05.798,vts_reward_expectancy_bt,2022.2.4,Win32,120.1923077,Firefox,1920,1080,,,,,0,720,,,,,,,,,,,,,,,,,H,125,triangle,1,0,,,,,,,,,,,,,,,,switch,number,numSwt,j,1.267,noRew,,,,,,0,48,0,48,0,1,,,,,,,,,,,,,,,,,
293941,2022-11-21_12h01.05.798,vts_reward_expectancy_bt,2022.2.4,Win32,120.1923077,Firefox,1920,1080,,,,,0,720,,,,,,,,,,,,,,,,,U,167,circle,1,0,,,,,,,,,,,,,,,,switch,letter,lettSwt,f,0.716,noRew,,,,,,0,49,0,49,0,1,,,,,,,,,,,,,,,,,
293941,2022-11-21_12h01.05.798,vts_reward_expectancy_bt,2022.2.4,Win32,120.1923077,Firefox,1920,1080,,,,,0,720,,,,,,,,,,,,,,,,,D,139,star,1,0,,,,,,,,,,,,,,,,switch,number,numSwt,j,0.679,noRew,,,,,,0,50,0,50,0,1,,,,,,,,,,,,,,,,,
293941,2022-11-21_12h01.05.798,vts_reward_expectancy_bt,2022.2.4,Win32,120.1923077,Firefox,1920,1080,,,,,0,720,,,,,,,,,,,,,,,,,B,181,circle,1,0,,,,,,,,,,,,,,,,repeat,number,numRpt,k,0.46,noRew,,,,,,0,51,0,51,0,1,,,,,,,,,,,,,,,,,
293941,2022-11-21_12h01.05.798,vts_reward_expectancy_bt,2022.2.4,Win32,120.1923077,Firefox,1920,1080,,,,,0,720,,,,,,,,,,,,,,,,,S,174,circle,1,0,,,,,,,,,,,,,,,,switch,letter,lettSwt,f,1.115,noRew,,,,,,0,52,0,52,0,1,,,,,,,,,,,,,,,,,
293941,2022-11-21_12h01.05.798,vts_reward_expectancy_bt,2022.2.4,Win32,120.1923077,Firefox,1920,1080,,,,,0,720,,,,,,,,,,,,,,,,,U,132,star,1,0,,,,,,,,,,,,,,,,repeat,letter,lettRpt,f,1.419,noRew,,,,,,0,53,0,53,0,1,,,,,,,,,,,,,,,,,
293941,2022-11-21_12h01.05.798,vts_reward_expectancy_bt,2022.2.4,Win32,120.1923077,Firefox,1920,1080,,,,,0,720,,,,,,,,,,,,,,,,,W,139,triangle,1,0,,,,,,,,,,,,,,,,repeat,letter,lettRpt,f,0.739,noRew,,,,,,0,54,0,54,0,1,,,,,,,,,,,,,,,,,
293941,2022-11-21_12h01.05.798,vts_reward_expectancy_bt,2022.2.4,Win32,120.1923077,Firefox,1920,1080,,,,,0,720,,,,,,,,,,,,,,,,,B,146,hexagon,1,0,,,,,,,,,,,,,,,,repeat,letter,lettRpt,d,0.669,noRew,,,,,,0,55,0,55,0,1,,,,,,,,,,,,,,,,,
293941,2022-11-21_12h01.05.798,vts_reward_expectancy_bt,2022.2.4,Win32,120.1923077,Firefox,1920,1080,,,,,0,720,,,,,,,,,,,,,,,,,U,125,circle,1,0,,,,,,,,,,,,,,,,repeat,letter,lettRpt,f,1.075,noRew,,,,,,0,56,0,56,0,1,,,,,,,,,,,,,,,,,
293941,2022-11-21_12h01.05.798,vts_reward_expectancy_bt,2022.2.4,Win32,120.1923077,Firefox,1920,1080,,,,,0,720,,,,,,,,,,,,,,,,,F,139,hexagon,1,0,,,,,,,,,,,,,,,,repeat,letter,lettRpt,d,1.282,noRew,,,,,,0,57,0,57,0,1,,,,,,,,,,,,,,,,,
293941,2022-11-21_12h01.05.798,vts_reward_expectancy_bt,2022.2.4,Win32,120.1923077,Firefox,1920,1080,,,,,0,720,,,,,,,,,,,,,,,,,D,132,hexagon,1,0,,,,,,,,,,,,,,,,repeat,letter,lettRpt,d,0.699,noRew,,,,,,0,58,0,58,0,1,,,,,,,,,,,,,,,,,
293941,2022-11-21_12h01.05.798,vts_reward_expectancy_bt,2022.2.4,Win32,120.1923077,Firefox,1920,1080,,,,,0,720,,,,,,,,,,,,,,,,,B,160,star,1,0,,,,,,,,,,,,,,,,repeat,letter,lettRpt,d,1.05,noRew,,,,,,0,59,0,59,0,1,,,,,,,,,,,,,,,,,
293941,2022-11-21_12h01.05.798,vts_reward_expectancy_bt,2022.2.4,Win32,120.1923077,Firefox,1920,1080,,,,,0,720,,,,,,,,,,,,,,,,,B,167,triangle,1,0,,,,,,,,,,,,,,,,switch,number,numSwt,k,1.579,noRew,,,,,,0,60,0,60,0,1,,,,,,,,,,,,,,,,,
293941,2022-11-21_12h01.05.798,vts_reward_expectancy_bt,2022.2.4,Win32,120.1923077,Firefox,1920,1080,,,,,0,720,,,,,,,,,,,,,,,,,S,132,hexagon,1,0,,,,,,,,,,,,,,,,repeat,number,numRpt,j,0.778,noRew,,,,,,0,61,0,61,0,1,,,,,,,,,,,,,,,,,
293941,2022-11-21_12h01.05.798,vts_reward_expectancy_bt,2022.2.4,Win32,120.1923077,Firefox,1920,1080,,,,,0,720,,,,,,,,,,,,,,,,,F,139,star,1,0,,,,,,,,,,,,,,,,switch,letter,lettSwt,d,1.004,noRew,,,,,,0,62,0,62,0,1,,,,,,,,,,,,,,,,,
293941,2022-11-21_12h01.05.798,vts_reward_expectancy_bt,2022.2.4,Win32,120.1923077,Firefox,1920,1080,,,,,0,720,,,,,,,,,,,,,,,,,Y,125,triangle,1,0,,,,,,,,,,,,,,,,repeat,letter,lettRpt,f,0.972,noRew,,,,,,0,63,0,63,0,1,,,,,,,,,,,,,,,,,
293941,2022-11-21_12h01.05.798,vts_reward_expectancy_bt,2022.2.4,Win32,120.1923077,Firefox,1920,1080,,,,,,,,,,,,,,,,,,,,,,,,,,,,,,,,,,,,,,,,,,,,,,,,,,,,,,,,,,,,,,,,,,,,,,,,,,,,
293941,2022-11-21_12h01.05.798,vts_reward_expectancy_bt,2022.2.4,Win32,120.1923077,Firefox,1920,1080,,,,,10,730,,,,,,,,,,,,,,,,,F,174,circle,1,0,,,,,,,,,,,,,,,,repeat,letter,lettRpt,d,0.988,Lo,,,,,,0,,,,,,space,3.615,high,0,0,0,0,1,,,,,,,,,
293941,2022-11-21_12h01.05.798,vts_reward_expectancy_bt,2022.2.4,Win32,120.1923077,Firefox,1920,1080,,,,,10,740,,,,,,,,,,,,,,,,,U,160,star,1,0,,,,,,,,,,,,,,,,switch,number,numSwt,k,0.602,Hi,,,,,,0,,,,,,,,high,1,0,1,0,1,,,,,,,,,
293941,2022-11-21_12h01.05.798,vts_reward_expectancy_bt,2022.2.4,Win32,120.1923077,Firefox,1920,1080,,,,,1,741,,,,,,,,,,,,,,,,,B,167,triangle,1,0,,,,,,,,,,,,,,,,switch,letter,lettSwt,d,0.709,Hi,,,,,,0,,,,,,,,high,2,0,2,0,1,,,,,,,,,
293941,2022-11-21_12h01.05.798,vts_reward_expectancy_bt,2022.2.4,Win32,120.1923077,Firefox,1920,1080,,,,,1,742,,,,,,,,,,,,,,,,,H,132,hexagon,1,0,,,,,,,,,,,,,,,,repeat,letter,lettRpt,d,1.348,Lo,,,,,,0,,,,,,,,high,3,0,3,0,1,,,,,,,,,
293941,2022-11-21_12h01.05.798,vts_reward_expectancy_bt,2022.2.4,Win32,120.1923077,Firefox,1920,1080,,,,,1,743,,,,,,,,,,,,,,,,,D,146,circle,1,0,,,,,,,,,,,,,,,,repeat,letter,lettRpt,d,0.562,Lo,,,,,,0,,,,,,,,high,4,0,4,0,1,,,,,,,,,
293941,2022-11-21_12h01.05.798,vts_reward_expectancy_bt,2022.2.4,Win32,120.1923077,Firefox,1920,1080,,,,,0,743,,,,,,,,,,,,,,,,,S,125,star,1,0,,,,,,,,,,,,,,,,switch,number,numSwt,j,0.849,Hi,,,,,,0,,,,,,,,high,5,0,5,0,1,,,,,,,,,
293941,2022-11-21_12h01.05.798,vts_reward_expectancy_bt,2022.2.4,Win32,120.1923077,Firefox,1920,1080,,,,,1,744,,,,,,,,,,,,,,,,,Y,139,triangle,1,0,,,,,,,,,,,,,,,,switch,letter,lettSwt,f,0.583,Hi,,,,,,0,,,,,,,,high,6,0,6,0,1,,,,,,,,,
293941,2022-11-21_12h01.05.798,vts_reward_expectancy_bt,2022.2.4,Win32,120.1923077,Firefox,1920,1080,,,,,1,745,,,,,,,,,,,,,,,,,W,181,hexagon,1,0,,,,,,,,,,,,,,,,repeat,letter,lettRpt,f,0.532,Lo,,,,,,0,,,,,,,,high,7,0,7,0,1,,,,,,,,,
293941,2022-11-21_12h01.05.798,vts_reward_expectancy_bt,2022.2.4,Win32,120.1923077,Firefox,1920,1080,,,,,1,746,,,,,,,,,,,,,,,,,F,174,hexagon,1,0,,,,,,,,,,,,,,,,repeat,letter,lettRpt,d,1.043,Lo,,,,,,0,,,,,,,,high,8,0,8,0,1,,,,,,,,,
293941,2022-11-21_12h01.05.798,vts_reward_expectancy_bt,2022.2.4,Win32,120.1923077,Firefox,1920,1080,,,,,10,756,,,,,,,,,,,,,,,,,U,160,triangle,1,0,,,,,,,,,,,,,,,,repeat,letter,lettRpt,f,0.505,Hi,,,,,,0,,,,,,,,high,9,0,9,0,1,,,,,,,,,
293941,2022-11-21_12h01.05.798,vts_reward_expectancy_bt,2022.2.4,Win32,120.1923077,Firefox,1920,1080,,,,,10,766,,,,,,,,,,,,,,,,,B,167,star,1,0,,,,,,,,,,,,,,,,repeat,letter,lettRpt,d,0.508,Hi,,,,,,0,,,,,,,,high,10,0,10,0,1,,,,,,,,,
293941,2022-11-21_12h01.05.798,vts_reward_expectancy_bt,2022.2.4,Win32,120.1923077,Firefox,1920,1080,,,,,1,767,,,,,,,,,,,,,,,,,H,132,circle,1,0,,,,,,,,,,,,,,,,repeat,letter,lettRpt,d,0.682,Lo,,,,,,0,,,,,,,,high,11,0,11,0,1,,,,,,,,,
293941,2022-11-21_12h01.05.798,vts_reward_expectancy_bt,2022.2.4,Win32,120.1923077,Firefox,1920,1080,,,,,10,777,,,,,,,,,,,,,,,,,D,146,triangle,1,0,,,,,,,,,,,,,,,,repeat,letter,lettRpt,d,0.543,Hi,,,,,,0,,,,,,,,high,12,0,12,0,1,,,,,,,,,
293941,2022-11-21_12h01.05.798,vts_reward_expectancy_bt,2022.2.4,Win32,120.1923077,Firefox,1920,1080,,,,,1,778,,,,,,,,,,,,,,,,,S,125,hexagon,1,0,,,,,,,,,,,,,,,,repeat,letter,lettRpt,f,1.059,Lo,,,,,,0,,,,,,,,high,13,0,13,0,1,,,,,,,,,
293941,2022-11-21_12h01.05.798,vts_reward_expectancy_bt,2022.2.4,Win32,120.1923077,Firefox,1920,1080,,,,,10,788,,,,,,,,,,,,,,,,,Y,139,star,1,0,,,,,,,,,,,,,,,,repeat,letter,lettRpt,f,0.477,Hi,,,,,,0,,,,,,,,high,14,0,14,0,1,,,,,,,,,
293941,2022-11-21_12h01.05.798,vts_reward_expectancy_bt,2022.2.4,Win32,120.1923077,Firefox,1920,1080,,,,,1,789,,,,,,,,,,,,,,,,,W,181,circle,1,0,,,,,,,,,,,,,,,,repeat,letter,lettRpt,f,0.532,Lo,,,,,,0,,,,,,,,high,15,0,15,0,1,,,,,,,,,
293941,2022-11-21_12h01.05.798,vts_reward_expectancy_bt,2022.2.4,Win32,120.1923077,Firefox,1920,1080,,,,,10,799,,,,,,,,,,,,,,,,,S,174,star,1,0,,,,,,,,,,,,,,,,repeat,letter,lettRpt,f,0.579,Hi,,,,,,0,,,,,,,,high,16,0,16,0,1,,,,,,,,,
293941,2022-11-21_12h01.05.798,vts_reward_expectancy_bt,2022.2.4,Win32,120.1923077,Firefox,1920,1080,,,,,1,800,,,,,,,,,,,,,,,,,Y,139,hexagon,1,0,,,,,,,,,,,,,,,,repeat,letter,lettRpt,f,0.584,Lo,,,,,,0,,,,,,,,high,17,0,17,0,1,,,,,,,,,
293941,2022-11-21_12h01.05.798,vts_reward_expectancy_bt,2022.2.4,Win32,120.1923077,Firefox,1920,1080,,,,,1,801,,,,,,,,,,,,,,,,,W,146,circle,1,0,,,,,,,,,,,,,,,,repeat,letter,lettRpt,f,1.118,Lo,,,,,,0,,,,,,,,high,18,0,18,0,1,,,,,,,,,
293941,2022-11-21_12h01.05.798,vts_reward_expectancy_bt,2022.2.4,Win32,120.1923077,Firefox,1920,1080,,,,,0,801,,,,,,,,,,,,,,,,,F,181,triangle,1,0,,,,,,,,,,,,,,,,repeat,letter,lettRpt,d,0.96,Hi,,,,,,0,,,,,,,,high,19,0,19,0,1,,,,,,,,,
293941,2022-11-21_12h01.05.798,vts_reward_expectancy_bt,2022.2.4,Win32,120.1923077,Firefox,1920,1080,,,,,10,811,,,,,,,,,,,,,,,,,H,132,circle,1,0,,,,,,,,,,,,,,,,switch,number,numSwt,j,0.743,Lo,,,,,,0,,,,,,,,high,20,0,20,0,1,,,,,,,,,
293941,2022-11-21_12h01.05.798,vts_reward_expectancy_bt,2022.2.4,Win32,120.1923077,Firefox,1920,1080,,,,,1,812,,,,,,,,,,,,,,,,,U,125,hexagon,1,0,,,,,,,,,,,,,,,,repeat,number,numRpt,j,0.525,Lo,,,,,,0,,,,,,,,high,21,0,21,0,1,,,,,,,,,
293941,2022-11-21_12h01.05.798,vts_reward_expectancy_bt,2022.2.4,Win32,120.1923077,Firefox,1920,1080,,,,,10,822,,,,,,,,,,,,,,,,,D,160,star,1,0,,,,,,,,,,,,,,,,switch,letter,lettSwt,d,0.464,Hi,,,,,,0,,,,,,,,high,22,0,22,0,1,,,,,,,,,
293941,2022-11-21_12h01.05.798,vts_reward_expectancy_bt,2022.2.4,Win32,120.1923077,Firefox,1920,1080,,,,,0,822,,,,,,,,,,,,,,,,,B,167,triangle,1,0,,,,,,,,,,,,,,,,repeat,letter,lettRpt,d,0.744,Hi,,,,,,0,,,,,,,,high,23,0,23,0,1,,,,,,,,,
293941,2022-11-21_12h01.05.798,vts_reward_expectancy_bt,2022.2.4,Win32,120.1923077,Firefox,1920,1080,,,,,1,823,,,,,,,,,,,,,,,,,U,160,circle,1,0,,,,,,,,,,,,,,,,switch,number,numSwt,k,0.413,Lo,,,,,,0,,,,,,,,high,24,0,24,0,1,,,,,,,,,
293941,2022-11-21_12h01.05.798,vts_reward_expectancy_bt,2022.2.4,Win32,120.1923077,Firefox,1920,1080,,,,,10,833,,,,,,,,,,,,,,,,,B,174,triangle,1,0,,,,,,,,,,,,,,,,switch,letter,lettSwt,d,0.493,Hi,,,,,,0,,,,,,,,high,25,0,25,0,1,,,,,,,,,
293941,2022-11-21_12h01.05.798,vts_reward_expectancy_bt,2022.2.4,Win32,120.1923077,Firefox,1920,1080,,,,,10,843,,,,,,,,,,,,,,,,,S,146,star,1,0,,,,,,,,,,,,,,,,repeat,letter,lettRpt,f,0.485,Hi,,,,,,0,,,,,,,,high,26,0,26,0,1,,,,,,,,,
293941,2022-11-21_12h01.05.798,vts_reward_expectancy_bt,2022.2.4,Win32,120.1923077,Firefox,1920,1080,,,,,10,853,,,,,,,,,,,,,,,,,F,181,hexagon,1,0,,,,,,,,,,,,,,,,switch,number,numSwt,k,0.454,Lo,,,,,,0,,,,,,,,high,27,0,27,0,1,,,,,,,,,
293941,2022-11-21_12h01.05.798,vts_reward_expectancy_bt,2022.2.4,Win32,120.1923077,Firefox,1920,1080,,,,,1,854,,,,,,,,,,,,,,,,,D,132,hexagon,1,0,,,,,,,,,,,,,,,,repeat,number,numRpt,j,0.392,Lo,,,,,,0,,,,,,,,high,28,0,28,0,1,,,,,,,,,
293941,2022-11-21_12h01.05.798,vts_reward_expectancy_bt,2022.2.4,Win32,120.1923077,Firefox,1920,1080,,,,,1,855,,,,,,,,,,,,,,,,,W,167,circle,1,0,,,,,,,,,,,,,,,,switch,letter,lettSwt,f,0.962,Lo,,,,,,0,,,,,,,,high,29,0,29,0,1,,,,,,,,,
293941,2022-11-21_12h01.05.798,vts_reward_expectancy_bt,2022.2.4,Win32,120.1923077,Firefox,1920,1080,,,,,0,855,,,,,,,,,,,,,,,,,H,125,star,1,0,,,,,,,,,,,,,,,,repeat,letter,lettRpt,d,0.96,Hi,,,,,,0,,,,,,,,high,30,0,30,0,1,,,,,,,,,
293941,2022-11-21_12h01.05.798,vts_reward_expectancy_bt,2022.2.4,Win32,120.1923077,Firefox,1920,1080,,,,,10,865,,,,,,,,,,,,,,,,,Y,139,triangle,1,0,,,,,,,,,,,,,,,,repeat,letter,lettRpt,f,0.53,Hi,,,,,,0,,,,,,,,high,31,0,31,0,1,,,,,,,,,
293941,2022-11-21_12h01.05.798,vts_reward_expectancy_bt,2022.2.4,Win32,120.1923077,Firefox,1920,1080,,,,,1,866,,,,,,,,,,,,,,,,,B,160,circle,1,0,,,,,,,,,,,,,,,,switch,number,numSwt,k,0.645,Lo,,,,,,1,,,,,,space,1.746,high,0,0,0,0,1,,,,,,,,,
293941,2022-11-21_12h01.05.798,vts_reward_expectancy_bt,2022.2.4,Win32,120.1923077,Firefox,1920,1080,,,,,1,867,,,,,,,,,,,,,,,,,D,139,hexagon,1,0,,,,,,,,,,,,,,,,repeat,number,numRpt,j,0.498,Lo,,,,,,1,,,,,,,,high,1,0,1,0,1,,,,,,,,,
293941,2022-11-21_12h01.05.798,vts_reward_expectancy_bt,2022.2.4,Win32,120.1923077,Firefox,1920,1080,,,,,0,867,,,,,,,,,,,,,,,,,F,146,triangle,1,0,,,,,,,,,,,,,,,,switch,letter,lettSwt,d,0.636,Hi,,,,,,1,,,,,,,,high,2,0,2,0,1,,,,,,,,,
293941,2022-11-21_12h01.05.798,vts_reward_expectancy_bt,2022.2.4,Win32,120.1923077,Firefox,1920,1080,,,,,10,877,,,,,,,,,,,,,,,,,U,125,star,1,0,,,,,,,,,,,,,,,,repeat,letter,lettRpt,f,0.385,Hi,,,,,,1,,,,,,,,high,3,0,3,0,1,,,,,,,,,
293941,2022-11-21_12h01.05.798,vts_reward_expectancy_bt,2022.2.4,Win32,120.1923077,Firefox,1920,1080,,,,,10,887,,,,,,,,,,,,,,,,,Y,181,circle,1,0,,,,,,,,,,,,,,,,switch,number,numSwt,k,0.483,Lo,,,,,,1,,,,,,,,high,4,0,4,0,1,,,,,,,,,
293941,2022-11-21_12h01.05.798,vts_reward_expectancy_bt,2022.2.4,Win32,120.1923077,Firefox,1920,1080,,,,,1,888,,,,,,,,,,,,,,,,,H,132,hexagon,1,0,,,,,,,,,,,,,,,,repeat,number,numRpt,j,0.37,Lo,,,,,,1,,,,,,,,high,5,0,5,0,1,,,,,,,,,
293941,2022-11-21_12h01.05.798,vts_reward_expectancy_bt,2022.2.4,Win32,120.1923077,Firefox,1920,1080,,,,,0,888,,,,,,,,,,,,,,,,,S,174,triangle,1,0,,,,,,,,,,,,,,,,switch,letter,lettSwt,f,0.661,Hi,,,,,,1,,,,,,,,high,6,0,6,0,1,,,,,,,,,
293941,2022-11-21_12h01.05.798,vts_reward_expectancy_bt,2022.2.4,Win32,120.1923077,Firefox,1920,1080,,,,,10,898,,,,,,,,,,,,,,,,,W,167,star,1,0,,,,,,,,,,,,,,,,repeat,letter,lettRpt,f,0.494,Hi,,,,,,1,,,,,,,,high,7,0,7,0,1,,,,,,,,,
293941,2022-11-21_12h01.05.798,vts_reward_expectancy_bt,2022.2.4,Win32,120.1923077,Firefox,1920,1080,,,,,1,899,,,,,,,,,,,,,,,,,B,160,circle,1,0,,,,,,,,,,,,,,,,switch,number,numSwt,k,0.512,Lo,,,,,,1,,,,,,,,high,8,0,8,0,1,,,,,,,,,
293941,2022-11-21_12h01.05.798,vts_reward_expectancy_bt,2022.2.4,Win32,120.1923077,Firefox,1920,1080,,,,,0,899,,,,,,,,,,,,,,,,,D,139,triangle,0,0,,,,,,,,,,,,,,,,switch,letter,NA,f,0.357,Lo,,,,,,1,,,,,,,,high,9,0,9,0,1,,,,,,,,,
293941,2022-11-21_12h01.05.798,vts_reward_expectancy_bt,2022.2.4,Win32,120.1923077,Firefox,1920,1080,,,,,0,899,,,,,,,,,,,,,,,,,F,146,star,1,1,,,,,,,,,,,,,,,,repeat,letter,lettRpt,d,0.647,Hi,,,,,,1,,,,,,,,high,10,0,10,0,1,,,,,,,,,
293941,2022-11-21_12h01.05.798,vts_reward_expectancy_bt,2022.2.4,Win32,120.1923077,Firefox,1920,1080,,,,,1,900,,,,,,,,,,,,,,,,,U,125,hexagon,1,0,,,,,,,,,,,,,,,,switch,number,numSwt,j,0.429,Lo,,,,,,1,,,,,,,,high,11,0,11,0,1,,,,,,,,,
293941,2022-11-21_12h01.05.798,vts_reward_expectancy_bt,2022.2.4,Win32,120.1923077,Firefox,1920,1080,,,,,1,901,,,,,,,,,,,,,,,,,Y,181,circle,1,0,,,,,,,,,,,,,,,,repeat,number,numRpt,k,0.584,Lo,,,,,,1,,,,,,,,high,12,0,12,0,1,,,,,,,,,
293941,2022-11-21_12h01.05.798,vts_reward_expectancy_bt,2022.2.4,Win32,120.1923077,Firefox,1920,1080,,,,,10,911,,,,,,,,,,,,,,,,,H,132,triangle,1,0,,,,,,,,,,,,,,,,switch,letter,lettSwt,d,0.48,Hi,,,,,,1,,,,,,,,high,13,0,13,0,1,,,,,,,,,
293941,2022-11-21_12h01.05.798,vts_reward_expectancy_bt,2022.2.4,Win32,120.1923077,Firefox,1920,1080,,,,,1,912,,,,,,,,,,,,,,,,,S,174,hexagon,1,0,,,,,,,,,,,,,,,,switch,number,numSwt,k,0.43,Lo,,,,,,1,,,,,,,,high,14,0,14,0,1,,,,,,,,,
293941,2022-11-21_12h01.05.798,vts_reward_expectancy_bt,2022.2.4,Win32,120.1923077,Firefox,1920,1080,,,,,0,912,,,,,,,,,,,,,,,,,W,167,star,1,0,,,,,,,,,,,,,,,,switch,letter,lettSwt,f,0.562,Hi,,,,,,1,,,,,,,,high,15,0,15,0,1,,,,,,,,,
293941,2022-11-21_12h01.05.798,vts_reward_expectancy_bt,2022.2.4,Win32,120.1923077,Firefox,1920,1080,,,,,0,912,,,,,,,,,,,,,,,,,U,160,triangle,1,0,,,,,,,,,,,,,,,,repeat,letter,lettRpt,f,0.742,Hi,,,,,,1,,,,,,,,high,16,0,16,0,1,,,,,,,,,
293941,2022-11-21_12h01.05.798,vts_reward_expectancy_bt,2022.2.4,Win32,120.1923077,Firefox,1920,1080,,,,,1,913,,,,,,,,,,,,,,,,,D,146,circle,1,0,,,,,,,,,,,,,,,,repeat,letter,lettRpt,d,0.439,Lo,,,,,,1,,,,,,,,high,17,0,17,0,1,,,,,,,,,
293941,2022-11-21_12h01.05.798,vts_reward_expectancy_bt,2022.2.4,Win32,120.1923077,Firefox,1920,1080,,,,,1,914,,,,,,,,,,,,,,,,,B,125,hexagon,1,0,,,,,,,,,,,,,,,,repeat,letter,lettRpt,d,0.483,Lo,,,,,,1,,,,,,,,high,18,0,18,0,1,,,,,,,,,
293941,2022-11-21_12h01.05.798,vts_reward_expectancy_bt,2022.2.4,Win32,120.1923077,Firefox,1920,1080,,,,,10,924,,,,,,,,,,,,,,,,,W,167,star,1,0,,,,,,,,,,,,,,,,repeat,letter,lettRpt,f,0.35,Hi,,,,,,1,,,,,,,,high,19,0,19,0,1,,,,,,,,,
293941,2022-11-21_12h01.05.798,vts_reward_expectancy_bt,2022.2.4,Win32,120.1923077,Firefox,1920,1080,,,,,1,925,,,,,,,,,,,,,,,,,H,181,triangle,1,0,,,,,,,,,,,,,,,,repeat,letter,lettRpt,d,0.464,Hi,,,,,,1,,,,,,,,high,20,0,20,0,1,,,,,,,,,
293941,2022-11-21_12h01.05.798,vts_reward_expectancy_bt,2022.2.4,Win32,120.1923077,Firefox,1920,1080,,,,,10,935,,,,,,,,,,,,,,,,,F,139,star,1,0,,,,,,,,,,,,,,,,repeat,letter,lettRpt,d,0.51,Hi,,,,,,1,,,,,,,,high,21,0,21,0,1,,,,,,,,,
293941,2022-11-21_12h01.05.798,vts_reward_expectancy_bt,2022.2.4,Win32,120.1923077,Firefox,1920,1080,,,,,10,945,,,,,,,,,,,,,,,,,Y,174,circle,1,0,,,,,,,,,,,,,,,,switch,number,numSwt,k,0.472,Lo,,,,,,1,,,,,,,,high,22,0,22,0,1,,,,,,,,,
293941,2022-11-21_12h01.05.798,vts_reward_expectancy_bt,2022.2.4,Win32,120.1923077,Firefox,1920,1080,,,,,1,946,,,,,,,,,,,,,,,,,S,132,hexagon,1,0,,,,,,,,,,,,,,,,repeat,number,numRpt,j,0.351,Lo,,,,,,1,,,,,,,,high,23,0,23,0,1,,,,,,,,,
293941,2022-11-21_12h01.05.798,vts_reward_expectancy_bt,2022.2.4,Win32,120.1923077,Firefox,1920,1080,,,,,1,947,,,,,,,,,,,,,,,,,B,132,circle,1,0,,,,,,,,,,,,,,,,repeat,number,numRpt,j,0.792,Lo,,,,,,1,,,,,,,,high,24,0,24,0,1,,,,,,,,,
293941,2022-11-21_12h01.05.798,vts_reward_expectancy_bt,2022.2.4,Win32,120.1923077,Firefox,1920,1080,,,,,10,957,,,,,,,,,,,,,,,,,H,139,hexagon,1,0,,,,,,,,,,,,,,,,repeat,number,numRpt,j,0.576,Lo,,,,,,1,,,,,,,,high,25,0,25,0,1,,,,,,,,,
293941,2022-11-21_12h01.05.798,vts_reward_expectancy_bt,2022.2.4,Win32,120.1923077,Firefox,1920,1080,,,,,10,967,,,,,,,,,,,,,,,,,W,146,triangle,1,0,,,,,,,,,,,,,,,,switch,letter,lettSwt,f,0.446,Hi,,,,,,1,,,,,,,,high,26,0,26,0,1,,,,,,,,,
293941,2022-11-21_12h01.05.798,vts_reward_expectancy_bt,2022.2.4,Win32,120.1923077,Firefox,1920,1080,,,,,0,967,,,,,,,,,,,,,,,,,U,181,star,0,0,,,,,,,,,,,,,,,,repeat,letter,NA,d,0.383,Hi,,,,,,1,,,,,,,,high,27,0,27,0,1,,,,,,,,,
293941,2022-11-21_12h01.05.798,vts_reward_expectancy_bt,2022.2.4,Win32,120.1923077,Firefox,1920,1080,,,,,1,968,,,,,,,,,,,,,,,,,F,160,hexagon,1,1,,,,,,,,,,,,,,,,switch,number,numSwt,k,0.44,Lo,,,,,,1,,,,,,,,high,28,0,28,0,1,,,,,,,,,
293941,2022-11-21_12h01.05.798,vts_reward_expectancy_bt,2022.2.4,Win32,120.1923077,Firefox,1920,1080,,,,,10,978,,,,,,,,,,,,,,,,,Y,167,star,1,0,,,,,,,,,,,,,,,,switch,letter,lettSwt,f,0.506,Hi,,,,,,1,,,,,,,,high,29,0,29,0,1,,,,,,,,,
293941,2022-11-21_12h01.05.798,vts_reward_expectancy_bt,2022.2.4,Win32,120.1923077,Firefox,1920,1080,,,,,1,979,,,,,,,,,,,,,,,,,S,174,circle,1,0,,,,,,,,,,,,,,,,switch,number,numSwt,k,0.491,Lo,,,,,,1,,,,,,,,high,30,0,30,0,1,,,,,,,,,
293941,2022-11-21_12h01.05.798,vts_reward_expectancy_bt,2022.2.4,Win32,120.1923077,Firefox,1920,1080,,,,,10,989,,,,,,,,,,,,,,,,,D,125,triangle,1,0,,,,,,,,,,,,,,,,switch,letter,lettSwt,d,0.507,Hi,,,,,,1,,,,,,,,high,31,0,31,0,1,,,,,,,,,
293941,2022-11-21_12h01.05.798,vts_reward_expectancy_bt,2022.2.4,Win32,120.1923077,Firefox,1920,1080,,,,,0,989,,,,,,,,,,,,,,,,,Y,146,circle,0,0,,,,,,,,,,,,,,,,switch,number,NA,k,0.651,Hi,,,,,,2,,,,,,space,1.269,high,0,0,0,0,1,,,,,,,,,
293941,2022-11-21_12h01.05.798,vts_reward_expectancy_bt,2022.2.4,Win32,120.1923077,Firefox,1920,1080,,,,,0,989,,,,,,,,,,,,,,,,,S,139,triangle,1,1,,,,,,,,,,,,,,,,switch,letter,lettSwt,f,0.727,Hi,,,,,,2,,,,,,,,high,1,0,1,0,1,,,,,,,,,
293941,2022-11-21_12h01.05.798,vts_reward_expectancy_bt,2022.2.4,Win32,120.1923077,Firefox,1920,1080,,,,,1,990,,,,,,,,,,,,,,,,,B,174,hexagon,1,0,,,,,,,,,,,,,,,,switch,number,numSwt,k,0.504,Lo,,,,,,2,,,,,,,,high,2,0,2,0,1,,,,,,,,,
293941,2022-11-21_12h01.05.798,vts_reward_expectancy_bt,2022.2.4,Win32,120.1923077,Firefox,1920,1080,,,,,10,1000,,,,,,,,,,,,,,,,,F,167,star,1,0,,,,,,,,,,,,,,,,switch,letter,lettSwt,d,0.463,Hi,,,,,,2,,,,,,,,high,3,0,3,0,1,,,,,,,,,
293941,2022-11-21_12h01.05.798,vts_reward_expectancy_bt,2022.2.4,Win32,120.1923077,Firefox,1920,1080,,,,,10,1010,,,,,,,,,,,,,,,,,W,160,circle,1,0,,,,,,,,,,,,,,,,switch,number,numSwt,k,0.478,Lo,,,,,,2,,,,,,,,high,4,0,4,0,1,,,,,,,,,
293941,2022-11-21_12h01.05.798,vts_reward_expectancy_bt,2022.2.4,Win32,120.1923077,Firefox,1920,1080,,,,,0,1010,,,,,,,,,,,,,,,,,D,125,triangle,1,0,,,,,,,,,,,,,,,,switch,letter,lettSwt,d,0.71,Hi,,,,,,2,,,,,,,,high,5,0,5,0,1,,,,,,,,,
293941,2022-11-21_12h01.05.798,vts_reward_expectancy_bt,2022.2.4,Win32,120.1923077,Firefox,1920,1080,,,,,1,1011,,,,,,,,,,,,,,,,,U,132,hexagon,1,0,,,,,,,,,,,,,,,,switch,number,numSwt,j,0.749,Lo,,,,,,2,,,,,,,,high,6,0,6,0,1,,,,,,,,,
293941,2022-11-21_12h01.05.798,vts_reward_expectancy_bt,2022.2.4,Win32,120.1923077,Firefox,1920,1080,,,,,0,1011,,,,,,,,,,,,,,,,,H,181,star,1,0,,,,,,,,,,,,,,,,switch,letter,lettSwt,d,0.531,Hi,,,,,,2,,,,,,,,high,7,0,7,0,1,,,,,,,,,
293941,2022-11-21_12h01.05.798,vts_reward_expectancy_bt,2022.2.4,Win32,120.1923077,Firefox,1920,1080,,,,,10,1021,,,,,,,,,,,,,,,,,Y,146,star,1,0,,,,,,,,,,,,,,,,repeat,letter,lettRpt,f,0.442,Hi,,,,,,2,,,,,,,,high,8,0,8,0,1,,,,,,,,,
293941,2022-11-21_12h01.05.798,vts_reward_expectancy_bt,2022.2.4,Win32,120.1923077,Firefox,1920,1080,,,,,0,1021,,,,,,,,,,,,,,,,,S,139,triangle,1,0,,,,,,,,,,,,,,,,repeat,letter,lettRpt,f,0.544,Hi,,,,,,2,,,,,,,,high,9,0,9,0,1,,,,,,,,,
293941,2022-11-21_12h01.05.798,vts_reward_expectancy_bt,2022.2.4,Win32,120.1923077,Firefox,1920,1080,,,,,10,1031,,,,,,,,,,,,,,,,,B,174,circle,1,0,,,,,,,,,,,,,,,,switch,number,numSwt,k,0.491,Lo,,,,,,2,,,,,,,,high,10,0,10,0,1,,,,,,,,,
293941,2022-11-21_12h01.05.798,vts_reward_expectancy_bt,2022.2.4,Win32,120.1923077,Firefox,1920,1080,,,,,1,1032,,,,,,,,,,,,,,,,,F,167,hexagon,1,0,,,,,,,,,,,,,,,,repeat,number,numRpt,k,0.518,Lo,,,,,,2,,,,,,,,high,11,0,11,0,1,,,,,,,,,
293941,2022-11-21_12h01.05.798,vts_reward_expectancy_bt,2022.2.4,Win32,120.1923077,Firefox,1920,1080,,,,,10,1042,,,,,,,,,,,,,,,,,W,160,star,1,0,,,,,,,,,,,,,,,,switch,letter,lettSwt,f,0.482,Hi,,,,,,2,,,,,,,,high,12,0,12,0,1,,,,,,,,,
293941,2022-11-21_12h01.05.798,vts_reward_expectancy_bt,2022.2.4,Win32,120.1923077,Firefox,1920,1080,,,,,1,1043,,,,,,,,,,,,,,,,,D,125,hexagon,1,0,,,,,,,,,,,,,,,,switch,number,numSwt,j,0.372,Lo,,,,,,2,,,,,,,,high,13,0,13,0,1,,,,,,,,,
293941,2022-11-21_12h01.05.798,vts_reward_expectancy_bt,2022.2.4,Win32,120.1923077,Firefox,1920,1080,,,,,0,1043,,,,,,,,,,,,,,,,,U,132,triangle,1,0,,,,,,,,,,,,,,,,switch,letter,lettSwt,f,0.553,Hi,,,,,,2,,,,,,,,high,14,0,14,0,1,,,,,,,,,
293941,2022-11-21_12h01.05.798,vts_reward_expectancy_bt,2022.2.4,Win32,120.1923077,Firefox,1920,1080,,,,,1,1044,,,,,,,,,,,,,,,,,H,181,circle,1,0,,,,,,,,,,,,,,,,switch,number,numSwt,k,0.548,Lo,,,,,,2,,,,,,,,high,15,0,15,0,1,,,,,,,,,
293941,2022-11-21_12h01.05.798,vts_reward_expectancy_bt,2022.2.4,Win32,120.1923077,Firefox,1920,1080,,,,,1,1045,,,,,,,,,,,,,,,,,B,125,hexagon,1,0,,,,,,,,,,,,,,,,switch,letter,lettSwt,d,0.498,Lo,,,,,,2,,,,,,,,high,16,0,16,0,1,,,,,,,,,
293941,2022-11-21_12h01.05.798,vts_reward_expectancy_bt,2022.2.4,Win32,120.1923077,Firefox,1920,1080,,,,,0,1045,,,,,,,,,,,,,,,,,W,174,triangle,1,0,,,,,,,,,,,,,,,,repeat,letter,lettRpt,f,0.583,Hi,,,,,,2,,,,,,,,high,17,0,17,0,1,,,,,,,,,
293941,2022-11-21_12h01.05.798,vts_reward_expectancy_bt,2022.2.4,Win32,120.1923077,Firefox,1920,1080,,,,,10,1055,,,,,,,,,,,,,,,,,S,181,star,1,0,,,,,,,,,,,,,,,,repeat,letter,lettRpt,f,0.448,Hi,,,,,,2,,,,,,,,high,18,0,18,0,1,,,,,,,,,
293941,2022-11-21_12h01.05.798,vts_reward_expectancy_bt,2022.2.4,Win32,120.1923077,Firefox,1920,1080,,,,,1,1056,,,,,,,,,,,,,,,,,H,132,circle,1,0,,,,,,,,,,,,,,,,switch,number,numSwt,j,0.436,Lo,,,,,,2,,,,,,,,high,19,0,19,0,1,,,,,,,,,
293941,2022-11-21_12h01.05.798,vts_reward_expectancy_bt,2022.2.4,Win32,120.1923077,Firefox,1920,1080,,,,,0,1056,,,,,,,,,,,,,,,,,Y,160,triangle,1,0,,,,,,,,,,,,,,,,switch,letter,lettSwt,f,0.585,Hi,,,,,,2,,,,,,,,high,20,0,20,0,1,,,,,,,,,
293941,2022-11-21_12h01.05.798,vts_reward_expectancy_bt,2022.2.4,Win32,120.1923077,Firefox,1920,1080,,,,,0,1056,,,,,,,,,,,,,,,,,F,146,star,0,0,,,,,,,,,,,,,,,,repeat,letter,NA,f,0.489,Hi,,,,,,2,,,,,,,,high,21,0,21,0,1,,,,,,,,,
293941,2022-11-21_12h01.05.798,vts_reward_expectancy_bt,2022.2.4,Win32,120.1923077,Firefox,1920,1080,,,,,1,1057,,,,,,,,,,,,,,,,,D,139,circle,1,1,,,,,,,,,,,,,,,,switch,number,numSwt,j,0.448,Lo,,,,,,2,,,,,,,,high,22,0,22,0,1,,,,,,,,,
293941,2022-11-21_12h01.05.798,vts_reward_expectancy_bt,2022.2.4,Win32,120.1923077,Firefox,1920,1080,,,,,1,1058,,,,,,,,,,,,,,,,,U,167,hexagon,1,0,,,,,,,,,,,,,,,,repeat,number,numRpt,k,0.384,Lo,,,,,,2,,,,,,,,high,23,0,23,0,1,,,,,,,,,
293941,2022-11-21_12h01.05.798,vts_reward_expectancy_bt,2022.2.4,Win32,120.1923077,Firefox,1920,1080,,,,,1,1059,,,,,,,,,,,,,,,,,Y,174,hexagon,1,0,,,,,,,,,,,,,,,,switch,letter,lettSwt,f,0.377,Lo,,,,,,2,,,,,,,,high,24,0,24,0,1,,,,,,,,,
293941,2022-11-21_12h01.05.798,vts_reward_expectancy_bt,2022.2.4,Win32,120.1923077,Firefox,1920,1080,,,,,0,1059,,,,,,,,,,,,,,,,,S,146,triangle,1,0,,,,,,,,,,,,,,,,repeat,letter,lettRpt,f,0.708,Hi,,,,,,2,,,,,,,,high,25,0,25,0,1,,,,,,,,,
293941,2022-11-21_12h01.05.798,vts_reward_expectancy_bt,2022.2.4,Win32,120.1923077,Firefox,1920,1080,,,,,1,1060,,,,,,,,,,,,,,,,,U,132,circle,1,0,,,,,,,,,,,,,,,,switch,number,numSwt,j,0.421,Lo,,,,,,2,,,,,,,,high,26,0,26,0,1,,,,,,,,,
293941,2022-11-21_12h01.05.798,vts_reward_expectancy_bt,2022.2.4,Win32,120.1923077,Firefox,1920,1080,,,,,0,1060,,,,,,,,,,,,,,,,,H,160,star,1,0,,,,,,,,,,,,,,,,switch,letter,lettSwt,d,0.64,Hi,,,,,,2,,,,,,,,high,27,0,27,0,1,,,,,,,,,
293941,2022-11-21_12h01.05.798,vts_reward_expectancy_bt,2022.2.4,Win32,120.1923077,Firefox,1920,1080,,,,,1,1061,,,,,,,,,,,,,,,,,W,167,hexagon,1,0,,,,,,,,,,,,,,,,switch,number,numSwt,k,0.424,Lo,,,,,,2,,,,,,,,high,28,0,28,0,1,,,,,,,,,
293941,2022-11-21_12h01.05.798,vts_reward_expectancy_bt,2022.2.4,Win32,120.1923077,Firefox,1920,1080,,,,,10,1071,,,,,,,,,,,,,,,,,D,139,star,1,0,,,,,,,,,,,,,,,,switch,letter,lettSwt,d,0.478,Hi,,,,,,2,,,,,,,,high,29,0,29,0,1,,,,,,,,,
293941,2022-11-21_12h01.05.798,vts_reward_expectancy_bt,2022.2.4,Win32,120.1923077,Firefox,1920,1080,,,,,0,1071,,,,,,,,,,,,,,,,,F,125,triangle,1,0,,,,,,,,,,,,,,,,repeat,letter,lettRpt,d,0.51,Hi,,,,,,2,,,,,,,,high,30,0,30,0,1,,,,,,,,,
293941,2022-11-21_12h01.05.798,vts_reward_expectancy_bt,2022.2.4,Win32,120.1923077,Firefox,1920,1080,,,,,1,1072,,,,,,,,,,,,,,,,,B,181,circle,1,0,,,,,,,,,,,,,,,,switch,number,numSwt,k,0.453,Lo,,,,,,2,,,,,,,,high,31,0,31,0,1,,,,,,,,,
293941,2022-11-21_12h01.05.798,vts_reward_expectancy_bt,2022.2.4,Win32,120.1923077,Firefox,1920,1080,,,,,0,1072,,,,,,,,,,,,,,,,,W,181,star,1,0,,,,,,,,,,,,,,,,switch,letter,lettSwt,f,0.492,Hi,,,,,,3,,,,,,space,0.345,high,0,0,0,0,1,,,,,,,,,
293941,2022-11-21_12h01.05.798,vts_reward_expectancy_bt,2022.2.4,Win32,120.1923077,Firefox,1920,1080,,,,,1,1073,,,,,,,,,,,,,,,,,D,146,triangle,1,0,,,,,,,,,,,,,,,,repeat,letter,lettRpt,d,0.36,Hi,,,,,,3,,,,,,,,high,1,0,1,0,1,,,,,,,,,
293941,2022-11-21_12h01.05.798,vts_reward_expectancy_bt,2022.2.4,Win32,120.1923077,Firefox,1920,1080,,,,,10,1083,,,,,,,,,,,,,,,,,U,139,hexagon,1,0,,,,,,,,,,,,,,,,switch,number,numSwt,j,0.432,Lo,,,,,,3,,,,,,,,high,2,0,2,0,1,,,,,,,,,
293941,2022-11-21_12h01.05.798,vts_reward_expectancy_bt,2022.2.4,Win32,120.1923077,Firefox,1920,1080,,,,,1,1084,,,,,,,,,,,,,,,,,F,125,circle,1,0,,,,,,,,,,,,,,,,repeat,number,numRpt,j,0.453,Lo,,,,,,3,,,,,,,,high,3,0,3,0,1,,,,,,,,,
293941,2022-11-21_12h01.05.798,vts_reward_expectancy_bt,2022.2.4,Win32,120.1923077,Firefox,1920,1080,,,,,10,1094,,,,,,,,,,,,,,,,,Y,132,star,1,0,,,,,,,,,,,,,,,,switch,letter,lettSwt,f,0.482,Hi,,,,,,3,,,,,,,,high,4,0,4,0,1,,,,,,,,,
293941,2022-11-21_12h01.05.798,vts_reward_expectancy_bt,2022.2.4,Win32,120.1923077,Firefox,1920,1080,,,,,10,1104,,,,,,,,,,,,,,,,,B,160,triangle,1,0,,,,,,,,,,,,,,,,repeat,letter,lettRpt,d,0.45,Hi,,,,,,3,,,,,,,,high,5,0,5,0,1,,,,,,,,,
293941,2022-11-21_12h01.05.798,vts_reward_expectancy_bt,2022.2.4,Win32,120.1923077,Firefox,1920,1080,,,,,1,1105,,,,,,,,,,,,,,,,,S,167,hexagon,1,0,,,,,,,,,,,,,,,,switch,number,numSwt,k,0.412,Lo,,,,,,3,,,,,,,,high,6,0,6,0,1,,,,,,,,,
293941,2022-11-21_12h01.05.798,vts_reward_expectancy_bt,2022.2.4,Win32,120.1923077,Firefox,1920,1080,,,,,10,1115,,,,,,,,,,,,,,,,,H,174,circle,1,0,,,,,,,,,,,,,,,,repeat,number,numRpt,k,0.399,Lo,,,,,,3,,,,,,,,high,7,0,7,0,1,,,,,,,,,
293941,2022-11-21_12h01.05.798,vts_reward_expectancy_bt,2022.2.4,Win32,120.1923077,Firefox,1920,1080,,,,,10,1125,,,,,,,,,,,,,,,,,W,181,triangle,1,0,,,,,,,,,,,,,,,,switch,letter,lettSwt,f,0.39,Hi,,,,,,3,,,,,,,,high,8,0,8,0,1,,,,,,,,,
293941,2022-11-21_12h01.05.798,vts_reward_expectancy_bt,2022.2.4,Win32,120.1923077,Firefox,1920,1080,,,,,1,1126,,,,,,,,,,,,,,,,,D,146,hexagon,1,0,,,,,,,,,,,,,,,,switch,number,numSwt,j,0.461,Lo,,,,,,3,,,,,,,,high,9,0,9,0,1,,,,,,,,,
293941,2022-11-21_12h01.05.798,vts_reward_expectancy_bt,2022.2.4,Win32,120.1923077,Firefox,1920,1080,,,,,1,1127,,,,,,,,,,,,,,,,,U,139,circle,1,0,,,,,,,,,,,,,,,,repeat,number,numRpt,j,0.407,Lo,,,,,,3,,,,,,,,high,10,0,10,0,1,,,,,,,,,
293941,2022-11-21_12h01.05.798,vts_reward_expectancy_bt,2022.2.4,Win32,120.1923077,Firefox,1920,1080,,,,,0,1127,,,,,,,,,,,,,,,,,F,125,star,1,0,,,,,,,,,,,,,,,,switch,letter,lettSwt,d,0.524,Hi,,,,,,3,,,,,,,,high,11,0,11,0,1,,,,,,,,,
293941,2022-11-21_12h01.05.798,vts_reward_expectancy_bt,2022.2.4,Win32,120.1923077,Firefox,1920,1080,,,,,10,1137,,,,,,,,,,,,,,,,,Y,132,star,1,0,,,,,,,,,,,,,,,,repeat,letter,lettRpt,f,0.393,Hi,,,,,,3,,,,,,,,high,12,0,12,0,1,,,,,,,,,
293941,2022-11-21_12h01.05.798,vts_reward_expectancy_bt,2022.2.4,Win32,120.1923077,Firefox,1920,1080,,,,,10,1147,,,,,,,,,,,,,,,,,B,160,circle,1,0,,,,,,,,,,,,,,,,switch,number,numSwt,k,0.419,Lo,,,,,,3,,,,,,,,high,13,0,13,0,1,,,,,,,,,
293941,2022-11-21_12h01.05.798,vts_reward_expectancy_bt,2022.2.4,Win32,120.1923077,Firefox,1920,1080,,,,,0,1147,,,,,,,,,,,,,,,,,S,167,triangle,0,0,,,,,,,,,,,,,,,,switch,letter,NA,d,0.635,Lo,,,,,,3,,,,,,,,high,14,0,14,0,1,,,,,,,,,
293941,2022-11-21_12h01.05.798,vts_reward_expectancy_bt,2022.2.4,Win32,120.1923077,Firefox,1920,1080,,,,,1,1148,,,,,,,,,,,,,,,,,H,174,hexagon,1,1,,,,,,,,,,,,,,,,switch,number,numSwt,k,0.411,Lo,,,,,,3,,,,,,,,high,15,0,15,0,1,,,,,,,,,
293941,2022-11-21_12h01.05.798,vts_reward_expectancy_bt,2022.2.4,Win32,120.1923077,Firefox,1920,1080,,,,,1,1149,,,,,,,,,,,,,,,,,W,125,circle,1,0,,,,,,,,,,,,,,,,repeat,number,numRpt,j,0.412,Lo,,,,,,3,,,,,,,,high,16,0,16,0,1,,,,,,,,,
293941,2022-11-21_12h01.05.798,vts_reward_expectancy_bt,2022.2.4,Win32,120.1923077,Firefox,1920,1080,,,,,10,1159,,,,,,,,,,,,,,,,,Y,146,star,1,0,,,,,,,,,,,,,,,,switch,letter,lettSwt,f,0.404,Hi,,,,,,3,,,,,,,,high,17,0,17,0,1,,,,,,,,,
293941,2022-11-21_12h01.05.798,vts_reward_expectancy_bt,2022.2.4,Win32,120.1923077,Firefox,1920,1080,,,,,10,1169,,,,,,,,,,,,,,,,,B,132,hexagon,1,0,,,,,,,,,,,,,,,,switch,number,numSwt,j,0.498,Lo,,,,,,3,,,,,,,,high,18,0,18,0,1,,,,,,,,,
293941,2022-11-21_12h01.05.798,vts_reward_expectancy_bt,2022.2.4,Win32,120.1923077,Firefox,1920,1080,,,,,0,1169,,,,,,,,,,,,,,,,,U,160,triangle,1,0,,,,,,,,,,,,,,,,switch,letter,lettSwt,f,0.492,Hi,,,,,,3,,,,,,,,high,19,0,19,0,1,,,,,,,,,
293941,2022-11-21_12h01.05.798,vts_reward_expectancy_bt,2022.2.4,Win32,120.1923077,Firefox,1920,1080,,,,,1,1170,,,,,,,,,,,,,,,,,S,181,circle,1,0,,,,,,,,,,,,,,,,switch,number,numSwt,k,0.445,Lo,,,,,,3,,,,,,,,high,20,0,20,0,1,,,,,,,,,
293941,2022-11-21_12h01.05.798,vts_reward_expectancy_bt,2022.2.4,Win32,120.1923077,Firefox,1920,1080,,,,,0,1170,,,,,,,,,,,,,,,,,D,167,star,0,0,,,,,,,,,,,,,,,,switch,letter,NA,f,0.351,Lo,,,,,,3,,,,,,,,high,21,0,21,0,1,,,,,,,,,
293941,2022-11-21_12h01.05.798,vts_reward_expectancy_bt,2022.2.4,Win32,120.1923077,Firefox,1920,1080,,,,,1,1171,,,,,,,,,,,,,,,,,H,174,hexagon,1,1,,,,,,,,,,,,,,,,switch,number,numSwt,k,0.434,Lo,,,,,,3,,,,,,,,high,22,0,22,0,1,,,,,,,,,
293941,2022-11-21_12h01.05.798,vts_reward_expectancy_bt,2022.2.4,Win32,120.1923077,Firefox,1920,1080,,,,,0,1171,,,,,,,,,,,,,,,,,F,139,triangle,1,0,,,,,,,,,,,,,,,,switch,letter,lettSwt,d,0.556,Hi,,,,,,3,,,,,,,,high,23,0,23,0,1,,,,,,,,,
293941,2022-11-21_12h01.05.798,vts_reward_expectancy_bt,2022.2.4,Win32,120.1923077,Firefox,1920,1080,,,,,1,1172,,,,,,,,,,,,,,,,,Y,132,circle,1,0,,,,,,,,,,,,,,,,repeat,letter,lettRpt,f,0.761,Lo,,,,,,3,,,,,,,,high,24,0,24,0,1,,,,,,,,,
293941,2022-11-21_12h01.05.798,vts_reward_expectancy_bt,2022.2.4,Win32,120.1923077,Firefox,1920,1080,,,,,1,1173,,,,,,,,,,,,,,,,,U,181,hexagon,1,0,,,,,,,,,,,,,,,,switch,number,numSwt,k,0.458,Lo,,,,,,3,,,,,,,,high,25,0,25,0,1,,,,,,,,,
293941,2022-11-21_12h01.05.798,vts_reward_expectancy_bt,2022.2.4,Win32,120.1923077,Firefox,1920,1080,,,,,1,1174,,,,,,,,,,,,,,,,,W,139,triangle,1,0,,,,,,,,,,,,,,,,switch,letter,lettSwt,f,0.406,Hi,,,,,,3,,,,,,,,high,26,0,26,0,1,,,,,,,,,
293941,2022-11-21_12h01.05.798,vts_reward_expectancy_bt,2022.2.4,Win32,120.1923077,Firefox,1920,1080,,,,,0,1174,,,,,,,,,,,,,,,,,F,125,star,1,0,,,,,,,,,,,,,,,,repeat,letter,lettRpt,d,0.574,Hi,,,,,,3,,,,,,,,high,27,0,27,0,1,,,,,,,,,
293941,2022-11-21_12h01.05.798,vts_reward_expectancy_bt,2022.2.4,Win32,120.1923077,Firefox,1920,1080,,,,,10,1184,,,,,,,,,,,,,,,,,D,167,triangle,1,0,,,,,,,,,,,,,,,,repeat,letter,lettRpt,d,0.472,Hi,,,,,,3,,,,,,,,high,28,0,28,0,1,,,,,,,,,
293941,2022-11-21_12h01.05.798,vts_reward_expectancy_bt,2022.2.4,Win32,120.1923077,Firefox,1920,1080,,,,,0,1184,,,,,,,,,,,,,,,,,H,160,star,1,0,,,,,,,,,,,,,,,,repeat,letter,lettRpt,d,0.541,Hi,,,,,,3,,,,,,,,high,29,0,29,0,1,,,,,,,,,
293941,2022-11-21_12h01.05.798,vts_reward_expectancy_bt,2022.2.4,Win32,120.1923077,Firefox,1920,1080,,,,,1,1185,,,,,,,,,,,,,,,,,S,146,circle,1,0,,,,,,,,,,,,,,,,switch,number,numSwt,j,0.61,Lo,,,,,,3,,,,,,,,high,30,0,30,0,1,,,,,,,,,
293941,2022-11-21_12h01.05.798,vts_reward_expectancy_bt,2022.2.4,Win32,120.1923077,Firefox,1920,1080,,,,,1,1186,,,,,,,,,,,,,,,,,B,174,hexagon,1,0,,,,,,,,,,,,,,,,repeat,number,numRpt,k,0.379,Lo,,,,,,3,,,,,,,,high,31,0,31,0,1,,,,,,,,,
293941,2022-11-21_12h01.05.798,vts_reward_expectancy_bt,2022.2.4,Win32,120.1923077,Firefox,1920,1080,,,,,1,1187,,,,,,,,,,,,,,,,,D,125,hexagon,1,0,,,,,,,,,,,,,,,,repeat,number,numRpt,j,1.304,Lo,,,,,,4,,,,,,space,1.049,high,0,0,0,0,1,,,,,,,,,
293941,2022-11-21_12h01.05.798,vts_reward_expectancy_bt,2022.2.4,Win32,120.1923077,Firefox,1920,1080,,,,,0,1187,,,,,,,,,,,,,,,,,H,132,triangle,1,0,,,,,,,,,,,,,,,,switch,letter,lettSwt,d,0.628,Hi,,,,,,4,,,,,,,,high,1,0,1,0,1,,,,,,,,,
293941,2022-11-21_12h01.05.798,vts_reward_expectancy_bt,2022.2.4,Win32,120.1923077,Firefox,1920,1080,,,,,1,1188,,,,,,,,,,,,,,,,,F,167,circle,1,0,,,,,,,,,,,,,,,,switch,number,numSwt,k,0.59,Lo,,,,,,4,,,,,,,,high,2,0,2,0,1,,,,,,,,,
293941,2022-11-21_12h01.05.798,vts_reward_expectancy_bt,2022.2.4,Win32,120.1923077,Firefox,1920,1080,,,,,0,1188,,,,,,,,,,,,,,,,,S,174,star,1,0,,,,,,,,,,,,,,,,switch,letter,lettSwt,f,0.449,Hi,,,,,,4,,,,,,,,high,3,0,3,0,1,,,,,,,,,
293941,2022-11-21_12h01.05.798,vts_reward_expectancy_bt,2022.2.4,Win32,120.1923077,Firefox,1920,1080,,,,,1,1189,,,,,,,,,,,,,,,,,B,160,hexagon,1,0,,,,,,,,,,,,,,,,switch,number,numSwt,k,2.936,Lo,,,,,,4,,,,,,,,high,4,0,4,0,1,,,,,,,,,
293941,2022-11-21_12h01.05.798,vts_reward_expectancy_bt,2022.2.4,Win32,120.1923077,Firefox,1920,1080,,,,,1,1190,,,,,,,,,,,,,,,,,Y,181,triangle,1,0,,,,,,,,,,,,,,,,switch,letter,lettSwt,f,0.409,Hi,,,,,,4,,,,,,,,high,5,0,5,0,1,,,,,,,,,
293941,2022-11-21_12h01.05.798,vts_reward_expectancy_bt,2022.2.4,Win32,120.1923077,Firefox,1920,1080,,,,,0,1190,,,,,,,,,,,,,,,,,U,146,circle,-1,0,,,,,,,,,,,,,,,,switch,no_choice,NA,,,Hi,,,,,,4,,,,,,,,high,6,0,6,0,1,,,,,,,,,
293941,2022-11-21_12h01.05.798,vts_reward_expectancy_bt,2022.2.4,Win32,120.1923077,Firefox,1920,1080,,,,,10,1200,,,,,,,,,,,,,,,,,W,139,star,1,0,,,,,,,,,,,,,,,,switch,letter,lettSwt,f,0.397,Hi,,,,,,4,,,,,,,,high,7,0,7,0,1,,,,,,,,,
293941,2022-11-21_12h01.05.798,vts_reward_expectancy_bt,2022.2.4,Win32,120.1923077,Firefox,1920,1080,,,,,0,1200,,,,,,,,,,,,,,,,,D,125,star,1,0,,,,,,,,,,,,,,,,repeat,letter,lettRpt,d,0.634,Hi,,,,,,4,,,,,,,,high,8,0,8,0,1,,,,,,,,,
293941,2022-11-21_12h01.05.798,vts_reward_expectancy_bt,2022.2.4,Win32,120.1923077,Firefox,1920,1080,,,,,0,1200,,,,,,,,,,,,,,,,,H,132,triangle,1,0,,,,,,,,,,,,,,,,repeat,letter,lettRpt,d,0.56,Hi,,,,,,4,,,,,,,,high,9,0,9,0,1,,,,,,,,,
293941,2022-11-21_12h01.05.798,vts_reward_expectancy_bt,2022.2.4,Win32,120.1923077,Firefox,1920,1080,,,,,1,1201,,,,,,,,,,,,,,,,,F,167,circle,1,0,,,,,,,,,,,,,,,,switch,number,numSwt,k,0.662,Lo,,,,,,4,,,,,,,,high,10,0,10,0,1,,,,,,,,,
293941,2022-11-21_12h01.05.798,vts_reward_expectancy_bt,2022.2.4,Win32,120.1923077,Firefox,1920,1080,,,,,10,1211,,,,,,,,,,,,,,,,,S,174,hexagon,1,0,,,,,,,,,,,,,,,,switch,letter,lettSwt,f,0.51,Lo,,,,,,4,,,,,,,,high,11,0,11,0,1,,,,,,,,,
293941,2022-11-21_12h01.05.798,vts_reward_expectancy_bt,2022.2.4,Win32,120.1923077,Firefox,1920,1080,,,,,0,1211,,,,,,,,,,,,,,,,,B,160,triangle,1,0,,,,,,,,,,,,,,,,switch,number,numSwt,k,0.522,Hi,,,,,,4,,,,,,,,high,12,0,12,0,1,,,,,,,,,
293941,2022-11-21_12h01.05.798,vts_reward_expectancy_bt,2022.2.4,Win32,120.1923077,Firefox,1920,1080,,,,,10,1221,,,,,,,,,,,,,,,,,Y,181,star,1,0,,,,,,,,,,,,,,,,switch,letter,lettSwt,f,0.404,Hi,,,,,,4,,,,,,,,high,13,0,13,0,1,,,,,,,,,
293941,2022-11-21_12h01.05.798,vts_reward_expectancy_bt,2022.2.4,Win32,120.1923077,Firefox,1920,1080,,,,,1,1222,,,,,,,,,,,,,,,,,U,146,circle,1,0,,,,,,,,,,,,,,,,switch,number,numSwt,j,0.366,Lo,,,,,,4,,,,,,,,high,14,0,14,0,1,,,,,,,,,
293941,2022-11-21_12h01.05.798,vts_reward_expectancy_bt,2022.2.4,Win32,120.1923077,Firefox,1920,1080,,,,,1,1223,,,,,,,,,,,,,,,,,W,139,hexagon,1,0,,,,,,,,,,,,,,,,switch,letter,lettSwt,f,0.361,Lo,,,,,,4,,,,,,,,high,15,0,15,0,1,,,,,,,,,
293941,2022-11-21_12h01.05.798,vts_reward_expectancy_bt,2022.2.4,Win32,120.1923077,Firefox,1920,1080,,,,,1,1224,,,,,,,,,,,,,,,,,S,146,circle,1,0,,,,,,,,,,,,,,,,switch,number,numSwt,j,0.543,Lo,,,,,,4,,,,,,,,high,16,0,16,0,1,,,,,,,,,
293941,2022-11-21_12h01.05.798,vts_reward_expectancy_bt,2022.2.4,Win32,120.1923077,Firefox,1920,1080,,,,,1,1225,,,,,,,,,,,,,,,,,U,125,star,1,0,,,,,,,,,,,,,,,,switch,letter,lettSwt,f,0.429,Hi,,,,,,4,,,,,,,,high,17,0,17,0,1,,,,,,,,,
293941,2022-11-21_12h01.05.798,vts_reward_expectancy_bt,2022.2.4,Win32,120.1923077,Firefox,1920,1080,,,,,10,1235,,,,,,,,,,,,,,,,,D,181,triangle,1,0,,,,,,,,,,,,,,,,switch,number,numSwt,k,0.426,Hi,,,,,,4,,,,,,,,high,18,0,18,0,1,,,,,,,,,
293941,2022-11-21_12h01.05.798,vts_reward_expectancy_bt,2022.2.4,Win32,120.1923077,Firefox,1920,1080,,,,,1,1236,,,,,,,,,,,,,,,,,W,174,hexagon,1,0,,,,,,,,,,,,,,,,switch,letter,lettSwt,f,0.344,Lo,,,,,,4,,,,,,,,high,19,0,19,0,1,,,,,,,,,
293941,2022-11-21_12h01.05.798,vts_reward_expectancy_bt,2022.2.4,Win32,120.1923077,Firefox,1920,1080,,,,,1,1237,,,,,,,,,,,,,,,,,F,132,star,1,0,,,,,,,,,,,,,,,,repeat,letter,lettRpt,d,0.338,Hi,,,,,,4,,,,,,,,high,20,0,20,0,1,,,,,,,,,
293941,2022-11-21_12h01.05.798,vts_reward_expectancy_bt,2022.2.4,Win32,120.1923077,Firefox,1920,1080,,,,,0,1237,,,,,,,,,,,,,,,,,B,160,triangle,1,0,,,,,,,,,,,,,,,,switch,number,numSwt,k,0.572,Hi,,,,,,4,,,,,,,,high,21,0,21,0,1,,,,,,,,,
293941,2022-11-21_12h01.05.798,vts_reward_expectancy_bt,2022.2.4,Win32,120.1923077,Firefox,1920,1080,,,,,1,1238,,,,,,,,,,,,,,,,,Y,139,circle,1,0,,,,,,,,,,,,,,,,switch,letter,lettSwt,f,0.415,Lo,,,,,,4,,,,,,,,high,22,0,22,0,1,,,,,,,,,
293941,2022-11-21_12h01.05.798,vts_reward_expectancy_bt,2022.2.4,Win32,120.1923077,Firefox,1920,1080,,,,,10,1248,,,,,,,,,,,,,,,,,H,167,hexagon,1,0,,,,,,,,,,,,,,,,repeat,letter,lettRpt,d,0.472,Lo,,,,,,4,,,,,,,,high,23,0,23,0,1,,,,,,,,,
293941,2022-11-21_12h01.05.798,vts_reward_expectancy_bt,2022.2.4,Win32,120.1923077,Firefox,1920,1080,,,,,1,1249,,,,,,,,,,,,,,,,,S,160,circle,1,0,,,,,,,,,,,,,,,,repeat,letter,lettRpt,f,0.718,Lo,,,,,,4,,,,,,,,high,24,0,24,0,1,,,,,,,,,
293941,2022-11-21_12h01.05.798,vts_reward_expectancy_bt,2022.2.4,Win32,120.1923077,Firefox,1920,1080,,,,,10,1259,,,,,,,,,,,,,,,,,B,174,hexagon,1,0,,,,,,,,,,,,,,,,repeat,letter,lettRpt,d,0.505,Lo,,,,,,4,,,,,,,,high,25,0,25,0,1,,,,,,,,,
293941,2022-11-21_12h01.05.798,vts_reward_expectancy_bt,2022.2.4,Win32,120.1923077,Firefox,1920,1080,,,,,0,1259,,,,,,,,,,,,,,,,,F,132,triangle,1,0,,,,,,,,,,,,,,,,repeat,letter,lettRpt,d,0.459,Hi,,,,,,4,,,,,,,,high,26,0,26,0,1,,,,,,,,,
293941,2022-11-21_12h01.05.798,vts_reward_expectancy_bt,2022.2.4,Win32,120.1923077,Firefox,1920,1080,,,,,10,1269,,,,,,,,,,,,,,,,,H,167,star,1,0,,,,,,,,,,,,,,,,repeat,letter,lettRpt,d,0.435,Hi,,,,,,4,,,,,,,,high,27,0,27,0,1,,,,,,,,,
293941,2022-11-21_12h01.05.798,vts_reward_expectancy_bt,2022.2.4,Win32,120.1923077,Firefox,1920,1080,,,,,1,1270,,,,,,,,,,,,,,,,,U,125,hexagon,1,0,,,,,,,,,,,,,,,,repeat,letter,lettRpt,f,0.396,Lo,,,,,,4,,,,,,,,high,28,0,28,0,1,,,,,,,,,
293941,2022-11-21_12h01.05.798,vts_reward_expectancy_bt,2022.2.4,Win32,120.1923077,Firefox,1920,1080,,,,,0,1270,,,,,,,,,,,,,,,,,Y,181,triangle,1,0,,,,,,,,,,,,,,,,repeat,letter,lettRpt,f,0.462,Hi,,,,,,4,,,,,,,,high,29,0,29,0,1,,,,,,,,,
293941,2022-11-21_12h01.05.798,vts_reward_expectancy_bt,2022.2.4,Win32,120.1923077,Firefox,1920,1080,,,,,1,1271,,,,,,,,,,,,,,,,,D,146,circle,1,0,,,,,,,,,,,,,,,,switch,number,numSwt,j,0.415,Lo,,,,,,4,,,,,,,,high,30,0,30,0,1,,,,,,,,,
293941,2022-11-21_12h01.05.798,vts_reward_expectancy_bt,2022.2.4,Win32,120.1923077,Firefox,1920,1080,,,,,0,1271,,,,,,,,,,,,,,,,,W,139,star,0,0,,,,,,,,,,,,,,,,switch,letter,NA,d,0.399,Lo,,,,,,4,,,,,,,,high,31,0,31,0,1,,,,,,,,,
293941,2022-11-21_12h01.05.798,vts_reward_expectancy_bt,2022.2.4,Win32,120.1923077,Firefox,1920,1080,,,,,0,1271,,,,,,,,,,,,,,,,,D,146,triangle,1,1,,,,,,,,,,,,,,,,switch,number,numSwt,j,0.519,Hi,,,,,,5,,,,,,space,4.501,high,0,0,0,0,1,,,,,,,,,
293941,2022-11-21_12h01.05.798,vts_reward_expectancy_bt,2022.2.4,Win32,120.1923077,Firefox,1920,1080,,,,,0,1271,,,,,,,,,,,,,,,,,F,160,star,0,0,,,,,,,,,,,,,,,,switch,letter,NA,f,0.348,Hi,,,,,,5,,,,,,,,high,1,0,1,0,1,,,,,,,,,
293941,2022-11-21_12h01.05.798,vts_reward_expectancy_bt,2022.2.4,Win32,120.1923077,Firefox,1920,1080,,,,,1,1272,,,,,,,,,,,,,,,,,W,174,circle,1,1,,,,,,,,,,,,,,,,repeat,letter,lettRpt,f,0.397,Lo,,,,,,5,,,,,,,,high,2,0,2,0,1,,,,,,,,,
293941,2022-11-21_12h01.05.798,vts_reward_expectancy_bt,2022.2.4,Win32,120.1923077,Firefox,1920,1080,,,,,1,1273,,,,,,,,,,,,,,,,,B,167,hexagon,1,0,,,,,,,,,,,,,,,,repeat,letter,lettRpt,d,0.471,Lo,,,,,,5,,,,,,,,high,3,0,3,0,1,,,,,,,,,
293941,2022-11-21_12h01.05.798,vts_reward_expectancy_bt,2022.2.4,Win32,120.1923077,Firefox,1920,1080,,,,,0,1273,,,,,,,,,,,,,,,,,S,181,triangle,1,0,,,,,,,,,,,,,,,,repeat,letter,lettRpt,f,0.483,Hi,,,,,,5,,,,,,,,high,4,0,4,0,1,,,,,,,,,
293941,2022-11-21_12h01.05.798,vts_reward_expectancy_bt,2022.2.4,Win32,120.1923077,Firefox,1920,1080,,,,,0,1273,,,,,,,,,,,,,,,,,U,125,star,1,0,,,,,,,,,,,,,,,,repeat,letter,lettRpt,f,0.5,Hi,,,,,,5,,,,,,,,high,5,0,5,0,1,,,,,,,,,
293941,2022-11-21_12h01.05.798,vts_reward_expectancy_bt,2022.2.4,Win32,120.1923077,Firefox,1920,1080,,,,,1,1274,,,,,,,,,,,,,,,,,Y,139,circle,1,0,,,,,,,,,,,,,,,,repeat,letter,lettRpt,f,0.476,Lo,,,,,,5,,,,,,,,high,6,0,6,0,1,,,,,,,,,
293941,2022-11-21_12h01.05.798,vts_reward_expectancy_bt,2022.2.4,Win32,120.1923077,Firefox,1920,1080,,,,,1,1275,,,,,,,,,,,,,,,,,H,132,hexagon,1,0,,,,,,,,,,,,,,,,repeat,letter,lettRpt,d,0.323,Lo,,,,,,5,,,,,,,,high,7,0,7,0,1,,,,,,,,,
293941,2022-11-21_12h01.05.798,vts_reward_expectancy_bt,2022.2.4,Win32,120.1923077,Firefox,1920,1080,,,,,0,1275,,,,,,,,,,,,,,,,,D,146,triangle,1,0,,,,,,,,,,,,,,,,repeat,letter,lettRpt,d,0.472,Hi,,,,,,5,,,,,,,,high,8,0,8,0,1,,,,,,,,,
293941,2022-11-21_12h01.05.798,vts_reward_expectancy_bt,2022.2.4,Win32,120.1923077,Firefox,1920,1080,,,,,10,1285,,,,,,,,,,,,,,,,,F,160,hexagon,1,0,,,,,,,,,,,,,,,,switch,number,numSwt,k,0.378,Lo,,,,,,5,,,,,,,,high,9,0,9,0,1,,,,,,,,,
293941,2022-11-21_12h01.05.798,vts_reward_expectancy_bt,2022.2.4,Win32,120.1923077,Firefox,1920,1080,,,,,1,1286,,,,,,,,,,,,,,,,,W,174,circle,1,0,,,,,,,,,,,,,,,,repeat,number,numRpt,k,0.403,Lo,,,,,,5,,,,,,,,high,10,0,10,0,1,,,,,,,,,
293941,2022-11-21_12h01.05.798,vts_reward_expectancy_bt,2022.2.4,Win32,120.1923077,Firefox,1920,1080,,,,,0,1286,,,,,,,,,,,,,,,,,B,167,star,0,0,,,,,,,,,,,,,,,,repeat,number,NA,j,0.54,Lo,,,,,,5,,,,,,,,high,11,0,11,0,1,,,,,,,,,
293941,2022-11-21_12h01.05.798,vts_reward_expectancy_bt,2022.2.4,Win32,120.1923077,Firefox,1920,1080,,,,,10,1296,,,,,,,,,,,,,,,,,S,181,star,1,1,,,,,,,,,,,,,,,,repeat,number,numRpt,k,0.432,Hi,,,,,,5,,,,,,,,high,12,0,12,0,1,,,,,,,,,
293941,2022-11-21_12h01.05.798,vts_reward_expectancy_bt,2022.2.4,Win32,120.1923077,Firefox,1920,1080,,,,,1,1297,,,,,,,,,,,,,,,,,U,125,circle,1,0,,,,,,,,,,,,,,,,repeat,number,numRpt,j,0.403,Lo,,,,,,5,,,,,,,,high,13,0,13,0,1,,,,,,,,,
293941,2022-11-21_12h01.05.798,vts_reward_expectancy_bt,2022.2.4,Win32,120.1923077,Firefox,1920,1080,,,,,10,1307,,,,,,,,,,,,,,,,,Y,139,triangle,1,0,,,,,,,,,,,,,,,,repeat,number,numRpt,j,0.484,Hi,,,,,,5,,,,,,,,high,14,0,14,0,1,,,,,,,,,
293941,2022-11-21_12h01.05.798,vts_reward_expectancy_bt,2022.2.4,Win32,120.1923077,Firefox,1920,1080,,,,,1,1308,,,,,,,,,,,,,,,,,H,132,hexagon,1,0,,,,,,,,,,,,,,,,repeat,number,numRpt,j,0.483,Lo,,,,,,5,,,,,,,,high,15,0,15,0,1,,,,,,,,,
293941,2022-11-21_12h01.05.798,vts_reward_expectancy_bt,2022.2.4,Win32,120.1923077,Firefox,1920,1080,,,,,1,1309,,,,,,,,,,,,,,,,,H,132,hexagon,1,0,,,,,,,,,,,,,,,,repeat,number,numRpt,j,0.519,Lo,,,,,,5,,,,,,,,high,16,0,16,0,1,,,,,,,,,
293941,2022-11-21_12h01.05.798,vts_reward_expectancy_bt,2022.2.4,Win32,120.1923077,Firefox,1920,1080,,,,,10,1319,,,,,,,,,,,,,,,,,W,160,star,1,0,,,,,,,,,,,,,,,,repeat,number,numRpt,k,0.362,Hi,,,,,,5,,,,,,,,high,17,0,17,0,1,,,,,,,,,
293941,2022-11-21_12h01.05.798,vts_reward_expectancy_bt,2022.2.4,Win32,120.1923077,Firefox,1920,1080,,,,,1,1320,,,,,,,,,,,,,,,,,B,167,circle,1,0,,,,,,,,,,,,,,,,repeat,number,numRpt,k,0.421,Lo,,,,,,5,,,,,,,,high,18,0,18,0,1,,,,,,,,,
293941,2022-11-21_12h01.05.798,vts_reward_expectancy_bt,2022.2.4,Win32,120.1923077,Firefox,1920,1080,,,,,10,1330,,,,,,,,,,,,,,,,,D,125,triangle,1,0,,,,,,,,,,,,,,,,repeat,number,numRpt,j,0.588,Hi,,,,,,5,,,,,,,,high,19,0,19,0,1,,,,,,,,,
293941,2022-11-21_12h01.05.798,vts_reward_expectancy_bt,2022.2.4,Win32,120.1923077,Firefox,1920,1080,,,,,10,1340,,,,,,,,,,,,,,,,,F,139,star,1,0,,,,,,,,,,,,,,,,repeat,number,numRpt,j,0.438,Hi,,,,,,5,,,,,,,,high,20,0,20,0,1,,,,,,,,,
293941,2022-11-21_12h01.05.798,vts_reward_expectancy_bt,2022.2.4,Win32,120.1923077,Firefox,1920,1080,,,,,10,1350,,,,,,,,,,,,,,,,,S,181,triangle,1,0,,,,,,,,,,,,,,,,repeat,number,numRpt,k,0.396,Hi,,,,,,5,,,,,,,,high,21,0,21,0,1,,,,,,,,,
293941,2022-11-21_12h01.05.798,vts_reward_expectancy_bt,2022.2.4,Win32,120.1923077,Firefox,1920,1080,,,,,1,1351,,,,,,,,,,,,,,,,,Y,174,hexagon,1,0,,,,,,,,,,,,,,,,repeat,number,numRpt,k,0.476,Lo,,,,,,5,,,,,,,,high,22,0,22,0,1,,,,,,,,,
293941,2022-11-21_12h01.05.798,vts_reward_expectancy_bt,2022.2.4,Win32,120.1923077,Firefox,1920,1080,,,,,1,1352,,,,,,,,,,,,,,,,,U,146,circle,1,0,,,,,,,,,,,,,,,,repeat,number,numRpt,j,0.459,Lo,,,,,,5,,,,,,,,high,23,0,23,0,1,,,,,,,,,
293941,2022-11-21_12h01.05.798,vts_reward_expectancy_bt,2022.2.4,Win32,120.1923077,Firefox,1920,1080,,,,,1,1353,,,,,,,,,,,,,,,,,S,125,circle,1,0,,,,,,,,,,,,,,,,repeat,number,numRpt,j,0.405,Lo,,,,,,5,,,,,,,,high,24,0,24,0,1,,,,,,,,,
293941,2022-11-21_12h01.05.798,vts_reward_expectancy_bt,2022.2.4,Win32,120.1923077,Firefox,1920,1080,,,,,1,1354,,,,,,,,,,,,,,,,,W,167,hexagon,1,0,,,,,,,,,,,,,,,,repeat,number,numRpt,k,0.539,Lo,,,,,,5,,,,,,,,high,25,0,25,0,1,,,,,,,,,
293941,2022-11-21_12h01.05.798,vts_reward_expectancy_bt,2022.2.4,Win32,120.1923077,Firefox,1920,1080,,,,,10,1364,,,,,,,,,,,,,,,,,F,139,triangle,1,0,,,,,,,,,,,,,,,,repeat,number,numRpt,j,0.395,Hi,,,,,,5,,,,,,,,high,26,0,26,0,1,,,,,,,,,
293941,2022-11-21_12h01.05.798,vts_reward_expectancy_bt,2022.2.4,Win32,120.1923077,Firefox,1920,1080,,,,,0,1364,,,,,,,,,,,,,,,,,U,160,star,0,0,,,,,,,,,,,,,,,,repeat,number,NA,j,0.518,Hi,,,,,,5,,,,,,,,high,27,0,27,0,1,,,,,,,,,
293941,2022-11-21_12h01.05.798,vts_reward_expectancy_bt,2022.2.4,Win32,120.1923077,Firefox,1920,1080,,,,,1,1365,,,,,,,,,,,,,,,,,Y,132,hexagon,1,1,,,,,,,,,,,,,,,,switch,letter,lettSwt,f,0.487,Lo,,,,,,5,,,,,,,,high,28,0,28,0,1,,,,,,,,,
293941,2022-11-21_12h01.05.798,vts_reward_expectancy_bt,2022.2.4,Win32,120.1923077,Firefox,1920,1080,,,,,1,1366,,,,,,,,,,,,,,,,,D,181,circle,1,0,,,,,,,,,,,,,,,,repeat,letter,lettRpt,d,0.449,Lo,,,,,,5,,,,,,,,high,29,0,29,0,1,,,,,,,,,
293941,2022-11-21_12h01.05.798,vts_reward_expectancy_bt,2022.2.4,Win32,120.1923077,Firefox,1920,1080,,,,,0,1366,,,,,,,,,,,,,,,,,B,146,triangle,1,0,,,,,,,,,,,,,,,,switch,number,numSwt,j,0.525,Hi,,,,,,5,,,,,,,,high,30,0,30,0,1,,,,,,,,,
293941,2022-11-21_12h01.05.798,vts_reward_expectancy_bt,2022.2.4,Win32,120.1923077,Firefox,1920,1080,,,,,0,1366,,,,,,,,,,,,,,,,,H,174,star,1,0,,,,,,,,,,,,,,,,switch,letter,lettSwt,d,0.575,Hi,,,,,,5,,,,,,,,high,31,0,31,0,1,,,,,,,,,
293941,2022-11-21_12h01.05.798,vts_reward_expectancy_bt,2022.2.4,Win32,120.1923077,Firefox,1920,1080,,,,,10,1376,,,,,,,,,,,,,,,,,F,174,star,1,0,,,,,,,,,,,,,,,,switch,number,numSwt,k,0.445,Hi,,,,,,6,,,,,,space,0.361,high,0,0,0,0,1,,,,,,,,,
293941,2022-11-21_12h01.05.798,vts_reward_expectancy_bt,2022.2.4,Win32,120.1923077,Firefox,1920,1080,,,,,0,1376,,,,,,,,,,,,,,,,,S,181,circle,0,0,,,,,,,,,,,,,,,,switch,letter,NA,d,0.365,Hi,,,,,,6,,,,,,,,high,1,0,1,0,1,,,,,,,,,
293941,2022-11-21_12h01.05.798,vts_reward_expectancy_bt,2022.2.4,Win32,120.1923077,Firefox,1920,1080,,,,,1,1377,,,,,,,,,,,,,,,,,U,146,hexagon,1,1,,,,,,,,,,,,,,,,switch,number,numSwt,j,0.451,Lo,,,,,,6,,,,,,,,high,2,0,2,0,1,,,,,,,,,
293941,2022-11-21_12h01.05.798,vts_reward_expectancy_bt,2022.2.4,Win32,120.1923077,Firefox,1920,1080,,,,,0,1377,,,,,,,,,,,,,,,,,D,160,triangle,1,0,,,,,,,,,,,,,,,,repeat,number,numRpt,k,0.936,Hi,,,,,,6,,,,,,,,high,3,0,3,0,1,,,,,,,,,
293941,2022-11-21_12h01.05.798,vts_reward_expectancy_bt,2022.2.4,Win32,120.1923077,Firefox,1920,1080,,,,,0,1377,,,,,,,,,,,,,,,,,B,167,star,1,0,,,,,,,,,,,,,,,,repeat,number,numRpt,k,0.425,Hi,,,,,,6,,,,,,,,high,4,0,4,0,1,,,,,,,,,
293941,2022-11-21_12h01.05.798,vts_reward_expectancy_bt,2022.2.4,Win32,120.1923077,Firefox,1920,1080,,,,,1,1378,,,,,,,,,,,,,,,,,W,125,circle,1,0,,,,,,,,,,,,,,,,repeat,number,numRpt,j,0.376,Lo,,,,,,6,,,,,,,,high,5,0,5,0,1,,,,,,,,,
293941,2022-11-21_12h01.05.798,vts_reward_expectancy_bt,2022.2.4,Win32,120.1923077,Firefox,1920,1080,,,,,1,1379,,,,,,,,,,,,,,,,,Y,132,hexagon,1,0,,,,,,,,,,,,,,,,repeat,number,numRpt,j,0.477,Lo,,,,,,6,,,,,,,,high,6,0,6,0,1,,,,,,,,,
293941,2022-11-21_12h01.05.798,vts_reward_expectancy_bt,2022.2.4,Win32,120.1923077,Firefox,1920,1080,,,,,0,1379,,,,,,,,,,,,,,,,,H,139,triangle,1,0,,,,,,,,,,,,,,,,repeat,number,numRpt,j,0.476,Hi,,,,,,6,,,,,,,,high,7,0,7,0,1,,,,,,,,,
293941,2022-11-21_12h01.05.798,vts_reward_expectancy_bt,2022.2.4,Win32,120.1923077,Firefox,1920,1080,,,,,10,1389,,,,,,,,,,,,,,,,,F,174,star,1,0,,,,,,,,,,,,,,,,repeat,number,numRpt,k,0.352,Hi,,,,,,6,,,,,,,,high,8,0,8,0,1,,,,,,,,,
293941,2022-11-21_12h01.05.798,vts_reward_expectancy_bt,2022.2.4,Win32,120.1923077,Firefox,1920,1080,,,,,10,1399,,,,,,,,,,,,,,,,,S,181,circle,1,0,,,,,,,,,,,,,,,,repeat,number,numRpt,k,0.435,Lo,,,,,,6,,,,,,,,high,9,0,9,0,1,,,,,,,,,
293941,2022-11-21_12h01.05.798,vts_reward_expectancy_bt,2022.2.4,Win32,120.1923077,Firefox,1920,1080,,,,,1,1400,,,,,,,,,,,,,,,,,U,146,hexagon,1,0,,,,,,,,,,,,,,,,repeat,number,numRpt,j,0.366,Lo,,,,,,6,,,,,,,,high,10,0,10,0,1,,,,,,,,,
293941,2022-11-21_12h01.05.798,vts_reward_expectancy_bt,2022.2.4,Win32,120.1923077,Firefox,1920,1080,,,,,0,1400,,,,,,,,,,,,,,,,,D,160,triangle,1,0,,,,,,,,,,,,,,,,repeat,number,numRpt,k,0.417,Hi,,,,,,6,,,,,,,,high,11,0,11,0,1,,,,,,,,,
293941,2022-11-21_12h01.05.798,vts_reward_expectancy_bt,2022.2.4,Win32,120.1923077,Firefox,1920,1080,,,,,1,1401,,,,,,,,,,,,,,,,,B,167,circle,1,0,,,,,,,,,,,,,,,,repeat,number,numRpt,k,0.467,Lo,,,,,,6,,,,,,,,high,12,0,12,0,1,,,,,,,,,
293941,2022-11-21_12h01.05.798,vts_reward_expectancy_bt,2022.2.4,Win32,120.1923077,Firefox,1920,1080,,,,,1,1402,,,,,,,,,,,,,,,,,W,125,hexagon,1,0,,,,,,,,,,,,,,,,repeat,number,numRpt,j,0.443,Lo,,,,,,6,,,,,,,,high,13,0,13,0,1,,,,,,,,,
