participant,date,expName,psychopyVersion,OS,frameRate,browser,xResolution,yResolution,key_resp.keys,key_resp.rt,training_resp.keys,training_resp.rt,points_trial,points_cumul,trainBlock,training.thisRepN,training.thisTrialN,training.thisN,training.thisIndex,training.ran,LTriangleOpac,LCircleOpac,LHexagonOpac,LStarOpac,RTriangleOpac,RCircleOpac,RHexagonOpac,RStarOpac,LShape_ID,RShape_ID,curr_topStim,curr_bottStim,curr_shape,acc,E1,target_resp_prac1.keys,pracBlock,task1_prac_trials.thisRepN,task1_prac_trials.thisTrialN,task1_prac_trials.thisN,task1_prac_trials.thisIndex,task1_prac_trials.ran,target_resp_prac1.rt,target_resp_prac2.keys,target_resp_prac2.rt,task2_praac_trials.thisRepN,task2_praac_trials.thisTrialN,task2_praac_trials.thisN,task2_praac_trials.thisIndex,task2_praac_trials.ran,alt,task,condition,target_resp.keys,target_resp.rt,rewCond,vts_practice_trials.thisRepN,vts_practice_trials.thisTrialN,vts_practice_trials.thisN,vts_practice_trials.thisIndex,vts_practice_trials.ran,blockNum,trials_norew.thisRepN,trials_norew.thisTrialN,trials_norew.thisN,trials_norew.thisIndex,trials_norew.ran,key_resp_2.keys,key_resp_2.rt,rewExpectancy,trials_rew.thisRepN,trials_rew.thisTrialN,trials_rew.thisN,trials_rew.thisIndex,trials_rew.ran,Q1,Q2,Q2_text,Q3,Q4,Q5_text,Q5,xRes,yRes
293902,2022-11-13_21h48.28.663,vts_reward_expectancy_bt,2022.2.4,Win32,60.73858115,Chrome,1920,1080,,,,,,,,,,,,,,,,,,,,,,,,,,,,,,,,,,,,,,,,,,,,,,,,,,,,,,,,,,,,,,,,,,,,,,,,,,,,
293902,2022-11-13_21h48.28.663,vts_reward_expectancy_bt,2022.2.4,Win32,60.73858115,Chrome,1920,1080,space,12.0551,,,,,,,,,,,,,,,,,,,,,,,,,,,,,,,,,,,,,,,,,,,,,,,,,,,,,,,,,,,,,,,,,,,,,,,,,,
293902,2022-11-13_21h48.28.663,vts_reward_expectancy_bt,2022.2.4,Win32,60.73858115,Chrome,1920,1080,,,,,,,,,,,,,,,,,,,,,,,,,,,,,,,,,,,,,,,,,,,,,,,,,,,,,,,,,,,,,,,,,,,,,,,,,,,,
293902,2022-11-13_21h48.28.663,vts_reward_expectancy_bt,2022.2.4,Win32,60.73858115,Chrome,1920,1080,,,l,2.888,10,10,0,0,0,0,11,1,0,0,0,1,0,0,1,0,star,hexagon,,,,,,,,,,,,,,,,,,,,,,,,,,,,,,,,,,,,,,,,,,,,,,,,,,,,,,
293902,2022-11-13_21h48.28.663,vts_reward_expectancy_bt,2022.2.4,Win32,60.73858115,Chrome,1920,1080,,,l,1.3659,1,11,0,0,1,1,4,1,0,1,0,0,0,0,1,0,circle,hexagon,,,,,,,,,,,,,,,,,,,,,,,,,,,,,,,,,,,,,,,,,,,,,,,,,,,,,,
293902,2022-11-13_21h48.28.663,vts_reward_expectancy_bt,2022.2.4,Win32,60.73858115,Chrome,1920,1080,,,l,1.2224,1,12,0,0,2,2,5,1,0,1,0,0,0,0,0,1,circle,star,,,,,,,,,,,,,,,,,,,,,,,,,,,,,,,,,,,,,,,,,,,,,,,,,,,,,,
293902,2022-11-13_21h48.28.663,vts_reward_expectancy_bt,2022.2.4,Win32,60.73858115,Chrome,1920,1080,,,a,1.4754,1,13,0,0,3,3,2,1,1,0,0,0,0,0,0,1,triangle,star,,,,,,,,,,,,,,,,,,,,,,,,,,,,,,,,,,,,,,,,,,,,,,,,,,,,,,
293902,2022-11-13_21h48.28.663,vts_reward_expectancy_bt,2022.2.4,Win32,60.73858115,Chrome,1920,1080,,,l,1.2184,1,14,0,0,4,4,7,1,0,0,1,0,0,1,0,0,hexagon,circle,,,,,,,,,,,,,,,,,,,,,,,,,,,,,,,,,,,,,,,,,,,,,,,,,,,,,,
293902,2022-11-13_21h48.28.663,vts_reward_expectancy_bt,2022.2.4,Win32,60.73858115,Chrome,1920,1080,,,a,0.8961,1,15,0,0,5,5,6,1,0,0,1,0,1,0,0,0,hexagon,triangle,,,,,,,,,,,,,,,,,,,,,,,,,,,,,,,,,,,,,,,,,,,,,,,,,,,,,,
293902,2022-11-13_21h48.28.663,vts_reward_expectancy_bt,2022.2.4,Win32,60.73858115,Chrome,1920,1080,,,a,0.8918,1,16,0,0,6,6,10,1,0,0,0,1,0,1,0,0,star ,circle,,,,,,,,,,,,,,,,,,,,,,,,,,,,,,,,,,,,,,,,,,,,,,,,,,,,,,
293902,2022-11-13_21h48.28.663,vts_reward_expectancy_bt,2022.2.4,Win32,60.73858115,Chrome,1920,1080,,,a,0.2284,10,26,0,0,7,7,3,1,0,1,0,0,1,0,0,0,circle,triangle,,,,,,,,,,,,,,,,,,,,,,,,,,,,,,,,,,,,,,,,,,,,,,,,,,,,,,
293902,2022-11-13_21h48.28.663,vts_reward_expectancy_bt,2022.2.4,Win32,60.73858115,Chrome,1920,1080,,,a,2.3368,1,27,0,0,8,8,8,1,0,0,1,0,0,0,0,1,hexagon,star,,,,,,,,,,,,,,,,,,,,,,,,,,,,,,,,,,,,,,,,,,,,,,,,,,,,,,
293902,2022-11-13_21h48.28.663,vts_reward_expectancy_bt,2022.2.4,Win32,60.73858115,Chrome,1920,1080,,,a,1.7795,10,37,0,0,9,9,0,1,1,0,0,0,0,1,0,0,triangle,circle,,,,,,,,,,,,,,,,,,,,,,,,,,,,,,,,,,,,,,,,,,,,,,,,,,,,,,
293902,2022-11-13_21h48.28.663,vts_reward_expectancy_bt,2022.2.4,Win32,60.73858115,Chrome,1920,1080,,,a,1.0245,1,38,0,0,10,10,9,1,0,0,0,1,1,0,0,0,star,triangle,,,,,,,,,,,,,,,,,,,,,,,,,,,,,,,,,,,,,,,,,,,,,,,,,,,,,,
293902,2022-11-13_21h48.28.663,vts_reward_expectancy_bt,2022.2.4,Win32,60.73858115,Chrome,1920,1080,,,a,0.3226,1,39,0,0,11,11,1,1,1,0,0,0,0,0,1,0,triangle,hexagon,,,,,,,,,,,,,,,,,,,,,,,,,,,,,,,,,,,,,,,,,,,,,,,,,,,,,,
293902,2022-11-13_21h48.28.663,vts_reward_expectancy_bt,2022.2.4,Win32,60.73858115,Chrome,1920,1080,,,a,0.2275,10,49,0,1,0,12,8,1,0,0,1,0,0,0,0,1,hexagon,star,,,,,,,,,,,,,,,,,,,,,,,,,,,,,,,,,,,,,,,,,,,,,,,,,,,,,,
293902,2022-11-13_21h48.28.663,vts_reward_expectancy_bt,2022.2.4,Win32,60.73858115,Chrome,1920,1080,,,l,1.1071,1,50,0,1,1,13,6,1,0,0,1,0,1,0,0,0,hexagon,triangle,,,,,,,,,,,,,,,,,,,,,,,,,,,,,,,,,,,,,,,,,,,,,,,,,,,,,,
293902,2022-11-13_21h48.28.663,vts_reward_expectancy_bt,2022.2.4,Win32,60.73858115,Chrome,1920,1080,,,a,0.6452,1,51,0,1,2,14,7,1,0,0,1,0,0,1,0,0,hexagon,circle,,,,,,,,,,,,,,,,,,,,,,,,,,,,,,,,,,,,,,,,,,,,,,,,,,,,,,
293902,2022-11-13_21h48.28.663,vts_reward_expectancy_bt,2022.2.4,Win32,60.73858115,Chrome,1920,1080,,,l,0.2716,10,61,0,1,3,15,5,1,0,1,0,0,0,0,0,1,circle,star,,,,,,,,,,,,,,,,,,,,,,,,,,,,,,,,,,,,,,,,,,,,,,,,,,,,,,
293902,2022-11-13_21h48.28.663,vts_reward_expectancy_bt,2022.2.4,Win32,60.73858115,Chrome,1920,1080,,,a,2.9872,10,71,0,1,4,16,3,1,0,1,0,0,1,0,0,0,circle,triangle,,,,,,,,,,,,,,,,,,,,,,,,,,,,,,,,,,,,,,,,,,,,,,,,,,,,,,
293902,2022-11-13_21h48.28.663,vts_reward_expectancy_bt,2022.2.4,Win32,60.73858115,Chrome,1920,1080,,,l,0.9138,1,72,0,1,5,17,0,1,1,0,0,0,0,1,0,0,triangle,circle,,,,,,,,,,,,,,,,,,,,,,,,,,,,,,,,,,,,,,,,,,,,,,,,,,,,,,
293902,2022-11-13_21h48.28.663,vts_reward_expectancy_bt,2022.2.4,Win32,60.73858115,Chrome,1920,1080,,,l,1.8229,10,82,0,1,6,18,2,1,1,0,0,0,0,0,0,1,triangle,star,,,,,,,,,,,,,,,,,,,,,,,,,,,,,,,,,,,,,,,,,,,,,,,,,,,,,,
293902,2022-11-13_21h48.28.663,vts_reward_expectancy_bt,2022.2.4,Win32,60.73858115,Chrome,1920,1080,,,l,1.4776,1,83,0,1,7,19,11,1,0,0,0,1,0,0,1,0,star,hexagon,,,,,,,,,,,,,,,,,,,,,,,,,,,,,,,,,,,,,,,,,,,,,,,,,,,,,,
293902,2022-11-13_21h48.28.663,vts_reward_expectancy_bt,2022.2.4,Win32,60.73858115,Chrome,1920,1080,,,l,1.2532,1,84,0,1,8,20,1,1,1,0,0,0,0,0,1,0,triangle,hexagon,,,,,,,,,,,,,,,,,,,,,,,,,,,,,,,,,,,,,,,,,,,,,,,,,,,,,,
293902,2022-11-13_21h48.28.663,vts_reward_expectancy_bt,2022.2.4,Win32,60.73858115,Chrome,1920,1080,,,l,0.9987,10,94,0,1,9,21,10,1,0,0,0,1,0,1,0,0,star ,circle,,,,,,,,,,,,,,,,,,,,,,,,,,,,,,,,,,,,,,,,,,,,,,,,,,,,,,
293902,2022-11-13_21h48.28.663,vts_reward_expectancy_bt,2022.2.4,Win32,60.73858115,Chrome,1920,1080,,,a,0.3994,10,104,0,1,10,22,9,1,0,0,0,1,1,0,0,0,star,triangle,,,,,,,,,,,,,,,,,,,,,,,,,,,,,,,,,,,,,,,,,,,,,,,,,,,,,,
293902,2022-11-13_21h48.28.663,vts_reward_expectancy_bt,2022.2.4,Win32,60.73858115,Chrome,1920,1080,,,l,0.5907,10,114,0,1,11,23,4,1,0,1,0,0,0,0,1,0,circle,hexagon,,,,,,,,,,,,,,,,,,,,,,,,,,,,,,,,,,,,,,,,,,,,,,,,,,,,,,
293902,2022-11-13_21h48.28.663,vts_reward_expectancy_bt,2022.2.4,Win32,60.73858115,Chrome,1920,1080,,,a,0.6787,10,124,0,2,0,24,6,1,0,0,1,0,1,0,0,0,hexagon,triangle,,,,,,,,,,,,,,,,,,,,,,,,,,,,,,,,,,,,,,,,,,,,,,,,,,,,,,
293902,2022-11-13_21h48.28.663,vts_reward_expectancy_bt,2022.2.4,Win32,60.73858115,Chrome,1920,1080,,,l,0.551,1,125,0,2,1,25,5,1,0,1,0,0,0,0,0,1,circle,star,,,,,,,,,,,,,,,,,,,,,,,,,,,,,,,,,,,,,,,,,,,,,,,,,,,,,,
293902,2022-11-13_21h48.28.663,vts_reward_expectancy_bt,2022.2.4,Win32,60.73858115,Chrome,1920,1080,,,l,0.8855,1,126,0,2,2,26,0,1,1,0,0,0,0,1,0,0,triangle,circle,,,,,,,,,,,,,,,,,,,,,,,,,,,,,,,,,,,,,,,,,,,,,,,,,,,,,,
293902,2022-11-13_21h48.28.663,vts_reward_expectancy_bt,2022.2.4,Win32,60.73858115,Chrome,1920,1080,,,a,0.37,10,136,0,2,3,27,7,1,0,0,1,0,0,1,0,0,hexagon,circle,,,,,,,,,,,,,,,,,,,,,,,,,,,,,,,,,,,,,,,,,,,,,,,,,,,,,,
293902,2022-11-13_21h48.28.663,vts_reward_expectancy_bt,2022.2.4,Win32,60.73858115,Chrome,1920,1080,,,a,0.3491,1,137,0,2,4,28,8,1,0,0,1,0,0,0,0,1,hexagon,star,,,,,,,,,,,,,,,,,,,,,,,,,,,,,,,,,,,,,,,,,,,,,,,,,,,,,,
293902,2022-11-13_21h48.28.663,vts_reward_expectancy_bt,2022.2.4,Win32,60.73858115,Chrome,1920,1080,,,l,0.3715,1,138,0,2,5,29,10,1,0,0,0,1,0,1,0,0,star ,circle,,,,,,,,,,,,,,,,,,,,,,,,,,,,,,,,,,,,,,,,,,,,,,,,,,,,,,
293902,2022-11-13_21h48.28.663,vts_reward_expectancy_bt,2022.2.4,Win32,60.73858115,Chrome,1920,1080,,,a,0.9992,10,148,0,2,6,30,3,1,0,1,0,0,1,0,0,0,circle,triangle,,,,,,,,,,,,,,,,,,,,,,,,,,,,,,,,,,,,,,,,,,,,,,,,,,,,,,
293902,2022-11-13_21h48.28.663,vts_reward_expectancy_bt,2022.2.4,Win32,60.73858115,Chrome,1920,1080,,,l,0.6702,10,158,0,2,7,31,1,1,1,0,0,0,0,0,1,0,triangle,hexagon,,,,,,,,,,,,,,,,,,,,,,,,,,,,,,,,,,,,,,,,,,,,,,,,,,,,,,
293902,2022-11-13_21h48.28.663,vts_reward_expectancy_bt,2022.2.4,Win32,60.73858115,Chrome,1920,1080,,,a,0.3533,10,168,0,2,8,32,11,1,0,0,0,1,0,0,1,0,star,hexagon,,,,,,,,,,,,,,,,,,,,,,,,,,,,,,,,,,,,,,,,,,,,,,,,,,,,,,
293902,2022-11-13_21h48.28.663,vts_reward_expectancy_bt,2022.2.4,Win32,60.73858115,Chrome,1920,1080,,,l,1.3231,1,169,0,2,9,33,9,1,0,0,0,1,1,0,0,0,star,triangle,,,,,,,,,,,,,,,,,,,,,,,,,,,,,,,,,,,,,,,,,,,,,,,,,,,,,,
293902,2022-11-13_21h48.28.663,vts_reward_expectancy_bt,2022.2.4,Win32,60.73858115,Chrome,1920,1080,,,a,2.036,10,179,0,2,10,34,4,1,0,1,0,0,0,0,1,0,circle,hexagon,,,,,,,,,,,,,,,,,,,,,,,,,,,,,,,,,,,,,,,,,,,,,,,,,,,,,,
293902,2022-11-13_21h48.28.663,vts_reward_expectancy_bt,2022.2.4,Win32,60.73858115,Chrome,1920,1080,,,l,0.9303,1,180,0,2,11,35,2,1,1,0,0,0,0,0,0,1,triangle,star,,,,,,,,,,,,,,,,,,,,,,,,,,,,,,,,,,,,,,,,,,,,,,,,,,,,,,
293902,2022-11-13_21h48.28.663,vts_reward_expectancy_bt,2022.2.4,Win32,60.73858115,Chrome,1920,1080,,,a,1.3265,10,190,1,0,0,0,2,1,1,0,0,0,0,0,0,1,triangle,star,,,,,,,,,,,,,,,,,,,,,,,,,,,,,,,,,,,,,,,,,,,,,,,,,,,,,,
293902,2022-11-13_21h48.28.663,vts_reward_expectancy_bt,2022.2.4,Win32,60.73858115,Chrome,1920,1080,,,l,0.8895,10,200,1,0,1,1,11,1,0,0,0,1,0,0,1,0,star,hexagon,,,,,,,,,,,,,,,,,,,,,,,,,,,,,,,,,,,,,,,,,,,,,,,,,,,,,,
293902,2022-11-13_21h48.28.663,vts_reward_expectancy_bt,2022.2.4,Win32,60.73858115,Chrome,1920,1080,,,a,0.5742,10,210,1,0,2,2,0,1,1,0,0,0,0,1,0,0,triangle,circle,,,,,,,,,,,,,,,,,,,,,,,,,,,,,,,,,,,,,,,,,,,,,,,,,,,,,,
293902,2022-11-13_21h48.28.663,vts_reward_expectancy_bt,2022.2.4,Win32,60.73858115,Chrome,1920,1080,,,l,1.8489,10,220,1,0,3,3,1,1,1,0,0,0,0,0,1,0,triangle,hexagon,,,,,,,,,,,,,,,,,,,,,,,,,,,,,,,,,,,,,,,,,,,,,,,,,,,,,,
293902,2022-11-13_21h48.28.663,vts_reward_expectancy_bt,2022.2.4,Win32,60.73858115,Chrome,1920,1080,,,l,3.3787,1,221,1,0,4,4,7,1,0,0,1,0,0,1,0,0,hexagon,circle,,,,,,,,,,,,,,,,,,,,,,,,,,,,,,,,,,,,,,,,,,,,,,,,,,,,,,
293902,2022-11-13_21h48.28.663,vts_reward_expectancy_bt,2022.2.4,Win32,60.73858115,Chrome,1920,1080,,,l,4.3632,10,231,1,0,5,5,8,1,0,0,1,0,0,0,0,1,hexagon,star,,,,,,,,,,,,,,,,,,,,,,,,,,,,,,,,,,,,,,,,,,,,,,,,,,,,,,
293902,2022-11-13_21h48.28.663,vts_reward_expectancy_bt,2022.2.4,Win32,60.73858115,Chrome,1920,1080,,,a,1.1945,1,232,1,0,6,6,4,1,0,1,0,0,0,0,1,0,circle,hexagon,,,,,,,,,,,,,,,,,,,,,,,,,,,,,,,,,,,,,,,,,,,,,,,,,,,,,,
293902,2022-11-13_21h48.28.663,vts_reward_expectancy_bt,2022.2.4,Win32,60.73858115,Chrome,1920,1080,,,a,1.3898,10,242,1,0,7,7,5,1,0,1,0,0,0,0,0,1,circle,star,,,,,,,,,,,,,,,,,,,,,,,,,,,,,,,,,,,,,,,,,,,,,,,,,,,,,,
293902,2022-11-13_21h48.28.663,vts_reward_expectancy_bt,2022.2.4,Win32,60.73858115,Chrome,1920,1080,,,a,5.7803,1,243,1,0,8,8,3,1,0,1,0,0,1,0,0,0,circle,triangle,,,,,,,,,,,,,,,,,,,,,,,,,,,,,,,,,,,,,,,,,,,,,,,,,,,,,,
293902,2022-11-13_21h48.28.663,vts_reward_expectancy_bt,2022.2.4,Win32,60.73858115,Chrome,1920,1080,,,l,2.9717,10,253,1,0,9,9,10,1,0,0,0,1,0,1,0,0,star ,circle,,,,,,,,,,,,,,,,,,,,,,,,,,,,,,,,,,,,,,,,,,,,,,,,,,,,,,
293902,2022-11-13_21h48.28.663,vts_reward_expectancy_bt,2022.2.4,Win32,60.73858115,Chrome,1920,1080,,,a,6.5682,10,263,1,0,10,10,9,1,0,0,0,1,1,0,0,0,star,triangle,,,,,,,,,,,,,,,,,,,,,,,,,,,,,,,,,,,,,,,,,,,,,,,,,,,,,,
293902,2022-11-13_21h48.28.663,vts_reward_expectancy_bt,2022.2.4,Win32,60.73858115,Chrome,1920,1080,,,a,3.7207,10,273,1,0,11,11,6,1,0,0,1,0,1,0,0,0,hexagon,triangle,,,,,,,,,,,,,,,,,,,,,,,,,,,,,,,,,,,,,,,,,,,,,,,,,,,,,,
293902,2022-11-13_21h48.28.663,vts_reward_expectancy_bt,2022.2.4,Win32,60.73858115,Chrome,1920,1080,,,a,1.7857,1,274,1,1,0,12,4,1,0,1,0,0,0,0,1,0,circle,hexagon,,,,,,,,,,,,,,,,,,,,,,,,,,,,,,,,,,,,,,,,,,,,,,,,,,,,,,
293902,2022-11-13_21h48.28.663,vts_reward_expectancy_bt,2022.2.4,Win32,60.73858115,Chrome,1920,1080,,,l,0.0681,10,284,1,1,1,13,7,1,0,0,1,0,0,1,0,0,hexagon,circle,,,,,,,,,,,,,,,,,,,,,,,,,,,,,,,,,,,,,,,,,,,,,,,,,,,,,,
293902,2022-11-13_21h48.28.663,vts_reward_expectancy_bt,2022.2.4,Win32,60.73858115,Chrome,1920,1080,,,l,0.2279,1,285,1,1,2,14,1,1,1,0,0,0,0,0,1,0,triangle,hexagon,,,,,,,,,,,,,,,,,,,,,,,,,,,,,,,,,,,,,,,,,,,,,,,,,,,,,,
293902,2022-11-13_21h48.28.663,vts_reward_expectancy_bt,2022.2.4,Win32,60.73858115,Chrome,1920,1080,,,l,0.1493,10,295,1,1,3,15,2,1,1,0,0,0,0,0,0,1,triangle,star,,,,,,,,,,,,,,,,,,,,,,,,,,,,,,,,,,,,,,,,,,,,,,,,,,,,,,
293902,2022-11-13_21h48.28.663,vts_reward_expectancy_bt,2022.2.4,Win32,60.73858115,Chrome,1920,1080,,,a,0.3335,10,305,1,1,4,16,6,1,0,0,1,0,1,0,0,0,hexagon,triangle,,,,,,,,,,,,,,,,,,,,,,,,,,,,,,,,,,,,,,,,,,,,,,,,,,,,,,
293902,2022-11-13_21h48.28.663,vts_reward_expectancy_bt,2022.2.4,Win32,60.73858115,Chrome,1920,1080,,,l,0.1215,1,306,1,1,5,17,10,1,0,0,0,1,0,1,0,0,star ,circle,,,,,,,,,,,,,,,,,,,,,,,,,,,,,,,,,,,,,,,,,,,,,,,,,,,,,,
293902,2022-11-13_21h48.28.663,vts_reward_expectancy_bt,2022.2.4,Win32,60.73858115,Chrome,1920,1080,,,a,0.2497,1,307,1,1,6,18,0,1,1,0,0,0,0,1,0,0,triangle,circle,,,,,,,,,,,,,,,,,,,,,,,,,,,,,,,,,,,,,,,,,,,,,,,,,,,,,,
293902,2022-11-13_21h48.28.663,vts_reward_expectancy_bt,2022.2.4,Win32,60.73858115,Chrome,1920,1080,,,a,0.1663,1,308,1,1,7,19,3,1,0,1,0,0,1,0,0,0,circle,triangle,,,,,,,,,,,,,,,,,,,,,,,,,,,,,,,,,,,,,,,,,,,,,,,,,,,,,,
293902,2022-11-13_21h48.28.663,vts_reward_expectancy_bt,2022.2.4,Win32,60.73858115,Chrome,1920,1080,,,a,0.2267,10,318,1,1,8,20,5,1,0,1,0,0,0,0,0,1,circle,star,,,,,,,,,,,,,,,,,,,,,,,,,,,,,,,,,,,,,,,,,,,,,,,,,,,,,,
293902,2022-11-13_21h48.28.663,vts_reward_expectancy_bt,2022.2.4,Win32,60.73858115,Chrome,1920,1080,,,a,0.2829,10,328,1,1,9,21,8,1,0,0,1,0,0,0,0,1,hexagon,star,,,,,,,,,,,,,,,,,,,,,,,,,,,,,,,,,,,,,,,,,,,,,,,,,,,,,,
293902,2022-11-13_21h48.28.663,vts_reward_expectancy_bt,2022.2.4,Win32,60.73858115,Chrome,1920,1080,,,l,0.3154,1,329,1,1,10,22,9,1,0,0,0,1,1,0,0,0,star,triangle,,,,,,,,,,,,,,,,,,,,,,,,,,,,,,,,,,,,,,,,,,,,,,,,,,,,,,
293902,2022-11-13_21h48.28.663,vts_reward_expectancy_bt,2022.2.4,Win32,60.73858115,Chrome,1920,1080,,,a,0.2444,10,339,1,1,11,23,11,1,0,0,0,1,0,0,1,0,star,hexagon,,,,,,,,,,,,,,,,,,,,,,,,,,,,,,,,,,,,,,,,,,,,,,,,,,,,,,
293902,2022-11-13_21h48.28.663,vts_reward_expectancy_bt,2022.2.4,Win32,60.73858115,Chrome,1920,1080,,,a,0.253,1,340,1,2,0,24,3,1,0,1,0,0,1,0,0,0,circle,triangle,,,,,,,,,,,,,,,,,,,,,,,,,,,,,,,,,,,,,,,,,,,,,,,,,,,,,,
293902,2022-11-13_21h48.28.663,vts_reward_expectancy_bt,2022.2.4,Win32,60.73858115,Chrome,1920,1080,,,l,0.1394,10,350,1,2,1,25,6,1,0,0,1,0,1,0,0,0,hexagon,triangle,,,,,,,,,,,,,,,,,,,,,,,,,,,,,,,,,,,,,,,,,,,,,,,,,,,,,,
293902,2022-11-13_21h48.28.663,vts_reward_expectancy_bt,2022.2.4,Win32,60.73858115,Chrome,1920,1080,,,l,0.2245,1,351,1,2,2,26,7,1,0,0,1,0,0,1,0,0,hexagon,circle,,,,,,,,,,,,,,,,,,,,,,,,,,,,,,,,,,,,,,,,,,,,,,,,,,,,,,
293902,2022-11-13_21h48.28.663,vts_reward_expectancy_bt,2022.2.4,Win32,60.73858115,Chrome,1920,1080,,,l,0.1554,1,352,1,2,3,27,0,1,1,0,0,0,0,1,0,0,triangle,circle,,,,,,,,,,,,,,,,,,,,,,,,,,,,,,,,,,,,,,,,,,,,,,,,,,,,,,
293902,2022-11-13_21h48.28.663,vts_reward_expectancy_bt,2022.2.4,Win32,60.73858115,Chrome,1920,1080,,,l,0.1489,10,362,1,2,4,28,1,1,1,0,0,0,0,0,1,0,triangle,hexagon,,,,,,,,,,,,,,,,,,,,,,,,,,,,,,,,,,,,,,,,,,,,,,,,,,,,,,
293902,2022-11-13_21h48.28.663,vts_reward_expectancy_bt,2022.2.4,Win32,60.73858115,Chrome,1920,1080,,,a,0.3491,10,372,1,2,5,29,8,1,0,0,1,0,0,0,0,1,hexagon,star,,,,,,,,,,,,,,,,,,,,,,,,,,,,,,,,,,,,,,,,,,,,,,,,,,,,,,
293902,2022-11-13_21h48.28.663,vts_reward_expectancy_bt,2022.2.4,Win32,60.73858115,Chrome,1920,1080,,,a,1.3058,1,373,1,2,6,30,2,1,1,0,0,0,0,0,0,1,triangle,star,,,,,,,,,,,,,,,,,,,,,,,,,,,,,,,,,,,,,,,,,,,,,,,,,,,,,,
293902,2022-11-13_21h48.28.663,vts_reward_expectancy_bt,2022.2.4,Win32,60.73858115,Chrome,1920,1080,,,l,0.6108,10,383,1,2,7,31,11,1,0,0,0,1,0,0,1,0,star,hexagon,,,,,,,,,,,,,,,,,,,,,,,,,,,,,,,,,,,,,,,,,,,,,,,,,,,,,,
293902,2022-11-13_21h48.28.663,vts_reward_expectancy_bt,2022.2.4,Win32,60.73858115,Chrome,1920,1080,,,a,0.4013,1,384,1,2,8,32,5,1,0,1,0,0,0,0,0,1,circle,star,,,,,,,,,,,,,,,,,,,,,,,,,,,,,,,,,,,,,,,,,,,,,,,,,,,,,,
293902,2022-11-13_21h48.28.663,vts_reward_expectancy_bt,2022.2.4,Win32,60.73858115,Chrome,1920,1080,,,l,0.8186,1,385,1,2,9,33,9,1,0,0,0,1,1,0,0,0,star,triangle,,,,,,,,,,,,,,,,,,,,,,,,,,,,,,,,,,,,,,,,,,,,,,,,,,,,,,
293902,2022-11-13_21h48.28.663,vts_reward_expectancy_bt,2022.2.4,Win32,60.73858115,Chrome,1920,1080,,,a,0.2802,10,395,1,2,10,34,4,1,0,1,0,0,0,0,1,0,circle,hexagon,,,,,,,,,,,,,,,,,,,,,,,,,,,,,,,,,,,,,,,,,,,,,,,,,,,,,,
293902,2022-11-13_21h48.28.663,vts_reward_expectancy_bt,2022.2.4,Win32,60.73858115,Chrome,1920,1080,,,a,0.2851,10,405,1,2,11,35,10,1,0,0,0,1,0,1,0,0,star ,circle,,,,,,,,,,,,,,,,,,,,,,,,,,,,,,,,,,,,,,,,,,,,,,,,,,,,,,
293902,2022-11-13_21h48.28.663,vts_reward_expectancy_bt,2022.2.4,Win32,60.73858115,Chrome,1920,1080,,,a,0.5161,10,415,2,0,0,0,10,1,0,0,0,1,0,1,0,0,star ,circle,,,,,,,,,,,,,,,,,,,,,,,,,,,,,,,,,,,,,,,,,,,,,,,,,,,,,,
293902,2022-11-13_21h48.28.663,vts_reward_expectancy_bt,2022.2.4,Win32,60.73858115,Chrome,1920,1080,,,l,0.4126,1,416,2,0,1,1,1,1,1,0,0,0,0,0,1,0,triangle,hexagon,,,,,,,,,,,,,,,,,,,,,,,,,,,,,,,,,,,,,,,,,,,,,,,,,,,,,,
293902,2022-11-13_21h48.28.663,vts_reward_expectancy_bt,2022.2.4,Win32,60.73858115,Chrome,1920,1080,,,l,0.2015,1,417,2,0,2,2,3,1,0,1,0,0,1,0,0,0,circle,triangle,,,,,,,,,,,,,,,,,,,,,,,,,,,,,,,,,,,,,,,,,,,,,,,,,,,,,,
293902,2022-11-13_21h48.28.663,vts_reward_expectancy_bt,2022.2.4,Win32,60.73858115,Chrome,1920,1080,,,l,0.2158,10,427,2,0,3,3,6,1,0,0,1,0,1,0,0,0,hexagon,triangle,,,,,,,,,,,,,,,,,,,,,,,,,,,,,,,,,,,,,,,,,,,,,,,,,,,,,,
293902,2022-11-13_21h48.28.663,vts_reward_expectancy_bt,2022.2.4,Win32,60.73858115,Chrome,1920,1080,,,l,0.2993,1,428,2,0,4,4,8,1,0,0,1,0,0,0,0,1,hexagon,star,,,,,,,,,,,,,,,,,,,,,,,,,,,,,,,,,,,,,,,,,,,,,,,,,,,,,,
293902,2022-11-13_21h48.28.663,vts_reward_expectancy_bt,2022.2.4,Win32,60.73858115,Chrome,1920,1080,,,l,0.183,10,438,2,0,5,5,7,1,0,0,1,0,0,1,0,0,hexagon,circle,,,,,,,,,,,,,,,,,,,,,,,,,,,,,,,,,,,,,,,,,,,,,,,,,,,,,,
293902,2022-11-13_21h48.28.663,vts_reward_expectancy_bt,2022.2.4,Win32,60.73858115,Chrome,1920,1080,,,a,0.5325,1,439,2,0,6,6,5,1,0,1,0,0,0,0,0,1,circle,star,,,,,,,,,,,,,,,,,,,,,,,,,,,,,,,,,,,,,,,,,,,,,,,,,,,,,,
293902,2022-11-13_21h48.28.663,vts_reward_expectancy_bt,2022.2.4,Win32,60.73858115,Chrome,1920,1080,,,l,0.287,1,440,2,0,7,7,9,1,0,0,0,1,1,0,0,0,star,triangle,,,,,,,,,,,,,,,,,,,,,,,,,,,,,,,,,,,,,,,,,,,,,,,,,,,,,,
293902,2022-11-13_21h48.28.663,vts_reward_expectancy_bt,2022.2.4,Win32,60.73858115,Chrome,1920,1080,,,a,0.1279,1,441,2,0,8,8,11,1,0,0,0,1,0,0,1,0,star,hexagon,,,,,,,,,,,,,,,,,,,,,,,,,,,,,,,,,,,,,,,,,,,,,,,,,,,,,,
293902,2022-11-13_21h48.28.663,vts_reward_expectancy_bt,2022.2.4,Win32,60.73858115,Chrome,1920,1080,,,l,0.0295,10,451,2,0,9,9,4,1,0,1,0,0,0,0,1,0,circle,hexagon,,,,,,,,,,,,,,,,,,,,,,,,,,,,,,,,,,,,,,,,,,,,,,,,,,,,,,
293902,2022-11-13_21h48.28.663,vts_reward_expectancy_bt,2022.2.4,Win32,60.73858115,Chrome,1920,1080,,,a,0.2716,10,461,2,0,10,10,2,1,1,0,0,0,0,0,0,1,triangle,star,,,,,,,,,,,,,,,,,,,,,,,,,,,,,,,,,,,,,,,,,,,,,,,,,,,,,,
293902,2022-11-13_21h48.28.663,vts_reward_expectancy_bt,2022.2.4,Win32,60.73858115,Chrome,1920,1080,,,l,0.5558,10,471,2,0,11,11,0,1,1,0,0,0,0,1,0,0,triangle,circle,,,,,,,,,,,,,,,,,,,,,,,,,,,,,,,,,,,,,,,,,,,,,,,,,,,,,,
293902,2022-11-13_21h48.28.663,vts_reward_expectancy_bt,2022.2.4,Win32,60.73858115,Chrome,1920,1080,,,a,0.217,1,472,2,1,0,12,9,1,0,0,0,1,1,0,0,0,star,triangle,,,,,,,,,,,,,,,,,,,,,,,,,,,,,,,,,,,,,,,,,,,,,,,,,,,,,,
293902,2022-11-13_21h48.28.663,vts_reward_expectancy_bt,2022.2.4,Win32,60.73858115,Chrome,1920,1080,,,l,0.2119,1,473,2,1,1,13,5,1,0,1,0,0,0,0,0,1,circle,star,,,,,,,,,,,,,,,,,,,,,,,,,,,,,,,,,,,,,,,,,,,,,,,,,,,,,,
293902,2022-11-13_21h48.28.663,vts_reward_expectancy_bt,2022.2.4,Win32,60.73858115,Chrome,1920,1080,,,l,0.207,1,474,2,1,2,14,6,1,0,0,1,0,1,0,0,0,hexagon,triangle,,,,,,,,,,,,,,,,,,,,,,,,,,,,,,,,,,,,,,,,,,,,,,,,,,,,,,
293902,2022-11-13_21h48.28.663,vts_reward_expectancy_bt,2022.2.4,Win32,60.73858115,Chrome,1920,1080,,,l,1.0886,10,484,2,1,3,15,2,1,1,0,0,0,0,0,0,1,triangle,star,,,,,,,,,,,,,,,,,,,,,,,,,,,,,,,,,,,,,,,,,,,,,,,,,,,,,,
293902,2022-11-13_21h48.28.663,vts_reward_expectancy_bt,2022.2.4,Win32,60.73858115,Chrome,1920,1080,,,a,1.0298,10,494,2,1,4,16,10,1,0,0,0,1,0,1,0,0,star ,circle,,,,,,,,,,,,,,,,,,,,,,,,,,,,,,,,,,,,,,,,,,,,,,,,,,,,,,
293902,2022-11-13_21h48.28.663,vts_reward_expectancy_bt,2022.2.4,Win32,60.73858115,Chrome,1920,1080,,,a,1.3182,10,504,2,1,5,17,3,1,0,1,0,0,1,0,0,0,circle,triangle,,,,,,,,,,,,,,,,,,,,,,,,,,,,,,,,,,,,,,,,,,,,,,,,,,,,,,
293902,2022-11-13_21h48.28.663,vts_reward_expectancy_bt,2022.2.4,Win32,60.73858115,Chrome,1920,1080,,,a,0.6655,1,505,2,1,6,18,8,1,0,0,1,0,0,0,0,1,hexagon,star,,,,,,,,,,,,,,,,,,,,,,,,,,,,,,,,,,,,,,,,,,,,,,,,,,,,,,
293902,2022-11-13_21h48.28.663,vts_reward_expectancy_bt,2022.2.4,Win32,60.73858115,Chrome,1920,1080,,,l,0.7108,10,515,2,1,7,19,4,1,0,1,0,0,0,0,1,0,circle,hexagon,,,,,,,,,,,,,,,,,,,,,,,,,,,,,,,,,,,,,,,,,,,,,,,,,,,,,,
293902,2022-11-13_21h48.28.663,vts_reward_expectancy_bt,2022.2.4,Win32,60.73858115,Chrome,1920,1080,,,a,0.5826,1,516,2,1,8,20,0,1,1,0,0,0,0,1,0,0,triangle,circle,,,,,,,,,,,,,,,,,,,,,,,,,,,,,,,,,,,,,,,,,,,,,,,,,,,,,,
293902,2022-11-13_21h48.28.663,vts_reward_expectancy_bt,2022.2.4,Win32,60.73858115,Chrome,1920,1080,,,l,0.2047,10,526,2,1,9,21,1,1,1,0,0,0,0,0,1,0,triangle,hexagon,,,,,,,,,,,,,,,,,,,,,,,,,,,,,,,,,,,,,,,,,,,,,,,,,,,,,,
293902,2022-11-13_21h48.28.663,vts_reward_expectancy_bt,2022.2.4,Win32,60.73858115,Chrome,1920,1080,,,l,0.2061,1,527,2,1,10,22,7,1,0,0,1,0,0,1,0,0,hexagon,circle,,,,,,,,,,,,,,,,,,,,,,,,,,,,,,,,,,,,,,,,,,,,,,,,,,,,,,
293902,2022-11-13_21h48.28.663,vts_reward_expectancy_bt,2022.2.4,Win32,60.73858115,Chrome,1920,1080,,,a,0.1158,1,528,2,1,11,23,11,1,0,0,0,1,0,0,1,0,star,hexagon,,,,,,,,,,,,,,,,,,,,,,,,,,,,,,,,,,,,,,,,,,,,,,,,,,,,,,
293902,2022-11-13_21h48.28.663,vts_reward_expectancy_bt,2022.2.4,Win32,60.73858115,Chrome,1920,1080,,,a,0.1246,10,538,2,2,0,24,9,1,0,0,0,1,1,0,0,0,star,triangle,,,,,,,,,,,,,,,,,,,,,,,,,,,,,,,,,,,,,,,,,,,,,,,,,,,,,,
293902,2022-11-13_21h48.28.663,vts_reward_expectancy_bt,2022.2.4,Win32,60.73858115,Chrome,1920,1080,,,l,0.2912,1,539,2,2,1,25,8,1,0,0,1,0,0,0,0,1,hexagon,star,,,,,,,,,,,,,,,,,,,,,,,,,,,,,,,,,,,,,,,,,,,,,,,,,,,,,,
293902,2022-11-13_21h48.28.663,vts_reward_expectancy_bt,2022.2.4,Win32,60.73858115,Chrome,1920,1080,,,a,0.1279,1,540,2,2,2,26,4,1,0,1,0,0,0,0,1,0,circle,hexagon,,,,,,,,,,,,,,,,,,,,,,,,,,,,,,,,,,,,,,,,,,,,,,,,,,,,,,
293902,2022-11-13_21h48.28.663,vts_reward_expectancy_bt,2022.2.4,Win32,60.73858115,Chrome,1920,1080,,,a,0.5216,10,550,2,2,3,27,3,1,0,1,0,0,1,0,0,0,circle,triangle,,,,,,,,,,,,,,,,,,,,,,,,,,,,,,,,,,,,,,,,,,,,,,,,,,,,,,
293902,2022-11-13_21h48.28.663,vts_reward_expectancy_bt,2022.2.4,Win32,60.73858115,Chrome,1920,1080,,,a,0.2716,1,551,2,2,4,28,7,1,0,0,1,0,0,1,0,0,hexagon,circle,,,,,,,,,,,,,,,,,,,,,,,,,,,,,,,,,,,,,,,,,,,,,,,,,,,,,,
293902,2022-11-13_21h48.28.663,vts_reward_expectancy_bt,2022.2.4,Win32,60.73858115,Chrome,1920,1080,,,a,0.2567,1,552,2,2,5,29,10,1,0,0,0,1,0,1,0,0,star ,circle,,,,,,,,,,,,,,,,,,,,,,,,,,,,,,,,,,,,,,,,,,,,,,,,,,,,,,
293902,2022-11-13_21h48.28.663,vts_reward_expectancy_bt,2022.2.4,Win32,60.73858115,Chrome,1920,1080,,,a,0.222,1,553,2,2,6,30,2,1,1,0,0,0,0,0,0,1,triangle,star,,,,,,,,,,,,,,,,,,,,,,,,,,,,,,,,,,,,,,,,,,,,,,,,,,,,,,
293902,2022-11-13_21h48.28.663,vts_reward_expectancy_bt,2022.2.4,Win32,60.73858115,Chrome,1920,1080,,,a,0.1445,10,563,2,2,7,31,6,1,0,0,1,0,1,0,0,0,hexagon,triangle,,,,,,,,,,,,,,,,,,,,,,,,,,,,,,,,,,,,,,,,,,,,,,,,,,,,,,
293902,2022-11-13_21h48.28.663,vts_reward_expectancy_bt,2022.2.4,Win32,60.73858115,Chrome,1920,1080,,,a,0.1597,1,564,2,2,8,32,5,1,0,1,0,0,0,0,0,1,circle,star,,,,,,,,,,,,,,,,,,,,,,,,,,,,,,,,,,,,,,,,,,,,,,,,,,,,,,
293902,2022-11-13_21h48.28.663,vts_reward_expectancy_bt,2022.2.4,Win32,60.73858115,Chrome,1920,1080,,,a,0.3163,1,565,2,2,9,33,11,1,0,0,0,1,0,0,1,0,star,hexagon,,,,,,,,,,,,,,,,,,,,,,,,,,,,,,,,,,,,,,,,,,,,,,,,,,,,,,
293902,2022-11-13_21h48.28.663,vts_reward_expectancy_bt,2022.2.4,Win32,60.73858115,Chrome,1920,1080,,,a,1.0386,1,566,2,2,10,34,0,1,1,0,0,0,0,1,0,0,triangle,circle,,,,,,,,,,,,,,,,,,,,,,,,,,,,,,,,,,,,,,,,,,,,,,,,,,,,,,
293902,2022-11-13_21h48.28.663,vts_reward_expectancy_bt,2022.2.4,Win32,60.73858115,Chrome,1920,1080,,,a,0.1386,1,567,2,2,11,35,1,1,1,0,0,0,0,0,1,0,triangle,hexagon,,,,,,,,,,,,,,,,,,,,,,,,,,,,,,,,,,,,,,,,,,,,,,,,,,,,,,
293902,2022-11-13_21h48.28.663,vts_reward_expectancy_bt,2022.2.4,Win32,60.73858115,Chrome,1920,1080,,,,,,,,,,,,,,,,,,,,,,,125,B,triangle,0,0,,0,0,0,0,0,1,,,,,,,,,,,,,,,,,,,,,,,,,,,,,,,,,,,,,,,,,,
293902,2022-11-13_21h48.28.663,vts_reward_expectancy_bt,2022.2.4,Win32,60.73858115,Chrome,1920,1080,,,,,,,,,,,,,,,,,,,,,,,139,H,star,1,1,d,0,1,0,1,0,1,1.2576,,,,,,,,,,,,,,,,,,,,,,,,,,,,,,,,,,,,,,,,,
293902,2022-11-13_21h48.28.663,vts_reward_expectancy_bt,2022.2.4,Win32,60.73858115,Chrome,1920,1080,,,,,,,,,,,,,,,,,,,,,,,132,Y,circle,1,0,d,0,2,0,2,0,1,1.3075,,,,,,,,,,,,,,,,,,,,,,,,,,,,,,,,,,,,,,,,,
293902,2022-11-13_21h48.28.663,vts_reward_expectancy_bt,2022.2.4,Win32,60.73858115,Chrome,1920,1080,,,,,,,,,,,,,,,,,,,,,,,160,S,hexagon,1,0,f,0,3,0,3,0,1,0.6649,,,,,,,,,,,,,,,,,,,,,,,,,,,,,,,,,,,,,,,,,
293902,2022-11-13_21h48.28.663,vts_reward_expectancy_bt,2022.2.4,Win32,60.73858115,Chrome,1920,1080,,,,,,,,,,,,,,,,,,,,,,,167,U,triangle,1,0,f,0,4,0,4,0,1,0.7,,,,,,,,,,,,,,,,,,,,,,,,,,,,,,,,,,,,,,,,,
293902,2022-11-13_21h48.28.663,vts_reward_expectancy_bt,2022.2.4,Win32,60.73858115,Chrome,1920,1080,,,,,,,,,,,,,,,,,,,,,,,181,F,star,1,0,f,0,5,0,5,0,1,0.5516,,,,,,,,,,,,,,,,,,,,,,,,,,,,,,,,,,,,,,,,,
293902,2022-11-13_21h48.28.663,vts_reward_expectancy_bt,2022.2.4,Win32,60.73858115,Chrome,1920,1080,,,,,,,,,,,,,,,,,,,,,,,146,W,circle,1,0,d,0,6,0,6,0,1,1.3192,,,,,,,,,,,,,,,,,,,,,,,,,,,,,,,,,,,,,,,,,
293902,2022-11-13_21h48.28.663,vts_reward_expectancy_bt,2022.2.4,Win32,60.73858115,Chrome,1920,1080,,,,,,,,,,,,,,,,,,,,,,,174,D,hexagon,1,0,f,0,7,0,7,0,1,0.6821,,,,,,,,,,,,,,,,,,,,,,,,,,,,,,,,,,,,,,,,,
293902,2022-11-13_21h48.28.663,vts_reward_expectancy_bt,2022.2.4,Win32,60.73858115,Chrome,1920,1080,,,,,,,,,,,,,,,,,,,,,,,125,B,star,1,0,d,0,8,0,8,0,1,0.5546,,,,,,,,,,,,,,,,,,,,,,,,,,,,,,,,,,,,,,,,,
293902,2022-11-13_21h48.28.663,vts_reward_expectancy_bt,2022.2.4,Win32,60.73858115,Chrome,1920,1080,,,,,,,,,,,,,,,,,,,,,,,139,H,hexagon,1,0,d,0,9,0,9,0,1,0.5159,,,,,,,,,,,,,,,,,,,,,,,,,,,,,,,,,,,,,,,,,
293902,2022-11-13_21h48.28.663,vts_reward_expectancy_bt,2022.2.4,Win32,60.73858115,Chrome,1920,1080,,,,,,,,,,,,,,,,,,,,,,,146,D,triangle,1,0,,1,,,,,,,j,1.4092,0,0,0,0,1,,,,,,,,,,,,,,,,,,,,,,,,,,,,,,,,,,
293902,2022-11-13_21h48.28.663,vts_reward_expectancy_bt,2022.2.4,Win32,60.73858115,Chrome,1920,1080,,,,,,,,,,,,,,,,,,,,,,,139,B,circle,1,0,,1,,,,,,,j,0.6327,1,0,1,0,1,,,,,,,,,,,,,,,,,,,,,,,,,,,,,,,,,,
293902,2022-11-13_21h48.28.663,vts_reward_expectancy_bt,2022.2.4,Win32,60.73858115,Chrome,1920,1080,,,,,,,,,,,,,,,,,,,,,,,125,U,star,1,0,,1,,,,,,,k,0.7228,2,0,2,0,1,,,,,,,,,,,,,,,,,,,,,,,,,,,,,,,,,,
293902,2022-11-13_21h48.28.663,vts_reward_expectancy_bt,2022.2.4,Win32,60.73858115,Chrome,1920,1080,,,,,,,,,,,,,,,,,,,,,,,167,S,hexagon,1,0,,1,,,,,,,k,0.7149,3,0,3,0,1,,,,,,,,,,,,,,,,,,,,,,,,,,,,,,,,,,
293902,2022-11-13_21h48.28.663,vts_reward_expectancy_bt,2022.2.4,Win32,60.73858115,Chrome,1920,1080,,,,,,,,,,,,,,,,,,,,,,,174,H,triangle,1,0,,1,,,,,,,j,1.8223,4,0,4,0,1,,,,,,,,,,,,,,,,,,,,,,,,,,,,,,,,,,
293902,2022-11-13_21h48.28.663,vts_reward_expectancy_bt,2022.2.4,Win32,60.73858115,Chrome,1920,1080,,,,,,,,,,,,,,,,,,,,,,,160,Y,circle,1,0,,1,,,,,,,k,0.6651,5,0,5,0,1,,,,,,,,,,,,,,,,,,,,,,,,,,,,,,,,,,
293902,2022-11-13_21h48.28.663,vts_reward_expectancy_bt,2022.2.4,Win32,60.73858115,Chrome,1920,1080,,,,,,,,,,,,,,,,,,,,,,,132,F,star,1,0,,1,,,,,,,j,0.9081,6,0,6,0,1,,,,,,,,,,,,,,,,,,,,,,,,,,,,,,,,,,
293902,2022-11-13_21h48.28.663,vts_reward_expectancy_bt,2022.2.4,Win32,60.73858115,Chrome,1920,1080,,,,,,,,,,,,,,,,,,,,,,,181,W,hexagon,1,0,,1,,,,,,,k,0.6572,7,0,7,0,1,,,,,,,,,,,,,,,,,,,,,,,,,,,,,,,,,,
293902,2022-11-13_21h48.28.663,vts_reward_expectancy_bt,2022.2.4,Win32,60.73858115,Chrome,1920,1080,,,,,,,,,,,,,,,,,,,,,,,146,D,circle,1,0,,1,,,,,,,j,0.7182,8,0,8,0,1,,,,,,,,,,,,,,,,,,,,,,,,,,,,,,,,,,
293902,2022-11-13_21h48.28.663,vts_reward_expectancy_bt,2022.2.4,Win32,60.73858115,Chrome,1920,1080,,,,,,,,,,,,,,,,,,,,,,,139,B,triangle,1,0,,1,,,,,,,j,0.5787,9,0,9,0,1,,,,,,,,,,,,,,,,,,,,,,,,,,,,,,,,,,
293902,2022-11-13_21h48.28.663,vts_reward_expectancy_bt,2022.2.4,Win32,60.73858115,Chrome,1920,1080,,,,,0,567,,,,,,,,,,,,,,,,,167,S,triangle,0,0,,2,,,,,,,,,,,,,,-1,letter,NA,j,2.6273,vtsPrac,0,0,0,0,1,,,,,,,,,,,,,,,,,,,,,,,
293902,2022-11-13_21h48.28.663,vts_reward_expectancy_bt,2022.2.4,Win32,60.73858115,Chrome,1920,1080,,,,,0,567,,,,,,,,,,,,,,,,,160,B,star,0,1,,2,,,,,,,,,,,,,,repeat,letter,NA,k,2.5978,vtsPrac,1,0,1,0,1,,,,,,,,,,,,,,,,,,,,,,,
293902,2022-11-13_21h48.28.663,vts_reward_expectancy_bt,2022.2.4,Win32,60.73858115,Chrome,1920,1080,,,,,0,567,,,,,,,,,,,,,,,,,174,D,triangle,1,1,,2,,,,,,,,,,,,,,switch,number,numSwt,f,0.4983,vtsPrac,2,0,2,0,1,,,,,,,,,,,,,,,,,,,,,,,
293902,2022-11-13_21h48.28.663,vts_reward_expectancy_bt,2022.2.4,Win32,60.73858115,Chrome,1920,1080,,,,,0,567,,,,,,,,,,,,,,,,,132,U,star,1,0,,2,,,,,,,,,,,,,,repeat,number,numRpt,d,2.282,vtsPrac,3,0,3,0,1,,,,,,,,,,,,,,,,,,,,,,,
293902,2022-11-13_21h48.28.663,vts_reward_expectancy_bt,2022.2.4,Win32,60.73858115,Chrome,1920,1080,,,,,0,567,,,,,,,,,,,,,,,,,167,S,circle,1,0,,2,,,,,,,,,,,,,,switch,letter,lettSwt,k,1.4536,vtsPrac,4,0,4,0,1,,,,,,,,,,,,,,,,,,,,,,,
293902,2022-11-13_21h48.28.663,vts_reward_expectancy_bt,2022.2.4,Win32,60.73858115,Chrome,1920,1080,,,,,0,567,,,,,,,,,,,,,,,,,160,B,triangle,1,0,,2,,,,,,,,,,,,,,repeat,letter,lettRpt,j,1.632,vtsPrac,5,0,5,0,1,,,,,,,,,,,,,,,,,,,,,,,
293902,2022-11-13_21h48.28.663,vts_reward_expectancy_bt,2022.2.4,Win32,60.73858115,Chrome,1920,1080,,,,,0,567,,,,,,,,,,,,,,,,,174,D,star,1,0,,2,,,,,,,,,,,,,,switch,number,numSwt,f,0.6112,vtsPrac,6,0,6,0,1,,,,,,,,,,,,,,,,,,,,,,,
293902,2022-11-13_21h48.28.663,vts_reward_expectancy_bt,2022.2.4,Win32,60.73858115,Chrome,1920,1080,,,,,0,567,,,,,,,,,,,,,,,,,132,U,circle,1,0,,2,,,,,,,,,,,,,,repeat,number,numRpt,d,0.4921,vtsPrac,7,0,7,0,1,,,,,,,,,,,,,,,,,,,,,,,
293902,2022-11-13_21h48.28.663,vts_reward_expectancy_bt,2022.2.4,Win32,60.73858115,Chrome,1920,1080,,,,,0,567,,,,,,,,,,,,,,,,,167,S,star,1,0,,2,,,,,,,,,,,,,,repeat,number,numRpt,f,0.5516,vtsPrac,8,0,8,0,1,,,,,,,,,,,,,,,,,,,,,,,
293902,2022-11-13_21h48.28.663,vts_reward_expectancy_bt,2022.2.4,Win32,60.73858115,Chrome,1920,1080,,,,,0,567,,,,,,,,,,,,,,,,,132,D,triangle,1,0,,2,,,,,,,,,,,,,,repeat,number,numRpt,d,0.7165,vtsPrac,9,0,9,0,1,,,,,,,,,,,,,,,,,,,,,,,
293902,2022-11-13_21h48.28.663,vts_reward_expectancy_bt,2022.2.4,Win32,60.73858115,Chrome,1920,1080,,,,,0,567,,,,,,,,,,,,,,,,,160,B,triangle,1,0,,2,,,,,,,,,,,,,,switch,letter,lettSwt,j,1.0491,vtsPrac,10,0,10,0,1,,,,,,,,,,,,,,,,,,,,,,,
293902,2022-11-13_21h48.28.663,vts_reward_expectancy_bt,2022.2.4,Win32,60.73858115,Chrome,1920,1080,,,,,0,567,,,,,,,,,,,,,,,,,181,U,star,1,0,,2,,,,,,,,,,,,,,repeat,letter,lettRpt,k,0.6217,vtsPrac,11,0,11,0,1,,,,,,,,,,,,,,,,,,,,,,,
293902,2022-11-13_21h48.28.663,vts_reward_expectancy_bt,2022.2.4,Win32,60.73858115,Chrome,1920,1080,,,,,0,567,,,,,,,,,,,,,,,,,167,Y,circle,1,0,,2,,,,,,,,,,,,,,repeat,letter,lettRpt,k,0.7908,vtsPrac,12,0,12,0,1,,,,,,,,,,,,,,,,,,,,,,,
293902,2022-11-13_21h48.28.663,vts_reward_expectancy_bt,2022.2.4,Win32,60.73858115,Chrome,1920,1080,,,,,0,567,,,,,,,,,,,,,,,,,160,D,star,1,0,,2,,,,,,,,,,,,,,repeat,letter,lettRpt,j,1.0522,vtsPrac,13,0,13,0,1,,,,,,,,,,,,,,,,,,,,,,,
293902,2022-11-13_21h48.28.663,vts_reward_expectancy_bt,2022.2.4,Win32,60.73858115,Chrome,1920,1080,,,,,0,567,,,,,,,,,,,,,,,,,132,F,star,1,0,,2,,,,,,,,,,,,,,repeat,letter,lettRpt,j,0.7867,vtsPrac,14,0,14,0,1,,,,,,,,,,,,,,,,,,,,,,,
293902,2022-11-13_21h48.28.663,vts_reward_expectancy_bt,2022.2.4,Win32,60.73858115,Chrome,1920,1080,,,,,0,567,,,,,,,,,,,,,,,,,146,S,circle,0,0,,2,,,,,,,,,,,,,,switch,number,NA,f,0.7994,vtsPrac,15,0,15,0,1,,,,,,,,,,,,,,,,,,,,,,,
293902,2022-11-13_21h48.28.663,vts_reward_expectancy_bt,2022.2.4,Win32,60.73858115,Chrome,1920,1080,,,,,0,567,,,,,,,,,,,,,,,,,167,U,circle,1,1,,2,,,,,,,,,,,,,,repeat,number,numRpt,f,0.8044,vtsPrac,16,0,16,0,1,,,,,,,,,,,,,,,,,,,,,,,
293902,2022-11-13_21h48.28.663,vts_reward_expectancy_bt,2022.2.4,Win32,60.73858115,Chrome,1920,1080,,,,,0,567,,,,,,,,,,,,,,,,,125,S,star,1,0,,2,,,,,,,,,,,,,,repeat,number,numRpt,d,0.5729,vtsPrac,17,0,17,0,1,,,,,,,,,,,,,,,,,,,,,,,
293902,2022-11-13_21h48.28.663,vts_reward_expectancy_bt,2022.2.4,Win32,60.73858115,Chrome,1920,1080,,,,,0,567,,,,,,,,,,,,,,,,,132,F,hexagon,1,0,,2,,,,,,,,,,,,,,repeat,number,numRpt,d,0.6742,vtsPrac,18,0,18,0,1,,,,,,,,,,,,,,,,,,,,,,,
293902,2022-11-13_21h48.28.663,vts_reward_expectancy_bt,2022.2.4,Win32,60.73858115,Chrome,1920,1080,,,,,0,567,,,,,,,,,,,,,,,,,139,Y,circle,1,0,,2,,,,,,,,,,,,,,repeat,number,numRpt,d,0.8324,vtsPrac,19,0,19,0,1,,,,,,,,,,,,,,,,,,,,,,,
293902,2022-11-13_21h48.28.663,vts_reward_expectancy_bt,2022.2.4,Win32,60.73858115,Chrome,1920,1080,,,,,0,567,,,,,,,,,,,,,,,,,132,B,hexagon,1,0,,2,,,,,,,,,,,,,,repeat,number,numRpt,d,0.5831,vtsPrac,20,0,20,0,1,,,,,,,,,,,,,,,,,,,,,,,
293902,2022-11-13_21h48.28.663,vts_reward_expectancy_bt,2022.2.4,Win32,60.73858115,Chrome,1920,1080,,,,,0,567,,,,,,,,,,,,,,,,,181,W,star,1,0,,2,,,,,,,,,,,,,,repeat,number,numRpt,f,0.7361,vtsPrac,21,0,21,0,1,,,,,,,,,,,,,,,,,,,,,,,
293902,2022-11-13_21h48.28.663,vts_reward_expectancy_bt,2022.2.4,Win32,60.73858115,Chrome,1920,1080,,,,,0,567,,,,,,,,,,,,,,,,,174,S,triangle,1,0,,2,,,,,,,,,,,,,,repeat,number,numRpt,f,0.7257,vtsPrac,22,0,22,0,1,,,,,,,,,,,,,,,,,,,,,,,
293902,2022-11-13_21h48.28.663,vts_reward_expectancy_bt,2022.2.4,Win32,60.73858115,Chrome,1920,1080,,,,,0,567,,,,,,,,,,,,,,,,,167,U,hexagon,1,0,,2,,,,,,,,,,,,,,repeat,number,numRpt,f,1.9163,vtsPrac,23,0,23,0,1,,,,,,,,,,,,,,,,,,,,,,,
293902,2022-11-13_21h48.28.663,vts_reward_expectancy_bt,2022.2.4,Win32,60.73858115,Chrome,1920,1080,,,,,0,567,,,,,,,,,,,,,,,,,160,Y,circle,1,0,,2,,,,,,,,,,,,,,switch,letter,lettSwt,k,0.7938,vtsPrac,24,0,24,0,1,,,,,,,,,,,,,,,,,,,,,,,
293902,2022-11-13_21h48.28.663,vts_reward_expectancy_bt,2022.2.4,Win32,60.73858115,Chrome,1920,1080,,,,,0,567,,,,,,,,,,,,,,,,,139,F,hexagon,0,0,,2,,,,,,,,,,,,,,repeat,letter,NA,k,0.3259,vtsPrac,25,0,25,0,1,,,,,,,,,,,,,,,,,,,,,,,
293902,2022-11-13_21h48.28.663,vts_reward_expectancy_bt,2022.2.4,Win32,60.73858115,Chrome,1920,1080,,,,,0,567,,,,,,,,,,,,,,,,,125,H,star,1,1,,2,,,,,,,,,,,,,,repeat,letter,lettRpt,j,0.8166,vtsPrac,26,0,26,0,1,,,,,,,,,,,,,,,,,,,,,,,
293902,2022-11-13_21h48.28.663,vts_reward_expectancy_bt,2022.2.4,Win32,60.73858115,Chrome,1920,1080,,,,,0,567,,,,,,,,,,,,,,,,,174,D,triangle,1,0,,2,,,,,,,,,,,,,,repeat,letter,lettRpt,j,0.6387,vtsPrac,27,0,27,0,1,,,,,,,,,,,,,,,,,,,,,,,
293902,2022-11-13_21h48.28.663,vts_reward_expectancy_bt,2022.2.4,Win32,60.73858115,Chrome,1920,1080,,,,,0,567,,,,,,,,,,,,,,,,,160,W,hexagon,1,0,,2,,,,,,,,,,,,,,switch,number,numSwt,f,0.6323,vtsPrac,28,0,28,0,1,,,,,,,,,,,,,,,,,,,,,,,
293902,2022-11-13_21h48.28.663,vts_reward_expectancy_bt,2022.2.4,Win32,60.73858115,Chrome,1920,1080,,,,,0,567,,,,,,,,,,,,,,,,,125,S,star,1,0,,2,,,,,,,,,,,,,,switch,letter,lettSwt,k,0.8109,vtsPrac,29,0,29,0,1,,,,,,,,,,,,,,,,,,,,,,,
293902,2022-11-13_21h48.28.663,vts_reward_expectancy_bt,2022.2.4,Win32,60.73858115,Chrome,1920,1080,,,,,0,567,,,,,,,,,,,,,,,,,139,Y,circle,1,0,,2,,,,,,,,,,,,,,repeat,letter,lettRpt,k,1.235,vtsPrac,30,0,30,0,1,,,,,,,,,,,,,,,,,,,,,,,
293902,2022-11-13_21h48.28.663,vts_reward_expectancy_bt,2022.2.4,Win32,60.73858115,Chrome,1920,1080,,,,,0,567,,,,,,,,,,,,,,,,,132,H,triangle,1,0,,2,,,,,,,,,,,,,,repeat,letter,lettRpt,j,2.032,vtsPrac,31,0,31,0,1,,,,,,,,,,,,,,,,,,,,,,,
293902,2022-11-13_21h48.28.663,vts_reward_expectancy_bt,2022.2.4,Win32,60.73858115,Chrome,1920,1080,,,,,,,,,,,,,,,,,,,,,,,,,,,,,,,,,,,,,,,,,,,,,,,,,,,,,,,,,,,,,,,,,,,,,,,,,,,,
293902,2022-11-13_21h48.28.663,vts_reward_expectancy_bt,2022.2.4,Win32,60.73858115,Chrome,1920,1080,,,,,,,,,,,,,,,,,,,,,,,,,,,,,,,,,,,,,,,,,,,,,,,,,,,,,,,,,,,,,,,,,,,,,,,,,,,,
293902,2022-11-13_21h48.28.663,vts_reward_expectancy_bt,2022.2.4,Win32,60.73858115,Chrome,1920,1080,,,,,0,567,,,,,,,,,,,,,,,,,174,F,circle,1,0,,,,,,,,,,,,,,,,repeat,letter,lettRpt,j,1.3161,noRew,,,,,,0,0,0,0,0,1,,,,,,,,,,,,,,,,,
293902,2022-11-13_21h48.28.663,vts_reward_expectancy_bt,2022.2.4,Win32,60.73858115,Chrome,1920,1080,,,,,0,567,,,,,,,,,,,,,,,,,132,H,hexagon,1,0,,,,,,,,,,,,,,,,repeat,letter,lettRpt,j,0.7515,noRew,,,,,,0,1,0,1,0,1,,,,,,,,,,,,,,,,,
293902,2022-11-13_21h48.28.663,vts_reward_expectancy_bt,2022.2.4,Win32,60.73858115,Chrome,1920,1080,,,,,0,567,,,,,,,,,,,,,,,,,146,W,circle,1,0,,,,,,,,,,,,,,,,repeat,letter,lettRpt,k,0.9098,noRew,,,,,,0,2,0,2,0,1,,,,,,,,,,,,,,,,,
293902,2022-11-13_21h48.28.663,vts_reward_expectancy_bt,2022.2.4,Win32,60.73858115,Chrome,1920,1080,,,,,0,567,,,,,,,,,,,,,,,,,139,U,hexagon,1,0,,,,,,,,,,,,,,,,switch,number,numSwt,d,0.4989,noRew,,,,,,0,3,0,3,0,1,,,,,,,,,,,,,,,,,
293902,2022-11-13_21h48.28.663,vts_reward_expectancy_bt,2022.2.4,Win32,60.73858115,Chrome,1920,1080,,,,,0,567,,,,,,,,,,,,,,,,,174,F,circle,1,0,,,,,,,,,,,,,,,,repeat,number,numRpt,f,0.4824,noRew,,,,,,0,4,0,4,0,1,,,,,,,,,,,,,,,,,
293902,2022-11-13_21h48.28.663,vts_reward_expectancy_bt,2022.2.4,Win32,60.73858115,Chrome,1920,1080,,,,,0,567,,,,,,,,,,,,,,,,,132,H,triangle,1,0,,,,,,,,,,,,,,,,repeat,number,numRpt,d,0.5705,noRew,,,,,,0,5,0,5,0,1,,,,,,,,,,,,,,,,,
293902,2022-11-13_21h48.28.663,vts_reward_expectancy_bt,2022.2.4,Win32,60.73858115,Chrome,1920,1080,,,,,0,567,,,,,,,,,,,,,,,,,146,W,triangle,0,0,,,,,,,,,,,,,,,,repeat,number,NA,f,0.679,noRew,,,,,,0,6,0,6,0,1,,,,,,,,,,,,,,,,,
293902,2022-11-13_21h48.28.663,vts_reward_expectancy_bt,2022.2.4,Win32,60.73858115,Chrome,1920,1080,,,,,0,567,,,,,,,,,,,,,,,,,139,U,star,1,1,,,,,,,,,,,,,,,,repeat,number,numRpt,d,0.7742,noRew,,,,,,0,7,0,7,0,1,,,,,,,,,,,,,,,,,
293902,2022-11-13_21h48.28.663,vts_reward_expectancy_bt,2022.2.4,Win32,60.73858115,Chrome,1920,1080,,,,,0,567,,,,,,,,,,,,,,,,,125,B,triangle,1,0,,,,,,,,,,,,,,,,switch,letter,lettSwt,j,0.5937,noRew,,,,,,0,8,0,8,0,1,,,,,,,,,,,,,,,,,
293902,2022-11-13_21h48.28.663,vts_reward_expectancy_bt,2022.2.4,Win32,60.73858115,Chrome,1920,1080,,,,,0,567,,,,,,,,,,,,,,,,,174,F,star,1,0,,,,,,,,,,,,,,,,switch,number,numSwt,f,0.6321,noRew,,,,,,0,9,0,9,0,1,,,,,,,,,,,,,,,,,
293902,2022-11-13_21h48.28.663,vts_reward_expectancy_bt,2022.2.4,Win32,60.73858115,Chrome,1920,1080,,,,,0,567,,,,,,,,,,,,,,,,,132,S,circle,1,0,,,,,,,,,,,,,,,,repeat,number,numRpt,d,0.7556,noRew,,,,,,0,10,0,10,0,1,,,,,,,,,,,,,,,,,
293902,2022-11-13_21h48.28.663,vts_reward_expectancy_bt,2022.2.4,Win32,60.73858115,Chrome,1920,1080,,,,,0,567,,,,,,,,,,,,,,,,,160,W,hexagon,1,0,,,,,,,,,,,,,,,,switch,letter,lettSwt,k,1.2359,noRew,,,,,,0,11,0,11,0,1,,,,,,,,,,,,,,,,,
293902,2022-11-13_21h48.28.663,vts_reward_expectancy_bt,2022.2.4,Win32,60.73858115,Chrome,1920,1080,,,,,0,567,,,,,,,,,,,,,,,,,125,F,hexagon,1,0,,,,,,,,,,,,,,,,repeat,letter,lettRpt,j,1.1778,noRew,,,,,,0,12,0,12,0,1,,,,,,,,,,,,,,,,,
293902,2022-11-13_21h48.28.663,vts_reward_expectancy_bt,2022.2.4,Win32,60.73858115,Chrome,1920,1080,,,,,0,567,,,,,,,,,,,,,,,,,181,U,circle,1,0,,,,,,,,,,,,,,,,repeat,letter,lettRpt,k,0.6817,noRew,,,,,,0,13,0,13,0,1,,,,,,,,,,,,,,,,,
293902,2022-11-13_21h48.28.663,vts_reward_expectancy_bt,2022.2.4,Win32,60.73858115,Chrome,1920,1080,,,,,0,567,,,,,,,,,,,,,,,,,160,B,circle,1,0,,,,,,,,,,,,,,,,switch,number,numSwt,f,0.6512,noRew,,,,,,0,14,0,14,0,1,,,,,,,,,,,,,,,,,
293902,2022-11-13_21h48.28.663,vts_reward_expectancy_bt,2022.2.4,Win32,60.73858115,Chrome,1920,1080,,,,,0,567,,,,,,,,,,,,,,,,,146,Y,star,1,0,,,,,,,,,,,,,,,,repeat,number,numRpt,d,0.5725,noRew,,,,,,0,15,0,15,0,1,,,,,,,,,,,,,,,,,
293902,2022-11-13_21h48.28.663,vts_reward_expectancy_bt,2022.2.4,Win32,60.73858115,Chrome,1920,1080,,,,,0,567,,,,,,,,,,,,,,,,,146,F,hexagon,1,0,,,,,,,,,,,,,,,,switch,letter,lettSwt,j,0.8433,noRew,,,,,,0,16,0,16,0,1,,,,,,,,,,,,,,,,,
293902,2022-11-13_21h48.28.663,vts_reward_expectancy_bt,2022.2.4,Win32,60.73858115,Chrome,1920,1080,,,,,0,567,,,,,,,,,,,,,,,,,181,B,circle,1,0,,,,,,,,,,,,,,,,repeat,letter,lettRpt,j,0.6917,noRew,,,,,,0,17,0,17,0,1,,,,,,,,,,,,,,,,,
293902,2022-11-13_21h48.28.663,vts_reward_expectancy_bt,2022.2.4,Win32,60.73858115,Chrome,1920,1080,,,,,0,567,,,,,,,,,,,,,,,,,139,W,circle,1,0,,,,,,,,,,,,,,,,switch,number,numSwt,d,0.7427,noRew,,,,,,0,18,0,18,0,1,,,,,,,,,,,,,,,,,
293902,2022-11-13_21h48.28.663,vts_reward_expectancy_bt,2022.2.4,Win32,60.73858115,Chrome,1920,1080,,,,,0,567,,,,,,,,,,,,,,,,,132,Y,hexagon,1,0,,,,,,,,,,,,,,,,repeat,number,numRpt,d,0.7049,noRew,,,,,,0,19,0,19,0,1,,,,,,,,,,,,,,,,,
293902,2022-11-13_21h48.28.663,vts_reward_expectancy_bt,2022.2.4,Win32,60.73858115,Chrome,1920,1080,,,,,0,567,,,,,,,,,,,,,,,,,181,U,star,1,0,,,,,,,,,,,,,,,,repeat,number,numRpt,f,2.1922,noRew,,,,,,0,20,0,20,0,1,,,,,,,,,,,,,,,,,
293902,2022-11-13_21h48.28.663,vts_reward_expectancy_bt,2022.2.4,Win32,60.73858115,Chrome,1920,1080,,,,,0,567,,,,,,,,,,,,,,,,,174,D,hexagon,-1,0,,,,,,,,,,,,,,,,switch,no_choice,NA,,,noRew,,,,,,0,21,0,21,0,1,,,,,,,,,,,,,,,,,
293902,2022-11-13_21h48.28.663,vts_reward_expectancy_bt,2022.2.4,Win32,60.73858115,Chrome,1920,1080,,,,,0,567,,,,,,,,,,,,,,,,,167,Y,star,1,0,,,,,,,,,,,,,,,,switch,number,numSwt,f,0.9423,noRew,,,,,,0,22,0,22,0,1,,,,,,,,,,,,,,,,,
293902,2022-11-13_21h48.28.663,vts_reward_expectancy_bt,2022.2.4,Win32,60.73858115,Chrome,1920,1080,,,,,0,567,,,,,,,,,,,,,,,,,139,F,circle,1,0,,,,,,,,,,,,,,,,repeat,number,numRpt,d,0.5721,noRew,,,,,,0,23,0,23,0,1,,,,,,,,,,,,,,,,,
293902,2022-11-13_21h48.28.663,vts_reward_expectancy_bt,2022.2.4,Win32,60.73858115,Chrome,1920,1080,,,,,0,567,,,,,,,,,,,,,,,,,132,Y,star,1,0,,,,,,,,,,,,,,,,repeat,number,numRpt,d,0.9035,noRew,,,,,,0,24,0,24,0,1,,,,,,,,,,,,,,,,,
293902,2022-11-13_21h48.28.663,vts_reward_expectancy_bt,2022.2.4,Win32,60.73858115,Chrome,1920,1080,,,,,0,567,,,,,,,,,,,,,,,,,181,H,circle,1,0,,,,,,,,,,,,,,,,switch,letter,lettSwt,j,1.4603,noRew,,,,,,0,25,0,25,0,1,,,,,,,,,,,,,,,,,
293902,2022-11-13_21h48.28.663,vts_reward_expectancy_bt,2022.2.4,Win32,60.73858115,Chrome,1920,1080,,,,,0,567,,,,,,,,,,,,,,,,,146,U,hexagon,1,0,,,,,,,,,,,,,,,,repeat,letter,lettRpt,k,1.5049,noRew,,,,,,0,26,0,26,0,1,,,,,,,,,,,,,,,,,
293902,2022-11-13_21h48.28.663,vts_reward_expectancy_bt,2022.2.4,Win32,60.73858115,Chrome,1920,1080,,,,,0,567,,,,,,,,,,,,,,,,,174,F,triangle,1,0,,,,,,,,,,,,,,,,repeat,letter,lettRpt,j,1.0958,noRew,,,,,,0,27,0,27,0,1,,,,,,,,,,,,,,,,,
293902,2022-11-13_21h48.28.663,vts_reward_expectancy_bt,2022.2.4,Win32,60.73858115,Chrome,1920,1080,,,,,0,567,,,,,,,,,,,,,,,,,125,U,hexagon,1,0,,,,,,,,,,,,,,,,repeat,letter,lettRpt,k,0.992,noRew,,,,,,0,28,0,28,0,1,,,,,,,,,,,,,,,,,
293902,2022-11-13_21h48.28.663,vts_reward_expectancy_bt,2022.2.4,Win32,60.73858115,Chrome,1920,1080,,,,,0,567,,,,,,,,,,,,,,,,,139,F,star,1,0,,,,,,,,,,,,,,,,repeat,letter,lettRpt,j,0.9255,noRew,,,,,,0,29,0,29,0,1,,,,,,,,,,,,,,,,,
293902,2022-11-13_21h48.28.663,vts_reward_expectancy_bt,2022.2.4,Win32,60.73858115,Chrome,1920,1080,,,,,0,567,,,,,,,,,,,,,,,,,174,W,triangle,1,0,,,,,,,,,,,,,,,,repeat,letter,lettRpt,k,0.8249,noRew,,,,,,0,30,0,30,0,1,,,,,,,,,,,,,,,,,
293902,2022-11-13_21h48.28.663,vts_reward_expectancy_bt,2022.2.4,Win32,60.73858115,Chrome,1920,1080,,,,,0,567,,,,,,,,,,,,,,,,,160,H,star,1,0,,,,,,,,,,,,,,,,repeat,letter,lettRpt,j,0.8657,noRew,,,,,,0,31,0,31,0,1,,,,,,,,,,,,,,,,,
293902,2022-11-13_21h48.28.663,vts_reward_expectancy_bt,2022.2.4,Win32,60.73858115,Chrome,1920,1080,,,,,0,567,,,,,,,,,,,,,,,,,146,H,circle,1,0,,,,,,,,,,,,,,,,switch,number,numSwt,d,1.538,noRew,,,,,,0,32,0,32,0,1,,,,,,,,,,,,,,,,,
293902,2022-11-13_21h48.28.663,vts_reward_expectancy_bt,2022.2.4,Win32,60.73858115,Chrome,1920,1080,,,,,0,567,,,,,,,,,,,,,,,,,132,F,hexagon,1,0,,,,,,,,,,,,,,,,repeat,number,numRpt,d,0.5836,noRew,,,,,,0,33,0,33,0,1,,,,,,,,,,,,,,,,,
293902,2022-11-13_21h48.28.663,vts_reward_expectancy_bt,2022.2.4,Win32,60.73858115,Chrome,1920,1080,,,,,0,567,,,,,,,,,,,,,,,,,125,D,star,1,0,,,,,,,,,,,,,,,,repeat,number,numRpt,d,0.9826,noRew,,,,,,0,34,0,34,0,1,,,,,,,,,,,,,,,,,
293902,2022-11-13_21h48.28.663,vts_reward_expectancy_bt,2022.2.4,Win32,60.73858115,Chrome,1920,1080,,,,,0,567,,,,,,,,,,,,,,,,,181,Y,triangle,1,0,,,,,,,,,,,,,,,,repeat,number,numRpt,f,0.7833,noRew,,,,,,0,35,0,35,0,1,,,,,,,,,,,,,,,,,
293902,2022-11-13_21h48.28.663,vts_reward_expectancy_bt,2022.2.4,Win32,60.73858115,Chrome,1920,1080,,,,,0,567,,,,,,,,,,,,,,,,,132,H,circle,1,0,,,,,,,,,,,,,,,,repeat,number,numRpt,d,1.0329,noRew,,,,,,0,36,0,36,0,1,,,,,,,,,,,,,,,,,
293902,2022-11-13_21h48.28.663,vts_reward_expectancy_bt,2022.2.4,Win32,60.73858115,Chrome,1920,1080,,,,,0,567,,,,,,,,,,,,,,,,,174,Y,triangle,1,0,,,,,,,,,,,,,,,,repeat,number,numRpt,f,1.1729,noRew,,,,,,0,37,0,37,0,1,,,,,,,,,,,,,,,,,
293902,2022-11-13_21h48.28.663,vts_reward_expectancy_bt,2022.2.4,Win32,60.73858115,Chrome,1920,1080,,,,,0,567,,,,,,,,,,,,,,,,,160,D,circle,1,0,,,,,,,,,,,,,,,,repeat,number,numRpt,f,0.5551,noRew,,,,,,0,38,0,38,0,1,,,,,,,,,,,,,,,,,
293902,2022-11-13_21h48.28.663,vts_reward_expectancy_bt,2022.2.4,Win32,60.73858115,Chrome,1920,1080,,,,,0,567,,,,,,,,,,,,,,,,,146,U,star,1,0,,,,,,,,,,,,,,,,repeat,number,numRpt,d,1.127,noRew,,,,,,0,39,0,39,0,1,,,,,,,,,,,,,,,,,
293902,2022-11-13_21h48.28.663,vts_reward_expectancy_bt,2022.2.4,Win32,60.73858115,Chrome,1920,1080,,,,,0,567,,,,,,,,,,,,,,,,,132,B,hexagon,1,0,,,,,,,,,,,,,,,,repeat,number,numRpt,d,0.6172,noRew,,,,,,0,40,0,40,0,1,,,,,,,,,,,,,,,,,
293902,2022-11-13_21h48.28.663,vts_reward_expectancy_bt,2022.2.4,Win32,60.73858115,Chrome,1920,1080,,,,,0,567,,,,,,,,,,,,,,,,,146,U,circle,1,0,,,,,,,,,,,,,,,,repeat,number,numRpt,d,0.9176,noRew,,,,,,0,41,0,41,0,1,,,,,,,,,,,,,,,,,
293902,2022-11-13_21h48.28.663,vts_reward_expectancy_bt,2022.2.4,Win32,60.73858115,Chrome,1920,1080,,,,,0,567,,,,,,,,,,,,,,,,,139,Y,circle,1,0,,,,,,,,,,,,,,,,switch,letter,lettSwt,k,0.6487,noRew,,,,,,0,42,0,42,0,1,,,,,,,,,,,,,,,,,
293902,2022-11-13_21h48.28.663,vts_reward_expectancy_bt,2022.2.4,Win32,60.73858115,Chrome,1920,1080,,,,,0,567,,,,,,,,,,,,,,,,,125,S,hexagon,1,0,,,,,,,,,,,,,,,,repeat,letter,lettRpt,k,0.6376,noRew,,,,,,0,43,0,43,0,1,,,,,,,,,,,,,,,,,
293902,2022-11-13_21h48.28.663,vts_reward_expectancy_bt,2022.2.4,Win32,60.73858115,Chrome,1920,1080,,,,,0,567,,,,,,,,,,,,,,,,,174,D,circle,1,0,,,,,,,,,,,,,,,,repeat,letter,lettRpt,j,0.6324,noRew,,,,,,0,44,0,44,0,1,,,,,,,,,,,,,,,,,
293902,2022-11-13_21h48.28.663,vts_reward_expectancy_bt,2022.2.4,Win32,60.73858115,Chrome,1920,1080,,,,,0,567,,,,,,,,,,,,,,,,,125,S,hexagon,1,0,,,,,,,,,,,,,,,,switch,number,numSwt,d,0.6317,noRew,,,,,,0,45,0,45,0,1,,,,,,,,,,,,,,,,,
293902,2022-11-13_21h48.28.663,vts_reward_expectancy_bt,2022.2.4,Win32,60.73858115,Chrome,1920,1080,,,,,0,567,,,,,,,,,,,,,,,,,132,B,hexagon,1,0,,,,,,,,,,,,,,,,repeat,number,numRpt,d,0.5056,noRew,,,,,,0,46,0,46,0,1,,,,,,,,,,,,,,,,,
293902,2022-11-13_21h48.28.663,vts_reward_expectancy_bt,2022.2.4,Win32,60.73858115,Chrome,1920,1080,,,,,0,567,,,,,,,,,,,,,,,,,146,W,star,1,0,,,,,,,,,,,,,,,,repeat,number,numRpt,d,1.0412,noRew,,,,,,0,47,0,47,0,1,,,,,,,,,,,,,,,,,
293902,2022-11-13_21h48.28.663,vts_reward_expectancy_bt,2022.2.4,Win32,60.73858115,Chrome,1920,1080,,,,,0,567,,,,,,,,,,,,,,,,,174,F,star,1,0,,,,,,,,,,,,,,,,repeat,number,numRpt,f,0.906,noRew,,,,,,0,48,0,48,0,1,,,,,,,,,,,,,,,,,
293902,2022-11-13_21h48.28.663,vts_reward_expectancy_bt,2022.2.4,Win32,60.73858115,Chrome,1920,1080,,,,,0,567,,,,,,,,,,,,,,,,,139,D,circle,1,0,,,,,,,,,,,,,,,,repeat,number,numRpt,d,0.6676,noRew,,,,,,0,49,0,49,0,1,,,,,,,,,,,,,,,,,
293902,2022-11-13_21h48.28.663,vts_reward_expectancy_bt,2022.2.4,Win32,60.73858115,Chrome,1920,1080,,,,,0,567,,,,,,,,,,,,,,,,,146,B,hexagon,1,0,,,,,,,,,,,,,,,,repeat,number,numRpt,d,0.7384,noRew,,,,,,0,50,0,50,0,1,,,,,,,,,,,,,,,,,
293902,2022-11-13_21h48.28.663,vts_reward_expectancy_bt,2022.2.4,Win32,60.73858115,Chrome,1920,1080,,,,,0,567,,,,,,,,,,,,,,,,,125,Y,triangle,1,0,,,,,,,,,,,,,,,,repeat,number,numRpt,d,0.6001,noRew,,,,,,0,51,0,51,0,1,,,,,,,,,,,,,,,,,
293902,2022-11-13_21h48.28.663,vts_reward_expectancy_bt,2022.2.4,Win32,60.73858115,Chrome,1920,1080,,,,,0,567,,,,,,,,,,,,,,,,,160,F,circle,0,0,,,,,,,,,,,,,,,,switch,letter,NA,k,0.8665,noRew,,,,,,0,52,0,52,0,1,,,,,,,,,,,,,,,,,
293902,2022-11-13_21h48.28.663,vts_reward_expectancy_bt,2022.2.4,Win32,60.73858115,Chrome,1920,1080,,,,,0,567,,,,,,,,,,,,,,,,,146,Y,hexagon,1,1,,,,,,,,,,,,,,,,repeat,letter,lettRpt,k,0.6908,noRew,,,,,,0,53,0,53,0,1,,,,,,,,,,,,,,,,,
293902,2022-11-13_21h48.28.663,vts_reward_expectancy_bt,2022.2.4,Win32,60.73858115,Chrome,1920,1080,,,,,0,567,,,,,,,,,,,,,,,,,181,H,hexagon,1,0,,,,,,,,,,,,,,,,repeat,letter,lettRpt,j,1.1563,noRew,,,,,,0,54,0,54,0,1,,,,,,,,,,,,,,,,,
293902,2022-11-13_21h48.28.663,vts_reward_expectancy_bt,2022.2.4,Win32,60.73858115,Chrome,1920,1080,,,,,0,567,,,,,,,,,,,,,,,,,139,S,triangle,1,0,,,,,,,,,,,,,,,,repeat,letter,lettRpt,k,1.3251,noRew,,,,,,0,55,0,55,0,1,,,,,,,,,,,,,,,,,
293902,2022-11-13_21h48.28.663,vts_reward_expectancy_bt,2022.2.4,Win32,60.73858115,Chrome,1920,1080,,,,,0,567,,,,,,,,,,,,,,,,,167,W,circle,1,0,,,,,,,,,,,,,,,,repeat,letter,lettRpt,k,0.7278,noRew,,,,,,0,56,0,56,0,1,,,,,,,,,,,,,,,,,
293902,2022-11-13_21h48.28.663,vts_reward_expectancy_bt,2022.2.4,Win32,60.73858115,Chrome,1920,1080,,,,,0,567,,,,,,,,,,,,,,,,,146,B,star,1,0,,,,,,,,,,,,,,,,repeat,letter,lettRpt,j,0.6569,noRew,,,,,,0,57,0,57,0,1,,,,,,,,,,,,,,,,,
293902,2022-11-13_21h48.28.663,vts_reward_expectancy_bt,2022.2.4,Win32,60.73858115,Chrome,1920,1080,,,,,0,567,,,,,,,,,,,,,,,,,125,H,star,1,0,,,,,,,,,,,,,,,,repeat,letter,lettRpt,j,0.8873,noRew,,,,,,0,58,0,58,0,1,,,,,,,,,,,,,,,,,
293902,2022-11-13_21h48.28.663,vts_reward_expectancy_bt,2022.2.4,Win32,60.73858115,Chrome,1920,1080,,,,,0,567,,,,,,,,,,,,,,,,,181,F,triangle,1,0,,,,,,,,,,,,,,,,repeat,letter,lettRpt,j,0.7181,noRew,,,,,,0,59,0,59,0,1,,,,,,,,,,,,,,,,,
293902,2022-11-13_21h48.28.663,vts_reward_expectancy_bt,2022.2.4,Win32,60.73858115,Chrome,1920,1080,,,,,0,567,,,,,,,,,,,,,,,,,146,F,circle,1,0,,,,,,,,,,,,,,,,repeat,letter,lettRpt,j,0.8001,noRew,,,,,,0,60,0,60,0,1,,,,,,,,,,,,,,,,,
293902,2022-11-13_21h48.28.663,vts_reward_expectancy_bt,2022.2.4,Win32,60.73858115,Chrome,1920,1080,,,,,0,567,,,,,,,,,,,,,,,,,174,B,star,0,0,,,,,,,,,,,,,,,,switch,number,NA,d,0.5779,noRew,,,,,,0,61,0,61,0,1,,,,,,,,,,,,,,,,,
293902,2022-11-13_21h48.28.663,vts_reward_expectancy_bt,2022.2.4,Win32,60.73858115,Chrome,1920,1080,,,,,0,567,,,,,,,,,,,,,,,,,167,Y,hexagon,1,1,,,,,,,,,,,,,,,,repeat,number,numRpt,f,2.05,noRew,,,,,,0,62,0,62,0,1,,,,,,,,,,,,,,,,,
293902,2022-11-13_21h48.28.663,vts_reward_expectancy_bt,2022.2.4,Win32,60.73858115,Chrome,1920,1080,,,,,0,567,,,,,,,,,,,,,,,,,125,S,star,1,0,,,,,,,,,,,,,,,,repeat,number,numRpt,d,1.4495,noRew,,,,,,0,63,0,63,0,1,,,,,,,,,,,,,,,,,
293902,2022-11-13_21h48.28.663,vts_reward_expectancy_bt,2022.2.4,Win32,60.73858115,Chrome,1920,1080,,,,,,,,,,,,,,,,,,,,,,,,,,,,,,,,,,,,,,,,,,,,,,,,,,,,,,,,,,,,,,,,,,,,,,,,,,,,
293902,2022-11-13_21h48.28.663,vts_reward_expectancy_bt,2022.2.4,Win32,60.73858115,Chrome,1920,1080,,,,,10,577,,,,,,,,,,,,,,,,,181,B,hexagon,1,0,,,,,,,,,,,,,,,,switch,letter,lettSwt,j,0.6985,Hi,,,,,,0,,,,,,space,8.3984,low,0,0,0,0,1,,,,,,,,,
293902,2022-11-13_21h48.28.663,vts_reward_expectancy_bt,2022.2.4,Win32,60.73858115,Chrome,1920,1080,,,,,1,578,,,,,,,,,,,,,,,,,146,Y,triangle,1,0,,,,,,,,,,,,,,,,repeat,letter,lettRpt,k,0.4826,Lo,,,,,,0,,,,,,,,low,1,0,1,0,1,,,,,,,,,
293902,2022-11-13_21h48.28.663,vts_reward_expectancy_bt,2022.2.4,Win32,60.73858115,Chrome,1920,1080,,,,,1,579,,,,,,,,,,,,,,,,,132,U,star,1,0,,,,,,,,,,,,,,,,repeat,letter,lettRpt,k,0.8178,Lo,,,,,,0,,,,,,,,low,2,0,2,0,1,,,,,,,,,
293902,2022-11-13_21h48.28.663,vts_reward_expectancy_bt,2022.2.4,Win32,60.73858115,Chrome,1920,1080,,,,,1,580,,,,,,,,,,,,,,,,,125,H,circle,1,0,,,,,,,,,,,,,,,,repeat,letter,lettRpt,j,0.6033,Hi,,,,,,0,,,,,,,,low,3,0,3,0,1,,,,,,,,,
293902,2022-11-13_21h48.28.663,vts_reward_expectancy_bt,2022.2.4,Win32,60.73858115,Chrome,1920,1080,,,,,10,590,,,,,,,,,,,,,,,,,174,S,hexagon,1,0,,,,,,,,,,,,,,,,switch,number,numSwt,f,0.4666,Hi,,,,,,0,,,,,,,,low,4,0,4,0,1,,,,,,,,,
293902,2022-11-13_21h48.28.663,vts_reward_expectancy_bt,2022.2.4,Win32,60.73858115,Chrome,1920,1080,,,,,10,600,,,,,,,,,,,,,,,,,139,W,triangle,1,0,,,,,,,,,,,,,,,,repeat,number,numRpt,d,0.4715,Lo,,,,,,0,,,,,,,,low,5,0,5,0,1,,,,,,,,,
293902,2022-11-13_21h48.28.663,vts_reward_expectancy_bt,2022.2.4,Win32,60.73858115,Chrome,1920,1080,,,,,10,610,,,,,,,,,,,,,,,,,160,D,star,1,0,,,,,,,,,,,,,,,,repeat,number,numRpt,f,0.7314,Lo,,,,,,0,,,,,,,,low,6,0,6,0,1,,,,,,,,,
293902,2022-11-13_21h48.28.663,vts_reward_expectancy_bt,2022.2.4,Win32,60.73858115,Chrome,1920,1080,,,,,0,610,,,,,,,,,,,,,,,,,167,F,circle,1,0,,,,,,,,,,,,,,,,switch,letter,lettSwt,j,0.8566,Hi,,,,,,0,,,,,,,,low,7,0,7,0,1,,,,,,,,,
293902,2022-11-13_21h48.28.663,vts_reward_expectancy_bt,2022.2.4,Win32,60.73858115,Chrome,1920,1080,,,,,0,610,,,,,,,,,,,,,,,,,181,B,hexagon,1,0,,,,,,,,,,,,,,,,switch,number,numSwt,f,0.6503,Hi,,,,,,0,,,,,,,,low,8,0,8,0,1,,,,,,,,,
293902,2022-11-13_21h48.28.663,vts_reward_expectancy_bt,2022.2.4,Win32,60.73858115,Chrome,1920,1080,,,,,1,611,,,,,,,,,,,,,,,,,146,Y,star,1,0,,,,,,,,,,,,,,,,switch,letter,lettSwt,k,0.4721,Lo,,,,,,0,,,,,,,,low,9,0,9,0,1,,,,,,,,,
293902,2022-11-13_21h48.28.663,vts_reward_expectancy_bt,2022.2.4,Win32,60.73858115,Chrome,1920,1080,,,,,1,612,,,,,,,,,,,,,,,,,132,U,triangle,1,0,,,,,,,,,,,,,,,,repeat,letter,lettRpt,k,0.5336,Lo,,,,,,0,,,,,,,,low,10,0,10,0,1,,,,,,,,,
293902,2022-11-13_21h48.28.663,vts_reward_expectancy_bt,2022.2.4,Win32,60.73858115,Chrome,1920,1080,,,,,10,622,,,,,,,,,,,,,,,,,125,H,circle,1,0,,,,,,,,,,,,,,,,switch,number,numSwt,d,0.4353,Hi,,,,,,0,,,,,,,,low,11,0,11,0,1,,,,,,,,,
293902,2022-11-13_21h48.28.663,vts_reward_expectancy_bt,2022.2.4,Win32,60.73858115,Chrome,1920,1080,,,,,10,632,,,,,,,,,,,,,,,,,174,S,circle,1,0,,,,,,,,,,,,,,,,repeat,number,numRpt,f,0.4318,Hi,,,,,,0,,,,,,,,low,12,0,12,0,1,,,,,,,,,
293902,2022-11-13_21h48.28.663,vts_reward_expectancy_bt,2022.2.4,Win32,60.73858115,Chrome,1920,1080,,,,,1,633,,,,,,,,,,,,,,,,,139,W,hexagon,1,0,,,,,,,,,,,,,,,,repeat,number,numRpt,d,0.3749,Hi,,,,,,0,,,,,,,,low,13,0,13,0,1,,,,,,,,,
293902,2022-11-13_21h48.28.663,vts_reward_expectancy_bt,2022.2.4,Win32,60.73858115,Chrome,1920,1080,,,,,1,634,,,,,,,,,,,,,,,,,160,D,star,1,0,,,,,,,,,,,,,,,,repeat,number,numRpt,f,0.5164,Lo,,,,,,0,,,,,,,,low,14,0,14,0,1,,,,,,,,,
293902,2022-11-13_21h48.28.663,vts_reward_expectancy_bt,2022.2.4,Win32,60.73858115,Chrome,1920,1080,,,,,1,635,,,,,,,,,,,,,,,,,167,F,triangle,1,0,,,,,,,,,,,,,,,,switch,letter,lettSwt,j,0.5062,Lo,,,,,,0,,,,,,,,low,15,0,15,0,1,,,,,,,,,
293902,2022-11-13_21h48.28.663,vts_reward_expectancy_bt,2022.2.4,Win32,60.73858115,Chrome,1920,1080,,,,,10,645,,,,,,,,,,,,,,,,,167,U,circle,1,0,,,,,,,,,,,,,,,,switch,number,numSwt,f,0.5787,Hi,,,,,,0,,,,,,,,low,16,0,16,0,1,,,,,,,,,
293902,2022-11-13_21h48.28.663,vts_reward_expectancy_bt,2022.2.4,Win32,60.73858115,Chrome,1920,1080,,,,,10,655,,,,,,,,,,,,,,,,,174,S,triangle,1,0,,,,,,,,,,,,,,,,repeat,number,numRpt,f,0.4867,Lo,,,,,,0,,,,,,,,low,17,0,17,0,1,,,,,,,,,
293902,2022-11-13_21h48.28.663,vts_reward_expectancy_bt,2022.2.4,Win32,60.73858115,Chrome,1920,1080,,,,,1,656,,,,,,,,,,,,,,,,,125,B,star,1,0,,,,,,,,,,,,,,,,repeat,number,numRpt,d,0.5426,Lo,,,,,,0,,,,,,,,low,18,0,18,0,1,,,,,,,,,
293902,2022-11-13_21h48.28.663,vts_reward_expectancy_bt,2022.2.4,Win32,60.73858115,Chrome,1920,1080,,,,,10,666,,,,,,,,,,,,,,,,,160,H,hexagon,1,0,,,,,,,,,,,,,,,,switch,letter,lettSwt,j,0.6077,Hi,,,,,,0,,,,,,,,low,19,0,19,0,1,,,,,,,,,
293902,2022-11-13_21h48.28.663,vts_reward_expectancy_bt,2022.2.4,Win32,60.73858115,Chrome,1920,1080,,,,,10,676,,,,,,,,,,,,,,,,,139,F,circle,1,0,,,,,,,,,,,,,,,,switch,number,numSwt,d,0.4747,Hi,,,,,,0,,,,,,,,low,20,0,20,0,1,,,,,,,,,
293902,2022-11-13_21h48.28.663,vts_reward_expectancy_bt,2022.2.4,Win32,60.73858115,Chrome,1920,1080,,,,,0,676,,,,,,,,,,,,,,,,,146,D,hexagon,1,0,,,,,,,,,,,,,,,,switch,letter,lettSwt,j,1.543,Hi,,,,,,0,,,,,,,,low,21,0,21,0,1,,,,,,,,,
293902,2022-11-13_21h48.28.663,vts_reward_expectancy_bt,2022.2.4,Win32,60.73858115,Chrome,1920,1080,,,,,10,686,,,,,,,,,,,,,,,,,181,W,star,1,0,,,,,,,,,,,,,,,,switch,number,numSwt,f,0.7326,Lo,,,,,,0,,,,,,,,low,22,0,22,0,1,,,,,,,,,
293902,2022-11-13_21h48.28.663,vts_reward_expectancy_bt,2022.2.4,Win32,60.73858115,Chrome,1920,1080,,,,,10,696,,,,,,,,,,,,,,,,,132,Y,triangle,1,0,,,,,,,,,,,,,,,,switch,letter,lettSwt,k,0.5589,Lo,,,,,,0,,,,,,,,low,23,0,23,0,1,,,,,,,,,
293902,2022-11-13_21h48.28.663,vts_reward_expectancy_bt,2022.2.4,Win32,60.73858115,Chrome,1920,1080,,,,,10,706,,,,,,,,,,,,,,,,,160,U,circle,1,0,,,,,,,,,,,,,,,,switch,number,numSwt,f,0.5276,Hi,,,,,,0,,,,,,,,low,24,0,24,0,1,,,,,,,,,
293902,2022-11-13_21h48.28.663,vts_reward_expectancy_bt,2022.2.4,Win32,60.73858115,Chrome,1920,1080,,,,,10,716,,,,,,,,,,,,,,,,,125,F,triangle,1,0,,,,,,,,,,,,,,,,switch,letter,lettSwt,j,0.6482,Lo,,,,,,0,,,,,,,,low,25,0,25,0,1,,,,,,,,,
293902,2022-11-13_21h48.28.663,vts_reward_expectancy_bt,2022.2.4,Win32,60.73858115,Chrome,1920,1080,,,,,1,717,,,,,,,,,,,,,,,,,181,S,star,1,0,,,,,,,,,,,,,,,,switch,number,numSwt,f,0.51,Lo,,,,,,0,,,,,,,,low,26,0,26,0,1,,,,,,,,,
293902,2022-11-13_21h48.28.663,vts_reward_expectancy_bt,2022.2.4,Win32,60.73858115,Chrome,1920,1080,,,,,1,718,,,,,,,,,,,,,,,,,174,B,hexagon,1,0,,,,,,,,,,,,,,,,repeat,number,numRpt,f,0.4453,Hi,,,,,,0,,,,,,,,low,27,0,27,0,1,,,,,,,,,
293902,2022-11-13_21h48.28.663,vts_reward_expectancy_bt,2022.2.4,Win32,60.73858115,Chrome,1920,1080,,,,,1,719,,,,,,,,,,,,,,,,,167,Y,star,1,0,,,,,,,,,,,,,,,,switch,letter,lettSwt,k,0.632,Lo,,,,,,0,,,,,,,,low,28,0,28,0,1,,,,,,,,,
293902,2022-11-13_21h48.28.663,vts_reward_expectancy_bt,2022.2.4,Win32,60.73858115,Chrome,1920,1080,,,,,0,719,,,,,,,,,,,,,,,,,139,H,hexagon,1,0,,,,,,,,,,,,,,,,repeat,letter,lettRpt,j,0.7425,Hi,,,,,,0,,,,,,,,low,29,0,29,0,1,,,,,,,,,
293902,2022-11-13_21h48.28.663,vts_reward_expectancy_bt,2022.2.4,Win32,60.73858115,Chrome,1920,1080,,,,,1,720,,,,,,,,,,,,,,,,,132,W,circle,1,0,,,,,,,,,,,,,,,,switch,number,numSwt,d,0.5762,Hi,,,,,,0,,,,,,,,low,30,0,30,0,1,,,,,,,,,
293902,2022-11-13_21h48.28.663,vts_reward_expectancy_bt,2022.2.4,Win32,60.73858115,Chrome,1920,1080,,,,,10,730,,,,,,,,,,,,,,,,,146,D,triangle,1,0,,,,,,,,,,,,,,,,repeat,number,numRpt,d,0.5536,Lo,,,,,,0,,,,,,,,low,31,0,31,0,1,,,,,,,,,
293902,2022-11-13_21h48.28.663,vts_reward_expectancy_bt,2022.2.4,Win32,60.73858115,Chrome,1920,1080,,,,,0,730,,,,,,,,,,,,,,,,,139,B,circle,1,0,,,,,,,,,,,,,,,,repeat,number,numRpt,d,1.1784,Hi,,,,,,1,,,,,,space,2.7749,low,0,0,0,0,1,,,,,,,,,
293902,2022-11-13_21h48.28.663,vts_reward_expectancy_bt,2022.2.4,Win32,60.73858115,Chrome,1920,1080,,,,,0,730,,,,,,,,,,,,,,,,,125,H,hexagon,0,0,,,,,,,,,,,,,,,,repeat,number,NA,f,0.8198,Hi,,,,,,1,,,,,,,,low,1,0,1,0,1,,,,,,,,,
293902,2022-11-13_21h48.28.663,vts_reward_expectancy_bt,2022.2.4,Win32,60.73858115,Chrome,1920,1080,,,,,0,730,,,,,,,,,,,,,,,,,160,U,triangle,0,1,,,,,,,,,,,,,,,,switch,letter,NA,j,0.6563,Hi,,,,,,1,,,,,,,,low,2,0,2,0,1,,,,,,,,,
293902,2022-11-13_21h48.28.663,vts_reward_expectancy_bt,2022.2.4,Win32,60.73858115,Chrome,1920,1080,,,,,1,731,,,,,,,,,,,,,,,,,174,Y,star,1,1,,,,,,,,,,,,,,,,switch,number,numSwt,f,1.489,Lo,,,,,,1,,,,,,,,low,3,0,3,0,1,,,,,,,,,
293902,2022-11-13_21h48.28.663,vts_reward_expectancy_bt,2022.2.4,Win32,60.73858115,Chrome,1920,1080,,,,,0,731,,,,,,,,,,,,,,,,,132,S,circle,1,0,,,,,,,,,,,,,,,,repeat,number,numRpt,d,0.5192,Hi,,,,,,1,,,,,,,,low,4,0,4,0,1,,,,,,,,,
293902,2022-11-13_21h48.28.663,vts_reward_expectancy_bt,2022.2.4,Win32,60.73858115,Chrome,1920,1080,,,,,0,731,,,,,,,,,,,,,,,,,167,W,hexagon,1,0,,,,,,,,,,,,,,,,repeat,number,numRpt,f,0.5006,Hi,,,,,,1,,,,,,,,low,5,0,5,0,1,,,,,,,,,
293902,2022-11-13_21h48.28.663,vts_reward_expectancy_bt,2022.2.4,Win32,60.73858115,Chrome,1920,1080,,,,,1,732,,,,,,,,,,,,,,,,,181,D,triangle,1,0,,,,,,,,,,,,,,,,repeat,number,numRpt,f,0.502,Lo,,,,,,1,,,,,,,,low,6,0,6,0,1,,,,,,,,,
293902,2022-11-13_21h48.28.663,vts_reward_expectancy_bt,2022.2.4,Win32,60.73858115,Chrome,1920,1080,,,,,0,732,,,,,,,,,,,,,,,,,146,F,star,0,0,,,,,,,,,,,,,,,,repeat,number,NA,f,0.5018,Lo,,,,,,1,,,,,,,,low,7,0,7,0,1,,,,,,,,,
293902,2022-11-13_21h48.28.663,vts_reward_expectancy_bt,2022.2.4,Win32,60.73858115,Chrome,1920,1080,,,,,10,742,,,,,,,,,,,,,,,,,139,B,star,1,1,,,,,,,,,,,,,,,,repeat,number,numRpt,d,0.5329,Lo,,,,,,1,,,,,,,,low,8,0,8,0,1,,,,,,,,,
293902,2022-11-13_21h48.28.663,vts_reward_expectancy_bt,2022.2.4,Win32,60.73858115,Chrome,1920,1080,,,,,10,752,,,,,,,,,,,,,,,,,125,H,triangle,1,0,,,,,,,,,,,,,,,,repeat,number,numRpt,d,0.5654,Lo,,,,,,1,,,,,,,,low,9,0,9,0,1,,,,,,,,,
293902,2022-11-13_21h48.28.663,vts_reward_expectancy_bt,2022.2.4,Win32,60.73858115,Chrome,1920,1080,,,,,0,752,,,,,,,,,,,,,,,,,160,U,hexagon,1,0,,,,,,,,,,,,,,,,repeat,number,numRpt,f,0.6498,Hi,,,,,,1,,,,,,,,low,10,0,10,0,1,,,,,,,,,
293902,2022-11-13_21h48.28.663,vts_reward_expectancy_bt,2022.2.4,Win32,60.73858115,Chrome,1920,1080,,,,,0,752,,,,,,,,,,,,,,,,,174,Y,circle,1,0,,,,,,,,,,,,,,,,repeat,number,numRpt,f,0.5006,Hi,,,,,,1,,,,,,,,low,11,0,11,0,1,,,,,,,,,
293902,2022-11-13_21h48.28.663,vts_reward_expectancy_bt,2022.2.4,Win32,60.73858115,Chrome,1920,1080,,,,,10,762,,,,,,,,,,,,,,,,,132,S,star,1,0,,,,,,,,,,,,,,,,repeat,number,numRpt,d,0.7488,Lo,,,,,,1,,,,,,,,low,12,0,12,0,1,,,,,,,,,
293902,2022-11-13_21h48.28.663,vts_reward_expectancy_bt,2022.2.4,Win32,60.73858115,Chrome,1920,1080,,,,,1,763,,,,,,,,,,,,,,,,,167,W,triangle,1,0,,,,,,,,,,,,,,,,switch,letter,lettSwt,k,0.5167,Lo,,,,,,1,,,,,,,,low,13,0,13,0,1,,,,,,,,,
293902,2022-11-13_21h48.28.663,vts_reward_expectancy_bt,2022.2.4,Win32,60.73858115,Chrome,1920,1080,,,,,0,763,,,,,,,,,,,,,,,,,181,D,circle,0,0,,,,,,,,,,,,,,,,repeat,letter,NA,k,0.7234,Lo,,,,,,1,,,,,,,,low,14,0,14,0,1,,,,,,,,,
293902,2022-11-13_21h48.28.663,vts_reward_expectancy_bt,2022.2.4,Win32,60.73858115,Chrome,1920,1080,,,,,10,773,,,,,,,,,,,,,,,,,146,F,hexagon,1,1,,,,,,,,,,,,,,,,repeat,letter,lettRpt,j,0.5495,Hi,,,,,,1,,,,,,,,low,15,0,15,0,1,,,,,,,,,
293902,2022-11-13_21h48.28.663,vts_reward_expectancy_bt,2022.2.4,Win32,60.73858115,Chrome,1920,1080,,,,,1,774,,,,,,,,,,,,,,,,,132,F,star,1,0,,,,,,,,,,,,,,,,switch,number,numSwt,d,0.6018,Lo,,,,,,1,,,,,,,,low,16,0,16,0,1,,,,,,,,,
293902,2022-11-13_21h48.28.663,vts_reward_expectancy_bt,2022.2.4,Win32,60.73858115,Chrome,1920,1080,,,,,0,774,,,,,,,,,,,,,,,,,160,S,hexagon,1,0,,,,,,,,,,,,,,,,switch,letter,lettSwt,k,0.7049,Hi,,,,,,1,,,,,,,,low,17,0,17,0,1,,,,,,,,,
293902,2022-11-13_21h48.28.663,vts_reward_expectancy_bt,2022.2.4,Win32,60.73858115,Chrome,1920,1080,,,,,0,774,,,,,,,,,,,,,,,,,139,D,circle,1,0,,,,,,,,,,,,,,,,repeat,letter,lettRpt,j,0.635,Hi,,,,,,1,,,,,,,,low,18,0,18,0,1,,,,,,,,,
293902,2022-11-13_21h48.28.663,vts_reward_expectancy_bt,2022.2.4,Win32,60.73858115,Chrome,1920,1080,,,,,1,775,,,,,,,,,,,,,,,,,146,H,triangle,1,0,,,,,,,,,,,,,,,,repeat,letter,lettRpt,j,0.8869,Lo,,,,,,1,,,,,,,,low,19,0,19,0,1,,,,,,,,,
293902,2022-11-13_21h48.28.663,vts_reward_expectancy_bt,2022.2.4,Win32,60.73858115,Chrome,1920,1080,,,,,0,775,,,,,,,,,,,,,,,,,167,U,circle,1,0,,,,,,,,,,,,,,,,repeat,letter,lettRpt,k,0.7833,Hi,,,,,,1,,,,,,,,low,20,0,20,0,1,,,,,,,,,
293902,2022-11-13_21h48.28.663,vts_reward_expectancy_bt,2022.2.4,Win32,60.73858115,Chrome,1920,1080,,,,,10,785,,,,,,,,,,,,,,,,,181,W,triangle,1,0,,,,,,,,,,,,,,,,repeat,letter,lettRpt,k,0.5952,Lo,,,,,,1,,,,,,,,low,21,0,21,0,1,,,,,,,,,
293902,2022-11-13_21h48.28.663,vts_reward_expectancy_bt,2022.2.4,Win32,60.73858115,Chrome,1920,1080,,,,,0,785,,,,,,,,,,,,,,,,,125,B,hexagon,1,0,,,,,,,,,,,,,,,,repeat,letter,lettRpt,j,1.0153,Hi,,,,,,1,,,,,,,,low,22,0,22,0,1,,,,,,,,,
293902,2022-11-13_21h48.28.663,vts_reward_expectancy_bt,2022.2.4,Win32,60.73858115,Chrome,1920,1080,,,,,10,795,,,,,,,,,,,,,,,,,174,Y,star,1,0,,,,,,,,,,,,,,,,switch,number,numSwt,f,0.8199,Lo,,,,,,1,,,,,,,,low,23,0,23,0,1,,,,,,,,,
293902,2022-11-13_21h48.28.663,vts_reward_expectancy_bt,2022.2.4,Win32,60.73858115,Chrome,1920,1080,,,,,10,805,,,,,,,,,,,,,,,,,139,W,triangle,1,0,,,,,,,,,,,,,,,,switch,letter,lettSwt,k,0.4658,Lo,,,,,,1,,,,,,,,low,24,0,24,0,1,,,,,,,,,
293902,2022-11-13_21h48.28.663,vts_reward_expectancy_bt,2022.2.4,Win32,60.73858115,Chrome,1920,1080,,,,,0,805,,,,,,,,,,,,,,,,,146,F,hexagon,0,0,,,,,,,,,,,,,,,,switch,number,NA,f,0.4921,Lo,,,,,,1,,,,,,,,low,25,0,25,0,1,,,,,,,,,
293902,2022-11-13_21h48.28.663,vts_reward_expectancy_bt,2022.2.4,Win32,60.73858115,Chrome,1920,1080,,,,,0,805,,,,,,,,,,,,,,,,,125,S,circle,1,1,,,,,,,,,,,,,,,,switch,letter,lettSwt,k,0.9153,Hi,,,,,,1,,,,,,,,low,26,0,26,0,1,,,,,,,,,
293902,2022-11-13_21h48.28.663,vts_reward_expectancy_bt,2022.2.4,Win32,60.73858115,Chrome,1920,1080,,,,,10,815,,,,,,,,,,,,,,,,,167,H,star,1,0,,,,,,,,,,,,,,,,repeat,letter,lettRpt,j,0.6488,Lo,,,,,,1,,,,,,,,low,27,0,27,0,1,,,,,,,,,
293902,2022-11-13_21h48.28.663,vts_reward_expectancy_bt,2022.2.4,Win32,60.73858115,Chrome,1920,1080,,,,,1,816,,,,,,,,,,,,,,,,,160,Y,hexagon,1,0,,,,,,,,,,,,,,,,repeat,letter,lettRpt,k,0.5497,Hi,,,,,,1,,,,,,,,low,28,0,28,0,1,,,,,,,,,
293902,2022-11-13_21h48.28.663,vts_reward_expectancy_bt,2022.2.4,Win32,60.73858115,Chrome,1920,1080,,,,,1,817,,,,,,,,,,,,,,,,,181,B,star,1,0,,,,,,,,,,,,,,,,repeat,letter,lettRpt,j,0.5367,Lo,,,,,,1,,,,,,,,low,29,0,29,0,1,,,,,,,,,
293902,2022-11-13_21h48.28.663,vts_reward_expectancy_bt,2022.2.4,Win32,60.73858115,Chrome,1920,1080,,,,,1,818,,,,,,,,,,,,,,,,,132,U,triangle,1,0,,,,,,,,,,,,,,,,switch,number,numSwt,d,0.5222,Lo,,,,,,1,,,,,,,,low,30,0,30,0,1,,,,,,,,,
293902,2022-11-13_21h48.28.663,vts_reward_expectancy_bt,2022.2.4,Win32,60.73858115,Chrome,1920,1080,,,,,10,828,,,,,,,,,,,,,,,,,174,D,circle,1,0,,,,,,,,,,,,,,,,repeat,number,numRpt,f,0.4384,Hi,,,,,,1,,,,,,,,low,31,0,31,0,1,,,,,,,,,
293902,2022-11-13_21h48.28.663,vts_reward_expectancy_bt,2022.2.4,Win32,60.73858115,Chrome,1920,1080,,,,,0,828,,,,,,,,,,,,,,,,,160,H,circle,1,0,,,,,,,,,,,,,,,,repeat,number,numRpt,f,0.7593,Hi,,,,,,2,,,,,,space,1.7498,low,0,0,0,0,1,,,,,,,,,
293902,2022-11-13_21h48.28.663,vts_reward_expectancy_bt,2022.2.4,Win32,60.73858115,Chrome,1920,1080,,,,,1,829,,,,,,,,,,,,,,,,,167,U,star,1,0,,,,,,,,,,,,,,,,repeat,number,numRpt,f,0.6158,Lo,,,,,,2,,,,,,,,low,1,0,1,0,1,,,,,,,,,
293902,2022-11-13_21h48.28.663,vts_reward_expectancy_bt,2022.2.4,Win32,60.73858115,Chrome,1920,1080,,,,,10,839,,,,,,,,,,,,,,,,,146,F,triangle,1,0,,,,,,,,,,,,,,,,repeat,number,numRpt,d,0.5786,Lo,,,,,,2,,,,,,,,low,2,0,2,0,1,,,,,,,,,
293902,2022-11-13_21h48.28.663,vts_reward_expectancy_bt,2022.2.4,Win32,60.73858115,Chrome,1920,1080,,,,,0,839,,,,,,,,,,,,,,,,,125,W,hexagon,1,0,,,,,,,,,,,,,,,,repeat,number,numRpt,d,0.5498,Hi,,,,,,2,,,,,,,,low,3,0,3,0,1,,,,,,,,,
293902,2022-11-13_21h48.28.663,vts_reward_expectancy_bt,2022.2.4,Win32,60.73858115,Chrome,1920,1080,,,,,0,839,,,,,,,,,,,,,,,,,139,Y,circle,1,0,,,,,,,,,,,,,,,,repeat,number,numRpt,d,0.5549,Hi,,,,,,2,,,,,,,,low,4,0,4,0,1,,,,,,,,,
293902,2022-11-13_21h48.28.663,vts_reward_expectancy_bt,2022.2.4,Win32,60.73858115,Chrome,1920,1080,,,,,10,849,,,,,,,,,,,,,,,,,174,B,star,1,0,,,,,,,,,,,,,,,,repeat,number,numRpt,f,0.6255,Lo,,,,,,2,,,,,,,,low,5,0,5,0,1,,,,,,,,,
293902,2022-11-13_21h48.28.663,vts_reward_expectancy_bt,2022.2.4,Win32,60.73858115,Chrome,1920,1080,,,,,1,850,,,,,,,,,,,,,,,,,181,D,triangle,1,0,,,,,,,,,,,,,,,,repeat,number,numRpt,f,0.5058,Lo,,,,,,2,,,,,,,,low,6,0,6,0,1,,,,,,,,,
293902,2022-11-13_21h48.28.663,vts_reward_expectancy_bt,2022.2.4,Win32,60.73858115,Chrome,1920,1080,,,,,1,851,,,,,,,,,,,,,,,,,132,S,hexagon,1,0,,,,,,,,,,,,,,,,repeat,number,numRpt,d,0.4728,Hi,,,,,,2,,,,,,,,low,7,0,7,0,1,,,,,,,,,
293902,2022-11-13_21h48.28.663,vts_reward_expectancy_bt,2022.2.4,Win32,60.73858115,Chrome,1920,1080,,,,,1,852,,,,,,,,,,,,,,,,,160,H,star,1,0,,,,,,,,,,,,,,,,repeat,number,numRpt,f,0.5002,Lo,,,,,,2,,,,,,,,low,8,0,8,0,1,,,,,,,,,
293902,2022-11-13_21h48.28.663,vts_reward_expectancy_bt,2022.2.4,Win32,60.73858115,Chrome,1920,1080,,,,,0,852,,,,,,,,,,,,,,,,,167,U,circle,1,0,,,,,,,,,,,,,,,,repeat,number,numRpt,f,0.5098,Hi,,,,,,2,,,,,,,,low,9,0,9,0,1,,,,,,,,,
293902,2022-11-13_21h48.28.663,vts_reward_expectancy_bt,2022.2.4,Win32,60.73858115,Chrome,1920,1080,,,,,10,862,,,,,,,,,,,,,,,,,146,F,hexagon,1,0,,,,,,,,,,,,,,,,repeat,number,numRpt,d,0.4758,Hi,,,,,,2,,,,,,,,low,10,0,10,0,1,,,,,,,,,
293902,2022-11-13_21h48.28.663,vts_reward_expectancy_bt,2022.2.4,Win32,60.73858115,Chrome,1920,1080,,,,,10,872,,,,,,,,,,,,,,,,,125,W,triangle,1,0,,,,,,,,,,,,,,,,switch,letter,lettSwt,k,0.5919,Lo,,,,,,2,,,,,,,,low,11,0,11,0,1,,,,,,,,,
293902,2022-11-13_21h48.28.663,vts_reward_expectancy_bt,2022.2.4,Win32,60.73858115,Chrome,1920,1080,,,,,1,873,,,,,,,,,,,,,,,,,139,Y,triangle,1,0,,,,,,,,,,,,,,,,repeat,letter,lettRpt,k,0.7351,Lo,,,,,,2,,,,,,,,low,12,0,12,0,1,,,,,,,,,
293902,2022-11-13_21h48.28.663,vts_reward_expectancy_bt,2022.2.4,Win32,60.73858115,Chrome,1920,1080,,,,,0,873,,,,,,,,,,,,,,,,,174,B,hexagon,1,0,,,,,,,,,,,,,,,,repeat,letter,lettRpt,j,0.5909,Hi,,,,,,2,,,,,,,,low,13,0,13,0,1,,,,,,,,,
293902,2022-11-13_21h48.28.663,vts_reward_expectancy_bt,2022.2.4,Win32,60.73858115,Chrome,1920,1080,,,,,0,873,,,,,,,,,,,,,,,,,181,D,circle,1,0,,,,,,,,,,,,,,,,repeat,letter,lettRpt,j,0.6836,Hi,,,,,,2,,,,,,,,low,14,0,14,0,1,,,,,,,,,
293902,2022-11-13_21h48.28.663,vts_reward_expectancy_bt,2022.2.4,Win32,60.73858115,Chrome,1920,1080,,,,,1,874,,,,,,,,,,,,,,,,,132,S,star,1,0,,,,,,,,,,,,,,,,repeat,letter,lettRpt,k,0.6295,Lo,,,,,,2,,,,,,,,low,15,0,15,0,1,,,,,,,,,
293902,2022-11-13_21h48.28.663,vts_reward_expectancy_bt,2022.2.4,Win32,60.73858115,Chrome,1920,1080,,,,,0,874,,,,,,,,,,,,,,,,,125,W,circle,1,0,,,,,,,,,,,,,,,,repeat,letter,lettRpt,k,0.6152,Hi,,,,,,2,,,,,,,,low,16,0,16,0,1,,,,,,,,,
293902,2022-11-13_21h48.28.663,vts_reward_expectancy_bt,2022.2.4,Win32,60.73858115,Chrome,1920,1080,,,,,1,875,,,,,,,,,,,,,,,,,146,B,triangle,1,0,,,,,,,,,,,,,,,,repeat,letter,lettRpt,j,0.5622,Lo,,,,,,2,,,,,,,,low,17,0,17,0,1,,,,,,,,,
293902,2022-11-13_21h48.28.663,vts_reward_expectancy_bt,2022.2.4,Win32,60.73858115,Chrome,1920,1080,,,,,1,876,,,,,,,,,,,,,,,,,160,Y,star,1,0,,,,,,,,,,,,,,,,repeat,letter,lettRpt,k,0.5571,Lo,,,,,,2,,,,,,,,low,18,0,18,0,1,,,,,,,,,
293902,2022-11-13_21h48.28.663,vts_reward_expectancy_bt,2022.2.4,Win32,60.73858115,Chrome,1920,1080,,,,,0,876,,,,,,,,,,,,,,,,,132,H,hexagon,0,0,,,,,,,,,,,,,,,,repeat,letter,NA,k,0.5008,Lo,,,,,,2,,,,,,,,low,19,0,19,0,1,,,,,,,,,
293902,2022-11-13_21h48.28.663,vts_reward_expectancy_bt,2022.2.4,Win32,60.73858115,Chrome,1920,1080,,,,,10,886,,,,,,,,,,,,,,,,,174,S,circle,1,1,,,,,,,,,,,,,,,,repeat,letter,lettRpt,k,0.5489,Hi,,,,,,2,,,,,,,,low,20,0,20,0,1,,,,,,,,,
293902,2022-11-13_21h48.28.663,vts_reward_expectancy_bt,2022.2.4,Win32,60.73858115,Chrome,1920,1080,,,,,0,886,,,,,,,,,,,,,,,,,167,U,hexagon,1,0,,,,,,,,,,,,,,,,repeat,letter,lettRpt,k,0.6653,Hi,,,,,,2,,,,,,,,low,21,0,21,0,1,,,,,,,,,
293902,2022-11-13_21h48.28.663,vts_reward_expectancy_bt,2022.2.4,Win32,60.73858115,Chrome,1920,1080,,,,,10,896,,,,,,,,,,,,,,,,,181,D,triangle,1,0,,,,,,,,,,,,,,,,repeat,letter,lettRpt,j,0.5121,Lo,,,,,,2,,,,,,,,low,22,0,22,0,1,,,,,,,,,
293902,2022-11-13_21h48.28.663,vts_reward_expectancy_bt,2022.2.4,Win32,60.73858115,Chrome,1920,1080,,,,,1,897,,,,,,,,,,,,,,,,,139,F,star,1,0,,,,,,,,,,,,,,,,repeat,letter,lettRpt,j,0.683,Lo,,,,,,2,,,,,,,,low,23,0,23,0,1,,,,,,,,,
293902,2022-11-13_21h48.28.663,vts_reward_expectancy_bt,2022.2.4,Win32,60.73858115,Chrome,1920,1080,,,,,1,898,,,,,,,,,,,,,,,,,181,H,triangle,1,0,,,,,,,,,,,,,,,,repeat,letter,lettRpt,j,0.8354,Lo,,,,,,2,,,,,,,,low,24,0,24,0,1,,,,,,,,,
293902,2022-11-13_21h48.28.663,vts_reward_expectancy_bt,2022.2.4,Win32,60.73858115,Chrome,1920,1080,,,,,1,899,,,,,,,,,,,,,,,,,167,U,circle,1,0,,,,,,,,,,,,,,,,switch,number,numSwt,f,0.5008,Hi,,,,,,2,,,,,,,,low,25,0,25,0,1,,,,,,,,,
293902,2022-11-13_21h48.28.663,vts_reward_expectancy_bt,2022.2.4,Win32,60.73858115,Chrome,1920,1080,,,,,1,900,,,,,,,,,,,,,,,,,146,F,star,1,0,,,,,,,,,,,,,,,,repeat,number,numRpt,d,0.5261,Lo,,,,,,2,,,,,,,,low,26,0,26,0,1,,,,,,,,,
293902,2022-11-13_21h48.28.663,vts_reward_expectancy_bt,2022.2.4,Win32,60.73858115,Chrome,1920,1080,,,,,0,900,,,,,,,,,,,,,,,,,132,Y,hexagon,1,0,,,,,,,,,,,,,,,,repeat,number,numRpt,d,0.5053,Hi,,,,,,2,,,,,,,,low,27,0,27,0,1,,,,,,,,,
293902,2022-11-13_21h48.28.663,vts_reward_expectancy_bt,2022.2.4,Win32,60.73858115,Chrome,1920,1080,,,,,0,900,,,,,,,,,,,,,,,,,174,D,triangle,0,0,,,,,,,,,,,,,,,,repeat,number,NA,d,0.8172,Hi,,,,,,2,,,,,,,,low,28,0,28,0,1,,,,,,,,,
293902,2022-11-13_21h48.28.663,vts_reward_expectancy_bt,2022.2.4,Win32,60.73858115,Chrome,1920,1080,,,,,1,901,,,,,,,,,,,,,,,,,160,S,star,1,1,,,,,,,,,,,,,,,,repeat,number,numRpt,f,0.7434,Lo,,,,,,2,,,,,,,,low,29,0,29,0,1,,,,,,,,,
293902,2022-11-13_21h48.28.663,vts_reward_expectancy_bt,2022.2.4,Win32,60.73858115,Chrome,1920,1080,,,,,10,911,,,,,,,,,,,,,,,,,139,W,circle,1,0,,,,,,,,,,,,,,,,repeat,number,numRpt,d,0.4739,Hi,,,,,,2,,,,,,,,low,30,0,30,0,1,,,,,,,,,
293902,2022-11-13_21h48.28.663,vts_reward_expectancy_bt,2022.2.4,Win32,60.73858115,Chrome,1920,1080,,,,,10,921,,,,,,,,,,,,,,,,,125,B,hexagon,1,0,,,,,,,,,,,,,,,,repeat,number,numRpt,d,0.4887,Hi,,,,,,2,,,,,,,,low,31,0,31,0,1,,,,,,,,,
293902,2022-11-13_21h48.28.663,vts_reward_expectancy_bt,2022.2.4,Win32,60.73858115,Chrome,1920,1080,,,,,1,922,,,,,,,,,,,,,,,,,132,B,triangle,1,0,,,,,,,,,,,,,,,,repeat,number,numRpt,d,0.1655,Lo,,,,,,3,,,,,,space,1.3891,low,0,0,0,0,1,,,,,,,,,
293902,2022-11-13_21h48.28.663,vts_reward_expectancy_bt,2022.2.4,Win32,60.73858115,Chrome,1920,1080,,,,,0,922,,,,,,,,,,,,,,,,,167,U,star,0,0,,,,,,,,,,,,,,,,repeat,number,NA,d,0.0321,Lo,,,,,,3,,,,,,,,low,1,0,1,0,1,,,,,,,,,
293902,2022-11-13_21h48.28.663,vts_reward_expectancy_bt,2022.2.4,Win32,60.73858115,Chrome,1920,1080,,,,,10,932,,,,,,,,,,,,,,,,,125,S,hexagon,1,1,,,,,,,,,,,,,,,,repeat,number,numRpt,d,0.0838,Hi,,,,,,3,,,,,,,,low,2,0,2,0,1,,,,,,,,,
293902,2022-11-13_21h48.28.663,vts_reward_expectancy_bt,2022.2.4,Win32,60.73858115,Chrome,1920,1080,,,,,0,932,,,,,,,,,,,,,,,,,174,W,circle,0,0,,,,,,,,,,,,,,,,repeat,number,NA,d,0.1214,Hi,,,,,,3,,,,,,,,low,3,0,3,0,1,,,,,,,,,
293902,2022-11-13_21h48.28.663,vts_reward_expectancy_bt,2022.2.4,Win32,60.73858115,Chrome,1920,1080,,,,,1,933,,,,,,,,,,,,,,,,,139,F,triangle,1,1,,,,,,,,,,,,,,,,repeat,number,numRpt,d,0.4454,Lo,,,,,,3,,,,,,,,low,4,0,4,0,1,,,,,,,,,
293902,2022-11-13_21h48.28.663,vts_reward_expectancy_bt,2022.2.4,Win32,60.73858115,Chrome,1920,1080,,,,,1,934,,,,,,,,,,,,,,,,,146,D,star,1,0,,,,,,,,,,,,,,,,repeat,number,numRpt,d,0.4623,Lo,,,,,,3,,,,,,,,low,5,0,5,0,1,,,,,,,,,
293902,2022-11-13_21h48.28.663,vts_reward_expectancy_bt,2022.2.4,Win32,60.73858115,Chrome,1920,1080,,,,,0,934,,,,,,,,,,,,,,,,,181,Y,hexagon,0,0,,,,,,,,,,,,,,,,repeat,number,NA,d,0.0347,Lo,,,,,,3,,,,,,,,low,6,0,6,0,1,,,,,,,,,
293902,2022-11-13_21h48.28.663,vts_reward_expectancy_bt,2022.2.4,Win32,60.73858115,Chrome,1920,1080,,,,,0,934,,,,,,,,,,,,,,,,,160,H,circle,0,1,,,,,,,,,,,,,,,,repeat,number,NA,d,0.1164,Lo,,,,,,3,,,,,,,,low,7,0,7,0,1,,,,,,,,,
293902,2022-11-13_21h48.28.663,vts_reward_expectancy_bt,2022.2.4,Win32,60.73858115,Chrome,1920,1080,,,,,10,944,,,,,,,,,,,,,,,,,132,B,star,1,1,,,,,,,,,,,,,,,,repeat,number,numRpt,d,0.1075,Lo,,,,,,3,,,,,,,,low,8,0,8,0,1,,,,,,,,,
293902,2022-11-13_21h48.28.663,vts_reward_expectancy_bt,2022.2.4,Win32,60.73858115,Chrome,1920,1080,,,,,0,944,,,,,,,,,,,,,,,,,167,U,triangle,0,0,,,,,,,,,,,,,,,,repeat,number,NA,d,0.0756,Lo,,,,,,3,,,,,,,,low,9,0,9,0,1,,,,,,,,,
293902,2022-11-13_21h48.28.663,vts_reward_expectancy_bt,2022.2.4,Win32,60.73858115,Chrome,1920,1080,,,,,1,945,,,,,,,,,,,,,,,,,125,S,hexagon,1,1,,,,,,,,,,,,,,,,repeat,number,numRpt,d,0.116,Hi,,,,,,3,,,,,,,,low,10,0,10,0,1,,,,,,,,,
293902,2022-11-13_21h48.28.663,vts_reward_expectancy_bt,2022.2.4,Win32,60.73858115,Chrome,1920,1080,,,,,0,945,,,,,,,,,,,,,,,,,174,W,circle,0,0,,,,,,,,,,,,,,,,repeat,number,NA,d,0.2122,Hi,,,,,,3,,,,,,,,low,11,0,11,0,1,,,,,,,,,
293902,2022-11-13_21h48.28.663,vts_reward_expectancy_bt,2022.2.4,Win32,60.73858115,Chrome,1920,1080,,,,,10,955,,,,,,,,,,,,,,,,,139,F,circle,1,1,,,,,,,,,,,,,,,,repeat,number,numRpt,d,0.1077,Hi,,,,,,3,,,,,,,,low,12,0,12,0,1,,,,,,,,,
293902,2022-11-13_21h48.28.663,vts_reward_expectancy_bt,2022.2.4,Win32,60.73858115,Chrome,1920,1080,,,,,0,955,,,,,,,,,,,,,,,,,146,D,hexagon,0,0,,,,,,,,,,,,,,,,repeat,number,NA,f,0.1581,Hi,,,,,,3,,,,,,,,low,13,0,13,0,1,,,,,,,,,
293902,2022-11-13_21h48.28.663,vts_reward_expectancy_bt,2022.2.4,Win32,60.73858115,Chrome,1920,1080,,,,,10,965,,,,,,,,,,,,,,,,,181,Y,star,1,1,,,,,,,,,,,,,,,,repeat,number,numRpt,f,0.1151,Lo,,,,,,3,,,,,,,,low,14,0,14,0,1,,,,,,,,,
293902,2022-11-13_21h48.28.663,vts_reward_expectancy_bt,2022.2.4,Win32,60.73858115,Chrome,1920,1080,,,,,1,966,,,,,,,,,,,,,,,,,160,H,triangle,1,0,,,,,,,,,,,,,,,,repeat,number,numRpt,f,0.1122,Lo,,,,,,3,,,,,,,,low,15,0,15,0,1,,,,,,,,,
293902,2022-11-13_21h48.28.663,vts_reward_expectancy_bt,2022.2.4,Win32,60.73858115,Chrome,1920,1080,,,,,0,966,,,,,,,,,,,,,,,,,132,B,star,0,0,,,,,,,,,,,,,,,,repeat,number,NA,f,0.0412,Lo,,,,,,3,,,,,,,,low,16,0,16,0,1,,,,,,,,,
293902,2022-11-13_21h48.28.663,vts_reward_expectancy_bt,2022.2.4,Win32,60.73858115,Chrome,1920,1080,,,,,1,967,,,,,,,,,,,,,,,,,181,F,hexagon,1,1,,,,,,,,,,,,,,,,switch,letter,lettSwt,j,0.0222,Hi,,,,,,3,,,,,,,,low,17,0,17,0,1,,,,,,,,,
293902,2022-11-13_21h48.28.663,vts_reward_expectancy_bt,2022.2.4,Win32,60.73858115,Chrome,1920,1080,,,,,0,967,,,,,,,,,,,,,,,,,174,S,circle,0,0,,,,,,,,,,,,,,,,repeat,letter,NA,j,0.1786,Hi,,,,,,3,,,,,,,,low,18,0,18,0,1,,,,,,,,,
293902,2022-11-13_21h48.28.663,vts_reward_expectancy_bt,2022.2.4,Win32,60.73858115,Chrome,1920,1080,,,,,10,977,,,,,,,,,,,,,,,,,125,Y,triangle,1,1,,,,,,,,,,,,,,,,repeat,letter,lettRpt,k,0.1889,Lo,,,,,,3,,,,,,,,low,19,0,19,0,1,,,,,,,,,
293902,2022-11-13_21h48.28.663,vts_reward_expectancy_bt,2022.2.4,Win32,60.73858115,Chrome,1920,1080,,,,,1,978,,,,,,,,,,,,,,,,,167,W,circle,1,0,,,,,,,,,,,,,,,,repeat,letter,lettRpt,k,0.0985,Hi,,,,,,3,,,,,,,,low,20,0,20,0,1,,,,,,,,,
293902,2022-11-13_21h48.28.663,vts_reward_expectancy_bt,2022.2.4,Win32,60.73858115,Chrome,1920,1080,,,,,10,988,,,,,,,,,,,,,,,,,160,H,triangle,1,0,,,,,,,,,,,,,,,,repeat,letter,lettRpt,j,0.1246,Lo,,,,,,3,,,,,,,,low,21,0,21,0,1,,,,,,,,,
293902,2022-11-13_21h48.28.663,vts_reward_expectancy_bt,2022.2.4,Win32,60.73858115,Chrome,1920,1080,,,,,0,988,,,,,,,,,,,,,,,,,139,D,hexagon,1,0,,,,,,,,,,,,,,,,switch,number,numSwt,d,1.0104,Hi,,,,,,3,,,,,,,,low,22,0,22,0,1,,,,,,,,,
293902,2022-11-13_21h48.28.663,vts_reward_expectancy_bt,2022.2.4,Win32,60.73858115,Chrome,1920,1080,,,,,1,989,,,,,,,,,,,,,,,,,146,U,star,1,0,,,,,,,,,,,,,,,,repeat,number,numRpt,d,0.1021,Lo,,,,,,3,,,,,,,,low,23,0,23,0,1,,,,,,,,,
293902,2022-11-13_21h48.28.663,vts_reward_expectancy_bt,2022.2.4,Win32,60.73858115,Chrome,1920,1080,,,,,10,999,,,,,,,,,,,,,,,,,146,S,triangle,1,0,,,,,,,,,,,,,,,,repeat,number,numRpt,d,0.1076,Lo,,,,,,3,,,,,,,,low,24,0,24,0,1,,,,,,,,,
293902,2022-11-13_21h48.28.663,vts_reward_expectancy_bt,2022.2.4,Win32,60.73858115,Chrome,1920,1080,,,,,10,1009,,,,,,,,,,,,,,,,,125,F,star,1,0,,,,,,,,,,,,,,,,repeat,number,numRpt,d,0.0938,Lo,,,,,,3,,,,,,,,low,25,0,25,0,1,,,,,,,,,
293902,2022-11-13_21h48.28.663,vts_reward_expectancy_bt,2022.2.4,Win32,60.73858115,Chrome,1920,1080,,,,,10,1019,,,,,,,,,,,,,,,,,139,H,circle,1,0,,,,,,,,,,,,,,,,repeat,number,numRpt,d,0.0174,Hi,,,,,,3,,,,,,,,low,26,0,26,0,1,,,,,,,,,
293902,2022-11-13_21h48.28.663,vts_reward_expectancy_bt,2022.2.4,Win32,60.73858115,Chrome,1920,1080,,,,,0,1019,,,,,,,,,,,,,,,,,160,U,hexagon,0,0,,,,,,,,,,,,,,,,repeat,number,NA,d,0.0104,Hi,,,,,,3,,,,,,,,low,27,0,27,0,1,,,,,,,,,
293902,2022-11-13_21h48.28.663,vts_reward_expectancy_bt,2022.2.4,Win32,60.73858115,Chrome,1920,1080,,,,,0,1019,,,,,,,,,,,,,,,,,167,Y,triangle,0,1,,,,,,,,,,,,,,,,repeat,number,NA,d,0.1014,Hi,,,,,,3,,,,,,,,low,28,0,28,0,1,,,,,,,,,
293902,2022-11-13_21h48.28.663,vts_reward_expectancy_bt,2022.2.4,Win32,60.73858115,Chrome,1920,1080,,,,,0,1019,,,,,,,,,,,,,,,,,181,W,circle,0,1,,,,,,,,,,,,,,,,repeat,number,NA,d,0.1837,Hi,,,,,,3,,,,,,,,low,29,0,29,0,1,,,,,,,,,
293902,2022-11-13_21h48.28.663,vts_reward_expectancy_bt,2022.2.4,Win32,60.73858115,Chrome,1920,1080,,,,,0,1019,,,,,,,,,,,,,,,,,174,D,star,0,1,,,,,,,,,,,,,,,,repeat,number,NA,d,0.0157,Hi,,,,,,3,,,,,,,,low,30,0,30,0,1,,,,,,,,,
293902,2022-11-13_21h48.28.663,vts_reward_expectancy_bt,2022.2.4,Win32,60.73858115,Chrome,1920,1080,,,,,1,1020,,,,,,,,,,,,,,,,,132,B,hexagon,1,1,,,,,,,,,,,,,,,,repeat,number,numRpt,d,0.0413,Hi,,,,,,3,,,,,,,,low,31,0,31,0,1,,,,,,,,,
293902,2022-11-13_21h48.28.663,vts_reward_expectancy_bt,2022.2.4,Win32,60.73858115,Chrome,1920,1080,,,,,0,1020,,,,,,,,,,,,,,,,,125,B,triangle,0,0,,,,,,,,,,,,,,,,repeat,number,NA,f,0.0772,Hi,,,,,,4,,,,,,space,0.6287,low,0,0,0,0,1,,,,,,,,,
293902,2022-11-13_21h48.28.663,vts_reward_expectancy_bt,2022.2.4,Win32,60.73858115,Chrome,1920,1080,,,,,0,1020,,,,,,,,,,,,,,,,,146,Y,star,0,1,,,,,,,,,,,,,,,,repeat,number,NA,f,0.1705,Hi,,,,,,4,,,,,,,,low,1,0,1,0,1,,,,,,,,,
293902,2022-11-13_21h48.28.663,vts_reward_expectancy_bt,2022.2.4,Win32,60.73858115,Chrome,1920,1080,,,,,0,1020,,,,,,,,,,,,,,,,,181,F,hexagon,1,1,,,,,,,,,,,,,,,,repeat,number,numRpt,f,0.1824,Hi,,,,,,4,,,,,,,,low,2,0,2,0,1,,,,,,,,,
293902,2022-11-13_21h48.28.663,vts_reward_expectancy_bt,2022.2.4,Win32,60.73858115,Chrome,1920,1080,,,,,0,1020,,,,,,,,,,,,,,,,,160,S,circle,1,0,,,,,,,,,,,,,,,,repeat,number,numRpt,f,0.1438,Hi,,,,,,4,,,,,,,,low,3,0,3,0,1,,,,,,,,,
293902,2022-11-13_21h48.28.663,vts_reward_expectancy_bt,2022.2.4,Win32,60.73858115,Chrome,1920,1080,,,,,10,1030,,,,,,,,,,,,,,,,,167,H,triangle,1,0,,,,,,,,,,,,,,,,repeat,number,numRpt,f,0.2285,Lo,,,,,,4,,,,,,,,low,4,0,4,0,1,,,,,,,,,
293902,2022-11-13_21h48.28.663,vts_reward_expectancy_bt,2022.2.4,Win32,60.73858115,Chrome,1920,1080,,,,,0,1030,,,,,,,,,,,,,,,,,139,U,star,0,0,,,,,,,,,,,,,,,,repeat,number,NA,f,0.0681,Lo,,,,,,4,,,,,,,,low,5,0,5,0,1,,,,,,,,,
293902,2022-11-13_21h48.28.663,vts_reward_expectancy_bt,2022.2.4,Win32,60.73858115,Chrome,1920,1080,,,,,0,1030,,,,,,,,,,,,,,,,,132,D,hexagon,0,1,,,,,,,,,,,,,,,,repeat,number,NA,f,0.1154,Lo,,,,,,4,,,,,,,,low,6,0,6,0,1,,,,,,,,,
293902,2022-11-13_21h48.28.663,vts_reward_expectancy_bt,2022.2.4,Win32,60.73858115,Chrome,1920,1080,,,,,10,1040,,,,,,,,,,,,,,,,,174,W,circle,1,1,,,,,,,,,,,,,,,,repeat,number,numRpt,f,0.0819,Hi,,,,,,4,,,,,,,,low,7,0,7,0,1,,,,,,,,,
293902,2022-11-13_21h48.28.663,vts_reward_expectancy_bt,2022.2.4,Win32,60.73858115,Chrome,1920,1080,,,,,0,1040,,,,,,,,,,,,,,,,,125,B,star,0,0,,,,,,,,,,,,,,,,repeat,number,NA,f,0.0253,Hi,,,,,,4,,,,,,,,low,8,0,8,0,1,,,,,,,,,
293902,2022-11-13_21h48.28.663,vts_reward_expectancy_bt,2022.2.4,Win32,60.73858115,Chrome,1920,1080,,,,,0,1040,,,,,,,,,,,,,,,,,146,Y,circle,0,1,,,,,,,,,,,,,,,,repeat,number,NA,f,0.0889,Hi,,,,,,4,,,,,,,,low,9,0,9,0,1,,,,,,,,,
293902,2022-11-13_21h48.28.663,vts_reward_expectancy_bt,2022.2.4,Win32,60.73858115,Chrome,1920,1080,,,,,0,1040,,,,,,,,,,,,,,,,,181,F,hexagon,1,1,,,,,,,,,,,,,,,,repeat,number,numRpt,f,0.1672,Hi,,,,,,4,,,,,,,,low,10,0,10,0,1,,,,,,,,,
293902,2022-11-13_21h48.28.663,vts_reward_expectancy_bt,2022.2.4,Win32,60.73858115,Chrome,1920,1080,,,,,0,1040,,,,,,,,,,,,,,,,,160,S,triangle,0,0,,,,,,,,,,,,,,,,repeat,number,NA,d,0.1794,Hi,,,,,,4,,,,,,,,low,11,0,11,0,1,,,,,,,,,
293902,2022-11-13_21h48.28.663,vts_reward_expectancy_bt,2022.2.4,Win32,60.73858115,Chrome,1920,1080,,,,,0,1040,,,,,,,,,,,,,,,,,167,H,star,0,1,,,,,,,,,,,,,,,,repeat,number,NA,d,0.094,Hi,,,,,,4,,,,,,,,low,12,0,12,0,1,,,,,,,,,
293902,2022-11-13_21h48.28.663,vts_reward_expectancy_bt,2022.2.4,Win32,60.73858115,Chrome,1920,1080,,,,,10,1050,,,,,,,,,,,,,,,,,139,U,triangle,1,1,,,,,,,,,,,,,,,,repeat,number,numRpt,d,0.1886,Lo,,,,,,4,,,,,,,,low,13,0,13,0,1,,,,,,,,,
293902,2022-11-13_21h48.28.663,vts_reward_expectancy_bt,2022.2.4,Win32,60.73858115,Chrome,1920,1080,,,,,10,1060,,,,,,,,,,,,,,,,,132,D,hexagon,1,0,,,,,,,,,,,,,,,,repeat,number,numRpt,d,0.0352,Hi,,,,,,4,,,,,,,,low,14,0,14,0,1,,,,,,,,,
293902,2022-11-13_21h48.28.663,vts_reward_expectancy_bt,2022.2.4,Win32,60.73858115,Chrome,1920,1080,,,,,0,1060,,,,,,,,,,,,,,,,,174,W,circle,0,0,,,,,,,,,,,,,,,,repeat,number,NA,d,0.4746,Hi,,,,,,4,,,,,,,,low,15,0,15,0,1,,,,,,,,,
293902,2022-11-13_21h48.28.663,vts_reward_expectancy_bt,2022.2.4,Win32,60.73858115,Chrome,1920,1080,,,,,1,1061,,,,,,,,,,,,,,,,,146,H,circle,1,1,,,,,,,,,,,,,,,,repeat,number,numRpt,d,0.0672,Hi,,,,,,4,,,,,,,,low,16,0,16,0,1,,,,,,,,,
293902,2022-11-13_21h48.28.663,vts_reward_expectancy_bt,2022.2.4,Win32,60.73858115,Chrome,1920,1080,,,,,1,1062,,,,,,,,,,,,,,,,,139,D,hexagon,1,0,,,,,,,,,,,,,,,,repeat,number,numRpt,d,0.0036,Hi,,,,,,4,,,,,,,,low,17,0,17,0,1,,,,,,,,,
293902,2022-11-13_21h48.28.663,vts_reward_expectancy_bt,2022.2.4,Win32,60.73858115,Chrome,1920,1080,,,,,0,1062,,,,,,,,,,,,,,,,,167,B,triangle,0,0,,,,,,,,,,,,,,,,repeat,number,NA,d,0.1005,Hi,,,,,,4,,,,,,,,low,18,0,18,0,1,,,,,,,,,
293902,2022-11-13_21h48.28.663,vts_reward_expectancy_bt,2022.2.4,Win32,60.73858115,Chrome,1920,1080,,,,,0,1062,,,,,,,,,,,,,,,,,174,F,star,0,1,,,,,,,,,,,,,,,,repeat,number,NA,d,0.1689,Hi,,,,,,4,,,,,,,,low,19,0,19,0,1,,,,,,,,,
293902,2022-11-13_21h48.28.663,vts_reward_expectancy_bt,2022.2.4,Win32,60.73858115,Chrome,1920,1080,,,,,0,1062,,,,,,,,,,,,,,,,,160,S,hexagon,0,1,,,,,,,,,,,,,,,,repeat,number,NA,d,1.1095,Hi,,,,,,4,,,,,,,,low,20,0,20,0,1,,,,,,,,,
293902,2022-11-13_21h48.28.663,vts_reward_expectancy_bt,2022.2.4,Win32,60.73858115,Chrome,1920,1080,,,,,0,1062,,,,,,,,,,,,,,,,,132,W,triangle,0,1,,,,,,,,,,,,,,,,repeat,number,NA,f,0.1441,Hi,,,,,,4,,,,,,,,low,21,0,21,0,1,,,,,,,,,
293902,2022-11-13_21h48.28.663,vts_reward_expectancy_bt,2022.2.4,Win32,60.73858115,Chrome,1920,1080,,,,,0,1062,,,,,,,,,,,,,,,,,181,U,star,0,1,,,,,,,,,,,,,,,,repeat,number,NA,d,0.1158,Hi,,,,,,4,,,,,,,,low,22,0,22,0,1,,,,,,,,,
293902,2022-11-13_21h48.28.663,vts_reward_expectancy_bt,2022.2.4,Win32,60.73858115,Chrome,1920,1080,,,,,0,1062,,,,,,,,,,,,,,,,,125,Y,circle,0,1,,,,,,,,,,,,,,,,repeat,number,NA,f,0.085,Hi,,,,,,4,,,,,,,,low,23,0,23,0,1,,,,,,,,,
293902,2022-11-13_21h48.28.663,vts_reward_expectancy_bt,2022.2.4,Win32,60.73858115,Chrome,1920,1080,,,,,0,1062,,,,,,,,,,,,,,,,,174,F,hexagon,0,1,,,,,,,,,,,,,,,,repeat,number,NA,d,0.4449,Hi,,,,,,4,,,,,,,,low,24,0,24,0,1,,,,,,,,,
293902,2022-11-13_21h48.28.663,vts_reward_expectancy_bt,2022.2.4,Win32,60.73858115,Chrome,1920,1080,,,,,0,1062,,,,,,,,,,,,,,,,,160,W,triangle,0,1,,,,,,,,,,,,,,,,repeat,number,NA,d,0.9712,Hi,,,,,,4,,,,,,,,low,25,0,25,0,1,,,,,,,,,
293902,2022-11-13_21h48.28.663,vts_reward_expectancy_bt,2022.2.4,Win32,60.73858115,Chrome,1920,1080,,,,,0,1062,,,,,,,,,,,,,,,,,146,Y,circle,0,1,,,,,,,,,,,,,,,,repeat,number,NA,f,0.0671,Hi,,,,,,4,,,,,,,,low,26,0,26,0,1,,,,,,,,,
293902,2022-11-13_21h48.28.663,vts_reward_expectancy_bt,2022.2.4,Win32,60.73858115,Chrome,1920,1080,,,,,0,1062,,,,,,,,,,,,,,,,,181,H,star,0,1,,,,,,,,,,,,,,,,repeat,number,NA,d,0.0285,Hi,,,,,,4,,,,,,,,low,27,0,27,0,1,,,,,,,,,
293902,2022-11-13_21h48.28.663,vts_reward_expectancy_bt,2022.2.4,Win32,60.73858115,Chrome,1920,1080,,,,,0,1062,,,,,,,,,,,,,,,,,125,B,hexagon,1,1,,,,,,,,,,,,,,,,repeat,number,numRpt,d,0.143,Hi,,,,,,4,,,,,,,,low,28,0,28,0,1,,,,,,,,,
293902,2022-11-13_21h48.28.663,vts_reward_expectancy_bt,2022.2.4,Win32,60.73858115,Chrome,1920,1080,,,,,10,1072,,,,,,,,,,,,,,,,,132,D,triangle,1,0,,,,,,,,,,,,,,,,repeat,number,numRpt,d,0.0003,Lo,,,,,,4,,,,,,,,low,29,0,29,0,1,,,,,,,,,
293902,2022-11-13_21h48.28.663,vts_reward_expectancy_bt,2022.2.4,Win32,60.73858115,Chrome,1920,1080,,,,,0,1072,,,,,,,,,,,,,,,,,167,U,circle,0,0,,,,,,,,,,,,,,,,repeat,number,NA,d,0.3536,Lo,,,,,,4,,,,,,,,low,30,0,30,0,1,,,,,,,,,
293902,2022-11-13_21h48.28.663,vts_reward_expectancy_bt,2022.2.4,Win32,60.73858115,Chrome,1920,1080,,,,,0,1072,,,,,,,,,,,,,,,,,139,S,star,0,1,,,,,,,,,,,,,,,,repeat,number,NA,f,0.0336,Lo,,,,,,4,,,,,,,,low,31,0,31,0,1,,,,,,,,,
293902,2022-11-13_21h48.28.663,vts_reward_expectancy_bt,2022.2.4,Win32,60.73858115,Chrome,1920,1080,,,,,0,1072,,,,,,,,,,,,,,,,,181,H,star,0,1,,,,,,,,,,,,,,,,switch,letter,NA,k,0.0431,Lo,,,,,,5,,,,,,space,1.1003,low,0,0,0,0,1,,,,,,,,,
293902,2022-11-13_21h48.28.663,vts_reward_expectancy_bt,2022.2.4,Win32,60.73858115,Chrome,1920,1080,,,,,10,1082,,,,,,,,,,,,,,,,,125,D,circle,1,1,,,,,,,,,,,,,,,,repeat,letter,lettRpt,j,0.1856,Hi,,,,,,5,,,,,,,,low,1,0,1,0,1,,,,,,,,,
293902,2022-11-13_21h48.28.663,vts_reward_expectancy_bt,2022.2.4,Win32,60.73858115,Chrome,1920,1080,,,,,10,1092,,,,,,,,,,,,,,,,,160,W,triangle,1,0,,,,,,,,,,,,,,,,repeat,letter,lettRpt,k,0.0422,Lo,,,,,,5,,,,,,,,low,2,0,2,0,1,,,,,,,,,
293902,2022-11-13_21h48.28.663,vts_reward_expectancy_bt,2022.2.4,Win32,60.73858115,Chrome,1920,1080,,,,,1,1093,,,,,,,,,,,,,,,,,167,B,hexagon,1,0,,,,,,,,,,,,,,,,repeat,letter,lettRpt,j,0.115,Hi,,,,,,5,,,,,,,,low,3,0,3,0,1,,,,,,,,,
293902,2022-11-13_21h48.28.663,vts_reward_expectancy_bt,2022.2.4,Win32,60.73858115,Chrome,1920,1080,,,,,0,1093,,,,,,,,,,,,,,,,,139,U,star,0,0,,,,,,,,,,,,,,,,repeat,letter,NA,j,0.1679,Hi,,,,,,5,,,,,,,,low,4,0,4,0,1,,,,,,,,,
293902,2022-11-13_21h48.28.663,vts_reward_expectancy_bt,2022.2.4,Win32,60.73858115,Chrome,1920,1080,,,,,0,1093,,,,,,,,,,,,,,,,,132,S,circle,0,1,,,,,,,,,,,,,,,,repeat,letter,NA,j,0.0293,Hi,,,,,,5,,,,,,,,low,5,0,5,0,1,,,,,,,,,
293902,2022-11-13_21h48.28.663,vts_reward_expectancy_bt,2022.2.4,Win32,60.73858115,Chrome,1920,1080,,,,,0,1093,,,,,,,,,,,,,,,,,174,F,triangle,0,1,,,,,,,,,,,,,,,,repeat,letter,NA,k,0.0896,Hi,,,,,,5,,,,,,,,low,6,0,6,0,1,,,,,,,,,
293902,2022-11-13_21h48.28.663,vts_reward_expectancy_bt,2022.2.4,Win32,60.73858115,Chrome,1920,1080,,,,,0,1093,,,,,,,,,,,,,,,,,146,Y,hexagon,0,1,,,,,,,,,,,,,,,,repeat,letter,NA,j,0.0988,Hi,,,,,,5,,,,,,,,low,7,0,7,0,1,,,,,,,,,
293902,2022-11-13_21h48.28.663,vts_reward_expectancy_bt,2022.2.4,Win32,60.73858115,Chrome,1920,1080,,,,,1,1094,,,,,,,,,,,,,,,,,181,H,triangle,1,1,,,,,,,,,,,,,,,,repeat,letter,lettRpt,j,0.0227,Lo,,,,,,5,,,,,,,,low,8,0,8,0,1,,,,,,,,,
293902,2022-11-13_21h48.28.663,vts_reward_expectancy_bt,2022.2.4,Win32,60.73858115,Chrome,1920,1080,,,,,10,1104,,,,,,,,,,,,,,,,,125,D,circle,1,0,,,,,,,,,,,,,,,,repeat,letter,lettRpt,j,0.0913,Hi,,,,,,5,,,,,,,,low,9,0,9,0,1,,,,,,,,,
293902,2022-11-13_21h48.28.663,vts_reward_expectancy_bt,2022.2.4,Win32,60.73858115,Chrome,1920,1080,,,,,0,1104,,,,,,,,,,,,,,,,,160,W,star,0,0,,,,,,,,,,,,,,,,repeat,letter,NA,j,0.1159,Hi,,,,,,5,,,,,,,,low,10,0,10,0,1,,,,,,,,,
293902,2022-11-13_21h48.28.663,vts_reward_expectancy_bt,2022.2.4,Win32,60.73858115,Chrome,1920,1080,,,,,10,1114,,,,,,,,,,,,,,,,,167,B,hexagon,1,1,,,,,,,,,,,,,,,,repeat,letter,lettRpt,j,0.2243,Hi,,,,,,5,,,,,,,,low,11,0,11,0,1,,,,,,,,,
293902,2022-11-13_21h48.28.663,vts_reward_expectancy_bt,2022.2.4,Win32,60.73858115,Chrome,1920,1080,,,,,0,1114,,,,,,,,,,,,,,,,,139,U,star,0,0,,,,,,,,,,,,,,,,repeat,letter,NA,j,0.0163,Hi,,,,,,5,,,,,,,,low,12,0,12,0,1,,,,,,,,,
293902,2022-11-13_21h48.28.663,vts_reward_expectancy_bt,2022.2.4,Win32,60.73858115,Chrome,1920,1080,,,,,0,1114,,,,,,,,,,,,,,,,,132,S,triangle,0,1,,,,,,,,,,,,,,,,repeat,letter,NA,j,0.0997,Hi,,,,,,5,,,,,,,,low,13,0,13,0,1,,,,,,,,,
293902,2022-11-13_21h48.28.663,vts_reward_expectancy_bt,2022.2.4,Win32,60.73858115,Chrome,1920,1080,,,,,10,1124,,,,,,,,,,,,,,,,,174,F,circle,1,1,,,,,,,,,,,,,,,,repeat,letter,lettRpt,j,0.017,Hi,,,,,,5,,,,,,,,low,14,0,14,0,1,,,,,,,,,
293902,2022-11-13_21h48.28.663,vts_reward_expectancy_bt,2022.2.4,Win32,60.73858115,Chrome,1920,1080,,,,,0,1124,,,,,,,,,,,,,,,,,146,Y,hexagon,0,0,,,,,,,,,,,,,,,,repeat,letter,NA,j,0.034,Hi,,,,,,5,,,,,,,,low,15,0,15,0,1,,,,,,,,,
293902,2022-11-13_21h48.28.663,vts_reward_expectancy_bt,2022.2.4,Win32,60.73858115,Chrome,1920,1080,,,,,0,1124,,,,,,,,,,,,,,,,,181,U,hexagon,0,1,,,,,,,,,,,,,,,,repeat,letter,NA,j,0.1023,Hi,,,,,,5,,,,,,,,low,16,0,16,0,1,,,,,,,,,
293902,2022-11-13_21h48.28.663,vts_reward_expectancy_bt,2022.2.4,Win32,60.73858115,Chrome,1920,1080,,,,,0,1124,,,,,,,,,,,,,,,,,146,W,triangle,0,1,,,,,,,,,,,,,,,,repeat,letter,NA,j,0.0588,Hi,,,,,,5,,,,,,,,low,17,0,17,0,1,,,,,,,,,
293902,2022-11-13_21h48.28.663,vts_reward_expectancy_bt,2022.2.4,Win32,60.73858115,Chrome,1920,1080,,,,,0,1124,,,,,,,,,,,,,,,,,132,S,circle,0,1,,,,,,,,,,,,,,,,repeat,letter,NA,j,0.1516,Hi,,,,,,5,,,,,,,,low,18,0,18,0,1,,,,,,,,,
293902,2022-11-13_21h48.28.663,vts_reward_expectancy_bt,2022.2.4,Win32,60.73858115,Chrome,1920,1080,,,,,10,1134,,,,,,,,,,,,,,,,,125,F,star,1,1,,,,,,,,,,,,,,,,repeat,letter,lettRpt,j,0.0319,Lo,,,,,,5,,,,,,,,low,19,0,19,0,1,,,,,,,,,
293902,2022-11-13_21h48.28.663,vts_reward_expectancy_bt,2022.2.4,Win32,60.73858115,Chrome,1920,1080,,,,,1,1135,,,,,,,,,,,,,,,,,174,D,hexagon,1,0,,,,,,,,,,,,,,,,switch,number,numSwt,f,0.1371,Hi,,,,,,5,,,,,,,,low,20,0,20,0,1,,,,,,,,,
293902,2022-11-13_21h48.28.663,vts_reward_expectancy_bt,2022.2.4,Win32,60.73858115,Chrome,1920,1080,,,,,1,1136,,,,,,,,,,,,,,,,,160,B,triangle,1,0,,,,,,,,,,,,,,,,repeat,number,numRpt,f,0.1098,Lo,,,,,,5,,,,,,,,low,21,0,21,0,1,,,,,,,,,
293902,2022-11-13_21h48.28.663,vts_reward_expectancy_bt,2022.2.4,Win32,60.73858115,Chrome,1920,1080,,,,,1,1137,,,,,,,,,,,,,,,,,167,H,star,1,0,,,,,,,,,,,,,,,,repeat,number,numRpt,f,0.194,Lo,,,,,,5,,,,,,,,low,22,0,22,0,1,,,,,,,,,
293902,2022-11-13_21h48.28.663,vts_reward_expectancy_bt,2022.2.4,Win32,60.73858115,Chrome,1920,1080,,,,,0,1137,,,,,,,,,,,,,,,,,139,Y,circle,0,0,,,,,,,,,,,,,,,,repeat,number,NA,f,0.0166,Lo,,,,,,5,,,,,,,,low,23,0,23,0,1,,,,,,,,,
293902,2022-11-13_21h48.28.663,vts_reward_expectancy_bt,2022.2.4,Win32,60.73858115,Chrome,1920,1080,,,,,0,1137,,,,,,,,,,,,,,,,,132,B,hexagon,0,1,,,,,,,,,,,,,,,,repeat,number,NA,f,0.2596,Lo,,,,,,5,,,,,,,,low,24,0,24,0,1,,,,,,,,,
293902,2022-11-13_21h48.28.663,vts_reward_expectancy_bt,2022.2.4,Win32,60.73858115,Chrome,1920,1080,,,,,0,1137,,,,,,,,,,,,,,,,,167,D,triangle,0,1,,,,,,,,,,,,,,,,repeat,number,NA,d,0.1577,Lo,,,,,,5,,,,,,,,low,25,0,25,0,1,,,,,,,,,
293902,2022-11-13_21h48.28.663,vts_reward_expectancy_bt,2022.2.4,Win32,60.73858115,Chrome,1920,1080,,,,,0,1137,,,,,,,,,,,,,,,,,125,S,circle,1,1,,,,,,,,,,,,,,,,repeat,number,numRpt,d,0.0831,Hi,,,,,,5,,,,,,,,low,26,0,26,0,1,,,,,,,,,
293902,2022-11-13_21h48.28.663,vts_reward_expectancy_bt,2022.2.4,Win32,60.73858115,Chrome,1920,1080,,,,,10,1147,,,,,,,,,,,,,,,,,174,W,star,1,0,,,,,,,,,,,,,,,,repeat,number,numRpt,f,0.028,Lo,,,,,,5,,,,,,,,low,27,0,27,0,1,,,,,,,,,
293902,2022-11-13_21h48.28.663,vts_reward_expectancy_bt,2022.2.4,Win32,60.73858115,Chrome,1920,1080,,,,,0,1147,,,,,,,,,,,,,,,,,146,Y,circle,0,0,,,,,,,,,,,,,,,,repeat,number,NA,f,0.0605,Lo,,,,,,5,,,,,,,,low,28,0,28,0,1,,,,,,,,,
293902,2022-11-13_21h48.28.663,vts_reward_expectancy_bt,2022.2.4,Win32,60.73858115,Chrome,1920,1080,,,,,10,1157,,,,,,,,,,,,,,,,,181,F,star,1,1,,,,,,,,,,,,,,,,repeat,number,numRpt,f,0.0593,Lo,,,,,,5,,,,,,,,low,29,0,29,0,1,,,,,,,,,
293902,2022-11-13_21h48.28.663,vts_reward_expectancy_bt,2022.2.4,Win32,60.73858115,Chrome,1920,1080,,,,,0,1157,,,,,,,,,,,,,,,,,139,H,triangle,0,0,,,,,,,,,,,,,,,,repeat,number,NA,f,0.1503,Lo,,,,,,5,,,,,,,,low,30,0,30,0,1,,,,,,,,,
293902,2022-11-13_21h48.28.663,vts_reward_expectancy_bt,2022.2.4,Win32,60.73858115,Chrome,1920,1080,,,,,0,1157,,,,,,,,,,,,,,,,,160,U,hexagon,0,1,,,,,,,,,,,,,,,,repeat,number,NA,d,0.0003,Lo,,,,,,5,,,,,,,,low,31,0,31,0,1,,,,,,,,,
293902,2022-11-13_21h48.28.663,vts_reward_expectancy_bt,2022.2.4,Win32,60.73858115,Chrome,1920,1080,,,,,10,1167,,,,,,,,,,,,,,,,,181,W,circle,1,1,,,,,,,,,,,,,,,,switch,letter,lettSwt,k,0.1409,Hi,,,,,,6,,,,,,space,0.832,low,0,0,0,0,1,,,,,,,,,
293902,2022-11-13_21h48.28.663,vts_reward_expectancy_bt,2022.2.4,Win32,60.73858115,Chrome,1920,1080,,,,,10,1177,,,,,,,,,,,,,,,,,167,Y,star,1,0,,,,,,,,,,,,,,,,repeat,letter,lettRpt,k,0.1186,Lo,,,,,,6,,,,,,,,low,1,0,1,0,1,,,,,,,,,
293902,2022-11-13_21h48.28.663,vts_reward_expectancy_bt,2022.2.4,Win32,60.73858115,Chrome,1920,1080,,,,,0,1177,,,,,,,,,,,,,,,,,146,D,hexagon,0,0,,,,,,,,,,,,,,,,repeat,letter,NA,k,0.0003,Lo,,,,,,6,,,,,,,,low,2,0,2,0,1,,,,,,,,,
293902,2022-11-13_21h48.28.663,vts_reward_expectancy_bt,2022.2.4,Win32,60.73858115,Chrome,1920,1080,,,,,1,1178,,,,,,,,,,,,,,,,,160,U,triangle,1,1,,,,,,,,,,,,,,,,repeat,letter,lettRpt,k,0.1665,Lo,,,,,,6,,,,,,,,low,3,0,3,0,1,,,,,,,,,
293902,2022-11-13_21h48.28.663,vts_reward_expectancy_bt,2022.2.4,Win32,60.73858115,Chrome,1920,1080,,,,,1,1179,,,,,,,,,,,,,,,,,174,H,circle,1,0,,,,,,,,,,,,,,,,repeat,letter,lettRpt,j,0.0003,Hi,,,,,,6,,,,,,,,low,4,0,4,0,1,,,,,,,,,
293902,2022-11-13_21h48.28.663,vts_reward_expectancy_bt,2022.2.4,Win32,60.73858115,Chrome,1920,1080,,,,,0,1179,,,,,,,,,,,,,,,,,125,B,star,0,0,,,,,,,,,,,,,,,,repeat,letter,NA,k,0.0203,Hi,,,,,,6,,,,,,,,low,5,0,5,0,1,,,,,,,,,
293902,2022-11-13_21h48.28.663,vts_reward_expectancy_bt,2022.2.4,Win32,60.73858115,Chrome,1920,1080,,,,,1,1180,,,,,,,,,,,,,,,,,139,S,hexagon,1,1,,,,,,,,,,,,,,,,repeat,letter,lettRpt,k,0.0331,Hi,,,,,,6,,,,,,,,low,6,0,6,0,1,,,,,,,,,
293902,2022-11-13_21h48.28.663,vts_reward_expectancy_bt,2022.2.4,Win32,60.73858115,Chrome,1920,1080,,,,,0,1180,,,,,,,,,,,,,,,,,132,F,triangle,0,0,,,,,,,,,,,,,,,,repeat,letter,NA,k,0.0212,Hi,,,,,,6,,,,,,,,low,7,0,7,0,1,,,,,,,,,
293902,2022-11-13_21h48.28.663,vts_reward_expectancy_bt,2022.2.4,Win32,60.73858115,Chrome,1920,1080,,,,,0,1180,,,,,,,,,,,,,,,,,181,W,hexagon,1,1,,,,,,,,,,,,,,,,repeat,letter,lettRpt,k,0.2086,Hi,,,,,,6,,,,,,,,low,8,0,8,0,1,,,,,,,,,
293902,2022-11-13_21h48.28.663,vts_reward_expectancy_bt,2022.2.4,Win32,60.73858115,Chrome,1920,1080,,,,,1,1181,,,,,,,,,,,,,,,,,167,Y,star,1,0,,,,,,,,,,,,,,,,repeat,letter,lettRpt,k,0.1943,Lo,,,,,,6,,,,,,,,low,9,0,9,0,1,,,,,,,,,
293902,2022-11-13_21h48.28.663,vts_reward_expectancy_bt,2022.2.4,Win32,60.73858115,Chrome,1920,1080,,,,,0,1181,,,,,,,,,,,,,,,,,146,D,triangle,0,0,,,,,,,,,,,,,,,,repeat,letter,NA,k,0.0369,Lo,,,,,,6,,,,,,,,low,10,0,10,0,1,,,,,,,,,
293902,2022-11-13_21h48.28.663,vts_reward_expectancy_bt,2022.2.4,Win32,60.73858115,Chrome,1920,1080,,,,,0,1181,,,,,,,,,,,,,,,,,160,U,circle,1,1,,,,,,,,,,,,,,,,repeat,letter,lettRpt,k,0.1865,Hi,,,,,,6,,,,,,,,low,11,0,11,0,1,,,,,,,,,
293902,2022-11-13_21h48.28.663,vts_reward_expectancy_bt,2022.2.4,Win32,60.73858115,Chrome,1920,1080,,,,,0,1181,,,,,,,,,,,,,,,,,174,H,circle,0,0,,,,,,,,,,,,,,,,repeat,letter,NA,k,0.0529,Hi,,,,,,6,,,,,,,,low,12,0,12,0,1,,,,,,,,,
293902,2022-11-13_21h48.28.663,vts_reward_expectancy_bt,2022.2.4,Win32,60.73858115,Chrome,1920,1080,,,,,0,1181,,,,,,,,,,,,,,,,,125,B,hexagon,0,1,,,,,,,,,,,,,,,,repeat,letter,NA,k,0.1892,Hi,,,,,,6,,,,,,,,low,13,0,13,0,1,,,,,,,,,
293902,2022-11-13_21h48.28.663,vts_reward_expectancy_bt,2022.2.4,Win32,60.73858115,Chrome,1920,1080,,,,,0,1181,,,,,,,,,,,,,,,,,139,S,triangle,0,1,,,,,,,,,,,,,,,,repeat,letter,NA,j,0.1358,Hi,,,,,,6,,,,,,,,low,14,0,14,0,1,,,,,,,,,
293902,2022-11-13_21h48.28.663,vts_reward_expectancy_bt,2022.2.4,Win32,60.73858115,Chrome,1920,1080,,,,,10,1191,,,,,,,,,,,,,,,,,132,F,star,1,1,,,,,,,,,,,,,,,,repeat,letter,lettRpt,j,0.0125,Lo,,,,,,6,,,,,,,,low,15,0,15,0,1,,,,,,,,,
