participant,date,expName,psychopyVersion,OS,frameRate,browser,xResolution,yResolution,key_resp.keys,key_resp.rt,training_resp.keys,training_resp.rt,points_trial,points_cumul,trainBlock,training.thisRepN,training.thisTrialN,training.thisN,training.thisIndex,training.ran,LTriangleOpac,LCircleOpac,LHexagonOpac,LStarOpac,RTriangleOpac,RCircleOpac,RHexagonOpac,RStarOpac,LShape_ID,RShape_ID,curr_topStim,curr_bottStim,curr_shape,acc,E1,target_resp_prac1.keys,target_resp_prac1.rt,pracBlock,task1_prac_trials.thisRepN,task1_prac_trials.thisTrialN,task1_prac_trials.thisN,task1_prac_trials.thisIndex,task1_prac_trials.ran,target_resp_prac2.keys,target_resp_prac2.rt,task2_praac_trials.thisRepN,task2_praac_trials.thisTrialN,task2_praac_trials.thisN,task2_praac_trials.thisIndex,task2_praac_trials.ran,alt,task,condition,target_resp.keys,rewCond,vts_practice_trials.thisRepN,vts_practice_trials.thisTrialN,vts_practice_trials.thisN,vts_practice_trials.thisIndex,vts_practice_trials.ran,target_resp.rt,blockNum,trials_norew.thisRepN,trials_norew.thisTrialN,trials_norew.thisN,trials_norew.thisIndex,trials_norew.ran,key_resp_2.keys,key_resp_2.rt,rewExpectancy,trials_rew.thisRepN,trials_rew.thisTrialN,trials_rew.thisN,trials_rew.thisIndex,trials_rew.ran,Q1,Q2,Q2_text,Q3,Q4,Q5_text,Q5,xRes,yRes
294064,2022-11-30_12h46.58.773,vts_reward_expectancy_bt,2022.2.4,Win32,59.10165485,Chrome,1536,864,,,,,,,,,,,,,,,,,,,,,,,,,,,,,,,,,,,,,,,,,,,,,,,,,,,,,,,,,,,,,,,,,,,,,,,,,,,,
294064,2022-11-30_12h46.58.773,vts_reward_expectancy_bt,2022.2.4,Win32,59.10165485,Chrome,1536,864,space,1.6872,,,,,,,,,,,,,,,,,,,,,,,,,,,,,,,,,,,,,,,,,,,,,,,,,,,,,,,,,,,,,,,,,,,,,,,,,,
294064,2022-11-30_12h46.58.773,vts_reward_expectancy_bt,2022.2.4,Win32,59.10165485,Chrome,1536,864,,,,,,,,,,,,,,,,,,,,,,,,,,,,,,,,,,,,,,,,,,,,,,,,,,,,,,,,,,,,,,,,,,,,,,,,,,,,
294064,2022-11-30_12h46.58.773,vts_reward_expectancy_bt,2022.2.4,Win32,59.10165485,Chrome,1536,864,,,a,0.9331,10,10,0,0,0,0,6,1,0,0,1,0,1,0,0,0,hexagon,triangle,,,,,,,,,,,,,,,,,,,,,,,,,,,,,,,,,,,,,,,,,,,,,,,,,,,,,,
294064,2022-11-30_12h46.58.773,vts_reward_expectancy_bt,2022.2.4,Win32,59.10165485,Chrome,1536,864,,,l,0.7792,10,20,0,0,1,1,3,1,0,1,0,0,1,0,0,0,circle,triangle,,,,,,,,,,,,,,,,,,,,,,,,,,,,,,,,,,,,,,,,,,,,,,,,,,,,,,
294064,2022-11-30_12h46.58.773,vts_reward_expectancy_bt,2022.2.4,Win32,59.10165485,Chrome,1536,864,,,a,1.2838,1,21,0,0,2,2,0,1,1,0,0,0,0,1,0,0,triangle,circle,,,,,,,,,,,,,,,,,,,,,,,,,,,,,,,,,,,,,,,,,,,,,,,,,,,,,,
294064,2022-11-30_12h46.58.773,vts_reward_expectancy_bt,2022.2.4,Win32,59.10165485,Chrome,1536,864,,,a,0.7606,10,31,0,0,3,3,7,1,0,0,1,0,0,1,0,0,hexagon,circle,,,,,,,,,,,,,,,,,,,,,,,,,,,,,,,,,,,,,,,,,,,,,,,,,,,,,,
294064,2022-11-30_12h46.58.773,vts_reward_expectancy_bt,2022.2.4,Win32,59.10165485,Chrome,1536,864,,,l,0.8001,10,41,0,0,4,4,9,1,0,0,0,1,1,0,0,0,star,triangle,,,,,,,,,,,,,,,,,,,,,,,,,,,,,,,,,,,,,,,,,,,,,,,,,,,,,,
294064,2022-11-30_12h46.58.773,vts_reward_expectancy_bt,2022.2.4,Win32,59.10165485,Chrome,1536,864,,,l,0.8013,10,51,0,0,5,5,11,1,0,0,0,1,0,0,1,0,star,hexagon,,,,,,,,,,,,,,,,,,,,,,,,,,,,,,,,,,,,,,,,,,,,,,,,,,,,,,
294064,2022-11-30_12h46.58.773,vts_reward_expectancy_bt,2022.2.4,Win32,59.10165485,Chrome,1536,864,,,a,0.8837,1,52,0,0,6,6,4,1,0,1,0,0,0,0,1,0,circle,hexagon,,,,,,,,,,,,,,,,,,,,,,,,,,,,,,,,,,,,,,,,,,,,,,,,,,,,,,
294064,2022-11-30_12h46.58.773,vts_reward_expectancy_bt,2022.2.4,Win32,59.10165485,Chrome,1536,864,,,a,0.8613,10,62,0,0,7,7,5,1,0,1,0,0,0,0,0,1,circle,star,,,,,,,,,,,,,,,,,,,,,,,,,,,,,,,,,,,,,,,,,,,,,,,,,,,,,,
294064,2022-11-30_12h46.58.773,vts_reward_expectancy_bt,2022.2.4,Win32,59.10165485,Chrome,1536,864,,,l,0.767,1,63,0,0,8,8,1,1,1,0,0,0,0,0,1,0,triangle,hexagon,,,,,,,,,,,,,,,,,,,,,,,,,,,,,,,,,,,,,,,,,,,,,,,,,,,,,,
294064,2022-11-30_12h46.58.773,vts_reward_expectancy_bt,2022.2.4,Win32,59.10165485,Chrome,1536,864,,,l,1.1276,1,64,0,0,9,9,10,1,0,0,0,1,0,1,0,0,star ,circle,,,,,,,,,,,,,,,,,,,,,,,,,,,,,,,,,,,,,,,,,,,,,,,,,,,,,,
294064,2022-11-30_12h46.58.773,vts_reward_expectancy_bt,2022.2.4,Win32,59.10165485,Chrome,1536,864,,,l,0.5831,1,65,0,0,10,10,8,1,0,0,1,0,0,0,0,1,hexagon,star,,,,,,,,,,,,,,,,,,,,,,,,,,,,,,,,,,,,,,,,,,,,,,,,,,,,,,
294064,2022-11-30_12h46.58.773,vts_reward_expectancy_bt,2022.2.4,Win32,59.10165485,Chrome,1536,864,,,a,0.7824,10,75,0,0,11,11,2,1,1,0,0,0,0,0,0,1,triangle,star,,,,,,,,,,,,,,,,,,,,,,,,,,,,,,,,,,,,,,,,,,,,,,,,,,,,,,
294064,2022-11-30_12h46.58.773,vts_reward_expectancy_bt,2022.2.4,Win32,59.10165485,Chrome,1536,864,,,a,0.7599,1,76,0,1,0,12,3,1,0,1,0,0,1,0,0,0,circle,triangle,,,,,,,,,,,,,,,,,,,,,,,,,,,,,,,,,,,,,,,,,,,,,,,,,,,,,,
294064,2022-11-30_12h46.58.773,vts_reward_expectancy_bt,2022.2.4,Win32,59.10165485,Chrome,1536,864,,,a,0.6168,10,86,0,1,1,13,2,1,1,0,0,0,0,0,0,1,triangle,star,,,,,,,,,,,,,,,,,,,,,,,,,,,,,,,,,,,,,,,,,,,,,,,,,,,,,,
294064,2022-11-30_12h46.58.773,vts_reward_expectancy_bt,2022.2.4,Win32,59.10165485,Chrome,1536,864,,,a,1.3497,10,96,0,1,2,14,4,1,0,1,0,0,0,0,1,0,circle,hexagon,,,,,,,,,,,,,,,,,,,,,,,,,,,,,,,,,,,,,,,,,,,,,,,,,,,,,,
294064,2022-11-30_12h46.58.773,vts_reward_expectancy_bt,2022.2.4,Win32,59.10165485,Chrome,1536,864,,,a,0.7106,1,97,0,1,3,15,5,1,0,1,0,0,0,0,0,1,circle,star,,,,,,,,,,,,,,,,,,,,,,,,,,,,,,,,,,,,,,,,,,,,,,,,,,,,,,
294064,2022-11-30_12h46.58.773,vts_reward_expectancy_bt,2022.2.4,Win32,59.10165485,Chrome,1536,864,,,l,0.8119,1,98,0,1,4,16,6,1,0,0,1,0,1,0,0,0,hexagon,triangle,,,,,,,,,,,,,,,,,,,,,,,,,,,,,,,,,,,,,,,,,,,,,,,,,,,,,,
294064,2022-11-30_12h46.58.773,vts_reward_expectancy_bt,2022.2.4,Win32,59.10165485,Chrome,1536,864,,,a,0.7173,1,99,0,1,5,17,9,1,0,0,0,1,1,0,0,0,star,triangle,,,,,,,,,,,,,,,,,,,,,,,,,,,,,,,,,,,,,,,,,,,,,,,,,,,,,,
294064,2022-11-30_12h46.58.773,vts_reward_expectancy_bt,2022.2.4,Win32,59.10165485,Chrome,1536,864,,,l,0.0493,10,109,0,1,6,18,8,1,0,0,1,0,0,0,0,1,hexagon,star,,,,,,,,,,,,,,,,,,,,,,,,,,,,,,,,,,,,,,,,,,,,,,,,,,,,,,
294064,2022-11-30_12h46.58.773,vts_reward_expectancy_bt,2022.2.4,Win32,59.10165485,Chrome,1536,864,,,l,0.6835,10,119,0,1,7,19,10,1,0,0,0,1,0,1,0,0,star ,circle,,,,,,,,,,,,,,,,,,,,,,,,,,,,,,,,,,,,,,,,,,,,,,,,,,,,,,
294064,2022-11-30_12h46.58.773,vts_reward_expectancy_bt,2022.2.4,Win32,59.10165485,Chrome,1536,864,,,a,0.7278,1,120,0,1,8,20,1,1,1,0,0,0,0,0,1,0,triangle,hexagon,,,,,,,,,,,,,,,,,,,,,,,,,,,,,,,,,,,,,,,,,,,,,,,,,,,,,,
294064,2022-11-30_12h46.58.773,vts_reward_expectancy_bt,2022.2.4,Win32,59.10165485,Chrome,1536,864,,,a,0.7219,1,121,0,1,9,21,0,1,1,0,0,0,0,1,0,0,triangle,circle,,,,,,,,,,,,,,,,,,,,,,,,,,,,,,,,,,,,,,,,,,,,,,,,,,,,,,
294064,2022-11-30_12h46.58.773,vts_reward_expectancy_bt,2022.2.4,Win32,59.10165485,Chrome,1536,864,,,a,0.7167,10,131,0,1,10,22,11,1,0,0,0,1,0,0,1,0,star,hexagon,,,,,,,,,,,,,,,,,,,,,,,,,,,,,,,,,,,,,,,,,,,,,,,,,,,,,,
294064,2022-11-30_12h46.58.773,vts_reward_expectancy_bt,2022.2.4,Win32,59.10165485,Chrome,1536,864,,,a,0.968,10,141,0,1,11,23,7,1,0,0,1,0,0,1,0,0,hexagon,circle,,,,,,,,,,,,,,,,,,,,,,,,,,,,,,,,,,,,,,,,,,,,,,,,,,,,,,
294064,2022-11-30_12h46.58.773,vts_reward_expectancy_bt,2022.2.4,Win32,59.10165485,Chrome,1536,864,,,a,0.7333,10,151,0,2,0,24,10,1,0,0,0,1,0,1,0,0,star ,circle,,,,,,,,,,,,,,,,,,,,,,,,,,,,,,,,,,,,,,,,,,,,,,,,,,,,,,
294064,2022-11-30_12h46.58.773,vts_reward_expectancy_bt,2022.2.4,Win32,59.10165485,Chrome,1536,864,,,a,0.8271,1,152,0,2,1,25,0,1,1,0,0,0,0,1,0,0,triangle,circle,,,,,,,,,,,,,,,,,,,,,,,,,,,,,,,,,,,,,,,,,,,,,,,,,,,,,,
294064,2022-11-30_12h46.58.773,vts_reward_expectancy_bt,2022.2.4,Win32,59.10165485,Chrome,1536,864,,,l,0.8736,10,162,0,2,2,26,8,1,0,0,1,0,0,0,0,1,hexagon,star,,,,,,,,,,,,,,,,,,,,,,,,,,,,,,,,,,,,,,,,,,,,,,,,,,,,,,
294064,2022-11-30_12h46.58.773,vts_reward_expectancy_bt,2022.2.4,Win32,59.10165485,Chrome,1536,864,,,l,0.4703,10,172,0,2,3,27,5,1,0,1,0,0,0,0,0,1,circle,star,,,,,,,,,,,,,,,,,,,,,,,,,,,,,,,,,,,,,,,,,,,,,,,,,,,,,,
294064,2022-11-30_12h46.58.773,vts_reward_expectancy_bt,2022.2.4,Win32,59.10165485,Chrome,1536,864,,,a,0.6319,10,182,0,2,4,28,1,1,1,0,0,0,0,0,1,0,triangle,hexagon,,,,,,,,,,,,,,,,,,,,,,,,,,,,,,,,,,,,,,,,,,,,,,,,,,,,,,
294064,2022-11-30_12h46.58.773,vts_reward_expectancy_bt,2022.2.4,Win32,59.10165485,Chrome,1536,864,,,l,1.1185,10,192,0,2,5,29,4,1,0,1,0,0,0,0,1,0,circle,hexagon,,,,,,,,,,,,,,,,,,,,,,,,,,,,,,,,,,,,,,,,,,,,,,,,,,,,,,
294064,2022-11-30_12h46.58.773,vts_reward_expectancy_bt,2022.2.4,Win32,59.10165485,Chrome,1536,864,,,l,0.5106,1,193,0,2,6,30,11,1,0,0,0,1,0,0,1,0,star,hexagon,,,,,,,,,,,,,,,,,,,,,,,,,,,,,,,,,,,,,,,,,,,,,,,,,,,,,,
294064,2022-11-30_12h46.58.773,vts_reward_expectancy_bt,2022.2.4,Win32,59.10165485,Chrome,1536,864,,,a,0.0366,1,194,0,2,7,31,3,1,0,1,0,0,1,0,0,0,circle,triangle,,,,,,,,,,,,,,,,,,,,,,,,,,,,,,,,,,,,,,,,,,,,,,,,,,,,,,
294064,2022-11-30_12h46.58.773,vts_reward_expectancy_bt,2022.2.4,Win32,59.10165485,Chrome,1536,864,,,a,0.4535,10,204,0,2,8,32,9,1,0,0,0,1,1,0,0,0,star,triangle,,,,,,,,,,,,,,,,,,,,,,,,,,,,,,,,,,,,,,,,,,,,,,,,,,,,,,
294064,2022-11-30_12h46.58.773,vts_reward_expectancy_bt,2022.2.4,Win32,59.10165485,Chrome,1536,864,,,l,0.7173,10,214,0,2,9,33,2,1,1,0,0,0,0,0,0,1,triangle,star,,,,,,,,,,,,,,,,,,,,,,,,,,,,,,,,,,,,,,,,,,,,,,,,,,,,,,
294064,2022-11-30_12h46.58.773,vts_reward_expectancy_bt,2022.2.4,Win32,59.10165485,Chrome,1536,864,,,a,0.6236,1,215,0,2,10,34,7,1,0,0,1,0,0,1,0,0,hexagon,circle,,,,,,,,,,,,,,,,,,,,,,,,,,,,,,,,,,,,,,,,,,,,,,,,,,,,,,
294064,2022-11-30_12h46.58.773,vts_reward_expectancy_bt,2022.2.4,Win32,59.10165485,Chrome,1536,864,,,l,1.5117,1,216,0,2,11,35,6,1,0,0,1,0,1,0,0,0,hexagon,triangle,,,,,,,,,,,,,,,,,,,,,,,,,,,,,,,,,,,,,,,,,,,,,,,,,,,,,,
294064,2022-11-30_12h46.58.773,vts_reward_expectancy_bt,2022.2.4,Win32,59.10165485,Chrome,1536,864,,,l,0.6521,10,226,1,0,0,0,5,1,0,1,0,0,0,0,0,1,circle,star,,,,,,,,,,,,,,,,,,,,,,,,,,,,,,,,,,,,,,,,,,,,,,,,,,,,,,
294064,2022-11-30_12h46.58.773,vts_reward_expectancy_bt,2022.2.4,Win32,59.10165485,Chrome,1536,864,,,l,0.5398,10,236,1,0,1,1,8,1,0,0,1,0,0,0,0,1,hexagon,star,,,,,,,,,,,,,,,,,,,,,,,,,,,,,,,,,,,,,,,,,,,,,,,,,,,,,,
294064,2022-11-30_12h46.58.773,vts_reward_expectancy_bt,2022.2.4,Win32,59.10165485,Chrome,1536,864,,,a,0.4679,1,237,1,0,2,2,6,1,0,0,1,0,1,0,0,0,hexagon,triangle,,,,,,,,,,,,,,,,,,,,,,,,,,,,,,,,,,,,,,,,,,,,,,,,,,,,,,
294064,2022-11-30_12h46.58.773,vts_reward_expectancy_bt,2022.2.4,Win32,59.10165485,Chrome,1536,864,,,a,0.5369,1,238,1,0,3,3,7,1,0,0,1,0,0,1,0,0,hexagon,circle,,,,,,,,,,,,,,,,,,,,,,,,,,,,,,,,,,,,,,,,,,,,,,,,,,,,,,
294064,2022-11-30_12h46.58.773,vts_reward_expectancy_bt,2022.2.4,Win32,59.10165485,Chrome,1536,864,,,l,0.6158,1,239,1,0,4,4,3,1,0,1,0,0,1,0,0,0,circle,triangle,,,,,,,,,,,,,,,,,,,,,,,,,,,,,,,,,,,,,,,,,,,,,,,,,,,,,,
294064,2022-11-30_12h46.58.773,vts_reward_expectancy_bt,2022.2.4,Win32,59.10165485,Chrome,1536,864,,,a,0.6335,1,240,1,0,5,5,4,1,0,1,0,0,0,0,1,0,circle,hexagon,,,,,,,,,,,,,,,,,,,,,,,,,,,,,,,,,,,,,,,,,,,,,,,,,,,,,,
294064,2022-11-30_12h46.58.773,vts_reward_expectancy_bt,2022.2.4,Win32,59.10165485,Chrome,1536,864,,,l,0.7632,1,241,1,0,6,6,1,1,1,0,0,0,0,0,1,0,triangle,hexagon,,,,,,,,,,,,,,,,,,,,,,,,,,,,,,,,,,,,,,,,,,,,,,,,,,,,,,
294064,2022-11-30_12h46.58.773,vts_reward_expectancy_bt,2022.2.4,Win32,59.10165485,Chrome,1536,864,,,a,0.568,10,251,1,0,7,7,11,1,0,0,0,1,0,0,1,0,star,hexagon,,,,,,,,,,,,,,,,,,,,,,,,,,,,,,,,,,,,,,,,,,,,,,,,,,,,,,
294064,2022-11-30_12h46.58.773,vts_reward_expectancy_bt,2022.2.4,Win32,59.10165485,Chrome,1536,864,,,a,0.7838,10,261,1,0,8,8,0,1,1,0,0,0,0,1,0,0,triangle,circle,,,,,,,,,,,,,,,,,,,,,,,,,,,,,,,,,,,,,,,,,,,,,,,,,,,,,,
294064,2022-11-30_12h46.58.773,vts_reward_expectancy_bt,2022.2.4,Win32,59.10165485,Chrome,1536,864,,,a,0.3621,10,271,1,0,9,9,10,1,0,0,0,1,0,1,0,0,star ,circle,,,,,,,,,,,,,,,,,,,,,,,,,,,,,,,,,,,,,,,,,,,,,,,,,,,,,,
294064,2022-11-30_12h46.58.773,vts_reward_expectancy_bt,2022.2.4,Win32,59.10165485,Chrome,1536,864,,,a,0.3857,1,272,1,0,10,10,9,1,0,0,0,1,1,0,0,0,star,triangle,,,,,,,,,,,,,,,,,,,,,,,,,,,,,,,,,,,,,,,,,,,,,,,,,,,,,,
294064,2022-11-30_12h46.58.773,vts_reward_expectancy_bt,2022.2.4,Win32,59.10165485,Chrome,1536,864,,,l,1.4164,10,282,1,0,11,11,2,1,1,0,0,0,0,0,0,1,triangle,star,,,,,,,,,,,,,,,,,,,,,,,,,,,,,,,,,,,,,,,,,,,,,,,,,,,,,,
294064,2022-11-30_12h46.58.773,vts_reward_expectancy_bt,2022.2.4,Win32,59.10165485,Chrome,1536,864,,,l,0.8981,1,283,1,1,0,12,10,1,0,0,0,1,0,1,0,0,star ,circle,,,,,,,,,,,,,,,,,,,,,,,,,,,,,,,,,,,,,,,,,,,,,,,,,,,,,,
294064,2022-11-30_12h46.58.773,vts_reward_expectancy_bt,2022.2.4,Win32,59.10165485,Chrome,1536,864,,,a,0.6739,1,284,1,1,1,13,0,1,1,0,0,0,0,1,0,0,triangle,circle,,,,,,,,,,,,,,,,,,,,,,,,,,,,,,,,,,,,,,,,,,,,,,,,,,,,,,
294064,2022-11-30_12h46.58.773,vts_reward_expectancy_bt,2022.2.4,Win32,59.10165485,Chrome,1536,864,,,a,1.0605,10,294,1,1,2,14,3,1,0,1,0,0,1,0,0,0,circle,triangle,,,,,,,,,,,,,,,,,,,,,,,,,,,,,,,,,,,,,,,,,,,,,,,,,,,,,,
294064,2022-11-30_12h46.58.773,vts_reward_expectancy_bt,2022.2.4,Win32,59.10165485,Chrome,1536,864,,,l,0.8496,10,304,1,1,3,15,5,1,0,1,0,0,0,0,0,1,circle,star,,,,,,,,,,,,,,,,,,,,,,,,,,,,,,,,,,,,,,,,,,,,,,,,,,,,,,
294064,2022-11-30_12h46.58.773,vts_reward_expectancy_bt,2022.2.4,Win32,59.10165485,Chrome,1536,864,,,l,1.1274,10,314,1,1,4,16,1,1,1,0,0,0,0,0,1,0,triangle,hexagon,,,,,,,,,,,,,,,,,,,,,,,,,,,,,,,,,,,,,,,,,,,,,,,,,,,,,,
294064,2022-11-30_12h46.58.773,vts_reward_expectancy_bt,2022.2.4,Win32,59.10165485,Chrome,1536,864,,,a,1.3056,1,315,1,1,5,17,9,1,0,0,0,1,1,0,0,0,star,triangle,,,,,,,,,,,,,,,,,,,,,,,,,,,,,,,,,,,,,,,,,,,,,,,,,,,,,,
294064,2022-11-30_12h46.58.773,vts_reward_expectancy_bt,2022.2.4,Win32,59.10165485,Chrome,1536,864,,,l,0.5281,10,325,1,1,6,18,7,1,0,0,1,0,0,1,0,0,hexagon,circle,,,,,,,,,,,,,,,,,,,,,,,,,,,,,,,,,,,,,,,,,,,,,,,,,,,,,,
294064,2022-11-30_12h46.58.773,vts_reward_expectancy_bt,2022.2.4,Win32,59.10165485,Chrome,1536,864,,,a,0.6837,1,326,1,1,7,19,4,1,0,1,0,0,0,0,1,0,circle,hexagon,,,,,,,,,,,,,,,,,,,,,,,,,,,,,,,,,,,,,,,,,,,,,,,,,,,,,,
294064,2022-11-30_12h46.58.773,vts_reward_expectancy_bt,2022.2.4,Win32,59.10165485,Chrome,1536,864,,,a,0.5418,10,336,1,1,8,20,11,1,0,0,0,1,0,0,1,0,star,hexagon,,,,,,,,,,,,,,,,,,,,,,,,,,,,,,,,,,,,,,,,,,,,,,,,,,,,,,
294064,2022-11-30_12h46.58.773,vts_reward_expectancy_bt,2022.2.4,Win32,59.10165485,Chrome,1536,864,,,l,0.401,10,346,1,1,9,21,8,1,0,0,1,0,0,0,0,1,hexagon,star,,,,,,,,,,,,,,,,,,,,,,,,,,,,,,,,,,,,,,,,,,,,,,,,,,,,,,
294064,2022-11-30_12h46.58.773,vts_reward_expectancy_bt,2022.2.4,Win32,59.10165485,Chrome,1536,864,,,l,0.0356,1,347,1,1,10,22,2,1,1,0,0,0,0,0,0,1,triangle,star,,,,,,,,,,,,,,,,,,,,,,,,,,,,,,,,,,,,,,,,,,,,,,,,,,,,,,
294064,2022-11-30_12h46.58.773,vts_reward_expectancy_bt,2022.2.4,Win32,59.10165485,Chrome,1536,864,,,a,0.2505,1,348,1,1,11,23,6,1,0,0,1,0,1,0,0,0,hexagon,triangle,,,,,,,,,,,,,,,,,,,,,,,,,,,,,,,,,,,,,,,,,,,,,,,,,,,,,,
294064,2022-11-30_12h46.58.773,vts_reward_expectancy_bt,2022.2.4,Win32,59.10165485,Chrome,1536,864,,,l,0.4336,1,349,1,2,0,24,3,1,0,1,0,0,1,0,0,0,circle,triangle,,,,,,,,,,,,,,,,,,,,,,,,,,,,,,,,,,,,,,,,,,,,,,,,,,,,,,
294064,2022-11-30_12h46.58.773,vts_reward_expectancy_bt,2022.2.4,Win32,59.10165485,Chrome,1536,864,,,a,0.7494,10,359,1,2,1,25,7,1,0,0,1,0,0,1,0,0,hexagon,circle,,,,,,,,,,,,,,,,,,,,,,,,,,,,,,,,,,,,,,,,,,,,,,,,,,,,,,
294064,2022-11-30_12h46.58.773,vts_reward_expectancy_bt,2022.2.4,Win32,59.10165485,Chrome,1536,864,,,l,0.7953,10,369,1,2,2,26,1,1,1,0,0,0,0,0,1,0,triangle,hexagon,,,,,,,,,,,,,,,,,,,,,,,,,,,,,,,,,,,,,,,,,,,,,,,,,,,,,,
294064,2022-11-30_12h46.58.773,vts_reward_expectancy_bt,2022.2.4,Win32,59.10165485,Chrome,1536,864,,,a,0.4172,1,370,1,2,3,27,11,1,0,0,0,1,0,0,1,0,star,hexagon,,,,,,,,,,,,,,,,,,,,,,,,,,,,,,,,,,,,,,,,,,,,,,,,,,,,,,
294064,2022-11-30_12h46.58.773,vts_reward_expectancy_bt,2022.2.4,Win32,59.10165485,Chrome,1536,864,,,l,0.452,1,371,1,2,4,28,9,1,0,0,0,1,1,0,0,0,star,triangle,,,,,,,,,,,,,,,,,,,,,,,,,,,,,,,,,,,,,,,,,,,,,,,,,,,,,,
294064,2022-11-30_12h46.58.773,vts_reward_expectancy_bt,2022.2.4,Win32,59.10165485,Chrome,1536,864,,,l,0.4646,10,381,1,2,5,29,2,1,1,0,0,0,0,0,0,1,triangle,star,,,,,,,,,,,,,,,,,,,,,,,,,,,,,,,,,,,,,,,,,,,,,,,,,,,,,,
294064,2022-11-30_12h46.58.773,vts_reward_expectancy_bt,2022.2.4,Win32,59.10165485,Chrome,1536,864,,,a,0.5824,10,391,1,2,6,30,10,1,0,0,0,1,0,1,0,0,star ,circle,,,,,,,,,,,,,,,,,,,,,,,,,,,,,,,,,,,,,,,,,,,,,,,,,,,,,,
294064,2022-11-30_12h46.58.773,vts_reward_expectancy_bt,2022.2.4,Win32,59.10165485,Chrome,1536,864,,,l,0.3876,10,401,1,2,7,31,8,1,0,0,1,0,0,0,0,1,hexagon,star,,,,,,,,,,,,,,,,,,,,,,,,,,,,,,,,,,,,,,,,,,,,,,,,,,,,,,
294064,2022-11-30_12h46.58.773,vts_reward_expectancy_bt,2022.2.4,Win32,59.10165485,Chrome,1536,864,,,l,0.4169,10,411,1,2,8,32,5,1,0,1,0,0,0,0,0,1,circle,star,,,,,,,,,,,,,,,,,,,,,,,,,,,,,,,,,,,,,,,,,,,,,,,,,,,,,,
294064,2022-11-30_12h46.58.773,vts_reward_expectancy_bt,2022.2.4,Win32,59.10165485,Chrome,1536,864,,,a,0.8338,10,421,1,2,9,33,6,1,0,0,1,0,1,0,0,0,hexagon,triangle,,,,,,,,,,,,,,,,,,,,,,,,,,,,,,,,,,,,,,,,,,,,,,,,,,,,,,
294064,2022-11-30_12h46.58.773,vts_reward_expectancy_bt,2022.2.4,Win32,59.10165485,Chrome,1536,864,,,l,0.598,1,422,1,2,10,34,4,1,0,1,0,0,0,0,1,0,circle,hexagon,,,,,,,,,,,,,,,,,,,,,,,,,,,,,,,,,,,,,,,,,,,,,,,,,,,,,,
294064,2022-11-30_12h46.58.773,vts_reward_expectancy_bt,2022.2.4,Win32,59.10165485,Chrome,1536,864,,,a,0.9683,1,423,1,2,11,35,0,1,1,0,0,0,0,1,0,0,triangle,circle,,,,,,,,,,,,,,,,,,,,,,,,,,,,,,,,,,,,,,,,,,,,,,,,,,,,,,
294064,2022-11-30_12h46.58.773,vts_reward_expectancy_bt,2022.2.4,Win32,59.10165485,Chrome,1536,864,,,l,0.6537,1,424,2,0,0,0,0,1,1,0,0,0,0,1,0,0,triangle,circle,,,,,,,,,,,,,,,,,,,,,,,,,,,,,,,,,,,,,,,,,,,,,,,,,,,,,,
294064,2022-11-30_12h46.58.773,vts_reward_expectancy_bt,2022.2.4,Win32,59.10165485,Chrome,1536,864,,,a,0.609,1,425,2,0,1,1,6,1,0,0,1,0,1,0,0,0,hexagon,triangle,,,,,,,,,,,,,,,,,,,,,,,,,,,,,,,,,,,,,,,,,,,,,,,,,,,,,,
294064,2022-11-30_12h46.58.773,vts_reward_expectancy_bt,2022.2.4,Win32,59.10165485,Chrome,1536,864,,,l,0.6178,10,435,2,0,2,2,5,1,0,1,0,0,0,0,0,1,circle,star,,,,,,,,,,,,,,,,,,,,,,,,,,,,,,,,,,,,,,,,,,,,,,,,,,,,,,
294064,2022-11-30_12h46.58.773,vts_reward_expectancy_bt,2022.2.4,Win32,59.10165485,Chrome,1536,864,,,l,0.3942,1,436,2,0,3,3,2,1,1,0,0,0,0,0,0,1,triangle,star,,,,,,,,,,,,,,,,,,,,,,,,,,,,,,,,,,,,,,,,,,,,,,,,,,,,,,
294064,2022-11-30_12h46.58.773,vts_reward_expectancy_bt,2022.2.4,Win32,59.10165485,Chrome,1536,864,,,l,0.7512,10,446,2,0,4,4,1,1,1,0,0,0,0,0,1,0,triangle,hexagon,,,,,,,,,,,,,,,,,,,,,,,,,,,,,,,,,,,,,,,,,,,,,,,,,,,,,,
294064,2022-11-30_12h46.58.773,vts_reward_expectancy_bt,2022.2.4,Win32,59.10165485,Chrome,1536,864,,,a,0.3494,1,447,2,0,5,5,3,1,0,1,0,0,1,0,0,0,circle,triangle,,,,,,,,,,,,,,,,,,,,,,,,,,,,,,,,,,,,,,,,,,,,,,,,,,,,,,
294064,2022-11-30_12h46.58.773,vts_reward_expectancy_bt,2022.2.4,Win32,59.10165485,Chrome,1536,864,,,a,0.6996,1,448,2,0,6,6,10,1,0,0,0,1,0,1,0,0,star ,circle,,,,,,,,,,,,,,,,,,,,,,,,,,,,,,,,,,,,,,,,,,,,,,,,,,,,,,
294064,2022-11-30_12h46.58.773,vts_reward_expectancy_bt,2022.2.4,Win32,59.10165485,Chrome,1536,864,,,l,0.6178,1,449,2,0,7,7,8,1,0,0,1,0,0,0,0,1,hexagon,star,,,,,,,,,,,,,,,,,,,,,,,,,,,,,,,,,,,,,,,,,,,,,,,,,,,,,,
294064,2022-11-30_12h46.58.773,vts_reward_expectancy_bt,2022.2.4,Win32,59.10165485,Chrome,1536,864,,,l,0.8159,1,450,2,0,8,8,4,1,0,1,0,0,0,0,1,0,circle,hexagon,,,,,,,,,,,,,,,,,,,,,,,,,,,,,,,,,,,,,,,,,,,,,,,,,,,,,,
294064,2022-11-30_12h46.58.773,vts_reward_expectancy_bt,2022.2.4,Win32,59.10165485,Chrome,1536,864,,,a,0.8172,10,460,2,0,9,9,7,1,0,0,1,0,0,1,0,0,hexagon,circle,,,,,,,,,,,,,,,,,,,,,,,,,,,,,,,,,,,,,,,,,,,,,,,,,,,,,,
294064,2022-11-30_12h46.58.773,vts_reward_expectancy_bt,2022.2.4,Win32,59.10165485,Chrome,1536,864,,,a,1.234,10,470,2,0,10,10,11,1,0,0,0,1,0,0,1,0,star,hexagon,,,,,,,,,,,,,,,,,,,,,,,,,,,,,,,,,,,,,,,,,,,,,,,,,,,,,,
294064,2022-11-30_12h46.58.773,vts_reward_expectancy_bt,2022.2.4,Win32,59.10165485,Chrome,1536,864,,,a,0.667,1,471,2,0,11,11,9,1,0,0,0,1,1,0,0,0,star,triangle,,,,,,,,,,,,,,,,,,,,,,,,,,,,,,,,,,,,,,,,,,,,,,,,,,,,,,
294064,2022-11-30_12h46.58.773,vts_reward_expectancy_bt,2022.2.4,Win32,59.10165485,Chrome,1536,864,,,l,1.6477,1,472,2,1,0,12,6,1,0,0,1,0,1,0,0,0,hexagon,triangle,,,,,,,,,,,,,,,,,,,,,,,,,,,,,,,,,,,,,,,,,,,,,,,,,,,,,,
294064,2022-11-30_12h46.58.773,vts_reward_expectancy_bt,2022.2.4,Win32,59.10165485,Chrome,1536,864,,,a,0.45,1,473,2,1,1,13,7,1,0,0,1,0,0,1,0,0,hexagon,circle,,,,,,,,,,,,,,,,,,,,,,,,,,,,,,,,,,,,,,,,,,,,,,,,,,,,,,
294064,2022-11-30_12h46.58.773,vts_reward_expectancy_bt,2022.2.4,Win32,59.10165485,Chrome,1536,864,,,a,0.1804,10,483,2,1,2,14,4,1,0,1,0,0,0,0,1,0,circle,hexagon,,,,,,,,,,,,,,,,,,,,,,,,,,,,,,,,,,,,,,,,,,,,,,,,,,,,,,
294064,2022-11-30_12h46.58.773,vts_reward_expectancy_bt,2022.2.4,Win32,59.10165485,Chrome,1536,864,,,l,0.5002,10,493,2,1,3,15,5,1,0,1,0,0,0,0,0,1,circle,star,,,,,,,,,,,,,,,,,,,,,,,,,,,,,,,,,,,,,,,,,,,,,,,,,,,,,,
294064,2022-11-30_12h46.58.773,vts_reward_expectancy_bt,2022.2.4,Win32,59.10165485,Chrome,1536,864,,,l,0.5171,10,503,2,1,4,16,8,1,0,0,1,0,0,0,0,1,hexagon,star,,,,,,,,,,,,,,,,,,,,,,,,,,,,,,,,,,,,,,,,,,,,,,,,,,,,,,
294064,2022-11-30_12h46.58.773,vts_reward_expectancy_bt,2022.2.4,Win32,59.10165485,Chrome,1536,864,,,a,0.6337,1,504,2,1,5,17,1,1,1,0,0,0,0,0,1,0,triangle,hexagon,,,,,,,,,,,,,,,,,,,,,,,,,,,,,,,,,,,,,,,,,,,,,,,,,,,,,,
294064,2022-11-30_12h46.58.773,vts_reward_expectancy_bt,2022.2.4,Win32,59.10165485,Chrome,1536,864,,,l,0.7001,1,505,2,1,6,18,3,1,0,1,0,0,1,0,0,0,circle,triangle,,,,,,,,,,,,,,,,,,,,,,,,,,,,,,,,,,,,,,,,,,,,,,,,,,,,,,
294064,2022-11-30_12h46.58.773,vts_reward_expectancy_bt,2022.2.4,Win32,59.10165485,Chrome,1536,864,,,a,0.3507,1,506,2,1,7,19,9,1,0,0,0,1,1,0,0,0,star,triangle,,,,,,,,,,,,,,,,,,,,,,,,,,,,,,,,,,,,,,,,,,,,,,,,,,,,,,
294064,2022-11-30_12h46.58.773,vts_reward_expectancy_bt,2022.2.4,Win32,59.10165485,Chrome,1536,864,,,l,0.3833,10,516,2,1,8,20,10,1,0,0,0,1,0,1,0,0,star ,circle,,,,,,,,,,,,,,,,,,,,,,,,,,,,,,,,,,,,,,,,,,,,,,,,,,,,,,
294064,2022-11-30_12h46.58.773,vts_reward_expectancy_bt,2022.2.4,Win32,59.10165485,Chrome,1536,864,,,a,0.2007,1,517,2,1,9,21,0,1,1,0,0,0,0,1,0,0,triangle,circle,,,,,,,,,,,,,,,,,,,,,,,,,,,,,,,,,,,,,,,,,,,,,,,,,,,,,,
294064,2022-11-30_12h46.58.773,vts_reward_expectancy_bt,2022.2.4,Win32,59.10165485,Chrome,1536,864,,,l,0.3844,10,527,2,1,10,22,2,1,1,0,0,0,0,0,0,1,triangle,star,,,,,,,,,,,,,,,,,,,,,,,,,,,,,,,,,,,,,,,,,,,,,,,,,,,,,,
294064,2022-11-30_12h46.58.773,vts_reward_expectancy_bt,2022.2.4,Win32,59.10165485,Chrome,1536,864,,,a,0.6325,10,537,2,1,11,23,11,1,0,0,0,1,0,0,1,0,star,hexagon,,,,,,,,,,,,,,,,,,,,,,,,,,,,,,,,,,,,,,,,,,,,,,,,,,,,,,
294064,2022-11-30_12h46.58.773,vts_reward_expectancy_bt,2022.2.4,Win32,59.10165485,Chrome,1536,864,,,l,0.3,10,547,2,2,0,24,3,1,0,1,0,0,1,0,0,0,circle,triangle,,,,,,,,,,,,,,,,,,,,,,,,,,,,,,,,,,,,,,,,,,,,,,,,,,,,,,
294064,2022-11-30_12h46.58.773,vts_reward_expectancy_bt,2022.2.4,Win32,59.10165485,Chrome,1536,864,,,l,0.1009,10,557,2,2,1,25,2,1,1,0,0,0,0,0,0,1,triangle,star,,,,,,,,,,,,,,,,,,,,,,,,,,,,,,,,,,,,,,,,,,,,,,,,,,,,,,
294064,2022-11-30_12h46.58.773,vts_reward_expectancy_bt,2022.2.4,Win32,59.10165485,Chrome,1536,864,,,a,0.3001,10,567,2,2,2,26,4,1,0,1,0,0,0,0,1,0,circle,hexagon,,,,,,,,,,,,,,,,,,,,,,,,,,,,,,,,,,,,,,,,,,,,,,,,,,,,,,
294064,2022-11-30_12h46.58.773,vts_reward_expectancy_bt,2022.2.4,Win32,59.10165485,Chrome,1536,864,,,a,0.3003,10,577,2,2,3,27,10,1,0,0,0,1,0,1,0,0,star ,circle,,,,,,,,,,,,,,,,,,,,,,,,,,,,,,,,,,,,,,,,,,,,,,,,,,,,,,
294064,2022-11-30_12h46.58.773,vts_reward_expectancy_bt,2022.2.4,Win32,59.10165485,Chrome,1536,864,,,l,0.2332,10,587,2,2,4,28,8,1,0,0,1,0,0,0,0,1,hexagon,star,,,,,,,,,,,,,,,,,,,,,,,,,,,,,,,,,,,,,,,,,,,,,,,,,,,,,,
294064,2022-11-30_12h46.58.773,vts_reward_expectancy_bt,2022.2.4,Win32,59.10165485,Chrome,1536,864,,,a,0.3008,10,597,2,2,5,29,5,1,0,1,0,0,0,0,0,1,circle,star,,,,,,,,,,,,,,,,,,,,,,,,,,,,,,,,,,,,,,,,,,,,,,,,,,,,,,
294064,2022-11-30_12h46.58.773,vts_reward_expectancy_bt,2022.2.4,Win32,59.10165485,Chrome,1536,864,,,l,0.2345,1,598,2,2,6,30,7,1,0,0,1,0,0,1,0,0,hexagon,circle,,,,,,,,,,,,,,,,,,,,,,,,,,,,,,,,,,,,,,,,,,,,,,,,,,,,,,
294064,2022-11-30_12h46.58.773,vts_reward_expectancy_bt,2022.2.4,Win32,59.10165485,Chrome,1536,864,,,a,0.4679,1,599,2,2,7,31,9,1,0,0,0,1,1,0,0,0,star,triangle,,,,,,,,,,,,,,,,,,,,,,,,,,,,,,,,,,,,,,,,,,,,,,,,,,,,,,
294064,2022-11-30_12h46.58.773,vts_reward_expectancy_bt,2022.2.4,Win32,59.10165485,Chrome,1536,864,,,a,0.9999,10,609,2,2,8,32,0,1,1,0,0,0,0,1,0,0,triangle,circle,,,,,,,,,,,,,,,,,,,,,,,,,,,,,,,,,,,,,,,,,,,,,,,,,,,,,,
294064,2022-11-30_12h46.58.773,vts_reward_expectancy_bt,2022.2.4,Win32,59.10165485,Chrome,1536,864,,,l,0.6509,10,619,2,2,9,33,1,1,1,0,0,0,0,0,1,0,triangle,hexagon,,,,,,,,,,,,,,,,,,,,,,,,,,,,,,,,,,,,,,,,,,,,,,,,,,,,,,
294064,2022-11-30_12h46.58.773,vts_reward_expectancy_bt,2022.2.4,Win32,59.10165485,Chrome,1536,864,,,a,1.4835,1,620,2,2,10,34,6,1,0,0,1,0,1,0,0,0,hexagon,triangle,,,,,,,,,,,,,,,,,,,,,,,,,,,,,,,,,,,,,,,,,,,,,,,,,,,,,,
294064,2022-11-30_12h46.58.773,vts_reward_expectancy_bt,2022.2.4,Win32,59.10165485,Chrome,1536,864,,,a,0.6504,10,630,2,2,11,35,11,1,0,0,0,1,0,0,1,0,star,hexagon,,,,,,,,,,,,,,,,,,,,,,,,,,,,,,,,,,,,,,,,,,,,,,,,,,,,,,
294064,2022-11-30_12h46.58.773,vts_reward_expectancy_bt,2022.2.4,Win32,59.10165485,Chrome,1536,864,,,,,,,,,,,,,,,,,,,,,,,132,Y,circle,1,0,d,1.5715,0,0,0,0,0,1,,,,,,,,,,,,,,,,,,,,,,,,,,,,,,,,,,,,,,,,,
294064,2022-11-30_12h46.58.773,vts_reward_expectancy_bt,2022.2.4,Win32,59.10165485,Chrome,1536,864,,,,,,,,,,,,,,,,,,,,,,,139,D,triangle,1,0,d,1.7004,0,1,0,1,0,1,,,,,,,,,,,,,,,,,,,,,,,,,,,,,,,,,,,,,,,,,
294064,2022-11-30_12h46.58.773,vts_reward_expectancy_bt,2022.2.4,Win32,59.10165485,Chrome,1536,864,,,,,,,,,,,,,,,,,,,,,,,181,W,hexagon,1,0,f,0.55,0,2,0,2,0,1,,,,,,,,,,,,,,,,,,,,,,,,,,,,,,,,,,,,,,,,,
294064,2022-11-30_12h46.58.773,vts_reward_expectancy_bt,2022.2.4,Win32,59.10165485,Chrome,1536,864,,,,,,,,,,,,,,,,,,,,,,,167,U,star,1,0,f,0.7669,0,3,0,3,0,1,,,,,,,,,,,,,,,,,,,,,,,,,,,,,,,,,,,,,,,,,
294064,2022-11-30_12h46.58.773,vts_reward_expectancy_bt,2022.2.4,Win32,59.10165485,Chrome,1536,864,,,,,,,,,,,,,,,,,,,,,,,125,F,circle,1,0,d,1.2329,0,4,0,4,0,1,,,,,,,,,,,,,,,,,,,,,,,,,,,,,,,,,,,,,,,,,
294064,2022-11-30_12h46.58.773,vts_reward_expectancy_bt,2022.2.4,Win32,59.10165485,Chrome,1536,864,,,,,,,,,,,,,,,,,,,,,,,174,B,triangle,1,0,f,1.0165,0,5,0,5,0,1,,,,,,,,,,,,,,,,,,,,,,,,,,,,,,,,,,,,,,,,,
294064,2022-11-30_12h46.58.773,vts_reward_expectancy_bt,2022.2.4,Win32,59.10165485,Chrome,1536,864,,,,,,,,,,,,,,,,,,,,,,,160,H,hexagon,0,0,d,0.3162,0,6,0,6,0,1,,,,,,,,,,,,,,,,,,,,,,,,,,,,,,,,,,,,,,,,,
294064,2022-11-30_12h46.58.773,vts_reward_expectancy_bt,2022.2.4,Win32,59.10165485,Chrome,1536,864,,,,,,,,,,,,,,,,,,,,,,,146,S,star,1,1,d,0.7829,0,7,0,7,0,1,,,,,,,,,,,,,,,,,,,,,,,,,,,,,,,,,,,,,,,,,
294064,2022-11-30_12h46.58.773,vts_reward_expectancy_bt,2022.2.4,Win32,59.10165485,Chrome,1536,864,,,,,,,,,,,,,,,,,,,,,,,132,Y,circle,1,0,d,0.5502,0,8,0,8,0,1,,,,,,,,,,,,,,,,,,,,,,,,,,,,,,,,,,,,,,,,,
294064,2022-11-30_12h46.58.773,vts_reward_expectancy_bt,2022.2.4,Win32,59.10165485,Chrome,1536,864,,,,,,,,,,,,,,,,,,,,,,,139,D,triangle,1,0,d,0.7005,0,9,0,9,0,1,,,,,,,,,,,,,,,,,,,,,,,,,,,,,,,,,,,,,,,,,
294064,2022-11-30_12h46.58.773,vts_reward_expectancy_bt,2022.2.4,Win32,59.10165485,Chrome,1536,864,,,,,,,,,,,,,,,,,,,,,,,139,S,triangle,0,0,,,1,,,,,,j,1.2978,0,0,0,0,1,,,,,,,,,,,,,,,,,,,,,,,,,,,,,,,,,,
294064,2022-11-30_12h46.58.773,vts_reward_expectancy_bt,2022.2.4,Win32,59.10165485,Chrome,1536,864,,,,,,,,,,,,,,,,,,,,,,,167,Y,star,1,1,,,1,,,,,,k,1.5482,1,0,1,0,1,,,,,,,,,,,,,,,,,,,,,,,,,,,,,,,,,,
294064,2022-11-30_12h46.58.773,vts_reward_expectancy_bt,2022.2.4,Win32,59.10165485,Chrome,1536,864,,,,,,,,,,,,,,,,,,,,,,,146,H,circle,1,0,,,1,,,,,,j,0.5311,2,0,2,0,1,,,,,,,,,,,,,,,,,,,,,,,,,,,,,,,,,,
294064,2022-11-30_12h46.58.773,vts_reward_expectancy_bt,2022.2.4,Win32,59.10165485,Chrome,1536,864,,,,,,,,,,,,,,,,,,,,,,,132,F,hexagon,1,0,,,1,,,,,,j,1.8307,3,0,3,0,1,,,,,,,,,,,,,,,,,,,,,,,,,,,,,,,,,,
294064,2022-11-30_12h46.58.773,vts_reward_expectancy_bt,2022.2.4,Win32,59.10165485,Chrome,1536,864,,,,,,,,,,,,,,,,,,,,,,,125,D,triangle,1,0,,,1,,,,,,j,0.5538,4,0,4,0,1,,,,,,,,,,,,,,,,,,,,,,,,,,,,,,,,,,
294064,2022-11-30_12h46.58.773,vts_reward_expectancy_bt,2022.2.4,Win32,59.10165485,Chrome,1536,864,,,,,,,,,,,,,,,,,,,,,,,160,W,star,1,0,,,1,,,,,,k,0.8531,5,0,5,0,1,,,,,,,,,,,,,,,,,,,,,,,,,,,,,,,,,,
294064,2022-11-30_12h46.58.773,vts_reward_expectancy_bt,2022.2.4,Win32,59.10165485,Chrome,1536,864,,,,,,,,,,,,,,,,,,,,,,,174,B,circle,1,0,,,1,,,,,,j,0.6304,6,0,6,0,1,,,,,,,,,,,,,,,,,,,,,,,,,,,,,,,,,,
294064,2022-11-30_12h46.58.773,vts_reward_expectancy_bt,2022.2.4,Win32,59.10165485,Chrome,1536,864,,,,,,,,,,,,,,,,,,,,,,,181,U,hexagon,1,0,,,1,,,,,,k,1.4975,7,0,7,0,1,,,,,,,,,,,,,,,,,,,,,,,,,,,,,,,,,,
294064,2022-11-30_12h46.58.773,vts_reward_expectancy_bt,2022.2.4,Win32,59.10165485,Chrome,1536,864,,,,,,,,,,,,,,,,,,,,,,,139,S,triangle,1,0,,,1,,,,,,k,0.7505,8,0,8,0,1,,,,,,,,,,,,,,,,,,,,,,,,,,,,,,,,,,
294064,2022-11-30_12h46.58.773,vts_reward_expectancy_bt,2022.2.4,Win32,59.10165485,Chrome,1536,864,,,,,,,,,,,,,,,,,,,,,,,167,Y,hexagon,1,0,,,1,,,,,,k,0.9662,9,0,9,0,1,,,,,,,,,,,,,,,,,,,,,,,,,,,,,,,,,,
294064,2022-11-30_12h46.58.773,vts_reward_expectancy_bt,2022.2.4,Win32,59.10165485,Chrome,1536,864,,,,,0,630,,,,,,,,,,,,,,,,,181,D,hexagon,-1,0,,,2,,,,,,,,,,,,,-1,no_choice,NA,,vtsPrac,0,0,0,0,1,,,,,,,,,,,,,,,,,,,,,,,,
294064,2022-11-30_12h46.58.773,vts_reward_expectancy_bt,2022.2.4,Win32,59.10165485,Chrome,1536,864,,,,,0,630,,,,,,,,,,,,,,,,,132,U,circle,1,0,,,2,,,,,,,,,,,,,switch,number,numSwt,d,vtsPrac,1,0,1,0,1,0.8652,,,,,,,,,,,,,,,,,,,,,,,
294064,2022-11-30_12h46.58.773,vts_reward_expectancy_bt,2022.2.4,Win32,59.10165485,Chrome,1536,864,,,,,0,630,,,,,,,,,,,,,,,,,167,S,hexagon,1,0,,,2,,,,,,,,,,,,,switch,letter,lettSwt,k,vtsPrac,2,0,2,0,1,0.767,,,,,,,,,,,,,,,,,,,,,,,
294064,2022-11-30_12h46.58.773,vts_reward_expectancy_bt,2022.2.4,Win32,59.10165485,Chrome,1536,864,,,,,0,630,,,,,,,,,,,,,,,,,146,B,circle,1,0,,,2,,,,,,,,,,,,,switch,number,numSwt,d,vtsPrac,3,0,3,0,1,2.3667,,,,,,,,,,,,,,,,,,,,,,,
294064,2022-11-30_12h46.58.773,vts_reward_expectancy_bt,2022.2.4,Win32,59.10165485,Chrome,1536,864,,,,,0,630,,,,,,,,,,,,,,,,,181,D,circle,1,0,,,2,,,,,,,,,,,,,repeat,number,numRpt,f,vtsPrac,4,0,4,0,1,0.9167,,,,,,,,,,,,,,,,,,,,,,,
294064,2022-11-30_12h46.58.773,vts_reward_expectancy_bt,2022.2.4,Win32,59.10165485,Chrome,1536,864,,,,,0,630,,,,,,,,,,,,,,,,,132,U,hexagon,1,0,,,2,,,,,,,,,,,,,switch,letter,lettSwt,k,vtsPrac,5,0,5,0,1,0.8835,,,,,,,,,,,,,,,,,,,,,,,
294064,2022-11-30_12h46.58.773,vts_reward_expectancy_bt,2022.2.4,Win32,59.10165485,Chrome,1536,864,,,,,0,630,,,,,,,,,,,,,,,,,167,S,circle,1,0,,,2,,,,,,,,,,,,,switch,number,numSwt,f,vtsPrac,6,0,6,0,1,0.9177,,,,,,,,,,,,,,,,,,,,,,,
294064,2022-11-30_12h46.58.773,vts_reward_expectancy_bt,2022.2.4,Win32,59.10165485,Chrome,1536,864,,,,,0,630,,,,,,,,,,,,,,,,,146,B,triangle,1,0,,,2,,,,,,,,,,,,,repeat,number,numRpt,d,vtsPrac,7,0,7,0,1,1.2174,,,,,,,,,,,,,,,,,,,,,,,
294064,2022-11-30_12h46.58.773,vts_reward_expectancy_bt,2022.2.4,Win32,59.10165485,Chrome,1536,864,,,,,0,630,,,,,,,,,,,,,,,,,125,D,circle,1,0,,,2,,,,,,,,,,,,,repeat,number,numRpt,d,vtsPrac,8,0,8,0,1,1.1498,,,,,,,,,,,,,,,,,,,,,,,
294064,2022-11-30_12h46.58.773,vts_reward_expectancy_bt,2022.2.4,Win32,59.10165485,Chrome,1536,864,,,,,0,630,,,,,,,,,,,,,,,,,174,H,star,0,0,,,2,,,,,,,,,,,,,switch,letter,NA,k,vtsPrac,9,0,9,0,1,0.7002,,,,,,,,,,,,,,,,,,,,,,,
294064,2022-11-30_12h46.58.773,vts_reward_expectancy_bt,2022.2.4,Win32,59.10165485,Chrome,1536,864,,,,,0,630,,,,,,,,,,,,,,,,,181,U,triangle,1,1,,,2,,,,,,,,,,,,,repeat,letter,lettRpt,k,vtsPrac,10,0,10,0,1,1.1667,,,,,,,,,,,,,,,,,,,,,,,
294064,2022-11-30_12h46.58.773,vts_reward_expectancy_bt,2022.2.4,Win32,59.10165485,Chrome,1536,864,,,,,0,630,,,,,,,,,,,,,,,,,160,S,circle,0,0,,,2,,,,,,,,,,,,,switch,number,NA,d,vtsPrac,11,0,11,0,1,1.2667,,,,,,,,,,,,,,,,,,,,,,,
294064,2022-11-30_12h46.58.773,vts_reward_expectancy_bt,2022.2.4,Win32,59.10165485,Chrome,1536,864,,,,,0,630,,,,,,,,,,,,,,,,,167,W,circle,0,1,,,2,,,,,,,,,,,,,repeat,number,NA,d,vtsPrac,12,0,12,0,1,1.1834,,,,,,,,,,,,,,,,,,,,,,,
294064,2022-11-30_12h46.58.773,vts_reward_expectancy_bt,2022.2.4,Win32,59.10165485,Chrome,1536,864,,,,,0,630,,,,,,,,,,,,,,,,,181,F,hexagon,1,1,,,2,,,,,,,,,,,,,repeat,number,numRpt,f,vtsPrac,13,0,13,0,1,0.7671,,,,,,,,,,,,,,,,,,,,,,,
294064,2022-11-30_12h46.58.773,vts_reward_expectancy_bt,2022.2.4,Win32,59.10165485,Chrome,1536,864,,,,,0,630,,,,,,,,,,,,,,,,,132,U,star,1,0,,,2,,,,,,,,,,,,,repeat,number,numRpt,d,vtsPrac,14,0,14,0,1,1.6337,,,,,,,,,,,,,,,,,,,,,,,
294064,2022-11-30_12h46.58.773,vts_reward_expectancy_bt,2022.2.4,Win32,59.10165485,Chrome,1536,864,,,,,0,630,,,,,,,,,,,,,,,,,139,S,triangle,1,0,,,2,,,,,,,,,,,,,repeat,number,numRpt,d,vtsPrac,15,0,15,0,1,1.05,,,,,,,,,,,,,,,,,,,,,,,
294064,2022-11-30_12h46.58.773,vts_reward_expectancy_bt,2022.2.4,Win32,59.10165485,Chrome,1536,864,,,,,0,630,,,,,,,,,,,,,,,,,132,S,circle,1,0,,,2,,,,,,,,,,,,,switch,letter,lettSwt,k,vtsPrac,16,0,16,0,1,0.9682,,,,,,,,,,,,,,,,,,,,,,,
294064,2022-11-30_12h46.58.773,vts_reward_expectancy_bt,2022.2.4,Win32,59.10165485,Chrome,1536,864,,,,,0,630,,,,,,,,,,,,,,,,,160,H,triangle,1,0,,,2,,,,,,,,,,,,,switch,number,numSwt,f,vtsPrac,17,0,17,0,1,1.5673,,,,,,,,,,,,,,,,,,,,,,,
294064,2022-11-30_12h46.58.773,vts_reward_expectancy_bt,2022.2.4,Win32,59.10165485,Chrome,1536,864,,,,,0,630,,,,,,,,,,,,,,,,,125,W,circle,1,0,,,2,,,,,,,,,,,,,repeat,number,numRpt,d,vtsPrac,18,0,18,0,1,2.2831,,,,,,,,,,,,,,,,,,,,,,,
294064,2022-11-30_12h46.58.773,vts_reward_expectancy_bt,2022.2.4,Win32,59.10165485,Chrome,1536,864,,,,,0,630,,,,,,,,,,,,,,,,,181,U,hexagon,1,0,,,2,,,,,,,,,,,,,repeat,number,numRpt,f,vtsPrac,19,0,19,0,1,1.7329,,,,,,,,,,,,,,,,,,,,,,,
294064,2022-11-30_12h46.58.773,vts_reward_expectancy_bt,2022.2.4,Win32,59.10165485,Chrome,1536,864,,,,,0,630,,,,,,,,,,,,,,,,,125,S,star,1,0,,,2,,,,,,,,,,,,,switch,letter,lettSwt,k,vtsPrac,20,0,20,0,1,0.5506,,,,,,,,,,,,,,,,,,,,,,,
294064,2022-11-30_12h46.58.773,vts_reward_expectancy_bt,2022.2.4,Win32,59.10165485,Chrome,1536,864,,,,,0,630,,,,,,,,,,,,,,,,,132,H,triangle,1,0,,,2,,,,,,,,,,,,,switch,number,numSwt,d,vtsPrac,21,0,21,0,1,1.1838,,,,,,,,,,,,,,,,,,,,,,,
294064,2022-11-30_12h46.58.773,vts_reward_expectancy_bt,2022.2.4,Win32,59.10165485,Chrome,1536,864,,,,,0,630,,,,,,,,,,,,,,,,,174,W,circle,1,0,,,2,,,,,,,,,,,,,repeat,number,numRpt,f,vtsPrac,22,0,22,0,1,1.0337,,,,,,,,,,,,,,,,,,,,,,,
294064,2022-11-30_12h46.58.773,vts_reward_expectancy_bt,2022.2.4,Win32,59.10165485,Chrome,1536,864,,,,,0,630,,,,,,,,,,,,,,,,,181,Y,triangle,0,0,,,2,,,,,,,,,,,,,repeat,number,NA,d,vtsPrac,23,0,23,0,1,0.6842,,,,,,,,,,,,,,,,,,,,,,,
294064,2022-11-30_12h46.58.773,vts_reward_expectancy_bt,2022.2.4,Win32,59.10165485,Chrome,1536,864,,,,,0,630,,,,,,,,,,,,,,,,,181,F,circle,1,1,,,2,,,,,,,,,,,,,repeat,number,numRpt,f,vtsPrac,24,0,24,0,1,1.0173,,,,,,,,,,,,,,,,,,,,,,,
294064,2022-11-30_12h46.58.773,vts_reward_expectancy_bt,2022.2.4,Win32,59.10165485,Chrome,1536,864,,,,,0,630,,,,,,,,,,,,,,,,,125,W,triangle,1,0,,,2,,,,,,,,,,,,,repeat,number,numRpt,d,vtsPrac,25,0,25,0,1,0.9667,,,,,,,,,,,,,,,,,,,,,,,
294064,2022-11-30_12h46.58.773,vts_reward_expectancy_bt,2022.2.4,Win32,59.10165485,Chrome,1536,864,,,,,0,630,,,,,,,,,,,,,,,,,167,H,triangle,0,0,,,2,,,,,,,,,,,,,repeat,number,NA,d,vtsPrac,26,0,26,0,1,0.8336,,,,,,,,,,,,,,,,,,,,,,,
294064,2022-11-30_12h46.58.773,vts_reward_expectancy_bt,2022.2.4,Win32,59.10165485,Chrome,1536,864,,,,,0,630,,,,,,,,,,,,,,,,,160,S,star,1,1,,,2,,,,,,,,,,,,,repeat,number,numRpt,f,vtsPrac,27,0,27,0,1,1.7884,,,,,,,,,,,,,,,,,,,,,,,
294064,2022-11-30_12h46.58.773,vts_reward_expectancy_bt,2022.2.4,Win32,59.10165485,Chrome,1536,864,,,,,0,630,,,,,,,,,,,,,,,,,160,D,triangle,1,0,,,2,,,,,,,,,,,,,switch,letter,lettSwt,j,vtsPrac,28,0,28,0,1,0.65,,,,,,,,,,,,,,,,,,,,,,,
294064,2022-11-30_12h46.58.773,vts_reward_expectancy_bt,2022.2.4,Win32,59.10165485,Chrome,1536,864,,,,,0,630,,,,,,,,,,,,,,,,,139,W,hexagon,1,0,,,2,,,,,,,,,,,,,switch,number,numSwt,d,vtsPrac,29,0,29,0,1,0.9002,,,,,,,,,,,,,,,,,,,,,,,
294064,2022-11-30_12h46.58.773,vts_reward_expectancy_bt,2022.2.4,Win32,59.10165485,Chrome,1536,864,,,,,0,630,,,,,,,,,,,,,,,,,174,B,star,1,0,,,2,,,,,,,,,,,,,switch,letter,lettSwt,j,vtsPrac,30,0,30,0,1,0.6008,,,,,,,,,,,,,,,,,,,,,,,
294064,2022-11-30_12h46.58.773,vts_reward_expectancy_bt,2022.2.4,Win32,59.10165485,Chrome,1536,864,,,,,0,630,,,,,,,,,,,,,,,,,125,S,triangle,1,0,,,2,,,,,,,,,,,,,repeat,letter,lettRpt,k,vtsPrac,31,0,31,0,1,0.8165,,,,,,,,,,,,,,,,,,,,,,,
294064,2022-11-30_12h46.58.773,vts_reward_expectancy_bt,2022.2.4,Win32,59.10165485,Chrome,1536,864,,,,,,,,,,,,,,,,,,,,,,,,,,,,,,,,,,,,,,,,,,,,,,,,,,,,,,,,,,,,,,,,,,,,,,,,,,,,
294064,2022-11-30_12h46.58.773,vts_reward_expectancy_bt,2022.2.4,Win32,59.10165485,Chrome,1536,864,,,,,,,,,,,,,,,,,,,,,,,,,,,,,,,,,,,,,,,,,,,,,,,,,,,,,,,,,,,,,,,,,,,,,,,,,,,,
294064,2022-11-30_12h46.58.773,vts_reward_expectancy_bt,2022.2.4,Win32,59.10165485,Chrome,1536,864,,,,,0,630,,,,,,,,,,,,,,,,,174,F,hexagon,1,0,,,,,,,,,,,,,,,,switch,number,numSwt,f,noRew,,,,,,0.7664,0,0,0,0,0,1,,,,,,,,,,,,,,,,,
294064,2022-11-30_12h46.58.773,vts_reward_expectancy_bt,2022.2.4,Win32,59.10165485,Chrome,1536,864,,,,,0,630,,,,,,,,,,,,,,,,,132,Y,circle,1,0,,,,,,,,,,,,,,,,switch,letter,lettSwt,k,noRew,,,,,,0.6339,0,1,0,1,0,1,,,,,,,,,,,,,,,,,
294064,2022-11-30_12h46.58.773,vts_reward_expectancy_bt,2022.2.4,Win32,59.10165485,Chrome,1536,864,,,,,0,630,,,,,,,,,,,,,,,,,160,H,hexagon,1,0,,,,,,,,,,,,,,,,switch,number,numSwt,f,noRew,,,,,,1.666,0,2,0,2,0,1,,,,,,,,,,,,,,,,,
294064,2022-11-30_12h46.58.773,vts_reward_expectancy_bt,2022.2.4,Win32,59.10165485,Chrome,1536,864,,,,,0,630,,,,,,,,,,,,,,,,,139,U,circle,1,0,,,,,,,,,,,,,,,,repeat,number,numRpt,d,noRew,,,,,,0.5501,0,3,0,3,0,1,,,,,,,,,,,,,,,,,
294064,2022-11-30_12h46.58.773,vts_reward_expectancy_bt,2022.2.4,Win32,59.10165485,Chrome,1536,864,,,,,0,630,,,,,,,,,,,,,,,,,174,F,circle,1,0,,,,,,,,,,,,,,,,switch,letter,lettSwt,j,noRew,,,,,,0.8497,0,4,0,4,0,1,,,,,,,,,,,,,,,,,
294064,2022-11-30_12h46.58.773,vts_reward_expectancy_bt,2022.2.4,Win32,59.10165485,Chrome,1536,864,,,,,0,630,,,,,,,,,,,,,,,,,132,Y,triangle,1,0,,,,,,,,,,,,,,,,switch,number,numSwt,d,noRew,,,,,,0.8333,0,5,0,5,0,1,,,,,,,,,,,,,,,,,
294064,2022-11-30_12h46.58.773,vts_reward_expectancy_bt,2022.2.4,Win32,59.10165485,Chrome,1536,864,,,,,0,630,,,,,,,,,,,,,,,,,160,H,triangle,1,0,,,,,,,,,,,,,,,,repeat,number,numRpt,f,noRew,,,,,,1.7328,0,6,0,6,0,1,,,,,,,,,,,,,,,,,
294064,2022-11-30_12h46.58.773,vts_reward_expectancy_bt,2022.2.4,Win32,59.10165485,Chrome,1536,864,,,,,0,630,,,,,,,,,,,,,,,,,139,U,hexagon,1,0,,,,,,,,,,,,,,,,repeat,number,numRpt,d,noRew,,,,,,0.8672,0,7,0,7,0,1,,,,,,,,,,,,,,,,,
294064,2022-11-30_12h46.58.773,vts_reward_expectancy_bt,2022.2.4,Win32,59.10165485,Chrome,1536,864,,,,,0,630,,,,,,,,,,,,,,,,,125,Y,circle,1,0,,,,,,,,,,,,,,,,repeat,number,numRpt,d,noRew,,,,,,0.6688,0,8,0,8,0,1,,,,,,,,,,,,,,,,,
294064,2022-11-30_12h46.58.773,vts_reward_expectancy_bt,2022.2.4,Win32,59.10165485,Chrome,1536,864,,,,,0,630,,,,,,,,,,,,,,,,,146,S,triangle,1,0,,,,,,,,,,,,,,,,repeat,number,numRpt,d,noRew,,,,,,0.6479,0,9,0,9,0,1,,,,,,,,,,,,,,,,,
294064,2022-11-30_12h46.58.773,vts_reward_expectancy_bt,2022.2.4,Win32,59.10165485,Chrome,1536,864,,,,,0,630,,,,,,,,,,,,,,,,,160,B,hexagon,1,0,,,,,,,,,,,,,,,,switch,letter,lettSwt,j,noRew,,,,,,0.5826,0,10,0,10,0,1,,,,,,,,,,,,,,,,,
294064,2022-11-30_12h46.58.773,vts_reward_expectancy_bt,2022.2.4,Win32,59.10165485,Chrome,1536,864,,,,,0,630,,,,,,,,,,,,,,,,,132,U,star,1,0,,,,,,,,,,,,,,,,switch,number,numSwt,d,noRew,,,,,,0.718,0,11,0,11,0,1,,,,,,,,,,,,,,,,,
294064,2022-11-30_12h46.58.773,vts_reward_expectancy_bt,2022.2.4,Win32,59.10165485,Chrome,1536,864,,,,,0,630,,,,,,,,,,,,,,,,,132,Y,circle,1,0,,,,,,,,,,,,,,,,repeat,number,numRpt,d,noRew,,,,,,0.5501,0,12,0,12,0,1,,,,,,,,,,,,,,,,,
294064,2022-11-30_12h46.58.773,vts_reward_expectancy_bt,2022.2.4,Win32,59.10165485,Chrome,1536,864,,,,,0,630,,,,,,,,,,,,,,,,,160,F,hexagon,1,0,,,,,,,,,,,,,,,,switch,letter,lettSwt,j,noRew,,,,,,0.733,0,13,0,13,0,1,,,,,,,,,,,,,,,,,
294064,2022-11-30_12h46.58.773,vts_reward_expectancy_bt,2022.2.4,Win32,59.10165485,Chrome,1536,864,,,,,0,630,,,,,,,,,,,,,,,,,125,W,circle,1,0,,,,,,,,,,,,,,,,switch,number,numSwt,d,noRew,,,,,,0.5514,0,14,0,14,0,1,,,,,,,,,,,,,,,,,
294064,2022-11-30_12h46.58.773,vts_reward_expectancy_bt,2022.2.4,Win32,59.10165485,Chrome,1536,864,,,,,0,630,,,,,,,,,,,,,,,,,139,D,star,1,0,,,,,,,,,,,,,,,,switch,letter,lettSwt,j,noRew,,,,,,0.6638,0,15,0,15,0,1,,,,,,,,,,,,,,,,,
294064,2022-11-30_12h46.58.773,vts_reward_expectancy_bt,2022.2.4,Win32,59.10165485,Chrome,1536,864,,,,,0,630,,,,,,,,,,,,,,,,,181,H,hexagon,1,0,,,,,,,,,,,,,,,,repeat,letter,lettRpt,j,noRew,,,,,,0.8667,0,16,0,16,0,1,,,,,,,,,,,,,,,,,
294064,2022-11-30_12h46.58.773,vts_reward_expectancy_bt,2022.2.4,Win32,59.10165485,Chrome,1536,864,,,,,0,630,,,,,,,,,,,,,,,,,167,Y,triangle,1,0,,,,,,,,,,,,,,,,repeat,letter,lettRpt,k,noRew,,,,,,0.8009,0,17,0,17,0,1,,,,,,,,,,,,,,,,,
294064,2022-11-30_12h46.58.773,vts_reward_expectancy_bt,2022.2.4,Win32,59.10165485,Chrome,1536,864,,,,,0,630,,,,,,,,,,,,,,,,,139,B,circle,0,0,,,,,,,,,,,,,,,,switch,number,NA,f,noRew,,,,,,1.333,0,18,0,18,0,1,,,,,,,,,,,,,,,,,
294064,2022-11-30_12h46.58.773,vts_reward_expectancy_bt,2022.2.4,Win32,59.10165485,Chrome,1536,864,,,,,0,630,,,,,,,,,,,,,,,,,146,F,hexagon,1,1,,,,,,,,,,,,,,,,repeat,number,numRpt,d,noRew,,,,,,1.5669,0,19,0,19,0,1,,,,,,,,,,,,,,,,,
294064,2022-11-30_12h46.58.773,vts_reward_expectancy_bt,2022.2.4,Win32,59.10165485,Chrome,1536,864,,,,,0,630,,,,,,,,,,,,,,,,,139,W,star,1,0,,,,,,,,,,,,,,,,switch,letter,lettSwt,k,noRew,,,,,,0.7836,0,20,0,20,0,1,,,,,,,,,,,,,,,,,
294064,2022-11-30_12h46.58.773,vts_reward_expectancy_bt,2022.2.4,Win32,59.10165485,Chrome,1536,864,,,,,0,630,,,,,,,,,,,,,,,,,160,S,circle,0,0,,,,,,,,,,,,,,,,switch,number,NA,d,noRew,,,,,,0.7998,0,21,0,21,0,1,,,,,,,,,,,,,,,,,
294064,2022-11-30_12h46.58.773,vts_reward_expectancy_bt,2022.2.4,Win32,59.10165485,Chrome,1536,864,,,,,0,630,,,,,,,,,,,,,,,,,132,D,circle,1,1,,,,,,,,,,,,,,,,repeat,number,numRpt,d,noRew,,,,,,0.5841,0,22,0,22,0,1,,,,,,,,,,,,,,,,,
294064,2022-11-30_12h46.58.773,vts_reward_expectancy_bt,2022.2.4,Win32,59.10165485,Chrome,1536,864,,,,,0,630,,,,,,,,,,,,,,,,,125,U,star,1,0,,,,,,,,,,,,,,,,switch,letter,lettSwt,k,noRew,,,,,,1.1002,0,23,0,23,0,1,,,,,,,,,,,,,,,,,
294064,2022-11-30_12h46.58.773,vts_reward_expectancy_bt,2022.2.4,Win32,59.10165485,Chrome,1536,864,,,,,0,630,,,,,,,,,,,,,,,,,174,B,hexagon,0,0,,,,,,,,,,,,,,,,switch,number,NA,d,noRew,,,,,,1.1003,0,24,0,24,0,1,,,,,,,,,,,,,,,,,
294064,2022-11-30_12h46.58.773,vts_reward_expectancy_bt,2022.2.4,Win32,59.10165485,Chrome,1536,864,,,,,0,630,,,,,,,,,,,,,,,,,125,F,circle,1,1,,,,,,,,,,,,,,,,repeat,number,numRpt,d,noRew,,,,,,1.7002,0,25,0,25,0,1,,,,,,,,,,,,,,,,,
294064,2022-11-30_12h46.58.773,vts_reward_expectancy_bt,2022.2.4,Win32,59.10165485,Chrome,1536,864,,,,,0,630,,,,,,,,,,,,,,,,,160,D,star,1,0,,,,,,,,,,,,,,,,switch,letter,lettSwt,j,noRew,,,,,,1.0175,0,26,0,26,0,1,,,,,,,,,,,,,,,,,
294064,2022-11-30_12h46.58.773,vts_reward_expectancy_bt,2022.2.4,Win32,59.10165485,Chrome,1536,864,,,,,0,630,,,,,,,,,,,,,,,,,167,H,triangle,0,0,,,,,,,,,,,,,,,,switch,number,NA,d,noRew,,,,,,1.766,0,27,0,27,0,1,,,,,,,,,,,,,,,,,
294064,2022-11-30_12h46.58.773,vts_reward_expectancy_bt,2022.2.4,Win32,59.10165485,Chrome,1536,864,,,,,0,630,,,,,,,,,,,,,,,,,160,H,triangle,-1,1,,,,,,,,,,,,,,,,switch,no_choice,NA,,noRew,,,,,,,0,28,0,28,0,1,,,,,,,,,,,,,,,,,
294064,2022-11-30_12h46.58.773,vts_reward_expectancy_bt,2022.2.4,Win32,59.10165485,Chrome,1536,864,,,,,0,630,,,,,,,,,,,,,,,,,167,U,circle,0,0,,,,,,,,,,,,,,,,switch,number,NA,d,noRew,,,,,,0.8506,0,29,0,29,0,1,,,,,,,,,,,,,,,,,
294064,2022-11-30_12h46.58.773,vts_reward_expectancy_bt,2022.2.4,Win32,59.10165485,Chrome,1536,864,,,,,0,630,,,,,,,,,,,,,,,,,139,D,circle,1,1,,,,,,,,,,,,,,,,repeat,number,numRpt,d,noRew,,,,,,1.0003,0,30,0,30,0,1,,,,,,,,,,,,,,,,,
294064,2022-11-30_12h46.58.773,vts_reward_expectancy_bt,2022.2.4,Win32,59.10165485,Chrome,1536,864,,,,,0,630,,,,,,,,,,,,,,,,,181,S,star,1,0,,,,,,,,,,,,,,,,repeat,number,numRpt,f,noRew,,,,,,0.5163,0,31,0,31,0,1,,,,,,,,,,,,,,,,,
294064,2022-11-30_12h46.58.773,vts_reward_expectancy_bt,2022.2.4,Win32,59.10165485,Chrome,1536,864,,,,,0,630,,,,,,,,,,,,,,,,,167,F,circle,1,0,,,,,,,,,,,,,,,,switch,letter,lettSwt,j,noRew,,,,,,1.871,0,32,0,32,0,1,,,,,,,,,,,,,,,,,
294064,2022-11-30_12h46.58.773,vts_reward_expectancy_bt,2022.2.4,Win32,59.10165485,Chrome,1536,864,,,,,0,630,,,,,,,,,,,,,,,,,139,B,triangle,1,0,,,,,,,,,,,,,,,,repeat,letter,lettRpt,j,noRew,,,,,,0.8501,0,33,0,33,0,1,,,,,,,,,,,,,,,,,
294064,2022-11-30_12h46.58.773,vts_reward_expectancy_bt,2022.2.4,Win32,59.10165485,Chrome,1536,864,,,,,0,630,,,,,,,,,,,,,,,,,125,D,hexagon,1,0,,,,,,,,,,,,,,,,repeat,letter,lettRpt,j,noRew,,,,,,0.5832,0,34,0,34,0,1,,,,,,,,,,,,,,,,,
294064,2022-11-30_12h46.58.773,vts_reward_expectancy_bt,2022.2.4,Win32,59.10165485,Chrome,1536,864,,,,,0,630,,,,,,,,,,,,,,,,,181,W,star,1,0,,,,,,,,,,,,,,,,switch,number,numSwt,f,noRew,,,,,,0.5012,0,35,0,35,0,1,,,,,,,,,,,,,,,,,
294064,2022-11-30_12h46.58.773,vts_reward_expectancy_bt,2022.2.4,Win32,59.10165485,Chrome,1536,864,,,,,0,630,,,,,,,,,,,,,,,,,146,H,triangle,1,0,,,,,,,,,,,,,,,,repeat,number,numRpt,d,noRew,,,,,,0.8164,0,36,0,36,0,1,,,,,,,,,,,,,,,,,
294064,2022-11-30_12h46.58.773,vts_reward_expectancy_bt,2022.2.4,Win32,59.10165485,Chrome,1536,864,,,,,0,630,,,,,,,,,,,,,,,,,132,F,hexagon,1,0,,,,,,,,,,,,,,,,repeat,number,numRpt,d,noRew,,,,,,0.4999,0,37,0,37,0,1,,,,,,,,,,,,,,,,,
294064,2022-11-30_12h46.58.773,vts_reward_expectancy_bt,2022.2.4,Win32,59.10165485,Chrome,1536,864,,,,,0,630,,,,,,,,,,,,,,,,,139,D,hexagon,1,0,,,,,,,,,,,,,,,,repeat,number,numRpt,d,noRew,,,,,,0.8174,0,38,0,38,0,1,,,,,,,,,,,,,,,,,
294064,2022-11-30_12h46.58.773,vts_reward_expectancy_bt,2022.2.4,Win32,59.10165485,Chrome,1536,864,,,,,0,630,,,,,,,,,,,,,,,,,181,B,triangle,1,0,,,,,,,,,,,,,,,,repeat,number,numRpt,f,noRew,,,,,,0.8829,0,39,0,39,0,1,,,,,,,,,,,,,,,,,
294064,2022-11-30_12h46.58.773,vts_reward_expectancy_bt,2022.2.4,Win32,59.10165485,Chrome,1536,864,,,,,0,630,,,,,,,,,,,,,,,,,132,F,circle,1,0,,,,,,,,,,,,,,,,switch,letter,lettSwt,j,noRew,,,,,,2.0667,0,40,0,40,0,1,,,,,,,,,,,,,,,,,
294064,2022-11-30_12h46.58.773,vts_reward_expectancy_bt,2022.2.4,Win32,59.10165485,Chrome,1536,864,,,,,0,630,,,,,,,,,,,,,,,,,174,W,star,1,0,,,,,,,,,,,,,,,,switch,number,numSwt,f,noRew,,,,,,1.2004,0,41,0,41,0,1,,,,,,,,,,,,,,,,,
294064,2022-11-30_12h46.58.773,vts_reward_expectancy_bt,2022.2.4,Win32,59.10165485,Chrome,1536,864,,,,,0,630,,,,,,,,,,,,,,,,,125,B,hexagon,1,0,,,,,,,,,,,,,,,,repeat,number,numRpt,d,noRew,,,,,,0.9339,0,42,0,42,0,1,,,,,,,,,,,,,,,,,
294064,2022-11-30_12h46.58.773,vts_reward_expectancy_bt,2022.2.4,Win32,59.10165485,Chrome,1536,864,,,,,0,630,,,,,,,,,,,,,,,,,139,D,star,1,0,,,,,,,,,,,,,,,,switch,letter,lettSwt,j,noRew,,,,,,0.7347,0,43,0,43,0,1,,,,,,,,,,,,,,,,,
294064,2022-11-30_12h46.58.773,vts_reward_expectancy_bt,2022.2.4,Win32,59.10165485,Chrome,1536,864,,,,,0,630,,,,,,,,,,,,,,,,,174,B,circle,1,0,,,,,,,,,,,,,,,,repeat,letter,lettRpt,j,noRew,,,,,,0.6665,0,44,0,44,0,1,,,,,,,,,,,,,,,,,
294064,2022-11-30_12h46.58.773,vts_reward_expectancy_bt,2022.2.4,Win32,59.10165485,Chrome,1536,864,,,,,0,630,,,,,,,,,,,,,,,,,146,S,star,1,0,,,,,,,,,,,,,,,,repeat,letter,lettRpt,k,noRew,,,,,,1.717,0,45,0,45,0,1,,,,,,,,,,,,,,,,,
294064,2022-11-30_12h46.58.773,vts_reward_expectancy_bt,2022.2.4,Win32,59.10165485,Chrome,1536,864,,,,,0,630,,,,,,,,,,,,,,,,,181,D,triangle,1,0,,,,,,,,,,,,,,,,repeat,letter,lettRpt,j,noRew,,,,,,1.7505,0,46,0,46,0,1,,,,,,,,,,,,,,,,,
294064,2022-11-30_12h46.58.773,vts_reward_expectancy_bt,2022.2.4,Win32,59.10165485,Chrome,1536,864,,,,,0,630,,,,,,,,,,,,,,,,,167,F,circle,1,0,,,,,,,,,,,,,,,,repeat,letter,lettRpt,j,noRew,,,,,,1.0672,0,47,0,47,0,1,,,,,,,,,,,,,,,,,
294064,2022-11-30_12h46.58.773,vts_reward_expectancy_bt,2022.2.4,Win32,59.10165485,Chrome,1536,864,,,,,0,630,,,,,,,,,,,,,,,,,146,F,circle,1,0,,,,,,,,,,,,,,,,repeat,letter,lettRpt,j,noRew,,,,,,0.9669,0,48,0,48,0,1,,,,,,,,,,,,,,,,,
294064,2022-11-30_12h46.58.773,vts_reward_expectancy_bt,2022.2.4,Win32,59.10165485,Chrome,1536,864,,,,,0,630,,,,,,,,,,,,,,,,,139,S,triangle,1,0,,,,,,,,,,,,,,,,switch,number,numSwt,d,noRew,,,,,,0.8337,0,49,0,49,0,1,,,,,,,,,,,,,,,,,
294064,2022-11-30_12h46.58.773,vts_reward_expectancy_bt,2022.2.4,Win32,59.10165485,Chrome,1536,864,,,,,0,630,,,,,,,,,,,,,,,,,132,Y,star,1,0,,,,,,,,,,,,,,,,switch,letter,lettSwt,k,noRew,,,,,,1.4497,0,50,0,50,0,1,,,,,,,,,,,,,,,,,
294064,2022-11-30_12h46.58.773,vts_reward_expectancy_bt,2022.2.4,Win32,59.10165485,Chrome,1536,864,,,,,0,630,,,,,,,,,,,,,,,,,174,U,triangle,1,0,,,,,,,,,,,,,,,,repeat,letter,lettRpt,k,noRew,,,,,,1.3835,0,51,0,51,0,1,,,,,,,,,,,,,,,,,
294064,2022-11-30_12h46.58.773,vts_reward_expectancy_bt,2022.2.4,Win32,59.10165485,Chrome,1536,864,,,,,0,630,,,,,,,,,,,,,,,,,160,D,triangle,1,0,,,,,,,,,,,,,,,,repeat,letter,lettRpt,j,noRew,,,,,,1.3809,0,52,0,52,0,1,,,,,,,,,,,,,,,,,
294064,2022-11-30_12h46.58.773,vts_reward_expectancy_bt,2022.2.4,Win32,59.10165485,Chrome,1536,864,,,,,0,630,,,,,,,,,,,,,,,,,181,F,circle,1,0,,,,,,,,,,,,,,,,repeat,letter,lettRpt,j,noRew,,,,,,1.5338,0,53,0,53,0,1,,,,,,,,,,,,,,,,,
294064,2022-11-30_12h46.58.773,vts_reward_expectancy_bt,2022.2.4,Win32,59.10165485,Chrome,1536,864,,,,,0,630,,,,,,,,,,,,,,,,,125,H,triangle,-1,0,,,,,,,,,,,,,,,,switch,no_choice,NA,,noRew,,,,,,,0,54,0,54,0,1,,,,,,,,,,,,,,,,,
294064,2022-11-30_12h46.58.773,vts_reward_expectancy_bt,2022.2.4,Win32,59.10165485,Chrome,1536,864,,,,,0,630,,,,,,,,,,,,,,,,,139,U,circle,1,0,,,,,,,,,,,,,,,,switch,letter,lettSwt,k,noRew,,,,,,0.7999,0,55,0,55,0,1,,,,,,,,,,,,,,,,,
294064,2022-11-30_12h46.58.773,vts_reward_expectancy_bt,2022.2.4,Win32,59.10165485,Chrome,1536,864,,,,,0,630,,,,,,,,,,,,,,,,,174,S,star,1,0,,,,,,,,,,,,,,,,repeat,letter,lettRpt,k,noRew,,,,,,1.65,0,56,0,56,0,1,,,,,,,,,,,,,,,,,
294064,2022-11-30_12h46.58.773,vts_reward_expectancy_bt,2022.2.4,Win32,59.10165485,Chrome,1536,864,,,,,0,630,,,,,,,,,,,,,,,,,146,D,triangle,1,0,,,,,,,,,,,,,,,,repeat,letter,lettRpt,j,noRew,,,,,,1.1246,0,57,0,57,0,1,,,,,,,,,,,,,,,,,
294064,2022-11-30_12h46.58.773,vts_reward_expectancy_bt,2022.2.4,Win32,59.10165485,Chrome,1536,864,,,,,0,630,,,,,,,,,,,,,,,,,160,B,hexagon,1,0,,,,,,,,,,,,,,,,repeat,letter,lettRpt,j,noRew,,,,,,2.4166,0,58,0,58,0,1,,,,,,,,,,,,,,,,,
294064,2022-11-30_12h46.58.773,vts_reward_expectancy_bt,2022.2.4,Win32,59.10165485,Chrome,1536,864,,,,,0,630,,,,,,,,,,,,,,,,,167,W,triangle,1,0,,,,,,,,,,,,,,,,repeat,letter,lettRpt,k,noRew,,,,,,1.3398,0,59,0,59,0,1,,,,,,,,,,,,,,,,,
294064,2022-11-30_12h46.58.773,vts_reward_expectancy_bt,2022.2.4,Win32,59.10165485,Chrome,1536,864,,,,,0,630,,,,,,,,,,,,,,,,,125,D,hexagon,1,0,,,,,,,,,,,,,,,,repeat,letter,lettRpt,j,noRew,,,,,,1.333,0,60,0,60,0,1,,,,,,,,,,,,,,,,,
294064,2022-11-30_12h46.58.773,vts_reward_expectancy_bt,2022.2.4,Win32,59.10165485,Chrome,1536,864,,,,,0,630,,,,,,,,,,,,,,,,,181,U,circle,1,0,,,,,,,,,,,,,,,,repeat,letter,lettRpt,k,noRew,,,,,,1.0834,0,61,0,61,0,1,,,,,,,,,,,,,,,,,
294064,2022-11-30_12h46.58.773,vts_reward_expectancy_bt,2022.2.4,Win32,59.10165485,Chrome,1536,864,,,,,0,630,,,,,,,,,,,,,,,,,146,B,hexagon,1,0,,,,,,,,,,,,,,,,repeat,letter,lettRpt,j,noRew,,,,,,0.9167,0,62,0,62,0,1,,,,,,,,,,,,,,,,,
294064,2022-11-30_12h46.58.773,vts_reward_expectancy_bt,2022.2.4,Win32,59.10165485,Chrome,1536,864,,,,,0,630,,,,,,,,,,,,,,,,,132,W,triangle,1,0,,,,,,,,,,,,,,,,switch,number,numSwt,d,noRew,,,,,,1.1844,0,63,0,63,0,1,,,,,,,,,,,,,,,,,
294064,2022-11-30_12h46.58.773,vts_reward_expectancy_bt,2022.2.4,Win32,59.10165485,Chrome,1536,864,,,,,,,,,,,,,,,,,,,,,,,,,,,,,,,,,,,,,,,,,,,,,,,,,,,,,,,,,,,,,,,,,,,,,,,,,,,,
294064,2022-11-30_12h46.58.773,vts_reward_expectancy_bt,2022.2.4,Win32,59.10165485,Chrome,1536,864,,,,,0,630,,,,,,,,,,,,,,,,,125,H,star,1,0,,,,,,,,,,,,,,,,repeat,number,numRpt,d,Hi,,,,,,0.8669,0,,,,,,space,7.6791,low,0,0,0,0,1,,,,,,,,,
294064,2022-11-30_12h46.58.773,vts_reward_expectancy_bt,2022.2.4,Win32,59.10165485,Chrome,1536,864,,,,,10,640,,,,,,,,,,,,,,,,,146,S,circle,1,0,,,,,,,,,,,,,,,,repeat,number,numRpt,d,Lo,,,,,,0.8014,0,,,,,,,,low,1,0,1,0,1,,,,,,,,,
294064,2022-11-30_12h46.58.773,vts_reward_expectancy_bt,2022.2.4,Win32,59.10165485,Chrome,1536,864,,,,,10,650,,,,,,,,,,,,,,,,,160,B,hexagon,1,0,,,,,,,,,,,,,,,,switch,letter,lettSwt,j,Hi,,,,,,0.7006,0,,,,,,,,low,2,0,2,0,1,,,,,,,,,
294064,2022-11-30_12h46.58.773,vts_reward_expectancy_bt,2022.2.4,Win32,59.10165485,Chrome,1536,864,,,,,1,651,,,,,,,,,,,,,,,,,139,U,triangle,1,0,,,,,,,,,,,,,,,,switch,number,numSwt,d,Lo,,,,,,0.4,0,,,,,,,,low,3,0,3,0,1,,,,,,,,,
294064,2022-11-30_12h46.58.773,vts_reward_expectancy_bt,2022.2.4,Win32,59.10165485,Chrome,1536,864,,,,,0,651,,,,,,,,,,,,,,,,,167,W,star,1,0,,,,,,,,,,,,,,,,switch,letter,lettSwt,k,Hi,,,,,,0.9332,0,,,,,,,,low,4,0,4,0,1,,,,,,,,,
294064,2022-11-30_12h46.58.773,vts_reward_expectancy_bt,2022.2.4,Win32,59.10165485,Chrome,1536,864,,,,,1,652,,,,,,,,,,,,,,,,,132,D,circle,1,0,,,,,,,,,,,,,,,,repeat,letter,lettRpt,j,Lo,,,,,,0.7004,0,,,,,,,,low,5,0,5,0,1,,,,,,,,,
294064,2022-11-30_12h46.58.773,vts_reward_expectancy_bt,2022.2.4,Win32,59.10165485,Chrome,1536,864,,,,,10,662,,,,,,,,,,,,,,,,,174,F,hexagon,1,0,,,,,,,,,,,,,,,,switch,number,numSwt,f,Hi,,,,,,0.7336,0,,,,,,,,low,6,0,6,0,1,,,,,,,,,
294064,2022-11-30_12h46.58.773,vts_reward_expectancy_bt,2022.2.4,Win32,59.10165485,Chrome,1536,864,,,,,10,672,,,,,,,,,,,,,,,,,181,Y,triangle,1,0,,,,,,,,,,,,,,,,switch,letter,lettSwt,k,Lo,,,,,,0.6665,0,,,,,,,,low,7,0,7,0,1,,,,,,,,,
294064,2022-11-30_12h46.58.773,vts_reward_expectancy_bt,2022.2.4,Win32,59.10165485,Chrome,1536,864,,,,,0,672,,,,,,,,,,,,,,,,,125,H,star,1,0,,,,,,,,,,,,,,,,switch,number,numSwt,d,Hi,,,,,,0.9,0,,,,,,,,low,8,0,8,0,1,,,,,,,,,
294064,2022-11-30_12h46.58.773,vts_reward_expectancy_bt,2022.2.4,Win32,59.10165485,Chrome,1536,864,,,,,1,673,,,,,,,,,,,,,,,,,146,S,circle,1,0,,,,,,,,,,,,,,,,repeat,number,numRpt,d,Lo,,,,,,0.8672,0,,,,,,,,low,9,0,9,0,1,,,,,,,,,
294064,2022-11-30_12h46.58.773,vts_reward_expectancy_bt,2022.2.4,Win32,59.10165485,Chrome,1536,864,,,,,10,683,,,,,,,,,,,,,,,,,160,B,hexagon,1,0,,,,,,,,,,,,,,,,switch,letter,lettSwt,j,Hi,,,,,,0.6165,0,,,,,,,,low,10,0,10,0,1,,,,,,,,,
294064,2022-11-30_12h46.58.773,vts_reward_expectancy_bt,2022.2.4,Win32,59.10165485,Chrome,1536,864,,,,,10,693,,,,,,,,,,,,,,,,,139,U,triangle,1,0,,,,,,,,,,,,,,,,repeat,letter,lettRpt,k,Lo,,,,,,0.8012,0,,,,,,,,low,11,0,11,0,1,,,,,,,,,
294064,2022-11-30_12h46.58.773,vts_reward_expectancy_bt,2022.2.4,Win32,59.10165485,Chrome,1536,864,,,,,0,693,,,,,,,,,,,,,,,,,167,W,hexagon,1,0,,,,,,,,,,,,,,,,switch,number,numSwt,f,Hi,,,,,,0.866,0,,,,,,,,low,12,0,12,0,1,,,,,,,,,
294064,2022-11-30_12h46.58.773,vts_reward_expectancy_bt,2022.2.4,Win32,59.10165485,Chrome,1536,864,,,,,10,703,,,,,,,,,,,,,,,,,132,D,circle,1,0,,,,,,,,,,,,,,,,switch,letter,lettSwt,j,Lo,,,,,,0.4831,0,,,,,,,,low,13,0,13,0,1,,,,,,,,,
294064,2022-11-30_12h46.58.773,vts_reward_expectancy_bt,2022.2.4,Win32,59.10165485,Chrome,1536,864,,,,,0,703,,,,,,,,,,,,,,,,,174,F,star,1,0,,,,,,,,,,,,,,,,switch,number,numSwt,f,Hi,,,,,,1.05,0,,,,,,,,low,14,0,14,0,1,,,,,,,,,
294064,2022-11-30_12h46.58.773,vts_reward_expectancy_bt,2022.2.4,Win32,59.10165485,Chrome,1536,864,,,,,1,704,,,,,,,,,,,,,,,,,181,Y,triangle,1,0,,,,,,,,,,,,,,,,switch,letter,lettSwt,k,Lo,,,,,,0.583,0,,,,,,,,low,15,0,15,0,1,,,,,,,,,
294064,2022-11-30_12h46.58.773,vts_reward_expectancy_bt,2022.2.4,Win32,59.10165485,Chrome,1536,864,,,,,1,705,,,,,,,,,,,,,,,,,174,F,triangle,1,0,,,,,,,,,,,,,,,,switch,number,numSwt,f,Lo,,,,,,1.0836,0,,,,,,,,low,16,0,16,0,1,,,,,,,,,
294064,2022-11-30_12h46.58.773,vts_reward_expectancy_bt,2022.2.4,Win32,59.10165485,Chrome,1536,864,,,,,1,706,,,,,,,,,,,,,,,,,132,S,circle,1,0,,,,,,,,,,,,,,,,switch,letter,lettSwt,k,Lo,,,,,,0.6332,0,,,,,,,,low,17,0,17,0,1,,,,,,,,,
294064,2022-11-30_12h46.58.773,vts_reward_expectancy_bt,2022.2.4,Win32,59.10165485,Chrome,1536,864,,,,,0,706,,,,,,,,,,,,,,,,,125,Y,hexagon,1,0,,,,,,,,,,,,,,,,switch,number,numSwt,d,Hi,,,,,,1.0674,0,,,,,,,,low,18,0,18,0,1,,,,,,,,,
294064,2022-11-30_12h46.58.773,vts_reward_expectancy_bt,2022.2.4,Win32,59.10165485,Chrome,1536,864,,,,,10,716,,,,,,,,,,,,,,,,,160,W,star,1,0,,,,,,,,,,,,,,,,switch,letter,lettSwt,k,Hi,,,,,,0.6836,0,,,,,,,,low,19,0,19,0,1,,,,,,,,,
294064,2022-11-30_12h46.58.773,vts_reward_expectancy_bt,2022.2.4,Win32,59.10165485,Chrome,1536,864,,,,,1,717,,,,,,,,,,,,,,,,,167,U,hexagon,1,0,,,,,,,,,,,,,,,,repeat,letter,lettRpt,k,Hi,,,,,,0.606,0,,,,,,,,low,20,0,20,0,1,,,,,,,,,
294064,2022-11-30_12h46.58.773,vts_reward_expectancy_bt,2022.2.4,Win32,59.10165485,Chrome,1536,864,,,,,1,718,,,,,,,,,,,,,,,,,146,D,star,1,0,,,,,,,,,,,,,,,,switch,number,numSwt,d,Hi,,,,,,0.6168,0,,,,,,,,low,21,0,21,0,1,,,,,,,,,
294064,2022-11-30_12h46.58.773,vts_reward_expectancy_bt,2022.2.4,Win32,59.10165485,Chrome,1536,864,,,,,1,719,,,,,,,,,,,,,,,,,139,B,triangle,1,0,,,,,,,,,,,,,,,,repeat,number,numRpt,d,Lo,,,,,,0.8169,0,,,,,,,,low,22,0,22,0,1,,,,,,,,,
294064,2022-11-30_12h46.58.773,vts_reward_expectancy_bt,2022.2.4,Win32,59.10165485,Chrome,1536,864,,,,,10,729,,,,,,,,,,,,,,,,,181,H,circle,1,0,,,,,,,,,,,,,,,,switch,letter,lettSwt,j,Lo,,,,,,0.9005,0,,,,,,,,low,23,0,23,0,1,,,,,,,,,
294064,2022-11-30_12h46.58.773,vts_reward_expectancy_bt,2022.2.4,Win32,59.10165485,Chrome,1536,864,,,,,10,739,,,,,,,,,,,,,,,,,174,Y,star,1,0,,,,,,,,,,,,,,,,repeat,letter,lettRpt,k,Hi,,,,,,0.9167,0,,,,,,,,low,24,0,24,0,1,,,,,,,,,
294064,2022-11-30_12h46.58.773,vts_reward_expectancy_bt,2022.2.4,Win32,59.10165485,Chrome,1536,864,,,,,0,739,,,,,,,,,,,,,,,,,181,U,hexagon,1,0,,,,,,,,,,,,,,,,switch,number,numSwt,f,Hi,,,,,,0.9582,0,,,,,,,,low,25,0,25,0,1,,,,,,,,,
294064,2022-11-30_12h46.58.773,vts_reward_expectancy_bt,2022.2.4,Win32,59.10165485,Chrome,1536,864,,,,,1,740,,,,,,,,,,,,,,,,,132,F,circle,1,0,,,,,,,,,,,,,,,,repeat,number,numRpt,d,Lo,,,,,,0.8678,0,,,,,,,,low,26,0,26,0,1,,,,,,,,,
294064,2022-11-30_12h46.58.773,vts_reward_expectancy_bt,2022.2.4,Win32,59.10165485,Chrome,1536,864,,,,,0,740,,,,,,,,,,,,,,,,,146,H,triangle,0,0,,,,,,,,,,,,,,,,switch,letter,NA,k,Lo,,,,,,1.5841,0,,,,,,,,low,27,0,27,0,1,,,,,,,,,
294064,2022-11-30_12h46.58.773,vts_reward_expectancy_bt,2022.2.4,Win32,59.10165485,Chrome,1536,864,,,,,0,740,,,,,,,,,,,,,,,,,139,D,star,1,1,,,,,,,,,,,,,,,,repeat,letter,lettRpt,j,Hi,,,,,,1.0336,0,,,,,,,,low,28,0,28,0,1,,,,,,,,,
294064,2022-11-30_12h46.58.773,vts_reward_expectancy_bt,2022.2.4,Win32,59.10165485,Chrome,1536,864,,,,,10,750,,,,,,,,,,,,,,,,,160,S,triangle,1,0,,,,,,,,,,,,,,,,repeat,letter,lettRpt,k,Lo,,,,,,0.5334,0,,,,,,,,low,29,0,29,0,1,,,,,,,,,
294064,2022-11-30_12h46.58.773,vts_reward_expectancy_bt,2022.2.4,Win32,59.10165485,Chrome,1536,864,,,,,0,750,,,,,,,,,,,,,,,,,167,B,hexagon,1,0,,,,,,,,,,,,,,,,repeat,letter,lettRpt,j,Hi,,,,,,1.5332,0,,,,,,,,low,30,0,30,0,1,,,,,,,,,
294064,2022-11-30_12h46.58.773,vts_reward_expectancy_bt,2022.2.4,Win32,59.10165485,Chrome,1536,864,,,,,1,751,,,,,,,,,,,,,,,,,125,W,circle,1,0,,,,,,,,,,,,,,,,switch,number,numSwt,d,Lo,,,,,,1.3497,0,,,,,,,,low,31,0,31,0,1,,,,,,,,,
294064,2022-11-30_12h46.58.773,vts_reward_expectancy_bt,2022.2.4,Win32,59.10165485,Chrome,1536,864,,,,,0,751,,,,,,,,,,,,,,,,,125,D,star,1,0,,,,,,,,,,,,,,,,switch,letter,lettSwt,j,Hi,,,,,,0.9332,1,,,,,,space,2.2325,low,0,0,0,0,1,,,,,,,,,
294064,2022-11-30_12h46.58.773,vts_reward_expectancy_bt,2022.2.4,Win32,59.10165485,Chrome,1536,864,,,,,1,752,,,,,,,,,,,,,,,,,181,B,triangle,1,0,,,,,,,,,,,,,,,,repeat,letter,lettRpt,j,Lo,,,,,,1.417,1,,,,,,,,low,1,0,1,0,1,,,,,,,,,
294064,2022-11-30_12h46.58.773,vts_reward_expectancy_bt,2022.2.4,Win32,59.10165485,Chrome,1536,864,,,,,1,753,,,,,,,,,,,,,,,,,146,F,circle,1,0,,,,,,,,,,,,,,,,repeat,letter,lettRpt,j,Lo,,,,,,0.7667,1,,,,,,,,low,2,0,2,0,1,,,,,,,,,
294064,2022-11-30_12h46.58.773,vts_reward_expectancy_bt,2022.2.4,Win32,59.10165485,Chrome,1536,864,,,,,0,753,,,,,,,,,,,,,,,,,174,Y,hexagon,0,0,,,,,,,,,,,,,,,,switch,number,NA,d,Lo,,,,,,0.6506,1,,,,,,,,low,3,0,3,0,1,,,,,,,,,
294064,2022-11-30_12h46.58.773,vts_reward_expectancy_bt,2022.2.4,Win32,59.10165485,Chrome,1536,864,,,,,10,763,,,,,,,,,,,,,,,,,167,W,star,1,1,,,,,,,,,,,,,,,,repeat,number,numRpt,f,Hi,,,,,,0.8003,1,,,,,,,,low,4,0,4,0,1,,,,,,,,,
294064,2022-11-30_12h46.58.773,vts_reward_expectancy_bt,2022.2.4,Win32,59.10165485,Chrome,1536,864,,,,,10,773,,,,,,,,,,,,,,,,,139,H,triangle,1,0,,,,,,,,,,,,,,,,switch,letter,lettSwt,j,Lo,,,,,,0.9504,1,,,,,,,,low,5,0,5,0,1,,,,,,,,,
294064,2022-11-30_12h46.58.773,vts_reward_expectancy_bt,2022.2.4,Win32,59.10165485,Chrome,1536,864,,,,,10,783,,,,,,,,,,,,,,,,,132,U,circle,1,0,,,,,,,,,,,,,,,,repeat,letter,lettRpt,k,Lo,,,,,,1.4336,1,,,,,,,,low,6,0,6,0,1,,,,,,,,,
294064,2022-11-30_12h46.58.773,vts_reward_expectancy_bt,2022.2.4,Win32,59.10165485,Chrome,1536,864,,,,,0,783,,,,,,,,,,,,,,,,,160,S,hexagon,1,0,,,,,,,,,,,,,,,,switch,number,numSwt,f,Hi,,,,,,1.1007,1,,,,,,,,low,7,0,7,0,1,,,,,,,,,
294064,2022-11-30_12h46.58.773,vts_reward_expectancy_bt,2022.2.4,Win32,59.10165485,Chrome,1536,864,,,,,10,793,,,,,,,,,,,,,,,,,125,D,triangle,1,0,,,,,,,,,,,,,,,,switch,letter,lettSwt,j,Lo,,,,,,1.0508,1,,,,,,,,low,8,0,8,0,1,,,,,,,,,
294064,2022-11-30_12h46.58.773,vts_reward_expectancy_bt,2022.2.4,Win32,59.10165485,Chrome,1536,864,,,,,1,794,,,,,,,,,,,,,,,,,181,B,star,1,0,,,,,,,,,,,,,,,,switch,number,numSwt,f,Hi,,,,,,0.5347,1,,,,,,,,low,9,0,9,0,1,,,,,,,,,
294064,2022-11-30_12h46.58.773,vts_reward_expectancy_bt,2022.2.4,Win32,59.10165485,Chrome,1536,864,,,,,1,795,,,,,,,,,,,,,,,,,146,F,circle,1,0,,,,,,,,,,,,,,,,switch,letter,lettSwt,j,Lo,,,,,,0.7669,1,,,,,,,,low,10,0,10,0,1,,,,,,,,,
294064,2022-11-30_12h46.58.773,vts_reward_expectancy_bt,2022.2.4,Win32,59.10165485,Chrome,1536,864,,,,,0,795,,,,,,,,,,,,,,,,,174,Y,hexagon,1,0,,,,,,,,,,,,,,,,repeat,letter,lettRpt,k,Hi,,,,,,0.7333,1,,,,,,,,low,11,0,11,0,1,,,,,,,,,
294064,2022-11-30_12h46.58.773,vts_reward_expectancy_bt,2022.2.4,Win32,59.10165485,Chrome,1536,864,,,,,1,796,,,,,,,,,,,,,,,,,167,W,triangle,1,0,,,,,,,,,,,,,,,,switch,number,numSwt,f,Lo,,,,,,0.8669,1,,,,,,,,low,12,0,12,0,1,,,,,,,,,
294064,2022-11-30_12h46.58.773,vts_reward_expectancy_bt,2022.2.4,Win32,59.10165485,Chrome,1536,864,,,,,0,796,,,,,,,,,,,,,,,,,139,H,star,1,0,,,,,,,,,,,,,,,,repeat,number,numRpt,d,Hi,,,,,,0.9168,1,,,,,,,,low,13,0,13,0,1,,,,,,,,,
294064,2022-11-30_12h46.58.773,vts_reward_expectancy_bt,2022.2.4,Win32,59.10165485,Chrome,1536,864,,,,,10,806,,,,,,,,,,,,,,,,,132,U,circle,1,0,,,,,,,,,,,,,,,,switch,letter,lettSwt,k,Lo,,,,,,0.7502,1,,,,,,,,low,14,0,14,0,1,,,,,,,,,
294064,2022-11-30_12h46.58.773,vts_reward_expectancy_bt,2022.2.4,Win32,59.10165485,Chrome,1536,864,,,,,10,816,,,,,,,,,,,,,,,,,160,S,hexagon,1,0,,,,,,,,,,,,,,,,repeat,letter,lettRpt,k,Hi,,,,,,0.6507,1,,,,,,,,low,15,0,15,0,1,,,,,,,,,
294064,2022-11-30_12h46.58.773,vts_reward_expectancy_bt,2022.2.4,Win32,59.10165485,Chrome,1536,864,,,,,1,817,,,,,,,,,,,,,,,,,146,W,hexagon,1,0,,,,,,,,,,,,,,,,repeat,letter,lettRpt,k,Hi,,,,,,0.6174,1,,,,,,,,low,16,0,16,0,1,,,,,,,,,
294064,2022-11-30_12h46.58.773,vts_reward_expectancy_bt,2022.2.4,Win32,59.10165485,Chrome,1536,864,,,,,0,817,,,,,,,,,,,,,,,,,132,B,star,1,0,,,,,,,,,,,,,,,,repeat,letter,lettRpt,j,Hi,,,,,,0.7331,1,,,,,,,,low,17,0,17,0,1,,,,,,,,,
294064,2022-11-30_12h46.58.773,vts_reward_expectancy_bt,2022.2.4,Win32,59.10165485,Chrome,1536,864,,,,,0,817,,,,,,,,,,,,,,,,,160,U,circle,0,0,,,,,,,,,,,,,,,,switch,number,NA,d,Hi,,,,,,0.35,1,,,,,,,,low,18,0,18,0,1,,,,,,,,,
294064,2022-11-30_12h46.58.773,vts_reward_expectancy_bt,2022.2.4,Win32,59.10165485,Chrome,1536,864,,,,,1,818,,,,,,,,,,,,,,,,,181,F,triangle,1,1,,,,,,,,,,,,,,,,switch,letter,lettSwt,j,Lo,,,,,,1.1973,1,,,,,,,,low,19,0,19,0,1,,,,,,,,,
294064,2022-11-30_12h46.58.773,vts_reward_expectancy_bt,2022.2.4,Win32,59.10165485,Chrome,1536,864,,,,,1,819,,,,,,,,,,,,,,,,,167,Y,triangle,1,0,,,,,,,,,,,,,,,,repeat,letter,lettRpt,k,Lo,,,,,,1.6338,1,,,,,,,,low,20,0,20,0,1,,,,,,,,,
294064,2022-11-30_12h46.58.773,vts_reward_expectancy_bt,2022.2.4,Win32,59.10165485,Chrome,1536,864,,,,,10,829,,,,,,,,,,,,,,,,,174,H,star,1,0,,,,,,,,,,,,,,,,switch,number,numSwt,f,Hi,,,,,,0.5946,1,,,,,,,,low,21,0,21,0,1,,,,,,,,,
294064,2022-11-30_12h46.58.773,vts_reward_expectancy_bt,2022.2.4,Win32,59.10165485,Chrome,1536,864,,,,,0,829,,,,,,,,,,,,,,,,,125,D,circle,0,0,,,,,,,,,,,,,,,,switch,letter,NA,k,Hi,,,,,,1.5542,1,,,,,,,,low,22,0,22,0,1,,,,,,,,,
294064,2022-11-30_12h46.58.773,vts_reward_expectancy_bt,2022.2.4,Win32,59.10165485,Chrome,1536,864,,,,,0,829,,,,,,,,,,,,,,,,,139,S,hexagon,1,1,,,,,,,,,,,,,,,,switch,number,numSwt,d,Hi,,,,,,0.8835,1,,,,,,,,low,23,0,23,0,1,,,,,,,,,
294064,2022-11-30_12h46.58.773,vts_reward_expectancy_bt,2022.2.4,Win32,59.10165485,Chrome,1536,864,,,,,1,830,,,,,,,,,,,,,,,,,139,W,triangle,1,0,,,,,,,,,,,,,,,,switch,letter,lettSwt,k,Lo,,,,,,0.7501,1,,,,,,,,low,24,0,24,0,1,,,,,,,,,
294064,2022-11-30_12h46.58.773,vts_reward_expectancy_bt,2022.2.4,Win32,59.10165485,Chrome,1536,864,,,,,0,830,,,,,,,,,,,,,,,,,160,D,hexagon,1,0,,,,,,,,,,,,,,,,switch,number,numSwt,f,Hi,,,,,,1.267,1,,,,,,,,low,25,0,25,0,1,,,,,,,,,
294064,2022-11-30_12h46.58.773,vts_reward_expectancy_bt,2022.2.4,Win32,59.10165485,Chrome,1536,864,,,,,10,840,,,,,,,,,,,,,,,,,174,Y,circle,1,0,,,,,,,,,,,,,,,,switch,letter,lettSwt,k,Lo,,,,,,0.7159,1,,,,,,,,low,26,0,26,0,1,,,,,,,,,
294064,2022-11-30_12h46.58.773,vts_reward_expectancy_bt,2022.2.4,Win32,59.10165485,Chrome,1536,864,,,,,0,840,,,,,,,,,,,,,,,,,181,H,star,1,0,,,,,,,,,,,,,,,,repeat,letter,lettRpt,j,Hi,,,,,,0.8832,1,,,,,,,,low,27,0,27,0,1,,,,,,,,,
294064,2022-11-30_12h46.58.773,vts_reward_expectancy_bt,2022.2.4,Win32,59.10165485,Chrome,1536,864,,,,,10,850,,,,,,,,,,,,,,,,,125,B,hexagon,1,0,,,,,,,,,,,,,,,,switch,number,numSwt,d,Hi,,,,,,0.7834,1,,,,,,,,low,28,0,28,0,1,,,,,,,,,
294064,2022-11-30_12h46.58.773,vts_reward_expectancy_bt,2022.2.4,Win32,59.10165485,Chrome,1536,864,,,,,0,850,,,,,,,,,,,,,,,,,132,F,triangle,0,0,,,,,,,,,,,,,,,,switch,letter,NA,k,Hi,,,,,,0.7337,1,,,,,,,,low,29,0,29,0,1,,,,,,,,,
294064,2022-11-30_12h46.58.773,vts_reward_expectancy_bt,2022.2.4,Win32,59.10165485,Chrome,1536,864,,,,,1,851,,,,,,,,,,,,,,,,,146,U,circle,1,1,,,,,,,,,,,,,,,,repeat,letter,lettRpt,k,Lo,,,,,,1.7998,1,,,,,,,,low,30,0,30,0,1,,,,,,,,,
294064,2022-11-30_12h46.58.773,vts_reward_expectancy_bt,2022.2.4,Win32,59.10165485,Chrome,1536,864,,,,,0,851,,,,,,,,,,,,,,,,,167,S,star,1,0,,,,,,,,,,,,,,,,switch,number,numSwt,f,Hi,,,,,,0.9003,1,,,,,,,,low,31,0,31,0,1,,,,,,,,,
294064,2022-11-30_12h46.58.773,vts_reward_expectancy_bt,2022.2.4,Win32,59.10165485,Chrome,1536,864,,,,,0,851,,,,,,,,,,,,,,,,,181,H,star,1,0,,,,,,,,,,,,,,,,switch,letter,lettSwt,j,Hi,,,,,,0.9336,2,,,,,,space,1.3339,low,0,0,0,0,1,,,,,,,,,
294064,2022-11-30_12h46.58.773,vts_reward_expectancy_bt,2022.2.4,Win32,59.10165485,Chrome,1536,864,,,,,10,861,,,,,,,,,,,,,,,,,174,D,triangle,1,0,,,,,,,,,,,,,,,,repeat,letter,lettRpt,j,Lo,,,,,,0.8503,2,,,,,,,,low,1,0,1,0,1,,,,,,,,,
294064,2022-11-30_12h46.58.773,vts_reward_expectancy_bt,2022.2.4,Win32,59.10165485,Chrome,1536,864,,,,,1,862,,,,,,,,,,,,,,,,,139,W,circle,1,0,,,,,,,,,,,,,,,,repeat,letter,lettRpt,k,Lo,,,,,,0.8168,2,,,,,,,,low,2,0,2,0,1,,,,,,,,,
294064,2022-11-30_12h46.58.773,vts_reward_expectancy_bt,2022.2.4,Win32,59.10165485,Chrome,1536,864,,,,,0,862,,,,,,,,,,,,,,,,,146,S,hexagon,1,0,,,,,,,,,,,,,,,,repeat,letter,lettRpt,k,Hi,,,,,,1.167,2,,,,,,,,low,3,0,3,0,1,,,,,,,,,
294064,2022-11-30_12h46.58.773,vts_reward_expectancy_bt,2022.2.4,Win32,59.10165485,Chrome,1536,864,,,,,0,862,,,,,,,,,,,,,,,,,160,F,star,1,0,,,,,,,,,,,,,,,,switch,number,numSwt,f,Hi,,,,,,0.9835,2,,,,,,,,low,4,0,4,0,1,,,,,,,,,
294064,2022-11-30_12h46.58.773,vts_reward_expectancy_bt,2022.2.4,Win32,59.10165485,Chrome,1536,864,,,,,1,863,,,,,,,,,,,,,,,,,125,U,triangle,1,0,,,,,,,,,,,,,,,,repeat,number,numRpt,d,Lo,,,,,,0.9327,2,,,,,,,,low,5,0,5,0,1,,,,,,,,,
294064,2022-11-30_12h46.58.773,vts_reward_expectancy_bt,2022.2.4,Win32,59.10165485,Chrome,1536,864,,,,,10,873,,,,,,,,,,,,,,,,,132,Y,circle,1,0,,,,,,,,,,,,,,,,repeat,number,numRpt,d,Lo,,,,,,1.3165,2,,,,,,,,low,6,0,6,0,1,,,,,,,,,
294064,2022-11-30_12h46.58.773,vts_reward_expectancy_bt,2022.2.4,Win32,59.10165485,Chrome,1536,864,,,,,0,873,,,,,,,,,,,,,,,,,167,B,hexagon,1,0,,,,,,,,,,,,,,,,repeat,number,numRpt,f,Hi,,,,,,1.6665,2,,,,,,,,low,7,0,7,0,1,,,,,,,,,
294064,2022-11-30_12h46.58.773,vts_reward_expectancy_bt,2022.2.4,Win32,59.10165485,Chrome,1536,864,,,,,0,873,,,,,,,,,,,,,,,,,181,H,hexagon,1,0,,,,,,,,,,,,,,,,repeat,number,numRpt,f,Hi,,,,,,0.8668,2,,,,,,,,low,8,0,8,0,1,,,,,,,,,
294064,2022-11-30_12h46.58.773,vts_reward_expectancy_bt,2022.2.4,Win32,59.10165485,Chrome,1536,864,,,,,1,874,,,,,,,,,,,,,,,,,174,D,circle,1,0,,,,,,,,,,,,,,,,repeat,number,numRpt,f,Lo,,,,,,1.2842,2,,,,,,,,low,9,0,9,0,1,,,,,,,,,
294064,2022-11-30_12h46.58.773,vts_reward_expectancy_bt,2022.2.4,Win32,59.10165485,Chrome,1536,864,,,,,1,875,,,,,,,,,,,,,,,,,139,W,triangle,1,0,,,,,,,,,,,,,,,,switch,letter,lettSwt,k,Lo,,,,,,0.8174,2,,,,,,,,low,10,0,10,0,1,,,,,,,,,
294064,2022-11-30_12h46.58.773,vts_reward_expectancy_bt,2022.2.4,Win32,59.10165485,Chrome,1536,864,,,,,0,875,,,,,,,,,,,,,,,,,146,S,star,1,0,,,,,,,,,,,,,,,,switch,number,numSwt,d,Hi,,,,,,0.8872,2,,,,,,,,low,11,0,11,0,1,,,,,,,,,
294064,2022-11-30_12h46.58.773,vts_reward_expectancy_bt,2022.2.4,Win32,59.10165485,Chrome,1536,864,,,,,1,876,,,,,,,,,,,,,,,,,160,F,circle,1,0,,,,,,,,,,,,,,,,switch,letter,lettSwt,j,Lo,,,,,,0.9503,2,,,,,,,,low,12,0,12,0,1,,,,,,,,,
294064,2022-11-30_12h46.58.773,vts_reward_expectancy_bt,2022.2.4,Win32,59.10165485,Chrome,1536,864,,,,,0,876,,,,,,,,,,,,,,,,,125,U,star,1,0,,,,,,,,,,,,,,,,repeat,letter,lettRpt,k,Hi,,,,,,0.9507,2,,,,,,,,low,13,0,13,0,1,,,,,,,,,
294064,2022-11-30_12h46.58.773,vts_reward_expectancy_bt,2022.2.4,Win32,59.10165485,Chrome,1536,864,,,,,0,876,,,,,,,,,,,,,,,,,132,Y,hexagon,1,0,,,,,,,,,,,,,,,,repeat,letter,lettRpt,k,Hi,,,,,,1.5502,2,,,,,,,,low,14,0,14,0,1,,,,,,,,,
294064,2022-11-30_12h46.58.773,vts_reward_expectancy_bt,2022.2.4,Win32,59.10165485,Chrome,1536,864,,,,,10,886,,,,,,,,,,,,,,,,,167,B,triangle,1,0,,,,,,,,,,,,,,,,repeat,letter,lettRpt,j,Lo,,,,,,0.9833,2,,,,,,,,low,15,0,15,0,1,,,,,,,,,
294064,2022-11-30_12h46.58.773,vts_reward_expectancy_bt,2022.2.4,Win32,59.10165485,Chrome,1536,864,,,,,0,886,,,,,,,,,,,,,,,,,132,D,star,1,0,,,,,,,,,,,,,,,,repeat,letter,lettRpt,j,Hi,,,,,,2.5829,2,,,,,,,,low,16,0,16,0,1,,,,,,,,,
294064,2022-11-30_12h46.58.773,vts_reward_expectancy_bt,2022.2.4,Win32,59.10165485,Chrome,1536,864,,,,,0,886,,,,,,,,,,,,,,,,,139,B,hexagon,1,0,,,,,,,,,,,,,,,,repeat,letter,lettRpt,j,Hi,,,,,,0.8837,2,,,,,,,,low,17,0,17,0,1,,,,,,,,,
294064,2022-11-30_12h46.58.773,vts_reward_expectancy_bt,2022.2.4,Win32,59.10165485,Chrome,1536,864,,,,,10,896,,,,,,,,,,,,,,,,,167,F,circle,1,0,,,,,,,,,,,,,,,,repeat,letter,lettRpt,j,Lo,,,,,,1.0668,2,,,,,,,,low,18,0,18,0,1,,,,,,,,,
294064,2022-11-30_12h46.58.773,vts_reward_expectancy_bt,2022.2.4,Win32,59.10165485,Chrome,1536,864,,,,,10,906,,,,,,,,,,,,,,,,,160,U,triangle,1,0,,,,,,,,,,,,,,,,repeat,letter,lettRpt,k,Lo,,,,,,1.367,2,,,,,,,,low,19,0,19,0,1,,,,,,,,,
294064,2022-11-30_12h46.58.773,vts_reward_expectancy_bt,2022.2.4,Win32,59.10165485,Chrome,1536,864,,,,,0,906,,,,,,,,,,,,,,,,,146,Y,hexagon,1,0,,,,,,,,,,,,,,,,repeat,letter,lettRpt,k,Hi,,,,,,1.2001,2,,,,,,,,low,20,0,20,0,1,,,,,,,,,
294064,2022-11-30_12h46.58.773,vts_reward_expectancy_bt,2022.2.4,Win32,59.10165485,Chrome,1536,864,,,,,1,907,,,,,,,,,,,,,,,,,125,H,circle,1,0,,,,,,,,,,,,,,,,repeat,letter,lettRpt,j,Lo,,,,,,1.1328,2,,,,,,,,low,21,0,21,0,1,,,,,,,,,
294064,2022-11-30_12h46.58.773,vts_reward_expectancy_bt,2022.2.4,Win32,59.10165485,Chrome,1536,864,,,,,10,917,,,,,,,,,,,,,,,,,174,W,triangle,1,0,,,,,,,,,,,,,,,,switch,number,numSwt,f,Lo,,,,,,1.4496,2,,,,,,,,low,22,0,22,0,1,,,,,,,,,
294064,2022-11-30_12h46.58.773,vts_reward_expectancy_bt,2022.2.4,Win32,59.10165485,Chrome,1536,864,,,,,0,917,,,,,,,,,,,,,,,,,181,S,star,1,0,,,,,,,,,,,,,,,,switch,letter,lettSwt,k,Hi,,,,,,1.3488,2,,,,,,,,low,23,0,23,0,1,,,,,,,,,
294064,2022-11-30_12h46.58.773,vts_reward_expectancy_bt,2022.2.4,Win32,59.10165485,Chrome,1536,864,,,,,0,917,,,,,,,,,,,,,,,,,139,D,star,1,0,,,,,,,,,,,,,,,,repeat,letter,lettRpt,j,Hi,,,,,,1.1092,2,,,,,,,,low,24,0,24,0,1,,,,,,,,,
294064,2022-11-30_12h46.58.773,vts_reward_expectancy_bt,2022.2.4,Win32,59.10165485,Chrome,1536,864,,,,,0,917,,,,,,,,,,,,,,,,,125,S,hexagon,1,0,,,,,,,,,,,,,,,,repeat,letter,lettRpt,k,Hi,,,,,,1.133,2,,,,,,,,low,25,0,25,0,1,,,,,,,,,
294064,2022-11-30_12h46.58.773,vts_reward_expectancy_bt,2022.2.4,Win32,59.10165485,Chrome,1536,864,,,,,1,918,,,,,,,,,,,,,,,,,167,H,triangle,1,0,,,,,,,,,,,,,,,,repeat,letter,lettRpt,j,Lo,,,,,,0.7808,2,,,,,,,,low,26,0,26,0,1,,,,,,,,,
294064,2022-11-30_12h46.58.773,vts_reward_expectancy_bt,2022.2.4,Win32,59.10165485,Chrome,1536,864,,,,,10,928,,,,,,,,,,,,,,,,,160,F,circle,1,0,,,,,,,,,,,,,,,,repeat,letter,lettRpt,j,Lo,,,,,,1.2163,2,,,,,,,,low,27,0,27,0,1,,,,,,,,,
294064,2022-11-30_12h46.58.773,vts_reward_expectancy_bt,2022.2.4,Win32,59.10165485,Chrome,1536,864,,,,,10,938,,,,,,,,,,,,,,,,,132,U,circle,1,0,,,,,,,,,,,,,,,,repeat,letter,lettRpt,k,Lo,,,,,,1.1665,2,,,,,,,,low,28,0,28,0,1,,,,,,,,,
294064,2022-11-30_12h46.58.773,vts_reward_expectancy_bt,2022.2.4,Win32,59.10165485,Chrome,1536,864,,,,,0,938,,,,,,,,,,,,,,,,,174,Y,star,1,0,,,,,,,,,,,,,,,,repeat,letter,lettRpt,k,Hi,,,,,,1.0001,2,,,,,,,,low,29,0,29,0,1,,,,,,,,,
294064,2022-11-30_12h46.58.773,vts_reward_expectancy_bt,2022.2.4,Win32,59.10165485,Chrome,1536,864,,,,,10,948,,,,,,,,,,,,,,,,,146,W,triangle,1,0,,,,,,,,,,,,,,,,repeat,letter,lettRpt,k,Lo,,,,,,1.1012,2,,,,,,,,low,30,0,30,0,1,,,,,,,,,
294064,2022-11-30_12h46.58.773,vts_reward_expectancy_bt,2022.2.4,Win32,59.10165485,Chrome,1536,864,,,,,0,948,,,,,,,,,,,,,,,,,181,B,hexagon,1,0,,,,,,,,,,,,,,,,repeat,letter,lettRpt,j,Hi,,,,,,2.8991,2,,,,,,,,low,31,0,31,0,1,,,,,,,,,
294064,2022-11-30_12h46.58.773,vts_reward_expectancy_bt,2022.2.4,Win32,59.10165485,Chrome,1536,864,,,,,0,948,,,,,,,,,,,,,,,,,139,F,hexagon,1,0,,,,,,,,,,,,,,,,repeat,letter,lettRpt,j,Hi,,,,,,1.7502,3,,,,,,space,0.6898,low,0,0,0,0,1,,,,,,,,,
294064,2022-11-30_12h46.58.773,vts_reward_expectancy_bt,2022.2.4,Win32,59.10165485,Chrome,1536,864,,,,,10,958,,,,,,,,,,,,,,,,,132,D,star,1,0,,,,,,,,,,,,,,,,switch,number,numSwt,d,Hi,,,,,,0.8825,3,,,,,,,,low,1,0,1,0,1,,,,,,,,,
294064,2022-11-30_12h46.58.773,vts_reward_expectancy_bt,2022.2.4,Win32,59.10165485,Chrome,1536,864,,,,,10,968,,,,,,,,,,,,,,,,,125,U,circle,1,0,,,,,,,,,,,,,,,,switch,letter,lettSwt,k,Lo,,,,,,0.7508,3,,,,,,,,low,2,0,2,0,1,,,,,,,,,
294064,2022-11-30_12h46.58.773,vts_reward_expectancy_bt,2022.2.4,Win32,59.10165485,Chrome,1536,864,,,,,1,969,,,,,,,,,,,,,,,,,146,Y,triangle,1,0,,,,,,,,,,,,,,,,repeat,letter,lettRpt,k,Lo,,,,,,1.7343,3,,,,,,,,low,3,0,3,0,1,,,,,,,,,
294064,2022-11-30_12h46.58.773,vts_reward_expectancy_bt,2022.2.4,Win32,59.10165485,Chrome,1536,864,,,,,10,979,,,,,,,,,,,,,,,,,167,H,hexagon,1,0,,,,,,,,,,,,,,,,switch,number,numSwt,f,Hi,,,,,,0.8503,3,,,,,,,,low,4,0,4,0,1,,,,,,,,,
294064,2022-11-30_12h46.58.773,vts_reward_expectancy_bt,2022.2.4,Win32,59.10165485,Chrome,1536,864,,,,,0,979,,,,,,,,,,,,,,,,,174,W,star,0,0,,,,,,,,,,,,,,,,repeat,number,NA,d,Hi,,,,,,0.6505,3,,,,,,,,low,5,0,5,0,1,,,,,,,,,
294064,2022-11-30_12h46.58.773,vts_reward_expectancy_bt,2022.2.4,Win32,59.10165485,Chrome,1536,864,,,,,1,980,,,,,,,,,,,,,,,,,160,S,circle,1,1,,,,,,,,,,,,,,,,switch,letter,lettSwt,k,Lo,,,,,,0.8836,3,,,,,,,,low,6,0,6,0,1,,,,,,,,,
294064,2022-11-30_12h46.58.773,vts_reward_expectancy_bt,2022.2.4,Win32,59.10165485,Chrome,1536,864,,,,,10,990,,,,,,,,,,,,,,,,,181,B,triangle,1,0,,,,,,,,,,,,,,,,repeat,letter,lettRpt,j,Lo,,,,,,0.5345,3,,,,,,,,low,7,0,7,0,1,,,,,,,,,
294064,2022-11-30_12h46.58.773,vts_reward_expectancy_bt,2022.2.4,Win32,59.10165485,Chrome,1536,864,,,,,0,990,,,,,,,,,,,,,,,,,139,F,hexagon,0,0,,,,,,,,,,,,,,,,repeat,letter,NA,k,Lo,,,,,,0.9669,3,,,,,,,,low,8,0,8,0,1,,,,,,,,,
294064,2022-11-30_12h46.58.773,vts_reward_expectancy_bt,2022.2.4,Win32,59.10165485,Chrome,1536,864,,,,,10,1000,,,,,,,,,,,,,,,,,132,D,star,1,1,,,,,,,,,,,,,,,,switch,number,numSwt,d,Hi,,,,,,0.7834,3,,,,,,,,low,9,0,9,0,1,,,,,,,,,
294064,2022-11-30_12h46.58.773,vts_reward_expectancy_bt,2022.2.4,Win32,59.10165485,Chrome,1536,864,,,,,10,1010,,,,,,,,,,,,,,,,,125,U,circle,1,0,,,,,,,,,,,,,,,,repeat,number,numRpt,d,Lo,,,,,,0.883,3,,,,,,,,low,10,0,10,0,1,,,,,,,,,
294064,2022-11-30_12h46.58.773,vts_reward_expectancy_bt,2022.2.4,Win32,59.10165485,Chrome,1536,864,,,,,1,1011,,,,,,,,,,,,,,,,,146,Y,triangle,1,0,,,,,,,,,,,,,,,,switch,letter,lettSwt,k,Lo,,,,,,0.634,3,,,,,,,,low,11,0,11,0,1,,,,,,,,,
294064,2022-11-30_12h46.58.773,vts_reward_expectancy_bt,2022.2.4,Win32,59.10165485,Chrome,1536,864,,,,,10,1021,,,,,,,,,,,,,,,,,167,H,triangle,1,0,,,,,,,,,,,,,,,,repeat,letter,lettRpt,j,Lo,,,,,,0.6386,3,,,,,,,,low,12,0,12,0,1,,,,,,,,,
294064,2022-11-30_12h46.58.773,vts_reward_expectancy_bt,2022.2.4,Win32,59.10165485,Chrome,1536,864,,,,,10,1031,,,,,,,,,,,,,,,,,174,W,circle,1,0,,,,,,,,,,,,,,,,repeat,letter,lettRpt,k,Lo,,,,,,0.7007,3,,,,,,,,low,13,0,13,0,1,,,,,,,,,
294064,2022-11-30_12h46.58.773,vts_reward_expectancy_bt,2022.2.4,Win32,59.10165485,Chrome,1536,864,,,,,0,1031,,,,,,,,,,,,,,,,,160,S,hexagon,1,0,,,,,,,,,,,,,,,,repeat,letter,lettRpt,k,Hi,,,,,,1.5167,3,,,,,,,,low,14,0,14,0,1,,,,,,,,,
294064,2022-11-30_12h46.58.773,vts_reward_expectancy_bt,2022.2.4,Win32,59.10165485,Chrome,1536,864,,,,,0,1031,,,,,,,,,,,,,,,,,181,B,star,1,0,,,,,,,,,,,,,,,,switch,number,numSwt,f,Hi,,,,,,1.3499,3,,,,,,,,low,15,0,15,0,1,,,,,,,,,
294064,2022-11-30_12h46.58.773,vts_reward_expectancy_bt,2022.2.4,Win32,59.10165485,Chrome,1536,864,,,,,1,1032,,,,,,,,,,,,,,,,,139,D,hexagon,1,0,,,,,,,,,,,,,,,,repeat,number,numRpt,d,Hi,,,,,,0.7003,3,,,,,,,,low,16,0,16,0,1,,,,,,,,,
294064,2022-11-30_12h46.58.773,vts_reward_expectancy_bt,2022.2.4,Win32,59.10165485,Chrome,1536,864,,,,,1,1033,,,,,,,,,,,,,,,,,146,U,circle,1,0,,,,,,,,,,,,,,,,repeat,number,numRpt,d,Lo,,,,,,1.3497,3,,,,,,,,low,17,0,17,0,1,,,,,,,,,
294064,2022-11-30_12h46.58.773,vts_reward_expectancy_bt,2022.2.4,Win32,59.10165485,Chrome,1536,864,,,,,1,1034,,,,,,,,,,,,,,,,,167,S,triangle,1,0,,,,,,,,,,,,,,,,switch,letter,lettSwt,k,Lo,,,,,,1.7997,3,,,,,,,,low,18,0,18,0,1,,,,,,,,,
294064,2022-11-30_12h46.58.773,vts_reward_expectancy_bt,2022.2.4,Win32,59.10165485,Chrome,1536,864,,,,,0,1034,,,,,,,,,,,,,,,,,132,W,star,1,0,,,,,,,,,,,,,,,,switch,number,numSwt,d,Hi,,,,,,1.2831,3,,,,,,,,low,19,0,19,0,1,,,,,,,,,
294064,2022-11-30_12h46.58.773,vts_reward_expectancy_bt,2022.2.4,Win32,59.10165485,Chrome,1536,864,,,,,0,1034,,,,,,,,,,,,,,,,,160,F,hexagon,1,0,,,,,,,,,,,,,,,,switch,letter,lettSwt,j,Hi,,,,,,1.1499,3,,,,,,,,low,20,0,20,0,1,,,,,,,,,
294064,2022-11-30_12h46.58.773,vts_reward_expectancy_bt,2022.2.4,Win32,59.10165485,Chrome,1536,864,,,,,10,1044,,,,,,,,,,,,,,,,,174,B,circle,1,0,,,,,,,,,,,,,,,,switch,number,numSwt,f,Lo,,,,,,1.0832,3,,,,,,,,low,21,0,21,0,1,,,,,,,,,
294064,2022-11-30_12h46.58.773,vts_reward_expectancy_bt,2022.2.4,Win32,59.10165485,Chrome,1536,864,,,,,0,1044,,,,,,,,,,,,,,,,,181,H,star,0,0,,,,,,,,,,,,,,,,switch,letter,NA,k,Lo,,,,,,1.8002,3,,,,,,,,low,22,0,22,0,1,,,,,,,,,
294064,2022-11-30_12h46.58.773,vts_reward_expectancy_bt,2022.2.4,Win32,59.10165485,Chrome,1536,864,,,,,1,1045,,,,,,,,,,,,,,,,,125,Y,triangle,1,1,,,,,,,,,,,,,,,,switch,number,numSwt,d,Lo,,,,,,0.5673,3,,,,,,,,low,23,0,23,0,1,,,,,,,,,
294064,2022-11-30_12h46.58.773,vts_reward_expectancy_bt,2022.2.4,Win32,59.10165485,Chrome,1536,864,,,,,10,1055,,,,,,,,,,,,,,,,,132,H,triangle,1,0,,,,,,,,,,,,,,,,switch,letter,lettSwt,j,Lo,,,,,,0.684,3,,,,,,,,low,24,0,24,0,1,,,,,,,,,
294064,2022-11-30_12h46.58.773,vts_reward_expectancy_bt,2022.2.4,Win32,59.10165485,Chrome,1536,864,,,,,1,1056,,,,,,,,,,,,,,,,,139,U,circle,1,0,,,,,,,,,,,,,,,,switch,number,numSwt,d,Lo,,,,,,1.2011,3,,,,,,,,low,25,0,25,0,1,,,,,,,,,
294064,2022-11-30_12h46.58.773,vts_reward_expectancy_bt,2022.2.4,Win32,59.10165485,Chrome,1536,864,,,,,0,1056,,,,,,,,,,,,,,,,,160,D,hexagon,0,0,,,,,,,,,,,,,,,,repeat,number,NA,d,Lo,,,,,,1.0833,3,,,,,,,,low,26,0,26,0,1,,,,,,,,,
294064,2022-11-30_12h46.58.773,vts_reward_expectancy_bt,2022.2.4,Win32,59.10165485,Chrome,1536,864,,,,,0,1056,,,,,,,,,,,,,,,,,174,Y,star,1,1,,,,,,,,,,,,,,,,switch,letter,lettSwt,k,Hi,,,,,,0.9829,3,,,,,,,,low,27,0,27,0,1,,,,,,,,,
294064,2022-11-30_12h46.58.773,vts_reward_expectancy_bt,2022.2.4,Win32,59.10165485,Chrome,1536,864,,,,,1,1057,,,,,,,,,,,,,,,,,125,S,hexagon,1,0,,,,,,,,,,,,,,,,repeat,letter,lettRpt,k,Hi,,,,,,0.9661,3,,,,,,,,low,28,0,28,0,1,,,,,,,,,
294064,2022-11-30_12h46.58.773,vts_reward_expectancy_bt,2022.2.4,Win32,59.10165485,Chrome,1536,864,,,,,10,1067,,,,,,,,,,,,,,,,,181,B,triangle,1,0,,,,,,,,,,,,,,,,switch,number,numSwt,f,Lo,,,,,,0.8839,3,,,,,,,,low,29,0,29,0,1,,,,,,,,,
294064,2022-11-30_12h46.58.773,vts_reward_expectancy_bt,2022.2.4,Win32,59.10165485,Chrome,1536,864,,,,,1,1068,,,,,,,,,,,,,,,,,146,F,circle,1,0,,,,,,,,,,,,,,,,switch,letter,lettSwt,j,Lo,,,,,,0.8497,3,,,,,,,,low,30,0,30,0,1,,,,,,,,,
294064,2022-11-30_12h46.58.773,vts_reward_expectancy_bt,2022.2.4,Win32,59.10165485,Chrome,1536,864,,,,,0,1068,,,,,,,,,,,,,,,,,167,W,star,1,0,,,,,,,,,,,,,,,,switch,number,numSwt,f,Hi,,,,,,1.2829,3,,,,,,,,low,31,0,31,0,1,,,,,,,,,
294064,2022-11-30_12h46.58.773,vts_reward_expectancy_bt,2022.2.4,Win32,59.10165485,Chrome,1536,864,,,,,1,1069,,,,,,,,,,,,,,,,,146,S,star,1,0,,,,,,,,,,,,,,,,switch,letter,lettSwt,k,Hi,,,,,,0.6669,4,,,,,,space,0.6346,low,0,0,0,0,1,,,,,,,,,
294064,2022-11-30_12h46.58.773,vts_reward_expectancy_bt,2022.2.4,Win32,59.10165485,Chrome,1536,864,,,,,10,1079,,,,,,,,,,,,,,,,,181,F,triangle,1,0,,,,,,,,,,,,,,,,switch,number,numSwt,f,Lo,,,,,,0.8513,4,,,,,,,,low,1,0,1,0,1,,,,,,,,,
294064,2022-11-30_12h46.58.773,vts_reward_expectancy_bt,2022.2.4,Win32,59.10165485,Chrome,1536,864,,,,,0,1079,,,,,,,,,,,,,,,,,125,B,hexagon,1,0,,,,,,,,,,,,,,,,switch,letter,lettSwt,j,Hi,,,,,,1.0499,4,,,,,,,,low,2,0,2,0,1,,,,,,,,,
294064,2022-11-30_12h46.58.773,vts_reward_expectancy_bt,2022.2.4,Win32,59.10165485,Chrome,1536,864,,,,,1,1080,,,,,,,,,,,,,,,,,174,D,circle,1,0,,,,,,,,,,,,,,,,switch,number,numSwt,f,Lo,,,,,,0.9334,4,,,,,,,,low,3,0,3,0,1,,,,,,,,,
294064,2022-11-30_12h46.58.773,vts_reward_expectancy_bt,2022.2.4,Win32,59.10165485,Chrome,1536,864,,,,,1,1081,,,,,,,,,,,,,,,,,132,Y,star,1,0,,,,,,,,,,,,,,,,switch,letter,lettSwt,k,Hi,,,,,,0.7495,4,,,,,,,,low,4,0,4,0,1,,,,,,,,,
294064,2022-11-30_12h46.58.773,vts_reward_expectancy_bt,2022.2.4,Win32,59.10165485,Chrome,1536,864,,,,,10,1091,,,,,,,,,,,,,,,,,167,H,triangle,1,0,,,,,,,,,,,,,,,,switch,number,numSwt,f,Lo,,,,,,0.7706,4,,,,,,,,low,5,0,5,0,1,,,,,,,,,
294064,2022-11-30_12h46.58.773,vts_reward_expectancy_bt,2022.2.4,Win32,59.10165485,Chrome,1536,864,,,,,0,1091,,,,,,,,,,,,,,,,,160,U,hexagon,1,0,,,,,,,,,,,,,,,,switch,letter,lettSwt,k,Hi,,,,,,0.8662,4,,,,,,,,low,6,0,6,0,1,,,,,,,,,
294064,2022-11-30_12h46.58.773,vts_reward_expectancy_bt,2022.2.4,Win32,59.10165485,Chrome,1536,864,,,,,10,1101,,,,,,,,,,,,,,,,,139,W,circle,1,0,,,,,,,,,,,,,,,,switch,number,numSwt,d,Lo,,,,,,0.8664,4,,,,,,,,low,7,0,7,0,1,,,,,,,,,
294064,2022-11-30_12h46.58.773,vts_reward_expectancy_bt,2022.2.4,Win32,59.10165485,Chrome,1536,864,,,,,10,1111,,,,,,,,,,,,,,,,,146,S,circle,1,0,,,,,,,,,,,,,,,,switch,letter,lettSwt,k,Lo,,,,,,1.1668,4,,,,,,,,low,8,0,8,0,1,,,,,,,,,
294064,2022-11-30_12h46.58.773,vts_reward_expectancy_bt,2022.2.4,Win32,59.10165485,Chrome,1536,864,,,,,0,1111,,,,,,,,,,,,,,,,,181,F,star,1,0,,,,,,,,,,,,,,,,switch,number,numSwt,f,Hi,,,,,,1.0668,4,,,,,,,,low,9,0,9,0,1,,,,,,,,,
294064,2022-11-30_12h46.58.773,vts_reward_expectancy_bt,2022.2.4,Win32,59.10165485,Chrome,1536,864,,,,,10,1121,,,,,,,,,,,,,,,,,125,B,triangle,1,0,,,,,,,,,,,,,,,,switch,letter,lettSwt,j,Lo,,,,,,1.3179,4,,,,,,,,low,10,0,10,0,1,,,,,,,,,
294064,2022-11-30_12h46.58.773,vts_reward_expectancy_bt,2022.2.4,Win32,59.10165485,Chrome,1536,864,,,,,0,1121,,,,,,,,,,,,,,,,,174,D,hexagon,1,0,,,,,,,,,,,,,,,,repeat,letter,lettRpt,j,Hi,,,,,,0.9164,4,,,,,,,,low,11,0,11,0,1,,,,,,,,,
294064,2022-11-30_12h46.58.773,vts_reward_expectancy_bt,2022.2.4,Win32,59.10165485,Chrome,1536,864,,,,,1,1122,,,,,,,,,,,,,,,,,132,Y,circle,1,0,,,,,,,,,,,,,,,,repeat,letter,lettRpt,k,Lo,,,,,,1.8012,4,,,,,,,,low,12,0,12,0,1,,,,,,,,,
294064,2022-11-30_12h46.58.773,vts_reward_expectancy_bt,2022.2.4,Win32,59.10165485,Chrome,1536,864,,,,,0,1122,,,,,,,,,,,,,,,,,167,H,star,0,0,,,,,,,,,,,,,,,,switch,number,NA,d,Lo,,,,,,1.2997,4,,,,,,,,low,13,0,13,0,1,,,,,,,,,
294064,2022-11-30_12h46.58.773,vts_reward_expectancy_bt,2022.2.4,Win32,59.10165485,Chrome,1536,864,,,,,1,1123,,,,,,,,,,,,,,,,,160,U,triangle,1,1,,,,,,,,,,,,,,,,repeat,number,numRpt,f,Lo,,,,,,1.7492,4,,,,,,,,low,14,0,14,0,1,,,,,,,,,
294064,2022-11-30_12h46.58.773,vts_reward_expectancy_bt,2022.2.4,Win32,59.10165485,Chrome,1536,864,,,,,0,1123,,,,,,,,,,,,,,,,,139,W,hexagon,1,0,,,,,,,,,,,,,,,,repeat,number,numRpt,d,Hi,,,,,,1.2835,4,,,,,,,,low,15,0,15,0,1,,,,,,,,,
294064,2022-11-30_12h46.58.773,vts_reward_expectancy_bt,2022.2.4,Win32,59.10165485,Chrome,1536,864,,,,,0,1123,,,,,,,,,,,,,,,,,132,H,hexagon,1,0,,,,,,,,,,,,,,,,repeat,number,numRpt,d,Hi,,,,,,0.9509,4,,,,,,,,low,16,0,16,0,1,,,,,,,,,
294064,2022-11-30_12h46.58.773,vts_reward_expectancy_bt,2022.2.4,Win32,59.10165485,Chrome,1536,864,,,,,10,1133,,,,,,,,,,,,,,,,,167,S,circle,1,0,,,,,,,,,,,,,,,,switch,letter,lettSwt,k,Lo,,,,,,0.7668,4,,,,,,,,low,17,0,17,0,1,,,,,,,,,
294064,2022-11-30_12h46.58.773,vts_reward_expectancy_bt,2022.2.4,Win32,59.10165485,Chrome,1536,864,,,,,0,1133,,,,,,,,,,,,,,,,,146,F,star,1,0,,,,,,,,,,,,,,,,repeat,letter,lettRpt,j,Hi,,,,,,1.0548,4,,,,,,,,low,18,0,18,0,1,,,,,,,,,
294064,2022-11-30_12h46.58.773,vts_reward_expectancy_bt,2022.2.4,Win32,59.10165485,Chrome,1536,864,,,,,10,1143,,,,,,,,,,,,,,,,,125,W,triangle,1,0,,,,,,,,,,,,,,,,switch,number,numSwt,d,Lo,,,,,,2.0508,4,,,,,,,,low,19,0,19,0,1,,,,,,,,,
294064,2022-11-30_12h46.58.773,vts_reward_expectancy_bt,2022.2.4,Win32,59.10165485,Chrome,1536,864,,,,,10,1153,,,,,,,,,,,,,,,,,139,U,circle,1,0,,,,,,,,,,,,,,,,repeat,number,numRpt,d,Lo,,,,,,0.7331,4,,,,,,,,low,20,0,20,0,1,,,,,,,,,
294064,2022-11-30_12h46.58.773,vts_reward_expectancy_bt,2022.2.4,Win32,59.10165485,Chrome,1536,864,,,,,0,1153,,,,,,,,,,,,,,,,,160,D,star,1,0,,,,,,,,,,,,,,,,repeat,number,numRpt,f,Hi,,,,,,1.2805,4,,,,,,,,low,21,0,21,0,1,,,,,,,,,
294064,2022-11-30_12h46.58.773,vts_reward_expectancy_bt,2022.2.4,Win32,59.10165485,Chrome,1536,864,,,,,0,1153,,,,,,,,,,,,,,,,,174,B,hexagon,1,0,,,,,,,,,,,,,,,,switch,letter,lettSwt,j,Hi,,,,,,1.0838,4,,,,,,,,low,22,0,22,0,1,,,,,,,,,
294064,2022-11-30_12h46.58.773,vts_reward_expectancy_bt,2022.2.4,Win32,59.10165485,Chrome,1536,864,,,,,10,1163,,,,,,,,,,,,,,,,,181,Y,triangle,1,0,,,,,,,,,,,,,,,,repeat,letter,lettRpt,k,Lo,,,,,,1.0998,4,,,,,,,,low,23,0,23,0,1,,,,,,,,,
294064,2022-11-30_12h46.58.773,vts_reward_expectancy_bt,2022.2.4,Win32,59.10165485,Chrome,1536,864,,,,,0,1163,,,,,,,,,,,,,,,,,146,D,star,1,0,,,,,,,,,,,,,,,,repeat,letter,lettRpt,j,Hi,,,,,,0.8476,4,,,,,,,,low,24,0,24,0,1,,,,,,,,,
294064,2022-11-30_12h46.58.773,vts_reward_expectancy_bt,2022.2.4,Win32,59.10165485,Chrome,1536,864,,,,,0,1163,,,,,,,,,,,,,,,,,167,U,hexagon,1,0,,,,,,,,,,,,,,,,repeat,letter,lettRpt,k,Hi,,,,,,1.617,4,,,,,,,,low,25,0,25,0,1,,,,,,,,,
294064,2022-11-30_12h46.58.773,vts_reward_expectancy_bt,2022.2.4,Win32,59.10165485,Chrome,1536,864,,,,,1,1164,,,,,,,,,,,,,,,,,174,W,triangle,1,0,,,,,,,,,,,,,,,,repeat,letter,lettRpt,k,Lo,,,,,,0.8333,4,,,,,,,,low,26,0,26,0,1,,,,,,,,,
294064,2022-11-30_12h46.58.773,vts_reward_expectancy_bt,2022.2.4,Win32,59.10165485,Chrome,1536,864,,,,,0,1164,,,,,,,,,,,,,,,,,160,H,circle,0,0,,,,,,,,,,,,,,,,switch,number,NA,d,Lo,,,,,,1.1336,4,,,,,,,,low,27,0,27,0,1,,,,,,,,,
294064,2022-11-30_12h46.58.773,vts_reward_expectancy_bt,2022.2.4,Win32,59.10165485,Chrome,1536,864,,,,,10,1174,,,,,,,,,,,,,,,,,181,S,triangle,1,1,,,,,,,,,,,,,,,,repeat,number,numRpt,f,Lo,,,,,,0.8004,4,,,,,,,,low,28,0,28,0,1,,,,,,,,,
294064,2022-11-30_12h46.58.773,vts_reward_expectancy_bt,2022.2.4,Win32,59.10165485,Chrome,1536,864,,,,,0,1174,,,,,,,,,,,,,,,,,125,F,star,1,0,,,,,,,,,,,,,,,,switch,letter,lettSwt,j,Hi,,,,,,1.1671,4,,,,,,,,low,29,0,29,0,1,,,,,,,,,
294064,2022-11-30_12h46.58.773,vts_reward_expectancy_bt,2022.2.4,Win32,59.10165485,Chrome,1536,864,,,,,0,1174,,,,,,,,,,,,,,,,,139,Y,hexagon,1,0,,,,,,,,,,,,,,,,switch,number,numSwt,d,Hi,,,,,,0.9338,4,,,,,,,,low,30,0,30,0,1,,,,,,,,,
294064,2022-11-30_12h46.58.773,vts_reward_expectancy_bt,2022.2.4,Win32,59.10165485,Chrome,1536,864,,,,,1,1175,,,,,,,,,,,,,,,,,132,B,circle,1,0,,,,,,,,,,,,,,,,switch,letter,lettSwt,j,Lo,,,,,,0.7665,4,,,,,,,,low,31,0,31,0,1,,,,,,,,,
294064,2022-11-30_12h46.58.773,vts_reward_expectancy_bt,2022.2.4,Win32,59.10165485,Chrome,1536,864,,,,,1,1176,,,,,,,,,,,,,,,,,139,S,circle,1,0,,,,,,,,,,,,,,,,repeat,letter,lettRpt,k,Lo,,,,,,0.8412,5,,,,,,space,1.1334,low,0,0,0,0,1,,,,,,,,,
294064,2022-11-30_12h46.58.773,vts_reward_expectancy_bt,2022.2.4,Win32,59.10165485,Chrome,1536,864,,,,,0,1176,,,,,,,,,,,,,,,,,146,D,hexagon,0,0,,,,,,,,,,,,,,,,repeat,letter,NA,k,Lo,,,,,,0.6675,5,,,,,,,,low,1,0,1,0,1,,,,,,,,,
294064,2022-11-30_12h46.58.773,vts_reward_expectancy_bt,2022.2.4,Win32,59.10165485,Chrome,1536,864,,,,,1,1177,,,,,,,,,,,,,,,,,167,U,triangle,1,1,,,,,,,,,,,,,,,,repeat,letter,lettRpt,k,Lo,,,,,,0.6493,5,,,,,,,,low,2,0,2,0,1,,,,,,,,,
294064,2022-11-30_12h46.58.773,vts_reward_expectancy_bt,2022.2.4,Win32,59.10165485,Chrome,1536,864,,,,,10,1187,,,,,,,,,,,,,,,,,132,B,star,1,0,,,,,,,,,,,,,,,,repeat,letter,lettRpt,j,Hi,,,,,,0.6665,5,,,,,,,,low,3,0,3,0,1,,,,,,,,,
294064,2022-11-30_12h46.58.773,vts_reward_expectancy_bt,2022.2.4,Win32,59.10165485,Chrome,1536,864,,,,,10,1197,,,,,,,,,,,,,,,,,174,H,circle,1,0,,,,,,,,,,,,,,,,repeat,letter,lettRpt,j,Lo,,,,,,0.8334,5,,,,,,,,low,4,0,4,0,1,,,,,,,,,
294064,2022-11-30_12h46.58.773,vts_reward_expectancy_bt,2022.2.4,Win32,59.10165485,Chrome,1536,864,,,,,1,1198,,,,,,,,,,,,,,,,,125,F,hexagon,1,0,,,,,,,,,,,,,,,,repeat,letter,lettRpt,j,Hi,,,,,,0.6664,5,,,,,,,,low,5,0,5,0,1,,,,,,,,,
294064,2022-11-30_12h46.58.773,vts_reward_expectancy_bt,2022.2.4,Win32,59.10165485,Chrome,1536,864,,,,,1,1199,,,,,,,,,,,,,,,,,160,W,triangle,1,0,,,,,,,,,,,,,,,,switch,number,numSwt,f,Lo,,,,,,1.2551,5,,,,,,,,low,6,0,6,0,1,,,,,,,,,
294064,2022-11-30_12h46.58.773,vts_reward_expectancy_bt,2022.2.4,Win32,59.10165485,Chrome,1536,864,,,,,10,1209,,,,,,,,,,,,,,,,,181,Y,star,1,0,,,,,,,,,,,,,,,,repeat,number,numRpt,f,Hi,,,,,,0.7173,5,,,,,,,,low,7,0,7,0,1,,,,,,,,,
294064,2022-11-30_12h46.58.773,vts_reward_expectancy_bt,2022.2.4,Win32,59.10165485,Chrome,1536,864,,,,,10,1219,,,,,,,,,,,,,,,,,139,S,triangle,1,0,,,,,,,,,,,,,,,,repeat,number,numRpt,d,Lo,,,,,,0.7836,5,,,,,,,,low,8,0,8,0,1,,,,,,,,,
294064,2022-11-30_12h46.58.773,vts_reward_expectancy_bt,2022.2.4,Win32,59.10165485,Chrome,1536,864,,,,,10,1229,,,,,,,,,,,,,,,,,146,D,star,1,0,,,,,,,,,,,,,,,,repeat,number,numRpt,d,Hi,,,,,,0.8333,5,,,,,,,,low,9,0,9,0,1,,,,,,,,,
294064,2022-11-30_12h46.58.773,vts_reward_expectancy_bt,2022.2.4,Win32,59.10165485,Chrome,1536,864,,,,,0,1229,,,,,,,,,,,,,,,,,167,U,hexagon,1,0,,,,,,,,,,,,,,,,repeat,number,numRpt,f,Hi,,,,,,1.8506,5,,,,,,,,low,10,0,10,0,1,,,,,,,,,
294064,2022-11-30_12h46.58.773,vts_reward_expectancy_bt,2022.2.4,Win32,59.10165485,Chrome,1536,864,,,,,1,1230,,,,,,,,,,,,,,,,,132,B,circle,1,0,,,,,,,,,,,,,,,,repeat,number,numRpt,d,Lo,,,,,,0.716,5,,,,,,,,low,11,0,11,0,1,,,,,,,,,
294064,2022-11-30_12h46.58.773,vts_reward_expectancy_bt,2022.2.4,Win32,59.10165485,Chrome,1536,864,,,,,0,1230,,,,,,,,,,,,,,,,,174,H,star,1,0,,,,,,,,,,,,,,,,switch,letter,lettSwt,j,Hi,,,,,,1.3997,5,,,,,,,,low,12,0,12,0,1,,,,,,,,,
294064,2022-11-30_12h46.58.773,vts_reward_expectancy_bt,2022.2.4,Win32,59.10165485,Chrome,1536,864,,,,,10,1240,,,,,,,,,,,,,,,,,125,F,triangle,1,0,,,,,,,,,,,,,,,,repeat,letter,lettRpt,j,Lo,,,,,,1.2002,5,,,,,,,,low,13,0,13,0,1,,,,,,,,,
294064,2022-11-30_12h46.58.773,vts_reward_expectancy_bt,2022.2.4,Win32,59.10165485,Chrome,1536,864,,,,,1,1241,,,,,,,,,,,,,,,,,160,W,hexagon,1,0,,,,,,,,,,,,,,,,repeat,letter,lettRpt,k,Hi,,,,,,0.8342,5,,,,,,,,low,14,0,14,0,1,,,,,,,,,
294064,2022-11-30_12h46.58.773,vts_reward_expectancy_bt,2022.2.4,Win32,59.10165485,Chrome,1536,864,,,,,1,1242,,,,,,,,,,,,,,,,,181,Y,circle,1,0,,,,,,,,,,,,,,,,repeat,letter,lettRpt,k,Lo,,,,,,0.8001,5,,,,,,,,low,15,0,15,0,1,,,,,,,,,
294064,2022-11-30_12h46.58.773,vts_reward_expectancy_bt,2022.2.4,Win32,59.10165485,Chrome,1536,864,,,,,1,1243,,,,,,,,,,,,,,,,,181,D,circle,1,0,,,,,,,,,,,,,,,,repeat,letter,lettRpt,j,Lo,,,,,,1.2338,5,,,,,,,,low,16,0,16,0,1,,,,,,,,,
294064,2022-11-30_12h46.58.773,vts_reward_expectancy_bt,2022.2.4,Win32,59.10165485,Chrome,1536,864,,,,,10,1253,,,,,,,,,,,,,,,,,160,F,star,1,0,,,,,,,,,,,,,,,,repeat,letter,lettRpt,j,Hi,,,,,,0.7668,5,,,,,,,,low,17,0,17,0,1,,,,,,,,,
294064,2022-11-30_12h46.58.773,vts_reward_expectancy_bt,2022.2.4,Win32,59.10165485,Chrome,1536,864,,,,,0,1253,,,,,,,,,,,,,,,,,125,W,hexagon,1,0,,,,,,,,,,,,,,,,repeat,letter,lettRpt,k,Hi,,,,,,0.9835,5,,,,,,,,low,18,0,18,0,1,,,,,,,,,
294064,2022-11-30_12h46.58.773,vts_reward_expectancy_bt,2022.2.4,Win32,59.10165485,Chrome,1536,864,,,,,10,1263,,,,,,,,,,,,,,,,,174,S,triangle,1,0,,,,,,,,,,,,,,,,repeat,letter,lettRpt,k,Lo,,,,,,1.1169,5,,,,,,,,low,19,0,19,0,1,,,,,,,,,
294064,2022-11-30_12h46.58.773,vts_reward_expectancy_bt,2022.2.4,Win32,59.10165485,Chrome,1536,864,,,,,1,1264,,,,,,,,,,,,,,,,,146,B,triangle,1,0,,,,,,,,,,,,,,,,repeat,letter,lettRpt,j,Lo,,,,,,1.099,5,,,,,,,,low,20,0,20,0,1,,,,,,,,,
294064,2022-11-30_12h46.58.773,vts_reward_expectancy_bt,2022.2.4,Win32,59.10165485,Chrome,1536,864,,,,,0,1264,,,,,,,,,,,,,,,,,167,H,hexagon,1,0,,,,,,,,,,,,,,,,repeat,letter,lettRpt,j,Hi,,,,,,1.1345,5,,,,,,,,low,21,0,21,0,1,,,,,,,,,
294064,2022-11-30_12h46.58.773,vts_reward_expectancy_bt,2022.2.4,Win32,59.10165485,Chrome,1536,864,,,,,1,1265,,,,,,,,,,,,,,,,,139,Y,circle,1,0,,,,,,,,,,,,,,,,switch,number,numSwt,d,Lo,,,,,,0.7393,5,,,,,,,,low,22,0,22,0,1,,,,,,,,,
294064,2022-11-30_12h46.58.773,vts_reward_expectancy_bt,2022.2.4,Win32,59.10165485,Chrome,1536,864,,,,,1,1266,,,,,,,,,,,,,,,,,132,U,star,1,0,,,,,,,,,,,,,,,,repeat,number,numRpt,d,Hi,,,,,,0.6,5,,,,,,,,low,23,0,23,0,1,,,,,,,,,
294064,2022-11-30_12h46.58.773,vts_reward_expectancy_bt,2022.2.4,Win32,59.10165485,Chrome,1536,864,,,,,1,1267,,,,,,,,,,,,,,,,,146,W,circle,1,0,,,,,,,,,,,,,,,,repeat,number,numRpt,d,Lo,,,,,,1.6665,5,,,,,,,,low,24,0,24,0,1,,,,,,,,,
294064,2022-11-30_12h46.58.773,vts_reward_expectancy_bt,2022.2.4,Win32,59.10165485,Chrome,1536,864,,,,,0,1267,,,,,,,,,,,,,,,,,139,D,star,1,0,,,,,,,,,,,,,,,,repeat,number,numRpt,d,Hi,,,,,,1.5343,5,,,,,,,,low,25,0,25,0,1,,,,,,,,,
294064,2022-11-30_12h46.58.773,vts_reward_expectancy_bt,2022.2.4,Win32,59.10165485,Chrome,1536,864,,,,,1,1268,,,,,,,,,,,,,,,,,167,Y,triangle,1,0,,,,,,,,,,,,,,,,repeat,number,numRpt,f,Lo,,,,,,0.7336,5,,,,,,,,low,26,0,26,0,1,,,,,,,,,
294064,2022-11-30_12h46.58.773,vts_reward_expectancy_bt,2022.2.4,Win32,59.10165485,Chrome,1536,864,,,,,0,1268,,,,,,,,,,,,,,,,,181,S,hexagon,1,0,,,,,,,,,,,,,,,,switch,letter,lettSwt,k,Hi,,,,,,1.0999,5,,,,,,,,low,27,0,27,0,1,,,,,,,,,
294064,2022-11-30_12h46.58.773,vts_reward_expectancy_bt,2022.2.4,Win32,59.10165485,Chrome,1536,864,,,,,1,1269,,,,,,,,,,,,,,,,,174,F,circle,1,0,,,,,,,,,,,,,,,,repeat,letter,lettRpt,j,Lo,,,,,,0.9837,5,,,,,,,,low,28,0,28,0,1,,,,,,,,,
294064,2022-11-30_12h46.58.773,vts_reward_expectancy_bt,2022.2.4,Win32,59.10165485,Chrome,1536,864,,,,,10,1279,,,,,,,,,,,,,,,,,132,B,triangle,1,0,,,,,,,,,,,,,,,,switch,number,numSwt,d,Lo,,,,,,0.9671,5,,,,,,,,low,29,0,29,0,1,,,,,,,,,
294064,2022-11-30_12h46.58.773,vts_reward_expectancy_bt,2022.2.4,Win32,59.10165485,Chrome,1536,864,,,,,0,1279,,,,,,,,,,,,,,,,,125,H,star,1,0,,,,,,,,,,,,,,,,switch,letter,lettSwt,j,Hi,,,,,,1.6997,5,,,,,,,,low,30,0,30,0,1,,,,,,,,,
294064,2022-11-30_12h46.58.773,vts_reward_expectancy_bt,2022.2.4,Win32,59.10165485,Chrome,1536,864,,,,,0,1279,,,,,,,,,,,,,,,,,160,U,hexagon,1,0,,,,,,,,,,,,,,,,repeat,letter,lettRpt,k,Hi,,,,,,1.9836,5,,,,,,,,low,31,0,31,0,1,,,,,,,,,
294064,2022-11-30_12h46.58.773,vts_reward_expectancy_bt,2022.2.4,Win32,59.10165485,Chrome,1536,864,,,,,1,1280,,,,,,,,,,,,,,,,,125,F,triangle,1,0,,,,,,,,,,,,,,,,repeat,letter,lettRpt,j,Lo,,,,,,0.7839,6,,,,,,space,0.8341,low,0,0,0,0,1,,,,,,,,,
294064,2022-11-30_12h46.58.773,vts_reward_expectancy_bt,2022.2.4,Win32,59.10165485,Chrome,1536,864,,,,,10,1290,,,,,,,,,,,,,,,,,139,U,hexagon,1,0,,,,,,,,,,,,,,,,repeat,letter,lettRpt,k,Hi,,,,,,0.7164,6,,,,,,,,low,1,0,1,0,1,,,,,,,,,
294064,2022-11-30_12h46.58.773,vts_reward_expectancy_bt,2022.2.4,Win32,59.10165485,Chrome,1536,864,,,,,10,1300,,,,,,,,,,,,,,,,,160,W,star,1,0,,,,,,,,,,,,,,,,repeat,letter,lettRpt,k,Hi,,,,,,0.5832,6,,,,,,,,low,2,0,2,0,1,,,,,,,,,
294064,2022-11-30_12h46.58.773,vts_reward_expectancy_bt,2022.2.4,Win32,59.10165485,Chrome,1536,864,,,,,10,1310,,,,,,,,,,,,,,,,,146,S,circle,1,0,,,,,,,,,,,,,,,,switch,number,numSwt,d,Lo,,,,,,0.5672,6,,,,,,,,low,3,0,3,0,1,,,,,,,,,
294064,2022-11-30_12h46.58.773,vts_reward_expectancy_bt,2022.2.4,Win32,59.10165485,Chrome,1536,864,,,,,1,1311,,,,,,,,,,,,,,,,,132,D,triangle,1,0,,,,,,,,,,,,,,,,repeat,number,numRpt,d,Lo,,,,,,0.7844,6,,,,,,,,low,4,0,4,0,1,,,,,,,,,
294064,2022-11-30_12h46.58.773,vts_reward_expectancy_bt,2022.2.4,Win32,59.10165485,Chrome,1536,864,,,,,10,1321,,,,,,,,,,,,,,,,,181,B,hexagon,1,0,,,,,,,,,,,,,,,,switch,letter,lettSwt,j,Hi,,,,,,1.1639,6,,,,,,,,low,5,0,5,0,1,,,,,,,,,
294064,2022-11-30_12h46.58.773,vts_reward_expectancy_bt,2022.2.4,Win32,59.10165485,Chrome,1536,864,,,,,0,1321,,,,,,,,,,,,,,,,,167,H,star,1,0,,,,,,,,,,,,,,,,repeat,letter,lettRpt,j,Hi,,,,,,0.9046,6,,,,,,,,low,6,0,6,0,1,,,,,,,,,
294064,2022-11-30_12h46.58.773,vts_reward_expectancy_bt,2022.2.4,Win32,59.10165485,Chrome,1536,864,,,,,1,1322,,,,,,,,,,,,,,,,,174,Y,circle,1,0,,,,,,,,,,,,,,,,repeat,letter,lettRpt,k,Lo,,,,,,0.6223,6,,,,,,,,low,7,0,7,0,1,,,,,,,,,
294064,2022-11-30_12h46.58.773,vts_reward_expectancy_bt,2022.2.4,Win32,59.10165485,Chrome,1536,864,,,,,1,1323,,,,,,,,,,,,,,,,,125,F,triangle,1,0,,,,,,,,,,,,,,,,repeat,letter,lettRpt,j,Lo,,,,,,0.8847,6,,,,,,,,low,8,0,8,0,1,,,,,,,,,
294064,2022-11-30_12h46.58.773,vts_reward_expectancy_bt,2022.2.4,Win32,59.10165485,Chrome,1536,864,,,,,1,1324,,,,,,,,,,,,,,,,,139,U,hexagon,1,0,,,,,,,,,,,,,,,,repeat,letter,lettRpt,k,Hi,,,,,,0.7138,6,,,,,,,,low,9,0,9,0,1,,,,,,,,,
294064,2022-11-30_12h46.58.773,vts_reward_expectancy_bt,2022.2.4,Win32,59.10165485,Chrome,1536,864,,,,,1,1325,,,,,,,,,,,,,,,,,160,W,circle,1,0,,,,,,,,,,,,,,,,repeat,letter,lettRpt,k,Lo,,,,,,0.952,6,,,,,,,,low,10,0,10,0,1,,,,,,,,,
294064,2022-11-30_12h46.58.773,vts_reward_expectancy_bt,2022.2.4,Win32,59.10165485,Chrome,1536,864,,,,,0,1325,,,,,,,,,,,,,,,,,146,S,star,1,0,,,,,,,,,,,,,,,,repeat,letter,lettRpt,k,Hi,,,,,,1.1978,6,,,,,,,,low,11,0,11,0,1,,,,,,,,,
294064,2022-11-30_12h46.58.773,vts_reward_expectancy_bt,2022.2.4,Win32,59.10165485,Chrome,1536,864,,,,,1,1326,,,,,,,,,,,,,,,,,132,D,circle,1,0,,,,,,,,,,,,,,,,repeat,letter,lettRpt,j,Lo,,,,,,0.9191,6,,,,,,,,low,12,0,12,0,1,,,,,,,,,
294064,2022-11-30_12h46.58.773,vts_reward_expectancy_bt,2022.2.4,Win32,59.10165485,Chrome,1536,864,,,,,0,1326,,,,,,,,,,,,,,,,,181,B,hexagon,1,0,,,,,,,,,,,,,,,,repeat,letter,lettRpt,j,Hi,,,,,,1.0153,6,,,,,,,,low,13,0,13,0,1,,,,,,,,,
294064,2022-11-30_12h46.58.773,vts_reward_expectancy_bt,2022.2.4,Win32,59.10165485,Chrome,1536,864,,,,,0,1326,,,,,,,,,,,,,,,,,167,H,star,1,0,,,,,,,,,,,,,,,,repeat,letter,lettRpt,j,Hi,,,,,,1.1144,6,,,,,,,,low,14,0,14,0,1,,,,,,,,,
294064,2022-11-30_12h46.58.773,vts_reward_expectancy_bt,2022.2.4,Win32,59.10165485,Chrome,1536,864,,,,,10,1336,,,,,,,,,,,,,,,,,174,Y,triangle,1,0,,,,,,,,,,,,,,,,repeat,letter,lettRpt,k,Lo,,,,,,0.7499,6,,,,,,,,low,15,0,15,0,1,,,,,,,,,
294064,2022-11-30_12h46.58.773,vts_reward_expectancy_bt,2022.2.4,Win32,59.10165485,Chrome,1536,864,,,,,1,1337,,,,,,,,,,,,,,,,,139,W,triangle,1,0,,,,,,,,,,,,,,,,repeat,letter,lettRpt,k,Lo,,,,,,0.6856,6,,,,,,,,low,16,0,16,0,1,,,,,,,,,
