participant,date,expName,psychopyVersion,OS,frameRate,browser,xResolution,yResolution,key_resp.keys,key_resp.rt,training_resp.keys,training_resp.rt,points_trial,points_cumul,trainBlock,training.thisRepN,training.thisTrialN,training.thisN,training.thisIndex,training.ran,LTriangleOpac,LCircleOpac,LHexagonOpac,LStarOpac,RTriangleOpac,RCircleOpac,RHexagonOpac,RStarOpac,LShape_ID,RShape_ID,curr_topStim,curr_bottStim,curr_shape,acc,E1,target_resp_prac1.keys,target_resp_prac1.rt,pracBlock,task1_prac_trials.thisRepN,task1_prac_trials.thisTrialN,task1_prac_trials.thisN,task1_prac_trials.thisIndex,task1_prac_trials.ran,target_resp_prac2.keys,target_resp_prac2.rt,task2_praac_trials.thisRepN,task2_praac_trials.thisTrialN,task2_praac_trials.thisN,task2_praac_trials.thisIndex,task2_praac_trials.ran,alt,task,condition,target_resp.keys,target_resp.rt,rewCond,vts_practice_trials.thisRepN,vts_practice_trials.thisTrialN,vts_practice_trials.thisN,vts_practice_trials.thisIndex,vts_practice_trials.ran,blockNum,trials_norew.thisRepN,trials_norew.thisTrialN,trials_norew.thisN,trials_norew.thisIndex,trials_norew.ran,key_resp_2.keys,key_resp_2.rt,rewExpectancy,trials_rew.thisRepN,trials_rew.thisTrialN,trials_rew.thisN,trials_rew.thisIndex,trials_rew.ran,Q1,Q2,Q2_text,Q3,Q4,Q5_text,Q5,xRes,yRes
294082,2022-11-29_09h59.10.668,vts_reward_expectancy_bt,2022.2.4,MacIntel,62.5,Safari,1440,900,,,,,,,,,,,,,,,,,,,,,,,,,,,,,,,,,,,,,,,,,,,,,,,,,,,,,,,,,,,,,,,,,,,,,,,,,,,,
294082,2022-11-29_09h59.10.668,vts_reward_expectancy_bt,2022.2.4,MacIntel,62.5,Safari,1440,900,space,9.996,,,,,,,,,,,,,,,,,,,,,,,,,,,,,,,,,,,,,,,,,,,,,,,,,,,,,,,,,,,,,,,,,,,,,,,,,,
294082,2022-11-29_09h59.10.668,vts_reward_expectancy_bt,2022.2.4,MacIntel,62.5,Safari,1440,900,,,,,,,,,,,,,,,,,,,,,,,,,,,,,,,,,,,,,,,,,,,,,,,,,,,,,,,,,,,,,,,,,,,,,,,,,,,,
294082,2022-11-29_09h59.10.668,vts_reward_expectancy_bt,2022.2.4,MacIntel,62.5,Safari,1440,900,,,a,1.188,1,1,0,0,0,0,5,1,0,1,0,0,0,0,0,1,circle,star,,,,,,,,,,,,,,,,,,,,,,,,,,,,,,,,,,,,,,,,,,,,,,,,,,,,,,
294082,2022-11-29_09h59.10.668,vts_reward_expectancy_bt,2022.2.4,MacIntel,62.5,Safari,1440,900,,,a,0.663,1,2,0,0,1,1,9,1,0,0,0,1,1,0,0,0,star,triangle,,,,,,,,,,,,,,,,,,,,,,,,,,,,,,,,,,,,,,,,,,,,,,,,,,,,,,
294082,2022-11-29_09h59.10.668,vts_reward_expectancy_bt,2022.2.4,MacIntel,62.5,Safari,1440,900,,,a,1.033,10,12,0,0,2,2,2,1,1,0,0,0,0,0,0,1,triangle,star,,,,,,,,,,,,,,,,,,,,,,,,,,,,,,,,,,,,,,,,,,,,,,,,,,,,,,
294082,2022-11-29_09h59.10.668,vts_reward_expectancy_bt,2022.2.4,MacIntel,62.5,Safari,1440,900,,,a,1.215,10,22,0,0,3,3,11,1,0,0,0,1,0,0,1,0,star,hexagon,,,,,,,,,,,,,,,,,,,,,,,,,,,,,,,,,,,,,,,,,,,,,,,,,,,,,,
294082,2022-11-29_09h59.10.668,vts_reward_expectancy_bt,2022.2.4,MacIntel,62.5,Safari,1440,900,,,l,1.615,1,23,0,0,4,4,7,1,0,0,1,0,0,1,0,0,hexagon,circle,,,,,,,,,,,,,,,,,,,,,,,,,,,,,,,,,,,,,,,,,,,,,,,,,,,,,,
294082,2022-11-29_09h59.10.668,vts_reward_expectancy_bt,2022.2.4,MacIntel,62.5,Safari,1440,900,,,l,3.57,10,33,0,0,5,5,6,1,0,0,1,0,1,0,0,0,hexagon,triangle,,,,,,,,,,,,,,,,,,,,,,,,,,,,,,,,,,,,,,,,,,,,,,,,,,,,,,
294082,2022-11-29_09h59.10.668,vts_reward_expectancy_bt,2022.2.4,MacIntel,62.5,Safari,1440,900,,,a,1.514,10,43,0,0,6,6,10,1,0,0,0,1,0,1,0,0,star ,circle,,,,,,,,,,,,,,,,,,,,,,,,,,,,,,,,,,,,,,,,,,,,,,,,,,,,,,
294082,2022-11-29_09h59.10.668,vts_reward_expectancy_bt,2022.2.4,MacIntel,62.5,Safari,1440,900,,,l,0.765,10,53,0,0,7,7,8,1,0,0,1,0,0,0,0,1,hexagon,star,,,,,,,,,,,,,,,,,,,,,,,,,,,,,,,,,,,,,,,,,,,,,,,,,,,,,,
294082,2022-11-29_09h59.10.668,vts_reward_expectancy_bt,2022.2.4,MacIntel,62.5,Safari,1440,900,,,a,1.89,10,63,0,0,8,8,4,1,0,1,0,0,0,0,1,0,circle,hexagon,,,,,,,,,,,,,,,,,,,,,,,,,,,,,,,,,,,,,,,,,,,,,,,,,,,,,,
294082,2022-11-29_09h59.10.668,vts_reward_expectancy_bt,2022.2.4,MacIntel,62.5,Safari,1440,900,,,a,1.42,1,64,0,0,9,9,1,1,1,0,0,0,0,0,1,0,triangle,hexagon,,,,,,,,,,,,,,,,,,,,,,,,,,,,,,,,,,,,,,,,,,,,,,,,,,,,,,
294082,2022-11-29_09h59.10.668,vts_reward_expectancy_bt,2022.2.4,MacIntel,62.5,Safari,1440,900,,,a,1.102,10,74,0,0,10,10,3,1,0,1,0,0,1,0,0,0,circle,triangle,,,,,,,,,,,,,,,,,,,,,,,,,,,,,,,,,,,,,,,,,,,,,,,,,,,,,,
294082,2022-11-29_09h59.10.668,vts_reward_expectancy_bt,2022.2.4,MacIntel,62.5,Safari,1440,900,,,l,1.221,10,84,0,0,11,11,0,1,1,0,0,0,0,1,0,0,triangle,circle,,,,,,,,,,,,,,,,,,,,,,,,,,,,,,,,,,,,,,,,,,,,,,,,,,,,,,
294082,2022-11-29_09h59.10.668,vts_reward_expectancy_bt,2022.2.4,MacIntel,62.5,Safari,1440,900,,,a,0.783,10,94,0,1,0,12,11,1,0,0,0,1,0,0,1,0,star,hexagon,,,,,,,,,,,,,,,,,,,,,,,,,,,,,,,,,,,,,,,,,,,,,,,,,,,,,,
294082,2022-11-29_09h59.10.668,vts_reward_expectancy_bt,2022.2.4,MacIntel,62.5,Safari,1440,900,,,a,1.132,1,95,0,1,1,13,0,1,1,0,0,0,0,1,0,0,triangle,circle,,,,,,,,,,,,,,,,,,,,,,,,,,,,,,,,,,,,,,,,,,,,,,,,,,,,,,
294082,2022-11-29_09h59.10.668,vts_reward_expectancy_bt,2022.2.4,MacIntel,62.5,Safari,1440,900,,,l,1.072,10,105,0,1,2,14,9,1,0,0,0,1,1,0,0,0,star,triangle,,,,,,,,,,,,,,,,,,,,,,,,,,,,,,,,,,,,,,,,,,,,,,,,,,,,,,
294082,2022-11-29_09h59.10.668,vts_reward_expectancy_bt,2022.2.4,MacIntel,62.5,Safari,1440,900,,,a,1.336,10,115,0,1,3,15,10,1,0,0,0,1,0,1,0,0,star ,circle,,,,,,,,,,,,,,,,,,,,,,,,,,,,,,,,,,,,,,,,,,,,,,,,,,,,,,
294082,2022-11-29_09h59.10.668,vts_reward_expectancy_bt,2022.2.4,MacIntel,62.5,Safari,1440,900,,,a,1.897,1,116,0,1,4,16,4,1,0,1,0,0,0,0,1,0,circle,hexagon,,,,,,,,,,,,,,,,,,,,,,,,,,,,,,,,,,,,,,,,,,,,,,,,,,,,,,
294082,2022-11-29_09h59.10.668,vts_reward_expectancy_bt,2022.2.4,MacIntel,62.5,Safari,1440,900,,,l,1.003,10,126,0,1,5,17,8,1,0,0,1,0,0,0,0,1,hexagon,star,,,,,,,,,,,,,,,,,,,,,,,,,,,,,,,,,,,,,,,,,,,,,,,,,,,,,,
294082,2022-11-29_09h59.10.668,vts_reward_expectancy_bt,2022.2.4,MacIntel,62.5,Safari,1440,900,,,l,1.315,1,127,0,1,6,18,7,1,0,0,1,0,0,1,0,0,hexagon,circle,,,,,,,,,,,,,,,,,,,,,,,,,,,,,,,,,,,,,,,,,,,,,,,,,,,,,,
294082,2022-11-29_09h59.10.668,vts_reward_expectancy_bt,2022.2.4,MacIntel,62.5,Safari,1440,900,,,l,1.283,1,128,0,1,7,19,6,1,0,0,1,0,1,0,0,0,hexagon,triangle,,,,,,,,,,,,,,,,,,,,,,,,,,,,,,,,,,,,,,,,,,,,,,,,,,,,,,
294082,2022-11-29_09h59.10.668,vts_reward_expectancy_bt,2022.2.4,MacIntel,62.5,Safari,1440,900,,,a,1.082,1,129,0,1,8,20,3,1,0,1,0,0,1,0,0,0,circle,triangle,,,,,,,,,,,,,,,,,,,,,,,,,,,,,,,,,,,,,,,,,,,,,,,,,,,,,,
294082,2022-11-29_09h59.10.668,vts_reward_expectancy_bt,2022.2.4,MacIntel,62.5,Safari,1440,900,,,l,0.683,10,139,0,1,9,21,2,1,1,0,0,0,0,0,0,1,triangle,star,,,,,,,,,,,,,,,,,,,,,,,,,,,,,,,,,,,,,,,,,,,,,,,,,,,,,,
294082,2022-11-29_09h59.10.668,vts_reward_expectancy_bt,2022.2.4,MacIntel,62.5,Safari,1440,900,,,l,1.658,1,140,0,1,10,22,1,1,1,0,0,0,0,0,1,0,triangle,hexagon,,,,,,,,,,,,,,,,,,,,,,,,,,,,,,,,,,,,,,,,,,,,,,,,,,,,,,
294082,2022-11-29_09h59.10.668,vts_reward_expectancy_bt,2022.2.4,MacIntel,62.5,Safari,1440,900,,,l,0.787,10,150,0,1,11,23,5,1,0,1,0,0,0,0,0,1,circle,star,,,,,,,,,,,,,,,,,,,,,,,,,,,,,,,,,,,,,,,,,,,,,,,,,,,,,,
294082,2022-11-29_09h59.10.668,vts_reward_expectancy_bt,2022.2.4,MacIntel,62.5,Safari,1440,900,,,l,1.317,1,151,0,2,0,24,4,1,0,1,0,0,0,0,1,0,circle,hexagon,,,,,,,,,,,,,,,,,,,,,,,,,,,,,,,,,,,,,,,,,,,,,,,,,,,,,,
294082,2022-11-29_09h59.10.668,vts_reward_expectancy_bt,2022.2.4,MacIntel,62.5,Safari,1440,900,,,a,0.815,1,152,0,2,1,25,11,1,0,0,0,1,0,0,1,0,star,hexagon,,,,,,,,,,,,,,,,,,,,,,,,,,,,,,,,,,,,,,,,,,,,,,,,,,,,,,
294082,2022-11-29_09h59.10.668,vts_reward_expectancy_bt,2022.2.4,MacIntel,62.5,Safari,1440,900,,,a,1.136,1,153,0,2,2,26,0,1,1,0,0,0,0,1,0,0,triangle,circle,,,,,,,,,,,,,,,,,,,,,,,,,,,,,,,,,,,,,,,,,,,,,,,,,,,,,,
294082,2022-11-29_09h59.10.668,vts_reward_expectancy_bt,2022.2.4,MacIntel,62.5,Safari,1440,900,,,l,0.738,10,163,0,2,3,27,8,1,0,0,1,0,0,0,0,1,hexagon,star,,,,,,,,,,,,,,,,,,,,,,,,,,,,,,,,,,,,,,,,,,,,,,,,,,,,,,
294082,2022-11-29_09h59.10.668,vts_reward_expectancy_bt,2022.2.4,MacIntel,62.5,Safari,1440,900,,,a,1.088,10,173,0,2,4,28,10,1,0,0,0,1,0,1,0,0,star ,circle,,,,,,,,,,,,,,,,,,,,,,,,,,,,,,,,,,,,,,,,,,,,,,,,,,,,,,
294082,2022-11-29_09h59.10.668,vts_reward_expectancy_bt,2022.2.4,MacIntel,62.5,Safari,1440,900,,,l,1.4,10,183,0,2,5,29,3,1,0,1,0,0,1,0,0,0,circle,triangle,,,,,,,,,,,,,,,,,,,,,,,,,,,,,,,,,,,,,,,,,,,,,,,,,,,,,,
294082,2022-11-29_09h59.10.668,vts_reward_expectancy_bt,2022.2.4,MacIntel,62.5,Safari,1440,900,,,l,1.436,10,193,0,2,6,30,7,1,0,0,1,0,0,1,0,0,hexagon,circle,,,,,,,,,,,,,,,,,,,,,,,,,,,,,,,,,,,,,,,,,,,,,,,,,,,,,,
294082,2022-11-29_09h59.10.668,vts_reward_expectancy_bt,2022.2.4,MacIntel,62.5,Safari,1440,900,,,l,1.065,10,203,0,2,7,31,5,1,0,1,0,0,0,0,0,1,circle,star,,,,,,,,,,,,,,,,,,,,,,,,,,,,,,,,,,,,,,,,,,,,,,,,,,,,,,
294082,2022-11-29_09h59.10.668,vts_reward_expectancy_bt,2022.2.4,MacIntel,62.5,Safari,1440,900,,,a,1.5,10,213,0,2,8,32,1,1,1,0,0,0,0,0,1,0,triangle,hexagon,,,,,,,,,,,,,,,,,,,,,,,,,,,,,,,,,,,,,,,,,,,,,,,,,,,,,,
294082,2022-11-29_09h59.10.668,vts_reward_expectancy_bt,2022.2.4,MacIntel,62.5,Safari,1440,900,,,l,1.517,1,214,0,2,9,33,9,1,0,0,0,1,1,0,0,0,star,triangle,,,,,,,,,,,,,,,,,,,,,,,,,,,,,,,,,,,,,,,,,,,,,,,,,,,,,,
294082,2022-11-29_09h59.10.668,vts_reward_expectancy_bt,2022.2.4,MacIntel,62.5,Safari,1440,900,,,a,0.884,1,215,0,2,10,34,6,1,0,0,1,0,1,0,0,0,hexagon,triangle,,,,,,,,,,,,,,,,,,,,,,,,,,,,,,,,,,,,,,,,,,,,,,,,,,,,,,
294082,2022-11-29_09h59.10.668,vts_reward_expectancy_bt,2022.2.4,MacIntel,62.5,Safari,1440,900,,,l,1.216,10,225,0,2,11,35,2,1,1,0,0,0,0,0,0,1,triangle,star,,,,,,,,,,,,,,,,,,,,,,,,,,,,,,,,,,,,,,,,,,,,,,,,,,,,,,
294082,2022-11-29_09h59.10.668,vts_reward_expectancy_bt,2022.2.4,MacIntel,62.5,Safari,1440,900,,,l,1.373,1,226,1,0,0,0,10,1,0,0,0,1,0,1,0,0,star ,circle,,,,,,,,,,,,,,,,,,,,,,,,,,,,,,,,,,,,,,,,,,,,,,,,,,,,,,
294082,2022-11-29_09h59.10.668,vts_reward_expectancy_bt,2022.2.4,MacIntel,62.5,Safari,1440,900,,,l,1.433,10,236,1,0,1,1,6,1,0,0,1,0,1,0,0,0,hexagon,triangle,,,,,,,,,,,,,,,,,,,,,,,,,,,,,,,,,,,,,,,,,,,,,,,,,,,,,,
294082,2022-11-29_09h59.10.668,vts_reward_expectancy_bt,2022.2.4,MacIntel,62.5,Safari,1440,900,,,l,0.817,10,246,1,0,2,2,8,1,0,0,1,0,0,0,0,1,hexagon,star,,,,,,,,,,,,,,,,,,,,,,,,,,,,,,,,,,,,,,,,,,,,,,,,,,,,,,
294082,2022-11-29_09h59.10.668,vts_reward_expectancy_bt,2022.2.4,MacIntel,62.5,Safari,1440,900,,,a,1.1,10,256,1,0,3,3,4,1,0,1,0,0,0,0,1,0,circle,hexagon,,,,,,,,,,,,,,,,,,,,,,,,,,,,,,,,,,,,,,,,,,,,,,,,,,,,,,
294082,2022-11-29_09h59.10.668,vts_reward_expectancy_bt,2022.2.4,MacIntel,62.5,Safari,1440,900,,,l,1.433,10,266,1,0,4,4,5,1,0,1,0,0,0,0,0,1,circle,star,,,,,,,,,,,,,,,,,,,,,,,,,,,,,,,,,,,,,,,,,,,,,,,,,,,,,,
294082,2022-11-29_09h59.10.668,vts_reward_expectancy_bt,2022.2.4,MacIntel,62.5,Safari,1440,900,,,a,1.418,1,267,1,0,5,5,2,1,1,0,0,0,0,0,0,1,triangle,star,,,,,,,,,,,,,,,,,,,,,,,,,,,,,,,,,,,,,,,,,,,,,,,,,,,,,,
294082,2022-11-29_09h59.10.668,vts_reward_expectancy_bt,2022.2.4,MacIntel,62.5,Safari,1440,900,,,l,1.133,10,277,1,0,6,6,11,1,0,0,0,1,0,0,1,0,star,hexagon,,,,,,,,,,,,,,,,,,,,,,,,,,,,,,,,,,,,,,,,,,,,,,,,,,,,,,
294082,2022-11-29_09h59.10.668,vts_reward_expectancy_bt,2022.2.4,MacIntel,62.5,Safari,1440,900,,,l,0.882,10,287,1,0,7,7,0,1,1,0,0,0,0,1,0,0,triangle,circle,,,,,,,,,,,,,,,,,,,,,,,,,,,,,,,,,,,,,,,,,,,,,,,,,,,,,,
294082,2022-11-29_09h59.10.668,vts_reward_expectancy_bt,2022.2.4,MacIntel,62.5,Safari,1440,900,,,a,1.237,1,288,1,0,8,8,1,1,1,0,0,0,0,0,1,0,triangle,hexagon,,,,,,,,,,,,,,,,,,,,,,,,,,,,,,,,,,,,,,,,,,,,,,,,,,,,,,
294082,2022-11-29_09h59.10.668,vts_reward_expectancy_bt,2022.2.4,MacIntel,62.5,Safari,1440,900,,,l,1.464,1,289,1,0,9,9,3,1,0,1,0,0,1,0,0,0,circle,triangle,,,,,,,,,,,,,,,,,,,,,,,,,,,,,,,,,,,,,,,,,,,,,,,,,,,,,,
294082,2022-11-29_09h59.10.668,vts_reward_expectancy_bt,2022.2.4,MacIntel,62.5,Safari,1440,900,,,a,0.799,1,290,1,0,10,10,9,1,0,0,0,1,1,0,0,0,star,triangle,,,,,,,,,,,,,,,,,,,,,,,,,,,,,,,,,,,,,,,,,,,,,,,,,,,,,,
294082,2022-11-29_09h59.10.668,vts_reward_expectancy_bt,2022.2.4,MacIntel,62.5,Safari,1440,900,,,a,0.865,10,300,1,0,11,11,7,1,0,0,1,0,0,1,0,0,hexagon,circle,,,,,,,,,,,,,,,,,,,,,,,,,,,,,,,,,,,,,,,,,,,,,,,,,,,,,,
294082,2022-11-29_09h59.10.668,vts_reward_expectancy_bt,2022.2.4,MacIntel,62.5,Safari,1440,900,,,l,1.057,1,301,1,1,0,12,5,1,0,1,0,0,0,0,0,1,circle,star,,,,,,,,,,,,,,,,,,,,,,,,,,,,,,,,,,,,,,,,,,,,,,,,,,,,,,
294082,2022-11-29_09h59.10.668,vts_reward_expectancy_bt,2022.2.4,MacIntel,62.5,Safari,1440,900,,,l,3.768,1,302,1,1,1,13,4,1,0,1,0,0,0,0,1,0,circle,hexagon,,,,,,,,,,,,,,,,,,,,,,,,,,,,,,,,,,,,,,,,,,,,,,,,,,,,,,
294082,2022-11-29_09h59.10.668,vts_reward_expectancy_bt,2022.2.4,MacIntel,62.5,Safari,1440,900,,,a,0.917,1,303,1,1,2,14,9,1,0,0,0,1,1,0,0,0,star,triangle,,,,,,,,,,,,,,,,,,,,,,,,,,,,,,,,,,,,,,,,,,,,,,,,,,,,,,
294082,2022-11-29_09h59.10.668,vts_reward_expectancy_bt,2022.2.4,MacIntel,62.5,Safari,1440,900,,,l,1.201,10,313,1,1,3,15,2,1,1,0,0,0,0,0,0,1,triangle,star,,,,,,,,,,,,,,,,,,,,,,,,,,,,,,,,,,,,,,,,,,,,,,,,,,,,,,
294082,2022-11-29_09h59.10.668,vts_reward_expectancy_bt,2022.2.4,MacIntel,62.5,Safari,1440,900,,,l,1.288,10,323,1,1,4,16,8,1,0,0,1,0,0,0,0,1,hexagon,star,,,,,,,,,,,,,,,,,,,,,,,,,,,,,,,,,,,,,,,,,,,,,,,,,,,,,,
294082,2022-11-29_09h59.10.668,vts_reward_expectancy_bt,2022.2.4,MacIntel,62.5,Safari,1440,900,,,l,1.259,1,324,1,1,5,17,6,1,0,0,1,0,1,0,0,0,hexagon,triangle,,,,,,,,,,,,,,,,,,,,,,,,,,,,,,,,,,,,,,,,,,,,,,,,,,,,,,
294082,2022-11-29_09h59.10.668,vts_reward_expectancy_bt,2022.2.4,MacIntel,62.5,Safari,1440,900,,,a,2.152,10,334,1,1,6,18,11,1,0,0,0,1,0,0,1,0,star,hexagon,,,,,,,,,,,,,,,,,,,,,,,,,,,,,,,,,,,,,,,,,,,,,,,,,,,,,,
294082,2022-11-29_09h59.10.668,vts_reward_expectancy_bt,2022.2.4,MacIntel,62.5,Safari,1440,900,,,a,1.052,10,344,1,1,7,19,10,1,0,0,0,1,0,1,0,0,star ,circle,,,,,,,,,,,,,,,,,,,,,,,,,,,,,,,,,,,,,,,,,,,,,,,,,,,,,,
294082,2022-11-29_09h59.10.668,vts_reward_expectancy_bt,2022.2.4,MacIntel,62.5,Safari,1440,900,,,l,0.805,1,345,1,1,8,20,3,1,0,1,0,0,1,0,0,0,circle,triangle,,,,,,,,,,,,,,,,,,,,,,,,,,,,,,,,,,,,,,,,,,,,,,,,,,,,,,
294082,2022-11-29_09h59.10.668,vts_reward_expectancy_bt,2022.2.4,MacIntel,62.5,Safari,1440,900,,,a,0.683,1,346,1,1,9,21,7,1,0,0,1,0,0,1,0,0,hexagon,circle,,,,,,,,,,,,,,,,,,,,,,,,,,,,,,,,,,,,,,,,,,,,,,,,,,,,,,
294082,2022-11-29_09h59.10.668,vts_reward_expectancy_bt,2022.2.4,MacIntel,62.5,Safari,1440,900,,,l,1.584,1,347,1,1,10,22,0,1,1,0,0,0,0,1,0,0,triangle,circle,,,,,,,,,,,,,,,,,,,,,,,,,,,,,,,,,,,,,,,,,,,,,,,,,,,,,,
294082,2022-11-29_09h59.10.668,vts_reward_expectancy_bt,2022.2.4,MacIntel,62.5,Safari,1440,900,,,a,0.625,10,357,1,1,11,23,1,1,1,0,0,0,0,0,1,0,triangle,hexagon,,,,,,,,,,,,,,,,,,,,,,,,,,,,,,,,,,,,,,,,,,,,,,,,,,,,,,
294082,2022-11-29_09h59.10.668,vts_reward_expectancy_bt,2022.2.4,MacIntel,62.5,Safari,1440,900,,,a,0.699,1,358,1,2,0,24,9,1,0,0,0,1,1,0,0,0,star,triangle,,,,,,,,,,,,,,,,,,,,,,,,,,,,,,,,,,,,,,,,,,,,,,,,,,,,,,
294082,2022-11-29_09h59.10.668,vts_reward_expectancy_bt,2022.2.4,MacIntel,62.5,Safari,1440,900,,,l,1.3,10,368,1,2,1,25,0,1,1,0,0,0,0,1,0,0,triangle,circle,,,,,,,,,,,,,,,,,,,,,,,,,,,,,,,,,,,,,,,,,,,,,,,,,,,,,,
294082,2022-11-29_09h59.10.668,vts_reward_expectancy_bt,2022.2.4,MacIntel,62.5,Safari,1440,900,,,l,1.151,10,378,1,2,2,26,7,1,0,0,1,0,0,1,0,0,hexagon,circle,,,,,,,,,,,,,,,,,,,,,,,,,,,,,,,,,,,,,,,,,,,,,,,,,,,,,,
294082,2022-11-29_09h59.10.668,vts_reward_expectancy_bt,2022.2.4,MacIntel,62.5,Safari,1440,900,,,l,0.818,1,379,1,2,3,27,1,1,1,0,0,0,0,0,1,0,triangle,hexagon,,,,,,,,,,,,,,,,,,,,,,,,,,,,,,,,,,,,,,,,,,,,,,,,,,,,,,
294082,2022-11-29_09h59.10.668,vts_reward_expectancy_bt,2022.2.4,MacIntel,62.5,Safari,1440,900,,,a,1.09,10,389,1,2,4,28,4,1,0,1,0,0,0,0,1,0,circle,hexagon,,,,,,,,,,,,,,,,,,,,,,,,,,,,,,,,,,,,,,,,,,,,,,,,,,,,,,
294082,2022-11-29_09h59.10.668,vts_reward_expectancy_bt,2022.2.4,MacIntel,62.5,Safari,1440,900,,,l,0.75,1,390,1,2,5,29,2,1,1,0,0,0,0,0,0,1,triangle,star,,,,,,,,,,,,,,,,,,,,,,,,,,,,,,,,,,,,,,,,,,,,,,,,,,,,,,
294082,2022-11-29_09h59.10.668,vts_reward_expectancy_bt,2022.2.4,MacIntel,62.5,Safari,1440,900,,,a,0.783,1,391,1,2,6,30,6,1,0,0,1,0,1,0,0,0,hexagon,triangle,,,,,,,,,,,,,,,,,,,,,,,,,,,,,,,,,,,,,,,,,,,,,,,,,,,,,,
294082,2022-11-29_09h59.10.668,vts_reward_expectancy_bt,2022.2.4,MacIntel,62.5,Safari,1440,900,,,l,1.027,10,401,1,2,7,31,8,1,0,0,1,0,0,0,0,1,hexagon,star,,,,,,,,,,,,,,,,,,,,,,,,,,,,,,,,,,,,,,,,,,,,,,,,,,,,,,
294082,2022-11-29_09h59.10.668,vts_reward_expectancy_bt,2022.2.4,MacIntel,62.5,Safari,1440,900,,,a,0.804,1,402,1,2,8,32,11,1,0,0,0,1,0,0,1,0,star,hexagon,,,,,,,,,,,,,,,,,,,,,,,,,,,,,,,,,,,,,,,,,,,,,,,,,,,,,,
294082,2022-11-29_09h59.10.668,vts_reward_expectancy_bt,2022.2.4,MacIntel,62.5,Safari,1440,900,,,a,0.786,10,412,1,2,9,33,3,1,0,1,0,0,1,0,0,0,circle,triangle,,,,,,,,,,,,,,,,,,,,,,,,,,,,,,,,,,,,,,,,,,,,,,,,,,,,,,
294082,2022-11-29_09h59.10.668,vts_reward_expectancy_bt,2022.2.4,MacIntel,62.5,Safari,1440,900,,,a,0.867,10,422,1,2,10,34,10,1,0,0,0,1,0,1,0,0,star ,circle,,,,,,,,,,,,,,,,,,,,,,,,,,,,,,,,,,,,,,,,,,,,,,,,,,,,,,
294082,2022-11-29_09h59.10.668,vts_reward_expectancy_bt,2022.2.4,MacIntel,62.5,Safari,1440,900,,,l,1.933,10,432,1,2,11,35,5,1,0,1,0,0,0,0,0,1,circle,star,,,,,,,,,,,,,,,,,,,,,,,,,,,,,,,,,,,,,,,,,,,,,,,,,,,,,,
294082,2022-11-29_09h59.10.668,vts_reward_expectancy_bt,2022.2.4,MacIntel,62.5,Safari,1440,900,,,l,1.64,10,442,2,0,0,0,6,1,0,0,1,0,1,0,0,0,hexagon,triangle,,,,,,,,,,,,,,,,,,,,,,,,,,,,,,,,,,,,,,,,,,,,,,,,,,,,,,
294082,2022-11-29_09h59.10.668,vts_reward_expectancy_bt,2022.2.4,MacIntel,62.5,Safari,1440,900,,,l,0.917,10,452,2,0,1,1,2,1,1,0,0,0,0,0,0,1,triangle,star,,,,,,,,,,,,,,,,,,,,,,,,,,,,,,,,,,,,,,,,,,,,,,,,,,,,,,
294082,2022-11-29_09h59.10.668,vts_reward_expectancy_bt,2022.2.4,MacIntel,62.5,Safari,1440,900,,,a,1.95,10,462,2,0,2,2,3,1,0,1,0,0,1,0,0,0,circle,triangle,,,,,,,,,,,,,,,,,,,,,,,,,,,,,,,,,,,,,,,,,,,,,,,,,,,,,,
294082,2022-11-29_09h59.10.668,vts_reward_expectancy_bt,2022.2.4,MacIntel,62.5,Safari,1440,900,,,l,1.567,10,472,2,0,3,3,7,1,0,0,1,0,0,1,0,0,hexagon,circle,,,,,,,,,,,,,,,,,,,,,,,,,,,,,,,,,,,,,,,,,,,,,,,,,,,,,,
294082,2022-11-29_09h59.10.668,vts_reward_expectancy_bt,2022.2.4,MacIntel,62.5,Safari,1440,900,,,l,1.592,1,473,2,0,4,4,4,1,0,1,0,0,0,0,1,0,circle,hexagon,,,,,,,,,,,,,,,,,,,,,,,,,,,,,,,,,,,,,,,,,,,,,,,,,,,,,,
294082,2022-11-29_09h59.10.668,vts_reward_expectancy_bt,2022.2.4,MacIntel,62.5,Safari,1440,900,,,a,1.55,10,483,2,0,5,5,11,1,0,0,0,1,0,0,1,0,star,hexagon,,,,,,,,,,,,,,,,,,,,,,,,,,,,,,,,,,,,,,,,,,,,,,,,,,,,,,
294082,2022-11-29_09h59.10.668,vts_reward_expectancy_bt,2022.2.4,MacIntel,62.5,Safari,1440,900,,,l,1.333,10,493,2,0,6,6,10,1,0,0,0,1,0,1,0,0,star ,circle,,,,,,,,,,,,,,,,,,,,,,,,,,,,,,,,,,,,,,,,,,,,,,,,,,,,,,
294082,2022-11-29_09h59.10.668,vts_reward_expectancy_bt,2022.2.4,MacIntel,62.5,Safari,1440,900,,,l,2,10,503,2,0,7,7,5,1,0,1,0,0,0,0,0,1,circle,star,,,,,,,,,,,,,,,,,,,,,,,,,,,,,,,,,,,,,,,,,,,,,,,,,,,,,,
294082,2022-11-29_09h59.10.668,vts_reward_expectancy_bt,2022.2.4,MacIntel,62.5,Safari,1440,900,,,a,2.116,10,513,2,0,8,8,0,1,1,0,0,0,0,1,0,0,triangle,circle,,,,,,,,,,,,,,,,,,,,,,,,,,,,,,,,,,,,,,,,,,,,,,,,,,,,,,
294082,2022-11-29_09h59.10.668,vts_reward_expectancy_bt,2022.2.4,MacIntel,62.5,Safari,1440,900,,,a,0.968,1,514,2,0,9,9,9,1,0,0,0,1,1,0,0,0,star,triangle,,,,,,,,,,,,,,,,,,,,,,,,,,,,,,,,,,,,,,,,,,,,,,,,,,,,,,
294082,2022-11-29_09h59.10.668,vts_reward_expectancy_bt,2022.2.4,MacIntel,62.5,Safari,1440,900,,,l,1.197,10,524,2,0,10,10,8,1,0,0,1,0,0,0,0,1,hexagon,star,,,,,,,,,,,,,,,,,,,,,,,,,,,,,,,,,,,,,,,,,,,,,,,,,,,,,,
294082,2022-11-29_09h59.10.668,vts_reward_expectancy_bt,2022.2.4,MacIntel,62.5,Safari,1440,900,,,a,1.318,1,525,2,0,11,11,1,1,1,0,0,0,0,0,1,0,triangle,hexagon,,,,,,,,,,,,,,,,,,,,,,,,,,,,,,,,,,,,,,,,,,,,,,,,,,,,,,
294082,2022-11-29_09h59.10.668,vts_reward_expectancy_bt,2022.2.4,MacIntel,62.5,Safari,1440,900,,,l,1.313,10,535,2,1,0,12,5,1,0,1,0,0,0,0,0,1,circle,star,,,,,,,,,,,,,,,,,,,,,,,,,,,,,,,,,,,,,,,,,,,,,,,,,,,,,,
294082,2022-11-29_09h59.10.668,vts_reward_expectancy_bt,2022.2.4,MacIntel,62.5,Safari,1440,900,,,l,1.385,1,536,2,1,1,13,11,1,0,0,0,1,0,0,1,0,star,hexagon,,,,,,,,,,,,,,,,,,,,,,,,,,,,,,,,,,,,,,,,,,,,,,,,,,,,,,
294082,2022-11-29_09h59.10.668,vts_reward_expectancy_bt,2022.2.4,MacIntel,62.5,Safari,1440,900,,,l,1.182,1,537,2,1,2,14,9,1,0,0,0,1,1,0,0,0,star,triangle,,,,,,,,,,,,,,,,,,,,,,,,,,,,,,,,,,,,,,,,,,,,,,,,,,,,,,
294082,2022-11-29_09h59.10.668,vts_reward_expectancy_bt,2022.2.4,MacIntel,62.5,Safari,1440,900,,,l,2.083,10,547,2,1,3,15,1,1,1,0,0,0,0,0,1,0,triangle,hexagon,,,,,,,,,,,,,,,,,,,,,,,,,,,,,,,,,,,,,,,,,,,,,,,,,,,,,,
294082,2022-11-29_09h59.10.668,vts_reward_expectancy_bt,2022.2.4,MacIntel,62.5,Safari,1440,900,,,a,2.541,10,557,2,1,4,16,0,1,1,0,0,0,0,1,0,0,triangle,circle,,,,,,,,,,,,,,,,,,,,,,,,,,,,,,,,,,,,,,,,,,,,,,,,,,,,,,
294082,2022-11-29_09h59.10.668,vts_reward_expectancy_bt,2022.2.4,MacIntel,62.5,Safari,1440,900,,,l,1.433,1,558,2,1,5,17,8,1,0,0,1,0,0,0,0,1,hexagon,star,,,,,,,,,,,,,,,,,,,,,,,,,,,,,,,,,,,,,,,,,,,,,,,,,,,,,,
294082,2022-11-29_09h59.10.668,vts_reward_expectancy_bt,2022.2.4,MacIntel,62.5,Safari,1440,900,,,a,0.916,1,559,2,1,6,18,3,1,0,1,0,0,1,0,0,0,circle,triangle,,,,,,,,,,,,,,,,,,,,,,,,,,,,,,,,,,,,,,,,,,,,,,,,,,,,,,
294082,2022-11-29_09h59.10.668,vts_reward_expectancy_bt,2022.2.4,MacIntel,62.5,Safari,1440,900,,,a,0.583,1,560,2,1,7,19,7,1,0,0,1,0,0,1,0,0,hexagon,circle,,,,,,,,,,,,,,,,,,,,,,,,,,,,,,,,,,,,,,,,,,,,,,,,,,,,,,
294082,2022-11-29_09h59.10.668,vts_reward_expectancy_bt,2022.2.4,MacIntel,62.5,Safari,1440,900,,,a,0.64,1,561,2,1,8,20,10,1,0,0,0,1,0,1,0,0,star ,circle,,,,,,,,,,,,,,,,,,,,,,,,,,,,,,,,,,,,,,,,,,,,,,,,,,,,,,
294082,2022-11-29_09h59.10.668,vts_reward_expectancy_bt,2022.2.4,MacIntel,62.5,Safari,1440,900,,,l,1.274,1,562,2,1,9,21,6,1,0,0,1,0,1,0,0,0,hexagon,triangle,,,,,,,,,,,,,,,,,,,,,,,,,,,,,,,,,,,,,,,,,,,,,,,,,,,,,,
294082,2022-11-29_09h59.10.668,vts_reward_expectancy_bt,2022.2.4,MacIntel,62.5,Safari,1440,900,,,l,1.15,1,563,2,1,10,22,4,1,0,1,0,0,0,0,1,0,circle,hexagon,,,,,,,,,,,,,,,,,,,,,,,,,,,,,,,,,,,,,,,,,,,,,,,,,,,,,,
294082,2022-11-29_09h59.10.668,vts_reward_expectancy_bt,2022.2.4,MacIntel,62.5,Safari,1440,900,,,l,3.167,1,564,2,1,11,23,2,1,1,0,0,0,0,0,0,1,triangle,star,,,,,,,,,,,,,,,,,,,,,,,,,,,,,,,,,,,,,,,,,,,,,,,,,,,,,,
294082,2022-11-29_09h59.10.668,vts_reward_expectancy_bt,2022.2.4,MacIntel,62.5,Safari,1440,900,,,l,0.999,1,565,2,2,0,24,7,1,0,0,1,0,0,1,0,0,hexagon,circle,,,,,,,,,,,,,,,,,,,,,,,,,,,,,,,,,,,,,,,,,,,,,,,,,,,,,,
294082,2022-11-29_09h59.10.668,vts_reward_expectancy_bt,2022.2.4,MacIntel,62.5,Safari,1440,900,,,a,0.649,1,566,2,2,1,25,11,1,0,0,0,1,0,0,1,0,star,hexagon,,,,,,,,,,,,,,,,,,,,,,,,,,,,,,,,,,,,,,,,,,,,,,,,,,,,,,
294082,2022-11-29_09h59.10.668,vts_reward_expectancy_bt,2022.2.4,MacIntel,62.5,Safari,1440,900,,,l,2.37,10,576,2,2,2,26,5,1,0,1,0,0,0,0,0,1,circle,star,,,,,,,,,,,,,,,,,,,,,,,,,,,,,,,,,,,,,,,,,,,,,,,,,,,,,,
294082,2022-11-29_09h59.10.668,vts_reward_expectancy_bt,2022.2.4,MacIntel,62.5,Safari,1440,900,,,l,0.701,1,577,2,2,3,27,2,1,1,0,0,0,0,0,0,1,triangle,star,,,,,,,,,,,,,,,,,,,,,,,,,,,,,,,,,,,,,,,,,,,,,,,,,,,,,,
294082,2022-11-29_09h59.10.668,vts_reward_expectancy_bt,2022.2.4,MacIntel,62.5,Safari,1440,900,,,l,0.734,1,578,2,2,4,28,8,1,0,0,1,0,0,0,0,1,hexagon,star,,,,,,,,,,,,,,,,,,,,,,,,,,,,,,,,,,,,,,,,,,,,,,,,,,,,,,
294082,2022-11-29_09h59.10.668,vts_reward_expectancy_bt,2022.2.4,MacIntel,62.5,Safari,1440,900,,,a,0.785,10,588,2,2,5,29,3,1,0,1,0,0,1,0,0,0,circle,triangle,,,,,,,,,,,,,,,,,,,,,,,,,,,,,,,,,,,,,,,,,,,,,,,,,,,,,,
294082,2022-11-29_09h59.10.668,vts_reward_expectancy_bt,2022.2.4,MacIntel,62.5,Safari,1440,900,,,l,2.333,1,589,2,2,6,30,0,1,1,0,0,0,0,1,0,0,triangle,circle,,,,,,,,,,,,,,,,,,,,,,,,,,,,,,,,,,,,,,,,,,,,,,,,,,,,,,
294082,2022-11-29_09h59.10.668,vts_reward_expectancy_bt,2022.2.4,MacIntel,62.5,Safari,1440,900,,,a,1.001,1,590,2,2,7,31,9,1,0,0,0,1,1,0,0,0,star,triangle,,,,,,,,,,,,,,,,,,,,,,,,,,,,,,,,,,,,,,,,,,,,,,,,,,,,,,
294082,2022-11-29_09h59.10.668,vts_reward_expectancy_bt,2022.2.4,MacIntel,62.5,Safari,1440,900,,,a,1.485,1,591,2,2,8,32,6,1,0,0,1,0,1,0,0,0,hexagon,triangle,,,,,,,,,,,,,,,,,,,,,,,,,,,,,,,,,,,,,,,,,,,,,,,,,,,,,,
294082,2022-11-29_09h59.10.668,vts_reward_expectancy_bt,2022.2.4,MacIntel,62.5,Safari,1440,900,,,l,1.793,1,592,2,2,9,33,1,1,1,0,0,0,0,0,1,0,triangle,hexagon,,,,,,,,,,,,,,,,,,,,,,,,,,,,,,,,,,,,,,,,,,,,,,,,,,,,,,
294082,2022-11-29_09h59.10.668,vts_reward_expectancy_bt,2022.2.4,MacIntel,62.5,Safari,1440,900,,,l,1.601,10,602,2,2,10,34,4,1,0,1,0,0,0,0,1,0,circle,hexagon,,,,,,,,,,,,,,,,,,,,,,,,,,,,,,,,,,,,,,,,,,,,,,,,,,,,,,
294082,2022-11-29_09h59.10.668,vts_reward_expectancy_bt,2022.2.4,MacIntel,62.5,Safari,1440,900,,,a,1.749,10,612,2,2,11,35,10,1,0,0,0,1,0,1,0,0,star ,circle,,,,,,,,,,,,,,,,,,,,,,,,,,,,,,,,,,,,,,,,,,,,,,,,,,,,,,
294082,2022-11-29_09h59.10.668,vts_reward_expectancy_bt,2022.2.4,MacIntel,62.5,Safari,1440,900,,,,,,,,,,,,,,,,,,,,,,,174,H,hexagon,1,0,f,1.402,0,0,0,0,0,1,,,,,,,,,,,,,,,,,,,,,,,,,,,,,,,,,,,,,,,,,
294082,2022-11-29_09h59.10.668,vts_reward_expectancy_bt,2022.2.4,MacIntel,62.5,Safari,1440,900,,,,,,,,,,,,,,,,,,,,,,,139,Y,triangle,1,0,d,0.768,0,1,0,1,0,1,,,,,,,,,,,,,,,,,,,,,,,,,,,,,,,,,,,,,,,,,
294082,2022-11-29_09h59.10.668,vts_reward_expectancy_bt,2022.2.4,MacIntel,62.5,Safari,1440,900,,,,,,,,,,,,,,,,,,,,,,,146,W,star,1,0,d,1.626,0,2,0,2,0,1,,,,,,,,,,,,,,,,,,,,,,,,,,,,,,,,,,,,,,,,,
294082,2022-11-29_09h59.10.668,vts_reward_expectancy_bt,2022.2.4,MacIntel,62.5,Safari,1440,900,,,,,,,,,,,,,,,,,,,,,,,160,S,circle,1,0,f,2.344,0,3,0,3,0,1,,,,,,,,,,,,,,,,,,,,,,,,,,,,,,,,,,,,,,,,,
294082,2022-11-29_09h59.10.668,vts_reward_expectancy_bt,2022.2.4,MacIntel,62.5,Safari,1440,900,,,,,,,,,,,,,,,,,,,,,,,181,B,hexagon,1,0,f,0.943,0,4,0,4,0,1,,,,,,,,,,,,,,,,,,,,,,,,,,,,,,,,,,,,,,,,,
294082,2022-11-29_09h59.10.668,vts_reward_expectancy_bt,2022.2.4,MacIntel,62.5,Safari,1440,900,,,,,,,,,,,,,,,,,,,,,,,132,U,triangle,1,0,d,0.844,0,5,0,5,0,1,,,,,,,,,,,,,,,,,,,,,,,,,,,,,,,,,,,,,,,,,
294082,2022-11-29_09h59.10.668,vts_reward_expectancy_bt,2022.2.4,MacIntel,62.5,Safari,1440,900,,,,,,,,,,,,,,,,,,,,,,,167,F,star,0,0,d,0.879,0,6,0,6,0,1,,,,,,,,,,,,,,,,,,,,,,,,,,,,,,,,,,,,,,,,,
294082,2022-11-29_09h59.10.668,vts_reward_expectancy_bt,2022.2.4,MacIntel,62.5,Safari,1440,900,,,,,,,,,,,,,,,,,,,,,,,125,D,circle,1,1,d,1.146,0,7,0,7,0,1,,,,,,,,,,,,,,,,,,,,,,,,,,,,,,,,,,,,,,,,,
294082,2022-11-29_09h59.10.668,vts_reward_expectancy_bt,2022.2.4,MacIntel,62.5,Safari,1440,900,,,,,,,,,,,,,,,,,,,,,,,174,H,hexagon,1,0,f,1.161,0,8,0,8,0,1,,,,,,,,,,,,,,,,,,,,,,,,,,,,,,,,,,,,,,,,,
294082,2022-11-29_09h59.10.668,vts_reward_expectancy_bt,2022.2.4,MacIntel,62.5,Safari,1440,900,,,,,,,,,,,,,,,,,,,,,,,139,Y,star,1,0,d,2.066,0,9,0,9,0,1,,,,,,,,,,,,,,,,,,,,,,,,,,,,,,,,,,,,,,,,,
294082,2022-11-29_09h59.10.668,vts_reward_expectancy_bt,2022.2.4,MacIntel,62.5,Safari,1440,900,,,,,,,,,,,,,,,,,,,,,,,160,W,circle,1,0,,,1,,,,,,k,2.598,0,0,0,0,1,,,,,,,,,,,,,,,,,,,,,,,,,,,,,,,,,,
294082,2022-11-29_09h59.10.668,vts_reward_expectancy_bt,2022.2.4,MacIntel,62.5,Safari,1440,900,,,,,,,,,,,,,,,,,,,,,,,174,F,hexagon,1,0,,,1,,,,,,j,0.953,1,0,1,0,1,,,,,,,,,,,,,,,,,,,,,,,,,,,,,,,,,,
294082,2022-11-29_09h59.10.668,vts_reward_expectancy_bt,2022.2.4,MacIntel,62.5,Safari,1440,900,,,,,,,,,,,,,,,,,,,,,,,125,U,triangle,1,0,,,1,,,,,,k,0.782,2,0,2,0,1,,,,,,,,,,,,,,,,,,,,,,,,,,,,,,,,,,
294082,2022-11-29_09h59.10.668,vts_reward_expectancy_bt,2022.2.4,MacIntel,62.5,Safari,1440,900,,,,,,,,,,,,,,,,,,,,,,,181,Y,star,1,0,,,1,,,,,,k,0.694,3,0,3,0,1,,,,,,,,,,,,,,,,,,,,,,,,,,,,,,,,,,
294082,2022-11-29_09h59.10.668,vts_reward_expectancy_bt,2022.2.4,MacIntel,62.5,Safari,1440,900,,,,,,,,,,,,,,,,,,,,,,,132,S,circle,1,0,,,1,,,,,,k,1.117,4,0,4,0,1,,,,,,,,,,,,,,,,,,,,,,,,,,,,,,,,,,
294082,2022-11-29_09h59.10.668,vts_reward_expectancy_bt,2022.2.4,MacIntel,62.5,Safari,1440,900,,,,,,,,,,,,,,,,,,,,,,,167,D,hexagon,1,0,,,1,,,,,,j,0.745,5,0,5,0,1,,,,,,,,,,,,,,,,,,,,,,,,,,,,,,,,,,
294082,2022-11-29_09h59.10.668,vts_reward_expectancy_bt,2022.2.4,MacIntel,62.5,Safari,1440,900,,,,,,,,,,,,,,,,,,,,,,,146,H,triangle,1,0,,,1,,,,,,j,0.88,6,0,6,0,1,,,,,,,,,,,,,,,,,,,,,,,,,,,,,,,,,,
294082,2022-11-29_09h59.10.668,vts_reward_expectancy_bt,2022.2.4,MacIntel,62.5,Safari,1440,900,,,,,,,,,,,,,,,,,,,,,,,139,B,star,1,0,,,1,,,,,,j,0.678,7,0,7,0,1,,,,,,,,,,,,,,,,,,,,,,,,,,,,,,,,,,
294082,2022-11-29_09h59.10.668,vts_reward_expectancy_bt,2022.2.4,MacIntel,62.5,Safari,1440,900,,,,,,,,,,,,,,,,,,,,,,,160,W,circle,1,0,,,1,,,,,,k,0.609,8,0,8,0,1,,,,,,,,,,,,,,,,,,,,,,,,,,,,,,,,,,
294082,2022-11-29_09h59.10.668,vts_reward_expectancy_bt,2022.2.4,MacIntel,62.5,Safari,1440,900,,,,,,,,,,,,,,,,,,,,,,,174,F,hexagon,1,0,,,1,,,,,,j,0.761,9,0,9,0,1,,,,,,,,,,,,,,,,,,,,,,,,,,,,,,,,,,
294082,2022-11-29_09h59.10.668,vts_reward_expectancy_bt,2022.2.4,MacIntel,62.5,Safari,1440,900,,,,,0,612,,,,,,,,,,,,,,,,,125,H,triangle,1,0,,,2,,,,,,,,,,,,,-1,number,NA,d,1.408,vtsPrac,0,0,0,0,1,,,,,,,,,,,,,,,,,,,,,,,
294082,2022-11-29_09h59.10.668,vts_reward_expectancy_bt,2022.2.4,MacIntel,62.5,Safari,1440,900,,,,,0,612,,,,,,,,,,,,,,,,,139,B,hexagon,1,0,,,2,,,,,,,,,,,,,repeat,number,numRpt,d,2.043,vtsPrac,1,0,1,0,1,,,,,,,,,,,,,,,,,,,,,,,
294082,2022-11-29_09h59.10.668,vts_reward_expectancy_bt,2022.2.4,MacIntel,62.5,Safari,1440,900,,,,,0,612,,,,,,,,,,,,,,,,,160,D,triangle,1,0,,,2,,,,,,,,,,,,,switch,letter,lettSwt,j,0.863,vtsPrac,2,0,2,0,1,,,,,,,,,,,,,,,,,,,,,,,
294082,2022-11-29_09h59.10.668,vts_reward_expectancy_bt,2022.2.4,MacIntel,62.5,Safari,1440,900,,,,,0,612,,,,,,,,,,,,,,,,,132,Y,hexagon,1,0,,,2,,,,,,,,,,,,,switch,number,numSwt,d,0.859,vtsPrac,3,0,3,0,1,,,,,,,,,,,,,,,,,,,,,,,
294082,2022-11-29_09h59.10.668,vts_reward_expectancy_bt,2022.2.4,MacIntel,62.5,Safari,1440,900,,,,,0,612,,,,,,,,,,,,,,,,,125,H,hexagon,1,0,,,2,,,,,,,,,,,,,switch,letter,lettSwt,j,0.829,vtsPrac,4,0,4,0,1,,,,,,,,,,,,,,,,,,,,,,,
294082,2022-11-29_09h59.10.668,vts_reward_expectancy_bt,2022.2.4,MacIntel,62.5,Safari,1440,900,,,,,0,612,,,,,,,,,,,,,,,,,139,B,triangle,1,0,,,2,,,,,,,,,,,,,repeat,letter,lettRpt,j,0.811,vtsPrac,5,0,5,0,1,,,,,,,,,,,,,,,,,,,,,,,
294082,2022-11-29_09h59.10.668,vts_reward_expectancy_bt,2022.2.4,MacIntel,62.5,Safari,1440,900,,,,,0,612,,,,,,,,,,,,,,,,,160,D,circle,1,0,,,2,,,,,,,,,,,,,repeat,letter,lettRpt,j,0.91,vtsPrac,6,0,6,0,1,,,,,,,,,,,,,,,,,,,,,,,
294082,2022-11-29_09h59.10.668,vts_reward_expectancy_bt,2022.2.4,MacIntel,62.5,Safari,1440,900,,,,,0,612,,,,,,,,,,,,,,,,,132,Y,triangle,1,0,,,2,,,,,,,,,,,,,switch,number,numSwt,d,0.977,vtsPrac,7,0,7,0,1,,,,,,,,,,,,,,,,,,,,,,,
294082,2022-11-29_09h59.10.668,vts_reward_expectancy_bt,2022.2.4,MacIntel,62.5,Safari,1440,900,,,,,0,612,,,,,,,,,,,,,,,,,125,U,star,1,0,,,2,,,,,,,,,,,,,repeat,number,numRpt,d,1.611,vtsPrac,8,0,8,0,1,,,,,,,,,,,,,,,,,,,,,,,
294082,2022-11-29_09h59.10.668,vts_reward_expectancy_bt,2022.2.4,MacIntel,62.5,Safari,1440,900,,,,,0,612,,,,,,,,,,,,,,,,,132,F,triangle,1,0,,,2,,,,,,,,,,,,,switch,letter,lettSwt,j,0.993,vtsPrac,9,0,9,0,1,,,,,,,,,,,,,,,,,,,,,,,
294082,2022-11-29_09h59.10.668,vts_reward_expectancy_bt,2022.2.4,MacIntel,62.5,Safari,1440,900,,,,,0,612,,,,,,,,,,,,,,,,,174,B,circle,1,0,,,2,,,,,,,,,,,,,switch,number,numSwt,f,0.936,vtsPrac,10,0,10,0,1,,,,,,,,,,,,,,,,,,,,,,,
294082,2022-11-29_09h59.10.668,vts_reward_expectancy_bt,2022.2.4,MacIntel,62.5,Safari,1440,900,,,,,0,612,,,,,,,,,,,,,,,,,139,D,hexagon,1,0,,,2,,,,,,,,,,,,,switch,letter,lettSwt,j,0.828,vtsPrac,11,0,11,0,1,,,,,,,,,,,,,,,,,,,,,,,
294082,2022-11-29_09h59.10.668,vts_reward_expectancy_bt,2022.2.4,MacIntel,62.5,Safari,1440,900,,,,,0,612,,,,,,,,,,,,,,,,,146,U,circle,1,0,,,2,,,,,,,,,,,,,switch,number,numSwt,d,2.327,vtsPrac,12,0,12,0,1,,,,,,,,,,,,,,,,,,,,,,,
294082,2022-11-29_09h59.10.668,vts_reward_expectancy_bt,2022.2.4,MacIntel,62.5,Safari,1440,900,,,,,0,612,,,,,,,,,,,,,,,,,125,D,triangle,1,0,,,2,,,,,,,,,,,,,repeat,number,numRpt,d,1.216,vtsPrac,13,0,13,0,1,,,,,,,,,,,,,,,,,,,,,,,
294082,2022-11-29_09h59.10.668,vts_reward_expectancy_bt,2022.2.4,MacIntel,62.5,Safari,1440,900,,,,,0,612,,,,,,,,,,,,,,,,,174,B,hexagon,1,0,,,2,,,,,,,,,,,,,switch,letter,lettSwt,j,0.586,vtsPrac,14,0,14,0,1,,,,,,,,,,,,,,,,,,,,,,,
294082,2022-11-29_09h59.10.668,vts_reward_expectancy_bt,2022.2.4,MacIntel,62.5,Safari,1440,900,,,,,0,612,,,,,,,,,,,,,,,,,139,F,triangle,1,0,,,2,,,,,,,,,,,,,repeat,letter,lettRpt,j,1.06,vtsPrac,15,0,15,0,1,,,,,,,,,,,,,,,,,,,,,,,
294082,2022-11-29_09h59.10.668,vts_reward_expectancy_bt,2022.2.4,MacIntel,62.5,Safari,1440,900,,,,,0,612,,,,,,,,,,,,,,,,,167,H,triangle,1,0,,,2,,,,,,,,,,,,,repeat,letter,lettRpt,j,0.927,vtsPrac,16,0,16,0,1,,,,,,,,,,,,,,,,,,,,,,,
294082,2022-11-29_09h59.10.668,vts_reward_expectancy_bt,2022.2.4,MacIntel,62.5,Safari,1440,900,,,,,0,612,,,,,,,,,,,,,,,,,174,Y,hexagon,1,0,,,2,,,,,,,,,,,,,repeat,letter,lettRpt,k,1.212,vtsPrac,17,0,17,0,1,,,,,,,,,,,,,,,,,,,,,,,
294082,2022-11-29_09h59.10.668,vts_reward_expectancy_bt,2022.2.4,MacIntel,62.5,Safari,1440,900,,,,,0,612,,,,,,,,,,,,,,,,,125,U,hexagon,1,0,,,2,,,,,,,,,,,,,switch,number,numSwt,d,2.694,vtsPrac,18,0,18,0,1,,,,,,,,,,,,,,,,,,,,,,,
294082,2022-11-29_09h59.10.668,vts_reward_expectancy_bt,2022.2.4,MacIntel,62.5,Safari,1440,900,,,,,0,612,,,,,,,,,,,,,,,,,181,F,circle,1,0,,,2,,,,,,,,,,,,,switch,letter,lettSwt,j,1.83,vtsPrac,19,0,19,0,1,,,,,,,,,,,,,,,,,,,,,,,
294082,2022-11-29_09h59.10.668,vts_reward_expectancy_bt,2022.2.4,MacIntel,62.5,Safari,1440,900,,,,,0,612,,,,,,,,,,,,,,,,,181,F,star,1,0,,,2,,,,,,,,,,,,,repeat,letter,lettRpt,j,1.536,vtsPrac,20,0,20,0,1,,,,,,,,,,,,,,,,,,,,,,,
294082,2022-11-29_09h59.10.668,vts_reward_expectancy_bt,2022.2.4,MacIntel,62.5,Safari,1440,900,,,,,0,612,,,,,,,,,,,,,,,,,125,U,hexagon,1,0,,,2,,,,,,,,,,,,,switch,number,numSwt,d,2.261,vtsPrac,21,0,21,0,1,,,,,,,,,,,,,,,,,,,,,,,
294082,2022-11-29_09h59.10.668,vts_reward_expectancy_bt,2022.2.4,MacIntel,62.5,Safari,1440,900,,,,,0,612,,,,,,,,,,,,,,,,,174,B,hexagon,1,0,,,2,,,,,,,,,,,,,switch,letter,lettSwt,j,1.078,vtsPrac,22,0,22,0,1,,,,,,,,,,,,,,,,,,,,,,,
294082,2022-11-29_09h59.10.668,vts_reward_expectancy_bt,2022.2.4,MacIntel,62.5,Safari,1440,900,,,,,0,612,,,,,,,,,,,,,,,,,160,H,triangle,1,0,,,2,,,,,,,,,,,,,repeat,letter,lettRpt,j,1.361,vtsPrac,23,0,23,0,1,,,,,,,,,,,,,,,,,,,,,,,
294082,2022-11-29_09h59.10.668,vts_reward_expectancy_bt,2022.2.4,MacIntel,62.5,Safari,1440,900,,,,,0,612,,,,,,,,,,,,,,,,,139,F,triangle,1,0,,,2,,,,,,,,,,,,,repeat,letter,lettRpt,j,1.844,vtsPrac,24,0,24,0,1,,,,,,,,,,,,,,,,,,,,,,,
294082,2022-11-29_09h59.10.668,vts_reward_expectancy_bt,2022.2.4,MacIntel,62.5,Safari,1440,900,,,,,0,612,,,,,,,,,,,,,,,,,181,D,circle,1,0,,,2,,,,,,,,,,,,,switch,number,numSwt,f,0.645,vtsPrac,25,0,25,0,1,,,,,,,,,,,,,,,,,,,,,,,
294082,2022-11-29_09h59.10.668,vts_reward_expectancy_bt,2022.2.4,MacIntel,62.5,Safari,1440,900,,,,,0,612,,,,,,,,,,,,,,,,,160,W,star,1,0,,,2,,,,,,,,,,,,,repeat,number,numRpt,f,1.152,vtsPrac,26,0,26,0,1,,,,,,,,,,,,,,,,,,,,,,,
294082,2022-11-29_09h59.10.668,vts_reward_expectancy_bt,2022.2.4,MacIntel,62.5,Safari,1440,900,,,,,0,612,,,,,,,,,,,,,,,,,174,Y,hexagon,1,0,,,2,,,,,,,,,,,,,switch,letter,lettSwt,k,0.913,vtsPrac,27,0,27,0,1,,,,,,,,,,,,,,,,,,,,,,,
294082,2022-11-29_09h59.10.668,vts_reward_expectancy_bt,2022.2.4,MacIntel,62.5,Safari,1440,900,,,,,0,612,,,,,,,,,,,,,,,,,181,H,star,1,0,,,2,,,,,,,,,,,,,repeat,letter,lettRpt,j,1.003,vtsPrac,28,0,28,0,1,,,,,,,,,,,,,,,,,,,,,,,
294082,2022-11-29_09h59.10.668,vts_reward_expectancy_bt,2022.2.4,MacIntel,62.5,Safari,1440,900,,,,,0,612,,,,,,,,,,,,,,,,,132,Y,circle,1,0,,,2,,,,,,,,,,,,,switch,number,numSwt,d,1.177,vtsPrac,29,0,29,0,1,,,,,,,,,,,,,,,,,,,,,,,
294082,2022-11-29_09h59.10.668,vts_reward_expectancy_bt,2022.2.4,MacIntel,62.5,Safari,1440,900,,,,,0,612,,,,,,,,,,,,,,,,,125,S,star,1,0,,,2,,,,,,,,,,,,,repeat,number,numRpt,d,1.497,vtsPrac,30,0,30,0,1,,,,,,,,,,,,,,,,,,,,,,,
294082,2022-11-29_09h59.10.668,vts_reward_expectancy_bt,2022.2.4,MacIntel,62.5,Safari,1440,900,,,,,0,612,,,,,,,,,,,,,,,,,174,F,hexagon,1,0,,,2,,,,,,,,,,,,,switch,letter,lettSwt,j,0.899,vtsPrac,31,0,31,0,1,,,,,,,,,,,,,,,,,,,,,,,
294082,2022-11-29_09h59.10.668,vts_reward_expectancy_bt,2022.2.4,MacIntel,62.5,Safari,1440,900,,,,,,,,,,,,,,,,,,,,,,,,,,,,,,,,,,,,,,,,,,,,,,,,,,,,,,,,,,,,,,,,,,,,,,,,,,,,
294082,2022-11-29_09h59.10.668,vts_reward_expectancy_bt,2022.2.4,MacIntel,62.5,Safari,1440,900,,,,,,,,,,,,,,,,,,,,,,,,,,,,,,,,,,,,,,,,,,,,,,,,,,,,,,,,,,,,,,,,,,,,,,,,,,,,
294082,2022-11-29_09h59.10.668,vts_reward_expectancy_bt,2022.2.4,MacIntel,62.5,Safari,1440,900,,,,,0,612,,,,,,,,,,,,,,,,,132,H,hexagon,1,0,,,,,,,,,,,,,,,,repeat,letter,lettRpt,j,1.049,noRew,,,,,,0,0,0,0,0,1,,,,,,,,,,,,,,,,,
294082,2022-11-29_09h59.10.668,vts_reward_expectancy_bt,2022.2.4,MacIntel,62.5,Safari,1440,900,,,,,0,612,,,,,,,,,,,,,,,,,125,W,circle,1,0,,,,,,,,,,,,,,,,switch,number,numSwt,d,1.044,noRew,,,,,,0,1,0,1,0,1,,,,,,,,,,,,,,,,,
294082,2022-11-29_09h59.10.668,vts_reward_expectancy_bt,2022.2.4,MacIntel,62.5,Safari,1440,900,,,,,0,612,,,,,,,,,,,,,,,,,160,U,hexagon,1,0,,,,,,,,,,,,,,,,repeat,number,numRpt,f,2.527,noRew,,,,,,0,2,0,2,0,1,,,,,,,,,,,,,,,,,
294082,2022-11-29_09h59.10.668,vts_reward_expectancy_bt,2022.2.4,MacIntel,62.5,Safari,1440,900,,,,,0,612,,,,,,,,,,,,,,,,,174,Y,circle,1,0,,,,,,,,,,,,,,,,repeat,number,numRpt,f,0.896,noRew,,,,,,0,3,0,3,0,1,,,,,,,,,,,,,,,,,
294082,2022-11-29_09h59.10.668,vts_reward_expectancy_bt,2022.2.4,MacIntel,62.5,Safari,1440,900,,,,,0,612,,,,,,,,,,,,,,,,,132,H,triangle,1,0,,,,,,,,,,,,,,,,switch,letter,lettSwt,j,0.932,noRew,,,,,,0,4,0,4,0,1,,,,,,,,,,,,,,,,,
294082,2022-11-29_09h59.10.668,vts_reward_expectancy_bt,2022.2.4,MacIntel,62.5,Safari,1440,900,,,,,0,612,,,,,,,,,,,,,,,,,125,W,hexagon,1,0,,,,,,,,,,,,,,,,repeat,letter,lettRpt,k,1.019,noRew,,,,,,0,5,0,5,0,1,,,,,,,,,,,,,,,,,
294082,2022-11-29_09h59.10.668,vts_reward_expectancy_bt,2022.2.4,MacIntel,62.5,Safari,1440,900,,,,,0,612,,,,,,,,,,,,,,,,,160,U,circle,1,0,,,,,,,,,,,,,,,,switch,number,numSwt,f,1.746,noRew,,,,,,0,6,0,6,0,1,,,,,,,,,,,,,,,,,
294082,2022-11-29_09h59.10.668,vts_reward_expectancy_bt,2022.2.4,MacIntel,62.5,Safari,1440,900,,,,,0,612,,,,,,,,,,,,,,,,,174,Y,hexagon,1,0,,,,,,,,,,,,,,,,repeat,number,numRpt,f,2.66,noRew,,,,,,0,7,0,7,0,1,,,,,,,,,,,,,,,,,
294082,2022-11-29_09h59.10.668,vts_reward_expectancy_bt,2022.2.4,MacIntel,62.5,Safari,1440,900,,,,,0,612,,,,,,,,,,,,,,,,,146,Y,hexagon,-1,0,,,,,,,,,,,,,,,,switch,no_choice,NA,,,noRew,,,,,,0,8,0,8,0,1,,,,,,,,,,,,,,,,,
294082,2022-11-29_09h59.10.668,vts_reward_expectancy_bt,2022.2.4,MacIntel,62.5,Safari,1440,900,,,,,0,612,,,,,,,,,,,,,,,,,167,H,circle,1,0,,,,,,,,,,,,,,,,switch,letter,lettSwt,j,0.977,noRew,,,,,,0,9,0,9,0,1,,,,,,,,,,,,,,,,,
294082,2022-11-29_09h59.10.668,vts_reward_expectancy_bt,2022.2.4,MacIntel,62.5,Safari,1440,900,,,,,0,612,,,,,,,,,,,,,,,,,160,D,triangle,1,0,,,,,,,,,,,,,,,,repeat,letter,lettRpt,j,0.845,noRew,,,,,,0,10,0,10,0,1,,,,,,,,,,,,,,,,,
294082,2022-11-29_09h59.10.668,vts_reward_expectancy_bt,2022.2.4,MacIntel,62.5,Safari,1440,900,,,,,0,612,,,,,,,,,,,,,,,,,132,B,circle,1,0,,,,,,,,,,,,,,,,repeat,letter,lettRpt,j,1.893,noRew,,,,,,0,11,0,11,0,1,,,,,,,,,,,,,,,,,
294082,2022-11-29_09h59.10.668,vts_reward_expectancy_bt,2022.2.4,MacIntel,62.5,Safari,1440,900,,,,,0,612,,,,,,,,,,,,,,,,,139,S,triangle,1,0,,,,,,,,,,,,,,,,repeat,letter,lettRpt,k,1.093,noRew,,,,,,0,12,0,12,0,1,,,,,,,,,,,,,,,,,
294082,2022-11-29_09h59.10.668,vts_reward_expectancy_bt,2022.2.4,MacIntel,62.5,Safari,1440,900,,,,,0,612,,,,,,,,,,,,,,,,,132,U,hexagon,1,0,,,,,,,,,,,,,,,,repeat,letter,lettRpt,k,0.844,noRew,,,,,,0,13,0,13,0,1,,,,,,,,,,,,,,,,,
294082,2022-11-29_09h59.10.668,vts_reward_expectancy_bt,2022.2.4,MacIntel,62.5,Safari,1440,900,,,,,0,612,,,,,,,,,,,,,,,,,160,Y,circle,1,0,,,,,,,,,,,,,,,,switch,number,numSwt,f,1.514,noRew,,,,,,0,14,0,14,0,1,,,,,,,,,,,,,,,,,
294082,2022-11-29_09h59.10.668,vts_reward_expectancy_bt,2022.2.4,MacIntel,62.5,Safari,1440,900,,,,,0,612,,,,,,,,,,,,,,,,,174,H,hexagon,1,0,,,,,,,,,,,,,,,,switch,letter,lettSwt,j,1.047,noRew,,,,,,0,15,0,15,0,1,,,,,,,,,,,,,,,,,
294082,2022-11-29_09h59.10.668,vts_reward_expectancy_bt,2022.2.4,MacIntel,62.5,Safari,1440,900,,,,,0,612,,,,,,,,,,,,,,,,,167,H,triangle,1,0,,,,,,,,,,,,,,,,repeat,letter,lettRpt,j,0.98,noRew,,,,,,0,16,0,16,0,1,,,,,,,,,,,,,,,,,
294082,2022-11-29_09h59.10.668,vts_reward_expectancy_bt,2022.2.4,MacIntel,62.5,Safari,1440,900,,,,,0,612,,,,,,,,,,,,,,,,,160,Y,star,1,0,,,,,,,,,,,,,,,,switch,number,numSwt,f,0.762,noRew,,,,,,0,17,0,17,0,1,,,,,,,,,,,,,,,,,
294082,2022-11-29_09h59.10.668,vts_reward_expectancy_bt,2022.2.4,MacIntel,62.5,Safari,1440,900,,,,,0,612,,,,,,,,,,,,,,,,,146,F,triangle,1,0,,,,,,,,,,,,,,,,repeat,number,numRpt,d,1.494,noRew,,,,,,0,18,0,18,0,1,,,,,,,,,,,,,,,,,
294082,2022-11-29_09h59.10.668,vts_reward_expectancy_bt,2022.2.4,MacIntel,62.5,Safari,1440,900,,,,,0,612,,,,,,,,,,,,,,,,,139,U,circle,0,0,,,,,,,,,,,,,,,,switch,letter,NA,j,1.598,noRew,,,,,,0,19,0,19,0,1,,,,,,,,,,,,,,,,,
294082,2022-11-29_09h59.10.668,vts_reward_expectancy_bt,2022.2.4,MacIntel,62.5,Safari,1440,900,,,,,0,612,,,,,,,,,,,,,,,,,125,H,circle,1,1,,,,,,,,,,,,,,,,switch,number,numSwt,d,1.145,noRew,,,,,,0,20,0,20,0,1,,,,,,,,,,,,,,,,,
294082,2022-11-29_09h59.10.668,vts_reward_expectancy_bt,2022.2.4,MacIntel,62.5,Safari,1440,900,,,,,0,612,,,,,,,,,,,,,,,,,181,B,star,1,0,,,,,,,,,,,,,,,,switch,letter,lettSwt,j,0.865,noRew,,,,,,0,21,0,21,0,1,,,,,,,,,,,,,,,,,
294082,2022-11-29_09h59.10.668,vts_reward_expectancy_bt,2022.2.4,MacIntel,62.5,Safari,1440,900,,,,,0,612,,,,,,,,,,,,,,,,,139,U,hexagon,1,0,,,,,,,,,,,,,,,,repeat,letter,lettRpt,k,1.419,noRew,,,,,,0,22,0,22,0,1,,,,,,,,,,,,,,,,,
294082,2022-11-29_09h59.10.668,vts_reward_expectancy_bt,2022.2.4,MacIntel,62.5,Safari,1440,900,,,,,0,612,,,,,,,,,,,,,,,,,174,D,circle,1,0,,,,,,,,,,,,,,,,switch,number,numSwt,f,1.077,noRew,,,,,,0,23,0,23,0,1,,,,,,,,,,,,,,,,,
294082,2022-11-29_09h59.10.668,vts_reward_expectancy_bt,2022.2.4,MacIntel,62.5,Safari,1440,900,,,,,0,612,,,,,,,,,,,,,,,,,125,W,circle,1,0,,,,,,,,,,,,,,,,repeat,number,numRpt,d,1.145,noRew,,,,,,0,24,0,24,0,1,,,,,,,,,,,,,,,,,
294082,2022-11-29_09h59.10.668,vts_reward_expectancy_bt,2022.2.4,MacIntel,62.5,Safari,1440,900,,,,,0,612,,,,,,,,,,,,,,,,,132,F,triangle,1,0,,,,,,,,,,,,,,,,repeat,number,numRpt,d,1.443,noRew,,,,,,0,25,0,25,0,1,,,,,,,,,,,,,,,,,
294082,2022-11-29_09h59.10.668,vts_reward_expectancy_bt,2022.2.4,MacIntel,62.5,Safari,1440,900,,,,,0,612,,,,,,,,,,,,,,,,,160,U,star,1,0,,,,,,,,,,,,,,,,repeat,number,numRpt,f,1.682,noRew,,,,,,0,26,0,26,0,1,,,,,,,,,,,,,,,,,
294082,2022-11-29_09h59.10.668,vts_reward_expectancy_bt,2022.2.4,MacIntel,62.5,Safari,1440,900,,,,,0,612,,,,,,,,,,,,,,,,,167,B,hexagon,1,0,,,,,,,,,,,,,,,,repeat,number,numRpt,f,0.743,noRew,,,,,,0,27,0,27,0,1,,,,,,,,,,,,,,,,,
294082,2022-11-29_09h59.10.668,vts_reward_expectancy_bt,2022.2.4,MacIntel,62.5,Safari,1440,900,,,,,0,612,,,,,,,,,,,,,,,,,181,S,circle,1,0,,,,,,,,,,,,,,,,repeat,number,numRpt,f,1.36,noRew,,,,,,0,28,0,28,0,1,,,,,,,,,,,,,,,,,
294082,2022-11-29_09h59.10.668,vts_reward_expectancy_bt,2022.2.4,MacIntel,62.5,Safari,1440,900,,,,,0,612,,,,,,,,,,,,,,,,,174,D,star,1,0,,,,,,,,,,,,,,,,repeat,number,numRpt,f,1.244,noRew,,,,,,0,29,0,29,0,1,,,,,,,,,,,,,,,,,
294082,2022-11-29_09h59.10.668,vts_reward_expectancy_bt,2022.2.4,MacIntel,62.5,Safari,1440,900,,,,,0,612,,,,,,,,,,,,,,,,,125,B,triangle,1,0,,,,,,,,,,,,,,,,switch,letter,lettSwt,j,0.729,noRew,,,,,,0,30,0,30,0,1,,,,,,,,,,,,,,,,,
294082,2022-11-29_09h59.10.668,vts_reward_expectancy_bt,2022.2.4,MacIntel,62.5,Safari,1440,900,,,,,0,612,,,,,,,,,,,,,,,,,139,W,circle,1,0,,,,,,,,,,,,,,,,repeat,letter,lettRpt,k,1.362,noRew,,,,,,0,31,0,31,0,1,,,,,,,,,,,,,,,,,
294082,2022-11-29_09h59.10.668,vts_reward_expectancy_bt,2022.2.4,MacIntel,62.5,Safari,1440,900,,,,,0,612,,,,,,,,,,,,,,,,,139,S,star,1,0,,,,,,,,,,,,,,,,switch,number,numSwt,d,1.084,noRew,,,,,,0,32,0,32,0,1,,,,,,,,,,,,,,,,,
294082,2022-11-29_09h59.10.668,vts_reward_expectancy_bt,2022.2.4,MacIntel,62.5,Safari,1440,900,,,,,0,612,,,,,,,,,,,,,,,,,174,U,hexagon,1,0,,,,,,,,,,,,,,,,switch,letter,lettSwt,k,1.161,noRew,,,,,,0,33,0,33,0,1,,,,,,,,,,,,,,,,,
294082,2022-11-29_09h59.10.668,vts_reward_expectancy_bt,2022.2.4,MacIntel,62.5,Safari,1440,900,,,,,0,612,,,,,,,,,,,,,,,,,146,Y,circle,1,0,,,,,,,,,,,,,,,,repeat,letter,lettRpt,k,1.577,noRew,,,,,,0,34,0,34,0,1,,,,,,,,,,,,,,,,,
294082,2022-11-29_09h59.10.668,vts_reward_expectancy_bt,2022.2.4,MacIntel,62.5,Safari,1440,900,,,,,0,612,,,,,,,,,,,,,,,,,125,D,star,1,0,,,,,,,,,,,,,,,,switch,number,numSwt,d,1.328,noRew,,,,,,0,35,0,35,0,1,,,,,,,,,,,,,,,,,
294082,2022-11-29_09h59.10.668,vts_reward_expectancy_bt,2022.2.4,MacIntel,62.5,Safari,1440,900,,,,,0,612,,,,,,,,,,,,,,,,,146,Y,circle,1,0,,,,,,,,,,,,,,,,switch,letter,lettSwt,k,1.96,noRew,,,,,,0,36,0,36,0,1,,,,,,,,,,,,,,,,,
294082,2022-11-29_09h59.10.668,vts_reward_expectancy_bt,2022.2.4,MacIntel,62.5,Safari,1440,900,,,,,0,612,,,,,,,,,,,,,,,,,181,S,hexagon,1,0,,,,,,,,,,,,,,,,switch,number,numSwt,f,0.829,noRew,,,,,,0,37,0,37,0,1,,,,,,,,,,,,,,,,,
294082,2022-11-29_09h59.10.668,vts_reward_expectancy_bt,2022.2.4,MacIntel,62.5,Safari,1440,900,,,,,0,612,,,,,,,,,,,,,,,,,160,W,circle,1,0,,,,,,,,,,,,,,,,switch,letter,lettSwt,k,1.461,noRew,,,,,,0,38,0,38,0,1,,,,,,,,,,,,,,,,,
294082,2022-11-29_09h59.10.668,vts_reward_expectancy_bt,2022.2.4,MacIntel,62.5,Safari,1440,900,,,,,0,612,,,,,,,,,,,,,,,,,139,B,triangle,1,0,,,,,,,,,,,,,,,,repeat,letter,lettRpt,j,0.745,noRew,,,,,,0,39,0,39,0,1,,,,,,,,,,,,,,,,,
294082,2022-11-29_09h59.10.668,vts_reward_expectancy_bt,2022.2.4,MacIntel,62.5,Safari,1440,900,,,,,0,612,,,,,,,,,,,,,,,,,132,Y,circle,1,0,,,,,,,,,,,,,,,,repeat,letter,lettRpt,k,1.397,noRew,,,,,,0,40,0,40,0,1,,,,,,,,,,,,,,,,,
294082,2022-11-29_09h59.10.668,vts_reward_expectancy_bt,2022.2.4,MacIntel,62.5,Safari,1440,900,,,,,0,612,,,,,,,,,,,,,,,,,125,S,star,1,0,,,,,,,,,,,,,,,,switch,number,numSwt,d,1.368,noRew,,,,,,0,41,0,41,0,1,,,,,,,,,,,,,,,,,
294082,2022-11-29_09h59.10.668,vts_reward_expectancy_bt,2022.2.4,MacIntel,62.5,Safari,1440,900,,,,,0,612,,,,,,,,,,,,,,,,,181,D,star,1,0,,,,,,,,,,,,,,,,repeat,number,numRpt,f,1.314,noRew,,,,,,0,42,0,42,0,1,,,,,,,,,,,,,,,,,
294082,2022-11-29_09h59.10.668,vts_reward_expectancy_bt,2022.2.4,MacIntel,62.5,Safari,1440,900,,,,,0,612,,,,,,,,,,,,,,,,,139,W,triangle,1,0,,,,,,,,,,,,,,,,switch,letter,lettSwt,k,1.444,noRew,,,,,,0,43,0,43,0,1,,,,,,,,,,,,,,,,,
294082,2022-11-29_09h59.10.668,vts_reward_expectancy_bt,2022.2.4,MacIntel,62.5,Safari,1440,900,,,,,0,612,,,,,,,,,,,,,,,,,125,H,circle,0,0,,,,,,,,,,,,,,,,repeat,letter,NA,k,2.427,noRew,,,,,,0,44,0,44,0,1,,,,,,,,,,,,,,,,,
294082,2022-11-29_09h59.10.668,vts_reward_expectancy_bt,2022.2.4,MacIntel,62.5,Safari,1440,900,,,,,0,612,,,,,,,,,,,,,,,,,160,D,triangle,1,1,,,,,,,,,,,,,,,,repeat,letter,lettRpt,j,1.362,noRew,,,,,,0,45,0,45,0,1,,,,,,,,,,,,,,,,,
294082,2022-11-29_09h59.10.668,vts_reward_expectancy_bt,2022.2.4,MacIntel,62.5,Safari,1440,900,,,,,0,612,,,,,,,,,,,,,,,,,146,F,circle,1,0,,,,,,,,,,,,,,,,repeat,letter,lettRpt,j,1.11,noRew,,,,,,0,46,0,46,0,1,,,,,,,,,,,,,,,,,
294082,2022-11-29_09h59.10.668,vts_reward_expectancy_bt,2022.2.4,MacIntel,62.5,Safari,1440,900,,,,,0,612,,,,,,,,,,,,,,,,,174,B,triangle,1,0,,,,,,,,,,,,,,,,repeat,letter,lettRpt,j,0.726,noRew,,,,,,0,47,0,47,0,1,,,,,,,,,,,,,,,,,
294082,2022-11-29_09h59.10.668,vts_reward_expectancy_bt,2022.2.4,MacIntel,62.5,Safari,1440,900,,,,,0,612,,,,,,,,,,,,,,,,,132,W,hexagon,1,0,,,,,,,,,,,,,,,,repeat,letter,lettRpt,k,1.003,noRew,,,,,,0,48,0,48,0,1,,,,,,,,,,,,,,,,,
294082,2022-11-29_09h59.10.668,vts_reward_expectancy_bt,2022.2.4,MacIntel,62.5,Safari,1440,900,,,,,0,612,,,,,,,,,,,,,,,,,125,U,star,1,0,,,,,,,,,,,,,,,,switch,number,numSwt,d,1.394,noRew,,,,,,0,49,0,49,0,1,,,,,,,,,,,,,,,,,
294082,2022-11-29_09h59.10.668,vts_reward_expectancy_bt,2022.2.4,MacIntel,62.5,Safari,1440,900,,,,,0,612,,,,,,,,,,,,,,,,,181,B,hexagon,1,0,,,,,,,,,,,,,,,,switch,letter,lettSwt,j,0.98,noRew,,,,,,0,50,0,50,0,1,,,,,,,,,,,,,,,,,
294082,2022-11-29_09h59.10.668,vts_reward_expectancy_bt,2022.2.4,MacIntel,62.5,Safari,1440,900,,,,,0,612,,,,,,,,,,,,,,,,,146,Y,star,1,0,,,,,,,,,,,,,,,,repeat,letter,lettRpt,k,0.795,noRew,,,,,,0,51,0,51,0,1,,,,,,,,,,,,,,,,,
294082,2022-11-29_09h59.10.668,vts_reward_expectancy_bt,2022.2.4,MacIntel,62.5,Safari,1440,900,,,,,0,612,,,,,,,,,,,,,,,,,167,B,circle,1,0,,,,,,,,,,,,,,,,repeat,letter,lettRpt,j,1.165,noRew,,,,,,0,52,0,52,0,1,,,,,,,,,,,,,,,,,
294082,2022-11-29_09h59.10.668,vts_reward_expectancy_bt,2022.2.4,MacIntel,62.5,Safari,1440,900,,,,,0,612,,,,,,,,,,,,,,,,,160,Y,star,1,0,,,,,,,,,,,,,,,,switch,number,numSwt,f,0.978,noRew,,,,,,0,53,0,53,0,1,,,,,,,,,,,,,,,,,
294082,2022-11-29_09h59.10.668,vts_reward_expectancy_bt,2022.2.4,MacIntel,62.5,Safari,1440,900,,,,,0,612,,,,,,,,,,,,,,,,,132,D,hexagon,1,0,,,,,,,,,,,,,,,,repeat,number,numRpt,d,0.733,noRew,,,,,,0,54,0,54,0,1,,,,,,,,,,,,,,,,,
294082,2022-11-29_09h59.10.668,vts_reward_expectancy_bt,2022.2.4,MacIntel,62.5,Safari,1440,900,,,,,0,612,,,,,,,,,,,,,,,,,125,F,circle,1,0,,,,,,,,,,,,,,,,switch,letter,lettSwt,j,1.129,noRew,,,,,,0,55,0,55,0,1,,,,,,,,,,,,,,,,,
294082,2022-11-29_09h59.10.668,vts_reward_expectancy_bt,2022.2.4,MacIntel,62.5,Safari,1440,900,,,,,0,612,,,,,,,,,,,,,,,,,132,F,hexagon,1,0,,,,,,,,,,,,,,,,switch,number,numSwt,d,1.279,noRew,,,,,,0,56,0,56,0,1,,,,,,,,,,,,,,,,,
294082,2022-11-29_09h59.10.668,vts_reward_expectancy_bt,2022.2.4,MacIntel,62.5,Safari,1440,900,,,,,0,612,,,,,,,,,,,,,,,,,139,W,star,1,0,,,,,,,,,,,,,,,,switch,letter,lettSwt,k,0.731,noRew,,,,,,0,57,0,57,0,1,,,,,,,,,,,,,,,,,
294082,2022-11-29_09h59.10.668,vts_reward_expectancy_bt,2022.2.4,MacIntel,62.5,Safari,1440,900,,,,,0,612,,,,,,,,,,,,,,,,,181,B,star,1,0,,,,,,,,,,,,,,,,repeat,letter,lettRpt,j,0.894,noRew,,,,,,0,58,0,58,0,1,,,,,,,,,,,,,,,,,
294082,2022-11-29_09h59.10.668,vts_reward_expectancy_bt,2022.2.4,MacIntel,62.5,Safari,1440,900,,,,,0,612,,,,,,,,,,,,,,,,,160,U,circle,1,0,,,,,,,,,,,,,,,,repeat,letter,lettRpt,k,0.736,noRew,,,,,,0,59,0,59,0,1,,,,,,,,,,,,,,,,,
294082,2022-11-29_09h59.10.668,vts_reward_expectancy_bt,2022.2.4,MacIntel,62.5,Safari,1440,900,,,,,0,612,,,,,,,,,,,,,,,,,181,H,triangle,1,0,,,,,,,,,,,,,,,,repeat,letter,lettRpt,j,1.415,noRew,,,,,,0,60,0,60,0,1,,,,,,,,,,,,,,,,,
294082,2022-11-29_09h59.10.668,vts_reward_expectancy_bt,2022.2.4,MacIntel,62.5,Safari,1440,900,,,,,0,612,,,,,,,,,,,,,,,,,125,F,hexagon,1,0,,,,,,,,,,,,,,,,switch,number,numSwt,d,1.063,noRew,,,,,,0,61,0,61,0,1,,,,,,,,,,,,,,,,,
294082,2022-11-29_09h59.10.668,vts_reward_expectancy_bt,2022.2.4,MacIntel,62.5,Safari,1440,900,,,,,0,612,,,,,,,,,,,,,,,,,167,S,star,1,0,,,,,,,,,,,,,,,,repeat,number,numRpt,f,0.761,noRew,,,,,,0,62,0,62,0,1,,,,,,,,,,,,,,,,,
294082,2022-11-29_09h59.10.668,vts_reward_expectancy_bt,2022.2.4,MacIntel,62.5,Safari,1440,900,,,,,0,612,,,,,,,,,,,,,,,,,174,U,hexagon,1,0,,,,,,,,,,,,,,,,repeat,number,numRpt,f,0.866,noRew,,,,,,0,63,0,63,0,1,,,,,,,,,,,,,,,,,
294082,2022-11-29_09h59.10.668,vts_reward_expectancy_bt,2022.2.4,MacIntel,62.5,Safari,1440,900,,,,,,,,,,,,,,,,,,,,,,,,,,,,,,,,,,,,,,,,,,,,,,,,,,,,,,,,,,,,,,,,,,,,,,,,,,,,
294082,2022-11-29_09h59.10.668,vts_reward_expectancy_bt,2022.2.4,MacIntel,62.5,Safari,1440,900,,,,,0,612,,,,,,,,,,,,,,,,,146,B,star,1,0,,,,,,,,,,,,,,,,switch,letter,lettSwt,j,1.693,Hi,,,,,,0,,,,,,space,29.673,low,0,0,0,0,1,,,,,,,,,
294082,2022-11-29_09h59.10.668,vts_reward_expectancy_bt,2022.2.4,MacIntel,62.5,Safari,1440,900,,,,,10,622,,,,,,,,,,,,,,,,,181,Y,triangle,1,0,,,,,,,,,,,,,,,,repeat,letter,lettRpt,k,0.844,Lo,,,,,,0,,,,,,,,low,1,0,1,0,1,,,,,,,,,
294082,2022-11-29_09h59.10.668,vts_reward_expectancy_bt,2022.2.4,MacIntel,62.5,Safari,1440,900,,,,,10,632,,,,,,,,,,,,,,,,,167,D,circle,1,0,,,,,,,,,,,,,,,,repeat,letter,lettRpt,j,0.86,Hi,,,,,,0,,,,,,,,low,2,0,2,0,1,,,,,,,,,
294082,2022-11-29_09h59.10.668,vts_reward_expectancy_bt,2022.2.4,MacIntel,62.5,Safari,1440,900,,,,,1,633,,,,,,,,,,,,,,,,,160,S,hexagon,1,0,,,,,,,,,,,,,,,,repeat,letter,lettRpt,k,0.65,Lo,,,,,,0,,,,,,,,low,3,0,3,0,1,,,,,,,,,
294082,2022-11-29_09h59.10.668,vts_reward_expectancy_bt,2022.2.4,MacIntel,62.5,Safari,1440,900,,,,,10,643,,,,,,,,,,,,,,,,,125,F,star,1,0,,,,,,,,,,,,,,,,repeat,letter,lettRpt,j,0.853,Hi,,,,,,0,,,,,,,,low,4,0,4,0,1,,,,,,,,,
294082,2022-11-29_09h59.10.668,vts_reward_expectancy_bt,2022.2.4,MacIntel,62.5,Safari,1440,900,,,,,10,653,,,,,,,,,,,,,,,,,132,W,triangle,1,0,,,,,,,,,,,,,,,,switch,number,numSwt,d,0.702,Lo,,,,,,0,,,,,,,,low,5,0,5,0,1,,,,,,,,,
294082,2022-11-29_09h59.10.668,vts_reward_expectancy_bt,2022.2.4,MacIntel,62.5,Safari,1440,900,,,,,10,663,,,,,,,,,,,,,,,,,139,H,circle,1,0,,,,,,,,,,,,,,,,repeat,number,numRpt,d,0.769,Hi,,,,,,0,,,,,,,,low,6,0,6,0,1,,,,,,,,,
294082,2022-11-29_09h59.10.668,vts_reward_expectancy_bt,2022.2.4,MacIntel,62.5,Safari,1440,900,,,,,10,673,,,,,,,,,,,,,,,,,174,U,hexagon,1,0,,,,,,,,,,,,,,,,switch,letter,lettSwt,k,1.127,Lo,,,,,,0,,,,,,,,low,7,0,7,0,1,,,,,,,,,
294082,2022-11-29_09h59.10.668,vts_reward_expectancy_bt,2022.2.4,MacIntel,62.5,Safari,1440,900,,,,,10,683,,,,,,,,,,,,,,,,,146,B,triangle,1,0,,,,,,,,,,,,,,,,repeat,letter,lettRpt,j,0.684,Lo,,,,,,0,,,,,,,,low,8,0,8,0,1,,,,,,,,,
294082,2022-11-29_09h59.10.668,vts_reward_expectancy_bt,2022.2.4,MacIntel,62.5,Safari,1440,900,,,,,10,693,,,,,,,,,,,,,,,,,181,Y,hexagon,1,0,,,,,,,,,,,,,,,,switch,number,numSwt,f,0.644,Lo,,,,,,0,,,,,,,,low,9,0,9,0,1,,,,,,,,,
294082,2022-11-29_09h59.10.668,vts_reward_expectancy_bt,2022.2.4,MacIntel,62.5,Safari,1440,900,,,,,10,703,,,,,,,,,,,,,,,,,167,D,star,1,0,,,,,,,,,,,,,,,,switch,letter,lettSwt,j,0.617,Hi,,,,,,0,,,,,,,,low,10,0,10,0,1,,,,,,,,,
294082,2022-11-29_09h59.10.668,vts_reward_expectancy_bt,2022.2.4,MacIntel,62.5,Safari,1440,900,,,,,0,703,,,,,,,,,,,,,,,,,160,S,circle,1,0,,,,,,,,,,,,,,,,repeat,letter,lettRpt,k,1.329,Hi,,,,,,0,,,,,,,,low,11,0,11,0,1,,,,,,,,,
294082,2022-11-29_09h59.10.668,vts_reward_expectancy_bt,2022.2.4,MacIntel,62.5,Safari,1440,900,,,,,10,713,,,,,,,,,,,,,,,,,125,F,hexagon,1,0,,,,,,,,,,,,,,,,repeat,letter,lettRpt,j,0.753,Lo,,,,,,0,,,,,,,,low,12,0,12,0,1,,,,,,,,,
294082,2022-11-29_09h59.10.668,vts_reward_expectancy_bt,2022.2.4,MacIntel,62.5,Safari,1440,900,,,,,1,714,,,,,,,,,,,,,,,,,132,W,triangle,1,0,,,,,,,,,,,,,,,,repeat,letter,lettRpt,k,0.917,Lo,,,,,,0,,,,,,,,low,13,0,13,0,1,,,,,,,,,
294082,2022-11-29_09h59.10.668,vts_reward_expectancy_bt,2022.2.4,MacIntel,62.5,Safari,1440,900,,,,,1,715,,,,,,,,,,,,,,,,,139,H,circle,1,0,,,,,,,,,,,,,,,,repeat,letter,lettRpt,j,0.751,Hi,,,,,,0,,,,,,,,low,14,0,14,0,1,,,,,,,,,
294082,2022-11-29_09h59.10.668,vts_reward_expectancy_bt,2022.2.4,MacIntel,62.5,Safari,1440,900,,,,,1,716,,,,,,,,,,,,,,,,,174,U,star,1,0,,,,,,,,,,,,,,,,switch,number,numSwt,f,0.66,Hi,,,,,,0,,,,,,,,low,15,0,15,0,1,,,,,,,,,
294082,2022-11-29_09h59.10.668,vts_reward_expectancy_bt,2022.2.4,MacIntel,62.5,Safari,1440,900,,,,,10,726,,,,,,,,,,,,,,,,,132,U,hexagon,1,0,,,,,,,,,,,,,,,,switch,letter,lettSwt,k,1.214,Lo,,,,,,0,,,,,,,,low,16,0,16,0,1,,,,,,,,,
294082,2022-11-29_09h59.10.668,vts_reward_expectancy_bt,2022.2.4,MacIntel,62.5,Safari,1440,900,,,,,0,726,,,,,,,,,,,,,,,,,167,S,circle,1,0,,,,,,,,,,,,,,,,repeat,letter,lettRpt,k,0.994,Hi,,,,,,0,,,,,,,,low,17,0,17,0,1,,,,,,,,,
294082,2022-11-29_09h59.10.668,vts_reward_expectancy_bt,2022.2.4,MacIntel,62.5,Safari,1440,900,,,,,1,727,,,,,,,,,,,,,,,,,160,H,triangle,1,0,,,,,,,,,,,,,,,,repeat,letter,lettRpt,j,0.86,Lo,,,,,,0,,,,,,,,low,18,0,18,0,1,,,,,,,,,
294082,2022-11-29_09h59.10.668,vts_reward_expectancy_bt,2022.2.4,MacIntel,62.5,Safari,1440,900,,,,,10,737,,,,,,,,,,,,,,,,,125,F,star,1,0,,,,,,,,,,,,,,,,switch,number,numSwt,d,0.737,Hi,,,,,,0,,,,,,,,low,19,0,19,0,1,,,,,,,,,
294082,2022-11-29_09h59.10.668,vts_reward_expectancy_bt,2022.2.4,MacIntel,62.5,Safari,1440,900,,,,,1,738,,,,,,,,,,,,,,,,,181,B,triangle,1,0,,,,,,,,,,,,,,,,repeat,number,numRpt,f,0.699,Lo,,,,,,0,,,,,,,,low,20,0,20,0,1,,,,,,,,,
294082,2022-11-29_09h59.10.668,vts_reward_expectancy_bt,2022.2.4,MacIntel,62.5,Safari,1440,900,,,,,1,739,,,,,,,,,,,,,,,,,174,D,star,1,0,,,,,,,,,,,,,,,,switch,letter,lettSwt,j,0.714,Hi,,,,,,0,,,,,,,,low,21,0,21,0,1,,,,,,,,,
294082,2022-11-29_09h59.10.668,vts_reward_expectancy_bt,2022.2.4,MacIntel,62.5,Safari,1440,900,,,,,0,739,,,,,,,,,,,,,,,,,139,Y,hexagon,0,0,,,,,,,,,,,,,,,,repeat,letter,NA,j,0.777,Hi,,,,,,0,,,,,,,,low,22,0,22,0,1,,,,,,,,,
294082,2022-11-29_09h59.10.668,vts_reward_expectancy_bt,2022.2.4,MacIntel,62.5,Safari,1440,900,,,,,10,749,,,,,,,,,,,,,,,,,146,W,circle,1,1,,,,,,,,,,,,,,,,repeat,letter,lettRpt,k,0.696,Hi,,,,,,0,,,,,,,,low,23,0,23,0,1,,,,,,,,,
294082,2022-11-29_09h59.10.668,vts_reward_expectancy_bt,2022.2.4,MacIntel,62.5,Safari,1440,900,,,,,1,750,,,,,,,,,,,,,,,,,167,S,triangle,1,0,,,,,,,,,,,,,,,,repeat,letter,lettRpt,k,0.85,Lo,,,,,,0,,,,,,,,low,24,0,24,0,1,,,,,,,,,
294082,2022-11-29_09h59.10.668,vts_reward_expectancy_bt,2022.2.4,MacIntel,62.5,Safari,1440,900,,,,,1,751,,,,,,,,,,,,,,,,,132,F,hexagon,1,0,,,,,,,,,,,,,,,,repeat,letter,lettRpt,j,0.699,Lo,,,,,,0,,,,,,,,low,25,0,25,0,1,,,,,,,,,
294082,2022-11-29_09h59.10.668,vts_reward_expectancy_bt,2022.2.4,MacIntel,62.5,Safari,1440,900,,,,,1,752,,,,,,,,,,,,,,,,,146,W,star,1,0,,,,,,,,,,,,,,,,repeat,letter,lettRpt,k,0.611,Hi,,,,,,0,,,,,,,,low,26,0,26,0,1,,,,,,,,,
294082,2022-11-29_09h59.10.668,vts_reward_expectancy_bt,2022.2.4,MacIntel,62.5,Safari,1440,900,,,,,10,762,,,,,,,,,,,,,,,,,160,H,circle,1,0,,,,,,,,,,,,,,,,repeat,letter,lettRpt,j,0.731,Hi,,,,,,0,,,,,,,,low,27,0,27,0,1,,,,,,,,,
294082,2022-11-29_09h59.10.668,vts_reward_expectancy_bt,2022.2.4,MacIntel,62.5,Safari,1440,900,,,,,10,772,,,,,,,,,,,,,,,,,174,Y,circle,1,0,,,,,,,,,,,,,,,,switch,number,numSwt,f,0.561,Hi,,,,,,0,,,,,,,,low,28,0,28,0,1,,,,,,,,,
294082,2022-11-29_09h59.10.668,vts_reward_expectancy_bt,2022.2.4,MacIntel,62.5,Safari,1440,900,,,,,1,773,,,,,,,,,,,,,,,,,181,B,triangle,1,0,,,,,,,,,,,,,,,,repeat,number,numRpt,f,0.597,Lo,,,,,,0,,,,,,,,low,29,0,29,0,1,,,,,,,,,
294082,2022-11-29_09h59.10.668,vts_reward_expectancy_bt,2022.2.4,MacIntel,62.5,Safari,1440,900,,,,,1,774,,,,,,,,,,,,,,,,,139,D,hexagon,1,0,,,,,,,,,,,,,,,,switch,letter,lettSwt,j,0.666,Lo,,,,,,0,,,,,,,,low,30,0,30,0,1,,,,,,,,,
294082,2022-11-29_09h59.10.668,vts_reward_expectancy_bt,2022.2.4,MacIntel,62.5,Safari,1440,900,,,,,10,784,,,,,,,,,,,,,,,,,125,U,star,1,0,,,,,,,,,,,,,,,,switch,number,numSwt,d,0.527,Hi,,,,,,0,,,,,,,,low,31,0,31,0,1,,,,,,,,,
294082,2022-11-29_09h59.10.668,vts_reward_expectancy_bt,2022.2.4,MacIntel,62.5,Safari,1440,900,,,,,0,784,,,,,,,,,,,,,,,,,167,B,circle,1,0,,,,,,,,,,,,,,,,switch,letter,lettSwt,j,0.782,Hi,,,,,,1,,,,,,space,13.277,low,0,0,0,0,1,,,,,,,,,
294082,2022-11-29_09h59.10.668,vts_reward_expectancy_bt,2022.2.4,MacIntel,62.5,Safari,1440,900,,,,,1,785,,,,,,,,,,,,,,,,,125,S,triangle,1,0,,,,,,,,,,,,,,,,repeat,letter,lettRpt,k,0.594,Lo,,,,,,1,,,,,,,,low,1,0,1,0,1,,,,,,,,,
294082,2022-11-29_09h59.10.668,vts_reward_expectancy_bt,2022.2.4,MacIntel,62.5,Safari,1440,900,,,,,0,785,,,,,,,,,,,,,,,,,132,U,star,1,0,,,,,,,,,,,,,,,,switch,number,numSwt,d,0.826,Hi,,,,,,1,,,,,,,,low,2,0,2,0,1,,,,,,,,,
294082,2022-11-29_09h59.10.668,vts_reward_expectancy_bt,2022.2.4,MacIntel,62.5,Safari,1440,900,,,,,10,795,,,,,,,,,,,,,,,,,160,W,hexagon,1,0,,,,,,,,,,,,,,,,switch,letter,lettSwt,k,1.002,Lo,,,,,,1,,,,,,,,low,3,0,3,0,1,,,,,,,,,
294082,2022-11-29_09h59.10.668,vts_reward_expectancy_bt,2022.2.4,MacIntel,62.5,Safari,1440,900,,,,,1,796,,,,,,,,,,,,,,,,,146,H,circle,1,0,,,,,,,,,,,,,,,,switch,number,numSwt,d,0.61,Hi,,,,,,1,,,,,,,,low,4,0,4,0,1,,,,,,,,,
294082,2022-11-29_09h59.10.668,vts_reward_expectancy_bt,2022.2.4,MacIntel,62.5,Safari,1440,900,,,,,1,797,,,,,,,,,,,,,,,,,181,Y,triangle,1,0,,,,,,,,,,,,,,,,repeat,number,numRpt,f,0.578,Lo,,,,,,1,,,,,,,,low,5,0,5,0,1,,,,,,,,,
294082,2022-11-29_09h59.10.668,vts_reward_expectancy_bt,2022.2.4,MacIntel,62.5,Safari,1440,900,,,,,1,798,,,,,,,,,,,,,,,,,139,D,star,1,0,,,,,,,,,,,,,,,,repeat,number,numRpt,d,0.481,Hi,,,,,,1,,,,,,,,low,6,0,6,0,1,,,,,,,,,
294082,2022-11-29_09h59.10.668,vts_reward_expectancy_bt,2022.2.4,MacIntel,62.5,Safari,1440,900,,,,,1,799,,,,,,,,,,,,,,,,,174,F,hexagon,1,0,,,,,,,,,,,,,,,,switch,letter,lettSwt,j,0.576,Lo,,,,,,1,,,,,,,,low,7,0,7,0,1,,,,,,,,,
294082,2022-11-29_09h59.10.668,vts_reward_expectancy_bt,2022.2.4,MacIntel,62.5,Safari,1440,900,,,,,1,800,,,,,,,,,,,,,,,,,167,B,hexagon,1,0,,,,,,,,,,,,,,,,repeat,letter,lettRpt,j,0.343,Lo,,,,,,1,,,,,,,,low,8,0,8,0,1,,,,,,,,,
294082,2022-11-29_09h59.10.668,vts_reward_expectancy_bt,2022.2.4,MacIntel,62.5,Safari,1440,900,,,,,10,810,,,,,,,,,,,,,,,,,125,S,star,1,0,,,,,,,,,,,,,,,,switch,number,numSwt,d,0.61,Hi,,,,,,1,,,,,,,,low,9,0,9,0,1,,,,,,,,,
294082,2022-11-29_09h59.10.668,vts_reward_expectancy_bt,2022.2.4,MacIntel,62.5,Safari,1440,900,,,,,10,820,,,,,,,,,,,,,,,,,132,U,circle,1,0,,,,,,,,,,,,,,,,repeat,number,numRpt,d,0.577,Hi,,,,,,1,,,,,,,,low,10,0,10,0,1,,,,,,,,,
294082,2022-11-29_09h59.10.668,vts_reward_expectancy_bt,2022.2.4,MacIntel,62.5,Safari,1440,900,,,,,1,821,,,,,,,,,,,,,,,,,160,W,triangle,1,0,,,,,,,,,,,,,,,,repeat,number,numRpt,f,0.852,Lo,,,,,,1,,,,,,,,low,11,0,11,0,1,,,,,,,,,
294082,2022-11-29_09h59.10.668,vts_reward_expectancy_bt,2022.2.4,MacIntel,62.5,Safari,1440,900,,,,,0,821,,,,,,,,,,,,,,,,,146,H,hexagon,0,0,,,,,,,,,,,,,,,,repeat,number,NA,f,0.618,Lo,,,,,,1,,,,,,,,low,12,0,12,0,1,,,,,,,,,
294082,2022-11-29_09h59.10.668,vts_reward_expectancy_bt,2022.2.4,MacIntel,62.5,Safari,1440,900,,,,,10,831,,,,,,,,,,,,,,,,,181,Y,triangle,1,1,,,,,,,,,,,,,,,,switch,letter,lettSwt,k,0.713,Lo,,,,,,1,,,,,,,,low,13,0,13,0,1,,,,,,,,,
294082,2022-11-29_09h59.10.668,vts_reward_expectancy_bt,2022.2.4,MacIntel,62.5,Safari,1440,900,,,,,0,831,,,,,,,,,,,,,,,,,139,D,circle,1,0,,,,,,,,,,,,,,,,switch,number,numSwt,d,1.196,Hi,,,,,,1,,,,,,,,low,14,0,14,0,1,,,,,,,,,
294082,2022-11-29_09h59.10.668,vts_reward_expectancy_bt,2022.2.4,MacIntel,62.5,Safari,1440,900,,,,,0,831,,,,,,,,,,,,,,,,,174,F,star,1,0,,,,,,,,,,,,,,,,switch,letter,lettSwt,j,0.845,Hi,,,,,,1,,,,,,,,low,15,0,15,0,1,,,,,,,,,
294082,2022-11-29_09h59.10.668,vts_reward_expectancy_bt,2022.2.4,MacIntel,62.5,Safari,1440,900,,,,,10,841,,,,,,,,,,,,,,,,,174,Y,hexagon,1,0,,,,,,,,,,,,,,,,repeat,letter,lettRpt,k,0.652,Lo,,,,,,1,,,,,,,,low,16,0,16,0,1,,,,,,,,,
294082,2022-11-29_09h59.10.668,vts_reward_expectancy_bt,2022.2.4,MacIntel,62.5,Safari,1440,900,,,,,0,841,,,,,,,,,,,,,,,,,160,B,star,1,0,,,,,,,,,,,,,,,,repeat,letter,lettRpt,j,0.734,Hi,,,,,,1,,,,,,,,low,17,0,17,0,1,,,,,,,,,
294082,2022-11-29_09h59.10.668,vts_reward_expectancy_bt,2022.2.4,MacIntel,62.5,Safari,1440,900,,,,,10,851,,,,,,,,,,,,,,,,,132,U,triangle,1,0,,,,,,,,,,,,,,,,switch,number,numSwt,d,0.565,Lo,,,,,,1,,,,,,,,low,18,0,18,0,1,,,,,,,,,
294082,2022-11-29_09h59.10.668,vts_reward_expectancy_bt,2022.2.4,MacIntel,62.5,Safari,1440,900,,,,,0,851,,,,,,,,,,,,,,,,,146,S,circle,1,0,,,,,,,,,,,,,,,,switch,letter,lettSwt,k,0.761,Hi,,,,,,1,,,,,,,,low,19,0,19,0,1,,,,,,,,,
294082,2022-11-29_09h59.10.668,vts_reward_expectancy_bt,2022.2.4,MacIntel,62.5,Safari,1440,900,,,,,0,851,,,,,,,,,,,,,,,,,167,H,circle,1,0,,,,,,,,,,,,,,,,switch,number,numSwt,f,0.644,Hi,,,,,,1,,,,,,,,low,20,0,20,0,1,,,,,,,,,
294082,2022-11-29_09h59.10.668,vts_reward_expectancy_bt,2022.2.4,MacIntel,62.5,Safari,1440,900,,,,,1,852,,,,,,,,,,,,,,,,,181,W,triangle,1,0,,,,,,,,,,,,,,,,repeat,number,numRpt,f,0.713,Lo,,,,,,1,,,,,,,,low,21,0,21,0,1,,,,,,,,,
294082,2022-11-29_09h59.10.668,vts_reward_expectancy_bt,2022.2.4,MacIntel,62.5,Safari,1440,900,,,,,0,852,,,,,,,,,,,,,,,,,139,D,star,1,0,,,,,,,,,,,,,,,,switch,letter,lettSwt,j,1.461,Hi,,,,,,1,,,,,,,,low,22,0,22,0,1,,,,,,,,,
294082,2022-11-29_09h59.10.668,vts_reward_expectancy_bt,2022.2.4,MacIntel,62.5,Safari,1440,900,,,,,10,862,,,,,,,,,,,,,,,,,125,F,hexagon,1,0,,,,,,,,,,,,,,,,repeat,letter,lettRpt,j,1.663,Lo,,,,,,1,,,,,,,,low,23,0,23,0,1,,,,,,,,,
294082,2022-11-29_09h59.10.668,vts_reward_expectancy_bt,2022.2.4,MacIntel,62.5,Safari,1440,900,,,,,10,872,,,,,,,,,,,,,,,,,167,U,star,1,0,,,,,,,,,,,,,,,,repeat,letter,lettRpt,k,0.711,Hi,,,,,,1,,,,,,,,low,24,0,24,0,1,,,,,,,,,
294082,2022-11-29_09h59.10.668,vts_reward_expectancy_bt,2022.2.4,MacIntel,62.5,Safari,1440,900,,,,,1,873,,,,,,,,,,,,,,,,,181,S,triangle,1,0,,,,,,,,,,,,,,,,repeat,letter,lettRpt,k,0.761,Lo,,,,,,1,,,,,,,,low,25,0,25,0,1,,,,,,,,,
294082,2022-11-29_09h59.10.668,vts_reward_expectancy_bt,2022.2.4,MacIntel,62.5,Safari,1440,900,,,,,0,873,,,,,,,,,,,,,,,,,174,W,circle,1,0,,,,,,,,,,,,,,,,repeat,letter,lettRpt,k,0.896,Hi,,,,,,1,,,,,,,,low,26,0,26,0,1,,,,,,,,,
294082,2022-11-29_09h59.10.668,vts_reward_expectancy_bt,2022.2.4,MacIntel,62.5,Safari,1440,900,,,,,0,873,,,,,,,,,,,,,,,,,139,H,hexagon,0,0,,,,,,,,,,,,,,,,repeat,letter,NA,k,0.732,Hi,,,,,,1,,,,,,,,low,27,0,27,0,1,,,,,,,,,
294082,2022-11-29_09h59.10.668,vts_reward_expectancy_bt,2022.2.4,MacIntel,62.5,Safari,1440,900,,,,,0,873,,,,,,,,,,,,,,,,,146,Y,circle,1,1,,,,,,,,,,,,,,,,repeat,letter,lettRpt,k,0.817,Hi,,,,,,1,,,,,,,,low,28,0,28,0,1,,,,,,,,,
294082,2022-11-29_09h59.10.668,vts_reward_expectancy_bt,2022.2.4,MacIntel,62.5,Safari,1440,900,,,,,1,874,,,,,,,,,,,,,,,,,132,F,triangle,1,0,,,,,,,,,,,,,,,,repeat,letter,lettRpt,j,0.895,Lo,,,,,,1,,,,,,,,low,29,0,29,0,1,,,,,,,,,
294082,2022-11-29_09h59.10.668,vts_reward_expectancy_bt,2022.2.4,MacIntel,62.5,Safari,1440,900,,,,,10,884,,,,,,,,,,,,,,,,,160,B,star,1,0,,,,,,,,,,,,,,,,repeat,letter,lettRpt,j,0.627,Hi,,,,,,1,,,,,,,,low,30,0,30,0,1,,,,,,,,,
294082,2022-11-29_09h59.10.668,vts_reward_expectancy_bt,2022.2.4,MacIntel,62.5,Safari,1440,900,,,,,0,884,,,,,,,,,,,,,,,,,125,D,hexagon,0,0,,,,,,,,,,,,,,,,repeat,letter,NA,k,0.467,Hi,,,,,,1,,,,,,,,low,31,0,31,0,1,,,,,,,,,
294082,2022-11-29_09h59.10.668,vts_reward_expectancy_bt,2022.2.4,MacIntel,62.5,Safari,1440,900,,,,,0,884,,,,,,,,,,,,,,,,,132,Y,star,1,1,,,,,,,,,,,,,,,,switch,number,numSwt,d,0.911,Hi,,,,,,2,,,,,,space,0.715,low,0,0,0,0,1,,,,,,,,,
294082,2022-11-29_09h59.10.668,vts_reward_expectancy_bt,2022.2.4,MacIntel,62.5,Safari,1440,900,,,,,0,884,,,,,,,,,,,,,,,,,181,H,circle,1,0,,,,,,,,,,,,,,,,repeat,number,numRpt,f,0.627,Hi,,,,,,2,,,,,,,,low,1,0,1,0,1,,,,,,,,,
294082,2022-11-29_09h59.10.668,vts_reward_expectancy_bt,2022.2.4,MacIntel,62.5,Safari,1440,900,,,,,1,885,,,,,,,,,,,,,,,,,146,S,hexagon,1,0,,,,,,,,,,,,,,,,repeat,number,numRpt,d,0.911,Lo,,,,,,2,,,,,,,,low,2,0,2,0,1,,,,,,,,,
294082,2022-11-29_09h59.10.668,vts_reward_expectancy_bt,2022.2.4,MacIntel,62.5,Safari,1440,900,,,,,10,895,,,,,,,,,,,,,,,,,167,U,triangle,1,0,,,,,,,,,,,,,,,,repeat,number,numRpt,f,1.061,Lo,,,,,,2,,,,,,,,low,3,0,3,0,1,,,,,,,,,
294082,2022-11-29_09h59.10.668,vts_reward_expectancy_bt,2022.2.4,MacIntel,62.5,Safari,1440,900,,,,,10,905,,,,,,,,,,,,,,,,,160,B,star,1,0,,,,,,,,,,,,,,,,repeat,number,numRpt,f,0.55,Hi,,,,,,2,,,,,,,,low,4,0,4,0,1,,,,,,,,,
294082,2022-11-29_09h59.10.668,vts_reward_expectancy_bt,2022.2.4,MacIntel,62.5,Safari,1440,900,,,,,0,905,,,,,,,,,,,,,,,,,139,W,circle,0,0,,,,,,,,,,,,,,,,repeat,number,NA,f,0.55,Hi,,,,,,2,,,,,,,,low,5,0,5,0,1,,,,,,,,,
294082,2022-11-29_09h59.10.668,vts_reward_expectancy_bt,2022.2.4,MacIntel,62.5,Safari,1440,900,,,,,1,906,,,,,,,,,,,,,,,,,125,D,hexagon,1,1,,,,,,,,,,,,,,,,repeat,number,numRpt,d,0.727,Lo,,,,,,2,,,,,,,,low,6,0,6,0,1,,,,,,,,,
294082,2022-11-29_09h59.10.668,vts_reward_expectancy_bt,2022.2.4,MacIntel,62.5,Safari,1440,900,,,,,1,907,,,,,,,,,,,,,,,,,174,F,triangle,1,0,,,,,,,,,,,,,,,,switch,letter,lettSwt,j,0.911,Lo,,,,,,2,,,,,,,,low,7,0,7,0,1,,,,,,,,,
294082,2022-11-29_09h59.10.668,vts_reward_expectancy_bt,2022.2.4,MacIntel,62.5,Safari,1440,900,,,,,0,907,,,,,,,,,,,,,,,,,132,Y,star,1,0,,,,,,,,,,,,,,,,switch,number,numSwt,d,0.632,Hi,,,,,,2,,,,,,,,low,8,0,8,0,1,,,,,,,,,
294082,2022-11-29_09h59.10.668,vts_reward_expectancy_bt,2022.2.4,MacIntel,62.5,Safari,1440,900,,,,,1,908,,,,,,,,,,,,,,,,,181,H,triangle,1,0,,,,,,,,,,,,,,,,switch,letter,lettSwt,j,0.677,Lo,,,,,,2,,,,,,,,low,9,0,9,0,1,,,,,,,,,
294082,2022-11-29_09h59.10.668,vts_reward_expectancy_bt,2022.2.4,MacIntel,62.5,Safari,1440,900,,,,,10,918,,,,,,,,,,,,,,,,,146,S,hexagon,1,0,,,,,,,,,,,,,,,,repeat,letter,lettRpt,k,0.894,Lo,,,,,,2,,,,,,,,low,10,0,10,0,1,,,,,,,,,
294082,2022-11-29_09h59.10.668,vts_reward_expectancy_bt,2022.2.4,MacIntel,62.5,Safari,1440,900,,,,,0,918,,,,,,,,,,,,,,,,,167,U,circle,1,0,,,,,,,,,,,,,,,,repeat,letter,lettRpt,k,0.96,Hi,,,,,,2,,,,,,,,low,11,0,11,0,1,,,,,,,,,
294082,2022-11-29_09h59.10.668,vts_reward_expectancy_bt,2022.2.4,MacIntel,62.5,Safari,1440,900,,,,,1,919,,,,,,,,,,,,,,,,,160,B,triangle,1,0,,,,,,,,,,,,,,,,repeat,letter,lettRpt,j,0.565,Lo,,,,,,2,,,,,,,,low,12,0,12,0,1,,,,,,,,,
294082,2022-11-29_09h59.10.668,vts_reward_expectancy_bt,2022.2.4,MacIntel,62.5,Safari,1440,900,,,,,1,920,,,,,,,,,,,,,,,,,139,W,hexagon,1,0,,,,,,,,,,,,,,,,switch,number,numSwt,d,0.479,Lo,,,,,,2,,,,,,,,low,13,0,13,0,1,,,,,,,,,
294082,2022-11-29_09h59.10.668,vts_reward_expectancy_bt,2022.2.4,MacIntel,62.5,Safari,1440,900,,,,,0,920,,,,,,,,,,,,,,,,,125,D,circle,1,0,,,,,,,,,,,,,,,,repeat,number,numRpt,d,0.618,Hi,,,,,,2,,,,,,,,low,14,0,14,0,1,,,,,,,,,
294082,2022-11-29_09h59.10.668,vts_reward_expectancy_bt,2022.2.4,MacIntel,62.5,Safari,1440,900,,,,,10,930,,,,,,,,,,,,,,,,,174,F,star,1,0,,,,,,,,,,,,,,,,repeat,number,numRpt,f,0.427,Hi,,,,,,2,,,,,,,,low,15,0,15,0,1,,,,,,,,,
294082,2022-11-29_09h59.10.668,vts_reward_expectancy_bt,2022.2.4,MacIntel,62.5,Safari,1440,900,,,,,0,930,,,,,,,,,,,,,,,,,125,U,circle,1,0,,,,,,,,,,,,,,,,switch,letter,lettSwt,k,0.997,Hi,,,,,,2,,,,,,,,low,16,0,16,0,1,,,,,,,,,
294082,2022-11-29_09h59.10.668,vts_reward_expectancy_bt,2022.2.4,MacIntel,62.5,Safari,1440,900,,,,,0,930,,,,,,,,,,,,,,,,,132,H,star,0,0,,,,,,,,,,,,,,,,repeat,letter,NA,k,0.545,Hi,,,,,,2,,,,,,,,low,17,0,17,0,1,,,,,,,,,
294082,2022-11-29_09h59.10.668,vts_reward_expectancy_bt,2022.2.4,MacIntel,62.5,Safari,1440,900,,,,,1,931,,,,,,,,,,,,,,,,,139,Y,hexagon,1,1,,,,,,,,,,,,,,,,switch,number,numSwt,d,1.012,Lo,,,,,,2,,,,,,,,low,18,0,18,0,1,,,,,,,,,
294082,2022-11-29_09h59.10.668,vts_reward_expectancy_bt,2022.2.4,MacIntel,62.5,Safari,1440,900,,,,,1,932,,,,,,,,,,,,,,,,,181,S,triangle,1,0,,,,,,,,,,,,,,,,switch,letter,lettSwt,k,0.685,Lo,,,,,,2,,,,,,,,low,19,0,19,0,1,,,,,,,,,
294082,2022-11-29_09h59.10.668,vts_reward_expectancy_bt,2022.2.4,MacIntel,62.5,Safari,1440,900,,,,,10,942,,,,,,,,,,,,,,,,,174,B,star,1,0,,,,,,,,,,,,,,,,switch,number,numSwt,f,0.528,Hi,,,,,,2,,,,,,,,low,20,0,20,0,1,,,,,,,,,
294082,2022-11-29_09h59.10.668,vts_reward_expectancy_bt,2022.2.4,MacIntel,62.5,Safari,1440,900,,,,,1,943,,,,,,,,,,,,,,,,,167,W,triangle,1,0,,,,,,,,,,,,,,,,switch,letter,lettSwt,k,0.477,Lo,,,,,,2,,,,,,,,low,21,0,21,0,1,,,,,,,,,
294082,2022-11-29_09h59.10.668,vts_reward_expectancy_bt,2022.2.4,MacIntel,62.5,Safari,1440,900,,,,,0,943,,,,,,,,,,,,,,,,,160,D,hexagon,0,0,,,,,,,,,,,,,,,,repeat,letter,NA,k,0.466,Lo,,,,,,2,,,,,,,,low,22,0,22,0,1,,,,,,,,,
294082,2022-11-29_09h59.10.668,vts_reward_expectancy_bt,2022.2.4,MacIntel,62.5,Safari,1440,900,,,,,0,943,,,,,,,,,,,,,,,,,146,F,circle,0,1,,,,,,,,,,,,,,,,switch,number,NA,f,0.929,Lo,,,,,,2,,,,,,,,low,23,0,23,0,1,,,,,,,,,
294082,2022-11-29_09h59.10.668,vts_reward_expectancy_bt,2022.2.4,MacIntel,62.5,Safari,1440,900,,,,,10,953,,,,,,,,,,,,,,,,,160,D,circle,1,1,,,,,,,,,,,,,,,,repeat,number,numRpt,f,0.577,Hi,,,,,,2,,,,,,,,low,24,0,24,0,1,,,,,,,,,
294082,2022-11-29_09h59.10.668,vts_reward_expectancy_bt,2022.2.4,MacIntel,62.5,Safari,1440,900,,,,,1,954,,,,,,,,,,,,,,,,,125,Y,triangle,1,0,,,,,,,,,,,,,,,,repeat,number,numRpt,d,0.661,Lo,,,,,,2,,,,,,,,low,25,0,25,0,1,,,,,,,,,
294082,2022-11-29_09h59.10.668,vts_reward_expectancy_bt,2022.2.4,MacIntel,62.5,Safari,1440,900,,,,,0,954,,,,,,,,,,,,,,,,,146,U,star,1,0,,,,,,,,,,,,,,,,repeat,number,numRpt,d,0.735,Hi,,,,,,2,,,,,,,,low,26,0,26,0,1,,,,,,,,,
294082,2022-11-29_09h59.10.668,vts_reward_expectancy_bt,2022.2.4,MacIntel,62.5,Safari,1440,900,,,,,1,955,,,,,,,,,,,,,,,,,181,W,hexagon,1,0,,,,,,,,,,,,,,,,switch,letter,lettSwt,k,0.666,Lo,,,,,,2,,,,,,,,low,27,0,27,0,1,,,,,,,,,
294082,2022-11-29_09h59.10.668,vts_reward_expectancy_bt,2022.2.4,MacIntel,62.5,Safari,1440,900,,,,,10,965,,,,,,,,,,,,,,,,,167,B,hexagon,1,0,,,,,,,,,,,,,,,,repeat,letter,lettRpt,j,0.645,Lo,,,,,,2,,,,,,,,low,28,0,28,0,1,,,,,,,,,
294082,2022-11-29_09h59.10.668,vts_reward_expectancy_bt,2022.2.4,MacIntel,62.5,Safari,1440,900,,,,,0,965,,,,,,,,,,,,,,,,,132,S,star,0,0,,,,,,,,,,,,,,,,repeat,letter,NA,j,0.645,Lo,,,,,,2,,,,,,,,low,29,0,29,0,1,,,,,,,,,
294082,2022-11-29_09h59.10.668,vts_reward_expectancy_bt,2022.2.4,MacIntel,62.5,Safari,1440,900,,,,,0,965,,,,,,,,,,,,,,,,,174,H,circle,1,1,,,,,,,,,,,,,,,,repeat,letter,lettRpt,j,0.761,Hi,,,,,,2,,,,,,,,low,30,0,30,0,1,,,,,,,,,
294082,2022-11-29_09h59.10.668,vts_reward_expectancy_bt,2022.2.4,MacIntel,62.5,Safari,1440,900,,,,,1,966,,,,,,,,,,,,,,,,,139,F,triangle,1,0,,,,,,,,,,,,,,,,repeat,letter,lettRpt,j,0.703,Lo,,,,,,2,,,,,,,,low,31,0,31,0,1,,,,,,,,,
294082,2022-11-29_09h59.10.668,vts_reward_expectancy_bt,2022.2.4,MacIntel,62.5,Safari,1440,900,,,,,10,976,,,,,,,,,,,,,,,,,174,D,triangle,1,0,,,,,,,,,,,,,,,,repeat,letter,lettRpt,j,0.761,Lo,,,,,,3,,,,,,space,0.663,low,0,0,0,0,1,,,,,,,,,
294082,2022-11-29_09h59.10.668,vts_reward_expectancy_bt,2022.2.4,MacIntel,62.5,Safari,1440,900,,,,,0,976,,,,,,,,,,,,,,,,,160,S,star,1,0,,,,,,,,,,,,,,,,repeat,letter,lettRpt,k,0.762,Hi,,,,,,3,,,,,,,,low,1,0,1,0,1,,,,,,,,,
294082,2022-11-29_09h59.10.668,vts_reward_expectancy_bt,2022.2.4,MacIntel,62.5,Safari,1440,900,,,,,10,986,,,,,,,,,,,,,,,,,146,F,hexagon,1,0,,,,,,,,,,,,,,,,repeat,letter,lettRpt,j,0.645,Lo,,,,,,3,,,,,,,,low,2,0,2,0,1,,,,,,,,,
294082,2022-11-29_09h59.10.668,vts_reward_expectancy_bt,2022.2.4,MacIntel,62.5,Safari,1440,900,,,,,0,986,,,,,,,,,,,,,,,,,181,U,circle,0,0,,,,,,,,,,,,,,,,repeat,letter,NA,j,0.711,Lo,,,,,,3,,,,,,,,low,3,0,3,0,1,,,,,,,,,
294082,2022-11-29_09h59.10.668,vts_reward_expectancy_bt,2022.2.4,MacIntel,62.5,Safari,1440,900,,,,,10,996,,,,,,,,,,,,,,,,,139,H,triangle,1,1,,,,,,,,,,,,,,,,repeat,letter,lettRpt,j,0.748,Lo,,,,,,3,,,,,,,,low,4,0,4,0,1,,,,,,,,,
294082,2022-11-29_09h59.10.668,vts_reward_expectancy_bt,2022.2.4,MacIntel,62.5,Safari,1440,900,,,,,0,996,,,,,,,,,,,,,,,,,167,W,star,1,0,,,,,,,,,,,,,,,,repeat,letter,lettRpt,k,0.785,Hi,,,,,,3,,,,,,,,low,5,0,5,0,1,,,,,,,,,
294082,2022-11-29_09h59.10.668,vts_reward_expectancy_bt,2022.2.4,MacIntel,62.5,Safari,1440,900,,,,,1,997,,,,,,,,,,,,,,,,,132,Y,hexagon,1,0,,,,,,,,,,,,,,,,switch,number,numSwt,d,0.699,Lo,,,,,,3,,,,,,,,low,6,0,6,0,1,,,,,,,,,
294082,2022-11-29_09h59.10.668,vts_reward_expectancy_bt,2022.2.4,MacIntel,62.5,Safari,1440,900,,,,,0,997,,,,,,,,,,,,,,,,,125,B,circle,1,0,,,,,,,,,,,,,,,,repeat,number,numRpt,d,0.629,Hi,,,,,,3,,,,,,,,low,7,0,7,0,1,,,,,,,,,
294082,2022-11-29_09h59.10.668,vts_reward_expectancy_bt,2022.2.4,MacIntel,62.5,Safari,1440,900,,,,,1,998,,,,,,,,,,,,,,,,,174,D,hexagon,1,0,,,,,,,,,,,,,,,,repeat,number,numRpt,f,0.644,Lo,,,,,,3,,,,,,,,low,8,0,8,0,1,,,,,,,,,
294082,2022-11-29_09h59.10.668,vts_reward_expectancy_bt,2022.2.4,MacIntel,62.5,Safari,1440,900,,,,,1,999,,,,,,,,,,,,,,,,,160,S,triangle,1,0,,,,,,,,,,,,,,,,repeat,number,numRpt,f,0.594,Lo,,,,,,3,,,,,,,,low,9,0,9,0,1,,,,,,,,,
294082,2022-11-29_09h59.10.668,vts_reward_expectancy_bt,2022.2.4,MacIntel,62.5,Safari,1440,900,,,,,0,999,,,,,,,,,,,,,,,,,146,F,star,0,0,,,,,,,,,,,,,,,,repeat,number,NA,f,1.277,Lo,,,,,,3,,,,,,,,low,10,0,10,0,1,,,,,,,,,
294082,2022-11-29_09h59.10.668,vts_reward_expectancy_bt,2022.2.4,MacIntel,62.5,Safari,1440,900,,,,,0,999,,,,,,,,,,,,,,,,,181,U,circle,1,1,,,,,,,,,,,,,,,,switch,letter,lettSwt,k,0.811,Hi,,,,,,3,,,,,,,,low,11,0,11,0,1,,,,,,,,,
294082,2022-11-29_09h59.10.668,vts_reward_expectancy_bt,2022.2.4,MacIntel,62.5,Safari,1440,900,,,,,1,1000,,,,,,,,,,,,,,,,,139,H,triangle,1,0,,,,,,,,,,,,,,,,repeat,letter,lettRpt,j,0.812,Lo,,,,,,3,,,,,,,,low,12,0,12,0,1,,,,,,,,,
294082,2022-11-29_09h59.10.668,vts_reward_expectancy_bt,2022.2.4,MacIntel,62.5,Safari,1440,900,,,,,1,1001,,,,,,,,,,,,,,,,,167,W,hexagon,1,0,,,,,,,,,,,,,,,,repeat,letter,lettRpt,k,0.717,Lo,,,,,,3,,,,,,,,low,13,0,13,0,1,,,,,,,,,
294082,2022-11-29_09h59.10.668,vts_reward_expectancy_bt,2022.2.4,MacIntel,62.5,Safari,1440,900,,,,,10,1011,,,,,,,,,,,,,,,,,132,Y,star,1,0,,,,,,,,,,,,,,,,repeat,letter,lettRpt,k,0.603,Hi,,,,,,3,,,,,,,,low,14,0,14,0,1,,,,,,,,,
294082,2022-11-29_09h59.10.668,vts_reward_expectancy_bt,2022.2.4,MacIntel,62.5,Safari,1440,900,,,,,10,1021,,,,,,,,,,,,,,,,,125,B,circle,1,0,,,,,,,,,,,,,,,,repeat,letter,lettRpt,j,0.527,Hi,,,,,,3,,,,,,,,low,15,0,15,0,1,,,,,,,,,
294082,2022-11-29_09h59.10.668,vts_reward_expectancy_bt,2022.2.4,MacIntel,62.5,Safari,1440,900,,,,,0,1021,,,,,,,,,,,,,,,,,146,W,star,1,0,,,,,,,,,,,,,,,,switch,number,numSwt,d,0.576,Hi,,,,,,3,,,,,,,,low,16,0,16,0,1,,,,,,,,,
294082,2022-11-29_09h59.10.668,vts_reward_expectancy_bt,2022.2.4,MacIntel,62.5,Safari,1440,900,,,,,1,1022,,,,,,,,,,,,,,,,,125,B,triangle,1,0,,,,,,,,,,,,,,,,repeat,number,numRpt,d,0.744,Lo,,,,,,3,,,,,,,,low,17,0,17,0,1,,,,,,,,,
294082,2022-11-29_09h59.10.668,vts_reward_expectancy_bt,2022.2.4,MacIntel,62.5,Safari,1440,900,,,,,1,1023,,,,,,,,,,,,,,,,,132,F,hexagon,1,0,,,,,,,,,,,,,,,,repeat,number,numRpt,d,0.463,Lo,,,,,,3,,,,,,,,low,18,0,18,0,1,,,,,,,,,
294082,2022-11-29_09h59.10.668,vts_reward_expectancy_bt,2022.2.4,MacIntel,62.5,Safari,1440,900,,,,,10,1033,,,,,,,,,,,,,,,,,174,Y,circle,1,0,,,,,,,,,,,,,,,,switch,letter,lettSwt,k,0.595,Hi,,,,,,3,,,,,,,,low,19,0,19,0,1,,,,,,,,,
294082,2022-11-29_09h59.10.668,vts_reward_expectancy_bt,2022.2.4,MacIntel,62.5,Safari,1440,900,,,,,1,1034,,,,,,,,,,,,,,,,,160,S,triangle,1,0,,,,,,,,,,,,,,,,repeat,letter,lettRpt,k,0.799,Lo,,,,,,3,,,,,,,,low,20,0,20,0,1,,,,,,,,,
294082,2022-11-29_09h59.10.668,vts_reward_expectancy_bt,2022.2.4,MacIntel,62.5,Safari,1440,900,,,,,10,1044,,,,,,,,,,,,,,,,,181,U,circle,1,0,,,,,,,,,,,,,,,,repeat,letter,lettRpt,k,0.614,Hi,,,,,,3,,,,,,,,low,21,0,21,0,1,,,,,,,,,
294082,2022-11-29_09h59.10.668,vts_reward_expectancy_bt,2022.2.4,MacIntel,62.5,Safari,1440,900,,,,,0,1044,,,,,,,,,,,,,,,,,139,D,star,1,0,,,,,,,,,,,,,,,,switch,number,numSwt,d,0.78,Hi,,,,,,3,,,,,,,,low,22,0,22,0,1,,,,,,,,,
294082,2022-11-29_09h59.10.668,vts_reward_expectancy_bt,2022.2.4,MacIntel,62.5,Safari,1440,900,,,,,1,1045,,,,,,,,,,,,,,,,,167,H,hexagon,1,0,,,,,,,,,,,,,,,,repeat,number,numRpt,f,0.595,Lo,,,,,,3,,,,,,,,low,23,0,23,0,1,,,,,,,,,
294082,2022-11-29_09h59.10.668,vts_reward_expectancy_bt,2022.2.4,MacIntel,62.5,Safari,1440,900,,,,,10,1055,,,,,,,,,,,,,,,,,174,F,hexagon,1,0,,,,,,,,,,,,,,,,repeat,number,numRpt,f,0.644,Lo,,,,,,3,,,,,,,,low,24,0,24,0,1,,,,,,,,,
294082,2022-11-29_09h59.10.668,vts_reward_expectancy_bt,2022.2.4,MacIntel,62.5,Safari,1440,900,,,,,0,1055,,,,,,,,,,,,,,,,,132,D,star,1,0,,,,,,,,,,,,,,,,switch,letter,lettSwt,j,0.736,Hi,,,,,,3,,,,,,,,low,25,0,25,0,1,,,,,,,,,
294082,2022-11-29_09h59.10.668,vts_reward_expectancy_bt,2022.2.4,MacIntel,62.5,Safari,1440,900,,,,,10,1065,,,,,,,,,,,,,,,,,181,H,triangle,1,0,,,,,,,,,,,,,,,,repeat,letter,lettRpt,j,0.636,Lo,,,,,,3,,,,,,,,low,26,0,26,0,1,,,,,,,,,
294082,2022-11-29_09h59.10.668,vts_reward_expectancy_bt,2022.2.4,MacIntel,62.5,Safari,1440,900,,,,,0,1065,,,,,,,,,,,,,,,,,146,W,circle,0,0,,,,,,,,,,,,,,,,repeat,letter,NA,j,0.661,Lo,,,,,,3,,,,,,,,low,27,0,27,0,1,,,,,,,,,
294082,2022-11-29_09h59.10.668,vts_reward_expectancy_bt,2022.2.4,MacIntel,62.5,Safari,1440,900,,,,,10,1075,,,,,,,,,,,,,,,,,160,U,hexagon,1,1,,,,,,,,,,,,,,,,repeat,letter,lettRpt,k,1.063,Lo,,,,,,3,,,,,,,,low,28,0,28,0,1,,,,,,,,,
294082,2022-11-29_09h59.10.668,vts_reward_expectancy_bt,2022.2.4,MacIntel,62.5,Safari,1440,900,,,,,1,1076,,,,,,,,,,,,,,,,,167,Y,triangle,1,0,,,,,,,,,,,,,,,,switch,number,numSwt,f,0.644,Lo,,,,,,3,,,,,,,,low,29,0,29,0,1,,,,,,,,,
294082,2022-11-29_09h59.10.668,vts_reward_expectancy_bt,2022.2.4,MacIntel,62.5,Safari,1440,900,,,,,0,1076,,,,,,,,,,,,,,,,,139,S,star,1,0,,,,,,,,,,,,,,,,switch,letter,lettSwt,k,0.784,Hi,,,,,,3,,,,,,,,low,30,0,30,0,1,,,,,,,,,
294082,2022-11-29_09h59.10.668,vts_reward_expectancy_bt,2022.2.4,MacIntel,62.5,Safari,1440,900,,,,,0,1076,,,,,,,,,,,,,,,,,125,B,circle,1,0,,,,,,,,,,,,,,,,repeat,letter,lettRpt,j,0.7,Hi,,,,,,3,,,,,,,,low,31,0,31,0,1,,,,,,,,,
294082,2022-11-29_09h59.10.668,vts_reward_expectancy_bt,2022.2.4,MacIntel,62.5,Safari,1440,900,,,,,0,1076,,,,,,,,,,,,,,,,,132,F,star,1,0,,,,,,,,,,,,,,,,repeat,letter,lettRpt,j,0.742,Hi,,,,,,4,,,,,,space,0.272,low,0,0,0,0,1,,,,,,,,,
294082,2022-11-29_09h59.10.668,vts_reward_expectancy_bt,2022.2.4,MacIntel,62.5,Safari,1440,900,,,,,1,1077,,,,,,,,,,,,,,,,,160,U,triangle,1,0,,,,,,,,,,,,,,,,repeat,letter,lettRpt,k,0.583,Lo,,,,,,4,,,,,,,,low,1,0,1,0,1,,,,,,,,,
294082,2022-11-29_09h59.10.668,vts_reward_expectancy_bt,2022.2.4,MacIntel,62.5,Safari,1440,900,,,,,0,1077,,,,,,,,,,,,,,,,,174,S,circle,1,0,,,,,,,,,,,,,,,,repeat,letter,lettRpt,k,0.702,Hi,,,,,,4,,,,,,,,low,2,0,2,0,1,,,,,,,,,
294082,2022-11-29_09h59.10.668,vts_reward_expectancy_bt,2022.2.4,MacIntel,62.5,Safari,1440,900,,,,,10,1087,,,,,,,,,,,,,,,,,146,Y,hexagon,1,0,,,,,,,,,,,,,,,,switch,number,numSwt,d,0.694,Lo,,,,,,4,,,,,,,,low,3,0,3,0,1,,,,,,,,,
294082,2022-11-29_09h59.10.668,vts_reward_expectancy_bt,2022.2.4,MacIntel,62.5,Safari,1440,900,,,,,1,1088,,,,,,,,,,,,,,,,,125,B,star,1,0,,,,,,,,,,,,,,,,switch,letter,lettSwt,j,0.628,Hi,,,,,,4,,,,,,,,low,4,0,4,0,1,,,,,,,,,
294082,2022-11-29_09h59.10.668,vts_reward_expectancy_bt,2022.2.4,MacIntel,62.5,Safari,1440,900,,,,,1,1089,,,,,,,,,,,,,,,,,139,W,triangle,1,0,,,,,,,,,,,,,,,,switch,number,numSwt,d,0.546,Lo,,,,,,4,,,,,,,,low,5,0,5,0,1,,,,,,,,,
294082,2022-11-29_09h59.10.668,vts_reward_expectancy_bt,2022.2.4,MacIntel,62.5,Safari,1440,900,,,,,0,1089,,,,,,,,,,,,,,,,,181,H,circle,1,0,,,,,,,,,,,,,,,,repeat,number,numRpt,f,0.628,Hi,,,,,,4,,,,,,,,low,6,0,6,0,1,,,,,,,,,
294082,2022-11-29_09h59.10.668,vts_reward_expectancy_bt,2022.2.4,MacIntel,62.5,Safari,1440,900,,,,,10,1099,,,,,,,,,,,,,,,,,167,D,hexagon,1,0,,,,,,,,,,,,,,,,switch,letter,lettSwt,j,0.596,Lo,,,,,,4,,,,,,,,low,7,0,7,0,1,,,,,,,,,
294082,2022-11-29_09h59.10.668,vts_reward_expectancy_bt,2022.2.4,MacIntel,62.5,Safari,1440,900,,,,,1,1100,,,,,,,,,,,,,,,,,132,F,circle,1,0,,,,,,,,,,,,,,,,repeat,letter,lettRpt,j,0.544,Hi,,,,,,4,,,,,,,,low,8,0,8,0,1,,,,,,,,,
294082,2022-11-29_09h59.10.668,vts_reward_expectancy_bt,2022.2.4,MacIntel,62.5,Safari,1440,900,,,,,1,1101,,,,,,,,,,,,,,,,,160,U,triangle,1,0,,,,,,,,,,,,,,,,repeat,letter,lettRpt,k,0.561,Lo,,,,,,4,,,,,,,,low,9,0,9,0,1,,,,,,,,,
294082,2022-11-29_09h59.10.668,vts_reward_expectancy_bt,2022.2.4,MacIntel,62.5,Safari,1440,900,,,,,0,1101,,,,,,,,,,,,,,,,,174,S,star,1,0,,,,,,,,,,,,,,,,repeat,letter,lettRpt,k,1.011,Hi,,,,,,4,,,,,,,,low,10,0,10,0,1,,,,,,,,,
294082,2022-11-29_09h59.10.668,vts_reward_expectancy_bt,2022.2.4,MacIntel,62.5,Safari,1440,900,,,,,1,1102,,,,,,,,,,,,,,,,,146,Y,hexagon,1,0,,,,,,,,,,,,,,,,switch,number,numSwt,d,0.877,Lo,,,,,,4,,,,,,,,low,11,0,11,0,1,,,,,,,,,
294082,2022-11-29_09h59.10.668,vts_reward_expectancy_bt,2022.2.4,MacIntel,62.5,Safari,1440,900,,,,,0,1102,,,,,,,,,,,,,,,,,125,B,circle,1,0,,,,,,,,,,,,,,,,repeat,number,numRpt,d,0.961,Hi,,,,,,4,,,,,,,,low,12,0,12,0,1,,,,,,,,,
294082,2022-11-29_09h59.10.668,vts_reward_expectancy_bt,2022.2.4,MacIntel,62.5,Safari,1440,900,,,,,1,1103,,,,,,,,,,,,,,,,,139,W,hexagon,1,0,,,,,,,,,,,,,,,,repeat,number,numRpt,d,0.561,Lo,,,,,,4,,,,,,,,low,13,0,13,0,1,,,,,,,,,
294082,2022-11-29_09h59.10.668,vts_reward_expectancy_bt,2022.2.4,MacIntel,62.5,Safari,1440,900,,,,,10,1113,,,,,,,,,,,,,,,,,181,H,triangle,1,0,,,,,,,,,,,,,,,,switch,letter,lettSwt,j,0.678,Lo,,,,,,4,,,,,,,,low,14,0,14,0,1,,,,,,,,,
294082,2022-11-29_09h59.10.668,vts_reward_expectancy_bt,2022.2.4,MacIntel,62.5,Safari,1440,900,,,,,0,1113,,,,,,,,,,,,,,,,,167,D,star,0,0,,,,,,,,,,,,,,,,switch,number,NA,d,0.56,Lo,,,,,,4,,,,,,,,low,15,0,15,0,1,,,,,,,,,
294082,2022-11-29_09h59.10.668,vts_reward_expectancy_bt,2022.2.4,MacIntel,62.5,Safari,1440,900,,,,,1,1114,,,,,,,,,,,,,,,,,132,W,hexagon,1,1,,,,,,,,,,,,,,,,repeat,number,numRpt,d,0.632,Lo,,,,,,4,,,,,,,,low,16,0,16,0,1,,,,,,,,,
294082,2022-11-29_09h59.10.668,vts_reward_expectancy_bt,2022.2.4,MacIntel,62.5,Safari,1440,900,,,,,0,1114,,,,,,,,,,,,,,,,,181,H,circle,1,0,,,,,,,,,,,,,,,,repeat,number,numRpt,f,0.679,Hi,,,,,,4,,,,,,,,low,17,0,17,0,1,,,,,,,,,
294082,2022-11-29_09h59.10.668,vts_reward_expectancy_bt,2022.2.4,MacIntel,62.5,Safari,1440,900,,,,,1,1115,,,,,,,,,,,,,,,,,125,D,star,1,0,,,,,,,,,,,,,,,,switch,letter,lettSwt,j,0.71,Hi,,,,,,4,,,,,,,,low,18,0,18,0,1,,,,,,,,,
294082,2022-11-29_09h59.10.668,vts_reward_expectancy_bt,2022.2.4,MacIntel,62.5,Safari,1440,900,,,,,10,1125,,,,,,,,,,,,,,,,,167,B,triangle,1,0,,,,,,,,,,,,,,,,repeat,letter,lettRpt,j,0.849,Lo,,,,,,4,,,,,,,,low,19,0,19,0,1,,,,,,,,,
294082,2022-11-29_09h59.10.668,vts_reward_expectancy_bt,2022.2.4,MacIntel,62.5,Safari,1440,900,,,,,0,1125,,,,,,,,,,,,,,,,,174,F,star,1,0,,,,,,,,,,,,,,,,repeat,letter,lettRpt,j,0.68,Hi,,,,,,4,,,,,,,,low,20,0,20,0,1,,,,,,,,,
294082,2022-11-29_09h59.10.668,vts_reward_expectancy_bt,2022.2.4,MacIntel,62.5,Safari,1440,900,,,,,0,1125,,,,,,,,,,,,,,,,,146,S,circle,1,0,,,,,,,,,,,,,,,,repeat,letter,lettRpt,k,0.994,Hi,,,,,,4,,,,,,,,low,21,0,21,0,1,,,,,,,,,
294082,2022-11-29_09h59.10.668,vts_reward_expectancy_bt,2022.2.4,MacIntel,62.5,Safari,1440,900,,,,,0,1125,,,,,,,,,,,,,,,,,139,Y,triangle,0,0,,,,,,,,,,,,,,,,repeat,letter,NA,j,0.745,Hi,,,,,,4,,,,,,,,low,22,0,22,0,1,,,,,,,,,
294082,2022-11-29_09h59.10.668,vts_reward_expectancy_bt,2022.2.4,MacIntel,62.5,Safari,1440,900,,,,,1,1126,,,,,,,,,,,,,,,,,160,U,hexagon,1,1,,,,,,,,,,,,,,,,repeat,letter,lettRpt,k,0.981,Lo,,,,,,4,,,,,,,,low,23,0,23,0,1,,,,,,,,,
294082,2022-11-29_09h59.10.668,vts_reward_expectancy_bt,2022.2.4,MacIntel,62.5,Safari,1440,900,,,,,0,1126,,,,,,,,,,,,,,,,,139,S,star,1,0,,,,,,,,,,,,,,,,repeat,letter,lettRpt,k,1.626,Hi,,,,,,4,,,,,,,,low,24,0,24,0,1,,,,,,,,,
294082,2022-11-29_09h59.10.668,vts_reward_expectancy_bt,2022.2.4,MacIntel,62.5,Safari,1440,900,,,,,0,1126,,,,,,,,,,,,,,,,,160,H,circle,1,0,,,,,,,,,,,,,,,,repeat,letter,lettRpt,j,0.661,Hi,,,,,,4,,,,,,,,low,25,0,25,0,1,,,,,,,,,
294082,2022-11-29_09h59.10.668,vts_reward_expectancy_bt,2022.2.4,MacIntel,62.5,Safari,1440,900,,,,,10,1136,,,,,,,,,,,,,,,,,181,F,hexagon,1,0,,,,,,,,,,,,,,,,switch,number,numSwt,f,0.579,Lo,,,,,,4,,,,,,,,low,26,0,26,0,1,,,,,,,,,
294082,2022-11-29_09h59.10.668,vts_reward_expectancy_bt,2022.2.4,MacIntel,62.5,Safari,1440,900,,,,,1,1137,,,,,,,,,,,,,,,,,132,Y,triangle,1,0,,,,,,,,,,,,,,,,repeat,number,numRpt,d,0.685,Lo,,,,,,4,,,,,,,,low,27,0,27,0,1,,,,,,,,,
294082,2022-11-29_09h59.10.668,vts_reward_expectancy_bt,2022.2.4,MacIntel,62.5,Safari,1440,900,,,,,0,1137,,,,,,,,,,,,,,,,,125,D,circle,0,0,,,,,,,,,,,,,,,,switch,letter,NA,k,1.111,Lo,,,,,,4,,,,,,,,low,28,0,28,0,1,,,,,,,,,
294082,2022-11-29_09h59.10.668,vts_reward_expectancy_bt,2022.2.4,MacIntel,62.5,Safari,1440,900,,,,,1,1138,,,,,,,,,,,,,,,,,146,W,triangle,1,1,,,,,,,,,,,,,,,,repeat,letter,lettRpt,k,0.729,Lo,,,,,,4,,,,,,,,low,29,0,29,0,1,,,,,,,,,
294082,2022-11-29_09h59.10.668,vts_reward_expectancy_bt,2022.2.4,MacIntel,62.5,Safari,1440,900,,,,,0,1138,,,,,,,,,,,,,,,,,167,U,star,1,0,,,,,,,,,,,,,,,,repeat,letter,lettRpt,k,0.697,Hi,,,,,,4,,,,,,,,low,30,0,30,0,1,,,,,,,,,
294082,2022-11-29_09h59.10.668,vts_reward_expectancy_bt,2022.2.4,MacIntel,62.5,Safari,1440,900,,,,,1,1139,,,,,,,,,,,,,,,,,174,B,hexagon,1,0,,,,,,,,,,,,,,,,repeat,letter,lettRpt,j,0.779,Lo,,,,,,4,,,,,,,,low,31,0,31,0,1,,,,,,,,,
294082,2022-11-29_09h59.10.668,vts_reward_expectancy_bt,2022.2.4,MacIntel,62.5,Safari,1440,900,,,,,10,1149,,,,,,,,,,,,,,,,,125,Y,hexagon,1,0,,,,,,,,,,,,,,,,repeat,letter,lettRpt,k,1.001,Lo,,,,,,5,,,,,,space,0.731,low,0,0,0,0,1,,,,,,,,,
294082,2022-11-29_09h59.10.668,vts_reward_expectancy_bt,2022.2.4,MacIntel,62.5,Safari,1440,900,,,,,0,1149,,,,,,,,,,,,,,,,,160,B,circle,1,0,,,,,,,,,,,,,,,,switch,number,numSwt,f,0.627,Hi,,,,,,5,,,,,,,,low,1,0,1,0,1,,,,,,,,,
294082,2022-11-29_09h59.10.668,vts_reward_expectancy_bt,2022.2.4,MacIntel,62.5,Safari,1440,900,,,,,1,1150,,,,,,,,,,,,,,,,,132,W,triangle,1,0,,,,,,,,,,,,,,,,repeat,number,numRpt,d,0.683,Lo,,,,,,5,,,,,,,,low,2,0,2,0,1,,,,,,,,,
294082,2022-11-29_09h59.10.668,vts_reward_expectancy_bt,2022.2.4,MacIntel,62.5,Safari,1440,900,,,,,0,1150,,,,,,,,,,,,,,,,,174,D,star,1,0,,,,,,,,,,,,,,,,repeat,number,numRpt,f,0.914,Hi,,,,,,5,,,,,,,,low,3,0,3,0,1,,,,,,,,,
294082,2022-11-29_09h59.10.668,vts_reward_expectancy_bt,2022.2.4,MacIntel,62.5,Safari,1440,900,,,,,1,1151,,,,,,,,,,,,,,,,,146,S,hexagon,1,0,,,,,,,,,,,,,,,,switch,letter,lettSwt,k,0.86,Lo,,,,,,5,,,,,,,,low,4,0,4,0,1,,,,,,,,,
294082,2022-11-29_09h59.10.668,vts_reward_expectancy_bt,2022.2.4,MacIntel,62.5,Safari,1440,900,,,,,0,1151,,,,,,,,,,,,,,,,,167,H,circle,1,0,,,,,,,,,,,,,,,,repeat,letter,lettRpt,j,0.711,Hi,,,,,,5,,,,,,,,low,5,0,5,0,1,,,,,,,,,
294082,2022-11-29_09h59.10.668,vts_reward_expectancy_bt,2022.2.4,MacIntel,62.5,Safari,1440,900,,,,,1,1152,,,,,,,,,,,,,,,,,181,U,triangle,1,0,,,,,,,,,,,,,,,,repeat,letter,lettRpt,k,0.745,Lo,,,,,,5,,,,,,,,low,6,0,6,0,1,,,,,,,,,
294082,2022-11-29_09h59.10.668,vts_reward_expectancy_bt,2022.2.4,MacIntel,62.5,Safari,1440,900,,,,,0,1152,,,,,,,,,,,,,,,,,139,F,star,1,0,,,,,,,,,,,,,,,,switch,number,numSwt,d,0.659,Hi,,,,,,5,,,,,,,,low,7,0,7,0,1,,,,,,,,,
294082,2022-11-29_09h59.10.668,vts_reward_expectancy_bt,2022.2.4,MacIntel,62.5,Safari,1440,900,,,,,0,1152,,,,,,,,,,,,,,,,,125,Y,circle,1,0,,,,,,,,,,,,,,,,repeat,number,numRpt,d,1.182,Hi,,,,,,5,,,,,,,,low,8,0,8,0,1,,,,,,,,,
294082,2022-11-29_09h59.10.668,vts_reward_expectancy_bt,2022.2.4,MacIntel,62.5,Safari,1440,900,,,,,0,1152,,,,,,,,,,,,,,,,,160,B,star,1,0,,,,,,,,,,,,,,,,switch,letter,lettSwt,j,0.826,Hi,,,,,,5,,,,,,,,low,9,0,9,0,1,,,,,,,,,
294082,2022-11-29_09h59.10.668,vts_reward_expectancy_bt,2022.2.4,MacIntel,62.5,Safari,1440,900,,,,,1,1153,,,,,,,,,,,,,,,,,132,W,hexagon,1,0,,,,,,,,,,,,,,,,repeat,letter,lettRpt,k,0.763,Lo,,,,,,5,,,,,,,,low,10,0,10,0,1,,,,,,,,,
294082,2022-11-29_09h59.10.668,vts_reward_expectancy_bt,2022.2.4,MacIntel,62.5,Safari,1440,900,,,,,1,1154,,,,,,,,,,,,,,,,,174,D,triangle,1,0,,,,,,,,,,,,,,,,repeat,letter,lettRpt,j,0.614,Lo,,,,,,5,,,,,,,,low,11,0,11,0,1,,,,,,,,,
294082,2022-11-29_09h59.10.668,vts_reward_expectancy_bt,2022.2.4,MacIntel,62.5,Safari,1440,900,,,,,10,1164,,,,,,,,,,,,,,,,,146,S,triangle,1,0,,,,,,,,,,,,,,,,repeat,letter,lettRpt,k,0.744,Lo,,,,,,5,,,,,,,,low,12,0,12,0,1,,,,,,,,,
294082,2022-11-29_09h59.10.668,vts_reward_expectancy_bt,2022.2.4,MacIntel,62.5,Safari,1440,900,,,,,0,1164,,,,,,,,,,,,,,,,,167,H,star,1,0,,,,,,,,,,,,,,,,repeat,letter,lettRpt,j,1.061,Hi,,,,,,5,,,,,,,,low,13,0,13,0,1,,,,,,,,,
294082,2022-11-29_09h59.10.668,vts_reward_expectancy_bt,2022.2.4,MacIntel,62.5,Safari,1440,900,,,,,10,1174,,,,,,,,,,,,,,,,,181,U,hexagon,1,0,,,,,,,,,,,,,,,,repeat,letter,lettRpt,k,0.702,Lo,,,,,,5,,,,,,,,low,14,0,14,0,1,,,,,,,,,
294082,2022-11-29_09h59.10.668,vts_reward_expectancy_bt,2022.2.4,MacIntel,62.5,Safari,1440,900,,,,,1,1175,,,,,,,,,,,,,,,,,139,F,circle,1,0,,,,,,,,,,,,,,,,repeat,letter,lettRpt,j,0.653,Hi,,,,,,5,,,,,,,,low,15,0,15,0,1,,,,,,,,,
294082,2022-11-29_09h59.10.668,vts_reward_expectancy_bt,2022.2.4,MacIntel,62.5,Safari,1440,900,,,,,1,1176,,,,,,,,,,,,,,,,,167,Y,star,1,0,,,,,,,,,,,,,,,,repeat,letter,lettRpt,k,0.633,Hi,,,,,,5,,,,,,,,low,16,0,16,0,1,,,,,,,,,
294082,2022-11-29_09h59.10.668,vts_reward_expectancy_bt,2022.2.4,MacIntel,62.5,Safari,1440,900,,,,,10,1186,,,,,,,,,,,,,,,,,139,F,hexagon,1,0,,,,,,,,,,,,,,,,repeat,letter,lettRpt,j,0.694,Lo,,,,,,5,,,,,,,,low,17,0,17,0,1,,,,,,,,,
294082,2022-11-29_09h59.10.668,vts_reward_expectancy_bt,2022.2.4,MacIntel,62.5,Safari,1440,900,,,,,0,1186,,,,,,,,,,,,,,,,,146,H,circle,0,0,,,,,,,,,,,,,,,,repeat,letter,NA,k,0.669,Lo,,,,,,5,,,,,,,,low,18,0,18,0,1,,,,,,,,,
294082,2022-11-29_09h59.10.668,vts_reward_expectancy_bt,2022.2.4,MacIntel,62.5,Safari,1440,900,,,,,10,1196,,,,,,,,,,,,,,,,,125,U,triangle,1,1,,,,,,,,,,,,,,,,switch,number,numSwt,d,0.648,Lo,,,,,,5,,,,,,,,low,19,0,19,0,1,,,,,,,,,
294082,2022-11-29_09h59.10.668,vts_reward_expectancy_bt,2022.2.4,MacIntel,62.5,Safari,1440,900,,,,,10,1206,,,,,,,,,,,,,,,,,132,S,triangle,1,0,,,,,,,,,,,,,,,,repeat,number,numRpt,d,0.727,Lo,,,,,,5,,,,,,,,low,20,0,20,0,1,,,,,,,,,
294082,2022-11-29_09h59.10.668,vts_reward_expectancy_bt,2022.2.4,MacIntel,62.5,Safari,1440,900,,,,,10,1216,,,,,,,,,,,,,,,,,160,B,hexagon,1,0,,,,,,,,,,,,,,,,repeat,number,numRpt,f,0.747,Lo,,,,,,5,,,,,,,,low,21,0,21,0,1,,,,,,,,,
294082,2022-11-29_09h59.10.668,vts_reward_expectancy_bt,2022.2.4,MacIntel,62.5,Safari,1440,900,,,,,0,1216,,,,,,,,,,,,,,,,,174,D,star,1,0,,,,,,,,,,,,,,,,repeat,number,numRpt,f,0.761,Hi,,,,,,5,,,,,,,,low,22,0,22,0,1,,,,,,,,,
294082,2022-11-29_09h59.10.668,vts_reward_expectancy_bt,2022.2.4,MacIntel,62.5,Safari,1440,900,,,,,10,1226,,,,,,,,,,,,,,,,,181,W,circle,1,0,,,,,,,,,,,,,,,,switch,letter,lettSwt,k,0.56,Hi,,,,,,5,,,,,,,,low,23,0,23,0,1,,,,,,,,,
294082,2022-11-29_09h59.10.668,vts_reward_expectancy_bt,2022.2.4,MacIntel,62.5,Safari,1440,900,,,,,10,1236,,,,,,,,,,,,,,,,,167,S,triangle,1,0,,,,,,,,,,,,,,,,repeat,letter,lettRpt,k,0.611,Lo,,,,,,5,,,,,,,,low,24,0,24,0,1,,,,,,,,,
294082,2022-11-29_09h59.10.668,vts_reward_expectancy_bt,2022.2.4,MacIntel,62.5,Safari,1440,900,,,,,0,1236,,,,,,,,,,,,,,,,,132,D,circle,0,0,,,,,,,,,,,,,,,,repeat,letter,NA,k,0.603,Lo,,,,,,5,,,,,,,,low,25,0,25,0,1,,,,,,,,,
294082,2022-11-29_09h59.10.668,vts_reward_expectancy_bt,2022.2.4,MacIntel,62.5,Safari,1440,900,,,,,1,1237,,,,,,,,,,,,,,,,,160,U,hexagon,1,1,,,,,,,,,,,,,,,,switch,number,numSwt,f,1.56,Lo,,,,,,5,,,,,,,,low,26,0,26,0,1,,,,,,,,,
294082,2022-11-29_09h59.10.668,vts_reward_expectancy_bt,2022.2.4,MacIntel,62.5,Safari,1440,900,,,,,10,1247,,,,,,,,,,,,,,,,,125,W,star,1,0,,,,,,,,,,,,,,,,switch,letter,lettSwt,k,0.61,Hi,,,,,,5,,,,,,,,low,27,0,27,0,1,,,,,,,,,
294082,2022-11-29_09h59.10.668,vts_reward_expectancy_bt,2022.2.4,MacIntel,62.5,Safari,1440,900,,,,,0,1247,,,,,,,,,,,,,,,,,174,H,circle,0,0,,,,,,,,,,,,,,,,repeat,letter,NA,k,0.826,Hi,,,,,,5,,,,,,,,low,28,0,28,0,1,,,,,,,,,
294082,2022-11-29_09h59.10.668,vts_reward_expectancy_bt,2022.2.4,MacIntel,62.5,Safari,1440,900,,,,,10,1257,,,,,,,,,,,,,,,,,181,Y,triangle,1,1,,,,,,,,,,,,,,,,repeat,letter,lettRpt,k,0.528,Lo,,,,,,5,,,,,,,,low,29,0,29,0,1,,,,,,,,,
294082,2022-11-29_09h59.10.668,vts_reward_expectancy_bt,2022.2.4,MacIntel,62.5,Safari,1440,900,,,,,10,1267,,,,,,,,,,,,,,,,,146,B,hexagon,1,0,,,,,,,,,,,,,,,,repeat,letter,lettRpt,j,0.627,Lo,,,,,,5,,,,,,,,low,30,0,30,0,1,,,,,,,,,
294082,2022-11-29_09h59.10.668,vts_reward_expectancy_bt,2022.2.4,MacIntel,62.5,Safari,1440,900,,,,,0,1267,,,,,,,,,,,,,,,,,139,F,star,0,0,,,,,,,,,,,,,,,,repeat,letter,NA,k,0.677,Lo,,,,,,5,,,,,,,,low,31,0,31,0,1,,,,,,,,,
294082,2022-11-29_09h59.10.668,vts_reward_expectancy_bt,2022.2.4,MacIntel,62.5,Safari,1440,900,,,,,0,1267,,,,,,,,,,,,,,,,,181,S,star,1,1,,,,,,,,,,,,,,,,repeat,letter,lettRpt,k,1.127,Hi,,,,,,6,,,,,,space,0.803,low,0,0,0,0,1,,,,,,,,,
294082,2022-11-29_09h59.10.668,vts_reward_expectancy_bt,2022.2.4,MacIntel,62.5,Safari,1440,900,,,,,10,1277,,,,,,,,,,,,,,,,,167,F,triangle,1,0,,,,,,,,,,,,,,,,repeat,letter,lettRpt,j,0.677,Lo,,,,,,6,,,,,,,,low,1,0,1,0,1,,,,,,,,,
294082,2022-11-29_09h59.10.668,vts_reward_expectancy_bt,2022.2.4,MacIntel,62.5,Safari,1440,900,,,,,1,1278,,,,,,,,,,,,,,,,,174,D,circle,1,0,,,,,,,,,,,,,,,,switch,number,numSwt,f,0.627,Hi,,,,,,6,,,,,,,,low,2,0,2,0,1,,,,,,,,,
294082,2022-11-29_09h59.10.668,vts_reward_expectancy_bt,2022.2.4,MacIntel,62.5,Safari,1440,900,,,,,1,1279,,,,,,,,,,,,,,,,,139,W,hexagon,1,0,,,,,,,,,,,,,,,,repeat,number,numRpt,d,0.827,Lo,,,,,,6,,,,,,,,low,3,0,3,0,1,,,,,,,,,
294082,2022-11-29_09h59.10.668,vts_reward_expectancy_bt,2022.2.4,MacIntel,62.5,Safari,1440,900,,,,,10,1289,,,,,,,,,,,,,,,,,132,U,star,1,0,,,,,,,,,,,,,,,,repeat,number,numRpt,d,0.568,Hi,,,,,,6,,,,,,,,low,4,0,4,0,1,,,,,,,,,
294082,2022-11-29_09h59.10.668,vts_reward_expectancy_bt,2022.2.4,MacIntel,62.5,Safari,1440,900,,,,,10,1299,,,,,,,,,,,,,,,,,125,Y,triangle,1,0,,,,,,,,,,,,,,,,repeat,number,numRpt,d,0.52,Lo,,,,,,6,,,,,,,,low,5,0,5,0,1,,,,,,,,,
294082,2022-11-29_09h59.10.668,vts_reward_expectancy_bt,2022.2.4,MacIntel,62.5,Safari,1440,900,,,,,0,1299,,,,,,,,,,,,,,,,,146,H,circle,0,0,,,,,,,,,,,,,,,,repeat,number,NA,f,0.763,Lo,,,,,,6,,,,,,,,low,6,0,6,0,1,,,,,,,,,
294082,2022-11-29_09h59.10.668,vts_reward_expectancy_bt,2022.2.4,MacIntel,62.5,Safari,1440,900,,,,,0,1299,,,,,,,,,,,,,,,,,160,B,hexagon,0,1,,,,,,,,,,,,,,,,switch,letter,NA,k,0.945,Lo,,,,,,6,,,,,,,,low,7,0,7,0,1,,,,,,,,,
294082,2022-11-29_09h59.10.668,vts_reward_expectancy_bt,2022.2.4,MacIntel,62.5,Safari,1440,900,,,,,1,1300,,,,,,,,,,,,,,,,,181,S,hexagon,1,1,,,,,,,,,,,,,,,,repeat,letter,lettRpt,k,0.663,Lo,,,,,,6,,,,,,,,low,8,0,8,0,1,,,,,,,,,
294082,2022-11-29_09h59.10.668,vts_reward_expectancy_bt,2022.2.4,MacIntel,62.5,Safari,1440,900,,,,,1,1301,,,,,,,,,,,,,,,,,167,F,triangle,1,0,,,,,,,,,,,,,,,,repeat,letter,lettRpt,j,0.695,Lo,,,,,,6,,,,,,,,low,9,0,9,0,1,,,,,,,,,
294082,2022-11-29_09h59.10.668,vts_reward_expectancy_bt,2022.2.4,MacIntel,62.5,Safari,1440,900,,,,,0,1301,,,,,,,,,,,,,,,,,174,D,circle,0,0,,,,,,,,,,,,,,,,repeat,letter,NA,k,0.781,Lo,,,,,,6,,,,,,,,low,10,0,10,0,1,,,,,,,,,
294082,2022-11-29_09h59.10.668,vts_reward_expectancy_bt,2022.2.4,MacIntel,62.5,Safari,1440,900,,,,,0,1301,,,,,,,,,,,,,,,,,139,W,star,1,1,,,,,,,,,,,,,,,,repeat,letter,lettRpt,k,0.911,Hi,,,,,,6,,,,,,,,low,11,0,11,0,1,,,,,,,,,
294082,2022-11-29_09h59.10.668,vts_reward_expectancy_bt,2022.2.4,MacIntel,62.5,Safari,1440,900,,,,,10,1311,,,,,,,,,,,,,,,,,132,U,hexagon,1,0,,,,,,,,,,,,,,,,repeat,letter,lettRpt,k,0.744,Lo,,,,,,6,,,,,,,,low,12,0,12,0,1,,,,,,,,,
294082,2022-11-29_09h59.10.668,vts_reward_expectancy_bt,2022.2.4,MacIntel,62.5,Safari,1440,900,,,,,0,1311,,,,,,,,,,,,,,,,,125,Y,star,1,0,,,,,,,,,,,,,,,,repeat,letter,lettRpt,k,0.978,Hi,,,,,,6,,,,,,,,low,13,0,13,0,1,,,,,,,,,
294082,2022-11-29_09h59.10.668,vts_reward_expectancy_bt,2022.2.4,MacIntel,62.5,Safari,1440,900,,,,,10,1321,,,,,,,,,,,,,,,,,146,H,triangle,1,0,,,,,,,,,,,,,,,,repeat,letter,lettRpt,j,0.711,Lo,,,,,,6,,,,,,,,low,14,0,14,0,1,,,,,,,,,
294082,2022-11-29_09h59.10.668,vts_reward_expectancy_bt,2022.2.4,MacIntel,62.5,Safari,1440,900,,,,,0,1321,,,,,,,,,,,,,,,,,160,B,circle,1,0,,,,,,,,,,,,,,,,switch,number,numSwt,f,0.812,Hi,,,,,,6,,,,,,,,low,15,0,15,0,1,,,,,,,,,
294082,2022-11-29_09h59.10.668,vts_reward_expectancy_bt,2022.2.4,MacIntel,62.5,Safari,1440,900,,,,,10,1331,,,,,,,,,,,,,,,,,146,H,star,1,0,,,,,,,,,,,,,,,,repeat,number,numRpt,d,0.529,Hi,,,,,,6,,,,,,,,low,16,0,16,0,1,,,,,,,,,
294082,2022-11-29_09h59.10.668,vts_reward_expectancy_bt,2022.2.4,MacIntel,62.5,Safari,1440,900,,,,,10,1341,,,,,,,,,,,,,,,,,125,W,hexagon,1,0,,,,,,,,,,,,,,,,repeat,number,numRpt,d,0.549,Lo,,,,,,6,,,,,,,,low,17,0,17,0,1,,,,,,,,,
294082,2022-11-29_09h59.10.668,vts_reward_expectancy_bt,2022.2.4,MacIntel,62.5,Safari,1440,900,,,,,1,1342,,,,,,,,,,,,,,,,,132,D,circle,1,0,,,,,,,,,,,,,,,,repeat,number,numRpt,d,0.626,Hi,,,,,,6,,,,,,,,low,18,0,18,0,1,,,,,,,,,
294082,2022-11-29_09h59.10.668,vts_reward_expectancy_bt,2022.2.4,MacIntel,62.5,Safari,1440,900,,,,,0,1342,,,,,,,,,,,,,,,,,174,S,triangle,0,0,,,,,,,,,,,,,,,,repeat,number,NA,d,0.829,Hi,,,,,,6,,,,,,,,low,19,0,19,0,1,,,,,,,,,
294082,2022-11-29_09h59.10.668,vts_reward_expectancy_bt,2022.2.4,MacIntel,62.5,Safari,1440,900,,,,,10,1352,,,,,,,,,,,,,,,,,181,F,star,1,1,,,,,,,,,,,,,,,,repeat,number,numRpt,f,0.612,Hi,,,,,,6,,,,,,,,low,20,0,20,0,1,,,,,,,,,
294082,2022-11-29_09h59.10.668,vts_reward_expectancy_bt,2022.2.4,MacIntel,62.5,Safari,1440,900,,,,,1,1353,,,,,,,,,,,,,,,,,167,Y,hexagon,1,0,,,,,,,,,,,,,,,,repeat,number,numRpt,f,0.567,Lo,,,,,,6,,,,,,,,low,21,0,21,0,1,,,,,,,,,
294082,2022-11-29_09h59.10.668,vts_reward_expectancy_bt,2022.2.4,MacIntel,62.5,Safari,1440,900,,,,,1,1354,,,,,,,,,,,,,,,,,139,U,circle,1,0,,,,,,,,,,,,,,,,repeat,number,numRpt,d,0.543,Hi,,,,,,6,,,,,,,,low,22,0,22,0,1,,,,,,,,,
294082,2022-11-29_09h59.10.668,vts_reward_expectancy_bt,2022.2.4,MacIntel,62.5,Safari,1440,900,,,,,1,1355,,,,,,,,,,,,,,,,,160,B,triangle,1,0,,,,,,,,,,,,,,,,repeat,number,numRpt,f,0.581,Lo,,,,,,6,,,,,,,,low,23,0,23,0,1,,,,,,,,,
294082,2022-11-29_09h59.10.668,vts_reward_expectancy_bt,2022.2.4,MacIntel,62.5,Safari,1440,900,,,,,1,1356,,,,,,,,,,,,,,,,,146,F,hexagon,1,0,,,,,,,,,,,,,,,,switch,letter,lettSwt,j,0.76,Lo,,,,,,6,,,,,,,,low,24,0,24,0,1,,,,,,,,,
294082,2022-11-29_09h59.10.668,vts_reward_expectancy_bt,2022.2.4,MacIntel,62.5,Safari,1440,900,,,,,0,1356,,,,,,,,,,,,,,,,,125,U,star,1,0,,,,,,,,,,,,,,,,switch,number,numSwt,d,0.68,Hi,,,,,,6,,,,,,,,low,25,0,25,0,1,,,,,,,,,
