participant,date,expName,psychopyVersion,OS,frameRate,browser,xResolution,yResolution,key_resp.keys,key_resp.rt,training_resp.keys,training_resp.rt,points_trial,points_cumul,trainBlock,training.thisRepN,training.thisTrialN,training.thisN,training.thisIndex,training.ran,LTriangleOpac,LCircleOpac,LHexagonOpac,LStarOpac,RTriangleOpac,RCircleOpac,RHexagonOpac,RStarOpac,LShape_ID,RShape_ID,curr_topStim,curr_bottStim,curr_shape,acc,E1,target_resp_prac1.keys,target_resp_prac1.rt,pracBlock,task1_prac_trials.thisRepN,task1_prac_trials.thisTrialN,task1_prac_trials.thisN,task1_prac_trials.thisIndex,task1_prac_trials.ran,target_resp_prac2.keys,target_resp_prac2.rt,task2_praac_trials.thisRepN,task2_praac_trials.thisTrialN,task2_praac_trials.thisN,task2_praac_trials.thisIndex,task2_praac_trials.ran,alt,task,condition,target_resp.keys,rewCond,vts_practice_trials.thisRepN,vts_practice_trials.thisTrialN,vts_practice_trials.thisN,vts_practice_trials.thisIndex,vts_practice_trials.ran,target_resp.rt,blockNum,trials_norew.thisRepN,trials_norew.thisTrialN,trials_norew.thisN,trials_norew.thisIndex,trials_norew.ran,key_resp_2.keys,key_resp_2.rt,rewExpectancy,trials_rew.thisRepN,trials_rew.thisTrialN,trials_rew.thisN,trials_rew.thisIndex,trials_rew.ran,Q1,Q2,Q2_text,Q3,Q4,Q5_text,Q5,xRes,yRes
294241,2022-11-14_12h10.16.140,vts_reward_expectancy_bt,2022.2.4,Win32,59.76929054,Chrome,1500,1000,,,,,,,,,,,,,,,,,,,,,,,,,,,,,,,,,,,,,,,,,,,,,,,,,,,,,,,,,,,,,,,,,,,,,,,,,,,,
294241,2022-11-14_12h10.16.140,vts_reward_expectancy_bt,2022.2.4,Win32,59.76929054,Chrome,1500,1000,space,71.6811,,,,,,,,,,,,,,,,,,,,,,,,,,,,,,,,,,,,,,,,,,,,,,,,,,,,,,,,,,,,,,,,,,,,,,,,,,
294241,2022-11-14_12h10.16.140,vts_reward_expectancy_bt,2022.2.4,Win32,59.76929054,Chrome,1500,1000,,,,,,,,,,,,,,,,,,,,,,,,,,,,,,,,,,,,,,,,,,,,,,,,,,,,,,,,,,,,,,,,,,,,,,,,,,,,
294241,2022-11-14_12h10.16.140,vts_reward_expectancy_bt,2022.2.4,Win32,59.76929054,Chrome,1500,1000,,,l,3.0078,1,1,0,0,0,0,2,1,1,0,0,0,0,0,0,1,triangle,star,,,,,,,,,,,,,,,,,,,,,,,,,,,,,,,,,,,,,,,,,,,,,,,,,,,,,,
294241,2022-11-14_12h10.16.140,vts_reward_expectancy_bt,2022.2.4,Win32,59.76929054,Chrome,1500,1000,,,l,2.0973,1,2,0,0,1,1,0,1,1,0,0,0,0,1,0,0,triangle,circle,,,,,,,,,,,,,,,,,,,,,,,,,,,,,,,,,,,,,,,,,,,,,,,,,,,,,,
294241,2022-11-14_12h10.16.140,vts_reward_expectancy_bt,2022.2.4,Win32,59.76929054,Chrome,1500,1000,,,a,1.2829,1,3,0,0,2,2,10,1,0,0,0,1,0,1,0,0,star ,circle,,,,,,,,,,,,,,,,,,,,,,,,,,,,,,,,,,,,,,,,,,,,,,,,,,,,,,
294241,2022-11-14_12h10.16.140,vts_reward_expectancy_bt,2022.2.4,Win32,59.76929054,Chrome,1500,1000,,,a,1.6062,1,4,0,0,3,3,4,1,0,1,0,0,0,0,1,0,circle,hexagon,,,,,,,,,,,,,,,,,,,,,,,,,,,,,,,,,,,,,,,,,,,,,,,,,,,,,,
294241,2022-11-14_12h10.16.140,vts_reward_expectancy_bt,2022.2.4,Win32,59.76929054,Chrome,1500,1000,,,l,1.2251,1,5,0,0,4,4,9,1,0,0,0,1,1,0,0,0,star,triangle,,,,,,,,,,,,,,,,,,,,,,,,,,,,,,,,,,,,,,,,,,,,,,,,,,,,,,
294241,2022-11-14_12h10.16.140,vts_reward_expectancy_bt,2022.2.4,Win32,59.76929054,Chrome,1500,1000,,,l,2.8492,10,15,0,0,5,5,5,1,0,1,0,0,0,0,0,1,circle,star,,,,,,,,,,,,,,,,,,,,,,,,,,,,,,,,,,,,,,,,,,,,,,,,,,,,,,
294241,2022-11-14_12h10.16.140,vts_reward_expectancy_bt,2022.2.4,Win32,59.76929054,Chrome,1500,1000,,,l,2.6436,1,16,0,0,6,6,6,1,0,0,1,0,1,0,0,0,hexagon,triangle,,,,,,,,,,,,,,,,,,,,,,,,,,,,,,,,,,,,,,,,,,,,,,,,,,,,,,
294241,2022-11-14_12h10.16.140,vts_reward_expectancy_bt,2022.2.4,Win32,59.76929054,Chrome,1500,1000,,,a,1.5398,10,26,0,0,7,7,7,1,0,0,1,0,0,1,0,0,hexagon,circle,,,,,,,,,,,,,,,,,,,,,,,,,,,,,,,,,,,,,,,,,,,,,,,,,,,,,,
294241,2022-11-14_12h10.16.140,vts_reward_expectancy_bt,2022.2.4,Win32,59.76929054,Chrome,1500,1000,,,a,1.0617,10,36,0,0,8,8,11,1,0,0,0,1,0,0,1,0,star,hexagon,,,,,,,,,,,,,,,,,,,,,,,,,,,,,,,,,,,,,,,,,,,,,,,,,,,,,,
294241,2022-11-14_12h10.16.140,vts_reward_expectancy_bt,2022.2.4,Win32,59.76929054,Chrome,1500,1000,,,l,1.9142,1,37,0,0,9,9,1,1,1,0,0,0,0,0,1,0,triangle,hexagon,,,,,,,,,,,,,,,,,,,,,,,,,,,,,,,,,,,,,,,,,,,,,,,,,,,,,,
294241,2022-11-14_12h10.16.140,vts_reward_expectancy_bt,2022.2.4,Win32,59.76929054,Chrome,1500,1000,,,l,1.0177,10,47,0,0,10,10,8,1,0,0,1,0,0,0,0,1,hexagon,star,,,,,,,,,,,,,,,,,,,,,,,,,,,,,,,,,,,,,,,,,,,,,,,,,,,,,,
294241,2022-11-14_12h10.16.140,vts_reward_expectancy_bt,2022.2.4,Win32,59.76929054,Chrome,1500,1000,,,l,1.5852,1,48,0,0,11,11,3,1,0,1,0,0,1,0,0,0,circle,triangle,,,,,,,,,,,,,,,,,,,,,,,,,,,,,,,,,,,,,,,,,,,,,,,,,,,,,,
294241,2022-11-14_12h10.16.140,vts_reward_expectancy_bt,2022.2.4,Win32,59.76929054,Chrome,1500,1000,,,a,2.2841,10,58,0,1,0,12,7,1,0,0,1,0,0,1,0,0,hexagon,circle,,,,,,,,,,,,,,,,,,,,,,,,,,,,,,,,,,,,,,,,,,,,,,,,,,,,,,
294241,2022-11-14_12h10.16.140,vts_reward_expectancy_bt,2022.2.4,Win32,59.76929054,Chrome,1500,1000,,,l,4.4482,1,59,0,1,1,13,0,1,1,0,0,0,0,1,0,0,triangle,circle,,,,,,,,,,,,,,,,,,,,,,,,,,,,,,,,,,,,,,,,,,,,,,,,,,,,,,
294241,2022-11-14_12h10.16.140,vts_reward_expectancy_bt,2022.2.4,Win32,59.76929054,Chrome,1500,1000,,,a,2.6591,1,60,0,1,2,14,10,1,0,0,0,1,0,1,0,0,star ,circle,,,,,,,,,,,,,,,,,,,,,,,,,,,,,,,,,,,,,,,,,,,,,,,,,,,,,,
294241,2022-11-14_12h10.16.140,vts_reward_expectancy_bt,2022.2.4,Win32,59.76929054,Chrome,1500,1000,,,l,1.5525,10,70,0,1,3,15,5,1,0,1,0,0,0,0,0,1,circle,star,,,,,,,,,,,,,,,,,,,,,,,,,,,,,,,,,,,,,,,,,,,,,,,,,,,,,,
294241,2022-11-14_12h10.16.140,vts_reward_expectancy_bt,2022.2.4,Win32,59.76929054,Chrome,1500,1000,,,a,0.8347,10,80,0,1,4,16,9,1,0,0,0,1,1,0,0,0,star,triangle,,,,,,,,,,,,,,,,,,,,,,,,,,,,,,,,,,,,,,,,,,,,,,,,,,,,,,
294241,2022-11-14_12h10.16.140,vts_reward_expectancy_bt,2022.2.4,Win32,59.76929054,Chrome,1500,1000,,,l,1.3481,10,90,0,1,5,17,1,1,1,0,0,0,0,0,1,0,triangle,hexagon,,,,,,,,,,,,,,,,,,,,,,,,,,,,,,,,,,,,,,,,,,,,,,,,,,,,,,
294241,2022-11-14_12h10.16.140,vts_reward_expectancy_bt,2022.2.4,Win32,59.76929054,Chrome,1500,1000,,,a,0.9229,10,100,0,1,6,18,11,1,0,0,0,1,0,0,1,0,star,hexagon,,,,,,,,,,,,,,,,,,,,,,,,,,,,,,,,,,,,,,,,,,,,,,,,,,,,,,
294241,2022-11-14_12h10.16.140,vts_reward_expectancy_bt,2022.2.4,Win32,59.76929054,Chrome,1500,1000,,,l,1.3981,10,110,0,1,7,19,3,1,0,1,0,0,1,0,0,0,circle,triangle,,,,,,,,,,,,,,,,,,,,,,,,,,,,,,,,,,,,,,,,,,,,,,,,,,,,,,
294241,2022-11-14_12h10.16.140,vts_reward_expectancy_bt,2022.2.4,Win32,59.76929054,Chrome,1500,1000,,,l,0.6999,10,120,0,1,8,20,8,1,0,0,1,0,0,0,0,1,hexagon,star,,,,,,,,,,,,,,,,,,,,,,,,,,,,,,,,,,,,,,,,,,,,,,,,,,,,,,
294241,2022-11-14_12h10.16.140,vts_reward_expectancy_bt,2022.2.4,Win32,59.76929054,Chrome,1500,1000,,,l,0.6339,10,130,0,1,9,21,4,1,0,1,0,0,0,0,1,0,circle,hexagon,,,,,,,,,,,,,,,,,,,,,,,,,,,,,,,,,,,,,,,,,,,,,,,,,,,,,,
294241,2022-11-14_12h10.16.140,vts_reward_expectancy_bt,2022.2.4,Win32,59.76929054,Chrome,1500,1000,,,a,0.8663,10,140,0,1,10,22,6,1,0,0,1,0,1,0,0,0,hexagon,triangle,,,,,,,,,,,,,,,,,,,,,,,,,,,,,,,,,,,,,,,,,,,,,,,,,,,,,,
294241,2022-11-14_12h10.16.140,vts_reward_expectancy_bt,2022.2.4,Win32,59.76929054,Chrome,1500,1000,,,l,0.6381,10,150,0,1,11,23,2,1,1,0,0,0,0,0,0,1,triangle,star,,,,,,,,,,,,,,,,,,,,,,,,,,,,,,,,,,,,,,,,,,,,,,,,,,,,,,
294241,2022-11-14_12h10.16.140,vts_reward_expectancy_bt,2022.2.4,Win32,59.76929054,Chrome,1500,1000,,,l,0.5393,10,160,0,2,0,24,2,1,1,0,0,0,0,0,0,1,triangle,star,,,,,,,,,,,,,,,,,,,,,,,,,,,,,,,,,,,,,,,,,,,,,,,,,,,,,,
294241,2022-11-14_12h10.16.140,vts_reward_expectancy_bt,2022.2.4,Win32,59.76929054,Chrome,1500,1000,,,l,1.4695,10,170,0,2,1,25,8,1,0,0,1,0,0,0,0,1,hexagon,star,,,,,,,,,,,,,,,,,,,,,,,,,,,,,,,,,,,,,,,,,,,,,,,,,,,,,,
294241,2022-11-14_12h10.16.140,vts_reward_expectancy_bt,2022.2.4,Win32,59.76929054,Chrome,1500,1000,,,l,0.8664,1,171,0,2,2,26,3,1,0,1,0,0,1,0,0,0,circle,triangle,,,,,,,,,,,,,,,,,,,,,,,,,,,,,,,,,,,,,,,,,,,,,,,,,,,,,,
294241,2022-11-14_12h10.16.140,vts_reward_expectancy_bt,2022.2.4,Win32,59.76929054,Chrome,1500,1000,,,l,0.7527,10,181,0,2,3,27,6,1,0,0,1,0,1,0,0,0,hexagon,triangle,,,,,,,,,,,,,,,,,,,,,,,,,,,,,,,,,,,,,,,,,,,,,,,,,,,,,,
294241,2022-11-14_12h10.16.140,vts_reward_expectancy_bt,2022.2.4,Win32,59.76929054,Chrome,1500,1000,,,l,0.6234,10,191,0,2,4,28,4,1,0,1,0,0,0,0,1,0,circle,hexagon,,,,,,,,,,,,,,,,,,,,,,,,,,,,,,,,,,,,,,,,,,,,,,,,,,,,,,
294241,2022-11-14_12h10.16.140,vts_reward_expectancy_bt,2022.2.4,Win32,59.76929054,Chrome,1500,1000,,,a,0.7682,10,201,0,2,5,29,7,1,0,0,1,0,0,1,0,0,hexagon,circle,,,,,,,,,,,,,,,,,,,,,,,,,,,,,,,,,,,,,,,,,,,,,,,,,,,,,,
294241,2022-11-14_12h10.16.140,vts_reward_expectancy_bt,2022.2.4,Win32,59.76929054,Chrome,1500,1000,,,a,1.9664,10,211,0,2,6,30,11,1,0,0,0,1,0,0,1,0,star,hexagon,,,,,,,,,,,,,,,,,,,,,,,,,,,,,,,,,,,,,,,,,,,,,,,,,,,,,,
294241,2022-11-14_12h10.16.140,vts_reward_expectancy_bt,2022.2.4,Win32,59.76929054,Chrome,1500,1000,,,a,0.6181,10,221,0,2,7,31,10,1,0,0,0,1,0,1,0,0,star ,circle,,,,,,,,,,,,,,,,,,,,,,,,,,,,,,,,,,,,,,,,,,,,,,,,,,,,,,
294241,2022-11-14_12h10.16.140,vts_reward_expectancy_bt,2022.2.4,Win32,59.76929054,Chrome,1500,1000,,,a,0.8349,1,222,0,2,8,32,0,1,1,0,0,0,0,1,0,0,triangle,circle,,,,,,,,,,,,,,,,,,,,,,,,,,,,,,,,,,,,,,,,,,,,,,,,,,,,,,
294241,2022-11-14_12h10.16.140,vts_reward_expectancy_bt,2022.2.4,Win32,59.76929054,Chrome,1500,1000,,,a,0.9353,10,232,0,2,9,33,9,1,0,0,0,1,1,0,0,0,star,triangle,,,,,,,,,,,,,,,,,,,,,,,,,,,,,,,,,,,,,,,,,,,,,,,,,,,,,,
294241,2022-11-14_12h10.16.140,vts_reward_expectancy_bt,2022.2.4,Win32,59.76929054,Chrome,1500,1000,,,a,1.4988,1,233,0,2,10,34,1,1,1,0,0,0,0,0,1,0,triangle,hexagon,,,,,,,,,,,,,,,,,,,,,,,,,,,,,,,,,,,,,,,,,,,,,,,,,,,,,,
294241,2022-11-14_12h10.16.140,vts_reward_expectancy_bt,2022.2.4,Win32,59.76929054,Chrome,1500,1000,,,l,0.5389,10,243,0,2,11,35,5,1,0,1,0,0,0,0,0,1,circle,star,,,,,,,,,,,,,,,,,,,,,,,,,,,,,,,,,,,,,,,,,,,,,,,,,,,,,,
294241,2022-11-14_12h10.16.140,vts_reward_expectancy_bt,2022.2.4,Win32,59.76929054,Chrome,1500,1000,,,a,1.4283,10,253,1,0,0,0,9,1,0,0,0,1,1,0,0,0,star,triangle,,,,,,,,,,,,,,,,,,,,,,,,,,,,,,,,,,,,,,,,,,,,,,,,,,,,,,
294241,2022-11-14_12h10.16.140,vts_reward_expectancy_bt,2022.2.4,Win32,59.76929054,Chrome,1500,1000,,,a,0.6673,10,263,1,0,1,1,11,1,0,0,0,1,0,0,1,0,star,hexagon,,,,,,,,,,,,,,,,,,,,,,,,,,,,,,,,,,,,,,,,,,,,,,,,,,,,,,
294241,2022-11-14_12h10.16.140,vts_reward_expectancy_bt,2022.2.4,Win32,59.76929054,Chrome,1500,1000,,,l,0.5177,10,273,1,0,2,2,2,1,1,0,0,0,0,0,0,1,triangle,star,,,,,,,,,,,,,,,,,,,,,,,,,,,,,,,,,,,,,,,,,,,,,,,,,,,,,,
294241,2022-11-14_12h10.16.140,vts_reward_expectancy_bt,2022.2.4,Win32,59.76929054,Chrome,1500,1000,,,a,0.6007,10,283,1,0,3,3,10,1,0,0,0,1,0,1,0,0,star ,circle,,,,,,,,,,,,,,,,,,,,,,,,,,,,,,,,,,,,,,,,,,,,,,,,,,,,,,
294241,2022-11-14_12h10.16.140,vts_reward_expectancy_bt,2022.2.4,Win32,59.76929054,Chrome,1500,1000,,,l,0.5241,10,293,1,0,4,4,4,1,0,1,0,0,0,0,1,0,circle,hexagon,,,,,,,,,,,,,,,,,,,,,,,,,,,,,,,,,,,,,,,,,,,,,,,,,,,,,,
294241,2022-11-14_12h10.16.140,vts_reward_expectancy_bt,2022.2.4,Win32,59.76929054,Chrome,1500,1000,,,l,0.5149,10,303,1,0,5,5,1,1,1,0,0,0,0,0,1,0,triangle,hexagon,,,,,,,,,,,,,,,,,,,,,,,,,,,,,,,,,,,,,,,,,,,,,,,,,,,,,,
294241,2022-11-14_12h10.16.140,vts_reward_expectancy_bt,2022.2.4,Win32,59.76929054,Chrome,1500,1000,,,a,1.1661,10,313,1,0,6,6,6,1,0,0,1,0,1,0,0,0,hexagon,triangle,,,,,,,,,,,,,,,,,,,,,,,,,,,,,,,,,,,,,,,,,,,,,,,,,,,,,,
294241,2022-11-14_12h10.16.140,vts_reward_expectancy_bt,2022.2.4,Win32,59.76929054,Chrome,1500,1000,,,l,0.4338,10,323,1,0,7,7,8,1,0,0,1,0,0,0,0,1,hexagon,star,,,,,,,,,,,,,,,,,,,,,,,,,,,,,,,,,,,,,,,,,,,,,,,,,,,,,,
294241,2022-11-14_12h10.16.140,vts_reward_expectancy_bt,2022.2.4,Win32,59.76929054,Chrome,1500,1000,,,a,0.5983,1,324,1,0,8,8,0,1,1,0,0,0,0,1,0,0,triangle,circle,,,,,,,,,,,,,,,,,,,,,,,,,,,,,,,,,,,,,,,,,,,,,,,,,,,,,,
294241,2022-11-14_12h10.16.140,vts_reward_expectancy_bt,2022.2.4,Win32,59.76929054,Chrome,1500,1000,,,l,1.4147,1,325,1,0,9,9,3,1,0,1,0,0,1,0,0,0,circle,triangle,,,,,,,,,,,,,,,,,,,,,,,,,,,,,,,,,,,,,,,,,,,,,,,,,,,,,,
294241,2022-11-14_12h10.16.140,vts_reward_expectancy_bt,2022.2.4,Win32,59.76929054,Chrome,1500,1000,,,l,0.8408,10,335,1,0,10,10,5,1,0,1,0,0,0,0,0,1,circle,star,,,,,,,,,,,,,,,,,,,,,,,,,,,,,,,,,,,,,,,,,,,,,,,,,,,,,,
294241,2022-11-14_12h10.16.140,vts_reward_expectancy_bt,2022.2.4,Win32,59.76929054,Chrome,1500,1000,,,a,1.9315,10,345,1,0,11,11,7,1,0,0,1,0,0,1,0,0,hexagon,circle,,,,,,,,,,,,,,,,,,,,,,,,,,,,,,,,,,,,,,,,,,,,,,,,,,,,,,
294241,2022-11-14_12h10.16.140,vts_reward_expectancy_bt,2022.2.4,Win32,59.76929054,Chrome,1500,1000,,,a,1.618,10,355,1,1,0,12,6,1,0,0,1,0,1,0,0,0,hexagon,triangle,,,,,,,,,,,,,,,,,,,,,,,,,,,,,,,,,,,,,,,,,,,,,,,,,,,,,,
294241,2022-11-14_12h10.16.140,vts_reward_expectancy_bt,2022.2.4,Win32,59.76929054,Chrome,1500,1000,,,l,2.0499,1,356,1,1,1,13,3,1,0,1,0,0,1,0,0,0,circle,triangle,,,,,,,,,,,,,,,,,,,,,,,,,,,,,,,,,,,,,,,,,,,,,,,,,,,,,,
294241,2022-11-14_12h10.16.140,vts_reward_expectancy_bt,2022.2.4,Win32,59.76929054,Chrome,1500,1000,,,l,1.3199,1,357,1,1,2,14,0,1,1,0,0,0,0,1,0,0,triangle,circle,,,,,,,,,,,,,,,,,,,,,,,,,,,,,,,,,,,,,,,,,,,,,,,,,,,,,,
294241,2022-11-14_12h10.16.140,vts_reward_expectancy_bt,2022.2.4,Win32,59.76929054,Chrome,1500,1000,,,l,1.3059,1,358,1,1,3,15,5,1,0,1,0,0,0,0,0,1,circle,star,,,,,,,,,,,,,,,,,,,,,,,,,,,,,,,,,,,,,,,,,,,,,,,,,,,,,,
294241,2022-11-14_12h10.16.140,vts_reward_expectancy_bt,2022.2.4,Win32,59.76929054,Chrome,1500,1000,,,a,0.6669,10,368,1,1,4,16,9,1,0,0,0,1,1,0,0,0,star,triangle,,,,,,,,,,,,,,,,,,,,,,,,,,,,,,,,,,,,,,,,,,,,,,,,,,,,,,
294241,2022-11-14_12h10.16.140,vts_reward_expectancy_bt,2022.2.4,Win32,59.76929054,Chrome,1500,1000,,,l,8.8043,10,378,1,1,5,17,2,1,1,0,0,0,0,0,0,1,triangle,star,,,,,,,,,,,,,,,,,,,,,,,,,,,,,,,,,,,,,,,,,,,,,,,,,,,,,,
294241,2022-11-14_12h10.16.140,vts_reward_expectancy_bt,2022.2.4,Win32,59.76929054,Chrome,1500,1000,,,l,0.6706,1,379,1,1,6,18,4,1,0,1,0,0,0,0,1,0,circle,hexagon,,,,,,,,,,,,,,,,,,,,,,,,,,,,,,,,,,,,,,,,,,,,,,,,,,,,,,
294241,2022-11-14_12h10.16.140,vts_reward_expectancy_bt,2022.2.4,Win32,59.76929054,Chrome,1500,1000,,,l,1.3373,10,389,1,1,7,19,8,1,0,0,1,0,0,0,0,1,hexagon,star,,,,,,,,,,,,,,,,,,,,,,,,,,,,,,,,,,,,,,,,,,,,,,,,,,,,,,
294241,2022-11-14_12h10.16.140,vts_reward_expectancy_bt,2022.2.4,Win32,59.76929054,Chrome,1500,1000,,,a,1.3698,10,399,1,1,8,20,10,1,0,0,0,1,0,1,0,0,star ,circle,,,,,,,,,,,,,,,,,,,,,,,,,,,,,,,,,,,,,,,,,,,,,,,,,,,,,,
294241,2022-11-14_12h10.16.140,vts_reward_expectancy_bt,2022.2.4,Win32,59.76929054,Chrome,1500,1000,,,l,1.4838,10,409,1,1,9,21,1,1,1,0,0,0,0,0,1,0,triangle,hexagon,,,,,,,,,,,,,,,,,,,,,,,,,,,,,,,,,,,,,,,,,,,,,,,,,,,,,,
294241,2022-11-14_12h10.16.140,vts_reward_expectancy_bt,2022.2.4,Win32,59.76929054,Chrome,1500,1000,,,a,1.6837,10,419,1,1,10,22,7,1,0,0,1,0,0,1,0,0,hexagon,circle,,,,,,,,,,,,,,,,,,,,,,,,,,,,,,,,,,,,,,,,,,,,,,,,,,,,,,
294241,2022-11-14_12h10.16.140,vts_reward_expectancy_bt,2022.2.4,Win32,59.76929054,Chrome,1500,1000,,,a,2.2352,10,429,1,1,11,23,11,1,0,0,0,1,0,0,1,0,star,hexagon,,,,,,,,,,,,,,,,,,,,,,,,,,,,,,,,,,,,,,,,,,,,,,,,,,,,,,
294241,2022-11-14_12h10.16.140,vts_reward_expectancy_bt,2022.2.4,Win32,59.76929054,Chrome,1500,1000,,,a,5.6999,1,430,1,2,0,24,9,1,0,0,0,1,1,0,0,0,star,triangle,,,,,,,,,,,,,,,,,,,,,,,,,,,,,,,,,,,,,,,,,,,,,,,,,,,,,,
294241,2022-11-14_12h10.16.140,vts_reward_expectancy_bt,2022.2.4,Win32,59.76929054,Chrome,1500,1000,,,a,0.6849,1,431,1,2,1,25,0,1,1,0,0,0,0,1,0,0,triangle,circle,,,,,,,,,,,,,,,,,,,,,,,,,,,,,,,,,,,,,,,,,,,,,,,,,,,,,,
294241,2022-11-14_12h10.16.140,vts_reward_expectancy_bt,2022.2.4,Win32,59.76929054,Chrome,1500,1000,,,l,1.0699,10,441,1,2,2,26,1,1,1,0,0,0,0,0,1,0,triangle,hexagon,,,,,,,,,,,,,,,,,,,,,,,,,,,,,,,,,,,,,,,,,,,,,,,,,,,,,,
294241,2022-11-14_12h10.16.140,vts_reward_expectancy_bt,2022.2.4,Win32,59.76929054,Chrome,1500,1000,,,a,1.1451,10,451,1,2,3,27,10,1,0,0,0,1,0,1,0,0,star ,circle,,,,,,,,,,,,,,,,,,,,,,,,,,,,,,,,,,,,,,,,,,,,,,,,,,,,,,
294241,2022-11-14_12h10.16.140,vts_reward_expectancy_bt,2022.2.4,Win32,59.76929054,Chrome,1500,1000,,,l,1.1507,1,452,1,2,4,28,3,1,0,1,0,0,1,0,0,0,circle,triangle,,,,,,,,,,,,,,,,,,,,,,,,,,,,,,,,,,,,,,,,,,,,,,,,,,,,,,
294241,2022-11-14_12h10.16.140,vts_reward_expectancy_bt,2022.2.4,Win32,59.76929054,Chrome,1500,1000,,,a,1.7189,10,462,1,2,5,29,7,1,0,0,1,0,0,1,0,0,hexagon,circle,,,,,,,,,,,,,,,,,,,,,,,,,,,,,,,,,,,,,,,,,,,,,,,,,,,,,,
294241,2022-11-14_12h10.16.140,vts_reward_expectancy_bt,2022.2.4,Win32,59.76929054,Chrome,1500,1000,,,l,0.8174,10,472,1,2,6,30,2,1,1,0,0,0,0,0,0,1,triangle,star,,,,,,,,,,,,,,,,,,,,,,,,,,,,,,,,,,,,,,,,,,,,,,,,,,,,,,
294241,2022-11-14_12h10.16.140,vts_reward_expectancy_bt,2022.2.4,Win32,59.76929054,Chrome,1500,1000,,,l,1.0648,10,482,1,2,7,31,8,1,0,0,1,0,0,0,0,1,hexagon,star,,,,,,,,,,,,,,,,,,,,,,,,,,,,,,,,,,,,,,,,,,,,,,,,,,,,,,
294241,2022-11-14_12h10.16.140,vts_reward_expectancy_bt,2022.2.4,Win32,59.76929054,Chrome,1500,1000,,,a,1.4354,10,492,1,2,8,32,6,1,0,0,1,0,1,0,0,0,hexagon,triangle,,,,,,,,,,,,,,,,,,,,,,,,,,,,,,,,,,,,,,,,,,,,,,,,,,,,,,
294241,2022-11-14_12h10.16.140,vts_reward_expectancy_bt,2022.2.4,Win32,59.76929054,Chrome,1500,1000,,,l,1.466,10,502,1,2,9,33,4,1,0,1,0,0,0,0,1,0,circle,hexagon,,,,,,,,,,,,,,,,,,,,,,,,,,,,,,,,,,,,,,,,,,,,,,,,,,,,,,
294241,2022-11-14_12h10.16.140,vts_reward_expectancy_bt,2022.2.4,Win32,59.76929054,Chrome,1500,1000,,,l,1.0662,10,512,1,2,10,34,5,1,0,1,0,0,0,0,0,1,circle,star,,,,,,,,,,,,,,,,,,,,,,,,,,,,,,,,,,,,,,,,,,,,,,,,,,,,,,
294241,2022-11-14_12h10.16.140,vts_reward_expectancy_bt,2022.2.4,Win32,59.76929054,Chrome,1500,1000,,,a,0.6396,10,522,1,2,11,35,11,1,0,0,0,1,0,0,1,0,star,hexagon,,,,,,,,,,,,,,,,,,,,,,,,,,,,,,,,,,,,,,,,,,,,,,,,,,,,,,
294241,2022-11-14_12h10.16.140,vts_reward_expectancy_bt,2022.2.4,Win32,59.76929054,Chrome,1500,1000,,,a,1.1,10,532,2,0,0,0,7,1,0,0,1,0,0,1,0,0,hexagon,circle,,,,,,,,,,,,,,,,,,,,,,,,,,,,,,,,,,,,,,,,,,,,,,,,,,,,,,
294241,2022-11-14_12h10.16.140,vts_reward_expectancy_bt,2022.2.4,Win32,59.76929054,Chrome,1500,1000,,,l,1.4493,10,542,2,0,1,1,0,1,1,0,0,0,0,1,0,0,triangle,circle,,,,,,,,,,,,,,,,,,,,,,,,,,,,,,,,,,,,,,,,,,,,,,,,,,,,,,
294241,2022-11-14_12h10.16.140,vts_reward_expectancy_bt,2022.2.4,Win32,59.76929054,Chrome,1500,1000,,,a,0.8711,10,552,2,0,2,2,9,1,0,0,0,1,1,0,0,0,star,triangle,,,,,,,,,,,,,,,,,,,,,,,,,,,,,,,,,,,,,,,,,,,,,,,,,,,,,,
294241,2022-11-14_12h10.16.140,vts_reward_expectancy_bt,2022.2.4,Win32,59.76929054,Chrome,1500,1000,,,l,1.1972,10,562,2,0,3,3,8,1,0,0,1,0,0,0,0,1,hexagon,star,,,,,,,,,,,,,,,,,,,,,,,,,,,,,,,,,,,,,,,,,,,,,,,,,,,,,,
294241,2022-11-14_12h10.16.140,vts_reward_expectancy_bt,2022.2.4,Win32,59.76929054,Chrome,1500,1000,,,a,1.2734,10,572,2,0,4,4,6,1,0,0,1,0,1,0,0,0,hexagon,triangle,,,,,,,,,,,,,,,,,,,,,,,,,,,,,,,,,,,,,,,,,,,,,,,,,,,,,,
294241,2022-11-14_12h10.16.140,vts_reward_expectancy_bt,2022.2.4,Win32,59.76929054,Chrome,1500,1000,,,l,2.8034,10,582,2,0,5,5,1,1,1,0,0,0,0,0,1,0,triangle,hexagon,,,,,,,,,,,,,,,,,,,,,,,,,,,,,,,,,,,,,,,,,,,,,,,,,,,,,,
294241,2022-11-14_12h10.16.140,vts_reward_expectancy_bt,2022.2.4,Win32,59.76929054,Chrome,1500,1000,,,a,0.9843,1,583,2,0,6,6,3,1,0,1,0,0,1,0,0,0,circle,triangle,,,,,,,,,,,,,,,,,,,,,,,,,,,,,,,,,,,,,,,,,,,,,,,,,,,,,,
294241,2022-11-14_12h10.16.140,vts_reward_expectancy_bt,2022.2.4,Win32,59.76929054,Chrome,1500,1000,,,a,0.6837,10,593,2,0,7,7,11,1,0,0,0,1,0,0,1,0,star,hexagon,,,,,,,,,,,,,,,,,,,,,,,,,,,,,,,,,,,,,,,,,,,,,,,,,,,,,,
294241,2022-11-14_12h10.16.140,vts_reward_expectancy_bt,2022.2.4,Win32,59.76929054,Chrome,1500,1000,,,l,1.0991,1,594,2,0,8,8,2,1,1,0,0,0,0,0,0,1,triangle,star,,,,,,,,,,,,,,,,,,,,,,,,,,,,,,,,,,,,,,,,,,,,,,,,,,,,,,
294241,2022-11-14_12h10.16.140,vts_reward_expectancy_bt,2022.2.4,Win32,59.76929054,Chrome,1500,1000,,,a,0.8339,1,595,2,0,9,9,10,1,0,0,0,1,0,1,0,0,star ,circle,,,,,,,,,,,,,,,,,,,,,,,,,,,,,,,,,,,,,,,,,,,,,,,,,,,,,,
294241,2022-11-14_12h10.16.140,vts_reward_expectancy_bt,2022.2.4,Win32,59.76929054,Chrome,1500,1000,,,l,0.6581,10,605,2,0,10,10,4,1,0,1,0,0,0,0,1,0,circle,hexagon,,,,,,,,,,,,,,,,,,,,,,,,,,,,,,,,,,,,,,,,,,,,,,,,,,,,,,
294241,2022-11-14_12h10.16.140,vts_reward_expectancy_bt,2022.2.4,Win32,59.76929054,Chrome,1500,1000,,,l,0.7478,10,615,2,0,11,11,5,1,0,1,0,0,0,0,0,1,circle,star,,,,,,,,,,,,,,,,,,,,,,,,,,,,,,,,,,,,,,,,,,,,,,,,,,,,,,
294241,2022-11-14_12h10.16.140,vts_reward_expectancy_bt,2022.2.4,Win32,59.76929054,Chrome,1500,1000,,,a,0.5993,10,625,2,1,0,12,9,1,0,0,0,1,1,0,0,0,star,triangle,,,,,,,,,,,,,,,,,,,,,,,,,,,,,,,,,,,,,,,,,,,,,,,,,,,,,,
294241,2022-11-14_12h10.16.140,vts_reward_expectancy_bt,2022.2.4,Win32,59.76929054,Chrome,1500,1000,,,l,0.4505,10,635,2,1,1,13,8,1,0,0,1,0,0,0,0,1,hexagon,star,,,,,,,,,,,,,,,,,,,,,,,,,,,,,,,,,,,,,,,,,,,,,,,,,,,,,,
294241,2022-11-14_12h10.16.140,vts_reward_expectancy_bt,2022.2.4,Win32,59.76929054,Chrome,1500,1000,,,l,0.4859,10,645,2,1,2,14,5,1,0,1,0,0,0,0,0,1,circle,star,,,,,,,,,,,,,,,,,,,,,,,,,,,,,,,,,,,,,,,,,,,,,,,,,,,,,,
294241,2022-11-14_12h10.16.140,vts_reward_expectancy_bt,2022.2.4,Win32,59.76929054,Chrome,1500,1000,,,a,0.5151,10,655,2,1,3,15,10,1,0,0,0,1,0,1,0,0,star ,circle,,,,,,,,,,,,,,,,,,,,,,,,,,,,,,,,,,,,,,,,,,,,,,,,,,,,,,
294241,2022-11-14_12h10.16.140,vts_reward_expectancy_bt,2022.2.4,Win32,59.76929054,Chrome,1500,1000,,,l,3.2223,1,656,2,1,4,16,0,1,1,0,0,0,0,1,0,0,triangle,circle,,,,,,,,,,,,,,,,,,,,,,,,,,,,,,,,,,,,,,,,,,,,,,,,,,,,,,
294241,2022-11-14_12h10.16.140,vts_reward_expectancy_bt,2022.2.4,Win32,59.76929054,Chrome,1500,1000,,,l,1.3493,1,657,2,1,5,17,2,1,1,0,0,0,0,0,0,1,triangle,star,,,,,,,,,,,,,,,,,,,,,,,,,,,,,,,,,,,,,,,,,,,,,,,,,,,,,,
294241,2022-11-14_12h10.16.140,vts_reward_expectancy_bt,2022.2.4,Win32,59.76929054,Chrome,1500,1000,,,l,1.5724,10,667,2,1,6,18,1,1,1,0,0,0,0,0,1,0,triangle,hexagon,,,,,,,,,,,,,,,,,,,,,,,,,,,,,,,,,,,,,,,,,,,,,,,,,,,,,,
294241,2022-11-14_12h10.16.140,vts_reward_expectancy_bt,2022.2.4,Win32,59.76929054,Chrome,1500,1000,,,l,1.1111,10,677,2,1,7,19,4,1,0,1,0,0,0,0,1,0,circle,hexagon,,,,,,,,,,,,,,,,,,,,,,,,,,,,,,,,,,,,,,,,,,,,,,,,,,,,,,
294241,2022-11-14_12h10.16.140,vts_reward_expectancy_bt,2022.2.4,Win32,59.76929054,Chrome,1500,1000,,,a,1.08,10,687,2,1,8,20,6,1,0,0,1,0,1,0,0,0,hexagon,triangle,,,,,,,,,,,,,,,,,,,,,,,,,,,,,,,,,,,,,,,,,,,,,,,,,,,,,,
294241,2022-11-14_12h10.16.140,vts_reward_expectancy_bt,2022.2.4,Win32,59.76929054,Chrome,1500,1000,,,l,1.7765,1,688,2,1,9,21,3,1,0,1,0,0,1,0,0,0,circle,triangle,,,,,,,,,,,,,,,,,,,,,,,,,,,,,,,,,,,,,,,,,,,,,,,,,,,,,,
294241,2022-11-14_12h10.16.140,vts_reward_expectancy_bt,2022.2.4,Win32,59.76929054,Chrome,1500,1000,,,a,2.166,10,698,2,1,10,22,11,1,0,0,0,1,0,0,1,0,star,hexagon,,,,,,,,,,,,,,,,,,,,,,,,,,,,,,,,,,,,,,,,,,,,,,,,,,,,,,
294241,2022-11-14_12h10.16.140,vts_reward_expectancy_bt,2022.2.4,Win32,59.76929054,Chrome,1500,1000,,,a,1.1521,1,699,2,1,11,23,7,1,0,0,1,0,0,1,0,0,hexagon,circle,,,,,,,,,,,,,,,,,,,,,,,,,,,,,,,,,,,,,,,,,,,,,,,,,,,,,,
294241,2022-11-14_12h10.16.140,vts_reward_expectancy_bt,2022.2.4,Win32,59.76929054,Chrome,1500,1000,,,l,0.7831,1,700,2,2,0,24,5,1,0,1,0,0,0,0,0,1,circle,star,,,,,,,,,,,,,,,,,,,,,,,,,,,,,,,,,,,,,,,,,,,,,,,,,,,,,,
294241,2022-11-14_12h10.16.140,vts_reward_expectancy_bt,2022.2.4,Win32,59.76929054,Chrome,1500,1000,,,l,0.6644,10,710,2,2,1,25,4,1,0,1,0,0,0,0,1,0,circle,hexagon,,,,,,,,,,,,,,,,,,,,,,,,,,,,,,,,,,,,,,,,,,,,,,,,,,,,,,
294241,2022-11-14_12h10.16.140,vts_reward_expectancy_bt,2022.2.4,Win32,59.76929054,Chrome,1500,1000,,,l,0.8057,10,720,2,2,2,26,2,1,1,0,0,0,0,0,0,1,triangle,star,,,,,,,,,,,,,,,,,,,,,,,,,,,,,,,,,,,,,,,,,,,,,,,,,,,,,,
294241,2022-11-14_12h10.16.140,vts_reward_expectancy_bt,2022.2.4,Win32,59.76929054,Chrome,1500,1000,,,a,1.7387,10,730,2,2,3,27,7,1,0,0,1,0,0,1,0,0,hexagon,circle,,,,,,,,,,,,,,,,,,,,,,,,,,,,,,,,,,,,,,,,,,,,,,,,,,,,,,
294241,2022-11-14_12h10.16.140,vts_reward_expectancy_bt,2022.2.4,Win32,59.76929054,Chrome,1500,1000,,,a,1.0035,10,740,2,2,4,28,11,1,0,0,0,1,0,0,1,0,star,hexagon,,,,,,,,,,,,,,,,,,,,,,,,,,,,,,,,,,,,,,,,,,,,,,,,,,,,,,
294241,2022-11-14_12h10.16.140,vts_reward_expectancy_bt,2022.2.4,Win32,59.76929054,Chrome,1500,1000,,,l,1.5025,10,750,2,2,5,29,1,1,1,0,0,0,0,0,1,0,triangle,hexagon,,,,,,,,,,,,,,,,,,,,,,,,,,,,,,,,,,,,,,,,,,,,,,,,,,,,,,
294241,2022-11-14_12h10.16.140,vts_reward_expectancy_bt,2022.2.4,Win32,59.76929054,Chrome,1500,1000,,,a,1.15,10,760,2,2,6,30,10,1,0,0,0,1,0,1,0,0,star ,circle,,,,,,,,,,,,,,,,,,,,,,,,,,,,,,,,,,,,,,,,,,,,,,,,,,,,,,
294241,2022-11-14_12h10.16.140,vts_reward_expectancy_bt,2022.2.4,Win32,59.76929054,Chrome,1500,1000,,,l,0.5898,1,761,2,2,7,31,8,1,0,0,1,0,0,0,0,1,hexagon,star,,,,,,,,,,,,,,,,,,,,,,,,,,,,,,,,,,,,,,,,,,,,,,,,,,,,,,
294241,2022-11-14_12h10.16.140,vts_reward_expectancy_bt,2022.2.4,Win32,59.76929054,Chrome,1500,1000,,,a,1.167,1,762,2,2,8,32,9,1,0,0,0,1,1,0,0,0,star,triangle,,,,,,,,,,,,,,,,,,,,,,,,,,,,,,,,,,,,,,,,,,,,,,,,,,,,,,
294241,2022-11-14_12h10.16.140,vts_reward_expectancy_bt,2022.2.4,Win32,59.76929054,Chrome,1500,1000,,,a,1.9164,1,763,2,2,9,33,0,1,1,0,0,0,0,1,0,0,triangle,circle,,,,,,,,,,,,,,,,,,,,,,,,,,,,,,,,,,,,,,,,,,,,,,,,,,,,,,
294241,2022-11-14_12h10.16.140,vts_reward_expectancy_bt,2022.2.4,Win32,59.76929054,Chrome,1500,1000,,,a,2.8907,1,764,2,2,10,34,3,1,0,1,0,0,1,0,0,0,circle,triangle,,,,,,,,,,,,,,,,,,,,,,,,,,,,,,,,,,,,,,,,,,,,,,,,,,,,,,
294241,2022-11-14_12h10.16.140,vts_reward_expectancy_bt,2022.2.4,Win32,59.76929054,Chrome,1500,1000,,,a,1.3157,10,774,2,2,11,35,6,1,0,0,1,0,1,0,0,0,hexagon,triangle,,,,,,,,,,,,,,,,,,,,,,,,,,,,,,,,,,,,,,,,,,,,,,,,,,,,,,
294241,2022-11-14_12h10.16.140,vts_reward_expectancy_bt,2022.2.4,Win32,59.76929054,Chrome,1500,1000,,,,,,,,,,,,,,,,,,,,,,,U,146,hexagon,1,0,f,2.5327,0,0,0,0,0,1,,,,,,,,,,,,,,,,,,,,,,,,,,,,,,,,,,,,,,,,,
294241,2022-11-14_12h10.16.140,vts_reward_expectancy_bt,2022.2.4,Win32,59.76929054,Chrome,1500,1000,,,,,,,,,,,,,,,,,,,,,,,S,125,circle,1,0,f,0.8627,0,1,0,1,0,1,,,,,,,,,,,,,,,,,,,,,,,,,,,,,,,,,,,,,,,,,
294241,2022-11-14_12h10.16.140,vts_reward_expectancy_bt,2022.2.4,Win32,59.76929054,Chrome,1500,1000,,,,,,,,,,,,,,,,,,,,,,,D,132,triangle,1,0,d,0.8078,0,2,0,2,0,1,,,,,,,,,,,,,,,,,,,,,,,,,,,,,,,,,,,,,,,,,
294241,2022-11-14_12h10.16.140,vts_reward_expectancy_bt,2022.2.4,Win32,59.76929054,Chrome,1500,1000,,,,,,,,,,,,,,,,,,,,,,,B,174,star,1,0,d,0.5322,0,3,0,3,0,1,,,,,,,,,,,,,,,,,,,,,,,,,,,,,,,,,,,,,,,,,
294241,2022-11-14_12h10.16.140,vts_reward_expectancy_bt,2022.2.4,Win32,59.76929054,Chrome,1500,1000,,,,,,,,,,,,,,,,,,,,,,,F,167,hexagon,1,0,d,1.0363,0,4,0,4,0,1,,,,,,,,,,,,,,,,,,,,,,,,,,,,,,,,,,,,,,,,,
294241,2022-11-14_12h10.16.140,vts_reward_expectancy_bt,2022.2.4,Win32,59.76929054,Chrome,1500,1000,,,,,,,,,,,,,,,,,,,,,,,W,139,circle,1,0,f,0.982,0,5,0,5,0,1,,,,,,,,,,,,,,,,,,,,,,,,,,,,,,,,,,,,,,,,,
294241,2022-11-14_12h10.16.140,vts_reward_expectancy_bt,2022.2.4,Win32,59.76929054,Chrome,1500,1000,,,,,,,,,,,,,,,,,,,,,,,Y,160,triangle,1,0,f,0.7155,0,6,0,6,0,1,,,,,,,,,,,,,,,,,,,,,,,,,,,,,,,,,,,,,,,,,
294241,2022-11-14_12h10.16.140,vts_reward_expectancy_bt,2022.2.4,Win32,59.76929054,Chrome,1500,1000,,,,,,,,,,,,,,,,,,,,,,,H,181,star,1,0,d,0.99,0,7,0,7,0,1,,,,,,,,,,,,,,,,,,,,,,,,,,,,,,,,,,,,,,,,,
294241,2022-11-14_12h10.16.140,vts_reward_expectancy_bt,2022.2.4,Win32,59.76929054,Chrome,1500,1000,,,,,,,,,,,,,,,,,,,,,,,U,146,triangle,0,0,,,0,8,0,8,0,1,,,,,,,,,,,,,,,,,,,,,,,,,,,,,,,,,,,,,,,,,
294241,2022-11-14_12h10.16.140,vts_reward_expectancy_bt,2022.2.4,Win32,59.76929054,Chrome,1500,1000,,,,,,,,,,,,,,,,,,,,,,,S,125,hexagon,1,1,f,0.8496,0,9,0,9,0,1,,,,,,,,,,,,,,,,,,,,,,,,,,,,,,,,,,,,,,,,,
294241,2022-11-14_12h10.16.140,vts_reward_expectancy_bt,2022.2.4,Win32,59.76929054,Chrome,1500,1000,,,,,,,,,,,,,,,,,,,,,,,W,167,star,1,0,,,1,,,,,,k,1.2816,0,0,0,0,1,,,,,,,,,,,,,,,,,,,,,,,,,,,,,,,,,,
294241,2022-11-14_12h10.16.140,vts_reward_expectancy_bt,2022.2.4,Win32,59.76929054,Chrome,1500,1000,,,,,,,,,,,,,,,,,,,,,,,S,146,triangle,1,0,,,1,,,,,,j,1.2934,1,0,1,0,1,,,,,,,,,,,,,,,,,,,,,,,,,,,,,,,,,,
294241,2022-11-14_12h10.16.140,vts_reward_expectancy_bt,2022.2.4,Win32,59.76929054,Chrome,1500,1000,,,,,,,,,,,,,,,,,,,,,,,H,125,circle,1,0,,,1,,,,,,j,0.8342,2,0,2,0,1,,,,,,,,,,,,,,,,,,,,,,,,,,,,,,,,,,
294241,2022-11-14_12h10.16.140,vts_reward_expectancy_bt,2022.2.4,Win32,59.76929054,Chrome,1500,1000,,,,,,,,,,,,,,,,,,,,,,,U,160,hexagon,1,0,,,1,,,,,,k,0.9852,3,0,3,0,1,,,,,,,,,,,,,,,,,,,,,,,,,,,,,,,,,,
294241,2022-11-14_12h10.16.140,vts_reward_expectancy_bt,2022.2.4,Win32,59.76929054,Chrome,1500,1000,,,,,,,,,,,,,,,,,,,,,,,D,132,star,1,0,,,1,,,,,,j,0.6328,4,0,4,0,1,,,,,,,,,,,,,,,,,,,,,,,,,,,,,,,,,,
294241,2022-11-14_12h10.16.140,vts_reward_expectancy_bt,2022.2.4,Win32,59.76929054,Chrome,1500,1000,,,,,,,,,,,,,,,,,,,,,,,F,174,triangle,1,0,,,1,,,,,,k,1.0281,5,0,5,0,1,,,,,,,,,,,,,,,,,,,,,,,,,,,,,,,,,,
294241,2022-11-14_12h10.16.140,vts_reward_expectancy_bt,2022.2.4,Win32,59.76929054,Chrome,1500,1000,,,,,,,,,,,,,,,,,,,,,,,Y,181,circle,1,0,,,1,,,,,,k,0.7784,6,0,6,0,1,,,,,,,,,,,,,,,,,,,,,,,,,,,,,,,,,,
294241,2022-11-14_12h10.16.140,vts_reward_expectancy_bt,2022.2.4,Win32,59.76929054,Chrome,1500,1000,,,,,,,,,,,,,,,,,,,,,,,B,139,hexagon,1,0,,,1,,,,,,j,0.9614,7,0,7,0,1,,,,,,,,,,,,,,,,,,,,,,,,,,,,,,,,,,
294241,2022-11-14_12h10.16.140,vts_reward_expectancy_bt,2022.2.4,Win32,59.76929054,Chrome,1500,1000,,,,,,,,,,,,,,,,,,,,,,,W,167,hexagon,1,0,,,1,,,,,,k,0.9519,8,0,8,0,1,,,,,,,,,,,,,,,,,,,,,,,,,,,,,,,,,,
294241,2022-11-14_12h10.16.140,vts_reward_expectancy_bt,2022.2.4,Win32,59.76929054,Chrome,1500,1000,,,,,,,,,,,,,,,,,,,,,,,S,146,star,1,0,,,1,,,,,,j,1.001,9,0,9,0,1,,,,,,,,,,,,,,,,,,,,,,,,,,,,,,,,,,
294241,2022-11-14_12h10.16.140,vts_reward_expectancy_bt,2022.2.4,Win32,59.76929054,Chrome,1500,1000,,,,,0,774,,,,,,,,,,,,,,,,,Y,167,circle,-1,0,,,2,,,,,,,,,,,,,-1,no_choice,NA,,vtsPrac,0,0,0,0,1,,,,,,,,,,,,,,,,,,,,,,,,
294241,2022-11-14_12h10.16.140,vts_reward_expectancy_bt,2022.2.4,Win32,59.76929054,Chrome,1500,1000,,,,,0,774,,,,,,,,,,,,,,,,,W,160,triangle,1,0,,,2,,,,,,,,,,,,,switch,number,numSwt,k,vtsPrac,1,0,1,0,1,1.1779,,,,,,,,,,,,,,,,,,,,,,,
294241,2022-11-14_12h10.16.140,vts_reward_expectancy_bt,2022.2.4,Win32,59.76929054,Chrome,1500,1000,,,,,0,774,,,,,,,,,,,,,,,,,B,174,circle,1,0,,,2,,,,,,,,,,,,,repeat,number,numRpt,k,vtsPrac,2,0,2,0,1,1.1808,,,,,,,,,,,,,,,,,,,,,,,
294241,2022-11-14_12h10.16.140,vts_reward_expectancy_bt,2022.2.4,Win32,59.76929054,Chrome,1500,1000,,,,,0,774,,,,,,,,,,,,,,,,,H,132,triangle,1,0,,,2,,,,,,,,,,,,,switch,letter,lettSwt,d,vtsPrac,3,0,3,0,1,0.8428,,,,,,,,,,,,,,,,,,,,,,,
294241,2022-11-14_12h10.16.140,vts_reward_expectancy_bt,2022.2.4,Win32,59.76929054,Chrome,1500,1000,,,,,0,774,,,,,,,,,,,,,,,,,Y,167,star,1,0,,,2,,,,,,,,,,,,,repeat,letter,lettRpt,f,vtsPrac,4,0,4,0,1,0.9324,,,,,,,,,,,,,,,,,,,,,,,
294241,2022-11-14_12h10.16.140,vts_reward_expectancy_bt,2022.2.4,Win32,59.76929054,Chrome,1500,1000,,,,,0,774,,,,,,,,,,,,,,,,,W,160,hexagon,1,0,,,2,,,,,,,,,,,,,switch,number,numSwt,k,vtsPrac,5,0,5,0,1,0.6826,,,,,,,,,,,,,,,,,,,,,,,
294241,2022-11-14_12h10.16.140,vts_reward_expectancy_bt,2022.2.4,Win32,59.76929054,Chrome,1500,1000,,,,,0,774,,,,,,,,,,,,,,,,,B,174,triangle,1,0,,,2,,,,,,,,,,,,,switch,letter,lettSwt,d,vtsPrac,6,0,6,0,1,0.8666,,,,,,,,,,,,,,,,,,,,,,,
294241,2022-11-14_12h10.16.140,vts_reward_expectancy_bt,2022.2.4,Win32,59.76929054,Chrome,1500,1000,,,,,0,774,,,,,,,,,,,,,,,,,H,132,circle,1,0,,,2,,,,,,,,,,,,,repeat,letter,lettRpt,d,vtsPrac,7,0,7,0,1,0.8921,,,,,,,,,,,,,,,,,,,,,,,
294241,2022-11-14_12h10.16.140,vts_reward_expectancy_bt,2022.2.4,Win32,59.76929054,Chrome,1500,1000,,,,,0,774,,,,,,,,,,,,,,,,,D,125,hexagon,1,0,,,2,,,,,,,,,,,,,switch,number,numSwt,j,vtsPrac,8,0,8,0,1,0.6952,,,,,,,,,,,,,,,,,,,,,,,
294241,2022-11-14_12h10.16.140,vts_reward_expectancy_bt,2022.2.4,Win32,59.76929054,Chrome,1500,1000,,,,,0,774,,,,,,,,,,,,,,,,,S,160,star,1,0,,,2,,,,,,,,,,,,,switch,letter,lettSwt,f,vtsPrac,9,0,9,0,1,0.8608,,,,,,,,,,,,,,,,,,,,,,,
294241,2022-11-14_12h10.16.140,vts_reward_expectancy_bt,2022.2.4,Win32,59.76929054,Chrome,1500,1000,,,,,0,774,,,,,,,,,,,,,,,,,W,146,hexagon,1,0,,,2,,,,,,,,,,,,,switch,number,numSwt,j,vtsPrac,10,0,10,0,1,0.9524,,,,,,,,,,,,,,,,,,,,,,,
294241,2022-11-14_12h10.16.140,vts_reward_expectancy_bt,2022.2.4,Win32,59.76929054,Chrome,1500,1000,,,,,0,774,,,,,,,,,,,,,,,,,F,139,circle,1,0,,,2,,,,,,,,,,,,,repeat,number,numRpt,j,vtsPrac,11,0,11,0,1,0.8542,,,,,,,,,,,,,,,,,,,,,,,
294241,2022-11-14_12h10.16.140,vts_reward_expectancy_bt,2022.2.4,Win32,59.76929054,Chrome,1500,1000,,,,,0,774,,,,,,,,,,,,,,,,,B,181,triangle,1,0,,,2,,,,,,,,,,,,,repeat,number,numRpt,k,vtsPrac,12,0,12,0,1,0.7279,,,,,,,,,,,,,,,,,,,,,,,
294241,2022-11-14_12h10.16.140,vts_reward_expectancy_bt,2022.2.4,Win32,59.76929054,Chrome,1500,1000,,,,,0,774,,,,,,,,,,,,,,,,,S,160,star,1,0,,,2,,,,,,,,,,,,,switch,letter,lettSwt,f,vtsPrac,13,0,13,0,1,0.848,,,,,,,,,,,,,,,,,,,,,,,
294241,2022-11-14_12h10.16.140,vts_reward_expectancy_bt,2022.2.4,Win32,59.76929054,Chrome,1500,1000,,,,,0,774,,,,,,,,,,,,,,,,,U,167,star,1,0,,,2,,,,,,,,,,,,,repeat,letter,lettRpt,f,vtsPrac,14,0,14,0,1,0.9488,,,,,,,,,,,,,,,,,,,,,,,
294241,2022-11-14_12h10.16.140,vts_reward_expectancy_bt,2022.2.4,Win32,59.76929054,Chrome,1500,1000,,,,,0,774,,,,,,,,,,,,,,,,,H,174,hexagon,1,0,,,2,,,,,,,,,,,,,switch,number,numSwt,k,vtsPrac,15,0,15,0,1,0.7486,,,,,,,,,,,,,,,,,,,,,,,
294241,2022-11-14_12h10.16.140,vts_reward_expectancy_bt,2022.2.4,Win32,59.76929054,Chrome,1500,1000,,,,,0,774,,,,,,,,,,,,,,,,,B,160,star,1,0,,,2,,,,,,,,,,,,,repeat,number,numRpt,k,vtsPrac,16,0,16,0,1,1.3876,,,,,,,,,,,,,,,,,,,,,,,
294241,2022-11-14_12h10.16.140,vts_reward_expectancy_bt,2022.2.4,Win32,59.76929054,Chrome,1500,1000,,,,,0,774,,,,,,,,,,,,,,,,,Y,132,hexagon,1,0,,,2,,,,,,,,,,,,,switch,letter,lettSwt,f,vtsPrac,17,0,17,0,1,0.7999,,,,,,,,,,,,,,,,,,,,,,,
294241,2022-11-14_12h10.16.140,vts_reward_expectancy_bt,2022.2.4,Win32,59.76929054,Chrome,1500,1000,,,,,0,774,,,,,,,,,,,,,,,,,F,146,star,1,0,,,2,,,,,,,,,,,,,switch,number,numSwt,j,vtsPrac,18,0,18,0,1,1.4648,,,,,,,,,,,,,,,,,,,,,,,
294241,2022-11-14_12h10.16.140,vts_reward_expectancy_bt,2022.2.4,Win32,59.76929054,Chrome,1500,1000,,,,,0,774,,,,,,,,,,,,,,,,,S,125,circle,1,0,,,2,,,,,,,,,,,,,switch,letter,lettSwt,f,vtsPrac,19,0,19,0,1,0.7646,,,,,,,,,,,,,,,,,,,,,,,
294241,2022-11-14_12h10.16.140,vts_reward_expectancy_bt,2022.2.4,Win32,59.76929054,Chrome,1500,1000,,,,,0,774,,,,,,,,,,,,,,,,,D,132,circle,1,0,,,2,,,,,,,,,,,,,repeat,letter,lettRpt,d,vtsPrac,20,0,20,0,1,0.5988,,,,,,,,,,,,,,,,,,,,,,,
294241,2022-11-14_12h10.16.140,vts_reward_expectancy_bt,2022.2.4,Win32,59.76929054,Chrome,1500,1000,,,,,0,774,,,,,,,,,,,,,,,,,F,125,triangle,1,0,,,2,,,,,,,,,,,,,switch,number,numSwt,j,vtsPrac,21,0,21,0,1,1.0002,,,,,,,,,,,,,,,,,,,,,,,
294241,2022-11-14_12h10.16.140,vts_reward_expectancy_bt,2022.2.4,Win32,59.76929054,Chrome,1500,1000,,,,,0,774,,,,,,,,,,,,,,,,,W,139,hexagon,1,0,,,2,,,,,,,,,,,,,switch,letter,lettSwt,f,vtsPrac,22,0,22,0,1,0.8327,,,,,,,,,,,,,,,,,,,,,,,
294241,2022-11-14_12h10.16.140,vts_reward_expectancy_bt,2022.2.4,Win32,59.76929054,Chrome,1500,1000,,,,,0,774,,,,,,,,,,,,,,,,,Y,167,star,1,0,,,2,,,,,,,,,,,,,repeat,letter,lettRpt,f,vtsPrac,23,0,23,0,1,0.8829,,,,,,,,,,,,,,,,,,,,,,,
294241,2022-11-14_12h10.16.140,vts_reward_expectancy_bt,2022.2.4,Win32,59.76929054,Chrome,1500,1000,,,,,0,774,,,,,,,,,,,,,,,,,B,167,triangle,1,0,,,2,,,,,,,,,,,,,repeat,letter,lettRpt,d,vtsPrac,24,0,24,0,1,0.5365,,,,,,,,,,,,,,,,,,,,,,,
294241,2022-11-14_12h10.16.140,vts_reward_expectancy_bt,2022.2.4,Win32,59.76929054,Chrome,1500,1000,,,,,0,774,,,,,,,,,,,,,,,,,W,132,hexagon,1,0,,,2,,,,,,,,,,,,,repeat,letter,lettRpt,f,vtsPrac,25,0,25,0,1,0.7632,,,,,,,,,,,,,,,,,,,,,,,
294241,2022-11-14_12h10.16.140,vts_reward_expectancy_bt,2022.2.4,Win32,59.76929054,Chrome,1500,1000,,,,,0,774,,,,,,,,,,,,,,,,,S,181,star,1,0,,,2,,,,,,,,,,,,,switch,number,numSwt,k,vtsPrac,26,0,26,0,1,1.7988,,,,,,,,,,,,,,,,,,,,,,,
294241,2022-11-14_12h10.16.140,vts_reward_expectancy_bt,2022.2.4,Win32,59.76929054,Chrome,1500,1000,,,,,0,774,,,,,,,,,,,,,,,,,U,174,triangle,1,0,,,2,,,,,,,,,,,,,repeat,number,numRpt,k,vtsPrac,27,0,27,0,1,1.039,,,,,,,,,,,,,,,,,,,,,,,
294241,2022-11-14_12h10.16.140,vts_reward_expectancy_bt,2022.2.4,Win32,59.76929054,Chrome,1500,1000,,,,,0,774,,,,,,,,,,,,,,,,,U,125,hexagon,1,0,,,2,,,,,,,,,,,,,switch,letter,lettSwt,f,vtsPrac,28,0,28,0,1,0.9454,,,,,,,,,,,,,,,,,,,,,,,
294241,2022-11-14_12h10.16.140,vts_reward_expectancy_bt,2022.2.4,Win32,59.76929054,Chrome,1500,1000,,,,,0,774,,,,,,,,,,,,,,,,,Y,160,circle,1,0,,,2,,,,,,,,,,,,,repeat,letter,lettRpt,f,vtsPrac,29,0,29,0,1,0.9131,,,,,,,,,,,,,,,,,,,,,,,
294241,2022-11-14_12h10.16.140,vts_reward_expectancy_bt,2022.2.4,Win32,59.76929054,Chrome,1500,1000,,,,,0,774,,,,,,,,,,,,,,,,,B,139,hexagon,1,0,,,2,,,,,,,,,,,,,switch,number,numSwt,j,vtsPrac,30,0,30,0,1,1.5103,,,,,,,,,,,,,,,,,,,,,,,
294241,2022-11-14_12h10.16.140,vts_reward_expectancy_bt,2022.2.4,Win32,59.76929054,Chrome,1500,1000,,,,,0,774,,,,,,,,,,,,,,,,,H,181,circle,1,0,,,2,,,,,,,,,,,,,repeat,number,numRpt,k,vtsPrac,31,0,31,0,1,0.7146,,,,,,,,,,,,,,,,,,,,,,,
294241,2022-11-14_12h10.16.140,vts_reward_expectancy_bt,2022.2.4,Win32,59.76929054,Chrome,1500,1000,,,,,,,,,,,,,,,,,,,,,,,,,,,,,,,,,,,,,,,,,,,,,,,,,,,,,,,,,,,,,,,,,,,,,,,,,,,,
294241,2022-11-14_12h10.16.140,vts_reward_expectancy_bt,2022.2.4,Win32,59.76929054,Chrome,1500,1000,,,,,,,,,,,,,,,,,,,,,,,,,,,,,,,,,,,,,,,,,,,,,,,,,,,,,,,,,,,,,,,,,,,,,,,,,,,,
294241,2022-11-14_12h10.16.140,vts_reward_expectancy_bt,2022.2.4,Win32,59.76929054,Chrome,1500,1000,,,,,0,774,,,,,,,,,,,,,,,,,Y,167,triangle,1,0,,,,,,,,,,,,,,,,repeat,number,numRpt,k,noRew,,,,,,2.052,0,0,0,0,0,1,,,,,,,,,,,,,,,,,
294241,2022-11-14_12h10.16.140,vts_reward_expectancy_bt,2022.2.4,Win32,59.76929054,Chrome,1500,1000,,,,,0,774,,,,,,,,,,,,,,,,,S,181,hexagon,1,0,,,,,,,,,,,,,,,,switch,letter,lettSwt,f,noRew,,,,,,1.1658,0,1,0,1,0,1,,,,,,,,,,,,,,,,,
294241,2022-11-14_12h10.16.140,vts_reward_expectancy_bt,2022.2.4,Win32,59.76929054,Chrome,1500,1000,,,,,0,774,,,,,,,,,,,,,,,,,H,132,triangle,1,0,,,,,,,,,,,,,,,,repeat,letter,lettRpt,d,noRew,,,,,,1.184,0,2,0,2,0,1,,,,,,,,,,,,,,,,,
294241,2022-11-14_12h10.16.140,vts_reward_expectancy_bt,2022.2.4,Win32,59.76929054,Chrome,1500,1000,,,,,0,774,,,,,,,,,,,,,,,,,B,139,hexagon,1,0,,,,,,,,,,,,,,,,repeat,letter,lettRpt,d,noRew,,,,,,1.2663,0,3,0,3,0,1,,,,,,,,,,,,,,,,,
294241,2022-11-14_12h10.16.140,vts_reward_expectancy_bt,2022.2.4,Win32,59.76929054,Chrome,1500,1000,,,,,0,774,,,,,,,,,,,,,,,,,Y,167,circle,1,0,,,,,,,,,,,,,,,,repeat,letter,lettRpt,f,noRew,,,,,,0.7524,0,4,0,4,0,1,,,,,,,,,,,,,,,,,
294241,2022-11-14_12h10.16.140,vts_reward_expectancy_bt,2022.2.4,Win32,59.76929054,Chrome,1500,1000,,,,,0,774,,,,,,,,,,,,,,,,,S,181,hexagon,1,0,,,,,,,,,,,,,,,,switch,number,numSwt,k,noRew,,,,,,0.8501,0,5,0,5,0,1,,,,,,,,,,,,,,,,,
294241,2022-11-14_12h10.16.140,vts_reward_expectancy_bt,2022.2.4,Win32,59.76929054,Chrome,1500,1000,,,,,0,774,,,,,,,,,,,,,,,,,H,132,hexagon,1,0,,,,,,,,,,,,,,,,switch,letter,lettSwt,d,noRew,,,,,,1.1496,0,6,0,6,0,1,,,,,,,,,,,,,,,,,
294241,2022-11-14_12h10.16.140,vts_reward_expectancy_bt,2022.2.4,Win32,59.76929054,Chrome,1500,1000,,,,,0,774,,,,,,,,,,,,,,,,,B,139,triangle,1,0,,,,,,,,,,,,,,,,repeat,letter,lettRpt,d,noRew,,,,,,0.4182,0,7,0,7,0,1,,,,,,,,,,,,,,,,,
294241,2022-11-14_12h10.16.140,vts_reward_expectancy_bt,2022.2.4,Win32,59.76929054,Chrome,1500,1000,,,,,0,774,,,,,,,,,,,,,,,,,B,181,triangle,1,0,,,,,,,,,,,,,,,,switch,number,numSwt,k,noRew,,,,,,1.7392,0,8,0,8,0,1,,,,,,,,,,,,,,,,,
294241,2022-11-14_12h10.16.140,vts_reward_expectancy_bt,2022.2.4,Win32,59.76929054,Chrome,1500,1000,,,,,0,774,,,,,,,,,,,,,,,,,S,167,star,1,0,,,,,,,,,,,,,,,,repeat,number,numRpt,k,noRew,,,,,,0.7994,0,9,0,9,0,1,,,,,,,,,,,,,,,,,
294241,2022-11-14_12h10.16.140,vts_reward_expectancy_bt,2022.2.4,Win32,59.76929054,Chrome,1500,1000,,,,,0,774,,,,,,,,,,,,,,,,,H,160,circle,1,0,,,,,,,,,,,,,,,,switch,letter,lettSwt,d,noRew,,,,,,1.423,0,10,0,10,0,1,,,,,,,,,,,,,,,,,
294241,2022-11-14_12h10.16.140,vts_reward_expectancy_bt,2022.2.4,Win32,59.76929054,Chrome,1500,1000,,,,,0,774,,,,,,,,,,,,,,,,,D,125,triangle,1,0,,,,,,,,,,,,,,,,repeat,letter,lettRpt,d,noRew,,,,,,1.0153,0,11,0,11,0,1,,,,,,,,,,,,,,,,,
294241,2022-11-14_12h10.16.140,vts_reward_expectancy_bt,2022.2.4,Win32,59.76929054,Chrome,1500,1000,,,,,0,774,,,,,,,,,,,,,,,,,D,160,circle,1,0,,,,,,,,,,,,,,,,switch,number,numSwt,k,noRew,,,,,,1.1555,0,12,0,12,0,1,,,,,,,,,,,,,,,,,
294241,2022-11-14_12h10.16.140,vts_reward_expectancy_bt,2022.2.4,Win32,59.76929054,Chrome,1500,1000,,,,,0,774,,,,,,,,,,,,,,,,,S,167,star,1,0,,,,,,,,,,,,,,,,repeat,number,numRpt,k,noRew,,,,,,0.8067,0,13,0,13,0,1,,,,,,,,,,,,,,,,,
294241,2022-11-14_12h10.16.140,vts_reward_expectancy_bt,2022.2.4,Win32,59.76929054,Chrome,1500,1000,,,,,0,774,,,,,,,,,,,,,,,,,B,181,triangle,1,0,,,,,,,,,,,,,,,,repeat,number,numRpt,k,noRew,,,,,,0.9509,0,14,0,14,0,1,,,,,,,,,,,,,,,,,
294241,2022-11-14_12h10.16.140,vts_reward_expectancy_bt,2022.2.4,Win32,59.76929054,Chrome,1500,1000,,,,,0,774,,,,,,,,,,,,,,,,,F,174,circle,1,0,,,,,,,,,,,,,,,,repeat,number,numRpt,k,noRew,,,,,,1.1693,0,15,0,15,0,1,,,,,,,,,,,,,,,,,
294241,2022-11-14_12h10.16.140,vts_reward_expectancy_bt,2022.2.4,Win32,59.76929054,Chrome,1500,1000,,,,,0,774,,,,,,,,,,,,,,,,,D,146,hexagon,1,0,,,,,,,,,,,,,,,,switch,letter,lettSwt,d,noRew,,,,,,0.5674,0,16,0,16,0,1,,,,,,,,,,,,,,,,,
294241,2022-11-14_12h10.16.140,vts_reward_expectancy_bt,2022.2.4,Win32,59.76929054,Chrome,1500,1000,,,,,0,774,,,,,,,,,,,,,,,,,U,139,circle,1,0,,,,,,,,,,,,,,,,switch,number,numSwt,j,noRew,,,,,,1.7164,0,17,0,17,0,1,,,,,,,,,,,,,,,,,
294241,2022-11-14_12h10.16.140,vts_reward_expectancy_bt,2022.2.4,Win32,59.76929054,Chrome,1500,1000,,,,,0,774,,,,,,,,,,,,,,,,,B,181,triangle,1,0,,,,,,,,,,,,,,,,switch,letter,lettSwt,d,noRew,,,,,,1.3392,0,18,0,18,0,1,,,,,,,,,,,,,,,,,
294241,2022-11-14_12h10.16.140,vts_reward_expectancy_bt,2022.2.4,Win32,59.76929054,Chrome,1500,1000,,,,,0,774,,,,,,,,,,,,,,,,,W,125,star,1,0,,,,,,,,,,,,,,,,repeat,letter,lettRpt,f,noRew,,,,,,1.0576,0,19,0,19,0,1,,,,,,,,,,,,,,,,,
294241,2022-11-14_12h10.16.140,vts_reward_expectancy_bt,2022.2.4,Win32,59.76929054,Chrome,1500,1000,,,,,0,774,,,,,,,,,,,,,,,,,U,167,star,1,0,,,,,,,,,,,,,,,,switch,number,numSwt,k,noRew,,,,,,0.993,0,20,0,20,0,1,,,,,,,,,,,,,,,,,
294241,2022-11-14_12h10.16.140,vts_reward_expectancy_bt,2022.2.4,Win32,59.76929054,Chrome,1500,1000,,,,,0,774,,,,,,,,,,,,,,,,,H,181,triangle,1,0,,,,,,,,,,,,,,,,repeat,number,numRpt,k,noRew,,,,,,1.1873,0,21,0,21,0,1,,,,,,,,,,,,,,,,,
294241,2022-11-14_12h10.16.140,vts_reward_expectancy_bt,2022.2.4,Win32,59.76929054,Chrome,1500,1000,,,,,0,774,,,,,,,,,,,,,,,,,W,132,hexagon,1,0,,,,,,,,,,,,,,,,repeat,number,numRpt,j,noRew,,,,,,1.0724,0,22,0,22,0,1,,,,,,,,,,,,,,,,,
294241,2022-11-14_12h10.16.140,vts_reward_expectancy_bt,2022.2.4,Win32,59.76929054,Chrome,1500,1000,,,,,0,774,,,,,,,,,,,,,,,,,D,160,triangle,1,0,,,,,,,,,,,,,,,,switch,letter,lettSwt,d,noRew,,,,,,0.9387,0,23,0,23,0,1,,,,,,,,,,,,,,,,,
294241,2022-11-14_12h10.16.140,vts_reward_expectancy_bt,2022.2.4,Win32,59.76929054,Chrome,1500,1000,,,,,0,774,,,,,,,,,,,,,,,,,H,146,star,1,0,,,,,,,,,,,,,,,,repeat,letter,lettRpt,d,noRew,,,,,,0.8484,0,24,0,24,0,1,,,,,,,,,,,,,,,,,
294241,2022-11-14_12h10.16.140,vts_reward_expectancy_bt,2022.2.4,Win32,59.76929054,Chrome,1500,1000,,,,,0,774,,,,,,,,,,,,,,,,,F,139,circle,1,0,,,,,,,,,,,,,,,,repeat,letter,lettRpt,d,noRew,,,,,,1.9305,0,25,0,25,0,1,,,,,,,,,,,,,,,,,
294241,2022-11-14_12h10.16.140,vts_reward_expectancy_bt,2022.2.4,Win32,59.76929054,Chrome,1500,1000,,,,,0,774,,,,,,,,,,,,,,,,,W,125,star,0,0,,,,,,,,,,,,,,,,repeat,letter,NA,d,noRew,,,,,,1.132,0,26,0,26,0,1,,,,,,,,,,,,,,,,,
294241,2022-11-14_12h10.16.140,vts_reward_expectancy_bt,2022.2.4,Win32,59.76929054,Chrome,1500,1000,,,,,0,774,,,,,,,,,,,,,,,,,B,174,triangle,1,1,,,,,,,,,,,,,,,,switch,number,numSwt,k,noRew,,,,,,0.8711,0,27,0,27,0,1,,,,,,,,,,,,,,,,,
294241,2022-11-14_12h10.16.140,vts_reward_expectancy_bt,2022.2.4,Win32,59.76929054,Chrome,1500,1000,,,,,0,774,,,,,,,,,,,,,,,,,U,181,triangle,1,0,,,,,,,,,,,,,,,,repeat,number,numRpt,k,noRew,,,,,,0.7844,0,28,0,28,0,1,,,,,,,,,,,,,,,,,
294241,2022-11-14_12h10.16.140,vts_reward_expectancy_bt,2022.2.4,Win32,59.76929054,Chrome,1500,1000,,,,,0,774,,,,,,,,,,,,,,,,,Y,146,hexagon,1,0,,,,,,,,,,,,,,,,switch,letter,lettSwt,f,noRew,,,,,,0.9669,0,29,0,29,0,1,,,,,,,,,,,,,,,,,
294241,2022-11-14_12h10.16.140,vts_reward_expectancy_bt,2022.2.4,Win32,59.76929054,Chrome,1500,1000,,,,,0,774,,,,,,,,,,,,,,,,,W,160,circle,0,0,,,,,,,,,,,,,,,,switch,number,NA,j,noRew,,,,,,1.3199,0,30,0,30,0,1,,,,,,,,,,,,,,,,,
294241,2022-11-14_12h10.16.140,vts_reward_expectancy_bt,2022.2.4,Win32,59.76929054,Chrome,1500,1000,,,,,0,774,,,,,,,,,,,,,,,,,H,139,hexagon,1,1,,,,,,,,,,,,,,,,repeat,number,numRpt,j,noRew,,,,,,1.1323,0,31,0,31,0,1,,,,,,,,,,,,,,,,,
294241,2022-11-14_12h10.16.140,vts_reward_expectancy_bt,2022.2.4,Win32,59.76929054,Chrome,1500,1000,,,,,0,774,,,,,,,,,,,,,,,,,F,125,star,1,0,,,,,,,,,,,,,,,,repeat,number,numRpt,j,noRew,,,,,,1.119,0,32,0,32,0,1,,,,,,,,,,,,,,,,,
294241,2022-11-14_12h10.16.140,vts_reward_expectancy_bt,2022.2.4,Win32,59.76929054,Chrome,1500,1000,,,,,0,774,,,,,,,,,,,,,,,,,S,160,triangle,1,0,,,,,,,,,,,,,,,,switch,letter,lettSwt,f,noRew,,,,,,1.0004,0,33,0,33,0,1,,,,,,,,,,,,,,,,,
294241,2022-11-14_12h10.16.140,vts_reward_expectancy_bt,2022.2.4,Win32,59.76929054,Chrome,1500,1000,,,,,0,774,,,,,,,,,,,,,,,,,B,167,hexagon,1,0,,,,,,,,,,,,,,,,switch,number,numSwt,k,noRew,,,,,,1.3162,0,34,0,34,0,1,,,,,,,,,,,,,,,,,
294241,2022-11-14_12h10.16.140,vts_reward_expectancy_bt,2022.2.4,Win32,59.76929054,Chrome,1500,1000,,,,,0,774,,,,,,,,,,,,,,,,,D,132,circle,1,0,,,,,,,,,,,,,,,,switch,letter,lettSwt,d,noRew,,,,,,0.7336,0,35,0,35,0,1,,,,,,,,,,,,,,,,,
294241,2022-11-14_12h10.16.140,vts_reward_expectancy_bt,2022.2.4,Win32,59.76929054,Chrome,1500,1000,,,,,0,774,,,,,,,,,,,,,,,,,U,132,triangle,1,0,,,,,,,,,,,,,,,,switch,number,numSwt,j,noRew,,,,,,0.8874,0,36,0,36,0,1,,,,,,,,,,,,,,,,,
294241,2022-11-14_12h10.16.140,vts_reward_expectancy_bt,2022.2.4,Win32,59.76929054,Chrome,1500,1000,,,,,0,774,,,,,,,,,,,,,,,,,S,146,hexagon,1,0,,,,,,,,,,,,,,,,switch,letter,lettSwt,f,noRew,,,,,,1.4428,0,37,0,37,0,1,,,,,,,,,,,,,,,,,
294241,2022-11-14_12h10.16.140,vts_reward_expectancy_bt,2022.2.4,Win32,59.76929054,Chrome,1500,1000,,,,,0,774,,,,,,,,,,,,,,,,,D,139,triangle,1,0,,,,,,,,,,,,,,,,repeat,letter,lettRpt,d,noRew,,,,,,0.883,0,38,0,38,0,1,,,,,,,,,,,,,,,,,
294241,2022-11-14_12h10.16.140,vts_reward_expectancy_bt,2022.2.4,Win32,59.76929054,Chrome,1500,1000,,,,,0,774,,,,,,,,,,,,,,,,,B,174,circle,1,0,,,,,,,,,,,,,,,,switch,number,numSwt,k,noRew,,,,,,1.0044,0,39,0,39,0,1,,,,,,,,,,,,,,,,,
294241,2022-11-14_12h10.16.140,vts_reward_expectancy_bt,2022.2.4,Win32,59.76929054,Chrome,1500,1000,,,,,0,774,,,,,,,,,,,,,,,,,H,146,triangle,1,0,,,,,,,,,,,,,,,,repeat,number,numRpt,j,noRew,,,,,,0.9377,0,40,0,40,0,1,,,,,,,,,,,,,,,,,
294241,2022-11-14_12h10.16.140,vts_reward_expectancy_bt,2022.2.4,Win32,59.76929054,Chrome,1500,1000,,,,,0,774,,,,,,,,,,,,,,,,,D,181,hexagon,1,0,,,,,,,,,,,,,,,,repeat,number,numRpt,k,noRew,,,,,,0.9333,0,41,0,41,0,1,,,,,,,,,,,,,,,,,
294241,2022-11-14_12h10.16.140,vts_reward_expectancy_bt,2022.2.4,Win32,59.76929054,Chrome,1500,1000,,,,,0,774,,,,,,,,,,,,,,,,,F,132,circle,1,0,,,,,,,,,,,,,,,,switch,letter,lettSwt,d,noRew,,,,,,1.3664,0,42,0,42,0,1,,,,,,,,,,,,,,,,,
294241,2022-11-14_12h10.16.140,vts_reward_expectancy_bt,2022.2.4,Win32,59.76929054,Chrome,1500,1000,,,,,0,774,,,,,,,,,,,,,,,,,S,174,hexagon,1,0,,,,,,,,,,,,,,,,repeat,letter,lettRpt,f,noRew,,,,,,0.6494,0,43,0,43,0,1,,,,,,,,,,,,,,,,,
294241,2022-11-14_12h10.16.140,vts_reward_expectancy_bt,2022.2.4,Win32,59.76929054,Chrome,1500,1000,,,,,0,774,,,,,,,,,,,,,,,,,S,125,star,1,0,,,,,,,,,,,,,,,,switch,number,numSwt,j,noRew,,,,,,1.1999,0,44,0,44,0,1,,,,,,,,,,,,,,,,,
294241,2022-11-14_12h10.16.140,vts_reward_expectancy_bt,2022.2.4,Win32,59.76929054,Chrome,1500,1000,,,,,0,774,,,,,,,,,,,,,,,,,B,139,hexagon,1,0,,,,,,,,,,,,,,,,repeat,number,numRpt,j,noRew,,,,,,1.5152,0,45,0,45,0,1,,,,,,,,,,,,,,,,,
294241,2022-11-14_12h10.16.140,vts_reward_expectancy_bt,2022.2.4,Win32,59.76929054,Chrome,1500,1000,,,,,0,774,,,,,,,,,,,,,,,,,F,174,triangle,1,0,,,,,,,,,,,,,,,,repeat,number,numRpt,k,noRew,,,,,,1.8163,0,46,0,46,0,1,,,,,,,,,,,,,,,,,
294241,2022-11-14_12h10.16.140,vts_reward_expectancy_bt,2022.2.4,Win32,59.76929054,Chrome,1500,1000,,,,,0,774,,,,,,,,,,,,,,,,,U,181,star,1,0,,,,,,,,,,,,,,,,repeat,number,numRpt,k,noRew,,,,,,0.6999,0,47,0,47,0,1,,,,,,,,,,,,,,,,,
294241,2022-11-14_12h10.16.140,vts_reward_expectancy_bt,2022.2.4,Win32,59.76929054,Chrome,1500,1000,,,,,0,774,,,,,,,,,,,,,,,,,W,146,triangle,1,0,,,,,,,,,,,,,,,,switch,letter,lettSwt,f,noRew,,,,,,0.9366,0,48,0,48,0,1,,,,,,,,,,,,,,,,,
294241,2022-11-14_12h10.16.140,vts_reward_expectancy_bt,2022.2.4,Win32,59.76929054,Chrome,1500,1000,,,,,0,774,,,,,,,,,,,,,,,,,Y,125,circle,1,0,,,,,,,,,,,,,,,,switch,number,numSwt,j,noRew,,,,,,1.2644,0,49,0,49,0,1,,,,,,,,,,,,,,,,,
294241,2022-11-14_12h10.16.140,vts_reward_expectancy_bt,2022.2.4,Win32,59.76929054,Chrome,1500,1000,,,,,0,774,,,,,,,,,,,,,,,,,B,174,star,1,0,,,,,,,,,,,,,,,,switch,letter,lettSwt,d,noRew,,,,,,0.9691,0,50,0,50,0,1,,,,,,,,,,,,,,,,,
294241,2022-11-14_12h10.16.140,vts_reward_expectancy_bt,2022.2.4,Win32,59.76929054,Chrome,1500,1000,,,,,0,774,,,,,,,,,,,,,,,,,U,167,triangle,1,0,,,,,,,,,,,,,,,,repeat,letter,lettRpt,f,noRew,,,,,,1.3356,0,51,0,51,0,1,,,,,,,,,,,,,,,,,
294241,2022-11-14_12h10.16.140,vts_reward_expectancy_bt,2022.2.4,Win32,59.76929054,Chrome,1500,1000,,,,,0,774,,,,,,,,,,,,,,,,,D,132,hexagon,1,0,,,,,,,,,,,,,,,,switch,number,numSwt,j,noRew,,,,,,1.6827,0,52,0,52,0,1,,,,,,,,,,,,,,,,,
294241,2022-11-14_12h10.16.140,vts_reward_expectancy_bt,2022.2.4,Win32,59.76929054,Chrome,1500,1000,,,,,0,774,,,,,,,,,,,,,,,,,U,160,star,1,0,,,,,,,,,,,,,,,,repeat,number,numRpt,k,noRew,,,,,,1.4506,0,53,0,53,0,1,,,,,,,,,,,,,,,,,
294241,2022-11-14_12h10.16.140,vts_reward_expectancy_bt,2022.2.4,Win32,59.76929054,Chrome,1500,1000,,,,,0,774,,,,,,,,,,,,,,,,,H,181,star,1,0,,,,,,,,,,,,,,,,switch,letter,lettSwt,d,noRew,,,,,,0.8511,0,54,0,54,0,1,,,,,,,,,,,,,,,,,
294241,2022-11-14_12h10.16.140,vts_reward_expectancy_bt,2022.2.4,Win32,59.76929054,Chrome,1500,1000,,,,,0,774,,,,,,,,,,,,,,,,,Y,174,triangle,1,0,,,,,,,,,,,,,,,,switch,number,numSwt,k,noRew,,,,,,1.1564,0,55,0,55,0,1,,,,,,,,,,,,,,,,,
294241,2022-11-14_12h10.16.140,vts_reward_expectancy_bt,2022.2.4,Win32,59.76929054,Chrome,1500,1000,,,,,0,774,,,,,,,,,,,,,,,,,D,167,hexagon,1,0,,,,,,,,,,,,,,,,switch,letter,lettSwt,d,noRew,,,,,,1.4444,0,56,0,56,0,1,,,,,,,,,,,,,,,,,
294241,2022-11-14_12h10.16.140,vts_reward_expectancy_bt,2022.2.4,Win32,59.76929054,Chrome,1500,1000,,,,,0,774,,,,,,,,,,,,,,,,,Y,146,star,1,0,,,,,,,,,,,,,,,,switch,number,numSwt,j,noRew,,,,,,0.8955,0,57,0,57,0,1,,,,,,,,,,,,,,,,,
294241,2022-11-14_12h10.16.140,vts_reward_expectancy_bt,2022.2.4,Win32,59.76929054,Chrome,1500,1000,,,,,0,774,,,,,,,,,,,,,,,,,U,160,hexagon,1,0,,,,,,,,,,,,,,,,repeat,number,numRpt,k,noRew,,,,,,1.4317,0,58,0,58,0,1,,,,,,,,,,,,,,,,,
294241,2022-11-14_12h10.16.140,vts_reward_expectancy_bt,2022.2.4,Win32,59.76929054,Chrome,1500,1000,,,,,0,774,,,,,,,,,,,,,,,,,H,139,circle,1,0,,,,,,,,,,,,,,,,switch,letter,lettSwt,d,noRew,,,,,,1.8781,0,59,0,59,0,1,,,,,,,,,,,,,,,,,
294241,2022-11-14_12h10.16.140,vts_reward_expectancy_bt,2022.2.4,Win32,59.76929054,Chrome,1500,1000,,,,,0,774,,,,,,,,,,,,,,,,,F,146,triangle,1,0,,,,,,,,,,,,,,,,repeat,letter,lettRpt,d,noRew,,,,,,1.6337,0,60,0,60,0,1,,,,,,,,,,,,,,,,,
294241,2022-11-14_12h10.16.140,vts_reward_expectancy_bt,2022.2.4,Win32,59.76929054,Chrome,1500,1000,,,,,0,774,,,,,,,,,,,,,,,,,W,167,hexagon,1,0,,,,,,,,,,,,,,,,switch,number,numSwt,k,noRew,,,,,,1.0838,0,61,0,61,0,1,,,,,,,,,,,,,,,,,
294241,2022-11-14_12h10.16.140,vts_reward_expectancy_bt,2022.2.4,Win32,59.76929054,Chrome,1500,1000,,,,,0,774,,,,,,,,,,,,,,,,,B,139,triangle,1,0,,,,,,,,,,,,,,,,switch,letter,lettSwt,d,noRew,,,,,,1.1998,0,62,0,62,0,1,,,,,,,,,,,,,,,,,
294241,2022-11-14_12h10.16.140,vts_reward_expectancy_bt,2022.2.4,Win32,59.76929054,Chrome,1500,1000,,,,,0,774,,,,,,,,,,,,,,,,,D,181,hexagon,1,0,,,,,,,,,,,,,,,,switch,number,numSwt,k,noRew,,,,,,2.9546,0,63,0,63,0,1,,,,,,,,,,,,,,,,,
294241,2022-11-14_12h10.16.140,vts_reward_expectancy_bt,2022.2.4,Win32,59.76929054,Chrome,1500,1000,,,,,,,,,,,,,,,,,,,,,,,,,,,,,,,,,,,,,,,,,,,,,,,,,,,,,,,,,,,,,,,,,,,,,,,,,,,,
294241,2022-11-14_12h10.16.140,vts_reward_expectancy_bt,2022.2.4,Win32,59.76929054,Chrome,1500,1000,,,,,1,775,,,,,,,,,,,,,,,,,B,167,triangle,1,0,,,,,,,,,,,,,,,,repeat,number,numRpt,k,Lo,,,,,,0.878,0,,,,,,space,8.5246,high,0,0,0,0,1,,,,,,,,,
294241,2022-11-14_12h10.16.140,vts_reward_expectancy_bt,2022.2.4,Win32,59.76929054,Chrome,1500,1000,,,,,10,785,,,,,,,,,,,,,,,,,D,174,hexagon,1,0,,,,,,,,,,,,,,,,repeat,number,numRpt,k,Hi,,,,,,0.4999,0,,,,,,,,high,1,0,1,0,1,,,,,,,,,
294241,2022-11-14_12h10.16.140,vts_reward_expectancy_bt,2022.2.4,Win32,59.76929054,Chrome,1500,1000,,,,,10,795,,,,,,,,,,,,,,,,,Y,139,star,1,0,,,,,,,,,,,,,,,,switch,letter,lettSwt,f,Hi,,,,,,0.5345,0,,,,,,,,high,2,0,2,0,1,,,,,,,,,
294241,2022-11-14_12h10.16.140,vts_reward_expectancy_bt,2022.2.4,Win32,59.76929054,Chrome,1500,1000,,,,,1,796,,,,,,,,,,,,,,,,,S,181,circle,1,0,,,,,,,,,,,,,,,,repeat,letter,lettRpt,f,Lo,,,,,,1.0825,0,,,,,,,,high,3,0,3,0,1,,,,,,,,,
294241,2022-11-14_12h10.16.140,vts_reward_expectancy_bt,2022.2.4,Win32,59.76929054,Chrome,1500,1000,,,,,1,797,,,,,,,,,,,,,,,,,W,160,triangle,1,0,,,,,,,,,,,,,,,,switch,number,numSwt,k,Lo,,,,,,0.8258,0,,,,,,,,high,4,0,4,0,1,,,,,,,,,
294241,2022-11-14_12h10.16.140,vts_reward_expectancy_bt,2022.2.4,Win32,59.76929054,Chrome,1500,1000,,,,,1,798,,,,,,,,,,,,,,,,,U,132,hexagon,1,0,,,,,,,,,,,,,,,,switch,letter,lettSwt,f,Hi,,,,,,0.7048,0,,,,,,,,high,5,0,5,0,1,,,,,,,,,
294241,2022-11-14_12h10.16.140,vts_reward_expectancy_bt,2022.2.4,Win32,59.76929054,Chrome,1500,1000,,,,,10,808,,,,,,,,,,,,,,,,,H,125,star,1,0,,,,,,,,,,,,,,,,switch,number,numSwt,j,Hi,,,,,,0.7654,0,,,,,,,,high,6,0,6,0,1,,,,,,,,,
294241,2022-11-14_12h10.16.140,vts_reward_expectancy_bt,2022.2.4,Win32,59.76929054,Chrome,1500,1000,,,,,1,809,,,,,,,,,,,,,,,,,F,146,circle,1,0,,,,,,,,,,,,,,,,repeat,number,numRpt,j,Lo,,,,,,0.9498,0,,,,,,,,high,7,0,7,0,1,,,,,,,,,
294241,2022-11-14_12h10.16.140,vts_reward_expectancy_bt,2022.2.4,Win32,59.76929054,Chrome,1500,1000,,,,,0,809,,,,,,,,,,,,,,,,,B,167,star,1,0,,,,,,,,,,,,,,,,switch,letter,lettSwt,d,Hi,,,,,,1.1666,0,,,,,,,,high,8,0,8,0,1,,,,,,,,,
294241,2022-11-14_12h10.16.140,vts_reward_expectancy_bt,2022.2.4,Win32,59.76929054,Chrome,1500,1000,,,,,1,810,,,,,,,,,,,,,,,,,D,174,triangle,1,0,,,,,,,,,,,,,,,,repeat,letter,lettRpt,d,Lo,,,,,,0.7157,0,,,,,,,,high,9,0,9,0,1,,,,,,,,,
294241,2022-11-14_12h10.16.140,vts_reward_expectancy_bt,2022.2.4,Win32,59.76929054,Chrome,1500,1000,,,,,0,810,,,,,,,,,,,,,,,,,Y,139,hexagon,0,0,,,,,,,,,,,,,,,,switch,number,NA,k,Lo,,,,,,1.6396,0,,,,,,,,high,10,0,10,0,1,,,,,,,,,
294241,2022-11-14_12h10.16.140,vts_reward_expectancy_bt,2022.2.4,Win32,59.76929054,Chrome,1500,1000,,,,,1,811,,,,,,,,,,,,,,,,,S,181,circle,1,1,,,,,,,,,,,,,,,,repeat,number,numRpt,k,Lo,,,,,,0.6501,0,,,,,,,,high,11,0,11,0,1,,,,,,,,,
294241,2022-11-14_12h10.16.140,vts_reward_expectancy_bt,2022.2.4,Win32,59.76929054,Chrome,1500,1000,,,,,1,812,,,,,,,,,,,,,,,,,W,160,triangle,1,0,,,,,,,,,,,,,,,,repeat,number,numRpt,k,Lo,,,,,,0.9647,0,,,,,,,,high,12,0,12,0,1,,,,,,,,,
294241,2022-11-14_12h10.16.140,vts_reward_expectancy_bt,2022.2.4,Win32,59.76929054,Chrome,1500,1000,,,,,10,822,,,,,,,,,,,,,,,,,U,132,star,1,0,,,,,,,,,,,,,,,,repeat,number,numRpt,j,Hi,,,,,,0.4618,0,,,,,,,,high,13,0,13,0,1,,,,,,,,,
294241,2022-11-14_12h10.16.140,vts_reward_expectancy_bt,2022.2.4,Win32,59.76929054,Chrome,1500,1000,,,,,1,823,,,,,,,,,,,,,,,,,H,125,circle,1,0,,,,,,,,,,,,,,,,switch,letter,lettSwt,d,Lo,,,,,,1.1111,0,,,,,,,,high,14,0,14,0,1,,,,,,,,,
294241,2022-11-14_12h10.16.140,vts_reward_expectancy_bt,2022.2.4,Win32,59.76929054,Chrome,1500,1000,,,,,0,823,,,,,,,,,,,,,,,,,F,146,hexagon,1,0,,,,,,,,,,,,,,,,repeat,letter,lettRpt,d,Hi,,,,,,1.0648,0,,,,,,,,high,15,0,15,0,1,,,,,,,,,
294241,2022-11-14_12h10.16.140,vts_reward_expectancy_bt,2022.2.4,Win32,59.76929054,Chrome,1500,1000,,,,,0,823,,,,,,,,,,,,,,,,,S,146,hexagon,0,0,,,,,,,,,,,,,,,,repeat,letter,NA,d,Hi,,,,,,0.8101,0,,,,,,,,high,16,0,16,0,1,,,,,,,,,
294241,2022-11-14_12h10.16.140,vts_reward_expectancy_bt,2022.2.4,Win32,59.76929054,Chrome,1500,1000,,,,,10,833,,,,,,,,,,,,,,,,,W,132,star,1,1,,,,,,,,,,,,,,,,repeat,letter,lettRpt,f,Hi,,,,,,0.6955,0,,,,,,,,high,17,0,17,0,1,,,,,,,,,
294241,2022-11-14_12h10.16.140,vts_reward_expectancy_bt,2022.2.4,Win32,59.76929054,Chrome,1500,1000,,,,,1,834,,,,,,,,,,,,,,,,,F,174,circle,1,0,,,,,,,,,,,,,,,,repeat,letter,lettRpt,d,Lo,,,,,,0.8916,0,,,,,,,,high,18,0,18,0,1,,,,,,,,,
294241,2022-11-14_12h10.16.140,vts_reward_expectancy_bt,2022.2.4,Win32,59.76929054,Chrome,1500,1000,,,,,1,835,,,,,,,,,,,,,,,,,H,160,triangle,1,0,,,,,,,,,,,,,,,,switch,number,numSwt,k,Lo,,,,,,0.6322,0,,,,,,,,high,19,0,19,0,1,,,,,,,,,
294241,2022-11-14_12h10.16.140,vts_reward_expectancy_bt,2022.2.4,Win32,59.76929054,Chrome,1500,1000,,,,,1,836,,,,,,,,,,,,,,,,,B,167,circle,1,0,,,,,,,,,,,,,,,,repeat,number,numRpt,k,Lo,,,,,,0.8177,0,,,,,,,,high,20,0,20,0,1,,,,,,,,,
294241,2022-11-14_12h10.16.140,vts_reward_expectancy_bt,2022.2.4,Win32,59.76929054,Chrome,1500,1000,,,,,0,836,,,,,,,,,,,,,,,,,D,139,hexagon,1,0,,,,,,,,,,,,,,,,repeat,number,numRpt,j,Hi,,,,,,1.1469,0,,,,,,,,high,21,0,21,0,1,,,,,,,,,
294241,2022-11-14_12h10.16.140,vts_reward_expectancy_bt,2022.2.4,Win32,59.76929054,Chrome,1500,1000,,,,,1,837,,,,,,,,,,,,,,,,,Y,125,triangle,1,0,,,,,,,,,,,,,,,,repeat,number,numRpt,j,Lo,,,,,,0.617,0,,,,,,,,high,22,0,22,0,1,,,,,,,,,
294241,2022-11-14_12h10.16.140,vts_reward_expectancy_bt,2022.2.4,Win32,59.76929054,Chrome,1500,1000,,,,,10,847,,,,,,,,,,,,,,,,,U,181,star,1,0,,,,,,,,,,,,,,,,switch,letter,lettSwt,f,Hi,,,,,,0.7708,0,,,,,,,,high,23,0,23,0,1,,,,,,,,,
294241,2022-11-14_12h10.16.140,vts_reward_expectancy_bt,2022.2.4,Win32,59.76929054,Chrome,1500,1000,,,,,10,857,,,,,,,,,,,,,,,,,D,125,triangle,1,0,,,,,,,,,,,,,,,,switch,number,numSwt,j,Lo,,,,,,0.6052,0,,,,,,,,high,24,0,24,0,1,,,,,,,,,
294241,2022-11-14_12h10.16.140,vts_reward_expectancy_bt,2022.2.4,Win32,59.76929054,Chrome,1500,1000,,,,,1,858,,,,,,,,,,,,,,,,,S,167,hexagon,1,0,,,,,,,,,,,,,,,,switch,letter,lettSwt,f,Hi,,,,,,0.621,0,,,,,,,,high,25,0,25,0,1,,,,,,,,,
294241,2022-11-14_12h10.16.140,vts_reward_expectancy_bt,2022.2.4,Win32,59.76929054,Chrome,1500,1000,,,,,1,859,,,,,,,,,,,,,,,,,Y,139,circle,1,0,,,,,,,,,,,,,,,,repeat,letter,lettRpt,f,Lo,,,,,,0.9714,0,,,,,,,,high,26,0,26,0,1,,,,,,,,,
294241,2022-11-14_12h10.16.140,vts_reward_expectancy_bt,2022.2.4,Win32,59.76929054,Chrome,1500,1000,,,,,10,869,,,,,,,,,,,,,,,,,U,181,star,1,0,,,,,,,,,,,,,,,,switch,number,numSwt,k,Hi,,,,,,0.6187,0,,,,,,,,high,27,0,27,0,1,,,,,,,,,
294241,2022-11-14_12h10.16.140,vts_reward_expectancy_bt,2022.2.4,Win32,59.76929054,Chrome,1500,1000,,,,,1,870,,,,,,,,,,,,,,,,,W,174,circle,1,0,,,,,,,,,,,,,,,,switch,letter,lettSwt,f,Lo,,,,,,0.8006,0,,,,,,,,high,28,0,28,0,1,,,,,,,,,
294241,2022-11-14_12h10.16.140,vts_reward_expectancy_bt,2022.2.4,Win32,59.76929054,Chrome,1500,1000,,,,,10,880,,,,,,,,,,,,,,,,,H,146,triangle,1,0,,,,,,,,,,,,,,,,switch,number,numSwt,j,Lo,,,,,,0.8537,0,,,,,,,,high,29,0,29,0,1,,,,,,,,,
294241,2022-11-14_12h10.16.140,vts_reward_expectancy_bt,2022.2.4,Win32,59.76929054,Chrome,1500,1000,,,,,1,881,,,,,,,,,,,,,,,,,F,160,star,1,0,,,,,,,,,,,,,,,,repeat,number,numRpt,k,Hi,,,,,,0.7206,0,,,,,,,,high,30,0,30,0,1,,,,,,,,,
294241,2022-11-14_12h10.16.140,vts_reward_expectancy_bt,2022.2.4,Win32,59.76929054,Chrome,1500,1000,,,,,10,891,,,,,,,,,,,,,,,,,B,132,hexagon,1,0,,,,,,,,,,,,,,,,switch,letter,lettSwt,d,Hi,,,,,,0.9277,0,,,,,,,,high,31,0,31,0,1,,,,,,,,,
294241,2022-11-14_12h10.16.140,vts_reward_expectancy_bt,2022.2.4,Win32,59.76929054,Chrome,1500,1000,,,,,0,891,,,,,,,,,,,,,,,,,W,174,hexagon,1,0,,,,,,,,,,,,,,,,repeat,letter,lettRpt,f,Hi,,,,,,0.9831,1,,,,,,space,11.9848,high,0,0,0,0,1,,,,,,,,,
294241,2022-11-14_12h10.16.140,vts_reward_expectancy_bt,2022.2.4,Win32,59.76929054,Chrome,1500,1000,,,,,10,901,,,,,,,,,,,,,,,,,H,167,circle,1,0,,,,,,,,,,,,,,,,repeat,letter,lettRpt,d,Lo,,,,,,1.1557,1,,,,,,,,high,1,0,1,0,1,,,,,,,,,
294241,2022-11-14_12h10.16.140,vts_reward_expectancy_bt,2022.2.4,Win32,59.76929054,Chrome,1500,1000,,,,,0,901,,,,,,,,,,,,,,,,,F,146,star,1,0,,,,,,,,,,,,,,,,switch,number,numSwt,j,Hi,,,,,,0.9169,1,,,,,,,,high,2,0,2,0,1,,,,,,,,,
294241,2022-11-14_12h10.16.140,vts_reward_expectancy_bt,2022.2.4,Win32,59.76929054,Chrome,1500,1000,,,,,10,911,,,,,,,,,,,,,,,,,Y,160,triangle,1,0,,,,,,,,,,,,,,,,repeat,number,numRpt,k,Lo,,,,,,0.8946,1,,,,,,,,high,3,0,3,0,1,,,,,,,,,
294241,2022-11-14_12h10.16.140,vts_reward_expectancy_bt,2022.2.4,Win32,59.76929054,Chrome,1500,1000,,,,,10,921,,,,,,,,,,,,,,,,,D,181,hexagon,1,0,,,,,,,,,,,,,,,,switch,letter,lettSwt,d,Hi,,,,,,0.5991,1,,,,,,,,high,4,0,4,0,1,,,,,,,,,
294241,2022-11-14_12h10.16.140,vts_reward_expectancy_bt,2022.2.4,Win32,59.76929054,Chrome,1500,1000,,,,,1,922,,,,,,,,,,,,,,,,,U,139,circle,1,0,,,,,,,,,,,,,,,,repeat,letter,lettRpt,f,Lo,,,,,,0.8005,1,,,,,,,,high,5,0,5,0,1,,,,,,,,,
294241,2022-11-14_12h10.16.140,vts_reward_expectancy_bt,2022.2.4,Win32,59.76929054,Chrome,1500,1000,,,,,0,922,,,,,,,,,,,,,,,,,S,132,star,1,0,,,,,,,,,,,,,,,,switch,number,numSwt,j,Hi,,,,,,0.6444,1,,,,,,,,high,6,0,6,0,1,,,,,,,,,
294241,2022-11-14_12h10.16.140,vts_reward_expectancy_bt,2022.2.4,Win32,59.76929054,Chrome,1500,1000,,,,,1,923,,,,,,,,,,,,,,,,,B,125,triangle,1,0,,,,,,,,,,,,,,,,switch,letter,lettSwt,d,Lo,,,,,,0.664,1,,,,,,,,high,7,0,7,0,1,,,,,,,,,
294241,2022-11-14_12h10.16.140,vts_reward_expectancy_bt,2022.2.4,Win32,59.76929054,Chrome,1500,1000,,,,,1,924,,,,,,,,,,,,,,,,,W,174,circle,1,0,,,,,,,,,,,,,,,,repeat,letter,lettRpt,f,Lo,,,,,,0.664,1,,,,,,,,high,8,0,8,0,1,,,,,,,,,
294241,2022-11-14_12h10.16.140,vts_reward_expectancy_bt,2022.2.4,Win32,59.76929054,Chrome,1500,1000,,,,,1,925,,,,,,,,,,,,,,,,,H,167,triangle,1,0,,,,,,,,,,,,,,,,repeat,letter,lettRpt,d,Lo,,,,,,0.4991,1,,,,,,,,high,9,0,9,0,1,,,,,,,,,
294241,2022-11-14_12h10.16.140,vts_reward_expectancy_bt,2022.2.4,Win32,59.76929054,Chrome,1500,1000,,,,,10,935,,,,,,,,,,,,,,,,,F,146,star,1,0,,,,,,,,,,,,,,,,switch,number,numSwt,j,Hi,,,,,,0.4984,1,,,,,,,,high,10,0,10,0,1,,,,,,,,,
294241,2022-11-14_12h10.16.140,vts_reward_expectancy_bt,2022.2.4,Win32,59.76929054,Chrome,1500,1000,,,,,10,945,,,,,,,,,,,,,,,,,Y,160,hexagon,1,0,,,,,,,,,,,,,,,,repeat,number,numRpt,k,Hi,,,,,,0.6142,1,,,,,,,,high,11,0,11,0,1,,,,,,,,,
294241,2022-11-14_12h10.16.140,vts_reward_expectancy_bt,2022.2.4,Win32,59.76929054,Chrome,1500,1000,,,,,10,955,,,,,,,,,,,,,,,,,D,181,circle,1,0,,,,,,,,,,,,,,,,switch,letter,lettSwt,d,Lo,,,,,,0.4856,1,,,,,,,,high,12,0,12,0,1,,,,,,,,,
294241,2022-11-14_12h10.16.140,vts_reward_expectancy_bt,2022.2.4,Win32,59.76929054,Chrome,1500,1000,,,,,1,956,,,,,,,,,,,,,,,,,U,139,triangle,1,0,,,,,,,,,,,,,,,,switch,number,numSwt,j,Lo,,,,,,0.5445,1,,,,,,,,high,13,0,13,0,1,,,,,,,,,
294241,2022-11-14_12h10.16.140,vts_reward_expectancy_bt,2022.2.4,Win32,59.76929054,Chrome,1500,1000,,,,,10,966,,,,,,,,,,,,,,,,,S,132,hexagon,1,0,,,,,,,,,,,,,,,,switch,letter,lettSwt,f,Hi,,,,,,0.561,1,,,,,,,,high,14,0,14,0,1,,,,,,,,,
294241,2022-11-14_12h10.16.140,vts_reward_expectancy_bt,2022.2.4,Win32,59.76929054,Chrome,1500,1000,,,,,10,976,,,,,,,,,,,,,,,,,B,125,star,1,0,,,,,,,,,,,,,,,,switch,number,numSwt,j,Hi,,,,,,0.5622,1,,,,,,,,high,15,0,15,0,1,,,,,,,,,
294241,2022-11-14_12h10.16.140,vts_reward_expectancy_bt,2022.2.4,Win32,59.76929054,Chrome,1500,1000,,,,,10,986,,,,,,,,,,,,,,,,,D,132,triangle,1,0,,,,,,,,,,,,,,,,repeat,number,numRpt,j,Lo,,,,,,0.4972,1,,,,,,,,high,16,0,16,0,1,,,,,,,,,
294241,2022-11-14_12h10.16.140,vts_reward_expectancy_bt,2022.2.4,Win32,59.76929054,Chrome,1500,1000,,,,,1,987,,,,,,,,,,,,,,,,,Y,181,hexagon,1,0,,,,,,,,,,,,,,,,switch,letter,lettSwt,f,Hi,,,,,,0.5652,1,,,,,,,,high,17,0,17,0,1,,,,,,,,,
294241,2022-11-14_12h10.16.140,vts_reward_expectancy_bt,2022.2.4,Win32,59.76929054,Chrome,1500,1000,,,,,0,987,,,,,,,,,,,,,,,,,H,174,star,1,0,,,,,,,,,,,,,,,,switch,number,numSwt,k,Hi,,,,,,0.6531,1,,,,,,,,high,18,0,18,0,1,,,,,,,,,
294241,2022-11-14_12h10.16.140,vts_reward_expectancy_bt,2022.2.4,Win32,59.76929054,Chrome,1500,1000,,,,,10,997,,,,,,,,,,,,,,,,,W,146,circle,1,0,,,,,,,,,,,,,,,,repeat,number,numRpt,j,Lo,,,,,,0.8264,1,,,,,,,,high,19,0,19,0,1,,,,,,,,,
294241,2022-11-14_12h10.16.140,vts_reward_expectancy_bt,2022.2.4,Win32,59.76929054,Chrome,1500,1000,,,,,10,1007,,,,,,,,,,,,,,,,,F,167,star,1,0,,,,,,,,,,,,,,,,repeat,number,numRpt,k,Hi,,,,,,0.5693,1,,,,,,,,high,20,0,20,0,1,,,,,,,,,
294241,2022-11-14_12h10.16.140,vts_reward_expectancy_bt,2022.2.4,Win32,59.76929054,Chrome,1500,1000,,,,,10,1017,,,,,,,,,,,,,,,,,U,139,triangle,1,0,,,,,,,,,,,,,,,,switch,letter,lettSwt,f,Lo,,,,,,0.6313,1,,,,,,,,high,21,0,21,0,1,,,,,,,,,
294241,2022-11-14_12h10.16.140,vts_reward_expectancy_bt,2022.2.4,Win32,59.76929054,Chrome,1500,1000,,,,,10,1027,,,,,,,,,,,,,,,,,S,160,hexagon,1,0,,,,,,,,,,,,,,,,switch,number,numSwt,k,Hi,,,,,,0.5655,1,,,,,,,,high,22,0,22,0,1,,,,,,,,,
294241,2022-11-14_12h10.16.140,vts_reward_expectancy_bt,2022.2.4,Win32,59.76929054,Chrome,1500,1000,,,,,10,1037,,,,,,,,,,,,,,,,,B,125,circle,1,0,,,,,,,,,,,,,,,,switch,letter,lettSwt,d,Lo,,,,,,0.6193,1,,,,,,,,high,23,0,23,0,1,,,,,,,,,
294241,2022-11-14_12h10.16.140,vts_reward_expectancy_bt,2022.2.4,Win32,59.76929054,Chrome,1500,1000,,,,,10,1047,,,,,,,,,,,,,,,,,Y,160,triangle,1,0,,,,,,,,,,,,,,,,switch,number,numSwt,k,Lo,,,,,,0.6126,1,,,,,,,,high,24,0,24,0,1,,,,,,,,,
294241,2022-11-14_12h10.16.140,vts_reward_expectancy_bt,2022.2.4,Win32,59.76929054,Chrome,1500,1000,,,,,0,1047,,,,,,,,,,,,,,,,,B,146,star,1,0,,,,,,,,,,,,,,,,switch,letter,lettSwt,d,Hi,,,,,,0.7806,1,,,,,,,,high,25,0,25,0,1,,,,,,,,,
294241,2022-11-14_12h10.16.140,vts_reward_expectancy_bt,2022.2.4,Win32,59.76929054,Chrome,1500,1000,,,,,1,1048,,,,,,,,,,,,,,,,,W,132,circle,1,0,,,,,,,,,,,,,,,,repeat,letter,lettRpt,f,Lo,,,,,,0.6194,1,,,,,,,,high,26,0,26,0,1,,,,,,,,,
294241,2022-11-14_12h10.16.140,vts_reward_expectancy_bt,2022.2.4,Win32,59.76929054,Chrome,1500,1000,,,,,10,1058,,,,,,,,,,,,,,,,,H,167,hexagon,1,0,,,,,,,,,,,,,,,,repeat,letter,lettRpt,d,Hi,,,,,,0.7452,1,,,,,,,,high,27,0,27,0,1,,,,,,,,,
294241,2022-11-14_12h10.16.140,vts_reward_expectancy_bt,2022.2.4,Win32,59.76929054,Chrome,1500,1000,,,,,0,1058,,,,,,,,,,,,,,,,,U,139,hexagon,1,0,,,,,,,,,,,,,,,,repeat,letter,lettRpt,f,Hi,,,,,,0.9937,1,,,,,,,,high,28,0,28,0,1,,,,,,,,,
294241,2022-11-14_12h10.16.140,vts_reward_expectancy_bt,2022.2.4,Win32,59.76929054,Chrome,1500,1000,,,,,10,1068,,,,,,,,,,,,,,,,,F,125,triangle,1,0,,,,,,,,,,,,,,,,repeat,letter,lettRpt,d,Lo,,,,,,0.8118,1,,,,,,,,high,29,0,29,0,1,,,,,,,,,
294241,2022-11-14_12h10.16.140,vts_reward_expectancy_bt,2022.2.4,Win32,59.76929054,Chrome,1500,1000,,,,,1,1069,,,,,,,,,,,,,,,,,D,181,circle,1,0,,,,,,,,,,,,,,,,switch,number,numSwt,k,Lo,,,,,,0.402,1,,,,,,,,high,30,0,30,0,1,,,,,,,,,
294241,2022-11-14_12h10.16.140,vts_reward_expectancy_bt,2022.2.4,Win32,59.76929054,Chrome,1500,1000,,,,,10,1079,,,,,,,,,,,,,,,,,S,174,star,1,0,,,,,,,,,,,,,,,,repeat,number,numRpt,k,Hi,,,,,,0.5973,1,,,,,,,,high,31,0,31,0,1,,,,,,,,,
294241,2022-11-14_12h10.16.140,vts_reward_expectancy_bt,2022.2.4,Win32,59.76929054,Chrome,1500,1000,,,,,0,1079,,,,,,,,,,,,,,,,,D,139,hexagon,1,0,,,,,,,,,,,,,,,,switch,letter,lettSwt,d,Hi,,,,,,0.6485,2,,,,,,space,4.8045,high,0,0,0,0,1,,,,,,,,,
294241,2022-11-14_12h10.16.140,vts_reward_expectancy_bt,2022.2.4,Win32,59.76929054,Chrome,1500,1000,,,,,10,1089,,,,,,,,,,,,,,,,,B,146,star,1,0,,,,,,,,,,,,,,,,repeat,letter,lettRpt,d,Hi,,,,,,0.4167,2,,,,,,,,high,1,0,1,0,1,,,,,,,,,
294241,2022-11-14_12h10.16.140,vts_reward_expectancy_bt,2022.2.4,Win32,59.76929054,Chrome,1500,1000,,,,,1,1090,,,,,,,,,,,,,,,,,Y,181,triangle,1,0,,,,,,,,,,,,,,,,switch,number,numSwt,k,Lo,,,,,,0.4488,2,,,,,,,,high,2,0,2,0,1,,,,,,,,,
294241,2022-11-14_12h10.16.140,vts_reward_expectancy_bt,2022.2.4,Win32,59.76929054,Chrome,1500,1000,,,,,10,1100,,,,,,,,,,,,,,,,,U,167,circle,1,0,,,,,,,,,,,,,,,,repeat,number,numRpt,k,Lo,,,,,,0.5075,2,,,,,,,,high,3,0,3,0,1,,,,,,,,,
294241,2022-11-14_12h10.16.140,vts_reward_expectancy_bt,2022.2.4,Win32,59.76929054,Chrome,1500,1000,,,,,0,1100,,,,,,,,,,,,,,,,,F,160,hexagon,1,0,,,,,,,,,,,,,,,,switch,letter,lettSwt,d,Hi,,,,,,0.6187,2,,,,,,,,high,4,0,4,0,1,,,,,,,,,
294241,2022-11-14_12h10.16.140,vts_reward_expectancy_bt,2022.2.4,Win32,59.76929054,Chrome,1500,1000,,,,,10,1110,,,,,,,,,,,,,,,,,S,132,star,1,0,,,,,,,,,,,,,,,,repeat,letter,lettRpt,f,Hi,,,,,,0.5129,2,,,,,,,,high,5,0,5,0,1,,,,,,,,,
294241,2022-11-14_12h10.16.140,vts_reward_expectancy_bt,2022.2.4,Win32,59.76929054,Chrome,1500,1000,,,,,0,1110,,,,,,,,,,,,,,,,,W,174,triangle,0,0,,,,,,,,,,,,,,,,repeat,letter,NA,d,Hi,,,,,,0.5894,2,,,,,,,,high,6,0,6,0,1,,,,,,,,,
294241,2022-11-14_12h10.16.140,vts_reward_expectancy_bt,2022.2.4,Win32,59.76929054,Chrome,1500,1000,,,,,1,1111,,,,,,,,,,,,,,,,,H,125,circle,1,1,,,,,,,,,,,,,,,,switch,number,numSwt,j,Lo,,,,,,0.6152,2,,,,,,,,high,7,0,7,0,1,,,,,,,,,
294241,2022-11-14_12h10.16.140,vts_reward_expectancy_bt,2022.2.4,Win32,59.76929054,Chrome,1500,1000,,,,,10,1121,,,,,,,,,,,,,,,,,D,139,hexagon,1,0,,,,,,,,,,,,,,,,switch,letter,lettSwt,d,Hi,,,,,,0.5545,2,,,,,,,,high,8,0,8,0,1,,,,,,,,,
294241,2022-11-14_12h10.16.140,vts_reward_expectancy_bt,2022.2.4,Win32,59.76929054,Chrome,1500,1000,,,,,1,1122,,,,,,,,,,,,,,,,,B,146,triangle,1,0,,,,,,,,,,,,,,,,switch,number,numSwt,j,Lo,,,,,,0.4906,2,,,,,,,,high,9,0,9,0,1,,,,,,,,,
294241,2022-11-14_12h10.16.140,vts_reward_expectancy_bt,2022.2.4,Win32,59.76929054,Chrome,1500,1000,,,,,10,1132,,,,,,,,,,,,,,,,,Y,181,star,1,0,,,,,,,,,,,,,,,,switch,letter,lettSwt,f,Hi,,,,,,0.4509,2,,,,,,,,high,10,0,10,0,1,,,,,,,,,
294241,2022-11-14_12h10.16.140,vts_reward_expectancy_bt,2022.2.4,Win32,59.76929054,Chrome,1500,1000,,,,,1,1133,,,,,,,,,,,,,,,,,U,167,circle,1,0,,,,,,,,,,,,,,,,repeat,letter,lettRpt,f,Lo,,,,,,0.6506,2,,,,,,,,high,11,0,11,0,1,,,,,,,,,
294241,2022-11-14_12h10.16.140,vts_reward_expectancy_bt,2022.2.4,Win32,59.76929054,Chrome,1500,1000,,,,,1,1134,,,,,,,,,,,,,,,,,F,160,triangle,1,0,,,,,,,,,,,,,,,,switch,number,numSwt,k,Lo,,,,,,0.5681,2,,,,,,,,high,12,0,12,0,1,,,,,,,,,
294241,2022-11-14_12h10.16.140,vts_reward_expectancy_bt,2022.2.4,Win32,59.76929054,Chrome,1500,1000,,,,,1,1135,,,,,,,,,,,,,,,,,S,132,circle,1,0,,,,,,,,,,,,,,,,switch,letter,lettSwt,f,Lo,,,,,,0.5338,2,,,,,,,,high,13,0,13,0,1,,,,,,,,,
294241,2022-11-14_12h10.16.140,vts_reward_expectancy_bt,2022.2.4,Win32,59.76929054,Chrome,1500,1000,,,,,1,1136,,,,,,,,,,,,,,,,,W,174,star,1,0,,,,,,,,,,,,,,,,repeat,letter,lettRpt,f,Hi,,,,,,0.5467,2,,,,,,,,high,14,0,14,0,1,,,,,,,,,
294241,2022-11-14_12h10.16.140,vts_reward_expectancy_bt,2022.2.4,Win32,59.76929054,Chrome,1500,1000,,,,,10,1146,,,,,,,,,,,,,,,,,H,125,hexagon,1,0,,,,,,,,,,,,,,,,switch,number,numSwt,j,Hi,,,,,,0.4918,2,,,,,,,,high,15,0,15,0,1,,,,,,,,,
294241,2022-11-14_12h10.16.140,vts_reward_expectancy_bt,2022.2.4,Win32,59.76929054,Chrome,1500,1000,,,,,10,1156,,,,,,,,,,,,,,,,,B,139,circle,1,0,,,,,,,,,,,,,,,,switch,letter,lettSwt,d,Lo,,,,,,0.3681,2,,,,,,,,high,16,0,16,0,1,,,,,,,,,
294241,2022-11-14_12h10.16.140,vts_reward_expectancy_bt,2022.2.4,Win32,59.76929054,Chrome,1500,1000,,,,,1,1157,,,,,,,,,,,,,,,,,D,174,hexagon,1,0,,,,,,,,,,,,,,,,switch,number,numSwt,k,Hi,,,,,,0.5403,2,,,,,,,,high,17,0,17,0,1,,,,,,,,,
294241,2022-11-14_12h10.16.140,vts_reward_expectancy_bt,2022.2.4,Win32,59.76929054,Chrome,1500,1000,,,,,1,1158,,,,,,,,,,,,,,,,,S,181,triangle,1,0,,,,,,,,,,,,,,,,repeat,number,numRpt,k,Lo,,,,,,0.5495,2,,,,,,,,high,18,0,18,0,1,,,,,,,,,
294241,2022-11-14_12h10.16.140,vts_reward_expectancy_bt,2022.2.4,Win32,59.76929054,Chrome,1500,1000,,,,,10,1168,,,,,,,,,,,,,,,,,H,160,star,1,0,,,,,,,,,,,,,,,,repeat,number,numRpt,k,Hi,,,,,,0.3903,2,,,,,,,,high,19,0,19,0,1,,,,,,,,,
294241,2022-11-14_12h10.16.140,vts_reward_expectancy_bt,2022.2.4,Win32,59.76929054,Chrome,1500,1000,,,,,10,1178,,,,,,,,,,,,,,,,,Y,167,star,1,0,,,,,,,,,,,,,,,,repeat,number,numRpt,k,Hi,,,,,,0.4566,2,,,,,,,,high,20,0,20,0,1,,,,,,,,,
294241,2022-11-14_12h10.16.140,vts_reward_expectancy_bt,2022.2.4,Win32,59.76929054,Chrome,1500,1000,,,,,1,1179,,,,,,,,,,,,,,,,,U,132,circle,1,0,,,,,,,,,,,,,,,,repeat,number,numRpt,j,Lo,,,,,,0.7323,2,,,,,,,,high,21,0,21,0,1,,,,,,,,,
294241,2022-11-14_12h10.16.140,vts_reward_expectancy_bt,2022.2.4,Win32,59.76929054,Chrome,1500,1000,,,,,1,1180,,,,,,,,,,,,,,,,,F,125,triangle,1,0,,,,,,,,,,,,,,,,switch,letter,lettSwt,d,Lo,,,,,,0.5985,2,,,,,,,,high,22,0,22,0,1,,,,,,,,,
294241,2022-11-14_12h10.16.140,vts_reward_expectancy_bt,2022.2.4,Win32,59.76929054,Chrome,1500,1000,,,,,1,1181,,,,,,,,,,,,,,,,,W,146,hexagon,1,0,,,,,,,,,,,,,,,,repeat,letter,lettRpt,f,Hi,,,,,,0.3187,2,,,,,,,,high,23,0,23,0,1,,,,,,,,,
294241,2022-11-14_12h10.16.140,vts_reward_expectancy_bt,2022.2.4,Win32,59.76929054,Chrome,1500,1000,,,,,10,1191,,,,,,,,,,,,,,,,,U,160,triangle,1,0,,,,,,,,,,,,,,,,switch,number,numSwt,k,Lo,,,,,,0.5535,2,,,,,,,,high,24,0,24,0,1,,,,,,,,,
294241,2022-11-14_12h10.16.140,vts_reward_expectancy_bt,2022.2.4,Win32,59.76929054,Chrome,1500,1000,,,,,0,1191,,,,,,,,,,,,,,,,,F,132,star,0,0,,,,,,,,,,,,,,,,switch,letter,NA,f,Lo,,,,,,0.7334,2,,,,,,,,high,25,0,25,0,1,,,,,,,,,
294241,2022-11-14_12h10.16.140,vts_reward_expectancy_bt,2022.2.4,Win32,59.76929054,Chrome,1500,1000,,,,,1,1192,,,,,,,,,,,,,,,,,D,167,circle,1,1,,,,,,,,,,,,,,,,repeat,letter,lettRpt,d,Lo,,,,,,0.6383,2,,,,,,,,high,26,0,26,0,1,,,,,,,,,
294241,2022-11-14_12h10.16.140,vts_reward_expectancy_bt,2022.2.4,Win32,59.76929054,Chrome,1500,1000,,,,,10,1202,,,,,,,,,,,,,,,,,W,174,hexagon,1,0,,,,,,,,,,,,,,,,switch,number,numSwt,k,Hi,,,,,,0.5391,2,,,,,,,,high,27,0,27,0,1,,,,,,,,,
294241,2022-11-14_12h10.16.140,vts_reward_expectancy_bt,2022.2.4,Win32,59.76929054,Chrome,1500,1000,,,,,1,1203,,,,,,,,,,,,,,,,,Y,125,circle,1,0,,,,,,,,,,,,,,,,switch,letter,lettSwt,f,Lo,,,,,,0.6522,2,,,,,,,,high,28,0,28,0,1,,,,,,,,,
294241,2022-11-14_12h10.16.140,vts_reward_expectancy_bt,2022.2.4,Win32,59.76929054,Chrome,1500,1000,,,,,1,1204,,,,,,,,,,,,,,,,,H,181,triangle,1,0,,,,,,,,,,,,,,,,repeat,letter,lettRpt,d,Lo,,,,,,0.5975,2,,,,,,,,high,29,0,29,0,1,,,,,,,,,
294241,2022-11-14_12h10.16.140,vts_reward_expectancy_bt,2022.2.4,Win32,59.76929054,Chrome,1500,1000,,,,,10,1214,,,,,,,,,,,,,,,,,S,139,hexagon,1,0,,,,,,,,,,,,,,,,repeat,letter,lettRpt,f,Hi,,,,,,0.7025,2,,,,,,,,high,30,0,30,0,1,,,,,,,,,
294241,2022-11-14_12h10.16.140,vts_reward_expectancy_bt,2022.2.4,Win32,59.76929054,Chrome,1500,1000,,,,,0,1214,,,,,,,,,,,,,,,,,B,146,star,1,0,,,,,,,,,,,,,,,,switch,number,numSwt,j,Hi,,,,,,0.6487,2,,,,,,,,high,31,0,31,0,1,,,,,,,,,
294241,2022-11-14_12h10.16.140,vts_reward_expectancy_bt,2022.2.4,Win32,59.76929054,Chrome,1500,1000,,,,,0,1214,,,,,,,,,,,,,,,,,F,146,hexagon,1,0,,,,,,,,,,,,,,,,switch,letter,lettSwt,d,Hi,,,,,,0.6349,3,,,,,,space,4.1116,high,0,0,0,0,1,,,,,,,,,
294241,2022-11-14_12h10.16.140,vts_reward_expectancy_bt,2022.2.4,Win32,59.76929054,Chrome,1500,1000,,,,,10,1224,,,,,,,,,,,,,,,,,H,125,triangle,1,0,,,,,,,,,,,,,,,,repeat,letter,lettRpt,d,Lo,,,,,,0.5519,3,,,,,,,,high,1,0,1,0,1,,,,,,,,,
294241,2022-11-14_12h10.16.140,vts_reward_expectancy_bt,2022.2.4,Win32,59.76929054,Chrome,1500,1000,,,,,0,1224,,,,,,,,,,,,,,,,,U,174,star,0,0,,,,,,,,,,,,,,,,repeat,letter,NA,d,Lo,,,,,,0.4058,3,,,,,,,,high,2,0,2,0,1,,,,,,,,,
294241,2022-11-14_12h10.16.140,vts_reward_expectancy_bt,2022.2.4,Win32,59.76929054,Chrome,1500,1000,,,,,1,1225,,,,,,,,,,,,,,,,,D,139,circle,1,1,,,,,,,,,,,,,,,,switch,number,numSwt,j,Lo,,,,,,0.5008,3,,,,,,,,high,3,0,3,0,1,,,,,,,,,
294241,2022-11-14_12h10.16.140,vts_reward_expectancy_bt,2022.2.4,Win32,59.76929054,Chrome,1500,1000,,,,,0,1225,,,,,,,,,,,,,,,,,B,181,hexagon,1,0,,,,,,,,,,,,,,,,repeat,number,numRpt,k,Hi,,,,,,0.4893,3,,,,,,,,high,4,0,4,0,1,,,,,,,,,
294241,2022-11-14_12h10.16.140,vts_reward_expectancy_bt,2022.2.4,Win32,59.76929054,Chrome,1500,1000,,,,,0,1225,,,,,,,,,,,,,,,,,Y,160,triangle,0,0,,,,,,,,,,,,,,,,repeat,number,NA,j,Hi,,,,,,0.4992,3,,,,,,,,high,5,0,5,0,1,,,,,,,,,
294241,2022-11-14_12h10.16.140,vts_reward_expectancy_bt,2022.2.4,Win32,59.76929054,Chrome,1500,1000,,,,,0,1225,,,,,,,,,,,,,,,,,S,167,star,1,1,,,,,,,,,,,,,,,,repeat,number,numRpt,k,Hi,,,,,,0.5207,3,,,,,,,,high,6,0,6,0,1,,,,,,,,,
294241,2022-11-14_12h10.16.140,vts_reward_expectancy_bt,2022.2.4,Win32,59.76929054,Chrome,1500,1000,,,,,1,1226,,,,,,,,,,,,,,,,,W,132,circle,1,0,,,,,,,,,,,,,,,,switch,letter,lettSwt,f,Lo,,,,,,0.5011,3,,,,,,,,high,7,0,7,0,1,,,,,,,,,
294241,2022-11-14_12h10.16.140,vts_reward_expectancy_bt,2022.2.4,Win32,59.76929054,Chrome,1500,1000,,,,,10,1236,,,,,,,,,,,,,,,,,F,146,hexagon,1,0,,,,,,,,,,,,,,,,switch,number,numSwt,j,Hi,,,,,,0.3964,3,,,,,,,,high,8,0,8,0,1,,,,,,,,,
294241,2022-11-14_12h10.16.140,vts_reward_expectancy_bt,2022.2.4,Win32,59.76929054,Chrome,1500,1000,,,,,0,1236,,,,,,,,,,,,,,,,,H,125,circle,0,0,,,,,,,,,,,,,,,,switch,letter,NA,f,Hi,,,,,,0.699,3,,,,,,,,high,9,0,9,0,1,,,,,,,,,
294241,2022-11-14_12h10.16.140,vts_reward_expectancy_bt,2022.2.4,Win32,59.76929054,Chrome,1500,1000,,,,,0,1236,,,,,,,,,,,,,,,,,U,174,star,0,1,,,,,,,,,,,,,,,,switch,number,NA,j,Hi,,,,,,0.5072,3,,,,,,,,high,10,0,10,0,1,,,,,,,,,
294241,2022-11-14_12h10.16.140,vts_reward_expectancy_bt,2022.2.4,Win32,59.76929054,Chrome,1500,1000,,,,,1,1237,,,,,,,,,,,,,,,,,D,139,triangle,1,1,,,,,,,,,,,,,,,,switch,letter,lettSwt,d,Lo,,,,,,0.4815,3,,,,,,,,high,11,0,11,0,1,,,,,,,,,
294241,2022-11-14_12h10.16.140,vts_reward_expectancy_bt,2022.2.4,Win32,59.76929054,Chrome,1500,1000,,,,,1,1238,,,,,,,,,,,,,,,,,B,181,triangle,1,0,,,,,,,,,,,,,,,,switch,number,numSwt,k,Lo,,,,,,0.3834,3,,,,,,,,high,12,0,12,0,1,,,,,,,,,
294241,2022-11-14_12h10.16.140,vts_reward_expectancy_bt,2022.2.4,Win32,59.76929054,Chrome,1500,1000,,,,,1,1239,,,,,,,,,,,,,,,,,Y,160,circle,1,0,,,,,,,,,,,,,,,,repeat,number,numRpt,k,Lo,,,,,,0.4524,3,,,,,,,,high,13,0,13,0,1,,,,,,,,,
294241,2022-11-14_12h10.16.140,vts_reward_expectancy_bt,2022.2.4,Win32,59.76929054,Chrome,1500,1000,,,,,0,1239,,,,,,,,,,,,,,,,,S,167,hexagon,1,0,,,,,,,,,,,,,,,,repeat,number,numRpt,k,Hi,,,,,,0.6572,3,,,,,,,,high,14,0,14,0,1,,,,,,,,,
294241,2022-11-14_12h10.16.140,vts_reward_expectancy_bt,2022.2.4,Win32,59.76929054,Chrome,1500,1000,,,,,0,1239,,,,,,,,,,,,,,,,,W,132,star,1,0,,,,,,,,,,,,,,,,repeat,number,numRpt,j,Hi,,,,,,0.4827,3,,,,,,,,high,15,0,15,0,1,,,,,,,,,
294241,2022-11-14_12h10.16.140,vts_reward_expectancy_bt,2022.2.4,Win32,59.76929054,Chrome,1500,1000,,,,,0,1239,,,,,,,,,,,,,,,,,U,167,hexagon,0,0,,,,,,,,,,,,,,,,repeat,number,NA,j,Hi,,,,,,0.4504,3,,,,,,,,high,16,0,16,0,1,,,,,,,,,
294241,2022-11-14_12h10.16.140,vts_reward_expectancy_bt,2022.2.4,Win32,59.76929054,Chrome,1500,1000,,,,,1,1240,,,,,,,,,,,,,,,,,Y,174,circle,1,1,,,,,,,,,,,,,,,,repeat,number,numRpt,k,Lo,,,,,,0.4756,3,,,,,,,,high,17,0,17,0,1,,,,,,,,,
294241,2022-11-14_12h10.16.140,vts_reward_expectancy_bt,2022.2.4,Win32,59.76929054,Chrome,1500,1000,,,,,0,1240,,,,,,,,,,,,,,,,,F,146,star,1,0,,,,,,,,,,,,,,,,repeat,number,numRpt,j,Hi,,,,,,0.5145,3,,,,,,,,high,18,0,18,0,1,,,,,,,,,
294241,2022-11-14_12h10.16.140,vts_reward_expectancy_bt,2022.2.4,Win32,59.76929054,Chrome,1500,1000,,,,,1,1241,,,,,,,,,,,,,,,,,H,139,triangle,1,0,,,,,,,,,,,,,,,,repeat,number,numRpt,j,Lo,,,,,,0.5655,3,,,,,,,,high,19,0,19,0,1,,,,,,,,,
294241,2022-11-14_12h10.16.140,vts_reward_expectancy_bt,2022.2.4,Win32,59.76929054,Chrome,1500,1000,,,,,0,1241,,,,,,,,,,,,,,,,,W,132,star,1,0,,,,,,,,,,,,,,,,repeat,number,numRpt,j,Hi,,,,,,0.6697,3,,,,,,,,high,20,0,20,0,1,,,,,,,,,
294241,2022-11-14_12h10.16.140,vts_reward_expectancy_bt,2022.2.4,Win32,59.76929054,Chrome,1500,1000,,,,,1,1242,,,,,,,,,,,,,,,,,B,125,circle,1,0,,,,,,,,,,,,,,,,repeat,number,numRpt,j,Lo,,,,,,0.4805,3,,,,,,,,high,21,0,21,0,1,,,,,,,,,
294241,2022-11-14_12h10.16.140,vts_reward_expectancy_bt,2022.2.4,Win32,59.76929054,Chrome,1500,1000,,,,,0,1242,,,,,,,,,,,,,,,,,D,160,hexagon,1,0,,,,,,,,,,,,,,,,repeat,number,numRpt,k,Hi,,,,,,0.4894,3,,,,,,,,high,22,0,22,0,1,,,,,,,,,
294241,2022-11-14_12h10.16.140,vts_reward_expectancy_bt,2022.2.4,Win32,59.76929054,Chrome,1500,1000,,,,,1,1243,,,,,,,,,,,,,,,,,S,181,triangle,1,0,,,,,,,,,,,,,,,,repeat,number,numRpt,k,Lo,,,,,,0.4568,3,,,,,,,,high,23,0,23,0,1,,,,,,,,,
294241,2022-11-14_12h10.16.140,vts_reward_expectancy_bt,2022.2.4,Win32,59.76929054,Chrome,1500,1000,,,,,1,1244,,,,,,,,,,,,,,,,,Y,125,triangle,1,0,,,,,,,,,,,,,,,,switch,letter,lettSwt,f,Lo,,,,,,0.4502,3,,,,,,,,high,24,0,24,0,1,,,,,,,,,
294241,2022-11-14_12h10.16.140,vts_reward_expectancy_bt,2022.2.4,Win32,59.76929054,Chrome,1500,1000,,,,,1,1245,,,,,,,,,,,,,,,,,B,174,circle,1,0,,,,,,,,,,,,,,,,repeat,letter,lettRpt,d,Lo,,,,,,0.3988,3,,,,,,,,high,25,0,25,0,1,,,,,,,,,
294241,2022-11-14_12h10.16.140,vts_reward_expectancy_bt,2022.2.4,Win32,59.76929054,Chrome,1500,1000,,,,,10,1255,,,,,,,,,,,,,,,,,W,146,hexagon,1,0,,,,,,,,,,,,,,,,repeat,letter,lettRpt,f,Hi,,,,,,0.2211,3,,,,,,,,high,26,0,26,0,1,,,,,,,,,
294241,2022-11-14_12h10.16.140,vts_reward_expectancy_bt,2022.2.4,Win32,59.76929054,Chrome,1500,1000,,,,,10,1265,,,,,,,,,,,,,,,,,H,181,star,1,0,,,,,,,,,,,,,,,,switch,number,numSwt,k,Hi,,,,,,0.421,3,,,,,,,,high,27,0,27,0,1,,,,,,,,,
294241,2022-11-14_12h10.16.140,vts_reward_expectancy_bt,2022.2.4,Win32,59.76929054,Chrome,1500,1000,,,,,10,1275,,,,,,,,,,,,,,,,,S,139,triangle,1,0,,,,,,,,,,,,,,,,repeat,number,numRpt,j,Lo,,,,,,0.5831,3,,,,,,,,high,28,0,28,0,1,,,,,,,,,
294241,2022-11-14_12h10.16.140,vts_reward_expectancy_bt,2022.2.4,Win32,59.76929054,Chrome,1500,1000,,,,,1,1276,,,,,,,,,,,,,,,,,D,132,star,1,0,,,,,,,,,,,,,,,,switch,letter,lettSwt,d,Hi,,,,,,0.3839,3,,,,,,,,high,29,0,29,0,1,,,,,,,,,
294241,2022-11-14_12h10.16.140,vts_reward_expectancy_bt,2022.2.4,Win32,59.76929054,Chrome,1500,1000,,,,,0,1276,,,,,,,,,,,,,,,,,F,167,hexagon,0,0,,,,,,,,,,,,,,,,repeat,letter,NA,f,Hi,,,,,,0.5162,3,,,,,,,,high,30,0,30,0,1,,,,,,,,,
294241,2022-11-14_12h10.16.140,vts_reward_expectancy_bt,2022.2.4,Win32,59.76929054,Chrome,1500,1000,,,,,1,1277,,,,,,,,,,,,,,,,,U,160,circle,1,1,,,,,,,,,,,,,,,,switch,number,numSwt,k,Lo,,,,,,0.552,3,,,,,,,,high,31,0,31,0,1,,,,,,,,,
294241,2022-11-14_12h10.16.140,vts_reward_expectancy_bt,2022.2.4,Win32,59.76929054,Chrome,1500,1000,,,,,1,1278,,,,,,,,,,,,,,,,,S,125,triangle,1,0,,,,,,,,,,,,,,,,switch,letter,lettSwt,f,Lo,,,,,,0.6492,4,,,,,,space,1.422,high,0,0,0,0,1,,,,,,,,,
294241,2022-11-14_12h10.16.140,vts_reward_expectancy_bt,2022.2.4,Win32,59.76929054,Chrome,1500,1000,,,,,0,1278,,,,,,,,,,,,,,,,,H,160,hexagon,1,0,,,,,,,,,,,,,,,,switch,number,numSwt,k,Hi,,,,,,0.5246,4,,,,,,,,high,1,0,1,0,1,,,,,,,,,
294241,2022-11-14_12h10.16.140,vts_reward_expectancy_bt,2022.2.4,Win32,59.76929054,Chrome,1500,1000,,,,,1,1279,,,,,,,,,,,,,,,,,D,181,circle,1,0,,,,,,,,,,,,,,,,repeat,number,numRpt,k,Lo,,,,,,0.5024,4,,,,,,,,high,2,0,2,0,1,,,,,,,,,
294241,2022-11-14_12h10.16.140,vts_reward_expectancy_bt,2022.2.4,Win32,59.76929054,Chrome,1500,1000,,,,,10,1289,,,,,,,,,,,,,,,,,F,167,star,1,0,,,,,,,,,,,,,,,,repeat,number,numRpt,k,Hi,,,,,,0.3873,4,,,,,,,,high,3,0,3,0,1,,,,,,,,,
294241,2022-11-14_12h10.16.140,vts_reward_expectancy_bt,2022.2.4,Win32,59.76929054,Chrome,1500,1000,,,,,10,1299,,,,,,,,,,,,,,,,,B,132,triangle,1,0,,,,,,,,,,,,,,,,switch,letter,lettSwt,d,Lo,,,,,,0.4992,4,,,,,,,,high,4,0,4,0,1,,,,,,,,,
294241,2022-11-14_12h10.16.140,vts_reward_expectancy_bt,2022.2.4,Win32,59.76929054,Chrome,1500,1000,,,,,0,1299,,,,,,,,,,,,,,,,,U,146,hexagon,1,0,,,,,,,,,,,,,,,,switch,number,numSwt,j,Hi,,,,,,0.5198,4,,,,,,,,high,5,0,5,0,1,,,,,,,,,
294241,2022-11-14_12h10.16.140,vts_reward_expectancy_bt,2022.2.4,Win32,59.76929054,Chrome,1500,1000,,,,,10,1309,,,,,,,,,,,,,,,,,W,174,circle,1,0,,,,,,,,,,,,,,,,switch,letter,lettSwt,f,Lo,,,,,,0.5365,4,,,,,,,,high,6,0,6,0,1,,,,,,,,,
294241,2022-11-14_12h10.16.140,vts_reward_expectancy_bt,2022.2.4,Win32,59.76929054,Chrome,1500,1000,,,,,10,1319,,,,,,,,,,,,,,,,,Y,139,star,1,0,,,,,,,,,,,,,,,,switch,number,numSwt,j,Hi,,,,,,0.3383,4,,,,,,,,high,7,0,7,0,1,,,,,,,,,
294241,2022-11-14_12h10.16.140,vts_reward_expectancy_bt,2022.2.4,Win32,59.76929054,Chrome,1500,1000,,,,,0,1319,,,,,,,,,,,,,,,,,S,125,circle,0,0,,,,,,,,,,,,,,,,switch,letter,NA,d,Hi,,,,,,0.3333,4,,,,,,,,high,8,0,8,0,1,,,,,,,,,
294241,2022-11-14_12h10.16.140,vts_reward_expectancy_bt,2022.2.4,Win32,59.76929054,Chrome,1500,1000,,,,,0,1319,,,,,,,,,,,,,,,,,H,160,hexagon,0,1,,,,,,,,,,,,,,,,repeat,letter,NA,f,Hi,,,,,,1.232,4,,,,,,,,high,9,0,9,0,1,,,,,,,,,
294241,2022-11-14_12h10.16.140,vts_reward_expectancy_bt,2022.2.4,Win32,59.76929054,Chrome,1500,1000,,,,,0,1319,,,,,,,,,,,,,,,,,D,181,star,1,1,,,,,,,,,,,,,,,,repeat,letter,lettRpt,d,Hi,,,,,,0.5494,4,,,,,,,,high,10,0,10,0,1,,,,,,,,,
294241,2022-11-14_12h10.16.140,vts_reward_expectancy_bt,2022.2.4,Win32,59.76929054,Chrome,1500,1000,,,,,10,1329,,,,,,,,,,,,,,,,,F,167,triangle,1,0,,,,,,,,,,,,,,,,switch,number,numSwt,k,Lo,,,,,,0.6206,4,,,,,,,,high,11,0,11,0,1,,,,,,,,,
294241,2022-11-14_12h10.16.140,vts_reward_expectancy_bt,2022.2.4,Win32,59.76929054,Chrome,1500,1000,,,,,0,1329,,,,,,,,,,,,,,,,,B,132,circle,0,0,,,,,,,,,,,,,,,,repeat,number,NA,k,Lo,,,,,,0.4666,4,,,,,,,,high,12,0,12,0,1,,,,,,,,,
294241,2022-11-14_12h10.16.140,vts_reward_expectancy_bt,2022.2.4,Win32,59.76929054,Chrome,1500,1000,,,,,1,1330,,,,,,,,,,,,,,,,,U,146,triangle,1,1,,,,,,,,,,,,,,,,repeat,number,numRpt,j,Lo,,,,,,0.6817,4,,,,,,,,high,13,0,13,0,1,,,,,,,,,
294241,2022-11-14_12h10.16.140,vts_reward_expectancy_bt,2022.2.4,Win32,59.76929054,Chrome,1500,1000,,,,,0,1330,,,,,,,,,,,,,,,,,W,174,hexagon,0,0,,,,,,,,,,,,,,,,repeat,number,NA,j,Lo,,,,,,0.5001,4,,,,,,,,high,14,0,14,0,1,,,,,,,,,
294241,2022-11-14_12h10.16.140,vts_reward_expectancy_bt,2022.2.4,Win32,59.76929054,Chrome,1500,1000,,,,,0,1330,,,,,,,,,,,,,,,,,Y,139,star,1,1,,,,,,,,,,,,,,,,repeat,number,numRpt,j,Hi,,,,,,0.4993,4,,,,,,,,high,15,0,15,0,1,,,,,,,,,
294241,2022-11-14_12h10.16.140,vts_reward_expectancy_bt,2022.2.4,Win32,59.76929054,Chrome,1500,1000,,,,,0,1330,,,,,,,,,,,,,,,,,Y,167,hexagon,0,0,,,,,,,,,,,,,,,,repeat,number,NA,j,Hi,,,,,,0.4339,4,,,,,,,,high,16,0,16,0,1,,,,,,,,,
294241,2022-11-14_12h10.16.140,vts_reward_expectancy_bt,2022.2.4,Win32,59.76929054,Chrome,1500,1000,,,,,1,1331,,,,,,,,,,,,,,,,,F,132,circle,1,1,,,,,,,,,,,,,,,,repeat,number,numRpt,j,Lo,,,,,,0.6022,4,,,,,,,,high,17,0,17,0,1,,,,,,,,,
294241,2022-11-14_12h10.16.140,vts_reward_expectancy_bt,2022.2.4,Win32,59.76929054,Chrome,1500,1000,,,,,10,1341,,,,,,,,,,,,,,,,,B,174,triangle,1,0,,,,,,,,,,,,,,,,repeat,number,numRpt,k,Lo,,,,,,0.5186,4,,,,,,,,high,18,0,18,0,1,,,,,,,,,
294241,2022-11-14_12h10.16.140,vts_reward_expectancy_bt,2022.2.4,Win32,59.76929054,Chrome,1500,1000,,,,,0,1341,,,,,,,,,,,,,,,,,U,146,star,1,0,,,,,,,,,,,,,,,,switch,letter,lettSwt,f,Hi,,,,,,0.5731,4,,,,,,,,high,19,0,19,0,1,,,,,,,,,
294241,2022-11-14_12h10.16.140,vts_reward_expectancy_bt,2022.2.4,Win32,59.76929054,Chrome,1500,1000,,,,,0,1341,,,,,,,,,,,,,,,,,H,181,star,0,0,,,,,,,,,,,,,,,,repeat,letter,NA,f,Hi,,,,,,0.3833,4,,,,,,,,high,20,0,20,0,1,,,,,,,,,
294241,2022-11-14_12h10.16.140,vts_reward_expectancy_bt,2022.2.4,Win32,59.76929054,Chrome,1500,1000,,,,,1,1342,,,,,,,,,,,,,,,,,D,139,circle,1,1,,,,,,,,,,,,,,,,switch,number,numSwt,j,Lo,,,,,,0.5332,4,,,,,,,,high,21,0,21,0,1,,,,,,,,,
294241,2022-11-14_12h10.16.140,vts_reward_expectancy_bt,2022.2.4,Win32,59.76929054,Chrome,1500,1000,,,,,1,1343,,,,,,,,,,,,,,,,,S,160,triangle,1,0,,,,,,,,,,,,,,,,switch,letter,lettSwt,f,Lo,,,,,,0.4825,4,,,,,,,,high,22,0,22,0,1,,,,,,,,,
294241,2022-11-14_12h10.16.140,vts_reward_expectancy_bt,2022.2.4,Win32,59.76929054,Chrome,1500,1000,,,,,0,1343,,,,,,,,,,,,,,,,,W,125,hexagon,1,0,,,,,,,,,,,,,,,,switch,number,numSwt,j,Hi,,,,,,0.5652,4,,,,,,,,high,23,0,23,0,1,,,,,,,,,
294241,2022-11-14_12h10.16.140,vts_reward_expectancy_bt,2022.2.4,Win32,59.76929054,Chrome,1500,1000,,,,,0,1343,,,,,,,,,,,,,,,,,F,160,triangle,0,0,,,,,,,,,,,,,,,,repeat,number,NA,j,Hi,,,,,,0.4637,4,,,,,,,,high,24,0,24,0,1,,,,,,,,,
294241,2022-11-14_12h10.16.140,vts_reward_expectancy_bt,2022.2.4,Win32,59.76929054,Chrome,1500,1000,,,,,0,1343,,,,,,,,,,,,,,,,,H,181,star,1,1,,,,,,,,,,,,,,,,repeat,number,numRpt,k,Hi,,,,,,0.4882,4,,,,,,,,high,25,0,25,0,1,,,,,,,,,
294241,2022-11-14_12h10.16.140,vts_reward_expectancy_bt,2022.2.4,Win32,59.76929054,Chrome,1500,1000,,,,,1,1344,,,,,,,,,,,,,,,,,B,139,circle,1,0,,,,,,,,,,,,,,,,repeat,number,numRpt,j,Lo,,,,,,0.6743,4,,,,,,,,high,26,0,26,0,1,,,,,,,,,
294241,2022-11-14_12h10.16.140,vts_reward_expectancy_bt,2022.2.4,Win32,59.76929054,Chrome,1500,1000,,,,,10,1354,,,,,,,,,,,,,,,,,W,146,hexagon,1,0,,,,,,,,,,,,,,,,repeat,number,numRpt,j,Hi,,,,,,0.4702,4,,,,,,,,high,27,0,27,0,1,,,,,,,,,
294241,2022-11-14_12h10.16.140,vts_reward_expectancy_bt,2022.2.4,Win32,59.76929054,Chrome,1500,1000,,,,,10,1364,,,,,,,,,,,,,,,,,S,125,star,1,0,,,,,,,,,,,,,,,,repeat,number,numRpt,j,Hi,,,,,,0.4817,4,,,,,,,,high,28,0,28,0,1,,,,,,,,,
294241,2022-11-14_12h10.16.140,vts_reward_expectancy_bt,2022.2.4,Win32,59.76929054,Chrome,1500,1000,,,,,0,1364,,,,,,,,,,,,,,,,,U,132,triangle,0,0,,,,,,,,,,,,,,,,switch,letter,NA,d,Hi,,,,,,0.4991,4,,,,,,,,high,29,0,29,0,1,,,,,,,,,
294241,2022-11-14_12h10.16.140,vts_reward_expectancy_bt,2022.2.4,Win32,59.76929054,Chrome,1500,1000,,,,,1,1365,,,,,,,,,,,,,,,,,Y,167,circle,1,1,,,,,,,,,,,,,,,,repeat,letter,lettRpt,f,Lo,,,,,,0.5045,4,,,,,,,,high,30,0,30,0,1,,,,,,,,,
294241,2022-11-14_12h10.16.140,vts_reward_expectancy_bt,2022.2.4,Win32,59.76929054,Chrome,1500,1000,,,,,0,1365,,,,,,,,,,,,,,,,,D,174,hexagon,0,0,,,,,,,,,,,,,,,,switch,number,NA,j,Lo,,,,,,0.3061,4,,,,,,,,high,31,0,31,0,1,,,,,,,,,
294241,2022-11-14_12h10.16.140,vts_reward_expectancy_bt,2022.2.4,Win32,59.76929054,Chrome,1500,1000,,,,,0,1365,,,,,,,,,,,,,,,,,D,132,star,0,1,,,,,,,,,,,,,,,,repeat,number,NA,k,Lo,,,,,,0.3659,5,,,,,,space,1.3685,high,0,0,0,0,1,,,,,,,,,
294241,2022-11-14_12h10.16.140,vts_reward_expectancy_bt,2022.2.4,Win32,59.76929054,Chrome,1500,1000,,,,,1,1366,,,,,,,,,,,,,,,,,Y,174,triangle,1,1,,,,,,,,,,,,,,,,switch,letter,lettSwt,f,Lo,,,,,,0.4995,5,,,,,,,,high,1,0,1,0,1,,,,,,,,,
294241,2022-11-14_12h10.16.140,vts_reward_expectancy_bt,2022.2.4,Win32,59.76929054,Chrome,1500,1000,,,,,0,1366,,,,,,,,,,,,,,,,,F,167,hexagon,0,0,,,,,,,,,,,,,,,,switch,number,NA,j,Lo,,,,,,0.4692,5,,,,,,,,high,2,0,2,0,1,,,,,,,,,
294241,2022-11-14_12h10.16.140,vts_reward_expectancy_bt,2022.2.4,Win32,59.76929054,Chrome,1500,1000,,,,,1,1367,,,,,,,,,,,,,,,,,S,125,circle,1,1,,,,,,,,,,,,,,,,switch,letter,lettSwt,f,Lo,,,,,,0.5691,5,,,,,,,,high,3,0,3,0,1,,,,,,,,,
294241,2022-11-14_12h10.16.140,vts_reward_expectancy_bt,2022.2.4,Win32,59.76929054,Chrome,1500,1000,,,,,10,1377,,,,,,,,,,,,,,,,,U,139,star,1,0,,,,,,,,,,,,,,,,switch,number,numSwt,j,Hi,,,,,,0.3846,5,,,,,,,,high,4,0,4,0,1,,,,,,,,,
294241,2022-11-14_12h10.16.140,vts_reward_expectancy_bt,2022.2.4,Win32,59.76929054,Chrome,1500,1000,,,,,1,1378,,,,,,,,,,,,,,,,,B,160,triangle,1,0,,,,,,,,,,,,,,,,repeat,number,numRpt,k,Lo,,,,,,0.4696,5,,,,,,,,high,5,0,5,0,1,,,,,,,,,
294241,2022-11-14_12h10.16.140,vts_reward_expectancy_bt,2022.2.4,Win32,59.76929054,Chrome,1500,1000,,,,,10,1388,,,,,,,,,,,,,,,,,W,146,hexagon,1,0,,,,,,,,,,,,,,,,repeat,number,numRpt,j,Hi,,,,,,0.452,5,,,,,,,,high,6,0,6,0,1,,,,,,,,,
294241,2022-11-14_12h10.16.140,vts_reward_expectancy_bt,2022.2.4,Win32,59.76929054,Chrome,1500,1000,,,,,0,1388,,,,,,,,,,,,,,,,,H,181,circle,0,0,,,,,,,,,,,,,,,,switch,letter,NA,f,Hi,,,,,,0.6535,5,,,,,,,,high,7,0,7,0,1,,,,,,,,,
294241,2022-11-14_12h10.16.140,vts_reward_expectancy_bt,2022.2.4,Win32,59.76929054,Chrome,1500,1000,,,,,1,1389,,,,,,,,,,,,,,,,,D,132,circle,1,1,,,,,,,,,,,,,,,,repeat,letter,lettRpt,d,Lo,,,,,,0.5794,5,,,,,,,,high,8,0,8,0,1,,,,,,,,,
294241,2022-11-14_12h10.16.140,vts_reward_expectancy_bt,2022.2.4,Win32,59.76929054,Chrome,1500,1000,,,,,1,1390,,,,,,,,,,,,,,,,,Y,174,triangle,1,0,,,,,,,,,,,,,,,,repeat,letter,lettRpt,f,Lo,,,,,,0.5865,5,,,,,,,,high,9,0,9,0,1,,,,,,,,,
294241,2022-11-14_12h10.16.140,vts_reward_expectancy_bt,2022.2.4,Win32,59.76929054,Chrome,1500,1000,,,,,10,1400,,,,,,,,,,,,,,,,,F,167,star,1,0,,,,,,,,,,,,,,,,switch,number,numSwt,k,Hi,,,,,,0.4336,5,,,,,,,,high,10,0,10,0,1,,,,,,,,,
294241,2022-11-14_12h10.16.140,vts_reward_expectancy_bt,2022.2.4,Win32,59.76929054,Chrome,1500,1000,,,,,10,1410,,,,,,,,,,,,,,,,,S,125,hexagon,1,0,,,,,,,,,,,,,,,,repeat,number,numRpt,j,Hi,,,,,,0.3895,5,,,,,,,,high,11,0,11,0,1,,,,,,,,,
294241,2022-11-14_12h10.16.140,vts_reward_expectancy_bt,2022.2.4,Win32,59.76929054,Chrome,1500,1000,,,,,0,1410,,,,,,,,,,,,,,,,,U,139,hexagon,1,0,,,,,,,,,,,,,,,,repeat,number,numRpt,j,Hi,,,,,,0.6546,5,,,,,,,,high,12,0,12,0,1,,,,,,,,,
294241,2022-11-14_12h10.16.140,vts_reward_expectancy_bt,2022.2.4,Win32,59.76929054,Chrome,1500,1000,,,,,0,1410,,,,,,,,,,,,,,,,,B,160,circle,0,0,,,,,,,,,,,,,,,,switch,letter,NA,f,Hi,,,,,,1.4191,5,,,,,,,,high,13,0,13,0,1,,,,,,,,,
294241,2022-11-14_12h10.16.140,vts_reward_expectancy_bt,2022.2.4,Win32,59.76929054,Chrome,1500,1000,,,,,1,1411,,,,,,,,,,,,,,,,,W,146,triangle,1,1,,,,,,,,,,,,,,,,repeat,letter,lettRpt,f,Lo,,,,,,0.5657,5,,,,,,,,high,14,0,14,0,1,,,,,,,,,
294241,2022-11-14_12h10.16.140,vts_reward_expectancy_bt,2022.2.4,Win32,59.76929054,Chrome,1500,1000,,,,,0,1411,,,,,,,,,,,,,,,,,H,181,star,1,0,,,,,,,,,,,,,,,,switch,number,numSwt,k,Hi,,,,,,0.5334,5,,,,,,,,high,15,0,15,0,1,,,,,,,,,
294241,2022-11-14_12h10.16.140,vts_reward_expectancy_bt,2022.2.4,Win32,59.76929054,Chrome,1500,1000,,,,,0,1411,,,,,,,,,,,,,,,,,H,160,hexagon,1,0,,,,,,,,,,,,,,,,repeat,number,numRpt,k,Hi,,,,,,0.5324,5,,,,,,,,high,16,0,16,0,1,,,,,,,,,
294241,2022-11-14_12h10.16.140,vts_reward_expectancy_bt,2022.2.4,Win32,59.76929054,Chrome,1500,1000,,,,,0,1411,,,,,,,,,,,,,,,,,F,139,circle,0,0,,,,,,,,,,,,,,,,repeat,number,NA,k,Hi,,,,,,0.6206,5,,,,,,,,high,17,0,17,0,1,,,,,,,,,
294241,2022-11-14_12h10.16.140,vts_reward_expectancy_bt,2022.2.4,Win32,59.76929054,Chrome,1500,1000,,,,,1,1412,,,,,,,,,,,,,,,,,U,167,triangle,1,1,,,,,,,,,,,,,,,,switch,letter,lettSwt,f,Lo,,,,,,0.5667,5,,,,,,,,high,18,0,18,0,1,,,,,,,,,
294241,2022-11-14_12h10.16.140,vts_reward_expectancy_bt,2022.2.4,Win32,59.76929054,Chrome,1500,1000,,,,,10,1422,,,,,,,,,,,,,,,,,Y,146,star,1,0,,,,,,,,,,,,,,,,switch,number,numSwt,j,Hi,,,,,,0.4005,5,,,,,,,,high,19,0,19,0,1,,,,,,,,,
294241,2022-11-14_12h10.16.140,vts_reward_expectancy_bt,2022.2.4,Win32,59.76929054,Chrome,1500,1000,,,,,10,1432,,,,,,,,,,,,,,,,,W,132,star,1,0,,,,,,,,,,,,,,,,repeat,number,numRpt,j,Hi,,,,,,0.473,5,,,,,,,,high,20,0,20,0,1,,,,,,,,,
294241,2022-11-14_12h10.16.140,vts_reward_expectancy_bt,2022.2.4,Win32,59.76929054,Chrome,1500,1000,,,,,0,1432,,,,,,,,,,,,,,,,,S,174,hexagon,1,0,,,,,,,,,,,,,,,,repeat,number,numRpt,k,Hi,,,,,,0.6502,5,,,,,,,,high,21,0,21,0,1,,,,,,,,,
294241,2022-11-14_12h10.16.140,vts_reward_expectancy_bt,2022.2.4,Win32,59.76929054,Chrome,1500,1000,,,,,1,1433,,,,,,,,,,,,,,,,,D,125,triangle,1,0,,,,,,,,,,,,,,,,repeat,number,numRpt,j,Lo,,,,,,0.6343,5,,,,,,,,high,22,0,22,0,1,,,,,,,,,
294241,2022-11-14_12h10.16.140,vts_reward_expectancy_bt,2022.2.4,Win32,59.76929054,Chrome,1500,1000,,,,,10,1443,,,,,,,,,,,,,,,,,B,181,circle,1,0,,,,,,,,,,,,,,,,switch,letter,lettSwt,d,Lo,,,,,,0.453,5,,,,,,,,high,23,0,23,0,1,,,,,,,,,
294241,2022-11-14_12h10.16.140,vts_reward_expectancy_bt,2022.2.4,Win32,59.76929054,Chrome,1500,1000,,,,,10,1453,,,,,,,,,,,,,,,,,B,132,star,1,0,,,,,,,,,,,,,,,,switch,number,numSwt,j,Hi,,,,,,0.4281,5,,,,,,,,high,24,0,24,0,1,,,,,,,,,
294241,2022-11-14_12h10.16.140,vts_reward_expectancy_bt,2022.2.4,Win32,59.76929054,Chrome,1500,1000,,,,,1,1454,,,,,,,,,,,,,,,,,Y,139,triangle,1,0,,,,,,,,,,,,,,,,repeat,number,numRpt,j,Lo,,,,,,0.5633,5,,,,,,,,high,25,0,25,0,1,,,,,,,,,
294241,2022-11-14_12h10.16.140,vts_reward_expectancy_bt,2022.2.4,Win32,59.76929054,Chrome,1500,1000,,,,,0,1454,,,,,,,,,,,,,,,,,D,160,hexagon,1,0,,,,,,,,,,,,,,,,repeat,number,numRpt,k,Hi,,,,,,0.5603,5,,,,,,,,high,26,0,26,0,1,,,,,,,,,
294241,2022-11-14_12h10.16.140,vts_reward_expectancy_bt,2022.2.4,Win32,59.76929054,Chrome,1500,1000,,,,,10,1464,,,,,,,,,,,,,,,,,U,125,circle,1,0,,,,,,,,,,,,,,,,repeat,number,numRpt,j,Lo,,,,,,0.6457,5,,,,,,,,high,27,0,27,0,1,,,,,,,,,
294241,2022-11-14_12h10.16.140,vts_reward_expectancy_bt,2022.2.4,Win32,59.76929054,Chrome,1500,1000,,,,,1,1465,,,,,,,,,,,,,,,,,S,167,triangle,1,0,,,,,,,,,,,,,,,,repeat,number,numRpt,k,Lo,,,,,,0.5482,5,,,,,,,,high,28,0,28,0,1,,,,,,,,,
294241,2022-11-14_12h10.16.140,vts_reward_expectancy_bt,2022.2.4,Win32,59.76929054,Chrome,1500,1000,,,,,1,1466,,,,,,,,,,,,,,,,,F,181,circle,1,0,,,,,,,,,,,,,,,,repeat,number,numRpt,k,Lo,,,,,,0.4626,5,,,,,,,,high,29,0,29,0,1,,,,,,,,,
294241,2022-11-14_12h10.16.140,vts_reward_expectancy_bt,2022.2.4,Win32,59.76929054,Chrome,1500,1000,,,,,10,1476,,,,,,,,,,,,,,,,,W,174,star,1,0,,,,,,,,,,,,,,,,switch,letter,lettSwt,f,Hi,,,,,,0.4504,5,,,,,,,,high,30,0,30,0,1,,,,,,,,,
294241,2022-11-14_12h10.16.140,vts_reward_expectancy_bt,2022.2.4,Win32,59.76929054,Chrome,1500,1000,,,,,0,1476,,,,,,,,,,,,,,,,,H,146,hexagon,1,0,,,,,,,,,,,,,,,,repeat,letter,lettRpt,d,Hi,,,,,,0.815,5,,,,,,,,high,31,0,31,0,1,,,,,,,,,
294241,2022-11-14_12h10.16.140,vts_reward_expectancy_bt,2022.2.4,Win32,59.76929054,Chrome,1500,1000,,,,,0,1476,,,,,,,,,,,,,,,,,W,146,star,0,0,,,,,,,,,,,,,,,,switch,number,NA,k,Hi,,,,,,0.2831,6,,,,,,space,2.2951,high,0,0,0,0,1,,,,,,,,,
294241,2022-11-14_12h10.16.140,vts_reward_expectancy_bt,2022.2.4,Win32,59.76929054,Chrome,1500,1000,,,,,0,1476,,,,,,,,,,,,,,,,,S,160,hexagon,0,1,,,,,,,,,,,,,,,,repeat,number,NA,j,Hi,,,,,,0.2973,6,,,,,,,,high,1,0,1,0,1,,,,,,,,,
294241,2022-11-14_12h10.16.140,vts_reward_expectancy_bt,2022.2.4,Win32,59.76929054,Chrome,1500,1000,,,,,1,1477,,,,,,,,,,,,,,,,,B,181,circle,1,1,,,,,,,,,,,,,,,,repeat,number,numRpt,k,Lo,,,,,,0.2633,6,,,,,,,,high,2,0,2,0,1,,,,,,,,,
294241,2022-11-14_12h10.16.140,vts_reward_expectancy_bt,2022.2.4,Win32,59.76929054,Chrome,1500,1000,,,,,0,1477,,,,,,,,,,,,,,,,,Y,139,triangle,0,0,,,,,,,,,,,,,,,,repeat,number,NA,k,Lo,,,,,,0.2163,6,,,,,,,,high,3,0,3,0,1,,,,,,,,,
294241,2022-11-14_12h10.16.140,vts_reward_expectancy_bt,2022.2.4,Win32,59.76929054,Chrome,1500,1000,,,,,1,1478,,,,,,,,,,,,,,,,,U,174,star,1,1,,,,,,,,,,,,,,,,repeat,number,numRpt,k,Hi,,,,,,0.3476,6,,,,,,,,high,4,0,4,0,1,,,,,,,,,
294241,2022-11-14_12h10.16.140,vts_reward_expectancy_bt,2022.2.4,Win32,59.76929054,Chrome,1500,1000,,,,,0,1478,,,,,,,,,,,,,,,,,F,167,hexagon,0,0,,,,,,,,,,,,,,,,repeat,number,NA,j,Hi,,,,,,0.4464,6,,,,,,,,high,5,0,5,0,1,,,,,,,,,
294241,2022-11-14_12h10.16.140,vts_reward_expectancy_bt,2022.2.4,Win32,59.76929054,Chrome,1500,1000,,,,,1,1479,,,,,,,,,,,,,,,,,H,132,circle,1,1,,,,,,,,,,,,,,,,switch,letter,lettSwt,d,Lo,,,,,,0.4974,6,,,,,,,,high,6,0,6,0,1,,,,,,,,,
294241,2022-11-14_12h10.16.140,vts_reward_expectancy_bt,2022.2.4,Win32,59.76929054,Chrome,1500,1000,,,,,0,1479,,,,,,,,,,,,,,,,,D,125,triangle,0,0,,,,,,,,,,,,,,,,repeat,letter,NA,f,Lo,,,,,,0.5125,6,,,,,,,,high,7,0,7,0,1,,,,,,,,,
294241,2022-11-14_12h10.16.140,vts_reward_expectancy_bt,2022.2.4,Win32,59.76929054,Chrome,1500,1000,,,,,0,1479,,,,,,,,,,,,,,,,,W,146,triangle,0,1,,,,,,,,,,,,,,,,switch,number,NA,k,Lo,,,,,,0.2776,6,,,,,,,,high,8,0,8,0,1,,,,,,,,,
294241,2022-11-14_12h10.16.140,vts_reward_expectancy_bt,2022.2.4,Win32,59.76929054,Chrome,1500,1000,,,,,0,1479,,,,,,,,,,,,,,,,,S,160,circle,0,1,,,,,,,,,,,,,,,,repeat,number,NA,j,Lo,,,,,,0.5458,6,,,,,,,,high,9,0,9,0,1,,,,,,,,,
294241,2022-11-14_12h10.16.140,vts_reward_expectancy_bt,2022.2.4,Win32,59.76929054,Chrome,1500,1000,,,,,0,1479,,,,,,,,,,,,,,,,,B,181,hexagon,1,1,,,,,,,,,,,,,,,,repeat,number,numRpt,k,Hi,,,,,,0.6308,6,,,,,,,,high,10,0,10,0,1,,,,,,,,,
294241,2022-11-14_12h10.16.140,vts_reward_expectancy_bt,2022.2.4,Win32,59.76929054,Chrome,1500,1000,,,,,10,1489,,,,,,,,,,,,,,,,,Y,139,star,1,0,,,,,,,,,,,,,,,,repeat,number,numRpt,j,Hi,,,,,,0.4365,6,,,,,,,,high,11,0,11,0,1,,,,,,,,,
294241,2022-11-14_12h10.16.140,vts_reward_expectancy_bt,2022.2.4,Win32,59.76929054,Chrome,1500,1000,,,,,0,1489,,,,,,,,,,,,,,,,,U,174,hexagon,1,0,,,,,,,,,,,,,,,,repeat,number,numRpt,k,Hi,,,,,,0.4768,6,,,,,,,,high,12,0,12,0,1,,,,,,,,,
294241,2022-11-14_12h10.16.140,vts_reward_expectancy_bt,2022.2.4,Win32,59.76929054,Chrome,1500,1000,,,,,0,1489,,,,,,,,,,,,,,,,,F,167,star,1,0,,,,,,,,,,,,,,,,repeat,number,numRpt,k,Hi,,,,,,1.1292,6,,,,,,,,high,13,0,13,0,1,,,,,,,,,
