participant,date,expName,psychopyVersion,OS,frameRate,browser,xResolution,yResolution,key_resp.keys,key_resp.rt,training_resp.keys,training_resp.rt,points_trial,points_cumul,trainBlock,training.thisRepN,training.thisTrialN,training.thisN,training.thisIndex,training.ran,LTriangleOpac,LCircleOpac,LHexagonOpac,LStarOpac,RTriangleOpac,RCircleOpac,RHexagonOpac,RStarOpac,LShape_ID,RShape_ID,curr_topStim,curr_bottStim,curr_shape,acc,E1,target_resp_prac1.keys,target_resp_prac1.rt,pracBlock,task1_prac_trials.thisRepN,task1_prac_trials.thisTrialN,task1_prac_trials.thisN,task1_prac_trials.thisIndex,task1_prac_trials.ran,target_resp_prac2.keys,target_resp_prac2.rt,task2_praac_trials.thisRepN,task2_praac_trials.thisTrialN,task2_praac_trials.thisN,task2_praac_trials.thisIndex,task2_praac_trials.ran,alt,task,condition,target_resp.keys,target_resp.rt,rewCond,vts_practice_trials.thisRepN,vts_practice_trials.thisTrialN,vts_practice_trials.thisN,vts_practice_trials.thisIndex,vts_practice_trials.ran,blockNum,trials_norew.thisRepN,trials_norew.thisTrialN,trials_norew.thisN,trials_norew.thisIndex,trials_norew.ran,key_resp_2.keys,key_resp_2.rt,rewExpectancy,trials_rew.thisRepN,trials_rew.thisTrialN,trials_rew.thisN,trials_rew.thisIndex,trials_rew.ran,Q1,Q2,Q2_text,Q3,Q4,Q5_text,Q5,xRes,yRes
294292,2022-12-02_14h15.44.360,vts_reward_expectancy_bt,2022.2.4,MacIntel,60.04202942,Chrome,1440,900,,,,,,,,,,,,,,,,,,,,,,,,,,,,,,,,,,,,,,,,,,,,,,,,,,,,,,,,,,,,,,,,,,,,,,,,,,,,
294292,2022-12-02_14h15.44.360,vts_reward_expectancy_bt,2022.2.4,MacIntel,60.04202942,Chrome,1440,900,space,12.6928,,,,,,,,,,,,,,,,,,,,,,,,,,,,,,,,,,,,,,,,,,,,,,,,,,,,,,,,,,,,,,,,,,,,,,,,,,
294292,2022-12-02_14h15.44.360,vts_reward_expectancy_bt,2022.2.4,MacIntel,60.04202942,Chrome,1440,900,,,,,,,,,,,,,,,,,,,,,,,,,,,,,,,,,,,,,,,,,,,,,,,,,,,,,,,,,,,,,,,,,,,,,,,,,,,,
294292,2022-12-02_14h15.44.360,vts_reward_expectancy_bt,2022.2.4,MacIntel,60.04202942,Chrome,1440,900,,,a,0.7052,10,10,0,0,0,0,4,1,0,1,0,0,0,0,1,0,circle,hexagon,,,,,,,,,,,,,,,,,,,,,,,,,,,,,,,,,,,,,,,,,,,,,,,,,,,,,,
294292,2022-12-02_14h15.44.360,vts_reward_expectancy_bt,2022.2.4,MacIntel,60.04202942,Chrome,1440,900,,,a,0.4934,10,20,0,0,1,1,8,1,0,0,1,0,0,0,0,1,hexagon,star,,,,,,,,,,,,,,,,,,,,,,,,,,,,,,,,,,,,,,,,,,,,,,,,,,,,,,
294292,2022-12-02_14h15.44.360,vts_reward_expectancy_bt,2022.2.4,MacIntel,60.04202942,Chrome,1440,900,,,l,0.7468,1,21,0,0,2,2,3,1,0,1,0,0,1,0,0,0,circle,triangle,,,,,,,,,,,,,,,,,,,,,,,,,,,,,,,,,,,,,,,,,,,,,,,,,,,,,,
294292,2022-12-02_14h15.44.360,vts_reward_expectancy_bt,2022.2.4,MacIntel,60.04202942,Chrome,1440,900,,,l,0.718,10,31,0,0,3,3,0,1,1,0,0,0,0,1,0,0,triangle,circle,,,,,,,,,,,,,,,,,,,,,,,,,,,,,,,,,,,,,,,,,,,,,,,,,,,,,,
294292,2022-12-02_14h15.44.360,vts_reward_expectancy_bt,2022.2.4,MacIntel,60.04202942,Chrome,1440,900,,,l,0.5176,10,41,0,0,4,4,11,1,0,0,0,1,0,0,1,0,star,hexagon,,,,,,,,,,,,,,,,,,,,,,,,,,,,,,,,,,,,,,,,,,,,,,,,,,,,,,
294292,2022-12-02_14h15.44.360,vts_reward_expectancy_bt,2022.2.4,MacIntel,60.04202942,Chrome,1440,900,,,l,0.4855,10,51,0,0,5,5,10,1,0,0,0,1,0,1,0,0,star ,circle,,,,,,,,,,,,,,,,,,,,,,,,,,,,,,,,,,,,,,,,,,,,,,,,,,,,,,
294292,2022-12-02_14h15.44.360,vts_reward_expectancy_bt,2022.2.4,MacIntel,60.04202942,Chrome,1440,900,,,l,0.9671,10,61,0,0,6,6,1,1,1,0,0,0,0,0,1,0,triangle,hexagon,,,,,,,,,,,,,,,,,,,,,,,,,,,,,,,,,,,,,,,,,,,,,,,,,,,,,,
294292,2022-12-02_14h15.44.360,vts_reward_expectancy_bt,2022.2.4,MacIntel,60.04202942,Chrome,1440,900,,,a,0.7821,10,71,0,0,7,7,6,1,0,0,1,0,1,0,0,0,hexagon,triangle,,,,,,,,,,,,,,,,,,,,,,,,,,,,,,,,,,,,,,,,,,,,,,,,,,,,,,
294292,2022-12-02_14h15.44.360,vts_reward_expectancy_bt,2022.2.4,MacIntel,60.04202942,Chrome,1440,900,,,a,0.471,1,72,0,0,8,8,5,1,0,1,0,0,0,0,0,1,circle,star,,,,,,,,,,,,,,,,,,,,,,,,,,,,,,,,,,,,,,,,,,,,,,,,,,,,,,
294292,2022-12-02_14h15.44.360,vts_reward_expectancy_bt,2022.2.4,MacIntel,60.04202942,Chrome,1440,900,,,a,1.3125,1,73,0,0,9,9,2,1,1,0,0,0,0,0,0,1,triangle,star,,,,,,,,,,,,,,,,,,,,,,,,,,,,,,,,,,,,,,,,,,,,,,,,,,,,,,
294292,2022-12-02_14h15.44.360,vts_reward_expectancy_bt,2022.2.4,MacIntel,60.04202942,Chrome,1440,900,,,a,0.6174,1,74,0,0,10,10,9,1,0,0,0,1,1,0,0,0,star,triangle,,,,,,,,,,,,,,,,,,,,,,,,,,,,,,,,,,,,,,,,,,,,,,,,,,,,,,
294292,2022-12-02_14h15.44.360,vts_reward_expectancy_bt,2022.2.4,MacIntel,60.04202942,Chrome,1440,900,,,l,0.5499,1,75,0,0,11,11,7,1,0,0,1,0,0,1,0,0,hexagon,circle,,,,,,,,,,,,,,,,,,,,,,,,,,,,,,,,,,,,,,,,,,,,,,,,,,,,,,
294292,2022-12-02_14h15.44.360,vts_reward_expectancy_bt,2022.2.4,MacIntel,60.04202942,Chrome,1440,900,,,l,0.8067,10,85,0,1,0,12,0,1,1,0,0,0,0,1,0,0,triangle,circle,,,,,,,,,,,,,,,,,,,,,,,,,,,,,,,,,,,,,,,,,,,,,,,,,,,,,,
294292,2022-12-02_14h15.44.360,vts_reward_expectancy_bt,2022.2.4,MacIntel,60.04202942,Chrome,1440,900,,,a,0.8172,10,95,0,1,1,13,5,1,0,1,0,0,0,0,0,1,circle,star,,,,,,,,,,,,,,,,,,,,,,,,,,,,,,,,,,,,,,,,,,,,,,,,,,,,,,
294292,2022-12-02_14h15.44.360,vts_reward_expectancy_bt,2022.2.4,MacIntel,60.04202942,Chrome,1440,900,,,l,0.7669,10,105,0,1,2,14,7,1,0,0,1,0,0,1,0,0,hexagon,circle,,,,,,,,,,,,,,,,,,,,,,,,,,,,,,,,,,,,,,,,,,,,,,,,,,,,,,
294292,2022-12-02_14h15.44.360,vts_reward_expectancy_bt,2022.2.4,MacIntel,60.04202942,Chrome,1440,900,,,l,0.8179,1,106,0,1,3,15,11,1,0,0,0,1,0,0,1,0,star,hexagon,,,,,,,,,,,,,,,,,,,,,,,,,,,,,,,,,,,,,,,,,,,,,,,,,,,,,,
294292,2022-12-02_14h15.44.360,vts_reward_expectancy_bt,2022.2.4,MacIntel,60.04202942,Chrome,1440,900,,,l,0.636,10,116,0,1,4,16,10,1,0,0,0,1,0,1,0,0,star ,circle,,,,,,,,,,,,,,,,,,,,,,,,,,,,,,,,,,,,,,,,,,,,,,,,,,,,,,
294292,2022-12-02_14h15.44.360,vts_reward_expectancy_bt,2022.2.4,MacIntel,60.04202942,Chrome,1440,900,,,a,0.9899,10,126,0,1,5,17,3,1,0,1,0,0,1,0,0,0,circle,triangle,,,,,,,,,,,,,,,,,,,,,,,,,,,,,,,,,,,,,,,,,,,,,,,,,,,,,,
294292,2022-12-02_14h15.44.360,vts_reward_expectancy_bt,2022.2.4,MacIntel,60.04202942,Chrome,1440,900,,,l,1.0952,1,127,0,1,6,18,2,1,1,0,0,0,0,0,0,1,triangle,star,,,,,,,,,,,,,,,,,,,,,,,,,,,,,,,,,,,,,,,,,,,,,,,,,,,,,,
294292,2022-12-02_14h15.44.360,vts_reward_expectancy_bt,2022.2.4,MacIntel,60.04202942,Chrome,1440,900,,,l,0.9543,10,137,0,1,7,19,1,1,1,0,0,0,0,0,1,0,triangle,hexagon,,,,,,,,,,,,,,,,,,,,,,,,,,,,,,,,,,,,,,,,,,,,,,,,,,,,,,
294292,2022-12-02_14h15.44.360,vts_reward_expectancy_bt,2022.2.4,MacIntel,60.04202942,Chrome,1440,900,,,a,1.048,10,147,0,1,8,20,8,1,0,0,1,0,0,0,0,1,hexagon,star,,,,,,,,,,,,,,,,,,,,,,,,,,,,,,,,,,,,,,,,,,,,,,,,,,,,,,
294292,2022-12-02_14h15.44.360,vts_reward_expectancy_bt,2022.2.4,MacIntel,60.04202942,Chrome,1440,900,,,a,0.8674,1,148,0,1,9,21,6,1,0,0,1,0,1,0,0,0,hexagon,triangle,,,,,,,,,,,,,,,,,,,,,,,,,,,,,,,,,,,,,,,,,,,,,,,,,,,,,,
294292,2022-12-02_14h15.44.360,vts_reward_expectancy_bt,2022.2.4,MacIntel,60.04202942,Chrome,1440,900,,,l,1.0021,10,158,0,1,10,22,9,1,0,0,0,1,1,0,0,0,star,triangle,,,,,,,,,,,,,,,,,,,,,,,,,,,,,,,,,,,,,,,,,,,,,,,,,,,,,,
294292,2022-12-02_14h15.44.360,vts_reward_expectancy_bt,2022.2.4,MacIntel,60.04202942,Chrome,1440,900,,,a,0.5004,10,168,0,1,11,23,4,1,0,1,0,0,0,0,1,0,circle,hexagon,,,,,,,,,,,,,,,,,,,,,,,,,,,,,,,,,,,,,,,,,,,,,,,,,,,,,,
294292,2022-12-02_14h15.44.360,vts_reward_expectancy_bt,2022.2.4,MacIntel,60.04202942,Chrome,1440,900,,,a,0.6014,10,178,0,2,0,24,4,1,0,1,0,0,0,0,1,0,circle,hexagon,,,,,,,,,,,,,,,,,,,,,,,,,,,,,,,,,,,,,,,,,,,,,,,,,,,,,,
294292,2022-12-02_14h15.44.360,vts_reward_expectancy_bt,2022.2.4,MacIntel,60.04202942,Chrome,1440,900,,,a,0.4003,10,188,0,2,1,25,5,1,0,1,0,0,0,0,0,1,circle,star,,,,,,,,,,,,,,,,,,,,,,,,,,,,,,,,,,,,,,,,,,,,,,,,,,,,,,
294292,2022-12-02_14h15.44.360,vts_reward_expectancy_bt,2022.2.4,MacIntel,60.04202942,Chrome,1440,900,,,l,0.5758,1,189,0,2,2,26,10,1,0,0,0,1,0,1,0,0,star ,circle,,,,,,,,,,,,,,,,,,,,,,,,,,,,,,,,,,,,,,,,,,,,,,,,,,,,,,
294292,2022-12-02_14h15.44.360,vts_reward_expectancy_bt,2022.2.4,MacIntel,60.04202942,Chrome,1440,900,,,l,0.802,10,199,0,2,3,27,1,1,1,0,0,0,0,0,1,0,triangle,hexagon,,,,,,,,,,,,,,,,,,,,,,,,,,,,,,,,,,,,,,,,,,,,,,,,,,,,,,
294292,2022-12-02_14h15.44.360,vts_reward_expectancy_bt,2022.2.4,MacIntel,60.04202942,Chrome,1440,900,,,a,0.4049,1,200,0,2,4,28,2,1,1,0,0,0,0,0,0,1,triangle,star,,,,,,,,,,,,,,,,,,,,,,,,,,,,,,,,,,,,,,,,,,,,,,,,,,,,,,
294292,2022-12-02_14h15.44.360,vts_reward_expectancy_bt,2022.2.4,MacIntel,60.04202942,Chrome,1440,900,,,l,0.4543,10,210,0,2,5,29,7,1,0,0,1,0,0,1,0,0,hexagon,circle,,,,,,,,,,,,,,,,,,,,,,,,,,,,,,,,,,,,,,,,,,,,,,,,,,,,,,
294292,2022-12-02_14h15.44.360,vts_reward_expectancy_bt,2022.2.4,MacIntel,60.04202942,Chrome,1440,900,,,l,0.3972,10,220,0,2,6,30,0,1,1,0,0,0,0,1,0,0,triangle,circle,,,,,,,,,,,,,,,,,,,,,,,,,,,,,,,,,,,,,,,,,,,,,,,,,,,,,,
294292,2022-12-02_14h15.44.360,vts_reward_expectancy_bt,2022.2.4,MacIntel,60.04202942,Chrome,1440,900,,,a,0.4045,10,230,0,2,7,31,3,1,0,1,0,0,1,0,0,0,circle,triangle,,,,,,,,,,,,,,,,,,,,,,,,,,,,,,,,,,,,,,,,,,,,,,,,,,,,,,
294292,2022-12-02_14h15.44.360,vts_reward_expectancy_bt,2022.2.4,MacIntel,60.04202942,Chrome,1440,900,,,l,0.4181,1,231,0,2,8,32,11,1,0,0,0,1,0,0,1,0,star,hexagon,,,,,,,,,,,,,,,,,,,,,,,,,,,,,,,,,,,,,,,,,,,,,,,,,,,,,,
294292,2022-12-02_14h15.44.360,vts_reward_expectancy_bt,2022.2.4,MacIntel,60.04202942,Chrome,1440,900,,,l,0.4669,1,232,0,2,9,33,9,1,0,0,0,1,1,0,0,0,star,triangle,,,,,,,,,,,,,,,,,,,,,,,,,,,,,,,,,,,,,,,,,,,,,,,,,,,,,,
294292,2022-12-02_14h15.44.360,vts_reward_expectancy_bt,2022.2.4,MacIntel,60.04202942,Chrome,1440,900,,,a,0.3996,10,242,0,2,10,34,8,1,0,0,1,0,0,0,0,1,hexagon,star,,,,,,,,,,,,,,,,,,,,,,,,,,,,,,,,,,,,,,,,,,,,,,,,,,,,,,
294292,2022-12-02_14h15.44.360,vts_reward_expectancy_bt,2022.2.4,MacIntel,60.04202942,Chrome,1440,900,,,a,0.5849,1,243,0,2,11,35,6,1,0,0,1,0,1,0,0,0,hexagon,triangle,,,,,,,,,,,,,,,,,,,,,,,,,,,,,,,,,,,,,,,,,,,,,,,,,,,,,,
294292,2022-12-02_14h15.44.360,vts_reward_expectancy_bt,2022.2.4,MacIntel,60.04202942,Chrome,1440,900,,,a,0.5344,10,253,1,0,0,0,5,1,0,1,0,0,0,0,0,1,circle,star,,,,,,,,,,,,,,,,,,,,,,,,,,,,,,,,,,,,,,,,,,,,,,,,,,,,,,
294292,2022-12-02_14h15.44.360,vts_reward_expectancy_bt,2022.2.4,MacIntel,60.04202942,Chrome,1440,900,,,a,0.3379,10,263,1,0,1,1,4,1,0,1,0,0,0,0,1,0,circle,hexagon,,,,,,,,,,,,,,,,,,,,,,,,,,,,,,,,,,,,,,,,,,,,,,,,,,,,,,
294292,2022-12-02_14h15.44.360,vts_reward_expectancy_bt,2022.2.4,MacIntel,60.04202942,Chrome,1440,900,,,l,0.4383,1,264,1,0,2,2,0,1,1,0,0,0,0,1,0,0,triangle,circle,,,,,,,,,,,,,,,,,,,,,,,,,,,,,,,,,,,,,,,,,,,,,,,,,,,,,,
294292,2022-12-02_14h15.44.360,vts_reward_expectancy_bt,2022.2.4,MacIntel,60.04202942,Chrome,1440,900,,,l,0.5615,1,265,1,0,3,3,7,1,0,0,1,0,0,1,0,0,hexagon,circle,,,,,,,,,,,,,,,,,,,,,,,,,,,,,,,,,,,,,,,,,,,,,,,,,,,,,,
294292,2022-12-02_14h15.44.360,vts_reward_expectancy_bt,2022.2.4,MacIntel,60.04202942,Chrome,1440,900,,,l,0.4215,1,266,1,0,4,4,11,1,0,0,0,1,0,0,1,0,star,hexagon,,,,,,,,,,,,,,,,,,,,,,,,,,,,,,,,,,,,,,,,,,,,,,,,,,,,,,
294292,2022-12-02_14h15.44.360,vts_reward_expectancy_bt,2022.2.4,MacIntel,60.04202942,Chrome,1440,900,,,a,0.3526,1,267,1,0,5,5,1,1,1,0,0,0,0,0,1,0,triangle,hexagon,,,,,,,,,,,,,,,,,,,,,,,,,,,,,,,,,,,,,,,,,,,,,,,,,,,,,,
294292,2022-12-02_14h15.44.360,vts_reward_expectancy_bt,2022.2.4,MacIntel,60.04202942,Chrome,1440,900,,,l,0.4983,1,268,1,0,6,6,9,1,0,0,0,1,1,0,0,0,star,triangle,,,,,,,,,,,,,,,,,,,,,,,,,,,,,,,,,,,,,,,,,,,,,,,,,,,,,,
294292,2022-12-02_14h15.44.360,vts_reward_expectancy_bt,2022.2.4,MacIntel,60.04202942,Chrome,1440,900,,,l,0.5383,10,278,1,0,7,7,8,1,0,0,1,0,0,0,0,1,hexagon,star,,,,,,,,,,,,,,,,,,,,,,,,,,,,,,,,,,,,,,,,,,,,,,,,,,,,,,
294292,2022-12-02_14h15.44.360,vts_reward_expectancy_bt,2022.2.4,MacIntel,60.04202942,Chrome,1440,900,,,a,0.8498,1,279,1,0,8,8,6,1,0,0,1,0,1,0,0,0,hexagon,triangle,,,,,,,,,,,,,,,,,,,,,,,,,,,,,,,,,,,,,,,,,,,,,,,,,,,,,,
294292,2022-12-02_14h15.44.360,vts_reward_expectancy_bt,2022.2.4,MacIntel,60.04202942,Chrome,1440,900,,,a,0.4563,1,280,1,0,9,9,10,1,0,0,0,1,0,1,0,0,star ,circle,,,,,,,,,,,,,,,,,,,,,,,,,,,,,,,,,,,,,,,,,,,,,,,,,,,,,,
294292,2022-12-02_14h15.44.360,vts_reward_expectancy_bt,2022.2.4,MacIntel,60.04202942,Chrome,1440,900,,,l,0.424,1,281,1,0,10,10,3,1,0,1,0,0,1,0,0,0,circle,triangle,,,,,,,,,,,,,,,,,,,,,,,,,,,,,,,,,,,,,,,,,,,,,,,,,,,,,,
294292,2022-12-02_14h15.44.360,vts_reward_expectancy_bt,2022.2.4,MacIntel,60.04202942,Chrome,1440,900,,,l,0.6926,10,291,1,0,11,11,2,1,1,0,0,0,0,0,0,1,triangle,star,,,,,,,,,,,,,,,,,,,,,,,,,,,,,,,,,,,,,,,,,,,,,,,,,,,,,,
294292,2022-12-02_14h15.44.360,vts_reward_expectancy_bt,2022.2.4,MacIntel,60.04202942,Chrome,1440,900,,,l,0.4137,1,292,1,1,0,12,2,1,1,0,0,0,0,0,0,1,triangle,star,,,,,,,,,,,,,,,,,,,,,,,,,,,,,,,,,,,,,,,,,,,,,,,,,,,,,,
294292,2022-12-02_14h15.44.360,vts_reward_expectancy_bt,2022.2.4,MacIntel,60.04202942,Chrome,1440,900,,,a,1.0792,10,302,1,1,1,13,3,1,0,1,0,0,1,0,0,0,circle,triangle,,,,,,,,,,,,,,,,,,,,,,,,,,,,,,,,,,,,,,,,,,,,,,,,,,,,,,
294292,2022-12-02_14h15.44.360,vts_reward_expectancy_bt,2022.2.4,MacIntel,60.04202942,Chrome,1440,900,,,a,0.9344,1,303,1,1,2,14,11,1,0,0,0,1,0,0,1,0,star,hexagon,,,,,,,,,,,,,,,,,,,,,,,,,,,,,,,,,,,,,,,,,,,,,,,,,,,,,,
294292,2022-12-02_14h15.44.360,vts_reward_expectancy_bt,2022.2.4,MacIntel,60.04202942,Chrome,1440,900,,,l,0.8494,1,304,1,1,3,15,0,1,1,0,0,0,0,1,0,0,triangle,circle,,,,,,,,,,,,,,,,,,,,,,,,,,,,,,,,,,,,,,,,,,,,,,,,,,,,,,
294292,2022-12-02_14h15.44.360,vts_reward_expectancy_bt,2022.2.4,MacIntel,60.04202942,Chrome,1440,900,,,l,0.5006,1,305,1,1,4,16,9,1,0,0,0,1,1,0,0,0,star,triangle,,,,,,,,,,,,,,,,,,,,,,,,,,,,,,,,,,,,,,,,,,,,,,,,,,,,,,
294292,2022-12-02_14h15.44.360,vts_reward_expectancy_bt,2022.2.4,MacIntel,60.04202942,Chrome,1440,900,,,a,0.3553,10,315,1,1,5,17,8,1,0,0,1,0,0,0,0,1,hexagon,star,,,,,,,,,,,,,,,,,,,,,,,,,,,,,,,,,,,,,,,,,,,,,,,,,,,,,,
294292,2022-12-02_14h15.44.360,vts_reward_expectancy_bt,2022.2.4,MacIntel,60.04202942,Chrome,1440,900,,,l,0.4709,10,325,1,1,6,18,10,1,0,0,0,1,0,1,0,0,star ,circle,,,,,,,,,,,,,,,,,,,,,,,,,,,,,,,,,,,,,,,,,,,,,,,,,,,,,,
294292,2022-12-02_14h15.44.360,vts_reward_expectancy_bt,2022.2.4,MacIntel,60.04202942,Chrome,1440,900,,,a,0.4392,10,335,1,1,7,19,6,1,0,0,1,0,1,0,0,0,hexagon,triangle,,,,,,,,,,,,,,,,,,,,,,,,,,,,,,,,,,,,,,,,,,,,,,,,,,,,,,
294292,2022-12-02_14h15.44.360,vts_reward_expectancy_bt,2022.2.4,MacIntel,60.04202942,Chrome,1440,900,,,a,0.3843,1,336,1,1,8,20,5,1,0,1,0,0,0,0,0,1,circle,star,,,,,,,,,,,,,,,,,,,,,,,,,,,,,,,,,,,,,,,,,,,,,,,,,,,,,,
294292,2022-12-02_14h15.44.360,vts_reward_expectancy_bt,2022.2.4,MacIntel,60.04202942,Chrome,1440,900,,,a,0.3268,10,346,1,1,9,21,4,1,0,1,0,0,0,0,1,0,circle,hexagon,,,,,,,,,,,,,,,,,,,,,,,,,,,,,,,,,,,,,,,,,,,,,,,,,,,,,,
294292,2022-12-02_14h15.44.360,vts_reward_expectancy_bt,2022.2.4,MacIntel,60.04202942,Chrome,1440,900,,,l,0.5545,10,356,1,1,10,22,7,1,0,0,1,0,0,1,0,0,hexagon,circle,,,,,,,,,,,,,,,,,,,,,,,,,,,,,,,,,,,,,,,,,,,,,,,,,,,,,,
294292,2022-12-02_14h15.44.360,vts_reward_expectancy_bt,2022.2.4,MacIntel,60.04202942,Chrome,1440,900,,,a,0.2889,10,366,1,1,11,23,1,1,1,0,0,0,0,0,1,0,triangle,hexagon,,,,,,,,,,,,,,,,,,,,,,,,,,,,,,,,,,,,,,,,,,,,,,,,,,,,,,
294292,2022-12-02_14h15.44.360,vts_reward_expectancy_bt,2022.2.4,MacIntel,60.04202942,Chrome,1440,900,,,l,0.2853,1,367,1,2,0,24,9,1,0,0,0,1,1,0,0,0,star,triangle,,,,,,,,,,,,,,,,,,,,,,,,,,,,,,,,,,,,,,,,,,,,,,,,,,,,,,
294292,2022-12-02_14h15.44.360,vts_reward_expectancy_bt,2022.2.4,MacIntel,60.04202942,Chrome,1440,900,,,a,0.2916,10,377,1,2,1,25,4,1,0,1,0,0,0,0,1,0,circle,hexagon,,,,,,,,,,,,,,,,,,,,,,,,,,,,,,,,,,,,,,,,,,,,,,,,,,,,,,
294292,2022-12-02_14h15.44.360,vts_reward_expectancy_bt,2022.2.4,MacIntel,60.04202942,Chrome,1440,900,,,a,0.3796,10,387,1,2,2,26,10,1,0,0,0,1,0,1,0,0,star ,circle,,,,,,,,,,,,,,,,,,,,,,,,,,,,,,,,,,,,,,,,,,,,,,,,,,,,,,
294292,2022-12-02_14h15.44.360,vts_reward_expectancy_bt,2022.2.4,MacIntel,60.04202942,Chrome,1440,900,,,a,0.324,1,388,1,2,3,27,2,1,1,0,0,0,0,0,0,1,triangle,star,,,,,,,,,,,,,,,,,,,,,,,,,,,,,,,,,,,,,,,,,,,,,,,,,,,,,,
294292,2022-12-02_14h15.44.360,vts_reward_expectancy_bt,2022.2.4,MacIntel,60.04202942,Chrome,1440,900,,,l,0.5767,10,398,1,2,4,28,11,1,0,0,0,1,0,0,1,0,star,hexagon,,,,,,,,,,,,,,,,,,,,,,,,,,,,,,,,,,,,,,,,,,,,,,,,,,,,,,
294292,2022-12-02_14h15.44.360,vts_reward_expectancy_bt,2022.2.4,MacIntel,60.04202942,Chrome,1440,900,,,a,0.5191,1,399,1,2,5,29,8,1,0,0,1,0,0,0,0,1,hexagon,star,,,,,,,,,,,,,,,,,,,,,,,,,,,,,,,,,,,,,,,,,,,,,,,,,,,,,,
294292,2022-12-02_14h15.44.360,vts_reward_expectancy_bt,2022.2.4,MacIntel,60.04202942,Chrome,1440,900,,,l,0.3669,10,409,1,2,6,30,3,1,0,1,0,0,1,0,0,0,circle,triangle,,,,,,,,,,,,,,,,,,,,,,,,,,,,,,,,,,,,,,,,,,,,,,,,,,,,,,
294292,2022-12-02_14h15.44.360,vts_reward_expectancy_bt,2022.2.4,MacIntel,60.04202942,Chrome,1440,900,,,a,0.5354,1,410,1,2,7,31,5,1,0,1,0,0,0,0,0,1,circle,star,,,,,,,,,,,,,,,,,,,,,,,,,,,,,,,,,,,,,,,,,,,,,,,,,,,,,,
294292,2022-12-02_14h15.44.360,vts_reward_expectancy_bt,2022.2.4,MacIntel,60.04202942,Chrome,1440,900,,,l,0.3478,1,411,1,2,8,32,0,1,1,0,0,0,0,1,0,0,triangle,circle,,,,,,,,,,,,,,,,,,,,,,,,,,,,,,,,,,,,,,,,,,,,,,,,,,,,,,
294292,2022-12-02_14h15.44.360,vts_reward_expectancy_bt,2022.2.4,MacIntel,60.04202942,Chrome,1440,900,,,a,0.3114,10,421,1,2,9,33,7,1,0,0,1,0,0,1,0,0,hexagon,circle,,,,,,,,,,,,,,,,,,,,,,,,,,,,,,,,,,,,,,,,,,,,,,,,,,,,,,
294292,2022-12-02_14h15.44.360,vts_reward_expectancy_bt,2022.2.4,MacIntel,60.04202942,Chrome,1440,900,,,l,0.5921,10,431,1,2,10,34,1,1,1,0,0,0,0,0,1,0,triangle,hexagon,,,,,,,,,,,,,,,,,,,,,,,,,,,,,,,,,,,,,,,,,,,,,,,,,,,,,,
294292,2022-12-02_14h15.44.360,vts_reward_expectancy_bt,2022.2.4,MacIntel,60.04202942,Chrome,1440,900,,,a,0.3083,1,432,1,2,11,35,6,1,0,0,1,0,1,0,0,0,hexagon,triangle,,,,,,,,,,,,,,,,,,,,,,,,,,,,,,,,,,,,,,,,,,,,,,,,,,,,,,
294292,2022-12-02_14h15.44.360,vts_reward_expectancy_bt,2022.2.4,MacIntel,60.04202942,Chrome,1440,900,,,a,1.5599,10,442,2,0,0,0,6,1,0,0,1,0,1,0,0,0,hexagon,triangle,,,,,,,,,,,,,,,,,,,,,,,,,,,,,,,,,,,,,,,,,,,,,,,,,,,,,,
294292,2022-12-02_14h15.44.360,vts_reward_expectancy_bt,2022.2.4,MacIntel,60.04202942,Chrome,1440,900,,,l,0.3548,10,452,2,0,1,1,1,1,1,0,0,0,0,0,1,0,triangle,hexagon,,,,,,,,,,,,,,,,,,,,,,,,,,,,,,,,,,,,,,,,,,,,,,,,,,,,,,
294292,2022-12-02_14h15.44.360,vts_reward_expectancy_bt,2022.2.4,MacIntel,60.04202942,Chrome,1440,900,,,a,0.3117,10,462,2,0,2,2,0,1,1,0,0,0,0,1,0,0,triangle,circle,,,,,,,,,,,,,,,,,,,,,,,,,,,,,,,,,,,,,,,,,,,,,,,,,,,,,,
294292,2022-12-02_14h15.44.360,vts_reward_expectancy_bt,2022.2.4,MacIntel,60.04202942,Chrome,1440,900,,,l,0.2023,1,463,2,0,3,3,11,1,0,0,0,1,0,0,1,0,star,hexagon,,,,,,,,,,,,,,,,,,,,,,,,,,,,,,,,,,,,,,,,,,,,,,,,,,,,,,
294292,2022-12-02_14h15.44.360,vts_reward_expectancy_bt,2022.2.4,MacIntel,60.04202942,Chrome,1440,900,,,a,0.2412,1,464,2,0,4,4,4,1,0,1,0,0,0,0,1,0,circle,hexagon,,,,,,,,,,,,,,,,,,,,,,,,,,,,,,,,,,,,,,,,,,,,,,,,,,,,,,
294292,2022-12-02_14h15.44.360,vts_reward_expectancy_bt,2022.2.4,MacIntel,60.04202942,Chrome,1440,900,,,l,0.2698,10,474,2,0,5,5,9,1,0,0,0,1,1,0,0,0,star,triangle,,,,,,,,,,,,,,,,,,,,,,,,,,,,,,,,,,,,,,,,,,,,,,,,,,,,,,
294292,2022-12-02_14h15.44.360,vts_reward_expectancy_bt,2022.2.4,MacIntel,60.04202942,Chrome,1440,900,,,a,0.3281,1,475,2,0,6,6,8,1,0,0,1,0,0,0,0,1,hexagon,star,,,,,,,,,,,,,,,,,,,,,,,,,,,,,,,,,,,,,,,,,,,,,,,,,,,,,,
294292,2022-12-02_14h15.44.360,vts_reward_expectancy_bt,2022.2.4,MacIntel,60.04202942,Chrome,1440,900,,,l,0.3041,1,476,2,0,7,7,3,1,0,1,0,0,1,0,0,0,circle,triangle,,,,,,,,,,,,,,,,,,,,,,,,,,,,,,,,,,,,,,,,,,,,,,,,,,,,,,
294292,2022-12-02_14h15.44.360,vts_reward_expectancy_bt,2022.2.4,MacIntel,60.04202942,Chrome,1440,900,,,a,0.2591,10,486,2,0,8,8,2,1,1,0,0,0,0,0,0,1,triangle,star,,,,,,,,,,,,,,,,,,,,,,,,,,,,,,,,,,,,,,,,,,,,,,,,,,,,,,
294292,2022-12-02_14h15.44.360,vts_reward_expectancy_bt,2022.2.4,MacIntel,60.04202942,Chrome,1440,900,,,a,0.3227,10,496,2,0,9,9,7,1,0,0,1,0,0,1,0,0,hexagon,circle,,,,,,,,,,,,,,,,,,,,,,,,,,,,,,,,,,,,,,,,,,,,,,,,,,,,,,
294292,2022-12-02_14h15.44.360,vts_reward_expectancy_bt,2022.2.4,MacIntel,60.04202942,Chrome,1440,900,,,l,0.2997,10,506,2,0,10,10,10,1,0,0,0,1,0,1,0,0,star ,circle,,,,,,,,,,,,,,,,,,,,,,,,,,,,,,,,,,,,,,,,,,,,,,,,,,,,,,
294292,2022-12-02_14h15.44.360,vts_reward_expectancy_bt,2022.2.4,MacIntel,60.04202942,Chrome,1440,900,,,a,0.2384,1,507,2,0,11,11,5,1,0,1,0,0,0,0,0,1,circle,star,,,,,,,,,,,,,,,,,,,,,,,,,,,,,,,,,,,,,,,,,,,,,,,,,,,,,,
294292,2022-12-02_14h15.44.360,vts_reward_expectancy_bt,2022.2.4,MacIntel,60.04202942,Chrome,1440,900,,,l,0.3163,1,508,2,1,0,12,6,1,0,0,1,0,1,0,0,0,hexagon,triangle,,,,,,,,,,,,,,,,,,,,,,,,,,,,,,,,,,,,,,,,,,,,,,,,,,,,,,
294292,2022-12-02_14h15.44.360,vts_reward_expectancy_bt,2022.2.4,MacIntel,60.04202942,Chrome,1440,900,,,a,0.2686,1,509,2,1,1,13,11,1,0,0,0,1,0,0,1,0,star,hexagon,,,,,,,,,,,,,,,,,,,,,,,,,,,,,,,,,,,,,,,,,,,,,,,,,,,,,,
294292,2022-12-02_14h15.44.360,vts_reward_expectancy_bt,2022.2.4,MacIntel,60.04202942,Chrome,1440,900,,,l,0.2949,1,510,2,1,2,14,3,1,0,1,0,0,1,0,0,0,circle,triangle,,,,,,,,,,,,,,,,,,,,,,,,,,,,,,,,,,,,,,,,,,,,,,,,,,,,,,
294292,2022-12-02_14h15.44.360,vts_reward_expectancy_bt,2022.2.4,MacIntel,60.04202942,Chrome,1440,900,,,a,0.2367,10,520,2,1,3,15,2,1,1,0,0,0,0,0,0,1,triangle,star,,,,,,,,,,,,,,,,,,,,,,,,,,,,,,,,,,,,,,,,,,,,,,,,,,,,,,
294292,2022-12-02_14h15.44.360,vts_reward_expectancy_bt,2022.2.4,MacIntel,60.04202942,Chrome,1440,900,,,a,0.3079,10,530,2,1,4,16,10,1,0,0,0,1,0,1,0,0,star ,circle,,,,,,,,,,,,,,,,,,,,,,,,,,,,,,,,,,,,,,,,,,,,,,,,,,,,,,
294292,2022-12-02_14h15.44.360,vts_reward_expectancy_bt,2022.2.4,MacIntel,60.04202942,Chrome,1440,900,,,a,0.3981,1,531,2,1,5,17,1,1,1,0,0,0,0,0,1,0,triangle,hexagon,,,,,,,,,,,,,,,,,,,,,,,,,,,,,,,,,,,,,,,,,,,,,,,,,,,,,,
294292,2022-12-02_14h15.44.360,vts_reward_expectancy_bt,2022.2.4,MacIntel,60.04202942,Chrome,1440,900,,,a,0.2829,1,532,2,1,6,18,5,1,0,1,0,0,0,0,0,1,circle,star,,,,,,,,,,,,,,,,,,,,,,,,,,,,,,,,,,,,,,,,,,,,,,,,,,,,,,
294292,2022-12-02_14h15.44.360,vts_reward_expectancy_bt,2022.2.4,MacIntel,60.04202942,Chrome,1440,900,,,a,0.3094,10,542,2,1,7,19,0,1,1,0,0,0,0,1,0,0,triangle,circle,,,,,,,,,,,,,,,,,,,,,,,,,,,,,,,,,,,,,,,,,,,,,,,,,,,,,,
294292,2022-12-02_14h15.44.360,vts_reward_expectancy_bt,2022.2.4,MacIntel,60.04202942,Chrome,1440,900,,,l,0.4498,1,543,2,1,8,20,9,1,0,0,0,1,1,0,0,0,star,triangle,,,,,,,,,,,,,,,,,,,,,,,,,,,,,,,,,,,,,,,,,,,,,,,,,,,,,,
294292,2022-12-02_14h15.44.360,vts_reward_expectancy_bt,2022.2.4,MacIntel,60.04202942,Chrome,1440,900,,,a,0.3042,1,544,2,1,9,21,8,1,0,0,1,0,0,0,0,1,hexagon,star,,,,,,,,,,,,,,,,,,,,,,,,,,,,,,,,,,,,,,,,,,,,,,,,,,,,,,
294292,2022-12-02_14h15.44.360,vts_reward_expectancy_bt,2022.2.4,MacIntel,60.04202942,Chrome,1440,900,,,l,0.3492,1,545,2,1,10,22,7,1,0,0,1,0,0,1,0,0,hexagon,circle,,,,,,,,,,,,,,,,,,,,,,,,,,,,,,,,,,,,,,,,,,,,,,,,,,,,,,
294292,2022-12-02_14h15.44.360,vts_reward_expectancy_bt,2022.2.4,MacIntel,60.04202942,Chrome,1440,900,,,a,0.3164,10,555,2,1,11,23,4,1,0,1,0,0,0,0,1,0,circle,hexagon,,,,,,,,,,,,,,,,,,,,,,,,,,,,,,,,,,,,,,,,,,,,,,,,,,,,,,
294292,2022-12-02_14h15.44.360,vts_reward_expectancy_bt,2022.2.4,MacIntel,60.04202942,Chrome,1440,900,,,a,0.3243,10,565,2,2,0,24,1,1,1,0,0,0,0,0,1,0,triangle,hexagon,,,,,,,,,,,,,,,,,,,,,,,,,,,,,,,,,,,,,,,,,,,,,,,,,,,,,,
294292,2022-12-02_14h15.44.360,vts_reward_expectancy_bt,2022.2.4,MacIntel,60.04202942,Chrome,1440,900,,,a,0.5029,1,566,2,2,1,25,6,1,0,0,1,0,1,0,0,0,hexagon,triangle,,,,,,,,,,,,,,,,,,,,,,,,,,,,,,,,,,,,,,,,,,,,,,,,,,,,,,
294292,2022-12-02_14h15.44.360,vts_reward_expectancy_bt,2022.2.4,MacIntel,60.04202942,Chrome,1440,900,,,l,0.2475,10,576,2,2,2,26,5,1,0,1,0,0,0,0,0,1,circle,star,,,,,,,,,,,,,,,,,,,,,,,,,,,,,,,,,,,,,,,,,,,,,,,,,,,,,,
294292,2022-12-02_14h15.44.360,vts_reward_expectancy_bt,2022.2.4,MacIntel,60.04202942,Chrome,1440,900,,,l,0.2639,1,577,2,2,3,27,7,1,0,0,1,0,0,1,0,0,hexagon,circle,,,,,,,,,,,,,,,,,,,,,,,,,,,,,,,,,,,,,,,,,,,,,,,,,,,,,,
294292,2022-12-02_14h15.44.360,vts_reward_expectancy_bt,2022.2.4,MacIntel,60.04202942,Chrome,1440,900,,,a,0.0833,1,578,2,2,4,28,10,1,0,0,0,1,0,1,0,0,star ,circle,,,,,,,,,,,,,,,,,,,,,,,,,,,,,,,,,,,,,,,,,,,,,,,,,,,,,,
294292,2022-12-02_14h15.44.360,vts_reward_expectancy_bt,2022.2.4,MacIntel,60.04202942,Chrome,1440,900,,,l,0.3098,10,588,2,2,5,29,9,1,0,0,0,1,1,0,0,0,star,triangle,,,,,,,,,,,,,,,,,,,,,,,,,,,,,,,,,,,,,,,,,,,,,,,,,,,,,,
294292,2022-12-02_14h15.44.360,vts_reward_expectancy_bt,2022.2.4,MacIntel,60.04202942,Chrome,1440,900,,,a,0.3531,10,598,2,2,6,30,8,1,0,0,1,0,0,0,0,1,hexagon,star,,,,,,,,,,,,,,,,,,,,,,,,,,,,,,,,,,,,,,,,,,,,,,,,,,,,,,
294292,2022-12-02_14h15.44.360,vts_reward_expectancy_bt,2022.2.4,MacIntel,60.04202942,Chrome,1440,900,,,a,0.3486,10,608,2,2,7,31,4,1,0,1,0,0,0,0,1,0,circle,hexagon,,,,,,,,,,,,,,,,,,,,,,,,,,,,,,,,,,,,,,,,,,,,,,,,,,,,,,
294292,2022-12-02_14h15.44.360,vts_reward_expectancy_bt,2022.2.4,MacIntel,60.04202942,Chrome,1440,900,,,a,0.3131,1,609,2,2,8,32,2,1,1,0,0,0,0,0,0,1,triangle,star,,,,,,,,,,,,,,,,,,,,,,,,,,,,,,,,,,,,,,,,,,,,,,,,,,,,,,
294292,2022-12-02_14h15.44.360,vts_reward_expectancy_bt,2022.2.4,MacIntel,60.04202942,Chrome,1440,900,,,a,0.3028,1,610,2,2,9,33,11,1,0,0,0,1,0,0,1,0,star,hexagon,,,,,,,,,,,,,,,,,,,,,,,,,,,,,,,,,,,,,,,,,,,,,,,,,,,,,,
294292,2022-12-02_14h15.44.360,vts_reward_expectancy_bt,2022.2.4,MacIntel,60.04202942,Chrome,1440,900,,,a,0.3859,10,620,2,2,10,34,3,1,0,1,0,0,1,0,0,0,circle,triangle,,,,,,,,,,,,,,,,,,,,,,,,,,,,,,,,,,,,,,,,,,,,,,,,,,,,,,
294292,2022-12-02_14h15.44.360,vts_reward_expectancy_bt,2022.2.4,MacIntel,60.04202942,Chrome,1440,900,,,a,0.3102,10,630,2,2,11,35,0,1,1,0,0,0,0,1,0,0,triangle,circle,,,,,,,,,,,,,,,,,,,,,,,,,,,,,,,,,,,,,,,,,,,,,,,,,,,,,,
294292,2022-12-02_14h15.44.360,vts_reward_expectancy_bt,2022.2.4,MacIntel,60.04202942,Chrome,1440,900,,,,,,,,,,,,,,,,,,,,,,,Y,160,triangle,1,0,f,2.1218,0,0,0,0,0,1,,,,,,,,,,,,,,,,,,,,,,,,,,,,,,,,,,,,,,,,,
294292,2022-12-02_14h15.44.360,vts_reward_expectancy_bt,2022.2.4,MacIntel,60.04202942,Chrome,1440,900,,,,,,,,,,,,,,,,,,,,,,,U,146,hexagon,1,0,f,0.6164,0,1,0,1,0,1,,,,,,,,,,,,,,,,,,,,,,,,,,,,,,,,,,,,,,,,,
294292,2022-12-02_14h15.44.360,vts_reward_expectancy_bt,2022.2.4,MacIntel,60.04202942,Chrome,1440,900,,,,,,,,,,,,,,,,,,,,,,,B,132,star,1,0,d,0.6816,0,2,0,2,0,1,,,,,,,,,,,,,,,,,,,,,,,,,,,,,,,,,,,,,,,,,
294292,2022-12-02_14h15.44.360,vts_reward_expectancy_bt,2022.2.4,MacIntel,60.04202942,Chrome,1440,900,,,,,,,,,,,,,,,,,,,,,,,F,139,circle,1,0,d,0.805,0,3,0,3,0,1,,,,,,,,,,,,,,,,,,,,,,,,,,,,,,,,,,,,,,,,,
294292,2022-12-02_14h15.44.360,vts_reward_expectancy_bt,2022.2.4,MacIntel,60.04202942,Chrome,1440,900,,,,,,,,,,,,,,,,,,,,,,,D,167,triangle,1,0,d,0.5338,0,4,0,4,0,1,,,,,,,,,,,,,,,,,,,,,,,,,,,,,,,,,,,,,,,,,
294292,2022-12-02_14h15.44.360,vts_reward_expectancy_bt,2022.2.4,MacIntel,60.04202942,Chrome,1440,900,,,,,,,,,,,,,,,,,,,,,,,S,125,hexagon,0,0,d,0.6239,0,5,0,5,0,1,,,,,,,,,,,,,,,,,,,,,,,,,,,,,,,,,,,,,,,,,
294292,2022-12-02_14h15.44.360,vts_reward_expectancy_bt,2022.2.4,MacIntel,60.04202942,Chrome,1440,900,,,,,,,,,,,,,,,,,,,,,,,W,174,star,1,1,f,0.7122,0,6,0,6,0,1,,,,,,,,,,,,,,,,,,,,,,,,,,,,,,,,,,,,,,,,,
294292,2022-12-02_14h15.44.360,vts_reward_expectancy_bt,2022.2.4,MacIntel,60.04202942,Chrome,1440,900,,,,,,,,,,,,,,,,,,,,,,,H,181,circle,1,0,d,0.406,0,7,0,7,0,1,,,,,,,,,,,,,,,,,,,,,,,,,,,,,,,,,,,,,,,,,
294292,2022-12-02_14h15.44.360,vts_reward_expectancy_bt,2022.2.4,MacIntel,60.04202942,Chrome,1440,900,,,,,,,,,,,,,,,,,,,,,,,Y,160,triangle,1,0,f,0.4604,0,8,0,8,0,1,,,,,,,,,,,,,,,,,,,,,,,,,,,,,,,,,,,,,,,,,
294292,2022-12-02_14h15.44.360,vts_reward_expectancy_bt,2022.2.4,MacIntel,60.04202942,Chrome,1440,900,,,,,,,,,,,,,,,,,,,,,,,U,146,star,1,0,f,0.6649,0,9,0,9,0,1,,,,,,,,,,,,,,,,,,,,,,,,,,,,,,,,,,,,,,,,,
294292,2022-12-02_14h15.44.360,vts_reward_expectancy_bt,2022.2.4,MacIntel,60.04202942,Chrome,1440,900,,,,,,,,,,,,,,,,,,,,,,,U,160,hexagon,1,0,,,1,,,,,,k,1.022,0,0,0,0,1,,,,,,,,,,,,,,,,,,,,,,,,,,,,,,,,,,
294292,2022-12-02_14h15.44.360,vts_reward_expectancy_bt,2022.2.4,MacIntel,60.04202942,Chrome,1440,900,,,,,,,,,,,,,,,,,,,,,,,D,181,star,1,0,,,1,,,,,,k,0.6143,1,0,1,0,1,,,,,,,,,,,,,,,,,,,,,,,,,,,,,,,,,,
294292,2022-12-02_14h15.44.360,vts_reward_expectancy_bt,2022.2.4,MacIntel,60.04202942,Chrome,1440,900,,,,,,,,,,,,,,,,,,,,,,,H,132,triangle,1,0,,,1,,,,,,j,0.8072,2,0,2,0,1,,,,,,,,,,,,,,,,,,,,,,,,,,,,,,,,,,
294292,2022-12-02_14h15.44.360,vts_reward_expectancy_bt,2022.2.4,MacIntel,60.04202942,Chrome,1440,900,,,,,,,,,,,,,,,,,,,,,,,B,125,circle,1,0,,,1,,,,,,j,0.613,3,0,3,0,1,,,,,,,,,,,,,,,,,,,,,,,,,,,,,,,,,,
294292,2022-12-02_14h15.44.360,vts_reward_expectancy_bt,2022.2.4,MacIntel,60.04202942,Chrome,1440,900,,,,,,,,,,,,,,,,,,,,,,,S,174,hexagon,1,0,,,1,,,,,,k,0.5499,4,0,4,0,1,,,,,,,,,,,,,,,,,,,,,,,,,,,,,,,,,,
294292,2022-12-02_14h15.44.360,vts_reward_expectancy_bt,2022.2.4,MacIntel,60.04202942,Chrome,1440,900,,,,,,,,,,,,,,,,,,,,,,,Y,146,star,1,0,,,1,,,,,,j,0.897,5,0,5,0,1,,,,,,,,,,,,,,,,,,,,,,,,,,,,,,,,,,
294292,2022-12-02_14h15.44.360,vts_reward_expectancy_bt,2022.2.4,MacIntel,60.04202942,Chrome,1440,900,,,,,,,,,,,,,,,,,,,,,,,F,167,triangle,1,0,,,1,,,,,,k,0.6495,6,0,6,0,1,,,,,,,,,,,,,,,,,,,,,,,,,,,,,,,,,,
294292,2022-12-02_14h15.44.360,vts_reward_expectancy_bt,2022.2.4,MacIntel,60.04202942,Chrome,1440,900,,,,,,,,,,,,,,,,,,,,,,,W,139,circle,1,0,,,1,,,,,,j,0.6948,7,0,7,0,1,,,,,,,,,,,,,,,,,,,,,,,,,,,,,,,,,,
294292,2022-12-02_14h15.44.360,vts_reward_expectancy_bt,2022.2.4,MacIntel,60.04202942,Chrome,1440,900,,,,,,,,,,,,,,,,,,,,,,,U,160,circle,0,0,,,1,,,,,,j,0.6051,8,0,8,0,1,,,,,,,,,,,,,,,,,,,,,,,,,,,,,,,,,,
294292,2022-12-02_14h15.44.360,vts_reward_expectancy_bt,2022.2.4,MacIntel,60.04202942,Chrome,1440,900,,,,,,,,,,,,,,,,,,,,,,,D,181,hexagon,1,1,,,1,,,,,,k,0.6235,9,0,9,0,1,,,,,,,,,,,,,,,,,,,,,,,,,,,,,,,,,,
294292,2022-12-02_14h15.44.360,vts_reward_expectancy_bt,2022.2.4,MacIntel,60.04202942,Chrome,1440,900,,,,,0,630,,,,,,,,,,,,,,,,,S,139,circle,0,0,,,2,,,,,,,,,,,,,-1,letter,NA,d,0.8527,vtsPrac,0,0,0,0,1,,,,,,,,,,,,,,,,,,,,,,,
294292,2022-12-02_14h15.44.360,vts_reward_expectancy_bt,2022.2.4,MacIntel,60.04202942,Chrome,1440,900,,,,,0,630,,,,,,,,,,,,,,,,,H,160,triangle,0,1,,,2,,,,,,,,,,,,,repeat,letter,NA,f,1.6587,vtsPrac,1,0,1,0,1,,,,,,,,,,,,,,,,,,,,,,,
294292,2022-12-02_14h15.44.360,vts_reward_expectancy_bt,2022.2.4,MacIntel,60.04202942,Chrome,1440,900,,,,,0,630,,,,,,,,,,,,,,,,,Y,174,circle,1,1,,,2,,,,,,,,,,,,,switch,number,numSwt,k,0.7115,vtsPrac,2,0,2,0,1,,,,,,,,,,,,,,,,,,,,,,,
294292,2022-12-02_14h15.44.360,vts_reward_expectancy_bt,2022.2.4,MacIntel,60.04202942,Chrome,1440,900,,,,,0,630,,,,,,,,,,,,,,,,,B,132,triangle,1,0,,,2,,,,,,,,,,,,,repeat,number,numRpt,j,0.8115,vtsPrac,3,0,3,0,1,,,,,,,,,,,,,,,,,,,,,,,
294292,2022-12-02_14h15.44.360,vts_reward_expectancy_bt,2022.2.4,MacIntel,60.04202942,Chrome,1440,900,,,,,0,630,,,,,,,,,,,,,,,,,S,139,triangle,1,0,,,2,,,,,,,,,,,,,switch,letter,lettSwt,f,0.7967,vtsPrac,4,0,4,0,1,,,,,,,,,,,,,,,,,,,,,,,
294292,2022-12-02_14h15.44.360,vts_reward_expectancy_bt,2022.2.4,MacIntel,60.04202942,Chrome,1440,900,,,,,0,630,,,,,,,,,,,,,,,,,H,160,circle,1,0,,,2,,,,,,,,,,,,,switch,number,numSwt,k,0.7958,vtsPrac,5,0,5,0,1,,,,,,,,,,,,,,,,,,,,,,,
294292,2022-12-02_14h15.44.360,vts_reward_expectancy_bt,2022.2.4,MacIntel,60.04202942,Chrome,1440,900,,,,,0,630,,,,,,,,,,,,,,,,,Y,174,hexagon,1,0,,,2,,,,,,,,,,,,,switch,letter,lettSwt,f,0.5955,vtsPrac,6,0,6,0,1,,,,,,,,,,,,,,,,,,,,,,,
294292,2022-12-02_14h15.44.360,vts_reward_expectancy_bt,2022.2.4,MacIntel,60.04202942,Chrome,1440,900,,,,,0,630,,,,,,,,,,,,,,,,,B,132,triangle,1,0,,,2,,,,,,,,,,,,,repeat,letter,lettRpt,d,0.4871,vtsPrac,7,0,7,0,1,,,,,,,,,,,,,,,,,,,,,,,
294292,2022-12-02_14h15.44.360,vts_reward_expectancy_bt,2022.2.4,MacIntel,60.04202942,Chrome,1440,900,,,,,0,630,,,,,,,,,,,,,,,,,S,160,circle,1,0,,,2,,,,,,,,,,,,,switch,number,numSwt,k,0.6636,vtsPrac,8,0,8,0,1,,,,,,,,,,,,,,,,,,,,,,,
294292,2022-12-02_14h15.44.360,vts_reward_expectancy_bt,2022.2.4,MacIntel,60.04202942,Chrome,1440,900,,,,,0,630,,,,,,,,,,,,,,,,,Y,174,star,1,0,,,2,,,,,,,,,,,,,repeat,number,numRpt,k,0.5247,vtsPrac,9,0,9,0,1,,,,,,,,,,,,,,,,,,,,,,,
294292,2022-12-02_14h15.44.360,vts_reward_expectancy_bt,2022.2.4,MacIntel,60.04202942,Chrome,1440,900,,,,,0,630,,,,,,,,,,,,,,,,,H,146,star,1,0,,,2,,,,,,,,,,,,,repeat,number,numRpt,j,1.5923,vtsPrac,10,0,10,0,1,,,,,,,,,,,,,,,,,,,,,,,
294292,2022-12-02_14h15.44.360,vts_reward_expectancy_bt,2022.2.4,MacIntel,60.04202942,Chrome,1440,900,,,,,0,630,,,,,,,,,,,,,,,,,B,181,triangle,1,0,,,2,,,,,,,,,,,,,repeat,number,numRpt,k,0.5575,vtsPrac,11,0,11,0,1,,,,,,,,,,,,,,,,,,,,,,,
294292,2022-12-02_14h15.44.360,vts_reward_expectancy_bt,2022.2.4,MacIntel,60.04202942,Chrome,1440,900,,,,,0,630,,,,,,,,,,,,,,,,,U,167,circle,1,0,,,2,,,,,,,,,,,,,repeat,number,numRpt,k,1.0044,vtsPrac,12,0,12,0,1,,,,,,,,,,,,,,,,,,,,,,,
294292,2022-12-02_14h15.44.360,vts_reward_expectancy_bt,2022.2.4,MacIntel,60.04202942,Chrome,1440,900,,,,,0,630,,,,,,,,,,,,,,,,,W,125,triangle,1,0,,,2,,,,,,,,,,,,,switch,letter,lettSwt,f,0.5424,vtsPrac,13,0,13,0,1,,,,,,,,,,,,,,,,,,,,,,,
294292,2022-12-02_14h15.44.360,vts_reward_expectancy_bt,2022.2.4,MacIntel,60.04202942,Chrome,1440,900,,,,,0,630,,,,,,,,,,,,,,,,,S,146,triangle,1,0,,,2,,,,,,,,,,,,,repeat,letter,lettRpt,f,1.0353,vtsPrac,14,0,14,0,1,,,,,,,,,,,,,,,,,,,,,,,
294292,2022-12-02_14h15.44.360,vts_reward_expectancy_bt,2022.2.4,MacIntel,60.04202942,Chrome,1440,900,,,,,0,630,,,,,,,,,,,,,,,,,F,139,circle,1,0,,,2,,,,,,,,,,,,,repeat,letter,lettRpt,d,1.4675,vtsPrac,15,0,15,0,1,,,,,,,,,,,,,,,,,,,,,,,
294292,2022-12-02_14h15.44.360,vts_reward_expectancy_bt,2022.2.4,MacIntel,60.04202942,Chrome,1440,900,,,,,0,630,,,,,,,,,,,,,,,,,D,132,hexagon,0,0,,,2,,,,,,,,,,,,,switch,number,NA,k,1.5722,vtsPrac,16,0,16,0,1,,,,,,,,,,,,,,,,,,,,,,,
294292,2022-12-02_14h15.44.360,vts_reward_expectancy_bt,2022.2.4,MacIntel,60.04202942,Chrome,1440,900,,,,,0,630,,,,,,,,,,,,,,,,,U,139,circle,1,1,,,2,,,,,,,,,,,,,switch,letter,lettSwt,f,2.0416,vtsPrac,17,0,17,0,1,,,,,,,,,,,,,,,,,,,,,,,
294292,2022-12-02_14h15.44.360,vts_reward_expectancy_bt,2022.2.4,MacIntel,60.04202942,Chrome,1440,900,,,,,0,630,,,,,,,,,,,,,,,,,Y,160,circle,1,0,,,2,,,,,,,,,,,,,repeat,letter,lettRpt,f,0.6596,vtsPrac,18,0,18,0,1,,,,,,,,,,,,,,,,,,,,,,,
294292,2022-12-02_14h15.44.360,vts_reward_expectancy_bt,2022.2.4,MacIntel,60.04202942,Chrome,1440,900,,,,,0,630,,,,,,,,,,,,,,,,,H,125,hexagon,0,0,,,2,,,,,,,,,,,,,repeat,letter,NA,f,0.7193,vtsPrac,19,0,19,0,1,,,,,,,,,,,,,,,,,,,,,,,
294292,2022-12-02_14h15.44.360,vts_reward_expectancy_bt,2022.2.4,MacIntel,60.04202942,Chrome,1440,900,,,,,0,630,,,,,,,,,,,,,,,,,W,132,circle,1,1,,,2,,,,,,,,,,,,,switch,number,numSwt,j,0.6392,vtsPrac,20,0,20,0,1,,,,,,,,,,,,,,,,,,,,,,,
294292,2022-12-02_14h15.44.360,vts_reward_expectancy_bt,2022.2.4,MacIntel,60.04202942,Chrome,1440,900,,,,,0,630,,,,,,,,,,,,,,,,,B,139,star,1,0,,,2,,,,,,,,,,,,,repeat,number,numRpt,j,1.2253,vtsPrac,21,0,21,0,1,,,,,,,,,,,,,,,,,,,,,,,
294292,2022-12-02_14h15.44.360,vts_reward_expectancy_bt,2022.2.4,MacIntel,60.04202942,Chrome,1440,900,,,,,0,630,,,,,,,,,,,,,,,,,H,174,triangle,1,0,,,2,,,,,,,,,,,,,repeat,number,numRpt,k,1.0095,vtsPrac,22,0,22,0,1,,,,,,,,,,,,,,,,,,,,,,,
294292,2022-12-02_14h15.44.360,vts_reward_expectancy_bt,2022.2.4,MacIntel,60.04202942,Chrome,1440,900,,,,,0,630,,,,,,,,,,,,,,,,,D,146,circle,1,0,,,2,,,,,,,,,,,,,repeat,number,numRpt,j,1.6195,vtsPrac,23,0,23,0,1,,,,,,,,,,,,,,,,,,,,,,,
294292,2022-12-02_14h15.44.360,vts_reward_expectancy_bt,2022.2.4,MacIntel,60.04202942,Chrome,1440,900,,,,,0,630,,,,,,,,,,,,,,,,,D,139,triangle,1,0,,,2,,,,,,,,,,,,,repeat,number,numRpt,j,1.2179,vtsPrac,24,0,24,0,1,,,,,,,,,,,,,,,,,,,,,,,
294292,2022-12-02_14h15.44.360,vts_reward_expectancy_bt,2022.2.4,MacIntel,60.04202942,Chrome,1440,900,,,,,0,630,,,,,,,,,,,,,,,,,U,146,circle,1,0,,,2,,,,,,,,,,,,,switch,letter,lettSwt,f,0.7545,vtsPrac,25,0,25,0,1,,,,,,,,,,,,,,,,,,,,,,,
294292,2022-12-02_14h15.44.360,vts_reward_expectancy_bt,2022.2.4,MacIntel,60.04202942,Chrome,1440,900,,,,,0,630,,,,,,,,,,,,,,,,,S,181,hexagon,1,0,,,2,,,,,,,,,,,,,repeat,letter,lettRpt,f,0.8102,vtsPrac,26,0,26,0,1,,,,,,,,,,,,,,,,,,,,,,,
294292,2022-12-02_14h15.44.360,vts_reward_expectancy_bt,2022.2.4,MacIntel,60.04202942,Chrome,1440,900,,,,,0,630,,,,,,,,,,,,,,,,,F,160,circle,1,0,,,2,,,,,,,,,,,,,switch,number,numSwt,k,1.5372,vtsPrac,27,0,27,0,1,,,,,,,,,,,,,,,,,,,,,,,
294292,2022-12-02_14h15.44.360,vts_reward_expectancy_bt,2022.2.4,MacIntel,60.04202942,Chrome,1440,900,,,,,0,630,,,,,,,,,,,,,,,,,W,181,circle,1,0,,,2,,,,,,,,,,,,,switch,letter,lettSwt,f,0.7893,vtsPrac,28,0,28,0,1,,,,,,,,,,,,,,,,,,,,,,,
294292,2022-12-02_14h15.44.360,vts_reward_expectancy_bt,2022.2.4,MacIntel,60.04202942,Chrome,1440,900,,,,,0,630,,,,,,,,,,,,,,,,,U,125,star,1,0,,,2,,,,,,,,,,,,,repeat,letter,lettRpt,f,0.7301,vtsPrac,29,0,29,0,1,,,,,,,,,,,,,,,,,,,,,,,
294292,2022-12-02_14h15.44.360,vts_reward_expectancy_bt,2022.2.4,MacIntel,60.04202942,Chrome,1440,900,,,,,0,630,,,,,,,,,,,,,,,,,S,167,circle,1,0,,,2,,,,,,,,,,,,,repeat,letter,lettRpt,f,0.5743,vtsPrac,30,0,30,0,1,,,,,,,,,,,,,,,,,,,,,,,
294292,2022-12-02_14h15.44.360,vts_reward_expectancy_bt,2022.2.4,MacIntel,60.04202942,Chrome,1440,900,,,,,0,630,,,,,,,,,,,,,,,,,Y,160,hexagon,1,0,,,2,,,,,,,,,,,,,repeat,letter,lettRpt,f,0.9882,vtsPrac,31,0,31,0,1,,,,,,,,,,,,,,,,,,,,,,,
294292,2022-12-02_14h15.44.360,vts_reward_expectancy_bt,2022.2.4,MacIntel,60.04202942,Chrome,1440,900,,,,,,,,,,,,,,,,,,,,,,,,,,,,,,,,,,,,,,,,,,,,,,,,,,,,,,,,,,,,,,,,,,,,,,,,,,,,
294292,2022-12-02_14h15.44.360,vts_reward_expectancy_bt,2022.2.4,MacIntel,60.04202942,Chrome,1440,900,,,,,,,,,,,,,,,,,,,,,,,,,,,,,,,,,,,,,,,,,,,,,,,,,,,,,,,,,,,,,,,,,,,,,,,,,,,,
294292,2022-12-02_14h15.44.360,vts_reward_expectancy_bt,2022.2.4,MacIntel,60.04202942,Chrome,1440,900,,,,,0,630,,,,,,,,,,,,,,,,,U,174,hexagon,1,0,,,,,,,,,,,,,,,,switch,number,numSwt,k,1.6044,noRew,,,,,,0,0,0,0,0,1,,,,,,,,,,,,,,,,,
294292,2022-12-02_14h15.44.360,vts_reward_expectancy_bt,2022.2.4,MacIntel,60.04202942,Chrome,1440,900,,,,,0,630,,,,,,,,,,,,,,,,,D,139,star,1,0,,,,,,,,,,,,,,,,repeat,number,numRpt,j,0.7484,noRew,,,,,,0,1,0,1,0,1,,,,,,,,,,,,,,,,,
294292,2022-12-02_14h15.44.360,vts_reward_expectancy_bt,2022.2.4,MacIntel,60.04202942,Chrome,1440,900,,,,,0,630,,,,,,,,,,,,,,,,,S,146,hexagon,1,0,,,,,,,,,,,,,,,,repeat,number,numRpt,j,0.9087,noRew,,,,,,0,2,0,2,0,1,,,,,,,,,,,,,,,,,
294292,2022-12-02_14h15.44.360,vts_reward_expectancy_bt,2022.2.4,MacIntel,60.04202942,Chrome,1440,900,,,,,0,630,,,,,,,,,,,,,,,,,Y,160,star,1,0,,,,,,,,,,,,,,,,switch,letter,lettSwt,f,0.7406,noRew,,,,,,0,3,0,3,0,1,,,,,,,,,,,,,,,,,
294292,2022-12-02_14h15.44.360,vts_reward_expectancy_bt,2022.2.4,MacIntel,60.04202942,Chrome,1440,900,,,,,0,630,,,,,,,,,,,,,,,,,U,174,hexagon,1,0,,,,,,,,,,,,,,,,repeat,letter,lettRpt,f,0.5182,noRew,,,,,,0,4,0,4,0,1,,,,,,,,,,,,,,,,,
294292,2022-12-02_14h15.44.360,vts_reward_expectancy_bt,2022.2.4,MacIntel,60.04202942,Chrome,1440,900,,,,,0,630,,,,,,,,,,,,,,,,,D,139,triangle,1,0,,,,,,,,,,,,,,,,switch,number,numSwt,j,1.0705,noRew,,,,,,0,5,0,5,0,1,,,,,,,,,,,,,,,,,
294292,2022-12-02_14h15.44.360,vts_reward_expectancy_bt,2022.2.4,MacIntel,60.04202942,Chrome,1440,900,,,,,0,630,,,,,,,,,,,,,,,,,S,146,triangle,1,0,,,,,,,,,,,,,,,,switch,letter,lettSwt,f,0.7294,noRew,,,,,,0,6,0,6,0,1,,,,,,,,,,,,,,,,,
294292,2022-12-02_14h15.44.360,vts_reward_expectancy_bt,2022.2.4,MacIntel,60.04202942,Chrome,1440,900,,,,,0,630,,,,,,,,,,,,,,,,,Y,160,circle,1,0,,,,,,,,,,,,,,,,repeat,letter,lettRpt,f,0.8053,noRew,,,,,,0,7,0,7,0,1,,,,,,,,,,,,,,,,,
294292,2022-12-02_14h15.44.360,vts_reward_expectancy_bt,2022.2.4,MacIntel,60.04202942,Chrome,1440,900,,,,,0,630,,,,,,,,,,,,,,,,,H,160,star,0,0,,,,,,,,,,,,,,,,repeat,letter,NA,f,0.6656,noRew,,,,,,0,8,0,8,0,1,,,,,,,,,,,,,,,,,
294292,2022-12-02_14h15.44.360,vts_reward_expectancy_bt,2022.2.4,MacIntel,60.04202942,Chrome,1440,900,,,,,0,630,,,,,,,,,,,,,,,,,D,146,circle,1,1,,,,,,,,,,,,,,,,switch,number,numSwt,j,1.626,noRew,,,,,,0,9,0,9,0,1,,,,,,,,,,,,,,,,,
294292,2022-12-02_14h15.44.360,vts_reward_expectancy_bt,2022.2.4,MacIntel,60.04202942,Chrome,1440,900,,,,,0,630,,,,,,,,,,,,,,,,,B,139,star,1,0,,,,,,,,,,,,,,,,switch,letter,lettSwt,d,1.3689,noRew,,,,,,0,10,0,10,0,1,,,,,,,,,,,,,,,,,
294292,2022-12-02_14h15.44.360,vts_reward_expectancy_bt,2022.2.4,MacIntel,60.04202942,Chrome,1440,900,,,,,0,630,,,,,,,,,,,,,,,,,Y,132,triangle,1,0,,,,,,,,,,,,,,,,repeat,letter,lettRpt,f,0.7975,noRew,,,,,,0,11,0,11,0,1,,,,,,,,,,,,,,,,,
294292,2022-12-02_14h15.44.360,vts_reward_expectancy_bt,2022.2.4,MacIntel,60.04202942,Chrome,1440,900,,,,,0,630,,,,,,,,,,,,,,,,,U,146,circle,1,0,,,,,,,,,,,,,,,,repeat,letter,lettRpt,f,0.4085,noRew,,,,,,0,12,0,12,0,1,,,,,,,,,,,,,,,,,
294292,2022-12-02_14h15.44.360,vts_reward_expectancy_bt,2022.2.4,MacIntel,60.04202942,Chrome,1440,900,,,,,0,630,,,,,,,,,,,,,,,,,H,139,star,1,0,,,,,,,,,,,,,,,,repeat,letter,lettRpt,d,1.787,noRew,,,,,,0,13,0,13,0,1,,,,,,,,,,,,,,,,,
294292,2022-12-02_14h15.44.360,vts_reward_expectancy_bt,2022.2.4,MacIntel,60.04202942,Chrome,1440,900,,,,,0,630,,,,,,,,,,,,,,,,,Y,167,hexagon,1,0,,,,,,,,,,,,,,,,repeat,letter,lettRpt,f,1.6782,noRew,,,,,,0,14,0,14,0,1,,,,,,,,,,,,,,,,,
294292,2022-12-02_14h15.44.360,vts_reward_expectancy_bt,2022.2.4,MacIntel,60.04202942,Chrome,1440,900,,,,,0,630,,,,,,,,,,,,,,,,,D,160,triangle,1,0,,,,,,,,,,,,,,,,switch,number,numSwt,k,1.7306,noRew,,,,,,0,15,0,15,0,1,,,,,,,,,,,,,,,,,
294292,2022-12-02_14h15.44.360,vts_reward_expectancy_bt,2022.2.4,MacIntel,60.04202942,Chrome,1440,900,,,,,0,630,,,,,,,,,,,,,,,,,U,167,triangle,1,0,,,,,,,,,,,,,,,,switch,letter,lettSwt,f,0.6351,noRew,,,,,,0,16,0,16,0,1,,,,,,,,,,,,,,,,,
294292,2022-12-02_14h15.44.360,vts_reward_expectancy_bt,2022.2.4,MacIntel,60.04202942,Chrome,1440,900,,,,,0,630,,,,,,,,,,,,,,,,,Y,174,star,1,0,,,,,,,,,,,,,,,,repeat,letter,lettRpt,f,0.9759,noRew,,,,,,0,17,0,17,0,1,,,,,,,,,,,,,,,,,
294292,2022-12-02_14h15.44.360,vts_reward_expectancy_bt,2022.2.4,MacIntel,60.04202942,Chrome,1440,900,,,,,0,630,,,,,,,,,,,,,,,,,H,160,hexagon,1,0,,,,,,,,,,,,,,,,switch,number,numSwt,k,0.3901,noRew,,,,,,0,18,0,18,0,1,,,,,,,,,,,,,,,,,
294292,2022-12-02_14h15.44.360,vts_reward_expectancy_bt,2022.2.4,MacIntel,60.04202942,Chrome,1440,900,,,,,0,630,,,,,,,,,,,,,,,,,W,146,circle,1,0,,,,,,,,,,,,,,,,switch,letter,lettSwt,f,0.4292,noRew,,,,,,0,19,0,19,0,1,,,,,,,,,,,,,,,,,
294292,2022-12-02_14h15.44.360,vts_reward_expectancy_bt,2022.2.4,MacIntel,60.04202942,Chrome,1440,900,,,,,0,630,,,,,,,,,,,,,,,,,F,125,hexagon,0,0,,,,,,,,,,,,,,,,switch,number,NA,k,0.4437,noRew,,,,,,0,20,0,20,0,1,,,,,,,,,,,,,,,,,
294292,2022-12-02_14h15.44.360,vts_reward_expectancy_bt,2022.2.4,MacIntel,60.04202942,Chrome,1440,900,,,,,0,630,,,,,,,,,,,,,,,,,S,132,triangle,0,1,,,,,,,,,,,,,,,,repeat,number,NA,k,0.4198,noRew,,,,,,0,21,0,21,0,1,,,,,,,,,,,,,,,,,
294292,2022-12-02_14h15.44.360,vts_reward_expectancy_bt,2022.2.4,MacIntel,60.04202942,Chrome,1440,900,,,,,0,630,,,,,,,,,,,,,,,,,H,139,star,0,1,,,,,,,,,,,,,,,,repeat,number,NA,k,0.4035,noRew,,,,,,0,22,0,22,0,1,,,,,,,,,,,,,,,,,
294292,2022-12-02_14h15.44.360,vts_reward_expectancy_bt,2022.2.4,MacIntel,60.04202942,Chrome,1440,900,,,,,0,630,,,,,,,,,,,,,,,,,U,167,circle,1,1,,,,,,,,,,,,,,,,switch,letter,lettSwt,f,0.4114,noRew,,,,,,0,23,0,23,0,1,,,,,,,,,,,,,,,,,
294292,2022-12-02_14h15.44.360,vts_reward_expectancy_bt,2022.2.4,MacIntel,60.04202942,Chrome,1440,900,,,,,0,630,,,,,,,,,,,,,,,,,S,160,circle,0,0,,,,,,,,,,,,,,,,switch,number,NA,j,0.3842,noRew,,,,,,0,24,0,24,0,1,,,,,,,,,,,,,,,,,
294292,2022-12-02_14h15.44.360,vts_reward_expectancy_bt,2022.2.4,MacIntel,60.04202942,Chrome,1440,900,,,,,0,630,,,,,,,,,,,,,,,,,B,132,hexagon,1,1,,,,,,,,,,,,,,,,switch,letter,lettSwt,d,0.6805,noRew,,,,,,0,25,0,25,0,1,,,,,,,,,,,,,,,,,
294292,2022-12-02_14h15.44.360,vts_reward_expectancy_bt,2022.2.4,MacIntel,60.04202942,Chrome,1440,900,,,,,0,630,,,,,,,,,,,,,,,,,F,139,triangle,0,0,,,,,,,,,,,,,,,,repeat,letter,NA,f,0.7017,noRew,,,,,,0,26,0,26,0,1,,,,,,,,,,,,,,,,,
294292,2022-12-02_14h15.44.360,vts_reward_expectancy_bt,2022.2.4,MacIntel,60.04202942,Chrome,1440,900,,,,,0,630,,,,,,,,,,,,,,,,,H,167,circle,0,1,,,,,,,,,,,,,,,,repeat,letter,NA,f,1.1112,noRew,,,,,,0,27,0,27,0,1,,,,,,,,,,,,,,,,,
294292,2022-12-02_14h15.44.360,vts_reward_expectancy_bt,2022.2.4,MacIntel,60.04202942,Chrome,1440,900,,,,,0,630,,,,,,,,,,,,,,,,,B,174,hexagon,1,1,,,,,,,,,,,,,,,,repeat,letter,lettRpt,d,0.715,noRew,,,,,,0,28,0,28,0,1,,,,,,,,,,,,,,,,,
294292,2022-12-02_14h15.44.360,vts_reward_expectancy_bt,2022.2.4,MacIntel,60.04202942,Chrome,1440,900,,,,,0,630,,,,,,,,,,,,,,,,,W,167,circle,1,0,,,,,,,,,,,,,,,,repeat,letter,lettRpt,f,0.9973,noRew,,,,,,0,29,0,29,0,1,,,,,,,,,,,,,,,,,
294292,2022-12-02_14h15.44.360,vts_reward_expectancy_bt,2022.2.4,MacIntel,60.04202942,Chrome,1440,900,,,,,0,630,,,,,,,,,,,,,,,,,Y,181,triangle,1,0,,,,,,,,,,,,,,,,repeat,letter,lettRpt,f,0.8463,noRew,,,,,,0,30,0,30,0,1,,,,,,,,,,,,,,,,,
294292,2022-12-02_14h15.44.360,vts_reward_expectancy_bt,2022.2.4,MacIntel,60.04202942,Chrome,1440,900,,,,,0,630,,,,,,,,,,,,,,,,,H,125,hexagon,1,0,,,,,,,,,,,,,,,,switch,number,numSwt,j,1.5525,noRew,,,,,,0,31,0,31,0,1,,,,,,,,,,,,,,,,,
294292,2022-12-02_14h15.44.360,vts_reward_expectancy_bt,2022.2.4,MacIntel,60.04202942,Chrome,1440,900,,,,,0,630,,,,,,,,,,,,,,,,,H,174,circle,1,0,,,,,,,,,,,,,,,,repeat,number,numRpt,k,1.726,noRew,,,,,,0,32,0,32,0,1,,,,,,,,,,,,,,,,,
294292,2022-12-02_14h15.44.360,vts_reward_expectancy_bt,2022.2.4,MacIntel,60.04202942,Chrome,1440,900,,,,,0,630,,,,,,,,,,,,,,,,,Y,125,triangle,0,0,,,,,,,,,,,,,,,,repeat,number,NA,k,1.4835,noRew,,,,,,0,33,0,33,0,1,,,,,,,,,,,,,,,,,
294292,2022-12-02_14h15.44.360,vts_reward_expectancy_bt,2022.2.4,MacIntel,60.04202942,Chrome,1440,900,,,,,0,630,,,,,,,,,,,,,,,,,D,181,star,0,1,,,,,,,,,,,,,,,,switch,letter,NA,f,1.477,noRew,,,,,,0,34,0,34,0,1,,,,,,,,,,,,,,,,,
294292,2022-12-02_14h15.44.360,vts_reward_expectancy_bt,2022.2.4,MacIntel,60.04202942,Chrome,1440,900,,,,,0,630,,,,,,,,,,,,,,,,,W,160,triangle,1,1,,,,,,,,,,,,,,,,repeat,letter,lettRpt,f,0.4076,noRew,,,,,,0,35,0,35,0,1,,,,,,,,,,,,,,,,,
294292,2022-12-02_14h15.44.360,vts_reward_expectancy_bt,2022.2.4,MacIntel,60.04202942,Chrome,1440,900,,,,,0,630,,,,,,,,,,,,,,,,,Y,139,hexagon,0,0,,,,,,,,,,,,,,,,switch,number,NA,k,0.5584,noRew,,,,,,0,36,0,36,0,1,,,,,,,,,,,,,,,,,
294292,2022-12-02_14h15.44.360,vts_reward_expectancy_bt,2022.2.4,MacIntel,60.04202942,Chrome,1440,900,,,,,0,630,,,,,,,,,,,,,,,,,B,167,triangle,1,1,,,,,,,,,,,,,,,,repeat,number,numRpt,k,0.427,noRew,,,,,,0,37,0,37,0,1,,,,,,,,,,,,,,,,,
294292,2022-12-02_14h15.44.360,vts_reward_expectancy_bt,2022.2.4,MacIntel,60.04202942,Chrome,1440,900,,,,,0,630,,,,,,,,,,,,,,,,,W,160,triangle,1,0,,,,,,,,,,,,,,,,switch,letter,lettSwt,f,0.6506,noRew,,,,,,0,38,0,38,0,1,,,,,,,,,,,,,,,,,
294292,2022-12-02_14h15.44.360,vts_reward_expectancy_bt,2022.2.4,MacIntel,60.04202942,Chrome,1440,900,,,,,0,630,,,,,,,,,,,,,,,,,S,146,hexagon,1,0,,,,,,,,,,,,,,,,repeat,letter,lettRpt,f,0.8838,noRew,,,,,,0,39,0,39,0,1,,,,,,,,,,,,,,,,,
294292,2022-12-02_14h15.44.360,vts_reward_expectancy_bt,2022.2.4,MacIntel,60.04202942,Chrome,1440,900,,,,,0,630,,,,,,,,,,,,,,,,,W,174,star,1,0,,,,,,,,,,,,,,,,switch,number,numSwt,k,0.6287,noRew,,,,,,0,40,0,40,0,1,,,,,,,,,,,,,,,,,
294292,2022-12-02_14h15.44.360,vts_reward_expectancy_bt,2022.2.4,MacIntel,60.04202942,Chrome,1440,900,,,,,0,630,,,,,,,,,,,,,,,,,H,125,circle,1,0,,,,,,,,,,,,,,,,repeat,number,numRpt,j,1.0697,noRew,,,,,,0,41,0,41,0,1,,,,,,,,,,,,,,,,,
294292,2022-12-02_14h15.44.360,vts_reward_expectancy_bt,2022.2.4,MacIntel,60.04202942,Chrome,1440,900,,,,,0,630,,,,,,,,,,,,,,,,,U,167,hexagon,1,0,,,,,,,,,,,,,,,,repeat,number,numRpt,k,1.1362,noRew,,,,,,0,42,0,42,0,1,,,,,,,,,,,,,,,,,
294292,2022-12-02_14h15.44.360,vts_reward_expectancy_bt,2022.2.4,MacIntel,60.04202942,Chrome,1440,900,,,,,0,630,,,,,,,,,,,,,,,,,D,146,star,1,0,,,,,,,,,,,,,,,,repeat,number,numRpt,j,0.7586,noRew,,,,,,0,43,0,43,0,1,,,,,,,,,,,,,,,,,
294292,2022-12-02_14h15.44.360,vts_reward_expectancy_bt,2022.2.4,MacIntel,60.04202942,Chrome,1440,900,,,,,0,630,,,,,,,,,,,,,,,,,H,139,star,1,0,,,,,,,,,,,,,,,,repeat,number,numRpt,j,0.8636,noRew,,,,,,0,44,0,44,0,1,,,,,,,,,,,,,,,,,
294292,2022-12-02_14h15.44.360,vts_reward_expectancy_bt,2022.2.4,MacIntel,60.04202942,Chrome,1440,900,,,,,0,630,,,,,,,,,,,,,,,,,U,160,triangle,1,0,,,,,,,,,,,,,,,,repeat,number,numRpt,k,0.785,noRew,,,,,,0,45,0,45,0,1,,,,,,,,,,,,,,,,,
294292,2022-12-02_14h15.44.360,vts_reward_expectancy_bt,2022.2.4,MacIntel,60.04202942,Chrome,1440,900,,,,,0,630,,,,,,,,,,,,,,,,,F,146,star,1,0,,,,,,,,,,,,,,,,repeat,number,numRpt,j,0.7429,noRew,,,,,,0,46,0,46,0,1,,,,,,,,,,,,,,,,,
294292,2022-12-02_14h15.44.360,vts_reward_expectancy_bt,2022.2.4,MacIntel,60.04202942,Chrome,1440,900,,,,,0,630,,,,,,,,,,,,,,,,,D,125,circle,1,0,,,,,,,,,,,,,,,,switch,letter,lettSwt,d,1.403,noRew,,,,,,0,47,0,47,0,1,,,,,,,,,,,,,,,,,
294292,2022-12-02_14h15.44.360,vts_reward_expectancy_bt,2022.2.4,MacIntel,60.04202942,Chrome,1440,900,,,,,0,630,,,,,,,,,,,,,,,,,W,125,hexagon,1,0,,,,,,,,,,,,,,,,repeat,letter,lettRpt,f,1.0101,noRew,,,,,,0,48,0,48,0,1,,,,,,,,,,,,,,,,,
294292,2022-12-02_14h15.44.360,vts_reward_expectancy_bt,2022.2.4,MacIntel,60.04202942,Chrome,1440,900,,,,,0,630,,,,,,,,,,,,,,,,,H,174,circle,1,0,,,,,,,,,,,,,,,,switch,number,numSwt,k,1.3396,noRew,,,,,,0,49,0,49,0,1,,,,,,,,,,,,,,,,,
294292,2022-12-02_14h15.44.360,vts_reward_expectancy_bt,2022.2.4,MacIntel,60.04202942,Chrome,1440,900,,,,,0,630,,,,,,,,,,,,,,,,,B,132,star,1,0,,,,,,,,,,,,,,,,repeat,number,numRpt,j,1.4919,noRew,,,,,,0,50,0,50,0,1,,,,,,,,,,,,,,,,,
294292,2022-12-02_14h15.44.360,vts_reward_expectancy_bt,2022.2.4,MacIntel,60.04202942,Chrome,1440,900,,,,,0,630,,,,,,,,,,,,,,,,,Y,139,hexagon,1,0,,,,,,,,,,,,,,,,switch,letter,lettSwt,f,1.3357,noRew,,,,,,0,51,0,51,0,1,,,,,,,,,,,,,,,,,
294292,2022-12-02_14h15.44.360,vts_reward_expectancy_bt,2022.2.4,MacIntel,60.04202942,Chrome,1440,900,,,,,0,630,,,,,,,,,,,,,,,,,B,132,circle,1,0,,,,,,,,,,,,,,,,repeat,letter,lettRpt,d,0.8454,noRew,,,,,,0,52,0,52,0,1,,,,,,,,,,,,,,,,,
294292,2022-12-02_14h15.44.360,vts_reward_expectancy_bt,2022.2.4,MacIntel,60.04202942,Chrome,1440,900,,,,,0,630,,,,,,,,,,,,,,,,,H,160,hexagon,1,0,,,,,,,,,,,,,,,,switch,number,numSwt,k,1.4631,noRew,,,,,,0,53,0,53,0,1,,,,,,,,,,,,,,,,,
294292,2022-12-02_14h15.44.360,vts_reward_expectancy_bt,2022.2.4,MacIntel,60.04202942,Chrome,1440,900,,,,,0,630,,,,,,,,,,,,,,,,,U,125,triangle,1,0,,,,,,,,,,,,,,,,switch,letter,lettSwt,f,0.7733,noRew,,,,,,0,54,0,54,0,1,,,,,,,,,,,,,,,,,
294292,2022-12-02_14h15.44.360,vts_reward_expectancy_bt,2022.2.4,MacIntel,60.04202942,Chrome,1440,900,,,,,0,630,,,,,,,,,,,,,,,,,Y,146,hexagon,1,0,,,,,,,,,,,,,,,,repeat,letter,lettRpt,f,0.9534,noRew,,,,,,0,55,0,55,0,1,,,,,,,,,,,,,,,,,
294292,2022-12-02_14h15.44.360,vts_reward_expectancy_bt,2022.2.4,MacIntel,60.04202942,Chrome,1440,900,,,,,0,630,,,,,,,,,,,,,,,,,D,139,circle,1,0,,,,,,,,,,,,,,,,repeat,letter,lettRpt,d,0.885,noRew,,,,,,0,56,0,56,0,1,,,,,,,,,,,,,,,,,
294292,2022-12-02_14h15.44.360,vts_reward_expectancy_bt,2022.2.4,MacIntel,60.04202942,Chrome,1440,900,,,,,0,630,,,,,,,,,,,,,,,,,S,167,triangle,1,0,,,,,,,,,,,,,,,,switch,number,numSwt,k,1.4582,noRew,,,,,,0,57,0,57,0,1,,,,,,,,,,,,,,,,,
294292,2022-12-02_14h15.44.360,vts_reward_expectancy_bt,2022.2.4,MacIntel,60.04202942,Chrome,1440,900,,,,,0,630,,,,,,,,,,,,,,,,,F,160,hexagon,1,0,,,,,,,,,,,,,,,,repeat,number,numRpt,k,1.3269,noRew,,,,,,0,58,0,58,0,1,,,,,,,,,,,,,,,,,
294292,2022-12-02_14h15.44.360,vts_reward_expectancy_bt,2022.2.4,MacIntel,60.04202942,Chrome,1440,900,,,,,0,630,,,,,,,,,,,,,,,,,H,132,triangle,1,0,,,,,,,,,,,,,,,,repeat,number,numRpt,j,1.206,noRew,,,,,,0,59,0,59,0,1,,,,,,,,,,,,,,,,,
294292,2022-12-02_14h15.44.360,vts_reward_expectancy_bt,2022.2.4,MacIntel,60.04202942,Chrome,1440,900,,,,,0,630,,,,,,,,,,,,,,,,,Y,125,star,1,0,,,,,,,,,,,,,,,,switch,letter,lettSwt,f,1.1292,noRew,,,,,,0,60,0,60,0,1,,,,,,,,,,,,,,,,,
294292,2022-12-02_14h15.44.360,vts_reward_expectancy_bt,2022.2.4,MacIntel,60.04202942,Chrome,1440,900,,,,,0,630,,,,,,,,,,,,,,,,,D,132,circle,1,0,,,,,,,,,,,,,,,,repeat,letter,lettRpt,d,0.6243,noRew,,,,,,0,61,0,61,0,1,,,,,,,,,,,,,,,,,
294292,2022-12-02_14h15.44.360,vts_reward_expectancy_bt,2022.2.4,MacIntel,60.04202942,Chrome,1440,900,,,,,0,630,,,,,,,,,,,,,,,,,B,139,circle,1,0,,,,,,,,,,,,,,,,repeat,letter,lettRpt,d,0.6571,noRew,,,,,,0,62,0,62,0,1,,,,,,,,,,,,,,,,,
294292,2022-12-02_14h15.44.360,vts_reward_expectancy_bt,2022.2.4,MacIntel,60.04202942,Chrome,1440,900,,,,,0,630,,,,,,,,,,,,,,,,,H,167,triangle,1,0,,,,,,,,,,,,,,,,switch,number,numSwt,k,1.3064,noRew,,,,,,0,63,0,63,0,1,,,,,,,,,,,,,,,,,
294292,2022-12-02_14h15.44.360,vts_reward_expectancy_bt,2022.2.4,MacIntel,60.04202942,Chrome,1440,900,,,,,,,,,,,,,,,,,,,,,,,,,,,,,,,,,,,,,,,,,,,,,,,,,,,,,,,,,,,,,,,,,,,,,,,,,,,,
294292,2022-12-02_14h15.44.360,vts_reward_expectancy_bt,2022.2.4,MacIntel,60.04202942,Chrome,1440,900,,,,,0,630,,,,,,,,,,,,,,,,,F,146,circle,1,0,,,,,,,,,,,,,,,,switch,letter,lettSwt,d,0.97,Hi,,,,,,0,,,,,,space,8.7434,low,0,0,0,0,1,,,,,,,,,
294292,2022-12-02_14h15.44.360,vts_reward_expectancy_bt,2022.2.4,MacIntel,60.04202942,Chrome,1440,900,,,,,1,631,,,,,,,,,,,,,,,,,H,132,triangle,1,0,,,,,,,,,,,,,,,,repeat,letter,lettRpt,d,0.6497,Lo,,,,,,0,,,,,,,,low,1,0,1,0,1,,,,,,,,,
294292,2022-12-02_14h15.44.360,vts_reward_expectancy_bt,2022.2.4,MacIntel,60.04202942,Chrome,1440,900,,,,,1,632,,,,,,,,,,,,,,,,,B,167,star,1,0,,,,,,,,,,,,,,,,repeat,letter,lettRpt,d,0.3627,Lo,,,,,,0,,,,,,,,low,2,0,2,0,1,,,,,,,,,
294292,2022-12-02_14h15.44.360,vts_reward_expectancy_bt,2022.2.4,MacIntel,60.04202942,Chrome,1440,900,,,,,10,642,,,,,,,,,,,,,,,,,U,139,hexagon,1,0,,,,,,,,,,,,,,,,switch,number,numSwt,j,0.4592,Hi,,,,,,0,,,,,,,,low,3,0,3,0,1,,,,,,,,,
294292,2022-12-02_14h15.44.360,vts_reward_expectancy_bt,2022.2.4,MacIntel,60.04202942,Chrome,1440,900,,,,,1,643,,,,,,,,,,,,,,,,,Y,181,circle,1,0,,,,,,,,,,,,,,,,repeat,number,numRpt,k,0.3749,Hi,,,,,,0,,,,,,,,low,4,0,4,0,1,,,,,,,,,
294292,2022-12-02_14h15.44.360,vts_reward_expectancy_bt,2022.2.4,MacIntel,60.04202942,Chrome,1440,900,,,,,10,653,,,,,,,,,,,,,,,,,W,160,triangle,1,0,,,,,,,,,,,,,,,,repeat,number,numRpt,k,0.2374,Lo,,,,,,0,,,,,,,,low,5,0,5,0,1,,,,,,,,,
294292,2022-12-02_14h15.44.360,vts_reward_expectancy_bt,2022.2.4,MacIntel,60.04202942,Chrome,1440,900,,,,,1,654,,,,,,,,,,,,,,,,,D,174,star,1,0,,,,,,,,,,,,,,,,repeat,number,numRpt,k,0.264,Lo,,,,,,0,,,,,,,,low,6,0,6,0,1,,,,,,,,,
294292,2022-12-02_14h15.44.360,vts_reward_expectancy_bt,2022.2.4,MacIntel,60.04202942,Chrome,1440,900,,,,,1,655,,,,,,,,,,,,,,,,,S,125,hexagon,1,0,,,,,,,,,,,,,,,,repeat,number,numRpt,j,0.4453,Hi,,,,,,0,,,,,,,,low,7,0,7,0,1,,,,,,,,,
294292,2022-12-02_14h15.44.360,vts_reward_expectancy_bt,2022.2.4,MacIntel,60.04202942,Chrome,1440,900,,,,,1,656,,,,,,,,,,,,,,,,,F,146,triangle,1,0,,,,,,,,,,,,,,,,switch,letter,lettSwt,d,0.2975,Lo,,,,,,0,,,,,,,,low,8,0,8,0,1,,,,,,,,,
294292,2022-12-02_14h15.44.360,vts_reward_expectancy_bt,2022.2.4,MacIntel,60.04202942,Chrome,1440,900,,,,,1,657,,,,,,,,,,,,,,,,,H,132,hexagon,1,0,,,,,,,,,,,,,,,,repeat,letter,lettRpt,d,0.2724,Hi,,,,,,0,,,,,,,,low,9,0,9,0,1,,,,,,,,,
294292,2022-12-02_14h15.44.360,vts_reward_expectancy_bt,2022.2.4,MacIntel,60.04202942,Chrome,1440,900,,,,,1,658,,,,,,,,,,,,,,,,,B,167,circle,1,0,,,,,,,,,,,,,,,,repeat,letter,lettRpt,d,0.4868,Hi,,,,,,0,,,,,,,,low,10,0,10,0,1,,,,,,,,,
294292,2022-12-02_14h15.44.360,vts_reward_expectancy_bt,2022.2.4,MacIntel,60.04202942,Chrome,1440,900,,,,,1,659,,,,,,,,,,,,,,,,,U,139,star,1,0,,,,,,,,,,,,,,,,switch,number,numSwt,j,0.4543,Lo,,,,,,0,,,,,,,,low,11,0,11,0,1,,,,,,,,,
294292,2022-12-02_14h15.44.360,vts_reward_expectancy_bt,2022.2.4,MacIntel,60.04202942,Chrome,1440,900,,,,,1,660,,,,,,,,,,,,,,,,,Y,181,circle,1,0,,,,,,,,,,,,,,,,repeat,number,numRpt,k,0.6134,Hi,,,,,,0,,,,,,,,low,12,0,12,0,1,,,,,,,,,
294292,2022-12-02_14h15.44.360,vts_reward_expectancy_bt,2022.2.4,MacIntel,60.04202942,Chrome,1440,900,,,,,10,670,,,,,,,,,,,,,,,,,W,160,star,1,0,,,,,,,,,,,,,,,,switch,letter,lettSwt,f,0.4041,Lo,,,,,,0,,,,,,,,low,13,0,13,0,1,,,,,,,,,
294292,2022-12-02_14h15.44.360,vts_reward_expectancy_bt,2022.2.4,MacIntel,60.04202942,Chrome,1440,900,,,,,0,670,,,,,,,,,,,,,,,,,D,174,triangle,0,0,,,,,,,,,,,,,,,,repeat,letter,NA,f,0.4736,Lo,,,,,,0,,,,,,,,low,14,0,14,0,1,,,,,,,,,
294292,2022-12-02_14h15.44.360,vts_reward_expectancy_bt,2022.2.4,MacIntel,60.04202942,Chrome,1440,900,,,,,0,670,,,,,,,,,,,,,,,,,S,125,hexagon,0,1,,,,,,,,,,,,,,,,repeat,letter,NA,d,0.5873,Lo,,,,,,0,,,,,,,,low,15,0,15,0,1,,,,,,,,,
294292,2022-12-02_14h15.44.360,vts_reward_expectancy_bt,2022.2.4,MacIntel,60.04202942,Chrome,1440,900,,,,,1,671,,,,,,,,,,,,,,,,,B,181,star,1,1,,,,,,,,,,,,,,,,switch,number,numSwt,k,0.5051,Lo,,,,,,0,,,,,,,,low,16,0,16,0,1,,,,,,,,,
294292,2022-12-02_14h15.44.360,vts_reward_expectancy_bt,2022.2.4,MacIntel,60.04202942,Chrome,1440,900,,,,,1,672,,,,,,,,,,,,,,,,,W,146,triangle,1,0,,,,,,,,,,,,,,,,repeat,number,numRpt,j,0.6543,Lo,,,,,,0,,,,,,,,low,17,0,17,0,1,,,,,,,,,
294292,2022-12-02_14h15.44.360,vts_reward_expectancy_bt,2022.2.4,MacIntel,60.04202942,Chrome,1440,900,,,,,0,672,,,,,,,,,,,,,,,,,U,174,circle,0,0,,,,,,,,,,,,,,,,repeat,number,NA,j,0.3808,Lo,,,,,,0,,,,,,,,low,18,0,18,0,1,,,,,,,,,
294292,2022-12-02_14h15.44.360,vts_reward_expectancy_bt,2022.2.4,MacIntel,60.04202942,Chrome,1440,900,,,,,1,673,,,,,,,,,,,,,,,,,S,132,hexagon,1,1,,,,,,,,,,,,,,,,repeat,number,numRpt,j,0.7273,Hi,,,,,,0,,,,,,,,low,19,0,19,0,1,,,,,,,,,
294292,2022-12-02_14h15.44.360,vts_reward_expectancy_bt,2022.2.4,MacIntel,60.04202942,Chrome,1440,900,,,,,0,673,,,,,,,,,,,,,,,,,Y,167,star,0,0,,,,,,,,,,,,,,,,repeat,number,NA,j,0.4574,Hi,,,,,,0,,,,,,,,low,20,0,20,0,1,,,,,,,,,
294292,2022-12-02_14h15.44.360,vts_reward_expectancy_bt,2022.2.4,MacIntel,60.04202942,Chrome,1440,900,,,,,10,683,,,,,,,,,,,,,,,,,F,125,circle,1,1,,,,,,,,,,,,,,,,repeat,number,numRpt,j,0.6876,Hi,,,,,,0,,,,,,,,low,21,0,21,0,1,,,,,,,,,
294292,2022-12-02_14h15.44.360,vts_reward_expectancy_bt,2022.2.4,MacIntel,60.04202942,Chrome,1440,900,,,,,0,683,,,,,,,,,,,,,,,,,D,139,hexagon,1,0,,,,,,,,,,,,,,,,repeat,number,numRpt,j,0.8101,Hi,,,,,,0,,,,,,,,low,22,0,22,0,1,,,,,,,,,
294292,2022-12-02_14h15.44.360,vts_reward_expectancy_bt,2022.2.4,MacIntel,60.04202942,Chrome,1440,900,,,,,0,683,,,,,,,,,,,,,,,,,H,160,triangle,0,0,,,,,,,,,,,,,,,,repeat,number,NA,j,0.5272,Hi,,,,,,0,,,,,,,,low,23,0,23,0,1,,,,,,,,,
294292,2022-12-02_14h15.44.360,vts_reward_expectancy_bt,2022.2.4,MacIntel,60.04202942,Chrome,1440,900,,,,,10,693,,,,,,,,,,,,,,,,,D,125,hexagon,1,1,,,,,,,,,,,,,,,,switch,letter,lettSwt,d,0.3155,Hi,,,,,,0,,,,,,,,low,24,0,24,0,1,,,,,,,,,
294292,2022-12-02_14h15.44.360,vts_reward_expectancy_bt,2022.2.4,MacIntel,60.04202942,Chrome,1440,900,,,,,1,694,,,,,,,,,,,,,,,,,B,132,circle,1,0,,,,,,,,,,,,,,,,repeat,letter,lettRpt,d,0.3978,Hi,,,,,,0,,,,,,,,low,25,0,25,0,1,,,,,,,,,
294292,2022-12-02_14h15.44.360,vts_reward_expectancy_bt,2022.2.4,MacIntel,60.04202942,Chrome,1440,900,,,,,10,704,,,,,,,,,,,,,,,,,F,167,star,1,0,,,,,,,,,,,,,,,,repeat,letter,lettRpt,d,0.3575,Lo,,,,,,0,,,,,,,,low,26,0,26,0,1,,,,,,,,,
294292,2022-12-02_14h15.44.360,vts_reward_expectancy_bt,2022.2.4,MacIntel,60.04202942,Chrome,1440,900,,,,,0,704,,,,,,,,,,,,,,,,,U,160,triangle,0,0,,,,,,,,,,,,,,,,repeat,letter,NA,d,0.536,Lo,,,,,,0,,,,,,,,low,27,0,27,0,1,,,,,,,,,
294292,2022-12-02_14h15.44.360,vts_reward_expectancy_bt,2022.2.4,MacIntel,60.04202942,Chrome,1440,900,,,,,0,704,,,,,,,,,,,,,,,,,H,139,hexagon,1,1,,,,,,,,,,,,,,,,repeat,letter,lettRpt,d,0.8934,Hi,,,,,,0,,,,,,,,low,28,0,28,0,1,,,,,,,,,
294292,2022-12-02_14h15.44.360,vts_reward_expectancy_bt,2022.2.4,MacIntel,60.04202942,Chrome,1440,900,,,,,1,705,,,,,,,,,,,,,,,,,S,146,triangle,1,0,,,,,,,,,,,,,,,,switch,number,numSwt,j,0.2599,Lo,,,,,,0,,,,,,,,low,29,0,29,0,1,,,,,,,,,
294292,2022-12-02_14h15.44.360,vts_reward_expectancy_bt,2022.2.4,MacIntel,60.04202942,Chrome,1440,900,,,,,0,705,,,,,,,,,,,,,,,,,W,181,star,0,0,,,,,,,,,,,,,,,,repeat,number,NA,j,1.0618,Lo,,,,,,0,,,,,,,,low,30,0,30,0,1,,,,,,,,,
294292,2022-12-02_14h15.44.360,vts_reward_expectancy_bt,2022.2.4,MacIntel,60.04202942,Chrome,1440,900,,,,,1,706,,,,,,,,,,,,,,,,,Y,174,circle,1,1,,,,,,,,,,,,,,,,repeat,number,numRpt,k,0.4537,Hi,,,,,,0,,,,,,,,low,31,0,31,0,1,,,,,,,,,
294292,2022-12-02_14h15.44.360,vts_reward_expectancy_bt,2022.2.4,MacIntel,60.04202942,Chrome,1440,900,,,,,1,707,,,,,,,,,,,,,,,,,H,125,triangle,1,0,,,,,,,,,,,,,,,,switch,letter,lettSwt,d,0.5219,Lo,,,,,,1,,,,,,space,1.6903,low,0,0,0,0,1,,,,,,,,,
294292,2022-12-02_14h15.44.360,vts_reward_expectancy_bt,2022.2.4,MacIntel,60.04202942,Chrome,1440,900,,,,,0,707,,,,,,,,,,,,,,,,,Y,132,circle,1,0,,,,,,,,,,,,,,,,switch,number,numSwt,j,0.538,Hi,,,,,,1,,,,,,,,low,1,0,1,0,1,,,,,,,,,
294292,2022-12-02_14h15.44.360,vts_reward_expectancy_bt,2022.2.4,MacIntel,60.04202942,Chrome,1440,900,,,,,0,707,,,,,,,,,,,,,,,,,B,160,hexagon,1,0,,,,,,,,,,,,,,,,switch,letter,lettSwt,d,0.4589,Hi,,,,,,1,,,,,,,,low,2,0,2,0,1,,,,,,,,,
294292,2022-12-02_14h15.44.360,vts_reward_expectancy_bt,2022.2.4,MacIntel,60.04202942,Chrome,1440,900,,,,,0,707,,,,,,,,,,,,,,,,,W,167,star,0,0,,,,,,,,,,,,,,,,repeat,letter,NA,d,0.2572,Hi,,,,,,1,,,,,,,,low,3,0,3,0,1,,,,,,,,,
294292,2022-12-02_14h15.44.360,vts_reward_expectancy_bt,2022.2.4,MacIntel,60.04202942,Chrome,1440,900,,,,,0,707,,,,,,,,,,,,,,,,,D,146,triangle,0,1,,,,,,,,,,,,,,,,repeat,letter,NA,f,0.9299,Hi,,,,,,1,,,,,,,,low,4,0,4,0,1,,,,,,,,,
294292,2022-12-02_14h15.44.360,vts_reward_expectancy_bt,2022.2.4,MacIntel,60.04202942,Chrome,1440,900,,,,,0,707,,,,,,,,,,,,,,,,,F,139,circle,0,1,,,,,,,,,,,,,,,,repeat,letter,NA,f,0.6193,Hi,,,,,,1,,,,,,,,low,5,0,5,0,1,,,,,,,,,
294292,2022-12-02_14h15.44.360,vts_reward_expectancy_bt,2022.2.4,MacIntel,60.04202942,Chrome,1440,900,,,,,0,707,,,,,,,,,,,,,,,,,U,174,hexagon,1,1,,,,,,,,,,,,,,,,repeat,letter,lettRpt,f,0.6302,Hi,,,,,,1,,,,,,,,low,6,0,6,0,1,,,,,,,,,
294292,2022-12-02_14h15.44.360,vts_reward_expectancy_bt,2022.2.4,MacIntel,60.04202942,Chrome,1440,900,,,,,1,708,,,,,,,,,,,,,,,,,S,181,star,1,0,,,,,,,,,,,,,,,,repeat,letter,lettRpt,f,0.7267,Lo,,,,,,1,,,,,,,,low,7,0,7,0,1,,,,,,,,,
294292,2022-12-02_14h15.44.360,vts_reward_expectancy_bt,2022.2.4,MacIntel,60.04202942,Chrome,1440,900,,,,,0,708,,,,,,,,,,,,,,,,,H,125,hexagon,0,0,,,,,,,,,,,,,,,,repeat,letter,NA,f,0.7929,Lo,,,,,,1,,,,,,,,low,8,0,8,0,1,,,,,,,,,
294292,2022-12-02_14h15.44.360,vts_reward_expectancy_bt,2022.2.4,MacIntel,60.04202942,Chrome,1440,900,,,,,0,708,,,,,,,,,,,,,,,,,Y,132,circle,-1,1,,,,,,,,,,,,,,,,switch,no_choice,NA,,,Lo,,,,,,1,,,,,,,,low,9,0,9,0,1,,,,,,,,,
294292,2022-12-02_14h15.44.360,vts_reward_expectancy_bt,2022.2.4,MacIntel,60.04202942,Chrome,1440,900,,,,,1,709,,,,,,,,,,,,,,,,,B,160,star,1,0,,,,,,,,,,,,,,,,switch,letter,lettSwt,d,0.4907,Lo,,,,,,1,,,,,,,,low,10,0,10,0,1,,,,,,,,,
294292,2022-12-02_14h15.44.360,vts_reward_expectancy_bt,2022.2.4,MacIntel,60.04202942,Chrome,1440,900,,,,,1,710,,,,,,,,,,,,,,,,,W,167,triangle,1,0,,,,,,,,,,,,,,,,repeat,letter,lettRpt,f,0.5939,Lo,,,,,,1,,,,,,,,low,11,0,11,0,1,,,,,,,,,
294292,2022-12-02_14h15.44.360,vts_reward_expectancy_bt,2022.2.4,MacIntel,60.04202942,Chrome,1440,900,,,,,10,720,,,,,,,,,,,,,,,,,D,146,triangle,1,0,,,,,,,,,,,,,,,,repeat,letter,lettRpt,d,1.0937,Lo,,,,,,1,,,,,,,,low,12,0,12,0,1,,,,,,,,,
294292,2022-12-02_14h15.44.360,vts_reward_expectancy_bt,2022.2.4,MacIntel,60.04202942,Chrome,1440,900,,,,,0,720,,,,,,,,,,,,,,,,,F,139,circle,0,0,,,,,,,,,,,,,,,,repeat,letter,NA,f,0.6334,Lo,,,,,,1,,,,,,,,low,13,0,13,0,1,,,,,,,,,
294292,2022-12-02_14h15.44.360,vts_reward_expectancy_bt,2022.2.4,MacIntel,60.04202942,Chrome,1440,900,,,,,10,730,,,,,,,,,,,,,,,,,U,174,star,1,1,,,,,,,,,,,,,,,,repeat,letter,lettRpt,f,0.6479,Lo,,,,,,1,,,,,,,,low,14,0,14,0,1,,,,,,,,,
294292,2022-12-02_14h15.44.360,vts_reward_expectancy_bt,2022.2.4,MacIntel,60.04202942,Chrome,1440,900,,,,,0,730,,,,,,,,,,,,,,,,,S,181,hexagon,1,0,,,,,,,,,,,,,,,,repeat,letter,lettRpt,f,0.7075,Hi,,,,,,1,,,,,,,,low,15,0,15,0,1,,,,,,,,,
294292,2022-12-02_14h15.44.360,vts_reward_expectancy_bt,2022.2.4,MacIntel,60.04202942,Chrome,1440,900,,,,,0,730,,,,,,,,,,,,,,,,,F,181,hexagon,0,0,,,,,,,,,,,,,,,,switch,number,NA,j,1.4234,Hi,,,,,,1,,,,,,,,low,16,0,16,0,1,,,,,,,,,
294292,2022-12-02_14h15.44.360,vts_reward_expectancy_bt,2022.2.4,MacIntel,60.04202942,Chrome,1440,900,,,,,0,730,,,,,,,,,,,,,,,,,U,139,star,0,1,,,,,,,,,,,,,,,,repeat,number,NA,k,2.0207,Hi,,,,,,1,,,,,,,,low,17,0,17,0,1,,,,,,,,,
294292,2022-12-02_14h15.44.360,vts_reward_expectancy_bt,2022.2.4,MacIntel,60.04202942,Chrome,1440,900,,,,,1,731,,,,,,,,,,,,,,,,,Y,125,triangle,1,1,,,,,,,,,,,,,,,,repeat,number,numRpt,j,0.6957,Lo,,,,,,1,,,,,,,,low,18,0,18,0,1,,,,,,,,,
294292,2022-12-02_14h15.44.360,vts_reward_expectancy_bt,2022.2.4,MacIntel,60.04202942,Chrome,1440,900,,,,,0,731,,,,,,,,,,,,,,,,,D,167,circle,1,0,,,,,,,,,,,,,,,,repeat,number,numRpt,k,0.6039,Hi,,,,,,1,,,,,,,,low,19,0,19,0,1,,,,,,,,,
294292,2022-12-02_14h15.44.360,vts_reward_expectancy_bt,2022.2.4,MacIntel,60.04202942,Chrome,1440,900,,,,,0,731,,,,,,,,,,,,,,,,,H,132,circle,0,0,,,,,,,,,,,,,,,,repeat,number,NA,k,0.5253,Hi,,,,,,1,,,,,,,,low,20,0,20,0,1,,,,,,,,,
294292,2022-12-02_14h15.44.360,vts_reward_expectancy_bt,2022.2.4,MacIntel,60.04202942,Chrome,1440,900,,,,,1,732,,,,,,,,,,,,,,,,,S,146,star,1,1,,,,,,,,,,,,,,,,repeat,number,numRpt,j,0.5895,Lo,,,,,,1,,,,,,,,low,21,0,21,0,1,,,,,,,,,
294292,2022-12-02_14h15.44.360,vts_reward_expectancy_bt,2022.2.4,MacIntel,60.04202942,Chrome,1440,900,,,,,1,733,,,,,,,,,,,,,,,,,B,160,triangle,1,0,,,,,,,,,,,,,,,,repeat,number,numRpt,k,0.7894,Lo,,,,,,1,,,,,,,,low,22,0,22,0,1,,,,,,,,,
294292,2022-12-02_14h15.44.360,vts_reward_expectancy_bt,2022.2.4,MacIntel,60.04202942,Chrome,1440,900,,,,,0,733,,,,,,,,,,,,,,,,,W,174,hexagon,1,0,,,,,,,,,,,,,,,,repeat,number,numRpt,k,0.8308,Hi,,,,,,1,,,,,,,,low,23,0,23,0,1,,,,,,,,,
294292,2022-12-02_14h15.44.360,vts_reward_expectancy_bt,2022.2.4,MacIntel,60.04202942,Chrome,1440,900,,,,,1,734,,,,,,,,,,,,,,,,,Y,181,triangle,1,0,,,,,,,,,,,,,,,,repeat,number,numRpt,k,0.6468,Lo,,,,,,1,,,,,,,,low,24,0,24,0,1,,,,,,,,,
294292,2022-12-02_14h15.44.360,vts_reward_expectancy_bt,2022.2.4,MacIntel,60.04202942,Chrome,1440,900,,,,,0,734,,,,,,,,,,,,,,,,,U,160,circle,1,0,,,,,,,,,,,,,,,,repeat,number,numRpt,k,0.8066,Hi,,,,,,1,,,,,,,,low,25,0,25,0,1,,,,,,,,,
294292,2022-12-02_14h15.44.360,vts_reward_expectancy_bt,2022.2.4,MacIntel,60.04202942,Chrome,1440,900,,,,,1,735,,,,,,,,,,,,,,,,,D,167,star,1,0,,,,,,,,,,,,,,,,repeat,number,numRpt,k,0.9279,Lo,,,,,,1,,,,,,,,low,26,0,26,0,1,,,,,,,,,
294292,2022-12-02_14h15.44.360,vts_reward_expectancy_bt,2022.2.4,MacIntel,60.04202942,Chrome,1440,900,,,,,0,735,,,,,,,,,,,,,,,,,H,125,hexagon,1,0,,,,,,,,,,,,,,,,repeat,number,numRpt,j,0.7215,Hi,,,,,,1,,,,,,,,low,27,0,27,0,1,,,,,,,,,
294292,2022-12-02_14h15.44.360,vts_reward_expectancy_bt,2022.2.4,MacIntel,60.04202942,Chrome,1440,900,,,,,0,735,,,,,,,,,,,,,,,,,S,139,circle,0,0,,,,,,,,,,,,,,,,switch,letter,NA,d,0.3752,Hi,,,,,,1,,,,,,,,low,28,0,28,0,1,,,,,,,,,
294292,2022-12-02_14h15.44.360,vts_reward_expectancy_bt,2022.2.4,MacIntel,60.04202942,Chrome,1440,900,,,,,10,745,,,,,,,,,,,,,,,,,F,132,triangle,1,1,,,,,,,,,,,,,,,,switch,number,numSwt,j,0.7873,Lo,,,,,,1,,,,,,,,low,29,0,29,0,1,,,,,,,,,
294292,2022-12-02_14h15.44.360,vts_reward_expectancy_bt,2022.2.4,MacIntel,60.04202942,Chrome,1440,900,,,,,0,745,,,,,,,,,,,,,,,,,B,174,hexagon,0,0,,,,,,,,,,,,,,,,repeat,number,NA,j,0.481,Lo,,,,,,1,,,,,,,,low,30,0,30,0,1,,,,,,,,,
294292,2022-12-02_14h15.44.360,vts_reward_expectancy_bt,2022.2.4,MacIntel,60.04202942,Chrome,1440,900,,,,,1,746,,,,,,,,,,,,,,,,,W,146,star,1,1,,,,,,,,,,,,,,,,switch,letter,lettSwt,f,0.3756,Lo,,,,,,1,,,,,,,,low,31,0,31,0,1,,,,,,,,,
294292,2022-12-02_14h15.44.360,vts_reward_expectancy_bt,2022.2.4,MacIntel,60.04202942,Chrome,1440,900,,,,,1,747,,,,,,,,,,,,,,,,,S,139,star,1,0,,,,,,,,,,,,,,,,repeat,letter,lettRpt,f,1.0287,Lo,,,,,,2,,,,,,space,1.2927,low,0,0,0,0,1,,,,,,,,,
294292,2022-12-02_14h15.44.360,vts_reward_expectancy_bt,2022.2.4,MacIntel,60.04202942,Chrome,1440,900,,,,,0,747,,,,,,,,,,,,,,,,,H,181,hexagon,0,0,,,,,,,,,,,,,,,,repeat,letter,NA,f,0.4582,Lo,,,,,,2,,,,,,,,low,1,0,1,0,1,,,,,,,,,
294292,2022-12-02_14h15.44.360,vts_reward_expectancy_bt,2022.2.4,MacIntel,60.04202942,Chrome,1440,900,,,,,1,748,,,,,,,,,,,,,,,,,Y,125,circle,1,1,,,,,,,,,,,,,,,,switch,number,numSwt,j,0.4386,Hi,,,,,,2,,,,,,,,low,2,0,2,0,1,,,,,,,,,
294292,2022-12-02_14h15.44.360,vts_reward_expectancy_bt,2022.2.4,MacIntel,60.04202942,Chrome,1440,900,,,,,1,749,,,,,,,,,,,,,,,,,F,132,triangle,1,0,,,,,,,,,,,,,,,,repeat,number,numRpt,j,0.6378,Lo,,,,,,2,,,,,,,,low,3,0,3,0,1,,,,,,,,,
294292,2022-12-02_14h15.44.360,vts_reward_expectancy_bt,2022.2.4,MacIntel,60.04202942,Chrome,1440,900,,,,,0,749,,,,,,,,,,,,,,,,,U,174,star,0,0,,,,,,,,,,,,,,,,repeat,number,NA,j,0.2957,Lo,,,,,,2,,,,,,,,low,4,0,4,0,1,,,,,,,,,
294292,2022-12-02_14h15.44.360,vts_reward_expectancy_bt,2022.2.4,MacIntel,60.04202942,Chrome,1440,900,,,,,0,749,,,,,,,,,,,,,,,,,B,160,hexagon,0,1,,,,,,,,,,,,,,,,switch,letter,NA,f,0.3931,Lo,,,,,,2,,,,,,,,low,5,0,5,0,1,,,,,,,,,
294292,2022-12-02_14h15.44.360,vts_reward_expectancy_bt,2022.2.4,MacIntel,60.04202942,Chrome,1440,900,,,,,0,749,,,,,,,,,,,,,,,,,D,146,circle,1,1,,,,,,,,,,,,,,,,repeat,letter,lettRpt,d,0.7787,Hi,,,,,,2,,,,,,,,low,6,0,6,0,1,,,,,,,,,
294292,2022-12-02_14h15.44.360,vts_reward_expectancy_bt,2022.2.4,MacIntel,60.04202942,Chrome,1440,900,,,,,1,750,,,,,,,,,,,,,,,,,W,167,triangle,1,0,,,,,,,,,,,,,,,,repeat,letter,lettRpt,f,1.5188,Lo,,,,,,2,,,,,,,,low,7,0,7,0,1,,,,,,,,,
294292,2022-12-02_14h15.44.360,vts_reward_expectancy_bt,2022.2.4,MacIntel,60.04202942,Chrome,1440,900,,,,,1,751,,,,,,,,,,,,,,,,,S,139,star,1,0,,,,,,,,,,,,,,,,switch,number,numSwt,j,0.685,Lo,,,,,,2,,,,,,,,low,8,0,8,0,1,,,,,,,,,
294292,2022-12-02_14h15.44.360,vts_reward_expectancy_bt,2022.2.4,MacIntel,60.04202942,Chrome,1440,900,,,,,0,751,,,,,,,,,,,,,,,,,H,181,hexagon,1,0,,,,,,,,,,,,,,,,repeat,number,numRpt,k,1.0707,Hi,,,,,,2,,,,,,,,low,9,0,9,0,1,,,,,,,,,
294292,2022-12-02_14h15.44.360,vts_reward_expectancy_bt,2022.2.4,MacIntel,60.04202942,Chrome,1440,900,,,,,10,761,,,,,,,,,,,,,,,,,Y,125,triangle,1,0,,,,,,,,,,,,,,,,repeat,number,numRpt,j,0.6655,Lo,,,,,,2,,,,,,,,low,10,0,10,0,1,,,,,,,,,
294292,2022-12-02_14h15.44.360,vts_reward_expectancy_bt,2022.2.4,MacIntel,60.04202942,Chrome,1440,900,,,,,10,771,,,,,,,,,,,,,,,,,F,132,circle,1,0,,,,,,,,,,,,,,,,repeat,number,numRpt,j,0.6086,Hi,,,,,,2,,,,,,,,low,11,0,11,0,1,,,,,,,,,
294292,2022-12-02_14h15.44.360,vts_reward_expectancy_bt,2022.2.4,MacIntel,60.04202942,Chrome,1440,900,,,,,0,771,,,,,,,,,,,,,,,,,U,174,hexagon,1,0,,,,,,,,,,,,,,,,repeat,number,numRpt,k,0.7258,Hi,,,,,,2,,,,,,,,low,12,0,12,0,1,,,,,,,,,
294292,2022-12-02_14h15.44.360,vts_reward_expectancy_bt,2022.2.4,MacIntel,60.04202942,Chrome,1440,900,,,,,1,772,,,,,,,,,,,,,,,,,B,160,star,1,0,,,,,,,,,,,,,,,,switch,letter,lettSwt,d,0.4866,Lo,,,,,,2,,,,,,,,low,13,0,13,0,1,,,,,,,,,
294292,2022-12-02_14h15.44.360,vts_reward_expectancy_bt,2022.2.4,MacIntel,60.04202942,Chrome,1440,900,,,,,10,782,,,,,,,,,,,,,,,,,D,146,circle,1,0,,,,,,,,,,,,,,,,repeat,letter,lettRpt,d,0.6249,Hi,,,,,,2,,,,,,,,low,14,0,14,0,1,,,,,,,,,
294292,2022-12-02_14h15.44.360,vts_reward_expectancy_bt,2022.2.4,MacIntel,60.04202942,Chrome,1440,900,,,,,1,783,,,,,,,,,,,,,,,,,W,167,triangle,1,0,,,,,,,,,,,,,,,,repeat,letter,lettRpt,f,0.5281,Lo,,,,,,2,,,,,,,,low,15,0,15,0,1,,,,,,,,,
294292,2022-12-02_14h15.44.360,vts_reward_expectancy_bt,2022.2.4,MacIntel,60.04202942,Chrome,1440,900,,,,,1,784,,,,,,,,,,,,,,,,,F,146,star,1,0,,,,,,,,,,,,,,,,repeat,letter,lettRpt,d,0.6346,Lo,,,,,,2,,,,,,,,low,16,0,16,0,1,,,,,,,,,
294292,2022-12-02_14h15.44.360,vts_reward_expectancy_bt,2022.2.4,MacIntel,60.04202942,Chrome,1440,900,,,,,0,784,,,,,,,,,,,,,,,,,B,125,hexagon,1,0,,,,,,,,,,,,,,,,repeat,letter,lettRpt,d,1.0593,Hi,,,,,,2,,,,,,,,low,17,0,17,0,1,,,,,,,,,
294292,2022-12-02_14h15.44.360,vts_reward_expectancy_bt,2022.2.4,MacIntel,60.04202942,Chrome,1440,900,,,,,0,784,,,,,,,,,,,,,,,,,S,167,circle,1,0,,,,,,,,,,,,,,,,repeat,letter,lettRpt,f,0.9954,Hi,,,,,,2,,,,,,,,low,18,0,18,0,1,,,,,,,,,
294292,2022-12-02_14h15.44.360,vts_reward_expectancy_bt,2022.2.4,MacIntel,60.04202942,Chrome,1440,900,,,,,10,794,,,,,,,,,,,,,,,,,D,139,triangle,1,0,,,,,,,,,,,,,,,,repeat,letter,lettRpt,d,1.7538,Lo,,,,,,2,,,,,,,,low,19,0,19,0,1,,,,,,,,,
294292,2022-12-02_14h15.44.360,vts_reward_expectancy_bt,2022.2.4,MacIntel,60.04202942,Chrome,1440,900,,,,,1,795,,,,,,,,,,,,,,,,,H,132,star,1,0,,,,,,,,,,,,,,,,repeat,letter,lettRpt,d,1.0923,Lo,,,,,,2,,,,,,,,low,20,0,20,0,1,,,,,,,,,
294292,2022-12-02_14h15.44.360,vts_reward_expectancy_bt,2022.2.4,MacIntel,60.04202942,Chrome,1440,900,,,,,0,795,,,,,,,,,,,,,,,,,Y,160,circle,1,0,,,,,,,,,,,,,,,,switch,number,numSwt,k,0.6926,Hi,,,,,,2,,,,,,,,low,21,0,21,0,1,,,,,,,,,
294292,2022-12-02_14h15.44.360,vts_reward_expectancy_bt,2022.2.4,MacIntel,60.04202942,Chrome,1440,900,,,,,0,795,,,,,,,,,,,,,,,,,U,174,triangle,0,0,,,,,,,,,,,,,,,,repeat,number,NA,j,1.6929,Hi,,,,,,2,,,,,,,,low,22,0,22,0,1,,,,,,,,,
294292,2022-12-02_14h15.44.360,vts_reward_expectancy_bt,2022.2.4,MacIntel,60.04202942,Chrome,1440,900,,,,,10,805,,,,,,,,,,,,,,,,,W,181,hexagon,1,1,,,,,,,,,,,,,,,,repeat,number,numRpt,k,0.6045,Hi,,,,,,2,,,,,,,,low,23,0,23,0,1,,,,,,,,,
294292,2022-12-02_14h15.44.360,vts_reward_expectancy_bt,2022.2.4,MacIntel,60.04202942,Chrome,1440,900,,,,,1,806,,,,,,,,,,,,,,,,,S,181,star,1,0,,,,,,,,,,,,,,,,repeat,number,numRpt,k,0.4094,Lo,,,,,,2,,,,,,,,low,24,0,24,0,1,,,,,,,,,
294292,2022-12-02_14h15.44.360,vts_reward_expectancy_bt,2022.2.4,MacIntel,60.04202942,Chrome,1440,900,,,,,1,807,,,,,,,,,,,,,,,,,H,146,triangle,1,0,,,,,,,,,,,,,,,,repeat,number,numRpt,j,1.3286,Lo,,,,,,2,,,,,,,,low,25,0,25,0,1,,,,,,,,,
294292,2022-12-02_14h15.44.360,vts_reward_expectancy_bt,2022.2.4,MacIntel,60.04202942,Chrome,1440,900,,,,,0,807,,,,,,,,,,,,,,,,,U,139,circle,1,0,,,,,,,,,,,,,,,,repeat,number,numRpt,j,1.5407,Hi,,,,,,2,,,,,,,,low,26,0,26,0,1,,,,,,,,,
294292,2022-12-02_14h15.44.360,vts_reward_expectancy_bt,2022.2.4,MacIntel,60.04202942,Chrome,1440,900,,,,,0,807,,,,,,,,,,,,,,,,,D,132,hexagon,1,0,,,,,,,,,,,,,,,,switch,letter,lettSwt,d,1.131,Hi,,,,,,2,,,,,,,,low,27,0,27,0,1,,,,,,,,,
294292,2022-12-02_14h15.44.360,vts_reward_expectancy_bt,2022.2.4,MacIntel,60.04202942,Chrome,1440,900,,,,,0,807,,,,,,,,,,,,,,,,,W,167,hexagon,1,0,,,,,,,,,,,,,,,,repeat,letter,lettRpt,f,0.927,Hi,,,,,,2,,,,,,,,low,28,0,28,0,1,,,,,,,,,
294292,2022-12-02_14h15.44.360,vts_reward_expectancy_bt,2022.2.4,MacIntel,60.04202942,Chrome,1440,900,,,,,0,807,,,,,,,,,,,,,,,,,Y,174,circle,1,0,,,,,,,,,,,,,,,,repeat,letter,lettRpt,f,1.0848,Hi,,,,,,2,,,,,,,,low,29,0,29,0,1,,,,,,,,,
294292,2022-12-02_14h15.44.360,vts_reward_expectancy_bt,2022.2.4,MacIntel,60.04202942,Chrome,1440,900,,,,,1,808,,,,,,,,,,,,,,,,,F,125,triangle,1,0,,,,,,,,,,,,,,,,repeat,letter,lettRpt,d,1.405,Lo,,,,,,2,,,,,,,,low,30,0,30,0,1,,,,,,,,,
294292,2022-12-02_14h15.44.360,vts_reward_expectancy_bt,2022.2.4,MacIntel,60.04202942,Chrome,1440,900,,,,,1,809,,,,,,,,,,,,,,,,,B,160,star,1,0,,,,,,,,,,,,,,,,repeat,letter,lettRpt,d,1.5735,Lo,,,,,,2,,,,,,,,low,31,0,31,0,1,,,,,,,,,
294292,2022-12-02_14h15.44.360,vts_reward_expectancy_bt,2022.2.4,MacIntel,60.04202942,Chrome,1440,900,,,,,0,809,,,,,,,,,,,,,,,,,Y,146,circle,1,0,,,,,,,,,,,,,,,,switch,number,numSwt,j,1.4042,Hi,,,,,,3,,,,,,space,0.7874,low,0,0,0,0,1,,,,,,,,,
294292,2022-12-02_14h15.44.360,vts_reward_expectancy_bt,2022.2.4,MacIntel,60.04202942,Chrome,1440,900,,,,,0,809,,,,,,,,,,,,,,,,,F,167,hexagon,0,0,,,,,,,,,,,,,,,,repeat,number,NA,j,0.5635,Hi,,,,,,3,,,,,,,,low,1,0,1,0,1,,,,,,,,,
294292,2022-12-02_14h15.44.360,vts_reward_expectancy_bt,2022.2.4,MacIntel,60.04202942,Chrome,1440,900,,,,,10,819,,,,,,,,,,,,,,,,,D,174,star,1,1,,,,,,,,,,,,,,,,repeat,number,numRpt,k,1.1289,Lo,,,,,,3,,,,,,,,low,2,0,2,0,1,,,,,,,,,
294292,2022-12-02_14h15.44.360,vts_reward_expectancy_bt,2022.2.4,MacIntel,60.04202942,Chrome,1440,900,,,,,1,820,,,,,,,,,,,,,,,,,W,125,triangle,1,0,,,,,,,,,,,,,,,,repeat,number,numRpt,j,0.6923,Lo,,,,,,3,,,,,,,,low,3,0,3,0,1,,,,,,,,,
294292,2022-12-02_14h15.44.360,vts_reward_expectancy_bt,2022.2.4,MacIntel,60.04202942,Chrome,1440,900,,,,,0,820,,,,,,,,,,,,,,,,,B,139,circle,1,0,,,,,,,,,,,,,,,,repeat,number,numRpt,j,0.6279,Hi,,,,,,3,,,,,,,,low,4,0,4,0,1,,,,,,,,,
294292,2022-12-02_14h15.44.360,vts_reward_expectancy_bt,2022.2.4,MacIntel,60.04202942,Chrome,1440,900,,,,,0,820,,,,,,,,,,,,,,,,,U,160,hexagon,1,0,,,,,,,,,,,,,,,,switch,letter,lettSwt,f,1.1042,Hi,,,,,,3,,,,,,,,low,5,0,5,0,1,,,,,,,,,
294292,2022-12-02_14h15.44.360,vts_reward_expectancy_bt,2022.2.4,MacIntel,60.04202942,Chrome,1440,900,,,,,10,830,,,,,,,,,,,,,,,,,S,181,star,1,0,,,,,,,,,,,,,,,,switch,number,numSwt,k,1.3116,Lo,,,,,,3,,,,,,,,low,6,0,6,0,1,,,,,,,,,
294292,2022-12-02_14h15.44.360,vts_reward_expectancy_bt,2022.2.4,MacIntel,60.04202942,Chrome,1440,900,,,,,1,831,,,,,,,,,,,,,,,,,H,132,triangle,1,0,,,,,,,,,,,,,,,,repeat,number,numRpt,j,0.6905,Lo,,,,,,3,,,,,,,,low,7,0,7,0,1,,,,,,,,,
294292,2022-12-02_14h15.44.360,vts_reward_expectancy_bt,2022.2.4,MacIntel,60.04202942,Chrome,1440,900,,,,,10,841,,,,,,,,,,,,,,,,,Y,146,star,1,0,,,,,,,,,,,,,,,,repeat,number,numRpt,j,0.6657,Lo,,,,,,3,,,,,,,,low,8,0,8,0,1,,,,,,,,,
294292,2022-12-02_14h15.44.360,vts_reward_expectancy_bt,2022.2.4,MacIntel,60.04202942,Chrome,1440,900,,,,,0,841,,,,,,,,,,,,,,,,,F,167,hexagon,0,0,,,,,,,,,,,,,,,,repeat,number,NA,j,0.7775,Lo,,,,,,3,,,,,,,,low,9,0,9,0,1,,,,,,,,,
294292,2022-12-02_14h15.44.360,vts_reward_expectancy_bt,2022.2.4,MacIntel,60.04202942,Chrome,1440,900,,,,,10,851,,,,,,,,,,,,,,,,,D,174,triangle,1,1,,,,,,,,,,,,,,,,repeat,number,numRpt,k,0.9068,Lo,,,,,,3,,,,,,,,low,10,0,10,0,1,,,,,,,,,
294292,2022-12-02_14h15.44.360,vts_reward_expectancy_bt,2022.2.4,MacIntel,60.04202942,Chrome,1440,900,,,,,0,851,,,,,,,,,,,,,,,,,W,125,circle,1,0,,,,,,,,,,,,,,,,repeat,number,numRpt,j,0.8058,Hi,,,,,,3,,,,,,,,low,11,0,11,0,1,,,,,,,,,
294292,2022-12-02_14h15.44.360,vts_reward_expectancy_bt,2022.2.4,MacIntel,60.04202942,Chrome,1440,900,,,,,0,851,,,,,,,,,,,,,,,,,B,139,hexagon,1,0,,,,,,,,,,,,,,,,switch,letter,lettSwt,d,1.1318,Hi,,,,,,3,,,,,,,,low,12,0,12,0,1,,,,,,,,,
294292,2022-12-02_14h15.44.360,vts_reward_expectancy_bt,2022.2.4,MacIntel,60.04202942,Chrome,1440,900,,,,,10,861,,,,,,,,,,,,,,,,,U,160,star,1,0,,,,,,,,,,,,,,,,repeat,letter,lettRpt,f,0.7639,Lo,,,,,,3,,,,,,,,low,13,0,13,0,1,,,,,,,,,
294292,2022-12-02_14h15.44.360,vts_reward_expectancy_bt,2022.2.4,MacIntel,60.04202942,Chrome,1440,900,,,,,10,871,,,,,,,,,,,,,,,,,S,181,circle,1,0,,,,,,,,,,,,,,,,repeat,letter,lettRpt,f,0.8461,Hi,,,,,,3,,,,,,,,low,14,0,14,0,1,,,,,,,,,
294292,2022-12-02_14h15.44.360,vts_reward_expectancy_bt,2022.2.4,MacIntel,60.04202942,Chrome,1440,900,,,,,10,881,,,,,,,,,,,,,,,,,H,132,triangle,1,0,,,,,,,,,,,,,,,,switch,number,numSwt,j,1.3303,Lo,,,,,,3,,,,,,,,low,15,0,15,0,1,,,,,,,,,
294292,2022-12-02_14h15.44.360,vts_reward_expectancy_bt,2022.2.4,MacIntel,60.04202942,Chrome,1440,900,,,,,0,881,,,,,,,,,,,,,,,,,W,160,circle,1,0,,,,,,,,,,,,,,,,switch,letter,lettSwt,f,1.9094,Hi,,,,,,3,,,,,,,,low,16,0,16,0,1,,,,,,,,,
294292,2022-12-02_14h15.44.360,vts_reward_expectancy_bt,2022.2.4,MacIntel,60.04202942,Chrome,1440,900,,,,,10,891,,,,,,,,,,,,,,,,,D,167,star,1,0,,,,,,,,,,,,,,,,repeat,letter,lettRpt,d,1.1385,Lo,,,,,,3,,,,,,,,low,17,0,17,0,1,,,,,,,,,
294292,2022-12-02_14h15.44.360,vts_reward_expectancy_bt,2022.2.4,MacIntel,60.04202942,Chrome,1440,900,,,,,1,892,,,,,,,,,,,,,,,,,Y,132,triangle,1,0,,,,,,,,,,,,,,,,repeat,letter,lettRpt,f,0.9818,Lo,,,,,,3,,,,,,,,low,18,0,18,0,1,,,,,,,,,
294292,2022-12-02_14h15.44.360,vts_reward_expectancy_bt,2022.2.4,MacIntel,60.04202942,Chrome,1440,900,,,,,10,902,,,,,,,,,,,,,,,,,B,139,hexagon,1,0,,,,,,,,,,,,,,,,repeat,letter,lettRpt,d,0.6289,Hi,,,,,,3,,,,,,,,low,19,0,19,0,1,,,,,,,,,
294292,2022-12-02_14h15.44.360,vts_reward_expectancy_bt,2022.2.4,MacIntel,60.04202942,Chrome,1440,900,,,,,1,903,,,,,,,,,,,,,,,,,F,146,triangle,1,0,,,,,,,,,,,,,,,,repeat,letter,lettRpt,d,0.8261,Lo,,,,,,3,,,,,,,,low,20,0,20,0,1,,,,,,,,,
294292,2022-12-02_14h15.44.360,vts_reward_expectancy_bt,2022.2.4,MacIntel,60.04202942,Chrome,1440,900,,,,,1,904,,,,,,,,,,,,,,,,,S,125,star,1,0,,,,,,,,,,,,,,,,switch,number,numSwt,j,1.3186,Lo,,,,,,3,,,,,,,,low,21,0,21,0,1,,,,,,,,,
294292,2022-12-02_14h15.44.360,vts_reward_expectancy_bt,2022.2.4,MacIntel,60.04202942,Chrome,1440,900,,,,,0,904,,,,,,,,,,,,,,,,,H,181,circle,1,0,,,,,,,,,,,,,,,,repeat,number,numRpt,k,1.484,Hi,,,,,,3,,,,,,,,low,22,0,22,0,1,,,,,,,,,
294292,2022-12-02_14h15.44.360,vts_reward_expectancy_bt,2022.2.4,MacIntel,60.04202942,Chrome,1440,900,,,,,0,904,,,,,,,,,,,,,,,,,U,174,hexagon,1,0,,,,,,,,,,,,,,,,repeat,number,numRpt,k,0.848,Hi,,,,,,3,,,,,,,,low,23,0,23,0,1,,,,,,,,,
294292,2022-12-02_14h15.44.360,vts_reward_expectancy_bt,2022.2.4,MacIntel,60.04202942,Chrome,1440,900,,,,,1,905,,,,,,,,,,,,,,,,,F,174,star,1,0,,,,,,,,,,,,,,,,repeat,number,numRpt,k,0.7614,Lo,,,,,,3,,,,,,,,low,24,0,24,0,1,,,,,,,,,
294292,2022-12-02_14h15.44.360,vts_reward_expectancy_bt,2022.2.4,MacIntel,60.04202942,Chrome,1440,900,,,,,1,906,,,,,,,,,,,,,,,,,D,132,triangle,1,0,,,,,,,,,,,,,,,,repeat,number,numRpt,j,0.841,Lo,,,,,,3,,,,,,,,low,25,0,25,0,1,,,,,,,,,
294292,2022-12-02_14h15.44.360,vts_reward_expectancy_bt,2022.2.4,MacIntel,60.04202942,Chrome,1440,900,,,,,0,906,,,,,,,,,,,,,,,,,S,139,hexagon,1,0,,,,,,,,,,,,,,,,repeat,number,numRpt,j,1.1945,Hi,,,,,,3,,,,,,,,low,26,0,26,0,1,,,,,,,,,
294292,2022-12-02_14h15.44.360,vts_reward_expectancy_bt,2022.2.4,MacIntel,60.04202942,Chrome,1440,900,,,,,0,906,,,,,,,,,,,,,,,,,U,181,circle,1,0,,,,,,,,,,,,,,,,repeat,number,numRpt,k,1.0521,Hi,,,,,,3,,,,,,,,low,27,0,27,0,1,,,,,,,,,
294292,2022-12-02_14h15.44.360,vts_reward_expectancy_bt,2022.2.4,MacIntel,60.04202942,Chrome,1440,900,,,,,10,916,,,,,,,,,,,,,,,,,W,125,triangle,1,0,,,,,,,,,,,,,,,,repeat,number,numRpt,j,0.8208,Lo,,,,,,3,,,,,,,,low,28,0,28,0,1,,,,,,,,,
294292,2022-12-02_14h15.44.360,vts_reward_expectancy_bt,2022.2.4,MacIntel,60.04202942,Chrome,1440,900,,,,,0,916,,,,,,,,,,,,,,,,,H,160,hexagon,1,0,,,,,,,,,,,,,,,,repeat,number,numRpt,k,1.1917,Hi,,,,,,3,,,,,,,,low,29,0,29,0,1,,,,,,,,,
294292,2022-12-02_14h15.44.360,vts_reward_expectancy_bt,2022.2.4,MacIntel,60.04202942,Chrome,1440,900,,,,,0,916,,,,,,,,,,,,,,,,,B,167,circle,1,0,,,,,,,,,,,,,,,,switch,letter,lettSwt,d,1.2986,Hi,,,,,,3,,,,,,,,low,30,0,30,0,1,,,,,,,,,
294292,2022-12-02_14h15.44.360,vts_reward_expectancy_bt,2022.2.4,MacIntel,60.04202942,Chrome,1440,900,,,,,0,916,,,,,,,,,,,,,,,,,Y,146,star,-1,0,,,,,,,,,,,,,,,,switch,no_choice,NA,,,Hi,,,,,,3,,,,,,,,low,31,0,31,0,1,,,,,,,,,
294292,2022-12-02_14h15.44.360,vts_reward_expectancy_bt,2022.2.4,MacIntel,60.04202942,Chrome,1440,900,,,,,1,917,,,,,,,,,,,,,,,,,F,167,star,1,0,,,,,,,,,,,,,,,,switch,number,numSwt,k,1.2892,Lo,,,,,,4,,,,,,space,2.4788,low,0,0,0,0,1,,,,,,,,,
294292,2022-12-02_14h15.44.360,vts_reward_expectancy_bt,2022.2.4,MacIntel,60.04202942,Chrome,1440,900,,,,,1,918,,,,,,,,,,,,,,,,,B,125,triangle,1,0,,,,,,,,,,,,,,,,switch,letter,lettSwt,d,0.6388,Lo,,,,,,4,,,,,,,,low,1,0,1,0,1,,,,,,,,,
294292,2022-12-02_14h15.44.360,vts_reward_expectancy_bt,2022.2.4,MacIntel,60.04202942,Chrome,1440,900,,,,,0,918,,,,,,,,,,,,,,,,,D,174,circle,0,0,,,,,,,,,,,,,,,,repeat,letter,NA,f,1.0117,Lo,,,,,,4,,,,,,,,low,2,0,2,0,1,,,,,,,,,
294292,2022-12-02_14h15.44.360,vts_reward_expectancy_bt,2022.2.4,MacIntel,60.04202942,Chrome,1440,900,,,,,0,918,,,,,,,,,,,,,,,,,W,160,hexagon,1,1,,,,,,,,,,,,,,,,repeat,letter,lettRpt,f,1.1079,Hi,,,,,,4,,,,,,,,low,3,0,3,0,1,,,,,,,,,
294292,2022-12-02_14h15.44.360,vts_reward_expectancy_bt,2022.2.4,MacIntel,60.04202942,Chrome,1440,900,,,,,10,928,,,,,,,,,,,,,,,,,U,132,star,1,0,,,,,,,,,,,,,,,,switch,number,numSwt,j,1.7261,Lo,,,,,,4,,,,,,,,low,4,0,4,0,1,,,,,,,,,
294292,2022-12-02_14h15.44.360,vts_reward_expectancy_bt,2022.2.4,MacIntel,60.04202942,Chrome,1440,900,,,,,10,938,,,,,,,,,,,,,,,,,S,146,triangle,1,0,,,,,,,,,,,,,,,,repeat,number,numRpt,j,1.3901,Lo,,,,,,4,,,,,,,,low,5,0,5,0,1,,,,,,,,,
294292,2022-12-02_14h15.44.360,vts_reward_expectancy_bt,2022.2.4,MacIntel,60.04202942,Chrome,1440,900,,,,,0,938,,,,,,,,,,,,,,,,,H,181,circle,1,0,,,,,,,,,,,,,,,,repeat,number,numRpt,k,0.9543,Hi,,,,,,4,,,,,,,,low,6,0,6,0,1,,,,,,,,,
294292,2022-12-02_14h15.44.360,vts_reward_expectancy_bt,2022.2.4,MacIntel,60.04202942,Chrome,1440,900,,,,,1,939,,,,,,,,,,,,,,,,,Y,139,hexagon,1,0,,,,,,,,,,,,,,,,repeat,number,numRpt,j,0.7101,Hi,,,,,,4,,,,,,,,low,7,0,7,0,1,,,,,,,,,
294292,2022-12-02_14h15.44.360,vts_reward_expectancy_bt,2022.2.4,MacIntel,60.04202942,Chrome,1440,900,,,,,10,949,,,,,,,,,,,,,,,,,F,167,star,1,0,,,,,,,,,,,,,,,,repeat,number,numRpt,k,0.8539,Lo,,,,,,4,,,,,,,,low,8,0,8,0,1,,,,,,,,,
294292,2022-12-02_14h15.44.360,vts_reward_expectancy_bt,2022.2.4,MacIntel,60.04202942,Chrome,1440,900,,,,,0,949,,,,,,,,,,,,,,,,,B,125,hexagon,1,0,,,,,,,,,,,,,,,,repeat,number,numRpt,j,0.8197,Hi,,,,,,4,,,,,,,,low,9,0,9,0,1,,,,,,,,,
294292,2022-12-02_14h15.44.360,vts_reward_expectancy_bt,2022.2.4,MacIntel,60.04202942,Chrome,1440,900,,,,,10,959,,,,,,,,,,,,,,,,,D,174,triangle,1,0,,,,,,,,,,,,,,,,repeat,number,numRpt,k,0.9873,Lo,,,,,,4,,,,,,,,low,10,0,10,0,1,,,,,,,,,
294292,2022-12-02_14h15.44.360,vts_reward_expectancy_bt,2022.2.4,MacIntel,60.04202942,Chrome,1440,900,,,,,0,959,,,,,,,,,,,,,,,,,W,160,circle,1,0,,,,,,,,,,,,,,,,repeat,number,numRpt,k,1.5946,Hi,,,,,,4,,,,,,,,low,11,0,11,0,1,,,,,,,,,
294292,2022-12-02_14h15.44.360,vts_reward_expectancy_bt,2022.2.4,MacIntel,60.04202942,Chrome,1440,900,,,,,1,960,,,,,,,,,,,,,,,,,U,132,triangle,1,0,,,,,,,,,,,,,,,,repeat,number,numRpt,j,1.4358,Lo,,,,,,4,,,,,,,,low,12,0,12,0,1,,,,,,,,,
294292,2022-12-02_14h15.44.360,vts_reward_expectancy_bt,2022.2.4,MacIntel,60.04202942,Chrome,1440,900,,,,,0,960,,,,,,,,,,,,,,,,,S,146,hexagon,1,0,,,,,,,,,,,,,,,,repeat,number,numRpt,j,0.8662,Hi,,,,,,4,,,,,,,,low,13,0,13,0,1,,,,,,,,,
294292,2022-12-02_14h15.44.360,vts_reward_expectancy_bt,2022.2.4,MacIntel,60.04202942,Chrome,1440,900,,,,,0,960,,,,,,,,,,,,,,,,,H,181,circle,1,0,,,,,,,,,,,,,,,,repeat,number,numRpt,k,1.0906,Hi,,,,,,4,,,,,,,,low,14,0,14,0,1,,,,,,,,,
294292,2022-12-02_14h15.44.360,vts_reward_expectancy_bt,2022.2.4,MacIntel,60.04202942,Chrome,1440,900,,,,,1,961,,,,,,,,,,,,,,,,,Y,139,star,1,0,,,,,,,,,,,,,,,,repeat,number,numRpt,j,0.6756,Lo,,,,,,4,,,,,,,,low,15,0,15,0,1,,,,,,,,,
294292,2022-12-02_14h15.44.360,vts_reward_expectancy_bt,2022.2.4,MacIntel,60.04202942,Chrome,1440,900,,,,,1,962,,,,,,,,,,,,,,,,,B,167,triangle,1,0,,,,,,,,,,,,,,,,switch,letter,lettSwt,d,0.6648,Lo,,,,,,4,,,,,,,,low,16,0,16,0,1,,,,,,,,,
294292,2022-12-02_14h15.44.360,vts_reward_expectancy_bt,2022.2.4,MacIntel,60.04202942,Chrome,1440,900,,,,,1,963,,,,,,,,,,,,,,,,,F,146,star,1,0,,,,,,,,,,,,,,,,repeat,letter,lettRpt,d,1.3577,Lo,,,,,,4,,,,,,,,low,17,0,17,0,1,,,,,,,,,
294292,2022-12-02_14h15.44.360,vts_reward_expectancy_bt,2022.2.4,MacIntel,60.04202942,Chrome,1440,900,,,,,10,973,,,,,,,,,,,,,,,,,W,160,hexagon,1,0,,,,,,,,,,,,,,,,repeat,letter,lettRpt,f,0.6686,Hi,,,,,,4,,,,,,,,low,18,0,18,0,1,,,,,,,,,
294292,2022-12-02_14h15.44.360,vts_reward_expectancy_bt,2022.2.4,MacIntel,60.04202942,Chrome,1440,900,,,,,0,973,,,,,,,,,,,,,,,,,Y,174,circle,0,0,,,,,,,,,,,,,,,,switch,number,NA,j,0.9224,Hi,,,,,,4,,,,,,,,low,19,0,19,0,1,,,,,,,,,
294292,2022-12-02_14h15.44.360,vts_reward_expectancy_bt,2022.2.4,MacIntel,60.04202942,Chrome,1440,900,,,,,0,973,,,,,,,,,,,,,,,,,D,132,triangle,0,1,,,,,,,,,,,,,,,,switch,letter,NA,f,0.7824,Hi,,,,,,4,,,,,,,,low,20,0,20,0,1,,,,,,,,,
294292,2022-12-02_14h15.44.360,vts_reward_expectancy_bt,2022.2.4,MacIntel,60.04202942,Chrome,1440,900,,,,,1,974,,,,,,,,,,,,,,,,,H,125,circle,1,1,,,,,,,,,,,,,,,,repeat,letter,lettRpt,d,0.5614,Hi,,,,,,4,,,,,,,,low,21,0,21,0,1,,,,,,,,,
294292,2022-12-02_14h15.44.360,vts_reward_expectancy_bt,2022.2.4,MacIntel,60.04202942,Chrome,1440,900,,,,,0,974,,,,,,,,,,,,,,,,,U,181,hexagon,0,0,,,,,,,,,,,,,,,,switch,number,NA,j,1.8242,Hi,,,,,,4,,,,,,,,low,22,0,22,0,1,,,,,,,,,
294292,2022-12-02_14h15.44.360,vts_reward_expectancy_bt,2022.2.4,MacIntel,60.04202942,Chrome,1440,900,,,,,0,974,,,,,,,,,,,,,,,,,S,139,star,0,1,,,,,,,,,,,,,,,,repeat,number,NA,k,0.7816,Hi,,,,,,4,,,,,,,,low,23,0,23,0,1,,,,,,,,,
294292,2022-12-02_14h15.44.360,vts_reward_expectancy_bt,2022.2.4,MacIntel,60.04202942,Chrome,1440,900,,,,,0,974,,,,,,,,,,,,,,,,,U,160,star,0,1,,,,,,,,,,,,,,,,repeat,number,NA,j,1.109,Hi,,,,,,4,,,,,,,,low,24,0,24,0,1,,,,,,,,,
294292,2022-12-02_14h15.44.360,vts_reward_expectancy_bt,2022.2.4,MacIntel,60.04202942,Chrome,1440,900,,,,,0,974,,,,,,,,,,,,,,,,,W,125,circle,1,1,,,,,,,,,,,,,,,,repeat,number,numRpt,j,0.9762,Hi,,,,,,4,,,,,,,,low,25,0,25,0,1,,,,,,,,,
294292,2022-12-02_14h15.44.360,vts_reward_expectancy_bt,2022.2.4,MacIntel,60.04202942,Chrome,1440,900,,,,,0,974,,,,,,,,,,,,,,,,,F,146,hexagon,1,0,,,,,,,,,,,,,,,,repeat,number,numRpt,j,0.8326,Hi,,,,,,4,,,,,,,,low,26,0,26,0,1,,,,,,,,,
294292,2022-12-02_14h15.44.360,vts_reward_expectancy_bt,2022.2.4,MacIntel,60.04202942,Chrome,1440,900,,,,,10,984,,,,,,,,,,,,,,,,,Y,167,triangle,1,0,,,,,,,,,,,,,,,,repeat,number,numRpt,k,0.729,Lo,,,,,,4,,,,,,,,low,27,0,27,0,1,,,,,,,,,
294292,2022-12-02_14h15.44.360,vts_reward_expectancy_bt,2022.2.4,MacIntel,60.04202942,Chrome,1440,900,,,,,10,994,,,,,,,,,,,,,,,,,B,174,hexagon,1,0,,,,,,,,,,,,,,,,repeat,number,numRpt,k,0.6397,Hi,,,,,,4,,,,,,,,low,28,0,28,0,1,,,,,,,,,
294292,2022-12-02_14h15.44.360,vts_reward_expectancy_bt,2022.2.4,MacIntel,60.04202942,Chrome,1440,900,,,,,10,1004,,,,,,,,,,,,,,,,,S,181,circle,1,0,,,,,,,,,,,,,,,,repeat,number,numRpt,k,0.4492,Hi,,,,,,4,,,,,,,,low,29,0,29,0,1,,,,,,,,,
294292,2022-12-02_14h15.44.360,vts_reward_expectancy_bt,2022.2.4,MacIntel,60.04202942,Chrome,1440,900,,,,,1,1005,,,,,,,,,,,,,,,,,H,132,triangle,1,0,,,,,,,,,,,,,,,,switch,letter,lettSwt,d,1.5412,Lo,,,,,,4,,,,,,,,low,30,0,30,0,1,,,,,,,,,
294292,2022-12-02_14h15.44.360,vts_reward_expectancy_bt,2022.2.4,MacIntel,60.04202942,Chrome,1440,900,,,,,10,1015,,,,,,,,,,,,,,,,,D,139,star,1,0,,,,,,,,,,,,,,,,switch,number,numSwt,j,0.6568,Lo,,,,,,4,,,,,,,,low,31,0,31,0,1,,,,,,,,,
294292,2022-12-02_14h15.44.360,vts_reward_expectancy_bt,2022.2.4,MacIntel,60.04202942,Chrome,1440,900,,,,,0,1015,,,,,,,,,,,,,,,,,U,160,hexagon,0,0,,,,,,,,,,,,,,,,repeat,number,NA,j,1.341,Lo,,,,,,5,,,,,,space,0.8749,low,0,0,0,0,1,,,,,,,,,
294292,2022-12-02_14h15.44.360,vts_reward_expectancy_bt,2022.2.4,MacIntel,60.04202942,Chrome,1440,900,,,,,10,1025,,,,,,,,,,,,,,,,,F,139,circle,1,1,,,,,,,,,,,,,,,,repeat,number,numRpt,j,0.7939,Hi,,,,,,5,,,,,,,,low,1,0,1,0,1,,,,,,,,,
294292,2022-12-02_14h15.44.360,vts_reward_expectancy_bt,2022.2.4,MacIntel,60.04202942,Chrome,1440,900,,,,,1,1026,,,,,,,,,,,,,,,,,Y,174,triangle,1,0,,,,,,,,,,,,,,,,repeat,number,numRpt,k,0.6486,Lo,,,,,,5,,,,,,,,low,2,0,2,0,1,,,,,,,,,
294292,2022-12-02_14h15.44.360,vts_reward_expectancy_bt,2022.2.4,MacIntel,60.04202942,Chrome,1440,900,,,,,1,1027,,,,,,,,,,,,,,,,,B,132,star,1,0,,,,,,,,,,,,,,,,repeat,number,numRpt,j,0.6963,Lo,,,,,,5,,,,,,,,low,3,0,3,0,1,,,,,,,,,
294292,2022-12-02_14h15.44.360,vts_reward_expectancy_bt,2022.2.4,MacIntel,60.04202942,Chrome,1440,900,,,,,1,1028,,,,,,,,,,,,,,,,,D,167,hexagon,1,0,,,,,,,,,,,,,,,,repeat,number,numRpt,k,0.7027,Hi,,,,,,5,,,,,,,,low,4,0,4,0,1,,,,,,,,,
294292,2022-12-02_14h15.44.360,vts_reward_expectancy_bt,2022.2.4,MacIntel,60.04202942,Chrome,1440,900,,,,,1,1029,,,,,,,,,,,,,,,,,W,125,circle,1,0,,,,,,,,,,,,,,,,repeat,number,numRpt,j,0.6371,Hi,,,,,,5,,,,,,,,low,5,0,5,0,1,,,,,,,,,
294292,2022-12-02_14h15.44.360,vts_reward_expectancy_bt,2022.2.4,MacIntel,60.04202942,Chrome,1440,900,,,,,10,1039,,,,,,,,,,,,,,,,,S,181,triangle,1,0,,,,,,,,,,,,,,,,repeat,number,numRpt,k,0.9552,Lo,,,,,,5,,,,,,,,low,6,0,6,0,1,,,,,,,,,
294292,2022-12-02_14h15.44.360,vts_reward_expectancy_bt,2022.2.4,MacIntel,60.04202942,Chrome,1440,900,,,,,1,1040,,,,,,,,,,,,,,,,,H,146,star,1,0,,,,,,,,,,,,,,,,repeat,number,numRpt,j,0.8914,Lo,,,,,,5,,,,,,,,low,7,0,7,0,1,,,,,,,,,
294292,2022-12-02_14h15.44.360,vts_reward_expectancy_bt,2022.2.4,MacIntel,60.04202942,Chrome,1440,900,,,,,0,1040,,,,,,,,,,,,,,,,,U,160,circle,1,0,,,,,,,,,,,,,,,,switch,letter,lettSwt,f,1.1922,Hi,,,,,,5,,,,,,,,low,8,0,8,0,1,,,,,,,,,
294292,2022-12-02_14h15.44.360,vts_reward_expectancy_bt,2022.2.4,MacIntel,60.04202942,Chrome,1440,900,,,,,1,1041,,,,,,,,,,,,,,,,,F,139,triangle,1,0,,,,,,,,,,,,,,,,switch,number,numSwt,j,1.4276,Lo,,,,,,5,,,,,,,,low,9,0,9,0,1,,,,,,,,,
294292,2022-12-02_14h15.44.360,vts_reward_expectancy_bt,2022.2.4,MacIntel,60.04202942,Chrome,1440,900,,,,,10,1051,,,,,,,,,,,,,,,,,Y,174,hexagon,1,0,,,,,,,,,,,,,,,,repeat,number,numRpt,k,0.5728,Hi,,,,,,5,,,,,,,,low,10,0,10,0,1,,,,,,,,,
294292,2022-12-02_14h15.44.360,vts_reward_expectancy_bt,2022.2.4,MacIntel,60.04202942,Chrome,1440,900,,,,,1,1052,,,,,,,,,,,,,,,,,B,132,star,1,0,,,,,,,,,,,,,,,,repeat,number,numRpt,j,0.5497,Lo,,,,,,5,,,,,,,,low,11,0,11,0,1,,,,,,,,,
294292,2022-12-02_14h15.44.360,vts_reward_expectancy_bt,2022.2.4,MacIntel,60.04202942,Chrome,1440,900,,,,,0,1052,,,,,,,,,,,,,,,,,D,167,star,0,0,,,,,,,,,,,,,,,,switch,letter,NA,f,0.7831,Lo,,,,,,5,,,,,,,,low,12,0,12,0,1,,,,,,,,,
294292,2022-12-02_14h15.44.360,vts_reward_expectancy_bt,2022.2.4,MacIntel,60.04202942,Chrome,1440,900,,,,,1,1053,,,,,,,,,,,,,,,,,W,125,triangle,1,1,,,,,,,,,,,,,,,,repeat,letter,lettRpt,f,0.8245,Lo,,,,,,5,,,,,,,,low,13,0,13,0,1,,,,,,,,,
294292,2022-12-02_14h15.44.360,vts_reward_expectancy_bt,2022.2.4,MacIntel,60.04202942,Chrome,1440,900,,,,,0,1053,,,,,,,,,,,,,,,,,S,181,hexagon,0,0,,,,,,,,,,,,,,,,repeat,letter,NA,d,1.6903,Lo,,,,,,5,,,,,,,,low,14,0,14,0,1,,,,,,,,,
294292,2022-12-02_14h15.44.360,vts_reward_expectancy_bt,2022.2.4,MacIntel,60.04202942,Chrome,1440,900,,,,,0,1053,,,,,,,,,,,,,,,,,H,146,circle,1,1,,,,,,,,,,,,,,,,repeat,letter,lettRpt,d,1.637,Hi,,,,,,5,,,,,,,,low,15,0,15,0,1,,,,,,,,,
294292,2022-12-02_14h15.44.360,vts_reward_expectancy_bt,2022.2.4,MacIntel,60.04202942,Chrome,1440,900,,,,,0,1053,,,,,,,,,,,,,,,,,S,160,hexagon,1,0,,,,,,,,,,,,,,,,repeat,letter,lettRpt,f,0.8682,Hi,,,,,,5,,,,,,,,low,16,0,16,0,1,,,,,,,,,
294292,2022-12-02_14h15.44.360,vts_reward_expectancy_bt,2022.2.4,MacIntel,60.04202942,Chrome,1440,900,,,,,1,1054,,,,,,,,,,,,,,,,,Y,167,triangle,1,0,,,,,,,,,,,,,,,,repeat,letter,lettRpt,f,0.8299,Lo,,,,,,5,,,,,,,,low,17,0,17,0,1,,,,,,,,,
294292,2022-12-02_14h15.44.360,vts_reward_expectancy_bt,2022.2.4,MacIntel,60.04202942,Chrome,1440,900,,,,,10,1064,,,,,,,,,,,,,,,,,U,146,circle,1,0,,,,,,,,,,,,,,,,repeat,letter,lettRpt,f,0.5217,Hi,,,,,,5,,,,,,,,low,18,0,18,0,1,,,,,,,,,
294292,2022-12-02_14h15.44.360,vts_reward_expectancy_bt,2022.2.4,MacIntel,60.04202942,Chrome,1440,900,,,,,1,1065,,,,,,,,,,,,,,,,,D,181,star,1,0,,,,,,,,,,,,,,,,repeat,letter,lettRpt,d,0.8395,Lo,,,,,,5,,,,,,,,low,19,0,19,0,1,,,,,,,,,
294292,2022-12-02_14h15.44.360,vts_reward_expectancy_bt,2022.2.4,MacIntel,60.04202942,Chrome,1440,900,,,,,10,1075,,,,,,,,,,,,,,,,,W,132,star,1,0,,,,,,,,,,,,,,,,repeat,letter,lettRpt,f,0.7254,Lo,,,,,,5,,,,,,,,low,20,0,20,0,1,,,,,,,,,
294292,2022-12-02_14h15.44.360,vts_reward_expectancy_bt,2022.2.4,MacIntel,60.04202942,Chrome,1440,900,,,,,0,1075,,,,,,,,,,,,,,,,,F,139,hexagon,1,0,,,,,,,,,,,,,,,,repeat,letter,lettRpt,d,0.8896,Hi,,,,,,5,,,,,,,,low,21,0,21,0,1,,,,,,,,,
294292,2022-12-02_14h15.44.360,vts_reward_expectancy_bt,2022.2.4,MacIntel,60.04202942,Chrome,1440,900,,,,,0,1075,,,,,,,,,,,,,,,,,H,174,circle,0,0,,,,,,,,,,,,,,,,switch,number,NA,j,1.4273,Hi,,,,,,5,,,,,,,,low,22,0,22,0,1,,,,,,,,,
294292,2022-12-02_14h15.44.360,vts_reward_expectancy_bt,2022.2.4,MacIntel,60.04202942,Chrome,1440,900,,,,,10,1085,,,,,,,,,,,,,,,,,B,125,triangle,1,1,,,,,,,,,,,,,,,,repeat,number,numRpt,j,0.6347,Lo,,,,,,5,,,,,,,,low,23,0,23,0,1,,,,,,,,,
294292,2022-12-02_14h15.44.360,vts_reward_expectancy_bt,2022.2.4,MacIntel,60.04202942,Chrome,1440,900,,,,,1,1086,,,,,,,,,,,,,,,,,F,167,triangle,1,0,,,,,,,,,,,,,,,,repeat,number,numRpt,k,0.6561,Lo,,,,,,5,,,,,,,,low,24,0,24,0,1,,,,,,,,,
294292,2022-12-02_14h15.44.360,vts_reward_expectancy_bt,2022.2.4,MacIntel,60.04202942,Chrome,1440,900,,,,,10,1096,,,,,,,,,,,,,,,,,W,132,star,1,0,,,,,,,,,,,,,,,,switch,letter,lettSwt,f,0.4883,Lo,,,,,,5,,,,,,,,low,25,0,25,0,1,,,,,,,,,
294292,2022-12-02_14h15.44.360,vts_reward_expectancy_bt,2022.2.4,MacIntel,60.04202942,Chrome,1440,900,,,,,0,1096,,,,,,,,,,,,,,,,,B,146,circle,1,0,,,,,,,,,,,,,,,,repeat,letter,lettRpt,d,0.7559,Hi,,,,,,5,,,,,,,,low,26,0,26,0,1,,,,,,,,,
294292,2022-12-02_14h15.44.360,vts_reward_expectancy_bt,2022.2.4,MacIntel,60.04202942,Chrome,1440,900,,,,,0,1096,,,,,,,,,,,,,,,,,D,160,hexagon,1,0,,,,,,,,,,,,,,,,repeat,letter,lettRpt,d,1.9566,Hi,,,,,,5,,,,,,,,low,27,0,27,0,1,,,,,,,,,
294292,2022-12-02_14h15.44.360,vts_reward_expectancy_bt,2022.2.4,MacIntel,60.04202942,Chrome,1440,900,,,,,0,1096,,,,,,,,,,,,,,,,,Y,125,triangle,0,0,,,,,,,,,,,,,,,,repeat,letter,NA,d,0.9018,Hi,,,,,,5,,,,,,,,low,28,0,28,0,1,,,,,,,,,
294292,2022-12-02_14h15.44.360,vts_reward_expectancy_bt,2022.2.4,MacIntel,60.04202942,Chrome,1440,900,,,,,0,1096,,,,,,,,,,,,,,,,,S,181,hexagon,1,1,,,,,,,,,,,,,,,,repeat,letter,lettRpt,f,0.7266,Hi,,,,,,5,,,,,,,,low,29,0,29,0,1,,,,,,,,,
294292,2022-12-02_14h15.44.360,vts_reward_expectancy_bt,2022.2.4,MacIntel,60.04202942,Chrome,1440,900,,,,,0,1096,,,,,,,,,,,,,,,,,U,174,circle,0,0,,,,,,,,,,,,,,,,switch,number,NA,j,1.3622,Hi,,,,,,5,,,,,,,,low,30,0,30,0,1,,,,,,,,,
294292,2022-12-02_14h15.44.360,vts_reward_expectancy_bt,2022.2.4,MacIntel,60.04202942,Chrome,1440,900,,,,,0,1096,,,,,,,,,,,,,,,,,H,139,star,0,1,,,,,,,,,,,,,,,,repeat,number,NA,k,0.6225,Hi,,,,,,5,,,,,,,,low,31,0,31,0,1,,,,,,,,,
294292,2022-12-02_14h15.44.360,vts_reward_expectancy_bt,2022.2.4,MacIntel,60.04202942,Chrome,1440,900,,,,,10,1106,,,,,,,,,,,,,,,,,W,125,hexagon,1,1,,,,,,,,,,,,,,,,switch,letter,lettSwt,f,0.9844,Hi,,,,,,6,,,,,,space,1.7727,low,0,0,0,0,1,,,,,,,,,
294292,2022-12-02_14h15.44.360,vts_reward_expectancy_bt,2022.2.4,MacIntel,60.04202942,Chrome,1440,900,,,,,1,1107,,,,,,,,,,,,,,,,,U,132,triangle,1,0,,,,,,,,,,,,,,,,switch,number,numSwt,j,1.2424,Lo,,,,,,6,,,,,,,,low,1,0,1,0,1,,,,,,,,,
294292,2022-12-02_14h15.44.360,vts_reward_expectancy_bt,2022.2.4,MacIntel,60.04202942,Chrome,1440,900,,,,,1,1108,,,,,,,,,,,,,,,,,Y,139,star,1,0,,,,,,,,,,,,,,,,repeat,number,numRpt,j,1.3714,Lo,,,,,,6,,,,,,,,low,2,0,2,0,1,,,,,,,,,
294292,2022-12-02_14h15.44.360,vts_reward_expectancy_bt,2022.2.4,MacIntel,60.04202942,Chrome,1440,900,,,,,1,1109,,,,,,,,,,,,,,,,,B,146,circle,1,0,,,,,,,,,,,,,,,,switch,letter,lettSwt,d,0.8887,Hi,,,,,,6,,,,,,,,low,3,0,3,0,1,,,,,,,,,
294292,2022-12-02_14h15.44.360,vts_reward_expectancy_bt,2022.2.4,MacIntel,60.04202942,Chrome,1440,900,,,,,10,1119,,,,,,,,,,,,,,,,,D,167,hexagon,1,0,,,,,,,,,,,,,,,,repeat,letter,lettRpt,d,0.6419,Hi,,,,,,6,,,,,,,,low,4,0,4,0,1,,,,,,,,,
294292,2022-12-02_14h15.44.360,vts_reward_expectancy_bt,2022.2.4,MacIntel,60.04202942,Chrome,1440,900,,,,,0,1119,,,,,,,,,,,,,,,,,S,181,triangle,0,0,,,,,,,,,,,,,,,,switch,number,NA,j,1.6907,Hi,,,,,,6,,,,,,,,low,5,0,5,0,1,,,,,,,,,
294292,2022-12-02_14h15.44.360,vts_reward_expectancy_bt,2022.2.4,MacIntel,60.04202942,Chrome,1440,900,,,,,0,1119,,,,,,,,,,,,,,,,,H,160,star,0,1,,,,,,,,,,,,,,,,repeat,number,NA,j,1.387,Hi,,,,,,6,,,,,,,,low,6,0,6,0,1,,,,,,,,,
294292,2022-12-02_14h15.44.360,vts_reward_expectancy_bt,2022.2.4,MacIntel,60.04202942,Chrome,1440,900,,,,,0,1119,,,,,,,,,,,,,,,,,F,174,circle,1,1,,,,,,,,,,,,,,,,repeat,number,numRpt,k,1.2426,Hi,,,,,,6,,,,,,,,low,7,0,7,0,1,,,,,,,,,
294292,2022-12-02_14h15.44.360,vts_reward_expectancy_bt,2022.2.4,MacIntel,60.04202942,Chrome,1440,900,,,,,0,1119,,,,,,,,,,,,,,,,,W,125,hexagon,1,0,,,,,,,,,,,,,,,,repeat,number,numRpt,j,1.3957,Hi,,,,,,6,,,,,,,,low,8,0,8,0,1,,,,,,,,,
294292,2022-12-02_14h15.44.360,vts_reward_expectancy_bt,2022.2.4,MacIntel,60.04202942,Chrome,1440,900,,,,,0,1119,,,,,,,,,,,,,,,,,U,132,circle,1,0,,,,,,,,,,,,,,,,repeat,number,numRpt,j,1.2161,Hi,,,,,,6,,,,,,,,low,9,0,9,0,1,,,,,,,,,
294292,2022-12-02_14h15.44.360,vts_reward_expectancy_bt,2022.2.4,MacIntel,60.04202942,Chrome,1440,900,,,,,1,1120,,,,,,,,,,,,,,,,,Y,139,triangle,1,0,,,,,,,,,,,,,,,,switch,letter,lettSwt,f,0.8208,Lo,,,,,,6,,,,,,,,low,10,0,10,0,1,,,,,,,,,
294292,2022-12-02_14h15.44.360,vts_reward_expectancy_bt,2022.2.4,MacIntel,60.04202942,Chrome,1440,900,,,,,10,1130,,,,,,,,,,,,,,,,,B,146,star,1,0,,,,,,,,,,,,,,,,repeat,letter,lettRpt,d,0.6171,Lo,,,,,,6,,,,,,,,low,11,0,11,0,1,,,,,,,,,
