participant,date,expName,psychopyVersion,OS,frameRate,browser,xResolution,yResolution,key_resp.keys,key_resp.rt,training_resp.keys,training_resp.rt,points_trial,points_cumul,trainBlock,training.thisRepN,training.thisTrialN,training.thisN,training.thisIndex,training.ran,LTriangleOpac,LCircleOpac,LHexagonOpac,LStarOpac,RTriangleOpac,RCircleOpac,RHexagonOpac,RStarOpac,LShape_ID,RShape_ID,curr_topStim,curr_bottStim,curr_shape,acc,E1,target_resp_prac1.keys,pracBlock,task1_prac_trials.thisRepN,task1_prac_trials.thisTrialN,task1_prac_trials.thisN,task1_prac_trials.thisIndex,task1_prac_trials.ran,target_resp_prac1.rt,target_resp_prac2.keys,target_resp_prac2.rt,task2_praac_trials.thisRepN,task2_praac_trials.thisTrialN,task2_praac_trials.thisN,task2_praac_trials.thisIndex,task2_praac_trials.ran,alt,task,condition,target_resp.keys,target_resp.rt,rewCond,vts_practice_trials.thisRepN,vts_practice_trials.thisTrialN,vts_practice_trials.thisN,vts_practice_trials.thisIndex,vts_practice_trials.ran,blockNum,trials_norew.thisRepN,trials_norew.thisTrialN,trials_norew.thisN,trials_norew.thisIndex,trials_norew.ran,key_resp_2.keys,key_resp_2.rt,rewExpectancy,trials_rew.thisRepN,trials_rew.thisTrialN,trials_rew.thisN,trials_rew.thisIndex,trials_rew.ran,Q1,Q2,Q2_text,Q3,Q4,Q5_text,Q5,xRes,yRes
294361,2022-11-22_14h37.24.009,vts_reward_expectancy_bt,2022.2.4,MacIntel,60.04202942,Chrome,1440,900,,,,,,,,,,,,,,,,,,,,,,,,,,,,,,,,,,,,,,,,,,,,,,,,,,,,,,,,,,,,,,,,,,,,,,,,,,,,
294361,2022-11-22_14h37.24.009,vts_reward_expectancy_bt,2022.2.4,MacIntel,60.04202942,Chrome,1440,900,space,17.1428,,,,,,,,,,,,,,,,,,,,,,,,,,,,,,,,,,,,,,,,,,,,,,,,,,,,,,,,,,,,,,,,,,,,,,,,,,
294361,2022-11-22_14h37.24.009,vts_reward_expectancy_bt,2022.2.4,MacIntel,60.04202942,Chrome,1440,900,,,,,,,,,,,,,,,,,,,,,,,,,,,,,,,,,,,,,,,,,,,,,,,,,,,,,,,,,,,,,,,,,,,,,,,,,,,,
294361,2022-11-22_14h37.24.009,vts_reward_expectancy_bt,2022.2.4,MacIntel,60.04202942,Chrome,1440,900,,,a,3.0002,10,10,0,0,0,0,2,1,1,0,0,0,0,0,0,1,triangle,star,,,,,,,,,,,,,,,,,,,,,,,,,,,,,,,,,,,,,,,,,,,,,,,,,,,,,,
294361,2022-11-22_14h37.24.009,vts_reward_expectancy_bt,2022.2.4,MacIntel,60.04202942,Chrome,1440,900,,,l,1.0222,1,11,0,0,1,1,7,1,0,0,1,0,0,1,0,0,hexagon,circle,,,,,,,,,,,,,,,,,,,,,,,,,,,,,,,,,,,,,,,,,,,,,,,,,,,,,,
294361,2022-11-22_14h37.24.009,vts_reward_expectancy_bt,2022.2.4,MacIntel,60.04202942,Chrome,1440,900,,,a,1.3476,1,12,0,0,2,2,4,1,0,1,0,0,0,0,1,0,circle,hexagon,,,,,,,,,,,,,,,,,,,,,,,,,,,,,,,,,,,,,,,,,,,,,,,,,,,,,,
294361,2022-11-22_14h37.24.009,vts_reward_expectancy_bt,2022.2.4,MacIntel,60.04202942,Chrome,1440,900,,,l,1.5748,10,22,0,0,3,3,3,1,0,1,0,0,1,0,0,0,circle,triangle,,,,,,,,,,,,,,,,,,,,,,,,,,,,,,,,,,,,,,,,,,,,,,,,,,,,,,
294361,2022-11-22_14h37.24.009,vts_reward_expectancy_bt,2022.2.4,MacIntel,60.04202942,Chrome,1440,900,,,l,1.2198,1,23,0,0,4,4,1,1,1,0,0,0,0,0,1,0,triangle,hexagon,,,,,,,,,,,,,,,,,,,,,,,,,,,,,,,,,,,,,,,,,,,,,,,,,,,,,,
294361,2022-11-22_14h37.24.009,vts_reward_expectancy_bt,2022.2.4,MacIntel,60.04202942,Chrome,1440,900,,,a,0.9568,1,24,0,0,5,5,11,1,0,0,0,1,0,0,1,0,star,hexagon,,,,,,,,,,,,,,,,,,,,,,,,,,,,,,,,,,,,,,,,,,,,,,,,,,,,,,
294361,2022-11-22_14h37.24.009,vts_reward_expectancy_bt,2022.2.4,MacIntel,60.04202942,Chrome,1440,900,,,a,1.1694,10,34,0,0,6,6,8,1,0,0,1,0,0,0,0,1,hexagon,star,,,,,,,,,,,,,,,,,,,,,,,,,,,,,,,,,,,,,,,,,,,,,,,,,,,,,,
294361,2022-11-22_14h37.24.009,vts_reward_expectancy_bt,2022.2.4,MacIntel,60.04202942,Chrome,1440,900,,,a,0.6984,1,35,0,0,7,7,9,1,0,0,0,1,1,0,0,0,star,triangle,,,,,,,,,,,,,,,,,,,,,,,,,,,,,,,,,,,,,,,,,,,,,,,,,,,,,,
294361,2022-11-22_14h37.24.009,vts_reward_expectancy_bt,2022.2.4,MacIntel,60.04202942,Chrome,1440,900,,,l,1.4707,1,36,0,0,8,8,5,1,0,1,0,0,0,0,0,1,circle,star,,,,,,,,,,,,,,,,,,,,,,,,,,,,,,,,,,,,,,,,,,,,,,,,,,,,,,
294361,2022-11-22_14h37.24.009,vts_reward_expectancy_bt,2022.2.4,MacIntel,60.04202942,Chrome,1440,900,,,l,1.0401,1,37,0,0,9,9,10,1,0,0,0,1,0,1,0,0,star ,circle,,,,,,,,,,,,,,,,,,,,,,,,,,,,,,,,,,,,,,,,,,,,,,,,,,,,,,
294361,2022-11-22_14h37.24.009,vts_reward_expectancy_bt,2022.2.4,MacIntel,60.04202942,Chrome,1440,900,,,a,0.7812,1,38,0,0,10,10,0,1,1,0,0,0,0,1,0,0,triangle,circle,,,,,,,,,,,,,,,,,,,,,,,,,,,,,,,,,,,,,,,,,,,,,,,,,,,,,,
294361,2022-11-22_14h37.24.009,vts_reward_expectancy_bt,2022.2.4,MacIntel,60.04202942,Chrome,1440,900,,,a,1.397,10,48,0,0,11,11,6,1,0,0,1,0,1,0,0,0,hexagon,triangle,,,,,,,,,,,,,,,,,,,,,,,,,,,,,,,,,,,,,,,,,,,,,,,,,,,,,,
294361,2022-11-22_14h37.24.009,vts_reward_expectancy_bt,2022.2.4,MacIntel,60.04202942,Chrome,1440,900,,,l,1.5094,10,58,0,1,0,12,4,1,0,1,0,0,0,0,1,0,circle,hexagon,,,,,,,,,,,,,,,,,,,,,,,,,,,,,,,,,,,,,,,,,,,,,,,,,,,,,,
294361,2022-11-22_14h37.24.009,vts_reward_expectancy_bt,2022.2.4,MacIntel,60.04202942,Chrome,1440,900,,,a,1.3294,10,68,0,1,1,13,8,1,0,0,1,0,0,0,0,1,hexagon,star,,,,,,,,,,,,,,,,,,,,,,,,,,,,,,,,,,,,,,,,,,,,,,,,,,,,,,
294361,2022-11-22_14h37.24.009,vts_reward_expectancy_bt,2022.2.4,MacIntel,60.04202942,Chrome,1440,900,,,l,0.7915,1,69,0,1,2,14,10,1,0,0,0,1,0,1,0,0,star ,circle,,,,,,,,,,,,,,,,,,,,,,,,,,,,,,,,,,,,,,,,,,,,,,,,,,,,,,
294361,2022-11-22_14h37.24.009,vts_reward_expectancy_bt,2022.2.4,MacIntel,60.04202942,Chrome,1440,900,,,a,0.5802,10,79,0,1,3,15,1,1,1,0,0,0,0,0,1,0,triangle,hexagon,,,,,,,,,,,,,,,,,,,,,,,,,,,,,,,,,,,,,,,,,,,,,,,,,,,,,,
294361,2022-11-22_14h37.24.009,vts_reward_expectancy_bt,2022.2.4,MacIntel,60.04202942,Chrome,1440,900,,,a,0.7347,1,80,0,1,4,16,7,1,0,0,1,0,0,1,0,0,hexagon,circle,,,,,,,,,,,,,,,,,,,,,,,,,,,,,,,,,,,,,,,,,,,,,,,,,,,,,,
294361,2022-11-22_14h37.24.009,vts_reward_expectancy_bt,2022.2.4,MacIntel,60.04202942,Chrome,1440,900,,,l,1.3663,10,90,0,1,5,17,6,1,0,0,1,0,1,0,0,0,hexagon,triangle,,,,,,,,,,,,,,,,,,,,,,,,,,,,,,,,,,,,,,,,,,,,,,,,,,,,,,
294361,2022-11-22_14h37.24.009,vts_reward_expectancy_bt,2022.2.4,MacIntel,60.04202942,Chrome,1440,900,,,a,0.5881,10,100,0,1,6,18,0,1,1,0,0,0,0,1,0,0,triangle,circle,,,,,,,,,,,,,,,,,,,,,,,,,,,,,,,,,,,,,,,,,,,,,,,,,,,,,,
294361,2022-11-22_14h37.24.009,vts_reward_expectancy_bt,2022.2.4,MacIntel,60.04202942,Chrome,1440,900,,,l,0.5313,10,110,0,1,7,19,11,1,0,0,0,1,0,0,1,0,star,hexagon,,,,,,,,,,,,,,,,,,,,,,,,,,,,,,,,,,,,,,,,,,,,,,,,,,,,,,
294361,2022-11-22_14h37.24.009,vts_reward_expectancy_bt,2022.2.4,MacIntel,60.04202942,Chrome,1440,900,,,a,0.4238,10,120,0,1,8,20,2,1,1,0,0,0,0,0,0,1,triangle,star,,,,,,,,,,,,,,,,,,,,,,,,,,,,,,,,,,,,,,,,,,,,,,,,,,,,,,
294361,2022-11-22_14h37.24.009,vts_reward_expectancy_bt,2022.2.4,MacIntel,60.04202942,Chrome,1440,900,,,l,0.5384,1,121,0,1,9,21,9,1,0,0,0,1,1,0,0,0,star,triangle,,,,,,,,,,,,,,,,,,,,,,,,,,,,,,,,,,,,,,,,,,,,,,,,,,,,,,
294361,2022-11-22_14h37.24.009,vts_reward_expectancy_bt,2022.2.4,MacIntel,60.04202942,Chrome,1440,900,,,a,0.5593,1,122,0,1,10,22,3,1,0,1,0,0,1,0,0,0,circle,triangle,,,,,,,,,,,,,,,,,,,,,,,,,,,,,,,,,,,,,,,,,,,,,,,,,,,,,,
294361,2022-11-22_14h37.24.009,vts_reward_expectancy_bt,2022.2.4,MacIntel,60.04202942,Chrome,1440,900,,,a,0.4726,1,123,0,1,11,23,5,1,0,1,0,0,0,0,0,1,circle,star,,,,,,,,,,,,,,,,,,,,,,,,,,,,,,,,,,,,,,,,,,,,,,,,,,,,,,
294361,2022-11-22_14h37.24.009,vts_reward_expectancy_bt,2022.2.4,MacIntel,60.04202942,Chrome,1440,900,,,a,0.4939,10,133,0,2,0,24,2,1,1,0,0,0,0,0,0,1,triangle,star,,,,,,,,,,,,,,,,,,,,,,,,,,,,,,,,,,,,,,,,,,,,,,,,,,,,,,
294361,2022-11-22_14h37.24.009,vts_reward_expectancy_bt,2022.2.4,MacIntel,60.04202942,Chrome,1440,900,,,l,0.9943,1,134,0,2,1,25,3,1,0,1,0,0,1,0,0,0,circle,triangle,,,,,,,,,,,,,,,,,,,,,,,,,,,,,,,,,,,,,,,,,,,,,,,,,,,,,,
294361,2022-11-22_14h37.24.009,vts_reward_expectancy_bt,2022.2.4,MacIntel,60.04202942,Chrome,1440,900,,,l,0.7033,10,144,0,2,2,26,9,1,0,0,0,1,1,0,0,0,star,triangle,,,,,,,,,,,,,,,,,,,,,,,,,,,,,,,,,,,,,,,,,,,,,,,,,,,,,,
294361,2022-11-22_14h37.24.009,vts_reward_expectancy_bt,2022.2.4,MacIntel,60.04202942,Chrome,1440,900,,,l,0.9054,10,154,0,2,3,27,6,1,0,0,1,0,1,0,0,0,hexagon,triangle,,,,,,,,,,,,,,,,,,,,,,,,,,,,,,,,,,,,,,,,,,,,,,,,,,,,,,
294361,2022-11-22_14h37.24.009,vts_reward_expectancy_bt,2022.2.4,MacIntel,60.04202942,Chrome,1440,900,,,a,4.838,10,164,0,2,4,28,0,1,1,0,0,0,0,1,0,0,triangle,circle,,,,,,,,,,,,,,,,,,,,,,,,,,,,,,,,,,,,,,,,,,,,,,,,,,,,,,
294361,2022-11-22_14h37.24.009,vts_reward_expectancy_bt,2022.2.4,MacIntel,60.04202942,Chrome,1440,900,,,a,0.9883,1,165,0,2,5,29,5,1,0,1,0,0,0,0,0,1,circle,star,,,,,,,,,,,,,,,,,,,,,,,,,,,,,,,,,,,,,,,,,,,,,,,,,,,,,,
294361,2022-11-22_14h37.24.009,vts_reward_expectancy_bt,2022.2.4,MacIntel,60.04202942,Chrome,1440,900,,,l,1.0647,10,175,0,2,6,30,4,1,0,1,0,0,0,0,1,0,circle,hexagon,,,,,,,,,,,,,,,,,,,,,,,,,,,,,,,,,,,,,,,,,,,,,,,,,,,,,,
294361,2022-11-22_14h37.24.009,vts_reward_expectancy_bt,2022.2.4,MacIntel,60.04202942,Chrome,1440,900,,,l,0.7595,1,176,0,2,7,31,1,1,1,0,0,0,0,0,1,0,triangle,hexagon,,,,,,,,,,,,,,,,,,,,,,,,,,,,,,,,,,,,,,,,,,,,,,,,,,,,,,
294361,2022-11-22_14h37.24.009,vts_reward_expectancy_bt,2022.2.4,MacIntel,60.04202942,Chrome,1440,900,,,a,1.0162,10,186,0,2,8,32,7,1,0,0,1,0,0,1,0,0,hexagon,circle,,,,,,,,,,,,,,,,,,,,,,,,,,,,,,,,,,,,,,,,,,,,,,,,,,,,,,
294361,2022-11-22_14h37.24.009,vts_reward_expectancy_bt,2022.2.4,MacIntel,60.04202942,Chrome,1440,900,,,l,4.6015,1,187,0,2,9,33,10,1,0,0,0,1,0,1,0,0,star ,circle,,,,,,,,,,,,,,,,,,,,,,,,,,,,,,,,,,,,,,,,,,,,,,,,,,,,,,
294361,2022-11-22_14h37.24.009,vts_reward_expectancy_bt,2022.2.4,MacIntel,60.04202942,Chrome,1440,900,,,a,0.575,10,197,0,2,10,34,8,1,0,0,1,0,0,0,0,1,hexagon,star,,,,,,,,,,,,,,,,,,,,,,,,,,,,,,,,,,,,,,,,,,,,,,,,,,,,,,
294361,2022-11-22_14h37.24.009,vts_reward_expectancy_bt,2022.2.4,MacIntel,60.04202942,Chrome,1440,900,,,l,0.5954,10,207,0,2,11,35,11,1,0,0,0,1,0,0,1,0,star,hexagon,,,,,,,,,,,,,,,,,,,,,,,,,,,,,,,,,,,,,,,,,,,,,,,,,,,,,,
294361,2022-11-22_14h37.24.009,vts_reward_expectancy_bt,2022.2.4,MacIntel,60.04202942,Chrome,1440,900,,,l,1.0461,10,217,1,0,0,0,3,1,0,1,0,0,1,0,0,0,circle,triangle,,,,,,,,,,,,,,,,,,,,,,,,,,,,,,,,,,,,,,,,,,,,,,,,,,,,,,
294361,2022-11-22_14h37.24.009,vts_reward_expectancy_bt,2022.2.4,MacIntel,60.04202942,Chrome,1440,900,,,a,0.5176,1,218,1,0,1,1,5,1,0,1,0,0,0,0,0,1,circle,star,,,,,,,,,,,,,,,,,,,,,,,,,,,,,,,,,,,,,,,,,,,,,,,,,,,,,,
294361,2022-11-22_14h37.24.009,vts_reward_expectancy_bt,2022.2.4,MacIntel,60.04202942,Chrome,1440,900,,,l,0.6235,1,219,1,0,2,2,10,1,0,0,0,1,0,1,0,0,star ,circle,,,,,,,,,,,,,,,,,,,,,,,,,,,,,,,,,,,,,,,,,,,,,,,,,,,,,,
294361,2022-11-22_14h37.24.009,vts_reward_expectancy_bt,2022.2.4,MacIntel,60.04202942,Chrome,1440,900,,,a,0.5729,10,229,1,0,3,3,8,1,0,0,1,0,0,0,0,1,hexagon,star,,,,,,,,,,,,,,,,,,,,,,,,,,,,,,,,,,,,,,,,,,,,,,,,,,,,,,
294361,2022-11-22_14h37.24.009,vts_reward_expectancy_bt,2022.2.4,MacIntel,60.04202942,Chrome,1440,900,,,l,0.7439,10,239,1,0,4,4,1,1,1,0,0,0,0,0,1,0,triangle,hexagon,,,,,,,,,,,,,,,,,,,,,,,,,,,,,,,,,,,,,,,,,,,,,,,,,,,,,,
294361,2022-11-22_14h37.24.009,vts_reward_expectancy_bt,2022.2.4,MacIntel,60.04202942,Chrome,1440,900,,,l,0.6499,10,249,1,0,5,5,9,1,0,0,0,1,1,0,0,0,star,triangle,,,,,,,,,,,,,,,,,,,,,,,,,,,,,,,,,,,,,,,,,,,,,,,,,,,,,,
294361,2022-11-22_14h37.24.009,vts_reward_expectancy_bt,2022.2.4,MacIntel,60.04202942,Chrome,1440,900,,,a,0.5749,10,259,1,0,6,6,7,1,0,0,1,0,0,1,0,0,hexagon,circle,,,,,,,,,,,,,,,,,,,,,,,,,,,,,,,,,,,,,,,,,,,,,,,,,,,,,,
294361,2022-11-22_14h37.24.009,vts_reward_expectancy_bt,2022.2.4,MacIntel,60.04202942,Chrome,1440,900,,,l,0.5496,10,269,1,0,7,7,6,1,0,0,1,0,1,0,0,0,hexagon,triangle,,,,,,,,,,,,,,,,,,,,,,,,,,,,,,,,,,,,,,,,,,,,,,,,,,,,,,
294361,2022-11-22_14h37.24.009,vts_reward_expectancy_bt,2022.2.4,MacIntel,60.04202942,Chrome,1440,900,,,a,0.4063,10,279,1,0,8,8,0,1,1,0,0,0,0,1,0,0,triangle,circle,,,,,,,,,,,,,,,,,,,,,,,,,,,,,,,,,,,,,,,,,,,,,,,,,,,,,,
294361,2022-11-22_14h37.24.009,vts_reward_expectancy_bt,2022.2.4,MacIntel,60.04202942,Chrome,1440,900,,,a,0.4721,10,289,1,0,9,9,2,1,1,0,0,0,0,0,0,1,triangle,star,,,,,,,,,,,,,,,,,,,,,,,,,,,,,,,,,,,,,,,,,,,,,,,,,,,,,,
294361,2022-11-22_14h37.24.009,vts_reward_expectancy_bt,2022.2.4,MacIntel,60.04202942,Chrome,1440,900,,,l,0.8649,10,299,1,0,10,10,11,1,0,0,0,1,0,0,1,0,star,hexagon,,,,,,,,,,,,,,,,,,,,,,,,,,,,,,,,,,,,,,,,,,,,,,,,,,,,,,
294361,2022-11-22_14h37.24.009,vts_reward_expectancy_bt,2022.2.4,MacIntel,60.04202942,Chrome,1440,900,,,l,1.0545,10,309,1,0,11,11,4,1,0,1,0,0,0,0,1,0,circle,hexagon,,,,,,,,,,,,,,,,,,,,,,,,,,,,,,,,,,,,,,,,,,,,,,,,,,,,,,
294361,2022-11-22_14h37.24.009,vts_reward_expectancy_bt,2022.2.4,MacIntel,60.04202942,Chrome,1440,900,,,a,2.3733,10,319,1,1,0,12,5,1,0,1,0,0,0,0,0,1,circle,star,,,,,,,,,,,,,,,,,,,,,,,,,,,,,,,,,,,,,,,,,,,,,,,,,,,,,,
294361,2022-11-22_14h37.24.009,vts_reward_expectancy_bt,2022.2.4,MacIntel,60.04202942,Chrome,1440,900,,,l,1.0663,1,320,1,1,1,13,3,1,0,1,0,0,1,0,0,0,circle,triangle,,,,,,,,,,,,,,,,,,,,,,,,,,,,,,,,,,,,,,,,,,,,,,,,,,,,,,
294361,2022-11-22_14h37.24.009,vts_reward_expectancy_bt,2022.2.4,MacIntel,60.04202942,Chrome,1440,900,,,a,0.7351,10,330,1,1,2,14,8,1,0,0,1,0,0,0,0,1,hexagon,star,,,,,,,,,,,,,,,,,,,,,,,,,,,,,,,,,,,,,,,,,,,,,,,,,,,,,,
294361,2022-11-22_14h37.24.009,vts_reward_expectancy_bt,2022.2.4,MacIntel,60.04202942,Chrome,1440,900,,,a,0.5908,1,331,1,1,3,15,7,1,0,0,1,0,0,1,0,0,hexagon,circle,,,,,,,,,,,,,,,,,,,,,,,,,,,,,,,,,,,,,,,,,,,,,,,,,,,,,,
294361,2022-11-22_14h37.24.009,vts_reward_expectancy_bt,2022.2.4,MacIntel,60.04202942,Chrome,1440,900,,,a,0.5958,10,341,1,1,4,16,0,1,1,0,0,0,0,1,0,0,triangle,circle,,,,,,,,,,,,,,,,,,,,,,,,,,,,,,,,,,,,,,,,,,,,,,,,,,,,,,
294361,2022-11-22_14h37.24.009,vts_reward_expectancy_bt,2022.2.4,MacIntel,60.04202942,Chrome,1440,900,,,l,0.6422,10,351,1,1,5,17,1,1,1,0,0,0,0,0,1,0,triangle,hexagon,,,,,,,,,,,,,,,,,,,,,,,,,,,,,,,,,,,,,,,,,,,,,,,,,,,,,,
294361,2022-11-22_14h37.24.009,vts_reward_expectancy_bt,2022.2.4,MacIntel,60.04202942,Chrome,1440,900,,,l,0.6277,1,352,1,1,6,18,10,1,0,0,0,1,0,1,0,0,star ,circle,,,,,,,,,,,,,,,,,,,,,,,,,,,,,,,,,,,,,,,,,,,,,,,,,,,,,,
294361,2022-11-22_14h37.24.009,vts_reward_expectancy_bt,2022.2.4,MacIntel,60.04202942,Chrome,1440,900,,,l,0.6055,10,362,1,1,7,19,11,1,0,0,0,1,0,0,1,0,star,hexagon,,,,,,,,,,,,,,,,,,,,,,,,,,,,,,,,,,,,,,,,,,,,,,,,,,,,,,
294361,2022-11-22_14h37.24.009,vts_reward_expectancy_bt,2022.2.4,MacIntel,60.04202942,Chrome,1440,900,,,l,0.5706,1,363,1,1,8,20,9,1,0,0,0,1,1,0,0,0,star,triangle,,,,,,,,,,,,,,,,,,,,,,,,,,,,,,,,,,,,,,,,,,,,,,,,,,,,,,
294361,2022-11-22_14h37.24.009,vts_reward_expectancy_bt,2022.2.4,MacIntel,60.04202942,Chrome,1440,900,,,a,0.509,10,373,1,1,9,21,2,1,1,0,0,0,0,0,0,1,triangle,star,,,,,,,,,,,,,,,,,,,,,,,,,,,,,,,,,,,,,,,,,,,,,,,,,,,,,,
294361,2022-11-22_14h37.24.009,vts_reward_expectancy_bt,2022.2.4,MacIntel,60.04202942,Chrome,1440,900,,,l,0.6688,10,383,1,1,10,22,4,1,0,1,0,0,0,0,1,0,circle,hexagon,,,,,,,,,,,,,,,,,,,,,,,,,,,,,,,,,,,,,,,,,,,,,,,,,,,,,,
294361,2022-11-22_14h37.24.009,vts_reward_expectancy_bt,2022.2.4,MacIntel,60.04202942,Chrome,1440,900,,,l,0.7585,10,393,1,1,11,23,6,1,0,0,1,0,1,0,0,0,hexagon,triangle,,,,,,,,,,,,,,,,,,,,,,,,,,,,,,,,,,,,,,,,,,,,,,,,,,,,,,
294361,2022-11-22_14h37.24.009,vts_reward_expectancy_bt,2022.2.4,MacIntel,60.04202942,Chrome,1440,900,,,a,0.522,1,394,1,2,0,24,8,1,0,0,1,0,0,0,0,1,hexagon,star,,,,,,,,,,,,,,,,,,,,,,,,,,,,,,,,,,,,,,,,,,,,,,,,,,,,,,
294361,2022-11-22_14h37.24.009,vts_reward_expectancy_bt,2022.2.4,MacIntel,60.04202942,Chrome,1440,900,,,l,0.5456,1,395,1,2,1,25,2,1,1,0,0,0,0,0,0,1,triangle,star,,,,,,,,,,,,,,,,,,,,,,,,,,,,,,,,,,,,,,,,,,,,,,,,,,,,,,
294361,2022-11-22_14h37.24.009,vts_reward_expectancy_bt,2022.2.4,MacIntel,60.04202942,Chrome,1440,900,,,a,0.9088,1,396,1,2,2,26,7,1,0,0,1,0,0,1,0,0,hexagon,circle,,,,,,,,,,,,,,,,,,,,,,,,,,,,,,,,,,,,,,,,,,,,,,,,,,,,,,
294361,2022-11-22_14h37.24.009,vts_reward_expectancy_bt,2022.2.4,MacIntel,60.04202942,Chrome,1440,900,,,a,0.97,10,406,1,2,3,27,0,1,1,0,0,0,0,1,0,0,triangle,circle,,,,,,,,,,,,,,,,,,,,,,,,,,,,,,,,,,,,,,,,,,,,,,,,,,,,,,
294361,2022-11-22_14h37.24.009,vts_reward_expectancy_bt,2022.2.4,MacIntel,60.04202942,Chrome,1440,900,,,l,0.6171,1,407,1,2,4,28,10,1,0,0,0,1,0,1,0,0,star ,circle,,,,,,,,,,,,,,,,,,,,,,,,,,,,,,,,,,,,,,,,,,,,,,,,,,,,,,
294361,2022-11-22_14h37.24.009,vts_reward_expectancy_bt,2022.2.4,MacIntel,60.04202942,Chrome,1440,900,,,l,0.6041,10,417,1,2,5,29,9,1,0,0,0,1,1,0,0,0,star,triangle,,,,,,,,,,,,,,,,,,,,,,,,,,,,,,,,,,,,,,,,,,,,,,,,,,,,,,
294361,2022-11-22_14h37.24.009,vts_reward_expectancy_bt,2022.2.4,MacIntel,60.04202942,Chrome,1440,900,,,l,1.144,10,427,1,2,6,30,4,1,0,1,0,0,0,0,1,0,circle,hexagon,,,,,,,,,,,,,,,,,,,,,,,,,,,,,,,,,,,,,,,,,,,,,,,,,,,,,,
294361,2022-11-22_14h37.24.009,vts_reward_expectancy_bt,2022.2.4,MacIntel,60.04202942,Chrome,1440,900,,,l,0.6805,10,437,1,2,7,31,11,1,0,0,0,1,0,0,1,0,star,hexagon,,,,,,,,,,,,,,,,,,,,,,,,,,,,,,,,,,,,,,,,,,,,,,,,,,,,,,
294361,2022-11-22_14h37.24.009,vts_reward_expectancy_bt,2022.2.4,MacIntel,60.04202942,Chrome,1440,900,,,a,0.5182,1,438,1,2,8,32,3,1,0,1,0,0,1,0,0,0,circle,triangle,,,,,,,,,,,,,,,,,,,,,,,,,,,,,,,,,,,,,,,,,,,,,,,,,,,,,,
294361,2022-11-22_14h37.24.009,vts_reward_expectancy_bt,2022.2.4,MacIntel,60.04202942,Chrome,1440,900,,,a,0.4855,10,448,1,2,9,33,5,1,0,1,0,0,0,0,0,1,circle,star,,,,,,,,,,,,,,,,,,,,,,,,,,,,,,,,,,,,,,,,,,,,,,,,,,,,,,
294361,2022-11-22_14h37.24.009,vts_reward_expectancy_bt,2022.2.4,MacIntel,60.04202942,Chrome,1440,900,,,l,0.4652,1,449,1,2,10,34,6,1,0,0,1,0,1,0,0,0,hexagon,triangle,,,,,,,,,,,,,,,,,,,,,,,,,,,,,,,,,,,,,,,,,,,,,,,,,,,,,,
294361,2022-11-22_14h37.24.009,vts_reward_expectancy_bt,2022.2.4,MacIntel,60.04202942,Chrome,1440,900,,,l,0.5955,1,450,1,2,11,35,1,1,1,0,0,0,0,0,1,0,triangle,hexagon,,,,,,,,,,,,,,,,,,,,,,,,,,,,,,,,,,,,,,,,,,,,,,,,,,,,,,
294361,2022-11-22_14h37.24.009,vts_reward_expectancy_bt,2022.2.4,MacIntel,60.04202942,Chrome,1440,900,,,l,1.0216,10,460,2,0,0,0,4,1,0,1,0,0,0,0,1,0,circle,hexagon,,,,,,,,,,,,,,,,,,,,,,,,,,,,,,,,,,,,,,,,,,,,,,,,,,,,,,
294361,2022-11-22_14h37.24.009,vts_reward_expectancy_bt,2022.2.4,MacIntel,60.04202942,Chrome,1440,900,,,a,0.5403,10,470,2,0,1,1,8,1,0,0,1,0,0,0,0,1,hexagon,star,,,,,,,,,,,,,,,,,,,,,,,,,,,,,,,,,,,,,,,,,,,,,,,,,,,,,,
294361,2022-11-22_14h37.24.009,vts_reward_expectancy_bt,2022.2.4,MacIntel,60.04202942,Chrome,1440,900,,,l,0.5325,10,480,2,0,2,2,11,1,0,0,0,1,0,0,1,0,star,hexagon,,,,,,,,,,,,,,,,,,,,,,,,,,,,,,,,,,,,,,,,,,,,,,,,,,,,,,
294361,2022-11-22_14h37.24.009,vts_reward_expectancy_bt,2022.2.4,MacIntel,60.04202942,Chrome,1440,900,,,a,0.6372,10,490,2,0,3,3,7,1,0,0,1,0,0,1,0,0,hexagon,circle,,,,,,,,,,,,,,,,,,,,,,,,,,,,,,,,,,,,,,,,,,,,,,,,,,,,,,
294361,2022-11-22_14h37.24.009,vts_reward_expectancy_bt,2022.2.4,MacIntel,60.04202942,Chrome,1440,900,,,l,0.7544,10,500,2,0,4,4,3,1,0,1,0,0,1,0,0,0,circle,triangle,,,,,,,,,,,,,,,,,,,,,,,,,,,,,,,,,,,,,,,,,,,,,,,,,,,,,,
294361,2022-11-22_14h37.24.009,vts_reward_expectancy_bt,2022.2.4,MacIntel,60.04202942,Chrome,1440,900,,,a,0.9168,10,510,2,0,5,5,1,1,1,0,0,0,0,0,1,0,triangle,hexagon,,,,,,,,,,,,,,,,,,,,,,,,,,,,,,,,,,,,,,,,,,,,,,,,,,,,,,
294361,2022-11-22_14h37.24.009,vts_reward_expectancy_bt,2022.2.4,MacIntel,60.04202942,Chrome,1440,900,,,a,0.6513,1,511,2,0,6,6,5,1,0,1,0,0,0,0,0,1,circle,star,,,,,,,,,,,,,,,,,,,,,,,,,,,,,,,,,,,,,,,,,,,,,,,,,,,,,,
294361,2022-11-22_14h37.24.009,vts_reward_expectancy_bt,2022.2.4,MacIntel,60.04202942,Chrome,1440,900,,,a,0.44,10,521,2,0,7,7,2,1,1,0,0,0,0,0,0,1,triangle,star,,,,,,,,,,,,,,,,,,,,,,,,,,,,,,,,,,,,,,,,,,,,,,,,,,,,,,
294361,2022-11-22_14h37.24.009,vts_reward_expectancy_bt,2022.2.4,MacIntel,60.04202942,Chrome,1440,900,,,l,0.5647,1,522,2,0,8,8,10,1,0,0,0,1,0,1,0,0,star ,circle,,,,,,,,,,,,,,,,,,,,,,,,,,,,,,,,,,,,,,,,,,,,,,,,,,,,,,
294361,2022-11-22_14h37.24.009,vts_reward_expectancy_bt,2022.2.4,MacIntel,60.04202942,Chrome,1440,900,,,l,0.9338,10,532,2,0,9,9,9,1,0,0,0,1,1,0,0,0,star,triangle,,,,,,,,,,,,,,,,,,,,,,,,,,,,,,,,,,,,,,,,,,,,,,,,,,,,,,
294361,2022-11-22_14h37.24.009,vts_reward_expectancy_bt,2022.2.4,MacIntel,60.04202942,Chrome,1440,900,,,a,0.5993,10,542,2,0,10,10,0,1,1,0,0,0,0,1,0,0,triangle,circle,,,,,,,,,,,,,,,,,,,,,,,,,,,,,,,,,,,,,,,,,,,,,,,,,,,,,,
294361,2022-11-22_14h37.24.009,vts_reward_expectancy_bt,2022.2.4,MacIntel,60.04202942,Chrome,1440,900,,,l,0.5881,10,552,2,0,11,11,6,1,0,0,1,0,1,0,0,0,hexagon,triangle,,,,,,,,,,,,,,,,,,,,,,,,,,,,,,,,,,,,,,,,,,,,,,,,,,,,,,
294361,2022-11-22_14h37.24.009,vts_reward_expectancy_bt,2022.2.4,MacIntel,60.04202942,Chrome,1440,900,,,a,0.5679,1,553,2,1,0,12,7,1,0,0,1,0,0,1,0,0,hexagon,circle,,,,,,,,,,,,,,,,,,,,,,,,,,,,,,,,,,,,,,,,,,,,,,,,,,,,,,
294361,2022-11-22_14h37.24.009,vts_reward_expectancy_bt,2022.2.4,MacIntel,60.04202942,Chrome,1440,900,,,l,0.6476,10,563,2,1,1,13,10,1,0,0,0,1,0,1,0,0,star ,circle,,,,,,,,,,,,,,,,,,,,,,,,,,,,,,,,,,,,,,,,,,,,,,,,,,,,,,
294361,2022-11-22_14h37.24.009,vts_reward_expectancy_bt,2022.2.4,MacIntel,60.04202942,Chrome,1440,900,,,l,0.5516,10,573,2,1,2,14,11,1,0,0,0,1,0,0,1,0,star,hexagon,,,,,,,,,,,,,,,,,,,,,,,,,,,,,,,,,,,,,,,,,,,,,,,,,,,,,,
294361,2022-11-22_14h37.24.009,vts_reward_expectancy_bt,2022.2.4,MacIntel,60.04202942,Chrome,1440,900,,,l,0.8506,1,574,2,1,3,15,4,1,0,1,0,0,0,0,1,0,circle,hexagon,,,,,,,,,,,,,,,,,,,,,,,,,,,,,,,,,,,,,,,,,,,,,,,,,,,,,,
294361,2022-11-22_14h37.24.009,vts_reward_expectancy_bt,2022.2.4,MacIntel,60.04202942,Chrome,1440,900,,,a,0.4703,1,575,2,1,4,16,0,1,1,0,0,0,0,1,0,0,triangle,circle,,,,,,,,,,,,,,,,,,,,,,,,,,,,,,,,,,,,,,,,,,,,,,,,,,,,,,
294361,2022-11-22_14h37.24.009,vts_reward_expectancy_bt,2022.2.4,MacIntel,60.04202942,Chrome,1440,900,,,a,4.0842,10,585,2,1,5,17,8,1,0,0,1,0,0,0,0,1,hexagon,star,,,,,,,,,,,,,,,,,,,,,,,,,,,,,,,,,,,,,,,,,,,,,,,,,,,,,,
294361,2022-11-22_14h37.24.009,vts_reward_expectancy_bt,2022.2.4,MacIntel,60.04202942,Chrome,1440,900,,,a,1.818,10,595,2,1,6,18,2,1,1,0,0,0,0,0,0,1,triangle,star,,,,,,,,,,,,,,,,,,,,,,,,,,,,,,,,,,,,,,,,,,,,,,,,,,,,,,
294361,2022-11-22_14h37.24.009,vts_reward_expectancy_bt,2022.2.4,MacIntel,60.04202942,Chrome,1440,900,,,l,1.1527,1,596,2,1,7,19,1,1,1,0,0,0,0,0,1,0,triangle,hexagon,,,,,,,,,,,,,,,,,,,,,,,,,,,,,,,,,,,,,,,,,,,,,,,,,,,,,,
294361,2022-11-22_14h37.24.009,vts_reward_expectancy_bt,2022.2.4,MacIntel,60.04202942,Chrome,1440,900,,,a,0.5421,1,597,2,1,8,20,5,1,0,1,0,0,0,0,0,1,circle,star,,,,,,,,,,,,,,,,,,,,,,,,,,,,,,,,,,,,,,,,,,,,,,,,,,,,,,
294361,2022-11-22_14h37.24.009,vts_reward_expectancy_bt,2022.2.4,MacIntel,60.04202942,Chrome,1440,900,,,a,0.4467,1,598,2,1,9,21,3,1,0,1,0,0,1,0,0,0,circle,triangle,,,,,,,,,,,,,,,,,,,,,,,,,,,,,,,,,,,,,,,,,,,,,,,,,,,,,,
294361,2022-11-22_14h37.24.009,vts_reward_expectancy_bt,2022.2.4,MacIntel,60.04202942,Chrome,1440,900,,,l,0.481,10,608,2,1,10,22,9,1,0,0,0,1,1,0,0,0,star,triangle,,,,,,,,,,,,,,,,,,,,,,,,,,,,,,,,,,,,,,,,,,,,,,,,,,,,,,
294361,2022-11-22_14h37.24.009,vts_reward_expectancy_bt,2022.2.4,MacIntel,60.04202942,Chrome,1440,900,,,a,0.8503,10,618,2,1,11,23,6,1,0,0,1,0,1,0,0,0,hexagon,triangle,,,,,,,,,,,,,,,,,,,,,,,,,,,,,,,,,,,,,,,,,,,,,,,,,,,,,,
294361,2022-11-22_14h37.24.009,vts_reward_expectancy_bt,2022.2.4,MacIntel,60.04202942,Chrome,1440,900,,,l,0.6341,10,628,2,2,0,24,10,1,0,0,0,1,0,1,0,0,star ,circle,,,,,,,,,,,,,,,,,,,,,,,,,,,,,,,,,,,,,,,,,,,,,,,,,,,,,,
294361,2022-11-22_14h37.24.009,vts_reward_expectancy_bt,2022.2.4,MacIntel,60.04202942,Chrome,1440,900,,,a,0.5485,1,629,2,2,1,25,0,1,1,0,0,0,0,1,0,0,triangle,circle,,,,,,,,,,,,,,,,,,,,,,,,,,,,,,,,,,,,,,,,,,,,,,,,,,,,,,
294361,2022-11-22_14h37.24.009,vts_reward_expectancy_bt,2022.2.4,MacIntel,60.04202942,Chrome,1440,900,,,l,0.6121,10,639,2,2,2,26,4,1,0,1,0,0,0,0,1,0,circle,hexagon,,,,,,,,,,,,,,,,,,,,,,,,,,,,,,,,,,,,,,,,,,,,,,,,,,,,,,
294361,2022-11-22_14h37.24.009,vts_reward_expectancy_bt,2022.2.4,MacIntel,60.04202942,Chrome,1440,900,,,a,0.6,10,649,2,2,3,27,2,1,1,0,0,0,0,0,0,1,triangle,star,,,,,,,,,,,,,,,,,,,,,,,,,,,,,,,,,,,,,,,,,,,,,,,,,,,,,,
294361,2022-11-22_14h37.24.009,vts_reward_expectancy_bt,2022.2.4,MacIntel,60.04202942,Chrome,1440,900,,,a,0.7051,10,659,2,2,4,28,6,1,0,0,1,0,1,0,0,0,hexagon,triangle,,,,,,,,,,,,,,,,,,,,,,,,,,,,,,,,,,,,,,,,,,,,,,,,,,,,,,
294361,2022-11-22_14h37.24.009,vts_reward_expectancy_bt,2022.2.4,MacIntel,60.04202942,Chrome,1440,900,,,l,0.6163,10,669,2,2,5,29,1,1,1,0,0,0,0,0,1,0,triangle,hexagon,,,,,,,,,,,,,,,,,,,,,,,,,,,,,,,,,,,,,,,,,,,,,,,,,,,,,,
294361,2022-11-22_14h37.24.009,vts_reward_expectancy_bt,2022.2.4,MacIntel,60.04202942,Chrome,1440,900,,,a,0.687,10,679,2,2,6,30,8,1,0,0,1,0,0,0,0,1,hexagon,star,,,,,,,,,,,,,,,,,,,,,,,,,,,,,,,,,,,,,,,,,,,,,,,,,,,,,,
294361,2022-11-22_14h37.24.009,vts_reward_expectancy_bt,2022.2.4,MacIntel,60.04202942,Chrome,1440,900,,,a,0.4839,10,689,2,2,7,31,7,1,0,0,1,0,0,1,0,0,hexagon,circle,,,,,,,,,,,,,,,,,,,,,,,,,,,,,,,,,,,,,,,,,,,,,,,,,,,,,,
294361,2022-11-22_14h37.24.009,vts_reward_expectancy_bt,2022.2.4,MacIntel,60.04202942,Chrome,1440,900,,,l,0.5111,1,690,2,2,8,32,9,1,0,0,0,1,1,0,0,0,star,triangle,,,,,,,,,,,,,,,,,,,,,,,,,,,,,,,,,,,,,,,,,,,,,,,,,,,,,,
294361,2022-11-22_14h37.24.009,vts_reward_expectancy_bt,2022.2.4,MacIntel,60.04202942,Chrome,1440,900,,,a,0.614,1,691,2,2,9,33,5,1,0,1,0,0,0,0,0,1,circle,star,,,,,,,,,,,,,,,,,,,,,,,,,,,,,,,,,,,,,,,,,,,,,,,,,,,,,,
294361,2022-11-22_14h37.24.009,vts_reward_expectancy_bt,2022.2.4,MacIntel,60.04202942,Chrome,1440,900,,,l,0.4723,10,701,2,2,10,34,11,1,0,0,0,1,0,0,1,0,star,hexagon,,,,,,,,,,,,,,,,,,,,,,,,,,,,,,,,,,,,,,,,,,,,,,,,,,,,,,
294361,2022-11-22_14h37.24.009,vts_reward_expectancy_bt,2022.2.4,MacIntel,60.04202942,Chrome,1440,900,,,l,1.6011,10,711,2,2,11,35,3,1,0,1,0,0,1,0,0,0,circle,triangle,,,,,,,,,,,,,,,,,,,,,,,,,,,,,,,,,,,,,,,,,,,,,,,,,,,,,,
294361,2022-11-22_14h37.24.009,vts_reward_expectancy_bt,2022.2.4,MacIntel,60.04202942,Chrome,1440,900,,,,,,,,,,,,,,,,,,,,,,,132,D,star,0,0,,0,0,0,0,0,1,,,,,,,,,,,,,,,,,,,,,,,,,,,,,,,,,,,,,,,,,,
294361,2022-11-22_14h37.24.009,vts_reward_expectancy_bt,2022.2.4,MacIntel,60.04202942,Chrome,1440,900,,,,,,,,,,,,,,,,,,,,,,,125,U,hexagon,0,1,f,0,1,0,1,0,1,1.5373,,,,,,,,,,,,,,,,,,,,,,,,,,,,,,,,,,,,,,,,,
294361,2022-11-22_14h37.24.009,vts_reward_expectancy_bt,2022.2.4,MacIntel,60.04202942,Chrome,1440,900,,,,,,,,,,,,,,,,,,,,,,,160,H,triangle,1,1,f,0,2,0,2,0,1,0.8905,,,,,,,,,,,,,,,,,,,,,,,,,,,,,,,,,,,,,,,,,
294361,2022-11-22_14h37.24.009,vts_reward_expectancy_bt,2022.2.4,MacIntel,60.04202942,Chrome,1440,900,,,,,,,,,,,,,,,,,,,,,,,174,S,circle,1,0,f,0,3,0,3,0,1,0.741,,,,,,,,,,,,,,,,,,,,,,,,,,,,,,,,,,,,,,,,,
294361,2022-11-22_14h37.24.009,vts_reward_expectancy_bt,2022.2.4,MacIntel,60.04202942,Chrome,1440,900,,,,,,,,,,,,,,,,,,,,,,,181,Y,star,1,0,f,0,4,0,4,0,1,0.9583,,,,,,,,,,,,,,,,,,,,,,,,,,,,,,,,,,,,,,,,,
294361,2022-11-22_14h37.24.009,vts_reward_expectancy_bt,2022.2.4,MacIntel,60.04202942,Chrome,1440,900,,,,,,,,,,,,,,,,,,,,,,,139,W,hexagon,0,0,f,0,5,0,5,0,1,0.7919,,,,,,,,,,,,,,,,,,,,,,,,,,,,,,,,,,,,,,,,,
294361,2022-11-22_14h37.24.009,vts_reward_expectancy_bt,2022.2.4,MacIntel,60.04202942,Chrome,1440,900,,,,,,,,,,,,,,,,,,,,,,,167,F,triangle,0,1,d,0,6,0,6,0,1,1.0079,,,,,,,,,,,,,,,,,,,,,,,,,,,,,,,,,,,,,,,,,
294361,2022-11-22_14h37.24.009,vts_reward_expectancy_bt,2022.2.4,MacIntel,60.04202942,Chrome,1440,900,,,,,,,,,,,,,,,,,,,,,,,146,B,circle,0,1,f,0,7,0,7,0,1,0.6785,,,,,,,,,,,,,,,,,,,,,,,,,,,,,,,,,,,,,,,,,
294361,2022-11-22_14h37.24.009,vts_reward_expectancy_bt,2022.2.4,MacIntel,60.04202942,Chrome,1440,900,,,,,,,,,,,,,,,,,,,,,,,132,D,circle,0,1,f,0,8,0,8,0,1,0.6226,,,,,,,,,,,,,,,,,,,,,,,,,,,,,,,,,,,,,,,,,
294361,2022-11-22_14h37.24.009,vts_reward_expectancy_bt,2022.2.4,MacIntel,60.04202942,Chrome,1440,900,,,,,,,,,,,,,,,,,,,,,,,125,U,star,0,1,f,0,9,0,9,0,1,1.576,,,,,,,,,,,,,,,,,,,,,,,,,,,,,,,,,,,,,,,,,
294361,2022-11-22_14h37.24.009,vts_reward_expectancy_bt,2022.2.4,MacIntel,60.04202942,Chrome,1440,900,,,,,,,,,,,,,,,,,,,,,,,125,U,hexagon,1,1,d,1,0,0,0,0,1,0.5878,,,,,,,,,,,,,,,,,,,,,,,,,,,,,,,,,,,,,,,,,
294361,2022-11-22_14h37.24.009,vts_reward_expectancy_bt,2022.2.4,MacIntel,60.04202942,Chrome,1440,900,,,,,,,,,,,,,,,,,,,,,,,174,W,star,1,0,f,1,1,0,1,0,1,0.4762,,,,,,,,,,,,,,,,,,,,,,,,,,,,,,,,,,,,,,,,,
294361,2022-11-22_14h37.24.009,vts_reward_expectancy_bt,2022.2.4,MacIntel,60.04202942,Chrome,1440,900,,,,,,,,,,,,,,,,,,,,,,,139,B,triangle,1,0,d,1,2,0,2,0,1,0.4912,,,,,,,,,,,,,,,,,,,,,,,,,,,,,,,,,,,,,,,,,
294361,2022-11-22_14h37.24.009,vts_reward_expectancy_bt,2022.2.4,MacIntel,60.04202942,Chrome,1440,900,,,,,,,,,,,,,,,,,,,,,,,167,S,circle,1,0,f,1,3,0,3,0,1,0.4841,,,,,,,,,,,,,,,,,,,,,,,,,,,,,,,,,,,,,,,,,
294361,2022-11-22_14h37.24.009,vts_reward_expectancy_bt,2022.2.4,MacIntel,60.04202942,Chrome,1440,900,,,,,,,,,,,,,,,,,,,,,,,146,H,hexagon,1,0,d,1,4,0,4,0,1,0.4251,,,,,,,,,,,,,,,,,,,,,,,,,,,,,,,,,,,,,,,,,
294361,2022-11-22_14h37.24.009,vts_reward_expectancy_bt,2022.2.4,MacIntel,60.04202942,Chrome,1440,900,,,,,,,,,,,,,,,,,,,,,,,181,Y,star,1,0,f,1,5,0,5,0,1,0.5094,,,,,,,,,,,,,,,,,,,,,,,,,,,,,,,,,,,,,,,,,
294361,2022-11-22_14h37.24.009,vts_reward_expectancy_bt,2022.2.4,MacIntel,60.04202942,Chrome,1440,900,,,,,,,,,,,,,,,,,,,,,,,160,F,triangle,1,0,f,1,6,0,6,0,1,0.6954,,,,,,,,,,,,,,,,,,,,,,,,,,,,,,,,,,,,,,,,,
294361,2022-11-22_14h37.24.009,vts_reward_expectancy_bt,2022.2.4,MacIntel,60.04202942,Chrome,1440,900,,,,,,,,,,,,,,,,,,,,,,,132,D,circle,1,0,d,1,7,0,7,0,1,0.4466,,,,,,,,,,,,,,,,,,,,,,,,,,,,,,,,,,,,,,,,,
294361,2022-11-22_14h37.24.009,vts_reward_expectancy_bt,2022.2.4,MacIntel,60.04202942,Chrome,1440,900,,,,,,,,,,,,,,,,,,,,,,,125,U,circle,1,0,d,1,8,0,8,0,1,0.495,,,,,,,,,,,,,,,,,,,,,,,,,,,,,,,,,,,,,,,,,
294361,2022-11-22_14h37.24.009,vts_reward_expectancy_bt,2022.2.4,MacIntel,60.04202942,Chrome,1440,900,,,,,,,,,,,,,,,,,,,,,,,174,W,star,1,0,f,1,9,0,9,0,1,0.4625,,,,,,,,,,,,,,,,,,,,,,,,,,,,,,,,,,,,,,,,,
294361,2022-11-22_14h37.24.009,vts_reward_expectancy_bt,2022.2.4,MacIntel,60.04202942,Chrome,1440,900,,,,,,,,,,,,,,,,,,,,,,,125,D,circle,1,0,,2,,,,,,,j,2.3882,0,0,0,0,1,,,,,,,,,,,,,,,,,,,,,,,,,,,,,,,,,,
294361,2022-11-22_14h37.24.009,vts_reward_expectancy_bt,2022.2.4,MacIntel,60.04202942,Chrome,1440,900,,,,,,,,,,,,,,,,,,,,,,,160,S,hexagon,1,0,,2,,,,,,,k,1.4546,1,0,1,0,1,,,,,,,,,,,,,,,,,,,,,,,,,,,,,,,,,,
294361,2022-11-22_14h37.24.009,vts_reward_expectancy_bt,2022.2.4,MacIntel,60.04202942,Chrome,1440,900,,,,,,,,,,,,,,,,,,,,,,,167,W,triangle,1,0,,2,,,,,,,k,1.0516,2,0,2,0,1,,,,,,,,,,,,,,,,,,,,,,,,,,,,,,,,,,
294361,2022-11-22_14h37.24.009,vts_reward_expectancy_bt,2022.2.4,MacIntel,60.04202942,Chrome,1440,900,,,,,,,,,,,,,,,,,,,,,,,139,Y,star,1,0,,2,,,,,,,k,0.8441,3,0,3,0,1,,,,,,,,,,,,,,,,,,,,,,,,,,,,,,,,,,
294361,2022-11-22_14h37.24.009,vts_reward_expectancy_bt,2022.2.4,MacIntel,60.04202942,Chrome,1440,900,,,,,,,,,,,,,,,,,,,,,,,181,U,circle,1,0,,2,,,,,,,k,1.0758,4,0,4,0,1,,,,,,,,,,,,,,,,,,,,,,,,,,,,,,,,,,
294361,2022-11-22_14h37.24.009,vts_reward_expectancy_bt,2022.2.4,MacIntel,60.04202942,Chrome,1440,900,,,,,,,,,,,,,,,,,,,,,,,146,F,hexagon,0,0,,2,,,,,,,,,5,0,5,0,1,,,,,,,,,,,,,,,,,,,,,,,,,,,,,,,,,,
294361,2022-11-22_14h37.24.009,vts_reward_expectancy_bt,2022.2.4,MacIntel,60.04202942,Chrome,1440,900,,,,,,,,,,,,,,,,,,,,,,,132,H,triangle,0,1,,2,,,,,,,k,0.8607,6,0,6,0,1,,,,,,,,,,,,,,,,,,,,,,,,,,,,,,,,,,
294361,2022-11-22_14h37.24.009,vts_reward_expectancy_bt,2022.2.4,MacIntel,60.04202942,Chrome,1440,900,,,,,,,,,,,,,,,,,,,,,,,174,B,star,1,1,,2,,,,,,,j,0.708,7,0,7,0,1,,,,,,,,,,,,,,,,,,,,,,,,,,,,,,,,,,
294361,2022-11-22_14h37.24.009,vts_reward_expectancy_bt,2022.2.4,MacIntel,60.04202942,Chrome,1440,900,,,,,,,,,,,,,,,,,,,,,,,125,D,star,1,0,,2,,,,,,,j,0.9326,8,0,8,0,1,,,,,,,,,,,,,,,,,,,,,,,,,,,,,,,,,,
294361,2022-11-22_14h37.24.009,vts_reward_expectancy_bt,2022.2.4,MacIntel,60.04202942,Chrome,1440,900,,,,,,,,,,,,,,,,,,,,,,,160,S,triangle,1,0,,2,,,,,,,k,0.887,9,0,9,0,1,,,,,,,,,,,,,,,,,,,,,,,,,,,,,,,,,,
294361,2022-11-22_14h37.24.009,vts_reward_expectancy_bt,2022.2.4,MacIntel,60.04202942,Chrome,1440,900,,,,,,,,,,,,,,,,,,,,,,,125,Y,circle,1,0,,3,,,,,,,k,1.6544,0,0,0,0,1,,,,,,,,,,,,,,,,,,,,,,,,,,,,,,,,,,
294361,2022-11-22_14h37.24.009,vts_reward_expectancy_bt,2022.2.4,MacIntel,60.04202942,Chrome,1440,900,,,,,,,,,,,,,,,,,,,,,,,146,D,triangle,1,0,,3,,,,,,,j,1.0573,1,0,1,0,1,,,,,,,,,,,,,,,,,,,,,,,,,,,,,,,,,,
294361,2022-11-22_14h37.24.009,vts_reward_expectancy_bt,2022.2.4,MacIntel,60.04202942,Chrome,1440,900,,,,,,,,,,,,,,,,,,,,,,,181,W,hexagon,1,0,,3,,,,,,,k,0.7057,2,0,2,0,1,,,,,,,,,,,,,,,,,,,,,,,,,,,,,,,,,,
294361,2022-11-22_14h37.24.009,vts_reward_expectancy_bt,2022.2.4,MacIntel,60.04202942,Chrome,1440,900,,,,,,,,,,,,,,,,,,,,,,,160,S,star,1,0,,3,,,,,,,k,1.5934,3,0,3,0,1,,,,,,,,,,,,,,,,,,,,,,,,,,,,,,,,,,
294361,2022-11-22_14h37.24.009,vts_reward_expectancy_bt,2022.2.4,MacIntel,60.04202942,Chrome,1440,900,,,,,,,,,,,,,,,,,,,,,,,132,H,circle,1,0,,3,,,,,,,j,1.3047,4,0,4,0,1,,,,,,,,,,,,,,,,,,,,,,,,,,,,,,,,,,
294361,2022-11-22_14h37.24.009,vts_reward_expectancy_bt,2022.2.4,MacIntel,60.04202942,Chrome,1440,900,,,,,,,,,,,,,,,,,,,,,,,174,U,triangle,1,0,,3,,,,,,,k,1.809,5,0,5,0,1,,,,,,,,,,,,,,,,,,,,,,,,,,,,,,,,,,
294361,2022-11-22_14h37.24.009,vts_reward_expectancy_bt,2022.2.4,MacIntel,60.04202942,Chrome,1440,900,,,,,,,,,,,,,,,,,,,,,,,167,F,hexagon,0,0,,3,,,,,,,k,0.9141,6,0,6,0,1,,,,,,,,,,,,,,,,,,,,,,,,,,,,,,,,,,
294361,2022-11-22_14h37.24.009,vts_reward_expectancy_bt,2022.2.4,MacIntel,60.04202942,Chrome,1440,900,,,,,,,,,,,,,,,,,,,,,,,139,B,star,1,1,,3,,,,,,,j,0.6784,7,0,7,0,1,,,,,,,,,,,,,,,,,,,,,,,,,,,,,,,,,,
294361,2022-11-22_14h37.24.009,vts_reward_expectancy_bt,2022.2.4,MacIntel,60.04202942,Chrome,1440,900,,,,,,,,,,,,,,,,,,,,,,,125,Y,circle,1,0,,3,,,,,,,k,0.7596,8,0,8,0,1,,,,,,,,,,,,,,,,,,,,,,,,,,,,,,,,,,
294361,2022-11-22_14h37.24.009,vts_reward_expectancy_bt,2022.2.4,MacIntel,60.04202942,Chrome,1440,900,,,,,,,,,,,,,,,,,,,,,,,146,D,hexagon,1,0,,3,,,,,,,j,0.7638,9,0,9,0,1,,,,,,,,,,,,,,,,,,,,,,,,,,,,,,,,,,
294361,2022-11-22_14h37.24.009,vts_reward_expectancy_bt,2022.2.4,MacIntel,60.04202942,Chrome,1440,900,,,,,0,711,,,,,,,,,,,,,,,,,146,F,circle,0,0,,4,,,,,,,,,,,,,,-1,letter,NA,k,2.078,vtsPrac,0,0,0,0,1,,,,,,,,,,,,,,,,,,,,,,,
294361,2022-11-22_14h37.24.009,vts_reward_expectancy_bt,2022.2.4,MacIntel,60.04202942,Chrome,1440,900,,,,,0,711,,,,,,,,,,,,,,,,,167,Y,triangle,1,1,,4,,,,,,,,,,,,,,repeat,letter,lettRpt,k,0.1105,vtsPrac,1,0,1,0,1,,,,,,,,,,,,,,,,,,,,,,,
294361,2022-11-22_14h37.24.009,vts_reward_expectancy_bt,2022.2.4,MacIntel,60.04202942,Chrome,1440,900,,,,,0,711,,,,,,,,,,,,,,,,,139,S,circle,1,0,,4,,,,,,,,,,,,,,repeat,letter,lettRpt,k,1.6647,vtsPrac,2,0,2,0,1,,,,,,,,,,,,,,,,,,,,,,,
294361,2022-11-22_14h37.24.009,vts_reward_expectancy_bt,2022.2.4,MacIntel,60.04202942,Chrome,1440,900,,,,,0,711,,,,,,,,,,,,,,,,,125,U,triangle,0,0,,4,,,,,,,,,,,,,,repeat,letter,NA,j,0.1585,vtsPrac,3,0,3,0,1,,,,,,,,,,,,,,,,,,,,,,,
294361,2022-11-22_14h37.24.009,vts_reward_expectancy_bt,2022.2.4,MacIntel,60.04202942,Chrome,1440,900,,,,,0,711,,,,,,,,,,,,,,,,,146,F,triangle,0,1,,4,,,,,,,,,,,,,,repeat,letter,NA,k,0.7891,vtsPrac,4,0,4,0,1,,,,,,,,,,,,,,,,,,,,,,,
294361,2022-11-22_14h37.24.009,vts_reward_expectancy_bt,2022.2.4,MacIntel,60.04202942,Chrome,1440,900,,,,,0,711,,,,,,,,,,,,,,,,,167,Y,circle,1,1,,4,,,,,,,,,,,,,,switch,number,numSwt,f,0.9555,vtsPrac,5,0,5,0,1,,,,,,,,,,,,,,,,,,,,,,,
294361,2022-11-22_14h37.24.009,vts_reward_expectancy_bt,2022.2.4,MacIntel,60.04202942,Chrome,1440,900,,,,,0,711,,,,,,,,,,,,,,,,,139,S,star,0,0,,4,,,,,,,,,,,,,,repeat,number,NA,f,1.2282,vtsPrac,6,0,6,0,1,,,,,,,,,,,,,,,,,,,,,,,
294361,2022-11-22_14h37.24.009,vts_reward_expectancy_bt,2022.2.4,MacIntel,60.04202942,Chrome,1440,900,,,,,0,711,,,,,,,,,,,,,,,,,125,U,triangle,1,1,,4,,,,,,,,,,,,,,repeat,number,numRpt,d,1.0737,vtsPrac,7,0,7,0,1,,,,,,,,,,,,,,,,,,,,,,,
294361,2022-11-22_14h37.24.009,vts_reward_expectancy_bt,2022.2.4,MacIntel,60.04202942,Chrome,1440,900,,,,,0,711,,,,,,,,,,,,,,,,,125,S,hexagon,1,0,,4,,,,,,,,,,,,,,switch,letter,lettSwt,k,0.8235,vtsPrac,8,0,8,0,1,,,,,,,,,,,,,,,,,,,,,,,
294361,2022-11-22_14h37.24.009,vts_reward_expectancy_bt,2022.2.4,MacIntel,60.04202942,Chrome,1440,900,,,,,0,711,,,,,,,,,,,,,,,,,139,B,triangle,1,0,,4,,,,,,,,,,,,,,repeat,letter,lettRpt,j,0.8629,vtsPrac,9,0,9,0,1,,,,,,,,,,,,,,,,,,,,,,,
294361,2022-11-22_14h37.24.009,vts_reward_expectancy_bt,2022.2.4,MacIntel,60.04202942,Chrome,1440,900,,,,,0,711,,,,,,,,,,,,,,,,,167,W,hexagon,1,0,,4,,,,,,,,,,,,,,switch,number,numSwt,f,0.9753,vtsPrac,10,0,10,0,1,,,,,,,,,,,,,,,,,,,,,,,
294361,2022-11-22_14h37.24.009,vts_reward_expectancy_bt,2022.2.4,MacIntel,60.04202942,Chrome,1440,900,,,,,0,711,,,,,,,,,,,,,,,,,160,U,circle,1,0,,4,,,,,,,,,,,,,,repeat,number,numRpt,f,1.2703,vtsPrac,11,0,11,0,1,,,,,,,,,,,,,,,,,,,,,,,
294361,2022-11-22_14h37.24.009,vts_reward_expectancy_bt,2022.2.4,MacIntel,60.04202942,Chrome,1440,900,,,,,0,711,,,,,,,,,,,,,,,,,125,F,hexagon,0,0,,4,,,,,,,,,,,,,,switch,letter,NA,k,1.5242,vtsPrac,12,0,12,0,1,,,,,,,,,,,,,,,,,,,,,,,
294361,2022-11-22_14h37.24.009,vts_reward_expectancy_bt,2022.2.4,MacIntel,60.04202942,Chrome,1440,900,,,,,0,711,,,,,,,,,,,,,,,,,160,H,circle,1,1,,4,,,,,,,,,,,,,,switch,number,numSwt,f,1.4549,vtsPrac,13,0,13,0,1,,,,,,,,,,,,,,,,,,,,,,,
294361,2022-11-22_14h37.24.009,vts_reward_expectancy_bt,2022.2.4,MacIntel,60.04202942,Chrome,1440,900,,,,,0,711,,,,,,,,,,,,,,,,,146,Y,circle,1,0,,4,,,,,,,,,,,,,,repeat,number,numRpt,d,1.4727,vtsPrac,14,0,14,0,1,,,,,,,,,,,,,,,,,,,,,,,
294361,2022-11-22_14h37.24.009,vts_reward_expectancy_bt,2022.2.4,MacIntel,60.04202942,Chrome,1440,900,,,,,0,711,,,,,,,,,,,,,,,,,139,D,triangle,1,0,,4,,,,,,,,,,,,,,repeat,number,numRpt,d,1.0127,vtsPrac,15,0,15,0,1,,,,,,,,,,,,,,,,,,,,,,,
294361,2022-11-22_14h37.24.009,vts_reward_expectancy_bt,2022.2.4,MacIntel,60.04202942,Chrome,1440,900,,,,,0,711,,,,,,,,,,,,,,,,,139,Y,star,1,0,,4,,,,,,,,,,,,,,switch,letter,lettSwt,k,0.867,vtsPrac,16,0,16,0,1,,,,,,,,,,,,,,,,,,,,,,,
294361,2022-11-22_14h37.24.009,vts_reward_expectancy_bt,2022.2.4,MacIntel,60.04202942,Chrome,1440,900,,,,,0,711,,,,,,,,,,,,,,,,,132,F,circle,1,0,,4,,,,,,,,,,,,,,repeat,letter,lettRpt,j,1.7645,vtsPrac,17,0,17,0,1,,,,,,,,,,,,,,,,,,,,,,,
294361,2022-11-22_14h37.24.009,vts_reward_expectancy_bt,2022.2.4,MacIntel,60.04202942,Chrome,1440,900,,,,,0,711,,,,,,,,,,,,,,,,,146,S,hexagon,1,0,,4,,,,,,,,,,,,,,repeat,letter,lettRpt,k,1.5959,vtsPrac,18,0,18,0,1,,,,,,,,,,,,,,,,,,,,,,,
294361,2022-11-22_14h37.24.009,vts_reward_expectancy_bt,2022.2.4,MacIntel,60.04202942,Chrome,1440,900,,,,,0,711,,,,,,,,,,,,,,,,,167,W,triangle,1,0,,4,,,,,,,,,,,,,,repeat,letter,lettRpt,k,0.7304,vtsPrac,19,0,19,0,1,,,,,,,,,,,,,,,,,,,,,,,
294361,2022-11-22_14h37.24.009,vts_reward_expectancy_bt,2022.2.4,MacIntel,60.04202942,Chrome,1440,900,,,,,0,711,,,,,,,,,,,,,,,,,125,B,star,1,0,,4,,,,,,,,,,,,,,switch,number,numSwt,d,1.0123,vtsPrac,20,0,20,0,1,,,,,,,,,,,,,,,,,,,,,,,
294361,2022-11-22_14h37.24.009,vts_reward_expectancy_bt,2022.2.4,MacIntel,60.04202942,Chrome,1440,900,,,,,0,711,,,,,,,,,,,,,,,,,160,Y,hexagon,1,0,,4,,,,,,,,,,,,,,switch,letter,lettSwt,k,1.4289,vtsPrac,21,0,21,0,1,,,,,,,,,,,,,,,,,,,,,,,
294361,2022-11-22_14h37.24.009,vts_reward_expectancy_bt,2022.2.4,MacIntel,60.04202942,Chrome,1440,900,,,,,0,711,,,,,,,,,,,,,,,,,167,S,hexagon,-1,0,,4,,,,,,,,,,,,,,switch,no_choice,NA,,,vtsPrac,22,0,22,0,1,,,,,,,,,,,,,,,,,,,,,,,
294361,2022-11-22_14h37.24.009,vts_reward_expectancy_bt,2022.2.4,MacIntel,60.04202942,Chrome,1440,900,,,,,0,711,,,,,,,,,,,,,,,,,181,W,star,1,0,,4,,,,,,,,,,,,,,switch,number,numSwt,f,0.9061,vtsPrac,23,0,23,0,1,,,,,,,,,,,,,,,,,,,,,,,
294361,2022-11-22_14h37.24.009,vts_reward_expectancy_bt,2022.2.4,MacIntel,60.04202942,Chrome,1440,900,,,,,0,711,,,,,,,,,,,,,,,,,160,H,hexagon,1,0,,4,,,,,,,,,,,,,,repeat,number,numRpt,f,0.8268,vtsPrac,24,0,24,0,1,,,,,,,,,,,,,,,,,,,,,,,
294361,2022-11-22_14h37.24.009,vts_reward_expectancy_bt,2022.2.4,MacIntel,60.04202942,Chrome,1440,900,,,,,0,711,,,,,,,,,,,,,,,,,181,F,star,0,0,,4,,,,,,,,,,,,,,switch,letter,NA,k,1.3426,vtsPrac,25,0,25,0,1,,,,,,,,,,,,,,,,,,,,,,,
294361,2022-11-22_14h37.24.009,vts_reward_expectancy_bt,2022.2.4,MacIntel,60.04202942,Chrome,1440,900,,,,,0,711,,,,,,,,,,,,,,,,,146,S,circle,0,1,,4,,,,,,,,,,,,,,repeat,letter,NA,j,0.8429,vtsPrac,26,0,26,0,1,,,,,,,,,,,,,,,,,,,,,,,
294361,2022-11-22_14h37.24.009,vts_reward_expectancy_bt,2022.2.4,MacIntel,60.04202942,Chrome,1440,900,,,,,0,711,,,,,,,,,,,,,,,,,125,D,triangle,1,1,,4,,,,,,,,,,,,,,repeat,letter,lettRpt,j,1.3675,vtsPrac,27,0,27,0,1,,,,,,,,,,,,,,,,,,,,,,,
294361,2022-11-22_14h37.24.009,vts_reward_expectancy_bt,2022.2.4,MacIntel,60.04202942,Chrome,1440,900,,,,,0,711,,,,,,,,,,,,,,,,,132,U,circle,1,0,,4,,,,,,,,,,,,,,repeat,letter,lettRpt,k,0.9919,vtsPrac,28,0,28,0,1,,,,,,,,,,,,,,,,,,,,,,,
294361,2022-11-22_14h37.24.009,vts_reward_expectancy_bt,2022.2.4,MacIntel,60.04202942,Chrome,1440,900,,,,,0,711,,,,,,,,,,,,,,,,,174,S,triangle,1,0,,4,,,,,,,,,,,,,,switch,number,numSwt,f,1.1958,vtsPrac,29,0,29,0,1,,,,,,,,,,,,,,,,,,,,,,,
294361,2022-11-22_14h37.24.009,vts_reward_expectancy_bt,2022.2.4,MacIntel,60.04202942,Chrome,1440,900,,,,,0,711,,,,,,,,,,,,,,,,,139,D,triangle,1,0,,4,,,,,,,,,,,,,,repeat,number,numRpt,d,0.7973,vtsPrac,30,0,30,0,1,,,,,,,,,,,,,,,,,,,,,,,
294361,2022-11-22_14h37.24.009,vts_reward_expectancy_bt,2022.2.4,MacIntel,60.04202942,Chrome,1440,900,,,,,0,711,,,,,,,,,,,,,,,,,160,B,circle,1,0,,4,,,,,,,,,,,,,,repeat,number,numRpt,f,0.7961,vtsPrac,31,0,31,0,1,,,,,,,,,,,,,,,,,,,,,,,
294361,2022-11-22_14h37.24.009,vts_reward_expectancy_bt,2022.2.4,MacIntel,60.04202942,Chrome,1440,900,,,,,0,711,,,,,,,,,,,,,,,,,167,F,triangle,1,0,,5,,,,,,,,,,,,,,repeat,number,numRpt,f,0.5315,vtsPrac,0,0,0,0,1,,,,,,,,,,,,,,,,,,,,,,,
294361,2022-11-22_14h37.24.009,vts_reward_expectancy_bt,2022.2.4,MacIntel,60.04202942,Chrome,1440,900,,,,,0,711,,,,,,,,,,,,,,,,,146,H,hexagon,0,0,,5,,,,,,,,,,,,,,switch,letter,NA,k,1.1749,vtsPrac,1,0,1,0,1,,,,,,,,,,,,,,,,,,,,,,,
294361,2022-11-22_14h37.24.009,vts_reward_expectancy_bt,2022.2.4,MacIntel,60.04202942,Chrome,1440,900,,,,,0,711,,,,,,,,,,,,,,,,,160,Y,triangle,1,1,,5,,,,,,,,,,,,,,switch,number,numSwt,f,0.6532,vtsPrac,2,0,2,0,1,,,,,,,,,,,,,,,,,,,,,,,
294361,2022-11-22_14h37.24.009,vts_reward_expectancy_bt,2022.2.4,MacIntel,60.04202942,Chrome,1440,900,,,,,0,711,,,,,,,,,,,,,,,,,132,W,hexagon,1,0,,5,,,,,,,,,,,,,,switch,letter,lettSwt,k,0.6556,vtsPrac,3,0,3,0,1,,,,,,,,,,,,,,,,,,,,,,,
294361,2022-11-22_14h37.24.009,vts_reward_expectancy_bt,2022.2.4,MacIntel,60.04202942,Chrome,1440,900,,,,,0,711,,,,,,,,,,,,,,,,,167,F,triangle,1,0,,5,,,,,,,,,,,,,,switch,number,numSwt,f,0.5739,vtsPrac,4,0,4,0,1,,,,,,,,,,,,,,,,,,,,,,,
294361,2022-11-22_14h37.24.009,vts_reward_expectancy_bt,2022.2.4,MacIntel,60.04202942,Chrome,1440,900,,,,,0,711,,,,,,,,,,,,,,,,,146,H,star,1,0,,5,,,,,,,,,,,,,,switch,letter,lettSwt,j,0.6612,vtsPrac,5,0,5,0,1,,,,,,,,,,,,,,,,,,,,,,,
294361,2022-11-22_14h37.24.009,vts_reward_expectancy_bt,2022.2.4,MacIntel,60.04202942,Chrome,1440,900,,,,,0,711,,,,,,,,,,,,,,,,,160,Y,star,1,0,,5,,,,,,,,,,,,,,switch,number,numSwt,f,0.5109,vtsPrac,6,0,6,0,1,,,,,,,,,,,,,,,,,,,,,,,
294361,2022-11-22_14h37.24.009,vts_reward_expectancy_bt,2022.2.4,MacIntel,60.04202942,Chrome,1440,900,,,,,0,711,,,,,,,,,,,,,,,,,132,W,hexagon,1,0,,5,,,,,,,,,,,,,,switch,letter,lettSwt,k,0.497,vtsPrac,7,0,7,0,1,,,,,,,,,,,,,,,,,,,,,,,
294361,2022-11-22_14h37.24.009,vts_reward_expectancy_bt,2022.2.4,MacIntel,60.04202942,Chrome,1440,900,,,,,0,711,,,,,,,,,,,,,,,,,167,S,circle,1,0,,5,,,,,,,,,,,,,,switch,number,numSwt,f,0.8521,vtsPrac,8,0,8,0,1,,,,,,,,,,,,,,,,,,,,,,,
294361,2022-11-22_14h37.24.009,vts_reward_expectancy_bt,2022.2.4,MacIntel,60.04202942,Chrome,1440,900,,,,,0,711,,,,,,,,,,,,,,,,,174,F,star,1,0,,5,,,,,,,,,,,,,,switch,letter,lettSwt,j,0.5249,vtsPrac,9,0,9,0,1,,,,,,,,,,,,,,,,,,,,,,,
294361,2022-11-22_14h37.24.009,vts_reward_expectancy_bt,2022.2.4,MacIntel,60.04202942,Chrome,1440,900,,,,,0,711,,,,,,,,,,,,,,,,,125,H,circle,1,0,,5,,,,,,,,,,,,,,switch,number,numSwt,d,0.7449,vtsPrac,10,0,10,0,1,,,,,,,,,,,,,,,,,,,,,,,
294361,2022-11-22_14h37.24.009,vts_reward_expectancy_bt,2022.2.4,MacIntel,60.04202942,Chrome,1440,900,,,,,0,711,,,,,,,,,,,,,,,,,181,B,hexagon,1,0,,5,,,,,,,,,,,,,,switch,letter,lettSwt,j,0.5806,vtsPrac,11,0,11,0,1,,,,,,,,,,,,,,,,,,,,,,,
294361,2022-11-22_14h37.24.009,vts_reward_expectancy_bt,2022.2.4,MacIntel,60.04202942,Chrome,1440,900,,,,,0,711,,,,,,,,,,,,,,,,,132,S,star,1,0,,5,,,,,,,,,,,,,,switch,number,numSwt,d,0.7303,vtsPrac,12,0,12,0,1,,,,,,,,,,,,,,,,,,,,,,,
294361,2022-11-22_14h37.24.009,vts_reward_expectancy_bt,2022.2.4,MacIntel,60.04202942,Chrome,1440,900,,,,,0,711,,,,,,,,,,,,,,,,,139,U,circle,1,0,,5,,,,,,,,,,,,,,switch,letter,lettSwt,k,0.6429,vtsPrac,13,0,13,0,1,,,,,,,,,,,,,,,,,,,,,,,
294361,2022-11-22_14h37.24.009,vts_reward_expectancy_bt,2022.2.4,MacIntel,60.04202942,Chrome,1440,900,,,,,0,711,,,,,,,,,,,,,,,,,181,Y,hexagon,1,0,,5,,,,,,,,,,,,,,switch,number,numSwt,f,0.5829,vtsPrac,14,0,14,0,1,,,,,,,,,,,,,,,,,,,,,,,
294361,2022-11-22_14h37.24.009,vts_reward_expectancy_bt,2022.2.4,MacIntel,60.04202942,Chrome,1440,900,,,,,0,711,,,,,,,,,,,,,,,,,174,H,circle,1,0,,5,,,,,,,,,,,,,,switch,letter,lettSwt,j,0.6074,vtsPrac,15,0,15,0,1,,,,,,,,,,,,,,,,,,,,,,,
294361,2022-11-22_14h37.24.009,vts_reward_expectancy_bt,2022.2.4,MacIntel,60.04202942,Chrome,1440,900,,,,,0,711,,,,,,,,,,,,,,,,,139,W,hexagon,1,0,,5,,,,,,,,,,,,,,switch,number,numSwt,d,0.8583,vtsPrac,16,0,16,0,1,,,,,,,,,,,,,,,,,,,,,,,
294361,2022-11-22_14h37.24.009,vts_reward_expectancy_bt,2022.2.4,MacIntel,60.04202942,Chrome,1440,900,,,,,0,711,,,,,,,,,,,,,,,,,125,S,star,1,0,,5,,,,,,,,,,,,,,switch,letter,lettSwt,k,0.4912,vtsPrac,17,0,17,0,1,,,,,,,,,,,,,,,,,,,,,,,
294361,2022-11-22_14h37.24.009,vts_reward_expectancy_bt,2022.2.4,MacIntel,60.04202942,Chrome,1440,900,,,,,0,711,,,,,,,,,,,,,,,,,146,Y,triangle,1,0,,5,,,,,,,,,,,,,,switch,number,numSwt,d,0.541,vtsPrac,18,0,18,0,1,,,,,,,,,,,,,,,,,,,,,,,
294361,2022-11-22_14h37.24.009,vts_reward_expectancy_bt,2022.2.4,MacIntel,60.04202942,Chrome,1440,900,,,,,0,711,,,,,,,,,,,,,,,,,132,D,circle,1,0,,5,,,,,,,,,,,,,,switch,letter,lettSwt,j,0.514,vtsPrac,19,0,19,0,1,,,,,,,,,,,,,,,,,,,,,,,
294361,2022-11-22_14h37.24.009,vts_reward_expectancy_bt,2022.2.4,MacIntel,60.04202942,Chrome,1440,900,,,,,0,711,,,,,,,,,,,,,,,,,139,F,star,1,0,,5,,,,,,,,,,,,,,switch,number,numSwt,d,0.5904,vtsPrac,20,0,20,0,1,,,,,,,,,,,,,,,,,,,,,,,
294361,2022-11-22_14h37.24.009,vts_reward_expectancy_bt,2022.2.4,MacIntel,60.04202942,Chrome,1440,900,,,,,0,711,,,,,,,,,,,,,,,,,181,S,circle,1,0,,5,,,,,,,,,,,,,,switch,letter,lettSwt,k,0.5409,vtsPrac,21,0,21,0,1,,,,,,,,,,,,,,,,,,,,,,,
294361,2022-11-22_14h37.24.009,vts_reward_expectancy_bt,2022.2.4,MacIntel,60.04202942,Chrome,1440,900,,,,,0,711,,,,,,,,,,,,,,,,,125,H,star,1,0,,5,,,,,,,,,,,,,,switch,number,numSwt,d,0.5589,vtsPrac,22,0,22,0,1,,,,,,,,,,,,,,,,,,,,,,,
294361,2022-11-22_14h37.24.009,vts_reward_expectancy_bt,2022.2.4,MacIntel,60.04202942,Chrome,1440,900,,,,,0,711,,,,,,,,,,,,,,,,,132,B,circle,1,0,,5,,,,,,,,,,,,,,switch,letter,lettSwt,j,0.4398,vtsPrac,23,0,23,0,1,,,,,,,,,,,,,,,,,,,,,,,
294361,2022-11-22_14h37.24.009,vts_reward_expectancy_bt,2022.2.4,MacIntel,60.04202942,Chrome,1440,900,,,,,0,711,,,,,,,,,,,,,,,,,125,Y,circle,1,0,,5,,,,,,,,,,,,,,switch,number,numSwt,d,0.4455,vtsPrac,24,0,24,0,1,,,,,,,,,,,,,,,,,,,,,,,
294361,2022-11-22_14h37.24.009,vts_reward_expectancy_bt,2022.2.4,MacIntel,60.04202942,Chrome,1440,900,,,,,0,711,,,,,,,,,,,,,,,,,181,H,triangle,1,0,,5,,,,,,,,,,,,,,switch,letter,lettSwt,j,0.8769,vtsPrac,25,0,25,0,1,,,,,,,,,,,,,,,,,,,,,,,
294361,2022-11-22_14h37.24.009,vts_reward_expectancy_bt,2022.2.4,MacIntel,60.04202942,Chrome,1440,900,,,,,0,711,,,,,,,,,,,,,,,,,146,S,hexagon,1,0,,5,,,,,,,,,,,,,,switch,number,numSwt,d,0.5437,vtsPrac,26,0,26,0,1,,,,,,,,,,,,,,,,,,,,,,,
294361,2022-11-22_14h37.24.009,vts_reward_expectancy_bt,2022.2.4,MacIntel,60.04202942,Chrome,1440,900,,,,,0,711,,,,,,,,,,,,,,,,,174,F,triangle,1,0,,5,,,,,,,,,,,,,,switch,letter,lettSwt,j,0.5766,vtsPrac,27,0,27,0,1,,,,,,,,,,,,,,,,,,,,,,,
294361,2022-11-22_14h37.24.009,vts_reward_expectancy_bt,2022.2.4,MacIntel,60.04202942,Chrome,1440,900,,,,,0,711,,,,,,,,,,,,,,,,,160,W,hexagon,1,0,,5,,,,,,,,,,,,,,switch,number,numSwt,f,0.5448,vtsPrac,28,0,28,0,1,,,,,,,,,,,,,,,,,,,,,,,
294361,2022-11-22_14h37.24.009,vts_reward_expectancy_bt,2022.2.4,MacIntel,60.04202942,Chrome,1440,900,,,,,0,711,,,,,,,,,,,,,,,,,125,S,star,1,0,,5,,,,,,,,,,,,,,switch,letter,lettSwt,k,0.5261,vtsPrac,29,0,29,0,1,,,,,,,,,,,,,,,,,,,,,,,
294361,2022-11-22_14h37.24.009,vts_reward_expectancy_bt,2022.2.4,MacIntel,60.04202942,Chrome,1440,900,,,,,0,711,,,,,,,,,,,,,,,,,139,D,hexagon,1,0,,5,,,,,,,,,,,,,,switch,number,numSwt,d,0.4774,vtsPrac,30,0,30,0,1,,,,,,,,,,,,,,,,,,,,,,,
294361,2022-11-22_14h37.24.009,vts_reward_expectancy_bt,2022.2.4,MacIntel,60.04202942,Chrome,1440,900,,,,,0,711,,,,,,,,,,,,,,,,,181,F,star,1,0,,5,,,,,,,,,,,,,,switch,letter,lettSwt,j,0.7933,vtsPrac,31,0,31,0,1,,,,,,,,,,,,,,,,,,,,,,,
294361,2022-11-22_14h37.24.009,vts_reward_expectancy_bt,2022.2.4,MacIntel,60.04202942,Chrome,1440,900,,,,,0,711,,,,,,,,,,,,,,,,,174,Y,circle,1,0,,6,,,,,,,,,,,,,,repeat,letter,lettRpt,k,2.2764,vtsPrac,0,0,0,0,1,,,,,,,,,,,,,,,,,,,,,,,
294361,2022-11-22_14h37.24.009,vts_reward_expectancy_bt,2022.2.4,MacIntel,60.04202942,Chrome,1440,900,,,,,0,711,,,,,,,,,,,,,,,,,125,U,triangle,1,0,,6,,,,,,,,,,,,,,switch,number,numSwt,d,0.9772,vtsPrac,1,0,1,0,1,,,,,,,,,,,,,,,,,,,,,,,
294361,2022-11-22_14h37.24.009,vts_reward_expectancy_bt,2022.2.4,MacIntel,60.04202942,Chrome,1440,900,,,,,0,711,,,,,,,,,,,,,,,,,181,F,circle,0,0,,6,,,,,,,,,,,,,,switch,letter,NA,k,0.8062,vtsPrac,2,0,2,0,1,,,,,,,,,,,,,,,,,,,,,,,
294361,2022-11-22_14h37.24.009,vts_reward_expectancy_bt,2022.2.4,MacIntel,60.04202942,Chrome,1440,900,,,,,0,711,,,,,,,,,,,,,,,,,132,H,triangle,1,1,,6,,,,,,,,,,,,,,switch,number,numSwt,d,0.8486,vtsPrac,3,0,3,0,1,,,,,,,,,,,,,,,,,,,,,,,
294361,2022-11-22_14h37.24.009,vts_reward_expectancy_bt,2022.2.4,MacIntel,60.04202942,Chrome,1440,900,,,,,0,711,,,,,,,,,,,,,,,,,174,Y,hexagon,1,0,,6,,,,,,,,,,,,,,repeat,number,numRpt,f,0.8242,vtsPrac,4,0,4,0,1,,,,,,,,,,,,,,,,,,,,,,,
294361,2022-11-22_14h37.24.009,vts_reward_expectancy_bt,2022.2.4,MacIntel,60.04202942,Chrome,1440,900,,,,,0,711,,,,,,,,,,,,,,,,,125,U,circle,1,0,,6,,,,,,,,,,,,,,repeat,number,numRpt,d,0.692,vtsPrac,5,0,5,0,1,,,,,,,,,,,,,,,,,,,,,,,
294361,2022-11-22_14h37.24.009,vts_reward_expectancy_bt,2022.2.4,MacIntel,60.04202942,Chrome,1440,900,,,,,0,711,,,,,,,,,,,,,,,,,181,F,triangle,1,0,,6,,,,,,,,,,,,,,repeat,number,numRpt,f,1.2275,vtsPrac,6,0,6,0,1,,,,,,,,,,,,,,,,,,,,,,,
294361,2022-11-22_14h37.24.009,vts_reward_expectancy_bt,2022.2.4,MacIntel,60.04202942,Chrome,1440,900,,,,,0,711,,,,,,,,,,,,,,,,,132,H,circle,1,0,,6,,,,,,,,,,,,,,switch,letter,lettSwt,j,1.1246,vtsPrac,7,0,7,0,1,,,,,,,,,,,,,,,,,,,,,,,
294361,2022-11-22_14h37.24.009,vts_reward_expectancy_bt,2022.2.4,MacIntel,60.04202942,Chrome,1440,900,,,,,0,711,,,,,,,,,,,,,,,,,181,U,star,1,0,,6,,,,,,,,,,,,,,repeat,letter,lettRpt,k,0.7602,vtsPrac,8,0,8,0,1,,,,,,,,,,,,,,,,,,,,,,,
294361,2022-11-22_14h37.24.009,vts_reward_expectancy_bt,2022.2.4,MacIntel,60.04202942,Chrome,1440,900,,,,,0,711,,,,,,,,,,,,,,,,,132,S,triangle,1,0,,6,,,,,,,,,,,,,,repeat,letter,lettRpt,k,0.9911,vtsPrac,9,0,9,0,1,,,,,,,,,,,,,,,,,,,,,,,
294361,2022-11-22_14h37.24.009,vts_reward_expectancy_bt,2022.2.4,MacIntel,60.04202942,Chrome,1440,900,,,,,0,711,,,,,,,,,,,,,,,,,125,W,circle,1,0,,6,,,,,,,,,,,,,,repeat,letter,lettRpt,k,0.8252,vtsPrac,10,0,10,0,1,,,,,,,,,,,,,,,,,,,,,,,
294361,2022-11-22_14h37.24.009,vts_reward_expectancy_bt,2022.2.4,MacIntel,60.04202942,Chrome,1440,900,,,,,0,711,,,,,,,,,,,,,,,,,160,Y,star,1,0,,6,,,,,,,,,,,,,,switch,number,numSwt,f,1.2403,vtsPrac,11,0,11,0,1,,,,,,,,,,,,,,,,,,,,,,,
294361,2022-11-22_14h37.24.009,vts_reward_expectancy_bt,2022.2.4,MacIntel,60.04202942,Chrome,1440,900,,,,,0,711,,,,,,,,,,,,,,,,,181,W,circle,1,0,,6,,,,,,,,,,,,,,repeat,number,numRpt,f,0.8366,vtsPrac,12,0,12,0,1,,,,,,,,,,,,,,,,,,,,,,,
294361,2022-11-22_14h37.24.009,vts_reward_expectancy_bt,2022.2.4,MacIntel,60.04202942,Chrome,1440,900,,,,,0,711,,,,,,,,,,,,,,,,,139,D,star,1,0,,6,,,,,,,,,,,,,,switch,letter,lettSwt,j,0.8817,vtsPrac,13,0,13,0,1,,,,,,,,,,,,,,,,,,,,,,,
294361,2022-11-22_14h37.24.009,vts_reward_expectancy_bt,2022.2.4,MacIntel,60.04202942,Chrome,1440,900,,,,,0,711,,,,,,,,,,,,,,,,,132,H,hexagon,1,0,,6,,,,,,,,,,,,,,switch,number,numSwt,d,0.9762,vtsPrac,14,0,14,0,1,,,,,,,,,,,,,,,,,,,,,,,
294361,2022-11-22_14h37.24.009,vts_reward_expectancy_bt,2022.2.4,MacIntel,60.04202942,Chrome,1440,900,,,,,0,711,,,,,,,,,,,,,,,,,174,U,star,1,0,,6,,,,,,,,,,,,,,repeat,number,numRpt,f,0.8128,vtsPrac,15,0,15,0,1,,,,,,,,,,,,,,,,,,,,,,,
294361,2022-11-22_14h37.24.009,vts_reward_expectancy_bt,2022.2.4,MacIntel,60.04202942,Chrome,1440,900,,,,,0,711,,,,,,,,,,,,,,,,,139,D,circle,1,0,,6,,,,,,,,,,,,,,switch,letter,lettSwt,j,0.7578,vtsPrac,16,0,16,0,1,,,,,,,,,,,,,,,,,,,,,,,
294361,2022-11-22_14h37.24.009,vts_reward_expectancy_bt,2022.2.4,MacIntel,60.04202942,Chrome,1440,900,,,,,0,711,,,,,,,,,,,,,,,,,160,B,hexagon,1,0,,6,,,,,,,,,,,,,,repeat,letter,lettRpt,j,1.029,vtsPrac,17,0,17,0,1,,,,,,,,,,,,,,,,,,,,,,,
294361,2022-11-22_14h37.24.009,vts_reward_expectancy_bt,2022.2.4,MacIntel,60.04202942,Chrome,1440,900,,,,,0,711,,,,,,,,,,,,,,,,,132,U,triangle,1,0,,6,,,,,,,,,,,,,,repeat,letter,lettRpt,k,0.7747,vtsPrac,18,0,18,0,1,,,,,,,,,,,,,,,,,,,,,,,
294361,2022-11-22_14h37.24.009,vts_reward_expectancy_bt,2022.2.4,MacIntel,60.04202942,Chrome,1440,900,,,,,0,711,,,,,,,,,,,,,,,,,146,Y,hexagon,0,0,,6,,,,,,,,,,,,,,repeat,letter,NA,j,0.8443,vtsPrac,19,0,19,0,1,,,,,,,,,,,,,,,,,,,,,,,
294361,2022-11-22_14h37.24.009,vts_reward_expectancy_bt,2022.2.4,MacIntel,60.04202942,Chrome,1440,900,,,,,0,711,,,,,,,,,,,,,,,,,167,D,triangle,1,1,,6,,,,,,,,,,,,,,switch,number,numSwt,f,1.2356,vtsPrac,20,0,20,0,1,,,,,,,,,,,,,,,,,,,,,,,
294361,2022-11-22_14h37.24.009,vts_reward_expectancy_bt,2022.2.4,MacIntel,60.04202942,Chrome,1440,900,,,,,0,711,,,,,,,,,,,,,,,,,132,Y,circle,1,0,,6,,,,,,,,,,,,,,repeat,number,numRpt,d,0.9612,vtsPrac,21,0,21,0,1,,,,,,,,,,,,,,,,,,,,,,,
294361,2022-11-22_14h37.24.009,vts_reward_expectancy_bt,2022.2.4,MacIntel,60.04202942,Chrome,1440,900,,,,,0,711,,,,,,,,,,,,,,,,,125,F,circle,1,0,,6,,,,,,,,,,,,,,repeat,number,numRpt,d,0.9948,vtsPrac,22,0,22,0,1,,,,,,,,,,,,,,,,,,,,,,,
294361,2022-11-22_14h37.24.009,vts_reward_expectancy_bt,2022.2.4,MacIntel,60.04202942,Chrome,1440,900,,,,,0,711,,,,,,,,,,,,,,,,,181,S,hexagon,1,0,,6,,,,,,,,,,,,,,repeat,number,numRpt,f,1.6061,vtsPrac,23,0,23,0,1,,,,,,,,,,,,,,,,,,,,,,,
294361,2022-11-22_14h37.24.009,vts_reward_expectancy_bt,2022.2.4,MacIntel,60.04202942,Chrome,1440,900,,,,,0,711,,,,,,,,,,,,,,,,,132,S,hexagon,1,0,,6,,,,,,,,,,,,,,repeat,number,numRpt,d,1.3074,vtsPrac,24,0,24,0,1,,,,,,,,,,,,,,,,,,,,,,,
294361,2022-11-22_14h37.24.009,vts_reward_expectancy_bt,2022.2.4,MacIntel,60.04202942,Chrome,1440,900,,,,,0,711,,,,,,,,,,,,,,,,,181,H,star,1,0,,6,,,,,,,,,,,,,,repeat,number,numRpt,f,0.8285,vtsPrac,25,0,25,0,1,,,,,,,,,,,,,,,,,,,,,,,
294361,2022-11-22_14h37.24.009,vts_reward_expectancy_bt,2022.2.4,MacIntel,60.04202942,Chrome,1440,900,,,,,0,711,,,,,,,,,,,,,,,,,160,F,triangle,1,0,,6,,,,,,,,,,,,,,switch,letter,lettSwt,j,2.5389,vtsPrac,26,0,26,0,1,,,,,,,,,,,,,,,,,,,,,,,
294361,2022-11-22_14h37.24.009,vts_reward_expectancy_bt,2022.2.4,MacIntel,60.04202942,Chrome,1440,900,,,,,0,711,,,,,,,,,,,,,,,,,174,Y,circle,1,0,,6,,,,,,,,,,,,,,repeat,letter,lettRpt,k,2.0582,vtsPrac,27,0,27,0,1,,,,,,,,,,,,,,,,,,,,,,,
294361,2022-11-22_14h37.24.009,vts_reward_expectancy_bt,2022.2.4,MacIntel,60.04202942,Chrome,1440,900,,,,,0,711,,,,,,,,,,,,,,,,,125,B,circle,1,0,,6,,,,,,,,,,,,,,repeat,letter,lettRpt,j,1.6107,vtsPrac,28,0,28,0,1,,,,,,,,,,,,,,,,,,,,,,,
294361,2022-11-22_14h37.24.009,vts_reward_expectancy_bt,2022.2.4,MacIntel,60.04202942,Chrome,1440,900,,,,,0,711,,,,,,,,,,,,,,,,,174,D,hexagon,1,0,,6,,,,,,,,,,,,,,repeat,letter,lettRpt,j,0.9482,vtsPrac,29,0,29,0,1,,,,,,,,,,,,,,,,,,,,,,,
294361,2022-11-22_14h37.24.009,vts_reward_expectancy_bt,2022.2.4,MacIntel,60.04202942,Chrome,1440,900,,,,,0,711,,,,,,,,,,,,,,,,,181,W,circle,1,0,,6,,,,,,,,,,,,,,repeat,letter,lettRpt,k,1.0241,vtsPrac,30,0,30,0,1,,,,,,,,,,,,,,,,,,,,,,,
294361,2022-11-22_14h37.24.009,vts_reward_expectancy_bt,2022.2.4,MacIntel,60.04202942,Chrome,1440,900,,,,,0,711,,,,,,,,,,,,,,,,,160,S,star,1,0,,6,,,,,,,,,,,,,,switch,number,numSwt,f,1.5046,vtsPrac,31,0,31,0,1,,,,,,,,,,,,,,,,,,,,,,,
294361,2022-11-22_14h37.24.009,vts_reward_expectancy_bt,2022.2.4,MacIntel,60.04202942,Chrome,1440,900,,,,,,,,,,,,,,,,,,,,,,,,,,,,,,,,,,,,,,,,,,,,,,,,,,,,,,,,,,,,,,,,,,,,,,,,,,,,
294361,2022-11-22_14h37.24.009,vts_reward_expectancy_bt,2022.2.4,MacIntel,60.04202942,Chrome,1440,900,,,,,,,,,,,,,,,,,,,,,,,,,,,,,,,,,,,,,,,,,,,,,,,,,,,,,,,,,,,,,,,,,,,,,,,,,,,,
294361,2022-11-22_14h37.24.009,vts_reward_expectancy_bt,2022.2.4,MacIntel,60.04202942,Chrome,1440,900,,,,,0,711,,,,,,,,,,,,,,,,,132,H,hexagon,1,0,,,,,,,,,,,,,,,,repeat,number,numRpt,d,0.5804,noRew,,,,,,0,0,0,0,0,1,,,,,,,,,,,,,,,,,
294361,2022-11-22_14h37.24.009,vts_reward_expectancy_bt,2022.2.4,MacIntel,60.04202942,Chrome,1440,900,,,,,0,711,,,,,,,,,,,,,,,,,125,U,circle,1,0,,,,,,,,,,,,,,,,repeat,number,numRpt,d,0.5306,noRew,,,,,,0,1,0,1,0,1,,,,,,,,,,,,,,,,,
294361,2022-11-22_14h37.24.009,vts_reward_expectancy_bt,2022.2.4,MacIntel,60.04202942,Chrome,1440,900,,,,,0,711,,,,,,,,,,,,,,,,,139,Y,hexagon,1,0,,,,,,,,,,,,,,,,switch,letter,lettSwt,k,0.6235,noRew,,,,,,0,2,0,2,0,1,,,,,,,,,,,,,,,,,
294361,2022-11-22_14h37.24.009,vts_reward_expectancy_bt,2022.2.4,MacIntel,60.04202942,Chrome,1440,900,,,,,0,711,,,,,,,,,,,,,,,,,146,B,circle,1,0,,,,,,,,,,,,,,,,switch,number,numSwt,d,0.6585,noRew,,,,,,0,3,0,3,0,1,,,,,,,,,,,,,,,,,
294361,2022-11-22_14h37.24.009,vts_reward_expectancy_bt,2022.2.4,MacIntel,60.04202942,Chrome,1440,900,,,,,0,711,,,,,,,,,,,,,,,,,132,H,star,1,0,,,,,,,,,,,,,,,,switch,letter,lettSwt,j,0.6992,noRew,,,,,,0,4,0,4,0,1,,,,,,,,,,,,,,,,,
294361,2022-11-22_14h37.24.009,vts_reward_expectancy_bt,2022.2.4,MacIntel,60.04202942,Chrome,1440,900,,,,,0,711,,,,,,,,,,,,,,,,,125,U,triangle,1,0,,,,,,,,,,,,,,,,repeat,letter,lettRpt,k,0.6603,noRew,,,,,,0,5,0,5,0,1,,,,,,,,,,,,,,,,,
294361,2022-11-22_14h37.24.009,vts_reward_expectancy_bt,2022.2.4,MacIntel,60.04202942,Chrome,1440,900,,,,,0,711,,,,,,,,,,,,,,,,,139,Y,triangle,1,0,,,,,,,,,,,,,,,,repeat,letter,lettRpt,k,0.448,noRew,,,,,,0,6,0,6,0,1,,,,,,,,,,,,,,,,,
294361,2022-11-22_14h37.24.009,vts_reward_expectancy_bt,2022.2.4,MacIntel,60.04202942,Chrome,1440,900,,,,,0,711,,,,,,,,,,,,,,,,,146,B,star,1,0,,,,,,,,,,,,,,,,switch,number,numSwt,d,1.4617,noRew,,,,,,0,7,0,7,0,1,,,,,,,,,,,,,,,,,
294361,2022-11-22_14h37.24.009,vts_reward_expectancy_bt,2022.2.4,MacIntel,60.04202942,Chrome,1440,900,,,,,0,711,,,,,,,,,,,,,,,,,160,U,star,1,0,,,,,,,,,,,,,,,,repeat,number,numRpt,f,0.5654,noRew,,,,,,0,8,0,8,0,1,,,,,,,,,,,,,,,,,
294361,2022-11-22_14h37.24.009,vts_reward_expectancy_bt,2022.2.4,MacIntel,60.04202942,Chrome,1440,900,,,,,0,711,,,,,,,,,,,,,,,,,174,Y,hexagon,1,0,,,,,,,,,,,,,,,,switch,letter,lettSwt,k,0.7729,noRew,,,,,,0,9,0,9,0,1,,,,,,,,,,,,,,,,,
294361,2022-11-22_14h37.24.009,vts_reward_expectancy_bt,2022.2.4,MacIntel,60.04202942,Chrome,1440,900,,,,,0,711,,,,,,,,,,,,,,,,,125,B,triangle,1,0,,,,,,,,,,,,,,,,repeat,letter,lettRpt,j,0.5359,noRew,,,,,,0,10,0,10,0,1,,,,,,,,,,,,,,,,,
294361,2022-11-22_14h37.24.009,vts_reward_expectancy_bt,2022.2.4,MacIntel,60.04202942,Chrome,1440,900,,,,,0,711,,,,,,,,,,,,,,,,,146,H,star,1,0,,,,,,,,,,,,,,,,repeat,letter,lettRpt,j,0.9761,noRew,,,,,,0,11,0,11,0,1,,,,,,,,,,,,,,,,,
294361,2022-11-22_14h37.24.009,vts_reward_expectancy_bt,2022.2.4,MacIntel,60.04202942,Chrome,1440,900,,,,,0,711,,,,,,,,,,,,,,,,,146,Y,triangle,1,0,,,,,,,,,,,,,,,,repeat,letter,lettRpt,k,0.5326,noRew,,,,,,0,12,0,12,0,1,,,,,,,,,,,,,,,,,
294361,2022-11-22_14h37.24.009,vts_reward_expectancy_bt,2022.2.4,MacIntel,60.04202942,Chrome,1440,900,,,,,0,711,,,,,,,,,,,,,,,,,167,B,hexagon,1,0,,,,,,,,,,,,,,,,repeat,letter,lettRpt,j,0.8414,noRew,,,,,,0,13,0,13,0,1,,,,,,,,,,,,,,,,,
294361,2022-11-22_14h37.24.009,vts_reward_expectancy_bt,2022.2.4,MacIntel,60.04202942,Chrome,1440,900,,,,,0,711,,,,,,,,,,,,,,,,,125,D,circle,1,0,,,,,,,,,,,,,,,,switch,number,numSwt,d,0.7072,noRew,,,,,,0,14,0,14,0,1,,,,,,,,,,,,,,,,,
294361,2022-11-22_14h37.24.009,vts_reward_expectancy_bt,2022.2.4,MacIntel,60.04202942,Chrome,1440,900,,,,,0,711,,,,,,,,,,,,,,,,,132,H,triangle,1,0,,,,,,,,,,,,,,,,switch,letter,lettSwt,j,0.5745,noRew,,,,,,0,15,0,15,0,1,,,,,,,,,,,,,,,,,
294361,2022-11-22_14h37.24.009,vts_reward_expectancy_bt,2022.2.4,MacIntel,60.04202942,Chrome,1440,900,,,,,0,711,,,,,,,,,,,,,,,,,160,H,star,1,0,,,,,,,,,,,,,,,,switch,number,numSwt,f,0.4432,noRew,,,,,,0,16,0,16,0,1,,,,,,,,,,,,,,,,,
294361,2022-11-22_14h37.24.009,vts_reward_expectancy_bt,2022.2.4,MacIntel,60.04202942,Chrome,1440,900,,,,,0,711,,,,,,,,,,,,,,,,,146,W,circle,1,0,,,,,,,,,,,,,,,,repeat,number,numRpt,d,0.7079,noRew,,,,,,0,17,0,17,0,1,,,,,,,,,,,,,,,,,
294361,2022-11-22_14h37.24.009,vts_reward_expectancy_bt,2022.2.4,MacIntel,60.04202942,Chrome,1440,900,,,,,0,711,,,,,,,,,,,,,,,,,125,F,hexagon,1,0,,,,,,,,,,,,,,,,repeat,number,numRpt,d,0.4875,noRew,,,,,,0,18,0,18,0,1,,,,,,,,,,,,,,,,,
294361,2022-11-22_14h37.24.009,vts_reward_expectancy_bt,2022.2.4,MacIntel,60.04202942,Chrome,1440,900,,,,,0,711,,,,,,,,,,,,,,,,,181,D,circle,1,0,,,,,,,,,,,,,,,,switch,letter,lettSwt,j,0.7257,noRew,,,,,,0,19,0,19,0,1,,,,,,,,,,,,,,,,,
294361,2022-11-22_14h37.24.009,vts_reward_expectancy_bt,2022.2.4,MacIntel,60.04202942,Chrome,1440,900,,,,,0,711,,,,,,,,,,,,,,,,,167,S,triangle,0,0,,,,,,,,,,,,,,,,switch,number,NA,d,0.8795,noRew,,,,,,0,20,0,20,0,1,,,,,,,,,,,,,,,,,
294361,2022-11-22_14h37.24.009,vts_reward_expectancy_bt,2022.2.4,MacIntel,60.04202942,Chrome,1440,900,,,,,0,711,,,,,,,,,,,,,,,,,132,B,star,1,1,,,,,,,,,,,,,,,,switch,letter,lettSwt,j,0.5428,noRew,,,,,,0,21,0,21,0,1,,,,,,,,,,,,,,,,,
294361,2022-11-22_14h37.24.009,vts_reward_expectancy_bt,2022.2.4,MacIntel,60.04202942,Chrome,1440,900,,,,,0,711,,,,,,,,,,,,,,,,,125,H,triangle,1,0,,,,,,,,,,,,,,,,repeat,letter,lettRpt,j,0.6921,noRew,,,,,,0,22,0,22,0,1,,,,,,,,,,,,,,,,,
294361,2022-11-22_14h37.24.009,vts_reward_expectancy_bt,2022.2.4,MacIntel,60.04202942,Chrome,1440,900,,,,,0,711,,,,,,,,,,,,,,,,,174,D,star,1,0,,,,,,,,,,,,,,,,switch,number,numSwt,f,0.5396,noRew,,,,,,0,23,0,23,0,1,,,,,,,,,,,,,,,,,
294361,2022-11-22_14h37.24.009,vts_reward_expectancy_bt,2022.2.4,MacIntel,60.04202942,Chrome,1440,900,,,,,0,711,,,,,,,,,,,,,,,,,132,H,circle,1,0,,,,,,,,,,,,,,,,repeat,number,numRpt,d,0.4772,noRew,,,,,,0,24,0,24,0,1,,,,,,,,,,,,,,,,,
294361,2022-11-22_14h37.24.009,vts_reward_expectancy_bt,2022.2.4,MacIntel,60.04202942,Chrome,1440,900,,,,,0,711,,,,,,,,,,,,,,,,,139,S,star,1,0,,,,,,,,,,,,,,,,repeat,number,numRpt,d,0.5785,noRew,,,,,,0,25,0,25,0,1,,,,,,,,,,,,,,,,,
294361,2022-11-22_14h37.24.009,vts_reward_expectancy_bt,2022.2.4,MacIntel,60.04202942,Chrome,1440,900,,,,,0,711,,,,,,,,,,,,,,,,,146,U,circle,1,0,,,,,,,,,,,,,,,,switch,letter,lettSwt,k,0.6257,noRew,,,,,,0,26,0,26,0,1,,,,,,,,,,,,,,,,,
294361,2022-11-22_14h37.24.009,vts_reward_expectancy_bt,2022.2.4,MacIntel,60.04202942,Chrome,1440,900,,,,,0,711,,,,,,,,,,,,,,,,,125,D,hexagon,1,0,,,,,,,,,,,,,,,,switch,number,numSwt,d,0.5067,noRew,,,,,,0,27,0,27,0,1,,,,,,,,,,,,,,,,,
294361,2022-11-22_14h37.24.009,vts_reward_expectancy_bt,2022.2.4,MacIntel,60.04202942,Chrome,1440,900,,,,,0,711,,,,,,,,,,,,,,,,,139,W,hexagon,1,0,,,,,,,,,,,,,,,,repeat,number,numRpt,d,0.5794,noRew,,,,,,0,28,0,28,0,1,,,,,,,,,,,,,,,,,
294361,2022-11-22_14h37.24.009,vts_reward_expectancy_bt,2022.2.4,MacIntel,60.04202942,Chrome,1440,900,,,,,0,711,,,,,,,,,,,,,,,,,125,D,triangle,1,0,,,,,,,,,,,,,,,,switch,letter,lettSwt,j,0.5169,noRew,,,,,,0,29,0,29,0,1,,,,,,,,,,,,,,,,,
294361,2022-11-22_14h37.24.009,vts_reward_expectancy_bt,2022.2.4,MacIntel,60.04202942,Chrome,1440,900,,,,,0,711,,,,,,,,,,,,,,,,,174,B,circle,1,0,,,,,,,,,,,,,,,,repeat,letter,lettRpt,j,0.609,noRew,,,,,,0,30,0,30,0,1,,,,,,,,,,,,,,,,,
294361,2022-11-22_14h37.24.009,vts_reward_expectancy_bt,2022.2.4,MacIntel,60.04202942,Chrome,1440,900,,,,,0,711,,,,,,,,,,,,,,,,,160,Y,triangle,1,0,,,,,,,,,,,,,,,,repeat,letter,lettRpt,k,0.5573,noRew,,,,,,0,31,0,31,0,1,,,,,,,,,,,,,,,,,
294361,2022-11-22_14h37.24.009,vts_reward_expectancy_bt,2022.2.4,MacIntel,60.04202942,Chrome,1440,900,,,,,0,711,,,,,,,,,,,,,,,,,146,U,star,1,0,,,,,,,,,,,,,,,,switch,number,numSwt,d,0.4629,noRew,,,,,,0,32,0,32,0,1,,,,,,,,,,,,,,,,,
294361,2022-11-22_14h37.24.009,vts_reward_expectancy_bt,2022.2.4,MacIntel,60.04202942,Chrome,1440,900,,,,,0,711,,,,,,,,,,,,,,,,,160,Y,circle,1,0,,,,,,,,,,,,,,,,repeat,number,numRpt,f,0.447,noRew,,,,,,0,33,0,33,0,1,,,,,,,,,,,,,,,,,
294361,2022-11-22_14h37.24.009,vts_reward_expectancy_bt,2022.2.4,MacIntel,60.04202942,Chrome,1440,900,,,,,0,711,,,,,,,,,,,,,,,,,167,S,hexagon,1,0,,,,,,,,,,,,,,,,switch,letter,lettSwt,k,0.6433,noRew,,,,,,0,34,0,34,0,1,,,,,,,,,,,,,,,,,
294361,2022-11-22_14h37.24.009,vts_reward_expectancy_bt,2022.2.4,MacIntel,60.04202942,Chrome,1440,900,,,,,0,711,,,,,,,,,,,,,,,,,181,D,star,1,0,,,,,,,,,,,,,,,,repeat,letter,lettRpt,j,0.8554,noRew,,,,,,0,35,0,35,0,1,,,,,,,,,,,,,,,,,
294361,2022-11-22_14h37.24.009,vts_reward_expectancy_bt,2022.2.4,MacIntel,60.04202942,Chrome,1440,900,,,,,0,711,,,,,,,,,,,,,,,,,139,F,star,1,0,,,,,,,,,,,,,,,,switch,number,numSwt,d,0.4906,noRew,,,,,,0,36,0,36,0,1,,,,,,,,,,,,,,,,,
294361,2022-11-22_14h37.24.009,vts_reward_expectancy_bt,2022.2.4,MacIntel,60.04202942,Chrome,1440,900,,,,,0,711,,,,,,,,,,,,,,,,,160,U,hexagon,1,0,,,,,,,,,,,,,,,,repeat,number,numRpt,f,0.5686,noRew,,,,,,0,37,0,37,0,1,,,,,,,,,,,,,,,,,
294361,2022-11-22_14h37.24.009,vts_reward_expectancy_bt,2022.2.4,MacIntel,60.04202942,Chrome,1440,900,,,,,0,711,,,,,,,,,,,,,,,,,181,D,triangle,1,0,,,,,,,,,,,,,,,,switch,letter,lettSwt,j,0.4919,noRew,,,,,,0,38,0,38,0,1,,,,,,,,,,,,,,,,,
294361,2022-11-22_14h37.24.009,vts_reward_expectancy_bt,2022.2.4,MacIntel,60.04202942,Chrome,1440,900,,,,,0,711,,,,,,,,,,,,,,,,,174,B,circle,1,0,,,,,,,,,,,,,,,,repeat,letter,lettRpt,j,0.5372,noRew,,,,,,0,39,0,39,0,1,,,,,,,,,,,,,,,,,
294361,2022-11-22_14h37.24.009,vts_reward_expectancy_bt,2022.2.4,MacIntel,60.04202942,Chrome,1440,900,,,,,0,711,,,,,,,,,,,,,,,,,146,H,star,1,0,,,,,,,,,,,,,,,,repeat,letter,lettRpt,j,0.7916,noRew,,,,,,0,40,0,40,0,1,,,,,,,,,,,,,,,,,
294361,2022-11-22_14h37.24.009,vts_reward_expectancy_bt,2022.2.4,MacIntel,60.04202942,Chrome,1440,900,,,,,0,711,,,,,,,,,,,,,,,,,139,Y,triangle,1,0,,,,,,,,,,,,,,,,switch,number,numSwt,d,0.5144,noRew,,,,,,0,41,0,41,0,1,,,,,,,,,,,,,,,,,
294361,2022-11-22_14h37.24.009,vts_reward_expectancy_bt,2022.2.4,MacIntel,60.04202942,Chrome,1440,900,,,,,0,711,,,,,,,,,,,,,,,,,160,W,triangle,1,0,,,,,,,,,,,,,,,,repeat,number,numRpt,f,0.544,noRew,,,,,,0,42,0,42,0,1,,,,,,,,,,,,,,,,,
294361,2022-11-22_14h37.24.009,vts_reward_expectancy_bt,2022.2.4,MacIntel,60.04202942,Chrome,1440,900,,,,,0,711,,,,,,,,,,,,,,,,,174,F,hexagon,1,0,,,,,,,,,,,,,,,,switch,letter,lettSwt,j,0.645,noRew,,,,,,0,43,0,43,0,1,,,,,,,,,,,,,,,,,
294361,2022-11-22_14h37.24.009,vts_reward_expectancy_bt,2022.2.4,MacIntel,60.04202942,Chrome,1440,900,,,,,0,711,,,,,,,,,,,,,,,,,167,U,circle,1,0,,,,,,,,,,,,,,,,switch,number,numSwt,f,0.6117,noRew,,,,,,0,44,0,44,0,1,,,,,,,,,,,,,,,,,
294361,2022-11-22_14h37.24.009,vts_reward_expectancy_bt,2022.2.4,MacIntel,60.04202942,Chrome,1440,900,,,,,0,711,,,,,,,,,,,,,,,,,132,D,triangle,1,0,,,,,,,,,,,,,,,,switch,letter,lettSwt,j,0.4912,noRew,,,,,,0,45,0,45,0,1,,,,,,,,,,,,,,,,,
294361,2022-11-22_14h37.24.009,vts_reward_expectancy_bt,2022.2.4,MacIntel,60.04202942,Chrome,1440,900,,,,,0,711,,,,,,,,,,,,,,,,,125,S,hexagon,1,0,,,,,,,,,,,,,,,,repeat,letter,lettRpt,k,0.6776,noRew,,,,,,0,46,0,46,0,1,,,,,,,,,,,,,,,,,
294361,2022-11-22_14h37.24.009,vts_reward_expectancy_bt,2022.2.4,MacIntel,60.04202942,Chrome,1440,900,,,,,0,711,,,,,,,,,,,,,,,,,139,F,triangle,1,0,,,,,,,,,,,,,,,,repeat,letter,lettRpt,j,0.5249,noRew,,,,,,0,47,0,47,0,1,,,,,,,,,,,,,,,,,
294361,2022-11-22_14h37.24.009,vts_reward_expectancy_bt,2022.2.4,MacIntel,60.04202942,Chrome,1440,900,,,,,0,711,,,,,,,,,,,,,,,,,125,F,triangle,1,0,,,,,,,,,,,,,,,,switch,number,numSwt,d,0.6666,noRew,,,,,,0,48,0,48,0,1,,,,,,,,,,,,,,,,,
294361,2022-11-22_14h37.24.009,vts_reward_expectancy_bt,2022.2.4,MacIntel,60.04202942,Chrome,1440,900,,,,,0,711,,,,,,,,,,,,,,,,,167,D,circle,1,0,,,,,,,,,,,,,,,,switch,letter,lettSwt,j,0.4843,noRew,,,,,,0,49,0,49,0,1,,,,,,,,,,,,,,,,,
294361,2022-11-22_14h37.24.009,vts_reward_expectancy_bt,2022.2.4,MacIntel,60.04202942,Chrome,1440,900,,,,,0,711,,,,,,,,,,,,,,,,,174,B,triangle,1,0,,,,,,,,,,,,,,,,switch,number,numSwt,f,0.415,noRew,,,,,,0,50,0,50,0,1,,,,,,,,,,,,,,,,,
294361,2022-11-22_14h37.24.009,vts_reward_expectancy_bt,2022.2.4,MacIntel,60.04202942,Chrome,1440,900,,,,,0,711,,,,,,,,,,,,,,,,,146,S,star,1,0,,,,,,,,,,,,,,,,repeat,number,numRpt,d,0.4988,noRew,,,,,,0,51,0,51,0,1,,,,,,,,,,,,,,,,,
294361,2022-11-22_14h37.24.009,vts_reward_expectancy_bt,2022.2.4,MacIntel,60.04202942,Chrome,1440,900,,,,,0,711,,,,,,,,,,,,,,,,,160,F,star,1,0,,,,,,,,,,,,,,,,switch,letter,lettSwt,j,0.8722,noRew,,,,,,0,52,0,52,0,1,,,,,,,,,,,,,,,,,
294361,2022-11-22_14h37.24.009,vts_reward_expectancy_bt,2022.2.4,MacIntel,60.04202942,Chrome,1440,900,,,,,0,711,,,,,,,,,,,,,,,,,167,S,circle,1,0,,,,,,,,,,,,,,,,switch,number,numSwt,f,0.6713,noRew,,,,,,0,53,0,53,0,1,,,,,,,,,,,,,,,,,
294361,2022-11-22_14h37.24.009,vts_reward_expectancy_bt,2022.2.4,MacIntel,60.04202942,Chrome,1440,900,,,,,0,711,,,,,,,,,,,,,,,,,125,W,star,1,0,,,,,,,,,,,,,,,,repeat,number,numRpt,d,0.4794,noRew,,,,,,0,54,0,54,0,1,,,,,,,,,,,,,,,,,
294361,2022-11-22_14h37.24.009,vts_reward_expectancy_bt,2022.2.4,MacIntel,60.04202942,Chrome,1440,900,,,,,0,711,,,,,,,,,,,,,,,,,139,B,circle,1,0,,,,,,,,,,,,,,,,repeat,number,numRpt,d,0.4627,noRew,,,,,,0,55,0,55,0,1,,,,,,,,,,,,,,,,,
294361,2022-11-22_14h37.24.009,vts_reward_expectancy_bt,2022.2.4,MacIntel,60.04202942,Chrome,1440,900,,,,,0,711,,,,,,,,,,,,,,,,,160,Y,star,1,0,,,,,,,,,,,,,,,,switch,letter,lettSwt,k,0.5626,noRew,,,,,,0,56,0,56,0,1,,,,,,,,,,,,,,,,,
294361,2022-11-22_14h37.24.009,vts_reward_expectancy_bt,2022.2.4,MacIntel,60.04202942,Chrome,1440,900,,,,,0,711,,,,,,,,,,,,,,,,,181,B,hexagon,1,0,,,,,,,,,,,,,,,,repeat,letter,lettRpt,j,0.4944,noRew,,,,,,0,57,0,57,0,1,,,,,,,,,,,,,,,,,
294361,2022-11-22_14h37.24.009,vts_reward_expectancy_bt,2022.2.4,MacIntel,60.04202942,Chrome,1440,900,,,,,0,711,,,,,,,,,,,,,,,,,125,S,circle,1,0,,,,,,,,,,,,,,,,repeat,letter,lettRpt,k,0.7403,noRew,,,,,,0,58,0,58,0,1,,,,,,,,,,,,,,,,,
294361,2022-11-22_14h37.24.009,vts_reward_expectancy_bt,2022.2.4,MacIntel,60.04202942,Chrome,1440,900,,,,,0,711,,,,,,,,,,,,,,,,,146,U,hexagon,1,0,,,,,,,,,,,,,,,,repeat,letter,lettRpt,k,0.7104,noRew,,,,,,0,59,0,59,0,1,,,,,,,,,,,,,,,,,
294361,2022-11-22_14h37.24.009,vts_reward_expectancy_bt,2022.2.4,MacIntel,60.04202942,Chrome,1440,900,,,,,0,711,,,,,,,,,,,,,,,,,139,W,hexagon,1,0,,,,,,,,,,,,,,,,switch,number,numSwt,d,0.6635,noRew,,,,,,0,60,0,60,0,1,,,,,,,,,,,,,,,,,
294361,2022-11-22_14h37.24.009,vts_reward_expectancy_bt,2022.2.4,MacIntel,60.04202942,Chrome,1440,900,,,,,0,711,,,,,,,,,,,,,,,,,174,F,star,1,0,,,,,,,,,,,,,,,,repeat,number,numRpt,f,0.4507,noRew,,,,,,0,61,0,61,0,1,,,,,,,,,,,,,,,,,
294361,2022-11-22_14h37.24.009,vts_reward_expectancy_bt,2022.2.4,MacIntel,60.04202942,Chrome,1440,900,,,,,0,711,,,,,,,,,,,,,,,,,125,U,hexagon,1,0,,,,,,,,,,,,,,,,switch,letter,lettSwt,k,0.6302,noRew,,,,,,0,62,0,62,0,1,,,,,,,,,,,,,,,,,
294361,2022-11-22_14h37.24.009,vts_reward_expectancy_bt,2022.2.4,MacIntel,60.04202942,Chrome,1440,900,,,,,0,711,,,,,,,,,,,,,,,,,181,B,star,1,0,,,,,,,,,,,,,,,,switch,number,numSwt,f,0.4817,noRew,,,,,,0,63,0,63,0,1,,,,,,,,,,,,,,,,,
294361,2022-11-22_14h37.24.009,vts_reward_expectancy_bt,2022.2.4,MacIntel,60.04202942,Chrome,1440,900,,,,,,,,,,,,,,,,,,,,,,,,,,,,,,,,,,,,,,,,,,,,,,,,,,,,,,,,,,,,,,,,,,,,,,,,,,,,
294361,2022-11-22_14h37.24.009,vts_reward_expectancy_bt,2022.2.4,MacIntel,60.04202942,Chrome,1440,900,,,,,0,711,,,,,,,,,,,,,,,,,181,S,triangle,0,0,,,,,,,,,,,,,,,,repeat,number,NA,d,0.5514,noRew,,,,,,0,,,,,,space,19.4859,high,0,0,0,0,1,,,,,,,,,
294361,2022-11-22_14h37.24.009,vts_reward_expectancy_bt,2022.2.4,MacIntel,60.04202942,Chrome,1440,900,,,,,1,712,,,,,,,,,,,,,,,,,146,U,star,1,1,,,,,,,,,,,,,,,,repeat,number,numRpt,d,0.6047,Lo,,,,,,0,,,,,,,,high,1,0,1,0,1,,,,,,,,,
294361,2022-11-22_14h37.24.009,vts_reward_expectancy_bt,2022.2.4,MacIntel,60.04202942,Chrome,1440,900,,,,,1,713,,,,,,,,,,,,,,,,,132,H,circle,1,0,,,,,,,,,,,,,,,,repeat,number,numRpt,d,0.5118,Lo,,,,,,0,,,,,,,,high,2,0,2,0,1,,,,,,,,,
294361,2022-11-22_14h37.24.009,vts_reward_expectancy_bt,2022.2.4,MacIntel,60.04202942,Chrome,1440,900,,,,,10,723,,,,,,,,,,,,,,,,,125,Y,hexagon,1,0,,,,,,,,,,,,,,,,switch,letter,lettSwt,k,0.4434,Hi,,,,,,0,,,,,,,,high,3,0,3,0,1,,,,,,,,,
294361,2022-11-22_14h37.24.009,vts_reward_expectancy_bt,2022.2.4,MacIntel,60.04202942,Chrome,1440,900,,,,,1,724,,,,,,,,,,,,,,,,,174,B,triangle,1,0,,,,,,,,,,,,,,,,repeat,letter,lettRpt,j,0.4139,Hi,,,,,,0,,,,,,,,high,4,0,4,0,1,,,,,,,,,
294361,2022-11-22_14h37.24.009,vts_reward_expectancy_bt,2022.2.4,MacIntel,60.04202942,Chrome,1440,900,,,,,1,725,,,,,,,,,,,,,,,,,167,F,star,1,0,,,,,,,,,,,,,,,,repeat,letter,lettRpt,j,0.6616,Lo,,,,,,0,,,,,,,,high,5,0,5,0,1,,,,,,,,,
294361,2022-11-22_14h37.24.009,vts_reward_expectancy_bt,2022.2.4,MacIntel,60.04202942,Chrome,1440,900,,,,,1,726,,,,,,,,,,,,,,,,,160,W,circle,1,0,,,,,,,,,,,,,,,,repeat,letter,lettRpt,k,0.5767,Lo,,,,,,0,,,,,,,,high,6,0,6,0,1,,,,,,,,,
294361,2022-11-22_14h37.24.009,vts_reward_expectancy_bt,2022.2.4,MacIntel,60.04202942,Chrome,1440,900,,,,,0,726,,,,,,,,,,,,,,,,,139,D,hexagon,1,0,,,,,,,,,,,,,,,,switch,number,numSwt,d,0.5804,Hi,,,,,,0,,,,,,,,high,7,0,7,0,1,,,,,,,,,
294361,2022-11-22_14h37.24.009,vts_reward_expectancy_bt,2022.2.4,MacIntel,60.04202942,Chrome,1440,900,,,,,1,727,,,,,,,,,,,,,,,,,181,S,circle,1,0,,,,,,,,,,,,,,,,repeat,number,numRpt,f,0.643,Lo,,,,,,0,,,,,,,,high,8,0,8,0,1,,,,,,,,,
294361,2022-11-22_14h37.24.009,vts_reward_expectancy_bt,2022.2.4,MacIntel,60.04202942,Chrome,1440,900,,,,,0,727,,,,,,,,,,,,,,,,,146,U,hexagon,1,0,,,,,,,,,,,,,,,,repeat,number,numRpt,d,0.5666,Hi,,,,,,0,,,,,,,,high,9,0,9,0,1,,,,,,,,,
294361,2022-11-22_14h37.24.009,vts_reward_expectancy_bt,2022.2.4,MacIntel,60.04202942,Chrome,1440,900,,,,,1,728,,,,,,,,,,,,,,,,,132,H,star,1,0,,,,,,,,,,,,,,,,switch,letter,lettSwt,j,0.4435,Lo,,,,,,0,,,,,,,,high,10,0,10,0,1,,,,,,,,,
294361,2022-11-22_14h37.24.009,vts_reward_expectancy_bt,2022.2.4,MacIntel,60.04202942,Chrome,1440,900,,,,,0,728,,,,,,,,,,,,,,,,,125,Y,triangle,1,0,,,,,,,,,,,,,,,,repeat,letter,lettRpt,k,0.5558,Hi,,,,,,0,,,,,,,,high,11,0,11,0,1,,,,,,,,,
294361,2022-11-22_14h37.24.009,vts_reward_expectancy_bt,2022.2.4,MacIntel,60.04202942,Chrome,1440,900,,,,,0,728,,,,,,,,,,,,,,,,,174,B,triangle,1,0,,,,,,,,,,,,,,,,switch,number,numSwt,f,0.5754,Hi,,,,,,0,,,,,,,,high,12,0,12,0,1,,,,,,,,,
294361,2022-11-22_14h37.24.009,vts_reward_expectancy_bt,2022.2.4,MacIntel,60.04202942,Chrome,1440,900,,,,,10,738,,,,,,,,,,,,,,,,,167,F,hexagon,1,0,,,,,,,,,,,,,,,,repeat,number,numRpt,f,0.4475,Hi,,,,,,0,,,,,,,,high,13,0,13,0,1,,,,,,,,,
294361,2022-11-22_14h37.24.009,vts_reward_expectancy_bt,2022.2.4,MacIntel,60.04202942,Chrome,1440,900,,,,,1,739,,,,,,,,,,,,,,,,,160,W,star,1,0,,,,,,,,,,,,,,,,switch,letter,lettSwt,k,0.5549,Lo,,,,,,0,,,,,,,,high,14,0,14,0,1,,,,,,,,,
294361,2022-11-22_14h37.24.009,vts_reward_expectancy_bt,2022.2.4,MacIntel,60.04202942,Chrome,1440,900,,,,,1,740,,,,,,,,,,,,,,,,,139,D,circle,1,0,,,,,,,,,,,,,,,,repeat,letter,lettRpt,j,0.5288,Lo,,,,,,0,,,,,,,,high,15,0,15,0,1,,,,,,,,,
294361,2022-11-22_14h37.24.009,vts_reward_expectancy_bt,2022.2.4,MacIntel,60.04202942,Chrome,1440,900,,,,,10,750,,,,,,,,,,,,,,,,,160,S,star,1,0,,,,,,,,,,,,,,,,switch,number,numSwt,f,0.592,Lo,,,,,,0,,,,,,,,high,16,0,16,0,1,,,,,,,,,
294361,2022-11-22_14h37.24.009,vts_reward_expectancy_bt,2022.2.4,MacIntel,60.04202942,Chrome,1440,900,,,,,0,750,,,,,,,,,,,,,,,,,181,H,triangle,0,0,,,,,,,,,,,,,,,,repeat,number,NA,d,0.3766,Lo,,,,,,0,,,,,,,,high,17,0,17,0,1,,,,,,,,,
294361,2022-11-22_14h37.24.009,vts_reward_expectancy_bt,2022.2.4,MacIntel,60.04202942,Chrome,1440,900,,,,,10,760,,,,,,,,,,,,,,,,,125,F,hexagon,1,1,,,,,,,,,,,,,,,,switch,letter,lettSwt,j,0.447,Hi,,,,,,0,,,,,,,,high,18,0,18,0,1,,,,,,,,,
294361,2022-11-22_14h37.24.009,vts_reward_expectancy_bt,2022.2.4,MacIntel,60.04202942,Chrome,1440,900,,,,,1,761,,,,,,,,,,,,,,,,,174,B,circle,1,0,,,,,,,,,,,,,,,,repeat,letter,lettRpt,j,0.5309,Lo,,,,,,0,,,,,,,,high,19,0,19,0,1,,,,,,,,,
294361,2022-11-22_14h37.24.009,vts_reward_expectancy_bt,2022.2.4,MacIntel,60.04202942,Chrome,1440,900,,,,,0,761,,,,,,,,,,,,,,,,,167,Y,hexagon,0,0,,,,,,,,,,,,,,,,switch,number,NA,d,0.5844,Lo,,,,,,0,,,,,,,,high,20,0,20,0,1,,,,,,,,,
294361,2022-11-22_14h37.24.009,vts_reward_expectancy_bt,2022.2.4,MacIntel,60.04202942,Chrome,1440,900,,,,,1,762,,,,,,,,,,,,,,,,,132,W,circle,1,1,,,,,,,,,,,,,,,,repeat,number,numRpt,d,0.5071,Lo,,,,,,0,,,,,,,,high,21,0,21,0,1,,,,,,,,,
294361,2022-11-22_14h37.24.009,vts_reward_expectancy_bt,2022.2.4,MacIntel,60.04202942,Chrome,1440,900,,,,,10,772,,,,,,,,,,,,,,,,,146,D,triangle,1,0,,,,,,,,,,,,,,,,repeat,number,numRpt,d,0.4567,Hi,,,,,,0,,,,,,,,high,22,0,22,0,1,,,,,,,,,
294361,2022-11-22_14h37.24.009,vts_reward_expectancy_bt,2022.2.4,MacIntel,60.04202942,Chrome,1440,900,,,,,10,782,,,,,,,,,,,,,,,,,139,U,star,1,0,,,,,,,,,,,,,,,,switch,letter,lettSwt,k,0.4653,Lo,,,,,,0,,,,,,,,high,23,0,23,0,1,,,,,,,,,
294361,2022-11-22_14h37.24.009,vts_reward_expectancy_bt,2022.2.4,MacIntel,60.04202942,Chrome,1440,900,,,,,1,783,,,,,,,,,,,,,,,,,139,F,circle,1,0,,,,,,,,,,,,,,,,switch,number,numSwt,d,0.5894,Lo,,,,,,0,,,,,,,,high,24,0,24,0,1,,,,,,,,,
294361,2022-11-22_14h37.24.009,vts_reward_expectancy_bt,2022.2.4,MacIntel,60.04202942,Chrome,1440,900,,,,,10,793,,,,,,,,,,,,,,,,,174,S,star,1,0,,,,,,,,,,,,,,,,repeat,number,numRpt,f,0.4307,Lo,,,,,,0,,,,,,,,high,25,0,25,0,1,,,,,,,,,
294361,2022-11-22_14h37.24.009,vts_reward_expectancy_bt,2022.2.4,MacIntel,60.04202942,Chrome,1440,900,,,,,10,803,,,,,,,,,,,,,,,,,125,Y,hexagon,1,0,,,,,,,,,,,,,,,,switch,letter,lettSwt,k,0.4609,Hi,,,,,,0,,,,,,,,high,26,0,26,0,1,,,,,,,,,
294361,2022-11-22_14h37.24.009,vts_reward_expectancy_bt,2022.2.4,MacIntel,60.04202942,Chrome,1440,900,,,,,10,813,,,,,,,,,,,,,,,,,167,W,triangle,1,0,,,,,,,,,,,,,,,,repeat,letter,lettRpt,k,0.4403,Hi,,,,,,0,,,,,,,,high,27,0,27,0,1,,,,,,,,,
294361,2022-11-22_14h37.24.009,vts_reward_expectancy_bt,2022.2.4,MacIntel,60.04202942,Chrome,1440,900,,,,,10,823,,,,,,,,,,,,,,,,,160,U,hexagon,1,0,,,,,,,,,,,,,,,,switch,number,numSwt,f,0.465,Hi,,,,,,0,,,,,,,,high,28,0,28,0,1,,,,,,,,,
294361,2022-11-22_14h37.24.009,vts_reward_expectancy_bt,2022.2.4,MacIntel,60.04202942,Chrome,1440,900,,,,,1,824,,,,,,,,,,,,,,,,,181,D,star,1,0,,,,,,,,,,,,,,,,repeat,number,numRpt,f,0.4629,Lo,,,,,,0,,,,,,,,high,29,0,29,0,1,,,,,,,,,
294361,2022-11-22_14h37.24.009,vts_reward_expectancy_bt,2022.2.4,MacIntel,60.04202942,Chrome,1440,900,,,,,10,834,,,,,,,,,,,,,,,,,146,B,triangle,1,0,,,,,,,,,,,,,,,,switch,letter,lettSwt,j,0.5607,Hi,,,,,,0,,,,,,,,high,30,0,30,0,1,,,,,,,,,
294361,2022-11-22_14h37.24.009,vts_reward_expectancy_bt,2022.2.4,MacIntel,60.04202942,Chrome,1440,900,,,,,1,835,,,,,,,,,,,,,,,,,132,H,circle,1,0,,,,,,,,,,,,,,,,repeat,letter,lettRpt,j,0.6575,Lo,,,,,,0,,,,,,,,high,31,0,31,0,1,,,,,,,,,
294361,2022-11-22_14h37.24.009,vts_reward_expectancy_bt,2022.2.4,MacIntel,60.04202942,Chrome,1440,900,,,,,0,835,,,,,,,,,,,,,,,,,139,W,triangle,1,0,,,,,,,,,,,,,,,,switch,number,numSwt,d,2.437,Hi,,,,,,1,,,,,,space,7.3897,high,0,0,0,0,1,,,,,,,,,
294361,2022-11-22_14h37.24.009,vts_reward_expectancy_bt,2022.2.4,MacIntel,60.04202942,Chrome,1440,900,,,,,1,836,,,,,,,,,,,,,,,,,125,U,star,1,0,,,,,,,,,,,,,,,,repeat,number,numRpt,d,0.6602,Lo,,,,,,1,,,,,,,,high,1,0,1,0,1,,,,,,,,,
294361,2022-11-22_14h37.24.009,vts_reward_expectancy_bt,2022.2.4,MacIntel,60.04202942,Chrome,1440,900,,,,,0,836,,,,,,,,,,,,,,,,,160,Y,hexagon,1,0,,,,,,,,,,,,,,,,switch,letter,lettSwt,k,0.7241,Hi,,,,,,1,,,,,,,,high,2,0,2,0,1,,,,,,,,,
294361,2022-11-22_14h37.24.009,vts_reward_expectancy_bt,2022.2.4,MacIntel,60.04202942,Chrome,1440,900,,,,,0,836,,,,,,,,,,,,,,,,,174,H,circle,0,0,,,,,,,,,,,,,,,,repeat,letter,NA,k,0.6989,Hi,,,,,,1,,,,,,,,high,3,0,3,0,1,,,,,,,,,
294361,2022-11-22_14h37.24.009,vts_reward_expectancy_bt,2022.2.4,MacIntel,60.04202942,Chrome,1440,900,,,,,0,836,,,,,,,,,,,,,,,,,167,B,triangle,1,1,,,,,,,,,,,,,,,,repeat,letter,lettRpt,j,0.8138,Hi,,,,,,1,,,,,,,,high,4,0,4,0,1,,,,,,,,,
294361,2022-11-22_14h37.24.009,vts_reward_expectancy_bt,2022.2.4,MacIntel,60.04202942,Chrome,1440,900,,,,,1,837,,,,,,,,,,,,,,,,,146,D,star,1,0,,,,,,,,,,,,,,,,repeat,letter,lettRpt,j,1.0085,Lo,,,,,,1,,,,,,,,high,5,0,5,0,1,,,,,,,,,
294361,2022-11-22_14h37.24.009,vts_reward_expectancy_bt,2022.2.4,MacIntel,60.04202942,Chrome,1440,900,,,,,0,837,,,,,,,,,,,,,,,,,181,S,hexagon,1,0,,,,,,,,,,,,,,,,repeat,letter,lettRpt,k,0.7794,Hi,,,,,,1,,,,,,,,high,6,0,6,0,1,,,,,,,,,
294361,2022-11-22_14h37.24.009,vts_reward_expectancy_bt,2022.2.4,MacIntel,60.04202942,Chrome,1440,900,,,,,1,838,,,,,,,,,,,,,,,,,132,F,circle,1,0,,,,,,,,,,,,,,,,switch,number,numSwt,d,1.0981,Lo,,,,,,1,,,,,,,,high,7,0,7,0,1,,,,,,,,,
294361,2022-11-22_14h37.24.009,vts_reward_expectancy_bt,2022.2.4,MacIntel,60.04202942,Chrome,1440,900,,,,,0,838,,,,,,,,,,,,,,,,,139,W,star,0,0,,,,,,,,,,,,,,,,repeat,number,NA,f,0.7129,Lo,,,,,,1,,,,,,,,high,8,0,8,0,1,,,,,,,,,
294361,2022-11-22_14h37.24.009,vts_reward_expectancy_bt,2022.2.4,MacIntel,60.04202942,Chrome,1440,900,,,,,0,838,,,,,,,,,,,,,,,,,125,U,hexagon,1,1,,,,,,,,,,,,,,,,repeat,number,numRpt,d,0.7895,Hi,,,,,,1,,,,,,,,high,9,0,9,0,1,,,,,,,,,
294361,2022-11-22_14h37.24.009,vts_reward_expectancy_bt,2022.2.4,MacIntel,60.04202942,Chrome,1440,900,,,,,0,838,,,,,,,,,,,,,,,,,160,Y,triangle,1,0,,,,,,,,,,,,,,,,repeat,number,numRpt,f,0.9777,Hi,,,,,,1,,,,,,,,high,10,0,10,0,1,,,,,,,,,
294361,2022-11-22_14h37.24.009,vts_reward_expectancy_bt,2022.2.4,MacIntel,60.04202942,Chrome,1440,900,,,,,1,839,,,,,,,,,,,,,,,,,174,H,circle,1,0,,,,,,,,,,,,,,,,repeat,number,numRpt,f,0.8468,Lo,,,,,,1,,,,,,,,high,11,0,11,0,1,,,,,,,,,
294361,2022-11-22_14h37.24.009,vts_reward_expectancy_bt,2022.2.4,MacIntel,60.04202942,Chrome,1440,900,,,,,0,839,,,,,,,,,,,,,,,,,167,B,triangle,1,0,,,,,,,,,,,,,,,,repeat,number,numRpt,f,0.5157,Hi,,,,,,1,,,,,,,,high,12,0,12,0,1,,,,,,,,,
294361,2022-11-22_14h37.24.009,vts_reward_expectancy_bt,2022.2.4,MacIntel,60.04202942,Chrome,1440,900,,,,,1,840,,,,,,,,,,,,,,,,,146,D,star,1,0,,,,,,,,,,,,,,,,switch,letter,lettSwt,j,0.3995,Lo,,,,,,1,,,,,,,,high,13,0,13,0,1,,,,,,,,,
294361,2022-11-22_14h37.24.009,vts_reward_expectancy_bt,2022.2.4,MacIntel,60.04202942,Chrome,1440,900,,,,,1,841,,,,,,,,,,,,,,,,,181,S,circle,1,0,,,,,,,,,,,,,,,,repeat,letter,lettRpt,k,0.6206,Lo,,,,,,1,,,,,,,,high,14,0,14,0,1,,,,,,,,,
294361,2022-11-22_14h37.24.009,vts_reward_expectancy_bt,2022.2.4,MacIntel,60.04202942,Chrome,1440,900,,,,,0,841,,,,,,,,,,,,,,,,,132,F,hexagon,1,0,,,,,,,,,,,,,,,,switch,number,numSwt,d,1.9772,Hi,,,,,,1,,,,,,,,high,15,0,15,0,1,,,,,,,,,
294361,2022-11-22_14h37.24.009,vts_reward_expectancy_bt,2022.2.4,MacIntel,60.04202942,Chrome,1440,900,,,,,0,841,,,,,,,,,,,,,,,,,160,Y,hexagon,1,0,,,,,,,,,,,,,,,,repeat,number,numRpt,f,1.3645,Hi,,,,,,1,,,,,,,,high,16,0,16,0,1,,,,,,,,,
294361,2022-11-22_14h37.24.009,vts_reward_expectancy_bt,2022.2.4,MacIntel,60.04202942,Chrome,1440,900,,,,,1,842,,,,,,,,,,,,,,,,,132,D,star,1,0,,,,,,,,,,,,,,,,switch,letter,lettSwt,j,0.7162,Lo,,,,,,1,,,,,,,,high,17,0,17,0,1,,,,,,,,,
294361,2022-11-22_14h37.24.009,vts_reward_expectancy_bt,2022.2.4,MacIntel,60.04202942,Chrome,1440,900,,,,,0,842,,,,,,,,,,,,,,,,,181,S,triangle,1,0,,,,,,,,,,,,,,,,repeat,letter,lettRpt,k,0.6442,Hi,,,,,,1,,,,,,,,high,18,0,18,0,1,,,,,,,,,
294361,2022-11-22_14h37.24.009,vts_reward_expectancy_bt,2022.2.4,MacIntel,60.04202942,Chrome,1440,900,,,,,1,843,,,,,,,,,,,,,,,,,139,B,circle,1,0,,,,,,,,,,,,,,,,switch,number,numSwt,d,0.8246,Lo,,,,,,1,,,,,,,,high,19,0,19,0,1,,,,,,,,,
294361,2022-11-22_14h37.24.009,vts_reward_expectancy_bt,2022.2.4,MacIntel,60.04202942,Chrome,1440,900,,,,,0,843,,,,,,,,,,,,,,,,,167,F,triangle,1,0,,,,,,,,,,,,,,,,repeat,number,numRpt,f,0.8078,Hi,,,,,,1,,,,,,,,high,20,0,20,0,1,,,,,,,,,
294361,2022-11-22_14h37.24.009,vts_reward_expectancy_bt,2022.2.4,MacIntel,60.04202942,Chrome,1440,900,,,,,0,843,,,,,,,,,,,,,,,,,146,W,hexagon,0,0,,,,,,,,,,,,,,,,repeat,number,NA,f,0.713,Hi,,,,,,1,,,,,,,,high,21,0,21,0,1,,,,,,,,,
294361,2022-11-22_14h37.24.009,vts_reward_expectancy_bt,2022.2.4,MacIntel,60.04202942,Chrome,1440,900,,,,,1,844,,,,,,,,,,,,,,,,,174,U,circle,1,1,,,,,,,,,,,,,,,,repeat,number,numRpt,f,0.7097,Lo,,,,,,1,,,,,,,,high,22,0,22,0,1,,,,,,,,,
294361,2022-11-22_14h37.24.009,vts_reward_expectancy_bt,2022.2.4,MacIntel,60.04202942,Chrome,1440,900,,,,,10,854,,,,,,,,,,,,,,,,,125,H,star,1,0,,,,,,,,,,,,,,,,repeat,number,numRpt,d,0.6611,Lo,,,,,,1,,,,,,,,high,23,0,23,0,1,,,,,,,,,
294361,2022-11-22_14h37.24.009,vts_reward_expectancy_bt,2022.2.4,MacIntel,60.04202942,Chrome,1440,900,,,,,1,855,,,,,,,,,,,,,,,,,167,Y,star,1,0,,,,,,,,,,,,,,,,repeat,number,numRpt,f,1.0739,Lo,,,,,,1,,,,,,,,high,24,0,24,0,1,,,,,,,,,
294361,2022-11-22_14h37.24.009,vts_reward_expectancy_bt,2022.2.4,MacIntel,60.04202942,Chrome,1440,900,,,,,0,855,,,,,,,,,,,,,,,,,174,S,hexagon,1,0,,,,,,,,,,,,,,,,repeat,number,numRpt,f,1.4065,Hi,,,,,,1,,,,,,,,high,25,0,25,0,1,,,,,,,,,
294361,2022-11-22_14h37.24.009,vts_reward_expectancy_bt,2022.2.4,MacIntel,60.04202942,Chrome,1440,900,,,,,0,855,,,,,,,,,,,,,,,,,160,B,triangle,1,0,,,,,,,,,,,,,,,,repeat,number,numRpt,f,1.08,Hi,,,,,,1,,,,,,,,high,26,0,26,0,1,,,,,,,,,
294361,2022-11-22_14h37.24.009,vts_reward_expectancy_bt,2022.2.4,MacIntel,60.04202942,Chrome,1440,900,,,,,10,865,,,,,,,,,,,,,,,,,146,F,circle,1,0,,,,,,,,,,,,,,,,repeat,number,numRpt,d,0.8511,Lo,,,,,,1,,,,,,,,high,27,0,27,0,1,,,,,,,,,
294361,2022-11-22_14h37.24.009,vts_reward_expectancy_bt,2022.2.4,MacIntel,60.04202942,Chrome,1440,900,,,,,1,866,,,,,,,,,,,,,,,,,139,D,star,1,0,,,,,,,,,,,,,,,,repeat,number,numRpt,d,0.7805,Lo,,,,,,1,,,,,,,,high,28,0,28,0,1,,,,,,,,,
294361,2022-11-22_14h37.24.009,vts_reward_expectancy_bt,2022.2.4,MacIntel,60.04202942,Chrome,1440,900,,,,,0,866,,,,,,,,,,,,,,,,,181,U,triangle,1,0,,,,,,,,,,,,,,,,repeat,number,numRpt,f,1.0972,Hi,,,,,,1,,,,,,,,high,29,0,29,0,1,,,,,,,,,
294361,2022-11-22_14h37.24.009,vts_reward_expectancy_bt,2022.2.4,MacIntel,60.04202942,Chrome,1440,900,,,,,1,867,,,,,,,,,,,,,,,,,125,W,circle,1,0,,,,,,,,,,,,,,,,repeat,number,numRpt,d,0.4584,Lo,,,,,,1,,,,,,,,high,30,0,30,0,1,,,,,,,,,
294361,2022-11-22_14h37.24.009,vts_reward_expectancy_bt,2022.2.4,MacIntel,60.04202942,Chrome,1440,900,,,,,0,867,,,,,,,,,,,,,,,,,132,H,hexagon,1,0,,,,,,,,,,,,,,,,switch,letter,lettSwt,j,0.6971,Hi,,,,,,1,,,,,,,,high,31,0,31,0,1,,,,,,,,,
294361,2022-11-22_14h37.24.009,vts_reward_expectancy_bt,2022.2.4,MacIntel,60.04202942,Chrome,1440,900,,,,,10,877,,,,,,,,,,,,,,,,,125,B,triangle,1,0,,,,,,,,,,,,,,,,switch,number,numSwt,d,0.4789,Hi,,,,,,2,,,,,,space,3.3159,high,0,0,0,0,1,,,,,,,,,
294361,2022-11-22_14h37.24.009,vts_reward_expectancy_bt,2022.2.4,MacIntel,60.04202942,Chrome,1440,900,,,,,1,878,,,,,,,,,,,,,,,,,139,S,star,1,0,,,,,,,,,,,,,,,,switch,letter,lettSwt,k,0.4889,Lo,,,,,,2,,,,,,,,high,1,0,1,0,1,,,,,,,,,
294361,2022-11-22_14h37.24.009,vts_reward_expectancy_bt,2022.2.4,MacIntel,60.04202942,Chrome,1440,900,,,,,10,888,,,,,,,,,,,,,,,,,167,U,hexagon,1,0,,,,,,,,,,,,,,,,switch,number,numSwt,f,0.3821,Hi,,,,,,2,,,,,,,,high,2,0,2,0,1,,,,,,,,,
294361,2022-11-22_14h37.24.009,vts_reward_expectancy_bt,2022.2.4,MacIntel,60.04202942,Chrome,1440,900,,,,,1,889,,,,,,,,,,,,,,,,,146,Y,circle,1,0,,,,,,,,,,,,,,,,switch,letter,lettSwt,k,0.4366,Lo,,,,,,2,,,,,,,,high,3,0,3,0,1,,,,,,,,,
294361,2022-11-22_14h37.24.009,vts_reward_expectancy_bt,2022.2.4,MacIntel,60.04202942,Chrome,1440,900,,,,,1,890,,,,,,,,,,,,,,,,,132,F,triangle,1,0,,,,,,,,,,,,,,,,switch,number,numSwt,d,0.5123,Hi,,,,,,2,,,,,,,,high,4,0,4,0,1,,,,,,,,,
294361,2022-11-22_14h37.24.009,vts_reward_expectancy_bt,2022.2.4,MacIntel,60.04202942,Chrome,1440,900,,,,,1,891,,,,,,,,,,,,,,,,,181,D,star,1,0,,,,,,,,,,,,,,,,repeat,number,numRpt,f,0.4507,Lo,,,,,,2,,,,,,,,high,5,0,5,0,1,,,,,,,,,
294361,2022-11-22_14h37.24.009,vts_reward_expectancy_bt,2022.2.4,MacIntel,60.04202942,Chrome,1440,900,,,,,10,901,,,,,,,,,,,,,,,,,160,W,hexagon,1,0,,,,,,,,,,,,,,,,switch,letter,lettSwt,k,0.4661,Hi,,,,,,2,,,,,,,,high,6,0,6,0,1,,,,,,,,,
294361,2022-11-22_14h37.24.009,vts_reward_expectancy_bt,2022.2.4,MacIntel,60.04202942,Chrome,1440,900,,,,,1,902,,,,,,,,,,,,,,,,,174,H,circle,1,0,,,,,,,,,,,,,,,,repeat,letter,lettRpt,j,0.6833,Lo,,,,,,2,,,,,,,,high,7,0,7,0,1,,,,,,,,,
294361,2022-11-22_14h37.24.009,vts_reward_expectancy_bt,2022.2.4,MacIntel,60.04202942,Chrome,1440,900,,,,,1,903,,,,,,,,,,,,,,,,,125,B,circle,1,0,,,,,,,,,,,,,,,,switch,number,numSwt,d,0.5207,Lo,,,,,,2,,,,,,,,high,8,0,8,0,1,,,,,,,,,
294361,2022-11-22_14h37.24.009,vts_reward_expectancy_bt,2022.2.4,MacIntel,60.04202942,Chrome,1440,900,,,,,10,913,,,,,,,,,,,,,,,,,139,S,triangle,1,0,,,,,,,,,,,,,,,,repeat,number,numRpt,d,0.4966,Hi,,,,,,2,,,,,,,,high,9,0,9,0,1,,,,,,,,,
294361,2022-11-22_14h37.24.009,vts_reward_expectancy_bt,2022.2.4,MacIntel,60.04202942,Chrome,1440,900,,,,,1,914,,,,,,,,,,,,,,,,,167,U,star,1,0,,,,,,,,,,,,,,,,switch,letter,lettSwt,k,0.6302,Lo,,,,,,2,,,,,,,,high,10,0,10,0,1,,,,,,,,,
294361,2022-11-22_14h37.24.009,vts_reward_expectancy_bt,2022.2.4,MacIntel,60.04202942,Chrome,1440,900,,,,,10,924,,,,,,,,,,,,,,,,,146,Y,hexagon,1,0,,,,,,,,,,,,,,,,repeat,letter,lettRpt,k,0.6451,Hi,,,,,,2,,,,,,,,high,11,0,11,0,1,,,,,,,,,
294361,2022-11-22_14h37.24.009,vts_reward_expectancy_bt,2022.2.4,MacIntel,60.04202942,Chrome,1440,900,,,,,10,934,,,,,,,,,,,,,,,,,132,F,hexagon,1,0,,,,,,,,,,,,,,,,switch,number,numSwt,d,0.6609,Hi,,,,,,2,,,,,,,,high,12,0,12,0,1,,,,,,,,,
294361,2022-11-22_14h37.24.009,vts_reward_expectancy_bt,2022.2.4,MacIntel,60.04202942,Chrome,1440,900,,,,,10,944,,,,,,,,,,,,,,,,,181,D,triangle,1,0,,,,,,,,,,,,,,,,repeat,number,numRpt,f,0.4093,Hi,,,,,,2,,,,,,,,high,13,0,13,0,1,,,,,,,,,
294361,2022-11-22_14h37.24.009,vts_reward_expectancy_bt,2022.2.4,MacIntel,60.04202942,Chrome,1440,900,,,,,10,954,,,,,,,,,,,,,,,,,160,W,star,1,0,,,,,,,,,,,,,,,,switch,letter,lettSwt,k,0.6628,Lo,,,,,,2,,,,,,,,high,14,0,14,0,1,,,,,,,,,
294361,2022-11-22_14h37.24.009,vts_reward_expectancy_bt,2022.2.4,MacIntel,60.04202942,Chrome,1440,900,,,,,10,964,,,,,,,,,,,,,,,,,174,H,circle,1,0,,,,,,,,,,,,,,,,repeat,letter,lettRpt,j,0.4662,Lo,,,,,,2,,,,,,,,high,15,0,15,0,1,,,,,,,,,
294361,2022-11-22_14h37.24.009,vts_reward_expectancy_bt,2022.2.4,MacIntel,60.04202942,Chrome,1440,900,,,,,10,974,,,,,,,,,,,,,,,,,139,Y,triangle,1,0,,,,,,,,,,,,,,,,switch,number,numSwt,d,0.37,Hi,,,,,,2,,,,,,,,high,16,0,16,0,1,,,,,,,,,
294361,2022-11-22_14h37.24.009,vts_reward_expectancy_bt,2022.2.4,MacIntel,60.04202942,Chrome,1440,900,,,,,10,984,,,,,,,,,,,,,,,,,132,F,circle,1,0,,,,,,,,,,,,,,,,repeat,number,numRpt,d,0.4506,Lo,,,,,,2,,,,,,,,high,17,0,17,0,1,,,,,,,,,
294361,2022-11-22_14h37.24.009,vts_reward_expectancy_bt,2022.2.4,MacIntel,60.04202942,Chrome,1440,900,,,,,10,994,,,,,,,,,,,,,,,,,125,U,hexagon,1,0,,,,,,,,,,,,,,,,switch,letter,lettSwt,k,0.4744,Hi,,,,,,2,,,,,,,,high,18,0,18,0,1,,,,,,,,,
294361,2022-11-22_14h37.24.009,vts_reward_expectancy_bt,2022.2.4,MacIntel,60.04202942,Chrome,1440,900,,,,,1,995,,,,,,,,,,,,,,,,,167,H,star,1,0,,,,,,,,,,,,,,,,repeat,letter,lettRpt,j,0.5451,Lo,,,,,,2,,,,,,,,high,19,0,19,0,1,,,,,,,,,
294361,2022-11-22_14h37.24.009,vts_reward_expectancy_bt,2022.2.4,MacIntel,60.04202942,Chrome,1440,900,,,,,1,996,,,,,,,,,,,,,,,,,160,W,star,1,0,,,,,,,,,,,,,,,,switch,number,numSwt,f,0.5092,Lo,,,,,,2,,,,,,,,high,20,0,20,0,1,,,,,,,,,
294361,2022-11-22_14h37.24.009,vts_reward_expectancy_bt,2022.2.4,MacIntel,60.04202942,Chrome,1440,900,,,,,1,997,,,,,,,,,,,,,,,,,146,S,circle,1,0,,,,,,,,,,,,,,,,repeat,number,numRpt,d,0.4465,Lo,,,,,,2,,,,,,,,high,21,0,21,0,1,,,,,,,,,
294361,2022-11-22_14h37.24.009,vts_reward_expectancy_bt,2022.2.4,MacIntel,60.04202942,Chrome,1440,900,,,,,1,998,,,,,,,,,,,,,,,,,174,D,triangle,1,0,,,,,,,,,,,,,,,,repeat,number,numRpt,f,0.4753,Hi,,,,,,2,,,,,,,,high,22,0,22,0,1,,,,,,,,,
294361,2022-11-22_14h37.24.009,vts_reward_expectancy_bt,2022.2.4,MacIntel,60.04202942,Chrome,1440,900,,,,,1,999,,,,,,,,,,,,,,,,,181,B,hexagon,1,0,,,,,,,,,,,,,,,,switch,letter,lettSwt,j,0.5751,Hi,,,,,,2,,,,,,,,high,23,0,23,0,1,,,,,,,,,
294361,2022-11-22_14h37.24.009,vts_reward_expectancy_bt,2022.2.4,MacIntel,60.04202942,Chrome,1440,900,,,,,10,1009,,,,,,,,,,,,,,,,,160,U,hexagon,1,0,,,,,,,,,,,,,,,,repeat,letter,lettRpt,k,0.6605,Hi,,,,,,2,,,,,,,,high,24,0,24,0,1,,,,,,,,,
294361,2022-11-22_14h37.24.009,vts_reward_expectancy_bt,2022.2.4,MacIntel,60.04202942,Chrome,1440,900,,,,,10,1019,,,,,,,,,,,,,,,,,146,W,star,1,0,,,,,,,,,,,,,,,,repeat,letter,lettRpt,k,0.4429,Lo,,,,,,2,,,,,,,,high,25,0,25,0,1,,,,,,,,,
294361,2022-11-22_14h37.24.009,vts_reward_expectancy_bt,2022.2.4,MacIntel,60.04202942,Chrome,1440,900,,,,,1,1020,,,,,,,,,,,,,,,,,132,D,circle,1,0,,,,,,,,,,,,,,,,repeat,letter,lettRpt,j,0.562,Lo,,,,,,2,,,,,,,,high,26,0,26,0,1,,,,,,,,,
294361,2022-11-22_14h37.24.009,vts_reward_expectancy_bt,2022.2.4,MacIntel,60.04202942,Chrome,1440,900,,,,,10,1030,,,,,,,,,,,,,,,,,125,F,triangle,1,0,,,,,,,,,,,,,,,,switch,number,numSwt,d,0.5506,Hi,,,,,,2,,,,,,,,high,27,0,27,0,1,,,,,,,,,
294361,2022-11-22_14h37.24.009,vts_reward_expectancy_bt,2022.2.4,MacIntel,60.04202942,Chrome,1440,900,,,,,10,1040,,,,,,,,,,,,,,,,,139,S,triangle,1,0,,,,,,,,,,,,,,,,repeat,number,numRpt,d,0.5445,Hi,,,,,,2,,,,,,,,high,28,0,28,0,1,,,,,,,,,
294361,2022-11-22_14h37.24.009,vts_reward_expectancy_bt,2022.2.4,MacIntel,60.04202942,Chrome,1440,900,,,,,1,1041,,,,,,,,,,,,,,,,,174,B,circle,1,0,,,,,,,,,,,,,,,,repeat,number,numRpt,f,0.5453,Lo,,,,,,2,,,,,,,,high,29,0,29,0,1,,,,,,,,,
294361,2022-11-22_14h37.24.009,vts_reward_expectancy_bt,2022.2.4,MacIntel,60.04202942,Chrome,1440,900,,,,,1,1042,,,,,,,,,,,,,,,,,181,H,star,1,0,,,,,,,,,,,,,,,,switch,letter,lettSwt,j,0.5467,Lo,,,,,,2,,,,,,,,high,30,0,30,0,1,,,,,,,,,
294361,2022-11-22_14h37.24.009,vts_reward_expectancy_bt,2022.2.4,MacIntel,60.04202942,Chrome,1440,900,,,,,10,1052,,,,,,,,,,,,,,,,,167,Y,hexagon,1,0,,,,,,,,,,,,,,,,repeat,letter,lettRpt,k,0.5245,Hi,,,,,,2,,,,,,,,high,31,0,31,0,1,,,,,,,,,
294361,2022-11-22_14h37.24.009,vts_reward_expectancy_bt,2022.2.4,MacIntel,60.04202942,Chrome,1440,900,,,,,0,1052,,,,,,,,,,,,,,,,,160,H,triangle,0,0,,,,,,,,,,,,,,,,repeat,letter,NA,k,0.7068,Hi,,,,,,3,,,,,,space,4.1143,high,0,0,0,0,1,,,,,,,,,
294361,2022-11-22_14h37.24.009,vts_reward_expectancy_bt,2022.2.4,MacIntel,60.04202942,Chrome,1440,900,,,,,1,1053,,,,,,,,,,,,,,,,,174,Y,star,1,1,,,,,,,,,,,,,,,,repeat,letter,lettRpt,k,0.8148,Lo,,,,,,3,,,,,,,,high,1,0,1,0,1,,,,,,,,,
294361,2022-11-22_14h37.24.009,vts_reward_expectancy_bt,2022.2.4,MacIntel,60.04202942,Chrome,1440,900,,,,,0,1053,,,,,,,,,,,,,,,,,132,B,hexagon,1,0,,,,,,,,,,,,,,,,repeat,letter,lettRpt,j,0.6429,Hi,,,,,,3,,,,,,,,high,2,0,2,0,1,,,,,,,,,
294361,2022-11-22_14h37.24.009,vts_reward_expectancy_bt,2022.2.4,MacIntel,60.04202942,Chrome,1440,900,,,,,10,1063,,,,,,,,,,,,,,,,,146,U,circle,1,0,,,,,,,,,,,,,,,,repeat,letter,lettRpt,k,0.6099,Lo,,,,,,3,,,,,,,,high,3,0,3,0,1,,,,,,,,,
294361,2022-11-22_14h37.24.009,vts_reward_expectancy_bt,2022.2.4,MacIntel,60.04202942,Chrome,1440,900,,,,,0,1063,,,,,,,,,,,,,,,,,125,F,triangle,0,0,,,,,,,,,,,,,,,,repeat,letter,NA,k,0.663,Lo,,,,,,3,,,,,,,,high,4,0,4,0,1,,,,,,,,,
294361,2022-11-22_14h37.24.009,vts_reward_expectancy_bt,2022.2.4,MacIntel,60.04202942,Chrome,1440,900,,,,,10,1073,,,,,,,,,,,,,,,,,181,D,star,1,1,,,,,,,,,,,,,,,,repeat,letter,lettRpt,j,0.7542,Lo,,,,,,3,,,,,,,,high,5,0,5,0,1,,,,,,,,,
294361,2022-11-22_14h37.24.009,vts_reward_expectancy_bt,2022.2.4,MacIntel,60.04202942,Chrome,1440,900,,,,,0,1073,,,,,,,,,,,,,,,,,139,W,hexagon,1,0,,,,,,,,,,,,,,,,repeat,letter,lettRpt,k,0.6223,Hi,,,,,,3,,,,,,,,high,6,0,6,0,1,,,,,,,,,
294361,2022-11-22_14h37.24.009,vts_reward_expectancy_bt,2022.2.4,MacIntel,60.04202942,Chrome,1440,900,,,,,1,1074,,,,,,,,,,,,,,,,,167,S,circle,1,0,,,,,,,,,,,,,,,,repeat,letter,lettRpt,k,0.7224,Lo,,,,,,3,,,,,,,,high,7,0,7,0,1,,,,,,,,,
294361,2022-11-22_14h37.24.009,vts_reward_expectancy_bt,2022.2.4,MacIntel,60.04202942,Chrome,1440,900,,,,,0,1074,,,,,,,,,,,,,,,,,160,H,hexagon,1,0,,,,,,,,,,,,,,,,switch,number,numSwt,f,0.7351,Hi,,,,,,3,,,,,,,,high,8,0,8,0,1,,,,,,,,,
294361,2022-11-22_14h37.24.009,vts_reward_expectancy_bt,2022.2.4,MacIntel,60.04202942,Chrome,1440,900,,,,,0,1074,,,,,,,,,,,,,,,,,174,Y,triangle,1,0,,,,,,,,,,,,,,,,repeat,number,numRpt,f,0.5442,Hi,,,,,,3,,,,,,,,high,9,0,9,0,1,,,,,,,,,
294361,2022-11-22_14h37.24.009,vts_reward_expectancy_bt,2022.2.4,MacIntel,60.04202942,Chrome,1440,900,,,,,0,1074,,,,,,,,,,,,,,,,,132,B,star,0,0,,,,,,,,,,,,,,,,repeat,number,NA,f,0.557,Hi,,,,,,3,,,,,,,,high,10,0,10,0,1,,,,,,,,,
294361,2022-11-22_14h37.24.009,vts_reward_expectancy_bt,2022.2.4,MacIntel,60.04202942,Chrome,1440,900,,,,,1,1075,,,,,,,,,,,,,,,,,146,U,circle,1,1,,,,,,,,,,,,,,,,repeat,number,numRpt,d,0.688,Lo,,,,,,3,,,,,,,,high,11,0,11,0,1,,,,,,,,,
294361,2022-11-22_14h37.24.009,vts_reward_expectancy_bt,2022.2.4,MacIntel,60.04202942,Chrome,1440,900,,,,,10,1085,,,,,,,,,,,,,,,,,125,F,circle,1,0,,,,,,,,,,,,,,,,repeat,number,numRpt,d,0.6064,Lo,,,,,,3,,,,,,,,high,12,0,12,0,1,,,,,,,,,
294361,2022-11-22_14h37.24.009,vts_reward_expectancy_bt,2022.2.4,MacIntel,60.04202942,Chrome,1440,900,,,,,1,1086,,,,,,,,,,,,,,,,,181,D,star,1,0,,,,,,,,,,,,,,,,repeat,number,numRpt,f,0.7514,Lo,,,,,,3,,,,,,,,high,13,0,13,0,1,,,,,,,,,
294361,2022-11-22_14h37.24.009,vts_reward_expectancy_bt,2022.2.4,MacIntel,60.04202942,Chrome,1440,900,,,,,0,1086,,,,,,,,,,,,,,,,,139,W,hexagon,1,0,,,,,,,,,,,,,,,,repeat,number,numRpt,d,0.597,Hi,,,,,,3,,,,,,,,high,14,0,14,0,1,,,,,,,,,
294361,2022-11-22_14h37.24.009,vts_reward_expectancy_bt,2022.2.4,MacIntel,60.04202942,Chrome,1440,900,,,,,0,1086,,,,,,,,,,,,,,,,,167,S,triangle,0,0,,,,,,,,,,,,,,,,repeat,number,NA,d,1.333,Hi,,,,,,3,,,,,,,,high,15,0,15,0,1,,,,,,,,,
294361,2022-11-22_14h37.24.009,vts_reward_expectancy_bt,2022.2.4,MacIntel,60.04202942,Chrome,1440,900,,,,,0,1086,,,,,,,,,,,,,,,,,174,U,triangle,1,1,,,,,,,,,,,,,,,,repeat,number,numRpt,f,0.7129,Hi,,,,,,3,,,,,,,,high,16,0,16,0,1,,,,,,,,,
294361,2022-11-22_14h37.24.009,vts_reward_expectancy_bt,2022.2.4,MacIntel,60.04202942,Chrome,1440,900,,,,,0,1086,,,,,,,,,,,,,,,,,181,H,hexagon,1,0,,,,,,,,,,,,,,,,repeat,number,numRpt,f,0.7256,Hi,,,,,,3,,,,,,,,high,17,0,17,0,1,,,,,,,,,
294361,2022-11-22_14h37.24.009,vts_reward_expectancy_bt,2022.2.4,MacIntel,60.04202942,Chrome,1440,900,,,,,10,1096,,,,,,,,,,,,,,,,,146,S,circle,1,0,,,,,,,,,,,,,,,,repeat,number,numRpt,d,1.164,Lo,,,,,,3,,,,,,,,high,18,0,18,0,1,,,,,,,,,
294361,2022-11-22_14h37.24.009,vts_reward_expectancy_bt,2022.2.4,MacIntel,60.04202942,Chrome,1440,900,,,,,1,1097,,,,,,,,,,,,,,,,,160,B,star,1,0,,,,,,,,,,,,,,,,repeat,number,numRpt,f,1.4471,Lo,,,,,,3,,,,,,,,high,19,0,19,0,1,,,,,,,,,
294361,2022-11-22_14h37.24.009,vts_reward_expectancy_bt,2022.2.4,MacIntel,60.04202942,Chrome,1440,900,,,,,0,1097,,,,,,,,,,,,,,,,,125,F,hexagon,1,0,,,,,,,,,,,,,,,,repeat,number,numRpt,d,0.6005,Hi,,,,,,3,,,,,,,,high,20,0,20,0,1,,,,,,,,,
294361,2022-11-22_14h37.24.009,vts_reward_expectancy_bt,2022.2.4,MacIntel,60.04202942,Chrome,1440,900,,,,,0,1097,,,,,,,,,,,,,,,,,132,D,triangle,1,0,,,,,,,,,,,,,,,,repeat,number,numRpt,d,0.6565,Hi,,,,,,3,,,,,,,,high,21,0,21,0,1,,,,,,,,,
294361,2022-11-22_14h37.24.009,vts_reward_expectancy_bt,2022.2.4,MacIntel,60.04202942,Chrome,1440,900,,,,,1,1098,,,,,,,,,,,,,,,,,167,Y,circle,1,0,,,,,,,,,,,,,,,,repeat,number,numRpt,f,0.6492,Lo,,,,,,3,,,,,,,,high,22,0,22,0,1,,,,,,,,,
294361,2022-11-22_14h37.24.009,vts_reward_expectancy_bt,2022.2.4,MacIntel,60.04202942,Chrome,1440,900,,,,,1,1099,,,,,,,,,,,,,,,,,139,W,star,1,0,,,,,,,,,,,,,,,,repeat,number,numRpt,d,0.7964,Lo,,,,,,3,,,,,,,,high,23,0,23,0,1,,,,,,,,,
294361,2022-11-22_14h37.24.009,vts_reward_expectancy_bt,2022.2.4,MacIntel,60.04202942,Chrome,1440,900,,,,,0,1099,,,,,,,,,,,,,,,,,181,F,triangle,1,0,,,,,,,,,,,,,,,,repeat,number,numRpt,f,0.7498,Hi,,,,,,3,,,,,,,,high,24,0,24,0,1,,,,,,,,,
