participant,date,expName,psychopyVersion,OS,frameRate,browser,xResolution,yResolution,key_resp.keys,key_resp.rt,training_resp.keys,training_resp.rt,points_trial,points_cumul,trainBlock,training.thisRepN,training.thisTrialN,training.thisN,training.thisIndex,training.ran,LTriangleOpac,LCircleOpac,LHexagonOpac,LStarOpac,RTriangleOpac,RCircleOpac,RHexagonOpac,RStarOpac,LShape_ID,RShape_ID,curr_topStim,curr_bottStim,curr_shape,acc,E1,target_resp_prac1.keys,target_resp_prac1.rt,pracBlock,task1_prac_trials.thisRepN,task1_prac_trials.thisTrialN,task1_prac_trials.thisN,task1_prac_trials.thisIndex,task1_prac_trials.ran,target_resp_prac2.keys,target_resp_prac2.rt,task2_praac_trials.thisRepN,task2_praac_trials.thisTrialN,task2_praac_trials.thisN,task2_praac_trials.thisIndex,task2_praac_trials.ran,alt,task,condition,target_resp.keys,rewCond,vts_practice_trials.thisRepN,vts_practice_trials.thisTrialN,vts_practice_trials.thisN,vts_practice_trials.thisIndex,vts_practice_trials.ran,target_resp.rt,blockNum,trials_norew.thisRepN,trials_norew.thisTrialN,trials_norew.thisN,trials_norew.thisIndex,trials_norew.ran,key_resp_2.keys,key_resp_2.rt,rewExpectancy,trials_rew.thisRepN,trials_rew.thisTrialN,trials_rew.thisN,trials_rew.thisIndex,trials_rew.ran,Q1,Q2,Q2_text,Q3,Q4,Q5_text,Q5,xRes,yRes
294382,2022-11-16_22h54.00.353,vts_reward_expectancy_bt,2022.2.4,MacIntel,58.82352941,Safari,1728,1117,,,,,,,,,,,,,,,,,,,,,,,,,,,,,,,,,,,,,,,,,,,,,,,,,,,,,,,,,,,,,,,,,,,,,,,,,,,,
294382,2022-11-16_22h54.00.353,vts_reward_expectancy_bt,2022.2.4,MacIntel,58.82352941,Safari,1728,1117,space,15.261,,,,,,,,,,,,,,,,,,,,,,,,,,,,,,,,,,,,,,,,,,,,,,,,,,,,,,,,,,,,,,,,,,,,,,,,,,
294382,2022-11-16_22h54.00.353,vts_reward_expectancy_bt,2022.2.4,MacIntel,58.82352941,Safari,1728,1117,,,,,,,,,,,,,,,,,,,,,,,,,,,,,,,,,,,,,,,,,,,,,,,,,,,,,,,,,,,,,,,,,,,,,,,,,,,,
294382,2022-11-16_22h54.00.353,vts_reward_expectancy_bt,2022.2.4,MacIntel,58.82352941,Safari,1728,1117,,,a,2.118,1,1,0,0,0,0,1,1,1,0,0,0,0,0,1,0,triangle,hexagon,,,,,,,,,,,,,,,,,,,,,,,,,,,,,,,,,,,,,,,,,,,,,,,,,,,,,,
294382,2022-11-16_22h54.00.353,vts_reward_expectancy_bt,2022.2.4,MacIntel,58.82352941,Safari,1728,1117,,,l,1.041,10,11,0,0,1,1,11,1,0,0,0,1,0,0,1,0,star,hexagon,,,,,,,,,,,,,,,,,,,,,,,,,,,,,,,,,,,,,,,,,,,,,,,,,,,,,,
294382,2022-11-16_22h54.00.353,vts_reward_expectancy_bt,2022.2.4,MacIntel,58.82352941,Safari,1728,1117,,,a,1.225,10,21,0,0,2,2,9,1,0,0,0,1,1,0,0,0,star,triangle,,,,,,,,,,,,,,,,,,,,,,,,,,,,,,,,,,,,,,,,,,,,,,,,,,,,,,
294382,2022-11-16_22h54.00.353,vts_reward_expectancy_bt,2022.2.4,MacIntel,58.82352941,Safari,1728,1117,,,a,1.118,10,31,0,0,3,3,3,1,0,1,0,0,1,0,0,0,circle,triangle,,,,,,,,,,,,,,,,,,,,,,,,,,,,,,,,,,,,,,,,,,,,,,,,,,,,,,
294382,2022-11-16_22h54.00.353,vts_reward_expectancy_bt,2022.2.4,MacIntel,58.82352941,Safari,1728,1117,,,l,1.082,10,41,0,0,4,4,10,1,0,0,0,1,0,1,0,0,star ,circle,,,,,,,,,,,,,,,,,,,,,,,,,,,,,,,,,,,,,,,,,,,,,,,,,,,,,,
294382,2022-11-16_22h54.00.353,vts_reward_expectancy_bt,2022.2.4,MacIntel,58.82352941,Safari,1728,1117,,,l,1.031,1,42,0,0,5,5,5,1,0,1,0,0,0,0,0,1,circle,star,,,,,,,,,,,,,,,,,,,,,,,,,,,,,,,,,,,,,,,,,,,,,,,,,,,,,,
294382,2022-11-16_22h54.00.353,vts_reward_expectancy_bt,2022.2.4,MacIntel,58.82352941,Safari,1728,1117,,,l,1.175,10,52,0,0,6,6,2,1,1,0,0,0,0,0,0,1,triangle,star,,,,,,,,,,,,,,,,,,,,,,,,,,,,,,,,,,,,,,,,,,,,,,,,,,,,,,
294382,2022-11-16_22h54.00.353,vts_reward_expectancy_bt,2022.2.4,MacIntel,58.82352941,Safari,1728,1117,,,a,0.774,1,53,0,0,7,7,4,1,0,1,0,0,0,0,1,0,circle,hexagon,,,,,,,,,,,,,,,,,,,,,,,,,,,,,,,,,,,,,,,,,,,,,,,,,,,,,,
294382,2022-11-16_22h54.00.353,vts_reward_expectancy_bt,2022.2.4,MacIntel,58.82352941,Safari,1728,1117,,,a,0.795,1,54,0,0,8,8,0,1,1,0,0,0,0,1,0,0,triangle,circle,,,,,,,,,,,,,,,,,,,,,,,,,,,,,,,,,,,,,,,,,,,,,,,,,,,,,,
294382,2022-11-16_22h54.00.353,vts_reward_expectancy_bt,2022.2.4,MacIntel,58.82352941,Safari,1728,1117,,,l,0.173,10,64,0,0,9,9,8,1,0,0,1,0,0,0,0,1,hexagon,star,,,,,,,,,,,,,,,,,,,,,,,,,,,,,,,,,,,,,,,,,,,,,,,,,,,,,,
294382,2022-11-16_22h54.00.353,vts_reward_expectancy_bt,2022.2.4,MacIntel,58.82352941,Safari,1728,1117,,,l,0.583,10,74,0,0,10,10,6,1,0,0,1,0,1,0,0,0,hexagon,triangle,,,,,,,,,,,,,,,,,,,,,,,,,,,,,,,,,,,,,,,,,,,,,,,,,,,,,,
294382,2022-11-16_22h54.00.353,vts_reward_expectancy_bt,2022.2.4,MacIntel,58.82352941,Safari,1728,1117,,,a,0.915,10,84,0,0,11,11,7,1,0,0,1,0,0,1,0,0,hexagon,circle,,,,,,,,,,,,,,,,,,,,,,,,,,,,,,,,,,,,,,,,,,,,,,,,,,,,,,
294382,2022-11-16_22h54.00.353,vts_reward_expectancy_bt,2022.2.4,MacIntel,58.82352941,Safari,1728,1117,,,l,0.577,10,94,0,1,0,12,8,1,0,0,1,0,0,0,0,1,hexagon,star,,,,,,,,,,,,,,,,,,,,,,,,,,,,,,,,,,,,,,,,,,,,,,,,,,,,,,
294382,2022-11-16_22h54.00.353,vts_reward_expectancy_bt,2022.2.4,MacIntel,58.82352941,Safari,1728,1117,,,l,0.65,1,95,0,1,1,13,1,1,1,0,0,0,0,0,1,0,triangle,hexagon,,,,,,,,,,,,,,,,,,,,,,,,,,,,,,,,,,,,,,,,,,,,,,,,,,,,,,
294382,2022-11-16_22h54.00.353,vts_reward_expectancy_bt,2022.2.4,MacIntel,58.82352941,Safari,1728,1117,,,l,0.658,1,96,0,1,2,14,2,1,1,0,0,0,0,0,0,1,triangle,star,,,,,,,,,,,,,,,,,,,,,,,,,,,,,,,,,,,,,,,,,,,,,,,,,,,,,,
294382,2022-11-16_22h54.00.353,vts_reward_expectancy_bt,2022.2.4,MacIntel,58.82352941,Safari,1728,1117,,,l,0.517,1,97,0,1,3,15,5,1,0,1,0,0,0,0,0,1,circle,star,,,,,,,,,,,,,,,,,,,,,,,,,,,,,,,,,,,,,,,,,,,,,,,,,,,,,,
294382,2022-11-16_22h54.00.353,vts_reward_expectancy_bt,2022.2.4,MacIntel,58.82352941,Safari,1728,1117,,,a,0.958,10,107,0,1,4,16,7,1,0,0,1,0,0,1,0,0,hexagon,circle,,,,,,,,,,,,,,,,,,,,,,,,,,,,,,,,,,,,,,,,,,,,,,,,,,,,,,
294382,2022-11-16_22h54.00.353,vts_reward_expectancy_bt,2022.2.4,MacIntel,58.82352941,Safari,1728,1117,,,l,0.452,10,117,0,1,5,17,3,1,0,1,0,0,1,0,0,0,circle,triangle,,,,,,,,,,,,,,,,,,,,,,,,,,,,,,,,,,,,,,,,,,,,,,,,,,,,,,
294382,2022-11-16_22h54.00.353,vts_reward_expectancy_bt,2022.2.4,MacIntel,58.82352941,Safari,1728,1117,,,l,0.491,1,118,0,1,6,18,9,1,0,0,0,1,1,0,0,0,star,triangle,,,,,,,,,,,,,,,,,,,,,,,,,,,,,,,,,,,,,,,,,,,,,,,,,,,,,,
294382,2022-11-16_22h54.00.353,vts_reward_expectancy_bt,2022.2.4,MacIntel,58.82352941,Safari,1728,1117,,,l,0.366,10,128,0,1,7,19,11,1,0,0,0,1,0,0,1,0,star,hexagon,,,,,,,,,,,,,,,,,,,,,,,,,,,,,,,,,,,,,,,,,,,,,,,,,,,,,,
294382,2022-11-16_22h54.00.353,vts_reward_expectancy_bt,2022.2.4,MacIntel,58.82352941,Safari,1728,1117,,,l,0.345,1,129,0,1,8,20,10,1,0,0,0,1,0,1,0,0,star ,circle,,,,,,,,,,,,,,,,,,,,,,,,,,,,,,,,,,,,,,,,,,,,,,,,,,,,,,
294382,2022-11-16_22h54.00.353,vts_reward_expectancy_bt,2022.2.4,MacIntel,58.82352941,Safari,1728,1117,,,a,0.274,1,130,0,1,9,21,6,1,0,0,1,0,1,0,0,0,hexagon,triangle,,,,,,,,,,,,,,,,,,,,,,,,,,,,,,,,,,,,,,,,,,,,,,,,,,,,,,
294382,2022-11-16_22h54.00.353,vts_reward_expectancy_bt,2022.2.4,MacIntel,58.82352941,Safari,1728,1117,,,l,0.155,1,131,0,1,10,22,0,1,1,0,0,0,0,1,0,0,triangle,circle,,,,,,,,,,,,,,,,,,,,,,,,,,,,,,,,,,,,,,,,,,,,,,,,,,,,,,
294382,2022-11-16_22h54.00.353,vts_reward_expectancy_bt,2022.2.4,MacIntel,58.82352941,Safari,1728,1117,,,l,0.03,1,132,0,1,11,23,4,1,0,1,0,0,0,0,1,0,circle,hexagon,,,,,,,,,,,,,,,,,,,,,,,,,,,,,,,,,,,,,,,,,,,,,,,,,,,,,,
294382,2022-11-16_22h54.00.353,vts_reward_expectancy_bt,2022.2.4,MacIntel,58.82352941,Safari,1728,1117,,,l,0.174,1,133,0,2,0,24,1,1,1,0,0,0,0,0,1,0,triangle,hexagon,,,,,,,,,,,,,,,,,,,,,,,,,,,,,,,,,,,,,,,,,,,,,,,,,,,,,,
294382,2022-11-16_22h54.00.353,vts_reward_expectancy_bt,2022.2.4,MacIntel,58.82352941,Safari,1728,1117,,,l,0.185,10,143,0,2,1,25,7,1,0,0,1,0,0,1,0,0,hexagon,circle,,,,,,,,,,,,,,,,,,,,,,,,,,,,,,,,,,,,,,,,,,,,,,,,,,,,,,
294382,2022-11-16_22h54.00.353,vts_reward_expectancy_bt,2022.2.4,MacIntel,58.82352941,Safari,1728,1117,,,l,0.383,1,144,0,2,2,26,0,1,1,0,0,0,0,1,0,0,triangle,circle,,,,,,,,,,,,,,,,,,,,,,,,,,,,,,,,,,,,,,,,,,,,,,,,,,,,,,
294382,2022-11-16_22h54.00.353,vts_reward_expectancy_bt,2022.2.4,MacIntel,58.82352941,Safari,1728,1117,,,l,0.354,1,145,0,2,3,27,9,1,0,0,0,1,1,0,0,0,star,triangle,,,,,,,,,,,,,,,,,,,,,,,,,,,,,,,,,,,,,,,,,,,,,,,,,,,,,,
294382,2022-11-16_22h54.00.353,vts_reward_expectancy_bt,2022.2.4,MacIntel,58.82352941,Safari,1728,1117,,,a,1.398,1,146,0,2,4,28,3,1,0,1,0,0,1,0,0,0,circle,triangle,,,,,,,,,,,,,,,,,,,,,,,,,,,,,,,,,,,,,,,,,,,,,,,,,,,,,,
294382,2022-11-16_22h54.00.353,vts_reward_expectancy_bt,2022.2.4,MacIntel,58.82352941,Safari,1728,1117,,,l,0.474,10,156,0,2,5,29,8,1,0,0,1,0,0,0,0,1,hexagon,star,,,,,,,,,,,,,,,,,,,,,,,,,,,,,,,,,,,,,,,,,,,,,,,,,,,,,,
294382,2022-11-16_22h54.00.353,vts_reward_expectancy_bt,2022.2.4,MacIntel,58.82352941,Safari,1728,1117,,,l,0.4,1,157,0,2,6,30,11,1,0,0,0,1,0,0,1,0,star,hexagon,,,,,,,,,,,,,,,,,,,,,,,,,,,,,,,,,,,,,,,,,,,,,,,,,,,,,,
294382,2022-11-16_22h54.00.353,vts_reward_expectancy_bt,2022.2.4,MacIntel,58.82352941,Safari,1728,1117,,,l,0.427,1,158,0,2,7,31,10,1,0,0,0,1,0,1,0,0,star ,circle,,,,,,,,,,,,,,,,,,,,,,,,,,,,,,,,,,,,,,,,,,,,,,,,,,,,,,
294382,2022-11-16_22h54.00.353,vts_reward_expectancy_bt,2022.2.4,MacIntel,58.82352941,Safari,1728,1117,,,l,0.542,10,168,0,2,8,32,6,1,0,0,1,0,1,0,0,0,hexagon,triangle,,,,,,,,,,,,,,,,,,,,,,,,,,,,,,,,,,,,,,,,,,,,,,,,,,,,,,
294382,2022-11-16_22h54.00.353,vts_reward_expectancy_bt,2022.2.4,MacIntel,58.82352941,Safari,1728,1117,,,l,0.397,1,169,0,2,9,33,2,1,1,0,0,0,0,0,0,1,triangle,star,,,,,,,,,,,,,,,,,,,,,,,,,,,,,,,,,,,,,,,,,,,,,,,,,,,,,,
294382,2022-11-16_22h54.00.353,vts_reward_expectancy_bt,2022.2.4,MacIntel,58.82352941,Safari,1728,1117,,,l,0.474,10,179,0,2,10,34,4,1,0,1,0,0,0,0,1,0,circle,hexagon,,,,,,,,,,,,,,,,,,,,,,,,,,,,,,,,,,,,,,,,,,,,,,,,,,,,,,
294382,2022-11-16_22h54.00.353,vts_reward_expectancy_bt,2022.2.4,MacIntel,58.82352941,Safari,1728,1117,,,l,0.456,10,189,0,2,11,35,5,1,0,1,0,0,0,0,0,1,circle,star,,,,,,,,,,,,,,,,,,,,,,,,,,,,,,,,,,,,,,,,,,,,,,,,,,,,,,
294382,2022-11-16_22h54.00.353,vts_reward_expectancy_bt,2022.2.4,MacIntel,58.82352941,Safari,1728,1117,,,l,0.866,1,190,1,0,0,0,7,1,0,0,1,0,0,1,0,0,hexagon,circle,,,,,,,,,,,,,,,,,,,,,,,,,,,,,,,,,,,,,,,,,,,,,,,,,,,,,,
294382,2022-11-16_22h54.00.353,vts_reward_expectancy_bt,2022.2.4,MacIntel,58.82352941,Safari,1728,1117,,,a,0.489,1,191,1,0,1,1,3,1,0,1,0,0,1,0,0,0,circle,triangle,,,,,,,,,,,,,,,,,,,,,,,,,,,,,,,,,,,,,,,,,,,,,,,,,,,,,,
294382,2022-11-16_22h54.00.353,vts_reward_expectancy_bt,2022.2.4,MacIntel,58.82352941,Safari,1728,1117,,,l,0.574,1,192,1,0,2,2,4,1,0,1,0,0,0,0,1,0,circle,hexagon,,,,,,,,,,,,,,,,,,,,,,,,,,,,,,,,,,,,,,,,,,,,,,,,,,,,,,
294382,2022-11-16_22h54.00.353,vts_reward_expectancy_bt,2022.2.4,MacIntel,58.82352941,Safari,1728,1117,,,l,0.193,10,202,1,0,3,3,8,1,0,0,1,0,0,0,0,1,hexagon,star,,,,,,,,,,,,,,,,,,,,,,,,,,,,,,,,,,,,,,,,,,,,,,,,,,,,,,
294382,2022-11-16_22h54.00.353,vts_reward_expectancy_bt,2022.2.4,MacIntel,58.82352941,Safari,1728,1117,,,l,0.118,1,203,1,0,4,4,0,1,1,0,0,0,0,1,0,0,triangle,circle,,,,,,,,,,,,,,,,,,,,,,,,,,,,,,,,,,,,,,,,,,,,,,,,,,,,,,
294382,2022-11-16_22h54.00.353,vts_reward_expectancy_bt,2022.2.4,MacIntel,58.82352941,Safari,1728,1117,,,a,0.177,10,213,1,0,5,5,11,1,0,0,0,1,0,0,1,0,star,hexagon,,,,,,,,,,,,,,,,,,,,,,,,,,,,,,,,,,,,,,,,,,,,,,,,,,,,,,
294382,2022-11-16_22h54.00.353,vts_reward_expectancy_bt,2022.2.4,MacIntel,58.82352941,Safari,1728,1117,,,l,0.189,1,214,1,0,6,6,10,1,0,0,0,1,0,1,0,0,star ,circle,,,,,,,,,,,,,,,,,,,,,,,,,,,,,,,,,,,,,,,,,,,,,,,,,,,,,,
294382,2022-11-16_22h54.00.353,vts_reward_expectancy_bt,2022.2.4,MacIntel,58.82352941,Safari,1728,1117,,,l,0.292,10,224,1,0,7,7,6,1,0,0,1,0,1,0,0,0,hexagon,triangle,,,,,,,,,,,,,,,,,,,,,,,,,,,,,,,,,,,,,,,,,,,,,,,,,,,,,,
294382,2022-11-16_22h54.00.353,vts_reward_expectancy_bt,2022.2.4,MacIntel,58.82352941,Safari,1728,1117,,,l,0.412,1,225,1,0,8,8,9,1,0,0,0,1,1,0,0,0,star,triangle,,,,,,,,,,,,,,,,,,,,,,,,,,,,,,,,,,,,,,,,,,,,,,,,,,,,,,
294382,2022-11-16_22h54.00.353,vts_reward_expectancy_bt,2022.2.4,MacIntel,58.82352941,Safari,1728,1117,,,a,0.273,10,235,1,0,9,9,1,1,1,0,0,0,0,0,1,0,triangle,hexagon,,,,,,,,,,,,,,,,,,,,,,,,,,,,,,,,,,,,,,,,,,,,,,,,,,,,,,
294382,2022-11-16_22h54.00.353,vts_reward_expectancy_bt,2022.2.4,MacIntel,58.82352941,Safari,1728,1117,,,l,0.303,1,236,1,0,10,10,2,1,1,0,0,0,0,0,0,1,triangle,star,,,,,,,,,,,,,,,,,,,,,,,,,,,,,,,,,,,,,,,,,,,,,,,,,,,,,,
294382,2022-11-16_22h54.00.353,vts_reward_expectancy_bt,2022.2.4,MacIntel,58.82352941,Safari,1728,1117,,,a,0.359,10,246,1,0,11,11,5,1,0,1,0,0,0,0,0,1,circle,star,,,,,,,,,,,,,,,,,,,,,,,,,,,,,,,,,,,,,,,,,,,,,,,,,,,,,,
294382,2022-11-16_22h54.00.353,vts_reward_expectancy_bt,2022.2.4,MacIntel,58.82352941,Safari,1728,1117,,,l,0.384,1,247,1,1,0,12,5,1,0,1,0,0,0,0,0,1,circle,star,,,,,,,,,,,,,,,,,,,,,,,,,,,,,,,,,,,,,,,,,,,,,,,,,,,,,,
294382,2022-11-16_22h54.00.353,vts_reward_expectancy_bt,2022.2.4,MacIntel,58.82352941,Safari,1728,1117,,,a,0.258,1,248,1,1,1,13,8,1,0,0,1,0,0,0,0,1,hexagon,star,,,,,,,,,,,,,,,,,,,,,,,,,,,,,,,,,,,,,,,,,,,,,,,,,,,,,,
294382,2022-11-16_22h54.00.353,vts_reward_expectancy_bt,2022.2.4,MacIntel,58.82352941,Safari,1728,1117,,,l,0.158,10,258,1,1,2,14,11,1,0,0,0,1,0,0,1,0,star,hexagon,,,,,,,,,,,,,,,,,,,,,,,,,,,,,,,,,,,,,,,,,,,,,,,,,,,,,,
294382,2022-11-16_22h54.00.353,vts_reward_expectancy_bt,2022.2.4,MacIntel,58.82352941,Safari,1728,1117,,,l,0.153,1,259,1,1,3,15,1,1,1,0,0,0,0,0,1,0,triangle,hexagon,,,,,,,,,,,,,,,,,,,,,,,,,,,,,,,,,,,,,,,,,,,,,,,,,,,,,,
294382,2022-11-16_22h54.00.353,vts_reward_expectancy_bt,2022.2.4,MacIntel,58.82352941,Safari,1728,1117,,,l,0.14,10,269,1,1,4,16,7,1,0,0,1,0,0,1,0,0,hexagon,circle,,,,,,,,,,,,,,,,,,,,,,,,,,,,,,,,,,,,,,,,,,,,,,,,,,,,,,
294382,2022-11-16_22h54.00.353,vts_reward_expectancy_bt,2022.2.4,MacIntel,58.82352941,Safari,1728,1117,,,l,0.232,1,270,1,1,5,17,0,1,1,0,0,0,0,1,0,0,triangle,circle,,,,,,,,,,,,,,,,,,,,,,,,,,,,,,,,,,,,,,,,,,,,,,,,,,,,,,
294382,2022-11-16_22h54.00.353,vts_reward_expectancy_bt,2022.2.4,MacIntel,58.82352941,Safari,1728,1117,,,l,0.142,10,280,1,1,6,18,6,1,0,0,1,0,1,0,0,0,hexagon,triangle,,,,,,,,,,,,,,,,,,,,,,,,,,,,,,,,,,,,,,,,,,,,,,,,,,,,,,
294382,2022-11-16_22h54.00.353,vts_reward_expectancy_bt,2022.2.4,MacIntel,58.82352941,Safari,1728,1117,,,l,0.019,10,290,1,1,7,19,10,1,0,0,0,1,0,1,0,0,star ,circle,,,,,,,,,,,,,,,,,,,,,,,,,,,,,,,,,,,,,,,,,,,,,,,,,,,,,,
294382,2022-11-16_22h54.00.353,vts_reward_expectancy_bt,2022.2.4,MacIntel,58.82352941,Safari,1728,1117,,,l,0.114,1,291,1,1,8,20,3,1,0,1,0,0,1,0,0,0,circle,triangle,,,,,,,,,,,,,,,,,,,,,,,,,,,,,,,,,,,,,,,,,,,,,,,,,,,,,,
294382,2022-11-16_22h54.00.353,vts_reward_expectancy_bt,2022.2.4,MacIntel,58.82352941,Safari,1728,1117,,,l,0.123,1,292,1,1,9,21,9,1,0,0,0,1,1,0,0,0,star,triangle,,,,,,,,,,,,,,,,,,,,,,,,,,,,,,,,,,,,,,,,,,,,,,,,,,,,,,
294382,2022-11-16_22h54.00.353,vts_reward_expectancy_bt,2022.2.4,MacIntel,58.82352941,Safari,1728,1117,,,l,0.107,1,293,1,1,10,22,2,1,1,0,0,0,0,0,0,1,triangle,star,,,,,,,,,,,,,,,,,,,,,,,,,,,,,,,,,,,,,,,,,,,,,,,,,,,,,,
294382,2022-11-16_22h54.00.353,vts_reward_expectancy_bt,2022.2.4,MacIntel,58.82352941,Safari,1728,1117,,,a,0.071,10,303,1,1,11,23,4,1,0,1,0,0,0,0,1,0,circle,hexagon,,,,,,,,,,,,,,,,,,,,,,,,,,,,,,,,,,,,,,,,,,,,,,,,,,,,,,
294382,2022-11-16_22h54.00.353,vts_reward_expectancy_bt,2022.2.4,MacIntel,58.82352941,Safari,1728,1117,,,a,0.09,1,304,1,2,0,24,0,1,1,0,0,0,0,1,0,0,triangle,circle,,,,,,,,,,,,,,,,,,,,,,,,,,,,,,,,,,,,,,,,,,,,,,,,,,,,,,
294382,2022-11-16_22h54.00.353,vts_reward_expectancy_bt,2022.2.4,MacIntel,58.82352941,Safari,1728,1117,,,l,0.063,10,314,1,2,1,25,9,1,0,0,0,1,1,0,0,0,star,triangle,,,,,,,,,,,,,,,,,,,,,,,,,,,,,,,,,,,,,,,,,,,,,,,,,,,,,,
294382,2022-11-16_22h54.00.353,vts_reward_expectancy_bt,2022.2.4,MacIntel,58.82352941,Safari,1728,1117,,,l,0.447,10,324,1,2,2,26,3,1,0,1,0,0,1,0,0,0,circle,triangle,,,,,,,,,,,,,,,,,,,,,,,,,,,,,,,,,,,,,,,,,,,,,,,,,,,,,,
294382,2022-11-16_22h54.00.353,vts_reward_expectancy_bt,2022.2.4,MacIntel,58.82352941,Safari,1728,1117,,,l,0.223,1,325,1,2,3,27,5,1,0,1,0,0,0,0,0,1,circle,star,,,,,,,,,,,,,,,,,,,,,,,,,,,,,,,,,,,,,,,,,,,,,,,,,,,,,,
294382,2022-11-16_22h54.00.353,vts_reward_expectancy_bt,2022.2.4,MacIntel,58.82352941,Safari,1728,1117,,,l,7.818,10,335,1,2,4,28,2,1,1,0,0,0,0,0,0,1,triangle,star,,,,,,,,,,,,,,,,,,,,,,,,,,,,,,,,,,,,,,,,,,,,,,,,,,,,,,
294382,2022-11-16_22h54.00.353,vts_reward_expectancy_bt,2022.2.4,MacIntel,58.82352941,Safari,1728,1117,,,l,0.374,10,345,1,2,5,29,11,1,0,0,0,1,0,0,1,0,star,hexagon,,,,,,,,,,,,,,,,,,,,,,,,,,,,,,,,,,,,,,,,,,,,,,,,,,,,,,
294382,2022-11-16_22h54.00.353,vts_reward_expectancy_bt,2022.2.4,MacIntel,58.82352941,Safari,1728,1117,,,l,0.093,10,355,1,2,6,30,10,1,0,0,0,1,0,1,0,0,star ,circle,,,,,,,,,,,,,,,,,,,,,,,,,,,,,,,,,,,,,,,,,,,,,,,,,,,,,,
294382,2022-11-16_22h54.00.353,vts_reward_expectancy_bt,2022.2.4,MacIntel,58.82352941,Safari,1728,1117,,,l,0.591,1,356,1,2,7,31,6,1,0,0,1,0,1,0,0,0,hexagon,triangle,,,,,,,,,,,,,,,,,,,,,,,,,,,,,,,,,,,,,,,,,,,,,,,,,,,,,,
294382,2022-11-16_22h54.00.353,vts_reward_expectancy_bt,2022.2.4,MacIntel,58.82352941,Safari,1728,1117,,,l,0.18,1,357,1,2,8,32,7,1,0,0,1,0,0,1,0,0,hexagon,circle,,,,,,,,,,,,,,,,,,,,,,,,,,,,,,,,,,,,,,,,,,,,,,,,,,,,,,
294382,2022-11-16_22h54.00.353,vts_reward_expectancy_bt,2022.2.4,MacIntel,58.82352941,Safari,1728,1117,,,l,0.076,1,358,1,2,9,33,1,1,1,0,0,0,0,0,1,0,triangle,hexagon,,,,,,,,,,,,,,,,,,,,,,,,,,,,,,,,,,,,,,,,,,,,,,,,,,,,,,
294382,2022-11-16_22h54.00.353,vts_reward_expectancy_bt,2022.2.4,MacIntel,58.82352941,Safari,1728,1117,,,l,0.131,10,368,1,2,10,34,4,1,0,1,0,0,0,0,1,0,circle,hexagon,,,,,,,,,,,,,,,,,,,,,,,,,,,,,,,,,,,,,,,,,,,,,,,,,,,,,,
294382,2022-11-16_22h54.00.353,vts_reward_expectancy_bt,2022.2.4,MacIntel,58.82352941,Safari,1728,1117,,,l,0.027,10,378,1,2,11,35,8,1,0,0,1,0,0,0,0,1,hexagon,star,,,,,,,,,,,,,,,,,,,,,,,,,,,,,,,,,,,,,,,,,,,,,,,,,,,,,,
294382,2022-11-16_22h54.00.353,vts_reward_expectancy_bt,2022.2.4,MacIntel,58.82352941,Safari,1728,1117,,,l,0.576,1,379,2,0,0,0,8,1,0,0,1,0,0,0,0,1,hexagon,star,,,,,,,,,,,,,,,,,,,,,,,,,,,,,,,,,,,,,,,,,,,,,,,,,,,,,,
294382,2022-11-16_22h54.00.353,vts_reward_expectancy_bt,2022.2.4,MacIntel,58.82352941,Safari,1728,1117,,,l,0.16,1,380,2,0,1,1,1,1,1,0,0,0,0,0,1,0,triangle,hexagon,,,,,,,,,,,,,,,,,,,,,,,,,,,,,,,,,,,,,,,,,,,,,,,,,,,,,,
294382,2022-11-16_22h54.00.353,vts_reward_expectancy_bt,2022.2.4,MacIntel,58.82352941,Safari,1728,1117,,,l,0.027,1,381,2,0,2,2,11,1,0,0,0,1,0,0,1,0,star,hexagon,,,,,,,,,,,,,,,,,,,,,,,,,,,,,,,,,,,,,,,,,,,,,,,,,,,,,,
294382,2022-11-16_22h54.00.353,vts_reward_expectancy_bt,2022.2.4,MacIntel,58.82352941,Safari,1728,1117,,,l,0.102,10,391,2,0,3,3,2,1,1,0,0,0,0,0,0,1,triangle,star,,,,,,,,,,,,,,,,,,,,,,,,,,,,,,,,,,,,,,,,,,,,,,,,,,,,,,
294382,2022-11-16_22h54.00.353,vts_reward_expectancy_bt,2022.2.4,MacIntel,58.82352941,Safari,1728,1117,,,l,0.104,10,401,2,0,4,4,5,1,0,1,0,0,0,0,0,1,circle,star,,,,,,,,,,,,,,,,,,,,,,,,,,,,,,,,,,,,,,,,,,,,,,,,,,,,,,
294382,2022-11-16_22h54.00.353,vts_reward_expectancy_bt,2022.2.4,MacIntel,58.82352941,Safari,1728,1117,,,l,0.118,10,411,2,0,5,5,4,1,0,1,0,0,0,0,1,0,circle,hexagon,,,,,,,,,,,,,,,,,,,,,,,,,,,,,,,,,,,,,,,,,,,,,,,,,,,,,,
294382,2022-11-16_22h54.00.353,vts_reward_expectancy_bt,2022.2.4,MacIntel,58.82352941,Safari,1728,1117,,,l,0.319,1,412,2,0,6,6,10,1,0,0,0,1,0,1,0,0,star ,circle,,,,,,,,,,,,,,,,,,,,,,,,,,,,,,,,,,,,,,,,,,,,,,,,,,,,,,
294382,2022-11-16_22h54.00.353,vts_reward_expectancy_bt,2022.2.4,MacIntel,58.82352941,Safari,1728,1117,,,l,0.179,1,413,2,0,7,7,7,1,0,0,1,0,0,1,0,0,hexagon,circle,,,,,,,,,,,,,,,,,,,,,,,,,,,,,,,,,,,,,,,,,,,,,,,,,,,,,,
294382,2022-11-16_22h54.00.353,vts_reward_expectancy_bt,2022.2.4,MacIntel,58.82352941,Safari,1728,1117,,,l,5.65,1,414,2,0,8,8,6,1,0,0,1,0,1,0,0,0,hexagon,triangle,,,,,,,,,,,,,,,,,,,,,,,,,,,,,,,,,,,,,,,,,,,,,,,,,,,,,,
294382,2022-11-16_22h54.00.353,vts_reward_expectancy_bt,2022.2.4,MacIntel,58.82352941,Safari,1728,1117,,,l,3.661,1,415,2,0,9,9,3,1,0,1,0,0,1,0,0,0,circle,triangle,,,,,,,,,,,,,,,,,,,,,,,,,,,,,,,,,,,,,,,,,,,,,,,,,,,,,,
294382,2022-11-16_22h54.00.353,vts_reward_expectancy_bt,2022.2.4,MacIntel,58.82352941,Safari,1728,1117,,,l,0.227,1,416,2,0,10,10,0,1,1,0,0,0,0,1,0,0,triangle,circle,,,,,,,,,,,,,,,,,,,,,,,,,,,,,,,,,,,,,,,,,,,,,,,,,,,,,,
294382,2022-11-16_22h54.00.353,vts_reward_expectancy_bt,2022.2.4,MacIntel,58.82352941,Safari,1728,1117,,,l,0.086,10,426,2,0,11,11,9,1,0,0,0,1,1,0,0,0,star,triangle,,,,,,,,,,,,,,,,,,,,,,,,,,,,,,,,,,,,,,,,,,,,,,,,,,,,,,
294382,2022-11-16_22h54.00.353,vts_reward_expectancy_bt,2022.2.4,MacIntel,58.82352941,Safari,1728,1117,,,l,1.094,10,436,2,1,0,12,1,1,1,0,0,0,0,0,1,0,triangle,hexagon,,,,,,,,,,,,,,,,,,,,,,,,,,,,,,,,,,,,,,,,,,,,,,,,,,,,,,
294382,2022-11-16_22h54.00.353,vts_reward_expectancy_bt,2022.2.4,MacIntel,58.82352941,Safari,1728,1117,,,l,1.036,1,437,2,1,1,13,9,1,0,0,0,1,1,0,0,0,star,triangle,,,,,,,,,,,,,,,,,,,,,,,,,,,,,,,,,,,,,,,,,,,,,,,,,,,,,,
294382,2022-11-16_22h54.00.353,vts_reward_expectancy_bt,2022.2.4,MacIntel,58.82352941,Safari,1728,1117,,,l,2.281,10,447,2,1,2,14,10,1,0,0,0,1,0,1,0,0,star ,circle,,,,,,,,,,,,,,,,,,,,,,,,,,,,,,,,,,,,,,,,,,,,,,,,,,,,,,
294382,2022-11-16_22h54.00.353,vts_reward_expectancy_bt,2022.2.4,MacIntel,58.82352941,Safari,1728,1117,,,l,6.387,10,457,2,1,3,15,5,1,0,1,0,0,0,0,0,1,circle,star,,,,,,,,,,,,,,,,,,,,,,,,,,,,,,,,,,,,,,,,,,,,,,,,,,,,,,
294382,2022-11-16_22h54.00.353,vts_reward_expectancy_bt,2022.2.4,MacIntel,58.82352941,Safari,1728,1117,,,l,0.252,1,458,2,1,4,16,2,1,1,0,0,0,0,0,0,1,triangle,star,,,,,,,,,,,,,,,,,,,,,,,,,,,,,,,,,,,,,,,,,,,,,,,,,,,,,,
294382,2022-11-16_22h54.00.353,vts_reward_expectancy_bt,2022.2.4,MacIntel,58.82352941,Safari,1728,1117,,,l,0.149,10,468,2,1,5,17,3,1,0,1,0,0,1,0,0,0,circle,triangle,,,,,,,,,,,,,,,,,,,,,,,,,,,,,,,,,,,,,,,,,,,,,,,,,,,,,,
294382,2022-11-16_22h54.00.353,vts_reward_expectancy_bt,2022.2.4,MacIntel,58.82352941,Safari,1728,1117,,,l,5.751,10,478,2,1,6,18,11,1,0,0,0,1,0,0,1,0,star,hexagon,,,,,,,,,,,,,,,,,,,,,,,,,,,,,,,,,,,,,,,,,,,,,,,,,,,,,,
294382,2022-11-16_22h54.00.353,vts_reward_expectancy_bt,2022.2.4,MacIntel,58.82352941,Safari,1728,1117,,,l,0.103,1,479,2,1,7,19,7,1,0,0,1,0,0,1,0,0,hexagon,circle,,,,,,,,,,,,,,,,,,,,,,,,,,,,,,,,,,,,,,,,,,,,,,,,,,,,,,
294382,2022-11-16_22h54.00.353,vts_reward_expectancy_bt,2022.2.4,MacIntel,58.82352941,Safari,1728,1117,,,l,0.098,1,480,2,1,8,20,0,1,1,0,0,0,0,1,0,0,triangle,circle,,,,,,,,,,,,,,,,,,,,,,,,,,,,,,,,,,,,,,,,,,,,,,,,,,,,,,
294382,2022-11-16_22h54.00.353,vts_reward_expectancy_bt,2022.2.4,MacIntel,58.82352941,Safari,1728,1117,,,l,0.081,10,490,2,1,9,21,6,1,0,0,1,0,1,0,0,0,hexagon,triangle,,,,,,,,,,,,,,,,,,,,,,,,,,,,,,,,,,,,,,,,,,,,,,,,,,,,,,
294382,2022-11-16_22h54.00.353,vts_reward_expectancy_bt,2022.2.4,MacIntel,58.82352941,Safari,1728,1117,,,l,5.932,10,500,2,1,10,22,4,1,0,1,0,0,0,0,1,0,circle,hexagon,,,,,,,,,,,,,,,,,,,,,,,,,,,,,,,,,,,,,,,,,,,,,,,,,,,,,,
294382,2022-11-16_22h54.00.353,vts_reward_expectancy_bt,2022.2.4,MacIntel,58.82352941,Safari,1728,1117,,,l,3.018,1,501,2,1,11,23,8,1,0,0,1,0,0,0,0,1,hexagon,star,,,,,,,,,,,,,,,,,,,,,,,,,,,,,,,,,,,,,,,,,,,,,,,,,,,,,,
294382,2022-11-16_22h54.00.353,vts_reward_expectancy_bt,2022.2.4,MacIntel,58.82352941,Safari,1728,1117,,,l,0.112,1,502,2,2,0,24,7,1,0,0,1,0,0,1,0,0,hexagon,circle,,,,,,,,,,,,,,,,,,,,,,,,,,,,,,,,,,,,,,,,,,,,,,,,,,,,,,
294382,2022-11-16_22h54.00.353,vts_reward_expectancy_bt,2022.2.4,MacIntel,58.82352941,Safari,1728,1117,,,l,4.495,1,503,2,2,1,25,0,1,1,0,0,0,0,1,0,0,triangle,circle,,,,,,,,,,,,,,,,,,,,,,,,,,,,,,,,,,,,,,,,,,,,,,,,,,,,,,
294382,2022-11-16_22h54.00.353,vts_reward_expectancy_bt,2022.2.4,MacIntel,58.82352941,Safari,1728,1117,,,l,1.717,1,504,2,2,2,26,8,1,0,0,1,0,0,0,0,1,hexagon,star,,,,,,,,,,,,,,,,,,,,,,,,,,,,,,,,,,,,,,,,,,,,,,,,,,,,,,
294382,2022-11-16_22h54.00.353,vts_reward_expectancy_bt,2022.2.4,MacIntel,58.82352941,Safari,1728,1117,,,l,0.353,10,514,2,2,3,27,2,1,1,0,0,0,0,0,0,1,triangle,star,,,,,,,,,,,,,,,,,,,,,,,,,,,,,,,,,,,,,,,,,,,,,,,,,,,,,,
294382,2022-11-16_22h54.00.353,vts_reward_expectancy_bt,2022.2.4,MacIntel,58.82352941,Safari,1728,1117,,,l,0.16,1,515,2,2,4,28,3,1,0,1,0,0,1,0,0,0,circle,triangle,,,,,,,,,,,,,,,,,,,,,,,,,,,,,,,,,,,,,,,,,,,,,,,,,,,,,,
294382,2022-11-16_22h54.00.353,vts_reward_expectancy_bt,2022.2.4,MacIntel,58.82352941,Safari,1728,1117,,,l,1.717,1,516,2,2,5,29,4,1,0,1,0,0,0,0,1,0,circle,hexagon,,,,,,,,,,,,,,,,,,,,,,,,,,,,,,,,,,,,,,,,,,,,,,,,,,,,,,
294382,2022-11-16_22h54.00.353,vts_reward_expectancy_bt,2022.2.4,MacIntel,58.82352941,Safari,1728,1117,,,l,0.045,1,517,2,2,6,30,6,1,0,0,1,0,1,0,0,0,hexagon,triangle,,,,,,,,,,,,,,,,,,,,,,,,,,,,,,,,,,,,,,,,,,,,,,,,,,,,,,
294382,2022-11-16_22h54.00.353,vts_reward_expectancy_bt,2022.2.4,MacIntel,58.82352941,Safari,1728,1117,,,l,0.102,10,527,2,2,7,31,5,1,0,1,0,0,0,0,0,1,circle,star,,,,,,,,,,,,,,,,,,,,,,,,,,,,,,,,,,,,,,,,,,,,,,,,,,,,,,
294382,2022-11-16_22h54.00.353,vts_reward_expectancy_bt,2022.2.4,MacIntel,58.82352941,Safari,1728,1117,,,l,6.471,10,537,2,2,8,32,9,1,0,0,0,1,1,0,0,0,star,triangle,,,,,,,,,,,,,,,,,,,,,,,,,,,,,,,,,,,,,,,,,,,,,,,,,,,,,,
294382,2022-11-16_22h54.00.353,vts_reward_expectancy_bt,2022.2.4,MacIntel,58.82352941,Safari,1728,1117,,,l,1.074,10,547,2,2,9,33,10,1,0,0,0,1,0,1,0,0,star ,circle,,,,,,,,,,,,,,,,,,,,,,,,,,,,,,,,,,,,,,,,,,,,,,,,,,,,,,
294382,2022-11-16_22h54.00.353,vts_reward_expectancy_bt,2022.2.4,MacIntel,58.82352941,Safari,1728,1117,,,l,1.206,1,548,2,2,10,34,1,1,1,0,0,0,0,0,1,0,triangle,hexagon,,,,,,,,,,,,,,,,,,,,,,,,,,,,,,,,,,,,,,,,,,,,,,,,,,,,,,
294382,2022-11-16_22h54.00.353,vts_reward_expectancy_bt,2022.2.4,MacIntel,58.82352941,Safari,1728,1117,,,l,0.037,10,558,2,2,11,35,11,1,0,0,0,1,0,0,1,0,star,hexagon,,,,,,,,,,,,,,,,,,,,,,,,,,,,,,,,,,,,,,,,,,,,,,,,,,,,,,
294382,2022-11-16_22h54.00.353,vts_reward_expectancy_bt,2022.2.4,MacIntel,58.82352941,Safari,1728,1117,,,,,,,,,,,,,,,,,,,,,,,125,D,hexagon,2,0,k,2.791,0,0,0,0,0,1,,,,,,,,,,,,,,,,,,,,,,,,,,,,,,,,,,,,,,,,,
294382,2022-11-16_22h54.00.353,vts_reward_expectancy_bt,2022.2.4,MacIntel,58.82352941,Safari,1728,1117,,,,,,,,,,,,,,,,,,,,,,,132,U,triangle,1,0,d,0.89,0,1,0,1,0,1,,,,,,,,,,,,,,,,,,,,,,,,,,,,,,,,,,,,,,,,,
294382,2022-11-16_22h54.00.353,vts_reward_expectancy_bt,2022.2.4,MacIntel,58.82352941,Safari,1728,1117,,,,,,,,,,,,,,,,,,,,,,,167,Y,circle,0,0,d,0.602,0,2,0,2,0,1,,,,,,,,,,,,,,,,,,,,,,,,,,,,,,,,,,,,,,,,,
294382,2022-11-16_22h54.00.353,vts_reward_expectancy_bt,2022.2.4,MacIntel,58.82352941,Safari,1728,1117,,,,,,,,,,,,,,,,,,,,,,,146,F,star,2,1,k,0.83,0,3,0,3,0,1,,,,,,,,,,,,,,,,,,,,,,,,,,,,,,,,,,,,,,,,,
294382,2022-11-16_22h54.00.353,vts_reward_expectancy_bt,2022.2.4,MacIntel,58.82352941,Safari,1728,1117,,,,,,,,,,,,,,,,,,,,,,,181,B,hexagon,0,0,d,0.274,0,4,0,4,0,1,,,,,,,,,,,,,,,,,,,,,,,,,,,,,,,,,,,,,,,,,
294382,2022-11-16_22h54.00.353,vts_reward_expectancy_bt,2022.2.4,MacIntel,58.82352941,Safari,1728,1117,,,,,,,,,,,,,,,,,,,,,,,139,W,triangle,1,1,d,1.354,0,5,0,5,0,1,,,,,,,,,,,,,,,,,,,,,,,,,,,,,,,,,,,,,,,,,
294382,2022-11-16_22h54.00.353,vts_reward_expectancy_bt,2022.2.4,MacIntel,58.82352941,Safari,1728,1117,,,,,,,,,,,,,,,,,,,,,,,160,H,circle,2,0,k,0.447,0,6,0,6,0,1,,,,,,,,,,,,,,,,,,,,,,,,,,,,,,,,,,,,,,,,,
294382,2022-11-16_22h54.00.353,vts_reward_expectancy_bt,2022.2.4,MacIntel,58.82352941,Safari,1728,1117,,,,,,,,,,,,,,,,,,,,,,,174,S,star,2,0,k,0.676,0,7,0,7,0,1,,,,,,,,,,,,,,,,,,,,,,,,,,,,,,,,,,,,,,,,,
294382,2022-11-16_22h54.00.353,vts_reward_expectancy_bt,2022.2.4,MacIntel,58.82352941,Safari,1728,1117,,,,,,,,,,,,,,,,,,,,,,,125,D,circle,1,0,d,0.895,0,8,0,8,0,1,,,,,,,,,,,,,,,,,,,,,,,,,,,,,,,,,,,,,,,,,
294382,2022-11-16_22h54.00.353,vts_reward_expectancy_bt,2022.2.4,MacIntel,58.82352941,Safari,1728,1117,,,,,,,,,,,,,,,,,,,,,,,132,U,star,1,0,d,0.983,0,9,0,9,0,1,,,,,,,,,,,,,,,,,,,,,,,,,,,,,,,,,,,,,,,,,
294382,2022-11-16_22h54.00.353,vts_reward_expectancy_bt,2022.2.4,MacIntel,58.82352941,Safari,1728,1117,,,,,,,,,,,,,,,,,,,,,,,160,S,circle,2,0,k,1.325,1,0,0,0,0,1,,,,,,,,,,,,,,,,,,,,,,,,,,,,,,,,,,,,,,,,,
294382,2022-11-16_22h54.00.353,vts_reward_expectancy_bt,2022.2.4,MacIntel,58.82352941,Safari,1728,1117,,,,,,,,,,,,,,,,,,,,,,,139,W,star,1,0,d,1.004,1,1,0,1,0,1,,,,,,,,,,,,,,,,,,,,,,,,,,,,,,,,,,,,,,,,,
294382,2022-11-16_22h54.00.353,vts_reward_expectancy_bt,2022.2.4,MacIntel,58.82352941,Safari,1728,1117,,,,,,,,,,,,,,,,,,,,,,,125,U,triangle,1,0,d,0.589,1,2,0,2,0,1,,,,,,,,,,,,,,,,,,,,,,,,,,,,,,,,,,,,,,,,,
294382,2022-11-16_22h54.00.353,vts_reward_expectancy_bt,2022.2.4,MacIntel,58.82352941,Safari,1728,1117,,,,,,,,,,,,,,,,,,,,,,,146,B,hexagon,1,0,d,1.131,1,3,0,3,0,1,,,,,,,,,,,,,,,,,,,,,,,,,,,,,,,,,,,,,,,,,
294382,2022-11-16_22h54.00.353,vts_reward_expectancy_bt,2022.2.4,MacIntel,58.82352941,Safari,1728,1117,,,,,,,,,,,,,,,,,,,,,,,174,H,circle,2,0,k,0.7,1,4,0,4,0,1,,,,,,,,,,,,,,,,,,,,,,,,,,,,,,,,,,,,,,,,,
294382,2022-11-16_22h54.00.353,vts_reward_expectancy_bt,2022.2.4,MacIntel,58.82352941,Safari,1728,1117,,,,,,,,,,,,,,,,,,,,,,,181,F,star,2,0,k,0.678,1,5,0,5,0,1,,,,,,,,,,,,,,,,,,,,,,,,,,,,,,,,,,,,,,,,,
294382,2022-11-16_22h54.00.353,vts_reward_expectancy_bt,2022.2.4,MacIntel,58.82352941,Safari,1728,1117,,,,,,,,,,,,,,,,,,,,,,,167,Y,triangle,2,0,k,0.734,1,6,0,6,0,1,,,,,,,,,,,,,,,,,,,,,,,,,,,,,,,,,,,,,,,,,
294382,2022-11-16_22h54.00.353,vts_reward_expectancy_bt,2022.2.4,MacIntel,58.82352941,Safari,1728,1117,,,,,,,,,,,,,,,,,,,,,,,132,D,hexagon,1,0,d,0.974,1,7,0,7,0,1,,,,,,,,,,,,,,,,,,,,,,,,,,,,,,,,,,,,,,,,,
294382,2022-11-16_22h54.00.353,vts_reward_expectancy_bt,2022.2.4,MacIntel,58.82352941,Safari,1728,1117,,,,,,,,,,,,,,,,,,,,,,,160,S,circle,2,0,k,1.047,1,8,0,8,0,1,,,,,,,,,,,,,,,,,,,,,,,,,,,,,,,,,,,,,,,,,
294382,2022-11-16_22h54.00.353,vts_reward_expectancy_bt,2022.2.4,MacIntel,58.82352941,Safari,1728,1117,,,,,,,,,,,,,,,,,,,,,,,139,W,hexagon,1,0,d,0.83,1,9,0,9,0,1,,,,,,,,,,,,,,,,,,,,,,,,,,,,,,,,,,,,,,,,,
294382,2022-11-16_22h54.00.353,vts_reward_expectancy_bt,2022.2.4,MacIntel,58.82352941,Safari,1728,1117,,,,,,,,,,,,,,,,,,,,,,,160,U,circle,2,0,k,2.79,2,0,0,0,0,1,,,,,,,,,,,,,,,,,,,,,,,,,,,,,,,,,,,,,,,,,
294382,2022-11-16_22h54.00.353,vts_reward_expectancy_bt,2022.2.4,MacIntel,58.82352941,Safari,1728,1117,,,,,,,,,,,,,,,,,,,,,,,181,H,star,0,0,d,0.618,2,1,0,1,0,1,,,,,,,,,,,,,,,,,,,,,,,,,,,,,,,,,,,,,,,,,
294382,2022-11-16_22h54.00.353,vts_reward_expectancy_bt,2022.2.4,MacIntel,58.82352941,Safari,1728,1117,,,,,,,,,,,,,,,,,,,,,,,174,D,triangle,2,1,k,1.95,2,2,0,2,0,1,,,,,,,,,,,,,,,,,,,,,,,,,,,,,,,,,,,,,,,,,
294382,2022-11-16_22h54.00.353,vts_reward_expectancy_bt,2022.2.4,MacIntel,58.82352941,Safari,1728,1117,,,,,,,,,,,,,,,,,,,,,,,139,Y,hexagon,1,0,d,0.732,2,3,0,3,0,1,,,,,,,,,,,,,,,,,,,,,,,,,,,,,,,,,,,,,,,,,
294382,2022-11-16_22h54.00.353,vts_reward_expectancy_bt,2022.2.4,MacIntel,58.82352941,Safari,1728,1117,,,,,,,,,,,,,,,,,,,,,,,167,W,circle,2,0,k,0.803,2,4,0,4,0,1,,,,,,,,,,,,,,,,,,,,,,,,,,,,,,,,,,,,,,,,,
294382,2022-11-16_22h54.00.353,vts_reward_expectancy_bt,2022.2.4,MacIntel,58.82352941,Safari,1728,1117,,,,,,,,,,,,,,,,,,,,,,,146,F,star,1,0,d,0.691,2,5,0,5,0,1,,,,,,,,,,,,,,,,,,,,,,,,,,,,,,,,,,,,,,,,,
294382,2022-11-16_22h54.00.353,vts_reward_expectancy_bt,2022.2.4,MacIntel,58.82352941,Safari,1728,1117,,,,,,,,,,,,,,,,,,,,,,,132,B,triangle,1,0,d,0.723,2,6,0,6,0,1,,,,,,,,,,,,,,,,,,,,,,,,,,,,,,,,,,,,,,,,,
294382,2022-11-16_22h54.00.353,vts_reward_expectancy_bt,2022.2.4,MacIntel,58.82352941,Safari,1728,1117,,,,,,,,,,,,,,,,,,,,,,,125,S,hexagon,1,0,d,0.611,2,7,0,7,0,1,,,,,,,,,,,,,,,,,,,,,,,,,,,,,,,,,,,,,,,,,
294382,2022-11-16_22h54.00.353,vts_reward_expectancy_bt,2022.2.4,MacIntel,58.82352941,Safari,1728,1117,,,,,,,,,,,,,,,,,,,,,,,160,U,triangle,2,0,k,0.811,2,8,0,8,0,1,,,,,,,,,,,,,,,,,,,,,,,,,,,,,,,,,,,,,,,,,
294382,2022-11-16_22h54.00.353,vts_reward_expectancy_bt,2022.2.4,MacIntel,58.82352941,Safari,1728,1117,,,,,,,,,,,,,,,,,,,,,,,181,H,star,2,0,k,0.847,2,9,0,9,0,1,,,,,,,,,,,,,,,,,,,,,,,,,,,,,,,,,,,,,,,,,
294382,2022-11-16_22h54.00.353,vts_reward_expectancy_bt,2022.2.4,MacIntel,58.82352941,Safari,1728,1117,,,,,,,,,,,,,,,,,,,,,,,174,Y,triangle,0,0,,,3,,,,,,j,1.322,0,0,0,0,1,,,,,,,,,,,,,,,,,,,,,,,,,,,,,,,,,,
294382,2022-11-16_22h54.00.353,vts_reward_expectancy_bt,2022.2.4,MacIntel,58.82352941,Safari,1728,1117,,,,,,,,,,,,,,,,,,,,,,,181,H,star,0,1,,,3,,,,,,,,1,0,1,0,1,,,,,,,,,,,,,,,,,,,,,,,,,,,,,,,,,,
294382,2022-11-16_22h54.00.353,vts_reward_expectancy_bt,2022.2.4,MacIntel,58.82352941,Safari,1728,1117,,,,,,,,,,,,,,,,,,,,,,,125,U,hexagon,0,1,,,3,,,,,,j,0.45,2,0,2,0,1,,,,,,,,,,,,,,,,,,,,,,,,,,,,,,,,,,
294382,2022-11-16_22h54.00.353,vts_reward_expectancy_bt,2022.2.4,MacIntel,58.82352941,Safari,1728,1117,,,,,,,,,,,,,,,,,,,,,,,146,D,circle,0,1,,,3,,,,,,,,3,0,3,0,1,,,,,,,,,,,,,,,,,,,,,,,,,,,,,,,,,,
294382,2022-11-16_22h54.00.353,vts_reward_expectancy_bt,2022.2.4,MacIntel,58.82352941,Safari,1728,1117,,,,,,,,,,,,,,,,,,,,,,,132,S,triangle,0,1,,,3,,,,,,j,1.505,4,0,4,0,1,,,,,,,,,,,,,,,,,,,,,,,,,,,,,,,,,,
294382,2022-11-16_22h54.00.353,vts_reward_expectancy_bt,2022.2.4,MacIntel,58.82352941,Safari,1728,1117,,,,,,,,,,,,,,,,,,,,,,,167,W,star,0,1,,,3,,,,,,j,0.302,5,0,5,0,1,,,,,,,,,,,,,,,,,,,,,,,,,,,,,,,,,,
294382,2022-11-16_22h54.00.353,vts_reward_expectancy_bt,2022.2.4,MacIntel,58.82352941,Safari,1728,1117,,,,,,,,,,,,,,,,,,,,,,,160,B,hexagon,1,1,,,3,,,,,,j,1.137,6,0,6,0,1,,,,,,,,,,,,,,,,,,,,,,,,,,,,,,,,,,
294382,2022-11-16_22h54.00.353,vts_reward_expectancy_bt,2022.2.4,MacIntel,58.82352941,Safari,1728,1117,,,,,,,,,,,,,,,,,,,,,,,139,F,circle,1,0,,,3,,,,,,j,0.337,7,0,7,0,1,,,,,,,,,,,,,,,,,,,,,,,,,,,,,,,,,,
294382,2022-11-16_22h54.00.353,vts_reward_expectancy_bt,2022.2.4,MacIntel,58.82352941,Safari,1728,1117,,,,,,,,,,,,,,,,,,,,,,,174,Y,hexagon,0,0,,,3,,,,,,j,1.173,8,0,8,0,1,,,,,,,,,,,,,,,,,,,,,,,,,,,,,,,,,,
294382,2022-11-16_22h54.00.353,vts_reward_expectancy_bt,2022.2.4,MacIntel,58.82352941,Safari,1728,1117,,,,,,,,,,,,,,,,,,,,,,,181,H,star,2,1,,,3,,,,,,d,1.897,9,0,9,0,1,,,,,,,,,,,,,,,,,,,,,,,,,,,,,,,,,,
294382,2022-11-16_22h54.00.353,vts_reward_expectancy_bt,2022.2.4,MacIntel,58.82352941,Safari,1728,1117,,,,,,,,,,,,,,,,,,,,,,,160,F,hexagon,0,0,,,4,,,,,,,,0,0,0,0,1,,,,,,,,,,,,,,,,,,,,,,,,,,,,,,,,,,
294382,2022-11-16_22h54.00.353,vts_reward_expectancy_bt,2022.2.4,MacIntel,58.82352941,Safari,1728,1117,,,,,,,,,,,,,,,,,,,,,,,181,S,star,1,1,,,4,,,,,,k,0.709,1,0,1,0,1,,,,,,,,,,,,,,,,,,,,,,,,,,,,,,,,,,
294382,2022-11-16_22h54.00.353,vts_reward_expectancy_bt,2022.2.4,MacIntel,58.82352941,Safari,1728,1117,,,,,,,,,,,,,,,,,,,,,,,174,B,triangle,1,0,,,4,,,,,,j,0.741,2,0,2,0,1,,,,,,,,,,,,,,,,,,,,,,,,,,,,,,,,,,
294382,2022-11-16_22h54.00.353,vts_reward_expectancy_bt,2022.2.4,MacIntel,58.82352941,Safari,1728,1117,,,,,,,,,,,,,,,,,,,,,,,139,D,circle,1,0,,,4,,,,,,j,0.6,3,0,3,0,1,,,,,,,,,,,,,,,,,,,,,,,,,,,,,,,,,,
294382,2022-11-16_22h54.00.353,vts_reward_expectancy_bt,2022.2.4,MacIntel,58.82352941,Safari,1728,1117,,,,,,,,,,,,,,,,,,,,,,,167,U,hexagon,1,0,,,4,,,,,,k,0.839,4,0,4,0,1,,,,,,,,,,,,,,,,,,,,,,,,,,,,,,,,,,
294382,2022-11-16_22h54.00.353,vts_reward_expectancy_bt,2022.2.4,MacIntel,58.82352941,Safari,1728,1117,,,,,,,,,,,,,,,,,,,,,,,125,Y,star,1,0,,,4,,,,,,k,0.66,5,0,5,0,1,,,,,,,,,,,,,,,,,,,,,,,,,,,,,,,,,,
294382,2022-11-16_22h54.00.353,vts_reward_expectancy_bt,2022.2.4,MacIntel,58.82352941,Safari,1728,1117,,,,,,,,,,,,,,,,,,,,,,,132,H,triangle,1,0,,,4,,,,,,j,0.821,6,0,6,0,1,,,,,,,,,,,,,,,,,,,,,,,,,,,,,,,,,,
294382,2022-11-16_22h54.00.353,vts_reward_expectancy_bt,2022.2.4,MacIntel,58.82352941,Safari,1728,1117,,,,,,,,,,,,,,,,,,,,,,,146,W,circle,1,0,,,4,,,,,,k,1.027,7,0,7,0,1,,,,,,,,,,,,,,,,,,,,,,,,,,,,,,,,,,
294382,2022-11-16_22h54.00.353,vts_reward_expectancy_bt,2022.2.4,MacIntel,58.82352941,Safari,1728,1117,,,,,,,,,,,,,,,,,,,,,,,160,F,star,0,0,,,4,,,,,,k,0.608,8,0,8,0,1,,,,,,,,,,,,,,,,,,,,,,,,,,,,,,,,,,
294382,2022-11-16_22h54.00.353,vts_reward_expectancy_bt,2022.2.4,MacIntel,58.82352941,Safari,1728,1117,,,,,,,,,,,,,,,,,,,,,,,181,S,circle,1,1,,,4,,,,,,k,0.894,9,0,9,0,1,,,,,,,,,,,,,,,,,,,,,,,,,,,,,,,,,,
294382,2022-11-16_22h54.00.353,vts_reward_expectancy_bt,2022.2.4,MacIntel,58.82352941,Safari,1728,1117,,,,,,,,,,,,,,,,,,,,,,,139,D,circle,1,0,,,5,,,,,,j,1.203,0,0,0,0,1,,,,,,,,,,,,,,,,,,,,,,,,,,,,,,,,,,
294382,2022-11-16_22h54.00.353,vts_reward_expectancy_bt,2022.2.4,MacIntel,58.82352941,Safari,1728,1117,,,,,,,,,,,,,,,,,,,,,,,146,Y,star,1,0,,,5,,,,,,k,0.848,1,0,1,0,1,,,,,,,,,,,,,,,,,,,,,,,,,,,,,,,,,,
294382,2022-11-16_22h54.00.353,vts_reward_expectancy_bt,2022.2.4,MacIntel,58.82352941,Safari,1728,1117,,,,,,,,,,,,,,,,,,,,,,,167,H,hexagon,1,0,,,5,,,,,,j,0.968,2,0,2,0,1,,,,,,,,,,,,,,,,,,,,,,,,,,,,,,,,,,
294382,2022-11-16_22h54.00.353,vts_reward_expectancy_bt,2022.2.4,MacIntel,58.82352941,Safari,1728,1117,,,,,,,,,,,,,,,,,,,,,,,174,S,triangle,1,0,,,5,,,,,,k,0.651,3,0,3,0,1,,,,,,,,,,,,,,,,,,,,,,,,,,,,,,,,,,
294382,2022-11-16_22h54.00.353,vts_reward_expectancy_bt,2022.2.4,MacIntel,58.82352941,Safari,1728,1117,,,,,,,,,,,,,,,,,,,,,,,125,W,circle,1,0,,,5,,,,,,k,0.843,4,0,4,0,1,,,,,,,,,,,,,,,,,,,,,,,,,,,,,,,,,,
294382,2022-11-16_22h54.00.353,vts_reward_expectancy_bt,2022.2.4,MacIntel,58.82352941,Safari,1728,1117,,,,,,,,,,,,,,,,,,,,,,,181,F,star,1,0,,,5,,,,,,j,1.556,5,0,5,0,1,,,,,,,,,,,,,,,,,,,,,,,,,,,,,,,,,,
294382,2022-11-16_22h54.00.353,vts_reward_expectancy_bt,2022.2.4,MacIntel,58.82352941,Safari,1728,1117,,,,,,,,,,,,,,,,,,,,,,,160,U,hexagon,1,0,,,5,,,,,,k,0.891,6,0,6,0,1,,,,,,,,,,,,,,,,,,,,,,,,,,,,,,,,,,
294382,2022-11-16_22h54.00.353,vts_reward_expectancy_bt,2022.2.4,MacIntel,58.82352941,Safari,1728,1117,,,,,,,,,,,,,,,,,,,,,,,132,B,triangle,1,0,,,5,,,,,,j,0.591,7,0,7,0,1,,,,,,,,,,,,,,,,,,,,,,,,,,,,,,,,,,
294382,2022-11-16_22h54.00.353,vts_reward_expectancy_bt,2022.2.4,MacIntel,58.82352941,Safari,1728,1117,,,,,,,,,,,,,,,,,,,,,,,139,D,triangle,1,0,,,5,,,,,,j,1.225,8,0,8,0,1,,,,,,,,,,,,,,,,,,,,,,,,,,,,,,,,,,
294382,2022-11-16_22h54.00.353,vts_reward_expectancy_bt,2022.2.4,MacIntel,58.82352941,Safari,1728,1117,,,,,,,,,,,,,,,,,,,,,,,146,Y,star,1,0,,,5,,,,,,k,0.644,9,0,9,0,1,,,,,,,,,,,,,,,,,,,,,,,,,,,,,,,,,,
294382,2022-11-16_22h54.00.353,vts_reward_expectancy_bt,2022.2.4,MacIntel,58.82352941,Safari,1728,1117,,,,,0,558,,,,,,,,,,,,,,,,,181,S,hexagon,-1,0,,,6,,,,,,,,,,,,,-1,no_choice,NA,,vtsPrac,0,0,0,0,1,,,,,,,,,,,,,,,,,,,,,,,,
294382,2022-11-16_22h54.00.353,vts_reward_expectancy_bt,2022.2.4,MacIntel,58.82352941,Safari,1728,1117,,,,,0,558,,,,,,,,,,,,,,,,,125,U,triangle,1,0,,,6,,,,,,,,,,,,,switch,number,numSwt,d,vtsPrac,1,0,1,0,1,0.527,,,,,,,,,,,,,,,,,,,,,,,
294382,2022-11-16_22h54.00.353,vts_reward_expectancy_bt,2022.2.4,MacIntel,58.82352941,Safari,1728,1117,,,,,0,558,,,,,,,,,,,,,,,,,174,Y,hexagon,1,0,,,6,,,,,,,,,,,,,repeat,number,numRpt,f,vtsPrac,2,0,2,0,1,0.825,,,,,,,,,,,,,,,,,,,,,,,
294382,2022-11-16_22h54.00.353,vts_reward_expectancy_bt,2022.2.4,MacIntel,58.82352941,Safari,1728,1117,,,,,0,558,,,,,,,,,,,,,,,,,160,H,triangle,1,0,,,6,,,,,,,,,,,,,repeat,number,numRpt,f,vtsPrac,3,0,3,0,1,1.093,,,,,,,,,,,,,,,,,,,,,,,
294382,2022-11-16_22h54.00.353,vts_reward_expectancy_bt,2022.2.4,MacIntel,58.82352941,Safari,1728,1117,,,,,0,558,,,,,,,,,,,,,,,,,181,S,circle,1,0,,,6,,,,,,,,,,,,,switch,letter,lettSwt,k,vtsPrac,4,0,4,0,1,0.796,,,,,,,,,,,,,,,,,,,,,,,
294382,2022-11-16_22h54.00.353,vts_reward_expectancy_bt,2022.2.4,MacIntel,58.82352941,Safari,1728,1117,,,,,0,558,,,,,,,,,,,,,,,,,125,U,triangle,1,0,,,6,,,,,,,,,,,,,repeat,letter,lettRpt,k,vtsPrac,5,0,5,0,1,0.665,,,,,,,,,,,,,,,,,,,,,,,
294382,2022-11-16_22h54.00.353,vts_reward_expectancy_bt,2022.2.4,MacIntel,58.82352941,Safari,1728,1117,,,,,0,558,,,,,,,,,,,,,,,,,174,Y,triangle,1,0,,,6,,,,,,,,,,,,,switch,number,numSwt,f,vtsPrac,6,0,6,0,1,0.721,,,,,,,,,,,,,,,,,,,,,,,
294382,2022-11-16_22h54.00.353,vts_reward_expectancy_bt,2022.2.4,MacIntel,58.82352941,Safari,1728,1117,,,,,0,558,,,,,,,,,,,,,,,,,160,H,hexagon,1,0,,,6,,,,,,,,,,,,,repeat,number,numRpt,f,vtsPrac,7,0,7,0,1,0.814,,,,,,,,,,,,,,,,,,,,,,,
294382,2022-11-16_22h54.00.353,vts_reward_expectancy_bt,2022.2.4,MacIntel,58.82352941,Safari,1728,1117,,,,,0,558,,,,,,,,,,,,,,,,,174,D,star,1,0,,,6,,,,,,,,,,,,,repeat,number,numRpt,f,vtsPrac,8,0,8,0,1,1.083,,,,,,,,,,,,,,,,,,,,,,,
294382,2022-11-16_22h54.00.353,vts_reward_expectancy_bt,2022.2.4,MacIntel,58.82352941,Safari,1728,1117,,,,,0,558,,,,,,,,,,,,,,,,,181,U,hexagon,1,0,,,6,,,,,,,,,,,,,repeat,number,numRpt,f,vtsPrac,9,0,9,0,1,0.549,,,,,,,,,,,,,,,,,,,,,,,
294382,2022-11-16_22h54.00.353,vts_reward_expectancy_bt,2022.2.4,MacIntel,58.82352941,Safari,1728,1117,,,,,0,558,,,,,,,,,,,,,,,,,132,W,circle,1,0,,,6,,,,,,,,,,,,,repeat,number,numRpt,d,vtsPrac,10,0,10,0,1,1.149,,,,,,,,,,,,,,,,,,,,,,,
294382,2022-11-16_22h54.00.353,vts_reward_expectancy_bt,2022.2.4,MacIntel,58.82352941,Safari,1728,1117,,,,,0,558,,,,,,,,,,,,,,,,,125,S,star,1,0,,,6,,,,,,,,,,,,,switch,letter,lettSwt,k,vtsPrac,11,0,11,0,1,1.113,,,,,,,,,,,,,,,,,,,,,,,
294382,2022-11-16_22h54.00.353,vts_reward_expectancy_bt,2022.2.4,MacIntel,58.82352941,Safari,1728,1117,,,,,0,558,,,,,,,,,,,,,,,,,125,U,hexagon,1,0,,,6,,,,,,,,,,,,,switch,number,numSwt,d,vtsPrac,12,0,12,0,1,0.996,,,,,,,,,,,,,,,,,,,,,,,
294382,2022-11-16_22h54.00.353,vts_reward_expectancy_bt,2022.2.4,MacIntel,58.82352941,Safari,1728,1117,,,,,0,558,,,,,,,,,,,,,,,,,181,Y,star,1,0,,,6,,,,,,,,,,,,,repeat,number,numRpt,f,vtsPrac,13,0,13,0,1,0.808,,,,,,,,,,,,,,,,,,,,,,,
294382,2022-11-16_22h54.00.353,vts_reward_expectancy_bt,2022.2.4,MacIntel,58.82352941,Safari,1728,1117,,,,,0,558,,,,,,,,,,,,,,,,,174,S,hexagon,1,0,,,6,,,,,,,,,,,,,repeat,number,numRpt,f,vtsPrac,14,0,14,0,1,1.193,,,,,,,,,,,,,,,,,,,,,,,
294382,2022-11-16_22h54.00.353,vts_reward_expectancy_bt,2022.2.4,MacIntel,58.82352941,Safari,1728,1117,,,,,0,558,,,,,,,,,,,,,,,,,132,W,star,1,0,,,6,,,,,,,,,,,,,repeat,number,numRpt,d,vtsPrac,15,0,15,0,1,0.789,,,,,,,,,,,,,,,,,,,,,,,
294382,2022-11-16_22h54.00.353,vts_reward_expectancy_bt,2022.2.4,MacIntel,58.82352941,Safari,1728,1117,,,,,0,558,,,,,,,,,,,,,,,,,174,F,star,1,0,,,6,,,,,,,,,,,,,repeat,number,numRpt,f,vtsPrac,16,0,16,0,1,0.665,,,,,,,,,,,,,,,,,,,,,,,
294382,2022-11-16_22h54.00.353,vts_reward_expectancy_bt,2022.2.4,MacIntel,58.82352941,Safari,1728,1117,,,,,0,558,,,,,,,,,,,,,,,,,181,U,circle,1,0,,,6,,,,,,,,,,,,,repeat,number,numRpt,f,vtsPrac,17,0,17,0,1,1.229,,,,,,,,,,,,,,,,,,,,,,,
294382,2022-11-16_22h54.00.353,vts_reward_expectancy_bt,2022.2.4,MacIntel,58.82352941,Safari,1728,1117,,,,,0,558,,,,,,,,,,,,,,,,,146,W,triangle,1,0,,,6,,,,,,,,,,,,,switch,letter,lettSwt,k,vtsPrac,18,0,18,0,1,1.405,,,,,,,,,,,,,,,,,,,,,,,
294382,2022-11-16_22h54.00.353,vts_reward_expectancy_bt,2022.2.4,MacIntel,58.82352941,Safari,1728,1117,,,,,0,558,,,,,,,,,,,,,,,,,160,Y,circle,1,0,,,6,,,,,,,,,,,,,switch,number,numSwt,f,vtsPrac,19,0,19,0,1,0.837,,,,,,,,,,,,,,,,,,,,,,,
294382,2022-11-16_22h54.00.353,vts_reward_expectancy_bt,2022.2.4,MacIntel,58.82352941,Safari,1728,1117,,,,,0,558,,,,,,,,,,,,,,,,,139,D,circle,1,0,,,6,,,,,,,,,,,,,repeat,number,numRpt,d,vtsPrac,20,0,20,0,1,0.894,,,,,,,,,,,,,,,,,,,,,,,
294382,2022-11-16_22h54.00.353,vts_reward_expectancy_bt,2022.2.4,MacIntel,58.82352941,Safari,1728,1117,,,,,0,558,,,,,,,,,,,,,,,,,132,B,triangle,1,0,,,6,,,,,,,,,,,,,repeat,number,numRpt,d,vtsPrac,21,0,21,0,1,1.202,,,,,,,,,,,,,,,,,,,,,,,
294382,2022-11-16_22h54.00.353,vts_reward_expectancy_bt,2022.2.4,MacIntel,58.82352941,Safari,1728,1117,,,,,0,558,,,,,,,,,,,,,,,,,174,W,triangle,1,0,,,6,,,,,,,,,,,,,repeat,number,numRpt,f,vtsPrac,22,0,22,0,1,0.715,,,,,,,,,,,,,,,,,,,,,,,
294382,2022-11-16_22h54.00.353,vts_reward_expectancy_bt,2022.2.4,MacIntel,58.82352941,Safari,1728,1117,,,,,0,558,,,,,,,,,,,,,,,,,146,F,star,1,0,,,6,,,,,,,,,,,,,repeat,number,numRpt,d,vtsPrac,23,0,23,0,1,0.864,,,,,,,,,,,,,,,,,,,,,,,
294382,2022-11-16_22h54.00.353,vts_reward_expectancy_bt,2022.2.4,MacIntel,58.82352941,Safari,1728,1117,,,,,0,558,,,,,,,,,,,,,,,,,181,Y,circle,-1,0,,,6,,,,,,,,,,,,,switch,no_choice,NA,,vtsPrac,24,0,24,0,1,,,,,,,,,,,,,,,,,,,,,,,,
294382,2022-11-16_22h54.00.353,vts_reward_expectancy_bt,2022.2.4,MacIntel,58.82352941,Safari,1728,1117,,,,,0,558,,,,,,,,,,,,,,,,,174,S,hexagon,-1,0,,,6,,,,,,,,,,,,,repeat,no_choice,NA,,vtsPrac,25,0,25,0,1,,,,,,,,,,,,,,,,,,,,,,,,
294382,2022-11-16_22h54.00.353,vts_reward_expectancy_bt,2022.2.4,MacIntel,58.82352941,Safari,1728,1117,,,,,0,558,,,,,,,,,,,,,,,,,146,B,star,1,0,,,6,,,,,,,,,,,,,switch,number,numSwt,d,vtsPrac,26,0,26,0,1,0.734,,,,,,,,,,,,,,,,,,,,,,,
294382,2022-11-16_22h54.00.353,vts_reward_expectancy_bt,2022.2.4,MacIntel,58.82352941,Safari,1728,1117,,,,,0,558,,,,,,,,,,,,,,,,,139,W,triangle,1,0,,,6,,,,,,,,,,,,,repeat,number,numRpt,d,vtsPrac,27,0,27,0,1,0.716,,,,,,,,,,,,,,,,,,,,,,,
294382,2022-11-16_22h54.00.353,vts_reward_expectancy_bt,2022.2.4,MacIntel,58.82352941,Safari,1728,1117,,,,,0,558,,,,,,,,,,,,,,,,,167,D,circle,0,0,,,6,,,,,,,,,,,,,repeat,number,NA,d,vtsPrac,28,0,28,0,1,2.296,,,,,,,,,,,,,,,,,,,,,,,
294382,2022-11-16_22h54.00.353,vts_reward_expectancy_bt,2022.2.4,MacIntel,58.82352941,Safari,1728,1117,,,,,0,558,,,,,,,,,,,,,,,,,125,U,hexagon,1,1,,,6,,,,,,,,,,,,,switch,letter,lettSwt,k,vtsPrac,29,0,29,0,1,0.589,,,,,,,,,,,,,,,,,,,,,,,
294382,2022-11-16_22h54.00.353,vts_reward_expectancy_bt,2022.2.4,MacIntel,58.82352941,Safari,1728,1117,,,,,0,558,,,,,,,,,,,,,,,,,139,S,triangle,1,0,,,6,,,,,,,,,,,,,repeat,letter,lettRpt,k,vtsPrac,30,0,30,0,1,0.69,,,,,,,,,,,,,,,,,,,,,,,
294382,2022-11-16_22h54.00.353,vts_reward_expectancy_bt,2022.2.4,MacIntel,58.82352941,Safari,1728,1117,,,,,0,558,,,,,,,,,,,,,,,,,132,F,hexagon,1,0,,,6,,,,,,,,,,,,,switch,number,numSwt,d,vtsPrac,31,0,31,0,1,1.127,,,,,,,,,,,,,,,,,,,,,,,
294382,2022-11-16_22h54.00.353,vts_reward_expectancy_bt,2022.2.4,MacIntel,58.82352941,Safari,1728,1117,,,,,,,,,,,,,,,,,,,,,,,,,,,,,,,,,,,,,,,,,,,,,,,,,,,,,,,,,,,,,,,,,,,,,,,,,,,,
294382,2022-11-16_22h54.00.353,vts_reward_expectancy_bt,2022.2.4,MacIntel,58.82352941,Safari,1728,1117,,,,,,,,,,,,,,,,,,,,,,,,,,,,,,,,,,,,,,,,,,,,,,,,,,,,,,,,,,,,,,,,,,,,,,,,,,,,
294382,2022-11-16_22h54.00.353,vts_reward_expectancy_bt,2022.2.4,MacIntel,58.82352941,Safari,1728,1117,,,,,0,558,,,,,,,,,,,,,,,,,139,B,star,1,0,,,,,,,,,,,,,,,,repeat,number,numRpt,d,noRew,,,,,,0.885,0,0,0,0,0,1,,,,,,,,,,,,,,,,,
294382,2022-11-16_22h54.00.353,vts_reward_expectancy_bt,2022.2.4,MacIntel,58.82352941,Safari,1728,1117,,,,,0,558,,,,,,,,,,,,,,,,,174,F,circle,0,0,,,,,,,,,,,,,,,,switch,letter,NA,k,noRew,,,,,,0.601,0,1,0,1,0,1,,,,,,,,,,,,,,,,,
294382,2022-11-16_22h54.00.353,vts_reward_expectancy_bt,2022.2.4,MacIntel,58.82352941,Safari,1728,1117,,,,,0,558,,,,,,,,,,,,,,,,,167,W,star,1,1,,,,,,,,,,,,,,,,repeat,letter,lettRpt,k,noRew,,,,,,1.271,0,2,0,2,0,1,,,,,,,,,,,,,,,,,
294382,2022-11-16_22h54.00.353,vts_reward_expectancy_bt,2022.2.4,MacIntel,58.82352941,Safari,1728,1117,,,,,0,558,,,,,,,,,,,,,,,,,181,Y,circle,1,0,,,,,,,,,,,,,,,,repeat,letter,lettRpt,k,noRew,,,,,,0.799,0,3,0,3,0,1,,,,,,,,,,,,,,,,,
294382,2022-11-16_22h54.00.353,vts_reward_expectancy_bt,2022.2.4,MacIntel,58.82352941,Safari,1728,1117,,,,,0,558,,,,,,,,,,,,,,,,,139,B,star,1,0,,,,,,,,,,,,,,,,repeat,letter,lettRpt,j,noRew,,,,,,0.67,0,4,0,4,0,1,,,,,,,,,,,,,,,,,
294382,2022-11-16_22h54.00.353,vts_reward_expectancy_bt,2022.2.4,MacIntel,58.82352941,Safari,1728,1117,,,,,0,558,,,,,,,,,,,,,,,,,174,F,triangle,1,0,,,,,,,,,,,,,,,,repeat,letter,lettRpt,j,noRew,,,,,,0.926,0,5,0,5,0,1,,,,,,,,,,,,,,,,,
294382,2022-11-16_22h54.00.353,vts_reward_expectancy_bt,2022.2.4,MacIntel,58.82352941,Safari,1728,1117,,,,,0,558,,,,,,,,,,,,,,,,,167,W,triangle,1,0,,,,,,,,,,,,,,,,repeat,letter,lettRpt,k,noRew,,,,,,0.841,0,6,0,6,0,1,,,,,,,,,,,,,,,,,
294382,2022-11-16_22h54.00.353,vts_reward_expectancy_bt,2022.2.4,MacIntel,58.82352941,Safari,1728,1117,,,,,0,558,,,,,,,,,,,,,,,,,181,Y,circle,1,0,,,,,,,,,,,,,,,,repeat,letter,lettRpt,k,noRew,,,,,,0.591,0,7,0,7,0,1,,,,,,,,,,,,,,,,,
294382,2022-11-16_22h54.00.353,vts_reward_expectancy_bt,2022.2.4,MacIntel,58.82352941,Safari,1728,1117,,,,,0,558,,,,,,,,,,,,,,,,,139,F,star,0,0,,,,,,,,,,,,,,,,repeat,letter,NA,k,noRew,,,,,,1.743,0,8,0,8,0,1,,,,,,,,,,,,,,,,,
294382,2022-11-16_22h54.00.353,vts_reward_expectancy_bt,2022.2.4,MacIntel,58.82352941,Safari,1728,1117,,,,,0,558,,,,,,,,,,,,,,,,,132,U,circle,1,1,,,,,,,,,,,,,,,,repeat,letter,lettRpt,k,noRew,,,,,,1.811,0,9,0,9,0,1,,,,,,,,,,,,,,,,,
294382,2022-11-16_22h54.00.353,vts_reward_expectancy_bt,2022.2.4,MacIntel,58.82352941,Safari,1728,1117,,,,,0,558,,,,,,,,,,,,,,,,,181,S,star,1,0,,,,,,,,,,,,,,,,repeat,letter,lettRpt,k,noRew,,,,,,2.306,0,10,0,10,0,1,,,,,,,,,,,,,,,,,
294382,2022-11-16_22h54.00.353,vts_reward_expectancy_bt,2022.2.4,MacIntel,58.82352941,Safari,1728,1117,,,,,0,558,,,,,,,,,,,,,,,,,125,W,triangle,1,0,,,,,,,,,,,,,,,,repeat,letter,lettRpt,k,noRew,,,,,,0.591,0,11,0,11,0,1,,,,,,,,,,,,,,,,,
294382,2022-11-16_22h54.00.353,vts_reward_expectancy_bt,2022.2.4,MacIntel,58.82352941,Safari,1728,1117,,,,,0,558,,,,,,,,,,,,,,,,,125,H,star,1,0,,,,,,,,,,,,,,,,repeat,letter,lettRpt,j,noRew,,,,,,1.094,0,12,0,12,0,1,,,,,,,,,,,,,,,,,
294382,2022-11-16_22h54.00.353,vts_reward_expectancy_bt,2022.2.4,MacIntel,58.82352941,Safari,1728,1117,,,,,0,558,,,,,,,,,,,,,,,,,167,S,circle,1,0,,,,,,,,,,,,,,,,repeat,letter,lettRpt,k,noRew,,,,,,0.56,0,13,0,13,0,1,,,,,,,,,,,,,,,,,
294382,2022-11-16_22h54.00.353,vts_reward_expectancy_bt,2022.2.4,MacIntel,58.82352941,Safari,1728,1117,,,,,0,558,,,,,,,,,,,,,,,,,181,U,hexagon,1,0,,,,,,,,,,,,,,,,repeat,letter,lettRpt,k,noRew,,,,,,2.717,0,14,0,14,0,1,,,,,,,,,,,,,,,,,
294382,2022-11-16_22h54.00.353,vts_reward_expectancy_bt,2022.2.4,MacIntel,58.82352941,Safari,1728,1117,,,,,0,558,,,,,,,,,,,,,,,,,132,W,circle,1,0,,,,,,,,,,,,,,,,repeat,letter,lettRpt,k,noRew,,,,,,1.042,0,15,0,15,0,1,,,,,,,,,,,,,,,,,
294382,2022-11-16_22h54.00.353,vts_reward_expectancy_bt,2022.2.4,MacIntel,58.82352941,Safari,1728,1117,,,,,0,558,,,,,,,,,,,,,,,,,174,B,triangle,1,0,,,,,,,,,,,,,,,,repeat,letter,lettRpt,j,noRew,,,,,,1.418,0,16,0,16,0,1,,,,,,,,,,,,,,,,,
294382,2022-11-16_22h54.00.353,vts_reward_expectancy_bt,2022.2.4,MacIntel,58.82352941,Safari,1728,1117,,,,,0,558,,,,,,,,,,,,,,,,,125,F,circle,1,0,,,,,,,,,,,,,,,,repeat,letter,lettRpt,j,noRew,,,,,,0.825,0,17,0,17,0,1,,,,,,,,,,,,,,,,,
294382,2022-11-16_22h54.00.353,vts_reward_expectancy_bt,2022.2.4,MacIntel,58.82352941,Safari,1728,1117,,,,,0,558,,,,,,,,,,,,,,,,,181,U,circle,-1,0,,,,,,,,,,,,,,,,switch,no_choice,NA,,noRew,,,,,,,0,18,0,18,0,1,,,,,,,,,,,,,,,,,
294382,2022-11-16_22h54.00.353,vts_reward_expectancy_bt,2022.2.4,MacIntel,58.82352941,Safari,1728,1117,,,,,0,558,,,,,,,,,,,,,,,,,160,H,hexagon,1,0,,,,,,,,,,,,,,,,switch,letter,lettSwt,j,noRew,,,,,,2.57,0,19,0,19,0,1,,,,,,,,,,,,,,,,,
294382,2022-11-16_22h54.00.353,vts_reward_expectancy_bt,2022.2.4,MacIntel,58.82352941,Safari,1728,1117,,,,,0,558,,,,,,,,,,,,,,,,,139,W,hexagon,1,0,,,,,,,,,,,,,,,,repeat,letter,lettRpt,k,noRew,,,,,,2.899,0,20,0,20,0,1,,,,,,,,,,,,,,,,,
294382,2022-11-16_22h54.00.353,vts_reward_expectancy_bt,2022.2.4,MacIntel,58.82352941,Safari,1728,1117,,,,,0,558,,,,,,,,,,,,,,,,,125,H,circle,1,0,,,,,,,,,,,,,,,,repeat,letter,lettRpt,j,noRew,,,,,,2.389,0,21,0,21,0,1,,,,,,,,,,,,,,,,,
294382,2022-11-16_22h54.00.353,vts_reward_expectancy_bt,2022.2.4,MacIntel,58.82352941,Safari,1728,1117,,,,,0,558,,,,,,,,,,,,,,,,,174,Y,triangle,1,0,,,,,,,,,,,,,,,,repeat,letter,lettRpt,k,noRew,,,,,,0.552,0,22,0,22,0,1,,,,,,,,,,,,,,,,,
294382,2022-11-16_22h54.00.353,vts_reward_expectancy_bt,2022.2.4,MacIntel,58.82352941,Safari,1728,1117,,,,,0,558,,,,,,,,,,,,,,,,,132,D,star,1,0,,,,,,,,,,,,,,,,repeat,letter,lettRpt,j,noRew,,,,,,0.638,0,23,0,23,0,1,,,,,,,,,,,,,,,,,
294382,2022-11-16_22h54.00.353,vts_reward_expectancy_bt,2022.2.4,MacIntel,58.82352941,Safari,1728,1117,,,,,0,558,,,,,,,,,,,,,,,,,160,B,triangle,1,0,,,,,,,,,,,,,,,,repeat,letter,lettRpt,j,noRew,,,,,,0.628,0,24,0,24,0,1,,,,,,,,,,,,,,,,,
294382,2022-11-16_22h54.00.353,vts_reward_expectancy_bt,2022.2.4,MacIntel,58.82352941,Safari,1728,1117,,,,,0,558,,,,,,,,,,,,,,,,,125,D,circle,1,0,,,,,,,,,,,,,,,,repeat,letter,lettRpt,j,noRew,,,,,,1.019,0,25,0,25,0,1,,,,,,,,,,,,,,,,,
294382,2022-11-16_22h54.00.353,vts_reward_expectancy_bt,2022.2.4,MacIntel,58.82352941,Safari,1728,1117,,,,,0,558,,,,,,,,,,,,,,,,,181,H,circle,1,0,,,,,,,,,,,,,,,,repeat,letter,lettRpt,j,noRew,,,,,,2.22,0,26,0,26,0,1,,,,,,,,,,,,,,,,,
294382,2022-11-16_22h54.00.353,vts_reward_expectancy_bt,2022.2.4,MacIntel,58.82352941,Safari,1728,1117,,,,,0,558,,,,,,,,,,,,,,,,,132,Y,hexagon,1,0,,,,,,,,,,,,,,,,repeat,letter,lettRpt,k,noRew,,,,,,1.645,0,27,0,27,0,1,,,,,,,,,,,,,,,,,
294382,2022-11-16_22h54.00.353,vts_reward_expectancy_bt,2022.2.4,MacIntel,58.82352941,Safari,1728,1117,,,,,0,558,,,,,,,,,,,,,,,,,125,B,circle,1,0,,,,,,,,,,,,,,,,repeat,letter,lettRpt,j,noRew,,,,,,0.659,0,28,0,28,0,1,,,,,,,,,,,,,,,,,
294382,2022-11-16_22h54.00.353,vts_reward_expectancy_bt,2022.2.4,MacIntel,58.82352941,Safari,1728,1117,,,,,0,558,,,,,,,,,,,,,,,,,146,F,star,1,0,,,,,,,,,,,,,,,,repeat,letter,lettRpt,j,noRew,,,,,,0.719,0,29,0,29,0,1,,,,,,,,,,,,,,,,,
294382,2022-11-16_22h54.00.353,vts_reward_expectancy_bt,2022.2.4,MacIntel,58.82352941,Safari,1728,1117,,,,,0,558,,,,,,,,,,,,,,,,,167,H,hexagon,1,0,,,,,,,,,,,,,,,,repeat,letter,lettRpt,j,noRew,,,,,,1.281,0,30,0,30,0,1,,,,,,,,,,,,,,,,,
294382,2022-11-16_22h54.00.353,vts_reward_expectancy_bt,2022.2.4,MacIntel,58.82352941,Safari,1728,1117,,,,,0,558,,,,,,,,,,,,,,,,,174,W,circle,1,0,,,,,,,,,,,,,,,,repeat,letter,lettRpt,k,noRew,,,,,,0.677,0,31,0,31,0,1,,,,,,,,,,,,,,,,,
294382,2022-11-16_22h54.00.353,vts_reward_expectancy_bt,2022.2.4,MacIntel,58.82352941,Safari,1728,1117,,,,,0,558,,,,,,,,,,,,,,,,,139,B,star,1,0,,,,,,,,,,,,,,,,repeat,letter,lettRpt,j,noRew,,,,,,0.59,0,32,0,32,0,1,,,,,,,,,,,,,,,,,
294382,2022-11-16_22h54.00.353,vts_reward_expectancy_bt,2022.2.4,MacIntel,58.82352941,Safari,1728,1117,,,,,0,558,,,,,,,,,,,,,,,,,167,S,hexagon,1,0,,,,,,,,,,,,,,,,repeat,letter,lettRpt,k,noRew,,,,,,0.582,0,33,0,33,0,1,,,,,,,,,,,,,,,,,
294382,2022-11-16_22h54.00.353,vts_reward_expectancy_bt,2022.2.4,MacIntel,58.82352941,Safari,1728,1117,,,,,0,558,,,,,,,,,,,,,,,,,125,W,hexagon,1,0,,,,,,,,,,,,,,,,repeat,letter,lettRpt,k,noRew,,,,,,1.065,0,34,0,34,0,1,,,,,,,,,,,,,,,,,
294382,2022-11-16_22h54.00.353,vts_reward_expectancy_bt,2022.2.4,MacIntel,58.82352941,Safari,1728,1117,,,,,0,558,,,,,,,,,,,,,,,,,160,H,star,1,0,,,,,,,,,,,,,,,,repeat,letter,lettRpt,j,noRew,,,,,,0.629,0,35,0,35,0,1,,,,,,,,,,,,,,,,,
294382,2022-11-16_22h54.00.353,vts_reward_expectancy_bt,2022.2.4,MacIntel,58.82352941,Safari,1728,1117,,,,,0,558,,,,,,,,,,,,,,,,,125,U,circle,1,0,,,,,,,,,,,,,,,,repeat,letter,lettRpt,k,noRew,,,,,,0.989,0,36,0,36,0,1,,,,,,,,,,,,,,,,,
294382,2022-11-16_22h54.00.353,vts_reward_expectancy_bt,2022.2.4,MacIntel,58.82352941,Safari,1728,1117,,,,,0,558,,,,,,,,,,,,,,,,,174,F,hexagon,1,0,,,,,,,,,,,,,,,,repeat,letter,lettRpt,j,noRew,,,,,,0.644,0,37,0,37,0,1,,,,,,,,,,,,,,,,,
294382,2022-11-16_22h54.00.353,vts_reward_expectancy_bt,2022.2.4,MacIntel,58.82352941,Safari,1728,1117,,,,,0,558,,,,,,,,,,,,,,,,,146,B,triangle,1,0,,,,,,,,,,,,,,,,switch,number,numSwt,d,noRew,,,,,,0.972,0,38,0,38,0,1,,,,,,,,,,,,,,,,,
294382,2022-11-16_22h54.00.353,vts_reward_expectancy_bt,2022.2.4,MacIntel,58.82352941,Safari,1728,1117,,,,,0,558,,,,,,,,,,,,,,,,,132,W,circle,1,0,,,,,,,,,,,,,,,,repeat,number,numRpt,d,noRew,,,,,,0.499,0,39,0,39,0,1,,,,,,,,,,,,,,,,,
294382,2022-11-16_22h54.00.353,vts_reward_expectancy_bt,2022.2.4,MacIntel,58.82352941,Safari,1728,1117,,,,,0,558,,,,,,,,,,,,,,,,,146,U,star,1,0,,,,,,,,,,,,,,,,repeat,number,numRpt,d,noRew,,,,,,1.149,0,40,0,40,0,1,,,,,,,,,,,,,,,,,
294382,2022-11-16_22h54.00.353,vts_reward_expectancy_bt,2022.2.4,MacIntel,58.82352941,Safari,1728,1117,,,,,0,558,,,,,,,,,,,,,,,,,167,W,triangle,1,0,,,,,,,,,,,,,,,,repeat,number,numRpt,f,noRew,,,,,,0.657,0,41,0,41,0,1,,,,,,,,,,,,,,,,,
294382,2022-11-16_22h54.00.353,vts_reward_expectancy_bt,2022.2.4,MacIntel,58.82352941,Safari,1728,1117,,,,,0,558,,,,,,,,,,,,,,,,,181,Y,hexagon,1,0,,,,,,,,,,,,,,,,switch,letter,lettSwt,k,noRew,,,,,,1.273,0,42,0,42,0,1,,,,,,,,,,,,,,,,,
294382,2022-11-16_22h54.00.353,vts_reward_expectancy_bt,2022.2.4,MacIntel,58.82352941,Safari,1728,1117,,,,,0,558,,,,,,,,,,,,,,,,,125,D,circle,1,0,,,,,,,,,,,,,,,,repeat,letter,lettRpt,j,noRew,,,,,,0.866,0,43,0,43,0,1,,,,,,,,,,,,,,,,,
294382,2022-11-16_22h54.00.353,vts_reward_expectancy_bt,2022.2.4,MacIntel,58.82352941,Safari,1728,1117,,,,,0,558,,,,,,,,,,,,,,,,,132,B,hexagon,1,0,,,,,,,,,,,,,,,,repeat,letter,lettRpt,j,noRew,,,,,,0.56,0,44,0,44,0,1,,,,,,,,,,,,,,,,,
294382,2022-11-16_22h54.00.353,vts_reward_expectancy_bt,2022.2.4,MacIntel,58.82352941,Safari,1728,1117,,,,,0,558,,,,,,,,,,,,,,,,,181,S,star,1,0,,,,,,,,,,,,,,,,repeat,letter,lettRpt,k,noRew,,,,,,0.783,0,45,0,45,0,1,,,,,,,,,,,,,,,,,
294382,2022-11-16_22h54.00.353,vts_reward_expectancy_bt,2022.2.4,MacIntel,58.82352941,Safari,1728,1117,,,,,0,558,,,,,,,,,,,,,,,,,174,F,circle,0,0,,,,,,,,,,,,,,,,repeat,letter,NA,k,noRew,,,,,,0.581,0,46,0,46,0,1,,,,,,,,,,,,,,,,,
294382,2022-11-16_22h54.00.353,vts_reward_expectancy_bt,2022.2.4,MacIntel,58.82352941,Safari,1728,1117,,,,,0,558,,,,,,,,,,,,,,,,,125,W,hexagon,1,1,,,,,,,,,,,,,,,,repeat,letter,lettRpt,k,noRew,,,,,,1.562,0,47,0,47,0,1,,,,,,,,,,,,,,,,,
294382,2022-11-16_22h54.00.353,vts_reward_expectancy_bt,2022.2.4,MacIntel,58.82352941,Safari,1728,1117,,,,,0,558,,,,,,,,,,,,,,,,,146,F,triangle,0,0,,,,,,,,,,,,,,,,repeat,letter,NA,k,noRew,,,,,,0.566,0,48,0,48,0,1,,,,,,,,,,,,,,,,,
294382,2022-11-16_22h54.00.353,vts_reward_expectancy_bt,2022.2.4,MacIntel,58.82352941,Safari,1728,1117,,,,,0,558,,,,,,,,,,,,,,,,,132,D,hexagon,1,1,,,,,,,,,,,,,,,,repeat,letter,lettRpt,j,noRew,,,,,,0.689,0,49,0,49,0,1,,,,,,,,,,,,,,,,,
294382,2022-11-16_22h54.00.353,vts_reward_expectancy_bt,2022.2.4,MacIntel,58.82352941,Safari,1728,1117,,,,,0,558,,,,,,,,,,,,,,,,,174,S,star,1,0,,,,,,,,,,,,,,,,repeat,letter,lettRpt,k,noRew,,,,,,2.674,0,50,0,50,0,1,,,,,,,,,,,,,,,,,
294382,2022-11-16_22h54.00.353,vts_reward_expectancy_bt,2022.2.4,MacIntel,58.82352941,Safari,1728,1117,,,,,0,558,,,,,,,,,,,,,,,,,125,H,circle,1,0,,,,,,,,,,,,,,,,repeat,letter,lettRpt,j,noRew,,,,,,0.817,0,51,0,51,0,1,,,,,,,,,,,,,,,,,
294382,2022-11-16_22h54.00.353,vts_reward_expectancy_bt,2022.2.4,MacIntel,58.82352941,Safari,1728,1117,,,,,0,558,,,,,,,,,,,,,,,,,160,U,hexagon,1,0,,,,,,,,,,,,,,,,repeat,letter,lettRpt,k,noRew,,,,,,0.706,0,52,0,52,0,1,,,,,,,,,,,,,,,,,
294382,2022-11-16_22h54.00.353,vts_reward_expectancy_bt,2022.2.4,MacIntel,58.82352941,Safari,1728,1117,,,,,0,558,,,,,,,,,,,,,,,,,125,F,triangle,0,0,,,,,,,,,,,,,,,,repeat,letter,NA,k,noRew,,,,,,0.672,0,53,0,53,0,1,,,,,,,,,,,,,,,,,
294382,2022-11-16_22h54.00.353,vts_reward_expectancy_bt,2022.2.4,MacIntel,58.82352941,Safari,1728,1117,,,,,0,558,,,,,,,,,,,,,,,,,181,H,hexagon,1,1,,,,,,,,,,,,,,,,repeat,letter,lettRpt,j,noRew,,,,,,0.69,0,54,0,54,0,1,,,,,,,,,,,,,,,,,
294382,2022-11-16_22h54.00.353,vts_reward_expectancy_bt,2022.2.4,MacIntel,58.82352941,Safari,1728,1117,,,,,0,558,,,,,,,,,,,,,,,,,167,W,circle,-1,0,,,,,,,,,,,,,,,,switch,no_choice,NA,,noRew,,,,,,,0,55,0,55,0,1,,,,,,,,,,,,,,,,,
294382,2022-11-16_22h54.00.353,vts_reward_expectancy_bt,2022.2.4,MacIntel,58.82352941,Safari,1728,1117,,,,,0,558,,,,,,,,,,,,,,,,,132,D,star,-1,0,,,,,,,,,,,,,,,,repeat,no_choice,NA,,noRew,,,,,,,0,56,0,56,0,1,,,,,,,,,,,,,,,,,
294382,2022-11-16_22h54.00.353,vts_reward_expectancy_bt,2022.2.4,MacIntel,58.82352941,Safari,1728,1117,,,,,0,558,,,,,,,,,,,,,,,,,167,Y,circle,-1,0,,,,,,,,,,,,,,,,repeat,no_choice,NA,,noRew,,,,,,,0,57,0,57,0,1,,,,,,,,,,,,,,,,,
294382,2022-11-16_22h54.00.353,vts_reward_expectancy_bt,2022.2.4,MacIntel,58.82352941,Safari,1728,1117,,,,,0,558,,,,,,,,,,,,,,,,,139,U,triangle,-1,0,,,,,,,,,,,,,,,,repeat,no_choice,NA,,noRew,,,,,,,0,58,0,58,0,1,,,,,,,,,,,,,,,,,
294382,2022-11-16_22h54.00.353,vts_reward_expectancy_bt,2022.2.4,MacIntel,58.82352941,Safari,1728,1117,,,,,0,558,,,,,,,,,,,,,,,,,160,F,star,1,0,,,,,,,,,,,,,,,,switch,letter,lettSwt,j,noRew,,,,,,1.406,0,59,0,59,0,1,,,,,,,,,,,,,,,,,
294382,2022-11-16_22h54.00.353,vts_reward_expectancy_bt,2022.2.4,MacIntel,58.82352941,Safari,1728,1117,,,,,0,558,,,,,,,,,,,,,,,,,132,B,triangle,1,0,,,,,,,,,,,,,,,,repeat,letter,lettRpt,j,noRew,,,,,,1.828,0,60,0,60,0,1,,,,,,,,,,,,,,,,,
294382,2022-11-16_22h54.00.353,vts_reward_expectancy_bt,2022.2.4,MacIntel,58.82352941,Safari,1728,1117,,,,,0,558,,,,,,,,,,,,,,,,,139,W,star,1,0,,,,,,,,,,,,,,,,repeat,letter,lettRpt,k,noRew,,,,,,1.674,0,61,0,61,0,1,,,,,,,,,,,,,,,,,
294382,2022-11-16_22h54.00.353,vts_reward_expectancy_bt,2022.2.4,MacIntel,58.82352941,Safari,1728,1117,,,,,0,558,,,,,,,,,,,,,,,,,146,U,circle,0,0,,,,,,,,,,,,,,,,repeat,letter,NA,j,noRew,,,,,,1.532,0,62,0,62,0,1,,,,,,,,,,,,,,,,,
294382,2022-11-16_22h54.00.353,vts_reward_expectancy_bt,2022.2.4,MacIntel,58.82352941,Safari,1728,1117,,,,,0,558,,,,,,,,,,,,,,,,,167,F,hexagon,1,1,,,,,,,,,,,,,,,,repeat,letter,lettRpt,j,noRew,,,,,,2.096,0,63,0,63,0,1,,,,,,,,,,,,,,,,,
294382,2022-11-16_22h54.00.353,vts_reward_expectancy_bt,2022.2.4,MacIntel,58.82352941,Safari,1728,1117,,,,,,,,,,,,,,,,,,,,,,,,,,,,,,,,,,,,,,,,,,,,,,,,,,,,,,,,,,,,,,,,,,,,,,,,,,,,
294382,2022-11-16_22h54.00.353,vts_reward_expectancy_bt,2022.2.4,MacIntel,58.82352941,Safari,1728,1117,,,,,0,558,,,,,,,,,,,,,,,,,139,H,star,-1,0,,,,,,,,,,,,,,,,switch,no_choice,NA,,noRew,,,,,,,0,,,,,,space,9.257,low,0,0,0,0,1,,,,,,,,,
294382,2022-11-16_22h54.00.353,vts_reward_expectancy_bt,2022.2.4,MacIntel,58.82352941,Safari,1728,1117,,,,,0,558,,,,,,,,,,,,,,,,,160,W,triangle,0,0,,,,,,,,,,,,,,,,switch,number,NA,d,noRew,,,,,,0.621,0,,,,,,,,low,1,0,1,0,1,,,,,,,,,
294382,2022-11-16_22h54.00.353,vts_reward_expectancy_bt,2022.2.4,MacIntel,58.82352941,Safari,1728,1117,,,,,10,568,,,,,,,,,,,,,,,,,174,D,hexagon,1,1,,,,,,,,,,,,,,,,switch,letter,lettSwt,j,Hi,,,,,,0.627,0,,,,,,,,low,2,0,2,0,1,,,,,,,,,
294382,2022-11-16_22h54.00.353,vts_reward_expectancy_bt,2022.2.4,MacIntel,58.82352941,Safari,1728,1117,,,,,1,569,,,,,,,,,,,,,,,,,132,Y,circle,1,0,,,,,,,,,,,,,,,,repeat,letter,lettRpt,k,Lo,,,,,,0.601,0,,,,,,,,low,3,0,3,0,1,,,,,,,,,
294382,2022-11-16_22h54.00.353,vts_reward_expectancy_bt,2022.2.4,MacIntel,58.82352941,Safari,1728,1117,,,,,10,579,,,,,,,,,,,,,,,,,146,S,star,1,0,,,,,,,,,,,,,,,,repeat,letter,lettRpt,k,Hi,,,,,,0.559,0,,,,,,,,low,4,0,4,0,1,,,,,,,,,
294382,2022-11-16_22h54.00.353,vts_reward_expectancy_bt,2022.2.4,MacIntel,58.82352941,Safari,1728,1117,,,,,10,589,,,,,,,,,,,,,,,,,181,F,triangle,1,0,,,,,,,,,,,,,,,,repeat,letter,lettRpt,j,Lo,,,,,,0.793,0,,,,,,,,low,5,0,5,0,1,,,,,,,,,
294382,2022-11-16_22h54.00.353,vts_reward_expectancy_bt,2022.2.4,MacIntel,58.82352941,Safari,1728,1117,,,,,0,589,,,,,,,,,,,,,,,,,125,U,hexagon,1,0,,,,,,,,,,,,,,,,repeat,letter,lettRpt,k,Hi,,,,,,0.717,0,,,,,,,,low,6,0,6,0,1,,,,,,,,,
294382,2022-11-16_22h54.00.353,vts_reward_expectancy_bt,2022.2.4,MacIntel,58.82352941,Safari,1728,1117,,,,,1,590,,,,,,,,,,,,,,,,,167,B,circle,1,0,,,,,,,,,,,,,,,,repeat,letter,lettRpt,j,Lo,,,,,,0.661,0,,,,,,,,low,7,0,7,0,1,,,,,,,,,
294382,2022-11-16_22h54.00.353,vts_reward_expectancy_bt,2022.2.4,MacIntel,58.82352941,Safari,1728,1117,,,,,1,591,,,,,,,,,,,,,,,,,139,H,triangle,1,0,,,,,,,,,,,,,,,,repeat,letter,lettRpt,j,Lo,,,,,,0.731,0,,,,,,,,low,8,0,8,0,1,,,,,,,,,
294382,2022-11-16_22h54.00.353,vts_reward_expectancy_bt,2022.2.4,MacIntel,58.82352941,Safari,1728,1117,,,,,10,601,,,,,,,,,,,,,,,,,160,W,star,1,0,,,,,,,,,,,,,,,,repeat,letter,lettRpt,k,Hi,,,,,,0.687,0,,,,,,,,low,9,0,9,0,1,,,,,,,,,
294382,2022-11-16_22h54.00.353,vts_reward_expectancy_bt,2022.2.4,MacIntel,58.82352941,Safari,1728,1117,,,,,0,601,,,,,,,,,,,,,,,,,174,D,hexagon,1,0,,,,,,,,,,,,,,,,repeat,letter,lettRpt,j,Hi,,,,,,0.751,0,,,,,,,,low,10,0,10,0,1,,,,,,,,,
294382,2022-11-16_22h54.00.353,vts_reward_expectancy_bt,2022.2.4,MacIntel,58.82352941,Safari,1728,1117,,,,,10,611,,,,,,,,,,,,,,,,,132,Y,circle,1,0,,,,,,,,,,,,,,,,repeat,letter,lettRpt,k,Lo,,,,,,0.57,0,,,,,,,,low,11,0,11,0,1,,,,,,,,,
294382,2022-11-16_22h54.00.353,vts_reward_expectancy_bt,2022.2.4,MacIntel,58.82352941,Safari,1728,1117,,,,,1,612,,,,,,,,,,,,,,,,,146,S,triangle,1,0,,,,,,,,,,,,,,,,repeat,letter,lettRpt,k,Lo,,,,,,0.665,0,,,,,,,,low,12,0,12,0,1,,,,,,,,,
294382,2022-11-16_22h54.00.353,vts_reward_expectancy_bt,2022.2.4,MacIntel,58.82352941,Safari,1728,1117,,,,,10,622,,,,,,,,,,,,,,,,,181,F,star,1,0,,,,,,,,,,,,,,,,repeat,letter,lettRpt,j,Hi,,,,,,0.668,0,,,,,,,,low,13,0,13,0,1,,,,,,,,,
294382,2022-11-16_22h54.00.353,vts_reward_expectancy_bt,2022.2.4,MacIntel,58.82352941,Safari,1728,1117,,,,,1,623,,,,,,,,,,,,,,,,,125,U,circle,1,0,,,,,,,,,,,,,,,,repeat,letter,lettRpt,k,Lo,,,,,,0.444,0,,,,,,,,low,14,0,14,0,1,,,,,,,,,
294382,2022-11-16_22h54.00.353,vts_reward_expectancy_bt,2022.2.4,MacIntel,58.82352941,Safari,1728,1117,,,,,0,623,,,,,,,,,,,,,,,,,167,B,hexagon,0,0,,,,,,,,,,,,,,,,repeat,letter,NA,k,Lo,,,,,,0.407,0,,,,,,,,low,15,0,15,0,1,,,,,,,,,
294382,2022-11-16_22h54.00.353,vts_reward_expectancy_bt,2022.2.4,MacIntel,58.82352941,Safari,1728,1117,,,,,0,623,,,,,,,,,,,,,,,,,167,S,star,0,1,,,,,,,,,,,,,,,,repeat,letter,NA,j,Lo,,,,,,0.573,0,,,,,,,,low,16,0,16,0,1,,,,,,,,,
294382,2022-11-16_22h54.00.353,vts_reward_expectancy_bt,2022.2.4,MacIntel,58.82352941,Safari,1728,1117,,,,,10,633,,,,,,,,,,,,,,,,,160,Y,triangle,1,1,,,,,,,,,,,,,,,,repeat,letter,lettRpt,k,Lo,,,,,,0.621,0,,,,,,,,low,17,0,17,0,1,,,,,,,,,
294382,2022-11-16_22h54.00.353,vts_reward_expectancy_bt,2022.2.4,MacIntel,58.82352941,Safari,1728,1117,,,,,10,643,,,,,,,,,,,,,,,,,181,U,circle,1,0,,,,,,,,,,,,,,,,repeat,letter,lettRpt,k,Lo,,,,,,0.78,0,,,,,,,,low,18,0,18,0,1,,,,,,,,,
294382,2022-11-16_22h54.00.353,vts_reward_expectancy_bt,2022.2.4,MacIntel,58.82352941,Safari,1728,1117,,,,,0,643,,,,,,,,,,,,,,,,,132,B,hexagon,1,0,,,,,,,,,,,,,,,,repeat,letter,lettRpt,j,Hi,,,,,,1.158,0,,,,,,,,low,19,0,19,0,1,,,,,,,,,
294382,2022-11-16_22h54.00.353,vts_reward_expectancy_bt,2022.2.4,MacIntel,58.82352941,Safari,1728,1117,,,,,1,644,,,,,,,,,,,,,,,,,174,F,triangle,1,0,,,,,,,,,,,,,,,,repeat,letter,lettRpt,j,Lo,,,,,,0.858,0,,,,,,,,low,20,0,20,0,1,,,,,,,,,
294382,2022-11-16_22h54.00.353,vts_reward_expectancy_bt,2022.2.4,MacIntel,58.82352941,Safari,1728,1117,,,,,10,654,,,,,,,,,,,,,,,,,139,H,circle,1,0,,,,,,,,,,,,,,,,repeat,letter,lettRpt,j,Lo,,,,,,0.738,0,,,,,,,,low,21,0,21,0,1,,,,,,,,,
294382,2022-11-16_22h54.00.353,vts_reward_expectancy_bt,2022.2.4,MacIntel,58.82352941,Safari,1728,1117,,,,,0,654,,,,,,,,,,,,,,,,,125,W,hexagon,1,0,,,,,,,,,,,,,,,,repeat,letter,lettRpt,k,Hi,,,,,,0.775,0,,,,,,,,low,22,0,22,0,1,,,,,,,,,
294382,2022-11-16_22h54.00.353,vts_reward_expectancy_bt,2022.2.4,MacIntel,58.82352941,Safari,1728,1117,,,,,0,654,,,,,,,,,,,,,,,,,146,D,star,1,0,,,,,,,,,,,,,,,,repeat,letter,lettRpt,j,Hi,,,,,,0.866,0,,,,,,,,low,23,0,23,0,1,,,,,,,,,
294382,2022-11-16_22h54.00.353,vts_reward_expectancy_bt,2022.2.4,MacIntel,58.82352941,Safari,1728,1117,,,,,10,664,,,,,,,,,,,,,,,,,139,W,triangle,1,0,,,,,,,,,,,,,,,,repeat,letter,lettRpt,k,Lo,,,,,,0.641,0,,,,,,,,low,24,0,24,0,1,,,,,,,,,
294382,2022-11-16_22h54.00.353,vts_reward_expectancy_bt,2022.2.4,MacIntel,58.82352941,Safari,1728,1117,,,,,0,664,,,,,,,,,,,,,,,,,125,U,star,1,0,,,,,,,,,,,,,,,,repeat,letter,lettRpt,k,Hi,,,,,,0.782,0,,,,,,,,low,25,0,25,0,1,,,,,,,,,
294382,2022-11-16_22h54.00.353,vts_reward_expectancy_bt,2022.2.4,MacIntel,58.82352941,Safari,1728,1117,,,,,0,664,,,,,,,,,,,,,,,,,160,D,hexagon,1,0,,,,,,,,,,,,,,,,repeat,letter,lettRpt,j,Hi,,,,,,0.849,0,,,,,,,,low,26,0,26,0,1,,,,,,,,,
294382,2022-11-16_22h54.00.353,vts_reward_expectancy_bt,2022.2.4,MacIntel,58.82352941,Safari,1728,1117,,,,,10,674,,,,,,,,,,,,,,,,,181,H,circle,1,0,,,,,,,,,,,,,,,,repeat,letter,lettRpt,j,Lo,,,,,,0.72,0,,,,,,,,low,27,0,27,0,1,,,,,,,,,
294382,2022-11-16_22h54.00.353,vts_reward_expectancy_bt,2022.2.4,MacIntel,58.82352941,Safari,1728,1117,,,,,10,684,,,,,,,,,,,,,,,,,146,B,star,1,0,,,,,,,,,,,,,,,,repeat,letter,lettRpt,j,Hi,,,,,,0.574,0,,,,,,,,low,28,0,28,0,1,,,,,,,,,
294382,2022-11-16_22h54.00.353,vts_reward_expectancy_bt,2022.2.4,MacIntel,58.82352941,Safari,1728,1117,,,,,1,685,,,,,,,,,,,,,,,,,132,S,circle,1,0,,,,,,,,,,,,,,,,repeat,letter,lettRpt,k,Lo,,,,,,0.713,0,,,,,,,,low,29,0,29,0,1,,,,,,,,,
294382,2022-11-16_22h54.00.353,vts_reward_expectancy_bt,2022.2.4,MacIntel,58.82352941,Safari,1728,1117,,,,,0,685,,,,,,,,,,,,,,,,,174,Y,hexagon,1,0,,,,,,,,,,,,,,,,repeat,letter,lettRpt,k,Hi,,,,,,1.212,0,,,,,,,,low,30,0,30,0,1,,,,,,,,,
294382,2022-11-16_22h54.00.353,vts_reward_expectancy_bt,2022.2.4,MacIntel,58.82352941,Safari,1728,1117,,,,,1,686,,,,,,,,,,,,,,,,,167,F,triangle,1,0,,,,,,,,,,,,,,,,repeat,letter,lettRpt,j,Lo,,,,,,2.127,0,,,,,,,,low,31,0,31,0,1,,,,,,,,,
294382,2022-11-16_22h54.00.353,vts_reward_expectancy_bt,2022.2.4,MacIntel,58.82352941,Safari,1728,1117,,,,,0,686,,,,,,,,,,,,,,,,,146,H,star,1,0,,,,,,,,,,,,,,,,repeat,letter,lettRpt,j,Hi,,,,,,0.88,1,,,,,,space,2.827,low,0,0,0,0,1,,,,,,,,,
294382,2022-11-16_22h54.00.353,vts_reward_expectancy_bt,2022.2.4,MacIntel,58.82352941,Safari,1728,1117,,,,,10,696,,,,,,,,,,,,,,,,,167,S,hexagon,1,0,,,,,,,,,,,,,,,,repeat,letter,lettRpt,k,Hi,,,,,,0.469,1,,,,,,,,low,1,0,1,0,1,,,,,,,,,
294382,2022-11-16_22h54.00.353,vts_reward_expectancy_bt,2022.2.4,MacIntel,58.82352941,Safari,1728,1117,,,,,10,706,,,,,,,,,,,,,,,,,181,Y,circle,1,0,,,,,,,,,,,,,,,,repeat,letter,lettRpt,k,Lo,,,,,,0.544,1,,,,,,,,low,2,0,2,0,1,,,,,,,,,
294382,2022-11-16_22h54.00.353,vts_reward_expectancy_bt,2022.2.4,MacIntel,58.82352941,Safari,1728,1117,,,,,0,706,,,,,,,,,,,,,,,,,125,D,triangle,-1,0,,,,,,,,,,,,,,,,switch,no_choice,NA,,Lo,,,,,,,1,,,,,,,,low,3,0,3,0,1,,,,,,,,,
294382,2022-11-16_22h54.00.353,vts_reward_expectancy_bt,2022.2.4,MacIntel,58.82352941,Safari,1728,1117,,,,,0,706,,,,,,,,,,,,,,,,,132,F,star,0,0,,,,,,,,,,,,,,,,switch,letter,NA,k,Lo,,,,,,0.71,1,,,,,,,,low,4,0,4,0,1,,,,,,,,,
294382,2022-11-16_22h54.00.353,vts_reward_expectancy_bt,2022.2.4,MacIntel,58.82352941,Safari,1728,1117,,,,,0,706,,,,,,,,,,,,,,,,,139,U,hexagon,1,1,,,,,,,,,,,,,,,,repeat,letter,lettRpt,k,Hi,,,,,,0.872,1,,,,,,,,low,5,0,5,0,1,,,,,,,,,
294382,2022-11-16_22h54.00.353,vts_reward_expectancy_bt,2022.2.4,MacIntel,58.82352941,Safari,1728,1117,,,,,0,706,,,,,,,,,,,,,,,,,160,W,circle,0,0,,,,,,,,,,,,,,,,repeat,letter,NA,j,Hi,,,,,,1.351,1,,,,,,,,low,6,0,6,0,1,,,,,,,,,
294382,2022-11-16_22h54.00.353,vts_reward_expectancy_bt,2022.2.4,MacIntel,58.82352941,Safari,1728,1117,,,,,1,707,,,,,,,,,,,,,,,,,174,B,triangle,1,1,,,,,,,,,,,,,,,,repeat,letter,lettRpt,j,Lo,,,,,,0.779,1,,,,,,,,low,7,0,7,0,1,,,,,,,,,
294382,2022-11-16_22h54.00.353,vts_reward_expectancy_bt,2022.2.4,MacIntel,58.82352941,Safari,1728,1117,,,,,0,707,,,,,,,,,,,,,,,,,146,H,star,0,0,,,,,,,,,,,,,,,,repeat,letter,NA,k,Lo,,,,,,1.699,1,,,,,,,,low,8,0,8,0,1,,,,,,,,,
294382,2022-11-16_22h54.00.353,vts_reward_expectancy_bt,2022.2.4,MacIntel,58.82352941,Safari,1728,1117,,,,,1,708,,,,,,,,,,,,,,,,,167,S,triangle,1,1,,,,,,,,,,,,,,,,repeat,letter,lettRpt,k,Lo,,,,,,0.931,1,,,,,,,,low,9,0,9,0,1,,,,,,,,,
294382,2022-11-16_22h54.00.353,vts_reward_expectancy_bt,2022.2.4,MacIntel,58.82352941,Safari,1728,1117,,,,,10,718,,,,,,,,,,,,,,,,,181,Y,circle,1,0,,,,,,,,,,,,,,,,repeat,letter,lettRpt,k,Lo,,,,,,1.688,1,,,,,,,,low,10,0,10,0,1,,,,,,,,,
294382,2022-11-16_22h54.00.353,vts_reward_expectancy_bt,2022.2.4,MacIntel,58.82352941,Safari,1728,1117,,,,,0,718,,,,,,,,,,,,,,,,,125,D,hexagon,-1,0,,,,,,,,,,,,,,,,switch,no_choice,NA,,Lo,,,,,,,1,,,,,,,,low,11,0,11,0,1,,,,,,,,,
294382,2022-11-16_22h54.00.353,vts_reward_expectancy_bt,2022.2.4,MacIntel,58.82352941,Safari,1728,1117,,,,,10,728,,,,,,,,,,,,,,,,,132,F,star,1,0,,,,,,,,,,,,,,,,switch,letter,lettSwt,j,Hi,,,,,,0.533,1,,,,,,,,low,12,0,12,0,1,,,,,,,,,
294382,2022-11-16_22h54.00.353,vts_reward_expectancy_bt,2022.2.4,MacIntel,58.82352941,Safari,1728,1117,,,,,0,728,,,,,,,,,,,,,,,,,139,U,hexagon,0,0,,,,,,,,,,,,,,,,repeat,letter,NA,j,Hi,,,,,,0.277,1,,,,,,,,low,13,0,13,0,1,,,,,,,,,
294382,2022-11-16_22h54.00.353,vts_reward_expectancy_bt,2022.2.4,MacIntel,58.82352941,Safari,1728,1117,,,,,1,729,,,,,,,,,,,,,,,,,160,W,triangle,1,1,,,,,,,,,,,,,,,,repeat,letter,lettRpt,k,Lo,,,,,,2.415,1,,,,,,,,low,14,0,14,0,1,,,,,,,,,
294382,2022-11-16_22h54.00.353,vts_reward_expectancy_bt,2022.2.4,MacIntel,58.82352941,Safari,1728,1117,,,,,0,729,,,,,,,,,,,,,,,,,174,B,circle,0,0,,,,,,,,,,,,,,,,repeat,letter,NA,k,Lo,,,,,,0.37,1,,,,,,,,low,15,0,15,0,1,,,,,,,,,
294382,2022-11-16_22h54.00.353,vts_reward_expectancy_bt,2022.2.4,MacIntel,58.82352941,Safari,1728,1117,,,,,10,739,,,,,,,,,,,,,,,,,139,F,star,1,1,,,,,,,,,,,,,,,,repeat,letter,lettRpt,j,Hi,,,,,,0.61,1,,,,,,,,low,16,0,16,0,1,,,,,,,,,
294382,2022-11-16_22h54.00.353,vts_reward_expectancy_bt,2022.2.4,MacIntel,58.82352941,Safari,1728,1117,,,,,1,740,,,,,,,,,,,,,,,,,174,D,triangle,1,0,,,,,,,,,,,,,,,,repeat,letter,lettRpt,j,Lo,,,,,,1.372,1,,,,,,,,low,17,0,17,0,1,,,,,,,,,
294382,2022-11-16_22h54.00.353,vts_reward_expectancy_bt,2022.2.4,MacIntel,58.82352941,Safari,1728,1117,,,,,10,750,,,,,,,,,,,,,,,,,181,U,hexagon,1,0,,,,,,,,,,,,,,,,repeat,letter,lettRpt,k,Hi,,,,,,0.595,1,,,,,,,,low,18,0,18,0,1,,,,,,,,,
294382,2022-11-16_22h54.00.353,vts_reward_expectancy_bt,2022.2.4,MacIntel,58.82352941,Safari,1728,1117,,,,,1,751,,,,,,,,,,,,,,,,,146,Y,circle,1,0,,,,,,,,,,,,,,,,repeat,letter,lettRpt,k,Lo,,,,,,0.591,1,,,,,,,,low,19,0,19,0,1,,,,,,,,,
294382,2022-11-16_22h54.00.353,vts_reward_expectancy_bt,2022.2.4,MacIntel,58.82352941,Safari,1728,1117,,,,,1,752,,,,,,,,,,,,,,,,,132,S,circle,1,0,,,,,,,,,,,,,,,,repeat,letter,lettRpt,k,Lo,,,,,,2.79,1,,,,,,,,low,20,0,20,0,1,,,,,,,,,
294382,2022-11-16_22h54.00.353,vts_reward_expectancy_bt,2022.2.4,MacIntel,58.82352941,Safari,1728,1117,,,,,10,762,,,,,,,,,,,,,,,,,125,W,star,1,0,,,,,,,,,,,,,,,,repeat,letter,lettRpt,k,Hi,,,,,,0.568,1,,,,,,,,low,21,0,21,0,1,,,,,,,,,
294382,2022-11-16_22h54.00.353,vts_reward_expectancy_bt,2022.2.4,MacIntel,58.82352941,Safari,1728,1117,,,,,0,762,,,,,,,,,,,,,,,,,167,H,hexagon,0,0,,,,,,,,,,,,,,,,repeat,letter,NA,k,Hi,,,,,,0.63,1,,,,,,,,low,22,0,22,0,1,,,,,,,,,
294382,2022-11-16_22h54.00.353,vts_reward_expectancy_bt,2022.2.4,MacIntel,58.82352941,Safari,1728,1117,,,,,10,772,,,,,,,,,,,,,,,,,160,B,triangle,1,1,,,,,,,,,,,,,,,,repeat,letter,lettRpt,j,Lo,,,,,,0.893,1,,,,,,,,low,23,0,23,0,1,,,,,,,,,
294382,2022-11-16_22h54.00.353,vts_reward_expectancy_bt,2022.2.4,MacIntel,58.82352941,Safari,1728,1117,,,,,0,772,,,,,,,,,,,,,,,,,160,H,star,1,0,,,,,,,,,,,,,,,,repeat,letter,lettRpt,j,Hi,,,,,,0.751,1,,,,,,,,low,24,0,24,0,1,,,,,,,,,
294382,2022-11-16_22h54.00.353,vts_reward_expectancy_bt,2022.2.4,MacIntel,58.82352941,Safari,1728,1117,,,,,1,773,,,,,,,,,,,,,,,,,139,S,triangle,1,0,,,,,,,,,,,,,,,,repeat,letter,lettRpt,k,Lo,,,,,,1.398,1,,,,,,,,low,25,0,25,0,1,,,,,,,,,
294382,2022-11-16_22h54.00.353,vts_reward_expectancy_bt,2022.2.4,MacIntel,58.82352941,Safari,1728,1117,,,,,1,774,,,,,,,,,,,,,,,,,174,B,circle,1,0,,,,,,,,,,,,,,,,repeat,letter,lettRpt,j,Lo,,,,,,0.81,1,,,,,,,,low,26,0,26,0,1,,,,,,,,,
294382,2022-11-16_22h54.00.353,vts_reward_expectancy_bt,2022.2.4,MacIntel,58.82352941,Safari,1728,1117,,,,,1,775,,,,,,,,,,,,,,,,,146,U,hexagon,1,0,,,,,,,,,,,,,,,,repeat,letter,lettRpt,k,Hi,,,,,,0.656,1,,,,,,,,low,27,0,27,0,1,,,,,,,,,
294382,2022-11-16_22h54.00.353,vts_reward_expectancy_bt,2022.2.4,MacIntel,58.82352941,Safari,1728,1117,,,,,0,775,,,,,,,,,,,,,,,,,125,W,hexagon,-1,0,,,,,,,,,,,,,,,,switch,no_choice,NA,,Hi,,,,,,,1,,,,,,,,low,28,0,28,0,1,,,,,,,,,
294382,2022-11-16_22h54.00.353,vts_reward_expectancy_bt,2022.2.4,MacIntel,58.82352941,Safari,1728,1117,,,,,10,785,,,,,,,,,,,,,,,,,167,Y,triangle,1,0,,,,,,,,,,,,,,,,switch,letter,lettSwt,k,Lo,,,,,,1.258,1,,,,,,,,low,29,0,29,0,1,,,,,,,,,
294382,2022-11-16_22h54.00.353,vts_reward_expectancy_bt,2022.2.4,MacIntel,58.82352941,Safari,1728,1117,,,,,0,785,,,,,,,,,,,,,,,,,181,D,star,0,0,,,,,,,,,,,,,,,,repeat,letter,NA,k,Lo,,,,,,1.002,1,,,,,,,,low,30,0,30,0,1,,,,,,,,,
294382,2022-11-16_22h54.00.353,vts_reward_expectancy_bt,2022.2.4,MacIntel,58.82352941,Safari,1728,1117,,,,,0,785,,,,,,,,,,,,,,,,,132,F,circle,-1,1,,,,,,,,,,,,,,,,switch,no_choice,NA,,Lo,,,,,,,1,,,,,,,,low,31,0,31,0,1,,,,,,,,,
294382,2022-11-16_22h54.00.353,vts_reward_expectancy_bt,2022.2.4,MacIntel,58.82352941,Safari,1728,1117,,,,,10,795,,,,,,,,,,,,,,,,,174,B,circle,1,0,,,,,,,,,,,,,,,,switch,letter,lettSwt,j,Lo,,,,,,2.497,2,,,,,,space,1.463,low,0,0,0,0,1,,,,,,,,,
294382,2022-11-16_22h54.00.353,vts_reward_expectancy_bt,2022.2.4,MacIntel,58.82352941,Safari,1728,1117,,,,,0,795,,,,,,,,,,,,,,,,,146,Y,hexagon,1,0,,,,,,,,,,,,,,,,repeat,letter,lettRpt,k,Hi,,,,,,1.568,2,,,,,,,,low,1,0,1,0,1,,,,,,,,,
294382,2022-11-16_22h54.00.353,vts_reward_expectancy_bt,2022.2.4,MacIntel,58.82352941,Safari,1728,1117,,,,,0,795,,,,,,,,,,,,,,,,,167,U,triangle,-1,0,,,,,,,,,,,,,,,,switch,no_choice,NA,,Hi,,,,,,,2,,,,,,,,low,2,0,2,0,1,,,,,,,,,
294382,2022-11-16_22h54.00.353,vts_reward_expectancy_bt,2022.2.4,MacIntel,58.82352941,Safari,1728,1117,,,,,0,795,,,,,,,,,,,,,,,,,139,F,star,-1,0,,,,,,,,,,,,,,,,repeat,no_choice,NA,,Hi,,,,,,,2,,,,,,,,low,3,0,3,0,1,,,,,,,,,
294382,2022-11-16_22h54.00.353,vts_reward_expectancy_bt,2022.2.4,MacIntel,58.82352941,Safari,1728,1117,,,,,0,795,,,,,,,,,,,,,,,,,160,H,circle,-1,0,,,,,,,,,,,,,,,,repeat,no_choice,NA,,Hi,,,,,,,2,,,,,,,,low,4,0,4,0,1,,,,,,,,,
294382,2022-11-16_22h54.00.353,vts_reward_expectancy_bt,2022.2.4,MacIntel,58.82352941,Safari,1728,1117,,,,,0,795,,,,,,,,,,,,,,,,,125,S,hexagon,-1,0,,,,,,,,,,,,,,,,repeat,no_choice,NA,,Hi,,,,,,,2,,,,,,,,low,5,0,5,0,1,,,,,,,,,
294382,2022-11-16_22h54.00.353,vts_reward_expectancy_bt,2022.2.4,MacIntel,58.82352941,Safari,1728,1117,,,,,0,795,,,,,,,,,,,,,,,,,181,W,triangle,-1,0,,,,,,,,,,,,,,,,repeat,no_choice,NA,,Hi,,,,,,,2,,,,,,,,low,6,0,6,0,1,,,,,,,,,
294382,2022-11-16_22h54.00.353,vts_reward_expectancy_bt,2022.2.4,MacIntel,58.82352941,Safari,1728,1117,,,,,0,795,,,,,,,,,,,,,,,,,132,D,star,-1,0,,,,,,,,,,,,,,,,repeat,no_choice,NA,,Hi,,,,,,,2,,,,,,,,low,7,0,7,0,1,,,,,,,,,
294382,2022-11-16_22h54.00.353,vts_reward_expectancy_bt,2022.2.4,MacIntel,58.82352941,Safari,1728,1117,,,,,0,795,,,,,,,,,,,,,,,,,174,B,hexagon,1,0,,,,,,,,,,,,,,,,switch,letter,lettSwt,j,Hi,,,,,,0.63,2,,,,,,,,low,8,0,8,0,1,,,,,,,,,
294382,2022-11-16_22h54.00.353,vts_reward_expectancy_bt,2022.2.4,MacIntel,58.82352941,Safari,1728,1117,,,,,0,795,,,,,,,,,,,,,,,,,146,Y,star,1,0,,,,,,,,,,,,,,,,repeat,letter,lettRpt,k,Hi,,,,,,0.931,2,,,,,,,,low,9,0,9,0,1,,,,,,,,,
294382,2022-11-16_22h54.00.353,vts_reward_expectancy_bt,2022.2.4,MacIntel,58.82352941,Safari,1728,1117,,,,,10,805,,,,,,,,,,,,,,,,,167,U,triangle,1,0,,,,,,,,,,,,,,,,repeat,letter,lettRpt,k,Lo,,,,,,0.876,2,,,,,,,,low,10,0,10,0,1,,,,,,,,,
294382,2022-11-16_22h54.00.353,vts_reward_expectancy_bt,2022.2.4,MacIntel,58.82352941,Safari,1728,1117,,,,,1,806,,,,,,,,,,,,,,,,,139,F,circle,1,0,,,,,,,,,,,,,,,,repeat,letter,lettRpt,j,Lo,,,,,,0.607,2,,,,,,,,low,11,0,11,0,1,,,,,,,,,
294382,2022-11-16_22h54.00.353,vts_reward_expectancy_bt,2022.2.4,MacIntel,58.82352941,Safari,1728,1117,,,,,0,806,,,,,,,,,,,,,,,,,160,H,hexagon,1,0,,,,,,,,,,,,,,,,repeat,letter,lettRpt,j,Hi,,,,,,2.836,2,,,,,,,,low,12,0,12,0,1,,,,,,,,,
294382,2022-11-16_22h54.00.353,vts_reward_expectancy_bt,2022.2.4,MacIntel,58.82352941,Safari,1728,1117,,,,,1,807,,,,,,,,,,,,,,,,,125,S,circle,1,0,,,,,,,,,,,,,,,,repeat,letter,lettRpt,k,Lo,,,,,,2.724,2,,,,,,,,low,13,0,13,0,1,,,,,,,,,
294382,2022-11-16_22h54.00.353,vts_reward_expectancy_bt,2022.2.4,MacIntel,58.82352941,Safari,1728,1117,,,,,10,817,,,,,,,,,,,,,,,,,181,W,triangle,1,0,,,,,,,,,,,,,,,,repeat,letter,lettRpt,k,Lo,,,,,,0.605,2,,,,,,,,low,14,0,14,0,1,,,,,,,,,
294382,2022-11-16_22h54.00.353,vts_reward_expectancy_bt,2022.2.4,MacIntel,58.82352941,Safari,1728,1117,,,,,0,817,,,,,,,,,,,,,,,,,132,D,star,0,0,,,,,,,,,,,,,,,,repeat,letter,NA,k,Lo,,,,,,1.4,2,,,,,,,,low,15,0,15,0,1,,,,,,,,,
294382,2022-11-16_22h54.00.353,vts_reward_expectancy_bt,2022.2.4,MacIntel,58.82352941,Safari,1728,1117,,,,,1,818,,,,,,,,,,,,,,,,,125,Y,triangle,1,1,,,,,,,,,,,,,,,,repeat,letter,lettRpt,k,Lo,,,,,,2.587,2,,,,,,,,low,16,0,16,0,1,,,,,,,,,
294382,2022-11-16_22h54.00.353,vts_reward_expectancy_bt,2022.2.4,MacIntel,58.82352941,Safari,1728,1117,,,,,0,818,,,,,,,,,,,,,,,,,160,W,hexagon,-1,0,,,,,,,,,,,,,,,,switch,no_choice,NA,,Lo,,,,,,,2,,,,,,,,low,17,0,17,0,1,,,,,,,,,
294382,2022-11-16_22h54.00.353,vts_reward_expectancy_bt,2022.2.4,MacIntel,58.82352941,Safari,1728,1117,,,,,0,818,,,,,,,,,,,,,,,,,132,B,circle,0,0,,,,,,,,,,,,,,,,switch,letter,NA,k,Lo,,,,,,0.388,2,,,,,,,,low,18,0,18,0,1,,,,,,,,,
294382,2022-11-16_22h54.00.353,vts_reward_expectancy_bt,2022.2.4,MacIntel,58.82352941,Safari,1728,1117,,,,,0,818,,,,,,,,,,,,,,,,,181,S,star,1,1,,,,,,,,,,,,,,,,repeat,letter,lettRpt,k,Hi,,,,,,2.039,2,,,,,,,,low,19,0,19,0,1,,,,,,,,,
294382,2022-11-16_22h54.00.353,vts_reward_expectancy_bt,2022.2.4,MacIntel,58.82352941,Safari,1728,1117,,,,,0,818,,,,,,,,,,,,,,,,,146,D,hexagon,-1,0,,,,,,,,,,,,,,,,switch,no_choice,NA,,Hi,,,,,,,2,,,,,,,,low,20,0,20,0,1,,,,,,,,,
294382,2022-11-16_22h54.00.353,vts_reward_expectancy_bt,2022.2.4,MacIntel,58.82352941,Safari,1728,1117,,,,,0,818,,,,,,,,,,,,,,,,,139,F,circle,-1,0,,,,,,,,,,,,,,,,repeat,no_choice,NA,,Hi,,,,,,,2,,,,,,,,low,21,0,21,0,1,,,,,,,,,
294382,2022-11-16_22h54.00.353,vts_reward_expectancy_bt,2022.2.4,MacIntel,58.82352941,Safari,1728,1117,,,,,1,819,,,,,,,,,,,,,,,,,174,H,triangle,1,0,,,,,,,,,,,,,,,,switch,letter,lettSwt,j,Lo,,,,,,2.31,2,,,,,,,,low,22,0,22,0,1,,,,,,,,,
294382,2022-11-16_22h54.00.353,vts_reward_expectancy_bt,2022.2.4,MacIntel,58.82352941,Safari,1728,1117,,,,,0,819,,,,,,,,,,,,,,,,,167,U,star,1,0,,,,,,,,,,,,,,,,repeat,letter,lettRpt,k,Hi,,,,,,1.556,2,,,,,,,,low,23,0,23,0,1,,,,,,,,,
294382,2022-11-16_22h54.00.353,vts_reward_expectancy_bt,2022.2.4,MacIntel,58.82352941,Safari,1728,1117,,,,,0,819,,,,,,,,,,,,,,,,,167,W,hexagon,-1,0,,,,,,,,,,,,,,,,switch,no_choice,NA,,Hi,,,,,,,2,,,,,,,,low,24,0,24,0,1,,,,,,,,,
294382,2022-11-16_22h54.00.353,vts_reward_expectancy_bt,2022.2.4,MacIntel,58.82352941,Safari,1728,1117,,,,,0,819,,,,,,,,,,,,,,,,,160,S,triangle,0,0,,,,,,,,,,,,,,,,switch,letter,NA,j,Hi,,,,,,1.747,2,,,,,,,,low,25,0,25,0,1,,,,,,,,,
294382,2022-11-16_22h54.00.353,vts_reward_expectancy_bt,2022.2.4,MacIntel,58.82352941,Safari,1728,1117,,,,,10,829,,,,,,,,,,,,,,,,,132,Y,circle,1,1,,,,,,,,,,,,,,,,repeat,letter,lettRpt,k,Lo,,,,,,1.5,2,,,,,,,,low,26,0,26,0,1,,,,,,,,,
294382,2022-11-16_22h54.00.353,vts_reward_expectancy_bt,2022.2.4,MacIntel,58.82352941,Safari,1728,1117,,,,,0,829,,,,,,,,,,,,,,,,,174,D,star,-1,0,,,,,,,,,,,,,,,,switch,no_choice,NA,,Lo,,,,,,,2,,,,,,,,low,27,0,27,0,1,,,,,,,,,
294382,2022-11-16_22h54.00.353,vts_reward_expectancy_bt,2022.2.4,MacIntel,58.82352941,Safari,1728,1117,,,,,0,829,,,,,,,,,,,,,,,,,125,B,hexagon,0,0,,,,,,,,,,,,,,,,switch,letter,NA,k,Lo,,,,,,2.237,2,,,,,,,,low,28,0,28,0,1,,,,,,,,,
294382,2022-11-16_22h54.00.353,vts_reward_expectancy_bt,2022.2.4,MacIntel,58.82352941,Safari,1728,1117,,,,,0,829,,,,,,,,,,,,,,,,,139,H,circle,-1,1,,,,,,,,,,,,,,,,switch,no_choice,NA,,Lo,,,,,,,2,,,,,,,,low,29,0,29,0,1,,,,,,,,,
294382,2022-11-16_22h54.00.353,vts_reward_expectancy_bt,2022.2.4,MacIntel,58.82352941,Safari,1728,1117,,,,,1,830,,,,,,,,,,,,,,,,,146,F,triangle,1,0,,,,,,,,,,,,,,,,switch,letter,lettSwt,j,Lo,,,,,,1.868,2,,,,,,,,low,30,0,30,0,1,,,,,,,,,
294382,2022-11-16_22h54.00.353,vts_reward_expectancy_bt,2022.2.4,MacIntel,58.82352941,Safari,1728,1117,,,,,0,830,,,,,,,,,,,,,,,,,181,U,star,1,0,,,,,,,,,,,,,,,,repeat,letter,lettRpt,k,Hi,,,,,,2.542,2,,,,,,,,low,31,0,31,0,1,,,,,,,,,
294382,2022-11-16_22h54.00.353,vts_reward_expectancy_bt,2022.2.4,MacIntel,58.82352941,Safari,1728,1117,,,,,0,830,,,,,,,,,,,,,,,,,181,F,hexagon,-1,0,,,,,,,,,,,,,,,,switch,no_choice,NA,,Hi,,,,,,,3,,,,,,space,6.392,low,0,0,0,0,1,,,,,,,,,
294382,2022-11-16_22h54.00.353,vts_reward_expectancy_bt,2022.2.4,MacIntel,58.82352941,Safari,1728,1117,,,,,0,830,,,,,,,,,,,,,,,,,146,H,circle,-1,0,,,,,,,,,,,,,,,,repeat,no_choice,NA,,Hi,,,,,,,3,,,,,,,,low,1,0,1,0,1,,,,,,,,,
294382,2022-11-16_22h54.00.353,vts_reward_expectancy_bt,2022.2.4,MacIntel,58.82352941,Safari,1728,1117,,,,,0,830,,,,,,,,,,,,,,,,,125,S,star,1,0,,,,,,,,,,,,,,,,switch,letter,lettSwt,k,Hi,,,,,,2.951,3,,,,,,,,low,2,0,2,0,1,,,,,,,,,
294382,2022-11-16_22h54.00.353,vts_reward_expectancy_bt,2022.2.4,MacIntel,58.82352941,Safari,1728,1117,,,,,0,830,,,,,,,,,,,,,,,,,174,D,triangle,0,0,,,,,,,,,,,,,,,,repeat,letter,NA,k,Hi,,,,,,0.618,3,,,,,,,,low,3,0,3,0,1,,,,,,,,,
294382,2022-11-16_22h54.00.353,vts_reward_expectancy_bt,2022.2.4,MacIntel,58.82352941,Safari,1728,1117,,,,,0,830,,,,,,,,,,,,,,,,,139,U,hexagon,1,1,,,,,,,,,,,,,,,,repeat,letter,lettRpt,k,Hi,,,,,,2.838,3,,,,,,,,low,4,0,4,0,1,,,,,,,,,
294382,2022-11-16_22h54.00.353,vts_reward_expectancy_bt,2022.2.4,MacIntel,58.82352941,Safari,1728,1117,,,,,0,830,,,,,,,,,,,,,,,,,132,B,circle,0,0,,,,,,,,,,,,,,,,repeat,letter,NA,k,Hi,,,,,,1.906,3,,,,,,,,low,5,0,5,0,1,,,,,,,,,
294382,2022-11-16_22h54.00.353,vts_reward_expectancy_bt,2022.2.4,MacIntel,58.82352941,Safari,1728,1117,,,,,0,830,,,,,,,,,,,,,,,,,167,W,star,-1,1,,,,,,,,,,,,,,,,switch,no_choice,NA,,Hi,,,,,,,3,,,,,,,,low,6,0,6,0,1,,,,,,,,,
294382,2022-11-16_22h54.00.353,vts_reward_expectancy_bt,2022.2.4,MacIntel,58.82352941,Safari,1728,1117,,,,,10,840,,,,,,,,,,,,,,,,,160,Y,triangle,1,0,,,,,,,,,,,,,,,,switch,letter,lettSwt,k,Lo,,,,,,0.534,3,,,,,,,,low,7,0,7,0,1,,,,,,,,,
294382,2022-11-16_22h54.00.353,vts_reward_expectancy_bt,2022.2.4,MacIntel,58.82352941,Safari,1728,1117,,,,,1,841,,,,,,,,,,,,,,,,,181,F,triangle,1,0,,,,,,,,,,,,,,,,repeat,letter,lettRpt,j,Lo,,,,,,1.15,3,,,,,,,,low,8,0,8,0,1,,,,,,,,,
294382,2022-11-16_22h54.00.353,vts_reward_expectancy_bt,2022.2.4,MacIntel,58.82352941,Safari,1728,1117,,,,,1,842,,,,,,,,,,,,,,,,,146,H,circle,1,0,,,,,,,,,,,,,,,,repeat,letter,lettRpt,j,Lo,,,,,,0.76,3,,,,,,,,low,9,0,9,0,1,,,,,,,,,
294382,2022-11-16_22h54.00.353,vts_reward_expectancy_bt,2022.2.4,MacIntel,58.82352941,Safari,1728,1117,,,,,10,852,,,,,,,,,,,,,,,,,125,S,star,1,0,,,,,,,,,,,,,,,,repeat,letter,lettRpt,k,Hi,,,,,,0.544,3,,,,,,,,low,10,0,10,0,1,,,,,,,,,
294382,2022-11-16_22h54.00.353,vts_reward_expectancy_bt,2022.2.4,MacIntel,58.82352941,Safari,1728,1117,,,,,0,852,,,,,,,,,,,,,,,,,174,D,hexagon,0,0,,,,,,,,,,,,,,,,repeat,letter,NA,k,Hi,,,,,,0.848,3,,,,,,,,low,11,0,11,0,1,,,,,,,,,
294382,2022-11-16_22h54.00.353,vts_reward_expectancy_bt,2022.2.4,MacIntel,58.82352941,Safari,1728,1117,,,,,1,853,,,,,,,,,,,,,,,,,139,U,star,1,1,,,,,,,,,,,,,,,,repeat,letter,lettRpt,k,Hi,,,,,,0.606,3,,,,,,,,low,12,0,12,0,1,,,,,,,,,
294382,2022-11-16_22h54.00.353,vts_reward_expectancy_bt,2022.2.4,MacIntel,58.82352941,Safari,1728,1117,,,,,1,854,,,,,,,,,,,,,,,,,132,B,triangle,1,0,,,,,,,,,,,,,,,,repeat,letter,lettRpt,j,Lo,,,,,,0.525,3,,,,,,,,low,13,0,13,0,1,,,,,,,,,
294382,2022-11-16_22h54.00.353,vts_reward_expectancy_bt,2022.2.4,MacIntel,58.82352941,Safari,1728,1117,,,,,10,864,,,,,,,,,,,,,,,,,167,W,circle,1,0,,,,,,,,,,,,,,,,repeat,letter,lettRpt,k,Lo,,,,,,0.954,3,,,,,,,,low,14,0,14,0,1,,,,,,,,,
294382,2022-11-16_22h54.00.353,vts_reward_expectancy_bt,2022.2.4,MacIntel,58.82352941,Safari,1728,1117,,,,,0,864,,,,,,,,,,,,,,,,,160,Y,hexagon,-1,0,,,,,,,,,,,,,,,,switch,no_choice,NA,,Lo,,,,,,,3,,,,,,,,low,15,0,15,0,1,,,,,,,,,
294382,2022-11-16_22h54.00.353,vts_reward_expectancy_bt,2022.2.4,MacIntel,58.82352941,Safari,1728,1117,,,,,10,874,,,,,,,,,,,,,,,,,174,Y,hexagon,1,0,,,,,,,,,,,,,,,,switch,letter,lettSwt,k,Hi,,,,,,0.669,3,,,,,,,,low,16,0,16,0,1,,,,,,,,,
294382,2022-11-16_22h54.00.353,vts_reward_expectancy_bt,2022.2.4,MacIntel,58.82352941,Safari,1728,1117,,,,,0,874,,,,,,,,,,,,,,,,,139,S,circle,-1,0,,,,,,,,,,,,,,,,switch,no_choice,NA,,Hi,,,,,,,3,,,,,,,,low,17,0,17,0,1,,,,,,,,,
294382,2022-11-16_22h54.00.353,vts_reward_expectancy_bt,2022.2.4,MacIntel,58.82352941,Safari,1728,1117,,,,,1,875,,,,,,,,,,,,,,,,,167,B,triangle,1,0,,,,,,,,,,,,,,,,switch,letter,lettSwt,j,Lo,,,,,,0.67,3,,,,,,,,low,18,0,18,0,1,,,,,,,,,
294382,2022-11-16_22h54.00.353,vts_reward_expectancy_bt,2022.2.4,MacIntel,58.82352941,Safari,1728,1117,,,,,0,875,,,,,,,,,,,,,,,,,160,H,star,-1,0,,,,,,,,,,,,,,,,switch,no_choice,NA,,Lo,,,,,,,3,,,,,,,,low,19,0,19,0,1,,,,,,,,,
294382,2022-11-16_22h54.00.353,vts_reward_expectancy_bt,2022.2.4,MacIntel,58.82352941,Safari,1728,1117,,,,,0,875,,,,,,,,,,,,,,,,,146,D,star,-1,0,,,,,,,,,,,,,,,,repeat,no_choice,NA,,Lo,,,,,,,3,,,,,,,,low,20,0,20,0,1,,,,,,,,,
294382,2022-11-16_22h54.00.353,vts_reward_expectancy_bt,2022.2.4,MacIntel,58.82352941,Safari,1728,1117,,,,,0,875,,,,,,,,,,,,,,,,,181,U,hexagon,0,0,,,,,,,,,,,,,,,,switch,letter,NA,j,Lo,,,,,,1.887,3,,,,,,,,low,21,0,21,0,1,,,,,,,,,
294382,2022-11-16_22h54.00.353,vts_reward_expectancy_bt,2022.2.4,MacIntel,58.82352941,Safari,1728,1117,,,,,1,876,,,,,,,,,,,,,,,,,132,W,triangle,1,1,,,,,,,,,,,,,,,,repeat,letter,lettRpt,k,Lo,,,,,,1.807,3,,,,,,,,low,22,0,22,0,1,,,,,,,,,
294382,2022-11-16_22h54.00.353,vts_reward_expectancy_bt,2022.2.4,MacIntel,58.82352941,Safari,1728,1117,,,,,1,877,,,,,,,,,,,,,,,,,125,F,circle,1,0,,,,,,,,,,,,,,,,repeat,letter,lettRpt,j,Lo,,,,,,1.351,3,,,,,,,,low,23,0,23,0,1,,,,,,,,,
294382,2022-11-16_22h54.00.353,vts_reward_expectancy_bt,2022.2.4,MacIntel,58.82352941,Safari,1728,1117,,,,,10,887,,,,,,,,,,,,,,,,,139,D,star,1,0,,,,,,,,,,,,,,,,repeat,letter,lettRpt,j,Hi,,,,,,0.659,3,,,,,,,,low,24,0,24,0,1,,,,,,,,,
294382,2022-11-16_22h54.00.353,vts_reward_expectancy_bt,2022.2.4,MacIntel,58.82352941,Safari,1728,1117,,,,,10,897,,,,,,,,,,,,,,,,,132,U,triangle,1,0,,,,,,,,,,,,,,,,repeat,letter,lettRpt,k,Lo,,,,,,1.804,3,,,,,,,,low,25,0,25,0,1,,,,,,,,,
294382,2022-11-16_22h54.00.353,vts_reward_expectancy_bt,2022.2.4,MacIntel,58.82352941,Safari,1728,1117,,,,,10,907,,,,,,,,,,,,,,,,,167,W,circle,1,0,,,,,,,,,,,,,,,,repeat,letter,lettRpt,k,Lo,,,,,,1.257,3,,,,,,,,low,26,0,26,0,1,,,,,,,,,
294382,2022-11-16_22h54.00.353,vts_reward_expectancy_bt,2022.2.4,MacIntel,58.82352941,Safari,1728,1117,,,,,0,907,,,,,,,,,,,,,,,,,181,H,hexagon,0,0,,,,,,,,,,,,,,,,repeat,letter,NA,k,Lo,,,,,,1.471,3,,,,,,,,low,27,0,27,0,1,,,,,,,,,
294382,2022-11-16_22h54.00.353,vts_reward_expectancy_bt,2022.2.4,MacIntel,58.82352941,Safari,1728,1117,,,,,0,907,,,,,,,,,,,,,,,,,146,S,hexagon,-1,1,,,,,,,,,,,,,,,,switch,no_choice,NA,,Lo,,,,,,,3,,,,,,,,low,28,0,28,0,1,,,,,,,,,
294382,2022-11-16_22h54.00.353,vts_reward_expectancy_bt,2022.2.4,MacIntel,58.82352941,Safari,1728,1117,,,,,1,908,,,,,,,,,,,,,,,,,125,B,triangle,1,0,,,,,,,,,,,,,,,,switch,letter,lettSwt,j,Lo,,,,,,0.623,3,,,,,,,,low,29,0,29,0,1,,,,,,,,,
294382,2022-11-16_22h54.00.353,vts_reward_expectancy_bt,2022.2.4,MacIntel,58.82352941,Safari,1728,1117,,,,,0,908,,,,,,,,,,,,,,,,,174,F,circle,-1,0,,,,,,,,,,,,,,,,switch,no_choice,NA,,Lo,,,,,,,3,,,,,,,,low,30,0,30,0,1,,,,,,,,,
294382,2022-11-16_22h54.00.353,vts_reward_expectancy_bt,2022.2.4,MacIntel,58.82352941,Safari,1728,1117,,,,,10,918,,,,,,,,,,,,,,,,,160,Y,star,1,0,,,,,,,,,,,,,,,,switch,letter,lettSwt,k,Hi,,,,,,1.231,3,,,,,,,,low,31,0,31,0,1,,,,,,,,,
294382,2022-11-16_22h54.00.353,vts_reward_expectancy_bt,2022.2.4,MacIntel,58.82352941,Safari,1728,1117,,,,,0,918,,,,,,,,,,,,,,,,,125,U,hexagon,1,0,,,,,,,,,,,,,,,,repeat,letter,lettRpt,k,Hi,,,,,,2.352,4,,,,,,space,25.957,low,0,0,0,0,1,,,,,,,,,
294382,2022-11-16_22h54.00.353,vts_reward_expectancy_bt,2022.2.4,MacIntel,58.82352941,Safari,1728,1117,,,,,1,919,,,,,,,,,,,,,,,,,167,W,triangle,1,0,,,,,,,,,,,,,,,,repeat,letter,lettRpt,k,Lo,,,,,,0.627,4,,,,,,,,low,1,0,1,0,1,,,,,,,,,
294382,2022-11-16_22h54.00.353,vts_reward_expectancy_bt,2022.2.4,MacIntel,58.82352941,Safari,1728,1117,,,,,0,919,,,,,,,,,,,,,,,,,160,B,star,1,0,,,,,,,,,,,,,,,,repeat,letter,lettRpt,j,Hi,,,,,,1.353,4,,,,,,,,low,2,0,2,0,1,,,,,,,,,
294382,2022-11-16_22h54.00.353,vts_reward_expectancy_bt,2022.2.4,MacIntel,58.82352941,Safari,1728,1117,,,,,1,920,,,,,,,,,,,,,,,,,174,S,circle,1,0,,,,,,,,,,,,,,,,repeat,letter,lettRpt,k,Lo,,,,,,2.185,4,,,,,,,,low,3,0,3,0,1,,,,,,,,,
294382,2022-11-16_22h54.00.353,vts_reward_expectancy_bt,2022.2.4,MacIntel,58.82352941,Safari,1728,1117,,,,,0,920,,,,,,,,,,,,,,,,,139,H,hexagon,-1,0,,,,,,,,,,,,,,,,switch,no_choice,NA,,Lo,,,,,,,4,,,,,,,,low,4,0,4,0,1,,,,,,,,,
294382,2022-11-16_22h54.00.353,vts_reward_expectancy_bt,2022.2.4,MacIntel,58.82352941,Safari,1728,1117,,,,,0,920,,,,,,,,,,,,,,,,,132,D,triangle,-1,0,,,,,,,,,,,,,,,,repeat,no_choice,NA,,Lo,,,,,,,4,,,,,,,,low,5,0,5,0,1,,,,,,,,,
294382,2022-11-16_22h54.00.353,vts_reward_expectancy_bt,2022.2.4,MacIntel,58.82352941,Safari,1728,1117,,,,,0,920,,,,,,,,,,,,,,,,,181,Y,star,-1,0,,,,,,,,,,,,,,,,repeat,no_choice,NA,,Lo,,,,,,,4,,,,,,,,low,6,0,6,0,1,,,,,,,,,
294382,2022-11-16_22h54.00.353,vts_reward_expectancy_bt,2022.2.4,MacIntel,58.82352941,Safari,1728,1117,,,,,1,921,,,,,,,,,,,,,,,,,146,F,circle,1,0,,,,,,,,,,,,,,,,switch,letter,lettSwt,j,Lo,,,,,,0.997,4,,,,,,,,low,7,0,7,0,1,,,,,,,,,
294382,2022-11-16_22h54.00.353,vts_reward_expectancy_bt,2022.2.4,MacIntel,58.82352941,Safari,1728,1117,,,,,0,921,,,,,,,,,,,,,,,,,125,U,triangle,-1,0,,,,,,,,,,,,,,,,switch,no_choice,NA,,Lo,,,,,,,4,,,,,,,,low,8,0,8,0,1,,,,,,,,,
294382,2022-11-16_22h54.00.353,vts_reward_expectancy_bt,2022.2.4,MacIntel,58.82352941,Safari,1728,1117,,,,,0,921,,,,,,,,,,,,,,,,,167,W,circle,-1,0,,,,,,,,,,,,,,,,repeat,no_choice,NA,,Lo,,,,,,,4,,,,,,,,low,9,0,9,0,1,,,,,,,,,
294382,2022-11-16_22h54.00.353,vts_reward_expectancy_bt,2022.2.4,MacIntel,58.82352941,Safari,1728,1117,,,,,0,921,,,,,,,,,,,,,,,,,160,B,star,1,0,,,,,,,,,,,,,,,,switch,letter,lettSwt,j,Hi,,,,,,0.698,4,,,,,,,,low,10,0,10,0,1,,,,,,,,,
294382,2022-11-16_22h54.00.353,vts_reward_expectancy_bt,2022.2.4,MacIntel,58.82352941,Safari,1728,1117,,,,,0,921,,,,,,,,,,,,,,,,,174,S,hexagon,1,0,,,,,,,,,,,,,,,,repeat,letter,lettRpt,k,Hi,,,,,,1.307,4,,,,,,,,low,11,0,11,0,1,,,,,,,,,
294382,2022-11-16_22h54.00.353,vts_reward_expectancy_bt,2022.2.4,MacIntel,58.82352941,Safari,1728,1117,,,,,0,921,,,,,,,,,,,,,,,,,139,H,circle,-1,0,,,,,,,,,,,,,,,,switch,no_choice,NA,,Hi,,,,,,,4,,,,,,,,low,12,0,12,0,1,,,,,,,,,
294382,2022-11-16_22h54.00.353,vts_reward_expectancy_bt,2022.2.4,MacIntel,58.82352941,Safari,1728,1117,,,,,0,921,,,,,,,,,,,,,,,,,132,D,star,1,0,,,,,,,,,,,,,,,,switch,letter,lettSwt,j,Hi,,,,,,0.998,4,,,,,,,,low,13,0,13,0,1,,,,,,,,,
294382,2022-11-16_22h54.00.353,vts_reward_expectancy_bt,2022.2.4,MacIntel,58.82352941,Safari,1728,1117,,,,,0,921,,,,,,,,,,,,,,,,,181,Y,triangle,-1,0,,,,,,,,,,,,,,,,switch,no_choice,NA,,Hi,,,,,,,4,,,,,,,,low,14,0,14,0,1,,,,,,,,,
294382,2022-11-16_22h54.00.353,vts_reward_expectancy_bt,2022.2.4,MacIntel,58.82352941,Safari,1728,1117,,,,,0,921,,,,,,,,,,,,,,,,,146,F,hexagon,1,0,,,,,,,,,,,,,,,,switch,letter,lettSwt,j,Hi,,,,,,0.918,4,,,,,,,,low,15,0,15,0,1,,,,,,,,,
294382,2022-11-16_22h54.00.353,vts_reward_expectancy_bt,2022.2.4,MacIntel,58.82352941,Safari,1728,1117,,,,,0,921,,,,,,,,,,,,,,,,,181,F,hexagon,1,0,,,,,,,,,,,,,,,,repeat,letter,lettRpt,j,Hi,,,,,,1.27,4,,,,,,,,low,16,0,16,0,1,,,,,,,,,
294382,2022-11-16_22h54.00.353,vts_reward_expectancy_bt,2022.2.4,MacIntel,58.82352941,Safari,1728,1117,,,,,0,921,,,,,,,,,,,,,,,,,132,D,star,1,0,,,,,,,,,,,,,,,,repeat,letter,lettRpt,j,Hi,,,,,,2.55,4,,,,,,,,low,17,0,17,0,1,,,,,,,,,
294382,2022-11-16_22h54.00.353,vts_reward_expectancy_bt,2022.2.4,MacIntel,58.82352941,Safari,1728,1117,,,,,1,922,,,,,,,,,,,,,,,,,167,B,circle,1,0,,,,,,,,,,,,,,,,repeat,letter,lettRpt,j,Lo,,,,,,2.479,4,,,,,,,,low,18,0,18,0,1,,,,,,,,,
294382,2022-11-16_22h54.00.353,vts_reward_expectancy_bt,2022.2.4,MacIntel,58.82352941,Safari,1728,1117,,,,,0,922,,,,,,,,,,,,,,,,,146,Y,triangle,-1,0,,,,,,,,,,,,,,,,switch,no_choice,NA,,Lo,,,,,,,4,,,,,,,,low,19,0,19,0,1,,,,,,,,,
294382,2022-11-16_22h54.00.353,vts_reward_expectancy_bt,2022.2.4,MacIntel,58.82352941,Safari,1728,1117,,,,,0,922,,,,,,,,,,,,,,,,,139,S,hexagon,-1,0,,,,,,,,,,,,,,,,repeat,no_choice,NA,,Lo,,,,,,,4,,,,,,,,low,20,0,20,0,1,,,,,,,,,
294382,2022-11-16_22h54.00.353,vts_reward_expectancy_bt,2022.2.4,MacIntel,58.82352941,Safari,1728,1117,,,,,1,923,,,,,,,,,,,,,,,,,125,U,circle,1,0,,,,,,,,,,,,,,,,switch,letter,lettSwt,k,Lo,,,,,,0.796,4,,,,,,,,low,21,0,21,0,1,,,,,,,,,
294382,2022-11-16_22h54.00.353,vts_reward_expectancy_bt,2022.2.4,MacIntel,58.82352941,Safari,1728,1117,,,,,0,923,,,,,,,,,,,,,,,,,174,W,star,-1,0,,,,,,,,,,,,,,,,switch,no_choice,NA,,Lo,,,,,,,4,,,,,,,,low,22,0,22,0,1,,,,,,,,,
294382,2022-11-16_22h54.00.353,vts_reward_expectancy_bt,2022.2.4,MacIntel,58.82352941,Safari,1728,1117,,,,,10,933,,,,,,,,,,,,,,,,,160,H,triangle,1,0,,,,,,,,,,,,,,,,switch,letter,lettSwt,j,Lo,,,,,,1.676,4,,,,,,,,low,23,0,23,0,1,,,,,,,,,
294382,2022-11-16_22h54.00.353,vts_reward_expectancy_bt,2022.2.4,MacIntel,58.82352941,Safari,1728,1117,,,,,10,943,,,,,,,,,,,,,,,,,174,F,triangle,1,0,,,,,,,,,,,,,,,,repeat,letter,lettRpt,j,Lo,,,,,,2.909,4,,,,,,,,low,24,0,24,0,1,,,,,,,,,
294382,2022-11-16_22h54.00.353,vts_reward_expectancy_bt,2022.2.4,MacIntel,58.82352941,Safari,1728,1117,,,,,1,944,,,,,,,,,,,,,,,,,146,Y,circle,1,0,,,,,,,,,,,,,,,,repeat,letter,lettRpt,k,Lo,,,,,,0.64,4,,,,,,,,low,25,0,25,0,1,,,,,,,,,
294382,2022-11-16_22h54.00.353,vts_reward_expectancy_bt,2022.2.4,MacIntel,58.82352941,Safari,1728,1117,,,,,0,944,,,,,,,,,,,,,,,,,160,B,star,1,0,,,,,,,,,,,,,,,,repeat,letter,lettRpt,j,Hi,,,,,,1.071,4,,,,,,,,low,26,0,26,0,1,,,,,,,,,
294382,2022-11-16_22h54.00.353,vts_reward_expectancy_bt,2022.2.4,MacIntel,58.82352941,Safari,1728,1117,,,,,0,944,,,,,,,,,,,,,,,,,181,D,hexagon,0,0,,,,,,,,,,,,,,,,repeat,letter,NA,k,Hi,,,,,,0.609,4,,,,,,,,low,27,0,27,0,1,,,,,,,,,
294382,2022-11-16_22h54.00.353,vts_reward_expectancy_bt,2022.2.4,MacIntel,58.82352941,Safari,1728,1117,,,,,0,944,,,,,,,,,,,,,,,,,167,W,hexagon,1,1,,,,,,,,,,,,,,,,repeat,letter,lettRpt,k,Hi,,,,,,1.569,4,,,,,,,,low,28,0,28,0,1,,,,,,,,,
294382,2022-11-16_22h54.00.353,vts_reward_expectancy_bt,2022.2.4,MacIntel,58.82352941,Safari,1728,1117,,,,,1,945,,,,,,,,,,,,,,,,,139,S,triangle,1,0,,,,,,,,,,,,,,,,repeat,letter,lettRpt,k,Lo,,,,,,1.904,4,,,,,,,,low,29,0,29,0,1,,,,,,,,,
294382,2022-11-16_22h54.00.353,vts_reward_expectancy_bt,2022.2.4,MacIntel,58.82352941,Safari,1728,1117,,,,,10,955,,,,,,,,,,,,,,,,,132,H,circle,1,0,,,,,,,,,,,,,,,,repeat,letter,lettRpt,j,Lo,,,,,,0.779,4,,,,,,,,low,30,0,30,0,1,,,,,,,,,
294382,2022-11-16_22h54.00.353,vts_reward_expectancy_bt,2022.2.4,MacIntel,58.82352941,Safari,1728,1117,,,,,0,955,,,,,,,,,,,,,,,,,125,U,star,1,0,,,,,,,,,,,,,,,,repeat,letter,lettRpt,k,Hi,,,,,,2.105,4,,,,,,,,low,31,0,31,0,1,,,,,,,,,
294382,2022-11-16_22h54.00.353,vts_reward_expectancy_bt,2022.2.4,MacIntel,58.82352941,Safari,1728,1117,,,,,0,955,,,,,,,,,,,,,,,,,132,D,circle,-1,0,,,,,,,,,,,,,,,,switch,no_choice,NA,,Hi,,,,,,,5,,,,,,space,0.268,low,0,0,0,0,1,,,,,,,,,
294382,2022-11-16_22h54.00.353,vts_reward_expectancy_bt,2022.2.4,MacIntel,58.82352941,Safari,1728,1117,,,,,0,955,,,,,,,,,,,,,,,,,181,U,star,-1,0,,,,,,,,,,,,,,,,repeat,no_choice,NA,,Hi,,,,,,,5,,,,,,,,low,1,0,1,0,1,,,,,,,,,
294382,2022-11-16_22h54.00.353,vts_reward_expectancy_bt,2022.2.4,MacIntel,58.82352941,Safari,1728,1117,,,,,0,955,,,,,,,,,,,,,,,,,125,Y,hexagon,-1,0,,,,,,,,,,,,,,,,repeat,no_choice,NA,,Hi,,,,,,,5,,,,,,,,low,2,0,2,0,1,,,,,,,,,
294382,2022-11-16_22h54.00.353,vts_reward_expectancy_bt,2022.2.4,MacIntel,58.82352941,Safari,1728,1117,,,,,0,955,,,,,,,,,,,,,,,,,160,S,triangle,-1,0,,,,,,,,,,,,,,,,repeat,no_choice,NA,,Hi,,,,,,,5,,,,,,,,low,3,0,3,0,1,,,,,,,,,
294382,2022-11-16_22h54.00.353,vts_reward_expectancy_bt,2022.2.4,MacIntel,58.82352941,Safari,1728,1117,,,,,0,955,,,,,,,,,,,,,,,,,167,W,circle,-1,0,,,,,,,,,,,,,,,,repeat,no_choice,NA,,Hi,,,,,,,5,,,,,,,,low,4,0,4,0,1,,,,,,,,,
294382,2022-11-16_22h54.00.353,vts_reward_expectancy_bt,2022.2.4,MacIntel,58.82352941,Safari,1728,1117,,,,,0,955,,,,,,,,,,,,,,,,,174,H,star,-1,0,,,,,,,,,,,,,,,,repeat,no_choice,NA,,Hi,,,,,,,5,,,,,,,,low,5,0,5,0,1,,,,,,,,,
294382,2022-11-16_22h54.00.353,vts_reward_expectancy_bt,2022.2.4,MacIntel,58.82352941,Safari,1728,1117,,,,,0,955,,,,,,,,,,,,,,,,,139,B,hexagon,-1,0,,,,,,,,,,,,,,,,repeat,no_choice,NA,,Hi,,,,,,,5,,,,,,,,low,6,0,6,0,1,,,,,,,,,
294382,2022-11-16_22h54.00.353,vts_reward_expectancy_bt,2022.2.4,MacIntel,58.82352941,Safari,1728,1117,,,,,0,955,,,,,,,,,,,,,,,,,146,F,triangle,-1,0,,,,,,,,,,,,,,,,repeat,no_choice,NA,,Hi,,,,,,,5,,,,,,,,low,7,0,7,0,1,,,,,,,,,
294382,2022-11-16_22h54.00.353,vts_reward_expectancy_bt,2022.2.4,MacIntel,58.82352941,Safari,1728,1117,,,,,0,955,,,,,,,,,,,,,,,,,132,D,circle,-1,0,,,,,,,,,,,,,,,,repeat,no_choice,NA,,Hi,,,,,,,5,,,,,,,,low,8,0,8,0,1,,,,,,,,,
294382,2022-11-16_22h54.00.353,vts_reward_expectancy_bt,2022.2.4,MacIntel,58.82352941,Safari,1728,1117,,,,,0,955,,,,,,,,,,,,,,,,,181,U,hexagon,1,0,,,,,,,,,,,,,,,,switch,letter,lettSwt,k,Hi,,,,,,1.865,5,,,,,,,,low,9,0,9,0,1,,,,,,,,,
