participant,date,expName,psychopyVersion,OS,frameRate,browser,xResolution,yResolution,key_resp.keys,key_resp.rt,training_resp.keys,training_resp.rt,points_trial,points_cumul,trainBlock,training.thisRepN,training.thisTrialN,training.thisN,training.thisIndex,training.ran,LTriangleOpac,LCircleOpac,LHexagonOpac,LStarOpac,RTriangleOpac,RCircleOpac,RHexagonOpac,RStarOpac,LShape_ID,RShape_ID,curr_topStim,curr_bottStim,curr_shape,acc,E1,target_resp_prac1.keys,target_resp_prac1.rt,pracBlock,task1_prac_trials.thisRepN,task1_prac_trials.thisTrialN,task1_prac_trials.thisN,task1_prac_trials.thisIndex,task1_prac_trials.ran,target_resp_prac2.keys,target_resp_prac2.rt,task2_praac_trials.thisRepN,task2_praac_trials.thisTrialN,task2_praac_trials.thisN,task2_praac_trials.thisIndex,task2_praac_trials.ran,alt,task,condition,target_resp.keys,rewCond,vts_practice_trials.thisRepN,vts_practice_trials.thisTrialN,vts_practice_trials.thisN,vts_practice_trials.thisIndex,vts_practice_trials.ran,target_resp.rt,blockNum,trials_norew.thisRepN,trials_norew.thisTrialN,trials_norew.thisN,trials_norew.thisIndex,trials_norew.ran,key_resp_2.keys,key_resp_2.rt,rewExpectancy,trials_rew.thisRepN,trials_rew.thisTrialN,trials_rew.thisN,trials_rew.thisIndex,trials_rew.ran,Q1,Q2,Q2_text,Q3,Q4,Q5_text,Q5,xRes,yRes
294592,2022-11-27_03h11.16.439,vts_reward_expectancy_bt,2022.2.4,Win32,143.4514417,Chrome,1920,1080,,,,,,,,,,,,,,,,,,,,,,,,,,,,,,,,,,,,,,,,,,,,,,,,,,,,,,,,,,,,,,,,,,,,,,,,,,,,
294592,2022-11-27_03h11.16.439,vts_reward_expectancy_bt,2022.2.4,Win32,143.4514417,Chrome,1920,1080,space,17.7313,,,,,,,,,,,,,,,,,,,,,,,,,,,,,,,,,,,,,,,,,,,,,,,,,,,,,,,,,,,,,,,,,,,,,,,,,,
294592,2022-11-27_03h11.16.439,vts_reward_expectancy_bt,2022.2.4,Win32,143.4514417,Chrome,1920,1080,,,,,,,,,,,,,,,,,,,,,,,,,,,,,,,,,,,,,,,,,,,,,,,,,,,,,,,,,,,,,,,,,,,,,,,,,,,,
294592,2022-11-27_03h11.16.439,vts_reward_expectancy_bt,2022.2.4,Win32,143.4514417,Chrome,1920,1080,,,l,3.4588,1,1,0,0,0,0,11,1,0,0,0,1,0,0,1,0,star,hexagon,,,,,,,,,,,,,,,,,,,,,,,,,,,,,,,,,,,,,,,,,,,,,,,,,,,,,,
294592,2022-11-27_03h11.16.439,vts_reward_expectancy_bt,2022.2.4,Win32,143.4514417,Chrome,1920,1080,,,l,1.9582,10,11,0,0,1,1,3,1,0,1,0,0,1,0,0,0,circle,triangle,,,,,,,,,,,,,,,,,,,,,,,,,,,,,,,,,,,,,,,,,,,,,,,,,,,,,,
294592,2022-11-27_03h11.16.439,vts_reward_expectancy_bt,2022.2.4,Win32,143.4514417,Chrome,1920,1080,,,l,1.1324,10,21,0,0,2,2,4,1,0,1,0,0,0,0,1,0,circle,hexagon,,,,,,,,,,,,,,,,,,,,,,,,,,,,,,,,,,,,,,,,,,,,,,,,,,,,,,
294592,2022-11-27_03h11.16.439,vts_reward_expectancy_bt,2022.2.4,Win32,143.4514417,Chrome,1920,1080,,,a,0.9308,10,31,0,0,3,3,10,1,0,0,0,1,0,1,0,0,star ,circle,,,,,,,,,,,,,,,,,,,,,,,,,,,,,,,,,,,,,,,,,,,,,,,,,,,,,,
294592,2022-11-27_03h11.16.439,vts_reward_expectancy_bt,2022.2.4,Win32,143.4514417,Chrome,1920,1080,,,l,1.2705,1,32,0,0,4,4,8,1,0,0,1,0,0,0,0,1,hexagon,star,,,,,,,,,,,,,,,,,,,,,,,,,,,,,,,,,,,,,,,,,,,,,,,,,,,,,,
294592,2022-11-27_03h11.16.439,vts_reward_expectancy_bt,2022.2.4,Win32,143.4514417,Chrome,1920,1080,,,a,1.341,10,42,0,0,5,5,6,1,0,0,1,0,1,0,0,0,hexagon,triangle,,,,,,,,,,,,,,,,,,,,,,,,,,,,,,,,,,,,,,,,,,,,,,,,,,,,,,
294592,2022-11-27_03h11.16.439,vts_reward_expectancy_bt,2022.2.4,Win32,143.4514417,Chrome,1920,1080,,,l,1.9877,10,52,0,0,6,6,2,1,1,0,0,0,0,0,0,1,triangle,star,,,,,,,,,,,,,,,,,,,,,,,,,,,,,,,,,,,,,,,,,,,,,,,,,,,,,,
294592,2022-11-27_03h11.16.439,vts_reward_expectancy_bt,2022.2.4,Win32,143.4514417,Chrome,1920,1080,,,l,1.0907,10,62,0,0,7,7,1,1,1,0,0,0,0,0,1,0,triangle,hexagon,,,,,,,,,,,,,,,,,,,,,,,,,,,,,,,,,,,,,,,,,,,,,,,,,,,,,,
294592,2022-11-27_03h11.16.439,vts_reward_expectancy_bt,2022.2.4,Win32,143.4514417,Chrome,1920,1080,,,l,1.4235,1,63,0,0,8,8,7,1,0,0,1,0,0,1,0,0,hexagon,circle,,,,,,,,,,,,,,,,,,,,,,,,,,,,,,,,,,,,,,,,,,,,,,,,,,,,,,
294592,2022-11-27_03h11.16.439,vts_reward_expectancy_bt,2022.2.4,Win32,143.4514417,Chrome,1920,1080,,,a,1.2741,1,64,0,0,9,9,0,1,1,0,0,0,0,1,0,0,triangle,circle,,,,,,,,,,,,,,,,,,,,,,,,,,,,,,,,,,,,,,,,,,,,,,,,,,,,,,
294592,2022-11-27_03h11.16.439,vts_reward_expectancy_bt,2022.2.4,Win32,143.4514417,Chrome,1920,1080,,,a,1.2854,1,65,0,0,10,10,5,1,0,1,0,0,0,0,0,1,circle,star,,,,,,,,,,,,,,,,,,,,,,,,,,,,,,,,,,,,,,,,,,,,,,,,,,,,,,
294592,2022-11-27_03h11.16.439,vts_reward_expectancy_bt,2022.2.4,Win32,143.4514417,Chrome,1920,1080,,,a,1.3467,1,66,0,0,11,11,9,1,0,0,0,1,1,0,0,0,star,triangle,,,,,,,,,,,,,,,,,,,,,,,,,,,,,,,,,,,,,,,,,,,,,,,,,,,,,,
294592,2022-11-27_03h11.16.439,vts_reward_expectancy_bt,2022.2.4,Win32,143.4514417,Chrome,1920,1080,,,l,1.9337,1,67,0,1,0,12,2,1,1,0,0,0,0,0,0,1,triangle,star,,,,,,,,,,,,,,,,,,,,,,,,,,,,,,,,,,,,,,,,,,,,,,,,,,,,,,
294592,2022-11-27_03h11.16.439,vts_reward_expectancy_bt,2022.2.4,Win32,143.4514417,Chrome,1920,1080,,,a,0.7664,1,68,0,1,1,13,6,1,0,0,1,0,1,0,0,0,hexagon,triangle,,,,,,,,,,,,,,,,,,,,,,,,,,,,,,,,,,,,,,,,,,,,,,,,,,,,,,
294592,2022-11-27_03h11.16.439,vts_reward_expectancy_bt,2022.2.4,Win32,143.4514417,Chrome,1920,1080,,,a,2.1879,10,78,0,1,2,14,0,1,1,0,0,0,0,1,0,0,triangle,circle,,,,,,,,,,,,,,,,,,,,,,,,,,,,,,,,,,,,,,,,,,,,,,,,,,,,,,
294592,2022-11-27_03h11.16.439,vts_reward_expectancy_bt,2022.2.4,Win32,143.4514417,Chrome,1920,1080,,,a,1.2603,10,88,0,1,3,15,7,1,0,0,1,0,0,1,0,0,hexagon,circle,,,,,,,,,,,,,,,,,,,,,,,,,,,,,,,,,,,,,,,,,,,,,,,,,,,,,,
294592,2022-11-27_03h11.16.439,vts_reward_expectancy_bt,2022.2.4,Win32,143.4514417,Chrome,1920,1080,,,l,1.439,10,98,0,1,4,16,1,1,1,0,0,0,0,0,1,0,triangle,hexagon,,,,,,,,,,,,,,,,,,,,,,,,,,,,,,,,,,,,,,,,,,,,,,,,,,,,,,
294592,2022-11-27_03h11.16.439,vts_reward_expectancy_bt,2022.2.4,Win32,143.4514417,Chrome,1920,1080,,,l,1.9264,10,108,0,1,5,17,9,1,0,0,0,1,1,0,0,0,star,triangle,,,,,,,,,,,,,,,,,,,,,,,,,,,,,,,,,,,,,,,,,,,,,,,,,,,,,,
294592,2022-11-27_03h11.16.439,vts_reward_expectancy_bt,2022.2.4,Win32,143.4514417,Chrome,1920,1080,,,l,2.2605,10,118,0,1,6,18,4,1,0,1,0,0,0,0,1,0,circle,hexagon,,,,,,,,,,,,,,,,,,,,,,,,,,,,,,,,,,,,,,,,,,,,,,,,,,,,,,
294592,2022-11-27_03h11.16.439,vts_reward_expectancy_bt,2022.2.4,Win32,143.4514417,Chrome,1920,1080,,,l,1.383,1,119,0,1,7,19,3,1,0,1,0,0,1,0,0,0,circle,triangle,,,,,,,,,,,,,,,,,,,,,,,,,,,,,,,,,,,,,,,,,,,,,,,,,,,,,,
294592,2022-11-27_03h11.16.439,vts_reward_expectancy_bt,2022.2.4,Win32,143.4514417,Chrome,1920,1080,,,l,3.7661,10,129,0,1,8,20,8,1,0,0,1,0,0,0,0,1,hexagon,star,,,,,,,,,,,,,,,,,,,,,,,,,,,,,,,,,,,,,,,,,,,,,,,,,,,,,,
294592,2022-11-27_03h11.16.439,vts_reward_expectancy_bt,2022.2.4,Win32,143.4514417,Chrome,1920,1080,,,a,1.4885,10,139,0,1,9,21,10,1,0,0,0,1,0,1,0,0,star ,circle,,,,,,,,,,,,,,,,,,,,,,,,,,,,,,,,,,,,,,,,,,,,,,,,,,,,,,
294592,2022-11-27_03h11.16.439,vts_reward_expectancy_bt,2022.2.4,Win32,143.4514417,Chrome,1920,1080,,,a,0.9052,10,149,0,1,10,22,11,1,0,0,0,1,0,0,1,0,star,hexagon,,,,,,,,,,,,,,,,,,,,,,,,,,,,,,,,,,,,,,,,,,,,,,,,,,,,,,
294592,2022-11-27_03h11.16.439,vts_reward_expectancy_bt,2022.2.4,Win32,143.4514417,Chrome,1920,1080,,,a,0.9405,1,150,0,1,11,23,5,1,0,1,0,0,0,0,0,1,circle,star,,,,,,,,,,,,,,,,,,,,,,,,,,,,,,,,,,,,,,,,,,,,,,,,,,,,,,
294592,2022-11-27_03h11.16.439,vts_reward_expectancy_bt,2022.2.4,Win32,143.4514417,Chrome,1920,1080,,,l,1.0079,10,160,0,2,0,24,3,1,0,1,0,0,1,0,0,0,circle,triangle,,,,,,,,,,,,,,,,,,,,,,,,,,,,,,,,,,,,,,,,,,,,,,,,,,,,,,
294592,2022-11-27_03h11.16.439,vts_reward_expectancy_bt,2022.2.4,Win32,143.4514417,Chrome,1920,1080,,,a,0.9597,1,161,0,2,1,25,9,1,0,0,0,1,1,0,0,0,star,triangle,,,,,,,,,,,,,,,,,,,,,,,,,,,,,,,,,,,,,,,,,,,,,,,,,,,,,,
294592,2022-11-27_03h11.16.439,vts_reward_expectancy_bt,2022.2.4,Win32,143.4514417,Chrome,1920,1080,,,a,0.622,1,162,0,2,2,26,1,1,1,0,0,0,0,0,1,0,triangle,hexagon,,,,,,,,,,,,,,,,,,,,,,,,,,,,,,,,,,,,,,,,,,,,,,,,,,,,,,
294592,2022-11-27_03h11.16.439,vts_reward_expectancy_bt,2022.2.4,Win32,143.4514417,Chrome,1920,1080,,,a,1.2668,1,163,0,2,3,27,10,1,0,0,0,1,0,1,0,0,star ,circle,,,,,,,,,,,,,,,,,,,,,,,,,,,,,,,,,,,,,,,,,,,,,,,,,,,,,,
294592,2022-11-27_03h11.16.439,vts_reward_expectancy_bt,2022.2.4,Win32,143.4514417,Chrome,1920,1080,,,a,2.6005,1,164,0,2,4,28,0,1,1,0,0,0,0,1,0,0,triangle,circle,,,,,,,,,,,,,,,,,,,,,,,,,,,,,,,,,,,,,,,,,,,,,,,,,,,,,,
294592,2022-11-27_03h11.16.439,vts_reward_expectancy_bt,2022.2.4,Win32,143.4514417,Chrome,1920,1080,,,l,1.0155,1,165,0,2,5,29,5,1,0,1,0,0,0,0,0,1,circle,star,,,,,,,,,,,,,,,,,,,,,,,,,,,,,,,,,,,,,,,,,,,,,,,,,,,,,,
294592,2022-11-27_03h11.16.439,vts_reward_expectancy_bt,2022.2.4,Win32,143.4514417,Chrome,1920,1080,,,a,2.0462,10,175,0,2,6,30,11,1,0,0,0,1,0,0,1,0,star,hexagon,,,,,,,,,,,,,,,,,,,,,,,,,,,,,,,,,,,,,,,,,,,,,,,,,,,,,,
294592,2022-11-27_03h11.16.439,vts_reward_expectancy_bt,2022.2.4,Win32,143.4514417,Chrome,1920,1080,,,a,1.1569,1,176,0,2,7,31,7,1,0,0,1,0,0,1,0,0,hexagon,circle,,,,,,,,,,,,,,,,,,,,,,,,,,,,,,,,,,,,,,,,,,,,,,,,,,,,,,
294592,2022-11-27_03h11.16.439,vts_reward_expectancy_bt,2022.2.4,Win32,143.4514417,Chrome,1920,1080,,,l,2.5427,10,186,0,2,8,32,2,1,1,0,0,0,0,0,0,1,triangle,star,,,,,,,,,,,,,,,,,,,,,,,,,,,,,,,,,,,,,,,,,,,,,,,,,,,,,,
294592,2022-11-27_03h11.16.439,vts_reward_expectancy_bt,2022.2.4,Win32,143.4514417,Chrome,1920,1080,,,l,0.6667,10,196,0,2,9,33,8,1,0,0,1,0,0,0,0,1,hexagon,star,,,,,,,,,,,,,,,,,,,,,,,,,,,,,,,,,,,,,,,,,,,,,,,,,,,,,,
294592,2022-11-27_03h11.16.439,vts_reward_expectancy_bt,2022.2.4,Win32,143.4514417,Chrome,1920,1080,,,l,1.2863,10,206,0,2,10,34,4,1,0,1,0,0,0,0,1,0,circle,hexagon,,,,,,,,,,,,,,,,,,,,,,,,,,,,,,,,,,,,,,,,,,,,,,,,,,,,,,
294592,2022-11-27_03h11.16.439,vts_reward_expectancy_bt,2022.2.4,Win32,143.4514417,Chrome,1920,1080,,,l,1.434,1,207,0,2,11,35,6,1,0,0,1,0,1,0,0,0,hexagon,triangle,,,,,,,,,,,,,,,,,,,,,,,,,,,,,,,,,,,,,,,,,,,,,,,,,,,,,,
294592,2022-11-27_03h11.16.439,vts_reward_expectancy_bt,2022.2.4,Win32,143.4514417,Chrome,1920,1080,,,a,0.9679,10,217,1,0,0,0,9,1,0,0,0,1,1,0,0,0,star,triangle,,,,,,,,,,,,,,,,,,,,,,,,,,,,,,,,,,,,,,,,,,,,,,,,,,,,,,
294592,2022-11-27_03h11.16.439,vts_reward_expectancy_bt,2022.2.4,Win32,143.4514417,Chrome,1920,1080,,,l,1.9233,1,218,1,0,1,1,4,1,0,1,0,0,0,0,1,0,circle,hexagon,,,,,,,,,,,,,,,,,,,,,,,,,,,,,,,,,,,,,,,,,,,,,,,,,,,,,,
294592,2022-11-27_03h11.16.439,vts_reward_expectancy_bt,2022.2.4,Win32,143.4514417,Chrome,1920,1080,,,a,0.4867,1,219,1,0,2,2,10,1,0,0,0,1,0,1,0,0,star ,circle,,,,,,,,,,,,,,,,,,,,,,,,,,,,,,,,,,,,,,,,,,,,,,,,,,,,,,
294592,2022-11-27_03h11.16.439,vts_reward_expectancy_bt,2022.2.4,Win32,143.4514417,Chrome,1920,1080,,,a,0.7046,10,229,1,0,3,3,7,1,0,0,1,0,0,1,0,0,hexagon,circle,,,,,,,,,,,,,,,,,,,,,,,,,,,,,,,,,,,,,,,,,,,,,,,,,,,,,,
294592,2022-11-27_03h11.16.439,vts_reward_expectancy_bt,2022.2.4,Win32,143.4514417,Chrome,1920,1080,,,a,1.0426,10,239,1,0,4,4,6,1,0,0,1,0,1,0,0,0,hexagon,triangle,,,,,,,,,,,,,,,,,,,,,,,,,,,,,,,,,,,,,,,,,,,,,,,,,,,,,,
294592,2022-11-27_03h11.16.439,vts_reward_expectancy_bt,2022.2.4,Win32,143.4514417,Chrome,1920,1080,,,a,2.4941,1,240,1,0,5,5,11,1,0,0,0,1,0,0,1,0,star,hexagon,,,,,,,,,,,,,,,,,,,,,,,,,,,,,,,,,,,,,,,,,,,,,,,,,,,,,,
294592,2022-11-27_03h11.16.439,vts_reward_expectancy_bt,2022.2.4,Win32,143.4514417,Chrome,1920,1080,,,l,0.8397,1,241,1,0,6,6,5,1,0,1,0,0,0,0,0,1,circle,star,,,,,,,,,,,,,,,,,,,,,,,,,,,,,,,,,,,,,,,,,,,,,,,,,,,,,,
294592,2022-11-27_03h11.16.439,vts_reward_expectancy_bt,2022.2.4,Win32,143.4514417,Chrome,1920,1080,,,l,2.8068,10,251,1,0,7,7,3,1,0,1,0,0,1,0,0,0,circle,triangle,,,,,,,,,,,,,,,,,,,,,,,,,,,,,,,,,,,,,,,,,,,,,,,,,,,,,,
294592,2022-11-27_03h11.16.439,vts_reward_expectancy_bt,2022.2.4,Win32,143.4514417,Chrome,1920,1080,,,a,1.4733,10,261,1,0,8,8,1,1,1,0,0,0,0,0,1,0,triangle,hexagon,,,,,,,,,,,,,,,,,,,,,,,,,,,,,,,,,,,,,,,,,,,,,,,,,,,,,,
294592,2022-11-27_03h11.16.439,vts_reward_expectancy_bt,2022.2.4,Win32,143.4514417,Chrome,1920,1080,,,l,1.0481,1,262,1,0,9,9,2,1,1,0,0,0,0,0,0,1,triangle,star,,,,,,,,,,,,,,,,,,,,,,,,,,,,,,,,,,,,,,,,,,,,,,,,,,,,,,
294592,2022-11-27_03h11.16.439,vts_reward_expectancy_bt,2022.2.4,Win32,143.4514417,Chrome,1920,1080,,,l,0.9114,10,272,1,0,10,10,0,1,1,0,0,0,0,1,0,0,triangle,circle,,,,,,,,,,,,,,,,,,,,,,,,,,,,,,,,,,,,,,,,,,,,,,,,,,,,,,
294592,2022-11-27_03h11.16.439,vts_reward_expectancy_bt,2022.2.4,Win32,143.4514417,Chrome,1920,1080,,,l,1.0836,1,273,1,0,11,11,8,1,0,0,1,0,0,0,0,1,hexagon,star,,,,,,,,,,,,,,,,,,,,,,,,,,,,,,,,,,,,,,,,,,,,,,,,,,,,,,
294592,2022-11-27_03h11.16.439,vts_reward_expectancy_bt,2022.2.4,Win32,143.4514417,Chrome,1920,1080,,,l,1.3563,10,283,1,1,0,12,0,1,1,0,0,0,0,1,0,0,triangle,circle,,,,,,,,,,,,,,,,,,,,,,,,,,,,,,,,,,,,,,,,,,,,,,,,,,,,,,
294592,2022-11-27_03h11.16.439,vts_reward_expectancy_bt,2022.2.4,Win32,143.4514417,Chrome,1920,1080,,,a,1.1546,10,293,1,1,1,13,4,1,0,1,0,0,0,0,1,0,circle,hexagon,,,,,,,,,,,,,,,,,,,,,,,,,,,,,,,,,,,,,,,,,,,,,,,,,,,,,,
294592,2022-11-27_03h11.16.439,vts_reward_expectancy_bt,2022.2.4,Win32,143.4514417,Chrome,1920,1080,,,a,1.1193,1,294,1,1,2,14,1,1,1,0,0,0,0,0,1,0,triangle,hexagon,,,,,,,,,,,,,,,,,,,,,,,,,,,,,,,,,,,,,,,,,,,,,,,,,,,,,,
294592,2022-11-27_03h11.16.439,vts_reward_expectancy_bt,2022.2.4,Win32,143.4514417,Chrome,1920,1080,,,l,0.8279,1,295,1,1,3,15,7,1,0,0,1,0,0,1,0,0,hexagon,circle,,,,,,,,,,,,,,,,,,,,,,,,,,,,,,,,,,,,,,,,,,,,,,,,,,,,,,
294592,2022-11-27_03h11.16.439,vts_reward_expectancy_bt,2022.2.4,Win32,143.4514417,Chrome,1920,1080,,,a,1.3051,1,296,1,1,4,16,8,1,0,0,1,0,0,0,0,1,hexagon,star,,,,,,,,,,,,,,,,,,,,,,,,,,,,,,,,,,,,,,,,,,,,,,,,,,,,,,
294592,2022-11-27_03h11.16.439,vts_reward_expectancy_bt,2022.2.4,Win32,143.4514417,Chrome,1920,1080,,,a,1.4878,1,297,1,1,5,17,11,1,0,0,0,1,0,0,1,0,star,hexagon,,,,,,,,,,,,,,,,,,,,,,,,,,,,,,,,,,,,,,,,,,,,,,,,,,,,,,
294592,2022-11-27_03h11.16.439,vts_reward_expectancy_bt,2022.2.4,Win32,143.4514417,Chrome,1920,1080,,,l,1.0307,1,298,1,1,6,18,10,1,0,0,0,1,0,1,0,0,star ,circle,,,,,,,,,,,,,,,,,,,,,,,,,,,,,,,,,,,,,,,,,,,,,,,,,,,,,,
294592,2022-11-27_03h11.16.439,vts_reward_expectancy_bt,2022.2.4,Win32,143.4514417,Chrome,1920,1080,,,l,0.6604,10,308,1,1,7,19,5,1,0,1,0,0,0,0,0,1,circle,star,,,,,,,,,,,,,,,,,,,,,,,,,,,,,,,,,,,,,,,,,,,,,,,,,,,,,,
294592,2022-11-27_03h11.16.439,vts_reward_expectancy_bt,2022.2.4,Win32,143.4514417,Chrome,1920,1080,,,l,0.9931,1,309,1,1,8,20,9,1,0,0,0,1,1,0,0,0,star,triangle,,,,,,,,,,,,,,,,,,,,,,,,,,,,,,,,,,,,,,,,,,,,,,,,,,,,,,
294592,2022-11-27_03h11.16.439,vts_reward_expectancy_bt,2022.2.4,Win32,143.4514417,Chrome,1920,1080,,,l,0.9788,1,310,1,1,9,21,2,1,1,0,0,0,0,0,0,1,triangle,star,,,,,,,,,,,,,,,,,,,,,,,,,,,,,,,,,,,,,,,,,,,,,,,,,,,,,,
294592,2022-11-27_03h11.16.439,vts_reward_expectancy_bt,2022.2.4,Win32,143.4514417,Chrome,1920,1080,,,a,0.7491,10,320,1,1,10,22,6,1,0,0,1,0,1,0,0,0,hexagon,triangle,,,,,,,,,,,,,,,,,,,,,,,,,,,,,,,,,,,,,,,,,,,,,,,,,,,,,,
294592,2022-11-27_03h11.16.439,vts_reward_expectancy_bt,2022.2.4,Win32,143.4514417,Chrome,1920,1080,,,l,0.712,1,321,1,1,11,23,3,1,0,1,0,0,1,0,0,0,circle,triangle,,,,,,,,,,,,,,,,,,,,,,,,,,,,,,,,,,,,,,,,,,,,,,,,,,,,,,
294592,2022-11-27_03h11.16.439,vts_reward_expectancy_bt,2022.2.4,Win32,143.4514417,Chrome,1920,1080,,,l,1.1049,10,331,1,2,0,24,4,1,0,1,0,0,0,0,1,0,circle,hexagon,,,,,,,,,,,,,,,,,,,,,,,,,,,,,,,,,,,,,,,,,,,,,,,,,,,,,,
294592,2022-11-27_03h11.16.439,vts_reward_expectancy_bt,2022.2.4,Win32,143.4514417,Chrome,1920,1080,,,a,0.8792,1,332,1,2,1,25,7,1,0,0,1,0,0,1,0,0,hexagon,circle,,,,,,,,,,,,,,,,,,,,,,,,,,,,,,,,,,,,,,,,,,,,,,,,,,,,,,
294592,2022-11-27_03h11.16.439,vts_reward_expectancy_bt,2022.2.4,Win32,143.4514417,Chrome,1920,1080,,,a,1.0411,1,333,1,2,2,26,5,1,0,1,0,0,0,0,0,1,circle,star,,,,,,,,,,,,,,,,,,,,,,,,,,,,,,,,,,,,,,,,,,,,,,,,,,,,,,
294592,2022-11-27_03h11.16.439,vts_reward_expectancy_bt,2022.2.4,Win32,143.4514417,Chrome,1920,1080,,,l,0.6317,1,334,1,2,3,27,0,1,1,0,0,0,0,1,0,0,triangle,circle,,,,,,,,,,,,,,,,,,,,,,,,,,,,,,,,,,,,,,,,,,,,,,,,,,,,,,
294592,2022-11-27_03h11.16.439,vts_reward_expectancy_bt,2022.2.4,Win32,143.4514417,Chrome,1920,1080,,,a,0.5138,10,344,1,2,4,28,1,1,1,0,0,0,0,0,1,0,triangle,hexagon,,,,,,,,,,,,,,,,,,,,,,,,,,,,,,,,,,,,,,,,,,,,,,,,,,,,,,
294592,2022-11-27_03h11.16.439,vts_reward_expectancy_bt,2022.2.4,Win32,143.4514417,Chrome,1920,1080,,,l,0.8021,1,345,1,2,5,29,6,1,0,0,1,0,1,0,0,0,hexagon,triangle,,,,,,,,,,,,,,,,,,,,,,,,,,,,,,,,,,,,,,,,,,,,,,,,,,,,,,
294592,2022-11-27_03h11.16.439,vts_reward_expectancy_bt,2022.2.4,Win32,143.4514417,Chrome,1920,1080,,,l,1.3195,10,355,1,2,6,30,8,1,0,0,1,0,0,0,0,1,hexagon,star,,,,,,,,,,,,,,,,,,,,,,,,,,,,,,,,,,,,,,,,,,,,,,,,,,,,,,
294592,2022-11-27_03h11.16.439,vts_reward_expectancy_bt,2022.2.4,Win32,143.4514417,Chrome,1920,1080,,,l,0.8964,1,356,1,2,7,31,3,1,0,1,0,0,1,0,0,0,circle,triangle,,,,,,,,,,,,,,,,,,,,,,,,,,,,,,,,,,,,,,,,,,,,,,,,,,,,,,
294592,2022-11-27_03h11.16.439,vts_reward_expectancy_bt,2022.2.4,Win32,143.4514417,Chrome,1920,1080,,,l,0.8819,10,366,1,2,8,32,9,1,0,0,0,1,1,0,0,0,star,triangle,,,,,,,,,,,,,,,,,,,,,,,,,,,,,,,,,,,,,,,,,,,,,,,,,,,,,,
294592,2022-11-27_03h11.16.439,vts_reward_expectancy_bt,2022.2.4,Win32,143.4514417,Chrome,1920,1080,,,a,0.6319,10,376,1,2,9,33,10,1,0,0,0,1,0,1,0,0,star ,circle,,,,,,,,,,,,,,,,,,,,,,,,,,,,,,,,,,,,,,,,,,,,,,,,,,,,,,
294592,2022-11-27_03h11.16.439,vts_reward_expectancy_bt,2022.2.4,Win32,143.4514417,Chrome,1920,1080,,,a,0.7095,10,386,1,2,10,34,11,1,0,0,0,1,0,0,1,0,star,hexagon,,,,,,,,,,,,,,,,,,,,,,,,,,,,,,,,,,,,,,,,,,,,,,,,,,,,,,
294592,2022-11-27_03h11.16.439,vts_reward_expectancy_bt,2022.2.4,Win32,143.4514417,Chrome,1920,1080,,,l,0.5224,1,387,1,2,11,35,2,1,1,0,0,0,0,0,0,1,triangle,star,,,,,,,,,,,,,,,,,,,,,,,,,,,,,,,,,,,,,,,,,,,,,,,,,,,,,,
294592,2022-11-27_03h11.16.439,vts_reward_expectancy_bt,2022.2.4,Win32,143.4514417,Chrome,1920,1080,,,a,0.8274,10,397,2,0,0,0,0,1,1,0,0,0,0,1,0,0,triangle,circle,,,,,,,,,,,,,,,,,,,,,,,,,,,,,,,,,,,,,,,,,,,,,,,,,,,,,,
294592,2022-11-27_03h11.16.439,vts_reward_expectancy_bt,2022.2.4,Win32,143.4514417,Chrome,1920,1080,,,l,1.3131,1,398,2,0,1,1,4,1,0,1,0,0,0,0,1,0,circle,hexagon,,,,,,,,,,,,,,,,,,,,,,,,,,,,,,,,,,,,,,,,,,,,,,,,,,,,,,
294592,2022-11-27_03h11.16.439,vts_reward_expectancy_bt,2022.2.4,Win32,143.4514417,Chrome,1920,1080,,,a,1.0358,1,399,2,0,2,2,11,1,0,0,0,1,0,0,1,0,star,hexagon,,,,,,,,,,,,,,,,,,,,,,,,,,,,,,,,,,,,,,,,,,,,,,,,,,,,,,
294592,2022-11-27_03h11.16.439,vts_reward_expectancy_bt,2022.2.4,Win32,143.4514417,Chrome,1920,1080,,,l,0.5993,1,400,2,0,3,3,3,1,0,1,0,0,1,0,0,0,circle,triangle,,,,,,,,,,,,,,,,,,,,,,,,,,,,,,,,,,,,,,,,,,,,,,,,,,,,,,
294592,2022-11-27_03h11.16.439,vts_reward_expectancy_bt,2022.2.4,Win32,143.4514417,Chrome,1920,1080,,,a,0.8619,10,410,2,0,4,4,6,1,0,0,1,0,1,0,0,0,hexagon,triangle,,,,,,,,,,,,,,,,,,,,,,,,,,,,,,,,,,,,,,,,,,,,,,,,,,,,,,
294592,2022-11-27_03h11.16.439,vts_reward_expectancy_bt,2022.2.4,Win32,143.4514417,Chrome,1920,1080,,,l,1.6563,10,420,2,0,5,5,2,1,1,0,0,0,0,0,0,1,triangle,star,,,,,,,,,,,,,,,,,,,,,,,,,,,,,,,,,,,,,,,,,,,,,,,,,,,,,,
294592,2022-11-27_03h11.16.439,vts_reward_expectancy_bt,2022.2.4,Win32,143.4514417,Chrome,1920,1080,,,l,0.9937,10,430,2,0,6,6,10,1,0,0,0,1,0,1,0,0,star ,circle,,,,,,,,,,,,,,,,,,,,,,,,,,,,,,,,,,,,,,,,,,,,,,,,,,,,,,
294592,2022-11-27_03h11.16.439,vts_reward_expectancy_bt,2022.2.4,Win32,143.4514417,Chrome,1920,1080,,,a,1.2777,10,440,2,0,7,7,9,1,0,0,0,1,1,0,0,0,star,triangle,,,,,,,,,,,,,,,,,,,,,,,,,,,,,,,,,,,,,,,,,,,,,,,,,,,,,,
294592,2022-11-27_03h11.16.439,vts_reward_expectancy_bt,2022.2.4,Win32,143.4514417,Chrome,1920,1080,,,l,1.0552,1,441,2,0,8,8,8,1,0,0,1,0,0,0,0,1,hexagon,star,,,,,,,,,,,,,,,,,,,,,,,,,,,,,,,,,,,,,,,,,,,,,,,,,,,,,,
294592,2022-11-27_03h11.16.439,vts_reward_expectancy_bt,2022.2.4,Win32,143.4514417,Chrome,1920,1080,,,l,0.9102,10,451,2,0,9,9,1,1,1,0,0,0,0,0,1,0,triangle,hexagon,,,,,,,,,,,,,,,,,,,,,,,,,,,,,,,,,,,,,,,,,,,,,,,,,,,,,,
294592,2022-11-27_03h11.16.439,vts_reward_expectancy_bt,2022.2.4,Win32,143.4514417,Chrome,1920,1080,,,l,1.2288,10,461,2,0,10,10,7,1,0,0,1,0,0,1,0,0,hexagon,circle,,,,,,,,,,,,,,,,,,,,,,,,,,,,,,,,,,,,,,,,,,,,,,,,,,,,,,
294592,2022-11-27_03h11.16.439,vts_reward_expectancy_bt,2022.2.4,Win32,143.4514417,Chrome,1920,1080,,,a,2.0374,10,471,2,0,11,11,5,1,0,1,0,0,0,0,0,1,circle,star,,,,,,,,,,,,,,,,,,,,,,,,,,,,,,,,,,,,,,,,,,,,,,,,,,,,,,
294592,2022-11-27_03h11.16.439,vts_reward_expectancy_bt,2022.2.4,Win32,143.4514417,Chrome,1920,1080,,,a,0.8974,10,481,2,1,0,12,6,1,0,0,1,0,1,0,0,0,hexagon,triangle,,,,,,,,,,,,,,,,,,,,,,,,,,,,,,,,,,,,,,,,,,,,,,,,,,,,,,
294592,2022-11-27_03h11.16.439,vts_reward_expectancy_bt,2022.2.4,Win32,143.4514417,Chrome,1920,1080,,,l,1.3619,10,491,2,1,1,13,2,1,1,0,0,0,0,0,0,1,triangle,star,,,,,,,,,,,,,,,,,,,,,,,,,,,,,,,,,,,,,,,,,,,,,,,,,,,,,,
294592,2022-11-27_03h11.16.439,vts_reward_expectancy_bt,2022.2.4,Win32,143.4514417,Chrome,1920,1080,,,l,1.1331,1,492,2,1,2,14,10,1,0,0,0,1,0,1,0,0,star ,circle,,,,,,,,,,,,,,,,,,,,,,,,,,,,,,,,,,,,,,,,,,,,,,,,,,,,,,
294592,2022-11-27_03h11.16.439,vts_reward_expectancy_bt,2022.2.4,Win32,143.4514417,Chrome,1920,1080,,,a,1.0211,1,493,2,1,3,15,7,1,0,0,1,0,0,1,0,0,hexagon,circle,,,,,,,,,,,,,,,,,,,,,,,,,,,,,,,,,,,,,,,,,,,,,,,,,,,,,,
294592,2022-11-27_03h11.16.439,vts_reward_expectancy_bt,2022.2.4,Win32,143.4514417,Chrome,1920,1080,,,l,1.8201,1,494,2,1,4,16,5,1,0,1,0,0,0,0,0,1,circle,star,,,,,,,,,,,,,,,,,,,,,,,,,,,,,,,,,,,,,,,,,,,,,,,,,,,,,,
294592,2022-11-27_03h11.16.439,vts_reward_expectancy_bt,2022.2.4,Win32,143.4514417,Chrome,1920,1080,,,l,1.0969,10,504,2,1,5,17,11,1,0,0,0,1,0,0,1,0,star,hexagon,,,,,,,,,,,,,,,,,,,,,,,,,,,,,,,,,,,,,,,,,,,,,,,,,,,,,,
294592,2022-11-27_03h11.16.439,vts_reward_expectancy_bt,2022.2.4,Win32,143.4514417,Chrome,1920,1080,,,a,1.2947,10,514,2,1,6,18,3,1,0,1,0,0,1,0,0,0,circle,triangle,,,,,,,,,,,,,,,,,,,,,,,,,,,,,,,,,,,,,,,,,,,,,,,,,,,,,,
294592,2022-11-27_03h11.16.439,vts_reward_expectancy_bt,2022.2.4,Win32,143.4514417,Chrome,1920,1080,,,l,0.6472,1,515,2,1,7,19,0,1,1,0,0,0,0,1,0,0,triangle,circle,,,,,,,,,,,,,,,,,,,,,,,,,,,,,,,,,,,,,,,,,,,,,,,,,,,,,,
294592,2022-11-27_03h11.16.439,vts_reward_expectancy_bt,2022.2.4,Win32,143.4514417,Chrome,1920,1080,,,a,3.6042,1,516,2,1,8,20,8,1,0,0,1,0,0,0,0,1,hexagon,star,,,,,,,,,,,,,,,,,,,,,,,,,,,,,,,,,,,,,,,,,,,,,,,,,,,,,,
294592,2022-11-27_03h11.16.439,vts_reward_expectancy_bt,2022.2.4,Win32,143.4514417,Chrome,1920,1080,,,a,1.9462,10,526,2,1,9,21,9,1,0,0,0,1,1,0,0,0,star,triangle,,,,,,,,,,,,,,,,,,,,,,,,,,,,,,,,,,,,,,,,,,,,,,,,,,,,,,
294592,2022-11-27_03h11.16.439,vts_reward_expectancy_bt,2022.2.4,Win32,143.4514417,Chrome,1920,1080,,,l,1.5485,10,536,2,1,10,22,4,1,0,1,0,0,0,0,1,0,circle,hexagon,,,,,,,,,,,,,,,,,,,,,,,,,,,,,,,,,,,,,,,,,,,,,,,,,,,,,,
294592,2022-11-27_03h11.16.439,vts_reward_expectancy_bt,2022.2.4,Win32,143.4514417,Chrome,1920,1080,,,l,0.8049,10,546,2,1,11,23,1,1,1,0,0,0,0,0,1,0,triangle,hexagon,,,,,,,,,,,,,,,,,,,,,,,,,,,,,,,,,,,,,,,,,,,,,,,,,,,,,,
294592,2022-11-27_03h11.16.439,vts_reward_expectancy_bt,2022.2.4,Win32,143.4514417,Chrome,1920,1080,,,a,1.9117,10,556,2,2,0,24,9,1,0,0,0,1,1,0,0,0,star,triangle,,,,,,,,,,,,,,,,,,,,,,,,,,,,,,,,,,,,,,,,,,,,,,,,,,,,,,
294592,2022-11-27_03h11.16.439,vts_reward_expectancy_bt,2022.2.4,Win32,143.4514417,Chrome,1920,1080,,,l,1.5691,10,566,2,2,1,25,11,1,0,0,0,1,0,0,1,0,star,hexagon,,,,,,,,,,,,,,,,,,,,,,,,,,,,,,,,,,,,,,,,,,,,,,,,,,,,,,
294592,2022-11-27_03h11.16.439,vts_reward_expectancy_bt,2022.2.4,Win32,143.4514417,Chrome,1920,1080,,,l,4.9796,10,576,2,2,2,26,1,1,1,0,0,0,0,0,1,0,triangle,hexagon,,,,,,,,,,,,,,,,,,,,,,,,,,,,,,,,,,,,,,,,,,,,,,,,,,,,,,
294592,2022-11-27_03h11.16.439,vts_reward_expectancy_bt,2022.2.4,Win32,143.4514417,Chrome,1920,1080,,,a,0.6879,10,586,2,2,3,27,6,1,0,0,1,0,1,0,0,0,hexagon,triangle,,,,,,,,,,,,,,,,,,,,,,,,,,,,,,,,,,,,,,,,,,,,,,,,,,,,,,
294592,2022-11-27_03h11.16.439,vts_reward_expectancy_bt,2022.2.4,Win32,143.4514417,Chrome,1920,1080,,,l,1.1809,10,596,2,2,4,28,2,1,1,0,0,0,0,0,0,1,triangle,star,,,,,,,,,,,,,,,,,,,,,,,,,,,,,,,,,,,,,,,,,,,,,,,,,,,,,,
294592,2022-11-27_03h11.16.439,vts_reward_expectancy_bt,2022.2.4,Win32,143.4514417,Chrome,1920,1080,,,a,0.7912,1,597,2,2,5,29,7,1,0,0,1,0,0,1,0,0,hexagon,circle,,,,,,,,,,,,,,,,,,,,,,,,,,,,,,,,,,,,,,,,,,,,,,,,,,,,,,
294592,2022-11-27_03h11.16.439,vts_reward_expectancy_bt,2022.2.4,Win32,143.4514417,Chrome,1920,1080,,,l,0.944,10,607,2,2,6,30,5,1,0,1,0,0,0,0,0,1,circle,star,,,,,,,,,,,,,,,,,,,,,,,,,,,,,,,,,,,,,,,,,,,,,,,,,,,,,,
294592,2022-11-27_03h11.16.439,vts_reward_expectancy_bt,2022.2.4,Win32,143.4514417,Chrome,1920,1080,,,l,1.302,1,608,2,2,7,31,4,1,0,1,0,0,0,0,1,0,circle,hexagon,,,,,,,,,,,,,,,,,,,,,,,,,,,,,,,,,,,,,,,,,,,,,,,,,,,,,,
294592,2022-11-27_03h11.16.439,vts_reward_expectancy_bt,2022.2.4,Win32,143.4514417,Chrome,1920,1080,,,l,0.5036,10,618,2,2,8,32,3,1,0,1,0,0,1,0,0,0,circle,triangle,,,,,,,,,,,,,,,,,,,,,,,,,,,,,,,,,,,,,,,,,,,,,,,,,,,,,,
294592,2022-11-27_03h11.16.439,vts_reward_expectancy_bt,2022.2.4,Win32,143.4514417,Chrome,1920,1080,,,a,0.7093,1,619,2,2,9,33,0,1,1,0,0,0,0,1,0,0,triangle,circle,,,,,,,,,,,,,,,,,,,,,,,,,,,,,,,,,,,,,,,,,,,,,,,,,,,,,,
294592,2022-11-27_03h11.16.439,vts_reward_expectancy_bt,2022.2.4,Win32,143.4514417,Chrome,1920,1080,,,a,1.3617,1,620,2,2,10,34,10,1,0,0,0,1,0,1,0,0,star ,circle,,,,,,,,,,,,,,,,,,,,,,,,,,,,,,,,,,,,,,,,,,,,,,,,,,,,,,
294592,2022-11-27_03h11.16.439,vts_reward_expectancy_bt,2022.2.4,Win32,143.4514417,Chrome,1920,1080,,,a,1.3422,1,621,2,2,11,35,8,1,0,0,1,0,0,0,0,1,hexagon,star,,,,,,,,,,,,,,,,,,,,,,,,,,,,,,,,,,,,,,,,,,,,,,,,,,,,,,
294592,2022-11-27_03h11.16.439,vts_reward_expectancy_bt,2022.2.4,Win32,143.4514417,Chrome,1920,1080,,,,,,,,,,,,,,,,,,,,,,,181,F,hexagon,1,0,f,2.8822,0,0,0,0,0,1,,,,,,,,,,,,,,,,,,,,,,,,,,,,,,,,,,,,,,,,,
294592,2022-11-27_03h11.16.439,vts_reward_expectancy_bt,2022.2.4,Win32,143.4514417,Chrome,1920,1080,,,,,,,,,,,,,,,,,,,,,,,132,D,triangle,1,0,d,1.6753,0,1,0,1,0,1,,,,,,,,,,,,,,,,,,,,,,,,,,,,,,,,,,,,,,,,,
294592,2022-11-27_03h11.16.439,vts_reward_expectancy_bt,2022.2.4,Win32,143.4514417,Chrome,1920,1080,,,,,,,,,,,,,,,,,,,,,,,139,H,circle,1,0,d,1.3267,0,2,0,2,0,1,,,,,,,,,,,,,,,,,,,,,,,,,,,,,,,,,,,,,,,,,
294592,2022-11-27_03h11.16.439,vts_reward_expectancy_bt,2022.2.4,Win32,143.4514417,Chrome,1920,1080,,,,,,,,,,,,,,,,,,,,,,,146,Y,star,1,0,d,0.8499,0,3,0,3,0,1,,,,,,,,,,,,,,,,,,,,,,,,,,,,,,,,,,,,,,,,,
294592,2022-11-27_03h11.16.439,vts_reward_expectancy_bt,2022.2.4,Win32,143.4514417,Chrome,1920,1080,,,,,,,,,,,,,,,,,,,,,,,174,U,hexagon,1,0,f,0.7229,0,4,0,4,0,1,,,,,,,,,,,,,,,,,,,,,,,,,,,,,,,,,,,,,,,,,
294592,2022-11-27_03h11.16.439,vts_reward_expectancy_bt,2022.2.4,Win32,143.4514417,Chrome,1920,1080,,,,,,,,,,,,,,,,,,,,,,,167,B,triangle,1,0,f,0.8504,0,5,0,5,0,1,,,,,,,,,,,,,,,,,,,,,,,,,,,,,,,,,,,,,,,,,
294592,2022-11-27_03h11.16.439,vts_reward_expectancy_bt,2022.2.4,Win32,143.4514417,Chrome,1920,1080,,,,,,,,,,,,,,,,,,,,,,,125,W,circle,1,0,d,0.5797,0,6,0,6,0,1,,,,,,,,,,,,,,,,,,,,,,,,,,,,,,,,,,,,,,,,,
294592,2022-11-27_03h11.16.439,vts_reward_expectancy_bt,2022.2.4,Win32,143.4514417,Chrome,1920,1080,,,,,,,,,,,,,,,,,,,,,,,160,S,star,1,0,f,0.5003,0,7,0,7,0,1,,,,,,,,,,,,,,,,,,,,,,,,,,,,,,,,,,,,,,,,,
294592,2022-11-27_03h11.16.439,vts_reward_expectancy_bt,2022.2.4,Win32,143.4514417,Chrome,1920,1080,,,,,,,,,,,,,,,,,,,,,,,181,F,triangle,1,0,f,0.5344,0,8,0,8,0,1,,,,,,,,,,,,,,,,,,,,,,,,,,,,,,,,,,,,,,,,,
294592,2022-11-27_03h11.16.439,vts_reward_expectancy_bt,2022.2.4,Win32,143.4514417,Chrome,1920,1080,,,,,,,,,,,,,,,,,,,,,,,132,D,hexagon,1,0,d,1.9588,0,9,0,9,0,1,,,,,,,,,,,,,,,,,,,,,,,,,,,,,,,,,,,,,,,,,
294592,2022-11-27_03h11.16.439,vts_reward_expectancy_bt,2022.2.4,Win32,143.4514417,Chrome,1920,1080,,,,,,,,,,,,,,,,,,,,,,,125,W,triangle,1,0,,,1,,,,,,k,1.6958,0,0,0,0,1,,,,,,,,,,,,,,,,,,,,,,,,,,,,,,,,,,
294592,2022-11-27_03h11.16.439,vts_reward_expectancy_bt,2022.2.4,Win32,143.4514417,Chrome,1920,1080,,,,,,,,,,,,,,,,,,,,,,,146,Y,hexagon,1,0,,,1,,,,,,k,0.8819,1,0,1,0,1,,,,,,,,,,,,,,,,,,,,,,,,,,,,,,,,,,
294592,2022-11-27_03h11.16.439,vts_reward_expectancy_bt,2022.2.4,Win32,143.4514417,Chrome,1920,1080,,,,,,,,,,,,,,,,,,,,,,,132,F,circle,1,0,,,1,,,,,,j,1.1395,2,0,2,0,1,,,,,,,,,,,,,,,,,,,,,,,,,,,,,,,,,,
294592,2022-11-27_03h11.16.439,vts_reward_expectancy_bt,2022.2.4,Win32,143.4514417,Chrome,1920,1080,,,,,,,,,,,,,,,,,,,,,,,174,H,star,1,0,,,1,,,,,,j,1.4808,3,0,3,0,1,,,,,,,,,,,,,,,,,,,,,,,,,,,,,,,,,,
294592,2022-11-27_03h11.16.439,vts_reward_expectancy_bt,2022.2.4,Win32,143.4514417,Chrome,1920,1080,,,,,,,,,,,,,,,,,,,,,,,139,S,triangle,1,0,,,1,,,,,,k,2.1106,4,0,4,0,1,,,,,,,,,,,,,,,,,,,,,,,,,,,,,,,,,,
294592,2022-11-27_03h11.16.439,vts_reward_expectancy_bt,2022.2.4,Win32,143.4514417,Chrome,1920,1080,,,,,,,,,,,,,,,,,,,,,,,167,B,hexagon,1,0,,,1,,,,,,j,0.9892,5,0,5,0,1,,,,,,,,,,,,,,,,,,,,,,,,,,,,,,,,,,
294592,2022-11-27_03h11.16.439,vts_reward_expectancy_bt,2022.2.4,Win32,143.4514417,Chrome,1920,1080,,,,,,,,,,,,,,,,,,,,,,,160,U,circle,1,0,,,1,,,,,,k,0.8203,6,0,6,0,1,,,,,,,,,,,,,,,,,,,,,,,,,,,,,,,,,,
294592,2022-11-27_03h11.16.439,vts_reward_expectancy_bt,2022.2.4,Win32,143.4514417,Chrome,1920,1080,,,,,,,,,,,,,,,,,,,,,,,181,D,star,1,0,,,1,,,,,,j,0.7217,7,0,7,0,1,,,,,,,,,,,,,,,,,,,,,,,,,,,,,,,,,,
294592,2022-11-27_03h11.16.439,vts_reward_expectancy_bt,2022.2.4,Win32,143.4514417,Chrome,1920,1080,,,,,,,,,,,,,,,,,,,,,,,125,W,star,1,0,,,1,,,,,,k,0.9022,8,0,8,0,1,,,,,,,,,,,,,,,,,,,,,,,,,,,,,,,,,,
294592,2022-11-27_03h11.16.439,vts_reward_expectancy_bt,2022.2.4,Win32,143.4514417,Chrome,1920,1080,,,,,,,,,,,,,,,,,,,,,,,146,Y,circle,1,0,,,1,,,,,,k,0.612,9,0,9,0,1,,,,,,,,,,,,,,,,,,,,,,,,,,,,,,,,,,
294592,2022-11-27_03h11.16.439,vts_reward_expectancy_bt,2022.2.4,Win32,143.4514417,Chrome,1920,1080,,,,,0,621,,,,,,,,,,,,,,,,,160,Y,hexagon,-1,0,,,2,,,,,,,,,,,,,-1,no_choice,NA,,vtsPrac,0,0,0,0,1,,,,,,,,,,,,,,,,,,,,,,,,
294592,2022-11-27_03h11.16.439,vts_reward_expectancy_bt,2022.2.4,Win32,143.4514417,Chrome,1920,1080,,,,,0,621,,,,,,,,,,,,,,,,,181,F,circle,1,0,,,2,,,,,,,,,,,,,switch,number,numSwt,f,vtsPrac,1,0,1,0,1,2.4949,,,,,,,,,,,,,,,,,,,,,,,
294592,2022-11-27_03h11.16.439,vts_reward_expectancy_bt,2022.2.4,Win32,143.4514417,Chrome,1920,1080,,,,,0,621,,,,,,,,,,,,,,,,,125,W,hexagon,1,0,,,2,,,,,,,,,,,,,switch,letter,lettSwt,k,vtsPrac,2,0,2,0,1,2.1064,,,,,,,,,,,,,,,,,,,,,,,
294592,2022-11-27_03h11.16.439,vts_reward_expectancy_bt,2022.2.4,Win32,143.4514417,Chrome,1920,1080,,,,,0,621,,,,,,,,,,,,,,,,,167,B,circle,1,0,,,2,,,,,,,,,,,,,repeat,letter,lettRpt,j,vtsPrac,3,0,3,0,1,0.9654,,,,,,,,,,,,,,,,,,,,,,,
294592,2022-11-27_03h11.16.439,vts_reward_expectancy_bt,2022.2.4,Win32,143.4514417,Chrome,1920,1080,,,,,0,621,,,,,,,,,,,,,,,,,160,Y,hexagon,1,0,,,2,,,,,,,,,,,,,switch,number,numSwt,f,vtsPrac,4,0,4,0,1,1.8056,,,,,,,,,,,,,,,,,,,,,,,
294592,2022-11-27_03h11.16.439,vts_reward_expectancy_bt,2022.2.4,Win32,143.4514417,Chrome,1920,1080,,,,,0,621,,,,,,,,,,,,,,,,,181,F,circle,1,0,,,2,,,,,,,,,,,,,repeat,number,numRpt,f,vtsPrac,5,0,5,0,1,2.0927,,,,,,,,,,,,,,,,,,,,,,,
294592,2022-11-27_03h11.16.439,vts_reward_expectancy_bt,2022.2.4,Win32,143.4514417,Chrome,1920,1080,,,,,0,621,,,,,,,,,,,,,,,,,125,W,triangle,1,0,,,2,,,,,,,,,,,,,repeat,number,numRpt,d,vtsPrac,6,0,6,0,1,1.9659,,,,,,,,,,,,,,,,,,,,,,,
294592,2022-11-27_03h11.16.439,vts_reward_expectancy_bt,2022.2.4,Win32,143.4514417,Chrome,1920,1080,,,,,0,621,,,,,,,,,,,,,,,,,167,B,hexagon,1,0,,,2,,,,,,,,,,,,,switch,letter,lettSwt,j,vtsPrac,7,0,7,0,1,1.6207,,,,,,,,,,,,,,,,,,,,,,,
294592,2022-11-27_03h11.16.439,vts_reward_expectancy_bt,2022.2.4,Win32,143.4514417,Chrome,1920,1080,,,,,0,621,,,,,,,,,,,,,,,,,174,H,hexagon,1,0,,,2,,,,,,,,,,,,,switch,number,numSwt,f,vtsPrac,8,0,8,0,1,0.9442,,,,,,,,,,,,,,,,,,,,,,,
294592,2022-11-27_03h11.16.439,vts_reward_expectancy_bt,2022.2.4,Win32,143.4514417,Chrome,1920,1080,,,,,0,621,,,,,,,,,,,,,,,,,146,D,star,1,0,,,2,,,,,,,,,,,,,switch,letter,lettSwt,j,vtsPrac,9,0,9,0,1,0.7493,,,,,,,,,,,,,,,,,,,,,,,
294592,2022-11-27_03h11.16.439,vts_reward_expectancy_bt,2022.2.4,Win32,143.4514417,Chrome,1920,1080,,,,,0,621,,,,,,,,,,,,,,,,,167,W,circle,1,0,,,2,,,,,,,,,,,,,repeat,letter,lettRpt,k,vtsPrac,10,0,10,0,1,0.6174,,,,,,,,,,,,,,,,,,,,,,,
294592,2022-11-27_03h11.16.439,vts_reward_expectancy_bt,2022.2.4,Win32,143.4514417,Chrome,1920,1080,,,,,0,621,,,,,,,,,,,,,,,,,132,F,star,1,0,,,2,,,,,,,,,,,,,repeat,letter,lettRpt,j,vtsPrac,11,0,11,0,1,0.8775,,,,,,,,,,,,,,,,,,,,,,,
294592,2022-11-27_03h11.16.439,vts_reward_expectancy_bt,2022.2.4,Win32,143.4514417,Chrome,1920,1080,,,,,0,621,,,,,,,,,,,,,,,,,160,S,triangle,1,0,,,2,,,,,,,,,,,,,switch,number,numSwt,f,vtsPrac,12,0,12,0,1,1.02,,,,,,,,,,,,,,,,,,,,,,,
294592,2022-11-27_03h11.16.439,vts_reward_expectancy_bt,2022.2.4,Win32,143.4514417,Chrome,1920,1080,,,,,0,621,,,,,,,,,,,,,,,,,174,D,star,1,0,,,2,,,,,,,,,,,,,switch,letter,lettSwt,j,vtsPrac,13,0,13,0,1,0.746,,,,,,,,,,,,,,,,,,,,,,,
294592,2022-11-27_03h11.16.439,vts_reward_expectancy_bt,2022.2.4,Win32,143.4514417,Chrome,1920,1080,,,,,0,621,,,,,,,,,,,,,,,,,146,F,star,1,0,,,2,,,,,,,,,,,,,repeat,letter,lettRpt,j,vtsPrac,14,0,14,0,1,0.5655,,,,,,,,,,,,,,,,,,,,,,,
294592,2022-11-27_03h11.16.439,vts_reward_expectancy_bt,2022.2.4,Win32,143.4514417,Chrome,1920,1080,,,,,0,621,,,,,,,,,,,,,,,,,181,B,hexagon,1,0,,,2,,,,,,,,,,,,,switch,number,numSwt,f,vtsPrac,15,0,15,0,1,0.8766,,,,,,,,,,,,,,,,,,,,,,,
294592,2022-11-27_03h11.16.439,vts_reward_expectancy_bt,2022.2.4,Win32,143.4514417,Chrome,1920,1080,,,,,0,621,,,,,,,,,,,,,,,,,125,H,hexagon,1,0,,,2,,,,,,,,,,,,,repeat,number,numRpt,d,vtsPrac,16,0,16,0,1,0.576,,,,,,,,,,,,,,,,,,,,,,,
294592,2022-11-27_03h11.16.439,vts_reward_expectancy_bt,2022.2.4,Win32,143.4514417,Chrome,1920,1080,,,,,0,621,,,,,,,,,,,,,,,,,160,W,star,1,0,,,2,,,,,,,,,,,,,repeat,number,numRpt,f,vtsPrac,17,0,17,0,1,0.7847,,,,,,,,,,,,,,,,,,,,,,,
294592,2022-11-27_03h11.16.439,vts_reward_expectancy_bt,2022.2.4,Win32,143.4514417,Chrome,1920,1080,,,,,0,621,,,,,,,,,,,,,,,,,181,D,hexagon,1,0,,,2,,,,,,,,,,,,,switch,letter,lettSwt,j,vtsPrac,18,0,18,0,1,0.7425,,,,,,,,,,,,,,,,,,,,,,,
294592,2022-11-27_03h11.16.439,vts_reward_expectancy_bt,2022.2.4,Win32,143.4514417,Chrome,1920,1080,,,,,0,621,,,,,,,,,,,,,,,,,146,Y,circle,-1,0,,,2,,,,,,,,,,,,,switch,no_choice,NA,,vtsPrac,19,0,19,0,1,,,,,,,,,,,,,,,,,,,,,,,,
294592,2022-11-27_03h11.16.439,vts_reward_expectancy_bt,2022.2.4,Win32,143.4514417,Chrome,1920,1080,,,,,0,621,,,,,,,,,,,,,,,,,132,W,circle,0,0,,,2,,,,,,,,,,,,,switch,letter,NA,j,vtsPrac,20,0,20,0,1,0.8752,,,,,,,,,,,,,,,,,,,,,,,
294592,2022-11-27_03h11.16.439,vts_reward_expectancy_bt,2022.2.4,Win32,143.4514417,Chrome,1920,1080,,,,,0,621,,,,,,,,,,,,,,,,,125,U,hexagon,1,1,,,2,,,,,,,,,,,,,switch,number,numSwt,d,vtsPrac,21,0,21,0,1,0.765,,,,,,,,,,,,,,,,,,,,,,,
294592,2022-11-27_03h11.16.439,vts_reward_expectancy_bt,2022.2.4,Win32,143.4514417,Chrome,1920,1080,,,,,0,621,,,,,,,,,,,,,,,,,167,B,triangle,1,0,,,2,,,,,,,,,,,,,switch,letter,lettSwt,j,vtsPrac,22,0,22,0,1,0.5836,,,,,,,,,,,,,,,,,,,,,,,
294592,2022-11-27_03h11.16.439,vts_reward_expectancy_bt,2022.2.4,Win32,143.4514417,Chrome,1920,1080,,,,,0,621,,,,,,,,,,,,,,,,,160,D,star,1,0,,,2,,,,,,,,,,,,,repeat,letter,lettRpt,j,vtsPrac,23,0,23,0,1,0.5833,,,,,,,,,,,,,,,,,,,,,,,
294592,2022-11-27_03h11.16.439,vts_reward_expectancy_bt,2022.2.4,Win32,143.4514417,Chrome,1920,1080,,,,,0,621,,,,,,,,,,,,,,,,,132,Y,circle,1,0,,,2,,,,,,,,,,,,,repeat,letter,lettRpt,k,vtsPrac,24,0,24,0,1,0.5271,,,,,,,,,,,,,,,,,,,,,,,
294592,2022-11-27_03h11.16.439,vts_reward_expectancy_bt,2022.2.4,Win32,143.4514417,Chrome,1920,1080,,,,,0,621,,,,,,,,,,,,,,,,,160,W,star,1,0,,,2,,,,,,,,,,,,,switch,number,numSwt,f,vtsPrac,25,0,25,0,1,0.7707,,,,,,,,,,,,,,,,,,,,,,,
294592,2022-11-27_03h11.16.439,vts_reward_expectancy_bt,2022.2.4,Win32,143.4514417,Chrome,1920,1080,,,,,0,621,,,,,,,,,,,,,,,,,146,D,hexagon,1,0,,,2,,,,,,,,,,,,,repeat,number,numRpt,d,vtsPrac,26,0,26,0,1,1.062,,,,,,,,,,,,,,,,,,,,,,,
294592,2022-11-27_03h11.16.439,vts_reward_expectancy_bt,2022.2.4,Win32,143.4514417,Chrome,1920,1080,,,,,0,621,,,,,,,,,,,,,,,,,181,U,triangle,1,0,,,2,,,,,,,,,,,,,switch,letter,lettSwt,k,vtsPrac,27,0,27,0,1,0.8463,,,,,,,,,,,,,,,,,,,,,,,
294592,2022-11-27_03h11.16.439,vts_reward_expectancy_bt,2022.2.4,Win32,143.4514417,Chrome,1920,1080,,,,,0,621,,,,,,,,,,,,,,,,,181,B,circle,1,0,,,2,,,,,,,,,,,,,switch,number,numSwt,f,vtsPrac,28,0,28,0,1,0.5552,,,,,,,,,,,,,,,,,,,,,,,
294592,2022-11-27_03h11.16.439,vts_reward_expectancy_bt,2022.2.4,Win32,143.4514417,Chrome,1920,1080,,,,,0,621,,,,,,,,,,,,,,,,,160,S,triangle,1,0,,,2,,,,,,,,,,,,,repeat,number,numRpt,f,vtsPrac,29,0,29,0,1,0.5139,,,,,,,,,,,,,,,,,,,,,,,
294592,2022-11-27_03h11.16.439,vts_reward_expectancy_bt,2022.2.4,Win32,143.4514417,Chrome,1920,1080,,,,,0,621,,,,,,,,,,,,,,,,,167,F,triangle,1,0,,,2,,,,,,,,,,,,,switch,letter,lettSwt,j,vtsPrac,30,0,30,0,1,0.8062,,,,,,,,,,,,,,,,,,,,,,,
294592,2022-11-27_03h11.16.439,vts_reward_expectancy_bt,2022.2.4,Win32,143.4514417,Chrome,1920,1080,,,,,0,621,,,,,,,,,,,,,,,,,146,H,circle,1,0,,,2,,,,,,,,,,,,,switch,number,numSwt,d,vtsPrac,31,0,31,0,1,0.8232,,,,,,,,,,,,,,,,,,,,,,,
294592,2022-11-27_03h11.16.439,vts_reward_expectancy_bt,2022.2.4,Win32,143.4514417,Chrome,1920,1080,,,,,,,,,,,,,,,,,,,,,,,,,,,,,,,,,,,,,,,,,,,,,,,,,,,,,,,,,,,,,,,,,,,,,,,,,,,,
294592,2022-11-27_03h11.16.439,vts_reward_expectancy_bt,2022.2.4,Win32,143.4514417,Chrome,1920,1080,,,,,,,,,,,,,,,,,,,,,,,,,,,,,,,,,,,,,,,,,,,,,,,,,,,,,,,,,,,,,,,,,,,,,,,,,,,,
294592,2022-11-27_03h11.16.439,vts_reward_expectancy_bt,2022.2.4,Win32,143.4514417,Chrome,1920,1080,,,,,0,621,,,,,,,,,,,,,,,,,146,Y,triangle,1,0,,,,,,,,,,,,,,,,repeat,number,numRpt,d,noRew,,,,,,1.2589,0,0,0,0,0,1,,,,,,,,,,,,,,,,,
294592,2022-11-27_03h11.16.439,vts_reward_expectancy_bt,2022.2.4,Win32,143.4514417,Chrome,1920,1080,,,,,0,621,,,,,,,,,,,,,,,,,167,H,star,1,0,,,,,,,,,,,,,,,,repeat,number,numRpt,f,noRew,,,,,,1.7023,0,1,0,1,0,1,,,,,,,,,,,,,,,,,
294592,2022-11-27_03h11.16.439,vts_reward_expectancy_bt,2022.2.4,Win32,143.4514417,Chrome,1920,1080,,,,,0,621,,,,,,,,,,,,,,,,,125,D,triangle,1,0,,,,,,,,,,,,,,,,switch,letter,lettSwt,j,noRew,,,,,,1.0769,0,2,0,2,0,1,,,,,,,,,,,,,,,,,
294592,2022-11-27_03h11.16.439,vts_reward_expectancy_bt,2022.2.4,Win32,143.4514417,Chrome,1920,1080,,,,,0,621,,,,,,,,,,,,,,,,,181,F,star,1,0,,,,,,,,,,,,,,,,switch,number,numSwt,f,noRew,,,,,,0.7776,0,3,0,3,0,1,,,,,,,,,,,,,,,,,
294592,2022-11-27_03h11.16.439,vts_reward_expectancy_bt,2022.2.4,Win32,143.4514417,Chrome,1920,1080,,,,,0,621,,,,,,,,,,,,,,,,,146,Y,circle,1,0,,,,,,,,,,,,,,,,switch,letter,lettSwt,k,noRew,,,,,,0.6621,0,4,0,4,0,1,,,,,,,,,,,,,,,,,
294592,2022-11-27_03h11.16.439,vts_reward_expectancy_bt,2022.2.4,Win32,143.4514417,Chrome,1920,1080,,,,,0,621,,,,,,,,,,,,,,,,,167,H,triangle,0,0,,,,,,,,,,,,,,,,repeat,letter,NA,k,noRew,,,,,,0.5064,0,5,0,5,0,1,,,,,,,,,,,,,,,,,
294592,2022-11-27_03h11.16.439,vts_reward_expectancy_bt,2022.2.4,Win32,143.4514417,Chrome,1920,1080,,,,,0,621,,,,,,,,,,,,,,,,,125,D,star,1,1,,,,,,,,,,,,,,,,switch,number,numSwt,d,noRew,,,,,,0.9854,0,6,0,6,0,1,,,,,,,,,,,,,,,,,
294592,2022-11-27_03h11.16.439,vts_reward_expectancy_bt,2022.2.4,Win32,143.4514417,Chrome,1920,1080,,,,,0,621,,,,,,,,,,,,,,,,,181,F,triangle,1,0,,,,,,,,,,,,,,,,switch,letter,lettSwt,j,noRew,,,,,,0.9185,0,7,0,7,0,1,,,,,,,,,,,,,,,,,
294592,2022-11-27_03h11.16.439,vts_reward_expectancy_bt,2022.2.4,Win32,143.4514417,Chrome,1920,1080,,,,,0,621,,,,,,,,,,,,,,,,,160,H,circle,1,0,,,,,,,,,,,,,,,,switch,number,numSwt,f,noRew,,,,,,1.0151,0,8,0,8,0,1,,,,,,,,,,,,,,,,,
294592,2022-11-27_03h11.16.439,vts_reward_expectancy_bt,2022.2.4,Win32,143.4514417,Chrome,1920,1080,,,,,0,621,,,,,,,,,,,,,,,,,125,D,hexagon,1,0,,,,,,,,,,,,,,,,repeat,number,numRpt,d,noRew,,,,,,0.5968,0,9,0,9,0,1,,,,,,,,,,,,,,,,,
294592,2022-11-27_03h11.16.439,vts_reward_expectancy_bt,2022.2.4,Win32,143.4514417,Chrome,1920,1080,,,,,0,621,,,,,,,,,,,,,,,,,139,Y,hexagon,1,0,,,,,,,,,,,,,,,,switch,letter,lettSwt,k,noRew,,,,,,0.7567,0,10,0,10,0,1,,,,,,,,,,,,,,,,,
294592,2022-11-27_03h11.16.439,vts_reward_expectancy_bt,2022.2.4,Win32,143.4514417,Chrome,1920,1080,,,,,0,621,,,,,,,,,,,,,,,,,167,F,circle,1,0,,,,,,,,,,,,,,,,repeat,letter,lettRpt,j,noRew,,,,,,0.9575,0,11,0,11,0,1,,,,,,,,,,,,,,,,,
294592,2022-11-27_03h11.16.439,vts_reward_expectancy_bt,2022.2.4,Win32,143.4514417,Chrome,1920,1080,,,,,0,621,,,,,,,,,,,,,,,,,132,S,triangle,1,0,,,,,,,,,,,,,,,,repeat,letter,lettRpt,k,noRew,,,,,,0.8828,0,12,0,12,0,1,,,,,,,,,,,,,,,,,
294592,2022-11-27_03h11.16.439,vts_reward_expectancy_bt,2022.2.4,Win32,143.4514417,Chrome,1920,1080,,,,,0,621,,,,,,,,,,,,,,,,,160,B,circle,1,0,,,,,,,,,,,,,,,,switch,number,numSwt,f,noRew,,,,,,0.6737,0,13,0,13,0,1,,,,,,,,,,,,,,,,,
294592,2022-11-27_03h11.16.439,vts_reward_expectancy_bt,2022.2.4,Win32,143.4514417,Chrome,1920,1080,,,,,0,621,,,,,,,,,,,,,,,,,139,U,circle,1,0,,,,,,,,,,,,,,,,switch,letter,lettSwt,k,noRew,,,,,,0.751,0,14,0,14,0,1,,,,,,,,,,,,,,,,,
294592,2022-11-27_03h11.16.439,vts_reward_expectancy_bt,2022.2.4,Win32,143.4514417,Chrome,1920,1080,,,,,0,621,,,,,,,,,,,,,,,,,125,H,star,1,0,,,,,,,,,,,,,,,,switch,number,numSwt,d,noRew,,,,,,0.6392,0,15,0,15,0,1,,,,,,,,,,,,,,,,,
294592,2022-11-27_03h11.16.439,vts_reward_expectancy_bt,2022.2.4,Win32,143.4514417,Chrome,1920,1080,,,,,0,621,,,,,,,,,,,,,,,,,174,S,triangle,1,0,,,,,,,,,,,,,,,,switch,letter,lettSwt,k,noRew,,,,,,0.8473,0,16,0,16,0,1,,,,,,,,,,,,,,,,,
294592,2022-11-27_03h11.16.439,vts_reward_expectancy_bt,2022.2.4,Win32,143.4514417,Chrome,1920,1080,,,,,0,621,,,,,,,,,,,,,,,,,125,D,hexagon,1,0,,,,,,,,,,,,,,,,repeat,letter,lettRpt,j,noRew,,,,,,0.5989,0,17,0,17,0,1,,,,,,,,,,,,,,,,,
294592,2022-11-27_03h11.16.439,vts_reward_expectancy_bt,2022.2.4,Win32,143.4514417,Chrome,1920,1080,,,,,0,621,,,,,,,,,,,,,,,,,181,U,circle,1,0,,,,,,,,,,,,,,,,repeat,letter,lettRpt,k,noRew,,,,,,0.8406,0,18,0,18,0,1,,,,,,,,,,,,,,,,,
294592,2022-11-27_03h11.16.439,vts_reward_expectancy_bt,2022.2.4,Win32,143.4514417,Chrome,1920,1080,,,,,0,621,,,,,,,,,,,,,,,,,139,H,hexagon,1,0,,,,,,,,,,,,,,,,switch,number,numSwt,d,noRew,,,,,,1.1605,0,19,0,19,0,1,,,,,,,,,,,,,,,,,
294592,2022-11-27_03h11.16.439,vts_reward_expectancy_bt,2022.2.4,Win32,143.4514417,Chrome,1920,1080,,,,,0,621,,,,,,,,,,,,,,,,,132,H,star,1,0,,,,,,,,,,,,,,,,switch,letter,lettSwt,j,noRew,,,,,,1.1954,0,20,0,20,0,1,,,,,,,,,,,,,,,,,
294592,2022-11-27_03h11.16.439,vts_reward_expectancy_bt,2022.2.4,Win32,143.4514417,Chrome,1920,1080,,,,,0,621,,,,,,,,,,,,,,,,,125,B,circle,1,0,,,,,,,,,,,,,,,,switch,number,numSwt,d,noRew,,,,,,0.7414,0,21,0,21,0,1,,,,,,,,,,,,,,,,,
294592,2022-11-27_03h11.16.439,vts_reward_expectancy_bt,2022.2.4,Win32,143.4514417,Chrome,1920,1080,,,,,0,621,,,,,,,,,,,,,,,,,146,D,star,1,0,,,,,,,,,,,,,,,,repeat,number,numRpt,d,noRew,,,,,,1.3128,0,22,0,22,0,1,,,,,,,,,,,,,,,,,
294592,2022-11-27_03h11.16.439,vts_reward_expectancy_bt,2022.2.4,Win32,143.4514417,Chrome,1920,1080,,,,,0,621,,,,,,,,,,,,,,,,,167,W,triangle,1,0,,,,,,,,,,,,,,,,switch,letter,lettSwt,k,noRew,,,,,,0.8185,0,23,0,23,0,1,,,,,,,,,,,,,,,,,
294592,2022-11-27_03h11.16.439,vts_reward_expectancy_bt,2022.2.4,Win32,143.4514417,Chrome,1920,1080,,,,,0,621,,,,,,,,,,,,,,,,,125,U,circle,1,0,,,,,,,,,,,,,,,,switch,number,numSwt,d,noRew,,,,,,0.5949,0,24,0,24,0,1,,,,,,,,,,,,,,,,,
294592,2022-11-27_03h11.16.439,vts_reward_expectancy_bt,2022.2.4,Win32,143.4514417,Chrome,1920,1080,,,,,0,621,,,,,,,,,,,,,,,,,160,S,hexagon,1,0,,,,,,,,,,,,,,,,repeat,number,numRpt,f,noRew,,,,,,0.4309,0,25,0,25,0,1,,,,,,,,,,,,,,,,,
294592,2022-11-27_03h11.16.439,vts_reward_expectancy_bt,2022.2.4,Win32,143.4514417,Chrome,1920,1080,,,,,0,621,,,,,,,,,,,,,,,,,139,W,triangle,1,0,,,,,,,,,,,,,,,,repeat,number,numRpt,d,noRew,,,,,,0.5371,0,26,0,26,0,1,,,,,,,,,,,,,,,,,
294592,2022-11-27_03h11.16.439,vts_reward_expectancy_bt,2022.2.4,Win32,143.4514417,Chrome,1920,1080,,,,,0,621,,,,,,,,,,,,,,,,,132,Y,hexagon,1,0,,,,,,,,,,,,,,,,switch,letter,lettSwt,k,noRew,,,,,,0.5205,0,27,0,27,0,1,,,,,,,,,,,,,,,,,
294592,2022-11-27_03h11.16.439,vts_reward_expectancy_bt,2022.2.4,Win32,143.4514417,Chrome,1920,1080,,,,,0,621,,,,,,,,,,,,,,,,,181,W,circle,1,0,,,,,,,,,,,,,,,,switch,number,numSwt,f,noRew,,,,,,0.7879,0,28,0,28,0,1,,,,,,,,,,,,,,,,,
294592,2022-11-27_03h11.16.439,vts_reward_expectancy_bt,2022.2.4,Win32,143.4514417,Chrome,1920,1080,,,,,0,621,,,,,,,,,,,,,,,,,160,S,hexagon,1,0,,,,,,,,,,,,,,,,switch,letter,lettSwt,k,noRew,,,,,,0.9584,0,29,0,29,0,1,,,,,,,,,,,,,,,,,
294592,2022-11-27_03h11.16.439,vts_reward_expectancy_bt,2022.2.4,Win32,143.4514417,Chrome,1920,1080,,,,,0,621,,,,,,,,,,,,,,,,,132,D,star,1,0,,,,,,,,,,,,,,,,repeat,letter,lettRpt,j,noRew,,,,,,0.6466,0,30,0,30,0,1,,,,,,,,,,,,,,,,,
294592,2022-11-27_03h11.16.439,vts_reward_expectancy_bt,2022.2.4,Win32,143.4514417,Chrome,1920,1080,,,,,0,621,,,,,,,,,,,,,,,,,174,H,hexagon,0,0,,,,,,,,,,,,,,,,repeat,letter,NA,k,noRew,,,,,,0.7577,0,31,0,31,0,1,,,,,,,,,,,,,,,,,
294592,2022-11-27_03h11.16.439,vts_reward_expectancy_bt,2022.2.4,Win32,143.4514417,Chrome,1920,1080,,,,,0,621,,,,,,,,,,,,,,,,,139,D,hexagon,1,1,,,,,,,,,,,,,,,,switch,number,numSwt,d,noRew,,,,,,1.2089,0,32,0,32,0,1,,,,,,,,,,,,,,,,,
294592,2022-11-27_03h11.16.439,vts_reward_expectancy_bt,2022.2.4,Win32,143.4514417,Chrome,1920,1080,,,,,0,621,,,,,,,,,,,,,,,,,125,S,star,1,0,,,,,,,,,,,,,,,,repeat,number,numRpt,d,noRew,,,,,,0.8602,0,33,0,33,0,1,,,,,,,,,,,,,,,,,
294592,2022-11-27_03h11.16.439,vts_reward_expectancy_bt,2022.2.4,Win32,143.4514417,Chrome,1920,1080,,,,,0,621,,,,,,,,,,,,,,,,,160,F,hexagon,1,0,,,,,,,,,,,,,,,,repeat,number,numRpt,f,noRew,,,,,,2.4934,0,34,0,34,0,1,,,,,,,,,,,,,,,,,
294592,2022-11-27_03h11.16.439,vts_reward_expectancy_bt,2022.2.4,Win32,143.4514417,Chrome,1920,1080,,,,,0,621,,,,,,,,,,,,,,,,,174,H,triangle,1,0,,,,,,,,,,,,,,,,switch,letter,lettSwt,j,noRew,,,,,,1.2158,0,35,0,35,0,1,,,,,,,,,,,,,,,,,
294592,2022-11-27_03h11.16.439,vts_reward_expectancy_bt,2022.2.4,Win32,143.4514417,Chrome,1920,1080,,,,,0,621,,,,,,,,,,,,,,,,,139,S,circle,1,0,,,,,,,,,,,,,,,,switch,number,numSwt,d,noRew,,,,,,1.259,0,36,0,36,0,1,,,,,,,,,,,,,,,,,
294592,2022-11-27_03h11.16.439,vts_reward_expectancy_bt,2022.2.4,Win32,143.4514417,Chrome,1920,1080,,,,,0,621,,,,,,,,,,,,,,,,,132,F,triangle,1,0,,,,,,,,,,,,,,,,switch,letter,lettSwt,j,noRew,,,,,,0.7634,0,37,0,37,0,1,,,,,,,,,,,,,,,,,
294592,2022-11-27_03h11.16.439,vts_reward_expectancy_bt,2022.2.4,Win32,143.4514417,Chrome,1920,1080,,,,,0,621,,,,,,,,,,,,,,,,,146,Y,star,1,0,,,,,,,,,,,,,,,,repeat,letter,lettRpt,k,noRew,,,,,,0.7926,0,38,0,38,0,1,,,,,,,,,,,,,,,,,
294592,2022-11-27_03h11.16.439,vts_reward_expectancy_bt,2022.2.4,Win32,143.4514417,Chrome,1920,1080,,,,,0,621,,,,,,,,,,,,,,,,,125,H,hexagon,1,0,,,,,,,,,,,,,,,,repeat,letter,lettRpt,j,noRew,,,,,,0.8273,0,39,0,39,0,1,,,,,,,,,,,,,,,,,
294592,2022-11-27_03h11.16.439,vts_reward_expectancy_bt,2022.2.4,Win32,143.4514417,Chrome,1920,1080,,,,,0,621,,,,,,,,,,,,,,,,,167,Y,triangle,1,0,,,,,,,,,,,,,,,,repeat,letter,lettRpt,k,noRew,,,,,,0.6453,0,40,0,40,0,1,,,,,,,,,,,,,,,,,
294592,2022-11-27_03h11.16.439,vts_reward_expectancy_bt,2022.2.4,Win32,143.4514417,Chrome,1920,1080,,,,,0,621,,,,,,,,,,,,,,,,,139,D,circle,1,0,,,,,,,,,,,,,,,,switch,number,numSwt,d,noRew,,,,,,0.5979,0,41,0,41,0,1,,,,,,,,,,,,,,,,,
294592,2022-11-27_03h11.16.439,vts_reward_expectancy_bt,2022.2.4,Win32,143.4514417,Chrome,1920,1080,,,,,0,621,,,,,,,,,,,,,,,,,181,U,hexagon,1,0,,,,,,,,,,,,,,,,repeat,number,numRpt,f,noRew,,,,,,0.535,0,42,0,42,0,1,,,,,,,,,,,,,,,,,
294592,2022-11-27_03h11.16.439,vts_reward_expectancy_bt,2022.2.4,Win32,143.4514417,Chrome,1920,1080,,,,,0,621,,,,,,,,,,,,,,,,,160,B,triangle,1,0,,,,,,,,,,,,,,,,switch,letter,lettSwt,j,noRew,,,,,,0.6077,0,43,0,43,0,1,,,,,,,,,,,,,,,,,
294592,2022-11-27_03h11.16.439,vts_reward_expectancy_bt,2022.2.4,Win32,143.4514417,Chrome,1920,1080,,,,,0,621,,,,,,,,,,,,,,,,,132,S,star,1,0,,,,,,,,,,,,,,,,switch,number,numSwt,d,noRew,,,,,,0.6071,0,44,0,44,0,1,,,,,,,,,,,,,,,,,
294592,2022-11-27_03h11.16.439,vts_reward_expectancy_bt,2022.2.4,Win32,143.4514417,Chrome,1920,1080,,,,,0,621,,,,,,,,,,,,,,,,,167,W,circle,1,0,,,,,,,,,,,,,,,,switch,letter,lettSwt,k,noRew,,,,,,0.6773,0,45,0,45,0,1,,,,,,,,,,,,,,,,,
294592,2022-11-27_03h11.16.439,vts_reward_expectancy_bt,2022.2.4,Win32,143.4514417,Chrome,1920,1080,,,,,0,621,,,,,,,,,,,,,,,,,139,D,star,1,0,,,,,,,,,,,,,,,,repeat,letter,lettRpt,j,noRew,,,,,,0.6131,0,46,0,46,0,1,,,,,,,,,,,,,,,,,
294592,2022-11-27_03h11.16.439,vts_reward_expectancy_bt,2022.2.4,Win32,143.4514417,Chrome,1920,1080,,,,,0,621,,,,,,,,,,,,,,,,,181,H,circle,1,0,,,,,,,,,,,,,,,,repeat,letter,lettRpt,j,noRew,,,,,,0.8833,0,47,0,47,0,1,,,,,,,,,,,,,,,,,
294592,2022-11-27_03h11.16.439,vts_reward_expectancy_bt,2022.2.4,Win32,143.4514417,Chrome,1920,1080,,,,,0,621,,,,,,,,,,,,,,,,,174,S,circle,1,0,,,,,,,,,,,,,,,,switch,number,numSwt,f,noRew,,,,,,0.5917,0,48,0,48,0,1,,,,,,,,,,,,,,,,,
294592,2022-11-27_03h11.16.439,vts_reward_expectancy_bt,2022.2.4,Win32,143.4514417,Chrome,1920,1080,,,,,0,621,,,,,,,,,,,,,,,,,160,B,hexagon,1,0,,,,,,,,,,,,,,,,repeat,number,numRpt,f,noRew,,,,,,0.7719,0,49,0,49,0,1,,,,,,,,,,,,,,,,,
294592,2022-11-27_03h11.16.439,vts_reward_expectancy_bt,2022.2.4,Win32,143.4514417,Chrome,1920,1080,,,,,0,621,,,,,,,,,,,,,,,,,132,U,circle,1,0,,,,,,,,,,,,,,,,repeat,number,numRpt,d,noRew,,,,,,1.0933,0,50,0,50,0,1,,,,,,,,,,,,,,,,,
294592,2022-11-27_03h11.16.439,vts_reward_expectancy_bt,2022.2.4,Win32,143.4514417,Chrome,1920,1080,,,,,0,621,,,,,,,,,,,,,,,,,181,F,star,1,0,,,,,,,,,,,,,,,,switch,letter,lettSwt,j,noRew,,,,,,0.9557,0,51,0,51,0,1,,,,,,,,,,,,,,,,,
294592,2022-11-27_03h11.16.439,vts_reward_expectancy_bt,2022.2.4,Win32,143.4514417,Chrome,1920,1080,,,,,0,621,,,,,,,,,,,,,,,,,125,D,hexagon,1,0,,,,,,,,,,,,,,,,repeat,letter,lettRpt,j,noRew,,,,,,0.5829,0,52,0,52,0,1,,,,,,,,,,,,,,,,,
294592,2022-11-27_03h11.16.439,vts_reward_expectancy_bt,2022.2.4,Win32,143.4514417,Chrome,1920,1080,,,,,0,621,,,,,,,,,,,,,,,,,132,U,triangle,1,0,,,,,,,,,,,,,,,,switch,number,numSwt,d,noRew,,,,,,0.5823,0,53,0,53,0,1,,,,,,,,,,,,,,,,,
294592,2022-11-27_03h11.16.439,vts_reward_expectancy_bt,2022.2.4,Win32,143.4514417,Chrome,1920,1080,,,,,0,621,,,,,,,,,,,,,,,,,160,B,circle,1,0,,,,,,,,,,,,,,,,switch,letter,lettSwt,j,noRew,,,,,,0.5653,0,54,0,54,0,1,,,,,,,,,,,,,,,,,
294592,2022-11-27_03h11.16.439,vts_reward_expectancy_bt,2022.2.4,Win32,143.4514417,Chrome,1920,1080,,,,,0,621,,,,,,,,,,,,,,,,,174,H,triangle,1,0,,,,,,,,,,,,,,,,switch,number,numSwt,f,noRew,,,,,,0.5395,0,55,0,55,0,1,,,,,,,,,,,,,,,,,
294592,2022-11-27_03h11.16.439,vts_reward_expectancy_bt,2022.2.4,Win32,143.4514417,Chrome,1920,1080,,,,,0,621,,,,,,,,,,,,,,,,,125,W,triangle,1,0,,,,,,,,,,,,,,,,repeat,number,numRpt,d,noRew,,,,,,0.4651,0,56,0,56,0,1,,,,,,,,,,,,,,,,,
294592,2022-11-27_03h11.16.439,vts_reward_expectancy_bt,2022.2.4,Win32,143.4514417,Chrome,1920,1080,,,,,0,621,,,,,,,,,,,,,,,,,167,D,circle,1,0,,,,,,,,,,,,,,,,switch,letter,lettSwt,j,noRew,,,,,,0.4392,0,57,0,57,0,1,,,,,,,,,,,,,,,,,
294592,2022-11-27_03h11.16.439,vts_reward_expectancy_bt,2022.2.4,Win32,143.4514417,Chrome,1920,1080,,,,,0,621,,,,,,,,,,,,,,,,,160,H,circle,1,0,,,,,,,,,,,,,,,,switch,number,numSwt,f,noRew,,,,,,0.6128,0,58,0,58,0,1,,,,,,,,,,,,,,,,,
294592,2022-11-27_03h11.16.439,vts_reward_expectancy_bt,2022.2.4,Win32,143.4514417,Chrome,1920,1080,,,,,0,621,,,,,,,,,,,,,,,,,174,S,hexagon,1,0,,,,,,,,,,,,,,,,switch,letter,lettSwt,k,noRew,,,,,,0.718,0,59,0,59,0,1,,,,,,,,,,,,,,,,,
294592,2022-11-27_03h11.16.439,vts_reward_expectancy_bt,2022.2.4,Win32,143.4514417,Chrome,1920,1080,,,,,0,621,,,,,,,,,,,,,,,,,174,U,hexagon,1,0,,,,,,,,,,,,,,,,repeat,letter,lettRpt,k,noRew,,,,,,0.7884,0,60,0,60,0,1,,,,,,,,,,,,,,,,,
294592,2022-11-27_03h11.16.439,vts_reward_expectancy_bt,2022.2.4,Win32,143.4514417,Chrome,1920,1080,,,,,0,621,,,,,,,,,,,,,,,,,160,H,triangle,1,0,,,,,,,,,,,,,,,,repeat,letter,lettRpt,j,noRew,,,,,,0.8801,0,61,0,61,0,1,,,,,,,,,,,,,,,,,
294592,2022-11-27_03h11.16.439,vts_reward_expectancy_bt,2022.2.4,Win32,143.4514417,Chrome,1920,1080,,,,,0,621,,,,,,,,,,,,,,,,,167,F,star,1,0,,,,,,,,,,,,,,,,switch,number,numSwt,f,noRew,,,,,,0.7244,0,62,0,62,0,1,,,,,,,,,,,,,,,,,
294592,2022-11-27_03h11.16.439,vts_reward_expectancy_bt,2022.2.4,Win32,143.4514417,Chrome,1920,1080,,,,,0,621,,,,,,,,,,,,,,,,,132,S,hexagon,1,0,,,,,,,,,,,,,,,,repeat,number,numRpt,d,noRew,,,,,,0.7874,0,63,0,63,0,1,,,,,,,,,,,,,,,,,
294592,2022-11-27_03h11.16.439,vts_reward_expectancy_bt,2022.2.4,Win32,143.4514417,Chrome,1920,1080,,,,,,,,,,,,,,,,,,,,,,,,,,,,,,,,,,,,,,,,,,,,,,,,,,,,,,,,,,,,,,,,,,,,,,,,,,,,
294592,2022-11-27_03h11.16.439,vts_reward_expectancy_bt,2022.2.4,Win32,143.4514417,Chrome,1920,1080,,,,,0,621,,,,,,,,,,,,,,,,,125,Y,hexagon,1,0,,,,,,,,,,,,,,,,repeat,number,numRpt,d,Hi,,,,,,1.1256,0,,,,,,space,11.2024,low,0,0,0,0,1,,,,,,,,,
294592,2022-11-27_03h11.16.439,vts_reward_expectancy_bt,2022.2.4,Win32,143.4514417,Chrome,1920,1080,,,,,10,631,,,,,,,,,,,,,,,,,160,D,triangle,1,0,,,,,,,,,,,,,,,,repeat,number,numRpt,f,Lo,,,,,,0.4513,0,,,,,,,,low,1,0,1,0,1,,,,,,,,,
294592,2022-11-27_03h11.16.439,vts_reward_expectancy_bt,2022.2.4,Win32,143.4514417,Chrome,1920,1080,,,,,1,632,,,,,,,,,,,,,,,,,146,H,star,1,0,,,,,,,,,,,,,,,,switch,letter,lettSwt,j,Hi,,,,,,0.5758,0,,,,,,,,low,2,0,2,0,1,,,,,,,,,
294592,2022-11-27_03h11.16.439,vts_reward_expectancy_bt,2022.2.4,Win32,143.4514417,Chrome,1920,1080,,,,,1,633,,,,,,,,,,,,,,,,,181,F,circle,1,0,,,,,,,,,,,,,,,,switch,number,numSwt,f,Lo,,,,,,0.604,0,,,,,,,,low,3,0,3,0,1,,,,,,,,,
294592,2022-11-27_03h11.16.439,vts_reward_expectancy_bt,2022.2.4,Win32,143.4514417,Chrome,1920,1080,,,,,10,643,,,,,,,,,,,,,,,,,132,U,hexagon,1,0,,,,,,,,,,,,,,,,repeat,number,numRpt,d,Hi,,,,,,0.4204,0,,,,,,,,low,4,0,4,0,1,,,,,,,,,
294592,2022-11-27_03h11.16.439,vts_reward_expectancy_bt,2022.2.4,Win32,143.4514417,Chrome,1920,1080,,,,,1,644,,,,,,,,,,,,,,,,,174,W,triangle,1,0,,,,,,,,,,,,,,,,switch,letter,lettSwt,k,Lo,,,,,,0.7394,0,,,,,,,,low,5,0,5,0,1,,,,,,,,,
294592,2022-11-27_03h11.16.439,vts_reward_expectancy_bt,2022.2.4,Win32,143.4514417,Chrome,1920,1080,,,,,10,654,,,,,,,,,,,,,,,,,139,B,star,1,0,,,,,,,,,,,,,,,,repeat,letter,lettRpt,j,Hi,,,,,,0.4788,0,,,,,,,,low,6,0,6,0,1,,,,,,,,,
294592,2022-11-27_03h11.16.439,vts_reward_expectancy_bt,2022.2.4,Win32,143.4514417,Chrome,1920,1080,,,,,1,655,,,,,,,,,,,,,,,,,167,S,circle,1,0,,,,,,,,,,,,,,,,switch,number,numSwt,f,Lo,,,,,,0.7637,0,,,,,,,,low,7,0,7,0,1,,,,,,,,,
294592,2022-11-27_03h11.16.439,vts_reward_expectancy_bt,2022.2.4,Win32,143.4514417,Chrome,1920,1080,,,,,0,655,,,,,,,,,,,,,,,,,125,Y,star,0,0,,,,,,,,,,,,,,,,switch,letter,NA,j,Lo,,,,,,0.8622,0,,,,,,,,low,8,0,8,0,1,,,,,,,,,
294592,2022-11-27_03h11.16.439,vts_reward_expectancy_bt,2022.2.4,Win32,143.4514417,Chrome,1920,1080,,,,,1,656,,,,,,,,,,,,,,,,,160,D,triangle,1,1,,,,,,,,,,,,,,,,switch,number,numSwt,f,Lo,,,,,,0.7688,0,,,,,,,,low,9,0,9,0,1,,,,,,,,,
294592,2022-11-27_03h11.16.439,vts_reward_expectancy_bt,2022.2.4,Win32,143.4514417,Chrome,1920,1080,,,,,0,656,,,,,,,,,,,,,,,,,146,H,hexagon,1,0,,,,,,,,,,,,,,,,repeat,number,numRpt,d,Hi,,,,,,1.9879,0,,,,,,,,low,10,0,10,0,1,,,,,,,,,
294592,2022-11-27_03h11.16.439,vts_reward_expectancy_bt,2022.2.4,Win32,143.4514417,Chrome,1920,1080,,,,,10,666,,,,,,,,,,,,,,,,,181,F,circle,1,0,,,,,,,,,,,,,,,,repeat,number,numRpt,f,Lo,,,,,,0.8684,0,,,,,,,,low,11,0,11,0,1,,,,,,,,,
294592,2022-11-27_03h11.16.439,vts_reward_expectancy_bt,2022.2.4,Win32,143.4514417,Chrome,1920,1080,,,,,10,676,,,,,,,,,,,,,,,,,132,U,star,1,0,,,,,,,,,,,,,,,,switch,letter,lettSwt,k,Hi,,,,,,0.4511,0,,,,,,,,low,12,0,12,0,1,,,,,,,,,
294592,2022-11-27_03h11.16.439,vts_reward_expectancy_bt,2022.2.4,Win32,143.4514417,Chrome,1920,1080,,,,,10,686,,,,,,,,,,,,,,,,,174,W,triangle,1,0,,,,,,,,,,,,,,,,switch,number,numSwt,f,Lo,,,,,,0.5083,0,,,,,,,,low,13,0,13,0,1,,,,,,,,,
294592,2022-11-27_03h11.16.439,vts_reward_expectancy_bt,2022.2.4,Win32,143.4514417,Chrome,1920,1080,,,,,1,687,,,,,,,,,,,,,,,,,139,B,circle,1,0,,,,,,,,,,,,,,,,switch,letter,lettSwt,j,Lo,,,,,,0.4658,0,,,,,,,,low,14,0,14,0,1,,,,,,,,,
294592,2022-11-27_03h11.16.439,vts_reward_expectancy_bt,2022.2.4,Win32,143.4514417,Chrome,1920,1080,,,,,1,688,,,,,,,,,,,,,,,,,167,S,hexagon,1,0,,,,,,,,,,,,,,,,repeat,letter,lettRpt,k,Hi,,,,,,0.6141,0,,,,,,,,low,15,0,15,0,1,,,,,,,,,
294592,2022-11-27_03h11.16.439,vts_reward_expectancy_bt,2022.2.4,Win32,143.4514417,Chrome,1920,1080,,,,,1,689,,,,,,,,,,,,,,,,,125,U,triangle,1,0,,,,,,,,,,,,,,,,switch,number,numSwt,d,Lo,,,,,,0.4499,0,,,,,,,,low,16,0,16,0,1,,,,,,,,,
294592,2022-11-27_03h11.16.439,vts_reward_expectancy_bt,2022.2.4,Win32,143.4514417,Chrome,1920,1080,,,,,1,690,,,,,,,,,,,,,,,,,146,W,star,1,0,,,,,,,,,,,,,,,,switch,letter,lettSwt,k,Hi,,,,,,0.6293,0,,,,,,,,low,17,0,17,0,1,,,,,,,,,
294592,2022-11-27_03h11.16.439,vts_reward_expectancy_bt,2022.2.4,Win32,143.4514417,Chrome,1920,1080,,,,,10,700,,,,,,,,,,,,,,,,,181,D,circle,1,0,,,,,,,,,,,,,,,,switch,number,numSwt,f,Lo,,,,,,0.6542,0,,,,,,,,low,18,0,18,0,1,,,,,,,,,
294592,2022-11-27_03h11.16.439,vts_reward_expectancy_bt,2022.2.4,Win32,143.4514417,Chrome,1920,1080,,,,,0,700,,,,,,,,,,,,,,,,,132,F,hexagon,1,0,,,,,,,,,,,,,,,,switch,letter,lettSwt,j,Hi,,,,,,0.855,0,,,,,,,,low,19,0,19,0,1,,,,,,,,,
294592,2022-11-27_03h11.16.439,vts_reward_expectancy_bt,2022.2.4,Win32,143.4514417,Chrome,1920,1080,,,,,1,701,,,,,,,,,,,,,,,,,139,B,triangle,1,0,,,,,,,,,,,,,,,,switch,number,numSwt,d,Lo,,,,,,0.7014,0,,,,,,,,low,20,0,20,0,1,,,,,,,,,
294592,2022-11-27_03h11.16.439,vts_reward_expectancy_bt,2022.2.4,Win32,143.4514417,Chrome,1920,1080,,,,,0,701,,,,,,,,,,,,,,,,,160,H,hexagon,1,0,,,,,,,,,,,,,,,,switch,letter,lettSwt,j,Hi,,,,,,0.7771,0,,,,,,,,low,21,0,21,0,1,,,,,,,,,
294592,2022-11-27_03h11.16.439,vts_reward_expectancy_bt,2022.2.4,Win32,143.4514417,Chrome,1920,1080,,,,,1,702,,,,,,,,,,,,,,,,,174,S,circle,1,0,,,,,,,,,,,,,,,,repeat,letter,lettRpt,k,Lo,,,,,,0.7144,0,,,,,,,,low,22,0,22,0,1,,,,,,,,,
294592,2022-11-27_03h11.16.439,vts_reward_expectancy_bt,2022.2.4,Win32,143.4514417,Chrome,1920,1080,,,,,0,702,,,,,,,,,,,,,,,,,167,Y,star,1,0,,,,,,,,,,,,,,,,switch,number,numSwt,f,Hi,,,,,,0.6128,0,,,,,,,,low,23,0,23,0,1,,,,,,,,,
294592,2022-11-27_03h11.16.439,vts_reward_expectancy_bt,2022.2.4,Win32,143.4514417,Chrome,1920,1080,,,,,1,703,,,,,,,,,,,,,,,,,125,S,circle,1,0,,,,,,,,,,,,,,,,repeat,number,numRpt,d,Lo,,,,,,0.458,0,,,,,,,,low,24,0,24,0,1,,,,,,,,,
294592,2022-11-27_03h11.16.439,vts_reward_expectancy_bt,2022.2.4,Win32,143.4514417,Chrome,1920,1080,,,,,10,713,,,,,,,,,,,,,,,,,160,W,star,1,0,,,,,,,,,,,,,,,,repeat,number,numRpt,f,Hi,,,,,,0.34,0,,,,,,,,low,25,0,25,0,1,,,,,,,,,
294592,2022-11-27_03h11.16.439,vts_reward_expectancy_bt,2022.2.4,Win32,143.4514417,Chrome,1920,1080,,,,,1,714,,,,,,,,,,,,,,,,,139,U,triangle,1,0,,,,,,,,,,,,,,,,switch,letter,lettSwt,k,Lo,,,,,,0.5162,0,,,,,,,,low,26,0,26,0,1,,,,,,,,,
294592,2022-11-27_03h11.16.439,vts_reward_expectancy_bt,2022.2.4,Win32,143.4514417,Chrome,1920,1080,,,,,10,724,,,,,,,,,,,,,,,,,167,B,hexagon,1,0,,,,,,,,,,,,,,,,repeat,letter,lettRpt,j,Hi,,,,,,0.3088,0,,,,,,,,low,27,0,27,0,1,,,,,,,,,
294592,2022-11-27_03h11.16.439,vts_reward_expectancy_bt,2022.2.4,Win32,143.4514417,Chrome,1920,1080,,,,,10,734,,,,,,,,,,,,,,,,,174,H,star,1,0,,,,,,,,,,,,,,,,repeat,letter,lettRpt,j,Hi,,,,,,0.5662,0,,,,,,,,low,28,0,28,0,1,,,,,,,,,
294592,2022-11-27_03h11.16.439,vts_reward_expectancy_bt,2022.2.4,Win32,143.4514417,Chrome,1920,1080,,,,,10,744,,,,,,,,,,,,,,,,,146,F,circle,1,0,,,,,,,,,,,,,,,,switch,number,numSwt,d,Lo,,,,,,0.4376,0,,,,,,,,low,29,0,29,0,1,,,,,,,,,
294592,2022-11-27_03h11.16.439,vts_reward_expectancy_bt,2022.2.4,Win32,143.4514417,Chrome,1920,1080,,,,,10,754,,,,,,,,,,,,,,,,,132,Y,hexagon,1,0,,,,,,,,,,,,,,,,repeat,number,numRpt,d,Hi,,,,,,0.4659,0,,,,,,,,low,30,0,30,0,1,,,,,,,,,
294592,2022-11-27_03h11.16.439,vts_reward_expectancy_bt,2022.2.4,Win32,143.4514417,Chrome,1920,1080,,,,,1,755,,,,,,,,,,,,,,,,,181,D,triangle,1,0,,,,,,,,,,,,,,,,repeat,number,numRpt,f,Lo,,,,,,0.3131,0,,,,,,,,low,31,0,31,0,1,,,,,,,,,
294592,2022-11-27_03h11.16.439,vts_reward_expectancy_bt,2022.2.4,Win32,143.4514417,Chrome,1920,1080,,,,,1,756,,,,,,,,,,,,,,,,,174,B,triangle,1,0,,,,,,,,,,,,,,,,switch,letter,lettSwt,j,Lo,,,,,,0.6669,1,,,,,,space,3.5228,low,0,0,0,0,1,,,,,,,,,
294592,2022-11-27_03h11.16.439,vts_reward_expectancy_bt,2022.2.4,Win32,143.4514417,Chrome,1920,1080,,,,,10,766,,,,,,,,,,,,,,,,,125,Y,hexagon,1,0,,,,,,,,,,,,,,,,switch,number,numSwt,d,Hi,,,,,,0.5544,1,,,,,,,,low,1,0,1,0,1,,,,,,,,,
294592,2022-11-27_03h11.16.439,vts_reward_expectancy_bt,2022.2.4,Win32,143.4514417,Chrome,1920,1080,,,,,10,776,,,,,,,,,,,,,,,,,139,U,circle,1,0,,,,,,,,,,,,,,,,repeat,number,numRpt,d,Lo,,,,,,0.4228,1,,,,,,,,low,2,0,2,0,1,,,,,,,,,
294592,2022-11-27_03h11.16.439,vts_reward_expectancy_bt,2022.2.4,Win32,143.4514417,Chrome,1920,1080,,,,,10,786,,,,,,,,,,,,,,,,,160,W,star,1,0,,,,,,,,,,,,,,,,switch,letter,lettSwt,k,Hi,,,,,,0.4679,1,,,,,,,,low,3,0,3,0,1,,,,,,,,,
294592,2022-11-27_03h11.16.439,vts_reward_expectancy_bt,2022.2.4,Win32,143.4514417,Chrome,1920,1080,,,,,10,796,,,,,,,,,,,,,,,,,167,H,triangle,1,0,,,,,,,,,,,,,,,,repeat,letter,lettRpt,j,Lo,,,,,,0.7864,1,,,,,,,,low,4,0,4,0,1,,,,,,,,,
294592,2022-11-27_03h11.16.439,vts_reward_expectancy_bt,2022.2.4,Win32,143.4514417,Chrome,1920,1080,,,,,1,797,,,,,,,,,,,,,,,,,181,F,hexagon,1,0,,,,,,,,,,,,,,,,switch,number,numSwt,f,Hi,,,,,,0.4481,1,,,,,,,,low,5,0,5,0,1,,,,,,,,,
294592,2022-11-27_03h11.16.439,vts_reward_expectancy_bt,2022.2.4,Win32,143.4514417,Chrome,1920,1080,,,,,10,807,,,,,,,,,,,,,,,,,146,S,circle,1,0,,,,,,,,,,,,,,,,repeat,number,numRpt,d,Lo,,,,,,0.6632,1,,,,,,,,low,6,0,6,0,1,,,,,,,,,
294592,2022-11-27_03h11.16.439,vts_reward_expectancy_bt,2022.2.4,Win32,143.4514417,Chrome,1920,1080,,,,,1,808,,,,,,,,,,,,,,,,,132,D,star,1,0,,,,,,,,,,,,,,,,switch,letter,lettSwt,j,Hi,,,,,,0.4996,1,,,,,,,,low,7,0,7,0,1,,,,,,,,,
294592,2022-11-27_03h11.16.439,vts_reward_expectancy_bt,2022.2.4,Win32,143.4514417,Chrome,1920,1080,,,,,1,809,,,,,,,,,,,,,,,,,174,B,triangle,1,0,,,,,,,,,,,,,,,,repeat,letter,lettRpt,j,Lo,,,,,,0.5294,1,,,,,,,,low,8,0,8,0,1,,,,,,,,,
294592,2022-11-27_03h11.16.439,vts_reward_expectancy_bt,2022.2.4,Win32,143.4514417,Chrome,1920,1080,,,,,1,810,,,,,,,,,,,,,,,,,125,Y,star,1,0,,,,,,,,,,,,,,,,switch,number,numSwt,d,Hi,,,,,,0.4442,1,,,,,,,,low,9,0,9,0,1,,,,,,,,,
294592,2022-11-27_03h11.16.439,vts_reward_expectancy_bt,2022.2.4,Win32,143.4514417,Chrome,1920,1080,,,,,10,820,,,,,,,,,,,,,,,,,139,U,circle,1,0,,,,,,,,,,,,,,,,repeat,number,numRpt,d,Lo,,,,,,0.5822,1,,,,,,,,low,10,0,10,0,1,,,,,,,,,
294592,2022-11-27_03h11.16.439,vts_reward_expectancy_bt,2022.2.4,Win32,143.4514417,Chrome,1920,1080,,,,,0,820,,,,,,,,,,,,,,,,,160,W,hexagon,1,0,,,,,,,,,,,,,,,,repeat,number,numRpt,f,Hi,,,,,,0.5631,1,,,,,,,,low,11,0,11,0,1,,,,,,,,,
294592,2022-11-27_03h11.16.439,vts_reward_expectancy_bt,2022.2.4,Win32,143.4514417,Chrome,1920,1080,,,,,0,820,,,,,,,,,,,,,,,,,167,H,hexagon,1,0,,,,,,,,,,,,,,,,repeat,number,numRpt,f,Hi,,,,,,0.5216,1,,,,,,,,low,12,0,12,0,1,,,,,,,,,
294592,2022-11-27_03h11.16.439,vts_reward_expectancy_bt,2022.2.4,Win32,143.4514417,Chrome,1920,1080,,,,,0,820,,,,,,,,,,,,,,,,,181,F,star,1,0,,,,,,,,,,,,,,,,repeat,number,numRpt,f,Hi,,,,,,0.4655,1,,,,,,,,low,13,0,13,0,1,,,,,,,,,
294592,2022-11-27_03h11.16.439,vts_reward_expectancy_bt,2022.2.4,Win32,143.4514417,Chrome,1920,1080,,,,,1,821,,,,,,,,,,,,,,,,,146,S,circle,1,0,,,,,,,,,,,,,,,,switch,letter,lettSwt,k,Lo,,,,,,0.4543,1,,,,,,,,low,14,0,14,0,1,,,,,,,,,
294592,2022-11-27_03h11.16.439,vts_reward_expectancy_bt,2022.2.4,Win32,143.4514417,Chrome,1920,1080,,,,,1,822,,,,,,,,,,,,,,,,,132,D,triangle,1,0,,,,,,,,,,,,,,,,switch,number,numSwt,d,Lo,,,,,,0.4732,1,,,,,,,,low,15,0,15,0,1,,,,,,,,,
294592,2022-11-27_03h11.16.439,vts_reward_expectancy_bt,2022.2.4,Win32,143.4514417,Chrome,1920,1080,,,,,0,822,,,,,,,,,,,,,,,,,167,F,hexagon,1,0,,,,,,,,,,,,,,,,repeat,number,numRpt,f,Hi,,,,,,0.4715,1,,,,,,,,low,16,0,16,0,1,,,,,,,,,
294592,2022-11-27_03h11.16.439,vts_reward_expectancy_bt,2022.2.4,Win32,143.4514417,Chrome,1920,1080,,,,,1,823,,,,,,,,,,,,,,,,,125,D,circle,1,0,,,,,,,,,,,,,,,,repeat,number,numRpt,d,Lo,,,,,,0.4022,1,,,,,,,,low,17,0,17,0,1,,,,,,,,,
294592,2022-11-27_03h11.16.439,vts_reward_expectancy_bt,2022.2.4,Win32,143.4514417,Chrome,1920,1080,,,,,10,833,,,,,,,,,,,,,,,,,181,W,star,1,0,,,,,,,,,,,,,,,,repeat,number,numRpt,f,Hi,,,,,,0.42,1,,,,,,,,low,18,0,18,0,1,,,,,,,,,
294592,2022-11-27_03h11.16.439,vts_reward_expectancy_bt,2022.2.4,Win32,143.4514417,Chrome,1920,1080,,,,,10,843,,,,,,,,,,,,,,,,,139,Y,triangle,1,0,,,,,,,,,,,,,,,,repeat,number,numRpt,d,Lo,,,,,,0.4042,1,,,,,,,,low,19,0,19,0,1,,,,,,,,,
294592,2022-11-27_03h11.16.439,vts_reward_expectancy_bt,2022.2.4,Win32,143.4514417,Chrome,1920,1080,,,,,10,853,,,,,,,,,,,,,,,,,160,B,star,1,0,,,,,,,,,,,,,,,,repeat,number,numRpt,f,Hi,,,,,,0.4033,1,,,,,,,,low,20,0,20,0,1,,,,,,,,,
294592,2022-11-27_03h11.16.439,vts_reward_expectancy_bt,2022.2.4,Win32,143.4514417,Chrome,1920,1080,,,,,0,853,,,,,,,,,,,,,,,,,174,S,triangle,0,0,,,,,,,,,,,,,,,,switch,letter,NA,j,Hi,,,,,,0.4096,1,,,,,,,,low,21,0,21,0,1,,,,,,,,,
294592,2022-11-27_03h11.16.439,vts_reward_expectancy_bt,2022.2.4,Win32,143.4514417,Chrome,1920,1080,,,,,10,863,,,,,,,,,,,,,,,,,132,U,hexagon,1,1,,,,,,,,,,,,,,,,repeat,letter,lettRpt,k,Hi,,,,,,0.4805,1,,,,,,,,low,22,0,22,0,1,,,,,,,,,
294592,2022-11-27_03h11.16.439,vts_reward_expectancy_bt,2022.2.4,Win32,143.4514417,Chrome,1920,1080,,,,,1,864,,,,,,,,,,,,,,,,,146,H,circle,1,0,,,,,,,,,,,,,,,,repeat,letter,lettRpt,j,Lo,,,,,,0.5024,1,,,,,,,,low,23,0,23,0,1,,,,,,,,,
294592,2022-11-27_03h11.16.439,vts_reward_expectancy_bt,2022.2.4,Win32,143.4514417,Chrome,1920,1080,,,,,1,865,,,,,,,,,,,,,,,,,181,W,hexagon,1,0,,,,,,,,,,,,,,,,repeat,letter,lettRpt,k,Hi,,,,,,0.4789,1,,,,,,,,low,24,0,24,0,1,,,,,,,,,
294592,2022-11-27_03h11.16.439,vts_reward_expectancy_bt,2022.2.4,Win32,143.4514417,Chrome,1920,1080,,,,,0,865,,,,,,,,,,,,,,,,,132,H,circle,0,0,,,,,,,,,,,,,,,,repeat,letter,NA,k,Hi,,,,,,0.4656,1,,,,,,,,low,25,0,25,0,1,,,,,,,,,
294592,2022-11-27_03h11.16.439,vts_reward_expectancy_bt,2022.2.4,Win32,143.4514417,Chrome,1920,1080,,,,,10,875,,,,,,,,,,,,,,,,,167,D,triangle,1,1,,,,,,,,,,,,,,,,switch,number,numSwt,f,Lo,,,,,,0.3839,1,,,,,,,,low,26,0,26,0,1,,,,,,,,,
294592,2022-11-27_03h11.16.439,vts_reward_expectancy_bt,2022.2.4,Win32,143.4514417,Chrome,1920,1080,,,,,1,876,,,,,,,,,,,,,,,,,125,S,star,1,0,,,,,,,,,,,,,,,,repeat,number,numRpt,d,Hi,,,,,,0.3557,1,,,,,,,,low,27,0,27,0,1,,,,,,,,,
294592,2022-11-27_03h11.16.439,vts_reward_expectancy_bt,2022.2.4,Win32,143.4514417,Chrome,1920,1080,,,,,10,886,,,,,,,,,,,,,,,,,139,B,circle,1,0,,,,,,,,,,,,,,,,switch,letter,lettSwt,j,Lo,,,,,,0.3979,1,,,,,,,,low,28,0,28,0,1,,,,,,,,,
294592,2022-11-27_03h11.16.439,vts_reward_expectancy_bt,2022.2.4,Win32,143.4514417,Chrome,1920,1080,,,,,10,896,,,,,,,,,,,,,,,,,174,Y,star,1,0,,,,,,,,,,,,,,,,repeat,letter,lettRpt,k,Hi,,,,,,0.4588,1,,,,,,,,low,29,0,29,0,1,,,,,,,,,
294592,2022-11-27_03h11.16.439,vts_reward_expectancy_bt,2022.2.4,Win32,143.4514417,Chrome,1920,1080,,,,,1,897,,,,,,,,,,,,,,,,,146,U,hexagon,1,0,,,,,,,,,,,,,,,,repeat,letter,lettRpt,k,Hi,,,,,,0.494,1,,,,,,,,low,30,0,30,0,1,,,,,,,,,
294592,2022-11-27_03h11.16.439,vts_reward_expectancy_bt,2022.2.4,Win32,143.4514417,Chrome,1920,1080,,,,,1,898,,,,,,,,,,,,,,,,,160,F,triangle,1,0,,,,,,,,,,,,,,,,repeat,letter,lettRpt,j,Lo,,,,,,0.5523,1,,,,,,,,low,31,0,31,0,1,,,,,,,,,
294592,2022-11-27_03h11.16.439,vts_reward_expectancy_bt,2022.2.4,Win32,143.4514417,Chrome,1920,1080,,,,,1,899,,,,,,,,,,,,,,,,,167,F,hexagon,1,0,,,,,,,,,,,,,,,,repeat,letter,lettRpt,j,Hi,,,,,,0.4586,2,,,,,,space,1.0575,low,0,0,0,0,1,,,,,,,,,
294592,2022-11-27_03h11.16.439,vts_reward_expectancy_bt,2022.2.4,Win32,143.4514417,Chrome,1920,1080,,,,,0,899,,,,,,,,,,,,,,,,,174,U,star,1,0,,,,,,,,,,,,,,,,repeat,letter,lettRpt,k,Hi,,,,,,0.5778,2,,,,,,,,low,1,0,1,0,1,,,,,,,,,
294592,2022-11-27_03h11.16.439,vts_reward_expectancy_bt,2022.2.4,Win32,143.4514417,Chrome,1920,1080,,,,,10,909,,,,,,,,,,,,,,,,,181,B,triangle,1,0,,,,,,,,,,,,,,,,repeat,letter,lettRpt,j,Lo,,,,,,0.296,2,,,,,,,,low,2,0,2,0,1,,,,,,,,,
294592,2022-11-27_03h11.16.439,vts_reward_expectancy_bt,2022.2.4,Win32,143.4514417,Chrome,1920,1080,,,,,1,910,,,,,,,,,,,,,,,,,146,D,circle,1,0,,,,,,,,,,,,,,,,repeat,letter,lettRpt,j,Lo,,,,,,0.4148,2,,,,,,,,low,3,0,3,0,1,,,,,,,,,
294592,2022-11-27_03h11.16.439,vts_reward_expectancy_bt,2022.2.4,Win32,143.4514417,Chrome,1920,1080,,,,,1,911,,,,,,,,,,,,,,,,,132,S,hexagon,1,0,,,,,,,,,,,,,,,,repeat,letter,lettRpt,k,Hi,,,,,,0.3819,2,,,,,,,,low,4,0,4,0,1,,,,,,,,,
294592,2022-11-27_03h11.16.439,vts_reward_expectancy_bt,2022.2.4,Win32,143.4514417,Chrome,1920,1080,,,,,0,911,,,,,,,,,,,,,,,,,125,W,star,0,0,,,,,,,,,,,,,,,,repeat,letter,NA,j,Hi,,,,,,0.3196,2,,,,,,,,low,5,0,5,0,1,,,,,,,,,
294592,2022-11-27_03h11.16.439,vts_reward_expectancy_bt,2022.2.4,Win32,143.4514417,Chrome,1920,1080,,,,,10,921,,,,,,,,,,,,,,,,,160,Y,triangle,1,1,,,,,,,,,,,,,,,,repeat,letter,lettRpt,k,Lo,,,,,,0.7249,2,,,,,,,,low,6,0,6,0,1,,,,,,,,,
294592,2022-11-27_03h11.16.439,vts_reward_expectancy_bt,2022.2.4,Win32,143.4514417,Chrome,1920,1080,,,,,1,922,,,,,,,,,,,,,,,,,139,H,circle,1,0,,,,,,,,,,,,,,,,repeat,letter,lettRpt,j,Lo,,,,,,0.4253,2,,,,,,,,low,7,0,7,0,1,,,,,,,,,
294592,2022-11-27_03h11.16.439,vts_reward_expectancy_bt,2022.2.4,Win32,143.4514417,Chrome,1920,1080,,,,,10,932,,,,,,,,,,,,,,,,,167,F,triangle,1,0,,,,,,,,,,,,,,,,switch,number,numSwt,f,Lo,,,,,,0.383,2,,,,,,,,low,8,0,8,0,1,,,,,,,,,
294592,2022-11-27_03h11.16.439,vts_reward_expectancy_bt,2022.2.4,Win32,143.4514417,Chrome,1920,1080,,,,,10,942,,,,,,,,,,,,,,,,,174,U,star,1,0,,,,,,,,,,,,,,,,repeat,number,numRpt,f,Hi,,,,,,0.3978,2,,,,,,,,low,9,0,9,0,1,,,,,,,,,
294592,2022-11-27_03h11.16.439,vts_reward_expectancy_bt,2022.2.4,Win32,143.4514417,Chrome,1920,1080,,,,,10,952,,,,,,,,,,,,,,,,,181,B,circle,1,0,,,,,,,,,,,,,,,,repeat,number,numRpt,f,Lo,,,,,,0.4292,2,,,,,,,,low,10,0,10,0,1,,,,,,,,,
294592,2022-11-27_03h11.16.439,vts_reward_expectancy_bt,2022.2.4,Win32,143.4514417,Chrome,1920,1080,,,,,10,962,,,,,,,,,,,,,,,,,146,D,hexagon,1,0,,,,,,,,,,,,,,,,switch,letter,lettSwt,j,Hi,,,,,,0.3845,2,,,,,,,,low,11,0,11,0,1,,,,,,,,,
294592,2022-11-27_03h11.16.439,vts_reward_expectancy_bt,2022.2.4,Win32,143.4514417,Chrome,1920,1080,,,,,0,962,,,,,,,,,,,,,,,,,132,S,triangle,0,0,,,,,,,,,,,,,,,,repeat,letter,NA,j,Hi,,,,,,0.521,2,,,,,,,,low,12,0,12,0,1,,,,,,,,,
294592,2022-11-27_03h11.16.439,vts_reward_expectancy_bt,2022.2.4,Win32,143.4514417,Chrome,1920,1080,,,,,0,962,,,,,,,,,,,,,,,,,125,W,star,1,1,,,,,,,,,,,,,,,,repeat,letter,lettRpt,k,Hi,,,,,,0.5234,2,,,,,,,,low,13,0,13,0,1,,,,,,,,,
294592,2022-11-27_03h11.16.439,vts_reward_expectancy_bt,2022.2.4,Win32,143.4514417,Chrome,1920,1080,,,,,1,963,,,,,,,,,,,,,,,,,160,Y,circle,1,0,,,,,,,,,,,,,,,,repeat,letter,lettRpt,k,Lo,,,,,,0.4239,2,,,,,,,,low,14,0,14,0,1,,,,,,,,,
294592,2022-11-27_03h11.16.439,vts_reward_expectancy_bt,2022.2.4,Win32,143.4514417,Chrome,1920,1080,,,,,10,973,,,,,,,,,,,,,,,,,139,H,hexagon,1,0,,,,,,,,,,,,,,,,repeat,letter,lettRpt,j,Hi,,,,,,0.3336,2,,,,,,,,low,15,0,15,0,1,,,,,,,,,
294592,2022-11-27_03h11.16.439,vts_reward_expectancy_bt,2022.2.4,Win32,143.4514417,Chrome,1920,1080,,,,,10,983,,,,,,,,,,,,,,,,,132,Y,triangle,1,0,,,,,,,,,,,,,,,,repeat,letter,lettRpt,k,Lo,,,,,,0.4654,2,,,,,,,,low,16,0,16,0,1,,,,,,,,,
294592,2022-11-27_03h11.16.439,vts_reward_expectancy_bt,2022.2.4,Win32,143.4514417,Chrome,1920,1080,,,,,0,983,,,,,,,,,,,,,,,,,167,F,hexagon,0,0,,,,,,,,,,,,,,,,repeat,letter,NA,k,Lo,,,,,,0.4936,2,,,,,,,,low,17,0,17,0,1,,,,,,,,,
294592,2022-11-27_03h11.16.439,vts_reward_expectancy_bt,2022.2.4,Win32,143.4514417,Chrome,1920,1080,,,,,0,983,,,,,,,,,,,,,,,,,125,B,star,0,1,,,,,,,,,,,,,,,,repeat,letter,NA,k,Lo,,,,,,0.4445,2,,,,,,,,low,18,0,18,0,1,,,,,,,,,
294592,2022-11-27_03h11.16.439,vts_reward_expectancy_bt,2022.2.4,Win32,143.4514417,Chrome,1920,1080,,,,,0,983,,,,,,,,,,,,,,,,,146,D,circle,0,1,,,,,,,,,,,,,,,,repeat,letter,NA,k,Lo,,,,,,0.4918,2,,,,,,,,low,19,0,19,0,1,,,,,,,,,
294592,2022-11-27_03h11.16.439,vts_reward_expectancy_bt,2022.2.4,Win32,143.4514417,Chrome,1920,1080,,,,,0,983,,,,,,,,,,,,,,,,,139,W,triangle,0,1,,,,,,,,,,,,,,,,repeat,letter,NA,j,Lo,,,,,,0.6594,2,,,,,,,,low,20,0,20,0,1,,,,,,,,,
294592,2022-11-27_03h11.16.439,vts_reward_expectancy_bt,2022.2.4,Win32,143.4514417,Chrome,1920,1080,,,,,0,983,,,,,,,,,,,,,,,,,174,S,star,1,1,,,,,,,,,,,,,,,,repeat,letter,lettRpt,k,Hi,,,,,,0.6867,2,,,,,,,,low,21,0,21,0,1,,,,,,,,,
294592,2022-11-27_03h11.16.439,vts_reward_expectancy_bt,2022.2.4,Win32,143.4514417,Chrome,1920,1080,,,,,1,984,,,,,,,,,,,,,,,,,181,U,circle,1,0,,,,,,,,,,,,,,,,repeat,letter,lettRpt,k,Lo,,,,,,0.5581,2,,,,,,,,low,22,0,22,0,1,,,,,,,,,
294592,2022-11-27_03h11.16.439,vts_reward_expectancy_bt,2022.2.4,Win32,143.4514417,Chrome,1920,1080,,,,,0,984,,,,,,,,,,,,,,,,,160,H,hexagon,1,0,,,,,,,,,,,,,,,,repeat,letter,lettRpt,j,Hi,,,,,,0.6886,2,,,,,,,,low,23,0,23,0,1,,,,,,,,,
294592,2022-11-27_03h11.16.439,vts_reward_expectancy_bt,2022.2.4,Win32,143.4514417,Chrome,1920,1080,,,,,10,994,,,,,,,,,,,,,,,,,181,D,hexagon,1,0,,,,,,,,,,,,,,,,repeat,letter,lettRpt,j,Hi,,,,,,0.4446,2,,,,,,,,low,24,0,24,0,1,,,,,,,,,
294592,2022-11-27_03h11.16.439,vts_reward_expectancy_bt,2022.2.4,Win32,143.4514417,Chrome,1920,1080,,,,,10,1004,,,,,,,,,,,,,,,,,174,B,circle,1,0,,,,,,,,,,,,,,,,repeat,letter,lettRpt,j,Lo,,,,,,0.427,2,,,,,,,,low,25,0,25,0,1,,,,,,,,,
294592,2022-11-27_03h11.16.439,vts_reward_expectancy_bt,2022.2.4,Win32,143.4514417,Chrome,1920,1080,,,,,1,1005,,,,,,,,,,,,,,,,,146,U,star,1,0,,,,,,,,,,,,,,,,repeat,letter,lettRpt,k,Hi,,,,,,0.4582,2,,,,,,,,low,26,0,26,0,1,,,,,,,,,
294592,2022-11-27_03h11.16.439,vts_reward_expectancy_bt,2022.2.4,Win32,143.4514417,Chrome,1920,1080,,,,,1,1006,,,,,,,,,,,,,,,,,125,S,triangle,1,0,,,,,,,,,,,,,,,,switch,number,numSwt,d,Lo,,,,,,0.4732,2,,,,,,,,low,27,0,27,0,1,,,,,,,,,
294592,2022-11-27_03h11.16.439,vts_reward_expectancy_bt,2022.2.4,Win32,143.4514417,Chrome,1920,1080,,,,,1,1007,,,,,,,,,,,,,,,,,160,F,triangle,1,0,,,,,,,,,,,,,,,,repeat,number,numRpt,f,Lo,,,,,,0.3328,2,,,,,,,,low,28,0,28,0,1,,,,,,,,,
294592,2022-11-27_03h11.16.439,vts_reward_expectancy_bt,2022.2.4,Win32,143.4514417,Chrome,1920,1080,,,,,0,1007,,,,,,,,,,,,,,,,,132,H,hexagon,1,0,,,,,,,,,,,,,,,,repeat,number,numRpt,d,Hi,,,,,,0.6408,2,,,,,,,,low,29,0,29,0,1,,,,,,,,,
294592,2022-11-27_03h11.16.439,vts_reward_expectancy_bt,2022.2.4,Win32,143.4514417,Chrome,1920,1080,,,,,10,1017,,,,,,,,,,,,,,,,,139,Y,star,1,0,,,,,,,,,,,,,,,,switch,letter,lettSwt,k,Hi,,,,,,0.4462,2,,,,,,,,low,30,0,30,0,1,,,,,,,,,
294592,2022-11-27_03h11.16.439,vts_reward_expectancy_bt,2022.2.4,Win32,143.4514417,Chrome,1920,1080,,,,,10,1027,,,,,,,,,,,,,,,,,167,W,circle,1,0,,,,,,,,,,,,,,,,repeat,letter,lettRpt,k,Lo,,,,,,0.405,2,,,,,,,,low,31,0,31,0,1,,,,,,,,,
294592,2022-11-27_03h11.16.439,vts_reward_expectancy_bt,2022.2.4,Win32,143.4514417,Chrome,1920,1080,,,,,10,1037,,,,,,,,,,,,,,,,,167,Y,triangle,1,0,,,,,,,,,,,,,,,,switch,number,numSwt,f,Lo,,,,,,0.4807,3,,,,,,space,11.7397,low,0,0,0,0,1,,,,,,,,,
294592,2022-11-27_03h11.16.439,vts_reward_expectancy_bt,2022.2.4,Win32,143.4514417,Chrome,1920,1080,,,,,0,1037,,,,,,,,,,,,,,,,,181,H,star,0,0,,,,,,,,,,,,,,,,switch,letter,NA,k,Lo,,,,,,0.4781,3,,,,,,,,low,1,0,1,0,1,,,,,,,,,
294592,2022-11-27_03h11.16.439,vts_reward_expectancy_bt,2022.2.4,Win32,143.4514417,Chrome,1920,1080,,,,,0,1037,,,,,,,,,,,,,,,,,146,U,hexagon,1,1,,,,,,,,,,,,,,,,repeat,letter,lettRpt,k,Hi,,,,,,0.5759,3,,,,,,,,low,2,0,2,0,1,,,,,,,,,
294592,2022-11-27_03h11.16.439,vts_reward_expectancy_bt,2022.2.4,Win32,143.4514417,Chrome,1920,1080,,,,,1,1038,,,,,,,,,,,,,,,,,139,F,circle,1,0,,,,,,,,,,,,,,,,repeat,letter,lettRpt,j,Lo,,,,,,0.541,3,,,,,,,,low,3,0,3,0,1,,,,,,,,,
294592,2022-11-27_03h11.16.439,vts_reward_expectancy_bt,2022.2.4,Win32,143.4514417,Chrome,1920,1080,,,,,1,1039,,,,,,,,,,,,,,,,,174,W,triangle,1,0,,,,,,,,,,,,,,,,repeat,letter,lettRpt,k,Lo,,,,,,0.4366,3,,,,,,,,low,4,0,4,0,1,,,,,,,,,
294592,2022-11-27_03h11.16.439,vts_reward_expectancy_bt,2022.2.4,Win32,143.4514417,Chrome,1920,1080,,,,,0,1039,,,,,,,,,,,,,,,,,125,B,star,1,0,,,,,,,,,,,,,,,,switch,number,numSwt,d,Hi,,,,,,0.4526,3,,,,,,,,low,5,0,5,0,1,,,,,,,,,
294592,2022-11-27_03h11.16.439,vts_reward_expectancy_bt,2022.2.4,Win32,143.4514417,Chrome,1920,1080,,,,,10,1049,,,,,,,,,,,,,,,,,160,D,hexagon,1,0,,,,,,,,,,,,,,,,repeat,number,numRpt,f,Hi,,,,,,0.3885,3,,,,,,,,low,6,0,6,0,1,,,,,,,,,
294592,2022-11-27_03h11.16.439,vts_reward_expectancy_bt,2022.2.4,Win32,143.4514417,Chrome,1920,1080,,,,,10,1059,,,,,,,,,,,,,,,,,132,S,circle,1,0,,,,,,,,,,,,,,,,switch,letter,lettSwt,k,Lo,,,,,,0.8127,3,,,,,,,,low,7,0,7,0,1,,,,,,,,,
294592,2022-11-27_03h11.16.439,vts_reward_expectancy_bt,2022.2.4,Win32,143.4514417,Chrome,1920,1080,,,,,0,1059,,,,,,,,,,,,,,,,,167,Y,star,1,0,,,,,,,,,,,,,,,,repeat,letter,lettRpt,k,Hi,,,,,,0.4788,3,,,,,,,,low,8,0,8,0,1,,,,,,,,,
294592,2022-11-27_03h11.16.439,vts_reward_expectancy_bt,2022.2.4,Win32,143.4514417,Chrome,1920,1080,,,,,0,1059,,,,,,,,,,,,,,,,,181,H,triangle,0,0,,,,,,,,,,,,,,,,repeat,letter,NA,k,Hi,,,,,,0.4736,3,,,,,,,,low,9,0,9,0,1,,,,,,,,,
294592,2022-11-27_03h11.16.439,vts_reward_expectancy_bt,2022.2.4,Win32,143.4514417,Chrome,1920,1080,,,,,1,1060,,,,,,,,,,,,,,,,,146,U,circle,1,1,,,,,,,,,,,,,,,,repeat,letter,lettRpt,k,Lo,,,,,,0.5222,3,,,,,,,,low,10,0,10,0,1,,,,,,,,,
294592,2022-11-27_03h11.16.439,vts_reward_expectancy_bt,2022.2.4,Win32,143.4514417,Chrome,1920,1080,,,,,0,1060,,,,,,,,,,,,,,,,,139,F,hexagon,1,0,,,,,,,,,,,,,,,,switch,number,numSwt,d,Hi,,,,,,0.4939,3,,,,,,,,low,11,0,11,0,1,,,,,,,,,
294592,2022-11-27_03h11.16.439,vts_reward_expectancy_bt,2022.2.4,Win32,143.4514417,Chrome,1920,1080,,,,,0,1060,,,,,,,,,,,,,,,,,174,W,star,1,0,,,,,,,,,,,,,,,,repeat,number,numRpt,f,Hi,,,,,,0.4925,3,,,,,,,,low,12,0,12,0,1,,,,,,,,,
294592,2022-11-27_03h11.16.439,vts_reward_expectancy_bt,2022.2.4,Win32,143.4514417,Chrome,1920,1080,,,,,10,1070,,,,,,,,,,,,,,,,,125,B,circle,1,0,,,,,,,,,,,,,,,,repeat,number,numRpt,d,Lo,,,,,,0.4306,3,,,,,,,,low,13,0,13,0,1,,,,,,,,,
294592,2022-11-27_03h11.16.439,vts_reward_expectancy_bt,2022.2.4,Win32,143.4514417,Chrome,1920,1080,,,,,10,1080,,,,,,,,,,,,,,,,,160,D,hexagon,1,0,,,,,,,,,,,,,,,,repeat,number,numRpt,f,Hi,,,,,,0.2852,3,,,,,,,,low,14,0,14,0,1,,,,,,,,,
294592,2022-11-27_03h11.16.439,vts_reward_expectancy_bt,2022.2.4,Win32,143.4514417,Chrome,1920,1080,,,,,10,1090,,,,,,,,,,,,,,,,,132,S,triangle,1,0,,,,,,,,,,,,,,,,repeat,number,numRpt,d,Lo,,,,,,0.2775,3,,,,,,,,low,15,0,15,0,1,,,,,,,,,
294592,2022-11-27_03h11.16.439,vts_reward_expectancy_bt,2022.2.4,Win32,143.4514417,Chrome,1920,1080,,,,,0,1090,,,,,,,,,,,,,,,,,132,H,hexagon,1,0,,,,,,,,,,,,,,,,repeat,number,numRpt,d,Hi,,,,,,0.4025,3,,,,,,,,low,16,0,16,0,1,,,,,,,,,
294592,2022-11-27_03h11.16.439,vts_reward_expectancy_bt,2022.2.4,Win32,143.4514417,Chrome,1920,1080,,,,,10,1100,,,,,,,,,,,,,,,,,125,Y,triangle,1,0,,,,,,,,,,,,,,,,repeat,number,numRpt,d,Lo,,,,,,0.4653,3,,,,,,,,low,17,0,17,0,1,,,,,,,,,
294592,2022-11-27_03h11.16.439,vts_reward_expectancy_bt,2022.2.4,Win32,143.4514417,Chrome,1920,1080,,,,,0,1100,,,,,,,,,,,,,,,,,146,U,star,1,0,,,,,,,,,,,,,,,,switch,letter,lettSwt,k,Hi,,,,,,0.5592,3,,,,,,,,low,18,0,18,0,1,,,,,,,,,
294592,2022-11-27_03h11.16.439,vts_reward_expectancy_bt,2022.2.4,Win32,143.4514417,Chrome,1920,1080,,,,,10,1110,,,,,,,,,,,,,,,,,174,W,circle,1,0,,,,,,,,,,,,,,,,repeat,letter,lettRpt,k,Lo,,,,,,0.5924,3,,,,,,,,low,19,0,19,0,1,,,,,,,,,
294592,2022-11-27_03h11.16.439,vts_reward_expectancy_bt,2022.2.4,Win32,143.4514417,Chrome,1920,1080,,,,,0,1110,,,,,,,,,,,,,,,,,181,B,hexagon,1,0,,,,,,,,,,,,,,,,switch,number,numSwt,f,Hi,,,,,,0.447,3,,,,,,,,low,20,0,20,0,1,,,,,,,,,
294592,2022-11-27_03h11.16.439,vts_reward_expectancy_bt,2022.2.4,Win32,143.4514417,Chrome,1920,1080,,,,,1,1111,,,,,,,,,,,,,,,,,160,D,triangle,1,0,,,,,,,,,,,,,,,,repeat,number,numRpt,f,Lo,,,,,,0.4097,3,,,,,,,,low,21,0,21,0,1,,,,,,,,,
294592,2022-11-27_03h11.16.439,vts_reward_expectancy_bt,2022.2.4,Win32,143.4514417,Chrome,1920,1080,,,,,1,1112,,,,,,,,,,,,,,,,,139,F,star,1,0,,,,,,,,,,,,,,,,repeat,number,numRpt,d,Hi,,,,,,0.3265,3,,,,,,,,low,22,0,22,0,1,,,,,,,,,
294592,2022-11-27_03h11.16.439,vts_reward_expectancy_bt,2022.2.4,Win32,143.4514417,Chrome,1920,1080,,,,,0,1112,,,,,,,,,,,,,,,,,167,S,circle,0,0,,,,,,,,,,,,,,,,repeat,number,NA,d,Hi,,,,,,0.3403,3,,,,,,,,low,23,0,23,0,1,,,,,,,,,
294592,2022-11-27_03h11.16.439,vts_reward_expectancy_bt,2022.2.4,Win32,143.4514417,Chrome,1920,1080,,,,,0,1112,,,,,,,,,,,,,,,,,139,U,star,1,1,,,,,,,,,,,,,,,,repeat,number,numRpt,d,Hi,,,,,,0.4821,3,,,,,,,,low,24,0,24,0,1,,,,,,,,,
294592,2022-11-27_03h11.16.439,vts_reward_expectancy_bt,2022.2.4,Win32,143.4514417,Chrome,1920,1080,,,,,0,1112,,,,,,,,,,,,,,,,,146,W,hexagon,0,0,,,,,,,,,,,,,,,,repeat,number,NA,f,Hi,,,,,,0.6663,3,,,,,,,,low,25,0,25,0,1,,,,,,,,,
294592,2022-11-27_03h11.16.439,vts_reward_expectancy_bt,2022.2.4,Win32,143.4514417,Chrome,1920,1080,,,,,1,1113,,,,,,,,,,,,,,,,,125,H,circle,1,1,,,,,,,,,,,,,,,,repeat,number,numRpt,d,Lo,,,,,,0.6172,3,,,,,,,,low,26,0,26,0,1,,,,,,,,,
294592,2022-11-27_03h11.16.439,vts_reward_expectancy_bt,2022.2.4,Win32,143.4514417,Chrome,1920,1080,,,,,10,1123,,,,,,,,,,,,,,,,,167,F,triangle,1,0,,,,,,,,,,,,,,,,repeat,number,numRpt,f,Lo,,,,,,0.5267,3,,,,,,,,low,27,0,27,0,1,,,,,,,,,
294592,2022-11-27_03h11.16.439,vts_reward_expectancy_bt,2022.2.4,Win32,143.4514417,Chrome,1920,1080,,,,,1,1124,,,,,,,,,,,,,,,,,181,S,circle,1,0,,,,,,,,,,,,,,,,switch,letter,lettSwt,k,Lo,,,,,,1.154,3,,,,,,,,low,28,0,28,0,1,,,,,,,,,
294592,2022-11-27_03h11.16.439,vts_reward_expectancy_bt,2022.2.4,Win32,143.4514417,Chrome,1920,1080,,,,,1,1125,,,,,,,,,,,,,,,,,160,B,triangle,1,0,,,,,,,,,,,,,,,,repeat,letter,lettRpt,j,Lo,,,,,,0.6176,3,,,,,,,,low,29,0,29,0,1,,,,,,,,,
294592,2022-11-27_03h11.16.439,vts_reward_expectancy_bt,2022.2.4,Win32,143.4514417,Chrome,1920,1080,,,,,0,1125,,,,,,,,,,,,,,,,,132,Y,star,1,0,,,,,,,,,,,,,,,,repeat,letter,lettRpt,k,Hi,,,,,,0.4252,3,,,,,,,,low,30,0,30,0,1,,,,,,,,,
294592,2022-11-27_03h11.16.439,vts_reward_expectancy_bt,2022.2.4,Win32,143.4514417,Chrome,1920,1080,,,,,0,1125,,,,,,,,,,,,,,,,,174,D,hexagon,1,0,,,,,,,,,,,,,,,,repeat,letter,lettRpt,j,Hi,,,,,,0.536,3,,,,,,,,low,31,0,31,0,1,,,,,,,,,
294592,2022-11-27_03h11.16.439,vts_reward_expectancy_bt,2022.2.4,Win32,143.4514417,Chrome,1920,1080,,,,,0,1125,,,,,,,,,,,,,,,,,160,S,hexagon,1,0,,,,,,,,,,,,,,,,repeat,letter,lettRpt,k,Hi,,,,,,0.5288,4,,,,,,space,1.6722,low,0,0,0,0,1,,,,,,,,,
294592,2022-11-27_03h11.16.439,vts_reward_expectancy_bt,2022.2.4,Win32,143.4514417,Chrome,1920,1080,,,,,1,1126,,,,,,,,,,,,,,,,,174,H,circle,1,0,,,,,,,,,,,,,,,,repeat,letter,lettRpt,j,Lo,,,,,,0.6038,4,,,,,,,,low,1,0,1,0,1,,,,,,,,,
294592,2022-11-27_03h11.16.439,vts_reward_expectancy_bt,2022.2.4,Win32,143.4514417,Chrome,1920,1080,,,,,10,1136,,,,,,,,,,,,,,,,,167,U,triangle,1,0,,,,,,,,,,,,,,,,repeat,letter,lettRpt,k,Lo,,,,,,0.5629,4,,,,,,,,low,2,0,2,0,1,,,,,,,,,
294592,2022-11-27_03h11.16.439,vts_reward_expectancy_bt,2022.2.4,Win32,143.4514417,Chrome,1920,1080,,,,,0,1136,,,,,,,,,,,,,,,,,132,W,star,1,0,,,,,,,,,,,,,,,,repeat,letter,lettRpt,k,Hi,,,,,,0.5277,4,,,,,,,,low,3,0,3,0,1,,,,,,,,,
294592,2022-11-27_03h11.16.439,vts_reward_expectancy_bt,2022.2.4,Win32,143.4514417,Chrome,1920,1080,,,,,10,1146,,,,,,,,,,,,,,,,,139,Y,hexagon,1,0,,,,,,,,,,,,,,,,repeat,letter,lettRpt,k,Hi,,,,,,0.4527,4,,,,,,,,low,4,0,4,0,1,,,,,,,,,
294592,2022-11-27_03h11.16.439,vts_reward_expectancy_bt,2022.2.4,Win32,143.4514417,Chrome,1920,1080,,,,,10,1156,,,,,,,,,,,,,,,,,181,B,circle,1,0,,,,,,,,,,,,,,,,repeat,letter,lettRpt,j,Lo,,,,,,0.5217,4,,,,,,,,low,5,0,5,0,1,,,,,,,,,
294592,2022-11-27_03h11.16.439,vts_reward_expectancy_bt,2022.2.4,Win32,143.4514417,Chrome,1920,1080,,,,,1,1157,,,,,,,,,,,,,,,,,146,F,triangle,1,0,,,,,,,,,,,,,,,,repeat,letter,lettRpt,j,Lo,,,,,,0.7548,4,,,,,,,,low,6,0,6,0,1,,,,,,,,,
294592,2022-11-27_03h11.16.439,vts_reward_expectancy_bt,2022.2.4,Win32,143.4514417,Chrome,1920,1080,,,,,1,1158,,,,,,,,,,,,,,,,,125,D,star,1,0,,,,,,,,,,,,,,,,repeat,letter,lettRpt,j,Hi,,,,,,0.4724,4,,,,,,,,low,7,0,7,0,1,,,,,,,,,
294592,2022-11-27_03h11.16.439,vts_reward_expectancy_bt,2022.2.4,Win32,143.4514417,Chrome,1920,1080,,,,,1,1159,,,,,,,,,,,,,,,,,160,S,circle,1,0,,,,,,,,,,,,,,,,switch,number,numSwt,f,Lo,,,,,,0.4028,4,,,,,,,,low,8,0,8,0,1,,,,,,,,,
294592,2022-11-27_03h11.16.439,vts_reward_expectancy_bt,2022.2.4,Win32,143.4514417,Chrome,1920,1080,,,,,0,1159,,,,,,,,,,,,,,,,,174,H,star,1,0,,,,,,,,,,,,,,,,repeat,number,numRpt,f,Hi,,,,,,0.4812,4,,,,,,,,low,9,0,9,0,1,,,,,,,,,
294592,2022-11-27_03h11.16.439,vts_reward_expectancy_bt,2022.2.4,Win32,143.4514417,Chrome,1920,1080,,,,,10,1169,,,,,,,,,,,,,,,,,167,U,hexagon,1,0,,,,,,,,,,,,,,,,repeat,number,numRpt,f,Hi,,,,,,0.3124,4,,,,,,,,low,10,0,10,0,1,,,,,,,,,
294592,2022-11-27_03h11.16.439,vts_reward_expectancy_bt,2022.2.4,Win32,143.4514417,Chrome,1920,1080,,,,,1,1170,,,,,,,,,,,,,,,,,132,W,triangle,1,0,,,,,,,,,,,,,,,,repeat,number,numRpt,d,Lo,,,,,,0.3905,4,,,,,,,,low,11,0,11,0,1,,,,,,,,,
294592,2022-11-27_03h11.16.439,vts_reward_expectancy_bt,2022.2.4,Win32,143.4514417,Chrome,1920,1080,,,,,10,1180,,,,,,,,,,,,,,,,,139,Y,circle,1,0,,,,,,,,,,,,,,,,switch,letter,lettSwt,k,Lo,,,,,,0.4661,4,,,,,,,,low,12,0,12,0,1,,,,,,,,,
294592,2022-11-27_03h11.16.439,vts_reward_expectancy_bt,2022.2.4,Win32,143.4514417,Chrome,1920,1080,,,,,10,1190,,,,,,,,,,,,,,,,,181,B,triangle,1,0,,,,,,,,,,,,,,,,repeat,letter,lettRpt,j,Lo,,,,,,0.5509,4,,,,,,,,low,13,0,13,0,1,,,,,,,,,
294592,2022-11-27_03h11.16.439,vts_reward_expectancy_bt,2022.2.4,Win32,143.4514417,Chrome,1920,1080,,,,,0,1190,,,,,,,,,,,,,,,,,146,F,hexagon,1,0,,,,,,,,,,,,,,,,repeat,letter,lettRpt,j,Hi,,,,,,0.517,4,,,,,,,,low,14,0,14,0,1,,,,,,,,,
294592,2022-11-27_03h11.16.439,vts_reward_expectancy_bt,2022.2.4,Win32,143.4514417,Chrome,1920,1080,,,,,10,1200,,,,,,,,,,,,,,,,,125,D,star,1,0,,,,,,,,,,,,,,,,repeat,letter,lettRpt,j,Hi,,,,,,0.4329,4,,,,,,,,low,15,0,15,0,1,,,,,,,,,
294592,2022-11-27_03h11.16.439,vts_reward_expectancy_bt,2022.2.4,Win32,143.4514417,Chrome,1920,1080,,,,,10,1210,,,,,,,,,,,,,,,,,160,W,triangle,1,0,,,,,,,,,,,,,,,,repeat,letter,lettRpt,k,Lo,,,,,,0.4531,4,,,,,,,,low,16,0,16,0,1,,,,,,,,,
294592,2022-11-27_03h11.16.439,vts_reward_expectancy_bt,2022.2.4,Win32,143.4514417,Chrome,1920,1080,,,,,10,1220,,,,,,,,,,,,,,,,,132,D,hexagon,1,0,,,,,,,,,,,,,,,,repeat,letter,lettRpt,j,Hi,,,,,,0.4932,4,,,,,,,,low,17,0,17,0,1,,,,,,,,,
294592,2022-11-27_03h11.16.439,vts_reward_expectancy_bt,2022.2.4,Win32,143.4514417,Chrome,1920,1080,,,,,0,1220,,,,,,,,,,,,,,,,,181,S,star,0,0,,,,,,,,,,,,,,,,repeat,letter,NA,j,Hi,,,,,,0.4799,4,,,,,,,,low,18,0,18,0,1,,,,,,,,,
294592,2022-11-27_03h11.16.439,vts_reward_expectancy_bt,2022.2.4,Win32,143.4514417,Chrome,1920,1080,,,,,1,1221,,,,,,,,,,,,,,,,,139,H,circle,1,1,,,,,,,,,,,,,,,,switch,number,numSwt,d,Lo,,,,,,0.486,4,,,,,,,,low,19,0,19,0,1,,,,,,,,,
294592,2022-11-27_03h11.16.439,vts_reward_expectancy_bt,2022.2.4,Win32,143.4514417,Chrome,1920,1080,,,,,0,1221,,,,,,,,,,,,,,,,,167,Y,star,1,0,,,,,,,,,,,,,,,,repeat,number,numRpt,f,Hi,,,,,,0.5176,4,,,,,,,,low,20,0,20,0,1,,,,,,,,,
294592,2022-11-27_03h11.16.439,vts_reward_expectancy_bt,2022.2.4,Win32,143.4514417,Chrome,1920,1080,,,,,0,1221,,,,,,,,,,,,,,,,,146,B,circle,0,0,,,,,,,,,,,,,,,,repeat,number,NA,f,Hi,,,,,,0.9593,4,,,,,,,,low,21,0,21,0,1,,,,,,,,,
294592,2022-11-27_03h11.16.439,vts_reward_expectancy_bt,2022.2.4,Win32,143.4514417,Chrome,1920,1080,,,,,0,1221,,,,,,,,,,,,,,,,,125,U,hexagon,1,1,,,,,,,,,,,,,,,,repeat,number,numRpt,d,Hi,,,,,,0.4157,4,,,,,,,,low,22,0,22,0,1,,,,,,,,,
294592,2022-11-27_03h11.16.439,vts_reward_expectancy_bt,2022.2.4,Win32,143.4514417,Chrome,1920,1080,,,,,10,1231,,,,,,,,,,,,,,,,,174,F,triangle,1,0,,,,,,,,,,,,,,,,repeat,number,numRpt,f,Lo,,,,,,0.5277,4,,,,,,,,low,23,0,23,0,1,,,,,,,,,
294592,2022-11-27_03h11.16.439,vts_reward_expectancy_bt,2022.2.4,Win32,143.4514417,Chrome,1920,1080,,,,,0,1231,,,,,,,,,,,,,,,,,146,B,star,1,0,,,,,,,,,,,,,,,,repeat,number,numRpt,d,Hi,,,,,,0.4998,4,,,,,,,,low,24,0,24,0,1,,,,,,,,,
294592,2022-11-27_03h11.16.439,vts_reward_expectancy_bt,2022.2.4,Win32,143.4514417,Chrome,1920,1080,,,,,10,1241,,,,,,,,,,,,,,,,,167,U,hexagon,1,0,,,,,,,,,,,,,,,,repeat,number,numRpt,f,Hi,,,,,,0.3821,4,,,,,,,,low,25,0,25,0,1,,,,,,,,,
294592,2022-11-27_03h11.16.439,vts_reward_expectancy_bt,2022.2.4,Win32,143.4514417,Chrome,1920,1080,,,,,1,1242,,,,,,,,,,,,,,,,,174,Y,circle,1,0,,,,,,,,,,,,,,,,repeat,number,numRpt,f,Lo,,,,,,0.3815,4,,,,,,,,low,26,0,26,0,1,,,,,,,,,
294592,2022-11-27_03h11.16.439,vts_reward_expectancy_bt,2022.2.4,Win32,143.4514417,Chrome,1920,1080,,,,,1,1243,,,,,,,,,,,,,,,,,132,D,triangle,1,0,,,,,,,,,,,,,,,,repeat,number,numRpt,d,Lo,,,,,,0.2079,4,,,,,,,,low,27,0,27,0,1,,,,,,,,,
294592,2022-11-27_03h11.16.439,vts_reward_expectancy_bt,2022.2.4,Win32,143.4514417,Chrome,1920,1080,,,,,1,1244,,,,,,,,,,,,,,,,,125,W,triangle,1,0,,,,,,,,,,,,,,,,repeat,number,numRpt,d,Lo,,,,,,0.5222,4,,,,,,,,low,28,0,28,0,1,,,,,,,,,
294592,2022-11-27_03h11.16.439,vts_reward_expectancy_bt,2022.2.4,Win32,143.4514417,Chrome,1920,1080,,,,,0,1244,,,,,,,,,,,,,,,,,160,S,star,1,0,,,,,,,,,,,,,,,,repeat,number,numRpt,f,Hi,,,,,,0.4015,4,,,,,,,,low,29,0,29,0,1,,,,,,,,,
294592,2022-11-27_03h11.16.439,vts_reward_expectancy_bt,2022.2.4,Win32,143.4514417,Chrome,1920,1080,,,,,0,1244,,,,,,,,,,,,,,,,,181,H,hexagon,1,0,,,,,,,,,,,,,,,,repeat,number,numRpt,f,Hi,,,,,,0.4781,4,,,,,,,,low,30,0,30,0,1,,,,,,,,,
294592,2022-11-27_03h11.16.439,vts_reward_expectancy_bt,2022.2.4,Win32,143.4514417,Chrome,1920,1080,,,,,1,1245,,,,,,,,,,,,,,,,,139,F,circle,1,0,,,,,,,,,,,,,,,,repeat,number,numRpt,d,Lo,,,,,,0.4925,4,,,,,,,,low,31,0,31,0,1,,,,,,,,,
294592,2022-11-27_03h11.16.439,vts_reward_expectancy_bt,2022.2.4,Win32,143.4514417,Chrome,1920,1080,,,,,0,1245,,,,,,,,,,,,,,,,,174,H,circle,0,0,,,,,,,,,,,,,,,,switch,letter,NA,k,Lo,,,,,,0.5692,5,,,,,,space,1.14,low,0,0,0,0,1,,,,,,,,,
294592,2022-11-27_03h11.16.439,vts_reward_expectancy_bt,2022.2.4,Win32,143.4514417,Chrome,1920,1080,,,,,0,1245,,,,,,,,,,,,,,,,,181,W,hexagon,1,1,,,,,,,,,,,,,,,,repeat,letter,lettRpt,k,Hi,,,,,,0.6148,5,,,,,,,,low,1,0,1,0,1,,,,,,,,,
294592,2022-11-27_03h11.16.439,vts_reward_expectancy_bt,2022.2.4,Win32,143.4514417,Chrome,1920,1080,,,,,0,1245,,,,,,,,,,,,,,,,,132,B,star,1,0,,,,,,,,,,,,,,,,switch,number,numSwt,d,Hi,,,,,,0.4854,5,,,,,,,,low,2,0,2,0,1,,,,,,,,,
294592,2022-11-27_03h11.16.439,vts_reward_expectancy_bt,2022.2.4,Win32,143.4514417,Chrome,1920,1080,,,,,1,1246,,,,,,,,,,,,,,,,,125,D,triangle,1,0,,,,,,,,,,,,,,,,repeat,number,numRpt,d,Lo,,,,,,0.6326,5,,,,,,,,low,3,0,3,0,1,,,,,,,,,
294592,2022-11-27_03h11.16.439,vts_reward_expectancy_bt,2022.2.4,Win32,143.4514417,Chrome,1920,1080,,,,,10,1256,,,,,,,,,,,,,,,,,146,F,circle,1,0,,,,,,,,,,,,,,,,repeat,number,numRpt,d,Lo,,,,,,0.4924,5,,,,,,,,low,4,0,4,0,1,,,,,,,,,
294592,2022-11-27_03h11.16.439,vts_reward_expectancy_bt,2022.2.4,Win32,143.4514417,Chrome,1920,1080,,,,,0,1256,,,,,,,,,,,,,,,,,160,S,hexagon,1,0,,,,,,,,,,,,,,,,switch,letter,lettSwt,k,Hi,,,,,,0.5562,5,,,,,,,,low,5,0,5,0,1,,,,,,,,,
294592,2022-11-27_03h11.16.439,vts_reward_expectancy_bt,2022.2.4,Win32,143.4514417,Chrome,1920,1080,,,,,0,1256,,,,,,,,,,,,,,,,,167,U,star,1,0,,,,,,,,,,,,,,,,repeat,letter,lettRpt,k,Hi,,,,,,0.5479,5,,,,,,,,low,6,0,6,0,1,,,,,,,,,
294592,2022-11-27_03h11.16.439,vts_reward_expectancy_bt,2022.2.4,Win32,143.4514417,Chrome,1920,1080,,,,,1,1257,,,,,,,,,,,,,,,,,139,Y,triangle,1,0,,,,,,,,,,,,,,,,repeat,letter,lettRpt,k,Lo,,,,,,0.5149,5,,,,,,,,low,7,0,7,0,1,,,,,,,,,
294592,2022-11-27_03h11.16.439,vts_reward_expectancy_bt,2022.2.4,Win32,143.4514417,Chrome,1920,1080,,,,,0,1257,,,,,,,,,,,,,,,,,174,H,star,0,0,,,,,,,,,,,,,,,,repeat,letter,NA,k,Lo,,,,,,0.4438,5,,,,,,,,low,8,0,8,0,1,,,,,,,,,
294592,2022-11-27_03h11.16.439,vts_reward_expectancy_bt,2022.2.4,Win32,143.4514417,Chrome,1920,1080,,,,,10,1267,,,,,,,,,,,,,,,,,181,W,circle,1,1,,,,,,,,,,,,,,,,repeat,letter,lettRpt,k,Lo,,,,,,0.7088,5,,,,,,,,low,9,0,9,0,1,,,,,,,,,
294592,2022-11-27_03h11.16.439,vts_reward_expectancy_bt,2022.2.4,Win32,143.4514417,Chrome,1920,1080,,,,,0,1267,,,,,,,,,,,,,,,,,132,B,hexagon,1,0,,,,,,,,,,,,,,,,repeat,letter,lettRpt,j,Hi,,,,,,0.507,5,,,,,,,,low,10,0,10,0,1,,,,,,,,,
294592,2022-11-27_03h11.16.439,vts_reward_expectancy_bt,2022.2.4,Win32,143.4514417,Chrome,1920,1080,,,,,1,1268,,,,,,,,,,,,,,,,,125,D,triangle,1,0,,,,,,,,,,,,,,,,switch,number,numSwt,d,Lo,,,,,,0.4102,5,,,,,,,,low,11,0,11,0,1,,,,,,,,,
294592,2022-11-27_03h11.16.439,vts_reward_expectancy_bt,2022.2.4,Win32,143.4514417,Chrome,1920,1080,,,,,0,1268,,,,,,,,,,,,,,,,,146,F,star,0,0,,,,,,,,,,,,,,,,repeat,number,NA,f,Lo,,,,,,0.3224,5,,,,,,,,low,12,0,12,0,1,,,,,,,,,
294592,2022-11-27_03h11.16.439,vts_reward_expectancy_bt,2022.2.4,Win32,143.4514417,Chrome,1920,1080,,,,,10,1278,,,,,,,,,,,,,,,,,160,S,hexagon,1,1,,,,,,,,,,,,,,,,repeat,number,numRpt,f,Hi,,,,,,0.3142,5,,,,,,,,low,13,0,13,0,1,,,,,,,,,
294592,2022-11-27_03h11.16.439,vts_reward_expectancy_bt,2022.2.4,Win32,143.4514417,Chrome,1920,1080,,,,,1,1279,,,,,,,,,,,,,,,,,167,U,circle,1,0,,,,,,,,,,,,,,,,repeat,number,numRpt,f,Lo,,,,,,0.4864,5,,,,,,,,low,14,0,14,0,1,,,,,,,,,
294592,2022-11-27_03h11.16.439,vts_reward_expectancy_bt,2022.2.4,Win32,143.4514417,Chrome,1920,1080,,,,,10,1289,,,,,,,,,,,,,,,,,139,Y,triangle,1,0,,,,,,,,,,,,,,,,switch,letter,lettSwt,k,Lo,,,,,,0.4801,5,,,,,,,,low,15,0,15,0,1,,,,,,,,,
294592,2022-11-27_03h11.16.439,vts_reward_expectancy_bt,2022.2.4,Win32,143.4514417,Chrome,1920,1080,,,,,0,1289,,,,,,,,,,,,,,,,,160,U,star,0,0,,,,,,,,,,,,,,,,repeat,letter,NA,j,Lo,,,,,,0.3606,5,,,,,,,,low,16,0,16,0,1,,,,,,,,,
294592,2022-11-27_03h11.16.439,vts_reward_expectancy_bt,2022.2.4,Win32,143.4514417,Chrome,1920,1080,,,,,0,1289,,,,,,,,,,,,,,,,,174,D,hexagon,1,1,,,,,,,,,,,,,,,,repeat,letter,lettRpt,j,Hi,,,,,,0.4924,5,,,,,,,,low,17,0,17,0,1,,,,,,,,,
294592,2022-11-27_03h11.16.439,vts_reward_expectancy_bt,2022.2.4,Win32,143.4514417,Chrome,1920,1080,,,,,10,1299,,,,,,,,,,,,,,,,,146,H,triangle,1,0,,,,,,,,,,,,,,,,repeat,letter,lettRpt,j,Lo,,,,,,0.5905,5,,,,,,,,low,18,0,18,0,1,,,,,,,,,
294592,2022-11-27_03h11.16.439,vts_reward_expectancy_bt,2022.2.4,Win32,143.4514417,Chrome,1920,1080,,,,,10,1309,,,,,,,,,,,,,,,,,132,S,circle,1,0,,,,,,,,,,,,,,,,repeat,letter,lettRpt,k,Lo,,,,,,0.5631,5,,,,,,,,low,19,0,19,0,1,,,,,,,,,
294592,2022-11-27_03h11.16.439,vts_reward_expectancy_bt,2022.2.4,Win32,143.4514417,Chrome,1920,1080,,,,,1,1310,,,,,,,,,,,,,,,,,125,W,circle,1,0,,,,,,,,,,,,,,,,repeat,letter,lettRpt,k,Lo,,,,,,0.4388,5,,,,,,,,low,20,0,20,0,1,,,,,,,,,
294592,2022-11-27_03h11.16.439,vts_reward_expectancy_bt,2022.2.4,Win32,143.4514417,Chrome,1920,1080,,,,,0,1310,,,,,,,,,,,,,,,,,139,F,star,1,0,,,,,,,,,,,,,,,,switch,number,numSwt,d,Hi,,,,,,0.4796,5,,,,,,,,low,21,0,21,0,1,,,,,,,,,
294592,2022-11-27_03h11.16.439,vts_reward_expectancy_bt,2022.2.4,Win32,143.4514417,Chrome,1920,1080,,,,,10,1320,,,,,,,,,,,,,,,,,167,B,triangle,1,0,,,,,,,,,,,,,,,,repeat,number,numRpt,f,Lo,,,,,,0.5696,5,,,,,,,,low,22,0,22,0,1,,,,,,,,,
294592,2022-11-27_03h11.16.439,vts_reward_expectancy_bt,2022.2.4,Win32,143.4514417,Chrome,1920,1080,,,,,0,1320,,,,,,,,,,,,,,,,,181,Y,hexagon,1,0,,,,,,,,,,,,,,,,repeat,number,numRpt,f,Hi,,,,,,0.4237,5,,,,,,,,low,23,0,23,0,1,,,,,,,,,
294592,2022-11-27_03h11.16.439,vts_reward_expectancy_bt,2022.2.4,Win32,143.4514417,Chrome,1920,1080,,,,,1,1321,,,,,,,,,,,,,,,,,181,F,triangle,1,0,,,,,,,,,,,,,,,,repeat,number,numRpt,f,Lo,,,,,,0.5086,5,,,,,,,,low,24,0,24,0,1,,,,,,,,,
294592,2022-11-27_03h11.16.439,vts_reward_expectancy_bt,2022.2.4,Win32,143.4514417,Chrome,1920,1080,,,,,0,1321,,,,,,,,,,,,,,,,,139,U,star,1,0,,,,,,,,,,,,,,,,repeat,number,numRpt,d,Hi,,,,,,0.4674,5,,,,,,,,low,25,0,25,0,1,,,,,,,,,
294592,2022-11-27_03h11.16.439,vts_reward_expectancy_bt,2022.2.4,Win32,143.4514417,Chrome,1920,1080,,,,,0,1321,,,,,,,,,,,,,,,,,174,H,hexagon,1,0,,,,,,,,,,,,,,,,repeat,number,numRpt,f,Hi,,,,,,0.4742,5,,,,,,,,low,26,0,26,0,1,,,,,,,,,
294592,2022-11-27_03h11.16.439,vts_reward_expectancy_bt,2022.2.4,Win32,143.4514417,Chrome,1920,1080,,,,,1,1322,,,,,,,,,,,,,,,,,160,W,circle,1,0,,,,,,,,,,,,,,,,repeat,number,numRpt,f,Lo,,,,,,0.4332,5,,,,,,,,low,27,0,27,0,1,,,,,,,,,
294592,2022-11-27_03h11.16.439,vts_reward_expectancy_bt,2022.2.4,Win32,143.4514417,Chrome,1920,1080,,,,,0,1322,,,,,,,,,,,,,,,,,146,B,star,1,0,,,,,,,,,,,,,,,,switch,letter,lettSwt,j,Hi,,,,,,0.5134,5,,,,,,,,low,28,0,28,0,1,,,,,,,,,
294592,2022-11-27_03h11.16.439,vts_reward_expectancy_bt,2022.2.4,Win32,143.4514417,Chrome,1920,1080,,,,,1,1323,,,,,,,,,,,,,,,,,132,D,triangle,1,0,,,,,,,,,,,,,,,,repeat,letter,lettRpt,j,Lo,,,,,,0.4169,5,,,,,,,,low,29,0,29,0,1,,,,,,,,,
294592,2022-11-27_03h11.16.439,vts_reward_expectancy_bt,2022.2.4,Win32,143.4514417,Chrome,1920,1080,,,,,0,1323,,,,,,,,,,,,,,,,,167,S,hexagon,1,0,,,,,,,,,,,,,,,,switch,number,numSwt,f,Hi,,,,,,0.6518,5,,,,,,,,low,30,0,30,0,1,,,,,,,,,
294592,2022-11-27_03h11.16.439,vts_reward_expectancy_bt,2022.2.4,Win32,143.4514417,Chrome,1920,1080,,,,,10,1333,,,,,,,,,,,,,,,,,125,Y,circle,1,0,,,,,,,,,,,,,,,,repeat,number,numRpt,d,Lo,,,,,,0.3264,5,,,,,,,,low,31,0,31,0,1,,,,,,,,,
294592,2022-11-27_03h11.16.439,vts_reward_expectancy_bt,2022.2.4,Win32,143.4514417,Chrome,1920,1080,,,,,10,1343,,,,,,,,,,,,,,,,,160,F,circle,1,0,,,,,,,,,,,,,,,,switch,letter,lettSwt,j,Lo,,,,,,0.7989,6,,,,,,space,0.4465,low,0,0,0,0,1,,,,,,,,,
294592,2022-11-27_03h11.16.439,vts_reward_expectancy_bt,2022.2.4,Win32,143.4514417,Chrome,1920,1080,,,,,1,1344,,,,,,,,,,,,,,,,,174,W,hexagon,1,0,,,,,,,,,,,,,,,,repeat,letter,lettRpt,k,Hi,,,,,,0.4655,6,,,,,,,,low,1,0,1,0,1,,,,,,,,,
294592,2022-11-27_03h11.16.439,vts_reward_expectancy_bt,2022.2.4,Win32,143.4514417,Chrome,1920,1080,,,,,10,1354,,,,,,,,,,,,,,,,,146,B,star,1,0,,,,,,,,,,,,,,,,switch,number,numSwt,d,Hi,,,,,,0.4258,6,,,,,,,,low,2,0,2,0,1,,,,,,,,,
294592,2022-11-27_03h11.16.439,vts_reward_expectancy_bt,2022.2.4,Win32,143.4514417,Chrome,1920,1080,,,,,1,1355,,,,,,,,,,,,,,,,,125,D,triangle,1,0,,,,,,,,,,,,,,,,repeat,number,numRpt,d,Lo,,,,,,0.5832,6,,,,,,,,low,3,0,3,0,1,,,,,,,,,
294592,2022-11-27_03h11.16.439,vts_reward_expectancy_bt,2022.2.4,Win32,143.4514417,Chrome,1920,1080,,,,,1,1356,,,,,,,,,,,,,,,,,167,Y,circle,1,0,,,,,,,,,,,,,,,,repeat,number,numRpt,f,Lo,,,,,,0.3816,6,,,,,,,,low,4,0,4,0,1,,,,,,,,,
294592,2022-11-27_03h11.16.439,vts_reward_expectancy_bt,2022.2.4,Win32,143.4514417,Chrome,1920,1080,,,,,0,1356,,,,,,,,,,,,,,,,,139,S,hexagon,1,0,,,,,,,,,,,,,,,,switch,letter,lettSwt,k,Hi,,,,,,0.5485,6,,,,,,,,low,5,0,5,0,1,,,,,,,,,
294592,2022-11-27_03h11.16.439,vts_reward_expectancy_bt,2022.2.4,Win32,143.4514417,Chrome,1920,1080,,,,,10,1366,,,,,,,,,,,,,,,,,181,U,star,1,0,,,,,,,,,,,,,,,,repeat,letter,lettRpt,k,Hi,,,,,,0.4389,6,,,,,,,,low,6,0,6,0,1,,,,,,,,,
294592,2022-11-27_03h11.16.439,vts_reward_expectancy_bt,2022.2.4,Win32,143.4514417,Chrome,1920,1080,,,,,0,1366,,,,,,,,,,,,,,,,,132,H,triangle,0,0,,,,,,,,,,,,,,,,repeat,letter,NA,k,Hi,,,,,,0.4266,6,,,,,,,,low,7,0,7,0,1,,,,,,,,,
294592,2022-11-27_03h11.16.439,vts_reward_expectancy_bt,2022.2.4,Win32,143.4514417,Chrome,1920,1080,,,,,1,1367,,,,,,,,,,,,,,,,,160,F,triangle,1,1,,,,,,,,,,,,,,,,switch,number,numSwt,f,Lo,,,,,,0.5351,6,,,,,,,,low,8,0,8,0,1,,,,,,,,,
294592,2022-11-27_03h11.16.439,vts_reward_expectancy_bt,2022.2.4,Win32,143.4514417,Chrome,1920,1080,,,,,1,1368,,,,,,,,,,,,,,,,,174,W,circle,1,0,,,,,,,,,,,,,,,,switch,letter,lettSwt,k,Lo,,,,,,0.3608,6,,,,,,,,low,9,0,9,0,1,,,,,,,,,
294592,2022-11-27_03h11.16.439,vts_reward_expectancy_bt,2022.2.4,Win32,143.4514417,Chrome,1920,1080,,,,,10,1378,,,,,,,,,,,,,,,,,146,B,star,1,0,,,,,,,,,,,,,,,,switch,number,numSwt,d,Hi,,,,,,0.3976,6,,,,,,,,low,10,0,10,0,1,,,,,,,,,
294592,2022-11-27_03h11.16.439,vts_reward_expectancy_bt,2022.2.4,Win32,143.4514417,Chrome,1920,1080,,,,,1,1379,,,,,,,,,,,,,,,,,125,D,hexagon,1,0,,,,,,,,,,,,,,,,repeat,number,numRpt,d,Hi,,,,,,0.4231,6,,,,,,,,low,11,0,11,0,1,,,,,,,,,
294592,2022-11-27_03h11.16.439,vts_reward_expectancy_bt,2022.2.4,Win32,143.4514417,Chrome,1920,1080,,,,,10,1389,,,,,,,,,,,,,,,,,167,Y,triangle,1,0,,,,,,,,,,,,,,,,repeat,number,numRpt,f,Lo,,,,,,0.593,6,,,,,,,,low,12,0,12,0,1,,,,,,,,,
294592,2022-11-27_03h11.16.439,vts_reward_expectancy_bt,2022.2.4,Win32,143.4514417,Chrome,1920,1080,,,,,0,1389,,,,,,,,,,,,,,,,,139,S,hexagon,1,0,,,,,,,,,,,,,,,,switch,letter,lettSwt,k,Hi,,,,,,0.7429,6,,,,,,,,low,13,0,13,0,1,,,,,,,,,
294592,2022-11-27_03h11.16.439,vts_reward_expectancy_bt,2022.2.4,Win32,143.4514417,Chrome,1920,1080,,,,,0,1389,,,,,,,,,,,,,,,,,181,U,star,0,0,,,,,,,,,,,,,,,,repeat,letter,NA,j,Hi,,,,,,0.4894,6,,,,,,,,low,14,0,14,0,1,,,,,,,,,
