participant,date,expName,psychopyVersion,OS,frameRate,browser,xResolution,yResolution,key_resp.keys,key_resp.rt,training_resp.keys,training_resp.rt,points_trial,points_cumul,trainBlock,training.thisRepN,training.thisTrialN,training.thisN,training.thisIndex,training.ran,LTriangleOpac,LCircleOpac,LHexagonOpac,LStarOpac,RTriangleOpac,RCircleOpac,RHexagonOpac,RStarOpac,LShape_ID,RShape_ID,curr_topStim,curr_bottStim,curr_shape,acc,E1,target_resp_prac1.keys,pracBlock,task1_prac_trials.thisRepN,task1_prac_trials.thisTrialN,task1_prac_trials.thisN,task1_prac_trials.thisIndex,task1_prac_trials.ran,target_resp_prac1.rt,target_resp_prac2.keys,target_resp_prac2.rt,task2_praac_trials.thisRepN,task2_praac_trials.thisTrialN,task2_praac_trials.thisN,task2_praac_trials.thisIndex,task2_praac_trials.ran,alt,task,condition,target_resp.keys,target_resp.rt,rewCond,vts_practice_trials.thisRepN,vts_practice_trials.thisTrialN,vts_practice_trials.thisN,vts_practice_trials.thisIndex,vts_practice_trials.ran,blockNum,trials_norew.thisRepN,trials_norew.thisTrialN,trials_norew.thisN,trials_norew.thisIndex,trials_norew.ran,key_resp_2.keys,key_resp_2.rt,rewExpectancy,trials_rew.thisRepN,trials_rew.thisTrialN,trials_rew.thisN,trials_rew.thisIndex,trials_rew.ran,Q1,Q2,Q2_text,Q3,Q4,Q5_text,Q5,xRes,yRes
294511,2022-12-05_23h15.13.780,vts_reward_expectancy_bt,2022.2.4,Win32,60.25548325,Chrome,1494,934,,,,,,,,,,,,,,,,,,,,,,,,,,,,,,,,,,,,,,,,,,,,,,,,,,,,,,,,,,,,,,,,,,,,,,,,,,,,
294511,2022-12-05_23h15.13.780,vts_reward_expectancy_bt,2022.2.4,Win32,60.25548325,Chrome,1494,934,space,1.441,,,,,,,,,,,,,,,,,,,,,,,,,,,,,,,,,,,,,,,,,,,,,,,,,,,,,,,,,,,,,,,,,,,,,,,,,,
294511,2022-12-05_23h15.13.780,vts_reward_expectancy_bt,2022.2.4,Win32,60.25548325,Chrome,1494,934,,,,,,,,,,,,,,,,,,,,,,,,,,,,,,,,,,,,,,,,,,,,,,,,,,,,,,,,,,,,,,,,,,,,,,,,,,,,
294511,2022-12-05_23h15.13.780,vts_reward_expectancy_bt,2022.2.4,Win32,60.25548325,Chrome,1494,934,,,l,4.9205,10,10,0,0,0,0,8,1,0,0,1,0,0,0,0,1,hexagon,star,,,,,,,,,,,,,,,,,,,,,,,,,,,,,,,,,,,,,,,,,,,,,,,,,,,,,,
294511,2022-12-05_23h15.13.780,vts_reward_expectancy_bt,2022.2.4,Win32,60.25548325,Chrome,1494,934,,,l,7.9969,1,11,0,0,1,1,11,1,0,0,0,1,0,0,1,0,star,hexagon,,,,,,,,,,,,,,,,,,,,,,,,,,,,,,,,,,,,,,,,,,,,,,,,,,,,,,
294511,2022-12-05_23h15.13.780,vts_reward_expectancy_bt,2022.2.4,Win32,60.25548325,Chrome,1494,934,,,l,0.1689,10,21,0,0,2,2,9,1,0,0,0,1,1,0,0,0,star,triangle,,,,,,,,,,,,,,,,,,,,,,,,,,,,,,,,,,,,,,,,,,,,,,,,,,,,,,
294511,2022-12-05_23h15.13.780,vts_reward_expectancy_bt,2022.2.4,Win32,60.25548325,Chrome,1494,934,,,l,0.2602,10,31,0,0,3,3,5,1,0,1,0,0,0,0,0,1,circle,star,,,,,,,,,,,,,,,,,,,,,,,,,,,,,,,,,,,,,,,,,,,,,,,,,,,,,,
294511,2022-12-05_23h15.13.780,vts_reward_expectancy_bt,2022.2.4,Win32,60.25548325,Chrome,1494,934,,,l,0.0661,10,41,0,0,4,4,2,1,1,0,0,0,0,0,0,1,triangle,star,,,,,,,,,,,,,,,,,,,,,,,,,,,,,,,,,,,,,,,,,,,,,,,,,,,,,,
294511,2022-12-05_23h15.13.780,vts_reward_expectancy_bt,2022.2.4,Win32,60.25548325,Chrome,1494,934,,,l,0.0788,1,42,0,0,5,5,4,1,0,1,0,0,0,0,1,0,circle,hexagon,,,,,,,,,,,,,,,,,,,,,,,,,,,,,,,,,,,,,,,,,,,,,,,,,,,,,,
294511,2022-12-05_23h15.13.780,vts_reward_expectancy_bt,2022.2.4,Win32,60.25548325,Chrome,1494,934,,,l,0.569,10,52,0,0,6,6,0,1,1,0,0,0,0,1,0,0,triangle,circle,,,,,,,,,,,,,,,,,,,,,,,,,,,,,,,,,,,,,,,,,,,,,,,,,,,,,,
294511,2022-12-05_23h15.13.780,vts_reward_expectancy_bt,2022.2.4,Win32,60.25548325,Chrome,1494,934,,,l,0.1299,10,62,0,0,7,7,7,1,0,0,1,0,0,1,0,0,hexagon,circle,,,,,,,,,,,,,,,,,,,,,,,,,,,,,,,,,,,,,,,,,,,,,,,,,,,,,,
294511,2022-12-05_23h15.13.780,vts_reward_expectancy_bt,2022.2.4,Win32,60.25548325,Chrome,1494,934,,,l,0.3518,10,72,0,0,8,8,10,1,0,0,0,1,0,1,0,0,star ,circle,,,,,,,,,,,,,,,,,,,,,,,,,,,,,,,,,,,,,,,,,,,,,,,,,,,,,,
294511,2022-12-05_23h15.13.780,vts_reward_expectancy_bt,2022.2.4,Win32,60.25548325,Chrome,1494,934,,,l,0.4716,1,73,0,0,9,9,6,1,0,0,1,0,1,0,0,0,hexagon,triangle,,,,,,,,,,,,,,,,,,,,,,,,,,,,,,,,,,,,,,,,,,,,,,,,,,,,,,
294511,2022-12-05_23h15.13.780,vts_reward_expectancy_bt,2022.2.4,Win32,60.25548325,Chrome,1494,934,,,l,0.5525,1,74,0,0,10,10,1,1,1,0,0,0,0,0,1,0,triangle,hexagon,,,,,,,,,,,,,,,,,,,,,,,,,,,,,,,,,,,,,,,,,,,,,,,,,,,,,,
294511,2022-12-05_23h15.13.780,vts_reward_expectancy_bt,2022.2.4,Win32,60.25548325,Chrome,1494,934,,,l,0.1014,1,75,0,0,11,11,3,1,0,1,0,0,1,0,0,0,circle,triangle,,,,,,,,,,,,,,,,,,,,,,,,,,,,,,,,,,,,,,,,,,,,,,,,,,,,,,
294511,2022-12-05_23h15.13.780,vts_reward_expectancy_bt,2022.2.4,Win32,60.25548325,Chrome,1494,934,,,l,0.5019,10,85,0,1,0,12,2,1,1,0,0,0,0,0,0,1,triangle,star,,,,,,,,,,,,,,,,,,,,,,,,,,,,,,,,,,,,,,,,,,,,,,,,,,,,,,
294511,2022-12-05_23h15.13.780,vts_reward_expectancy_bt,2022.2.4,Win32,60.25548325,Chrome,1494,934,,,l,0.817,1,86,0,1,1,13,11,1,0,0,0,1,0,0,1,0,star,hexagon,,,,,,,,,,,,,,,,,,,,,,,,,,,,,,,,,,,,,,,,,,,,,,,,,,,,,,
294511,2022-12-05_23h15.13.780,vts_reward_expectancy_bt,2022.2.4,Win32,60.25548325,Chrome,1494,934,,,l,0.2805,1,87,0,1,2,14,5,1,0,1,0,0,0,0,0,1,circle,star,,,,,,,,,,,,,,,,,,,,,,,,,,,,,,,,,,,,,,,,,,,,,,,,,,,,,,
294511,2022-12-05_23h15.13.780,vts_reward_expectancy_bt,2022.2.4,Win32,60.25548325,Chrome,1494,934,,,l,0.1347,10,97,0,1,3,15,1,1,1,0,0,0,0,0,1,0,triangle,hexagon,,,,,,,,,,,,,,,,,,,,,,,,,,,,,,,,,,,,,,,,,,,,,,,,,,,,,,
294511,2022-12-05_23h15.13.780,vts_reward_expectancy_bt,2022.2.4,Win32,60.25548325,Chrome,1494,934,,,l,0.0872,10,107,0,1,4,16,3,1,0,1,0,0,1,0,0,0,circle,triangle,,,,,,,,,,,,,,,,,,,,,,,,,,,,,,,,,,,,,,,,,,,,,,,,,,,,,,
294511,2022-12-05_23h15.13.780,vts_reward_expectancy_bt,2022.2.4,Win32,60.25548325,Chrome,1494,934,,,l,0.2687,10,117,0,1,5,17,10,1,0,0,0,1,0,1,0,0,star ,circle,,,,,,,,,,,,,,,,,,,,,,,,,,,,,,,,,,,,,,,,,,,,,,,,,,,,,,
294511,2022-12-05_23h15.13.780,vts_reward_expectancy_bt,2022.2.4,Win32,60.25548325,Chrome,1494,934,,,l,0.0687,1,118,0,1,6,18,4,1,0,1,0,0,0,0,1,0,circle,hexagon,,,,,,,,,,,,,,,,,,,,,,,,,,,,,,,,,,,,,,,,,,,,,,,,,,,,,,
294511,2022-12-05_23h15.13.780,vts_reward_expectancy_bt,2022.2.4,Win32,60.25548325,Chrome,1494,934,,,l,0.0661,10,128,0,1,7,19,0,1,1,0,0,0,0,1,0,0,triangle,circle,,,,,,,,,,,,,,,,,,,,,,,,,,,,,,,,,,,,,,,,,,,,,,,,,,,,,,
294511,2022-12-05_23h15.13.780,vts_reward_expectancy_bt,2022.2.4,Win32,60.25548325,Chrome,1494,934,,,l,0.3515,1,129,0,1,8,20,6,1,0,0,1,0,1,0,0,0,hexagon,triangle,,,,,,,,,,,,,,,,,,,,,,,,,,,,,,,,,,,,,,,,,,,,,,,,,,,,,,
294511,2022-12-05_23h15.13.780,vts_reward_expectancy_bt,2022.2.4,Win32,60.25548325,Chrome,1494,934,,,l,0.0124,10,139,0,1,9,21,7,1,0,0,1,0,0,1,0,0,hexagon,circle,,,,,,,,,,,,,,,,,,,,,,,,,,,,,,,,,,,,,,,,,,,,,,,,,,,,,,
294511,2022-12-05_23h15.13.780,vts_reward_expectancy_bt,2022.2.4,Win32,60.25548325,Chrome,1494,934,,,l,0.235,1,140,0,1,10,22,9,1,0,0,0,1,1,0,0,0,star,triangle,,,,,,,,,,,,,,,,,,,,,,,,,,,,,,,,,,,,,,,,,,,,,,,,,,,,,,
294511,2022-12-05_23h15.13.780,vts_reward_expectancy_bt,2022.2.4,Win32,60.25548325,Chrome,1494,934,,,l,0.1527,10,150,0,1,11,23,8,1,0,0,1,0,0,0,0,1,hexagon,star,,,,,,,,,,,,,,,,,,,,,,,,,,,,,,,,,,,,,,,,,,,,,,,,,,,,,,
294511,2022-12-05_23h15.13.780,vts_reward_expectancy_bt,2022.2.4,Win32,60.25548325,Chrome,1494,934,,,l,0.2846,10,160,0,2,0,24,5,1,0,1,0,0,0,0,0,1,circle,star,,,,,,,,,,,,,,,,,,,,,,,,,,,,,,,,,,,,,,,,,,,,,,,,,,,,,,
294511,2022-12-05_23h15.13.780,vts_reward_expectancy_bt,2022.2.4,Win32,60.25548325,Chrome,1494,934,,,l,0.2767,10,170,0,2,1,25,10,1,0,0,0,1,0,1,0,0,star ,circle,,,,,,,,,,,,,,,,,,,,,,,,,,,,,,,,,,,,,,,,,,,,,,,,,,,,,,
294511,2022-12-05_23h15.13.780,vts_reward_expectancy_bt,2022.2.4,Win32,60.25548325,Chrome,1494,934,,,l,0.4241,10,180,0,2,2,26,1,1,1,0,0,0,0,0,1,0,triangle,hexagon,,,,,,,,,,,,,,,,,,,,,,,,,,,,,,,,,,,,,,,,,,,,,,,,,,,,,,
294511,2022-12-05_23h15.13.780,vts_reward_expectancy_bt,2022.2.4,Win32,60.25548325,Chrome,1494,934,,,l,0.436,10,190,0,2,3,27,3,1,0,1,0,0,1,0,0,0,circle,triangle,,,,,,,,,,,,,,,,,,,,,,,,,,,,,,,,,,,,,,,,,,,,,,,,,,,,,,
294511,2022-12-05_23h15.13.780,vts_reward_expectancy_bt,2022.2.4,Win32,60.25548325,Chrome,1494,934,,,l,0.0848,1,191,0,2,4,28,0,1,1,0,0,0,0,1,0,0,triangle,circle,,,,,,,,,,,,,,,,,,,,,,,,,,,,,,,,,,,,,,,,,,,,,,,,,,,,,,
294511,2022-12-05_23h15.13.780,vts_reward_expectancy_bt,2022.2.4,Win32,60.25548325,Chrome,1494,934,,,l,0.4178,1,192,0,2,5,29,9,1,0,0,0,1,1,0,0,0,star,triangle,,,,,,,,,,,,,,,,,,,,,,,,,,,,,,,,,,,,,,,,,,,,,,,,,,,,,,
294511,2022-12-05_23h15.13.780,vts_reward_expectancy_bt,2022.2.4,Win32,60.25548325,Chrome,1494,934,,,l,0.0857,1,193,0,2,6,30,6,1,0,0,1,0,1,0,0,0,hexagon,triangle,,,,,,,,,,,,,,,,,,,,,,,,,,,,,,,,,,,,,,,,,,,,,,,,,,,,,,
294511,2022-12-05_23h15.13.780,vts_reward_expectancy_bt,2022.2.4,Win32,60.25548325,Chrome,1494,934,,,l,0.6511,10,203,0,2,7,31,8,1,0,0,1,0,0,0,0,1,hexagon,star,,,,,,,,,,,,,,,,,,,,,,,,,,,,,,,,,,,,,,,,,,,,,,,,,,,,,,
294511,2022-12-05_23h15.13.780,vts_reward_expectancy_bt,2022.2.4,Win32,60.25548325,Chrome,1494,934,,,l,0.0357,10,213,0,2,8,32,7,1,0,0,1,0,0,1,0,0,hexagon,circle,,,,,,,,,,,,,,,,,,,,,,,,,,,,,,,,,,,,,,,,,,,,,,,,,,,,,,
294511,2022-12-05_23h15.13.780,vts_reward_expectancy_bt,2022.2.4,Win32,60.25548325,Chrome,1494,934,,,l,0.0028,1,214,0,2,9,33,4,1,0,1,0,0,0,0,1,0,circle,hexagon,,,,,,,,,,,,,,,,,,,,,,,,,,,,,,,,,,,,,,,,,,,,,,,,,,,,,,
294511,2022-12-05_23h15.13.780,vts_reward_expectancy_bt,2022.2.4,Win32,60.25548325,Chrome,1494,934,,,l,0.1891,10,224,0,2,10,34,11,1,0,0,0,1,0,0,1,0,star,hexagon,,,,,,,,,,,,,,,,,,,,,,,,,,,,,,,,,,,,,,,,,,,,,,,,,,,,,,
294511,2022-12-05_23h15.13.780,vts_reward_expectancy_bt,2022.2.4,Win32,60.25548325,Chrome,1494,934,,,l,0.4752,10,234,0,2,11,35,2,1,1,0,0,0,0,0,0,1,triangle,star,,,,,,,,,,,,,,,,,,,,,,,,,,,,,,,,,,,,,,,,,,,,,,,,,,,,,,
294511,2022-12-05_23h15.13.780,vts_reward_expectancy_bt,2022.2.4,Win32,60.25548325,Chrome,1494,934,,,l,0.8386,10,244,1,0,0,0,10,1,0,0,0,1,0,1,0,0,star ,circle,,,,,,,,,,,,,,,,,,,,,,,,,,,,,,,,,,,,,,,,,,,,,,,,,,,,,,
294511,2022-12-05_23h15.13.780,vts_reward_expectancy_bt,2022.2.4,Win32,60.25548325,Chrome,1494,934,,,l,0.1836,1,245,1,0,1,1,7,1,0,0,1,0,0,1,0,0,hexagon,circle,,,,,,,,,,,,,,,,,,,,,,,,,,,,,,,,,,,,,,,,,,,,,,,,,,,,,,
294511,2022-12-05_23h15.13.780,vts_reward_expectancy_bt,2022.2.4,Win32,60.25548325,Chrome,1494,934,,,l,0.0683,10,255,1,0,2,2,6,1,0,0,1,0,1,0,0,0,hexagon,triangle,,,,,,,,,,,,,,,,,,,,,,,,,,,,,,,,,,,,,,,,,,,,,,,,,,,,,,
294511,2022-12-05_23h15.13.780,vts_reward_expectancy_bt,2022.2.4,Win32,60.25548325,Chrome,1494,934,,,l,0.3517,1,256,1,0,3,3,11,1,0,0,0,1,0,0,1,0,star,hexagon,,,,,,,,,,,,,,,,,,,,,,,,,,,,,,,,,,,,,,,,,,,,,,,,,,,,,,
294511,2022-12-05_23h15.13.780,vts_reward_expectancy_bt,2022.2.4,Win32,60.25548325,Chrome,1494,934,,,l,0.2171,10,266,1,0,4,4,1,1,1,0,0,0,0,0,1,0,triangle,hexagon,,,,,,,,,,,,,,,,,,,,,,,,,,,,,,,,,,,,,,,,,,,,,,,,,,,,,,
294511,2022-12-05_23h15.13.780,vts_reward_expectancy_bt,2022.2.4,Win32,60.25548325,Chrome,1494,934,,,l,0.0179,1,267,1,0,5,5,0,1,1,0,0,0,0,1,0,0,triangle,circle,,,,,,,,,,,,,,,,,,,,,,,,,,,,,,,,,,,,,,,,,,,,,,,,,,,,,,
294511,2022-12-05_23h15.13.780,vts_reward_expectancy_bt,2022.2.4,Win32,60.25548325,Chrome,1494,934,,,l,0.0851,10,277,1,0,6,6,2,1,1,0,0,0,0,0,0,1,triangle,star,,,,,,,,,,,,,,,,,,,,,,,,,,,,,,,,,,,,,,,,,,,,,,,,,,,,,,
294511,2022-12-05_23h15.13.780,vts_reward_expectancy_bt,2022.2.4,Win32,60.25548325,Chrome,1494,934,,,l,0.0372,1,278,1,0,7,7,9,1,0,0,0,1,1,0,0,0,star,triangle,,,,,,,,,,,,,,,,,,,,,,,,,,,,,,,,,,,,,,,,,,,,,,,,,,,,,,
294511,2022-12-05_23h15.13.780,vts_reward_expectancy_bt,2022.2.4,Win32,60.25548325,Chrome,1494,934,,,l,0.1922,1,279,1,0,8,8,4,1,0,1,0,0,0,0,1,0,circle,hexagon,,,,,,,,,,,,,,,,,,,,,,,,,,,,,,,,,,,,,,,,,,,,,,,,,,,,,,
294511,2022-12-05_23h15.13.780,vts_reward_expectancy_bt,2022.2.4,Win32,60.25548325,Chrome,1494,934,,,l,0.357,1,280,1,0,9,9,3,1,0,1,0,0,1,0,0,0,circle,triangle,,,,,,,,,,,,,,,,,,,,,,,,,,,,,,,,,,,,,,,,,,,,,,,,,,,,,,
294511,2022-12-05_23h15.13.780,vts_reward_expectancy_bt,2022.2.4,Win32,60.25548325,Chrome,1494,934,,,l,0.9245,10,290,1,0,10,10,8,1,0,0,1,0,0,0,0,1,hexagon,star,,,,,,,,,,,,,,,,,,,,,,,,,,,,,,,,,,,,,,,,,,,,,,,,,,,,,,
294511,2022-12-05_23h15.13.780,vts_reward_expectancy_bt,2022.2.4,Win32,60.25548325,Chrome,1494,934,,,l,0.0469,10,300,1,0,11,11,5,1,0,1,0,0,0,0,0,1,circle,star,,,,,,,,,,,,,,,,,,,,,,,,,,,,,,,,,,,,,,,,,,,,,,,,,,,,,,
294511,2022-12-05_23h15.13.780,vts_reward_expectancy_bt,2022.2.4,Win32,60.25548325,Chrome,1494,934,,,l,0.0764,10,310,1,1,0,12,5,1,0,1,0,0,0,0,0,1,circle,star,,,,,,,,,,,,,,,,,,,,,,,,,,,,,,,,,,,,,,,,,,,,,,,,,,,,,,
294511,2022-12-05_23h15.13.780,vts_reward_expectancy_bt,2022.2.4,Win32,60.25548325,Chrome,1494,934,,,l,0.0353,1,311,1,1,1,13,6,1,0,0,1,0,1,0,0,0,hexagon,triangle,,,,,,,,,,,,,,,,,,,,,,,,,,,,,,,,,,,,,,,,,,,,,,,,,,,,,,
294511,2022-12-05_23h15.13.780,vts_reward_expectancy_bt,2022.2.4,Win32,60.25548325,Chrome,1494,934,,,l,0.1193,1,312,1,1,2,14,7,1,0,0,1,0,0,1,0,0,hexagon,circle,,,,,,,,,,,,,,,,,,,,,,,,,,,,,,,,,,,,,,,,,,,,,,,,,,,,,,
294511,2022-12-05_23h15.13.780,vts_reward_expectancy_bt,2022.2.4,Win32,60.25548325,Chrome,1494,934,,,l,0.3208,1,313,1,1,3,15,3,1,0,1,0,0,1,0,0,0,circle,triangle,,,,,,,,,,,,,,,,,,,,,,,,,,,,,,,,,,,,,,,,,,,,,,,,,,,,,,
294511,2022-12-05_23h15.13.780,vts_reward_expectancy_bt,2022.2.4,Win32,60.25548325,Chrome,1494,934,,,l,0.1056,1,314,1,1,4,16,1,1,1,0,0,0,0,0,1,0,triangle,hexagon,,,,,,,,,,,,,,,,,,,,,,,,,,,,,,,,,,,,,,,,,,,,,,,,,,,,,,
294511,2022-12-05_23h15.13.780,vts_reward_expectancy_bt,2022.2.4,Win32,60.25548325,Chrome,1494,934,,,l,0.1907,1,315,1,1,5,17,11,1,0,0,0,1,0,0,1,0,star,hexagon,,,,,,,,,,,,,,,,,,,,,,,,,,,,,,,,,,,,,,,,,,,,,,,,,,,,,,
294511,2022-12-05_23h15.13.780,vts_reward_expectancy_bt,2022.2.4,Win32,60.25548325,Chrome,1494,934,,,l,0.0855,1,316,1,1,6,18,9,1,0,0,0,1,1,0,0,0,star,triangle,,,,,,,,,,,,,,,,,,,,,,,,,,,,,,,,,,,,,,,,,,,,,,,,,,,,,,
294511,2022-12-05_23h15.13.780,vts_reward_expectancy_bt,2022.2.4,Win32,60.25548325,Chrome,1494,934,,,l,0.3083,1,317,1,1,7,19,8,1,0,0,1,0,0,0,0,1,hexagon,star,,,,,,,,,,,,,,,,,,,,,,,,,,,,,,,,,,,,,,,,,,,,,,,,,,,,,,
294511,2022-12-05_23h15.13.780,vts_reward_expectancy_bt,2022.2.4,Win32,60.25548325,Chrome,1494,934,,,l,0.1865,1,318,1,1,8,20,0,1,1,0,0,0,0,1,0,0,triangle,circle,,,,,,,,,,,,,,,,,,,,,,,,,,,,,,,,,,,,,,,,,,,,,,,,,,,,,,
294511,2022-12-05_23h15.13.780,vts_reward_expectancy_bt,2022.2.4,Win32,60.25548325,Chrome,1494,934,,,l,0.2667,10,328,1,1,9,21,10,1,0,0,0,1,0,1,0,0,star ,circle,,,,,,,,,,,,,,,,,,,,,,,,,,,,,,,,,,,,,,,,,,,,,,,,,,,,,,
294511,2022-12-05_23h15.13.780,vts_reward_expectancy_bt,2022.2.4,Win32,60.25548325,Chrome,1494,934,,,l,0.5317,10,338,1,1,10,22,2,1,1,0,0,0,0,0,0,1,triangle,star,,,,,,,,,,,,,,,,,,,,,,,,,,,,,,,,,,,,,,,,,,,,,,,,,,,,,,
294511,2022-12-05_23h15.13.780,vts_reward_expectancy_bt,2022.2.4,Win32,60.25548325,Chrome,1494,934,,,l,0.3245,10,348,1,1,11,23,4,1,0,1,0,0,0,0,1,0,circle,hexagon,,,,,,,,,,,,,,,,,,,,,,,,,,,,,,,,,,,,,,,,,,,,,,,,,,,,,,
294511,2022-12-05_23h15.13.780,vts_reward_expectancy_bt,2022.2.4,Win32,60.25548325,Chrome,1494,934,,,l,0.251,1,349,1,2,0,24,1,1,1,0,0,0,0,0,1,0,triangle,hexagon,,,,,,,,,,,,,,,,,,,,,,,,,,,,,,,,,,,,,,,,,,,,,,,,,,,,,,
294511,2022-12-05_23h15.13.780,vts_reward_expectancy_bt,2022.2.4,Win32,60.25548325,Chrome,1494,934,,,l,0.2068,1,350,1,2,1,25,8,1,0,0,1,0,0,0,0,1,hexagon,star,,,,,,,,,,,,,,,,,,,,,,,,,,,,,,,,,,,,,,,,,,,,,,,,,,,,,,
294511,2022-12-05_23h15.13.780,vts_reward_expectancy_bt,2022.2.4,Win32,60.25548325,Chrome,1494,934,,,l,0.1349,10,360,1,2,2,26,7,1,0,0,1,0,0,1,0,0,hexagon,circle,,,,,,,,,,,,,,,,,,,,,,,,,,,,,,,,,,,,,,,,,,,,,,,,,,,,,,
294511,2022-12-05_23h15.13.780,vts_reward_expectancy_bt,2022.2.4,Win32,60.25548325,Chrome,1494,934,,,l,0.0424,1,361,1,2,3,27,4,1,0,1,0,0,0,0,1,0,circle,hexagon,,,,,,,,,,,,,,,,,,,,,,,,,,,,,,,,,,,,,,,,,,,,,,,,,,,,,,
294511,2022-12-05_23h15.13.780,vts_reward_expectancy_bt,2022.2.4,Win32,60.25548325,Chrome,1494,934,,,l,0.2342,1,362,1,2,4,28,6,1,0,0,1,0,1,0,0,0,hexagon,triangle,,,,,,,,,,,,,,,,,,,,,,,,,,,,,,,,,,,,,,,,,,,,,,,,,,,,,,
294511,2022-12-05_23h15.13.780,vts_reward_expectancy_bt,2022.2.4,Win32,60.25548325,Chrome,1494,934,,,l,0.0208,10,372,1,2,5,29,11,1,0,0,0,1,0,0,1,0,star,hexagon,,,,,,,,,,,,,,,,,,,,,,,,,,,,,,,,,,,,,,,,,,,,,,,,,,,,,,
294511,2022-12-05_23h15.13.780,vts_reward_expectancy_bt,2022.2.4,Win32,60.25548325,Chrome,1494,934,,,l,0.0353,1,373,1,2,6,30,9,1,0,0,0,1,1,0,0,0,star,triangle,,,,,,,,,,,,,,,,,,,,,,,,,,,,,,,,,,,,,,,,,,,,,,,,,,,,,,
294511,2022-12-05_23h15.13.780,vts_reward_expectancy_bt,2022.2.4,Win32,60.25548325,Chrome,1494,934,,,l,0.0505,1,374,1,2,7,31,3,1,0,1,0,0,1,0,0,0,circle,triangle,,,,,,,,,,,,,,,,,,,,,,,,,,,,,,,,,,,,,,,,,,,,,,,,,,,,,,
294511,2022-12-05_23h15.13.780,vts_reward_expectancy_bt,2022.2.4,Win32,60.25548325,Chrome,1494,934,,,l,0.2045,10,384,1,2,8,32,2,1,1,0,0,0,0,0,0,1,triangle,star,,,,,,,,,,,,,,,,,,,,,,,,,,,,,,,,,,,,,,,,,,,,,,,,,,,,,,
294511,2022-12-05_23h15.13.780,vts_reward_expectancy_bt,2022.2.4,Win32,60.25548325,Chrome,1494,934,,,l,0.334,10,394,1,2,9,33,5,1,0,1,0,0,0,0,0,1,circle,star,,,,,,,,,,,,,,,,,,,,,,,,,,,,,,,,,,,,,,,,,,,,,,,,,,,,,,
294511,2022-12-05_23h15.13.780,vts_reward_expectancy_bt,2022.2.4,Win32,60.25548325,Chrome,1494,934,,,l,0.0351,10,404,1,2,10,34,0,1,1,0,0,0,0,1,0,0,triangle,circle,,,,,,,,,,,,,,,,,,,,,,,,,,,,,,,,,,,,,,,,,,,,,,,,,,,,,,
294511,2022-12-05_23h15.13.780,vts_reward_expectancy_bt,2022.2.4,Win32,60.25548325,Chrome,1494,934,,,l,0.2547,10,414,1,2,11,35,10,1,0,0,0,1,0,1,0,0,star ,circle,,,,,,,,,,,,,,,,,,,,,,,,,,,,,,,,,,,,,,,,,,,,,,,,,,,,,,
294511,2022-12-05_23h15.13.780,vts_reward_expectancy_bt,2022.2.4,Win32,60.25548325,Chrome,1494,934,,,l,1.6193,1,415,2,0,0,0,6,1,0,0,1,0,1,0,0,0,hexagon,triangle,,,,,,,,,,,,,,,,,,,,,,,,,,,,,,,,,,,,,,,,,,,,,,,,,,,,,,
294511,2022-12-05_23h15.13.780,vts_reward_expectancy_bt,2022.2.4,Win32,60.25548325,Chrome,1494,934,,,l,33.5181,10,425,2,0,1,1,2,1,1,0,0,0,0,0,0,1,triangle,star,,,,,,,,,,,,,,,,,,,,,,,,,,,,,,,,,,,,,,,,,,,,,,,,,,,,,,
294511,2022-12-05_23h15.13.780,vts_reward_expectancy_bt,2022.2.4,Win32,60.25548325,Chrome,1494,934,,,l,0.1086,10,435,2,0,2,2,9,1,0,0,0,1,1,0,0,0,star,triangle,,,,,,,,,,,,,,,,,,,,,,,,,,,,,,,,,,,,,,,,,,,,,,,,,,,,,,
294511,2022-12-05_23h15.13.780,vts_reward_expectancy_bt,2022.2.4,Win32,60.25548325,Chrome,1494,934,,,l,0.1341,10,445,2,0,3,3,7,1,0,0,1,0,0,1,0,0,hexagon,circle,,,,,,,,,,,,,,,,,,,,,,,,,,,,,,,,,,,,,,,,,,,,,,,,,,,,,,
294511,2022-12-05_23h15.13.780,vts_reward_expectancy_bt,2022.2.4,Win32,60.25548325,Chrome,1494,934,,,l,0.0347,10,455,2,0,4,4,8,1,0,0,1,0,0,0,0,1,hexagon,star,,,,,,,,,,,,,,,,,,,,,,,,,,,,,,,,,,,,,,,,,,,,,,,,,,,,,,
294511,2022-12-05_23h15.13.780,vts_reward_expectancy_bt,2022.2.4,Win32,60.25548325,Chrome,1494,934,,,l,0.0176,10,465,2,0,5,5,3,1,0,1,0,0,1,0,0,0,circle,triangle,,,,,,,,,,,,,,,,,,,,,,,,,,,,,,,,,,,,,,,,,,,,,,,,,,,,,,
294511,2022-12-05_23h15.13.780,vts_reward_expectancy_bt,2022.2.4,Win32,60.25548325,Chrome,1494,934,,,l,0.0873,1,466,2,0,6,6,5,1,0,1,0,0,0,0,0,1,circle,star,,,,,,,,,,,,,,,,,,,,,,,,,,,,,,,,,,,,,,,,,,,,,,,,,,,,,,
294511,2022-12-05_23h15.13.780,vts_reward_expectancy_bt,2022.2.4,Win32,60.25548325,Chrome,1494,934,,,l,0.0704,10,476,2,0,7,7,10,1,0,0,0,1,0,1,0,0,star ,circle,,,,,,,,,,,,,,,,,,,,,,,,,,,,,,,,,,,,,,,,,,,,,,,,,,,,,,
294511,2022-12-05_23h15.13.780,vts_reward_expectancy_bt,2022.2.4,Win32,60.25548325,Chrome,1494,934,,,l,15.067,1,477,2,0,8,8,11,1,0,0,0,1,0,0,1,0,star,hexagon,,,,,,,,,,,,,,,,,,,,,,,,,,,,,,,,,,,,,,,,,,,,,,,,,,,,,,
294511,2022-12-05_23h15.13.780,vts_reward_expectancy_bt,2022.2.4,Win32,60.25548325,Chrome,1494,934,,,l,0.0856,1,478,2,0,9,9,4,1,0,1,0,0,0,0,1,0,circle,hexagon,,,,,,,,,,,,,,,,,,,,,,,,,,,,,,,,,,,,,,,,,,,,,,,,,,,,,,
294511,2022-12-05_23h15.13.780,vts_reward_expectancy_bt,2022.2.4,Win32,60.25548325,Chrome,1494,934,,,l,0.001,10,488,2,0,10,10,0,1,1,0,0,0,0,1,0,0,triangle,circle,,,,,,,,,,,,,,,,,,,,,,,,,,,,,,,,,,,,,,,,,,,,,,,,,,,,,,
294511,2022-12-05_23h15.13.780,vts_reward_expectancy_bt,2022.2.4,Win32,60.25548325,Chrome,1494,934,,,l,0.152,1,489,2,0,11,11,1,1,1,0,0,0,0,0,1,0,triangle,hexagon,,,,,,,,,,,,,,,,,,,,,,,,,,,,,,,,,,,,,,,,,,,,,,,,,,,,,,
294511,2022-12-05_23h15.13.780,vts_reward_expectancy_bt,2022.2.4,Win32,60.25548325,Chrome,1494,934,,,l,0.1182,1,490,2,1,0,12,11,1,0,0,0,1,0,0,1,0,star,hexagon,,,,,,,,,,,,,,,,,,,,,,,,,,,,,,,,,,,,,,,,,,,,,,,,,,,,,,
294511,2022-12-05_23h15.13.780,vts_reward_expectancy_bt,2022.2.4,Win32,60.25548325,Chrome,1494,934,,,l,0.0708,1,491,2,1,1,13,3,1,0,1,0,0,1,0,0,0,circle,triangle,,,,,,,,,,,,,,,,,,,,,,,,,,,,,,,,,,,,,,,,,,,,,,,,,,,,,,
294511,2022-12-05_23h15.13.780,vts_reward_expectancy_bt,2022.2.4,Win32,60.25548325,Chrome,1494,934,,,l,0.1591,1,492,2,1,2,14,9,1,0,0,0,1,1,0,0,0,star,triangle,,,,,,,,,,,,,,,,,,,,,,,,,,,,,,,,,,,,,,,,,,,,,,,,,,,,,,
294511,2022-12-05_23h15.13.780,vts_reward_expectancy_bt,2022.2.4,Win32,60.25548325,Chrome,1494,934,,,l,0.1739,1,493,2,1,3,15,4,1,0,1,0,0,0,0,1,0,circle,hexagon,,,,,,,,,,,,,,,,,,,,,,,,,,,,,,,,,,,,,,,,,,,,,,,,,,,,,,
294511,2022-12-05_23h15.13.780,vts_reward_expectancy_bt,2022.2.4,Win32,60.25548325,Chrome,1494,934,,,l,0.1108,10,503,2,1,4,16,2,1,1,0,0,0,0,0,0,1,triangle,star,,,,,,,,,,,,,,,,,,,,,,,,,,,,,,,,,,,,,,,,,,,,,,,,,,,,,,
294511,2022-12-05_23h15.13.780,vts_reward_expectancy_bt,2022.2.4,Win32,60.25548325,Chrome,1494,934,,,l,0.0165,10,513,2,1,5,17,8,1,0,0,1,0,0,0,0,1,hexagon,star,,,,,,,,,,,,,,,,,,,,,,,,,,,,,,,,,,,,,,,,,,,,,,,,,,,,,,
294511,2022-12-05_23h15.13.780,vts_reward_expectancy_bt,2022.2.4,Win32,60.25548325,Chrome,1494,934,,,l,0.1597,10,523,2,1,6,18,5,1,0,1,0,0,0,0,0,1,circle,star,,,,,,,,,,,,,,,,,,,,,,,,,,,,,,,,,,,,,,,,,,,,,,,,,,,,,,
294511,2022-12-05_23h15.13.780,vts_reward_expectancy_bt,2022.2.4,Win32,60.25548325,Chrome,1494,934,,,l,0.2007,10,533,2,1,7,19,0,1,1,0,0,0,0,1,0,0,triangle,circle,,,,,,,,,,,,,,,,,,,,,,,,,,,,,,,,,,,,,,,,,,,,,,,,,,,,,,
294511,2022-12-05_23h15.13.780,vts_reward_expectancy_bt,2022.2.4,Win32,60.25548325,Chrome,1494,934,,,l,0.3945,1,534,2,1,8,20,10,1,0,0,0,1,0,1,0,0,star ,circle,,,,,,,,,,,,,,,,,,,,,,,,,,,,,,,,,,,,,,,,,,,,,,,,,,,,,,
294511,2022-12-05_23h15.13.780,vts_reward_expectancy_bt,2022.2.4,Win32,60.25548325,Chrome,1494,934,,,l,0.0349,1,535,2,1,9,21,1,1,1,0,0,0,0,0,1,0,triangle,hexagon,,,,,,,,,,,,,,,,,,,,,,,,,,,,,,,,,,,,,,,,,,,,,,,,,,,,,,
294511,2022-12-05_23h15.13.780,vts_reward_expectancy_bt,2022.2.4,Win32,60.25548325,Chrome,1494,934,,,l,0.1186,1,536,2,1,10,22,6,1,0,0,1,0,1,0,0,0,hexagon,triangle,,,,,,,,,,,,,,,,,,,,,,,,,,,,,,,,,,,,,,,,,,,,,,,,,,,,,,
294511,2022-12-05_23h15.13.780,vts_reward_expectancy_bt,2022.2.4,Win32,60.25548325,Chrome,1494,934,,,l,0.0007,1,537,2,1,11,23,7,1,0,0,1,0,0,1,0,0,hexagon,circle,,,,,,,,,,,,,,,,,,,,,,,,,,,,,,,,,,,,,,,,,,,,,,,,,,,,,,
294511,2022-12-05_23h15.13.780,vts_reward_expectancy_bt,2022.2.4,Win32,60.25548325,Chrome,1494,934,,,l,1.2394,10,547,2,2,0,24,10,1,0,0,0,1,0,1,0,0,star ,circle,,,,,,,,,,,,,,,,,,,,,,,,,,,,,,,,,,,,,,,,,,,,,,,,,,,,,,
294511,2022-12-05_23h15.13.780,vts_reward_expectancy_bt,2022.2.4,Win32,60.25548325,Chrome,1494,934,,,l,0.0351,1,548,2,2,1,25,6,1,0,0,1,0,1,0,0,0,hexagon,triangle,,,,,,,,,,,,,,,,,,,,,,,,,,,,,,,,,,,,,,,,,,,,,,,,,,,,,,
294511,2022-12-05_23h15.13.780,vts_reward_expectancy_bt,2022.2.4,Win32,60.25548325,Chrome,1494,934,,,l,0.01,10,558,2,2,2,26,3,1,0,1,0,0,1,0,0,0,circle,triangle,,,,,,,,,,,,,,,,,,,,,,,,,,,,,,,,,,,,,,,,,,,,,,,,,,,,,,
294511,2022-12-05_23h15.13.780,vts_reward_expectancy_bt,2022.2.4,Win32,60.25548325,Chrome,1494,934,,,l,4.4561,10,568,2,2,3,27,8,1,0,0,1,0,0,0,0,1,hexagon,star,,,,,,,,,,,,,,,,,,,,,,,,,,,,,,,,,,,,,,,,,,,,,,,,,,,,,,
294511,2022-12-05_23h15.13.780,vts_reward_expectancy_bt,2022.2.4,Win32,60.25548325,Chrome,1494,934,,,l,0.1763,1,569,2,2,4,28,9,1,0,0,0,1,1,0,0,0,star,triangle,,,,,,,,,,,,,,,,,,,,,,,,,,,,,,,,,,,,,,,,,,,,,,,,,,,,,,
294511,2022-12-05_23h15.13.780,vts_reward_expectancy_bt,2022.2.4,Win32,60.25548325,Chrome,1494,934,,,l,0.0726,1,570,2,2,5,29,1,1,1,0,0,0,0,0,1,0,triangle,hexagon,,,,,,,,,,,,,,,,,,,,,,,,,,,,,,,,,,,,,,,,,,,,,,,,,,,,,,
294511,2022-12-05_23h15.13.780,vts_reward_expectancy_bt,2022.2.4,Win32,60.25548325,Chrome,1494,934,,,l,0.0008,1,571,2,2,6,30,11,1,0,0,0,1,0,0,1,0,star,hexagon,,,,,,,,,,,,,,,,,,,,,,,,,,,,,,,,,,,,,,,,,,,,,,,,,,,,,,
294511,2022-12-05_23h15.13.780,vts_reward_expectancy_bt,2022.2.4,Win32,60.25548325,Chrome,1494,934,,,l,0.2337,10,581,2,2,7,31,2,1,1,0,0,0,0,0,0,1,triangle,star,,,,,,,,,,,,,,,,,,,,,,,,,,,,,,,,,,,,,,,,,,,,,,,,,,,,,,
294511,2022-12-05_23h15.13.780,vts_reward_expectancy_bt,2022.2.4,Win32,60.25548325,Chrome,1494,934,,,l,0.1831,10,591,2,2,8,32,5,1,0,1,0,0,0,0,0,1,circle,star,,,,,,,,,,,,,,,,,,,,,,,,,,,,,,,,,,,,,,,,,,,,,,,,,,,,,,
294511,2022-12-05_23h15.13.780,vts_reward_expectancy_bt,2022.2.4,Win32,60.25548325,Chrome,1494,934,,,l,0.017,10,601,2,2,9,33,7,1,0,0,1,0,0,1,0,0,hexagon,circle,,,,,,,,,,,,,,,,,,,,,,,,,,,,,,,,,,,,,,,,,,,,,,,,,,,,,,
294511,2022-12-05_23h15.13.780,vts_reward_expectancy_bt,2022.2.4,Win32,60.25548325,Chrome,1494,934,,,l,0.0008,1,602,2,2,10,34,4,1,0,1,0,0,0,0,1,0,circle,hexagon,,,,,,,,,,,,,,,,,,,,,,,,,,,,,,,,,,,,,,,,,,,,,,,,,,,,,,
294511,2022-12-05_23h15.13.780,vts_reward_expectancy_bt,2022.2.4,Win32,60.25548325,Chrome,1494,934,,,l,0.1182,10,612,2,2,11,35,0,1,1,0,0,0,0,1,0,0,triangle,circle,,,,,,,,,,,,,,,,,,,,,,,,,,,,,,,,,,,,,,,,,,,,,,,,,,,,,,
294511,2022-12-05_23h15.13.780,vts_reward_expectancy_bt,2022.2.4,Win32,60.25548325,Chrome,1494,934,,,,,,,,,,,,,,,,,,,,,,,S,174,triangle,0,0,,0,0,0,0,0,1,,,,,,,,,,,,,,,,,,,,,,,,,,,,,,,,,,,,,,,,,,
294511,2022-12-05_23h15.13.780,vts_reward_expectancy_bt,2022.2.4,Win32,60.25548325,Chrome,1494,934,,,,,,,,,,,,,,,,,,,,,,,Y,146,circle,1,1,f,0,1,0,1,0,1,0.6517,,,,,,,,,,,,,,,,,,,,,,,,,,,,,,,,,,,,,,,,,
294511,2022-12-05_23h15.13.780,vts_reward_expectancy_bt,2022.2.4,Win32,60.25548325,Chrome,1494,934,,,,,,,,,,,,,,,,,,,,,,,U,139,star,1,0,f,0,2,0,2,0,1,0.131,,,,,,,,,,,,,,,,,,,,,,,,,,,,,,,,,,,,,,,,,
294511,2022-12-05_23h15.13.780,vts_reward_expectancy_bt,2022.2.4,Win32,60.25548325,Chrome,1494,934,,,,,,,,,,,,,,,,,,,,,,,W,160,hexagon,1,0,f,0,3,0,3,0,1,0.2006,,,,,,,,,,,,,,,,,,,,,,,,,,,,,,,,,,,,,,,,,
294511,2022-12-05_23h15.13.780,vts_reward_expectancy_bt,2022.2.4,Win32,60.25548325,Chrome,1494,934,,,,,,,,,,,,,,,,,,,,,,,B,132,triangle,0,0,f,0,4,0,4,0,1,0.0342,,,,,,,,,,,,,,,,,,,,,,,,,,,,,,,,,,,,,,,,,
294511,2022-12-05_23h15.13.780,vts_reward_expectancy_bt,2022.2.4,Win32,60.25548325,Chrome,1494,934,,,,,,,,,,,,,,,,,,,,,,,D,125,circle,0,1,f,0,5,0,5,0,1,0.0186,,,,,,,,,,,,,,,,,,,,,,,,,,,,,,,,,,,,,,,,,
294511,2022-12-05_23h15.13.780,vts_reward_expectancy_bt,2022.2.4,Win32,60.25548325,Chrome,1494,934,,,,,,,,,,,,,,,,,,,,,,,F,181,star,0,1,f,0,6,0,6,0,1,0.0835,,,,,,,,,,,,,,,,,,,,,,,,,,,,,,,,,,,,,,,,,
294511,2022-12-05_23h15.13.780,vts_reward_expectancy_bt,2022.2.4,Win32,60.25548325,Chrome,1494,934,,,,,,,,,,,,,,,,,,,,,,,H,167,hexagon,0,1,,0,7,0,7,0,1,,,,,,,,,,,,,,,,,,,,,,,,,,,,,,,,,,,,,,,,,,
294511,2022-12-05_23h15.13.780,vts_reward_expectancy_bt,2022.2.4,Win32,60.25548325,Chrome,1494,934,,,,,,,,,,,,,,,,,,,,,,,S,174,circle,0,1,,0,8,0,8,0,1,,,,,,,,,,,,,,,,,,,,,,,,,,,,,,,,,,,,,,,,,,
294511,2022-12-05_23h15.13.780,vts_reward_expectancy_bt,2022.2.4,Win32,60.25548325,Chrome,1494,934,,,,,,,,,,,,,,,,,,,,,,,Y,146,hexagon,0,1,,0,9,0,9,0,1,,,,,,,,,,,,,,,,,,,,,,,,,,,,,,,,,,,,,,,,,,
294511,2022-12-05_23h15.13.780,vts_reward_expectancy_bt,2022.2.4,Win32,60.25548325,Chrome,1494,934,,,,,,,,,,,,,,,,,,,,,,,B,174,circle,1,1,d,1,0,0,0,0,1,0.8555,,,,,,,,,,,,,,,,,,,,,,,,,,,,,,,,,,,,,,,,,
294511,2022-12-05_23h15.13.780,vts_reward_expectancy_bt,2022.2.4,Win32,60.25548325,Chrome,1494,934,,,,,,,,,,,,,,,,,,,,,,,S,125,star,0,0,d,1,1,0,1,0,1,0.5505,,,,,,,,,,,,,,,,,,,,,,,,,,,,,,,,,,,,,,,,,
294511,2022-12-05_23h15.13.780,vts_reward_expectancy_bt,2022.2.4,Win32,60.25548325,Chrome,1494,934,,,,,,,,,,,,,,,,,,,,,,,H,160,triangle,1,1,d,1,2,0,2,0,1,0.7554,,,,,,,,,,,,,,,,,,,,,,,,,,,,,,,,,,,,,,,,,
294511,2022-12-05_23h15.13.780,vts_reward_expectancy_bt,2022.2.4,Win32,60.25548325,Chrome,1494,934,,,,,,,,,,,,,,,,,,,,,,,D,167,hexagon,1,0,d,1,3,0,3,0,1,0.4669,,,,,,,,,,,,,,,,,,,,,,,,,,,,,,,,,,,,,,,,,
294511,2022-12-05_23h15.13.780,vts_reward_expectancy_bt,2022.2.4,Win32,60.25548325,Chrome,1494,934,,,,,,,,,,,,,,,,,,,,,,,U,132,circle,1,0,f,1,4,0,4,0,1,0.4758,,,,,,,,,,,,,,,,,,,,,,,,,,,,,,,,,,,,,,,,,
294511,2022-12-05_23h15.13.780,vts_reward_expectancy_bt,2022.2.4,Win32,60.25548325,Chrome,1494,934,,,,,,,,,,,,,,,,,,,,,,,Y,146,star,1,0,f,1,5,0,5,0,1,0.4973,,,,,,,,,,,,,,,,,,,,,,,,,,,,,,,,,,,,,,,,,
294511,2022-12-05_23h15.13.780,vts_reward_expectancy_bt,2022.2.4,Win32,60.25548325,Chrome,1494,934,,,,,,,,,,,,,,,,,,,,,,,F,181,triangle,1,0,d,1,6,0,6,0,1,0.6002,,,,,,,,,,,,,,,,,,,,,,,,,,,,,,,,,,,,,,,,,
294511,2022-12-05_23h15.13.780,vts_reward_expectancy_bt,2022.2.4,Win32,60.25548325,Chrome,1494,934,,,,,,,,,,,,,,,,,,,,,,,W,139,hexagon,1,0,f,1,7,0,7,0,1,0.7073,,,,,,,,,,,,,,,,,,,,,,,,,,,,,,,,,,,,,,,,,
294511,2022-12-05_23h15.13.780,vts_reward_expectancy_bt,2022.2.4,Win32,60.25548325,Chrome,1494,934,,,,,,,,,,,,,,,,,,,,,,,B,174,circle,1,0,d,1,8,0,8,0,1,0.4828,,,,,,,,,,,,,,,,,,,,,,,,,,,,,,,,,,,,,,,,,
294511,2022-12-05_23h15.13.780,vts_reward_expectancy_bt,2022.2.4,Win32,60.25548325,Chrome,1494,934,,,,,,,,,,,,,,,,,,,,,,,S,125,hexagon,1,0,f,1,9,0,9,0,1,1.6516,,,,,,,,,,,,,,,,,,,,,,,,,,,,,,,,,,,,,,,,,
294511,2022-12-05_23h15.13.780,vts_reward_expectancy_bt,2022.2.4,Win32,60.25548325,Chrome,1494,934,,,,,,,,,,,,,,,,,,,,,,,B,167,hexagon,1,0,,2,,,,,,,k,1.3307,0,0,0,0,1,,,,,,,,,,,,,,,,,,,,,,,,,,,,,,,,,,
294511,2022-12-05_23h15.13.780,vts_reward_expectancy_bt,2022.2.4,Win32,60.25548325,Chrome,1494,934,,,,,,,,,,,,,,,,,,,,,,,H,125,star,1,0,,2,,,,,,,j,0.9818,1,0,1,0,1,,,,,,,,,,,,,,,,,,,,,,,,,,,,,,,,,,
294511,2022-12-05_23h15.13.780,vts_reward_expectancy_bt,2022.2.4,Win32,60.25548325,Chrome,1494,934,,,,,,,,,,,,,,,,,,,,,,,U,174,triangle,1,0,,2,,,,,,,k,0.6506,2,0,2,0,1,,,,,,,,,,,,,,,,,,,,,,,,,,,,,,,,,,
294511,2022-12-05_23h15.13.780,vts_reward_expectancy_bt,2022.2.4,Win32,60.25548325,Chrome,1494,934,,,,,,,,,,,,,,,,,,,,,,,S,160,circle,1,0,,2,,,,,,,k,0.5689,3,0,3,0,1,,,,,,,,,,,,,,,,,,,,,,,,,,,,,,,,,,
294511,2022-12-05_23h15.13.780,vts_reward_expectancy_bt,2022.2.4,Win32,60.25548325,Chrome,1494,934,,,,,,,,,,,,,,,,,,,,,,,Y,146,hexagon,1,0,,2,,,,,,,j,0.685,4,0,4,0,1,,,,,,,,,,,,,,,,,,,,,,,,,,,,,,,,,,
294511,2022-12-05_23h15.13.780,vts_reward_expectancy_bt,2022.2.4,Win32,60.25548325,Chrome,1494,934,,,,,,,,,,,,,,,,,,,,,,,F,132,star,1,0,,2,,,,,,,j,0.6845,5,0,5,0,1,,,,,,,,,,,,,,,,,,,,,,,,,,,,,,,,,,
294511,2022-12-05_23h15.13.780,vts_reward_expectancy_bt,2022.2.4,Win32,60.25548325,Chrome,1494,934,,,,,,,,,,,,,,,,,,,,,,,W,181,triangle,1,0,,2,,,,,,,k,0.6192,6,0,6,0,1,,,,,,,,,,,,,,,,,,,,,,,,,,,,,,,,,,
294511,2022-12-05_23h15.13.780,vts_reward_expectancy_bt,2022.2.4,Win32,60.25548325,Chrome,1494,934,,,,,,,,,,,,,,,,,,,,,,,D,139,circle,1,0,,2,,,,,,,j,0.5769,7,0,7,0,1,,,,,,,,,,,,,,,,,,,,,,,,,,,,,,,,,,
294511,2022-12-05_23h15.13.780,vts_reward_expectancy_bt,2022.2.4,Win32,60.25548325,Chrome,1494,934,,,,,,,,,,,,,,,,,,,,,,,B,167,hexagon,1,0,,2,,,,,,,k,1.031,8,0,8,0,1,,,,,,,,,,,,,,,,,,,,,,,,,,,,,,,,,,
294511,2022-12-05_23h15.13.780,vts_reward_expectancy_bt,2022.2.4,Win32,60.25548325,Chrome,1494,934,,,,,,,,,,,,,,,,,,,,,,,H,125,triangle,1,0,,2,,,,,,,j,0.57,9,0,9,0,1,,,,,,,,,,,,,,,,,,,,,,,,,,,,,,,,,,
294511,2022-12-05_23h15.13.780,vts_reward_expectancy_bt,2022.2.4,Win32,60.25548325,Chrome,1494,934,,,,,0,612,,,,,,,,,,,,,,,,,S,174,hexagon,1,0,,3,,,,,,,,,,,,,,-1,number,NA,k,0.8672,vtsPrac,0,0,0,0,1,,,,,,,,,,,,,,,,,,,,,,,
294511,2022-12-05_23h15.13.780,vts_reward_expectancy_bt,2022.2.4,Win32,60.25548325,Chrome,1494,934,,,,,0,612,,,,,,,,,,,,,,,,,Y,160,circle,1,0,,3,,,,,,,,,,,,,,repeat,number,numRpt,k,1.5485,vtsPrac,1,0,1,0,1,,,,,,,,,,,,,,,,,,,,,,,
294511,2022-12-05_23h15.13.780,vts_reward_expectancy_bt,2022.2.4,Win32,60.25548325,Chrome,1494,934,,,,,0,612,,,,,,,,,,,,,,,,,W,132,hexagon,1,0,,3,,,,,,,,,,,,,,repeat,number,numRpt,j,0.6525,vtsPrac,2,0,2,0,1,,,,,,,,,,,,,,,,,,,,,,,
294511,2022-12-05_23h15.13.780,vts_reward_expectancy_bt,2022.2.4,Win32,60.25548325,Chrome,1494,934,,,,,0,612,,,,,,,,,,,,,,,,,B,146,circle,1,0,,3,,,,,,,,,,,,,,repeat,number,numRpt,j,0.6879,vtsPrac,3,0,3,0,1,,,,,,,,,,,,,,,,,,,,,,,
294511,2022-12-05_23h15.13.780,vts_reward_expectancy_bt,2022.2.4,Win32,60.25548325,Chrome,1494,934,,,,,0,612,,,,,,,,,,,,,,,,,S,174,star,1,0,,3,,,,,,,,,,,,,,repeat,number,numRpt,k,0.8335,vtsPrac,4,0,4,0,1,,,,,,,,,,,,,,,,,,,,,,,
294511,2022-12-05_23h15.13.780,vts_reward_expectancy_bt,2022.2.4,Win32,60.25548325,Chrome,1494,934,,,,,0,612,,,,,,,,,,,,,,,,,Y,160,circle,0,0,,3,,,,,,,,,,,,,,repeat,number,NA,j,1.3521,vtsPrac,5,0,5,0,1,,,,,,,,,,,,,,,,,,,,,,,
294511,2022-12-05_23h15.13.780,vts_reward_expectancy_bt,2022.2.4,Win32,60.25548325,Chrome,1494,934,,,,,0,612,,,,,,,,,,,,,,,,,W,132,star,1,1,,3,,,,,,,,,,,,,,repeat,number,numRpt,j,0.6525,vtsPrac,6,0,6,0,1,,,,,,,,,,,,,,,,,,,,,,,
294511,2022-12-05_23h15.13.780,vts_reward_expectancy_bt,2022.2.4,Win32,60.25548325,Chrome,1494,934,,,,,0,612,,,,,,,,,,,,,,,,,B,146,circle,1,0,,3,,,,,,,,,,,,,,repeat,number,numRpt,j,0.6665,vtsPrac,7,0,7,0,1,,,,,,,,,,,,,,,,,,,,,,,
294511,2022-12-05_23h15.13.780,vts_reward_expectancy_bt,2022.2.4,Win32,60.25548325,Chrome,1494,934,,,,,0,612,,,,,,,,,,,,,,,,,U,181,star,1,0,,3,,,,,,,,,,,,,,repeat,number,numRpt,k,0.7012,vtsPrac,8,0,8,0,1,,,,,,,,,,,,,,,,,,,,,,,
294511,2022-12-05_23h15.13.780,vts_reward_expectancy_bt,2022.2.4,Win32,60.25548325,Chrome,1494,934,,,,,0,612,,,,,,,,,,,,,,,,,F,167,triangle,1,0,,3,,,,,,,,,,,,,,repeat,number,numRpt,k,0.9706,vtsPrac,9,0,9,0,1,,,,,,,,,,,,,,,,,,,,,,,
294511,2022-12-05_23h15.13.780,vts_reward_expectancy_bt,2022.2.4,Win32,60.25548325,Chrome,1494,934,,,,,0,612,,,,,,,,,,,,,,,,,S,160,triangle,1,0,,3,,,,,,,,,,,,,,repeat,number,numRpt,k,0.6533,vtsPrac,10,0,10,0,1,,,,,,,,,,,,,,,,,,,,,,,
294511,2022-12-05_23h15.13.780,vts_reward_expectancy_bt,2022.2.4,Win32,60.25548325,Chrome,1494,934,,,,,0,612,,,,,,,,,,,,,,,,,D,146,circle,1,0,,3,,,,,,,,,,,,,,repeat,number,numRpt,j,0.6133,vtsPrac,11,0,11,0,1,,,,,,,,,,,,,,,,,,,,,,,
294511,2022-12-05_23h15.13.780,vts_reward_expectancy_bt,2022.2.4,Win32,60.25548325,Chrome,1494,934,,,,,0,612,,,,,,,,,,,,,,,,,F,181,hexagon,1,0,,3,,,,,,,,,,,,,,repeat,number,numRpt,k,0.5392,vtsPrac,12,0,12,0,1,,,,,,,,,,,,,,,,,,,,,,,
294511,2022-12-05_23h15.13.780,vts_reward_expectancy_bt,2022.2.4,Win32,60.25548325,Chrome,1494,934,,,,,0,612,,,,,,,,,,,,,,,,,B,125,circle,1,0,,3,,,,,,,,,,,,,,repeat,number,numRpt,j,0.6889,vtsPrac,13,0,13,0,1,,,,,,,,,,,,,,,,,,,,,,,
294511,2022-12-05_23h15.13.780,vts_reward_expectancy_bt,2022.2.4,Win32,60.25548325,Chrome,1494,934,,,,,0,612,,,,,,,,,,,,,,,,,U,139,star,1,0,,3,,,,,,,,,,,,,,repeat,number,numRpt,j,0.7369,vtsPrac,14,0,14,0,1,,,,,,,,,,,,,,,,,,,,,,,
294511,2022-12-05_23h15.13.780,vts_reward_expectancy_bt,2022.2.4,Win32,60.25548325,Chrome,1494,934,,,,,0,612,,,,,,,,,,,,,,,,,Y,174,circle,1,0,,3,,,,,,,,,,,,,,repeat,number,numRpt,k,0.754,vtsPrac,15,0,15,0,1,,,,,,,,,,,,,,,,,,,,,,,
294511,2022-12-05_23h15.13.780,vts_reward_expectancy_bt,2022.2.4,Win32,60.25548325,Chrome,1494,934,,,,,0,612,,,,,,,,,,,,,,,,,H,174,triangle,1,0,,3,,,,,,,,,,,,,,switch,letter,lettSwt,d,0.7095,vtsPrac,16,0,16,0,1,,,,,,,,,,,,,,,,,,,,,,,
294511,2022-12-05_23h15.13.780,vts_reward_expectancy_bt,2022.2.4,Win32,60.25548325,Chrome,1494,934,,,,,0,612,,,,,,,,,,,,,,,,,D,146,circle,1,0,,3,,,,,,,,,,,,,,repeat,letter,lettRpt,d,0.7408,vtsPrac,17,0,17,0,1,,,,,,,,,,,,,,,,,,,,,,,
294511,2022-12-05_23h15.13.780,vts_reward_expectancy_bt,2022.2.4,Win32,60.25548325,Chrome,1494,934,,,,,0,612,,,,,,,,,,,,,,,,,W,125,star,1,0,,3,,,,,,,,,,,,,,repeat,letter,lettRpt,f,0.4669,vtsPrac,18,0,18,0,1,,,,,,,,,,,,,,,,,,,,,,,
294511,2022-12-05_23h15.13.780,vts_reward_expectancy_bt,2022.2.4,Win32,60.25548325,Chrome,1494,934,,,,,0,612,,,,,,,,,,,,,,,,,Y,160,triangle,1,0,,3,,,,,,,,,,,,,,repeat,letter,lettRpt,f,0.6102,vtsPrac,19,0,19,0,1,,,,,,,,,,,,,,,,,,,,,,,
294511,2022-12-05_23h15.13.780,vts_reward_expectancy_bt,2022.2.4,Win32,60.25548325,Chrome,1494,934,,,,,0,612,,,,,,,,,,,,,,,,,H,167,triangle,1,0,,3,,,,,,,,,,,,,,repeat,letter,lettRpt,d,0.7741,vtsPrac,20,0,20,0,1,,,,,,,,,,,,,,,,,,,,,,,
294511,2022-12-05_23h15.13.780,vts_reward_expectancy_bt,2022.2.4,Win32,60.25548325,Chrome,1494,934,,,,,0,612,,,,,,,,,,,,,,,,,W,146,star,1,0,,3,,,,,,,,,,,,,,repeat,letter,lettRpt,f,0.6193,vtsPrac,21,0,21,0,1,,,,,,,,,,,,,,,,,,,,,,,
294511,2022-12-05_23h15.13.780,vts_reward_expectancy_bt,2022.2.4,Win32,60.25548325,Chrome,1494,934,,,,,0,612,,,,,,,,,,,,,,,,,B,125,circle,1,0,,3,,,,,,,,,,,,,,repeat,letter,lettRpt,d,0.6172,vtsPrac,22,0,22,0,1,,,,,,,,,,,,,,,,,,,,,,,
294511,2022-12-05_23h15.13.780,vts_reward_expectancy_bt,2022.2.4,Win32,60.25548325,Chrome,1494,934,,,,,0,612,,,,,,,,,,,,,,,,,D,132,hexagon,1,0,,3,,,,,,,,,,,,,,repeat,letter,lettRpt,d,0.5525,vtsPrac,23,0,23,0,1,,,,,,,,,,,,,,,,,,,,,,,
294511,2022-12-05_23h15.13.780,vts_reward_expectancy_bt,2022.2.4,Win32,60.25548325,Chrome,1494,934,,,,,0,612,,,,,,,,,,,,,,,,,H,160,hexagon,1,0,,3,,,,,,,,,,,,,,repeat,letter,lettRpt,d,0.9656,vtsPrac,24,0,24,0,1,,,,,,,,,,,,,,,,,,,,,,,
294511,2022-12-05_23h15.13.780,vts_reward_expectancy_bt,2022.2.4,Win32,60.25548325,Chrome,1494,934,,,,,0,612,,,,,,,,,,,,,,,,,B,181,star,1,0,,3,,,,,,,,,,,,,,repeat,letter,lettRpt,d,0.5996,vtsPrac,25,0,25,0,1,,,,,,,,,,,,,,,,,,,,,,,
294511,2022-12-05_23h15.13.780,vts_reward_expectancy_bt,2022.2.4,Win32,60.25548325,Chrome,1494,934,,,,,0,612,,,,,,,,,,,,,,,,,D,125,hexagon,1,0,,3,,,,,,,,,,,,,,repeat,letter,lettRpt,d,0.6365,vtsPrac,26,0,26,0,1,,,,,,,,,,,,,,,,,,,,,,,
294511,2022-12-05_23h15.13.780,vts_reward_expectancy_bt,2022.2.4,Win32,60.25548325,Chrome,1494,934,,,,,0,612,,,,,,,,,,,,,,,,,W,146,star,1,0,,3,,,,,,,,,,,,,,repeat,letter,lettRpt,f,0.7864,vtsPrac,27,0,27,0,1,,,,,,,,,,,,,,,,,,,,,,,
294511,2022-12-05_23h15.13.780,vts_reward_expectancy_bt,2022.2.4,Win32,60.25548325,Chrome,1494,934,,,,,0,612,,,,,,,,,,,,,,,,,W,174,star,1,0,,3,,,,,,,,,,,,,,repeat,letter,lettRpt,f,0.5364,vtsPrac,28,0,28,0,1,,,,,,,,,,,,,,,,,,,,,,,
294511,2022-12-05_23h15.13.780,vts_reward_expectancy_bt,2022.2.4,Win32,60.25548325,Chrome,1494,934,,,,,0,612,,,,,,,,,,,,,,,,,S,160,triangle,1,0,,3,,,,,,,,,,,,,,repeat,letter,lettRpt,f,0.5666,vtsPrac,29,0,29,0,1,,,,,,,,,,,,,,,,,,,,,,,
294511,2022-12-05_23h15.13.780,vts_reward_expectancy_bt,2022.2.4,Win32,60.25548325,Chrome,1494,934,,,,,0,612,,,,,,,,,,,,,,,,,D,139,triangle,1,0,,3,,,,,,,,,,,,,,repeat,letter,lettRpt,d,0.691,vtsPrac,30,0,30,0,1,,,,,,,,,,,,,,,,,,,,,,,
294511,2022-12-05_23h15.13.780,vts_reward_expectancy_bt,2022.2.4,Win32,60.25548325,Chrome,1494,934,,,,,0,612,,,,,,,,,,,,,,,,,Y,146,hexagon,1,0,,3,,,,,,,,,,,,,,repeat,letter,lettRpt,f,1.5007,vtsPrac,31,0,31,0,1,,,,,,,,,,,,,,,,,,,,,,,
294511,2022-12-05_23h15.13.780,vts_reward_expectancy_bt,2022.2.4,Win32,60.25548325,Chrome,1494,934,,,,,0,612,,,,,,,,,,,,,,,,,F,139,triangle,1,0,,4,,,,,,,,,,,,,,switch,number,numSwt,j,1.6905,vtsPrac,0,0,0,0,1,,,,,,,,,,,,,,,,,,,,,,,
294511,2022-12-05_23h15.13.780,vts_reward_expectancy_bt,2022.2.4,Win32,60.25548325,Chrome,1494,934,,,,,0,612,,,,,,,,,,,,,,,,,S,132,circle,1,0,,4,,,,,,,,,,,,,,repeat,number,numRpt,j,0.9347,vtsPrac,1,0,1,0,1,,,,,,,,,,,,,,,,,,,,,,,
294511,2022-12-05_23h15.13.780,vts_reward_expectancy_bt,2022.2.4,Win32,60.25548325,Chrome,1494,934,,,,,0,612,,,,,,,,,,,,,,,,,Y,146,triangle,1,0,,4,,,,,,,,,,,,,,switch,letter,lettSwt,f,0.4085,vtsPrac,2,0,2,0,1,,,,,,,,,,,,,,,,,,,,,,,
294511,2022-12-05_23h15.13.780,vts_reward_expectancy_bt,2022.2.4,Win32,60.25548325,Chrome,1494,934,,,,,0,612,,,,,,,,,,,,,,,,,W,181,circle,1,0,,4,,,,,,,,,,,,,,repeat,letter,lettRpt,f,0.7709,vtsPrac,3,0,3,0,1,,,,,,,,,,,,,,,,,,,,,,,
294511,2022-12-05_23h15.13.780,vts_reward_expectancy_bt,2022.2.4,Win32,60.25548325,Chrome,1494,934,,,,,0,612,,,,,,,,,,,,,,,,,F,139,circle,1,0,,4,,,,,,,,,,,,,,switch,number,numSwt,j,1.2362,vtsPrac,4,0,4,0,1,,,,,,,,,,,,,,,,,,,,,,,
294511,2022-12-05_23h15.13.780,vts_reward_expectancy_bt,2022.2.4,Win32,60.25548325,Chrome,1494,934,,,,,0,612,,,,,,,,,,,,,,,,,S,132,triangle,1,0,,4,,,,,,,,,,,,,,switch,letter,lettSwt,f,0.9275,vtsPrac,5,0,5,0,1,,,,,,,,,,,,,,,,,,,,,,,
294511,2022-12-05_23h15.13.780,vts_reward_expectancy_bt,2022.2.4,Win32,60.25548325,Chrome,1494,934,,,,,0,612,,,,,,,,,,,,,,,,,Y,146,star,1,0,,4,,,,,,,,,,,,,,switch,number,numSwt,j,1.7036,vtsPrac,6,0,6,0,1,,,,,,,,,,,,,,,,,,,,,,,
294511,2022-12-05_23h15.13.780,vts_reward_expectancy_bt,2022.2.4,Win32,60.25548325,Chrome,1494,934,,,,,0,612,,,,,,,,,,,,,,,,,W,181,hexagon,1,0,,4,,,,,,,,,,,,,,switch,letter,lettSwt,f,0.7019,vtsPrac,7,0,7,0,1,,,,,,,,,,,,,,,,,,,,,,,
294511,2022-12-05_23h15.13.780,vts_reward_expectancy_bt,2022.2.4,Win32,60.25548325,Chrome,1494,934,,,,,0,612,,,,,,,,,,,,,,,,,W,174,hexagon,1,0,,4,,,,,,,,,,,,,,repeat,letter,lettRpt,f,0.5364,vtsPrac,8,0,8,0,1,,,,,,,,,,,,,,,,,,,,,,,
294511,2022-12-05_23h15.13.780,vts_reward_expectancy_bt,2022.2.4,Win32,60.25548325,Chrome,1494,934,,,,,0,612,,,,,,,,,,,,,,,,,F,181,circle,0,0,,4,,,,,,,,,,,,,,switch,number,NA,j,0.3329,vtsPrac,9,0,9,0,1,,,,,,,,,,,,,,,,,,,,,,,
294511,2022-12-05_23h15.13.780,vts_reward_expectancy_bt,2022.2.4,Win32,60.25548325,Chrome,1494,934,,,,,0,612,,,,,,,,,,,,,,,,,U,146,circle,1,1,,4,,,,,,,,,,,,,,switch,letter,lettSwt,f,0.4181,vtsPrac,10,0,10,0,1,,,,,,,,,,,,,,,,,,,,,,,
294511,2022-12-05_23h15.13.780,vts_reward_expectancy_bt,2022.2.4,Win32,60.25548325,Chrome,1494,934,,,,,0,612,,,,,,,,,,,,,,,,,S,125,star,1,0,,4,,,,,,,,,,,,,,switch,number,numSwt,j,0.0172,vtsPrac,11,0,11,0,1,,,,,,,,,,,,,,,,,,,,,,,
294511,2022-12-05_23h15.13.780,vts_reward_expectancy_bt,2022.2.4,Win32,60.25548325,Chrome,1494,934,,,,,0,612,,,,,,,,,,,,,,,,,S,167,hexagon,1,0,,4,,,,,,,,,,,,,,switch,letter,lettSwt,f,0.0014,vtsPrac,12,0,12,0,1,,,,,,,,,,,,,,,,,,,,,,,
294511,2022-12-05_23h15.13.780,vts_reward_expectancy_bt,2022.2.4,Win32,60.25548325,Chrome,1494,934,,,,,0,612,,,,,,,,,,,,,,,,,F,160,star,0,0,,4,,,,,,,,,,,,,,switch,number,NA,j,0.0243,vtsPrac,13,0,13,0,1,,,,,,,,,,,,,,,,,,,,,,,
294511,2022-12-05_23h15.13.780,vts_reward_expectancy_bt,2022.2.4,Win32,60.25548325,Chrome,1494,934,,,,,0,612,,,,,,,,,,,,,,,,,W,181,circle,0,1,,4,,,,,,,,,,,,,,repeat,number,NA,j,0.201,vtsPrac,14,0,14,0,1,,,,,,,,,,,,,,,,,,,,,,,
294511,2022-12-05_23h15.13.780,vts_reward_expectancy_bt,2022.2.4,Win32,60.25548325,Chrome,1494,934,,,,,0,612,,,,,,,,,,,,,,,,,B,125,triangle,1,1,,4,,,,,,,,,,,,,,repeat,number,numRpt,j,0.0488,vtsPrac,15,0,15,0,1,,,,,,,,,,,,,,,,,,,,,,,
294511,2022-12-05_23h15.13.780,vts_reward_expectancy_bt,2022.2.4,Win32,60.25548325,Chrome,1494,934,,,,,0,612,,,,,,,,,,,,,,,,,F,167,triangle,0,0,,4,,,,,,,,,,,,,,switch,letter,NA,f,0.087,vtsPrac,16,0,16,0,1,,,,,,,,,,,,,,,,,,,,,,,
294511,2022-12-05_23h15.13.780,vts_reward_expectancy_bt,2022.2.4,Win32,60.25548325,Chrome,1494,934,,,,,0,612,,,,,,,,,,,,,,,,,B,160,star,0,1,,4,,,,,,,,,,,,,,switch,number,NA,j,0.001,vtsPrac,17,0,17,0,1,,,,,,,,,,,,,,,,,,,,,,,
294511,2022-12-05_23h15.13.780,vts_reward_expectancy_bt,2022.2.4,Win32,60.25548325,Chrome,1494,934,,,,,0,612,,,,,,,,,,,,,,,,,U,146,circle,1,1,,4,,,,,,,,,,,,,,switch,letter,lettSwt,f,0.0156,vtsPrac,18,0,18,0,1,,,,,,,,,,,,,,,,,,,,,,,
294511,2022-12-05_23h15.13.780,vts_reward_expectancy_bt,2022.2.4,Win32,60.25548325,Chrome,1494,934,,,,,0,612,,,,,,,,,,,,,,,,,D,132,triangle,0,0,,4,,,,,,,,,,,,,,repeat,letter,NA,f,0.0484,vtsPrac,19,0,19,0,1,,,,,,,,,,,,,,,,,,,,,,,
294511,2022-12-05_23h15.13.780,vts_reward_expectancy_bt,2022.2.4,Win32,60.25548325,Chrome,1494,934,,,,,0,612,,,,,,,,,,,,,,,,,U,160,star,1,1,,4,,,,,,,,,,,,,,repeat,letter,lettRpt,f,0.0508,vtsPrac,20,0,20,0,1,,,,,,,,,,,,,,,,,,,,,,,
294511,2022-12-05_23h15.13.780,vts_reward_expectancy_bt,2022.2.4,Win32,60.25548325,Chrome,1494,934,,,,,0,612,,,,,,,,,,,,,,,,,S,167,circle,0,0,,4,,,,,,,,,,,,,,switch,number,NA,j,0.0429,vtsPrac,21,0,21,0,1,,,,,,,,,,,,,,,,,,,,,,,
294511,2022-12-05_23h15.13.780,vts_reward_expectancy_bt,2022.2.4,Win32,60.25548325,Chrome,1494,934,,,,,0,612,,,,,,,,,,,,,,,,,D,181,triangle,0,1,,4,,,,,,,,,,,,,,repeat,number,NA,j,0.0181,vtsPrac,22,0,22,0,1,,,,,,,,,,,,,,,,,,,,,,,
294511,2022-12-05_23h15.13.780,vts_reward_expectancy_bt,2022.2.4,Win32,60.25548325,Chrome,1494,934,,,,,0,612,,,,,,,,,,,,,,,,,B,146,circle,0,1,,4,,,,,,,,,,,,,,switch,letter,NA,f,0.1921,vtsPrac,23,0,23,0,1,,,,,,,,,,,,,,,,,,,,,,,
294511,2022-12-05_23h15.13.780,vts_reward_expectancy_bt,2022.2.4,Win32,60.25548325,Chrome,1494,934,,,,,0,612,,,,,,,,,,,,,,,,,B,160,circle,0,1,,4,,,,,,,,,,,,,,repeat,letter,NA,f,0.0682,vtsPrac,24,0,24,0,1,,,,,,,,,,,,,,,,,,,,,,,
294511,2022-12-05_23h15.13.780,vts_reward_expectancy_bt,2022.2.4,Win32,60.25548325,Chrome,1494,934,,,,,0,612,,,,,,,,,,,,,,,,,F,125,triangle,1,1,,4,,,,,,,,,,,,,,switch,number,numSwt,j,0.3703,vtsPrac,25,0,25,0,1,,,,,,,,,,,,,,,,,,,,,,,
294511,2022-12-05_23h15.13.780,vts_reward_expectancy_bt,2022.2.4,Win32,60.25548325,Chrome,1494,934,,,,,0,612,,,,,,,,,,,,,,,,,Y,146,hexagon,1,0,,4,,,,,,,,,,,,,,repeat,number,numRpt,j,0.0686,vtsPrac,26,0,26,0,1,,,,,,,,,,,,,,,,,,,,,,,
294511,2022-12-05_23h15.13.780,vts_reward_expectancy_bt,2022.2.4,Win32,60.25548325,Chrome,1494,934,,,,,0,612,,,,,,,,,,,,,,,,,S,167,star,0,0,,4,,,,,,,,,,,,,,repeat,number,NA,j,0.1907,vtsPrac,27,0,27,0,1,,,,,,,,,,,,,,,,,,,,,,,
294511,2022-12-05_23h15.13.780,vts_reward_expectancy_bt,2022.2.4,Win32,60.25548325,Chrome,1494,934,,,,,0,612,,,,,,,,,,,,,,,,,D,139,star,0,1,,4,,,,,,,,,,,,,,switch,letter,NA,f,0.4021,vtsPrac,28,0,28,0,1,,,,,,,,,,,,,,,,,,,,,,,
294511,2022-12-05_23h15.13.780,vts_reward_expectancy_bt,2022.2.4,Win32,60.25548325,Chrome,1494,934,,,,,0,612,,,,,,,,,,,,,,,,,B,181,hexagon,0,1,,4,,,,,,,,,,,,,,repeat,letter,NA,f,0.4859,vtsPrac,29,0,29,0,1,,,,,,,,,,,,,,,,,,,,,,,
294511,2022-12-05_23h15.13.780,vts_reward_expectancy_bt,2022.2.4,Win32,60.25548325,Chrome,1494,934,,,,,0,612,,,,,,,,,,,,,,,,,H,125,triangle,0,1,,4,,,,,,,,,,,,,,repeat,letter,NA,f,0.8158,vtsPrac,30,0,30,0,1,,,,,,,,,,,,,,,,,,,,,,,
294511,2022-12-05_23h15.13.780,vts_reward_expectancy_bt,2022.2.4,Win32,60.25548325,Chrome,1494,934,,,,,0,612,,,,,,,,,,,,,,,,,F,160,star,0,1,,4,,,,,,,,,,,,,,switch,number,NA,j,0.7843,vtsPrac,31,0,31,0,1,,,,,,,,,,,,,,,,,,,,,,,
294511,2022-12-05_23h15.13.780,vts_reward_expectancy_bt,2022.2.4,Win32,60.25548325,Chrome,1494,934,,,,,0,612,,,,,,,,,,,,,,,,,H,167,circle,1,1,,5,,,,,,,,,,,,,,repeat,number,numRpt,k,0.9524,vtsPrac,0,0,0,0,1,,,,,,,,,,,,,,,,,,,,,,,
294511,2022-12-05_23h15.13.780,vts_reward_expectancy_bt,2022.2.4,Win32,60.25548325,Chrome,1494,934,,,,,0,612,,,,,,,,,,,,,,,,,D,125,hexagon,1,0,,5,,,,,,,,,,,,,,repeat,number,numRpt,j,0.899,vtsPrac,1,0,1,0,1,,,,,,,,,,,,,,,,,,,,,,,
294511,2022-12-05_23h15.13.780,vts_reward_expectancy_bt,2022.2.4,Win32,60.25548325,Chrome,1494,934,,,,,0,612,,,,,,,,,,,,,,,,,U,174,circle,1,0,,5,,,,,,,,,,,,,,switch,letter,lettSwt,f,0.6732,vtsPrac,2,0,2,0,1,,,,,,,,,,,,,,,,,,,,,,,
294511,2022-12-05_23h15.13.780,vts_reward_expectancy_bt,2022.2.4,Win32,60.25548325,Chrome,1494,934,,,,,0,612,,,,,,,,,,,,,,,,,Y,139,hexagon,1,0,,5,,,,,,,,,,,,,,repeat,letter,lettRpt,f,0.6684,vtsPrac,3,0,3,0,1,,,,,,,,,,,,,,,,,,,,,,,
294511,2022-12-05_23h15.13.780,vts_reward_expectancy_bt,2022.2.4,Win32,60.25548325,Chrome,1494,934,,,,,0,612,,,,,,,,,,,,,,,,,H,167,star,0,0,,5,,,,,,,,,,,,,,switch,number,NA,j,1.0192,vtsPrac,4,0,4,0,1,,,,,,,,,,,,,,,,,,,,,,,
294511,2022-12-05_23h15.13.780,vts_reward_expectancy_bt,2022.2.4,Win32,60.25548325,Chrome,1494,934,,,,,0,612,,,,,,,,,,,,,,,,,D,125,circle,1,1,,5,,,,,,,,,,,,,,switch,letter,lettSwt,d,1.785,vtsPrac,5,0,5,0,1,,,,,,,,,,,,,,,,,,,,,,,
294511,2022-12-05_23h15.13.780,vts_reward_expectancy_bt,2022.2.4,Win32,60.25548325,Chrome,1494,934,,,,,0,612,,,,,,,,,,,,,,,,,U,174,triangle,0,0,,5,,,,,,,,,,,,,,switch,number,NA,j,1.1343,vtsPrac,6,0,6,0,1,,,,,,,,,,,,,,,,,,,,,,,
294511,2022-12-05_23h15.13.780,vts_reward_expectancy_bt,2022.2.4,Win32,60.25548325,Chrome,1494,934,,,,,0,612,,,,,,,,,,,,,,,,,Y,139,hexagon,0,1,,5,,,,,,,,,,,,,,repeat,number,NA,k,1.0511,vtsPrac,7,0,7,0,1,,,,,,,,,,,,,,,,,,,,,,,
294511,2022-12-05_23h15.13.780,vts_reward_expectancy_bt,2022.2.4,Win32,60.25548325,Chrome,1494,934,,,,,0,612,,,,,,,,,,,,,,,,,S,132,triangle,1,1,,5,,,,,,,,,,,,,,switch,letter,lettSwt,f,0.7988,vtsPrac,8,0,8,0,1,,,,,,,,,,,,,,,,,,,,,,,
294511,2022-12-05_23h15.13.780,vts_reward_expectancy_bt,2022.2.4,Win32,60.25548325,Chrome,1494,934,,,,,0,612,,,,,,,,,,,,,,,,,U,139,circle,1,0,,5,,,,,,,,,,,,,,repeat,letter,lettRpt,f,1.7813,vtsPrac,9,0,9,0,1,,,,,,,,,,,,,,,,,,,,,,,
294511,2022-12-05_23h15.13.780,vts_reward_expectancy_bt,2022.2.4,Win32,60.25548325,Chrome,1494,934,,,,,0,612,,,,,,,,,,,,,,,,,B,181,circle,1,0,,5,,,,,,,,,,,,,,switch,number,numSwt,k,0.8512,vtsPrac,10,0,10,0,1,,,,,,,,,,,,,,,,,,,,,,,
294511,2022-12-05_23h15.13.780,vts_reward_expectancy_bt,2022.2.4,Win32,60.25548325,Chrome,1494,934,,,,,0,612,,,,,,,,,,,,,,,,,Y,174,star,1,0,,5,,,,,,,,,,,,,,switch,letter,lettSwt,f,0.8581,vtsPrac,11,0,11,0,1,,,,,,,,,,,,,,,,,,,,,,,
294511,2022-12-05_23h15.13.780,vts_reward_expectancy_bt,2022.2.4,Win32,60.25548325,Chrome,1494,934,,,,,0,612,,,,,,,,,,,,,,,,,F,125,star,1,0,,5,,,,,,,,,,,,,,repeat,letter,lettRpt,d,2.4007,vtsPrac,12,0,12,0,1,,,,,,,,,,,,,,,,,,,,,,,
294511,2022-12-05_23h15.13.780,vts_reward_expectancy_bt,2022.2.4,Win32,60.25548325,Chrome,1494,934,,,,,0,612,,,,,,,,,,,,,,,,,W,160,triangle,1,0,,5,,,,,,,,,,,,,,switch,number,numSwt,k,0.6522,vtsPrac,13,0,13,0,1,,,,,,,,,,,,,,,,,,,,,,,
294511,2022-12-05_23h15.13.780,vts_reward_expectancy_bt,2022.2.4,Win32,60.25548325,Chrome,1494,934,,,,,0,612,,,,,,,,,,,,,,,,,B,146,triangle,1,0,,5,,,,,,,,,,,,,,repeat,number,numRpt,j,1.8938,vtsPrac,14,0,14,0,1,,,,,,,,,,,,,,,,,,,,,,,
294511,2022-12-05_23h15.13.780,vts_reward_expectancy_bt,2022.2.4,Win32,60.25548325,Chrome,1494,934,,,,,0,612,,,,,,,,,,,,,,,,,Y,174,star,1,0,,5,,,,,,,,,,,,,,switch,letter,lettSwt,f,0.6843,vtsPrac,15,0,15,0,1,,,,,,,,,,,,,,,,,,,,,,,
294511,2022-12-05_23h15.13.780,vts_reward_expectancy_bt,2022.2.4,Win32,60.25548325,Chrome,1494,934,,,,,0,612,,,,,,,,,,,,,,,,,W,132,hexagon,1,0,,5,,,,,,,,,,,,,,switch,number,numSwt,j,2.4034,vtsPrac,16,0,16,0,1,,,,,,,,,,,,,,,,,,,,,,,
294511,2022-12-05_23h15.13.780,vts_reward_expectancy_bt,2022.2.4,Win32,60.25548325,Chrome,1494,934,,,,,0,612,,,,,,,,,,,,,,,,,F,174,star,1,0,,5,,,,,,,,,,,,,,repeat,number,numRpt,k,1.5321,vtsPrac,17,0,17,0,1,,,,,,,,,,,,,,,,,,,,,,,
294511,2022-12-05_23h15.13.780,vts_reward_expectancy_bt,2022.2.4,Win32,60.25548325,Chrome,1494,934,,,,,0,612,,,,,,,,,,,,,,,,,B,139,hexagon,1,0,,5,,,,,,,,,,,,,,repeat,number,numRpt,j,1.0269,vtsPrac,18,0,18,0,1,,,,,,,,,,,,,,,,,,,,,,,
294511,2022-12-05_23h15.13.780,vts_reward_expectancy_bt,2022.2.4,Win32,60.25548325,Chrome,1494,934,,,,,0,612,,,,,,,,,,,,,,,,,Y,125,triangle,1,0,,5,,,,,,,,,,,,,,switch,letter,lettSwt,f,2.3754,vtsPrac,19,0,19,0,1,,,,,,,,,,,,,,,,,,,,,,,
294511,2022-12-05_23h15.13.780,vts_reward_expectancy_bt,2022.2.4,Win32,60.25548325,Chrome,1494,934,,,,,0,612,,,,,,,,,,,,,,,,,D,125,hexagon,1,0,,5,,,,,,,,,,,,,,repeat,letter,lettRpt,d,2.5848,vtsPrac,20,0,20,0,1,,,,,,,,,,,,,,,,,,,,,,,
294511,2022-12-05_23h15.13.780,vts_reward_expectancy_bt,2022.2.4,Win32,60.25548325,Chrome,1494,934,,,,,0,612,,,,,,,,,,,,,,,,,Y,167,circle,1,0,,5,,,,,,,,,,,,,,switch,number,numSwt,k,1.7521,vtsPrac,21,0,21,0,1,,,,,,,,,,,,,,,,,,,,,,,
294511,2022-12-05_23h15.13.780,vts_reward_expectancy_bt,2022.2.4,Win32,60.25548325,Chrome,1494,934,,,,,0,612,,,,,,,,,,,,,,,,,B,174,star,1,0,,5,,,,,,,,,,,,,,switch,letter,lettSwt,d,1.0674,vtsPrac,22,0,22,0,1,,,,,,,,,,,,,,,,,,,,,,,
294511,2022-12-05_23h15.13.780,vts_reward_expectancy_bt,2022.2.4,Win32,60.25548325,Chrome,1494,934,,,,,0,612,,,,,,,,,,,,,,,,,U,132,triangle,1,0,,5,,,,,,,,,,,,,,repeat,letter,lettRpt,f,1.3498,vtsPrac,23,0,23,0,1,,,,,,,,,,,,,,,,,,,,,,,
294511,2022-12-05_23h15.13.780,vts_reward_expectancy_bt,2022.2.4,Win32,60.25548325,Chrome,1494,934,,,,,0,612,,,,,,,,,,,,,,,,,Y,125,triangle,1,0,,5,,,,,,,,,,,,,,repeat,letter,lettRpt,f,0.6355,vtsPrac,24,0,24,0,1,,,,,,,,,,,,,,,,,,,,,,,
294511,2022-12-05_23h15.13.780,vts_reward_expectancy_bt,2022.2.4,Win32,60.25548325,Chrome,1494,934,,,,,0,612,,,,,,,,,,,,,,,,,F,160,star,1,0,,5,,,,,,,,,,,,,,switch,number,numSwt,k,1.4191,vtsPrac,25,0,25,0,1,,,,,,,,,,,,,,,,,,,,,,,
294511,2022-12-05_23h15.13.780,vts_reward_expectancy_bt,2022.2.4,Win32,60.25548325,Chrome,1494,934,,,,,0,612,,,,,,,,,,,,,,,,,H,167,hexagon,1,0,,5,,,,,,,,,,,,,,repeat,number,numRpt,k,0.9673,vtsPrac,26,0,26,0,1,,,,,,,,,,,,,,,,,,,,,,,
294511,2022-12-05_23h15.13.780,vts_reward_expectancy_bt,2022.2.4,Win32,60.25548325,Chrome,1494,934,,,,,0,612,,,,,,,,,,,,,,,,,W,181,circle,1,0,,5,,,,,,,,,,,,,,repeat,number,numRpt,k,0.0163,vtsPrac,27,0,27,0,1,,,,,,,,,,,,,,,,,,,,,,,
294511,2022-12-05_23h15.13.780,vts_reward_expectancy_bt,2022.2.4,Win32,60.25548325,Chrome,1494,934,,,,,0,612,,,,,,,,,,,,,,,,,F,146,triangle,0,0,,5,,,,,,,,,,,,,,repeat,number,NA,k,0.401,vtsPrac,28,0,28,0,1,,,,,,,,,,,,,,,,,,,,,,,
294511,2022-12-05_23h15.13.780,vts_reward_expectancy_bt,2022.2.4,Win32,60.25548325,Chrome,1494,934,,,,,0,612,,,,,,,,,,,,,,,,,D,160,hexagon,0,1,,5,,,,,,,,,,,,,,switch,letter,NA,f,0.0529,vtsPrac,29,0,29,0,1,,,,,,,,,,,,,,,,,,,,,,,
294511,2022-12-05_23h15.13.780,vts_reward_expectancy_bt,2022.2.4,Win32,60.25548325,Chrome,1494,934,,,,,0,612,,,,,,,,,,,,,,,,,U,132,star,0,1,,5,,,,,,,,,,,,,,switch,number,NA,k,0.6395,vtsPrac,30,0,30,0,1,,,,,,,,,,,,,,,,,,,,,,,
294511,2022-12-05_23h15.13.780,vts_reward_expectancy_bt,2022.2.4,Win32,60.25548325,Chrome,1494,934,,,,,0,612,,,,,,,,,,,,,,,,,S,174,circle,1,1,,5,,,,,,,,,,,,,,switch,letter,lettSwt,f,1.1257,vtsPrac,31,0,31,0,1,,,,,,,,,,,,,,,,,,,,,,,
294511,2022-12-05_23h15.13.780,vts_reward_expectancy_bt,2022.2.4,Win32,60.25548325,Chrome,1494,934,,,,,,,,,,,,,,,,,,,,,,,,,,,,,,,,,,,,,,,,,,,,,,,,,,,,,,,,,,,,,,,,,,,,,,,,,,,,
294511,2022-12-05_23h15.13.780,vts_reward_expectancy_bt,2022.2.4,Win32,60.25548325,Chrome,1494,934,,,,,,,,,,,,,,,,,,,,,,,,,,,,,,,,,,,,,,,,,,,,,,,,,,,,,,,,,,,,,,,,,,,,,,,,,,,,
294511,2022-12-05_23h15.13.780,vts_reward_expectancy_bt,2022.2.4,Win32,60.25548325,Chrome,1494,934,,,,,0,612,,,,,,,,,,,,,,,,,U,181,triangle,1,0,,,,,,,,,,,,,,,,repeat,letter,lettRpt,f,0.4867,noRew,,,,,,0,0,0,0,0,1,,,,,,,,,,,,,,,,,
294511,2022-12-05_23h15.13.780,vts_reward_expectancy_bt,2022.2.4,Win32,60.25548325,Chrome,1494,934,,,,,0,612,,,,,,,,,,,,,,,,,W,167,hexagon,0,0,,,,,,,,,,,,,,,,switch,number,NA,j,0.1023,noRew,,,,,,0,1,0,1,0,1,,,,,,,,,,,,,,,,,
294511,2022-12-05_23h15.13.780,vts_reward_expectancy_bt,2022.2.4,Win32,60.25548325,Chrome,1494,934,,,,,0,612,,,,,,,,,,,,,,,,,B,146,triangle,0,1,,,,,,,,,,,,,,,,switch,letter,NA,f,0.0353,noRew,,,,,,0,2,0,2,0,1,,,,,,,,,,,,,,,,,
294511,2022-12-05_23h15.13.780,vts_reward_expectancy_bt,2022.2.4,Win32,60.25548325,Chrome,1494,934,,,,,0,612,,,,,,,,,,,,,,,,,H,174,hexagon,0,1,,,,,,,,,,,,,,,,switch,number,NA,j,0.1322,noRew,,,,,,0,3,0,3,0,1,,,,,,,,,,,,,,,,,
294511,2022-12-05_23h15.13.780,vts_reward_expectancy_bt,2022.2.4,Win32,60.25548325,Chrome,1494,934,,,,,0,612,,,,,,,,,,,,,,,,,U,181,triangle,1,1,,,,,,,,,,,,,,,,switch,letter,lettSwt,f,0.0006,noRew,,,,,,0,4,0,4,0,1,,,,,,,,,,,,,,,,,
294511,2022-12-05_23h15.13.780,vts_reward_expectancy_bt,2022.2.4,Win32,60.25548325,Chrome,1494,934,,,,,0,612,,,,,,,,,,,,,,,,,W,167,circle,0,0,,,,,,,,,,,,,,,,switch,number,NA,j,0.0998,noRew,,,,,,0,5,0,5,0,1,,,,,,,,,,,,,,,,,
294511,2022-12-05_23h15.13.780,vts_reward_expectancy_bt,2022.2.4,Win32,60.25548325,Chrome,1494,934,,,,,0,612,,,,,,,,,,,,,,,,,B,146,triangle,1,1,,,,,,,,,,,,,,,,repeat,number,numRpt,j,0.0022,noRew,,,,,,0,6,0,6,0,1,,,,,,,,,,,,,,,,,
294511,2022-12-05_23h15.13.780,vts_reward_expectancy_bt,2022.2.4,Win32,60.25548325,Chrome,1494,934,,,,,0,612,,,,,,,,,,,,,,,,,H,174,hexagon,0,0,,,,,,,,,,,,,,,,repeat,number,NA,j,0.0834,noRew,,,,,,0,7,0,7,0,1,,,,,,,,,,,,,,,,,
294511,2022-12-05_23h15.13.780,vts_reward_expectancy_bt,2022.2.4,Win32,60.25548325,Chrome,1494,934,,,,,0,612,,,,,,,,,,,,,,,,,W,167,star,1,1,,,,,,,,,,,,,,,,switch,letter,lettSwt,f,0.144,noRew,,,,,,0,8,0,8,0,1,,,,,,,,,,,,,,,,,
294511,2022-12-05_23h15.13.780,vts_reward_expectancy_bt,2022.2.4,Win32,60.25548325,Chrome,1494,934,,,,,0,612,,,,,,,,,,,,,,,,,S,160,hexagon,0,0,,,,,,,,,,,,,,,,switch,number,NA,j,0.0015,noRew,,,,,,0,9,0,9,0,1,,,,,,,,,,,,,,,,,
294511,2022-12-05_23h15.13.780,vts_reward_expectancy_bt,2022.2.4,Win32,60.25548325,Chrome,1494,934,,,,,0,612,,,,,,,,,,,,,,,,,Y,139,star,1,1,,,,,,,,,,,,,,,,switch,letter,lettSwt,f,0.0089,noRew,,,,,,0,10,0,10,0,1,,,,,,,,,,,,,,,,,
294511,2022-12-05_23h15.13.780,vts_reward_expectancy_bt,2022.2.4,Win32,60.25548325,Chrome,1494,934,,,,,0,612,,,,,,,,,,,,,,,,,D,181,triangle,0,0,,,,,,,,,,,,,,,,repeat,letter,NA,f,0.0062,noRew,,,,,,0,11,0,11,0,1,,,,,,,,,,,,,,,,,
294511,2022-12-05_23h15.13.780,vts_reward_expectancy_bt,2022.2.4,Win32,60.25548325,Chrome,1494,934,,,,,0,612,,,,,,,,,,,,,,,,,U,160,circle,0,1,,,,,,,,,,,,,,,,switch,number,NA,j,0.0007,noRew,,,,,,0,12,0,12,0,1,,,,,,,,,,,,,,,,,
294511,2022-12-05_23h15.13.780,vts_reward_expectancy_bt,2022.2.4,Win32,60.25548325,Chrome,1494,934,,,,,0,612,,,,,,,,,,,,,,,,,Y,125,star,1,1,,,,,,,,,,,,,,,,switch,letter,lettSwt,f,0.0047,noRew,,,,,,0,13,0,13,0,1,,,,,,,,,,,,,,,,,
294511,2022-12-05_23h15.13.780,vts_reward_expectancy_bt,2022.2.4,Win32,60.25548325,Chrome,1494,934,,,,,0,612,,,,,,,,,,,,,,,,,W,132,triangle,1,0,,,,,,,,,,,,,,,,repeat,letter,lettRpt,f,0.1484,noRew,,,,,,0,14,0,14,0,1,,,,,,,,,,,,,,,,,
294511,2022-12-05_23h15.13.780,vts_reward_expectancy_bt,2022.2.4,Win32,60.25548325,Chrome,1494,934,,,,,0,612,,,,,,,,,,,,,,,,,S,181,circle,0,0,,,,,,,,,,,,,,,,switch,number,NA,j,0.0751,noRew,,,,,,0,15,0,15,0,1,,,,,,,,,,,,,,,,,
294511,2022-12-05_23h15.13.780,vts_reward_expectancy_bt,2022.2.4,Win32,60.25548325,Chrome,1494,934,,,,,0,612,,,,,,,,,,,,,,,,,B,167,hexagon,0,1,,,,,,,,,,,,,,,,switch,letter,NA,f,0.2502,noRew,,,,,,0,16,0,16,0,1,,,,,,,,,,,,,,,,,
294511,2022-12-05_23h15.13.780,vts_reward_expectancy_bt,2022.2.4,Win32,60.25548325,Chrome,1494,934,,,,,0,612,,,,,,,,,,,,,,,,,S,125,star,1,1,,,,,,,,,,,,,,,,repeat,letter,lettRpt,f,0.0685,noRew,,,,,,0,17,0,17,0,1,,,,,,,,,,,,,,,,,
294511,2022-12-05_23h15.13.780,vts_reward_expectancy_bt,2022.2.4,Win32,60.25548325,Chrome,1494,934,,,,,0,612,,,,,,,,,,,,,,,,,W,160,star,1,0,,,,,,,,,,,,,,,,repeat,letter,lettRpt,f,0.0505,noRew,,,,,,0,18,0,18,0,1,,,,,,,,,,,,,,,,,
294511,2022-12-05_23h15.13.780,vts_reward_expectancy_bt,2022.2.4,Win32,60.25548325,Chrome,1494,934,,,,,0,612,,,,,,,,,,,,,,,,,D,146,hexagon,0,0,,,,,,,,,,,,,,,,repeat,letter,NA,f,0.0013,noRew,,,,,,0,19,0,19,0,1,,,,,,,,,,,,,,,,,
294511,2022-12-05_23h15.13.780,vts_reward_expectancy_bt,2022.2.4,Win32,60.25548325,Chrome,1494,934,,,,,0,612,,,,,,,,,,,,,,,,,S,132,triangle,1,1,,,,,,,,,,,,,,,,repeat,letter,lettRpt,f,0.0095,noRew,,,,,,0,20,0,20,0,1,,,,,,,,,,,,,,,,,
294511,2022-12-05_23h15.13.780,vts_reward_expectancy_bt,2022.2.4,Win32,60.25548325,Chrome,1494,934,,,,,0,612,,,,,,,,,,,,,,,,,W,160,circle,1,0,,,,,,,,,,,,,,,,repeat,letter,lettRpt,f,0.0518,noRew,,,,,,0,21,0,21,0,1,,,,,,,,,,,,,,,,,
294511,2022-12-05_23h15.13.780,vts_reward_expectancy_bt,2022.2.4,Win32,60.25548325,Chrome,1494,934,,,,,0,612,,,,,,,,,,,,,,,,,B,139,triangle,0,0,,,,,,,,,,,,,,,,repeat,letter,NA,f,0.0687,noRew,,,,,,0,22,0,22,0,1,,,,,,,,,,,,,,,,,
294511,2022-12-05_23h15.13.780,vts_reward_expectancy_bt,2022.2.4,Win32,60.25548325,Chrome,1494,934,,,,,0,612,,,,,,,,,,,,,,,,,Y,146,hexagon,1,1,,,,,,,,,,,,,,,,repeat,letter,lettRpt,f,0.0835,noRew,,,,,,0,23,0,23,0,1,,,,,,,,,,,,,,,,,
294511,2022-12-05_23h15.13.780,vts_reward_expectancy_bt,2022.2.4,Win32,60.25548325,Chrome,1494,934,,,,,0,612,,,,,,,,,,,,,,,,,B,139,triangle,0,0,,,,,,,,,,,,,,,,repeat,letter,NA,f,0.8513,noRew,,,,,,0,24,0,24,0,1,,,,,,,,,,,,,,,,,
294511,2022-12-05_23h15.13.780,vts_reward_expectancy_bt,2022.2.4,Win32,60.25548325,Chrome,1494,934,,,,,0,612,,,,,,,,,,,,,,,,,H,160,star,0,1,,,,,,,,,,,,,,,,repeat,letter,NA,f,0.1496,noRew,,,,,,0,25,0,25,0,1,,,,,,,,,,,,,,,,,
294511,2022-12-05_23h15.13.780,vts_reward_expectancy_bt,2022.2.4,Win32,60.25548325,Chrome,1494,934,,,,,0,612,,,,,,,,,,,,,,,,,F,181,star,0,1,,,,,,,,,,,,,,,,repeat,letter,NA,f,0.0478,noRew,,,,,,0,26,0,26,0,1,,,,,,,,,,,,,,,,,
294511,2022-12-05_23h15.13.780,vts_reward_expectancy_bt,2022.2.4,Win32,60.25548325,Chrome,1494,934,,,,,0,612,,,,,,,,,,,,,,,,,D,167,triangle,0,1,,,,,,,,,,,,,,,,repeat,letter,NA,f,0.0408,noRew,,,,,,0,27,0,27,0,1,,,,,,,,,,,,,,,,,
294511,2022-12-05_23h15.13.780,vts_reward_expectancy_bt,2022.2.4,Win32,60.25548325,Chrome,1494,934,,,,,0,612,,,,,,,,,,,,,,,,,Y,174,circle,1,1,,,,,,,,,,,,,,,,repeat,letter,lettRpt,f,0.1062,noRew,,,,,,0,28,0,28,0,1,,,,,,,,,,,,,,,,,
294511,2022-12-05_23h15.13.780,vts_reward_expectancy_bt,2022.2.4,Win32,60.25548325,Chrome,1494,934,,,,,0,612,,,,,,,,,,,,,,,,,W,125,hexagon,1,0,,,,,,,,,,,,,,,,switch,number,numSwt,j,2.2203,noRew,,,,,,0,29,0,29,0,1,,,,,,,,,,,,,,,,,
294511,2022-12-05_23h15.13.780,vts_reward_expectancy_bt,2022.2.4,Win32,60.25548325,Chrome,1494,934,,,,,0,612,,,,,,,,,,,,,,,,,F,167,hexagon,0,0,,,,,,,,,,,,,,,,switch,letter,NA,f,0.0152,noRew,,,,,,0,30,0,30,0,1,,,,,,,,,,,,,,,,,
294511,2022-12-05_23h15.13.780,vts_reward_expectancy_bt,2022.2.4,Win32,60.25548325,Chrome,1494,934,,,,,0,612,,,,,,,,,,,,,,,,,H,146,circle,1,1,,,,,,,,,,,,,,,,switch,number,numSwt,j,0.0331,noRew,,,,,,0,31,0,31,0,1,,,,,,,,,,,,,,,,,
294511,2022-12-05_23h15.13.780,vts_reward_expectancy_bt,2022.2.4,Win32,60.25548325,Chrome,1494,934,,,,,0,612,,,,,,,,,,,,,,,,,U,139,circle,1,0,,,,,,,,,,,,,,,,switch,letter,lettSwt,f,1.0372,noRew,,,,,,0,32,0,32,0,1,,,,,,,,,,,,,,,,,
294511,2022-12-05_23h15.13.780,vts_reward_expectancy_bt,2022.2.4,Win32,60.25548325,Chrome,1494,934,,,,,0,612,,,,,,,,,,,,,,,,,W,132,hexagon,1,0,,,,,,,,,,,,,,,,switch,number,numSwt,j,0.0743,noRew,,,,,,0,33,0,33,0,1,,,,,,,,,,,,,,,,,
294511,2022-12-05_23h15.13.780,vts_reward_expectancy_bt,2022.2.4,Win32,60.25548325,Chrome,1494,934,,,,,0,612,,,,,,,,,,,,,,,,,D,167,star,0,0,,,,,,,,,,,,,,,,switch,letter,NA,f,1.5322,noRew,,,,,,0,34,0,34,0,1,,,,,,,,,,,,,,,,,
294511,2022-12-05_23h15.13.780,vts_reward_expectancy_bt,2022.2.4,Win32,60.25548325,Chrome,1494,934,,,,,0,612,,,,,,,,,,,,,,,,,B,174,circle,0,1,,,,,,,,,,,,,,,,switch,number,NA,j,0.1206,noRew,,,,,,0,35,0,35,0,1,,,,,,,,,,,,,,,,,
294511,2022-12-05_23h15.13.780,vts_reward_expectancy_bt,2022.2.4,Win32,60.25548325,Chrome,1494,934,,,,,0,612,,,,,,,,,,,,,,,,,D,181,triangle,0,1,,,,,,,,,,,,,,,,repeat,number,NA,j,0.0013,noRew,,,,,,0,36,0,36,0,1,,,,,,,,,,,,,,,,,
294511,2022-12-05_23h15.13.780,vts_reward_expectancy_bt,2022.2.4,Win32,60.25548325,Chrome,1494,934,,,,,0,612,,,,,,,,,,,,,,,,,S,139,circle,1,1,,,,,,,,,,,,,,,,switch,letter,lettSwt,f,0.6344,noRew,,,,,,0,37,0,37,0,1,,,,,,,,,,,,,,,,,
294511,2022-12-05_23h15.13.780,vts_reward_expectancy_bt,2022.2.4,Win32,60.25548325,Chrome,1494,934,,,,,0,612,,,,,,,,,,,,,,,,,U,167,star,0,0,,,,,,,,,,,,,,,,switch,number,NA,j,0.317,noRew,,,,,,0,38,0,38,0,1,,,,,,,,,,,,,,,,,
294511,2022-12-05_23h15.13.780,vts_reward_expectancy_bt,2022.2.4,Win32,60.25548325,Chrome,1494,934,,,,,0,612,,,,,,,,,,,,,,,,,Y,174,hexagon,1,1,,,,,,,,,,,,,,,,switch,letter,lettSwt,f,0.7509,noRew,,,,,,0,39,0,39,0,1,,,,,,,,,,,,,,,,,
294511,2022-12-05_23h15.13.780,vts_reward_expectancy_bt,2022.2.4,Win32,60.25548325,Chrome,1494,934,,,,,0,612,,,,,,,,,,,,,,,,,S,132,star,1,0,,,,,,,,,,,,,,,,repeat,letter,lettRpt,f,0.4871,noRew,,,,,,0,40,0,40,0,1,,,,,,,,,,,,,,,,,
294511,2022-12-05_23h15.13.780,vts_reward_expectancy_bt,2022.2.4,Win32,60.25548325,Chrome,1494,934,,,,,0,612,,,,,,,,,,,,,,,,,B,160,hexagon,0,0,,,,,,,,,,,,,,,,switch,number,NA,j,1.6861,noRew,,,,,,0,41,0,41,0,1,,,,,,,,,,,,,,,,,
294511,2022-12-05_23h15.13.780,vts_reward_expectancy_bt,2022.2.4,Win32,60.25548325,Chrome,1494,934,,,,,0,612,,,,,,,,,,,,,,,,,F,174,hexagon,1,1,,,,,,,,,,,,,,,,repeat,number,numRpt,k,2.4504,noRew,,,,,,0,42,0,42,0,1,,,,,,,,,,,,,,,,,
294511,2022-12-05_23h15.13.780,vts_reward_expectancy_bt,2022.2.4,Win32,60.25548325,Chrome,1494,934,,,,,0,612,,,,,,,,,,,,,,,,,H,139,star,1,0,,,,,,,,,,,,,,,,switch,letter,lettSwt,d,1.9516,noRew,,,,,,0,43,0,43,0,1,,,,,,,,,,,,,,,,,
294511,2022-12-05_23h15.13.780,vts_reward_expectancy_bt,2022.2.4,Win32,60.25548325,Chrome,1494,934,,,,,0,612,,,,,,,,,,,,,,,,,D,139,triangle,1,0,,,,,,,,,,,,,,,,switch,number,numSwt,j,2.4186,noRew,,,,,,0,44,0,44,0,1,,,,,,,,,,,,,,,,,
294511,2022-12-05_23h15.13.780,vts_reward_expectancy_bt,2022.2.4,Win32,60.25548325,Chrome,1494,934,,,,,0,612,,,,,,,,,,,,,,,,,H,132,hexagon,1,0,,,,,,,,,,,,,,,,repeat,number,numRpt,j,1.4037,noRew,,,,,,0,45,0,45,0,1,,,,,,,,,,,,,,,,,
294511,2022-12-05_23h15.13.780,vts_reward_expectancy_bt,2022.2.4,Win32,60.25548325,Chrome,1494,934,,,,,0,612,,,,,,,,,,,,,,,,,S,146,hexagon,1,0,,,,,,,,,,,,,,,,repeat,number,numRpt,j,1.1687,noRew,,,,,,0,46,0,46,0,1,,,,,,,,,,,,,,,,,
294511,2022-12-05_23h15.13.780,vts_reward_expectancy_bt,2022.2.4,Win32,60.25548325,Chrome,1494,934,,,,,0,612,,,,,,,,,,,,,,,,,B,174,circle,-1,0,,,,,,,,,,,,,,,,switch,no_choice,NA,,,noRew,,,,,,0,47,0,47,0,1,,,,,,,,,,,,,,,,,
294511,2022-12-05_23h15.13.780,vts_reward_expectancy_bt,2022.2.4,Win32,60.25548325,Chrome,1494,934,,,,,0,612,,,,,,,,,,,,,,,,,D,146,circle,0,0,,,,,,,,,,,,,,,,switch,letter,NA,f,0.8426,noRew,,,,,,0,48,0,48,0,1,,,,,,,,,,,,,,,,,
294511,2022-12-05_23h15.13.780,vts_reward_expectancy_bt,2022.2.4,Win32,60.25548325,Chrome,1494,934,,,,,0,612,,,,,,,,,,,,,,,,,U,132,triangle,1,1,,,,,,,,,,,,,,,,repeat,letter,lettRpt,f,1.9567,noRew,,,,,,0,49,0,49,0,1,,,,,,,,,,,,,,,,,
294511,2022-12-05_23h15.13.780,vts_reward_expectancy_bt,2022.2.4,Win32,60.25548325,Chrome,1494,934,,,,,0,612,,,,,,,,,,,,,,,,,S,174,hexagon,1,0,,,,,,,,,,,,,,,,repeat,letter,lettRpt,f,0.6853,noRew,,,,,,0,50,0,50,0,1,,,,,,,,,,,,,,,,,
294511,2022-12-05_23h15.13.780,vts_reward_expectancy_bt,2022.2.4,Win32,60.25548325,Chrome,1494,934,,,,,0,612,,,,,,,,,,,,,,,,,F,139,circle,0,0,,,,,,,,,,,,,,,,repeat,letter,NA,f,1.8261,noRew,,,,,,0,51,0,51,0,1,,,,,,,,,,,,,,,,,
294511,2022-12-05_23h15.13.780,vts_reward_expectancy_bt,2022.2.4,Win32,60.25548325,Chrome,1494,934,,,,,0,612,,,,,,,,,,,,,,,,,U,125,hexagon,1,1,,,,,,,,,,,,,,,,switch,number,numSwt,j,2.9578,noRew,,,,,,0,52,0,52,0,1,,,,,,,,,,,,,,,,,
294511,2022-12-05_23h15.13.780,vts_reward_expectancy_bt,2022.2.4,Win32,60.25548325,Chrome,1494,934,,,,,0,612,,,,,,,,,,,,,,,,,S,139,star,1,0,,,,,,,,,,,,,,,,repeat,number,numRpt,j,2.3872,noRew,,,,,,0,53,0,53,0,1,,,,,,,,,,,,,,,,,
294511,2022-12-05_23h15.13.780,vts_reward_expectancy_bt,2022.2.4,Win32,60.25548325,Chrome,1494,934,,,,,0,612,,,,,,,,,,,,,,,,,B,146,circle,0,0,,,,,,,,,,,,,,,,switch,letter,NA,f,0.0517,noRew,,,,,,0,54,0,54,0,1,,,,,,,,,,,,,,,,,
294511,2022-12-05_23h15.13.780,vts_reward_expectancy_bt,2022.2.4,Win32,60.25548325,Chrome,1494,934,,,,,0,612,,,,,,,,,,,,,,,,,Y,167,triangle,0,1,,,,,,,,,,,,,,,,switch,number,NA,j,2.5844,noRew,,,,,,0,55,0,55,0,1,,,,,,,,,,,,,,,,,
294511,2022-12-05_23h15.13.780,vts_reward_expectancy_bt,2022.2.4,Win32,60.25548325,Chrome,1494,934,,,,,0,612,,,,,,,,,,,,,,,,,D,181,star,0,1,,,,,,,,,,,,,,,,switch,letter,NA,f,0.5661,noRew,,,,,,0,56,0,56,0,1,,,,,,,,,,,,,,,,,
294511,2022-12-05_23h15.13.780,vts_reward_expectancy_bt,2022.2.4,Win32,60.25548325,Chrome,1494,934,,,,,0,612,,,,,,,,,,,,,,,,,U,139,circle,1,1,,,,,,,,,,,,,,,,repeat,letter,lettRpt,f,0.8267,noRew,,,,,,0,57,0,57,0,1,,,,,,,,,,,,,,,,,
294511,2022-12-05_23h15.13.780,vts_reward_expectancy_bt,2022.2.4,Win32,60.25548325,Chrome,1494,934,,,,,0,612,,,,,,,,,,,,,,,,,S,132,triangle,1,0,,,,,,,,,,,,,,,,repeat,letter,lettRpt,f,0.3671,noRew,,,,,,0,58,0,58,0,1,,,,,,,,,,,,,,,,,
294511,2022-12-05_23h15.13.780,vts_reward_expectancy_bt,2022.2.4,Win32,60.25548325,Chrome,1494,934,,,,,0,612,,,,,,,,,,,,,,,,,Y,174,circle,1,0,,,,,,,,,,,,,,,,repeat,letter,lettRpt,f,2.3675,noRew,,,,,,0,59,0,59,0,1,,,,,,,,,,,,,,,,,
294511,2022-12-05_23h15.13.780,vts_reward_expectancy_bt,2022.2.4,Win32,60.25548325,Chrome,1494,934,,,,,0,612,,,,,,,,,,,,,,,,,B,174,circle,0,0,,,,,,,,,,,,,,,,repeat,letter,NA,f,1.0177,noRew,,,,,,0,60,0,60,0,1,,,,,,,,,,,,,,,,,
294511,2022-12-05_23h15.13.780,vts_reward_expectancy_bt,2022.2.4,Win32,60.25548325,Chrome,1494,934,,,,,0,612,,,,,,,,,,,,,,,,,Y,132,hexagon,-1,1,,,,,,,,,,,,,,,,switch,no_choice,NA,,,noRew,,,,,,0,61,0,61,0,1,,,,,,,,,,,,,,,,,
294511,2022-12-05_23h15.13.780,vts_reward_expectancy_bt,2022.2.4,Win32,60.25548325,Chrome,1494,934,,,,,0,612,,,,,,,,,,,,,,,,,D,125,triangle,1,0,,,,,,,,,,,,,,,,switch,number,numSwt,j,2.1689,noRew,,,,,,0,62,0,62,0,1,,,,,,,,,,,,,,,,,
294511,2022-12-05_23h15.13.780,vts_reward_expectancy_bt,2022.2.4,Win32,60.25548325,Chrome,1494,934,,,,,0,612,,,,,,,,,,,,,,,,,U,139,circle,1,0,,,,,,,,,,,,,,,,switch,letter,lettSwt,f,1.0954,noRew,,,,,,0,63,0,63,0,1,,,,,,,,,,,,,,,,,
294511,2022-12-05_23h15.13.780,vts_reward_expectancy_bt,2022.2.4,Win32,60.25548325,Chrome,1494,934,,,,,,,,,,,,,,,,,,,,,,,,,,,,,,,,,,,,,,,,,,,,,,,,,,,,,,,,,,,,,,,,,,,,,,,,,,,,
294511,2022-12-05_23h15.13.780,vts_reward_expectancy_bt,2022.2.4,Win32,60.25548325,Chrome,1494,934,,,,,0,612,,,,,,,,,,,,,,,,,D,160,triangle,0,0,,,,,,,,,,,,,,,,switch,number,NA,j,0.1052,noRew,,,,,,0,,,,,,space,2.8195,high,0,0,0,0,1,,,,,,,,,
294511,2022-12-05_23h15.13.780,vts_reward_expectancy_bt,2022.2.4,Win32,60.25548325,Chrome,1494,934,,,,,10,622,,,,,,,,,,,,,,,,,W,146,circle,1,1,,,,,,,,,,,,,,,,switch,letter,lettSwt,f,0.0007,Hi,,,,,,0,,,,,,,,high,1,0,1,0,1,,,,,,,,,
294511,2022-12-05_23h15.13.780,vts_reward_expectancy_bt,2022.2.4,Win32,60.25548325,Chrome,1494,934,,,,,10,632,,,,,,,,,,,,,,,,,U,139,star,1,0,,,,,,,,,,,,,,,,switch,number,numSwt,j,0.1047,Hi,,,,,,0,,,,,,,,high,2,0,2,0,1,,,,,,,,,
294511,2022-12-05_23h15.13.780,vts_reward_expectancy_bt,2022.2.4,Win32,60.25548325,Chrome,1494,934,,,,,1,633,,,,,,,,,,,,,,,,,Y,132,hexagon,1,0,,,,,,,,,,,,,,,,repeat,number,numRpt,j,0.0675,Lo,,,,,,0,,,,,,,,high,3,0,3,0,1,,,,,,,,,
294511,2022-12-05_23h15.13.780,vts_reward_expectancy_bt,2022.2.4,Win32,60.25548325,Chrome,1494,934,,,,,0,633,,,,,,,,,,,,,,,,,F,167,triangle,-1,0,,,,,,,,,,,,,,,,switch,no_choice,NA,,,Lo,,,,,,0,,,,,,,,high,4,0,4,0,1,,,,,,,,,
294511,2022-12-05_23h15.13.780,vts_reward_expectancy_bt,2022.2.4,Win32,60.25548325,Chrome,1494,934,,,,,1,634,,,,,,,,,,,,,,,,,B,181,circle,1,0,,,,,,,,,,,,,,,,switch,number,numSwt,k,0.1484,Hi,,,,,,0,,,,,,,,high,5,0,5,0,1,,,,,,,,,
294511,2022-12-05_23h15.13.780,vts_reward_expectancy_bt,2022.2.4,Win32,60.25548325,Chrome,1494,934,,,,,0,634,,,,,,,,,,,,,,,,,H,125,star,0,0,,,,,,,,,,,,,,,,repeat,number,NA,k,0.1342,Hi,,,,,,0,,,,,,,,high,6,0,6,0,1,,,,,,,,,
294511,2022-12-05_23h15.13.780,vts_reward_expectancy_bt,2022.2.4,Win32,60.25548325,Chrome,1494,934,,,,,1,635,,,,,,,,,,,,,,,,,S,174,hexagon,1,1,,,,,,,,,,,,,,,,switch,letter,lettSwt,f,0.0564,Lo,,,,,,0,,,,,,,,high,7,0,7,0,1,,,,,,,,,
294511,2022-12-05_23h15.13.780,vts_reward_expectancy_bt,2022.2.4,Win32,60.25548325,Chrome,1494,934,,,,,0,635,,,,,,,,,,,,,,,,,D,160,hexagon,0,0,,,,,,,,,,,,,,,,repeat,letter,NA,f,0.0165,Lo,,,,,,0,,,,,,,,high,8,0,8,0,1,,,,,,,,,
294511,2022-12-05_23h15.13.780,vts_reward_expectancy_bt,2022.2.4,Win32,60.25548325,Chrome,1494,934,,,,,10,645,,,,,,,,,,,,,,,,,W,146,star,1,1,,,,,,,,,,,,,,,,repeat,letter,lettRpt,f,0.0067,Hi,,,,,,0,,,,,,,,high,9,0,9,0,1,,,,,,,,,
294511,2022-12-05_23h15.13.780,vts_reward_expectancy_bt,2022.2.4,Win32,60.25548325,Chrome,1494,934,,,,,0,645,,,,,,,,,,,,,,,,,U,139,circle,1,0,,,,,,,,,,,,,,,,repeat,letter,lettRpt,f,0.1345,Hi,,,,,,0,,,,,,,,high,10,0,10,0,1,,,,,,,,,
294511,2022-12-05_23h15.13.780,vts_reward_expectancy_bt,2022.2.4,Win32,60.25548325,Chrome,1494,934,,,,,1,646,,,,,,,,,,,,,,,,,Y,132,triangle,1,0,,,,,,,,,,,,,,,,switch,number,numSwt,j,0.0508,Lo,,,,,,0,,,,,,,,high,11,0,11,0,1,,,,,,,,,
294511,2022-12-05_23h15.13.780,vts_reward_expectancy_bt,2022.2.4,Win32,60.25548325,Chrome,1494,934,,,,,0,646,,,,,,,,,,,,,,,,,F,167,triangle,0,0,,,,,,,,,,,,,,,,repeat,number,NA,j,0.0011,Lo,,,,,,0,,,,,,,,high,12,0,12,0,1,,,,,,,,,
294511,2022-12-05_23h15.13.780,vts_reward_expectancy_bt,2022.2.4,Win32,60.25548325,Chrome,1494,934,,,,,0,646,,,,,,,,,,,,,,,,,B,181,circle,0,1,,,,,,,,,,,,,,,,repeat,number,NA,j,0.136,Lo,,,,,,0,,,,,,,,high,13,0,13,0,1,,,,,,,,,
294511,2022-12-05_23h15.13.780,vts_reward_expectancy_bt,2022.2.4,Win32,60.25548325,Chrome,1494,934,,,,,1,647,,,,,,,,,,,,,,,,,H,125,hexagon,1,1,,,,,,,,,,,,,,,,repeat,number,numRpt,j,0.1692,Lo,,,,,,0,,,,,,,,high,14,0,14,0,1,,,,,,,,,
294511,2022-12-05_23h15.13.780,vts_reward_expectancy_bt,2022.2.4,Win32,60.25548325,Chrome,1494,934,,,,,1,648,,,,,,,,,,,,,,,,,S,174,star,1,0,,,,,,,,,,,,,,,,switch,letter,lettSwt,f,0.0393,Hi,,,,,,0,,,,,,,,high,15,0,15,0,1,,,,,,,,,
294511,2022-12-05_23h15.13.780,vts_reward_expectancy_bt,2022.2.4,Win32,60.25548325,Chrome,1494,934,,,,,10,658,,,,,,,,,,,,,,,,,B,125,hexagon,1,0,,,,,,,,,,,,,,,,switch,number,numSwt,j,0.1907,Lo,,,,,,0,,,,,,,,high,16,0,16,0,1,,,,,,,,,
294511,2022-12-05_23h15.13.780,vts_reward_expectancy_bt,2022.2.4,Win32,60.25548325,Chrome,1494,934,,,,,10,668,,,,,,,,,,,,,,,,,Y,146,triangle,1,0,,,,,,,,,,,,,,,,repeat,number,numRpt,j,0.1158,Lo,,,,,,0,,,,,,,,high,17,0,17,0,1,,,,,,,,,
294511,2022-12-05_23h15.13.780,vts_reward_expectancy_bt,2022.2.4,Win32,60.25548325,Chrome,1494,934,,,,,0,668,,,,,,,,,,,,,,,,,S,160,circle,0,0,,,,,,,,,,,,,,,,repeat,number,NA,j,0.2001,Lo,,,,,,0,,,,,,,,high,18,0,18,0,1,,,,,,,,,
294511,2022-12-05_23h15.13.780,vts_reward_expectancy_bt,2022.2.4,Win32,60.25548325,Chrome,1494,934,,,,,10,678,,,,,,,,,,,,,,,,,W,181,star,1,1,,,,,,,,,,,,,,,,switch,letter,lettSwt,f,0.0012,Hi,,,,,,0,,,,,,,,high,19,0,19,0,1,,,,,,,,,
294511,2022-12-05_23h15.13.780,vts_reward_expectancy_bt,2022.2.4,Win32,60.25548325,Chrome,1494,934,,,,,10,688,,,,,,,,,,,,,,,,,D,139,hexagon,1,0,,,,,,,,,,,,,,,,switch,number,numSwt,j,0.0419,Lo,,,,,,0,,,,,,,,high,20,0,20,0,1,,,,,,,,,
294511,2022-12-05_23h15.13.780,vts_reward_expectancy_bt,2022.2.4,Win32,60.25548325,Chrome,1494,934,,,,,0,688,,,,,,,,,,,,,,,,,U,174,triangle,0,0,,,,,,,,,,,,,,,,repeat,number,NA,j,0.0391,Lo,,,,,,0,,,,,,,,high,21,0,21,0,1,,,,,,,,,
294511,2022-12-05_23h15.13.780,vts_reward_expectancy_bt,2022.2.4,Win32,60.25548325,Chrome,1494,934,,,,,10,698,,,,,,,,,,,,,,,,,H,132,star,1,1,,,,,,,,,,,,,,,,repeat,number,numRpt,j,0.2198,Hi,,,,,,0,,,,,,,,high,22,0,22,0,1,,,,,,,,,
294511,2022-12-05_23h15.13.780,vts_reward_expectancy_bt,2022.2.4,Win32,60.25548325,Chrome,1494,934,,,,,0,698,,,,,,,,,,,,,,,,,F,167,circle,0,0,,,,,,,,,,,,,,,,switch,letter,NA,f,0.3518,Hi,,,,,,0,,,,,,,,high,23,0,23,0,1,,,,,,,,,
294511,2022-12-05_23h15.13.780,vts_reward_expectancy_bt,2022.2.4,Win32,60.25548325,Chrome,1494,934,,,,,0,698,,,,,,,,,,,,,,,,,D,167,hexagon,0,1,,,,,,,,,,,,,,,,repeat,letter,NA,f,0.285,Hi,,,,,,0,,,,,,,,high,24,0,24,0,1,,,,,,,,,
294511,2022-12-05_23h15.13.780,vts_reward_expectancy_bt,2022.2.4,Win32,60.25548325,Chrome,1494,934,,,,,0,698,,,,,,,,,,,,,,,,,W,181,star,0,1,,,,,,,,,,,,,,,,switch,number,NA,j,0.0116,Hi,,,,,,0,,,,,,,,high,25,0,25,0,1,,,,,,,,,
294511,2022-12-05_23h15.13.780,vts_reward_expectancy_bt,2022.2.4,Win32,60.25548325,Chrome,1494,934,,,,,0,698,,,,,,,,,,,,,,,,,H,132,circle,-1,1,,,,,,,,,,,,,,,,switch,no_choice,NA,,,Hi,,,,,,0,,,,,,,,high,26,0,26,0,1,,,,,,,,,
294511,2022-12-05_23h15.13.780,vts_reward_expectancy_bt,2022.2.4,Win32,60.25548325,Chrome,1494,934,,,,,0,698,,,,,,,,,,,,,,,,,U,146,triangle,-1,0,,,,,,,,,,,,,,,,repeat,no_choice,NA,,,Hi,,,,,,0,,,,,,,,high,27,0,27,0,1,,,,,,,,,
294511,2022-12-05_23h15.13.780,vts_reward_expectancy_bt,2022.2.4,Win32,60.25548325,Chrome,1494,934,,,,,1,699,,,,,,,,,,,,,,,,,S,160,star,1,0,,,,,,,,,,,,,,,,switch,letter,lettSwt,f,0.0571,Hi,,,,,,0,,,,,,,,high,28,0,28,0,1,,,,,,,,,
294511,2022-12-05_23h15.13.780,vts_reward_expectancy_bt,2022.2.4,Win32,60.25548325,Chrome,1494,934,,,,,0,699,,,,,,,,,,,,,,,,,Y,174,triangle,0,0,,,,,,,,,,,,,,,,switch,number,NA,j,0.0927,Hi,,,,,,0,,,,,,,,high,29,0,29,0,1,,,,,,,,,
294511,2022-12-05_23h15.13.780,vts_reward_expectancy_bt,2022.2.4,Win32,60.25548325,Chrome,1494,934,,,,,10,709,,,,,,,,,,,,,,,,,F,125,circle,1,1,,,,,,,,,,,,,,,,repeat,number,numRpt,j,0.4015,Hi,,,,,,0,,,,,,,,high,30,0,30,0,1,,,,,,,,,
294511,2022-12-05_23h15.13.780,vts_reward_expectancy_bt,2022.2.4,Win32,60.25548325,Chrome,1494,934,,,,,1,710,,,,,,,,,,,,,,,,,B,139,hexagon,1,0,,,,,,,,,,,,,,,,repeat,number,numRpt,j,0.0665,Lo,,,,,,0,,,,,,,,high,31,0,31,0,1,,,,,,,,,
294511,2022-12-05_23h15.13.780,vts_reward_expectancy_bt,2022.2.4,Win32,60.25548325,Chrome,1494,934,,,,,10,720,,,,,,,,,,,,,,,,,B,146,triangle,1,0,,,,,,,,,,,,,,,,repeat,number,numRpt,j,0.2014,Lo,,,,,,1,,,,,,space,4.7727,high,0,0,0,0,1,,,,,,,,,
294511,2022-12-05_23h15.13.780,vts_reward_expectancy_bt,2022.2.4,Win32,60.25548325,Chrome,1494,934,,,,,0,720,,,,,,,,,,,,,,,,,H,160,hexagon,0,0,,,,,,,,,,,,,,,,switch,letter,NA,f,0.0009,Lo,,,,,,1,,,,,,,,high,1,0,1,0,1,,,,,,,,,
294511,2022-12-05_23h15.13.780,vts_reward_expectancy_bt,2022.2.4,Win32,60.25548325,Chrome,1494,934,,,,,10,730,,,,,,,,,,,,,,,,,D,132,circle,1,1,,,,,,,,,,,,,,,,switch,number,numSwt,j,0.041,Hi,,,,,,1,,,,,,,,high,2,0,2,0,1,,,,,,,,,
294511,2022-12-05_23h15.13.780,vts_reward_expectancy_bt,2022.2.4,Win32,60.25548325,Chrome,1494,934,,,,,0,730,,,,,,,,,,,,,,,,,W,167,star,0,0,,,,,,,,,,,,,,,,repeat,number,NA,j,0.0704,Hi,,,,,,1,,,,,,,,high,3,0,3,0,1,,,,,,,,,
294511,2022-12-05_23h15.13.780,vts_reward_expectancy_bt,2022.2.4,Win32,60.25548325,Chrome,1494,934,,,,,1,731,,,,,,,,,,,,,,,,,F,125,triangle,1,1,,,,,,,,,,,,,,,,repeat,number,numRpt,j,0.1519,Lo,,,,,,1,,,,,,,,high,4,0,4,0,1,,,,,,,,,
294511,2022-12-05_23h15.13.780,vts_reward_expectancy_bt,2022.2.4,Win32,60.25548325,Chrome,1494,934,,,,,0,731,,,,,,,,,,,,,,,,,S,181,hexagon,0,0,,,,,,,,,,,,,,,,repeat,number,NA,j,0.0078,Lo,,,,,,1,,,,,,,,high,5,0,5,0,1,,,,,,,,,
294511,2022-12-05_23h15.13.780,vts_reward_expectancy_bt,2022.2.4,Win32,60.25548325,Chrome,1494,934,,,,,10,741,,,,,,,,,,,,,,,,,Y,139,circle,1,1,,,,,,,,,,,,,,,,switch,letter,lettSwt,f,0.0009,Hi,,,,,,1,,,,,,,,high,6,0,6,0,1,,,,,,,,,
294511,2022-12-05_23h15.13.780,vts_reward_expectancy_bt,2022.2.4,Win32,60.25548325,Chrome,1494,934,,,,,0,741,,,,,,,,,,,,,,,,,U,174,star,1,0,,,,,,,,,,,,,,,,repeat,letter,lettRpt,f,0.0074,Hi,,,,,,1,,,,,,,,high,7,0,7,0,1,,,,,,,,,
294511,2022-12-05_23h15.13.780,vts_reward_expectancy_bt,2022.2.4,Win32,60.25548325,Chrome,1494,934,,,,,0,741,,,,,,,,,,,,,,,,,B,146,triangle,0,0,,,,,,,,,,,,,,,,repeat,letter,NA,f,0.0339,Hi,,,,,,1,,,,,,,,high,8,0,8,0,1,,,,,,,,,
294511,2022-12-05_23h15.13.780,vts_reward_expectancy_bt,2022.2.4,Win32,60.25548325,Chrome,1494,934,,,,,0,741,,,,,,,,,,,,,,,,,H,160,star,0,1,,,,,,,,,,,,,,,,repeat,letter,NA,f,0.0011,Hi,,,,,,1,,,,,,,,high,9,0,9,0,1,,,,,,,,,
294511,2022-12-05_23h15.13.780,vts_reward_expectancy_bt,2022.2.4,Win32,60.25548325,Chrome,1494,934,,,,,0,741,,,,,,,,,,,,,,,,,D,132,circle,0,1,,,,,,,,,,,,,,,,repeat,letter,NA,f,0.0361,Hi,,,,,,1,,,,,,,,high,10,0,10,0,1,,,,,,,,,
294511,2022-12-05_23h15.13.780,vts_reward_expectancy_bt,2022.2.4,Win32,60.25548325,Chrome,1494,934,,,,,1,742,,,,,,,,,,,,,,,,,W,167,hexagon,1,1,,,,,,,,,,,,,,,,repeat,letter,lettRpt,f,0.2195,Lo,,,,,,1,,,,,,,,high,11,0,11,0,1,,,,,,,,,
294511,2022-12-05_23h15.13.780,vts_reward_expectancy_bt,2022.2.4,Win32,60.25548325,Chrome,1494,934,,,,,0,742,,,,,,,,,,,,,,,,,F,125,star,0,0,,,,,,,,,,,,,,,,repeat,letter,NA,f,0.0415,Lo,,,,,,1,,,,,,,,high,12,0,12,0,1,,,,,,,,,
294511,2022-12-05_23h15.13.780,vts_reward_expectancy_bt,2022.2.4,Win32,60.25548325,Chrome,1494,934,,,,,1,743,,,,,,,,,,,,,,,,,S,181,hexagon,1,1,,,,,,,,,,,,,,,,repeat,letter,lettRpt,f,0.2409,Lo,,,,,,1,,,,,,,,high,13,0,13,0,1,,,,,,,,,
294511,2022-12-05_23h15.13.780,vts_reward_expectancy_bt,2022.2.4,Win32,60.25548325,Chrome,1494,934,,,,,10,753,,,,,,,,,,,,,,,,,Y,139,triangle,1,0,,,,,,,,,,,,,,,,switch,number,numSwt,j,0.0564,Lo,,,,,,1,,,,,,,,high,14,0,14,0,1,,,,,,,,,
294511,2022-12-05_23h15.13.780,vts_reward_expectancy_bt,2022.2.4,Win32,60.25548325,Chrome,1494,934,,,,,0,753,,,,,,,,,,,,,,,,,U,174,circle,1,0,,,,,,,,,,,,,,,,switch,letter,lettSwt,f,0.1031,Hi,,,,,,1,,,,,,,,high,15,0,15,0,1,,,,,,,,,
294511,2022-12-05_23h15.13.780,vts_reward_expectancy_bt,2022.2.4,Win32,60.25548325,Chrome,1494,934,,,,,1,754,,,,,,,,,,,,,,,,,U,146,hexagon,1,0,,,,,,,,,,,,,,,,repeat,letter,lettRpt,f,0.0009,Lo,,,,,,1,,,,,,,,high,16,0,16,0,1,,,,,,,,,
294511,2022-12-05_23h15.13.780,vts_reward_expectancy_bt,2022.2.4,Win32,60.25548325,Chrome,1494,934,,,,,0,754,,,,,,,,,,,,,,,,,H,160,star,0,0,,,,,,,,,,,,,,,,switch,number,NA,j,0.0922,Lo,,,,,,1,,,,,,,,high,17,0,17,0,1,,,,,,,,,
294511,2022-12-05_23h15.13.780,vts_reward_expectancy_bt,2022.2.4,Win32,60.25548325,Chrome,1494,934,,,,,0,754,,,,,,,,,,,,,,,,,F,139,triangle,0,1,,,,,,,,,,,,,,,,switch,letter,NA,f,0.0169,Lo,,,,,,1,,,,,,,,high,18,0,18,0,1,,,,,,,,,
294511,2022-12-05_23h15.13.780,vts_reward_expectancy_bt,2022.2.4,Win32,60.25548325,Chrome,1494,934,,,,,0,754,,,,,,,,,,,,,,,,,S,181,circle,0,1,,,,,,,,,,,,,,,,switch,number,NA,j,0.0493,Lo,,,,,,1,,,,,,,,high,19,0,19,0,1,,,,,,,,,
294511,2022-12-05_23h15.13.780,vts_reward_expectancy_bt,2022.2.4,Win32,60.25548325,Chrome,1494,934,,,,,0,754,,,,,,,,,,,,,,,,,W,132,circle,1,1,,,,,,,,,,,,,,,,repeat,number,numRpt,j,0.1336,Hi,,,,,,1,,,,,,,,high,20,0,20,0,1,,,,,,,,,
294511,2022-12-05_23h15.13.780,vts_reward_expectancy_bt,2022.2.4,Win32,60.25548325,Chrome,1494,934,,,,,0,754,,,,,,,,,,,,,,,,,Y,167,star,0,0,,,,,,,,,,,,,,,,repeat,number,NA,j,0.0842,Hi,,,,,,1,,,,,,,,high,21,0,21,0,1,,,,,,,,,
294511,2022-12-05_23h15.13.780,vts_reward_expectancy_bt,2022.2.4,Win32,60.25548325,Chrome,1494,934,,,,,0,754,,,,,,,,,,,,,,,,,B,174,hexagon,0,1,,,,,,,,,,,,,,,,repeat,number,NA,j,0.0513,Hi,,,,,,1,,,,,,,,high,22,0,22,0,1,,,,,,,,,
294511,2022-12-05_23h15.13.780,vts_reward_expectancy_bt,2022.2.4,Win32,60.25548325,Chrome,1494,934,,,,,0,754,,,,,,,,,,,,,,,,,D,125,triangle,0,1,,,,,,,,,,,,,,,,switch,letter,NA,f,0.0856,Hi,,,,,,1,,,,,,,,high,23,0,23,0,1,,,,,,,,,
294511,2022-12-05_23h15.13.780,vts_reward_expectancy_bt,2022.2.4,Win32,60.25548325,Chrome,1494,934,,,,,0,754,,,,,,,,,,,,,,,,,F,139,star,0,1,,,,,,,,,,,,,,,,repeat,letter,NA,f,0.0242,Hi,,,,,,1,,,,,,,,high,24,0,24,0,1,,,,,,,,,
294511,2022-12-05_23h15.13.780,vts_reward_expectancy_bt,2022.2.4,Win32,60.25548325,Chrome,1494,934,,,,,0,754,,,,,,,,,,,,,,,,,U,160,circle,1,1,,,,,,,,,,,,,,,,repeat,letter,lettRpt,f,0.9054,Hi,,,,,,1,,,,,,,,high,25,0,25,0,1,,,,,,,,,
294511,2022-12-05_23h15.13.780,vts_reward_expectancy_bt,2022.2.4,Win32,60.25548325,Chrome,1494,934,,,,,0,754,,,,,,,,,,,,,,,,,H,132,triangle,0,0,,,,,,,,,,,,,,,,repeat,letter,NA,f,0.0518,Hi,,,,,,1,,,,,,,,high,26,0,26,0,1,,,,,,,,,
294511,2022-12-05_23h15.13.780,vts_reward_expectancy_bt,2022.2.4,Win32,60.25548325,Chrome,1494,934,,,,,1,755,,,,,,,,,,,,,,,,,W,174,hexagon,1,1,,,,,,,,,,,,,,,,repeat,letter,lettRpt,f,0.0671,Lo,,,,,,1,,,,,,,,high,27,0,27,0,1,,,,,,,,,
294511,2022-12-05_23h15.13.780,vts_reward_expectancy_bt,2022.2.4,Win32,60.25548325,Chrome,1494,934,,,,,0,755,,,,,,,,,,,,,,,,,B,167,star,0,0,,,,,,,,,,,,,,,,switch,number,NA,j,0.001,Lo,,,,,,1,,,,,,,,high,28,0,28,0,1,,,,,,,,,
294511,2022-12-05_23h15.13.780,vts_reward_expectancy_bt,2022.2.4,Win32,60.25548325,Chrome,1494,934,,,,,0,755,,,,,,,,,,,,,,,,,S,125,circle,1,1,,,,,,,,,,,,,,,,switch,letter,lettSwt,f,1.1676,Hi,,,,,,1,,,,,,,,high,29,0,29,0,1,,,,,,,,,
294511,2022-12-05_23h15.13.780,vts_reward_expectancy_bt,2022.2.4,Win32,60.25548325,Chrome,1494,934,,,,,0,755,,,,,,,,,,,,,,,,,D,181,hexagon,0,0,,,,,,,,,,,,,,,,switch,number,NA,j,1.5249,Hi,,,,,,1,,,,,,,,high,30,0,30,0,1,,,,,,,,,
294511,2022-12-05_23h15.13.780,vts_reward_expectancy_bt,2022.2.4,Win32,60.25548325,Chrome,1494,934,,,,,1,756,,,,,,,,,,,,,,,,,Y,146,triangle,1,1,,,,,,,,,,,,,,,,repeat,number,numRpt,j,0.0249,Lo,,,,,,1,,,,,,,,high,31,0,31,0,1,,,,,,,,,
294511,2022-12-05_23h15.13.780,vts_reward_expectancy_bt,2022.2.4,Win32,60.25548325,Chrome,1494,934,,,,,0,756,,,,,,,,,,,,,,,,,D,181,circle,0,0,,,,,,,,,,,,,,,,switch,letter,NA,f,0.1397,Lo,,,,,,2,,,,,,space,1.0328,high,0,0,0,0,1,,,,,,,,,
294511,2022-12-05_23h15.13.780,vts_reward_expectancy_bt,2022.2.4,Win32,60.25548325,Chrome,1494,934,,,,,1,757,,,,,,,,,,,,,,,,,Y,125,triangle,1,1,,,,,,,,,,,,,,,,switch,number,numSwt,j,0.0261,Lo,,,,,,2,,,,,,,,high,1,0,1,0,1,,,,,,,,,
294511,2022-12-05_23h15.13.780,vts_reward_expectancy_bt,2022.2.4,Win32,60.25548325,Chrome,1494,934,,,,,0,757,,,,,,,,,,,,,,,,,F,139,hexagon,0,0,,,,,,,,,,,,,,,,switch,letter,NA,f,0.1181,Lo,,,,,,2,,,,,,,,high,2,0,2,0,1,,,,,,,,,
294511,2022-12-05_23h15.13.780,vts_reward_expectancy_bt,2022.2.4,Win32,60.25548325,Chrome,1494,934,,,,,0,757,,,,,,,,,,,,,,,,,W,167,star,1,1,,,,,,,,,,,,,,,,repeat,letter,lettRpt,f,0.0575,Hi,,,,,,2,,,,,,,,high,3,0,3,0,1,,,,,,,,,
294511,2022-12-05_23h15.13.780,vts_reward_expectancy_bt,2022.2.4,Win32,60.25548325,Chrome,1494,934,,,,,0,757,,,,,,,,,,,,,,,,,H,160,circle,0,0,,,,,,,,,,,,,,,,repeat,letter,NA,f,0.0884,Hi,,,,,,2,,,,,,,,high,4,0,4,0,1,,,,,,,,,
294511,2022-12-05_23h15.13.780,vts_reward_expectancy_bt,2022.2.4,Win32,60.25548325,Chrome,1494,934,,,,,10,767,,,,,,,,,,,,,,,,,S,132,triangle,1,1,,,,,,,,,,,,,,,,switch,number,numSwt,j,0.1183,Lo,,,,,,2,,,,,,,,high,5,0,5,0,1,,,,,,,,,
294511,2022-12-05_23h15.13.780,vts_reward_expectancy_bt,2022.2.4,Win32,60.25548325,Chrome,1494,934,,,,,10,777,,,,,,,,,,,,,,,,,U,146,hexagon,1,0,,,,,,,,,,,,,,,,repeat,number,numRpt,j,0.0999,Lo,,,,,,2,,,,,,,,high,6,0,6,0,1,,,,,,,,,
294511,2022-12-05_23h15.13.780,vts_reward_expectancy_bt,2022.2.4,Win32,60.25548325,Chrome,1494,934,,,,,0,777,,,,,,,,,,,,,,,,,B,174,star,0,0,,,,,,,,,,,,,,,,repeat,number,NA,j,0.0389,Lo,,,,,,2,,,,,,,,high,7,0,7,0,1,,,,,,,,,
294511,2022-12-05_23h15.13.780,vts_reward_expectancy_bt,2022.2.4,Win32,60.25548325,Chrome,1494,934,,,,,0,777,,,,,,,,,,,,,,,,,D,181,circle,0,1,,,,,,,,,,,,,,,,repeat,number,NA,j,0.1385,Lo,,,,,,2,,,,,,,,high,8,0,8,0,1,,,,,,,,,
294511,2022-12-05_23h15.13.780,vts_reward_expectancy_bt,2022.2.4,Win32,60.25548325,Chrome,1494,934,,,,,1,778,,,,,,,,,,,,,,,,,Y,125,triangle,1,1,,,,,,,,,,,,,,,,switch,letter,lettSwt,f,0.6202,Lo,,,,,,2,,,,,,,,high,9,0,9,0,1,,,,,,,,,
294511,2022-12-05_23h15.13.780,vts_reward_expectancy_bt,2022.2.4,Win32,60.25548325,Chrome,1494,934,,,,,0,778,,,,,,,,,,,,,,,,,F,139,hexagon,0,0,,,,,,,,,,,,,,,,repeat,letter,NA,f,0.0401,Lo,,,,,,2,,,,,,,,high,10,0,10,0,1,,,,,,,,,
294511,2022-12-05_23h15.13.780,vts_reward_expectancy_bt,2022.2.4,Win32,60.25548325,Chrome,1494,934,,,,,10,788,,,,,,,,,,,,,,,,,W,167,star,1,1,,,,,,,,,,,,,,,,repeat,letter,lettRpt,f,0.022,Hi,,,,,,2,,,,,,,,high,11,0,11,0,1,,,,,,,,,
294511,2022-12-05_23h15.13.780,vts_reward_expectancy_bt,2022.2.4,Win32,60.25548325,Chrome,1494,934,,,,,0,788,,,,,,,,,,,,,,,,,H,160,triangle,0,0,,,,,,,,,,,,,,,,repeat,letter,NA,f,0.0648,Hi,,,,,,2,,,,,,,,high,12,0,12,0,1,,,,,,,,,
294511,2022-12-05_23h15.13.780,vts_reward_expectancy_bt,2022.2.4,Win32,60.25548325,Chrome,1494,934,,,,,1,789,,,,,,,,,,,,,,,,,S,132,hexagon,1,1,,,,,,,,,,,,,,,,repeat,letter,lettRpt,f,0.0525,Lo,,,,,,2,,,,,,,,high,13,0,13,0,1,,,,,,,,,
294511,2022-12-05_23h15.13.780,vts_reward_expectancy_bt,2022.2.4,Win32,60.25548325,Chrome,1494,934,,,,,0,789,,,,,,,,,,,,,,,,,U,146,star,1,0,,,,,,,,,,,,,,,,switch,number,numSwt,j,0.0713,Hi,,,,,,2,,,,,,,,high,14,0,14,0,1,,,,,,,,,
294511,2022-12-05_23h15.13.780,vts_reward_expectancy_bt,2022.2.4,Win32,60.25548325,Chrome,1494,934,,,,,0,789,,,,,,,,,,,,,,,,,B,174,circle,0,0,,,,,,,,,,,,,,,,repeat,number,NA,j,0.0171,Hi,,,,,,2,,,,,,,,high,15,0,15,0,1,,,,,,,,,
294511,2022-12-05_23h15.13.780,vts_reward_expectancy_bt,2022.2.4,Win32,60.25548325,Chrome,1494,934,,,,,1,790,,,,,,,,,,,,,,,,,W,132,triangle,1,1,,,,,,,,,,,,,,,,switch,letter,lettSwt,f,0.0076,Lo,,,,,,2,,,,,,,,high,16,0,16,0,1,,,,,,,,,
294511,2022-12-05_23h15.13.780,vts_reward_expectancy_bt,2022.2.4,Win32,60.25548325,Chrome,1494,934,,,,,0,790,,,,,,,,,,,,,,,,,D,146,star,0,0,,,,,,,,,,,,,,,,repeat,letter,NA,f,0.0701,Lo,,,,,,2,,,,,,,,high,17,0,17,0,1,,,,,,,,,
294511,2022-12-05_23h15.13.780,vts_reward_expectancy_bt,2022.2.4,Win32,60.25548325,Chrome,1494,934,,,,,10,800,,,,,,,,,,,,,,,,,S,174,circle,1,1,,,,,,,,,,,,,,,,repeat,letter,lettRpt,f,0.0376,Hi,,,,,,2,,,,,,,,high,18,0,18,0,1,,,,,,,,,
294511,2022-12-05_23h15.13.780,vts_reward_expectancy_bt,2022.2.4,Win32,60.25548325,Chrome,1494,934,,,,,0,800,,,,,,,,,,,,,,,,,B,160,hexagon,0,0,,,,,,,,,,,,,,,,repeat,letter,NA,f,0.008,Hi,,,,,,2,,,,,,,,high,19,0,19,0,1,,,,,,,,,
294511,2022-12-05_23h15.13.780,vts_reward_expectancy_bt,2022.2.4,Win32,60.25548325,Chrome,1494,934,,,,,1,801,,,,,,,,,,,,,,,,,U,125,triangle,1,1,,,,,,,,,,,,,,,,repeat,letter,lettRpt,f,0.0009,Lo,,,,,,2,,,,,,,,high,20,0,20,0,1,,,,,,,,,
294511,2022-12-05_23h15.13.780,vts_reward_expectancy_bt,2022.2.4,Win32,60.25548325,Chrome,1494,934,,,,,10,811,,,,,,,,,,,,,,,,,Y,181,hexagon,1,0,,,,,,,,,,,,,,,,repeat,letter,lettRpt,f,0.0337,Lo,,,,,,2,,,,,,,,high,21,0,21,0,1,,,,,,,,,
294511,2022-12-05_23h15.13.780,vts_reward_expectancy_bt,2022.2.4,Win32,60.25548325,Chrome,1494,934,,,,,0,811,,,,,,,,,,,,,,,,,H,167,circle,0,0,,,,,,,,,,,,,,,,switch,number,NA,j,0.1231,Lo,,,,,,2,,,,,,,,high,22,0,22,0,1,,,,,,,,,
294511,2022-12-05_23h15.13.780,vts_reward_expectancy_bt,2022.2.4,Win32,60.25548325,Chrome,1494,934,,,,,1,812,,,,,,,,,,,,,,,,,F,139,star,1,1,,,,,,,,,,,,,,,,repeat,number,numRpt,j,0.0007,Hi,,,,,,2,,,,,,,,high,23,0,23,0,1,,,,,,,,,
294511,2022-12-05_23h15.13.780,vts_reward_expectancy_bt,2022.2.4,Win32,60.25548325,Chrome,1494,934,,,,,0,812,,,,,,,,,,,,,,,,,F,132,star,0,0,,,,,,,,,,,,,,,,switch,letter,NA,f,0.1526,Hi,,,,,,2,,,,,,,,high,24,0,24,0,1,,,,,,,,,
294511,2022-12-05_23h15.13.780,vts_reward_expectancy_bt,2022.2.4,Win32,60.25548325,Chrome,1494,934,,,,,0,812,,,,,,,,,,,,,,,,,Y,139,hexagon,-1,1,,,,,,,,,,,,,,,,switch,no_choice,NA,,,Hi,,,,,,2,,,,,,,,high,25,0,25,0,1,,,,,,,,,
294511,2022-12-05_23h15.13.780,vts_reward_expectancy_bt,2022.2.4,Win32,60.25548325,Chrome,1494,934,,,,,0,812,,,,,,,,,,,,,,,,,H,181,triangle,0,0,,,,,,,,,,,,,,,,switch,letter,NA,f,1.1005,Hi,,,,,,2,,,,,,,,high,26,0,26,0,1,,,,,,,,,
294511,2022-12-05_23h15.13.780,vts_reward_expectancy_bt,2022.2.4,Win32,60.25548325,Chrome,1494,934,,,,,0,812,,,,,,,,,,,,,,,,,U,167,circle,0,1,,,,,,,,,,,,,,,,switch,number,NA,j,0.0574,Hi,,,,,,2,,,,,,,,high,27,0,27,0,1,,,,,,,,,
294511,2022-12-05_23h15.13.780,vts_reward_expectancy_bt,2022.2.4,Win32,60.25548325,Chrome,1494,934,,,,,0,812,,,,,,,,,,,,,,,,,B,160,hexagon,0,1,,,,,,,,,,,,,,,,repeat,number,NA,j,0.0009,Hi,,,,,,2,,,,,,,,high,28,0,28,0,1,,,,,,,,,
294511,2022-12-05_23h15.13.780,vts_reward_expectancy_bt,2022.2.4,Win32,60.25548325,Chrome,1494,934,,,,,1,813,,,,,,,,,,,,,,,,,W,125,triangle,1,1,,,,,,,,,,,,,,,,repeat,number,numRpt,j,0.0839,Lo,,,,,,2,,,,,,,,high,29,0,29,0,1,,,,,,,,,
294511,2022-12-05_23h15.13.780,vts_reward_expectancy_bt,2022.2.4,Win32,60.25548325,Chrome,1494,934,,,,,0,813,,,,,,,,,,,,,,,,,D,174,circle,0,0,,,,,,,,,,,,,,,,switch,letter,NA,f,0.0673,Lo,,,,,,2,,,,,,,,high,30,0,30,0,1,,,,,,,,,
294511,2022-12-05_23h15.13.780,vts_reward_expectancy_bt,2022.2.4,Win32,60.25548325,Chrome,1494,934,,,,,0,813,,,,,,,,,,,,,,,,,S,146,star,1,1,,,,,,,,,,,,,,,,switch,number,numSwt,j,0.0674,Hi,,,,,,2,,,,,,,,high,31,0,31,0,1,,,,,,,,,
294511,2022-12-05_23h15.13.780,vts_reward_expectancy_bt,2022.2.4,Win32,60.25548325,Chrome,1494,934,,,,,0,813,,,,,,,,,,,,,,,,,D,125,circle,1,0,,,,,,,,,,,,,,,,repeat,number,numRpt,j,0.0842,Hi,,,,,,3,,,,,,space,1.3999,high,0,0,0,0,1,,,,,,,,,
294511,2022-12-05_23h15.13.780,vts_reward_expectancy_bt,2022.2.4,Win32,60.25548325,Chrome,1494,934,,,,,10,823,,,,,,,,,,,,,,,,,W,174,triangle,1,0,,,,,,,,,,,,,,,,switch,letter,lettSwt,f,0.0012,Lo,,,,,,3,,,,,,,,high,1,0,1,0,1,,,,,,,,,
294511,2022-12-05_23h15.13.780,vts_reward_expectancy_bt,2022.2.4,Win32,60.25548325,Chrome,1494,934,,,,,0,823,,,,,,,,,,,,,,,,,S,167,star,1,0,,,,,,,,,,,,,,,,repeat,letter,lettRpt,f,0.0834,Hi,,,,,,3,,,,,,,,high,2,0,2,0,1,,,,,,,,,
294511,2022-12-05_23h15.13.780,vts_reward_expectancy_bt,2022.2.4,Win32,60.25548325,Chrome,1494,934,,,,,0,823,,,,,,,,,,,,,,,,,H,160,hexagon,0,0,,,,,,,,,,,,,,,,switch,number,NA,j,0.0269,Hi,,,,,,3,,,,,,,,high,3,0,3,0,1,,,,,,,,,
294511,2022-12-05_23h15.13.780,vts_reward_expectancy_bt,2022.2.4,Win32,60.25548325,Chrome,1494,934,,,,,10,833,,,,,,,,,,,,,,,,,U,139,circle,1,1,,,,,,,,,,,,,,,,repeat,number,numRpt,j,0.0409,Hi,,,,,,3,,,,,,,,high,4,0,4,0,1,,,,,,,,,
294511,2022-12-05_23h15.13.780,vts_reward_expectancy_bt,2022.2.4,Win32,60.25548325,Chrome,1494,934,,,,,0,833,,,,,,,,,,,,,,,,,F,146,triangle,0,0,,,,,,,,,,,,,,,,switch,letter,NA,f,0.0049,Hi,,,,,,3,,,,,,,,high,5,0,5,0,1,,,,,,,,,
294511,2022-12-05_23h15.13.780,vts_reward_expectancy_bt,2022.2.4,Win32,60.25548325,Chrome,1494,934,,,,,0,833,,,,,,,,,,,,,,,,,B,181,star,0,1,,,,,,,,,,,,,,,,repeat,letter,NA,f,0.0009,Hi,,,,,,3,,,,,,,,high,6,0,6,0,1,,,,,,,,,
294511,2022-12-05_23h15.13.780,vts_reward_expectancy_bt,2022.2.4,Win32,60.25548325,Chrome,1494,934,,,,,1,834,,,,,,,,,,,,,,,,,Y,132,hexagon,1,1,,,,,,,,,,,,,,,,repeat,letter,lettRpt,f,0.0844,Lo,,,,,,3,,,,,,,,high,7,0,7,0,1,,,,,,,,,
294511,2022-12-05_23h15.13.780,vts_reward_expectancy_bt,2022.2.4,Win32,60.25548325,Chrome,1494,934,,,,,0,834,,,,,,,,,,,,,,,,,D,125,hexagon,0,0,,,,,,,,,,,,,,,,repeat,letter,NA,f,0.0332,Lo,,,,,,3,,,,,,,,high,8,0,8,0,1,,,,,,,,,
294511,2022-12-05_23h15.13.780,vts_reward_expectancy_bt,2022.2.4,Win32,60.25548325,Chrome,1494,934,,,,,1,835,,,,,,,,,,,,,,,,,W,174,triangle,1,1,,,,,,,,,,,,,,,,repeat,letter,lettRpt,f,0.0069,Lo,,,,,,3,,,,,,,,high,9,0,9,0,1,,,,,,,,,
294511,2022-12-05_23h15.13.780,vts_reward_expectancy_bt,2022.2.4,Win32,60.25548325,Chrome,1494,934,,,,,0,835,,,,,,,,,,,,,,,,,S,167,star,0,0,,,,,,,,,,,,,,,,switch,number,NA,j,0.1009,Lo,,,,,,3,,,,,,,,high,10,0,10,0,1,,,,,,,,,
294511,2022-12-05_23h15.13.780,vts_reward_expectancy_bt,2022.2.4,Win32,60.25548325,Chrome,1494,934,,,,,0,835,,,,,,,,,,,,,,,,,H,160,circle,0,1,,,,,,,,,,,,,,,,repeat,number,NA,j,0.026,Lo,,,,,,3,,,,,,,,high,11,0,11,0,1,,,,,,,,,
294511,2022-12-05_23h15.13.780,vts_reward_expectancy_bt,2022.2.4,Win32,60.25548325,Chrome,1494,934,,,,,0,835,,,,,,,,,,,,,,,,,U,139,circle,1,1,,,,,,,,,,,,,,,,repeat,number,numRpt,j,0.0925,Hi,,,,,,3,,,,,,,,high,12,0,12,0,1,,,,,,,,,
294511,2022-12-05_23h15.13.780,vts_reward_expectancy_bt,2022.2.4,Win32,60.25548325,Chrome,1494,934,,,,,0,835,,,,,,,,,,,,,,,,,F,146,hexagon,0,0,,,,,,,,,,,,,,,,switch,letter,NA,f,0.0831,Hi,,,,,,3,,,,,,,,high,13,0,13,0,1,,,,,,,,,
294511,2022-12-05_23h15.13.780,vts_reward_expectancy_bt,2022.2.4,Win32,60.25548325,Chrome,1494,934,,,,,0,835,,,,,,,,,,,,,,,,,B,181,star,0,1,,,,,,,,,,,,,,,,switch,number,NA,j,0.0429,Hi,,,,,,3,,,,,,,,high,14,0,14,0,1,,,,,,,,,
294511,2022-12-05_23h15.13.780,vts_reward_expectancy_bt,2022.2.4,Win32,60.25548325,Chrome,1494,934,,,,,1,836,,,,,,,,,,,,,,,,,Y,132,triangle,1,1,,,,,,,,,,,,,,,,repeat,number,numRpt,j,0.1922,Lo,,,,,,3,,,,,,,,high,15,0,15,0,1,,,,,,,,,
294511,2022-12-05_23h15.13.780,vts_reward_expectancy_bt,2022.2.4,Win32,60.25548325,Chrome,1494,934,,,,,0,836,,,,,,,,,,,,,,,,,B,167,hexagon,0,0,,,,,,,,,,,,,,,,switch,letter,NA,f,0.0073,Lo,,,,,,3,,,,,,,,high,16,0,16,0,1,,,,,,,,,
294511,2022-12-05_23h15.13.780,vts_reward_expectancy_bt,2022.2.4,Win32,60.25548325,Chrome,1494,934,,,,,0,836,,,,,,,,,,,,,,,,,S,125,circle,1,1,,,,,,,,,,,,,,,,repeat,letter,lettRpt,f,0.0344,Hi,,,,,,3,,,,,,,,high,17,0,17,0,1,,,,,,,,,
294511,2022-12-05_23h15.13.780,vts_reward_expectancy_bt,2022.2.4,Win32,60.25548325,Chrome,1494,934,,,,,0,836,,,,,,,,,,,,,,,,,H,181,triangle,0,0,,,,,,,,,,,,,,,,repeat,letter,NA,f,0.0194,Hi,,,,,,3,,,,,,,,high,18,0,18,0,1,,,,,,,,,
294511,2022-12-05_23h15.13.780,vts_reward_expectancy_bt,2022.2.4,Win32,60.25548325,Chrome,1494,934,,,,,0,836,,,,,,,,,,,,,,,,,D,174,star,0,1,,,,,,,,,,,,,,,,repeat,letter,NA,f,0.1036,Hi,,,,,,3,,,,,,,,high,19,0,19,0,1,,,,,,,,,
294511,2022-12-05_23h15.13.780,vts_reward_expectancy_bt,2022.2.4,Win32,60.25548325,Chrome,1494,934,,,,,1,837,,,,,,,,,,,,,,,,,W,139,triangle,1,1,,,,,,,,,,,,,,,,repeat,letter,lettRpt,f,0.118,Lo,,,,,,3,,,,,,,,high,20,0,20,0,1,,,,,,,,,
294511,2022-12-05_23h15.13.780,vts_reward_expectancy_bt,2022.2.4,Win32,60.25548325,Chrome,1494,934,,,,,0,837,,,,,,,,,,,,,,,,,Y,132,circle,1,0,,,,,,,,,,,,,,,,repeat,letter,lettRpt,f,0.1858,Hi,,,,,,3,,,,,,,,high,21,0,21,0,1,,,,,,,,,
294511,2022-12-05_23h15.13.780,vts_reward_expectancy_bt,2022.2.4,Win32,60.25548325,Chrome,1494,934,,,,,0,837,,,,,,,,,,,,,,,,,F,146,hexagon,0,0,,,,,,,,,,,,,,,,repeat,letter,NA,f,0.0514,Hi,,,,,,3,,,,,,,,high,22,0,22,0,1,,,,,,,,,
294511,2022-12-05_23h15.13.780,vts_reward_expectancy_bt,2022.2.4,Win32,60.25548325,Chrome,1494,934,,,,,0,837,,,,,,,,,,,,,,,,,U,160,star,0,1,,,,,,,,,,,,,,,,switch,number,NA,j,0.2177,Hi,,,,,,3,,,,,,,,high,23,0,23,0,1,,,,,,,,,
294511,2022-12-05_23h15.13.780,vts_reward_expectancy_bt,2022.2.4,Win32,60.25548325,Chrome,1494,934,,,,,0,837,,,,,,,,,,,,,,,,,Y,167,hexagon,0,1,,,,,,,,,,,,,,,,repeat,number,NA,j,0.0171,Hi,,,,,,3,,,,,,,,high,24,0,24,0,1,,,,,,,,,
294511,2022-12-05_23h15.13.780,vts_reward_expectancy_bt,2022.2.4,Win32,60.25548325,Chrome,1494,934,,,,,0,837,,,,,,,,,,,,,,,,,W,139,circle,1,1,,,,,,,,,,,,,,,,repeat,number,numRpt,j,0.1858,Hi,,,,,,3,,,,,,,,high,25,0,25,0,1,,,,,,,,,
294511,2022-12-05_23h15.13.780,vts_reward_expectancy_bt,2022.2.4,Win32,60.25548325,Chrome,1494,934,,,,,0,837,,,,,,,,,,,,,,,,,F,132,triangle,0,0,,,,,,,,,,,,,,,,switch,letter,NA,f,0.0544,Hi,,,,,,3,,,,,,,,high,26,0,26,0,1,,,,,,,,,
294511,2022-12-05_23h15.13.780,vts_reward_expectancy_bt,2022.2.4,Win32,60.25548325,Chrome,1494,934,,,,,10,847,,,,,,,,,,,,,,,,,H,125,star,1,1,,,,,,,,,,,,,,,,switch,number,numSwt,j,0.0336,Hi,,,,,,3,,,,,,,,high,27,0,27,0,1,,,,,,,,,
294511,2022-12-05_23h15.13.780,vts_reward_expectancy_bt,2022.2.4,Win32,60.25548325,Chrome,1494,934,,,,,10,857,,,,,,,,,,,,,,,,,U,181,triangle,1,0,,,,,,,,,,,,,,,,switch,letter,lettSwt,f,0.0413,Lo,,,,,,3,,,,,,,,high,28,0,28,0,1,,,,,,,,,
294511,2022-12-05_23h15.13.780,vts_reward_expectancy_bt,2022.2.4,Win32,60.25548325,Chrome,1494,934,,,,,0,857,,,,,,,,,,,,,,,,,D,160,hexagon,0,0,,,,,,,,,,,,,,,,repeat,letter,NA,f,0.3901,Lo,,,,,,3,,,,,,,,high,29,0,29,0,1,,,,,,,,,
294511,2022-12-05_23h15.13.780,vts_reward_expectancy_bt,2022.2.4,Win32,60.25548325,Chrome,1494,934,,,,,10,867,,,,,,,,,,,,,,,,,B,146,circle,1,1,,,,,,,,,,,,,,,,switch,number,numSwt,j,0.034,Hi,,,,,,3,,,,,,,,high,30,0,30,0,1,,,,,,,,,
294511,2022-12-05_23h15.13.780,vts_reward_expectancy_bt,2022.2.4,Win32,60.25548325,Chrome,1494,934,,,,,0,867,,,,,,,,,,,,,,,,,S,174,star,0,0,,,,,,,,,,,,,,,,repeat,number,NA,j,0.1932,Hi,,,,,,3,,,,,,,,high,31,0,31,0,1,,,,,,,,,
294511,2022-12-05_23h15.13.780,vts_reward_expectancy_bt,2022.2.4,Win32,60.25548325,Chrome,1494,934,,,,,0,867,,,,,,,,,,,,,,,,,H,174,triangle,0,1,,,,,,,,,,,,,,,,repeat,number,NA,j,0.1086,Hi,,,,,,4,,,,,,space,1.5503,high,0,0,0,0,1,,,,,,,,,
294511,2022-12-05_23h15.13.780,vts_reward_expectancy_bt,2022.2.4,Win32,60.25548325,Chrome,1494,934,,,,,0,867,,,,,,,,,,,,,,,,,B,132,circle,1,1,,,,,,,,,,,,,,,,repeat,number,numRpt,j,0.1927,Hi,,,,,,4,,,,,,,,high,1,0,1,0,1,,,,,,,,,
294511,2022-12-05_23h15.13.780,vts_reward_expectancy_bt,2022.2.4,Win32,60.25548325,Chrome,1494,934,,,,,10,877,,,,,,,,,,,,,,,,,W,146,hexagon,1,0,,,,,,,,,,,,,,,,repeat,number,numRpt,j,0.0008,Lo,,,,,,4,,,,,,,,high,2,0,2,0,1,,,,,,,,,
294511,2022-12-05_23h15.13.780,vts_reward_expectancy_bt,2022.2.4,Win32,60.25548325,Chrome,1494,934,,,,,0,877,,,,,,,,,,,,,,,,,F,167,star,0,0,,,,,,,,,,,,,,,,repeat,number,NA,j,0.0092,Lo,,,,,,4,,,,,,,,high,3,0,3,0,1,,,,,,,,,
294511,2022-12-05_23h15.13.780,vts_reward_expectancy_bt,2022.2.4,Win32,60.25548325,Chrome,1494,934,,,,,1,878,,,,,,,,,,,,,,,,,U,160,triangle,1,1,,,,,,,,,,,,,,,,switch,letter,lettSwt,f,0.001,Lo,,,,,,4,,,,,,,,high,4,0,4,0,1,,,,,,,,,
294511,2022-12-05_23h15.13.780,vts_reward_expectancy_bt,2022.2.4,Win32,60.25548325,Chrome,1494,934,,,,,0,878,,,,,,,,,,,,,,,,,D,181,circle,0,0,,,,,,,,,,,,,,,,switch,number,NA,j,0.2594,Lo,,,,,,4,,,,,,,,high,5,0,5,0,1,,,,,,,,,
294511,2022-12-05_23h15.13.780,vts_reward_expectancy_bt,2022.2.4,Win32,60.25548325,Chrome,1494,934,,,,,1,879,,,,,,,,,,,,,,,,,S,139,hexagon,1,1,,,,,,,,,,,,,,,,repeat,number,numRpt,j,0.2396,Lo,,,,,,4,,,,,,,,high,6,0,6,0,1,,,,,,,,,
294511,2022-12-05_23h15.13.780,vts_reward_expectancy_bt,2022.2.4,Win32,60.25548325,Chrome,1494,934,,,,,10,889,,,,,,,,,,,,,,,,,Y,125,star,1,0,,,,,,,,,,,,,,,,repeat,number,numRpt,j,0.0576,Hi,,,,,,4,,,,,,,,high,7,0,7,0,1,,,,,,,,,
294511,2022-12-05_23h15.13.780,vts_reward_expectancy_bt,2022.2.4,Win32,60.25548325,Chrome,1494,934,,,,,0,889,,,,,,,,,,,,,,,,,H,174,triangle,0,0,,,,,,,,,,,,,,,,repeat,number,NA,j,0.0008,Hi,,,,,,4,,,,,,,,high,8,0,8,0,1,,,,,,,,,
294511,2022-12-05_23h15.13.780,vts_reward_expectancy_bt,2022.2.4,Win32,60.25548325,Chrome,1494,934,,,,,1,890,,,,,,,,,,,,,,,,,B,132,hexagon,1,1,,,,,,,,,,,,,,,,repeat,number,numRpt,j,0.0007,Lo,,,,,,4,,,,,,,,high,9,0,9,0,1,,,,,,,,,
