participant,date,expName,psychopyVersion,OS,frameRate,browser,xResolution,yResolution,key_resp.keys,key_resp.rt,training_resp.keys,training_resp.rt,points_trial,points_cumul,trainBlock,training.thisRepN,training.thisTrialN,training.thisN,training.thisIndex,training.ran,LTriangleOpac,LCircleOpac,LHexagonOpac,LStarOpac,RTriangleOpac,RCircleOpac,RHexagonOpac,RStarOpac,LShape_ID,RShape_ID,curr_topStim,curr_bottStim,curr_shape,acc,E1,target_resp_prac1.keys,target_resp_prac1.rt,pracBlock,task1_prac_trials.thisRepN,task1_prac_trials.thisTrialN,task1_prac_trials.thisN,task1_prac_trials.thisIndex,task1_prac_trials.ran,target_resp_prac2.keys,target_resp_prac2.rt,task2_praac_trials.thisRepN,task2_praac_trials.thisTrialN,task2_praac_trials.thisN,task2_praac_trials.thisIndex,task2_praac_trials.ran,alt,task,condition,target_resp.keys,target_resp.rt,rewCond,vts_practice_trials.thisRepN,vts_practice_trials.thisTrialN,vts_practice_trials.thisN,vts_practice_trials.thisIndex,vts_practice_trials.ran,blockNum,trials_norew.thisRepN,trials_norew.thisTrialN,trials_norew.thisN,trials_norew.thisIndex,trials_norew.ran,key_resp_2.keys,key_resp_2.rt,rewExpectancy,trials_rew.thisRepN,trials_rew.thisTrialN,trials_rew.thisN,trials_rew.thisIndex,trials_rew.ran,Q1,Q2,Q2_text,Q3,Q4,Q5_text,Q5,xRes,yRes
294520,2022-12-06_13h55.55.745,vts_reward_expectancy_bt,2022.2.4,MacIntel,60.0024001,Chrome,1440,900,,,,,,,,,,,,,,,,,,,,,,,,,,,,,,,,,,,,,,,,,,,,,,,,,,,,,,,,,,,,,,,,,,,,,,,,,,,,
294520,2022-12-06_13h55.55.745,vts_reward_expectancy_bt,2022.2.4,MacIntel,60.0024001,Chrome,1440,900,space,7.8445,,,,,,,,,,,,,,,,,,,,,,,,,,,,,,,,,,,,,,,,,,,,,,,,,,,,,,,,,,,,,,,,,,,,,,,,,,
294520,2022-12-06_13h55.55.745,vts_reward_expectancy_bt,2022.2.4,MacIntel,60.0024001,Chrome,1440,900,,,,,,,,,,,,,,,,,,,,,,,,,,,,,,,,,,,,,,,,,,,,,,,,,,,,,,,,,,,,,,,,,,,,,,,,,,,,
294520,2022-12-06_13h55.55.745,vts_reward_expectancy_bt,2022.2.4,MacIntel,60.0024001,Chrome,1440,900,,,a,1.2241,0,0,0,0,0,0,10,1,0,0,0,1,0,1,0,0,star ,circle,,,,,,,,,,,,,,,,,,,,,,,,,,,,,,,,,,,,,,,,,,,,,,,,,,,,,,
294520,2022-12-06_13h55.55.745,vts_reward_expectancy_bt,2022.2.4,MacIntel,60.0024001,Chrome,1440,900,,,a,0.9156,1,1,0,0,1,1,4,1,0,1,0,0,0,0,1,0,circle,hexagon,,,,,,,,,,,,,,,,,,,,,,,,,,,,,,,,,,,,,,,,,,,,,,,,,,,,,,
294520,2022-12-06_13h55.55.745,vts_reward_expectancy_bt,2022.2.4,MacIntel,60.0024001,Chrome,1440,900,,,a,0.7837,10,11,0,0,2,2,7,1,0,0,1,0,0,1,0,0,hexagon,circle,,,,,,,,,,,,,,,,,,,,,,,,,,,,,,,,,,,,,,,,,,,,,,,,,,,,,,
294520,2022-12-06_13h55.55.745,vts_reward_expectancy_bt,2022.2.4,MacIntel,60.0024001,Chrome,1440,900,,,a,1.0177,1,12,0,0,3,3,3,1,0,1,0,0,1,0,0,0,circle,triangle,,,,,,,,,,,,,,,,,,,,,,,,,,,,,,,,,,,,,,,,,,,,,,,,,,,,,,
294520,2022-12-06_13h55.55.745,vts_reward_expectancy_bt,2022.2.4,MacIntel,60.0024001,Chrome,1440,900,,,l,0.4007,1,13,0,0,4,4,1,1,1,0,0,0,0,0,1,0,triangle,hexagon,,,,,,,,,,,,,,,,,,,,,,,,,,,,,,,,,,,,,,,,,,,,,,,,,,,,,,
294520,2022-12-06_13h55.55.745,vts_reward_expectancy_bt,2022.2.4,MacIntel,60.0024001,Chrome,1440,900,,,l,0.314,1,14,0,0,5,5,0,1,1,0,0,0,0,1,0,0,triangle,circle,,,,,,,,,,,,,,,,,,,,,,,,,,,,,,,,,,,,,,,,,,,,,,,,,,,,,,
294520,2022-12-06_13h55.55.745,vts_reward_expectancy_bt,2022.2.4,MacIntel,60.0024001,Chrome,1440,900,,,a,0.4502,10,24,0,0,6,6,6,1,0,0,1,0,1,0,0,0,hexagon,triangle,,,,,,,,,,,,,,,,,,,,,,,,,,,,,,,,,,,,,,,,,,,,,,,,,,,,,,
294520,2022-12-06_13h55.55.745,vts_reward_expectancy_bt,2022.2.4,MacIntel,60.0024001,Chrome,1440,900,,,l,0.8669,1,25,0,0,7,7,11,1,0,0,0,1,0,0,1,0,star,hexagon,,,,,,,,,,,,,,,,,,,,,,,,,,,,,,,,,,,,,,,,,,,,,,,,,,,,,,
294520,2022-12-06_13h55.55.745,vts_reward_expectancy_bt,2022.2.4,MacIntel,60.0024001,Chrome,1440,900,,,l,0.892,10,35,0,0,8,8,2,1,1,0,0,0,0,0,0,1,triangle,star,,,,,,,,,,,,,,,,,,,,,,,,,,,,,,,,,,,,,,,,,,,,,,,,,,,,,,
294520,2022-12-06_13h55.55.745,vts_reward_expectancy_bt,2022.2.4,MacIntel,60.0024001,Chrome,1440,900,,,l,1.8006,1,36,0,0,9,9,9,1,0,0,0,1,1,0,0,0,star,triangle,,,,,,,,,,,,,,,,,,,,,,,,,,,,,,,,,,,,,,,,,,,,,,,,,,,,,,
294520,2022-12-06_13h55.55.745,vts_reward_expectancy_bt,2022.2.4,MacIntel,60.0024001,Chrome,1440,900,,,a,0.7075,1,37,0,0,10,10,5,1,0,1,0,0,0,0,0,1,circle,star,,,,,,,,,,,,,,,,,,,,,,,,,,,,,,,,,,,,,,,,,,,,,,,,,,,,,,
294520,2022-12-06_13h55.55.745,vts_reward_expectancy_bt,2022.2.4,MacIntel,60.0024001,Chrome,1440,900,,,l,0.3149,1,38,0,0,11,11,8,1,0,0,1,0,0,0,0,1,hexagon,star,,,,,,,,,,,,,,,,,,,,,,,,,,,,,,,,,,,,,,,,,,,,,,,,,,,,,,
294520,2022-12-06_13h55.55.745,vts_reward_expectancy_bt,2022.2.4,MacIntel,60.0024001,Chrome,1440,900,,,a,0.6505,10,48,0,1,0,12,2,1,1,0,0,0,0,0,0,1,triangle,star,,,,,,,,,,,,,,,,,,,,,,,,,,,,,,,,,,,,,,,,,,,,,,,,,,,,,,
294520,2022-12-06_13h55.55.745,vts_reward_expectancy_bt,2022.2.4,MacIntel,60.0024001,Chrome,1440,900,,,l,0.9671,10,58,0,1,1,13,3,1,0,1,0,0,1,0,0,0,circle,triangle,,,,,,,,,,,,,,,,,,,,,,,,,,,,,,,,,,,,,,,,,,,,,,,,,,,,,,
294520,2022-12-06_13h55.55.745,vts_reward_expectancy_bt,2022.2.4,MacIntel,60.0024001,Chrome,1440,900,,,l,1.7765,1,59,0,1,2,14,11,1,0,0,0,1,0,0,1,0,star,hexagon,,,,,,,,,,,,,,,,,,,,,,,,,,,,,,,,,,,,,,,,,,,,,,,,,,,,,,
294520,2022-12-06_13h55.55.745,vts_reward_expectancy_bt,2022.2.4,MacIntel,60.0024001,Chrome,1440,900,,,l,1.5675,1,60,0,1,3,15,5,1,0,1,0,0,0,0,0,1,circle,star,,,,,,,,,,,,,,,,,,,,,,,,,,,,,,,,,,,,,,,,,,,,,,,,,,,,,,
294520,2022-12-06_13h55.55.745,vts_reward_expectancy_bt,2022.2.4,MacIntel,60.0024001,Chrome,1440,900,,,a,0.9481,1,61,0,1,4,16,10,1,0,0,0,1,0,1,0,0,star ,circle,,,,,,,,,,,,,,,,,,,,,,,,,,,,,,,,,,,,,,,,,,,,,,,,,,,,,,
294520,2022-12-06_13h55.55.745,vts_reward_expectancy_bt,2022.2.4,MacIntel,60.0024001,Chrome,1440,900,,,a,0.3349,1,62,0,1,5,17,6,1,0,0,1,0,1,0,0,0,hexagon,triangle,,,,,,,,,,,,,,,,,,,,,,,,,,,,,,,,,,,,,,,,,,,,,,,,,,,,,,
294520,2022-12-06_13h55.55.745,vts_reward_expectancy_bt,2022.2.4,MacIntel,60.0024001,Chrome,1440,900,,,a,1.5401,1,63,0,1,6,18,8,1,0,0,1,0,0,0,0,1,hexagon,star,,,,,,,,,,,,,,,,,,,,,,,,,,,,,,,,,,,,,,,,,,,,,,,,,,,,,,
294520,2022-12-06_13h55.55.745,vts_reward_expectancy_bt,2022.2.4,MacIntel,60.0024001,Chrome,1440,900,,,l,0.4847,1,64,0,1,7,19,0,1,1,0,0,0,0,1,0,0,triangle,circle,,,,,,,,,,,,,,,,,,,,,,,,,,,,,,,,,,,,,,,,,,,,,,,,,,,,,,
294520,2022-12-06_13h55.55.745,vts_reward_expectancy_bt,2022.2.4,MacIntel,60.0024001,Chrome,1440,900,,,a,0.2996,10,74,0,1,8,20,1,1,1,0,0,0,0,0,1,0,triangle,hexagon,,,,,,,,,,,,,,,,,,,,,,,,,,,,,,,,,,,,,,,,,,,,,,,,,,,,,,
294520,2022-12-06_13h55.55.745,vts_reward_expectancy_bt,2022.2.4,MacIntel,60.0024001,Chrome,1440,900,,,l,0.6849,1,75,0,1,9,21,4,1,0,1,0,0,0,0,1,0,circle,hexagon,,,,,,,,,,,,,,,,,,,,,,,,,,,,,,,,,,,,,,,,,,,,,,,,,,,,,,
294520,2022-12-06_13h55.55.745,vts_reward_expectancy_bt,2022.2.4,MacIntel,60.0024001,Chrome,1440,900,,,a,0.6904,10,85,0,1,10,22,9,1,0,0,0,1,1,0,0,0,star,triangle,,,,,,,,,,,,,,,,,,,,,,,,,,,,,,,,,,,,,,,,,,,,,,,,,,,,,,
294520,2022-12-06_13h55.55.745,vts_reward_expectancy_bt,2022.2.4,MacIntel,60.0024001,Chrome,1440,900,,,l,0.4839,1,86,0,1,11,23,7,1,0,0,1,0,0,1,0,0,hexagon,circle,,,,,,,,,,,,,,,,,,,,,,,,,,,,,,,,,,,,,,,,,,,,,,,,,,,,,,
294520,2022-12-06_13h55.55.745,vts_reward_expectancy_bt,2022.2.4,MacIntel,60.0024001,Chrome,1440,900,,,a,0.2842,10,96,0,2,0,24,0,1,1,0,0,0,0,1,0,0,triangle,circle,,,,,,,,,,,,,,,,,,,,,,,,,,,,,,,,,,,,,,,,,,,,,,,,,,,,,,
294520,2022-12-06_13h55.55.745,vts_reward_expectancy_bt,2022.2.4,MacIntel,60.0024001,Chrome,1440,900,,,l,0.521,1,97,0,2,1,25,3,1,0,1,0,0,1,0,0,0,circle,triangle,,,,,,,,,,,,,,,,,,,,,,,,,,,,,,,,,,,,,,,,,,,,,,,,,,,,,,
294520,2022-12-06_13h55.55.745,vts_reward_expectancy_bt,2022.2.4,MacIntel,60.0024001,Chrome,1440,900,,,a,0.3256,10,107,0,2,2,26,2,1,1,0,0,0,0,0,0,1,triangle,star,,,,,,,,,,,,,,,,,,,,,,,,,,,,,,,,,,,,,,,,,,,,,,,,,,,,,,
294520,2022-12-06_13h55.55.745,vts_reward_expectancy_bt,2022.2.4,MacIntel,60.0024001,Chrome,1440,900,,,a,0.3406,10,117,0,2,3,27,9,1,0,0,0,1,1,0,0,0,star,triangle,,,,,,,,,,,,,,,,,,,,,,,,,,,,,,,,,,,,,,,,,,,,,,,,,,,,,,
294520,2022-12-06_13h55.55.745,vts_reward_expectancy_bt,2022.2.4,MacIntel,60.0024001,Chrome,1440,900,,,l,0.3553,1,118,0,2,4,28,7,1,0,0,1,0,0,1,0,0,hexagon,circle,,,,,,,,,,,,,,,,,,,,,,,,,,,,,,,,,,,,,,,,,,,,,,,,,,,,,,
294520,2022-12-06_13h55.55.745,vts_reward_expectancy_bt,2022.2.4,MacIntel,60.0024001,Chrome,1440,900,,,l,0.2754,1,119,0,2,5,29,5,1,0,1,0,0,0,0,0,1,circle,star,,,,,,,,,,,,,,,,,,,,,,,,,,,,,,,,,,,,,,,,,,,,,,,,,,,,,,
294520,2022-12-06_13h55.55.745,vts_reward_expectancy_bt,2022.2.4,MacIntel,60.0024001,Chrome,1440,900,,,l,0.407,10,129,0,2,6,30,1,1,1,0,0,0,0,0,1,0,triangle,hexagon,,,,,,,,,,,,,,,,,,,,,,,,,,,,,,,,,,,,,,,,,,,,,,,,,,,,,,
294520,2022-12-06_13h55.55.745,vts_reward_expectancy_bt,2022.2.4,MacIntel,60.0024001,Chrome,1440,900,,,a,0.4185,10,139,0,2,7,31,11,1,0,0,0,1,0,0,1,0,star,hexagon,,,,,,,,,,,,,,,,,,,,,,,,,,,,,,,,,,,,,,,,,,,,,,,,,,,,,,
294520,2022-12-06_13h55.55.745,vts_reward_expectancy_bt,2022.2.4,MacIntel,60.0024001,Chrome,1440,900,,,l,0.3523,10,149,0,2,8,32,8,1,0,0,1,0,0,0,0,1,hexagon,star,,,,,,,,,,,,,,,,,,,,,,,,,,,,,,,,,,,,,,,,,,,,,,,,,,,,,,
294520,2022-12-06_13h55.55.745,vts_reward_expectancy_bt,2022.2.4,MacIntel,60.0024001,Chrome,1440,900,,,a,0.2177,10,159,0,2,9,33,10,1,0,0,0,1,0,1,0,0,star ,circle,,,,,,,,,,,,,,,,,,,,,,,,,,,,,,,,,,,,,,,,,,,,,,,,,,,,,,
294520,2022-12-06_13h55.55.745,vts_reward_expectancy_bt,2022.2.4,MacIntel,60.0024001,Chrome,1440,900,,,l,0.2732,10,169,0,2,10,34,6,1,0,0,1,0,1,0,0,0,hexagon,triangle,,,,,,,,,,,,,,,,,,,,,,,,,,,,,,,,,,,,,,,,,,,,,,,,,,,,,,
294520,2022-12-06_13h55.55.745,vts_reward_expectancy_bt,2022.2.4,MacIntel,60.0024001,Chrome,1440,900,,,l,0.238,10,179,0,2,11,35,4,1,0,1,0,0,0,0,1,0,circle,hexagon,,,,,,,,,,,,,,,,,,,,,,,,,,,,,,,,,,,,,,,,,,,,,,,,,,,,,,
294520,2022-12-06_13h55.55.745,vts_reward_expectancy_bt,2022.2.4,MacIntel,60.0024001,Chrome,1440,900,,,a,0.4671,10,189,1,0,0,0,1,1,1,0,0,0,0,0,1,0,triangle,hexagon,,,,,,,,,,,,,,,,,,,,,,,,,,,,,,,,,,,,,,,,,,,,,,,,,,,,,,
294520,2022-12-06_13h55.55.745,vts_reward_expectancy_bt,2022.2.4,MacIntel,60.0024001,Chrome,1440,900,,,l,0.259,10,199,1,0,1,1,2,1,1,0,0,0,0,0,0,1,triangle,star,,,,,,,,,,,,,,,,,,,,,,,,,,,,,,,,,,,,,,,,,,,,,,,,,,,,,,
294520,2022-12-06_13h55.55.745,vts_reward_expectancy_bt,2022.2.4,MacIntel,60.0024001,Chrome,1440,900,,,a,0.0841,1,200,1,0,2,2,6,1,0,0,1,0,1,0,0,0,hexagon,triangle,,,,,,,,,,,,,,,,,,,,,,,,,,,,,,,,,,,,,,,,,,,,,,,,,,,,,,
294520,2022-12-06_13h55.55.745,vts_reward_expectancy_bt,2022.2.4,MacIntel,60.0024001,Chrome,1440,900,,,l,0.3013,1,201,1,0,3,3,5,1,0,1,0,0,0,0,0,1,circle,star,,,,,,,,,,,,,,,,,,,,,,,,,,,,,,,,,,,,,,,,,,,,,,,,,,,,,,
294520,2022-12-06_13h55.55.745,vts_reward_expectancy_bt,2022.2.4,MacIntel,60.0024001,Chrome,1440,900,,,a,0.4666,10,211,1,0,4,4,3,1,0,1,0,0,1,0,0,0,circle,triangle,,,,,,,,,,,,,,,,,,,,,,,,,,,,,,,,,,,,,,,,,,,,,,,,,,,,,,
294520,2022-12-06_13h55.55.745,vts_reward_expectancy_bt,2022.2.4,MacIntel,60.0024001,Chrome,1440,900,,,a,0.2172,10,221,1,0,5,5,7,1,0,0,1,0,0,1,0,0,hexagon,circle,,,,,,,,,,,,,,,,,,,,,,,,,,,,,,,,,,,,,,,,,,,,,,,,,,,,,,
294520,2022-12-06_13h55.55.745,vts_reward_expectancy_bt,2022.2.4,MacIntel,60.0024001,Chrome,1440,900,,,a,0.2227,1,222,1,0,6,6,9,1,0,0,0,1,1,0,0,0,star,triangle,,,,,,,,,,,,,,,,,,,,,,,,,,,,,,,,,,,,,,,,,,,,,,,,,,,,,,
294520,2022-12-06_13h55.55.745,vts_reward_expectancy_bt,2022.2.4,MacIntel,60.0024001,Chrome,1440,900,,,l,0.301,1,223,1,0,7,7,10,1,0,0,0,1,0,1,0,0,star ,circle,,,,,,,,,,,,,,,,,,,,,,,,,,,,,,,,,,,,,,,,,,,,,,,,,,,,,,
294520,2022-12-06_13h55.55.745,vts_reward_expectancy_bt,2022.2.4,MacIntel,60.0024001,Chrome,1440,900,,,l,0.2359,10,233,1,0,8,8,0,1,1,0,0,0,0,1,0,0,triangle,circle,,,,,,,,,,,,,,,,,,,,,,,,,,,,,,,,,,,,,,,,,,,,,,,,,,,,,,
294520,2022-12-06_13h55.55.745,vts_reward_expectancy_bt,2022.2.4,MacIntel,60.0024001,Chrome,1440,900,,,a,0.2843,1,234,1,0,9,9,8,1,0,0,1,0,0,0,0,1,hexagon,star,,,,,,,,,,,,,,,,,,,,,,,,,,,,,,,,,,,,,,,,,,,,,,,,,,,,,,
294520,2022-12-06_13h55.55.745,vts_reward_expectancy_bt,2022.2.4,MacIntel,60.0024001,Chrome,1440,900,,,a,0.225,10,244,1,0,10,10,11,1,0,0,0,1,0,0,1,0,star,hexagon,,,,,,,,,,,,,,,,,,,,,,,,,,,,,,,,,,,,,,,,,,,,,,,,,,,,,,
294520,2022-12-06_13h55.55.745,vts_reward_expectancy_bt,2022.2.4,MacIntel,60.0024001,Chrome,1440,900,,,l,0.2506,1,245,1,0,11,11,4,1,0,1,0,0,0,0,1,0,circle,hexagon,,,,,,,,,,,,,,,,,,,,,,,,,,,,,,,,,,,,,,,,,,,,,,,,,,,,,,
294520,2022-12-06_13h55.55.745,vts_reward_expectancy_bt,2022.2.4,MacIntel,60.0024001,Chrome,1440,900,,,a,0.2502,10,255,1,1,0,12,4,1,0,1,0,0,0,0,1,0,circle,hexagon,,,,,,,,,,,,,,,,,,,,,,,,,,,,,,,,,,,,,,,,,,,,,,,,,,,,,,
294520,2022-12-06_13h55.55.745,vts_reward_expectancy_bt,2022.2.4,MacIntel,60.0024001,Chrome,1440,900,,,a,0.4665,10,265,1,1,1,13,0,1,1,0,0,0,0,1,0,0,triangle,circle,,,,,,,,,,,,,,,,,,,,,,,,,,,,,,,,,,,,,,,,,,,,,,,,,,,,,,
294520,2022-12-06_13h55.55.745,vts_reward_expectancy_bt,2022.2.4,MacIntel,60.0024001,Chrome,1440,900,,,l,0.1675,10,275,1,1,2,14,9,1,0,0,0,1,1,0,0,0,star,triangle,,,,,,,,,,,,,,,,,,,,,,,,,,,,,,,,,,,,,,,,,,,,,,,,,,,,,,
294520,2022-12-06_13h55.55.745,vts_reward_expectancy_bt,2022.2.4,MacIntel,60.0024001,Chrome,1440,900,,,l,0.2693,10,285,1,1,3,15,2,1,1,0,0,0,0,0,0,1,triangle,star,,,,,,,,,,,,,,,,,,,,,,,,,,,,,,,,,,,,,,,,,,,,,,,,,,,,,,
294520,2022-12-06_13h55.55.745,vts_reward_expectancy_bt,2022.2.4,MacIntel,60.0024001,Chrome,1440,900,,,a,0.1846,10,295,1,1,4,16,10,1,0,0,0,1,0,1,0,0,star ,circle,,,,,,,,,,,,,,,,,,,,,,,,,,,,,,,,,,,,,,,,,,,,,,,,,,,,,,
294520,2022-12-06_13h55.55.745,vts_reward_expectancy_bt,2022.2.4,MacIntel,60.0024001,Chrome,1440,900,,,l,0.3061,1,296,1,1,5,17,3,1,0,1,0,0,1,0,0,0,circle,triangle,,,,,,,,,,,,,,,,,,,,,,,,,,,,,,,,,,,,,,,,,,,,,,,,,,,,,,
294520,2022-12-06_13h55.55.745,vts_reward_expectancy_bt,2022.2.4,MacIntel,60.0024001,Chrome,1440,900,,,l,0.3176,10,306,1,1,6,18,5,1,0,1,0,0,0,0,0,1,circle,star,,,,,,,,,,,,,,,,,,,,,,,,,,,,,,,,,,,,,,,,,,,,,,,,,,,,,,
294520,2022-12-06_13h55.55.745,vts_reward_expectancy_bt,2022.2.4,MacIntel,60.0024001,Chrome,1440,900,,,l,0.4237,10,316,1,1,7,19,1,1,1,0,0,0,0,0,1,0,triangle,hexagon,,,,,,,,,,,,,,,,,,,,,,,,,,,,,,,,,,,,,,,,,,,,,,,,,,,,,,
294520,2022-12-06_13h55.55.745,vts_reward_expectancy_bt,2022.2.4,MacIntel,60.0024001,Chrome,1440,900,,,a,0.2349,1,317,1,1,8,20,7,1,0,0,1,0,0,1,0,0,hexagon,circle,,,,,,,,,,,,,,,,,,,,,,,,,,,,,,,,,,,,,,,,,,,,,,,,,,,,,,
294520,2022-12-06_13h55.55.745,vts_reward_expectancy_bt,2022.2.4,MacIntel,60.0024001,Chrome,1440,900,,,a,0.2339,1,318,1,1,9,21,8,1,0,0,1,0,0,0,0,1,hexagon,star,,,,,,,,,,,,,,,,,,,,,,,,,,,,,,,,,,,,,,,,,,,,,,,,,,,,,,
294520,2022-12-06_13h55.55.745,vts_reward_expectancy_bt,2022.2.4,MacIntel,60.0024001,Chrome,1440,900,,,a,0.233,1,319,1,1,10,22,11,1,0,0,0,1,0,0,1,0,star,hexagon,,,,,,,,,,,,,,,,,,,,,,,,,,,,,,,,,,,,,,,,,,,,,,,,,,,,,,
294520,2022-12-06_13h55.55.745,vts_reward_expectancy_bt,2022.2.4,MacIntel,60.0024001,Chrome,1440,900,,,a,0.2673,1,320,1,1,11,23,6,1,0,0,1,0,1,0,0,0,hexagon,triangle,,,,,,,,,,,,,,,,,,,,,,,,,,,,,,,,,,,,,,,,,,,,,,,,,,,,,,
294520,2022-12-06_13h55.55.745,vts_reward_expectancy_bt,2022.2.4,MacIntel,60.0024001,Chrome,1440,900,,,l,0.4695,1,321,1,2,0,24,1,1,1,0,0,0,0,0,1,0,triangle,hexagon,,,,,,,,,,,,,,,,,,,,,,,,,,,,,,,,,,,,,,,,,,,,,,,,,,,,,,
294520,2022-12-06_13h55.55.745,vts_reward_expectancy_bt,2022.2.4,MacIntel,60.0024001,Chrome,1440,900,,,l,0.301,10,331,1,2,1,25,4,1,0,1,0,0,0,0,1,0,circle,hexagon,,,,,,,,,,,,,,,,,,,,,,,,,,,,,,,,,,,,,,,,,,,,,,,,,,,,,,
294520,2022-12-06_13h55.55.745,vts_reward_expectancy_bt,2022.2.4,MacIntel,60.0024001,Chrome,1440,900,,,l,0.2233,10,341,1,2,2,26,11,1,0,0,0,1,0,0,1,0,star,hexagon,,,,,,,,,,,,,,,,,,,,,,,,,,,,,,,,,,,,,,,,,,,,,,,,,,,,,,
294520,2022-12-06_13h55.55.745,vts_reward_expectancy_bt,2022.2.4,MacIntel,60.0024001,Chrome,1440,900,,,l,0.2513,10,351,1,2,3,27,7,1,0,0,1,0,0,1,0,0,hexagon,circle,,,,,,,,,,,,,,,,,,,,,,,,,,,,,,,,,,,,,,,,,,,,,,,,,,,,,,
294520,2022-12-06_13h55.55.745,vts_reward_expectancy_bt,2022.2.4,MacIntel,60.0024001,Chrome,1440,900,,,l,0.3003,1,352,1,2,4,28,0,1,1,0,0,0,0,1,0,0,triangle,circle,,,,,,,,,,,,,,,,,,,,,,,,,,,,,,,,,,,,,,,,,,,,,,,,,,,,,,
294520,2022-12-06_13h55.55.745,vts_reward_expectancy_bt,2022.2.4,MacIntel,60.0024001,Chrome,1440,900,,,a,0.3335,1,353,1,2,5,29,3,1,0,1,0,0,1,0,0,0,circle,triangle,,,,,,,,,,,,,,,,,,,,,,,,,,,,,,,,,,,,,,,,,,,,,,,,,,,,,,
294520,2022-12-06_13h55.55.745,vts_reward_expectancy_bt,2022.2.4,MacIntel,60.0024001,Chrome,1440,900,,,l,0.2514,1,354,1,2,6,30,10,1,0,0,0,1,0,1,0,0,star ,circle,,,,,,,,,,,,,,,,,,,,,,,,,,,,,,,,,,,,,,,,,,,,,,,,,,,,,,
294520,2022-12-06_13h55.55.745,vts_reward_expectancy_bt,2022.2.4,MacIntel,60.0024001,Chrome,1440,900,,,l,0.2508,1,355,1,2,7,31,5,1,0,1,0,0,0,0,0,1,circle,star,,,,,,,,,,,,,,,,,,,,,,,,,,,,,,,,,,,,,,,,,,,,,,,,,,,,,,
294520,2022-12-06_13h55.55.745,vts_reward_expectancy_bt,2022.2.4,MacIntel,60.0024001,Chrome,1440,900,,,l,0.2839,10,365,1,2,8,32,8,1,0,0,1,0,0,0,0,1,hexagon,star,,,,,,,,,,,,,,,,,,,,,,,,,,,,,,,,,,,,,,,,,,,,,,,,,,,,,,
294520,2022-12-06_13h55.55.745,vts_reward_expectancy_bt,2022.2.4,MacIntel,60.0024001,Chrome,1440,900,,,l,0.3403,1,366,1,2,9,33,9,1,0,0,0,1,1,0,0,0,star,triangle,,,,,,,,,,,,,,,,,,,,,,,,,,,,,,,,,,,,,,,,,,,,,,,,,,,,,,
294520,2022-12-06_13h55.55.745,vts_reward_expectancy_bt,2022.2.4,MacIntel,60.0024001,Chrome,1440,900,,,l,0.3507,1,367,1,2,10,34,2,1,1,0,0,0,0,0,0,1,triangle,star,,,,,,,,,,,,,,,,,,,,,,,,,,,,,,,,,,,,,,,,,,,,,,,,,,,,,,
294520,2022-12-06_13h55.55.745,vts_reward_expectancy_bt,2022.2.4,MacIntel,60.0024001,Chrome,1440,900,,,a,0.2754,10,377,1,2,11,35,6,1,0,0,1,0,1,0,0,0,hexagon,triangle,,,,,,,,,,,,,,,,,,,,,,,,,,,,,,,,,,,,,,,,,,,,,,,,,,,,,,
294520,2022-12-06_13h55.55.745,vts_reward_expectancy_bt,2022.2.4,MacIntel,60.0024001,Chrome,1440,900,,,a,0.767,1,378,2,0,0,0,6,1,0,0,1,0,1,0,0,0,hexagon,triangle,,,,,,,,,,,,,,,,,,,,,,,,,,,,,,,,,,,,,,,,,,,,,,,,,,,,,,
294520,2022-12-06_13h55.55.745,vts_reward_expectancy_bt,2022.2.4,MacIntel,60.0024001,Chrome,1440,900,,,l,0.2837,1,379,2,0,1,1,11,1,0,0,0,1,0,0,1,0,star,hexagon,,,,,,,,,,,,,,,,,,,,,,,,,,,,,,,,,,,,,,,,,,,,,,,,,,,,,,
294520,2022-12-06_13h55.55.745,vts_reward_expectancy_bt,2022.2.4,MacIntel,60.0024001,Chrome,1440,900,,,a,0.2505,1,380,2,0,2,2,3,1,0,1,0,0,1,0,0,0,circle,triangle,,,,,,,,,,,,,,,,,,,,,,,,,,,,,,,,,,,,,,,,,,,,,,,,,,,,,,
294520,2022-12-06_13h55.55.745,vts_reward_expectancy_bt,2022.2.4,MacIntel,60.0024001,Chrome,1440,900,,,a,0.3002,10,390,2,0,3,3,0,1,1,0,0,0,0,1,0,0,triangle,circle,,,,,,,,,,,,,,,,,,,,,,,,,,,,,,,,,,,,,,,,,,,,,,,,,,,,,,
294520,2022-12-06_13h55.55.745,vts_reward_expectancy_bt,2022.2.4,MacIntel,60.0024001,Chrome,1440,900,,,l,0.2504,1,391,2,0,4,4,10,1,0,0,0,1,0,1,0,0,star ,circle,,,,,,,,,,,,,,,,,,,,,,,,,,,,,,,,,,,,,,,,,,,,,,,,,,,,,,
294520,2022-12-06_13h55.55.745,vts_reward_expectancy_bt,2022.2.4,MacIntel,60.0024001,Chrome,1440,900,,,a,0.8897,1,392,2,0,5,5,5,1,0,1,0,0,0,0,0,1,circle,star,,,,,,,,,,,,,,,,,,,,,,,,,,,,,,,,,,,,,,,,,,,,,,,,,,,,,,
294520,2022-12-06_13h55.55.745,vts_reward_expectancy_bt,2022.2.4,MacIntel,60.0024001,Chrome,1440,900,,,a,0.3575,10,402,2,0,6,6,2,1,1,0,0,0,0,0,0,1,triangle,star,,,,,,,,,,,,,,,,,,,,,,,,,,,,,,,,,,,,,,,,,,,,,,,,,,,,,,
294520,2022-12-06_13h55.55.745,vts_reward_expectancy_bt,2022.2.4,MacIntel,60.0024001,Chrome,1440,900,,,a,0.9006,10,412,2,0,7,7,7,1,0,0,1,0,0,1,0,0,hexagon,circle,,,,,,,,,,,,,,,,,,,,,,,,,,,,,,,,,,,,,,,,,,,,,,,,,,,,,,
294520,2022-12-06_13h55.55.745,vts_reward_expectancy_bt,2022.2.4,MacIntel,60.0024001,Chrome,1440,900,,,l,0.4238,1,413,2,0,8,8,9,1,0,0,0,1,1,0,0,0,star,triangle,,,,,,,,,,,,,,,,,,,,,,,,,,,,,,,,,,,,,,,,,,,,,,,,,,,,,,
294520,2022-12-06_13h55.55.745,vts_reward_expectancy_bt,2022.2.4,MacIntel,60.0024001,Chrome,1440,900,,,l,0.3679,10,423,2,0,9,9,1,1,1,0,0,0,0,0,1,0,triangle,hexagon,,,,,,,,,,,,,,,,,,,,,,,,,,,,,,,,,,,,,,,,,,,,,,,,,,,,,,
294520,2022-12-06_13h55.55.745,vts_reward_expectancy_bt,2022.2.4,MacIntel,60.0024001,Chrome,1440,900,,,a,0.9338,1,424,2,0,10,10,4,1,0,1,0,0,0,0,1,0,circle,hexagon,,,,,,,,,,,,,,,,,,,,,,,,,,,,,,,,,,,,,,,,,,,,,,,,,,,,,,
294520,2022-12-06_13h55.55.745,vts_reward_expectancy_bt,2022.2.4,MacIntel,60.0024001,Chrome,1440,900,,,l,0.5385,1,425,2,0,11,11,8,1,0,0,1,0,0,0,0,1,hexagon,star,,,,,,,,,,,,,,,,,,,,,,,,,,,,,,,,,,,,,,,,,,,,,,,,,,,,,,
294520,2022-12-06_13h55.55.745,vts_reward_expectancy_bt,2022.2.4,MacIntel,60.0024001,Chrome,1440,900,,,a,0.859,1,426,2,1,0,12,2,1,1,0,0,0,0,0,0,1,triangle,star,,,,,,,,,,,,,,,,,,,,,,,,,,,,,,,,,,,,,,,,,,,,,,,,,,,,,,
294520,2022-12-06_13h55.55.745,vts_reward_expectancy_bt,2022.2.4,MacIntel,60.0024001,Chrome,1440,900,,,l,0.2506,10,436,2,1,1,13,5,1,0,1,0,0,0,0,0,1,circle,star,,,,,,,,,,,,,,,,,,,,,,,,,,,,,,,,,,,,,,,,,,,,,,,,,,,,,,
294520,2022-12-06_13h55.55.745,vts_reward_expectancy_bt,2022.2.4,MacIntel,60.0024001,Chrome,1440,900,,,a,0.2506,1,437,2,1,2,14,6,1,0,0,1,0,1,0,0,0,hexagon,triangle,,,,,,,,,,,,,,,,,,,,,,,,,,,,,,,,,,,,,,,,,,,,,,,,,,,,,,
294520,2022-12-06_13h55.55.745,vts_reward_expectancy_bt,2022.2.4,MacIntel,60.0024001,Chrome,1440,900,,,a,0.7835,1,438,2,1,3,15,9,1,0,0,0,1,1,0,0,0,star,triangle,,,,,,,,,,,,,,,,,,,,,,,,,,,,,,,,,,,,,,,,,,,,,,,,,,,,,,
294520,2022-12-06_13h55.55.745,vts_reward_expectancy_bt,2022.2.4,MacIntel,60.0024001,Chrome,1440,900,,,l,0.4271,1,439,2,1,4,16,1,1,1,0,0,0,0,0,1,0,triangle,hexagon,,,,,,,,,,,,,,,,,,,,,,,,,,,,,,,,,,,,,,,,,,,,,,,,,,,,,,
294520,2022-12-06_13h55.55.745,vts_reward_expectancy_bt,2022.2.4,MacIntel,60.0024001,Chrome,1440,900,,,a,0.3007,10,449,2,1,5,17,0,1,1,0,0,0,0,1,0,0,triangle,circle,,,,,,,,,,,,,,,,,,,,,,,,,,,,,,,,,,,,,,,,,,,,,,,,,,,,,,
294520,2022-12-06_13h55.55.745,vts_reward_expectancy_bt,2022.2.4,MacIntel,60.0024001,Chrome,1440,900,,,l,0.2903,1,450,2,1,6,18,10,1,0,0,0,1,0,1,0,0,star ,circle,,,,,,,,,,,,,,,,,,,,,,,,,,,,,,,,,,,,,,,,,,,,,,,,,,,,,,
294520,2022-12-06_13h55.55.745,vts_reward_expectancy_bt,2022.2.4,MacIntel,60.0024001,Chrome,1440,900,,,l,0.3174,10,460,2,1,7,19,8,1,0,0,1,0,0,0,0,1,hexagon,star,,,,,,,,,,,,,,,,,,,,,,,,,,,,,,,,,,,,,,,,,,,,,,,,,,,,,,
294520,2022-12-06_13h55.55.745,vts_reward_expectancy_bt,2022.2.4,MacIntel,60.0024001,Chrome,1440,900,,,a,0.3693,1,461,2,1,8,20,4,1,0,1,0,0,0,0,1,0,circle,hexagon,,,,,,,,,,,,,,,,,,,,,,,,,,,,,,,,,,,,,,,,,,,,,,,,,,,,,,
294520,2022-12-06_13h55.55.745,vts_reward_expectancy_bt,2022.2.4,MacIntel,60.0024001,Chrome,1440,900,,,l,0.3392,1,462,2,1,9,21,3,1,0,1,0,0,1,0,0,0,circle,triangle,,,,,,,,,,,,,,,,,,,,,,,,,,,,,,,,,,,,,,,,,,,,,,,,,,,,,,
294520,2022-12-06_13h55.55.745,vts_reward_expectancy_bt,2022.2.4,MacIntel,60.0024001,Chrome,1440,900,,,a,0.4071,1,463,2,1,10,22,11,1,0,0,0,1,0,0,1,0,star,hexagon,,,,,,,,,,,,,,,,,,,,,,,,,,,,,,,,,,,,,,,,,,,,,,,,,,,,,,
294520,2022-12-06_13h55.55.745,vts_reward_expectancy_bt,2022.2.4,MacIntel,60.0024001,Chrome,1440,900,,,l,0.4831,10,473,2,1,11,23,7,1,0,0,1,0,0,1,0,0,hexagon,circle,,,,,,,,,,,,,,,,,,,,,,,,,,,,,,,,,,,,,,,,,,,,,,,,,,,,,,
294520,2022-12-06_13h55.55.745,vts_reward_expectancy_bt,2022.2.4,MacIntel,60.0024001,Chrome,1440,900,,,a,0.5504,1,474,2,2,0,24,3,1,0,1,0,0,1,0,0,0,circle,triangle,,,,,,,,,,,,,,,,,,,,,,,,,,,,,,,,,,,,,,,,,,,,,,,,,,,,,,
294520,2022-12-06_13h55.55.745,vts_reward_expectancy_bt,2022.2.4,MacIntel,60.0024001,Chrome,1440,900,,,l,0.2511,10,484,2,2,1,25,0,1,1,0,0,0,0,1,0,0,triangle,circle,,,,,,,,,,,,,,,,,,,,,,,,,,,,,,,,,,,,,,,,,,,,,,,,,,,,,,
294520,2022-12-06_13h55.55.745,vts_reward_expectancy_bt,2022.2.4,MacIntel,60.0024001,Chrome,1440,900,,,a,0.6664,1,485,2,2,2,26,1,1,1,0,0,0,0,0,1,0,triangle,hexagon,,,,,,,,,,,,,,,,,,,,,,,,,,,,,,,,,,,,,,,,,,,,,,,,,,,,,,
294520,2022-12-06_13h55.55.745,vts_reward_expectancy_bt,2022.2.4,MacIntel,60.0024001,Chrome,1440,900,,,l,0.3336,10,495,2,2,3,27,8,1,0,0,1,0,0,0,0,1,hexagon,star,,,,,,,,,,,,,,,,,,,,,,,,,,,,,,,,,,,,,,,,,,,,,,,,,,,,,,
294520,2022-12-06_13h55.55.745,vts_reward_expectancy_bt,2022.2.4,MacIntel,60.0024001,Chrome,1440,900,,,l,0.3077,10,505,2,2,4,28,9,1,0,0,0,1,1,0,0,0,star,triangle,,,,,,,,,,,,,,,,,,,,,,,,,,,,,,,,,,,,,,,,,,,,,,,,,,,,,,
294520,2022-12-06_13h55.55.745,vts_reward_expectancy_bt,2022.2.4,MacIntel,60.0024001,Chrome,1440,900,,,a,0.4397,10,515,2,2,5,29,4,1,0,1,0,0,0,0,1,0,circle,hexagon,,,,,,,,,,,,,,,,,,,,,,,,,,,,,,,,,,,,,,,,,,,,,,,,,,,,,,
294520,2022-12-06_13h55.55.745,vts_reward_expectancy_bt,2022.2.4,MacIntel,60.0024001,Chrome,1440,900,,,l,0.5119,1,516,2,2,6,30,6,1,0,0,1,0,1,0,0,0,hexagon,triangle,,,,,,,,,,,,,,,,,,,,,,,,,,,,,,,,,,,,,,,,,,,,,,,,,,,,,,
294520,2022-12-06_13h55.55.745,vts_reward_expectancy_bt,2022.2.4,MacIntel,60.0024001,Chrome,1440,900,,,a,0.3,1,517,2,2,7,31,10,1,0,0,0,1,0,1,0,0,star ,circle,,,,,,,,,,,,,,,,,,,,,,,,,,,,,,,,,,,,,,,,,,,,,,,,,,,,,,
294520,2022-12-06_13h55.55.745,vts_reward_expectancy_bt,2022.2.4,MacIntel,60.0024001,Chrome,1440,900,,,l,0.7674,1,518,2,2,8,32,11,1,0,0,0,1,0,0,1,0,star,hexagon,,,,,,,,,,,,,,,,,,,,,,,,,,,,,,,,,,,,,,,,,,,,,,,,,,,,,,
294520,2022-12-06_13h55.55.745,vts_reward_expectancy_bt,2022.2.4,MacIntel,60.0024001,Chrome,1440,900,,,l,0.5342,1,519,2,2,9,33,5,1,0,1,0,0,0,0,0,1,circle,star,,,,,,,,,,,,,,,,,,,,,,,,,,,,,,,,,,,,,,,,,,,,,,,,,,,,,,
294520,2022-12-06_13h55.55.745,vts_reward_expectancy_bt,2022.2.4,MacIntel,60.0024001,Chrome,1440,900,,,a,0.801,1,520,2,2,10,34,7,1,0,0,1,0,0,1,0,0,hexagon,circle,,,,,,,,,,,,,,,,,,,,,,,,,,,,,,,,,,,,,,,,,,,,,,,,,,,,,,
294520,2022-12-06_13h55.55.745,vts_reward_expectancy_bt,2022.2.4,MacIntel,60.0024001,Chrome,1440,900,,,l,0.6173,1,521,2,2,11,35,2,1,1,0,0,0,0,0,0,1,triangle,star,,,,,,,,,,,,,,,,,,,,,,,,,,,,,,,,,,,,,,,,,,,,,,,,,,,,,,
294520,2022-12-06_13h55.55.745,vts_reward_expectancy_bt,2022.2.4,MacIntel,60.0024001,Chrome,1440,900,,,,,,,,,,,,,,,,,,,,,,,174,W,hexagon,1,0,f,1.3161,0,0,0,0,0,1,,,,,,,,,,,,,,,,,,,,,,,,,,,,,,,,,,,,,,,,,
294520,2022-12-06_13h55.55.745,vts_reward_expectancy_bt,2022.2.4,MacIntel,60.0024001,Chrome,1440,900,,,,,,,,,,,,,,,,,,,,,,,181,U,triangle,1,0,f,0.5821,0,1,0,1,0,1,,,,,,,,,,,,,,,,,,,,,,,,,,,,,,,,,,,,,,,,,
294520,2022-12-06_13h55.55.745,vts_reward_expectancy_bt,2022.2.4,MacIntel,60.0024001,Chrome,1440,900,,,,,,,,,,,,,,,,,,,,,,,125,F,circle,1,0,d,0.6145,0,2,0,2,0,1,,,,,,,,,,,,,,,,,,,,,,,,,,,,,,,,,,,,,,,,,
294520,2022-12-06_13h55.55.745,vts_reward_expectancy_bt,2022.2.4,MacIntel,60.0024001,Chrome,1440,900,,,,,,,,,,,,,,,,,,,,,,,146,Y,star,1,0,d,0.7542,0,3,0,3,0,1,,,,,,,,,,,,,,,,,,,,,,,,,,,,,,,,,,,,,,,,,
294520,2022-12-06_13h55.55.745,vts_reward_expectancy_bt,2022.2.4,MacIntel,60.0024001,Chrome,1440,900,,,,,,,,,,,,,,,,,,,,,,,132,H,hexagon,1,0,d,0.6036,0,4,0,4,0,1,,,,,,,,,,,,,,,,,,,,,,,,,,,,,,,,,,,,,,,,,
294520,2022-12-06_13h55.55.745,vts_reward_expectancy_bt,2022.2.4,MacIntel,60.0024001,Chrome,1440,900,,,,,,,,,,,,,,,,,,,,,,,167,S,triangle,1,0,f,0.4798,0,5,0,5,0,1,,,,,,,,,,,,,,,,,,,,,,,,,,,,,,,,,,,,,,,,,
294520,2022-12-06_13h55.55.745,vts_reward_expectancy_bt,2022.2.4,MacIntel,60.0024001,Chrome,1440,900,,,,,,,,,,,,,,,,,,,,,,,139,D,circle,1,0,d,0.588,0,6,0,6,0,1,,,,,,,,,,,,,,,,,,,,,,,,,,,,,,,,,,,,,,,,,
294520,2022-12-06_13h55.55.745,vts_reward_expectancy_bt,2022.2.4,MacIntel,60.0024001,Chrome,1440,900,,,,,,,,,,,,,,,,,,,,,,,160,B,star,1,0,f,1.3529,0,7,0,7,0,1,,,,,,,,,,,,,,,,,,,,,,,,,,,,,,,,,,,,,,,,,
294520,2022-12-06_13h55.55.745,vts_reward_expectancy_bt,2022.2.4,MacIntel,60.0024001,Chrome,1440,900,,,,,,,,,,,,,,,,,,,,,,,174,W,star,1,0,f,0.6318,0,8,0,8,0,1,,,,,,,,,,,,,,,,,,,,,,,,,,,,,,,,,,,,,,,,,
294520,2022-12-06_13h55.55.745,vts_reward_expectancy_bt,2022.2.4,MacIntel,60.0024001,Chrome,1440,900,,,,,,,,,,,,,,,,,,,,,,,181,U,triangle,1,0,f,0.5324,0,9,0,9,0,1,,,,,,,,,,,,,,,,,,,,,,,,,,,,,,,,,,,,,,,,,
294520,2022-12-06_13h55.55.745,vts_reward_expectancy_bt,2022.2.4,MacIntel,60.0024001,Chrome,1440,900,,,,,,,,,,,,,,,,,,,,,,,125,W,star,1,0,,,1,,,,,,k,1.3714,0,0,0,0,1,,,,,,,,,,,,,,,,,,,,,,,,,,,,,,,,,,
294520,2022-12-06_13h55.55.745,vts_reward_expectancy_bt,2022.2.4,MacIntel,60.0024001,Chrome,1440,900,,,,,,,,,,,,,,,,,,,,,,,167,S,triangle,1,0,,,1,,,,,,k,0.8991,1,0,1,0,1,,,,,,,,,,,,,,,,,,,,,,,,,,,,,,,,,,
294520,2022-12-06_13h55.55.745,vts_reward_expectancy_bt,2022.2.4,MacIntel,60.0024001,Chrome,1440,900,,,,,,,,,,,,,,,,,,,,,,,146,Y,hexagon,1,0,,,1,,,,,,k,0.6986,2,0,2,0,1,,,,,,,,,,,,,,,,,,,,,,,,,,,,,,,,,,
294520,2022-12-06_13h55.55.745,vts_reward_expectancy_bt,2022.2.4,MacIntel,60.0024001,Chrome,1440,900,,,,,,,,,,,,,,,,,,,,,,,160,H,circle,1,0,,,1,,,,,,j,1.0155,3,0,3,0,1,,,,,,,,,,,,,,,,,,,,,,,,,,,,,,,,,,
294520,2022-12-06_13h55.55.745,vts_reward_expectancy_bt,2022.2.4,MacIntel,60.0024001,Chrome,1440,900,,,,,,,,,,,,,,,,,,,,,,,174,B,star,1,0,,,1,,,,,,j,0.6563,4,0,4,0,1,,,,,,,,,,,,,,,,,,,,,,,,,,,,,,,,,,
294520,2022-12-06_13h55.55.745,vts_reward_expectancy_bt,2022.2.4,MacIntel,60.0024001,Chrome,1440,900,,,,,,,,,,,,,,,,,,,,,,,181,F,triangle,1,0,,,1,,,,,,j,0.6364,5,0,5,0,1,,,,,,,,,,,,,,,,,,,,,,,,,,,,,,,,,,
294520,2022-12-06_13h55.55.745,vts_reward_expectancy_bt,2022.2.4,MacIntel,60.0024001,Chrome,1440,900,,,,,,,,,,,,,,,,,,,,,,,132,D,hexagon,1,0,,,1,,,,,,j,0.7993,6,0,6,0,1,,,,,,,,,,,,,,,,,,,,,,,,,,,,,,,,,,
294520,2022-12-06_13h55.55.745,vts_reward_expectancy_bt,2022.2.4,MacIntel,60.0024001,Chrome,1440,900,,,,,,,,,,,,,,,,,,,,,,,139,U,circle,1,0,,,1,,,,,,k,0.6044,7,0,7,0,1,,,,,,,,,,,,,,,,,,,,,,,,,,,,,,,,,,
294520,2022-12-06_13h55.55.745,vts_reward_expectancy_bt,2022.2.4,MacIntel,60.0024001,Chrome,1440,900,,,,,,,,,,,,,,,,,,,,,,,125,W,hexagon,1,0,,,1,,,,,,k,0.6973,8,0,8,0,1,,,,,,,,,,,,,,,,,,,,,,,,,,,,,,,,,,
294520,2022-12-06_13h55.55.745,vts_reward_expectancy_bt,2022.2.4,MacIntel,60.0024001,Chrome,1440,900,,,,,,,,,,,,,,,,,,,,,,,167,S,triangle,1,0,,,1,,,,,,k,1.0216,9,0,9,0,1,,,,,,,,,,,,,,,,,,,,,,,,,,,,,,,,,,
294520,2022-12-06_13h55.55.745,vts_reward_expectancy_bt,2022.2.4,MacIntel,60.0024001,Chrome,1440,900,,,,,0,521,,,,,,,,,,,,,,,,,181,U,circle,1,0,,,2,,,,,,,,,,,,,-1,number,NA,f,2.0059,vtsPrac,0,0,0,0,1,,,,,,,,,,,,,,,,,,,,,,,
294520,2022-12-06_13h55.55.745,vts_reward_expectancy_bt,2022.2.4,MacIntel,60.0024001,Chrome,1440,900,,,,,0,521,,,,,,,,,,,,,,,,,139,D,star,1,0,,,2,,,,,,,,,,,,,repeat,number,numRpt,d,0.7469,vtsPrac,1,0,1,0,1,,,,,,,,,,,,,,,,,,,,,,,
294520,2022-12-06_13h55.55.745,vts_reward_expectancy_bt,2022.2.4,MacIntel,60.0024001,Chrome,1440,900,,,,,0,521,,,,,,,,,,,,,,,,,132,F,circle,1,0,,,2,,,,,,,,,,,,,switch,letter,lettSwt,j,0.9055,vtsPrac,2,0,2,0,1,,,,,,,,,,,,,,,,,,,,,,,
294520,2022-12-06_13h55.55.745,vts_reward_expectancy_bt,2022.2.4,MacIntel,60.0024001,Chrome,1440,900,,,,,0,521,,,,,,,,,,,,,,,,,125,W,star,1,0,,,2,,,,,,,,,,,,,repeat,letter,lettRpt,k,1.1824,vtsPrac,3,0,3,0,1,,,,,,,,,,,,,,,,,,,,,,,
294520,2022-12-06_13h55.55.745,vts_reward_expectancy_bt,2022.2.4,MacIntel,60.0024001,Chrome,1440,900,,,,,0,521,,,,,,,,,,,,,,,,,181,U,hexagon,1,0,,,2,,,,,,,,,,,,,switch,number,numSwt,f,0.6125,vtsPrac,4,0,4,0,1,,,,,,,,,,,,,,,,,,,,,,,
294520,2022-12-06_13h55.55.745,vts_reward_expectancy_bt,2022.2.4,MacIntel,60.0024001,Chrome,1440,900,,,,,0,521,,,,,,,,,,,,,,,,,139,D,star,1,0,,,2,,,,,,,,,,,,,repeat,number,numRpt,d,1.4879,vtsPrac,5,0,5,0,1,,,,,,,,,,,,,,,,,,,,,,,
294520,2022-12-06_13h55.55.745,vts_reward_expectancy_bt,2022.2.4,MacIntel,60.0024001,Chrome,1440,900,,,,,0,521,,,,,,,,,,,,,,,,,132,F,circle,1,0,,,2,,,,,,,,,,,,,repeat,number,numRpt,d,0.8319,vtsPrac,6,0,6,0,1,,,,,,,,,,,,,,,,,,,,,,,
294520,2022-12-06_13h55.55.745,vts_reward_expectancy_bt,2022.2.4,MacIntel,60.0024001,Chrome,1440,900,,,,,0,521,,,,,,,,,,,,,,,,,125,W,triangle,1,0,,,2,,,,,,,,,,,,,switch,letter,lettSwt,k,0.73,vtsPrac,7,0,7,0,1,,,,,,,,,,,,,,,,,,,,,,,
294520,2022-12-06_13h55.55.745,vts_reward_expectancy_bt,2022.2.4,MacIntel,60.0024001,Chrome,1440,900,,,,,0,521,,,,,,,,,,,,,,,,,174,S,star,1,0,,,2,,,,,,,,,,,,,repeat,letter,lettRpt,k,1.087,vtsPrac,8,0,8,0,1,,,,,,,,,,,,,,,,,,,,,,,
294520,2022-12-06_13h55.55.745,vts_reward_expectancy_bt,2022.2.4,MacIntel,60.0024001,Chrome,1440,900,,,,,0,521,,,,,,,,,,,,,,,,,160,W,circle,1,0,,,2,,,,,,,,,,,,,repeat,letter,lettRpt,k,0.9013,vtsPrac,9,0,9,0,1,,,,,,,,,,,,,,,,,,,,,,,
294520,2022-12-06_13h55.55.745,vts_reward_expectancy_bt,2022.2.4,MacIntel,60.0024001,Chrome,1440,900,,,,,0,521,,,,,,,,,,,,,,,,,167,U,star,1,0,,,2,,,,,,,,,,,,,switch,number,numSwt,f,0.9327,vtsPrac,10,0,10,0,1,,,,,,,,,,,,,,,,,,,,,,,
294520,2022-12-06_13h55.55.745,vts_reward_expectancy_bt,2022.2.4,MacIntel,60.0024001,Chrome,1440,900,,,,,0,521,,,,,,,,,,,,,,,,,181,D,circle,1,0,,,2,,,,,,,,,,,,,repeat,number,numRpt,f,1.1832,vtsPrac,11,0,11,0,1,,,,,,,,,,,,,,,,,,,,,,,
294520,2022-12-06_13h55.55.745,vts_reward_expectancy_bt,2022.2.4,MacIntel,60.0024001,Chrome,1440,900,,,,,0,521,,,,,,,,,,,,,,,,,146,F,hexagon,1,0,,,2,,,,,,,,,,,,,switch,letter,lettSwt,j,0.9313,vtsPrac,12,0,12,0,1,,,,,,,,,,,,,,,,,,,,,,,
294520,2022-12-06_13h55.55.745,vts_reward_expectancy_bt,2022.2.4,MacIntel,60.0024001,Chrome,1440,900,,,,,0,521,,,,,,,,,,,,,,,,,125,U,triangle,1,0,,,2,,,,,,,,,,,,,repeat,letter,lettRpt,k,1.6509,vtsPrac,13,0,13,0,1,,,,,,,,,,,,,,,,,,,,,,,
294520,2022-12-06_13h55.55.745,vts_reward_expectancy_bt,2022.2.4,MacIntel,60.0024001,Chrome,1440,900,,,,,0,521,,,,,,,,,,,,,,,,,139,H,hexagon,1,0,,,2,,,,,,,,,,,,,switch,number,numSwt,d,1.2823,vtsPrac,14,0,14,0,1,,,,,,,,,,,,,,,,,,,,,,,
294520,2022-12-06_13h55.55.745,vts_reward_expectancy_bt,2022.2.4,MacIntel,60.0024001,Chrome,1440,900,,,,,0,521,,,,,,,,,,,,,,,,,132,Y,triangle,1,0,,,2,,,,,,,,,,,,,repeat,number,numRpt,d,0.8976,vtsPrac,15,0,15,0,1,,,,,,,,,,,,,,,,,,,,,,,
294520,2022-12-06_13h55.55.745,vts_reward_expectancy_bt,2022.2.4,MacIntel,60.0024001,Chrome,1440,900,,,,,0,521,,,,,,,,,,,,,,,,,181,B,star,1,0,,,2,,,,,,,,,,,,,repeat,number,numRpt,f,0.9485,vtsPrac,16,0,16,0,1,,,,,,,,,,,,,,,,,,,,,,,
294520,2022-12-06_13h55.55.745,vts_reward_expectancy_bt,2022.2.4,MacIntel,60.0024001,Chrome,1440,900,,,,,0,521,,,,,,,,,,,,,,,,,146,H,circle,1,0,,,2,,,,,,,,,,,,,switch,letter,lettSwt,j,1.6208,vtsPrac,17,0,17,0,1,,,,,,,,,,,,,,,,,,,,,,,
294520,2022-12-06_13h55.55.745,vts_reward_expectancy_bt,2022.2.4,MacIntel,60.0024001,Chrome,1440,900,,,,,0,521,,,,,,,,,,,,,,,,,174,D,hexagon,1,0,,,2,,,,,,,,,,,,,repeat,letter,lettRpt,j,0.6988,vtsPrac,18,0,18,0,1,,,,,,,,,,,,,,,,,,,,,,,
294520,2022-12-06_13h55.55.745,vts_reward_expectancy_bt,2022.2.4,MacIntel,60.0024001,Chrome,1440,900,,,,,0,521,,,,,,,,,,,,,,,,,139,W,triangle,1,0,,,2,,,,,,,,,,,,,repeat,letter,lettRpt,k,0.7321,vtsPrac,19,0,19,0,1,,,,,,,,,,,,,,,,,,,,,,,
294520,2022-12-06_13h55.55.745,vts_reward_expectancy_bt,2022.2.4,MacIntel,60.0024001,Chrome,1440,900,,,,,0,521,,,,,,,,,,,,,,,,,125,W,circle,1,0,,,2,,,,,,,,,,,,,switch,number,numSwt,d,0.6666,vtsPrac,20,0,20,0,1,,,,,,,,,,,,,,,,,,,,,,,
294520,2022-12-06_13h55.55.745,vts_reward_expectancy_bt,2022.2.4,MacIntel,60.0024001,Chrome,1440,900,,,,,0,521,,,,,,,,,,,,,,,,,139,H,star,1,0,,,2,,,,,,,,,,,,,repeat,number,numRpt,d,0.7858,vtsPrac,21,0,21,0,1,,,,,,,,,,,,,,,,,,,,,,,
294520,2022-12-06_13h55.55.745,vts_reward_expectancy_bt,2022.2.4,MacIntel,60.0024001,Chrome,1440,900,,,,,0,521,,,,,,,,,,,,,,,,,146,D,circle,1,0,,,2,,,,,,,,,,,,,repeat,number,numRpt,d,1.1819,vtsPrac,22,0,22,0,1,,,,,,,,,,,,,,,,,,,,,,,
294520,2022-12-06_13h55.55.745,vts_reward_expectancy_bt,2022.2.4,MacIntel,60.0024001,Chrome,1440,900,,,,,0,521,,,,,,,,,,,,,,,,,132,S,triangle,1,0,,,2,,,,,,,,,,,,,repeat,number,numRpt,d,0.6487,vtsPrac,23,0,23,0,1,,,,,,,,,,,,,,,,,,,,,,,
294520,2022-12-06_13h55.55.745,vts_reward_expectancy_bt,2022.2.4,MacIntel,60.0024001,Chrome,1440,900,,,,,0,521,,,,,,,,,,,,,,,,,181,S,star,1,0,,,2,,,,,,,,,,,,,switch,letter,lettSwt,k,1.0328,vtsPrac,24,0,24,0,1,,,,,,,,,,,,,,,,,,,,,,,
294520,2022-12-06_13h55.55.745,vts_reward_expectancy_bt,2022.2.4,MacIntel,60.0024001,Chrome,1440,900,,,,,0,521,,,,,,,,,,,,,,,,,167,Y,circle,1,0,,,2,,,,,,,,,,,,,repeat,letter,lettRpt,k,0.705,vtsPrac,25,0,25,0,1,,,,,,,,,,,,,,,,,,,,,,,
294520,2022-12-06_13h55.55.745,vts_reward_expectancy_bt,2022.2.4,MacIntel,60.0024001,Chrome,1440,900,,,,,0,521,,,,,,,,,,,,,,,,,139,B,star,1,0,,,2,,,,,,,,,,,,,repeat,letter,lettRpt,j,1.1045,vtsPrac,26,0,26,0,1,,,,,,,,,,,,,,,,,,,,,,,
294520,2022-12-06_13h55.55.745,vts_reward_expectancy_bt,2022.2.4,MacIntel,60.0024001,Chrome,1440,900,,,,,0,521,,,,,,,,,,,,,,,,,125,U,circle,1,0,,,2,,,,,,,,,,,,,repeat,letter,lettRpt,k,1.0981,vtsPrac,27,0,27,0,1,,,,,,,,,,,,,,,,,,,,,,,
294520,2022-12-06_13h55.55.745,vts_reward_expectancy_bt,2022.2.4,MacIntel,60.0024001,Chrome,1440,900,,,,,0,521,,,,,,,,,,,,,,,,,132,U,star,1,0,,,2,,,,,,,,,,,,,switch,number,numSwt,d,0.7684,vtsPrac,28,0,28,0,1,,,,,,,,,,,,,,,,,,,,,,,
294520,2022-12-06_13h55.55.745,vts_reward_expectancy_bt,2022.2.4,MacIntel,60.0024001,Chrome,1440,900,,,,,0,521,,,,,,,,,,,,,,,,,146,W,triangle,1,0,,,2,,,,,,,,,,,,,repeat,number,numRpt,d,1.2675,vtsPrac,29,0,29,0,1,,,,,,,,,,,,,,,,,,,,,,,
294520,2022-12-06_13h55.55.745,vts_reward_expectancy_bt,2022.2.4,MacIntel,60.0024001,Chrome,1440,900,,,,,0,521,,,,,,,,,,,,,,,,,181,B,star,1,0,,,2,,,,,,,,,,,,,switch,letter,lettSwt,j,0.6479,vtsPrac,30,0,30,0,1,,,,,,,,,,,,,,,,,,,,,,,
294520,2022-12-06_13h55.55.745,vts_reward_expectancy_bt,2022.2.4,MacIntel,60.0024001,Chrome,1440,900,,,,,0,521,,,,,,,,,,,,,,,,,167,Y,hexagon,1,0,,,2,,,,,,,,,,,,,repeat,letter,lettRpt,k,1.6048,vtsPrac,31,0,31,0,1,,,,,,,,,,,,,,,,,,,,,,,
294520,2022-12-06_13h55.55.745,vts_reward_expectancy_bt,2022.2.4,MacIntel,60.0024001,Chrome,1440,900,,,,,,,,,,,,,,,,,,,,,,,,,,,,,,,,,,,,,,,,,,,,,,,,,,,,,,,,,,,,,,,,,,,,,,,,,,,,
294520,2022-12-06_13h55.55.745,vts_reward_expectancy_bt,2022.2.4,MacIntel,60.0024001,Chrome,1440,900,,,,,,,,,,,,,,,,,,,,,,,,,,,,,,,,,,,,,,,,,,,,,,,,,,,,,,,,,,,,,,,,,,,,,,,,,,,,
294520,2022-12-06_13h55.55.745,vts_reward_expectancy_bt,2022.2.4,MacIntel,60.0024001,Chrome,1440,900,,,,,0,521,,,,,,,,,,,,,,,,,125,D,circle,1,0,,,,,,,,,,,,,,,,switch,number,numSwt,d,0.6119,noRew,,,,,,0,0,0,0,0,1,,,,,,,,,,,,,,,,,
294520,2022-12-06_13h55.55.745,vts_reward_expectancy_bt,2022.2.4,MacIntel,60.0024001,Chrome,1440,900,,,,,0,521,,,,,,,,,,,,,,,,,160,B,hexagon,1,0,,,,,,,,,,,,,,,,repeat,number,numRpt,f,0.5633,noRew,,,,,,0,1,0,1,0,1,,,,,,,,,,,,,,,,,
294520,2022-12-06_13h55.55.745,vts_reward_expectancy_bt,2022.2.4,MacIntel,60.0024001,Chrome,1440,900,,,,,0,521,,,,,,,,,,,,,,,,,181,Y,circle,1,0,,,,,,,,,,,,,,,,switch,letter,lettSwt,k,1.2463,noRew,,,,,,0,2,0,2,0,1,,,,,,,,,,,,,,,,,
294520,2022-12-06_13h55.55.745,vts_reward_expectancy_bt,2022.2.4,MacIntel,60.0024001,Chrome,1440,900,,,,,0,521,,,,,,,,,,,,,,,,,132,S,hexagon,1,0,,,,,,,,,,,,,,,,repeat,letter,lettRpt,k,1.3446,noRew,,,,,,0,3,0,3,0,1,,,,,,,,,,,,,,,,,
294520,2022-12-06_13h55.55.745,vts_reward_expectancy_bt,2022.2.4,MacIntel,60.0024001,Chrome,1440,900,,,,,0,521,,,,,,,,,,,,,,,,,125,D,triangle,1,0,,,,,,,,,,,,,,,,switch,number,numSwt,d,1.6966,noRew,,,,,,0,4,0,4,0,1,,,,,,,,,,,,,,,,,
294520,2022-12-06_13h55.55.745,vts_reward_expectancy_bt,2022.2.4,MacIntel,60.0024001,Chrome,1440,900,,,,,0,521,,,,,,,,,,,,,,,,,160,B,circle,1,0,,,,,,,,,,,,,,,,repeat,number,numRpt,f,2.1946,noRew,,,,,,0,5,0,5,0,1,,,,,,,,,,,,,,,,,
294520,2022-12-06_13h55.55.745,vts_reward_expectancy_bt,2022.2.4,MacIntel,60.0024001,Chrome,1440,900,,,,,0,521,,,,,,,,,,,,,,,,,181,Y,star,1,0,,,,,,,,,,,,,,,,repeat,number,numRpt,f,0.6477,noRew,,,,,,0,6,0,6,0,1,,,,,,,,,,,,,,,,,
294520,2022-12-06_13h55.55.745,vts_reward_expectancy_bt,2022.2.4,MacIntel,60.0024001,Chrome,1440,900,,,,,0,521,,,,,,,,,,,,,,,,,132,S,hexagon,1,0,,,,,,,,,,,,,,,,repeat,number,numRpt,d,0.8144,noRew,,,,,,0,7,0,7,0,1,,,,,,,,,,,,,,,,,
294520,2022-12-06_13h55.55.745,vts_reward_expectancy_bt,2022.2.4,MacIntel,60.0024001,Chrome,1440,900,,,,,0,521,,,,,,,,,,,,,,,,,167,H,star,1,0,,,,,,,,,,,,,,,,repeat,number,numRpt,f,1.3471,noRew,,,,,,0,8,0,8,0,1,,,,,,,,,,,,,,,,,
294520,2022-12-06_13h55.55.745,vts_reward_expectancy_bt,2022.2.4,MacIntel,60.0024001,Chrome,1440,900,,,,,0,521,,,,,,,,,,,,,,,,,174,W,triangle,1,0,,,,,,,,,,,,,,,,repeat,number,numRpt,f,0.6314,noRew,,,,,,0,9,0,9,0,1,,,,,,,,,,,,,,,,,
294520,2022-12-06_13h55.55.745,vts_reward_expectancy_bt,2022.2.4,MacIntel,60.0024001,Chrome,1440,900,,,,,0,521,,,,,,,,,,,,,,,,,139,Y,triangle,1,0,,,,,,,,,,,,,,,,switch,letter,lettSwt,k,1.33,noRew,,,,,,0,10,0,10,0,1,,,,,,,,,,,,,,,,,
294520,2022-12-06_13h55.55.745,vts_reward_expectancy_bt,2022.2.4,MacIntel,60.0024001,Chrome,1440,900,,,,,0,521,,,,,,,,,,,,,,,,,125,U,hexagon,1,0,,,,,,,,,,,,,,,,repeat,letter,lettRpt,k,0.6622,noRew,,,,,,0,11,0,11,0,1,,,,,,,,,,,,,,,,,
294520,2022-12-06_13h55.55.745,vts_reward_expectancy_bt,2022.2.4,MacIntel,60.0024001,Chrome,1440,900,,,,,0,521,,,,,,,,,,,,,,,,,125,Y,circle,1,0,,,,,,,,,,,,,,,,repeat,letter,lettRpt,k,0.6547,noRew,,,,,,0,12,0,12,0,1,,,,,,,,,,,,,,,,,
294520,2022-12-06_13h55.55.745,vts_reward_expectancy_bt,2022.2.4,MacIntel,60.0024001,Chrome,1440,900,,,,,0,521,,,,,,,,,,,,,,,,,146,U,triangle,1,0,,,,,,,,,,,,,,,,repeat,letter,lettRpt,k,1.1291,noRew,,,,,,0,13,0,13,0,1,,,,,,,,,,,,,,,,,
294520,2022-12-06_13h55.55.745,vts_reward_expectancy_bt,2022.2.4,MacIntel,60.0024001,Chrome,1440,900,,,,,0,521,,,,,,,,,,,,,,,,,167,S,star,1,0,,,,,,,,,,,,,,,,repeat,letter,lettRpt,k,1.3006,noRew,,,,,,0,14,0,14,0,1,,,,,,,,,,,,,,,,,
294520,2022-12-06_13h55.55.745,vts_reward_expectancy_bt,2022.2.4,MacIntel,60.0024001,Chrome,1440,900,,,,,0,521,,,,,,,,,,,,,,,,,174,H,circle,1,0,,,,,,,,,,,,,,,,repeat,letter,lettRpt,j,2.4322,noRew,,,,,,0,15,0,15,0,1,,,,,,,,,,,,,,,,,
294520,2022-12-06_13h55.55.745,vts_reward_expectancy_bt,2022.2.4,MacIntel,60.0024001,Chrome,1440,900,,,,,0,521,,,,,,,,,,,,,,,,,146,Y,triangle,1,0,,,,,,,,,,,,,,,,switch,number,numSwt,d,1.3107,noRew,,,,,,0,16,0,16,0,1,,,,,,,,,,,,,,,,,
294520,2022-12-06_13h55.55.745,vts_reward_expectancy_bt,2022.2.4,MacIntel,60.0024001,Chrome,1440,900,,,,,0,521,,,,,,,,,,,,,,,,,181,D,circle,1,0,,,,,,,,,,,,,,,,repeat,number,numRpt,f,0.8687,noRew,,,,,,0,17,0,17,0,1,,,,,,,,,,,,,,,,,
294520,2022-12-06_13h55.55.745,vts_reward_expectancy_bt,2022.2.4,MacIntel,60.0024001,Chrome,1440,900,,,,,0,521,,,,,,,,,,,,,,,,,167,W,triangle,0,0,,,,,,,,,,,,,,,,repeat,number,NA,d,0.6292,noRew,,,,,,0,18,0,18,0,1,,,,,,,,,,,,,,,,,
294520,2022-12-06_13h55.55.745,vts_reward_expectancy_bt,2022.2.4,MacIntel,60.0024001,Chrome,1440,900,,,,,0,521,,,,,,,,,,,,,,,,,132,H,circle,1,1,,,,,,,,,,,,,,,,repeat,number,numRpt,d,1.6486,noRew,,,,,,0,19,0,19,0,1,,,,,,,,,,,,,,,,,
294520,2022-12-06_13h55.55.745,vts_reward_expectancy_bt,2022.2.4,MacIntel,60.0024001,Chrome,1440,900,,,,,0,521,,,,,,,,,,,,,,,,,160,W,hexagon,1,0,,,,,,,,,,,,,,,,switch,letter,lettSwt,k,1.3348,noRew,,,,,,0,20,0,20,0,1,,,,,,,,,,,,,,,,,
294520,2022-12-06_13h55.55.745,vts_reward_expectancy_bt,2022.2.4,MacIntel,60.0024001,Chrome,1440,900,,,,,0,521,,,,,,,,,,,,,,,,,174,U,triangle,1,0,,,,,,,,,,,,,,,,repeat,letter,lettRpt,k,1.497,noRew,,,,,,0,21,0,21,0,1,,,,,,,,,,,,,,,,,
294520,2022-12-06_13h55.55.745,vts_reward_expectancy_bt,2022.2.4,MacIntel,60.0024001,Chrome,1440,900,,,,,0,521,,,,,,,,,,,,,,,,,167,Y,circle,1,0,,,,,,,,,,,,,,,,repeat,letter,lettRpt,k,1.0029,noRew,,,,,,0,22,0,22,0,1,,,,,,,,,,,,,,,,,
294520,2022-12-06_13h55.55.745,vts_reward_expectancy_bt,2022.2.4,MacIntel,60.0024001,Chrome,1440,900,,,,,0,521,,,,,,,,,,,,,,,,,139,B,triangle,1,0,,,,,,,,,,,,,,,,repeat,letter,lettRpt,j,0.7023,noRew,,,,,,0,23,0,23,0,1,,,,,,,,,,,,,,,,,
294520,2022-12-06_13h55.55.745,vts_reward_expectancy_bt,2022.2.4,MacIntel,60.0024001,Chrome,1440,900,,,,,0,521,,,,,,,,,,,,,,,,,160,W,hexagon,1,0,,,,,,,,,,,,,,,,switch,number,numSwt,f,0.7509,noRew,,,,,,0,24,0,24,0,1,,,,,,,,,,,,,,,,,
294520,2022-12-06_13h55.55.745,vts_reward_expectancy_bt,2022.2.4,MacIntel,60.0024001,Chrome,1440,900,,,,,0,521,,,,,,,,,,,,,,,,,146,Y,circle,1,0,,,,,,,,,,,,,,,,repeat,number,numRpt,d,1.4458,noRew,,,,,,0,25,0,25,0,1,,,,,,,,,,,,,,,,,
294520,2022-12-06_13h55.55.745,vts_reward_expectancy_bt,2022.2.4,MacIntel,60.0024001,Chrome,1440,900,,,,,0,521,,,,,,,,,,,,,,,,,139,F,circle,1,0,,,,,,,,,,,,,,,,switch,letter,lettSwt,j,1.951,noRew,,,,,,0,26,0,26,0,1,,,,,,,,,,,,,,,,,
294520,2022-12-06_13h55.55.745,vts_reward_expectancy_bt,2022.2.4,MacIntel,60.0024001,Chrome,1440,900,,,,,0,521,,,,,,,,,,,,,,,,,181,B,triangle,1,0,,,,,,,,,,,,,,,,repeat,letter,lettRpt,j,0.7963,noRew,,,,,,0,27,0,27,0,1,,,,,,,,,,,,,,,,,
294520,2022-12-06_13h55.55.745,vts_reward_expectancy_bt,2022.2.4,MacIntel,60.0024001,Chrome,1440,900,,,,,0,521,,,,,,,,,,,,,,,,,174,S,star,1,0,,,,,,,,,,,,,,,,switch,number,numSwt,f,1.8963,noRew,,,,,,0,28,0,28,0,1,,,,,,,,,,,,,,,,,
294520,2022-12-06_13h55.55.745,vts_reward_expectancy_bt,2022.2.4,MacIntel,60.0024001,Chrome,1440,900,,,,,0,521,,,,,,,,,,,,,,,,,139,B,triangle,1,0,,,,,,,,,,,,,,,,repeat,number,numRpt,d,1.0476,noRew,,,,,,0,29,0,29,0,1,,,,,,,,,,,,,,,,,
294520,2022-12-06_13h55.55.745,vts_reward_expectancy_bt,2022.2.4,MacIntel,60.0024001,Chrome,1440,900,,,,,0,521,,,,,,,,,,,,,,,,,132,U,star,1,0,,,,,,,,,,,,,,,,repeat,number,numRpt,d,1.1013,noRew,,,,,,0,30,0,30,0,1,,,,,,,,,,,,,,,,,
294520,2022-12-06_13h55.55.745,vts_reward_expectancy_bt,2022.2.4,MacIntel,60.0024001,Chrome,1440,900,,,,,0,521,,,,,,,,,,,,,,,,,160,D,hexagon,1,0,,,,,,,,,,,,,,,,switch,letter,lettSwt,j,1.2364,noRew,,,,,,0,31,0,31,0,1,,,,,,,,,,,,,,,,,
294520,2022-12-06_13h55.55.745,vts_reward_expectancy_bt,2022.2.4,MacIntel,60.0024001,Chrome,1440,900,,,,,0,521,,,,,,,,,,,,,,,,,125,B,triangle,1,0,,,,,,,,,,,,,,,,repeat,letter,lettRpt,j,1.1344,noRew,,,,,,0,32,0,32,0,1,,,,,,,,,,,,,,,,,
294520,2022-12-06_13h55.55.745,vts_reward_expectancy_bt,2022.2.4,MacIntel,60.0024001,Chrome,1440,900,,,,,0,521,,,,,,,,,,,,,,,,,181,S,hexagon,1,0,,,,,,,,,,,,,,,,repeat,letter,lettRpt,k,0.6962,noRew,,,,,,0,33,0,33,0,1,,,,,,,,,,,,,,,,,
294520,2022-12-06_13h55.55.745,vts_reward_expectancy_bt,2022.2.4,MacIntel,60.0024001,Chrome,1440,900,,,,,0,521,,,,,,,,,,,,,,,,,167,F,hexagon,1,0,,,,,,,,,,,,,,,,switch,number,numSwt,f,0.8201,noRew,,,,,,0,34,0,34,0,1,,,,,,,,,,,,,,,,,
294520,2022-12-06_13h55.55.745,vts_reward_expectancy_bt,2022.2.4,MacIntel,60.0024001,Chrome,1440,900,,,,,0,521,,,,,,,,,,,,,,,,,174,U,triangle,1,0,,,,,,,,,,,,,,,,repeat,number,numRpt,f,1.616,noRew,,,,,,0,35,0,35,0,1,,,,,,,,,,,,,,,,,
294520,2022-12-06_13h55.55.745,vts_reward_expectancy_bt,2022.2.4,MacIntel,60.0024001,Chrome,1440,900,,,,,0,521,,,,,,,,,,,,,,,,,132,H,hexagon,1,0,,,,,,,,,,,,,,,,repeat,number,numRpt,d,0.918,noRew,,,,,,0,36,0,36,0,1,,,,,,,,,,,,,,,,,
294520,2022-12-06_13h55.55.745,vts_reward_expectancy_bt,2022.2.4,MacIntel,60.0024001,Chrome,1440,900,,,,,0,521,,,,,,,,,,,,,,,,,139,U,star,1,0,,,,,,,,,,,,,,,,repeat,number,numRpt,d,0.7848,noRew,,,,,,0,37,0,37,0,1,,,,,,,,,,,,,,,,,
294520,2022-12-06_13h55.55.745,vts_reward_expectancy_bt,2022.2.4,MacIntel,60.0024001,Chrome,1440,900,,,,,0,521,,,,,,,,,,,,,,,,,125,F,circle,1,0,,,,,,,,,,,,,,,,switch,letter,lettSwt,j,0.9805,noRew,,,,,,0,38,0,38,0,1,,,,,,,,,,,,,,,,,
294520,2022-12-06_13h55.55.745,vts_reward_expectancy_bt,2022.2.4,MacIntel,60.0024001,Chrome,1440,900,,,,,0,521,,,,,,,,,,,,,,,,,181,S,hexagon,1,0,,,,,,,,,,,,,,,,repeat,letter,lettRpt,k,0.863,noRew,,,,,,0,39,0,39,0,1,,,,,,,,,,,,,,,,,
294520,2022-12-06_13h55.55.745,vts_reward_expectancy_bt,2022.2.4,MacIntel,60.0024001,Chrome,1440,900,,,,,0,521,,,,,,,,,,,,,,,,,125,S,star,1,0,,,,,,,,,,,,,,,,repeat,letter,lettRpt,k,0.956,noRew,,,,,,0,40,0,40,0,1,,,,,,,,,,,,,,,,,
294520,2022-12-06_13h55.55.745,vts_reward_expectancy_bt,2022.2.4,MacIntel,60.0024001,Chrome,1440,900,,,,,0,521,,,,,,,,,,,,,,,,,174,Y,hexagon,1,0,,,,,,,,,,,,,,,,repeat,letter,lettRpt,k,0.6198,noRew,,,,,,0,41,0,41,0,1,,,,,,,,,,,,,,,,,
294520,2022-12-06_13h55.55.745,vts_reward_expectancy_bt,2022.2.4,MacIntel,60.0024001,Chrome,1440,900,,,,,0,521,,,,,,,,,,,,,,,,,139,H,triangle,1,0,,,,,,,,,,,,,,,,switch,number,numSwt,d,0.78,noRew,,,,,,0,42,0,42,0,1,,,,,,,,,,,,,,,,,
294520,2022-12-06_13h55.55.745,vts_reward_expectancy_bt,2022.2.4,MacIntel,60.0024001,Chrome,1440,900,,,,,0,521,,,,,,,,,,,,,,,,,181,U,star,1,0,,,,,,,,,,,,,,,,repeat,number,numRpt,f,0.8963,noRew,,,,,,0,43,0,43,0,1,,,,,,,,,,,,,,,,,
294520,2022-12-06_13h55.55.745,vts_reward_expectancy_bt,2022.2.4,MacIntel,60.0024001,Chrome,1440,900,,,,,0,521,,,,,,,,,,,,,,,,,160,S,star,1,0,,,,,,,,,,,,,,,,switch,letter,lettSwt,k,1.5486,noRew,,,,,,0,44,0,44,0,1,,,,,,,,,,,,,,,,,
294520,2022-12-06_13h55.55.745,vts_reward_expectancy_bt,2022.2.4,MacIntel,60.0024001,Chrome,1440,900,,,,,0,521,,,,,,,,,,,,,,,,,125,F,triangle,0,0,,,,,,,,,,,,,,,,repeat,letter,NA,k,1.4196,noRew,,,,,,0,45,0,45,0,1,,,,,,,,,,,,,,,,,
294520,2022-12-06_13h55.55.745,vts_reward_expectancy_bt,2022.2.4,MacIntel,60.0024001,Chrome,1440,900,,,,,0,521,,,,,,,,,,,,,,,,,174,Y,hexagon,1,1,,,,,,,,,,,,,,,,switch,number,numSwt,f,2.1124,noRew,,,,,,0,46,0,46,0,1,,,,,,,,,,,,,,,,,
294520,2022-12-06_13h55.55.745,vts_reward_expectancy_bt,2022.2.4,MacIntel,60.0024001,Chrome,1440,900,,,,,0,521,,,,,,,,,,,,,,,,,146,W,circle,1,0,,,,,,,,,,,,,,,,repeat,number,numRpt,d,1.2467,noRew,,,,,,0,47,0,47,0,1,,,,,,,,,,,,,,,,,
294520,2022-12-06_13h55.55.745,vts_reward_expectancy_bt,2022.2.4,MacIntel,60.0024001,Chrome,1440,900,,,,,0,521,,,,,,,,,,,,,,,,,181,S,hexagon,1,0,,,,,,,,,,,,,,,,repeat,number,numRpt,f,0.7366,noRew,,,,,,0,48,0,48,0,1,,,,,,,,,,,,,,,,,
294520,2022-12-06_13h55.55.745,vts_reward_expectancy_bt,2022.2.4,MacIntel,60.0024001,Chrome,1440,900,,,,,0,521,,,,,,,,,,,,,,,,,146,W,star,1,0,,,,,,,,,,,,,,,,repeat,number,numRpt,d,1.2687,noRew,,,,,,0,49,0,49,0,1,,,,,,,,,,,,,,,,,
294520,2022-12-06_13h55.55.745,vts_reward_expectancy_bt,2022.2.4,MacIntel,60.0024001,Chrome,1440,900,,,,,0,521,,,,,,,,,,,,,,,,,139,U,star,1,0,,,,,,,,,,,,,,,,repeat,number,numRpt,d,2.2006,noRew,,,,,,0,50,0,50,0,1,,,,,,,,,,,,,,,,,
294520,2022-12-06_13h55.55.745,vts_reward_expectancy_bt,2022.2.4,MacIntel,60.0024001,Chrome,1440,900,,,,,0,521,,,,,,,,,,,,,,,,,160,B,triangle,1,0,,,,,,,,,,,,,,,,repeat,number,numRpt,f,0.9129,noRew,,,,,,0,51,0,51,0,1,,,,,,,,,,,,,,,,,
294520,2022-12-06_13h55.55.745,vts_reward_expectancy_bt,2022.2.4,MacIntel,60.0024001,Chrome,1440,900,,,,,0,521,,,,,,,,,,,,,,,,,146,D,triangle,1,0,,,,,,,,,,,,,,,,switch,letter,lettSwt,j,1.635,noRew,,,,,,0,52,0,52,0,1,,,,,,,,,,,,,,,,,
294520,2022-12-06_13h55.55.745,vts_reward_expectancy_bt,2022.2.4,MacIntel,60.0024001,Chrome,1440,900,,,,,0,521,,,,,,,,,,,,,,,,,125,B,hexagon,1,0,,,,,,,,,,,,,,,,repeat,letter,lettRpt,j,1.1796,noRew,,,,,,0,53,0,53,0,1,,,,,,,,,,,,,,,,,
294520,2022-12-06_13h55.55.745,vts_reward_expectancy_bt,2022.2.4,MacIntel,60.0024001,Chrome,1440,900,,,,,0,521,,,,,,,,,,,,,,,,,174,F,circle,1,0,,,,,,,,,,,,,,,,repeat,letter,lettRpt,j,1.6621,noRew,,,,,,0,54,0,54,0,1,,,,,,,,,,,,,,,,,
294520,2022-12-06_13h55.55.745,vts_reward_expectancy_bt,2022.2.4,MacIntel,60.0024001,Chrome,1440,900,,,,,0,521,,,,,,,,,,,,,,,,,167,Y,star,1,0,,,,,,,,,,,,,,,,repeat,letter,lettRpt,k,0.9963,noRew,,,,,,0,55,0,55,0,1,,,,,,,,,,,,,,,,,
294520,2022-12-06_13h55.55.745,vts_reward_expectancy_bt,2022.2.4,MacIntel,60.0024001,Chrome,1440,900,,,,,0,521,,,,,,,,,,,,,,,,,125,Y,circle,1,0,,,,,,,,,,,,,,,,repeat,letter,lettRpt,k,1.0041,noRew,,,,,,0,56,0,56,0,1,,,,,,,,,,,,,,,,,
294520,2022-12-06_13h55.55.745,vts_reward_expectancy_bt,2022.2.4,MacIntel,60.0024001,Chrome,1440,900,,,,,0,521,,,,,,,,,,,,,,,,,174,W,star,1,0,,,,,,,,,,,,,,,,switch,number,numSwt,f,2.1968,noRew,,,,,,0,57,0,57,0,1,,,,,,,,,,,,,,,,,
294520,2022-12-06_13h55.55.745,vts_reward_expectancy_bt,2022.2.4,MacIntel,60.0024001,Chrome,1440,900,,,,,0,521,,,,,,,,,,,,,,,,,167,B,circle,1,0,,,,,,,,,,,,,,,,repeat,number,numRpt,f,1.7168,noRew,,,,,,0,58,0,58,0,1,,,,,,,,,,,,,,,,,
294520,2022-12-06_13h55.55.745,vts_reward_expectancy_bt,2022.2.4,MacIntel,60.0024001,Chrome,1440,900,,,,,0,521,,,,,,,,,,,,,,,,,160,H,triangle,1,0,,,,,,,,,,,,,,,,repeat,number,numRpt,f,2.3288,noRew,,,,,,0,59,0,59,0,1,,,,,,,,,,,,,,,,,
294520,2022-12-06_13h55.55.745,vts_reward_expectancy_bt,2022.2.4,MacIntel,60.0024001,Chrome,1440,900,,,,,0,521,,,,,,,,,,,,,,,,,139,D,triangle,1,0,,,,,,,,,,,,,,,,switch,letter,lettSwt,j,1.1469,noRew,,,,,,0,60,0,60,0,1,,,,,,,,,,,,,,,,,
294520,2022-12-06_13h55.55.745,vts_reward_expectancy_bt,2022.2.4,MacIntel,60.0024001,Chrome,1440,900,,,,,0,521,,,,,,,,,,,,,,,,,174,Y,circle,1,0,,,,,,,,,,,,,,,,repeat,letter,lettRpt,k,0.8514,noRew,,,,,,0,61,0,61,0,1,,,,,,,,,,,,,,,,,
294520,2022-12-06_13h55.55.745,vts_reward_expectancy_bt,2022.2.4,MacIntel,60.0024001,Chrome,1440,900,,,,,0,521,,,,,,,,,,,,,,,,,167,B,triangle,1,0,,,,,,,,,,,,,,,,repeat,letter,lettRpt,j,0.6193,noRew,,,,,,0,62,0,62,0,1,,,,,,,,,,,,,,,,,
294520,2022-12-06_13h55.55.745,vts_reward_expectancy_bt,2022.2.4,MacIntel,60.0024001,Chrome,1440,900,,,,,0,521,,,,,,,,,,,,,,,,,125,U,star,1,0,,,,,,,,,,,,,,,,switch,number,numSwt,d,1.5181,noRew,,,,,,0,63,0,63,0,1,,,,,,,,,,,,,,,,,
294520,2022-12-06_13h55.55.745,vts_reward_expectancy_bt,2022.2.4,MacIntel,60.0024001,Chrome,1440,900,,,,,,,,,,,,,,,,,,,,,,,,,,,,,,,,,,,,,,,,,,,,,,,,,,,,,,,,,,,,,,,,,,,,,,,,,,,,
294520,2022-12-06_13h55.55.745,vts_reward_expectancy_bt,2022.2.4,MacIntel,60.0024001,Chrome,1440,900,,,,,10,531,,,,,,,,,,,,,,,,,167,W,hexagon,1,0,,,,,,,,,,,,,,,,repeat,number,numRpt,f,1.213,Lo,,,,,,0,,,,,,space,15.2809,low,0,0,0,0,1,,,,,,,,,
294520,2022-12-06_13h55.55.745,vts_reward_expectancy_bt,2022.2.4,MacIntel,60.0024001,Chrome,1440,900,,,,,1,532,,,,,,,,,,,,,,,,,160,F,star,1,0,,,,,,,,,,,,,,,,repeat,number,numRpt,f,0.8652,Hi,,,,,,0,,,,,,,,low,1,0,1,0,1,,,,,,,,,
294520,2022-12-06_13h55.55.745,vts_reward_expectancy_bt,2022.2.4,MacIntel,60.0024001,Chrome,1440,900,,,,,1,533,,,,,,,,,,,,,,,,,139,B,circle,1,0,,,,,,,,,,,,,,,,switch,letter,lettSwt,j,1.1863,Lo,,,,,,0,,,,,,,,low,2,0,2,0,1,,,,,,,,,
294520,2022-12-06_13h55.55.745,vts_reward_expectancy_bt,2022.2.4,MacIntel,60.0024001,Chrome,1440,900,,,,,0,533,,,,,,,,,,,,,,,,,125,Y,triangle,1,0,,,,,,,,,,,,,,,,switch,number,numSwt,d,1.3797,Hi,,,,,,0,,,,,,,,low,3,0,3,0,1,,,,,,,,,
294520,2022-12-06_13h55.55.745,vts_reward_expectancy_bt,2022.2.4,MacIntel,60.0024001,Chrome,1440,900,,,,,0,533,,,,,,,,,,,,,,,,,174,D,hexagon,0,0,,,,,,,,,,,,,,,,switch,letter,NA,k,0.4127,Hi,,,,,,0,,,,,,,,low,4,0,4,0,1,,,,,,,,,
294520,2022-12-06_13h55.55.745,vts_reward_expectancy_bt,2022.2.4,MacIntel,60.0024001,Chrome,1440,900,,,,,0,533,,,,,,,,,,,,,,,,,146,S,star,1,1,,,,,,,,,,,,,,,,switch,number,numSwt,d,1.1461,Hi,,,,,,0,,,,,,,,low,5,0,5,0,1,,,,,,,,,
294520,2022-12-06_13h55.55.745,vts_reward_expectancy_bt,2022.2.4,MacIntel,60.0024001,Chrome,1440,900,,,,,10,543,,,,,,,,,,,,,,,,,181,U,circle,1,0,,,,,,,,,,,,,,,,repeat,number,numRpt,f,0.6642,Lo,,,,,,0,,,,,,,,low,6,0,6,0,1,,,,,,,,,
294520,2022-12-06_13h55.55.745,vts_reward_expectancy_bt,2022.2.4,MacIntel,60.0024001,Chrome,1440,900,,,,,1,544,,,,,,,,,,,,,,,,,132,H,triangle,1,0,,,,,,,,,,,,,,,,switch,letter,lettSwt,j,0.9682,Hi,,,,,,0,,,,,,,,low,7,0,7,0,1,,,,,,,,,
294520,2022-12-06_13h55.55.745,vts_reward_expectancy_bt,2022.2.4,MacIntel,60.0024001,Chrome,1440,900,,,,,10,554,,,,,,,,,,,,,,,,,167,W,hexagon,1,0,,,,,,,,,,,,,,,,switch,number,numSwt,f,0.6986,Lo,,,,,,0,,,,,,,,low,8,0,8,0,1,,,,,,,,,
294520,2022-12-06_13h55.55.745,vts_reward_expectancy_bt,2022.2.4,MacIntel,60.0024001,Chrome,1440,900,,,,,10,564,,,,,,,,,,,,,,,,,160,F,triangle,1,0,,,,,,,,,,,,,,,,repeat,number,numRpt,f,0.7538,Hi,,,,,,0,,,,,,,,low,9,0,9,0,1,,,,,,,,,
294520,2022-12-06_13h55.55.745,vts_reward_expectancy_bt,2022.2.4,MacIntel,60.0024001,Chrome,1440,900,,,,,10,574,,,,,,,,,,,,,,,,,139,B,star,1,0,,,,,,,,,,,,,,,,switch,letter,lettSwt,j,0.6525,Hi,,,,,,0,,,,,,,,low,10,0,10,0,1,,,,,,,,,
294520,2022-12-06_13h55.55.745,vts_reward_expectancy_bt,2022.2.4,MacIntel,60.0024001,Chrome,1440,900,,,,,10,584,,,,,,,,,,,,,,,,,125,Y,circle,1,0,,,,,,,,,,,,,,,,switch,number,numSwt,d,0.5881,Lo,,,,,,0,,,,,,,,low,11,0,11,0,1,,,,,,,,,
294520,2022-12-06_13h55.55.745,vts_reward_expectancy_bt,2022.2.4,MacIntel,60.0024001,Chrome,1440,900,,,,,1,585,,,,,,,,,,,,,,,,,174,D,hexagon,1,0,,,,,,,,,,,,,,,,switch,letter,lettSwt,j,0.763,Lo,,,,,,0,,,,,,,,low,12,0,12,0,1,,,,,,,,,
294520,2022-12-06_13h55.55.745,vts_reward_expectancy_bt,2022.2.4,MacIntel,60.0024001,Chrome,1440,900,,,,,10,595,,,,,,,,,,,,,,,,,146,S,triangle,1,0,,,,,,,,,,,,,,,,switch,number,numSwt,d,0.7134,Hi,,,,,,0,,,,,,,,low,13,0,13,0,1,,,,,,,,,
294520,2022-12-06_13h55.55.745,vts_reward_expectancy_bt,2022.2.4,MacIntel,60.0024001,Chrome,1440,900,,,,,0,595,,,,,,,,,,,,,,,,,181,U,star,0,0,,,,,,,,,,,,,,,,switch,letter,NA,j,0.7032,Hi,,,,,,0,,,,,,,,low,14,0,14,0,1,,,,,,,,,
294520,2022-12-06_13h55.55.745,vts_reward_expectancy_bt,2022.2.4,MacIntel,60.0024001,Chrome,1440,900,,,,,1,596,,,,,,,,,,,,,,,,,132,H,circle,1,1,,,,,,,,,,,,,,,,switch,number,numSwt,d,0.6646,Lo,,,,,,0,,,,,,,,low,15,0,15,0,1,,,,,,,,,
294520,2022-12-06_13h55.55.745,vts_reward_expectancy_bt,2022.2.4,MacIntel,60.0024001,Chrome,1440,900,,,,,1,597,,,,,,,,,,,,,,,,,139,U,circle,1,0,,,,,,,,,,,,,,,,repeat,number,numRpt,d,0.9645,Lo,,,,,,0,,,,,,,,low,16,0,16,0,1,,,,,,,,,
294520,2022-12-06_13h55.55.745,vts_reward_expectancy_bt,2022.2.4,MacIntel,60.0024001,Chrome,1440,900,,,,,10,607,,,,,,,,,,,,,,,,,181,Y,triangle,1,0,,,,,,,,,,,,,,,,repeat,number,numRpt,f,0.6992,Hi,,,,,,0,,,,,,,,low,17,0,17,0,1,,,,,,,,,
294520,2022-12-06_13h55.55.745,vts_reward_expectancy_bt,2022.2.4,MacIntel,60.0024001,Chrome,1440,900,,,,,10,617,,,,,,,,,,,,,,,,,146,F,star,1,0,,,,,,,,,,,,,,,,switch,letter,lettSwt,j,0.8892,Hi,,,,,,0,,,,,,,,low,18,0,18,0,1,,,,,,,,,
294520,2022-12-06_13h55.55.745,vts_reward_expectancy_bt,2022.2.4,MacIntel,60.0024001,Chrome,1440,900,,,,,10,627,,,,,,,,,,,,,,,,,125,B,hexagon,1,0,,,,,,,,,,,,,,,,repeat,letter,lettRpt,j,0.7477,Lo,,,,,,0,,,,,,,,low,19,0,19,0,1,,,,,,,,,
294520,2022-12-06_13h55.55.745,vts_reward_expectancy_bt,2022.2.4,MacIntel,60.0024001,Chrome,1440,900,,,,,0,627,,,,,,,,,,,,,,,,,167,S,star,1,0,,,,,,,,,,,,,,,,switch,number,numSwt,f,0.8976,Hi,,,,,,0,,,,,,,,low,20,0,20,0,1,,,,,,,,,
294520,2022-12-06_13h55.55.745,vts_reward_expectancy_bt,2022.2.4,MacIntel,60.0024001,Chrome,1440,900,,,,,1,628,,,,,,,,,,,,,,,,,132,H,circle,1,0,,,,,,,,,,,,,,,,repeat,number,numRpt,d,0.9135,Lo,,,,,,0,,,,,,,,low,21,0,21,0,1,,,,,,,,,
294520,2022-12-06_13h55.55.745,vts_reward_expectancy_bt,2022.2.4,MacIntel,60.0024001,Chrome,1440,900,,,,,0,628,,,,,,,,,,,,,,,,,160,W,triangle,1,0,,,,,,,,,,,,,,,,repeat,number,numRpt,f,0.9646,Hi,,,,,,0,,,,,,,,low,22,0,22,0,1,,,,,,,,,
294520,2022-12-06_13h55.55.745,vts_reward_expectancy_bt,2022.2.4,MacIntel,60.0024001,Chrome,1440,900,,,,,1,629,,,,,,,,,,,,,,,,,174,D,hexagon,1,0,,,,,,,,,,,,,,,,repeat,number,numRpt,f,0.7531,Lo,,,,,,0,,,,,,,,low,23,0,23,0,1,,,,,,,,,
294520,2022-12-06_13h55.55.745,vts_reward_expectancy_bt,2022.2.4,MacIntel,60.0024001,Chrome,1440,900,,,,,10,639,,,,,,,,,,,,,,,,,146,F,triangle,1,0,,,,,,,,,,,,,,,,repeat,number,numRpt,d,0.8796,Hi,,,,,,0,,,,,,,,low,24,0,24,0,1,,,,,,,,,
294520,2022-12-06_13h55.55.745,vts_reward_expectancy_bt,2022.2.4,MacIntel,60.0024001,Chrome,1440,900,,,,,1,640,,,,,,,,,,,,,,,,,181,S,hexagon,1,0,,,,,,,,,,,,,,,,repeat,number,numRpt,f,0.6816,Lo,,,,,,0,,,,,,,,low,25,0,25,0,1,,,,,,,,,
294520,2022-12-06_13h55.55.745,vts_reward_expectancy_bt,2022.2.4,MacIntel,60.0024001,Chrome,1440,900,,,,,10,650,,,,,,,,,,,,,,,,,174,B,star,1,0,,,,,,,,,,,,,,,,switch,letter,lettSwt,j,0.5648,Hi,,,,,,0,,,,,,,,low,26,0,26,0,1,,,,,,,,,
294520,2022-12-06_13h55.55.745,vts_reward_expectancy_bt,2022.2.4,MacIntel,60.0024001,Chrome,1440,900,,,,,1,651,,,,,,,,,,,,,,,,,132,W,circle,1,0,,,,,,,,,,,,,,,,switch,number,numSwt,d,0.7156,Lo,,,,,,0,,,,,,,,low,27,0,27,0,1,,,,,,,,,
294520,2022-12-06_13h55.55.745,vts_reward_expectancy_bt,2022.2.4,MacIntel,60.0024001,Chrome,1440,900,,,,,10,661,,,,,,,,,,,,,,,,,139,Y,star,1,0,,,,,,,,,,,,,,,,switch,letter,lettSwt,k,0.5383,Hi,,,,,,0,,,,,,,,low,28,0,28,0,1,,,,,,,,,
294520,2022-12-06_13h55.55.745,vts_reward_expectancy_bt,2022.2.4,MacIntel,60.0024001,Chrome,1440,900,,,,,0,661,,,,,,,,,,,,,,,,,160,U,circle,0,0,,,,,,,,,,,,,,,,repeat,letter,NA,j,0.8723,Hi,,,,,,0,,,,,,,,low,29,0,29,0,1,,,,,,,,,
294520,2022-12-06_13h55.55.745,vts_reward_expectancy_bt,2022.2.4,MacIntel,60.0024001,Chrome,1440,900,,,,,1,662,,,,,,,,,,,,,,,,,167,H,triangle,1,1,,,,,,,,,,,,,,,,switch,number,numSwt,f,0.6493,Hi,,,,,,0,,,,,,,,low,30,0,30,0,1,,,,,,,,,
294520,2022-12-06_13h55.55.745,vts_reward_expectancy_bt,2022.2.4,MacIntel,60.0024001,Chrome,1440,900,,,,,1,663,,,,,,,,,,,,,,,,,125,D,hexagon,1,0,,,,,,,,,,,,,,,,repeat,number,numRpt,d,0.7319,Lo,,,,,,0,,,,,,,,low,31,0,31,0,1,,,,,,,,,
294520,2022-12-06_13h55.55.745,vts_reward_expectancy_bt,2022.2.4,MacIntel,60.0024001,Chrome,1440,900,,,,,10,673,,,,,,,,,,,,,,,,,167,U,hexagon,1,0,,,,,,,,,,,,,,,,repeat,number,numRpt,f,0.6304,Lo,,,,,,1,,,,,,space,4.8346,low,0,0,0,0,1,,,,,,,,,
294520,2022-12-06_13h55.55.745,vts_reward_expectancy_bt,2022.2.4,MacIntel,60.0024001,Chrome,1440,900,,,,,10,683,,,,,,,,,,,,,,,,,181,H,triangle,1,0,,,,,,,,,,,,,,,,repeat,number,numRpt,f,0.6319,Hi,,,,,,1,,,,,,,,low,1,0,1,0,1,,,,,,,,,
294520,2022-12-06_13h55.55.745,vts_reward_expectancy_bt,2022.2.4,MacIntel,60.0024001,Chrome,1440,900,,,,,0,683,,,,,,,,,,,,,,,,,160,W,star,1,0,,,,,,,,,,,,,,,,switch,letter,lettSwt,k,0.8634,Hi,,,,,,1,,,,,,,,low,2,0,2,0,1,,,,,,,,,
294520,2022-12-06_13h55.55.745,vts_reward_expectancy_bt,2022.2.4,MacIntel,60.0024001,Chrome,1440,900,,,,,10,693,,,,,,,,,,,,,,,,,146,S,circle,1,0,,,,,,,,,,,,,,,,repeat,letter,lettRpt,k,0.836,Lo,,,,,,1,,,,,,,,low,3,0,3,0,1,,,,,,,,,
294520,2022-12-06_13h55.55.745,vts_reward_expectancy_bt,2022.2.4,MacIntel,60.0024001,Chrome,1440,900,,,,,1,694,,,,,,,,,,,,,,,,,132,D,hexagon,1,0,,,,,,,,,,,,,,,,switch,number,numSwt,d,0.5655,Lo,,,,,,1,,,,,,,,low,4,0,4,0,1,,,,,,,,,
294520,2022-12-06_13h55.55.745,vts_reward_expectancy_bt,2022.2.4,MacIntel,60.0024001,Chrome,1440,900,,,,,1,695,,,,,,,,,,,,,,,,,139,Y,triangle,1,0,,,,,,,,,,,,,,,,repeat,number,numRpt,d,0.6835,Hi,,,,,,1,,,,,,,,low,5,0,5,0,1,,,,,,,,,
294520,2022-12-06_13h55.55.745,vts_reward_expectancy_bt,2022.2.4,MacIntel,60.0024001,Chrome,1440,900,,,,,0,695,,,,,,,,,,,,,,,,,174,B,star,1,0,,,,,,,,,,,,,,,,switch,letter,lettSwt,j,0.9195,Hi,,,,,,1,,,,,,,,low,6,0,6,0,1,,,,,,,,,
294520,2022-12-06_13h55.55.745,vts_reward_expectancy_bt,2022.2.4,MacIntel,60.0024001,Chrome,1440,900,,,,,10,705,,,,,,,,,,,,,,,,,125,F,circle,1,0,,,,,,,,,,,,,,,,switch,number,numSwt,d,0.6958,Lo,,,,,,1,,,,,,,,low,7,0,7,0,1,,,,,,,,,
294520,2022-12-06_13h55.55.745,vts_reward_expectancy_bt,2022.2.4,MacIntel,60.0024001,Chrome,1440,900,,,,,1,706,,,,,,,,,,,,,,,,,167,U,circle,1,0,,,,,,,,,,,,,,,,switch,letter,lettSwt,k,0.6649,Lo,,,,,,1,,,,,,,,low,8,0,8,0,1,,,,,,,,,
294520,2022-12-06_13h55.55.745,vts_reward_expectancy_bt,2022.2.4,MacIntel,60.0024001,Chrome,1440,900,,,,,10,716,,,,,,,,,,,,,,,,,181,H,hexagon,1,0,,,,,,,,,,,,,,,,switch,number,numSwt,f,0.6678,Lo,,,,,,1,,,,,,,,low,9,0,9,0,1,,,,,,,,,
294520,2022-12-06_13h55.55.745,vts_reward_expectancy_bt,2022.2.4,MacIntel,60.0024001,Chrome,1440,900,,,,,1,717,,,,,,,,,,,,,,,,,160,W,star,1,0,,,,,,,,,,,,,,,,repeat,number,numRpt,f,0.5206,Hi,,,,,,1,,,,,,,,low,10,0,10,0,1,,,,,,,,,
294520,2022-12-06_13h55.55.745,vts_reward_expectancy_bt,2022.2.4,MacIntel,60.0024001,Chrome,1440,900,,,,,10,727,,,,,,,,,,,,,,,,,146,S,triangle,1,0,,,,,,,,,,,,,,,,repeat,number,numRpt,d,0.4481,Hi,,,,,,1,,,,,,,,low,11,0,11,0,1,,,,,,,,,
294520,2022-12-06_13h55.55.745,vts_reward_expectancy_bt,2022.2.4,MacIntel,60.0024001,Chrome,1440,900,,,,,10,737,,,,,,,,,,,,,,,,,132,D,star,1,0,,,,,,,,,,,,,,,,switch,letter,lettSwt,j,0.5995,Hi,,,,,,1,,,,,,,,low,12,0,12,0,1,,,,,,,,,
294520,2022-12-06_13h55.55.745,vts_reward_expectancy_bt,2022.2.4,MacIntel,60.0024001,Chrome,1440,900,,,,,10,747,,,,,,,,,,,,,,,,,139,Y,circle,1,0,,,,,,,,,,,,,,,,switch,number,numSwt,d,0.6154,Lo,,,,,,1,,,,,,,,low,13,0,13,0,1,,,,,,,,,
294520,2022-12-06_13h55.55.745,vts_reward_expectancy_bt,2022.2.4,MacIntel,60.0024001,Chrome,1440,900,,,,,1,748,,,,,,,,,,,,,,,,,174,B,triangle,1,0,,,,,,,,,,,,,,,,repeat,number,numRpt,f,0.554,Hi,,,,,,1,,,,,,,,low,14,0,14,0,1,,,,,,,,,
294520,2022-12-06_13h55.55.745,vts_reward_expectancy_bt,2022.2.4,MacIntel,60.0024001,Chrome,1440,900,,,,,1,749,,,,,,,,,,,,,,,,,125,F,hexagon,1,0,,,,,,,,,,,,,,,,repeat,number,numRpt,d,0.6004,Lo,,,,,,1,,,,,,,,low,15,0,15,0,1,,,,,,,,,
294520,2022-12-06_13h55.55.745,vts_reward_expectancy_bt,2022.2.4,MacIntel,60.0024001,Chrome,1440,900,,,,,1,750,,,,,,,,,,,,,,,,,132,B,star,1,0,,,,,,,,,,,,,,,,switch,letter,lettSwt,j,0.5638,Hi,,,,,,1,,,,,,,,low,16,0,16,0,1,,,,,,,,,
294520,2022-12-06_13h55.55.745,vts_reward_expectancy_bt,2022.2.4,MacIntel,60.0024001,Chrome,1440,900,,,,,1,751,,,,,,,,,,,,,,,,,146,H,hexagon,1,0,,,,,,,,,,,,,,,,switch,number,numSwt,d,0.7706,Lo,,,,,,1,,,,,,,,low,17,0,17,0,1,,,,,,,,,
294520,2022-12-06_13h55.55.745,vts_reward_expectancy_bt,2022.2.4,MacIntel,60.0024001,Chrome,1440,900,,,,,10,761,,,,,,,,,,,,,,,,,174,S,circle,1,0,,,,,,,,,,,,,,,,repeat,number,numRpt,f,0.616,Lo,,,,,,1,,,,,,,,low,18,0,18,0,1,,,,,,,,,
294520,2022-12-06_13h55.55.745,vts_reward_expectancy_bt,2022.2.4,MacIntel,60.0024001,Chrome,1440,900,,,,,0,761,,,,,,,,,,,,,,,,,167,F,triangle,1,0,,,,,,,,,,,,,,,,switch,letter,lettSwt,j,0.982,Hi,,,,,,1,,,,,,,,low,19,0,19,0,1,,,,,,,,,
294520,2022-12-06_13h55.55.745,vts_reward_expectancy_bt,2022.2.4,MacIntel,60.0024001,Chrome,1440,900,,,,,0,761,,,,,,,,,,,,,,,,,125,U,circle,0,0,,,,,,,,,,,,,,,,repeat,letter,NA,j,0.8658,Hi,,,,,,1,,,,,,,,low,20,0,20,0,1,,,,,,,,,
294520,2022-12-06_13h55.55.745,vts_reward_expectancy_bt,2022.2.4,MacIntel,60.0024001,Chrome,1440,900,,,,,1,762,,,,,,,,,,,,,,,,,139,W,hexagon,1,1,,,,,,,,,,,,,,,,repeat,letter,lettRpt,k,0.8479,Lo,,,,,,1,,,,,,,,low,21,0,21,0,1,,,,,,,,,
294520,2022-12-06_13h55.55.745,vts_reward_expectancy_bt,2022.2.4,MacIntel,60.0024001,Chrome,1440,900,,,,,1,763,,,,,,,,,,,,,,,,,181,D,star,1,0,,,,,,,,,,,,,,,,repeat,letter,lettRpt,j,0.7313,Hi,,,,,,1,,,,,,,,low,22,0,22,0,1,,,,,,,,,
294520,2022-12-06_13h55.55.745,vts_reward_expectancy_bt,2022.2.4,MacIntel,60.0024001,Chrome,1440,900,,,,,10,773,,,,,,,,,,,,,,,,,160,Y,triangle,1,0,,,,,,,,,,,,,,,,switch,number,numSwt,f,0.6594,Hi,,,,,,1,,,,,,,,low,23,0,23,0,1,,,,,,,,,
294520,2022-12-06_13h55.55.745,vts_reward_expectancy_bt,2022.2.4,MacIntel,60.0024001,Chrome,1440,900,,,,,0,773,,,,,,,,,,,,,,,,,139,H,star,1,0,,,,,,,,,,,,,,,,switch,letter,lettSwt,j,0.696,Hi,,,,,,1,,,,,,,,low,24,0,24,0,1,,,,,,,,,
294520,2022-12-06_13h55.55.745,vts_reward_expectancy_bt,2022.2.4,MacIntel,60.0024001,Chrome,1440,900,,,,,0,773,,,,,,,,,,,,,,,,,146,S,triangle,0,0,,,,,,,,,,,,,,,,switch,number,NA,f,1.015,Hi,,,,,,1,,,,,,,,low,25,0,25,0,1,,,,,,,,,
294520,2022-12-06_13h55.55.745,vts_reward_expectancy_bt,2022.2.4,MacIntel,60.0024001,Chrome,1440,900,,,,,1,774,,,,,,,,,,,,,,,,,132,B,hexagon,1,1,,,,,,,,,,,,,,,,repeat,number,numRpt,d,0.6546,Lo,,,,,,1,,,,,,,,low,26,0,26,0,1,,,,,,,,,
294520,2022-12-06_13h55.55.745,vts_reward_expectancy_bt,2022.2.4,MacIntel,60.0024001,Chrome,1440,900,,,,,0,774,,,,,,,,,,,,,,,,,160,U,circle,0,0,,,,,,,,,,,,,,,,repeat,number,NA,d,0.4721,Lo,,,,,,1,,,,,,,,low,27,0,27,0,1,,,,,,,,,
294520,2022-12-06_13h55.55.745,vts_reward_expectancy_bt,2022.2.4,MacIntel,60.0024001,Chrome,1440,900,,,,,1,775,,,,,,,,,,,,,,,,,174,F,circle,1,1,,,,,,,,,,,,,,,,repeat,number,numRpt,f,0.6218,Lo,,,,,,1,,,,,,,,low,28,0,28,0,1,,,,,,,,,
294520,2022-12-06_13h55.55.745,vts_reward_expectancy_bt,2022.2.4,MacIntel,60.0024001,Chrome,1440,900,,,,,10,785,,,,,,,,,,,,,,,,,167,W,star,1,0,,,,,,,,,,,,,,,,switch,letter,lettSwt,k,0.6181,Hi,,,,,,1,,,,,,,,low,29,0,29,0,1,,,,,,,,,
294520,2022-12-06_13h55.55.745,vts_reward_expectancy_bt,2022.2.4,MacIntel,60.0024001,Chrome,1440,900,,,,,10,795,,,,,,,,,,,,,,,,,181,D,hexagon,1,0,,,,,,,,,,,,,,,,repeat,letter,lettRpt,j,0.8001,Lo,,,,,,1,,,,,,,,low,30,0,30,0,1,,,,,,,,,
294520,2022-12-06_13h55.55.745,vts_reward_expectancy_bt,2022.2.4,MacIntel,60.0024001,Chrome,1440,900,,,,,10,805,,,,,,,,,,,,,,,,,125,Y,triangle,1,0,,,,,,,,,,,,,,,,repeat,letter,lettRpt,k,0.6,Hi,,,,,,1,,,,,,,,low,31,0,31,0,1,,,,,,,,,
294520,2022-12-06_13h55.55.745,vts_reward_expectancy_bt,2022.2.4,MacIntel,60.0024001,Chrome,1440,900,,,,,0,805,,,,,,,,,,,,,,,,,125,U,star,0,0,,,,,,,,,,,,,,,,repeat,letter,NA,j,0.6019,Hi,,,,,,2,,,,,,space,9.2274,low,0,0,0,0,1,,,,,,,,,
294520,2022-12-06_13h55.55.745,vts_reward_expectancy_bt,2022.2.4,MacIntel,60.0024001,Chrome,1440,900,,,,,0,805,,,,,,,,,,,,,,,,,167,H,triangle,1,1,,,,,,,,,,,,,,,,repeat,letter,lettRpt,j,0.7983,Hi,,,,,,2,,,,,,,,low,1,0,1,0,1,,,,,,,,,
294520,2022-12-06_13h55.55.745,vts_reward_expectancy_bt,2022.2.4,MacIntel,60.0024001,Chrome,1440,900,,,,,10,815,,,,,,,,,,,,,,,,,139,B,circle,1,0,,,,,,,,,,,,,,,,switch,number,numSwt,d,0.5993,Lo,,,,,,2,,,,,,,,low,2,0,2,0,1,,,,,,,,,
294520,2022-12-06_13h55.55.745,vts_reward_expectancy_bt,2022.2.4,MacIntel,60.0024001,Chrome,1440,900,,,,,10,825,,,,,,,,,,,,,,,,,146,S,hexagon,1,0,,,,,,,,,,,,,,,,repeat,number,numRpt,d,0.5718,Lo,,,,,,2,,,,,,,,low,3,0,3,0,1,,,,,,,,,
294520,2022-12-06_13h55.55.745,vts_reward_expectancy_bt,2022.2.4,MacIntel,60.0024001,Chrome,1440,900,,,,,0,825,,,,,,,,,,,,,,,,,160,Y,star,1,0,,,,,,,,,,,,,,,,repeat,number,numRpt,f,0.6334,Hi,,,,,,2,,,,,,,,low,4,0,4,0,1,,,,,,,,,
294520,2022-12-06_13h55.55.745,vts_reward_expectancy_bt,2022.2.4,MacIntel,60.0024001,Chrome,1440,900,,,,,0,825,,,,,,,,,,,,,,,,,132,F,triangle,1,0,,,,,,,,,,,,,,,,repeat,number,numRpt,d,0.7386,Hi,,,,,,2,,,,,,,,low,5,0,5,0,1,,,,,,,,,
294520,2022-12-06_13h55.55.745,vts_reward_expectancy_bt,2022.2.4,MacIntel,60.0024001,Chrome,1440,900,,,,,1,826,,,,,,,,,,,,,,,,,174,D,circle,1,0,,,,,,,,,,,,,,,,repeat,number,numRpt,f,0.5663,Lo,,,,,,2,,,,,,,,low,6,0,6,0,1,,,,,,,,,
294520,2022-12-06_13h55.55.745,vts_reward_expectancy_bt,2022.2.4,MacIntel,60.0024001,Chrome,1440,900,,,,,1,827,,,,,,,,,,,,,,,,,181,W,hexagon,1,0,,,,,,,,,,,,,,,,switch,letter,lettSwt,k,0.6011,Lo,,,,,,2,,,,,,,,low,7,0,7,0,1,,,,,,,,,
294520,2022-12-06_13h55.55.745,vts_reward_expectancy_bt,2022.2.4,MacIntel,60.0024001,Chrome,1440,900,,,,,10,837,,,,,,,,,,,,,,,,,125,U,hexagon,1,0,,,,,,,,,,,,,,,,switch,number,numSwt,d,0.5977,Lo,,,,,,2,,,,,,,,low,8,0,8,0,1,,,,,,,,,
294520,2022-12-06_13h55.55.745,vts_reward_expectancy_bt,2022.2.4,MacIntel,60.0024001,Chrome,1440,900,,,,,10,847,,,,,,,,,,,,,,,,,167,H,star,1,0,,,,,,,,,,,,,,,,switch,letter,lettSwt,j,0.5989,Hi,,,,,,2,,,,,,,,low,9,0,9,0,1,,,,,,,,,
294520,2022-12-06_13h55.55.745,vts_reward_expectancy_bt,2022.2.4,MacIntel,60.0024001,Chrome,1440,900,,,,,1,848,,,,,,,,,,,,,,,,,139,B,circle,1,0,,,,,,,,,,,,,,,,switch,number,numSwt,d,0.6826,Lo,,,,,,2,,,,,,,,low,10,0,10,0,1,,,,,,,,,
294520,2022-12-06_13h55.55.745,vts_reward_expectancy_bt,2022.2.4,MacIntel,60.0024001,Chrome,1440,900,,,,,0,848,,,,,,,,,,,,,,,,,146,S,triangle,1,0,,,,,,,,,,,,,,,,repeat,number,numRpt,d,0.787,Hi,,,,,,2,,,,,,,,low,11,0,11,0,1,,,,,,,,,
294520,2022-12-06_13h55.55.745,vts_reward_expectancy_bt,2022.2.4,MacIntel,60.0024001,Chrome,1440,900,,,,,1,849,,,,,,,,,,,,,,,,,160,Y,hexagon,1,0,,,,,,,,,,,,,,,,repeat,number,numRpt,f,0.5503,Lo,,,,,,2,,,,,,,,low,12,0,12,0,1,,,,,,,,,
294520,2022-12-06_13h55.55.745,vts_reward_expectancy_bt,2022.2.4,MacIntel,60.0024001,Chrome,1440,900,,,,,0,849,,,,,,,,,,,,,,,,,132,F,circle,0,0,,,,,,,,,,,,,,,,switch,letter,NA,k,0.5381,Lo,,,,,,2,,,,,,,,low,13,0,13,0,1,,,,,,,,,
294520,2022-12-06_13h55.55.745,vts_reward_expectancy_bt,2022.2.4,MacIntel,60.0024001,Chrome,1440,900,,,,,10,859,,,,,,,,,,,,,,,,,174,D,star,1,1,,,,,,,,,,,,,,,,repeat,letter,lettRpt,j,0.7066,Hi,,,,,,2,,,,,,,,low,14,0,14,0,1,,,,,,,,,
294520,2022-12-06_13h55.55.745,vts_reward_expectancy_bt,2022.2.4,MacIntel,60.0024001,Chrome,1440,900,,,,,10,869,,,,,,,,,,,,,,,,,181,W,triangle,1,0,,,,,,,,,,,,,,,,switch,number,numSwt,f,0.5323,Hi,,,,,,2,,,,,,,,low,15,0,15,0,1,,,,,,,,,
294520,2022-12-06_13h55.55.745,vts_reward_expectancy_bt,2022.2.4,MacIntel,60.0024001,Chrome,1440,900,,,,,1,870,,,,,,,,,,,,,,,,,181,F,hexagon,1,0,,,,,,,,,,,,,,,,switch,letter,lettSwt,j,0.633,Lo,,,,,,2,,,,,,,,low,16,0,16,0,1,,,,,,,,,
294520,2022-12-06_13h55.55.745,vts_reward_expectancy_bt,2022.2.4,MacIntel,60.0024001,Chrome,1440,900,,,,,1,871,,,,,,,,,,,,,,,,,160,W,triangle,1,0,,,,,,,,,,,,,,,,switch,number,numSwt,f,0.4002,Hi,,,,,,2,,,,,,,,low,17,0,17,0,1,,,,,,,,,
294520,2022-12-06_13h55.55.745,vts_reward_expectancy_bt,2022.2.4,MacIntel,60.0024001,Chrome,1440,900,,,,,1,872,,,,,,,,,,,,,,,,,167,S,circle,1,0,,,,,,,,,,,,,,,,repeat,number,numRpt,f,0.3489,Lo,,,,,,2,,,,,,,,low,18,0,18,0,1,,,,,,,,,
294520,2022-12-06_13h55.55.745,vts_reward_expectancy_bt,2022.2.4,MacIntel,60.0024001,Chrome,1440,900,,,,,1,873,,,,,,,,,,,,,,,,,132,B,star,1,0,,,,,,,,,,,,,,,,switch,letter,lettSwt,j,0.4487,Hi,,,,,,2,,,,,,,,low,19,0,19,0,1,,,,,,,,,
294520,2022-12-06_13h55.55.745,vts_reward_expectancy_bt,2022.2.4,MacIntel,60.0024001,Chrome,1440,900,,,,,0,873,,,,,,,,,,,,,,,,,146,U,star,1,0,,,,,,,,,,,,,,,,switch,number,numSwt,d,0.7125,Hi,,,,,,2,,,,,,,,low,20,0,20,0,1,,,,,,,,,
294520,2022-12-06_13h55.55.745,vts_reward_expectancy_bt,2022.2.4,MacIntel,60.0024001,Chrome,1440,900,,,,,10,883,,,,,,,,,,,,,,,,,174,H,circle,1,0,,,,,,,,,,,,,,,,repeat,number,numRpt,f,0.4817,Lo,,,,,,2,,,,,,,,low,21,0,21,0,1,,,,,,,,,
294520,2022-12-06_13h55.55.745,vts_reward_expectancy_bt,2022.2.4,MacIntel,60.0024001,Chrome,1440,900,,,,,1,884,,,,,,,,,,,,,,,,,139,D,triangle,1,0,,,,,,,,,,,,,,,,repeat,number,numRpt,d,0.4817,Hi,,,,,,2,,,,,,,,low,22,0,22,0,1,,,,,,,,,
294520,2022-12-06_13h55.55.745,vts_reward_expectancy_bt,2022.2.4,MacIntel,60.0024001,Chrome,1440,900,,,,,1,885,,,,,,,,,,,,,,,,,125,Y,hexagon,1,0,,,,,,,,,,,,,,,,switch,letter,lettSwt,k,0.5534,Lo,,,,,,2,,,,,,,,low,23,0,23,0,1,,,,,,,,,
294520,2022-12-06_13h55.55.745,vts_reward_expectancy_bt,2022.2.4,MacIntel,60.0024001,Chrome,1440,900,,,,,10,895,,,,,,,,,,,,,,,,,181,W,hexagon,1,0,,,,,,,,,,,,,,,,switch,number,numSwt,f,0.4541,Lo,,,,,,2,,,,,,,,low,24,0,24,0,1,,,,,,,,,
294520,2022-12-06_13h55.55.745,vts_reward_expectancy_bt,2022.2.4,MacIntel,60.0024001,Chrome,1440,900,,,,,10,905,,,,,,,,,,,,,,,,,146,S,circle,1,0,,,,,,,,,,,,,,,,switch,letter,lettSwt,k,0.5374,Lo,,,,,,2,,,,,,,,low,25,0,25,0,1,,,,,,,,,
294520,2022-12-06_13h55.55.745,vts_reward_expectancy_bt,2022.2.4,MacIntel,60.0024001,Chrome,1440,900,,,,,0,905,,,,,,,,,,,,,,,,,167,D,star,0,0,,,,,,,,,,,,,,,,switch,number,NA,d,0.3983,Lo,,,,,,2,,,,,,,,low,26,0,26,0,1,,,,,,,,,
294520,2022-12-06_13h55.55.745,vts_reward_expectancy_bt,2022.2.4,MacIntel,60.0024001,Chrome,1440,900,,,,,0,905,,,,,,,,,,,,,,,,,160,U,triangle,1,1,,,,,,,,,,,,,,,,repeat,number,numRpt,f,0.8321,Hi,,,,,,2,,,,,,,,low,27,0,27,0,1,,,,,,,,,
294520,2022-12-06_13h55.55.745,vts_reward_expectancy_bt,2022.2.4,MacIntel,60.0024001,Chrome,1440,900,,,,,10,915,,,,,,,,,,,,,,,,,132,Y,hexagon,1,0,,,,,,,,,,,,,,,,repeat,number,numRpt,d,0.5986,Lo,,,,,,2,,,,,,,,low,28,0,28,0,1,,,,,,,,,
294520,2022-12-06_13h55.55.745,vts_reward_expectancy_bt,2022.2.4,MacIntel,60.0024001,Chrome,1440,900,,,,,1,916,,,,,,,,,,,,,,,,,125,F,star,1,0,,,,,,,,,,,,,,,,repeat,number,numRpt,d,0.555,Hi,,,,,,2,,,,,,,,low,29,0,29,0,1,,,,,,,,,
294520,2022-12-06_13h55.55.745,vts_reward_expectancy_bt,2022.2.4,MacIntel,60.0024001,Chrome,1440,900,,,,,1,917,,,,,,,,,,,,,,,,,174,B,circle,1,0,,,,,,,,,,,,,,,,repeat,number,numRpt,f,0.5706,Lo,,,,,,2,,,,,,,,low,30,0,30,0,1,,,,,,,,,
294520,2022-12-06_13h55.55.745,vts_reward_expectancy_bt,2022.2.4,MacIntel,60.0024001,Chrome,1440,900,,,,,10,927,,,,,,,,,,,,,,,,,139,H,triangle,1,0,,,,,,,,,,,,,,,,repeat,number,numRpt,d,0.5656,Hi,,,,,,2,,,,,,,,low,31,0,31,0,1,,,,,,,,,
294520,2022-12-06_13h55.55.745,vts_reward_expectancy_bt,2022.2.4,MacIntel,60.0024001,Chrome,1440,900,,,,,0,927,,,,,,,,,,,,,,,,,125,H,star,1,0,,,,,,,,,,,,,,,,switch,letter,lettSwt,j,0.5563,Hi,,,,,,3,,,,,,space,3.795,low,0,0,0,0,1,,,,,,,,,
294520,2022-12-06_13h55.55.745,vts_reward_expectancy_bt,2022.2.4,MacIntel,60.0024001,Chrome,1440,900,,,,,10,937,,,,,,,,,,,,,,,,,146,B,hexagon,1,0,,,,,,,,,,,,,,,,repeat,letter,lettRpt,j,0.7157,Lo,,,,,,3,,,,,,,,low,1,0,1,0,1,,,,,,,,,
294520,2022-12-06_13h55.55.745,vts_reward_expectancy_bt,2022.2.4,MacIntel,60.0024001,Chrome,1440,900,,,,,1,938,,,,,,,,,,,,,,,,,132,D,circle,1,0,,,,,,,,,,,,,,,,repeat,letter,lettRpt,j,0.6515,Lo,,,,,,3,,,,,,,,low,2,0,2,0,1,,,,,,,,,
294520,2022-12-06_13h55.55.745,vts_reward_expectancy_bt,2022.2.4,MacIntel,60.0024001,Chrome,1440,900,,,,,0,938,,,,,,,,,,,,,,,,,139,F,triangle,0,0,,,,,,,,,,,,,,,,switch,number,NA,f,0.3516,Lo,,,,,,3,,,,,,,,low,3,0,3,0,1,,,,,,,,,
294520,2022-12-06_13h55.55.745,vts_reward_expectancy_bt,2022.2.4,MacIntel,60.0024001,Chrome,1440,900,,,,,10,948,,,,,,,,,,,,,,,,,181,Y,star,1,1,,,,,,,,,,,,,,,,repeat,number,numRpt,f,0.4486,Hi,,,,,,3,,,,,,,,low,4,0,4,0,1,,,,,,,,,
294520,2022-12-06_13h55.55.745,vts_reward_expectancy_bt,2022.2.4,MacIntel,60.0024001,Chrome,1440,900,,,,,10,958,,,,,,,,,,,,,,,,,167,S,hexagon,1,0,,,,,,,,,,,,,,,,switch,letter,lettSwt,k,0.8658,Lo,,,,,,3,,,,,,,,low,5,0,5,0,1,,,,,,,,,
294520,2022-12-06_13h55.55.745,vts_reward_expectancy_bt,2022.2.4,MacIntel,60.0024001,Chrome,1440,900,,,,,1,959,,,,,,,,,,,,,,,,,160,U,circle,1,0,,,,,,,,,,,,,,,,switch,number,numSwt,f,0.3986,Lo,,,,,,3,,,,,,,,low,6,0,6,0,1,,,,,,,,,
294520,2022-12-06_13h55.55.745,vts_reward_expectancy_bt,2022.2.4,MacIntel,60.0024001,Chrome,1440,900,,,,,10,969,,,,,,,,,,,,,,,,,174,W,triangle,1,0,,,,,,,,,,,,,,,,repeat,number,numRpt,f,0.5223,Hi,,,,,,3,,,,,,,,low,7,0,7,0,1,,,,,,,,,
294520,2022-12-06_13h55.55.745,vts_reward_expectancy_bt,2022.2.4,MacIntel,60.0024001,Chrome,1440,900,,,,,1,970,,,,,,,,,,,,,,,,,125,H,circle,1,0,,,,,,,,,,,,,,,,switch,letter,lettSwt,j,0.8496,Lo,,,,,,3,,,,,,,,low,8,0,8,0,1,,,,,,,,,
294520,2022-12-06_13h55.55.745,vts_reward_expectancy_bt,2022.2.4,MacIntel,60.0024001,Chrome,1440,900,,,,,0,970,,,,,,,,,,,,,,,,,146,B,star,1,0,,,,,,,,,,,,,,,,switch,number,numSwt,d,0.5318,Hi,,,,,,3,,,,,,,,low,9,0,9,0,1,,,,,,,,,
294520,2022-12-06_13h55.55.745,vts_reward_expectancy_bt,2022.2.4,MacIntel,60.0024001,Chrome,1440,900,,,,,0,970,,,,,,,,,,,,,,,,,132,D,triangle,1,0,,,,,,,,,,,,,,,,switch,letter,lettSwt,j,0.7986,Hi,,,,,,3,,,,,,,,low,10,0,10,0,1,,,,,,,,,
294520,2022-12-06_13h55.55.745,vts_reward_expectancy_bt,2022.2.4,MacIntel,60.0024001,Chrome,1440,900,,,,,0,970,,,,,,,,,,,,,,,,,139,F,hexagon,0,0,,,,,,,,,,,,,,,,repeat,letter,NA,k,0.6482,Hi,,,,,,3,,,,,,,,low,11,0,11,0,1,,,,,,,,,
294520,2022-12-06_13h55.55.745,vts_reward_expectancy_bt,2022.2.4,MacIntel,60.0024001,Chrome,1440,900,,,,,1,971,,,,,,,,,,,,,,,,,181,Y,circle,1,1,,,,,,,,,,,,,,,,repeat,letter,lettRpt,k,0.7071,Lo,,,,,,3,,,,,,,,low,12,0,12,0,1,,,,,,,,,
294520,2022-12-06_13h55.55.745,vts_reward_expectancy_bt,2022.2.4,MacIntel,60.0024001,Chrome,1440,900,,,,,10,981,,,,,,,,,,,,,,,,,167,S,hexagon,1,0,,,,,,,,,,,,,,,,switch,number,numSwt,f,0.5181,Lo,,,,,,3,,,,,,,,low,13,0,13,0,1,,,,,,,,,
294520,2022-12-06_13h55.55.745,vts_reward_expectancy_bt,2022.2.4,MacIntel,60.0024001,Chrome,1440,900,,,,,0,981,,,,,,,,,,,,,,,,,160,U,star,1,0,,,,,,,,,,,,,,,,repeat,number,numRpt,f,0.6383,Hi,,,,,,3,,,,,,,,low,14,0,14,0,1,,,,,,,,,
294520,2022-12-06_13h55.55.745,vts_reward_expectancy_bt,2022.2.4,MacIntel,60.0024001,Chrome,1440,900,,,,,0,981,,,,,,,,,,,,,,,,,174,W,triangle,1,0,,,,,,,,,,,,,,,,switch,letter,lettSwt,k,0.563,Hi,,,,,,3,,,,,,,,low,15,0,15,0,1,,,,,,,,,
294520,2022-12-06_13h55.55.745,vts_reward_expectancy_bt,2022.2.4,MacIntel,60.0024001,Chrome,1440,900,,,,,1,982,,,,,,,,,,,,,,,,,132,Y,hexagon,1,0,,,,,,,,,,,,,,,,repeat,letter,lettRpt,k,0.4986,Lo,,,,,,3,,,,,,,,low,16,0,16,0,1,,,,,,,,,
294520,2022-12-06_13h55.55.745,vts_reward_expectancy_bt,2022.2.4,MacIntel,60.0024001,Chrome,1440,900,,,,,0,982,,,,,,,,,,,,,,,,,146,D,star,1,0,,,,,,,,,,,,,,,,switch,number,numSwt,d,0.8371,Hi,,,,,,3,,,,,,,,low,17,0,17,0,1,,,,,,,,,
294520,2022-12-06_13h55.55.745,vts_reward_expectancy_bt,2022.2.4,MacIntel,60.0024001,Chrome,1440,900,,,,,0,982,,,,,,,,,,,,,,,,,174,F,triangle,1,0,,,,,,,,,,,,,,,,repeat,number,numRpt,f,0.614,Hi,,,,,,3,,,,,,,,low,18,0,18,0,1,,,,,,,,,
294520,2022-12-06_13h55.55.745,vts_reward_expectancy_bt,2022.2.4,MacIntel,60.0024001,Chrome,1440,900,,,,,10,992,,,,,,,,,,,,,,,,,125,H,circle,1,0,,,,,,,,,,,,,,,,repeat,number,numRpt,d,0.5838,Lo,,,,,,3,,,,,,,,low,19,0,19,0,1,,,,,,,,,
294520,2022-12-06_13h55.55.745,vts_reward_expectancy_bt,2022.2.4,MacIntel,60.0024001,Chrome,1440,900,,,,,10,1002,,,,,,,,,,,,,,,,,167,W,hexagon,1,0,,,,,,,,,,,,,,,,repeat,number,numRpt,f,0.4056,Lo,,,,,,3,,,,,,,,low,20,0,20,0,1,,,,,,,,,
294520,2022-12-06_13h55.55.745,vts_reward_expectancy_bt,2022.2.4,MacIntel,60.0024001,Chrome,1440,900,,,,,10,1012,,,,,,,,,,,,,,,,,181,S,triangle,1,0,,,,,,,,,,,,,,,,repeat,number,numRpt,f,0.4666,Hi,,,,,,3,,,,,,,,low,21,0,21,0,1,,,,,,,,,
294520,2022-12-06_13h55.55.745,vts_reward_expectancy_bt,2022.2.4,MacIntel,60.0024001,Chrome,1440,900,,,,,1,1013,,,,,,,,,,,,,,,,,139,B,circle,1,0,,,,,,,,,,,,,,,,repeat,number,numRpt,d,0.5986,Lo,,,,,,3,,,,,,,,low,22,0,22,0,1,,,,,,,,,
294520,2022-12-06_13h55.55.745,vts_reward_expectancy_bt,2022.2.4,MacIntel,60.0024001,Chrome,1440,900,,,,,0,1013,,,,,,,,,,,,,,,,,160,U,star,1,0,,,,,,,,,,,,,,,,repeat,number,numRpt,f,0.8434,Hi,,,,,,3,,,,,,,,low,23,0,23,0,1,,,,,,,,,
294520,2022-12-06_13h55.55.745,vts_reward_expectancy_bt,2022.2.4,MacIntel,60.0024001,Chrome,1440,900,,,,,1,1014,,,,,,,,,,,,,,,,,125,W,hexagon,1,0,,,,,,,,,,,,,,,,switch,letter,lettSwt,k,0.5821,Lo,,,,,,3,,,,,,,,low,24,0,24,0,1,,,,,,,,,
294520,2022-12-06_13h55.55.745,vts_reward_expectancy_bt,2022.2.4,MacIntel,60.0024001,Chrome,1440,900,,,,,10,1024,,,,,,,,,,,,,,,,,146,U,circle,1,0,,,,,,,,,,,,,,,,repeat,letter,lettRpt,k,0.716,Lo,,,,,,3,,,,,,,,low,25,0,25,0,1,,,,,,,,,
294520,2022-12-06_13h55.55.745,vts_reward_expectancy_bt,2022.2.4,MacIntel,60.0024001,Chrome,1440,900,,,,,1,1025,,,,,,,,,,,,,,,,,174,B,star,1,0,,,,,,,,,,,,,,,,repeat,letter,lettRpt,j,0.7837,Hi,,,,,,3,,,,,,,,low,26,0,26,0,1,,,,,,,,,
294520,2022-12-06_13h55.55.745,vts_reward_expectancy_bt,2022.2.4,MacIntel,60.0024001,Chrome,1440,900,,,,,0,1025,,,,,,,,,,,,,,,,,167,Y,triangle,1,0,,,,,,,,,,,,,,,,repeat,letter,lettRpt,k,0.9229,Hi,,,,,,3,,,,,,,,low,27,0,27,0,1,,,,,,,,,
294520,2022-12-06_13h55.55.745,vts_reward_expectancy_bt,2022.2.4,MacIntel,60.0024001,Chrome,1440,900,,,,,0,1025,,,,,,,,,,,,,,,,,160,D,star,1,0,,,,,,,,,,,,,,,,switch,number,numSwt,f,0.5657,Hi,,,,,,3,,,,,,,,low,28,0,28,0,1,,,,,,,,,
294520,2022-12-06_13h55.55.745,vts_reward_expectancy_bt,2022.2.4,MacIntel,60.0024001,Chrome,1440,900,,,,,10,1035,,,,,,,,,,,,,,,,,132,F,circle,1,0,,,,,,,,,,,,,,,,repeat,number,numRpt,d,0.532,Lo,,,,,,3,,,,,,,,low,29,0,29,0,1,,,,,,,,,
294520,2022-12-06_13h55.55.745,vts_reward_expectancy_bt,2022.2.4,MacIntel,60.0024001,Chrome,1440,900,,,,,10,1045,,,,,,,,,,,,,,,,,139,H,triangle,1,0,,,,,,,,,,,,,,,,repeat,number,numRpt,d,0.4966,Hi,,,,,,3,,,,,,,,low,30,0,30,0,1,,,,,,,,,
294520,2022-12-06_13h55.55.745,vts_reward_expectancy_bt,2022.2.4,MacIntel,60.0024001,Chrome,1440,900,,,,,1,1046,,,,,,,,,,,,,,,,,181,S,hexagon,1,0,,,,,,,,,,,,,,,,repeat,number,numRpt,f,0.6157,Lo,,,,,,3,,,,,,,,low,31,0,31,0,1,,,,,,,,,
294520,2022-12-06_13h55.55.745,vts_reward_expectancy_bt,2022.2.4,MacIntel,60.0024001,Chrome,1440,900,,,,,0,1046,,,,,,,,,,,,,,,,,139,U,triangle,1,0,,,,,,,,,,,,,,,,repeat,number,numRpt,d,0.6512,Hi,,,,,,4,,,,,,space,4.1329,low,0,0,0,0,1,,,,,,,,,
294520,2022-12-06_13h55.55.745,vts_reward_expectancy_bt,2022.2.4,MacIntel,60.0024001,Chrome,1440,900,,,,,10,1056,,,,,,,,,,,,,,,,,125,B,hexagon,1,0,,,,,,,,,,,,,,,,repeat,number,numRpt,d,0.5649,Lo,,,,,,4,,,,,,,,low,1,0,1,0,1,,,,,,,,,
294520,2022-12-06_13h55.55.745,vts_reward_expectancy_bt,2022.2.4,MacIntel,60.0024001,Chrome,1440,900,,,,,0,1056,,,,,,,,,,,,,,,,,146,Y,circle,0,0,,,,,,,,,,,,,,,,repeat,number,NA,f,0.4595,Lo,,,,,,4,,,,,,,,low,2,0,2,0,1,,,,,,,,,
294520,2022-12-06_13h55.55.745,vts_reward_expectancy_bt,2022.2.4,MacIntel,60.0024001,Chrome,1440,900,,,,,0,1056,,,,,,,,,,,,,,,,,132,W,star,1,1,,,,,,,,,,,,,,,,repeat,number,numRpt,d,0.5668,Hi,,,,,,4,,,,,,,,low,3,0,3,0,1,,,,,,,,,
294520,2022-12-06_13h55.55.745,vts_reward_expectancy_bt,2022.2.4,MacIntel,60.0024001,Chrome,1440,900,,,,,0,1056,,,,,,,,,,,,,,,,,160,S,triangle,0,0,,,,,,,,,,,,,,,,repeat,number,NA,d,0.4343,Hi,,,,,,4,,,,,,,,low,4,0,4,0,1,,,,,,,,,
294520,2022-12-06_13h55.55.745,vts_reward_expectancy_bt,2022.2.4,MacIntel,60.0024001,Chrome,1440,900,,,,,1,1057,,,,,,,,,,,,,,,,,174,F,hexagon,1,1,,,,,,,,,,,,,,,,repeat,number,numRpt,f,0.6824,Lo,,,,,,4,,,,,,,,low,5,0,5,0,1,,,,,,,,,
294520,2022-12-06_13h55.55.745,vts_reward_expectancy_bt,2022.2.4,MacIntel,60.0024001,Chrome,1440,900,,,,,10,1067,,,,,,,,,,,,,,,,,181,H,circle,1,0,,,,,,,,,,,,,,,,repeat,number,numRpt,f,0.5673,Lo,,,,,,4,,,,,,,,low,6,0,6,0,1,,,,,,,,,
294520,2022-12-06_13h55.55.745,vts_reward_expectancy_bt,2022.2.4,MacIntel,60.0024001,Chrome,1440,900,,,,,0,1067,,,,,,,,,,,,,,,,,167,D,star,0,0,,,,,,,,,,,,,,,,repeat,number,NA,d,0.6634,Lo,,,,,,4,,,,,,,,low,7,0,7,0,1,,,,,,,,,
294520,2022-12-06_13h55.55.745,vts_reward_expectancy_bt,2022.2.4,MacIntel,60.0024001,Chrome,1440,900,,,,,0,1067,,,,,,,,,,,,,,,,,139,U,circle,0,1,,,,,,,,,,,,,,,,switch,letter,NA,j,2.0468,Lo,,,,,,4,,,,,,,,low,8,0,8,0,1,,,,,,,,,
294520,2022-12-06_13h55.55.745,vts_reward_expectancy_bt,2022.2.4,MacIntel,60.0024001,Chrome,1440,900,,,,,10,1077,,,,,,,,,,,,,,,,,125,B,triangle,1,1,,,,,,,,,,,,,,,,repeat,letter,lettRpt,j,0.5692,Hi,,,,,,4,,,,,,,,low,9,0,9,0,1,,,,,,,,,
294520,2022-12-06_13h55.55.745,vts_reward_expectancy_bt,2022.2.4,MacIntel,60.0024001,Chrome,1440,900,,,,,10,1087,,,,,,,,,,,,,,,,,146,Y,star,1,0,,,,,,,,,,,,,,,,repeat,letter,lettRpt,k,0.53,Hi,,,,,,4,,,,,,,,low,10,0,10,0,1,,,,,,,,,
294520,2022-12-06_13h55.55.745,vts_reward_expectancy_bt,2022.2.4,MacIntel,60.0024001,Chrome,1440,900,,,,,1,1088,,,,,,,,,,,,,,,,,132,W,hexagon,1,0,,,,,,,,,,,,,,,,repeat,letter,lettRpt,k,0.5351,Lo,,,,,,4,,,,,,,,low,11,0,11,0,1,,,,,,,,,
294520,2022-12-06_13h55.55.745,vts_reward_expectancy_bt,2022.2.4,MacIntel,60.0024001,Chrome,1440,900,,,,,1,1089,,,,,,,,,,,,,,,,,160,S,circle,1,0,,,,,,,,,,,,,,,,switch,number,numSwt,f,0.4654,Lo,,,,,,4,,,,,,,,low,12,0,12,0,1,,,,,,,,,
294520,2022-12-06_13h55.55.745,vts_reward_expectancy_bt,2022.2.4,MacIntel,60.0024001,Chrome,1440,900,,,,,1,1090,,,,,,,,,,,,,,,,,174,F,triangle,1,0,,,,,,,,,,,,,,,,repeat,number,numRpt,f,0.3321,Hi,,,,,,4,,,,,,,,low,13,0,13,0,1,,,,,,,,,
294520,2022-12-06_13h55.55.745,vts_reward_expectancy_bt,2022.2.4,MacIntel,60.0024001,Chrome,1440,900,,,,,0,1090,,,,,,,,,,,,,,,,,181,H,hexagon,0,0,,,,,,,,,,,,,,,,switch,letter,NA,k,0.3823,Hi,,,,,,4,,,,,,,,low,14,0,14,0,1,,,,,,,,,
294520,2022-12-06_13h55.55.745,vts_reward_expectancy_bt,2022.2.4,MacIntel,60.0024001,Chrome,1440,900,,,,,0,1090,,,,,,,,,,,,,,,,,167,D,star,0,1,,,,,,,,,,,,,,,,repeat,letter,NA,k,0.566,Hi,,,,,,4,,,,,,,,low,15,0,15,0,1,,,,,,,,,
294520,2022-12-06_13h55.55.745,vts_reward_expectancy_bt,2022.2.4,MacIntel,60.0024001,Chrome,1440,900,,,,,0,1090,,,,,,,,,,,,,,,,,139,S,hexagon,0,1,,,,,,,,,,,,,,,,repeat,letter,NA,j,0.5225,Hi,,,,,,4,,,,,,,,low,16,0,16,0,1,,,,,,,,,
294520,2022-12-06_13h55.55.745,vts_reward_expectancy_bt,2022.2.4,MacIntel,60.0024001,Chrome,1440,900,,,,,10,1100,,,,,,,,,,,,,,,,,174,Y,triangle,1,1,,,,,,,,,,,,,,,,switch,number,numSwt,f,0.4677,Hi,,,,,,4,,,,,,,,low,17,0,17,0,1,,,,,,,,,
294520,2022-12-06_13h55.55.745,vts_reward_expectancy_bt,2022.2.4,MacIntel,60.0024001,Chrome,1440,900,,,,,10,1110,,,,,,,,,,,,,,,,,167,W,circle,1,0,,,,,,,,,,,,,,,,repeat,number,numRpt,f,0.6387,Lo,,,,,,4,,,,,,,,low,18,0,18,0,1,,,,,,,,,
294520,2022-12-06_13h55.55.745,vts_reward_expectancy_bt,2022.2.4,MacIntel,60.0024001,Chrome,1440,900,,,,,0,1110,,,,,,,,,,,,,,,,,146,U,star,1,0,,,,,,,,,,,,,,,,repeat,number,numRpt,d,0.5285,Hi,,,,,,4,,,,,,,,low,19,0,19,0,1,,,,,,,,,
294520,2022-12-06_13h55.55.745,vts_reward_expectancy_bt,2022.2.4,MacIntel,60.0024001,Chrome,1440,900,,,,,0,1110,,,,,,,,,,,,,,,,,160,D,hexagon,0,0,,,,,,,,,,,,,,,,repeat,number,NA,d,0.5122,Hi,,,,,,4,,,,,,,,low,20,0,20,0,1,,,,,,,,,
294520,2022-12-06_13h55.55.745,vts_reward_expectancy_bt,2022.2.4,MacIntel,60.0024001,Chrome,1440,900,,,,,1,1111,,,,,,,,,,,,,,,,,181,H,circle,1,1,,,,,,,,,,,,,,,,repeat,number,numRpt,f,0.5637,Lo,,,,,,4,,,,,,,,low,21,0,21,0,1,,,,,,,,,
294520,2022-12-06_13h55.55.745,vts_reward_expectancy_bt,2022.2.4,MacIntel,60.0024001,Chrome,1440,900,,,,,0,1111,,,,,,,,,,,,,,,,,132,F,triangle,1,0,,,,,,,,,,,,,,,,repeat,number,numRpt,d,0.7001,Hi,,,,,,4,,,,,,,,low,22,0,22,0,1,,,,,,,,,
294520,2022-12-06_13h55.55.745,vts_reward_expectancy_bt,2022.2.4,MacIntel,60.0024001,Chrome,1440,900,,,,,0,1111,,,,,,,,,,,,,,,,,125,B,star,1,0,,,,,,,,,,,,,,,,repeat,number,numRpt,d,0.5789,Hi,,,,,,4,,,,,,,,low,23,0,23,0,1,,,,,,,,,
294520,2022-12-06_13h55.55.745,vts_reward_expectancy_bt,2022.2.4,MacIntel,60.0024001,Chrome,1440,900,,,,,10,1121,,,,,,,,,,,,,,,,,146,W,hexagon,1,0,,,,,,,,,,,,,,,,switch,letter,lettSwt,k,0.2366,Lo,,,,,,4,,,,,,,,low,24,0,24,0,1,,,,,,,,,
294520,2022-12-06_13h55.55.745,vts_reward_expectancy_bt,2022.2.4,MacIntel,60.0024001,Chrome,1440,900,,,,,0,1121,,,,,,,,,,,,,,,,,139,Y,triangle,0,0,,,,,,,,,,,,,,,,switch,number,NA,f,0.0526,Lo,,,,,,4,,,,,,,,low,25,0,25,0,1,,,,,,,,,
294520,2022-12-06_13h55.55.745,vts_reward_expectancy_bt,2022.2.4,MacIntel,60.0024001,Chrome,1440,900,,,,,0,1121,,,,,,,,,,,,,,,,,167,B,star,0,1,,,,,,,,,,,,,,,,switch,letter,NA,k,0.1125,Lo,,,,,,4,,,,,,,,low,26,0,26,0,1,,,,,,,,,
294520,2022-12-06_13h55.55.745,vts_reward_expectancy_bt,2022.2.4,MacIntel,60.0024001,Chrome,1440,900,,,,,0,1121,,,,,,,,,,,,,,,,,174,F,circle,0,1,,,,,,,,,,,,,,,,repeat,letter,NA,k,0.0857,Lo,,,,,,4,,,,,,,,low,27,0,27,0,1,,,,,,,,,
294520,2022-12-06_13h55.55.745,vts_reward_expectancy_bt,2022.2.4,MacIntel,60.0024001,Chrome,1440,900,,,,,0,1121,,,,,,,,,,,,,,,,,160,S,hexagon,0,1,,,,,,,,,,,,,,,,repeat,letter,NA,j,0.051,Lo,,,,,,4,,,,,,,,low,28,0,28,0,1,,,,,,,,,
294520,2022-12-06_13h55.55.745,vts_reward_expectancy_bt,2022.2.4,MacIntel,60.0024001,Chrome,1440,900,,,,,0,1121,,,,,,,,,,,,,,,,,132,U,triangle,0,1,,,,,,,,,,,,,,,,switch,number,NA,f,0.532,Lo,,,,,,4,,,,,,,,low,29,0,29,0,1,,,,,,,,,
294520,2022-12-06_13h55.55.745,vts_reward_expectancy_bt,2022.2.4,MacIntel,60.0024001,Chrome,1440,900,,,,,0,1121,,,,,,,,,,,,,,,,,181,H,star,1,1,,,,,,,,,,,,,,,,repeat,number,numRpt,f,0.5632,Hi,,,,,,4,,,,,,,,low,30,0,30,0,1,,,,,,,,,
294520,2022-12-06_13h55.55.745,vts_reward_expectancy_bt,2022.2.4,MacIntel,60.0024001,Chrome,1440,900,,,,,1,1122,,,,,,,,,,,,,,,,,125,D,circle,1,0,,,,,,,,,,,,,,,,repeat,number,numRpt,d,0.6492,Lo,,,,,,4,,,,,,,,low,31,0,31,0,1,,,,,,,,,
294520,2022-12-06_13h55.55.745,vts_reward_expectancy_bt,2022.2.4,MacIntel,60.0024001,Chrome,1440,900,,,,,0,1122,,,,,,,,,,,,,,,,,160,H,triangle,1,0,,,,,,,,,,,,,,,,repeat,number,numRpt,f,0.7177,Hi,,,,,,5,,,,,,space,5.7591,low,0,0,0,0,1,,,,,,,,,
294520,2022-12-06_13h55.55.745,vts_reward_expectancy_bt,2022.2.4,MacIntel,60.0024001,Chrome,1440,900,,,,,10,1132,,,,,,,,,,,,,,,,,139,W,hexagon,1,0,,,,,,,,,,,,,,,,repeat,number,numRpt,d,0.5794,Lo,,,,,,5,,,,,,,,low,1,0,1,0,1,,,,,,,,,
294520,2022-12-06_13h55.55.745,vts_reward_expectancy_bt,2022.2.4,MacIntel,60.0024001,Chrome,1440,900,,,,,0,1132,,,,,,,,,,,,,,,,,181,Y,circle,0,0,,,,,,,,,,,,,,,,repeat,number,NA,d,0.3796,Lo,,,,,,5,,,,,,,,low,2,0,2,0,1,,,,,,,,,
294520,2022-12-06_13h55.55.745,vts_reward_expectancy_bt,2022.2.4,MacIntel,60.0024001,Chrome,1440,900,,,,,0,1132,,,,,,,,,,,,,,,,,146,S,star,1,1,,,,,,,,,,,,,,,,switch,letter,lettSwt,k,0.4314,Hi,,,,,,5,,,,,,,,low,3,0,3,0,1,,,,,,,,,
294520,2022-12-06_13h55.55.745,vts_reward_expectancy_bt,2022.2.4,MacIntel,60.0024001,Chrome,1440,900,,,,,0,1132,,,,,,,,,,,,,,,,,167,B,triangle,0,0,,,,,,,,,,,,,,,,repeat,letter,NA,k,0.4122,Hi,,,,,,5,,,,,,,,low,4,0,4,0,1,,,,,,,,,
294520,2022-12-06_13h55.55.745,vts_reward_expectancy_bt,2022.2.4,MacIntel,60.0024001,Chrome,1440,900,,,,,1,1133,,,,,,,,,,,,,,,,,132,F,hexagon,1,1,,,,,,,,,,,,,,,,repeat,letter,lettRpt,j,0.465,Lo,,,,,,5,,,,,,,,low,5,0,5,0,1,,,,,,,,,
294520,2022-12-06_13h55.55.745,vts_reward_expectancy_bt,2022.2.4,MacIntel,60.0024001,Chrome,1440,900,,,,,1,1134,,,,,,,,,,,,,,,,,174,U,circle,1,0,,,,,,,,,,,,,,,,repeat,letter,lettRpt,k,0.4327,Lo,,,,,,5,,,,,,,,low,6,0,6,0,1,,,,,,,,,
294520,2022-12-06_13h55.55.745,vts_reward_expectancy_bt,2022.2.4,MacIntel,60.0024001,Chrome,1440,900,,,,,10,1144,,,,,,,,,,,,,,,,,125,D,star,1,0,,,,,,,,,,,,,,,,repeat,letter,lettRpt,j,0.2488,Hi,,,,,,5,,,,,,,,low,7,0,7,0,1,,,,,,,,,
294520,2022-12-06_13h55.55.745,vts_reward_expectancy_bt,2022.2.4,MacIntel,60.0024001,Chrome,1440,900,,,,,10,1154,,,,,,,,,,,,,,,,,160,H,star,1,0,,,,,,,,,,,,,,,,switch,number,numSwt,f,0.3334,Hi,,,,,,5,,,,,,,,low,8,0,8,0,1,,,,,,,,,
294520,2022-12-06_13h55.55.745,vts_reward_expectancy_bt,2022.2.4,MacIntel,60.0024001,Chrome,1440,900,,,,,10,1164,,,,,,,,,,,,,,,,,139,W,circle,1,0,,,,,,,,,,,,,,,,repeat,number,numRpt,d,0.4149,Lo,,,,,,5,,,,,,,,low,9,0,9,0,1,,,,,,,,,
294520,2022-12-06_13h55.55.745,vts_reward_expectancy_bt,2022.2.4,MacIntel,60.0024001,Chrome,1440,900,,,,,1,1165,,,,,,,,,,,,,,,,,181,Y,hexagon,1,0,,,,,,,,,,,,,,,,repeat,number,numRpt,f,0.3632,Lo,,,,,,5,,,,,,,,low,10,0,10,0,1,,,,,,,,,
294520,2022-12-06_13h55.55.745,vts_reward_expectancy_bt,2022.2.4,MacIntel,60.0024001,Chrome,1440,900,,,,,0,1165,,,,,,,,,,,,,,,,,146,S,triangle,0,0,,,,,,,,,,,,,,,,switch,letter,NA,j,0.5294,Lo,,,,,,5,,,,,,,,low,11,0,11,0,1,,,,,,,,,
294520,2022-12-06_13h55.55.745,vts_reward_expectancy_bt,2022.2.4,MacIntel,60.0024001,Chrome,1440,900,,,,,10,1175,,,,,,,,,,,,,,,,,167,B,triangle,1,1,,,,,,,,,,,,,,,,repeat,letter,lettRpt,j,0.4295,Hi,,,,,,5,,,,,,,,low,12,0,12,0,1,,,,,,,,,
294520,2022-12-06_13h55.55.745,vts_reward_expectancy_bt,2022.2.4,MacIntel,60.0024001,Chrome,1440,900,,,,,0,1175,,,,,,,,,,,,,,,,,132,F,circle,0,0,,,,,,,,,,,,,,,,switch,number,NA,f,0.4795,Hi,,,,,,5,,,,,,,,low,13,0,13,0,1,,,,,,,,,
294520,2022-12-06_13h55.55.745,vts_reward_expectancy_bt,2022.2.4,MacIntel,60.0024001,Chrome,1440,900,,,,,10,1185,,,,,,,,,,,,,,,,,174,U,star,1,1,,,,,,,,,,,,,,,,repeat,number,numRpt,f,0.3632,Hi,,,,,,5,,,,,,,,low,14,0,14,0,1,,,,,,,,,
294520,2022-12-06_13h55.55.745,vts_reward_expectancy_bt,2022.2.4,MacIntel,60.0024001,Chrome,1440,900,,,,,0,1185,,,,,,,,,,,,,,,,,125,D,hexagon,0,0,,,,,,,,,,,,,,,,repeat,number,NA,f,0.4647,Hi,,,,,,5,,,,,,,,low,15,0,15,0,1,,,,,,,,,
294520,2022-12-06_13h55.55.745,vts_reward_expectancy_bt,2022.2.4,MacIntel,60.0024001,Chrome,1440,900,,,,,10,1195,,,,,,,,,,,,,,,,,125,W,triangle,1,1,,,,,,,,,,,,,,,,repeat,number,numRpt,d,0.3995,Hi,,,,,,5,,,,,,,,low,16,0,16,0,1,,,,,,,,,
294520,2022-12-06_13h55.55.745,vts_reward_expectancy_bt,2022.2.4,MacIntel,60.0024001,Chrome,1440,900,,,,,10,1205,,,,,,,,,,,,,,,,,132,F,hexagon,1,0,,,,,,,,,,,,,,,,switch,letter,lettSwt,j,0.5673,Lo,,,,,,5,,,,,,,,low,17,0,17,0,1,,,,,,,,,
294520,2022-12-06_13h55.55.745,vts_reward_expectancy_bt,2022.2.4,MacIntel,60.0024001,Chrome,1440,900,,,,,0,1205,,,,,,,,,,,,,,,,,160,H,circle,0,0,,,,,,,,,,,,,,,,repeat,letter,NA,k,0.454,Lo,,,,,,5,,,,,,,,low,18,0,18,0,1,,,,,,,,,
294520,2022-12-06_13h55.55.745,vts_reward_expectancy_bt,2022.2.4,MacIntel,60.0024001,Chrome,1440,900,,,,,1,1206,,,,,,,,,,,,,,,,,167,S,star,1,1,,,,,,,,,,,,,,,,repeat,letter,lettRpt,k,0.4198,Hi,,,,,,5,,,,,,,,low,19,0,19,0,1,,,,,,,,,
294520,2022-12-06_13h55.55.745,vts_reward_expectancy_bt,2022.2.4,MacIntel,60.0024001,Chrome,1440,900,,,,,10,1216,,,,,,,,,,,,,,,,,146,B,hexagon,1,0,,,,,,,,,,,,,,,,repeat,letter,lettRpt,j,0.4988,Lo,,,,,,5,,,,,,,,low,20,0,20,0,1,,,,,,,,,
294520,2022-12-06_13h55.55.745,vts_reward_expectancy_bt,2022.2.4,MacIntel,60.0024001,Chrome,1440,900,,,,,0,1216,,,,,,,,,,,,,,,,,174,Y,star,1,0,,,,,,,,,,,,,,,,repeat,letter,lettRpt,k,0.6512,Hi,,,,,,5,,,,,,,,low,21,0,21,0,1,,,,,,,,,
294520,2022-12-06_13h55.55.745,vts_reward_expectancy_bt,2022.2.4,MacIntel,60.0024001,Chrome,1440,900,,,,,1,1217,,,,,,,,,,,,,,,,,139,U,triangle,1,0,,,,,,,,,,,,,,,,repeat,letter,lettRpt,k,0.5324,Hi,,,,,,5,,,,,,,,low,22,0,22,0,1,,,,,,,,,
294520,2022-12-06_13h55.55.745,vts_reward_expectancy_bt,2022.2.4,MacIntel,60.0024001,Chrome,1440,900,,,,,1,1218,,,,,,,,,,,,,,,,,181,D,circle,1,0,,,,,,,,,,,,,,,,switch,number,numSwt,f,0.4799,Lo,,,,,,5,,,,,,,,low,23,0,23,0,1,,,,,,,,,
294520,2022-12-06_13h55.55.745,vts_reward_expectancy_bt,2022.2.4,MacIntel,60.0024001,Chrome,1440,900,,,,,10,1228,,,,,,,,,,,,,,,,,181,Y,circle,1,0,,,,,,,,,,,,,,,,repeat,number,numRpt,f,0.4008,Lo,,,,,,5,,,,,,,,low,24,0,24,0,1,,,,,,,,,
294520,2022-12-06_13h55.55.745,vts_reward_expectancy_bt,2022.2.4,MacIntel,60.0024001,Chrome,1440,900,,,,,1,1229,,,,,,,,,,,,,,,,,167,F,hexagon,1,0,,,,,,,,,,,,,,,,repeat,number,numRpt,f,0.7305,Lo,,,,,,5,,,,,,,,low,25,0,25,0,1,,,,,,,,,
294520,2022-12-06_13h55.55.745,vts_reward_expectancy_bt,2022.2.4,MacIntel,60.0024001,Chrome,1440,900,,,,,0,1229,,,,,,,,,,,,,,,,,174,B,triangle,0,0,,,,,,,,,,,,,,,,switch,letter,NA,k,0.4523,Lo,,,,,,5,,,,,,,,low,26,0,26,0,1,,,,,,,,,
294520,2022-12-06_13h55.55.745,vts_reward_expectancy_bt,2022.2.4,MacIntel,60.0024001,Chrome,1440,900,,,,,0,1229,,,,,,,,,,,,,,,,,160,H,star,1,1,,,,,,,,,,,,,,,,repeat,letter,lettRpt,j,0.763,Hi,,,,,,5,,,,,,,,low,27,0,27,0,1,,,,,,,,,
294520,2022-12-06_13h55.55.745,vts_reward_expectancy_bt,2022.2.4,MacIntel,60.0024001,Chrome,1440,900,,,,,0,1229,,,,,,,,,,,,,,,,,139,S,triangle,0,0,,,,,,,,,,,,,,,,repeat,letter,NA,j,0.6653,Hi,,,,,,5,,,,,,,,low,28,0,28,0,1,,,,,,,,,
294520,2022-12-06_13h55.55.745,vts_reward_expectancy_bt,2022.2.4,MacIntel,60.0024001,Chrome,1440,900,,,,,1,1230,,,,,,,,,,,,,,,,,146,D,circle,1,1,,,,,,,,,,,,,,,,repeat,letter,lettRpt,j,0.0155,Lo,,,,,,5,,,,,,,,low,29,0,29,0,1,,,,,,,,,
294520,2022-12-06_13h55.55.745,vts_reward_expectancy_bt,2022.2.4,MacIntel,60.0024001,Chrome,1440,900,,,,,1,1231,,,,,,,,,,,,,,,,,132,U,star,1,0,,,,,,,,,,,,,,,,repeat,letter,lettRpt,k,0.399,Hi,,,,,,5,,,,,,,,low,30,0,30,0,1,,,,,,,,,
294520,2022-12-06_13h55.55.745,vts_reward_expectancy_bt,2022.2.4,MacIntel,60.0024001,Chrome,1440,900,,,,,10,1241,,,,,,,,,,,,,,,,,125,W,hexagon,1,0,,,,,,,,,,,,,,,,repeat,letter,lettRpt,k,0.6487,Lo,,,,,,5,,,,,,,,low,31,0,31,0,1,,,,,,,,,
294520,2022-12-06_13h55.55.745,vts_reward_expectancy_bt,2022.2.4,MacIntel,60.0024001,Chrome,1440,900,,,,,10,1251,,,,,,,,,,,,,,,,,181,D,circle,1,0,,,,,,,,,,,,,,,,switch,number,numSwt,f,0.4942,Lo,,,,,,6,,,,,,space,2.2776,low,0,0,0,0,1,,,,,,,,,
294520,2022-12-06_13h55.55.745,vts_reward_expectancy_bt,2022.2.4,MacIntel,60.0024001,Chrome,1440,900,,,,,10,1261,,,,,,,,,,,,,,,,,132,H,hexagon,1,0,,,,,,,,,,,,,,,,repeat,number,numRpt,d,0.5625,Lo,,,,,,6,,,,,,,,low,1,0,1,0,1,,,,,,,,,
294520,2022-12-06_13h55.55.745,vts_reward_expectancy_bt,2022.2.4,MacIntel,60.0024001,Chrome,1440,900,,,,,0,1261,,,,,,,,,,,,,,,,,167,Y,star,0,0,,,,,,,,,,,,,,,,switch,letter,NA,j,0.3963,Lo,,,,,,6,,,,,,,,low,2,0,2,0,1,,,,,,,,,
294520,2022-12-06_13h55.55.745,vts_reward_expectancy_bt,2022.2.4,MacIntel,60.0024001,Chrome,1440,900,,,,,0,1261,,,,,,,,,,,,,,,,,146,W,triangle,1,1,,,,,,,,,,,,,,,,repeat,letter,lettRpt,k,0.6127,Hi,,,,,,6,,,,,,,,low,3,0,3,0,1,,,,,,,,,
294520,2022-12-06_13h55.55.745,vts_reward_expectancy_bt,2022.2.4,MacIntel,60.0024001,Chrome,1440,900,,,,,1,1262,,,,,,,,,,,,,,,,,125,U,circle,1,0,,,,,,,,,,,,,,,,repeat,letter,lettRpt,k,0.3323,Lo,,,,,,6,,,,,,,,low,4,0,4,0,1,,,,,,,,,
294520,2022-12-06_13h55.55.745,vts_reward_expectancy_bt,2022.2.4,MacIntel,60.0024001,Chrome,1440,900,,,,,0,1262,,,,,,,,,,,,,,,,,139,F,hexagon,0,0,,,,,,,,,,,,,,,,repeat,letter,NA,k,0.403,Lo,,,,,,6,,,,,,,,low,5,0,5,0,1,,,,,,,,,
294520,2022-12-06_13h55.55.745,vts_reward_expectancy_bt,2022.2.4,MacIntel,60.0024001,Chrome,1440,900,,,,,0,1262,,,,,,,,,,,,,,,,,160,S,star,0,1,,,,,,,,,,,,,,,,repeat,letter,NA,j,0.3674,Lo,,,,,,6,,,,,,,,low,6,0,6,0,1,,,,,,,,,
294520,2022-12-06_13h55.55.745,vts_reward_expectancy_bt,2022.2.4,MacIntel,60.0024001,Chrome,1440,900,,,,,0,1262,,,,,,,,,,,,,,,,,174,B,triangle,0,1,,,,,,,,,,,,,,,,repeat,letter,NA,k,0.2466,Lo,,,,,,6,,,,,,,,low,7,0,7,0,1,,,,,,,,,
294520,2022-12-06_13h55.55.745,vts_reward_expectancy_bt,2022.2.4,MacIntel,60.0024001,Chrome,1440,900,,,,,0,1262,,,,,,,,,,,,,,,,,181,D,star,0,1,,,,,,,,,,,,,,,,repeat,letter,NA,k,0.0006,Lo,,,,,,6,,,,,,,,low,8,0,8,0,1,,,,,,,,,
294520,2022-12-06_13h55.55.745,vts_reward_expectancy_bt,2022.2.4,MacIntel,60.0024001,Chrome,1440,900,,,,,1,1263,,,,,,,,,,,,,,,,,132,H,triangle,1,1,,,,,,,,,,,,,,,,repeat,letter,lettRpt,j,0.0675,Hi,,,,,,6,,,,,,,,low,9,0,9,0,1,,,,,,,,,
294520,2022-12-06_13h55.55.745,vts_reward_expectancy_bt,2022.2.4,MacIntel,60.0024001,Chrome,1440,900,,,,,10,1273,,,,,,,,,,,,,,,,,167,Y,hexagon,1,0,,,,,,,,,,,,,,,,repeat,letter,lettRpt,k,0.4307,Lo,,,,,,6,,,,,,,,low,10,0,10,0,1,,,,,,,,,
294520,2022-12-06_13h55.55.745,vts_reward_expectancy_bt,2022.2.4,MacIntel,60.0024001,Chrome,1440,900,,,,,0,1273,,,,,,,,,,,,,,,,,146,W,circle,0,0,,,,,,,,,,,,,,,,switch,number,NA,f,0.4637,Lo,,,,,,6,,,,,,,,low,11,0,11,0,1,,,,,,,,,
294520,2022-12-06_13h55.55.745,vts_reward_expectancy_bt,2022.2.4,MacIntel,60.0024001,Chrome,1440,900,,,,,1,1274,,,,,,,,,,,,,,,,,125,U,circle,1,1,,,,,,,,,,,,,,,,repeat,number,numRpt,d,0.6311,Lo,,,,,,6,,,,,,,,low,12,0,12,0,1,,,,,,,,,
294520,2022-12-06_13h55.55.745,vts_reward_expectancy_bt,2022.2.4,MacIntel,60.0024001,Chrome,1440,900,,,,,0,1274,,,,,,,,,,,,,,,,,139,F,star,1,0,,,,,,,,,,,,,,,,repeat,number,numRpt,d,0.4965,Hi,,,,,,6,,,,,,,,low,13,0,13,0,1,,,,,,,,,
