participant,date,expName,psychopyVersion,OS,frameRate,browser,xResolution,yResolution,key_resp.keys,key_resp.rt,training_resp.keys,training_resp.rt,points_trial,points_cumul,trainBlock,training.thisRepN,training.thisTrialN,training.thisN,training.thisIndex,training.ran,LTriangleOpac,LCircleOpac,LHexagonOpac,LStarOpac,RTriangleOpac,RCircleOpac,RHexagonOpac,RStarOpac,LShape_ID,RShape_ID,curr_topStim,curr_bottStim,curr_shape,acc,E1,target_resp_prac1.keys,pracBlock,task1_prac_trials.thisRepN,task1_prac_trials.thisTrialN,task1_prac_trials.thisN,task1_prac_trials.thisIndex,task1_prac_trials.ran,target_resp_prac1.rt,target_resp_prac2.keys,target_resp_prac2.rt,task2_praac_trials.thisRepN,task2_praac_trials.thisTrialN,task2_praac_trials.thisN,task2_praac_trials.thisIndex,task2_praac_trials.ran,alt,task,condition,target_resp.keys,target_resp.rt,rewCond,vts_practice_trials.thisRepN,vts_practice_trials.thisTrialN,vts_practice_trials.thisN,vts_practice_trials.thisIndex,vts_practice_trials.ran,blockNum,trials_norew.thisRepN,trials_norew.thisTrialN,trials_norew.thisN,trials_norew.thisIndex,trials_norew.ran,key_resp_2.keys,key_resp_2.rt,rewExpectancy,trials_rew.thisRepN,trials_rew.thisTrialN,trials_rew.thisN,trials_rew.thisIndex,trials_rew.ran,Q1,Q2,Q2_text,Q3,Q4,Q5_text,Q5,xRes,yRes
294562,2022-11-28_16h15.04.120,vts_reward_expectancy_bt,2022.2.4,MacIntel,60.04202942,Chrome,1440,900,,,,,,,,,,,,,,,,,,,,,,,,,,,,,,,,,,,,,,,,,,,,,,,,,,,,,,,,,,,,,,,,,,,,,,,,,,,,
294562,2022-11-28_16h15.04.120,vts_reward_expectancy_bt,2022.2.4,MacIntel,60.04202942,Chrome,1440,900,space,36.0847,,,,,,,,,,,,,,,,,,,,,,,,,,,,,,,,,,,,,,,,,,,,,,,,,,,,,,,,,,,,,,,,,,,,,,,,,,
294562,2022-11-28_16h15.04.120,vts_reward_expectancy_bt,2022.2.4,MacIntel,60.04202942,Chrome,1440,900,,,,,,,,,,,,,,,,,,,,,,,,,,,,,,,,,,,,,,,,,,,,,,,,,,,,,,,,,,,,,,,,,,,,,,,,,,,,
294562,2022-11-28_16h15.04.120,vts_reward_expectancy_bt,2022.2.4,MacIntel,60.04202942,Chrome,1440,900,,,a,3.4615,10,10,0,0,0,0,3,1,0,1,0,0,1,0,0,0,circle,triangle,,,,,,,,,,,,,,,,,,,,,,,,,,,,,,,,,,,,,,,,,,,,,,,,,,,,,,
294562,2022-11-28_16h15.04.120,vts_reward_expectancy_bt,2022.2.4,MacIntel,60.04202942,Chrome,1440,900,,,l,3.0794,1,11,0,0,1,1,6,1,0,0,1,0,1,0,0,0,hexagon,triangle,,,,,,,,,,,,,,,,,,,,,,,,,,,,,,,,,,,,,,,,,,,,,,,,,,,,,,
294562,2022-11-28_16h15.04.120,vts_reward_expectancy_bt,2022.2.4,MacIntel,60.04202942,Chrome,1440,900,,,a,2.0134,10,21,0,0,2,2,2,1,1,0,0,0,0,0,0,1,triangle,star,,,,,,,,,,,,,,,,,,,,,,,,,,,,,,,,,,,,,,,,,,,,,,,,,,,,,,
294562,2022-11-28_16h15.04.120,vts_reward_expectancy_bt,2022.2.4,MacIntel,60.04202942,Chrome,1440,900,,,l,2.234,10,31,0,0,3,3,11,1,0,0,0,1,0,0,1,0,star,hexagon,,,,,,,,,,,,,,,,,,,,,,,,,,,,,,,,,,,,,,,,,,,,,,,,,,,,,,
294562,2022-11-28_16h15.04.120,vts_reward_expectancy_bt,2022.2.4,MacIntel,60.04202942,Chrome,1440,900,,,l,2.2991,1,32,0,0,4,4,0,1,1,0,0,0,0,1,0,0,triangle,circle,,,,,,,,,,,,,,,,,,,,,,,,,,,,,,,,,,,,,,,,,,,,,,,,,,,,,,
294562,2022-11-28_16h15.04.120,vts_reward_expectancy_bt,2022.2.4,MacIntel,60.04202942,Chrome,1440,900,,,l,2.6128,10,42,0,0,5,5,10,1,0,0,0,1,0,1,0,0,star ,circle,,,,,,,,,,,,,,,,,,,,,,,,,,,,,,,,,,,,,,,,,,,,,,,,,,,,,,
294562,2022-11-28_16h15.04.120,vts_reward_expectancy_bt,2022.2.4,MacIntel,60.04202942,Chrome,1440,900,,,l,3.116,1,43,0,0,6,6,7,1,0,0,1,0,0,1,0,0,hexagon,circle,,,,,,,,,,,,,,,,,,,,,,,,,,,,,,,,,,,,,,,,,,,,,,,,,,,,,,
294562,2022-11-28_16h15.04.120,vts_reward_expectancy_bt,2022.2.4,MacIntel,60.04202942,Chrome,1440,900,,,a,2.9654,1,44,0,0,7,7,1,1,1,0,0,0,0,0,1,0,triangle,hexagon,,,,,,,,,,,,,,,,,,,,,,,,,,,,,,,,,,,,,,,,,,,,,,,,,,,,,,
294562,2022-11-28_16h15.04.120,vts_reward_expectancy_bt,2022.2.4,MacIntel,60.04202942,Chrome,1440,900,,,a,2.6047,10,54,0,0,8,8,8,1,0,0,1,0,0,0,0,1,hexagon,star,,,,,,,,,,,,,,,,,,,,,,,,,,,,,,,,,,,,,,,,,,,,,,,,,,,,,,
294562,2022-11-28_16h15.04.120,vts_reward_expectancy_bt,2022.2.4,MacIntel,60.04202942,Chrome,1440,900,,,a,1.7488,1,55,0,0,9,9,5,1,0,1,0,0,0,0,0,1,circle,star,,,,,,,,,,,,,,,,,,,,,,,,,,,,,,,,,,,,,,,,,,,,,,,,,,,,,,
294562,2022-11-28_16h15.04.120,vts_reward_expectancy_bt,2022.2.4,MacIntel,60.04202942,Chrome,1440,900,,,l,8.0244,1,56,0,0,10,10,9,1,0,0,0,1,1,0,0,0,star,triangle,,,,,,,,,,,,,,,,,,,,,,,,,,,,,,,,,,,,,,,,,,,,,,,,,,,,,,
294562,2022-11-28_16h15.04.120,vts_reward_expectancy_bt,2022.2.4,MacIntel,60.04202942,Chrome,1440,900,,,l,2.0523,10,66,0,0,11,11,4,1,0,1,0,0,0,0,1,0,circle,hexagon,,,,,,,,,,,,,,,,,,,,,,,,,,,,,,,,,,,,,,,,,,,,,,,,,,,,,,
294562,2022-11-28_16h15.04.120,vts_reward_expectancy_bt,2022.2.4,MacIntel,60.04202942,Chrome,1440,900,,,a,1.667,10,76,0,1,0,12,7,1,0,0,1,0,0,1,0,0,hexagon,circle,,,,,,,,,,,,,,,,,,,,,,,,,,,,,,,,,,,,,,,,,,,,,,,,,,,,,,
294562,2022-11-28_16h15.04.120,vts_reward_expectancy_bt,2022.2.4,MacIntel,60.04202942,Chrome,1440,900,,,a,1.515,1,77,0,1,1,13,9,1,0,0,0,1,1,0,0,0,star,triangle,,,,,,,,,,,,,,,,,,,,,,,,,,,,,,,,,,,,,,,,,,,,,,,,,,,,,,
294562,2022-11-28_16h15.04.120,vts_reward_expectancy_bt,2022.2.4,MacIntel,60.04202942,Chrome,1440,900,,,l,1.5205,10,87,0,1,2,14,4,1,0,1,0,0,0,0,1,0,circle,hexagon,,,,,,,,,,,,,,,,,,,,,,,,,,,,,,,,,,,,,,,,,,,,,,,,,,,,,,
294562,2022-11-28_16h15.04.120,vts_reward_expectancy_bt,2022.2.4,MacIntel,60.04202942,Chrome,1440,900,,,l,1.6949,1,88,0,1,3,15,0,1,1,0,0,0,0,1,0,0,triangle,circle,,,,,,,,,,,,,,,,,,,,,,,,,,,,,,,,,,,,,,,,,,,,,,,,,,,,,,
294562,2022-11-28_16h15.04.120,vts_reward_expectancy_bt,2022.2.4,MacIntel,60.04202942,Chrome,1440,900,,,a,1.7857,10,98,0,1,4,16,6,1,0,0,1,0,1,0,0,0,hexagon,triangle,,,,,,,,,,,,,,,,,,,,,,,,,,,,,,,,,,,,,,,,,,,,,,,,,,,,,,
294562,2022-11-28_16h15.04.120,vts_reward_expectancy_bt,2022.2.4,MacIntel,60.04202942,Chrome,1440,900,,,a,2.3296,10,108,0,1,5,17,10,1,0,0,0,1,0,1,0,0,star ,circle,,,,,,,,,,,,,,,,,,,,,,,,,,,,,,,,,,,,,,,,,,,,,,,,,,,,,,
294562,2022-11-28_16h15.04.120,vts_reward_expectancy_bt,2022.2.4,MacIntel,60.04202942,Chrome,1440,900,,,l,1.6498,10,118,0,1,6,18,5,1,0,1,0,0,0,0,0,1,circle,star,,,,,,,,,,,,,,,,,,,,,,,,,,,,,,,,,,,,,,,,,,,,,,,,,,,,,,
294562,2022-11-28_16h15.04.120,vts_reward_expectancy_bt,2022.2.4,MacIntel,60.04202942,Chrome,1440,900,,,l,1.1998,10,128,0,1,7,19,1,1,1,0,0,0,0,0,1,0,triangle,hexagon,,,,,,,,,,,,,,,,,,,,,,,,,,,,,,,,,,,,,,,,,,,,,,,,,,,,,,
294562,2022-11-28_16h15.04.120,vts_reward_expectancy_bt,2022.2.4,MacIntel,60.04202942,Chrome,1440,900,,,a,2.574,10,138,0,1,8,20,3,1,0,1,0,0,1,0,0,0,circle,triangle,,,,,,,,,,,,,,,,,,,,,,,,,,,,,,,,,,,,,,,,,,,,,,,,,,,,,,
294562,2022-11-28_16h15.04.120,vts_reward_expectancy_bt,2022.2.4,MacIntel,60.04202942,Chrome,1440,900,,,l,1.5624,1,139,0,1,9,21,2,1,1,0,0,0,0,0,0,1,triangle,star,,,,,,,,,,,,,,,,,,,,,,,,,,,,,,,,,,,,,,,,,,,,,,,,,,,,,,
294562,2022-11-28_16h15.04.120,vts_reward_expectancy_bt,2022.2.4,MacIntel,60.04202942,Chrome,1440,900,,,l,1.1993,1,140,0,1,10,22,8,1,0,0,1,0,0,0,0,1,hexagon,star,,,,,,,,,,,,,,,,,,,,,,,,,,,,,,,,,,,,,,,,,,,,,,,,,,,,,,
294562,2022-11-28_16h15.04.120,vts_reward_expectancy_bt,2022.2.4,MacIntel,60.04202942,Chrome,1440,900,,,l,1.4719,10,150,0,1,11,23,11,1,0,0,0,1,0,0,1,0,star,hexagon,,,,,,,,,,,,,,,,,,,,,,,,,,,,,,,,,,,,,,,,,,,,,,,,,,,,,,
294562,2022-11-28_16h15.04.120,vts_reward_expectancy_bt,2022.2.4,MacIntel,60.04202942,Chrome,1440,900,,,l,2.7701,10,160,0,2,0,24,5,1,0,1,0,0,0,0,0,1,circle,star,,,,,,,,,,,,,,,,,,,,,,,,,,,,,,,,,,,,,,,,,,,,,,,,,,,,,,
294562,2022-11-28_16h15.04.120,vts_reward_expectancy_bt,2022.2.4,MacIntel,60.04202942,Chrome,1440,900,,,l,3.0659,10,170,0,2,1,25,10,1,0,0,0,1,0,1,0,0,star ,circle,,,,,,,,,,,,,,,,,,,,,,,,,,,,,,,,,,,,,,,,,,,,,,,,,,,,,,
294562,2022-11-28_16h15.04.120,vts_reward_expectancy_bt,2022.2.4,MacIntel,60.04202942,Chrome,1440,900,,,a,1.6325,1,171,0,2,2,26,6,1,0,0,1,0,1,0,0,0,hexagon,triangle,,,,,,,,,,,,,,,,,,,,,,,,,,,,,,,,,,,,,,,,,,,,,,,,,,,,,,
294562,2022-11-28_16h15.04.120,vts_reward_expectancy_bt,2022.2.4,MacIntel,60.04202942,Chrome,1440,900,,,a,2.9089,1,172,0,2,3,27,7,1,0,0,1,0,0,1,0,0,hexagon,circle,,,,,,,,,,,,,,,,,,,,,,,,,,,,,,,,,,,,,,,,,,,,,,,,,,,,,,
294562,2022-11-28_16h15.04.120,vts_reward_expectancy_bt,2022.2.4,MacIntel,60.04202942,Chrome,1440,900,,,l,1.5091,1,173,0,2,4,28,0,1,1,0,0,0,0,1,0,0,triangle,circle,,,,,,,,,,,,,,,,,,,,,,,,,,,,,,,,,,,,,,,,,,,,,,,,,,,,,,
294562,2022-11-28_16h15.04.120,vts_reward_expectancy_bt,2022.2.4,MacIntel,60.04202942,Chrome,1440,900,,,a,0.8192,1,174,0,2,5,29,8,1,0,0,1,0,0,0,0,1,hexagon,star,,,,,,,,,,,,,,,,,,,,,,,,,,,,,,,,,,,,,,,,,,,,,,,,,,,,,,
294562,2022-11-28_16h15.04.120,vts_reward_expectancy_bt,2022.2.4,MacIntel,60.04202942,Chrome,1440,900,,,a,2.2768,10,184,0,2,6,30,4,1,0,1,0,0,0,0,1,0,circle,hexagon,,,,,,,,,,,,,,,,,,,,,,,,,,,,,,,,,,,,,,,,,,,,,,,,,,,,,,
294562,2022-11-28_16h15.04.120,vts_reward_expectancy_bt,2022.2.4,MacIntel,60.04202942,Chrome,1440,900,,,l,1.6144,1,185,0,2,7,31,2,1,1,0,0,0,0,0,0,1,triangle,star,,,,,,,,,,,,,,,,,,,,,,,,,,,,,,,,,,,,,,,,,,,,,,,,,,,,,,
294562,2022-11-28_16h15.04.120,vts_reward_expectancy_bt,2022.2.4,MacIntel,60.04202942,Chrome,1440,900,,,a,1.5496,1,186,0,2,8,32,9,1,0,0,0,1,1,0,0,0,star,triangle,,,,,,,,,,,,,,,,,,,,,,,,,,,,,,,,,,,,,,,,,,,,,,,,,,,,,,
294562,2022-11-28_16h15.04.120,vts_reward_expectancy_bt,2022.2.4,MacIntel,60.04202942,Chrome,1440,900,,,l,1.8148,1,187,0,2,9,33,1,1,1,0,0,0,0,0,1,0,triangle,hexagon,,,,,,,,,,,,,,,,,,,,,,,,,,,,,,,,,,,,,,,,,,,,,,,,,,,,,,
294562,2022-11-28_16h15.04.120,vts_reward_expectancy_bt,2022.2.4,MacIntel,60.04202942,Chrome,1440,900,,,a,2.5828,1,188,0,2,10,34,3,1,0,1,0,0,1,0,0,0,circle,triangle,,,,,,,,,,,,,,,,,,,,,,,,,,,,,,,,,,,,,,,,,,,,,,,,,,,,,,
294562,2022-11-28_16h15.04.120,vts_reward_expectancy_bt,2022.2.4,MacIntel,60.04202942,Chrome,1440,900,,,a,1.4328,1,189,0,2,11,35,11,1,0,0,0,1,0,0,1,0,star,hexagon,,,,,,,,,,,,,,,,,,,,,,,,,,,,,,,,,,,,,,,,,,,,,,,,,,,,,,
294562,2022-11-28_16h15.04.120,vts_reward_expectancy_bt,2022.2.4,MacIntel,60.04202942,Chrome,1440,900,,,l,2.5132,10,199,1,0,0,0,1,1,1,0,0,0,0,0,1,0,triangle,hexagon,,,,,,,,,,,,,,,,,,,,,,,,,,,,,,,,,,,,,,,,,,,,,,,,,,,,,,
294562,2022-11-28_16h15.04.120,vts_reward_expectancy_bt,2022.2.4,MacIntel,60.04202942,Chrome,1440,900,,,a,1.3652,10,209,1,0,1,1,8,1,0,0,1,0,0,0,0,1,hexagon,star,,,,,,,,,,,,,,,,,,,,,,,,,,,,,,,,,,,,,,,,,,,,,,,,,,,,,,
294562,2022-11-28_16h15.04.120,vts_reward_expectancy_bt,2022.2.4,MacIntel,60.04202942,Chrome,1440,900,,,l,2.3035,10,219,1,0,2,2,0,1,1,0,0,0,0,1,0,0,triangle,circle,,,,,,,,,,,,,,,,,,,,,,,,,,,,,,,,,,,,,,,,,,,,,,,,,,,,,,
294562,2022-11-28_16h15.04.120,vts_reward_expectancy_bt,2022.2.4,MacIntel,60.04202942,Chrome,1440,900,,,a,1.058,10,229,1,0,3,3,7,1,0,0,1,0,0,1,0,0,hexagon,circle,,,,,,,,,,,,,,,,,,,,,,,,,,,,,,,,,,,,,,,,,,,,,,,,,,,,,,
294562,2022-11-28_16h15.04.120,vts_reward_expectancy_bt,2022.2.4,MacIntel,60.04202942,Chrome,1440,900,,,l,1.0371,10,239,1,0,4,4,5,1,0,1,0,0,0,0,0,1,circle,star,,,,,,,,,,,,,,,,,,,,,,,,,,,,,,,,,,,,,,,,,,,,,,,,,,,,,,
294562,2022-11-28_16h15.04.120,vts_reward_expectancy_bt,2022.2.4,MacIntel,60.04202942,Chrome,1440,900,,,a,1.0004,10,249,1,0,5,5,9,1,0,0,0,1,1,0,0,0,star,triangle,,,,,,,,,,,,,,,,,,,,,,,,,,,,,,,,,,,,,,,,,,,,,,,,,,,,,,
294562,2022-11-28_16h15.04.120,vts_reward_expectancy_bt,2022.2.4,MacIntel,60.04202942,Chrome,1440,900,,,l,0.8669,1,250,1,0,6,6,4,1,0,1,0,0,0,0,1,0,circle,hexagon,,,,,,,,,,,,,,,,,,,,,,,,,,,,,,,,,,,,,,,,,,,,,,,,,,,,,,
294562,2022-11-28_16h15.04.120,vts_reward_expectancy_bt,2022.2.4,MacIntel,60.04202942,Chrome,1440,900,,,l,0.8329,10,260,1,0,7,7,11,1,0,0,0,1,0,0,1,0,star,hexagon,,,,,,,,,,,,,,,,,,,,,,,,,,,,,,,,,,,,,,,,,,,,,,,,,,,,,,
294562,2022-11-28_16h15.04.120,vts_reward_expectancy_bt,2022.2.4,MacIntel,60.04202942,Chrome,1440,900,,,a,1.0348,10,270,1,0,8,8,10,1,0,0,0,1,0,1,0,0,star ,circle,,,,,,,,,,,,,,,,,,,,,,,,,,,,,,,,,,,,,,,,,,,,,,,,,,,,,,
294562,2022-11-28_16h15.04.120,vts_reward_expectancy_bt,2022.2.4,MacIntel,60.04202942,Chrome,1440,900,,,l,0.8689,10,280,1,0,9,9,2,1,1,0,0,0,0,0,0,1,triangle,star,,,,,,,,,,,,,,,,,,,,,,,,,,,,,,,,,,,,,,,,,,,,,,,,,,,,,,
294562,2022-11-28_16h15.04.120,vts_reward_expectancy_bt,2022.2.4,MacIntel,60.04202942,Chrome,1440,900,,,a,1.3777,1,281,1,0,10,10,3,1,0,1,0,0,1,0,0,0,circle,triangle,,,,,,,,,,,,,,,,,,,,,,,,,,,,,,,,,,,,,,,,,,,,,,,,,,,,,,
294562,2022-11-28_16h15.04.120,vts_reward_expectancy_bt,2022.2.4,MacIntel,60.04202942,Chrome,1440,900,,,a,0.9138,10,291,1,0,11,11,6,1,0,0,1,0,1,0,0,0,hexagon,triangle,,,,,,,,,,,,,,,,,,,,,,,,,,,,,,,,,,,,,,,,,,,,,,,,,,,,,,
294562,2022-11-28_16h15.04.120,vts_reward_expectancy_bt,2022.2.4,MacIntel,60.04202942,Chrome,1440,900,,,a,1.5459,10,301,1,1,0,12,11,1,0,0,0,1,0,0,1,0,star,hexagon,,,,,,,,,,,,,,,,,,,,,,,,,,,,,,,,,,,,,,,,,,,,,,,,,,,,,,
294562,2022-11-28_16h15.04.120,vts_reward_expectancy_bt,2022.2.4,MacIntel,60.04202942,Chrome,1440,900,,,a,2.5253,1,302,1,1,1,13,6,1,0,0,1,0,1,0,0,0,hexagon,triangle,,,,,,,,,,,,,,,,,,,,,,,,,,,,,,,,,,,,,,,,,,,,,,,,,,,,,,
294562,2022-11-28_16h15.04.120,vts_reward_expectancy_bt,2022.2.4,MacIntel,60.04202942,Chrome,1440,900,,,a,1.3318,10,312,1,1,2,14,9,1,0,0,0,1,1,0,0,0,star,triangle,,,,,,,,,,,,,,,,,,,,,,,,,,,,,,,,,,,,,,,,,,,,,,,,,,,,,,
294562,2022-11-28_16h15.04.120,vts_reward_expectancy_bt,2022.2.4,MacIntel,60.04202942,Chrome,1440,900,,,a,2.882,10,322,1,1,3,15,7,1,0,0,1,0,0,1,0,0,hexagon,circle,,,,,,,,,,,,,,,,,,,,,,,,,,,,,,,,,,,,,,,,,,,,,,,,,,,,,,
294562,2022-11-28_16h15.04.120,vts_reward_expectancy_bt,2022.2.4,MacIntel,60.04202942,Chrome,1440,900,,,l,1.3664,10,332,1,1,4,16,4,1,0,1,0,0,0,0,1,0,circle,hexagon,,,,,,,,,,,,,,,,,,,,,,,,,,,,,,,,,,,,,,,,,,,,,,,,,,,,,,
294562,2022-11-28_16h15.04.120,vts_reward_expectancy_bt,2022.2.4,MacIntel,60.04202942,Chrome,1440,900,,,l,1.6825,1,333,1,1,5,17,10,1,0,0,0,1,0,1,0,0,star ,circle,,,,,,,,,,,,,,,,,,,,,,,,,,,,,,,,,,,,,,,,,,,,,,,,,,,,,,
294562,2022-11-28_16h15.04.120,vts_reward_expectancy_bt,2022.2.4,MacIntel,60.04202942,Chrome,1440,900,,,l,1.8117,10,343,1,1,6,18,1,1,1,0,0,0,0,0,1,0,triangle,hexagon,,,,,,,,,,,,,,,,,,,,,,,,,,,,,,,,,,,,,,,,,,,,,,,,,,,,,,
294562,2022-11-28_16h15.04.120,vts_reward_expectancy_bt,2022.2.4,MacIntel,60.04202942,Chrome,1440,900,,,l,1.6338,1,344,1,1,7,19,5,1,0,1,0,0,0,0,0,1,circle,star,,,,,,,,,,,,,,,,,,,,,,,,,,,,,,,,,,,,,,,,,,,,,,,,,,,,,,
294562,2022-11-28_16h15.04.120,vts_reward_expectancy_bt,2022.2.4,MacIntel,60.04202942,Chrome,1440,900,,,l,1.2956,1,345,1,1,8,20,2,1,1,0,0,0,0,0,0,1,triangle,star,,,,,,,,,,,,,,,,,,,,,,,,,,,,,,,,,,,,,,,,,,,,,,,,,,,,,,
294562,2022-11-28_16h15.04.120,vts_reward_expectancy_bt,2022.2.4,MacIntel,60.04202942,Chrome,1440,900,,,l,2.5243,10,355,1,1,9,21,0,1,1,0,0,0,0,1,0,0,triangle,circle,,,,,,,,,,,,,,,,,,,,,,,,,,,,,,,,,,,,,,,,,,,,,,,,,,,,,,
294562,2022-11-28_16h15.04.120,vts_reward_expectancy_bt,2022.2.4,MacIntel,60.04202942,Chrome,1440,900,,,l,1.3656,10,365,1,1,10,22,8,1,0,0,1,0,0,0,0,1,hexagon,star,,,,,,,,,,,,,,,,,,,,,,,,,,,,,,,,,,,,,,,,,,,,,,,,,,,,,,
294562,2022-11-28_16h15.04.120,vts_reward_expectancy_bt,2022.2.4,MacIntel,60.04202942,Chrome,1440,900,,,a,1.3152,10,375,1,1,11,23,3,1,0,1,0,0,1,0,0,0,circle,triangle,,,,,,,,,,,,,,,,,,,,,,,,,,,,,,,,,,,,,,,,,,,,,,,,,,,,,,
294562,2022-11-28_16h15.04.120,vts_reward_expectancy_bt,2022.2.4,MacIntel,60.04202942,Chrome,1440,900,,,a,3.1287,1,376,1,2,0,24,0,1,1,0,0,0,0,1,0,0,triangle,circle,,,,,,,,,,,,,,,,,,,,,,,,,,,,,,,,,,,,,,,,,,,,,,,,,,,,,,
294562,2022-11-28_16h15.04.120,vts_reward_expectancy_bt,2022.2.4,MacIntel,60.04202942,Chrome,1440,900,,,l,0.6809,1,377,1,2,1,25,11,1,0,0,0,1,0,0,1,0,star,hexagon,,,,,,,,,,,,,,,,,,,,,,,,,,,,,,,,,,,,,,,,,,,,,,,,,,,,,,
294562,2022-11-28_16h15.04.120,vts_reward_expectancy_bt,2022.2.4,MacIntel,60.04202942,Chrome,1440,900,,,a,0.6704,10,387,1,2,2,26,6,1,0,0,1,0,1,0,0,0,hexagon,triangle,,,,,,,,,,,,,,,,,,,,,,,,,,,,,,,,,,,,,,,,,,,,,,,,,,,,,,
294562,2022-11-28_16h15.04.120,vts_reward_expectancy_bt,2022.2.4,MacIntel,60.04202942,Chrome,1440,900,,,l,0.8677,10,397,1,2,3,27,8,1,0,0,1,0,0,0,0,1,hexagon,star,,,,,,,,,,,,,,,,,,,,,,,,,,,,,,,,,,,,,,,,,,,,,,,,,,,,,,
294562,2022-11-28_16h15.04.120,vts_reward_expectancy_bt,2022.2.4,MacIntel,60.04202942,Chrome,1440,900,,,l,0.9675,1,398,1,2,4,28,5,1,0,1,0,0,0,0,0,1,circle,star,,,,,,,,,,,,,,,,,,,,,,,,,,,,,,,,,,,,,,,,,,,,,,,,,,,,,,
294562,2022-11-28_16h15.04.120,vts_reward_expectancy_bt,2022.2.4,MacIntel,60.04202942,Chrome,1440,900,,,l,0.8462,1,399,1,2,5,29,2,1,1,0,0,0,0,0,0,1,triangle,star,,,,,,,,,,,,,,,,,,,,,,,,,,,,,,,,,,,,,,,,,,,,,,,,,,,,,,
294562,2022-11-28_16h15.04.120,vts_reward_expectancy_bt,2022.2.4,MacIntel,60.04202942,Chrome,1440,900,,,a,0.7655,10,409,1,2,6,30,9,1,0,0,0,1,1,0,0,0,star,triangle,,,,,,,,,,,,,,,,,,,,,,,,,,,,,,,,,,,,,,,,,,,,,,,,,,,,,,
294562,2022-11-28_16h15.04.120,vts_reward_expectancy_bt,2022.2.4,MacIntel,60.04202942,Chrome,1440,900,,,l,0.9816,1,410,1,2,7,31,4,1,0,1,0,0,0,0,1,0,circle,hexagon,,,,,,,,,,,,,,,,,,,,,,,,,,,,,,,,,,,,,,,,,,,,,,,,,,,,,,
294562,2022-11-28_16h15.04.120,vts_reward_expectancy_bt,2022.2.4,MacIntel,60.04202942,Chrome,1440,900,,,a,0.8756,1,411,1,2,8,32,10,1,0,0,0,1,0,1,0,0,star ,circle,,,,,,,,,,,,,,,,,,,,,,,,,,,,,,,,,,,,,,,,,,,,,,,,,,,,,,
294562,2022-11-28_16h15.04.120,vts_reward_expectancy_bt,2022.2.4,MacIntel,60.04202942,Chrome,1440,900,,,l,0.884,10,421,1,2,9,33,1,1,1,0,0,0,0,0,1,0,triangle,hexagon,,,,,,,,,,,,,,,,,,,,,,,,,,,,,,,,,,,,,,,,,,,,,,,,,,,,,,
294562,2022-11-28_16h15.04.120,vts_reward_expectancy_bt,2022.2.4,MacIntel,60.04202942,Chrome,1440,900,,,a,0.9121,10,431,1,2,10,34,7,1,0,0,1,0,0,1,0,0,hexagon,circle,,,,,,,,,,,,,,,,,,,,,,,,,,,,,,,,,,,,,,,,,,,,,,,,,,,,,,
294562,2022-11-28_16h15.04.120,vts_reward_expectancy_bt,2022.2.4,MacIntel,60.04202942,Chrome,1440,900,,,a,2.5687,1,432,1,2,11,35,3,1,0,1,0,0,1,0,0,0,circle,triangle,,,,,,,,,,,,,,,,,,,,,,,,,,,,,,,,,,,,,,,,,,,,,,,,,,,,,,
294562,2022-11-28_16h15.04.120,vts_reward_expectancy_bt,2022.2.4,MacIntel,60.04202942,Chrome,1440,900,,,l,2.5226,10,442,2,0,0,0,3,1,0,1,0,0,1,0,0,0,circle,triangle,,,,,,,,,,,,,,,,,,,,,,,,,,,,,,,,,,,,,,,,,,,,,,,,,,,,,,
294562,2022-11-28_16h15.04.120,vts_reward_expectancy_bt,2022.2.4,MacIntel,60.04202942,Chrome,1440,900,,,a,1.1805,10,452,2,0,1,1,6,1,0,0,1,0,1,0,0,0,hexagon,triangle,,,,,,,,,,,,,,,,,,,,,,,,,,,,,,,,,,,,,,,,,,,,,,,,,,,,,,
294562,2022-11-28_16h15.04.120,vts_reward_expectancy_bt,2022.2.4,MacIntel,60.04202942,Chrome,1440,900,,,l,0.5988,10,462,2,0,2,2,4,1,0,1,0,0,0,0,1,0,circle,hexagon,,,,,,,,,,,,,,,,,,,,,,,,,,,,,,,,,,,,,,,,,,,,,,,,,,,,,,
294562,2022-11-28_16h15.04.120,vts_reward_expectancy_bt,2022.2.4,MacIntel,60.04202942,Chrome,1440,900,,,l,0.7098,10,472,2,0,3,3,2,1,1,0,0,0,0,0,0,1,triangle,star,,,,,,,,,,,,,,,,,,,,,,,,,,,,,,,,,,,,,,,,,,,,,,,,,,,,,,
294562,2022-11-28_16h15.04.120,vts_reward_expectancy_bt,2022.2.4,MacIntel,60.04202942,Chrome,1440,900,,,l,0.5519,10,482,2,0,4,4,5,1,0,1,0,0,0,0,0,1,circle,star,,,,,,,,,,,,,,,,,,,,,,,,,,,,,,,,,,,,,,,,,,,,,,,,,,,,,,
294562,2022-11-28_16h15.04.120,vts_reward_expectancy_bt,2022.2.4,MacIntel,60.04202942,Chrome,1440,900,,,l,1.89,10,492,2,0,5,5,8,1,0,0,1,0,0,0,0,1,hexagon,star,,,,,,,,,,,,,,,,,,,,,,,,,,,,,,,,,,,,,,,,,,,,,,,,,,,,,,
294562,2022-11-28_16h15.04.120,vts_reward_expectancy_bt,2022.2.4,MacIntel,60.04202942,Chrome,1440,900,,,a,1.1349,1,493,2,0,6,6,0,1,1,0,0,0,0,1,0,0,triangle,circle,,,,,,,,,,,,,,,,,,,,,,,,,,,,,,,,,,,,,,,,,,,,,,,,,,,,,,
294562,2022-11-28_16h15.04.120,vts_reward_expectancy_bt,2022.2.4,MacIntel,60.04202942,Chrome,1440,900,,,a,1.3882,10,503,2,0,7,7,9,1,0,0,0,1,1,0,0,0,star,triangle,,,,,,,,,,,,,,,,,,,,,,,,,,,,,,,,,,,,,,,,,,,,,,,,,,,,,,
294562,2022-11-28_16h15.04.120,vts_reward_expectancy_bt,2022.2.4,MacIntel,60.04202942,Chrome,1440,900,,,l,0.7643,10,513,2,0,8,8,1,1,1,0,0,0,0,0,1,0,triangle,hexagon,,,,,,,,,,,,,,,,,,,,,,,,,,,,,,,,,,,,,,,,,,,,,,,,,,,,,,
294562,2022-11-28_16h15.04.120,vts_reward_expectancy_bt,2022.2.4,MacIntel,60.04202942,Chrome,1440,900,,,a,1.2124,10,523,2,0,9,9,7,1,0,0,1,0,0,1,0,0,hexagon,circle,,,,,,,,,,,,,,,,,,,,,,,,,,,,,,,,,,,,,,,,,,,,,,,,,,,,,,
294562,2022-11-28_16h15.04.120,vts_reward_expectancy_bt,2022.2.4,MacIntel,60.04202942,Chrome,1440,900,,,a,1.1479,10,533,2,0,10,10,10,1,0,0,0,1,0,1,0,0,star ,circle,,,,,,,,,,,,,,,,,,,,,,,,,,,,,,,,,,,,,,,,,,,,,,,,,,,,,,
294562,2022-11-28_16h15.04.120,vts_reward_expectancy_bt,2022.2.4,MacIntel,60.04202942,Chrome,1440,900,,,a,1.2808,1,534,2,0,11,11,11,1,0,0,0,1,0,0,1,0,star,hexagon,,,,,,,,,,,,,,,,,,,,,,,,,,,,,,,,,,,,,,,,,,,,,,,,,,,,,,
294562,2022-11-28_16h15.04.120,vts_reward_expectancy_bt,2022.2.4,MacIntel,60.04202942,Chrome,1440,900,,,l,0.9048,10,544,2,1,0,12,2,1,1,0,0,0,0,0,0,1,triangle,star,,,,,,,,,,,,,,,,,,,,,,,,,,,,,,,,,,,,,,,,,,,,,,,,,,,,,,
294562,2022-11-28_16h15.04.120,vts_reward_expectancy_bt,2022.2.4,MacIntel,60.04202942,Chrome,1440,900,,,l,0.9637,1,545,2,1,1,13,8,1,0,0,1,0,0,0,0,1,hexagon,star,,,,,,,,,,,,,,,,,,,,,,,,,,,,,,,,,,,,,,,,,,,,,,,,,,,,,,
294562,2022-11-28_16h15.04.120,vts_reward_expectancy_bt,2022.2.4,MacIntel,60.04202942,Chrome,1440,900,,,a,0.8566,1,546,2,1,2,14,0,1,1,0,0,0,0,1,0,0,triangle,circle,,,,,,,,,,,,,,,,,,,,,,,,,,,,,,,,,,,,,,,,,,,,,,,,,,,,,,
294562,2022-11-28_16h15.04.120,vts_reward_expectancy_bt,2022.2.4,MacIntel,60.04202942,Chrome,1440,900,,,a,0.8132,10,556,2,1,3,15,7,1,0,0,1,0,0,1,0,0,hexagon,circle,,,,,,,,,,,,,,,,,,,,,,,,,,,,,,,,,,,,,,,,,,,,,,,,,,,,,,
294562,2022-11-28_16h15.04.120,vts_reward_expectancy_bt,2022.2.4,MacIntel,60.04202942,Chrome,1440,900,,,l,1.4011,1,557,2,1,4,16,3,1,0,1,0,0,1,0,0,0,circle,triangle,,,,,,,,,,,,,,,,,,,,,,,,,,,,,,,,,,,,,,,,,,,,,,,,,,,,,,
294562,2022-11-28_16h15.04.120,vts_reward_expectancy_bt,2022.2.4,MacIntel,60.04202942,Chrome,1440,900,,,a,0.9842,10,567,2,1,5,17,6,1,0,0,1,0,1,0,0,0,hexagon,triangle,,,,,,,,,,,,,,,,,,,,,,,,,,,,,,,,,,,,,,,,,,,,,,,,,,,,,,
294562,2022-11-28_16h15.04.120,vts_reward_expectancy_bt,2022.2.4,MacIntel,60.04202942,Chrome,1440,900,,,l,1.1138,10,577,2,1,6,18,4,1,0,1,0,0,0,0,1,0,circle,hexagon,,,,,,,,,,,,,,,,,,,,,,,,,,,,,,,,,,,,,,,,,,,,,,,,,,,,,,
294562,2022-11-28_16h15.04.120,vts_reward_expectancy_bt,2022.2.4,MacIntel,60.04202942,Chrome,1440,900,,,a,0.778,1,578,2,1,7,19,9,1,0,0,0,1,1,0,0,0,star,triangle,,,,,,,,,,,,,,,,,,,,,,,,,,,,,,,,,,,,,,,,,,,,,,,,,,,,,,
294562,2022-11-28_16h15.04.120,vts_reward_expectancy_bt,2022.2.4,MacIntel,60.04202942,Chrome,1440,900,,,l,0.7002,10,588,2,1,8,20,1,1,1,0,0,0,0,0,1,0,triangle,hexagon,,,,,,,,,,,,,,,,,,,,,,,,,,,,,,,,,,,,,,,,,,,,,,,,,,,,,,
294562,2022-11-28_16h15.04.120,vts_reward_expectancy_bt,2022.2.4,MacIntel,60.04202942,Chrome,1440,900,,,a,0.9298,1,589,2,1,9,21,11,1,0,0,0,1,0,0,1,0,star,hexagon,,,,,,,,,,,,,,,,,,,,,,,,,,,,,,,,,,,,,,,,,,,,,,,,,,,,,,
294562,2022-11-28_16h15.04.120,vts_reward_expectancy_bt,2022.2.4,MacIntel,60.04202942,Chrome,1440,900,,,l,0.5739,10,599,2,1,10,22,5,1,0,1,0,0,0,0,0,1,circle,star,,,,,,,,,,,,,,,,,,,,,,,,,,,,,,,,,,,,,,,,,,,,,,,,,,,,,,
294562,2022-11-28_16h15.04.120,vts_reward_expectancy_bt,2022.2.4,MacIntel,60.04202942,Chrome,1440,900,,,a,0.8654,10,609,2,1,11,23,10,1,0,0,0,1,0,1,0,0,star ,circle,,,,,,,,,,,,,,,,,,,,,,,,,,,,,,,,,,,,,,,,,,,,,,,,,,,,,,
294562,2022-11-28_16h15.04.120,vts_reward_expectancy_bt,2022.2.4,MacIntel,60.04202942,Chrome,1440,900,,,l,0.9933,1,610,2,2,0,24,5,1,0,1,0,0,0,0,0,1,circle,star,,,,,,,,,,,,,,,,,,,,,,,,,,,,,,,,,,,,,,,,,,,,,,,,,,,,,,
294562,2022-11-28_16h15.04.120,vts_reward_expectancy_bt,2022.2.4,MacIntel,60.04202942,Chrome,1440,900,,,a,0.8058,1,611,2,2,1,25,6,1,0,0,1,0,1,0,0,0,hexagon,triangle,,,,,,,,,,,,,,,,,,,,,,,,,,,,,,,,,,,,,,,,,,,,,,,,,,,,,,
294562,2022-11-28_16h15.04.120,vts_reward_expectancy_bt,2022.2.4,MacIntel,60.04202942,Chrome,1440,900,,,a,1.1543,1,612,2,2,2,26,10,1,0,0,0,1,0,1,0,0,star ,circle,,,,,,,,,,,,,,,,,,,,,,,,,,,,,,,,,,,,,,,,,,,,,,,,,,,,,,
294562,2022-11-28_16h15.04.120,vts_reward_expectancy_bt,2022.2.4,MacIntel,60.04202942,Chrome,1440,900,,,a,1.6069,1,613,2,2,3,27,0,1,1,0,0,0,0,1,0,0,triangle,circle,,,,,,,,,,,,,,,,,,,,,,,,,,,,,,,,,,,,,,,,,,,,,,,,,,,,,,
294562,2022-11-28_16h15.04.120,vts_reward_expectancy_bt,2022.2.4,MacIntel,60.04202942,Chrome,1440,900,,,l,2.5526,1,614,2,2,4,28,3,1,0,1,0,0,1,0,0,0,circle,triangle,,,,,,,,,,,,,,,,,,,,,,,,,,,,,,,,,,,,,,,,,,,,,,,,,,,,,,
294562,2022-11-28_16h15.04.120,vts_reward_expectancy_bt,2022.2.4,MacIntel,60.04202942,Chrome,1440,900,,,l,1.0658,1,615,2,2,5,29,2,1,1,0,0,0,0,0,0,1,triangle,star,,,,,,,,,,,,,,,,,,,,,,,,,,,,,,,,,,,,,,,,,,,,,,,,,,,,,,
294562,2022-11-28_16h15.04.120,vts_reward_expectancy_bt,2022.2.4,MacIntel,60.04202942,Chrome,1440,900,,,l,1.0823,1,616,2,2,6,30,1,1,1,0,0,0,0,0,1,0,triangle,hexagon,,,,,,,,,,,,,,,,,,,,,,,,,,,,,,,,,,,,,,,,,,,,,,,,,,,,,,
294562,2022-11-28_16h15.04.120,vts_reward_expectancy_bt,2022.2.4,MacIntel,60.04202942,Chrome,1440,900,,,a,0.8642,1,617,2,2,7,31,11,1,0,0,0,1,0,0,1,0,star,hexagon,,,,,,,,,,,,,,,,,,,,,,,,,,,,,,,,,,,,,,,,,,,,,,,,,,,,,,
294562,2022-11-28_16h15.04.120,vts_reward_expectancy_bt,2022.2.4,MacIntel,60.04202942,Chrome,1440,900,,,l,0.9708,10,627,2,2,8,32,9,1,0,0,0,1,1,0,0,0,star,triangle,,,,,,,,,,,,,,,,,,,,,,,,,,,,,,,,,,,,,,,,,,,,,,,,,,,,,,
294562,2022-11-28_16h15.04.120,vts_reward_expectancy_bt,2022.2.4,MacIntel,60.04202942,Chrome,1440,900,,,a,0.7677,10,637,2,2,9,33,8,1,0,0,1,0,0,0,0,1,hexagon,star,,,,,,,,,,,,,,,,,,,,,,,,,,,,,,,,,,,,,,,,,,,,,,,,,,,,,,
294562,2022-11-28_16h15.04.120,vts_reward_expectancy_bt,2022.2.4,MacIntel,60.04202942,Chrome,1440,900,,,l,1.0323,1,638,2,2,10,34,7,1,0,0,1,0,0,1,0,0,hexagon,circle,,,,,,,,,,,,,,,,,,,,,,,,,,,,,,,,,,,,,,,,,,,,,,,,,,,,,,
294562,2022-11-28_16h15.04.120,vts_reward_expectancy_bt,2022.2.4,MacIntel,60.04202942,Chrome,1440,900,,,a,0.6981,10,648,2,2,11,35,4,1,0,1,0,0,0,0,1,0,circle,hexagon,,,,,,,,,,,,,,,,,,,,,,,,,,,,,,,,,,,,,,,,,,,,,,,,,,,,,,
294562,2022-11-28_16h15.04.120,vts_reward_expectancy_bt,2022.2.4,MacIntel,60.04202942,Chrome,1440,900,,,,,,,,,,,,,,,,,,,,,,,S,132,triangle,0,0,,0,0,0,0,0,1,,,,,,,,,,,,,,,,,,,,,,,,,,,,,,,,,,,,,,,,,,
294562,2022-11-28_16h15.04.120,vts_reward_expectancy_bt,2022.2.4,MacIntel,60.04202942,Chrome,1440,900,,,,,,,,,,,,,,,,,,,,,,,F,167,star,0,1,,0,1,0,1,0,1,,,,,,,,,,,,,,,,,,,,,,,,,,,,,,,,,,,,,,,,,,
294562,2022-11-28_16h15.04.120,vts_reward_expectancy_bt,2022.2.4,MacIntel,60.04202942,Chrome,1440,900,,,,,,,,,,,,,,,,,,,,,,,D,160,circle,1,1,d,0,2,0,2,0,1,1.8364,,,,,,,,,,,,,,,,,,,,,,,,,,,,,,,,,,,,,,,,,
294562,2022-11-28_16h15.04.120,vts_reward_expectancy_bt,2022.2.4,MacIntel,60.04202942,Chrome,1440,900,,,,,,,,,,,,,,,,,,,,,,,B,174,hexagon,1,0,d,0,3,0,3,0,1,0.8667,,,,,,,,,,,,,,,,,,,,,,,,,,,,,,,,,,,,,,,,,
294562,2022-11-28_16h15.04.120,vts_reward_expectancy_bt,2022.2.4,MacIntel,60.04202942,Chrome,1440,900,,,,,,,,,,,,,,,,,,,,,,,U,181,triangle,1,0,f,0,4,0,4,0,1,0.6765,,,,,,,,,,,,,,,,,,,,,,,,,,,,,,,,,,,,,,,,,
294562,2022-11-28_16h15.04.120,vts_reward_expectancy_bt,2022.2.4,MacIntel,60.04202942,Chrome,1440,900,,,,,,,,,,,,,,,,,,,,,,,Y,139,star,1,0,f,0,5,0,5,0,1,1.4558,,,,,,,,,,,,,,,,,,,,,,,,,,,,,,,,,,,,,,,,,
294562,2022-11-28_16h15.04.120,vts_reward_expectancy_bt,2022.2.4,MacIntel,60.04202942,Chrome,1440,900,,,,,,,,,,,,,,,,,,,,,,,H,146,circle,1,0,d,0,6,0,6,0,1,0.7092,,,,,,,,,,,,,,,,,,,,,,,,,,,,,,,,,,,,,,,,,
294562,2022-11-28_16h15.04.120,vts_reward_expectancy_bt,2022.2.4,MacIntel,60.04202942,Chrome,1440,900,,,,,,,,,,,,,,,,,,,,,,,W,125,hexagon,1,0,f,0,7,0,7,0,1,0.8278,,,,,,,,,,,,,,,,,,,,,,,,,,,,,,,,,,,,,,,,,
294562,2022-11-28_16h15.04.120,vts_reward_expectancy_bt,2022.2.4,MacIntel,60.04202942,Chrome,1440,900,,,,,,,,,,,,,,,,,,,,,,,S,132,circle,1,0,f,0,8,0,8,0,1,1.7367,,,,,,,,,,,,,,,,,,,,,,,,,,,,,,,,,,,,,,,,,
294562,2022-11-28_16h15.04.120,vts_reward_expectancy_bt,2022.2.4,MacIntel,60.04202942,Chrome,1440,900,,,,,,,,,,,,,,,,,,,,,,,F,167,hexagon,1,0,d,0,9,0,9,0,1,0.78,,,,,,,,,,,,,,,,,,,,,,,,,,,,,,,,,,,,,,,,,
294562,2022-11-28_16h15.04.120,vts_reward_expectancy_bt,2022.2.4,MacIntel,60.04202942,Chrome,1440,900,,,,,,,,,,,,,,,,,,,,,,,W,125,circle,1,0,f,1,0,0,0,0,1,1.0492,,,,,,,,,,,,,,,,,,,,,,,,,,,,,,,,,,,,,,,,,
294562,2022-11-28_16h15.04.120,vts_reward_expectancy_bt,2022.2.4,MacIntel,60.04202942,Chrome,1440,900,,,,,,,,,,,,,,,,,,,,,,,S,139,star,1,0,f,1,1,0,1,0,1,1.1824,,,,,,,,,,,,,,,,,,,,,,,,,,,,,,,,,,,,,,,,,
294562,2022-11-28_16h15.04.120,vts_reward_expectancy_bt,2022.2.4,MacIntel,60.04202942,Chrome,1440,900,,,,,,,,,,,,,,,,,,,,,,,B,146,triangle,1,0,d,1,2,0,2,0,1,0.7483,,,,,,,,,,,,,,,,,,,,,,,,,,,,,,,,,,,,,,,,,
294562,2022-11-28_16h15.04.120,vts_reward_expectancy_bt,2022.2.4,MacIntel,60.04202942,Chrome,1440,900,,,,,,,,,,,,,,,,,,,,,,,D,174,hexagon,1,0,d,1,3,0,3,0,1,0.7121,,,,,,,,,,,,,,,,,,,,,,,,,,,,,,,,,,,,,,,,,
294562,2022-11-28_16h15.04.120,vts_reward_expectancy_bt,2022.2.4,MacIntel,60.04202942,Chrome,1440,900,,,,,,,,,,,,,,,,,,,,,,,U,132,circle,1,0,f,1,4,0,4,0,1,0.564,,,,,,,,,,,,,,,,,,,,,,,,,,,,,,,,,,,,,,,,,
294562,2022-11-28_16h15.04.120,vts_reward_expectancy_bt,2022.2.4,MacIntel,60.04202942,Chrome,1440,900,,,,,,,,,,,,,,,,,,,,,,,F,167,star,1,0,d,1,5,0,5,0,1,0.7315,,,,,,,,,,,,,,,,,,,,,,,,,,,,,,,,,,,,,,,,,
294562,2022-11-28_16h15.04.120,vts_reward_expectancy_bt,2022.2.4,MacIntel,60.04202942,Chrome,1440,900,,,,,,,,,,,,,,,,,,,,,,,H,160,triangle,1,0,d,1,6,0,6,0,1,1.1003,,,,,,,,,,,,,,,,,,,,,,,,,,,,,,,,,,,,,,,,,
294562,2022-11-28_16h15.04.120,vts_reward_expectancy_bt,2022.2.4,MacIntel,60.04202942,Chrome,1440,900,,,,,,,,,,,,,,,,,,,,,,,Y,181,hexagon,1,0,f,1,7,0,7,0,1,0.5866,,,,,,,,,,,,,,,,,,,,,,,,,,,,,,,,,,,,,,,,,
294562,2022-11-28_16h15.04.120,vts_reward_expectancy_bt,2022.2.4,MacIntel,60.04202942,Chrome,1440,900,,,,,,,,,,,,,,,,,,,,,,,W,125,triangle,1,0,f,1,8,0,8,0,1,0.7332,,,,,,,,,,,,,,,,,,,,,,,,,,,,,,,,,,,,,,,,,
294562,2022-11-28_16h15.04.120,vts_reward_expectancy_bt,2022.2.4,MacIntel,60.04202942,Chrome,1440,900,,,,,,,,,,,,,,,,,,,,,,,S,139,star,1,0,f,1,9,0,9,0,1,0.7162,,,,,,,,,,,,,,,,,,,,,,,,,,,,,,,,,,,,,,,,,
294562,2022-11-28_16h15.04.120,vts_reward_expectancy_bt,2022.2.4,MacIntel,60.04202942,Chrome,1440,900,,,,,,,,,,,,,,,,,,,,,,,B,125,star,1,0,,2,,,,,,,j,0.6618,0,0,0,0,1,,,,,,,,,,,,,,,,,,,,,,,,,,,,,,,,,,
294562,2022-11-28_16h15.04.120,vts_reward_expectancy_bt,2022.2.4,MacIntel,60.04202942,Chrome,1440,900,,,,,,,,,,,,,,,,,,,,,,,W,139,hexagon,1,0,,2,,,,,,,j,1.0136,1,0,1,0,1,,,,,,,,,,,,,,,,,,,,,,,,,,,,,,,,,,
294562,2022-11-28_16h15.04.120,vts_reward_expectancy_bt,2022.2.4,MacIntel,60.04202942,Chrome,1440,900,,,,,,,,,,,,,,,,,,,,,,,H,167,circle,1,0,,2,,,,,,,k,0.5652,2,0,2,0,1,,,,,,,,,,,,,,,,,,,,,,,,,,,,,,,,,,
294562,2022-11-28_16h15.04.120,vts_reward_expectancy_bt,2022.2.4,MacIntel,60.04202942,Chrome,1440,900,,,,,,,,,,,,,,,,,,,,,,,U,174,triangle,1,0,,2,,,,,,,k,0.581,3,0,3,0,1,,,,,,,,,,,,,,,,,,,,,,,,,,,,,,,,,,
294562,2022-11-28_16h15.04.120,vts_reward_expectancy_bt,2022.2.4,MacIntel,60.04202942,Chrome,1440,900,,,,,,,,,,,,,,,,,,,,,,,Y,132,star,1,0,,2,,,,,,,j,0.5658,4,0,4,0,1,,,,,,,,,,,,,,,,,,,,,,,,,,,,,,,,,,
294562,2022-11-28_16h15.04.120,vts_reward_expectancy_bt,2022.2.4,MacIntel,60.04202942,Chrome,1440,900,,,,,,,,,,,,,,,,,,,,,,,S,146,hexagon,1,0,,2,,,,,,,j,0.9646,5,0,5,0,1,,,,,,,,,,,,,,,,,,,,,,,,,,,,,,,,,,
294562,2022-11-28_16h15.04.120,vts_reward_expectancy_bt,2022.2.4,MacIntel,60.04202942,Chrome,1440,900,,,,,,,,,,,,,,,,,,,,,,,F,181,circle,1,0,,2,,,,,,,k,0.7018,6,0,6,0,1,,,,,,,,,,,,,,,,,,,,,,,,,,,,,,,,,,
294562,2022-11-28_16h15.04.120,vts_reward_expectancy_bt,2022.2.4,MacIntel,60.04202942,Chrome,1440,900,,,,,,,,,,,,,,,,,,,,,,,D,160,triangle,1,0,,2,,,,,,,k,0.7625,7,0,7,0,1,,,,,,,,,,,,,,,,,,,,,,,,,,,,,,,,,,
294562,2022-11-28_16h15.04.120,vts_reward_expectancy_bt,2022.2.4,MacIntel,60.04202942,Chrome,1440,900,,,,,,,,,,,,,,,,,,,,,,,B,125,star,1,0,,2,,,,,,,j,0.4989,8,0,8,0,1,,,,,,,,,,,,,,,,,,,,,,,,,,,,,,,,,,
294562,2022-11-28_16h15.04.120,vts_reward_expectancy_bt,2022.2.4,MacIntel,60.04202942,Chrome,1440,900,,,,,,,,,,,,,,,,,,,,,,,W,139,circle,1,0,,2,,,,,,,j,0.6531,9,0,9,0,1,,,,,,,,,,,,,,,,,,,,,,,,,,,,,,,,,,
294562,2022-11-28_16h15.04.120,vts_reward_expectancy_bt,2022.2.4,MacIntel,60.04202942,Chrome,1440,900,,,,,0,648,,,,,,,,,,,,,,,,,D,125,circle,1,0,,3,,,,,,,,,,,,,,-1,letter,NA,d,1.7191,vtsPrac,0,0,0,0,1,,,,,,,,,,,,,,,,,,,,,,,
294562,2022-11-28_16h15.04.120,vts_reward_expectancy_bt,2022.2.4,MacIntel,60.04202942,Chrome,1440,900,,,,,0,648,,,,,,,,,,,,,,,,,W,139,triangle,1,0,,3,,,,,,,,,,,,,,switch,number,numSwt,j,1.4817,vtsPrac,1,0,1,0,1,,,,,,,,,,,,,,,,,,,,,,,
294562,2022-11-28_16h15.04.120,vts_reward_expectancy_bt,2022.2.4,MacIntel,60.04202942,Chrome,1440,900,,,,,0,648,,,,,,,,,,,,,,,,,F,160,circle,1,0,,3,,,,,,,,,,,,,,repeat,number,numRpt,k,1.265,vtsPrac,2,0,2,0,1,,,,,,,,,,,,,,,,,,,,,,,
294562,2022-11-28_16h15.04.120,vts_reward_expectancy_bt,2022.2.4,MacIntel,60.04202942,Chrome,1440,900,,,,,0,648,,,,,,,,,,,,,,,,,Y,132,triangle,1,0,,3,,,,,,,,,,,,,,switch,letter,lettSwt,f,0.6167,vtsPrac,3,0,3,0,1,,,,,,,,,,,,,,,,,,,,,,,
294562,2022-11-28_16h15.04.120,vts_reward_expectancy_bt,2022.2.4,MacIntel,60.04202942,Chrome,1440,900,,,,,0,648,,,,,,,,,,,,,,,,,D,125,triangle,1,0,,3,,,,,,,,,,,,,,switch,number,numSwt,j,1.0114,vtsPrac,4,0,4,0,1,,,,,,,,,,,,,,,,,,,,,,,
294562,2022-11-28_16h15.04.120,vts_reward_expectancy_bt,2022.2.4,MacIntel,60.04202942,Chrome,1440,900,,,,,0,648,,,,,,,,,,,,,,,,,W,139,hexagon,1,0,,3,,,,,,,,,,,,,,switch,letter,lettSwt,f,1.0648,vtsPrac,5,0,5,0,1,,,,,,,,,,,,,,,,,,,,,,,
294562,2022-11-28_16h15.04.120,vts_reward_expectancy_bt,2022.2.4,MacIntel,60.04202942,Chrome,1440,900,,,,,0,648,,,,,,,,,,,,,,,,,F,160,hexagon,1,0,,3,,,,,,,,,,,,,,repeat,letter,lettRpt,d,2.2273,vtsPrac,6,0,6,0,1,,,,,,,,,,,,,,,,,,,,,,,
294562,2022-11-28_16h15.04.120,vts_reward_expectancy_bt,2022.2.4,MacIntel,60.04202942,Chrome,1440,900,,,,,0,648,,,,,,,,,,,,,,,,,Y,132,circle,1,0,,3,,,,,,,,,,,,,,repeat,letter,lettRpt,f,1.3472,vtsPrac,7,0,7,0,1,,,,,,,,,,,,,,,,,,,,,,,
294562,2022-11-28_16h15.04.120,vts_reward_expectancy_bt,2022.2.4,MacIntel,60.04202942,Chrome,1440,900,,,,,0,648,,,,,,,,,,,,,,,,,W,132,hexagon,1,0,,3,,,,,,,,,,,,,,switch,number,numSwt,j,1.1842,vtsPrac,8,0,8,0,1,,,,,,,,,,,,,,,,,,,,,,,
294562,2022-11-28_16h15.04.120,vts_reward_expectancy_bt,2022.2.4,MacIntel,60.04202942,Chrome,1440,900,,,,,0,648,,,,,,,,,,,,,,,,,F,167,triangle,1,0,,3,,,,,,,,,,,,,,repeat,number,numRpt,k,0.9289,vtsPrac,9,0,9,0,1,,,,,,,,,,,,,,,,,,,,,,,
294562,2022-11-28_16h15.04.120,vts_reward_expectancy_bt,2022.2.4,MacIntel,60.04202942,Chrome,1440,900,,,,,0,648,,,,,,,,,,,,,,,,,U,160,triangle,1,0,,3,,,,,,,,,,,,,,repeat,number,numRpt,k,1.5795,vtsPrac,10,0,10,0,1,,,,,,,,,,,,,,,,,,,,,,,
294562,2022-11-28_16h15.04.120,vts_reward_expectancy_bt,2022.2.4,MacIntel,60.04202942,Chrome,1440,900,,,,,0,648,,,,,,,,,,,,,,,,,D,181,hexagon,1,0,,3,,,,,,,,,,,,,,repeat,number,numRpt,k,1.0325,vtsPrac,11,0,11,0,1,,,,,,,,,,,,,,,,,,,,,,,
294562,2022-11-28_16h15.04.120,vts_reward_expectancy_bt,2022.2.4,MacIntel,60.04202942,Chrome,1440,900,,,,,0,648,,,,,,,,,,,,,,,,,D,132,hexagon,1,0,,3,,,,,,,,,,,,,,switch,letter,lettSwt,d,0.8833,vtsPrac,12,0,12,0,1,,,,,,,,,,,,,,,,,,,,,,,
294562,2022-11-28_16h15.04.120,vts_reward_expectancy_bt,2022.2.4,MacIntel,60.04202942,Chrome,1440,900,,,,,0,648,,,,,,,,,,,,,,,,,Y,139,triangle,1,0,,3,,,,,,,,,,,,,,repeat,letter,lettRpt,f,1.7374,vtsPrac,13,0,13,0,1,,,,,,,,,,,,,,,,,,,,,,,
294562,2022-11-28_16h15.04.120,vts_reward_expectancy_bt,2022.2.4,MacIntel,60.04202942,Chrome,1440,900,,,,,0,648,,,,,,,,,,,,,,,,,B,146,circle,1,0,,3,,,,,,,,,,,,,,switch,number,numSwt,j,1.2803,vtsPrac,14,0,14,0,1,,,,,,,,,,,,,,,,,,,,,,,
294562,2022-11-28_16h15.04.120,vts_reward_expectancy_bt,2022.2.4,MacIntel,60.04202942,Chrome,1440,900,,,,,0,648,,,,,,,,,,,,,,,,,W,160,triangle,1,0,,3,,,,,,,,,,,,,,repeat,number,numRpt,k,1.1746,vtsPrac,15,0,15,0,1,,,,,,,,,,,,,,,,,,,,,,,
294562,2022-11-28_16h15.04.120,vts_reward_expectancy_bt,2022.2.4,MacIntel,60.04202942,Chrome,1440,900,,,,,0,648,,,,,,,,,,,,,,,,,D,132,triangle,1,0,,3,,,,,,,,,,,,,,switch,letter,lettSwt,d,1.7751,vtsPrac,16,0,16,0,1,,,,,,,,,,,,,,,,,,,,,,,
294562,2022-11-28_16h15.04.120,vts_reward_expectancy_bt,2022.2.4,MacIntel,60.04202942,Chrome,1440,900,,,,,0,648,,,,,,,,,,,,,,,,,F,125,circle,1,0,,3,,,,,,,,,,,,,,switch,number,numSwt,j,0.7587,vtsPrac,17,0,17,0,1,,,,,,,,,,,,,,,,,,,,,,,
294562,2022-11-28_16h15.04.120,vts_reward_expectancy_bt,2022.2.4,MacIntel,60.04202942,Chrome,1440,900,,,,,0,648,,,,,,,,,,,,,,,,,U,167,triangle,1,0,,3,,,,,,,,,,,,,,switch,letter,lettSwt,f,1.2785,vtsPrac,18,0,18,0,1,,,,,,,,,,,,,,,,,,,,,,,
294562,2022-11-28_16h15.04.120,vts_reward_expectancy_bt,2022.2.4,MacIntel,60.04202942,Chrome,1440,900,,,,,0,648,,,,,,,,,,,,,,,,,Y,139,circle,1,0,,3,,,,,,,,,,,,,,switch,number,numSwt,j,1.8962,vtsPrac,19,0,19,0,1,,,,,,,,,,,,,,,,,,,,,,,
294562,2022-11-28_16h15.04.120,vts_reward_expectancy_bt,2022.2.4,MacIntel,60.04202942,Chrome,1440,900,,,,,0,648,,,,,,,,,,,,,,,,,W,146,hexagon,1,0,,3,,,,,,,,,,,,,,switch,letter,lettSwt,f,0.8589,vtsPrac,20,0,20,0,1,,,,,,,,,,,,,,,,,,,,,,,
294562,2022-11-28_16h15.04.120,vts_reward_expectancy_bt,2022.2.4,MacIntel,60.04202942,Chrome,1440,900,,,,,0,648,,,,,,,,,,,,,,,,,Y,181,circle,1,0,,3,,,,,,,,,,,,,,repeat,letter,lettRpt,f,1.0471,vtsPrac,21,0,21,0,1,,,,,,,,,,,,,,,,,,,,,,,
294562,2022-11-28_16h15.04.120,vts_reward_expectancy_bt,2022.2.4,MacIntel,60.04202942,Chrome,1440,900,,,,,0,648,,,,,,,,,,,,,,,,,D,125,hexagon,1,0,,3,,,,,,,,,,,,,,repeat,letter,lettRpt,d,0.7292,vtsPrac,22,0,22,0,1,,,,,,,,,,,,,,,,,,,,,,,
294562,2022-11-28_16h15.04.120,vts_reward_expectancy_bt,2022.2.4,MacIntel,60.04202942,Chrome,1440,900,,,,,0,648,,,,,,,,,,,,,,,,,H,174,circle,1,0,,3,,,,,,,,,,,,,,switch,number,numSwt,k,1.524,vtsPrac,23,0,23,0,1,,,,,,,,,,,,,,,,,,,,,,,
294562,2022-11-28_16h15.04.120,vts_reward_expectancy_bt,2022.2.4,MacIntel,60.04202942,Chrome,1440,900,,,,,0,648,,,,,,,,,,,,,,,,,Y,181,circle,1,0,,3,,,,,,,,,,,,,,repeat,number,numRpt,k,0.8933,vtsPrac,24,0,24,0,1,,,,,,,,,,,,,,,,,,,,,,,
294562,2022-11-28_16h15.04.120,vts_reward_expectancy_bt,2022.2.4,MacIntel,60.04202942,Chrome,1440,900,,,,,0,648,,,,,,,,,,,,,,,,,S,132,hexagon,1,0,,3,,,,,,,,,,,,,,repeat,number,numRpt,j,1.0321,vtsPrac,25,0,25,0,1,,,,,,,,,,,,,,,,,,,,,,,
294562,2022-11-28_16h15.04.120,vts_reward_expectancy_bt,2022.2.4,MacIntel,60.04202942,Chrome,1440,900,,,,,0,648,,,,,,,,,,,,,,,,,H,146,star,1,0,,3,,,,,,,,,,,,,,switch,letter,lettSwt,d,1.2101,vtsPrac,26,0,26,0,1,,,,,,,,,,,,,,,,,,,,,,,
294562,2022-11-28_16h15.04.120,vts_reward_expectancy_bt,2022.2.4,MacIntel,60.04202942,Chrome,1440,900,,,,,0,648,,,,,,,,,,,,,,,,,W,160,circle,1,0,,3,,,,,,,,,,,,,,switch,number,numSwt,k,1.7287,vtsPrac,27,0,27,0,1,,,,,,,,,,,,,,,,,,,,,,,
294562,2022-11-28_16h15.04.120,vts_reward_expectancy_bt,2022.2.4,MacIntel,60.04202942,Chrome,1440,900,,,,,0,648,,,,,,,,,,,,,,,,,S,132,star,1,0,,3,,,,,,,,,,,,,,switch,letter,lettSwt,f,0.8469,vtsPrac,28,0,28,0,1,,,,,,,,,,,,,,,,,,,,,,,
294562,2022-11-28_16h15.04.120,vts_reward_expectancy_bt,2022.2.4,MacIntel,60.04202942,Chrome,1440,900,,,,,0,648,,,,,,,,,,,,,,,,,U,174,hexagon,1,0,,3,,,,,,,,,,,,,,repeat,letter,lettRpt,f,0.943,vtsPrac,29,0,29,0,1,,,,,,,,,,,,,,,,,,,,,,,
294562,2022-11-28_16h15.04.120,vts_reward_expectancy_bt,2022.2.4,MacIntel,60.04202942,Chrome,1440,900,,,,,0,648,,,,,,,,,,,,,,,,,W,160,triangle,1,0,,3,,,,,,,,,,,,,,repeat,letter,lettRpt,f,0.5146,vtsPrac,30,0,30,0,1,,,,,,,,,,,,,,,,,,,,,,,
294562,2022-11-28_16h15.04.120,vts_reward_expectancy_bt,2022.2.4,MacIntel,60.04202942,Chrome,1440,900,,,,,0,648,,,,,,,,,,,,,,,,,D,167,circle,1,0,,3,,,,,,,,,,,,,,switch,number,numSwt,k,1.376,vtsPrac,31,0,31,0,1,,,,,,,,,,,,,,,,,,,,,,,
294562,2022-11-28_16h15.04.120,vts_reward_expectancy_bt,2022.2.4,MacIntel,60.04202942,Chrome,1440,900,,,,,,,,,,,,,,,,,,,,,,,,,,,,,,,,,,,,,,,,,,,,,,,,,,,,,,,,,,,,,,,,,,,,,,,,,,,,
294562,2022-11-28_16h15.04.120,vts_reward_expectancy_bt,2022.2.4,MacIntel,60.04202942,Chrome,1440,900,,,,,,,,,,,,,,,,,,,,,,,,,,,,,,,,,,,,,,,,,,,,,,,,,,,,,,,,,,,,,,,,,,,,,,,,,,,,
294562,2022-11-28_16h15.04.120,vts_reward_expectancy_bt,2022.2.4,MacIntel,60.04202942,Chrome,1440,900,,,,,0,648,,,,,,,,,,,,,,,,,W,160,circle,1,0,,,,,,,,,,,,,,,,switch,letter,lettSwt,f,0.9609,noRew,,,,,,0,0,0,0,0,1,,,,,,,,,,,,,,,,,
294562,2022-11-28_16h15.04.120,vts_reward_expectancy_bt,2022.2.4,MacIntel,60.04202942,Chrome,1440,900,,,,,0,648,,,,,,,,,,,,,,,,,B,146,hexagon,0,0,,,,,,,,,,,,,,,,repeat,letter,NA,f,1.302,noRew,,,,,,0,1,0,1,0,1,,,,,,,,,,,,,,,,,
294562,2022-11-28_16h15.04.120,vts_reward_expectancy_bt,2022.2.4,MacIntel,60.04202942,Chrome,1440,900,,,,,0,648,,,,,,,,,,,,,,,,,Y,125,circle,1,1,,,,,,,,,,,,,,,,repeat,letter,lettRpt,f,0.727,noRew,,,,,,0,2,0,2,0,1,,,,,,,,,,,,,,,,,
294562,2022-11-28_16h15.04.120,vts_reward_expectancy_bt,2022.2.4,MacIntel,60.04202942,Chrome,1440,900,,,,,0,648,,,,,,,,,,,,,,,,,H,174,hexagon,1,0,,,,,,,,,,,,,,,,switch,number,numSwt,k,1.1793,noRew,,,,,,0,3,0,3,0,1,,,,,,,,,,,,,,,,,
294562,2022-11-28_16h15.04.120,vts_reward_expectancy_bt,2022.2.4,MacIntel,60.04202942,Chrome,1440,900,,,,,0,648,,,,,,,,,,,,,,,,,W,160,star,1,0,,,,,,,,,,,,,,,,switch,letter,lettSwt,f,0.9783,noRew,,,,,,0,4,0,4,0,1,,,,,,,,,,,,,,,,,
294562,2022-11-28_16h15.04.120,vts_reward_expectancy_bt,2022.2.4,MacIntel,60.04202942,Chrome,1440,900,,,,,0,648,,,,,,,,,,,,,,,,,B,146,triangle,1,0,,,,,,,,,,,,,,,,switch,number,numSwt,j,1.1612,noRew,,,,,,0,5,0,5,0,1,,,,,,,,,,,,,,,,,
294562,2022-11-28_16h15.04.120,vts_reward_expectancy_bt,2022.2.4,MacIntel,60.04202942,Chrome,1440,900,,,,,0,648,,,,,,,,,,,,,,,,,Y,125,hexagon,1,0,,,,,,,,,,,,,,,,repeat,number,numRpt,j,0.526,noRew,,,,,,0,6,0,6,0,1,,,,,,,,,,,,,,,,,
294562,2022-11-28_16h15.04.120,vts_reward_expectancy_bt,2022.2.4,MacIntel,60.04202942,Chrome,1440,900,,,,,0,648,,,,,,,,,,,,,,,,,H,174,star,1,0,,,,,,,,,,,,,,,,repeat,number,numRpt,k,1.5104,noRew,,,,,,0,7,0,7,0,1,,,,,,,,,,,,,,,,,
294562,2022-11-28_16h15.04.120,vts_reward_expectancy_bt,2022.2.4,MacIntel,60.04202942,Chrome,1440,900,,,,,0,648,,,,,,,,,,,,,,,,,S,146,circle,1,0,,,,,,,,,,,,,,,,switch,letter,lettSwt,f,0.909,noRew,,,,,,0,8,0,8,0,1,,,,,,,,,,,,,,,,,
294562,2022-11-28_16h15.04.120,vts_reward_expectancy_bt,2022.2.4,MacIntel,60.04202942,Chrome,1440,900,,,,,0,648,,,,,,,,,,,,,,,,,U,160,hexagon,1,0,,,,,,,,,,,,,,,,repeat,letter,lettRpt,f,0.7741,noRew,,,,,,0,9,0,9,0,1,,,,,,,,,,,,,,,,,
294562,2022-11-28_16h15.04.120,vts_reward_expectancy_bt,2022.2.4,MacIntel,60.04202942,Chrome,1440,900,,,,,0,648,,,,,,,,,,,,,,,,,D,125,hexagon,1,0,,,,,,,,,,,,,,,,switch,number,numSwt,j,1.568,noRew,,,,,,0,10,0,10,0,1,,,,,,,,,,,,,,,,,
294562,2022-11-28_16h15.04.120,vts_reward_expectancy_bt,2022.2.4,MacIntel,60.04202942,Chrome,1440,900,,,,,0,648,,,,,,,,,,,,,,,,,B,132,triangle,1,0,,,,,,,,,,,,,,,,switch,letter,lettSwt,d,0.8607,noRew,,,,,,0,11,0,11,0,1,,,,,,,,,,,,,,,,,
294562,2022-11-28_16h15.04.120,vts_reward_expectancy_bt,2022.2.4,MacIntel,60.04202942,Chrome,1440,900,,,,,0,648,,,,,,,,,,,,,,,,,W,146,circle,1,0,,,,,,,,,,,,,,,,switch,number,numSwt,j,1.9484,noRew,,,,,,0,12,0,12,0,1,,,,,,,,,,,,,,,,,
294562,2022-11-28_16h15.04.120,vts_reward_expectancy_bt,2022.2.4,MacIntel,60.04202942,Chrome,1440,900,,,,,0,648,,,,,,,,,,,,,,,,,D,139,hexagon,1,0,,,,,,,,,,,,,,,,switch,letter,lettSwt,d,1.2416,noRew,,,,,,0,13,0,13,0,1,,,,,,,,,,,,,,,,,
294562,2022-11-28_16h15.04.120,vts_reward_expectancy_bt,2022.2.4,MacIntel,60.04202942,Chrome,1440,900,,,,,0,648,,,,,,,,,,,,,,,,,Y,181,hexagon,1,0,,,,,,,,,,,,,,,,repeat,letter,lettRpt,f,1.3412,noRew,,,,,,0,14,0,14,0,1,,,,,,,,,,,,,,,,,
294562,2022-11-28_16h15.04.120,vts_reward_expectancy_bt,2022.2.4,MacIntel,60.04202942,Chrome,1440,900,,,,,0,648,,,,,,,,,,,,,,,,,F,160,triangle,1,0,,,,,,,,,,,,,,,,switch,number,numSwt,k,1.6281,noRew,,,,,,0,15,0,15,0,1,,,,,,,,,,,,,,,,,
294562,2022-11-28_16h15.04.120,vts_reward_expectancy_bt,2022.2.4,MacIntel,60.04202942,Chrome,1440,900,,,,,0,648,,,,,,,,,,,,,,,,,U,174,circle,1,0,,,,,,,,,,,,,,,,switch,letter,lettSwt,f,1.9329,noRew,,,,,,0,16,0,16,0,1,,,,,,,,,,,,,,,,,
294562,2022-11-28_16h15.04.120,vts_reward_expectancy_bt,2022.2.4,MacIntel,60.04202942,Chrome,1440,900,,,,,0,648,,,,,,,,,,,,,,,,,H,125,triangle,1,0,,,,,,,,,,,,,,,,repeat,letter,lettRpt,d,1.2597,noRew,,,,,,0,17,0,17,0,1,,,,,,,,,,,,,,,,,
294562,2022-11-28_16h15.04.120,vts_reward_expectancy_bt,2022.2.4,MacIntel,60.04202942,Chrome,1440,900,,,,,0,648,,,,,,,,,,,,,,,,,B,132,circle,1,0,,,,,,,,,,,,,,,,repeat,letter,lettRpt,d,1.1788,noRew,,,,,,0,18,0,18,0,1,,,,,,,,,,,,,,,,,
294562,2022-11-28_16h15.04.120,vts_reward_expectancy_bt,2022.2.4,MacIntel,60.04202942,Chrome,1440,900,,,,,0,648,,,,,,,,,,,,,,,,,W,146,star,1,0,,,,,,,,,,,,,,,,switch,number,numSwt,j,1.6139,noRew,,,,,,0,19,0,19,0,1,,,,,,,,,,,,,,,,,
294562,2022-11-28_16h15.04.120,vts_reward_expectancy_bt,2022.2.4,MacIntel,60.04202942,Chrome,1440,900,,,,,0,648,,,,,,,,,,,,,,,,,H,181,star,1,0,,,,,,,,,,,,,,,,repeat,number,numRpt,k,1.0447,noRew,,,,,,0,20,0,20,0,1,,,,,,,,,,,,,,,,,
294562,2022-11-28_16h15.04.120,vts_reward_expectancy_bt,2022.2.4,MacIntel,60.04202942,Chrome,1440,900,,,,,0,648,,,,,,,,,,,,,,,,,Y,132,hexagon,1,0,,,,,,,,,,,,,,,,switch,letter,lettSwt,f,1.2802,noRew,,,,,,0,21,0,21,0,1,,,,,,,,,,,,,,,,,
294562,2022-11-28_16h15.04.120,vts_reward_expectancy_bt,2022.2.4,MacIntel,60.04202942,Chrome,1440,900,,,,,0,648,,,,,,,,,,,,,,,,,D,125,circle,1,0,,,,,,,,,,,,,,,,repeat,letter,lettRpt,d,1.4778,noRew,,,,,,0,22,0,22,0,1,,,,,,,,,,,,,,,,,
294562,2022-11-28_16h15.04.120,vts_reward_expectancy_bt,2022.2.4,MacIntel,60.04202942,Chrome,1440,900,,,,,0,648,,,,,,,,,,,,,,,,,S,146,hexagon,1,0,,,,,,,,,,,,,,,,repeat,letter,lettRpt,f,1.7459,noRew,,,,,,0,23,0,23,0,1,,,,,,,,,,,,,,,,,
294562,2022-11-28_16h15.04.120,vts_reward_expectancy_bt,2022.2.4,MacIntel,60.04202942,Chrome,1440,900,,,,,0,648,,,,,,,,,,,,,,,,,U,160,hexagon,1,0,,,,,,,,,,,,,,,,switch,number,numSwt,k,1.1642,noRew,,,,,,0,24,0,24,0,1,,,,,,,,,,,,,,,,,
294562,2022-11-28_16h15.04.120,vts_reward_expectancy_bt,2022.2.4,MacIntel,60.04202942,Chrome,1440,900,,,,,0,648,,,,,,,,,,,,,,,,,B,139,triangle,-1,0,,,,,,,,,,,,,,,,switch,no_choice,NA,,,noRew,,,,,,0,25,0,25,0,1,,,,,,,,,,,,,,,,,
294562,2022-11-28_16h15.04.120,vts_reward_expectancy_bt,2022.2.4,MacIntel,60.04202942,Chrome,1440,900,,,,,0,648,,,,,,,,,,,,,,,,,F,132,star,0,0,,,,,,,,,,,,,,,,switch,letter,NA,f,1.0815,noRew,,,,,,0,26,0,26,0,1,,,,,,,,,,,,,,,,,
294562,2022-11-28_16h15.04.120,vts_reward_expectancy_bt,2022.2.4,MacIntel,60.04202942,Chrome,1440,900,,,,,0,648,,,,,,,,,,,,,,,,,D,174,triangle,1,1,,,,,,,,,,,,,,,,repeat,letter,lettRpt,d,0.6413,noRew,,,,,,0,27,0,27,0,1,,,,,,,,,,,,,,,,,
294562,2022-11-28_16h15.04.120,vts_reward_expectancy_bt,2022.2.4,MacIntel,60.04202942,Chrome,1440,900,,,,,0,648,,,,,,,,,,,,,,,,,B,167,circle,1,0,,,,,,,,,,,,,,,,repeat,letter,lettRpt,d,0.8981,noRew,,,,,,0,28,0,28,0,1,,,,,,,,,,,,,,,,,
294562,2022-11-28_16h15.04.120,vts_reward_expectancy_bt,2022.2.4,MacIntel,60.04202942,Chrome,1440,900,,,,,0,648,,,,,,,,,,,,,,,,,S,132,hexagon,1,0,,,,,,,,,,,,,,,,repeat,letter,lettRpt,f,0.9644,noRew,,,,,,0,29,0,29,0,1,,,,,,,,,,,,,,,,,
294562,2022-11-28_16h15.04.120,vts_reward_expectancy_bt,2022.2.4,MacIntel,60.04202942,Chrome,1440,900,,,,,0,648,,,,,,,,,,,,,,,,,U,174,hexagon,1,0,,,,,,,,,,,,,,,,switch,number,numSwt,k,0.9303,noRew,,,,,,0,30,0,30,0,1,,,,,,,,,,,,,,,,,
294562,2022-11-28_16h15.04.120,vts_reward_expectancy_bt,2022.2.4,MacIntel,60.04202942,Chrome,1440,900,,,,,0,648,,,,,,,,,,,,,,,,,Y,125,circle,1,0,,,,,,,,,,,,,,,,repeat,number,numRpt,j,0.8796,noRew,,,,,,0,31,0,31,0,1,,,,,,,,,,,,,,,,,
294562,2022-11-28_16h15.04.120,vts_reward_expectancy_bt,2022.2.4,MacIntel,60.04202942,Chrome,1440,900,,,,,0,648,,,,,,,,,,,,,,,,,Y,132,hexagon,1,0,,,,,,,,,,,,,,,,repeat,number,numRpt,j,0.9503,noRew,,,,,,0,32,0,32,0,1,,,,,,,,,,,,,,,,,
294562,2022-11-28_16h15.04.120,vts_reward_expectancy_bt,2022.2.4,MacIntel,60.04202942,Chrome,1440,900,,,,,0,648,,,,,,,,,,,,,,,,,D,160,star,1,0,,,,,,,,,,,,,,,,repeat,number,numRpt,k,0.8139,noRew,,,,,,0,33,0,33,0,1,,,,,,,,,,,,,,,,,
294562,2022-11-28_16h15.04.120,vts_reward_expectancy_bt,2022.2.4,MacIntel,60.04202942,Chrome,1440,900,,,,,0,648,,,,,,,,,,,,,,,,,W,174,hexagon,1,0,,,,,,,,,,,,,,,,repeat,number,numRpt,k,0.729,noRew,,,,,,0,34,0,34,0,1,,,,,,,,,,,,,,,,,
294562,2022-11-28_16h15.04.120,vts_reward_expectancy_bt,2022.2.4,MacIntel,60.04202942,Chrome,1440,900,,,,,0,648,,,,,,,,,,,,,,,,,H,181,circle,1,0,,,,,,,,,,,,,,,,repeat,number,numRpt,k,0.7784,noRew,,,,,,0,35,0,35,0,1,,,,,,,,,,,,,,,,,
294562,2022-11-28_16h15.04.120,vts_reward_expectancy_bt,2022.2.4,MacIntel,60.04202942,Chrome,1440,900,,,,,0,648,,,,,,,,,,,,,,,,,Y,174,hexagon,1,0,,,,,,,,,,,,,,,,switch,letter,lettSwt,f,0.6416,noRew,,,,,,0,36,0,36,0,1,,,,,,,,,,,,,,,,,
294562,2022-11-28_16h15.04.120,vts_reward_expectancy_bt,2022.2.4,MacIntel,60.04202942,Chrome,1440,900,,,,,0,648,,,,,,,,,,,,,,,,,B,132,triangle,1,0,,,,,,,,,,,,,,,,repeat,letter,lettRpt,d,0.6805,noRew,,,,,,0,37,0,37,0,1,,,,,,,,,,,,,,,,,
294562,2022-11-28_16h15.04.120,vts_reward_expectancy_bt,2022.2.4,MacIntel,60.04202942,Chrome,1440,900,,,,,0,648,,,,,,,,,,,,,,,,,W,181,triangle,1,0,,,,,,,,,,,,,,,,switch,number,numSwt,k,0.6973,noRew,,,,,,0,38,0,38,0,1,,,,,,,,,,,,,,,,,
294562,2022-11-28_16h15.04.120,vts_reward_expectancy_bt,2022.2.4,MacIntel,60.04202942,Chrome,1440,900,,,,,0,648,,,,,,,,,,,,,,,,,D,146,hexagon,1,0,,,,,,,,,,,,,,,,switch,letter,lettSwt,d,0.7793,noRew,,,,,,0,39,0,39,0,1,,,,,,,,,,,,,,,,,
294562,2022-11-28_16h15.04.120,vts_reward_expectancy_bt,2022.2.4,MacIntel,60.04202942,Chrome,1440,900,,,,,0,648,,,,,,,,,,,,,,,,,D,139,circle,1,0,,,,,,,,,,,,,,,,switch,number,numSwt,j,1.8834,noRew,,,,,,0,40,0,40,0,1,,,,,,,,,,,,,,,,,
294562,2022-11-28_16h15.04.120,vts_reward_expectancy_bt,2022.2.4,MacIntel,60.04202942,Chrome,1440,900,,,,,0,648,,,,,,,,,,,,,,,,,F,174,star,1,0,,,,,,,,,,,,,,,,repeat,number,numRpt,k,0.7776,noRew,,,,,,0,41,0,41,0,1,,,,,,,,,,,,,,,,,
294562,2022-11-28_16h15.04.120,vts_reward_expectancy_bt,2022.2.4,MacIntel,60.04202942,Chrome,1440,900,,,,,0,648,,,,,,,,,,,,,,,,,H,167,hexagon,1,0,,,,,,,,,,,,,,,,switch,letter,lettSwt,d,1.6976,noRew,,,,,,0,42,0,42,0,1,,,,,,,,,,,,,,,,,
294562,2022-11-28_16h15.04.120,vts_reward_expectancy_bt,2022.2.4,MacIntel,60.04202942,Chrome,1440,900,,,,,0,648,,,,,,,,,,,,,,,,,B,181,triangle,0,0,,,,,,,,,,,,,,,,repeat,letter,NA,f,1.1488,noRew,,,,,,0,43,0,43,0,1,,,,,,,,,,,,,,,,,
294562,2022-11-28_16h15.04.120,vts_reward_expectancy_bt,2022.2.4,MacIntel,60.04202942,Chrome,1440,900,,,,,0,648,,,,,,,,,,,,,,,,,Y,167,triangle,1,1,,,,,,,,,,,,,,,,repeat,letter,lettRpt,f,0.8958,noRew,,,,,,0,44,0,44,0,1,,,,,,,,,,,,,,,,,
294562,2022-11-28_16h15.04.120,vts_reward_expectancy_bt,2022.2.4,MacIntel,60.04202942,Chrome,1440,900,,,,,0,648,,,,,,,,,,,,,,,,,F,139,star,1,0,,,,,,,,,,,,,,,,switch,number,numSwt,j,0.8946,noRew,,,,,,0,45,0,45,0,1,,,,,,,,,,,,,,,,,
294562,2022-11-28_16h15.04.120,vts_reward_expectancy_bt,2022.2.4,MacIntel,60.04202942,Chrome,1440,900,,,,,0,648,,,,,,,,,,,,,,,,,D,160,triangle,1,0,,,,,,,,,,,,,,,,switch,letter,lettSwt,d,1.3977,noRew,,,,,,0,46,0,46,0,1,,,,,,,,,,,,,,,,,
294562,2022-11-28_16h15.04.120,vts_reward_expectancy_bt,2022.2.4,MacIntel,60.04202942,Chrome,1440,900,,,,,0,648,,,,,,,,,,,,,,,,,U,146,circle,1,0,,,,,,,,,,,,,,,,repeat,letter,lettRpt,f,1.3426,noRew,,,,,,0,47,0,47,0,1,,,,,,,,,,,,,,,,,
294562,2022-11-28_16h15.04.120,vts_reward_expectancy_bt,2022.2.4,MacIntel,60.04202942,Chrome,1440,900,,,,,0,648,,,,,,,,,,,,,,,,,U,174,star,1,0,,,,,,,,,,,,,,,,switch,number,numSwt,k,0.9451,noRew,,,,,,0,48,0,48,0,1,,,,,,,,,,,,,,,,,
294562,2022-11-28_16h15.04.120,vts_reward_expectancy_bt,2022.2.4,MacIntel,60.04202942,Chrome,1440,900,,,,,0,648,,,,,,,,,,,,,,,,,F,125,triangle,1,0,,,,,,,,,,,,,,,,repeat,number,numRpt,j,0.6976,noRew,,,,,,0,49,0,49,0,1,,,,,,,,,,,,,,,,,
294562,2022-11-28_16h15.04.120,vts_reward_expectancy_bt,2022.2.4,MacIntel,60.04202942,Chrome,1440,900,,,,,0,648,,,,,,,,,,,,,,,,,B,146,star,1,0,,,,,,,,,,,,,,,,repeat,number,numRpt,j,1.1281,noRew,,,,,,0,50,0,50,0,1,,,,,,,,,,,,,,,,,
294562,2022-11-28_16h15.04.120,vts_reward_expectancy_bt,2022.2.4,MacIntel,60.04202942,Chrome,1440,900,,,,,0,648,,,,,,,,,,,,,,,,,S,132,circle,1,0,,,,,,,,,,,,,,,,switch,letter,lettSwt,f,1.1311,noRew,,,,,,0,51,0,51,0,1,,,,,,,,,,,,,,,,,
294562,2022-11-28_16h15.04.120,vts_reward_expectancy_bt,2022.2.4,MacIntel,60.04202942,Chrome,1440,900,,,,,0,648,,,,,,,,,,,,,,,,,F,139,triangle,1,0,,,,,,,,,,,,,,,,repeat,letter,lettRpt,d,1.4151,noRew,,,,,,0,52,0,52,0,1,,,,,,,,,,,,,,,,,
294562,2022-11-28_16h15.04.120,vts_reward_expectancy_bt,2022.2.4,MacIntel,60.04202942,Chrome,1440,900,,,,,0,648,,,,,,,,,,,,,,,,,S,125,hexagon,1,0,,,,,,,,,,,,,,,,repeat,letter,lettRpt,f,0.8102,noRew,,,,,,0,53,0,53,0,1,,,,,,,,,,,,,,,,,
294562,2022-11-28_16h15.04.120,vts_reward_expectancy_bt,2022.2.4,MacIntel,60.04202942,Chrome,1440,900,,,,,0,648,,,,,,,,,,,,,,,,,Y,167,circle,1,0,,,,,,,,,,,,,,,,switch,number,numSwt,k,1.2452,noRew,,,,,,0,54,0,54,0,1,,,,,,,,,,,,,,,,,
294562,2022-11-28_16h15.04.120,vts_reward_expectancy_bt,2022.2.4,MacIntel,60.04202942,Chrome,1440,900,,,,,0,648,,,,,,,,,,,,,,,,,B,160,star,1,0,,,,,,,,,,,,,,,,repeat,number,numRpt,k,0.9116,noRew,,,,,,0,55,0,55,0,1,,,,,,,,,,,,,,,,,
294562,2022-11-28_16h15.04.120,vts_reward_expectancy_bt,2022.2.4,MacIntel,60.04202942,Chrome,1440,900,,,,,0,648,,,,,,,,,,,,,,,,,H,174,triangle,1,0,,,,,,,,,,,,,,,,switch,letter,lettSwt,d,0.9923,noRew,,,,,,0,56,0,56,0,1,,,,,,,,,,,,,,,,,
294562,2022-11-28_16h15.04.120,vts_reward_expectancy_bt,2022.2.4,MacIntel,60.04202942,Chrome,1440,900,,,,,0,648,,,,,,,,,,,,,,,,,S,160,hexagon,1,0,,,,,,,,,,,,,,,,repeat,letter,lettRpt,f,0.7103,noRew,,,,,,0,57,0,57,0,1,,,,,,,,,,,,,,,,,
294562,2022-11-28_16h15.04.120,vts_reward_expectancy_bt,2022.2.4,MacIntel,60.04202942,Chrome,1440,900,,,,,0,648,,,,,,,,,,,,,,,,,U,125,hexagon,1,0,,,,,,,,,,,,,,,,repeat,letter,lettRpt,f,0.9983,noRew,,,,,,0,58,0,58,0,1,,,,,,,,,,,,,,,,,
294562,2022-11-28_16h15.04.120,vts_reward_expectancy_bt,2022.2.4,MacIntel,60.04202942,Chrome,1440,900,,,,,0,648,,,,,,,,,,,,,,,,,D,167,circle,1,0,,,,,,,,,,,,,,,,switch,number,numSwt,k,1.4816,noRew,,,,,,0,59,0,59,0,1,,,,,,,,,,,,,,,,,
294562,2022-11-28_16h15.04.120,vts_reward_expectancy_bt,2022.2.4,MacIntel,60.04202942,Chrome,1440,900,,,,,0,648,,,,,,,,,,,,,,,,,Y,139,triangle,1,0,,,,,,,,,,,,,,,,repeat,number,numRpt,j,0.8449,noRew,,,,,,0,60,0,60,0,1,,,,,,,,,,,,,,,,,
294562,2022-11-28_16h15.04.120,vts_reward_expectancy_bt,2022.2.4,MacIntel,60.04202942,Chrome,1440,900,,,,,0,648,,,,,,,,,,,,,,,,,F,146,hexagon,1,0,,,,,,,,,,,,,,,,repeat,number,numRpt,j,0.7305,noRew,,,,,,0,61,0,61,0,1,,,,,,,,,,,,,,,,,
294562,2022-11-28_16h15.04.120,vts_reward_expectancy_bt,2022.2.4,MacIntel,60.04202942,Chrome,1440,900,,,,,0,648,,,,,,,,,,,,,,,,,B,125,circle,1,0,,,,,,,,,,,,,,,,switch,letter,lettSwt,d,0.7619,noRew,,,,,,0,62,0,62,0,1,,,,,,,,,,,,,,,,,
294562,2022-11-28_16h15.04.120,vts_reward_expectancy_bt,2022.2.4,MacIntel,60.04202942,Chrome,1440,900,,,,,0,648,,,,,,,,,,,,,,,,,S,181,triangle,1,0,,,,,,,,,,,,,,,,switch,number,numSwt,k,1.1147,noRew,,,,,,0,63,0,63,0,1,,,,,,,,,,,,,,,,,
294562,2022-11-28_16h15.04.120,vts_reward_expectancy_bt,2022.2.4,MacIntel,60.04202942,Chrome,1440,900,,,,,,,,,,,,,,,,,,,,,,,,,,,,,,,,,,,,,,,,,,,,,,,,,,,,,,,,,,,,,,,,,,,,,,,,,,,,
294562,2022-11-28_16h15.04.120,vts_reward_expectancy_bt,2022.2.4,MacIntel,60.04202942,Chrome,1440,900,,,,,1,649,,,,,,,,,,,,,,,,,B,125,triangle,1,0,,,,,,,,,,,,,,,,switch,letter,lettSwt,d,2.2094,Lo,,,,,,0,,,,,,space,4.9453,low,0,0,0,0,1,,,,,,,,,
294562,2022-11-28_16h15.04.120,vts_reward_expectancy_bt,2022.2.4,MacIntel,60.04202942,Chrome,1440,900,,,,,10,659,,,,,,,,,,,,,,,,,H,132,hexagon,1,0,,,,,,,,,,,,,,,,switch,number,numSwt,j,1.0152,Hi,,,,,,0,,,,,,,,low,1,0,1,0,1,,,,,,,,,
294562,2022-11-28_16h15.04.120,vts_reward_expectancy_bt,2022.2.4,MacIntel,60.04202942,Chrome,1440,900,,,,,0,659,,,,,,,,,,,,,,,,,S,174,star,1,0,,,,,,,,,,,,,,,,repeat,number,numRpt,k,0.8616,Hi,,,,,,0,,,,,,,,low,2,0,2,0,1,,,,,,,,,
294562,2022-11-28_16h15.04.120,vts_reward_expectancy_bt,2022.2.4,MacIntel,60.04202942,Chrome,1440,900,,,,,10,669,,,,,,,,,,,,,,,,,Y,139,circle,1,0,,,,,,,,,,,,,,,,repeat,number,numRpt,j,0.946,Lo,,,,,,0,,,,,,,,low,3,0,3,0,1,,,,,,,,,
294562,2022-11-28_16h15.04.120,vts_reward_expectancy_bt,2022.2.4,MacIntel,60.04202942,Chrome,1440,900,,,,,10,679,,,,,,,,,,,,,,,,,F,167,triangle,1,0,,,,,,,,,,,,,,,,repeat,number,numRpt,k,0.9129,Lo,,,,,,0,,,,,,,,low,4,0,4,0,1,,,,,,,,,
294562,2022-11-28_16h15.04.120,vts_reward_expectancy_bt,2022.2.4,MacIntel,60.04202942,Chrome,1440,900,,,,,0,679,,,,,,,,,,,,,,,,,D,181,hexagon,1,0,,,,,,,,,,,,,,,,switch,letter,lettSwt,d,0.9938,Hi,,,,,,0,,,,,,,,low,5,0,5,0,1,,,,,,,,,
294562,2022-11-28_16h15.04.120,vts_reward_expectancy_bt,2022.2.4,MacIntel,60.04202942,Chrome,1440,900,,,,,0,679,,,,,,,,,,,,,,,,,U,146,star,1,0,,,,,,,,,,,,,,,,switch,number,numSwt,j,1.2995,Hi,,,,,,0,,,,,,,,low,6,0,6,0,1,,,,,,,,,
294562,2022-11-28_16h15.04.120,vts_reward_expectancy_bt,2022.2.4,MacIntel,60.04202942,Chrome,1440,900,,,,,1,680,,,,,,,,,,,,,,,,,W,160,circle,1,0,,,,,,,,,,,,,,,,switch,letter,lettSwt,f,0.8933,Lo,,,,,,0,,,,,,,,low,7,0,7,0,1,,,,,,,,,
294562,2022-11-28_16h15.04.120,vts_reward_expectancy_bt,2022.2.4,MacIntel,60.04202942,Chrome,1440,900,,,,,1,681,,,,,,,,,,,,,,,,,B,125,circle,1,0,,,,,,,,,,,,,,,,switch,number,numSwt,j,0.8294,Lo,,,,,,0,,,,,,,,low,8,0,8,0,1,,,,,,,,,
294562,2022-11-28_16h15.04.120,vts_reward_expectancy_bt,2022.2.4,MacIntel,60.04202942,Chrome,1440,900,,,,,0,681,,,,,,,,,,,,,,,,,H,132,hexagon,0,0,,,,,,,,,,,,,,,,switch,letter,NA,f,0.9774,Lo,,,,,,0,,,,,,,,low,9,0,9,0,1,,,,,,,,,
294562,2022-11-28_16h15.04.120,vts_reward_expectancy_bt,2022.2.4,MacIntel,60.04202942,Chrome,1440,900,,,,,0,681,,,,,,,,,,,,,,,,,S,174,star,1,1,,,,,,,,,,,,,,,,repeat,letter,lettRpt,f,1.4781,Hi,,,,,,0,,,,,,,,low,10,0,10,0,1,,,,,,,,,
294562,2022-11-28_16h15.04.120,vts_reward_expectancy_bt,2022.2.4,MacIntel,60.04202942,Chrome,1440,900,,,,,1,682,,,,,,,,,,,,,,,,,Y,139,triangle,1,0,,,,,,,,,,,,,,,,switch,number,numSwt,j,0.9312,Lo,,,,,,0,,,,,,,,low,11,0,11,0,1,,,,,,,,,
294562,2022-11-28_16h15.04.120,vts_reward_expectancy_bt,2022.2.4,MacIntel,60.04202942,Chrome,1440,900,,,,,1,683,,,,,,,,,,,,,,,,,F,167,triangle,1,0,,,,,,,,,,,,,,,,switch,letter,lettSwt,d,1.1507,Lo,,,,,,0,,,,,,,,low,12,0,12,0,1,,,,,,,,,
294562,2022-11-28_16h15.04.120,vts_reward_expectancy_bt,2022.2.4,MacIntel,60.04202942,Chrome,1440,900,,,,,10,693,,,,,,,,,,,,,,,,,D,181,star,1,0,,,,,,,,,,,,,,,,switch,number,numSwt,k,0.9115,Hi,,,,,,0,,,,,,,,low,13,0,13,0,1,,,,,,,,,
294562,2022-11-28_16h15.04.120,vts_reward_expectancy_bt,2022.2.4,MacIntel,60.04202942,Chrome,1440,900,,,,,10,703,,,,,,,,,,,,,,,,,U,146,hexagon,1,0,,,,,,,,,,,,,,,,repeat,number,numRpt,j,0.6989,Hi,,,,,,0,,,,,,,,low,14,0,14,0,1,,,,,,,,,
294562,2022-11-28_16h15.04.120,vts_reward_expectancy_bt,2022.2.4,MacIntel,60.04202942,Chrome,1440,900,,,,,1,704,,,,,,,,,,,,,,,,,W,160,circle,1,0,,,,,,,,,,,,,,,,switch,letter,lettSwt,f,0.8775,Lo,,,,,,0,,,,,,,,low,15,0,15,0,1,,,,,,,,,
294562,2022-11-28_16h15.04.120,vts_reward_expectancy_bt,2022.2.4,MacIntel,60.04202942,Chrome,1440,900,,,,,10,714,,,,,,,,,,,,,,,,,D,125,triangle,1,0,,,,,,,,,,,,,,,,repeat,letter,lettRpt,d,0.7983,Lo,,,,,,0,,,,,,,,low,16,0,16,0,1,,,,,,,,,
294562,2022-11-28_16h15.04.120,vts_reward_expectancy_bt,2022.2.4,MacIntel,60.04202942,Chrome,1440,900,,,,,1,715,,,,,,,,,,,,,,,,,B,181,circle,1,0,,,,,,,,,,,,,,,,switch,number,numSwt,k,0.8469,Lo,,,,,,0,,,,,,,,low,17,0,17,0,1,,,,,,,,,
294562,2022-11-28_16h15.04.120,vts_reward_expectancy_bt,2022.2.4,MacIntel,60.04202942,Chrome,1440,900,,,,,10,725,,,,,,,,,,,,,,,,,W,146,star,1,0,,,,,,,,,,,,,,,,switch,letter,lettSwt,f,0.8171,Hi,,,,,,0,,,,,,,,low,18,0,18,0,1,,,,,,,,,
294562,2022-11-28_16h15.04.120,vts_reward_expectancy_bt,2022.2.4,MacIntel,60.04202942,Chrome,1440,900,,,,,0,725,,,,,,,,,,,,,,,,,Y,139,hexagon,1,0,,,,,,,,,,,,,,,,repeat,letter,lettRpt,f,0.9814,Hi,,,,,,0,,,,,,,,low,19,0,19,0,1,,,,,,,,,
294562,2022-11-28_16h15.04.120,vts_reward_expectancy_bt,2022.2.4,MacIntel,60.04202942,Chrome,1440,900,,,,,1,726,,,,,,,,,,,,,,,,,F,132,circle,1,0,,,,,,,,,,,,,,,,switch,number,numSwt,j,0.7976,Lo,,,,,,0,,,,,,,,low,20,0,20,0,1,,,,,,,,,
294562,2022-11-28_16h15.04.120,vts_reward_expectancy_bt,2022.2.4,MacIntel,60.04202942,Chrome,1440,900,,,,,0,726,,,,,,,,,,,,,,,,,H,174,hexagon,1,0,,,,,,,,,,,,,,,,repeat,number,numRpt,k,0.8447,Hi,,,,,,0,,,,,,,,low,21,0,21,0,1,,,,,,,,,
294562,2022-11-28_16h15.04.120,vts_reward_expectancy_bt,2022.2.4,MacIntel,60.04202942,Chrome,1440,900,,,,,0,726,,,,,,,,,,,,,,,,,S,167,star,1,0,,,,,,,,,,,,,,,,repeat,number,numRpt,k,0.8274,Hi,,,,,,0,,,,,,,,low,22,0,22,0,1,,,,,,,,,
294562,2022-11-28_16h15.04.120,vts_reward_expectancy_bt,2022.2.4,MacIntel,60.04202942,Chrome,1440,900,,,,,1,727,,,,,,,,,,,,,,,,,U,160,triangle,1,0,,,,,,,,,,,,,,,,repeat,number,numRpt,k,0.9311,Lo,,,,,,0,,,,,,,,low,23,0,23,0,1,,,,,,,,,
294562,2022-11-28_16h15.04.120,vts_reward_expectancy_bt,2022.2.4,MacIntel,60.04202942,Chrome,1440,900,,,,,0,727,,,,,,,,,,,,,,,,,D,139,hexagon,1,0,,,,,,,,,,,,,,,,repeat,number,numRpt,j,1.2659,Hi,,,,,,0,,,,,,,,low,24,0,24,0,1,,,,,,,,,
294562,2022-11-28_16h15.04.120,vts_reward_expectancy_bt,2022.2.4,MacIntel,60.04202942,Chrome,1440,900,,,,,1,728,,,,,,,,,,,,,,,,,H,125,star,1,0,,,,,,,,,,,,,,,,switch,letter,lettSwt,d,0.6646,Hi,,,,,,0,,,,,,,,low,25,0,25,0,1,,,,,,,,,
294562,2022-11-28_16h15.04.120,vts_reward_expectancy_bt,2022.2.4,MacIntel,60.04202942,Chrome,1440,900,,,,,1,729,,,,,,,,,,,,,,,,,S,132,circle,1,0,,,,,,,,,,,,,,,,repeat,letter,lettRpt,f,0.7501,Lo,,,,,,0,,,,,,,,low,26,0,26,0,1,,,,,,,,,
294562,2022-11-28_16h15.04.120,vts_reward_expectancy_bt,2022.2.4,MacIntel,60.04202942,Chrome,1440,900,,,,,1,730,,,,,,,,,,,,,,,,,B,146,triangle,1,0,,,,,,,,,,,,,,,,switch,number,numSwt,j,0.7494,Lo,,,,,,0,,,,,,,,low,27,0,27,0,1,,,,,,,,,
294562,2022-11-28_16h15.04.120,vts_reward_expectancy_bt,2022.2.4,MacIntel,60.04202942,Chrome,1440,900,,,,,10,740,,,,,,,,,,,,,,,,,W,181,star,1,0,,,,,,,,,,,,,,,,switch,letter,lettSwt,f,0.7164,Hi,,,,,,0,,,,,,,,low,28,0,28,0,1,,,,,,,,,
294562,2022-11-28_16h15.04.120,vts_reward_expectancy_bt,2022.2.4,MacIntel,60.04202942,Chrome,1440,900,,,,,0,740,,,,,,,,,,,,,,,,,F,160,hexagon,1,0,,,,,,,,,,,,,,,,switch,number,numSwt,k,1.459,Hi,,,,,,0,,,,,,,,low,29,0,29,0,1,,,,,,,,,
294562,2022-11-28_16h15.04.120,vts_reward_expectancy_bt,2022.2.4,MacIntel,60.04202942,Chrome,1440,900,,,,,1,741,,,,,,,,,,,,,,,,,Y,167,triangle,1,0,,,,,,,,,,,,,,,,repeat,number,numRpt,k,0.83,Lo,,,,,,0,,,,,,,,low,30,0,30,0,1,,,,,,,,,
294562,2022-11-28_16h15.04.120,vts_reward_expectancy_bt,2022.2.4,MacIntel,60.04202942,Chrome,1440,900,,,,,10,751,,,,,,,,,,,,,,,,,U,174,circle,1,0,,,,,,,,,,,,,,,,switch,letter,lettSwt,f,0.7137,Lo,,,,,,0,,,,,,,,low,31,0,31,0,1,,,,,,,,,
294562,2022-11-28_16h15.04.120,vts_reward_expectancy_bt,2022.2.4,MacIntel,60.04202942,Chrome,1440,900,,,,,1,752,,,,,,,,,,,,,,,,,Y,174,triangle,1,0,,,,,,,,,,,,,,,,repeat,letter,lettRpt,f,0.499,Lo,,,,,,1,,,,,,space,4.1993,low,0,0,0,0,1,,,,,,,,,
294562,2022-11-28_16h15.04.120,vts_reward_expectancy_bt,2022.2.4,MacIntel,60.04202942,Chrome,1440,900,,,,,1,753,,,,,,,,,,,,,,,,,W,139,star,1,0,,,,,,,,,,,,,,,,switch,number,numSwt,j,0.5684,Hi,,,,,,1,,,,,,,,low,1,0,1,0,1,,,,,,,,,
294562,2022-11-28_16h15.04.120,vts_reward_expectancy_bt,2022.2.4,MacIntel,60.04202942,Chrome,1440,900,,,,,1,754,,,,,,,,,,,,,,,,,U,125,circle,1,0,,,,,,,,,,,,,,,,repeat,number,numRpt,j,0.6154,Lo,,,,,,1,,,,,,,,low,2,0,2,0,1,,,,,,,,,
294562,2022-11-28_16h15.04.120,vts_reward_expectancy_bt,2022.2.4,MacIntel,60.04202942,Chrome,1440,900,,,,,0,754,,,,,,,,,,,,,,,,,F,132,hexagon,1,0,,,,,,,,,,,,,,,,switch,letter,lettSwt,d,0.9968,Hi,,,,,,1,,,,,,,,low,3,0,3,0,1,,,,,,,,,
294562,2022-11-28_16h15.04.120,vts_reward_expectancy_bt,2022.2.4,MacIntel,60.04202942,Chrome,1440,900,,,,,1,755,,,,,,,,,,,,,,,,,H,181,triangle,1,0,,,,,,,,,,,,,,,,repeat,letter,lettRpt,d,0.7498,Lo,,,,,,1,,,,,,,,low,4,0,4,0,1,,,,,,,,,
294562,2022-11-28_16h15.04.120,vts_reward_expectancy_bt,2022.2.4,MacIntel,60.04202942,Chrome,1440,900,,,,,1,756,,,,,,,,,,,,,,,,,B,160,star,1,0,,,,,,,,,,,,,,,,repeat,letter,lettRpt,d,0.7649,Hi,,,,,,1,,,,,,,,low,5,0,5,0,1,,,,,,,,,
294562,2022-11-28_16h15.04.120,vts_reward_expectancy_bt,2022.2.4,MacIntel,60.04202942,Chrome,1440,900,,,,,0,756,,,,,,,,,,,,,,,,,D,167,circle,0,0,,,,,,,,,,,,,,,,switch,number,NA,j,0.8003,Hi,,,,,,1,,,,,,,,low,6,0,6,0,1,,,,,,,,,
294562,2022-11-28_16h15.04.120,vts_reward_expectancy_bt,2022.2.4,MacIntel,60.04202942,Chrome,1440,900,,,,,0,756,,,,,,,,,,,,,,,,,S,146,hexagon,1,1,,,,,,,,,,,,,,,,repeat,number,numRpt,j,1.8918,Hi,,,,,,1,,,,,,,,low,7,0,7,0,1,,,,,,,,,
294562,2022-11-28_16h15.04.120,vts_reward_expectancy_bt,2022.2.4,MacIntel,60.04202942,Chrome,1440,900,,,,,0,756,,,,,,,,,,,,,,,,,Y,174,hexagon,1,0,,,,,,,,,,,,,,,,switch,letter,lettSwt,f,2.6774,Hi,,,,,,1,,,,,,,,low,8,0,8,0,1,,,,,,,,,
294562,2022-11-28_16h15.04.120,vts_reward_expectancy_bt,2022.2.4,MacIntel,60.04202942,Chrome,1440,900,,,,,1,757,,,,,,,,,,,,,,,,,W,139,circle,1,0,,,,,,,,,,,,,,,,repeat,letter,lettRpt,f,0.7427,Lo,,,,,,1,,,,,,,,low,9,0,9,0,1,,,,,,,,,
294562,2022-11-28_16h15.04.120,vts_reward_expectancy_bt,2022.2.4,MacIntel,60.04202942,Chrome,1440,900,,,,,10,767,,,,,,,,,,,,,,,,,U,125,triangle,1,0,,,,,,,,,,,,,,,,switch,number,numSwt,j,0.6166,Lo,,,,,,1,,,,,,,,low,10,0,10,0,1,,,,,,,,,
294562,2022-11-28_16h15.04.120,vts_reward_expectancy_bt,2022.2.4,MacIntel,60.04202942,Chrome,1440,900,,,,,10,777,,,,,,,,,,,,,,,,,F,132,star,1,0,,,,,,,,,,,,,,,,repeat,number,numRpt,j,0.5322,Hi,,,,,,1,,,,,,,,low,11,0,11,0,1,,,,,,,,,
294562,2022-11-28_16h15.04.120,vts_reward_expectancy_bt,2022.2.4,MacIntel,60.04202942,Chrome,1440,900,,,,,10,787,,,,,,,,,,,,,,,,,H,181,star,1,0,,,,,,,,,,,,,,,,repeat,number,numRpt,k,0.6982,Hi,,,,,,1,,,,,,,,low,12,0,12,0,1,,,,,,,,,
294562,2022-11-28_16h15.04.120,vts_reward_expectancy_bt,2022.2.4,MacIntel,60.04202942,Chrome,1440,900,,,,,0,787,,,,,,,,,,,,,,,,,B,160,hexagon,1,0,,,,,,,,,,,,,,,,repeat,number,numRpt,k,0.8642,Hi,,,,,,1,,,,,,,,low,13,0,13,0,1,,,,,,,,,
294562,2022-11-28_16h15.04.120,vts_reward_expectancy_bt,2022.2.4,MacIntel,60.04202942,Chrome,1440,900,,,,,10,797,,,,,,,,,,,,,,,,,D,167,circle,1,0,,,,,,,,,,,,,,,,switch,letter,lettSwt,d,0.9269,Lo,,,,,,1,,,,,,,,low,14,0,14,0,1,,,,,,,,,
294562,2022-11-28_16h15.04.120,vts_reward_expectancy_bt,2022.2.4,MacIntel,60.04202942,Chrome,1440,900,,,,,10,807,,,,,,,,,,,,,,,,,S,146,triangle,1,0,,,,,,,,,,,,,,,,repeat,letter,lettRpt,f,0.9649,Lo,,,,,,1,,,,,,,,low,15,0,15,0,1,,,,,,,,,
294562,2022-11-28_16h15.04.120,vts_reward_expectancy_bt,2022.2.4,MacIntel,60.04202942,Chrome,1440,900,,,,,1,808,,,,,,,,,,,,,,,,,U,139,hexagon,1,0,,,,,,,,,,,,,,,,switch,number,numSwt,j,0.7935,Hi,,,,,,1,,,,,,,,low,16,0,16,0,1,,,,,,,,,
294562,2022-11-28_16h15.04.120,vts_reward_expectancy_bt,2022.2.4,MacIntel,60.04202942,Chrome,1440,900,,,,,0,808,,,,,,,,,,,,,,,,,H,146,circle,0,0,,,,,,,,,,,,,,,,repeat,number,NA,k,1.5974,Hi,,,,,,1,,,,,,,,low,17,0,17,0,1,,,,,,,,,
294562,2022-11-28_16h15.04.120,vts_reward_expectancy_bt,2022.2.4,MacIntel,60.04202942,Chrome,1440,900,,,,,0,808,,,,,,,,,,,,,,,,,Y,160,star,1,1,,,,,,,,,,,,,,,,repeat,number,numRpt,k,0.8419,Hi,,,,,,1,,,,,,,,low,18,0,18,0,1,,,,,,,,,
294562,2022-11-28_16h15.04.120,vts_reward_expectancy_bt,2022.2.4,MacIntel,60.04202942,Chrome,1440,900,,,,,10,818,,,,,,,,,,,,,,,,,S,132,triangle,1,0,,,,,,,,,,,,,,,,repeat,number,numRpt,j,0.6804,Lo,,,,,,1,,,,,,,,low,19,0,19,0,1,,,,,,,,,
294562,2022-11-28_16h15.04.120,vts_reward_expectancy_bt,2022.2.4,MacIntel,60.04202942,Chrome,1440,900,,,,,1,819,,,,,,,,,,,,,,,,,F,181,circle,1,0,,,,,,,,,,,,,,,,switch,letter,lettSwt,d,1.0312,Lo,,,,,,1,,,,,,,,low,20,0,20,0,1,,,,,,,,,
294562,2022-11-28_16h15.04.120,vts_reward_expectancy_bt,2022.2.4,MacIntel,60.04202942,Chrome,1440,900,,,,,10,829,,,,,,,,,,,,,,,,,W,167,star,1,0,,,,,,,,,,,,,,,,switch,number,numSwt,k,0.7598,Hi,,,,,,1,,,,,,,,low,21,0,21,0,1,,,,,,,,,
294562,2022-11-28_16h15.04.120,vts_reward_expectancy_bt,2022.2.4,MacIntel,60.04202942,Chrome,1440,900,,,,,10,839,,,,,,,,,,,,,,,,,B,174,triangle,1,0,,,,,,,,,,,,,,,,repeat,number,numRpt,k,0.9941,Lo,,,,,,1,,,,,,,,low,22,0,22,0,1,,,,,,,,,
294562,2022-11-28_16h15.04.120,vts_reward_expectancy_bt,2022.2.4,MacIntel,60.04202942,Chrome,1440,900,,,,,10,849,,,,,,,,,,,,,,,,,D,125,hexagon,1,0,,,,,,,,,,,,,,,,repeat,number,numRpt,j,0.769,Hi,,,,,,1,,,,,,,,low,23,0,23,0,1,,,,,,,,,
294562,2022-11-28_16h15.04.120,vts_reward_expectancy_bt,2022.2.4,MacIntel,60.04202942,Chrome,1440,900,,,,,10,859,,,,,,,,,,,,,,,,,D,181,star,1,0,,,,,,,,,,,,,,,,repeat,number,numRpt,k,0.6826,Hi,,,,,,1,,,,,,,,low,24,0,24,0,1,,,,,,,,,
294562,2022-11-28_16h15.04.120,vts_reward_expectancy_bt,2022.2.4,MacIntel,60.04202942,Chrome,1440,900,,,,,1,860,,,,,,,,,,,,,,,,,Y,132,triangle,1,0,,,,,,,,,,,,,,,,switch,letter,lettSwt,f,0.6836,Lo,,,,,,1,,,,,,,,low,25,0,25,0,1,,,,,,,,,
294562,2022-11-28_16h15.04.120,vts_reward_expectancy_bt,2022.2.4,MacIntel,60.04202942,Chrome,1440,900,,,,,1,861,,,,,,,,,,,,,,,,,B,174,hexagon,1,0,,,,,,,,,,,,,,,,switch,number,numSwt,k,0.7744,Hi,,,,,,1,,,,,,,,low,26,0,26,0,1,,,,,,,,,
294562,2022-11-28_16h15.04.120,vts_reward_expectancy_bt,2022.2.4,MacIntel,60.04202942,Chrome,1440,900,,,,,10,871,,,,,,,,,,,,,,,,,H,125,circle,1,0,,,,,,,,,,,,,,,,repeat,number,numRpt,j,0.6633,Lo,,,,,,1,,,,,,,,low,27,0,27,0,1,,,,,,,,,
294562,2022-11-28_16h15.04.120,vts_reward_expectancy_bt,2022.2.4,MacIntel,60.04202942,Chrome,1440,900,,,,,1,872,,,,,,,,,,,,,,,,,S,167,triangle,1,0,,,,,,,,,,,,,,,,switch,letter,lettSwt,f,0.5982,Lo,,,,,,1,,,,,,,,low,28,0,28,0,1,,,,,,,,,
294562,2022-11-28_16h15.04.120,vts_reward_expectancy_bt,2022.2.4,MacIntel,60.04202942,Chrome,1440,900,,,,,0,872,,,,,,,,,,,,,,,,,F,139,star,0,0,,,,,,,,,,,,,,,,repeat,letter,NA,f,0.9818,Lo,,,,,,1,,,,,,,,low,29,0,29,0,1,,,,,,,,,
294562,2022-11-28_16h15.04.120,vts_reward_expectancy_bt,2022.2.4,MacIntel,60.04202942,Chrome,1440,900,,,,,10,882,,,,,,,,,,,,,,,,,U,160,hexagon,1,1,,,,,,,,,,,,,,,,switch,number,numSwt,k,0.643,Hi,,,,,,1,,,,,,,,low,30,0,30,0,1,,,,,,,,,
294562,2022-11-28_16h15.04.120,vts_reward_expectancy_bt,2022.2.4,MacIntel,60.04202942,Chrome,1440,900,,,,,10,892,,,,,,,,,,,,,,,,,W,146,circle,1,0,,,,,,,,,,,,,,,,switch,letter,lettSwt,f,0.7982,Lo,,,,,,1,,,,,,,,low,31,0,31,0,1,,,,,,,,,
294562,2022-11-28_16h15.04.120,vts_reward_expectancy_bt,2022.2.4,MacIntel,60.04202942,Chrome,1440,900,,,,,0,892,,,,,,,,,,,,,,,,,W,174,hexagon,1,0,,,,,,,,,,,,,,,,repeat,letter,lettRpt,f,0.9171,Hi,,,,,,2,,,,,,space,1.4141,low,0,0,0,0,1,,,,,,,,,
294562,2022-11-28_16h15.04.120,vts_reward_expectancy_bt,2022.2.4,MacIntel,60.04202942,Chrome,1440,900,,,,,10,902,,,,,,,,,,,,,,,,,Y,160,triangle,1,0,,,,,,,,,,,,,,,,repeat,letter,lettRpt,f,0.8971,Lo,,,,,,2,,,,,,,,low,1,0,1,0,1,,,,,,,,,
294562,2022-11-28_16h15.04.120,vts_reward_expectancy_bt,2022.2.4,MacIntel,60.04202942,Chrome,1440,900,,,,,10,912,,,,,,,,,,,,,,,,,B,181,circle,1,0,,,,,,,,,,,,,,,,repeat,letter,lettRpt,d,0.529,Lo,,,,,,2,,,,,,,,low,2,0,2,0,1,,,,,,,,,
294562,2022-11-28_16h15.04.120,vts_reward_expectancy_bt,2022.2.4,MacIntel,60.04202942,Chrome,1440,900,,,,,1,913,,,,,,,,,,,,,,,,,H,139,star,1,0,,,,,,,,,,,,,,,,switch,number,numSwt,j,0.5003,Hi,,,,,,2,,,,,,,,low,3,0,3,0,1,,,,,,,,,
294562,2022-11-28_16h15.04.120,vts_reward_expectancy_bt,2022.2.4,MacIntel,60.04202942,Chrome,1440,900,,,,,0,913,,,,,,,,,,,,,,,,,F,132,hexagon,1,0,,,,,,,,,,,,,,,,repeat,number,numRpt,j,0.6988,Hi,,,,,,2,,,,,,,,low,4,0,4,0,1,,,,,,,,,
294562,2022-11-28_16h15.04.120,vts_reward_expectancy_bt,2022.2.4,MacIntel,60.04202942,Chrome,1440,900,,,,,1,914,,,,,,,,,,,,,,,,,S,125,triangle,1,0,,,,,,,,,,,,,,,,switch,letter,lettSwt,f,0.5986,Lo,,,,,,2,,,,,,,,low,5,0,5,0,1,,,,,,,,,
294562,2022-11-28_16h15.04.120,vts_reward_expectancy_bt,2022.2.4,MacIntel,60.04202942,Chrome,1440,900,,,,,1,915,,,,,,,,,,,,,,,,,U,167,circle,1,0,,,,,,,,,,,,,,,,switch,number,numSwt,k,0.775,Lo,,,,,,2,,,,,,,,low,6,0,6,0,1,,,,,,,,,
294562,2022-11-28_16h15.04.120,vts_reward_expectancy_bt,2022.2.4,MacIntel,60.04202942,Chrome,1440,900,,,,,0,915,,,,,,,,,,,,,,,,,D,146,star,1,0,,,,,,,,,,,,,,,,repeat,number,numRpt,j,1.1267,Hi,,,,,,2,,,,,,,,low,7,0,7,0,1,,,,,,,,,
294562,2022-11-28_16h15.04.120,vts_reward_expectancy_bt,2022.2.4,MacIntel,60.04202942,Chrome,1440,900,,,,,1,916,,,,,,,,,,,,,,,,,W,174,circle,1,0,,,,,,,,,,,,,,,,switch,letter,lettSwt,f,0.781,Lo,,,,,,2,,,,,,,,low,8,0,8,0,1,,,,,,,,,
294562,2022-11-28_16h15.04.120,vts_reward_expectancy_bt,2022.2.4,MacIntel,60.04202942,Chrome,1440,900,,,,,10,926,,,,,,,,,,,,,,,,,Y,160,triangle,1,0,,,,,,,,,,,,,,,,switch,number,numSwt,k,1.2798,Lo,,,,,,2,,,,,,,,low,9,0,9,0,1,,,,,,,,,
294562,2022-11-28_16h15.04.120,vts_reward_expectancy_bt,2022.2.4,MacIntel,60.04202942,Chrome,1440,900,,,,,1,927,,,,,,,,,,,,,,,,,B,181,star,1,0,,,,,,,,,,,,,,,,repeat,number,numRpt,k,0.5336,Hi,,,,,,2,,,,,,,,low,10,0,10,0,1,,,,,,,,,
294562,2022-11-28_16h15.04.120,vts_reward_expectancy_bt,2022.2.4,MacIntel,60.04202942,Chrome,1440,900,,,,,0,927,,,,,,,,,,,,,,,,,H,139,hexagon,1,0,,,,,,,,,,,,,,,,repeat,number,numRpt,j,0.6844,Hi,,,,,,2,,,,,,,,low,11,0,11,0,1,,,,,,,,,
294562,2022-11-28_16h15.04.120,vts_reward_expectancy_bt,2022.2.4,MacIntel,60.04202942,Chrome,1440,900,,,,,0,927,,,,,,,,,,,,,,,,,F,132,star,1,0,,,,,,,,,,,,,,,,repeat,number,numRpt,j,0.7646,Hi,,,,,,2,,,,,,,,low,12,0,12,0,1,,,,,,,,,
294562,2022-11-28_16h15.04.120,vts_reward_expectancy_bt,2022.2.4,MacIntel,60.04202942,Chrome,1440,900,,,,,10,937,,,,,,,,,,,,,,,,,S,125,triangle,1,0,,,,,,,,,,,,,,,,switch,letter,lettSwt,f,0.7468,Lo,,,,,,2,,,,,,,,low,13,0,13,0,1,,,,,,,,,
294562,2022-11-28_16h15.04.120,vts_reward_expectancy_bt,2022.2.4,MacIntel,60.04202942,Chrome,1440,900,,,,,1,938,,,,,,,,,,,,,,,,,U,167,circle,1,0,,,,,,,,,,,,,,,,repeat,letter,lettRpt,f,0.7285,Lo,,,,,,2,,,,,,,,low,14,0,14,0,1,,,,,,,,,
294562,2022-11-28_16h15.04.120,vts_reward_expectancy_bt,2022.2.4,MacIntel,60.04202942,Chrome,1440,900,,,,,0,938,,,,,,,,,,,,,,,,,D,146,hexagon,1,0,,,,,,,,,,,,,,,,switch,number,numSwt,j,0.7329,Hi,,,,,,2,,,,,,,,low,15,0,15,0,1,,,,,,,,,
294562,2022-11-28_16h15.04.120,vts_reward_expectancy_bt,2022.2.4,MacIntel,60.04202942,Chrome,1440,900,,,,,10,948,,,,,,,,,,,,,,,,,D,181,star,1,0,,,,,,,,,,,,,,,,switch,letter,lettSwt,d,0.6813,Hi,,,,,,2,,,,,,,,low,16,0,16,0,1,,,,,,,,,
294562,2022-11-28_16h15.04.120,vts_reward_expectancy_bt,2022.2.4,MacIntel,60.04202942,Chrome,1440,900,,,,,1,949,,,,,,,,,,,,,,,,,W,125,circle,1,0,,,,,,,,,,,,,,,,repeat,letter,lettRpt,f,0.6429,Lo,,,,,,2,,,,,,,,low,17,0,17,0,1,,,,,,,,,
294562,2022-11-28_16h15.04.120,vts_reward_expectancy_bt,2022.2.4,MacIntel,60.04202942,Chrome,1440,900,,,,,1,950,,,,,,,,,,,,,,,,,B,167,triangle,1,0,,,,,,,,,,,,,,,,switch,number,numSwt,k,0.878,Lo,,,,,,2,,,,,,,,low,18,0,18,0,1,,,,,,,,,
294562,2022-11-28_16h15.04.120,vts_reward_expectancy_bt,2022.2.4,MacIntel,60.04202942,Chrome,1440,900,,,,,0,950,,,,,,,,,,,,,,,,,U,132,hexagon,1,0,,,,,,,,,,,,,,,,repeat,number,numRpt,j,0.9937,Hi,,,,,,2,,,,,,,,low,19,0,19,0,1,,,,,,,,,
294562,2022-11-28_16h15.04.120,vts_reward_expectancy_bt,2022.2.4,MacIntel,60.04202942,Chrome,1440,900,,,,,10,960,,,,,,,,,,,,,,,,,S,139,circle,1,0,,,,,,,,,,,,,,,,switch,letter,lettSwt,f,0.6994,Lo,,,,,,2,,,,,,,,low,20,0,20,0,1,,,,,,,,,
294562,2022-11-28_16h15.04.120,vts_reward_expectancy_bt,2022.2.4,MacIntel,60.04202942,Chrome,1440,900,,,,,1,961,,,,,,,,,,,,,,,,,H,174,triangle,1,0,,,,,,,,,,,,,,,,switch,number,numSwt,k,1.058,Lo,,,,,,2,,,,,,,,low,21,0,21,0,1,,,,,,,,,
294562,2022-11-28_16h15.04.120,vts_reward_expectancy_bt,2022.2.4,MacIntel,60.04202942,Chrome,1440,900,,,,,0,961,,,,,,,,,,,,,,,,,F,146,hexagon,1,0,,,,,,,,,,,,,,,,repeat,number,numRpt,j,0.7824,Hi,,,,,,2,,,,,,,,low,22,0,22,0,1,,,,,,,,,
294562,2022-11-28_16h15.04.120,vts_reward_expectancy_bt,2022.2.4,MacIntel,60.04202942,Chrome,1440,900,,,,,10,971,,,,,,,,,,,,,,,,,Y,160,star,1,0,,,,,,,,,,,,,,,,switch,letter,lettSwt,f,0.7484,Hi,,,,,,2,,,,,,,,low,23,0,23,0,1,,,,,,,,,
294562,2022-11-28_16h15.04.120,vts_reward_expectancy_bt,2022.2.4,MacIntel,60.04202942,Chrome,1440,900,,,,,0,971,,,,,,,,,,,,,,,,,F,167,hexagon,1,0,,,,,,,,,,,,,,,,switch,number,numSwt,k,1.0794,Hi,,,,,,2,,,,,,,,low,24,0,24,0,1,,,,,,,,,
294562,2022-11-28_16h15.04.120,vts_reward_expectancy_bt,2022.2.4,MacIntel,60.04202942,Chrome,1440,900,,,,,1,972,,,,,,,,,,,,,,,,,U,181,triangle,1,0,,,,,,,,,,,,,,,,repeat,number,numRpt,k,0.5964,Lo,,,,,,2,,,,,,,,low,25,0,25,0,1,,,,,,,,,
294562,2022-11-28_16h15.04.120,vts_reward_expectancy_bt,2022.2.4,MacIntel,60.04202942,Chrome,1440,900,,,,,1,973,,,,,,,,,,,,,,,,,W,146,circle,1,0,,,,,,,,,,,,,,,,switch,letter,lettSwt,f,0.8639,Lo,,,,,,2,,,,,,,,low,26,0,26,0,1,,,,,,,,,
294562,2022-11-28_16h15.04.120,vts_reward_expectancy_bt,2022.2.4,MacIntel,60.04202942,Chrome,1440,900,,,,,0,973,,,,,,,,,,,,,,,,,B,125,star,1,0,,,,,,,,,,,,,,,,switch,number,numSwt,j,1.1275,Hi,,,,,,2,,,,,,,,low,27,0,27,0,1,,,,,,,,,
294562,2022-11-28_16h15.04.120,vts_reward_expectancy_bt,2022.2.4,MacIntel,60.04202942,Chrome,1440,900,,,,,1,974,,,,,,,,,,,,,,,,,Y,132,circle,1,0,,,,,,,,,,,,,,,,switch,letter,lettSwt,f,0.73,Lo,,,,,,2,,,,,,,,low,28,0,28,0,1,,,,,,,,,
294562,2022-11-28_16h15.04.120,vts_reward_expectancy_bt,2022.2.4,MacIntel,60.04202942,Chrome,1440,900,,,,,0,974,,,,,,,,,,,,,,,,,H,174,hexagon,1,0,,,,,,,,,,,,,,,,switch,number,numSwt,k,0.93,Hi,,,,,,2,,,,,,,,low,29,0,29,0,1,,,,,,,,,
294562,2022-11-28_16h15.04.120,vts_reward_expectancy_bt,2022.2.4,MacIntel,60.04202942,Chrome,1440,900,,,,,10,984,,,,,,,,,,,,,,,,,S,139,star,1,0,,,,,,,,,,,,,,,,repeat,number,numRpt,j,0.5144,Hi,,,,,,2,,,,,,,,low,30,0,30,0,1,,,,,,,,,
294562,2022-11-28_16h15.04.120,vts_reward_expectancy_bt,2022.2.4,MacIntel,60.04202942,Chrome,1440,900,,,,,1,985,,,,,,,,,,,,,,,,,D,160,triangle,1,0,,,,,,,,,,,,,,,,repeat,number,numRpt,k,0.9465,Lo,,,,,,2,,,,,,,,low,31,0,31,0,1,,,,,,,,,
294562,2022-11-28_16h15.04.120,vts_reward_expectancy_bt,2022.2.4,MacIntel,60.04202942,Chrome,1440,900,,,,,0,985,,,,,,,,,,,,,,,,,W,167,star,1,0,,,,,,,,,,,,,,,,switch,letter,lettSwt,f,0.7299,Hi,,,,,,3,,,,,,space,2.3864,low,0,0,0,0,1,,,,,,,,,
294562,2022-11-28_16h15.04.120,vts_reward_expectancy_bt,2022.2.4,MacIntel,60.04202942,Chrome,1440,900,,,,,1,986,,,,,,,,,,,,,,,,,B,139,circle,1,0,,,,,,,,,,,,,,,,switch,number,numSwt,j,1.0459,Lo,,,,,,3,,,,,,,,low,1,0,1,0,1,,,,,,,,,
294562,2022-11-28_16h15.04.120,vts_reward_expectancy_bt,2022.2.4,MacIntel,60.04202942,Chrome,1440,900,,,,,1,987,,,,,,,,,,,,,,,,,U,160,triangle,1,0,,,,,,,,,,,,,,,,repeat,number,numRpt,k,0.5132,Lo,,,,,,3,,,,,,,,low,2,0,2,0,1,,,,,,,,,
294562,2022-11-28_16h15.04.120,vts_reward_expectancy_bt,2022.2.4,MacIntel,60.04202942,Chrome,1440,900,,,,,0,987,,,,,,,,,,,,,,,,,S,132,hexagon,1,0,,,,,,,,,,,,,,,,switch,letter,lettSwt,f,0.722,Hi,,,,,,3,,,,,,,,low,3,0,3,0,1,,,,,,,,,
294562,2022-11-28_16h15.04.120,vts_reward_expectancy_bt,2022.2.4,MacIntel,60.04202942,Chrome,1440,900,,,,,10,997,,,,,,,,,,,,,,,,,H,181,star,1,0,,,,,,,,,,,,,,,,switch,number,numSwt,k,0.5262,Hi,,,,,,3,,,,,,,,low,4,0,4,0,1,,,,,,,,,
294562,2022-11-28_16h15.04.120,vts_reward_expectancy_bt,2022.2.4,MacIntel,60.04202942,Chrome,1440,900,,,,,1,998,,,,,,,,,,,,,,,,,D,174,circle,1,0,,,,,,,,,,,,,,,,switch,letter,lettSwt,d,1.2909,Lo,,,,,,3,,,,,,,,low,5,0,5,0,1,,,,,,,,,
294562,2022-11-28_16h15.04.120,vts_reward_expectancy_bt,2022.2.4,MacIntel,60.04202942,Chrome,1440,900,,,,,1,999,,,,,,,,,,,,,,,,,F,125,triangle,1,0,,,,,,,,,,,,,,,,switch,number,numSwt,j,1.0943,Lo,,,,,,3,,,,,,,,low,6,0,6,0,1,,,,,,,,,
294562,2022-11-28_16h15.04.120,vts_reward_expectancy_bt,2022.2.4,MacIntel,60.04202942,Chrome,1440,900,,,,,10,1009,,,,,,,,,,,,,,,,,Y,146,hexagon,1,0,,,,,,,,,,,,,,,,switch,letter,lettSwt,f,0.6464,Hi,,,,,,3,,,,,,,,low,7,0,7,0,1,,,,,,,,,
294562,2022-11-28_16h15.04.120,vts_reward_expectancy_bt,2022.2.4,MacIntel,60.04202942,Chrome,1440,900,,,,,1,1010,,,,,,,,,,,,,,,,,W,167,star,1,0,,,,,,,,,,,,,,,,switch,number,numSwt,k,0.5882,Hi,,,,,,3,,,,,,,,low,8,0,8,0,1,,,,,,,,,
294562,2022-11-28_16h15.04.120,vts_reward_expectancy_bt,2022.2.4,MacIntel,60.04202942,Chrome,1440,900,,,,,0,1010,,,,,,,,,,,,,,,,,B,139,hexagon,1,0,,,,,,,,,,,,,,,,switch,letter,lettSwt,d,0.9182,Hi,,,,,,3,,,,,,,,low,9,0,9,0,1,,,,,,,,,
294562,2022-11-28_16h15.04.120,vts_reward_expectancy_bt,2022.2.4,MacIntel,60.04202942,Chrome,1440,900,,,,,1,1011,,,,,,,,,,,,,,,,,U,160,triangle,1,0,,,,,,,,,,,,,,,,switch,number,numSwt,k,0.8738,Lo,,,,,,3,,,,,,,,low,10,0,10,0,1,,,,,,,,,
294562,2022-11-28_16h15.04.120,vts_reward_expectancy_bt,2022.2.4,MacIntel,60.04202942,Chrome,1440,900,,,,,10,1021,,,,,,,,,,,,,,,,,S,132,circle,1,0,,,,,,,,,,,,,,,,switch,letter,lettSwt,f,0.8131,Lo,,,,,,3,,,,,,,,low,11,0,11,0,1,,,,,,,,,
294562,2022-11-28_16h15.04.120,vts_reward_expectancy_bt,2022.2.4,MacIntel,60.04202942,Chrome,1440,900,,,,,0,1021,,,,,,,,,,,,,,,,,H,181,star,1,0,,,,,,,,,,,,,,,,repeat,letter,lettRpt,d,0.6998,Hi,,,,,,3,,,,,,,,low,12,0,12,0,1,,,,,,,,,
294562,2022-11-28_16h15.04.120,vts_reward_expectancy_bt,2022.2.4,MacIntel,60.04202942,Chrome,1440,900,,,,,10,1031,,,,,,,,,,,,,,,,,D,174,circle,1,0,,,,,,,,,,,,,,,,switch,number,numSwt,k,0.7481,Lo,,,,,,3,,,,,,,,low,13,0,13,0,1,,,,,,,,,
294562,2022-11-28_16h15.04.120,vts_reward_expectancy_bt,2022.2.4,MacIntel,60.04202942,Chrome,1440,900,,,,,1,1032,,,,,,,,,,,,,,,,,F,125,hexagon,1,0,,,,,,,,,,,,,,,,repeat,number,numRpt,j,0.6112,Hi,,,,,,3,,,,,,,,low,14,0,14,0,1,,,,,,,,,
294562,2022-11-28_16h15.04.120,vts_reward_expectancy_bt,2022.2.4,MacIntel,60.04202942,Chrome,1440,900,,,,,1,1033,,,,,,,,,,,,,,,,,Y,146,triangle,1,0,,,,,,,,,,,,,,,,switch,letter,lettSwt,f,1.4142,Lo,,,,,,3,,,,,,,,low,15,0,15,0,1,,,,,,,,,
294562,2022-11-28_16h15.04.120,vts_reward_expectancy_bt,2022.2.4,MacIntel,60.04202942,Chrome,1440,900,,,,,1,1034,,,,,,,,,,,,,,,,,S,132,circle,1,0,,,,,,,,,,,,,,,,repeat,letter,lettRpt,f,0.812,Lo,,,,,,3,,,,,,,,low,16,0,16,0,1,,,,,,,,,
294562,2022-11-28_16h15.04.120,vts_reward_expectancy_bt,2022.2.4,MacIntel,60.04202942,Chrome,1440,900,,,,,1,1035,,,,,,,,,,,,,,,,,U,139,triangle,1,0,,,,,,,,,,,,,,,,switch,number,numSwt,j,0.5978,Lo,,,,,,3,,,,,,,,low,17,0,17,0,1,,,,,,,,,
294562,2022-11-28_16h15.04.120,vts_reward_expectancy_bt,2022.2.4,MacIntel,60.04202942,Chrome,1440,900,,,,,0,1035,,,,,,,,,,,,,,,,,B,160,star,1,0,,,,,,,,,,,,,,,,switch,letter,lettSwt,d,1.1242,Hi,,,,,,3,,,,,,,,low,18,0,18,0,1,,,,,,,,,
294562,2022-11-28_16h15.04.120,vts_reward_expectancy_bt,2022.2.4,MacIntel,60.04202942,Chrome,1440,900,,,,,0,1035,,,,,,,,,,,,,,,,,H,174,hexagon,0,0,,,,,,,,,,,,,,,,repeat,letter,NA,f,0.8269,Hi,,,,,,3,,,,,,,,low,19,0,19,0,1,,,,,,,,,
294562,2022-11-28_16h15.04.120,vts_reward_expectancy_bt,2022.2.4,MacIntel,60.04202942,Chrome,1440,900,,,,,10,1045,,,,,,,,,,,,,,,,,Y,167,triangle,1,1,,,,,,,,,,,,,,,,switch,number,numSwt,k,0.9096,Lo,,,,,,3,,,,,,,,low,20,0,20,0,1,,,,,,,,,
294562,2022-11-28_16h15.04.120,vts_reward_expectancy_bt,2022.2.4,MacIntel,60.04202942,Chrome,1440,900,,,,,10,1055,,,,,,,,,,,,,,,,,D,125,star,1,0,,,,,,,,,,,,,,,,repeat,number,numRpt,j,0.576,Hi,,,,,,3,,,,,,,,low,21,0,21,0,1,,,,,,,,,
294562,2022-11-28_16h15.04.120,vts_reward_expectancy_bt,2022.2.4,MacIntel,60.04202942,Chrome,1440,900,,,,,1,1056,,,,,,,,,,,,,,,,,F,146,circle,1,0,,,,,,,,,,,,,,,,repeat,number,numRpt,j,0.8966,Lo,,,,,,3,,,,,,,,low,22,0,22,0,1,,,,,,,,,
294562,2022-11-28_16h15.04.120,vts_reward_expectancy_bt,2022.2.4,MacIntel,60.04202942,Chrome,1440,900,,,,,0,1056,,,,,,,,,,,,,,,,,W,181,hexagon,1,0,,,,,,,,,,,,,,,,repeat,number,numRpt,k,1.1283,Hi,,,,,,3,,,,,,,,low,23,0,23,0,1,,,,,,,,,
294562,2022-11-28_16h15.04.120,vts_reward_expectancy_bt,2022.2.4,MacIntel,60.04202942,Chrome,1440,900,,,,,0,1056,,,,,,,,,,,,,,,,,F,167,circle,0,0,,,,,,,,,,,,,,,,switch,letter,NA,f,0.9606,Hi,,,,,,3,,,,,,,,low,24,0,24,0,1,,,,,,,,,
294562,2022-11-28_16h15.04.120,vts_reward_expectancy_bt,2022.2.4,MacIntel,60.04202942,Chrome,1440,900,,,,,1,1057,,,,,,,,,,,,,,,,,S,160,triangle,1,1,,,,,,,,,,,,,,,,repeat,letter,lettRpt,f,0.7088,Lo,,,,,,3,,,,,,,,low,25,0,25,0,1,,,,,,,,,
294562,2022-11-28_16h15.04.120,vts_reward_expectancy_bt,2022.2.4,MacIntel,60.04202942,Chrome,1440,900,,,,,0,1057,,,,,,,,,,,,,,,,,Y,132,star,1,0,,,,,,,,,,,,,,,,switch,number,numSwt,j,0.8607,Hi,,,,,,3,,,,,,,,low,26,0,26,0,1,,,,,,,,,
294562,2022-11-28_16h15.04.120,vts_reward_expectancy_bt,2022.2.4,MacIntel,60.04202942,Chrome,1440,900,,,,,1,1058,,,,,,,,,,,,,,,,,B,139,hexagon,1,0,,,,,,,,,,,,,,,,switch,letter,lettSwt,d,0.6652,Hi,,,,,,3,,,,,,,,low,27,0,27,0,1,,,,,,,,,
294562,2022-11-28_16h15.04.120,vts_reward_expectancy_bt,2022.2.4,MacIntel,60.04202942,Chrome,1440,900,,,,,1,1059,,,,,,,,,,,,,,,,,U,174,triangle,1,0,,,,,,,,,,,,,,,,switch,number,numSwt,k,0.6263,Lo,,,,,,3,,,,,,,,low,28,0,28,0,1,,,,,,,,,
294562,2022-11-28_16h15.04.120,vts_reward_expectancy_bt,2022.2.4,MacIntel,60.04202942,Chrome,1440,900,,,,,1,1060,,,,,,,,,,,,,,,,,W,181,hexagon,1,0,,,,,,,,,,,,,,,,repeat,number,numRpt,k,0.665,Hi,,,,,,3,,,,,,,,low,29,0,29,0,1,,,,,,,,,
294562,2022-11-28_16h15.04.120,vts_reward_expectancy_bt,2022.2.4,MacIntel,60.04202942,Chrome,1440,900,,,,,1,1061,,,,,,,,,,,,,,,,,D,146,circle,1,0,,,,,,,,,,,,,,,,repeat,number,numRpt,j,0.7467,Lo,,,,,,3,,,,,,,,low,30,0,30,0,1,,,,,,,,,
294562,2022-11-28_16h15.04.120,vts_reward_expectancy_bt,2022.2.4,MacIntel,60.04202942,Chrome,1440,900,,,,,0,1061,,,,,,,,,,,,,,,,,H,125,star,1,0,,,,,,,,,,,,,,,,switch,letter,lettSwt,d,0.798,Hi,,,,,,3,,,,,,,,low,31,0,31,0,1,,,,,,,,,
294562,2022-11-28_16h15.04.120,vts_reward_expectancy_bt,2022.2.4,MacIntel,60.04202942,Chrome,1440,900,,,,,0,1061,,,,,,,,,,,,,,,,,F,139,hexagon,1,0,,,,,,,,,,,,,,,,repeat,letter,lettRpt,d,0.9444,Hi,,,,,,4,,,,,,space,0.8357,low,0,0,0,0,1,,,,,,,,,
294562,2022-11-28_16h15.04.120,vts_reward_expectancy_bt,2022.2.4,MacIntel,60.04202942,Chrome,1440,900,,,,,10,1071,,,,,,,,,,,,,,,,,Y,167,circle,1,0,,,,,,,,,,,,,,,,switch,number,numSwt,k,0.8288,Lo,,,,,,4,,,,,,,,low,1,0,1,0,1,,,,,,,,,
294562,2022-11-28_16h15.04.120,vts_reward_expectancy_bt,2022.2.4,MacIntel,60.04202942,Chrome,1440,900,,,,,1,1072,,,,,,,,,,,,,,,,,H,174,triangle,1,0,,,,,,,,,,,,,,,,repeat,number,numRpt,k,0.8967,Lo,,,,,,4,,,,,,,,low,2,0,2,0,1,,,,,,,,,
294562,2022-11-28_16h15.04.120,vts_reward_expectancy_bt,2022.2.4,MacIntel,60.04202942,Chrome,1440,900,,,,,0,1072,,,,,,,,,,,,,,,,,D,181,star,1,0,,,,,,,,,,,,,,,,repeat,number,numRpt,k,0.6461,Hi,,,,,,4,,,,,,,,low,3,0,3,0,1,,,,,,,,,
294562,2022-11-28_16h15.04.120,vts_reward_expectancy_bt,2022.2.4,MacIntel,60.04202942,Chrome,1440,900,,,,,0,1072,,,,,,,,,,,,,,,,,U,160,hexagon,1,0,,,,,,,,,,,,,,,,switch,letter,lettSwt,f,1.4931,Hi,,,,,,4,,,,,,,,low,4,0,4,0,1,,,,,,,,,
294562,2022-11-28_16h15.04.120,vts_reward_expectancy_bt,2022.2.4,MacIntel,60.04202942,Chrome,1440,900,,,,,10,1082,,,,,,,,,,,,,,,,,B,146,circle,1,0,,,,,,,,,,,,,,,,repeat,letter,lettRpt,d,0.5934,Lo,,,,,,4,,,,,,,,low,5,0,5,0,1,,,,,,,,,
294562,2022-11-28_16h15.04.120,vts_reward_expectancy_bt,2022.2.4,MacIntel,60.04202942,Chrome,1440,900,,,,,1,1083,,,,,,,,,,,,,,,,,W,125,triangle,1,0,,,,,,,,,,,,,,,,switch,number,numSwt,j,0.745,Lo,,,,,,4,,,,,,,,low,6,0,6,0,1,,,,,,,,,
294562,2022-11-28_16h15.04.120,vts_reward_expectancy_bt,2022.2.4,MacIntel,60.04202942,Chrome,1440,900,,,,,0,1083,,,,,,,,,,,,,,,,,S,132,star,1,0,,,,,,,,,,,,,,,,repeat,number,numRpt,j,0.6466,Hi,,,,,,4,,,,,,,,low,7,0,7,0,1,,,,,,,,,
294562,2022-11-28_16h15.04.120,vts_reward_expectancy_bt,2022.2.4,MacIntel,60.04202942,Chrome,1440,900,,,,,0,1083,,,,,,,,,,,,,,,,,F,139,hexagon,0,0,,,,,,,,,,,,,,,,switch,letter,NA,f,1.6308,Hi,,,,,,4,,,,,,,,low,8,0,8,0,1,,,,,,,,,
294562,2022-11-28_16h15.04.120,vts_reward_expectancy_bt,2022.2.4,MacIntel,60.04202942,Chrome,1440,900,,,,,0,1083,,,,,,,,,,,,,,,,,Y,167,star,1,1,,,,,,,,,,,,,,,,repeat,letter,lettRpt,f,0.862,Hi,,,,,,4,,,,,,,,low,9,0,9,0,1,,,,,,,,,
294562,2022-11-28_16h15.04.120,vts_reward_expectancy_bt,2022.2.4,MacIntel,60.04202942,Chrome,1440,900,,,,,1,1084,,,,,,,,,,,,,,,,,H,174,triangle,1,0,,,,,,,,,,,,,,,,switch,number,numSwt,k,0.8308,Lo,,,,,,4,,,,,,,,low,10,0,10,0,1,,,,,,,,,
294562,2022-11-28_16h15.04.120,vts_reward_expectancy_bt,2022.2.4,MacIntel,60.04202942,Chrome,1440,900,,,,,1,1085,,,,,,,,,,,,,,,,,D,181,circle,1,0,,,,,,,,,,,,,,,,repeat,number,numRpt,k,0.6406,Lo,,,,,,4,,,,,,,,low,11,0,11,0,1,,,,,,,,,
294562,2022-11-28_16h15.04.120,vts_reward_expectancy_bt,2022.2.4,MacIntel,60.04202942,Chrome,1440,900,,,,,10,1095,,,,,,,,,,,,,,,,,U,160,circle,1,0,,,,,,,,,,,,,,,,switch,letter,lettSwt,f,0.7643,Lo,,,,,,4,,,,,,,,low,12,0,12,0,1,,,,,,,,,
294562,2022-11-28_16h15.04.120,vts_reward_expectancy_bt,2022.2.4,MacIntel,60.04202942,Chrome,1440,900,,,,,0,1095,,,,,,,,,,,,,,,,,B,146,star,1,0,,,,,,,,,,,,,,,,switch,number,numSwt,j,1.6258,Hi,,,,,,4,,,,,,,,low,13,0,13,0,1,,,,,,,,,
294562,2022-11-28_16h15.04.120,vts_reward_expectancy_bt,2022.2.4,MacIntel,60.04202942,Chrome,1440,900,,,,,10,1105,,,,,,,,,,,,,,,,,W,125,triangle,1,0,,,,,,,,,,,,,,,,switch,letter,lettSwt,f,0.7139,Lo,,,,,,4,,,,,,,,low,14,0,14,0,1,,,,,,,,,
294562,2022-11-28_16h15.04.120,vts_reward_expectancy_bt,2022.2.4,MacIntel,60.04202942,Chrome,1440,900,,,,,0,1105,,,,,,,,,,,,,,,,,S,132,hexagon,1,0,,,,,,,,,,,,,,,,repeat,letter,lettRpt,f,0.7415,Hi,,,,,,4,,,,,,,,low,15,0,15,0,1,,,,,,,,,
294562,2022-11-28_16h15.04.120,vts_reward_expectancy_bt,2022.2.4,MacIntel,60.04202942,Chrome,1440,900,,,,,0,1105,,,,,,,,,,,,,,,,,U,167,star,1,0,,,,,,,,,,,,,,,,repeat,letter,lettRpt,f,0.8323,Hi,,,,,,4,,,,,,,,low,16,0,16,0,1,,,,,,,,,
294562,2022-11-28_16h15.04.120,vts_reward_expectancy_bt,2022.2.4,MacIntel,60.04202942,Chrome,1440,900,,,,,10,1115,,,,,,,,,,,,,,,,,S,146,circle,1,0,,,,,,,,,,,,,,,,switch,number,numSwt,j,0.5999,Lo,,,,,,4,,,,,,,,low,17,0,17,0,1,,,,,,,,,
294562,2022-11-28_16h15.04.120,vts_reward_expectancy_bt,2022.2.4,MacIntel,60.04202942,Chrome,1440,900,,,,,1,1116,,,,,,,,,,,,,,,,,F,181,triangle,1,0,,,,,,,,,,,,,,,,repeat,number,numRpt,k,0.7641,Lo,,,,,,4,,,,,,,,low,18,0,18,0,1,,,,,,,,,
294562,2022-11-28_16h15.04.120,vts_reward_expectancy_bt,2022.2.4,MacIntel,60.04202942,Chrome,1440,900,,,,,0,1116,,,,,,,,,,,,,,,,,H,132,hexagon,0,0,,,,,,,,,,,,,,,,switch,letter,NA,f,0.8307,Lo,,,,,,4,,,,,,,,low,19,0,19,0,1,,,,,,,,,
294562,2022-11-28_16h15.04.120,vts_reward_expectancy_bt,2022.2.4,MacIntel,60.04202942,Chrome,1440,900,,,,,10,1126,,,,,,,,,,,,,,,,,W,125,hexagon,1,1,,,,,,,,,,,,,,,,repeat,letter,lettRpt,f,0.6945,Hi,,,,,,4,,,,,,,,low,20,0,20,0,1,,,,,,,,,
294562,2022-11-28_16h15.04.120,vts_reward_expectancy_bt,2022.2.4,MacIntel,60.04202942,Chrome,1440,900,,,,,10,1136,,,,,,,,,,,,,,,,,Y,139,circle,1,0,,,,,,,,,,,,,,,,switch,number,numSwt,j,1.8265,Lo,,,,,,4,,,,,,,,low,21,0,21,0,1,,,,,,,,,
294562,2022-11-28_16h15.04.120,vts_reward_expectancy_bt,2022.2.4,MacIntel,60.04202942,Chrome,1440,900,,,,,0,1136,,,,,,,,,,,,,,,,,B,174,star,1,0,,,,,,,,,,,,,,,,repeat,number,numRpt,k,0.9468,Hi,,,,,,4,,,,,,,,low,22,0,22,0,1,,,,,,,,,
294562,2022-11-28_16h15.04.120,vts_reward_expectancy_bt,2022.2.4,MacIntel,60.04202942,Chrome,1440,900,,,,,10,1146,,,,,,,,,,,,,,,,,D,160,triangle,1,0,,,,,,,,,,,,,,,,switch,letter,lettSwt,d,0.9988,Lo,,,,,,4,,,,,,,,low,23,0,23,0,1,,,,,,,,,
294562,2022-11-28_16h15.04.120,vts_reward_expectancy_bt,2022.2.4,MacIntel,60.04202942,Chrome,1440,900,,,,,0,1146,,,,,,,,,,,,,,,,,S,125,hexagon,1,0,,,,,,,,,,,,,,,,switch,number,numSwt,j,0.6474,Hi,,,,,,4,,,,,,,,low,24,0,24,0,1,,,,,,,,,
294562,2022-11-28_16h15.04.120,vts_reward_expectancy_bt,2022.2.4,MacIntel,60.04202942,Chrome,1440,900,,,,,0,1146,,,,,,,,,,,,,,,,,H,146,star,1,0,,,,,,,,,,,,,,,,switch,letter,lettSwt,d,1.128,Hi,,,,,,4,,,,,,,,low,25,0,25,0,1,,,,,,,,,
294562,2022-11-28_16h15.04.120,vts_reward_expectancy_bt,2022.2.4,MacIntel,60.04202942,Chrome,1440,900,,,,,1,1147,,,,,,,,,,,,,,,,,F,160,circle,1,0,,,,,,,,,,,,,,,,switch,number,numSwt,k,1.0602,Lo,,,,,,4,,,,,,,,low,26,0,26,0,1,,,,,,,,,
294562,2022-11-28_16h15.04.120,vts_reward_expectancy_bt,2022.2.4,MacIntel,60.04202942,Chrome,1440,900,,,,,10,1157,,,,,,,,,,,,,,,,,W,167,triangle,1,0,,,,,,,,,,,,,,,,repeat,number,numRpt,k,0.6948,Lo,,,,,,4,,,,,,,,low,27,0,27,0,1,,,,,,,,,
294562,2022-11-28_16h15.04.120,vts_reward_expectancy_bt,2022.2.4,MacIntel,60.04202942,Chrome,1440,900,,,,,1,1158,,,,,,,,,,,,,,,,,U,139,circle,1,0,,,,,,,,,,,,,,,,repeat,number,numRpt,j,0.6967,Lo,,,,,,4,,,,,,,,low,28,0,28,0,1,,,,,,,,,
294562,2022-11-28_16h15.04.120,vts_reward_expectancy_bt,2022.2.4,MacIntel,60.04202942,Chrome,1440,900,,,,,0,1158,,,,,,,,,,,,,,,,,B,181,star,1,0,,,,,,,,,,,,,,,,switch,letter,lettSwt,d,0.7825,Hi,,,,,,4,,,,,,,,low,29,0,29,0,1,,,,,,,,,
294562,2022-11-28_16h15.04.120,vts_reward_expectancy_bt,2022.2.4,MacIntel,60.04202942,Chrome,1440,900,,,,,0,1158,,,,,,,,,,,,,,,,,Y,174,hexagon,1,0,,,,,,,,,,,,,,,,repeat,letter,lettRpt,f,0.7834,Hi,,,,,,4,,,,,,,,low,30,0,30,0,1,,,,,,,,,
294562,2022-11-28_16h15.04.120,vts_reward_expectancy_bt,2022.2.4,MacIntel,60.04202942,Chrome,1440,900,,,,,10,1168,,,,,,,,,,,,,,,,,D,132,triangle,1,0,,,,,,,,,,,,,,,,repeat,letter,lettRpt,d,0.6809,Lo,,,,,,4,,,,,,,,low,31,0,31,0,1,,,,,,,,,
294562,2022-11-28_16h15.04.120,vts_reward_expectancy_bt,2022.2.4,MacIntel,60.04202942,Chrome,1440,900,,,,,10,1178,,,,,,,,,,,,,,,,,F,181,triangle,1,0,,,,,,,,,,,,,,,,repeat,letter,lettRpt,d,0.9475,Lo,,,,,,5,,,,,,space,0.6715,low,0,0,0,0,1,,,,,,,,,
294562,2022-11-28_16h15.04.120,vts_reward_expectancy_bt,2022.2.4,MacIntel,60.04202942,Chrome,1440,900,,,,,1,1179,,,,,,,,,,,,,,,,,S,125,hexagon,1,0,,,,,,,,,,,,,,,,repeat,letter,lettRpt,f,0.6809,Hi,,,,,,5,,,,,,,,low,1,0,1,0,1,,,,,,,,,
294562,2022-11-28_16h15.04.120,vts_reward_expectancy_bt,2022.2.4,MacIntel,60.04202942,Chrome,1440,900,,,,,10,1189,,,,,,,,,,,,,,,,,W,146,circle,1,0,,,,,,,,,,,,,,,,repeat,letter,lettRpt,f,0.645,Lo,,,,,,5,,,,,,,,low,2,0,2,0,1,,,,,,,,,
294562,2022-11-28_16h15.04.120,vts_reward_expectancy_bt,2022.2.4,MacIntel,60.04202942,Chrome,1440,900,,,,,0,1189,,,,,,,,,,,,,,,,,H,132,star,1,0,,,,,,,,,,,,,,,,switch,number,numSwt,j,0.9314,Hi,,,,,,5,,,,,,,,low,3,0,3,0,1,,,,,,,,,
294562,2022-11-28_16h15.04.120,vts_reward_expectancy_bt,2022.2.4,MacIntel,60.04202942,Chrome,1440,900,,,,,10,1199,,,,,,,,,,,,,,,,,B,174,triangle,1,0,,,,,,,,,,,,,,,,repeat,number,numRpt,k,0.5655,Lo,,,,,,5,,,,,,,,low,4,0,4,0,1,,,,,,,,,
294562,2022-11-28_16h15.04.120,vts_reward_expectancy_bt,2022.2.4,MacIntel,60.04202942,Chrome,1440,900,,,,,0,1199,,,,,,,,,,,,,,,,,Y,160,hexagon,1,0,,,,,,,,,,,,,,,,switch,letter,lettSwt,f,0.8806,Hi,,,,,,5,,,,,,,,low,5,0,5,0,1,,,,,,,,,
294562,2022-11-28_16h15.04.120,vts_reward_expectancy_bt,2022.2.4,MacIntel,60.04202942,Chrome,1440,900,,,,,10,1209,,,,,,,,,,,,,,,,,D,139,circle,1,0,,,,,,,,,,,,,,,,switch,number,numSwt,j,0.7619,Lo,,,,,,5,,,,,,,,low,6,0,6,0,1,,,,,,,,,
294562,2022-11-28_16h15.04.120,vts_reward_expectancy_bt,2022.2.4,MacIntel,60.04202942,Chrome,1440,900,,,,,0,1209,,,,,,,,,,,,,,,,,U,167,star,1,0,,,,,,,,,,,,,,,,switch,letter,lettSwt,f,1.0507,Hi,,,,,,5,,,,,,,,low,7,0,7,0,1,,,,,,,,,
294562,2022-11-28_16h15.04.120,vts_reward_expectancy_bt,2022.2.4,MacIntel,60.04202942,Chrome,1440,900,,,,,10,1219,,,,,,,,,,,,,,,,,F,181,circle,1,0,,,,,,,,,,,,,,,,switch,number,numSwt,k,0.5997,Lo,,,,,,5,,,,,,,,low,8,0,8,0,1,,,,,,,,,
294562,2022-11-28_16h15.04.120,vts_reward_expectancy_bt,2022.2.4,MacIntel,60.04202942,Chrome,1440,900,,,,,0,1219,,,,,,,,,,,,,,,,,S,125,star,1,0,,,,,,,,,,,,,,,,repeat,number,numRpt,j,0.7659,Hi,,,,,,5,,,,,,,,low,9,0,9,0,1,,,,,,,,,
294562,2022-11-28_16h15.04.120,vts_reward_expectancy_bt,2022.2.4,MacIntel,60.04202942,Chrome,1440,900,,,,,0,1219,,,,,,,,,,,,,,,,,W,146,hexagon,1,0,,,,,,,,,,,,,,,,switch,letter,lettSwt,f,1.5155,Hi,,,,,,5,,,,,,,,low,10,0,10,0,1,,,,,,,,,
294562,2022-11-28_16h15.04.120,vts_reward_expectancy_bt,2022.2.4,MacIntel,60.04202942,Chrome,1440,900,,,,,10,1229,,,,,,,,,,,,,,,,,H,132,triangle,1,0,,,,,,,,,,,,,,,,switch,number,numSwt,j,1.0012,Lo,,,,,,5,,,,,,,,low,11,0,11,0,1,,,,,,,,,
294562,2022-11-28_16h15.04.120,vts_reward_expectancy_bt,2022.2.4,MacIntel,60.04202942,Chrome,1440,900,,,,,1,1230,,,,,,,,,,,,,,,,,B,174,circle,1,0,,,,,,,,,,,,,,,,repeat,number,numRpt,k,0.8946,Lo,,,,,,5,,,,,,,,low,12,0,12,0,1,,,,,,,,,
294562,2022-11-28_16h15.04.120,vts_reward_expectancy_bt,2022.2.4,MacIntel,60.04202942,Chrome,1440,900,,,,,0,1230,,,,,,,,,,,,,,,,,Y,160,hexagon,1,0,,,,,,,,,,,,,,,,repeat,number,numRpt,k,0.9644,Hi,,,,,,5,,,,,,,,low,13,0,13,0,1,,,,,,,,,
294562,2022-11-28_16h15.04.120,vts_reward_expectancy_bt,2022.2.4,MacIntel,60.04202942,Chrome,1440,900,,,,,0,1230,,,,,,,,,,,,,,,,,D,139,triangle,0,0,,,,,,,,,,,,,,,,switch,letter,NA,f,1.2088,Hi,,,,,,5,,,,,,,,low,14,0,14,0,1,,,,,,,,,
294562,2022-11-28_16h15.04.120,vts_reward_expectancy_bt,2022.2.4,MacIntel,60.04202942,Chrome,1440,900,,,,,0,1230,,,,,,,,,,,,,,,,,U,167,star,1,1,,,,,,,,,,,,,,,,switch,number,numSwt,k,0.8911,Hi,,,,,,5,,,,,,,,low,15,0,15,0,1,,,,,,,,,
294562,2022-11-28_16h15.04.120,vts_reward_expectancy_bt,2022.2.4,MacIntel,60.04202942,Chrome,1440,900,,,,,0,1230,,,,,,,,,,,,,,,,,W,174,hexagon,1,0,,,,,,,,,,,,,,,,switch,letter,lettSwt,f,1.2492,Hi,,,,,,5,,,,,,,,low,16,0,16,0,1,,,,,,,,,
294562,2022-11-28_16h15.04.120,vts_reward_expectancy_bt,2022.2.4,MacIntel,60.04202942,Chrome,1440,900,,,,,0,1230,,,,,,,,,,,,,,,,,U,146,star,1,0,,,,,,,,,,,,,,,,switch,number,numSwt,j,0.8004,Hi,,,,,,5,,,,,,,,low,17,0,17,0,1,,,,,,,,,
294562,2022-11-28_16h15.04.120,vts_reward_expectancy_bt,2022.2.4,MacIntel,60.04202942,Chrome,1440,900,,,,,10,1240,,,,,,,,,,,,,,,,,H,132,circle,1,0,,,,,,,,,,,,,,,,repeat,number,numRpt,j,0.8305,Lo,,,,,,5,,,,,,,,low,18,0,18,0,1,,,,,,,,,
294562,2022-11-28_16h15.04.120,vts_reward_expectancy_bt,2022.2.4,MacIntel,60.04202942,Chrome,1440,900,,,,,1,1241,,,,,,,,,,,,,,,,,D,167,triangle,1,0,,,,,,,,,,,,,,,,repeat,number,numRpt,k,0.7783,Lo,,,,,,5,,,,,,,,low,19,0,19,0,1,,,,,,,,,
294562,2022-11-28_16h15.04.120,vts_reward_expectancy_bt,2022.2.4,MacIntel,60.04202942,Chrome,1440,900,,,,,0,1241,,,,,,,,,,,,,,,,,S,125,star,1,0,,,,,,,,,,,,,,,,switch,letter,lettSwt,f,0.7823,Hi,,,,,,5,,,,,,,,low,20,0,20,0,1,,,,,,,,,
294562,2022-11-28_16h15.04.120,vts_reward_expectancy_bt,2022.2.4,MacIntel,60.04202942,Chrome,1440,900,,,,,0,1241,,,,,,,,,,,,,,,,,B,181,hexagon,1,0,,,,,,,,,,,,,,,,repeat,letter,lettRpt,d,2.0251,Hi,,,,,,5,,,,,,,,low,21,0,21,0,1,,,,,,,,,
294562,2022-11-28_16h15.04.120,vts_reward_expectancy_bt,2022.2.4,MacIntel,60.04202942,Chrome,1440,900,,,,,1,1242,,,,,,,,,,,,,,,,,Y,139,triangle,1,0,,,,,,,,,,,,,,,,switch,number,numSwt,j,0.6451,Lo,,,,,,5,,,,,,,,low,22,0,22,0,1,,,,,,,,,
294562,2022-11-28_16h15.04.120,vts_reward_expectancy_bt,2022.2.4,MacIntel,60.04202942,Chrome,1440,900,,,,,1,1243,,,,,,,,,,,,,,,,,F,160,circle,1,0,,,,,,,,,,,,,,,,switch,letter,lettSwt,d,0.919,Lo,,,,,,5,,,,,,,,low,23,0,23,0,1,,,,,,,,,
294562,2022-11-28_16h15.04.120,vts_reward_expectancy_bt,2022.2.4,MacIntel,60.04202942,Chrome,1440,900,,,,,1,1244,,,,,,,,,,,,,,,,,W,132,circle,1,0,,,,,,,,,,,,,,,,switch,number,numSwt,j,0.6512,Lo,,,,,,5,,,,,,,,low,24,0,24,0,1,,,,,,,,,
294562,2022-11-28_16h15.04.120,vts_reward_expectancy_bt,2022.2.4,MacIntel,60.04202942,Chrome,1440,900,,,,,10,1254,,,,,,,,,,,,,,,,,F,146,triangle,1,0,,,,,,,,,,,,,,,,repeat,number,numRpt,j,0.7489,Lo,,,,,,5,,,,,,,,low,25,0,25,0,1,,,,,,,,,
294562,2022-11-28_16h15.04.120,vts_reward_expectancy_bt,2022.2.4,MacIntel,60.04202942,Chrome,1440,900,,,,,0,1254,,,,,,,,,,,,,,,,,U,181,star,1,0,,,,,,,,,,,,,,,,repeat,number,numRpt,k,0.9117,Hi,,,,,,5,,,,,,,,low,26,0,26,0,1,,,,,,,,,
294562,2022-11-28_16h15.04.120,vts_reward_expectancy_bt,2022.2.4,MacIntel,60.04202942,Chrome,1440,900,,,,,0,1254,,,,,,,,,,,,,,,,,B,139,hexagon,1,0,,,,,,,,,,,,,,,,repeat,number,numRpt,j,0.7312,Hi,,,,,,5,,,,,,,,low,27,0,27,0,1,,,,,,,,,
294562,2022-11-28_16h15.04.120,vts_reward_expectancy_bt,2022.2.4,MacIntel,60.04202942,Chrome,1440,900,,,,,0,1254,,,,,,,,,,,,,,,,,S,160,triangle,0,0,,,,,,,,,,,,,,,,repeat,number,NA,j,0.9986,Hi,,,,,,5,,,,,,,,low,28,0,28,0,1,,,,,,,,,
294562,2022-11-28_16h15.04.120,vts_reward_expectancy_bt,2022.2.4,MacIntel,60.04202942,Chrome,1440,900,,,,,10,1264,,,,,,,,,,,,,,,,,Y,174,circle,1,1,,,,,,,,,,,,,,,,repeat,number,numRpt,k,0.8784,Lo,,,,,,5,,,,,,,,low,29,0,29,0,1,,,,,,,,,
294562,2022-11-28_16h15.04.120,vts_reward_expectancy_bt,2022.2.4,MacIntel,60.04202942,Chrome,1440,900,,,,,0,1264,,,,,,,,,,,,,,,,,D,167,hexagon,1,0,,,,,,,,,,,,,,,,repeat,number,numRpt,k,0.7479,Hi,,,,,,5,,,,,,,,low,30,0,30,0,1,,,,,,,,,
294562,2022-11-28_16h15.04.120,vts_reward_expectancy_bt,2022.2.4,MacIntel,60.04202942,Chrome,1440,900,,,,,0,1264,,,,,,,,,,,,,,,,,H,125,star,1,0,,,,,,,,,,,,,,,,repeat,number,numRpt,j,1.9281,Hi,,,,,,5,,,,,,,,low,31,0,31,0,1,,,,,,,,,
294562,2022-11-28_16h15.04.120,vts_reward_expectancy_bt,2022.2.4,MacIntel,60.04202942,Chrome,1440,900,,,,,0,1264,,,,,,,,,,,,,,,,,Y,139,star,1,0,,,,,,,,,,,,,,,,repeat,number,numRpt,j,1.0765,Hi,,,,,,6,,,,,,space,0.7324,low,0,0,0,0,1,,,,,,,,,
294562,2022-11-28_16h15.04.120,vts_reward_expectancy_bt,2022.2.4,MacIntel,60.04202942,Chrome,1440,900,,,,,10,1274,,,,,,,,,,,,,,,,,S,167,triangle,1,0,,,,,,,,,,,,,,,,switch,letter,lettSwt,f,0.9661,Lo,,,,,,6,,,,,,,,low,1,0,1,0,1,,,,,,,,,
