participant,date,expName,psychopyVersion,OS,frameRate,browser,xResolution,yResolution,key_resp.keys,key_resp.rt,training_resp.keys,training_resp.rt,points_trial,points_cumul,trainBlock,training.thisRepN,training.thisTrialN,training.thisN,training.thisIndex,training.ran,LTriangleOpac,LCircleOpac,LHexagonOpac,LStarOpac,RTriangleOpac,RCircleOpac,RHexagonOpac,RStarOpac,LShape_ID,RShape_ID,curr_topStim,curr_bottStim,curr_shape,acc,E1,target_resp_prac1.keys,pracBlock,task1_prac_trials.thisRepN,task1_prac_trials.thisTrialN,task1_prac_trials.thisN,task1_prac_trials.thisIndex,task1_prac_trials.ran,target_resp_prac1.rt,target_resp_prac2.keys,target_resp_prac2.rt,task2_praac_trials.thisRepN,task2_praac_trials.thisTrialN,task2_praac_trials.thisN,task2_praac_trials.thisIndex,task2_praac_trials.ran,alt,task,condition,target_resp.keys,target_resp.rt,rewCond,vts_practice_trials.thisRepN,vts_practice_trials.thisTrialN,vts_practice_trials.thisN,vts_practice_trials.thisIndex,vts_practice_trials.ran,blockNum,trials_norew.thisRepN,trials_norew.thisTrialN,trials_norew.thisN,trials_norew.thisIndex,trials_norew.ran,key_resp_2.keys,key_resp_2.rt,rewExpectancy,trials_rew.thisRepN,trials_rew.thisTrialN,trials_rew.thisN,trials_rew.thisIndex,trials_rew.ran,Q1,Q2,Q2_text,Q3,Q4,Q5_text,Q5,xRes,yRes
294673,2022-12-05_18h53.38.071,vts_reward_expectancy_bt,2022.2.4,Win32,59.97361161,Chrome,1368,912,,,,,,,,,,,,,,,,,,,,,,,,,,,,,,,,,,,,,,,,,,,,,,,,,,,,,,,,,,,,,,,,,,,,,,,,,,,,
294673,2022-12-05_18h53.38.071,vts_reward_expectancy_bt,2022.2.4,Win32,59.97361161,Chrome,1368,912,space,13.6388,,,,,,,,,,,,,,,,,,,,,,,,,,,,,,,,,,,,,,,,,,,,,,,,,,,,,,,,,,,,,,,,,,,,,,,,,,
294673,2022-12-05_18h53.38.071,vts_reward_expectancy_bt,2022.2.4,Win32,59.97361161,Chrome,1368,912,,,,,,,,,,,,,,,,,,,,,,,,,,,,,,,,,,,,,,,,,,,,,,,,,,,,,,,,,,,,,,,,,,,,,,,,,,,,
294673,2022-12-05_18h53.38.071,vts_reward_expectancy_bt,2022.2.4,Win32,59.97361161,Chrome,1368,912,,,l,1.5894,1,1,0,0,0,0,10,1,0,0,0,1,0,1,0,0,star ,circle,,,,,,,,,,,,,,,,,,,,,,,,,,,,,,,,,,,,,,,,,,,,,,,,,,,,,,
294673,2022-12-05_18h53.38.071,vts_reward_expectancy_bt,2022.2.4,Win32,59.97361161,Chrome,1368,912,,,a,1.5326,10,11,0,0,1,1,7,1,0,0,1,0,0,1,0,0,hexagon,circle,,,,,,,,,,,,,,,,,,,,,,,,,,,,,,,,,,,,,,,,,,,,,,,,,,,,,,
294673,2022-12-05_18h53.38.071,vts_reward_expectancy_bt,2022.2.4,Win32,59.97361161,Chrome,1368,912,,,l,1.0225,1,12,0,0,2,2,5,1,0,1,0,0,0,0,0,1,circle,star,,,,,,,,,,,,,,,,,,,,,,,,,,,,,,,,,,,,,,,,,,,,,,,,,,,,,,
294673,2022-12-05_18h53.38.071,vts_reward_expectancy_bt,2022.2.4,Win32,59.97361161,Chrome,1368,912,,,l,1.6089,10,22,0,0,3,3,9,1,0,0,0,1,1,0,0,0,star,triangle,,,,,,,,,,,,,,,,,,,,,,,,,,,,,,,,,,,,,,,,,,,,,,,,,,,,,,
294673,2022-12-05_18h53.38.071,vts_reward_expectancy_bt,2022.2.4,Win32,59.97361161,Chrome,1368,912,,,a,1.1381,10,32,0,0,4,4,0,1,1,0,0,0,0,1,0,0,triangle,circle,,,,,,,,,,,,,,,,,,,,,,,,,,,,,,,,,,,,,,,,,,,,,,,,,,,,,,
294673,2022-12-05_18h53.38.071,vts_reward_expectancy_bt,2022.2.4,Win32,59.97361161,Chrome,1368,912,,,a,3.6399,1,33,0,0,5,5,4,1,0,1,0,0,0,0,1,0,circle,hexagon,,,,,,,,,,,,,,,,,,,,,,,,,,,,,,,,,,,,,,,,,,,,,,,,,,,,,,
294673,2022-12-05_18h53.38.071,vts_reward_expectancy_bt,2022.2.4,Win32,59.97361161,Chrome,1368,912,,,a,1.7048,1,34,0,0,6,6,2,1,1,0,0,0,0,0,0,1,triangle,star,,,,,,,,,,,,,,,,,,,,,,,,,,,,,,,,,,,,,,,,,,,,,,,,,,,,,,
294673,2022-12-05_18h53.38.071,vts_reward_expectancy_bt,2022.2.4,Win32,59.97361161,Chrome,1368,912,,,a,1.3573,1,35,0,0,7,7,11,1,0,0,0,1,0,0,1,0,star,hexagon,,,,,,,,,,,,,,,,,,,,,,,,,,,,,,,,,,,,,,,,,,,,,,,,,,,,,,
294673,2022-12-05_18h53.38.071,vts_reward_expectancy_bt,2022.2.4,Win32,59.97361161,Chrome,1368,912,,,a,1.1852,10,45,0,0,8,8,8,1,0,0,1,0,0,0,0,1,hexagon,star,,,,,,,,,,,,,,,,,,,,,,,,,,,,,,,,,,,,,,,,,,,,,,,,,,,,,,
294673,2022-12-05_18h53.38.071,vts_reward_expectancy_bt,2022.2.4,Win32,59.97361161,Chrome,1368,912,,,l,2.6012,10,55,0,0,9,9,3,1,0,1,0,0,1,0,0,0,circle,triangle,,,,,,,,,,,,,,,,,,,,,,,,,,,,,,,,,,,,,,,,,,,,,,,,,,,,,,
294673,2022-12-05_18h53.38.071,vts_reward_expectancy_bt,2022.2.4,Win32,59.97361161,Chrome,1368,912,,,a,1.3528,10,65,0,0,10,10,1,1,1,0,0,0,0,0,1,0,triangle,hexagon,,,,,,,,,,,,,,,,,,,,,,,,,,,,,,,,,,,,,,,,,,,,,,,,,,,,,,
294673,2022-12-05_18h53.38.071,vts_reward_expectancy_bt,2022.2.4,Win32,59.97361161,Chrome,1368,912,,,l,1.5768,10,75,0,0,11,11,6,1,0,0,1,0,1,0,0,0,hexagon,triangle,,,,,,,,,,,,,,,,,,,,,,,,,,,,,,,,,,,,,,,,,,,,,,,,,,,,,,
294673,2022-12-05_18h53.38.071,vts_reward_expectancy_bt,2022.2.4,Win32,59.97361161,Chrome,1368,912,,,l,0.7941,1,76,0,1,0,12,9,1,0,0,0,1,1,0,0,0,star,triangle,,,,,,,,,,,,,,,,,,,,,,,,,,,,,,,,,,,,,,,,,,,,,,,,,,,,,,
294673,2022-12-05_18h53.38.071,vts_reward_expectancy_bt,2022.2.4,Win32,59.97361161,Chrome,1368,912,,,a,0.7837,1,77,0,1,1,13,10,1,0,0,0,1,0,1,0,0,star ,circle,,,,,,,,,,,,,,,,,,,,,,,,,,,,,,,,,,,,,,,,,,,,,,,,,,,,,,
294673,2022-12-05_18h53.38.071,vts_reward_expectancy_bt,2022.2.4,Win32,59.97361161,Chrome,1368,912,,,l,2.0527,1,78,0,1,2,14,5,1,0,1,0,0,0,0,0,1,circle,star,,,,,,,,,,,,,,,,,,,,,,,,,,,,,,,,,,,,,,,,,,,,,,,,,,,,,,
294673,2022-12-05_18h53.38.071,vts_reward_expectancy_bt,2022.2.4,Win32,59.97361161,Chrome,1368,912,,,l,1.6571,1,79,0,1,3,15,11,1,0,0,0,1,0,0,1,0,star,hexagon,,,,,,,,,,,,,,,,,,,,,,,,,,,,,,,,,,,,,,,,,,,,,,,,,,,,,,
294673,2022-12-05_18h53.38.071,vts_reward_expectancy_bt,2022.2.4,Win32,59.97361161,Chrome,1368,912,,,l,1.473,10,89,0,1,4,16,3,1,0,1,0,0,1,0,0,0,circle,triangle,,,,,,,,,,,,,,,,,,,,,,,,,,,,,,,,,,,,,,,,,,,,,,,,,,,,,,
294673,2022-12-05_18h53.38.071,vts_reward_expectancy_bt,2022.2.4,Win32,59.97361161,Chrome,1368,912,,,l,0.8026,10,99,0,1,5,17,6,1,0,0,1,0,1,0,0,0,hexagon,triangle,,,,,,,,,,,,,,,,,,,,,,,,,,,,,,,,,,,,,,,,,,,,,,,,,,,,,,
294673,2022-12-05_18h53.38.071,vts_reward_expectancy_bt,2022.2.4,Win32,59.97361161,Chrome,1368,912,,,a,1.3856,10,109,0,1,6,18,8,1,0,0,1,0,0,0,0,1,hexagon,star,,,,,,,,,,,,,,,,,,,,,,,,,,,,,,,,,,,,,,,,,,,,,,,,,,,,,,
294673,2022-12-05_18h53.38.071,vts_reward_expectancy_bt,2022.2.4,Win32,59.97361161,Chrome,1368,912,,,a,1.0778,10,119,0,1,7,19,0,1,1,0,0,0,0,1,0,0,triangle,circle,,,,,,,,,,,,,,,,,,,,,,,,,,,,,,,,,,,,,,,,,,,,,,,,,,,,,,
294673,2022-12-05_18h53.38.071,vts_reward_expectancy_bt,2022.2.4,Win32,59.97361161,Chrome,1368,912,,,a,1.4094,10,129,0,1,8,20,1,1,1,0,0,0,0,0,1,0,triangle,hexagon,,,,,,,,,,,,,,,,,,,,,,,,,,,,,,,,,,,,,,,,,,,,,,,,,,,,,,
294673,2022-12-05_18h53.38.071,vts_reward_expectancy_bt,2022.2.4,Win32,59.97361161,Chrome,1368,912,,,l,1.2103,10,139,0,1,9,21,4,1,0,1,0,0,0,0,1,0,circle,hexagon,,,,,,,,,,,,,,,,,,,,,,,,,,,,,,,,,,,,,,,,,,,,,,,,,,,,,,
294673,2022-12-05_18h53.38.071,vts_reward_expectancy_bt,2022.2.4,Win32,59.97361161,Chrome,1368,912,,,a,0.906,10,149,0,1,10,22,2,1,1,0,0,0,0,0,0,1,triangle,star,,,,,,,,,,,,,,,,,,,,,,,,,,,,,,,,,,,,,,,,,,,,,,,,,,,,,,
294673,2022-12-05_18h53.38.071,vts_reward_expectancy_bt,2022.2.4,Win32,59.97361161,Chrome,1368,912,,,a,0.9964,10,159,0,1,11,23,7,1,0,0,1,0,0,1,0,0,hexagon,circle,,,,,,,,,,,,,,,,,,,,,,,,,,,,,,,,,,,,,,,,,,,,,,,,,,,,,,
294673,2022-12-05_18h53.38.071,vts_reward_expectancy_bt,2022.2.4,Win32,59.97361161,Chrome,1368,912,,,a,1.0419,10,169,0,2,0,24,7,1,0,0,1,0,0,1,0,0,hexagon,circle,,,,,,,,,,,,,,,,,,,,,,,,,,,,,,,,,,,,,,,,,,,,,,,,,,,,,,
294673,2022-12-05_18h53.38.071,vts_reward_expectancy_bt,2022.2.4,Win32,59.97361161,Chrome,1368,912,,,l,1.1953,1,170,0,2,1,25,3,1,0,1,0,0,1,0,0,0,circle,triangle,,,,,,,,,,,,,,,,,,,,,,,,,,,,,,,,,,,,,,,,,,,,,,,,,,,,,,
294673,2022-12-05_18h53.38.071,vts_reward_expectancy_bt,2022.2.4,Win32,59.97361161,Chrome,1368,912,,,l,0.9527,10,180,0,2,2,26,11,1,0,0,0,1,0,0,1,0,star,hexagon,,,,,,,,,,,,,,,,,,,,,,,,,,,,,,,,,,,,,,,,,,,,,,,,,,,,,,
294673,2022-12-05_18h53.38.071,vts_reward_expectancy_bt,2022.2.4,Win32,59.97361161,Chrome,1368,912,,,l,1.2314,10,190,0,2,3,27,4,1,0,1,0,0,0,0,1,0,circle,hexagon,,,,,,,,,,,,,,,,,,,,,,,,,,,,,,,,,,,,,,,,,,,,,,,,,,,,,,
294673,2022-12-05_18h53.38.071,vts_reward_expectancy_bt,2022.2.4,Win32,59.97361161,Chrome,1368,912,,,l,1.3844,1,191,0,2,4,28,6,1,0,0,1,0,1,0,0,0,hexagon,triangle,,,,,,,,,,,,,,,,,,,,,,,,,,,,,,,,,,,,,,,,,,,,,,,,,,,,,,
294673,2022-12-05_18h53.38.071,vts_reward_expectancy_bt,2022.2.4,Win32,59.97361161,Chrome,1368,912,,,a,1.4393,10,201,0,2,5,29,1,1,1,0,0,0,0,0,1,0,triangle,hexagon,,,,,,,,,,,,,,,,,,,,,,,,,,,,,,,,,,,,,,,,,,,,,,,,,,,,,,
294673,2022-12-05_18h53.38.071,vts_reward_expectancy_bt,2022.2.4,Win32,59.97361161,Chrome,1368,912,,,a,3.8615,10,211,0,2,6,30,10,1,0,0,0,1,0,1,0,0,star ,circle,,,,,,,,,,,,,,,,,,,,,,,,,,,,,,,,,,,,,,,,,,,,,,,,,,,,,,
294673,2022-12-05_18h53.38.071,vts_reward_expectancy_bt,2022.2.4,Win32,59.97361161,Chrome,1368,912,,,a,4.5753,1,212,0,2,7,31,0,1,1,0,0,0,0,1,0,0,triangle,circle,,,,,,,,,,,,,,,,,,,,,,,,,,,,,,,,,,,,,,,,,,,,,,,,,,,,,,
294673,2022-12-05_18h53.38.071,vts_reward_expectancy_bt,2022.2.4,Win32,59.97361161,Chrome,1368,912,,,a,0.8246,10,222,0,2,8,32,2,1,1,0,0,0,0,0,0,1,triangle,star,,,,,,,,,,,,,,,,,,,,,,,,,,,,,,,,,,,,,,,,,,,,,,,,,,,,,,
294673,2022-12-05_18h53.38.071,vts_reward_expectancy_bt,2022.2.4,Win32,59.97361161,Chrome,1368,912,,,l,2.4892,1,223,0,2,9,33,5,1,0,1,0,0,0,0,0,1,circle,star,,,,,,,,,,,,,,,,,,,,,,,,,,,,,,,,,,,,,,,,,,,,,,,,,,,,,,
294673,2022-12-05_18h53.38.071,vts_reward_expectancy_bt,2022.2.4,Win32,59.97361161,Chrome,1368,912,,,a,1.0356,10,233,0,2,10,34,8,1,0,0,1,0,0,0,0,1,hexagon,star,,,,,,,,,,,,,,,,,,,,,,,,,,,,,,,,,,,,,,,,,,,,,,,,,,,,,,
294673,2022-12-05_18h53.38.071,vts_reward_expectancy_bt,2022.2.4,Win32,59.97361161,Chrome,1368,912,,,l,0.6776,10,243,0,2,11,35,9,1,0,0,0,1,1,0,0,0,star,triangle,,,,,,,,,,,,,,,,,,,,,,,,,,,,,,,,,,,,,,,,,,,,,,,,,,,,,,
294673,2022-12-05_18h53.38.071,vts_reward_expectancy_bt,2022.2.4,Win32,59.97361161,Chrome,1368,912,,,l,1.9736,10,253,1,0,0,0,11,1,0,0,0,1,0,0,1,0,star,hexagon,,,,,,,,,,,,,,,,,,,,,,,,,,,,,,,,,,,,,,,,,,,,,,,,,,,,,,
294673,2022-12-05_18h53.38.071,vts_reward_expectancy_bt,2022.2.4,Win32,59.97361161,Chrome,1368,912,,,a,0.8789,10,263,1,0,1,1,0,1,1,0,0,0,0,1,0,0,triangle,circle,,,,,,,,,,,,,,,,,,,,,,,,,,,,,,,,,,,,,,,,,,,,,,,,,,,,,,
294673,2022-12-05_18h53.38.071,vts_reward_expectancy_bt,2022.2.4,Win32,59.97361161,Chrome,1368,912,,,a,1.0527,1,264,1,0,2,2,1,1,1,0,0,0,0,0,1,0,triangle,hexagon,,,,,,,,,,,,,,,,,,,,,,,,,,,,,,,,,,,,,,,,,,,,,,,,,,,,,,
294673,2022-12-05_18h53.38.071,vts_reward_expectancy_bt,2022.2.4,Win32,59.97361161,Chrome,1368,912,,,l,2.2359,1,265,1,0,3,3,6,1,0,0,1,0,1,0,0,0,hexagon,triangle,,,,,,,,,,,,,,,,,,,,,,,,,,,,,,,,,,,,,,,,,,,,,,,,,,,,,,
294673,2022-12-05_18h53.38.071,vts_reward_expectancy_bt,2022.2.4,Win32,59.97361161,Chrome,1368,912,,,a,1.1279,10,275,1,0,4,4,8,1,0,0,1,0,0,0,0,1,hexagon,star,,,,,,,,,,,,,,,,,,,,,,,,,,,,,,,,,,,,,,,,,,,,,,,,,,,,,,
294673,2022-12-05_18h53.38.071,vts_reward_expectancy_bt,2022.2.4,Win32,59.97361161,Chrome,1368,912,,,l,1.0826,1,276,1,0,5,5,3,1,0,1,0,0,1,0,0,0,circle,triangle,,,,,,,,,,,,,,,,,,,,,,,,,,,,,,,,,,,,,,,,,,,,,,,,,,,,,,
294673,2022-12-05_18h53.38.071,vts_reward_expectancy_bt,2022.2.4,Win32,59.97361161,Chrome,1368,912,,,l,1.6602,1,277,1,0,6,6,10,1,0,0,0,1,0,1,0,0,star ,circle,,,,,,,,,,,,,,,,,,,,,,,,,,,,,,,,,,,,,,,,,,,,,,,,,,,,,,
294673,2022-12-05_18h53.38.071,vts_reward_expectancy_bt,2022.2.4,Win32,59.97361161,Chrome,1368,912,,,a,0.6234,10,287,1,0,7,7,2,1,1,0,0,0,0,0,0,1,triangle,star,,,,,,,,,,,,,,,,,,,,,,,,,,,,,,,,,,,,,,,,,,,,,,,,,,,,,,
294673,2022-12-05_18h53.38.071,vts_reward_expectancy_bt,2022.2.4,Win32,59.97361161,Chrome,1368,912,,,l,1.1493,1,288,1,0,8,8,5,1,0,1,0,0,0,0,0,1,circle,star,,,,,,,,,,,,,,,,,,,,,,,,,,,,,,,,,,,,,,,,,,,,,,,,,,,,,,
294673,2022-12-05_18h53.38.071,vts_reward_expectancy_bt,2022.2.4,Win32,59.97361161,Chrome,1368,912,,,l,0.9802,10,298,1,0,9,9,9,1,0,0,0,1,1,0,0,0,star,triangle,,,,,,,,,,,,,,,,,,,,,,,,,,,,,,,,,,,,,,,,,,,,,,,,,,,,,,
294673,2022-12-05_18h53.38.071,vts_reward_expectancy_bt,2022.2.4,Win32,59.97361161,Chrome,1368,912,,,l,1.7211,1,299,1,0,10,10,4,1,0,1,0,0,0,0,1,0,circle,hexagon,,,,,,,,,,,,,,,,,,,,,,,,,,,,,,,,,,,,,,,,,,,,,,,,,,,,,,
294673,2022-12-05_18h53.38.071,vts_reward_expectancy_bt,2022.2.4,Win32,59.97361161,Chrome,1368,912,,,a,1.475,10,309,1,0,11,11,7,1,0,0,1,0,0,1,0,0,hexagon,circle,,,,,,,,,,,,,,,,,,,,,,,,,,,,,,,,,,,,,,,,,,,,,,,,,,,,,,
294673,2022-12-05_18h53.38.071,vts_reward_expectancy_bt,2022.2.4,Win32,59.97361161,Chrome,1368,912,,,a,1.3204,1,310,1,1,0,12,2,1,1,0,0,0,0,0,0,1,triangle,star,,,,,,,,,,,,,,,,,,,,,,,,,,,,,,,,,,,,,,,,,,,,,,,,,,,,,,
294673,2022-12-05_18h53.38.071,vts_reward_expectancy_bt,2022.2.4,Win32,59.97361161,Chrome,1368,912,,,a,1.0598,10,320,1,1,1,13,0,1,1,0,0,0,0,1,0,0,triangle,circle,,,,,,,,,,,,,,,,,,,,,,,,,,,,,,,,,,,,,,,,,,,,,,,,,,,,,,
294673,2022-12-05_18h53.38.071,vts_reward_expectancy_bt,2022.2.4,Win32,59.97361161,Chrome,1368,912,,,l,0.7251,10,330,1,1,2,14,9,1,0,0,0,1,1,0,0,0,star,triangle,,,,,,,,,,,,,,,,,,,,,,,,,,,,,,,,,,,,,,,,,,,,,,,,,,,,,,
294673,2022-12-05_18h53.38.071,vts_reward_expectancy_bt,2022.2.4,Win32,59.97361161,Chrome,1368,912,,,a,0.7691,10,340,1,1,3,15,8,1,0,0,1,0,0,0,0,1,hexagon,star,,,,,,,,,,,,,,,,,,,,,,,,,,,,,,,,,,,,,,,,,,,,,,,,,,,,,,
294673,2022-12-05_18h53.38.071,vts_reward_expectancy_bt,2022.2.4,Win32,59.97361161,Chrome,1368,912,,,a,2.0852,10,350,1,1,4,16,7,1,0,0,1,0,0,1,0,0,hexagon,circle,,,,,,,,,,,,,,,,,,,,,,,,,,,,,,,,,,,,,,,,,,,,,,,,,,,,,,
294673,2022-12-05_18h53.38.071,vts_reward_expectancy_bt,2022.2.4,Win32,59.97361161,Chrome,1368,912,,,a,1.3978,10,360,1,1,5,17,10,1,0,0,0,1,0,1,0,0,star ,circle,,,,,,,,,,,,,,,,,,,,,,,,,,,,,,,,,,,,,,,,,,,,,,,,,,,,,,
294673,2022-12-05_18h53.38.071,vts_reward_expectancy_bt,2022.2.4,Win32,59.97361161,Chrome,1368,912,,,l,0.8369,10,370,1,1,6,18,3,1,0,1,0,0,1,0,0,0,circle,triangle,,,,,,,,,,,,,,,,,,,,,,,,,,,,,,,,,,,,,,,,,,,,,,,,,,,,,,
294673,2022-12-05_18h53.38.071,vts_reward_expectancy_bt,2022.2.4,Win32,59.97361161,Chrome,1368,912,,,l,1.2187,10,380,1,1,7,19,6,1,0,0,1,0,1,0,0,0,hexagon,triangle,,,,,,,,,,,,,,,,,,,,,,,,,,,,,,,,,,,,,,,,,,,,,,,,,,,,,,
294673,2022-12-05_18h53.38.071,vts_reward_expectancy_bt,2022.2.4,Win32,59.97361161,Chrome,1368,912,,,l,0.967,10,390,1,1,8,20,11,1,0,0,0,1,0,0,1,0,star,hexagon,,,,,,,,,,,,,,,,,,,,,,,,,,,,,,,,,,,,,,,,,,,,,,,,,,,,,,
294673,2022-12-05_18h53.38.071,vts_reward_expectancy_bt,2022.2.4,Win32,59.97361161,Chrome,1368,912,,,a,1.7464,1,391,1,1,9,21,5,1,0,1,0,0,0,0,0,1,circle,star,,,,,,,,,,,,,,,,,,,,,,,,,,,,,,,,,,,,,,,,,,,,,,,,,,,,,,
294673,2022-12-05_18h53.38.071,vts_reward_expectancy_bt,2022.2.4,Win32,59.97361161,Chrome,1368,912,,,a,0.6697,10,401,1,1,10,22,1,1,1,0,0,0,0,0,1,0,triangle,hexagon,,,,,,,,,,,,,,,,,,,,,,,,,,,,,,,,,,,,,,,,,,,,,,,,,,,,,,
294673,2022-12-05_18h53.38.071,vts_reward_expectancy_bt,2022.2.4,Win32,59.97361161,Chrome,1368,912,,,l,0.6895,10,411,1,1,11,23,4,1,0,1,0,0,0,0,1,0,circle,hexagon,,,,,,,,,,,,,,,,,,,,,,,,,,,,,,,,,,,,,,,,,,,,,,,,,,,,,,
294673,2022-12-05_18h53.38.071,vts_reward_expectancy_bt,2022.2.4,Win32,59.97361161,Chrome,1368,912,,,l,0.7011,10,421,1,2,0,24,11,1,0,0,0,1,0,0,1,0,star,hexagon,,,,,,,,,,,,,,,,,,,,,,,,,,,,,,,,,,,,,,,,,,,,,,,,,,,,,,
294673,2022-12-05_18h53.38.071,vts_reward_expectancy_bt,2022.2.4,Win32,59.97361161,Chrome,1368,912,,,l,1.0426,10,431,1,2,1,25,9,1,0,0,0,1,1,0,0,0,star,triangle,,,,,,,,,,,,,,,,,,,,,,,,,,,,,,,,,,,,,,,,,,,,,,,,,,,,,,
294673,2022-12-05_18h53.38.071,vts_reward_expectancy_bt,2022.2.4,Win32,59.97361161,Chrome,1368,912,,,l,0.7846,1,432,1,2,2,26,6,1,0,0,1,0,1,0,0,0,hexagon,triangle,,,,,,,,,,,,,,,,,,,,,,,,,,,,,,,,,,,,,,,,,,,,,,,,,,,,,,
294673,2022-12-05_18h53.38.071,vts_reward_expectancy_bt,2022.2.4,Win32,59.97361161,Chrome,1368,912,,,a,0.679,10,442,1,2,3,27,0,1,1,0,0,0,0,1,0,0,triangle,circle,,,,,,,,,,,,,,,,,,,,,,,,,,,,,,,,,,,,,,,,,,,,,,,,,,,,,,
294673,2022-12-05_18h53.38.071,vts_reward_expectancy_bt,2022.2.4,Win32,59.97361161,Chrome,1368,912,,,a,0.5649,10,452,1,2,4,28,2,1,1,0,0,0,0,0,0,1,triangle,star,,,,,,,,,,,,,,,,,,,,,,,,,,,,,,,,,,,,,,,,,,,,,,,,,,,,,,
294673,2022-12-05_18h53.38.071,vts_reward_expectancy_bt,2022.2.4,Win32,59.97361161,Chrome,1368,912,,,l,0.9011,10,462,1,2,5,29,3,1,0,1,0,0,1,0,0,0,circle,triangle,,,,,,,,,,,,,,,,,,,,,,,,,,,,,,,,,,,,,,,,,,,,,,,,,,,,,,
294673,2022-12-05_18h53.38.071,vts_reward_expectancy_bt,2022.2.4,Win32,59.97361161,Chrome,1368,912,,,l,1.0038,10,472,1,2,6,30,4,1,0,1,0,0,0,0,1,0,circle,hexagon,,,,,,,,,,,,,,,,,,,,,,,,,,,,,,,,,,,,,,,,,,,,,,,,,,,,,,
294673,2022-12-05_18h53.38.071,vts_reward_expectancy_bt,2022.2.4,Win32,59.97361161,Chrome,1368,912,,,l,0.7015,1,473,1,2,7,31,10,1,0,0,0,1,0,1,0,0,star ,circle,,,,,,,,,,,,,,,,,,,,,,,,,,,,,,,,,,,,,,,,,,,,,,,,,,,,,,
294673,2022-12-05_18h53.38.071,vts_reward_expectancy_bt,2022.2.4,Win32,59.97361161,Chrome,1368,912,,,a,0.647,1,474,1,2,8,32,7,1,0,0,1,0,0,1,0,0,hexagon,circle,,,,,,,,,,,,,,,,,,,,,,,,,,,,,,,,,,,,,,,,,,,,,,,,,,,,,,
294673,2022-12-05_18h53.38.071,vts_reward_expectancy_bt,2022.2.4,Win32,59.97361161,Chrome,1368,912,,,l,0.806,1,475,1,2,9,33,5,1,0,1,0,0,0,0,0,1,circle,star,,,,,,,,,,,,,,,,,,,,,,,,,,,,,,,,,,,,,,,,,,,,,,,,,,,,,,
294673,2022-12-05_18h53.38.071,vts_reward_expectancy_bt,2022.2.4,Win32,59.97361161,Chrome,1368,912,,,a,0.7189,1,476,1,2,10,34,8,1,0,0,1,0,0,0,0,1,hexagon,star,,,,,,,,,,,,,,,,,,,,,,,,,,,,,,,,,,,,,,,,,,,,,,,,,,,,,,
294673,2022-12-05_18h53.38.071,vts_reward_expectancy_bt,2022.2.4,Win32,59.97361161,Chrome,1368,912,,,a,1.3022,10,486,1,2,11,35,1,1,1,0,0,0,0,0,1,0,triangle,hexagon,,,,,,,,,,,,,,,,,,,,,,,,,,,,,,,,,,,,,,,,,,,,,,,,,,,,,,
294673,2022-12-05_18h53.38.071,vts_reward_expectancy_bt,2022.2.4,Win32,59.97361161,Chrome,1368,912,,,l,1.0436,1,487,2,0,0,0,11,1,0,0,0,1,0,0,1,0,star,hexagon,,,,,,,,,,,,,,,,,,,,,,,,,,,,,,,,,,,,,,,,,,,,,,,,,,,,,,
294673,2022-12-05_18h53.38.071,vts_reward_expectancy_bt,2022.2.4,Win32,59.97361161,Chrome,1368,912,,,l,1.0008,1,488,2,0,1,1,10,1,0,0,0,1,0,1,0,0,star ,circle,,,,,,,,,,,,,,,,,,,,,,,,,,,,,,,,,,,,,,,,,,,,,,,,,,,,,,
294673,2022-12-05_18h53.38.071,vts_reward_expectancy_bt,2022.2.4,Win32,59.97361161,Chrome,1368,912,,,l,0.5021,10,498,2,0,2,2,9,1,0,0,0,1,1,0,0,0,star,triangle,,,,,,,,,,,,,,,,,,,,,,,,,,,,,,,,,,,,,,,,,,,,,,,,,,,,,,
294673,2022-12-05_18h53.38.071,vts_reward_expectancy_bt,2022.2.4,Win32,59.97361161,Chrome,1368,912,,,l,0.6953,1,499,2,0,3,3,6,1,0,0,1,0,1,0,0,0,hexagon,triangle,,,,,,,,,,,,,,,,,,,,,,,,,,,,,,,,,,,,,,,,,,,,,,,,,,,,,,
294673,2022-12-05_18h53.38.071,vts_reward_expectancy_bt,2022.2.4,Win32,59.97361161,Chrome,1368,912,,,a,0.7845,10,509,2,0,4,4,1,1,1,0,0,0,0,0,1,0,triangle,hexagon,,,,,,,,,,,,,,,,,,,,,,,,,,,,,,,,,,,,,,,,,,,,,,,,,,,,,,
294673,2022-12-05_18h53.38.071,vts_reward_expectancy_bt,2022.2.4,Win32,59.97361161,Chrome,1368,912,,,a,0.6294,10,519,2,0,5,5,8,1,0,0,1,0,0,0,0,1,hexagon,star,,,,,,,,,,,,,,,,,,,,,,,,,,,,,,,,,,,,,,,,,,,,,,,,,,,,,,
294673,2022-12-05_18h53.38.071,vts_reward_expectancy_bt,2022.2.4,Win32,59.97361161,Chrome,1368,912,,,a,1.0537,1,520,2,0,6,6,5,1,0,1,0,0,0,0,0,1,circle,star,,,,,,,,,,,,,,,,,,,,,,,,,,,,,,,,,,,,,,,,,,,,,,,,,,,,,,
294673,2022-12-05_18h53.38.071,vts_reward_expectancy_bt,2022.2.4,Win32,59.97361161,Chrome,1368,912,,,a,0.712,10,530,2,0,7,7,7,1,0,0,1,0,0,1,0,0,hexagon,circle,,,,,,,,,,,,,,,,,,,,,,,,,,,,,,,,,,,,,,,,,,,,,,,,,,,,,,
294673,2022-12-05_18h53.38.071,vts_reward_expectancy_bt,2022.2.4,Win32,59.97361161,Chrome,1368,912,,,l,1.2951,10,540,2,0,8,8,4,1,0,1,0,0,0,0,1,0,circle,hexagon,,,,,,,,,,,,,,,,,,,,,,,,,,,,,,,,,,,,,,,,,,,,,,,,,,,,,,
294673,2022-12-05_18h53.38.071,vts_reward_expectancy_bt,2022.2.4,Win32,59.97361161,Chrome,1368,912,,,a,0.7661,10,550,2,0,9,9,0,1,1,0,0,0,0,1,0,0,triangle,circle,,,,,,,,,,,,,,,,,,,,,,,,,,,,,,,,,,,,,,,,,,,,,,,,,,,,,,
294673,2022-12-05_18h53.38.071,vts_reward_expectancy_bt,2022.2.4,Win32,59.97361161,Chrome,1368,912,,,a,0.6075,10,560,2,0,10,10,2,1,1,0,0,0,0,0,0,1,triangle,star,,,,,,,,,,,,,,,,,,,,,,,,,,,,,,,,,,,,,,,,,,,,,,,,,,,,,,
294673,2022-12-05_18h53.38.071,vts_reward_expectancy_bt,2022.2.4,Win32,59.97361161,Chrome,1368,912,,,l,0.5678,10,570,2,0,11,11,3,1,0,1,0,0,1,0,0,0,circle,triangle,,,,,,,,,,,,,,,,,,,,,,,,,,,,,,,,,,,,,,,,,,,,,,,,,,,,,,
294673,2022-12-05_18h53.38.071,vts_reward_expectancy_bt,2022.2.4,Win32,59.97361161,Chrome,1368,912,,,a,1.0008,1,571,2,1,0,12,5,1,0,1,0,0,0,0,0,1,circle,star,,,,,,,,,,,,,,,,,,,,,,,,,,,,,,,,,,,,,,,,,,,,,,,,,,,,,,
294673,2022-12-05_18h53.38.071,vts_reward_expectancy_bt,2022.2.4,Win32,59.97361161,Chrome,1368,912,,,l,0.852,10,581,2,1,1,13,9,1,0,0,0,1,1,0,0,0,star,triangle,,,,,,,,,,,,,,,,,,,,,,,,,,,,,,,,,,,,,,,,,,,,,,,,,,,,,,
294673,2022-12-05_18h53.38.071,vts_reward_expectancy_bt,2022.2.4,Win32,59.97361161,Chrome,1368,912,,,l,0.6976,10,591,2,1,2,14,4,1,0,1,0,0,0,0,1,0,circle,hexagon,,,,,,,,,,,,,,,,,,,,,,,,,,,,,,,,,,,,,,,,,,,,,,,,,,,,,,
294673,2022-12-05_18h53.38.071,vts_reward_expectancy_bt,2022.2.4,Win32,59.97361161,Chrome,1368,912,,,a,0.6569,1,592,2,1,3,15,7,1,0,0,1,0,0,1,0,0,hexagon,circle,,,,,,,,,,,,,,,,,,,,,,,,,,,,,,,,,,,,,,,,,,,,,,,,,,,,,,
294673,2022-12-05_18h53.38.071,vts_reward_expectancy_bt,2022.2.4,Win32,59.97361161,Chrome,1368,912,,,a,6.1365,10,602,2,1,4,16,1,1,1,0,0,0,0,0,1,0,triangle,hexagon,,,,,,,,,,,,,,,,,,,,,,,,,,,,,,,,,,,,,,,,,,,,,,,,,,,,,,
294673,2022-12-05_18h53.38.071,vts_reward_expectancy_bt,2022.2.4,Win32,59.97361161,Chrome,1368,912,,,l,0.4762,10,612,2,1,5,17,11,1,0,0,0,1,0,0,1,0,star,hexagon,,,,,,,,,,,,,,,,,,,,,,,,,,,,,,,,,,,,,,,,,,,,,,,,,,,,,,
294673,2022-12-05_18h53.38.071,vts_reward_expectancy_bt,2022.2.4,Win32,59.97361161,Chrome,1368,912,,,a,0.6022,10,622,2,1,6,18,2,1,1,0,0,0,0,0,0,1,triangle,star,,,,,,,,,,,,,,,,,,,,,,,,,,,,,,,,,,,,,,,,,,,,,,,,,,,,,,
294673,2022-12-05_18h53.38.071,vts_reward_expectancy_bt,2022.2.4,Win32,59.97361161,Chrome,1368,912,,,l,0.5519,10,632,2,1,7,19,6,1,0,0,1,0,1,0,0,0,hexagon,triangle,,,,,,,,,,,,,,,,,,,,,,,,,,,,,,,,,,,,,,,,,,,,,,,,,,,,,,
294673,2022-12-05_18h53.38.071,vts_reward_expectancy_bt,2022.2.4,Win32,59.97361161,Chrome,1368,912,,,l,0.8836,1,633,2,1,8,20,10,1,0,0,0,1,0,1,0,0,star ,circle,,,,,,,,,,,,,,,,,,,,,,,,,,,,,,,,,,,,,,,,,,,,,,,,,,,,,,
294673,2022-12-05_18h53.38.071,vts_reward_expectancy_bt,2022.2.4,Win32,59.97361161,Chrome,1368,912,,,a,0.8408,10,643,2,1,9,21,0,1,1,0,0,0,0,1,0,0,triangle,circle,,,,,,,,,,,,,,,,,,,,,,,,,,,,,,,,,,,,,,,,,,,,,,,,,,,,,,
294673,2022-12-05_18h53.38.071,vts_reward_expectancy_bt,2022.2.4,Win32,59.97361161,Chrome,1368,912,,,a,1.1343,10,653,2,1,10,22,8,1,0,0,1,0,0,0,0,1,hexagon,star,,,,,,,,,,,,,,,,,,,,,,,,,,,,,,,,,,,,,,,,,,,,,,,,,,,,,,
294673,2022-12-05_18h53.38.071,vts_reward_expectancy_bt,2022.2.4,Win32,59.97361161,Chrome,1368,912,,,l,0.6234,10,663,2,1,11,23,3,1,0,1,0,0,1,0,0,0,circle,triangle,,,,,,,,,,,,,,,,,,,,,,,,,,,,,,,,,,,,,,,,,,,,,,,,,,,,,,
294673,2022-12-05_18h53.38.071,vts_reward_expectancy_bt,2022.2.4,Win32,59.97361161,Chrome,1368,912,,,a,1.0029,1,664,2,2,0,24,5,1,0,1,0,0,0,0,0,1,circle,star,,,,,,,,,,,,,,,,,,,,,,,,,,,,,,,,,,,,,,,,,,,,,,,,,,,,,,
294673,2022-12-05_18h53.38.071,vts_reward_expectancy_bt,2022.2.4,Win32,59.97361161,Chrome,1368,912,,,a,0.7649,10,674,2,2,1,25,7,1,0,0,1,0,0,1,0,0,hexagon,circle,,,,,,,,,,,,,,,,,,,,,,,,,,,,,,,,,,,,,,,,,,,,,,,,,,,,,,
294673,2022-12-05_18h53.38.071,vts_reward_expectancy_bt,2022.2.4,Win32,59.97361161,Chrome,1368,912,,,l,0.5286,10,684,2,2,2,26,4,1,0,1,0,0,0,0,1,0,circle,hexagon,,,,,,,,,,,,,,,,,,,,,,,,,,,,,,,,,,,,,,,,,,,,,,,,,,,,,,
294673,2022-12-05_18h53.38.071,vts_reward_expectancy_bt,2022.2.4,Win32,59.97361161,Chrome,1368,912,,,l,0.6827,1,685,2,2,3,27,10,1,0,0,0,1,0,1,0,0,star ,circle,,,,,,,,,,,,,,,,,,,,,,,,,,,,,,,,,,,,,,,,,,,,,,,,,,,,,,
294673,2022-12-05_18h53.38.071,vts_reward_expectancy_bt,2022.2.4,Win32,59.97361161,Chrome,1368,912,,,l,0.6669,1,686,2,2,4,28,2,1,1,0,0,0,0,0,0,1,triangle,star,,,,,,,,,,,,,,,,,,,,,,,,,,,,,,,,,,,,,,,,,,,,,,,,,,,,,,
294673,2022-12-05_18h53.38.071,vts_reward_expectancy_bt,2022.2.4,Win32,59.97361161,Chrome,1368,912,,,a,0.7062,10,696,2,2,5,29,1,1,1,0,0,0,0,0,1,0,triangle,hexagon,,,,,,,,,,,,,,,,,,,,,,,,,,,,,,,,,,,,,,,,,,,,,,,,,,,,,,
294673,2022-12-05_18h53.38.071,vts_reward_expectancy_bt,2022.2.4,Win32,59.97361161,Chrome,1368,912,,,a,0.6353,10,706,2,2,6,30,0,1,1,0,0,0,0,1,0,0,triangle,circle,,,,,,,,,,,,,,,,,,,,,,,,,,,,,,,,,,,,,,,,,,,,,,,,,,,,,,
294673,2022-12-05_18h53.38.071,vts_reward_expectancy_bt,2022.2.4,Win32,59.97361161,Chrome,1368,912,,,l,0.5312,1,707,2,2,7,31,11,1,0,0,0,1,0,0,1,0,star,hexagon,,,,,,,,,,,,,,,,,,,,,,,,,,,,,,,,,,,,,,,,,,,,,,,,,,,,,,
294673,2022-12-05_18h53.38.071,vts_reward_expectancy_bt,2022.2.4,Win32,59.97361161,Chrome,1368,912,,,a,0.6593,1,708,2,2,8,32,3,1,0,1,0,0,1,0,0,0,circle,triangle,,,,,,,,,,,,,,,,,,,,,,,,,,,,,,,,,,,,,,,,,,,,,,,,,,,,,,
294673,2022-12-05_18h53.38.071,vts_reward_expectancy_bt,2022.2.4,Win32,59.97361161,Chrome,1368,912,,,a,0.5697,10,718,2,2,9,33,8,1,0,0,1,0,0,0,0,1,hexagon,star,,,,,,,,,,,,,,,,,,,,,,,,,,,,,,,,,,,,,,,,,,,,,,,,,,,,,,
294673,2022-12-05_18h53.38.071,vts_reward_expectancy_bt,2022.2.4,Win32,59.97361161,Chrome,1368,912,,,l,0.6839,10,728,2,2,10,34,6,1,0,0,1,0,1,0,0,0,hexagon,triangle,,,,,,,,,,,,,,,,,,,,,,,,,,,,,,,,,,,,,,,,,,,,,,,,,,,,,,
294673,2022-12-05_18h53.38.071,vts_reward_expectancy_bt,2022.2.4,Win32,59.97361161,Chrome,1368,912,,,l,0.6148,10,738,2,2,11,35,9,1,0,0,0,1,1,0,0,0,star,triangle,,,,,,,,,,,,,,,,,,,,,,,,,,,,,,,,,,,,,,,,,,,,,,,,,,,,,,
294673,2022-12-05_18h53.38.071,vts_reward_expectancy_bt,2022.2.4,Win32,59.97361161,Chrome,1368,912,,,,,,,,,,,,,,,,,,,,,,,139,W,triangle,0,0,,0,0,0,0,0,1,,,,,,,,,,,,,,,,,,,,,,,,,,,,,,,,,,,,,,,,,,
294673,2022-12-05_18h53.38.071,vts_reward_expectancy_bt,2022.2.4,Win32,59.97361161,Chrome,1368,912,,,,,,,,,,,,,,,,,,,,,,,167,H,hexagon,1,1,f,0,1,0,1,0,1,1.1343,,,,,,,,,,,,,,,,,,,,,,,,,,,,,,,,,,,,,,,,,
294673,2022-12-05_18h53.38.071,vts_reward_expectancy_bt,2022.2.4,Win32,59.97361161,Chrome,1368,912,,,,,,,,,,,,,,,,,,,,,,,132,Y,star,1,0,d,0,2,0,2,0,1,0.6318,,,,,,,,,,,,,,,,,,,,,,,,,,,,,,,,,,,,,,,,,
294673,2022-12-05_18h53.38.071,vts_reward_expectancy_bt,2022.2.4,Win32,59.97361161,Chrome,1368,912,,,,,,,,,,,,,,,,,,,,,,,125,U,circle,1,0,d,0,3,0,3,0,1,0.8515,,,,,,,,,,,,,,,,,,,,,,,,,,,,,,,,,,,,,,,,,
294673,2022-12-05_18h53.38.071,vts_reward_expectancy_bt,2022.2.4,Win32,59.97361161,Chrome,1368,912,,,,,,,,,,,,,,,,,,,,,,,181,D,triangle,1,0,f,0,4,0,4,0,1,0.7822,,,,,,,,,,,,,,,,,,,,,,,,,,,,,,,,,,,,,,,,,
294673,2022-12-05_18h53.38.071,vts_reward_expectancy_bt,2022.2.4,Win32,59.97361161,Chrome,1368,912,,,,,,,,,,,,,,,,,,,,,,,174,S,hexagon,1,0,f,0,5,0,5,0,1,0.6704,,,,,,,,,,,,,,,,,,,,,,,,,,,,,,,,,,,,,,,,,
294673,2022-12-05_18h53.38.071,vts_reward_expectancy_bt,2022.2.4,Win32,59.97361161,Chrome,1368,912,,,,,,,,,,,,,,,,,,,,,,,146,F,star,1,0,d,0,6,0,6,0,1,0.823,,,,,,,,,,,,,,,,,,,,,,,,,,,,,,,,,,,,,,,,,
294673,2022-12-05_18h53.38.071,vts_reward_expectancy_bt,2022.2.4,Win32,59.97361161,Chrome,1368,912,,,,,,,,,,,,,,,,,,,,,,,160,B,circle,1,0,f,0,7,0,7,0,1,0.9217,,,,,,,,,,,,,,,,,,,,,,,,,,,,,,,,,,,,,,,,,
294673,2022-12-05_18h53.38.071,vts_reward_expectancy_bt,2022.2.4,Win32,59.97361161,Chrome,1368,912,,,,,,,,,,,,,,,,,,,,,,,139,W,triangle,1,0,d,0,8,0,8,0,1,0.6194,,,,,,,,,,,,,,,,,,,,,,,,,,,,,,,,,,,,,,,,,
294673,2022-12-05_18h53.38.071,vts_reward_expectancy_bt,2022.2.4,Win32,59.97361161,Chrome,1368,912,,,,,,,,,,,,,,,,,,,,,,,167,H,hexagon,1,0,f,0,9,0,9,0,1,0.6709,,,,,,,,,,,,,,,,,,,,,,,,,,,,,,,,,,,,,,,,,
294673,2022-12-05_18h53.38.071,vts_reward_expectancy_bt,2022.2.4,Win32,59.97361161,Chrome,1368,912,,,,,,,,,,,,,,,,,,,,,,,174,Y,circle,1,0,,1,,,,,,,k,1.161,0,0,0,0,1,,,,,,,,,,,,,,,,,,,,,,,,,,,,,,,,,,
294673,2022-12-05_18h53.38.071,vts_reward_expectancy_bt,2022.2.4,Win32,59.97361161,Chrome,1368,912,,,,,,,,,,,,,,,,,,,,,,,160,F,triangle,1,0,,1,,,,,,,j,1.3916,1,0,1,0,1,,,,,,,,,,,,,,,,,,,,,,,,,,,,,,,,,,
294673,2022-12-05_18h53.38.071,vts_reward_expectancy_bt,2022.2.4,Win32,59.97361161,Chrome,1368,912,,,,,,,,,,,,,,,,,,,,,,,139,W,star,1,0,,1,,,,,,,k,0.7592,2,0,2,0,1,,,,,,,,,,,,,,,,,,,,,,,,,,,,,,,,,,
294673,2022-12-05_18h53.38.071,vts_reward_expectancy_bt,2022.2.4,Win32,59.97361161,Chrome,1368,912,,,,,,,,,,,,,,,,,,,,,,,181,B,hexagon,1,0,,1,,,,,,,j,0.542,3,0,3,0,1,,,,,,,,,,,,,,,,,,,,,,,,,,,,,,,,,,
294673,2022-12-05_18h53.38.071,vts_reward_expectancy_bt,2022.2.4,Win32,59.97361161,Chrome,1368,912,,,,,,,,,,,,,,,,,,,,,,,167,H,circle,1,0,,1,,,,,,,j,0.7077,4,0,4,0,1,,,,,,,,,,,,,,,,,,,,,,,,,,,,,,,,,,
294673,2022-12-05_18h53.38.071,vts_reward_expectancy_bt,2022.2.4,Win32,59.97361161,Chrome,1368,912,,,,,,,,,,,,,,,,,,,,,,,125,D,triangle,1,0,,1,,,,,,,j,0.625,5,0,5,0,1,,,,,,,,,,,,,,,,,,,,,,,,,,,,,,,,,,
294673,2022-12-05_18h53.38.071,vts_reward_expectancy_bt,2022.2.4,Win32,59.97361161,Chrome,1368,912,,,,,,,,,,,,,,,,,,,,,,,146,U,star,1,0,,1,,,,,,,k,0.671,6,0,6,0,1,,,,,,,,,,,,,,,,,,,,,,,,,,,,,,,,,,
294673,2022-12-05_18h53.38.071,vts_reward_expectancy_bt,2022.2.4,Win32,59.97361161,Chrome,1368,912,,,,,,,,,,,,,,,,,,,,,,,132,S,hexagon,1,0,,1,,,,,,,k,0.8749,7,0,7,0,1,,,,,,,,,,,,,,,,,,,,,,,,,,,,,,,,,,
294673,2022-12-05_18h53.38.071,vts_reward_expectancy_bt,2022.2.4,Win32,59.97361161,Chrome,1368,912,,,,,,,,,,,,,,,,,,,,,,,174,Y,triangle,1,0,,1,,,,,,,k,0.7412,8,0,8,0,1,,,,,,,,,,,,,,,,,,,,,,,,,,,,,,,,,,
294673,2022-12-05_18h53.38.071,vts_reward_expectancy_bt,2022.2.4,Win32,59.97361161,Chrome,1368,912,,,,,,,,,,,,,,,,,,,,,,,160,F,circle,1,0,,1,,,,,,,j,0.5684,9,0,9,0,1,,,,,,,,,,,,,,,,,,,,,,,,,,,,,,,,,,
294673,2022-12-05_18h53.38.071,vts_reward_expectancy_bt,2022.2.4,Win32,59.97361161,Chrome,1368,912,,,,,0,738,,,,,,,,,,,,,,,,,132,D,hexagon,1,0,,2,,,,,,,,,,,,,,-1,number,NA,d,1.1338,vtsPrac,0,0,0,0,1,,,,,,,,,,,,,,,,,,,,,,,
294673,2022-12-05_18h53.38.071,vts_reward_expectancy_bt,2022.2.4,Win32,59.97361161,Chrome,1368,912,,,,,0,738,,,,,,,,,,,,,,,,,167,Y,star,1,0,,2,,,,,,,,,,,,,,repeat,number,numRpt,f,0.8351,vtsPrac,1,0,1,0,1,,,,,,,,,,,,,,,,,,,,,,,
294673,2022-12-05_18h53.38.071,vts_reward_expectancy_bt,2022.2.4,Win32,59.97361161,Chrome,1368,912,,,,,0,738,,,,,,,,,,,,,,,,,174,U,hexagon,1,0,,2,,,,,,,,,,,,,,switch,letter,lettSwt,k,0.8582,vtsPrac,2,0,2,0,1,,,,,,,,,,,,,,,,,,,,,,,
294673,2022-12-05_18h53.38.071,vts_reward_expectancy_bt,2022.2.4,Win32,59.97361161,Chrome,1368,912,,,,,0,738,,,,,,,,,,,,,,,,,125,B,star,1,0,,2,,,,,,,,,,,,,,repeat,letter,lettRpt,j,1.1233,vtsPrac,3,0,3,0,1,,,,,,,,,,,,,,,,,,,,,,,
294673,2022-12-05_18h53.38.071,vts_reward_expectancy_bt,2022.2.4,Win32,59.97361161,Chrome,1368,912,,,,,0,738,,,,,,,,,,,,,,,,,132,D,triangle,1,0,,2,,,,,,,,,,,,,,repeat,letter,lettRpt,j,0.7889,vtsPrac,4,0,4,0,1,,,,,,,,,,,,,,,,,,,,,,,
294673,2022-12-05_18h53.38.071,vts_reward_expectancy_bt,2022.2.4,Win32,59.97361161,Chrome,1368,912,,,,,0,738,,,,,,,,,,,,,,,,,167,Y,circle,1,0,,2,,,,,,,,,,,,,,switch,number,numSwt,f,0.6078,vtsPrac,5,0,5,0,1,,,,,,,,,,,,,,,,,,,,,,,
294673,2022-12-05_18h53.38.071,vts_reward_expectancy_bt,2022.2.4,Win32,59.97361161,Chrome,1368,912,,,,,0,738,,,,,,,,,,,,,,,,,174,U,star,1,0,,2,,,,,,,,,,,,,,switch,letter,lettSwt,k,1.1089,vtsPrac,6,0,6,0,1,,,,,,,,,,,,,,,,,,,,,,,
294673,2022-12-05_18h53.38.071,vts_reward_expectancy_bt,2022.2.4,Win32,59.97361161,Chrome,1368,912,,,,,0,738,,,,,,,,,,,,,,,,,125,B,hexagon,1,0,,2,,,,,,,,,,,,,,switch,number,numSwt,d,0.9556,vtsPrac,7,0,7,0,1,,,,,,,,,,,,,,,,,,,,,,,
294673,2022-12-05_18h53.38.071,vts_reward_expectancy_bt,2022.2.4,Win32,59.97361161,Chrome,1368,912,,,,,0,738,,,,,,,,,,,,,,,,,181,B,circle,1,0,,2,,,,,,,,,,,,,,repeat,number,numRpt,f,0.6302,vtsPrac,8,0,8,0,1,,,,,,,,,,,,,,,,,,,,,,,
294673,2022-12-05_18h53.38.071,vts_reward_expectancy_bt,2022.2.4,Win32,59.97361161,Chrome,1368,912,,,,,0,738,,,,,,,,,,,,,,,,,139,D,triangle,1,0,,2,,,,,,,,,,,,,,repeat,number,numRpt,d,1.7137,vtsPrac,9,0,9,0,1,,,,,,,,,,,,,,,,,,,,,,,
294673,2022-12-05_18h53.38.071,vts_reward_expectancy_bt,2022.2.4,Win32,59.97361161,Chrome,1368,912,,,,,0,738,,,,,,,,,,,,,,,,,132,S,triangle,1,0,,2,,,,,,,,,,,,,,switch,letter,lettSwt,k,1.3725,vtsPrac,10,0,10,0,1,,,,,,,,,,,,,,,,,,,,,,,
294673,2022-12-05_18h53.38.071,vts_reward_expectancy_bt,2022.2.4,Win32,59.97361161,Chrome,1368,912,,,,,0,738,,,,,,,,,,,,,,,,,125,F,hexagon,1,0,,2,,,,,,,,,,,,,,repeat,letter,lettRpt,j,0.8519,vtsPrac,11,0,11,0,1,,,,,,,,,,,,,,,,,,,,,,,
294673,2022-12-05_18h53.38.071,vts_reward_expectancy_bt,2022.2.4,Win32,59.97361161,Chrome,1368,912,,,,,0,738,,,,,,,,,,,,,,,,,181,Y,triangle,1,0,,2,,,,,,,,,,,,,,switch,number,numSwt,f,0.6561,vtsPrac,12,0,12,0,1,,,,,,,,,,,,,,,,,,,,,,,
294673,2022-12-05_18h53.38.071,vts_reward_expectancy_bt,2022.2.4,Win32,59.97361161,Chrome,1368,912,,,,,0,738,,,,,,,,,,,,,,,,,160,F,hexagon,1,0,,2,,,,,,,,,,,,,,repeat,number,numRpt,f,0.9528,vtsPrac,13,0,13,0,1,,,,,,,,,,,,,,,,,,,,,,,
294673,2022-12-05_18h53.38.071,vts_reward_expectancy_bt,2022.2.4,Win32,59.97361161,Chrome,1368,912,,,,,0,738,,,,,,,,,,,,,,,,,125,H,triangle,1,0,,2,,,,,,,,,,,,,,switch,letter,lettSwt,j,1.1839,vtsPrac,14,0,14,0,1,,,,,,,,,,,,,,,,,,,,,,,
294673,2022-12-05_18h53.38.071,vts_reward_expectancy_bt,2022.2.4,Win32,59.97361161,Chrome,1368,912,,,,,0,738,,,,,,,,,,,,,,,,,132,S,circle,1,0,,2,,,,,,,,,,,,,,switch,number,numSwt,d,0.9398,vtsPrac,15,0,15,0,1,,,,,,,,,,,,,,,,,,,,,,,
294673,2022-12-05_18h53.38.071,vts_reward_expectancy_bt,2022.2.4,Win32,59.97361161,Chrome,1368,912,,,,,0,738,,,,,,,,,,,,,,,,,139,S,star,1,0,,2,,,,,,,,,,,,,,repeat,number,numRpt,d,0.8664,vtsPrac,16,0,16,0,1,,,,,,,,,,,,,,,,,,,,,,,
294673,2022-12-05_18h53.38.071,vts_reward_expectancy_bt,2022.2.4,Win32,59.97361161,Chrome,1368,912,,,,,0,738,,,,,,,,,,,,,,,,,146,B,hexagon,1,0,,2,,,,,,,,,,,,,,switch,letter,lettSwt,j,0.8307,vtsPrac,17,0,17,0,1,,,,,,,,,,,,,,,,,,,,,,,
294673,2022-12-05_18h53.38.071,vts_reward_expectancy_bt,2022.2.4,Win32,59.97361161,Chrome,1368,912,,,,,0,738,,,,,,,,,,,,,,,,,167,U,star,1,0,,2,,,,,,,,,,,,,,switch,number,numSwt,f,1.4016,vtsPrac,18,0,18,0,1,,,,,,,,,,,,,,,,,,,,,,,
294673,2022-12-05_18h53.38.071,vts_reward_expectancy_bt,2022.2.4,Win32,59.97361161,Chrome,1368,912,,,,,0,738,,,,,,,,,,,,,,,,,174,H,triangle,1,0,,2,,,,,,,,,,,,,,repeat,number,numRpt,f,1.353,vtsPrac,19,0,19,0,1,,,,,,,,,,,,,,,,,,,,,,,
294673,2022-12-05_18h53.38.071,vts_reward_expectancy_bt,2022.2.4,Win32,59.97361161,Chrome,1368,912,,,,,0,738,,,,,,,,,,,,,,,,,125,H,circle,1,0,,2,,,,,,,,,,,,,,switch,letter,lettSwt,j,1.2159,vtsPrac,20,0,20,0,1,,,,,,,,,,,,,,,,,,,,,,,
294673,2022-12-05_18h53.38.071,vts_reward_expectancy_bt,2022.2.4,Win32,59.97361161,Chrome,1368,912,,,,,0,738,,,,,,,,,,,,,,,,,181,U,hexagon,1,0,,2,,,,,,,,,,,,,,repeat,letter,lettRpt,k,0.8769,vtsPrac,21,0,21,0,1,,,,,,,,,,,,,,,,,,,,,,,
294673,2022-12-05_18h53.38.071,vts_reward_expectancy_bt,2022.2.4,Win32,59.97361161,Chrome,1368,912,,,,,0,738,,,,,,,,,,,,,,,,,139,W,circle,1,0,,2,,,,,,,,,,,,,,switch,number,numSwt,d,0.7209,vtsPrac,22,0,22,0,1,,,,,,,,,,,,,,,,,,,,,,,
294673,2022-12-05_18h53.38.071,vts_reward_expectancy_bt,2022.2.4,Win32,59.97361161,Chrome,1368,912,,,,,0,738,,,,,,,,,,,,,,,,,160,F,triangle,1,0,,2,,,,,,,,,,,,,,switch,letter,lettSwt,j,0.8088,vtsPrac,23,0,23,0,1,,,,,,,,,,,,,,,,,,,,,,,
294673,2022-12-05_18h53.38.071,vts_reward_expectancy_bt,2022.2.4,Win32,59.97361161,Chrome,1368,912,,,,,0,738,,,,,,,,,,,,,,,,,125,U,star,1,0,,2,,,,,,,,,,,,,,switch,number,numSwt,d,0.843,vtsPrac,24,0,24,0,1,,,,,,,,,,,,,,,,,,,,,,,
294673,2022-12-05_18h53.38.071,vts_reward_expectancy_bt,2022.2.4,Win32,59.97361161,Chrome,1368,912,,,,,0,738,,,,,,,,,,,,,,,,,181,H,hexagon,1,0,,2,,,,,,,,,,,,,,repeat,number,numRpt,f,0.7357,vtsPrac,25,0,25,0,1,,,,,,,,,,,,,,,,,,,,,,,
294673,2022-12-05_18h53.38.071,vts_reward_expectancy_bt,2022.2.4,Win32,59.97361161,Chrome,1368,912,,,,,0,738,,,,,,,,,,,,,,,,,132,W,circle,1,0,,2,,,,,,,,,,,,,,switch,letter,lettSwt,k,0.6418,vtsPrac,26,0,26,0,1,,,,,,,,,,,,,,,,,,,,,,,
294673,2022-12-05_18h53.38.071,vts_reward_expectancy_bt,2022.2.4,Win32,59.97361161,Chrome,1368,912,,,,,0,738,,,,,,,,,,,,,,,,,174,D,triangle,1,0,,2,,,,,,,,,,,,,,switch,number,numSwt,f,0.9661,vtsPrac,27,0,27,0,1,,,,,,,,,,,,,,,,,,,,,,,
294673,2022-12-05_18h53.38.071,vts_reward_expectancy_bt,2022.2.4,Win32,59.97361161,Chrome,1368,912,,,,,0,738,,,,,,,,,,,,,,,,,174,U,triangle,1,0,,2,,,,,,,,,,,,,,switch,letter,lettSwt,k,0.8481,vtsPrac,28,0,28,0,1,,,,,,,,,,,,,,,,,,,,,,,
294673,2022-12-05_18h53.38.071,vts_reward_expectancy_bt,2022.2.4,Win32,59.97361161,Chrome,1368,912,,,,,0,738,,,,,,,,,,,,,,,,,139,D,circle,1,0,,2,,,,,,,,,,,,,,switch,number,numSwt,d,0.7851,vtsPrac,29,0,29,0,1,,,,,,,,,,,,,,,,,,,,,,,
294673,2022-12-05_18h53.38.071,vts_reward_expectancy_bt,2022.2.4,Win32,59.97361161,Chrome,1368,912,,,,,0,738,,,,,,,,,,,,,,,,,125,W,star,1,0,,2,,,,,,,,,,,,,,repeat,number,numRpt,d,0.6024,vtsPrac,30,0,30,0,1,,,,,,,,,,,,,,,,,,,,,,,
294673,2022-12-05_18h53.38.071,vts_reward_expectancy_bt,2022.2.4,Win32,59.97361161,Chrome,1368,912,,,,,0,738,,,,,,,,,,,,,,,,,146,H,hexagon,1,0,,2,,,,,,,,,,,,,,switch,letter,lettSwt,j,0.9113,vtsPrac,31,0,31,0,1,,,,,,,,,,,,,,,,,,,,,,,
294673,2022-12-05_18h53.38.071,vts_reward_expectancy_bt,2022.2.4,Win32,59.97361161,Chrome,1368,912,,,,,,,,,,,,,,,,,,,,,,,,,,,,,,,,,,,,,,,,,,,,,,,,,,,,,,,,,,,,,,,,,,,,,,,,,,,,
294673,2022-12-05_18h53.38.071,vts_reward_expectancy_bt,2022.2.4,Win32,59.97361161,Chrome,1368,912,,,,,,,,,,,,,,,,,,,,,,,,,,,,,,,,,,,,,,,,,,,,,,,,,,,,,,,,,,,,,,,,,,,,,,,,,,,,
294673,2022-12-05_18h53.38.071,vts_reward_expectancy_bt,2022.2.4,Win32,59.97361161,Chrome,1368,912,,,,,0,738,,,,,,,,,,,,,,,,,139,Y,circle,1,0,,,,,,,,,,,,,,,,switch,number,numSwt,d,0.8708,noRew,,,,,,0,0,0,0,0,1,,,,,,,,,,,,,,,,,
294673,2022-12-05_18h53.38.071,vts_reward_expectancy_bt,2022.2.4,Win32,59.97361161,Chrome,1368,912,,,,,0,738,,,,,,,,,,,,,,,,,160,S,hexagon,1,0,,,,,,,,,,,,,,,,switch,letter,lettSwt,k,1.3567,noRew,,,,,,0,1,0,1,0,1,,,,,,,,,,,,,,,,,
294673,2022-12-05_18h53.38.071,vts_reward_expectancy_bt,2022.2.4,Win32,59.97361161,Chrome,1368,912,,,,,0,738,,,,,,,,,,,,,,,,,167,B,circle,1,0,,,,,,,,,,,,,,,,switch,number,numSwt,f,1.1073,noRew,,,,,,0,2,0,2,0,1,,,,,,,,,,,,,,,,,
294673,2022-12-05_18h53.38.071,vts_reward_expectancy_bt,2022.2.4,Win32,59.97361161,Chrome,1368,912,,,,,0,738,,,,,,,,,,,,,,,,,125,H,hexagon,1,0,,,,,,,,,,,,,,,,switch,letter,lettSwt,j,1.2244,noRew,,,,,,0,3,0,3,0,1,,,,,,,,,,,,,,,,,
294673,2022-12-05_18h53.38.071,vts_reward_expectancy_bt,2022.2.4,Win32,59.97361161,Chrome,1368,912,,,,,0,738,,,,,,,,,,,,,,,,,139,Y,hexagon,1,0,,,,,,,,,,,,,,,,repeat,letter,lettRpt,k,0.9616,noRew,,,,,,0,4,0,4,0,1,,,,,,,,,,,,,,,,,
294673,2022-12-05_18h53.38.071,vts_reward_expectancy_bt,2022.2.4,Win32,59.97361161,Chrome,1368,912,,,,,0,738,,,,,,,,,,,,,,,,,160,S,triangle,1,0,,,,,,,,,,,,,,,,switch,number,numSwt,f,0.7377,noRew,,,,,,0,5,0,5,0,1,,,,,,,,,,,,,,,,,
294673,2022-12-05_18h53.38.071,vts_reward_expectancy_bt,2022.2.4,Win32,59.97361161,Chrome,1368,912,,,,,0,738,,,,,,,,,,,,,,,,,167,B,hexagon,1,0,,,,,,,,,,,,,,,,switch,letter,lettSwt,j,1.0396,noRew,,,,,,0,6,0,6,0,1,,,,,,,,,,,,,,,,,
294673,2022-12-05_18h53.38.071,vts_reward_expectancy_bt,2022.2.4,Win32,59.97361161,Chrome,1368,912,,,,,0,738,,,,,,,,,,,,,,,,,125,H,star,1,0,,,,,,,,,,,,,,,,switch,number,numSwt,d,0.8746,noRew,,,,,,0,7,0,7,0,1,,,,,,,,,,,,,,,,,
294673,2022-12-05_18h53.38.071,vts_reward_expectancy_bt,2022.2.4,Win32,59.97361161,Chrome,1368,912,,,,,0,738,,,,,,,,,,,,,,,,,132,F,circle,1,0,,,,,,,,,,,,,,,,repeat,number,numRpt,d,0.6588,noRew,,,,,,0,8,0,8,0,1,,,,,,,,,,,,,,,,,
294673,2022-12-05_18h53.38.071,vts_reward_expectancy_bt,2022.2.4,Win32,59.97361161,Chrome,1368,912,,,,,0,738,,,,,,,,,,,,,,,,,146,S,star,1,0,,,,,,,,,,,,,,,,switch,letter,lettSwt,k,1.475,noRew,,,,,,0,9,0,9,0,1,,,,,,,,,,,,,,,,,
294673,2022-12-05_18h53.38.071,vts_reward_expectancy_bt,2022.2.4,Win32,59.97361161,Chrome,1368,912,,,,,0,738,,,,,,,,,,,,,,,,,181,W,hexagon,1,0,,,,,,,,,,,,,,,,switch,number,numSwt,f,0.9107,noRew,,,,,,0,10,0,10,0,1,,,,,,,,,,,,,,,,,
294673,2022-12-05_18h53.38.071,vts_reward_expectancy_bt,2022.2.4,Win32,59.97361161,Chrome,1368,912,,,,,0,738,,,,,,,,,,,,,,,,,160,U,star,1,0,,,,,,,,,,,,,,,,switch,letter,lettSwt,k,0.6535,noRew,,,,,,0,11,0,11,0,1,,,,,,,,,,,,,,,,,
294673,2022-12-05_18h53.38.071,vts_reward_expectancy_bt,2022.2.4,Win32,59.97361161,Chrome,1368,912,,,,,0,738,,,,,,,,,,,,,,,,,181,W,circle,1,0,,,,,,,,,,,,,,,,repeat,letter,lettRpt,k,0.7091,noRew,,,,,,0,12,0,12,0,1,,,,,,,,,,,,,,,,,
294673,2022-12-05_18h53.38.071,vts_reward_expectancy_bt,2022.2.4,Win32,59.97361161,Chrome,1368,912,,,,,0,738,,,,,,,,,,,,,,,,,139,H,triangle,1,0,,,,,,,,,,,,,,,,switch,number,numSwt,d,1.21,noRew,,,,,,0,13,0,13,0,1,,,,,,,,,,,,,,,,,
294673,2022-12-05_18h53.38.071,vts_reward_expectancy_bt,2022.2.4,Win32,59.97361161,Chrome,1368,912,,,,,0,738,,,,,,,,,,,,,,,,,125,F,triangle,1,0,,,,,,,,,,,,,,,,switch,letter,lettSwt,j,0.8354,noRew,,,,,,0,14,0,14,0,1,,,,,,,,,,,,,,,,,
294673,2022-12-05_18h53.38.071,vts_reward_expectancy_bt,2022.2.4,Win32,59.97361161,Chrome,1368,912,,,,,0,738,,,,,,,,,,,,,,,,,167,U,hexagon,1,0,,,,,,,,,,,,,,,,switch,number,numSwt,f,0.6935,noRew,,,,,,0,15,0,15,0,1,,,,,,,,,,,,,,,,,
294673,2022-12-05_18h53.38.071,vts_reward_expectancy_bt,2022.2.4,Win32,59.97361161,Chrome,1368,912,,,,,0,738,,,,,,,,,,,,,,,,,181,W,triangle,1,0,,,,,,,,,,,,,,,,repeat,number,numRpt,f,0.9079,noRew,,,,,,0,16,0,16,0,1,,,,,,,,,,,,,,,,,
294673,2022-12-05_18h53.38.071,vts_reward_expectancy_bt,2022.2.4,Win32,59.97361161,Chrome,1368,912,,,,,0,738,,,,,,,,,,,,,,,,,174,H,circle,1,0,,,,,,,,,,,,,,,,switch,letter,lettSwt,j,0.8834,noRew,,,,,,0,17,0,17,0,1,,,,,,,,,,,,,,,,,
294673,2022-12-05_18h53.38.071,vts_reward_expectancy_bt,2022.2.4,Win32,59.97361161,Chrome,1368,912,,,,,0,738,,,,,,,,,,,,,,,,,132,Y,star,1,0,,,,,,,,,,,,,,,,repeat,letter,lettRpt,k,0.9427,noRew,,,,,,0,18,0,18,0,1,,,,,,,,,,,,,,,,,
294673,2022-12-05_18h53.38.071,vts_reward_expectancy_bt,2022.2.4,Win32,59.97361161,Chrome,1368,912,,,,,0,738,,,,,,,,,,,,,,,,,167,D,hexagon,1,0,,,,,,,,,,,,,,,,repeat,letter,lettRpt,j,1.0991,noRew,,,,,,0,19,0,19,0,1,,,,,,,,,,,,,,,,,
294673,2022-12-05_18h53.38.071,vts_reward_expectancy_bt,2022.2.4,Win32,59.97361161,Chrome,1368,912,,,,,0,738,,,,,,,,,,,,,,,,,181,U,star,1,0,,,,,,,,,,,,,,,,switch,number,numSwt,f,1.4109,noRew,,,,,,0,20,0,20,0,1,,,,,,,,,,,,,,,,,
294673,2022-12-05_18h53.38.071,vts_reward_expectancy_bt,2022.2.4,Win32,59.97361161,Chrome,1368,912,,,,,0,738,,,,,,,,,,,,,,,,,146,S,triangle,1,0,,,,,,,,,,,,,,,,repeat,number,numRpt,d,1.1584,noRew,,,,,,0,21,0,21,0,1,,,,,,,,,,,,,,,,,
294673,2022-12-05_18h53.38.071,vts_reward_expectancy_bt,2022.2.4,Win32,59.97361161,Chrome,1368,912,,,,,0,738,,,,,,,,,,,,,,,,,167,D,star,1,0,,,,,,,,,,,,,,,,switch,letter,lettSwt,j,1.3201,noRew,,,,,,0,22,0,22,0,1,,,,,,,,,,,,,,,,,
294673,2022-12-05_18h53.38.071,vts_reward_expectancy_bt,2022.2.4,Win32,59.97361161,Chrome,1368,912,,,,,0,738,,,,,,,,,,,,,,,,,132,H,triangle,1,0,,,,,,,,,,,,,,,,switch,number,numSwt,d,1.2237,noRew,,,,,,0,23,0,23,0,1,,,,,,,,,,,,,,,,,
294673,2022-12-05_18h53.38.071,vts_reward_expectancy_bt,2022.2.4,Win32,59.97361161,Chrome,1368,912,,,,,0,738,,,,,,,,,,,,,,,,,167,S,triangle,1,0,,,,,,,,,,,,,,,,repeat,number,numRpt,f,0.7897,noRew,,,,,,0,24,0,24,0,1,,,,,,,,,,,,,,,,,
294673,2022-12-05_18h53.38.071,vts_reward_expectancy_bt,2022.2.4,Win32,59.97361161,Chrome,1368,912,,,,,0,738,,,,,,,,,,,,,,,,,132,F,hexagon,1,0,,,,,,,,,,,,,,,,switch,letter,lettSwt,j,0.8566,noRew,,,,,,0,25,0,25,0,1,,,,,,,,,,,,,,,,,
294673,2022-12-05_18h53.38.071,vts_reward_expectancy_bt,2022.2.4,Win32,59.97361161,Chrome,1368,912,,,,,0,738,,,,,,,,,,,,,,,,,160,W,triangle,1,0,,,,,,,,,,,,,,,,switch,number,numSwt,f,1.1899,noRew,,,,,,0,26,0,26,0,1,,,,,,,,,,,,,,,,,
294673,2022-12-05_18h53.38.071,vts_reward_expectancy_bt,2022.2.4,Win32,59.97361161,Chrome,1368,912,,,,,0,738,,,,,,,,,,,,,,,,,139,H,star,1,0,,,,,,,,,,,,,,,,repeat,number,numRpt,d,1.569,noRew,,,,,,0,27,0,27,0,1,,,,,,,,,,,,,,,,,
294673,2022-12-05_18h53.38.071,vts_reward_expectancy_bt,2022.2.4,Win32,59.97361161,Chrome,1368,912,,,,,0,738,,,,,,,,,,,,,,,,,174,H,star,1,0,,,,,,,,,,,,,,,,repeat,number,numRpt,f,2.3809,noRew,,,,,,0,28,0,28,0,1,,,,,,,,,,,,,,,,,
294673,2022-12-05_18h53.38.071,vts_reward_expectancy_bt,2022.2.4,Win32,59.97361161,Chrome,1368,912,,,,,0,738,,,,,,,,,,,,,,,,,132,D,hexagon,1,0,,,,,,,,,,,,,,,,switch,letter,lettSwt,j,0.9581,noRew,,,,,,0,29,0,29,0,1,,,,,,,,,,,,,,,,,
294673,2022-12-05_18h53.38.071,vts_reward_expectancy_bt,2022.2.4,Win32,59.97361161,Chrome,1368,912,,,,,0,738,,,,,,,,,,,,,,,,,181,U,hexagon,1,0,,,,,,,,,,,,,,,,repeat,letter,lettRpt,k,0.6594,noRew,,,,,,0,30,0,30,0,1,,,,,,,,,,,,,,,,,
294673,2022-12-05_18h53.38.071,vts_reward_expectancy_bt,2022.2.4,Win32,59.97361161,Chrome,1368,912,,,,,0,738,,,,,,,,,,,,,,,,,167,F,triangle,1,0,,,,,,,,,,,,,,,,switch,number,numSwt,f,0.7505,noRew,,,,,,0,31,0,31,0,1,,,,,,,,,,,,,,,,,
294673,2022-12-05_18h53.38.071,vts_reward_expectancy_bt,2022.2.4,Win32,59.97361161,Chrome,1368,912,,,,,0,738,,,,,,,,,,,,,,,,,167,S,triangle,1,0,,,,,,,,,,,,,,,,switch,letter,lettSwt,k,1.4827,noRew,,,,,,0,32,0,32,0,1,,,,,,,,,,,,,,,,,
294673,2022-12-05_18h53.38.071,vts_reward_expectancy_bt,2022.2.4,Win32,59.97361161,Chrome,1368,912,,,,,0,738,,,,,,,,,,,,,,,,,160,B,circle,1,0,,,,,,,,,,,,,,,,switch,number,numSwt,f,1.0908,noRew,,,,,,0,33,0,33,0,1,,,,,,,,,,,,,,,,,
294673,2022-12-05_18h53.38.071,vts_reward_expectancy_bt,2022.2.4,Win32,59.97361161,Chrome,1368,912,,,,,0,738,,,,,,,,,,,,,,,,,181,Y,circle,1,0,,,,,,,,,,,,,,,,switch,letter,lettSwt,k,0.833,noRew,,,,,,0,34,0,34,0,1,,,,,,,,,,,,,,,,,
294673,2022-12-05_18h53.38.071,vts_reward_expectancy_bt,2022.2.4,Win32,59.97361161,Chrome,1368,912,,,,,0,738,,,,,,,,,,,,,,,,,125,D,star,1,0,,,,,,,,,,,,,,,,switch,number,numSwt,d,1.056,noRew,,,,,,0,35,0,35,0,1,,,,,,,,,,,,,,,,,
294673,2022-12-05_18h53.38.071,vts_reward_expectancy_bt,2022.2.4,Win32,59.97361161,Chrome,1368,912,,,,,0,738,,,,,,,,,,,,,,,,,174,U,star,1,0,,,,,,,,,,,,,,,,switch,letter,lettSwt,k,1.9115,noRew,,,,,,0,36,0,36,0,1,,,,,,,,,,,,,,,,,
294673,2022-12-05_18h53.38.071,vts_reward_expectancy_bt,2022.2.4,Win32,59.97361161,Chrome,1368,912,,,,,0,738,,,,,,,,,,,,,,,,,146,S,circle,1,0,,,,,,,,,,,,,,,,switch,number,numSwt,d,1.2917,noRew,,,,,,0,37,0,37,0,1,,,,,,,,,,,,,,,,,
294673,2022-12-05_18h53.38.071,vts_reward_expectancy_bt,2022.2.4,Win32,59.97361161,Chrome,1368,912,,,,,0,738,,,,,,,,,,,,,,,,,139,D,circle,1,0,,,,,,,,,,,,,,,,repeat,number,numRpt,d,0.993,noRew,,,,,,0,38,0,38,0,1,,,,,,,,,,,,,,,,,
294673,2022-12-05_18h53.38.071,vts_reward_expectancy_bt,2022.2.4,Win32,59.97361161,Chrome,1368,912,,,,,0,738,,,,,,,,,,,,,,,,,167,B,triangle,1,0,,,,,,,,,,,,,,,,switch,letter,lettSwt,j,0.8429,noRew,,,,,,0,39,0,39,0,1,,,,,,,,,,,,,,,,,
294673,2022-12-05_18h53.38.071,vts_reward_expectancy_bt,2022.2.4,Win32,59.97361161,Chrome,1368,912,,,,,0,738,,,,,,,,,,,,,,,,,174,H,hexagon,1,0,,,,,,,,,,,,,,,,repeat,letter,lettRpt,j,0.7903,noRew,,,,,,0,40,0,40,0,1,,,,,,,,,,,,,,,,,
294673,2022-12-05_18h53.38.071,vts_reward_expectancy_bt,2022.2.4,Win32,59.97361161,Chrome,1368,912,,,,,0,738,,,,,,,,,,,,,,,,,132,S,star,1,0,,,,,,,,,,,,,,,,switch,number,numSwt,d,0.7709,noRew,,,,,,0,41,0,41,0,1,,,,,,,,,,,,,,,,,
294673,2022-12-05_18h53.38.071,vts_reward_expectancy_bt,2022.2.4,Win32,59.97361161,Chrome,1368,912,,,,,0,738,,,,,,,,,,,,,,,,,125,W,triangle,1,0,,,,,,,,,,,,,,,,switch,letter,lettSwt,k,0.8202,noRew,,,,,,0,42,0,42,0,1,,,,,,,,,,,,,,,,,
294673,2022-12-05_18h53.38.071,vts_reward_expectancy_bt,2022.2.4,Win32,59.97361161,Chrome,1368,912,,,,,0,738,,,,,,,,,,,,,,,,,160,F,hexagon,1,0,,,,,,,,,,,,,,,,switch,number,numSwt,f,1.2083,noRew,,,,,,0,43,0,43,0,1,,,,,,,,,,,,,,,,,
294673,2022-12-05_18h53.38.071,vts_reward_expectancy_bt,2022.2.4,Win32,59.97361161,Chrome,1368,912,,,,,0,738,,,,,,,,,,,,,,,,,139,F,hexagon,1,0,,,,,,,,,,,,,,,,switch,letter,lettSwt,j,0.8306,noRew,,,,,,0,44,0,44,0,1,,,,,,,,,,,,,,,,,
294673,2022-12-05_18h53.38.071,vts_reward_expectancy_bt,2022.2.4,Win32,59.97361161,Chrome,1368,912,,,,,0,738,,,,,,,,,,,,,,,,,125,Y,circle,1,0,,,,,,,,,,,,,,,,repeat,letter,lettRpt,k,0.7441,noRew,,,,,,0,45,0,45,0,1,,,,,,,,,,,,,,,,,
294673,2022-12-05_18h53.38.071,vts_reward_expectancy_bt,2022.2.4,Win32,59.97361161,Chrome,1368,912,,,,,0,738,,,,,,,,,,,,,,,,,132,B,triangle,1,0,,,,,,,,,,,,,,,,switch,number,numSwt,d,0.7922,noRew,,,,,,0,46,0,46,0,1,,,,,,,,,,,,,,,,,
294673,2022-12-05_18h53.38.071,vts_reward_expectancy_bt,2022.2.4,Win32,59.97361161,Chrome,1368,912,,,,,0,738,,,,,,,,,,,,,,,,,160,H,hexagon,1,0,,,,,,,,,,,,,,,,switch,letter,lettSwt,j,0.9402,noRew,,,,,,0,47,0,47,0,1,,,,,,,,,,,,,,,,,
294673,2022-12-05_18h53.38.071,vts_reward_expectancy_bt,2022.2.4,Win32,59.97361161,Chrome,1368,912,,,,,0,738,,,,,,,,,,,,,,,,,132,F,star,1,0,,,,,,,,,,,,,,,,switch,number,numSwt,d,1.5281,noRew,,,,,,0,48,0,48,0,1,,,,,,,,,,,,,,,,,
294673,2022-12-05_18h53.38.071,vts_reward_expectancy_bt,2022.2.4,Win32,59.97361161,Chrome,1368,912,,,,,0,738,,,,,,,,,,,,,,,,,181,U,circle,1,0,,,,,,,,,,,,,,,,switch,letter,lettSwt,k,0.7565,noRew,,,,,,0,49,0,49,0,1,,,,,,,,,,,,,,,,,
294673,2022-12-05_18h53.38.071,vts_reward_expectancy_bt,2022.2.4,Win32,59.97361161,Chrome,1368,912,,,,,0,738,,,,,,,,,,,,,,,,,146,S,hexagon,1,0,,,,,,,,,,,,,,,,switch,number,numSwt,d,1.3087,noRew,,,,,,0,50,0,50,0,1,,,,,,,,,,,,,,,,,
294673,2022-12-05_18h53.38.071,vts_reward_expectancy_bt,2022.2.4,Win32,59.97361161,Chrome,1368,912,,,,,0,738,,,,,,,,,,,,,,,,,160,D,triangle,1,0,,,,,,,,,,,,,,,,switch,letter,lettSwt,j,1.6435,noRew,,,,,,0,51,0,51,0,1,,,,,,,,,,,,,,,,,
294673,2022-12-05_18h53.38.071,vts_reward_expectancy_bt,2022.2.4,Win32,59.97361161,Chrome,1368,912,,,,,0,738,,,,,,,,,,,,,,,,,160,H,hexagon,1,0,,,,,,,,,,,,,,,,switch,number,numSwt,f,1.631,noRew,,,,,,0,52,0,52,0,1,,,,,,,,,,,,,,,,,
294673,2022-12-05_18h53.38.071,vts_reward_expectancy_bt,2022.2.4,Win32,59.97361161,Chrome,1368,912,,,,,0,738,,,,,,,,,,,,,,,,,132,B,triangle,1,0,,,,,,,,,,,,,,,,repeat,number,numRpt,d,0.9876,noRew,,,,,,0,53,0,53,0,1,,,,,,,,,,,,,,,,,
294673,2022-12-05_18h53.38.071,vts_reward_expectancy_bt,2022.2.4,Win32,59.97361161,Chrome,1368,912,,,,,0,738,,,,,,,,,,,,,,,,,139,Y,hexagon,1,0,,,,,,,,,,,,,,,,repeat,number,numRpt,d,1.2773,noRew,,,,,,0,54,0,54,0,1,,,,,,,,,,,,,,,,,
294673,2022-12-05_18h53.38.071,vts_reward_expectancy_bt,2022.2.4,Win32,59.97361161,Chrome,1368,912,,,,,0,738,,,,,,,,,,,,,,,,,146,W,triangle,1,0,,,,,,,,,,,,,,,,switch,letter,lettSwt,k,0.9942,noRew,,,,,,0,55,0,55,0,1,,,,,,,,,,,,,,,,,
294673,2022-12-05_18h53.38.071,vts_reward_expectancy_bt,2022.2.4,Win32,59.97361161,Chrome,1368,912,,,,,0,738,,,,,,,,,,,,,,,,,132,B,triangle,1,0,,,,,,,,,,,,,,,,switch,number,numSwt,d,1.786,noRew,,,,,,0,56,0,56,0,1,,,,,,,,,,,,,,,,,
294673,2022-12-05_18h53.38.071,vts_reward_expectancy_bt,2022.2.4,Win32,59.97361161,Chrome,1368,912,,,,,0,738,,,,,,,,,,,,,,,,,181,S,hexagon,1,0,,,,,,,,,,,,,,,,switch,letter,lettSwt,k,0.8563,noRew,,,,,,0,57,0,57,0,1,,,,,,,,,,,,,,,,,
294673,2022-12-05_18h53.38.071,vts_reward_expectancy_bt,2022.2.4,Win32,59.97361161,Chrome,1368,912,,,,,0,738,,,,,,,,,,,,,,,,,160,Y,hexagon,1,0,,,,,,,,,,,,,,,,repeat,letter,lettRpt,k,0.9222,noRew,,,,,,0,58,0,58,0,1,,,,,,,,,,,,,,,,,
294673,2022-12-05_18h53.38.071,vts_reward_expectancy_bt,2022.2.4,Win32,59.97361161,Chrome,1368,912,,,,,0,738,,,,,,,,,,,,,,,,,174,W,triangle,1,0,,,,,,,,,,,,,,,,switch,number,numSwt,f,1.0081,noRew,,,,,,0,59,0,59,0,1,,,,,,,,,,,,,,,,,
294673,2022-12-05_18h53.38.071,vts_reward_expectancy_bt,2022.2.4,Win32,59.97361161,Chrome,1368,912,,,,,0,738,,,,,,,,,,,,,,,,,146,W,circle,1,0,,,,,,,,,,,,,,,,switch,letter,lettSwt,k,1.6976,noRew,,,,,,0,60,0,60,0,1,,,,,,,,,,,,,,,,,
294673,2022-12-05_18h53.38.071,vts_reward_expectancy_bt,2022.2.4,Win32,59.97361161,Chrome,1368,912,,,,,0,738,,,,,,,,,,,,,,,,,132,S,hexagon,1,0,,,,,,,,,,,,,,,,switch,number,numSwt,d,0.9755,noRew,,,,,,0,61,0,61,0,1,,,,,,,,,,,,,,,,,
294673,2022-12-05_18h53.38.071,vts_reward_expectancy_bt,2022.2.4,Win32,59.97361161,Chrome,1368,912,,,,,0,738,,,,,,,,,,,,,,,,,181,D,star,1,0,,,,,,,,,,,,,,,,repeat,number,numRpt,f,2.242,noRew,,,,,,0,62,0,62,0,1,,,,,,,,,,,,,,,,,
294673,2022-12-05_18h53.38.071,vts_reward_expectancy_bt,2022.2.4,Win32,59.97361161,Chrome,1368,912,,,,,0,738,,,,,,,,,,,,,,,,,167,F,hexagon,1,0,,,,,,,,,,,,,,,,repeat,number,numRpt,f,1.156,noRew,,,,,,0,63,0,63,0,1,,,,,,,,,,,,,,,,,
294673,2022-12-05_18h53.38.071,vts_reward_expectancy_bt,2022.2.4,Win32,59.97361161,Chrome,1368,912,,,,,,,,,,,,,,,,,,,,,,,,,,,,,,,,,,,,,,,,,,,,,,,,,,,,,,,,,,,,,,,,,,,,,,,,,,,,
294673,2022-12-05_18h53.38.071,vts_reward_expectancy_bt,2022.2.4,Win32,59.97361161,Chrome,1368,912,,,,,0,738,,,,,,,,,,,,,,,,,125,S,hexagon,0,0,,,,,,,,,,,,,,,,switch,letter,NA,j,2.9425,noRew,,,,,,0,,,,,,space,13.576,high,0,0,0,0,1,,,,,,,,,
294673,2022-12-05_18h53.38.071,vts_reward_expectancy_bt,2022.2.4,Win32,59.97361161,Chrome,1368,912,,,,,0,738,,,,,,,,,,,,,,,,,181,W,star,0,1,,,,,,,,,,,,,,,,switch,number,NA,d,2.1954,noRew,,,,,,0,,,,,,,,high,1,0,1,0,1,,,,,,,,,
294673,2022-12-05_18h53.38.071,vts_reward_expectancy_bt,2022.2.4,Win32,59.97361161,Chrome,1368,912,,,,,0,738,,,,,,,,,,,,,,,,,174,U,triangle,1,1,,,,,,,,,,,,,,,,repeat,number,numRpt,f,1.2677,Hi,,,,,,0,,,,,,,,high,2,0,2,0,1,,,,,,,,,
294673,2022-12-05_18h53.38.071,vts_reward_expectancy_bt,2022.2.4,Win32,59.97361161,Chrome,1368,912,,,,,1,739,,,,,,,,,,,,,,,,,160,F,circle,1,0,,,,,,,,,,,,,,,,repeat,number,numRpt,f,0.8915,Lo,,,,,,0,,,,,,,,high,3,0,3,0,1,,,,,,,,,
294673,2022-12-05_18h53.38.071,vts_reward_expectancy_bt,2022.2.4,Win32,59.97361161,Chrome,1368,912,,,,,0,739,,,,,,,,,,,,,,,,,167,D,hexagon,1,0,,,,,,,,,,,,,,,,repeat,number,numRpt,f,1.3386,Hi,,,,,,0,,,,,,,,high,4,0,4,0,1,,,,,,,,,
294673,2022-12-05_18h53.38.071,vts_reward_expectancy_bt,2022.2.4,Win32,59.97361161,Chrome,1368,912,,,,,1,740,,,,,,,,,,,,,,,,,139,H,star,1,0,,,,,,,,,,,,,,,,repeat,number,numRpt,d,0.94,Lo,,,,,,0,,,,,,,,high,5,0,5,0,1,,,,,,,,,
294673,2022-12-05_18h53.38.071,vts_reward_expectancy_bt,2022.2.4,Win32,59.97361161,Chrome,1368,912,,,,,1,741,,,,,,,,,,,,,,,,,132,B,triangle,1,0,,,,,,,,,,,,,,,,repeat,number,numRpt,d,0.7623,Hi,,,,,,0,,,,,,,,high,6,0,6,0,1,,,,,,,,,
294673,2022-12-05_18h53.38.071,vts_reward_expectancy_bt,2022.2.4,Win32,59.97361161,Chrome,1368,912,,,,,1,742,,,,,,,,,,,,,,,,,146,Y,circle,1,0,,,,,,,,,,,,,,,,repeat,number,numRpt,d,1.2695,Lo,,,,,,0,,,,,,,,high,7,0,7,0,1,,,,,,,,,
294673,2022-12-05_18h53.38.071,vts_reward_expectancy_bt,2022.2.4,Win32,59.97361161,Chrome,1368,912,,,,,10,752,,,,,,,,,,,,,,,,,125,S,circle,1,0,,,,,,,,,,,,,,,,repeat,number,numRpt,d,1.4516,Lo,,,,,,0,,,,,,,,high,8,0,8,0,1,,,,,,,,,
294673,2022-12-05_18h53.38.071,vts_reward_expectancy_bt,2022.2.4,Win32,59.97361161,Chrome,1368,912,,,,,1,753,,,,,,,,,,,,,,,,,181,W,triangle,1,0,,,,,,,,,,,,,,,,repeat,number,numRpt,f,0.9058,Hi,,,,,,0,,,,,,,,high,9,0,9,0,1,,,,,,,,,
294673,2022-12-05_18h53.38.071,vts_reward_expectancy_bt,2022.2.4,Win32,59.97361161,Chrome,1368,912,,,,,10,763,,,,,,,,,,,,,,,,,174,U,star,1,0,,,,,,,,,,,,,,,,repeat,number,numRpt,f,0.937,Lo,,,,,,0,,,,,,,,high,10,0,10,0,1,,,,,,,,,
294673,2022-12-05_18h53.38.071,vts_reward_expectancy_bt,2022.2.4,Win32,59.97361161,Chrome,1368,912,,,,,10,773,,,,,,,,,,,,,,,,,160,F,hexagon,1,0,,,,,,,,,,,,,,,,switch,letter,lettSwt,j,0.7413,Hi,,,,,,0,,,,,,,,high,11,0,11,0,1,,,,,,,,,
294673,2022-12-05_18h53.38.071,vts_reward_expectancy_bt,2022.2.4,Win32,59.97361161,Chrome,1368,912,,,,,0,773,,,,,,,,,,,,,,,,,167,D,hexagon,1,0,,,,,,,,,,,,,,,,switch,number,numSwt,f,0.9906,Hi,,,,,,0,,,,,,,,high,12,0,12,0,1,,,,,,,,,
294673,2022-12-05_18h53.38.071,vts_reward_expectancy_bt,2022.2.4,Win32,59.97361161,Chrome,1368,912,,,,,1,774,,,,,,,,,,,,,,,,,139,H,star,1,0,,,,,,,,,,,,,,,,repeat,number,numRpt,d,0.8605,Lo,,,,,,0,,,,,,,,high,13,0,13,0,1,,,,,,,,,
294673,2022-12-05_18h53.38.071,vts_reward_expectancy_bt,2022.2.4,Win32,59.97361161,Chrome,1368,912,,,,,10,784,,,,,,,,,,,,,,,,,132,B,triangle,1,0,,,,,,,,,,,,,,,,switch,letter,lettSwt,j,0.8071,Hi,,,,,,0,,,,,,,,high,14,0,14,0,1,,,,,,,,,
294673,2022-12-05_18h53.38.071,vts_reward_expectancy_bt,2022.2.4,Win32,59.97361161,Chrome,1368,912,,,,,1,785,,,,,,,,,,,,,,,,,146,Y,circle,1,0,,,,,,,,,,,,,,,,repeat,letter,lettRpt,k,0.6373,Lo,,,,,,0,,,,,,,,high,15,0,15,0,1,,,,,,,,,
294673,2022-12-05_18h53.38.071,vts_reward_expectancy_bt,2022.2.4,Win32,59.97361161,Chrome,1368,912,,,,,0,785,,,,,,,,,,,,,,,,,160,D,hexagon,1,0,,,,,,,,,,,,,,,,switch,number,numSwt,f,1.2557,Hi,,,,,,0,,,,,,,,high,16,0,16,0,1,,,,,,,,,
294673,2022-12-05_18h53.38.071,vts_reward_expectancy_bt,2022.2.4,Win32,59.97361161,Chrome,1368,912,,,,,0,785,,,,,,,,,,,,,,,,,167,Y,triangle,1,0,,,,,,,,,,,,,,,,repeat,number,numRpt,f,1.0421,Hi,,,,,,0,,,,,,,,high,17,0,17,0,1,,,,,,,,,
294673,2022-12-05_18h53.38.071,vts_reward_expectancy_bt,2022.2.4,Win32,59.97361161,Chrome,1368,912,,,,,1,786,,,,,,,,,,,,,,,,,125,S,star,1,0,,,,,,,,,,,,,,,,switch,letter,lettSwt,k,1.2448,Lo,,,,,,0,,,,,,,,high,18,0,18,0,1,,,,,,,,,
294673,2022-12-05_18h53.38.071,vts_reward_expectancy_bt,2022.2.4,Win32,59.97361161,Chrome,1368,912,,,,,1,787,,,,,,,,,,,,,,,,,146,U,circle,1,0,,,,,,,,,,,,,,,,repeat,letter,lettRpt,k,0.7239,Lo,,,,,,0,,,,,,,,high,19,0,19,0,1,,,,,,,,,
294673,2022-12-05_18h53.38.071,vts_reward_expectancy_bt,2022.2.4,Win32,59.97361161,Chrome,1368,912,,,,,1,788,,,,,,,,,,,,,,,,,139,H,circle,1,0,,,,,,,,,,,,,,,,repeat,letter,lettRpt,j,0.7094,Lo,,,,,,0,,,,,,,,high,20,0,20,0,1,,,,,,,,,
294673,2022-12-05_18h53.38.071,vts_reward_expectancy_bt,2022.2.4,Win32,59.97361161,Chrome,1368,912,,,,,10,798,,,,,,,,,,,,,,,,,174,W,hexagon,1,0,,,,,,,,,,,,,,,,repeat,letter,lettRpt,k,0.6071,Hi,,,,,,0,,,,,,,,high,21,0,21,0,1,,,,,,,,,
294673,2022-12-05_18h53.38.071,vts_reward_expectancy_bt,2022.2.4,Win32,59.97361161,Chrome,1368,912,,,,,10,808,,,,,,,,,,,,,,,,,181,B,triangle,1,0,,,,,,,,,,,,,,,,repeat,letter,lettRpt,j,0.6732,Hi,,,,,,0,,,,,,,,high,22,0,22,0,1,,,,,,,,,
294673,2022-12-05_18h53.38.071,vts_reward_expectancy_bt,2022.2.4,Win32,59.97361161,Chrome,1368,912,,,,,1,809,,,,,,,,,,,,,,,,,132,F,star,1,0,,,,,,,,,,,,,,,,switch,number,numSwt,d,0.6893,Lo,,,,,,0,,,,,,,,high,23,0,23,0,1,,,,,,,,,
294673,2022-12-05_18h53.38.071,vts_reward_expectancy_bt,2022.2.4,Win32,59.97361161,Chrome,1368,912,,,,,10,819,,,,,,,,,,,,,,,,,132,B,circle,1,0,,,,,,,,,,,,,,,,repeat,number,numRpt,d,0.598,Lo,,,,,,0,,,,,,,,high,24,0,24,0,1,,,,,,,,,
294673,2022-12-05_18h53.38.071,vts_reward_expectancy_bt,2022.2.4,Win32,59.97361161,Chrome,1368,912,,,,,1,820,,,,,,,,,,,,,,,,,125,H,star,1,0,,,,,,,,,,,,,,,,repeat,number,numRpt,d,0.624,Lo,,,,,,0,,,,,,,,high,25,0,25,0,1,,,,,,,,,
294673,2022-12-05_18h53.38.071,vts_reward_expectancy_bt,2022.2.4,Win32,59.97361161,Chrome,1368,912,,,,,10,830,,,,,,,,,,,,,,,,,160,W,hexagon,1,0,,,,,,,,,,,,,,,,switch,letter,lettSwt,k,0.7741,Hi,,,,,,0,,,,,,,,high,26,0,26,0,1,,,,,,,,,
294673,2022-12-05_18h53.38.071,vts_reward_expectancy_bt,2022.2.4,Win32,59.97361161,Chrome,1368,912,,,,,10,840,,,,,,,,,,,,,,,,,139,F,triangle,1,0,,,,,,,,,,,,,,,,repeat,letter,lettRpt,j,0.6928,Hi,,,,,,0,,,,,,,,high,27,0,27,0,1,,,,,,,,,
294673,2022-12-05_18h53.38.071,vts_reward_expectancy_bt,2022.2.4,Win32,59.97361161,Chrome,1368,912,,,,,10,850,,,,,,,,,,,,,,,,,181,U,triangle,1,0,,,,,,,,,,,,,,,,switch,number,numSwt,f,0.6424,Hi,,,,,,0,,,,,,,,high,28,0,28,0,1,,,,,,,,,
294673,2022-12-05_18h53.38.071,vts_reward_expectancy_bt,2022.2.4,Win32,59.97361161,Chrome,1368,912,,,,,10,860,,,,,,,,,,,,,,,,,174,D,hexagon,1,0,,,,,,,,,,,,,,,,repeat,number,numRpt,f,0.6422,Hi,,,,,,0,,,,,,,,high,29,0,29,0,1,,,,,,,,,
294673,2022-12-05_18h53.38.071,vts_reward_expectancy_bt,2022.2.4,Win32,59.97361161,Chrome,1368,912,,,,,1,861,,,,,,,,,,,,,,,,,146,Y,circle,1,0,,,,,,,,,,,,,,,,switch,letter,lettSwt,k,0.5905,Lo,,,,,,0,,,,,,,,high,30,0,30,0,1,,,,,,,,,
294673,2022-12-05_18h53.38.071,vts_reward_expectancy_bt,2022.2.4,Win32,59.97361161,Chrome,1368,912,,,,,10,871,,,,,,,,,,,,,,,,,167,S,star,1,0,,,,,,,,,,,,,,,,repeat,letter,lettRpt,k,1.072,Lo,,,,,,0,,,,,,,,high,31,0,31,0,1,,,,,,,,,
294673,2022-12-05_18h53.38.071,vts_reward_expectancy_bt,2022.2.4,Win32,59.97361161,Chrome,1368,912,,,,,10,881,,,,,,,,,,,,,,,,,132,S,triangle,1,0,,,,,,,,,,,,,,,,switch,number,numSwt,d,0.5724,Hi,,,,,,1,,,,,,space,1.3646,high,0,0,0,0,1,,,,,,,,,
294673,2022-12-05_18h53.38.071,vts_reward_expectancy_bt,2022.2.4,Win32,59.97361161,Chrome,1368,912,,,,,1,882,,,,,,,,,,,,,,,,,139,Y,circle,1,0,,,,,,,,,,,,,,,,switch,letter,lettSwt,k,0.6052,Lo,,,,,,1,,,,,,,,high,1,0,1,0,1,,,,,,,,,
294673,2022-12-05_18h53.38.071,vts_reward_expectancy_bt,2022.2.4,Win32,59.97361161,Chrome,1368,912,,,,,0,882,,,,,,,,,,,,,,,,,167,W,hexagon,1,0,,,,,,,,,,,,,,,,switch,number,numSwt,f,0.8857,Hi,,,,,,1,,,,,,,,high,2,0,2,0,1,,,,,,,,,
294673,2022-12-05_18h53.38.071,vts_reward_expectancy_bt,2022.2.4,Win32,59.97361161,Chrome,1368,912,,,,,1,883,,,,,,,,,,,,,,,,,146,U,star,1,0,,,,,,,,,,,,,,,,switch,letter,lettSwt,k,0.625,Lo,,,,,,1,,,,,,,,high,3,0,3,0,1,,,,,,,,,
294673,2022-12-05_18h53.38.071,vts_reward_expectancy_bt,2022.2.4,Win32,59.97361161,Chrome,1368,912,,,,,10,893,,,,,,,,,,,,,,,,,125,B,triangle,1,0,,,,,,,,,,,,,,,,repeat,letter,lettRpt,j,0.5261,Hi,,,,,,1,,,,,,,,high,4,0,4,0,1,,,,,,,,,
294673,2022-12-05_18h53.38.071,vts_reward_expectancy_bt,2022.2.4,Win32,59.97361161,Chrome,1368,912,,,,,0,893,,,,,,,,,,,,,,,,,174,F,circle,0,0,,,,,,,,,,,,,,,,repeat,letter,NA,k,0.5486,Hi,,,,,,1,,,,,,,,high,5,0,5,0,1,,,,,,,,,
294673,2022-12-05_18h53.38.071,vts_reward_expectancy_bt,2022.2.4,Win32,59.97361161,Chrome,1368,912,,,,,10,903,,,,,,,,,,,,,,,,,160,D,hexagon,1,1,,,,,,,,,,,,,,,,switch,number,numSwt,f,0.5256,Hi,,,,,,1,,,,,,,,high,6,0,6,0,1,,,,,,,,,
294673,2022-12-05_18h53.38.071,vts_reward_expectancy_bt,2022.2.4,Win32,59.97361161,Chrome,1368,912,,,,,1,904,,,,,,,,,,,,,,,,,181,H,star,1,0,,,,,,,,,,,,,,,,repeat,number,numRpt,f,0.5239,Lo,,,,,,1,,,,,,,,high,7,0,7,0,1,,,,,,,,,
294673,2022-12-05_18h53.38.071,vts_reward_expectancy_bt,2022.2.4,Win32,59.97361161,Chrome,1368,912,,,,,0,904,,,,,,,,,,,,,,,,,132,S,triangle,0,0,,,,,,,,,,,,,,,,repeat,number,NA,f,0.7307,Lo,,,,,,1,,,,,,,,high,8,0,8,0,1,,,,,,,,,
294673,2022-12-05_18h53.38.071,vts_reward_expectancy_bt,2022.2.4,Win32,59.97361161,Chrome,1368,912,,,,,1,905,,,,,,,,,,,,,,,,,139,Y,hexagon,1,1,,,,,,,,,,,,,,,,switch,letter,lettSwt,k,0.541,Hi,,,,,,1,,,,,,,,high,9,0,9,0,1,,,,,,,,,
294673,2022-12-05_18h53.38.071,vts_reward_expectancy_bt,2022.2.4,Win32,59.97361161,Chrome,1368,912,,,,,1,906,,,,,,,,,,,,,,,,,167,W,circle,1,0,,,,,,,,,,,,,,,,repeat,letter,lettRpt,k,0.6904,Lo,,,,,,1,,,,,,,,high,10,0,10,0,1,,,,,,,,,
294673,2022-12-05_18h53.38.071,vts_reward_expectancy_bt,2022.2.4,Win32,59.97361161,Chrome,1368,912,,,,,10,916,,,,,,,,,,,,,,,,,146,U,star,1,0,,,,,,,,,,,,,,,,repeat,letter,lettRpt,k,0.5761,Lo,,,,,,1,,,,,,,,high,11,0,11,0,1,,,,,,,,,
294673,2022-12-05_18h53.38.071,vts_reward_expectancy_bt,2022.2.4,Win32,59.97361161,Chrome,1368,912,,,,,1,917,,,,,,,,,,,,,,,,,125,B,circle,1,0,,,,,,,,,,,,,,,,switch,number,numSwt,d,0.5334,Lo,,,,,,1,,,,,,,,high,12,0,12,0,1,,,,,,,,,
294673,2022-12-05_18h53.38.071,vts_reward_expectancy_bt,2022.2.4,Win32,59.97361161,Chrome,1368,912,,,,,1,918,,,,,,,,,,,,,,,,,174,F,triangle,1,0,,,,,,,,,,,,,,,,repeat,number,numRpt,f,0.5132,Hi,,,,,,1,,,,,,,,high,13,0,13,0,1,,,,,,,,,
294673,2022-12-05_18h53.38.071,vts_reward_expectancy_bt,2022.2.4,Win32,59.97361161,Chrome,1368,912,,,,,10,928,,,,,,,,,,,,,,,,,160,D,star,1,0,,,,,,,,,,,,,,,,repeat,number,numRpt,f,0.5261,Lo,,,,,,1,,,,,,,,high,14,0,14,0,1,,,,,,,,,
294673,2022-12-05_18h53.38.071,vts_reward_expectancy_bt,2022.2.4,Win32,59.97361161,Chrome,1368,912,,,,,1,929,,,,,,,,,,,,,,,,,181,H,hexagon,1,0,,,,,,,,,,,,,,,,switch,letter,lettSwt,j,0.56,Hi,,,,,,1,,,,,,,,high,15,0,15,0,1,,,,,,,,,
294673,2022-12-05_18h53.38.071,vts_reward_expectancy_bt,2022.2.4,Win32,59.97361161,Chrome,1368,912,,,,,1,930,,,,,,,,,,,,,,,,,174,H,star,1,0,,,,,,,,,,,,,,,,repeat,letter,lettRpt,j,0.4826,Lo,,,,,,1,,,,,,,,high,16,0,16,0,1,,,,,,,,,
294673,2022-12-05_18h53.38.071,vts_reward_expectancy_bt,2022.2.4,Win32,59.97361161,Chrome,1368,912,,,,,1,931,,,,,,,,,,,,,,,,,146,W,circle,1,0,,,,,,,,,,,,,,,,switch,number,numSwt,d,0.7252,Lo,,,,,,1,,,,,,,,high,17,0,17,0,1,,,,,,,,,
294673,2022-12-05_18h53.38.071,vts_reward_expectancy_bt,2022.2.4,Win32,59.97361161,Chrome,1368,912,,,,,10,941,,,,,,,,,,,,,,,,,167,Y,hexagon,1,0,,,,,,,,,,,,,,,,switch,letter,lettSwt,k,0.7261,Hi,,,,,,1,,,,,,,,high,18,0,18,0,1,,,,,,,,,
294673,2022-12-05_18h53.38.071,vts_reward_expectancy_bt,2022.2.4,Win32,59.97361161,Chrome,1368,912,,,,,10,951,,,,,,,,,,,,,,,,,132,B,triangle,1,0,,,,,,,,,,,,,,,,switch,number,numSwt,d,0.6345,Hi,,,,,,1,,,,,,,,high,19,0,19,0,1,,,,,,,,,
294673,2022-12-05_18h53.38.071,vts_reward_expectancy_bt,2022.2.4,Win32,59.97361161,Chrome,1368,912,,,,,1,952,,,,,,,,,,,,,,,,,139,U,circle,1,0,,,,,,,,,,,,,,,,repeat,number,numRpt,d,0.8285,Lo,,,,,,1,,,,,,,,high,20,0,20,0,1,,,,,,,,,
294673,2022-12-05_18h53.38.071,vts_reward_expectancy_bt,2022.2.4,Win32,59.97361161,Chrome,1368,912,,,,,10,962,,,,,,,,,,,,,,,,,160,D,triangle,1,0,,,,,,,,,,,,,,,,switch,letter,lettSwt,j,0.5166,Hi,,,,,,1,,,,,,,,high,21,0,21,0,1,,,,,,,,,
294673,2022-12-05_18h53.38.071,vts_reward_expectancy_bt,2022.2.4,Win32,59.97361161,Chrome,1368,912,,,,,0,962,,,,,,,,,,,,,,,,,181,F,hexagon,1,0,,,,,,,,,,,,,,,,repeat,letter,lettRpt,j,0.8514,Hi,,,,,,1,,,,,,,,high,22,0,22,0,1,,,,,,,,,
294673,2022-12-05_18h53.38.071,vts_reward_expectancy_bt,2022.2.4,Win32,59.97361161,Chrome,1368,912,,,,,0,962,,,,,,,,,,,,,,,,,125,S,star,0,0,,,,,,,,,,,,,,,,switch,number,NA,f,0.7955,Hi,,,,,,1,,,,,,,,high,23,0,23,0,1,,,,,,,,,
294673,2022-12-05_18h53.38.071,vts_reward_expectancy_bt,2022.2.4,Win32,59.97361161,Chrome,1368,912,,,,,10,972,,,,,,,,,,,,,,,,,132,D,star,1,1,,,,,,,,,,,,,,,,switch,letter,lettSwt,j,0.9269,Lo,,,,,,1,,,,,,,,high,24,0,24,0,1,,,,,,,,,
294673,2022-12-05_18h53.38.071,vts_reward_expectancy_bt,2022.2.4,Win32,59.97361161,Chrome,1368,912,,,,,10,982,,,,,,,,,,,,,,,,,174,H,triangle,1,0,,,,,,,,,,,,,,,,switch,number,numSwt,f,0.6371,Hi,,,,,,1,,,,,,,,high,25,0,25,0,1,,,,,,,,,
294673,2022-12-05_18h53.38.071,vts_reward_expectancy_bt,2022.2.4,Win32,59.97361161,Chrome,1368,912,,,,,1,983,,,,,,,,,,,,,,,,,125,W,circle,1,0,,,,,,,,,,,,,,,,repeat,number,numRpt,d,0.5737,Lo,,,,,,1,,,,,,,,high,26,0,26,0,1,,,,,,,,,
294673,2022-12-05_18h53.38.071,vts_reward_expectancy_bt,2022.2.4,Win32,59.97361161,Chrome,1368,912,,,,,10,993,,,,,,,,,,,,,,,,,160,F,hexagon,1,0,,,,,,,,,,,,,,,,switch,letter,lettSwt,j,0.629,Hi,,,,,,1,,,,,,,,high,27,0,27,0,1,,,,,,,,,
294673,2022-12-05_18h53.38.071,vts_reward_expectancy_bt,2022.2.4,Win32,59.97361161,Chrome,1368,912,,,,,1,994,,,,,,,,,,,,,,,,,146,Y,circle,1,0,,,,,,,,,,,,,,,,repeat,letter,lettRpt,k,0.4827,Lo,,,,,,1,,,,,,,,high,28,0,28,0,1,,,,,,,,,
294673,2022-12-05_18h53.38.071,vts_reward_expectancy_bt,2022.2.4,Win32,59.97361161,Chrome,1368,912,,,,,10,1004,,,,,,,,,,,,,,,,,181,U,hexagon,1,0,,,,,,,,,,,,,,,,switch,number,numSwt,f,0.5404,Hi,,,,,,1,,,,,,,,high,29,0,29,0,1,,,,,,,,,
294673,2022-12-05_18h53.38.071,vts_reward_expectancy_bt,2022.2.4,Win32,59.97361161,Chrome,1368,912,,,,,1,1005,,,,,,,,,,,,,,,,,139,B,star,1,0,,,,,,,,,,,,,,,,switch,letter,lettSwt,j,0.6379,Lo,,,,,,1,,,,,,,,high,30,0,30,0,1,,,,,,,,,
294673,2022-12-05_18h53.38.071,vts_reward_expectancy_bt,2022.2.4,Win32,59.97361161,Chrome,1368,912,,,,,10,1015,,,,,,,,,,,,,,,,,167,S,triangle,1,0,,,,,,,,,,,,,,,,switch,number,numSwt,f,0.5575,Hi,,,,,,1,,,,,,,,high,31,0,31,0,1,,,,,,,,,
294673,2022-12-05_18h53.38.071,vts_reward_expectancy_bt,2022.2.4,Win32,59.97361161,Chrome,1368,912,,,,,1,1016,,,,,,,,,,,,,,,,,139,U,star,1,0,,,,,,,,,,,,,,,,switch,letter,lettSwt,k,0.6255,Lo,,,,,,2,,,,,,space,2.7024,high,0,0,0,0,1,,,,,,,,,
294673,2022-12-05_18h53.38.071,vts_reward_expectancy_bt,2022.2.4,Win32,59.97361161,Chrome,1368,912,,,,,0,1016,,,,,,,,,,,,,,,,,174,B,triangle,1,0,,,,,,,,,,,,,,,,switch,number,numSwt,f,0.8267,Hi,,,,,,2,,,,,,,,high,1,0,1,0,1,,,,,,,,,
294673,2022-12-05_18h53.38.071,vts_reward_expectancy_bt,2022.2.4,Win32,59.97361161,Chrome,1368,912,,,,,1,1017,,,,,,,,,,,,,,,,,160,H,circle,1,0,,,,,,,,,,,,,,,,switch,letter,lettSwt,j,0.5533,Lo,,,,,,2,,,,,,,,high,2,0,2,0,1,,,,,,,,,
294673,2022-12-05_18h53.38.071,vts_reward_expectancy_bt,2022.2.4,Win32,59.97361161,Chrome,1368,912,,,,,10,1027,,,,,,,,,,,,,,,,,146,Y,hexagon,1,0,,,,,,,,,,,,,,,,switch,number,numSwt,d,0.5079,Hi,,,,,,2,,,,,,,,high,3,0,3,0,1,,,,,,,,,
294673,2022-12-05_18h53.38.071,vts_reward_expectancy_bt,2022.2.4,Win32,59.97361161,Chrome,1368,912,,,,,1,1028,,,,,,,,,,,,,,,,,132,D,star,1,0,,,,,,,,,,,,,,,,repeat,number,numRpt,d,0.6252,Lo,,,,,,2,,,,,,,,high,4,0,4,0,1,,,,,,,,,
294673,2022-12-05_18h53.38.071,vts_reward_expectancy_bt,2022.2.4,Win32,59.97361161,Chrome,1368,912,,,,,0,1028,,,,,,,,,,,,,,,,,181,F,triangle,1,0,,,,,,,,,,,,,,,,switch,letter,lettSwt,j,0.6907,Hi,,,,,,2,,,,,,,,high,5,0,5,0,1,,,,,,,,,
294673,2022-12-05_18h53.38.071,vts_reward_expectancy_bt,2022.2.4,Win32,59.97361161,Chrome,1368,912,,,,,1,1029,,,,,,,,,,,,,,,,,125,S,circle,1,0,,,,,,,,,,,,,,,,repeat,letter,lettRpt,k,0.6417,Lo,,,,,,2,,,,,,,,high,6,0,6,0,1,,,,,,,,,
294673,2022-12-05_18h53.38.071,vts_reward_expectancy_bt,2022.2.4,Win32,59.97361161,Chrome,1368,912,,,,,0,1029,,,,,,,,,,,,,,,,,167,W,hexagon,1,0,,,,,,,,,,,,,,,,repeat,letter,lettRpt,k,0.693,Hi,,,,,,2,,,,,,,,high,7,0,7,0,1,,,,,,,,,
294673,2022-12-05_18h53.38.071,vts_reward_expectancy_bt,2022.2.4,Win32,59.97361161,Chrome,1368,912,,,,,1,1030,,,,,,,,,,,,,,,,,139,U,star,1,0,,,,,,,,,,,,,,,,switch,number,numSwt,d,0.5369,Lo,,,,,,2,,,,,,,,high,8,0,8,0,1,,,,,,,,,
294673,2022-12-05_18h53.38.071,vts_reward_expectancy_bt,2022.2.4,Win32,59.97361161,Chrome,1368,912,,,,,10,1040,,,,,,,,,,,,,,,,,174,B,hexagon,1,0,,,,,,,,,,,,,,,,switch,letter,lettSwt,j,0.4585,Hi,,,,,,2,,,,,,,,high,9,0,9,0,1,,,,,,,,,
294673,2022-12-05_18h53.38.071,vts_reward_expectancy_bt,2022.2.4,Win32,59.97361161,Chrome,1368,912,,,,,10,1050,,,,,,,,,,,,,,,,,160,H,circle,1,0,,,,,,,,,,,,,,,,switch,number,numSwt,f,0.5182,Lo,,,,,,2,,,,,,,,high,10,0,10,0,1,,,,,,,,,
294673,2022-12-05_18h53.38.071,vts_reward_expectancy_bt,2022.2.4,Win32,59.97361161,Chrome,1368,912,,,,,0,1050,,,,,,,,,,,,,,,,,146,Y,triangle,1,0,,,,,,,,,,,,,,,,switch,letter,lettSwt,k,1.0078,Hi,,,,,,2,,,,,,,,high,11,0,11,0,1,,,,,,,,,
294673,2022-12-05_18h53.38.071,vts_reward_expectancy_bt,2022.2.4,Win32,59.97361161,Chrome,1368,912,,,,,1,1051,,,,,,,,,,,,,,,,,132,D,star,1,0,,,,,,,,,,,,,,,,repeat,letter,lettRpt,j,0.6077,Lo,,,,,,2,,,,,,,,high,12,0,12,0,1,,,,,,,,,
294673,2022-12-05_18h53.38.071,vts_reward_expectancy_bt,2022.2.4,Win32,59.97361161,Chrome,1368,912,,,,,10,1061,,,,,,,,,,,,,,,,,181,F,triangle,1,0,,,,,,,,,,,,,,,,switch,number,numSwt,f,0.5433,Hi,,,,,,2,,,,,,,,high,13,0,13,0,1,,,,,,,,,
294673,2022-12-05_18h53.38.071,vts_reward_expectancy_bt,2022.2.4,Win32,59.97361161,Chrome,1368,912,,,,,0,1061,,,,,,,,,,,,,,,,,125,S,circle,0,0,,,,,,,,,,,,,,,,switch,letter,NA,j,0.5755,Hi,,,,,,2,,,,,,,,high,14,0,14,0,1,,,,,,,,,
294673,2022-12-05_18h53.38.071,vts_reward_expectancy_bt,2022.2.4,Win32,59.97361161,Chrome,1368,912,,,,,0,1061,,,,,,,,,,,,,,,,,167,W,hexagon,1,1,,,,,,,,,,,,,,,,repeat,letter,lettRpt,k,0.6261,Hi,,,,,,2,,,,,,,,high,15,0,15,0,1,,,,,,,,,
294673,2022-12-05_18h53.38.071,vts_reward_expectancy_bt,2022.2.4,Win32,59.97361161,Chrome,1368,912,,,,,1,1062,,,,,,,,,,,,,,,,,146,W,star,1,0,,,,,,,,,,,,,,,,switch,number,numSwt,d,0.489,Lo,,,,,,2,,,,,,,,high,16,0,16,0,1,,,,,,,,,
294673,2022-12-05_18h53.38.071,vts_reward_expectancy_bt,2022.2.4,Win32,59.97361161,Chrome,1368,912,,,,,0,1062,,,,,,,,,,,,,,,,,132,U,triangle,1,0,,,,,,,,,,,,,,,,repeat,number,numRpt,d,0.8902,Hi,,,,,,2,,,,,,,,high,17,0,17,0,1,,,,,,,,,
294673,2022-12-05_18h53.38.071,vts_reward_expectancy_bt,2022.2.4,Win32,59.97361161,Chrome,1368,912,,,,,0,1062,,,,,,,,,,,,,,,,,139,D,circle,0,0,,,,,,,,,,,,,,,,repeat,number,NA,f,0.2932,Hi,,,,,,2,,,,,,,,high,18,0,18,0,1,,,,,,,,,
294673,2022-12-05_18h53.38.071,vts_reward_expectancy_bt,2022.2.4,Win32,59.97361161,Chrome,1368,912,,,,,1,1063,,,,,,,,,,,,,,,,,125,B,hexagon,1,1,,,,,,,,,,,,,,,,switch,letter,lettSwt,j,0.4273,Hi,,,,,,2,,,,,,,,high,19,0,19,0,1,,,,,,,,,
294673,2022-12-05_18h53.38.071,vts_reward_expectancy_bt,2022.2.4,Win32,59.97361161,Chrome,1368,912,,,,,1,1064,,,,,,,,,,,,,,,,,167,F,star,1,0,,,,,,,,,,,,,,,,repeat,letter,lettRpt,j,0.4813,Lo,,,,,,2,,,,,,,,high,20,0,20,0,1,,,,,,,,,
294673,2022-12-05_18h53.38.071,vts_reward_expectancy_bt,2022.2.4,Win32,59.97361161,Chrome,1368,912,,,,,0,1064,,,,,,,,,,,,,,,,,160,S,triangle,1,0,,,,,,,,,,,,,,,,repeat,letter,lettRpt,k,0.7073,Hi,,,,,,2,,,,,,,,high,21,0,21,0,1,,,,,,,,,
294673,2022-12-05_18h53.38.071,vts_reward_expectancy_bt,2022.2.4,Win32,59.97361161,Chrome,1368,912,,,,,1,1065,,,,,,,,,,,,,,,,,174,H,circle,1,0,,,,,,,,,,,,,,,,switch,number,numSwt,f,0.4094,Lo,,,,,,2,,,,,,,,high,22,0,22,0,1,,,,,,,,,
294673,2022-12-05_18h53.38.071,vts_reward_expectancy_bt,2022.2.4,Win32,59.97361161,Chrome,1368,912,,,,,10,1075,,,,,,,,,,,,,,,,,181,Y,hexagon,1,0,,,,,,,,,,,,,,,,switch,letter,lettSwt,k,0.4371,Hi,,,,,,2,,,,,,,,high,23,0,23,0,1,,,,,,,,,
294673,2022-12-05_18h53.38.071,vts_reward_expectancy_bt,2022.2.4,Win32,59.97361161,Chrome,1368,912,,,,,0,1075,,,,,,,,,,,,,,,,,139,S,hexagon,1,0,,,,,,,,,,,,,,,,switch,number,numSwt,d,0.7172,Hi,,,,,,2,,,,,,,,high,24,0,24,0,1,,,,,,,,,
294673,2022-12-05_18h53.38.071,vts_reward_expectancy_bt,2022.2.4,Win32,59.97361161,Chrome,1368,912,,,,,0,1075,,,,,,,,,,,,,,,,,125,D,star,0,0,,,,,,,,,,,,,,,,switch,letter,NA,k,0.5409,Hi,,,,,,2,,,,,,,,high,25,0,25,0,1,,,,,,,,,
294673,2022-12-05_18h53.38.071,vts_reward_expectancy_bt,2022.2.4,Win32,59.97361161,Chrome,1368,912,,,,,0,1075,,,,,,,,,,,,,,,,,132,U,triangle,1,1,,,,,,,,,,,,,,,,switch,number,numSwt,d,0.606,Hi,,,,,,2,,,,,,,,high,26,0,26,0,1,,,,,,,,,
294673,2022-12-05_18h53.38.071,vts_reward_expectancy_bt,2022.2.4,Win32,59.97361161,Chrome,1368,912,,,,,1,1076,,,,,,,,,,,,,,,,,146,B,circle,1,0,,,,,,,,,,,,,,,,repeat,number,numRpt,d,0.5252,Lo,,,,,,2,,,,,,,,high,27,0,27,0,1,,,,,,,,,
294673,2022-12-05_18h53.38.071,vts_reward_expectancy_bt,2022.2.4,Win32,59.97361161,Chrome,1368,912,,,,,1,1077,,,,,,,,,,,,,,,,,167,W,star,1,0,,,,,,,,,,,,,,,,repeat,number,numRpt,f,0.4912,Lo,,,,,,2,,,,,,,,high,28,0,28,0,1,,,,,,,,,
294673,2022-12-05_18h53.38.071,vts_reward_expectancy_bt,2022.2.4,Win32,59.97361161,Chrome,1368,912,,,,,0,1077,,,,,,,,,,,,,,,,,181,Y,triangle,1,0,,,,,,,,,,,,,,,,repeat,number,numRpt,f,0.5765,Hi,,,,,,2,,,,,,,,high,29,0,29,0,1,,,,,,,,,
294673,2022-12-05_18h53.38.071,vts_reward_expectancy_bt,2022.2.4,Win32,59.97361161,Chrome,1368,912,,,,,0,1077,,,,,,,,,,,,,,,,,174,F,hexagon,0,0,,,,,,,,,,,,,,,,switch,letter,NA,k,0.6205,Hi,,,,,,2,,,,,,,,high,30,0,30,0,1,,,,,,,,,
294673,2022-12-05_18h53.38.071,vts_reward_expectancy_bt,2022.2.4,Win32,59.97361161,Chrome,1368,912,,,,,10,1087,,,,,,,,,,,,,,,,,160,H,circle,1,1,,,,,,,,,,,,,,,,switch,number,numSwt,f,0.592,Lo,,,,,,2,,,,,,,,high,31,0,31,0,1,,,,,,,,,
294673,2022-12-05_18h53.38.071,vts_reward_expectancy_bt,2022.2.4,Win32,59.97361161,Chrome,1368,912,,,,,0,1087,,,,,,,,,,,,,,,,,125,U,hexagon,1,0,,,,,,,,,,,,,,,,switch,letter,lettSwt,k,0.5095,Hi,,,,,,3,,,,,,space,0.3162,high,0,0,0,0,1,,,,,,,,,
294673,2022-12-05_18h53.38.071,vts_reward_expectancy_bt,2022.2.4,Win32,59.97361161,Chrome,1368,912,,,,,10,1097,,,,,,,,,,,,,,,,,174,Y,triangle,1,0,,,,,,,,,,,,,,,,repeat,letter,lettRpt,k,0.6077,Hi,,,,,,3,,,,,,,,high,1,0,1,0,1,,,,,,,,,
294673,2022-12-05_18h53.38.071,vts_reward_expectancy_bt,2022.2.4,Win32,59.97361161,Chrome,1368,912,,,,,0,1097,,,,,,,,,,,,,,,,,132,W,star,0,0,,,,,,,,,,,,,,,,switch,number,NA,f,0.5944,Hi,,,,,,3,,,,,,,,high,2,0,2,0,1,,,,,,,,,
294673,2022-12-05_18h53.38.071,vts_reward_expectancy_bt,2022.2.4,Win32,59.97361161,Chrome,1368,912,,,,,0,1097,,,,,,,,,,,,,,,,,167,H,circle,0,1,,,,,,,,,,,,,,,,repeat,number,NA,d,0.5072,Hi,,,,,,3,,,,,,,,high,3,0,3,0,1,,,,,,,,,
294673,2022-12-05_18h53.38.071,vts_reward_expectancy_bt,2022.2.4,Win32,59.97361161,Chrome,1368,912,,,,,0,1097,,,,,,,,,,,,,,,,,160,S,hexagon,1,1,,,,,,,,,,,,,,,,switch,letter,lettSwt,k,0.5534,Hi,,,,,,3,,,,,,,,high,4,0,4,0,1,,,,,,,,,
294673,2022-12-05_18h53.38.071,vts_reward_expectancy_bt,2022.2.4,Win32,59.97361161,Chrome,1368,912,,,,,0,1097,,,,,,,,,,,,,,,,,139,B,triangle,1,0,,,,,,,,,,,,,,,,repeat,letter,lettRpt,j,0.6219,Hi,,,,,,3,,,,,,,,high,5,0,5,0,1,,,,,,,,,
294673,2022-12-05_18h53.38.071,vts_reward_expectancy_bt,2022.2.4,Win32,59.97361161,Chrome,1368,912,,,,,0,1097,,,,,,,,,,,,,,,,,181,F,star,0,0,,,,,,,,,,,,,,,,repeat,letter,NA,k,0.5128,Hi,,,,,,3,,,,,,,,high,6,0,6,0,1,,,,,,,,,
294673,2022-12-05_18h53.38.071,vts_reward_expectancy_bt,2022.2.4,Win32,59.97361161,Chrome,1368,912,,,,,0,1097,,,,,,,,,,,,,,,,,146,D,circle,0,1,,,,,,,,,,,,,,,,switch,number,NA,f,0.4743,Hi,,,,,,3,,,,,,,,high,7,0,7,0,1,,,,,,,,,
294673,2022-12-05_18h53.38.071,vts_reward_expectancy_bt,2022.2.4,Win32,59.97361161,Chrome,1368,912,,,,,0,1097,,,,,,,,,,,,,,,,,125,U,triangle,1,1,,,,,,,,,,,,,,,,switch,letter,lettSwt,k,0.609,Hi,,,,,,3,,,,,,,,high,8,0,8,0,1,,,,,,,,,
294673,2022-12-05_18h53.38.071,vts_reward_expectancy_bt,2022.2.4,Win32,59.97361161,Chrome,1368,912,,,,,0,1097,,,,,,,,,,,,,,,,,174,Y,circle,0,0,,,,,,,,,,,,,,,,repeat,letter,NA,j,0.444,Hi,,,,,,3,,,,,,,,high,9,0,9,0,1,,,,,,,,,
294673,2022-12-05_18h53.38.071,vts_reward_expectancy_bt,2022.2.4,Win32,59.97361161,Chrome,1368,912,,,,,1,1098,,,,,,,,,,,,,,,,,132,W,star,1,1,,,,,,,,,,,,,,,,switch,number,numSwt,d,0.5411,Lo,,,,,,3,,,,,,,,high,10,0,10,0,1,,,,,,,,,
294673,2022-12-05_18h53.38.071,vts_reward_expectancy_bt,2022.2.4,Win32,59.97361161,Chrome,1368,912,,,,,10,1108,,,,,,,,,,,,,,,,,167,H,hexagon,1,0,,,,,,,,,,,,,,,,repeat,number,numRpt,f,0.4925,Hi,,,,,,3,,,,,,,,high,11,0,11,0,1,,,,,,,,,
294673,2022-12-05_18h53.38.071,vts_reward_expectancy_bt,2022.2.4,Win32,59.97361161,Chrome,1368,912,,,,,1,1109,,,,,,,,,,,,,,,,,160,S,star,1,0,,,,,,,,,,,,,,,,switch,letter,lettSwt,k,0.6406,Lo,,,,,,3,,,,,,,,high,12,0,12,0,1,,,,,,,,,
294673,2022-12-05_18h53.38.071,vts_reward_expectancy_bt,2022.2.4,Win32,59.97361161,Chrome,1368,912,,,,,0,1109,,,,,,,,,,,,,,,,,139,B,hexagon,0,0,,,,,,,,,,,,,,,,switch,number,NA,f,0.5246,Lo,,,,,,3,,,,,,,,high,13,0,13,0,1,,,,,,,,,
294673,2022-12-05_18h53.38.071,vts_reward_expectancy_bt,2022.2.4,Win32,59.97361161,Chrome,1368,912,,,,,0,1109,,,,,,,,,,,,,,,,,181,F,triangle,1,1,,,,,,,,,,,,,,,,switch,letter,lettSwt,j,0.5789,Hi,,,,,,3,,,,,,,,high,14,0,14,0,1,,,,,,,,,
294673,2022-12-05_18h53.38.071,vts_reward_expectancy_bt,2022.2.4,Win32,59.97361161,Chrome,1368,912,,,,,1,1110,,,,,,,,,,,,,,,,,146,D,circle,1,0,,,,,,,,,,,,,,,,repeat,letter,lettRpt,j,0.4569,Lo,,,,,,3,,,,,,,,high,15,0,15,0,1,,,,,,,,,
294673,2022-12-05_18h53.38.071,vts_reward_expectancy_bt,2022.2.4,Win32,59.97361161,Chrome,1368,912,,,,,1,1111,,,,,,,,,,,,,,,,,167,W,star,1,0,,,,,,,,,,,,,,,,repeat,letter,lettRpt,k,1.4567,Lo,,,,,,3,,,,,,,,high,16,0,16,0,1,,,,,,,,,
294673,2022-12-05_18h53.38.071,vts_reward_expectancy_bt,2022.2.4,Win32,59.97361161,Chrome,1368,912,,,,,0,1111,,,,,,,,,,,,,,,,,139,S,triangle,1,0,,,,,,,,,,,,,,,,switch,number,numSwt,d,1.0829,Hi,,,,,,3,,,,,,,,high,17,0,17,0,1,,,,,,,,,
294673,2022-12-05_18h53.38.071,vts_reward_expectancy_bt,2022.2.4,Win32,59.97361161,Chrome,1368,912,,,,,1,1112,,,,,,,,,,,,,,,,,125,U,circle,1,0,,,,,,,,,,,,,,,,repeat,number,numRpt,d,0.598,Lo,,,,,,3,,,,,,,,high,18,0,18,0,1,,,,,,,,,
294673,2022-12-05_18h53.38.071,vts_reward_expectancy_bt,2022.2.4,Win32,59.97361161,Chrome,1368,912,,,,,0,1112,,,,,,,,,,,,,,,,,146,D,hexagon,1,0,,,,,,,,,,,,,,,,repeat,number,numRpt,d,0.5564,Hi,,,,,,3,,,,,,,,high,19,0,19,0,1,,,,,,,,,
294673,2022-12-05_18h53.38.071,vts_reward_expectancy_bt,2022.2.4,Win32,59.97361161,Chrome,1368,912,,,,,1,1113,,,,,,,,,,,,,,,,,160,Y,star,1,0,,,,,,,,,,,,,,,,switch,letter,lettSwt,k,0.4783,Lo,,,,,,3,,,,,,,,high,20,0,20,0,1,,,,,,,,,
294673,2022-12-05_18h53.38.071,vts_reward_expectancy_bt,2022.2.4,Win32,59.97361161,Chrome,1368,912,,,,,1,1114,,,,,,,,,,,,,,,,,174,F,circle,1,0,,,,,,,,,,,,,,,,repeat,letter,lettRpt,j,0.5511,Lo,,,,,,3,,,,,,,,high,21,0,21,0,1,,,,,,,,,
294673,2022-12-05_18h53.38.071,vts_reward_expectancy_bt,2022.2.4,Win32,59.97361161,Chrome,1368,912,,,,,0,1114,,,,,,,,,,,,,,,,,181,B,hexagon,1,0,,,,,,,,,,,,,,,,switch,number,numSwt,f,0.5483,Hi,,,,,,3,,,,,,,,high,22,0,22,0,1,,,,,,,,,
294673,2022-12-05_18h53.38.071,vts_reward_expectancy_bt,2022.2.4,Win32,59.97361161,Chrome,1368,912,,,,,0,1114,,,,,,,,,,,,,,,,,132,H,triangle,1,0,,,,,,,,,,,,,,,,repeat,number,numRpt,d,0.5606,Hi,,,,,,3,,,,,,,,high,23,0,23,0,1,,,,,,,,,
294673,2022-12-05_18h53.38.071,vts_reward_expectancy_bt,2022.2.4,Win32,59.97361161,Chrome,1368,912,,,,,0,1114,,,,,,,,,,,,,,,,,167,U,triangle,1,0,,,,,,,,,,,,,,,,switch,letter,lettSwt,k,0.6053,Hi,,,,,,3,,,,,,,,high,24,0,24,0,1,,,,,,,,,
294673,2022-12-05_18h53.38.071,vts_reward_expectancy_bt,2022.2.4,Win32,59.97361161,Chrome,1368,912,,,,,10,1124,,,,,,,,,,,,,,,,,160,Y,hexagon,1,0,,,,,,,,,,,,,,,,repeat,letter,lettRpt,k,0.5253,Hi,,,,,,3,,,,,,,,high,25,0,25,0,1,,,,,,,,,
294673,2022-12-05_18h53.38.071,vts_reward_expectancy_bt,2022.2.4,Win32,59.97361161,Chrome,1368,912,,,,,1,1125,,,,,,,,,,,,,,,,,132,H,circle,1,0,,,,,,,,,,,,,,,,repeat,letter,lettRpt,j,0.6268,Lo,,,,,,3,,,,,,,,high,26,0,26,0,1,,,,,,,,,
294673,2022-12-05_18h53.38.071,vts_reward_expectancy_bt,2022.2.4,Win32,59.97361161,Chrome,1368,912,,,,,1,1126,,,,,,,,,,,,,,,,,181,F,star,1,0,,,,,,,,,,,,,,,,repeat,letter,lettRpt,j,0.6375,Lo,,,,,,3,,,,,,,,high,27,0,27,0,1,,,,,,,,,
294673,2022-12-05_18h53.38.071,vts_reward_expectancy_bt,2022.2.4,Win32,59.97361161,Chrome,1368,912,,,,,1,1127,,,,,,,,,,,,,,,,,125,D,triangle,1,0,,,,,,,,,,,,,,,,switch,number,numSwt,d,0.4425,Hi,,,,,,3,,,,,,,,high,28,0,28,0,1,,,,,,,,,
294673,2022-12-05_18h53.38.071,vts_reward_expectancy_bt,2022.2.4,Win32,59.97361161,Chrome,1368,912,,,,,1,1128,,,,,,,,,,,,,,,,,146,S,hexagon,1,0,,,,,,,,,,,,,,,,repeat,number,numRpt,d,0.4535,Hi,,,,,,3,,,,,,,,high,29,0,29,0,1,,,,,,,,,
294673,2022-12-05_18h53.38.071,vts_reward_expectancy_bt,2022.2.4,Win32,59.97361161,Chrome,1368,912,,,,,1,1129,,,,,,,,,,,,,,,,,174,B,circle,1,0,,,,,,,,,,,,,,,,repeat,number,numRpt,f,0.4335,Lo,,,,,,3,,,,,,,,high,30,0,30,0,1,,,,,,,,,
294673,2022-12-05_18h53.38.071,vts_reward_expectancy_bt,2022.2.4,Win32,59.97361161,Chrome,1368,912,,,,,1,1130,,,,,,,,,,,,,,,,,139,W,star,1,0,,,,,,,,,,,,,,,,switch,letter,lettSwt,k,0.4814,Lo,,,,,,3,,,,,,,,high,31,0,31,0,1,,,,,,,,,
294673,2022-12-05_18h53.38.071,vts_reward_expectancy_bt,2022.2.4,Win32,59.97361161,Chrome,1368,912,,,,,0,1130,,,,,,,,,,,,,,,,,181,U,triangle,1,0,,,,,,,,,,,,,,,,repeat,letter,lettRpt,k,0.5697,Hi,,,,,,4,,,,,,space,0.6358,high,0,0,0,0,1,,,,,,,,,
294673,2022-12-05_18h53.38.071,vts_reward_expectancy_bt,2022.2.4,Win32,59.97361161,Chrome,1368,912,,,,,1,1131,,,,,,,,,,,,,,,,,139,D,star,1,0,,,,,,,,,,,,,,,,repeat,letter,lettRpt,j,0.5856,Lo,,,,,,4,,,,,,,,high,1,0,1,0,1,,,,,,,,,
294673,2022-12-05_18h53.38.071,vts_reward_expectancy_bt,2022.2.4,Win32,59.97361161,Chrome,1368,912,,,,,0,1131,,,,,,,,,,,,,,,,,125,F,circle,0,0,,,,,,,,,,,,,,,,switch,number,NA,f,0.5408,Lo,,,,,,4,,,,,,,,high,2,0,2,0,1,,,,,,,,,
294673,2022-12-05_18h53.38.071,vts_reward_expectancy_bt,2022.2.4,Win32,59.97361161,Chrome,1368,912,,,,,10,1141,,,,,,,,,,,,,,,,,174,W,hexagon,1,1,,,,,,,,,,,,,,,,switch,letter,lettSwt,k,0.4935,Hi,,,,,,4,,,,,,,,high,3,0,3,0,1,,,,,,,,,
294673,2022-12-05_18h53.38.071,vts_reward_expectancy_bt,2022.2.4,Win32,59.97361161,Chrome,1368,912,,,,,0,1141,,,,,,,,,,,,,,,,,167,H,triangle,1,0,,,,,,,,,,,,,,,,repeat,letter,lettRpt,j,0.5951,Hi,,,,,,4,,,,,,,,high,4,0,4,0,1,,,,,,,,,
294673,2022-12-05_18h53.38.071,vts_reward_expectancy_bt,2022.2.4,Win32,59.97361161,Chrome,1368,912,,,,,1,1142,,,,,,,,,,,,,,,,,132,Y,star,1,0,,,,,,,,,,,,,,,,switch,number,numSwt,d,0.5084,Lo,,,,,,4,,,,,,,,high,5,0,5,0,1,,,,,,,,,
294673,2022-12-05_18h53.38.071,vts_reward_expectancy_bt,2022.2.4,Win32,59.97361161,Chrome,1368,912,,,,,0,1142,,,,,,,,,,,,,,,,,160,B,circle,0,0,,,,,,,,,,,,,,,,repeat,number,NA,d,0.5773,Lo,,,,,,4,,,,,,,,high,6,0,6,0,1,,,,,,,,,
294673,2022-12-05_18h53.38.071,vts_reward_expectancy_bt,2022.2.4,Win32,59.97361161,Chrome,1368,912,,,,,0,1142,,,,,,,,,,,,,,,,,146,S,hexagon,1,1,,,,,,,,,,,,,,,,switch,letter,lettSwt,k,0.6745,Hi,,,,,,4,,,,,,,,high,7,0,7,0,1,,,,,,,,,
294673,2022-12-05_18h53.38.071,vts_reward_expectancy_bt,2022.2.4,Win32,59.97361161,Chrome,1368,912,,,,,1,1143,,,,,,,,,,,,,,,,,181,U,circle,1,0,,,,,,,,,,,,,,,,repeat,letter,lettRpt,k,0.4098,Lo,,,,,,4,,,,,,,,high,8,0,8,0,1,,,,,,,,,
294673,2022-12-05_18h53.38.071,vts_reward_expectancy_bt,2022.2.4,Win32,59.97361161,Chrome,1368,912,,,,,10,1153,,,,,,,,,,,,,,,,,139,D,hexagon,1,0,,,,,,,,,,,,,,,,repeat,letter,lettRpt,j,0.3231,Hi,,,,,,4,,,,,,,,high,9,0,9,0,1,,,,,,,,,
294673,2022-12-05_18h53.38.071,vts_reward_expectancy_bt,2022.2.4,Win32,59.97361161,Chrome,1368,912,,,,,1,1154,,,,,,,,,,,,,,,,,125,F,star,1,0,,,,,,,,,,,,,,,,switch,number,numSwt,d,0.4564,Lo,,,,,,4,,,,,,,,high,10,0,10,0,1,,,,,,,,,
294673,2022-12-05_18h53.38.071,vts_reward_expectancy_bt,2022.2.4,Win32,59.97361161,Chrome,1368,912,,,,,0,1154,,,,,,,,,,,,,,,,,174,W,triangle,0,0,,,,,,,,,,,,,,,,repeat,number,NA,d,0.3993,Lo,,,,,,4,,,,,,,,high,11,0,11,0,1,,,,,,,,,
294673,2022-12-05_18h53.38.071,vts_reward_expectancy_bt,2022.2.4,Win32,59.97361161,Chrome,1368,912,,,,,10,1164,,,,,,,,,,,,,,,,,167,H,triangle,1,1,,,,,,,,,,,,,,,,switch,letter,lettSwt,j,0.4854,Hi,,,,,,4,,,,,,,,high,12,0,12,0,1,,,,,,,,,
294673,2022-12-05_18h53.38.071,vts_reward_expectancy_bt,2022.2.4,Win32,59.97361161,Chrome,1368,912,,,,,1,1165,,,,,,,,,,,,,,,,,132,Y,circle,1,0,,,,,,,,,,,,,,,,repeat,letter,lettRpt,k,0.3589,Lo,,,,,,4,,,,,,,,high,13,0,13,0,1,,,,,,,,,
294673,2022-12-05_18h53.38.071,vts_reward_expectancy_bt,2022.2.4,Win32,59.97361161,Chrome,1368,912,,,,,10,1175,,,,,,,,,,,,,,,,,160,B,hexagon,1,0,,,,,,,,,,,,,,,,repeat,letter,lettRpt,j,0.3822,Hi,,,,,,4,,,,,,,,high,14,0,14,0,1,,,,,,,,,
294673,2022-12-05_18h53.38.071,vts_reward_expectancy_bt,2022.2.4,Win32,59.97361161,Chrome,1368,912,,,,,0,1175,,,,,,,,,,,,,,,,,146,S,star,0,0,,,,,,,,,,,,,,,,switch,number,NA,f,0.3742,Hi,,,,,,4,,,,,,,,high,15,0,15,0,1,,,,,,,,,
294673,2022-12-05_18h53.38.071,vts_reward_expectancy_bt,2022.2.4,Win32,59.97361161,Chrome,1368,912,,,,,1,1176,,,,,,,,,,,,,,,,,139,H,triangle,1,1,,,,,,,,,,,,,,,,repeat,number,numRpt,d,0.4466,Hi,,,,,,4,,,,,,,,high,16,0,16,0,1,,,,,,,,,
294673,2022-12-05_18h53.38.071,vts_reward_expectancy_bt,2022.2.4,Win32,59.97361161,Chrome,1368,912,,,,,10,1186,,,,,,,,,,,,,,,,,132,B,star,1,0,,,,,,,,,,,,,,,,repeat,number,numRpt,d,0.6068,Lo,,,,,,4,,,,,,,,high,17,0,17,0,1,,,,,,,,,
294673,2022-12-05_18h53.38.071,vts_reward_expectancy_bt,2022.2.4,Win32,59.97361161,Chrome,1368,912,,,,,10,1196,,,,,,,,,,,,,,,,,181,F,hexagon,1,0,,,,,,,,,,,,,,,,repeat,number,numRpt,f,0.4602,Hi,,,,,,4,,,,,,,,high,18,0,18,0,1,,,,,,,,,
294673,2022-12-05_18h53.38.071,vts_reward_expectancy_bt,2022.2.4,Win32,59.97361161,Chrome,1368,912,,,,,0,1196,,,,,,,,,,,,,,,,,174,S,circle,0,0,,,,,,,,,,,,,,,,switch,letter,NA,j,0.399,Hi,,,,,,4,,,,,,,,high,19,0,19,0,1,,,,,,,,,
294673,2022-12-05_18h53.38.071,vts_reward_expectancy_bt,2022.2.4,Win32,59.97361161,Chrome,1368,912,,,,,10,1206,,,,,,,,,,,,,,,,,160,Y,star,1,1,,,,,,,,,,,,,,,,repeat,letter,lettRpt,k,0.4429,Lo,,,,,,4,,,,,,,,high,20,0,20,0,1,,,,,,,,,
294673,2022-12-05_18h53.38.071,vts_reward_expectancy_bt,2022.2.4,Win32,59.97361161,Chrome,1368,912,,,,,10,1216,,,,,,,,,,,,,,,,,125,D,triangle,1,0,,,,,,,,,,,,,,,,repeat,letter,lettRpt,j,0.4502,Hi,,,,,,4,,,,,,,,high,21,0,21,0,1,,,,,,,,,
294673,2022-12-05_18h53.38.071,vts_reward_expectancy_bt,2022.2.4,Win32,59.97361161,Chrome,1368,912,,,,,1,1217,,,,,,,,,,,,,,,,,167,W,circle,1,0,,,,,,,,,,,,,,,,switch,number,numSwt,f,0.3869,Lo,,,,,,4,,,,,,,,high,22,0,22,0,1,,,,,,,,,
294673,2022-12-05_18h53.38.071,vts_reward_expectancy_bt,2022.2.4,Win32,59.97361161,Chrome,1368,912,,,,,10,1227,,,,,,,,,,,,,,,,,146,U,hexagon,1,0,,,,,,,,,,,,,,,,repeat,number,numRpt,d,0.4544,Hi,,,,,,4,,,,,,,,high,23,0,23,0,1,,,,,,,,,
294673,2022-12-05_18h53.38.071,vts_reward_expectancy_bt,2022.2.4,Win32,59.97361161,Chrome,1368,912,,,,,0,1227,,,,,,,,,,,,,,,,,139,Y,triangle,1,0,,,,,,,,,,,,,,,,switch,letter,lettSwt,k,0.5533,Hi,,,,,,4,,,,,,,,high,24,0,24,0,1,,,,,,,,,
294673,2022-12-05_18h53.38.071,vts_reward_expectancy_bt,2022.2.4,Win32,59.97361161,Chrome,1368,912,,,,,1,1228,,,,,,,,,,,,,,,,,132,S,star,1,0,,,,,,,,,,,,,,,,repeat,letter,lettRpt,k,0.6592,Lo,,,,,,4,,,,,,,,high,25,0,25,0,1,,,,,,,,,
294673,2022-12-05_18h53.38.071,vts_reward_expectancy_bt,2022.2.4,Win32,59.97361161,Chrome,1368,912,,,,,0,1228,,,,,,,,,,,,,,,,,125,D,hexagon,1,0,,,,,,,,,,,,,,,,repeat,letter,lettRpt,j,0.5753,Hi,,,,,,4,,,,,,,,high,26,0,26,0,1,,,,,,,,,
294673,2022-12-05_18h53.38.071,vts_reward_expectancy_bt,2022.2.4,Win32,59.97361161,Chrome,1368,912,,,,,1,1229,,,,,,,,,,,,,,,,,181,B,circle,1,0,,,,,,,,,,,,,,,,switch,number,numSwt,f,0.3892,Lo,,,,,,4,,,,,,,,high,27,0,27,0,1,,,,,,,,,
294673,2022-12-05_18h53.38.071,vts_reward_expectancy_bt,2022.2.4,Win32,59.97361161,Chrome,1368,912,,,,,0,1229,,,,,,,,,,,,,,,,,167,U,triangle,1,0,,,,,,,,,,,,,,,,repeat,number,numRpt,f,0.5573,Hi,,,,,,4,,,,,,,,high,28,0,28,0,1,,,,,,,,,
294673,2022-12-05_18h53.38.071,vts_reward_expectancy_bt,2022.2.4,Win32,59.97361161,Chrome,1368,912,,,,,0,1229,,,,,,,,,,,,,,,,,146,H,hexagon,0,0,,,,,,,,,,,,,,,,switch,letter,NA,k,0.5756,Hi,,,,,,4,,,,,,,,high,29,0,29,0,1,,,,,,,,,
294673,2022-12-05_18h53.38.071,vts_reward_expectancy_bt,2022.2.4,Win32,59.97361161,Chrome,1368,912,,,,,0,1229,,,,,,,,,,,,,,,,,160,F,star,0,1,,,,,,,,,,,,,,,,repeat,letter,NA,k,0.4417,Hi,,,,,,4,,,,,,,,high,30,0,30,0,1,,,,,,,,,
294673,2022-12-05_18h53.38.071,vts_reward_expectancy_bt,2022.2.4,Win32,59.97361161,Chrome,1368,912,,,,,1,1230,,,,,,,,,,,,,,,,,174,W,circle,1,1,,,,,,,,,,,,,,,,repeat,letter,lettRpt,k,0.4138,Lo,,,,,,4,,,,,,,,high,31,0,31,0,1,,,,,,,,,
294673,2022-12-05_18h53.38.071,vts_reward_expectancy_bt,2022.2.4,Win32,59.97361161,Chrome,1368,912,,,,,0,1230,,,,,,,,,,,,,,,,,132,S,hexagon,0,0,,,,,,,,,,,,,,,,repeat,letter,NA,j,0.4276,Lo,,,,,,5,,,,,,space,0.1051,high,0,0,0,0,1,,,,,,,,,
294673,2022-12-05_18h53.38.071,vts_reward_expectancy_bt,2022.2.4,Win32,59.97361161,Chrome,1368,912,,,,,1,1231,,,,,,,,,,,,,,,,,174,U,circle,1,1,,,,,,,,,,,,,,,,repeat,letter,lettRpt,k,0.5628,Lo,,,,,,5,,,,,,,,high,1,0,1,0,1,,,,,,,,,
294673,2022-12-05_18h53.38.071,vts_reward_expectancy_bt,2022.2.4,Win32,59.97361161,Chrome,1368,912,,,,,1,1232,,,,,,,,,,,,,,,,,160,B,star,1,0,,,,,,,,,,,,,,,,switch,number,numSwt,f,0.4479,Lo,,,,,,5,,,,,,,,high,2,0,2,0,1,,,,,,,,,
294673,2022-12-05_18h53.38.071,vts_reward_expectancy_bt,2022.2.4,Win32,59.97361161,Chrome,1368,912,,,,,1,1233,,,,,,,,,,,,,,,,,167,Y,triangle,1,0,,,,,,,,,,,,,,,,repeat,number,numRpt,f,0.4558,Hi,,,,,,5,,,,,,,,high,3,0,3,0,1,,,,,,,,,
294673,2022-12-05_18h53.38.071,vts_reward_expectancy_bt,2022.2.4,Win32,59.97361161,Chrome,1368,912,,,,,0,1233,,,,,,,,,,,,,,,,,125,H,hexagon,1,0,,,,,,,,,,,,,,,,switch,letter,lettSwt,j,0.5047,Hi,,,,,,5,,,,,,,,high,4,0,4,0,1,,,,,,,,,
294673,2022-12-05_18h53.38.071,vts_reward_expectancy_bt,2022.2.4,Win32,59.97361161,Chrome,1368,912,,,,,10,1243,,,,,,,,,,,,,,,,,139,W,circle,1,0,,,,,,,,,,,,,,,,repeat,letter,lettRpt,k,0.4188,Lo,,,,,,5,,,,,,,,high,5,0,5,0,1,,,,,,,,,
294673,2022-12-05_18h53.38.071,vts_reward_expectancy_bt,2022.2.4,Win32,59.97361161,Chrome,1368,912,,,,,0,1243,,,,,,,,,,,,,,,,,146,F,star,0,0,,,,,,,,,,,,,,,,repeat,letter,NA,k,0.3926,Lo,,,,,,5,,,,,,,,high,6,0,6,0,1,,,,,,,,,
294673,2022-12-05_18h53.38.071,vts_reward_expectancy_bt,2022.2.4,Win32,59.97361161,Chrome,1368,912,,,,,0,1243,,,,,,,,,,,,,,,,,181,D,triangle,1,1,,,,,,,,,,,,,,,,switch,number,numSwt,f,0.3927,Hi,,,,,,5,,,,,,,,high,7,0,7,0,1,,,,,,,,,
294673,2022-12-05_18h53.38.071,vts_reward_expectancy_bt,2022.2.4,Win32,59.97361161,Chrome,1368,912,,,,,1,1244,,,,,,,,,,,,,,,,,132,S,star,1,0,,,,,,,,,,,,,,,,repeat,number,numRpt,d,0.4938,Lo,,,,,,5,,,,,,,,high,8,0,8,0,1,,,,,,,,,
294673,2022-12-05_18h53.38.071,vts_reward_expectancy_bt,2022.2.4,Win32,59.97361161,Chrome,1368,912,,,,,1,1245,,,,,,,,,,,,,,,,,174,U,circle,1,0,,,,,,,,,,,,,,,,switch,letter,lettSwt,k,0.4805,Lo,,,,,,5,,,,,,,,high,9,0,9,0,1,,,,,,,,,
294673,2022-12-05_18h53.38.071,vts_reward_expectancy_bt,2022.2.4,Win32,59.97361161,Chrome,1368,912,,,,,0,1245,,,,,,,,,,,,,,,,,160,B,hexagon,1,0,,,,,,,,,,,,,,,,switch,number,numSwt,f,0.5912,Hi,,,,,,5,,,,,,,,high,10,0,10,0,1,,,,,,,,,
294673,2022-12-05_18h53.38.071,vts_reward_expectancy_bt,2022.2.4,Win32,59.97361161,Chrome,1368,912,,,,,10,1255,,,,,,,,,,,,,,,,,167,Y,triangle,1,0,,,,,,,,,,,,,,,,repeat,number,numRpt,f,0.442,Hi,,,,,,5,,,,,,,,high,11,0,11,0,1,,,,,,,,,
294673,2022-12-05_18h53.38.071,vts_reward_expectancy_bt,2022.2.4,Win32,59.97361161,Chrome,1368,912,,,,,0,1255,,,,,,,,,,,,,,,,,125,H,star,0,0,,,,,,,,,,,,,,,,switch,letter,NA,k,0.5913,Hi,,,,,,5,,,,,,,,high,12,0,12,0,1,,,,,,,,,
294673,2022-12-05_18h53.38.071,vts_reward_expectancy_bt,2022.2.4,Win32,59.97361161,Chrome,1368,912,,,,,1,1256,,,,,,,,,,,,,,,,,139,W,circle,1,1,,,,,,,,,,,,,,,,repeat,letter,lettRpt,k,0.5027,Lo,,,,,,5,,,,,,,,high,13,0,13,0,1,,,,,,,,,
294673,2022-12-05_18h53.38.071,vts_reward_expectancy_bt,2022.2.4,Win32,59.97361161,Chrome,1368,912,,,,,0,1256,,,,,,,,,,,,,,,,,146,F,triangle,1,0,,,,,,,,,,,,,,,,repeat,letter,lettRpt,j,0.4482,Hi,,,,,,5,,,,,,,,high,14,0,14,0,1,,,,,,,,,
294673,2022-12-05_18h53.38.071,vts_reward_expectancy_bt,2022.2.4,Win32,59.97361161,Chrome,1368,912,,,,,0,1256,,,,,,,,,,,,,,,,,181,D,hexagon,0,0,,,,,,,,,,,,,,,,switch,number,NA,d,0.377,Hi,,,,,,5,,,,,,,,high,15,0,15,0,1,,,,,,,,,
294673,2022-12-05_18h53.38.071,vts_reward_expectancy_bt,2022.2.4,Win32,59.97361161,Chrome,1368,912,,,,,1,1257,,,,,,,,,,,,,,,,,160,Y,star,1,1,,,,,,,,,,,,,,,,repeat,number,numRpt,f,0.6736,Lo,,,,,,5,,,,,,,,high,16,0,16,0,1,,,,,,,,,
294673,2022-12-05_18h53.38.071,vts_reward_expectancy_bt,2022.2.4,Win32,59.97361161,Chrome,1368,912,,,,,10,1267,,,,,,,,,,,,,,,,,132,B,triangle,1,0,,,,,,,,,,,,,,,,repeat,number,numRpt,d,0.4033,Hi,,,,,,5,,,,,,,,high,17,0,17,0,1,,,,,,,,,
294673,2022-12-05_18h53.38.071,vts_reward_expectancy_bt,2022.2.4,Win32,59.97361161,Chrome,1368,912,,,,,1,1268,,,,,,,,,,,,,,,,,139,H,circle,1,0,,,,,,,,,,,,,,,,switch,letter,lettSwt,j,0.3741,Lo,,,,,,5,,,,,,,,high,18,0,18,0,1,,,,,,,,,
294673,2022-12-05_18h53.38.071,vts_reward_expectancy_bt,2022.2.4,Win32,59.97361161,Chrome,1368,912,,,,,0,1268,,,,,,,,,,,,,,,,,125,U,hexagon,1,0,,,,,,,,,,,,,,,,repeat,letter,lettRpt,k,0.4767,Hi,,,,,,5,,,,,,,,high,19,0,19,0,1,,,,,,,,,
294673,2022-12-05_18h53.38.071,vts_reward_expectancy_bt,2022.2.4,Win32,59.97361161,Chrome,1368,912,,,,,0,1268,,,,,,,,,,,,,,,,,174,W,star,0,0,,,,,,,,,,,,,,,,repeat,letter,NA,j,0.4208,Hi,,,,,,5,,,,,,,,high,20,0,20,0,1,,,,,,,,,
294673,2022-12-05_18h53.38.071,vts_reward_expectancy_bt,2022.2.4,Win32,59.97361161,Chrome,1368,912,,,,,0,1268,,,,,,,,,,,,,,,,,167,F,hexagon,0,1,,,,,,,,,,,,,,,,repeat,letter,NA,k,0.4905,Hi,,,,,,5,,,,,,,,high,21,0,21,0,1,,,,,,,,,
294673,2022-12-05_18h53.38.071,vts_reward_expectancy_bt,2022.2.4,Win32,59.97361161,Chrome,1368,912,,,,,1,1269,,,,,,,,,,,,,,,,,146,S,circle,1,1,,,,,,,,,,,,,,,,switch,number,numSwt,d,0.6433,Lo,,,,,,5,,,,,,,,high,22,0,22,0,1,,,,,,,,,
294673,2022-12-05_18h53.38.071,vts_reward_expectancy_bt,2022.2.4,Win32,59.97361161,Chrome,1368,912,,,,,0,1269,,,,,,,,,,,,,,,,,181,D,triangle,0,0,,,,,,,,,,,,,,,,repeat,number,NA,d,0.394,Lo,,,,,,5,,,,,,,,high,23,0,23,0,1,,,,,,,,,
294673,2022-12-05_18h53.38.071,vts_reward_expectancy_bt,2022.2.4,Win32,59.97361161,Chrome,1368,912,,,,,1,1270,,,,,,,,,,,,,,,,,146,D,circle,1,1,,,,,,,,,,,,,,,,repeat,number,numRpt,d,0.6271,Lo,,,,,,5,,,,,,,,high,24,0,24,0,1,,,,,,,,,
294673,2022-12-05_18h53.38.071,vts_reward_expectancy_bt,2022.2.4,Win32,59.97361161,Chrome,1368,912,,,,,1,1271,,,,,,,,,,,,,,,,,181,S,star,1,0,,,,,,,,,,,,,,,,repeat,number,numRpt,f,0.5774,Lo,,,,,,5,,,,,,,,high,25,0,25,0,1,,,,,,,,,
294673,2022-12-05_18h53.38.071,vts_reward_expectancy_bt,2022.2.4,Win32,59.97361161,Chrome,1368,912,,,,,0,1271,,,,,,,,,,,,,,,,,160,F,hexagon,1,0,,,,,,,,,,,,,,,,switch,letter,lettSwt,j,0.5492,Hi,,,,,,5,,,,,,,,high,26,0,26,0,1,,,,,,,,,
294673,2022-12-05_18h53.38.071,vts_reward_expectancy_bt,2022.2.4,Win32,59.97361161,Chrome,1368,912,,,,,10,1281,,,,,,,,,,,,,,,,,174,Y,triangle,1,0,,,,,,,,,,,,,,,,repeat,letter,lettRpt,k,0.3636,Hi,,,,,,5,,,,,,,,high,27,0,27,0,1,,,,,,,,,
294673,2022-12-05_18h53.38.071,vts_reward_expectancy_bt,2022.2.4,Win32,59.97361161,Chrome,1368,912,,,,,0,1281,,,,,,,,,,,,,,,,,125,B,triangle,1,0,,,,,,,,,,,,,,,,repeat,letter,lettRpt,j,0.4147,Hi,,,,,,5,,,,,,,,high,28,0,28,0,1,,,,,,,,,
294673,2022-12-05_18h53.38.071,vts_reward_expectancy_bt,2022.2.4,Win32,59.97361161,Chrome,1368,912,,,,,0,1281,,,,,,,,,,,,,,,,,139,U,circle,0,0,,,,,,,,,,,,,,,,repeat,letter,NA,j,0.4309,Hi,,,,,,5,,,,,,,,high,29,0,29,0,1,,,,,,,,,
294673,2022-12-05_18h53.38.071,vts_reward_expectancy_bt,2022.2.4,Win32,59.97361161,Chrome,1368,912,,,,,0,1281,,,,,,,,,,,,,,,,,167,W,hexagon,1,1,,,,,,,,,,,,,,,,switch,number,numSwt,f,0.509,Hi,,,,,,5,,,,,,,,high,30,0,30,0,1,,,,,,,,,
294673,2022-12-05_18h53.38.071,vts_reward_expectancy_bt,2022.2.4,Win32,59.97361161,Chrome,1368,912,,,,,0,1281,,,,,,,,,,,,,,,,,132,H,star,0,0,,,,,,,,,,,,,,,,repeat,number,NA,f,0.0835,Hi,,,,,,5,,,,,,,,high,31,0,31,0,1,,,,,,,,,
294673,2022-12-05_18h53.38.071,vts_reward_expectancy_bt,2022.2.4,Win32,59.97361161,Chrome,1368,912,,,,,0,1281,,,,,,,,,,,,,,,,,181,Y,circle,0,1,,,,,,,,,,,,,,,,switch,letter,NA,j,0.5104,Hi,,,,,,6,,,,,,space,0.0128,high,0,0,0,0,1,,,,,,,,,
294673,2022-12-05_18h53.38.071,vts_reward_expectancy_bt,2022.2.4,Win32,59.97361161,Chrome,1368,912,,,,,0,1281,,,,,,,,,,,,,,,,,174,F,triangle,1,1,,,,,,,,,,,,,,,,repeat,letter,lettRpt,j,0.7258,Hi,,,,,,6,,,,,,,,high,1,0,1,0,1,,,,,,,,,
294673,2022-12-05_18h53.38.071,vts_reward_expectancy_bt,2022.2.4,Win32,59.97361161,Chrome,1368,912,,,,,10,1291,,,,,,,,,,,,,,,,,132,W,hexagon,1,0,,,,,,,,,,,,,,,,repeat,letter,lettRpt,k,0.3621,Hi,,,,,,6,,,,,,,,high,2,0,2,0,1,,,,,,,,,
294673,2022-12-05_18h53.38.071,vts_reward_expectancy_bt,2022.2.4,Win32,59.97361161,Chrome,1368,912,,,,,1,1292,,,,,,,,,,,,,,,,,139,U,star,1,0,,,,,,,,,,,,,,,,switch,number,numSwt,d,0.4431,Lo,,,,,,6,,,,,,,,high,3,0,3,0,1,,,,,,,,,
294673,2022-12-05_18h53.38.071,vts_reward_expectancy_bt,2022.2.4,Win32,59.97361161,Chrome,1368,912,,,,,0,1292,,,,,,,,,,,,,,,,,125,H,circle,0,0,,,,,,,,,,,,,,,,repeat,number,NA,f,0.4595,Lo,,,,,,6,,,,,,,,high,4,0,4,0,1,,,,,,,,,
294673,2022-12-05_18h53.38.071,vts_reward_expectancy_bt,2022.2.4,Win32,59.97361161,Chrome,1368,912,,,,,0,1292,,,,,,,,,,,,,,,,,160,D,triangle,0,1,,,,,,,,,,,,,,,,repeat,number,NA,d,0.4299,Lo,,,,,,6,,,,,,,,high,5,0,5,0,1,,,,,,,,,
294673,2022-12-05_18h53.38.071,vts_reward_expectancy_bt,2022.2.4,Win32,59.97361161,Chrome,1368,912,,,,,1,1293,,,,,,,,,,,,,,,,,146,B,hexagon,1,1,,,,,,,,,,,,,,,,switch,letter,lettSwt,j,0.0539,Hi,,,,,,6,,,,,,,,high,6,0,6,0,1,,,,,,,,,
294673,2022-12-05_18h53.38.071,vts_reward_expectancy_bt,2022.2.4,Win32,59.97361161,Chrome,1368,912,,,,,1,1294,,,,,,,,,,,,,,,,,167,S,star,1,0,,,,,,,,,,,,,,,,repeat,letter,lettRpt,k,0.6736,Lo,,,,,,6,,,,,,,,high,7,0,7,0,1,,,,,,,,,
294673,2022-12-05_18h53.38.071,vts_reward_expectancy_bt,2022.2.4,Win32,59.97361161,Chrome,1368,912,,,,,1,1295,,,,,,,,,,,,,,,,,181,Y,circle,1,0,,,,,,,,,,,,,,,,repeat,letter,lettRpt,k,0.4443,Lo,,,,,,6,,,,,,,,high,8,0,8,0,1,,,,,,,,,
294673,2022-12-05_18h53.38.071,vts_reward_expectancy_bt,2022.2.4,Win32,59.97361161,Chrome,1368,912,,,,,0,1295,,,,,,,,,,,,,,,,,174,F,triangle,0,0,,,,,,,,,,,,,,,,switch,number,NA,d,0.4188,Lo,,,,,,6,,,,,,,,high,9,0,9,0,1,,,,,,,,,
294673,2022-12-05_18h53.38.071,vts_reward_expectancy_bt,2022.2.4,Win32,59.97361161,Chrome,1368,912,,,,,0,1295,,,,,,,,,,,,,,,,,132,W,hexagon,1,1,,,,,,,,,,,,,,,,repeat,number,numRpt,d,0.5584,Hi,,,,,,6,,,,,,,,high,10,0,10,0,1,,,,,,,,,
294673,2022-12-05_18h53.38.071,vts_reward_expectancy_bt,2022.2.4,Win32,59.97361161,Chrome,1368,912,,,,,1,1296,,,,,,,,,,,,,,,,,139,U,star,1,0,,,,,,,,,,,,,,,,switch,letter,lettSwt,k,0.5445,Lo,,,,,,6,,,,,,,,high,11,0,11,0,1,,,,,,,,,
294673,2022-12-05_18h53.38.071,vts_reward_expectancy_bt,2022.2.4,Win32,59.97361161,Chrome,1368,912,,,,,0,1296,,,,,,,,,,,,,,,,,125,H,hexagon,1,0,,,,,,,,,,,,,,,,repeat,letter,lettRpt,j,0.5459,Hi,,,,,,6,,,,,,,,high,12,0,12,0,1,,,,,,,,,
294673,2022-12-05_18h53.38.071,vts_reward_expectancy_bt,2022.2.4,Win32,59.97361161,Chrome,1368,912,,,,,0,1296,,,,,,,,,,,,,,,,,160,D,triangle,1,0,,,,,,,,,,,,,,,,repeat,letter,lettRpt,j,0.6575,Hi,,,,,,6,,,,,,,,high,13,0,13,0,1,,,,,,,,,
294673,2022-12-05_18h53.38.071,vts_reward_expectancy_bt,2022.2.4,Win32,59.97361161,Chrome,1368,912,,,,,1,1297,,,,,,,,,,,,,,,,,146,B,circle,1,0,,,,,,,,,,,,,,,,repeat,letter,lettRpt,j,0.4372,Lo,,,,,,6,,,,,,,,high,14,0,14,0,1,,,,,,,,,
294673,2022-12-05_18h53.38.071,vts_reward_expectancy_bt,2022.2.4,Win32,59.97361161,Chrome,1368,912,,,,,1,1298,,,,,,,,,,,,,,,,,167,S,star,1,0,,,,,,,,,,,,,,,,switch,number,numSwt,f,0.5904,Lo,,,,,,6,,,,,,,,high,15,0,15,0,1,,,,,,,,,
