participant,date,expName,psychopyVersion,OS,frameRate,browser,xResolution,yResolution,key_resp.keys,key_resp.rt,training_resp.keys,training_resp.rt,points_trial,points_cumul,trainBlock,training.thisRepN,training.thisTrialN,training.thisN,training.thisIndex,training.ran,LTriangleOpac,LCircleOpac,LHexagonOpac,LStarOpac,RTriangleOpac,RCircleOpac,RHexagonOpac,RStarOpac,LShape_ID,RShape_ID,curr_topStim,curr_bottStim,curr_shape,acc,E1,target_resp_prac1.keys,pracBlock,task1_prac_trials.thisRepN,task1_prac_trials.thisTrialN,task1_prac_trials.thisN,task1_prac_trials.thisIndex,task1_prac_trials.ran,target_resp_prac1.rt,target_resp_prac2.keys,target_resp_prac2.rt,task2_praac_trials.thisRepN,task2_praac_trials.thisTrialN,task2_praac_trials.thisN,task2_praac_trials.thisIndex,task2_praac_trials.ran,alt,task,condition,target_resp.keys,target_resp.rt,rewCond,vts_practice_trials.thisRepN,vts_practice_trials.thisTrialN,vts_practice_trials.thisN,vts_practice_trials.thisIndex,vts_practice_trials.ran,blockNum,trials_norew.thisRepN,trials_norew.thisTrialN,trials_norew.thisN,trials_norew.thisIndex,trials_norew.ran,key_resp_2.keys,key_resp_2.rt,rewExpectancy,trials_rew.thisRepN,trials_rew.thisTrialN,trials_rew.thisN,trials_rew.thisIndex,trials_rew.ran,Q1,Q2,Q2_text,Q3,Q4,Q5_text,Q5,xRes,yRes
294685,2022-11-28_24h15.16.431,vts_reward_expectancy_bt,2022.2.4,MacIntel,60.0024001,Chrome,1440,900,,,,,,,,,,,,,,,,,,,,,,,,,,,,,,,,,,,,,,,,,,,,,,,,,,,,,,,,,,,,,,,,,,,,,,,,,,,,
294685,2022-11-28_24h15.16.431,vts_reward_expectancy_bt,2022.2.4,MacIntel,60.0024001,Chrome,1440,900,space,11.6405,,,,,,,,,,,,,,,,,,,,,,,,,,,,,,,,,,,,,,,,,,,,,,,,,,,,,,,,,,,,,,,,,,,,,,,,,,
294685,2022-11-28_24h15.16.431,vts_reward_expectancy_bt,2022.2.4,MacIntel,60.0024001,Chrome,1440,900,,,,,,,,,,,,,,,,,,,,,,,,,,,,,,,,,,,,,,,,,,,,,,,,,,,,,,,,,,,,,,,,,,,,,,,,,,,,
294685,2022-11-28_24h15.16.431,vts_reward_expectancy_bt,2022.2.4,MacIntel,60.0024001,Chrome,1440,900,,,a,3.2677,1,1,0,0,0,0,6,1,0,0,1,0,1,0,0,0,hexagon,triangle,,,,,,,,,,,,,,,,,,,,,,,,,,,,,,,,,,,,,,,,,,,,,,,,,,,,,,
294685,2022-11-28_24h15.16.431,vts_reward_expectancy_bt,2022.2.4,MacIntel,60.0024001,Chrome,1440,900,,,l,1.872,1,2,0,0,1,1,3,1,0,1,0,0,1,0,0,0,circle,triangle,,,,,,,,,,,,,,,,,,,,,,,,,,,,,,,,,,,,,,,,,,,,,,,,,,,,,,
294685,2022-11-28_24h15.16.431,vts_reward_expectancy_bt,2022.2.4,MacIntel,60.0024001,Chrome,1440,900,,,l,2.2561,10,12,0,0,2,2,2,1,1,0,0,0,0,0,0,1,triangle,star,,,,,,,,,,,,,,,,,,,,,,,,,,,,,,,,,,,,,,,,,,,,,,,,,,,,,,
294685,2022-11-28_24h15.16.431,vts_reward_expectancy_bt,2022.2.4,MacIntel,60.0024001,Chrome,1440,900,,,a,1.1376,1,13,0,0,3,3,1,1,1,0,0,0,0,0,1,0,triangle,hexagon,,,,,,,,,,,,,,,,,,,,,,,,,,,,,,,,,,,,,,,,,,,,,,,,,,,,,,
294685,2022-11-28_24h15.16.431,vts_reward_expectancy_bt,2022.2.4,MacIntel,60.0024001,Chrome,1440,900,,,l,0.7373,10,23,0,0,4,4,4,1,0,1,0,0,0,0,1,0,circle,hexagon,,,,,,,,,,,,,,,,,,,,,,,,,,,,,,,,,,,,,,,,,,,,,,,,,,,,,,
294685,2022-11-28_24h15.16.431,vts_reward_expectancy_bt,2022.2.4,MacIntel,60.0024001,Chrome,1440,900,,,l,0.5793,10,33,0,0,5,5,11,1,0,0,0,1,0,0,1,0,star,hexagon,,,,,,,,,,,,,,,,,,,,,,,,,,,,,,,,,,,,,,,,,,,,,,,,,,,,,,
294685,2022-11-28_24h15.16.431,vts_reward_expectancy_bt,2022.2.4,MacIntel,60.0024001,Chrome,1440,900,,,l,1.1705,1,34,0,0,6,6,9,1,0,0,0,1,1,0,0,0,star,triangle,,,,,,,,,,,,,,,,,,,,,,,,,,,,,,,,,,,,,,,,,,,,,,,,,,,,,,
294685,2022-11-28_24h15.16.431,vts_reward_expectancy_bt,2022.2.4,MacIntel,60.0024001,Chrome,1440,900,,,l,1.5848,1,35,0,0,7,7,5,1,0,1,0,0,0,0,0,1,circle,star,,,,,,,,,,,,,,,,,,,,,,,,,,,,,,,,,,,,,,,,,,,,,,,,,,,,,,
294685,2022-11-28_24h15.16.431,vts_reward_expectancy_bt,2022.2.4,MacIntel,60.0024001,Chrome,1440,900,,,a,0.5819,1,36,0,0,8,8,0,1,1,0,0,0,0,1,0,0,triangle,circle,,,,,,,,,,,,,,,,,,,,,,,,,,,,,,,,,,,,,,,,,,,,,,,,,,,,,,
294685,2022-11-28_24h15.16.431,vts_reward_expectancy_bt,2022.2.4,MacIntel,60.0024001,Chrome,1440,900,,,a,0.6951,10,46,0,0,9,9,8,1,0,0,1,0,0,0,0,1,hexagon,star,,,,,,,,,,,,,,,,,,,,,,,,,,,,,,,,,,,,,,,,,,,,,,,,,,,,,,
294685,2022-11-28_24h15.16.431,vts_reward_expectancy_bt,2022.2.4,MacIntel,60.0024001,Chrome,1440,900,,,l,1.592,1,47,0,0,10,10,7,1,0,0,1,0,0,1,0,0,hexagon,circle,,,,,,,,,,,,,,,,,,,,,,,,,,,,,,,,,,,,,,,,,,,,,,,,,,,,,,
294685,2022-11-28_24h15.16.431,vts_reward_expectancy_bt,2022.2.4,MacIntel,60.0024001,Chrome,1440,900,,,a,0.8153,1,48,0,0,11,11,10,1,0,0,0,1,0,1,0,0,star ,circle,,,,,,,,,,,,,,,,,,,,,,,,,,,,,,,,,,,,,,,,,,,,,,,,,,,,,,
294685,2022-11-28_24h15.16.431,vts_reward_expectancy_bt,2022.2.4,MacIntel,60.0024001,Chrome,1440,900,,,l,0.778,1,49,0,1,0,12,9,1,0,0,0,1,1,0,0,0,star,triangle,,,,,,,,,,,,,,,,,,,,,,,,,,,,,,,,,,,,,,,,,,,,,,,,,,,,,,
294685,2022-11-28_24h15.16.431,vts_reward_expectancy_bt,2022.2.4,MacIntel,60.0024001,Chrome,1440,900,,,l,0.4653,1,50,0,1,1,13,6,1,0,0,1,0,1,0,0,0,hexagon,triangle,,,,,,,,,,,,,,,,,,,,,,,,,,,,,,,,,,,,,,,,,,,,,,,,,,,,,,
294685,2022-11-28_24h15.16.431,vts_reward_expectancy_bt,2022.2.4,MacIntel,60.0024001,Chrome,1440,900,,,l,0.6974,10,60,0,1,2,14,3,1,0,1,0,0,1,0,0,0,circle,triangle,,,,,,,,,,,,,,,,,,,,,,,,,,,,,,,,,,,,,,,,,,,,,,,,,,,,,,
294685,2022-11-28_24h15.16.431,vts_reward_expectancy_bt,2022.2.4,MacIntel,60.0024001,Chrome,1440,900,,,l,0.5783,10,70,0,1,3,15,10,1,0,0,0,1,0,1,0,0,star ,circle,,,,,,,,,,,,,,,,,,,,,,,,,,,,,,,,,,,,,,,,,,,,,,,,,,,,,,
294685,2022-11-28_24h15.16.431,vts_reward_expectancy_bt,2022.2.4,MacIntel,60.0024001,Chrome,1440,900,,,a,0.4924,10,80,0,1,4,16,5,1,0,1,0,0,0,0,0,1,circle,star,,,,,,,,,,,,,,,,,,,,,,,,,,,,,,,,,,,,,,,,,,,,,,,,,,,,,,
294685,2022-11-28_24h15.16.431,vts_reward_expectancy_bt,2022.2.4,MacIntel,60.0024001,Chrome,1440,900,,,a,0.4301,10,90,0,1,5,17,11,1,0,0,0,1,0,0,1,0,star,hexagon,,,,,,,,,,,,,,,,,,,,,,,,,,,,,,,,,,,,,,,,,,,,,,,,,,,,,,
294685,2022-11-28_24h15.16.431,vts_reward_expectancy_bt,2022.2.4,MacIntel,60.0024001,Chrome,1440,900,,,l,0.4818,1,91,0,1,6,18,8,1,0,0,1,0,0,0,0,1,hexagon,star,,,,,,,,,,,,,,,,,,,,,,,,,,,,,,,,,,,,,,,,,,,,,,,,,,,,,,
294685,2022-11-28_24h15.16.431,vts_reward_expectancy_bt,2022.2.4,MacIntel,60.0024001,Chrome,1440,900,,,l,0.4037,1,92,0,1,7,19,0,1,1,0,0,0,0,1,0,0,triangle,circle,,,,,,,,,,,,,,,,,,,,,,,,,,,,,,,,,,,,,,,,,,,,,,,,,,,,,,
294685,2022-11-28_24h15.16.431,vts_reward_expectancy_bt,2022.2.4,MacIntel,60.0024001,Chrome,1440,900,,,l,0.3871,10,102,0,1,8,20,4,1,0,1,0,0,0,0,1,0,circle,hexagon,,,,,,,,,,,,,,,,,,,,,,,,,,,,,,,,,,,,,,,,,,,,,,,,,,,,,,
294685,2022-11-28_24h15.16.431,vts_reward_expectancy_bt,2022.2.4,MacIntel,60.0024001,Chrome,1440,900,,,l,0.6494,1,103,0,1,9,21,2,1,1,0,0,0,0,0,0,1,triangle,star,,,,,,,,,,,,,,,,,,,,,,,,,,,,,,,,,,,,,,,,,,,,,,,,,,,,,,
294685,2022-11-28_24h15.16.431,vts_reward_expectancy_bt,2022.2.4,MacIntel,60.0024001,Chrome,1440,900,,,a,0.6546,10,113,0,1,10,22,7,1,0,0,1,0,0,1,0,0,hexagon,circle,,,,,,,,,,,,,,,,,,,,,,,,,,,,,,,,,,,,,,,,,,,,,,,,,,,,,,
294685,2022-11-28_24h15.16.431,vts_reward_expectancy_bt,2022.2.4,MacIntel,60.0024001,Chrome,1440,900,,,a,1.2245,1,114,0,1,11,23,1,1,1,0,0,0,0,0,1,0,triangle,hexagon,,,,,,,,,,,,,,,,,,,,,,,,,,,,,,,,,,,,,,,,,,,,,,,,,,,,,,
294685,2022-11-28_24h15.16.431,vts_reward_expectancy_bt,2022.2.4,MacIntel,60.0024001,Chrome,1440,900,,,l,0.8025,1,115,0,2,0,24,5,1,0,1,0,0,0,0,0,1,circle,star,,,,,,,,,,,,,,,,,,,,,,,,,,,,,,,,,,,,,,,,,,,,,,,,,,,,,,
294685,2022-11-28_24h15.16.431,vts_reward_expectancy_bt,2022.2.4,MacIntel,60.0024001,Chrome,1440,900,,,a,0.4577,10,125,0,2,1,25,8,1,0,0,1,0,0,0,0,1,hexagon,star,,,,,,,,,,,,,,,,,,,,,,,,,,,,,,,,,,,,,,,,,,,,,,,,,,,,,,
294685,2022-11-28_24h15.16.431,vts_reward_expectancy_bt,2022.2.4,MacIntel,60.0024001,Chrome,1440,900,,,a,1.3726,10,135,0,2,2,26,3,1,0,1,0,0,1,0,0,0,circle,triangle,,,,,,,,,,,,,,,,,,,,,,,,,,,,,,,,,,,,,,,,,,,,,,,,,,,,,,
294685,2022-11-28_24h15.16.431,vts_reward_expectancy_bt,2022.2.4,MacIntel,60.0024001,Chrome,1440,900,,,l,0.947,1,136,0,2,3,27,2,1,1,0,0,0,0,0,0,1,triangle,star,,,,,,,,,,,,,,,,,,,,,,,,,,,,,,,,,,,,,,,,,,,,,,,,,,,,,,
294685,2022-11-28_24h15.16.431,vts_reward_expectancy_bt,2022.2.4,MacIntel,60.0024001,Chrome,1440,900,,,l,1.1276,10,146,0,2,4,28,4,1,0,1,0,0,0,0,1,0,circle,hexagon,,,,,,,,,,,,,,,,,,,,,,,,,,,,,,,,,,,,,,,,,,,,,,,,,,,,,,
294685,2022-11-28_24h15.16.431,vts_reward_expectancy_bt,2022.2.4,MacIntel,60.0024001,Chrome,1440,900,,,a,0.7462,1,147,0,2,5,29,7,1,0,0,1,0,0,1,0,0,hexagon,circle,,,,,,,,,,,,,,,,,,,,,,,,,,,,,,,,,,,,,,,,,,,,,,,,,,,,,,
294685,2022-11-28_24h15.16.431,vts_reward_expectancy_bt,2022.2.4,MacIntel,60.0024001,Chrome,1440,900,,,a,1.0181,10,157,0,2,6,30,6,1,0,0,1,0,1,0,0,0,hexagon,triangle,,,,,,,,,,,,,,,,,,,,,,,,,,,,,,,,,,,,,,,,,,,,,,,,,,,,,,
294685,2022-11-28_24h15.16.431,vts_reward_expectancy_bt,2022.2.4,MacIntel,60.0024001,Chrome,1440,900,,,l,1.7851,10,167,0,2,7,31,11,1,0,0,0,1,0,0,1,0,star,hexagon,,,,,,,,,,,,,,,,,,,,,,,,,,,,,,,,,,,,,,,,,,,,,,,,,,,,,,
294685,2022-11-28_24h15.16.431,vts_reward_expectancy_bt,2022.2.4,MacIntel,60.0024001,Chrome,1440,900,,,l,1.5776,1,168,0,2,8,32,10,1,0,0,0,1,0,1,0,0,star ,circle,,,,,,,,,,,,,,,,,,,,,,,,,,,,,,,,,,,,,,,,,,,,,,,,,,,,,,
294685,2022-11-28_24h15.16.431,vts_reward_expectancy_bt,2022.2.4,MacIntel,60.0024001,Chrome,1440,900,,,l,1.0822,1,169,0,2,9,33,1,1,1,0,0,0,0,0,1,0,triangle,hexagon,,,,,,,,,,,,,,,,,,,,,,,,,,,,,,,,,,,,,,,,,,,,,,,,,,,,,,
294685,2022-11-28_24h15.16.431,vts_reward_expectancy_bt,2022.2.4,MacIntel,60.0024001,Chrome,1440,900,,,a,0.7955,1,170,0,2,10,34,9,1,0,0,0,1,1,0,0,0,star,triangle,,,,,,,,,,,,,,,,,,,,,,,,,,,,,,,,,,,,,,,,,,,,,,,,,,,,,,
294685,2022-11-28_24h15.16.431,vts_reward_expectancy_bt,2022.2.4,MacIntel,60.0024001,Chrome,1440,900,,,l,1.3815,10,180,0,2,11,35,0,1,1,0,0,0,0,1,0,0,triangle,circle,,,,,,,,,,,,,,,,,,,,,,,,,,,,,,,,,,,,,,,,,,,,,,,,,,,,,,
294685,2022-11-28_24h15.16.431,vts_reward_expectancy_bt,2022.2.4,MacIntel,60.0024001,Chrome,1440,900,,,l,1.2219,10,190,1,0,0,0,4,1,0,1,0,0,0,0,1,0,circle,hexagon,,,,,,,,,,,,,,,,,,,,,,,,,,,,,,,,,,,,,,,,,,,,,,,,,,,,,,
294685,2022-11-28_24h15.16.431,vts_reward_expectancy_bt,2022.2.4,MacIntel,60.0024001,Chrome,1440,900,,,l,1.1838,10,200,1,0,1,1,0,1,1,0,0,0,0,1,0,0,triangle,circle,,,,,,,,,,,,,,,,,,,,,,,,,,,,,,,,,,,,,,,,,,,,,,,,,,,,,,
294685,2022-11-28_24h15.16.431,vts_reward_expectancy_bt,2022.2.4,MacIntel,60.0024001,Chrome,1440,900,,,a,0.85,1,201,1,0,2,2,9,1,0,0,0,1,1,0,0,0,star,triangle,,,,,,,,,,,,,,,,,,,,,,,,,,,,,,,,,,,,,,,,,,,,,,,,,,,,,,
294685,2022-11-28_24h15.16.431,vts_reward_expectancy_bt,2022.2.4,MacIntel,60.0024001,Chrome,1440,900,,,l,0.6122,1,202,1,0,3,3,3,1,0,1,0,0,1,0,0,0,circle,triangle,,,,,,,,,,,,,,,,,,,,,,,,,,,,,,,,,,,,,,,,,,,,,,,,,,,,,,
294685,2022-11-28_24h15.16.431,vts_reward_expectancy_bt,2022.2.4,MacIntel,60.0024001,Chrome,1440,900,,,l,1.4116,1,203,1,0,4,4,5,1,0,1,0,0,0,0,0,1,circle,star,,,,,,,,,,,,,,,,,,,,,,,,,,,,,,,,,,,,,,,,,,,,,,,,,,,,,,
294685,2022-11-28_24h15.16.431,vts_reward_expectancy_bt,2022.2.4,MacIntel,60.0024001,Chrome,1440,900,,,a,0.5852,1,204,1,0,5,5,11,1,0,0,0,1,0,0,1,0,star,hexagon,,,,,,,,,,,,,,,,,,,,,,,,,,,,,,,,,,,,,,,,,,,,,,,,,,,,,,
294685,2022-11-28_24h15.16.431,vts_reward_expectancy_bt,2022.2.4,MacIntel,60.0024001,Chrome,1440,900,,,l,0.7488,1,205,1,0,6,6,6,1,0,0,1,0,1,0,0,0,hexagon,triangle,,,,,,,,,,,,,,,,,,,,,,,,,,,,,,,,,,,,,,,,,,,,,,,,,,,,,,
294685,2022-11-28_24h15.16.431,vts_reward_expectancy_bt,2022.2.4,MacIntel,60.0024001,Chrome,1440,900,,,l,0.4168,1,206,1,0,7,7,2,1,1,0,0,0,0,0,0,1,triangle,star,,,,,,,,,,,,,,,,,,,,,,,,,,,,,,,,,,,,,,,,,,,,,,,,,,,,,,
294685,2022-11-28_24h15.16.431,vts_reward_expectancy_bt,2022.2.4,MacIntel,60.0024001,Chrome,1440,900,,,l,0.3352,10,216,1,0,8,8,10,1,0,0,0,1,0,1,0,0,star ,circle,,,,,,,,,,,,,,,,,,,,,,,,,,,,,,,,,,,,,,,,,,,,,,,,,,,,,,
294685,2022-11-28_24h15.16.431,vts_reward_expectancy_bt,2022.2.4,MacIntel,60.0024001,Chrome,1440,900,,,l,0.6128,1,217,1,0,9,9,8,1,0,0,1,0,0,0,0,1,hexagon,star,,,,,,,,,,,,,,,,,,,,,,,,,,,,,,,,,,,,,,,,,,,,,,,,,,,,,,
294685,2022-11-28_24h15.16.431,vts_reward_expectancy_bt,2022.2.4,MacIntel,60.0024001,Chrome,1440,900,,,l,0.3863,10,227,1,0,10,10,1,1,1,0,0,0,0,0,1,0,triangle,hexagon,,,,,,,,,,,,,,,,,,,,,,,,,,,,,,,,,,,,,,,,,,,,,,,,,,,,,,
294685,2022-11-28_24h15.16.431,vts_reward_expectancy_bt,2022.2.4,MacIntel,60.0024001,Chrome,1440,900,,,a,0.4847,1,228,1,0,11,11,7,1,0,0,1,0,0,1,0,0,hexagon,circle,,,,,,,,,,,,,,,,,,,,,,,,,,,,,,,,,,,,,,,,,,,,,,,,,,,,,,
294685,2022-11-28_24h15.16.431,vts_reward_expectancy_bt,2022.2.4,MacIntel,60.0024001,Chrome,1440,900,,,a,0.4458,10,238,1,1,0,12,4,1,0,1,0,0,0,0,1,0,circle,hexagon,,,,,,,,,,,,,,,,,,,,,,,,,,,,,,,,,,,,,,,,,,,,,,,,,,,,,,
294685,2022-11-28_24h15.16.431,vts_reward_expectancy_bt,2022.2.4,MacIntel,60.0024001,Chrome,1440,900,,,a,0.4816,10,248,1,1,1,13,5,1,0,1,0,0,0,0,0,1,circle,star,,,,,,,,,,,,,,,,,,,,,,,,,,,,,,,,,,,,,,,,,,,,,,,,,,,,,,
294685,2022-11-28_24h15.16.431,vts_reward_expectancy_bt,2022.2.4,MacIntel,60.0024001,Chrome,1440,900,,,l,0.4605,10,258,1,1,2,14,11,1,0,0,0,1,0,0,1,0,star,hexagon,,,,,,,,,,,,,,,,,,,,,,,,,,,,,,,,,,,,,,,,,,,,,,,,,,,,,,
294685,2022-11-28_24h15.16.431,vts_reward_expectancy_bt,2022.2.4,MacIntel,60.0024001,Chrome,1440,900,,,l,0.8949,10,268,1,1,3,15,0,1,1,0,0,0,0,1,0,0,triangle,circle,,,,,,,,,,,,,,,,,,,,,,,,,,,,,,,,,,,,,,,,,,,,,,,,,,,,,,
294685,2022-11-28_24h15.16.431,vts_reward_expectancy_bt,2022.2.4,MacIntel,60.0024001,Chrome,1440,900,,,a,0.9076,10,278,1,1,4,16,8,1,0,0,1,0,0,0,0,1,hexagon,star,,,,,,,,,,,,,,,,,,,,,,,,,,,,,,,,,,,,,,,,,,,,,,,,,,,,,,
294685,2022-11-28_24h15.16.431,vts_reward_expectancy_bt,2022.2.4,MacIntel,60.0024001,Chrome,1440,900,,,l,2.1113,10,288,1,1,5,17,10,1,0,0,0,1,0,1,0,0,star ,circle,,,,,,,,,,,,,,,,,,,,,,,,,,,,,,,,,,,,,,,,,,,,,,,,,,,,,,
294685,2022-11-28_24h15.16.431,vts_reward_expectancy_bt,2022.2.4,MacIntel,60.0024001,Chrome,1440,900,,,a,1.0418,10,298,1,1,6,18,3,1,0,1,0,0,1,0,0,0,circle,triangle,,,,,,,,,,,,,,,,,,,,,,,,,,,,,,,,,,,,,,,,,,,,,,,,,,,,,,
294685,2022-11-28_24h15.16.431,vts_reward_expectancy_bt,2022.2.4,MacIntel,60.0024001,Chrome,1440,900,,,a,1.4,10,308,1,1,7,19,6,1,0,0,1,0,1,0,0,0,hexagon,triangle,,,,,,,,,,,,,,,,,,,,,,,,,,,,,,,,,,,,,,,,,,,,,,,,,,,,,,
294685,2022-11-28_24h15.16.431,vts_reward_expectancy_bt,2022.2.4,MacIntel,60.0024001,Chrome,1440,900,,,l,1.4061,1,309,1,1,8,20,9,1,0,0,0,1,1,0,0,0,star,triangle,,,,,,,,,,,,,,,,,,,,,,,,,,,,,,,,,,,,,,,,,,,,,,,,,,,,,,
294685,2022-11-28_24h15.16.431,vts_reward_expectancy_bt,2022.2.4,MacIntel,60.0024001,Chrome,1440,900,,,a,1.1661,1,310,1,1,9,21,1,1,1,0,0,0,0,0,1,0,triangle,hexagon,,,,,,,,,,,,,,,,,,,,,,,,,,,,,,,,,,,,,,,,,,,,,,,,,,,,,,
294685,2022-11-28_24h15.16.431,vts_reward_expectancy_bt,2022.2.4,MacIntel,60.0024001,Chrome,1440,900,,,l,0.835,1,311,1,1,10,22,2,1,1,0,0,0,0,0,0,1,triangle,star,,,,,,,,,,,,,,,,,,,,,,,,,,,,,,,,,,,,,,,,,,,,,,,,,,,,,,
294685,2022-11-28_24h15.16.431,vts_reward_expectancy_bt,2022.2.4,MacIntel,60.0024001,Chrome,1440,900,,,a,3.15,10,321,1,1,11,23,7,1,0,0,1,0,0,1,0,0,hexagon,circle,,,,,,,,,,,,,,,,,,,,,,,,,,,,,,,,,,,,,,,,,,,,,,,,,,,,,,
294685,2022-11-28_24h15.16.431,vts_reward_expectancy_bt,2022.2.4,MacIntel,60.0024001,Chrome,1440,900,,,l,2.1248,10,331,1,2,0,24,7,1,0,0,1,0,0,1,0,0,hexagon,circle,,,,,,,,,,,,,,,,,,,,,,,,,,,,,,,,,,,,,,,,,,,,,,,,,,,,,,
294685,2022-11-28_24h15.16.431,vts_reward_expectancy_bt,2022.2.4,MacIntel,60.0024001,Chrome,1440,900,,,a,1.5988,10,341,1,2,1,25,3,1,0,1,0,0,1,0,0,0,circle,triangle,,,,,,,,,,,,,,,,,,,,,,,,,,,,,,,,,,,,,,,,,,,,,,,,,,,,,,
294685,2022-11-28_24h15.16.431,vts_reward_expectancy_bt,2022.2.4,MacIntel,60.0024001,Chrome,1440,900,,,l,2.0254,1,342,1,2,2,26,6,1,0,0,1,0,1,0,0,0,hexagon,triangle,,,,,,,,,,,,,,,,,,,,,,,,,,,,,,,,,,,,,,,,,,,,,,,,,,,,,,
294685,2022-11-28_24h15.16.431,vts_reward_expectancy_bt,2022.2.4,MacIntel,60.0024001,Chrome,1440,900,,,l,1.8604,1,343,1,2,3,27,0,1,1,0,0,0,0,1,0,0,triangle,circle,,,,,,,,,,,,,,,,,,,,,,,,,,,,,,,,,,,,,,,,,,,,,,,,,,,,,,
294685,2022-11-28_24h15.16.431,vts_reward_expectancy_bt,2022.2.4,MacIntel,60.0024001,Chrome,1440,900,,,l,2.9766,10,353,1,2,4,28,4,1,0,1,0,0,0,0,1,0,circle,hexagon,,,,,,,,,,,,,,,,,,,,,,,,,,,,,,,,,,,,,,,,,,,,,,,,,,,,,,
294685,2022-11-28_24h15.16.431,vts_reward_expectancy_bt,2022.2.4,MacIntel,60.0024001,Chrome,1440,900,,,a,1.7949,1,354,1,2,5,29,11,1,0,0,0,1,0,0,1,0,star,hexagon,,,,,,,,,,,,,,,,,,,,,,,,,,,,,,,,,,,,,,,,,,,,,,,,,,,,,,
294685,2022-11-28_24h15.16.431,vts_reward_expectancy_bt,2022.2.4,MacIntel,60.0024001,Chrome,1440,900,,,a,2.0988,1,355,1,2,6,30,2,1,1,0,0,0,0,0,0,1,triangle,star,,,,,,,,,,,,,,,,,,,,,,,,,,,,,,,,,,,,,,,,,,,,,,,,,,,,,,
294685,2022-11-28_24h15.16.431,vts_reward_expectancy_bt,2022.2.4,MacIntel,60.0024001,Chrome,1440,900,,,l,1.331,10,365,1,2,7,31,9,1,0,0,0,1,1,0,0,0,star,triangle,,,,,,,,,,,,,,,,,,,,,,,,,,,,,,,,,,,,,,,,,,,,,,,,,,,,,,
294685,2022-11-28_24h15.16.431,vts_reward_expectancy_bt,2022.2.4,MacIntel,60.0024001,Chrome,1440,900,,,a,1.4258,10,375,1,2,8,32,10,1,0,0,0,1,0,1,0,0,star ,circle,,,,,,,,,,,,,,,,,,,,,,,,,,,,,,,,,,,,,,,,,,,,,,,,,,,,,,
294685,2022-11-28_24h15.16.431,vts_reward_expectancy_bt,2022.2.4,MacIntel,60.0024001,Chrome,1440,900,,,l,1.295,1,376,1,2,9,33,1,1,1,0,0,0,0,0,1,0,triangle,hexagon,,,,,,,,,,,,,,,,,,,,,,,,,,,,,,,,,,,,,,,,,,,,,,,,,,,,,,
294685,2022-11-28_24h15.16.431,vts_reward_expectancy_bt,2022.2.4,MacIntel,60.0024001,Chrome,1440,900,,,a,0.9992,1,377,1,2,10,34,5,1,0,1,0,0,0,0,0,1,circle,star,,,,,,,,,,,,,,,,,,,,,,,,,,,,,,,,,,,,,,,,,,,,,,,,,,,,,,
294685,2022-11-28_24h15.16.431,vts_reward_expectancy_bt,2022.2.4,MacIntel,60.0024001,Chrome,1440,900,,,l,1.2398,1,378,1,2,11,35,8,1,0,0,1,0,0,0,0,1,hexagon,star,,,,,,,,,,,,,,,,,,,,,,,,,,,,,,,,,,,,,,,,,,,,,,,,,,,,,,
294685,2022-11-28_24h15.16.431,vts_reward_expectancy_bt,2022.2.4,MacIntel,60.0024001,Chrome,1440,900,,,a,1.2997,10,388,2,0,0,0,8,1,0,0,1,0,0,0,0,1,hexagon,star,,,,,,,,,,,,,,,,,,,,,,,,,,,,,,,,,,,,,,,,,,,,,,,,,,,,,,
294685,2022-11-28_24h15.16.431,vts_reward_expectancy_bt,2022.2.4,MacIntel,60.0024001,Chrome,1440,900,,,l,0.7287,10,398,2,0,1,1,11,1,0,0,0,1,0,0,1,0,star,hexagon,,,,,,,,,,,,,,,,,,,,,,,,,,,,,,,,,,,,,,,,,,,,,,,,,,,,,,
294685,2022-11-28_24h15.16.431,vts_reward_expectancy_bt,2022.2.4,MacIntel,60.0024001,Chrome,1440,900,,,a,1.1183,10,408,2,0,2,2,3,1,0,1,0,0,1,0,0,0,circle,triangle,,,,,,,,,,,,,,,,,,,,,,,,,,,,,,,,,,,,,,,,,,,,,,,,,,,,,,
294685,2022-11-28_24h15.16.431,vts_reward_expectancy_bt,2022.2.4,MacIntel,60.0024001,Chrome,1440,900,,,a,1.2811,10,418,2,0,3,3,5,1,0,1,0,0,0,0,0,1,circle,star,,,,,,,,,,,,,,,,,,,,,,,,,,,,,,,,,,,,,,,,,,,,,,,,,,,,,,
294685,2022-11-28_24h15.16.431,vts_reward_expectancy_bt,2022.2.4,MacIntel,60.0024001,Chrome,1440,900,,,l,0.5618,10,428,2,0,4,4,7,1,0,0,1,0,0,1,0,0,hexagon,circle,,,,,,,,,,,,,,,,,,,,,,,,,,,,,,,,,,,,,,,,,,,,,,,,,,,,,,
294685,2022-11-28_24h15.16.431,vts_reward_expectancy_bt,2022.2.4,MacIntel,60.0024001,Chrome,1440,900,,,l,0.7051,10,438,2,0,5,5,0,1,1,0,0,0,0,1,0,0,triangle,circle,,,,,,,,,,,,,,,,,,,,,,,,,,,,,,,,,,,,,,,,,,,,,,,,,,,,,,
294685,2022-11-28_24h15.16.431,vts_reward_expectancy_bt,2022.2.4,MacIntel,60.0024001,Chrome,1440,900,,,a,1.1978,1,439,2,0,6,6,1,1,1,0,0,0,0,0,1,0,triangle,hexagon,,,,,,,,,,,,,,,,,,,,,,,,,,,,,,,,,,,,,,,,,,,,,,,,,,,,,,
294685,2022-11-28_24h15.16.431,vts_reward_expectancy_bt,2022.2.4,MacIntel,60.0024001,Chrome,1440,900,,,l,0.9461,10,449,2,0,7,7,4,1,0,1,0,0,0,0,1,0,circle,hexagon,,,,,,,,,,,,,,,,,,,,,,,,,,,,,,,,,,,,,,,,,,,,,,,,,,,,,,
294685,2022-11-28_24h15.16.431,vts_reward_expectancy_bt,2022.2.4,MacIntel,60.0024001,Chrome,1440,900,,,a,1.0911,1,450,2,0,8,8,2,1,1,0,0,0,0,0,0,1,triangle,star,,,,,,,,,,,,,,,,,,,,,,,,,,,,,,,,,,,,,,,,,,,,,,,,,,,,,,
294685,2022-11-28_24h15.16.431,vts_reward_expectancy_bt,2022.2.4,MacIntel,60.0024001,Chrome,1440,900,,,l,0.4972,1,451,2,0,9,9,9,1,0,0,0,1,1,0,0,0,star,triangle,,,,,,,,,,,,,,,,,,,,,,,,,,,,,,,,,,,,,,,,,,,,,,,,,,,,,,
294685,2022-11-28_24h15.16.431,vts_reward_expectancy_bt,2022.2.4,MacIntel,60.0024001,Chrome,1440,900,,,a,0.8039,10,461,2,0,10,10,6,1,0,0,1,0,1,0,0,0,hexagon,triangle,,,,,,,,,,,,,,,,,,,,,,,,,,,,,,,,,,,,,,,,,,,,,,,,,,,,,,
294685,2022-11-28_24h15.16.431,vts_reward_expectancy_bt,2022.2.4,MacIntel,60.0024001,Chrome,1440,900,,,l,0.6646,10,471,2,0,11,11,10,1,0,0,0,1,0,1,0,0,star ,circle,,,,,,,,,,,,,,,,,,,,,,,,,,,,,,,,,,,,,,,,,,,,,,,,,,,,,,
294685,2022-11-28_24h15.16.431,vts_reward_expectancy_bt,2022.2.4,MacIntel,60.0024001,Chrome,1440,900,,,a,0.6663,1,472,2,1,0,12,8,1,0,0,1,0,0,0,0,1,hexagon,star,,,,,,,,,,,,,,,,,,,,,,,,,,,,,,,,,,,,,,,,,,,,,,,,,,,,,,
294685,2022-11-28_24h15.16.431,vts_reward_expectancy_bt,2022.2.4,MacIntel,60.0024001,Chrome,1440,900,,,l,0.7834,1,473,2,1,1,13,1,1,1,0,0,0,0,0,1,0,triangle,hexagon,,,,,,,,,,,,,,,,,,,,,,,,,,,,,,,,,,,,,,,,,,,,,,,,,,,,,,
294685,2022-11-28_24h15.16.431,vts_reward_expectancy_bt,2022.2.4,MacIntel,60.0024001,Chrome,1440,900,,,a,0.6765,1,474,2,1,2,14,5,1,0,1,0,0,0,0,0,1,circle,star,,,,,,,,,,,,,,,,,,,,,,,,,,,,,,,,,,,,,,,,,,,,,,,,,,,,,,
294685,2022-11-28_24h15.16.431,vts_reward_expectancy_bt,2022.2.4,MacIntel,60.0024001,Chrome,1440,900,,,l,1.8844,1,475,2,1,3,15,11,1,0,0,0,1,0,0,1,0,star,hexagon,,,,,,,,,,,,,,,,,,,,,,,,,,,,,,,,,,,,,,,,,,,,,,,,,,,,,,
294685,2022-11-28_24h15.16.431,vts_reward_expectancy_bt,2022.2.4,MacIntel,60.0024001,Chrome,1440,900,,,a,0.9197,1,476,2,1,4,16,9,1,0,0,0,1,1,0,0,0,star,triangle,,,,,,,,,,,,,,,,,,,,,,,,,,,,,,,,,,,,,,,,,,,,,,,,,,,,,,
294685,2022-11-28_24h15.16.431,vts_reward_expectancy_bt,2022.2.4,MacIntel,60.0024001,Chrome,1440,900,,,l,0.4498,10,486,2,1,5,17,7,1,0,0,1,0,0,1,0,0,hexagon,circle,,,,,,,,,,,,,,,,,,,,,,,,,,,,,,,,,,,,,,,,,,,,,,,,,,,,,,
294685,2022-11-28_24h15.16.431,vts_reward_expectancy_bt,2022.2.4,MacIntel,60.0024001,Chrome,1440,900,,,a,0.9125,10,496,2,1,6,18,6,1,0,0,1,0,1,0,0,0,hexagon,triangle,,,,,,,,,,,,,,,,,,,,,,,,,,,,,,,,,,,,,,,,,,,,,,,,,,,,,,
294685,2022-11-28_24h15.16.431,vts_reward_expectancy_bt,2022.2.4,MacIntel,60.0024001,Chrome,1440,900,,,l,0.7999,10,506,2,1,7,19,0,1,1,0,0,0,0,1,0,0,triangle,circle,,,,,,,,,,,,,,,,,,,,,,,,,,,,,,,,,,,,,,,,,,,,,,,,,,,,,,
294685,2022-11-28_24h15.16.431,vts_reward_expectancy_bt,2022.2.4,MacIntel,60.0024001,Chrome,1440,900,,,a,0.9153,10,516,2,1,8,20,3,1,0,1,0,0,1,0,0,0,circle,triangle,,,,,,,,,,,,,,,,,,,,,,,,,,,,,,,,,,,,,,,,,,,,,,,,,,,,,,
294685,2022-11-28_24h15.16.431,vts_reward_expectancy_bt,2022.2.4,MacIntel,60.0024001,Chrome,1440,900,,,l,0.732,10,526,2,1,9,21,10,1,0,0,0,1,0,1,0,0,star ,circle,,,,,,,,,,,,,,,,,,,,,,,,,,,,,,,,,,,,,,,,,,,,,,,,,,,,,,
294685,2022-11-28_24h15.16.431,vts_reward_expectancy_bt,2022.2.4,MacIntel,60.0024001,Chrome,1440,900,,,a,0.5337,1,527,2,1,10,22,4,1,0,1,0,0,0,0,1,0,circle,hexagon,,,,,,,,,,,,,,,,,,,,,,,,,,,,,,,,,,,,,,,,,,,,,,,,,,,,,,
294685,2022-11-28_24h15.16.431,vts_reward_expectancy_bt,2022.2.4,MacIntel,60.0024001,Chrome,1440,900,,,l,0.7119,1,528,2,1,11,23,2,1,1,0,0,0,0,0,0,1,triangle,star,,,,,,,,,,,,,,,,,,,,,,,,,,,,,,,,,,,,,,,,,,,,,,,,,,,,,,
294685,2022-11-28_24h15.16.431,vts_reward_expectancy_bt,2022.2.4,MacIntel,60.0024001,Chrome,1440,900,,,a,0.8157,10,538,2,2,0,24,3,1,0,1,0,0,1,0,0,0,circle,triangle,,,,,,,,,,,,,,,,,,,,,,,,,,,,,,,,,,,,,,,,,,,,,,,,,,,,,,
294685,2022-11-28_24h15.16.431,vts_reward_expectancy_bt,2022.2.4,MacIntel,60.0024001,Chrome,1440,900,,,l,0.7687,10,548,2,2,1,25,0,1,1,0,0,0,0,1,0,0,triangle,circle,,,,,,,,,,,,,,,,,,,,,,,,,,,,,,,,,,,,,,,,,,,,,,,,,,,,,,
294685,2022-11-28_24h15.16.431,vts_reward_expectancy_bt,2022.2.4,MacIntel,60.0024001,Chrome,1440,900,,,a,1.3765,10,558,2,2,2,26,4,1,0,1,0,0,0,0,1,0,circle,hexagon,,,,,,,,,,,,,,,,,,,,,,,,,,,,,,,,,,,,,,,,,,,,,,,,,,,,,,
294685,2022-11-28_24h15.16.431,vts_reward_expectancy_bt,2022.2.4,MacIntel,60.0024001,Chrome,1440,900,,,a,0.8978,1,559,2,2,3,27,6,1,0,0,1,0,1,0,0,0,hexagon,triangle,,,,,,,,,,,,,,,,,,,,,,,,,,,,,,,,,,,,,,,,,,,,,,,,,,,,,,
294685,2022-11-28_24h15.16.431,vts_reward_expectancy_bt,2022.2.4,MacIntel,60.0024001,Chrome,1440,900,,,a,0.7989,1,560,2,2,4,28,9,1,0,0,0,1,1,0,0,0,star,triangle,,,,,,,,,,,,,,,,,,,,,,,,,,,,,,,,,,,,,,,,,,,,,,,,,,,,,,
294685,2022-11-28_24h15.16.431,vts_reward_expectancy_bt,2022.2.4,MacIntel,60.0024001,Chrome,1440,900,,,l,0.5468,10,570,2,2,5,29,11,1,0,0,0,1,0,0,1,0,star,hexagon,,,,,,,,,,,,,,,,,,,,,,,,,,,,,,,,,,,,,,,,,,,,,,,,,,,,,,
294685,2022-11-28_24h15.16.431,vts_reward_expectancy_bt,2022.2.4,MacIntel,60.0024001,Chrome,1440,900,,,a,1.2124,10,580,2,2,6,30,5,1,0,1,0,0,0,0,0,1,circle,star,,,,,,,,,,,,,,,,,,,,,,,,,,,,,,,,,,,,,,,,,,,,,,,,,,,,,,
294685,2022-11-28_24h15.16.431,vts_reward_expectancy_bt,2022.2.4,MacIntel,60.0024001,Chrome,1440,900,,,l,1.6267,1,581,2,2,7,31,8,1,0,0,1,0,0,0,0,1,hexagon,star,,,,,,,,,,,,,,,,,,,,,,,,,,,,,,,,,,,,,,,,,,,,,,,,,,,,,,
294685,2022-11-28_24h15.16.431,vts_reward_expectancy_bt,2022.2.4,MacIntel,60.0024001,Chrome,1440,900,,,l,1.0788,1,582,2,2,8,32,2,1,1,0,0,0,0,0,0,1,triangle,star,,,,,,,,,,,,,,,,,,,,,,,,,,,,,,,,,,,,,,,,,,,,,,,,,,,,,,
294685,2022-11-28_24h15.16.431,vts_reward_expectancy_bt,2022.2.4,MacIntel,60.0024001,Chrome,1440,900,,,a,0.8992,10,592,2,2,9,33,7,1,0,0,1,0,0,1,0,0,hexagon,circle,,,,,,,,,,,,,,,,,,,,,,,,,,,,,,,,,,,,,,,,,,,,,,,,,,,,,,
294685,2022-11-28_24h15.16.431,vts_reward_expectancy_bt,2022.2.4,MacIntel,60.0024001,Chrome,1440,900,,,l,0.7145,1,593,2,2,10,34,1,1,1,0,0,0,0,0,1,0,triangle,hexagon,,,,,,,,,,,,,,,,,,,,,,,,,,,,,,,,,,,,,,,,,,,,,,,,,,,,,,
294685,2022-11-28_24h15.16.431,vts_reward_expectancy_bt,2022.2.4,MacIntel,60.0024001,Chrome,1440,900,,,a,0.6979,1,594,2,2,11,35,10,1,0,0,0,1,0,1,0,0,star ,circle,,,,,,,,,,,,,,,,,,,,,,,,,,,,,,,,,,,,,,,,,,,,,,,,,,,,,,
294685,2022-11-28_24h15.16.431,vts_reward_expectancy_bt,2022.2.4,MacIntel,60.0024001,Chrome,1440,900,,,,,,,,,,,,,,,,,,,,,,,B,146,star,0,0,,0,0,0,0,0,1,,,,,,,,,,,,,,,,,,,,,,,,,,,,,,,,,,,,,,,,,,
294685,2022-11-28_24h15.16.431,vts_reward_expectancy_bt,2022.2.4,MacIntel,60.0024001,Chrome,1440,900,,,,,,,,,,,,,,,,,,,,,,,H,167,circle,0,1,f,0,1,0,1,0,1,0.6982,,,,,,,,,,,,,,,,,,,,,,,,,,,,,,,,,,,,,,,,,
294685,2022-11-28_24h15.16.431,vts_reward_expectancy_bt,2022.2.4,MacIntel,60.0024001,Chrome,1440,900,,,,,,,,,,,,,,,,,,,,,,,S,139,triangle,1,1,f,0,2,0,2,0,1,0.4268,,,,,,,,,,,,,,,,,,,,,,,,,,,,,,,,,,,,,,,,,
294685,2022-11-28_24h15.16.431,vts_reward_expectancy_bt,2022.2.4,MacIntel,60.0024001,Chrome,1440,900,,,,,,,,,,,,,,,,,,,,,,,Y,174,hexagon,0,0,d,0,3,0,3,0,1,1.1972,,,,,,,,,,,,,,,,,,,,,,,,,,,,,,,,,,,,,,,,,
294685,2022-11-28_24h15.16.431,vts_reward_expectancy_bt,2022.2.4,MacIntel,60.0024001,Chrome,1440,900,,,,,,,,,,,,,,,,,,,,,,,W,132,star,1,1,f,0,4,0,4,0,1,0.7813,,,,,,,,,,,,,,,,,,,,,,,,,,,,,,,,,,,,,,,,,
294685,2022-11-28_24h15.16.431,vts_reward_expectancy_bt,2022.2.4,MacIntel,60.0024001,Chrome,1440,900,,,,,,,,,,,,,,,,,,,,,,,F,181,circle,0,0,f,0,5,0,5,0,1,0.3856,,,,,,,,,,,,,,,,,,,,,,,,,,,,,,,,,,,,,,,,,
294685,2022-11-28_24h15.16.431,vts_reward_expectancy_bt,2022.2.4,MacIntel,60.0024001,Chrome,1440,900,,,,,,,,,,,,,,,,,,,,,,,U,160,triangle,0,1,,0,6,0,6,0,1,,,,,,,,,,,,,,,,,,,,,,,,,,,,,,,,,,,,,,,,,,
294685,2022-11-28_24h15.16.431,vts_reward_expectancy_bt,2022.2.4,MacIntel,60.0024001,Chrome,1440,900,,,,,,,,,,,,,,,,,,,,,,,D,125,hexagon,1,1,d,0,7,0,7,0,1,0.3627,,,,,,,,,,,,,,,,,,,,,,,,,,,,,,,,,,,,,,,,,
294685,2022-11-28_24h15.16.431,vts_reward_expectancy_bt,2022.2.4,MacIntel,60.0024001,Chrome,1440,900,,,,,,,,,,,,,,,,,,,,,,,B,146,hexagon,1,0,d,0,8,0,8,0,1,0.9308,,,,,,,,,,,,,,,,,,,,,,,,,,,,,,,,,,,,,,,,,
294685,2022-11-28_24h15.16.431,vts_reward_expectancy_bt,2022.2.4,MacIntel,60.0024001,Chrome,1440,900,,,,,,,,,,,,,,,,,,,,,,,H,167,triangle,0,0,f,0,9,0,9,0,1,0.8312,,,,,,,,,,,,,,,,,,,,,,,,,,,,,,,,,,,,,,,,,
294685,2022-11-28_24h15.16.431,vts_reward_expectancy_bt,2022.2.4,MacIntel,60.0024001,Chrome,1440,900,,,,,,,,,,,,,,,,,,,,,,,F,181,triangle,1,1,d,1,0,0,0,0,1,1.6159,,,,,,,,,,,,,,,,,,,,,,,,,,,,,,,,,,,,,,,,,
294685,2022-11-28_24h15.16.431,vts_reward_expectancy_bt,2022.2.4,MacIntel,60.0024001,Chrome,1440,900,,,,,,,,,,,,,,,,,,,,,,,S,139,star,1,0,f,1,1,0,1,0,1,0.6386,,,,,,,,,,,,,,,,,,,,,,,,,,,,,,,,,,,,,,,,,
294685,2022-11-28_24h15.16.431,vts_reward_expectancy_bt,2022.2.4,MacIntel,60.0024001,Chrome,1440,900,,,,,,,,,,,,,,,,,,,,,,,U,132,circle,1,0,f,1,2,0,2,0,1,0.7306,,,,,,,,,,,,,,,,,,,,,,,,,,,,,,,,,,,,,,,,,
294685,2022-11-28_24h15.16.431,vts_reward_expectancy_bt,2022.2.4,MacIntel,60.0024001,Chrome,1440,900,,,,,,,,,,,,,,,,,,,,,,,B,146,hexagon,1,0,d,1,3,0,3,0,1,0.5989,,,,,,,,,,,,,,,,,,,,,,,,,,,,,,,,,,,,,,,,,
294685,2022-11-28_24h15.16.431,vts_reward_expectancy_bt,2022.2.4,MacIntel,60.0024001,Chrome,1440,900,,,,,,,,,,,,,,,,,,,,,,,Y,167,triangle,1,0,f,1,4,0,4,0,1,0.7142,,,,,,,,,,,,,,,,,,,,,,,,,,,,,,,,,,,,,,,,,
294685,2022-11-28_24h15.16.431,vts_reward_expectancy_bt,2022.2.4,MacIntel,60.0024001,Chrome,1440,900,,,,,,,,,,,,,,,,,,,,,,,D,125,star,1,0,d,1,5,0,5,0,1,0.784,,,,,,,,,,,,,,,,,,,,,,,,,,,,,,,,,,,,,,,,,
294685,2022-11-28_24h15.16.431,vts_reward_expectancy_bt,2022.2.4,MacIntel,60.0024001,Chrome,1440,900,,,,,,,,,,,,,,,,,,,,,,,H,174,circle,1,0,d,1,6,0,6,0,1,0.8649,,,,,,,,,,,,,,,,,,,,,,,,,,,,,,,,,,,,,,,,,
294685,2022-11-28_24h15.16.431,vts_reward_expectancy_bt,2022.2.4,MacIntel,60.0024001,Chrome,1440,900,,,,,,,,,,,,,,,,,,,,,,,W,160,hexagon,1,0,f,1,7,0,7,0,1,0.5839,,,,,,,,,,,,,,,,,,,,,,,,,,,,,,,,,,,,,,,,,
294685,2022-11-28_24h15.16.431,vts_reward_expectancy_bt,2022.2.4,MacIntel,60.0024001,Chrome,1440,900,,,,,,,,,,,,,,,,,,,,,,,F,181,star,1,0,d,1,8,0,8,0,1,0.6358,,,,,,,,,,,,,,,,,,,,,,,,,,,,,,,,,,,,,,,,,
294685,2022-11-28_24h15.16.431,vts_reward_expectancy_bt,2022.2.4,MacIntel,60.0024001,Chrome,1440,900,,,,,,,,,,,,,,,,,,,,,,,S,139,triangle,1,0,f,1,9,0,9,0,1,0.6809,,,,,,,,,,,,,,,,,,,,,,,,,,,,,,,,,,,,,,,,,
294685,2022-11-28_24h15.16.431,vts_reward_expectancy_bt,2022.2.4,MacIntel,60.0024001,Chrome,1440,900,,,,,,,,,,,,,,,,,,,,,,,D,132,hexagon,1,0,,2,,,,,,,j,1.0112,0,0,0,0,1,,,,,,,,,,,,,,,,,,,,,,,,,,,,,,,,,,
294685,2022-11-28_24h15.16.431,vts_reward_expectancy_bt,2022.2.4,MacIntel,60.0024001,Chrome,1440,900,,,,,,,,,,,,,,,,,,,,,,,B,167,circle,1,0,,2,,,,,,,k,1.0328,1,0,1,0,1,,,,,,,,,,,,,,,,,,,,,,,,,,,,,,,,,,
294685,2022-11-28_24h15.16.431,vts_reward_expectancy_bt,2022.2.4,MacIntel,60.0024001,Chrome,1440,900,,,,,,,,,,,,,,,,,,,,,,,H,146,star,1,0,,2,,,,,,,j,0.8321,2,0,2,0,1,,,,,,,,,,,,,,,,,,,,,,,,,,,,,,,,,,
294685,2022-11-28_24h15.16.431,vts_reward_expectancy_bt,2022.2.4,MacIntel,60.0024001,Chrome,1440,900,,,,,,,,,,,,,,,,,,,,,,,W,174,triangle,1,0,,2,,,,,,,k,0.8638,3,0,3,0,1,,,,,,,,,,,,,,,,,,,,,,,,,,,,,,,,,,
294685,2022-11-28_24h15.16.431,vts_reward_expectancy_bt,2022.2.4,MacIntel,60.0024001,Chrome,1440,900,,,,,,,,,,,,,,,,,,,,,,,U,181,hexagon,1,0,,2,,,,,,,k,0.7311,4,0,4,0,1,,,,,,,,,,,,,,,,,,,,,,,,,,,,,,,,,,
294685,2022-11-28_24h15.16.431,vts_reward_expectancy_bt,2022.2.4,MacIntel,60.0024001,Chrome,1440,900,,,,,,,,,,,,,,,,,,,,,,,S,160,circle,1,0,,2,,,,,,,k,0.6672,5,0,5,0,1,,,,,,,,,,,,,,,,,,,,,,,,,,,,,,,,,,
294685,2022-11-28_24h15.16.431,vts_reward_expectancy_bt,2022.2.4,MacIntel,60.0024001,Chrome,1440,900,,,,,,,,,,,,,,,,,,,,,,,F,125,star,1,0,,2,,,,,,,j,0.8011,6,0,6,0,1,,,,,,,,,,,,,,,,,,,,,,,,,,,,,,,,,,
294685,2022-11-28_24h15.16.431,vts_reward_expectancy_bt,2022.2.4,MacIntel,60.0024001,Chrome,1440,900,,,,,,,,,,,,,,,,,,,,,,,Y,139,triangle,1,0,,2,,,,,,,j,1.0458,7,0,7,0,1,,,,,,,,,,,,,,,,,,,,,,,,,,,,,,,,,,
294685,2022-11-28_24h15.16.431,vts_reward_expectancy_bt,2022.2.4,MacIntel,60.0024001,Chrome,1440,900,,,,,,,,,,,,,,,,,,,,,,,D,132,triangle,1,0,,2,,,,,,,j,0.6657,8,0,8,0,1,,,,,,,,,,,,,,,,,,,,,,,,,,,,,,,,,,
294685,2022-11-28_24h15.16.431,vts_reward_expectancy_bt,2022.2.4,MacIntel,60.0024001,Chrome,1440,900,,,,,,,,,,,,,,,,,,,,,,,B,167,circle,1,0,,2,,,,,,,k,0.8793,9,0,9,0,1,,,,,,,,,,,,,,,,,,,,,,,,,,,,,,,,,,
294685,2022-11-28_24h15.16.431,vts_reward_expectancy_bt,2022.2.4,MacIntel,60.0024001,Chrome,1440,900,,,,,0,594,,,,,,,,,,,,,,,,,F,139,circle,1,0,,3,,,,,,,,,,,,,,-1,letter,NA,d,2.8211,vtsPrac,0,0,0,0,1,,,,,,,,,,,,,,,,,,,,,,,
294685,2022-11-28_24h15.16.431,vts_reward_expectancy_bt,2022.2.4,MacIntel,60.0024001,Chrome,1440,900,,,,,0,594,,,,,,,,,,,,,,,,,S,146,star,0,0,,3,,,,,,,,,,,,,,repeat,letter,NA,d,1.9976,vtsPrac,1,0,1,0,1,,,,,,,,,,,,,,,,,,,,,,,
294685,2022-11-28_24h15.16.431,vts_reward_expectancy_bt,2022.2.4,MacIntel,60.0024001,Chrome,1440,900,,,,,0,594,,,,,,,,,,,,,,,,,W,160,circle,-1,1,,3,,,,,,,,,,,,,,switch,no_choice,NA,,,vtsPrac,2,0,2,0,1,,,,,,,,,,,,,,,,,,,,,,,
294685,2022-11-28_24h15.16.431,vts_reward_expectancy_bt,2022.2.4,MacIntel,60.0024001,Chrome,1440,900,,,,,0,594,,,,,,,,,,,,,,,,,B,167,star,0,0,,3,,,,,,,,,,,,,,switch,number,NA,j,1.3073,vtsPrac,3,0,3,0,1,,,,,,,,,,,,,,,,,,,,,,,
294685,2022-11-28_24h15.16.431,vts_reward_expectancy_bt,2022.2.4,MacIntel,60.0024001,Chrome,1440,900,,,,,0,594,,,,,,,,,,,,,,,,,F,139,hexagon,0,1,,3,,,,,,,,,,,,,,switch,letter,NA,f,0.0264,vtsPrac,4,0,4,0,1,,,,,,,,,,,,,,,,,,,,,,,
294685,2022-11-28_24h15.16.431,vts_reward_expectancy_bt,2022.2.4,MacIntel,60.0024001,Chrome,1440,900,,,,,0,594,,,,,,,,,,,,,,,,,S,146,star,1,1,,3,,,,,,,,,,,,,,repeat,letter,lettRpt,f,1.1798,vtsPrac,5,0,5,0,1,,,,,,,,,,,,,,,,,,,,,,,
294685,2022-11-28_24h15.16.431,vts_reward_expectancy_bt,2022.2.4,MacIntel,60.0024001,Chrome,1440,900,,,,,0,594,,,,,,,,,,,,,,,,,W,160,circle,1,0,,3,,,,,,,,,,,,,,repeat,letter,lettRpt,f,0.8822,vtsPrac,6,0,6,0,1,,,,,,,,,,,,,,,,,,,,,,,
294685,2022-11-28_24h15.16.431,vts_reward_expectancy_bt,2022.2.4,MacIntel,60.0024001,Chrome,1440,900,,,,,0,594,,,,,,,,,,,,,,,,,B,167,star,1,0,,3,,,,,,,,,,,,,,repeat,letter,lettRpt,d,1.2648,vtsPrac,7,0,7,0,1,,,,,,,,,,,,,,,,,,,,,,,
294685,2022-11-28_24h15.16.431,vts_reward_expectancy_bt,2022.2.4,MacIntel,60.0024001,Chrome,1440,900,,,,,0,594,,,,,,,,,,,,,,,,,U,174,hexagon,1,0,,3,,,,,,,,,,,,,,repeat,letter,lettRpt,f,0.8535,vtsPrac,8,0,8,0,1,,,,,,,,,,,,,,,,,,,,,,,
294685,2022-11-28_24h15.16.431,vts_reward_expectancy_bt,2022.2.4,MacIntel,60.0024001,Chrome,1440,900,,,,,0,594,,,,,,,,,,,,,,,,,B,125,star,1,0,,3,,,,,,,,,,,,,,repeat,letter,lettRpt,d,1.1801,vtsPrac,9,0,9,0,1,,,,,,,,,,,,,,,,,,,,,,,
294685,2022-11-28_24h15.16.431,vts_reward_expectancy_bt,2022.2.4,MacIntel,60.0024001,Chrome,1440,900,,,,,0,594,,,,,,,,,,,,,,,,,Y,181,star,1,0,,3,,,,,,,,,,,,,,repeat,letter,lettRpt,f,0.8272,vtsPrac,10,0,10,0,1,,,,,,,,,,,,,,,,,,,,,,,
294685,2022-11-28_24h15.16.431,vts_reward_expectancy_bt,2022.2.4,MacIntel,60.0024001,Chrome,1440,900,,,,,0,594,,,,,,,,,,,,,,,,,W,160,triangle,1,0,,3,,,,,,,,,,,,,,repeat,letter,lettRpt,f,0.7794,vtsPrac,11,0,11,0,1,,,,,,,,,,,,,,,,,,,,,,,
294685,2022-11-28_24h15.16.431,vts_reward_expectancy_bt,2022.2.4,MacIntel,60.0024001,Chrome,1440,900,,,,,0,594,,,,,,,,,,,,,,,,,H,132,star,1,0,,3,,,,,,,,,,,,,,repeat,letter,lettRpt,d,1.2039,vtsPrac,12,0,12,0,1,,,,,,,,,,,,,,,,,,,,,,,
294685,2022-11-28_24h15.16.431,vts_reward_expectancy_bt,2022.2.4,MacIntel,60.0024001,Chrome,1440,900,,,,,0,594,,,,,,,,,,,,,,,,,S,139,triangle,1,0,,3,,,,,,,,,,,,,,repeat,letter,lettRpt,f,1.0035,vtsPrac,13,0,13,0,1,,,,,,,,,,,,,,,,,,,,,,,
294685,2022-11-28_24h15.16.431,vts_reward_expectancy_bt,2022.2.4,MacIntel,60.0024001,Chrome,1440,900,,,,,0,594,,,,,,,,,,,,,,,,,B,125,triangle,1,0,,3,,,,,,,,,,,,,,repeat,letter,lettRpt,d,0.7481,vtsPrac,14,0,14,0,1,,,,,,,,,,,,,,,,,,,,,,,
294685,2022-11-28_24h15.16.431,vts_reward_expectancy_bt,2022.2.4,MacIntel,60.0024001,Chrome,1440,900,,,,,0,594,,,,,,,,,,,,,,,,,U,146,circle,1,0,,3,,,,,,,,,,,,,,repeat,letter,lettRpt,f,0.9828,vtsPrac,15,0,15,0,1,,,,,,,,,,,,,,,,,,,,,,,
294685,2022-11-28_24h15.16.431,vts_reward_expectancy_bt,2022.2.4,MacIntel,60.0024001,Chrome,1440,900,,,,,0,594,,,,,,,,,,,,,,,,,F,125,hexagon,1,0,,3,,,,,,,,,,,,,,repeat,letter,lettRpt,d,0.6884,vtsPrac,16,0,16,0,1,,,,,,,,,,,,,,,,,,,,,,,
294685,2022-11-28_24h15.16.431,vts_reward_expectancy_bt,2022.2.4,MacIntel,60.0024001,Chrome,1440,900,,,,,0,594,,,,,,,,,,,,,,,,,Y,139,triangle,1,0,,3,,,,,,,,,,,,,,repeat,letter,lettRpt,f,0.7125,vtsPrac,17,0,17,0,1,,,,,,,,,,,,,,,,,,,,,,,
294685,2022-11-28_24h15.16.431,vts_reward_expectancy_bt,2022.2.4,MacIntel,60.0024001,Chrome,1440,900,,,,,0,594,,,,,,,,,,,,,,,,,D,181,hexagon,1,0,,3,,,,,,,,,,,,,,repeat,letter,lettRpt,d,0.8321,vtsPrac,18,0,18,0,1,,,,,,,,,,,,,,,,,,,,,,,
294685,2022-11-28_24h15.16.431,vts_reward_expectancy_bt,2022.2.4,MacIntel,60.0024001,Chrome,1440,900,,,,,0,594,,,,,,,,,,,,,,,,,B,132,circle,1,0,,3,,,,,,,,,,,,,,repeat,letter,lettRpt,d,0.6203,vtsPrac,19,0,19,0,1,,,,,,,,,,,,,,,,,,,,,,,
294685,2022-11-28_24h15.16.431,vts_reward_expectancy_bt,2022.2.4,MacIntel,60.0024001,Chrome,1440,900,,,,,0,594,,,,,,,,,,,,,,,,,U,174,triangle,1,0,,3,,,,,,,,,,,,,,repeat,letter,lettRpt,f,0.8885,vtsPrac,20,0,20,0,1,,,,,,,,,,,,,,,,,,,,,,,
294685,2022-11-28_24h15.16.431,vts_reward_expectancy_bt,2022.2.4,MacIntel,60.0024001,Chrome,1440,900,,,,,0,594,,,,,,,,,,,,,,,,,B,132,star,1,0,,3,,,,,,,,,,,,,,repeat,letter,lettRpt,d,0.7505,vtsPrac,21,0,21,0,1,,,,,,,,,,,,,,,,,,,,,,,
294685,2022-11-28_24h15.16.431,vts_reward_expectancy_bt,2022.2.4,MacIntel,60.0024001,Chrome,1440,900,,,,,0,594,,,,,,,,,,,,,,,,,F,146,triangle,1,0,,3,,,,,,,,,,,,,,switch,number,numSwt,j,1.1972,vtsPrac,22,0,22,0,1,,,,,,,,,,,,,,,,,,,,,,,
294685,2022-11-28_24h15.16.431,vts_reward_expectancy_bt,2022.2.4,MacIntel,60.0024001,Chrome,1440,900,,,,,0,594,,,,,,,,,,,,,,,,,Y,125,star,1,0,,3,,,,,,,,,,,,,,repeat,number,numRpt,j,0.7856,vtsPrac,23,0,23,0,1,,,,,,,,,,,,,,,,,,,,,,,
294685,2022-11-28_24h15.16.431,vts_reward_expectancy_bt,2022.2.4,MacIntel,60.0024001,Chrome,1440,900,,,,,0,594,,,,,,,,,,,,,,,,,U,167,star,1,0,,3,,,,,,,,,,,,,,repeat,number,numRpt,k,0.9973,vtsPrac,24,0,24,0,1,,,,,,,,,,,,,,,,,,,,,,,
294685,2022-11-28_24h15.16.431,vts_reward_expectancy_bt,2022.2.4,MacIntel,60.0024001,Chrome,1440,900,,,,,0,594,,,,,,,,,,,,,,,,,Y,174,circle,1,0,,3,,,,,,,,,,,,,,repeat,number,numRpt,k,0.686,vtsPrac,25,0,25,0,1,,,,,,,,,,,,,,,,,,,,,,,
294685,2022-11-28_24h15.16.431,vts_reward_expectancy_bt,2022.2.4,MacIntel,60.0024001,Chrome,1440,900,,,,,0,594,,,,,,,,,,,,,,,,,S,139,star,1,0,,3,,,,,,,,,,,,,,switch,letter,lettSwt,f,0.6864,vtsPrac,26,0,26,0,1,,,,,,,,,,,,,,,,,,,,,,,
294685,2022-11-28_24h15.16.431,vts_reward_expectancy_bt,2022.2.4,MacIntel,60.0024001,Chrome,1440,900,,,,,0,594,,,,,,,,,,,,,,,,,H,181,triangle,1,0,,3,,,,,,,,,,,,,,switch,number,numSwt,k,0.7167,vtsPrac,27,0,27,0,1,,,,,,,,,,,,,,,,,,,,,,,
294685,2022-11-28_24h15.16.431,vts_reward_expectancy_bt,2022.2.4,MacIntel,60.0024001,Chrome,1440,900,,,,,0,594,,,,,,,,,,,,,,,,,W,160,triangle,1,0,,3,,,,,,,,,,,,,,repeat,number,numRpt,k,1.0814,vtsPrac,28,0,28,0,1,,,,,,,,,,,,,,,,,,,,,,,
294685,2022-11-28_24h15.16.431,vts_reward_expectancy_bt,2022.2.4,MacIntel,60.0024001,Chrome,1440,900,,,,,0,594,,,,,,,,,,,,,,,,,Y,125,circle,0,0,,3,,,,,,,,,,,,,,repeat,number,NA,k,0.9815,vtsPrac,29,0,29,0,1,,,,,,,,,,,,,,,,,,,,,,,
294685,2022-11-28_24h15.16.431,vts_reward_expectancy_bt,2022.2.4,MacIntel,60.0024001,Chrome,1440,900,,,,,0,594,,,,,,,,,,,,,,,,,U,167,hexagon,1,1,,3,,,,,,,,,,,,,,switch,letter,lettSwt,f,0.8819,vtsPrac,30,0,30,0,1,,,,,,,,,,,,,,,,,,,,,,,
294685,2022-11-28_24h15.16.431,vts_reward_expectancy_bt,2022.2.4,MacIntel,60.0024001,Chrome,1440,900,,,,,0,594,,,,,,,,,,,,,,,,,B,139,star,1,0,,3,,,,,,,,,,,,,,repeat,letter,lettRpt,d,0.7141,vtsPrac,31,0,31,0,1,,,,,,,,,,,,,,,,,,,,,,,
294685,2022-11-28_24h15.16.431,vts_reward_expectancy_bt,2022.2.4,MacIntel,60.0024001,Chrome,1440,900,,,,,,,,,,,,,,,,,,,,,,,,,,,,,,,,,,,,,,,,,,,,,,,,,,,,,,,,,,,,,,,,,,,,,,,,,,,,
294685,2022-11-28_24h15.16.431,vts_reward_expectancy_bt,2022.2.4,MacIntel,60.0024001,Chrome,1440,900,,,,,,,,,,,,,,,,,,,,,,,,,,,,,,,,,,,,,,,,,,,,,,,,,,,,,,,,,,,,,,,,,,,,,,,,,,,,
294685,2022-11-28_24h15.16.431,vts_reward_expectancy_bt,2022.2.4,MacIntel,60.0024001,Chrome,1440,900,,,,,0,594,,,,,,,,,,,,,,,,,B,174,triangle,1,0,,,,,,,,,,,,,,,,repeat,letter,lettRpt,d,1.0899,noRew,,,,,,0,0,0,0,0,1,,,,,,,,,,,,,,,,,
294685,2022-11-28_24h15.16.431,vts_reward_expectancy_bt,2022.2.4,MacIntel,60.0024001,Chrome,1440,900,,,,,0,594,,,,,,,,,,,,,,,,,Y,132,circle,1,0,,,,,,,,,,,,,,,,switch,number,numSwt,j,0.6795,noRew,,,,,,0,1,0,1,0,1,,,,,,,,,,,,,,,,,
294685,2022-11-28_24h15.16.431,vts_reward_expectancy_bt,2022.2.4,MacIntel,60.0024001,Chrome,1440,900,,,,,0,594,,,,,,,,,,,,,,,,,U,139,triangle,1,0,,,,,,,,,,,,,,,,repeat,number,numRpt,j,0.7486,noRew,,,,,,0,2,0,2,0,1,,,,,,,,,,,,,,,,,
294685,2022-11-28_24h15.16.431,vts_reward_expectancy_bt,2022.2.4,MacIntel,60.0024001,Chrome,1440,900,,,,,0,594,,,,,,,,,,,,,,,,,D,146,circle,1,0,,,,,,,,,,,,,,,,repeat,number,numRpt,j,0.6443,noRew,,,,,,0,3,0,3,0,1,,,,,,,,,,,,,,,,,
294685,2022-11-28_24h15.16.431,vts_reward_expectancy_bt,2022.2.4,MacIntel,60.0024001,Chrome,1440,900,,,,,0,594,,,,,,,,,,,,,,,,,B,174,star,1,0,,,,,,,,,,,,,,,,repeat,number,numRpt,k,0.8685,noRew,,,,,,0,4,0,4,0,1,,,,,,,,,,,,,,,,,
294685,2022-11-28_24h15.16.431,vts_reward_expectancy_bt,2022.2.4,MacIntel,60.0024001,Chrome,1440,900,,,,,0,594,,,,,,,,,,,,,,,,,Y,132,hexagon,1,0,,,,,,,,,,,,,,,,repeat,number,numRpt,j,0.9208,noRew,,,,,,0,5,0,5,0,1,,,,,,,,,,,,,,,,,
294685,2022-11-28_24h15.16.431,vts_reward_expectancy_bt,2022.2.4,MacIntel,60.0024001,Chrome,1440,900,,,,,0,594,,,,,,,,,,,,,,,,,U,139,triangle,1,0,,,,,,,,,,,,,,,,repeat,number,numRpt,j,0.9747,noRew,,,,,,0,6,0,6,0,1,,,,,,,,,,,,,,,,,
294685,2022-11-28_24h15.16.431,vts_reward_expectancy_bt,2022.2.4,MacIntel,60.0024001,Chrome,1440,900,,,,,0,594,,,,,,,,,,,,,,,,,D,146,circle,1,0,,,,,,,,,,,,,,,,switch,letter,lettSwt,d,1.1258,noRew,,,,,,0,7,0,7,0,1,,,,,,,,,,,,,,,,,
294685,2022-11-28_24h15.16.431,vts_reward_expectancy_bt,2022.2.4,MacIntel,60.0024001,Chrome,1440,900,,,,,0,594,,,,,,,,,,,,,,,,,Y,139,star,1,0,,,,,,,,,,,,,,,,switch,number,numSwt,j,0.7604,noRew,,,,,,0,8,0,8,0,1,,,,,,,,,,,,,,,,,
294685,2022-11-28_24h15.16.431,vts_reward_expectancy_bt,2022.2.4,MacIntel,60.0024001,Chrome,1440,900,,,,,0,594,,,,,,,,,,,,,,,,,H,181,hexagon,1,0,,,,,,,,,,,,,,,,repeat,number,numRpt,k,1.7774,noRew,,,,,,0,9,0,9,0,1,,,,,,,,,,,,,,,,,
294685,2022-11-28_24h15.16.431,vts_reward_expectancy_bt,2022.2.4,MacIntel,60.0024001,Chrome,1440,900,,,,,0,594,,,,,,,,,,,,,,,,,S,132,triangle,1,0,,,,,,,,,,,,,,,,switch,letter,lettSwt,f,1.1182,noRew,,,,,,0,10,0,10,0,1,,,,,,,,,,,,,,,,,
294685,2022-11-28_24h15.16.431,vts_reward_expectancy_bt,2022.2.4,MacIntel,60.0024001,Chrome,1440,900,,,,,0,594,,,,,,,,,,,,,,,,,W,125,circle,1,0,,,,,,,,,,,,,,,,repeat,letter,lettRpt,f,1.2731,noRew,,,,,,0,11,0,11,0,1,,,,,,,,,,,,,,,,,
294685,2022-11-28_24h15.16.431,vts_reward_expectancy_bt,2022.2.4,MacIntel,60.0024001,Chrome,1440,900,,,,,0,594,,,,,,,,,,,,,,,,,D,146,hexagon,1,0,,,,,,,,,,,,,,,,switch,number,numSwt,j,1.1127,noRew,,,,,,0,12,0,12,0,1,,,,,,,,,,,,,,,,,
294685,2022-11-28_24h15.16.431,vts_reward_expectancy_bt,2022.2.4,MacIntel,60.0024001,Chrome,1440,900,,,,,0,594,,,,,,,,,,,,,,,,,F,181,triangle,1,0,,,,,,,,,,,,,,,,repeat,number,numRpt,k,0.5481,noRew,,,,,,0,13,0,13,0,1,,,,,,,,,,,,,,,,,
294685,2022-11-28_24h15.16.431,vts_reward_expectancy_bt,2022.2.4,MacIntel,60.0024001,Chrome,1440,900,,,,,0,594,,,,,,,,,,,,,,,,,B,139,triangle,1,0,,,,,,,,,,,,,,,,switch,letter,lettSwt,d,0.6429,noRew,,,,,,0,14,0,14,0,1,,,,,,,,,,,,,,,,,
294685,2022-11-28_24h15.16.431,vts_reward_expectancy_bt,2022.2.4,MacIntel,60.0024001,Chrome,1440,900,,,,,0,594,,,,,,,,,,,,,,,,,Y,174,hexagon,1,0,,,,,,,,,,,,,,,,repeat,letter,lettRpt,f,1.1873,noRew,,,,,,0,15,0,15,0,1,,,,,,,,,,,,,,,,,
294685,2022-11-28_24h15.16.431,vts_reward_expectancy_bt,2022.2.4,MacIntel,60.0024001,Chrome,1440,900,,,,,0,594,,,,,,,,,,,,,,,,,Y,174,circle,1,0,,,,,,,,,,,,,,,,repeat,letter,lettRpt,f,1.1501,noRew,,,,,,0,16,0,16,0,1,,,,,,,,,,,,,,,,,
294685,2022-11-28_24h15.16.431,vts_reward_expectancy_bt,2022.2.4,MacIntel,60.0024001,Chrome,1440,900,,,,,0,594,,,,,,,,,,,,,,,,,U,139,triangle,1,0,,,,,,,,,,,,,,,,switch,number,numSwt,j,1.0062,noRew,,,,,,0,17,0,17,0,1,,,,,,,,,,,,,,,,,
294685,2022-11-28_24h15.16.431,vts_reward_expectancy_bt,2022.2.4,MacIntel,60.0024001,Chrome,1440,900,,,,,0,594,,,,,,,,,,,,,,,,,W,132,circle,1,0,,,,,,,,,,,,,,,,repeat,number,numRpt,j,0.7471,noRew,,,,,,0,18,0,18,0,1,,,,,,,,,,,,,,,,,
294685,2022-11-28_24h15.16.431,vts_reward_expectancy_bt,2022.2.4,MacIntel,60.0024001,Chrome,1440,900,,,,,0,594,,,,,,,,,,,,,,,,,S,160,triangle,1,0,,,,,,,,,,,,,,,,repeat,number,numRpt,k,0.9851,noRew,,,,,,0,19,0,19,0,1,,,,,,,,,,,,,,,,,
294685,2022-11-28_24h15.16.431,vts_reward_expectancy_bt,2022.2.4,MacIntel,60.0024001,Chrome,1440,900,,,,,0,594,,,,,,,,,,,,,,,,,F,160,circle,1,0,,,,,,,,,,,,,,,,repeat,number,numRpt,k,0.692,noRew,,,,,,0,20,0,20,0,1,,,,,,,,,,,,,,,,,
294685,2022-11-28_24h15.16.431,vts_reward_expectancy_bt,2022.2.4,MacIntel,60.0024001,Chrome,1440,900,,,,,0,594,,,,,,,,,,,,,,,,,W,132,star,1,0,,,,,,,,,,,,,,,,repeat,number,numRpt,j,0.6658,noRew,,,,,,0,21,0,21,0,1,,,,,,,,,,,,,,,,,
294685,2022-11-28_24h15.16.431,vts_reward_expectancy_bt,2022.2.4,MacIntel,60.0024001,Chrome,1440,900,,,,,0,594,,,,,,,,,,,,,,,,,B,167,triangle,1,0,,,,,,,,,,,,,,,,switch,letter,lettSwt,d,0.6783,noRew,,,,,,0,22,0,22,0,1,,,,,,,,,,,,,,,,,
294685,2022-11-28_24h15.16.431,vts_reward_expectancy_bt,2022.2.4,MacIntel,60.0024001,Chrome,1440,900,,,,,0,594,,,,,,,,,,,,,,,,,U,125,circle,1,0,,,,,,,,,,,,,,,,repeat,letter,lettRpt,f,0.8867,noRew,,,,,,0,23,0,23,0,1,,,,,,,,,,,,,,,,,
294685,2022-11-28_24h15.16.431,vts_reward_expectancy_bt,2022.2.4,MacIntel,60.0024001,Chrome,1440,900,,,,,0,594,,,,,,,,,,,,,,,,,H,132,circle,1,0,,,,,,,,,,,,,,,,switch,number,numSwt,j,0.8664,noRew,,,,,,0,24,0,24,0,1,,,,,,,,,,,,,,,,,
294685,2022-11-28_24h15.16.431,vts_reward_expectancy_bt,2022.2.4,MacIntel,60.0024001,Chrome,1440,900,,,,,0,594,,,,,,,,,,,,,,,,,S,139,triangle,1,0,,,,,,,,,,,,,,,,repeat,number,numRpt,j,1.445,noRew,,,,,,0,25,0,25,0,1,,,,,,,,,,,,,,,,,
294685,2022-11-28_24h15.16.431,vts_reward_expectancy_bt,2022.2.4,MacIntel,60.0024001,Chrome,1440,900,,,,,0,594,,,,,,,,,,,,,,,,,U,160,triangle,1,0,,,,,,,,,,,,,,,,switch,letter,lettSwt,f,0.9159,noRew,,,,,,0,26,0,26,0,1,,,,,,,,,,,,,,,,,
294685,2022-11-28_24h15.16.431,vts_reward_expectancy_bt,2022.2.4,MacIntel,60.0024001,Chrome,1440,900,,,,,0,594,,,,,,,,,,,,,,,,,D,146,hexagon,1,0,,,,,,,,,,,,,,,,switch,number,numSwt,j,0.6382,noRew,,,,,,0,27,0,27,0,1,,,,,,,,,,,,,,,,,
294685,2022-11-28_24h15.16.431,vts_reward_expectancy_bt,2022.2.4,MacIntel,60.0024001,Chrome,1440,900,,,,,0,594,,,,,,,,,,,,,,,,,F,167,star,1,0,,,,,,,,,,,,,,,,repeat,number,numRpt,k,1.2725,noRew,,,,,,0,28,0,28,0,1,,,,,,,,,,,,,,,,,
294685,2022-11-28_24h15.16.431,vts_reward_expectancy_bt,2022.2.4,MacIntel,60.0024001,Chrome,1440,900,,,,,0,594,,,,,,,,,,,,,,,,,S,146,triangle,1,0,,,,,,,,,,,,,,,,repeat,number,numRpt,j,0.9157,noRew,,,,,,0,29,0,29,0,1,,,,,,,,,,,,,,,,,
294685,2022-11-28_24h15.16.431,vts_reward_expectancy_bt,2022.2.4,MacIntel,60.0024001,Chrome,1440,900,,,,,0,594,,,,,,,,,,,,,,,,,H,139,circle,1,0,,,,,,,,,,,,,,,,repeat,number,numRpt,j,0.8229,noRew,,,,,,0,30,0,30,0,1,,,,,,,,,,,,,,,,,
294685,2022-11-28_24h15.16.431,vts_reward_expectancy_bt,2022.2.4,MacIntel,60.0024001,Chrome,1440,900,,,,,0,594,,,,,,,,,,,,,,,,,U,160,hexagon,1,0,,,,,,,,,,,,,,,,repeat,number,numRpt,k,0.6663,noRew,,,,,,0,31,0,31,0,1,,,,,,,,,,,,,,,,,
294685,2022-11-28_24h15.16.431,vts_reward_expectancy_bt,2022.2.4,MacIntel,60.0024001,Chrome,1440,900,,,,,0,594,,,,,,,,,,,,,,,,,W,160,triangle,1,0,,,,,,,,,,,,,,,,repeat,number,numRpt,k,0.8423,noRew,,,,,,0,32,0,32,0,1,,,,,,,,,,,,,,,,,
294685,2022-11-28_24h15.16.431,vts_reward_expectancy_bt,2022.2.4,MacIntel,60.0024001,Chrome,1440,900,,,,,0,594,,,,,,,,,,,,,,,,,D,139,hexagon,1,0,,,,,,,,,,,,,,,,repeat,number,numRpt,j,0.6687,noRew,,,,,,0,33,0,33,0,1,,,,,,,,,,,,,,,,,
294685,2022-11-28_24h15.16.431,vts_reward_expectancy_bt,2022.2.4,MacIntel,60.0024001,Chrome,1440,900,,,,,0,594,,,,,,,,,,,,,,,,,S,167,triangle,1,0,,,,,,,,,,,,,,,,repeat,number,numRpt,k,1.2031,noRew,,,,,,0,34,0,34,0,1,,,,,,,,,,,,,,,,,
294685,2022-11-28_24h15.16.431,vts_reward_expectancy_bt,2022.2.4,MacIntel,60.0024001,Chrome,1440,900,,,,,0,594,,,,,,,,,,,,,,,,,F,174,hexagon,1,0,,,,,,,,,,,,,,,,switch,letter,lettSwt,d,0.9025,noRew,,,,,,0,35,0,35,0,1,,,,,,,,,,,,,,,,,
294685,2022-11-28_24h15.16.431,vts_reward_expectancy_bt,2022.2.4,MacIntel,60.0024001,Chrome,1440,900,,,,,0,594,,,,,,,,,,,,,,,,,D,174,hexagon,1,0,,,,,,,,,,,,,,,,repeat,letter,lettRpt,d,0.7103,noRew,,,,,,0,36,0,36,0,1,,,,,,,,,,,,,,,,,
294685,2022-11-28_24h15.16.431,vts_reward_expectancy_bt,2022.2.4,MacIntel,60.0024001,Chrome,1440,900,,,,,0,594,,,,,,,,,,,,,,,,,S,132,circle,1,0,,,,,,,,,,,,,,,,switch,number,numSwt,j,1.3488,noRew,,,,,,0,37,0,37,0,1,,,,,,,,,,,,,,,,,
294685,2022-11-28_24h15.16.431,vts_reward_expectancy_bt,2022.2.4,MacIntel,60.0024001,Chrome,1440,900,,,,,0,594,,,,,,,,,,,,,,,,,W,167,star,1,0,,,,,,,,,,,,,,,,switch,letter,lettSwt,f,1.1155,noRew,,,,,,0,38,0,38,0,1,,,,,,,,,,,,,,,,,
294685,2022-11-28_24h15.16.431,vts_reward_expectancy_bt,2022.2.4,MacIntel,60.0024001,Chrome,1440,900,,,,,0,594,,,,,,,,,,,,,,,,,Y,125,circle,1,0,,,,,,,,,,,,,,,,switch,number,numSwt,j,0.7284,noRew,,,,,,0,39,0,39,0,1,,,,,,,,,,,,,,,,,
294685,2022-11-28_24h15.16.431,vts_reward_expectancy_bt,2022.2.4,MacIntel,60.0024001,Chrome,1440,900,,,,,0,594,,,,,,,,,,,,,,,,,Y,167,triangle,1,0,,,,,,,,,,,,,,,,repeat,number,numRpt,k,0.8825,noRew,,,,,,0,40,0,40,0,1,,,,,,,,,,,,,,,,,
294685,2022-11-28_24h15.16.431,vts_reward_expectancy_bt,2022.2.4,MacIntel,60.0024001,Chrome,1440,900,,,,,0,594,,,,,,,,,,,,,,,,,H,132,star,1,0,,,,,,,,,,,,,,,,repeat,number,numRpt,j,1.1327,noRew,,,,,,0,41,0,41,0,1,,,,,,,,,,,,,,,,,
294685,2022-11-28_24h15.16.431,vts_reward_expectancy_bt,2022.2.4,MacIntel,60.0024001,Chrome,1440,900,,,,,0,594,,,,,,,,,,,,,,,,,B,139,circle,1,0,,,,,,,,,,,,,,,,repeat,number,numRpt,j,0.5677,noRew,,,,,,0,42,0,42,0,1,,,,,,,,,,,,,,,,,
294685,2022-11-28_24h15.16.431,vts_reward_expectancy_bt,2022.2.4,MacIntel,60.0024001,Chrome,1440,900,,,,,0,594,,,,,,,,,,,,,,,,,D,146,triangle,1,0,,,,,,,,,,,,,,,,repeat,number,numRpt,j,1.1015,noRew,,,,,,0,43,0,43,0,1,,,,,,,,,,,,,,,,,
294685,2022-11-28_24h15.16.431,vts_reward_expectancy_bt,2022.2.4,MacIntel,60.0024001,Chrome,1440,900,,,,,0,594,,,,,,,,,,,,,,,,,D,181,star,1,0,,,,,,,,,,,,,,,,repeat,number,numRpt,k,1.3332,noRew,,,,,,0,44,0,44,0,1,,,,,,,,,,,,,,,,,
294685,2022-11-28_24h15.16.431,vts_reward_expectancy_bt,2022.2.4,MacIntel,60.0024001,Chrome,1440,900,,,,,0,594,,,,,,,,,,,,,,,,,W,146,triangle,1,0,,,,,,,,,,,,,,,,repeat,number,numRpt,j,0.7662,noRew,,,,,,0,45,0,45,0,1,,,,,,,,,,,,,,,,,
294685,2022-11-28_24h15.16.431,vts_reward_expectancy_bt,2022.2.4,MacIntel,60.0024001,Chrome,1440,900,,,,,0,594,,,,,,,,,,,,,,,,,F,160,circle,1,0,,,,,,,,,,,,,,,,repeat,number,numRpt,k,0.6975,noRew,,,,,,0,46,0,46,0,1,,,,,,,,,,,,,,,,,
294685,2022-11-28_24h15.16.431,vts_reward_expectancy_bt,2022.2.4,MacIntel,60.0024001,Chrome,1440,900,,,,,0,594,,,,,,,,,,,,,,,,,U,174,star,1,0,,,,,,,,,,,,,,,,switch,letter,lettSwt,f,0.9308,noRew,,,,,,0,47,0,47,0,1,,,,,,,,,,,,,,,,,
294685,2022-11-28_24h15.16.431,vts_reward_expectancy_bt,2022.2.4,MacIntel,60.0024001,Chrome,1440,900,,,,,0,594,,,,,,,,,,,,,,,,,Y,181,triangle,1,0,,,,,,,,,,,,,,,,switch,number,numSwt,k,0.7731,noRew,,,,,,0,48,0,48,0,1,,,,,,,,,,,,,,,,,
294685,2022-11-28_24h15.16.431,vts_reward_expectancy_bt,2022.2.4,MacIntel,60.0024001,Chrome,1440,900,,,,,0,594,,,,,,,,,,,,,,,,,S,167,hexagon,1,0,,,,,,,,,,,,,,,,repeat,number,numRpt,k,0.8981,noRew,,,,,,0,49,0,49,0,1,,,,,,,,,,,,,,,,,
294685,2022-11-28_24h15.16.431,vts_reward_expectancy_bt,2022.2.4,MacIntel,60.0024001,Chrome,1440,900,,,,,0,594,,,,,,,,,,,,,,,,,B,125,triangle,1,0,,,,,,,,,,,,,,,,switch,letter,lettSwt,d,1.1318,noRew,,,,,,0,50,0,50,0,1,,,,,,,,,,,,,,,,,
294685,2022-11-28_24h15.16.431,vts_reward_expectancy_bt,2022.2.4,MacIntel,60.0024001,Chrome,1440,900,,,,,0,594,,,,,,,,,,,,,,,,,H,132,circle,1,0,,,,,,,,,,,,,,,,switch,number,numSwt,j,1.3987,noRew,,,,,,0,51,0,51,0,1,,,,,,,,,,,,,,,,,
294685,2022-11-28_24h15.16.431,vts_reward_expectancy_bt,2022.2.4,MacIntel,60.0024001,Chrome,1440,900,,,,,0,594,,,,,,,,,,,,,,,,,B,139,hexagon,1,0,,,,,,,,,,,,,,,,repeat,number,numRpt,j,1.1362,noRew,,,,,,0,52,0,52,0,1,,,,,,,,,,,,,,,,,
294685,2022-11-28_24h15.16.431,vts_reward_expectancy_bt,2022.2.4,MacIntel,60.0024001,Chrome,1440,900,,,,,0,594,,,,,,,,,,,,,,,,,D,132,triangle,1,0,,,,,,,,,,,,,,,,repeat,number,numRpt,j,0.6883,noRew,,,,,,0,53,0,53,0,1,,,,,,,,,,,,,,,,,
294685,2022-11-28_24h15.16.431,vts_reward_expectancy_bt,2022.2.4,MacIntel,60.0024001,Chrome,1440,900,,,,,0,594,,,,,,,,,,,,,,,,,F,174,hexagon,1,0,,,,,,,,,,,,,,,,repeat,number,numRpt,k,0.8699,noRew,,,,,,0,54,0,54,0,1,,,,,,,,,,,,,,,,,
294685,2022-11-28_24h15.16.431,vts_reward_expectancy_bt,2022.2.4,MacIntel,60.0024001,Chrome,1440,900,,,,,0,594,,,,,,,,,,,,,,,,,U,125,star,1,0,,,,,,,,,,,,,,,,repeat,number,numRpt,j,0.7407,noRew,,,,,,0,55,0,55,0,1,,,,,,,,,,,,,,,,,
294685,2022-11-28_24h15.16.431,vts_reward_expectancy_bt,2022.2.4,MacIntel,60.0024001,Chrome,1440,900,,,,,0,594,,,,,,,,,,,,,,,,,W,167,triangle,1,0,,,,,,,,,,,,,,,,repeat,number,numRpt,k,0.8161,noRew,,,,,,0,56,0,56,0,1,,,,,,,,,,,,,,,,,
294685,2022-11-28_24h15.16.431,vts_reward_expectancy_bt,2022.2.4,MacIntel,60.0024001,Chrome,1440,900,,,,,0,594,,,,,,,,,,,,,,,,,F,125,star,1,0,,,,,,,,,,,,,,,,repeat,number,numRpt,j,0.714,noRew,,,,,,0,57,0,57,0,1,,,,,,,,,,,,,,,,,
294685,2022-11-28_24h15.16.431,vts_reward_expectancy_bt,2022.2.4,MacIntel,60.0024001,Chrome,1440,900,,,,,0,594,,,,,,,,,,,,,,,,,H,139,triangle,1,0,,,,,,,,,,,,,,,,repeat,number,numRpt,j,1.0983,noRew,,,,,,0,58,0,58,0,1,,,,,,,,,,,,,,,,,
294685,2022-11-28_24h15.16.431,vts_reward_expectancy_bt,2022.2.4,MacIntel,60.0024001,Chrome,1440,900,,,,,0,594,,,,,,,,,,,,,,,,,B,146,circle,1,0,,,,,,,,,,,,,,,,switch,letter,lettSwt,d,0.7994,noRew,,,,,,0,59,0,59,0,1,,,,,,,,,,,,,,,,,
294685,2022-11-28_24h15.16.431,vts_reward_expectancy_bt,2022.2.4,MacIntel,60.0024001,Chrome,1440,900,,,,,0,594,,,,,,,,,,,,,,,,,B,139,triangle,1,0,,,,,,,,,,,,,,,,repeat,letter,lettRpt,d,0.6343,noRew,,,,,,0,60,0,60,0,1,,,,,,,,,,,,,,,,,
294685,2022-11-28_24h15.16.431,vts_reward_expectancy_bt,2022.2.4,MacIntel,60.0024001,Chrome,1440,900,,,,,0,594,,,,,,,,,,,,,,,,,W,167,circle,1,0,,,,,,,,,,,,,,,,switch,number,numSwt,k,0.8055,noRew,,,,,,0,61,0,61,0,1,,,,,,,,,,,,,,,,,
294685,2022-11-28_24h15.16.431,vts_reward_expectancy_bt,2022.2.4,MacIntel,60.0024001,Chrome,1440,900,,,,,0,594,,,,,,,,,,,,,,,,,U,125,star,1,0,,,,,,,,,,,,,,,,repeat,number,numRpt,j,1.0976,noRew,,,,,,0,62,0,62,0,1,,,,,,,,,,,,,,,,,
294685,2022-11-28_24h15.16.431,vts_reward_expectancy_bt,2022.2.4,MacIntel,60.0024001,Chrome,1440,900,,,,,0,594,,,,,,,,,,,,,,,,,S,146,triangle,1,0,,,,,,,,,,,,,,,,repeat,number,numRpt,j,1.016,noRew,,,,,,0,63,0,63,0,1,,,,,,,,,,,,,,,,,
294685,2022-11-28_24h15.16.431,vts_reward_expectancy_bt,2022.2.4,MacIntel,60.0024001,Chrome,1440,900,,,,,,,,,,,,,,,,,,,,,,,,,,,,,,,,,,,,,,,,,,,,,,,,,,,,,,,,,,,,,,,,,,,,,,,,,,,,
294685,2022-11-28_24h15.16.431,vts_reward_expectancy_bt,2022.2.4,MacIntel,60.0024001,Chrome,1440,900,,,,,0,594,,,,,,,,,,,,,,,,,D,146,hexagon,1,0,,,,,,,,,,,,,,,,switch,letter,lettSwt,d,1.3562,Hi,,,,,,0,,,,,,space,10.9582,high,0,0,0,0,1,,,,,,,,,
294685,2022-11-28_24h15.16.431,vts_reward_expectancy_bt,2022.2.4,MacIntel,60.0024001,Chrome,1440,900,,,,,10,604,,,,,,,,,,,,,,,,,B,125,star,1,0,,,,,,,,,,,,,,,,repeat,letter,lettRpt,d,0.6671,Lo,,,,,,0,,,,,,,,high,1,0,1,0,1,,,,,,,,,
294685,2022-11-28_24h15.16.431,vts_reward_expectancy_bt,2022.2.4,MacIntel,60.0024001,Chrome,1440,900,,,,,1,605,,,,,,,,,,,,,,,,,F,181,triangle,1,0,,,,,,,,,,,,,,,,repeat,letter,lettRpt,d,0.7485,Lo,,,,,,0,,,,,,,,high,2,0,2,0,1,,,,,,,,,
294685,2022-11-28_24h15.16.431,vts_reward_expectancy_bt,2022.2.4,MacIntel,60.0024001,Chrome,1440,900,,,,,0,605,,,,,,,,,,,,,,,,,U,167,circle,1,0,,,,,,,,,,,,,,,,switch,number,numSwt,k,0.9977,Hi,,,,,,0,,,,,,,,high,3,0,3,0,1,,,,,,,,,
294685,2022-11-28_24h15.16.431,vts_reward_expectancy_bt,2022.2.4,MacIntel,60.0024001,Chrome,1440,900,,,,,10,615,,,,,,,,,,,,,,,,,Y,160,hexagon,1,0,,,,,,,,,,,,,,,,repeat,number,numRpt,k,0.5145,Hi,,,,,,0,,,,,,,,high,4,0,4,0,1,,,,,,,,,
294685,2022-11-28_24h15.16.431,vts_reward_expectancy_bt,2022.2.4,MacIntel,60.0024001,Chrome,1440,900,,,,,1,616,,,,,,,,,,,,,,,,,S,139,star,1,0,,,,,,,,,,,,,,,,repeat,number,numRpt,j,0.5957,Lo,,,,,,0,,,,,,,,high,5,0,5,0,1,,,,,,,,,
294685,2022-11-28_24h15.16.431,vts_reward_expectancy_bt,2022.2.4,MacIntel,60.0024001,Chrome,1440,900,,,,,1,617,,,,,,,,,,,,,,,,,H,132,triangle,1,0,,,,,,,,,,,,,,,,repeat,number,numRpt,j,0.6981,Lo,,,,,,0,,,,,,,,high,6,0,6,0,1,,,,,,,,,
294685,2022-11-28_24h15.16.431,vts_reward_expectancy_bt,2022.2.4,MacIntel,60.0024001,Chrome,1440,900,,,,,10,627,,,,,,,,,,,,,,,,,W,174,circle,1,0,,,,,,,,,,,,,,,,switch,letter,lettSwt,f,0.6441,Hi,,,,,,0,,,,,,,,high,7,0,7,0,1,,,,,,,,,
294685,2022-11-28_24h15.16.431,vts_reward_expectancy_bt,2022.2.4,MacIntel,60.0024001,Chrome,1440,900,,,,,0,627,,,,,,,,,,,,,,,,,D,146,hexagon,1,0,,,,,,,,,,,,,,,,switch,number,numSwt,j,0.9472,Hi,,,,,,0,,,,,,,,high,8,0,8,0,1,,,,,,,,,
294685,2022-11-28_24h15.16.431,vts_reward_expectancy_bt,2022.2.4,MacIntel,60.0024001,Chrome,1440,900,,,,,10,637,,,,,,,,,,,,,,,,,B,125,star,1,0,,,,,,,,,,,,,,,,switch,letter,lettSwt,d,0.5664,Lo,,,,,,0,,,,,,,,high,9,0,9,0,1,,,,,,,,,
294685,2022-11-28_24h15.16.431,vts_reward_expectancy_bt,2022.2.4,MacIntel,60.0024001,Chrome,1440,900,,,,,1,638,,,,,,,,,,,,,,,,,F,181,triangle,1,0,,,,,,,,,,,,,,,,repeat,letter,lettRpt,d,0.7331,Lo,,,,,,0,,,,,,,,high,10,0,10,0,1,,,,,,,,,
294685,2022-11-28_24h15.16.431,vts_reward_expectancy_bt,2022.2.4,MacIntel,60.0024001,Chrome,1440,900,,,,,1,639,,,,,,,,,,,,,,,,,U,167,circle,1,0,,,,,,,,,,,,,,,,repeat,letter,lettRpt,f,0.6154,Hi,,,,,,0,,,,,,,,high,11,0,11,0,1,,,,,,,,,
294685,2022-11-28_24h15.16.431,vts_reward_expectancy_bt,2022.2.4,MacIntel,60.0024001,Chrome,1440,900,,,,,1,640,,,,,,,,,,,,,,,,,Y,160,star,1,0,,,,,,,,,,,,,,,,switch,number,numSwt,k,0.9144,Lo,,,,,,0,,,,,,,,high,12,0,12,0,1,,,,,,,,,
294685,2022-11-28_24h15.16.431,vts_reward_expectancy_bt,2022.2.4,MacIntel,60.0024001,Chrome,1440,900,,,,,10,650,,,,,,,,,,,,,,,,,S,139,triangle,1,0,,,,,,,,,,,,,,,,repeat,number,numRpt,j,0.7086,Lo,,,,,,0,,,,,,,,high,13,0,13,0,1,,,,,,,,,
294685,2022-11-28_24h15.16.431,vts_reward_expectancy_bt,2022.2.4,MacIntel,60.0024001,Chrome,1440,900,,,,,0,650,,,,,,,,,,,,,,,,,H,132,circle,0,0,,,,,,,,,,,,,,,,switch,letter,NA,f,0.6363,Lo,,,,,,0,,,,,,,,high,14,0,14,0,1,,,,,,,,,
294685,2022-11-28_24h15.16.431,vts_reward_expectancy_bt,2022.2.4,MacIntel,60.0024001,Chrome,1440,900,,,,,10,660,,,,,,,,,,,,,,,,,W,174,hexagon,1,1,,,,,,,,,,,,,,,,switch,number,numSwt,k,0.7316,Hi,,,,,,0,,,,,,,,high,15,0,15,0,1,,,,,,,,,
294685,2022-11-28_24h15.16.431,vts_reward_expectancy_bt,2022.2.4,MacIntel,60.0024001,Chrome,1440,900,,,,,1,661,,,,,,,,,,,,,,,,,H,125,triangle,1,0,,,,,,,,,,,,,,,,repeat,number,numRpt,j,0.5323,Lo,,,,,,0,,,,,,,,high,16,0,16,0,1,,,,,,,,,
294685,2022-11-28_24h15.16.431,vts_reward_expectancy_bt,2022.2.4,MacIntel,60.0024001,Chrome,1440,900,,,,,10,671,,,,,,,,,,,,,,,,,F,132,hexagon,1,0,,,,,,,,,,,,,,,,repeat,number,numRpt,j,0.6981,Hi,,,,,,0,,,,,,,,high,17,0,17,0,1,,,,,,,,,
294685,2022-11-28_24h15.16.431,vts_reward_expectancy_bt,2022.2.4,MacIntel,60.0024001,Chrome,1440,900,,,,,0,671,,,,,,,,,,,,,,,,,Y,146,star,0,0,,,,,,,,,,,,,,,,switch,letter,NA,d,0.818,Hi,,,,,,0,,,,,,,,high,18,0,18,0,1,,,,,,,,,
294685,2022-11-28_24h15.16.431,vts_reward_expectancy_bt,2022.2.4,MacIntel,60.0024001,Chrome,1440,900,,,,,10,681,,,,,,,,,,,,,,,,,D,174,circle,1,1,,,,,,,,,,,,,,,,repeat,letter,lettRpt,d,0.8148,Hi,,,,,,0,,,,,,,,high,19,0,19,0,1,,,,,,,,,
294685,2022-11-28_24h15.16.431,vts_reward_expectancy_bt,2022.2.4,MacIntel,60.0024001,Chrome,1440,900,,,,,0,681,,,,,,,,,,,,,,,,,U,139,hexagon,1,0,,,,,,,,,,,,,,,,repeat,letter,lettRpt,f,0.9396,Hi,,,,,,0,,,,,,,,high,20,0,20,0,1,,,,,,,,,
294685,2022-11-28_24h15.16.431,vts_reward_expectancy_bt,2022.2.4,MacIntel,60.0024001,Chrome,1440,900,,,,,10,691,,,,,,,,,,,,,,,,,S,160,circle,1,0,,,,,,,,,,,,,,,,repeat,letter,lettRpt,f,0.737,Hi,,,,,,0,,,,,,,,high,21,0,21,0,1,,,,,,,,,
294685,2022-11-28_24h15.16.431,vts_reward_expectancy_bt,2022.2.4,MacIntel,60.0024001,Chrome,1440,900,,,,,1,692,,,,,,,,,,,,,,,,,B,181,triangle,1,0,,,,,,,,,,,,,,,,switch,number,numSwt,k,0.6039,Lo,,,,,,0,,,,,,,,high,22,0,22,0,1,,,,,,,,,
294685,2022-11-28_24h15.16.431,vts_reward_expectancy_bt,2022.2.4,MacIntel,60.0024001,Chrome,1440,900,,,,,1,693,,,,,,,,,,,,,,,,,W,167,star,1,0,,,,,,,,,,,,,,,,repeat,number,numRpt,k,0.6822,Lo,,,,,,0,,,,,,,,high,23,0,23,0,1,,,,,,,,,
294685,2022-11-28_24h15.16.431,vts_reward_expectancy_bt,2022.2.4,MacIntel,60.0024001,Chrome,1440,900,,,,,1,694,,,,,,,,,,,,,,,,,U,167,star,1,0,,,,,,,,,,,,,,,,switch,letter,lettSwt,f,0.5371,Lo,,,,,,0,,,,,,,,high,24,0,24,0,1,,,,,,,,,
294685,2022-11-28_24h15.16.431,vts_reward_expectancy_bt,2022.2.4,MacIntel,60.0024001,Chrome,1440,900,,,,,10,704,,,,,,,,,,,,,,,,,W,139,circle,1,0,,,,,,,,,,,,,,,,repeat,letter,lettRpt,f,0.5976,Hi,,,,,,0,,,,,,,,high,25,0,25,0,1,,,,,,,,,
294685,2022-11-28_24h15.16.431,vts_reward_expectancy_bt,2022.2.4,MacIntel,60.0024001,Chrome,1440,900,,,,,1,705,,,,,,,,,,,,,,,,,F,146,triangle,1,0,,,,,,,,,,,,,,,,switch,number,numSwt,j,0.4653,Lo,,,,,,0,,,,,,,,high,26,0,26,0,1,,,,,,,,,
294685,2022-11-28_24h15.16.431,vts_reward_expectancy_bt,2022.2.4,MacIntel,60.0024001,Chrome,1440,900,,,,,10,715,,,,,,,,,,,,,,,,,D,181,hexagon,1,0,,,,,,,,,,,,,,,,repeat,number,numRpt,k,0.5201,Hi,,,,,,0,,,,,,,,high,27,0,27,0,1,,,,,,,,,
294685,2022-11-28_24h15.16.431,vts_reward_expectancy_bt,2022.2.4,MacIntel,60.0024001,Chrome,1440,900,,,,,10,725,,,,,,,,,,,,,,,,,S,160,circle,1,0,,,,,,,,,,,,,,,,switch,letter,lettSwt,f,0.8326,Hi,,,,,,0,,,,,,,,high,28,0,28,0,1,,,,,,,,,
294685,2022-11-28_24h15.16.431,vts_reward_expectancy_bt,2022.2.4,MacIntel,60.0024001,Chrome,1440,900,,,,,10,735,,,,,,,,,,,,,,,,,Y,174,triangle,1,0,,,,,,,,,,,,,,,,switch,number,numSwt,k,0.721,Lo,,,,,,0,,,,,,,,high,29,0,29,0,1,,,,,,,,,
294685,2022-11-28_24h15.16.431,vts_reward_expectancy_bt,2022.2.4,MacIntel,60.0024001,Chrome,1440,900,,,,,10,745,,,,,,,,,,,,,,,,,B,125,hexagon,1,0,,,,,,,,,,,,,,,,switch,letter,lettSwt,d,0.8483,Hi,,,,,,0,,,,,,,,high,30,0,30,0,1,,,,,,,,,
294685,2022-11-28_24h15.16.431,vts_reward_expectancy_bt,2022.2.4,MacIntel,60.0024001,Chrome,1440,900,,,,,1,746,,,,,,,,,,,,,,,,,H,132,star,1,0,,,,,,,,,,,,,,,,repeat,letter,lettRpt,d,0.8844,Lo,,,,,,0,,,,,,,,high,31,0,31,0,1,,,,,,,,,
294685,2022-11-28_24h15.16.431,vts_reward_expectancy_bt,2022.2.4,MacIntel,60.0024001,Chrome,1440,900,,,,,0,746,,,,,,,,,,,,,,,,,B,181,circle,1,0,,,,,,,,,,,,,,,,switch,number,numSwt,k,0.8012,Hi,,,,,,1,,,,,,space,4.3107,high,0,0,0,0,1,,,,,,,,,
294685,2022-11-28_24h15.16.431,vts_reward_expectancy_bt,2022.2.4,MacIntel,60.0024001,Chrome,1440,900,,,,,1,747,,,,,,,,,,,,,,,,,Y,146,triangle,1,0,,,,,,,,,,,,,,,,switch,letter,lettSwt,f,0.5685,Lo,,,,,,1,,,,,,,,high,1,0,1,0,1,,,,,,,,,
294685,2022-11-28_24h15.16.431,vts_reward_expectancy_bt,2022.2.4,MacIntel,60.0024001,Chrome,1440,900,,,,,10,757,,,,,,,,,,,,,,,,,W,174,star,1,0,,,,,,,,,,,,,,,,switch,number,numSwt,k,0.4826,Lo,,,,,,1,,,,,,,,high,2,0,2,0,1,,,,,,,,,
294685,2022-11-28_24h15.16.431,vts_reward_expectancy_bt,2022.2.4,MacIntel,60.0024001,Chrome,1440,900,,,,,0,757,,,,,,,,,,,,,,,,,H,160,hexagon,0,0,,,,,,,,,,,,,,,,switch,letter,NA,f,0.9064,Lo,,,,,,1,,,,,,,,high,3,0,3,0,1,,,,,,,,,
294685,2022-11-28_24h15.16.431,vts_reward_expectancy_bt,2022.2.4,MacIntel,60.0024001,Chrome,1440,900,,,,,0,757,,,,,,,,,,,,,,,,,F,167,circle,1,1,,,,,,,,,,,,,,,,repeat,letter,lettRpt,d,0.815,Hi,,,,,,1,,,,,,,,high,4,0,4,0,1,,,,,,,,,
294685,2022-11-28_24h15.16.431,vts_reward_expectancy_bt,2022.2.4,MacIntel,60.0024001,Chrome,1440,900,,,,,10,767,,,,,,,,,,,,,,,,,U,139,triangle,1,0,,,,,,,,,,,,,,,,repeat,letter,lettRpt,f,0.7569,Lo,,,,,,1,,,,,,,,high,5,0,5,0,1,,,,,,,,,
294685,2022-11-28_24h15.16.431,vts_reward_expectancy_bt,2022.2.4,MacIntel,60.0024001,Chrome,1440,900,,,,,1,768,,,,,,,,,,,,,,,,,D,125,star,1,0,,,,,,,,,,,,,,,,switch,number,numSwt,j,0.5015,Lo,,,,,,1,,,,,,,,high,6,0,6,0,1,,,,,,,,,
294685,2022-11-28_24h15.16.431,vts_reward_expectancy_bt,2022.2.4,MacIntel,60.0024001,Chrome,1440,900,,,,,0,768,,,,,,,,,,,,,,,,,S,132,hexagon,1,0,,,,,,,,,,,,,,,,repeat,number,numRpt,j,0.6849,Hi,,,,,,1,,,,,,,,high,7,0,7,0,1,,,,,,,,,
294685,2022-11-28_24h15.16.431,vts_reward_expectancy_bt,2022.2.4,MacIntel,60.0024001,Chrome,1440,900,,,,,0,768,,,,,,,,,,,,,,,,,B,181,circle,1,0,,,,,,,,,,,,,,,,repeat,number,numRpt,k,0.7099,Hi,,,,,,1,,,,,,,,high,8,0,8,0,1,,,,,,,,,
294685,2022-11-28_24h15.16.431,vts_reward_expectancy_bt,2022.2.4,MacIntel,60.0024001,Chrome,1440,900,,,,,10,778,,,,,,,,,,,,,,,,,Y,146,star,1,0,,,,,,,,,,,,,,,,repeat,number,numRpt,j,0.6943,Lo,,,,,,1,,,,,,,,high,9,0,9,0,1,,,,,,,,,
294685,2022-11-28_24h15.16.431,vts_reward_expectancy_bt,2022.2.4,MacIntel,60.0024001,Chrome,1440,900,,,,,1,779,,,,,,,,,,,,,,,,,W,174,triangle,1,0,,,,,,,,,,,,,,,,repeat,number,numRpt,k,0.5811,Lo,,,,,,1,,,,,,,,high,10,0,10,0,1,,,,,,,,,
294685,2022-11-28_24h15.16.431,vts_reward_expectancy_bt,2022.2.4,MacIntel,60.0024001,Chrome,1440,900,,,,,0,779,,,,,,,,,,,,,,,,,H,160,hexagon,0,0,,,,,,,,,,,,,,,,repeat,number,NA,j,0.7286,Lo,,,,,,1,,,,,,,,high,11,0,11,0,1,,,,,,,,,
294685,2022-11-28_24h15.16.431,vts_reward_expectancy_bt,2022.2.4,MacIntel,60.0024001,Chrome,1440,900,,,,,1,780,,,,,,,,,,,,,,,,,F,167,triangle,1,1,,,,,,,,,,,,,,,,repeat,number,numRpt,k,0.8443,Lo,,,,,,1,,,,,,,,high,12,0,12,0,1,,,,,,,,,
294685,2022-11-28_24h15.16.431,vts_reward_expectancy_bt,2022.2.4,MacIntel,60.0024001,Chrome,1440,900,,,,,1,781,,,,,,,,,,,,,,,,,U,139,star,1,0,,,,,,,,,,,,,,,,switch,letter,lettSwt,f,0.7367,Lo,,,,,,1,,,,,,,,high,13,0,13,0,1,,,,,,,,,
294685,2022-11-28_24h15.16.431,vts_reward_expectancy_bt,2022.2.4,MacIntel,60.0024001,Chrome,1440,900,,,,,0,781,,,,,,,,,,,,,,,,,D,125,hexagon,1,0,,,,,,,,,,,,,,,,switch,number,numSwt,j,0.8832,Hi,,,,,,1,,,,,,,,high,14,0,14,0,1,,,,,,,,,
294685,2022-11-28_24h15.16.431,vts_reward_expectancy_bt,2022.2.4,MacIntel,60.0024001,Chrome,1440,900,,,,,0,781,,,,,,,,,,,,,,,,,S,132,circle,1,0,,,,,,,,,,,,,,,,repeat,number,numRpt,j,0.8161,Hi,,,,,,1,,,,,,,,high,15,0,15,0,1,,,,,,,,,
294685,2022-11-28_24h15.16.431,vts_reward_expectancy_bt,2022.2.4,MacIntel,60.0024001,Chrome,1440,900,,,,,1,782,,,,,,,,,,,,,,,,,F,125,triangle,1,0,,,,,,,,,,,,,,,,switch,letter,lettSwt,d,0.7235,Lo,,,,,,1,,,,,,,,high,16,0,16,0,1,,,,,,,,,
294685,2022-11-28_24h15.16.431,vts_reward_expectancy_bt,2022.2.4,MacIntel,60.0024001,Chrome,1440,900,,,,,0,782,,,,,,,,,,,,,,,,,U,174,hexagon,1,0,,,,,,,,,,,,,,,,switch,number,numSwt,k,1.1862,Hi,,,,,,1,,,,,,,,high,17,0,17,0,1,,,,,,,,,
294685,2022-11-28_24h15.16.431,vts_reward_expectancy_bt,2022.2.4,MacIntel,60.0024001,Chrome,1440,900,,,,,0,782,,,,,,,,,,,,,,,,,S,181,circle,1,0,,,,,,,,,,,,,,,,repeat,number,numRpt,k,0.6827,Hi,,,,,,1,,,,,,,,high,18,0,18,0,1,,,,,,,,,
294685,2022-11-28_24h15.16.431,vts_reward_expectancy_bt,2022.2.4,MacIntel,60.0024001,Chrome,1440,900,,,,,10,792,,,,,,,,,,,,,,,,,W,146,star,1,0,,,,,,,,,,,,,,,,repeat,number,numRpt,j,0.5485,Lo,,,,,,1,,,,,,,,high,19,0,19,0,1,,,,,,,,,
294685,2022-11-28_24h15.16.431,vts_reward_expectancy_bt,2022.2.4,MacIntel,60.0024001,Chrome,1440,900,,,,,10,802,,,,,,,,,,,,,,,,,D,139,circle,1,0,,,,,,,,,,,,,,,,switch,letter,lettSwt,d,0.554,Hi,,,,,,1,,,,,,,,high,20,0,20,0,1,,,,,,,,,
294685,2022-11-28_24h15.16.431,vts_reward_expectancy_bt,2022.2.4,MacIntel,60.0024001,Chrome,1440,900,,,,,1,803,,,,,,,,,,,,,,,,,B,132,triangle,1,0,,,,,,,,,,,,,,,,repeat,letter,lettRpt,d,0.5475,Lo,,,,,,1,,,,,,,,high,21,0,21,0,1,,,,,,,,,
294685,2022-11-28_24h15.16.431,vts_reward_expectancy_bt,2022.2.4,MacIntel,60.0024001,Chrome,1440,900,,,,,10,813,,,,,,,,,,,,,,,,,Y,167,star,1,0,,,,,,,,,,,,,,,,repeat,letter,lettRpt,f,0.4133,Lo,,,,,,1,,,,,,,,high,22,0,22,0,1,,,,,,,,,
294685,2022-11-28_24h15.16.431,vts_reward_expectancy_bt,2022.2.4,MacIntel,60.0024001,Chrome,1440,900,,,,,10,823,,,,,,,,,,,,,,,,,H,160,hexagon,1,0,,,,,,,,,,,,,,,,repeat,letter,lettRpt,d,0.6995,Hi,,,,,,1,,,,,,,,high,23,0,23,0,1,,,,,,,,,
294685,2022-11-28_24h15.16.431,vts_reward_expectancy_bt,2022.2.4,MacIntel,60.0024001,Chrome,1440,900,,,,,10,833,,,,,,,,,,,,,,,,,H,125,hexagon,1,0,,,,,,,,,,,,,,,,repeat,letter,lettRpt,d,0.5777,Hi,,,,,,1,,,,,,,,high,24,0,24,0,1,,,,,,,,,
294685,2022-11-28_24h15.16.431,vts_reward_expectancy_bt,2022.2.4,MacIntel,60.0024001,Chrome,1440,900,,,,,1,834,,,,,,,,,,,,,,,,,D,167,star,1,0,,,,,,,,,,,,,,,,repeat,letter,lettRpt,d,0.4445,Lo,,,,,,1,,,,,,,,high,25,0,25,0,1,,,,,,,,,
294685,2022-11-28_24h15.16.431,vts_reward_expectancy_bt,2022.2.4,MacIntel,60.0024001,Chrome,1440,900,,,,,1,835,,,,,,,,,,,,,,,,,F,146,triangle,1,0,,,,,,,,,,,,,,,,switch,number,numSwt,j,0.6384,Lo,,,,,,1,,,,,,,,high,26,0,26,0,1,,,,,,,,,
294685,2022-11-28_24h15.16.431,vts_reward_expectancy_bt,2022.2.4,MacIntel,60.0024001,Chrome,1440,900,,,,,10,845,,,,,,,,,,,,,,,,,Y,139,circle,1,0,,,,,,,,,,,,,,,,repeat,number,numRpt,j,0.4882,Hi,,,,,,1,,,,,,,,high,27,0,27,0,1,,,,,,,,,
294685,2022-11-28_24h15.16.431,vts_reward_expectancy_bt,2022.2.4,MacIntel,60.0024001,Chrome,1440,900,,,,,0,845,,,,,,,,,,,,,,,,,S,181,hexagon,0,0,,,,,,,,,,,,,,,,switch,letter,NA,d,0.731,Hi,,,,,,1,,,,,,,,high,28,0,28,0,1,,,,,,,,,
294685,2022-11-28_24h15.16.431,vts_reward_expectancy_bt,2022.2.4,MacIntel,60.0024001,Chrome,1440,900,,,,,10,855,,,,,,,,,,,,,,,,,U,174,circle,1,1,,,,,,,,,,,,,,,,repeat,letter,lettRpt,f,0.6135,Hi,,,,,,1,,,,,,,,high,29,0,29,0,1,,,,,,,,,
294685,2022-11-28_24h15.16.431,vts_reward_expectancy_bt,2022.2.4,MacIntel,60.0024001,Chrome,1440,900,,,,,1,856,,,,,,,,,,,,,,,,,W,132,star,1,0,,,,,,,,,,,,,,,,repeat,letter,lettRpt,f,0.595,Lo,,,,,,1,,,,,,,,high,30,0,30,0,1,,,,,,,,,
294685,2022-11-28_24h15.16.431,vts_reward_expectancy_bt,2022.2.4,MacIntel,60.0024001,Chrome,1440,900,,,,,1,857,,,,,,,,,,,,,,,,,B,160,triangle,1,0,,,,,,,,,,,,,,,,repeat,letter,lettRpt,d,0.4671,Lo,,,,,,1,,,,,,,,high,31,0,31,0,1,,,,,,,,,
294685,2022-11-28_24h15.16.431,vts_reward_expectancy_bt,2022.2.4,MacIntel,60.0024001,Chrome,1440,900,,,,,0,857,,,,,,,,,,,,,,,,,B,146,hexagon,0,0,,,,,,,,,,,,,,,,switch,number,NA,k,0.8456,Lo,,,,,,2,,,,,,space,0.9443,high,0,0,0,0,1,,,,,,,,,
294685,2022-11-28_24h15.16.431,vts_reward_expectancy_bt,2022.2.4,MacIntel,60.0024001,Chrome,1440,900,,,,,0,857,,,,,,,,,,,,,,,,,W,160,circle,1,1,,,,,,,,,,,,,,,,repeat,number,numRpt,k,0.6997,Hi,,,,,,2,,,,,,,,high,1,0,1,0,1,,,,,,,,,
294685,2022-11-28_24h15.16.431,vts_reward_expectancy_bt,2022.2.4,MacIntel,60.0024001,Chrome,1440,900,,,,,1,858,,,,,,,,,,,,,,,,,F,174,triangle,1,0,,,,,,,,,,,,,,,,repeat,number,numRpt,k,0.8153,Lo,,,,,,2,,,,,,,,high,2,0,2,0,1,,,,,,,,,
294685,2022-11-28_24h15.16.431,vts_reward_expectancy_bt,2022.2.4,MacIntel,60.0024001,Chrome,1440,900,,,,,10,868,,,,,,,,,,,,,,,,,U,132,star,1,0,,,,,,,,,,,,,,,,switch,letter,lettSwt,f,0.5931,Lo,,,,,,2,,,,,,,,high,3,0,3,0,1,,,,,,,,,
294685,2022-11-28_24h15.16.431,vts_reward_expectancy_bt,2022.2.4,MacIntel,60.0024001,Chrome,1440,900,,,,,0,868,,,,,,,,,,,,,,,,,S,139,hexagon,1,0,,,,,,,,,,,,,,,,switch,number,numSwt,j,0.6887,Hi,,,,,,2,,,,,,,,high,4,0,4,0,1,,,,,,,,,
294685,2022-11-28_24h15.16.431,vts_reward_expectancy_bt,2022.2.4,MacIntel,60.0024001,Chrome,1440,900,,,,,0,868,,,,,,,,,,,,,,,,,Y,167,circle,1,0,,,,,,,,,,,,,,,,switch,letter,lettSwt,f,0.7216,Hi,,,,,,2,,,,,,,,high,5,0,5,0,1,,,,,,,,,
294685,2022-11-28_24h15.16.431,vts_reward_expectancy_bt,2022.2.4,MacIntel,60.0024001,Chrome,1440,900,,,,,1,869,,,,,,,,,,,,,,,,,H,181,triangle,1,0,,,,,,,,,,,,,,,,repeat,letter,lettRpt,d,0.7744,Lo,,,,,,2,,,,,,,,high,6,0,6,0,1,,,,,,,,,
294685,2022-11-28_24h15.16.431,vts_reward_expectancy_bt,2022.2.4,MacIntel,60.0024001,Chrome,1440,900,,,,,1,870,,,,,,,,,,,,,,,,,D,125,star,1,0,,,,,,,,,,,,,,,,switch,number,numSwt,j,0.667,Lo,,,,,,2,,,,,,,,high,7,0,7,0,1,,,,,,,,,
294685,2022-11-28_24h15.16.431,vts_reward_expectancy_bt,2022.2.4,MacIntel,60.0024001,Chrome,1440,900,,,,,0,870,,,,,,,,,,,,,,,,,B,146,circle,1,0,,,,,,,,,,,,,,,,repeat,number,numRpt,j,0.6781,Hi,,,,,,2,,,,,,,,high,8,0,8,0,1,,,,,,,,,
294685,2022-11-28_24h15.16.431,vts_reward_expectancy_bt,2022.2.4,MacIntel,60.0024001,Chrome,1440,900,,,,,1,871,,,,,,,,,,,,,,,,,W,160,triangle,1,0,,,,,,,,,,,,,,,,switch,letter,lettSwt,f,0.8648,Lo,,,,,,2,,,,,,,,high,9,0,9,0,1,,,,,,,,,
294685,2022-11-28_24h15.16.431,vts_reward_expectancy_bt,2022.2.4,MacIntel,60.0024001,Chrome,1440,900,,,,,1,872,,,,,,,,,,,,,,,,,F,174,star,1,0,,,,,,,,,,,,,,,,repeat,letter,lettRpt,d,0.6275,Lo,,,,,,2,,,,,,,,high,10,0,10,0,1,,,,,,,,,
294685,2022-11-28_24h15.16.431,vts_reward_expectancy_bt,2022.2.4,MacIntel,60.0024001,Chrome,1440,900,,,,,0,872,,,,,,,,,,,,,,,,,U,132,hexagon,1,0,,,,,,,,,,,,,,,,switch,number,numSwt,j,0.6157,Hi,,,,,,2,,,,,,,,high,11,0,11,0,1,,,,,,,,,
294685,2022-11-28_24h15.16.431,vts_reward_expectancy_bt,2022.2.4,MacIntel,60.0024001,Chrome,1440,900,,,,,0,872,,,,,,,,,,,,,,,,,S,139,circle,1,0,,,,,,,,,,,,,,,,switch,letter,lettSwt,f,0.9107,Hi,,,,,,2,,,,,,,,high,12,0,12,0,1,,,,,,,,,
294685,2022-11-28_24h15.16.431,vts_reward_expectancy_bt,2022.2.4,MacIntel,60.0024001,Chrome,1440,900,,,,,0,872,,,,,,,,,,,,,,,,,Y,167,hexagon,1,0,,,,,,,,,,,,,,,,repeat,letter,lettRpt,f,0.6454,Hi,,,,,,2,,,,,,,,high,13,0,13,0,1,,,,,,,,,
294685,2022-11-28_24h15.16.431,vts_reward_expectancy_bt,2022.2.4,MacIntel,60.0024001,Chrome,1440,900,,,,,10,882,,,,,,,,,,,,,,,,,H,181,star,1,0,,,,,,,,,,,,,,,,repeat,letter,lettRpt,d,0.5557,Lo,,,,,,2,,,,,,,,high,14,0,14,0,1,,,,,,,,,
294685,2022-11-28_24h15.16.431,vts_reward_expectancy_bt,2022.2.4,MacIntel,60.0024001,Chrome,1440,900,,,,,1,883,,,,,,,,,,,,,,,,,D,125,triangle,1,0,,,,,,,,,,,,,,,,switch,number,numSwt,j,0.5655,Lo,,,,,,2,,,,,,,,high,15,0,15,0,1,,,,,,,,,
294685,2022-11-28_24h15.16.431,vts_reward_expectancy_bt,2022.2.4,MacIntel,60.0024001,Chrome,1440,900,,,,,0,883,,,,,,,,,,,,,,,,,F,160,hexagon,1,0,,,,,,,,,,,,,,,,switch,letter,lettSwt,d,0.6329,Hi,,,,,,2,,,,,,,,high,16,0,16,0,1,,,,,,,,,
294685,2022-11-28_24h15.16.431,vts_reward_expectancy_bt,2022.2.4,MacIntel,60.0024001,Chrome,1440,900,,,,,0,883,,,,,,,,,,,,,,,,,W,139,triangle,0,0,,,,,,,,,,,,,,,,repeat,letter,NA,d,0.6527,Hi,,,,,,2,,,,,,,,high,17,0,17,0,1,,,,,,,,,
294685,2022-11-28_24h15.16.431,vts_reward_expectancy_bt,2022.2.4,MacIntel,60.0024001,Chrome,1440,900,,,,,1,884,,,,,,,,,,,,,,,,,S,167,star,1,1,,,,,,,,,,,,,,,,repeat,letter,lettRpt,f,0.787,Lo,,,,,,2,,,,,,,,high,18,0,18,0,1,,,,,,,,,
294685,2022-11-28_24h15.16.431,vts_reward_expectancy_bt,2022.2.4,MacIntel,60.0024001,Chrome,1440,900,,,,,0,884,,,,,,,,,,,,,,,,,H,146,circle,1,0,,,,,,,,,,,,,,,,repeat,letter,lettRpt,d,0.7456,Hi,,,,,,2,,,,,,,,high,19,0,19,0,1,,,,,,,,,
294685,2022-11-28_24h15.16.431,vts_reward_expectancy_bt,2022.2.4,MacIntel,60.0024001,Chrome,1440,900,,,,,1,885,,,,,,,,,,,,,,,,,U,132,star,1,0,,,,,,,,,,,,,,,,switch,number,numSwt,j,0.5993,Lo,,,,,,2,,,,,,,,high,20,0,20,0,1,,,,,,,,,
294685,2022-11-28_24h15.16.431,vts_reward_expectancy_bt,2022.2.4,MacIntel,60.0024001,Chrome,1440,900,,,,,0,885,,,,,,,,,,,,,,,,,B,181,circle,1,0,,,,,,,,,,,,,,,,repeat,number,numRpt,k,1.0987,Hi,,,,,,2,,,,,,,,high,21,0,21,0,1,,,,,,,,,
294685,2022-11-28_24h15.16.431,vts_reward_expectancy_bt,2022.2.4,MacIntel,60.0024001,Chrome,1440,900,,,,,0,885,,,,,,,,,,,,,,,,,D,125,triangle,0,0,,,,,,,,,,,,,,,,repeat,number,NA,k,1.0197,Hi,,,,,,2,,,,,,,,high,22,0,22,0,1,,,,,,,,,
294685,2022-11-28_24h15.16.431,vts_reward_expectancy_bt,2022.2.4,MacIntel,60.0024001,Chrome,1440,900,,,,,10,895,,,,,,,,,,,,,,,,,Y,174,hexagon,1,1,,,,,,,,,,,,,,,,repeat,number,numRpt,k,0.5981,Hi,,,,,,2,,,,,,,,high,23,0,23,0,1,,,,,,,,,
294685,2022-11-28_24h15.16.431,vts_reward_expectancy_bt,2022.2.4,MacIntel,60.0024001,Chrome,1440,900,,,,,0,895,,,,,,,,,,,,,,,,,F,125,circle,1,0,,,,,,,,,,,,,,,,switch,letter,lettSwt,d,0.6566,Hi,,,,,,2,,,,,,,,high,24,0,24,0,1,,,,,,,,,
294685,2022-11-28_24h15.16.431,vts_reward_expectancy_bt,2022.2.4,MacIntel,60.0024001,Chrome,1440,900,,,,,0,895,,,,,,,,,,,,,,,,,U,181,hexagon,1,0,,,,,,,,,,,,,,,,switch,number,numSwt,k,0.7142,Hi,,,,,,2,,,,,,,,high,25,0,25,0,1,,,,,,,,,
294685,2022-11-28_24h15.16.431,vts_reward_expectancy_bt,2022.2.4,MacIntel,60.0024001,Chrome,1440,900,,,,,0,895,,,,,,,,,,,,,,,,,B,139,triangle,0,0,,,,,,,,,,,,,,,,repeat,number,NA,k,0.7844,Hi,,,,,,2,,,,,,,,high,26,0,26,0,1,,,,,,,,,
294685,2022-11-28_24h15.16.431,vts_reward_expectancy_bt,2022.2.4,MacIntel,60.0024001,Chrome,1440,900,,,,,1,896,,,,,,,,,,,,,,,,,W,146,star,1,1,,,,,,,,,,,,,,,,repeat,number,numRpt,j,0.881,Lo,,,,,,2,,,,,,,,high,27,0,27,0,1,,,,,,,,,
294685,2022-11-28_24h15.16.431,vts_reward_expectancy_bt,2022.2.4,MacIntel,60.0024001,Chrome,1440,900,,,,,10,906,,,,,,,,,,,,,,,,,S,132,hexagon,1,0,,,,,,,,,,,,,,,,repeat,number,numRpt,j,0.6301,Hi,,,,,,2,,,,,,,,high,28,0,28,0,1,,,,,,,,,
294685,2022-11-28_24h15.16.431,vts_reward_expectancy_bt,2022.2.4,MacIntel,60.0024001,Chrome,1440,900,,,,,1,907,,,,,,,,,,,,,,,,,D,160,triangle,1,0,,,,,,,,,,,,,,,,repeat,number,numRpt,k,0.7146,Lo,,,,,,2,,,,,,,,high,29,0,29,0,1,,,,,,,,,
294685,2022-11-28_24h15.16.431,vts_reward_expectancy_bt,2022.2.4,MacIntel,60.0024001,Chrome,1440,900,,,,,0,907,,,,,,,,,,,,,,,,,Y,167,circle,1,0,,,,,,,,,,,,,,,,repeat,number,numRpt,k,0.7317,Hi,,,,,,2,,,,,,,,high,30,0,30,0,1,,,,,,,,,
294685,2022-11-28_24h15.16.431,vts_reward_expectancy_bt,2022.2.4,MacIntel,60.0024001,Chrome,1440,900,,,,,1,908,,,,,,,,,,,,,,,,,H,174,star,1,0,,,,,,,,,,,,,,,,repeat,number,numRpt,k,0.7164,Lo,,,,,,2,,,,,,,,high,31,0,31,0,1,,,,,,,,,
294685,2022-11-28_24h15.16.431,vts_reward_expectancy_bt,2022.2.4,MacIntel,60.0024001,Chrome,1440,900,,,,,1,909,,,,,,,,,,,,,,,,,U,139,star,1,0,,,,,,,,,,,,,,,,repeat,number,numRpt,j,1.1135,Lo,,,,,,3,,,,,,space,4.6773,high,0,0,0,0,1,,,,,,,,,
294685,2022-11-28_24h15.16.431,vts_reward_expectancy_bt,2022.2.4,MacIntel,60.0024001,Chrome,1440,900,,,,,0,909,,,,,,,,,,,,,,,,,B,146,circle,1,0,,,,,,,,,,,,,,,,repeat,number,numRpt,j,0.7039,Hi,,,,,,3,,,,,,,,high,1,0,1,0,1,,,,,,,,,
294685,2022-11-28_24h15.16.431,vts_reward_expectancy_bt,2022.2.4,MacIntel,60.0024001,Chrome,1440,900,,,,,0,909,,,,,,,,,,,,,,,,,H,167,hexagon,0,0,,,,,,,,,,,,,,,,repeat,number,NA,j,0.7984,Hi,,,,,,3,,,,,,,,high,2,0,2,0,1,,,,,,,,,
294685,2022-11-28_24h15.16.431,vts_reward_expectancy_bt,2022.2.4,MacIntel,60.0024001,Chrome,1440,900,,,,,10,919,,,,,,,,,,,,,,,,,S,132,triangle,1,1,,,,,,,,,,,,,,,,repeat,number,numRpt,j,0.432,Lo,,,,,,3,,,,,,,,high,3,0,3,0,1,,,,,,,,,
294685,2022-11-28_24h15.16.431,vts_reward_expectancy_bt,2022.2.4,MacIntel,60.0024001,Chrome,1440,900,,,,,1,920,,,,,,,,,,,,,,,,,Y,174,star,1,0,,,,,,,,,,,,,,,,switch,letter,lettSwt,f,1.2681,Lo,,,,,,3,,,,,,,,high,4,0,4,0,1,,,,,,,,,
294685,2022-11-28_24h15.16.431,vts_reward_expectancy_bt,2022.2.4,MacIntel,60.0024001,Chrome,1440,900,,,,,0,920,,,,,,,,,,,,,,,,,F,160,circle,0,0,,,,,,,,,,,,,,,,repeat,letter,NA,f,0.5205,Lo,,,,,,3,,,,,,,,high,5,0,5,0,1,,,,,,,,,
294685,2022-11-28_24h15.16.431,vts_reward_expectancy_bt,2022.2.4,MacIntel,60.0024001,Chrome,1440,900,,,,,0,920,,,,,,,,,,,,,,,,,D,181,hexagon,1,1,,,,,,,,,,,,,,,,switch,number,numSwt,k,0.6541,Hi,,,,,,3,,,,,,,,high,6,0,6,0,1,,,,,,,,,
294685,2022-11-28_24h15.16.431,vts_reward_expectancy_bt,2022.2.4,MacIntel,60.0024001,Chrome,1440,900,,,,,1,921,,,,,,,,,,,,,,,,,W,125,triangle,1,0,,,,,,,,,,,,,,,,repeat,number,numRpt,j,0.6813,Lo,,,,,,3,,,,,,,,high,7,0,7,0,1,,,,,,,,,
294685,2022-11-28_24h15.16.431,vts_reward_expectancy_bt,2022.2.4,MacIntel,60.0024001,Chrome,1440,900,,,,,1,922,,,,,,,,,,,,,,,,,U,139,triangle,1,0,,,,,,,,,,,,,,,,repeat,number,numRpt,j,0.6185,Lo,,,,,,3,,,,,,,,high,8,0,8,0,1,,,,,,,,,
294685,2022-11-28_24h15.16.431,vts_reward_expectancy_bt,2022.2.4,MacIntel,60.0024001,Chrome,1440,900,,,,,10,932,,,,,,,,,,,,,,,,,B,146,circle,1,0,,,,,,,,,,,,,,,,repeat,number,numRpt,j,0.5696,Hi,,,,,,3,,,,,,,,high,9,0,9,0,1,,,,,,,,,
294685,2022-11-28_24h15.16.431,vts_reward_expectancy_bt,2022.2.4,MacIntel,60.0024001,Chrome,1440,900,,,,,1,933,,,,,,,,,,,,,,,,,H,167,star,1,0,,,,,,,,,,,,,,,,repeat,number,numRpt,k,0.9941,Lo,,,,,,3,,,,,,,,high,10,0,10,0,1,,,,,,,,,
294685,2022-11-28_24h15.16.431,vts_reward_expectancy_bt,2022.2.4,MacIntel,60.0024001,Chrome,1440,900,,,,,10,943,,,,,,,,,,,,,,,,,S,132,hexagon,1,0,,,,,,,,,,,,,,,,repeat,number,numRpt,j,0.6877,Hi,,,,,,3,,,,,,,,high,11,0,11,0,1,,,,,,,,,
294685,2022-11-28_24h15.16.431,vts_reward_expectancy_bt,2022.2.4,MacIntel,60.0024001,Chrome,1440,900,,,,,1,944,,,,,,,,,,,,,,,,,Y,174,star,1,0,,,,,,,,,,,,,,,,repeat,number,numRpt,k,0.5776,Lo,,,,,,3,,,,,,,,high,12,0,12,0,1,,,,,,,,,
294685,2022-11-28_24h15.16.431,vts_reward_expectancy_bt,2022.2.4,MacIntel,60.0024001,Chrome,1440,900,,,,,10,954,,,,,,,,,,,,,,,,,F,160,hexagon,1,0,,,,,,,,,,,,,,,,repeat,number,numRpt,k,0.6657,Hi,,,,,,3,,,,,,,,high,13,0,13,0,1,,,,,,,,,
294685,2022-11-28_24h15.16.431,vts_reward_expectancy_bt,2022.2.4,MacIntel,60.0024001,Chrome,1440,900,,,,,1,955,,,,,,,,,,,,,,,,,D,181,circle,1,0,,,,,,,,,,,,,,,,repeat,number,numRpt,k,0.6451,Hi,,,,,,3,,,,,,,,high,14,0,14,0,1,,,,,,,,,
294685,2022-11-28_24h15.16.431,vts_reward_expectancy_bt,2022.2.4,MacIntel,60.0024001,Chrome,1440,900,,,,,1,956,,,,,,,,,,,,,,,,,W,125,triangle,1,0,,,,,,,,,,,,,,,,repeat,number,numRpt,j,0.7283,Lo,,,,,,3,,,,,,,,high,15,0,15,0,1,,,,,,,,,
294685,2022-11-28_24h15.16.431,vts_reward_expectancy_bt,2022.2.4,MacIntel,60.0024001,Chrome,1440,900,,,,,1,957,,,,,,,,,,,,,,,,,H,181,star,1,0,,,,,,,,,,,,,,,,repeat,number,numRpt,k,0.5112,Lo,,,,,,3,,,,,,,,high,16,0,16,0,1,,,,,,,,,
294685,2022-11-28_24h15.16.431,vts_reward_expectancy_bt,2022.2.4,MacIntel,60.0024001,Chrome,1440,900,,,,,0,957,,,,,,,,,,,,,,,,,S,139,hexagon,1,0,,,,,,,,,,,,,,,,repeat,number,numRpt,j,0.7354,Hi,,,,,,3,,,,,,,,high,17,0,17,0,1,,,,,,,,,
294685,2022-11-28_24h15.16.431,vts_reward_expectancy_bt,2022.2.4,MacIntel,60.0024001,Chrome,1440,900,,,,,1,958,,,,,,,,,,,,,,,,,B,132,triangle,1,0,,,,,,,,,,,,,,,,repeat,number,numRpt,j,0.6204,Lo,,,,,,3,,,,,,,,high,18,0,18,0,1,,,,,,,,,
294685,2022-11-28_24h15.16.431,vts_reward_expectancy_bt,2022.2.4,MacIntel,60.0024001,Chrome,1440,900,,,,,1,959,,,,,,,,,,,,,,,,,U,146,circle,1,0,,,,,,,,,,,,,,,,repeat,number,numRpt,j,0.6361,Hi,,,,,,3,,,,,,,,high,19,0,19,0,1,,,,,,,,,
294685,2022-11-28_24h15.16.431,vts_reward_expectancy_bt,2022.2.4,MacIntel,60.0024001,Chrome,1440,900,,,,,1,960,,,,,,,,,,,,,,,,,W,160,star,1,0,,,,,,,,,,,,,,,,repeat,number,numRpt,k,0.7002,Lo,,,,,,3,,,,,,,,high,20,0,20,0,1,,,,,,,,,
294685,2022-11-28_24h15.16.431,vts_reward_expectancy_bt,2022.2.4,MacIntel,60.0024001,Chrome,1440,900,,,,,10,970,,,,,,,,,,,,,,,,,D,174,hexagon,1,0,,,,,,,,,,,,,,,,repeat,number,numRpt,k,0.6913,Hi,,,,,,3,,,,,,,,high,21,0,21,0,1,,,,,,,,,
294685,2022-11-28_24h15.16.431,vts_reward_expectancy_bt,2022.2.4,MacIntel,60.0024001,Chrome,1440,900,,,,,0,970,,,,,,,,,,,,,,,,,F,167,circle,1,0,,,,,,,,,,,,,,,,repeat,number,numRpt,k,0.715,Hi,,,,,,3,,,,,,,,high,22,0,22,0,1,,,,,,,,,
294685,2022-11-28_24h15.16.431,vts_reward_expectancy_bt,2022.2.4,MacIntel,60.0024001,Chrome,1440,900,,,,,1,971,,,,,,,,,,,,,,,,,Y,125,triangle,1,0,,,,,,,,,,,,,,,,repeat,number,numRpt,j,0.5828,Lo,,,,,,3,,,,,,,,high,23,0,23,0,1,,,,,,,,,
294685,2022-11-28_24h15.16.431,vts_reward_expectancy_bt,2022.2.4,MacIntel,60.0024001,Chrome,1440,900,,,,,0,971,,,,,,,,,,,,,,,,,U,160,circle,1,0,,,,,,,,,,,,,,,,repeat,number,numRpt,k,0.7657,Hi,,,,,,3,,,,,,,,high,24,0,24,0,1,,,,,,,,,
294685,2022-11-28_24h15.16.431,vts_reward_expectancy_bt,2022.2.4,MacIntel,60.0024001,Chrome,1440,900,,,,,1,972,,,,,,,,,,,,,,,,,D,139,star,1,0,,,,,,,,,,,,,,,,repeat,number,numRpt,j,0.7611,Lo,,,,,,3,,,,,,,,high,25,0,25,0,1,,,,,,,,,
294685,2022-11-28_24h15.16.431,vts_reward_expectancy_bt,2022.2.4,MacIntel,60.0024001,Chrome,1440,900,,,,,10,982,,,,,,,,,,,,,,,,,Y,167,hexagon,1,0,,,,,,,,,,,,,,,,repeat,number,numRpt,k,0.5046,Hi,,,,,,3,,,,,,,,high,26,0,26,0,1,,,,,,,,,
294685,2022-11-28_24h15.16.431,vts_reward_expectancy_bt,2022.2.4,MacIntel,60.0024001,Chrome,1440,900,,,,,1,983,,,,,,,,,,,,,,,,,W,132,triangle,1,0,,,,,,,,,,,,,,,,repeat,number,numRpt,j,0.8119,Lo,,,,,,3,,,,,,,,high,27,0,27,0,1,,,,,,,,,
294685,2022-11-28_24h15.16.431,vts_reward_expectancy_bt,2022.2.4,MacIntel,60.0024001,Chrome,1440,900,,,,,0,983,,,,,,,,,,,,,,,,,B,174,hexagon,1,0,,,,,,,,,,,,,,,,repeat,number,numRpt,k,0.8946,Hi,,,,,,3,,,,,,,,high,28,0,28,0,1,,,,,,,,,
294685,2022-11-28_24h15.16.431,vts_reward_expectancy_bt,2022.2.4,MacIntel,60.0024001,Chrome,1440,900,,,,,1,984,,,,,,,,,,,,,,,,,S,181,star,1,0,,,,,,,,,,,,,,,,repeat,number,numRpt,k,0.7716,Lo,,,,,,3,,,,,,,,high,29,0,29,0,1,,,,,,,,,
294685,2022-11-28_24h15.16.431,vts_reward_expectancy_bt,2022.2.4,MacIntel,60.0024001,Chrome,1440,900,,,,,1,985,,,,,,,,,,,,,,,,,H,125,triangle,1,0,,,,,,,,,,,,,,,,repeat,number,numRpt,j,0.9949,Lo,,,,,,3,,,,,,,,high,30,0,30,0,1,,,,,,,,,
294685,2022-11-28_24h15.16.431,vts_reward_expectancy_bt,2022.2.4,MacIntel,60.0024001,Chrome,1440,900,,,,,0,985,,,,,,,,,,,,,,,,,F,146,circle,1,0,,,,,,,,,,,,,,,,repeat,number,numRpt,j,0.8028,Hi,,,,,,3,,,,,,,,high,31,0,31,0,1,,,,,,,,,
294685,2022-11-28_24h15.16.431,vts_reward_expectancy_bt,2022.2.4,MacIntel,60.0024001,Chrome,1440,900,,,,,1,986,,,,,,,,,,,,,,,,,B,174,triangle,1,0,,,,,,,,,,,,,,,,switch,letter,lettSwt,d,0.7973,Lo,,,,,,4,,,,,,space,1.5464,high,0,0,0,0,1,,,,,,,,,
294685,2022-11-28_24h15.16.431,vts_reward_expectancy_bt,2022.2.4,MacIntel,60.0024001,Chrome,1440,900,,,,,1,987,,,,,,,,,,,,,,,,,Y,146,star,1,0,,,,,,,,,,,,,,,,repeat,letter,lettRpt,f,0.7188,Lo,,,,,,4,,,,,,,,high,1,0,1,0,1,,,,,,,,,
294685,2022-11-28_24h15.16.431,vts_reward_expectancy_bt,2022.2.4,MacIntel,60.0024001,Chrome,1440,900,,,,,10,997,,,,,,,,,,,,,,,,,D,181,circle,1,0,,,,,,,,,,,,,,,,repeat,letter,lettRpt,d,0.5479,Hi,,,,,,4,,,,,,,,high,2,0,2,0,1,,,,,,,,,
294685,2022-11-28_24h15.16.431,vts_reward_expectancy_bt,2022.2.4,MacIntel,60.0024001,Chrome,1440,900,,,,,10,1007,,,,,,,,,,,,,,,,,H,139,hexagon,1,0,,,,,,,,,,,,,,,,repeat,letter,lettRpt,d,0.7821,Hi,,,,,,4,,,,,,,,high,3,0,3,0,1,,,,,,,,,
294685,2022-11-28_24h15.16.431,vts_reward_expectancy_bt,2022.2.4,MacIntel,60.0024001,Chrome,1440,900,,,,,10,1017,,,,,,,,,,,,,,,,,S,160,triangle,1,0,,,,,,,,,,,,,,,,repeat,letter,lettRpt,f,0.7066,Lo,,,,,,4,,,,,,,,high,4,0,4,0,1,,,,,,,,,
294685,2022-11-28_24h15.16.431,vts_reward_expectancy_bt,2022.2.4,MacIntel,60.0024001,Chrome,1440,900,,,,,10,1027,,,,,,,,,,,,,,,,,W,125,star,1,0,,,,,,,,,,,,,,,,repeat,letter,lettRpt,f,0.6319,Lo,,,,,,4,,,,,,,,high,5,0,5,0,1,,,,,,,,,
294685,2022-11-28_24h15.16.431,vts_reward_expectancy_bt,2022.2.4,MacIntel,60.0024001,Chrome,1440,900,,,,,10,1037,,,,,,,,,,,,,,,,,F,167,circle,1,0,,,,,,,,,,,,,,,,repeat,letter,lettRpt,d,0.6332,Hi,,,,,,4,,,,,,,,high,6,0,6,0,1,,,,,,,,,
294685,2022-11-28_24h15.16.431,vts_reward_expectancy_bt,2022.2.4,MacIntel,60.0024001,Chrome,1440,900,,,,,10,1047,,,,,,,,,,,,,,,,,U,132,hexagon,1,0,,,,,,,,,,,,,,,,repeat,letter,lettRpt,f,0.5292,Hi,,,,,,4,,,,,,,,high,7,0,7,0,1,,,,,,,,,
294685,2022-11-28_24h15.16.431,vts_reward_expectancy_bt,2022.2.4,MacIntel,60.0024001,Chrome,1440,900,,,,,1,1048,,,,,,,,,,,,,,,,,B,174,triangle,1,0,,,,,,,,,,,,,,,,repeat,letter,lettRpt,d,0.6362,Lo,,,,,,4,,,,,,,,high,8,0,8,0,1,,,,,,,,,
294685,2022-11-28_24h15.16.431,vts_reward_expectancy_bt,2022.2.4,MacIntel,60.0024001,Chrome,1440,900,,,,,1,1049,,,,,,,,,,,,,,,,,Y,146,star,1,0,,,,,,,,,,,,,,,,repeat,letter,lettRpt,f,0.833,Lo,,,,,,4,,,,,,,,high,9,0,9,0,1,,,,,,,,,
294685,2022-11-28_24h15.16.431,vts_reward_expectancy_bt,2022.2.4,MacIntel,60.0024001,Chrome,1440,900,,,,,1,1050,,,,,,,,,,,,,,,,,D,181,circle,1,0,,,,,,,,,,,,,,,,repeat,letter,lettRpt,d,0.4996,Hi,,,,,,4,,,,,,,,high,10,0,10,0,1,,,,,,,,,
294685,2022-11-28_24h15.16.431,vts_reward_expectancy_bt,2022.2.4,MacIntel,60.0024001,Chrome,1440,900,,,,,0,1050,,,,,,,,,,,,,,,,,H,139,hexagon,0,0,,,,,,,,,,,,,,,,repeat,letter,NA,f,0.4835,Hi,,,,,,4,,,,,,,,high,11,0,11,0,1,,,,,,,,,
294685,2022-11-28_24h15.16.431,vts_reward_expectancy_bt,2022.2.4,MacIntel,60.0024001,Chrome,1440,900,,,,,1,1051,,,,,,,,,,,,,,,,,S,160,circle,1,1,,,,,,,,,,,,,,,,repeat,letter,lettRpt,f,1.0661,Hi,,,,,,4,,,,,,,,high,12,0,12,0,1,,,,,,,,,
294685,2022-11-28_24h15.16.431,vts_reward_expectancy_bt,2022.2.4,MacIntel,60.0024001,Chrome,1440,900,,,,,1,1052,,,,,,,,,,,,,,,,,W,125,triangle,1,0,,,,,,,,,,,,,,,,repeat,letter,lettRpt,f,0.6701,Lo,,,,,,4,,,,,,,,high,13,0,13,0,1,,,,,,,,,
294685,2022-11-28_24h15.16.431,vts_reward_expectancy_bt,2022.2.4,MacIntel,60.0024001,Chrome,1440,900,,,,,1,1053,,,,,,,,,,,,,,,,,F,167,hexagon,1,0,,,,,,,,,,,,,,,,repeat,letter,lettRpt,d,0.9358,Hi,,,,,,4,,,,,,,,high,14,0,14,0,1,,,,,,,,,
294685,2022-11-28_24h15.16.431,vts_reward_expectancy_bt,2022.2.4,MacIntel,60.0024001,Chrome,1440,900,,,,,1,1054,,,,,,,,,,,,,,,,,U,132,star,1,0,,,,,,,,,,,,,,,,repeat,letter,lettRpt,f,0.792,Lo,,,,,,4,,,,,,,,high,15,0,15,0,1,,,,,,,,,
294685,2022-11-28_24h15.16.431,vts_reward_expectancy_bt,2022.2.4,MacIntel,60.0024001,Chrome,1440,900,,,,,10,1064,,,,,,,,,,,,,,,,,Y,139,circle,1,0,,,,,,,,,,,,,,,,repeat,letter,lettRpt,f,0.7886,Hi,,,,,,4,,,,,,,,high,16,0,16,0,1,,,,,,,,,
294685,2022-11-28_24h15.16.431,vts_reward_expectancy_bt,2022.2.4,MacIntel,60.0024001,Chrome,1440,900,,,,,10,1074,,,,,,,,,,,,,,,,,S,181,hexagon,1,0,,,,,,,,,,,,,,,,repeat,letter,lettRpt,f,0.832,Hi,,,,,,4,,,,,,,,high,17,0,17,0,1,,,,,,,,,
294685,2022-11-28_24h15.16.431,vts_reward_expectancy_bt,2022.2.4,MacIntel,60.0024001,Chrome,1440,900,,,,,1,1075,,,,,,,,,,,,,,,,,W,167,star,1,0,,,,,,,,,,,,,,,,repeat,letter,lettRpt,f,0.6513,Lo,,,,,,4,,,,,,,,high,18,0,18,0,1,,,,,,,,,
294685,2022-11-28_24h15.16.431,vts_reward_expectancy_bt,2022.2.4,MacIntel,60.0024001,Chrome,1440,900,,,,,1,1076,,,,,,,,,,,,,,,,,B,146,triangle,1,0,,,,,,,,,,,,,,,,repeat,letter,lettRpt,d,1.8647,Lo,,,,,,4,,,,,,,,high,19,0,19,0,1,,,,,,,,,
294685,2022-11-28_24h15.16.431,vts_reward_expectancy_bt,2022.2.4,MacIntel,60.0024001,Chrome,1440,900,,,,,1,1077,,,,,,,,,,,,,,,,,F,174,triangle,1,0,,,,,,,,,,,,,,,,repeat,letter,lettRpt,d,0.7476,Lo,,,,,,4,,,,,,,,high,20,0,20,0,1,,,,,,,,,
294685,2022-11-28_24h15.16.431,vts_reward_expectancy_bt,2022.2.4,MacIntel,60.0024001,Chrome,1440,900,,,,,10,1087,,,,,,,,,,,,,,,,,D,132,hexagon,1,0,,,,,,,,,,,,,,,,repeat,letter,lettRpt,d,0.8986,Hi,,,,,,4,,,,,,,,high,21,0,21,0,1,,,,,,,,,
294685,2022-11-28_24h15.16.431,vts_reward_expectancy_bt,2022.2.4,MacIntel,60.0024001,Chrome,1440,900,,,,,1,1088,,,,,,,,,,,,,,,,,U,125,circle,1,0,,,,,,,,,,,,,,,,repeat,letter,lettRpt,f,1.8925,Hi,,,,,,4,,,,,,,,high,22,0,22,0,1,,,,,,,,,
294685,2022-11-28_24h15.16.431,vts_reward_expectancy_bt,2022.2.4,MacIntel,60.0024001,Chrome,1440,900,,,,,10,1098,,,,,,,,,,,,,,,,,H,160,star,1,0,,,,,,,,,,,,,,,,repeat,letter,lettRpt,d,2.2468,Lo,,,,,,4,,,,,,,,high,23,0,23,0,1,,,,,,,,,
294685,2022-11-28_24h15.16.431,vts_reward_expectancy_bt,2022.2.4,MacIntel,60.0024001,Chrome,1440,900,,,,,10,1108,,,,,,,,,,,,,,,,,B,132,triangle,1,0,,,,,,,,,,,,,,,,repeat,letter,lettRpt,d,0.9749,Lo,,,,,,4,,,,,,,,high,24,0,24,0,1,,,,,,,,,
294685,2022-11-28_24h15.16.431,vts_reward_expectancy_bt,2022.2.4,MacIntel,60.0024001,Chrome,1440,900,,,,,1,1109,,,,,,,,,,,,,,,,,H,146,star,1,0,,,,,,,,,,,,,,,,repeat,letter,lettRpt,d,0.9745,Lo,,,,,,4,,,,,,,,high,25,0,25,0,1,,,,,,,,,
294685,2022-11-28_24h15.16.431,vts_reward_expectancy_bt,2022.2.4,MacIntel,60.0024001,Chrome,1440,900,,,,,10,1119,,,,,,,,,,,,,,,,,U,181,circle,1,0,,,,,,,,,,,,,,,,repeat,letter,lettRpt,f,0.8103,Hi,,,,,,4,,,,,,,,high,26,0,26,0,1,,,,,,,,,
294685,2022-11-28_24h15.16.431,vts_reward_expectancy_bt,2022.2.4,MacIntel,60.0024001,Chrome,1440,900,,,,,10,1129,,,,,,,,,,,,,,,,,S,160,hexagon,1,0,,,,,,,,,,,,,,,,repeat,letter,lettRpt,f,0.8141,Hi,,,,,,4,,,,,,,,high,27,0,27,0,1,,,,,,,,,
294685,2022-11-28_24h15.16.431,vts_reward_expectancy_bt,2022.2.4,MacIntel,60.0024001,Chrome,1440,900,,,,,1,1130,,,,,,,,,,,,,,,,,W,174,triangle,1,0,,,,,,,,,,,,,,,,repeat,letter,lettRpt,f,0.7122,Lo,,,,,,4,,,,,,,,high,28,0,28,0,1,,,,,,,,,
294685,2022-11-28_24h15.16.431,vts_reward_expectancy_bt,2022.2.4,MacIntel,60.0024001,Chrome,1440,900,,,,,1,1131,,,,,,,,,,,,,,,,,F,167,star,1,0,,,,,,,,,,,,,,,,repeat,letter,lettRpt,d,0.9124,Lo,,,,,,4,,,,,,,,high,29,0,29,0,1,,,,,,,,,
294685,2022-11-28_24h15.16.431,vts_reward_expectancy_bt,2022.2.4,MacIntel,60.0024001,Chrome,1440,900,,,,,1,1132,,,,,,,,,,,,,,,,,D,139,hexagon,1,0,,,,,,,,,,,,,,,,repeat,letter,lettRpt,d,0.7474,Hi,,,,,,4,,,,,,,,high,30,0,30,0,1,,,,,,,,,
294685,2022-11-28_24h15.16.431,vts_reward_expectancy_bt,2022.2.4,MacIntel,60.0024001,Chrome,1440,900,,,,,1,1133,,,,,,,,,,,,,,,,,Y,125,circle,1,0,,,,,,,,,,,,,,,,repeat,letter,lettRpt,f,0.666,Hi,,,,,,4,,,,,,,,high,31,0,31,0,1,,,,,,,,,
294685,2022-11-28_24h15.16.431,vts_reward_expectancy_bt,2022.2.4,MacIntel,60.0024001,Chrome,1440,900,,,,,10,1143,,,,,,,,,,,,,,,,,H,125,circle,1,0,,,,,,,,,,,,,,,,repeat,letter,lettRpt,d,0.5526,Hi,,,,,,5,,,,,,space,2.0137,high,0,0,0,0,1,,,,,,,,,
294685,2022-11-28_24h15.16.431,vts_reward_expectancy_bt,2022.2.4,MacIntel,60.0024001,Chrome,1440,900,,,,,1,1144,,,,,,,,,,,,,,,,,F,160,triangle,1,0,,,,,,,,,,,,,,,,repeat,letter,lettRpt,d,0.5305,Lo,,,,,,5,,,,,,,,high,1,0,1,0,1,,,,,,,,,
294685,2022-11-28_24h15.16.431,vts_reward_expectancy_bt,2022.2.4,MacIntel,60.0024001,Chrome,1440,900,,,,,10,1154,,,,,,,,,,,,,,,,,B,132,star,1,0,,,,,,,,,,,,,,,,repeat,letter,lettRpt,d,0.5131,Lo,,,,,,5,,,,,,,,high,2,0,2,0,1,,,,,,,,,
294685,2022-11-28_24h15.16.431,vts_reward_expectancy_bt,2022.2.4,MacIntel,60.0024001,Chrome,1440,900,,,,,10,1164,,,,,,,,,,,,,,,,,D,167,hexagon,1,0,,,,,,,,,,,,,,,,repeat,letter,lettRpt,d,0.5654,Hi,,,,,,5,,,,,,,,high,3,0,3,0,1,,,,,,,,,
294685,2022-11-28_24h15.16.431,vts_reward_expectancy_bt,2022.2.4,MacIntel,60.0024001,Chrome,1440,900,,,,,10,1174,,,,,,,,,,,,,,,,,S,146,circle,1,0,,,,,,,,,,,,,,,,repeat,letter,lettRpt,f,0.6977,Hi,,,,,,5,,,,,,,,high,4,0,4,0,1,,,,,,,,,
294685,2022-11-28_24h15.16.431,vts_reward_expectancy_bt,2022.2.4,MacIntel,60.0024001,Chrome,1440,900,,,,,1,1175,,,,,,,,,,,,,,,,,U,174,triangle,1,0,,,,,,,,,,,,,,,,repeat,letter,lettRpt,f,0.6293,Lo,,,,,,5,,,,,,,,high,5,0,5,0,1,,,,,,,,,
294685,2022-11-28_24h15.16.431,vts_reward_expectancy_bt,2022.2.4,MacIntel,60.0024001,Chrome,1440,900,,,,,1,1176,,,,,,,,,,,,,,,,,W,181,star,1,0,,,,,,,,,,,,,,,,switch,number,numSwt,k,0.5359,Lo,,,,,,5,,,,,,,,high,6,0,6,0,1,,,,,,,,,
294685,2022-11-28_24h15.16.431,vts_reward_expectancy_bt,2022.2.4,MacIntel,60.0024001,Chrome,1440,900,,,,,0,1176,,,,,,,,,,,,,,,,,Y,139,hexagon,1,0,,,,,,,,,,,,,,,,switch,letter,lettSwt,f,0.8309,Hi,,,,,,5,,,,,,,,high,7,0,7,0,1,,,,,,,,,
294685,2022-11-28_24h15.16.431,vts_reward_expectancy_bt,2022.2.4,MacIntel,60.0024001,Chrome,1440,900,,,,,0,1176,,,,,,,,,,,,,,,,,H,125,hexagon,0,0,,,,,,,,,,,,,,,,repeat,letter,NA,f,0.8328,Hi,,,,,,5,,,,,,,,high,8,0,8,0,1,,,,,,,,,
294685,2022-11-28_24h15.16.431,vts_reward_expectancy_bt,2022.2.4,MacIntel,60.0024001,Chrome,1440,900,,,,,10,1186,,,,,,,,,,,,,,,,,F,160,circle,1,1,,,,,,,,,,,,,,,,repeat,letter,lettRpt,d,0.5316,Hi,,,,,,5,,,,,,,,high,9,0,9,0,1,,,,,,,,,
294685,2022-11-28_24h15.16.431,vts_reward_expectancy_bt,2022.2.4,MacIntel,60.0024001,Chrome,1440,900,,,,,1,1187,,,,,,,,,,,,,,,,,B,132,star,1,0,,,,,,,,,,,,,,,,repeat,letter,lettRpt,d,0.6998,Lo,,,,,,5,,,,,,,,high,10,0,10,0,1,,,,,,,,,
294685,2022-11-28_24h15.16.431,vts_reward_expectancy_bt,2022.2.4,MacIntel,60.0024001,Chrome,1440,900,,,,,1,1188,,,,,,,,,,,,,,,,,D,167,triangle,1,0,,,,,,,,,,,,,,,,repeat,letter,lettRpt,d,0.6604,Lo,,,,,,5,,,,,,,,high,11,0,11,0,1,,,,,,,,,
294685,2022-11-28_24h15.16.431,vts_reward_expectancy_bt,2022.2.4,MacIntel,60.0024001,Chrome,1440,900,,,,,0,1188,,,,,,,,,,,,,,,,,S,146,circle,0,0,,,,,,,,,,,,,,,,repeat,letter,NA,d,0.7285,Lo,,,,,,5,,,,,,,,high,12,0,12,0,1,,,,,,,,,
294685,2022-11-28_24h15.16.431,vts_reward_expectancy_bt,2022.2.4,MacIntel,60.0024001,Chrome,1440,900,,,,,1,1189,,,,,,,,,,,,,,,,,U,174,triangle,1,1,,,,,,,,,,,,,,,,repeat,letter,lettRpt,f,0.7175,Lo,,,,,,5,,,,,,,,high,13,0,13,0,1,,,,,,,,,
294685,2022-11-28_24h15.16.431,vts_reward_expectancy_bt,2022.2.4,MacIntel,60.0024001,Chrome,1440,900,,,,,1,1190,,,,,,,,,,,,,,,,,W,181,star,1,0,,,,,,,,,,,,,,,,repeat,letter,lettRpt,f,0.6963,Lo,,,,,,5,,,,,,,,high,14,0,14,0,1,,,,,,,,,
294685,2022-11-28_24h15.16.431,vts_reward_expectancy_bt,2022.2.4,MacIntel,60.0024001,Chrome,1440,900,,,,,0,1190,,,,,,,,,,,,,,,,,Y,139,hexagon,1,0,,,,,,,,,,,,,,,,repeat,letter,lettRpt,f,0.8128,Hi,,,,,,5,,,,,,,,high,15,0,15,0,1,,,,,,,,,
294685,2022-11-28_24h15.16.431,vts_reward_expectancy_bt,2022.2.4,MacIntel,60.0024001,Chrome,1440,900,,,,,1,1191,,,,,,,,,,,,,,,,,B,139,star,1,0,,,,,,,,,,,,,,,,repeat,letter,lettRpt,d,0.5225,Lo,,,,,,5,,,,,,,,high,16,0,16,0,1,,,,,,,,,
294685,2022-11-28_24h15.16.431,vts_reward_expectancy_bt,2022.2.4,MacIntel,60.0024001,Chrome,1440,900,,,,,10,1201,,,,,,,,,,,,,,,,,H,146,hexagon,1,0,,,,,,,,,,,,,,,,repeat,letter,lettRpt,d,0.6662,Hi,,,,,,5,,,,,,,,high,17,0,17,0,1,,,,,,,,,
294685,2022-11-28_24h15.16.431,vts_reward_expectancy_bt,2022.2.4,MacIntel,60.0024001,Chrome,1440,900,,,,,10,1211,,,,,,,,,,,,,,,,,Y,167,triangle,1,0,,,,,,,,,,,,,,,,repeat,letter,lettRpt,f,1.3538,Lo,,,,,,5,,,,,,,,high,18,0,18,0,1,,,,,,,,,
294685,2022-11-28_24h15.16.431,vts_reward_expectancy_bt,2022.2.4,MacIntel,60.0024001,Chrome,1440,900,,,,,10,1221,,,,,,,,,,,,,,,,,D,181,circle,1,0,,,,,,,,,,,,,,,,repeat,letter,lettRpt,d,0.6951,Hi,,,,,,5,,,,,,,,high,19,0,19,0,1,,,,,,,,,
294685,2022-11-28_24h15.16.431,vts_reward_expectancy_bt,2022.2.4,MacIntel,60.0024001,Chrome,1440,900,,,,,1,1222,,,,,,,,,,,,,,,,,S,174,triangle,1,0,,,,,,,,,,,,,,,,repeat,letter,lettRpt,f,0.7375,Lo,,,,,,5,,,,,,,,high,20,0,20,0,1,,,,,,,,,
294685,2022-11-28_24h15.16.431,vts_reward_expectancy_bt,2022.2.4,MacIntel,60.0024001,Chrome,1440,900,,,,,0,1222,,,,,,,,,,,,,,,,,U,132,circle,1,0,,,,,,,,,,,,,,,,repeat,letter,lettRpt,f,0.8027,Hi,,,,,,5,,,,,,,,high,21,0,21,0,1,,,,,,,,,
294685,2022-11-28_24h15.16.431,vts_reward_expectancy_bt,2022.2.4,MacIntel,60.0024001,Chrome,1440,900,,,,,10,1232,,,,,,,,,,,,,,,,,F,160,hexagon,1,0,,,,,,,,,,,,,,,,repeat,letter,lettRpt,d,0.6988,Hi,,,,,,5,,,,,,,,high,22,0,22,0,1,,,,,,,,,
294685,2022-11-28_24h15.16.431,vts_reward_expectancy_bt,2022.2.4,MacIntel,60.0024001,Chrome,1440,900,,,,,1,1233,,,,,,,,,,,,,,,,,W,125,star,1,0,,,,,,,,,,,,,,,,repeat,letter,lettRpt,f,0.9276,Lo,,,,,,5,,,,,,,,high,23,0,23,0,1,,,,,,,,,
294685,2022-11-28_24h15.16.431,vts_reward_expectancy_bt,2022.2.4,MacIntel,60.0024001,Chrome,1440,900,,,,,1,1234,,,,,,,,,,,,,,,,,D,160,triangle,1,0,,,,,,,,,,,,,,,,repeat,letter,lettRpt,d,0.749,Lo,,,,,,5,,,,,,,,high,24,0,24,0,1,,,,,,,,,
294685,2022-11-28_24h15.16.431,vts_reward_expectancy_bt,2022.2.4,MacIntel,60.0024001,Chrome,1440,900,,,,,1,1235,,,,,,,,,,,,,,,,,B,167,hexagon,1,0,,,,,,,,,,,,,,,,repeat,letter,lettRpt,d,0.5982,Hi,,,,,,5,,,,,,,,high,25,0,25,0,1,,,,,,,,,
294685,2022-11-28_24h15.16.431,vts_reward_expectancy_bt,2022.2.4,MacIntel,60.0024001,Chrome,1440,900,,,,,1,1236,,,,,,,,,,,,,,,,,U,132,circle,1,0,,,,,,,,,,,,,,,,repeat,letter,lettRpt,f,0.5121,Hi,,,,,,5,,,,,,,,high,26,0,26,0,1,,,,,,,,,
294685,2022-11-28_24h15.16.431,vts_reward_expectancy_bt,2022.2.4,MacIntel,60.0024001,Chrome,1440,900,,,,,1,1237,,,,,,,,,,,,,,,,,S,174,star,1,0,,,,,,,,,,,,,,,,switch,number,numSwt,k,0.5894,Lo,,,,,,5,,,,,,,,high,27,0,27,0,1,,,,,,,,,
294685,2022-11-28_24h15.16.431,vts_reward_expectancy_bt,2022.2.4,MacIntel,60.0024001,Chrome,1440,900,,,,,1,1238,,,,,,,,,,,,,,,,,H,139,star,1,0,,,,,,,,,,,,,,,,switch,letter,lettSwt,d,0.6016,Lo,,,,,,5,,,,,,,,high,28,0,28,0,1,,,,,,,,,
294685,2022-11-28_24h15.16.431,vts_reward_expectancy_bt,2022.2.4,MacIntel,60.0024001,Chrome,1440,900,,,,,1,1239,,,,,,,,,,,,,,,,,Y,146,triangle,1,0,,,,,,,,,,,,,,,,repeat,letter,lettRpt,f,0.6967,Lo,,,,,,5,,,,,,,,high,29,0,29,0,1,,,,,,,,,
294685,2022-11-28_24h15.16.431,vts_reward_expectancy_bt,2022.2.4,MacIntel,60.0024001,Chrome,1440,900,,,,,10,1249,,,,,,,,,,,,,,,,,W,125,hexagon,1,0,,,,,,,,,,,,,,,,repeat,letter,lettRpt,f,0.6226,Hi,,,,,,5,,,,,,,,high,30,0,30,0,1,,,,,,,,,
294685,2022-11-28_24h15.16.431,vts_reward_expectancy_bt,2022.2.4,MacIntel,60.0024001,Chrome,1440,900,,,,,10,1259,,,,,,,,,,,,,,,,,F,181,circle,1,0,,,,,,,,,,,,,,,,repeat,letter,lettRpt,d,0.5897,Hi,,,,,,5,,,,,,,,high,31,0,31,0,1,,,,,,,,,
294685,2022-11-28_24h15.16.431,vts_reward_expectancy_bt,2022.2.4,MacIntel,60.0024001,Chrome,1440,900,,,,,1,1260,,,,,,,,,,,,,,,,,S,125,triangle,1,0,,,,,,,,,,,,,,,,switch,number,numSwt,j,0.9303,Lo,,,,,,6,,,,,,space,5.5673,high,0,0,0,0,1,,,,,,,,,
294685,2022-11-28_24h15.16.431,vts_reward_expectancy_bt,2022.2.4,MacIntel,60.0024001,Chrome,1440,900,,,,,1,1261,,,,,,,,,,,,,,,,,H,167,star,1,0,,,,,,,,,,,,,,,,repeat,number,numRpt,k,0.5794,Lo,,,,,,6,,,,,,,,high,1,0,1,0,1,,,,,,,,,
294685,2022-11-28_24h15.16.431,vts_reward_expectancy_bt,2022.2.4,MacIntel,60.0024001,Chrome,1440,900,,,,,10,1271,,,,,,,,,,,,,,,,,B,146,hexagon,1,0,,,,,,,,,,,,,,,,repeat,number,numRpt,j,0.5677,Hi,,,,,,6,,,,,,,,high,2,0,2,0,1,,,,,,,,,
