participant,date,expName,psychopyVersion,OS,frameRate,browser,xResolution,yResolution,key_resp.keys,key_resp.rt,training_resp.keys,training_resp.rt,points_trial,points_cumul,trainBlock,training.thisRepN,training.thisTrialN,training.thisN,training.thisIndex,training.ran,LTriangleOpac,LCircleOpac,LHexagonOpac,LStarOpac,RTriangleOpac,RCircleOpac,RHexagonOpac,RStarOpac,LShape_ID,RShape_ID,curr_topStim,curr_bottStim,curr_shape,acc,E1,target_resp_prac1.keys,target_resp_prac1.rt,pracBlock,task1_prac_trials.thisRepN,task1_prac_trials.thisTrialN,task1_prac_trials.thisN,task1_prac_trials.thisIndex,task1_prac_trials.ran,target_resp_prac2.keys,target_resp_prac2.rt,task2_praac_trials.thisRepN,task2_praac_trials.thisTrialN,task2_praac_trials.thisN,task2_praac_trials.thisIndex,task2_praac_trials.ran,alt,task,condition,target_resp.keys,target_resp.rt,rewCond,vts_practice_trials.thisRepN,vts_practice_trials.thisTrialN,vts_practice_trials.thisN,vts_practice_trials.thisIndex,vts_practice_trials.ran,blockNum,trials_norew.thisRepN,trials_norew.thisTrialN,trials_norew.thisN,trials_norew.thisIndex,trials_norew.ran,key_resp_2.keys,key_resp_2.rt,rewExpectancy,trials_rew.thisRepN,trials_rew.thisTrialN,trials_rew.thisN,trials_rew.thisIndex,trials_rew.ran,Q1,Q2,Q2_text,Q3,Q4,Q5_text,Q5,xRes,yRes
294607,2022-11-29_17h56.39.873,vts_reward_expectancy_bt,2022.2.4,Win32,59.70505702,Chrome,1280,720,,,,,,,,,,,,,,,,,,,,,,,,,,,,,,,,,,,,,,,,,,,,,,,,,,,,,,,,,,,,,,,,,,,,,,,,,,,,
294607,2022-11-29_17h56.39.873,vts_reward_expectancy_bt,2022.2.4,Win32,59.70505702,Chrome,1280,720,space,34.868,,,,,,,,,,,,,,,,,,,,,,,,,,,,,,,,,,,,,,,,,,,,,,,,,,,,,,,,,,,,,,,,,,,,,,,,,,
294607,2022-11-29_17h56.39.873,vts_reward_expectancy_bt,2022.2.4,Win32,59.70505702,Chrome,1280,720,,,,,,,,,,,,,,,,,,,,,,,,,,,,,,,,,,,,,,,,,,,,,,,,,,,,,,,,,,,,,,,,,,,,,,,,,,,,
294607,2022-11-29_17h56.39.873,vts_reward_expectancy_bt,2022.2.4,Win32,59.70505702,Chrome,1280,720,,,l,2.3854,10,10,0,0,0,0,5,1,0,1,0,0,0,0,0,1,circle,star,,,,,,,,,,,,,,,,,,,,,,,,,,,,,,,,,,,,,,,,,,,,,,,,,,,,,,
294607,2022-11-29_17h56.39.873,vts_reward_expectancy_bt,2022.2.4,Win32,59.70505702,Chrome,1280,720,,,a,1.3569,1,11,0,0,1,1,7,1,0,0,1,0,0,1,0,0,hexagon,circle,,,,,,,,,,,,,,,,,,,,,,,,,,,,,,,,,,,,,,,,,,,,,,,,,,,,,,
294607,2022-11-29_17h56.39.873,vts_reward_expectancy_bt,2022.2.4,Win32,59.70505702,Chrome,1280,720,,,l,1.2274,10,21,0,0,2,2,0,1,1,0,0,0,0,1,0,0,triangle,circle,,,,,,,,,,,,,,,,,,,,,,,,,,,,,,,,,,,,,,,,,,,,,,,,,,,,,,
294607,2022-11-29_17h56.39.873,vts_reward_expectancy_bt,2022.2.4,Win32,59.70505702,Chrome,1280,720,,,a,0.7063,10,31,0,0,3,3,10,1,0,0,0,1,0,1,0,0,star ,circle,,,,,,,,,,,,,,,,,,,,,,,,,,,,,,,,,,,,,,,,,,,,,,,,,,,,,,
294607,2022-11-29_17h56.39.873,vts_reward_expectancy_bt,2022.2.4,Win32,59.70505702,Chrome,1280,720,,,l,1.3083,10,41,0,0,4,4,6,1,0,0,1,0,1,0,0,0,hexagon,triangle,,,,,,,,,,,,,,,,,,,,,,,,,,,,,,,,,,,,,,,,,,,,,,,,,,,,,,
294607,2022-11-29_17h56.39.873,vts_reward_expectancy_bt,2022.2.4,Win32,59.70505702,Chrome,1280,720,,,a,2.4809,10,51,0,0,5,5,2,1,1,0,0,0,0,0,0,1,triangle,star,,,,,,,,,,,,,,,,,,,,,,,,,,,,,,,,,,,,,,,,,,,,,,,,,,,,,,
294607,2022-11-29_17h56.39.873,vts_reward_expectancy_bt,2022.2.4,Win32,59.70505702,Chrome,1280,720,,,l,1.1973,10,61,0,0,6,6,3,1,0,1,0,0,1,0,0,0,circle,triangle,,,,,,,,,,,,,,,,,,,,,,,,,,,,,,,,,,,,,,,,,,,,,,,,,,,,,,
294607,2022-11-29_17h56.39.873,vts_reward_expectancy_bt,2022.2.4,Win32,59.70505702,Chrome,1280,720,,,a,0.8813,10,71,0,0,7,7,1,1,1,0,0,0,0,0,1,0,triangle,hexagon,,,,,,,,,,,,,,,,,,,,,,,,,,,,,,,,,,,,,,,,,,,,,,,,,,,,,,
294607,2022-11-29_17h56.39.873,vts_reward_expectancy_bt,2022.2.4,Win32,59.70505702,Chrome,1280,720,,,a,1.1493,1,72,0,0,8,8,4,1,0,1,0,0,0,0,1,0,circle,hexagon,,,,,,,,,,,,,,,,,,,,,,,,,,,,,,,,,,,,,,,,,,,,,,,,,,,,,,
294607,2022-11-29_17h56.39.873,vts_reward_expectancy_bt,2022.2.4,Win32,59.70505702,Chrome,1280,720,,,l,1.9867,10,82,0,0,9,9,9,1,0,0,0,1,1,0,0,0,star,triangle,,,,,,,,,,,,,,,,,,,,,,,,,,,,,,,,,,,,,,,,,,,,,,,,,,,,,,
294607,2022-11-29_17h56.39.873,vts_reward_expectancy_bt,2022.2.4,Win32,59.70505702,Chrome,1280,720,,,l,1.1425,1,83,0,0,10,10,8,1,0,0,1,0,0,0,0,1,hexagon,star,,,,,,,,,,,,,,,,,,,,,,,,,,,,,,,,,,,,,,,,,,,,,,,,,,,,,,
294607,2022-11-29_17h56.39.873,vts_reward_expectancy_bt,2022.2.4,Win32,59.70505702,Chrome,1280,720,,,l,1.5606,1,84,0,0,11,11,11,1,0,0,0,1,0,0,1,0,star,hexagon,,,,,,,,,,,,,,,,,,,,,,,,,,,,,,,,,,,,,,,,,,,,,,,,,,,,,,
294607,2022-11-29_17h56.39.873,vts_reward_expectancy_bt,2022.2.4,Win32,59.70505702,Chrome,1280,720,,,a,0.929,10,94,0,1,0,12,2,1,1,0,0,0,0,0,0,1,triangle,star,,,,,,,,,,,,,,,,,,,,,,,,,,,,,,,,,,,,,,,,,,,,,,,,,,,,,,
294607,2022-11-29_17h56.39.873,vts_reward_expectancy_bt,2022.2.4,Win32,59.70505702,Chrome,1280,720,,,a,0.9793,1,95,0,1,1,13,7,1,0,0,1,0,0,1,0,0,hexagon,circle,,,,,,,,,,,,,,,,,,,,,,,,,,,,,,,,,,,,,,,,,,,,,,,,,,,,,,
294607,2022-11-29_17h56.39.873,vts_reward_expectancy_bt,2022.2.4,Win32,59.70505702,Chrome,1280,720,,,l,1.159,10,105,0,1,2,14,6,1,0,0,1,0,1,0,0,0,hexagon,triangle,,,,,,,,,,,,,,,,,,,,,,,,,,,,,,,,,,,,,,,,,,,,,,,,,,,,,,
294607,2022-11-29_17h56.39.873,vts_reward_expectancy_bt,2022.2.4,Win32,59.70505702,Chrome,1280,720,,,l,1.1954,10,115,0,1,3,15,11,1,0,0,0,1,0,0,1,0,star,hexagon,,,,,,,,,,,,,,,,,,,,,,,,,,,,,,,,,,,,,,,,,,,,,,,,,,,,,,
294607,2022-11-29_17h56.39.873,vts_reward_expectancy_bt,2022.2.4,Win32,59.70505702,Chrome,1280,720,,,l,1.3348,10,125,0,1,4,16,4,1,0,1,0,0,0,0,1,0,circle,hexagon,,,,,,,,,,,,,,,,,,,,,,,,,,,,,,,,,,,,,,,,,,,,,,,,,,,,,,
294607,2022-11-29_17h56.39.873,vts_reward_expectancy_bt,2022.2.4,Win32,59.70505702,Chrome,1280,720,,,l,0.7853,10,135,0,1,5,17,9,1,0,0,0,1,1,0,0,0,star,triangle,,,,,,,,,,,,,,,,,,,,,,,,,,,,,,,,,,,,,,,,,,,,,,,,,,,,,,
294607,2022-11-29_17h56.39.873,vts_reward_expectancy_bt,2022.2.4,Win32,59.70505702,Chrome,1280,720,,,a,0.8907,1,136,0,1,6,18,8,1,0,0,1,0,0,0,0,1,hexagon,star,,,,,,,,,,,,,,,,,,,,,,,,,,,,,,,,,,,,,,,,,,,,,,,,,,,,,,
294607,2022-11-29_17h56.39.873,vts_reward_expectancy_bt,2022.2.4,Win32,59.70505702,Chrome,1280,720,,,l,1.4616,10,146,0,1,7,19,3,1,0,1,0,0,1,0,0,0,circle,triangle,,,,,,,,,,,,,,,,,,,,,,,,,,,,,,,,,,,,,,,,,,,,,,,,,,,,,,
294607,2022-11-29_17h56.39.873,vts_reward_expectancy_bt,2022.2.4,Win32,59.70505702,Chrome,1280,720,,,a,0.7186,10,156,0,1,8,20,0,1,1,0,0,0,0,1,0,0,triangle,circle,,,,,,,,,,,,,,,,,,,,,,,,,,,,,,,,,,,,,,,,,,,,,,,,,,,,,,
294607,2022-11-29_17h56.39.873,vts_reward_expectancy_bt,2022.2.4,Win32,59.70505702,Chrome,1280,720,,,a,1.8496,10,166,0,1,9,21,10,1,0,0,0,1,0,1,0,0,star ,circle,,,,,,,,,,,,,,,,,,,,,,,,,,,,,,,,,,,,,,,,,,,,,,,,,,,,,,
294607,2022-11-29_17h56.39.873,vts_reward_expectancy_bt,2022.2.4,Win32,59.70505702,Chrome,1280,720,,,l,1.0353,10,176,0,1,10,22,5,1,0,1,0,0,0,0,0,1,circle,star,,,,,,,,,,,,,,,,,,,,,,,,,,,,,,,,,,,,,,,,,,,,,,,,,,,,,,
294607,2022-11-29_17h56.39.873,vts_reward_expectancy_bt,2022.2.4,Win32,59.70505702,Chrome,1280,720,,,a,0.9144,10,186,0,1,11,23,1,1,1,0,0,0,0,0,1,0,triangle,hexagon,,,,,,,,,,,,,,,,,,,,,,,,,,,,,,,,,,,,,,,,,,,,,,,,,,,,,,
294607,2022-11-29_17h56.39.873,vts_reward_expectancy_bt,2022.2.4,Win32,59.70505702,Chrome,1280,720,,,a,0.6426,1,187,0,2,0,24,0,1,1,0,0,0,0,1,0,0,triangle,circle,,,,,,,,,,,,,,,,,,,,,,,,,,,,,,,,,,,,,,,,,,,,,,,,,,,,,,
294607,2022-11-29_17h56.39.873,vts_reward_expectancy_bt,2022.2.4,Win32,59.70505702,Chrome,1280,720,,,l,0.8694,10,197,0,2,1,25,3,1,0,1,0,0,1,0,0,0,circle,triangle,,,,,,,,,,,,,,,,,,,,,,,,,,,,,,,,,,,,,,,,,,,,,,,,,,,,,,
294607,2022-11-29_17h56.39.873,vts_reward_expectancy_bt,2022.2.4,Win32,59.70505702,Chrome,1280,720,,,l,1.0316,10,207,0,2,2,26,2,1,1,0,0,0,0,0,0,1,triangle,star,,,,,,,,,,,,,,,,,,,,,,,,,,,,,,,,,,,,,,,,,,,,,,,,,,,,,,
294607,2022-11-29_17h56.39.873,vts_reward_expectancy_bt,2022.2.4,Win32,59.70505702,Chrome,1280,720,,,l,1.0246,10,217,0,2,3,27,5,1,0,1,0,0,0,0,0,1,circle,star,,,,,,,,,,,,,,,,,,,,,,,,,,,,,,,,,,,,,,,,,,,,,,,,,,,,,,
294607,2022-11-29_17h56.39.873,vts_reward_expectancy_bt,2022.2.4,Win32,59.70505702,Chrome,1280,720,,,a,1.409,1,218,0,2,4,28,4,1,0,1,0,0,0,0,1,0,circle,hexagon,,,,,,,,,,,,,,,,,,,,,,,,,,,,,,,,,,,,,,,,,,,,,,,,,,,,,,
294607,2022-11-29_17h56.39.873,vts_reward_expectancy_bt,2022.2.4,Win32,59.70505702,Chrome,1280,720,,,l,1.5829,10,228,0,2,5,29,8,1,0,0,1,0,0,0,0,1,hexagon,star,,,,,,,,,,,,,,,,,,,,,,,,,,,,,,,,,,,,,,,,,,,,,,,,,,,,,,
294607,2022-11-29_17h56.39.873,vts_reward_expectancy_bt,2022.2.4,Win32,59.70505702,Chrome,1280,720,,,l,1.0814,1,229,0,2,6,30,9,1,0,0,0,1,1,0,0,0,star,triangle,,,,,,,,,,,,,,,,,,,,,,,,,,,,,,,,,,,,,,,,,,,,,,,,,,,,,,
294607,2022-11-29_17h56.39.873,vts_reward_expectancy_bt,2022.2.4,Win32,59.70505702,Chrome,1280,720,,,a,0.9575,1,230,0,2,7,31,7,1,0,0,1,0,0,1,0,0,hexagon,circle,,,,,,,,,,,,,,,,,,,,,,,,,,,,,,,,,,,,,,,,,,,,,,,,,,,,,,
294607,2022-11-29_17h56.39.873,vts_reward_expectancy_bt,2022.2.4,Win32,59.70505702,Chrome,1280,720,,,l,0.9109,1,231,0,2,8,32,6,1,0,0,1,0,1,0,0,0,hexagon,triangle,,,,,,,,,,,,,,,,,,,,,,,,,,,,,,,,,,,,,,,,,,,,,,,,,,,,,,
294607,2022-11-29_17h56.39.873,vts_reward_expectancy_bt,2022.2.4,Win32,59.70505702,Chrome,1280,720,,,a,1.1471,1,232,0,2,9,33,1,1,1,0,0,0,0,0,1,0,triangle,hexagon,,,,,,,,,,,,,,,,,,,,,,,,,,,,,,,,,,,,,,,,,,,,,,,,,,,,,,
294607,2022-11-29_17h56.39.873,vts_reward_expectancy_bt,2022.2.4,Win32,59.70505702,Chrome,1280,720,,,l,0.9538,1,233,0,2,10,34,11,1,0,0,0,1,0,0,1,0,star,hexagon,,,,,,,,,,,,,,,,,,,,,,,,,,,,,,,,,,,,,,,,,,,,,,,,,,,,,,
294607,2022-11-29_17h56.39.873,vts_reward_expectancy_bt,2022.2.4,Win32,59.70505702,Chrome,1280,720,,,a,0.9787,1,234,0,2,11,35,10,1,0,0,0,1,0,1,0,0,star ,circle,,,,,,,,,,,,,,,,,,,,,,,,,,,,,,,,,,,,,,,,,,,,,,,,,,,,,,
294607,2022-11-29_17h56.39.873,vts_reward_expectancy_bt,2022.2.4,Win32,59.70505702,Chrome,1280,720,,,a,1.2235,1,235,1,0,0,0,8,1,0,0,1,0,0,0,0,1,hexagon,star,,,,,,,,,,,,,,,,,,,,,,,,,,,,,,,,,,,,,,,,,,,,,,,,,,,,,,
294607,2022-11-29_17h56.39.873,vts_reward_expectancy_bt,2022.2.4,Win32,59.70505702,Chrome,1280,720,,,a,0.9493,10,245,1,0,1,1,0,1,1,0,0,0,0,1,0,0,triangle,circle,,,,,,,,,,,,,,,,,,,,,,,,,,,,,,,,,,,,,,,,,,,,,,,,,,,,,,
294607,2022-11-29_17h56.39.873,vts_reward_expectancy_bt,2022.2.4,Win32,59.70505702,Chrome,1280,720,,,a,0.8534,1,246,1,0,2,2,11,1,0,0,0,1,0,0,1,0,star,hexagon,,,,,,,,,,,,,,,,,,,,,,,,,,,,,,,,,,,,,,,,,,,,,,,,,,,,,,
294607,2022-11-29_17h56.39.873,vts_reward_expectancy_bt,2022.2.4,Win32,59.70505702,Chrome,1280,720,,,a,0.834,10,256,1,0,3,3,1,1,1,0,0,0,0,0,1,0,triangle,hexagon,,,,,,,,,,,,,,,,,,,,,,,,,,,,,,,,,,,,,,,,,,,,,,,,,,,,,,
294607,2022-11-29_17h56.39.873,vts_reward_expectancy_bt,2022.2.4,Win32,59.70505702,Chrome,1280,720,,,l,0.5985,10,266,1,0,4,4,3,1,0,1,0,0,1,0,0,0,circle,triangle,,,,,,,,,,,,,,,,,,,,,,,,,,,,,,,,,,,,,,,,,,,,,,,,,,,,,,
294607,2022-11-29_17h56.39.873,vts_reward_expectancy_bt,2022.2.4,Win32,59.70505702,Chrome,1280,720,,,l,1.5447,10,276,1,0,5,5,2,1,1,0,0,0,0,0,0,1,triangle,star,,,,,,,,,,,,,,,,,,,,,,,,,,,,,,,,,,,,,,,,,,,,,,,,,,,,,,
294607,2022-11-29_17h56.39.873,vts_reward_expectancy_bt,2022.2.4,Win32,59.70505702,Chrome,1280,720,,,l,1.1605,10,286,1,0,6,6,5,1,0,1,0,0,0,0,0,1,circle,star,,,,,,,,,,,,,,,,,,,,,,,,,,,,,,,,,,,,,,,,,,,,,,,,,,,,,,
294607,2022-11-29_17h56.39.873,vts_reward_expectancy_bt,2022.2.4,Win32,59.70505702,Chrome,1280,720,,,l,1.1145,1,287,1,0,7,7,9,1,0,0,0,1,1,0,0,0,star,triangle,,,,,,,,,,,,,,,,,,,,,,,,,,,,,,,,,,,,,,,,,,,,,,,,,,,,,,
294607,2022-11-29_17h56.39.873,vts_reward_expectancy_bt,2022.2.4,Win32,59.70505702,Chrome,1280,720,,,l,1.0291,1,288,1,0,8,8,6,1,0,0,1,0,1,0,0,0,hexagon,triangle,,,,,,,,,,,,,,,,,,,,,,,,,,,,,,,,,,,,,,,,,,,,,,,,,,,,,,
294607,2022-11-29_17h56.39.873,vts_reward_expectancy_bt,2022.2.4,Win32,59.70505702,Chrome,1280,720,,,a,0.9249,1,289,1,0,9,9,7,1,0,0,1,0,0,1,0,0,hexagon,circle,,,,,,,,,,,,,,,,,,,,,,,,,,,,,,,,,,,,,,,,,,,,,,,,,,,,,,
294607,2022-11-29_17h56.39.873,vts_reward_expectancy_bt,2022.2.4,Win32,59.70505702,Chrome,1280,720,,,a,0.948,1,290,1,0,10,10,10,1,0,0,0,1,0,1,0,0,star ,circle,,,,,,,,,,,,,,,,,,,,,,,,,,,,,,,,,,,,,,,,,,,,,,,,,,,,,,
294607,2022-11-29_17h56.39.873,vts_reward_expectancy_bt,2022.2.4,Win32,59.70505702,Chrome,1280,720,,,l,0.7911,1,291,1,0,11,11,4,1,0,1,0,0,0,0,1,0,circle,hexagon,,,,,,,,,,,,,,,,,,,,,,,,,,,,,,,,,,,,,,,,,,,,,,,,,,,,,,
294607,2022-11-29_17h56.39.873,vts_reward_expectancy_bt,2022.2.4,Win32,59.70505702,Chrome,1280,720,,,a,0.9846,10,301,1,1,0,12,2,1,1,0,0,0,0,0,0,1,triangle,star,,,,,,,,,,,,,,,,,,,,,,,,,,,,,,,,,,,,,,,,,,,,,,,,,,,,,,
294607,2022-11-29_17h56.39.873,vts_reward_expectancy_bt,2022.2.4,Win32,59.70505702,Chrome,1280,720,,,a,1.9657,1,302,1,1,1,13,8,1,0,0,1,0,0,0,0,1,hexagon,star,,,,,,,,,,,,,,,,,,,,,,,,,,,,,,,,,,,,,,,,,,,,,,,,,,,,,,
294607,2022-11-29_17h56.39.873,vts_reward_expectancy_bt,2022.2.4,Win32,59.70505702,Chrome,1280,720,,,l,1.0003,10,312,1,1,2,14,3,1,0,1,0,0,1,0,0,0,circle,triangle,,,,,,,,,,,,,,,,,,,,,,,,,,,,,,,,,,,,,,,,,,,,,,,,,,,,,,
294607,2022-11-29_17h56.39.873,vts_reward_expectancy_bt,2022.2.4,Win32,59.70505702,Chrome,1280,720,,,l,1.5559,10,322,1,1,3,15,6,1,0,0,1,0,1,0,0,0,hexagon,triangle,,,,,,,,,,,,,,,,,,,,,,,,,,,,,,,,,,,,,,,,,,,,,,,,,,,,,,
294607,2022-11-29_17h56.39.873,vts_reward_expectancy_bt,2022.2.4,Win32,59.70505702,Chrome,1280,720,,,a,0.93,10,332,1,1,4,16,10,1,0,0,0,1,0,1,0,0,star ,circle,,,,,,,,,,,,,,,,,,,,,,,,,,,,,,,,,,,,,,,,,,,,,,,,,,,,,,
294607,2022-11-29_17h56.39.873,vts_reward_expectancy_bt,2022.2.4,Win32,59.70505702,Chrome,1280,720,,,a,0.7095,1,333,1,1,5,17,7,1,0,0,1,0,0,1,0,0,hexagon,circle,,,,,,,,,,,,,,,,,,,,,,,,,,,,,,,,,,,,,,,,,,,,,,,,,,,,,,
294607,2022-11-29_17h56.39.873,vts_reward_expectancy_bt,2022.2.4,Win32,59.70505702,Chrome,1280,720,,,a,1.9824,10,343,1,1,6,18,11,1,0,0,0,1,0,0,1,0,star,hexagon,,,,,,,,,,,,,,,,,,,,,,,,,,,,,,,,,,,,,,,,,,,,,,,,,,,,,,
294607,2022-11-29_17h56.39.873,vts_reward_expectancy_bt,2022.2.4,Win32,59.70505702,Chrome,1280,720,,,a,0.7536,10,353,1,1,7,19,1,1,1,0,0,0,0,0,1,0,triangle,hexagon,,,,,,,,,,,,,,,,,,,,,,,,,,,,,,,,,,,,,,,,,,,,,,,,,,,,,,
294607,2022-11-29_17h56.39.873,vts_reward_expectancy_bt,2022.2.4,Win32,59.70505702,Chrome,1280,720,,,a,0.8032,10,363,1,1,8,20,0,1,1,0,0,0,0,1,0,0,triangle,circle,,,,,,,,,,,,,,,,,,,,,,,,,,,,,,,,,,,,,,,,,,,,,,,,,,,,,,
294607,2022-11-29_17h56.39.873,vts_reward_expectancy_bt,2022.2.4,Win32,59.70505702,Chrome,1280,720,,,l,1.1321,10,373,1,1,9,21,5,1,0,1,0,0,0,0,0,1,circle,star,,,,,,,,,,,,,,,,,,,,,,,,,,,,,,,,,,,,,,,,,,,,,,,,,,,,,,
294607,2022-11-29_17h56.39.873,vts_reward_expectancy_bt,2022.2.4,Win32,59.70505702,Chrome,1280,720,,,l,1.2124,1,374,1,1,10,22,9,1,0,0,0,1,1,0,0,0,star,triangle,,,,,,,,,,,,,,,,,,,,,,,,,,,,,,,,,,,,,,,,,,,,,,,,,,,,,,
294607,2022-11-29_17h56.39.873,vts_reward_expectancy_bt,2022.2.4,Win32,59.70505702,Chrome,1280,720,,,a,1.4245,1,375,1,1,11,23,4,1,0,1,0,0,0,0,1,0,circle,hexagon,,,,,,,,,,,,,,,,,,,,,,,,,,,,,,,,,,,,,,,,,,,,,,,,,,,,,,
294607,2022-11-29_17h56.39.873,vts_reward_expectancy_bt,2022.2.4,Win32,59.70505702,Chrome,1280,720,,,l,2.2451,10,385,1,2,0,24,4,1,0,1,0,0,0,0,1,0,circle,hexagon,,,,,,,,,,,,,,,,,,,,,,,,,,,,,,,,,,,,,,,,,,,,,,,,,,,,,,
294607,2022-11-29_17h56.39.873,vts_reward_expectancy_bt,2022.2.4,Win32,59.70505702,Chrome,1280,720,,,a,1.1617,1,386,1,2,1,25,7,1,0,0,1,0,0,1,0,0,hexagon,circle,,,,,,,,,,,,,,,,,,,,,,,,,,,,,,,,,,,,,,,,,,,,,,,,,,,,,,
294607,2022-11-29_17h56.39.873,vts_reward_expectancy_bt,2022.2.4,Win32,59.70505702,Chrome,1280,720,,,l,0.9463,10,396,1,2,2,26,5,1,0,1,0,0,0,0,0,1,circle,star,,,,,,,,,,,,,,,,,,,,,,,,,,,,,,,,,,,,,,,,,,,,,,,,,,,,,,
294607,2022-11-29_17h56.39.873,vts_reward_expectancy_bt,2022.2.4,Win32,59.70505702,Chrome,1280,720,,,a,0.8062,10,406,1,2,3,27,10,1,0,0,0,1,0,1,0,0,star ,circle,,,,,,,,,,,,,,,,,,,,,,,,,,,,,,,,,,,,,,,,,,,,,,,,,,,,,,
294607,2022-11-29_17h56.39.873,vts_reward_expectancy_bt,2022.2.4,Win32,59.70505702,Chrome,1280,720,,,a,0.8583,10,416,1,2,4,28,1,1,1,0,0,0,0,0,1,0,triangle,hexagon,,,,,,,,,,,,,,,,,,,,,,,,,,,,,,,,,,,,,,,,,,,,,,,,,,,,,,
294607,2022-11-29_17h56.39.873,vts_reward_expectancy_bt,2022.2.4,Win32,59.70505702,Chrome,1280,720,,,l,0.8988,10,426,1,2,5,29,9,1,0,0,0,1,1,0,0,0,star,triangle,,,,,,,,,,,,,,,,,,,,,,,,,,,,,,,,,,,,,,,,,,,,,,,,,,,,,,
294607,2022-11-29_17h56.39.873,vts_reward_expectancy_bt,2022.2.4,Win32,59.70505702,Chrome,1280,720,,,l,0.766,10,436,1,2,6,30,6,1,0,0,1,0,1,0,0,0,hexagon,triangle,,,,,,,,,,,,,,,,,,,,,,,,,,,,,,,,,,,,,,,,,,,,,,,,,,,,,,
294607,2022-11-29_17h56.39.873,vts_reward_expectancy_bt,2022.2.4,Win32,59.70505702,Chrome,1280,720,,,a,0.6582,10,446,1,2,7,31,0,1,1,0,0,0,0,1,0,0,triangle,circle,,,,,,,,,,,,,,,,,,,,,,,,,,,,,,,,,,,,,,,,,,,,,,,,,,,,,,
294607,2022-11-29_17h56.39.873,vts_reward_expectancy_bt,2022.2.4,Win32,59.70505702,Chrome,1280,720,,,l,0.6821,10,456,1,2,8,32,3,1,0,1,0,0,1,0,0,0,circle,triangle,,,,,,,,,,,,,,,,,,,,,,,,,,,,,,,,,,,,,,,,,,,,,,,,,,,,,,
294607,2022-11-29_17h56.39.873,vts_reward_expectancy_bt,2022.2.4,Win32,59.70505702,Chrome,1280,720,,,a,0.7901,10,466,1,2,9,33,2,1,1,0,0,0,0,0,0,1,triangle,star,,,,,,,,,,,,,,,,,,,,,,,,,,,,,,,,,,,,,,,,,,,,,,,,,,,,,,
294607,2022-11-29_17h56.39.873,vts_reward_expectancy_bt,2022.2.4,Win32,59.70505702,Chrome,1280,720,,,l,0.9018,10,476,1,2,10,34,8,1,0,0,1,0,0,0,0,1,hexagon,star,,,,,,,,,,,,,,,,,,,,,,,,,,,,,,,,,,,,,,,,,,,,,,,,,,,,,,
294607,2022-11-29_17h56.39.873,vts_reward_expectancy_bt,2022.2.4,Win32,59.70505702,Chrome,1280,720,,,l,1.7606,1,477,1,2,11,35,11,1,0,0,0,1,0,0,1,0,star,hexagon,,,,,,,,,,,,,,,,,,,,,,,,,,,,,,,,,,,,,,,,,,,,,,,,,,,,,,
294607,2022-11-29_17h56.39.873,vts_reward_expectancy_bt,2022.2.4,Win32,59.70505702,Chrome,1280,720,,,a,1.8816,1,478,2,0,0,0,7,1,0,0,1,0,0,1,0,0,hexagon,circle,,,,,,,,,,,,,,,,,,,,,,,,,,,,,,,,,,,,,,,,,,,,,,,,,,,,,,
294607,2022-11-29_17h56.39.873,vts_reward_expectancy_bt,2022.2.4,Win32,59.70505702,Chrome,1280,720,,,a,0.9893,10,488,2,0,1,1,11,1,0,0,0,1,0,0,1,0,star,hexagon,,,,,,,,,,,,,,,,,,,,,,,,,,,,,,,,,,,,,,,,,,,,,,,,,,,,,,
294607,2022-11-29_17h56.39.873,vts_reward_expectancy_bt,2022.2.4,Win32,59.70505702,Chrome,1280,720,,,a,0.9753,10,498,2,0,2,2,1,1,1,0,0,0,0,0,1,0,triangle,hexagon,,,,,,,,,,,,,,,,,,,,,,,,,,,,,,,,,,,,,,,,,,,,,,,,,,,,,,
294607,2022-11-29_17h56.39.873,vts_reward_expectancy_bt,2022.2.4,Win32,59.70505702,Chrome,1280,720,,,l,0.7988,10,508,2,0,3,3,9,1,0,0,0,1,1,0,0,0,star,triangle,,,,,,,,,,,,,,,,,,,,,,,,,,,,,,,,,,,,,,,,,,,,,,,,,,,,,,
294607,2022-11-29_17h56.39.873,vts_reward_expectancy_bt,2022.2.4,Win32,59.70505702,Chrome,1280,720,,,l,0.5386,10,518,2,0,4,4,6,1,0,0,1,0,1,0,0,0,hexagon,triangle,,,,,,,,,,,,,,,,,,,,,,,,,,,,,,,,,,,,,,,,,,,,,,,,,,,,,,
294607,2022-11-29_17h56.39.873,vts_reward_expectancy_bt,2022.2.4,Win32,59.70505702,Chrome,1280,720,,,a,0.915,10,528,2,0,5,5,10,1,0,0,0,1,0,1,0,0,star ,circle,,,,,,,,,,,,,,,,,,,,,,,,,,,,,,,,,,,,,,,,,,,,,,,,,,,,,,
294607,2022-11-29_17h56.39.873,vts_reward_expectancy_bt,2022.2.4,Win32,59.70505702,Chrome,1280,720,,,l,0.5852,10,538,2,0,6,6,8,1,0,0,1,0,0,0,0,1,hexagon,star,,,,,,,,,,,,,,,,,,,,,,,,,,,,,,,,,,,,,,,,,,,,,,,,,,,,,,
294607,2022-11-29_17h56.39.873,vts_reward_expectancy_bt,2022.2.4,Win32,59.70505702,Chrome,1280,720,,,l,0.8742,10,548,2,0,7,7,5,1,0,1,0,0,0,0,0,1,circle,star,,,,,,,,,,,,,,,,,,,,,,,,,,,,,,,,,,,,,,,,,,,,,,,,,,,,,,
294607,2022-11-29_17h56.39.873,vts_reward_expectancy_bt,2022.2.4,Win32,59.70505702,Chrome,1280,720,,,a,0.6653,10,558,2,0,8,8,2,1,1,0,0,0,0,0,0,1,triangle,star,,,,,,,,,,,,,,,,,,,,,,,,,,,,,,,,,,,,,,,,,,,,,,,,,,,,,,
294607,2022-11-29_17h56.39.873,vts_reward_expectancy_bt,2022.2.4,Win32,59.70505702,Chrome,1280,720,,,l,0.6625,10,568,2,0,9,9,3,1,0,1,0,0,1,0,0,0,circle,triangle,,,,,,,,,,,,,,,,,,,,,,,,,,,,,,,,,,,,,,,,,,,,,,,,,,,,,,
294607,2022-11-29_17h56.39.873,vts_reward_expectancy_bt,2022.2.4,Win32,59.70505702,Chrome,1280,720,,,l,1.0828,1,569,2,0,10,10,4,1,0,1,0,0,0,0,1,0,circle,hexagon,,,,,,,,,,,,,,,,,,,,,,,,,,,,,,,,,,,,,,,,,,,,,,,,,,,,,,
294607,2022-11-29_17h56.39.873,vts_reward_expectancy_bt,2022.2.4,Win32,59.70505702,Chrome,1280,720,,,a,0.671,10,579,2,0,11,11,0,1,1,0,0,0,0,1,0,0,triangle,circle,,,,,,,,,,,,,,,,,,,,,,,,,,,,,,,,,,,,,,,,,,,,,,,,,,,,,,
294607,2022-11-29_17h56.39.873,vts_reward_expectancy_bt,2022.2.4,Win32,59.70505702,Chrome,1280,720,,,l,1.5362,1,580,2,1,0,12,7,1,0,0,1,0,0,1,0,0,hexagon,circle,,,,,,,,,,,,,,,,,,,,,,,,,,,,,,,,,,,,,,,,,,,,,,,,,,,,,,
294607,2022-11-29_17h56.39.873,vts_reward_expectancy_bt,2022.2.4,Win32,59.70505702,Chrome,1280,720,,,a,1.3441,1,581,2,1,1,13,4,1,0,1,0,0,0,0,1,0,circle,hexagon,,,,,,,,,,,,,,,,,,,,,,,,,,,,,,,,,,,,,,,,,,,,,,,,,,,,,,
294607,2022-11-29_17h56.39.873,vts_reward_expectancy_bt,2022.2.4,Win32,59.70505702,Chrome,1280,720,,,l,0.9496,10,591,2,1,2,14,8,1,0,0,1,0,0,0,0,1,hexagon,star,,,,,,,,,,,,,,,,,,,,,,,,,,,,,,,,,,,,,,,,,,,,,,,,,,,,,,
294607,2022-11-29_17h56.39.873,vts_reward_expectancy_bt,2022.2.4,Win32,59.70505702,Chrome,1280,720,,,l,0.9692,10,601,2,1,3,15,5,1,0,1,0,0,0,0,0,1,circle,star,,,,,,,,,,,,,,,,,,,,,,,,,,,,,,,,,,,,,,,,,,,,,,,,,,,,,,
294607,2022-11-29_17h56.39.873,vts_reward_expectancy_bt,2022.2.4,Win32,59.70505702,Chrome,1280,720,,,l,0.8868,10,611,2,1,4,16,3,1,0,1,0,0,1,0,0,0,circle,triangle,,,,,,,,,,,,,,,,,,,,,,,,,,,,,,,,,,,,,,,,,,,,,,,,,,,,,,
294607,2022-11-29_17h56.39.873,vts_reward_expectancy_bt,2022.2.4,Win32,59.70505702,Chrome,1280,720,,,l,0.7155,10,621,2,1,5,17,9,1,0,0,0,1,1,0,0,0,star,triangle,,,,,,,,,,,,,,,,,,,,,,,,,,,,,,,,,,,,,,,,,,,,,,,,,,,,,,
294607,2022-11-29_17h56.39.873,vts_reward_expectancy_bt,2022.2.4,Win32,59.70505702,Chrome,1280,720,,,a,0.4607,1,622,2,1,6,18,2,1,1,0,0,0,0,0,0,1,triangle,star,,,,,,,,,,,,,,,,,,,,,,,,,,,,,,,,,,,,,,,,,,,,,,,,,,,,,,
294607,2022-11-29_17h56.39.873,vts_reward_expectancy_bt,2022.2.4,Win32,59.70505702,Chrome,1280,720,,,l,1.0854,1,623,2,1,7,19,11,1,0,0,0,1,0,0,1,0,star,hexagon,,,,,,,,,,,,,,,,,,,,,,,,,,,,,,,,,,,,,,,,,,,,,,,,,,,,,,
294607,2022-11-29_17h56.39.873,vts_reward_expectancy_bt,2022.2.4,Win32,59.70505702,Chrome,1280,720,,,a,0.9311,10,633,2,1,8,20,0,1,1,0,0,0,0,1,0,0,triangle,circle,,,,,,,,,,,,,,,,,,,,,,,,,,,,,,,,,,,,,,,,,,,,,,,,,,,,,,
294607,2022-11-29_17h56.39.873,vts_reward_expectancy_bt,2022.2.4,Win32,59.70505702,Chrome,1280,720,,,l,0.9179,1,634,2,1,9,21,6,1,0,0,1,0,1,0,0,0,hexagon,triangle,,,,,,,,,,,,,,,,,,,,,,,,,,,,,,,,,,,,,,,,,,,,,,,,,,,,,,
294607,2022-11-29_17h56.39.873,vts_reward_expectancy_bt,2022.2.4,Win32,59.70505702,Chrome,1280,720,,,a,1.3913,10,644,2,1,10,22,1,1,1,0,0,0,0,0,1,0,triangle,hexagon,,,,,,,,,,,,,,,,,,,,,,,,,,,,,,,,,,,,,,,,,,,,,,,,,,,,,,
294607,2022-11-29_17h56.39.873,vts_reward_expectancy_bt,2022.2.4,Win32,59.70505702,Chrome,1280,720,,,l,1.824,1,645,2,1,11,23,10,1,0,0,0,1,0,1,0,0,star ,circle,,,,,,,,,,,,,,,,,,,,,,,,,,,,,,,,,,,,,,,,,,,,,,,,,,,,,,
294607,2022-11-29_17h56.39.873,vts_reward_expectancy_bt,2022.2.4,Win32,59.70505702,Chrome,1280,720,,,l,0.8494,1,646,2,2,0,24,6,1,0,0,1,0,1,0,0,0,hexagon,triangle,,,,,,,,,,,,,,,,,,,,,,,,,,,,,,,,,,,,,,,,,,,,,,,,,,,,,,
294607,2022-11-29_17h56.39.873,vts_reward_expectancy_bt,2022.2.4,Win32,59.70505702,Chrome,1280,720,,,a,1.1339,1,647,2,2,1,25,10,1,0,0,0,1,0,1,0,0,star ,circle,,,,,,,,,,,,,,,,,,,,,,,,,,,,,,,,,,,,,,,,,,,,,,,,,,,,,,
294607,2022-11-29_17h56.39.873,vts_reward_expectancy_bt,2022.2.4,Win32,59.70505702,Chrome,1280,720,,,a,1.483,10,657,2,2,2,26,2,1,1,0,0,0,0,0,0,1,triangle,star,,,,,,,,,,,,,,,,,,,,,,,,,,,,,,,,,,,,,,,,,,,,,,,,,,,,,,
294607,2022-11-29_17h56.39.873,vts_reward_expectancy_bt,2022.2.4,Win32,59.70505702,Chrome,1280,720,,,l,0.5669,10,667,2,2,3,27,9,1,0,0,0,1,1,0,0,0,star,triangle,,,,,,,,,,,,,,,,,,,,,,,,,,,,,,,,,,,,,,,,,,,,,,,,,,,,,,
294607,2022-11-29_17h56.39.873,vts_reward_expectancy_bt,2022.2.4,Win32,59.70505702,Chrome,1280,720,,,l,1.3506,10,677,2,2,4,28,8,1,0,0,1,0,0,0,0,1,hexagon,star,,,,,,,,,,,,,,,,,,,,,,,,,,,,,,,,,,,,,,,,,,,,,,,,,,,,,,
294607,2022-11-29_17h56.39.873,vts_reward_expectancy_bt,2022.2.4,Win32,59.70505702,Chrome,1280,720,,,l,0.8975,10,687,2,2,5,29,3,1,0,1,0,0,1,0,0,0,circle,triangle,,,,,,,,,,,,,,,,,,,,,,,,,,,,,,,,,,,,,,,,,,,,,,,,,,,,,,
294607,2022-11-29_17h56.39.873,vts_reward_expectancy_bt,2022.2.4,Win32,59.70505702,Chrome,1280,720,,,l,0.8614,10,697,2,2,6,30,5,1,0,1,0,0,0,0,0,1,circle,star,,,,,,,,,,,,,,,,,,,,,,,,,,,,,,,,,,,,,,,,,,,,,,,,,,,,,,
294607,2022-11-29_17h56.39.873,vts_reward_expectancy_bt,2022.2.4,Win32,59.70505702,Chrome,1280,720,,,a,0.9224,10,707,2,2,7,31,0,1,1,0,0,0,0,1,0,0,triangle,circle,,,,,,,,,,,,,,,,,,,,,,,,,,,,,,,,,,,,,,,,,,,,,,,,,,,,,,
294607,2022-11-29_17h56.39.873,vts_reward_expectancy_bt,2022.2.4,Win32,59.70505702,Chrome,1280,720,,,a,0.6755,1,708,2,2,8,32,1,1,1,0,0,0,0,0,1,0,triangle,hexagon,,,,,,,,,,,,,,,,,,,,,,,,,,,,,,,,,,,,,,,,,,,,,,,,,,,,,,
294607,2022-11-29_17h56.39.873,vts_reward_expectancy_bt,2022.2.4,Win32,59.70505702,Chrome,1280,720,,,l,1.7344,10,718,2,2,9,33,11,1,0,0,0,1,0,0,1,0,star,hexagon,,,,,,,,,,,,,,,,,,,,,,,,,,,,,,,,,,,,,,,,,,,,,,,,,,,,,,
294607,2022-11-29_17h56.39.873,vts_reward_expectancy_bt,2022.2.4,Win32,59.70505702,Chrome,1280,720,,,l,1.1932,10,728,2,2,10,34,7,1,0,0,1,0,0,1,0,0,hexagon,circle,,,,,,,,,,,,,,,,,,,,,,,,,,,,,,,,,,,,,,,,,,,,,,,,,,,,,,
294607,2022-11-29_17h56.39.873,vts_reward_expectancy_bt,2022.2.4,Win32,59.70505702,Chrome,1280,720,,,a,0.9071,1,729,2,2,11,35,4,1,0,1,0,0,0,0,1,0,circle,hexagon,,,,,,,,,,,,,,,,,,,,,,,,,,,,,,,,,,,,,,,,,,,,,,,,,,,,,,
294607,2022-11-29_17h56.39.873,vts_reward_expectancy_bt,2022.2.4,Win32,59.70505702,Chrome,1280,720,,,,,,,,,,,,,,,,,,,,,,,160,B,circle,1,0,f,0.9474,0,0,0,0,0,1,,,,,,,,,,,,,,,,,,,,,,,,,,,,,,,,,,,,,,,,,
294607,2022-11-29_17h56.39.873,vts_reward_expectancy_bt,2022.2.4,Win32,59.70505702,Chrome,1280,720,,,,,,,,,,,,,,,,,,,,,,,125,D,triangle,1,0,d,0.7148,0,1,0,1,0,1,,,,,,,,,,,,,,,,,,,,,,,,,,,,,,,,,,,,,,,,,
294607,2022-11-29_17h56.39.873,vts_reward_expectancy_bt,2022.2.4,Win32,59.70505702,Chrome,1280,720,,,,,,,,,,,,,,,,,,,,,,,174,H,hexagon,1,0,f,0.6329,0,2,0,2,0,1,,,,,,,,,,,,,,,,,,,,,,,,,,,,,,,,,,,,,,,,,
294607,2022-11-29_17h56.39.873,vts_reward_expectancy_bt,2022.2.4,Win32,59.70505702,Chrome,1280,720,,,,,,,,,,,,,,,,,,,,,,,132,U,star,1,0,d,1.0392,0,3,0,3,0,1,,,,,,,,,,,,,,,,,,,,,,,,,,,,,,,,,,,,,,,,,
294607,2022-11-29_17h56.39.873,vts_reward_expectancy_bt,2022.2.4,Win32,59.70505702,Chrome,1280,720,,,,,,,,,,,,,,,,,,,,,,,181,S,circle,1,0,f,0.5974,0,4,0,4,0,1,,,,,,,,,,,,,,,,,,,,,,,,,,,,,,,,,,,,,,,,,
294607,2022-11-29_17h56.39.873,vts_reward_expectancy_bt,2022.2.4,Win32,59.70505702,Chrome,1280,720,,,,,,,,,,,,,,,,,,,,,,,146,F,triangle,1,0,d,1.0664,0,5,0,5,0,1,,,,,,,,,,,,,,,,,,,,,,,,,,,,,,,,,,,,,,,,,
294607,2022-11-29_17h56.39.873,vts_reward_expectancy_bt,2022.2.4,Win32,59.70505702,Chrome,1280,720,,,,,,,,,,,,,,,,,,,,,,,167,Y,hexagon,1,0,f,0.6397,0,6,0,6,0,1,,,,,,,,,,,,,,,,,,,,,,,,,,,,,,,,,,,,,,,,,
294607,2022-11-29_17h56.39.873,vts_reward_expectancy_bt,2022.2.4,Win32,59.70505702,Chrome,1280,720,,,,,,,,,,,,,,,,,,,,,,,139,W,star,1,0,d,0.6072,0,7,0,7,0,1,,,,,,,,,,,,,,,,,,,,,,,,,,,,,,,,,,,,,,,,,
294607,2022-11-29_17h56.39.873,vts_reward_expectancy_bt,2022.2.4,Win32,59.70505702,Chrome,1280,720,,,,,,,,,,,,,,,,,,,,,,,160,B,star,1,0,f,0.8582,0,8,0,8,0,1,,,,,,,,,,,,,,,,,,,,,,,,,,,,,,,,,,,,,,,,,
294607,2022-11-29_17h56.39.873,vts_reward_expectancy_bt,2022.2.4,Win32,59.70505702,Chrome,1280,720,,,,,,,,,,,,,,,,,,,,,,,125,D,hexagon,1,0,d,0.6328,0,9,0,9,0,1,,,,,,,,,,,,,,,,,,,,,,,,,,,,,,,,,,,,,,,,,
294607,2022-11-29_17h56.39.873,vts_reward_expectancy_bt,2022.2.4,Win32,59.70505702,Chrome,1280,720,,,,,,,,,,,,,,,,,,,,,,,125,U,star,1,0,,,1,,,,,,k,1.7642,0,0,0,0,1,,,,,,,,,,,,,,,,,,,,,,,,,,,,,,,,,,
294607,2022-11-29_17h56.39.873,vts_reward_expectancy_bt,2022.2.4,Win32,59.70505702,Chrome,1280,720,,,,,,,,,,,,,,,,,,,,,,,139,Y,hexagon,1,0,,,1,,,,,,k,1.1496,1,0,1,0,1,,,,,,,,,,,,,,,,,,,,,,,,,,,,,,,,,,
294607,2022-11-29_17h56.39.873,vts_reward_expectancy_bt,2022.2.4,Win32,59.70505702,Chrome,1280,720,,,,,,,,,,,,,,,,,,,,,,,167,F,circle,1,0,,,1,,,,,,j,0.7679,2,0,2,0,1,,,,,,,,,,,,,,,,,,,,,,,,,,,,,,,,,,
294607,2022-11-29_17h56.39.873,vts_reward_expectancy_bt,2022.2.4,Win32,59.70505702,Chrome,1280,720,,,,,,,,,,,,,,,,,,,,,,,174,D,triangle,1,0,,,1,,,,,,j,0.914,3,0,3,0,1,,,,,,,,,,,,,,,,,,,,,,,,,,,,,,,,,,
294607,2022-11-29_17h56.39.873,vts_reward_expectancy_bt,2022.2.4,Win32,59.70505702,Chrome,1280,720,,,,,,,,,,,,,,,,,,,,,,,132,S,star,1,0,,,1,,,,,,k,1.2686,4,0,4,0,1,,,,,,,,,,,,,,,,,,,,,,,,,,,,,,,,,,
294607,2022-11-29_17h56.39.873,vts_reward_expectancy_bt,2022.2.4,Win32,59.70505702,Chrome,1280,720,,,,,,,,,,,,,,,,,,,,,,,181,W,hexagon,1,0,,,1,,,,,,k,1.0906,5,0,5,0,1,,,,,,,,,,,,,,,,,,,,,,,,,,,,,,,,,,
294607,2022-11-29_17h56.39.873,vts_reward_expectancy_bt,2022.2.4,Win32,59.70505702,Chrome,1280,720,,,,,,,,,,,,,,,,,,,,,,,160,B,circle,1,0,,,1,,,,,,j,0.7417,6,0,6,0,1,,,,,,,,,,,,,,,,,,,,,,,,,,,,,,,,,,
294607,2022-11-29_17h56.39.873,vts_reward_expectancy_bt,2022.2.4,Win32,59.70505702,Chrome,1280,720,,,,,,,,,,,,,,,,,,,,,,,146,H,triangle,1,0,,,1,,,,,,j,0.8029,7,0,7,0,1,,,,,,,,,,,,,,,,,,,,,,,,,,,,,,,,,,
294607,2022-11-29_17h56.39.873,vts_reward_expectancy_bt,2022.2.4,Win32,59.70505702,Chrome,1280,720,,,,,,,,,,,,,,,,,,,,,,,125,U,star,1,0,,,1,,,,,,k,0.5806,8,0,8,0,1,,,,,,,,,,,,,,,,,,,,,,,,,,,,,,,,,,
294607,2022-11-29_17h56.39.873,vts_reward_expectancy_bt,2022.2.4,Win32,59.70505702,Chrome,1280,720,,,,,,,,,,,,,,,,,,,,,,,139,Y,circle,1,0,,,1,,,,,,k,0.7478,9,0,9,0,1,,,,,,,,,,,,,,,,,,,,,,,,,,,,,,,,,,
294607,2022-11-29_17h56.39.873,vts_reward_expectancy_bt,2022.2.4,Win32,59.70505702,Chrome,1280,720,,,,,0,729,,,,,,,,,,,,,,,,,181,S,circle,1,0,,,2,,,,,,,,,,,,,-1,letter,NA,k,1.7952,vtsPrac,0,0,0,0,1,,,,,,,,,,,,,,,,,,,,,,,
294607,2022-11-29_17h56.39.873,vts_reward_expectancy_bt,2022.2.4,Win32,59.70505702,Chrome,1280,720,,,,,0,729,,,,,,,,,,,,,,,,,139,H,triangle,1,0,,,2,,,,,,,,,,,,,switch,number,numSwt,d,2.7165,vtsPrac,1,0,1,0,1,,,,,,,,,,,,,,,,,,,,,,,
294607,2022-11-29_17h56.39.873,vts_reward_expectancy_bt,2022.2.4,Win32,59.70505702,Chrome,1280,720,,,,,0,729,,,,,,,,,,,,,,,,,167,B,circle,1,0,,,2,,,,,,,,,,,,,repeat,number,numRpt,f,1.098,vtsPrac,2,0,2,0,1,,,,,,,,,,,,,,,,,,,,,,,
294607,2022-11-29_17h56.39.873,vts_reward_expectancy_bt,2022.2.4,Win32,59.70505702,Chrome,1280,720,,,,,0,729,,,,,,,,,,,,,,,,,146,D,triangle,1,0,,,2,,,,,,,,,,,,,repeat,number,numRpt,d,1.1655,vtsPrac,3,0,3,0,1,,,,,,,,,,,,,,,,,,,,,,,
294607,2022-11-29_17h56.39.873,vts_reward_expectancy_bt,2022.2.4,Win32,59.70505702,Chrome,1280,720,,,,,0,729,,,,,,,,,,,,,,,,,181,S,triangle,1,0,,,2,,,,,,,,,,,,,switch,letter,lettSwt,k,0.7006,vtsPrac,4,0,4,0,1,,,,,,,,,,,,,,,,,,,,,,,
294607,2022-11-29_17h56.39.873,vts_reward_expectancy_bt,2022.2.4,Win32,59.70505702,Chrome,1280,720,,,,,0,729,,,,,,,,,,,,,,,,,139,H,circle,1,0,,,2,,,,,,,,,,,,,switch,number,numSwt,d,1.7974,vtsPrac,5,0,5,0,1,,,,,,,,,,,,,,,,,,,,,,,
294607,2022-11-29_17h56.39.873,vts_reward_expectancy_bt,2022.2.4,Win32,59.70505702,Chrome,1280,720,,,,,0,729,,,,,,,,,,,,,,,,,167,B,hexagon,1,0,,,2,,,,,,,,,,,,,switch,letter,lettSwt,j,0.8929,vtsPrac,6,0,6,0,1,,,,,,,,,,,,,,,,,,,,,,,
294607,2022-11-29_17h56.39.873,vts_reward_expectancy_bt,2022.2.4,Win32,59.70505702,Chrome,1280,720,,,,,0,729,,,,,,,,,,,,,,,,,146,D,star,1,0,,,2,,,,,,,,,,,,,repeat,letter,lettRpt,j,0.6307,vtsPrac,7,0,7,0,1,,,,,,,,,,,,,,,,,,,,,,,
294607,2022-11-29_17h56.39.873,vts_reward_expectancy_bt,2022.2.4,Win32,59.70505702,Chrome,1280,720,,,,,0,729,,,,,,,,,,,,,,,,,181,W,triangle,1,0,,,2,,,,,,,,,,,,,switch,number,numSwt,f,1.1902,vtsPrac,8,0,8,0,1,,,,,,,,,,,,,,,,,,,,,,,
294607,2022-11-29_17h56.39.873,vts_reward_expectancy_bt,2022.2.4,Win32,59.70505702,Chrome,1280,720,,,,,0,729,,,,,,,,,,,,,,,,,125,S,hexagon,1,0,,,2,,,,,,,,,,,,,switch,letter,lettSwt,k,0.8216,vtsPrac,9,0,9,0,1,,,,,,,,,,,,,,,,,,,,,,,
294607,2022-11-29_17h56.39.873,vts_reward_expectancy_bt,2022.2.4,Win32,59.70505702,Chrome,1280,720,,,,,0,729,,,,,,,,,,,,,,,,,146,B,star,1,0,,,2,,,,,,,,,,,,,repeat,letter,lettRpt,j,0.8023,vtsPrac,10,0,10,0,1,,,,,,,,,,,,,,,,,,,,,,,
294607,2022-11-29_17h56.39.873,vts_reward_expectancy_bt,2022.2.4,Win32,59.70505702,Chrome,1280,720,,,,,0,729,,,,,,,,,,,,,,,,,167,H,hexagon,1,0,,,2,,,,,,,,,,,,,switch,number,numSwt,f,0.8664,vtsPrac,11,0,11,0,1,,,,,,,,,,,,,,,,,,,,,,,
294607,2022-11-29_17h56.39.873,vts_reward_expectancy_bt,2022.2.4,Win32,59.70505702,Chrome,1280,720,,,,,0,729,,,,,,,,,,,,,,,,,125,Y,circle,1,0,,,2,,,,,,,,,,,,,switch,letter,lettSwt,k,0.8488,vtsPrac,12,0,12,0,1,,,,,,,,,,,,,,,,,,,,,,,
294607,2022-11-29_17h56.39.873,vts_reward_expectancy_bt,2022.2.4,Win32,59.70505702,Chrome,1280,720,,,,,0,729,,,,,,,,,,,,,,,,,146,F,star,1,0,,,2,,,,,,,,,,,,,switch,number,numSwt,d,0.602,vtsPrac,13,0,13,0,1,,,,,,,,,,,,,,,,,,,,,,,
294607,2022-11-29_17h56.39.873,vts_reward_expectancy_bt,2022.2.4,Win32,59.70505702,Chrome,1280,720,,,,,0,729,,,,,,,,,,,,,,,,,181,U,circle,1,0,,,2,,,,,,,,,,,,,switch,letter,lettSwt,k,0.8187,vtsPrac,14,0,14,0,1,,,,,,,,,,,,,,,,,,,,,,,
294607,2022-11-29_17h56.39.873,vts_reward_expectancy_bt,2022.2.4,Win32,59.70505702,Chrome,1280,720,,,,,0,729,,,,,,,,,,,,,,,,,132,B,hexagon,1,0,,,2,,,,,,,,,,,,,switch,number,numSwt,d,1.02,vtsPrac,15,0,15,0,1,,,,,,,,,,,,,,,,,,,,,,,
294607,2022-11-29_17h56.39.873,vts_reward_expectancy_bt,2022.2.4,Win32,59.70505702,Chrome,1280,720,,,,,0,729,,,,,,,,,,,,,,,,,132,S,circle,1,0,,,2,,,,,,,,,,,,,repeat,number,numRpt,d,0.7845,vtsPrac,16,0,16,0,1,,,,,,,,,,,,,,,,,,,,,,,
294607,2022-11-29_17h56.39.873,vts_reward_expectancy_bt,2022.2.4,Win32,59.70505702,Chrome,1280,720,,,,,0,729,,,,,,,,,,,,,,,,,181,H,star,1,0,,,2,,,,,,,,,,,,,repeat,number,numRpt,f,0.8495,vtsPrac,17,0,17,0,1,,,,,,,,,,,,,,,,,,,,,,,
294607,2022-11-29_17h56.39.873,vts_reward_expectancy_bt,2022.2.4,Win32,59.70505702,Chrome,1280,720,,,,,0,729,,,,,,,,,,,,,,,,,167,D,circle,1,0,,,2,,,,,,,,,,,,,switch,letter,lettSwt,j,0.7172,vtsPrac,18,0,18,0,1,,,,,,,,,,,,,,,,,,,,,,,
294607,2022-11-29_17h56.39.873,vts_reward_expectancy_bt,2022.2.4,Win32,59.70505702,Chrome,1280,720,,,,,0,729,,,,,,,,,,,,,,,,,146,W,star,1,0,,,2,,,,,,,,,,,,,switch,number,numSwt,d,0.9996,vtsPrac,19,0,19,0,1,,,,,,,,,,,,,,,,,,,,,,,
294607,2022-11-29_17h56.39.873,vts_reward_expectancy_bt,2022.2.4,Win32,59.70505702,Chrome,1280,720,,,,,0,729,,,,,,,,,,,,,,,,,167,F,circle,1,0,,,2,,,,,,,,,,,,,repeat,number,numRpt,f,2.7146,vtsPrac,20,0,20,0,1,,,,,,,,,,,,,,,,,,,,,,,
294607,2022-11-29_17h56.39.873,vts_reward_expectancy_bt,2022.2.4,Win32,59.70505702,Chrome,1280,720,,,,,0,729,,,,,,,,,,,,,,,,,174,B,triangle,1,0,,,2,,,,,,,,,,,,,switch,letter,lettSwt,j,0.7144,vtsPrac,21,0,21,0,1,,,,,,,,,,,,,,,,,,,,,,,
294607,2022-11-29_17h56.39.873,vts_reward_expectancy_bt,2022.2.4,Win32,59.70505702,Chrome,1280,720,,,,,0,729,,,,,,,,,,,,,,,,,132,U,hexagon,1,0,,,2,,,,,,,,,,,,,repeat,letter,lettRpt,k,1.3315,vtsPrac,22,0,22,0,1,,,,,,,,,,,,,,,,,,,,,,,
294607,2022-11-29_17h56.39.873,vts_reward_expectancy_bt,2022.2.4,Win32,59.70505702,Chrome,1280,720,,,,,0,729,,,,,,,,,,,,,,,,,160,Y,triangle,1,0,,,2,,,,,,,,,,,,,switch,number,numSwt,f,1.5533,vtsPrac,23,0,23,0,1,,,,,,,,,,,,,,,,,,,,,,,
294607,2022-11-29_17h56.39.873,vts_reward_expectancy_bt,2022.2.4,Win32,59.70505702,Chrome,1280,720,,,,,0,729,,,,,,,,,,,,,,,,,160,B,circle,1,0,,,2,,,,,,,,,,,,,repeat,number,numRpt,f,0.9984,vtsPrac,24,0,24,0,1,,,,,,,,,,,,,,,,,,,,,,,
294607,2022-11-29_17h56.39.873,vts_reward_expectancy_bt,2022.2.4,Win32,59.70505702,Chrome,1280,720,,,,,0,729,,,,,,,,,,,,,,,,,174,F,hexagon,1,0,,,2,,,,,,,,,,,,,switch,letter,lettSwt,j,0.8181,vtsPrac,25,0,25,0,1,,,,,,,,,,,,,,,,,,,,,,,
294607,2022-11-29_17h56.39.873,vts_reward_expectancy_bt,2022.2.4,Win32,59.70505702,Chrome,1280,720,,,,,0,729,,,,,,,,,,,,,,,,,146,H,triangle,1,0,,,2,,,,,,,,,,,,,switch,number,numSwt,d,0.9469,vtsPrac,26,0,26,0,1,,,,,,,,,,,,,,,,,,,,,,,
294607,2022-11-29_17h56.39.873,vts_reward_expectancy_bt,2022.2.4,Win32,59.70505702,Chrome,1280,720,,,,,0,729,,,,,,,,,,,,,,,,,132,W,hexagon,1,0,,,2,,,,,,,,,,,,,switch,letter,lettSwt,k,1.143,vtsPrac,27,0,27,0,1,,,,,,,,,,,,,,,,,,,,,,,
294607,2022-11-29_17h56.39.873,vts_reward_expectancy_bt,2022.2.4,Win32,59.70505702,Chrome,1280,720,,,,,0,729,,,,,,,,,,,,,,,,,125,W,circle,1,0,,,2,,,,,,,,,,,,,repeat,letter,lettRpt,k,1.1516,vtsPrac,28,0,28,0,1,,,,,,,,,,,,,,,,,,,,,,,
294607,2022-11-29_17h56.39.873,vts_reward_expectancy_bt,2022.2.4,Win32,59.70505702,Chrome,1280,720,,,,,0,729,,,,,,,,,,,,,,,,,167,B,hexagon,1,0,,,2,,,,,,,,,,,,,repeat,letter,lettRpt,j,1.099,vtsPrac,29,0,29,0,1,,,,,,,,,,,,,,,,,,,,,,,
294607,2022-11-29_17h56.39.873,vts_reward_expectancy_bt,2022.2.4,Win32,59.70505702,Chrome,1280,720,,,,,0,729,,,,,,,,,,,,,,,,,181,F,hexagon,1,0,,,2,,,,,,,,,,,,,switch,number,numSwt,f,1.1169,vtsPrac,30,0,30,0,1,,,,,,,,,,,,,,,,,,,,,,,
294607,2022-11-29_17h56.39.873,vts_reward_expectancy_bt,2022.2.4,Win32,59.70505702,Chrome,1280,720,,,,,0,729,,,,,,,,,,,,,,,,,146,U,triangle,1,0,,,2,,,,,,,,,,,,,switch,letter,lettSwt,k,0.7028,vtsPrac,31,0,31,0,1,,,,,,,,,,,,,,,,,,,,,,,
294607,2022-11-29_17h56.39.873,vts_reward_expectancy_bt,2022.2.4,Win32,59.70505702,Chrome,1280,720,,,,,,,,,,,,,,,,,,,,,,,,,,,,,,,,,,,,,,,,,,,,,,,,,,,,,,,,,,,,,,,,,,,,,,,,,,,,
294607,2022-11-29_17h56.39.873,vts_reward_expectancy_bt,2022.2.4,Win32,59.70505702,Chrome,1280,720,,,,,,,,,,,,,,,,,,,,,,,,,,,,,,,,,,,,,,,,,,,,,,,,,,,,,,,,,,,,,,,,,,,,,,,,,,,,
294607,2022-11-29_17h56.39.873,vts_reward_expectancy_bt,2022.2.4,Win32,59.70505702,Chrome,1280,720,,,,,0,729,,,,,,,,,,,,,,,,,160,W,hexagon,1,0,,,,,,,,,,,,,,,,switch,number,numSwt,f,1.6638,noRew,,,,,,0,0,0,0,0,1,,,,,,,,,,,,,,,,,
294607,2022-11-29_17h56.39.873,vts_reward_expectancy_bt,2022.2.4,Win32,59.70505702,Chrome,1280,720,,,,,0,729,,,,,,,,,,,,,,,,,146,D,triangle,1,0,,,,,,,,,,,,,,,,repeat,number,numRpt,d,0.7083,noRew,,,,,,0,1,0,1,0,1,,,,,,,,,,,,,,,,,
294607,2022-11-29_17h56.39.873,vts_reward_expectancy_bt,2022.2.4,Win32,59.70505702,Chrome,1280,720,,,,,0,729,,,,,,,,,,,,,,,,,167,S,hexagon,1,0,,,,,,,,,,,,,,,,switch,letter,lettSwt,k,0.7324,noRew,,,,,,0,2,0,2,0,1,,,,,,,,,,,,,,,,,
294607,2022-11-29_17h56.39.873,vts_reward_expectancy_bt,2022.2.4,Win32,59.70505702,Chrome,1280,720,,,,,0,729,,,,,,,,,,,,,,,,,132,H,triangle,1,0,,,,,,,,,,,,,,,,switch,number,numSwt,d,0.9999,noRew,,,,,,0,3,0,3,0,1,,,,,,,,,,,,,,,,,
294607,2022-11-29_17h56.39.873,vts_reward_expectancy_bt,2022.2.4,Win32,59.70505702,Chrome,1280,720,,,,,0,729,,,,,,,,,,,,,,,,,160,W,hexagon,1,0,,,,,,,,,,,,,,,,switch,letter,lettSwt,k,0.7409,noRew,,,,,,0,4,0,4,0,1,,,,,,,,,,,,,,,,,
294607,2022-11-29_17h56.39.873,vts_reward_expectancy_bt,2022.2.4,Win32,59.70505702,Chrome,1280,720,,,,,0,729,,,,,,,,,,,,,,,,,146,D,star,1,0,,,,,,,,,,,,,,,,repeat,letter,lettRpt,j,0.6666,noRew,,,,,,0,5,0,5,0,1,,,,,,,,,,,,,,,,,
294607,2022-11-29_17h56.39.873,vts_reward_expectancy_bt,2022.2.4,Win32,59.70505702,Chrome,1280,720,,,,,0,729,,,,,,,,,,,,,,,,,167,S,star,1,0,,,,,,,,,,,,,,,,repeat,letter,lettRpt,k,0.8345,noRew,,,,,,0,6,0,6,0,1,,,,,,,,,,,,,,,,,
294607,2022-11-29_17h56.39.873,vts_reward_expectancy_bt,2022.2.4,Win32,59.70505702,Chrome,1280,720,,,,,0,729,,,,,,,,,,,,,,,,,132,H,circle,1,0,,,,,,,,,,,,,,,,switch,number,numSwt,d,1.0009,noRew,,,,,,0,7,0,7,0,1,,,,,,,,,,,,,,,,,
294607,2022-11-29_17h56.39.873,vts_reward_expectancy_bt,2022.2.4,Win32,59.70505702,Chrome,1280,720,,,,,0,729,,,,,,,,,,,,,,,,,181,B,triangle,1,0,,,,,,,,,,,,,,,,switch,letter,lettSwt,j,1.9004,noRew,,,,,,0,8,0,8,0,1,,,,,,,,,,,,,,,,,
294607,2022-11-29_17h56.39.873,vts_reward_expectancy_bt,2022.2.4,Win32,59.70505702,Chrome,1280,720,,,,,0,729,,,,,,,,,,,,,,,,,174,F,circle,1,0,,,,,,,,,,,,,,,,switch,number,numSwt,f,2.4179,noRew,,,,,,0,9,0,9,0,1,,,,,,,,,,,,,,,,,
294607,2022-11-29_17h56.39.873,vts_reward_expectancy_bt,2022.2.4,Win32,59.70505702,Chrome,1280,720,,,,,0,729,,,,,,,,,,,,,,,,,132,U,hexagon,1,0,,,,,,,,,,,,,,,,switch,letter,lettSwt,k,2.6182,noRew,,,,,,0,10,0,10,0,1,,,,,,,,,,,,,,,,,
294607,2022-11-29_17h56.39.873,vts_reward_expectancy_bt,2022.2.4,Win32,59.70505702,Chrome,1280,720,,,,,0,729,,,,,,,,,,,,,,,,,146,Y,star,1,0,,,,,,,,,,,,,,,,switch,number,numSwt,d,1.0131,noRew,,,,,,0,11,0,11,0,1,,,,,,,,,,,,,,,,,
294607,2022-11-29_17h56.39.873,vts_reward_expectancy_bt,2022.2.4,Win32,59.70505702,Chrome,1280,720,,,,,0,729,,,,,,,,,,,,,,,,,125,F,star,1,0,,,,,,,,,,,,,,,,repeat,number,numRpt,d,1.3888,noRew,,,,,,0,12,0,12,0,1,,,,,,,,,,,,,,,,,
294607,2022-11-29_17h56.39.873,vts_reward_expectancy_bt,2022.2.4,Win32,59.70505702,Chrome,1280,720,,,,,0,729,,,,,,,,,,,,,,,,,160,S,hexagon,1,0,,,,,,,,,,,,,,,,switch,letter,lettSwt,k,1.3015,noRew,,,,,,0,13,0,13,0,1,,,,,,,,,,,,,,,,,
294607,2022-11-29_17h56.39.873,vts_reward_expectancy_bt,2022.2.4,Win32,59.70505702,Chrome,1280,720,,,,,0,729,,,,,,,,,,,,,,,,,174,B,star,1,0,,,,,,,,,,,,,,,,switch,number,numSwt,f,1.1986,noRew,,,,,,0,14,0,14,0,1,,,,,,,,,,,,,,,,,
294607,2022-11-29_17h56.39.873,vts_reward_expectancy_bt,2022.2.4,Win32,59.70505702,Chrome,1280,720,,,,,0,729,,,,,,,,,,,,,,,,,181,H,triangle,1,0,,,,,,,,,,,,,,,,switch,letter,lettSwt,j,1.8045,noRew,,,,,,0,15,0,15,0,1,,,,,,,,,,,,,,,,,
294607,2022-11-29_17h56.39.873,vts_reward_expectancy_bt,2022.2.4,Win32,59.70505702,Chrome,1280,720,,,,,0,729,,,,,,,,,,,,,,,,,167,Y,circle,1,0,,,,,,,,,,,,,,,,repeat,letter,lettRpt,k,1.4172,noRew,,,,,,0,16,0,16,0,1,,,,,,,,,,,,,,,,,
294607,2022-11-29_17h56.39.873,vts_reward_expectancy_bt,2022.2.4,Win32,59.70505702,Chrome,1280,720,,,,,0,729,,,,,,,,,,,,,,,,,181,W,hexagon,1,0,,,,,,,,,,,,,,,,repeat,letter,lettRpt,k,0.8385,noRew,,,,,,0,17,0,17,0,1,,,,,,,,,,,,,,,,,
294607,2022-11-29_17h56.39.873,vts_reward_expectancy_bt,2022.2.4,Win32,59.70505702,Chrome,1280,720,,,,,0,729,,,,,,,,,,,,,,,,,160,D,circle,1,0,,,,,,,,,,,,,,,,switch,number,numSwt,f,0.8997,noRew,,,,,,0,18,0,18,0,1,,,,,,,,,,,,,,,,,
294607,2022-11-29_17h56.39.873,vts_reward_expectancy_bt,2022.2.4,Win32,59.70505702,Chrome,1280,720,,,,,0,729,,,,,,,,,,,,,,,,,174,B,star,1,0,,,,,,,,,,,,,,,,repeat,number,numRpt,f,1.0033,noRew,,,,,,0,19,0,19,0,1,,,,,,,,,,,,,,,,,
294607,2022-11-29_17h56.39.873,vts_reward_expectancy_bt,2022.2.4,Win32,59.70505702,Chrome,1280,720,,,,,0,729,,,,,,,,,,,,,,,,,125,S,circle,1,0,,,,,,,,,,,,,,,,switch,letter,lettSwt,k,0.7727,noRew,,,,,,0,20,0,20,0,1,,,,,,,,,,,,,,,,,
294607,2022-11-29_17h56.39.873,vts_reward_expectancy_bt,2022.2.4,Win32,59.70505702,Chrome,1280,720,,,,,0,729,,,,,,,,,,,,,,,,,139,D,star,1,0,,,,,,,,,,,,,,,,repeat,letter,lettRpt,j,0.95,noRew,,,,,,0,21,0,21,0,1,,,,,,,,,,,,,,,,,
294607,2022-11-29_17h56.39.873,vts_reward_expectancy_bt,2022.2.4,Win32,59.70505702,Chrome,1280,720,,,,,0,729,,,,,,,,,,,,,,,,,146,U,circle,1,0,,,,,,,,,,,,,,,,repeat,letter,lettRpt,k,0.7978,noRew,,,,,,0,22,0,22,0,1,,,,,,,,,,,,,,,,,
294607,2022-11-29_17h56.39.873,vts_reward_expectancy_bt,2022.2.4,Win32,59.70505702,Chrome,1280,720,,,,,0,729,,,,,,,,,,,,,,,,,160,B,hexagon,1,0,,,,,,,,,,,,,,,,switch,number,numSwt,f,1.0695,noRew,,,,,,0,23,0,23,0,1,,,,,,,,,,,,,,,,,
294607,2022-11-29_17h56.39.873,vts_reward_expectancy_bt,2022.2.4,Win32,59.70505702,Chrome,1280,720,,,,,0,729,,,,,,,,,,,,,,,,,132,D,hexagon,1,0,,,,,,,,,,,,,,,,repeat,number,numRpt,d,1.0595,noRew,,,,,,0,24,0,24,0,1,,,,,,,,,,,,,,,,,
294607,2022-11-29_17h56.39.873,vts_reward_expectancy_bt,2022.2.4,Win32,59.70505702,Chrome,1280,720,,,,,0,729,,,,,,,,,,,,,,,,,160,U,star,1,0,,,,,,,,,,,,,,,,switch,letter,lettSwt,k,0.793,noRew,,,,,,0,25,0,25,0,1,,,,,,,,,,,,,,,,,
294607,2022-11-29_17h56.39.873,vts_reward_expectancy_bt,2022.2.4,Win32,59.70505702,Chrome,1280,720,,,,,0,729,,,,,,,,,,,,,,,,,167,H,star,1,0,,,,,,,,,,,,,,,,switch,number,numSwt,f,0.8019,noRew,,,,,,0,26,0,26,0,1,,,,,,,,,,,,,,,,,
294607,2022-11-29_17h56.39.873,vts_reward_expectancy_bt,2022.2.4,Win32,59.70505702,Chrome,1280,720,,,,,0,729,,,,,,,,,,,,,,,,,139,F,circle,1,0,,,,,,,,,,,,,,,,repeat,number,numRpt,d,1.8442,noRew,,,,,,0,27,0,27,0,1,,,,,,,,,,,,,,,,,
294607,2022-11-29_17h56.39.873,vts_reward_expectancy_bt,2022.2.4,Win32,59.70505702,Chrome,1280,720,,,,,0,729,,,,,,,,,,,,,,,,,132,H,hexagon,1,0,,,,,,,,,,,,,,,,switch,letter,lettSwt,j,1.1058,noRew,,,,,,0,28,0,28,0,1,,,,,,,,,,,,,,,,,
294607,2022-11-29_17h56.39.873,vts_reward_expectancy_bt,2022.2.4,Win32,59.70505702,Chrome,1280,720,,,,,0,729,,,,,,,,,,,,,,,,,174,W,triangle,1,0,,,,,,,,,,,,,,,,repeat,letter,lettRpt,k,0.8166,noRew,,,,,,0,29,0,29,0,1,,,,,,,,,,,,,,,,,
294607,2022-11-29_17h56.39.873,vts_reward_expectancy_bt,2022.2.4,Win32,59.70505702,Chrome,1280,720,,,,,0,729,,,,,,,,,,,,,,,,,160,U,star,1,0,,,,,,,,,,,,,,,,repeat,letter,lettRpt,k,0.7385,noRew,,,,,,0,30,0,30,0,1,,,,,,,,,,,,,,,,,
294607,2022-11-29_17h56.39.873,vts_reward_expectancy_bt,2022.2.4,Win32,59.70505702,Chrome,1280,720,,,,,0,729,,,,,,,,,,,,,,,,,167,S,circle,1,0,,,,,,,,,,,,,,,,switch,number,numSwt,f,1.3256,noRew,,,,,,0,31,0,31,0,1,,,,,,,,,,,,,,,,,
294607,2022-11-29_17h56.39.873,vts_reward_expectancy_bt,2022.2.4,Win32,59.70505702,Chrome,1280,720,,,,,0,729,,,,,,,,,,,,,,,,,125,U,circle,1,0,,,,,,,,,,,,,,,,repeat,number,numRpt,d,1.7121,noRew,,,,,,0,32,0,32,0,1,,,,,,,,,,,,,,,,,
294607,2022-11-29_17h56.39.873,vts_reward_expectancy_bt,2022.2.4,Win32,59.70505702,Chrome,1280,720,,,,,0,729,,,,,,,,,,,,,,,,,146,B,hexagon,1,0,,,,,,,,,,,,,,,,switch,letter,lettSwt,j,2.2746,noRew,,,,,,0,33,0,33,0,1,,,,,,,,,,,,,,,,,
294607,2022-11-29_17h56.39.873,vts_reward_expectancy_bt,2022.2.4,Win32,59.70505702,Chrome,1280,720,,,,,0,729,,,,,,,,,,,,,,,,,167,Y,circle,1,0,,,,,,,,,,,,,,,,repeat,letter,lettRpt,k,2.2341,noRew,,,,,,0,34,0,34,0,1,,,,,,,,,,,,,,,,,
294607,2022-11-29_17h56.39.873,vts_reward_expectancy_bt,2022.2.4,Win32,59.70505702,Chrome,1280,720,,,,,0,729,,,,,,,,,,,,,,,,,181,F,star,1,0,,,,,,,,,,,,,,,,switch,number,numSwt,f,1.507,noRew,,,,,,0,35,0,35,0,1,,,,,,,,,,,,,,,,,
294607,2022-11-29_17h56.39.873,vts_reward_expectancy_bt,2022.2.4,Win32,59.70505702,Chrome,1280,720,,,,,0,729,,,,,,,,,,,,,,,,,125,W,hexagon,1,0,,,,,,,,,,,,,,,,repeat,number,numRpt,d,0.6839,noRew,,,,,,0,36,0,36,0,1,,,,,,,,,,,,,,,,,
294607,2022-11-29_17h56.39.873,vts_reward_expectancy_bt,2022.2.4,Win32,59.70505702,Chrome,1280,720,,,,,0,729,,,,,,,,,,,,,,,,,132,U,triangle,1,0,,,,,,,,,,,,,,,,switch,letter,lettSwt,k,0.7445,noRew,,,,,,0,37,0,37,0,1,,,,,,,,,,,,,,,,,
294607,2022-11-29_17h56.39.873,vts_reward_expectancy_bt,2022.2.4,Win32,59.70505702,Chrome,1280,720,,,,,0,729,,,,,,,,,,,,,,,,,181,S,circle,1,0,,,,,,,,,,,,,,,,switch,number,numSwt,f,1.0665,noRew,,,,,,0,38,0,38,0,1,,,,,,,,,,,,,,,,,
294607,2022-11-29_17h56.39.873,vts_reward_expectancy_bt,2022.2.4,Win32,59.70505702,Chrome,1280,720,,,,,0,729,,,,,,,,,,,,,,,,,167,H,triangle,1,0,,,,,,,,,,,,,,,,repeat,number,numRpt,f,1.1382,noRew,,,,,,0,39,0,39,0,1,,,,,,,,,,,,,,,,,
294607,2022-11-29_17h56.39.873,vts_reward_expectancy_bt,2022.2.4,Win32,59.70505702,Chrome,1280,720,,,,,0,729,,,,,,,,,,,,,,,,,132,Y,star,1,0,,,,,,,,,,,,,,,,repeat,number,numRpt,d,0.6303,noRew,,,,,,0,40,0,40,0,1,,,,,,,,,,,,,,,,,
294607,2022-11-29_17h56.39.873,vts_reward_expectancy_bt,2022.2.4,Win32,59.70505702,Chrome,1280,720,,,,,0,729,,,,,,,,,,,,,,,,,125,B,hexagon,1,0,,,,,,,,,,,,,,,,switch,letter,lettSwt,j,0.8169,noRew,,,,,,0,41,0,41,0,1,,,,,,,,,,,,,,,,,
294607,2022-11-29_17h56.39.873,vts_reward_expectancy_bt,2022.2.4,Win32,59.70505702,Chrome,1280,720,,,,,0,729,,,,,,,,,,,,,,,,,139,S,star,1,0,,,,,,,,,,,,,,,,repeat,letter,lettRpt,k,1.4028,noRew,,,,,,0,42,0,42,0,1,,,,,,,,,,,,,,,,,
294607,2022-11-29_17h56.39.873,vts_reward_expectancy_bt,2022.2.4,Win32,59.70505702,Chrome,1280,720,,,,,0,729,,,,,,,,,,,,,,,,,181,W,circle,1,0,,,,,,,,,,,,,,,,switch,number,numSwt,f,1.0364,noRew,,,,,,0,43,0,43,0,1,,,,,,,,,,,,,,,,,
294607,2022-11-29_17h56.39.873,vts_reward_expectancy_bt,2022.2.4,Win32,59.70505702,Chrome,1280,720,,,,,0,729,,,,,,,,,,,,,,,,,160,W,star,1,0,,,,,,,,,,,,,,,,switch,letter,lettSwt,k,1.0012,noRew,,,,,,0,44,0,44,0,1,,,,,,,,,,,,,,,,,
294607,2022-11-29_17h56.39.873,vts_reward_expectancy_bt,2022.2.4,Win32,59.70505702,Chrome,1280,720,,,,,0,729,,,,,,,,,,,,,,,,,174,D,hexagon,1,0,,,,,,,,,,,,,,,,repeat,letter,lettRpt,j,1.9383,noRew,,,,,,0,45,0,45,0,1,,,,,,,,,,,,,,,,,
294607,2022-11-29_17h56.39.873,vts_reward_expectancy_bt,2022.2.4,Win32,59.70505702,Chrome,1280,720,,,,,0,729,,,,,,,,,,,,,,,,,167,H,star,1,0,,,,,,,,,,,,,,,,switch,number,numSwt,f,0.9091,noRew,,,,,,0,46,0,46,0,1,,,,,,,,,,,,,,,,,
294607,2022-11-29_17h56.39.873,vts_reward_expectancy_bt,2022.2.4,Win32,59.70505702,Chrome,1280,720,,,,,0,729,,,,,,,,,,,,,,,,,181,B,triangle,1,0,,,,,,,,,,,,,,,,switch,letter,lettSwt,j,0.7054,noRew,,,,,,0,47,0,47,0,1,,,,,,,,,,,,,,,,,
294607,2022-11-29_17h56.39.873,vts_reward_expectancy_bt,2022.2.4,Win32,59.70505702,Chrome,1280,720,,,,,0,729,,,,,,,,,,,,,,,,,132,D,hexagon,1,0,,,,,,,,,,,,,,,,switch,number,numSwt,d,2.2402,noRew,,,,,,0,48,0,48,0,1,,,,,,,,,,,,,,,,,
294607,2022-11-29_17h56.39.873,vts_reward_expectancy_bt,2022.2.4,Win32,59.70505702,Chrome,1280,720,,,,,0,729,,,,,,,,,,,,,,,,,146,B,triangle,1,0,,,,,,,,,,,,,,,,repeat,number,numRpt,d,0.8661,noRew,,,,,,0,49,0,49,0,1,,,,,,,,,,,,,,,,,
294607,2022-11-29_17h56.39.873,vts_reward_expectancy_bt,2022.2.4,Win32,59.70505702,Chrome,1280,720,,,,,0,729,,,,,,,,,,,,,,,,,139,F,star,1,0,,,,,,,,,,,,,,,,switch,letter,lettSwt,j,1.2242,noRew,,,,,,0,50,0,50,0,1,,,,,,,,,,,,,,,,,
294607,2022-11-29_17h56.39.873,vts_reward_expectancy_bt,2022.2.4,Win32,59.70505702,Chrome,1280,720,,,,,0,729,,,,,,,,,,,,,,,,,160,W,hexagon,1,0,,,,,,,,,,,,,,,,switch,number,numSwt,f,1.201,noRew,,,,,,0,51,0,51,0,1,,,,,,,,,,,,,,,,,
294607,2022-11-29_17h56.39.873,vts_reward_expectancy_bt,2022.2.4,Win32,59.70505702,Chrome,1280,720,,,,,0,729,,,,,,,,,,,,,,,,,174,F,triangle,1,0,,,,,,,,,,,,,,,,repeat,number,numRpt,f,1.2666,noRew,,,,,,0,52,0,52,0,1,,,,,,,,,,,,,,,,,
294607,2022-11-29_17h56.39.873,vts_reward_expectancy_bt,2022.2.4,Win32,59.70505702,Chrome,1280,720,,,,,0,729,,,,,,,,,,,,,,,,,132,B,hexagon,1,0,,,,,,,,,,,,,,,,repeat,number,numRpt,d,1.3552,noRew,,,,,,0,53,0,53,0,1,,,,,,,,,,,,,,,,,
294607,2022-11-29_17h56.39.873,vts_reward_expectancy_bt,2022.2.4,Win32,59.70505702,Chrome,1280,720,,,,,0,729,,,,,,,,,,,,,,,,,160,D,hexagon,1,0,,,,,,,,,,,,,,,,switch,letter,lettSwt,j,1.1513,noRew,,,,,,0,54,0,54,0,1,,,,,,,,,,,,,,,,,
294607,2022-11-29_17h56.39.873,vts_reward_expectancy_bt,2022.2.4,Win32,59.70505702,Chrome,1280,720,,,,,0,729,,,,,,,,,,,,,,,,,167,U,star,1,0,,,,,,,,,,,,,,,,switch,number,numSwt,f,1.0727,noRew,,,,,,0,55,0,55,0,1,,,,,,,,,,,,,,,,,
294607,2022-11-29_17h56.39.873,vts_reward_expectancy_bt,2022.2.4,Win32,59.70505702,Chrome,1280,720,,,,,0,729,,,,,,,,,,,,,,,,,174,F,circle,1,0,,,,,,,,,,,,,,,,switch,letter,lettSwt,j,0.8775,noRew,,,,,,0,56,0,56,0,1,,,,,,,,,,,,,,,,,
294607,2022-11-29_17h56.39.873,vts_reward_expectancy_bt,2022.2.4,Win32,59.70505702,Chrome,1280,720,,,,,0,729,,,,,,,,,,,,,,,,,146,U,star,1,0,,,,,,,,,,,,,,,,repeat,letter,lettRpt,k,0.9716,noRew,,,,,,0,57,0,57,0,1,,,,,,,,,,,,,,,,,
294607,2022-11-29_17h56.39.873,vts_reward_expectancy_bt,2022.2.4,Win32,59.70505702,Chrome,1280,720,,,,,0,729,,,,,,,,,,,,,,,,,125,Y,triangle,1,0,,,,,,,,,,,,,,,,repeat,letter,lettRpt,k,0.7685,noRew,,,,,,0,58,0,58,0,1,,,,,,,,,,,,,,,,,
294607,2022-11-29_17h56.39.873,vts_reward_expectancy_bt,2022.2.4,Win32,59.70505702,Chrome,1280,720,,,,,0,729,,,,,,,,,,,,,,,,,132,D,hexagon,1,0,,,,,,,,,,,,,,,,switch,number,numSwt,d,1.2676,noRew,,,,,,0,59,0,59,0,1,,,,,,,,,,,,,,,,,
294607,2022-11-29_17h56.39.873,vts_reward_expectancy_bt,2022.2.4,Win32,59.70505702,Chrome,1280,720,,,,,0,729,,,,,,,,,,,,,,,,,132,U,triangle,1,0,,,,,,,,,,,,,,,,switch,letter,lettSwt,k,1.6575,noRew,,,,,,0,60,0,60,0,1,,,,,,,,,,,,,,,,,
294607,2022-11-29_17h56.39.873,vts_reward_expectancy_bt,2022.2.4,Win32,59.70505702,Chrome,1280,720,,,,,0,729,,,,,,,,,,,,,,,,,139,D,star,1,0,,,,,,,,,,,,,,,,switch,number,numSwt,d,1.0502,noRew,,,,,,0,61,0,61,0,1,,,,,,,,,,,,,,,,,
294607,2022-11-29_17h56.39.873,vts_reward_expectancy_bt,2022.2.4,Win32,59.70505702,Chrome,1280,720,,,,,0,729,,,,,,,,,,,,,,,,,167,F,circle,1,0,,,,,,,,,,,,,,,,switch,letter,lettSwt,j,0.9954,noRew,,,,,,0,62,0,62,0,1,,,,,,,,,,,,,,,,,
294607,2022-11-29_17h56.39.873,vts_reward_expectancy_bt,2022.2.4,Win32,59.70505702,Chrome,1280,720,,,,,0,729,,,,,,,,,,,,,,,,,174,S,star,1,0,,,,,,,,,,,,,,,,repeat,letter,lettRpt,k,1.8847,noRew,,,,,,0,63,0,63,0,1,,,,,,,,,,,,,,,,,
294607,2022-11-29_17h56.39.873,vts_reward_expectancy_bt,2022.2.4,Win32,59.70505702,Chrome,1280,720,,,,,,,,,,,,,,,,,,,,,,,,,,,,,,,,,,,,,,,,,,,,,,,,,,,,,,,,,,,,,,,,,,,,,,,,,,,,
294607,2022-11-29_17h56.39.873,vts_reward_expectancy_bt,2022.2.4,Win32,59.70505702,Chrome,1280,720,,,,,1,730,,,,,,,,,,,,,,,,,125,F,hexagon,1,0,,,,,,,,,,,,,,,,switch,number,numSwt,d,0.7842,Lo,,,,,,0,,,,,,space,7.5669,high,0,0,0,0,1,,,,,,,,,
294607,2022-11-29_17h56.39.873,vts_reward_expectancy_bt,2022.2.4,Win32,59.70505702,Chrome,1280,720,,,,,0,730,,,,,,,,,,,,,,,,,174,U,triangle,1,0,,,,,,,,,,,,,,,,switch,letter,lettSwt,k,1.2497,Hi,,,,,,0,,,,,,,,high,1,0,1,0,1,,,,,,,,,
294607,2022-11-29_17h56.39.873,vts_reward_expectancy_bt,2022.2.4,Win32,59.70505702,Chrome,1280,720,,,,,0,730,,,,,,,,,,,,,,,,,139,S,star,0,0,,,,,,,,,,,,,,,,repeat,letter,NA,j,1.0841,Hi,,,,,,0,,,,,,,,high,2,0,2,0,1,,,,,,,,,
294607,2022-11-29_17h56.39.873,vts_reward_expectancy_bt,2022.2.4,Win32,59.70505702,Chrome,1280,720,,,,,1,731,,,,,,,,,,,,,,,,,167,W,circle,1,1,,,,,,,,,,,,,,,,switch,number,numSwt,f,0.4674,Lo,,,,,,0,,,,,,,,high,3,0,3,0,1,,,,,,,,,
294607,2022-11-29_17h56.39.873,vts_reward_expectancy_bt,2022.2.4,Win32,59.70505702,Chrome,1280,720,,,,,1,732,,,,,,,,,,,,,,,,,146,B,hexagon,1,0,,,,,,,,,,,,,,,,repeat,number,numRpt,d,0.6492,Lo,,,,,,0,,,,,,,,high,4,0,4,0,1,,,,,,,,,
294607,2022-11-29_17h56.39.873,vts_reward_expectancy_bt,2022.2.4,Win32,59.70505702,Chrome,1280,720,,,,,10,742,,,,,,,,,,,,,,,,,181,D,triangle,1,0,,,,,,,,,,,,,,,,switch,letter,lettSwt,j,0.5999,Hi,,,,,,0,,,,,,,,high,5,0,5,0,1,,,,,,,,,
294607,2022-11-29_17h56.39.873,vts_reward_expectancy_bt,2022.2.4,Win32,59.70505702,Chrome,1280,720,,,,,10,752,,,,,,,,,,,,,,,,,132,Y,star,1,0,,,,,,,,,,,,,,,,repeat,letter,lettRpt,k,0.6096,Hi,,,,,,0,,,,,,,,high,6,0,6,0,1,,,,,,,,,
294607,2022-11-29_17h56.39.873,vts_reward_expectancy_bt,2022.2.4,Win32,59.70505702,Chrome,1280,720,,,,,1,753,,,,,,,,,,,,,,,,,160,H,circle,1,0,,,,,,,,,,,,,,,,switch,number,numSwt,f,0.5229,Lo,,,,,,0,,,,,,,,high,7,0,7,0,1,,,,,,,,,
294607,2022-11-29_17h56.39.873,vts_reward_expectancy_bt,2022.2.4,Win32,59.70505702,Chrome,1280,720,,,,,1,754,,,,,,,,,,,,,,,,,125,F,hexagon,1,0,,,,,,,,,,,,,,,,switch,letter,lettSwt,j,0.6073,Lo,,,,,,0,,,,,,,,high,8,0,8,0,1,,,,,,,,,
294607,2022-11-29_17h56.39.873,vts_reward_expectancy_bt,2022.2.4,Win32,59.70505702,Chrome,1280,720,,,,,1,755,,,,,,,,,,,,,,,,,174,U,circle,1,0,,,,,,,,,,,,,,,,repeat,letter,lettRpt,k,0.5832,Lo,,,,,,0,,,,,,,,high,9,0,9,0,1,,,,,,,,,
294607,2022-11-29_17h56.39.873,vts_reward_expectancy_bt,2022.2.4,Win32,59.70505702,Chrome,1280,720,,,,,10,765,,,,,,,,,,,,,,,,,139,S,triangle,1,0,,,,,,,,,,,,,,,,repeat,letter,lettRpt,k,0.668,Hi,,,,,,0,,,,,,,,high,10,0,10,0,1,,,,,,,,,
294607,2022-11-29_17h56.39.873,vts_reward_expectancy_bt,2022.2.4,Win32,59.70505702,Chrome,1280,720,,,,,1,766,,,,,,,,,,,,,,,,,167,W,star,1,0,,,,,,,,,,,,,,,,switch,number,numSwt,f,0.4842,Hi,,,,,,0,,,,,,,,high,11,0,11,0,1,,,,,,,,,
294607,2022-11-29_17h56.39.873,vts_reward_expectancy_bt,2022.2.4,Win32,59.70505702,Chrome,1280,720,,,,,10,776,,,,,,,,,,,,,,,,,146,B,triangle,1,0,,,,,,,,,,,,,,,,switch,letter,lettSwt,j,0.5339,Hi,,,,,,0,,,,,,,,high,12,0,12,0,1,,,,,,,,,
294607,2022-11-29_17h56.39.873,vts_reward_expectancy_bt,2022.2.4,Win32,59.70505702,Chrome,1280,720,,,,,10,786,,,,,,,,,,,,,,,,,181,D,hexagon,1,0,,,,,,,,,,,,,,,,switch,number,numSwt,f,0.5672,Lo,,,,,,0,,,,,,,,high,13,0,13,0,1,,,,,,,,,
294607,2022-11-29_17h56.39.873,vts_reward_expectancy_bt,2022.2.4,Win32,59.70505702,Chrome,1280,720,,,,,1,787,,,,,,,,,,,,,,,,,132,Y,star,1,0,,,,,,,,,,,,,,,,repeat,number,numRpt,d,0.5905,Hi,,,,,,0,,,,,,,,high,14,0,14,0,1,,,,,,,,,
294607,2022-11-29_17h56.39.873,vts_reward_expectancy_bt,2022.2.4,Win32,59.70505702,Chrome,1280,720,,,,,1,788,,,,,,,,,,,,,,,,,160,H,circle,1,0,,,,,,,,,,,,,,,,repeat,number,numRpt,f,0.5184,Lo,,,,,,0,,,,,,,,high,15,0,15,0,1,,,,,,,,,
294607,2022-11-29_17h56.39.873,vts_reward_expectancy_bt,2022.2.4,Win32,59.70505702,Chrome,1280,720,,,,,10,798,,,,,,,,,,,,,,,,,174,F,star,1,0,,,,,,,,,,,,,,,,switch,letter,lettSwt,j,0.7218,Hi,,,,,,0,,,,,,,,high,16,0,16,0,1,,,,,,,,,
294607,2022-11-29_17h56.39.873,vts_reward_expectancy_bt,2022.2.4,Win32,59.70505702,Chrome,1280,720,,,,,10,808,,,,,,,,,,,,,,,,,167,W,circle,1,0,,,,,,,,,,,,,,,,repeat,letter,lettRpt,k,0.5712,Lo,,,,,,0,,,,,,,,high,17,0,17,0,1,,,,,,,,,
294607,2022-11-29_17h56.39.873,vts_reward_expectancy_bt,2022.2.4,Win32,59.70505702,Chrome,1280,720,,,,,10,818,,,,,,,,,,,,,,,,,146,H,triangle,1,0,,,,,,,,,,,,,,,,repeat,letter,lettRpt,j,0.668,Hi,,,,,,0,,,,,,,,high,18,0,18,0,1,,,,,,,,,
294607,2022-11-29_17h56.39.873,vts_reward_expectancy_bt,2022.2.4,Win32,59.70505702,Chrome,1280,720,,,,,1,819,,,,,,,,,,,,,,,,,181,B,hexagon,1,0,,,,,,,,,,,,,,,,switch,number,numSwt,f,0.4348,Lo,,,,,,0,,,,,,,,high,19,0,19,0,1,,,,,,,,,
294607,2022-11-29_17h56.39.873,vts_reward_expectancy_bt,2022.2.4,Win32,59.70505702,Chrome,1280,720,,,,,1,820,,,,,,,,,,,,,,,,,132,S,hexagon,1,0,,,,,,,,,,,,,,,,switch,letter,lettSwt,k,0.5777,Lo,,,,,,0,,,,,,,,high,20,0,20,0,1,,,,,,,,,
294607,2022-11-29_17h56.39.873,vts_reward_expectancy_bt,2022.2.4,Win32,59.70505702,Chrome,1280,720,,,,,1,821,,,,,,,,,,,,,,,,,139,Y,circle,1,0,,,,,,,,,,,,,,,,repeat,letter,lettRpt,k,0.6727,Lo,,,,,,0,,,,,,,,high,21,0,21,0,1,,,,,,,,,
294607,2022-11-29_17h56.39.873,vts_reward_expectancy_bt,2022.2.4,Win32,59.70505702,Chrome,1280,720,,,,,1,822,,,,,,,,,,,,,,,,,125,U,star,1,0,,,,,,,,,,,,,,,,repeat,letter,lettRpt,k,0.5922,Hi,,,,,,0,,,,,,,,high,22,0,22,0,1,,,,,,,,,
294607,2022-11-29_17h56.39.873,vts_reward_expectancy_bt,2022.2.4,Win32,59.70505702,Chrome,1280,720,,,,,10,832,,,,,,,,,,,,,,,,,160,D,triangle,1,0,,,,,,,,,,,,,,,,repeat,letter,lettRpt,j,0.6468,Hi,,,,,,0,,,,,,,,high,23,0,23,0,1,,,,,,,,,
294607,2022-11-29_17h56.39.873,vts_reward_expectancy_bt,2022.2.4,Win32,59.70505702,Chrome,1280,720,,,,,1,833,,,,,,,,,,,,,,,,,132,B,circle,1,0,,,,,,,,,,,,,,,,switch,number,numSwt,d,0.601,Lo,,,,,,0,,,,,,,,high,24,0,24,0,1,,,,,,,,,
294607,2022-11-29_17h56.39.873,vts_reward_expectancy_bt,2022.2.4,Win32,59.70505702,Chrome,1280,720,,,,,1,834,,,,,,,,,,,,,,,,,167,D,hexagon,1,0,,,,,,,,,,,,,,,,repeat,number,numRpt,f,0.5703,Lo,,,,,,0,,,,,,,,high,25,0,25,0,1,,,,,,,,,
294607,2022-11-29_17h56.39.873,vts_reward_expectancy_bt,2022.2.4,Win32,59.70505702,Chrome,1280,720,,,,,10,844,,,,,,,,,,,,,,,,,146,W,star,1,0,,,,,,,,,,,,,,,,switch,letter,lettSwt,k,0.6168,Hi,,,,,,0,,,,,,,,high,26,0,26,0,1,,,,,,,,,
294607,2022-11-29_17h56.39.873,vts_reward_expectancy_bt,2022.2.4,Win32,59.70505702,Chrome,1280,720,,,,,10,854,,,,,,,,,,,,,,,,,139,S,triangle,1,0,,,,,,,,,,,,,,,,repeat,letter,lettRpt,k,0.7003,Hi,,,,,,0,,,,,,,,high,27,0,27,0,1,,,,,,,,,
294607,2022-11-29_17h56.39.873,vts_reward_expectancy_bt,2022.2.4,Win32,59.70505702,Chrome,1280,720,,,,,1,855,,,,,,,,,,,,,,,,,181,U,hexagon,1,0,,,,,,,,,,,,,,,,repeat,letter,lettRpt,k,0.6092,Lo,,,,,,0,,,,,,,,high,28,0,28,0,1,,,,,,,,,
294607,2022-11-29_17h56.39.873,vts_reward_expectancy_bt,2022.2.4,Win32,59.70505702,Chrome,1280,720,,,,,10,865,,,,,,,,,,,,,,,,,174,H,triangle,1,0,,,,,,,,,,,,,,,,repeat,letter,lettRpt,j,0.7911,Hi,,,,,,0,,,,,,,,high,29,0,29,0,1,,,,,,,,,
294607,2022-11-29_17h56.39.873,vts_reward_expectancy_bt,2022.2.4,Win32,59.70505702,Chrome,1280,720,,,,,1,866,,,,,,,,,,,,,,,,,160,F,circle,1,0,,,,,,,,,,,,,,,,switch,number,numSwt,f,0.5591,Lo,,,,,,0,,,,,,,,high,30,0,30,0,1,,,,,,,,,
294607,2022-11-29_17h56.39.873,vts_reward_expectancy_bt,2022.2.4,Win32,59.70505702,Chrome,1280,720,,,,,10,876,,,,,,,,,,,,,,,,,125,Y,star,1,0,,,,,,,,,,,,,,,,switch,letter,lettSwt,k,0.6166,Hi,,,,,,0,,,,,,,,high,31,0,31,0,1,,,,,,,,,
294607,2022-11-29_17h56.39.873,vts_reward_expectancy_bt,2022.2.4,Win32,59.70505702,Chrome,1280,720,,,,,10,886,,,,,,,,,,,,,,,,,181,W,star,1,0,,,,,,,,,,,,,,,,repeat,letter,lettRpt,k,0.5492,Hi,,,,,,1,,,,,,space,1.4173,high,0,0,0,0,1,,,,,,,,,
294607,2022-11-29_17h56.39.873,vts_reward_expectancy_bt,2022.2.4,Win32,59.70505702,Chrome,1280,720,,,,,10,896,,,,,,,,,,,,,,,,,132,B,hexagon,1,0,,,,,,,,,,,,,,,,repeat,letter,lettRpt,j,0.5504,Lo,,,,,,1,,,,,,,,high,1,0,1,0,1,,,,,,,,,
294607,2022-11-29_17h56.39.873,vts_reward_expectancy_bt,2022.2.4,Win32,59.70505702,Chrome,1280,720,,,,,10,906,,,,,,,,,,,,,,,,,139,Y,triangle,1,0,,,,,,,,,,,,,,,,repeat,letter,lettRpt,k,0.6064,Hi,,,,,,1,,,,,,,,high,2,0,2,0,1,,,,,,,,,
294607,2022-11-29_17h56.39.873,vts_reward_expectancy_bt,2022.2.4,Win32,59.70505702,Chrome,1280,720,,,,,1,907,,,,,,,,,,,,,,,,,125,S,circle,1,0,,,,,,,,,,,,,,,,repeat,letter,lettRpt,k,0.6246,Lo,,,,,,1,,,,,,,,high,3,0,3,0,1,,,,,,,,,
294607,2022-11-29_17h56.39.873,vts_reward_expectancy_bt,2022.2.4,Win32,59.70505702,Chrome,1280,720,,,,,0,907,,,,,,,,,,,,,,,,,167,F,star,1,0,,,,,,,,,,,,,,,,repeat,letter,lettRpt,j,0.6651,Hi,,,,,,1,,,,,,,,high,4,0,4,0,1,,,,,,,,,
294607,2022-11-29_17h56.39.873,vts_reward_expectancy_bt,2022.2.4,Win32,59.70505702,Chrome,1280,720,,,,,1,908,,,,,,,,,,,,,,,,,160,U,hexagon,1,0,,,,,,,,,,,,,,,,repeat,letter,lettRpt,k,0.5706,Lo,,,,,,1,,,,,,,,high,5,0,5,0,1,,,,,,,,,
294607,2022-11-29_17h56.39.873,vts_reward_expectancy_bt,2022.2.4,Win32,59.70505702,Chrome,1280,720,,,,,10,918,,,,,,,,,,,,,,,,,174,H,triangle,1,0,,,,,,,,,,,,,,,,repeat,letter,lettRpt,j,0.5204,Hi,,,,,,1,,,,,,,,high,6,0,6,0,1,,,,,,,,,
294607,2022-11-29_17h56.39.873,vts_reward_expectancy_bt,2022.2.4,Win32,59.70505702,Chrome,1280,720,,,,,1,919,,,,,,,,,,,,,,,,,146,D,circle,1,0,,,,,,,,,,,,,,,,switch,number,numSwt,d,0.5996,Lo,,,,,,1,,,,,,,,high,7,0,7,0,1,,,,,,,,,
294607,2022-11-29_17h56.39.873,vts_reward_expectancy_bt,2022.2.4,Win32,59.70505702,Chrome,1280,720,,,,,1,920,,,,,,,,,,,,,,,,,181,W,hexagon,1,0,,,,,,,,,,,,,,,,repeat,number,numRpt,f,0.6009,Lo,,,,,,1,,,,,,,,high,8,0,8,0,1,,,,,,,,,
294607,2022-11-29_17h56.39.873,vts_reward_expectancy_bt,2022.2.4,Win32,59.70505702,Chrome,1280,720,,,,,10,930,,,,,,,,,,,,,,,,,132,B,star,1,0,,,,,,,,,,,,,,,,switch,letter,lettSwt,j,0.5168,Hi,,,,,,1,,,,,,,,high,9,0,9,0,1,,,,,,,,,
294607,2022-11-29_17h56.39.873,vts_reward_expectancy_bt,2022.2.4,Win32,59.70505702,Chrome,1280,720,,,,,10,940,,,,,,,,,,,,,,,,,139,Y,triangle,1,0,,,,,,,,,,,,,,,,repeat,letter,lettRpt,k,0.6001,Hi,,,,,,1,,,,,,,,high,10,0,10,0,1,,,,,,,,,
294607,2022-11-29_17h56.39.873,vts_reward_expectancy_bt,2022.2.4,Win32,59.70505702,Chrome,1280,720,,,,,10,950,,,,,,,,,,,,,,,,,125,S,circle,1,0,,,,,,,,,,,,,,,,repeat,letter,lettRpt,k,0.6004,Lo,,,,,,1,,,,,,,,high,11,0,11,0,1,,,,,,,,,
294607,2022-11-29_17h56.39.873,vts_reward_expectancy_bt,2022.2.4,Win32,59.70505702,Chrome,1280,720,,,,,1,951,,,,,,,,,,,,,,,,,167,F,hexagon,1,0,,,,,,,,,,,,,,,,repeat,letter,lettRpt,j,0.9841,Lo,,,,,,1,,,,,,,,high,12,0,12,0,1,,,,,,,,,
294607,2022-11-29_17h56.39.873,vts_reward_expectancy_bt,2022.2.4,Win32,59.70505702,Chrome,1280,720,,,,,1,952,,,,,,,,,,,,,,,,,160,U,circle,1,0,,,,,,,,,,,,,,,,repeat,letter,lettRpt,k,0.7681,Lo,,,,,,1,,,,,,,,high,13,0,13,0,1,,,,,,,,,
294607,2022-11-29_17h56.39.873,vts_reward_expectancy_bt,2022.2.4,Win32,59.70505702,Chrome,1280,720,,,,,0,952,,,,,,,,,,,,,,,,,174,H,star,1,0,,,,,,,,,,,,,,,,switch,number,numSwt,f,0.834,Hi,,,,,,1,,,,,,,,high,14,0,14,0,1,,,,,,,,,
294607,2022-11-29_17h56.39.873,vts_reward_expectancy_bt,2022.2.4,Win32,59.70505702,Chrome,1280,720,,,,,0,952,,,,,,,,,,,,,,,,,146,D,triangle,1,0,,,,,,,,,,,,,,,,switch,letter,lettSwt,j,0.65,Hi,,,,,,1,,,,,,,,high,15,0,15,0,1,,,,,,,,,
294607,2022-11-29_17h56.39.873,vts_reward_expectancy_bt,2022.2.4,Win32,59.70505702,Chrome,1280,720,,,,,10,962,,,,,,,,,,,,,,,,,125,U,star,1,0,,,,,,,,,,,,,,,,repeat,letter,lettRpt,k,0.5739,Hi,,,,,,1,,,,,,,,high,16,0,16,0,1,,,,,,,,,
294607,2022-11-29_17h56.39.873,vts_reward_expectancy_bt,2022.2.4,Win32,59.70505702,Chrome,1280,720,,,,,1,963,,,,,,,,,,,,,,,,,132,B,circle,1,0,,,,,,,,,,,,,,,,switch,number,numSwt,d,0.5673,Lo,,,,,,1,,,,,,,,high,17,0,17,0,1,,,,,,,,,
294607,2022-11-29_17h56.39.873,vts_reward_expectancy_bt,2022.2.4,Win32,59.70505702,Chrome,1280,720,,,,,10,973,,,,,,,,,,,,,,,,,146,F,triangle,1,0,,,,,,,,,,,,,,,,switch,letter,lettSwt,j,0.4741,Hi,,,,,,1,,,,,,,,high,18,0,18,0,1,,,,,,,,,
294607,2022-11-29_17h56.39.873,vts_reward_expectancy_bt,2022.2.4,Win32,59.70505702,Chrome,1280,720,,,,,1,974,,,,,,,,,,,,,,,,,167,W,hexagon,1,0,,,,,,,,,,,,,,,,repeat,letter,lettRpt,k,0.6173,Lo,,,,,,1,,,,,,,,high,19,0,19,0,1,,,,,,,,,
294607,2022-11-29_17h56.39.873,vts_reward_expectancy_bt,2022.2.4,Win32,59.70505702,Chrome,1280,720,,,,,1,975,,,,,,,,,,,,,,,,,160,Y,star,1,0,,,,,,,,,,,,,,,,repeat,letter,lettRpt,k,0.5672,Hi,,,,,,1,,,,,,,,high,20,0,20,0,1,,,,,,,,,
294607,2022-11-29_17h56.39.873,vts_reward_expectancy_bt,2022.2.4,Win32,59.70505702,Chrome,1280,720,,,,,1,976,,,,,,,,,,,,,,,,,174,S,hexagon,1,0,,,,,,,,,,,,,,,,switch,number,numSwt,f,0.7098,Lo,,,,,,1,,,,,,,,high,21,0,21,0,1,,,,,,,,,
294607,2022-11-29_17h56.39.873,vts_reward_expectancy_bt,2022.2.4,Win32,59.70505702,Chrome,1280,720,,,,,10,986,,,,,,,,,,,,,,,,,139,H,circle,1,0,,,,,,,,,,,,,,,,switch,letter,lettSwt,j,0.7509,Lo,,,,,,1,,,,,,,,high,22,0,22,0,1,,,,,,,,,
294607,2022-11-29_17h56.39.873,vts_reward_expectancy_bt,2022.2.4,Win32,59.70505702,Chrome,1280,720,,,,,0,986,,,,,,,,,,,,,,,,,181,D,triangle,1,0,,,,,,,,,,,,,,,,repeat,letter,lettRpt,j,0.6675,Hi,,,,,,1,,,,,,,,high,23,0,23,0,1,,,,,,,,,
294607,2022-11-29_17h56.39.873,vts_reward_expectancy_bt,2022.2.4,Win32,59.70505702,Chrome,1280,720,,,,,0,986,,,,,,,,,,,,,,,,,139,W,star,1,0,,,,,,,,,,,,,,,,repeat,letter,lettRpt,k,0.6868,Hi,,,,,,1,,,,,,,,high,24,0,24,0,1,,,,,,,,,
294607,2022-11-29_17h56.39.873,vts_reward_expectancy_bt,2022.2.4,Win32,59.70505702,Chrome,1280,720,,,,,1,987,,,,,,,,,,,,,,,,,167,S,hexagon,1,0,,,,,,,,,,,,,,,,repeat,letter,lettRpt,k,0.5503,Lo,,,,,,1,,,,,,,,high,25,0,25,0,1,,,,,,,,,
294607,2022-11-29_17h56.39.873,vts_reward_expectancy_bt,2022.2.4,Win32,59.70505702,Chrome,1280,720,,,,,10,997,,,,,,,,,,,,,,,,,181,Y,triangle,1,0,,,,,,,,,,,,,,,,repeat,letter,lettRpt,k,0.5935,Hi,,,,,,1,,,,,,,,high,26,0,26,0,1,,,,,,,,,
294607,2022-11-29_17h56.39.873,vts_reward_expectancy_bt,2022.2.4,Win32,59.70505702,Chrome,1280,720,,,,,1,998,,,,,,,,,,,,,,,,,125,H,circle,1,0,,,,,,,,,,,,,,,,repeat,letter,lettRpt,j,0.5497,Lo,,,,,,1,,,,,,,,high,27,0,27,0,1,,,,,,,,,
294607,2022-11-29_17h56.39.873,vts_reward_expectancy_bt,2022.2.4,Win32,59.70505702,Chrome,1280,720,,,,,1,999,,,,,,,,,,,,,,,,,132,F,circle,1,0,,,,,,,,,,,,,,,,switch,number,numSwt,d,0.5356,Lo,,,,,,1,,,,,,,,high,28,0,28,0,1,,,,,,,,,
294607,2022-11-29_17h56.39.873,vts_reward_expectancy_bt,2022.2.4,Win32,59.70505702,Chrome,1280,720,,,,,10,1009,,,,,,,,,,,,,,,,,174,U,star,1,0,,,,,,,,,,,,,,,,switch,letter,lettSwt,k,0.5006,Hi,,,,,,1,,,,,,,,high,29,0,29,0,1,,,,,,,,,
294607,2022-11-29_17h56.39.873,vts_reward_expectancy_bt,2022.2.4,Win32,59.70505702,Chrome,1280,720,,,,,1,1010,,,,,,,,,,,,,,,,,160,B,hexagon,1,0,,,,,,,,,,,,,,,,repeat,letter,lettRpt,j,0.4993,Lo,,,,,,1,,,,,,,,high,30,0,30,0,1,,,,,,,,,
294607,2022-11-29_17h56.39.873,vts_reward_expectancy_bt,2022.2.4,Win32,59.70505702,Chrome,1280,720,,,,,1,1011,,,,,,,,,,,,,,,,,146,D,triangle,1,0,,,,,,,,,,,,,,,,repeat,letter,lettRpt,j,0.4829,Hi,,,,,,1,,,,,,,,high,31,0,31,0,1,,,,,,,,,
294607,2022-11-29_17h56.39.873,vts_reward_expectancy_bt,2022.2.4,Win32,59.70505702,Chrome,1280,720,,,,,10,1021,,,,,,,,,,,,,,,,,146,W,circle,1,0,,,,,,,,,,,,,,,,repeat,letter,lettRpt,k,0.617,Lo,,,,,,2,,,,,,space,5.7397,high,0,0,0,0,1,,,,,,,,,
294607,2022-11-29_17h56.39.873,vts_reward_expectancy_bt,2022.2.4,Win32,59.70505702,Chrome,1280,720,,,,,10,1031,,,,,,,,,,,,,,,,,181,D,hexagon,1,0,,,,,,,,,,,,,,,,repeat,letter,lettRpt,j,0.4517,Lo,,,,,,2,,,,,,,,high,1,0,1,0,1,,,,,,,,,
294607,2022-11-29_17h56.39.873,vts_reward_expectancy_bt,2022.2.4,Win32,59.70505702,Chrome,1280,720,,,,,0,1031,,,,,,,,,,,,,,,,,132,F,star,1,0,,,,,,,,,,,,,,,,repeat,letter,lettRpt,j,0.7,Hi,,,,,,2,,,,,,,,high,2,0,2,0,1,,,,,,,,,
294607,2022-11-29_17h56.39.873,vts_reward_expectancy_bt,2022.2.4,Win32,59.70505702,Chrome,1280,720,,,,,10,1041,,,,,,,,,,,,,,,,,139,B,triangle,1,0,,,,,,,,,,,,,,,,repeat,letter,lettRpt,j,0.5414,Hi,,,,,,2,,,,,,,,high,3,0,3,0,1,,,,,,,,,
294607,2022-11-29_17h56.39.873,vts_reward_expectancy_bt,2022.2.4,Win32,59.70505702,Chrome,1280,720,,,,,1,1042,,,,,,,,,,,,,,,,,167,U,circle,1,0,,,,,,,,,,,,,,,,repeat,letter,lettRpt,k,0.6688,Lo,,,,,,2,,,,,,,,high,4,0,4,0,1,,,,,,,,,
294607,2022-11-29_17h56.39.873,vts_reward_expectancy_bt,2022.2.4,Win32,59.70505702,Chrome,1280,720,,,,,10,1052,,,,,,,,,,,,,,,,,125,H,hexagon,1,0,,,,,,,,,,,,,,,,repeat,letter,lettRpt,j,0.5672,Lo,,,,,,2,,,,,,,,high,5,0,5,0,1,,,,,,,,,
294607,2022-11-29_17h56.39.873,vts_reward_expectancy_bt,2022.2.4,Win32,59.70505702,Chrome,1280,720,,,,,10,1062,,,,,,,,,,,,,,,,,160,S,star,1,0,,,,,,,,,,,,,,,,repeat,letter,lettRpt,k,0.522,Hi,,,,,,2,,,,,,,,high,6,0,6,0,1,,,,,,,,,
294607,2022-11-29_17h56.39.873,vts_reward_expectancy_bt,2022.2.4,Win32,59.70505702,Chrome,1280,720,,,,,1,1063,,,,,,,,,,,,,,,,,174,Y,triangle,1,0,,,,,,,,,,,,,,,,repeat,letter,lettRpt,k,0.4672,Hi,,,,,,2,,,,,,,,high,7,0,7,0,1,,,,,,,,,
294607,2022-11-29_17h56.39.873,vts_reward_expectancy_bt,2022.2.4,Win32,59.70505702,Chrome,1280,720,,,,,10,1073,,,,,,,,,,,,,,,,,146,W,star,1,0,,,,,,,,,,,,,,,,repeat,letter,lettRpt,k,0.4665,Hi,,,,,,2,,,,,,,,high,8,0,8,0,1,,,,,,,,,
294607,2022-11-29_17h56.39.873,vts_reward_expectancy_bt,2022.2.4,Win32,59.70505702,Chrome,1280,720,,,,,10,1083,,,,,,,,,,,,,,,,,181,D,triangle,1,0,,,,,,,,,,,,,,,,repeat,letter,lettRpt,j,0.5008,Hi,,,,,,2,,,,,,,,high,9,0,9,0,1,,,,,,,,,
294607,2022-11-29_17h56.39.873,vts_reward_expectancy_bt,2022.2.4,Win32,59.70505702,Chrome,1280,720,,,,,0,1083,,,,,,,,,,,,,,,,,132,F,hexagon,0,0,,,,,,,,,,,,,,,,repeat,letter,NA,k,0.4003,Hi,,,,,,2,,,,,,,,high,10,0,10,0,1,,,,,,,,,
294607,2022-11-29_17h56.39.873,vts_reward_expectancy_bt,2022.2.4,Win32,59.70505702,Chrome,1280,720,,,,,1,1084,,,,,,,,,,,,,,,,,139,B,circle,1,1,,,,,,,,,,,,,,,,repeat,letter,lettRpt,j,0.4508,Lo,,,,,,2,,,,,,,,high,11,0,11,0,1,,,,,,,,,
294607,2022-11-29_17h56.39.873,vts_reward_expectancy_bt,2022.2.4,Win32,59.70505702,Chrome,1280,720,,,,,10,1094,,,,,,,,,,,,,,,,,167,U,hexagon,1,0,,,,,,,,,,,,,,,,switch,number,numSwt,f,0.4702,Lo,,,,,,2,,,,,,,,high,12,0,12,0,1,,,,,,,,,
294607,2022-11-29_17h56.39.873,vts_reward_expectancy_bt,2022.2.4,Win32,59.70505702,Chrome,1280,720,,,,,0,1094,,,,,,,,,,,,,,,,,125,H,star,1,0,,,,,,,,,,,,,,,,switch,letter,lettSwt,j,0.5378,Hi,,,,,,2,,,,,,,,high,13,0,13,0,1,,,,,,,,,
294607,2022-11-29_17h56.39.873,vts_reward_expectancy_bt,2022.2.4,Win32,59.70505702,Chrome,1280,720,,,,,1,1095,,,,,,,,,,,,,,,,,160,S,circle,1,0,,,,,,,,,,,,,,,,repeat,letter,lettRpt,k,0.5872,Lo,,,,,,2,,,,,,,,high,14,0,14,0,1,,,,,,,,,
294607,2022-11-29_17h56.39.873,vts_reward_expectancy_bt,2022.2.4,Win32,59.70505702,Chrome,1280,720,,,,,0,1095,,,,,,,,,,,,,,,,,174,Y,triangle,1,0,,,,,,,,,,,,,,,,repeat,letter,lettRpt,k,0.6998,Hi,,,,,,2,,,,,,,,high,15,0,15,0,1,,,,,,,,,
294607,2022-11-29_17h56.39.873,vts_reward_expectancy_bt,2022.2.4,Win32,59.70505702,Chrome,1280,720,,,,,10,1105,,,,,,,,,,,,,,,,,139,Y,hexagon,1,0,,,,,,,,,,,,,,,,switch,number,numSwt,d,0.4933,Lo,,,,,,2,,,,,,,,high,16,0,16,0,1,,,,,,,,,
294607,2022-11-29_17h56.39.873,vts_reward_expectancy_bt,2022.2.4,Win32,59.70505702,Chrome,1280,720,,,,,10,1115,,,,,,,,,,,,,,,,,125,W,star,1,0,,,,,,,,,,,,,,,,switch,letter,lettSwt,k,0.4267,Hi,,,,,,2,,,,,,,,high,17,0,17,0,1,,,,,,,,,
294607,2022-11-29_17h56.39.873,vts_reward_expectancy_bt,2022.2.4,Win32,59.70505702,Chrome,1280,720,,,,,10,1125,,,,,,,,,,,,,,,,,160,F,triangle,1,0,,,,,,,,,,,,,,,,repeat,letter,lettRpt,j,0.468,Hi,,,,,,2,,,,,,,,high,18,0,18,0,1,,,,,,,,,
294607,2022-11-29_17h56.39.873,vts_reward_expectancy_bt,2022.2.4,Win32,59.70505702,Chrome,1280,720,,,,,1,1126,,,,,,,,,,,,,,,,,174,D,circle,1,0,,,,,,,,,,,,,,,,switch,number,numSwt,f,0.5231,Lo,,,,,,2,,,,,,,,high,19,0,19,0,1,,,,,,,,,
294607,2022-11-29_17h56.39.873,vts_reward_expectancy_bt,2022.2.4,Win32,59.70505702,Chrome,1280,720,,,,,0,1126,,,,,,,,,,,,,,,,,132,H,triangle,1,0,,,,,,,,,,,,,,,,switch,letter,lettSwt,j,0.5712,Hi,,,,,,2,,,,,,,,high,20,0,20,0,1,,,,,,,,,
294607,2022-11-29_17h56.39.873,vts_reward_expectancy_bt,2022.2.4,Win32,59.70505702,Chrome,1280,720,,,,,1,1127,,,,,,,,,,,,,,,,,146,U,star,1,0,,,,,,,,,,,,,,,,repeat,letter,lettRpt,k,0.4542,Hi,,,,,,2,,,,,,,,high,21,0,21,0,1,,,,,,,,,
294607,2022-11-29_17h56.39.873,vts_reward_expectancy_bt,2022.2.4,Win32,59.70505702,Chrome,1280,720,,,,,10,1137,,,,,,,,,,,,,,,,,167,B,hexagon,1,0,,,,,,,,,,,,,,,,switch,number,numSwt,f,0.4499,Lo,,,,,,2,,,,,,,,high,22,0,22,0,1,,,,,,,,,
294607,2022-11-29_17h56.39.873,vts_reward_expectancy_bt,2022.2.4,Win32,59.70505702,Chrome,1280,720,,,,,10,1147,,,,,,,,,,,,,,,,,181,S,circle,1,0,,,,,,,,,,,,,,,,repeat,number,numRpt,f,0.4413,Lo,,,,,,2,,,,,,,,high,23,0,23,0,1,,,,,,,,,
294607,2022-11-29_17h56.39.873,vts_reward_expectancy_bt,2022.2.4,Win32,59.70505702,Chrome,1280,720,,,,,1,1148,,,,,,,,,,,,,,,,,167,D,circle,1,0,,,,,,,,,,,,,,,,repeat,number,numRpt,f,0.4835,Lo,,,,,,2,,,,,,,,high,24,0,24,0,1,,,,,,,,,
294607,2022-11-29_17h56.39.873,vts_reward_expectancy_bt,2022.2.4,Win32,59.70505702,Chrome,1280,720,,,,,0,1148,,,,,,,,,,,,,,,,,160,U,star,1,0,,,,,,,,,,,,,,,,switch,letter,lettSwt,k,0.5534,Hi,,,,,,2,,,,,,,,high,25,0,25,0,1,,,,,,,,,
294607,2022-11-29_17h56.39.873,vts_reward_expectancy_bt,2022.2.4,Win32,59.70505702,Chrome,1280,720,,,,,0,1148,,,,,,,,,,,,,,,,,125,F,triangle,1,0,,,,,,,,,,,,,,,,repeat,letter,lettRpt,j,0.7172,Hi,,,,,,2,,,,,,,,high,26,0,26,0,1,,,,,,,,,
294607,2022-11-29_17h56.39.873,vts_reward_expectancy_bt,2022.2.4,Win32,59.70505702,Chrome,1280,720,,,,,10,1158,,,,,,,,,,,,,,,,,174,H,hexagon,1,0,,,,,,,,,,,,,,,,switch,number,numSwt,f,0.5839,Lo,,,,,,2,,,,,,,,high,27,0,27,0,1,,,,,,,,,
294607,2022-11-29_17h56.39.873,vts_reward_expectancy_bt,2022.2.4,Win32,59.70505702,Chrome,1280,720,,,,,0,1158,,,,,,,,,,,,,,,,,139,W,star,1,0,,,,,,,,,,,,,,,,switch,letter,lettSwt,k,0.5509,Hi,,,,,,2,,,,,,,,high,28,0,28,0,1,,,,,,,,,
294607,2022-11-29_17h56.39.873,vts_reward_expectancy_bt,2022.2.4,Win32,59.70505702,Chrome,1280,720,,,,,10,1168,,,,,,,,,,,,,,,,,146,B,triangle,1,0,,,,,,,,,,,,,,,,repeat,letter,lettRpt,j,0.4397,Hi,,,,,,2,,,,,,,,high,29,0,29,0,1,,,,,,,,,
294607,2022-11-29_17h56.39.873,vts_reward_expectancy_bt,2022.2.4,Win32,59.70505702,Chrome,1280,720,,,,,1,1169,,,,,,,,,,,,,,,,,132,Y,hexagon,1,0,,,,,,,,,,,,,,,,switch,number,numSwt,d,0.4494,Lo,,,,,,2,,,,,,,,high,30,0,30,0,1,,,,,,,,,
294607,2022-11-29_17h56.39.873,vts_reward_expectancy_bt,2022.2.4,Win32,59.70505702,Chrome,1280,720,,,,,1,1170,,,,,,,,,,,,,,,,,181,S,circle,1,0,,,,,,,,,,,,,,,,switch,letter,lettSwt,k,0.5576,Lo,,,,,,2,,,,,,,,high,31,0,31,0,1,,,,,,,,,
294607,2022-11-29_17h56.39.873,vts_reward_expectancy_bt,2022.2.4,Win32,59.70505702,Chrome,1280,720,,,,,1,1171,,,,,,,,,,,,,,,,,160,S,circle,1,0,,,,,,,,,,,,,,,,repeat,letter,lettRpt,k,0.5774,Lo,,,,,,3,,,,,,space,6.4182,high,0,0,0,0,1,,,,,,,,,
294607,2022-11-29_17h56.39.873,vts_reward_expectancy_bt,2022.2.4,Win32,59.70505702,Chrome,1280,720,,,,,0,1171,,,,,,,,,,,,,,,,,167,U,star,1,0,,,,,,,,,,,,,,,,repeat,letter,lettRpt,k,0.4931,Hi,,,,,,3,,,,,,,,high,1,0,1,0,1,,,,,,,,,
294607,2022-11-29_17h56.39.873,vts_reward_expectancy_bt,2022.2.4,Win32,59.70505702,Chrome,1280,720,,,,,0,1171,,,,,,,,,,,,,,,,,181,F,triangle,1,0,,,,,,,,,,,,,,,,repeat,letter,lettRpt,j,0.5871,Hi,,,,,,3,,,,,,,,high,2,0,2,0,1,,,,,,,,,
294607,2022-11-29_17h56.39.873,vts_reward_expectancy_bt,2022.2.4,Win32,59.70505702,Chrome,1280,720,,,,,10,1181,,,,,,,,,,,,,,,,,125,W,hexagon,1,0,,,,,,,,,,,,,,,,repeat,letter,lettRpt,k,0.3827,Lo,,,,,,3,,,,,,,,high,3,0,3,0,1,,,,,,,,,
294607,2022-11-29_17h56.39.873,vts_reward_expectancy_bt,2022.2.4,Win32,59.70505702,Chrome,1280,720,,,,,1,1182,,,,,,,,,,,,,,,,,139,B,circle,1,0,,,,,,,,,,,,,,,,repeat,letter,lettRpt,j,0.4544,Lo,,,,,,3,,,,,,,,high,4,0,4,0,1,,,,,,,,,
294607,2022-11-29_17h56.39.873,vts_reward_expectancy_bt,2022.2.4,Win32,59.70505702,Chrome,1280,720,,,,,0,1182,,,,,,,,,,,,,,,,,174,D,star,1,0,,,,,,,,,,,,,,,,repeat,letter,lettRpt,j,0.5676,Hi,,,,,,3,,,,,,,,high,5,0,5,0,1,,,,,,,,,
294607,2022-11-29_17h56.39.873,vts_reward_expectancy_bt,2022.2.4,Win32,59.70505702,Chrome,1280,720,,,,,1,1183,,,,,,,,,,,,,,,,,146,H,triangle,1,0,,,,,,,,,,,,,,,,repeat,letter,lettRpt,j,0.3723,Hi,,,,,,3,,,,,,,,high,6,0,6,0,1,,,,,,,,,
294607,2022-11-29_17h56.39.873,vts_reward_expectancy_bt,2022.2.4,Win32,59.70505702,Chrome,1280,720,,,,,1,1184,,,,,,,,,,,,,,,,,132,Y,hexagon,1,0,,,,,,,,,,,,,,,,switch,number,numSwt,d,0.5159,Lo,,,,,,3,,,,,,,,high,7,0,7,0,1,,,,,,,,,
294607,2022-11-29_17h56.39.873,vts_reward_expectancy_bt,2022.2.4,Win32,59.70505702,Chrome,1280,720,,,,,0,1184,,,,,,,,,,,,,,,,,160,S,triangle,1,0,,,,,,,,,,,,,,,,switch,letter,lettSwt,k,0.5506,Hi,,,,,,3,,,,,,,,high,8,0,8,0,1,,,,,,,,,
294607,2022-11-29_17h56.39.873,vts_reward_expectancy_bt,2022.2.4,Win32,59.70505702,Chrome,1280,720,,,,,1,1185,,,,,,,,,,,,,,,,,167,U,hexagon,1,0,,,,,,,,,,,,,,,,switch,number,numSwt,f,0.4999,Lo,,,,,,3,,,,,,,,high,9,0,9,0,1,,,,,,,,,
294607,2022-11-29_17h56.39.873,vts_reward_expectancy_bt,2022.2.4,Win32,59.70505702,Chrome,1280,720,,,,,10,1195,,,,,,,,,,,,,,,,,181,F,circle,1,0,,,,,,,,,,,,,,,,switch,letter,lettSwt,j,0.5331,Lo,,,,,,3,,,,,,,,high,10,0,10,0,1,,,,,,,,,
294607,2022-11-29_17h56.39.873,vts_reward_expectancy_bt,2022.2.4,Win32,59.70505702,Chrome,1280,720,,,,,0,1195,,,,,,,,,,,,,,,,,125,W,star,1,0,,,,,,,,,,,,,,,,repeat,letter,lettRpt,k,0.5508,Hi,,,,,,3,,,,,,,,high,11,0,11,0,1,,,,,,,,,
294607,2022-11-29_17h56.39.873,vts_reward_expectancy_bt,2022.2.4,Win32,59.70505702,Chrome,1280,720,,,,,0,1195,,,,,,,,,,,,,,,,,139,B,star,1,0,,,,,,,,,,,,,,,,repeat,letter,lettRpt,j,0.5323,Hi,,,,,,3,,,,,,,,high,12,0,12,0,1,,,,,,,,,
294607,2022-11-29_17h56.39.873,vts_reward_expectancy_bt,2022.2.4,Win32,59.70505702,Chrome,1280,720,,,,,1,1196,,,,,,,,,,,,,,,,,174,D,triangle,1,0,,,,,,,,,,,,,,,,repeat,letter,lettRpt,j,0.4529,Hi,,,,,,3,,,,,,,,high,13,0,13,0,1,,,,,,,,,
294607,2022-11-29_17h56.39.873,vts_reward_expectancy_bt,2022.2.4,Win32,59.70505702,Chrome,1280,720,,,,,0,1196,,,,,,,,,,,,,,,,,146,H,hexagon,0,0,,,,,,,,,,,,,,,,repeat,letter,NA,k,0.3676,Hi,,,,,,3,,,,,,,,high,14,0,14,0,1,,,,,,,,,
294607,2022-11-29_17h56.39.873,vts_reward_expectancy_bt,2022.2.4,Win32,59.70505702,Chrome,1280,720,,,,,1,1197,,,,,,,,,,,,,,,,,132,Y,circle,1,1,,,,,,,,,,,,,,,,repeat,letter,lettRpt,k,0.4338,Lo,,,,,,3,,,,,,,,high,15,0,15,0,1,,,,,,,,,
294607,2022-11-29_17h56.39.873,vts_reward_expectancy_bt,2022.2.4,Win32,59.70505702,Chrome,1280,720,,,,,1,1198,,,,,,,,,,,,,,,,,167,Y,circle,1,0,,,,,,,,,,,,,,,,repeat,letter,lettRpt,k,0.4743,Lo,,,,,,3,,,,,,,,high,16,0,16,0,1,,,,,,,,,
294607,2022-11-29_17h56.39.873,vts_reward_expectancy_bt,2022.2.4,Win32,59.70505702,Chrome,1280,720,,,,,0,1198,,,,,,,,,,,,,,,,,146,S,star,1,0,,,,,,,,,,,,,,,,repeat,letter,lettRpt,k,0.5525,Hi,,,,,,3,,,,,,,,high,17,0,17,0,1,,,,,,,,,
294607,2022-11-29_17h56.39.873,vts_reward_expectancy_bt,2022.2.4,Win32,59.70505702,Chrome,1280,720,,,,,1,1199,,,,,,,,,,,,,,,,,174,F,hexagon,1,0,,,,,,,,,,,,,,,,repeat,letter,lettRpt,j,0.4667,Lo,,,,,,3,,,,,,,,high,18,0,18,0,1,,,,,,,,,
294607,2022-11-29_17h56.39.873,vts_reward_expectancy_bt,2022.2.4,Win32,59.70505702,Chrome,1280,720,,,,,10,1209,,,,,,,,,,,,,,,,,125,D,triangle,1,0,,,,,,,,,,,,,,,,repeat,letter,lettRpt,j,0.4348,Hi,,,,,,3,,,,,,,,high,19,0,19,0,1,,,,,,,,,
294607,2022-11-29_17h56.39.873,vts_reward_expectancy_bt,2022.2.4,Win32,59.70505702,Chrome,1280,720,,,,,1,1210,,,,,,,,,,,,,,,,,160,W,hexagon,1,0,,,,,,,,,,,,,,,,repeat,letter,lettRpt,k,0.6071,Lo,,,,,,3,,,,,,,,high,20,0,20,0,1,,,,,,,,,
294607,2022-11-29_17h56.39.873,vts_reward_expectancy_bt,2022.2.4,Win32,59.70505702,Chrome,1280,720,,,,,1,1211,,,,,,,,,,,,,,,,,139,H,circle,1,0,,,,,,,,,,,,,,,,switch,number,numSwt,d,0.6644,Lo,,,,,,3,,,,,,,,high,21,0,21,0,1,,,,,,,,,
294607,2022-11-29_17h56.39.873,vts_reward_expectancy_bt,2022.2.4,Win32,59.70505702,Chrome,1280,720,,,,,10,1221,,,,,,,,,,,,,,,,,181,U,star,1,0,,,,,,,,,,,,,,,,switch,letter,lettSwt,k,0.4839,Hi,,,,,,3,,,,,,,,high,22,0,22,0,1,,,,,,,,,
294607,2022-11-29_17h56.39.873,vts_reward_expectancy_bt,2022.2.4,Win32,59.70505702,Chrome,1280,720,,,,,0,1221,,,,,,,,,,,,,,,,,132,B,triangle,1,0,,,,,,,,,,,,,,,,repeat,letter,lettRpt,j,0.5005,Hi,,,,,,3,,,,,,,,high,23,0,23,0,1,,,,,,,,,
294607,2022-11-29_17h56.39.873,vts_reward_expectancy_bt,2022.2.4,Win32,59.70505702,Chrome,1280,720,,,,,0,1221,,,,,,,,,,,,,,,,,167,H,star,1,0,,,,,,,,,,,,,,,,repeat,letter,lettRpt,j,0.609,Hi,,,,,,3,,,,,,,,high,24,0,24,0,1,,,,,,,,,
294607,2022-11-29_17h56.39.873,vts_reward_expectancy_bt,2022.2.4,Win32,59.70505702,Chrome,1280,720,,,,,10,1231,,,,,,,,,,,,,,,,,174,F,hexagon,1,0,,,,,,,,,,,,,,,,switch,number,numSwt,f,0.4998,Lo,,,,,,3,,,,,,,,high,25,0,25,0,1,,,,,,,,,
294607,2022-11-29_17h56.39.873,vts_reward_expectancy_bt,2022.2.4,Win32,59.70505702,Chrome,1280,720,,,,,1,1232,,,,,,,,,,,,,,,,,181,U,triangle,1,0,,,,,,,,,,,,,,,,switch,letter,lettSwt,k,0.5206,Hi,,,,,,3,,,,,,,,high,26,0,26,0,1,,,,,,,,,
294607,2022-11-29_17h56.39.873,vts_reward_expectancy_bt,2022.2.4,Win32,59.70505702,Chrome,1280,720,,,,,10,1242,,,,,,,,,,,,,,,,,132,Y,circle,1,0,,,,,,,,,,,,,,,,switch,number,numSwt,d,0.5691,Lo,,,,,,3,,,,,,,,high,27,0,27,0,1,,,,,,,,,
294607,2022-11-29_17h56.39.873,vts_reward_expectancy_bt,2022.2.4,Win32,59.70505702,Chrome,1280,720,,,,,10,1252,,,,,,,,,,,,,,,,,146,B,circle,1,0,,,,,,,,,,,,,,,,repeat,number,numRpt,d,0.5995,Lo,,,,,,3,,,,,,,,high,28,0,28,0,1,,,,,,,,,
294607,2022-11-29_17h56.39.873,vts_reward_expectancy_bt,2022.2.4,Win32,59.70505702,Chrome,1280,720,,,,,1,1253,,,,,,,,,,,,,,,,,160,D,hexagon,1,0,,,,,,,,,,,,,,,,repeat,number,numRpt,f,0.3445,Lo,,,,,,3,,,,,,,,high,29,0,29,0,1,,,,,,,,,
294607,2022-11-29_17h56.39.873,vts_reward_expectancy_bt,2022.2.4,Win32,59.70505702,Chrome,1280,720,,,,,0,1253,,,,,,,,,,,,,,,,,125,W,triangle,1,0,,,,,,,,,,,,,,,,switch,letter,lettSwt,k,0.5517,Hi,,,,,,3,,,,,,,,high,30,0,30,0,1,,,,,,,,,
294607,2022-11-29_17h56.39.873,vts_reward_expectancy_bt,2022.2.4,Win32,59.70505702,Chrome,1280,720,,,,,1,1254,,,,,,,,,,,,,,,,,139,S,star,1,0,,,,,,,,,,,,,,,,repeat,letter,lettRpt,k,0.4004,Hi,,,,,,3,,,,,,,,high,31,0,31,0,1,,,,,,,,,
294607,2022-11-29_17h56.39.873,vts_reward_expectancy_bt,2022.2.4,Win32,59.70505702,Chrome,1280,720,,,,,0,1254,,,,,,,,,,,,,,,,,181,U,triangle,1,0,,,,,,,,,,,,,,,,repeat,letter,lettRpt,k,0.4841,Hi,,,,,,4,,,,,,space,2.2897,high,0,0,0,0,1,,,,,,,,,
294607,2022-11-29_17h56.39.873,vts_reward_expectancy_bt,2022.2.4,Win32,59.70505702,Chrome,1280,720,,,,,1,1255,,,,,,,,,,,,,,,,,160,F,circle,1,0,,,,,,,,,,,,,,,,switch,number,numSwt,f,0.4101,Lo,,,,,,4,,,,,,,,high,1,0,1,0,1,,,,,,,,,
294607,2022-11-29_17h56.39.873,vts_reward_expectancy_bt,2022.2.4,Win32,59.70505702,Chrome,1280,720,,,,,1,1256,,,,,,,,,,,,,,,,,174,B,hexagon,1,0,,,,,,,,,,,,,,,,repeat,number,numRpt,f,0.4376,Lo,,,,,,4,,,,,,,,high,2,0,2,0,1,,,,,,,,,
294607,2022-11-29_17h56.39.873,vts_reward_expectancy_bt,2022.2.4,Win32,59.70505702,Chrome,1280,720,,,,,10,1266,,,,,,,,,,,,,,,,,167,Y,star,1,0,,,,,,,,,,,,,,,,switch,letter,lettSwt,k,0.4851,Hi,,,,,,4,,,,,,,,high,3,0,3,0,1,,,,,,,,,
294607,2022-11-29_17h56.39.873,vts_reward_expectancy_bt,2022.2.4,Win32,59.70505702,Chrome,1280,720,,,,,0,1266,,,,,,,,,,,,,,,,,132,W,triangle,1,0,,,,,,,,,,,,,,,,repeat,letter,lettRpt,k,0.5548,Hi,,,,,,4,,,,,,,,high,4,0,4,0,1,,,,,,,,,
294607,2022-11-29_17h56.39.873,vts_reward_expectancy_bt,2022.2.4,Win32,59.70505702,Chrome,1280,720,,,,,1,1267,,,,,,,,,,,,,,,,,139,S,circle,1,0,,,,,,,,,,,,,,,,switch,number,numSwt,d,0.3924,Lo,,,,,,4,,,,,,,,high,5,0,5,0,1,,,,,,,,,
294607,2022-11-29_17h56.39.873,vts_reward_expectancy_bt,2022.2.4,Win32,59.70505702,Chrome,1280,720,,,,,1,1268,,,,,,,,,,,,,,,,,125,H,hexagon,1,0,,,,,,,,,,,,,,,,repeat,number,numRpt,d,0.4173,Lo,,,,,,4,,,,,,,,high,6,0,6,0,1,,,,,,,,,
294607,2022-11-29_17h56.39.873,vts_reward_expectancy_bt,2022.2.4,Win32,59.70505702,Chrome,1280,720,,,,,10,1278,,,,,,,,,,,,,,,,,146,D,star,1,0,,,,,,,,,,,,,,,,switch,letter,lettSwt,j,0.4923,Hi,,,,,,4,,,,,,,,high,7,0,7,0,1,,,,,,,,,
294607,2022-11-29_17h56.39.873,vts_reward_expectancy_bt,2022.2.4,Win32,59.70505702,Chrome,1280,720,,,,,1,1279,,,,,,,,,,,,,,,,,181,U,circle,1,0,,,,,,,,,,,,,,,,switch,number,numSwt,f,0.5082,Lo,,,,,,4,,,,,,,,high,8,0,8,0,1,,,,,,,,,
294607,2022-11-29_17h56.39.873,vts_reward_expectancy_bt,2022.2.4,Win32,59.70505702,Chrome,1280,720,,,,,1,1280,,,,,,,,,,,,,,,,,160,F,hexagon,1,0,,,,,,,,,,,,,,,,repeat,number,numRpt,f,0.4222,Lo,,,,,,4,,,,,,,,high,9,0,9,0,1,,,,,,,,,
294607,2022-11-29_17h56.39.873,vts_reward_expectancy_bt,2022.2.4,Win32,59.70505702,Chrome,1280,720,,,,,10,1290,,,,,,,,,,,,,,,,,174,B,star,1,0,,,,,,,,,,,,,,,,switch,letter,lettSwt,j,0.4674,Hi,,,,,,4,,,,,,,,high,10,0,10,0,1,,,,,,,,,
294607,2022-11-29_17h56.39.873,vts_reward_expectancy_bt,2022.2.4,Win32,59.70505702,Chrome,1280,720,,,,,10,1300,,,,,,,,,,,,,,,,,167,Y,triangle,1,0,,,,,,,,,,,,,,,,repeat,letter,lettRpt,k,0.4332,Hi,,,,,,4,,,,,,,,high,11,0,11,0,1,,,,,,,,,
294607,2022-11-29_17h56.39.873,vts_reward_expectancy_bt,2022.2.4,Win32,59.70505702,Chrome,1280,720,,,,,1,1301,,,,,,,,,,,,,,,,,132,W,triangle,1,0,,,,,,,,,,,,,,,,repeat,letter,lettRpt,k,0.3367,Hi,,,,,,4,,,,,,,,high,12,0,12,0,1,,,,,,,,,
294607,2022-11-29_17h56.39.873,vts_reward_expectancy_bt,2022.2.4,Win32,59.70505702,Chrome,1280,720,,,,,10,1311,,,,,,,,,,,,,,,,,139,S,hexagon,1,0,,,,,,,,,,,,,,,,switch,number,numSwt,d,0.5361,Lo,,,,,,4,,,,,,,,high,13,0,13,0,1,,,,,,,,,
294607,2022-11-29_17h56.39.873,vts_reward_expectancy_bt,2022.2.4,Win32,59.70505702,Chrome,1280,720,,,,,1,1312,,,,,,,,,,,,,,,,,125,H,circle,1,0,,,,,,,,,,,,,,,,repeat,number,numRpt,d,0.5038,Lo,,,,,,4,,,,,,,,high,14,0,14,0,1,,,,,,,,,
294607,2022-11-29_17h56.39.873,vts_reward_expectancy_bt,2022.2.4,Win32,59.70505702,Chrome,1280,720,,,,,10,1322,,,,,,,,,,,,,,,,,146,D,star,1,0,,,,,,,,,,,,,,,,switch,letter,lettSwt,j,0.4741,Hi,,,,,,4,,,,,,,,high,15,0,15,0,1,,,,,,,,,
294607,2022-11-29_17h56.39.873,vts_reward_expectancy_bt,2022.2.4,Win32,59.70505702,Chrome,1280,720,,,,,0,1322,,,,,,,,,,,,,,,,,174,S,triangle,1,0,,,,,,,,,,,,,,,,repeat,letter,lettRpt,k,0.5158,Hi,,,,,,4,,,,,,,,high,16,0,16,0,1,,,,,,,,,
294607,2022-11-29_17h56.39.873,vts_reward_expectancy_bt,2022.2.4,Win32,59.70505702,Chrome,1280,720,,,,,0,1322,,,,,,,,,,,,,,,,,160,U,star,1,0,,,,,,,,,,,,,,,,repeat,letter,lettRpt,k,0.825,Hi,,,,,,4,,,,,,,,high,17,0,17,0,1,,,,,,,,,
294607,2022-11-29_17h56.39.873,vts_reward_expectancy_bt,2022.2.4,Win32,59.70505702,Chrome,1280,720,,,,,10,1332,,,,,,,,,,,,,,,,,125,W,hexagon,1,0,,,,,,,,,,,,,,,,switch,number,numSwt,d,0.484,Lo,,,,,,4,,,,,,,,high,18,0,18,0,1,,,,,,,,,
294607,2022-11-29_17h56.39.873,vts_reward_expectancy_bt,2022.2.4,Win32,59.70505702,Chrome,1280,720,,,,,1,1333,,,,,,,,,,,,,,,,,167,B,circle,1,0,,,,,,,,,,,,,,,,repeat,number,numRpt,f,0.5164,Lo,,,,,,4,,,,,,,,high,19,0,19,0,1,,,,,,,,,
294607,2022-11-29_17h56.39.873,vts_reward_expectancy_bt,2022.2.4,Win32,59.70505702,Chrome,1280,720,,,,,1,1334,,,,,,,,,,,,,,,,,181,F,circle,1,0,,,,,,,,,,,,,,,,repeat,number,numRpt,f,0.5001,Lo,,,,,,4,,,,,,,,high,20,0,20,0,1,,,,,,,,,
294607,2022-11-29_17h56.39.873,vts_reward_expectancy_bt,2022.2.4,Win32,59.70505702,Chrome,1280,720,,,,,10,1344,,,,,,,,,,,,,,,,,146,H,star,1,0,,,,,,,,,,,,,,,,switch,letter,lettSwt,j,0.4176,Hi,,,,,,4,,,,,,,,high,21,0,21,0,1,,,,,,,,,
294607,2022-11-29_17h56.39.873,vts_reward_expectancy_bt,2022.2.4,Win32,59.70505702,Chrome,1280,720,,,,,0,1344,,,,,,,,,,,,,,,,,132,Y,triangle,1,0,,,,,,,,,,,,,,,,repeat,letter,lettRpt,k,0.5328,Hi,,,,,,4,,,,,,,,high,22,0,22,0,1,,,,,,,,,
294607,2022-11-29_17h56.39.873,vts_reward_expectancy_bt,2022.2.4,Win32,59.70505702,Chrome,1280,720,,,,,1,1345,,,,,,,,,,,,,,,,,139,D,hexagon,1,0,,,,,,,,,,,,,,,,switch,number,numSwt,d,0.4167,Lo,,,,,,4,,,,,,,,high,23,0,23,0,1,,,,,,,,,
294607,2022-11-29_17h56.39.873,vts_reward_expectancy_bt,2022.2.4,Win32,59.70505702,Chrome,1280,720,,,,,1,1346,,,,,,,,,,,,,,,,,181,D,circle,1,0,,,,,,,,,,,,,,,,repeat,number,numRpt,f,0.5005,Lo,,,,,,4,,,,,,,,high,24,0,24,0,1,,,,,,,,,
294607,2022-11-29_17h56.39.873,vts_reward_expectancy_bt,2022.2.4,Win32,59.70505702,Chrome,1280,720,,,,,10,1356,,,,,,,,,,,,,,,,,160,H,triangle,1,0,,,,,,,,,,,,,,,,switch,letter,lettSwt,j,0.4671,Hi,,,,,,4,,,,,,,,high,25,0,25,0,1,,,,,,,,,
294607,2022-11-29_17h56.39.873,vts_reward_expectancy_bt,2022.2.4,Win32,59.70505702,Chrome,1280,720,,,,,1,1357,,,,,,,,,,,,,,,,,174,U,hexagon,1,0,,,,,,,,,,,,,,,,repeat,letter,lettRpt,k,0.5678,Lo,,,,,,4,,,,,,,,high,26,0,26,0,1,,,,,,,,,
294607,2022-11-29_17h56.39.873,vts_reward_expectancy_bt,2022.2.4,Win32,59.70505702,Chrome,1280,720,,,,,0,1357,,,,,,,,,,,,,,,,,146,B,star,1,0,,,,,,,,,,,,,,,,repeat,letter,lettRpt,j,0.5027,Hi,,,,,,4,,,,,,,,high,27,0,27,0,1,,,,,,,,,
294607,2022-11-29_17h56.39.873,vts_reward_expectancy_bt,2022.2.4,Win32,59.70505702,Chrome,1280,720,,,,,1,1358,,,,,,,,,,,,,,,,,167,W,circle,1,0,,,,,,,,,,,,,,,,switch,number,numSwt,f,0.4997,Lo,,,,,,4,,,,,,,,high,28,0,28,0,1,,,,,,,,,
294607,2022-11-29_17h56.39.873,vts_reward_expectancy_bt,2022.2.4,Win32,59.70505702,Chrome,1280,720,,,,,0,1358,,,,,,,,,,,,,,,,,125,Y,triangle,1,0,,,,,,,,,,,,,,,,switch,letter,lettSwt,k,0.5507,Hi,,,,,,4,,,,,,,,high,29,0,29,0,1,,,,,,,,,
294607,2022-11-29_17h56.39.873,vts_reward_expectancy_bt,2022.2.4,Win32,59.70505702,Chrome,1280,720,,,,,0,1358,,,,,,,,,,,,,,,,,139,S,star,1,0,,,,,,,,,,,,,,,,repeat,letter,lettRpt,k,0.5702,Hi,,,,,,4,,,,,,,,high,30,0,30,0,1,,,,,,,,,
294607,2022-11-29_17h56.39.873,vts_reward_expectancy_bt,2022.2.4,Win32,59.70505702,Chrome,1280,720,,,,,1,1359,,,,,,,,,,,,,,,,,132,F,hexagon,1,0,,,,,,,,,,,,,,,,switch,number,numSwt,d,0.5176,Lo,,,,,,4,,,,,,,,high,31,0,31,0,1,,,,,,,,,
294607,2022-11-29_17h56.39.873,vts_reward_expectancy_bt,2022.2.4,Win32,59.70505702,Chrome,1280,720,,,,,0,1359,,,,,,,,,,,,,,,,,181,S,star,1,0,,,,,,,,,,,,,,,,switch,letter,lettSwt,k,0.5333,Hi,,,,,,5,,,,,,space,1.4675,high,0,0,0,0,1,,,,,,,,,
294607,2022-11-29_17h56.39.873,vts_reward_expectancy_bt,2022.2.4,Win32,59.70505702,Chrome,1280,720,,,,,0,1359,,,,,,,,,,,,,,,,,139,F,circle,0,0,,,,,,,,,,,,,,,,switch,number,NA,f,0.3776,Hi,,,,,,5,,,,,,,,high,1,0,1,0,1,,,,,,,,,
294607,2022-11-29_17h56.39.873,vts_reward_expectancy_bt,2022.2.4,Win32,59.70505702,Chrome,1280,720,,,,,10,1369,,,,,,,,,,,,,,,,,160,B,triangle,1,1,,,,,,,,,,,,,,,,switch,letter,lettSwt,j,0.384,Hi,,,,,,5,,,,,,,,high,2,0,2,0,1,,,,,,,,,
294607,2022-11-29_17h56.39.873,vts_reward_expectancy_bt,2022.2.4,Win32,59.70505702,Chrome,1280,720,,,,,10,1379,,,,,,,,,,,,,,,,,132,H,hexagon,1,0,,,,,,,,,,,,,,,,switch,number,numSwt,d,0.4683,Lo,,,,,,5,,,,,,,,high,3,0,3,0,1,,,,,,,,,
294607,2022-11-29_17h56.39.873,vts_reward_expectancy_bt,2022.2.4,Win32,59.70505702,Chrome,1280,720,,,,,0,1379,,,,,,,,,,,,,,,,,167,W,star,1,0,,,,,,,,,,,,,,,,switch,letter,lettSwt,k,0.542,Hi,,,,,,5,,,,,,,,high,4,0,4,0,1,,,,,,,,,
294607,2022-11-29_17h56.39.873,vts_reward_expectancy_bt,2022.2.4,Win32,59.70505702,Chrome,1280,720,,,,,1,1380,,,,,,,,,,,,,,,,,174,U,circle,1,0,,,,,,,,,,,,,,,,switch,number,numSwt,f,0.4676,Lo,,,,,,5,,,,,,,,high,5,0,5,0,1,,,,,,,,,
294607,2022-11-29_17h56.39.873,vts_reward_expectancy_bt,2022.2.4,Win32,59.70505702,Chrome,1280,720,,,,,10,1390,,,,,,,,,,,,,,,,,146,Y,triangle,1,0,,,,,,,,,,,,,,,,switch,letter,lettSwt,k,0.3781,Hi,,,,,,5,,,,,,,,high,6,0,6,0,1,,,,,,,,,
294607,2022-11-29_17h56.39.873,vts_reward_expectancy_bt,2022.2.4,Win32,59.70505702,Chrome,1280,720,,,,,1,1391,,,,,,,,,,,,,,,,,125,D,hexagon,1,0,,,,,,,,,,,,,,,,switch,number,numSwt,d,0.4081,Lo,,,,,,5,,,,,,,,high,7,0,7,0,1,,,,,,,,,
294607,2022-11-29_17h56.39.873,vts_reward_expectancy_bt,2022.2.4,Win32,59.70505702,Chrome,1280,720,,,,,1,1392,,,,,,,,,,,,,,,,,181,S,circle,1,0,,,,,,,,,,,,,,,,switch,letter,lettSwt,k,0.3842,Lo,,,,,,5,,,,,,,,high,8,0,8,0,1,,,,,,,,,
294607,2022-11-29_17h56.39.873,vts_reward_expectancy_bt,2022.2.4,Win32,59.70505702,Chrome,1280,720,,,,,10,1402,,,,,,,,,,,,,,,,,139,F,hexagon,1,0,,,,,,,,,,,,,,,,switch,number,numSwt,d,0.4506,Lo,,,,,,5,,,,,,,,high,9,0,9,0,1,,,,,,,,,
294607,2022-11-29_17h56.39.873,vts_reward_expectancy_bt,2022.2.4,Win32,59.70505702,Chrome,1280,720,,,,,0,1402,,,,,,,,,,,,,,,,,160,B,star,1,0,,,,,,,,,,,,,,,,switch,letter,lettSwt,j,0.5167,Hi,,,,,,5,,,,,,,,high,10,0,10,0,1,,,,,,,,,
294607,2022-11-29_17h56.39.873,vts_reward_expectancy_bt,2022.2.4,Win32,59.70505702,Chrome,1280,720,,,,,0,1402,,,,,,,,,,,,,,,,,132,H,triangle,0,0,,,,,,,,,,,,,,,,repeat,letter,NA,k,0.3166,Hi,,,,,,5,,,,,,,,high,11,0,11,0,1,,,,,,,,,
294607,2022-11-29_17h56.39.873,vts_reward_expectancy_bt,2022.2.4,Win32,59.70505702,Chrome,1280,720,,,,,1,1403,,,,,,,,,,,,,,,,,167,W,circle,1,1,,,,,,,,,,,,,,,,switch,number,numSwt,f,0.4015,Lo,,,,,,5,,,,,,,,high,12,0,12,0,1,,,,,,,,,
294607,2022-11-29_17h56.39.873,vts_reward_expectancy_bt,2022.2.4,Win32,59.70505702,Chrome,1280,720,,,,,1,1404,,,,,,,,,,,,,,,,,174,U,star,1,0,,,,,,,,,,,,,,,,switch,letter,lettSwt,k,0.4673,Hi,,,,,,5,,,,,,,,high,13,0,13,0,1,,,,,,,,,
294607,2022-11-29_17h56.39.873,vts_reward_expectancy_bt,2022.2.4,Win32,59.70505702,Chrome,1280,720,,,,,0,1404,,,,,,,,,,,,,,,,,146,Y,triangle,1,0,,,,,,,,,,,,,,,,repeat,letter,lettRpt,k,0.5878,Hi,,,,,,5,,,,,,,,high,14,0,14,0,1,,,,,,,,,
294607,2022-11-29_17h56.39.873,vts_reward_expectancy_bt,2022.2.4,Win32,59.70505702,Chrome,1280,720,,,,,10,1414,,,,,,,,,,,,,,,,,125,D,hexagon,1,0,,,,,,,,,,,,,,,,switch,number,numSwt,d,0.54,Lo,,,,,,5,,,,,,,,high,15,0,15,0,1,,,,,,,,,
294607,2022-11-29_17h56.39.873,vts_reward_expectancy_bt,2022.2.4,Win32,59.70505702,Chrome,1280,720,,,,,0,1414,,,,,,,,,,,,,,,,,181,Y,star,1,0,,,,,,,,,,,,,,,,switch,letter,lettSwt,k,0.4849,Hi,,,,,,5,,,,,,,,high,16,0,16,0,1,,,,,,,,,
294607,2022-11-29_17h56.39.873,vts_reward_expectancy_bt,2022.2.4,Win32,59.70505702,Chrome,1280,720,,,,,0,1414,,,,,,,,,,,,,,,,,174,H,triangle,1,0,,,,,,,,,,,,,,,,repeat,letter,lettRpt,j,0.5412,Hi,,,,,,5,,,,,,,,high,17,0,17,0,1,,,,,,,,,
294607,2022-11-29_17h56.39.873,vts_reward_expectancy_bt,2022.2.4,Win32,59.70505702,Chrome,1280,720,,,,,1,1415,,,,,,,,,,,,,,,,,160,B,circle,1,0,,,,,,,,,,,,,,,,switch,number,numSwt,f,0.5345,Lo,,,,,,5,,,,,,,,high,18,0,18,0,1,,,,,,,,,
294607,2022-11-29_17h56.39.873,vts_reward_expectancy_bt,2022.2.4,Win32,59.70505702,Chrome,1280,720,,,,,10,1425,,,,,,,,,,,,,,,,,132,U,hexagon,1,0,,,,,,,,,,,,,,,,repeat,number,numRpt,d,0.5184,Lo,,,,,,5,,,,,,,,high,19,0,19,0,1,,,,,,,,,
294607,2022-11-29_17h56.39.873,vts_reward_expectancy_bt,2022.2.4,Win32,59.70505702,Chrome,1280,720,,,,,1,1426,,,,,,,,,,,,,,,,,167,S,star,1,0,,,,,,,,,,,,,,,,switch,letter,lettSwt,k,0.3843,Hi,,,,,,5,,,,,,,,high,20,0,20,0,1,,,,,,,,,
294607,2022-11-29_17h56.39.873,vts_reward_expectancy_bt,2022.2.4,Win32,59.70505702,Chrome,1280,720,,,,,1,1427,,,,,,,,,,,,,,,,,125,F,circle,1,0,,,,,,,,,,,,,,,,switch,number,numSwt,d,0.4374,Lo,,,,,,5,,,,,,,,high,21,0,21,0,1,,,,,,,,,
294607,2022-11-29_17h56.39.873,vts_reward_expectancy_bt,2022.2.4,Win32,59.70505702,Chrome,1280,720,,,,,1,1428,,,,,,,,,,,,,,,,,139,W,hexagon,1,0,,,,,,,,,,,,,,,,repeat,number,numRpt,d,0.433,Lo,,,,,,5,,,,,,,,high,22,0,22,0,1,,,,,,,,,
294607,2022-11-29_17h56.39.873,vts_reward_expectancy_bt,2022.2.4,Win32,59.70505702,Chrome,1280,720,,,,,10,1438,,,,,,,,,,,,,,,,,146,D,triangle,1,0,,,,,,,,,,,,,,,,switch,letter,lettSwt,j,0.4016,Hi,,,,,,5,,,,,,,,high,23,0,23,0,1,,,,,,,,,
294607,2022-11-29_17h56.39.873,vts_reward_expectancy_bt,2022.2.4,Win32,59.70505702,Chrome,1280,720,,,,,10,1448,,,,,,,,,,,,,,,,,181,Y,star,1,0,,,,,,,,,,,,,,,,repeat,letter,lettRpt,k,0.3383,Hi,,,,,,5,,,,,,,,high,24,0,24,0,1,,,,,,,,,
294607,2022-11-29_17h56.39.873,vts_reward_expectancy_bt,2022.2.4,Win32,59.70505702,Chrome,1280,720,,,,,0,1448,,,,,,,,,,,,,,,,,146,B,triangle,1,0,,,,,,,,,,,,,,,,repeat,letter,lettRpt,j,0.5074,Hi,,,,,,5,,,,,,,,high,25,0,25,0,1,,,,,,,,,
294607,2022-11-29_17h56.39.873,vts_reward_expectancy_bt,2022.2.4,Win32,59.70505702,Chrome,1280,720,,,,,1,1449,,,,,,,,,,,,,,,,,139,U,circle,1,0,,,,,,,,,,,,,,,,switch,number,numSwt,d,0.3745,Lo,,,,,,5,,,,,,,,high,26,0,26,0,1,,,,,,,,,
294607,2022-11-29_17h56.39.873,vts_reward_expectancy_bt,2022.2.4,Win32,59.70505702,Chrome,1280,720,,,,,1,1450,,,,,,,,,,,,,,,,,125,H,hexagon,1,0,,,,,,,,,,,,,,,,repeat,number,numRpt,d,0.451,Lo,,,,,,5,,,,,,,,high,27,0,27,0,1,,,,,,,,,
294607,2022-11-29_17h56.39.873,vts_reward_expectancy_bt,2022.2.4,Win32,59.70505702,Chrome,1280,720,,,,,10,1460,,,,,,,,,,,,,,,,,160,F,star,1,0,,,,,,,,,,,,,,,,switch,letter,lettSwt,j,0.3903,Hi,,,,,,5,,,,,,,,high,28,0,28,0,1,,,,,,,,,
294607,2022-11-29_17h56.39.873,vts_reward_expectancy_bt,2022.2.4,Win32,59.70505702,Chrome,1280,720,,,,,1,1461,,,,,,,,,,,,,,,,,174,W,hexagon,1,0,,,,,,,,,,,,,,,,switch,number,numSwt,f,0.4336,Lo,,,,,,5,,,,,,,,high,29,0,29,0,1,,,,,,,,,
294607,2022-11-29_17h56.39.873,vts_reward_expectancy_bt,2022.2.4,Win32,59.70505702,Chrome,1280,720,,,,,0,1461,,,,,,,,,,,,,,,,,132,S,triangle,0,0,,,,,,,,,,,,,,,,switch,letter,NA,j,0.3504,Lo,,,,,,5,,,,,,,,high,30,0,30,0,1,,,,,,,,,
294607,2022-11-29_17h56.39.873,vts_reward_expectancy_bt,2022.2.4,Win32,59.70505702,Chrome,1280,720,,,,,1,1462,,,,,,,,,,,,,,,,,167,D,circle,1,1,,,,,,,,,,,,,,,,switch,number,numSwt,f,0.4169,Lo,,,,,,5,,,,,,,,high,31,0,31,0,1,,,,,,,,,
294607,2022-11-29_17h56.39.873,vts_reward_expectancy_bt,2022.2.4,Win32,59.70505702,Chrome,1280,720,,,,,0,1462,,,,,,,,,,,,,,,,,132,W,star,1,0,,,,,,,,,,,,,,,,switch,letter,lettSwt,k,0.4731,Hi,,,,,,6,,,,,,space,2.0979,high,0,0,0,0,1,,,,,,,,,
294607,2022-11-29_17h56.39.873,vts_reward_expectancy_bt,2022.2.4,Win32,59.70505702,Chrome,1280,720,,,,,1,1463,,,,,,,,,,,,,,,,,160,Y,circle,1,0,,,,,,,,,,,,,,,,switch,number,numSwt,f,0.4285,Lo,,,,,,6,,,,,,,,high,1,0,1,0,1,,,,,,,,,
294607,2022-11-29_17h56.39.873,vts_reward_expectancy_bt,2022.2.4,Win32,59.70505702,Chrome,1280,720,,,,,0,1463,,,,,,,,,,,,,,,,,125,B,hexagon,0,0,,,,,,,,,,,,,,,,repeat,number,NA,f,0.4159,Lo,,,,,,6,,,,,,,,high,2,0,2,0,1,,,,,,,,,
294607,2022-11-29_17h56.39.873,vts_reward_expectancy_bt,2022.2.4,Win32,59.70505702,Chrome,1280,720,,,,,0,1463,,,,,,,,,,,,,,,,,139,F,triangle,0,1,,,,,,,,,,,,,,,,switch,letter,NA,k,0.3679,Lo,,,,,,6,,,,,,,,high,3,0,3,0,1,,,,,,,,,
294607,2022-11-29_17h56.39.873,vts_reward_expectancy_bt,2022.2.4,Win32,59.70505702,Chrome,1280,720,,,,,10,1473,,,,,,,,,,,,,,,,,146,U,star,1,1,,,,,,,,,,,,,,,,repeat,letter,lettRpt,k,0.3752,Hi,,,,,,6,,,,,,,,high,4,0,4,0,1,,,,,,,,,
294607,2022-11-29_17h56.39.873,vts_reward_expectancy_bt,2022.2.4,Win32,59.70505702,Chrome,1280,720,,,,,10,1483,,,,,,,,,,,,,,,,,174,D,circle,1,0,,,,,,,,,,,,,,,,switch,number,numSwt,f,0.3935,Lo,,,,,,6,,,,,,,,high,5,0,5,0,1,,,,,,,,,
294607,2022-11-29_17h56.39.873,vts_reward_expectancy_bt,2022.2.4,Win32,59.70505702,Chrome,1280,720,,,,,10,1493,,,,,,,,,,,,,,,,,167,H,hexagon,1,0,,,,,,,,,,,,,,,,repeat,number,numRpt,f,0.5108,Lo,,,,,,6,,,,,,,,high,6,0,6,0,1,,,,,,,,,
294607,2022-11-29_17h56.39.873,vts_reward_expectancy_bt,2022.2.4,Win32,59.70505702,Chrome,1280,720,,,,,0,1493,,,,,,,,,,,,,,,,,181,S,triangle,0,0,,,,,,,,,,,,,,,,switch,letter,NA,j,0.4172,Lo,,,,,,6,,,,,,,,high,7,0,7,0,1,,,,,,,,,
294607,2022-11-29_17h56.39.873,vts_reward_expectancy_bt,2022.2.4,Win32,59.70505702,Chrome,1280,720,,,,,0,1493,,,,,,,,,,,,,,,,,132,W,star,1,1,,,,,,,,,,,,,,,,repeat,letter,lettRpt,k,0.7833,Hi,,,,,,6,,,,,,,,high,8,0,8,0,1,,,,,,,,,
294607,2022-11-29_17h56.39.873,vts_reward_expectancy_bt,2022.2.4,Win32,59.70505702,Chrome,1280,720,,,,,10,1503,,,,,,,,,,,,,,,,,160,Y,hexagon,1,0,,,,,,,,,,,,,,,,switch,number,numSwt,f,0.4669,Lo,,,,,,6,,,,,,,,high,9,0,9,0,1,,,,,,,,,
294607,2022-11-29_17h56.39.873,vts_reward_expectancy_bt,2022.2.4,Win32,59.70505702,Chrome,1280,720,,,,,1,1504,,,,,,,,,,,,,,,,,125,B,circle,1,0,,,,,,,,,,,,,,,,repeat,number,numRpt,d,0.4098,Lo,,,,,,6,,,,,,,,high,10,0,10,0,1,,,,,,,,,
294607,2022-11-29_17h56.39.873,vts_reward_expectancy_bt,2022.2.4,Win32,59.70505702,Chrome,1280,720,,,,,0,1504,,,,,,,,,,,,,,,,,139,F,triangle,0,0,,,,,,,,,,,,,,,,switch,letter,NA,k,0.4073,Lo,,,,,,6,,,,,,,,high,11,0,11,0,1,,,,,,,,,
294607,2022-11-29_17h56.39.873,vts_reward_expectancy_bt,2022.2.4,Win32,59.70505702,Chrome,1280,720,,,,,1,1505,,,,,,,,,,,,,,,,,146,U,hexagon,1,1,,,,,,,,,,,,,,,,switch,number,numSwt,d,0.4004,Lo,,,,,,6,,,,,,,,high,12,0,12,0,1,,,,,,,,,
294607,2022-11-29_17h56.39.873,vts_reward_expectancy_bt,2022.2.4,Win32,59.70505702,Chrome,1280,720,,,,,0,1505,,,,,,,,,,,,,,,,,174,D,triangle,1,0,,,,,,,,,,,,,,,,switch,letter,lettSwt,j,0.4438,Hi,,,,,,6,,,,,,,,high,13,0,13,0,1,,,,,,,,,
294607,2022-11-29_17h56.39.873,vts_reward_expectancy_bt,2022.2.4,Win32,59.70505702,Chrome,1280,720,,,,,1,1506,,,,,,,,,,,,,,,,,167,H,circle,1,0,,,,,,,,,,,,,,,,switch,number,numSwt,f,0.4695,Lo,,,,,,6,,,,,,,,high,14,0,14,0,1,,,,,,,,,
