participant,date,expName,psychopyVersion,OS,frameRate,browser,xResolution,yResolution,key_resp.keys,key_resp.rt,training_resp.keys,training_resp.rt,points_trial,points_cumul,trainBlock,training.thisRepN,training.thisTrialN,training.thisN,training.thisIndex,training.ran,LTriangleOpac,LCircleOpac,LHexagonOpac,LStarOpac,RTriangleOpac,RCircleOpac,RHexagonOpac,RStarOpac,LShape_ID,RShape_ID,curr_topStim,curr_bottStim,curr_shape,acc,E1,target_resp_prac1.keys,target_resp_prac1.rt,pracBlock,task1_prac_trials.thisRepN,task1_prac_trials.thisTrialN,task1_prac_trials.thisN,task1_prac_trials.thisIndex,task1_prac_trials.ran,target_resp_prac2.keys,target_resp_prac2.rt,task2_praac_trials.thisRepN,task2_praac_trials.thisTrialN,task2_praac_trials.thisN,task2_praac_trials.thisIndex,task2_praac_trials.ran,alt,task,condition,target_resp.keys,rewCond,vts_practice_trials.thisRepN,vts_practice_trials.thisTrialN,vts_practice_trials.thisN,vts_practice_trials.thisIndex,vts_practice_trials.ran,target_resp.rt,blockNum,trials_norew.thisRepN,trials_norew.thisTrialN,trials_norew.thisN,trials_norew.thisIndex,trials_norew.ran,key_resp_2.keys,key_resp_2.rt,rewExpectancy,trials_rew.thisRepN,trials_rew.thisTrialN,trials_rew.thisN,trials_rew.thisIndex,trials_rew.ran,Q1,Q2,Q2_text,Q3,Q4,Q5,Q5_text,xRes,yRes
294745,2022-12-05_21h45.56.433,vts_reward_expectancy_bt,2022.2.4,Win32,60.0240096,Chrome,1536,864,,,,,,,,,,,,,,,,,,,,,,,,,,,,,,,,,,,,,,,,,,,,,,,,,,,,,,,,,,,,,,,,,,,,,,,,,,,,
294745,2022-12-05_21h45.56.433,vts_reward_expectancy_bt,2022.2.4,Win32,60.0240096,Chrome,1536,864,space,20.7892,,,,,,,,,,,,,,,,,,,,,,,,,,,,,,,,,,,,,,,,,,,,,,,,,,,,,,,,,,,,,,,,,,,,,,,,,,
294745,2022-12-05_21h45.56.433,vts_reward_expectancy_bt,2022.2.4,Win32,60.0240096,Chrome,1536,864,,,,,,,,,,,,,,,,,,,,,,,,,,,,,,,,,,,,,,,,,,,,,,,,,,,,,,,,,,,,,,,,,,,,,,,,,,,,
294745,2022-12-05_21h45.56.433,vts_reward_expectancy_bt,2022.2.4,Win32,60.0240096,Chrome,1536,864,,,a,2.6159,1,1,0,0,0,0,4,1,0,1,0,0,0,0,1,0,circle,hexagon,,,,,,,,,,,,,,,,,,,,,,,,,,,,,,,,,,,,,,,,,,,,,,,,,,,,,,
294745,2022-12-05_21h45.56.433,vts_reward_expectancy_bt,2022.2.4,Win32,60.0240096,Chrome,1536,864,,,a,2.719,10,11,0,0,1,1,7,1,0,0,1,0,0,1,0,0,hexagon,circle,,,,,,,,,,,,,,,,,,,,,,,,,,,,,,,,,,,,,,,,,,,,,,,,,,,,,,
294745,2022-12-05_21h45.56.433,vts_reward_expectancy_bt,2022.2.4,Win32,60.0240096,Chrome,1536,864,,,l,1.0093,10,21,0,0,2,2,8,1,0,0,1,0,0,0,0,1,hexagon,star,,,,,,,,,,,,,,,,,,,,,,,,,,,,,,,,,,,,,,,,,,,,,,,,,,,,,,
294745,2022-12-05_21h45.56.433,vts_reward_expectancy_bt,2022.2.4,Win32,60.0240096,Chrome,1536,864,,,a,0.5182,10,31,0,0,3,3,11,1,0,0,0,1,0,0,1,0,star,hexagon,,,,,,,,,,,,,,,,,,,,,,,,,,,,,,,,,,,,,,,,,,,,,,,,,,,,,,
294745,2022-12-05_21h45.56.433,vts_reward_expectancy_bt,2022.2.4,Win32,60.0240096,Chrome,1536,864,,,l,0.4615,1,32,0,0,4,4,5,1,0,1,0,0,0,0,0,1,circle,star,,,,,,,,,,,,,,,,,,,,,,,,,,,,,,,,,,,,,,,,,,,,,,,,,,,,,,
294745,2022-12-05_21h45.56.433,vts_reward_expectancy_bt,2022.2.4,Win32,60.0240096,Chrome,1536,864,,,l,1.4998,1,33,0,0,5,5,9,1,0,0,0,1,1,0,0,0,star,triangle,,,,,,,,,,,,,,,,,,,,,,,,,,,,,,,,,,,,,,,,,,,,,,,,,,,,,,
294745,2022-12-05_21h45.56.433,vts_reward_expectancy_bt,2022.2.4,Win32,60.0240096,Chrome,1536,864,,,l,1.8916,1,34,0,0,6,6,3,1,0,1,0,0,1,0,0,0,circle,triangle,,,,,,,,,,,,,,,,,,,,,,,,,,,,,,,,,,,,,,,,,,,,,,,,,,,,,,
294745,2022-12-05_21h45.56.433,vts_reward_expectancy_bt,2022.2.4,Win32,60.0240096,Chrome,1536,864,,,l,1.3711,1,35,0,0,7,7,0,1,1,0,0,0,0,1,0,0,triangle,circle,,,,,,,,,,,,,,,,,,,,,,,,,,,,,,,,,,,,,,,,,,,,,,,,,,,,,,
294745,2022-12-05_21h45.56.433,vts_reward_expectancy_bt,2022.2.4,Win32,60.0240096,Chrome,1536,864,,,a,0.9006,1,36,0,0,8,8,10,1,0,0,0,1,0,1,0,0,star ,circle,,,,,,,,,,,,,,,,,,,,,,,,,,,,,,,,,,,,,,,,,,,,,,,,,,,,,,
294745,2022-12-05_21h45.56.433,vts_reward_expectancy_bt,2022.2.4,Win32,60.0240096,Chrome,1536,864,,,a,1.2401,1,37,0,0,9,9,2,1,1,0,0,0,0,0,0,1,triangle,star,,,,,,,,,,,,,,,,,,,,,,,,,,,,,,,,,,,,,,,,,,,,,,,,,,,,,,
294745,2022-12-05_21h45.56.433,vts_reward_expectancy_bt,2022.2.4,Win32,60.0240096,Chrome,1536,864,,,l,0.6392,1,38,0,0,10,10,1,1,1,0,0,0,0,0,1,0,triangle,hexagon,,,,,,,,,,,,,,,,,,,,,,,,,,,,,,,,,,,,,,,,,,,,,,,,,,,,,,
294745,2022-12-05_21h45.56.433,vts_reward_expectancy_bt,2022.2.4,Win32,60.0240096,Chrome,1536,864,,,a,0.7665,10,48,0,0,11,11,6,1,0,0,1,0,1,0,0,0,hexagon,triangle,,,,,,,,,,,,,,,,,,,,,,,,,,,,,,,,,,,,,,,,,,,,,,,,,,,,,,
294745,2022-12-05_21h45.56.433,vts_reward_expectancy_bt,2022.2.4,Win32,60.0240096,Chrome,1536,864,,,l,0.5736,1,49,0,1,0,12,0,1,1,0,0,0,0,1,0,0,triangle,circle,,,,,,,,,,,,,,,,,,,,,,,,,,,,,,,,,,,,,,,,,,,,,,,,,,,,,,
294745,2022-12-05_21h45.56.433,vts_reward_expectancy_bt,2022.2.4,Win32,60.0240096,Chrome,1536,864,,,a,0.3824,10,59,0,1,1,13,9,1,0,0,0,1,1,0,0,0,star,triangle,,,,,,,,,,,,,,,,,,,,,,,,,,,,,,,,,,,,,,,,,,,,,,,,,,,,,,
294745,2022-12-05_21h45.56.433,vts_reward_expectancy_bt,2022.2.4,Win32,60.0240096,Chrome,1536,864,,,l,0.4229,10,69,0,1,2,14,8,1,0,0,1,0,0,0,0,1,hexagon,star,,,,,,,,,,,,,,,,,,,,,,,,,,,,,,,,,,,,,,,,,,,,,,,,,,,,,,
294745,2022-12-05_21h45.56.433,vts_reward_expectancy_bt,2022.2.4,Win32,60.0240096,Chrome,1536,864,,,l,0.894,1,70,0,1,3,15,6,1,0,0,1,0,1,0,0,0,hexagon,triangle,,,,,,,,,,,,,,,,,,,,,,,,,,,,,,,,,,,,,,,,,,,,,,,,,,,,,,
294745,2022-12-05_21h45.56.433,vts_reward_expectancy_bt,2022.2.4,Win32,60.0240096,Chrome,1536,864,,,a,0.5612,10,80,0,1,4,16,2,1,1,0,0,0,0,0,0,1,triangle,star,,,,,,,,,,,,,,,,,,,,,,,,,,,,,,,,,,,,,,,,,,,,,,,,,,,,,,
294745,2022-12-05_21h45.56.433,vts_reward_expectancy_bt,2022.2.4,Win32,60.0240096,Chrome,1536,864,,,a,1.0764,1,81,0,1,5,17,3,1,0,1,0,0,1,0,0,0,circle,triangle,,,,,,,,,,,,,,,,,,,,,,,,,,,,,,,,,,,,,,,,,,,,,,,,,,,,,,
294745,2022-12-05_21h45.56.433,vts_reward_expectancy_bt,2022.2.4,Win32,60.0240096,Chrome,1536,864,,,a,0.7464,1,82,0,1,6,18,10,1,0,0,0,1,0,1,0,0,star ,circle,,,,,,,,,,,,,,,,,,,,,,,,,,,,,,,,,,,,,,,,,,,,,,,,,,,,,,
294745,2022-12-05_21h45.56.433,vts_reward_expectancy_bt,2022.2.4,Win32,60.0240096,Chrome,1536,864,,,a,0.5027,10,92,0,1,7,19,11,1,0,0,0,1,0,0,1,0,star,hexagon,,,,,,,,,,,,,,,,,,,,,,,,,,,,,,,,,,,,,,,,,,,,,,,,,,,,,,
294745,2022-12-05_21h45.56.433,vts_reward_expectancy_bt,2022.2.4,Win32,60.0240096,Chrome,1536,864,,,l,0.6166,10,102,0,1,8,20,1,1,1,0,0,0,0,0,1,0,triangle,hexagon,,,,,,,,,,,,,,,,,,,,,,,,,,,,,,,,,,,,,,,,,,,,,,,,,,,,,,
294745,2022-12-05_21h45.56.433,vts_reward_expectancy_bt,2022.2.4,Win32,60.0240096,Chrome,1536,864,,,l,0.669,10,112,0,1,9,21,4,1,0,1,0,0,0,0,1,0,circle,hexagon,,,,,,,,,,,,,,,,,,,,,,,,,,,,,,,,,,,,,,,,,,,,,,,,,,,,,,
294745,2022-12-05_21h45.56.433,vts_reward_expectancy_bt,2022.2.4,Win32,60.0240096,Chrome,1536,864,,,l,0.9299,1,113,0,1,10,22,7,1,0,0,1,0,0,1,0,0,hexagon,circle,,,,,,,,,,,,,,,,,,,,,,,,,,,,,,,,,,,,,,,,,,,,,,,,,,,,,,
294745,2022-12-05_21h45.56.433,vts_reward_expectancy_bt,2022.2.4,Win32,60.0240096,Chrome,1536,864,,,l,2.4025,10,123,0,1,11,23,5,1,0,1,0,0,0,0,0,1,circle,star,,,,,,,,,,,,,,,,,,,,,,,,,,,,,,,,,,,,,,,,,,,,,,,,,,,,,,
294745,2022-12-05_21h45.56.433,vts_reward_expectancy_bt,2022.2.4,Win32,60.0240096,Chrome,1536,864,,,a,0.4511,10,133,0,2,0,24,6,1,0,0,1,0,1,0,0,0,hexagon,triangle,,,,,,,,,,,,,,,,,,,,,,,,,,,,,,,,,,,,,,,,,,,,,,,,,,,,,,
294745,2022-12-05_21h45.56.433,vts_reward_expectancy_bt,2022.2.4,Win32,60.0240096,Chrome,1536,864,,,l,0.4081,10,143,0,2,1,25,8,1,0,0,1,0,0,0,0,1,hexagon,star,,,,,,,,,,,,,,,,,,,,,,,,,,,,,,,,,,,,,,,,,,,,,,,,,,,,,,
294745,2022-12-05_21h45.56.433,vts_reward_expectancy_bt,2022.2.4,Win32,60.0240096,Chrome,1536,864,,,a,0.5349,10,153,0,2,2,26,7,1,0,0,1,0,0,1,0,0,hexagon,circle,,,,,,,,,,,,,,,,,,,,,,,,,,,,,,,,,,,,,,,,,,,,,,,,,,,,,,
294745,2022-12-05_21h45.56.433,vts_reward_expectancy_bt,2022.2.4,Win32,60.0240096,Chrome,1536,864,,,a,0.7676,1,154,0,2,3,27,0,1,1,0,0,0,0,1,0,0,triangle,circle,,,,,,,,,,,,,,,,,,,,,,,,,,,,,,,,,,,,,,,,,,,,,,,,,,,,,,
294745,2022-12-05_21h45.56.433,vts_reward_expectancy_bt,2022.2.4,Win32,60.0240096,Chrome,1536,864,,,l,0.4096,10,164,0,2,4,28,5,1,0,1,0,0,0,0,0,1,circle,star,,,,,,,,,,,,,,,,,,,,,,,,,,,,,,,,,,,,,,,,,,,,,,,,,,,,,,
294745,2022-12-05_21h45.56.433,vts_reward_expectancy_bt,2022.2.4,Win32,60.0240096,Chrome,1536,864,,,a,0.6752,1,165,0,2,5,29,1,1,1,0,0,0,0,0,1,0,triangle,hexagon,,,,,,,,,,,,,,,,,,,,,,,,,,,,,,,,,,,,,,,,,,,,,,,,,,,,,,
294745,2022-12-05_21h45.56.433,vts_reward_expectancy_bt,2022.2.4,Win32,60.0240096,Chrome,1536,864,,,l,1.1554,1,166,0,2,6,30,3,1,0,1,0,0,1,0,0,0,circle,triangle,,,,,,,,,,,,,,,,,,,,,,,,,,,,,,,,,,,,,,,,,,,,,,,,,,,,,,
294745,2022-12-05_21h45.56.433,vts_reward_expectancy_bt,2022.2.4,Win32,60.0240096,Chrome,1536,864,,,l,0.7865,10,176,0,2,7,31,2,1,1,0,0,0,0,0,0,1,triangle,star,,,,,,,,,,,,,,,,,,,,,,,,,,,,,,,,,,,,,,,,,,,,,,,,,,,,,,
294745,2022-12-05_21h45.56.433,vts_reward_expectancy_bt,2022.2.4,Win32,60.0240096,Chrome,1536,864,,,a,0.4752,10,186,0,2,8,32,11,1,0,0,0,1,0,0,1,0,star,hexagon,,,,,,,,,,,,,,,,,,,,,,,,,,,,,,,,,,,,,,,,,,,,,,,,,,,,,,
294745,2022-12-05_21h45.56.433,vts_reward_expectancy_bt,2022.2.4,Win32,60.0240096,Chrome,1536,864,,,a,0.5331,10,196,0,2,9,33,10,1,0,0,0,1,0,1,0,0,star ,circle,,,,,,,,,,,,,,,,,,,,,,,,,,,,,,,,,,,,,,,,,,,,,,,,,,,,,,
294745,2022-12-05_21h45.56.433,vts_reward_expectancy_bt,2022.2.4,Win32,60.0240096,Chrome,1536,864,,,l,0.5693,10,206,0,2,10,34,4,1,0,1,0,0,0,0,1,0,circle,hexagon,,,,,,,,,,,,,,,,,,,,,,,,,,,,,,,,,,,,,,,,,,,,,,,,,,,,,,
294745,2022-12-05_21h45.56.433,vts_reward_expectancy_bt,2022.2.4,Win32,60.0240096,Chrome,1536,864,,,a,0.481,10,216,0,2,11,35,9,1,0,0,0,1,1,0,0,0,star,triangle,,,,,,,,,,,,,,,,,,,,,,,,,,,,,,,,,,,,,,,,,,,,,,,,,,,,,,
294745,2022-12-05_21h45.56.433,vts_reward_expectancy_bt,2022.2.4,Win32,60.0240096,Chrome,1536,864,,,a,0.788,10,226,1,0,0,0,11,1,0,0,0,1,0,0,1,0,star,hexagon,,,,,,,,,,,,,,,,,,,,,,,,,,,,,,,,,,,,,,,,,,,,,,,,,,,,,,
294745,2022-12-05_21h45.56.433,vts_reward_expectancy_bt,2022.2.4,Win32,60.0240096,Chrome,1536,864,,,l,0.3918,1,227,1,0,1,1,2,1,1,0,0,0,0,0,0,1,triangle,star,,,,,,,,,,,,,,,,,,,,,,,,,,,,,,,,,,,,,,,,,,,,,,,,,,,,,,
294745,2022-12-05_21h45.56.433,vts_reward_expectancy_bt,2022.2.4,Win32,60.0240096,Chrome,1536,864,,,a,0.4513,10,237,1,0,2,2,9,1,0,0,0,1,1,0,0,0,star,triangle,,,,,,,,,,,,,,,,,,,,,,,,,,,,,,,,,,,,,,,,,,,,,,,,,,,,,,
294745,2022-12-05_21h45.56.433,vts_reward_expectancy_bt,2022.2.4,Win32,60.0240096,Chrome,1536,864,,,l,0.6269,1,238,1,0,3,3,5,1,0,1,0,0,0,0,0,1,circle,star,,,,,,,,,,,,,,,,,,,,,,,,,,,,,,,,,,,,,,,,,,,,,,,,,,,,,,
294745,2022-12-05_21h45.56.433,vts_reward_expectancy_bt,2022.2.4,Win32,60.0240096,Chrome,1536,864,,,l,1.6396,1,239,1,0,4,4,1,1,1,0,0,0,0,0,1,0,triangle,hexagon,,,,,,,,,,,,,,,,,,,,,,,,,,,,,,,,,,,,,,,,,,,,,,,,,,,,,,
294745,2022-12-05_21h45.56.433,vts_reward_expectancy_bt,2022.2.4,Win32,60.0240096,Chrome,1536,864,,,l,0.894,1,240,1,0,5,5,6,1,0,0,1,0,1,0,0,0,hexagon,triangle,,,,,,,,,,,,,,,,,,,,,,,,,,,,,,,,,,,,,,,,,,,,,,,,,,,,,,
294745,2022-12-05_21h45.56.433,vts_reward_expectancy_bt,2022.2.4,Win32,60.0240096,Chrome,1536,864,,,a,1.4543,1,241,1,0,6,6,0,1,1,0,0,0,0,1,0,0,triangle,circle,,,,,,,,,,,,,,,,,,,,,,,,,,,,,,,,,,,,,,,,,,,,,,,,,,,,,,
294745,2022-12-05_21h45.56.433,vts_reward_expectancy_bt,2022.2.4,Win32,60.0240096,Chrome,1536,864,,,a,0.6059,1,242,1,0,7,7,3,1,0,1,0,0,1,0,0,0,circle,triangle,,,,,,,,,,,,,,,,,,,,,,,,,,,,,,,,,,,,,,,,,,,,,,,,,,,,,,
294745,2022-12-05_21h45.56.433,vts_reward_expectancy_bt,2022.2.4,Win32,60.0240096,Chrome,1536,864,,,l,0.5992,10,252,1,0,8,8,8,1,0,0,1,0,0,0,0,1,hexagon,star,,,,,,,,,,,,,,,,,,,,,,,,,,,,,,,,,,,,,,,,,,,,,,,,,,,,,,
294745,2022-12-05_21h45.56.433,vts_reward_expectancy_bt,2022.2.4,Win32,60.0240096,Chrome,1536,864,,,l,0.7155,10,262,1,0,9,9,10,1,0,0,0,1,0,1,0,0,star ,circle,,,,,,,,,,,,,,,,,,,,,,,,,,,,,,,,,,,,,,,,,,,,,,,,,,,,,,
294745,2022-12-05_21h45.56.433,vts_reward_expectancy_bt,2022.2.4,Win32,60.0240096,Chrome,1536,864,,,a,0.4639,1,263,1,0,10,10,4,1,0,1,0,0,0,0,1,0,circle,hexagon,,,,,,,,,,,,,,,,,,,,,,,,,,,,,,,,,,,,,,,,,,,,,,,,,,,,,,
294745,2022-12-05_21h45.56.433,vts_reward_expectancy_bt,2022.2.4,Win32,60.0240096,Chrome,1536,864,,,a,0.3973,1,264,1,0,11,11,7,1,0,0,1,0,0,1,0,0,hexagon,circle,,,,,,,,,,,,,,,,,,,,,,,,,,,,,,,,,,,,,,,,,,,,,,,,,,,,,,
294745,2022-12-05_21h45.56.433,vts_reward_expectancy_bt,2022.2.4,Win32,60.0240096,Chrome,1536,864,,,a,0.7313,1,265,1,1,0,12,5,1,0,1,0,0,0,0,0,1,circle,star,,,,,,,,,,,,,,,,,,,,,,,,,,,,,,,,,,,,,,,,,,,,,,,,,,,,,,
294745,2022-12-05_21h45.56.433,vts_reward_expectancy_bt,2022.2.4,Win32,60.0240096,Chrome,1536,864,,,l,0.5505,1,266,1,1,1,13,6,1,0,0,1,0,1,0,0,0,hexagon,triangle,,,,,,,,,,,,,,,,,,,,,,,,,,,,,,,,,,,,,,,,,,,,,,,,,,,,,,
294745,2022-12-05_21h45.56.433,vts_reward_expectancy_bt,2022.2.4,Win32,60.0240096,Chrome,1536,864,,,a,0.6207,10,276,1,1,2,14,7,1,0,0,1,0,0,1,0,0,hexagon,circle,,,,,,,,,,,,,,,,,,,,,,,,,,,,,,,,,,,,,,,,,,,,,,,,,,,,,,
294745,2022-12-05_21h45.56.433,vts_reward_expectancy_bt,2022.2.4,Win32,60.0240096,Chrome,1536,864,,,a,0.4979,10,286,1,1,3,15,10,1,0,0,0,1,0,1,0,0,star ,circle,,,,,,,,,,,,,,,,,,,,,,,,,,,,,,,,,,,,,,,,,,,,,,,,,,,,,,
294745,2022-12-05_21h45.56.433,vts_reward_expectancy_bt,2022.2.4,Win32,60.0240096,Chrome,1536,864,,,a,0.4851,10,296,1,1,4,16,11,1,0,0,0,1,0,0,1,0,star,hexagon,,,,,,,,,,,,,,,,,,,,,,,,,,,,,,,,,,,,,,,,,,,,,,,,,,,,,,
294745,2022-12-05_21h45.56.433,vts_reward_expectancy_bt,2022.2.4,Win32,60.0240096,Chrome,1536,864,,,l,0.4519,10,306,1,1,5,17,4,1,0,1,0,0,0,0,1,0,circle,hexagon,,,,,,,,,,,,,,,,,,,,,,,,,,,,,,,,,,,,,,,,,,,,,,,,,,,,,,
294745,2022-12-05_21h45.56.433,vts_reward_expectancy_bt,2022.2.4,Win32,60.0240096,Chrome,1536,864,,,l,0.5135,1,307,1,1,6,18,3,1,0,1,0,0,1,0,0,0,circle,triangle,,,,,,,,,,,,,,,,,,,,,,,,,,,,,,,,,,,,,,,,,,,,,,,,,,,,,,
294745,2022-12-05_21h45.56.433,vts_reward_expectancy_bt,2022.2.4,Win32,60.0240096,Chrome,1536,864,,,l,0.5526,1,308,1,1,7,19,2,1,1,0,0,0,0,0,0,1,triangle,star,,,,,,,,,,,,,,,,,,,,,,,,,,,,,,,,,,,,,,,,,,,,,,,,,,,,,,
294745,2022-12-05_21h45.56.433,vts_reward_expectancy_bt,2022.2.4,Win32,60.0240096,Chrome,1536,864,,,a,0.3212,10,318,1,1,8,20,1,1,1,0,0,0,0,0,1,0,triangle,hexagon,,,,,,,,,,,,,,,,,,,,,,,,,,,,,,,,,,,,,,,,,,,,,,,,,,,,,,
294745,2022-12-05_21h45.56.433,vts_reward_expectancy_bt,2022.2.4,Win32,60.0240096,Chrome,1536,864,,,a,0.4694,10,328,1,1,9,21,9,1,0,0,0,1,1,0,0,0,star,triangle,,,,,,,,,,,,,,,,,,,,,,,,,,,,,,,,,,,,,,,,,,,,,,,,,,,,,,
294745,2022-12-05_21h45.56.433,vts_reward_expectancy_bt,2022.2.4,Win32,60.0240096,Chrome,1536,864,,,l,0.3566,1,329,1,1,10,22,8,1,0,0,1,0,0,0,0,1,hexagon,star,,,,,,,,,,,,,,,,,,,,,,,,,,,,,,,,,,,,,,,,,,,,,,,,,,,,,,
294745,2022-12-05_21h45.56.433,vts_reward_expectancy_bt,2022.2.4,Win32,60.0240096,Chrome,1536,864,,,a,0.5104,1,330,1,1,11,23,0,1,1,0,0,0,0,1,0,0,triangle,circle,,,,,,,,,,,,,,,,,,,,,,,,,,,,,,,,,,,,,,,,,,,,,,,,,,,,,,
294745,2022-12-05_21h45.56.433,vts_reward_expectancy_bt,2022.2.4,Win32,60.0240096,Chrome,1536,864,,,l,0.4653,10,340,1,2,0,24,2,1,1,0,0,0,0,0,0,1,triangle,star,,,,,,,,,,,,,,,,,,,,,,,,,,,,,,,,,,,,,,,,,,,,,,,,,,,,,,
294745,2022-12-05_21h45.56.433,vts_reward_expectancy_bt,2022.2.4,Win32,60.0240096,Chrome,1536,864,,,a,0.6258,10,350,1,2,1,25,6,1,0,0,1,0,1,0,0,0,hexagon,triangle,,,,,,,,,,,,,,,,,,,,,,,,,,,,,,,,,,,,,,,,,,,,,,,,,,,,,,
294745,2022-12-05_21h45.56.433,vts_reward_expectancy_bt,2022.2.4,Win32,60.0240096,Chrome,1536,864,,,l,0.5678,1,351,1,2,2,26,8,1,0,0,1,0,0,0,0,1,hexagon,star,,,,,,,,,,,,,,,,,,,,,,,,,,,,,,,,,,,,,,,,,,,,,,,,,,,,,,
294745,2022-12-05_21h45.56.433,vts_reward_expectancy_bt,2022.2.4,Win32,60.0240096,Chrome,1536,864,,,a,0.4835,1,352,1,2,3,27,9,1,0,0,0,1,1,0,0,0,star,triangle,,,,,,,,,,,,,,,,,,,,,,,,,,,,,,,,,,,,,,,,,,,,,,,,,,,,,,
294745,2022-12-05_21h45.56.433,vts_reward_expectancy_bt,2022.2.4,Win32,60.0240096,Chrome,1536,864,,,l,0.8622,1,353,1,2,4,28,10,1,0,0,0,1,0,1,0,0,star ,circle,,,,,,,,,,,,,,,,,,,,,,,,,,,,,,,,,,,,,,,,,,,,,,,,,,,,,,
294745,2022-12-05_21h45.56.433,vts_reward_expectancy_bt,2022.2.4,Win32,60.0240096,Chrome,1536,864,,,l,0.6668,10,363,1,2,5,29,1,1,1,0,0,0,0,0,1,0,triangle,hexagon,,,,,,,,,,,,,,,,,,,,,,,,,,,,,,,,,,,,,,,,,,,,,,,,,,,,,,
294745,2022-12-05_21h45.56.433,vts_reward_expectancy_bt,2022.2.4,Win32,60.0240096,Chrome,1536,864,,,a,0.5164,10,373,1,2,6,30,7,1,0,0,1,0,0,1,0,0,hexagon,circle,,,,,,,,,,,,,,,,,,,,,,,,,,,,,,,,,,,,,,,,,,,,,,,,,,,,,,
294745,2022-12-05_21h45.56.433,vts_reward_expectancy_bt,2022.2.4,Win32,60.0240096,Chrome,1536,864,,,l,0.8705,1,374,1,2,7,31,0,1,1,0,0,0,0,1,0,0,triangle,circle,,,,,,,,,,,,,,,,,,,,,,,,,,,,,,,,,,,,,,,,,,,,,,,,,,,,,,
294745,2022-12-05_21h45.56.433,vts_reward_expectancy_bt,2022.2.4,Win32,60.0240096,Chrome,1536,864,,,l,0.8646,10,384,1,2,8,32,4,1,0,1,0,0,0,0,1,0,circle,hexagon,,,,,,,,,,,,,,,,,,,,,,,,,,,,,,,,,,,,,,,,,,,,,,,,,,,,,,
294745,2022-12-05_21h45.56.433,vts_reward_expectancy_bt,2022.2.4,Win32,60.0240096,Chrome,1536,864,,,a,0.4584,1,385,1,2,9,33,3,1,0,1,0,0,1,0,0,0,circle,triangle,,,,,,,,,,,,,,,,,,,,,,,,,,,,,,,,,,,,,,,,,,,,,,,,,,,,,,
294745,2022-12-05_21h45.56.433,vts_reward_expectancy_bt,2022.2.4,Win32,60.0240096,Chrome,1536,864,,,a,0.4951,10,395,1,2,10,34,11,1,0,0,0,1,0,0,1,0,star,hexagon,,,,,,,,,,,,,,,,,,,,,,,,,,,,,,,,,,,,,,,,,,,,,,,,,,,,,,
294745,2022-12-05_21h45.56.433,vts_reward_expectancy_bt,2022.2.4,Win32,60.0240096,Chrome,1536,864,,,l,0.4545,10,405,1,2,11,35,5,1,0,1,0,0,0,0,0,1,circle,star,,,,,,,,,,,,,,,,,,,,,,,,,,,,,,,,,,,,,,,,,,,,,,,,,,,,,,
294745,2022-12-05_21h45.56.433,vts_reward_expectancy_bt,2022.2.4,Win32,60.0240096,Chrome,1536,864,,,a,1.3291,1,406,2,0,0,0,3,1,0,1,0,0,1,0,0,0,circle,triangle,,,,,,,,,,,,,,,,,,,,,,,,,,,,,,,,,,,,,,,,,,,,,,,,,,,,,,
294745,2022-12-05_21h45.56.433,vts_reward_expectancy_bt,2022.2.4,Win32,60.0240096,Chrome,1536,864,,,a,0.6337,10,416,2,0,1,1,7,1,0,0,1,0,0,1,0,0,hexagon,circle,,,,,,,,,,,,,,,,,,,,,,,,,,,,,,,,,,,,,,,,,,,,,,,,,,,,,,
294745,2022-12-05_21h45.56.433,vts_reward_expectancy_bt,2022.2.4,Win32,60.0240096,Chrome,1536,864,,,a,0.7804,10,426,2,0,2,2,6,1,0,0,1,0,1,0,0,0,hexagon,triangle,,,,,,,,,,,,,,,,,,,,,,,,,,,,,,,,,,,,,,,,,,,,,,,,,,,,,,
294745,2022-12-05_21h45.56.433,vts_reward_expectancy_bt,2022.2.4,Win32,60.0240096,Chrome,1536,864,,,l,0.4846,10,436,2,0,3,3,4,1,0,1,0,0,0,0,1,0,circle,hexagon,,,,,,,,,,,,,,,,,,,,,,,,,,,,,,,,,,,,,,,,,,,,,,,,,,,,,,
294745,2022-12-05_21h45.56.433,vts_reward_expectancy_bt,2022.2.4,Win32,60.0240096,Chrome,1536,864,,,l,0.5431,10,446,2,0,4,4,2,1,1,0,0,0,0,0,0,1,triangle,star,,,,,,,,,,,,,,,,,,,,,,,,,,,,,,,,,,,,,,,,,,,,,,,,,,,,,,
294745,2022-12-05_21h45.56.433,vts_reward_expectancy_bt,2022.2.4,Win32,60.0240096,Chrome,1536,864,,,a,0.5131,1,447,2,0,5,5,0,1,1,0,0,0,0,1,0,0,triangle,circle,,,,,,,,,,,,,,,,,,,,,,,,,,,,,,,,,,,,,,,,,,,,,,,,,,,,,,
294745,2022-12-05_21h45.56.433,vts_reward_expectancy_bt,2022.2.4,Win32,60.0240096,Chrome,1536,864,,,l,0.6167,1,448,2,0,6,6,1,1,1,0,0,0,0,0,1,0,triangle,hexagon,,,,,,,,,,,,,,,,,,,,,,,,,,,,,,,,,,,,,,,,,,,,,,,,,,,,,,
294745,2022-12-05_21h45.56.433,vts_reward_expectancy_bt,2022.2.4,Win32,60.0240096,Chrome,1536,864,,,l,0.483,1,449,2,0,7,7,5,1,0,1,0,0,0,0,0,1,circle,star,,,,,,,,,,,,,,,,,,,,,,,,,,,,,,,,,,,,,,,,,,,,,,,,,,,,,,
294745,2022-12-05_21h45.56.433,vts_reward_expectancy_bt,2022.2.4,Win32,60.0240096,Chrome,1536,864,,,l,0.5824,1,450,2,0,8,8,9,1,0,0,0,1,1,0,0,0,star,triangle,,,,,,,,,,,,,,,,,,,,,,,,,,,,,,,,,,,,,,,,,,,,,,,,,,,,,,
294745,2022-12-05_21h45.56.433,vts_reward_expectancy_bt,2022.2.4,Win32,60.0240096,Chrome,1536,864,,,l,0.3222,1,451,2,0,9,9,10,1,0,0,0,1,0,1,0,0,star ,circle,,,,,,,,,,,,,,,,,,,,,,,,,,,,,,,,,,,,,,,,,,,,,,,,,,,,,,
294745,2022-12-05_21h45.56.433,vts_reward_expectancy_bt,2022.2.4,Win32,60.0240096,Chrome,1536,864,,,a,0.2993,10,461,2,0,10,10,11,1,0,0,0,1,0,0,1,0,star,hexagon,,,,,,,,,,,,,,,,,,,,,,,,,,,,,,,,,,,,,,,,,,,,,,,,,,,,,,
294745,2022-12-05_21h45.56.433,vts_reward_expectancy_bt,2022.2.4,Win32,60.0240096,Chrome,1536,864,,,l,0.4273,1,462,2,0,11,11,8,1,0,0,1,0,0,0,0,1,hexagon,star,,,,,,,,,,,,,,,,,,,,,,,,,,,,,,,,,,,,,,,,,,,,,,,,,,,,,,
294745,2022-12-05_21h45.56.433,vts_reward_expectancy_bt,2022.2.4,Win32,60.0240096,Chrome,1536,864,,,a,0.4574,10,472,2,1,0,12,8,1,0,0,1,0,0,0,0,1,hexagon,star,,,,,,,,,,,,,,,,,,,,,,,,,,,,,,,,,,,,,,,,,,,,,,,,,,,,,,
294745,2022-12-05_21h45.56.433,vts_reward_expectancy_bt,2022.2.4,Win32,60.0240096,Chrome,1536,864,,,l,0.423,10,482,2,1,1,13,1,1,1,0,0,0,0,0,1,0,triangle,hexagon,,,,,,,,,,,,,,,,,,,,,,,,,,,,,,,,,,,,,,,,,,,,,,,,,,,,,,
294745,2022-12-05_21h45.56.433,vts_reward_expectancy_bt,2022.2.4,Win32,60.0240096,Chrome,1536,864,,,l,0.6532,1,483,2,1,2,14,7,1,0,0,1,0,0,1,0,0,hexagon,circle,,,,,,,,,,,,,,,,,,,,,,,,,,,,,,,,,,,,,,,,,,,,,,,,,,,,,,
294745,2022-12-05_21h45.56.433,vts_reward_expectancy_bt,2022.2.4,Win32,60.0240096,Chrome,1536,864,,,a,0.4817,10,493,2,1,3,15,3,1,0,1,0,0,1,0,0,0,circle,triangle,,,,,,,,,,,,,,,,,,,,,,,,,,,,,,,,,,,,,,,,,,,,,,,,,,,,,,
294745,2022-12-05_21h45.56.433,vts_reward_expectancy_bt,2022.2.4,Win32,60.0240096,Chrome,1536,864,,,l,0.433,10,503,2,1,4,16,4,1,0,1,0,0,0,0,1,0,circle,hexagon,,,,,,,,,,,,,,,,,,,,,,,,,,,,,,,,,,,,,,,,,,,,,,,,,,,,,,
294745,2022-12-05_21h45.56.433,vts_reward_expectancy_bt,2022.2.4,Win32,60.0240096,Chrome,1536,864,,,a,0.3692,10,513,2,1,5,17,10,1,0,0,0,1,0,1,0,0,star ,circle,,,,,,,,,,,,,,,,,,,,,,,,,,,,,,,,,,,,,,,,,,,,,,,,,,,,,,
294745,2022-12-05_21h45.56.433,vts_reward_expectancy_bt,2022.2.4,Win32,60.0240096,Chrome,1536,864,,,l,0.3814,1,514,2,1,6,18,5,1,0,1,0,0,0,0,0,1,circle,star,,,,,,,,,,,,,,,,,,,,,,,,,,,,,,,,,,,,,,,,,,,,,,,,,,,,,,
294745,2022-12-05_21h45.56.433,vts_reward_expectancy_bt,2022.2.4,Win32,60.0240096,Chrome,1536,864,,,a,0.2675,1,515,2,1,7,19,9,1,0,0,0,1,1,0,0,0,star,triangle,,,,,,,,,,,,,,,,,,,,,,,,,,,,,,,,,,,,,,,,,,,,,,,,,,,,,,
294745,2022-12-05_21h45.56.433,vts_reward_expectancy_bt,2022.2.4,Win32,60.0240096,Chrome,1536,864,,,l,0.3005,10,525,2,1,8,20,11,1,0,0,0,1,0,0,1,0,star,hexagon,,,,,,,,,,,,,,,,,,,,,,,,,,,,,,,,,,,,,,,,,,,,,,,,,,,,,,
294745,2022-12-05_21h45.56.433,vts_reward_expectancy_bt,2022.2.4,Win32,60.0240096,Chrome,1536,864,,,l,0.5003,1,526,2,1,9,21,0,1,1,0,0,0,0,1,0,0,triangle,circle,,,,,,,,,,,,,,,,,,,,,,,,,,,,,,,,,,,,,,,,,,,,,,,,,,,,,,
294745,2022-12-05_21h45.56.433,vts_reward_expectancy_bt,2022.2.4,Win32,60.0240096,Chrome,1536,864,,,a,0.8407,10,536,2,1,10,22,6,1,0,0,1,0,1,0,0,0,hexagon,triangle,,,,,,,,,,,,,,,,,,,,,,,,,,,,,,,,,,,,,,,,,,,,,,,,,,,,,,
294745,2022-12-05_21h45.56.433,vts_reward_expectancy_bt,2022.2.4,Win32,60.0240096,Chrome,1536,864,,,a,1.265,1,537,2,1,11,23,2,1,1,0,0,0,0,0,0,1,triangle,star,,,,,,,,,,,,,,,,,,,,,,,,,,,,,,,,,,,,,,,,,,,,,,,,,,,,,,
294745,2022-12-05_21h45.56.433,vts_reward_expectancy_bt,2022.2.4,Win32,60.0240096,Chrome,1536,864,,,l,0.6186,10,547,2,2,0,24,7,1,0,0,1,0,0,1,0,0,hexagon,circle,,,,,,,,,,,,,,,,,,,,,,,,,,,,,,,,,,,,,,,,,,,,,,,,,,,,,,
294745,2022-12-05_21h45.56.433,vts_reward_expectancy_bt,2022.2.4,Win32,60.0240096,Chrome,1536,864,,,a,0.48,10,557,2,2,1,25,0,1,1,0,0,0,0,1,0,0,triangle,circle,,,,,,,,,,,,,,,,,,,,,,,,,,,,,,,,,,,,,,,,,,,,,,,,,,,,,,
294745,2022-12-05_21h45.56.433,vts_reward_expectancy_bt,2022.2.4,Win32,60.0240096,Chrome,1536,864,,,l,0.4663,1,558,2,2,2,26,2,1,1,0,0,0,0,0,0,1,triangle,star,,,,,,,,,,,,,,,,,,,,,,,,,,,,,,,,,,,,,,,,,,,,,,,,,,,,,,
294745,2022-12-05_21h45.56.433,vts_reward_expectancy_bt,2022.2.4,Win32,60.0240096,Chrome,1536,864,,,a,0.4164,10,568,2,2,3,27,11,1,0,0,0,1,0,0,1,0,star,hexagon,,,,,,,,,,,,,,,,,,,,,,,,,,,,,,,,,,,,,,,,,,,,,,,,,,,,,,
294745,2022-12-05_21h45.56.433,vts_reward_expectancy_bt,2022.2.4,Win32,60.0240096,Chrome,1536,864,,,l,1.0752,10,578,2,2,4,28,5,1,0,1,0,0,0,0,0,1,circle,star,,,,,,,,,,,,,,,,,,,,,,,,,,,,,,,,,,,,,,,,,,,,,,,,,,,,,,
294745,2022-12-05_21h45.56.433,vts_reward_expectancy_bt,2022.2.4,Win32,60.0240096,Chrome,1536,864,,,a,0.4773,10,588,2,2,5,29,10,1,0,0,0,1,0,1,0,0,star ,circle,,,,,,,,,,,,,,,,,,,,,,,,,,,,,,,,,,,,,,,,,,,,,,,,,,,,,,
294745,2022-12-05_21h45.56.433,vts_reward_expectancy_bt,2022.2.4,Win32,60.0240096,Chrome,1536,864,,,a,0.9173,1,589,2,2,6,30,9,1,0,0,0,1,1,0,0,0,star,triangle,,,,,,,,,,,,,,,,,,,,,,,,,,,,,,,,,,,,,,,,,,,,,,,,,,,,,,
294745,2022-12-05_21h45.56.433,vts_reward_expectancy_bt,2022.2.4,Win32,60.0240096,Chrome,1536,864,,,a,1.3153,1,590,2,2,7,31,6,1,0,0,1,0,1,0,0,0,hexagon,triangle,,,,,,,,,,,,,,,,,,,,,,,,,,,,,,,,,,,,,,,,,,,,,,,,,,,,,,
294745,2022-12-05_21h45.56.433,vts_reward_expectancy_bt,2022.2.4,Win32,60.0240096,Chrome,1536,864,,,l,0.6163,10,600,2,2,8,32,8,1,0,0,1,0,0,0,0,1,hexagon,star,,,,,,,,,,,,,,,,,,,,,,,,,,,,,,,,,,,,,,,,,,,,,,,,,,,,,,
294745,2022-12-05_21h45.56.433,vts_reward_expectancy_bt,2022.2.4,Win32,60.0240096,Chrome,1536,864,,,a,0.7817,1,601,2,2,9,33,4,1,0,1,0,0,0,0,1,0,circle,hexagon,,,,,,,,,,,,,,,,,,,,,,,,,,,,,,,,,,,,,,,,,,,,,,,,,,,,,,
294745,2022-12-05_21h45.56.433,vts_reward_expectancy_bt,2022.2.4,Win32,60.0240096,Chrome,1536,864,,,l,1.0668,10,611,2,2,10,34,1,1,1,0,0,0,0,0,1,0,triangle,hexagon,,,,,,,,,,,,,,,,,,,,,,,,,,,,,,,,,,,,,,,,,,,,,,,,,,,,,,
294745,2022-12-05_21h45.56.433,vts_reward_expectancy_bt,2022.2.4,Win32,60.0240096,Chrome,1536,864,,,a,2.6689,1,612,2,2,11,35,3,1,0,1,0,0,1,0,0,0,circle,triangle,,,,,,,,,,,,,,,,,,,,,,,,,,,,,,,,,,,,,,,,,,,,,,,,,,,,,,
294745,2022-12-05_21h45.56.433,vts_reward_expectancy_bt,2022.2.4,Win32,60.0240096,Chrome,1536,864,,,,,,,,,,,,,,,,,,,,,,,181,B,hexagon,1,0,f,2.1429,0,0,0,0,0,1,,,,,,,,,,,,,,,,,,,,,,,,,,,,,,,,,,,,,,,,,
294745,2022-12-05_21h45.56.433,vts_reward_expectancy_bt,2022.2.4,Win32,60.0240096,Chrome,1536,864,,,,,,,,,,,,,,,,,,,,,,,132,Y,circle,1,0,d,0.7759,0,1,0,1,0,1,,,,,,,,,,,,,,,,,,,,,,,,,,,,,,,,,,,,,,,,,
294745,2022-12-05_21h45.56.433,vts_reward_expectancy_bt,2022.2.4,Win32,60.0240096,Chrome,1536,864,,,,,,,,,,,,,,,,,,,,,,,146,H,triangle,0,0,f,1.0199,0,2,0,2,0,1,,,,,,,,,,,,,,,,,,,,,,,,,,,,,,,,,,,,,,,,,
294745,2022-12-05_21h45.56.433,vts_reward_expectancy_bt,2022.2.4,Win32,60.0240096,Chrome,1536,864,,,,,,,,,,,,,,,,,,,,,,,167,W,star,1,1,f,0.8793,0,3,0,3,0,1,,,,,,,,,,,,,,,,,,,,,,,,,,,,,,,,,,,,,,,,,
294745,2022-12-05_21h45.56.433,vts_reward_expectancy_bt,2022.2.4,Win32,60.0240096,Chrome,1536,864,,,,,,,,,,,,,,,,,,,,,,,125,S,hexagon,1,0,d,0.6711,0,4,0,4,0,1,,,,,,,,,,,,,,,,,,,,,,,,,,,,,,,,,,,,,,,,,
294745,2022-12-05_21h45.56.433,vts_reward_expectancy_bt,2022.2.4,Win32,60.0240096,Chrome,1536,864,,,,,,,,,,,,,,,,,,,,,,,174,D,circle,1,0,f,0.7199,0,5,0,5,0,1,,,,,,,,,,,,,,,,,,,,,,,,,,,,,,,,,,,,,,,,,
294745,2022-12-05_21h45.56.433,vts_reward_expectancy_bt,2022.2.4,Win32,60.0240096,Chrome,1536,864,,,,,,,,,,,,,,,,,,,,,,,160,F,triangle,1,0,f,0.6368,0,6,0,6,0,1,,,,,,,,,,,,,,,,,,,,,,,,,,,,,,,,,,,,,,,,,
294745,2022-12-05_21h45.56.433,vts_reward_expectancy_bt,2022.2.4,Win32,60.0240096,Chrome,1536,864,,,,,,,,,,,,,,,,,,,,,,,139,U,star,1,0,d,1.3494,0,7,0,7,0,1,,,,,,,,,,,,,,,,,,,,,,,,,,,,,,,,,,,,,,,,,
294745,2022-12-05_21h45.56.433,vts_reward_expectancy_bt,2022.2.4,Win32,60.0240096,Chrome,1536,864,,,,,,,,,,,,,,,,,,,,,,,181,B,hexagon,1,0,f,0.6334,0,8,0,8,0,1,,,,,,,,,,,,,,,,,,,,,,,,,,,,,,,,,,,,,,,,,
294745,2022-12-05_21h45.56.433,vts_reward_expectancy_bt,2022.2.4,Win32,60.0240096,Chrome,1536,864,,,,,,,,,,,,,,,,,,,,,,,132,Y,star,1,0,d,1.0028,0,9,0,9,0,1,,,,,,,,,,,,,,,,,,,,,,,,,,,,,,,,,,,,,,,,,
294745,2022-12-05_21h45.56.433,vts_reward_expectancy_bt,2022.2.4,Win32,60.0240096,Chrome,1536,864,,,,,,,,,,,,,,,,,,,,,,,167,F,star,1,0,,,1,,,,,,j,1.9043,0,0,0,0,1,,,,,,,,,,,,,,,,,,,,,,,,,,,,,,,,,,
294745,2022-12-05_21h45.56.433,vts_reward_expectancy_bt,2022.2.4,Win32,60.0240096,Chrome,1536,864,,,,,,,,,,,,,,,,,,,,,,,181,D,hexagon,1,0,,,1,,,,,,j,0.8967,1,0,1,0,1,,,,,,,,,,,,,,,,,,,,,,,,,,,,,,,,,,
294745,2022-12-05_21h45.56.433,vts_reward_expectancy_bt,2022.2.4,Win32,60.0240096,Chrome,1536,864,,,,,,,,,,,,,,,,,,,,,,,174,B,triangle,1,0,,,1,,,,,,j,1.2452,2,0,2,0,1,,,,,,,,,,,,,,,,,,,,,,,,,,,,,,,,,,
294745,2022-12-05_21h45.56.433,vts_reward_expectancy_bt,2022.2.4,Win32,60.0240096,Chrome,1536,864,,,,,,,,,,,,,,,,,,,,,,,160,H,circle,1,0,,,1,,,,,,j,0.7362,3,0,3,0,1,,,,,,,,,,,,,,,,,,,,,,,,,,,,,,,,,,
294745,2022-12-05_21h45.56.433,vts_reward_expectancy_bt,2022.2.4,Win32,60.0240096,Chrome,1536,864,,,,,,,,,,,,,,,,,,,,,,,132,Y,star,1,0,,,1,,,,,,k,0.5412,4,0,4,0,1,,,,,,,,,,,,,,,,,,,,,,,,,,,,,,,,,,
294745,2022-12-05_21h45.56.433,vts_reward_expectancy_bt,2022.2.4,Win32,60.0240096,Chrome,1536,864,,,,,,,,,,,,,,,,,,,,,,,139,W,hexagon,1,0,,,1,,,,,,k,0.6521,5,0,5,0,1,,,,,,,,,,,,,,,,,,,,,,,,,,,,,,,,,,
294745,2022-12-05_21h45.56.433,vts_reward_expectancy_bt,2022.2.4,Win32,60.0240096,Chrome,1536,864,,,,,,,,,,,,,,,,,,,,,,,125,S,triangle,1,0,,,1,,,,,,k,0.6177,6,0,6,0,1,,,,,,,,,,,,,,,,,,,,,,,,,,,,,,,,,,
294745,2022-12-05_21h45.56.433,vts_reward_expectancy_bt,2022.2.4,Win32,60.0240096,Chrome,1536,864,,,,,,,,,,,,,,,,,,,,,,,146,U,circle,1,0,,,1,,,,,,k,0.7312,7,0,7,0,1,,,,,,,,,,,,,,,,,,,,,,,,,,,,,,,,,,
294745,2022-12-05_21h45.56.433,vts_reward_expectancy_bt,2022.2.4,Win32,60.0240096,Chrome,1536,864,,,,,,,,,,,,,,,,,,,,,,,167,F,star,0,0,,,1,,,,,,k,1.001,8,0,8,0,1,,,,,,,,,,,,,,,,,,,,,,,,,,,,,,,,,,
294745,2022-12-05_21h45.56.433,vts_reward_expectancy_bt,2022.2.4,Win32,60.0240096,Chrome,1536,864,,,,,,,,,,,,,,,,,,,,,,,181,D,hexagon,1,1,,,1,,,,,,j,0.6207,9,0,9,0,1,,,,,,,,,,,,,,,,,,,,,,,,,,,,,,,,,,
294745,2022-12-05_21h45.56.433,vts_reward_expectancy_bt,2022.2.4,Win32,60.0240096,Chrome,1536,864,,,,,0,612,,,,,,,,,,,,,,,,,146,W,star,-1,0,,,2,,,,,,,,,,,,,-1,no_choice,NA,,vtsPrac,0,0,0,0,1,,,,,,,,,,,,,,,,,,,,,,,,
294745,2022-12-05_21h45.56.433,vts_reward_expectancy_bt,2022.2.4,Win32,60.0240096,Chrome,1536,864,,,,,0,612,,,,,,,,,,,,,,,,,160,H,triangle,1,0,,,2,,,,,,,,,,,,,switch,number,numSwt,f,vtsPrac,1,0,1,0,1,0.7614,,,,,,,,,,,,,,,,,,,,,,,
294745,2022-12-05_21h45.56.433,vts_reward_expectancy_bt,2022.2.4,Win32,60.0240096,Chrome,1536,864,,,,,0,612,,,,,,,,,,,,,,,,,181,D,star,1,0,,,2,,,,,,,,,,,,,repeat,number,numRpt,f,vtsPrac,2,0,2,0,1,0.7356,,,,,,,,,,,,,,,,,,,,,,,
294745,2022-12-05_21h45.56.433,vts_reward_expectancy_bt,2022.2.4,Win32,60.0240096,Chrome,1536,864,,,,,0,612,,,,,,,,,,,,,,,,,167,Y,triangle,1,0,,,2,,,,,,,,,,,,,repeat,number,numRpt,f,vtsPrac,3,0,3,0,1,0.6846,,,,,,,,,,,,,,,,,,,,,,,
294745,2022-12-05_21h45.56.433,vts_reward_expectancy_bt,2022.2.4,Win32,60.0240096,Chrome,1536,864,,,,,0,612,,,,,,,,,,,,,,,,,146,W,triangle,1,0,,,2,,,,,,,,,,,,,repeat,number,numRpt,d,vtsPrac,4,0,4,0,1,0.5255,,,,,,,,,,,,,,,,,,,,,,,
294745,2022-12-05_21h45.56.433,vts_reward_expectancy_bt,2022.2.4,Win32,60.0240096,Chrome,1536,864,,,,,0,612,,,,,,,,,,,,,,,,,160,H,hexagon,1,0,,,2,,,,,,,,,,,,,repeat,number,numRpt,f,vtsPrac,5,0,5,0,1,0.9405,,,,,,,,,,,,,,,,,,,,,,,
294745,2022-12-05_21h45.56.433,vts_reward_expectancy_bt,2022.2.4,Win32,60.0240096,Chrome,1536,864,,,,,0,612,,,,,,,,,,,,,,,,,181,D,hexagon,1,0,,,2,,,,,,,,,,,,,repeat,number,numRpt,f,vtsPrac,6,0,6,0,1,0.4544,,,,,,,,,,,,,,,,,,,,,,,
294745,2022-12-05_21h45.56.433,vts_reward_expectancy_bt,2022.2.4,Win32,60.0240096,Chrome,1536,864,,,,,0,612,,,,,,,,,,,,,,,,,167,Y,circle,1,0,,,2,,,,,,,,,,,,,repeat,number,numRpt,f,vtsPrac,7,0,7,0,1,0.5135,,,,,,,,,,,,,,,,,,,,,,,
294745,2022-12-05_21h45.56.433,vts_reward_expectancy_bt,2022.2.4,Win32,60.0240096,Chrome,1536,864,,,,,0,612,,,,,,,,,,,,,,,,,167,D,hexagon,1,0,,,2,,,,,,,,,,,,,repeat,number,numRpt,f,vtsPrac,8,0,8,0,1,0.4672,,,,,,,,,,,,,,,,,,,,,,,
294745,2022-12-05_21h45.56.433,vts_reward_expectancy_bt,2022.2.4,Win32,60.0240096,Chrome,1536,864,,,,,0,612,,,,,,,,,,,,,,,,,139,W,star,0,0,,,2,,,,,,,,,,,,,repeat,number,NA,f,vtsPrac,9,0,9,0,1,0.3875,,,,,,,,,,,,,,,,,,,,,,,
294745,2022-12-05_21h45.56.433,vts_reward_expectancy_bt,2022.2.4,Win32,60.0240096,Chrome,1536,864,,,,,0,612,,,,,,,,,,,,,,,,,125,U,triangle,1,1,,,2,,,,,,,,,,,,,repeat,number,numRpt,d,vtsPrac,10,0,10,0,1,0.6638,,,,,,,,,,,,,,,,,,,,,,,
294745,2022-12-05_21h45.56.433,vts_reward_expectancy_bt,2022.2.4,Win32,60.0240096,Chrome,1536,864,,,,,0,612,,,,,,,,,,,,,,,,,146,S,star,1,0,,,2,,,,,,,,,,,,,repeat,number,numRpt,d,vtsPrac,11,0,11,0,1,0.9075,,,,,,,,,,,,,,,,,,,,,,,
294745,2022-12-05_21h45.56.433,vts_reward_expectancy_bt,2022.2.4,Win32,60.0240096,Chrome,1536,864,,,,,0,612,,,,,,,,,,,,,,,,,174,Y,star,1,0,,,2,,,,,,,,,,,,,repeat,number,numRpt,f,vtsPrac,12,0,12,0,1,0.554,,,,,,,,,,,,,,,,,,,,,,,
294745,2022-12-05_21h45.56.433,vts_reward_expectancy_bt,2022.2.4,Win32,60.0240096,Chrome,1536,864,,,,,0,612,,,,,,,,,,,,,,,,,181,B,circle,1,0,,,2,,,,,,,,,,,,,repeat,number,numRpt,f,vtsPrac,13,0,13,0,1,0.5687,,,,,,,,,,,,,,,,,,,,,,,
294745,2022-12-05_21h45.56.433,vts_reward_expectancy_bt,2022.2.4,Win32,60.0240096,Chrome,1536,864,,,,,0,612,,,,,,,,,,,,,,,,,139,H,triangle,1,0,,,2,,,,,,,,,,,,,repeat,number,numRpt,d,vtsPrac,14,0,14,0,1,0.6665,,,,,,,,,,,,,,,,,,,,,,,
294745,2022-12-05_21h45.56.433,vts_reward_expectancy_bt,2022.2.4,Win32,60.0240096,Chrome,1536,864,,,,,0,612,,,,,,,,,,,,,,,,,146,W,star,0,0,,,2,,,,,,,,,,,,,repeat,number,NA,f,vtsPrac,15,0,15,0,1,0.9452,,,,,,,,,,,,,,,,,,,,,,,
294745,2022-12-05_21h45.56.433,vts_reward_expectancy_bt,2022.2.4,Win32,60.0240096,Chrome,1536,864,,,,,0,612,,,,,,,,,,,,,,,,,181,S,star,1,1,,,2,,,,,,,,,,,,,repeat,number,numRpt,f,vtsPrac,16,0,16,0,1,0.7692,,,,,,,,,,,,,,,,,,,,,,,
294745,2022-12-05_21h45.56.433,vts_reward_expectancy_bt,2022.2.4,Win32,60.0240096,Chrome,1536,864,,,,,0,612,,,,,,,,,,,,,,,,,132,U,hexagon,1,0,,,2,,,,,,,,,,,,,repeat,number,numRpt,d,vtsPrac,17,0,17,0,1,0.431,,,,,,,,,,,,,,,,,,,,,,,
294745,2022-12-05_21h45.56.433,vts_reward_expectancy_bt,2022.2.4,Win32,60.0240096,Chrome,1536,864,,,,,0,612,,,,,,,,,,,,,,,,,174,W,triangle,1,0,,,2,,,,,,,,,,,,,repeat,number,numRpt,f,vtsPrac,18,0,18,0,1,0.7683,,,,,,,,,,,,,,,,,,,,,,,
294745,2022-12-05_21h45.56.433,vts_reward_expectancy_bt,2022.2.4,Win32,60.0240096,Chrome,1536,864,,,,,0,612,,,,,,,,,,,,,,,,,125,D,circle,1,0,,,2,,,,,,,,,,,,,repeat,number,numRpt,d,vtsPrac,19,0,19,0,1,0.8187,,,,,,,,,,,,,,,,,,,,,,,
294745,2022-12-05_21h45.56.433,vts_reward_expectancy_bt,2022.2.4,Win32,60.0240096,Chrome,1536,864,,,,,0,612,,,,,,,,,,,,,,,,,132,W,circle,1,0,,,2,,,,,,,,,,,,,repeat,number,numRpt,d,vtsPrac,20,0,20,0,1,0.6986,,,,,,,,,,,,,,,,,,,,,,,
294745,2022-12-05_21h45.56.433,vts_reward_expectancy_bt,2022.2.4,Win32,60.0240096,Chrome,1536,864,,,,,0,612,,,,,,,,,,,,,,,,,125,H,star,1,0,,,2,,,,,,,,,,,,,repeat,number,numRpt,d,vtsPrac,21,0,21,0,1,0.6874,,,,,,,,,,,,,,,,,,,,,,,
294745,2022-12-05_21h45.56.433,vts_reward_expectancy_bt,2022.2.4,Win32,60.0240096,Chrome,1536,864,,,,,0,612,,,,,,,,,,,,,,,,,139,F,triangle,1,0,,,2,,,,,,,,,,,,,repeat,number,numRpt,d,vtsPrac,22,0,22,0,1,0.8447,,,,,,,,,,,,,,,,,,,,,,,
294745,2022-12-05_21h45.56.433,vts_reward_expectancy_bt,2022.2.4,Win32,60.0240096,Chrome,1536,864,,,,,0,612,,,,,,,,,,,,,,,,,174,Y,hexagon,1,0,,,2,,,,,,,,,,,,,repeat,number,numRpt,f,vtsPrac,23,0,23,0,1,0.7387,,,,,,,,,,,,,,,,,,,,,,,
294745,2022-12-05_21h45.56.433,vts_reward_expectancy_bt,2022.2.4,Win32,60.0240096,Chrome,1536,864,,,,,0,612,,,,,,,,,,,,,,,,,146,S,circle,1,0,,,2,,,,,,,,,,,,,repeat,number,numRpt,d,vtsPrac,24,0,24,0,1,0.6874,,,,,,,,,,,,,,,,,,,,,,,
294745,2022-12-05_21h45.56.433,vts_reward_expectancy_bt,2022.2.4,Win32,60.0240096,Chrome,1536,864,,,,,0,612,,,,,,,,,,,,,,,,,167,Y,star,1,0,,,2,,,,,,,,,,,,,repeat,number,numRpt,f,vtsPrac,25,0,25,0,1,0.6214,,,,,,,,,,,,,,,,,,,,,,,
294745,2022-12-05_21h45.56.433,vts_reward_expectancy_bt,2022.2.4,Win32,60.0240096,Chrome,1536,864,,,,,0,612,,,,,,,,,,,,,,,,,125,B,circle,1,0,,,2,,,,,,,,,,,,,repeat,number,numRpt,d,vtsPrac,26,0,26,0,1,1.067,,,,,,,,,,,,,,,,,,,,,,,
294745,2022-12-05_21h45.56.433,vts_reward_expectancy_bt,2022.2.4,Win32,60.0240096,Chrome,1536,864,,,,,0,612,,,,,,,,,,,,,,,,,132,H,hexagon,1,0,,,2,,,,,,,,,,,,,repeat,number,numRpt,d,vtsPrac,27,0,27,0,1,0.6313,,,,,,,,,,,,,,,,,,,,,,,
294745,2022-12-05_21h45.56.433,vts_reward_expectancy_bt,2022.2.4,Win32,60.0240096,Chrome,1536,864,,,,,0,612,,,,,,,,,,,,,,,,,181,W,circle,1,0,,,2,,,,,,,,,,,,,repeat,number,numRpt,f,vtsPrac,28,0,28,0,1,0.6516,,,,,,,,,,,,,,,,,,,,,,,
294745,2022-12-05_21h45.56.433,vts_reward_expectancy_bt,2022.2.4,Win32,60.0240096,Chrome,1536,864,,,,,0,612,,,,,,,,,,,,,,,,,139,S,hexagon,1,0,,,2,,,,,,,,,,,,,repeat,number,numRpt,d,vtsPrac,29,0,29,0,1,0.784,,,,,,,,,,,,,,,,,,,,,,,
294745,2022-12-05_21h45.56.433,vts_reward_expectancy_bt,2022.2.4,Win32,60.0240096,Chrome,1536,864,,,,,0,612,,,,,,,,,,,,,,,,,160,U,triangle,1,0,,,2,,,,,,,,,,,,,repeat,number,numRpt,f,vtsPrac,30,0,30,0,1,0.7698,,,,,,,,,,,,,,,,,,,,,,,
294745,2022-12-05_21h45.56.433,vts_reward_expectancy_bt,2022.2.4,Win32,60.0240096,Chrome,1536,864,,,,,0,612,,,,,,,,,,,,,,,,,125,Y,hexagon,1,0,,,2,,,,,,,,,,,,,repeat,number,numRpt,d,vtsPrac,31,0,31,0,1,0.7025,,,,,,,,,,,,,,,,,,,,,,,
294745,2022-12-05_21h45.56.433,vts_reward_expectancy_bt,2022.2.4,Win32,60.0240096,Chrome,1536,864,,,,,0,612,,,,,,,,,,,,,,,,,146,D,hexagon,0,0,,,3,,,,,,,,,,,,,repeat,number,NA,f,vtsPrac,0,0,0,0,1,0.8975,,,,,,,,,,,,,,,,,,,,,,,
294745,2022-12-05_21h45.56.433,vts_reward_expectancy_bt,2022.2.4,Win32,60.0240096,Chrome,1536,864,,,,,0,612,,,,,,,,,,,,,,,,,132,W,star,1,1,,,3,,,,,,,,,,,,,switch,letter,lettSwt,k,vtsPrac,1,0,1,0,1,0.8858,,,,,,,,,,,,,,,,,,,,,,,
294745,2022-12-05_21h45.56.433,vts_reward_expectancy_bt,2022.2.4,Win32,60.0240096,Chrome,1536,864,,,,,0,612,,,,,,,,,,,,,,,,,174,H,hexagon,0,0,,,3,,,,,,,,,,,,,repeat,letter,NA,k,vtsPrac,2,0,2,0,1,0.7039,,,,,,,,,,,,,,,,,,,,,,,
294745,2022-12-05_21h45.56.433,vts_reward_expectancy_bt,2022.2.4,Win32,60.0240096,Chrome,1536,864,,,,,0,612,,,,,,,,,,,,,,,,,181,F,star,0,1,,,3,,,,,,,,,,,,,switch,number,NA,d,vtsPrac,3,0,3,0,1,1.2739,,,,,,,,,,,,,,,,,,,,,,,
294745,2022-12-05_21h45.56.433,vts_reward_expectancy_bt,2022.2.4,Win32,60.0240096,Chrome,1536,864,,,,,0,612,,,,,,,,,,,,,,,,,146,D,triangle,1,1,,,3,,,,,,,,,,,,,switch,letter,lettSwt,j,vtsPrac,4,0,4,0,1,1.7684,,,,,,,,,,,,,,,,,,,,,,,
294745,2022-12-05_21h45.56.433,vts_reward_expectancy_bt,2022.2.4,Win32,60.0240096,Chrome,1536,864,,,,,0,612,,,,,,,,,,,,,,,,,132,W,circle,1,0,,,3,,,,,,,,,,,,,repeat,letter,lettRpt,k,vtsPrac,5,0,5,0,1,1.0003,,,,,,,,,,,,,,,,,,,,,,,
294745,2022-12-05_21h45.56.433,vts_reward_expectancy_bt,2022.2.4,Win32,60.0240096,Chrome,1536,864,,,,,0,612,,,,,,,,,,,,,,,,,174,H,hexagon,1,0,,,3,,,,,,,,,,,,,switch,number,numSwt,f,vtsPrac,6,0,6,0,1,1.094,,,,,,,,,,,,,,,,,,,,,,,
294745,2022-12-05_21h45.56.433,vts_reward_expectancy_bt,2022.2.4,Win32,60.0240096,Chrome,1536,864,,,,,0,612,,,,,,,,,,,,,,,,,181,F,triangle,1,0,,,3,,,,,,,,,,,,,repeat,number,numRpt,f,vtsPrac,7,0,7,0,1,0.9184,,,,,,,,,,,,,,,,,,,,,,,
294745,2022-12-05_21h45.56.433,vts_reward_expectancy_bt,2022.2.4,Win32,60.0240096,Chrome,1536,864,,,,,0,612,,,,,,,,,,,,,,,,,125,B,triangle,1,0,,,3,,,,,,,,,,,,,repeat,number,numRpt,d,vtsPrac,8,0,8,0,1,1.0105,,,,,,,,,,,,,,,,,,,,,,,
294745,2022-12-05_21h45.56.433,vts_reward_expectancy_bt,2022.2.4,Win32,60.0240096,Chrome,1536,864,,,,,0,612,,,,,,,,,,,,,,,,,146,U,circle,1,0,,,3,,,,,,,,,,,,,switch,letter,lettSwt,k,vtsPrac,9,0,9,0,1,0.9002,,,,,,,,,,,,,,,,,,,,,,,
294745,2022-12-05_21h45.56.433,vts_reward_expectancy_bt,2022.2.4,Win32,60.0240096,Chrome,1536,864,,,,,0,612,,,,,,,,,,,,,,,,,174,S,triangle,1,0,,,3,,,,,,,,,,,,,switch,number,numSwt,f,vtsPrac,10,0,10,0,1,0.5393,,,,,,,,,,,,,,,,,,,,,,,
294745,2022-12-05_21h45.56.433,vts_reward_expectancy_bt,2022.2.4,Win32,60.0240096,Chrome,1536,864,,,,,0,612,,,,,,,,,,,,,,,,,132,D,circle,1,0,,,3,,,,,,,,,,,,,switch,letter,lettSwt,j,vtsPrac,11,0,11,0,1,0.7927,,,,,,,,,,,,,,,,,,,,,,,
294745,2022-12-05_21h45.56.433,vts_reward_expectancy_bt,2022.2.4,Win32,60.0240096,Chrome,1536,864,,,,,0,612,,,,,,,,,,,,,,,,,160,W,hexagon,1,0,,,3,,,,,,,,,,,,,repeat,letter,lettRpt,k,vtsPrac,12,0,12,0,1,0.7241,,,,,,,,,,,,,,,,,,,,,,,
294745,2022-12-05_21h45.56.433,vts_reward_expectancy_bt,2022.2.4,Win32,60.0240096,Chrome,1536,864,,,,,0,612,,,,,,,,,,,,,,,,,174,S,star,1,0,,,3,,,,,,,,,,,,,repeat,letter,lettRpt,k,vtsPrac,13,0,13,0,1,0.6413,,,,,,,,,,,,,,,,,,,,,,,
294745,2022-12-05_21h45.56.433,vts_reward_expectancy_bt,2022.2.4,Win32,60.0240096,Chrome,1536,864,,,,,0,612,,,,,,,,,,,,,,,,,167,B,star,1,0,,,3,,,,,,,,,,,,,repeat,letter,lettRpt,j,vtsPrac,14,0,14,0,1,0.7223,,,,,,,,,,,,,,,,,,,,,,,
294745,2022-12-05_21h45.56.433,vts_reward_expectancy_bt,2022.2.4,Win32,60.0240096,Chrome,1536,864,,,,,0,612,,,,,,,,,,,,,,,,,132,D,triangle,1,0,,,3,,,,,,,,,,,,,switch,number,numSwt,d,vtsPrac,15,0,15,0,1,0.7863,,,,,,,,,,,,,,,,,,,,,,,
294745,2022-12-05_21h45.56.433,vts_reward_expectancy_bt,2022.2.4,Win32,60.0240096,Chrome,1536,864,,,,,0,612,,,,,,,,,,,,,,,,,181,Y,circle,1,0,,,3,,,,,,,,,,,,,repeat,number,numRpt,f,vtsPrac,16,0,16,0,1,1.3662,,,,,,,,,,,,,,,,,,,,,,,
294745,2022-12-05_21h45.56.433,vts_reward_expectancy_bt,2022.2.4,Win32,60.0240096,Chrome,1536,864,,,,,0,612,,,,,,,,,,,,,,,,,132,D,triangle,1,0,,,3,,,,,,,,,,,,,repeat,number,numRpt,d,vtsPrac,17,0,17,0,1,0.6335,,,,,,,,,,,,,,,,,,,,,,,
294745,2022-12-05_21h45.56.433,vts_reward_expectancy_bt,2022.2.4,Win32,60.0240096,Chrome,1536,864,,,,,0,612,,,,,,,,,,,,,,,,,125,B,triangle,1,0,,,3,,,,,,,,,,,,,repeat,number,numRpt,d,vtsPrac,18,0,18,0,1,0.8048,,,,,,,,,,,,,,,,,,,,,,,
294745,2022-12-05_21h45.56.433,vts_reward_expectancy_bt,2022.2.4,Win32,60.0240096,Chrome,1536,864,,,,,0,612,,,,,,,,,,,,,,,,,167,H,circle,1,0,,,3,,,,,,,,,,,,,switch,letter,lettSwt,j,vtsPrac,19,0,19,0,1,2.0368,,,,,,,,,,,,,,,,,,,,,,,
294745,2022-12-05_21h45.56.433,vts_reward_expectancy_bt,2022.2.4,Win32,60.0240096,Chrome,1536,864,,,,,0,612,,,,,,,,,,,,,,,,,167,Y,circle,1,0,,,3,,,,,,,,,,,,,repeat,letter,lettRpt,k,vtsPrac,20,0,20,0,1,0.7841,,,,,,,,,,,,,,,,,,,,,,,
294745,2022-12-05_21h45.56.433,vts_reward_expectancy_bt,2022.2.4,Win32,60.0240096,Chrome,1536,864,,,,,0,612,,,,,,,,,,,,,,,,,160,S,star,1,0,,,3,,,,,,,,,,,,,repeat,letter,lettRpt,k,vtsPrac,21,0,21,0,1,0.8917,,,,,,,,,,,,,,,,,,,,,,,
294745,2022-12-05_21h45.56.433,vts_reward_expectancy_bt,2022.2.4,Win32,60.0240096,Chrome,1536,864,,,,,0,612,,,,,,,,,,,,,,,,,139,B,triangle,1,0,,,3,,,,,,,,,,,,,repeat,letter,lettRpt,j,vtsPrac,22,0,22,0,1,1.6755,,,,,,,,,,,,,,,,,,,,,,,
294745,2022-12-05_21h45.56.433,vts_reward_expectancy_bt,2022.2.4,Win32,60.0240096,Chrome,1536,864,,,,,0,612,,,,,,,,,,,,,,,,,132,W,star,1,0,,,3,,,,,,,,,,,,,switch,number,numSwt,d,vtsPrac,23,0,23,0,1,1.4531,,,,,,,,,,,,,,,,,,,,,,,
294745,2022-12-05_21h45.56.433,vts_reward_expectancy_bt,2022.2.4,Win32,60.0240096,Chrome,1536,864,,,,,0,612,,,,,,,,,,,,,,,,,160,D,triangle,-1,0,,,3,,,,,,,,,,,,,switch,no_choice,NA,,vtsPrac,24,0,24,0,1,,,,,,,,,,,,,,,,,,,,,,,,
294745,2022-12-05_21h45.56.433,vts_reward_expectancy_bt,2022.2.4,Win32,60.0240096,Chrome,1536,864,,,,,0,612,,,,,,,,,,,,,,,,,146,W,circle,1,0,,,3,,,,,,,,,,,,,switch,letter,lettSwt,k,vtsPrac,25,0,25,0,1,1.2234,,,,,,,,,,,,,,,,,,,,,,,
294745,2022-12-05_21h45.56.433,vts_reward_expectancy_bt,2022.2.4,Win32,60.0240096,Chrome,1536,864,,,,,0,612,,,,,,,,,,,,,,,,,139,Y,star,1,0,,,3,,,,,,,,,,,,,switch,number,numSwt,d,vtsPrac,26,0,26,0,1,0.8029,,,,,,,,,,,,,,,,,,,,,,,
294745,2022-12-05_21h45.56.433,vts_reward_expectancy_bt,2022.2.4,Win32,60.0240096,Chrome,1536,864,,,,,0,612,,,,,,,,,,,,,,,,,181,S,circle,1,0,,,3,,,,,,,,,,,,,switch,letter,lettSwt,k,vtsPrac,27,0,27,0,1,0.6539,,,,,,,,,,,,,,,,,,,,,,,
294745,2022-12-05_21h45.56.433,vts_reward_expectancy_bt,2022.2.4,Win32,60.0240096,Chrome,1536,864,,,,,0,612,,,,,,,,,,,,,,,,,132,Y,triangle,1,0,,,3,,,,,,,,,,,,,repeat,letter,lettRpt,k,vtsPrac,28,0,28,0,1,0.5994,,,,,,,,,,,,,,,,,,,,,,,
294745,2022-12-05_21h45.56.433,vts_reward_expectancy_bt,2022.2.4,Win32,60.0240096,Chrome,1536,864,,,,,0,612,,,,,,,,,,,,,,,,,160,U,circle,1,0,,,3,,,,,,,,,,,,,switch,number,numSwt,f,vtsPrac,29,0,29,0,1,0.7545,,,,,,,,,,,,,,,,,,,,,,,
294745,2022-12-05_21h45.56.433,vts_reward_expectancy_bt,2022.2.4,Win32,60.0240096,Chrome,1536,864,,,,,0,612,,,,,,,,,,,,,,,,,181,H,star,1,0,,,3,,,,,,,,,,,,,repeat,number,numRpt,f,vtsPrac,30,0,30,0,1,1.0203,,,,,,,,,,,,,,,,,,,,,,,
294745,2022-12-05_21h45.56.433,vts_reward_expectancy_bt,2022.2.4,Win32,60.0240096,Chrome,1536,864,,,,,0,612,,,,,,,,,,,,,,,,,146,D,hexagon,0,0,,,3,,,,,,,,,,,,,switch,letter,NA,k,vtsPrac,31,0,31,0,1,0.5083,,,,,,,,,,,,,,,,,,,,,,,
294745,2022-12-05_21h45.56.433,vts_reward_expectancy_bt,2022.2.4,Win32,60.0240096,Chrome,1536,864,,,,,,,,,,,,,,,,,,,,,,,,,,,,,,,,,,,,,,,,,,,,,,,,,,,,,,,,,,,,,,,,,,,,,,,,,,,,
294745,2022-12-05_21h45.56.433,vts_reward_expectancy_bt,2022.2.4,Win32,60.0240096,Chrome,1536,864,,,,,,,,,,,,,,,,,,,,,,,,,,,,,,,,,,,,,,,,,,,,,,,,,,,,,,,,,,,,,,,,,,,,,,,,,,,,
294745,2022-12-05_21h45.56.433,vts_reward_expectancy_bt,2022.2.4,Win32,60.0240096,Chrome,1536,864,,,,,0,612,,,,,,,,,,,,,,,,,125,W,hexagon,1,1,,,,,,,,,,,,,,,,repeat,letter,lettRpt,k,noRew,,,,,,1.1528,0,0,0,0,0,1,,,,,,,,,,,,,,,,,
294745,2022-12-05_21h45.56.433,vts_reward_expectancy_bt,2022.2.4,Win32,60.0240096,Chrome,1536,864,,,,,0,612,,,,,,,,,,,,,,,,,160,U,circle,0,0,,,,,,,,,,,,,,,,switch,number,NA,d,noRew,,,,,,0.9881,0,1,0,1,0,1,,,,,,,,,,,,,,,,,
294745,2022-12-05_21h45.56.433,vts_reward_expectancy_bt,2022.2.4,Win32,60.0240096,Chrome,1536,864,,,,,0,612,,,,,,,,,,,,,,,,,174,S,hexagon,1,1,,,,,,,,,,,,,,,,repeat,number,numRpt,f,noRew,,,,,,0.5196,0,2,0,2,0,1,,,,,,,,,,,,,,,,,
294745,2022-12-05_21h45.56.433,vts_reward_expectancy_bt,2022.2.4,Win32,60.0240096,Chrome,1536,864,,,,,0,612,,,,,,,,,,,,,,,,,146,F,circle,0,0,,,,,,,,,,,,,,,,switch,letter,NA,k,noRew,,,,,,0.8927,0,3,0,3,0,1,,,,,,,,,,,,,,,,,
294745,2022-12-05_21h45.56.433,vts_reward_expectancy_bt,2022.2.4,Win32,60.0240096,Chrome,1536,864,,,,,0,612,,,,,,,,,,,,,,,,,125,W,star,1,1,,,,,,,,,,,,,,,,repeat,letter,lettRpt,k,noRew,,,,,,1.1191,0,4,0,4,0,1,,,,,,,,,,,,,,,,,
294745,2022-12-05_21h45.56.433,vts_reward_expectancy_bt,2022.2.4,Win32,60.0240096,Chrome,1536,864,,,,,0,612,,,,,,,,,,,,,,,,,160,U,triangle,1,0,,,,,,,,,,,,,,,,switch,number,numSwt,f,noRew,,,,,,0.7537,0,5,0,5,0,1,,,,,,,,,,,,,,,,,
294745,2022-12-05_21h45.56.433,vts_reward_expectancy_bt,2022.2.4,Win32,60.0240096,Chrome,1536,864,,,,,0,612,,,,,,,,,,,,,,,,,174,S,triangle,1,0,,,,,,,,,,,,,,,,repeat,number,numRpt,f,noRew,,,,,,0.7979,0,6,0,6,0,1,,,,,,,,,,,,,,,,,
294745,2022-12-05_21h45.56.433,vts_reward_expectancy_bt,2022.2.4,Win32,60.0240096,Chrome,1536,864,,,,,0,612,,,,,,,,,,,,,,,,,146,F,hexagon,1,0,,,,,,,,,,,,,,,,switch,letter,lettSwt,j,noRew,,,,,,1.4372,0,7,0,7,0,1,,,,,,,,,,,,,,,,,
294745,2022-12-05_21h45.56.433,vts_reward_expectancy_bt,2022.2.4,Win32,60.0240096,Chrome,1536,864,,,,,0,612,,,,,,,,,,,,,,,,,125,H,star,1,0,,,,,,,,,,,,,,,,switch,number,numSwt,d,noRew,,,,,,1.5591,0,8,0,8,0,1,,,,,,,,,,,,,,,,,
294745,2022-12-05_21h45.56.433,vts_reward_expectancy_bt,2022.2.4,Win32,60.0240096,Chrome,1536,864,,,,,0,612,,,,,,,,,,,,,,,,,146,W,circle,1,0,,,,,,,,,,,,,,,,switch,letter,lettSwt,k,noRew,,,,,,0.624,0,9,0,9,0,1,,,,,,,,,,,,,,,,,
294745,2022-12-05_21h45.56.433,vts_reward_expectancy_bt,2022.2.4,Win32,60.0240096,Chrome,1536,864,,,,,0,612,,,,,,,,,,,,,,,,,167,B,hexagon,1,0,,,,,,,,,,,,,,,,switch,number,numSwt,f,noRew,,,,,,0.9828,0,10,0,10,0,1,,,,,,,,,,,,,,,,,
294745,2022-12-05_21h45.56.433,vts_reward_expectancy_bt,2022.2.4,Win32,60.0240096,Chrome,1536,864,,,,,0,612,,,,,,,,,,,,,,,,,160,S,star,1,0,,,,,,,,,,,,,,,,switch,letter,lettSwt,k,noRew,,,,,,0.7175,0,11,0,11,0,1,,,,,,,,,,,,,,,,,
294745,2022-12-05_21h45.56.433,vts_reward_expectancy_bt,2022.2.4,Win32,60.0240096,Chrome,1536,864,,,,,0,612,,,,,,,,,,,,,,,,,160,W,triangle,1,0,,,,,,,,,,,,,,,,repeat,letter,lettRpt,k,noRew,,,,,,0.7428,0,12,0,12,0,1,,,,,,,,,,,,,,,,,
294745,2022-12-05_21h45.56.433,vts_reward_expectancy_bt,2022.2.4,Win32,60.0240096,Chrome,1536,864,,,,,0,612,,,,,,,,,,,,,,,,,181,H,circle,1,0,,,,,,,,,,,,,,,,switch,number,numSwt,f,noRew,,,,,,1.0146,0,13,0,13,0,1,,,,,,,,,,,,,,,,,
294745,2022-12-05_21h45.56.433,vts_reward_expectancy_bt,2022.2.4,Win32,60.0240096,Chrome,1536,864,,,,,0,612,,,,,,,,,,,,,,,,,132,Y,star,1,0,,,,,,,,,,,,,,,,repeat,number,numRpt,d,noRew,,,,,,0.722,0,14,0,14,0,1,,,,,,,,,,,,,,,,,
294745,2022-12-05_21h45.56.433,vts_reward_expectancy_bt,2022.2.4,Win32,60.0240096,Chrome,1536,864,,,,,0,612,,,,,,,,,,,,,,,,,139,S,triangle,1,0,,,,,,,,,,,,,,,,repeat,number,numRpt,d,noRew,,,,,,0.7854,0,15,0,15,0,1,,,,,,,,,,,,,,,,,
294745,2022-12-05_21h45.56.433,vts_reward_expectancy_bt,2022.2.4,Win32,60.0240096,Chrome,1536,864,,,,,0,612,,,,,,,,,,,,,,,,,181,H,star,0,0,,,,,,,,,,,,,,,,switch,letter,NA,k,noRew,,,,,,0.5618,0,16,0,16,0,1,,,,,,,,,,,,,,,,,
294745,2022-12-05_21h45.56.433,vts_reward_expectancy_bt,2022.2.4,Win32,60.0240096,Chrome,1536,864,,,,,0,612,,,,,,,,,,,,,,,,,160,S,hexagon,1,1,,,,,,,,,,,,,,,,repeat,letter,lettRpt,k,noRew,,,,,,0.6646,0,17,0,17,0,1,,,,,,,,,,,,,,,,,
294745,2022-12-05_21h45.56.433,vts_reward_expectancy_bt,2022.2.4,Win32,60.0240096,Chrome,1536,864,,,,,0,612,,,,,,,,,,,,,,,,,174,B,hexagon,0,0,,,,,,,,,,,,,,,,switch,number,NA,d,noRew,,,,,,0.8456,0,18,0,18,0,1,,,,,,,,,,,,,,,,,
294745,2022-12-05_21h45.56.433,vts_reward_expectancy_bt,2022.2.4,Win32,60.0240096,Chrome,1536,864,,,,,0,612,,,,,,,,,,,,,,,,,132,F,star,1,1,,,,,,,,,,,,,,,,repeat,number,numRpt,d,noRew,,,,,,0.9478,0,19,0,19,0,1,,,,,,,,,,,,,,,,,
294745,2022-12-05_21h45.56.433,vts_reward_expectancy_bt,2022.2.4,Win32,60.0240096,Chrome,1536,864,,,,,0,612,,,,,,,,,,,,,,,,,132,W,triangle,1,0,,,,,,,,,,,,,,,,switch,letter,lettSwt,k,noRew,,,,,,0.4689,0,20,0,20,0,1,,,,,,,,,,,,,,,,,
294745,2022-12-05_21h45.56.433,vts_reward_expectancy_bt,2022.2.4,Win32,60.0240096,Chrome,1536,864,,,,,0,612,,,,,,,,,,,,,,,,,181,B,star,0,0,,,,,,,,,,,,,,,,switch,number,NA,d,noRew,,,,,,2.2071,0,21,0,21,0,1,,,,,,,,,,,,,,,,,
294745,2022-12-05_21h45.56.433,vts_reward_expectancy_bt,2022.2.4,Win32,60.0240096,Chrome,1536,864,,,,,0,612,,,,,,,,,,,,,,,,,125,H,triangle,0,1,,,,,,,,,,,,,,,,switch,letter,NA,k,noRew,,,,,,0.0743,0,22,0,22,0,1,,,,,,,,,,,,,,,,,
294745,2022-12-05_21h45.56.433,vts_reward_expectancy_bt,2022.2.4,Win32,60.0240096,Chrome,1536,864,,,,,0,612,,,,,,,,,,,,,,,,,160,Y,circle,1,1,,,,,,,,,,,,,,,,repeat,letter,lettRpt,k,noRew,,,,,,0.617,0,23,0,23,0,1,,,,,,,,,,,,,,,,,
294745,2022-12-05_21h45.56.433,vts_reward_expectancy_bt,2022.2.4,Win32,60.0240096,Chrome,1536,864,,,,,0,612,,,,,,,,,,,,,,,,,167,F,star,1,0,,,,,,,,,,,,,,,,repeat,letter,lettRpt,j,noRew,,,,,,0.9017,0,24,0,24,0,1,,,,,,,,,,,,,,,,,
294745,2022-12-05_21h45.56.433,vts_reward_expectancy_bt,2022.2.4,Win32,60.0240096,Chrome,1536,864,,,,,0,612,,,,,,,,,,,,,,,,,132,S,circle,1,0,,,,,,,,,,,,,,,,switch,number,numSwt,d,noRew,,,,,,1.5618,0,25,0,25,0,1,,,,,,,,,,,,,,,,,
294745,2022-12-05_21h45.56.433,vts_reward_expectancy_bt,2022.2.4,Win32,60.0240096,Chrome,1536,864,,,,,0,612,,,,,,,,,,,,,,,,,146,U,circle,1,0,,,,,,,,,,,,,,,,switch,letter,lettSwt,k,noRew,,,,,,0.8801,0,26,0,26,0,1,,,,,,,,,,,,,,,,,
294745,2022-12-05_21h45.56.433,vts_reward_expectancy_bt,2022.2.4,Win32,60.0240096,Chrome,1536,864,,,,,0,612,,,,,,,,,,,,,,,,,174,Y,hexagon,1,0,,,,,,,,,,,,,,,,switch,number,numSwt,f,noRew,,,,,,1.4206,0,27,0,27,0,1,,,,,,,,,,,,,,,,,
294745,2022-12-05_21h45.56.433,vts_reward_expectancy_bt,2022.2.4,Win32,60.0240096,Chrome,1536,864,,,,,0,612,,,,,,,,,,,,,,,,,146,W,hexagon,1,0,,,,,,,,,,,,,,,,repeat,number,numRpt,d,noRew,,,,,,0.6408,0,28,0,28,0,1,,,,,,,,,,,,,,,,,
294745,2022-12-05_21h45.56.433,vts_reward_expectancy_bt,2022.2.4,Win32,60.0240096,Chrome,1536,864,,,,,0,612,,,,,,,,,,,,,,,,,132,U,circle,1,0,,,,,,,,,,,,,,,,switch,letter,lettSwt,k,noRew,,,,,,1.0187,0,29,0,29,0,1,,,,,,,,,,,,,,,,,
294745,2022-12-05_21h45.56.433,vts_reward_expectancy_bt,2022.2.4,Win32,60.0240096,Chrome,1536,864,,,,,0,612,,,,,,,,,,,,,,,,,139,Y,star,1,0,,,,,,,,,,,,,,,,switch,number,numSwt,d,noRew,,,,,,0.8061,0,30,0,30,0,1,,,,,,,,,,,,,,,,,
294745,2022-12-05_21h45.56.433,vts_reward_expectancy_bt,2022.2.4,Win32,60.0240096,Chrome,1536,864,,,,,0,612,,,,,,,,,,,,,,,,,125,B,triangle,0,0,,,,,,,,,,,,,,,,switch,letter,NA,k,noRew,,,,,,0.8681,0,31,0,31,0,1,,,,,,,,,,,,,,,,,
294745,2022-12-05_21h45.56.433,vts_reward_expectancy_bt,2022.2.4,Win32,60.0240096,Chrome,1536,864,,,,,0,612,,,,,,,,,,,,,,,,,132,Y,hexagon,1,1,,,,,,,,,,,,,,,,repeat,letter,lettRpt,k,noRew,,,,,,0.7591,0,32,0,32,0,1,,,,,,,,,,,,,,,,,
294745,2022-12-05_21h45.56.433,vts_reward_expectancy_bt,2022.2.4,Win32,60.0240096,Chrome,1536,864,,,,,0,612,,,,,,,,,,,,,,,,,167,B,triangle,1,0,,,,,,,,,,,,,,,,repeat,letter,lettRpt,j,noRew,,,,,,1.0793,0,33,0,33,0,1,,,,,,,,,,,,,,,,,
294745,2022-12-05_21h45.56.433,vts_reward_expectancy_bt,2022.2.4,Win32,60.0240096,Chrome,1536,864,,,,,0,612,,,,,,,,,,,,,,,,,181,U,star,1,0,,,,,,,,,,,,,,,,switch,number,numSwt,f,noRew,,,,,,0.7897,0,34,0,34,0,1,,,,,,,,,,,,,,,,,
294745,2022-12-05_21h45.56.433,vts_reward_expectancy_bt,2022.2.4,Win32,60.0240096,Chrome,1536,864,,,,,0,612,,,,,,,,,,,,,,,,,160,F,hexagon,1,0,,,,,,,,,,,,,,,,repeat,number,numRpt,f,noRew,,,,,,0.7179,0,35,0,35,0,1,,,,,,,,,,,,,,,,,
294745,2022-12-05_21h45.56.433,vts_reward_expectancy_bt,2022.2.4,Win32,60.0240096,Chrome,1536,864,,,,,0,612,,,,,,,,,,,,,,,,,139,W,triangle,1,0,,,,,,,,,,,,,,,,switch,letter,lettSwt,k,noRew,,,,,,1.0584,0,36,0,36,0,1,,,,,,,,,,,,,,,,,
294745,2022-12-05_21h45.56.433,vts_reward_expectancy_bt,2022.2.4,Win32,60.0240096,Chrome,1536,864,,,,,0,612,,,,,,,,,,,,,,,,,181,Y,star,1,0,,,,,,,,,,,,,,,,repeat,letter,lettRpt,k,noRew,,,,,,0.8319,0,37,0,37,0,1,,,,,,,,,,,,,,,,,
294745,2022-12-05_21h45.56.433,vts_reward_expectancy_bt,2022.2.4,Win32,60.0240096,Chrome,1536,864,,,,,0,612,,,,,,,,,,,,,,,,,132,U,circle,1,0,,,,,,,,,,,,,,,,switch,number,numSwt,d,noRew,,,,,,1.5849,0,38,0,38,0,1,,,,,,,,,,,,,,,,,
294745,2022-12-05_21h45.56.433,vts_reward_expectancy_bt,2022.2.4,Win32,60.0240096,Chrome,1536,864,,,,,0,612,,,,,,,,,,,,,,,,,146,S,triangle,1,0,,,,,,,,,,,,,,,,switch,letter,lettSwt,k,noRew,,,,,,0.6854,0,39,0,39,0,1,,,,,,,,,,,,,,,,,
294745,2022-12-05_21h45.56.433,vts_reward_expectancy_bt,2022.2.4,Win32,60.0240096,Chrome,1536,864,,,,,0,612,,,,,,,,,,,,,,,,,146,H,triangle,0,0,,,,,,,,,,,,,,,,repeat,letter,NA,k,noRew,,,,,,0.7301,0,40,0,40,0,1,,,,,,,,,,,,,,,,,
294745,2022-12-05_21h45.56.433,vts_reward_expectancy_bt,2022.2.4,Win32,60.0240096,Chrome,1536,864,,,,,0,612,,,,,,,,,,,,,,,,,167,U,circle,1,1,,,,,,,,,,,,,,,,switch,number,numSwt,f,noRew,,,,,,0.8968,0,41,0,41,0,1,,,,,,,,,,,,,,,,,
294745,2022-12-05_21h45.56.433,vts_reward_expectancy_bt,2022.2.4,Win32,60.0240096,Chrome,1536,864,,,,,0,612,,,,,,,,,,,,,,,,,174,D,triangle,0,0,,,,,,,,,,,,,,,,repeat,number,NA,d,noRew,,,,,,0.9085,0,42,0,42,0,1,,,,,,,,,,,,,,,,,
294745,2022-12-05_21h45.56.433,vts_reward_expectancy_bt,2022.2.4,Win32,60.0240096,Chrome,1536,864,,,,,0,612,,,,,,,,,,,,,,,,,139,S,star,1,1,,,,,,,,,,,,,,,,repeat,number,numRpt,d,noRew,,,,,,0.6142,0,43,0,43,0,1,,,,,,,,,,,,,,,,,
294745,2022-12-05_21h45.56.433,vts_reward_expectancy_bt,2022.2.4,Win32,60.0240096,Chrome,1536,864,,,,,0,612,,,,,,,,,,,,,,,,,146,S,hexagon,1,0,,,,,,,,,,,,,,,,repeat,number,numRpt,d,noRew,,,,,,0.9078,0,44,0,44,0,1,,,,,,,,,,,,,,,,,
294745,2022-12-05_21h45.56.433,vts_reward_expectancy_bt,2022.2.4,Win32,60.0240096,Chrome,1536,864,,,,,0,612,,,,,,,,,,,,,,,,,125,B,circle,0,0,,,,,,,,,,,,,,,,switch,letter,NA,k,noRew,,,,,,0.9064,0,45,0,45,0,1,,,,,,,,,,,,,,,,,
294745,2022-12-05_21h45.56.433,vts_reward_expectancy_bt,2022.2.4,Win32,60.0240096,Chrome,1536,864,,,,,0,612,,,,,,,,,,,,,,,,,174,Y,star,1,1,,,,,,,,,,,,,,,,repeat,letter,lettRpt,k,noRew,,,,,,0.9583,0,46,0,46,0,1,,,,,,,,,,,,,,,,,
294745,2022-12-05_21h45.56.433,vts_reward_expectancy_bt,2022.2.4,Win32,60.0240096,Chrome,1536,864,,,,,0,612,,,,,,,,,,,,,,,,,139,H,hexagon,0,0,,,,,,,,,,,,,,,,repeat,letter,NA,k,noRew,,,,,,1.3776,0,47,0,47,0,1,,,,,,,,,,,,,,,,,
294745,2022-12-05_21h45.56.433,vts_reward_expectancy_bt,2022.2.4,Win32,60.0240096,Chrome,1536,864,,,,,0,612,,,,,,,,,,,,,,,,,160,F,hexagon,1,1,,,,,,,,,,,,,,,,repeat,letter,lettRpt,j,noRew,,,,,,1.3738,0,48,0,48,0,1,,,,,,,,,,,,,,,,,
294745,2022-12-05_21h45.56.433,vts_reward_expectancy_bt,2022.2.4,Win32,60.0240096,Chrome,1536,864,,,,,0,612,,,,,,,,,,,,,,,,,174,W,triangle,1,0,,,,,,,,,,,,,,,,repeat,letter,lettRpt,k,noRew,,,,,,1.5184,0,49,0,49,0,1,,,,,,,,,,,,,,,,,
294745,2022-12-05_21h45.56.433,vts_reward_expectancy_bt,2022.2.4,Win32,60.0240096,Chrome,1536,864,,,,,0,612,,,,,,,,,,,,,,,,,181,B,star,1,0,,,,,,,,,,,,,,,,repeat,letter,lettRpt,j,noRew,,,,,,1.1831,0,50,0,50,0,1,,,,,,,,,,,,,,,,,
294745,2022-12-05_21h45.56.433,vts_reward_expectancy_bt,2022.2.4,Win32,60.0240096,Chrome,1536,864,,,,,0,612,,,,,,,,,,,,,,,,,146,U,hexagon,1,0,,,,,,,,,,,,,,,,repeat,letter,lettRpt,k,noRew,,,,,,0.9515,0,51,0,51,0,1,,,,,,,,,,,,,,,,,
294745,2022-12-05_21h45.56.433,vts_reward_expectancy_bt,2022.2.4,Win32,60.0240096,Chrome,1536,864,,,,,0,612,,,,,,,,,,,,,,,,,139,B,triangle,1,0,,,,,,,,,,,,,,,,switch,number,numSwt,d,noRew,,,,,,1.2511,0,52,0,52,0,1,,,,,,,,,,,,,,,,,
294745,2022-12-05_21h45.56.433,vts_reward_expectancy_bt,2022.2.4,Win32,60.0240096,Chrome,1536,864,,,,,0,612,,,,,,,,,,,,,,,,,174,F,hexagon,1,0,,,,,,,,,,,,,,,,repeat,number,numRpt,f,noRew,,,,,,1.6378,0,53,0,53,0,1,,,,,,,,,,,,,,,,,
294745,2022-12-05_21h45.56.433,vts_reward_expectancy_bt,2022.2.4,Win32,60.0240096,Chrome,1536,864,,,,,0,612,,,,,,,,,,,,,,,,,160,W,hexagon,1,0,,,,,,,,,,,,,,,,switch,letter,lettSwt,k,noRew,,,,,,0.6852,0,54,0,54,0,1,,,,,,,,,,,,,,,,,
294745,2022-12-05_21h45.56.433,vts_reward_expectancy_bt,2022.2.4,Win32,60.0240096,Chrome,1536,864,,,,,0,612,,,,,,,,,,,,,,,,,181,H,circle,1,0,,,,,,,,,,,,,,,,switch,number,numSwt,f,noRew,,,,,,1.0418,0,55,0,55,0,1,,,,,,,,,,,,,,,,,
294745,2022-12-05_21h45.56.433,vts_reward_expectancy_bt,2022.2.4,Win32,60.0240096,Chrome,1536,864,,,,,0,612,,,,,,,,,,,,,,,,,160,B,star,1,0,,,,,,,,,,,,,,,,switch,letter,lettSwt,j,noRew,,,,,,1.7506,0,56,0,56,0,1,,,,,,,,,,,,,,,,,
294745,2022-12-05_21h45.56.433,vts_reward_expectancy_bt,2022.2.4,Win32,60.0240096,Chrome,1536,864,,,,,0,612,,,,,,,,,,,,,,,,,139,F,triangle,1,0,,,,,,,,,,,,,,,,switch,number,numSwt,d,noRew,,,,,,1.4015,0,57,0,57,0,1,,,,,,,,,,,,,,,,,
294745,2022-12-05_21h45.56.433,vts_reward_expectancy_bt,2022.2.4,Win32,60.0240096,Chrome,1536,864,,,,,0,612,,,,,,,,,,,,,,,,,174,D,circle,1,0,,,,,,,,,,,,,,,,repeat,number,numRpt,f,noRew,,,,,,1.6834,0,58,0,58,0,1,,,,,,,,,,,,,,,,,
294745,2022-12-05_21h45.56.433,vts_reward_expectancy_bt,2022.2.4,Win32,60.0240096,Chrome,1536,864,,,,,0,612,,,,,,,,,,,,,,,,,167,U,hexagon,1,0,,,,,,,,,,,,,,,,repeat,number,numRpt,f,noRew,,,,,,0.8343,0,59,0,59,0,1,,,,,,,,,,,,,,,,,
294745,2022-12-05_21h45.56.433,vts_reward_expectancy_bt,2022.2.4,Win32,60.0240096,Chrome,1536,864,,,,,0,612,,,,,,,,,,,,,,,,,167,S,circle,1,0,,,,,,,,,,,,,,,,repeat,number,numRpt,f,noRew,,,,,,0.8294,0,60,0,60,0,1,,,,,,,,,,,,,,,,,
294745,2022-12-05_21h45.56.433,vts_reward_expectancy_bt,2022.2.4,Win32,60.0240096,Chrome,1536,864,,,,,0,612,,,,,,,,,,,,,,,,,132,B,star,1,0,,,,,,,,,,,,,,,,repeat,number,numRpt,d,noRew,,,,,,0.6233,0,61,0,61,0,1,,,,,,,,,,,,,,,,,
294745,2022-12-05_21h45.56.433,vts_reward_expectancy_bt,2022.2.4,Win32,60.0240096,Chrome,1536,864,,,,,0,612,,,,,,,,,,,,,,,,,160,H,circle,1,0,,,,,,,,,,,,,,,,repeat,number,numRpt,f,noRew,,,,,,0.6676,0,62,0,62,0,1,,,,,,,,,,,,,,,,,
294745,2022-12-05_21h45.56.433,vts_reward_expectancy_bt,2022.2.4,Win32,60.0240096,Chrome,1536,864,,,,,0,612,,,,,,,,,,,,,,,,,139,U,triangle,1,0,,,,,,,,,,,,,,,,repeat,number,numRpt,d,noRew,,,,,,0.6235,0,63,0,63,0,1,,,,,,,,,,,,,,,,,
294745,2022-12-05_21h45.56.433,vts_reward_expectancy_bt,2022.2.4,Win32,60.0240096,Chrome,1536,864,,,,,,,,,,,,,,,,,,,,,,,,,,,,,,,,,,,,,,,,,,,,,,,,,,,,,,,,,,,,,,,,,,,,,,,,,,,,
294745,2022-12-05_21h45.56.433,vts_reward_expectancy_bt,2022.2.4,Win32,60.0240096,Chrome,1536,864,,,,,0,612,,,,,,,,,,,,,,,,,160,D,hexagon,1,0,,,,,,,,,,,,,,,,repeat,number,numRpt,f,Hi,,,,,,1.055,0,,,,,,space,6.6302,high,0,0,0,0,1,,,,,,,,,
294745,2022-12-05_21h45.56.433,vts_reward_expectancy_bt,2022.2.4,Win32,60.0240096,Chrome,1536,864,,,,,10,622,,,,,,,,,,,,,,,,,181,H,star,1,0,,,,,,,,,,,,,,,,repeat,number,numRpt,f,Hi,,,,,,0.6203,0,,,,,,,,high,1,0,1,0,1,,,,,,,,,
294745,2022-12-05_21h45.56.433,vts_reward_expectancy_bt,2022.2.4,Win32,60.0240096,Chrome,1536,864,,,,,1,623,,,,,,,,,,,,,,,,,146,F,circle,1,0,,,,,,,,,,,,,,,,switch,letter,lettSwt,j,Lo,,,,,,0.5871,0,,,,,,,,high,2,0,2,0,1,,,,,,,,,
294745,2022-12-05_21h45.56.433,vts_reward_expectancy_bt,2022.2.4,Win32,60.0240096,Chrome,1536,864,,,,,10,633,,,,,,,,,,,,,,,,,174,U,triangle,1,0,,,,,,,,,,,,,,,,repeat,letter,lettRpt,k,Lo,,,,,,0.8101,0,,,,,,,,high,3,0,3,0,1,,,,,,,,,
294745,2022-12-05_21h45.56.433,vts_reward_expectancy_bt,2022.2.4,Win32,60.0240096,Chrome,1536,864,,,,,10,643,,,,,,,,,,,,,,,,,132,S,hexagon,1,0,,,,,,,,,,,,,,,,switch,number,numSwt,d,Hi,,,,,,0.6346,0,,,,,,,,high,4,0,4,0,1,,,,,,,,,
294745,2022-12-05_21h45.56.433,vts_reward_expectancy_bt,2022.2.4,Win32,60.0240096,Chrome,1536,864,,,,,0,643,,,,,,,,,,,,,,,,,139,Y,star,1,0,,,,,,,,,,,,,,,,repeat,number,numRpt,d,Hi,,,,,,0.6732,0,,,,,,,,high,5,0,5,0,1,,,,,,,,,
294745,2022-12-05_21h45.56.433,vts_reward_expectancy_bt,2022.2.4,Win32,60.0240096,Chrome,1536,864,,,,,0,643,,,,,,,,,,,,,,,,,125,B,circle,0,0,,,,,,,,,,,,,,,,repeat,number,NA,f,Hi,,,,,,0.6503,0,,,,,,,,high,6,0,6,0,1,,,,,,,,,
294745,2022-12-05_21h45.56.433,vts_reward_expectancy_bt,2022.2.4,Win32,60.0240096,Chrome,1536,864,,,,,1,644,,,,,,,,,,,,,,,,,167,W,triangle,1,1,,,,,,,,,,,,,,,,switch,letter,lettSwt,k,Lo,,,,,,0.6868,0,,,,,,,,high,7,0,7,0,1,,,,,,,,,
294745,2022-12-05_21h45.56.433,vts_reward_expectancy_bt,2022.2.4,Win32,60.0240096,Chrome,1536,864,,,,,0,644,,,,,,,,,,,,,,,,,160,D,star,0,0,,,,,,,,,,,,,,,,switch,number,NA,d,Lo,,,,,,0.7659,0,,,,,,,,high,8,0,8,0,1,,,,,,,,,
294745,2022-12-05_21h45.56.433,vts_reward_expectancy_bt,2022.2.4,Win32,60.0240096,Chrome,1536,864,,,,,1,645,,,,,,,,,,,,,,,,,181,H,triangle,1,1,,,,,,,,,,,,,,,,repeat,number,numRpt,f,Lo,,,,,,0.6674,0,,,,,,,,high,9,0,9,0,1,,,,,,,,,
294745,2022-12-05_21h45.56.433,vts_reward_expectancy_bt,2022.2.4,Win32,60.0240096,Chrome,1536,864,,,,,0,645,,,,,,,,,,,,,,,,,146,F,hexagon,1,0,,,,,,,,,,,,,,,,repeat,number,numRpt,d,Hi,,,,,,0.6819,0,,,,,,,,high,10,0,10,0,1,,,,,,,,,
294745,2022-12-05_21h45.56.433,vts_reward_expectancy_bt,2022.2.4,Win32,60.0240096,Chrome,1536,864,,,,,1,646,,,,,,,,,,,,,,,,,174,U,circle,1,0,,,,,,,,,,,,,,,,switch,letter,lettSwt,k,Lo,,,,,,1.2073,0,,,,,,,,high,11,0,11,0,1,,,,,,,,,
294745,2022-12-05_21h45.56.433,vts_reward_expectancy_bt,2022.2.4,Win32,60.0240096,Chrome,1536,864,,,,,1,647,,,,,,,,,,,,,,,,,132,S,circle,1,0,,,,,,,,,,,,,,,,switch,number,numSwt,d,Lo,,,,,,0.8423,0,,,,,,,,high,12,0,12,0,1,,,,,,,,,
294745,2022-12-05_21h45.56.433,vts_reward_expectancy_bt,2022.2.4,Win32,60.0240096,Chrome,1536,864,,,,,0,647,,,,,,,,,,,,,,,,,139,Y,star,1,0,,,,,,,,,,,,,,,,switch,letter,lettSwt,k,Hi,,,,,,1.2642,0,,,,,,,,high,13,0,13,0,1,,,,,,,,,
294745,2022-12-05_21h45.56.433,vts_reward_expectancy_bt,2022.2.4,Win32,60.0240096,Chrome,1536,864,,,,,1,648,,,,,,,,,,,,,,,,,125,B,triangle,1,0,,,,,,,,,,,,,,,,switch,number,numSwt,d,Lo,,,,,,0.6869,0,,,,,,,,high,14,0,14,0,1,,,,,,,,,
294745,2022-12-05_21h45.56.433,vts_reward_expectancy_bt,2022.2.4,Win32,60.0240096,Chrome,1536,864,,,,,0,648,,,,,,,,,,,,,,,,,167,W,hexagon,1,0,,,,,,,,,,,,,,,,repeat,number,numRpt,f,Hi,,,,,,1.1508,0,,,,,,,,high,15,0,15,0,1,,,,,,,,,
294745,2022-12-05_21h45.56.433,vts_reward_expectancy_bt,2022.2.4,Win32,60.0240096,Chrome,1536,864,,,,,1,649,,,,,,,,,,,,,,,,,174,D,circle,1,0,,,,,,,,,,,,,,,,repeat,number,numRpt,f,Lo,,,,,,0.6551,0,,,,,,,,high,16,0,16,0,1,,,,,,,,,
294745,2022-12-05_21h45.56.433,vts_reward_expectancy_bt,2022.2.4,Win32,60.0240096,Chrome,1536,864,,,,,1,650,,,,,,,,,,,,,,,,,125,Y,hexagon,1,0,,,,,,,,,,,,,,,,switch,letter,lettSwt,k,Hi,,,,,,0.59,0,,,,,,,,high,17,0,17,0,1,,,,,,,,,
294745,2022-12-05_21h45.56.433,vts_reward_expectancy_bt,2022.2.4,Win32,60.0240096,Chrome,1536,864,,,,,1,651,,,,,,,,,,,,,,,,,146,H,triangle,1,0,,,,,,,,,,,,,,,,repeat,letter,lettRpt,j,Lo,,,,,,0.5378,0,,,,,,,,high,18,0,18,0,1,,,,,,,,,
294745,2022-12-05_21h45.56.433,vts_reward_expectancy_bt,2022.2.4,Win32,60.0240096,Chrome,1536,864,,,,,10,661,,,,,,,,,,,,,,,,,139,F,star,1,0,,,,,,,,,,,,,,,,switch,number,numSwt,d,Hi,,,,,,0.6387,0,,,,,,,,high,19,0,19,0,1,,,,,,,,,
294745,2022-12-05_21h45.56.433,vts_reward_expectancy_bt,2022.2.4,Win32,60.0240096,Chrome,1536,864,,,,,1,662,,,,,,,,,,,,,,,,,167,U,circle,1,0,,,,,,,,,,,,,,,,repeat,number,numRpt,f,Lo,,,,,,0.905,0,,,,,,,,high,20,0,20,0,1,,,,,,,,,
294745,2022-12-05_21h45.56.433,vts_reward_expectancy_bt,2022.2.4,Win32,60.0240096,Chrome,1536,864,,,,,1,663,,,,,,,,,,,,,,,,,132,B,triangle,1,0,,,,,,,,,,,,,,,,switch,letter,lettSwt,j,Lo,,,,,,0.9022,0,,,,,,,,high,21,0,21,0,1,,,,,,,,,
294745,2022-12-05_21h45.56.433,vts_reward_expectancy_bt,2022.2.4,Win32,60.0240096,Chrome,1536,864,,,,,10,673,,,,,,,,,,,,,,,,,181,S,star,1,0,,,,,,,,,,,,,,,,switch,number,numSwt,f,Hi,,,,,,0.8239,0,,,,,,,,high,22,0,22,0,1,,,,,,,,,
294745,2022-12-05_21h45.56.433,vts_reward_expectancy_bt,2022.2.4,Win32,60.0240096,Chrome,1536,864,,,,,0,673,,,,,,,,,,,,,,,,,160,W,hexagon,1,0,,,,,,,,,,,,,,,,repeat,number,numRpt,f,Hi,,,,,,0.7474,0,,,,,,,,high,23,0,23,0,1,,,,,,,,,
294745,2022-12-05_21h45.56.433,vts_reward_expectancy_bt,2022.2.4,Win32,60.0240096,Chrome,1536,864,,,,,1,674,,,,,,,,,,,,,,,,,174,U,circle,1,0,,,,,,,,,,,,,,,,switch,letter,lettSwt,k,Lo,,,,,,0.7162,0,,,,,,,,high,24,0,24,0,1,,,,,,,,,
294745,2022-12-05_21h45.56.433,vts_reward_expectancy_bt,2022.2.4,Win32,60.0240096,Chrome,1536,864,,,,,10,684,,,,,,,,,,,,,,,,,139,B,hexagon,1,0,,,,,,,,,,,,,,,,switch,number,numSwt,d,Hi,,,,,,0.6713,0,,,,,,,,high,25,0,25,0,1,,,,,,,,,
294745,2022-12-05_21h45.56.433,vts_reward_expectancy_bt,2022.2.4,Win32,60.0240096,Chrome,1536,864,,,,,0,684,,,,,,,,,,,,,,,,,181,S,star,1,0,,,,,,,,,,,,,,,,repeat,number,numRpt,f,Hi,,,,,,0.8431,0,,,,,,,,high,26,0,26,0,1,,,,,,,,,
294745,2022-12-05_21h45.56.433,vts_reward_expectancy_bt,2022.2.4,Win32,60.0240096,Chrome,1536,864,,,,,10,694,,,,,,,,,,,,,,,,,167,F,triangle,1,0,,,,,,,,,,,,,,,,switch,letter,lettSwt,j,Lo,,,,,,1.1452,0,,,,,,,,high,27,0,27,0,1,,,,,,,,,
294745,2022-12-05_21h45.56.433,vts_reward_expectancy_bt,2022.2.4,Win32,60.0240096,Chrome,1536,864,,,,,1,695,,,,,,,,,,,,,,,,,125,D,triangle,1,0,,,,,,,,,,,,,,,,switch,number,numSwt,d,Lo,,,,,,0.8656,0,,,,,,,,high,28,0,28,0,1,,,,,,,,,
294745,2022-12-05_21h45.56.433,vts_reward_expectancy_bt,2022.2.4,Win32,60.0240096,Chrome,1536,864,,,,,0,695,,,,,,,,,,,,,,,,,146,H,hexagon,0,0,,,,,,,,,,,,,,,,switch,letter,NA,k,Lo,,,,,,0.5961,0,,,,,,,,high,29,0,29,0,1,,,,,,,,,
294745,2022-12-05_21h45.56.433,vts_reward_expectancy_bt,2022.2.4,Win32,60.0240096,Chrome,1536,864,,,,,0,695,,,,,,,,,,,,,,,,,132,W,star,0,1,,,,,,,,,,,,,,,,repeat,letter,NA,j,Lo,,,,,,0.8004,0,,,,,,,,high,30,0,30,0,1,,,,,,,,,
294745,2022-12-05_21h45.56.433,vts_reward_expectancy_bt,2022.2.4,Win32,60.0240096,Chrome,1536,864,,,,,1,696,,,,,,,,,,,,,,,,,160,Y,circle,1,1,,,,,,,,,,,,,,,,repeat,letter,lettRpt,k,Lo,,,,,,1.5007,0,,,,,,,,high,31,0,31,0,1,,,,,,,,,
294745,2022-12-05_21h45.56.433,vts_reward_expectancy_bt,2022.2.4,Win32,60.0240096,Chrome,1536,864,,,,,0,696,,,,,,,,,,,,,,,,,174,Y,star,1,0,,,,,,,,,,,,,,,,switch,number,numSwt,f,Hi,,,,,,0.8728,1,,,,,,space,8.6986,high,0,0,0,0,1,,,,,,,,,
294745,2022-12-05_21h45.56.433,vts_reward_expectancy_bt,2022.2.4,Win32,60.0240096,Chrome,1536,864,,,,,1,697,,,,,,,,,,,,,,,,,139,F,triangle,1,0,,,,,,,,,,,,,,,,switch,letter,lettSwt,j,Lo,,,,,,0.8188,1,,,,,,,,high,1,0,1,0,1,,,,,,,,,
294745,2022-12-05_21h45.56.433,vts_reward_expectancy_bt,2022.2.4,Win32,60.0240096,Chrome,1536,864,,,,,1,698,,,,,,,,,,,,,,,,,125,U,circle,1,0,,,,,,,,,,,,,,,,switch,number,numSwt,d,Lo,,,,,,0.6379,1,,,,,,,,high,2,0,2,0,1,,,,,,,,,
294745,2022-12-05_21h45.56.433,vts_reward_expectancy_bt,2022.2.4,Win32,60.0240096,Chrome,1536,864,,,,,0,698,,,,,,,,,,,,,,,,,146,B,hexagon,0,0,,,,,,,,,,,,,,,,switch,letter,NA,k,Lo,,,,,,0.494,1,,,,,,,,high,3,0,3,0,1,,,,,,,,,
294745,2022-12-05_21h45.56.433,vts_reward_expectancy_bt,2022.2.4,Win32,60.0240096,Chrome,1536,864,,,,,0,698,,,,,,,,,,,,,,,,,167,S,star,1,1,,,,,,,,,,,,,,,,switch,number,numSwt,f,Hi,,,,,,0.7722,1,,,,,,,,high,4,0,4,0,1,,,,,,,,,
294745,2022-12-05_21h45.56.433,vts_reward_expectancy_bt,2022.2.4,Win32,60.0240096,Chrome,1536,864,,,,,1,699,,,,,,,,,,,,,,,,,132,W,triangle,1,0,,,,,,,,,,,,,,,,repeat,number,numRpt,d,Lo,,,,,,0.4007,1,,,,,,,,high,5,0,5,0,1,,,,,,,,,
294745,2022-12-05_21h45.56.433,vts_reward_expectancy_bt,2022.2.4,Win32,60.0240096,Chrome,1536,864,,,,,1,700,,,,,,,,,,,,,,,,,181,H,circle,1,0,,,,,,,,,,,,,,,,repeat,number,numRpt,f,Lo,,,,,,0.7242,1,,,,,,,,high,6,0,6,0,1,,,,,,,,,
294745,2022-12-05_21h45.56.433,vts_reward_expectancy_bt,2022.2.4,Win32,60.0240096,Chrome,1536,864,,,,,0,700,,,,,,,,,,,,,,,,,160,D,hexagon,1,0,,,,,,,,,,,,,,,,switch,letter,lettSwt,j,Hi,,,,,,0.7686,1,,,,,,,,high,7,0,7,0,1,,,,,,,,,
294745,2022-12-05_21h45.56.433,vts_reward_expectancy_bt,2022.2.4,Win32,60.0240096,Chrome,1536,864,,,,,0,700,,,,,,,,,,,,,,,,,174,Y,star,1,0,,,,,,,,,,,,,,,,switch,number,numSwt,f,Hi,,,,,,0.8177,1,,,,,,,,high,8,0,8,0,1,,,,,,,,,
294745,2022-12-05_21h45.56.433,vts_reward_expectancy_bt,2022.2.4,Win32,60.0240096,Chrome,1536,864,,,,,0,700,,,,,,,,,,,,,,,,,139,F,hexagon,1,0,,,,,,,,,,,,,,,,switch,letter,lettSwt,j,Hi,,,,,,0.8818,1,,,,,,,,high,9,0,9,0,1,,,,,,,,,
294745,2022-12-05_21h45.56.433,vts_reward_expectancy_bt,2022.2.4,Win32,60.0240096,Chrome,1536,864,,,,,1,701,,,,,,,,,,,,,,,,,125,U,circle,1,0,,,,,,,,,,,,,,,,repeat,letter,lettRpt,k,Lo,,,,,,0.7914,1,,,,,,,,high,10,0,10,0,1,,,,,,,,,
294745,2022-12-05_21h45.56.433,vts_reward_expectancy_bt,2022.2.4,Win32,60.0240096,Chrome,1536,864,,,,,1,702,,,,,,,,,,,,,,,,,146,B,triangle,1,0,,,,,,,,,,,,,,,,switch,number,numSwt,d,Lo,,,,,,0.6891,1,,,,,,,,high,11,0,11,0,1,,,,,,,,,
294745,2022-12-05_21h45.56.433,vts_reward_expectancy_bt,2022.2.4,Win32,60.0240096,Chrome,1536,864,,,,,0,702,,,,,,,,,,,,,,,,,167,S,star,1,0,,,,,,,,,,,,,,,,repeat,number,numRpt,f,Hi,,,,,,2.0708,1,,,,,,,,high,12,0,12,0,1,,,,,,,,,
294745,2022-12-05_21h45.56.433,vts_reward_expectancy_bt,2022.2.4,Win32,60.0240096,Chrome,1536,864,,,,,1,703,,,,,,,,,,,,,,,,,132,W,triangle,1,0,,,,,,,,,,,,,,,,repeat,number,numRpt,d,Lo,,,,,,0.5394,1,,,,,,,,high,13,0,13,0,1,,,,,,,,,
294745,2022-12-05_21h45.56.433,vts_reward_expectancy_bt,2022.2.4,Win32,60.0240096,Chrome,1536,864,,,,,1,704,,,,,,,,,,,,,,,,,181,H,circle,1,0,,,,,,,,,,,,,,,,switch,letter,lettSwt,j,Lo,,,,,,0.7114,1,,,,,,,,high,14,0,14,0,1,,,,,,,,,
294745,2022-12-05_21h45.56.433,vts_reward_expectancy_bt,2022.2.4,Win32,60.0240096,Chrome,1536,864,,,,,0,704,,,,,,,,,,,,,,,,,160,D,hexagon,1,0,,,,,,,,,,,,,,,,switch,number,numSwt,f,Hi,,,,,,0.8505,1,,,,,,,,high,15,0,15,0,1,,,,,,,,,
294745,2022-12-05_21h45.56.433,vts_reward_expectancy_bt,2022.2.4,Win32,60.0240096,Chrome,1536,864,,,,,1,705,,,,,,,,,,,,,,,,,132,W,circle,1,0,,,,,,,,,,,,,,,,repeat,number,numRpt,d,Lo,,,,,,1.201,1,,,,,,,,high,16,0,16,0,1,,,,,,,,,
294745,2022-12-05_21h45.56.433,vts_reward_expectancy_bt,2022.2.4,Win32,60.0240096,Chrome,1536,864,,,,,0,705,,,,,,,,,,,,,,,,,160,B,hexagon,1,0,,,,,,,,,,,,,,,,repeat,number,numRpt,f,Hi,,,,,,0.733,1,,,,,,,,high,17,0,17,0,1,,,,,,,,,
294745,2022-12-05_21h45.56.433,vts_reward_expectancy_bt,2022.2.4,Win32,60.0240096,Chrome,1536,864,,,,,1,706,,,,,,,,,,,,,,,,,139,S,triangle,1,0,,,,,,,,,,,,,,,,switch,letter,lettSwt,k,Lo,,,,,,1.3052,1,,,,,,,,high,18,0,18,0,1,,,,,,,,,
294745,2022-12-05_21h45.56.433,vts_reward_expectancy_bt,2022.2.4,Win32,60.0240096,Chrome,1536,864,,,,,0,706,,,,,,,,,,,,,,,,,167,H,star,1,0,,,,,,,,,,,,,,,,switch,number,numSwt,f,Hi,,,,,,0.8066,1,,,,,,,,high,19,0,19,0,1,,,,,,,,,
294745,2022-12-05_21h45.56.433,vts_reward_expectancy_bt,2022.2.4,Win32,60.0240096,Chrome,1536,864,,,,,0,706,,,,,,,,,,,,,,,,,125,F,star,0,0,,,,,,,,,,,,,,,,repeat,number,NA,f,Hi,,,,,,2.1389,1,,,,,,,,high,20,0,20,0,1,,,,,,,,,
294745,2022-12-05_21h45.56.433,vts_reward_expectancy_bt,2022.2.4,Win32,60.0240096,Chrome,1536,864,,,,,0,706,,,,,,,,,,,,,,,,,181,D,circle,0,1,,,,,,,,,,,,,,,,switch,letter,NA,k,Hi,,,,,,1.4357,1,,,,,,,,high,21,0,21,0,1,,,,,,,,,
294745,2022-12-05_21h45.56.433,vts_reward_expectancy_bt,2022.2.4,Win32,60.0240096,Chrome,1536,864,,,,,0,706,,,,,,,,,,,,,,,,,174,U,hexagon,1,1,,,,,,,,,,,,,,,,repeat,letter,lettRpt,k,Hi,,,,,,1.6829,1,,,,,,,,high,22,0,22,0,1,,,,,,,,,
294745,2022-12-05_21h45.56.433,vts_reward_expectancy_bt,2022.2.4,Win32,60.0240096,Chrome,1536,864,,,,,10,716,,,,,,,,,,,,,,,,,146,Y,triangle,1,0,,,,,,,,,,,,,,,,switch,number,numSwt,d,Lo,,,,,,1.1168,1,,,,,,,,high,23,0,23,0,1,,,,,,,,,
294745,2022-12-05_21h45.56.433,vts_reward_expectancy_bt,2022.2.4,Win32,60.0240096,Chrome,1536,864,,,,,0,716,,,,,,,,,,,,,,,,,139,F,star,1,0,,,,,,,,,,,,,,,,switch,letter,lettSwt,j,Hi,,,,,,1.3209,1,,,,,,,,high,24,0,24,0,1,,,,,,,,,
294745,2022-12-05_21h45.56.433,vts_reward_expectancy_bt,2022.2.4,Win32,60.0240096,Chrome,1536,864,,,,,1,717,,,,,,,,,,,,,,,,,181,H,circle,1,0,,,,,,,,,,,,,,,,repeat,letter,lettRpt,j,Lo,,,,,,0.8207,1,,,,,,,,high,25,0,25,0,1,,,,,,,,,
294745,2022-12-05_21h45.56.433,vts_reward_expectancy_bt,2022.2.4,Win32,60.0240096,Chrome,1536,864,,,,,0,717,,,,,,,,,,,,,,,,,146,S,hexagon,1,0,,,,,,,,,,,,,,,,repeat,letter,lettRpt,k,Hi,,,,,,1.1616,1,,,,,,,,high,26,0,26,0,1,,,,,,,,,
294745,2022-12-05_21h45.56.433,vts_reward_expectancy_bt,2022.2.4,Win32,60.0240096,Chrome,1536,864,,,,,1,718,,,,,,,,,,,,,,,,,174,W,triangle,1,0,,,,,,,,,,,,,,,,switch,number,numSwt,f,Lo,,,,,,1.214,1,,,,,,,,high,27,0,27,0,1,,,,,,,,,
294745,2022-12-05_21h45.56.433,vts_reward_expectancy_bt,2022.2.4,Win32,60.0240096,Chrome,1536,864,,,,,1,719,,,,,,,,,,,,,,,,,167,D,triangle,1,0,,,,,,,,,,,,,,,,repeat,number,numRpt,f,Lo,,,,,,1.8555,1,,,,,,,,high,28,0,28,0,1,,,,,,,,,
294745,2022-12-05_21h45.56.433,vts_reward_expectancy_bt,2022.2.4,Win32,60.0240096,Chrome,1536,864,,,,,0,719,,,,,,,,,,,,,,,,,160,Y,hexagon,1,0,,,,,,,,,,,,,,,,repeat,number,numRpt,f,Hi,,,,,,2.355,1,,,,,,,,high,29,0,29,0,1,,,,,,,,,
294745,2022-12-05_21h45.56.433,vts_reward_expectancy_bt,2022.2.4,Win32,60.0240096,Chrome,1536,864,,,,,0,719,,,,,,,,,,,,,,,,,132,U,star,1,0,,,,,,,,,,,,,,,,repeat,number,numRpt,d,Hi,,,,,,0.7092,1,,,,,,,,high,30,0,30,0,1,,,,,,,,,
294745,2022-12-05_21h45.56.433,vts_reward_expectancy_bt,2022.2.4,Win32,60.0240096,Chrome,1536,864,,,,,10,729,,,,,,,,,,,,,,,,,125,B,circle,1,0,,,,,,,,,,,,,,,,switch,letter,lettSwt,j,Lo,,,,,,1.3739,1,,,,,,,,high,31,0,31,0,1,,,,,,,,,
294745,2022-12-05_21h45.56.433,vts_reward_expectancy_bt,2022.2.4,Win32,60.0240096,Chrome,1536,864,,,,,0,729,,,,,,,,,,,,,,,,,125,F,hexagon,1,0,,,,,,,,,,,,,,,,switch,number,numSwt,d,Hi,,,,,,0.8326,2,,,,,,space,2.5388,high,0,0,0,0,1,,,,,,,,,
294745,2022-12-05_21h45.56.433,vts_reward_expectancy_bt,2022.2.4,Win32,60.0240096,Chrome,1536,864,,,,,0,729,,,,,,,,,,,,,,,,,174,W,star,1,0,,,,,,,,,,,,,,,,switch,letter,lettSwt,k,Hi,,,,,,1.0185,2,,,,,,,,high,1,0,1,0,1,,,,,,,,,
294745,2022-12-05_21h45.56.433,vts_reward_expectancy_bt,2022.2.4,Win32,60.0240096,Chrome,1536,864,,,,,10,739,,,,,,,,,,,,,,,,,146,Y,circle,1,0,,,,,,,,,,,,,,,,repeat,letter,lettRpt,k,Lo,,,,,,0.453,2,,,,,,,,high,2,0,2,0,1,,,,,,,,,
294745,2022-12-05_21h45.56.433,vts_reward_expectancy_bt,2022.2.4,Win32,60.0240096,Chrome,1536,864,,,,,1,740,,,,,,,,,,,,,,,,,181,H,triangle,1,0,,,,,,,,,,,,,,,,repeat,letter,lettRpt,j,Lo,,,,,,0.741,2,,,,,,,,high,3,0,3,0,1,,,,,,,,,
294745,2022-12-05_21h45.56.433,vts_reward_expectancy_bt,2022.2.4,Win32,60.0240096,Chrome,1536,864,,,,,0,740,,,,,,,,,,,,,,,,,167,B,hexagon,0,0,,,,,,,,,,,,,,,,switch,number,NA,d,Lo,,,,,,0.6221,2,,,,,,,,high,4,0,4,0,1,,,,,,,,,
294745,2022-12-05_21h45.56.433,vts_reward_expectancy_bt,2022.2.4,Win32,60.0240096,Chrome,1536,864,,,,,10,750,,,,,,,,,,,,,,,,,139,S,star,1,1,,,,,,,,,,,,,,,,repeat,number,numRpt,d,Hi,,,,,,0.5516,2,,,,,,,,high,5,0,5,0,1,,,,,,,,,
294745,2022-12-05_21h45.56.433,vts_reward_expectancy_bt,2022.2.4,Win32,60.0240096,Chrome,1536,864,,,,,1,751,,,,,,,,,,,,,,,,,132,U,circle,1,0,,,,,,,,,,,,,,,,repeat,number,numRpt,d,Lo,,,,,,0.5538,2,,,,,,,,high,6,0,6,0,1,,,,,,,,,
294745,2022-12-05_21h45.56.433,vts_reward_expectancy_bt,2022.2.4,Win32,60.0240096,Chrome,1536,864,,,,,1,752,,,,,,,,,,,,,,,,,160,D,triangle,1,0,,,,,,,,,,,,,,,,switch,letter,lettSwt,j,Lo,,,,,,0.7923,2,,,,,,,,high,7,0,7,0,1,,,,,,,,,
294745,2022-12-05_21h45.56.433,vts_reward_expectancy_bt,2022.2.4,Win32,60.0240096,Chrome,1536,864,,,,,1,753,,,,,,,,,,,,,,,,,125,F,circle,1,0,,,,,,,,,,,,,,,,switch,number,numSwt,d,Lo,,,,,,0.5311,2,,,,,,,,high,8,0,8,0,1,,,,,,,,,
294745,2022-12-05_21h45.56.433,vts_reward_expectancy_bt,2022.2.4,Win32,60.0240096,Chrome,1536,864,,,,,0,753,,,,,,,,,,,,,,,,,174,W,star,1,0,,,,,,,,,,,,,,,,repeat,number,numRpt,f,Hi,,,,,,0.8881,2,,,,,,,,high,9,0,9,0,1,,,,,,,,,
294745,2022-12-05_21h45.56.433,vts_reward_expectancy_bt,2022.2.4,Win32,60.0240096,Chrome,1536,864,,,,,10,763,,,,,,,,,,,,,,,,,146,Y,triangle,1,0,,,,,,,,,,,,,,,,switch,letter,lettSwt,k,Lo,,,,,,0.6469,2,,,,,,,,high,10,0,10,0,1,,,,,,,,,
294745,2022-12-05_21h45.56.433,vts_reward_expectancy_bt,2022.2.4,Win32,60.0240096,Chrome,1536,864,,,,,0,763,,,,,,,,,,,,,,,,,181,H,hexagon,0,0,,,,,,,,,,,,,,,,repeat,letter,NA,k,Lo,,,,,,0.6048,2,,,,,,,,high,11,0,11,0,1,,,,,,,,,
294745,2022-12-05_21h45.56.433,vts_reward_expectancy_bt,2022.2.4,Win32,60.0240096,Chrome,1536,864,,,,,1,764,,,,,,,,,,,,,,,,,167,B,circle,1,1,,,,,,,,,,,,,,,,switch,number,numSwt,f,Lo,,,,,,0.9689,2,,,,,,,,high,12,0,12,0,1,,,,,,,,,
294745,2022-12-05_21h45.56.433,vts_reward_expectancy_bt,2022.2.4,Win32,60.0240096,Chrome,1536,864,,,,,10,774,,,,,,,,,,,,,,,,,139,S,hexagon,1,0,,,,,,,,,,,,,,,,repeat,number,numRpt,d,Hi,,,,,,0.6897,2,,,,,,,,high,13,0,13,0,1,,,,,,,,,
294745,2022-12-05_21h45.56.433,vts_reward_expectancy_bt,2022.2.4,Win32,60.0240096,Chrome,1536,864,,,,,0,774,,,,,,,,,,,,,,,,,132,U,star,1,0,,,,,,,,,,,,,,,,switch,letter,lettSwt,k,Hi,,,,,,1.0178,2,,,,,,,,high,14,0,14,0,1,,,,,,,,,
294745,2022-12-05_21h45.56.433,vts_reward_expectancy_bt,2022.2.4,Win32,60.0240096,Chrome,1536,864,,,,,0,774,,,,,,,,,,,,,,,,,160,D,triangle,0,0,,,,,,,,,,,,,,,,switch,number,NA,d,Hi,,,,,,0.7071,2,,,,,,,,high,15,0,15,0,1,,,,,,,,,
294745,2022-12-05_21h45.56.433,vts_reward_expectancy_bt,2022.2.4,Win32,60.0240096,Chrome,1536,864,,,,,1,775,,,,,,,,,,,,,,,,,139,F,star,1,1,,,,,,,,,,,,,,,,repeat,number,numRpt,d,Hi,,,,,,0.6802,2,,,,,,,,high,16,0,16,0,1,,,,,,,,,
294745,2022-12-05_21h45.56.433,vts_reward_expectancy_bt,2022.2.4,Win32,60.0240096,Chrome,1536,864,,,,,10,785,,,,,,,,,,,,,,,,,132,Y,triangle,1,0,,,,,,,,,,,,,,,,switch,letter,lettSwt,k,Lo,,,,,,0.6967,2,,,,,,,,high,17,0,17,0,1,,,,,,,,,
294745,2022-12-05_21h45.56.433,vts_reward_expectancy_bt,2022.2.4,Win32,60.0240096,Chrome,1536,864,,,,,0,785,,,,,,,,,,,,,,,,,160,H,circle,0,0,,,,,,,,,,,,,,,,repeat,letter,NA,k,Lo,,,,,,0.9862,2,,,,,,,,high,18,0,18,0,1,,,,,,,,,
294745,2022-12-05_21h45.56.433,vts_reward_expectancy_bt,2022.2.4,Win32,60.0240096,Chrome,1536,864,,,,,0,785,,,,,,,,,,,,,,,,,125,S,hexagon,1,1,,,,,,,,,,,,,,,,repeat,letter,lettRpt,k,Hi,,,,,,1.2845,2,,,,,,,,high,19,0,19,0,1,,,,,,,,,
294745,2022-12-05_21h45.56.433,vts_reward_expectancy_bt,2022.2.4,Win32,60.0240096,Chrome,1536,864,,,,,10,795,,,,,,,,,,,,,,,,,174,W,star,1,0,,,,,,,,,,,,,,,,switch,number,numSwt,f,Hi,,,,,,0.6878,2,,,,,,,,high,20,0,20,0,1,,,,,,,,,
294745,2022-12-05_21h45.56.433,vts_reward_expectancy_bt,2022.2.4,Win32,60.0240096,Chrome,1536,864,,,,,1,796,,,,,,,,,,,,,,,,,181,U,circle,1,0,,,,,,,,,,,,,,,,repeat,number,numRpt,f,Lo,,,,,,0.8784,2,,,,,,,,high,21,0,21,0,1,,,,,,,,,
294745,2022-12-05_21h45.56.433,vts_reward_expectancy_bt,2022.2.4,Win32,60.0240096,Chrome,1536,864,,,,,0,796,,,,,,,,,,,,,,,,,167,D,hexagon,1,0,,,,,,,,,,,,,,,,switch,letter,lettSwt,j,Hi,,,,,,1.0738,2,,,,,,,,high,22,0,22,0,1,,,,,,,,,
294745,2022-12-05_21h45.56.433,vts_reward_expectancy_bt,2022.2.4,Win32,60.0240096,Chrome,1536,864,,,,,1,797,,,,,,,,,,,,,,,,,146,B,triangle,1,0,,,,,,,,,,,,,,,,repeat,letter,lettRpt,j,Lo,,,,,,1.0321,2,,,,,,,,high,23,0,23,0,1,,,,,,,,,
294745,2022-12-05_21h45.56.433,vts_reward_expectancy_bt,2022.2.4,Win32,60.0240096,Chrome,1536,864,,,,,1,798,,,,,,,,,,,,,,,,,139,U,triangle,1,0,,,,,,,,,,,,,,,,switch,number,numSwt,d,Lo,,,,,,0.9815,2,,,,,,,,high,24,0,24,0,1,,,,,,,,,
294745,2022-12-05_21h45.56.433,vts_reward_expectancy_bt,2022.2.4,Win32,60.0240096,Chrome,1536,864,,,,,0,798,,,,,,,,,,,,,,,,,167,H,star,1,0,,,,,,,,,,,,,,,,repeat,number,numRpt,f,Hi,,,,,,2.6186,2,,,,,,,,high,25,0,25,0,1,,,,,,,,,
294745,2022-12-05_21h45.56.433,vts_reward_expectancy_bt,2022.2.4,Win32,60.0240096,Chrome,1536,864,,,,,1,799,,,,,,,,,,,,,,,,,146,W,circle,1,0,,,,,,,,,,,,,,,,switch,letter,lettSwt,k,Lo,,,,,,0.9876,2,,,,,,,,high,26,0,26,0,1,,,,,,,,,
294745,2022-12-05_21h45.56.433,vts_reward_expectancy_bt,2022.2.4,Win32,60.0240096,Chrome,1536,864,,,,,0,799,,,,,,,,,,,,,,,,,174,B,hexagon,1,0,,,,,,,,,,,,,,,,switch,number,numSwt,f,Hi,,,,,,0.9282,2,,,,,,,,high,27,0,27,0,1,,,,,,,,,
294745,2022-12-05_21h45.56.433,vts_reward_expectancy_bt,2022.2.4,Win32,60.0240096,Chrome,1536,864,,,,,10,809,,,,,,,,,,,,,,,,,181,S,hexagon,1,0,,,,,,,,,,,,,,,,repeat,number,numRpt,f,Hi,,,,,,0.702,2,,,,,,,,high,28,0,28,0,1,,,,,,,,,
294745,2022-12-05_21h45.56.433,vts_reward_expectancy_bt,2022.2.4,Win32,60.0240096,Chrome,1536,864,,,,,0,809,,,,,,,,,,,,,,,,,125,D,star,0,0,,,,,,,,,,,,,,,,switch,letter,NA,k,Hi,,,,,,0.8939,2,,,,,,,,high,29,0,29,0,1,,,,,,,,,
294745,2022-12-05_21h45.56.433,vts_reward_expectancy_bt,2022.2.4,Win32,60.0240096,Chrome,1536,864,,,,,1,810,,,,,,,,,,,,,,,,,132,Y,circle,1,1,,,,,,,,,,,,,,,,repeat,letter,lettRpt,k,Lo,,,,,,1.3766,2,,,,,,,,high,30,0,30,0,1,,,,,,,,,
294745,2022-12-05_21h45.56.433,vts_reward_expectancy_bt,2022.2.4,Win32,60.0240096,Chrome,1536,864,,,,,1,811,,,,,,,,,,,,,,,,,160,F,triangle,1,0,,,,,,,,,,,,,,,,switch,number,numSwt,f,Lo,,,,,,0.7064,2,,,,,,,,high,31,0,31,0,1,,,,,,,,,
294745,2022-12-05_21h45.56.433,vts_reward_expectancy_bt,2022.2.4,Win32,60.0240096,Chrome,1536,864,,,,,0,811,,,,,,,,,,,,,,,,,139,U,hexagon,0,0,,,,,,,,,,,,,,,,repeat,number,NA,f,Lo,,,,,,0.4245,3,,,,,,space,1.1509,high,0,0,0,0,1,,,,,,,,,
294745,2022-12-05_21h45.56.433,vts_reward_expectancy_bt,2022.2.4,Win32,60.0240096,Chrome,1536,864,,,,,10,821,,,,,,,,,,,,,,,,,146,D,circle,1,1,,,,,,,,,,,,,,,,repeat,number,numRpt,d,Lo,,,,,,1.1084,3,,,,,,,,high,1,0,1,0,1,,,,,,,,,
294745,2022-12-05_21h45.56.433,vts_reward_expectancy_bt,2022.2.4,Win32,60.0240096,Chrome,1536,864,,,,,1,822,,,,,,,,,,,,,,,,,125,Y,triangle,1,0,,,,,,,,,,,,,,,,repeat,number,numRpt,d,Lo,,,,,,0.5966,3,,,,,,,,high,2,0,2,0,1,,,,,,,,,
294745,2022-12-05_21h45.56.433,vts_reward_expectancy_bt,2022.2.4,Win32,60.0240096,Chrome,1536,864,,,,,10,832,,,,,,,,,,,,,,,,,174,B,star,1,0,,,,,,,,,,,,,,,,switch,letter,lettSwt,j,Hi,,,,,,0.6272,3,,,,,,,,high,3,0,3,0,1,,,,,,,,,
294745,2022-12-05_21h45.56.433,vts_reward_expectancy_bt,2022.2.4,Win32,60.0240096,Chrome,1536,864,,,,,0,832,,,,,,,,,,,,,,,,,160,H,hexagon,1,0,,,,,,,,,,,,,,,,repeat,letter,lettRpt,j,Hi,,,,,,0.9754,3,,,,,,,,high,4,0,4,0,1,,,,,,,,,
294745,2022-12-05_21h45.56.433,vts_reward_expectancy_bt,2022.2.4,Win32,60.0240096,Chrome,1536,864,,,,,1,833,,,,,,,,,,,,,,,,,132,F,circle,1,0,,,,,,,,,,,,,,,,switch,number,numSwt,d,Lo,,,,,,0.4794,3,,,,,,,,high,5,0,5,0,1,,,,,,,,,
294745,2022-12-05_21h45.56.433,vts_reward_expectancy_bt,2022.2.4,Win32,60.0240096,Chrome,1536,864,,,,,1,834,,,,,,,,,,,,,,,,,181,W,triangle,1,0,,,,,,,,,,,,,,,,repeat,number,numRpt,f,Lo,,,,,,0.7587,3,,,,,,,,high,6,0,6,0,1,,,,,,,,,
294745,2022-12-05_21h45.56.433,vts_reward_expectancy_bt,2022.2.4,Win32,60.0240096,Chrome,1536,864,,,,,10,844,,,,,,,,,,,,,,,,,167,S,star,1,0,,,,,,,,,,,,,,,,switch,letter,lettSwt,k,Hi,,,,,,0.757,3,,,,,,,,high,7,0,7,0,1,,,,,,,,,
294745,2022-12-05_21h45.56.433,vts_reward_expectancy_bt,2022.2.4,Win32,60.0240096,Chrome,1536,864,,,,,1,845,,,,,,,,,,,,,,,,,139,U,circle,1,0,,,,,,,,,,,,,,,,switch,number,numSwt,d,Lo,,,,,,0.7565,3,,,,,,,,high,8,0,8,0,1,,,,,,,,,
294745,2022-12-05_21h45.56.433,vts_reward_expectancy_bt,2022.2.4,Win32,60.0240096,Chrome,1536,864,,,,,0,845,,,,,,,,,,,,,,,,,146,D,hexagon,0,0,,,,,,,,,,,,,,,,switch,letter,NA,k,Lo,,,,,,0.7982,3,,,,,,,,high,9,0,9,0,1,,,,,,,,,
294745,2022-12-05_21h45.56.433,vts_reward_expectancy_bt,2022.2.4,Win32,60.0240096,Chrome,1536,864,,,,,0,845,,,,,,,,,,,,,,,,,125,Y,star,1,1,,,,,,,,,,,,,,,,repeat,letter,lettRpt,k,Hi,,,,,,1.304,3,,,,,,,,high,10,0,10,0,1,,,,,,,,,
294745,2022-12-05_21h45.56.433,vts_reward_expectancy_bt,2022.2.4,Win32,60.0240096,Chrome,1536,864,,,,,0,845,,,,,,,,,,,,,,,,,174,B,triangle,0,0,,,,,,,,,,,,,,,,switch,number,NA,d,Hi,,,,,,0.5443,3,,,,,,,,high,11,0,11,0,1,,,,,,,,,
294745,2022-12-05_21h45.56.433,vts_reward_expectancy_bt,2022.2.4,Win32,60.0240096,Chrome,1536,864,,,,,10,855,,,,,,,,,,,,,,,,,160,H,triangle,1,1,,,,,,,,,,,,,,,,repeat,number,numRpt,f,Lo,,,,,,1.0028,3,,,,,,,,high,12,0,12,0,1,,,,,,,,,
294745,2022-12-05_21h45.56.433,vts_reward_expectancy_bt,2022.2.4,Win32,60.0240096,Chrome,1536,864,,,,,0,855,,,,,,,,,,,,,,,,,132,F,hexagon,0,0,,,,,,,,,,,,,,,,switch,letter,NA,k,Lo,,,,,,1.0344,3,,,,,,,,high,13,0,13,0,1,,,,,,,,,
294745,2022-12-05_21h45.56.433,vts_reward_expectancy_bt,2022.2.4,Win32,60.0240096,Chrome,1536,864,,,,,1,856,,,,,,,,,,,,,,,,,181,W,circle,1,1,,,,,,,,,,,,,,,,switch,number,numSwt,f,Lo,,,,,,1.288,3,,,,,,,,high,14,0,14,0,1,,,,,,,,,
294745,2022-12-05_21h45.56.433,vts_reward_expectancy_bt,2022.2.4,Win32,60.0240096,Chrome,1536,864,,,,,0,856,,,,,,,,,,,,,,,,,167,S,star,1,0,,,,,,,,,,,,,,,,switch,letter,lettSwt,k,Hi,,,,,,0.9711,3,,,,,,,,high,15,0,15,0,1,,,,,,,,,
294745,2022-12-05_21h45.56.433,vts_reward_expectancy_bt,2022.2.4,Win32,60.0240096,Chrome,1536,864,,,,,0,856,,,,,,,,,,,,,,,,,125,W,star,1,0,,,,,,,,,,,,,,,,repeat,letter,lettRpt,k,Hi,,,,,,1.101,3,,,,,,,,high,16,0,16,0,1,,,,,,,,,
294745,2022-12-05_21h45.56.433,vts_reward_expectancy_bt,2022.2.4,Win32,60.0240096,Chrome,1536,864,,,,,0,856,,,,,,,,,,,,,,,,,146,D,hexagon,1,0,,,,,,,,,,,,,,,,switch,number,numSwt,d,Hi,,,,,,1.0049,3,,,,,,,,high,17,0,17,0,1,,,,,,,,,
294745,2022-12-05_21h45.56.433,vts_reward_expectancy_bt,2022.2.4,Win32,60.0240096,Chrome,1536,864,,,,,10,866,,,,,,,,,,,,,,,,,132,S,triangle,1,0,,,,,,,,,,,,,,,,repeat,number,numRpt,d,Lo,,,,,,0.8199,3,,,,,,,,high,18,0,18,0,1,,,,,,,,,
294745,2022-12-05_21h45.56.433,vts_reward_expectancy_bt,2022.2.4,Win32,60.0240096,Chrome,1536,864,,,,,0,866,,,,,,,,,,,,,,,,,139,F,circle,0,0,,,,,,,,,,,,,,,,switch,letter,NA,k,Lo,,,,,,0.6773,3,,,,,,,,high,19,0,19,0,1,,,,,,,,,
294745,2022-12-05_21h45.56.433,vts_reward_expectancy_bt,2022.2.4,Win32,60.0240096,Chrome,1536,864,,,,,0,866,,,,,,,,,,,,,,,,,160,H,hexagon,1,1,,,,,,,,,,,,,,,,switch,number,numSwt,f,Hi,,,,,,0.7581,3,,,,,,,,high,20,0,20,0,1,,,,,,,,,
294745,2022-12-05_21h45.56.433,vts_reward_expectancy_bt,2022.2.4,Win32,60.0240096,Chrome,1536,864,,,,,1,867,,,,,,,,,,,,,,,,,167,Y,circle,1,0,,,,,,,,,,,,,,,,switch,letter,lettSwt,k,Lo,,,,,,0.9834,3,,,,,,,,high,21,0,21,0,1,,,,,,,,,
294745,2022-12-05_21h45.56.433,vts_reward_expectancy_bt,2022.2.4,Win32,60.0240096,Chrome,1536,864,,,,,1,868,,,,,,,,,,,,,,,,,174,B,star,1,0,,,,,,,,,,,,,,,,repeat,letter,lettRpt,j,Hi,,,,,,0.6527,3,,,,,,,,high,22,0,22,0,1,,,,,,,,,
294745,2022-12-05_21h45.56.433,vts_reward_expectancy_bt,2022.2.4,Win32,60.0240096,Chrome,1536,864,,,,,10,878,,,,,,,,,,,,,,,,,181,U,triangle,1,0,,,,,,,,,,,,,,,,repeat,letter,lettRpt,k,Lo,,,,,,1.8493,3,,,,,,,,high,23,0,23,0,1,,,,,,,,,
294745,2022-12-05_21h45.56.433,vts_reward_expectancy_bt,2022.2.4,Win32,60.0240096,Chrome,1536,864,,,,,0,878,,,,,,,,,,,,,,,,,132,S,star,1,0,,,,,,,,,,,,,,,,repeat,letter,lettRpt,k,Hi,,,,,,1.0362,3,,,,,,,,high,24,0,24,0,1,,,,,,,,,
294745,2022-12-05_21h45.56.433,vts_reward_expectancy_bt,2022.2.4,Win32,60.0240096,Chrome,1536,864,,,,,1,879,,,,,,,,,,,,,,,,,125,F,circle,1,0,,,,,,,,,,,,,,,,switch,number,numSwt,d,Lo,,,,,,0.8727,3,,,,,,,,high,25,0,25,0,1,,,,,,,,,
294745,2022-12-05_21h45.56.433,vts_reward_expectancy_bt,2022.2.4,Win32,60.0240096,Chrome,1536,864,,,,,1,880,,,,,,,,,,,,,,,,,167,B,triangle,1,0,,,,,,,,,,,,,,,,switch,letter,lettSwt,j,Lo,,,,,,0.8688,3,,,,,,,,high,26,0,26,0,1,,,,,,,,,
294745,2022-12-05_21h45.56.433,vts_reward_expectancy_bt,2022.2.4,Win32,60.0240096,Chrome,1536,864,,,,,10,890,,,,,,,,,,,,,,,,,139,Y,hexagon,1,0,,,,,,,,,,,,,,,,repeat,letter,lettRpt,k,Hi,,,,,,0.7644,3,,,,,,,,high,27,0,27,0,1,,,,,,,,,
294745,2022-12-05_21h45.56.433,vts_reward_expectancy_bt,2022.2.4,Win32,60.0240096,Chrome,1536,864,,,,,10,900,,,,,,,,,,,,,,,,,160,D,circle,1,0,,,,,,,,,,,,,,,,repeat,letter,lettRpt,j,Lo,,,,,,0.8915,3,,,,,,,,high,28,0,28,0,1,,,,,,,,,
294745,2022-12-05_21h45.56.433,vts_reward_expectancy_bt,2022.2.4,Win32,60.0240096,Chrome,1536,864,,,,,0,900,,,,,,,,,,,,,,,,,146,W,star,1,0,,,,,,,,,,,,,,,,switch,number,numSwt,d,Hi,,,,,,0.8795,3,,,,,,,,high,29,0,29,0,1,,,,,,,,,
294745,2022-12-05_21h45.56.433,vts_reward_expectancy_bt,2022.2.4,Win32,60.0240096,Chrome,1536,864,,,,,1,901,,,,,,,,,,,,,,,,,174,H,triangle,1,0,,,,,,,,,,,,,,,,switch,letter,lettSwt,j,Lo,,,,,,1.3175,3,,,,,,,,high,30,0,30,0,1,,,,,,,,,
294745,2022-12-05_21h45.56.433,vts_reward_expectancy_bt,2022.2.4,Win32,60.0240096,Chrome,1536,864,,,,,0,901,,,,,,,,,,,,,,,,,181,U,hexagon,1,0,,,,,,,,,,,,,,,,switch,number,numSwt,f,Hi,,,,,,1.053,3,,,,,,,,high,31,0,31,0,1,,,,,,,,,
294745,2022-12-05_21h45.56.433,vts_reward_expectancy_bt,2022.2.4,Win32,60.0240096,Chrome,1536,864,,,,,1,902,,,,,,,,,,,,,,,,,139,U,circle,1,0,,,,,,,,,,,,,,,,repeat,number,numRpt,d,Lo,,,,,,0.6936,4,,,,,,space,0.7577,high,0,0,0,0,1,,,,,,,,,
294745,2022-12-05_21h45.56.433,vts_reward_expectancy_bt,2022.2.4,Win32,60.0240096,Chrome,1536,864,,,,,1,903,,,,,,,,,,,,,,,,,132,B,triangle,1,0,,,,,,,,,,,,,,,,switch,letter,lettSwt,j,Lo,,,,,,0.5851,4,,,,,,,,high,1,0,1,0,1,,,,,,,,,
294745,2022-12-05_21h45.56.433,vts_reward_expectancy_bt,2022.2.4,Win32,60.0240096,Chrome,1536,864,,,,,0,903,,,,,,,,,,,,,,,,,167,F,hexagon,0,0,,,,,,,,,,,,,,,,switch,number,NA,d,Lo,,,,,,0.6797,4,,,,,,,,high,2,0,2,0,1,,,,,,,,,
294745,2022-12-05_21h45.56.433,vts_reward_expectancy_bt,2022.2.4,Win32,60.0240096,Chrome,1536,864,,,,,10,913,,,,,,,,,,,,,,,,,181,H,star,1,1,,,,,,,,,,,,,,,,repeat,number,numRpt,f,Hi,,,,,,0.6713,4,,,,,,,,high,3,0,3,0,1,,,,,,,,,
294745,2022-12-05_21h45.56.433,vts_reward_expectancy_bt,2022.2.4,Win32,60.0240096,Chrome,1536,864,,,,,1,914,,,,,,,,,,,,,,,,,160,W,circle,1,0,,,,,,,,,,,,,,,,switch,letter,lettSwt,k,Lo,,,,,,0.5445,4,,,,,,,,high,4,0,4,0,1,,,,,,,,,
294745,2022-12-05_21h45.56.433,vts_reward_expectancy_bt,2022.2.4,Win32,60.0240096,Chrome,1536,864,,,,,1,915,,,,,,,,,,,,,,,,,125,Y,triangle,1,0,,,,,,,,,,,,,,,,switch,number,numSwt,d,Lo,,,,,,0.7986,4,,,,,,,,high,5,0,5,0,1,,,,,,,,,
294745,2022-12-05_21h45.56.433,vts_reward_expectancy_bt,2022.2.4,Win32,60.0240096,Chrome,1536,864,,,,,0,915,,,,,,,,,,,,,,,,,146,D,hexagon,0,0,,,,,,,,,,,,,,,,repeat,number,NA,f,Lo,,,,,,0.7137,4,,,,,,,,high,6,0,6,0,1,,,,,,,,,
294745,2022-12-05_21h45.56.433,vts_reward_expectancy_bt,2022.2.4,Win32,60.0240096,Chrome,1536,864,,,,,0,915,,,,,,,,,,,,,,,,,174,S,star,1,1,,,,,,,,,,,,,,,,repeat,number,numRpt,f,Hi,,,,,,0.8059,4,,,,,,,,high,7,0,7,0,1,,,,,,,,,
294745,2022-12-05_21h45.56.433,vts_reward_expectancy_bt,2022.2.4,Win32,60.0240096,Chrome,1536,864,,,,,1,916,,,,,,,,,,,,,,,,,139,U,circle,1,0,,,,,,,,,,,,,,,,switch,letter,lettSwt,k,Lo,,,,,,0.8431,4,,,,,,,,high,8,0,8,0,1,,,,,,,,,
294745,2022-12-05_21h45.56.433,vts_reward_expectancy_bt,2022.2.4,Win32,60.0240096,Chrome,1536,864,,,,,1,917,,,,,,,,,,,,,,,,,132,B,star,1,0,,,,,,,,,,,,,,,,switch,number,numSwt,d,Hi,,,,,,0.5621,4,,,,,,,,high,9,0,9,0,1,,,,,,,,,
294745,2022-12-05_21h45.56.433,vts_reward_expectancy_bt,2022.2.4,Win32,60.0240096,Chrome,1536,864,,,,,0,917,,,,,,,,,,,,,,,,,167,F,hexagon,0,0,,,,,,,,,,,,,,,,switch,letter,NA,k,Hi,,,,,,0.8558,4,,,,,,,,high,10,0,10,0,1,,,,,,,,,
294745,2022-12-05_21h45.56.433,vts_reward_expectancy_bt,2022.2.4,Win32,60.0240096,Chrome,1536,864,,,,,10,927,,,,,,,,,,,,,,,,,181,H,triangle,1,1,,,,,,,,,,,,,,,,switch,number,numSwt,f,Lo,,,,,,1.2171,4,,,,,,,,high,11,0,11,0,1,,,,,,,,,
294745,2022-12-05_21h45.56.433,vts_reward_expectancy_bt,2022.2.4,Win32,60.0240096,Chrome,1536,864,,,,,1,928,,,,,,,,,,,,,,,,,160,W,circle,1,0,,,,,,,,,,,,,,,,repeat,number,numRpt,f,Lo,,,,,,1.5962,4,,,,,,,,high,12,0,12,0,1,,,,,,,,,
294745,2022-12-05_21h45.56.433,vts_reward_expectancy_bt,2022.2.4,Win32,60.0240096,Chrome,1536,864,,,,,0,928,,,,,,,,,,,,,,,,,125,Y,star,1,0,,,,,,,,,,,,,,,,switch,letter,lettSwt,k,Hi,,,,,,0.9725,4,,,,,,,,high,13,0,13,0,1,,,,,,,,,
294745,2022-12-05_21h45.56.433,vts_reward_expectancy_bt,2022.2.4,Win32,60.0240096,Chrome,1536,864,,,,,0,928,,,,,,,,,,,,,,,,,146,D,hexagon,1,0,,,,,,,,,,,,,,,,switch,number,numSwt,d,Hi,,,,,,0.8664,4,,,,,,,,high,14,0,14,0,1,,,,,,,,,
294745,2022-12-05_21h45.56.433,vts_reward_expectancy_bt,2022.2.4,Win32,60.0240096,Chrome,1536,864,,,,,1,929,,,,,,,,,,,,,,,,,174,S,triangle,1,0,,,,,,,,,,,,,,,,repeat,number,numRpt,f,Lo,,,,,,0.7964,4,,,,,,,,high,15,0,15,0,1,,,,,,,,,
294745,2022-12-05_21h45.56.433,vts_reward_expectancy_bt,2022.2.4,Win32,60.0240096,Chrome,1536,864,,,,,1,930,,,,,,,,,,,,,,,,,167,U,triangle,1,0,,,,,,,,,,,,,,,,switch,letter,lettSwt,k,Lo,,,,,,0.9217,4,,,,,,,,high,16,0,16,0,1,,,,,,,,,
294745,2022-12-05_21h45.56.433,vts_reward_expectancy_bt,2022.2.4,Win32,60.0240096,Chrome,1536,864,,,,,0,930,,,,,,,,,,,,,,,,,132,D,star,1,0,,,,,,,,,,,,,,,,switch,number,numSwt,d,Hi,,,,,,1.2693,4,,,,,,,,high,17,0,17,0,1,,,,,,,,,
294745,2022-12-05_21h45.56.433,vts_reward_expectancy_bt,2022.2.4,Win32,60.0240096,Chrome,1536,864,,,,,0,930,,,,,,,,,,,,,,,,,160,S,hexagon,1,0,,,,,,,,,,,,,,,,switch,letter,lettSwt,k,Hi,,,,,,1.2418,4,,,,,,,,high,18,0,18,0,1,,,,,,,,,
294745,2022-12-05_21h45.56.433,vts_reward_expectancy_bt,2022.2.4,Win32,60.0240096,Chrome,1536,864,,,,,0,930,,,,,,,,,,,,,,,,,181,B,circle,0,0,,,,,,,,,,,,,,,,switch,number,NA,d,Hi,,,,,,0.751,4,,,,,,,,high,19,0,19,0,1,,,,,,,,,
294745,2022-12-05_21h45.56.433,vts_reward_expectancy_bt,2022.2.4,Win32,60.0240096,Chrome,1536,864,,,,,10,940,,,,,,,,,,,,,,,,,146,W,hexagon,1,1,,,,,,,,,,,,,,,,repeat,number,numRpt,d,Hi,,,,,,0.7346,4,,,,,,,,high,20,0,20,0,1,,,,,,,,,
294745,2022-12-05_21h45.56.433,vts_reward_expectancy_bt,2022.2.4,Win32,60.0240096,Chrome,1536,864,,,,,1,941,,,,,,,,,,,,,,,,,174,H,circle,1,0,,,,,,,,,,,,,,,,switch,letter,lettSwt,j,Lo,,,,,,0.8219,4,,,,,,,,high,21,0,21,0,1,,,,,,,,,
294745,2022-12-05_21h45.56.433,vts_reward_expectancy_bt,2022.2.4,Win32,60.0240096,Chrome,1536,864,,,,,10,951,,,,,,,,,,,,,,,,,139,F,star,1,0,,,,,,,,,,,,,,,,repeat,letter,lettRpt,j,Hi,,,,,,0.7331,4,,,,,,,,high,22,0,22,0,1,,,,,,,,,
294745,2022-12-05_21h45.56.433,vts_reward_expectancy_bt,2022.2.4,Win32,60.0240096,Chrome,1536,864,,,,,1,952,,,,,,,,,,,,,,,,,125,Y,triangle,1,0,,,,,,,,,,,,,,,,switch,number,numSwt,d,Lo,,,,,,0.7768,4,,,,,,,,high,23,0,23,0,1,,,,,,,,,
294745,2022-12-05_21h45.56.433,vts_reward_expectancy_bt,2022.2.4,Win32,60.0240096,Chrome,1536,864,,,,,10,962,,,,,,,,,,,,,,,,,132,D,star,1,0,,,,,,,,,,,,,,,,repeat,number,numRpt,d,Hi,,,,,,0.7202,4,,,,,,,,high,24,0,24,0,1,,,,,,,,,
294745,2022-12-05_21h45.56.433,vts_reward_expectancy_bt,2022.2.4,Win32,60.0240096,Chrome,1536,864,,,,,1,963,,,,,,,,,,,,,,,,,125,Y,triangle,1,0,,,,,,,,,,,,,,,,switch,letter,lettSwt,k,Lo,,,,,,0.9652,4,,,,,,,,high,25,0,25,0,1,,,,,,,,,
294745,2022-12-05_21h45.56.433,vts_reward_expectancy_bt,2022.2.4,Win32,60.0240096,Chrome,1536,864,,,,,0,963,,,,,,,,,,,,,,,,,160,H,hexagon,1,0,,,,,,,,,,,,,,,,repeat,letter,lettRpt,j,Hi,,,,,,1.4411,4,,,,,,,,high,26,0,26,0,1,,,,,,,,,
294745,2022-12-05_21h45.56.433,vts_reward_expectancy_bt,2022.2.4,Win32,60.0240096,Chrome,1536,864,,,,,10,973,,,,,,,,,,,,,,,,,146,S,circle,1,0,,,,,,,,,,,,,,,,switch,number,numSwt,d,Lo,,,,,,0.5925,4,,,,,,,,high,27,0,27,0,1,,,,,,,,,
294745,2022-12-05_21h45.56.433,vts_reward_expectancy_bt,2022.2.4,Win32,60.0240096,Chrome,1536,864,,,,,10,983,,,,,,,,,,,,,,,,,167,U,circle,1,0,,,,,,,,,,,,,,,,repeat,number,numRpt,f,Lo,,,,,,0.6962,4,,,,,,,,high,28,0,28,0,1,,,,,,,,,
294745,2022-12-05_21h45.56.433,vts_reward_expectancy_bt,2022.2.4,Win32,60.0240096,Chrome,1536,864,,,,,1,984,,,,,,,,,,,,,,,,,139,B,triangle,1,0,,,,,,,,,,,,,,,,switch,letter,lettSwt,j,Lo,,,,,,0.9611,4,,,,,,,,high,29,0,29,0,1,,,,,,,,,
294745,2022-12-05_21h45.56.433,vts_reward_expectancy_bt,2022.2.4,Win32,60.0240096,Chrome,1536,864,,,,,10,994,,,,,,,,,,,,,,,,,174,W,hexagon,1,0,,,,,,,,,,,,,,,,repeat,letter,lettRpt,k,Hi,,,,,,0.8588,4,,,,,,,,high,30,0,30,0,1,,,,,,,,,
294745,2022-12-05_21h45.56.433,vts_reward_expectancy_bt,2022.2.4,Win32,60.0240096,Chrome,1536,864,,,,,0,994,,,,,,,,,,,,,,,,,181,F,star,1,0,,,,,,,,,,,,,,,,switch,number,numSwt,f,Hi,,,,,,0.8841,4,,,,,,,,high,31,0,31,0,1,,,,,,,,,
294745,2022-12-05_21h45.56.433,vts_reward_expectancy_bt,2022.2.4,Win32,60.0240096,Chrome,1536,864,,,,,0,994,,,,,,,,,,,,,,,,,160,U,hexagon,0,0,,,,,,,,,,,,,,,,repeat,number,NA,d,Hi,,,,,,0.533,5,,,,,,space,43.4767,high,0,0,0,0,1,,,,,,,,,
294745,2022-12-05_21h45.56.433,vts_reward_expectancy_bt,2022.2.4,Win32,60.0240096,Chrome,1536,864,,,,,1,995,,,,,,,,,,,,,,,,,167,Y,circle,1,1,,,,,,,,,,,,,,,,repeat,number,numRpt,f,Lo,,,,,,0.4533,5,,,,,,,,high,1,0,1,0,1,,,,,,,,,
294745,2022-12-05_21h45.56.433,vts_reward_expectancy_bt,2022.2.4,Win32,60.0240096,Chrome,1536,864,,,,,10,1005,,,,,,,,,,,,,,,,,125,F,star,1,0,,,,,,,,,,,,,,,,switch,letter,lettSwt,j,Hi,,,,,,0.6231,5,,,,,,,,high,2,0,2,0,1,,,,,,,,,
294745,2022-12-05_21h45.56.433,vts_reward_expectancy_bt,2022.2.4,Win32,60.0240096,Chrome,1536,864,,,,,1,1006,,,,,,,,,,,,,,,,,139,H,triangle,1,0,,,,,,,,,,,,,,,,repeat,letter,lettRpt,j,Lo,,,,,,1.6303,5,,,,,,,,high,3,0,3,0,1,,,,,,,,,
294745,2022-12-05_21h45.56.433,vts_reward_expectancy_bt,2022.2.4,Win32,60.0240096,Chrome,1536,864,,,,,10,1016,,,,,,,,,,,,,,,,,146,B,hexagon,1,0,,,,,,,,,,,,,,,,switch,number,numSwt,d,Hi,,,,,,0.5991,5,,,,,,,,high,4,0,4,0,1,,,,,,,,,
294745,2022-12-05_21h45.56.433,vts_reward_expectancy_bt,2022.2.4,Win32,60.0240096,Chrome,1536,864,,,,,1,1017,,,,,,,,,,,,,,,,,181,W,circle,1,0,,,,,,,,,,,,,,,,repeat,number,numRpt,f,Lo,,,,,,0.6666,5,,,,,,,,high,5,0,5,0,1,,,,,,,,,
294745,2022-12-05_21h45.56.433,vts_reward_expectancy_bt,2022.2.4,Win32,60.0240096,Chrome,1536,864,,,,,1,1018,,,,,,,,,,,,,,,,,174,D,star,1,0,,,,,,,,,,,,,,,,switch,letter,lettSwt,j,Hi,,,,,,0.7862,5,,,,,,,,high,6,0,6,0,1,,,,,,,,,
294745,2022-12-05_21h45.56.433,vts_reward_expectancy_bt,2022.2.4,Win32,60.0240096,Chrome,1536,864,,,,,1,1019,,,,,,,,,,,,,,,,,132,S,triangle,1,0,,,,,,,,,,,,,,,,switch,number,numSwt,d,Lo,,,,,,0.8676,5,,,,,,,,high,7,0,7,0,1,,,,,,,,,
294745,2022-12-05_21h45.56.433,vts_reward_expectancy_bt,2022.2.4,Win32,60.0240096,Chrome,1536,864,,,,,0,1019,,,,,,,,,,,,,,,,,160,U,star,1,0,,,,,,,,,,,,,,,,switch,letter,lettSwt,k,Hi,,,,,,1.5502,5,,,,,,,,high,8,0,8,0,1,,,,,,,,,
294745,2022-12-05_21h45.56.433,vts_reward_expectancy_bt,2022.2.4,Win32,60.0240096,Chrome,1536,864,,,,,1,1020,,,,,,,,,,,,,,,,,167,Y,circle,1,0,,,,,,,,,,,,,,,,switch,number,numSwt,f,Lo,,,,,,0.7994,5,,,,,,,,high,9,0,9,0,1,,,,,,,,,
294745,2022-12-05_21h45.56.433,vts_reward_expectancy_bt,2022.2.4,Win32,60.0240096,Chrome,1536,864,,,,,1,1021,,,,,,,,,,,,,,,,,125,F,triangle,1,0,,,,,,,,,,,,,,,,repeat,number,numRpt,d,Lo,,,,,,0.7528,5,,,,,,,,high,10,0,10,0,1,,,,,,,,,
294745,2022-12-05_21h45.56.433,vts_reward_expectancy_bt,2022.2.4,Win32,60.0240096,Chrome,1536,864,,,,,0,1021,,,,,,,,,,,,,,,,,139,H,hexagon,1,0,,,,,,,,,,,,,,,,repeat,number,numRpt,d,Hi,,,,,,1.6053,5,,,,,,,,high,11,0,11,0,1,,,,,,,,,
294745,2022-12-05_21h45.56.433,vts_reward_expectancy_bt,2022.2.4,Win32,60.0240096,Chrome,1536,864,,,,,0,1021,,,,,,,,,,,,,,,,,146,B,hexagon,1,0,,,,,,,,,,,,,,,,repeat,number,numRpt,d,Hi,,,,,,0.8702,5,,,,,,,,high,12,0,12,0,1,,,,,,,,,
294745,2022-12-05_21h45.56.433,vts_reward_expectancy_bt,2022.2.4,Win32,60.0240096,Chrome,1536,864,,,,,10,1031,,,,,,,,,,,,,,,,,181,W,star,1,0,,,,,,,,,,,,,,,,repeat,number,numRpt,f,Hi,,,,,,0.6527,5,,,,,,,,high,13,0,13,0,1,,,,,,,,,
294745,2022-12-05_21h45.56.433,vts_reward_expectancy_bt,2022.2.4,Win32,60.0240096,Chrome,1536,864,,,,,1,1032,,,,,,,,,,,,,,,,,174,D,triangle,1,0,,,,,,,,,,,,,,,,switch,letter,lettSwt,j,Lo,,,,,,0.7656,5,,,,,,,,high,14,0,14,0,1,,,,,,,,,
294745,2022-12-05_21h45.56.433,vts_reward_expectancy_bt,2022.2.4,Win32,60.0240096,Chrome,1536,864,,,,,1,1033,,,,,,,,,,,,,,,,,132,S,circle,1,0,,,,,,,,,,,,,,,,switch,number,numSwt,d,Lo,,,,,,0.801,5,,,,,,,,high,15,0,15,0,1,,,,,,,,,
294745,2022-12-05_21h45.56.433,vts_reward_expectancy_bt,2022.2.4,Win32,60.0240096,Chrome,1536,864,,,,,1,1034,,,,,,,,,,,,,,,,,132,S,circle,1,0,,,,,,,,,,,,,,,,repeat,number,numRpt,d,Lo,,,,,,0.8865,5,,,,,,,,high,16,0,16,0,1,,,,,,,,,
294745,2022-12-05_21h45.56.433,vts_reward_expectancy_bt,2022.2.4,Win32,60.0240096,Chrome,1536,864,,,,,1,1035,,,,,,,,,,,,,,,,,125,W,triangle,1,0,,,,,,,,,,,,,,,,switch,letter,lettSwt,k,Lo,,,,,,0.7599,5,,,,,,,,high,17,0,17,0,1,,,,,,,,,
294745,2022-12-05_21h45.56.433,vts_reward_expectancy_bt,2022.2.4,Win32,60.0240096,Chrome,1536,864,,,,,0,1035,,,,,,,,,,,,,,,,,139,D,star,1,0,,,,,,,,,,,,,,,,repeat,letter,lettRpt,j,Hi,,,,,,1.1914,5,,,,,,,,high,18,0,18,0,1,,,,,,,,,
