participant,date,expName,psychopyVersion,OS,frameRate,browser,xResolution,yResolution,key_resp.keys,key_resp.rt,training_resp.keys,training_resp.rt,points_trial,points_cumul,trainBlock,training.thisRepN,training.thisTrialN,training.thisN,training.thisIndex,training.ran,LTriangleOpac,LCircleOpac,LHexagonOpac,LStarOpac,RTriangleOpac,RCircleOpac,RHexagonOpac,RStarOpac,LShape_ID,RShape_ID,curr_topStim,curr_bottStim,curr_shape,acc,E1,target_resp_prac1.keys,target_resp_prac1.rt,pracBlock,task1_prac_trials.thisRepN,task1_prac_trials.thisTrialN,task1_prac_trials.thisN,task1_prac_trials.thisIndex,task1_prac_trials.ran,target_resp_prac2.keys,target_resp_prac2.rt,task2_praac_trials.thisRepN,task2_praac_trials.thisTrialN,task2_praac_trials.thisN,task2_praac_trials.thisIndex,task2_praac_trials.ran,alt,task,condition,target_resp.keys,target_resp.rt,rewCond,vts_practice_trials.thisRepN,vts_practice_trials.thisTrialN,vts_practice_trials.thisN,vts_practice_trials.thisIndex,vts_practice_trials.ran,blockNum,trials_norew.thisRepN,trials_norew.thisTrialN,trials_norew.thisN,trials_norew.thisIndex,trials_norew.ran,key_resp_2.keys,key_resp_2.rt,rewExpectancy,trials_rew.thisRepN,trials_rew.thisTrialN,trials_rew.thisN,trials_rew.thisIndex,trials_rew.ran,Q1,Q2,Q2_text,Q3,Q4,Q5_text,Q5,xRes,yRes
294742,2022-12-06_05h51.15.915,vts_reward_expectancy_bt,2022.2.4,MacIntel,62.5,Safari,1512,982,,,,,,,,,,,,,,,,,,,,,,,,,,,,,,,,,,,,,,,,,,,,,,,,,,,,,,,,,,,,,,,,,,,,,,,,,,,,
294742,2022-12-06_05h51.15.915,vts_reward_expectancy_bt,2022.2.4,MacIntel,62.5,Safari,1512,982,space,3.338,,,,,,,,,,,,,,,,,,,,,,,,,,,,,,,,,,,,,,,,,,,,,,,,,,,,,,,,,,,,,,,,,,,,,,,,,,
294742,2022-12-06_05h51.15.915,vts_reward_expectancy_bt,2022.2.4,MacIntel,62.5,Safari,1512,982,,,,,,,,,,,,,,,,,,,,,,,,,,,,,,,,,,,,,,,,,,,,,,,,,,,,,,,,,,,,,,,,,,,,,,,,,,,,
294742,2022-12-06_05h51.15.915,vts_reward_expectancy_bt,2022.2.4,MacIntel,62.5,Safari,1512,982,,,a,1.806,1,1,0,0,0,0,0,1,1,0,0,0,0,1,0,0,triangle,circle,,,,,,,,,,,,,,,,,,,,,,,,,,,,,,,,,,,,,,,,,,,,,,,,,,,,,,
294742,2022-12-06_05h51.15.915,vts_reward_expectancy_bt,2022.2.4,MacIntel,62.5,Safari,1512,982,,,l,1.21,1,2,0,0,1,1,8,1,0,0,1,0,0,0,0,1,hexagon,star,,,,,,,,,,,,,,,,,,,,,,,,,,,,,,,,,,,,,,,,,,,,,,,,,,,,,,
294742,2022-12-06_05h51.15.915,vts_reward_expectancy_bt,2022.2.4,MacIntel,62.5,Safari,1512,982,,,l,0.794,1,3,0,0,2,2,3,1,0,1,0,0,1,0,0,0,circle,triangle,,,,,,,,,,,,,,,,,,,,,,,,,,,,,,,,,,,,,,,,,,,,,,,,,,,,,,
294742,2022-12-06_05h51.15.915,vts_reward_expectancy_bt,2022.2.4,MacIntel,62.5,Safari,1512,982,,,a,0.919,1,4,0,0,3,3,9,1,0,0,0,1,1,0,0,0,star,triangle,,,,,,,,,,,,,,,,,,,,,,,,,,,,,,,,,,,,,,,,,,,,,,,,,,,,,,
294742,2022-12-06_05h51.15.915,vts_reward_expectancy_bt,2022.2.4,MacIntel,62.5,Safari,1512,982,,,a,1.234,1,5,0,0,4,4,5,1,0,1,0,0,0,0,0,1,circle,star,,,,,,,,,,,,,,,,,,,,,,,,,,,,,,,,,,,,,,,,,,,,,,,,,,,,,,
294742,2022-12-06_05h51.15.915,vts_reward_expectancy_bt,2022.2.4,MacIntel,62.5,Safari,1512,982,,,a,0.67,10,15,0,0,5,5,7,1,0,0,1,0,0,1,0,0,hexagon,circle,,,,,,,,,,,,,,,,,,,,,,,,,,,,,,,,,,,,,,,,,,,,,,,,,,,,,,
294742,2022-12-06_05h51.15.915,vts_reward_expectancy_bt,2022.2.4,MacIntel,62.5,Safari,1512,982,,,l,0.724,10,25,0,0,6,6,1,1,1,0,0,0,0,0,1,0,triangle,hexagon,,,,,,,,,,,,,,,,,,,,,,,,,,,,,,,,,,,,,,,,,,,,,,,,,,,,,,
294742,2022-12-06_05h51.15.915,vts_reward_expectancy_bt,2022.2.4,MacIntel,62.5,Safari,1512,982,,,a,0.59,10,35,0,0,7,7,11,1,0,0,0,1,0,0,1,0,star,hexagon,,,,,,,,,,,,,,,,,,,,,,,,,,,,,,,,,,,,,,,,,,,,,,,,,,,,,,
294742,2022-12-06_05h51.15.915,vts_reward_expectancy_bt,2022.2.4,MacIntel,62.5,Safari,1512,982,,,a,2.243,10,45,0,0,8,8,4,1,0,1,0,0,0,0,1,0,circle,hexagon,,,,,,,,,,,,,,,,,,,,,,,,,,,,,,,,,,,,,,,,,,,,,,,,,,,,,,
294742,2022-12-06_05h51.15.915,vts_reward_expectancy_bt,2022.2.4,MacIntel,62.5,Safari,1512,982,,,l,1.141,1,46,0,0,9,9,10,1,0,0,0,1,0,1,0,0,star ,circle,,,,,,,,,,,,,,,,,,,,,,,,,,,,,,,,,,,,,,,,,,,,,,,,,,,,,,
294742,2022-12-06_05h51.15.915,vts_reward_expectancy_bt,2022.2.4,MacIntel,62.5,Safari,1512,982,,,l,1.664,10,56,0,0,10,10,6,1,0,0,1,0,1,0,0,0,hexagon,triangle,,,,,,,,,,,,,,,,,,,,,,,,,,,,,,,,,,,,,,,,,,,,,,,,,,,,,,
294742,2022-12-06_05h51.15.915,vts_reward_expectancy_bt,2022.2.4,MacIntel,62.5,Safari,1512,982,,,l,1.686,10,66,0,0,11,11,2,1,1,0,0,0,0,0,0,1,triangle,star,,,,,,,,,,,,,,,,,,,,,,,,,,,,,,,,,,,,,,,,,,,,,,,,,,,,,,
294742,2022-12-06_05h51.15.915,vts_reward_expectancy_bt,2022.2.4,MacIntel,62.5,Safari,1512,982,,,a,1.44,1,67,0,1,0,12,2,1,1,0,0,0,0,0,0,1,triangle,star,,,,,,,,,,,,,,,,,,,,,,,,,,,,,,,,,,,,,,,,,,,,,,,,,,,,,,
294742,2022-12-06_05h51.15.915,vts_reward_expectancy_bt,2022.2.4,MacIntel,62.5,Safari,1512,982,,,a,0.859,1,68,0,1,1,13,10,1,0,0,0,1,0,1,0,0,star ,circle,,,,,,,,,,,,,,,,,,,,,,,,,,,,,,,,,,,,,,,,,,,,,,,,,,,,,,
294742,2022-12-06_05h51.15.915,vts_reward_expectancy_bt,2022.2.4,MacIntel,62.5,Safari,1512,982,,,a,0.602,1,69,0,1,2,14,5,1,0,1,0,0,0,0,0,1,circle,star,,,,,,,,,,,,,,,,,,,,,,,,,,,,,,,,,,,,,,,,,,,,,,,,,,,,,,
294742,2022-12-06_05h51.15.915,vts_reward_expectancy_bt,2022.2.4,MacIntel,62.5,Safari,1512,982,,,a,0.403,10,79,0,1,3,15,3,1,0,1,0,0,1,0,0,0,circle,triangle,,,,,,,,,,,,,,,,,,,,,,,,,,,,,,,,,,,,,,,,,,,,,,,,,,,,,,
294742,2022-12-06_05h51.15.915,vts_reward_expectancy_bt,2022.2.4,MacIntel,62.5,Safari,1512,982,,,l,0.852,1,80,0,1,4,16,0,1,1,0,0,0,0,1,0,0,triangle,circle,,,,,,,,,,,,,,,,,,,,,,,,,,,,,,,,,,,,,,,,,,,,,,,,,,,,,,
294742,2022-12-06_05h51.15.915,vts_reward_expectancy_bt,2022.2.4,MacIntel,62.5,Safari,1512,982,,,l,0.985,1,81,0,1,5,17,4,1,0,1,0,0,0,0,1,0,circle,hexagon,,,,,,,,,,,,,,,,,,,,,,,,,,,,,,,,,,,,,,,,,,,,,,,,,,,,,,
294742,2022-12-06_05h51.15.915,vts_reward_expectancy_bt,2022.2.4,MacIntel,62.5,Safari,1512,982,,,l,0.805,10,91,0,1,6,18,1,1,1,0,0,0,0,0,1,0,triangle,hexagon,,,,,,,,,,,,,,,,,,,,,,,,,,,,,,,,,,,,,,,,,,,,,,,,,,,,,,
294742,2022-12-06_05h51.15.915,vts_reward_expectancy_bt,2022.2.4,MacIntel,62.5,Safari,1512,982,,,a,0.885,1,92,0,1,7,19,8,1,0,0,1,0,0,0,0,1,hexagon,star,,,,,,,,,,,,,,,,,,,,,,,,,,,,,,,,,,,,,,,,,,,,,,,,,,,,,,
294742,2022-12-06_05h51.15.915,vts_reward_expectancy_bt,2022.2.4,MacIntel,62.5,Safari,1512,982,,,a,0.742,10,102,0,1,8,20,7,1,0,0,1,0,0,1,0,0,hexagon,circle,,,,,,,,,,,,,,,,,,,,,,,,,,,,,,,,,,,,,,,,,,,,,,,,,,,,,,
294742,2022-12-06_05h51.15.915,vts_reward_expectancy_bt,2022.2.4,MacIntel,62.5,Safari,1512,982,,,a,0.688,1,103,0,1,9,21,6,1,0,0,1,0,1,0,0,0,hexagon,triangle,,,,,,,,,,,,,,,,,,,,,,,,,,,,,,,,,,,,,,,,,,,,,,,,,,,,,,
294742,2022-12-06_05h51.15.915,vts_reward_expectancy_bt,2022.2.4,MacIntel,62.5,Safari,1512,982,,,l,0.532,10,113,0,1,10,22,11,1,0,0,0,1,0,0,1,0,star,hexagon,,,,,,,,,,,,,,,,,,,,,,,,,,,,,,,,,,,,,,,,,,,,,,,,,,,,,,
294742,2022-12-06_05h51.15.915,vts_reward_expectancy_bt,2022.2.4,MacIntel,62.5,Safari,1512,982,,,l,1.302,1,114,0,1,11,23,9,1,0,0,0,1,1,0,0,0,star,triangle,,,,,,,,,,,,,,,,,,,,,,,,,,,,,,,,,,,,,,,,,,,,,,,,,,,,,,
294742,2022-12-06_05h51.15.915,vts_reward_expectancy_bt,2022.2.4,MacIntel,62.5,Safari,1512,982,,,a,0.42,1,115,0,2,0,24,0,1,1,0,0,0,0,1,0,0,triangle,circle,,,,,,,,,,,,,,,,,,,,,,,,,,,,,,,,,,,,,,,,,,,,,,,,,,,,,,
294742,2022-12-06_05h51.15.915,vts_reward_expectancy_bt,2022.2.4,MacIntel,62.5,Safari,1512,982,,,a,0.756,10,125,0,2,1,25,6,1,0,0,1,0,1,0,0,0,hexagon,triangle,,,,,,,,,,,,,,,,,,,,,,,,,,,,,,,,,,,,,,,,,,,,,,,,,,,,,,
294742,2022-12-06_05h51.15.915,vts_reward_expectancy_bt,2022.2.4,MacIntel,62.5,Safari,1512,982,,,a,0.613,1,126,0,2,2,26,8,1,0,0,1,0,0,0,0,1,hexagon,star,,,,,,,,,,,,,,,,,,,,,,,,,,,,,,,,,,,,,,,,,,,,,,,,,,,,,,
294742,2022-12-06_05h51.15.915,vts_reward_expectancy_bt,2022.2.4,MacIntel,62.5,Safari,1512,982,,,l,0.703,1,127,0,2,3,27,2,1,1,0,0,0,0,0,0,1,triangle,star,,,,,,,,,,,,,,,,,,,,,,,,,,,,,,,,,,,,,,,,,,,,,,,,,,,,,,
294742,2022-12-06_05h51.15.915,vts_reward_expectancy_bt,2022.2.4,MacIntel,62.5,Safari,1512,982,,,l,0.622,10,137,0,2,4,28,1,1,1,0,0,0,0,0,1,0,triangle,hexagon,,,,,,,,,,,,,,,,,,,,,,,,,,,,,,,,,,,,,,,,,,,,,,,,,,,,,,
294742,2022-12-06_05h51.15.915,vts_reward_expectancy_bt,2022.2.4,MacIntel,62.5,Safari,1512,982,,,a,1.249,10,147,0,2,5,29,10,1,0,0,0,1,0,1,0,0,star ,circle,,,,,,,,,,,,,,,,,,,,,,,,,,,,,,,,,,,,,,,,,,,,,,,,,,,,,,
294742,2022-12-06_05h51.15.915,vts_reward_expectancy_bt,2022.2.4,MacIntel,62.5,Safari,1512,982,,,l,0.475,10,157,0,2,6,30,7,1,0,0,1,0,0,1,0,0,hexagon,circle,,,,,,,,,,,,,,,,,,,,,,,,,,,,,,,,,,,,,,,,,,,,,,,,,,,,,,
294742,2022-12-06_05h51.15.915,vts_reward_expectancy_bt,2022.2.4,MacIntel,62.5,Safari,1512,982,,,a,0.186,1,158,0,2,7,31,9,1,0,0,0,1,1,0,0,0,star,triangle,,,,,,,,,,,,,,,,,,,,,,,,,,,,,,,,,,,,,,,,,,,,,,,,,,,,,,
294742,2022-12-06_05h51.15.915,vts_reward_expectancy_bt,2022.2.4,MacIntel,62.5,Safari,1512,982,,,a,0.76,10,168,0,2,8,32,5,1,0,1,0,0,0,0,0,1,circle,star,,,,,,,,,,,,,,,,,,,,,,,,,,,,,,,,,,,,,,,,,,,,,,,,,,,,,,
294742,2022-12-06_05h51.15.915,vts_reward_expectancy_bt,2022.2.4,MacIntel,62.5,Safari,1512,982,,,l,0.264,1,169,0,2,9,33,3,1,0,1,0,0,1,0,0,0,circle,triangle,,,,,,,,,,,,,,,,,,,,,,,,,,,,,,,,,,,,,,,,,,,,,,,,,,,,,,
294742,2022-12-06_05h51.15.915,vts_reward_expectancy_bt,2022.2.4,MacIntel,62.5,Safari,1512,982,,,l,0.78,1,170,0,2,10,34,4,1,0,1,0,0,0,0,1,0,circle,hexagon,,,,,,,,,,,,,,,,,,,,,,,,,,,,,,,,,,,,,,,,,,,,,,,,,,,,,,
294742,2022-12-06_05h51.15.915,vts_reward_expectancy_bt,2022.2.4,MacIntel,62.5,Safari,1512,982,,,a,0.319,1,171,0,2,11,35,11,1,0,0,0,1,0,0,1,0,star,hexagon,,,,,,,,,,,,,,,,,,,,,,,,,,,,,,,,,,,,,,,,,,,,,,,,,,,,,,
294742,2022-12-06_05h51.15.915,vts_reward_expectancy_bt,2022.2.4,MacIntel,62.5,Safari,1512,982,,,a,0.86,1,172,1,0,0,0,2,1,1,0,0,0,0,0,0,1,triangle,star,,,,,,,,,,,,,,,,,,,,,,,,,,,,,,,,,,,,,,,,,,,,,,,,,,,,,,
294742,2022-12-06_05h51.15.915,vts_reward_expectancy_bt,2022.2.4,MacIntel,62.5,Safari,1512,982,,,a,0.479,10,182,1,0,1,1,9,1,0,0,0,1,1,0,0,0,star,triangle,,,,,,,,,,,,,,,,,,,,,,,,,,,,,,,,,,,,,,,,,,,,,,,,,,,,,,
294742,2022-12-06_05h51.15.915,vts_reward_expectancy_bt,2022.2.4,MacIntel,62.5,Safari,1512,982,,,l,2.875,1,183,1,0,2,2,6,1,0,0,1,0,1,0,0,0,hexagon,triangle,,,,,,,,,,,,,,,,,,,,,,,,,,,,,,,,,,,,,,,,,,,,,,,,,,,,,,
294742,2022-12-06_05h51.15.915,vts_reward_expectancy_bt,2022.2.4,MacIntel,62.5,Safari,1512,982,,,l,0.583,10,193,1,0,3,3,4,1,0,1,0,0,0,0,1,0,circle,hexagon,,,,,,,,,,,,,,,,,,,,,,,,,,,,,,,,,,,,,,,,,,,,,,,,,,,,,,
294742,2022-12-06_05h51.15.915,vts_reward_expectancy_bt,2022.2.4,MacIntel,62.5,Safari,1512,982,,,a,0.682,1,194,1,0,4,4,7,1,0,0,1,0,0,1,0,0,hexagon,circle,,,,,,,,,,,,,,,,,,,,,,,,,,,,,,,,,,,,,,,,,,,,,,,,,,,,,,
294742,2022-12-06_05h51.15.915,vts_reward_expectancy_bt,2022.2.4,MacIntel,62.5,Safari,1512,982,,,l,0.493,1,195,1,0,5,5,1,1,1,0,0,0,0,0,1,0,triangle,hexagon,,,,,,,,,,,,,,,,,,,,,,,,,,,,,,,,,,,,,,,,,,,,,,,,,,,,,,
294742,2022-12-06_05h51.15.915,vts_reward_expectancy_bt,2022.2.4,MacIntel,62.5,Safari,1512,982,,,l,0.614,1,196,1,0,6,6,5,1,0,1,0,0,0,0,0,1,circle,star,,,,,,,,,,,,,,,,,,,,,,,,,,,,,,,,,,,,,,,,,,,,,,,,,,,,,,
294742,2022-12-06_05h51.15.915,vts_reward_expectancy_bt,2022.2.4,MacIntel,62.5,Safari,1512,982,,,l,0.578,10,206,1,0,7,7,0,1,1,0,0,0,0,1,0,0,triangle,circle,,,,,,,,,,,,,,,,,,,,,,,,,,,,,,,,,,,,,,,,,,,,,,,,,,,,,,
294742,2022-12-06_05h51.15.915,vts_reward_expectancy_bt,2022.2.4,MacIntel,62.5,Safari,1512,982,,,l,1.236,1,207,1,0,8,8,3,1,0,1,0,0,1,0,0,0,circle,triangle,,,,,,,,,,,,,,,,,,,,,,,,,,,,,,,,,,,,,,,,,,,,,,,,,,,,,,
294742,2022-12-06_05h51.15.915,vts_reward_expectancy_bt,2022.2.4,MacIntel,62.5,Safari,1512,982,,,a,0.388,1,208,1,0,9,9,11,1,0,0,0,1,0,0,1,0,star,hexagon,,,,,,,,,,,,,,,,,,,,,,,,,,,,,,,,,,,,,,,,,,,,,,,,,,,,,,
294742,2022-12-06_05h51.15.915,vts_reward_expectancy_bt,2022.2.4,MacIntel,62.5,Safari,1512,982,,,a,0.532,1,209,1,0,10,10,10,1,0,0,0,1,0,1,0,0,star ,circle,,,,,,,,,,,,,,,,,,,,,,,,,,,,,,,,,,,,,,,,,,,,,,,,,,,,,,
294742,2022-12-06_05h51.15.915,vts_reward_expectancy_bt,2022.2.4,MacIntel,62.5,Safari,1512,982,,,a,2.291,10,219,1,0,11,11,8,1,0,0,1,0,0,0,0,1,hexagon,star,,,,,,,,,,,,,,,,,,,,,,,,,,,,,,,,,,,,,,,,,,,,,,,,,,,,,,
294742,2022-12-06_05h51.15.915,vts_reward_expectancy_bt,2022.2.4,MacIntel,62.5,Safari,1512,982,,,a,0.896,10,229,1,1,0,12,8,1,0,0,1,0,0,0,0,1,hexagon,star,,,,,,,,,,,,,,,,,,,,,,,,,,,,,,,,,,,,,,,,,,,,,,,,,,,,,,
294742,2022-12-06_05h51.15.915,vts_reward_expectancy_bt,2022.2.4,MacIntel,62.5,Safari,1512,982,,,l,1.056,10,239,1,1,1,13,4,1,0,1,0,0,0,0,1,0,circle,hexagon,,,,,,,,,,,,,,,,,,,,,,,,,,,,,,,,,,,,,,,,,,,,,,,,,,,,,,
294742,2022-12-06_05h51.15.915,vts_reward_expectancy_bt,2022.2.4,MacIntel,62.5,Safari,1512,982,,,a,1.958,1,240,1,1,2,14,11,1,0,0,0,1,0,0,1,0,star,hexagon,,,,,,,,,,,,,,,,,,,,,,,,,,,,,,,,,,,,,,,,,,,,,,,,,,,,,,
294742,2022-12-06_05h51.15.915,vts_reward_expectancy_bt,2022.2.4,MacIntel,62.5,Safari,1512,982,,,l,1.816,1,241,1,1,3,15,6,1,0,0,1,0,1,0,0,0,hexagon,triangle,,,,,,,,,,,,,,,,,,,,,,,,,,,,,,,,,,,,,,,,,,,,,,,,,,,,,,
294742,2022-12-06_05h51.15.915,vts_reward_expectancy_bt,2022.2.4,MacIntel,62.5,Safari,1512,982,,,l,1.855,1,242,1,1,4,16,7,1,0,0,1,0,0,1,0,0,hexagon,circle,,,,,,,,,,,,,,,,,,,,,,,,,,,,,,,,,,,,,,,,,,,,,,,,,,,,,,
294742,2022-12-06_05h51.15.915,vts_reward_expectancy_bt,2022.2.4,MacIntel,62.5,Safari,1512,982,,,a,1.537,1,243,1,1,5,17,0,1,1,0,0,0,0,1,0,0,triangle,circle,,,,,,,,,,,,,,,,,,,,,,,,,,,,,,,,,,,,,,,,,,,,,,,,,,,,,,
294742,2022-12-06_05h51.15.915,vts_reward_expectancy_bt,2022.2.4,MacIntel,62.5,Safari,1512,982,,,l,1.122,10,253,1,1,6,18,1,1,1,0,0,0,0,0,1,0,triangle,hexagon,,,,,,,,,,,,,,,,,,,,,,,,,,,,,,,,,,,,,,,,,,,,,,,,,,,,,,
294742,2022-12-06_05h51.15.915,vts_reward_expectancy_bt,2022.2.4,MacIntel,62.5,Safari,1512,982,,,l,1.997,10,263,1,1,7,19,9,1,0,0,0,1,1,0,0,0,star,triangle,,,,,,,,,,,,,,,,,,,,,,,,,,,,,,,,,,,,,,,,,,,,,,,,,,,,,,
294742,2022-12-06_05h51.15.915,vts_reward_expectancy_bt,2022.2.4,MacIntel,62.5,Safari,1512,982,,,a,0.925,1,264,1,1,8,20,2,1,1,0,0,0,0,0,0,1,triangle,star,,,,,,,,,,,,,,,,,,,,,,,,,,,,,,,,,,,,,,,,,,,,,,,,,,,,,,
294742,2022-12-06_05h51.15.915,vts_reward_expectancy_bt,2022.2.4,MacIntel,62.5,Safari,1512,982,,,l,5.773,10,274,1,1,9,21,10,1,0,0,0,1,0,1,0,0,star ,circle,,,,,,,,,,,,,,,,,,,,,,,,,,,,,,,,,,,,,,,,,,,,,,,,,,,,,,
294742,2022-12-06_05h51.15.915,vts_reward_expectancy_bt,2022.2.4,MacIntel,62.5,Safari,1512,982,,,l,1.889,1,275,1,1,10,22,5,1,0,1,0,0,0,0,0,1,circle,star,,,,,,,,,,,,,,,,,,,,,,,,,,,,,,,,,,,,,,,,,,,,,,,,,,,,,,
294742,2022-12-06_05h51.15.915,vts_reward_expectancy_bt,2022.2.4,MacIntel,62.5,Safari,1512,982,,,a,0.883,1,276,1,1,11,23,3,1,0,1,0,0,1,0,0,0,circle,triangle,,,,,,,,,,,,,,,,,,,,,,,,,,,,,,,,,,,,,,,,,,,,,,,,,,,,,,
294742,2022-12-06_05h51.15.915,vts_reward_expectancy_bt,2022.2.4,MacIntel,62.5,Safari,1512,982,,,a,1.58,1,277,1,2,0,24,10,1,0,0,0,1,0,1,0,0,star ,circle,,,,,,,,,,,,,,,,,,,,,,,,,,,,,,,,,,,,,,,,,,,,,,,,,,,,,,
294742,2022-12-06_05h51.15.915,vts_reward_expectancy_bt,2022.2.4,MacIntel,62.5,Safari,1512,982,,,l,1.46,1,278,1,2,1,25,2,1,1,0,0,0,0,0,0,1,triangle,star,,,,,,,,,,,,,,,,,,,,,,,,,,,,,,,,,,,,,,,,,,,,,,,,,,,,,,
294742,2022-12-06_05h51.15.915,vts_reward_expectancy_bt,2022.2.4,MacIntel,62.5,Safari,1512,982,,,a,1.404,10,288,1,2,2,26,3,1,0,1,0,0,1,0,0,0,circle,triangle,,,,,,,,,,,,,,,,,,,,,,,,,,,,,,,,,,,,,,,,,,,,,,,,,,,,,,
294742,2022-12-06_05h51.15.915,vts_reward_expectancy_bt,2022.2.4,MacIntel,62.5,Safari,1512,982,,,l,1.719,1,289,1,2,3,27,5,1,0,1,0,0,0,0,0,1,circle,star,,,,,,,,,,,,,,,,,,,,,,,,,,,,,,,,,,,,,,,,,,,,,,,,,,,,,,
294742,2022-12-06_05h51.15.915,vts_reward_expectancy_bt,2022.2.4,MacIntel,62.5,Safari,1512,982,,,l,1.919,1,290,1,2,4,28,8,1,0,0,1,0,0,0,0,1,hexagon,star,,,,,,,,,,,,,,,,,,,,,,,,,,,,,,,,,,,,,,,,,,,,,,,,,,,,,,
294742,2022-12-06_05h51.15.915,vts_reward_expectancy_bt,2022.2.4,MacIntel,62.5,Safari,1512,982,,,a,0.861,1,291,1,2,5,29,9,1,0,0,0,1,1,0,0,0,star,triangle,,,,,,,,,,,,,,,,,,,,,,,,,,,,,,,,,,,,,,,,,,,,,,,,,,,,,,
294742,2022-12-06_05h51.15.915,vts_reward_expectancy_bt,2022.2.4,MacIntel,62.5,Safari,1512,982,,,l,0.924,1,292,1,2,6,30,0,1,1,0,0,0,0,1,0,0,triangle,circle,,,,,,,,,,,,,,,,,,,,,,,,,,,,,,,,,,,,,,,,,,,,,,,,,,,,,,
294742,2022-12-06_05h51.15.915,vts_reward_expectancy_bt,2022.2.4,MacIntel,62.5,Safari,1512,982,,,l,0.961,1,293,1,2,7,31,4,1,0,1,0,0,0,0,1,0,circle,hexagon,,,,,,,,,,,,,,,,,,,,,,,,,,,,,,,,,,,,,,,,,,,,,,,,,,,,,,
294742,2022-12-06_05h51.15.915,vts_reward_expectancy_bt,2022.2.4,MacIntel,62.5,Safari,1512,982,,,a,1.543,10,303,1,2,8,32,11,1,0,0,0,1,0,0,1,0,star,hexagon,,,,,,,,,,,,,,,,,,,,,,,,,,,,,,,,,,,,,,,,,,,,,,,,,,,,,,
294742,2022-12-06_05h51.15.915,vts_reward_expectancy_bt,2022.2.4,MacIntel,62.5,Safari,1512,982,,,l,1.521,10,313,1,2,9,33,6,1,0,0,1,0,1,0,0,0,hexagon,triangle,,,,,,,,,,,,,,,,,,,,,,,,,,,,,,,,,,,,,,,,,,,,,,,,,,,,,,
294742,2022-12-06_05h51.15.915,vts_reward_expectancy_bt,2022.2.4,MacIntel,62.5,Safari,1512,982,,,l,2.042,10,323,1,2,10,34,1,1,1,0,0,0,0,0,1,0,triangle,hexagon,,,,,,,,,,,,,,,,,,,,,,,,,,,,,,,,,,,,,,,,,,,,,,,,,,,,,,
294742,2022-12-06_05h51.15.915,vts_reward_expectancy_bt,2022.2.4,MacIntel,62.5,Safari,1512,982,,,a,2.47,10,333,1,2,11,35,7,1,0,0,1,0,0,1,0,0,hexagon,circle,,,,,,,,,,,,,,,,,,,,,,,,,,,,,,,,,,,,,,,,,,,,,,,,,,,,,,
294742,2022-12-06_05h51.15.915,vts_reward_expectancy_bt,2022.2.4,MacIntel,62.5,Safari,1512,982,,,l,3.55,1,334,2,0,0,0,3,1,0,1,0,0,1,0,0,0,circle,triangle,,,,,,,,,,,,,,,,,,,,,,,,,,,,,,,,,,,,,,,,,,,,,,,,,,,,,,
294742,2022-12-06_05h51.15.915,vts_reward_expectancy_bt,2022.2.4,MacIntel,62.5,Safari,1512,982,,,a,1.23,10,344,2,0,1,1,4,1,0,1,0,0,0,0,1,0,circle,hexagon,,,,,,,,,,,,,,,,,,,,,,,,,,,,,,,,,,,,,,,,,,,,,,,,,,,,,,
294742,2022-12-06_05h51.15.915,vts_reward_expectancy_bt,2022.2.4,MacIntel,62.5,Safari,1512,982,,,l,1.426,1,345,2,0,2,2,1,1,1,0,0,0,0,0,1,0,triangle,hexagon,,,,,,,,,,,,,,,,,,,,,,,,,,,,,,,,,,,,,,,,,,,,,,,,,,,,,,
294742,2022-12-06_05h51.15.915,vts_reward_expectancy_bt,2022.2.4,MacIntel,62.5,Safari,1512,982,,,l,1.136,1,346,2,0,3,3,2,1,1,0,0,0,0,0,0,1,triangle,star,,,,,,,,,,,,,,,,,,,,,,,,,,,,,,,,,,,,,,,,,,,,,,,,,,,,,,
294742,2022-12-06_05h51.15.915,vts_reward_expectancy_bt,2022.2.4,MacIntel,62.5,Safari,1512,982,,,l,0.791,10,356,2,0,4,4,0,1,1,0,0,0,0,1,0,0,triangle,circle,,,,,,,,,,,,,,,,,,,,,,,,,,,,,,,,,,,,,,,,,,,,,,,,,,,,,,
294742,2022-12-06_05h51.15.915,vts_reward_expectancy_bt,2022.2.4,MacIntel,62.5,Safari,1512,982,,,l,1.591,10,366,2,0,5,5,9,1,0,0,0,1,1,0,0,0,star,triangle,,,,,,,,,,,,,,,,,,,,,,,,,,,,,,,,,,,,,,,,,,,,,,,,,,,,,,
294742,2022-12-06_05h51.15.915,vts_reward_expectancy_bt,2022.2.4,MacIntel,62.5,Safari,1512,982,,,l,1.484,1,367,2,0,6,6,10,1,0,0,0,1,0,1,0,0,star ,circle,,,,,,,,,,,,,,,,,,,,,,,,,,,,,,,,,,,,,,,,,,,,,,,,,,,,,,
294742,2022-12-06_05h51.15.915,vts_reward_expectancy_bt,2022.2.4,MacIntel,62.5,Safari,1512,982,,,a,1.332,10,377,2,0,7,7,8,1,0,0,1,0,0,0,0,1,hexagon,star,,,,,,,,,,,,,,,,,,,,,,,,,,,,,,,,,,,,,,,,,,,,,,,,,,,,,,
294742,2022-12-06_05h51.15.915,vts_reward_expectancy_bt,2022.2.4,MacIntel,62.5,Safari,1512,982,,,a,1.302,10,387,2,0,8,8,7,1,0,0,1,0,0,1,0,0,hexagon,circle,,,,,,,,,,,,,,,,,,,,,,,,,,,,,,,,,,,,,,,,,,,,,,,,,,,,,,
294742,2022-12-06_05h51.15.915,vts_reward_expectancy_bt,2022.2.4,MacIntel,62.5,Safari,1512,982,,,l,1.639,10,397,2,0,9,9,11,1,0,0,0,1,0,0,1,0,star,hexagon,,,,,,,,,,,,,,,,,,,,,,,,,,,,,,,,,,,,,,,,,,,,,,,,,,,,,,
294742,2022-12-06_05h51.15.915,vts_reward_expectancy_bt,2022.2.4,MacIntel,62.5,Safari,1512,982,,,a,2.879,10,407,2,0,10,10,6,1,0,0,1,0,1,0,0,0,hexagon,triangle,,,,,,,,,,,,,,,,,,,,,,,,,,,,,,,,,,,,,,,,,,,,,,,,,,,,,,
294742,2022-12-06_05h51.15.915,vts_reward_expectancy_bt,2022.2.4,MacIntel,62.5,Safari,1512,982,,,a,3.272,10,417,2,0,11,11,5,1,0,1,0,0,0,0,0,1,circle,star,,,,,,,,,,,,,,,,,,,,,,,,,,,,,,,,,,,,,,,,,,,,,,,,,,,,,,
294742,2022-12-06_05h51.15.915,vts_reward_expectancy_bt,2022.2.4,MacIntel,62.5,Safari,1512,982,,,l,1.796,1,418,2,1,0,12,4,1,0,1,0,0,0,0,1,0,circle,hexagon,,,,,,,,,,,,,,,,,,,,,,,,,,,,,,,,,,,,,,,,,,,,,,,,,,,,,,
294742,2022-12-06_05h51.15.915,vts_reward_expectancy_bt,2022.2.4,MacIntel,62.5,Safari,1512,982,,,a,0.914,1,419,2,1,1,13,2,1,1,0,0,0,0,0,0,1,triangle,star,,,,,,,,,,,,,,,,,,,,,,,,,,,,,,,,,,,,,,,,,,,,,,,,,,,,,,
294742,2022-12-06_05h51.15.915,vts_reward_expectancy_bt,2022.2.4,MacIntel,62.5,Safari,1512,982,,,a,0.669,1,420,2,1,2,14,10,1,0,0,0,1,0,1,0,0,star ,circle,,,,,,,,,,,,,,,,,,,,,,,,,,,,,,,,,,,,,,,,,,,,,,,,,,,,,,
294742,2022-12-06_05h51.15.915,vts_reward_expectancy_bt,2022.2.4,MacIntel,62.5,Safari,1512,982,,,l,0.632,1,421,2,1,3,15,6,1,0,0,1,0,1,0,0,0,hexagon,triangle,,,,,,,,,,,,,,,,,,,,,,,,,,,,,,,,,,,,,,,,,,,,,,,,,,,,,,
294742,2022-12-06_05h51.15.915,vts_reward_expectancy_bt,2022.2.4,MacIntel,62.5,Safari,1512,982,,,l,0.53,1,422,2,1,4,16,5,1,0,1,0,0,0,0,0,1,circle,star,,,,,,,,,,,,,,,,,,,,,,,,,,,,,,,,,,,,,,,,,,,,,,,,,,,,,,
294742,2022-12-06_05h51.15.915,vts_reward_expectancy_bt,2022.2.4,MacIntel,62.5,Safari,1512,982,,,a,0.93,10,432,2,1,5,17,0,1,1,0,0,0,0,1,0,0,triangle,circle,,,,,,,,,,,,,,,,,,,,,,,,,,,,,,,,,,,,,,,,,,,,,,,,,,,,,,
294742,2022-12-06_05h51.15.915,vts_reward_expectancy_bt,2022.2.4,MacIntel,62.5,Safari,1512,982,,,l,1.285,1,433,2,1,6,18,9,1,0,0,0,1,1,0,0,0,star,triangle,,,,,,,,,,,,,,,,,,,,,,,,,,,,,,,,,,,,,,,,,,,,,,,,,,,,,,
294742,2022-12-06_05h51.15.915,vts_reward_expectancy_bt,2022.2.4,MacIntel,62.5,Safari,1512,982,,,l,1.242,10,443,2,1,7,19,1,1,1,0,0,0,0,0,1,0,triangle,hexagon,,,,,,,,,,,,,,,,,,,,,,,,,,,,,,,,,,,,,,,,,,,,,,,,,,,,,,
294742,2022-12-06_05h51.15.915,vts_reward_expectancy_bt,2022.2.4,MacIntel,62.5,Safari,1512,982,,,a,1.041,10,453,2,1,8,20,7,1,0,0,1,0,0,1,0,0,hexagon,circle,,,,,,,,,,,,,,,,,,,,,,,,,,,,,,,,,,,,,,,,,,,,,,,,,,,,,,
294742,2022-12-06_05h51.15.915,vts_reward_expectancy_bt,2022.2.4,MacIntel,62.5,Safari,1512,982,,,a,0.842,1,454,2,1,9,21,11,1,0,0,0,1,0,0,1,0,star,hexagon,,,,,,,,,,,,,,,,,,,,,,,,,,,,,,,,,,,,,,,,,,,,,,,,,,,,,,
294742,2022-12-06_05h51.15.915,vts_reward_expectancy_bt,2022.2.4,MacIntel,62.5,Safari,1512,982,,,l,1.002,1,455,2,1,10,22,3,1,0,1,0,0,1,0,0,0,circle,triangle,,,,,,,,,,,,,,,,,,,,,,,,,,,,,,,,,,,,,,,,,,,,,,,,,,,,,,
294742,2022-12-06_05h51.15.915,vts_reward_expectancy_bt,2022.2.4,MacIntel,62.5,Safari,1512,982,,,a,0.32,10,465,2,1,11,23,8,1,0,0,1,0,0,0,0,1,hexagon,star,,,,,,,,,,,,,,,,,,,,,,,,,,,,,,,,,,,,,,,,,,,,,,,,,,,,,,
294742,2022-12-06_05h51.15.915,vts_reward_expectancy_bt,2022.2.4,MacIntel,62.5,Safari,1512,982,,,l,0.271,10,475,2,2,0,24,7,1,0,0,1,0,0,1,0,0,hexagon,circle,,,,,,,,,,,,,,,,,,,,,,,,,,,,,,,,,,,,,,,,,,,,,,,,,,,,,,
294742,2022-12-06_05h51.15.915,vts_reward_expectancy_bt,2022.2.4,MacIntel,62.5,Safari,1512,982,,,l,0.676,1,476,2,2,1,25,8,1,0,0,1,0,0,0,0,1,hexagon,star,,,,,,,,,,,,,,,,,,,,,,,,,,,,,,,,,,,,,,,,,,,,,,,,,,,,,,
294742,2022-12-06_05h51.15.915,vts_reward_expectancy_bt,2022.2.4,MacIntel,62.5,Safari,1512,982,,,l,0.536,1,477,2,2,2,26,0,1,1,0,0,0,0,1,0,0,triangle,circle,,,,,,,,,,,,,,,,,,,,,,,,,,,,,,,,,,,,,,,,,,,,,,,,,,,,,,
294742,2022-12-06_05h51.15.915,vts_reward_expectancy_bt,2022.2.4,MacIntel,62.5,Safari,1512,982,,,l,0.519,10,487,2,2,3,27,4,1,0,1,0,0,0,0,1,0,circle,hexagon,,,,,,,,,,,,,,,,,,,,,,,,,,,,,,,,,,,,,,,,,,,,,,,,,,,,,,
294742,2022-12-06_05h51.15.915,vts_reward_expectancy_bt,2022.2.4,MacIntel,62.5,Safari,1512,982,,,a,0.958,1,488,2,2,4,28,11,1,0,0,0,1,0,0,1,0,star,hexagon,,,,,,,,,,,,,,,,,,,,,,,,,,,,,,,,,,,,,,,,,,,,,,,,,,,,,,
294742,2022-12-06_05h51.15.915,vts_reward_expectancy_bt,2022.2.4,MacIntel,62.5,Safari,1512,982,,,l,0.58,1,489,2,2,5,29,2,1,1,0,0,0,0,0,0,1,triangle,star,,,,,,,,,,,,,,,,,,,,,,,,,,,,,,,,,,,,,,,,,,,,,,,,,,,,,,
294742,2022-12-06_05h51.15.915,vts_reward_expectancy_bt,2022.2.4,MacIntel,62.5,Safari,1512,982,,,l,0.616,10,499,2,2,6,30,3,1,0,1,0,0,1,0,0,0,circle,triangle,,,,,,,,,,,,,,,,,,,,,,,,,,,,,,,,,,,,,,,,,,,,,,,,,,,,,,
294742,2022-12-06_05h51.15.915,vts_reward_expectancy_bt,2022.2.4,MacIntel,62.5,Safari,1512,982,,,a,1.431,1,500,2,2,7,31,5,1,0,1,0,0,0,0,0,1,circle,star,,,,,,,,,,,,,,,,,,,,,,,,,,,,,,,,,,,,,,,,,,,,,,,,,,,,,,
294742,2022-12-06_05h51.15.915,vts_reward_expectancy_bt,2022.2.4,MacIntel,62.5,Safari,1512,982,,,l,1.051,1,501,2,2,8,32,9,1,0,0,0,1,1,0,0,0,star,triangle,,,,,,,,,,,,,,,,,,,,,,,,,,,,,,,,,,,,,,,,,,,,,,,,,,,,,,
294742,2022-12-06_05h51.15.915,vts_reward_expectancy_bt,2022.2.4,MacIntel,62.5,Safari,1512,982,,,a,1.681,10,511,2,2,9,33,6,1,0,0,1,0,1,0,0,0,hexagon,triangle,,,,,,,,,,,,,,,,,,,,,,,,,,,,,,,,,,,,,,,,,,,,,,,,,,,,,,
294742,2022-12-06_05h51.15.915,vts_reward_expectancy_bt,2022.2.4,MacIntel,62.5,Safari,1512,982,,,l,2.364,1,512,2,2,10,34,10,1,0,0,0,1,0,1,0,0,star ,circle,,,,,,,,,,,,,,,,,,,,,,,,,,,,,,,,,,,,,,,,,,,,,,,,,,,,,,
294742,2022-12-06_05h51.15.915,vts_reward_expectancy_bt,2022.2.4,MacIntel,62.5,Safari,1512,982,,,l,1.615,1,513,2,2,11,35,1,1,1,0,0,0,0,0,1,0,triangle,hexagon,,,,,,,,,,,,,,,,,,,,,,,,,,,,,,,,,,,,,,,,,,,,,,,,,,,,,,
294742,2022-12-06_05h51.15.915,vts_reward_expectancy_bt,2022.2.4,MacIntel,62.5,Safari,1512,982,,,,,,,,,,,,,,,,,,,,,,,H,146,star,1,0,d,2.935,0,0,0,0,0,1,,,,,,,,,,,,,,,,,,,,,,,,,,,,,,,,,,,,,,,,,
294742,2022-12-06_05h51.15.915,vts_reward_expectancy_bt,2022.2.4,MacIntel,62.5,Safari,1512,982,,,,,,,,,,,,,,,,,,,,,,,U,181,circle,1,0,f,1.233,0,1,0,1,0,1,,,,,,,,,,,,,,,,,,,,,,,,,,,,,,,,,,,,,,,,,
294742,2022-12-06_05h51.15.915,vts_reward_expectancy_bt,2022.2.4,MacIntel,62.5,Safari,1512,982,,,,,,,,,,,,,,,,,,,,,,,S,132,triangle,1,0,f,0.909,0,2,0,2,0,1,,,,,,,,,,,,,,,,,,,,,,,,,,,,,,,,,,,,,,,,,
294742,2022-12-06_05h51.15.915,vts_reward_expectancy_bt,2022.2.4,MacIntel,62.5,Safari,1512,982,,,,,,,,,,,,,,,,,,,,,,,F,160,hexagon,1,0,d,2.482,0,3,0,3,0,1,,,,,,,,,,,,,,,,,,,,,,,,,,,,,,,,,,,,,,,,,
294742,2022-12-06_05h51.15.915,vts_reward_expectancy_bt,2022.2.4,MacIntel,62.5,Safari,1512,982,,,,,,,,,,,,,,,,,,,,,,,W,139,star,0,0,,,0,4,0,4,0,1,,,,,,,,,,,,,,,,,,,,,,,,,,,,,,,,,,,,,,,,,
294742,2022-12-06_05h51.15.915,vts_reward_expectancy_bt,2022.2.4,MacIntel,62.5,Safari,1512,982,,,,,,,,,,,,,,,,,,,,,,,D,167,circle,1,1,d,2.059,0,5,0,5,0,1,,,,,,,,,,,,,,,,,,,,,,,,,,,,,,,,,,,,,,,,,
294742,2022-12-06_05h51.15.915,vts_reward_expectancy_bt,2022.2.4,MacIntel,62.5,Safari,1512,982,,,,,,,,,,,,,,,,,,,,,,,Y,125,triangle,0,0,,,0,6,0,6,0,1,,,,,,,,,,,,,,,,,,,,,,,,,,,,,,,,,,,,,,,,,
294742,2022-12-06_05h51.15.915,vts_reward_expectancy_bt,2022.2.4,MacIntel,62.5,Safari,1512,982,,,,,,,,,,,,,,,,,,,,,,,B,174,hexagon,1,1,d,1.076,0,7,0,7,0,1,,,,,,,,,,,,,,,,,,,,,,,,,,,,,,,,,,,,,,,,,
294742,2022-12-06_05h51.15.915,vts_reward_expectancy_bt,2022.2.4,MacIntel,62.5,Safari,1512,982,,,,,,,,,,,,,,,,,,,,,,,H,146,hexagon,1,0,d,1.185,0,8,0,8,0,1,,,,,,,,,,,,,,,,,,,,,,,,,,,,,,,,,,,,,,,,,
294742,2022-12-06_05h51.15.915,vts_reward_expectancy_bt,2022.2.4,MacIntel,62.5,Safari,1512,982,,,,,,,,,,,,,,,,,,,,,,,U,181,triangle,1,0,f,0.879,0,9,0,9,0,1,,,,,,,,,,,,,,,,,,,,,,,,,,,,,,,,,,,,,,,,,
294742,2022-12-06_05h51.15.915,vts_reward_expectancy_bt,2022.2.4,MacIntel,62.5,Safari,1512,982,,,,,,,,,,,,,,,,,,,,,,,D,146,star,1,0,d,0.62,1,0,0,0,0,1,,,,,,,,,,,,,,,,,,,,,,,,,,,,,,,,,,,,,,,,,
294742,2022-12-06_05h51.15.915,vts_reward_expectancy_bt,2022.2.4,MacIntel,62.5,Safari,1512,982,,,,,,,,,,,,,,,,,,,,,,,H,167,triangle,1,0,d,0.828,1,1,0,1,0,1,,,,,,,,,,,,,,,,,,,,,,,,,,,,,,,,,,,,,,,,,
294742,2022-12-06_05h51.15.915,vts_reward_expectancy_bt,2022.2.4,MacIntel,62.5,Safari,1512,982,,,,,,,,,,,,,,,,,,,,,,,S,125,hexagon,1,0,f,0.717,1,2,0,2,0,1,,,,,,,,,,,,,,,,,,,,,,,,,,,,,,,,,,,,,,,,,
294742,2022-12-06_05h51.15.915,vts_reward_expectancy_bt,2022.2.4,MacIntel,62.5,Safari,1512,982,,,,,,,,,,,,,,,,,,,,,,,B,174,circle,1,0,d,0.554,1,3,0,3,0,1,,,,,,,,,,,,,,,,,,,,,,,,,,,,,,,,,,,,,,,,,
294742,2022-12-06_05h51.15.915,vts_reward_expectancy_bt,2022.2.4,MacIntel,62.5,Safari,1512,982,,,,,,,,,,,,,,,,,,,,,,,U,160,star,1,0,f,0.593,1,4,0,4,0,1,,,,,,,,,,,,,,,,,,,,,,,,,,,,,,,,,,,,,,,,,
294742,2022-12-06_05h51.15.915,vts_reward_expectancy_bt,2022.2.4,MacIntel,62.5,Safari,1512,982,,,,,,,,,,,,,,,,,,,,,,,W,139,triangle,0,0,d,0.757,1,5,0,5,0,1,,,,,,,,,,,,,,,,,,,,,,,,,,,,,,,,,,,,,,,,,
294742,2022-12-06_05h51.15.915,vts_reward_expectancy_bt,2022.2.4,MacIntel,62.5,Safari,1512,982,,,,,,,,,,,,,,,,,,,,,,,Y,132,hexagon,1,1,f,0.775,1,6,0,6,0,1,,,,,,,,,,,,,,,,,,,,,,,,,,,,,,,,,,,,,,,,,
294742,2022-12-06_05h51.15.915,vts_reward_expectancy_bt,2022.2.4,MacIntel,62.5,Safari,1512,982,,,,,,,,,,,,,,,,,,,,,,,F,181,circle,1,0,d,1.376,1,7,0,7,0,1,,,,,,,,,,,,,,,,,,,,,,,,,,,,,,,,,,,,,,,,,
294742,2022-12-06_05h51.15.915,vts_reward_expectancy_bt,2022.2.4,MacIntel,62.5,Safari,1512,982,,,,,,,,,,,,,,,,,,,,,,,D,146,circle,1,0,d,1.293,1,8,0,8,0,1,,,,,,,,,,,,,,,,,,,,,,,,,,,,,,,,,,,,,,,,,
294742,2022-12-06_05h51.15.915,vts_reward_expectancy_bt,2022.2.4,MacIntel,62.5,Safari,1512,982,,,,,,,,,,,,,,,,,,,,,,,H,167,star,1,0,d,1.061,1,9,0,9,0,1,,,,,,,,,,,,,,,,,,,,,,,,,,,,,,,,,,,,,,,,,
294742,2022-12-06_05h51.15.915,vts_reward_expectancy_bt,2022.2.4,MacIntel,62.5,Safari,1512,982,,,,,,,,,,,,,,,,,,,,,,,D,174,triangle,1,0,,,2,,,,,,k,1.662,0,0,0,0,1,,,,,,,,,,,,,,,,,,,,,,,,,,,,,,,,,,
294742,2022-12-06_05h51.15.915,vts_reward_expectancy_bt,2022.2.4,MacIntel,62.5,Safari,1512,982,,,,,,,,,,,,,,,,,,,,,,,W,139,star,1,0,,,2,,,,,,j,0.551,1,0,1,0,1,,,,,,,,,,,,,,,,,,,,,,,,,,,,,,,,,,
294742,2022-12-06_05h51.15.915,vts_reward_expectancy_bt,2022.2.4,MacIntel,62.5,Safari,1512,982,,,,,,,,,,,,,,,,,,,,,,,U,160,hexagon,1,0,,,2,,,,,,k,0.864,2,0,2,0,1,,,,,,,,,,,,,,,,,,,,,,,,,,,,,,,,,,
294742,2022-12-06_05h51.15.915,vts_reward_expectancy_bt,2022.2.4,MacIntel,62.5,Safari,1512,982,,,,,,,,,,,,,,,,,,,,,,,S,181,circle,1,0,,,2,,,,,,k,0.555,3,0,3,0,1,,,,,,,,,,,,,,,,,,,,,,,,,,,,,,,,,,
294742,2022-12-06_05h51.15.915,vts_reward_expectancy_bt,2022.2.4,MacIntel,62.5,Safari,1512,982,,,,,,,,,,,,,,,,,,,,,,,Y,167,triangle,1,0,,,2,,,,,,k,0.668,4,0,4,0,1,,,,,,,,,,,,,,,,,,,,,,,,,,,,,,,,,,
294742,2022-12-06_05h51.15.915,vts_reward_expectancy_bt,2022.2.4,MacIntel,62.5,Safari,1512,982,,,,,,,,,,,,,,,,,,,,,,,B,132,star,1,0,,,2,,,,,,j,1.119,5,0,5,0,1,,,,,,,,,,,,,,,,,,,,,,,,,,,,,,,,,,
294742,2022-12-06_05h51.15.915,vts_reward_expectancy_bt,2022.2.4,MacIntel,62.5,Safari,1512,982,,,,,,,,,,,,,,,,,,,,,,,H,146,hexagon,0,0,,,2,,,,,,k,1.21,6,0,6,0,1,,,,,,,,,,,,,,,,,,,,,,,,,,,,,,,,,,
294742,2022-12-06_05h51.15.915,vts_reward_expectancy_bt,2022.2.4,MacIntel,62.5,Safari,1512,982,,,,,,,,,,,,,,,,,,,,,,,F,125,circle,1,1,,,2,,,,,,j,0.872,7,0,7,0,1,,,,,,,,,,,,,,,,,,,,,,,,,,,,,,,,,,
294742,2022-12-06_05h51.15.915,vts_reward_expectancy_bt,2022.2.4,MacIntel,62.5,Safari,1512,982,,,,,,,,,,,,,,,,,,,,,,,D,174,circle,1,0,,,2,,,,,,k,0.795,8,0,8,0,1,,,,,,,,,,,,,,,,,,,,,,,,,,,,,,,,,,
294742,2022-12-06_05h51.15.915,vts_reward_expectancy_bt,2022.2.4,MacIntel,62.5,Safari,1512,982,,,,,,,,,,,,,,,,,,,,,,,W,139,star,1,0,,,2,,,,,,j,1.404,9,0,9,0,1,,,,,,,,,,,,,,,,,,,,,,,,,,,,,,,,,,
294742,2022-12-06_05h51.15.915,vts_reward_expectancy_bt,2022.2.4,MacIntel,62.5,Safari,1512,982,,,,,0,513,,,,,,,,,,,,,,,,,D,139,triangle,1,0,,,3,,,,,,,,,,,,,-1,letter,NA,d,0.771,vtsPrac,0,0,0,0,1,,,,,,,,,,,,,,,,,,,,,,,
294742,2022-12-06_05h51.15.915,vts_reward_expectancy_bt,2022.2.4,MacIntel,62.5,Safari,1512,982,,,,,0,513,,,,,,,,,,,,,,,,,W,125,circle,0,0,,,3,,,,,,,,,,,,,switch,number,NA,k,1.46,vtsPrac,1,0,1,0,1,,,,,,,,,,,,,,,,,,,,,,,
294742,2022-12-06_05h51.15.915,vts_reward_expectancy_bt,2022.2.4,MacIntel,62.5,Safari,1512,982,,,,,0,513,,,,,,,,,,,,,,,,,S,167,triangle,1,1,,,3,,,,,,,,,,,,,switch,letter,lettSwt,f,0.885,vtsPrac,2,0,2,0,1,,,,,,,,,,,,,,,,,,,,,,,
294742,2022-12-06_05h51.15.915,vts_reward_expectancy_bt,2022.2.4,MacIntel,62.5,Safari,1512,982,,,,,0,513,,,,,,,,,,,,,,,,,H,160,circle,1,0,,,3,,,,,,,,,,,,,repeat,letter,lettRpt,d,1.222,vtsPrac,3,0,3,0,1,,,,,,,,,,,,,,,,,,,,,,,
294742,2022-12-06_05h51.15.915,vts_reward_expectancy_bt,2022.2.4,MacIntel,62.5,Safari,1512,982,,,,,0,513,,,,,,,,,,,,,,,,,D,139,circle,1,0,,,3,,,,,,,,,,,,,repeat,letter,lettRpt,d,0.678,vtsPrac,4,0,4,0,1,,,,,,,,,,,,,,,,,,,,,,,
294742,2022-12-06_05h51.15.915,vts_reward_expectancy_bt,2022.2.4,MacIntel,62.5,Safari,1512,982,,,,,0,513,,,,,,,,,,,,,,,,,W,125,hexagon,1,0,,,3,,,,,,,,,,,,,repeat,letter,lettRpt,f,0.869,vtsPrac,5,0,5,0,1,,,,,,,,,,,,,,,,,,,,,,,
294742,2022-12-06_05h51.15.915,vts_reward_expectancy_bt,2022.2.4,MacIntel,62.5,Safari,1512,982,,,,,0,513,,,,,,,,,,,,,,,,,S,167,triangle,1,0,,,3,,,,,,,,,,,,,repeat,letter,lettRpt,f,1.159,vtsPrac,6,0,6,0,1,,,,,,,,,,,,,,,,,,,,,,,
294742,2022-12-06_05h51.15.915,vts_reward_expectancy_bt,2022.2.4,MacIntel,62.5,Safari,1512,982,,,,,0,513,,,,,,,,,,,,,,,,,H,160,hexagon,1,0,,,3,,,,,,,,,,,,,switch,number,numSwt,k,1.107,vtsPrac,7,0,7,0,1,,,,,,,,,,,,,,,,,,,,,,,
294742,2022-12-06_05h51.15.915,vts_reward_expectancy_bt,2022.2.4,MacIntel,62.5,Safari,1512,982,,,,,0,513,,,,,,,,,,,,,,,,,S,132,star,1,0,,,3,,,,,,,,,,,,,repeat,number,numRpt,j,0.831,vtsPrac,8,0,8,0,1,,,,,,,,,,,,,,,,,,,,,,,
294742,2022-12-06_05h51.15.915,vts_reward_expectancy_bt,2022.2.4,MacIntel,62.5,Safari,1512,982,,,,,0,513,,,,,,,,,,,,,,,,,D,167,triangle,1,0,,,3,,,,,,,,,,,,,repeat,number,numRpt,k,0.886,vtsPrac,9,0,9,0,1,,,,,,,,,,,,,,,,,,,,,,,
294742,2022-12-06_05h51.15.915,vts_reward_expectancy_bt,2022.2.4,MacIntel,62.5,Safari,1512,982,,,,,0,513,,,,,,,,,,,,,,,,,F,181,hexagon,1,0,,,3,,,,,,,,,,,,,switch,letter,lettSwt,d,1.003,vtsPrac,10,0,10,0,1,,,,,,,,,,,,,,,,,,,,,,,
294742,2022-12-06_05h51.15.915,vts_reward_expectancy_bt,2022.2.4,MacIntel,62.5,Safari,1512,982,,,,,0,513,,,,,,,,,,,,,,,,,B,139,circle,1,0,,,3,,,,,,,,,,,,,repeat,letter,lettRpt,d,0.727,vtsPrac,11,0,11,0,1,,,,,,,,,,,,,,,,,,,,,,,
294742,2022-12-06_05h51.15.915,vts_reward_expectancy_bt,2022.2.4,MacIntel,62.5,Safari,1512,982,,,,,0,513,,,,,,,,,,,,,,,,,U,167,hexagon,1,0,,,3,,,,,,,,,,,,,switch,number,numSwt,k,0.843,vtsPrac,12,0,12,0,1,,,,,,,,,,,,,,,,,,,,,,,
294742,2022-12-06_05h51.15.915,vts_reward_expectancy_bt,2022.2.4,MacIntel,62.5,Safari,1512,982,,,,,0,513,,,,,,,,,,,,,,,,,H,125,star,1,0,,,3,,,,,,,,,,,,,repeat,number,numRpt,j,1.274,vtsPrac,13,0,13,0,1,,,,,,,,,,,,,,,,,,,,,,,
294742,2022-12-06_05h51.15.915,vts_reward_expectancy_bt,2022.2.4,MacIntel,62.5,Safari,1512,982,,,,,0,513,,,,,,,,,,,,,,,,,F,181,star,1,0,,,3,,,,,,,,,,,,,repeat,number,numRpt,k,0.744,vtsPrac,14,0,14,0,1,,,,,,,,,,,,,,,,,,,,,,,
294742,2022-12-06_05h51.15.915,vts_reward_expectancy_bt,2022.2.4,MacIntel,62.5,Safari,1512,982,,,,,0,513,,,,,,,,,,,,,,,,,B,160,circle,1,0,,,3,,,,,,,,,,,,,repeat,number,numRpt,k,1.239,vtsPrac,15,0,15,0,1,,,,,,,,,,,,,,,,,,,,,,,
294742,2022-12-06_05h51.15.915,vts_reward_expectancy_bt,2022.2.4,MacIntel,62.5,Safari,1512,982,,,,,0,513,,,,,,,,,,,,,,,,,B,167,hexagon,1,0,,,3,,,,,,,,,,,,,repeat,number,numRpt,k,0.745,vtsPrac,16,0,16,0,1,,,,,,,,,,,,,,,,,,,,,,,
294742,2022-12-06_05h51.15.915,vts_reward_expectancy_bt,2022.2.4,MacIntel,62.5,Safari,1512,982,,,,,0,513,,,,,,,,,,,,,,,,,U,139,triangle,1,0,,,3,,,,,,,,,,,,,repeat,number,numRpt,j,1.353,vtsPrac,17,0,17,0,1,,,,,,,,,,,,,,,,,,,,,,,
294742,2022-12-06_05h51.15.915,vts_reward_expectancy_bt,2022.2.4,MacIntel,62.5,Safari,1512,982,,,,,0,513,,,,,,,,,,,,,,,,,H,181,hexagon,1,0,,,3,,,,,,,,,,,,,repeat,number,numRpt,k,1.063,vtsPrac,18,0,18,0,1,,,,,,,,,,,,,,,,,,,,,,,
294742,2022-12-06_05h51.15.915,vts_reward_expectancy_bt,2022.2.4,MacIntel,62.5,Safari,1512,982,,,,,0,513,,,,,,,,,,,,,,,,,S,132,triangle,1,0,,,3,,,,,,,,,,,,,repeat,number,numRpt,j,0.652,vtsPrac,19,0,19,0,1,,,,,,,,,,,,,,,,,,,,,,,
294742,2022-12-06_05h51.15.915,vts_reward_expectancy_bt,2022.2.4,MacIntel,62.5,Safari,1512,982,,,,,0,513,,,,,,,,,,,,,,,,,S,181,triangle,1,0,,,3,,,,,,,,,,,,,repeat,number,numRpt,k,0.528,vtsPrac,20,0,20,0,1,,,,,,,,,,,,,,,,,,,,,,,
294742,2022-12-06_05h51.15.915,vts_reward_expectancy_bt,2022.2.4,MacIntel,62.5,Safari,1512,982,,,,,0,513,,,,,,,,,,,,,,,,,B,125,circle,1,0,,,3,,,,,,,,,,,,,repeat,number,numRpt,j,0.826,vtsPrac,21,0,21,0,1,,,,,,,,,,,,,,,,,,,,,,,
294742,2022-12-06_05h51.15.915,vts_reward_expectancy_bt,2022.2.4,MacIntel,62.5,Safari,1512,982,,,,,0,513,,,,,,,,,,,,,,,,,H,132,star,1,0,,,3,,,,,,,,,,,,,repeat,number,numRpt,j,0.659,vtsPrac,22,0,22,0,1,,,,,,,,,,,,,,,,,,,,,,,
294742,2022-12-06_05h51.15.915,vts_reward_expectancy_bt,2022.2.4,MacIntel,62.5,Safari,1512,982,,,,,0,513,,,,,,,,,,,,,,,,,W,174,circle,1,0,,,3,,,,,,,,,,,,,repeat,number,numRpt,k,0.677,vtsPrac,23,0,23,0,1,,,,,,,,,,,,,,,,,,,,,,,
294742,2022-12-06_05h51.15.915,vts_reward_expectancy_bt,2022.2.4,MacIntel,62.5,Safari,1512,982,,,,,0,513,,,,,,,,,,,,,,,,,Y,160,triangle,1,0,,,3,,,,,,,,,,,,,repeat,number,numRpt,k,0.702,vtsPrac,24,0,24,0,1,,,,,,,,,,,,,,,,,,,,,,,
294742,2022-12-06_05h51.15.915,vts_reward_expectancy_bt,2022.2.4,MacIntel,62.5,Safari,1512,982,,,,,0,513,,,,,,,,,,,,,,,,,D,174,hexagon,1,0,,,3,,,,,,,,,,,,,repeat,number,numRpt,k,0.677,vtsPrac,25,0,25,0,1,,,,,,,,,,,,,,,,,,,,,,,
294742,2022-12-06_05h51.15.915,vts_reward_expectancy_bt,2022.2.4,MacIntel,62.5,Safari,1512,982,,,,,0,513,,,,,,,,,,,,,,,,,F,132,hexagon,1,0,,,3,,,,,,,,,,,,,repeat,number,numRpt,j,1.011,vtsPrac,26,0,26,0,1,,,,,,,,,,,,,,,,,,,,,,,
294742,2022-12-06_05h51.15.915,vts_reward_expectancy_bt,2022.2.4,MacIntel,62.5,Safari,1512,982,,,,,0,513,,,,,,,,,,,,,,,,,B,125,circle,1,0,,,3,,,,,,,,,,,,,repeat,number,numRpt,j,0.883,vtsPrac,27,0,27,0,1,,,,,,,,,,,,,,,,,,,,,,,
294742,2022-12-06_05h51.15.915,vts_reward_expectancy_bt,2022.2.4,MacIntel,62.5,Safari,1512,982,,,,,0,513,,,,,,,,,,,,,,,,,F,139,star,1,0,,,3,,,,,,,,,,,,,repeat,number,numRpt,j,0.855,vtsPrac,28,0,28,0,1,,,,,,,,,,,,,,,,,,,,,,,
294742,2022-12-06_05h51.15.915,vts_reward_expectancy_bt,2022.2.4,MacIntel,62.5,Safari,1512,982,,,,,0,513,,,,,,,,,,,,,,,,,U,125,hexagon,0,0,,,3,,,,,,,,,,,,,repeat,number,NA,k,0.779,vtsPrac,29,0,29,0,1,,,,,,,,,,,,,,,,,,,,,,,
294742,2022-12-06_05h51.15.915,vts_reward_expectancy_bt,2022.2.4,MacIntel,62.5,Safari,1512,982,,,,,0,513,,,,,,,,,,,,,,,,,S,174,triangle,1,1,,,3,,,,,,,,,,,,,repeat,number,numRpt,k,0.753,vtsPrac,30,0,30,0,1,,,,,,,,,,,,,,,,,,,,,,,
294742,2022-12-06_05h51.15.915,vts_reward_expectancy_bt,2022.2.4,MacIntel,62.5,Safari,1512,982,,,,,0,513,,,,,,,,,,,,,,,,,B,181,star,1,0,,,3,,,,,,,,,,,,,repeat,number,numRpt,k,0.612,vtsPrac,31,0,31,0,1,,,,,,,,,,,,,,,,,,,,,,,
294742,2022-12-06_05h51.15.915,vts_reward_expectancy_bt,2022.2.4,MacIntel,62.5,Safari,1512,982,,,,,0,513,,,,,,,,,,,,,,,,,H,174,triangle,0,0,,,4,,,,,,,,,,,,,switch,letter,NA,f,0.895,vtsPrac,0,0,0,0,1,,,,,,,,,,,,,,,,,,,,,,,
294742,2022-12-06_05h51.15.915,vts_reward_expectancy_bt,2022.2.4,MacIntel,62.5,Safari,1512,982,,,,,0,513,,,,,,,,,,,,,,,,,F,167,hexagon,1,1,,,4,,,,,,,,,,,,,switch,number,numSwt,k,0.712,vtsPrac,1,0,1,0,1,,,,,,,,,,,,,,,,,,,,,,,
294742,2022-12-06_05h51.15.915,vts_reward_expectancy_bt,2022.2.4,MacIntel,62.5,Safari,1512,982,,,,,0,513,,,,,,,,,,,,,,,,,B,125,triangle,1,0,,,4,,,,,,,,,,,,,switch,letter,lettSwt,d,0.832,vtsPrac,2,0,2,0,1,,,,,,,,,,,,,,,,,,,,,,,
294742,2022-12-06_05h51.15.915,vts_reward_expectancy_bt,2022.2.4,MacIntel,62.5,Safari,1512,982,,,,,0,513,,,,,,,,,,,,,,,,,U,139,hexagon,0,0,,,4,,,,,,,,,,,,,repeat,letter,NA,d,0.736,vtsPrac,3,0,3,0,1,,,,,,,,,,,,,,,,,,,,,,,
294742,2022-12-06_05h51.15.915,vts_reward_expectancy_bt,2022.2.4,MacIntel,62.5,Safari,1512,982,,,,,0,513,,,,,,,,,,,,,,,,,H,174,triangle,1,1,,,4,,,,,,,,,,,,,repeat,letter,lettRpt,d,0.777,vtsPrac,4,0,4,0,1,,,,,,,,,,,,,,,,,,,,,,,
294742,2022-12-06_05h51.15.915,vts_reward_expectancy_bt,2022.2.4,MacIntel,62.5,Safari,1512,982,,,,,0,513,,,,,,,,,,,,,,,,,F,167,hexagon,1,0,,,4,,,,,,,,,,,,,repeat,letter,lettRpt,d,0.929,vtsPrac,5,0,5,0,1,,,,,,,,,,,,,,,,,,,,,,,
294742,2022-12-06_05h51.15.915,vts_reward_expectancy_bt,2022.2.4,MacIntel,62.5,Safari,1512,982,,,,,0,513,,,,,,,,,,,,,,,,,B,125,hexagon,1,0,,,4,,,,,,,,,,,,,repeat,letter,lettRpt,d,0.94,vtsPrac,6,0,6,0,1,,,,,,,,,,,,,,,,,,,,,,,
294742,2022-12-06_05h51.15.915,vts_reward_expectancy_bt,2022.2.4,MacIntel,62.5,Safari,1512,982,,,,,0,513,,,,,,,,,,,,,,,,,U,139,circle,0,0,,,4,,,,,,,,,,,,,switch,number,NA,k,0.494,vtsPrac,7,0,7,0,1,,,,,,,,,,,,,,,,,,,,,,,
294742,2022-12-06_05h51.15.915,vts_reward_expectancy_bt,2022.2.4,MacIntel,62.5,Safari,1512,982,,,,,0,513,,,,,,,,,,,,,,,,,S,132,hexagon,1,1,,,4,,,,,,,,,,,,,repeat,number,numRpt,j,0.877,vtsPrac,8,0,8,0,1,,,,,,,,,,,,,,,,,,,,,,,
294742,2022-12-06_05h51.15.915,vts_reward_expectancy_bt,2022.2.4,MacIntel,62.5,Safari,1512,982,,,,,0,513,,,,,,,,,,,,,,,,,U,139,star,0,0,,,4,,,,,,,,,,,,,switch,letter,NA,d,0.755,vtsPrac,9,0,9,0,1,,,,,,,,,,,,,,,,,,,,,,,
294742,2022-12-06_05h51.15.915,vts_reward_expectancy_bt,2022.2.4,MacIntel,62.5,Safari,1512,982,,,,,0,513,,,,,,,,,,,,,,,,,H,174,circle,1,1,,,4,,,,,,,,,,,,,repeat,letter,lettRpt,d,0.999,vtsPrac,10,0,10,0,1,,,,,,,,,,,,,,,,,,,,,,,
294742,2022-12-06_05h51.15.915,vts_reward_expectancy_bt,2022.2.4,MacIntel,62.5,Safari,1512,982,,,,,0,513,,,,,,,,,,,,,,,,,F,146,star,1,0,,,4,,,,,,,,,,,,,switch,number,numSwt,j,0.826,vtsPrac,11,0,11,0,1,,,,,,,,,,,,,,,,,,,,,,,
294742,2022-12-06_05h51.15.915,vts_reward_expectancy_bt,2022.2.4,MacIntel,62.5,Safari,1512,982,,,,,0,513,,,,,,,,,,,,,,,,,H,146,circle,0,0,,,4,,,,,,,,,,,,,repeat,number,NA,k,0.261,vtsPrac,12,0,12,0,1,,,,,,,,,,,,,,,,,,,,,,,
294742,2022-12-06_05h51.15.915,vts_reward_expectancy_bt,2022.2.4,MacIntel,62.5,Safari,1512,982,,,,,0,513,,,,,,,,,,,,,,,,,B,181,star,0,1,,,4,,,,,,,,,,,,,switch,letter,NA,f,0.292,vtsPrac,13,0,13,0,1,,,,,,,,,,,,,,,,,,,,,,,
294742,2022-12-06_05h51.15.915,vts_reward_expectancy_bt,2022.2.4,MacIntel,62.5,Safari,1512,982,,,,,0,513,,,,,,,,,,,,,,,,,U,160,star,0,1,,,4,,,,,,,,,,,,,repeat,letter,NA,d,0.202,vtsPrac,14,0,14,0,1,,,,,,,,,,,,,,,,,,,,,,,
294742,2022-12-06_05h51.15.915,vts_reward_expectancy_bt,2022.2.4,MacIntel,62.5,Safari,1512,982,,,,,0,513,,,,,,,,,,,,,,,,,D,174,triangle,1,1,,,4,,,,,,,,,,,,,repeat,letter,lettRpt,d,0.234,vtsPrac,15,0,15,0,1,,,,,,,,,,,,,,,,,,,,,,,
294742,2022-12-06_05h51.15.915,vts_reward_expectancy_bt,2022.2.4,MacIntel,62.5,Safari,1512,982,,,,,0,513,,,,,,,,,,,,,,,,,B,139,triangle,1,0,,,4,,,,,,,,,,,,,repeat,letter,lettRpt,d,0.403,vtsPrac,16,0,16,0,1,,,,,,,,,,,,,,,,,,,,,,,
294742,2022-12-06_05h51.15.915,vts_reward_expectancy_bt,2022.2.4,MacIntel,62.5,Safari,1512,982,,,,,0,513,,,,,,,,,,,,,,,,,D,132,hexagon,1,0,,,4,,,,,,,,,,,,,switch,number,numSwt,j,0.236,vtsPrac,17,0,17,0,1,,,,,,,,,,,,,,,,,,,,,,,
294742,2022-12-06_05h51.15.915,vts_reward_expectancy_bt,2022.2.4,MacIntel,62.5,Safari,1512,982,,,,,0,513,,,,,,,,,,,,,,,,,Y,181,triangle,1,0,,,4,,,,,,,,,,,,,switch,letter,lettSwt,f,0.603,vtsPrac,18,0,18,0,1,,,,,,,,,,,,,,,,,,,,,,,
294742,2022-12-06_05h51.15.915,vts_reward_expectancy_bt,2022.2.4,MacIntel,62.5,Safari,1512,982,,,,,0,513,,,,,,,,,,,,,,,,,W,125,hexagon,0,0,,,4,,,,,,,,,,,,,switch,number,NA,k,0.727,vtsPrac,19,0,19,0,1,,,,,,,,,,,,,,,,,,,,,,,
294742,2022-12-06_05h51.15.915,vts_reward_expectancy_bt,2022.2.4,MacIntel,62.5,Safari,1512,982,,,,,0,513,,,,,,,,,,,,,,,,,U,167,hexagon,1,1,,,4,,,,,,,,,,,,,switch,letter,lettSwt,f,0.326,vtsPrac,20,0,20,0,1,,,,,,,,,,,,,,,,,,,,,,,
294742,2022-12-06_05h51.15.915,vts_reward_expectancy_bt,2022.2.4,MacIntel,62.5,Safari,1512,982,,,,,0,513,,,,,,,,,,,,,,,,,F,132,star,1,0,,,4,,,,,,,,,,,,,repeat,letter,lettRpt,d,0.692,vtsPrac,21,0,21,0,1,,,,,,,,,,,,,,,,,,,,,,,
294742,2022-12-06_05h51.15.915,vts_reward_expectancy_bt,2022.2.4,MacIntel,62.5,Safari,1512,982,,,,,0,513,,,,,,,,,,,,,,,,,W,181,hexagon,0,0,,,4,,,,,,,,,,,,,switch,number,NA,j,0.261,vtsPrac,22,0,22,0,1,,,,,,,,,,,,,,,,,,,,,,,
294742,2022-12-06_05h51.15.915,vts_reward_expectancy_bt,2022.2.4,MacIntel,62.5,Safari,1512,982,,,,,0,513,,,,,,,,,,,,,,,,,Y,160,star,0,1,,,4,,,,,,,,,,,,,switch,letter,NA,d,0.248,vtsPrac,23,0,23,0,1,,,,,,,,,,,,,,,,,,,,,,,
294742,2022-12-06_05h51.15.915,vts_reward_expectancy_bt,2022.2.4,MacIntel,62.5,Safari,1512,982,,,,,0,513,,,,,,,,,,,,,,,,,Y,160,triangle,0,1,,,4,,,,,,,,,,,,,switch,number,NA,j,0.186,vtsPrac,24,0,24,0,1,,,,,,,,,,,,,,,,,,,,,,,
294742,2022-12-06_05h51.15.915,vts_reward_expectancy_bt,2022.2.4,MacIntel,62.5,Safari,1512,982,,,,,0,513,,,,,,,,,,,,,,,,,B,132,hexagon,0,1,,,4,,,,,,,,,,,,,repeat,number,NA,k,0.321,vtsPrac,25,0,25,0,1,,,,,,,,,,,,,,,,,,,,,,,
294742,2022-12-06_05h51.15.915,vts_reward_expectancy_bt,2022.2.4,MacIntel,62.5,Safari,1512,982,,,,,0,513,,,,,,,,,,,,,,,,,F,139,star,1,1,,,4,,,,,,,,,,,,,repeat,number,numRpt,j,0.266,vtsPrac,26,0,26,0,1,,,,,,,,,,,,,,,,,,,,,,,
294742,2022-12-06_05h51.15.915,vts_reward_expectancy_bt,2022.2.4,MacIntel,62.5,Safari,1512,982,,,,,0,513,,,,,,,,,,,,,,,,,D,146,triangle,1,0,,,4,,,,,,,,,,,,,switch,letter,lettSwt,d,1.005,vtsPrac,27,0,27,0,1,,,,,,,,,,,,,,,,,,,,,,,
294742,2022-12-06_05h51.15.915,vts_reward_expectancy_bt,2022.2.4,MacIntel,62.5,Safari,1512,982,,,,,0,513,,,,,,,,,,,,,,,,,H,132,triangle,1,0,,,4,,,,,,,,,,,,,switch,number,numSwt,j,1.37,vtsPrac,28,0,28,0,1,,,,,,,,,,,,,,,,,,,,,,,
294742,2022-12-06_05h51.15.915,vts_reward_expectancy_bt,2022.2.4,MacIntel,62.5,Safari,1512,982,,,,,0,513,,,,,,,,,,,,,,,,,Y,174,hexagon,1,0,,,4,,,,,,,,,,,,,switch,letter,lettSwt,f,0.394,vtsPrac,29,0,29,0,1,,,,,,,,,,,,,,,,,,,,,,,
294742,2022-12-06_05h51.15.915,vts_reward_expectancy_bt,2022.2.4,MacIntel,62.5,Safari,1512,982,,,,,0,513,,,,,,,,,,,,,,,,,F,139,star,0,0,,,4,,,,,,,,,,,,,repeat,letter,NA,f,0.762,vtsPrac,30,0,30,0,1,,,,,,,,,,,,,,,,,,,,,,,
294742,2022-12-06_05h51.15.915,vts_reward_expectancy_bt,2022.2.4,MacIntel,62.5,Safari,1512,982,,,,,0,513,,,,,,,,,,,,,,,,,D,146,hexagon,0,1,,,4,,,,,,,,,,,,,switch,number,NA,k,1.102,vtsPrac,31,0,31,0,1,,,,,,,,,,,,,,,,,,,,,,,
294742,2022-12-06_05h51.15.915,vts_reward_expectancy_bt,2022.2.4,MacIntel,62.5,Safari,1512,982,,,,,0,513,,,,,,,,,,,,,,,,,S,160,circle,1,1,,,5,,,,,,,,,,,,,repeat,number,numRpt,k,0.387,vtsPrac,0,0,0,0,1,,,,,,,,,,,,,,,,,,,,,,,
294742,2022-12-06_05h51.15.915,vts_reward_expectancy_bt,2022.2.4,MacIntel,62.5,Safari,1512,982,,,,,0,513,,,,,,,,,,,,,,,,,B,125,star,1,0,,,5,,,,,,,,,,,,,switch,letter,lettSwt,d,0.343,vtsPrac,1,0,1,0,1,,,,,,,,,,,,,,,,,,,,,,,
294742,2022-12-06_05h51.15.915,vts_reward_expectancy_bt,2022.2.4,MacIntel,62.5,Safari,1512,982,,,,,0,513,,,,,,,,,,,,,,,,,U,139,circle,1,0,,,5,,,,,,,,,,,,,switch,number,numSwt,j,0.277,vtsPrac,2,0,2,0,1,,,,,,,,,,,,,,,,,,,,,,,
294742,2022-12-06_05h51.15.915,vts_reward_expectancy_bt,2022.2.4,MacIntel,62.5,Safari,1512,982,,,,,0,513,,,,,,,,,,,,,,,,,D,174,star,0,0,,,5,,,,,,,,,,,,,switch,letter,NA,f,0.428,vtsPrac,3,0,3,0,1,,,,,,,,,,,,,,,,,,,,,,,
294742,2022-12-06_05h51.15.915,vts_reward_expectancy_bt,2022.2.4,MacIntel,62.5,Safari,1512,982,,,,,0,513,,,,,,,,,,,,,,,,,S,160,triangle,0,1,,,5,,,,,,,,,,,,,switch,number,NA,j,0.786,vtsPrac,4,0,4,0,1,,,,,,,,,,,,,,,,,,,,,,,
294742,2022-12-06_05h51.15.915,vts_reward_expectancy_bt,2022.2.4,MacIntel,62.5,Safari,1512,982,,,,,0,513,,,,,,,,,,,,,,,,,B,125,circle,0,1,,,5,,,,,,,,,,,,,repeat,number,NA,k,0.233,vtsPrac,5,0,5,0,1,,,,,,,,,,,,,,,,,,,,,,,
294742,2022-12-06_05h51.15.915,vts_reward_expectancy_bt,2022.2.4,MacIntel,62.5,Safari,1512,982,,,,,0,513,,,,,,,,,,,,,,,,,U,139,star,0,1,,,5,,,,,,,,,,,,,switch,letter,NA,d,0.261,vtsPrac,6,0,6,0,1,,,,,,,,,,,,,,,,,,,,,,,
294742,2022-12-06_05h51.15.915,vts_reward_expectancy_bt,2022.2.4,MacIntel,62.5,Safari,1512,982,,,,,0,513,,,,,,,,,,,,,,,,,D,174,circle,1,1,,,5,,,,,,,,,,,,,repeat,letter,lettRpt,d,0.793,vtsPrac,7,0,7,0,1,,,,,,,,,,,,,,,,,,,,,,,
294742,2022-12-06_05h51.15.915,vts_reward_expectancy_bt,2022.2.4,MacIntel,62.5,Safari,1512,982,,,,,0,513,,,,,,,,,,,,,,,,,U,139,circle,-1,0,,,5,,,,,,,,,,,,,switch,no_choice,NA,,,vtsPrac,8,0,8,0,1,,,,,,,,,,,,,,,,,,,,,,,
294742,2022-12-06_05h51.15.915,vts_reward_expectancy_bt,2022.2.4,MacIntel,62.5,Safari,1512,982,,,,,0,513,,,,,,,,,,,,,,,,,B,132,triangle,0,0,,,5,,,,,,,,,,,,,switch,number,NA,k,0.253,vtsPrac,9,0,9,0,1,,,,,,,,,,,,,,,,,,,,,,,
294742,2022-12-06_05h51.15.915,vts_reward_expectancy_bt,2022.2.4,MacIntel,62.5,Safari,1512,982,,,,,0,513,,,,,,,,,,,,,,,,,F,167,circle,0,1,,,5,,,,,,,,,,,,,switch,letter,NA,f,0.9,vtsPrac,10,0,10,0,1,,,,,,,,,,,,,,,,,,,,,,,
294742,2022-12-06_05h51.15.915,vts_reward_expectancy_bt,2022.2.4,MacIntel,62.5,Safari,1512,982,,,,,0,513,,,,,,,,,,,,,,,,,Y,181,triangle,0,1,,,5,,,,,,,,,,,,,repeat,letter,NA,d,0.327,vtsPrac,11,0,11,0,1,,,,,,,,,,,,,,,,,,,,,,,
294742,2022-12-06_05h51.15.915,vts_reward_expectancy_bt,2022.2.4,MacIntel,62.5,Safari,1512,982,,,,,0,513,,,,,,,,,,,,,,,,,S,132,triangle,0,1,,,5,,,,,,,,,,,,,switch,number,NA,k,0.261,vtsPrac,12,0,12,0,1,,,,,,,,,,,,,,,,,,,,,,,
294742,2022-12-06_05h51.15.915,vts_reward_expectancy_bt,2022.2.4,MacIntel,62.5,Safari,1512,982,,,,,0,513,,,,,,,,,,,,,,,,,B,181,hexagon,0,1,,,5,,,,,,,,,,,,,switch,letter,NA,f,0.578,vtsPrac,13,0,13,0,1,,,,,,,,,,,,,,,,,,,,,,,
294742,2022-12-06_05h51.15.915,vts_reward_expectancy_bt,2022.2.4,MacIntel,62.5,Safari,1512,982,,,,,0,513,,,,,,,,,,,,,,,,,W,125,triangle,0,1,,,5,,,,,,,,,,,,,repeat,letter,NA,d,0.819,vtsPrac,14,0,14,0,1,,,,,,,,,,,,,,,,,,,,,,,
294742,2022-12-06_05h51.15.915,vts_reward_expectancy_bt,2022.2.4,MacIntel,62.5,Safari,1512,982,,,,,0,513,,,,,,,,,,,,,,,,,Y,174,circle,0,1,,,5,,,,,,,,,,,,,switch,number,NA,j,0.928,vtsPrac,15,0,15,0,1,,,,,,,,,,,,,,,,,,,,,,,
294742,2022-12-06_05h51.15.915,vts_reward_expectancy_bt,2022.2.4,MacIntel,62.5,Safari,1512,982,,,,,0,513,,,,,,,,,,,,,,,,,F,125,star,1,1,,,5,,,,,,,,,,,,,switch,letter,lettSwt,d,0.488,vtsPrac,16,0,16,0,1,,,,,,,,,,,,,,,,,,,,,,,
294742,2022-12-06_05h51.15.915,vts_reward_expectancy_bt,2022.2.4,MacIntel,62.5,Safari,1512,982,,,,,0,513,,,,,,,,,,,,,,,,,W,174,circle,1,0,,,5,,,,,,,,,,,,,switch,number,numSwt,k,0.28,vtsPrac,17,0,17,0,1,,,,,,,,,,,,,,,,,,,,,,,
294742,2022-12-06_05h51.15.915,vts_reward_expectancy_bt,2022.2.4,MacIntel,62.5,Safari,1512,982,,,,,0,513,,,,,,,,,,,,,,,,,S,181,star,0,0,,,5,,,,,,,,,,,,,repeat,number,NA,j,0.277,vtsPrac,18,0,18,0,1,,,,,,,,,,,,,,,,,,,,,,,
294742,2022-12-06_05h51.15.915,vts_reward_expectancy_bt,2022.2.4,MacIntel,62.5,Safari,1512,982,,,,,0,513,,,,,,,,,,,,,,,,,D,132,circle,1,1,,,5,,,,,,,,,,,,,switch,letter,lettSwt,d,0.26,vtsPrac,19,0,19,0,1,,,,,,,,,,,,,,,,,,,,,,,
294742,2022-12-06_05h51.15.915,vts_reward_expectancy_bt,2022.2.4,MacIntel,62.5,Safari,1512,982,,,,,0,513,,,,,,,,,,,,,,,,,D,146,circle,0,0,,,5,,,,,,,,,,,,,repeat,letter,NA,f,0.367,vtsPrac,20,0,20,0,1,,,,,,,,,,,,,,,,,,,,,,,
294742,2022-12-06_05h51.15.915,vts_reward_expectancy_bt,2022.2.4,MacIntel,62.5,Safari,1512,982,,,,,0,513,,,,,,,,,,,,,,,,,U,139,hexagon,0,1,,,5,,,,,,,,,,,,,repeat,letter,NA,d,1.596,vtsPrac,21,0,21,0,1,,,,,,,,,,,,,,,,,,,,,,,
294742,2022-12-06_05h51.15.915,vts_reward_expectancy_bt,2022.2.4,MacIntel,62.5,Safari,1512,982,,,,,0,513,,,,,,,,,,,,,,,,,S,181,circle,1,1,,,5,,,,,,,,,,,,,repeat,letter,lettRpt,f,0.742,vtsPrac,22,0,22,0,1,,,,,,,,,,,,,,,,,,,,,,,
294742,2022-12-06_05h51.15.915,vts_reward_expectancy_bt,2022.2.4,MacIntel,62.5,Safari,1512,982,,,,,0,513,,,,,,,,,,,,,,,,,F,167,star,1,0,,,5,,,,,,,,,,,,,switch,number,numSwt,k,0.426,vtsPrac,23,0,23,0,1,,,,,,,,,,,,,,,,,,,,,,,
294742,2022-12-06_05h51.15.915,vts_reward_expectancy_bt,2022.2.4,MacIntel,62.5,Safari,1512,982,,,,,0,513,,,,,,,,,,,,,,,,,W,139,star,0,0,,,5,,,,,,,,,,,,,switch,letter,NA,d,1.486,vtsPrac,24,0,24,0,1,,,,,,,,,,,,,,,,,,,,,,,
294742,2022-12-06_05h51.15.915,vts_reward_expectancy_bt,2022.2.4,MacIntel,62.5,Safari,1512,982,,,,,0,513,,,,,,,,,,,,,,,,,S,132,hexagon,1,1,,,5,,,,,,,,,,,,,switch,number,numSwt,j,0.559,vtsPrac,25,0,25,0,1,,,,,,,,,,,,,,,,,,,,,,,
294742,2022-12-06_05h51.15.915,vts_reward_expectancy_bt,2022.2.4,MacIntel,62.5,Safari,1512,982,,,,,0,513,,,,,,,,,,,,,,,,,U,160,hexagon,1,0,,,5,,,,,,,,,,,,,switch,letter,lettSwt,f,0.281,vtsPrac,26,0,26,0,1,,,,,,,,,,,,,,,,,,,,,,,
294742,2022-12-06_05h51.15.915,vts_reward_expectancy_bt,2022.2.4,MacIntel,62.5,Safari,1512,982,,,,,0,513,,,,,,,,,,,,,,,,,F,181,circle,1,0,,,5,,,,,,,,,,,,,switch,number,numSwt,k,0.659,vtsPrac,27,0,27,0,1,,,,,,,,,,,,,,,,,,,,,,,
294742,2022-12-06_05h51.15.915,vts_reward_expectancy_bt,2022.2.4,MacIntel,62.5,Safari,1512,982,,,,,0,513,,,,,,,,,,,,,,,,,Y,181,hexagon,0,0,,,5,,,,,,,,,,,,,switch,letter,NA,d,0.397,vtsPrac,28,0,28,0,1,,,,,,,,,,,,,,,,,,,,,,,
294742,2022-12-06_05h51.15.915,vts_reward_expectancy_bt,2022.2.4,MacIntel,62.5,Safari,1512,982,,,,,0,513,,,,,,,,,,,,,,,,,F,174,star,1,1,,,5,,,,,,,,,,,,,switch,number,numSwt,k,0.31,vtsPrac,29,0,29,0,1,,,,,,,,,,,,,,,,,,,,,,,
294742,2022-12-06_05h51.15.915,vts_reward_expectancy_bt,2022.2.4,MacIntel,62.5,Safari,1512,982,,,,,0,513,,,,,,,,,,,,,,,,,W,167,hexagon,0,0,,,5,,,,,,,,,,,,,switch,letter,NA,d,0.343,vtsPrac,30,0,30,0,1,,,,,,,,,,,,,,,,,,,,,,,
294742,2022-12-06_05h51.15.915,vts_reward_expectancy_bt,2022.2.4,MacIntel,62.5,Safari,1512,982,,,,,0,513,,,,,,,,,,,,,,,,,D,146,star,1,1,,,5,,,,,,,,,,,,,switch,number,numSwt,j,0.221,vtsPrac,31,0,31,0,1,,,,,,,,,,,,,,,,,,,,,,,
294742,2022-12-06_05h51.15.915,vts_reward_expectancy_bt,2022.2.4,MacIntel,62.5,Safari,1512,982,,,,,,,,,,,,,,,,,,,,,,,,,,,,,,,,,,,,,,,,,,,,,,,,,,,,,,,,,,,,,,,,,,,,,,,,,,,,
294742,2022-12-06_05h51.15.915,vts_reward_expectancy_bt,2022.2.4,MacIntel,62.5,Safari,1512,982,,,,,,,,,,,,,,,,,,,,,,,,,,,,,,,,,,,,,,,,,,,,,,,,,,,,,,,,,,,,,,,,,,,,,,,,,,,,
294742,2022-12-06_05h51.15.915,vts_reward_expectancy_bt,2022.2.4,MacIntel,62.5,Safari,1512,982,,,,,0,513,,,,,,,,,,,,,,,,,B,146,hexagon,0,0,,,,,,,,,,,,,,,,repeat,number,NA,k,0.354,noRew,,,,,,0,0,0,0,0,1,,,,,,,,,,,,,,,,,
294742,2022-12-06_05h51.15.915,vts_reward_expectancy_bt,2022.2.4,MacIntel,62.5,Safari,1512,982,,,,,0,513,,,,,,,,,,,,,,,,,W,139,star,1,1,,,,,,,,,,,,,,,,switch,letter,lettSwt,f,0.062,noRew,,,,,,0,1,0,1,0,1,,,,,,,,,,,,,,,,,
294742,2022-12-06_05h51.15.915,vts_reward_expectancy_bt,2022.2.4,MacIntel,62.5,Safari,1512,982,,,,,0,513,,,,,,,,,,,,,,,,,S,174,hexagon,0,0,,,,,,,,,,,,,,,,switch,number,NA,j,0.221,noRew,,,,,,0,2,0,2,0,1,,,,,,,,,,,,,,,,,
294742,2022-12-06_05h51.15.915,vts_reward_expectancy_bt,2022.2.4,MacIntel,62.5,Safari,1512,982,,,,,0,513,,,,,,,,,,,,,,,,,F,160,star,1,1,,,,,,,,,,,,,,,,repeat,number,numRpt,k,0.681,noRew,,,,,,0,3,0,3,0,1,,,,,,,,,,,,,,,,,
294742,2022-12-06_05h51.15.915,vts_reward_expectancy_bt,2022.2.4,MacIntel,62.5,Safari,1512,982,,,,,0,513,,,,,,,,,,,,,,,,,B,146,circle,1,0,,,,,,,,,,,,,,,,repeat,number,numRpt,j,0.81,noRew,,,,,,0,4,0,4,0,1,,,,,,,,,,,,,,,,,
294742,2022-12-06_05h51.15.915,vts_reward_expectancy_bt,2022.2.4,MacIntel,62.5,Safari,1512,982,,,,,0,513,,,,,,,,,,,,,,,,,W,139,hexagon,0,0,,,,,,,,,,,,,,,,switch,letter,NA,d,0.658,noRew,,,,,,0,5,0,5,0,1,,,,,,,,,,,,,,,,,
294742,2022-12-06_05h51.15.915,vts_reward_expectancy_bt,2022.2.4,MacIntel,62.5,Safari,1512,982,,,,,0,513,,,,,,,,,,,,,,,,,S,174,circle,1,1,,,,,,,,,,,,,,,,switch,number,numSwt,k,1.044,noRew,,,,,,0,6,0,6,0,1,,,,,,,,,,,,,,,,,
294742,2022-12-06_05h51.15.915,vts_reward_expectancy_bt,2022.2.4,MacIntel,62.5,Safari,1512,982,,,,,0,513,,,,,,,,,,,,,,,,,F,160,star,1,0,,,,,,,,,,,,,,,,repeat,number,numRpt,k,0.737,noRew,,,,,,0,7,0,7,0,1,,,,,,,,,,,,,,,,,
294742,2022-12-06_05h51.15.915,vts_reward_expectancy_bt,2022.2.4,MacIntel,62.5,Safari,1512,982,,,,,0,513,,,,,,,,,,,,,,,,,H,181,star,1,0,,,,,,,,,,,,,,,,repeat,number,numRpt,k,0.888,noRew,,,,,,0,8,0,8,0,1,,,,,,,,,,,,,,,,,
294742,2022-12-06_05h51.15.915,vts_reward_expectancy_bt,2022.2.4,MacIntel,62.5,Safari,1512,982,,,,,0,513,,,,,,,,,,,,,,,,,D,146,circle,0,0,,,,,,,,,,,,,,,,repeat,number,NA,k,0.515,noRew,,,,,,0,9,0,9,0,1,,,,,,,,,,,,,,,,,
294742,2022-12-06_05h51.15.915,vts_reward_expectancy_bt,2022.2.4,MacIntel,62.5,Safari,1512,982,,,,,0,513,,,,,,,,,,,,,,,,,F,160,hexagon,1,1,,,,,,,,,,,,,,,,repeat,number,numRpt,k,0.609,noRew,,,,,,0,10,0,10,0,1,,,,,,,,,,,,,,,,,
294742,2022-12-06_05h51.15.915,vts_reward_expectancy_bt,2022.2.4,MacIntel,62.5,Safari,1512,982,,,,,0,513,,,,,,,,,,,,,,,,,W,125,circle,1,0,,,,,,,,,,,,,,,,repeat,number,numRpt,j,0.685,noRew,,,,,,0,11,0,11,0,1,,,,,,,,,,,,,,,,,
294742,2022-12-06_05h51.15.915,vts_reward_expectancy_bt,2022.2.4,MacIntel,62.5,Safari,1512,982,,,,,0,513,,,,,,,,,,,,,,,,,Y,146,triangle,0,0,,,,,,,,,,,,,,,,repeat,number,NA,k,0.867,noRew,,,,,,0,12,0,12,0,1,,,,,,,,,,,,,,,,,
294742,2022-12-06_05h51.15.915,vts_reward_expectancy_bt,2022.2.4,MacIntel,62.5,Safari,1512,982,,,,,0,513,,,,,,,,,,,,,,,,,D,125,circle,1,1,,,,,,,,,,,,,,,,repeat,number,numRpt,j,0.895,noRew,,,,,,0,13,0,13,0,1,,,,,,,,,,,,,,,,,
294742,2022-12-06_05h51.15.915,vts_reward_expectancy_bt,2022.2.4,MacIntel,62.5,Safari,1512,982,,,,,0,513,,,,,,,,,,,,,,,,,F,174,circle,1,0,,,,,,,,,,,,,,,,repeat,number,numRpt,k,1.112,noRew,,,,,,0,14,0,14,0,1,,,,,,,,,,,,,,,,,
294742,2022-12-06_05h51.15.915,vts_reward_expectancy_bt,2022.2.4,MacIntel,62.5,Safari,1512,982,,,,,0,513,,,,,,,,,,,,,,,,,S,139,star,1,0,,,,,,,,,,,,,,,,repeat,number,numRpt,j,1.412,noRew,,,,,,0,15,0,15,0,1,,,,,,,,,,,,,,,,,
294742,2022-12-06_05h51.15.915,vts_reward_expectancy_bt,2022.2.4,MacIntel,62.5,Safari,1512,982,,,,,0,513,,,,,,,,,,,,,,,,,H,181,hexagon,1,0,,,,,,,,,,,,,,,,repeat,number,numRpt,k,0.636,noRew,,,,,,0,16,0,16,0,1,,,,,,,,,,,,,,,,,
294742,2022-12-06_05h51.15.915,vts_reward_expectancy_bt,2022.2.4,MacIntel,62.5,Safari,1512,982,,,,,0,513,,,,,,,,,,,,,,,,,F,146,triangle,0,0,,,,,,,,,,,,,,,,repeat,number,NA,k,0.794,noRew,,,,,,0,17,0,17,0,1,,,,,,,,,,,,,,,,,
294742,2022-12-06_05h51.15.915,vts_reward_expectancy_bt,2022.2.4,MacIntel,62.5,Safari,1512,982,,,,,0,513,,,,,,,,,,,,,,,,,U,167,triangle,0,1,,,,,,,,,,,,,,,,repeat,number,NA,j,0.887,noRew,,,,,,0,18,0,18,0,1,,,,,,,,,,,,,,,,,
294742,2022-12-06_05h51.15.915,vts_reward_expectancy_bt,2022.2.4,MacIntel,62.5,Safari,1512,982,,,,,0,513,,,,,,,,,,,,,,,,,S,139,star,1,1,,,,,,,,,,,,,,,,repeat,number,numRpt,j,0.891,noRew,,,,,,0,19,0,19,0,1,,,,,,,,,,,,,,,,,
294742,2022-12-06_05h51.15.915,vts_reward_expectancy_bt,2022.2.4,MacIntel,62.5,Safari,1512,982,,,,,0,513,,,,,,,,,,,,,,,,,H,139,triangle,0,0,,,,,,,,,,,,,,,,repeat,number,NA,k,1.345,noRew,,,,,,0,20,0,20,0,1,,,,,,,,,,,,,,,,,
294742,2022-12-06_05h51.15.915,vts_reward_expectancy_bt,2022.2.4,MacIntel,62.5,Safari,1512,982,,,,,0,513,,,,,,,,,,,,,,,,,F,181,circle,1,1,,,,,,,,,,,,,,,,repeat,number,numRpt,k,1.886,noRew,,,,,,0,21,0,21,0,1,,,,,,,,,,,,,,,,,
294742,2022-12-06_05h51.15.915,vts_reward_expectancy_bt,2022.2.4,MacIntel,62.5,Safari,1512,982,,,,,0,513,,,,,,,,,,,,,,,,,B,132,circle,1,0,,,,,,,,,,,,,,,,repeat,number,numRpt,j,1.455,noRew,,,,,,0,22,0,22,0,1,,,,,,,,,,,,,,,,,
294742,2022-12-06_05h51.15.915,vts_reward_expectancy_bt,2022.2.4,MacIntel,62.5,Safari,1512,982,,,,,0,513,,,,,,,,,,,,,,,,,W,160,star,1,0,,,,,,,,,,,,,,,,repeat,number,numRpt,k,1.053,noRew,,,,,,0,23,0,23,0,1,,,,,,,,,,,,,,,,,
294742,2022-12-06_05h51.15.915,vts_reward_expectancy_bt,2022.2.4,MacIntel,62.5,Safari,1512,982,,,,,0,513,,,,,,,,,,,,,,,,,B,146,circle,1,0,,,,,,,,,,,,,,,,repeat,number,numRpt,j,0.749,noRew,,,,,,0,24,0,24,0,1,,,,,,,,,,,,,,,,,
294742,2022-12-06_05h51.15.915,vts_reward_expectancy_bt,2022.2.4,MacIntel,62.5,Safari,1512,982,,,,,0,513,,,,,,,,,,,,,,,,,U,181,triangle,1,0,,,,,,,,,,,,,,,,repeat,number,numRpt,k,1.351,noRew,,,,,,0,25,0,25,0,1,,,,,,,,,,,,,,,,,
294742,2022-12-06_05h51.15.915,vts_reward_expectancy_bt,2022.2.4,MacIntel,62.5,Safari,1512,982,,,,,0,513,,,,,,,,,,,,,,,,,F,132,star,1,0,,,,,,,,,,,,,,,,repeat,number,numRpt,j,1.993,noRew,,,,,,0,26,0,26,0,1,,,,,,,,,,,,,,,,,
294742,2022-12-06_05h51.15.915,vts_reward_expectancy_bt,2022.2.4,MacIntel,62.5,Safari,1512,982,,,,,0,513,,,,,,,,,,,,,,,,,W,125,triangle,0,0,,,,,,,,,,,,,,,,repeat,number,NA,k,0.754,noRew,,,,,,0,27,0,27,0,1,,,,,,,,,,,,,,,,,
294742,2022-12-06_05h51.15.915,vts_reward_expectancy_bt,2022.2.4,MacIntel,62.5,Safari,1512,982,,,,,0,513,,,,,,,,,,,,,,,,,Y,167,star,1,1,,,,,,,,,,,,,,,,repeat,number,numRpt,k,0.754,noRew,,,,,,0,28,0,28,0,1,,,,,,,,,,,,,,,,,
294742,2022-12-06_05h51.15.915,vts_reward_expectancy_bt,2022.2.4,MacIntel,62.5,Safari,1512,982,,,,,0,513,,,,,,,,,,,,,,,,,S,174,triangle,1,0,,,,,,,,,,,,,,,,repeat,number,numRpt,k,0.893,noRew,,,,,,0,29,0,29,0,1,,,,,,,,,,,,,,,,,
294742,2022-12-06_05h51.15.915,vts_reward_expectancy_bt,2022.2.4,MacIntel,62.5,Safari,1512,982,,,,,0,513,,,,,,,,,,,,,,,,,D,139,circle,1,0,,,,,,,,,,,,,,,,repeat,number,numRpt,j,2.052,noRew,,,,,,0,30,0,30,0,1,,,,,,,,,,,,,,,,,
294742,2022-12-06_05h51.15.915,vts_reward_expectancy_bt,2022.2.4,MacIntel,62.5,Safari,1512,982,,,,,0,513,,,,,,,,,,,,,,,,,F,132,star,1,0,,,,,,,,,,,,,,,,repeat,number,numRpt,j,0.933,noRew,,,,,,0,31,0,31,0,1,,,,,,,,,,,,,,,,,
294742,2022-12-06_05h51.15.915,vts_reward_expectancy_bt,2022.2.4,MacIntel,62.5,Safari,1512,982,,,,,0,513,,,,,,,,,,,,,,,,,S,146,star,1,0,,,,,,,,,,,,,,,,repeat,number,numRpt,j,0.467,noRew,,,,,,0,32,0,32,0,1,,,,,,,,,,,,,,,,,
294742,2022-12-06_05h51.15.915,vts_reward_expectancy_bt,2022.2.4,MacIntel,62.5,Safari,1512,982,,,,,0,513,,,,,,,,,,,,,,,,,H,174,circle,1,0,,,,,,,,,,,,,,,,repeat,number,numRpt,k,0.685,noRew,,,,,,0,33,0,33,0,1,,,,,,,,,,,,,,,,,
294742,2022-12-06_05h51.15.915,vts_reward_expectancy_bt,2022.2.4,MacIntel,62.5,Safari,1512,982,,,,,0,513,,,,,,,,,,,,,,,,,U,181,circle,1,0,,,,,,,,,,,,,,,,repeat,number,numRpt,k,0.802,noRew,,,,,,0,34,0,34,0,1,,,,,,,,,,,,,,,,,
294742,2022-12-06_05h51.15.915,vts_reward_expectancy_bt,2022.2.4,MacIntel,62.5,Safari,1512,982,,,,,0,513,,,,,,,,,,,,,,,,,D,160,hexagon,1,0,,,,,,,,,,,,,,,,repeat,number,numRpt,k,0.661,noRew,,,,,,0,35,0,35,0,1,,,,,,,,,,,,,,,,,
294742,2022-12-06_05h51.15.915,vts_reward_expectancy_bt,2022.2.4,MacIntel,62.5,Safari,1512,982,,,,,0,513,,,,,,,,,,,,,,,,,F,146,hexagon,1,0,,,,,,,,,,,,,,,,repeat,number,numRpt,j,0.744,noRew,,,,,,0,36,0,36,0,1,,,,,,,,,,,,,,,,,
294742,2022-12-06_05h51.15.915,vts_reward_expectancy_bt,2022.2.4,MacIntel,62.5,Safari,1512,982,,,,,0,513,,,,,,,,,,,,,,,,,D,139,star,1,0,,,,,,,,,,,,,,,,repeat,number,numRpt,j,0.827,noRew,,,,,,0,37,0,37,0,1,,,,,,,,,,,,,,,,,
294742,2022-12-06_05h51.15.915,vts_reward_expectancy_bt,2022.2.4,MacIntel,62.5,Safari,1512,982,,,,,0,513,,,,,,,,,,,,,,,,,H,160,triangle,-1,0,,,,,,,,,,,,,,,,switch,no_choice,NA,,,noRew,,,,,,0,38,0,38,0,1,,,,,,,,,,,,,,,,,
294742,2022-12-06_05h51.15.915,vts_reward_expectancy_bt,2022.2.4,MacIntel,62.5,Safari,1512,982,,,,,0,513,,,,,,,,,,,,,,,,,Y,125,star,1,0,,,,,,,,,,,,,,,,switch,number,numSwt,j,0.925,noRew,,,,,,0,39,0,39,0,1,,,,,,,,,,,,,,,,,
294742,2022-12-06_05h51.15.915,vts_reward_expectancy_bt,2022.2.4,MacIntel,62.5,Safari,1512,982,,,,,0,513,,,,,,,,,,,,,,,,,H,146,hexagon,1,0,,,,,,,,,,,,,,,,repeat,number,numRpt,j,0.709,noRew,,,,,,0,40,0,40,0,1,,,,,,,,,,,,,,,,,
294742,2022-12-06_05h51.15.915,vts_reward_expectancy_bt,2022.2.4,MacIntel,62.5,Safari,1512,982,,,,,0,513,,,,,,,,,,,,,,,,,W,174,circle,1,0,,,,,,,,,,,,,,,,repeat,number,numRpt,k,0.694,noRew,,,,,,0,41,0,41,0,1,,,,,,,,,,,,,,,,,
294742,2022-12-06_05h51.15.915,vts_reward_expectancy_bt,2022.2.4,MacIntel,62.5,Safari,1512,982,,,,,0,513,,,,,,,,,,,,,,,,,D,132,hexagon,1,0,,,,,,,,,,,,,,,,repeat,number,numRpt,j,0.86,noRew,,,,,,0,42,0,42,0,1,,,,,,,,,,,,,,,,,
294742,2022-12-06_05h51.15.915,vts_reward_expectancy_bt,2022.2.4,MacIntel,62.5,Safari,1512,982,,,,,0,513,,,,,,,,,,,,,,,,,F,160,triangle,1,0,,,,,,,,,,,,,,,,repeat,number,numRpt,k,0.791,noRew,,,,,,0,43,0,43,0,1,,,,,,,,,,,,,,,,,
294742,2022-12-06_05h51.15.915,vts_reward_expectancy_bt,2022.2.4,MacIntel,62.5,Safari,1512,982,,,,,0,513,,,,,,,,,,,,,,,,,U,125,hexagon,1,0,,,,,,,,,,,,,,,,repeat,number,numRpt,j,0.7,noRew,,,,,,0,44,0,44,0,1,,,,,,,,,,,,,,,,,
294742,2022-12-06_05h51.15.915,vts_reward_expectancy_bt,2022.2.4,MacIntel,62.5,Safari,1512,982,,,,,0,513,,,,,,,,,,,,,,,,,Y,132,circle,1,0,,,,,,,,,,,,,,,,repeat,number,numRpt,j,1.011,noRew,,,,,,0,45,0,45,0,1,,,,,,,,,,,,,,,,,
294742,2022-12-06_05h51.15.915,vts_reward_expectancy_bt,2022.2.4,MacIntel,62.5,Safari,1512,982,,,,,0,513,,,,,,,,,,,,,,,,,S,146,circle,1,0,,,,,,,,,,,,,,,,repeat,number,numRpt,j,1.01,noRew,,,,,,0,46,0,46,0,1,,,,,,,,,,,,,,,,,
294742,2022-12-06_05h51.15.915,vts_reward_expectancy_bt,2022.2.4,MacIntel,62.5,Safari,1512,982,,,,,0,513,,,,,,,,,,,,,,,,,W,174,triangle,1,0,,,,,,,,,,,,,,,,repeat,number,numRpt,k,0.746,noRew,,,,,,0,47,0,47,0,1,,,,,,,,,,,,,,,,,
294742,2022-12-06_05h51.15.915,vts_reward_expectancy_bt,2022.2.4,MacIntel,62.5,Safari,1512,982,,,,,0,513,,,,,,,,,,,,,,,,,Y,181,circle,1,0,,,,,,,,,,,,,,,,repeat,number,numRpt,k,0.771,noRew,,,,,,0,48,0,48,0,1,,,,,,,,,,,,,,,,,
294742,2022-12-06_05h51.15.915,vts_reward_expectancy_bt,2022.2.4,MacIntel,62.5,Safari,1512,982,,,,,0,513,,,,,,,,,,,,,,,,,F,146,triangle,1,0,,,,,,,,,,,,,,,,repeat,number,numRpt,j,2.584,noRew,,,,,,0,49,0,49,0,1,,,,,,,,,,,,,,,,,
294742,2022-12-06_05h51.15.915,vts_reward_expectancy_bt,2022.2.4,MacIntel,62.5,Safari,1512,982,,,,,0,513,,,,,,,,,,,,,,,,,B,132,triangle,1,0,,,,,,,,,,,,,,,,repeat,number,numRpt,j,1.801,noRew,,,,,,0,50,0,50,0,1,,,,,,,,,,,,,,,,,
294742,2022-12-06_05h51.15.915,vts_reward_expectancy_bt,2022.2.4,MacIntel,62.5,Safari,1512,982,,,,,0,513,,,,,,,,,,,,,,,,,S,174,circle,0,0,,,,,,,,,,,,,,,,repeat,number,NA,j,0.745,noRew,,,,,,0,51,0,51,0,1,,,,,,,,,,,,,,,,,
294742,2022-12-06_05h51.15.915,vts_reward_expectancy_bt,2022.2.4,MacIntel,62.5,Safari,1512,982,,,,,0,513,,,,,,,,,,,,,,,,,H,167,circle,0,1,,,,,,,,,,,,,,,,repeat,number,NA,j,1.129,noRew,,,,,,0,52,0,52,0,1,,,,,,,,,,,,,,,,,
294742,2022-12-06_05h51.15.915,vts_reward_expectancy_bt,2022.2.4,MacIntel,62.5,Safari,1512,982,,,,,0,513,,,,,,,,,,,,,,,,,B,125,hexagon,1,1,,,,,,,,,,,,,,,,repeat,number,numRpt,j,1.356,noRew,,,,,,0,53,0,53,0,1,,,,,,,,,,,,,,,,,
294742,2022-12-06_05h51.15.915,vts_reward_expectancy_bt,2022.2.4,MacIntel,62.5,Safari,1512,982,,,,,0,513,,,,,,,,,,,,,,,,,U,181,triangle,1,0,,,,,,,,,,,,,,,,repeat,number,numRpt,k,0.603,noRew,,,,,,0,54,0,54,0,1,,,,,,,,,,,,,,,,,
294742,2022-12-06_05h51.15.915,vts_reward_expectancy_bt,2022.2.4,MacIntel,62.5,Safari,1512,982,,,,,0,513,,,,,,,,,,,,,,,,,D,139,circle,1,0,,,,,,,,,,,,,,,,repeat,number,numRpt,j,0.695,noRew,,,,,,0,55,0,55,0,1,,,,,,,,,,,,,,,,,
294742,2022-12-06_05h51.15.915,vts_reward_expectancy_bt,2022.2.4,MacIntel,62.5,Safari,1512,982,,,,,0,513,,,,,,,,,,,,,,,,,S,132,hexagon,1,0,,,,,,,,,,,,,,,,repeat,number,numRpt,j,1.042,noRew,,,,,,0,56,0,56,0,1,,,,,,,,,,,,,,,,,
294742,2022-12-06_05h51.15.915,vts_reward_expectancy_bt,2022.2.4,MacIntel,62.5,Safari,1512,982,,,,,0,513,,,,,,,,,,,,,,,,,H,174,triangle,0,0,,,,,,,,,,,,,,,,repeat,number,NA,j,2.171,noRew,,,,,,0,57,0,57,0,1,,,,,,,,,,,,,,,,,
294742,2022-12-06_05h51.15.915,vts_reward_expectancy_bt,2022.2.4,MacIntel,62.5,Safari,1512,982,,,,,0,513,,,,,,,,,,,,,,,,,B,139,triangle,1,1,,,,,,,,,,,,,,,,repeat,number,numRpt,j,1.397,noRew,,,,,,0,58,0,58,0,1,,,,,,,,,,,,,,,,,
294742,2022-12-06_05h51.15.915,vts_reward_expectancy_bt,2022.2.4,MacIntel,62.5,Safari,1512,982,,,,,0,513,,,,,,,,,,,,,,,,,Y,160,star,1,0,,,,,,,,,,,,,,,,repeat,number,numRpt,k,0.815,noRew,,,,,,0,59,0,59,0,1,,,,,,,,,,,,,,,,,
294742,2022-12-06_05h51.15.915,vts_reward_expectancy_bt,2022.2.4,MacIntel,62.5,Safari,1512,982,,,,,0,513,,,,,,,,,,,,,,,,,B,181,star,0,0,,,,,,,,,,,,,,,,repeat,number,NA,j,0.859,noRew,,,,,,0,60,0,60,0,1,,,,,,,,,,,,,,,,,
294742,2022-12-06_05h51.15.915,vts_reward_expectancy_bt,2022.2.4,MacIntel,62.5,Safari,1512,982,,,,,0,513,,,,,,,,,,,,,,,,,H,160,circle,1,1,,,,,,,,,,,,,,,,repeat,number,numRpt,k,0.796,noRew,,,,,,0,61,0,61,0,1,,,,,,,,,,,,,,,,,
294742,2022-12-06_05h51.15.915,vts_reward_expectancy_bt,2022.2.4,MacIntel,62.5,Safari,1512,982,,,,,0,513,,,,,,,,,,,,,,,,,W,125,star,1,0,,,,,,,,,,,,,,,,repeat,number,numRpt,j,0.712,noRew,,,,,,0,62,0,62,0,1,,,,,,,,,,,,,,,,,
294742,2022-12-06_05h51.15.915,vts_reward_expectancy_bt,2022.2.4,MacIntel,62.5,Safari,1512,982,,,,,0,513,,,,,,,,,,,,,,,,,U,167,circle,1,0,,,,,,,,,,,,,,,,repeat,number,numRpt,k,1.012,noRew,,,,,,0,63,0,63,0,1,,,,,,,,,,,,,,,,,
294742,2022-12-06_05h51.15.915,vts_reward_expectancy_bt,2022.2.4,MacIntel,62.5,Safari,1512,982,,,,,,,,,,,,,,,,,,,,,,,,,,,,,,,,,,,,,,,,,,,,,,,,,,,,,,,,,,,,,,,,,,,,,,,,,,,,
294742,2022-12-06_05h51.15.915,vts_reward_expectancy_bt,2022.2.4,MacIntel,62.5,Safari,1512,982,,,,,1,514,,,,,,,,,,,,,,,,,H,132,triangle,1,0,,,,,,,,,,,,,,,,repeat,number,numRpt,j,0.443,Lo,,,,,,0,,,,,,space,22.282,low,0,0,0,0,1,,,,,,,,,
294742,2022-12-06_05h51.15.915,vts_reward_expectancy_bt,2022.2.4,MacIntel,62.5,Safari,1512,982,,,,,0,514,,,,,,,,,,,,,,,,,U,146,circle,1,0,,,,,,,,,,,,,,,,switch,letter,lettSwt,f,1.318,Hi,,,,,,0,,,,,,,,low,1,0,1,0,1,,,,,,,,,
294742,2022-12-06_05h51.15.915,vts_reward_expectancy_bt,2022.2.4,MacIntel,62.5,Safari,1512,982,,,,,10,524,,,,,,,,,,,,,,,,,Y,174,star,1,0,,,,,,,,,,,,,,,,repeat,letter,lettRpt,f,1.179,Lo,,,,,,0,,,,,,,,low,2,0,2,0,1,,,,,,,,,
294742,2022-12-06_05h51.15.915,vts_reward_expectancy_bt,2022.2.4,MacIntel,62.5,Safari,1512,982,,,,,0,524,,,,,,,,,,,,,,,,,F,139,hexagon,0,0,,,,,,,,,,,,,,,,repeat,letter,NA,f,0.278,Lo,,,,,,0,,,,,,,,low,3,0,3,0,1,,,,,,,,,
294742,2022-12-06_05h51.15.915,vts_reward_expectancy_bt,2022.2.4,MacIntel,62.5,Safari,1512,982,,,,,1,525,,,,,,,,,,,,,,,,,S,160,triangle,1,1,,,,,,,,,,,,,,,,repeat,letter,lettRpt,f,1.394,Lo,,,,,,0,,,,,,,,low,4,0,4,0,1,,,,,,,,,
294742,2022-12-06_05h51.15.915,vts_reward_expectancy_bt,2022.2.4,MacIntel,62.5,Safari,1512,982,,,,,10,535,,,,,,,,,,,,,,,,,W,167,circle,1,0,,,,,,,,,,,,,,,,repeat,letter,lettRpt,f,1.051,Hi,,,,,,0,,,,,,,,low,5,0,5,0,1,,,,,,,,,
294742,2022-12-06_05h51.15.915,vts_reward_expectancy_bt,2022.2.4,MacIntel,62.5,Safari,1512,982,,,,,10,545,,,,,,,,,,,,,,,,,B,181,star,1,0,,,,,,,,,,,,,,,,repeat,letter,lettRpt,d,0.588,Lo,,,,,,0,,,,,,,,low,6,0,6,0,1,,,,,,,,,
294742,2022-12-06_05h51.15.915,vts_reward_expectancy_bt,2022.2.4,MacIntel,62.5,Safari,1512,982,,,,,0,545,,,,,,,,,,,,,,,,,D,125,hexagon,0,0,,,,,,,,,,,,,,,,repeat,letter,NA,f,0.909,Lo,,,,,,0,,,,,,,,low,7,0,7,0,1,,,,,,,,,
294742,2022-12-06_05h51.15.915,vts_reward_expectancy_bt,2022.2.4,MacIntel,62.5,Safari,1512,982,,,,,1,546,,,,,,,,,,,,,,,,,H,132,circle,1,1,,,,,,,,,,,,,,,,repeat,letter,lettRpt,d,0.557,Hi,,,,,,0,,,,,,,,low,8,0,8,0,1,,,,,,,,,
294742,2022-12-06_05h51.15.915,vts_reward_expectancy_bt,2022.2.4,MacIntel,62.5,Safari,1512,982,,,,,0,546,,,,,,,,,,,,,,,,,U,146,hexagon,0,0,,,,,,,,,,,,,,,,repeat,letter,NA,d,0.961,Hi,,,,,,0,,,,,,,,low,9,0,9,0,1,,,,,,,,,
294742,2022-12-06_05h51.15.915,vts_reward_expectancy_bt,2022.2.4,MacIntel,62.5,Safari,1512,982,,,,,1,547,,,,,,,,,,,,,,,,,Y,174,star,1,1,,,,,,,,,,,,,,,,repeat,letter,lettRpt,f,0.644,Lo,,,,,,0,,,,,,,,low,10,0,10,0,1,,,,,,,,,
294742,2022-12-06_05h51.15.915,vts_reward_expectancy_bt,2022.2.4,MacIntel,62.5,Safari,1512,982,,,,,0,547,,,,,,,,,,,,,,,,,F,139,triangle,0,0,,,,,,,,,,,,,,,,repeat,letter,NA,f,1.107,Lo,,,,,,0,,,,,,,,low,11,0,11,0,1,,,,,,,,,
294742,2022-12-06_05h51.15.915,vts_reward_expectancy_bt,2022.2.4,MacIntel,62.5,Safari,1512,982,,,,,10,557,,,,,,,,,,,,,,,,,S,160,hexagon,1,1,,,,,,,,,,,,,,,,repeat,letter,lettRpt,f,1.11,Hi,,,,,,0,,,,,,,,low,12,0,12,0,1,,,,,,,,,
294742,2022-12-06_05h51.15.915,vts_reward_expectancy_bt,2022.2.4,MacIntel,62.5,Safari,1512,982,,,,,0,557,,,,,,,,,,,,,,,,,W,167,triangle,0,0,,,,,,,,,,,,,,,,repeat,letter,NA,d,1.129,Hi,,,,,,0,,,,,,,,low,13,0,13,0,1,,,,,,,,,
294742,2022-12-06_05h51.15.915,vts_reward_expectancy_bt,2022.2.4,MacIntel,62.5,Safari,1512,982,,,,,10,567,,,,,,,,,,,,,,,,,B,181,circle,1,1,,,,,,,,,,,,,,,,repeat,letter,lettRpt,d,0.943,Hi,,,,,,0,,,,,,,,low,14,0,14,0,1,,,,,,,,,
294742,2022-12-06_05h51.15.915,vts_reward_expectancy_bt,2022.2.4,MacIntel,62.5,Safari,1512,982,,,,,10,577,,,,,,,,,,,,,,,,,D,125,star,1,0,,,,,,,,,,,,,,,,repeat,letter,lettRpt,d,0.939,Lo,,,,,,0,,,,,,,,low,15,0,15,0,1,,,,,,,,,
294742,2022-12-06_05h51.15.915,vts_reward_expectancy_bt,2022.2.4,MacIntel,62.5,Safari,1512,982,,,,,10,587,,,,,,,,,,,,,,,,,W,160,circle,1,0,,,,,,,,,,,,,,,,repeat,letter,lettRpt,f,1.044,Hi,,,,,,0,,,,,,,,low,16,0,16,0,1,,,,,,,,,
294742,2022-12-06_05h51.15.915,vts_reward_expectancy_bt,2022.2.4,MacIntel,62.5,Safari,1512,982,,,,,10,597,,,,,,,,,,,,,,,,,Y,132,hexagon,1,0,,,,,,,,,,,,,,,,repeat,letter,lettRpt,f,1.137,Hi,,,,,,0,,,,,,,,low,17,0,17,0,1,,,,,,,,,
294742,2022-12-06_05h51.15.915,vts_reward_expectancy_bt,2022.2.4,MacIntel,62.5,Safari,1512,982,,,,,0,597,,,,,,,,,,,,,,,,,U,139,triangle,0,0,,,,,,,,,,,,,,,,repeat,letter,NA,d,0.791,Hi,,,,,,0,,,,,,,,low,18,0,18,0,1,,,,,,,,,
294742,2022-12-06_05h51.15.915,vts_reward_expectancy_bt,2022.2.4,MacIntel,62.5,Safari,1512,982,,,,,1,598,,,,,,,,,,,,,,,,,F,146,star,1,1,,,,,,,,,,,,,,,,repeat,letter,lettRpt,d,0.971,Lo,,,,,,0,,,,,,,,low,19,0,19,0,1,,,,,,,,,
294742,2022-12-06_05h51.15.915,vts_reward_expectancy_bt,2022.2.4,MacIntel,62.5,Safari,1512,982,,,,,0,598,,,,,,,,,,,,,,,,,S,181,triangle,0,0,,,,,,,,,,,,,,,,repeat,letter,NA,d,0.87,Lo,,,,,,0,,,,,,,,low,20,0,20,0,1,,,,,,,,,
294742,2022-12-06_05h51.15.915,vts_reward_expectancy_bt,2022.2.4,MacIntel,62.5,Safari,1512,982,,,,,0,598,,,,,,,,,,,,,,,,,H,125,circle,1,1,,,,,,,,,,,,,,,,switch,number,numSwt,j,1.092,Hi,,,,,,0,,,,,,,,low,21,0,21,0,1,,,,,,,,,
294742,2022-12-06_05h51.15.915,vts_reward_expectancy_bt,2022.2.4,MacIntel,62.5,Safari,1512,982,,,,,1,599,,,,,,,,,,,,,,,,,B,174,star,1,0,,,,,,,,,,,,,,,,switch,letter,lettSwt,d,0.75,Lo,,,,,,0,,,,,,,,low,22,0,22,0,1,,,,,,,,,
294742,2022-12-06_05h51.15.915,vts_reward_expectancy_bt,2022.2.4,MacIntel,62.5,Safari,1512,982,,,,,10,609,,,,,,,,,,,,,,,,,D,167,hexagon,1,0,,,,,,,,,,,,,,,,repeat,letter,lettRpt,d,1.026,Hi,,,,,,0,,,,,,,,low,23,0,23,0,1,,,,,,,,,
294742,2022-12-06_05h51.15.915,vts_reward_expectancy_bt,2022.2.4,MacIntel,62.5,Safari,1512,982,,,,,10,619,,,,,,,,,,,,,,,,,B,146,star,1,0,,,,,,,,,,,,,,,,repeat,letter,lettRpt,d,0.927,Lo,,,,,,0,,,,,,,,low,24,0,24,0,1,,,,,,,,,
294742,2022-12-06_05h51.15.915,vts_reward_expectancy_bt,2022.2.4,MacIntel,62.5,Safari,1512,982,,,,,10,629,,,,,,,,,,,,,,,,,Y,160,hexagon,1,0,,,,,,,,,,,,,,,,switch,number,numSwt,k,0.848,Hi,,,,,,0,,,,,,,,low,25,0,25,0,1,,,,,,,,,
294742,2022-12-06_05h51.15.915,vts_reward_expectancy_bt,2022.2.4,MacIntel,62.5,Safari,1512,982,,,,,0,629,,,,,,,,,,,,,,,,,W,125,circle,1,0,,,,,,,,,,,,,,,,switch,letter,lettSwt,f,0.86,Hi,,,,,,0,,,,,,,,low,26,0,26,0,1,,,,,,,,,
294742,2022-12-06_05h51.15.915,vts_reward_expectancy_bt,2022.2.4,MacIntel,62.5,Safari,1512,982,,,,,0,629,,,,,,,,,,,,,,,,,S,132,triangle,0,0,,,,,,,,,,,,,,,,repeat,letter,NA,d,0.771,Hi,,,,,,0,,,,,,,,low,27,0,27,0,1,,,,,,,,,
294742,2022-12-06_05h51.15.915,vts_reward_expectancy_bt,2022.2.4,MacIntel,62.5,Safari,1512,982,,,,,10,639,,,,,,,,,,,,,,,,,H,181,circle,1,1,,,,,,,,,,,,,,,,repeat,letter,lettRpt,d,0.667,Hi,,,,,,0,,,,,,,,low,28,0,28,0,1,,,,,,,,,
294742,2022-12-06_05h51.15.915,vts_reward_expectancy_bt,2022.2.4,MacIntel,62.5,Safari,1512,982,,,,,1,640,,,,,,,,,,,,,,,,,F,139,hexagon,1,0,,,,,,,,,,,,,,,,repeat,letter,lettRpt,d,0.954,Hi,,,,,,0,,,,,,,,low,29,0,29,0,1,,,,,,,,,
294742,2022-12-06_05h51.15.915,vts_reward_expectancy_bt,2022.2.4,MacIntel,62.5,Safari,1512,982,,,,,10,650,,,,,,,,,,,,,,,,,D,174,star,1,0,,,,,,,,,,,,,,,,repeat,letter,lettRpt,d,1.136,Lo,,,,,,0,,,,,,,,low,30,0,30,0,1,,,,,,,,,
294742,2022-12-06_05h51.15.915,vts_reward_expectancy_bt,2022.2.4,MacIntel,62.5,Safari,1512,982,,,,,1,651,,,,,,,,,,,,,,,,,U,167,triangle,1,0,,,,,,,,,,,,,,,,repeat,letter,lettRpt,f,1.133,Lo,,,,,,0,,,,,,,,low,31,0,31,0,1,,,,,,,,,
294742,2022-12-06_05h51.15.915,vts_reward_expectancy_bt,2022.2.4,MacIntel,62.5,Safari,1512,982,,,,,1,652,,,,,,,,,,,,,,,,,W,160,triangle,1,0,,,,,,,,,,,,,,,,switch,number,numSwt,k,0.811,Lo,,,,,,1,,,,,,space,28.362,low,0,0,0,0,1,,,,,,,,,
294742,2022-12-06_05h51.15.915,vts_reward_expectancy_bt,2022.2.4,MacIntel,62.5,Safari,1512,982,,,,,0,652,,,,,,,,,,,,,,,,,D,174,circle,1,0,,,,,,,,,,,,,,,,switch,letter,lettSwt,d,1.067,Hi,,,,,,1,,,,,,,,low,1,0,1,0,1,,,,,,,,,
294742,2022-12-06_05h51.15.915,vts_reward_expectancy_bt,2022.2.4,MacIntel,62.5,Safari,1512,982,,,,,1,653,,,,,,,,,,,,,,,,,S,181,hexagon,1,0,,,,,,,,,,,,,,,,repeat,letter,lettRpt,f,0.56,Hi,,,,,,1,,,,,,,,low,2,0,2,0,1,,,,,,,,,
294742,2022-12-06_05h51.15.915,vts_reward_expectancy_bt,2022.2.4,MacIntel,62.5,Safari,1512,982,,,,,10,663,,,,,,,,,,,,,,,,,H,139,star,1,0,,,,,,,,,,,,,,,,switch,number,numSwt,j,1.094,Lo,,,,,,1,,,,,,,,low,3,0,3,0,1,,,,,,,,,
294742,2022-12-06_05h51.15.915,vts_reward_expectancy_bt,2022.2.4,MacIntel,62.5,Safari,1512,982,,,,,10,673,,,,,,,,,,,,,,,,,Y,146,triangle,1,0,,,,,,,,,,,,,,,,switch,letter,lettSwt,f,0.909,Lo,,,,,,1,,,,,,,,low,4,0,4,0,1,,,,,,,,,
294742,2022-12-06_05h51.15.915,vts_reward_expectancy_bt,2022.2.4,MacIntel,62.5,Safari,1512,982,,,,,0,673,,,,,,,,,,,,,,,,,F,125,circle,1,0,,,,,,,,,,,,,,,,repeat,letter,lettRpt,d,1,Hi,,,,,,1,,,,,,,,low,5,0,5,0,1,,,,,,,,,
294742,2022-12-06_05h51.15.915,vts_reward_expectancy_bt,2022.2.4,MacIntel,62.5,Safari,1512,982,,,,,1,674,,,,,,,,,,,,,,,,,U,167,hexagon,1,0,,,,,,,,,,,,,,,,repeat,letter,lettRpt,f,0.77,Hi,,,,,,1,,,,,,,,low,6,0,6,0,1,,,,,,,,,
294742,2022-12-06_05h51.15.915,vts_reward_expectancy_bt,2022.2.4,MacIntel,62.5,Safari,1512,982,,,,,0,674,,,,,,,,,,,,,,,,,B,132,star,0,0,,,,,,,,,,,,,,,,repeat,letter,NA,f,0.976,Hi,,,,,,1,,,,,,,,low,7,0,7,0,1,,,,,,,,,
294742,2022-12-06_05h51.15.915,vts_reward_expectancy_bt,2022.2.4,MacIntel,62.5,Safari,1512,982,,,,,0,674,,,,,,,,,,,,,,,,,W,160,circle,0,1,,,,,,,,,,,,,,,,repeat,letter,NA,d,1.237,Hi,,,,,,1,,,,,,,,low,8,0,8,0,1,,,,,,,,,
294742,2022-12-06_05h51.15.915,vts_reward_expectancy_bt,2022.2.4,MacIntel,62.5,Safari,1512,982,,,,,0,674,,,,,,,,,,,,,,,,,D,174,star,0,1,,,,,,,,,,,,,,,,switch,number,NA,j,0.261,Hi,,,,,,1,,,,,,,,low,9,0,9,0,1,,,,,,,,,
294742,2022-12-06_05h51.15.915,vts_reward_expectancy_bt,2022.2.4,MacIntel,62.5,Safari,1512,982,,,,,1,675,,,,,,,,,,,,,,,,,S,181,hexagon,1,1,,,,,,,,,,,,,,,,switch,letter,lettSwt,f,0.309,Hi,,,,,,1,,,,,,,,low,10,0,10,0,1,,,,,,,,,
294742,2022-12-06_05h51.15.915,vts_reward_expectancy_bt,2022.2.4,MacIntel,62.5,Safari,1512,982,,,,,0,675,,,,,,,,,,,,,,,,,H,139,triangle,0,0,,,,,,,,,,,,,,,,switch,number,NA,k,0.138,Hi,,,,,,1,,,,,,,,low,11,0,11,0,1,,,,,,,,,
294742,2022-12-06_05h51.15.915,vts_reward_expectancy_bt,2022.2.4,MacIntel,62.5,Safari,1512,982,,,,,1,676,,,,,,,,,,,,,,,,,Y,146,circle,1,1,,,,,,,,,,,,,,,,switch,letter,lettSwt,f,0.526,Hi,,,,,,1,,,,,,,,low,12,0,12,0,1,,,,,,,,,
294742,2022-12-06_05h51.15.915,vts_reward_expectancy_bt,2022.2.4,MacIntel,62.5,Safari,1512,982,,,,,1,677,,,,,,,,,,,,,,,,,F,125,hexagon,1,0,,,,,,,,,,,,,,,,switch,number,numSwt,j,0.753,Hi,,,,,,1,,,,,,,,low,13,0,13,0,1,,,,,,,,,
294742,2022-12-06_05h51.15.915,vts_reward_expectancy_bt,2022.2.4,MacIntel,62.5,Safari,1512,982,,,,,10,687,,,,,,,,,,,,,,,,,U,167,triangle,1,0,,,,,,,,,,,,,,,,switch,letter,lettSwt,f,0.86,Lo,,,,,,1,,,,,,,,low,14,0,14,0,1,,,,,,,,,
294742,2022-12-06_05h51.15.915,vts_reward_expectancy_bt,2022.2.4,MacIntel,62.5,Safari,1512,982,,,,,0,687,,,,,,,,,,,,,,,,,B,132,star,0,0,,,,,,,,,,,,,,,,repeat,letter,NA,f,0.865,Lo,,,,,,1,,,,,,,,low,15,0,15,0,1,,,,,,,,,
294742,2022-12-06_05h51.15.915,vts_reward_expectancy_bt,2022.2.4,MacIntel,62.5,Safari,1512,982,,,,,1,688,,,,,,,,,,,,,,,,,Y,125,star,1,1,,,,,,,,,,,,,,,,repeat,letter,lettRpt,f,0.527,Lo,,,,,,1,,,,,,,,low,16,0,16,0,1,,,,,,,,,
294742,2022-12-06_05h51.15.915,vts_reward_expectancy_bt,2022.2.4,MacIntel,62.5,Safari,1512,982,,,,,0,688,,,,,,,,,,,,,,,,,W,167,hexagon,1,0,,,,,,,,,,,,,,,,repeat,letter,lettRpt,f,1.427,Hi,,,,,,1,,,,,,,,low,17,0,17,0,1,,,,,,,,,
294742,2022-12-06_05h51.15.915,vts_reward_expectancy_bt,2022.2.4,MacIntel,62.5,Safari,1512,982,,,,,10,698,,,,,,,,,,,,,,,,,B,160,triangle,1,0,,,,,,,,,,,,,,,,repeat,letter,lettRpt,d,0.759,Lo,,,,,,1,,,,,,,,low,18,0,18,0,1,,,,,,,,,
294742,2022-12-06_05h51.15.915,vts_reward_expectancy_bt,2022.2.4,MacIntel,62.5,Safari,1512,982,,,,,0,698,,,,,,,,,,,,,,,,,H,146,circle,1,0,,,,,,,,,,,,,,,,switch,number,numSwt,j,1.195,Hi,,,,,,1,,,,,,,,low,19,0,19,0,1,,,,,,,,,
294742,2022-12-06_05h51.15.915,vts_reward_expectancy_bt,2022.2.4,MacIntel,62.5,Safari,1512,982,,,,,0,698,,,,,,,,,,,,,,,,,F,132,hexagon,0,0,,,,,,,,,,,,,,,,switch,letter,NA,f,0.862,Hi,,,,,,1,,,,,,,,low,20,0,20,0,1,,,,,,,,,
294742,2022-12-06_05h51.15.915,vts_reward_expectancy_bt,2022.2.4,MacIntel,62.5,Safari,1512,982,,,,,1,699,,,,,,,,,,,,,,,,,U,174,triangle,1,1,,,,,,,,,,,,,,,,repeat,letter,lettRpt,f,0.918,Lo,,,,,,1,,,,,,,,low,21,0,21,0,1,,,,,,,,,
294742,2022-12-06_05h51.15.915,vts_reward_expectancy_bt,2022.2.4,MacIntel,62.5,Safari,1512,982,,,,,0,699,,,,,,,,,,,,,,,,,D,181,star,0,0,,,,,,,,,,,,,,,,switch,number,NA,j,0.769,Lo,,,,,,1,,,,,,,,low,22,0,22,0,1,,,,,,,,,
294742,2022-12-06_05h51.15.915,vts_reward_expectancy_bt,2022.2.4,MacIntel,62.5,Safari,1512,982,,,,,0,699,,,,,,,,,,,,,,,,,S,139,circle,1,1,,,,,,,,,,,,,,,,switch,letter,lettSwt,f,0.911,Hi,,,,,,1,,,,,,,,low,23,0,23,0,1,,,,,,,,,
294742,2022-12-06_05h51.15.915,vts_reward_expectancy_bt,2022.2.4,MacIntel,62.5,Safari,1512,982,,,,,1,700,,,,,,,,,,,,,,,,,S,146,triangle,1,0,,,,,,,,,,,,,,,,switch,number,numSwt,j,0.612,Lo,,,,,,1,,,,,,,,low,24,0,24,0,1,,,,,,,,,
294742,2022-12-06_05h51.15.915,vts_reward_expectancy_bt,2022.2.4,MacIntel,62.5,Safari,1512,982,,,,,1,701,,,,,,,,,,,,,,,,,Y,181,circle,1,0,,,,,,,,,,,,,,,,switch,letter,lettSwt,f,0.762,Hi,,,,,,1,,,,,,,,low,25,0,25,0,1,,,,,,,,,
294742,2022-12-06_05h51.15.915,vts_reward_expectancy_bt,2022.2.4,MacIntel,62.5,Safari,1512,982,,,,,10,711,,,,,,,,,,,,,,,,,B,167,star,1,0,,,,,,,,,,,,,,,,repeat,letter,lettRpt,d,0.517,Lo,,,,,,1,,,,,,,,low,26,0,26,0,1,,,,,,,,,
294742,2022-12-06_05h51.15.915,vts_reward_expectancy_bt,2022.2.4,MacIntel,62.5,Safari,1512,982,,,,,10,721,,,,,,,,,,,,,,,,,U,132,hexagon,1,0,,,,,,,,,,,,,,,,switch,number,numSwt,j,0.793,Hi,,,,,,1,,,,,,,,low,27,0,27,0,1,,,,,,,,,
294742,2022-12-06_05h51.15.915,vts_reward_expectancy_bt,2022.2.4,MacIntel,62.5,Safari,1512,982,,,,,0,721,,,,,,,,,,,,,,,,,F,160,circle,1,0,,,,,,,,,,,,,,,,switch,letter,lettSwt,d,1.097,Hi,,,,,,1,,,,,,,,low,28,0,28,0,1,,,,,,,,,
294742,2022-12-06_05h51.15.915,vts_reward_expectancy_bt,2022.2.4,MacIntel,62.5,Safari,1512,982,,,,,1,722,,,,,,,,,,,,,,,,,D,139,hexagon,1,0,,,,,,,,,,,,,,,,repeat,letter,lettRpt,d,0.91,Hi,,,,,,1,,,,,,,,low,29,0,29,0,1,,,,,,,,,
294742,2022-12-06_05h51.15.915,vts_reward_expectancy_bt,2022.2.4,MacIntel,62.5,Safari,1512,982,,,,,1,723,,,,,,,,,,,,,,,,,H,174,triangle,1,0,,,,,,,,,,,,,,,,switch,number,numSwt,k,1.079,Lo,,,,,,1,,,,,,,,low,30,0,30,0,1,,,,,,,,,
294742,2022-12-06_05h51.15.915,vts_reward_expectancy_bt,2022.2.4,MacIntel,62.5,Safari,1512,982,,,,,1,724,,,,,,,,,,,,,,,,,W,125,star,1,0,,,,,,,,,,,,,,,,switch,letter,lettSwt,f,0.86,Lo,,,,,,1,,,,,,,,low,31,0,31,0,1,,,,,,,,,
294742,2022-12-06_05h51.15.915,vts_reward_expectancy_bt,2022.2.4,MacIntel,62.5,Safari,1512,982,,,,,1,725,,,,,,,,,,,,,,,,,D,125,star,1,0,,,,,,,,,,,,,,,,repeat,letter,lettRpt,d,0.728,Lo,,,,,,2,,,,,,space,1.804,low,0,0,0,0,1,,,,,,,,,
294742,2022-12-06_05h51.15.915,vts_reward_expectancy_bt,2022.2.4,MacIntel,62.5,Safari,1512,982,,,,,0,725,,,,,,,,,,,,,,,,,F,160,circle,1,0,,,,,,,,,,,,,,,,repeat,letter,lettRpt,d,0.787,Hi,,,,,,2,,,,,,,,low,1,0,1,0,1,,,,,,,,,
294742,2022-12-06_05h51.15.915,vts_reward_expectancy_bt,2022.2.4,MacIntel,62.5,Safari,1512,982,,,,,1,726,,,,,,,,,,,,,,,,,S,167,triangle,1,0,,,,,,,,,,,,,,,,repeat,letter,lettRpt,f,1.02,Lo,,,,,,2,,,,,,,,low,2,0,2,0,1,,,,,,,,,
294742,2022-12-06_05h51.15.915,vts_reward_expectancy_bt,2022.2.4,MacIntel,62.5,Safari,1512,982,,,,,0,726,,,,,,,,,,,,,,,,,U,146,hexagon,0,0,,,,,,,,,,,,,,,,repeat,letter,NA,d,1.219,Lo,,,,,,2,,,,,,,,low,3,0,3,0,1,,,,,,,,,
294742,2022-12-06_05h51.15.915,vts_reward_expectancy_bt,2022.2.4,MacIntel,62.5,Safari,1512,982,,,,,0,726,,,,,,,,,,,,,,,,,B,132,star,0,1,,,,,,,,,,,,,,,,switch,number,NA,k,0.855,Lo,,,,,,2,,,,,,,,low,4,0,4,0,1,,,,,,,,,
294742,2022-12-06_05h51.15.915,vts_reward_expectancy_bt,2022.2.4,MacIntel,62.5,Safari,1512,982,,,,,0,726,,,,,,,,,,,,,,,,,H,181,circle,0,1,,,,,,,,,,,,,,,,switch,letter,NA,f,1.41,Lo,,,,,,2,,,,,,,,low,5,0,5,0,1,,,,,,,,,
294742,2022-12-06_05h51.15.915,vts_reward_expectancy_bt,2022.2.4,MacIntel,62.5,Safari,1512,982,,,,,10,736,,,,,,,,,,,,,,,,,Y,139,triangle,1,1,,,,,,,,,,,,,,,,repeat,letter,lettRpt,f,0.642,Lo,,,,,,2,,,,,,,,low,6,0,6,0,1,,,,,,,,,
294742,2022-12-06_05h51.15.915,vts_reward_expectancy_bt,2022.2.4,MacIntel,62.5,Safari,1512,982,,,,,0,736,,,,,,,,,,,,,,,,,W,174,hexagon,1,0,,,,,,,,,,,,,,,,repeat,letter,lettRpt,f,1.198,Hi,,,,,,2,,,,,,,,low,7,0,7,0,1,,,,,,,,,
294742,2022-12-06_05h51.15.915,vts_reward_expectancy_bt,2022.2.4,MacIntel,62.5,Safari,1512,982,,,,,1,737,,,,,,,,,,,,,,,,,D,125,star,1,0,,,,,,,,,,,,,,,,repeat,letter,lettRpt,d,0.593,Lo,,,,,,2,,,,,,,,low,8,0,8,0,1,,,,,,,,,
294742,2022-12-06_05h51.15.915,vts_reward_expectancy_bt,2022.2.4,MacIntel,62.5,Safari,1512,982,,,,,10,747,,,,,,,,,,,,,,,,,F,160,circle,1,0,,,,,,,,,,,,,,,,repeat,letter,lettRpt,d,0.66,Hi,,,,,,2,,,,,,,,low,9,0,9,0,1,,,,,,,,,
294742,2022-12-06_05h51.15.915,vts_reward_expectancy_bt,2022.2.4,MacIntel,62.5,Safari,1512,982,,,,,0,747,,,,,,,,,,,,,,,,,S,167,hexagon,1,0,,,,,,,,,,,,,,,,repeat,letter,lettRpt,f,1.382,Hi,,,,,,2,,,,,,,,low,10,0,10,0,1,,,,,,,,,
294742,2022-12-06_05h51.15.915,vts_reward_expectancy_bt,2022.2.4,MacIntel,62.5,Safari,1512,982,,,,,10,757,,,,,,,,,,,,,,,,,U,146,triangle,1,0,,,,,,,,,,,,,,,,repeat,letter,lettRpt,f,0.928,Lo,,,,,,2,,,,,,,,low,11,0,11,0,1,,,,,,,,,
294742,2022-12-06_05h51.15.915,vts_reward_expectancy_bt,2022.2.4,MacIntel,62.5,Safari,1512,982,,,,,1,758,,,,,,,,,,,,,,,,,B,132,triangle,1,0,,,,,,,,,,,,,,,,switch,number,numSwt,j,1.183,Lo,,,,,,2,,,,,,,,low,12,0,12,0,1,,,,,,,,,
294742,2022-12-06_05h51.15.915,vts_reward_expectancy_bt,2022.2.4,MacIntel,62.5,Safari,1512,982,,,,,0,758,,,,,,,,,,,,,,,,,H,181,hexagon,0,0,,,,,,,,,,,,,,,,switch,letter,NA,f,1.277,Lo,,,,,,2,,,,,,,,low,13,0,13,0,1,,,,,,,,,
294742,2022-12-06_05h51.15.915,vts_reward_expectancy_bt,2022.2.4,MacIntel,62.5,Safari,1512,982,,,,,0,758,,,,,,,,,,,,,,,,,Y,139,circle,0,1,,,,,,,,,,,,,,,,repeat,letter,NA,d,1.677,Lo,,,,,,2,,,,,,,,low,14,0,14,0,1,,,,,,,,,
294742,2022-12-06_05h51.15.915,vts_reward_expectancy_bt,2022.2.4,MacIntel,62.5,Safari,1512,982,,,,,0,758,,,,,,,,,,,,,,,,,W,174,star,0,1,,,,,,,,,,,,,,,,switch,number,NA,j,0.811,Lo,,,,,,2,,,,,,,,low,15,0,15,0,1,,,,,,,,,
294742,2022-12-06_05h51.15.915,vts_reward_expectancy_bt,2022.2.4,MacIntel,62.5,Safari,1512,982,,,,,1,759,,,,,,,,,,,,,,,,,S,132,hexagon,1,1,,,,,,,,,,,,,,,,switch,letter,lettSwt,f,0.709,Hi,,,,,,2,,,,,,,,low,16,0,16,0,1,,,,,,,,,
294742,2022-12-06_05h51.15.915,vts_reward_expectancy_bt,2022.2.4,MacIntel,62.5,Safari,1512,982,,,,,10,769,,,,,,,,,,,,,,,,,W,160,triangle,1,0,,,,,,,,,,,,,,,,repeat,letter,lettRpt,f,1.376,Lo,,,,,,2,,,,,,,,low,17,0,17,0,1,,,,,,,,,
294742,2022-12-06_05h51.15.915,vts_reward_expectancy_bt,2022.2.4,MacIntel,62.5,Safari,1512,982,,,,,1,770,,,,,,,,,,,,,,,,,H,125,star,1,0,,,,,,,,,,,,,,,,switch,number,numSwt,j,1.205,Lo,,,,,,2,,,,,,,,low,18,0,18,0,1,,,,,,,,,
294742,2022-12-06_05h51.15.915,vts_reward_expectancy_bt,2022.2.4,MacIntel,62.5,Safari,1512,982,,,,,1,771,,,,,,,,,,,,,,,,,Y,146,circle,1,0,,,,,,,,,,,,,,,,repeat,number,numRpt,j,1.232,Hi,,,,,,2,,,,,,,,low,19,0,19,0,1,,,,,,,,,
294742,2022-12-06_05h51.15.915,vts_reward_expectancy_bt,2022.2.4,MacIntel,62.5,Safari,1512,982,,,,,10,781,,,,,,,,,,,,,,,,,U,139,triangle,1,0,,,,,,,,,,,,,,,,repeat,number,numRpt,j,1.179,Lo,,,,,,2,,,,,,,,low,20,0,20,0,1,,,,,,,,,
294742,2022-12-06_05h51.15.915,vts_reward_expectancy_bt,2022.2.4,MacIntel,62.5,Safari,1512,982,,,,,10,791,,,,,,,,,,,,,,,,,B,174,circle,1,0,,,,,,,,,,,,,,,,switch,letter,lettSwt,d,0.689,Hi,,,,,,2,,,,,,,,low,21,0,21,0,1,,,,,,,,,
294742,2022-12-06_05h51.15.915,vts_reward_expectancy_bt,2022.2.4,MacIntel,62.5,Safari,1512,982,,,,,1,792,,,,,,,,,,,,,,,,,D,181,star,1,0,,,,,,,,,,,,,,,,repeat,letter,lettRpt,d,1.327,Lo,,,,,,2,,,,,,,,low,22,0,22,0,1,,,,,,,,,
294742,2022-12-06_05h51.15.915,vts_reward_expectancy_bt,2022.2.4,MacIntel,62.5,Safari,1512,982,,,,,0,792,,,,,,,,,,,,,,,,,F,167,hexagon,0,0,,,,,,,,,,,,,,,,repeat,letter,NA,f,1.102,Lo,,,,,,2,,,,,,,,low,23,0,23,0,1,,,,,,,,,
294742,2022-12-06_05h51.15.915,vts_reward_expectancy_bt,2022.2.4,MacIntel,62.5,Safari,1512,982,,,,,0,792,,,,,,,,,,,,,,,,,W,146,triangle,0,1,,,,,,,,,,,,,,,,switch,number,NA,k,0.225,Lo,,,,,,2,,,,,,,,low,24,0,24,0,1,,,,,,,,,
294742,2022-12-06_05h51.15.915,vts_reward_expectancy_bt,2022.2.4,MacIntel,62.5,Safari,1512,982,,,,,1,793,,,,,,,,,,,,,,,,,B,160,star,1,1,,,,,,,,,,,,,,,,repeat,number,numRpt,k,0.788,Lo,,,,,,2,,,,,,,,low,25,0,25,0,1,,,,,,,,,
294742,2022-12-06_05h51.15.915,vts_reward_expectancy_bt,2022.2.4,MacIntel,62.5,Safari,1512,982,,,,,1,794,,,,,,,,,,,,,,,,,U,181,hexagon,1,0,,,,,,,,,,,,,,,,switch,letter,lettSwt,f,0.822,Hi,,,,,,2,,,,,,,,low,26,0,26,0,1,,,,,,,,,
294742,2022-12-06_05h51.15.915,vts_reward_expectancy_bt,2022.2.4,MacIntel,62.5,Safari,1512,982,,,,,0,794,,,,,,,,,,,,,,,,,D,132,circle,0,0,,,,,,,,,,,,,,,,repeat,letter,NA,f,1.494,Hi,,,,,,2,,,,,,,,low,27,0,27,0,1,,,,,,,,,
294742,2022-12-06_05h51.15.915,vts_reward_expectancy_bt,2022.2.4,MacIntel,62.5,Safari,1512,982,,,,,0,794,,,,,,,,,,,,,,,,,S,174,hexagon,1,1,,,,,,,,,,,,,,,,switch,number,numSwt,k,1.276,Hi,,,,,,2,,,,,,,,low,28,0,28,0,1,,,,,,,,,
294742,2022-12-06_05h51.15.915,vts_reward_expectancy_bt,2022.2.4,MacIntel,62.5,Safari,1512,982,,,,,10,804,,,,,,,,,,,,,,,,,F,139,star,1,0,,,,,,,,,,,,,,,,switch,letter,lettSwt,d,1.861,Lo,,,,,,2,,,,,,,,low,29,0,29,0,1,,,,,,,,,
294742,2022-12-06_05h51.15.915,vts_reward_expectancy_bt,2022.2.4,MacIntel,62.5,Safari,1512,982,,,,,0,804,,,,,,,,,,,,,,,,,Y,167,circle,1,0,,,,,,,,,,,,,,,,switch,number,numSwt,k,1.303,Hi,,,,,,2,,,,,,,,low,30,0,30,0,1,,,,,,,,,
294742,2022-12-06_05h51.15.915,vts_reward_expectancy_bt,2022.2.4,MacIntel,62.5,Safari,1512,982,,,,,10,814,,,,,,,,,,,,,,,,,H,125,triangle,1,0,,,,,,,,,,,,,,,,switch,letter,lettSwt,d,0.611,Lo,,,,,,2,,,,,,,,low,31,0,31,0,1,,,,,,,,,
294742,2022-12-06_05h51.15.915,vts_reward_expectancy_bt,2022.2.4,MacIntel,62.5,Safari,1512,982,,,,,0,814,,,,,,,,,,,,,,,,,Y,174,star,0,0,,,,,,,,,,,,,,,,repeat,letter,NA,d,1.188,Lo,,,,,,3,,,,,,space,1.103,low,0,0,0,0,1,,,,,,,,,
294742,2022-12-06_05h51.15.915,vts_reward_expectancy_bt,2022.2.4,MacIntel,62.5,Safari,1512,982,,,,,0,814,,,,,,,,,,,,,,,,,D,167,circle,1,1,,,,,,,,,,,,,,,,repeat,letter,lettRpt,d,1.779,Hi,,,,,,3,,,,,,,,low,1,0,1,0,1,,,,,,,,,
294742,2022-12-06_05h51.15.915,vts_reward_expectancy_bt,2022.2.4,MacIntel,62.5,Safari,1512,982,,,,,10,824,,,,,,,,,,,,,,,,,H,146,hexagon,1,0,,,,,,,,,,,,,,,,repeat,letter,lettRpt,d,0.727,Hi,,,,,,3,,,,,,,,low,2,0,2,0,1,,,,,,,,,
294742,2022-12-06_05h51.15.915,vts_reward_expectancy_bt,2022.2.4,MacIntel,62.5,Safari,1512,982,,,,,0,824,,,,,,,,,,,,,,,,,W,132,triangle,0,0,,,,,,,,,,,,,,,,switch,number,NA,k,0.71,Hi,,,,,,3,,,,,,,,low,3,0,3,0,1,,,,,,,,,
294742,2022-12-06_05h51.15.915,vts_reward_expectancy_bt,2022.2.4,MacIntel,62.5,Safari,1512,982,,,,,0,824,,,,,,,,,,,,,,,,,S,125,star,0,1,,,,,,,,,,,,,,,,repeat,number,NA,k,1.696,Hi,,,,,,3,,,,,,,,low,4,0,4,0,1,,,,,,,,,
294742,2022-12-06_05h51.15.915,vts_reward_expectancy_bt,2022.2.4,MacIntel,62.5,Safari,1512,982,,,,,1,825,,,,,,,,,,,,,,,,,F,139,circle,1,1,,,,,,,,,,,,,,,,switch,letter,lettSwt,d,0.693,Hi,,,,,,3,,,,,,,,low,5,0,5,0,1,,,,,,,,,
294742,2022-12-06_05h51.15.915,vts_reward_expectancy_bt,2022.2.4,MacIntel,62.5,Safari,1512,982,,,,,0,825,,,,,,,,,,,,,,,,,U,181,hexagon,1,0,,,,,,,,,,,,,,,,repeat,letter,lettRpt,f,0.96,Hi,,,,,,3,,,,,,,,low,6,0,6,0,1,,,,,,,,,
294742,2022-12-06_05h51.15.915,vts_reward_expectancy_bt,2022.2.4,MacIntel,62.5,Safari,1512,982,,,,,0,825,,,,,,,,,,,,,,,,,B,160,triangle,0,0,,,,,,,,,,,,,,,,repeat,letter,NA,f,0.712,Hi,,,,,,3,,,,,,,,low,7,0,7,0,1,,,,,,,,,
294742,2022-12-06_05h51.15.915,vts_reward_expectancy_bt,2022.2.4,MacIntel,62.5,Safari,1512,982,,,,,0,825,,,,,,,,,,,,,,,,,Y,174,hexagon,1,1,,,,,,,,,,,,,,,,repeat,letter,lettRpt,f,1.018,Hi,,,,,,3,,,,,,,,low,8,0,8,0,1,,,,,,,,,
294742,2022-12-06_05h51.15.915,vts_reward_expectancy_bt,2022.2.4,MacIntel,62.5,Safari,1512,982,,,,,10,835,,,,,,,,,,,,,,,,,D,167,circle,1,0,,,,,,,,,,,,,,,,repeat,letter,lettRpt,d,0.612,Hi,,,,,,3,,,,,,,,low,9,0,9,0,1,,,,,,,,,
294742,2022-12-06_05h51.15.915,vts_reward_expectancy_bt,2022.2.4,MacIntel,62.5,Safari,1512,982,,,,,0,835,,,,,,,,,,,,,,,,,H,146,triangle,0,0,,,,,,,,,,,,,,,,repeat,letter,NA,f,0.802,Hi,,,,,,3,,,,,,,,low,10,0,10,0,1,,,,,,,,,
294742,2022-12-06_05h51.15.915,vts_reward_expectancy_bt,2022.2.4,MacIntel,62.5,Safari,1512,982,,,,,10,845,,,,,,,,,,,,,,,,,W,132,star,1,1,,,,,,,,,,,,,,,,switch,number,numSwt,j,0.98,Lo,,,,,,3,,,,,,,,low,11,0,11,0,1,,,,,,,,,
294742,2022-12-06_05h51.15.915,vts_reward_expectancy_bt,2022.2.4,MacIntel,62.5,Safari,1512,982,,,,,0,845,,,,,,,,,,,,,,,,,S,125,hexagon,1,0,,,,,,,,,,,,,,,,repeat,number,numRpt,j,1.428,Hi,,,,,,3,,,,,,,,low,12,0,12,0,1,,,,,,,,,
294742,2022-12-06_05h51.15.915,vts_reward_expectancy_bt,2022.2.4,MacIntel,62.5,Safari,1512,982,,,,,10,855,,,,,,,,,,,,,,,,,F,139,triangle,1,0,,,,,,,,,,,,,,,,repeat,number,numRpt,j,0.553,Lo,,,,,,3,,,,,,,,low,13,0,13,0,1,,,,,,,,,
294742,2022-12-06_05h51.15.915,vts_reward_expectancy_bt,2022.2.4,MacIntel,62.5,Safari,1512,982,,,,,10,865,,,,,,,,,,,,,,,,,U,181,circle,1,0,,,,,,,,,,,,,,,,repeat,number,numRpt,k,0.926,Hi,,,,,,3,,,,,,,,low,14,0,14,0,1,,,,,,,,,
294742,2022-12-06_05h51.15.915,vts_reward_expectancy_bt,2022.2.4,MacIntel,62.5,Safari,1512,982,,,,,0,865,,,,,,,,,,,,,,,,,B,160,star,0,0,,,,,,,,,,,,,,,,repeat,number,NA,j,0.743,Hi,,,,,,3,,,,,,,,low,15,0,15,0,1,,,,,,,,,
294742,2022-12-06_05h51.15.915,vts_reward_expectancy_bt,2022.2.4,MacIntel,62.5,Safari,1512,982,,,,,1,866,,,,,,,,,,,,,,,,,F,174,triangle,1,1,,,,,,,,,,,,,,,,repeat,number,numRpt,k,0.883,Lo,,,,,,3,,,,,,,,low,16,0,16,0,1,,,,,,,,,
294742,2022-12-06_05h51.15.915,vts_reward_expectancy_bt,2022.2.4,MacIntel,62.5,Safari,1512,982,,,,,1,867,,,,,,,,,,,,,,,,,B,132,circle,1,0,,,,,,,,,,,,,,,,repeat,number,numRpt,j,0.77,Hi,,,,,,3,,,,,,,,low,17,0,17,0,1,,,,,,,,,
294742,2022-12-06_05h51.15.915,vts_reward_expectancy_bt,2022.2.4,MacIntel,62.5,Safari,1512,982,,,,,1,868,,,,,,,,,,,,,,,,,W,146,star,1,0,,,,,,,,,,,,,,,,repeat,number,numRpt,j,0.871,Lo,,,,,,3,,,,,,,,low,18,0,18,0,1,,,,,,,,,
294742,2022-12-06_05h51.15.915,vts_reward_expectancy_bt,2022.2.4,MacIntel,62.5,Safari,1512,982,,,,,10,878,,,,,,,,,,,,,,,,,H,160,hexagon,1,0,,,,,,,,,,,,,,,,repeat,number,numRpt,k,1.009,Hi,,,,,,3,,,,,,,,low,19,0,19,0,1,,,,,,,,,
294742,2022-12-06_05h51.15.915,vts_reward_expectancy_bt,2022.2.4,MacIntel,62.5,Safari,1512,982,,,,,10,888,,,,,,,,,,,,,,,,,S,167,triangle,1,0,,,,,,,,,,,,,,,,repeat,number,numRpt,k,0.689,Lo,,,,,,3,,,,,,,,low,20,0,20,0,1,,,,,,,,,
294742,2022-12-06_05h51.15.915,vts_reward_expectancy_bt,2022.2.4,MacIntel,62.5,Safari,1512,982,,,,,10,898,,,,,,,,,,,,,,,,,U,181,star,1,0,,,,,,,,,,,,,,,,repeat,number,numRpt,k,0.694,Lo,,,,,,3,,,,,,,,low,21,0,21,0,1,,,,,,,,,
294742,2022-12-06_05h51.15.915,vts_reward_expectancy_bt,2022.2.4,MacIntel,62.5,Safari,1512,982,,,,,10,908,,,,,,,,,,,,,,,,,D,139,circle,1,0,,,,,,,,,,,,,,,,repeat,number,numRpt,j,0.842,Hi,,,,,,3,,,,,,,,low,22,0,22,0,1,,,,,,,,,
294742,2022-12-06_05h51.15.915,vts_reward_expectancy_bt,2022.2.4,MacIntel,62.5,Safari,1512,982,,,,,10,918,,,,,,,,,,,,,,,,,Y,125,hexagon,1,0,,,,,,,,,,,,,,,,repeat,number,numRpt,j,0.833,Hi,,,,,,3,,,,,,,,low,23,0,23,0,1,,,,,,,,,
294742,2022-12-06_05h51.15.915,vts_reward_expectancy_bt,2022.2.4,MacIntel,62.5,Safari,1512,982,,,,,10,928,,,,,,,,,,,,,,,,,U,146,star,1,0,,,,,,,,,,,,,,,,repeat,number,numRpt,j,0.885,Lo,,,,,,3,,,,,,,,low,24,0,24,0,1,,,,,,,,,
294742,2022-12-06_05h51.15.915,vts_reward_expectancy_bt,2022.2.4,MacIntel,62.5,Safari,1512,982,,,,,1,929,,,,,,,,,,,,,,,,,W,167,triangle,1,0,,,,,,,,,,,,,,,,repeat,number,numRpt,k,0.763,Lo,,,,,,3,,,,,,,,low,25,0,25,0,1,,,,,,,,,
294742,2022-12-06_05h51.15.915,vts_reward_expectancy_bt,2022.2.4,MacIntel,62.5,Safari,1512,982,,,,,1,930,,,,,,,,,,,,,,,,,S,132,circle,1,0,,,,,,,,,,,,,,,,repeat,number,numRpt,j,0.594,Hi,,,,,,3,,,,,,,,low,26,0,26,0,1,,,,,,,,,
294742,2022-12-06_05h51.15.915,vts_reward_expectancy_bt,2022.2.4,MacIntel,62.5,Safari,1512,982,,,,,0,930,,,,,,,,,,,,,,,,,Y,160,hexagon,1,0,,,,,,,,,,,,,,,,switch,letter,lettSwt,f,0.702,Hi,,,,,,3,,,,,,,,low,27,0,27,0,1,,,,,,,,,
294742,2022-12-06_05h51.15.915,vts_reward_expectancy_bt,2022.2.4,MacIntel,62.5,Safari,1512,982,,,,,1,931,,,,,,,,,,,,,,,,,B,174,hexagon,1,0,,,,,,,,,,,,,,,,repeat,letter,lettRpt,d,0.499,Hi,,,,,,3,,,,,,,,low,28,0,28,0,1,,,,,,,,,
294742,2022-12-06_05h51.15.915,vts_reward_expectancy_bt,2022.2.4,MacIntel,62.5,Safari,1512,982,,,,,1,932,,,,,,,,,,,,,,,,,D,139,star,1,0,,,,,,,,,,,,,,,,switch,number,numSwt,j,0.765,Lo,,,,,,3,,,,,,,,low,29,0,29,0,1,,,,,,,,,
294742,2022-12-06_05h51.15.915,vts_reward_expectancy_bt,2022.2.4,MacIntel,62.5,Safari,1512,982,,,,,0,932,,,,,,,,,,,,,,,,,F,181,circle,0,0,,,,,,,,,,,,,,,,switch,letter,NA,f,1.098,Lo,,,,,,3,,,,,,,,low,30,0,30,0,1,,,,,,,,,
294742,2022-12-06_05h51.15.915,vts_reward_expectancy_bt,2022.2.4,MacIntel,62.5,Safari,1512,982,,,,,0,932,,,,,,,,,,,,,,,,,H,125,triangle,0,1,,,,,,,,,,,,,,,,repeat,letter,NA,f,0.744,Lo,,,,,,3,,,,,,,,low,31,0,31,0,1,,,,,,,,,
294742,2022-12-06_05h51.15.915,vts_reward_expectancy_bt,2022.2.4,MacIntel,62.5,Safari,1512,982,,,,,10,942,,,,,,,,,,,,,,,,,D,139,circle,1,1,,,,,,,,,,,,,,,,repeat,letter,lettRpt,d,0.298,Hi,,,,,,4,,,,,,space,0.631,low,0,0,0,0,1,,,,,,,,,
294742,2022-12-06_05h51.15.915,vts_reward_expectancy_bt,2022.2.4,MacIntel,62.5,Safari,1512,982,,,,,0,942,,,,,,,,,,,,,,,,,F,146,hexagon,1,0,,,,,,,,,,,,,,,,switch,number,numSwt,j,1.217,Hi,,,,,,4,,,,,,,,low,1,0,1,0,1,,,,,,,,,
294742,2022-12-06_05h51.15.915,vts_reward_expectancy_bt,2022.2.4,MacIntel,62.5,Safari,1512,982,,,,,0,942,,,,,,,,,,,,,,,,,S,181,triangle,0,0,,,,,,,,,,,,,,,,repeat,number,NA,j,0.07,Hi,,,,,,4,,,,,,,,low,2,0,2,0,1,,,,,,,,,
294742,2022-12-06_05h51.15.915,vts_reward_expectancy_bt,2022.2.4,MacIntel,62.5,Safari,1512,982,,,,,10,952,,,,,,,,,,,,,,,,,U,125,star,1,1,,,,,,,,,,,,,,,,switch,letter,lettSwt,f,0.51,Lo,,,,,,4,,,,,,,,low,3,0,3,0,1,,,,,,,,,
294742,2022-12-06_05h51.15.915,vts_reward_expectancy_bt,2022.2.4,MacIntel,62.5,Safari,1512,982,,,,,0,952,,,,,,,,,,,,,,,,,W,174,circle,0,0,,,,,,,,,,,,,,,,repeat,letter,NA,d,0.644,Lo,,,,,,4,,,,,,,,low,4,0,4,0,1,,,,,,,,,
294742,2022-12-06_05h51.15.915,vts_reward_expectancy_bt,2022.2.4,MacIntel,62.5,Safari,1512,982,,,,,0,952,,,,,,,,,,,,,,,,,B,167,hexagon,0,1,,,,,,,,,,,,,,,,repeat,letter,NA,f,0.811,Lo,,,,,,4,,,,,,,,low,5,0,5,0,1,,,,,,,,,
294742,2022-12-06_05h51.15.915,vts_reward_expectancy_bt,2022.2.4,MacIntel,62.5,Safari,1512,982,,,,,1,953,,,,,,,,,,,,,,,,,Y,132,triangle,1,1,,,,,,,,,,,,,,,,switch,number,numSwt,j,1.345,Lo,,,,,,4,,,,,,,,low,6,0,6,0,1,,,,,,,,,
294742,2022-12-06_05h51.15.915,vts_reward_expectancy_bt,2022.2.4,MacIntel,62.5,Safari,1512,982,,,,,1,954,,,,,,,,,,,,,,,,,H,160,star,1,0,,,,,,,,,,,,,,,,repeat,number,numRpt,k,0.995,Lo,,,,,,4,,,,,,,,low,7,0,7,0,1,,,,,,,,,
294742,2022-12-06_05h51.15.915,vts_reward_expectancy_bt,2022.2.4,MacIntel,62.5,Safari,1512,982,,,,,10,964,,,,,,,,,,,,,,,,,D,139,triangle,1,0,,,,,,,,,,,,,,,,repeat,number,numRpt,j,0.859,Lo,,,,,,4,,,,,,,,low,8,0,8,0,1,,,,,,,,,
294742,2022-12-06_05h51.15.915,vts_reward_expectancy_bt,2022.2.4,MacIntel,62.5,Safari,1512,982,,,,,0,964,,,,,,,,,,,,,,,,,F,146,hexagon,1,0,,,,,,,,,,,,,,,,repeat,number,numRpt,j,0.995,Hi,,,,,,4,,,,,,,,low,9,0,9,0,1,,,,,,,,,
294742,2022-12-06_05h51.15.915,vts_reward_expectancy_bt,2022.2.4,MacIntel,62.5,Safari,1512,982,,,,,10,974,,,,,,,,,,,,,,,,,S,181,circle,1,0,,,,,,,,,,,,,,,,repeat,number,numRpt,k,0.613,Hi,,,,,,4,,,,,,,,low,10,0,10,0,1,,,,,,,,,
294742,2022-12-06_05h51.15.915,vts_reward_expectancy_bt,2022.2.4,MacIntel,62.5,Safari,1512,982,,,,,10,984,,,,,,,,,,,,,,,,,U,125,star,1,0,,,,,,,,,,,,,,,,repeat,number,numRpt,j,0.796,Lo,,,,,,4,,,,,,,,low,11,0,11,0,1,,,,,,,,,
294742,2022-12-06_05h51.15.915,vts_reward_expectancy_bt,2022.2.4,MacIntel,62.5,Safari,1512,982,,,,,10,994,,,,,,,,,,,,,,,,,W,174,star,1,0,,,,,,,,,,,,,,,,repeat,number,numRpt,k,0.599,Lo,,,,,,4,,,,,,,,low,12,0,12,0,1,,,,,,,,,
294742,2022-12-06_05h51.15.915,vts_reward_expectancy_bt,2022.2.4,MacIntel,62.5,Safari,1512,982,,,,,10,1004,,,,,,,,,,,,,,,,,B,167,hexagon,1,0,,,,,,,,,,,,,,,,repeat,number,numRpt,k,0.751,Hi,,,,,,4,,,,,,,,low,13,0,13,0,1,,,,,,,,,
294742,2022-12-06_05h51.15.915,vts_reward_expectancy_bt,2022.2.4,MacIntel,62.5,Safari,1512,982,,,,,0,1004,,,,,,,,,,,,,,,,,Y,132,circle,1,0,,,,,,,,,,,,,,,,repeat,number,numRpt,j,0.793,Hi,,,,,,4,,,,,,,,low,14,0,14,0,1,,,,,,,,,
294742,2022-12-06_05h51.15.915,vts_reward_expectancy_bt,2022.2.4,MacIntel,62.5,Safari,1512,982,,,,,10,1014,,,,,,,,,,,,,,,,,H,160,triangle,1,0,,,,,,,,,,,,,,,,repeat,number,numRpt,k,0.704,Lo,,,,,,4,,,,,,,,low,15,0,15,0,1,,,,,,,,,
294742,2022-12-06_05h51.15.915,vts_reward_expectancy_bt,2022.2.4,MacIntel,62.5,Safari,1512,982,,,,,1,1015,,,,,,,,,,,,,,,,,H,139,triangle,1,0,,,,,,,,,,,,,,,,repeat,number,numRpt,j,0.645,Lo,,,,,,4,,,,,,,,low,16,0,16,0,1,,,,,,,,,
294742,2022-12-06_05h51.15.915,vts_reward_expectancy_bt,2022.2.4,MacIntel,62.5,Safari,1512,982,,,,,0,1015,,,,,,,,,,,,,,,,,D,125,circle,1,0,,,,,,,,,,,,,,,,repeat,number,numRpt,j,1.057,Hi,,,,,,4,,,,,,,,low,17,0,17,0,1,,,,,,,,,
294742,2022-12-06_05h51.15.915,vts_reward_expectancy_bt,2022.2.4,MacIntel,62.5,Safari,1512,982,,,,,0,1015,,,,,,,,,,,,,,,,,S,167,hexagon,1,0,,,,,,,,,,,,,,,,repeat,number,numRpt,k,0.782,Hi,,,,,,4,,,,,,,,low,18,0,18,0,1,,,,,,,,,
