participant,date,expName,psychopyVersion,OS,frameRate,browser,xResolution,yResolution,key_resp.keys,key_resp.rt,training_resp.keys,training_resp.rt,points_trial,points_cumul,trainBlock,training.thisRepN,training.thisTrialN,training.thisN,training.thisIndex,training.ran,LTriangleOpac,LCircleOpac,LHexagonOpac,LStarOpac,RTriangleOpac,RCircleOpac,RHexagonOpac,RStarOpac,LShape_ID,RShape_ID,curr_topStim,curr_bottStim,curr_shape,acc,E1,target_resp_prac1.keys,target_resp_prac1.rt,pracBlock,task1_prac_trials.thisRepN,task1_prac_trials.thisTrialN,task1_prac_trials.thisN,task1_prac_trials.thisIndex,task1_prac_trials.ran,target_resp_prac2.keys,target_resp_prac2.rt,task2_praac_trials.thisRepN,task2_praac_trials.thisTrialN,task2_praac_trials.thisN,task2_praac_trials.thisIndex,task2_praac_trials.ran,alt,task,condition,target_resp.keys,target_resp.rt,rewCond,vts_practice_trials.thisRepN,vts_practice_trials.thisTrialN,vts_practice_trials.thisN,vts_practice_trials.thisIndex,vts_practice_trials.ran,blockNum,trials_norew.thisRepN,trials_norew.thisTrialN,trials_norew.thisN,trials_norew.thisIndex,trials_norew.ran,key_resp_2.keys,key_resp_2.rt,rewExpectancy,trials_rew.thisRepN,trials_rew.thisTrialN,trials_rew.thisN,trials_rew.thisIndex,trials_rew.ran,Q1,Q2,Q2_text,Q3,Q4,Q5_text,Q5,xRes,yRes
294772,2022-12-02_13h55.02.729,vts_reward_expectancy_bt,2022.2.4,Win32,60.59871531,Chrome,1280,720,,,,,,,,,,,,,,,,,,,,,,,,,,,,,,,,,,,,,,,,,,,,,,,,,,,,,,,,,,,,,,,,,,,,,,,,,,,,
294772,2022-12-02_13h55.02.729,vts_reward_expectancy_bt,2022.2.4,Win32,60.59871531,Chrome,1280,720,space,3.5475,,,,,,,,,,,,,,,,,,,,,,,,,,,,,,,,,,,,,,,,,,,,,,,,,,,,,,,,,,,,,,,,,,,,,,,,,,
294772,2022-12-02_13h55.02.729,vts_reward_expectancy_bt,2022.2.4,Win32,60.59871531,Chrome,1280,720,,,,,,,,,,,,,,,,,,,,,,,,,,,,,,,,,,,,,,,,,,,,,,,,,,,,,,,,,,,,,,,,,,,,,,,,,,,,
294772,2022-12-02_13h55.02.729,vts_reward_expectancy_bt,2022.2.4,Win32,60.59871531,Chrome,1280,720,,,a,0.9786,1,1,0,0,0,0,3,1,0,1,0,0,1,0,0,0,circle,triangle,,,,,,,,,,,,,,,,,,,,,,,,,,,,,,,,,,,,,,,,,,,,,,,,,,,,,,
294772,2022-12-02_13h55.02.729,vts_reward_expectancy_bt,2022.2.4,Win32,60.59871531,Chrome,1280,720,,,a,1.2475,10,11,0,0,1,1,11,1,0,0,0,1,0,0,1,0,star,hexagon,,,,,,,,,,,,,,,,,,,,,,,,,,,,,,,,,,,,,,,,,,,,,,,,,,,,,,
294772,2022-12-02_13h55.02.729,vts_reward_expectancy_bt,2022.2.4,Win32,60.59871531,Chrome,1280,720,,,a,1.5824,1,12,0,0,2,2,9,1,0,0,0,1,1,0,0,0,star,triangle,,,,,,,,,,,,,,,,,,,,,,,,,,,,,,,,,,,,,,,,,,,,,,,,,,,,,,
294772,2022-12-02_13h55.02.729,vts_reward_expectancy_bt,2022.2.4,Win32,60.59871531,Chrome,1280,720,,,l,1.3842,10,22,0,0,3,3,6,1,0,0,1,0,1,0,0,0,hexagon,triangle,,,,,,,,,,,,,,,,,,,,,,,,,,,,,,,,,,,,,,,,,,,,,,,,,,,,,,
294772,2022-12-02_13h55.02.729,vts_reward_expectancy_bt,2022.2.4,Win32,60.59871531,Chrome,1280,720,,,a,1.0476,10,32,0,0,4,4,4,1,0,1,0,0,0,0,1,0,circle,hexagon,,,,,,,,,,,,,,,,,,,,,,,,,,,,,,,,,,,,,,,,,,,,,,,,,,,,,,
294772,2022-12-02_13h55.02.729,vts_reward_expectancy_bt,2022.2.4,Win32,60.59871531,Chrome,1280,720,,,l,3.0299,10,42,0,0,5,5,5,1,0,1,0,0,0,0,0,1,circle,star,,,,,,,,,,,,,,,,,,,,,,,,,,,,,,,,,,,,,,,,,,,,,,,,,,,,,,
294772,2022-12-02_13h55.02.729,vts_reward_expectancy_bt,2022.2.4,Win32,60.59871531,Chrome,1280,720,,,l,1.0459,10,52,0,0,6,6,7,1,0,0,1,0,0,1,0,0,hexagon,circle,,,,,,,,,,,,,,,,,,,,,,,,,,,,,,,,,,,,,,,,,,,,,,,,,,,,,,
294772,2022-12-02_13h55.02.729,vts_reward_expectancy_bt,2022.2.4,Win32,60.59871531,Chrome,1280,720,,,l,1.0966,1,53,0,0,7,7,2,1,1,0,0,0,0,0,0,1,triangle,star,,,,,,,,,,,,,,,,,,,,,,,,,,,,,,,,,,,,,,,,,,,,,,,,,,,,,,
294772,2022-12-02_13h55.02.729,vts_reward_expectancy_bt,2022.2.4,Win32,60.59871531,Chrome,1280,720,,,l,0.919,1,54,0,0,8,8,8,1,0,0,1,0,0,0,0,1,hexagon,star,,,,,,,,,,,,,,,,,,,,,,,,,,,,,,,,,,,,,,,,,,,,,,,,,,,,,,
294772,2022-12-02_13h55.02.729,vts_reward_expectancy_bt,2022.2.4,Win32,60.59871531,Chrome,1280,720,,,a,0.8115,1,55,0,0,9,9,10,1,0,0,0,1,0,1,0,0,star ,circle,,,,,,,,,,,,,,,,,,,,,,,,,,,,,,,,,,,,,,,,,,,,,,,,,,,,,,
294772,2022-12-02_13h55.02.729,vts_reward_expectancy_bt,2022.2.4,Win32,60.59871531,Chrome,1280,720,,,a,1.1473,1,56,0,0,10,10,1,1,1,0,0,0,0,0,1,0,triangle,hexagon,,,,,,,,,,,,,,,,,,,,,,,,,,,,,,,,,,,,,,,,,,,,,,,,,,,,,,
294772,2022-12-02_13h55.02.729,vts_reward_expectancy_bt,2022.2.4,Win32,60.59871531,Chrome,1280,720,,,a,7.279,10,66,0,0,11,11,0,1,1,0,0,0,0,1,0,0,triangle,circle,,,,,,,,,,,,,,,,,,,,,,,,,,,,,,,,,,,,,,,,,,,,,,,,,,,,,,
294772,2022-12-02_13h55.02.729,vts_reward_expectancy_bt,2022.2.4,Win32,60.59871531,Chrome,1280,720,,,a,0.7336,10,76,0,1,0,12,7,1,0,0,1,0,0,1,0,0,hexagon,circle,,,,,,,,,,,,,,,,,,,,,,,,,,,,,,,,,,,,,,,,,,,,,,,,,,,,,,
294772,2022-12-02_13h55.02.729,vts_reward_expectancy_bt,2022.2.4,Win32,60.59871531,Chrome,1280,720,,,a,0.5295,1,77,0,1,1,13,3,1,0,1,0,0,1,0,0,0,circle,triangle,,,,,,,,,,,,,,,,,,,,,,,,,,,,,,,,,,,,,,,,,,,,,,,,,,,,,,
294772,2022-12-02_13h55.02.729,vts_reward_expectancy_bt,2022.2.4,Win32,60.59871531,Chrome,1280,720,,,a,1.2487,1,78,0,1,2,14,0,1,1,0,0,0,0,1,0,0,triangle,circle,,,,,,,,,,,,,,,,,,,,,,,,,,,,,,,,,,,,,,,,,,,,,,,,,,,,,,
294772,2022-12-02_13h55.02.729,vts_reward_expectancy_bt,2022.2.4,Win32,60.59871531,Chrome,1280,720,,,a,1.6323,10,88,0,1,3,15,6,1,0,0,1,0,1,0,0,0,hexagon,triangle,,,,,,,,,,,,,,,,,,,,,,,,,,,,,,,,,,,,,,,,,,,,,,,,,,,,,,
294772,2022-12-02_13h55.02.729,vts_reward_expectancy_bt,2022.2.4,Win32,60.59871531,Chrome,1280,720,,,a,0.483,10,98,0,1,4,16,9,1,0,0,0,1,1,0,0,0,star,triangle,,,,,,,,,,,,,,,,,,,,,,,,,,,,,,,,,,,,,,,,,,,,,,,,,,,,,,
294772,2022-12-02_13h55.02.729,vts_reward_expectancy_bt,2022.2.4,Win32,60.59871531,Chrome,1280,720,,,a,0.2758,1,99,0,1,5,17,11,1,0,0,0,1,0,0,1,0,star,hexagon,,,,,,,,,,,,,,,,,,,,,,,,,,,,,,,,,,,,,,,,,,,,,,,,,,,,,,
294772,2022-12-02_13h55.02.729,vts_reward_expectancy_bt,2022.2.4,Win32,60.59871531,Chrome,1280,720,,,l,0.6179,1,100,0,1,6,18,8,1,0,0,1,0,0,0,0,1,hexagon,star,,,,,,,,,,,,,,,,,,,,,,,,,,,,,,,,,,,,,,,,,,,,,,,,,,,,,,
294772,2022-12-02_13h55.02.729,vts_reward_expectancy_bt,2022.2.4,Win32,60.59871531,Chrome,1280,720,,,a,1.0984,10,110,0,1,7,19,4,1,0,1,0,0,0,0,1,0,circle,hexagon,,,,,,,,,,,,,,,,,,,,,,,,,,,,,,,,,,,,,,,,,,,,,,,,,,,,,,
294772,2022-12-02_13h55.02.729,vts_reward_expectancy_bt,2022.2.4,Win32,60.59871531,Chrome,1280,720,,,a,0.5155,10,120,0,1,8,20,10,1,0,0,0,1,0,1,0,0,star ,circle,,,,,,,,,,,,,,,,,,,,,,,,,,,,,,,,,,,,,,,,,,,,,,,,,,,,,,
294772,2022-12-02_13h55.02.729,vts_reward_expectancy_bt,2022.2.4,Win32,60.59871531,Chrome,1280,720,,,l,0.484,1,121,0,1,9,21,5,1,0,1,0,0,0,0,0,1,circle,star,,,,,,,,,,,,,,,,,,,,,,,,,,,,,,,,,,,,,,,,,,,,,,,,,,,,,,
294772,2022-12-02_13h55.02.729,vts_reward_expectancy_bt,2022.2.4,Win32,60.59871531,Chrome,1280,720,,,l,0.2022,1,122,0,1,10,22,2,1,1,0,0,0,0,0,0,1,triangle,star,,,,,,,,,,,,,,,,,,,,,,,,,,,,,,,,,,,,,,,,,,,,,,,,,,,,,,
294772,2022-12-02_13h55.02.729,vts_reward_expectancy_bt,2022.2.4,Win32,60.59871531,Chrome,1280,720,,,a,0.2522,10,132,0,1,11,23,1,1,1,0,0,0,0,0,1,0,triangle,hexagon,,,,,,,,,,,,,,,,,,,,,,,,,,,,,,,,,,,,,,,,,,,,,,,,,,,,,,
294772,2022-12-02_13h55.02.729,vts_reward_expectancy_bt,2022.2.4,Win32,60.59871531,Chrome,1280,720,,,a,0.1691,10,142,0,2,0,24,5,1,0,1,0,0,0,0,0,1,circle,star,,,,,,,,,,,,,,,,,,,,,,,,,,,,,,,,,,,,,,,,,,,,,,,,,,,,,,
294772,2022-12-02_13h55.02.729,vts_reward_expectancy_bt,2022.2.4,Win32,60.59871531,Chrome,1280,720,,,a,0.3009,1,143,0,2,1,25,6,1,0,0,1,0,1,0,0,0,hexagon,triangle,,,,,,,,,,,,,,,,,,,,,,,,,,,,,,,,,,,,,,,,,,,,,,,,,,,,,,
294772,2022-12-02_13h55.02.729,vts_reward_expectancy_bt,2022.2.4,Win32,60.59871531,Chrome,1280,720,,,a,0.7299,10,153,0,2,2,26,11,1,0,0,0,1,0,0,1,0,star,hexagon,,,,,,,,,,,,,,,,,,,,,,,,,,,,,,,,,,,,,,,,,,,,,,,,,,,,,,
294772,2022-12-02_13h55.02.729,vts_reward_expectancy_bt,2022.2.4,Win32,60.59871531,Chrome,1280,720,,,a,0.2161,1,154,0,2,3,27,2,1,1,0,0,0,0,0,0,1,triangle,star,,,,,,,,,,,,,,,,,,,,,,,,,,,,,,,,,,,,,,,,,,,,,,,,,,,,,,
294772,2022-12-02_13h55.02.729,vts_reward_expectancy_bt,2022.2.4,Win32,60.59871531,Chrome,1280,720,,,a,0.7176,10,164,0,2,4,28,1,1,1,0,0,0,0,0,1,0,triangle,hexagon,,,,,,,,,,,,,,,,,,,,,,,,,,,,,,,,,,,,,,,,,,,,,,,,,,,,,,
294772,2022-12-02_13h55.02.729,vts_reward_expectancy_bt,2022.2.4,Win32,60.59871531,Chrome,1280,720,,,l,0.681,1,165,0,2,5,29,9,1,0,0,0,1,1,0,0,0,star,triangle,,,,,,,,,,,,,,,,,,,,,,,,,,,,,,,,,,,,,,,,,,,,,,,,,,,,,,
294772,2022-12-02_13h55.02.729,vts_reward_expectancy_bt,2022.2.4,Win32,60.59871531,Chrome,1280,720,,,a,0.3014,10,175,0,2,6,30,0,1,1,0,0,0,0,1,0,0,triangle,circle,,,,,,,,,,,,,,,,,,,,,,,,,,,,,,,,,,,,,,,,,,,,,,,,,,,,,,
294772,2022-12-02_13h55.02.729,vts_reward_expectancy_bt,2022.2.4,Win32,60.59871531,Chrome,1280,720,,,a,1.1326,10,185,0,2,7,31,8,1,0,0,1,0,0,0,0,1,hexagon,star,,,,,,,,,,,,,,,,,,,,,,,,,,,,,,,,,,,,,,,,,,,,,,,,,,,,,,
294772,2022-12-02_13h55.02.729,vts_reward_expectancy_bt,2022.2.4,Win32,60.59871531,Chrome,1280,720,,,l,0.9059,1,186,0,2,8,32,3,1,0,1,0,0,1,0,0,0,circle,triangle,,,,,,,,,,,,,,,,,,,,,,,,,,,,,,,,,,,,,,,,,,,,,,,,,,,,,,
294772,2022-12-02_13h55.02.729,vts_reward_expectancy_bt,2022.2.4,Win32,60.59871531,Chrome,1280,720,,,a,1.3843,1,187,0,2,9,33,10,1,0,0,0,1,0,1,0,0,star ,circle,,,,,,,,,,,,,,,,,,,,,,,,,,,,,,,,,,,,,,,,,,,,,,,,,,,,,,
294772,2022-12-02_13h55.02.729,vts_reward_expectancy_bt,2022.2.4,Win32,60.59871531,Chrome,1280,720,,,a,0.2871,10,197,0,2,10,34,7,1,0,0,1,0,0,1,0,0,hexagon,circle,,,,,,,,,,,,,,,,,,,,,,,,,,,,,,,,,,,,,,,,,,,,,,,,,,,,,,
294772,2022-12-02_13h55.02.729,vts_reward_expectancy_bt,2022.2.4,Win32,60.59871531,Chrome,1280,720,,,a,1.2352,1,198,0,2,11,35,4,1,0,1,0,0,0,0,1,0,circle,hexagon,,,,,,,,,,,,,,,,,,,,,,,,,,,,,,,,,,,,,,,,,,,,,,,,,,,,,,
294772,2022-12-02_13h55.02.729,vts_reward_expectancy_bt,2022.2.4,Win32,60.59871531,Chrome,1280,720,,,a,0.5644,10,208,1,0,0,0,9,1,0,0,0,1,1,0,0,0,star,triangle,,,,,,,,,,,,,,,,,,,,,,,,,,,,,,,,,,,,,,,,,,,,,,,,,,,,,,
294772,2022-12-02_13h55.02.729,vts_reward_expectancy_bt,2022.2.4,Win32,60.59871531,Chrome,1280,720,,,a,0.6342,10,218,1,0,1,1,2,1,1,0,0,0,0,0,0,1,triangle,star,,,,,,,,,,,,,,,,,,,,,,,,,,,,,,,,,,,,,,,,,,,,,,,,,,,,,,
294772,2022-12-02_13h55.02.729,vts_reward_expectancy_bt,2022.2.4,Win32,60.59871531,Chrome,1280,720,,,l,0.3845,10,228,1,0,2,2,8,1,0,0,1,0,0,0,0,1,hexagon,star,,,,,,,,,,,,,,,,,,,,,,,,,,,,,,,,,,,,,,,,,,,,,,,,,,,,,,
294772,2022-12-02_13h55.02.729,vts_reward_expectancy_bt,2022.2.4,Win32,60.59871531,Chrome,1280,720,,,l,0.6172,10,238,1,0,3,3,4,1,0,1,0,0,0,0,1,0,circle,hexagon,,,,,,,,,,,,,,,,,,,,,,,,,,,,,,,,,,,,,,,,,,,,,,,,,,,,,,
294772,2022-12-02_13h55.02.729,vts_reward_expectancy_bt,2022.2.4,Win32,60.59871531,Chrome,1280,720,,,a,1.5184,1,239,1,0,4,4,1,1,1,0,0,0,0,0,1,0,triangle,hexagon,,,,,,,,,,,,,,,,,,,,,,,,,,,,,,,,,,,,,,,,,,,,,,,,,,,,,,
294772,2022-12-02_13h55.02.729,vts_reward_expectancy_bt,2022.2.4,Win32,60.59871531,Chrome,1280,720,,,a,0.6363,1,240,1,0,5,5,0,1,1,0,0,0,0,1,0,0,triangle,circle,,,,,,,,,,,,,,,,,,,,,,,,,,,,,,,,,,,,,,,,,,,,,,,,,,,,,,
294772,2022-12-02_13h55.02.729,vts_reward_expectancy_bt,2022.2.4,Win32,60.59871531,Chrome,1280,720,,,l,0.1686,10,250,1,0,6,6,6,1,0,0,1,0,1,0,0,0,hexagon,triangle,,,,,,,,,,,,,,,,,,,,,,,,,,,,,,,,,,,,,,,,,,,,,,,,,,,,,,
294772,2022-12-02_13h55.02.729,vts_reward_expectancy_bt,2022.2.4,Win32,60.59871531,Chrome,1280,720,,,l,0.6497,1,251,1,0,7,7,5,1,0,1,0,0,0,0,0,1,circle,star,,,,,,,,,,,,,,,,,,,,,,,,,,,,,,,,,,,,,,,,,,,,,,,,,,,,,,
294772,2022-12-02_13h55.02.729,vts_reward_expectancy_bt,2022.2.4,Win32,60.59871531,Chrome,1280,720,,,l,0.8974,10,261,1,0,8,8,7,1,0,0,1,0,0,1,0,0,hexagon,circle,,,,,,,,,,,,,,,,,,,,,,,,,,,,,,,,,,,,,,,,,,,,,,,,,,,,,,
294772,2022-12-02_13h55.02.729,vts_reward_expectancy_bt,2022.2.4,Win32,60.59871531,Chrome,1280,720,,,l,1.5335,1,262,1,0,9,9,11,1,0,0,0,1,0,0,1,0,star,hexagon,,,,,,,,,,,,,,,,,,,,,,,,,,,,,,,,,,,,,,,,,,,,,,,,,,,,,,
294772,2022-12-02_13h55.02.729,vts_reward_expectancy_bt,2022.2.4,Win32,60.59871531,Chrome,1280,720,,,l,1.2215,10,272,1,0,10,10,10,1,0,0,0,1,0,1,0,0,star ,circle,,,,,,,,,,,,,,,,,,,,,,,,,,,,,,,,,,,,,,,,,,,,,,,,,,,,,,
294772,2022-12-02_13h55.02.729,vts_reward_expectancy_bt,2022.2.4,Win32,60.59871531,Chrome,1280,720,,,a,0.5666,10,282,1,0,11,11,3,1,0,1,0,0,1,0,0,0,circle,triangle,,,,,,,,,,,,,,,,,,,,,,,,,,,,,,,,,,,,,,,,,,,,,,,,,,,,,,
294772,2022-12-02_13h55.02.729,vts_reward_expectancy_bt,2022.2.4,Win32,60.59871531,Chrome,1280,720,,,l,0.9337,1,283,1,1,0,12,6,1,0,0,1,0,1,0,0,0,hexagon,triangle,,,,,,,,,,,,,,,,,,,,,,,,,,,,,,,,,,,,,,,,,,,,,,,,,,,,,,
294772,2022-12-02_13h55.02.729,vts_reward_expectancy_bt,2022.2.4,Win32,60.59871531,Chrome,1280,720,,,a,0.8531,1,284,1,1,1,13,4,1,0,1,0,0,0,0,1,0,circle,hexagon,,,,,,,,,,,,,,,,,,,,,,,,,,,,,,,,,,,,,,,,,,,,,,,,,,,,,,
294772,2022-12-02_13h55.02.729,vts_reward_expectancy_bt,2022.2.4,Win32,60.59871531,Chrome,1280,720,,,l,0.8556,1,285,1,1,2,14,2,1,1,0,0,0,0,0,0,1,triangle,star,,,,,,,,,,,,,,,,,,,,,,,,,,,,,,,,,,,,,,,,,,,,,,,,,,,,,,
294772,2022-12-02_13h55.02.729,vts_reward_expectancy_bt,2022.2.4,Win32,60.59871531,Chrome,1280,720,,,a,0.6675,10,295,1,1,3,15,0,1,1,0,0,0,0,1,0,0,triangle,circle,,,,,,,,,,,,,,,,,,,,,,,,,,,,,,,,,,,,,,,,,,,,,,,,,,,,,,
294772,2022-12-02_13h55.02.729,vts_reward_expectancy_bt,2022.2.4,Win32,60.59871531,Chrome,1280,720,,,l,0.7517,10,305,1,1,4,16,10,1,0,0,0,1,0,1,0,0,star ,circle,,,,,,,,,,,,,,,,,,,,,,,,,,,,,,,,,,,,,,,,,,,,,,,,,,,,,,
294772,2022-12-02_13h55.02.729,vts_reward_expectancy_bt,2022.2.4,Win32,60.59871531,Chrome,1280,720,,,a,0.8337,10,315,1,1,5,17,9,1,0,0,0,1,1,0,0,0,star,triangle,,,,,,,,,,,,,,,,,,,,,,,,,,,,,,,,,,,,,,,,,,,,,,,,,,,,,,
294772,2022-12-02_13h55.02.729,vts_reward_expectancy_bt,2022.2.4,Win32,60.59871531,Chrome,1280,720,,,a,0.7841,10,325,1,1,6,18,3,1,0,1,0,0,1,0,0,0,circle,triangle,,,,,,,,,,,,,,,,,,,,,,,,,,,,,,,,,,,,,,,,,,,,,,,,,,,,,,
294772,2022-12-02_13h55.02.729,vts_reward_expectancy_bt,2022.2.4,Win32,60.59871531,Chrome,1280,720,,,a,2.6936,10,335,1,1,7,19,11,1,0,0,0,1,0,0,1,0,star,hexagon,,,,,,,,,,,,,,,,,,,,,,,,,,,,,,,,,,,,,,,,,,,,,,,,,,,,,,
294772,2022-12-02_13h55.02.729,vts_reward_expectancy_bt,2022.2.4,Win32,60.59871531,Chrome,1280,720,,,l,0.6123,10,345,1,1,8,20,8,1,0,0,1,0,0,0,0,1,hexagon,star,,,,,,,,,,,,,,,,,,,,,,,,,,,,,,,,,,,,,,,,,,,,,,,,,,,,,,
294772,2022-12-02_13h55.02.729,vts_reward_expectancy_bt,2022.2.4,Win32,60.59871531,Chrome,1280,720,,,l,0.6353,1,346,1,1,9,21,1,1,1,0,0,0,0,0,1,0,triangle,hexagon,,,,,,,,,,,,,,,,,,,,,,,,,,,,,,,,,,,,,,,,,,,,,,,,,,,,,,
294772,2022-12-02_13h55.02.729,vts_reward_expectancy_bt,2022.2.4,Win32,60.59871531,Chrome,1280,720,,,a,0.8359,10,356,1,1,10,22,7,1,0,0,1,0,0,1,0,0,hexagon,circle,,,,,,,,,,,,,,,,,,,,,,,,,,,,,,,,,,,,,,,,,,,,,,,,,,,,,,
294772,2022-12-02_13h55.02.729,vts_reward_expectancy_bt,2022.2.4,Win32,60.59871531,Chrome,1280,720,,,l,0.558,1,357,1,1,11,23,5,1,0,1,0,0,0,0,0,1,circle,star,,,,,,,,,,,,,,,,,,,,,,,,,,,,,,,,,,,,,,,,,,,,,,,,,,,,,,
294772,2022-12-02_13h55.02.729,vts_reward_expectancy_bt,2022.2.4,Win32,60.59871531,Chrome,1280,720,,,a,0.184,10,367,1,2,0,24,11,1,0,0,0,1,0,0,1,0,star,hexagon,,,,,,,,,,,,,,,,,,,,,,,,,,,,,,,,,,,,,,,,,,,,,,,,,,,,,,
294772,2022-12-02_13h55.02.729,vts_reward_expectancy_bt,2022.2.4,Win32,60.59871531,Chrome,1280,720,,,l,0.6503,10,377,1,2,1,25,5,1,0,1,0,0,0,0,0,1,circle,star,,,,,,,,,,,,,,,,,,,,,,,,,,,,,,,,,,,,,,,,,,,,,,,,,,,,,,
294772,2022-12-02_13h55.02.729,vts_reward_expectancy_bt,2022.2.4,Win32,60.59871531,Chrome,1280,720,,,l,0.3784,10,387,1,2,2,26,10,1,0,0,0,1,0,1,0,0,star ,circle,,,,,,,,,,,,,,,,,,,,,,,,,,,,,,,,,,,,,,,,,,,,,,,,,,,,,,
294772,2022-12-02_13h55.02.729,vts_reward_expectancy_bt,2022.2.4,Win32,60.59871531,Chrome,1280,720,,,l,0.3832,1,388,1,2,3,27,0,1,1,0,0,0,0,1,0,0,triangle,circle,,,,,,,,,,,,,,,,,,,,,,,,,,,,,,,,,,,,,,,,,,,,,,,,,,,,,,
294772,2022-12-02_13h55.02.729,vts_reward_expectancy_bt,2022.2.4,Win32,60.59871531,Chrome,1280,720,,,a,0.5957,10,398,1,2,4,28,7,1,0,0,1,0,0,1,0,0,hexagon,circle,,,,,,,,,,,,,,,,,,,,,,,,,,,,,,,,,,,,,,,,,,,,,,,,,,,,,,
294772,2022-12-02_13h55.02.729,vts_reward_expectancy_bt,2022.2.4,Win32,60.59871531,Chrome,1280,720,,,a,3.5169,1,399,1,2,5,29,6,1,0,0,1,0,1,0,0,0,hexagon,triangle,,,,,,,,,,,,,,,,,,,,,,,,,,,,,,,,,,,,,,,,,,,,,,,,,,,,,,
294772,2022-12-02_13h55.02.729,vts_reward_expectancy_bt,2022.2.4,Win32,60.59871531,Chrome,1280,720,,,l,0.3919,1,400,1,2,6,30,9,1,0,0,0,1,1,0,0,0,star,triangle,,,,,,,,,,,,,,,,,,,,,,,,,,,,,,,,,,,,,,,,,,,,,,,,,,,,,,
294772,2022-12-02_13h55.02.729,vts_reward_expectancy_bt,2022.2.4,Win32,60.59871531,Chrome,1280,720,,,l,0.5007,10,410,1,2,7,31,8,1,0,0,1,0,0,0,0,1,hexagon,star,,,,,,,,,,,,,,,,,,,,,,,,,,,,,,,,,,,,,,,,,,,,,,,,,,,,,,
294772,2022-12-02_13h55.02.729,vts_reward_expectancy_bt,2022.2.4,Win32,60.59871531,Chrome,1280,720,,,a,0.3509,1,411,1,2,8,32,4,1,0,1,0,0,0,0,1,0,circle,hexagon,,,,,,,,,,,,,,,,,,,,,,,,,,,,,,,,,,,,,,,,,,,,,,,,,,,,,,
294772,2022-12-02_13h55.02.729,vts_reward_expectancy_bt,2022.2.4,Win32,60.59871531,Chrome,1280,720,,,l,0.4621,10,421,1,2,9,33,3,1,0,1,0,0,1,0,0,0,circle,triangle,,,,,,,,,,,,,,,,,,,,,,,,,,,,,,,,,,,,,,,,,,,,,,,,,,,,,,
294772,2022-12-02_13h55.02.729,vts_reward_expectancy_bt,2022.2.4,Win32,60.59871531,Chrome,1280,720,,,a,0.633,1,422,1,2,10,34,1,1,1,0,0,0,0,0,1,0,triangle,hexagon,,,,,,,,,,,,,,,,,,,,,,,,,,,,,,,,,,,,,,,,,,,,,,,,,,,,,,
294772,2022-12-02_13h55.02.729,vts_reward_expectancy_bt,2022.2.4,Win32,60.59871531,Chrome,1280,720,,,a,1.0158,10,432,1,2,11,35,2,1,1,0,0,0,0,0,0,1,triangle,star,,,,,,,,,,,,,,,,,,,,,,,,,,,,,,,,,,,,,,,,,,,,,,,,,,,,,,
294772,2022-12-02_13h55.02.729,vts_reward_expectancy_bt,2022.2.4,Win32,60.59871531,Chrome,1280,720,,,a,0.4614,1,433,2,0,0,0,3,1,0,1,0,0,1,0,0,0,circle,triangle,,,,,,,,,,,,,,,,,,,,,,,,,,,,,,,,,,,,,,,,,,,,,,,,,,,,,,
294772,2022-12-02_13h55.02.729,vts_reward_expectancy_bt,2022.2.4,Win32,60.59871531,Chrome,1280,720,,,a,0.5823,1,434,2,0,1,1,4,1,0,1,0,0,0,0,1,0,circle,hexagon,,,,,,,,,,,,,,,,,,,,,,,,,,,,,,,,,,,,,,,,,,,,,,,,,,,,,,
294772,2022-12-02_13h55.02.729,vts_reward_expectancy_bt,2022.2.4,Win32,60.59871531,Chrome,1280,720,,,l,0.2237,10,444,2,0,2,2,10,1,0,0,0,1,0,1,0,0,star ,circle,,,,,,,,,,,,,,,,,,,,,,,,,,,,,,,,,,,,,,,,,,,,,,,,,,,,,,
294772,2022-12-02_13h55.02.729,vts_reward_expectancy_bt,2022.2.4,Win32,60.59871531,Chrome,1280,720,,,a,0.6171,10,454,2,0,3,3,0,1,1,0,0,0,0,1,0,0,triangle,circle,,,,,,,,,,,,,,,,,,,,,,,,,,,,,,,,,,,,,,,,,,,,,,,,,,,,,,
294772,2022-12-02_13h55.02.729,vts_reward_expectancy_bt,2022.2.4,Win32,60.59871531,Chrome,1280,720,,,l,1.0507,10,464,2,0,4,4,5,1,0,1,0,0,0,0,0,1,circle,star,,,,,,,,,,,,,,,,,,,,,,,,,,,,,,,,,,,,,,,,,,,,,,,,,,,,,,
294772,2022-12-02_13h55.02.729,vts_reward_expectancy_bt,2022.2.4,Win32,60.59871531,Chrome,1280,720,,,a,0.2455,10,474,2,0,5,5,2,1,1,0,0,0,0,0,0,1,triangle,star,,,,,,,,,,,,,,,,,,,,,,,,,,,,,,,,,,,,,,,,,,,,,,,,,,,,,,
294772,2022-12-02_13h55.02.729,vts_reward_expectancy_bt,2022.2.4,Win32,60.59871531,Chrome,1280,720,,,l,0.3511,10,484,2,0,6,6,6,1,0,0,1,0,1,0,0,0,hexagon,triangle,,,,,,,,,,,,,,,,,,,,,,,,,,,,,,,,,,,,,,,,,,,,,,,,,,,,,,
294772,2022-12-02_13h55.02.729,vts_reward_expectancy_bt,2022.2.4,Win32,60.59871531,Chrome,1280,720,,,a,0.6356,1,485,2,0,7,7,1,1,1,0,0,0,0,0,1,0,triangle,hexagon,,,,,,,,,,,,,,,,,,,,,,,,,,,,,,,,,,,,,,,,,,,,,,,,,,,,,,
294772,2022-12-02_13h55.02.729,vts_reward_expectancy_bt,2022.2.4,Win32,60.59871531,Chrome,1280,720,,,l,0.7545,10,495,2,0,8,8,8,1,0,0,1,0,0,0,0,1,hexagon,star,,,,,,,,,,,,,,,,,,,,,,,,,,,,,,,,,,,,,,,,,,,,,,,,,,,,,,
294772,2022-12-02_13h55.02.729,vts_reward_expectancy_bt,2022.2.4,Win32,60.59871531,Chrome,1280,720,,,a,0.7006,1,496,2,0,9,9,7,1,0,0,1,0,0,1,0,0,hexagon,circle,,,,,,,,,,,,,,,,,,,,,,,,,,,,,,,,,,,,,,,,,,,,,,,,,,,,,,
294772,2022-12-02_13h55.02.729,vts_reward_expectancy_bt,2022.2.4,Win32,60.59871531,Chrome,1280,720,,,a,0.5343,10,506,2,0,10,10,9,1,0,0,0,1,1,0,0,0,star,triangle,,,,,,,,,,,,,,,,,,,,,,,,,,,,,,,,,,,,,,,,,,,,,,,,,,,,,,
294772,2022-12-02_13h55.02.729,vts_reward_expectancy_bt,2022.2.4,Win32,60.59871531,Chrome,1280,720,,,l,0.4498,1,507,2,0,11,11,11,1,0,0,0,1,0,0,1,0,star,hexagon,,,,,,,,,,,,,,,,,,,,,,,,,,,,,,,,,,,,,,,,,,,,,,,,,,,,,,
294772,2022-12-02_13h55.02.729,vts_reward_expectancy_bt,2022.2.4,Win32,60.59871531,Chrome,1280,720,,,a,0.5654,1,508,2,1,0,12,11,1,0,0,0,1,0,0,1,0,star,hexagon,,,,,,,,,,,,,,,,,,,,,,,,,,,,,,,,,,,,,,,,,,,,,,,,,,,,,,
294772,2022-12-02_13h55.02.729,vts_reward_expectancy_bt,2022.2.4,Win32,60.59871531,Chrome,1280,720,,,l,0.8677,1,509,2,1,1,13,10,1,0,0,0,1,0,1,0,0,star ,circle,,,,,,,,,,,,,,,,,,,,,,,,,,,,,,,,,,,,,,,,,,,,,,,,,,,,,,
294772,2022-12-02_13h55.02.729,vts_reward_expectancy_bt,2022.2.4,Win32,60.59871531,Chrome,1280,720,,,l,0.6624,1,510,2,1,2,14,0,1,1,0,0,0,0,1,0,0,triangle,circle,,,,,,,,,,,,,,,,,,,,,,,,,,,,,,,,,,,,,,,,,,,,,,,,,,,,,,
294772,2022-12-02_13h55.02.729,vts_reward_expectancy_bt,2022.2.4,Win32,60.59871531,Chrome,1280,720,,,a,0.2977,10,520,2,1,3,15,5,1,0,1,0,0,0,0,0,1,circle,star,,,,,,,,,,,,,,,,,,,,,,,,,,,,,,,,,,,,,,,,,,,,,,,,,,,,,,
294772,2022-12-02_13h55.02.729,vts_reward_expectancy_bt,2022.2.4,Win32,60.59871531,Chrome,1280,720,,,a,0.5641,10,530,2,1,4,16,2,1,1,0,0,0,0,0,0,1,triangle,star,,,,,,,,,,,,,,,,,,,,,,,,,,,,,,,,,,,,,,,,,,,,,,,,,,,,,,
294772,2022-12-02_13h55.02.729,vts_reward_expectancy_bt,2022.2.4,Win32,60.59871531,Chrome,1280,720,,,l,0.7845,1,531,2,1,5,17,7,1,0,0,1,0,0,1,0,0,hexagon,circle,,,,,,,,,,,,,,,,,,,,,,,,,,,,,,,,,,,,,,,,,,,,,,,,,,,,,,
294772,2022-12-02_13h55.02.729,vts_reward_expectancy_bt,2022.2.4,Win32,60.59871531,Chrome,1280,720,,,a,0.7133,1,532,2,1,6,18,1,1,1,0,0,0,0,0,1,0,triangle,hexagon,,,,,,,,,,,,,,,,,,,,,,,,,,,,,,,,,,,,,,,,,,,,,,,,,,,,,,
294772,2022-12-02_13h55.02.729,vts_reward_expectancy_bt,2022.2.4,Win32,60.59871531,Chrome,1280,720,,,a,0.484,1,533,2,1,7,19,8,1,0,0,1,0,0,0,0,1,hexagon,star,,,,,,,,,,,,,,,,,,,,,,,,,,,,,,,,,,,,,,,,,,,,,,,,,,,,,,
294772,2022-12-02_13h55.02.729,vts_reward_expectancy_bt,2022.2.4,Win32,60.59871531,Chrome,1280,720,,,a,0.2509,1,534,2,1,8,20,4,1,0,1,0,0,0,0,1,0,circle,hexagon,,,,,,,,,,,,,,,,,,,,,,,,,,,,,,,,,,,,,,,,,,,,,,,,,,,,,,
294772,2022-12-02_13h55.02.729,vts_reward_expectancy_bt,2022.2.4,Win32,60.59871531,Chrome,1280,720,,,l,0.3508,1,535,2,1,9,21,9,1,0,0,0,1,1,0,0,0,star,triangle,,,,,,,,,,,,,,,,,,,,,,,,,,,,,,,,,,,,,,,,,,,,,,,,,,,,,,
294772,2022-12-02_13h55.02.729,vts_reward_expectancy_bt,2022.2.4,Win32,60.59871531,Chrome,1280,720,,,a,0.4171,1,536,2,1,10,22,3,1,0,1,0,0,1,0,0,0,circle,triangle,,,,,,,,,,,,,,,,,,,,,,,,,,,,,,,,,,,,,,,,,,,,,,,,,,,,,,
294772,2022-12-02_13h55.02.729,vts_reward_expectancy_bt,2022.2.4,Win32,60.59871531,Chrome,1280,720,,,a,0.5816,10,546,2,1,11,23,6,1,0,0,1,0,1,0,0,0,hexagon,triangle,,,,,,,,,,,,,,,,,,,,,,,,,,,,,,,,,,,,,,,,,,,,,,,,,,,,,,
294772,2022-12-02_13h55.02.729,vts_reward_expectancy_bt,2022.2.4,Win32,60.59871531,Chrome,1280,720,,,l,0.768,1,547,2,2,0,24,0,1,1,0,0,0,0,1,0,0,triangle,circle,,,,,,,,,,,,,,,,,,,,,,,,,,,,,,,,,,,,,,,,,,,,,,,,,,,,,,
294772,2022-12-02_13h55.02.729,vts_reward_expectancy_bt,2022.2.4,Win32,60.59871531,Chrome,1280,720,,,a,0.0449,1,548,2,2,1,25,1,1,1,0,0,0,0,0,1,0,triangle,hexagon,,,,,,,,,,,,,,,,,,,,,,,,,,,,,,,,,,,,,,,,,,,,,,,,,,,,,,
294772,2022-12-02_13h55.02.729,vts_reward_expectancy_bt,2022.2.4,Win32,60.59871531,Chrome,1280,720,,,a,0.0458,10,558,2,2,2,26,9,1,0,0,0,1,1,0,0,0,star,triangle,,,,,,,,,,,,,,,,,,,,,,,,,,,,,,,,,,,,,,,,,,,,,,,,,,,,,,
294772,2022-12-02_13h55.02.729,vts_reward_expectancy_bt,2022.2.4,Win32,60.59871531,Chrome,1280,720,,,a,0.2177,1,559,2,2,3,27,4,1,0,1,0,0,0,0,1,0,circle,hexagon,,,,,,,,,,,,,,,,,,,,,,,,,,,,,,,,,,,,,,,,,,,,,,,,,,,,,,
294772,2022-12-02_13h55.02.729,vts_reward_expectancy_bt,2022.2.4,Win32,60.59871531,Chrome,1280,720,,,a,1.3493,1,560,2,2,4,28,2,1,1,0,0,0,0,0,0,1,triangle,star,,,,,,,,,,,,,,,,,,,,,,,,,,,,,,,,,,,,,,,,,,,,,,,,,,,,,,
294772,2022-12-02_13h55.02.729,vts_reward_expectancy_bt,2022.2.4,Win32,60.59871531,Chrome,1280,720,,,a,0.2632,1,561,2,2,5,29,8,1,0,0,1,0,0,0,0,1,hexagon,star,,,,,,,,,,,,,,,,,,,,,,,,,,,,,,,,,,,,,,,,,,,,,,,,,,,,,,
294772,2022-12-02_13h55.02.729,vts_reward_expectancy_bt,2022.2.4,Win32,60.59871531,Chrome,1280,720,,,l,0.3965,1,562,2,2,6,30,11,1,0,0,0,1,0,0,1,0,star,hexagon,,,,,,,,,,,,,,,,,,,,,,,,,,,,,,,,,,,,,,,,,,,,,,,,,,,,,,
294772,2022-12-02_13h55.02.729,vts_reward_expectancy_bt,2022.2.4,Win32,60.59871531,Chrome,1280,720,,,l,0.4288,10,572,2,2,7,31,7,1,0,0,1,0,0,1,0,0,hexagon,circle,,,,,,,,,,,,,,,,,,,,,,,,,,,,,,,,,,,,,,,,,,,,,,,,,,,,,,
294772,2022-12-02_13h55.02.729,vts_reward_expectancy_bt,2022.2.4,Win32,60.59871531,Chrome,1280,720,,,a,0.4783,1,573,2,2,8,32,3,1,0,1,0,0,1,0,0,0,circle,triangle,,,,,,,,,,,,,,,,,,,,,,,,,,,,,,,,,,,,,,,,,,,,,,,,,,,,,,
294772,2022-12-02_13h55.02.729,vts_reward_expectancy_bt,2022.2.4,Win32,60.59871531,Chrome,1280,720,,,l,0.8369,1,574,2,2,9,33,6,1,0,0,1,0,1,0,0,0,hexagon,triangle,,,,,,,,,,,,,,,,,,,,,,,,,,,,,,,,,,,,,,,,,,,,,,,,,,,,,,
294772,2022-12-02_13h55.02.729,vts_reward_expectancy_bt,2022.2.4,Win32,60.59871531,Chrome,1280,720,,,a,0.6202,1,575,2,2,10,34,10,1,0,0,0,1,0,1,0,0,star ,circle,,,,,,,,,,,,,,,,,,,,,,,,,,,,,,,,,,,,,,,,,,,,,,,,,,,,,,
294772,2022-12-02_13h55.02.729,vts_reward_expectancy_bt,2022.2.4,Win32,60.59871531,Chrome,1280,720,,,a,0.8335,1,576,2,2,11,35,5,1,0,1,0,0,0,0,0,1,circle,star,,,,,,,,,,,,,,,,,,,,,,,,,,,,,,,,,,,,,,,,,,,,,,,,,,,,,,
294772,2022-12-02_13h55.02.729,vts_reward_expectancy_bt,2022.2.4,Win32,60.59871531,Chrome,1280,720,,,,,,,,,,,,,,,,,,,,,,,139,B,triangle,1,0,d,2.0495,0,0,0,0,0,1,,,,,,,,,,,,,,,,,,,,,,,,,,,,,,,,,,,,,,,,,
294772,2022-12-02_13h55.02.729,vts_reward_expectancy_bt,2022.2.4,Win32,60.59871531,Chrome,1280,720,,,,,,,,,,,,,,,,,,,,,,,181,Y,hexagon,1,0,f,0.593,0,1,0,1,0,1,,,,,,,,,,,,,,,,,,,,,,,,,,,,,,,,,,,,,,,,,
294772,2022-12-02_13h55.02.729,vts_reward_expectancy_bt,2022.2.4,Win32,60.59871531,Chrome,1280,720,,,,,,,,,,,,,,,,,,,,,,,146,U,circle,1,0,d,1.3992,0,2,0,2,0,1,,,,,,,,,,,,,,,,,,,,,,,,,,,,,,,,,,,,,,,,,
294772,2022-12-02_13h55.02.729,vts_reward_expectancy_bt,2022.2.4,Win32,60.59871531,Chrome,1280,720,,,,,,,,,,,,,,,,,,,,,,,167,S,star,1,0,f,0.6176,0,3,0,3,0,1,,,,,,,,,,,,,,,,,,,,,,,,,,,,,,,,,,,,,,,,,
294772,2022-12-02_13h55.02.729,vts_reward_expectancy_bt,2022.2.4,Win32,60.59871531,Chrome,1280,720,,,,,,,,,,,,,,,,,,,,,,,174,W,triangle,1,0,f,0.4953,0,4,0,4,0,1,,,,,,,,,,,,,,,,,,,,,,,,,,,,,,,,,,,,,,,,,
294772,2022-12-02_13h55.02.729,vts_reward_expectancy_bt,2022.2.4,Win32,60.59871531,Chrome,1280,720,,,,,,,,,,,,,,,,,,,,,,,132,H,hexagon,1,0,d,0.6502,0,5,0,5,0,1,,,,,,,,,,,,,,,,,,,,,,,,,,,,,,,,,,,,,,,,,
294772,2022-12-02_13h55.02.729,vts_reward_expectancy_bt,2022.2.4,Win32,60.59871531,Chrome,1280,720,,,,,,,,,,,,,,,,,,,,,,,125,F,circle,1,0,d,0.7038,0,6,0,6,0,1,,,,,,,,,,,,,,,,,,,,,,,,,,,,,,,,,,,,,,,,,
294772,2022-12-02_13h55.02.729,vts_reward_expectancy_bt,2022.2.4,Win32,60.59871531,Chrome,1280,720,,,,,,,,,,,,,,,,,,,,,,,160,D,star,1,0,f,0.6334,0,7,0,7,0,1,,,,,,,,,,,,,,,,,,,,,,,,,,,,,,,,,,,,,,,,,
294772,2022-12-02_13h55.02.729,vts_reward_expectancy_bt,2022.2.4,Win32,60.59871531,Chrome,1280,720,,,,,,,,,,,,,,,,,,,,,,,139,B,star,1,0,d,0.7172,0,8,0,8,0,1,,,,,,,,,,,,,,,,,,,,,,,,,,,,,,,,,,,,,,,,,
294772,2022-12-02_13h55.02.729,vts_reward_expectancy_bt,2022.2.4,Win32,60.59871531,Chrome,1280,720,,,,,,,,,,,,,,,,,,,,,,,181,Y,triangle,1,0,f,1.0703,0,9,0,9,0,1,,,,,,,,,,,,,,,,,,,,,,,,,,,,,,,,,,,,,,,,,
294772,2022-12-02_13h55.02.729,vts_reward_expectancy_bt,2022.2.4,Win32,60.59871531,Chrome,1280,720,,,,,,,,,,,,,,,,,,,,,,,125,W,circle,1,0,,,1,,,,,,k,1.4827,0,0,0,0,1,,,,,,,,,,,,,,,,,,,,,,,,,,,,,,,,,,
294772,2022-12-02_13h55.02.729,vts_reward_expectancy_bt,2022.2.4,Win32,60.59871531,Chrome,1280,720,,,,,,,,,,,,,,,,,,,,,,,132,Y,hexagon,1,0,,,1,,,,,,k,0.8254,1,0,1,0,1,,,,,,,,,,,,,,,,,,,,,,,,,,,,,,,,,,
294772,2022-12-02_13h55.02.729,vts_reward_expectancy_bt,2022.2.4,Win32,60.59871531,Chrome,1280,720,,,,,,,,,,,,,,,,,,,,,,,146,S,triangle,1,0,,,1,,,,,,k,0.9058,2,0,2,0,1,,,,,,,,,,,,,,,,,,,,,,,,,,,,,,,,,,
294772,2022-12-02_13h55.02.729,vts_reward_expectancy_bt,2022.2.4,Win32,60.59871531,Chrome,1280,720,,,,,,,,,,,,,,,,,,,,,,,181,B,star,1,0,,,1,,,,,,j,0.7354,3,0,3,0,1,,,,,,,,,,,,,,,,,,,,,,,,,,,,,,,,,,
294772,2022-12-02_13h55.02.729,vts_reward_expectancy_bt,2022.2.4,Win32,60.59871531,Chrome,1280,720,,,,,,,,,,,,,,,,,,,,,,,174,U,circle,1,0,,,1,,,,,,k,0.7085,4,0,4,0,1,,,,,,,,,,,,,,,,,,,,,,,,,,,,,,,,,,
294772,2022-12-02_13h55.02.729,vts_reward_expectancy_bt,2022.2.4,Win32,60.59871531,Chrome,1280,720,,,,,,,,,,,,,,,,,,,,,,,160,F,hexagon,1,0,,,1,,,,,,j,0.9674,5,0,5,0,1,,,,,,,,,,,,,,,,,,,,,,,,,,,,,,,,,,
294772,2022-12-02_13h55.02.729,vts_reward_expectancy_bt,2022.2.4,Win32,60.59871531,Chrome,1280,720,,,,,,,,,,,,,,,,,,,,,,,139,H,triangle,1,0,,,1,,,,,,j,0.717,6,0,6,0,1,,,,,,,,,,,,,,,,,,,,,,,,,,,,,,,,,,
294772,2022-12-02_13h55.02.729,vts_reward_expectancy_bt,2022.2.4,Win32,60.59871531,Chrome,1280,720,,,,,,,,,,,,,,,,,,,,,,,167,D,star,1,0,,,1,,,,,,j,0.5503,7,0,7,0,1,,,,,,,,,,,,,,,,,,,,,,,,,,,,,,,,,,
294772,2022-12-02_13h55.02.729,vts_reward_expectancy_bt,2022.2.4,Win32,60.59871531,Chrome,1280,720,,,,,,,,,,,,,,,,,,,,,,,125,W,hexagon,1,0,,,1,,,,,,k,0.5324,8,0,8,0,1,,,,,,,,,,,,,,,,,,,,,,,,,,,,,,,,,,
294772,2022-12-02_13h55.02.729,vts_reward_expectancy_bt,2022.2.4,Win32,60.59871531,Chrome,1280,720,,,,,,,,,,,,,,,,,,,,,,,132,Y,circle,1,0,,,1,,,,,,k,0.5252,9,0,9,0,1,,,,,,,,,,,,,,,,,,,,,,,,,,,,,,,,,,
294772,2022-12-02_13h55.02.729,vts_reward_expectancy_bt,2022.2.4,Win32,60.59871531,Chrome,1280,720,,,,,0,576,,,,,,,,,,,,,,,,,132,D,hexagon,1,0,,,2,,,,,,,,,,,,,-1,letter,NA,j,1.631,vtsPrac,0,0,0,0,1,,,,,,,,,,,,,,,,,,,,,,,
294772,2022-12-02_13h55.02.729,vts_reward_expectancy_bt,2022.2.4,Win32,60.59871531,Chrome,1280,720,,,,,0,576,,,,,,,,,,,,,,,,,181,U,circle,1,0,,,2,,,,,,,,,,,,,repeat,letter,lettRpt,k,0.5702,vtsPrac,1,0,1,0,1,,,,,,,,,,,,,,,,,,,,,,,
294772,2022-12-02_13h55.02.729,vts_reward_expectancy_bt,2022.2.4,Win32,60.59871531,Chrome,1280,720,,,,,0,576,,,,,,,,,,,,,,,,,146,H,hexagon,1,0,,,2,,,,,,,,,,,,,switch,number,numSwt,d,0.966,vtsPrac,2,0,2,0,1,,,,,,,,,,,,,,,,,,,,,,,
294772,2022-12-02_13h55.02.729,vts_reward_expectancy_bt,2022.2.4,Win32,60.59871531,Chrome,1280,720,,,,,0,576,,,,,,,,,,,,,,,,,125,Y,circle,1,0,,,2,,,,,,,,,,,,,repeat,number,numRpt,d,0.5793,vtsPrac,3,0,3,0,1,,,,,,,,,,,,,,,,,,,,,,,
294772,2022-12-02_13h55.02.729,vts_reward_expectancy_bt,2022.2.4,Win32,60.59871531,Chrome,1280,720,,,,,0,576,,,,,,,,,,,,,,,,,132,D,hexagon,1,0,,,2,,,,,,,,,,,,,repeat,number,numRpt,d,0.4123,vtsPrac,4,0,4,0,1,,,,,,,,,,,,,,,,,,,,,,,
294772,2022-12-02_13h55.02.729,vts_reward_expectancy_bt,2022.2.4,Win32,60.59871531,Chrome,1280,720,,,,,0,576,,,,,,,,,,,,,,,,,181,U,triangle,1,0,,,2,,,,,,,,,,,,,switch,letter,lettSwt,k,1.0508,vtsPrac,5,0,5,0,1,,,,,,,,,,,,,,,,,,,,,,,
294772,2022-12-02_13h55.02.729,vts_reward_expectancy_bt,2022.2.4,Win32,60.59871531,Chrome,1280,720,,,,,0,576,,,,,,,,,,,,,,,,,146,H,hexagon,1,0,,,2,,,,,,,,,,,,,switch,number,numSwt,d,1.3334,vtsPrac,6,0,6,0,1,,,,,,,,,,,,,,,,,,,,,,,
294772,2022-12-02_13h55.02.729,vts_reward_expectancy_bt,2022.2.4,Win32,60.59871531,Chrome,1280,720,,,,,0,576,,,,,,,,,,,,,,,,,125,Y,triangle,1,0,,,2,,,,,,,,,,,,,repeat,number,numRpt,d,0.767,vtsPrac,7,0,7,0,1,,,,,,,,,,,,,,,,,,,,,,,
294772,2022-12-02_13h55.02.729,vts_reward_expectancy_bt,2022.2.4,Win32,60.59871531,Chrome,1280,720,,,,,0,576,,,,,,,,,,,,,,,,,174,U,hexagon,1,0,,,2,,,,,,,,,,,,,switch,letter,lettSwt,k,0.5181,vtsPrac,8,0,8,0,1,,,,,,,,,,,,,,,,,,,,,,,
294772,2022-12-02_13h55.02.729,vts_reward_expectancy_bt,2022.2.4,Win32,60.59871531,Chrome,1280,720,,,,,0,576,,,,,,,,,,,,,,,,,125,S,triangle,1,0,,,2,,,,,,,,,,,,,switch,number,numSwt,d,1.133,vtsPrac,9,0,9,0,1,,,,,,,,,,,,,,,,,,,,,,,
294772,2022-12-02_13h55.02.729,vts_reward_expectancy_bt,2022.2.4,Win32,60.59871531,Chrome,1280,720,,,,,0,576,,,,,,,,,,,,,,,,,132,Y,star,1,0,,,2,,,,,,,,,,,,,repeat,number,numRpt,d,0.7312,vtsPrac,10,0,10,0,1,,,,,,,,,,,,,,,,,,,,,,,
294772,2022-12-02_13h55.02.729,vts_reward_expectancy_bt,2022.2.4,Win32,60.59871531,Chrome,1280,720,,,,,0,576,,,,,,,,,,,,,,,,,146,F,hexagon,1,0,,,2,,,,,,,,,,,,,switch,letter,lettSwt,j,0.7154,vtsPrac,11,0,11,0,1,,,,,,,,,,,,,,,,,,,,,,,
294772,2022-12-02_13h55.02.729,vts_reward_expectancy_bt,2022.2.4,Win32,60.59871531,Chrome,1280,720,,,,,0,576,,,,,,,,,,,,,,,,,146,W,circle,1,0,,,2,,,,,,,,,,,,,repeat,letter,lettRpt,k,0.8501,vtsPrac,12,0,12,0,1,,,,,,,,,,,,,,,,,,,,,,,
294772,2022-12-02_13h55.02.729,vts_reward_expectancy_bt,2022.2.4,Win32,60.59871531,Chrome,1280,720,,,,,0,576,,,,,,,,,,,,,,,,,125,D,triangle,1,0,,,2,,,,,,,,,,,,,switch,number,numSwt,d,0.5005,vtsPrac,13,0,13,0,1,,,,,,,,,,,,,,,,,,,,,,,
294772,2022-12-02_13h55.02.729,vts_reward_expectancy_bt,2022.2.4,Win32,60.59871531,Chrome,1280,720,,,,,0,576,,,,,,,,,,,,,,,,,167,U,star,1,0,,,2,,,,,,,,,,,,,repeat,number,numRpt,f,0.7638,vtsPrac,14,0,14,0,1,,,,,,,,,,,,,,,,,,,,,,,
294772,2022-12-02_13h55.02.729,vts_reward_expectancy_bt,2022.2.4,Win32,60.59871531,Chrome,1280,720,,,,,0,576,,,,,,,,,,,,,,,,,174,H,hexagon,1,0,,,2,,,,,,,,,,,,,repeat,number,numRpt,f,0.6478,vtsPrac,15,0,15,0,1,,,,,,,,,,,,,,,,,,,,,,,
294772,2022-12-02_13h55.02.729,vts_reward_expectancy_bt,2022.2.4,Win32,60.59871531,Chrome,1280,720,,,,,0,576,,,,,,,,,,,,,,,,,146,D,hexagon,1,0,,,2,,,,,,,,,,,,,switch,letter,lettSwt,j,0.4797,vtsPrac,16,0,16,0,1,,,,,,,,,,,,,,,,,,,,,,,
294772,2022-12-02_13h55.02.729,vts_reward_expectancy_bt,2022.2.4,Win32,60.59871531,Chrome,1280,720,,,,,0,576,,,,,,,,,,,,,,,,,167,Y,triangle,1,0,,,2,,,,,,,,,,,,,repeat,letter,lettRpt,k,1.1612,vtsPrac,17,0,17,0,1,,,,,,,,,,,,,,,,,,,,,,,
294772,2022-12-02_13h55.02.729,vts_reward_expectancy_bt,2022.2.4,Win32,60.59871531,Chrome,1280,720,,,,,0,576,,,,,,,,,,,,,,,,,160,H,triangle,1,0,,,2,,,,,,,,,,,,,switch,number,numSwt,f,2.0623,vtsPrac,18,0,18,0,1,,,,,,,,,,,,,,,,,,,,,,,
294772,2022-12-02_13h55.02.729,vts_reward_expectancy_bt,2022.2.4,Win32,60.59871531,Chrome,1280,720,,,,,0,576,,,,,,,,,,,,,,,,,125,B,circle,1,0,,,2,,,,,,,,,,,,,switch,letter,lettSwt,j,1.334,vtsPrac,19,0,19,0,1,,,,,,,,,,,,,,,,,,,,,,,
294772,2022-12-02_13h55.02.729,vts_reward_expectancy_bt,2022.2.4,Win32,60.59871531,Chrome,1280,720,,,,,0,576,,,,,,,,,,,,,,,,,181,D,triangle,1,0,,,2,,,,,,,,,,,,,switch,number,numSwt,f,1.1517,vtsPrac,20,0,20,0,1,,,,,,,,,,,,,,,,,,,,,,,
294772,2022-12-02_13h55.02.729,vts_reward_expectancy_bt,2022.2.4,Win32,60.59871531,Chrome,1280,720,,,,,0,576,,,,,,,,,,,,,,,,,125,Y,star,1,0,,,2,,,,,,,,,,,,,switch,letter,lettSwt,k,1.0651,vtsPrac,21,0,21,0,1,,,,,,,,,,,,,,,,,,,,,,,
294772,2022-12-02_13h55.02.729,vts_reward_expectancy_bt,2022.2.4,Win32,60.59871531,Chrome,1280,720,,,,,0,576,,,,,,,,,,,,,,,,,132,W,circle,1,0,,,2,,,,,,,,,,,,,switch,number,numSwt,d,0.6125,vtsPrac,22,0,22,0,1,,,,,,,,,,,,,,,,,,,,,,,
294772,2022-12-02_13h55.02.729,vts_reward_expectancy_bt,2022.2.4,Win32,60.59871531,Chrome,1280,720,,,,,0,576,,,,,,,,,,,,,,,,,167,S,star,1,0,,,2,,,,,,,,,,,,,repeat,number,numRpt,f,0.6639,vtsPrac,23,0,23,0,1,,,,,,,,,,,,,,,,,,,,,,,
294772,2022-12-02_13h55.02.729,vts_reward_expectancy_bt,2022.2.4,Win32,60.59871531,Chrome,1280,720,,,,,0,576,,,,,,,,,,,,,,,,,139,Y,star,1,0,,,2,,,,,,,,,,,,,repeat,number,numRpt,d,0.6482,vtsPrac,24,0,24,0,1,,,,,,,,,,,,,,,,,,,,,,,
294772,2022-12-02_13h55.02.729,vts_reward_expectancy_bt,2022.2.4,Win32,60.59871531,Chrome,1280,720,,,,,0,576,,,,,,,,,,,,,,,,,146,H,hexagon,0,0,,,2,,,,,,,,,,,,,repeat,number,NA,f,0.7468,vtsPrac,25,0,25,0,1,,,,,,,,,,,,,,,,,,,,,,,
294772,2022-12-02_13h55.02.729,vts_reward_expectancy_bt,2022.2.4,Win32,60.59871531,Chrome,1280,720,,,,,0,576,,,,,,,,,,,,,,,,,174,D,circle,1,1,,,2,,,,,,,,,,,,,repeat,number,numRpt,f,0.6517,vtsPrac,26,0,26,0,1,,,,,,,,,,,,,,,,,,,,,,,
294772,2022-12-02_13h55.02.729,vts_reward_expectancy_bt,2022.2.4,Win32,60.59871531,Chrome,1280,720,,,,,0,576,,,,,,,,,,,,,,,,,181,S,triangle,1,0,,,2,,,,,,,,,,,,,repeat,number,numRpt,f,0.7115,vtsPrac,27,0,27,0,1,,,,,,,,,,,,,,,,,,,,,,,
294772,2022-12-02_13h55.02.729,vts_reward_expectancy_bt,2022.2.4,Win32,60.59871531,Chrome,1280,720,,,,,0,576,,,,,,,,,,,,,,,,,139,D,triangle,1,0,,,2,,,,,,,,,,,,,switch,letter,lettSwt,j,0.5793,vtsPrac,28,0,28,0,1,,,,,,,,,,,,,,,,,,,,,,,
294772,2022-12-02_13h55.02.729,vts_reward_expectancy_bt,2022.2.4,Win32,60.59871531,Chrome,1280,720,,,,,0,576,,,,,,,,,,,,,,,,,181,S,circle,1,0,,,2,,,,,,,,,,,,,switch,number,numSwt,f,0.6984,vtsPrac,29,0,29,0,1,,,,,,,,,,,,,,,,,,,,,,,
294772,2022-12-02_13h55.02.729,vts_reward_expectancy_bt,2022.2.4,Win32,60.59871531,Chrome,1280,720,,,,,0,576,,,,,,,,,,,,,,,,,167,B,hexagon,1,0,,,2,,,,,,,,,,,,,repeat,number,numRpt,f,1.4476,vtsPrac,30,0,30,0,1,,,,,,,,,,,,,,,,,,,,,,,
294772,2022-12-02_13h55.02.729,vts_reward_expectancy_bt,2022.2.4,Win32,60.59871531,Chrome,1280,720,,,,,0,576,,,,,,,,,,,,,,,,,146,U,circle,1,0,,,2,,,,,,,,,,,,,switch,letter,lettSwt,k,0.5139,vtsPrac,31,0,31,0,1,,,,,,,,,,,,,,,,,,,,,,,
294772,2022-12-02_13h55.02.729,vts_reward_expectancy_bt,2022.2.4,Win32,60.59871531,Chrome,1280,720,,,,,,,,,,,,,,,,,,,,,,,,,,,,,,,,,,,,,,,,,,,,,,,,,,,,,,,,,,,,,,,,,,,,,,,,,,,,
294772,2022-12-02_13h55.02.729,vts_reward_expectancy_bt,2022.2.4,Win32,60.59871531,Chrome,1280,720,,,,,,,,,,,,,,,,,,,,,,,,,,,,,,,,,,,,,,,,,,,,,,,,,,,,,,,,,,,,,,,,,,,,,,,,,,,,
294772,2022-12-02_13h55.02.729,vts_reward_expectancy_bt,2022.2.4,Win32,60.59871531,Chrome,1280,720,,,,,0,576,,,,,,,,,,,,,,,,,160,W,hexagon,1,0,,,,,,,,,,,,,,,,switch,number,numSwt,f,0.6959,noRew,,,,,,0,0,0,0,0,1,,,,,,,,,,,,,,,,,
294772,2022-12-02_13h55.02.729,vts_reward_expectancy_bt,2022.2.4,Win32,60.59871531,Chrome,1280,720,,,,,0,576,,,,,,,,,,,,,,,,,132,F,circle,1,0,,,,,,,,,,,,,,,,switch,letter,lettSwt,j,0.8628,noRew,,,,,,0,1,0,1,0,1,,,,,,,,,,,,,,,,,
294772,2022-12-02_13h55.02.729,vts_reward_expectancy_bt,2022.2.4,Win32,60.59871531,Chrome,1280,720,,,,,0,576,,,,,,,,,,,,,,,,,139,B,hexagon,1,0,,,,,,,,,,,,,,,,switch,number,numSwt,d,0.6635,noRew,,,,,,0,2,0,2,0,1,,,,,,,,,,,,,,,,,
294772,2022-12-02_13h55.02.729,vts_reward_expectancy_bt,2022.2.4,Win32,60.59871531,Chrome,1280,720,,,,,0,576,,,,,,,,,,,,,,,,,167,H,circle,1,0,,,,,,,,,,,,,,,,switch,letter,lettSwt,j,1.0625,noRew,,,,,,0,3,0,3,0,1,,,,,,,,,,,,,,,,,
294772,2022-12-02_13h55.02.729,vts_reward_expectancy_bt,2022.2.4,Win32,60.59871531,Chrome,1280,720,,,,,0,576,,,,,,,,,,,,,,,,,160,W,circle,1,0,,,,,,,,,,,,,,,,switch,number,numSwt,f,1.1812,noRew,,,,,,0,4,0,4,0,1,,,,,,,,,,,,,,,,,
294772,2022-12-02_13h55.02.729,vts_reward_expectancy_bt,2022.2.4,Win32,60.59871531,Chrome,1280,720,,,,,0,576,,,,,,,,,,,,,,,,,132,F,triangle,1,0,,,,,,,,,,,,,,,,repeat,number,numRpt,d,0.9164,noRew,,,,,,0,5,0,5,0,1,,,,,,,,,,,,,,,,,
294772,2022-12-02_13h55.02.729,vts_reward_expectancy_bt,2022.2.4,Win32,60.59871531,Chrome,1280,720,,,,,0,576,,,,,,,,,,,,,,,,,139,B,hexagon,1,0,,,,,,,,,,,,,,,,switch,letter,lettSwt,j,0.4627,noRew,,,,,,0,6,0,6,0,1,,,,,,,,,,,,,,,,,
294772,2022-12-02_13h55.02.729,vts_reward_expectancy_bt,2022.2.4,Win32,60.59871531,Chrome,1280,720,,,,,0,576,,,,,,,,,,,,,,,,,167,H,star,1,0,,,,,,,,,,,,,,,,switch,number,numSwt,f,0.7971,noRew,,,,,,0,7,0,7,0,1,,,,,,,,,,,,,,,,,
294772,2022-12-02_13h55.02.729,vts_reward_expectancy_bt,2022.2.4,Win32,60.59871531,Chrome,1280,720,,,,,0,576,,,,,,,,,,,,,,,,,125,H,hexagon,1,0,,,,,,,,,,,,,,,,repeat,number,numRpt,d,0.7503,noRew,,,,,,0,8,0,8,0,1,,,,,,,,,,,,,,,,,
294772,2022-12-02_13h55.02.729,vts_reward_expectancy_bt,2022.2.4,Win32,60.59871531,Chrome,1280,720,,,,,0,576,,,,,,,,,,,,,,,,,174,U,triangle,1,0,,,,,,,,,,,,,,,,switch,letter,lettSwt,k,0.6968,noRew,,,,,,0,9,0,9,0,1,,,,,,,,,,,,,,,,,
294772,2022-12-02_13h55.02.729,vts_reward_expectancy_bt,2022.2.4,Win32,60.59871531,Chrome,1280,720,,,,,0,576,,,,,,,,,,,,,,,,,181,F,star,1,0,,,,,,,,,,,,,,,,switch,number,numSwt,f,0.9813,noRew,,,,,,0,10,0,10,0,1,,,,,,,,,,,,,,,,,
294772,2022-12-02_13h55.02.729,vts_reward_expectancy_bt,2022.2.4,Win32,60.59871531,Chrome,1280,720,,,,,0,576,,,,,,,,,,,,,,,,,160,S,hexagon,1,0,,,,,,,,,,,,,,,,repeat,number,numRpt,f,1.1501,noRew,,,,,,0,11,0,11,0,1,,,,,,,,,,,,,,,,,
294772,2022-12-02_13h55.02.729,vts_reward_expectancy_bt,2022.2.4,Win32,60.59871531,Chrome,1280,720,,,,,0,576,,,,,,,,,,,,,,,,,167,U,hexagon,1,0,,,,,,,,,,,,,,,,repeat,number,numRpt,f,0.5792,noRew,,,,,,0,12,0,12,0,1,,,,,,,,,,,,,,,,,
294772,2022-12-02_13h55.02.729,vts_reward_expectancy_bt,2022.2.4,Win32,60.59871531,Chrome,1280,720,,,,,0,576,,,,,,,,,,,,,,,,,139,D,triangle,1,0,,,,,,,,,,,,,,,,repeat,number,numRpt,d,1.9292,noRew,,,,,,0,13,0,13,0,1,,,,,,,,,,,,,,,,,
294772,2022-12-02_13h55.02.729,vts_reward_expectancy_bt,2022.2.4,Win32,60.59871531,Chrome,1280,720,,,,,0,576,,,,,,,,,,,,,,,,,160,Y,triangle,1,0,,,,,,,,,,,,,,,,repeat,number,numRpt,f,0.8644,noRew,,,,,,0,14,0,14,0,1,,,,,,,,,,,,,,,,,
294772,2022-12-02_13h55.02.729,vts_reward_expectancy_bt,2022.2.4,Win32,60.59871531,Chrome,1280,720,,,,,0,576,,,,,,,,,,,,,,,,,125,B,hexagon,1,0,,,,,,,,,,,,,,,,switch,letter,lettSwt,j,0.8304,noRew,,,,,,0,15,0,15,0,1,,,,,,,,,,,,,,,,,
294772,2022-12-02_13h55.02.729,vts_reward_expectancy_bt,2022.2.4,Win32,60.59871531,Chrome,1280,720,,,,,0,576,,,,,,,,,,,,,,,,,139,B,triangle,1,0,,,,,,,,,,,,,,,,repeat,letter,lettRpt,j,0.6341,noRew,,,,,,0,16,0,16,0,1,,,,,,,,,,,,,,,,,
294772,2022-12-02_13h55.02.729,vts_reward_expectancy_bt,2022.2.4,Win32,60.59871531,Chrome,1280,720,,,,,0,576,,,,,,,,,,,,,,,,,132,F,circle,1,0,,,,,,,,,,,,,,,,switch,number,numSwt,d,0.7958,noRew,,,,,,0,17,0,17,0,1,,,,,,,,,,,,,,,,,
294772,2022-12-02_13h55.02.729,vts_reward_expectancy_bt,2022.2.4,Win32,60.59871531,Chrome,1280,720,,,,,0,576,,,,,,,,,,,,,,,,,174,W,hexagon,1,0,,,,,,,,,,,,,,,,repeat,number,numRpt,f,0.6653,noRew,,,,,,0,18,0,18,0,1,,,,,,,,,,,,,,,,,
294772,2022-12-02_13h55.02.729,vts_reward_expectancy_bt,2022.2.4,Win32,60.59871531,Chrome,1280,720,,,,,0,576,,,,,,,,,,,,,,,,,181,U,star,1,0,,,,,,,,,,,,,,,,repeat,number,numRpt,f,0.7621,noRew,,,,,,0,19,0,19,0,1,,,,,,,,,,,,,,,,,
294772,2022-12-02_13h55.02.729,vts_reward_expectancy_bt,2022.2.4,Win32,60.59871531,Chrome,1280,720,,,,,0,576,,,,,,,,,,,,,,,,,174,B,star,1,0,,,,,,,,,,,,,,,,switch,letter,lettSwt,j,0.4342,noRew,,,,,,0,20,0,20,0,1,,,,,,,,,,,,,,,,,
294772,2022-12-02_13h55.02.729,vts_reward_expectancy_bt,2022.2.4,Win32,60.59871531,Chrome,1280,720,,,,,0,576,,,,,,,,,,,,,,,,,132,F,hexagon,1,0,,,,,,,,,,,,,,,,switch,number,numSwt,d,0.6952,noRew,,,,,,0,21,0,21,0,1,,,,,,,,,,,,,,,,,
294772,2022-12-02_13h55.02.729,vts_reward_expectancy_bt,2022.2.4,Win32,60.59871531,Chrome,1280,720,,,,,0,576,,,,,,,,,,,,,,,,,167,Y,star,1,0,,,,,,,,,,,,,,,,repeat,number,numRpt,f,0.7458,noRew,,,,,,0,22,0,22,0,1,,,,,,,,,,,,,,,,,
294772,2022-12-02_13h55.02.729,vts_reward_expectancy_bt,2022.2.4,Win32,60.59871531,Chrome,1280,720,,,,,0,576,,,,,,,,,,,,,,,,,160,D,triangle,1,0,,,,,,,,,,,,,,,,switch,letter,lettSwt,j,1.6978,noRew,,,,,,0,23,0,23,0,1,,,,,,,,,,,,,,,,,
294772,2022-12-02_13h55.02.729,vts_reward_expectancy_bt,2022.2.4,Win32,60.59871531,Chrome,1280,720,,,,,0,576,,,,,,,,,,,,,,,,,146,Y,star,1,0,,,,,,,,,,,,,,,,repeat,letter,lettRpt,k,0.7651,noRew,,,,,,0,24,0,24,0,1,,,,,,,,,,,,,,,,,
294772,2022-12-02_13h55.02.729,vts_reward_expectancy_bt,2022.2.4,Win32,60.59871531,Chrome,1280,720,,,,,0,576,,,,,,,,,,,,,,,,,160,H,triangle,1,0,,,,,,,,,,,,,,,,switch,number,numSwt,f,0.7834,noRew,,,,,,0,25,0,25,0,1,,,,,,,,,,,,,,,,,
294772,2022-12-02_13h55.02.729,vts_reward_expectancy_bt,2022.2.4,Win32,60.59871531,Chrome,1280,720,,,,,0,576,,,,,,,,,,,,,,,,,174,D,hexagon,1,0,,,,,,,,,,,,,,,,repeat,number,numRpt,f,0.6612,noRew,,,,,,0,26,0,26,0,1,,,,,,,,,,,,,,,,,
294772,2022-12-02_13h55.02.729,vts_reward_expectancy_bt,2022.2.4,Win32,60.59871531,Chrome,1280,720,,,,,0,576,,,,,,,,,,,,,,,,,132,U,star,1,0,,,,,,,,,,,,,,,,repeat,number,numRpt,d,0.9625,noRew,,,,,,0,27,0,27,0,1,,,,,,,,,,,,,,,,,
294772,2022-12-02_13h55.02.729,vts_reward_expectancy_bt,2022.2.4,Win32,60.59871531,Chrome,1280,720,,,,,0,576,,,,,,,,,,,,,,,,,181,D,circle,1,0,,,,,,,,,,,,,,,,repeat,number,numRpt,f,0.9793,noRew,,,,,,0,28,0,28,0,1,,,,,,,,,,,,,,,,,
294772,2022-12-02_13h55.02.729,vts_reward_expectancy_bt,2022.2.4,Win32,60.59871531,Chrome,1280,720,,,,,0,576,,,,,,,,,,,,,,,,,139,B,hexagon,1,0,,,,,,,,,,,,,,,,repeat,number,numRpt,d,1.1965,noRew,,,,,,0,29,0,29,0,1,,,,,,,,,,,,,,,,,
294772,2022-12-02_13h55.02.729,vts_reward_expectancy_bt,2022.2.4,Win32,60.59871531,Chrome,1280,720,,,,,0,576,,,,,,,,,,,,,,,,,146,H,hexagon,1,0,,,,,,,,,,,,,,,,repeat,number,numRpt,d,0.7637,noRew,,,,,,0,30,0,30,0,1,,,,,,,,,,,,,,,,,
294772,2022-12-02_13h55.02.729,vts_reward_expectancy_bt,2022.2.4,Win32,60.59871531,Chrome,1280,720,,,,,0,576,,,,,,,,,,,,,,,,,167,F,star,1,0,,,,,,,,,,,,,,,,switch,letter,lettSwt,j,1.0947,noRew,,,,,,0,31,0,31,0,1,,,,,,,,,,,,,,,,,
294772,2022-12-02_13h55.02.729,vts_reward_expectancy_bt,2022.2.4,Win32,60.59871531,Chrome,1280,720,,,,,0,576,,,,,,,,,,,,,,,,,146,W,triangle,1,0,,,,,,,,,,,,,,,,repeat,letter,lettRpt,k,1.0463,noRew,,,,,,0,32,0,32,0,1,,,,,,,,,,,,,,,,,
294772,2022-12-02_13h55.02.729,vts_reward_expectancy_bt,2022.2.4,Win32,60.59871531,Chrome,1280,720,,,,,0,576,,,,,,,,,,,,,,,,,160,U,circle,1,0,,,,,,,,,,,,,,,,switch,number,numSwt,f,0.847,noRew,,,,,,0,33,0,33,0,1,,,,,,,,,,,,,,,,,
294772,2022-12-02_13h55.02.729,vts_reward_expectancy_bt,2022.2.4,Win32,60.59871531,Chrome,1280,720,,,,,0,576,,,,,,,,,,,,,,,,,139,B,circle,1,0,,,,,,,,,,,,,,,,switch,letter,lettSwt,j,1.3467,noRew,,,,,,0,34,0,34,0,1,,,,,,,,,,,,,,,,,
294772,2022-12-02_13h55.02.729,vts_reward_expectancy_bt,2022.2.4,Win32,60.59871531,Chrome,1280,720,,,,,0,576,,,,,,,,,,,,,,,,,125,S,hexagon,1,0,,,,,,,,,,,,,,,,repeat,letter,lettRpt,k,0.5955,noRew,,,,,,0,35,0,35,0,1,,,,,,,,,,,,,,,,,
294772,2022-12-02_13h55.02.729,vts_reward_expectancy_bt,2022.2.4,Win32,60.59871531,Chrome,1280,720,,,,,0,576,,,,,,,,,,,,,,,,,167,F,circle,1,0,,,,,,,,,,,,,,,,switch,number,numSwt,f,1.0639,noRew,,,,,,0,36,0,36,0,1,,,,,,,,,,,,,,,,,
294772,2022-12-02_13h55.02.729,vts_reward_expectancy_bt,2022.2.4,Win32,60.59871531,Chrome,1280,720,,,,,0,576,,,,,,,,,,,,,,,,,160,S,star,1,0,,,,,,,,,,,,,,,,switch,letter,lettSwt,k,2.2308,noRew,,,,,,0,37,0,37,0,1,,,,,,,,,,,,,,,,,
294772,2022-12-02_13h55.02.729,vts_reward_expectancy_bt,2022.2.4,Win32,60.59871531,Chrome,1280,720,,,,,0,576,,,,,,,,,,,,,,,,,132,D,star,1,0,,,,,,,,,,,,,,,,switch,number,numSwt,d,0.7124,noRew,,,,,,0,38,0,38,0,1,,,,,,,,,,,,,,,,,
294772,2022-12-02_13h55.02.729,vts_reward_expectancy_bt,2022.2.4,Win32,60.59871531,Chrome,1280,720,,,,,0,576,,,,,,,,,,,,,,,,,139,H,circle,1,0,,,,,,,,,,,,,,,,repeat,number,numRpt,d,0.6512,noRew,,,,,,0,39,0,39,0,1,,,,,,,,,,,,,,,,,
294772,2022-12-02_13h55.02.729,vts_reward_expectancy_bt,2022.2.4,Win32,60.59871531,Chrome,1280,720,,,,,0,576,,,,,,,,,,,,,,,,,174,S,circle,1,0,,,,,,,,,,,,,,,,switch,letter,lettSwt,k,0.8464,noRew,,,,,,0,40,0,40,0,1,,,,,,,,,,,,,,,,,
294772,2022-12-02_13h55.02.729,vts_reward_expectancy_bt,2022.2.4,Win32,60.59871531,Chrome,1280,720,,,,,0,576,,,,,,,,,,,,,,,,,146,F,star,1,0,,,,,,,,,,,,,,,,repeat,letter,lettRpt,j,0.7625,noRew,,,,,,0,41,0,41,0,1,,,,,,,,,,,,,,,,,
294772,2022-12-02_13h55.02.729,vts_reward_expectancy_bt,2022.2.4,Win32,60.59871531,Chrome,1280,720,,,,,0,576,,,,,,,,,,,,,,,,,139,B,triangle,1,0,,,,,,,,,,,,,,,,switch,number,numSwt,d,1.867,noRew,,,,,,0,42,0,42,0,1,,,,,,,,,,,,,,,,,
294772,2022-12-02_13h55.02.729,vts_reward_expectancy_bt,2022.2.4,Win32,60.59871531,Chrome,1280,720,,,,,0,576,,,,,,,,,,,,,,,,,167,D,circle,1,0,,,,,,,,,,,,,,,,repeat,number,numRpt,f,2.2838,noRew,,,,,,0,43,0,43,0,1,,,,,,,,,,,,,,,,,
294772,2022-12-02_13h55.02.729,vts_reward_expectancy_bt,2022.2.4,Win32,60.59871531,Chrome,1280,720,,,,,0,576,,,,,,,,,,,,,,,,,167,Y,triangle,1,0,,,,,,,,,,,,,,,,repeat,number,numRpt,f,0.7501,noRew,,,,,,0,44,0,44,0,1,,,,,,,,,,,,,,,,,
294772,2022-12-02_13h55.02.729,vts_reward_expectancy_bt,2022.2.4,Win32,60.59871531,Chrome,1280,720,,,,,0,576,,,,,,,,,,,,,,,,,146,U,hexagon,1,0,,,,,,,,,,,,,,,,repeat,number,numRpt,d,1.0226,noRew,,,,,,0,45,0,45,0,1,,,,,,,,,,,,,,,,,
294772,2022-12-02_13h55.02.729,vts_reward_expectancy_bt,2022.2.4,Win32,60.59871531,Chrome,1280,720,,,,,0,576,,,,,,,,,,,,,,,,,160,B,triangle,1,0,,,,,,,,,,,,,,,,switch,letter,lettSwt,j,0.4374,noRew,,,,,,0,46,0,46,0,1,,,,,,,,,,,,,,,,,
294772,2022-12-02_13h55.02.729,vts_reward_expectancy_bt,2022.2.4,Win32,60.59871531,Chrome,1280,720,,,,,0,576,,,,,,,,,,,,,,,,,139,H,star,1,0,,,,,,,,,,,,,,,,repeat,letter,lettRpt,j,2.6668,noRew,,,,,,0,47,0,47,0,1,,,,,,,,,,,,,,,,,
294772,2022-12-02_13h55.02.729,vts_reward_expectancy_bt,2022.2.4,Win32,60.59871531,Chrome,1280,720,,,,,0,576,,,,,,,,,,,,,,,,,167,Y,star,1,0,,,,,,,,,,,,,,,,repeat,letter,lettRpt,k,0.822,noRew,,,,,,0,48,0,48,0,1,,,,,,,,,,,,,,,,,
294772,2022-12-02_13h55.02.729,vts_reward_expectancy_bt,2022.2.4,Win32,60.59871531,Chrome,1280,720,,,,,0,576,,,,,,,,,,,,,,,,,132,S,circle,1,0,,,,,,,,,,,,,,,,switch,number,numSwt,d,2.1031,noRew,,,,,,0,49,0,49,0,1,,,,,,,,,,,,,,,,,
294772,2022-12-02_13h55.02.729,vts_reward_expectancy_bt,2022.2.4,Win32,60.59871531,Chrome,1280,720,,,,,0,576,,,,,,,,,,,,,,,,,125,D,circle,1,0,,,,,,,,,,,,,,,,switch,letter,lettSwt,j,1.3669,noRew,,,,,,0,50,0,50,0,1,,,,,,,,,,,,,,,,,
294772,2022-12-02_13h55.02.729,vts_reward_expectancy_bt,2022.2.4,Win32,60.59871531,Chrome,1280,720,,,,,0,576,,,,,,,,,,,,,,,,,139,B,star,1,0,,,,,,,,,,,,,,,,switch,number,numSwt,d,0.6671,noRew,,,,,,0,51,0,51,0,1,,,,,,,,,,,,,,,,,
294772,2022-12-02_13h55.02.729,vts_reward_expectancy_bt,2022.2.4,Win32,60.59871531,Chrome,1280,720,,,,,0,576,,,,,,,,,,,,,,,,,174,F,circle,1,0,,,,,,,,,,,,,,,,repeat,number,numRpt,f,0.7362,noRew,,,,,,0,52,0,52,0,1,,,,,,,,,,,,,,,,,
294772,2022-12-02_13h55.02.729,vts_reward_expectancy_bt,2022.2.4,Win32,60.59871531,Chrome,1280,720,,,,,0,576,,,,,,,,,,,,,,,,,132,D,star,1,0,,,,,,,,,,,,,,,,switch,letter,lettSwt,j,0.8805,noRew,,,,,,0,53,0,53,0,1,,,,,,,,,,,,,,,,,
294772,2022-12-02_13h55.02.729,vts_reward_expectancy_bt,2022.2.4,Win32,60.59871531,Chrome,1280,720,,,,,0,576,,,,,,,,,,,,,,,,,160,W,hexagon,1,0,,,,,,,,,,,,,,,,repeat,letter,lettRpt,k,1.0169,noRew,,,,,,0,54,0,54,0,1,,,,,,,,,,,,,,,,,
294772,2022-12-02_13h55.02.729,vts_reward_expectancy_bt,2022.2.4,Win32,60.59871531,Chrome,1280,720,,,,,0,576,,,,,,,,,,,,,,,,,146,S,circle,1,0,,,,,,,,,,,,,,,,repeat,letter,lettRpt,k,1.1174,noRew,,,,,,0,55,0,55,0,1,,,,,,,,,,,,,,,,,
294772,2022-12-02_13h55.02.729,vts_reward_expectancy_bt,2022.2.4,Win32,60.59871531,Chrome,1280,720,,,,,0,576,,,,,,,,,,,,,,,,,139,U,triangle,1,0,,,,,,,,,,,,,,,,switch,number,numSwt,d,0.8833,noRew,,,,,,0,56,0,56,0,1,,,,,,,,,,,,,,,,,
294772,2022-12-02_13h55.02.729,vts_reward_expectancy_bt,2022.2.4,Win32,60.59871531,Chrome,1280,720,,,,,0,576,,,,,,,,,,,,,,,,,167,B,hexagon,1,0,,,,,,,,,,,,,,,,repeat,number,numRpt,f,0.7659,noRew,,,,,,0,57,0,57,0,1,,,,,,,,,,,,,,,,,
294772,2022-12-02_13h55.02.729,vts_reward_expectancy_bt,2022.2.4,Win32,60.59871531,Chrome,1280,720,,,,,0,576,,,,,,,,,,,,,,,,,132,Y,hexagon,1,0,,,,,,,,,,,,,,,,switch,letter,lettSwt,k,0.4707,noRew,,,,,,0,58,0,58,0,1,,,,,,,,,,,,,,,,,
294772,2022-12-02_13h55.02.729,vts_reward_expectancy_bt,2022.2.4,Win32,60.59871531,Chrome,1280,720,,,,,0,576,,,,,,,,,,,,,,,,,146,W,triangle,1,0,,,,,,,,,,,,,,,,repeat,letter,lettRpt,k,0.9749,noRew,,,,,,0,59,0,59,0,1,,,,,,,,,,,,,,,,,
294772,2022-12-02_13h55.02.729,vts_reward_expectancy_bt,2022.2.4,Win32,60.59871531,Chrome,1280,720,,,,,0,576,,,,,,,,,,,,,,,,,139,B,triangle,1,0,,,,,,,,,,,,,,,,repeat,letter,lettRpt,j,0.7661,noRew,,,,,,0,60,0,60,0,1,,,,,,,,,,,,,,,,,
294772,2022-12-02_13h55.02.729,vts_reward_expectancy_bt,2022.2.4,Win32,60.59871531,Chrome,1280,720,,,,,0,576,,,,,,,,,,,,,,,,,181,S,circle,0,0,,,,,,,,,,,,,,,,repeat,letter,NA,j,0.7504,noRew,,,,,,0,61,0,61,0,1,,,,,,,,,,,,,,,,,
294772,2022-12-02_13h55.02.729,vts_reward_expectancy_bt,2022.2.4,Win32,60.59871531,Chrome,1280,720,,,,,0,576,,,,,,,,,,,,,,,,,174,H,triangle,1,1,,,,,,,,,,,,,,,,repeat,letter,lettRpt,j,0.9501,noRew,,,,,,0,62,0,62,0,1,,,,,,,,,,,,,,,,,
294772,2022-12-02_13h55.02.729,vts_reward_expectancy_bt,2022.2.4,Win32,60.59871531,Chrome,1280,720,,,,,0,576,,,,,,,,,,,,,,,,,125,F,star,1,0,,,,,,,,,,,,,,,,repeat,letter,lettRpt,j,1.0338,noRew,,,,,,0,63,0,63,0,1,,,,,,,,,,,,,,,,,
294772,2022-12-02_13h55.02.729,vts_reward_expectancy_bt,2022.2.4,Win32,60.59871531,Chrome,1280,720,,,,,,,,,,,,,,,,,,,,,,,,,,,,,,,,,,,,,,,,,,,,,,,,,,,,,,,,,,,,,,,,,,,,,,,,,,,,
294772,2022-12-02_13h55.02.729,vts_reward_expectancy_bt,2022.2.4,Win32,60.59871531,Chrome,1280,720,,,,,10,586,,,,,,,,,,,,,,,,,132,W,circle,1,0,,,,,,,,,,,,,,,,switch,number,numSwt,d,0.7416,Lo,,,,,,0,,,,,,space,4.6682,low,0,0,0,0,1,,,,,,,,,
294772,2022-12-02_13h55.02.729,vts_reward_expectancy_bt,2022.2.4,Win32,60.59871531,Chrome,1280,720,,,,,10,596,,,,,,,,,,,,,,,,,139,B,triangle,1,0,,,,,,,,,,,,,,,,switch,letter,lettSwt,j,1.1829,Lo,,,,,,0,,,,,,,,low,1,0,1,0,1,,,,,,,,,
294772,2022-12-02_13h55.02.729,vts_reward_expectancy_bt,2022.2.4,Win32,60.59871531,Chrome,1280,720,,,,,0,596,,,,,,,,,,,,,,,,,160,D,star,1,0,,,,,,,,,,,,,,,,switch,number,numSwt,f,0.9291,Hi,,,,,,0,,,,,,,,low,2,0,2,0,1,,,,,,,,,
294772,2022-12-02_13h55.02.729,vts_reward_expectancy_bt,2022.2.4,Win32,60.59871531,Chrome,1280,720,,,,,10,606,,,,,,,,,,,,,,,,,181,U,hexagon,1,0,,,,,,,,,,,,,,,,switch,letter,lettSwt,k,0.6341,Hi,,,,,,0,,,,,,,,low,3,0,3,0,1,,,,,,,,,
294772,2022-12-02_13h55.02.729,vts_reward_expectancy_bt,2022.2.4,Win32,60.59871531,Chrome,1280,720,,,,,10,616,,,,,,,,,,,,,,,,,146,F,circle,1,0,,,,,,,,,,,,,,,,switch,number,numSwt,d,0.6519,Lo,,,,,,0,,,,,,,,low,4,0,4,0,1,,,,,,,,,
294772,2022-12-02_13h55.02.729,vts_reward_expectancy_bt,2022.2.4,Win32,60.59871531,Chrome,1280,720,,,,,10,626,,,,,,,,,,,,,,,,,125,Y,triangle,1,0,,,,,,,,,,,,,,,,repeat,number,numRpt,d,0.5871,Lo,,,,,,0,,,,,,,,low,5,0,5,0,1,,,,,,,,,
294772,2022-12-02_13h55.02.729,vts_reward_expectancy_bt,2022.2.4,Win32,60.59871531,Chrome,1280,720,,,,,10,636,,,,,,,,,,,,,,,,,167,H,star,1,0,,,,,,,,,,,,,,,,repeat,number,numRpt,f,0.501,Hi,,,,,,0,,,,,,,,low,6,0,6,0,1,,,,,,,,,
294772,2022-12-02_13h55.02.729,vts_reward_expectancy_bt,2022.2.4,Win32,60.59871531,Chrome,1280,720,,,,,10,646,,,,,,,,,,,,,,,,,174,S,hexagon,1,0,,,,,,,,,,,,,,,,switch,letter,lettSwt,k,0.5816,Hi,,,,,,0,,,,,,,,low,7,0,7,0,1,,,,,,,,,
294772,2022-12-02_13h55.02.729,vts_reward_expectancy_bt,2022.2.4,Win32,60.59871531,Chrome,1280,720,,,,,1,647,,,,,,,,,,,,,,,,,132,W,circle,1,0,,,,,,,,,,,,,,,,switch,number,numSwt,d,0.7511,Lo,,,,,,0,,,,,,,,low,8,0,8,0,1,,,,,,,,,
294772,2022-12-02_13h55.02.729,vts_reward_expectancy_bt,2022.2.4,Win32,60.59871531,Chrome,1280,720,,,,,0,647,,,,,,,,,,,,,,,,,139,B,star,1,0,,,,,,,,,,,,,,,,repeat,number,numRpt,d,0.9018,Hi,,,,,,0,,,,,,,,low,9,0,9,0,1,,,,,,,,,
294772,2022-12-02_13h55.02.729,vts_reward_expectancy_bt,2022.2.4,Win32,60.59871531,Chrome,1280,720,,,,,10,657,,,,,,,,,,,,,,,,,160,D,triangle,1,0,,,,,,,,,,,,,,,,repeat,number,numRpt,f,1.2309,Lo,,,,,,0,,,,,,,,low,10,0,10,0,1,,,,,,,,,
294772,2022-12-02_13h55.02.729,vts_reward_expectancy_bt,2022.2.4,Win32,60.59871531,Chrome,1280,720,,,,,0,657,,,,,,,,,,,,,,,,,181,U,hexagon,1,0,,,,,,,,,,,,,,,,repeat,number,numRpt,f,2.0983,Hi,,,,,,0,,,,,,,,low,11,0,11,0,1,,,,,,,,,
294772,2022-12-02_13h55.02.729,vts_reward_expectancy_bt,2022.2.4,Win32,60.59871531,Chrome,1280,720,,,,,10,667,,,,,,,,,,,,,,,,,146,F,star,1,0,,,,,,,,,,,,,,,,repeat,number,numRpt,d,0.7337,Hi,,,,,,0,,,,,,,,low,12,0,12,0,1,,,,,,,,,
294772,2022-12-02_13h55.02.729,vts_reward_expectancy_bt,2022.2.4,Win32,60.59871531,Chrome,1280,720,,,,,10,677,,,,,,,,,,,,,,,,,125,Y,triangle,1,0,,,,,,,,,,,,,,,,repeat,number,numRpt,d,0.3841,Lo,,,,,,0,,,,,,,,low,13,0,13,0,1,,,,,,,,,
294772,2022-12-02_13h55.02.729,vts_reward_expectancy_bt,2022.2.4,Win32,60.59871531,Chrome,1280,720,,,,,10,687,,,,,,,,,,,,,,,,,167,H,hexagon,1,0,,,,,,,,,,,,,,,,repeat,number,numRpt,f,0.6628,Hi,,,,,,0,,,,,,,,low,14,0,14,0,1,,,,,,,,,
294772,2022-12-02_13h55.02.729,vts_reward_expectancy_bt,2022.2.4,Win32,60.59871531,Chrome,1280,720,,,,,1,688,,,,,,,,,,,,,,,,,174,S,circle,1,0,,,,,,,,,,,,,,,,switch,letter,lettSwt,k,0.9481,Lo,,,,,,0,,,,,,,,low,15,0,15,0,1,,,,,,,,,
294772,2022-12-02_13h55.02.729,vts_reward_expectancy_bt,2022.2.4,Win32,60.59871531,Chrome,1280,720,,,,,10,698,,,,,,,,,,,,,,,,,160,F,triangle,1,0,,,,,,,,,,,,,,,,switch,number,numSwt,f,0.8466,Lo,,,,,,0,,,,,,,,low,16,0,16,0,1,,,,,,,,,
294772,2022-12-02_13h55.02.729,vts_reward_expectancy_bt,2022.2.4,Win32,60.59871531,Chrome,1280,720,,,,,0,698,,,,,,,,,,,,,,,,,181,D,star,0,0,,,,,,,,,,,,,,,,repeat,number,NA,d,0.5344,Lo,,,,,,0,,,,,,,,low,17,0,17,0,1,,,,,,,,,
294772,2022-12-02_13h55.02.729,vts_reward_expectancy_bt,2022.2.4,Win32,60.59871531,Chrome,1280,720,,,,,1,699,,,,,,,,,,,,,,,,,174,U,circle,1,1,,,,,,,,,,,,,,,,repeat,number,numRpt,f,0.6134,Lo,,,,,,0,,,,,,,,low,18,0,18,0,1,,,,,,,,,
294772,2022-12-02_13h55.02.729,vts_reward_expectancy_bt,2022.2.4,Win32,60.59871531,Chrome,1280,720,,,,,1,700,,,,,,,,,,,,,,,,,167,W,hexagon,1,0,,,,,,,,,,,,,,,,repeat,number,numRpt,f,0.5916,Hi,,,,,,0,,,,,,,,low,19,0,19,0,1,,,,,,,,,
294772,2022-12-02_13h55.02.729,vts_reward_expectancy_bt,2022.2.4,Win32,60.59871531,Chrome,1280,720,,,,,0,700,,,,,,,,,,,,,,,,,125,H,hexagon,1,0,,,,,,,,,,,,,,,,repeat,number,numRpt,d,1.1507,Hi,,,,,,0,,,,,,,,low,20,0,20,0,1,,,,,,,,,
294772,2022-12-02_13h55.02.729,vts_reward_expectancy_bt,2022.2.4,Win32,60.59871531,Chrome,1280,720,,,,,10,710,,,,,,,,,,,,,,,,,132,B,triangle,1,0,,,,,,,,,,,,,,,,repeat,number,numRpt,d,1.5811,Lo,,,,,,0,,,,,,,,low,21,0,21,0,1,,,,,,,,,
294772,2022-12-02_13h55.02.729,vts_reward_expectancy_bt,2022.2.4,Win32,60.59871531,Chrome,1280,720,,,,,10,720,,,,,,,,,,,,,,,,,146,Y,star,1,0,,,,,,,,,,,,,,,,switch,letter,lettSwt,k,0.6098,Hi,,,,,,0,,,,,,,,low,22,0,22,0,1,,,,,,,,,
294772,2022-12-02_13h55.02.729,vts_reward_expectancy_bt,2022.2.4,Win32,60.59871531,Chrome,1280,720,,,,,1,721,,,,,,,,,,,,,,,,,139,S,circle,1,0,,,,,,,,,,,,,,,,switch,number,numSwt,d,2.606,Lo,,,,,,0,,,,,,,,low,23,0,23,0,1,,,,,,,,,
294772,2022-12-02_13h55.02.729,vts_reward_expectancy_bt,2022.2.4,Win32,60.59871531,Chrome,1280,720,,,,,1,722,,,,,,,,,,,,,,,,,125,B,triangle,1,0,,,,,,,,,,,,,,,,repeat,number,numRpt,d,0.7789,Lo,,,,,,0,,,,,,,,low,24,0,24,0,1,,,,,,,,,
294772,2022-12-02_13h55.02.729,vts_reward_expectancy_bt,2022.2.4,Win32,60.59871531,Chrome,1280,720,,,,,10,732,,,,,,,,,,,,,,,,,132,D,star,1,0,,,,,,,,,,,,,,,,repeat,number,numRpt,d,0.5657,Hi,,,,,,0,,,,,,,,low,25,0,25,0,1,,,,,,,,,
294772,2022-12-02_13h55.02.729,vts_reward_expectancy_bt,2022.2.4,Win32,60.59871531,Chrome,1280,720,,,,,1,733,,,,,,,,,,,,,,,,,160,U,circle,1,0,,,,,,,,,,,,,,,,repeat,number,numRpt,f,1.1568,Lo,,,,,,0,,,,,,,,low,26,0,26,0,1,,,,,,,,,
294772,2022-12-02_13h55.02.729,vts_reward_expectancy_bt,2022.2.4,Win32,60.59871531,Chrome,1280,720,,,,,10,743,,,,,,,,,,,,,,,,,174,S,hexagon,1,0,,,,,,,,,,,,,,,,switch,letter,lettSwt,k,0.5506,Hi,,,,,,0,,,,,,,,low,27,0,27,0,1,,,,,,,,,
294772,2022-12-02_13h55.02.729,vts_reward_expectancy_bt,2022.2.4,Win32,60.59871531,Chrome,1280,720,,,,,1,744,,,,,,,,,,,,,,,,,167,F,circle,1,0,,,,,,,,,,,,,,,,switch,number,numSwt,f,0.7695,Lo,,,,,,0,,,,,,,,low,28,0,28,0,1,,,,,,,,,
294772,2022-12-02_13h55.02.729,vts_reward_expectancy_bt,2022.2.4,Win32,60.59871531,Chrome,1280,720,,,,,10,754,,,,,,,,,,,,,,,,,181,W,triangle,1,0,,,,,,,,,,,,,,,,repeat,number,numRpt,f,1.3127,Lo,,,,,,0,,,,,,,,low,29,0,29,0,1,,,,,,,,,
294772,2022-12-02_13h55.02.729,vts_reward_expectancy_bt,2022.2.4,Win32,60.59871531,Chrome,1280,720,,,,,0,754,,,,,,,,,,,,,,,,,146,H,hexagon,1,0,,,,,,,,,,,,,,,,repeat,number,numRpt,d,0.8787,Hi,,,,,,0,,,,,,,,low,30,0,30,0,1,,,,,,,,,
294772,2022-12-02_13h55.02.729,vts_reward_expectancy_bt,2022.2.4,Win32,60.59871531,Chrome,1280,720,,,,,0,754,,,,,,,,,,,,,,,,,139,Y,star,1,0,,,,,,,,,,,,,,,,repeat,number,numRpt,d,1.9098,Hi,,,,,,0,,,,,,,,low,31,0,31,0,1,,,,,,,,,
294772,2022-12-02_13h55.02.729,vts_reward_expectancy_bt,2022.2.4,Win32,60.59871531,Chrome,1280,720,,,,,1,755,,,,,,,,,,,,,,,,,146,H,triangle,1,0,,,,,,,,,,,,,,,,repeat,number,numRpt,d,0.6659,Lo,,,,,,1,,,,,,space,1.8656,low,0,0,0,0,1,,,,,,,,,
294772,2022-12-02_13h55.02.729,vts_reward_expectancy_bt,2022.2.4,Win32,60.59871531,Chrome,1280,720,,,,,1,756,,,,,,,,,,,,,,,,,181,U,circle,1,0,,,,,,,,,,,,,,,,repeat,number,numRpt,f,0.5712,Lo,,,,,,1,,,,,,,,low,1,0,1,0,1,,,,,,,,,
294772,2022-12-02_13h55.02.729,vts_reward_expectancy_bt,2022.2.4,Win32,60.59871531,Chrome,1280,720,,,,,1,757,,,,,,,,,,,,,,,,,139,Y,hexagon,1,0,,,,,,,,,,,,,,,,repeat,number,numRpt,d,0.6014,Hi,,,,,,1,,,,,,,,low,2,0,2,0,1,,,,,,,,,
294772,2022-12-02_13h55.02.729,vts_reward_expectancy_bt,2022.2.4,Win32,60.59871531,Chrome,1280,720,,,,,1,758,,,,,,,,,,,,,,,,,167,W,star,1,0,,,,,,,,,,,,,,,,repeat,number,numRpt,f,0.6341,Hi,,,,,,1,,,,,,,,low,3,0,3,0,1,,,,,,,,,
294772,2022-12-02_13h55.02.729,vts_reward_expectancy_bt,2022.2.4,Win32,60.59871531,Chrome,1280,720,,,,,1,759,,,,,,,,,,,,,,,,,132,D,triangle,1,0,,,,,,,,,,,,,,,,repeat,number,numRpt,d,0.6884,Lo,,,,,,1,,,,,,,,low,4,0,4,0,1,,,,,,,,,
294772,2022-12-02_13h55.02.729,vts_reward_expectancy_bt,2022.2.4,Win32,60.59871531,Chrome,1280,720,,,,,10,769,,,,,,,,,,,,,,,,,160,S,circle,1,0,,,,,,,,,,,,,,,,repeat,number,numRpt,f,0.8352,Lo,,,,,,1,,,,,,,,low,5,0,5,0,1,,,,,,,,,
294772,2022-12-02_13h55.02.729,vts_reward_expectancy_bt,2022.2.4,Win32,60.59871531,Chrome,1280,720,,,,,10,779,,,,,,,,,,,,,,,,,174,B,hexagon,1,0,,,,,,,,,,,,,,,,switch,letter,lettSwt,j,0.3792,Hi,,,,,,1,,,,,,,,low,6,0,6,0,1,,,,,,,,,
294772,2022-12-02_13h55.02.729,vts_reward_expectancy_bt,2022.2.4,Win32,60.59871531,Chrome,1280,720,,,,,10,789,,,,,,,,,,,,,,,,,125,F,star,1,0,,,,,,,,,,,,,,,,repeat,letter,lettRpt,j,0.7665,Hi,,,,,,1,,,,,,,,low,7,0,7,0,1,,,,,,,,,
294772,2022-12-02_13h55.02.729,vts_reward_expectancy_bt,2022.2.4,Win32,60.59871531,Chrome,1280,720,,,,,1,790,,,,,,,,,,,,,,,,,146,H,star,1,0,,,,,,,,,,,,,,,,repeat,letter,lettRpt,j,0.7837,Hi,,,,,,1,,,,,,,,low,8,0,8,0,1,,,,,,,,,
294772,2022-12-02_13h55.02.729,vts_reward_expectancy_bt,2022.2.4,Win32,60.59871531,Chrome,1280,720,,,,,1,791,,,,,,,,,,,,,,,,,181,U,hexagon,1,0,,,,,,,,,,,,,,,,repeat,letter,lettRpt,k,0.3953,Hi,,,,,,1,,,,,,,,low,9,0,9,0,1,,,,,,,,,
294772,2022-12-02_13h55.02.729,vts_reward_expectancy_bt,2022.2.4,Win32,60.59871531,Chrome,1280,720,,,,,1,792,,,,,,,,,,,,,,,,,139,Y,triangle,1,0,,,,,,,,,,,,,,,,repeat,letter,lettRpt,k,1.1929,Lo,,,,,,1,,,,,,,,low,10,0,10,0,1,,,,,,,,,
294772,2022-12-02_13h55.02.729,vts_reward_expectancy_bt,2022.2.4,Win32,60.59871531,Chrome,1280,720,,,,,10,802,,,,,,,,,,,,,,,,,167,W,circle,1,0,,,,,,,,,,,,,,,,switch,number,numSwt,f,0.6261,Lo,,,,,,1,,,,,,,,low,11,0,11,0,1,,,,,,,,,
294772,2022-12-02_13h55.02.729,vts_reward_expectancy_bt,2022.2.4,Win32,60.59871531,Chrome,1280,720,,,,,0,802,,,,,,,,,,,,,,,,,132,D,hexagon,1,0,,,,,,,,,,,,,,,,repeat,number,numRpt,d,1.1787,Hi,,,,,,1,,,,,,,,low,12,0,12,0,1,,,,,,,,,
294772,2022-12-02_13h55.02.729,vts_reward_expectancy_bt,2022.2.4,Win32,60.59871531,Chrome,1280,720,,,,,0,802,,,,,,,,,,,,,,,,,160,S,star,1,0,,,,,,,,,,,,,,,,repeat,number,numRpt,f,1.0797,Hi,,,,,,1,,,,,,,,low,13,0,13,0,1,,,,,,,,,
294772,2022-12-02_13h55.02.729,vts_reward_expectancy_bt,2022.2.4,Win32,60.59871531,Chrome,1280,720,,,,,1,803,,,,,,,,,,,,,,,,,174,B,circle,1,0,,,,,,,,,,,,,,,,repeat,number,numRpt,f,0.4846,Lo,,,,,,1,,,,,,,,low,14,0,14,0,1,,,,,,,,,
294772,2022-12-02_13h55.02.729,vts_reward_expectancy_bt,2022.2.4,Win32,60.59871531,Chrome,1280,720,,,,,1,804,,,,,,,,,,,,,,,,,125,F,triangle,1,0,,,,,,,,,,,,,,,,repeat,number,numRpt,d,2.0494,Lo,,,,,,1,,,,,,,,low,15,0,15,0,1,,,,,,,,,
294772,2022-12-02_13h55.02.729,vts_reward_expectancy_bt,2022.2.4,Win32,60.59871531,Chrome,1280,720,,,,,0,804,,,,,,,,,,,,,,,,,132,Y,star,1,0,,,,,,,,,,,,,,,,repeat,number,numRpt,d,2.0178,Hi,,,,,,1,,,,,,,,low,16,0,16,0,1,,,,,,,,,
294772,2022-12-02_13h55.02.729,vts_reward_expectancy_bt,2022.2.4,Win32,60.59871531,Chrome,1280,720,,,,,10,814,,,,,,,,,,,,,,,,,167,B,circle,1,0,,,,,,,,,,,,,,,,repeat,number,numRpt,f,0.6793,Lo,,,,,,1,,,,,,,,low,17,0,17,0,1,,,,,,,,,
294772,2022-12-02_13h55.02.729,vts_reward_expectancy_bt,2022.2.4,Win32,60.59871531,Chrome,1280,720,,,,,0,814,,,,,,,,,,,,,,,,,160,W,hexagon,1,0,,,,,,,,,,,,,,,,repeat,number,numRpt,f,0.8919,Hi,,,,,,1,,,,,,,,low,18,0,18,0,1,,,,,,,,,
294772,2022-12-02_13h55.02.729,vts_reward_expectancy_bt,2022.2.4,Win32,60.59871531,Chrome,1280,720,,,,,1,815,,,,,,,,,,,,,,,,,174,S,triangle,1,0,,,,,,,,,,,,,,,,repeat,number,numRpt,f,0.6138,Lo,,,,,,1,,,,,,,,low,19,0,19,0,1,,,,,,,,,
294772,2022-12-02_13h55.02.729,vts_reward_expectancy_bt,2022.2.4,Win32,60.59871531,Chrome,1280,720,,,,,0,815,,,,,,,,,,,,,,,,,181,H,star,1,0,,,,,,,,,,,,,,,,repeat,number,numRpt,f,1.4503,Hi,,,,,,1,,,,,,,,low,20,0,20,0,1,,,,,,,,,
294772,2022-12-02_13h55.02.729,vts_reward_expectancy_bt,2022.2.4,Win32,60.59871531,Chrome,1280,720,,,,,1,816,,,,,,,,,,,,,,,,,146,F,circle,1,0,,,,,,,,,,,,,,,,repeat,number,numRpt,d,0.4689,Lo,,,,,,1,,,,,,,,low,21,0,21,0,1,,,,,,,,,
294772,2022-12-02_13h55.02.729,vts_reward_expectancy_bt,2022.2.4,Win32,60.59871531,Chrome,1280,720,,,,,0,816,,,,,,,,,,,,,,,,,139,U,hexagon,1,0,,,,,,,,,,,,,,,,repeat,number,numRpt,d,0.6511,Hi,,,,,,1,,,,,,,,low,22,0,22,0,1,,,,,,,,,
294772,2022-12-02_13h55.02.729,vts_reward_expectancy_bt,2022.2.4,Win32,60.59871531,Chrome,1280,720,,,,,10,826,,,,,,,,,,,,,,,,,125,D,triangle,1,0,,,,,,,,,,,,,,,,switch,letter,lettSwt,j,0.4841,Lo,,,,,,1,,,,,,,,low,23,0,23,0,1,,,,,,,,,
294772,2022-12-02_13h55.02.729,vts_reward_expectancy_bt,2022.2.4,Win32,60.59871531,Chrome,1280,720,,,,,1,827,,,,,,,,,,,,,,,,,132,F,triangle,1,0,,,,,,,,,,,,,,,,switch,number,numSwt,d,0.6109,Lo,,,,,,1,,,,,,,,low,24,0,24,0,1,,,,,,,,,
294772,2022-12-02_13h55.02.729,vts_reward_expectancy_bt,2022.2.4,Win32,60.59871531,Chrome,1280,720,,,,,1,828,,,,,,,,,,,,,,,,,181,B,star,1,0,,,,,,,,,,,,,,,,repeat,number,numRpt,f,0.567,Hi,,,,,,1,,,,,,,,low,25,0,25,0,1,,,,,,,,,
294772,2022-12-02_13h55.02.729,vts_reward_expectancy_bt,2022.2.4,Win32,60.59871531,Chrome,1280,720,,,,,10,838,,,,,,,,,,,,,,,,,125,U,circle,1,0,,,,,,,,,,,,,,,,repeat,number,numRpt,d,0.5466,Lo,,,,,,1,,,,,,,,low,26,0,26,0,1,,,,,,,,,
294772,2022-12-02_13h55.02.729,vts_reward_expectancy_bt,2022.2.4,Win32,60.59871531,Chrome,1280,720,,,,,1,839,,,,,,,,,,,,,,,,,167,H,hexagon,1,0,,,,,,,,,,,,,,,,repeat,number,numRpt,f,0.6168,Hi,,,,,,1,,,,,,,,low,27,0,27,0,1,,,,,,,,,
294772,2022-12-02_13h55.02.729,vts_reward_expectancy_bt,2022.2.4,Win32,60.59871531,Chrome,1280,720,,,,,1,840,,,,,,,,,,,,,,,,,160,W,triangle,1,0,,,,,,,,,,,,,,,,repeat,number,numRpt,f,0.4814,Lo,,,,,,1,,,,,,,,low,28,0,28,0,1,,,,,,,,,
294772,2022-12-02_13h55.02.729,vts_reward_expectancy_bt,2022.2.4,Win32,60.59871531,Chrome,1280,720,,,,,10,850,,,,,,,,,,,,,,,,,146,S,circle,1,0,,,,,,,,,,,,,,,,repeat,number,numRpt,d,0.1353,Lo,,,,,,1,,,,,,,,low,29,0,29,0,1,,,,,,,,,
294772,2022-12-02_13h55.02.729,vts_reward_expectancy_bt,2022.2.4,Win32,60.59871531,Chrome,1280,720,,,,,10,860,,,,,,,,,,,,,,,,,139,D,hexagon,1,0,,,,,,,,,,,,,,,,repeat,number,numRpt,d,0.4144,Hi,,,,,,1,,,,,,,,low,30,0,30,0,1,,,,,,,,,
294772,2022-12-02_13h55.02.729,vts_reward_expectancy_bt,2022.2.4,Win32,60.59871531,Chrome,1280,720,,,,,10,870,,,,,,,,,,,,,,,,,174,Y,star,1,0,,,,,,,,,,,,,,,,repeat,number,numRpt,f,0.5798,Hi,,,,,,1,,,,,,,,low,31,0,31,0,1,,,,,,,,,
294772,2022-12-02_13h55.02.729,vts_reward_expectancy_bt,2022.2.4,Win32,60.59871531,Chrome,1280,720,,,,,0,870,,,,,,,,,,,,,,,,,160,W,star,1,0,,,,,,,,,,,,,,,,repeat,number,numRpt,f,0.9169,Hi,,,,,,2,,,,,,space,1.8651,low,0,0,0,0,1,,,,,,,,,
294772,2022-12-02_13h55.02.729,vts_reward_expectancy_bt,2022.2.4,Win32,60.59871531,Chrome,1280,720,,,,,10,880,,,,,,,,,,,,,,,,,132,U,triangle,1,0,,,,,,,,,,,,,,,,repeat,number,numRpt,d,0.5119,Lo,,,,,,2,,,,,,,,low,1,0,1,0,1,,,,,,,,,
294772,2022-12-02_13h55.02.729,vts_reward_expectancy_bt,2022.2.4,Win32,60.59871531,Chrome,1280,720,,,,,10,890,,,,,,,,,,,,,,,,,125,S,hexagon,1,0,,,,,,,,,,,,,,,,repeat,number,numRpt,d,0.4284,Hi,,,,,,2,,,,,,,,low,2,0,2,0,1,,,,,,,,,
294772,2022-12-02_13h55.02.729,vts_reward_expectancy_bt,2022.2.4,Win32,60.59871531,Chrome,1280,720,,,,,1,891,,,,,,,,,,,,,,,,,167,Y,circle,1,0,,,,,,,,,,,,,,,,repeat,number,numRpt,f,0.376,Lo,,,,,,2,,,,,,,,low,3,0,3,0,1,,,,,,,,,
294772,2022-12-02_13h55.02.729,vts_reward_expectancy_bt,2022.2.4,Win32,60.59871531,Chrome,1280,720,,,,,0,891,,,,,,,,,,,,,,,,,174,F,star,1,0,,,,,,,,,,,,,,,,repeat,number,numRpt,f,0.6053,Hi,,,,,,2,,,,,,,,low,4,0,4,0,1,,,,,,,,,
294772,2022-12-02_13h55.02.729,vts_reward_expectancy_bt,2022.2.4,Win32,60.59871531,Chrome,1280,720,,,,,1,892,,,,,,,,,,,,,,,,,139,D,triangle,1,0,,,,,,,,,,,,,,,,repeat,number,numRpt,d,0.1339,Lo,,,,,,2,,,,,,,,low,5,0,5,0,1,,,,,,,,,
294772,2022-12-02_13h55.02.729,vts_reward_expectancy_bt,2022.2.4,Win32,60.59871531,Chrome,1280,720,,,,,10,902,,,,,,,,,,,,,,,,,181,B,hexagon,1,0,,,,,,,,,,,,,,,,repeat,number,numRpt,f,0.4995,Hi,,,,,,2,,,,,,,,low,6,0,6,0,1,,,,,,,,,
294772,2022-12-02_13h55.02.729,vts_reward_expectancy_bt,2022.2.4,Win32,60.59871531,Chrome,1280,720,,,,,1,903,,,,,,,,,,,,,,,,,146,H,circle,1,0,,,,,,,,,,,,,,,,repeat,number,numRpt,d,0.0565,Lo,,,,,,2,,,,,,,,low,7,0,7,0,1,,,,,,,,,
294772,2022-12-02_13h55.02.729,vts_reward_expectancy_bt,2022.2.4,Win32,60.59871531,Chrome,1280,720,,,,,1,904,,,,,,,,,,,,,,,,,160,W,triangle,1,0,,,,,,,,,,,,,,,,repeat,number,numRpt,f,0.3343,Lo,,,,,,2,,,,,,,,low,8,0,8,0,1,,,,,,,,,
294772,2022-12-02_13h55.02.729,vts_reward_expectancy_bt,2022.2.4,Win32,60.59871531,Chrome,1280,720,,,,,10,914,,,,,,,,,,,,,,,,,132,U,star,1,0,,,,,,,,,,,,,,,,repeat,number,numRpt,d,0.4188,Hi,,,,,,2,,,,,,,,low,9,0,9,0,1,,,,,,,,,
294772,2022-12-02_13h55.02.729,vts_reward_expectancy_bt,2022.2.4,Win32,60.59871531,Chrome,1280,720,,,,,1,915,,,,,,,,,,,,,,,,,125,S,hexagon,1,0,,,,,,,,,,,,,,,,repeat,number,numRpt,d,0.0163,Hi,,,,,,2,,,,,,,,low,10,0,10,0,1,,,,,,,,,
294772,2022-12-02_13h55.02.729,vts_reward_expectancy_bt,2022.2.4,Win32,60.59871531,Chrome,1280,720,,,,,10,925,,,,,,,,,,,,,,,,,167,Y,circle,1,0,,,,,,,,,,,,,,,,repeat,number,numRpt,f,0.6437,Lo,,,,,,2,,,,,,,,low,11,0,11,0,1,,,,,,,,,
294772,2022-12-02_13h55.02.729,vts_reward_expectancy_bt,2022.2.4,Win32,60.59871531,Chrome,1280,720,,,,,10,935,,,,,,,,,,,,,,,,,174,F,star,1,0,,,,,,,,,,,,,,,,switch,letter,lettSwt,j,0.347,Hi,,,,,,2,,,,,,,,low,12,0,12,0,1,,,,,,,,,
294772,2022-12-02_13h55.02.729,vts_reward_expectancy_bt,2022.2.4,Win32,60.59871531,Chrome,1280,720,,,,,0,935,,,,,,,,,,,,,,,,,139,D,hexagon,1,0,,,,,,,,,,,,,,,,switch,number,numSwt,d,1.064,Hi,,,,,,2,,,,,,,,low,13,0,13,0,1,,,,,,,,,
294772,2022-12-02_13h55.02.729,vts_reward_expectancy_bt,2022.2.4,Win32,60.59871531,Chrome,1280,720,,,,,1,936,,,,,,,,,,,,,,,,,181,B,triangle,1,0,,,,,,,,,,,,,,,,repeat,number,numRpt,f,0.5512,Lo,,,,,,2,,,,,,,,low,14,0,14,0,1,,,,,,,,,
294772,2022-12-02_13h55.02.729,vts_reward_expectancy_bt,2022.2.4,Win32,60.59871531,Chrome,1280,720,,,,,10,946,,,,,,,,,,,,,,,,,146,H,circle,1,0,,,,,,,,,,,,,,,,repeat,number,numRpt,d,1.0502,Lo,,,,,,2,,,,,,,,low,15,0,15,0,1,,,,,,,,,
294772,2022-12-02_13h55.02.729,vts_reward_expectancy_bt,2022.2.4,Win32,60.59871531,Chrome,1280,720,,,,,0,946,,,,,,,,,,,,,,,,,160,F,star,0,0,,,,,,,,,,,,,,,,repeat,number,NA,d,0.7673,Lo,,,,,,2,,,,,,,,low,16,0,16,0,1,,,,,,,,,
294772,2022-12-02_13h55.02.729,vts_reward_expectancy_bt,2022.2.4,Win32,60.59871531,Chrome,1280,720,,,,,0,946,,,,,,,,,,,,,,,,,132,W,circle,0,1,,,,,,,,,,,,,,,,switch,letter,NA,j,0.1138,Lo,,,,,,2,,,,,,,,low,17,0,17,0,1,,,,,,,,,
294772,2022-12-02_13h55.02.729,vts_reward_expectancy_bt,2022.2.4,Win32,60.59871531,Chrome,1280,720,,,,,10,956,,,,,,,,,,,,,,,,,167,B,triangle,1,1,,,,,,,,,,,,,,,,switch,number,numSwt,f,0.836,Lo,,,,,,2,,,,,,,,low,18,0,18,0,1,,,,,,,,,
294772,2022-12-02_13h55.02.729,vts_reward_expectancy_bt,2022.2.4,Win32,60.59871531,Chrome,1280,720,,,,,0,956,,,,,,,,,,,,,,,,,125,H,hexagon,1,0,,,,,,,,,,,,,,,,repeat,number,numRpt,d,0.6177,Hi,,,,,,2,,,,,,,,low,19,0,19,0,1,,,,,,,,,
294772,2022-12-02_13h55.02.729,vts_reward_expectancy_bt,2022.2.4,Win32,60.59871531,Chrome,1280,720,,,,,0,956,,,,,,,,,,,,,,,,,181,U,star,1,0,,,,,,,,,,,,,,,,repeat,number,numRpt,f,1.0093,Hi,,,,,,2,,,,,,,,low,20,0,20,0,1,,,,,,,,,
294772,2022-12-02_13h55.02.729,vts_reward_expectancy_bt,2022.2.4,Win32,60.59871531,Chrome,1280,720,,,,,0,956,,,,,,,,,,,,,,,,,174,S,hexagon,1,0,,,,,,,,,,,,,,,,repeat,number,numRpt,f,0.8793,Hi,,,,,,2,,,,,,,,low,21,0,21,0,1,,,,,,,,,
294772,2022-12-02_13h55.02.729,vts_reward_expectancy_bt,2022.2.4,Win32,60.59871531,Chrome,1280,720,,,,,1,957,,,,,,,,,,,,,,,,,146,Y,triangle,1,0,,,,,,,,,,,,,,,,repeat,number,numRpt,d,0.5013,Lo,,,,,,2,,,,,,,,low,22,0,22,0,1,,,,,,,,,
294772,2022-12-02_13h55.02.729,vts_reward_expectancy_bt,2022.2.4,Win32,60.59871531,Chrome,1280,720,,,,,10,967,,,,,,,,,,,,,,,,,139,D,circle,1,0,,,,,,,,,,,,,,,,repeat,number,numRpt,d,0.3652,Lo,,,,,,2,,,,,,,,low,23,0,23,0,1,,,,,,,,,
294772,2022-12-02_13h55.02.729,vts_reward_expectancy_bt,2022.2.4,Win32,60.59871531,Chrome,1280,720,,,,,1,968,,,,,,,,,,,,,,,,,181,W,triangle,1,0,,,,,,,,,,,,,,,,repeat,number,numRpt,f,0.5004,Lo,,,,,,2,,,,,,,,low,24,0,24,0,1,,,,,,,,,
294772,2022-12-02_13h55.02.729,vts_reward_expectancy_bt,2022.2.4,Win32,60.59871531,Chrome,1280,720,,,,,0,968,,,,,,,,,,,,,,,,,160,F,hexagon,1,0,,,,,,,,,,,,,,,,repeat,number,numRpt,f,0.8838,Hi,,,,,,2,,,,,,,,low,25,0,25,0,1,,,,,,,,,
294772,2022-12-02_13h55.02.729,vts_reward_expectancy_bt,2022.2.4,Win32,60.59871531,Chrome,1280,720,,,,,0,968,,,,,,,,,,,,,,,,,167,H,star,1,0,,,,,,,,,,,,,,,,repeat,number,numRpt,f,0.6126,Hi,,,,,,2,,,,,,,,low,26,0,26,0,1,,,,,,,,,
294772,2022-12-02_13h55.02.729,vts_reward_expectancy_bt,2022.2.4,Win32,60.59871531,Chrome,1280,720,,,,,0,968,,,,,,,,,,,,,,,,,146,U,circle,0,0,,,,,,,,,,,,,,,,repeat,number,NA,f,0.8114,Hi,,,,,,2,,,,,,,,low,27,0,27,0,1,,,,,,,,,
294772,2022-12-02_13h55.02.729,vts_reward_expectancy_bt,2022.2.4,Win32,60.59871531,Chrome,1280,720,,,,,10,978,,,,,,,,,,,,,,,,,132,Y,star,1,1,,,,,,,,,,,,,,,,repeat,number,numRpt,d,0.0145,Hi,,,,,,2,,,,,,,,low,28,0,28,0,1,,,,,,,,,
294772,2022-12-02_13h55.02.729,vts_reward_expectancy_bt,2022.2.4,Win32,60.59871531,Chrome,1280,720,,,,,10,988,,,,,,,,,,,,,,,,,139,S,circle,1,0,,,,,,,,,,,,,,,,repeat,number,numRpt,d,0.3914,Lo,,,,,,2,,,,,,,,low,29,0,29,0,1,,,,,,,,,
294772,2022-12-02_13h55.02.729,vts_reward_expectancy_bt,2022.2.4,Win32,60.59871531,Chrome,1280,720,,,,,0,988,,,,,,,,,,,,,,,,,174,B,triangle,0,0,,,,,,,,,,,,,,,,repeat,number,NA,d,0.0614,Lo,,,,,,2,,,,,,,,low,30,0,30,0,1,,,,,,,,,
294772,2022-12-02_13h55.02.729,vts_reward_expectancy_bt,2022.2.4,Win32,60.59871531,Chrome,1280,720,,,,,10,998,,,,,,,,,,,,,,,,,125,D,hexagon,1,1,,,,,,,,,,,,,,,,repeat,number,numRpt,d,0.5002,Hi,,,,,,2,,,,,,,,low,31,0,31,0,1,,,,,,,,,
294772,2022-12-02_13h55.02.729,vts_reward_expectancy_bt,2022.2.4,Win32,60.59871531,Chrome,1280,720,,,,,0,998,,,,,,,,,,,,,,,,,139,D,hexagon,1,0,,,,,,,,,,,,,,,,repeat,number,numRpt,d,1.2479,Hi,,,,,,3,,,,,,space,1.4607,low,0,0,0,0,1,,,,,,,,,
294772,2022-12-02_13h55.02.729,vts_reward_expectancy_bt,2022.2.4,Win32,60.59871531,Chrome,1280,720,,,,,0,998,,,,,,,,,,,,,,,,,160,U,star,1,0,,,,,,,,,,,,,,,,repeat,number,numRpt,f,0.5982,Hi,,,,,,3,,,,,,,,low,1,0,1,0,1,,,,,,,,,
294772,2022-12-02_13h55.02.729,vts_reward_expectancy_bt,2022.2.4,Win32,60.59871531,Chrome,1280,720,,,,,1,999,,,,,,,,,,,,,,,,,125,B,circle,1,0,,,,,,,,,,,,,,,,repeat,number,numRpt,d,0.4818,Lo,,,,,,3,,,,,,,,low,2,0,2,0,1,,,,,,,,,
294772,2022-12-02_13h55.02.729,vts_reward_expectancy_bt,2022.2.4,Win32,60.59871531,Chrome,1280,720,,,,,1,1000,,,,,,,,,,,,,,,,,174,H,triangle,1,0,,,,,,,,,,,,,,,,switch,letter,lettSwt,j,0.5099,Lo,,,,,,3,,,,,,,,low,3,0,3,0,1,,,,,,,,,
294772,2022-12-02_13h55.02.729,vts_reward_expectancy_bt,2022.2.4,Win32,60.59871531,Chrome,1280,720,,,,,1,1001,,,,,,,,,,,,,,,,,146,Y,hexagon,1,0,,,,,,,,,,,,,,,,repeat,letter,lettRpt,k,0.3835,Hi,,,,,,3,,,,,,,,low,4,0,4,0,1,,,,,,,,,
294772,2022-12-02_13h55.02.729,vts_reward_expectancy_bt,2022.2.4,Win32,60.59871531,Chrome,1280,720,,,,,0,1001,,,,,,,,,,,,,,,,,132,F,star,0,0,,,,,,,,,,,,,,,,repeat,letter,NA,k,0.4602,Hi,,,,,,3,,,,,,,,low,5,0,5,0,1,,,,,,,,,
294772,2022-12-02_13h55.02.729,vts_reward_expectancy_bt,2022.2.4,Win32,60.59871531,Chrome,1280,720,,,,,10,1011,,,,,,,,,,,,,,,,,167,S,circle,1,1,,,,,,,,,,,,,,,,repeat,letter,lettRpt,k,0.5739,Lo,,,,,,3,,,,,,,,low,6,0,6,0,1,,,,,,,,,
294772,2022-12-02_13h55.02.729,vts_reward_expectancy_bt,2022.2.4,Win32,60.59871531,Chrome,1280,720,,,,,10,1021,,,,,,,,,,,,,,,,,181,W,triangle,1,0,,,,,,,,,,,,,,,,switch,number,numSwt,f,0.6173,Lo,,,,,,3,,,,,,,,low,7,0,7,0,1,,,,,,,,,
294772,2022-12-02_13h55.02.729,vts_reward_expectancy_bt,2022.2.4,Win32,60.59871531,Chrome,1280,720,,,,,0,1021,,,,,,,,,,,,,,,,,139,D,hexagon,1,0,,,,,,,,,,,,,,,,repeat,number,numRpt,d,0.537,Hi,,,,,,3,,,,,,,,low,8,0,8,0,1,,,,,,,,,
294772,2022-12-02_13h55.02.729,vts_reward_expectancy_bt,2022.2.4,Win32,60.59871531,Chrome,1280,720,,,,,1,1022,,,,,,,,,,,,,,,,,160,U,circle,1,0,,,,,,,,,,,,,,,,repeat,number,numRpt,f,0.5085,Lo,,,,,,3,,,,,,,,low,9,0,9,0,1,,,,,,,,,
294772,2022-12-02_13h55.02.729,vts_reward_expectancy_bt,2022.2.4,Win32,60.59871531,Chrome,1280,720,,,,,10,1032,,,,,,,,,,,,,,,,,125,B,triangle,1,0,,,,,,,,,,,,,,,,repeat,number,numRpt,d,0.6637,Lo,,,,,,3,,,,,,,,low,10,0,10,0,1,,,,,,,,,
294772,2022-12-02_13h55.02.729,vts_reward_expectancy_bt,2022.2.4,Win32,60.59871531,Chrome,1280,720,,,,,0,1032,,,,,,,,,,,,,,,,,174,H,star,1,0,,,,,,,,,,,,,,,,repeat,number,numRpt,f,0.7304,Hi,,,,,,3,,,,,,,,low,11,0,11,0,1,,,,,,,,,
294772,2022-12-02_13h55.02.729,vts_reward_expectancy_bt,2022.2.4,Win32,60.59871531,Chrome,1280,720,,,,,0,1032,,,,,,,,,,,,,,,,,146,Y,star,1,0,,,,,,,,,,,,,,,,repeat,number,numRpt,d,0.4825,Hi,,,,,,3,,,,,,,,low,12,0,12,0,1,,,,,,,,,
294772,2022-12-02_13h55.02.729,vts_reward_expectancy_bt,2022.2.4,Win32,60.59871531,Chrome,1280,720,,,,,10,1042,,,,,,,,,,,,,,,,,132,F,circle,1,0,,,,,,,,,,,,,,,,repeat,number,numRpt,d,0.4835,Lo,,,,,,3,,,,,,,,low,13,0,13,0,1,,,,,,,,,
294772,2022-12-02_13h55.02.729,vts_reward_expectancy_bt,2022.2.4,Win32,60.59871531,Chrome,1280,720,,,,,0,1042,,,,,,,,,,,,,,,,,167,S,hexagon,1,0,,,,,,,,,,,,,,,,repeat,number,numRpt,f,0.5619,Hi,,,,,,3,,,,,,,,low,14,0,14,0,1,,,,,,,,,
294772,2022-12-02_13h55.02.729,vts_reward_expectancy_bt,2022.2.4,Win32,60.59871531,Chrome,1280,720,,,,,1,1043,,,,,,,,,,,,,,,,,181,W,triangle,1,0,,,,,,,,,,,,,,,,repeat,number,numRpt,f,0.4664,Lo,,,,,,3,,,,,,,,low,15,0,15,0,1,,,,,,,,,
294772,2022-12-02_13h55.02.729,vts_reward_expectancy_bt,2022.2.4,Win32,60.59871531,Chrome,1280,720,,,,,0,1043,,,,,,,,,,,,,,,,,146,F,star,1,0,,,,,,,,,,,,,,,,repeat,number,numRpt,d,0.534,Hi,,,,,,3,,,,,,,,low,16,0,16,0,1,,,,,,,,,
294772,2022-12-02_13h55.02.729,vts_reward_expectancy_bt,2022.2.4,Win32,60.59871531,Chrome,1280,720,,,,,1,1044,,,,,,,,,,,,,,,,,132,S,triangle,1,0,,,,,,,,,,,,,,,,repeat,number,numRpt,d,0.5468,Lo,,,,,,3,,,,,,,,low,17,0,17,0,1,,,,,,,,,
294772,2022-12-02_13h55.02.729,vts_reward_expectancy_bt,2022.2.4,Win32,60.59871531,Chrome,1280,720,,,,,10,1054,,,,,,,,,,,,,,,,,181,B,circle,1,0,,,,,,,,,,,,,,,,repeat,number,numRpt,f,0.4322,Lo,,,,,,3,,,,,,,,low,18,0,18,0,1,,,,,,,,,
294772,2022-12-02_13h55.02.729,vts_reward_expectancy_bt,2022.2.4,Win32,60.59871531,Chrome,1280,720,,,,,0,1054,,,,,,,,,,,,,,,,,139,Y,hexagon,1,0,,,,,,,,,,,,,,,,repeat,number,numRpt,d,0.6435,Hi,,,,,,3,,,,,,,,low,19,0,19,0,1,,,,,,,,,
294772,2022-12-02_13h55.02.729,vts_reward_expectancy_bt,2022.2.4,Win32,60.59871531,Chrome,1280,720,,,,,1,1055,,,,,,,,,,,,,,,,,174,U,triangle,1,0,,,,,,,,,,,,,,,,repeat,number,numRpt,f,0.7801,Lo,,,,,,3,,,,,,,,low,20,0,20,0,1,,,,,,,,,
294772,2022-12-02_13h55.02.729,vts_reward_expectancy_bt,2022.2.4,Win32,60.59871531,Chrome,1280,720,,,,,0,1055,,,,,,,,,,,,,,,,,125,W,hexagon,1,0,,,,,,,,,,,,,,,,repeat,number,numRpt,d,0.9171,Hi,,,,,,3,,,,,,,,low,21,0,21,0,1,,,,,,,,,
294772,2022-12-02_13h55.02.729,vts_reward_expectancy_bt,2022.2.4,Win32,60.59871531,Chrome,1280,720,,,,,0,1055,,,,,,,,,,,,,,,,,167,H,star,1,0,,,,,,,,,,,,,,,,repeat,number,numRpt,f,1.8511,Hi,,,,,,3,,,,,,,,low,22,0,22,0,1,,,,,,,,,
294772,2022-12-02_13h55.02.729,vts_reward_expectancy_bt,2022.2.4,Win32,60.59871531,Chrome,1280,720,,,,,1,1056,,,,,,,,,,,,,,,,,160,D,circle,1,0,,,,,,,,,,,,,,,,repeat,number,numRpt,f,0.9761,Lo,,,,,,3,,,,,,,,low,23,0,23,0,1,,,,,,,,,
294772,2022-12-02_13h55.02.729,vts_reward_expectancy_bt,2022.2.4,Win32,60.59871531,Chrome,1280,720,,,,,0,1056,,,,,,,,,,,,,,,,,125,B,hexagon,1,0,,,,,,,,,,,,,,,,repeat,number,numRpt,d,0.9052,Hi,,,,,,3,,,,,,,,low,24,0,24,0,1,,,,,,,,,
294772,2022-12-02_13h55.02.729,vts_reward_expectancy_bt,2022.2.4,Win32,60.59871531,Chrome,1280,720,,,,,0,1056,,,,,,,,,,,,,,,,,160,D,star,1,0,,,,,,,,,,,,,,,,repeat,number,numRpt,f,0.6328,Hi,,,,,,3,,,,,,,,low,25,0,25,0,1,,,,,,,,,
294772,2022-12-02_13h55.02.729,vts_reward_expectancy_bt,2022.2.4,Win32,60.59871531,Chrome,1280,720,,,,,10,1066,,,,,,,,,,,,,,,,,146,H,circle,1,0,,,,,,,,,,,,,,,,repeat,number,numRpt,d,1.3824,Lo,,,,,,3,,,,,,,,low,26,0,26,0,1,,,,,,,,,
294772,2022-12-02_13h55.02.729,vts_reward_expectancy_bt,2022.2.4,Win32,60.59871531,Chrome,1280,720,,,,,10,1076,,,,,,,,,,,,,,,,,139,S,triangle,1,0,,,,,,,,,,,,,,,,repeat,number,numRpt,d,0.568,Lo,,,,,,3,,,,,,,,low,27,0,27,0,1,,,,,,,,,
294772,2022-12-02_13h55.02.729,vts_reward_expectancy_bt,2022.2.4,Win32,60.59871531,Chrome,1280,720,,,,,1,1077,,,,,,,,,,,,,,,,,174,F,triangle,1,0,,,,,,,,,,,,,,,,repeat,number,numRpt,f,0.6317,Lo,,,,,,3,,,,,,,,low,28,0,28,0,1,,,,,,,,,
294772,2022-12-02_13h55.02.729,vts_reward_expectancy_bt,2022.2.4,Win32,60.59871531,Chrome,1280,720,,,,,0,1077,,,,,,,,,,,,,,,,,132,Y,star,1,0,,,,,,,,,,,,,,,,repeat,number,numRpt,d,0.6778,Hi,,,,,,3,,,,,,,,low,29,0,29,0,1,,,,,,,,,
294772,2022-12-02_13h55.02.729,vts_reward_expectancy_bt,2022.2.4,Win32,60.59871531,Chrome,1280,720,,,,,1,1078,,,,,,,,,,,,,,,,,181,U,circle,1,0,,,,,,,,,,,,,,,,repeat,number,numRpt,f,0.6684,Lo,,,,,,3,,,,,,,,low,30,0,30,0,1,,,,,,,,,
294772,2022-12-02_13h55.02.729,vts_reward_expectancy_bt,2022.2.4,Win32,60.59871531,Chrome,1280,720,,,,,0,1078,,,,,,,,,,,,,,,,,167,W,hexagon,1,0,,,,,,,,,,,,,,,,switch,letter,lettSwt,k,0.8118,Hi,,,,,,3,,,,,,,,low,31,0,31,0,1,,,,,,,,,
294772,2022-12-02_13h55.02.729,vts_reward_expectancy_bt,2022.2.4,Win32,60.59871531,Chrome,1280,720,,,,,0,1078,,,,,,,,,,,,,,,,,181,Y,hexagon,1,0,,,,,,,,,,,,,,,,repeat,letter,lettRpt,k,0.4671,Hi,,,,,,4,,,,,,space,0.5504,low,0,0,0,0,1,,,,,,,,,
294772,2022-12-02_13h55.02.729,vts_reward_expectancy_bt,2022.2.4,Win32,60.59871531,Chrome,1280,720,,,,,1,1079,,,,,,,,,,,,,,,,,146,W,triangle,1,0,,,,,,,,,,,,,,,,repeat,letter,lettRpt,k,0.5004,Lo,,,,,,4,,,,,,,,low,1,0,1,0,1,,,,,,,,,
294772,2022-12-02_13h55.02.729,vts_reward_expectancy_bt,2022.2.4,Win32,60.59871531,Chrome,1280,720,,,,,0,1079,,,,,,,,,,,,,,,,,167,H,star,1,0,,,,,,,,,,,,,,,,repeat,letter,lettRpt,j,0.4952,Hi,,,,,,4,,,,,,,,low,2,0,2,0,1,,,,,,,,,
294772,2022-12-02_13h55.02.729,vts_reward_expectancy_bt,2022.2.4,Win32,60.59871531,Chrome,1280,720,,,,,1,1080,,,,,,,,,,,,,,,,,174,D,circle,1,0,,,,,,,,,,,,,,,,repeat,letter,lettRpt,j,0.6785,Lo,,,,,,4,,,,,,,,low,3,0,3,0,1,,,,,,,,,
294772,2022-12-02_13h55.02.729,vts_reward_expectancy_bt,2022.2.4,Win32,60.59871531,Chrome,1280,720,,,,,0,1080,,,,,,,,,,,,,,,,,139,F,hexagon,1,0,,,,,,,,,,,,,,,,repeat,letter,lettRpt,j,0.6968,Hi,,,,,,4,,,,,,,,low,4,0,4,0,1,,,,,,,,,
294772,2022-12-02_13h55.02.729,vts_reward_expectancy_bt,2022.2.4,Win32,60.59871531,Chrome,1280,720,,,,,10,1090,,,,,,,,,,,,,,,,,125,S,triangle,1,0,,,,,,,,,,,,,,,,repeat,letter,lettRpt,k,0.5095,Lo,,,,,,4,,,,,,,,low,5,0,5,0,1,,,,,,,,,
294772,2022-12-02_13h55.02.729,vts_reward_expectancy_bt,2022.2.4,Win32,60.59871531,Chrome,1280,720,,,,,0,1090,,,,,,,,,,,,,,,,,132,B,star,1,0,,,,,,,,,,,,,,,,switch,number,numSwt,d,1.0633,Hi,,,,,,4,,,,,,,,low,6,0,6,0,1,,,,,,,,,
294772,2022-12-02_13h55.02.729,vts_reward_expectancy_bt,2022.2.4,Win32,60.59871531,Chrome,1280,720,,,,,10,1100,,,,,,,,,,,,,,,,,160,U,circle,1,0,,,,,,,,,,,,,,,,repeat,number,numRpt,f,0.4007,Lo,,,,,,4,,,,,,,,low,7,0,7,0,1,,,,,,,,,
294772,2022-12-02_13h55.02.729,vts_reward_expectancy_bt,2022.2.4,Win32,60.59871531,Chrome,1280,720,,,,,1,1101,,,,,,,,,,,,,,,,,181,Y,circle,1,0,,,,,,,,,,,,,,,,repeat,number,numRpt,f,1.2376,Lo,,,,,,4,,,,,,,,low,8,0,8,0,1,,,,,,,,,
294772,2022-12-02_13h55.02.729,vts_reward_expectancy_bt,2022.2.4,Win32,60.59871531,Chrome,1280,720,,,,,1,1102,,,,,,,,,,,,,,,,,146,W,triangle,1,0,,,,,,,,,,,,,,,,repeat,number,numRpt,d,0.621,Lo,,,,,,4,,,,,,,,low,9,0,9,0,1,,,,,,,,,
294772,2022-12-02_13h55.02.729,vts_reward_expectancy_bt,2022.2.4,Win32,60.59871531,Chrome,1280,720,,,,,0,1102,,,,,,,,,,,,,,,,,167,H,star,1,0,,,,,,,,,,,,,,,,switch,letter,lettSwt,j,0.5494,Hi,,,,,,4,,,,,,,,low,10,0,10,0,1,,,,,,,,,
294772,2022-12-02_13h55.02.729,vts_reward_expectancy_bt,2022.2.4,Win32,60.59871531,Chrome,1280,720,,,,,0,1102,,,,,,,,,,,,,,,,,174,D,hexagon,1,0,,,,,,,,,,,,,,,,repeat,letter,lettRpt,j,0.7088,Hi,,,,,,4,,,,,,,,low,11,0,11,0,1,,,,,,,,,
294772,2022-12-02_13h55.02.729,vts_reward_expectancy_bt,2022.2.4,Win32,60.59871531,Chrome,1280,720,,,,,0,1102,,,,,,,,,,,,,,,,,139,F,star,1,0,,,,,,,,,,,,,,,,repeat,letter,lettRpt,j,0.5341,Hi,,,,,,4,,,,,,,,low,12,0,12,0,1,,,,,,,,,
294772,2022-12-02_13h55.02.729,vts_reward_expectancy_bt,2022.2.4,Win32,60.59871531,Chrome,1280,720,,,,,0,1102,,,,,,,,,,,,,,,,,125,S,hexagon,0,0,,,,,,,,,,,,,,,,repeat,letter,NA,j,0.3824,Hi,,,,,,4,,,,,,,,low,13,0,13,0,1,,,,,,,,,
294772,2022-12-02_13h55.02.729,vts_reward_expectancy_bt,2022.2.4,Win32,60.59871531,Chrome,1280,720,,,,,1,1103,,,,,,,,,,,,,,,,,132,B,triangle,1,1,,,,,,,,,,,,,,,,repeat,letter,lettRpt,j,0.4835,Lo,,,,,,4,,,,,,,,low,14,0,14,0,1,,,,,,,,,
294772,2022-12-02_13h55.02.729,vts_reward_expectancy_bt,2022.2.4,Win32,60.59871531,Chrome,1280,720,,,,,1,1104,,,,,,,,,,,,,,,,,160,U,circle,1,0,,,,,,,,,,,,,,,,repeat,letter,lettRpt,k,0.4402,Lo,,,,,,4,,,,,,,,low,15,0,15,0,1,,,,,,,,,
294772,2022-12-02_13h55.02.729,vts_reward_expectancy_bt,2022.2.4,Win32,60.59871531,Chrome,1280,720,,,,,0,1104,,,,,,,,,,,,,,,,,167,Y,hexagon,1,0,,,,,,,,,,,,,,,,repeat,letter,lettRpt,k,0.4718,Hi,,,,,,4,,,,,,,,low,16,0,16,0,1,,,,,,,,,
294772,2022-12-02_13h55.02.729,vts_reward_expectancy_bt,2022.2.4,Win32,60.59871531,Chrome,1280,720,,,,,10,1114,,,,,,,,,,,,,,,,,174,W,triangle,1,0,,,,,,,,,,,,,,,,repeat,letter,lettRpt,k,0.4211,Lo,,,,,,4,,,,,,,,low,17,0,17,0,1,,,,,,,,,
294772,2022-12-02_13h55.02.729,vts_reward_expectancy_bt,2022.2.4,Win32,60.59871531,Chrome,1280,720,,,,,1,1115,,,,,,,,,,,,,,,,,125,H,circle,1,0,,,,,,,,,,,,,,,,switch,number,numSwt,d,1.4449,Lo,,,,,,4,,,,,,,,low,18,0,18,0,1,,,,,,,,,
294772,2022-12-02_13h55.02.729,vts_reward_expectancy_bt,2022.2.4,Win32,60.59871531,Chrome,1280,720,,,,,0,1115,,,,,,,,,,,,,,,,,146,D,star,1,0,,,,,,,,,,,,,,,,repeat,number,numRpt,d,0.7968,Hi,,,,,,4,,,,,,,,low,19,0,19,0,1,,,,,,,,,
294772,2022-12-02_13h55.02.729,vts_reward_expectancy_bt,2022.2.4,Win32,60.59871531,Chrome,1280,720,,,,,10,1125,,,,,,,,,,,,,,,,,132,S,star,1,0,,,,,,,,,,,,,,,,repeat,number,numRpt,d,0.4961,Hi,,,,,,4,,,,,,,,low,20,0,20,0,1,,,,,,,,,
294772,2022-12-02_13h55.02.729,vts_reward_expectancy_bt,2022.2.4,Win32,60.59871531,Chrome,1280,720,,,,,0,1125,,,,,,,,,,,,,,,,,181,B,hexagon,1,0,,,,,,,,,,,,,,,,repeat,number,numRpt,f,0.8663,Hi,,,,,,4,,,,,,,,low,21,0,21,0,1,,,,,,,,,
294772,2022-12-02_13h55.02.729,vts_reward_expectancy_bt,2022.2.4,Win32,60.59871531,Chrome,1280,720,,,,,10,1135,,,,,,,,,,,,,,,,,160,U,circle,1,0,,,,,,,,,,,,,,,,repeat,number,numRpt,f,0.8525,Lo,,,,,,4,,,,,,,,low,22,0,22,0,1,,,,,,,,,
294772,2022-12-02_13h55.02.729,vts_reward_expectancy_bt,2022.2.4,Win32,60.59871531,Chrome,1280,720,,,,,10,1145,,,,,,,,,,,,,,,,,139,F,triangle,1,0,,,,,,,,,,,,,,,,repeat,number,numRpt,d,0.667,Lo,,,,,,4,,,,,,,,low,23,0,23,0,1,,,,,,,,,
294772,2022-12-02_13h55.02.729,vts_reward_expectancy_bt,2022.2.4,Win32,60.59871531,Chrome,1280,720,,,,,0,1145,,,,,,,,,,,,,,,,,174,Y,star,1,0,,,,,,,,,,,,,,,,repeat,number,numRpt,f,0.729,Hi,,,,,,4,,,,,,,,low,24,0,24,0,1,,,,,,,,,
294772,2022-12-02_13h55.02.729,vts_reward_expectancy_bt,2022.2.4,Win32,60.59871531,Chrome,1280,720,,,,,1,1146,,,,,,,,,,,,,,,,,139,D,triangle,1,0,,,,,,,,,,,,,,,,repeat,number,numRpt,d,0.6809,Lo,,,,,,4,,,,,,,,low,25,0,25,0,1,,,,,,,,,
294772,2022-12-02_13h55.02.729,vts_reward_expectancy_bt,2022.2.4,Win32,60.59871531,Chrome,1280,720,,,,,0,1146,,,,,,,,,,,,,,,,,181,H,circle,0,0,,,,,,,,,,,,,,,,repeat,number,NA,d,0.0789,Lo,,,,,,4,,,,,,,,low,26,0,26,0,1,,,,,,,,,
294772,2022-12-02_13h55.02.729,vts_reward_expectancy_bt,2022.2.4,Win32,60.59871531,Chrome,1280,720,,,,,0,1146,,,,,,,,,,,,,,,,,146,S,hexagon,1,1,,,,,,,,,,,,,,,,repeat,number,numRpt,d,0.6507,Hi,,,,,,4,,,,,,,,low,27,0,27,0,1,,,,,,,,,
294772,2022-12-02_13h55.02.729,vts_reward_expectancy_bt,2022.2.4,Win32,60.59871531,Chrome,1280,720,,,,,1,1147,,,,,,,,,,,,,,,,,132,F,triangle,1,0,,,,,,,,,,,,,,,,repeat,number,numRpt,d,0.7009,Lo,,,,,,4,,,,,,,,low,28,0,28,0,1,,,,,,,,,
294772,2022-12-02_13h55.02.729,vts_reward_expectancy_bt,2022.2.4,Win32,60.59871531,Chrome,1280,720,,,,,10,1157,,,,,,,,,,,,,,,,,125,B,hexagon,1,0,,,,,,,,,,,,,,,,repeat,number,numRpt,d,0.0008,Hi,,,,,,4,,,,,,,,low,29,0,29,0,1,,,,,,,,,
294772,2022-12-02_13h55.02.729,vts_reward_expectancy_bt,2022.2.4,Win32,60.59871531,Chrome,1280,720,,,,,0,1157,,,,,,,,,,,,,,,,,160,U,star,0,0,,,,,,,,,,,,,,,,switch,letter,NA,j,0.0009,Hi,,,,,,4,,,,,,,,low,30,0,30,0,1,,,,,,,,,
294772,2022-12-02_13h55.02.729,vts_reward_expectancy_bt,2022.2.4,Win32,60.59871531,Chrome,1280,720,,,,,10,1167,,,,,,,,,,,,,,,,,167,W,circle,1,1,,,,,,,,,,,,,,,,repeat,letter,lettRpt,k,0.001,Lo,,,,,,4,,,,,,,,low,31,0,31,0,1,,,,,,,,,
294772,2022-12-02_13h55.02.729,vts_reward_expectancy_bt,2022.2.4,Win32,60.59871531,Chrome,1280,720,,,,,1,1168,,,,,,,,,,,,,,,,,181,H,circle,1,0,,,,,,,,,,,,,,,,switch,number,numSwt,f,0.4159,Lo,,,,,,5,,,,,,space,0.6464,low,0,0,0,0,1,,,,,,,,,
294772,2022-12-02_13h55.02.729,vts_reward_expectancy_bt,2022.2.4,Win32,60.59871531,Chrome,1280,720,,,,,0,1168,,,,,,,,,,,,,,,,,174,W,triangle,0,0,,,,,,,,,,,,,,,,repeat,number,NA,d,0.4851,Lo,,,,,,5,,,,,,,,low,1,0,1,0,1,,,,,,,,,
294772,2022-12-02_13h55.02.729,vts_reward_expectancy_bt,2022.2.4,Win32,60.59871531,Chrome,1280,720,,,,,0,1168,,,,,,,,,,,,,,,,,132,F,star,1,1,,,,,,,,,,,,,,,,repeat,number,numRpt,d,0.7034,Hi,,,,,,5,,,,,,,,low,2,0,2,0,1,,,,,,,,,
294772,2022-12-02_13h55.02.729,vts_reward_expectancy_bt,2022.2.4,Win32,60.59871531,Chrome,1280,720,,,,,10,1178,,,,,,,,,,,,,,,,,167,S,hexagon,1,0,,,,,,,,,,,,,,,,repeat,number,numRpt,f,0.3977,Hi,,,,,,5,,,,,,,,low,3,0,3,0,1,,,,,,,,,
294772,2022-12-02_13h55.02.729,vts_reward_expectancy_bt,2022.2.4,Win32,60.59871531,Chrome,1280,720,,,,,1,1179,,,,,,,,,,,,,,,,,146,D,circle,1,0,,,,,,,,,,,,,,,,repeat,number,numRpt,d,0.6795,Lo,,,,,,5,,,,,,,,low,4,0,4,0,1,,,,,,,,,
294772,2022-12-02_13h55.02.729,vts_reward_expectancy_bt,2022.2.4,Win32,60.59871531,Chrome,1280,720,,,,,1,1180,,,,,,,,,,,,,,,,,139,Y,triangle,1,0,,,,,,,,,,,,,,,,repeat,number,numRpt,d,0.4116,Lo,,,,,,5,,,,,,,,low,5,0,5,0,1,,,,,,,,,
294772,2022-12-02_13h55.02.729,vts_reward_expectancy_bt,2022.2.4,Win32,60.59871531,Chrome,1280,720,,,,,0,1180,,,,,,,,,,,,,,,,,160,B,star,1,0,,,,,,,,,,,,,,,,repeat,number,numRpt,f,0.7671,Hi,,,,,,5,,,,,,,,low,6,0,6,0,1,,,,,,,,,
294772,2022-12-02_13h55.02.729,vts_reward_expectancy_bt,2022.2.4,Win32,60.59871531,Chrome,1280,720,,,,,10,1190,,,,,,,,,,,,,,,,,125,U,hexagon,1,0,,,,,,,,,,,,,,,,repeat,number,numRpt,d,0.0009,Hi,,,,,,5,,,,,,,,low,7,0,7,0,1,,,,,,,,,
294772,2022-12-02_13h55.02.729,vts_reward_expectancy_bt,2022.2.4,Win32,60.59871531,Chrome,1280,720,,,,,10,1200,,,,,,,,,,,,,,,,,181,H,triangle,1,0,,,,,,,,,,,,,,,,repeat,number,numRpt,f,0.0693,Lo,,,,,,5,,,,,,,,low,8,0,8,0,1,,,,,,,,,
294772,2022-12-02_13h55.02.729,vts_reward_expectancy_bt,2022.2.4,Win32,60.59871531,Chrome,1280,720,,,,,0,1200,,,,,,,,,,,,,,,,,174,W,hexagon,0,0,,,,,,,,,,,,,,,,repeat,number,NA,d,0.1014,Lo,,,,,,5,,,,,,,,low,9,0,9,0,1,,,,,,,,,
294772,2022-12-02_13h55.02.729,vts_reward_expectancy_bt,2022.2.4,Win32,60.59871531,Chrome,1280,720,,,,,0,1200,,,,,,,,,,,,,,,,,132,F,star,1,1,,,,,,,,,,,,,,,,repeat,number,numRpt,d,1.0798,Hi,,,,,,5,,,,,,,,low,10,0,10,0,1,,,,,,,,,
294772,2022-12-02_13h55.02.729,vts_reward_expectancy_bt,2022.2.4,Win32,60.59871531,Chrome,1280,720,,,,,1,1201,,,,,,,,,,,,,,,,,167,S,circle,1,0,,,,,,,,,,,,,,,,repeat,number,numRpt,f,0.6839,Lo,,,,,,5,,,,,,,,low,11,0,11,0,1,,,,,,,,,
294772,2022-12-02_13h55.02.729,vts_reward_expectancy_bt,2022.2.4,Win32,60.59871531,Chrome,1280,720,,,,,1,1202,,,,,,,,,,,,,,,,,146,D,triangle,1,0,,,,,,,,,,,,,,,,repeat,number,numRpt,d,0.4623,Lo,,,,,,5,,,,,,,,low,12,0,12,0,1,,,,,,,,,
294772,2022-12-02_13h55.02.729,vts_reward_expectancy_bt,2022.2.4,Win32,60.59871531,Chrome,1280,720,,,,,1,1203,,,,,,,,,,,,,,,,,139,Y,star,1,0,,,,,,,,,,,,,,,,repeat,number,numRpt,d,0.5507,Hi,,,,,,5,,,,,,,,low,13,0,13,0,1,,,,,,,,,
294772,2022-12-02_13h55.02.729,vts_reward_expectancy_bt,2022.2.4,Win32,60.59871531,Chrome,1280,720,,,,,0,1203,,,,,,,,,,,,,,,,,160,B,circle,0,0,,,,,,,,,,,,,,,,repeat,number,NA,d,0.0678,Hi,,,,,,5,,,,,,,,low,14,0,14,0,1,,,,,,,,,
294772,2022-12-02_13h55.02.729,vts_reward_expectancy_bt,2022.2.4,Win32,60.59871531,Chrome,1280,720,,,,,0,1203,,,,,,,,,,,,,,,,,125,U,hexagon,0,1,,,,,,,,,,,,,,,,repeat,number,NA,f,0.5176,Hi,,,,,,5,,,,,,,,low,15,0,15,0,1,,,,,,,,,
294772,2022-12-02_13h55.02.729,vts_reward_expectancy_bt,2022.2.4,Win32,60.59871531,Chrome,1280,720,,,,,1,1204,,,,,,,,,,,,,,,,,146,U,triangle,1,1,,,,,,,,,,,,,,,,repeat,number,numRpt,d,0.4668,Lo,,,,,,5,,,,,,,,low,16,0,16,0,1,,,,,,,,,
294772,2022-12-02_13h55.02.729,vts_reward_expectancy_bt,2022.2.4,Win32,60.59871531,Chrome,1280,720,,,,,10,1214,,,,,,,,,,,,,,,,,181,Y,star,1,0,,,,,,,,,,,,,,,,repeat,number,numRpt,f,0.4379,Hi,,,,,,5,,,,,,,,low,17,0,17,0,1,,,,,,,,,
294772,2022-12-02_13h55.02.729,vts_reward_expectancy_bt,2022.2.4,Win32,60.59871531,Chrome,1280,720,,,,,0,1214,,,,,,,,,,,,,,,,,167,D,hexagon,0,0,,,,,,,,,,,,,,,,repeat,number,NA,d,0.2007,Hi,,,,,,5,,,,,,,,low,18,0,18,0,1,,,,,,,,,
294772,2022-12-02_13h55.02.729,vts_reward_expectancy_bt,2022.2.4,Win32,60.59871531,Chrome,1280,720,,,,,0,1214,,,,,,,,,,,,,,,,,174,W,circle,0,1,,,,,,,,,,,,,,,,repeat,number,NA,d,0.0835,Hi,,,,,,5,,,,,,,,low,19,0,19,0,1,,,,,,,,,
294772,2022-12-02_13h55.02.729,vts_reward_expectancy_bt,2022.2.4,Win32,60.59871531,Chrome,1280,720,,,,,10,1224,,,,,,,,,,,,,,,,,139,F,triangle,1,1,,,,,,,,,,,,,,,,repeat,number,numRpt,d,0.3666,Lo,,,,,,5,,,,,,,,low,20,0,20,0,1,,,,,,,,,
294772,2022-12-02_13h55.02.729,vts_reward_expectancy_bt,2022.2.4,Win32,60.59871531,Chrome,1280,720,,,,,1,1225,,,,,,,,,,,,,,,,,160,H,circle,1,0,,,,,,,,,,,,,,,,repeat,number,numRpt,f,0.3663,Lo,,,,,,5,,,,,,,,low,21,0,21,0,1,,,,,,,,,
294772,2022-12-02_13h55.02.729,vts_reward_expectancy_bt,2022.2.4,Win32,60.59871531,Chrome,1280,720,,,,,0,1225,,,,,,,,,,,,,,,,,125,B,hexagon,0,0,,,,,,,,,,,,,,,,repeat,number,NA,f,0.1942,Lo,,,,,,5,,,,,,,,low,22,0,22,0,1,,,,,,,,,
294772,2022-12-02_13h55.02.729,vts_reward_expectancy_bt,2022.2.4,Win32,60.59871531,Chrome,1280,720,,,,,10,1235,,,,,,,,,,,,,,,,,132,S,star,1,1,,,,,,,,,,,,,,,,repeat,number,numRpt,d,0.5755,Hi,,,,,,5,,,,,,,,low,23,0,23,0,1,,,,,,,,,
294772,2022-12-02_13h55.02.729,vts_reward_expectancy_bt,2022.2.4,Win32,60.59871531,Chrome,1280,720,,,,,0,1235,,,,,,,,,,,,,,,,,139,F,triangle,0,0,,,,,,,,,,,,,,,,repeat,number,NA,f,0.7802,Hi,,,,,,5,,,,,,,,low,24,0,24,0,1,,,,,,,,,
294772,2022-12-02_13h55.02.729,vts_reward_expectancy_bt,2022.2.4,Win32,60.59871531,Chrome,1280,720,,,,,1,1236,,,,,,,,,,,,,,,,,160,B,circle,1,1,,,,,,,,,,,,,,,,repeat,number,numRpt,f,0.9805,Lo,,,,,,5,,,,,,,,low,25,0,25,0,1,,,,,,,,,
294772,2022-12-02_13h55.02.729,vts_reward_expectancy_bt,2022.2.4,Win32,60.59871531,Chrome,1280,720,,,,,0,1236,,,,,,,,,,,,,,,,,167,Y,hexagon,1,0,,,,,,,,,,,,,,,,repeat,number,numRpt,f,1.5669,Hi,,,,,,5,,,,,,,,low,26,0,26,0,1,,,,,,,,,
294772,2022-12-02_13h55.02.729,vts_reward_expectancy_bt,2022.2.4,Win32,60.59871531,Chrome,1280,720,,,,,0,1236,,,,,,,,,,,,,,,,,125,H,star,1,0,,,,,,,,,,,,,,,,repeat,number,numRpt,d,0.7925,Hi,,,,,,5,,,,,,,,low,27,0,27,0,1,,,,,,,,,
294772,2022-12-02_13h55.02.729,vts_reward_expectancy_bt,2022.2.4,Win32,60.59871531,Chrome,1280,720,,,,,0,1236,,,,,,,,,,,,,,,,,146,D,star,1,0,,,,,,,,,,,,,,,,repeat,number,numRpt,d,1.715,Hi,,,,,,5,,,,,,,,low,28,0,28,0,1,,,,,,,,,
294772,2022-12-02_13h55.02.729,vts_reward_expectancy_bt,2022.2.4,Win32,60.59871531,Chrome,1280,720,,,,,10,1246,,,,,,,,,,,,,,,,,174,S,circle,1,0,,,,,,,,,,,,,,,,repeat,number,numRpt,f,2.2291,Lo,,,,,,5,,,,,,,,low,29,0,29,0,1,,,,,,,,,
294772,2022-12-02_13h55.02.729,vts_reward_expectancy_bt,2022.2.4,Win32,60.59871531,Chrome,1280,720,,,,,1,1247,,,,,,,,,,,,,,,,,181,W,triangle,1,0,,,,,,,,,,,,,,,,repeat,number,numRpt,f,0.6794,Lo,,,,,,5,,,,,,,,low,30,0,30,0,1,,,,,,,,,
294772,2022-12-02_13h55.02.729,vts_reward_expectancy_bt,2022.2.4,Win32,60.59871531,Chrome,1280,720,,,,,0,1247,,,,,,,,,,,,,,,,,132,U,hexagon,1,0,,,,,,,,,,,,,,,,repeat,number,numRpt,d,2.2125,Hi,,,,,,5,,,,,,,,low,31,0,31,0,1,,,,,,,,,
294772,2022-12-02_13h55.02.729,vts_reward_expectancy_bt,2022.2.4,Win32,60.59871531,Chrome,1280,720,,,,,1,1248,,,,,,,,,,,,,,,,,160,D,circle,1,0,,,,,,,,,,,,,,,,repeat,number,numRpt,f,0.7496,Lo,,,,,,6,,,,,,space,7.4627,low,0,0,0,0,1,,,,,,,,,
294772,2022-12-02_13h55.02.729,vts_reward_expectancy_bt,2022.2.4,Win32,60.59871531,Chrome,1280,720,,,,,0,1248,,,,,,,,,,,,,,,,,132,H,hexagon,1,0,,,,,,,,,,,,,,,,repeat,number,numRpt,d,0.5018,Hi,,,,,,6,,,,,,,,low,1,0,1,0,1,,,,,,,,,
294772,2022-12-02_13h55.02.729,vts_reward_expectancy_bt,2022.2.4,Win32,60.59871531,Chrome,1280,720,,,,,1,1249,,,,,,,,,,,,,,,,,167,S,triangle,1,0,,,,,,,,,,,,,,,,repeat,number,numRpt,f,0.9818,Lo,,,,,,6,,,,,,,,low,2,0,2,0,1,,,,,,,,,
294772,2022-12-02_13h55.02.729,vts_reward_expectancy_bt,2022.2.4,Win32,60.59871531,Chrome,1280,720,,,,,0,1249,,,,,,,,,,,,,,,,,174,W,star,1,0,,,,,,,,,,,,,,,,repeat,number,numRpt,f,0.58,Hi,,,,,,6,,,,,,,,low,3,0,3,0,1,,,,,,,,,
294772,2022-12-02_13h55.02.729,vts_reward_expectancy_bt,2022.2.4,Win32,60.59871531,Chrome,1280,720,,,,,10,1259,,,,,,,,,,,,,,,,,181,U,circle,1,0,,,,,,,,,,,,,,,,repeat,number,numRpt,f,1.045,Lo,,,,,,6,,,,,,,,low,4,0,4,0,1,,,,,,,,,
294772,2022-12-02_13h55.02.729,vts_reward_expectancy_bt,2022.2.4,Win32,60.59871531,Chrome,1280,720,,,,,0,1259,,,,,,,,,,,,,,,,,125,Y,hexagon,1,0,,,,,,,,,,,,,,,,repeat,number,numRpt,d,0.7507,Hi,,,,,,6,,,,,,,,low,5,0,5,0,1,,,,,,,,,
294772,2022-12-02_13h55.02.729,vts_reward_expectancy_bt,2022.2.4,Win32,60.59871531,Chrome,1280,720,,,,,1,1260,,,,,,,,,,,,,,,,,146,F,triangle,1,0,,,,,,,,,,,,,,,,repeat,number,numRpt,d,0.5174,Lo,,,,,,6,,,,,,,,low,6,0,6,0,1,,,,,,,,,
294772,2022-12-02_13h55.02.729,vts_reward_expectancy_bt,2022.2.4,Win32,60.59871531,Chrome,1280,720,,,,,10,1270,,,,,,,,,,,,,,,,,139,B,star,1,0,,,,,,,,,,,,,,,,switch,letter,lettSwt,j,0.3135,Hi,,,,,,6,,,,,,,,low,7,0,7,0,1,,,,,,,,,
294772,2022-12-02_13h55.02.729,vts_reward_expectancy_bt,2022.2.4,Win32,60.59871531,Chrome,1280,720,,,,,0,1270,,,,,,,,,,,,,,,,,160,D,star,0,0,,,,,,,,,,,,,,,,repeat,letter,NA,k,0.4026,Hi,,,,,,6,,,,,,,,low,8,0,8,0,1,,,,,,,,,
294772,2022-12-02_13h55.02.729,vts_reward_expectancy_bt,2022.2.4,Win32,60.59871531,Chrome,1280,720,,,,,1,1271,,,,,,,,,,,,,,,,,132,H,triangle,1,1,,,,,,,,,,,,,,,,repeat,letter,lettRpt,j,0.001,Lo,,,,,,6,,,,,,,,low,9,0,9,0,1,,,,,,,,,
294772,2022-12-02_13h55.02.729,vts_reward_expectancy_bt,2022.2.4,Win32,60.59871531,Chrome,1280,720,,,,,1,1272,,,,,,,,,,,,,,,,,167,S,circle,1,0,,,,,,,,,,,,,,,,repeat,letter,lettRpt,k,0.4485,Lo,,,,,,6,,,,,,,,low,10,0,10,0,1,,,,,,,,,
294772,2022-12-02_13h55.02.729,vts_reward_expectancy_bt,2022.2.4,Win32,60.59871531,Chrome,1280,720,,,,,1,1273,,,,,,,,,,,,,,,,,174,W,hexagon,1,0,,,,,,,,,,,,,,,,repeat,letter,lettRpt,k,0.8309,Hi,,,,,,6,,,,,,,,low,11,0,11,0,1,,,,,,,,,
294772,2022-12-02_13h55.02.729,vts_reward_expectancy_bt,2022.2.4,Win32,60.59871531,Chrome,1280,720,,,,,1,1274,,,,,,,,,,,,,,,,,181,U,circle,1,0,,,,,,,,,,,,,,,,repeat,letter,lettRpt,k,0.5837,Lo,,,,,,6,,,,,,,,low,12,0,12,0,1,,,,,,,,,
294772,2022-12-02_13h55.02.729,vts_reward_expectancy_bt,2022.2.4,Win32,60.59871531,Chrome,1280,720,,,,,10,1284,,,,,,,,,,,,,,,,,125,Y,hexagon,1,0,,,,,,,,,,,,,,,,repeat,letter,lettRpt,k,0.4159,Hi,,,,,,6,,,,,,,,low,13,0,13,0,1,,,,,,,,,
294772,2022-12-02_13h55.02.729,vts_reward_expectancy_bt,2022.2.4,Win32,60.59871531,Chrome,1280,720,,,,,10,1294,,,,,,,,,,,,,,,,,146,F,triangle,1,0,,,,,,,,,,,,,,,,switch,number,numSwt,d,0.9003,Lo,,,,,,6,,,,,,,,low,14,0,14,0,1,,,,,,,,,
294772,2022-12-02_13h55.02.729,vts_reward_expectancy_bt,2022.2.4,Win32,60.59871531,Chrome,1280,720,,,,,0,1294,,,,,,,,,,,,,,,,,139,B,star,1,0,,,,,,,,,,,,,,,,repeat,number,numRpt,d,0.7098,Hi,,,,,,6,,,,,,,,low,15,0,15,0,1,,,,,,,,,
294772,2022-12-02_13h55.02.729,vts_reward_expectancy_bt,2022.2.4,Win32,60.59871531,Chrome,1280,720,,,,,1,1295,,,,,,,,,,,,,,,,,167,W,circle,1,0,,,,,,,,,,,,,,,,repeat,number,numRpt,f,0.8669,Lo,,,,,,6,,,,,,,,low,16,0,16,0,1,,,,,,,,,
