participant,date,expName,psychopyVersion,OS,frameRate,browser,xResolution,yResolution,key_resp.keys,key_resp.rt,training_resp.keys,training_resp.rt,points_trial,points_cumul,trainBlock,training.thisRepN,training.thisTrialN,training.thisN,training.thisIndex,training.ran,LTriangleOpac,LCircleOpac,LHexagonOpac,LStarOpac,RTriangleOpac,RCircleOpac,RHexagonOpac,RStarOpac,LShape_ID,RShape_ID,curr_topStim,curr_bottStim,curr_shape,acc,E1,target_resp_prac1.keys,pracBlock,task1_prac_trials.thisRepN,task1_prac_trials.thisTrialN,task1_prac_trials.thisN,task1_prac_trials.thisIndex,task1_prac_trials.ran,target_resp_prac1.rt,target_resp_prac2.keys,target_resp_prac2.rt,task2_praac_trials.thisRepN,task2_praac_trials.thisTrialN,task2_praac_trials.thisN,task2_praac_trials.thisIndex,task2_praac_trials.ran,alt,task,condition,target_resp.keys,target_resp.rt,rewCond,vts_practice_trials.thisRepN,vts_practice_trials.thisTrialN,vts_practice_trials.thisN,vts_practice_trials.thisIndex,vts_practice_trials.ran,blockNum,trials_norew.thisRepN,trials_norew.thisTrialN,trials_norew.thisN,trials_norew.thisIndex,trials_norew.ran,key_resp_2.keys,key_resp_2.rt,rewExpectancy,trials_rew.thisRepN,trials_rew.thisTrialN,trials_rew.thisN,trials_rew.thisIndex,trials_rew.ran,Q1,Q2,Q2_text,Q3,Q4,Q5_text,Q5,xRes,yRes
294763,2022-11-29_12h01.19.428,vts_reward_expectancy_bt,2022.2.4,Win32,60.3427468,Chrome,1280,800,,,,,,,,,,,,,,,,,,,,,,,,,,,,,,,,,,,,,,,,,,,,,,,,,,,,,,,,,,,,,,,,,,,,,,,,,,,,
294763,2022-11-29_12h01.19.428,vts_reward_expectancy_bt,2022.2.4,Win32,60.3427468,Chrome,1280,800,space,6.1713,,,,,,,,,,,,,,,,,,,,,,,,,,,,,,,,,,,,,,,,,,,,,,,,,,,,,,,,,,,,,,,,,,,,,,,,,,
294763,2022-11-29_12h01.19.428,vts_reward_expectancy_bt,2022.2.4,Win32,60.3427468,Chrome,1280,800,,,,,,,,,,,,,,,,,,,,,,,,,,,,,,,,,,,,,,,,,,,,,,,,,,,,,,,,,,,,,,,,,,,,,,,,,,,,
294763,2022-11-29_12h01.19.428,vts_reward_expectancy_bt,2022.2.4,Win32,60.3427468,Chrome,1280,800,,,l,1.4317,1,1,0,0,0,0,2,1,1,0,0,0,0,0,0,1,triangle,star,,,,,,,,,,,,,,,,,,,,,,,,,,,,,,,,,,,,,,,,,,,,,,,,,,,,,,
294763,2022-11-29_12h01.19.428,vts_reward_expectancy_bt,2022.2.4,Win32,60.3427468,Chrome,1280,800,,,l,1.101,10,11,0,0,1,1,10,1,0,0,0,1,0,1,0,0,star ,circle,,,,,,,,,,,,,,,,,,,,,,,,,,,,,,,,,,,,,,,,,,,,,,,,,,,,,,
294763,2022-11-29_12h01.19.428,vts_reward_expectancy_bt,2022.2.4,Win32,60.3427468,Chrome,1280,800,,,l,0.6315,10,21,0,0,2,2,11,1,0,0,0,1,0,0,1,0,star,hexagon,,,,,,,,,,,,,,,,,,,,,,,,,,,,,,,,,,,,,,,,,,,,,,,,,,,,,,
294763,2022-11-29_12h01.19.428,vts_reward_expectancy_bt,2022.2.4,Win32,60.3427468,Chrome,1280,800,,,a,0.9892,10,31,0,0,3,3,4,1,0,1,0,0,0,0,1,0,circle,hexagon,,,,,,,,,,,,,,,,,,,,,,,,,,,,,,,,,,,,,,,,,,,,,,,,,,,,,,
294763,2022-11-29_12h01.19.428,vts_reward_expectancy_bt,2022.2.4,Win32,60.3427468,Chrome,1280,800,,,l,0.6346,10,41,0,0,4,4,0,1,1,0,0,0,0,1,0,0,triangle,circle,,,,,,,,,,,,,,,,,,,,,,,,,,,,,,,,,,,,,,,,,,,,,,,,,,,,,,
294763,2022-11-29_12h01.19.428,vts_reward_expectancy_bt,2022.2.4,Win32,60.3427468,Chrome,1280,800,,,a,0.7198,10,51,0,0,5,5,7,1,0,0,1,0,0,1,0,0,hexagon,circle,,,,,,,,,,,,,,,,,,,,,,,,,,,,,,,,,,,,,,,,,,,,,,,,,,,,,,
294763,2022-11-29_12h01.19.428,vts_reward_expectancy_bt,2022.2.4,Win32,60.3427468,Chrome,1280,800,,,a,0.5683,10,61,0,0,6,6,8,1,0,0,1,0,0,0,0,1,hexagon,star,,,,,,,,,,,,,,,,,,,,,,,,,,,,,,,,,,,,,,,,,,,,,,,,,,,,,,
294763,2022-11-29_12h01.19.428,vts_reward_expectancy_bt,2022.2.4,Win32,60.3427468,Chrome,1280,800,,,l,0.6493,10,71,0,0,7,7,1,1,1,0,0,0,0,0,1,0,triangle,hexagon,,,,,,,,,,,,,,,,,,,,,,,,,,,,,,,,,,,,,,,,,,,,,,,,,,,,,,
294763,2022-11-29_12h01.19.428,vts_reward_expectancy_bt,2022.2.4,Win32,60.3427468,Chrome,1280,800,,,l,0.5414,1,72,0,0,8,8,9,1,0,0,0,1,1,0,0,0,star,triangle,,,,,,,,,,,,,,,,,,,,,,,,,,,,,,,,,,,,,,,,,,,,,,,,,,,,,,
294763,2022-11-29_12h01.19.428,vts_reward_expectancy_bt,2022.2.4,Win32,60.3427468,Chrome,1280,800,,,a,0.8245,10,82,0,0,9,9,6,1,0,0,1,0,1,0,0,0,hexagon,triangle,,,,,,,,,,,,,,,,,,,,,,,,,,,,,,,,,,,,,,,,,,,,,,,,,,,,,,
294763,2022-11-29_12h01.19.428,vts_reward_expectancy_bt,2022.2.4,Win32,60.3427468,Chrome,1280,800,,,a,0.734,1,83,0,0,10,10,3,1,0,1,0,0,1,0,0,0,circle,triangle,,,,,,,,,,,,,,,,,,,,,,,,,,,,,,,,,,,,,,,,,,,,,,,,,,,,,,
294763,2022-11-29_12h01.19.428,vts_reward_expectancy_bt,2022.2.4,Win32,60.3427468,Chrome,1280,800,,,a,0.5256,1,84,0,0,11,11,5,1,0,1,0,0,0,0,0,1,circle,star,,,,,,,,,,,,,,,,,,,,,,,,,,,,,,,,,,,,,,,,,,,,,,,,,,,,,,
294763,2022-11-29_12h01.19.428,vts_reward_expectancy_bt,2022.2.4,Win32,60.3427468,Chrome,1280,800,,,a,0.8198,1,85,0,1,0,12,2,1,1,0,0,0,0,0,0,1,triangle,star,,,,,,,,,,,,,,,,,,,,,,,,,,,,,,,,,,,,,,,,,,,,,,,,,,,,,,
294763,2022-11-29_12h01.19.428,vts_reward_expectancy_bt,2022.2.4,Win32,60.3427468,Chrome,1280,800,,,a,1.1178,1,86,0,1,1,13,9,1,0,0,0,1,1,0,0,0,star,triangle,,,,,,,,,,,,,,,,,,,,,,,,,,,,,,,,,,,,,,,,,,,,,,,,,,,,,,
294763,2022-11-29_12h01.19.428,vts_reward_expectancy_bt,2022.2.4,Win32,60.3427468,Chrome,1280,800,,,a,0.908,10,96,0,1,2,14,3,1,0,1,0,0,1,0,0,0,circle,triangle,,,,,,,,,,,,,,,,,,,,,,,,,,,,,,,,,,,,,,,,,,,,,,,,,,,,,,
294763,2022-11-29_12h01.19.428,vts_reward_expectancy_bt,2022.2.4,Win32,60.3427468,Chrome,1280,800,,,a,1.2013,10,106,0,1,3,15,8,1,0,0,1,0,0,0,0,1,hexagon,star,,,,,,,,,,,,,,,,,,,,,,,,,,,,,,,,,,,,,,,,,,,,,,,,,,,,,,
294763,2022-11-29_12h01.19.428,vts_reward_expectancy_bt,2022.2.4,Win32,60.3427468,Chrome,1280,800,,,l,0.5164,1,107,0,1,4,16,11,1,0,0,0,1,0,0,1,0,star,hexagon,,,,,,,,,,,,,,,,,,,,,,,,,,,,,,,,,,,,,,,,,,,,,,,,,,,,,,
294763,2022-11-29_12h01.19.428,vts_reward_expectancy_bt,2022.2.4,Win32,60.3427468,Chrome,1280,800,,,l,0.5802,10,117,0,1,5,17,10,1,0,0,0,1,0,1,0,0,star ,circle,,,,,,,,,,,,,,,,,,,,,,,,,,,,,,,,,,,,,,,,,,,,,,,,,,,,,,
294763,2022-11-29_12h01.19.428,vts_reward_expectancy_bt,2022.2.4,Win32,60.3427468,Chrome,1280,800,,,a,0.7694,1,118,0,1,6,18,5,1,0,1,0,0,0,0,0,1,circle,star,,,,,,,,,,,,,,,,,,,,,,,,,,,,,,,,,,,,,,,,,,,,,,,,,,,,,,
294763,2022-11-29_12h01.19.428,vts_reward_expectancy_bt,2022.2.4,Win32,60.3427468,Chrome,1280,800,,,a,1.0846,1,119,0,1,7,19,4,1,0,1,0,0,0,0,1,0,circle,hexagon,,,,,,,,,,,,,,,,,,,,,,,,,,,,,,,,,,,,,,,,,,,,,,,,,,,,,,
294763,2022-11-29_12h01.19.428,vts_reward_expectancy_bt,2022.2.4,Win32,60.3427468,Chrome,1280,800,,,l,0.6201,10,129,0,1,8,20,1,1,1,0,0,0,0,0,1,0,triangle,hexagon,,,,,,,,,,,,,,,,,,,,,,,,,,,,,,,,,,,,,,,,,,,,,,,,,,,,,,
294763,2022-11-29_12h01.19.428,vts_reward_expectancy_bt,2022.2.4,Win32,60.3427468,Chrome,1280,800,,,l,0.7203,10,139,0,1,9,21,7,1,0,0,1,0,0,1,0,0,hexagon,circle,,,,,,,,,,,,,,,,,,,,,,,,,,,,,,,,,,,,,,,,,,,,,,,,,,,,,,
294763,2022-11-29_12h01.19.428,vts_reward_expectancy_bt,2022.2.4,Win32,60.3427468,Chrome,1280,800,,,a,1.0667,10,149,0,1,10,22,6,1,0,0,1,0,1,0,0,0,hexagon,triangle,,,,,,,,,,,,,,,,,,,,,,,,,,,,,,,,,,,,,,,,,,,,,,,,,,,,,,
294763,2022-11-29_12h01.19.428,vts_reward_expectancy_bt,2022.2.4,Win32,60.3427468,Chrome,1280,800,,,l,0.6374,1,150,0,1,11,23,0,1,1,0,0,0,0,1,0,0,triangle,circle,,,,,,,,,,,,,,,,,,,,,,,,,,,,,,,,,,,,,,,,,,,,,,,,,,,,,,
294763,2022-11-29_12h01.19.428,vts_reward_expectancy_bt,2022.2.4,Win32,60.3427468,Chrome,1280,800,,,l,0.6433,10,160,0,2,0,24,0,1,1,0,0,0,0,1,0,0,triangle,circle,,,,,,,,,,,,,,,,,,,,,,,,,,,,,,,,,,,,,,,,,,,,,,,,,,,,,,
294763,2022-11-29_12h01.19.428,vts_reward_expectancy_bt,2022.2.4,Win32,60.3427468,Chrome,1280,800,,,a,0.3971,10,170,0,2,1,25,5,1,0,1,0,0,0,0,0,1,circle,star,,,,,,,,,,,,,,,,,,,,,,,,,,,,,,,,,,,,,,,,,,,,,,,,,,,,,,
294763,2022-11-29_12h01.19.428,vts_reward_expectancy_bt,2022.2.4,Win32,60.3427468,Chrome,1280,800,,,l,0.619,10,180,0,2,2,26,11,1,0,0,0,1,0,0,1,0,star,hexagon,,,,,,,,,,,,,,,,,,,,,,,,,,,,,,,,,,,,,,,,,,,,,,,,,,,,,,
294763,2022-11-29_12h01.19.428,vts_reward_expectancy_bt,2022.2.4,Win32,60.3427468,Chrome,1280,800,,,a,0.6724,10,190,0,2,3,27,6,1,0,0,1,0,1,0,0,0,hexagon,triangle,,,,,,,,,,,,,,,,,,,,,,,,,,,,,,,,,,,,,,,,,,,,,,,,,,,,,,
294763,2022-11-29_12h01.19.428,vts_reward_expectancy_bt,2022.2.4,Win32,60.3427468,Chrome,1280,800,,,l,0.4489,10,200,0,2,4,28,10,1,0,0,0,1,0,1,0,0,star ,circle,,,,,,,,,,,,,,,,,,,,,,,,,,,,,,,,,,,,,,,,,,,,,,,,,,,,,,
294763,2022-11-29_12h01.19.428,vts_reward_expectancy_bt,2022.2.4,Win32,60.3427468,Chrome,1280,800,,,l,0.5268,1,201,0,2,5,29,9,1,0,0,0,1,1,0,0,0,star,triangle,,,,,,,,,,,,,,,,,,,,,,,,,,,,,,,,,,,,,,,,,,,,,,,,,,,,,,
294763,2022-11-29_12h01.19.428,vts_reward_expectancy_bt,2022.2.4,Win32,60.3427468,Chrome,1280,800,,,a,0.535,1,202,0,2,6,30,1,1,1,0,0,0,0,0,1,0,triangle,hexagon,,,,,,,,,,,,,,,,,,,,,,,,,,,,,,,,,,,,,,,,,,,,,,,,,,,,,,
294763,2022-11-29_12h01.19.428,vts_reward_expectancy_bt,2022.2.4,Win32,60.3427468,Chrome,1280,800,,,a,0.5241,10,212,0,2,7,31,4,1,0,1,0,0,0,0,1,0,circle,hexagon,,,,,,,,,,,,,,,,,,,,,,,,,,,,,,,,,,,,,,,,,,,,,,,,,,,,,,
294763,2022-11-29_12h01.19.428,vts_reward_expectancy_bt,2022.2.4,Win32,60.3427468,Chrome,1280,800,,,a,0.4705,1,213,0,2,8,32,2,1,1,0,0,0,0,0,0,1,triangle,star,,,,,,,,,,,,,,,,,,,,,,,,,,,,,,,,,,,,,,,,,,,,,,,,,,,,,,
294763,2022-11-29_12h01.19.428,vts_reward_expectancy_bt,2022.2.4,Win32,60.3427468,Chrome,1280,800,,,a,0.4405,10,223,0,2,9,33,8,1,0,0,1,0,0,0,0,1,hexagon,star,,,,,,,,,,,,,,,,,,,,,,,,,,,,,,,,,,,,,,,,,,,,,,,,,,,,,,
294763,2022-11-29_12h01.19.428,vts_reward_expectancy_bt,2022.2.4,Win32,60.3427468,Chrome,1280,800,,,l,0.3739,10,233,0,2,10,34,7,1,0,0,1,0,0,1,0,0,hexagon,circle,,,,,,,,,,,,,,,,,,,,,,,,,,,,,,,,,,,,,,,,,,,,,,,,,,,,,,
294763,2022-11-29_12h01.19.428,vts_reward_expectancy_bt,2022.2.4,Win32,60.3427468,Chrome,1280,800,,,a,0.3678,10,243,0,2,11,35,3,1,0,1,0,0,1,0,0,0,circle,triangle,,,,,,,,,,,,,,,,,,,,,,,,,,,,,,,,,,,,,,,,,,,,,,,,,,,,,,
294763,2022-11-29_12h01.19.428,vts_reward_expectancy_bt,2022.2.4,Win32,60.3427468,Chrome,1280,800,,,a,0.8103,1,244,1,0,0,0,4,1,0,1,0,0,0,0,1,0,circle,hexagon,,,,,,,,,,,,,,,,,,,,,,,,,,,,,,,,,,,,,,,,,,,,,,,,,,,,,,
294763,2022-11-29_12h01.19.428,vts_reward_expectancy_bt,2022.2.4,Win32,60.3427468,Chrome,1280,800,,,a,0.5357,10,254,1,0,1,1,6,1,0,0,1,0,1,0,0,0,hexagon,triangle,,,,,,,,,,,,,,,,,,,,,,,,,,,,,,,,,,,,,,,,,,,,,,,,,,,,,,
294763,2022-11-29_12h01.19.428,vts_reward_expectancy_bt,2022.2.4,Win32,60.3427468,Chrome,1280,800,,,l,0.8025,10,264,1,0,2,2,2,1,1,0,0,0,0,0,0,1,triangle,star,,,,,,,,,,,,,,,,,,,,,,,,,,,,,,,,,,,,,,,,,,,,,,,,,,,,,,
294763,2022-11-29_12h01.19.428,vts_reward_expectancy_bt,2022.2.4,Win32,60.3427468,Chrome,1280,800,,,l,0.6706,1,265,1,0,3,3,7,1,0,0,1,0,0,1,0,0,hexagon,circle,,,,,,,,,,,,,,,,,,,,,,,,,,,,,,,,,,,,,,,,,,,,,,,,,,,,,,
294763,2022-11-29_12h01.19.428,vts_reward_expectancy_bt,2022.2.4,Win32,60.3427468,Chrome,1280,800,,,l,0.4515,1,266,1,0,4,4,10,1,0,0,0,1,0,1,0,0,star ,circle,,,,,,,,,,,,,,,,,,,,,,,,,,,,,,,,,,,,,,,,,,,,,,,,,,,,,,
294763,2022-11-29_12h01.19.428,vts_reward_expectancy_bt,2022.2.4,Win32,60.3427468,Chrome,1280,800,,,a,0.3657,10,276,1,0,5,5,3,1,0,1,0,0,1,0,0,0,circle,triangle,,,,,,,,,,,,,,,,,,,,,,,,,,,,,,,,,,,,,,,,,,,,,,,,,,,,,,
294763,2022-11-29_12h01.19.428,vts_reward_expectancy_bt,2022.2.4,Win32,60.3427468,Chrome,1280,800,,,a,0.4837,10,286,1,0,6,6,5,1,0,1,0,0,0,0,0,1,circle,star,,,,,,,,,,,,,,,,,,,,,,,,,,,,,,,,,,,,,,,,,,,,,,,,,,,,,,
294763,2022-11-29_12h01.19.428,vts_reward_expectancy_bt,2022.2.4,Win32,60.3427468,Chrome,1280,800,,,l,0.4712,10,296,1,0,7,7,1,1,1,0,0,0,0,0,1,0,triangle,hexagon,,,,,,,,,,,,,,,,,,,,,,,,,,,,,,,,,,,,,,,,,,,,,,,,,,,,,,
294763,2022-11-29_12h01.19.428,vts_reward_expectancy_bt,2022.2.4,Win32,60.3427468,Chrome,1280,800,,,l,0.6728,10,306,1,0,8,8,0,1,1,0,0,0,0,1,0,0,triangle,circle,,,,,,,,,,,,,,,,,,,,,,,,,,,,,,,,,,,,,,,,,,,,,,,,,,,,,,
294763,2022-11-29_12h01.19.428,vts_reward_expectancy_bt,2022.2.4,Win32,60.3427468,Chrome,1280,800,,,l,0.5662,10,316,1,0,9,9,11,1,0,0,0,1,0,0,1,0,star,hexagon,,,,,,,,,,,,,,,,,,,,,,,,,,,,,,,,,,,,,,,,,,,,,,,,,,,,,,
294763,2022-11-29_12h01.19.428,vts_reward_expectancy_bt,2022.2.4,Win32,60.3427468,Chrome,1280,800,,,a,0.3743,10,326,1,0,10,10,8,1,0,0,1,0,0,0,0,1,hexagon,star,,,,,,,,,,,,,,,,,,,,,,,,,,,,,,,,,,,,,,,,,,,,,,,,,,,,,,
294763,2022-11-29_12h01.19.428,vts_reward_expectancy_bt,2022.2.4,Win32,60.3427468,Chrome,1280,800,,,l,0.4168,10,336,1,0,11,11,9,1,0,0,0,1,1,0,0,0,star,triangle,,,,,,,,,,,,,,,,,,,,,,,,,,,,,,,,,,,,,,,,,,,,,,,,,,,,,,
294763,2022-11-29_12h01.19.428,vts_reward_expectancy_bt,2022.2.4,Win32,60.3427468,Chrome,1280,800,,,a,0.3831,1,337,1,1,0,12,2,1,1,0,0,0,0,0,0,1,triangle,star,,,,,,,,,,,,,,,,,,,,,,,,,,,,,,,,,,,,,,,,,,,,,,,,,,,,,,
294763,2022-11-29_12h01.19.428,vts_reward_expectancy_bt,2022.2.4,Win32,60.3427468,Chrome,1280,800,,,l,1.4515,10,347,1,1,1,13,4,1,0,1,0,0,0,0,1,0,circle,hexagon,,,,,,,,,,,,,,,,,,,,,,,,,,,,,,,,,,,,,,,,,,,,,,,,,,,,,,
294763,2022-11-29_12h01.19.428,vts_reward_expectancy_bt,2022.2.4,Win32,60.3427468,Chrome,1280,800,,,a,0.3574,10,357,1,1,2,14,8,1,0,0,1,0,0,0,0,1,hexagon,star,,,,,,,,,,,,,,,,,,,,,,,,,,,,,,,,,,,,,,,,,,,,,,,,,,,,,,
294763,2022-11-29_12h01.19.428,vts_reward_expectancy_bt,2022.2.4,Win32,60.3427468,Chrome,1280,800,,,a,0.933,10,367,1,1,3,15,7,1,0,0,1,0,0,1,0,0,hexagon,circle,,,,,,,,,,,,,,,,,,,,,,,,,,,,,,,,,,,,,,,,,,,,,,,,,,,,,,
294763,2022-11-29_12h01.19.428,vts_reward_expectancy_bt,2022.2.4,Win32,60.3427468,Chrome,1280,800,,,a,0.8546,1,368,1,1,4,16,9,1,0,0,0,1,1,0,0,0,star,triangle,,,,,,,,,,,,,,,,,,,,,,,,,,,,,,,,,,,,,,,,,,,,,,,,,,,,,,
294763,2022-11-29_12h01.19.428,vts_reward_expectancy_bt,2022.2.4,Win32,60.3427468,Chrome,1280,800,,,l,0.6715,10,378,1,1,5,17,1,1,1,0,0,0,0,0,1,0,triangle,hexagon,,,,,,,,,,,,,,,,,,,,,,,,,,,,,,,,,,,,,,,,,,,,,,,,,,,,,,
294763,2022-11-29_12h01.19.428,vts_reward_expectancy_bt,2022.2.4,Win32,60.3427468,Chrome,1280,800,,,a,0.9687,1,379,1,1,6,18,11,1,0,0,0,1,0,0,1,0,star,hexagon,,,,,,,,,,,,,,,,,,,,,,,,,,,,,,,,,,,,,,,,,,,,,,,,,,,,,,
294763,2022-11-29_12h01.19.428,vts_reward_expectancy_bt,2022.2.4,Win32,60.3427468,Chrome,1280,800,,,a,0.4546,1,380,1,1,7,19,3,1,0,1,0,0,1,0,0,0,circle,triangle,,,,,,,,,,,,,,,,,,,,,,,,,,,,,,,,,,,,,,,,,,,,,,,,,,,,,,
294763,2022-11-29_12h01.19.428,vts_reward_expectancy_bt,2022.2.4,Win32,60.3427468,Chrome,1280,800,,,a,0.5494,10,390,1,1,8,20,5,1,0,1,0,0,0,0,0,1,circle,star,,,,,,,,,,,,,,,,,,,,,,,,,,,,,,,,,,,,,,,,,,,,,,,,,,,,,,
294763,2022-11-29_12h01.19.428,vts_reward_expectancy_bt,2022.2.4,Win32,60.3427468,Chrome,1280,800,,,l,0.4669,10,400,1,1,9,21,10,1,0,0,0,1,0,1,0,0,star ,circle,,,,,,,,,,,,,,,,,,,,,,,,,,,,,,,,,,,,,,,,,,,,,,,,,,,,,,
294763,2022-11-29_12h01.19.428,vts_reward_expectancy_bt,2022.2.4,Win32,60.3427468,Chrome,1280,800,,,l,0.8224,10,410,1,1,10,22,0,1,1,0,0,0,0,1,0,0,triangle,circle,,,,,,,,,,,,,,,,,,,,,,,,,,,,,,,,,,,,,,,,,,,,,,,,,,,,,,
294763,2022-11-29_12h01.19.428,vts_reward_expectancy_bt,2022.2.4,Win32,60.3427468,Chrome,1280,800,,,a,0.5676,10,420,1,1,11,23,6,1,0,0,1,0,1,0,0,0,hexagon,triangle,,,,,,,,,,,,,,,,,,,,,,,,,,,,,,,,,,,,,,,,,,,,,,,,,,,,,,
294763,2022-11-29_12h01.19.428,vts_reward_expectancy_bt,2022.2.4,Win32,60.3427468,Chrome,1280,800,,,l,0.6568,10,430,1,2,0,24,0,1,1,0,0,0,0,1,0,0,triangle,circle,,,,,,,,,,,,,,,,,,,,,,,,,,,,,,,,,,,,,,,,,,,,,,,,,,,,,,
294763,2022-11-29_12h01.19.428,vts_reward_expectancy_bt,2022.2.4,Win32,60.3427468,Chrome,1280,800,,,a,0.3019,10,440,1,2,1,25,8,1,0,0,1,0,0,0,0,1,hexagon,star,,,,,,,,,,,,,,,,,,,,,,,,,,,,,,,,,,,,,,,,,,,,,,,,,,,,,,
294763,2022-11-29_12h01.19.428,vts_reward_expectancy_bt,2022.2.4,Win32,60.3427468,Chrome,1280,800,,,l,0.3751,1,441,1,2,2,26,10,1,0,0,0,1,0,1,0,0,star ,circle,,,,,,,,,,,,,,,,,,,,,,,,,,,,,,,,,,,,,,,,,,,,,,,,,,,,,,
294763,2022-11-29_12h01.19.428,vts_reward_expectancy_bt,2022.2.4,Win32,60.3427468,Chrome,1280,800,,,a,0.4189,10,451,1,2,3,27,3,1,0,1,0,0,1,0,0,0,circle,triangle,,,,,,,,,,,,,,,,,,,,,,,,,,,,,,,,,,,,,,,,,,,,,,,,,,,,,,
294763,2022-11-29_12h01.19.428,vts_reward_expectancy_bt,2022.2.4,Win32,60.3427468,Chrome,1280,800,,,l,0.5208,10,461,1,2,4,28,1,1,1,0,0,0,0,0,1,0,triangle,hexagon,,,,,,,,,,,,,,,,,,,,,,,,,,,,,,,,,,,,,,,,,,,,,,,,,,,,,,
294763,2022-11-29_12h01.19.428,vts_reward_expectancy_bt,2022.2.4,Win32,60.3427468,Chrome,1280,800,,,a,0.3495,10,471,1,2,5,29,4,1,0,1,0,0,0,0,1,0,circle,hexagon,,,,,,,,,,,,,,,,,,,,,,,,,,,,,,,,,,,,,,,,,,,,,,,,,,,,,,
294763,2022-11-29_12h01.19.428,vts_reward_expectancy_bt,2022.2.4,Win32,60.3427468,Chrome,1280,800,,,l,0.3848,1,472,1,2,6,30,6,1,0,0,1,0,1,0,0,0,hexagon,triangle,,,,,,,,,,,,,,,,,,,,,,,,,,,,,,,,,,,,,,,,,,,,,,,,,,,,,,
294763,2022-11-29_12h01.19.428,vts_reward_expectancy_bt,2022.2.4,Win32,60.3427468,Chrome,1280,800,,,a,0.2695,1,473,1,2,7,31,7,1,0,0,1,0,0,1,0,0,hexagon,circle,,,,,,,,,,,,,,,,,,,,,,,,,,,,,,,,,,,,,,,,,,,,,,,,,,,,,,
294763,2022-11-29_12h01.19.428,vts_reward_expectancy_bt,2022.2.4,Win32,60.3427468,Chrome,1280,800,,,l,0.551,1,474,1,2,8,32,9,1,0,0,0,1,1,0,0,0,star,triangle,,,,,,,,,,,,,,,,,,,,,,,,,,,,,,,,,,,,,,,,,,,,,,,,,,,,,,
294763,2022-11-29_12h01.19.428,vts_reward_expectancy_bt,2022.2.4,Win32,60.3427468,Chrome,1280,800,,,a,0.2536,1,475,1,2,9,33,11,1,0,0,0,1,0,0,1,0,star,hexagon,,,,,,,,,,,,,,,,,,,,,,,,,,,,,,,,,,,,,,,,,,,,,,,,,,,,,,
294763,2022-11-29_12h01.19.428,vts_reward_expectancy_bt,2022.2.4,Win32,60.3427468,Chrome,1280,800,,,a,0.5655,1,476,1,2,10,34,2,1,1,0,0,0,0,0,0,1,triangle,star,,,,,,,,,,,,,,,,,,,,,,,,,,,,,,,,,,,,,,,,,,,,,,,,,,,,,,
294763,2022-11-29_12h01.19.428,vts_reward_expectancy_bt,2022.2.4,Win32,60.3427468,Chrome,1280,800,,,a,0.57,10,486,1,2,11,35,5,1,0,1,0,0,0,0,0,1,circle,star,,,,,,,,,,,,,,,,,,,,,,,,,,,,,,,,,,,,,,,,,,,,,,,,,,,,,,
294763,2022-11-29_12h01.19.428,vts_reward_expectancy_bt,2022.2.4,Win32,60.3427468,Chrome,1280,800,,,l,0.9106,10,496,2,0,0,0,10,1,0,0,0,1,0,1,0,0,star ,circle,,,,,,,,,,,,,,,,,,,,,,,,,,,,,,,,,,,,,,,,,,,,,,,,,,,,,,
294763,2022-11-29_12h01.19.428,vts_reward_expectancy_bt,2022.2.4,Win32,60.3427468,Chrome,1280,800,,,a,0.5215,10,506,2,0,1,1,7,1,0,0,1,0,0,1,0,0,hexagon,circle,,,,,,,,,,,,,,,,,,,,,,,,,,,,,,,,,,,,,,,,,,,,,,,,,,,,,,
294763,2022-11-29_12h01.19.428,vts_reward_expectancy_bt,2022.2.4,Win32,60.3427468,Chrome,1280,800,,,l,0.4875,10,516,2,0,2,2,11,1,0,0,0,1,0,0,1,0,star,hexagon,,,,,,,,,,,,,,,,,,,,,,,,,,,,,,,,,,,,,,,,,,,,,,,,,,,,,,
294763,2022-11-29_12h01.19.428,vts_reward_expectancy_bt,2022.2.4,Win32,60.3427468,Chrome,1280,800,,,a,1.2512,10,526,2,0,3,3,6,1,0,0,1,0,1,0,0,0,hexagon,triangle,,,,,,,,,,,,,,,,,,,,,,,,,,,,,,,,,,,,,,,,,,,,,,,,,,,,,,
294763,2022-11-29_12h01.19.428,vts_reward_expectancy_bt,2022.2.4,Win32,60.3427468,Chrome,1280,800,,,a,0.3938,1,527,2,0,4,4,4,1,0,1,0,0,0,0,1,0,circle,hexagon,,,,,,,,,,,,,,,,,,,,,,,,,,,,,,,,,,,,,,,,,,,,,,,,,,,,,,
294763,2022-11-29_12h01.19.428,vts_reward_expectancy_bt,2022.2.4,Win32,60.3427468,Chrome,1280,800,,,a,0.4968,10,537,2,0,5,5,3,1,0,1,0,0,1,0,0,0,circle,triangle,,,,,,,,,,,,,,,,,,,,,,,,,,,,,,,,,,,,,,,,,,,,,,,,,,,,,,
294763,2022-11-29_12h01.19.428,vts_reward_expectancy_bt,2022.2.4,Win32,60.3427468,Chrome,1280,800,,,a,0.4204,1,538,2,0,6,6,5,1,0,1,0,0,0,0,0,1,circle,star,,,,,,,,,,,,,,,,,,,,,,,,,,,,,,,,,,,,,,,,,,,,,,,,,,,,,,
294763,2022-11-29_12h01.19.428,vts_reward_expectancy_bt,2022.2.4,Win32,60.3427468,Chrome,1280,800,,,a,0.8494,1,539,2,0,7,7,2,1,1,0,0,0,0,0,0,1,triangle,star,,,,,,,,,,,,,,,,,,,,,,,,,,,,,,,,,,,,,,,,,,,,,,,,,,,,,,
294763,2022-11-29_12h01.19.428,vts_reward_expectancy_bt,2022.2.4,Win32,60.3427468,Chrome,1280,800,,,l,0.4222,10,549,2,0,8,8,1,1,1,0,0,0,0,0,1,0,triangle,hexagon,,,,,,,,,,,,,,,,,,,,,,,,,,,,,,,,,,,,,,,,,,,,,,,,,,,,,,
294763,2022-11-29_12h01.19.428,vts_reward_expectancy_bt,2022.2.4,Win32,60.3427468,Chrome,1280,800,,,l,0.6247,10,559,2,0,9,9,0,1,1,0,0,0,0,1,0,0,triangle,circle,,,,,,,,,,,,,,,,,,,,,,,,,,,,,,,,,,,,,,,,,,,,,,,,,,,,,,
294763,2022-11-29_12h01.19.428,vts_reward_expectancy_bt,2022.2.4,Win32,60.3427468,Chrome,1280,800,,,a,0.3519,1,560,2,0,10,10,8,1,0,0,1,0,0,0,0,1,hexagon,star,,,,,,,,,,,,,,,,,,,,,,,,,,,,,,,,,,,,,,,,,,,,,,,,,,,,,,
294763,2022-11-29_12h01.19.428,vts_reward_expectancy_bt,2022.2.4,Win32,60.3427468,Chrome,1280,800,,,l,0.4071,10,570,2,0,11,11,9,1,0,0,0,1,1,0,0,0,star,triangle,,,,,,,,,,,,,,,,,,,,,,,,,,,,,,,,,,,,,,,,,,,,,,,,,,,,,,
294763,2022-11-29_12h01.19.428,vts_reward_expectancy_bt,2022.2.4,Win32,60.3427468,Chrome,1280,800,,,a,0.4446,10,580,2,1,0,12,6,1,0,0,1,0,1,0,0,0,hexagon,triangle,,,,,,,,,,,,,,,,,,,,,,,,,,,,,,,,,,,,,,,,,,,,,,,,,,,,,,
294763,2022-11-29_12h01.19.428,vts_reward_expectancy_bt,2022.2.4,Win32,60.3427468,Chrome,1280,800,,,l,0.417,10,590,2,1,1,13,7,1,0,0,1,0,0,1,0,0,hexagon,circle,,,,,,,,,,,,,,,,,,,,,,,,,,,,,,,,,,,,,,,,,,,,,,,,,,,,,,
294763,2022-11-29_12h01.19.428,vts_reward_expectancy_bt,2022.2.4,Win32,60.3427468,Chrome,1280,800,,,a,0.6183,1,591,2,1,2,14,9,1,0,0,0,1,1,0,0,0,star,triangle,,,,,,,,,,,,,,,,,,,,,,,,,,,,,,,,,,,,,,,,,,,,,,,,,,,,,,
294763,2022-11-29_12h01.19.428,vts_reward_expectancy_bt,2022.2.4,Win32,60.3427468,Chrome,1280,800,,,a,0.5174,1,592,2,1,3,15,2,1,1,0,0,0,0,0,0,1,triangle,star,,,,,,,,,,,,,,,,,,,,,,,,,,,,,,,,,,,,,,,,,,,,,,,,,,,,,,
294763,2022-11-29_12h01.19.428,vts_reward_expectancy_bt,2022.2.4,Win32,60.3427468,Chrome,1280,800,,,l,0.4877,10,602,2,1,4,16,1,1,1,0,0,0,0,0,1,0,triangle,hexagon,,,,,,,,,,,,,,,,,,,,,,,,,,,,,,,,,,,,,,,,,,,,,,,,,,,,,,
294763,2022-11-29_12h01.19.428,vts_reward_expectancy_bt,2022.2.4,Win32,60.3427468,Chrome,1280,800,,,l,0.6671,1,603,2,1,5,17,11,1,0,0,0,1,0,0,1,0,star,hexagon,,,,,,,,,,,,,,,,,,,,,,,,,,,,,,,,,,,,,,,,,,,,,,,,,,,,,,
294763,2022-11-29_12h01.19.428,vts_reward_expectancy_bt,2022.2.4,Win32,60.3427468,Chrome,1280,800,,,l,0.6284,10,613,2,1,6,18,0,1,1,0,0,0,0,1,0,0,triangle,circle,,,,,,,,,,,,,,,,,,,,,,,,,,,,,,,,,,,,,,,,,,,,,,,,,,,,,,
294763,2022-11-29_12h01.19.428,vts_reward_expectancy_bt,2022.2.4,Win32,60.3427468,Chrome,1280,800,,,a,0.3853,10,623,2,1,7,19,4,1,0,1,0,0,0,0,1,0,circle,hexagon,,,,,,,,,,,,,,,,,,,,,,,,,,,,,,,,,,,,,,,,,,,,,,,,,,,,,,
294763,2022-11-29_12h01.19.428,vts_reward_expectancy_bt,2022.2.4,Win32,60.3427468,Chrome,1280,800,,,l,0.4184,10,633,2,1,8,20,10,1,0,0,0,1,0,1,0,0,star ,circle,,,,,,,,,,,,,,,,,,,,,,,,,,,,,,,,,,,,,,,,,,,,,,,,,,,,,,
294763,2022-11-29_12h01.19.428,vts_reward_expectancy_bt,2022.2.4,Win32,60.3427468,Chrome,1280,800,,,a,0.3193,10,643,2,1,9,21,8,1,0,0,1,0,0,0,0,1,hexagon,star,,,,,,,,,,,,,,,,,,,,,,,,,,,,,,,,,,,,,,,,,,,,,,,,,,,,,,
294763,2022-11-29_12h01.19.428,vts_reward_expectancy_bt,2022.2.4,Win32,60.3427468,Chrome,1280,800,,,a,0.6679,10,653,2,1,10,22,3,1,0,1,0,0,1,0,0,0,circle,triangle,,,,,,,,,,,,,,,,,,,,,,,,,,,,,,,,,,,,,,,,,,,,,,,,,,,,,,
294763,2022-11-29_12h01.19.428,vts_reward_expectancy_bt,2022.2.4,Win32,60.3427468,Chrome,1280,800,,,a,0.586,10,663,2,1,11,23,5,1,0,1,0,0,0,0,0,1,circle,star,,,,,,,,,,,,,,,,,,,,,,,,,,,,,,,,,,,,,,,,,,,,,,,,,,,,,,
294763,2022-11-29_12h01.19.428,vts_reward_expectancy_bt,2022.2.4,Win32,60.3427468,Chrome,1280,800,,,l,1.3969,1,664,2,2,0,24,2,1,1,0,0,0,0,0,0,1,triangle,star,,,,,,,,,,,,,,,,,,,,,,,,,,,,,,,,,,,,,,,,,,,,,,,,,,,,,,
294763,2022-11-29_12h01.19.428,vts_reward_expectancy_bt,2022.2.4,Win32,60.3427468,Chrome,1280,800,,,l,0.5018,10,674,2,2,1,25,10,1,0,0,0,1,0,1,0,0,star ,circle,,,,,,,,,,,,,,,,,,,,,,,,,,,,,,,,,,,,,,,,,,,,,,,,,,,,,,
294763,2022-11-29_12h01.19.428,vts_reward_expectancy_bt,2022.2.4,Win32,60.3427468,Chrome,1280,800,,,a,0.417,10,684,2,2,2,26,1,1,1,0,0,0,0,0,1,0,triangle,hexagon,,,,,,,,,,,,,,,,,,,,,,,,,,,,,,,,,,,,,,,,,,,,,,,,,,,,,,
294763,2022-11-29_12h01.19.428,vts_reward_expectancy_bt,2022.2.4,Win32,60.3427468,Chrome,1280,800,,,l,0.3672,10,694,2,2,3,27,11,1,0,0,0,1,0,0,1,0,star,hexagon,,,,,,,,,,,,,,,,,,,,,,,,,,,,,,,,,,,,,,,,,,,,,,,,,,,,,,
294763,2022-11-29_12h01.19.428,vts_reward_expectancy_bt,2022.2.4,Win32,60.3427468,Chrome,1280,800,,,a,0.3642,10,704,2,2,4,28,5,1,0,1,0,0,0,0,0,1,circle,star,,,,,,,,,,,,,,,,,,,,,,,,,,,,,,,,,,,,,,,,,,,,,,,,,,,,,,
294763,2022-11-29_12h01.19.428,vts_reward_expectancy_bt,2022.2.4,Win32,60.3427468,Chrome,1280,800,,,a,0.5168,10,714,2,2,5,29,3,1,0,1,0,0,1,0,0,0,circle,triangle,,,,,,,,,,,,,,,,,,,,,,,,,,,,,,,,,,,,,,,,,,,,,,,,,,,,,,
294763,2022-11-29_12h01.19.428,vts_reward_expectancy_bt,2022.2.4,Win32,60.3427468,Chrome,1280,800,,,a,0.4714,10,724,2,2,6,30,8,1,0,0,1,0,0,0,0,1,hexagon,star,,,,,,,,,,,,,,,,,,,,,,,,,,,,,,,,,,,,,,,,,,,,,,,,,,,,,,
294763,2022-11-29_12h01.19.428,vts_reward_expectancy_bt,2022.2.4,Win32,60.3427468,Chrome,1280,800,,,l,0.4669,1,725,2,2,7,31,9,1,0,0,0,1,1,0,0,0,star,triangle,,,,,,,,,,,,,,,,,,,,,,,,,,,,,,,,,,,,,,,,,,,,,,,,,,,,,,
294763,2022-11-29_12h01.19.428,vts_reward_expectancy_bt,2022.2.4,Win32,60.3427468,Chrome,1280,800,,,l,0.3965,10,735,2,2,8,32,0,1,1,0,0,0,0,1,0,0,triangle,circle,,,,,,,,,,,,,,,,,,,,,,,,,,,,,,,,,,,,,,,,,,,,,,,,,,,,,,
294763,2022-11-29_12h01.19.428,vts_reward_expectancy_bt,2022.2.4,Win32,60.3427468,Chrome,1280,800,,,a,0.3705,10,745,2,2,9,33,6,1,0,0,1,0,1,0,0,0,hexagon,triangle,,,,,,,,,,,,,,,,,,,,,,,,,,,,,,,,,,,,,,,,,,,,,,,,,,,,,,
294763,2022-11-29_12h01.19.428,vts_reward_expectancy_bt,2022.2.4,Win32,60.3427468,Chrome,1280,800,,,l,0.5231,10,755,2,2,10,34,7,1,0,0,1,0,0,1,0,0,hexagon,circle,,,,,,,,,,,,,,,,,,,,,,,,,,,,,,,,,,,,,,,,,,,,,,,,,,,,,,
294763,2022-11-29_12h01.19.428,vts_reward_expectancy_bt,2022.2.4,Win32,60.3427468,Chrome,1280,800,,,a,0.1853,10,765,2,2,11,35,4,1,0,1,0,0,0,0,1,0,circle,hexagon,,,,,,,,,,,,,,,,,,,,,,,,,,,,,,,,,,,,,,,,,,,,,,,,,,,,,,
294763,2022-11-29_12h01.19.428,vts_reward_expectancy_bt,2022.2.4,Win32,60.3427468,Chrome,1280,800,,,,,,,,,,,,,,,,,,,,,,,W,146,hexagon,0,0,,0,0,0,0,0,1,,,,,,,,,,,,,,,,,,,,,,,,,,,,,,,,,,,,,,,,,,
294763,2022-11-29_12h01.19.428,vts_reward_expectancy_bt,2022.2.4,Win32,60.3427468,Chrome,1280,800,,,,,,,,,,,,,,,,,,,,,,,B,125,star,1,1,d,0,1,0,1,0,1,0.5445,,,,,,,,,,,,,,,,,,,,,,,,,,,,,,,,,,,,,,,,,
294763,2022-11-29_12h01.19.428,vts_reward_expectancy_bt,2022.2.4,Win32,60.3427468,Chrome,1280,800,,,,,,,,,,,,,,,,,,,,,,,U,167,circle,1,0,f,0,2,0,2,0,1,0.612,,,,,,,,,,,,,,,,,,,,,,,,,,,,,,,,,,,,,,,,,
294763,2022-11-29_12h01.19.428,vts_reward_expectancy_bt,2022.2.4,Win32,60.3427468,Chrome,1280,800,,,,,,,,,,,,,,,,,,,,,,,H,174,triangle,1,0,d,0,3,0,3,0,1,0.398,,,,,,,,,,,,,,,,,,,,,,,,,,,,,,,,,,,,,,,,,
294763,2022-11-29_12h01.19.428,vts_reward_expectancy_bt,2022.2.4,Win32,60.3427468,Chrome,1280,800,,,,,,,,,,,,,,,,,,,,,,,Y,139,hexagon,1,0,f,0,4,0,4,0,1,0.4621,,,,,,,,,,,,,,,,,,,,,,,,,,,,,,,,,,,,,,,,,
294763,2022-11-29_12h01.19.428,vts_reward_expectancy_bt,2022.2.4,Win32,60.3427468,Chrome,1280,800,,,,,,,,,,,,,,,,,,,,,,,D,181,star,1,0,d,0,5,0,5,0,1,0.3121,,,,,,,,,,,,,,,,,,,,,,,,,,,,,,,,,,,,,,,,,
294763,2022-11-29_12h01.19.428,vts_reward_expectancy_bt,2022.2.4,Win32,60.3427468,Chrome,1280,800,,,,,,,,,,,,,,,,,,,,,,,S,132,circle,1,0,f,0,6,0,6,0,1,0.5473,,,,,,,,,,,,,,,,,,,,,,,,,,,,,,,,,,,,,,,,,
294763,2022-11-29_12h01.19.428,vts_reward_expectancy_bt,2022.2.4,Win32,60.3427468,Chrome,1280,800,,,,,,,,,,,,,,,,,,,,,,,F,160,triangle,1,0,d,0,7,0,7,0,1,0.4955,,,,,,,,,,,,,,,,,,,,,,,,,,,,,,,,,,,,,,,,,
294763,2022-11-29_12h01.19.428,vts_reward_expectancy_bt,2022.2.4,Win32,60.3427468,Chrome,1280,800,,,,,,,,,,,,,,,,,,,,,,,W,146,circle,1,0,f,0,8,0,8,0,1,0.6193,,,,,,,,,,,,,,,,,,,,,,,,,,,,,,,,,,,,,,,,,
294763,2022-11-29_12h01.19.428,vts_reward_expectancy_bt,2022.2.4,Win32,60.3427468,Chrome,1280,800,,,,,,,,,,,,,,,,,,,,,,,B,125,star,1,0,d,0,9,0,9,0,1,0.3857,,,,,,,,,,,,,,,,,,,,,,,,,,,,,,,,,,,,,,,,,
294763,2022-11-29_12h01.19.428,vts_reward_expectancy_bt,2022.2.4,Win32,60.3427468,Chrome,1280,800,,,,,,,,,,,,,,,,,,,,,,,U,160,circle,0,0,,1,,,,,,,j,2.6533,0,0,0,0,1,,,,,,,,,,,,,,,,,,,,,,,,,,,,,,,,,,
294763,2022-11-29_12h01.19.428,vts_reward_expectancy_bt,2022.2.4,Win32,60.3427468,Chrome,1280,800,,,,,,,,,,,,,,,,,,,,,,,S,167,star,1,1,,1,,,,,,,k,0.6518,1,0,1,0,1,,,,,,,,,,,,,,,,,,,,,,,,,,,,,,,,,,
294763,2022-11-29_12h01.19.428,vts_reward_expectancy_bt,2022.2.4,Win32,60.3427468,Chrome,1280,800,,,,,,,,,,,,,,,,,,,,,,,Y,174,hexagon,0,0,,1,,,,,,,j,0.4181,2,0,2,0,1,,,,,,,,,,,,,,,,,,,,,,,,,,,,,,,,,,
294763,2022-11-29_12h01.19.428,vts_reward_expectancy_bt,2022.2.4,Win32,60.3427468,Chrome,1280,800,,,,,,,,,,,,,,,,,,,,,,,B,139,triangle,1,1,,1,,,,,,,j,0.4733,3,0,3,0,1,,,,,,,,,,,,,,,,,,,,,,,,,,,,,,,,,,
294763,2022-11-29_12h01.19.428,vts_reward_expectancy_bt,2022.2.4,Win32,60.3427468,Chrome,1280,800,,,,,,,,,,,,,,,,,,,,,,,W,146,circle,1,0,,1,,,,,,,j,0.5079,4,0,4,0,1,,,,,,,,,,,,,,,,,,,,,,,,,,,,,,,,,,
294763,2022-11-29_12h01.19.428,vts_reward_expectancy_bt,2022.2.4,Win32,60.3427468,Chrome,1280,800,,,,,,,,,,,,,,,,,,,,,,,D,125,star,1,0,,1,,,,,,,j,0.5888,5,0,5,0,1,,,,,,,,,,,,,,,,,,,,,,,,,,,,,,,,,,
294763,2022-11-29_12h01.19.428,vts_reward_expectancy_bt,2022.2.4,Win32,60.3427468,Chrome,1280,800,,,,,,,,,,,,,,,,,,,,,,,H,132,hexagon,1,0,,1,,,,,,,j,0.6409,6,0,6,0,1,,,,,,,,,,,,,,,,,,,,,,,,,,,,,,,,,,
294763,2022-11-29_12h01.19.428,vts_reward_expectancy_bt,2022.2.4,Win32,60.3427468,Chrome,1280,800,,,,,,,,,,,,,,,,,,,,,,,F,181,triangle,1,0,,1,,,,,,,k,0.4851,7,0,7,0,1,,,,,,,,,,,,,,,,,,,,,,,,,,,,,,,,,,
294763,2022-11-29_12h01.19.428,vts_reward_expectancy_bt,2022.2.4,Win32,60.3427468,Chrome,1280,800,,,,,,,,,,,,,,,,,,,,,,,U,160,triangle,1,0,,1,,,,,,,k,0.7342,8,0,8,0,1,,,,,,,,,,,,,,,,,,,,,,,,,,,,,,,,,,
294763,2022-11-29_12h01.19.428,vts_reward_expectancy_bt,2022.2.4,Win32,60.3427468,Chrome,1280,800,,,,,,,,,,,,,,,,,,,,,,,S,167,circle,1,0,,1,,,,,,,k,0.6289,9,0,9,0,1,,,,,,,,,,,,,,,,,,,,,,,,,,,,,,,,,,
294763,2022-11-29_12h01.19.428,vts_reward_expectancy_bt,2022.2.4,Win32,60.3427468,Chrome,1280,800,,,,,,,,,,,,,,,,,,,,,,,F,132,star,1,0,,2,,,,,,,j,0.6031,0,0,0,0,1,,,,,,,,,,,,,,,,,,,,,,,,,,,,,,,,,,
294763,2022-11-29_12h01.19.428,vts_reward_expectancy_bt,2022.2.4,Win32,60.3427468,Chrome,1280,800,,,,,,,,,,,,,,,,,,,,,,,S,139,hexagon,1,0,,2,,,,,,,j,0.6158,1,0,1,0,1,,,,,,,,,,,,,,,,,,,,,,,,,,,,,,,,,,
294763,2022-11-29_12h01.19.428,vts_reward_expectancy_bt,2022.2.4,Win32,60.3427468,Chrome,1280,800,,,,,,,,,,,,,,,,,,,,,,,Y,125,circle,1,0,,2,,,,,,,j,0.5361,2,0,2,0,1,,,,,,,,,,,,,,,,,,,,,,,,,,,,,,,,,,
294763,2022-11-29_12h01.19.428,vts_reward_expectancy_bt,2022.2.4,Win32,60.3427468,Chrome,1280,800,,,,,,,,,,,,,,,,,,,,,,,D,174,triangle,1,0,,2,,,,,,,k,0.4374,3,0,3,0,1,,,,,,,,,,,,,,,,,,,,,,,,,,,,,,,,,,
294763,2022-11-29_12h01.19.428,vts_reward_expectancy_bt,2022.2.4,Win32,60.3427468,Chrome,1280,800,,,,,,,,,,,,,,,,,,,,,,,B,160,star,1,0,,2,,,,,,,k,0.9188,4,0,4,0,1,,,,,,,,,,,,,,,,,,,,,,,,,,,,,,,,,,
294763,2022-11-29_12h01.19.428,vts_reward_expectancy_bt,2022.2.4,Win32,60.3427468,Chrome,1280,800,,,,,,,,,,,,,,,,,,,,,,,U,146,hexagon,1,0,,2,,,,,,,j,0.5583,5,0,5,0,1,,,,,,,,,,,,,,,,,,,,,,,,,,,,,,,,,,
294763,2022-11-29_12h01.19.428,vts_reward_expectancy_bt,2022.2.4,Win32,60.3427468,Chrome,1280,800,,,,,,,,,,,,,,,,,,,,,,,H,167,circle,1,0,,2,,,,,,,k,0.4368,6,0,6,0,1,,,,,,,,,,,,,,,,,,,,,,,,,,,,,,,,,,
294763,2022-11-29_12h01.19.428,vts_reward_expectancy_bt,2022.2.4,Win32,60.3427468,Chrome,1280,800,,,,,,,,,,,,,,,,,,,,,,,W,181,triangle,1,0,,2,,,,,,,k,0.6237,7,0,7,0,1,,,,,,,,,,,,,,,,,,,,,,,,,,,,,,,,,,
294763,2022-11-29_12h01.19.428,vts_reward_expectancy_bt,2022.2.4,Win32,60.3427468,Chrome,1280,800,,,,,,,,,,,,,,,,,,,,,,,F,132,hexagon,1,0,,2,,,,,,,j,0.487,8,0,8,0,1,,,,,,,,,,,,,,,,,,,,,,,,,,,,,,,,,,
294763,2022-11-29_12h01.19.428,vts_reward_expectancy_bt,2022.2.4,Win32,60.3427468,Chrome,1280,800,,,,,,,,,,,,,,,,,,,,,,,S,139,circle,1,0,,2,,,,,,,j,0.6487,9,0,9,0,1,,,,,,,,,,,,,,,,,,,,,,,,,,,,,,,,,,
294763,2022-11-29_12h01.19.428,vts_reward_expectancy_bt,2022.2.4,Win32,60.3427468,Chrome,1280,800,,,,,0,765,,,,,,,,,,,,,,,,,H,132,circle,1,0,,3,,,,,,,,,,,,,,-1,letter,NA,d,1.4313,vtsPrac,0,0,0,0,1,,,,,,,,,,,,,,,,,,,,,,,
294763,2022-11-29_12h01.19.428,vts_reward_expectancy_bt,2022.2.4,Win32,60.3427468,Chrome,1280,800,,,,,0,765,,,,,,,,,,,,,,,,,D,181,triangle,1,0,,3,,,,,,,,,,,,,,repeat,letter,lettRpt,d,0.8631,vtsPrac,1,0,1,0,1,,,,,,,,,,,,,,,,,,,,,,,
294763,2022-11-29_12h01.19.428,vts_reward_expectancy_bt,2022.2.4,Win32,60.3427468,Chrome,1280,800,,,,,0,765,,,,,,,,,,,,,,,,,F,125,circle,1,0,,3,,,,,,,,,,,,,,switch,number,numSwt,j,0.5335,vtsPrac,2,0,2,0,1,,,,,,,,,,,,,,,,,,,,,,,
294763,2022-11-29_12h01.19.428,vts_reward_expectancy_bt,2022.2.4,Win32,60.3427468,Chrome,1280,800,,,,,0,765,,,,,,,,,,,,,,,,,U,167,triangle,1,0,,3,,,,,,,,,,,,,,repeat,number,numRpt,k,0.4119,vtsPrac,3,0,3,0,1,,,,,,,,,,,,,,,,,,,,,,,
294763,2022-11-29_12h01.19.428,vts_reward_expectancy_bt,2022.2.4,Win32,60.3427468,Chrome,1280,800,,,,,0,765,,,,,,,,,,,,,,,,,H,132,circle,1,0,,3,,,,,,,,,,,,,,switch,letter,lettSwt,d,0.5217,vtsPrac,4,0,4,0,1,,,,,,,,,,,,,,,,,,,,,,,
294763,2022-11-29_12h01.19.428,vts_reward_expectancy_bt,2022.2.4,Win32,60.3427468,Chrome,1280,800,,,,,0,765,,,,,,,,,,,,,,,,,D,181,star,1,0,,3,,,,,,,,,,,,,,repeat,letter,lettRpt,d,0.5718,vtsPrac,5,0,5,0,1,,,,,,,,,,,,,,,,,,,,,,,
294763,2022-11-29_12h01.19.428,vts_reward_expectancy_bt,2022.2.4,Win32,60.3427468,Chrome,1280,800,,,,,0,765,,,,,,,,,,,,,,,,,F,125,hexagon,1,0,,3,,,,,,,,,,,,,,switch,number,numSwt,j,0.6251,vtsPrac,6,0,6,0,1,,,,,,,,,,,,,,,,,,,,,,,
294763,2022-11-29_12h01.19.428,vts_reward_expectancy_bt,2022.2.4,Win32,60.3427468,Chrome,1280,800,,,,,0,765,,,,,,,,,,,,,,,,,U,167,circle,1,0,,3,,,,,,,,,,,,,,repeat,number,numRpt,k,0.8772,vtsPrac,7,0,7,0,1,,,,,,,,,,,,,,,,,,,,,,,
294763,2022-11-29_12h01.19.428,vts_reward_expectancy_bt,2022.2.4,Win32,60.3427468,Chrome,1280,800,,,,,0,765,,,,,,,,,,,,,,,,,F,146,star,1,0,,3,,,,,,,,,,,,,,switch,letter,lettSwt,d,0.6727,vtsPrac,8,0,8,0,1,,,,,,,,,,,,,,,,,,,,,,,
294763,2022-11-29_12h01.19.428,vts_reward_expectancy_bt,2022.2.4,Win32,60.3427468,Chrome,1280,800,,,,,0,765,,,,,,,,,,,,,,,,,W,167,hexagon,1,0,,3,,,,,,,,,,,,,,repeat,letter,lettRpt,f,0.4736,vtsPrac,9,0,9,0,1,,,,,,,,,,,,,,,,,,,,,,,
294763,2022-11-29_12h01.19.428,vts_reward_expectancy_bt,2022.2.4,Win32,60.3427468,Chrome,1280,800,,,,,0,765,,,,,,,,,,,,,,,,,S,174,star,1,0,,3,,,,,,,,,,,,,,switch,number,numSwt,k,0.5734,vtsPrac,10,0,10,0,1,,,,,,,,,,,,,,,,,,,,,,,
294763,2022-11-29_12h01.19.428,vts_reward_expectancy_bt,2022.2.4,Win32,60.3427468,Chrome,1280,800,,,,,0,765,,,,,,,,,,,,,,,,,B,139,hexagon,1,0,,3,,,,,,,,,,,,,,repeat,number,numRpt,j,0.5679,vtsPrac,11,0,11,0,1,,,,,,,,,,,,,,,,,,,,,,,
294763,2022-11-29_12h01.19.428,vts_reward_expectancy_bt,2022.2.4,Win32,60.3427468,Chrome,1280,800,,,,,0,765,,,,,,,,,,,,,,,,,Y,132,star,1,0,,3,,,,,,,,,,,,,,switch,letter,lettSwt,f,0.8899,vtsPrac,12,0,12,0,1,,,,,,,,,,,,,,,,,,,,,,,
294763,2022-11-29_12h01.19.428,vts_reward_expectancy_bt,2022.2.4,Win32,60.3427468,Chrome,1280,800,,,,,0,765,,,,,,,,,,,,,,,,,U,160,triangle,1,0,,3,,,,,,,,,,,,,,repeat,letter,lettRpt,f,0.6751,vtsPrac,13,0,13,0,1,,,,,,,,,,,,,,,,,,,,,,,
294763,2022-11-29_12h01.19.428,vts_reward_expectancy_bt,2022.2.4,Win32,60.3427468,Chrome,1280,800,,,,,0,765,,,,,,,,,,,,,,,,,F,139,circle,1,0,,3,,,,,,,,,,,,,,switch,number,numSwt,j,0.6204,vtsPrac,14,0,14,0,1,,,,,,,,,,,,,,,,,,,,,,,
294763,2022-11-29_12h01.19.428,vts_reward_expectancy_bt,2022.2.4,Win32,60.3427468,Chrome,1280,800,,,,,0,765,,,,,,,,,,,,,,,,,D,125,hexagon,1,0,,3,,,,,,,,,,,,,,repeat,number,numRpt,j,0.7349,vtsPrac,15,0,15,0,1,,,,,,,,,,,,,,,,,,,,,,,
294763,2022-11-29_12h01.19.428,vts_reward_expectancy_bt,2022.2.4,Win32,60.3427468,Chrome,1280,800,,,,,0,765,,,,,,,,,,,,,,,,,Y,139,star,1,0,,3,,,,,,,,,,,,,,switch,letter,lettSwt,f,0.7005,vtsPrac,16,0,16,0,1,,,,,,,,,,,,,,,,,,,,,,,
294763,2022-11-29_12h01.19.428,vts_reward_expectancy_bt,2022.2.4,Win32,60.3427468,Chrome,1280,800,,,,,0,765,,,,,,,,,,,,,,,,,F,132,triangle,1,0,,3,,,,,,,,,,,,,,repeat,letter,lettRpt,d,0.5855,vtsPrac,17,0,17,0,1,,,,,,,,,,,,,,,,,,,,,,,
294763,2022-11-29_12h01.19.428,vts_reward_expectancy_bt,2022.2.4,Win32,60.3427468,Chrome,1280,800,,,,,0,765,,,,,,,,,,,,,,,,,D,160,hexagon,1,0,,3,,,,,,,,,,,,,,switch,number,numSwt,k,0.753,vtsPrac,18,0,18,0,1,,,,,,,,,,,,,,,,,,,,,,,
294763,2022-11-29_12h01.19.428,vts_reward_expectancy_bt,2022.2.4,Win32,60.3427468,Chrome,1280,800,,,,,0,765,,,,,,,,,,,,,,,,,U,167,triangle,1,0,,3,,,,,,,,,,,,,,repeat,number,numRpt,k,0.6499,vtsPrac,19,0,19,0,1,,,,,,,,,,,,,,,,,,,,,,,
294763,2022-11-29_12h01.19.428,vts_reward_expectancy_bt,2022.2.4,Win32,60.3427468,Chrome,1280,800,,,,,0,765,,,,,,,,,,,,,,,,,U,125,circle,1,0,,3,,,,,,,,,,,,,,repeat,number,numRpt,j,0.6375,vtsPrac,20,0,20,0,1,,,,,,,,,,,,,,,,,,,,,,,
294763,2022-11-29_12h01.19.428,vts_reward_expectancy_bt,2022.2.4,Win32,60.3427468,Chrome,1280,800,,,,,0,765,,,,,,,,,,,,,,,,,F,181,triangle,1,0,,3,,,,,,,,,,,,,,switch,letter,lettSwt,d,0.3939,vtsPrac,21,0,21,0,1,,,,,,,,,,,,,,,,,,,,,,,
294763,2022-11-29_12h01.19.428,vts_reward_expectancy_bt,2022.2.4,Win32,60.3427468,Chrome,1280,800,,,,,0,765,,,,,,,,,,,,,,,,,B,132,circle,0,0,,3,,,,,,,,,,,,,,switch,number,NA,k,0.5763,vtsPrac,22,0,22,0,1,,,,,,,,,,,,,,,,,,,,,,,
294763,2022-11-29_12h01.19.428,vts_reward_expectancy_bt,2022.2.4,Win32,60.3427468,Chrome,1280,800,,,,,0,765,,,,,,,,,,,,,,,,,D,146,star,1,1,,3,,,,,,,,,,,,,,repeat,number,numRpt,j,0.6749,vtsPrac,23,0,23,0,1,,,,,,,,,,,,,,,,,,,,,,,
294763,2022-11-29_12h01.19.428,vts_reward_expectancy_bt,2022.2.4,Win32,60.3427468,Chrome,1280,800,,,,,0,765,,,,,,,,,,,,,,,,,S,167,triangle,1,0,,3,,,,,,,,,,,,,,repeat,number,numRpt,k,1.3898,vtsPrac,24,0,24,0,1,,,,,,,,,,,,,,,,,,,,,,,
294763,2022-11-29_12h01.19.428,vts_reward_expectancy_bt,2022.2.4,Win32,60.3427468,Chrome,1280,800,,,,,0,765,,,,,,,,,,,,,,,,,U,181,star,1,0,,3,,,,,,,,,,,,,,repeat,number,numRpt,k,1.135,vtsPrac,25,0,25,0,1,,,,,,,,,,,,,,,,,,,,,,,
294763,2022-11-29_12h01.19.428,vts_reward_expectancy_bt,2022.2.4,Win32,60.3427468,Chrome,1280,800,,,,,0,765,,,,,,,,,,,,,,,,,B,174,triangle,1,0,,3,,,,,,,,,,,,,,switch,letter,lettSwt,d,0.2886,vtsPrac,26,0,26,0,1,,,,,,,,,,,,,,,,,,,,,,,
294763,2022-11-29_12h01.19.428,vts_reward_expectancy_bt,2022.2.4,Win32,60.3427468,Chrome,1280,800,,,,,0,765,,,,,,,,,,,,,,,,,W,132,circle,1,0,,3,,,,,,,,,,,,,,repeat,letter,lettRpt,f,0.5359,vtsPrac,27,0,27,0,1,,,,,,,,,,,,,,,,,,,,,,,
294763,2022-11-29_12h01.19.428,vts_reward_expectancy_bt,2022.2.4,Win32,60.3427468,Chrome,1280,800,,,,,0,765,,,,,,,,,,,,,,,,,U,160,hexagon,1,0,,3,,,,,,,,,,,,,,repeat,letter,lettRpt,f,0.6426,vtsPrac,28,0,28,0,1,,,,,,,,,,,,,,,,,,,,,,,
294763,2022-11-29_12h01.19.428,vts_reward_expectancy_bt,2022.2.4,Win32,60.3427468,Chrome,1280,800,,,,,0,765,,,,,,,,,,,,,,,,,H,181,triangle,1,0,,3,,,,,,,,,,,,,,repeat,letter,lettRpt,d,0.4724,vtsPrac,29,0,29,0,1,,,,,,,,,,,,,,,,,,,,,,,
294763,2022-11-29_12h01.19.428,vts_reward_expectancy_bt,2022.2.4,Win32,60.3427468,Chrome,1280,800,,,,,0,765,,,,,,,,,,,,,,,,,S,167,hexagon,1,0,,3,,,,,,,,,,,,,,switch,number,numSwt,k,0.5477,vtsPrac,30,0,30,0,1,,,,,,,,,,,,,,,,,,,,,,,
294763,2022-11-29_12h01.19.428,vts_reward_expectancy_bt,2022.2.4,Win32,60.3427468,Chrome,1280,800,,,,,0,765,,,,,,,,,,,,,,,,,W,139,circle,1,0,,3,,,,,,,,,,,,,,repeat,number,numRpt,j,0.9954,vtsPrac,31,0,31,0,1,,,,,,,,,,,,,,,,,,,,,,,
294763,2022-11-29_12h01.19.428,vts_reward_expectancy_bt,2022.2.4,Win32,60.3427468,Chrome,1280,800,,,,,,,,,,,,,,,,,,,,,,,,,,,,,,,,,,,,,,,,,,,,,,,,,,,,,,,,,,,,,,,,,,,,,,,,,,,,
294763,2022-11-29_12h01.19.428,vts_reward_expectancy_bt,2022.2.4,Win32,60.3427468,Chrome,1280,800,,,,,,,,,,,,,,,,,,,,,,,,,,,,,,,,,,,,,,,,,,,,,,,,,,,,,,,,,,,,,,,,,,,,,,,,,,,,
294763,2022-11-29_12h01.19.428,vts_reward_expectancy_bt,2022.2.4,Win32,60.3427468,Chrome,1280,800,,,,,0,765,,,,,,,,,,,,,,,,,W,125,circle,0,0,,,,,,,,,,,,,,,,switch,letter,NA,d,1.0352,noRew,,,,,,0,0,0,0,0,1,,,,,,,,,,,,,,,,,
294763,2022-11-29_12h01.19.428,vts_reward_expectancy_bt,2022.2.4,Win32,60.3427468,Chrome,1280,800,,,,,0,765,,,,,,,,,,,,,,,,,S,160,star,0,1,,,,,,,,,,,,,,,,repeat,letter,NA,d,0.6107,noRew,,,,,,0,1,0,1,0,1,,,,,,,,,,,,,,,,,
294763,2022-11-29_12h01.19.428,vts_reward_expectancy_bt,2022.2.4,Win32,60.3427468,Chrome,1280,800,,,,,0,765,,,,,,,,,,,,,,,,,F,146,circle,1,1,,,,,,,,,,,,,,,,repeat,letter,lettRpt,d,0.6417,noRew,,,,,,0,2,0,2,0,1,,,,,,,,,,,,,,,,,
294763,2022-11-29_12h01.19.428,vts_reward_expectancy_bt,2022.2.4,Win32,60.3427468,Chrome,1280,800,,,,,0,765,,,,,,,,,,,,,,,,,D,132,star,1,0,,,,,,,,,,,,,,,,repeat,letter,lettRpt,d,0.4549,noRew,,,,,,0,3,0,3,0,1,,,,,,,,,,,,,,,,,
294763,2022-11-29_12h01.19.428,vts_reward_expectancy_bt,2022.2.4,Win32,60.3427468,Chrome,1280,800,,,,,0,765,,,,,,,,,,,,,,,,,W,125,triangle,1,0,,,,,,,,,,,,,,,,switch,number,numSwt,j,0.5205,noRew,,,,,,0,4,0,4,0,1,,,,,,,,,,,,,,,,,
294763,2022-11-29_12h01.19.428,vts_reward_expectancy_bt,2022.2.4,Win32,60.3427468,Chrome,1280,800,,,,,0,765,,,,,,,,,,,,,,,,,S,160,hexagon,1,0,,,,,,,,,,,,,,,,repeat,number,numRpt,k,0.6088,noRew,,,,,,0,5,0,5,0,1,,,,,,,,,,,,,,,,,
294763,2022-11-29_12h01.19.428,vts_reward_expectancy_bt,2022.2.4,Win32,60.3427468,Chrome,1280,800,,,,,0,765,,,,,,,,,,,,,,,,,F,146,star,1,0,,,,,,,,,,,,,,,,switch,letter,lettSwt,d,0.8523,noRew,,,,,,0,6,0,6,0,1,,,,,,,,,,,,,,,,,
294763,2022-11-29_12h01.19.428,vts_reward_expectancy_bt,2022.2.4,Win32,60.3427468,Chrome,1280,800,,,,,0,765,,,,,,,,,,,,,,,,,D,132,hexagon,1,0,,,,,,,,,,,,,,,,switch,number,numSwt,j,0.7115,noRew,,,,,,0,7,0,7,0,1,,,,,,,,,,,,,,,,,
294763,2022-11-29_12h01.19.428,vts_reward_expectancy_bt,2022.2.4,Win32,60.3427468,Chrome,1280,800,,,,,0,765,,,,,,,,,,,,,,,,,Y,181,triangle,1,0,,,,,,,,,,,,,,,,switch,letter,lettSwt,f,0.7713,noRew,,,,,,0,8,0,8,0,1,,,,,,,,,,,,,,,,,
294763,2022-11-29_12h01.19.428,vts_reward_expectancy_bt,2022.2.4,Win32,60.3427468,Chrome,1280,800,,,,,0,765,,,,,,,,,,,,,,,,,F,160,star,1,0,,,,,,,,,,,,,,,,repeat,letter,lettRpt,d,0.6659,noRew,,,,,,0,9,0,9,0,1,,,,,,,,,,,,,,,,,
294763,2022-11-29_12h01.19.428,vts_reward_expectancy_bt,2022.2.4,Win32,60.3427468,Chrome,1280,800,,,,,0,765,,,,,,,,,,,,,,,,,U,125,star,1,0,,,,,,,,,,,,,,,,repeat,letter,lettRpt,f,0.9717,noRew,,,,,,0,10,0,10,0,1,,,,,,,,,,,,,,,,,
294763,2022-11-29_12h01.19.428,vts_reward_expectancy_bt,2022.2.4,Win32,60.3427468,Chrome,1280,800,,,,,0,765,,,,,,,,,,,,,,,,,S,139,triangle,1,0,,,,,,,,,,,,,,,,switch,number,numSwt,j,1.0388,noRew,,,,,,0,11,0,11,0,1,,,,,,,,,,,,,,,,,
294763,2022-11-29_12h01.19.428,vts_reward_expectancy_bt,2022.2.4,Win32,60.3427468,Chrome,1280,800,,,,,0,765,,,,,,,,,,,,,,,,,W,132,star,1,0,,,,,,,,,,,,,,,,switch,letter,lettSwt,f,0.5855,noRew,,,,,,0,12,0,12,0,1,,,,,,,,,,,,,,,,,
294763,2022-11-29_12h01.19.428,vts_reward_expectancy_bt,2022.2.4,Win32,60.3427468,Chrome,1280,800,,,,,0,765,,,,,,,,,,,,,,,,,S,174,hexagon,1,0,,,,,,,,,,,,,,,,repeat,letter,lettRpt,f,0.7024,noRew,,,,,,0,13,0,13,0,1,,,,,,,,,,,,,,,,,
294763,2022-11-29_12h01.19.428,vts_reward_expectancy_bt,2022.2.4,Win32,60.3427468,Chrome,1280,800,,,,,0,765,,,,,,,,,,,,,,,,,F,146,triangle,1,0,,,,,,,,,,,,,,,,switch,number,numSwt,j,1.1857,noRew,,,,,,0,14,0,14,0,1,,,,,,,,,,,,,,,,,
294763,2022-11-29_12h01.19.428,vts_reward_expectancy_bt,2022.2.4,Win32,60.3427468,Chrome,1280,800,,,,,0,765,,,,,,,,,,,,,,,,,Y,181,star,1,0,,,,,,,,,,,,,,,,repeat,number,numRpt,k,0.6854,noRew,,,,,,0,15,0,15,0,1,,,,,,,,,,,,,,,,,
294763,2022-11-29_12h01.19.428,vts_reward_expectancy_bt,2022.2.4,Win32,60.3427468,Chrome,1280,800,,,,,0,765,,,,,,,,,,,,,,,,,Y,146,hexagon,1,0,,,,,,,,,,,,,,,,repeat,number,numRpt,j,0.6504,noRew,,,,,,0,16,0,16,0,1,,,,,,,,,,,,,,,,,
294763,2022-11-29_12h01.19.428,vts_reward_expectancy_bt,2022.2.4,Win32,60.3427468,Chrome,1280,800,,,,,0,765,,,,,,,,,,,,,,,,,H,181,circle,1,0,,,,,,,,,,,,,,,,switch,letter,lettSwt,d,0.6111,noRew,,,,,,0,17,0,17,0,1,,,,,,,,,,,,,,,,,
294763,2022-11-29_12h01.19.428,vts_reward_expectancy_bt,2022.2.4,Win32,60.3427468,Chrome,1280,800,,,,,0,765,,,,,,,,,,,,,,,,,S,132,triangle,1,0,,,,,,,,,,,,,,,,switch,number,numSwt,j,1.6691,noRew,,,,,,0,18,0,18,0,1,,,,,,,,,,,,,,,,,
294763,2022-11-29_12h01.19.428,vts_reward_expectancy_bt,2022.2.4,Win32,60.3427468,Chrome,1280,800,,,,,0,765,,,,,,,,,,,,,,,,,U,160,circle,1,0,,,,,,,,,,,,,,,,switch,letter,lettSwt,f,0.6909,noRew,,,,,,0,19,0,19,0,1,,,,,,,,,,,,,,,,,
294763,2022-11-29_12h01.19.428,vts_reward_expectancy_bt,2022.2.4,Win32,60.3427468,Chrome,1280,800,,,,,0,765,,,,,,,,,,,,,,,,,S,132,circle,1,0,,,,,,,,,,,,,,,,repeat,letter,lettRpt,f,0.6896,noRew,,,,,,0,20,0,20,0,1,,,,,,,,,,,,,,,,,
294763,2022-11-29_12h01.19.428,vts_reward_expectancy_bt,2022.2.4,Win32,60.3427468,Chrome,1280,800,,,,,0,765,,,,,,,,,,,,,,,,,D,160,star,0,0,,,,,,,,,,,,,,,,switch,number,NA,j,1.1876,noRew,,,,,,0,21,0,21,0,1,,,,,,,,,,,,,,,,,
294763,2022-11-29_12h01.19.428,vts_reward_expectancy_bt,2022.2.4,Win32,60.3427468,Chrome,1280,800,,,,,0,765,,,,,,,,,,,,,,,,,H,139,circle,1,1,,,,,,,,,,,,,,,,repeat,number,numRpt,j,0.5694,noRew,,,,,,0,22,0,22,0,1,,,,,,,,,,,,,,,,,
294763,2022-11-29_12h01.19.428,vts_reward_expectancy_bt,2022.2.4,Win32,60.3427468,Chrome,1280,800,,,,,0,765,,,,,,,,,,,,,,,,,B,174,triangle,1,0,,,,,,,,,,,,,,,,repeat,number,numRpt,k,0.8666,noRew,,,,,,0,23,0,23,0,1,,,,,,,,,,,,,,,,,
294763,2022-11-29_12h01.19.428,vts_reward_expectancy_bt,2022.2.4,Win32,60.3427468,Chrome,1280,800,,,,,0,765,,,,,,,,,,,,,,,,,W,139,triangle,1,0,,,,,,,,,,,,,,,,repeat,number,numRpt,j,0.6521,noRew,,,,,,0,24,0,24,0,1,,,,,,,,,,,,,,,,,
294763,2022-11-29_12h01.19.428,vts_reward_expectancy_bt,2022.2.4,Win32,60.3427468,Chrome,1280,800,,,,,0,765,,,,,,,,,,,,,,,,,H,132,circle,1,0,,,,,,,,,,,,,,,,repeat,number,numRpt,j,0.6351,noRew,,,,,,0,25,0,25,0,1,,,,,,,,,,,,,,,,,
294763,2022-11-29_12h01.19.428,vts_reward_expectancy_bt,2022.2.4,Win32,60.3427468,Chrome,1280,800,,,,,0,765,,,,,,,,,,,,,,,,,Y,146,circle,1,0,,,,,,,,,,,,,,,,repeat,number,numRpt,j,0.6039,noRew,,,,,,0,26,0,26,0,1,,,,,,,,,,,,,,,,,
294763,2022-11-29_12h01.19.428,vts_reward_expectancy_bt,2022.2.4,Win32,60.3427468,Chrome,1280,800,,,,,0,765,,,,,,,,,,,,,,,,,D,167,star,1,0,,,,,,,,,,,,,,,,switch,letter,lettSwt,d,0.5865,noRew,,,,,,0,27,0,27,0,1,,,,,,,,,,,,,,,,,
294763,2022-11-29_12h01.19.428,vts_reward_expectancy_bt,2022.2.4,Win32,60.3427468,Chrome,1280,800,,,,,0,765,,,,,,,,,,,,,,,,,U,167,hexagon,1,0,,,,,,,,,,,,,,,,repeat,letter,lettRpt,f,0.9216,noRew,,,,,,0,28,0,28,0,1,,,,,,,,,,,,,,,,,
294763,2022-11-29_12h01.19.428,vts_reward_expectancy_bt,2022.2.4,Win32,60.3427468,Chrome,1280,800,,,,,0,765,,,,,,,,,,,,,,,,,W,174,star,1,0,,,,,,,,,,,,,,,,repeat,letter,lettRpt,f,0.6725,noRew,,,,,,0,29,0,29,0,1,,,,,,,,,,,,,,,,,
294763,2022-11-29_12h01.19.428,vts_reward_expectancy_bt,2022.2.4,Win32,60.3427468,Chrome,1280,800,,,,,0,765,,,,,,,,,,,,,,,,,Y,132,circle,1,0,,,,,,,,,,,,,,,,repeat,letter,lettRpt,f,0.6004,noRew,,,,,,0,30,0,30,0,1,,,,,,,,,,,,,,,,,
294763,2022-11-29_12h01.19.428,vts_reward_expectancy_bt,2022.2.4,Win32,60.3427468,Chrome,1280,800,,,,,0,765,,,,,,,,,,,,,,,,,H,181,hexagon,1,0,,,,,,,,,,,,,,,,switch,number,numSwt,k,0.7024,noRew,,,,,,0,31,0,31,0,1,,,,,,,,,,,,,,,,,
294763,2022-11-29_12h01.19.428,vts_reward_expectancy_bt,2022.2.4,Win32,60.3427468,Chrome,1280,800,,,,,0,765,,,,,,,,,,,,,,,,,D,181,star,1,0,,,,,,,,,,,,,,,,repeat,number,numRpt,k,0.5554,noRew,,,,,,0,32,0,32,0,1,,,,,,,,,,,,,,,,,
294763,2022-11-29_12h01.19.428,vts_reward_expectancy_bt,2022.2.4,Win32,60.3427468,Chrome,1280,800,,,,,0,765,,,,,,,,,,,,,,,,,B,132,triangle,1,0,,,,,,,,,,,,,,,,repeat,number,numRpt,j,0.6237,noRew,,,,,,0,33,0,33,0,1,,,,,,,,,,,,,,,,,
294763,2022-11-29_12h01.19.428,vts_reward_expectancy_bt,2022.2.4,Win32,60.3427468,Chrome,1280,800,,,,,0,765,,,,,,,,,,,,,,,,,U,160,hexagon,1,0,,,,,,,,,,,,,,,,switch,letter,lettSwt,f,0.5346,noRew,,,,,,0,34,0,34,0,1,,,,,,,,,,,,,,,,,
294763,2022-11-29_12h01.19.428,vts_reward_expectancy_bt,2022.2.4,Win32,60.3427468,Chrome,1280,800,,,,,0,765,,,,,,,,,,,,,,,,,F,146,triangle,1,0,,,,,,,,,,,,,,,,repeat,letter,lettRpt,d,0.5086,noRew,,,,,,0,35,0,35,0,1,,,,,,,,,,,,,,,,,
294763,2022-11-29_12h01.19.428,vts_reward_expectancy_bt,2022.2.4,Win32,60.3427468,Chrome,1280,800,,,,,0,765,,,,,,,,,,,,,,,,,S,174,hexagon,1,0,,,,,,,,,,,,,,,,repeat,letter,lettRpt,f,0.7172,noRew,,,,,,0,36,0,36,0,1,,,,,,,,,,,,,,,,,
294763,2022-11-29_12h01.19.428,vts_reward_expectancy_bt,2022.2.4,Win32,60.3427468,Chrome,1280,800,,,,,0,765,,,,,,,,,,,,,,,,,B,181,triangle,1,0,,,,,,,,,,,,,,,,switch,number,numSwt,k,0.6013,noRew,,,,,,0,37,0,37,0,1,,,,,,,,,,,,,,,,,
294763,2022-11-29_12h01.19.428,vts_reward_expectancy_bt,2022.2.4,Win32,60.3427468,Chrome,1280,800,,,,,0,765,,,,,,,,,,,,,,,,,H,160,circle,0,0,,,,,,,,,,,,,,,,repeat,number,NA,j,0.5426,noRew,,,,,,0,38,0,38,0,1,,,,,,,,,,,,,,,,,
294763,2022-11-29_12h01.19.428,vts_reward_expectancy_bt,2022.2.4,Win32,60.3427468,Chrome,1280,800,,,,,0,765,,,,,,,,,,,,,,,,,Y,139,triangle,1,1,,,,,,,,,,,,,,,,repeat,number,numRpt,j,0.5881,noRew,,,,,,0,39,0,39,0,1,,,,,,,,,,,,,,,,,
294763,2022-11-29_12h01.19.428,vts_reward_expectancy_bt,2022.2.4,Win32,60.3427468,Chrome,1280,800,,,,,0,765,,,,,,,,,,,,,,,,,Y,125,circle,1,0,,,,,,,,,,,,,,,,switch,letter,lettSwt,f,0.6952,noRew,,,,,,0,40,0,40,0,1,,,,,,,,,,,,,,,,,
294763,2022-11-29_12h01.19.428,vts_reward_expectancy_bt,2022.2.4,Win32,60.3427468,Chrome,1280,800,,,,,0,765,,,,,,,,,,,,,,,,,S,146,star,1,0,,,,,,,,,,,,,,,,repeat,letter,lettRpt,f,0.6867,noRew,,,,,,0,41,0,41,0,1,,,,,,,,,,,,,,,,,
294763,2022-11-29_12h01.19.428,vts_reward_expectancy_bt,2022.2.4,Win32,60.3427468,Chrome,1280,800,,,,,0,765,,,,,,,,,,,,,,,,,W,160,hexagon,1,0,,,,,,,,,,,,,,,,repeat,letter,lettRpt,f,0.5286,noRew,,,,,,0,42,0,42,0,1,,,,,,,,,,,,,,,,,
294763,2022-11-29_12h01.19.428,vts_reward_expectancy_bt,2022.2.4,Win32,60.3427468,Chrome,1280,800,,,,,0,765,,,,,,,,,,,,,,,,,F,167,triangle,1,0,,,,,,,,,,,,,,,,repeat,letter,lettRpt,d,0.59,noRew,,,,,,0,43,0,43,0,1,,,,,,,,,,,,,,,,,
294763,2022-11-29_12h01.19.428,vts_reward_expectancy_bt,2022.2.4,Win32,60.3427468,Chrome,1280,800,,,,,0,765,,,,,,,,,,,,,,,,,U,160,star,1,0,,,,,,,,,,,,,,,,repeat,letter,lettRpt,f,0.614,noRew,,,,,,0,44,0,44,0,1,,,,,,,,,,,,,,,,,
294763,2022-11-29_12h01.19.428,vts_reward_expectancy_bt,2022.2.4,Win32,60.3427468,Chrome,1280,800,,,,,0,765,,,,,,,,,,,,,,,,,B,132,triangle,1,0,,,,,,,,,,,,,,,,switch,number,numSwt,j,0.452,noRew,,,,,,0,45,0,45,0,1,,,,,,,,,,,,,,,,,
294763,2022-11-29_12h01.19.428,vts_reward_expectancy_bt,2022.2.4,Win32,60.3427468,Chrome,1280,800,,,,,0,765,,,,,,,,,,,,,,,,,F,174,star,1,0,,,,,,,,,,,,,,,,repeat,number,numRpt,k,0.5373,noRew,,,,,,0,46,0,46,0,1,,,,,,,,,,,,,,,,,
294763,2022-11-29_12h01.19.428,vts_reward_expectancy_bt,2022.2.4,Win32,60.3427468,Chrome,1280,800,,,,,0,765,,,,,,,,,,,,,,,,,H,146,triangle,1,0,,,,,,,,,,,,,,,,repeat,number,numRpt,j,0.5707,noRew,,,,,,0,47,0,47,0,1,,,,,,,,,,,,,,,,,
294763,2022-11-29_12h01.19.428,vts_reward_expectancy_bt,2022.2.4,Win32,60.3427468,Chrome,1280,800,,,,,0,765,,,,,,,,,,,,,,,,,B,146,star,1,0,,,,,,,,,,,,,,,,repeat,number,numRpt,j,0.4699,noRew,,,,,,0,48,0,48,0,1,,,,,,,,,,,,,,,,,
294763,2022-11-29_12h01.19.428,vts_reward_expectancy_bt,2022.2.4,Win32,60.3427468,Chrome,1280,800,,,,,0,765,,,,,,,,,,,,,,,,,W,132,circle,1,0,,,,,,,,,,,,,,,,repeat,number,numRpt,j,0.5392,noRew,,,,,,0,49,0,49,0,1,,,,,,,,,,,,,,,,,
294763,2022-11-29_12h01.19.428,vts_reward_expectancy_bt,2022.2.4,Win32,60.3427468,Chrome,1280,800,,,,,0,765,,,,,,,,,,,,,,,,,F,181,circle,1,0,,,,,,,,,,,,,,,,switch,letter,lettSwt,d,0.6063,noRew,,,,,,0,50,0,50,0,1,,,,,,,,,,,,,,,,,
294763,2022-11-29_12h01.19.428,vts_reward_expectancy_bt,2022.2.4,Win32,60.3427468,Chrome,1280,800,,,,,0,765,,,,,,,,,,,,,,,,,S,125,hexagon,1,0,,,,,,,,,,,,,,,,repeat,letter,lettRpt,f,0.3689,noRew,,,,,,0,51,0,51,0,1,,,,,,,,,,,,,,,,,
294763,2022-11-29_12h01.19.428,vts_reward_expectancy_bt,2022.2.4,Win32,60.3427468,Chrome,1280,800,,,,,0,765,,,,,,,,,,,,,,,,,S,139,star,1,0,,,,,,,,,,,,,,,,repeat,letter,lettRpt,f,0.4551,noRew,,,,,,0,52,0,52,0,1,,,,,,,,,,,,,,,,,
294763,2022-11-29_12h01.19.428,vts_reward_expectancy_bt,2022.2.4,Win32,60.3427468,Chrome,1280,800,,,,,0,765,,,,,,,,,,,,,,,,,W,132,circle,1,0,,,,,,,,,,,,,,,,repeat,letter,lettRpt,f,0.6007,noRew,,,,,,0,53,0,53,0,1,,,,,,,,,,,,,,,,,
294763,2022-11-29_12h01.19.428,vts_reward_expectancy_bt,2022.2.4,Win32,60.3427468,Chrome,1280,800,,,,,0,765,,,,,,,,,,,,,,,,,U,125,circle,1,0,,,,,,,,,,,,,,,,repeat,letter,lettRpt,f,0.8069,noRew,,,,,,0,54,0,54,0,1,,,,,,,,,,,,,,,,,
294763,2022-11-29_12h01.19.428,vts_reward_expectancy_bt,2022.2.4,Win32,60.3427468,Chrome,1280,800,,,,,0,765,,,,,,,,,,,,,,,,,H,146,hexagon,1,0,,,,,,,,,,,,,,,,switch,number,numSwt,j,0.7547,noRew,,,,,,0,55,0,55,0,1,,,,,,,,,,,,,,,,,
294763,2022-11-29_12h01.19.428,vts_reward_expectancy_bt,2022.2.4,Win32,60.3427468,Chrome,1280,800,,,,,0,765,,,,,,,,,,,,,,,,,D,174,triangle,1,0,,,,,,,,,,,,,,,,repeat,number,numRpt,k,0.5006,noRew,,,,,,0,56,0,56,0,1,,,,,,,,,,,,,,,,,
294763,2022-11-29_12h01.19.428,vts_reward_expectancy_bt,2022.2.4,Win32,60.3427468,Chrome,1280,800,,,,,0,765,,,,,,,,,,,,,,,,,Y,139,circle,1,0,,,,,,,,,,,,,,,,repeat,number,numRpt,j,0.6321,noRew,,,,,,0,57,0,57,0,1,,,,,,,,,,,,,,,,,
294763,2022-11-29_12h01.19.428,vts_reward_expectancy_bt,2022.2.4,Win32,60.3427468,Chrome,1280,800,,,,,0,765,,,,,,,,,,,,,,,,,U,160,hexagon,1,0,,,,,,,,,,,,,,,,switch,letter,lettSwt,f,0.677,noRew,,,,,,0,58,0,58,0,1,,,,,,,,,,,,,,,,,
294763,2022-11-29_12h01.19.428,vts_reward_expectancy_bt,2022.2.4,Win32,60.3427468,Chrome,1280,800,,,,,0,765,,,,,,,,,,,,,,,,,H,125,circle,1,0,,,,,,,,,,,,,,,,repeat,letter,lettRpt,d,0.6509,noRew,,,,,,0,59,0,59,0,1,,,,,,,,,,,,,,,,,
294763,2022-11-29_12h01.19.428,vts_reward_expectancy_bt,2022.2.4,Win32,60.3427468,Chrome,1280,800,,,,,0,765,,,,,,,,,,,,,,,,,Y,160,triangle,1,0,,,,,,,,,,,,,,,,repeat,letter,lettRpt,f,0.5878,noRew,,,,,,0,60,0,60,0,1,,,,,,,,,,,,,,,,,
294763,2022-11-29_12h01.19.428,vts_reward_expectancy_bt,2022.2.4,Win32,60.3427468,Chrome,1280,800,,,,,0,765,,,,,,,,,,,,,,,,,U,167,star,1,0,,,,,,,,,,,,,,,,repeat,letter,lettRpt,f,0.569,noRew,,,,,,0,61,0,61,0,1,,,,,,,,,,,,,,,,,
294763,2022-11-29_12h01.19.428,vts_reward_expectancy_bt,2022.2.4,Win32,60.3427468,Chrome,1280,800,,,,,0,765,,,,,,,,,,,,,,,,,W,174,triangle,1,0,,,,,,,,,,,,,,,,switch,number,numSwt,k,0.5856,noRew,,,,,,0,62,0,62,0,1,,,,,,,,,,,,,,,,,
294763,2022-11-29_12h01.19.428,vts_reward_expectancy_bt,2022.2.4,Win32,60.3427468,Chrome,1280,800,,,,,0,765,,,,,,,,,,,,,,,,,H,132,star,1,0,,,,,,,,,,,,,,,,repeat,number,numRpt,j,0.5888,noRew,,,,,,0,63,0,63,0,1,,,,,,,,,,,,,,,,,
294763,2022-11-29_12h01.19.428,vts_reward_expectancy_bt,2022.2.4,Win32,60.3427468,Chrome,1280,800,,,,,,,,,,,,,,,,,,,,,,,,,,,,,,,,,,,,,,,,,,,,,,,,,,,,,,,,,,,,,,,,,,,,,,,,,,,,
294763,2022-11-29_12h01.19.428,vts_reward_expectancy_bt,2022.2.4,Win32,60.3427468,Chrome,1280,800,,,,,0,765,,,,,,,,,,,,,,,,,S,139,star,0,0,,,,,,,,,,,,,,,,repeat,number,NA,k,1.4349,noRew,,,,,,0,,,,,,space,6.6115,high,0,0,0,0,1,,,,,,,,,
294763,2022-11-29_12h01.19.428,vts_reward_expectancy_bt,2022.2.4,Win32,60.3427468,Chrome,1280,800,,,,,0,765,,,,,,,,,,,,,,,,,H,167,circle,1,1,,,,,,,,,,,,,,,,switch,letter,lettSwt,d,0.8096,Hi,,,,,,0,,,,,,,,high,1,0,1,0,1,,,,,,,,,
294763,2022-11-29_12h01.19.428,vts_reward_expectancy_bt,2022.2.4,Win32,60.3427468,Chrome,1280,800,,,,,0,765,,,,,,,,,,,,,,,,,W,160,hexagon,1,0,,,,,,,,,,,,,,,,repeat,letter,lettRpt,f,0.8992,Hi,,,,,,0,,,,,,,,high,2,0,2,0,1,,,,,,,,,
294763,2022-11-29_12h01.19.428,vts_reward_expectancy_bt,2022.2.4,Win32,60.3427468,Chrome,1280,800,,,,,1,766,,,,,,,,,,,,,,,,,B,132,triangle,1,0,,,,,,,,,,,,,,,,repeat,letter,lettRpt,d,0.4941,Lo,,,,,,0,,,,,,,,high,3,0,3,0,1,,,,,,,,,
294763,2022-11-29_12h01.19.428,vts_reward_expectancy_bt,2022.2.4,Win32,60.3427468,Chrome,1280,800,,,,,0,766,,,,,,,,,,,,,,,,,F,181,star,0,0,,,,,,,,,,,,,,,,repeat,letter,NA,f,0.4242,Lo,,,,,,0,,,,,,,,high,4,0,4,0,1,,,,,,,,,
294763,2022-11-29_12h01.19.428,vts_reward_expectancy_bt,2022.2.4,Win32,60.3427468,Chrome,1280,800,,,,,0,766,,,,,,,,,,,,,,,,,U,146,circle,0,1,,,,,,,,,,,,,,,,switch,number,NA,k,0.4708,Lo,,,,,,0,,,,,,,,high,5,0,5,0,1,,,,,,,,,
294763,2022-11-29_12h01.19.428,vts_reward_expectancy_bt,2022.2.4,Win32,60.3427468,Chrome,1280,800,,,,,10,776,,,,,,,,,,,,,,,,,D,125,hexagon,1,1,,,,,,,,,,,,,,,,repeat,number,numRpt,j,0.4218,Hi,,,,,,0,,,,,,,,high,6,0,6,0,1,,,,,,,,,
294763,2022-11-29_12h01.19.428,vts_reward_expectancy_bt,2022.2.4,Win32,60.3427468,Chrome,1280,800,,,,,1,777,,,,,,,,,,,,,,,,,Y,174,triangle,1,0,,,,,,,,,,,,,,,,repeat,number,numRpt,k,0.4347,Lo,,,,,,0,,,,,,,,high,7,0,7,0,1,,,,,,,,,
294763,2022-11-29_12h01.19.428,vts_reward_expectancy_bt,2022.2.4,Win32,60.3427468,Chrome,1280,800,,,,,10,787,,,,,,,,,,,,,,,,,S,139,star,1,0,,,,,,,,,,,,,,,,repeat,number,numRpt,j,0.4343,Lo,,,,,,0,,,,,,,,high,8,0,8,0,1,,,,,,,,,
294763,2022-11-29_12h01.19.428,vts_reward_expectancy_bt,2022.2.4,Win32,60.3427468,Chrome,1280,800,,,,,0,787,,,,,,,,,,,,,,,,,H,167,hexagon,0,0,,,,,,,,,,,,,,,,repeat,number,NA,j,0.4639,Lo,,,,,,0,,,,,,,,high,9,0,9,0,1,,,,,,,,,
294763,2022-11-29_12h01.19.428,vts_reward_expectancy_bt,2022.2.4,Win32,60.3427468,Chrome,1280,800,,,,,10,797,,,,,,,,,,,,,,,,,W,160,circle,1,1,,,,,,,,,,,,,,,,repeat,number,numRpt,k,0.5338,Hi,,,,,,0,,,,,,,,high,10,0,10,0,1,,,,,,,,,
294763,2022-11-29_12h01.19.428,vts_reward_expectancy_bt,2022.2.4,Win32,60.3427468,Chrome,1280,800,,,,,1,798,,,,,,,,,,,,,,,,,B,132,triangle,1,0,,,,,,,,,,,,,,,,switch,letter,lettSwt,d,0.4305,Lo,,,,,,0,,,,,,,,high,11,0,11,0,1,,,,,,,,,
294763,2022-11-29_12h01.19.428,vts_reward_expectancy_bt,2022.2.4,Win32,60.3427468,Chrome,1280,800,,,,,0,798,,,,,,,,,,,,,,,,,F,181,circle,0,0,,,,,,,,,,,,,,,,repeat,letter,NA,f,0.5126,Lo,,,,,,0,,,,,,,,high,12,0,12,0,1,,,,,,,,,
294763,2022-11-29_12h01.19.428,vts_reward_expectancy_bt,2022.2.4,Win32,60.3427468,Chrome,1280,800,,,,,0,798,,,,,,,,,,,,,,,,,U,146,star,0,1,,,,,,,,,,,,,,,,repeat,letter,NA,d,0.5306,Lo,,,,,,0,,,,,,,,high,13,0,13,0,1,,,,,,,,,
294763,2022-11-29_12h01.19.428,vts_reward_expectancy_bt,2022.2.4,Win32,60.3427468,Chrome,1280,800,,,,,0,798,,,,,,,,,,,,,,,,,D,125,hexagon,1,1,,,,,,,,,,,,,,,,switch,number,numSwt,j,0.7327,Hi,,,,,,0,,,,,,,,high,14,0,14,0,1,,,,,,,,,
294763,2022-11-29_12h01.19.428,vts_reward_expectancy_bt,2022.2.4,Win32,60.3427468,Chrome,1280,800,,,,,10,808,,,,,,,,,,,,,,,,,Y,174,triangle,1,0,,,,,,,,,,,,,,,,repeat,number,numRpt,k,0.4683,Lo,,,,,,0,,,,,,,,high,15,0,15,0,1,,,,,,,,,
294763,2022-11-29_12h01.19.428,vts_reward_expectancy_bt,2022.2.4,Win32,60.3427468,Chrome,1280,800,,,,,1,809,,,,,,,,,,,,,,,,,F,181,star,1,0,,,,,,,,,,,,,,,,repeat,number,numRpt,k,0.4634,Lo,,,,,,0,,,,,,,,high,16,0,16,0,1,,,,,,,,,
294763,2022-11-29_12h01.19.428,vts_reward_expectancy_bt,2022.2.4,Win32,60.3427468,Chrome,1280,800,,,,,10,819,,,,,,,,,,,,,,,,,W,139,circle,1,0,,,,,,,,,,,,,,,,switch,letter,lettSwt,f,0.5167,Hi,,,,,,0,,,,,,,,high,17,0,17,0,1,,,,,,,,,
294763,2022-11-29_12h01.19.428,vts_reward_expectancy_bt,2022.2.4,Win32,60.3427468,Chrome,1280,800,,,,,1,820,,,,,,,,,,,,,,,,,U,146,hexagon,1,0,,,,,,,,,,,,,,,,repeat,letter,lettRpt,f,0.5144,Hi,,,,,,0,,,,,,,,high,18,0,18,0,1,,,,,,,,,
294763,2022-11-29_12h01.19.428,vts_reward_expectancy_bt,2022.2.4,Win32,60.3427468,Chrome,1280,800,,,,,1,821,,,,,,,,,,,,,,,,,B,132,triangle,1,0,,,,,,,,,,,,,,,,repeat,letter,lettRpt,d,0.2961,Lo,,,,,,0,,,,,,,,high,19,0,19,0,1,,,,,,,,,
294763,2022-11-29_12h01.19.428,vts_reward_expectancy_bt,2022.2.4,Win32,60.3427468,Chrome,1280,800,,,,,1,822,,,,,,,,,,,,,,,,,Y,167,triangle,1,0,,,,,,,,,,,,,,,,switch,number,numSwt,k,0.5345,Lo,,,,,,0,,,,,,,,high,20,0,20,0,1,,,,,,,,,
294763,2022-11-29_12h01.19.428,vts_reward_expectancy_bt,2022.2.4,Win32,60.3427468,Chrome,1280,800,,,,,1,823,,,,,,,,,,,,,,,,,D,160,star,1,0,,,,,,,,,,,,,,,,repeat,number,numRpt,k,0.4657,Lo,,,,,,0,,,,,,,,high,21,0,21,0,1,,,,,,,,,
294763,2022-11-29_12h01.19.428,vts_reward_expectancy_bt,2022.2.4,Win32,60.3427468,Chrome,1280,800,,,,,10,833,,,,,,,,,,,,,,,,,H,125,circle,1,0,,,,,,,,,,,,,,,,repeat,number,numRpt,j,0.4184,Hi,,,,,,0,,,,,,,,high,22,0,22,0,1,,,,,,,,,
294763,2022-11-29_12h01.19.428,vts_reward_expectancy_bt,2022.2.4,Win32,60.3427468,Chrome,1280,800,,,,,10,843,,,,,,,,,,,,,,,,,S,174,hexagon,1,0,,,,,,,,,,,,,,,,switch,letter,lettSwt,f,0.5585,Hi,,,,,,0,,,,,,,,high,23,0,23,0,1,,,,,,,,,
294763,2022-11-29_12h01.19.428,vts_reward_expectancy_bt,2022.2.4,Win32,60.3427468,Chrome,1280,800,,,,,10,853,,,,,,,,,,,,,,,,,Y,181,triangle,1,0,,,,,,,,,,,,,,,,repeat,letter,lettRpt,f,0.5347,Lo,,,,,,0,,,,,,,,high,24,0,24,0,1,,,,,,,,,
294763,2022-11-29_12h01.19.428,vts_reward_expectancy_bt,2022.2.4,Win32,60.3427468,Chrome,1280,800,,,,,10,863,,,,,,,,,,,,,,,,,H,139,circle,1,0,,,,,,,,,,,,,,,,repeat,letter,lettRpt,d,0.5477,Hi,,,,,,0,,,,,,,,high,25,0,25,0,1,,,,,,,,,
294763,2022-11-29_12h01.19.428,vts_reward_expectancy_bt,2022.2.4,Win32,60.3427468,Chrome,1280,800,,,,,0,863,,,,,,,,,,,,,,,,,D,167,hexagon,0,0,,,,,,,,,,,,,,,,repeat,letter,NA,f,0.3975,Hi,,,,,,0,,,,,,,,high,26,0,26,0,1,,,,,,,,,
294763,2022-11-29_12h01.19.428,vts_reward_expectancy_bt,2022.2.4,Win32,60.3427468,Chrome,1280,800,,,,,1,864,,,,,,,,,,,,,,,,,F,174,star,1,1,,,,,,,,,,,,,,,,repeat,letter,lettRpt,d,0.4793,Lo,,,,,,0,,,,,,,,high,27,0,27,0,1,,,,,,,,,
294763,2022-11-29_12h01.19.428,vts_reward_expectancy_bt,2022.2.4,Win32,60.3427468,Chrome,1280,800,,,,,0,864,,,,,,,,,,,,,,,,,S,146,circle,1,0,,,,,,,,,,,,,,,,repeat,letter,lettRpt,f,0.7652,Hi,,,,,,0,,,,,,,,high,28,0,28,0,1,,,,,,,,,
294763,2022-11-29_12h01.19.428,vts_reward_expectancy_bt,2022.2.4,Win32,60.3427468,Chrome,1280,800,,,,,0,864,,,,,,,,,,,,,,,,,W,160,hexagon,0,0,,,,,,,,,,,,,,,,switch,number,NA,j,0.4805,Hi,,,,,,0,,,,,,,,high,29,0,29,0,1,,,,,,,,,
294763,2022-11-29_12h01.19.428,vts_reward_expectancy_bt,2022.2.4,Win32,60.3427468,Chrome,1280,800,,,,,1,865,,,,,,,,,,,,,,,,,U,132,star,1,1,,,,,,,,,,,,,,,,repeat,number,numRpt,j,0.4159,Lo,,,,,,0,,,,,,,,high,30,0,30,0,1,,,,,,,,,
294763,2022-11-29_12h01.19.428,vts_reward_expectancy_bt,2022.2.4,Win32,60.3427468,Chrome,1280,800,,,,,1,866,,,,,,,,,,,,,,,,,B,125,triangle,1,0,,,,,,,,,,,,,,,,repeat,number,numRpt,j,0.5642,Lo,,,,,,0,,,,,,,,high,31,0,31,0,1,,,,,,,,,
294763,2022-11-29_12h01.19.428,vts_reward_expectancy_bt,2022.2.4,Win32,60.3427468,Chrome,1280,800,,,,,0,866,,,,,,,,,,,,,,,,,S,139,star,0,0,,,,,,,,,,,,,,,,switch,letter,NA,d,0.4808,Lo,,,,,,1,,,,,,space,2.5229,high,0,0,0,0,1,,,,,,,,,
294763,2022-11-29_12h01.19.428,vts_reward_expectancy_bt,2022.2.4,Win32,60.3427468,Chrome,1280,800,,,,,1,867,,,,,,,,,,,,,,,,,H,167,triangle,1,1,,,,,,,,,,,,,,,,repeat,letter,lettRpt,d,0.5591,Lo,,,,,,1,,,,,,,,high,1,0,1,0,1,,,,,,,,,
294763,2022-11-29_12h01.19.428,vts_reward_expectancy_bt,2022.2.4,Win32,60.3427468,Chrome,1280,800,,,,,10,877,,,,,,,,,,,,,,,,,U,146,circle,1,0,,,,,,,,,,,,,,,,repeat,letter,lettRpt,f,0.3613,Hi,,,,,,1,,,,,,,,high,2,0,2,0,1,,,,,,,,,
294763,2022-11-29_12h01.19.428,vts_reward_expectancy_bt,2022.2.4,Win32,60.3427468,Chrome,1280,800,,,,,10,887,,,,,,,,,,,,,,,,,B,160,hexagon,1,0,,,,,,,,,,,,,,,,switch,number,numSwt,k,0.4654,Hi,,,,,,1,,,,,,,,high,3,0,3,0,1,,,,,,,,,
294763,2022-11-29_12h01.19.428,vts_reward_expectancy_bt,2022.2.4,Win32,60.3427468,Chrome,1280,800,,,,,1,888,,,,,,,,,,,,,,,,,D,125,star,1,0,,,,,,,,,,,,,,,,repeat,number,numRpt,j,0.3832,Lo,,,,,,1,,,,,,,,high,4,0,4,0,1,,,,,,,,,
294763,2022-11-29_12h01.19.428,vts_reward_expectancy_bt,2022.2.4,Win32,60.3427468,Chrome,1280,800,,,,,1,889,,,,,,,,,,,,,,,,,W,174,triangle,1,0,,,,,,,,,,,,,,,,repeat,number,numRpt,k,0.4559,Lo,,,,,,1,,,,,,,,high,5,0,5,0,1,,,,,,,,,
294763,2022-11-29_12h01.19.428,vts_reward_expectancy_bt,2022.2.4,Win32,60.3427468,Chrome,1280,800,,,,,0,889,,,,,,,,,,,,,,,,,Y,181,circle,1,0,,,,,,,,,,,,,,,,repeat,number,numRpt,k,0.4817,Hi,,,,,,1,,,,,,,,high,6,0,6,0,1,,,,,,,,,
294763,2022-11-29_12h01.19.428,vts_reward_expectancy_bt,2022.2.4,Win32,60.3427468,Chrome,1280,800,,,,,10,899,,,,,,,,,,,,,,,,,F,132,hexagon,1,0,,,,,,,,,,,,,,,,repeat,number,numRpt,j,0.4139,Hi,,,,,,1,,,,,,,,high,7,0,7,0,1,,,,,,,,,
294763,2022-11-29_12h01.19.428,vts_reward_expectancy_bt,2022.2.4,Win32,60.3427468,Chrome,1280,800,,,,,1,900,,,,,,,,,,,,,,,,,S,139,triangle,1,0,,,,,,,,,,,,,,,,repeat,number,numRpt,j,0.5069,Lo,,,,,,1,,,,,,,,high,8,0,8,0,1,,,,,,,,,
294763,2022-11-29_12h01.19.428,vts_reward_expectancy_bt,2022.2.4,Win32,60.3427468,Chrome,1280,800,,,,,1,901,,,,,,,,,,,,,,,,,H,167,star,1,0,,,,,,,,,,,,,,,,repeat,number,numRpt,k,0.4133,Lo,,,,,,1,,,,,,,,high,9,0,9,0,1,,,,,,,,,
294763,2022-11-29_12h01.19.428,vts_reward_expectancy_bt,2022.2.4,Win32,60.3427468,Chrome,1280,800,,,,,10,911,,,,,,,,,,,,,,,,,U,146,hexagon,1,0,,,,,,,,,,,,,,,,repeat,number,numRpt,j,0.3813,Hi,,,,,,1,,,,,,,,high,10,0,10,0,1,,,,,,,,,
294763,2022-11-29_12h01.19.428,vts_reward_expectancy_bt,2022.2.4,Win32,60.3427468,Chrome,1280,800,,,,,10,921,,,,,,,,,,,,,,,,,B,160,circle,1,0,,,,,,,,,,,,,,,,switch,letter,lettSwt,d,0.4157,Hi,,,,,,1,,,,,,,,high,11,0,11,0,1,,,,,,,,,
294763,2022-11-29_12h01.19.428,vts_reward_expectancy_bt,2022.2.4,Win32,60.3427468,Chrome,1280,800,,,,,10,931,,,,,,,,,,,,,,,,,D,125,hexagon,1,0,,,,,,,,,,,,,,,,repeat,letter,lettRpt,d,0.4322,Hi,,,,,,1,,,,,,,,high,12,0,12,0,1,,,,,,,,,
294763,2022-11-29_12h01.19.428,vts_reward_expectancy_bt,2022.2.4,Win32,60.3427468,Chrome,1280,800,,,,,10,941,,,,,,,,,,,,,,,,,W,174,circle,1,0,,,,,,,,,,,,,,,,repeat,letter,lettRpt,f,0.2326,Hi,,,,,,1,,,,,,,,high,13,0,13,0,1,,,,,,,,,
294763,2022-11-29_12h01.19.428,vts_reward_expectancy_bt,2022.2.4,Win32,60.3427468,Chrome,1280,800,,,,,1,942,,,,,,,,,,,,,,,,,Y,181,triangle,1,0,,,,,,,,,,,,,,,,repeat,letter,lettRpt,f,0.3983,Lo,,,,,,1,,,,,,,,high,14,0,14,0,1,,,,,,,,,
294763,2022-11-29_12h01.19.428,vts_reward_expectancy_bt,2022.2.4,Win32,60.3427468,Chrome,1280,800,,,,,1,943,,,,,,,,,,,,,,,,,F,132,star,1,0,,,,,,,,,,,,,,,,switch,number,numSwt,j,0.4488,Lo,,,,,,1,,,,,,,,high,15,0,15,0,1,,,,,,,,,
294763,2022-11-29_12h01.19.428,vts_reward_expectancy_bt,2022.2.4,Win32,60.3427468,Chrome,1280,800,,,,,1,944,,,,,,,,,,,,,,,,,S,139,triangle,1,0,,,,,,,,,,,,,,,,repeat,number,numRpt,j,0.4795,Lo,,,,,,1,,,,,,,,high,16,0,16,0,1,,,,,,,,,
294763,2022-11-29_12h01.19.428,vts_reward_expectancy_bt,2022.2.4,Win32,60.3427468,Chrome,1280,800,,,,,10,954,,,,,,,,,,,,,,,,,D,160,circle,1,0,,,,,,,,,,,,,,,,repeat,number,numRpt,k,0.3972,Hi,,,,,,1,,,,,,,,high,17,0,17,0,1,,,,,,,,,
294763,2022-11-29_12h01.19.428,vts_reward_expectancy_bt,2022.2.4,Win32,60.3427468,Chrome,1280,800,,,,,1,955,,,,,,,,,,,,,,,,,U,132,star,1,0,,,,,,,,,,,,,,,,repeat,number,numRpt,j,0.5646,Lo,,,,,,1,,,,,,,,high,18,0,18,0,1,,,,,,,,,
294763,2022-11-29_12h01.19.428,vts_reward_expectancy_bt,2022.2.4,Win32,60.3427468,Chrome,1280,800,,,,,0,955,,,,,,,,,,,,,,,,,W,146,hexagon,0,0,,,,,,,,,,,,,,,,switch,letter,NA,d,0.4784,Lo,,,,,,1,,,,,,,,high,19,0,19,0,1,,,,,,,,,
294763,2022-11-29_12h01.19.428,vts_reward_expectancy_bt,2022.2.4,Win32,60.3427468,Chrome,1280,800,,,,,10,965,,,,,,,,,,,,,,,,,H,167,circle,1,1,,,,,,,,,,,,,,,,repeat,letter,lettRpt,d,0.3958,Hi,,,,,,1,,,,,,,,high,20,0,20,0,1,,,,,,,,,
294763,2022-11-29_12h01.19.428,vts_reward_expectancy_bt,2022.2.4,Win32,60.3427468,Chrome,1280,800,,,,,0,965,,,,,,,,,,,,,,,,,F,125,star,0,0,,,,,,,,,,,,,,,,repeat,letter,NA,f,0.4292,Hi,,,,,,1,,,,,,,,high,21,0,21,0,1,,,,,,,,,
294763,2022-11-29_12h01.19.428,vts_reward_expectancy_bt,2022.2.4,Win32,60.3427468,Chrome,1280,800,,,,,0,965,,,,,,,,,,,,,,,,,Y,174,hexagon,1,1,,,,,,,,,,,,,,,,repeat,letter,lettRpt,f,0.5117,Hi,,,,,,1,,,,,,,,high,22,0,22,0,1,,,,,,,,,
294763,2022-11-29_12h01.19.428,vts_reward_expectancy_bt,2022.2.4,Win32,60.3427468,Chrome,1280,800,,,,,1,966,,,,,,,,,,,,,,,,,B,181,triangle,1,0,,,,,,,,,,,,,,,,repeat,letter,lettRpt,d,0.4964,Lo,,,,,,1,,,,,,,,high,23,0,23,0,1,,,,,,,,,
294763,2022-11-29_12h01.19.428,vts_reward_expectancy_bt,2022.2.4,Win32,60.3427468,Chrome,1280,800,,,,,10,976,,,,,,,,,,,,,,,,,Y,181,hexagon,1,0,,,,,,,,,,,,,,,,switch,number,numSwt,k,0.552,Hi,,,,,,1,,,,,,,,high,24,0,24,0,1,,,,,,,,,
294763,2022-11-29_12h01.19.428,vts_reward_expectancy_bt,2022.2.4,Win32,60.3427468,Chrome,1280,800,,,,,1,977,,,,,,,,,,,,,,,,,F,174,triangle,1,0,,,,,,,,,,,,,,,,repeat,number,numRpt,k,0.4653,Lo,,,,,,1,,,,,,,,high,25,0,25,0,1,,,,,,,,,
294763,2022-11-29_12h01.19.428,vts_reward_expectancy_bt,2022.2.4,Win32,60.3427468,Chrome,1280,800,,,,,0,977,,,,,,,,,,,,,,,,,H,132,circle,1,0,,,,,,,,,,,,,,,,repeat,number,numRpt,j,0.4458,Hi,,,,,,1,,,,,,,,high,26,0,26,0,1,,,,,,,,,
294763,2022-11-29_12h01.19.428,vts_reward_expectancy_bt,2022.2.4,Win32,60.3427468,Chrome,1280,800,,,,,1,978,,,,,,,,,,,,,,,,,W,160,star,1,0,,,,,,,,,,,,,,,,repeat,number,numRpt,k,0.5124,Lo,,,,,,1,,,,,,,,high,27,0,27,0,1,,,,,,,,,
294763,2022-11-29_12h01.19.428,vts_reward_expectancy_bt,2022.2.4,Win32,60.3427468,Chrome,1280,800,,,,,1,979,,,,,,,,,,,,,,,,,S,139,triangle,1,0,,,,,,,,,,,,,,,,switch,letter,lettSwt,f,0.5145,Lo,,,,,,1,,,,,,,,high,28,0,28,0,1,,,,,,,,,
294763,2022-11-29_12h01.19.428,vts_reward_expectancy_bt,2022.2.4,Win32,60.3427468,Chrome,1280,800,,,,,0,979,,,,,,,,,,,,,,,,,U,125,hexagon,0,0,,,,,,,,,,,,,,,,repeat,letter,NA,d,0.296,Lo,,,,,,1,,,,,,,,high,29,0,29,0,1,,,,,,,,,
294763,2022-11-29_12h01.19.428,vts_reward_expectancy_bt,2022.2.4,Win32,60.3427468,Chrome,1280,800,,,,,0,979,,,,,,,,,,,,,,,,,D,146,circle,1,1,,,,,,,,,,,,,,,,repeat,letter,lettRpt,d,0.5469,Hi,,,,,,1,,,,,,,,high,30,0,30,0,1,,,,,,,,,
294763,2022-11-29_12h01.19.428,vts_reward_expectancy_bt,2022.2.4,Win32,60.3427468,Chrome,1280,800,,,,,0,979,,,,,,,,,,,,,,,,,B,167,star,0,0,,,,,,,,,,,,,,,,repeat,letter,NA,f,0.4501,Hi,,,,,,1,,,,,,,,high,31,0,31,0,1,,,,,,,,,
294763,2022-11-29_12h01.19.428,vts_reward_expectancy_bt,2022.2.4,Win32,60.3427468,Chrome,1280,800,,,,,0,979,,,,,,,,,,,,,,,,,D,146,circle,1,1,,,,,,,,,,,,,,,,repeat,letter,lettRpt,d,0.746,Hi,,,,,,2,,,,,,space,2.4182,high,0,0,0,0,1,,,,,,,,,
294763,2022-11-29_12h01.19.428,vts_reward_expectancy_bt,2022.2.4,Win32,60.3427468,Chrome,1280,800,,,,,0,979,,,,,,,,,,,,,,,,,W,139,triangle,0,0,,,,,,,,,,,,,,,,repeat,letter,NA,d,0.3666,Hi,,,,,,2,,,,,,,,high,1,0,1,0,1,,,,,,,,,
294763,2022-11-29_12h01.19.428,vts_reward_expectancy_bt,2022.2.4,Win32,60.3427468,Chrome,1280,800,,,,,0,979,,,,,,,,,,,,,,,,,U,181,hexagon,1,1,,,,,,,,,,,,,,,,repeat,letter,lettRpt,f,0.5326,Hi,,,,,,2,,,,,,,,high,2,0,2,0,1,,,,,,,,,
294763,2022-11-29_12h01.19.428,vts_reward_expectancy_bt,2022.2.4,Win32,60.3427468,Chrome,1280,800,,,,,1,980,,,,,,,,,,,,,,,,,B,174,star,1,0,,,,,,,,,,,,,,,,repeat,letter,lettRpt,d,0.3634,Lo,,,,,,2,,,,,,,,high,3,0,3,0,1,,,,,,,,,
294763,2022-11-29_12h01.19.428,vts_reward_expectancy_bt,2022.2.4,Win32,60.3427468,Chrome,1280,800,,,,,0,980,,,,,,,,,,,,,,,,,F,132,circle,0,0,,,,,,,,,,,,,,,,repeat,letter,NA,f,0.4645,Lo,,,,,,2,,,,,,,,high,4,0,4,0,1,,,,,,,,,
294763,2022-11-29_12h01.19.428,vts_reward_expectancy_bt,2022.2.4,Win32,60.3427468,Chrome,1280,800,,,,,10,990,,,,,,,,,,,,,,,,,Y,125,triangle,1,1,,,,,,,,,,,,,,,,repeat,letter,lettRpt,f,0.4544,Lo,,,,,,2,,,,,,,,high,5,0,5,0,1,,,,,,,,,
294763,2022-11-29_12h01.19.428,vts_reward_expectancy_bt,2022.2.4,Win32,60.3427468,Chrome,1280,800,,,,,0,990,,,,,,,,,,,,,,,,,H,160,hexagon,1,0,,,,,,,,,,,,,,,,repeat,letter,lettRpt,d,0.6467,Hi,,,,,,2,,,,,,,,high,6,0,6,0,1,,,,,,,,,
294763,2022-11-29_12h01.19.428,vts_reward_expectancy_bt,2022.2.4,Win32,60.3427468,Chrome,1280,800,,,,,1,991,,,,,,,,,,,,,,,,,S,167,star,1,0,,,,,,,,,,,,,,,,switch,number,numSwt,k,0.5307,Lo,,,,,,2,,,,,,,,high,7,0,7,0,1,,,,,,,,,
294763,2022-11-29_12h01.19.428,vts_reward_expectancy_bt,2022.2.4,Win32,60.3427468,Chrome,1280,800,,,,,1,992,,,,,,,,,,,,,,,,,D,146,star,1,0,,,,,,,,,,,,,,,,repeat,number,numRpt,j,0.4463,Lo,,,,,,2,,,,,,,,high,8,0,8,0,1,,,,,,,,,
294763,2022-11-29_12h01.19.428,vts_reward_expectancy_bt,2022.2.4,Win32,60.3427468,Chrome,1280,800,,,,,0,992,,,,,,,,,,,,,,,,,W,139,circle,1,0,,,,,,,,,,,,,,,,repeat,number,numRpt,j,0.4974,Hi,,,,,,2,,,,,,,,high,9,0,9,0,1,,,,,,,,,
294763,2022-11-29_12h01.19.428,vts_reward_expectancy_bt,2022.2.4,Win32,60.3427468,Chrome,1280,800,,,,,10,1002,,,,,,,,,,,,,,,,,U,181,triangle,1,0,,,,,,,,,,,,,,,,repeat,number,numRpt,k,0.5826,Lo,,,,,,2,,,,,,,,high,10,0,10,0,1,,,,,,,,,
294763,2022-11-29_12h01.19.428,vts_reward_expectancy_bt,2022.2.4,Win32,60.3427468,Chrome,1280,800,,,,,0,1002,,,,,,,,,,,,,,,,,B,174,hexagon,1,0,,,,,,,,,,,,,,,,repeat,number,numRpt,k,0.4973,Hi,,,,,,2,,,,,,,,high,11,0,11,0,1,,,,,,,,,
294763,2022-11-29_12h01.19.428,vts_reward_expectancy_bt,2022.2.4,Win32,60.3427468,Chrome,1280,800,,,,,1,1003,,,,,,,,,,,,,,,,,F,132,star,1,0,,,,,,,,,,,,,,,,repeat,number,numRpt,j,0.5288,Lo,,,,,,2,,,,,,,,high,12,0,12,0,1,,,,,,,,,
294763,2022-11-29_12h01.19.428,vts_reward_expectancy_bt,2022.2.4,Win32,60.3427468,Chrome,1280,800,,,,,0,1003,,,,,,,,,,,,,,,,,Y,125,circle,0,0,,,,,,,,,,,,,,,,repeat,number,NA,k,0.4479,Lo,,,,,,2,,,,,,,,high,13,0,13,0,1,,,,,,,,,
294763,2022-11-29_12h01.19.428,vts_reward_expectancy_bt,2022.2.4,Win32,60.3427468,Chrome,1280,800,,,,,0,1003,,,,,,,,,,,,,,,,,H,160,hexagon,1,1,,,,,,,,,,,,,,,,repeat,number,numRpt,k,0.6984,Hi,,,,,,2,,,,,,,,high,14,0,14,0,1,,,,,,,,,
294763,2022-11-29_12h01.19.428,vts_reward_expectancy_bt,2022.2.4,Win32,60.3427468,Chrome,1280,800,,,,,1,1004,,,,,,,,,,,,,,,,,S,167,triangle,1,0,,,,,,,,,,,,,,,,repeat,number,numRpt,k,0.5453,Lo,,,,,,2,,,,,,,,high,15,0,15,0,1,,,,,,,,,
294763,2022-11-29_12h01.19.428,vts_reward_expectancy_bt,2022.2.4,Win32,60.3427468,Chrome,1280,800,,,,,10,1014,,,,,,,,,,,,,,,,,B,181,star,1,0,,,,,,,,,,,,,,,,switch,letter,lettSwt,d,0.4617,Lo,,,,,,2,,,,,,,,high,16,0,16,0,1,,,,,,,,,
294763,2022-11-29_12h01.19.428,vts_reward_expectancy_bt,2022.2.4,Win32,60.3427468,Chrome,1280,800,,,,,10,1024,,,,,,,,,,,,,,,,,Y,174,triangle,1,0,,,,,,,,,,,,,,,,repeat,letter,lettRpt,f,0.6804,Lo,,,,,,2,,,,,,,,high,17,0,17,0,1,,,,,,,,,
294763,2022-11-29_12h01.19.428,vts_reward_expectancy_bt,2022.2.4,Win32,60.3427468,Chrome,1280,800,,,,,0,1024,,,,,,,,,,,,,,,,,H,160,hexagon,1,0,,,,,,,,,,,,,,,,repeat,letter,lettRpt,d,0.5301,Hi,,,,,,2,,,,,,,,high,18,0,18,0,1,,,,,,,,,
294763,2022-11-29_12h01.19.428,vts_reward_expectancy_bt,2022.2.4,Win32,60.3427468,Chrome,1280,800,,,,,0,1024,,,,,,,,,,,,,,,,,D,139,circle,1,0,,,,,,,,,,,,,,,,repeat,letter,lettRpt,d,0.5139,Hi,,,,,,2,,,,,,,,high,19,0,19,0,1,,,,,,,,,
294763,2022-11-29_12h01.19.428,vts_reward_expectancy_bt,2022.2.4,Win32,60.3427468,Chrome,1280,800,,,,,0,1024,,,,,,,,,,,,,,,,,F,125,circle,1,0,,,,,,,,,,,,,,,,repeat,letter,lettRpt,d,0.5134,Hi,,,,,,2,,,,,,,,high,20,0,20,0,1,,,,,,,,,
294763,2022-11-29_12h01.19.428,vts_reward_expectancy_bt,2022.2.4,Win32,60.3427468,Chrome,1280,800,,,,,0,1024,,,,,,,,,,,,,,,,,W,146,hexagon,1,0,,,,,,,,,,,,,,,,switch,number,numSwt,j,0.5461,Hi,,,,,,2,,,,,,,,high,21,0,21,0,1,,,,,,,,,
294763,2022-11-29_12h01.19.428,vts_reward_expectancy_bt,2022.2.4,Win32,60.3427468,Chrome,1280,800,,,,,1,1025,,,,,,,,,,,,,,,,,U,167,star,1,0,,,,,,,,,,,,,,,,switch,letter,lettSwt,f,0.5631,Lo,,,,,,2,,,,,,,,high,22,0,22,0,1,,,,,,,,,
294763,2022-11-29_12h01.19.428,vts_reward_expectancy_bt,2022.2.4,Win32,60.3427468,Chrome,1280,800,,,,,1,1026,,,,,,,,,,,,,,,,,S,132,triangle,1,0,,,,,,,,,,,,,,,,repeat,letter,lettRpt,f,0.4279,Lo,,,,,,2,,,,,,,,high,23,0,23,0,1,,,,,,,,,
294763,2022-11-29_12h01.19.428,vts_reward_expectancy_bt,2022.2.4,Win32,60.3427468,Chrome,1280,800,,,,,1,1027,,,,,,,,,,,,,,,,,F,125,triangle,1,0,,,,,,,,,,,,,,,,switch,number,numSwt,j,0.3701,Lo,,,,,,2,,,,,,,,high,24,0,24,0,1,,,,,,,,,
294763,2022-11-29_12h01.19.428,vts_reward_expectancy_bt,2022.2.4,Win32,60.3427468,Chrome,1280,800,,,,,0,1027,,,,,,,,,,,,,,,,,Y,160,circle,1,0,,,,,,,,,,,,,,,,repeat,number,numRpt,k,0.464,Hi,,,,,,2,,,,,,,,high,25,0,25,0,1,,,,,,,,,
294763,2022-11-29_12h01.19.428,vts_reward_expectancy_bt,2022.2.4,Win32,60.3427468,Chrome,1280,800,,,,,1,1028,,,,,,,,,,,,,,,,,W,167,star,1,0,,,,,,,,,,,,,,,,repeat,number,numRpt,k,0.4661,Lo,,,,,,2,,,,,,,,high,26,0,26,0,1,,,,,,,,,
294763,2022-11-29_12h01.19.428,vts_reward_expectancy_bt,2022.2.4,Win32,60.3427468,Chrome,1280,800,,,,,10,1038,,,,,,,,,,,,,,,,,U,139,hexagon,1,0,,,,,,,,,,,,,,,,repeat,number,numRpt,j,0.4137,Hi,,,,,,2,,,,,,,,high,27,0,27,0,1,,,,,,,,,
294763,2022-11-29_12h01.19.428,vts_reward_expectancy_bt,2022.2.4,Win32,60.3427468,Chrome,1280,800,,,,,1,1039,,,,,,,,,,,,,,,,,H,132,star,1,0,,,,,,,,,,,,,,,,switch,letter,lettSwt,d,0.4156,Lo,,,,,,2,,,,,,,,high,28,0,28,0,1,,,,,,,,,
294763,2022-11-29_12h01.19.428,vts_reward_expectancy_bt,2022.2.4,Win32,60.3427468,Chrome,1280,800,,,,,10,1049,,,,,,,,,,,,,,,,,B,146,triangle,1,0,,,,,,,,,,,,,,,,repeat,letter,lettRpt,d,0.4026,Lo,,,,,,2,,,,,,,,high,29,0,29,0,1,,,,,,,,,
294763,2022-11-29_12h01.19.428,vts_reward_expectancy_bt,2022.2.4,Win32,60.3427468,Chrome,1280,800,,,,,0,1049,,,,,,,,,,,,,,,,,D,181,circle,1,0,,,,,,,,,,,,,,,,repeat,letter,lettRpt,d,0.5134,Hi,,,,,,2,,,,,,,,high,30,0,30,0,1,,,,,,,,,
294763,2022-11-29_12h01.19.428,vts_reward_expectancy_bt,2022.2.4,Win32,60.3427468,Chrome,1280,800,,,,,0,1049,,,,,,,,,,,,,,,,,S,174,hexagon,1,0,,,,,,,,,,,,,,,,repeat,letter,lettRpt,f,0.6251,Hi,,,,,,2,,,,,,,,high,31,0,31,0,1,,,,,,,,,
294763,2022-11-29_12h01.19.428,vts_reward_expectancy_bt,2022.2.4,Win32,60.3427468,Chrome,1280,800,,,,,1,1050,,,,,,,,,,,,,,,,,W,160,triangle,1,0,,,,,,,,,,,,,,,,repeat,letter,lettRpt,f,0.6956,Lo,,,,,,3,,,,,,space,1.5372,high,0,0,0,0,1,,,,,,,,,
294763,2022-11-29_12h01.19.428,vts_reward_expectancy_bt,2022.2.4,Win32,60.3427468,Chrome,1280,800,,,,,0,1050,,,,,,,,,,,,,,,,,F,139,hexagon,0,0,,,,,,,,,,,,,,,,repeat,letter,NA,f,0.5125,Lo,,,,,,3,,,,,,,,high,1,0,1,0,1,,,,,,,,,
294763,2022-11-29_12h01.19.428,vts_reward_expectancy_bt,2022.2.4,Win32,60.3427468,Chrome,1280,800,,,,,10,1060,,,,,,,,,,,,,,,,,Y,132,circle,1,1,,,,,,,,,,,,,,,,repeat,letter,lettRpt,f,0.4334,Hi,,,,,,3,,,,,,,,high,2,0,2,0,1,,,,,,,,,
294763,2022-11-29_12h01.19.428,vts_reward_expectancy_bt,2022.2.4,Win32,60.3427468,Chrome,1280,800,,,,,1,1061,,,,,,,,,,,,,,,,,S,125,star,1,0,,,,,,,,,,,,,,,,switch,number,numSwt,j,0.3306,Lo,,,,,,3,,,,,,,,high,3,0,3,0,1,,,,,,,,,
294763,2022-11-29_12h01.19.428,vts_reward_expectancy_bt,2022.2.4,Win32,60.3427468,Chrome,1280,800,,,,,1,1062,,,,,,,,,,,,,,,,,H,174,triangle,1,0,,,,,,,,,,,,,,,,repeat,number,numRpt,k,0.3314,Lo,,,,,,3,,,,,,,,high,4,0,4,0,1,,,,,,,,,
294763,2022-11-29_12h01.19.428,vts_reward_expectancy_bt,2022.2.4,Win32,60.3427468,Chrome,1280,800,,,,,0,1062,,,,,,,,,,,,,,,,,B,146,hexagon,1,0,,,,,,,,,,,,,,,,repeat,number,numRpt,j,0.5144,Hi,,,,,,3,,,,,,,,high,5,0,5,0,1,,,,,,,,,
294763,2022-11-29_12h01.19.428,vts_reward_expectancy_bt,2022.2.4,Win32,60.3427468,Chrome,1280,800,,,,,10,1072,,,,,,,,,,,,,,,,,D,167,circle,1,0,,,,,,,,,,,,,,,,repeat,number,numRpt,k,0.4494,Hi,,,,,,3,,,,,,,,high,6,0,6,0,1,,,,,,,,,
294763,2022-11-29_12h01.19.428,vts_reward_expectancy_bt,2022.2.4,Win32,60.3427468,Chrome,1280,800,,,,,1,1073,,,,,,,,,,,,,,,,,U,181,star,1,0,,,,,,,,,,,,,,,,switch,letter,lettSwt,f,0.4205,Lo,,,,,,3,,,,,,,,high,7,0,7,0,1,,,,,,,,,
294763,2022-11-29_12h01.19.428,vts_reward_expectancy_bt,2022.2.4,Win32,60.3427468,Chrome,1280,800,,,,,0,1073,,,,,,,,,,,,,,,,,W,160,star,0,0,,,,,,,,,,,,,,,,repeat,letter,NA,d,0.4814,Lo,,,,,,3,,,,,,,,high,8,0,8,0,1,,,,,,,,,
294763,2022-11-29_12h01.19.428,vts_reward_expectancy_bt,2022.2.4,Win32,60.3427468,Chrome,1280,800,,,,,1,1074,,,,,,,,,,,,,,,,,F,139,hexagon,1,1,,,,,,,,,,,,,,,,repeat,letter,lettRpt,d,0.3472,Hi,,,,,,3,,,,,,,,high,9,0,9,0,1,,,,,,,,,
294763,2022-11-29_12h01.19.428,vts_reward_expectancy_bt,2022.2.4,Win32,60.3427468,Chrome,1280,800,,,,,10,1084,,,,,,,,,,,,,,,,,Y,132,circle,1,0,,,,,,,,,,,,,,,,repeat,letter,lettRpt,f,0.3339,Hi,,,,,,3,,,,,,,,high,10,0,10,0,1,,,,,,,,,
294763,2022-11-29_12h01.19.428,vts_reward_expectancy_bt,2022.2.4,Win32,60.3427468,Chrome,1280,800,,,,,10,1094,,,,,,,,,,,,,,,,,S,125,triangle,1,0,,,,,,,,,,,,,,,,switch,number,numSwt,j,0.3973,Lo,,,,,,3,,,,,,,,high,11,0,11,0,1,,,,,,,,,
294763,2022-11-29_12h01.19.428,vts_reward_expectancy_bt,2022.2.4,Win32,60.3427468,Chrome,1280,800,,,,,10,1104,,,,,,,,,,,,,,,,,H,174,circle,1,0,,,,,,,,,,,,,,,,repeat,number,numRpt,k,0.4192,Hi,,,,,,3,,,,,,,,high,12,0,12,0,1,,,,,,,,,
294763,2022-11-29_12h01.19.428,vts_reward_expectancy_bt,2022.2.4,Win32,60.3427468,Chrome,1280,800,,,,,1,1105,,,,,,,,,,,,,,,,,B,146,star,1,0,,,,,,,,,,,,,,,,repeat,number,numRpt,j,0.5983,Lo,,,,,,3,,,,,,,,high,13,0,13,0,1,,,,,,,,,
294763,2022-11-29_12h01.19.428,vts_reward_expectancy_bt,2022.2.4,Win32,60.3427468,Chrome,1280,800,,,,,1,1106,,,,,,,,,,,,,,,,,D,167,triangle,1,0,,,,,,,,,,,,,,,,repeat,number,numRpt,k,0.3674,Lo,,,,,,3,,,,,,,,high,14,0,14,0,1,,,,,,,,,
294763,2022-11-29_12h01.19.428,vts_reward_expectancy_bt,2022.2.4,Win32,60.3427468,Chrome,1280,800,,,,,0,1106,,,,,,,,,,,,,,,,,U,181,hexagon,0,0,,,,,,,,,,,,,,,,switch,letter,NA,d,0.3643,Lo,,,,,,3,,,,,,,,high,15,0,15,0,1,,,,,,,,,
294763,2022-11-29_12h01.19.428,vts_reward_expectancy_bt,2022.2.4,Win32,60.3427468,Chrome,1280,800,,,,,0,1106,,,,,,,,,,,,,,,,,H,160,circle,1,1,,,,,,,,,,,,,,,,repeat,letter,lettRpt,d,0.6043,Hi,,,,,,3,,,,,,,,high,16,0,16,0,1,,,,,,,,,
294763,2022-11-29_12h01.19.428,vts_reward_expectancy_bt,2022.2.4,Win32,60.3427468,Chrome,1280,800,,,,,0,1106,,,,,,,,,,,,,,,,,W,174,triangle,0,0,,,,,,,,,,,,,,,,repeat,letter,NA,d,0.2646,Hi,,,,,,3,,,,,,,,high,17,0,17,0,1,,,,,,,,,
294763,2022-11-29_12h01.19.428,vts_reward_expectancy_bt,2022.2.4,Win32,60.3427468,Chrome,1280,800,,,,,1,1107,,,,,,,,,,,,,,,,,S,125,hexagon,1,1,,,,,,,,,,,,,,,,repeat,letter,lettRpt,f,0.4866,Hi,,,,,,3,,,,,,,,high,18,0,18,0,1,,,,,,,,,
294763,2022-11-29_12h01.19.428,vts_reward_expectancy_bt,2022.2.4,Win32,60.3427468,Chrome,1280,800,,,,,1,1108,,,,,,,,,,,,,,,,,D,146,star,1,0,,,,,,,,,,,,,,,,repeat,letter,lettRpt,d,0.3801,Lo,,,,,,3,,,,,,,,high,19,0,19,0,1,,,,,,,,,
294763,2022-11-29_12h01.19.428,vts_reward_expectancy_bt,2022.2.4,Win32,60.3427468,Chrome,1280,800,,,,,0,1108,,,,,,,,,,,,,,,,,Y,139,triangle,0,0,,,,,,,,,,,,,,,,repeat,letter,NA,d,0.4473,Lo,,,,,,3,,,,,,,,high,20,0,20,0,1,,,,,,,,,
294763,2022-11-29_12h01.19.428,vts_reward_expectancy_bt,2022.2.4,Win32,60.3427468,Chrome,1280,800,,,,,1,1109,,,,,,,,,,,,,,,,,U,167,star,1,1,,,,,,,,,,,,,,,,repeat,letter,lettRpt,f,0.464,Lo,,,,,,3,,,,,,,,high,21,0,21,0,1,,,,,,,,,
294763,2022-11-29_12h01.19.428,vts_reward_expectancy_bt,2022.2.4,Win32,60.3427468,Chrome,1280,800,,,,,10,1119,,,,,,,,,,,,,,,,,B,181,hexagon,1,0,,,,,,,,,,,,,,,,repeat,letter,lettRpt,d,0.4968,Hi,,,,,,3,,,,,,,,high,22,0,22,0,1,,,,,,,,,
294763,2022-11-29_12h01.19.428,vts_reward_expectancy_bt,2022.2.4,Win32,60.3427468,Chrome,1280,800,,,,,0,1119,,,,,,,,,,,,,,,,,F,132,circle,1,0,,,,,,,,,,,,,,,,switch,number,numSwt,j,0.5439,Hi,,,,,,3,,,,,,,,high,23,0,23,0,1,,,,,,,,,
294763,2022-11-29_12h01.19.428,vts_reward_expectancy_bt,2022.2.4,Win32,60.3427468,Chrome,1280,800,,,,,1,1120,,,,,,,,,,,,,,,,,F,167,star,1,0,,,,,,,,,,,,,,,,repeat,number,numRpt,k,0.6841,Lo,,,,,,3,,,,,,,,high,24,0,24,0,1,,,,,,,,,
294763,2022-11-29_12h01.19.428,vts_reward_expectancy_bt,2022.2.4,Win32,60.3427468,Chrome,1280,800,,,,,1,1121,,,,,,,,,,,,,,,,,B,146,triangle,1,0,,,,,,,,,,,,,,,,repeat,number,numRpt,j,0.465,Lo,,,,,,3,,,,,,,,high,25,0,25,0,1,,,,,,,,,
294763,2022-11-29_12h01.19.428,vts_reward_expectancy_bt,2022.2.4,Win32,60.3427468,Chrome,1280,800,,,,,10,1131,,,,,,,,,,,,,,,,,H,181,hexagon,1,0,,,,,,,,,,,,,,,,repeat,number,numRpt,k,0.3797,Hi,,,,,,3,,,,,,,,high,26,0,26,0,1,,,,,,,,,
294763,2022-11-29_12h01.19.428,vts_reward_expectancy_bt,2022.2.4,Win32,60.3427468,Chrome,1280,800,,,,,10,1141,,,,,,,,,,,,,,,,,U,132,circle,1,0,,,,,,,,,,,,,,,,repeat,number,numRpt,j,0.445,Hi,,,,,,3,,,,,,,,high,27,0,27,0,1,,,,,,,,,
294763,2022-11-29_12h01.19.428,vts_reward_expectancy_bt,2022.2.4,Win32,60.3427468,Chrome,1280,800,,,,,0,1141,,,,,,,,,,,,,,,,,W,125,triangle,0,0,,,,,,,,,,,,,,,,repeat,number,NA,k,0.379,Hi,,,,,,3,,,,,,,,high,28,0,28,0,1,,,,,,,,,
294763,2022-11-29_12h01.19.428,vts_reward_expectancy_bt,2022.2.4,Win32,60.3427468,Chrome,1280,800,,,,,1,1142,,,,,,,,,,,,,,,,,Y,139,star,1,1,,,,,,,,,,,,,,,,switch,letter,lettSwt,f,0.5962,Lo,,,,,,3,,,,,,,,high,29,0,29,0,1,,,,,,,,,
294763,2022-11-29_12h01.19.428,vts_reward_expectancy_bt,2022.2.4,Win32,60.3427468,Chrome,1280,800,,,,,0,1142,,,,,,,,,,,,,,,,,S,174,circle,1,0,,,,,,,,,,,,,,,,repeat,letter,lettRpt,f,0.6651,Hi,,,,,,3,,,,,,,,high,30,0,30,0,1,,,,,,,,,
294763,2022-11-29_12h01.19.428,vts_reward_expectancy_bt,2022.2.4,Win32,60.3427468,Chrome,1280,800,,,,,0,1142,,,,,,,,,,,,,,,,,D,160,hexagon,1,0,,,,,,,,,,,,,,,,repeat,letter,lettRpt,d,0.5321,Hi,,,,,,3,,,,,,,,high,31,0,31,0,1,,,,,,,,,
294763,2022-11-29_12h01.19.428,vts_reward_expectancy_bt,2022.2.4,Win32,60.3427468,Chrome,1280,800,,,,,0,1142,,,,,,,,,,,,,,,,,W,125,circle,1,0,,,,,,,,,,,,,,,,repeat,letter,lettRpt,f,0.714,Hi,,,,,,4,,,,,,space,1.0165,high,0,0,0,0,1,,,,,,,,,
294763,2022-11-29_12h01.19.428,vts_reward_expectancy_bt,2022.2.4,Win32,60.3427468,Chrome,1280,800,,,,,0,1142,,,,,,,,,,,,,,,,,Y,181,hexagon,1,0,,,,,,,,,,,,,,,,repeat,letter,lettRpt,f,0.4449,Hi,,,,,,4,,,,,,,,high,1,0,1,0,1,,,,,,,,,
294763,2022-11-29_12h01.19.428,vts_reward_expectancy_bt,2022.2.4,Win32,60.3427468,Chrome,1280,800,,,,,1,1143,,,,,,,,,,,,,,,,,D,167,star,1,0,,,,,,,,,,,,,,,,repeat,letter,lettRpt,d,0.2329,Lo,,,,,,4,,,,,,,,high,2,0,2,0,1,,,,,,,,,
294763,2022-11-29_12h01.19.428,vts_reward_expectancy_bt,2022.2.4,Win32,60.3427468,Chrome,1280,800,,,,,0,1143,,,,,,,,,,,,,,,,,U,174,triangle,0,0,,,,,,,,,,,,,,,,switch,number,NA,j,0.5625,Lo,,,,,,4,,,,,,,,high,3,0,3,0,1,,,,,,,,,
294763,2022-11-29_12h01.19.428,vts_reward_expectancy_bt,2022.2.4,Win32,60.3427468,Chrome,1280,800,,,,,10,1153,,,,,,,,,,,,,,,,,H,132,circle,1,1,,,,,,,,,,,,,,,,repeat,number,numRpt,j,0.3958,Hi,,,,,,4,,,,,,,,high,4,0,4,0,1,,,,,,,,,
294763,2022-11-29_12h01.19.428,vts_reward_expectancy_bt,2022.2.4,Win32,60.3427468,Chrome,1280,800,,,,,0,1153,,,,,,,,,,,,,,,,,S,160,hexagon,1,0,,,,,,,,,,,,,,,,repeat,number,numRpt,k,0.5678,Hi,,,,,,4,,,,,,,,high,5,0,5,0,1,,,,,,,,,
294763,2022-11-29_12h01.19.428,vts_reward_expectancy_bt,2022.2.4,Win32,60.3427468,Chrome,1280,800,,,,,0,1153,,,,,,,,,,,,,,,,,F,146,star,0,0,,,,,,,,,,,,,,,,switch,letter,NA,f,0.5111,Hi,,,,,,4,,,,,,,,high,6,0,6,0,1,,,,,,,,,
294763,2022-11-29_12h01.19.428,vts_reward_expectancy_bt,2022.2.4,Win32,60.3427468,Chrome,1280,800,,,,,1,1154,,,,,,,,,,,,,,,,,B,139,triangle,1,1,,,,,,,,,,,,,,,,repeat,letter,lettRpt,d,0.4353,Lo,,,,,,4,,,,,,,,high,7,0,7,0,1,,,,,,,,,
294763,2022-11-29_12h01.19.428,vts_reward_expectancy_bt,2022.2.4,Win32,60.3427468,Chrome,1280,800,,,,,0,1154,,,,,,,,,,,,,,,,,W,125,circle,0,0,,,,,,,,,,,,,,,,repeat,letter,NA,d,0.4021,Lo,,,,,,4,,,,,,,,high,8,0,8,0,1,,,,,,,,,
294763,2022-11-29_12h01.19.428,vts_reward_expectancy_bt,2022.2.4,Win32,60.3427468,Chrome,1280,800,,,,,10,1164,,,,,,,,,,,,,,,,,Y,181,triangle,1,1,,,,,,,,,,,,,,,,repeat,letter,lettRpt,f,0.4799,Lo,,,,,,4,,,,,,,,high,9,0,9,0,1,,,,,,,,,
294763,2022-11-29_12h01.19.428,vts_reward_expectancy_bt,2022.2.4,Win32,60.3427468,Chrome,1280,800,,,,,0,1164,,,,,,,,,,,,,,,,,D,167,hexagon,1,0,,,,,,,,,,,,,,,,switch,number,numSwt,k,0.4187,Hi,,,,,,4,,,,,,,,high,10,0,10,0,1,,,,,,,,,
294763,2022-11-29_12h01.19.428,vts_reward_expectancy_bt,2022.2.4,Win32,60.3427468,Chrome,1280,800,,,,,1,1165,,,,,,,,,,,,,,,,,U,174,star,1,0,,,,,,,,,,,,,,,,repeat,number,numRpt,k,0.4611,Lo,,,,,,4,,,,,,,,high,11,0,11,0,1,,,,,,,,,
294763,2022-11-29_12h01.19.428,vts_reward_expectancy_bt,2022.2.4,Win32,60.3427468,Chrome,1280,800,,,,,1,1166,,,,,,,,,,,,,,,,,H,132,star,1,0,,,,,,,,,,,,,,,,repeat,number,numRpt,j,0.5726,Lo,,,,,,4,,,,,,,,high,12,0,12,0,1,,,,,,,,,
294763,2022-11-29_12h01.19.428,vts_reward_expectancy_bt,2022.2.4,Win32,60.3427468,Chrome,1280,800,,,,,0,1166,,,,,,,,,,,,,,,,,S,160,circle,1,0,,,,,,,,,,,,,,,,repeat,number,numRpt,k,0.4371,Hi,,,,,,4,,,,,,,,high,13,0,13,0,1,,,,,,,,,
294763,2022-11-29_12h01.19.428,vts_reward_expectancy_bt,2022.2.4,Win32,60.3427468,Chrome,1280,800,,,,,0,1166,,,,,,,,,,,,,,,,,F,146,hexagon,1,0,,,,,,,,,,,,,,,,switch,letter,lettSwt,d,0.4305,Hi,,,,,,4,,,,,,,,high,14,0,14,0,1,,,,,,,,,
294763,2022-11-29_12h01.19.428,vts_reward_expectancy_bt,2022.2.4,Win32,60.3427468,Chrome,1280,800,,,,,1,1167,,,,,,,,,,,,,,,,,B,139,triangle,1,0,,,,,,,,,,,,,,,,repeat,letter,lettRpt,d,0.2305,Lo,,,,,,4,,,,,,,,high,15,0,15,0,1,,,,,,,,,
294763,2022-11-29_12h01.19.428,vts_reward_expectancy_bt,2022.2.4,Win32,60.3427468,Chrome,1280,800,,,,,10,1177,,,,,,,,,,,,,,,,,S,146,hexagon,1,0,,,,,,,,,,,,,,,,repeat,letter,lettRpt,f,0.3969,Hi,,,,,,4,,,,,,,,high,16,0,16,0,1,,,,,,,,,
294763,2022-11-29_12h01.19.428,vts_reward_expectancy_bt,2022.2.4,Win32,60.3427468,Chrome,1280,800,,,,,1,1178,,,,,,,,,,,,,,,,,U,174,star,1,0,,,,,,,,,,,,,,,,repeat,letter,lettRpt,f,0.364,Lo,,,,,,4,,,,,,,,high,17,0,17,0,1,,,,,,,,,
294763,2022-11-29_12h01.19.428,vts_reward_expectancy_bt,2022.2.4,Win32,60.3427468,Chrome,1280,800,,,,,1,1179,,,,,,,,,,,,,,,,,Y,181,triangle,1,0,,,,,,,,,,,,,,,,switch,number,numSwt,k,0.383,Lo,,,,,,4,,,,,,,,high,18,0,18,0,1,,,,,,,,,
294763,2022-11-29_12h01.19.428,vts_reward_expectancy_bt,2022.2.4,Win32,60.3427468,Chrome,1280,800,,,,,0,1179,,,,,,,,,,,,,,,,,B,125,circle,1,0,,,,,,,,,,,,,,,,repeat,number,numRpt,j,0.4988,Hi,,,,,,4,,,,,,,,high,19,0,19,0,1,,,,,,,,,
294763,2022-11-29_12h01.19.428,vts_reward_expectancy_bt,2022.2.4,Win32,60.3427468,Chrome,1280,800,,,,,1,1180,,,,,,,,,,,,,,,,,D,167,hexagon,1,0,,,,,,,,,,,,,,,,repeat,number,numRpt,k,0.3977,Hi,,,,,,4,,,,,,,,high,20,0,20,0,1,,,,,,,,,
294763,2022-11-29_12h01.19.428,vts_reward_expectancy_bt,2022.2.4,Win32,60.3427468,Chrome,1280,800,,,,,1,1181,,,,,,,,,,,,,,,,,W,139,triangle,1,0,,,,,,,,,,,,,,,,switch,letter,lettSwt,f,0.4038,Lo,,,,,,4,,,,,,,,high,21,0,21,0,1,,,,,,,,,
294763,2022-11-29_12h01.19.428,vts_reward_expectancy_bt,2022.2.4,Win32,60.3427468,Chrome,1280,800,,,,,10,1191,,,,,,,,,,,,,,,,,H,132,star,1,0,,,,,,,,,,,,,,,,repeat,letter,lettRpt,d,0.3807,Lo,,,,,,4,,,,,,,,high,22,0,22,0,1,,,,,,,,,
294763,2022-11-29_12h01.19.428,vts_reward_expectancy_bt,2022.2.4,Win32,60.3427468,Chrome,1280,800,,,,,0,1191,,,,,,,,,,,,,,,,,F,160,circle,0,0,,,,,,,,,,,,,,,,repeat,letter,NA,f,0.5128,Lo,,,,,,4,,,,,,,,high,23,0,23,0,1,,,,,,,,,
294763,2022-11-29_12h01.19.428,vts_reward_expectancy_bt,2022.2.4,Win32,60.3427468,Chrome,1280,800,,,,,0,1191,,,,,,,,,,,,,,,,,S,139,hexagon,0,1,,,,,,,,,,,,,,,,repeat,letter,NA,d,0.41,Lo,,,,,,4,,,,,,,,high,24,0,24,0,1,,,,,,,,,
294763,2022-11-29_12h01.19.428,vts_reward_expectancy_bt,2022.2.4,Win32,60.3427468,Chrome,1280,800,,,,,1,1192,,,,,,,,,,,,,,,,,F,160,triangle,1,1,,,,,,,,,,,,,,,,repeat,letter,lettRpt,d,0.488,Lo,,,,,,4,,,,,,,,high,25,0,25,0,1,,,,,,,,,
294763,2022-11-29_12h01.19.428,vts_reward_expectancy_bt,2022.2.4,Win32,60.3427468,Chrome,1280,800,,,,,10,1202,,,,,,,,,,,,,,,,,D,167,star,1,0,,,,,,,,,,,,,,,,switch,number,numSwt,k,0.4645,Lo,,,,,,4,,,,,,,,high,26,0,26,0,1,,,,,,,,,
294763,2022-11-29_12h01.19.428,vts_reward_expectancy_bt,2022.2.4,Win32,60.3427468,Chrome,1280,800,,,,,0,1202,,,,,,,,,,,,,,,,,W,181,circle,1,0,,,,,,,,,,,,,,,,repeat,number,numRpt,k,0.4966,Hi,,,,,,4,,,,,,,,high,27,0,27,0,1,,,,,,,,,
294763,2022-11-29_12h01.19.428,vts_reward_expectancy_bt,2022.2.4,Win32,60.3427468,Chrome,1280,800,,,,,1,1203,,,,,,,,,,,,,,,,,U,174,star,1,0,,,,,,,,,,,,,,,,switch,letter,lettSwt,f,0.6132,Lo,,,,,,4,,,,,,,,high,28,0,28,0,1,,,,,,,,,
294763,2022-11-29_12h01.19.428,vts_reward_expectancy_bt,2022.2.4,Win32,60.3427468,Chrome,1280,800,,,,,1,1204,,,,,,,,,,,,,,,,,Y,146,triangle,1,0,,,,,,,,,,,,,,,,repeat,letter,lettRpt,f,0.5132,Lo,,,,,,4,,,,,,,,high,29,0,29,0,1,,,,,,,,,
294763,2022-11-29_12h01.19.428,vts_reward_expectancy_bt,2022.2.4,Win32,60.3427468,Chrome,1280,800,,,,,0,1204,,,,,,,,,,,,,,,,,H,125,hexagon,1,0,,,,,,,,,,,,,,,,repeat,letter,lettRpt,d,0.5294,Hi,,,,,,4,,,,,,,,high,30,0,30,0,1,,,,,,,,,
294763,2022-11-29_12h01.19.428,vts_reward_expectancy_bt,2022.2.4,Win32,60.3427468,Chrome,1280,800,,,,,0,1204,,,,,,,,,,,,,,,,,B,132,circle,1,0,,,,,,,,,,,,,,,,repeat,letter,lettRpt,d,0.5317,Hi,,,,,,4,,,,,,,,high,31,0,31,0,1,,,,,,,,,
294763,2022-11-29_12h01.19.428,vts_reward_expectancy_bt,2022.2.4,Win32,60.3427468,Chrome,1280,800,,,,,10,1214,,,,,,,,,,,,,,,,,B,181,triangle,1,0,,,,,,,,,,,,,,,,repeat,letter,lettRpt,d,0.5685,Lo,,,,,,5,,,,,,space,0.9883,high,0,0,0,0,1,,,,,,,,,
294763,2022-11-29_12h01.19.428,vts_reward_expectancy_bt,2022.2.4,Win32,60.3427468,Chrome,1280,800,,,,,1,1215,,,,,,,,,,,,,,,,,Y,132,star,1,0,,,,,,,,,,,,,,,,repeat,letter,lettRpt,f,0.3146,Lo,,,,,,5,,,,,,,,high,1,0,1,0,1,,,,,,,,,
294763,2022-11-29_12h01.19.428,vts_reward_expectancy_bt,2022.2.4,Win32,60.3427468,Chrome,1280,800,,,,,0,1215,,,,,,,,,,,,,,,,,S,139,circle,0,0,,,,,,,,,,,,,,,,repeat,letter,NA,d,0.0127,Lo,,,,,,5,,,,,,,,high,2,0,2,0,1,,,,,,,,,
294763,2022-11-29_12h01.19.428,vts_reward_expectancy_bt,2022.2.4,Win32,60.3427468,Chrome,1280,800,,,,,0,1215,,,,,,,,,,,,,,,,,U,174,hexagon,0,1,,,,,,,,,,,,,,,,repeat,letter,NA,d,0.2492,Lo,,,,,,5,,,,,,,,high,3,0,3,0,1,,,,,,,,,
294763,2022-11-29_12h01.19.428,vts_reward_expectancy_bt,2022.2.4,Win32,60.3427468,Chrome,1280,800,,,,,0,1215,,,,,,,,,,,,,,,,,W,160,triangle,0,1,,,,,,,,,,,,,,,,repeat,letter,NA,d,0.228,Lo,,,,,,5,,,,,,,,high,4,0,4,0,1,,,,,,,,,
294763,2022-11-29_12h01.19.428,vts_reward_expectancy_bt,2022.2.4,Win32,60.3427468,Chrome,1280,800,,,,,1,1216,,,,,,,,,,,,,,,,,D,167,star,1,1,,,,,,,,,,,,,,,,switch,number,numSwt,k,0.4197,Lo,,,,,,5,,,,,,,,high,5,0,5,0,1,,,,,,,,,
294763,2022-11-29_12h01.19.428,vts_reward_expectancy_bt,2022.2.4,Win32,60.3427468,Chrome,1280,800,,,,,0,1216,,,,,,,,,,,,,,,,,H,146,circle,0,0,,,,,,,,,,,,,,,,repeat,number,NA,k,0.3627,Lo,,,,,,5,,,,,,,,high,6,0,6,0,1,,,,,,,,,
294763,2022-11-29_12h01.19.428,vts_reward_expectancy_bt,2022.2.4,Win32,60.3427468,Chrome,1280,800,,,,,0,1216,,,,,,,,,,,,,,,,,F,125,hexagon,1,1,,,,,,,,,,,,,,,,repeat,number,numRpt,j,0.5299,Hi,,,,,,5,,,,,,,,high,7,0,7,0,1,,,,,,,,,
294763,2022-11-29_12h01.19.428,vts_reward_expectancy_bt,2022.2.4,Win32,60.3427468,Chrome,1280,800,,,,,1,1217,,,,,,,,,,,,,,,,,B,181,star,1,0,,,,,,,,,,,,,,,,repeat,number,numRpt,k,0.3632,Lo,,,,,,5,,,,,,,,high,8,0,8,0,1,,,,,,,,,
294763,2022-11-29_12h01.19.428,vts_reward_expectancy_bt,2022.2.4,Win32,60.3427468,Chrome,1280,800,,,,,0,1217,,,,,,,,,,,,,,,,,Y,132,hexagon,0,0,,,,,,,,,,,,,,,,repeat,number,NA,k,0.4359,Lo,,,,,,5,,,,,,,,high,9,0,9,0,1,,,,,,,,,
294763,2022-11-29_12h01.19.428,vts_reward_expectancy_bt,2022.2.4,Win32,60.3427468,Chrome,1280,800,,,,,10,1227,,,,,,,,,,,,,,,,,S,139,circle,1,1,,,,,,,,,,,,,,,,repeat,number,numRpt,j,0.3892,Hi,,,,,,5,,,,,,,,high,10,0,10,0,1,,,,,,,,,
294763,2022-11-29_12h01.19.428,vts_reward_expectancy_bt,2022.2.4,Win32,60.3427468,Chrome,1280,800,,,,,10,1237,,,,,,,,,,,,,,,,,U,174,triangle,1,0,,,,,,,,,,,,,,,,switch,letter,lettSwt,f,0.4821,Lo,,,,,,5,,,,,,,,high,11,0,11,0,1,,,,,,,,,
294763,2022-11-29_12h01.19.428,vts_reward_expectancy_bt,2022.2.4,Win32,60.3427468,Chrome,1280,800,,,,,0,1237,,,,,,,,,,,,,,,,,W,160,triangle,0,0,,,,,,,,,,,,,,,,repeat,letter,NA,d,0.2463,Lo,,,,,,5,,,,,,,,high,12,0,12,0,1,,,,,,,,,
294763,2022-11-29_12h01.19.428,vts_reward_expectancy_bt,2022.2.4,Win32,60.3427468,Chrome,1280,800,,,,,10,1247,,,,,,,,,,,,,,,,,D,167,circle,1,1,,,,,,,,,,,,,,,,repeat,letter,lettRpt,d,0.2656,Hi,,,,,,5,,,,,,,,high,13,0,13,0,1,,,,,,,,,
294763,2022-11-29_12h01.19.428,vts_reward_expectancy_bt,2022.2.4,Win32,60.3427468,Chrome,1280,800,,,,,0,1247,,,,,,,,,,,,,,,,,H,146,hexagon,0,0,,,,,,,,,,,,,,,,repeat,letter,NA,f,0.3198,Hi,,,,,,5,,,,,,,,high,14,0,14,0,1,,,,,,,,,
294763,2022-11-29_12h01.19.428,vts_reward_expectancy_bt,2022.2.4,Win32,60.3427468,Chrome,1280,800,,,,,1,1248,,,,,,,,,,,,,,,,,F,125,star,1,1,,,,,,,,,,,,,,,,repeat,letter,lettRpt,d,0.4786,Lo,,,,,,5,,,,,,,,high,15,0,15,0,1,,,,,,,,,
294763,2022-11-29_12h01.19.428,vts_reward_expectancy_bt,2022.2.4,Win32,60.3427468,Chrome,1280,800,,,,,10,1258,,,,,,,,,,,,,,,,,Y,139,triangle,1,0,,,,,,,,,,,,,,,,repeat,letter,lettRpt,f,0.3497,Lo,,,,,,5,,,,,,,,high,16,0,16,0,1,,,,,,,,,
294763,2022-11-29_12h01.19.428,vts_reward_expectancy_bt,2022.2.4,Win32,60.3427468,Chrome,1280,800,,,,,10,1268,,,,,,,,,,,,,,,,,S,167,star,1,0,,,,,,,,,,,,,,,,switch,number,numSwt,k,0.5287,Lo,,,,,,5,,,,,,,,high,17,0,17,0,1,,,,,,,,,
294763,2022-11-29_12h01.19.428,vts_reward_expectancy_bt,2022.2.4,Win32,60.3427468,Chrome,1280,800,,,,,0,1268,,,,,,,,,,,,,,,,,D,174,hexagon,1,0,,,,,,,,,,,,,,,,repeat,number,numRpt,k,0.5149,Hi,,,,,,5,,,,,,,,high,18,0,18,0,1,,,,,,,,,
294763,2022-11-29_12h01.19.428,vts_reward_expectancy_bt,2022.2.4,Win32,60.3427468,Chrome,1280,800,,,,,10,1278,,,,,,,,,,,,,,,,,U,146,circle,1,0,,,,,,,,,,,,,,,,repeat,number,numRpt,j,0.3659,Hi,,,,,,5,,,,,,,,high,19,0,19,0,1,,,,,,,,,
294763,2022-11-29_12h01.19.428,vts_reward_expectancy_bt,2022.2.4,Win32,60.3427468,Chrome,1280,800,,,,,1,1279,,,,,,,,,,,,,,,,,B,125,triangle,1,0,,,,,,,,,,,,,,,,repeat,number,numRpt,j,0.4167,Lo,,,,,,5,,,,,,,,high,20,0,20,0,1,,,,,,,,,
294763,2022-11-29_12h01.19.428,vts_reward_expectancy_bt,2022.2.4,Win32,60.3427468,Chrome,1280,800,,,,,0,1279,,,,,,,,,,,,,,,,,F,132,hexagon,1,0,,,,,,,,,,,,,,,,repeat,number,numRpt,j,0.5991,Hi,,,,,,5,,,,,,,,high,21,0,21,0,1,,,,,,,,,
294763,2022-11-29_12h01.19.428,vts_reward_expectancy_bt,2022.2.4,Win32,60.3427468,Chrome,1280,800,,,,,0,1279,,,,,,,,,,,,,,,,,W,160,circle,1,0,,,,,,,,,,,,,,,,repeat,number,numRpt,k,0.4832,Hi,,,,,,5,,,,,,,,high,22,0,22,0,1,,,,,,,,,
294763,2022-11-29_12h01.19.428,vts_reward_expectancy_bt,2022.2.4,Win32,60.3427468,Chrome,1280,800,,,,,0,1279,,,,,,,,,,,,,,,,,H,181,star,0,0,,,,,,,,,,,,,,,,repeat,number,NA,j,0.3505,Hi,,,,,,5,,,,,,,,high,23,0,23,0,1,,,,,,,,,
294763,2022-11-29_12h01.19.428,vts_reward_expectancy_bt,2022.2.4,Win32,60.3427468,Chrome,1280,800,,,,,1,1280,,,,,,,,,,,,,,,,,Y,160,circle,1,1,,,,,,,,,,,,,,,,switch,letter,lettSwt,f,0.4132,Hi,,,,,,5,,,,,,,,high,24,0,24,0,1,,,,,,,,,
294763,2022-11-29_12h01.19.428,vts_reward_expectancy_bt,2022.2.4,Win32,60.3427468,Chrome,1280,800,,,,,0,1280,,,,,,,,,,,,,,,,,S,132,hexagon,0,0,,,,,,,,,,,,,,,,repeat,letter,NA,d,0.3311,Hi,,,,,,5,,,,,,,,high,25,0,25,0,1,,,,,,,,,
294763,2022-11-29_12h01.19.428,vts_reward_expectancy_bt,2022.2.4,Win32,60.3427468,Chrome,1280,800,,,,,1,1281,,,,,,,,,,,,,,,,,D,181,triangle,1,1,,,,,,,,,,,,,,,,repeat,letter,lettRpt,d,0.2491,Lo,,,,,,5,,,,,,,,high,26,0,26,0,1,,,,,,,,,
294763,2022-11-29_12h01.19.428,vts_reward_expectancy_bt,2022.2.4,Win32,60.3427468,Chrome,1280,800,,,,,1,1282,,,,,,,,,,,,,,,,,W,146,star,1,0,,,,,,,,,,,,,,,,repeat,letter,lettRpt,f,0.5152,Lo,,,,,,5,,,,,,,,high,27,0,27,0,1,,,,,,,,,
294763,2022-11-29_12h01.19.428,vts_reward_expectancy_bt,2022.2.4,Win32,60.3427468,Chrome,1280,800,,,,,0,1282,,,,,,,,,,,,,,,,,U,125,hexagon,1,0,,,,,,,,,,,,,,,,repeat,letter,lettRpt,f,0.3986,Hi,,,,,,5,,,,,,,,high,28,0,28,0,1,,,,,,,,,
294763,2022-11-29_12h01.19.428,vts_reward_expectancy_bt,2022.2.4,Win32,60.3427468,Chrome,1280,800,,,,,1,1283,,,,,,,,,,,,,,,,,F,174,star,1,0,,,,,,,,,,,,,,,,repeat,letter,lettRpt,d,0.4862,Lo,,,,,,5,,,,,,,,high,29,0,29,0,1,,,,,,,,,
294763,2022-11-29_12h01.19.428,vts_reward_expectancy_bt,2022.2.4,Win32,60.3427468,Chrome,1280,800,,,,,0,1283,,,,,,,,,,,,,,,,,H,139,circle,0,0,,,,,,,,,,,,,,,,switch,number,NA,k,0.4632,Lo,,,,,,5,,,,,,,,high,30,0,30,0,1,,,,,,,,,
294763,2022-11-29_12h01.19.428,vts_reward_expectancy_bt,2022.2.4,Win32,60.3427468,Chrome,1280,800,,,,,1,1284,,,,,,,,,,,,,,,,,B,167,triangle,1,1,,,,,,,,,,,,,,,,repeat,number,numRpt,k,0.4793,Lo,,,,,,5,,,,,,,,high,31,0,31,0,1,,,,,,,,,
294763,2022-11-29_12h01.19.428,vts_reward_expectancy_bt,2022.2.4,Win32,60.3427468,Chrome,1280,800,,,,,1,1285,,,,,,,,,,,,,,,,,U,167,star,1,0,,,,,,,,,,,,,,,,switch,letter,lettSwt,f,0.55,Lo,,,,,,6,,,,,,space,1.0005,high,0,0,0,0,1,,,,,,,,,
294763,2022-11-29_12h01.19.428,vts_reward_expectancy_bt,2022.2.4,Win32,60.3427468,Chrome,1280,800,,,,,0,1285,,,,,,,,,,,,,,,,,F,139,circle,1,0,,,,,,,,,,,,,,,,repeat,letter,lettRpt,d,0.3464,Hi,,,,,,6,,,,,,,,high,1,0,1,0,1,,,,,,,,,
294763,2022-11-29_12h01.19.428,vts_reward_expectancy_bt,2022.2.4,Win32,60.3427468,Chrome,1280,800,,,,,0,1285,,,,,,,,,,,,,,,,,H,132,hexagon,1,0,,,,,,,,,,,,,,,,repeat,letter,lettRpt,d,0.5711,Hi,,,,,,6,,,,,,,,high,2,0,2,0,1,,,,,,,,,
294763,2022-11-29_12h01.19.428,vts_reward_expectancy_bt,2022.2.4,Win32,60.3427468,Chrome,1280,800,,,,,0,1285,,,,,,,,,,,,,,,,,B,181,triangle,0,0,,,,,,,,,,,,,,,,repeat,letter,NA,f,0.1343,Hi,,,,,,6,,,,,,,,high,3,0,3,0,1,,,,,,,,,
294763,2022-11-29_12h01.19.428,vts_reward_expectancy_bt,2022.2.4,Win32,60.3427468,Chrome,1280,800,,,,,10,1295,,,,,,,,,,,,,,,,,Y,160,star,1,1,,,,,,,,,,,,,,,,switch,number,numSwt,k,0.3868,Lo,,,,,,6,,,,,,,,high,4,0,4,0,1,,,,,,,,,
294763,2022-11-29_12h01.19.428,vts_reward_expectancy_bt,2022.2.4,Win32,60.3427468,Chrome,1280,800,,,,,0,1295,,,,,,,,,,,,,,,,,S,174,circle,0,0,,,,,,,,,,,,,,,,repeat,number,NA,j,0.334,Lo,,,,,,6,,,,,,,,high,5,0,5,0,1,,,,,,,,,
294763,2022-11-29_12h01.19.428,vts_reward_expectancy_bt,2022.2.4,Win32,60.3427468,Chrome,1280,800,,,,,0,1295,,,,,,,,,,,,,,,,,W,125,hexagon,1,1,,,,,,,,,,,,,,,,repeat,number,numRpt,j,0.4486,Hi,,,,,,6,,,,,,,,high,6,0,6,0,1,,,,,,,,,
294763,2022-11-29_12h01.19.428,vts_reward_expectancy_bt,2022.2.4,Win32,60.3427468,Chrome,1280,800,,,,,0,1295,,,,,,,,,,,,,,,,,D,146,triangle,0,0,,,,,,,,,,,,,,,,repeat,number,NA,k,0.4796,Hi,,,,,,6,,,,,,,,high,7,0,7,0,1,,,,,,,,,
294763,2022-11-29_12h01.19.428,vts_reward_expectancy_bt,2022.2.4,Win32,60.3427468,Chrome,1280,800,,,,,10,1305,,,,,,,,,,,,,,,,,U,167,circle,1,1,,,,,,,,,,,,,,,,repeat,number,numRpt,k,0.2515,Hi,,,,,,6,,,,,,,,high,8,0,8,0,1,,,,,,,,,
