participant,date,expName,psychopyVersion,OS,frameRate,browser,xResolution,yResolution,key_resp.keys,key_resp.rt,training_resp.keys,training_resp.rt,points_trial,points_cumul,trainBlock,training.thisRepN,training.thisTrialN,training.thisN,training.thisIndex,training.ran,LTriangleOpac,LCircleOpac,LHexagonOpac,LStarOpac,RTriangleOpac,RCircleOpac,RHexagonOpac,RStarOpac,LShape_ID,RShape_ID,curr_topStim,curr_bottStim,curr_shape,acc,E1,target_resp_prac1.keys,target_resp_prac1.rt,pracBlock,task1_prac_trials.thisRepN,task1_prac_trials.thisTrialN,task1_prac_trials.thisN,task1_prac_trials.thisIndex,task1_prac_trials.ran,target_resp_prac2.keys,task2_praac_trials.thisRepN,task2_praac_trials.thisTrialN,task2_praac_trials.thisN,task2_praac_trials.thisIndex,task2_praac_trials.ran,target_resp_prac2.rt,alt,task,condition,target_resp.keys,target_resp.rt,rewCond,vts_practice_trials.thisRepN,vts_practice_trials.thisTrialN,vts_practice_trials.thisN,vts_practice_trials.thisIndex,vts_practice_trials.ran,blockNum,trials_norew.thisRepN,trials_norew.thisTrialN,trials_norew.thisN,trials_norew.thisIndex,trials_norew.ran,key_resp_2.keys,key_resp_2.rt,rewExpectancy,trials_rew.thisRepN,trials_rew.thisTrialN,trials_rew.thisN,trials_rew.thisIndex,trials_rew.ran,Q1,Q2,Q2_text,Q3,Q4,Q5_text,Q5,xRes,yRes
294853,2022-12-04_23h23.52.357,vts_reward_expectancy_bt,2022.2.4,Win32,59.03884756,Chrome,1536,864,,,,,,,,,,,,,,,,,,,,,,,,,,,,,,,,,,,,,,,,,,,,,,,,,,,,,,,,,,,,,,,,,,,,,,,,,,,,
294853,2022-12-04_23h23.52.357,vts_reward_expectancy_bt,2022.2.4,Win32,59.03884756,Chrome,1536,864,space,40.005,,,,,,,,,,,,,,,,,,,,,,,,,,,,,,,,,,,,,,,,,,,,,,,,,,,,,,,,,,,,,,,,,,,,,,,,,,
294853,2022-12-04_23h23.52.357,vts_reward_expectancy_bt,2022.2.4,Win32,59.03884756,Chrome,1536,864,,,,,,,,,,,,,,,,,,,,,,,,,,,,,,,,,,,,,,,,,,,,,,,,,,,,,,,,,,,,,,,,,,,,,,,,,,,,
294853,2022-12-04_23h23.52.357,vts_reward_expectancy_bt,2022.2.4,Win32,59.03884756,Chrome,1536,864,,,l,0.9032,1,1,0,0,0,0,7,1,0,0,1,0,0,1,0,0,hexagon,circle,,,,,,,,,,,,,,,,,,,,,,,,,,,,,,,,,,,,,,,,,,,,,,,,,,,,,,
294853,2022-12-04_23h23.52.357,vts_reward_expectancy_bt,2022.2.4,Win32,59.03884756,Chrome,1536,864,,,l,0.7829,10,11,0,0,1,1,9,1,0,0,0,1,1,0,0,0,star,triangle,,,,,,,,,,,,,,,,,,,,,,,,,,,,,,,,,,,,,,,,,,,,,,,,,,,,,,
294853,2022-12-04_23h23.52.357,vts_reward_expectancy_bt,2022.2.4,Win32,59.03884756,Chrome,1536,864,,,a,0.9365,10,21,0,0,2,2,1,1,1,0,0,0,0,0,1,0,triangle,hexagon,,,,,,,,,,,,,,,,,,,,,,,,,,,,,,,,,,,,,,,,,,,,,,,,,,,,,,
294853,2022-12-04_23h23.52.357,vts_reward_expectancy_bt,2022.2.4,Win32,59.03884756,Chrome,1536,864,,,l,1.2751,1,22,0,0,3,3,10,1,0,0,0,1,0,1,0,0,star ,circle,,,,,,,,,,,,,,,,,,,,,,,,,,,,,,,,,,,,,,,,,,,,,,,,,,,,,,
294853,2022-12-04_23h23.52.357,vts_reward_expectancy_bt,2022.2.4,Win32,59.03884756,Chrome,1536,864,,,a,1.5144,10,32,0,0,4,4,8,1,0,0,1,0,0,0,0,1,hexagon,star,,,,,,,,,,,,,,,,,,,,,,,,,,,,,,,,,,,,,,,,,,,,,,,,,,,,,,
294853,2022-12-04_23h23.52.357,vts_reward_expectancy_bt,2022.2.4,Win32,59.03884756,Chrome,1536,864,,,a,0.8859,10,42,0,0,5,5,3,1,0,1,0,0,1,0,0,0,circle,triangle,,,,,,,,,,,,,,,,,,,,,,,,,,,,,,,,,,,,,,,,,,,,,,,,,,,,,,
294853,2022-12-04_23h23.52.357,vts_reward_expectancy_bt,2022.2.4,Win32,59.03884756,Chrome,1536,864,,,l,0.7483,1,43,0,0,6,6,0,1,1,0,0,0,0,1,0,0,triangle,circle,,,,,,,,,,,,,,,,,,,,,,,,,,,,,,,,,,,,,,,,,,,,,,,,,,,,,,
294853,2022-12-04_23h23.52.357,vts_reward_expectancy_bt,2022.2.4,Win32,59.03884756,Chrome,1536,864,,,a,0.9344,1,44,0,0,7,7,5,1,0,1,0,0,0,0,0,1,circle,star,,,,,,,,,,,,,,,,,,,,,,,,,,,,,,,,,,,,,,,,,,,,,,,,,,,,,,
294853,2022-12-04_23h23.52.357,vts_reward_expectancy_bt,2022.2.4,Win32,59.03884756,Chrome,1536,864,,,l,0.7334,1,45,0,0,8,8,11,1,0,0,0,1,0,0,1,0,star,hexagon,,,,,,,,,,,,,,,,,,,,,,,,,,,,,,,,,,,,,,,,,,,,,,,,,,,,,,
294853,2022-12-04_23h23.52.357,vts_reward_expectancy_bt,2022.2.4,Win32,59.03884756,Chrome,1536,864,,,a,1.2155,10,55,0,0,9,9,6,1,0,0,1,0,1,0,0,0,hexagon,triangle,,,,,,,,,,,,,,,,,,,,,,,,,,,,,,,,,,,,,,,,,,,,,,,,,,,,,,
294853,2022-12-04_23h23.52.357,vts_reward_expectancy_bt,2022.2.4,Win32,59.03884756,Chrome,1536,864,,,l,0.6256,1,56,0,0,10,10,4,1,0,1,0,0,0,0,1,0,circle,hexagon,,,,,,,,,,,,,,,,,,,,,,,,,,,,,,,,,,,,,,,,,,,,,,,,,,,,,,
294853,2022-12-04_23h23.52.357,vts_reward_expectancy_bt,2022.2.4,Win32,59.03884756,Chrome,1536,864,,,a,0.5147,10,66,0,0,11,11,2,1,1,0,0,0,0,0,0,1,triangle,star,,,,,,,,,,,,,,,,,,,,,,,,,,,,,,,,,,,,,,,,,,,,,,,,,,,,,,
294853,2022-12-04_23h23.52.357,vts_reward_expectancy_bt,2022.2.4,Win32,59.03884756,Chrome,1536,864,,,l,1.0997,1,67,0,1,0,12,6,1,0,0,1,0,1,0,0,0,hexagon,triangle,,,,,,,,,,,,,,,,,,,,,,,,,,,,,,,,,,,,,,,,,,,,,,,,,,,,,,
294853,2022-12-04_23h23.52.357,vts_reward_expectancy_bt,2022.2.4,Win32,59.03884756,Chrome,1536,864,,,l,0.5065,10,77,0,1,1,13,9,1,0,0,0,1,1,0,0,0,star,triangle,,,,,,,,,,,,,,,,,,,,,,,,,,,,,,,,,,,,,,,,,,,,,,,,,,,,,,
294853,2022-12-04_23h23.52.357,vts_reward_expectancy_bt,2022.2.4,Win32,59.03884756,Chrome,1536,864,,,l,2.1345,1,78,0,1,2,14,0,1,1,0,0,0,0,1,0,0,triangle,circle,,,,,,,,,,,,,,,,,,,,,,,,,,,,,,,,,,,,,,,,,,,,,,,,,,,,,,
294853,2022-12-04_23h23.52.357,vts_reward_expectancy_bt,2022.2.4,Win32,59.03884756,Chrome,1536,864,,,a,0.4653,10,88,0,1,3,15,2,1,1,0,0,0,0,0,0,1,triangle,star,,,,,,,,,,,,,,,,,,,,,,,,,,,,,,,,,,,,,,,,,,,,,,,,,,,,,,
294853,2022-12-04_23h23.52.357,vts_reward_expectancy_bt,2022.2.4,Win32,59.03884756,Chrome,1536,864,,,l,0.6179,10,98,0,1,4,16,3,1,0,1,0,0,1,0,0,0,circle,triangle,,,,,,,,,,,,,,,,,,,,,,,,,,,,,,,,,,,,,,,,,,,,,,,,,,,,,,
294853,2022-12-04_23h23.52.357,vts_reward_expectancy_bt,2022.2.4,Win32,59.03884756,Chrome,1536,864,,,a,0.5795,10,108,0,1,5,17,8,1,0,0,1,0,0,0,0,1,hexagon,star,,,,,,,,,,,,,,,,,,,,,,,,,,,,,,,,,,,,,,,,,,,,,,,,,,,,,,
294853,2022-12-04_23h23.52.357,vts_reward_expectancy_bt,2022.2.4,Win32,59.03884756,Chrome,1536,864,,,a,1.0467,10,118,0,1,6,18,4,1,0,1,0,0,0,0,1,0,circle,hexagon,,,,,,,,,,,,,,,,,,,,,,,,,,,,,,,,,,,,,,,,,,,,,,,,,,,,,,
294853,2022-12-04_23h23.52.357,vts_reward_expectancy_bt,2022.2.4,Win32,59.03884756,Chrome,1536,864,,,a,1.2171,10,128,0,1,7,19,7,1,0,0,1,0,0,1,0,0,hexagon,circle,,,,,,,,,,,,,,,,,,,,,,,,,,,,,,,,,,,,,,,,,,,,,,,,,,,,,,
294853,2022-12-04_23h23.52.357,vts_reward_expectancy_bt,2022.2.4,Win32,59.03884756,Chrome,1536,864,,,l,0.5444,10,138,0,1,8,20,11,1,0,0,0,1,0,0,1,0,star,hexagon,,,,,,,,,,,,,,,,,,,,,,,,,,,,,,,,,,,,,,,,,,,,,,,,,,,,,,
294853,2022-12-04_23h23.52.357,vts_reward_expectancy_bt,2022.2.4,Win32,59.03884756,Chrome,1536,864,,,l,0.9009,10,148,0,1,9,21,1,1,1,0,0,0,0,0,1,0,triangle,hexagon,,,,,,,,,,,,,,,,,,,,,,,,,,,,,,,,,,,,,,,,,,,,,,,,,,,,,,
294853,2022-12-04_23h23.52.357,vts_reward_expectancy_bt,2022.2.4,Win32,59.03884756,Chrome,1536,864,,,l,1.2558,1,149,0,1,10,22,10,1,0,0,0,1,0,1,0,0,star ,circle,,,,,,,,,,,,,,,,,,,,,,,,,,,,,,,,,,,,,,,,,,,,,,,,,,,,,,
294853,2022-12-04_23h23.52.357,vts_reward_expectancy_bt,2022.2.4,Win32,59.03884756,Chrome,1536,864,,,a,0.7277,1,150,0,1,11,23,5,1,0,1,0,0,0,0,0,1,circle,star,,,,,,,,,,,,,,,,,,,,,,,,,,,,,,,,,,,,,,,,,,,,,,,,,,,,,,
294853,2022-12-04_23h23.52.357,vts_reward_expectancy_bt,2022.2.4,Win32,59.03884756,Chrome,1536,864,,,a,1.2353,1,151,0,2,0,24,7,1,0,0,1,0,0,1,0,0,hexagon,circle,,,,,,,,,,,,,,,,,,,,,,,,,,,,,,,,,,,,,,,,,,,,,,,,,,,,,,
294853,2022-12-04_23h23.52.357,vts_reward_expectancy_bt,2022.2.4,Win32,59.03884756,Chrome,1536,864,,,a,0.8494,10,161,0,2,1,25,6,1,0,0,1,0,1,0,0,0,hexagon,triangle,,,,,,,,,,,,,,,,,,,,,,,,,,,,,,,,,,,,,,,,,,,,,,,,,,,,,,
294853,2022-12-04_23h23.52.357,vts_reward_expectancy_bt,2022.2.4,Win32,59.03884756,Chrome,1536,864,,,l,0.7704,10,171,0,2,2,26,1,1,1,0,0,0,0,0,1,0,triangle,hexagon,,,,,,,,,,,,,,,,,,,,,,,,,,,,,,,,,,,,,,,,,,,,,,,,,,,,,,
294853,2022-12-04_23h23.52.357,vts_reward_expectancy_bt,2022.2.4,Win32,59.03884756,Chrome,1536,864,,,a,0.963,1,172,0,2,3,27,0,1,1,0,0,0,0,1,0,0,triangle,circle,,,,,,,,,,,,,,,,,,,,,,,,,,,,,,,,,,,,,,,,,,,,,,,,,,,,,,
294853,2022-12-04_23h23.52.357,vts_reward_expectancy_bt,2022.2.4,Win32,59.03884756,Chrome,1536,864,,,a,0.601,1,173,0,2,4,28,5,1,0,1,0,0,0,0,0,1,circle,star,,,,,,,,,,,,,,,,,,,,,,,,,,,,,,,,,,,,,,,,,,,,,,,,,,,,,,
294853,2022-12-04_23h23.52.357,vts_reward_expectancy_bt,2022.2.4,Win32,59.03884756,Chrome,1536,864,,,a,0.5995,10,183,0,2,5,29,8,1,0,0,1,0,0,0,0,1,hexagon,star,,,,,,,,,,,,,,,,,,,,,,,,,,,,,,,,,,,,,,,,,,,,,,,,,,,,,,
294853,2022-12-04_23h23.52.357,vts_reward_expectancy_bt,2022.2.4,Win32,59.03884756,Chrome,1536,864,,,l,0.6891,10,193,0,2,6,30,3,1,0,1,0,0,1,0,0,0,circle,triangle,,,,,,,,,,,,,,,,,,,,,,,,,,,,,,,,,,,,,,,,,,,,,,,,,,,,,,
294853,2022-12-04_23h23.52.357,vts_reward_expectancy_bt,2022.2.4,Win32,59.03884756,Chrome,1536,864,,,l,0.7361,10,203,0,2,7,31,4,1,0,1,0,0,0,0,1,0,circle,hexagon,,,,,,,,,,,,,,,,,,,,,,,,,,,,,,,,,,,,,,,,,,,,,,,,,,,,,,
294853,2022-12-04_23h23.52.357,vts_reward_expectancy_bt,2022.2.4,Win32,59.03884756,Chrome,1536,864,,,a,1.1818,10,213,0,2,8,32,2,1,1,0,0,0,0,0,0,1,triangle,star,,,,,,,,,,,,,,,,,,,,,,,,,,,,,,,,,,,,,,,,,,,,,,,,,,,,,,
294853,2022-12-04_23h23.52.357,vts_reward_expectancy_bt,2022.2.4,Win32,59.03884756,Chrome,1536,864,,,l,0.4513,10,223,0,2,9,33,11,1,0,0,0,1,0,0,1,0,star,hexagon,,,,,,,,,,,,,,,,,,,,,,,,,,,,,,,,,,,,,,,,,,,,,,,,,,,,,,
294853,2022-12-04_23h23.52.357,vts_reward_expectancy_bt,2022.2.4,Win32,59.03884756,Chrome,1536,864,,,l,0.6841,10,233,0,2,10,34,9,1,0,0,0,1,1,0,0,0,star,triangle,,,,,,,,,,,,,,,,,,,,,,,,,,,,,,,,,,,,,,,,,,,,,,,,,,,,,,
294853,2022-12-04_23h23.52.357,vts_reward_expectancy_bt,2022.2.4,Win32,59.03884756,Chrome,1536,864,,,l,0.5713,1,234,0,2,11,35,10,1,0,0,0,1,0,1,0,0,star ,circle,,,,,,,,,,,,,,,,,,,,,,,,,,,,,,,,,,,,,,,,,,,,,,,,,,,,,,
294853,2022-12-04_23h23.52.357,vts_reward_expectancy_bt,2022.2.4,Win32,59.03884756,Chrome,1536,864,,,a,1.095,10,244,1,0,0,0,8,1,0,0,1,0,0,0,0,1,hexagon,star,,,,,,,,,,,,,,,,,,,,,,,,,,,,,,,,,,,,,,,,,,,,,,,,,,,,,,
294853,2022-12-04_23h23.52.357,vts_reward_expectancy_bt,2022.2.4,Win32,59.03884756,Chrome,1536,864,,,l,0.4471,10,254,1,0,1,1,9,1,0,0,0,1,1,0,0,0,star,triangle,,,,,,,,,,,,,,,,,,,,,,,,,,,,,,,,,,,,,,,,,,,,,,,,,,,,,,
294853,2022-12-04_23h23.52.357,vts_reward_expectancy_bt,2022.2.4,Win32,59.03884756,Chrome,1536,864,,,l,0.553,1,255,1,0,2,2,1,1,1,0,0,0,0,0,1,0,triangle,hexagon,,,,,,,,,,,,,,,,,,,,,,,,,,,,,,,,,,,,,,,,,,,,,,,,,,,,,,
294853,2022-12-04_23h23.52.357,vts_reward_expectancy_bt,2022.2.4,Win32,59.03884756,Chrome,1536,864,,,a,0.5205,1,256,1,0,3,3,5,1,0,1,0,0,0,0,0,1,circle,star,,,,,,,,,,,,,,,,,,,,,,,,,,,,,,,,,,,,,,,,,,,,,,,,,,,,,,
294853,2022-12-04_23h23.52.357,vts_reward_expectancy_bt,2022.2.4,Win32,59.03884756,Chrome,1536,864,,,a,1.1832,10,266,1,0,4,4,2,1,1,0,0,0,0,0,0,1,triangle,star,,,,,,,,,,,,,,,,,,,,,,,,,,,,,,,,,,,,,,,,,,,,,,,,,,,,,,
294853,2022-12-04_23h23.52.357,vts_reward_expectancy_bt,2022.2.4,Win32,59.03884756,Chrome,1536,864,,,l,1.0304,10,276,1,0,5,5,11,1,0,0,0,1,0,0,1,0,star,hexagon,,,,,,,,,,,,,,,,,,,,,,,,,,,,,,,,,,,,,,,,,,,,,,,,,,,,,,
294853,2022-12-04_23h23.52.357,vts_reward_expectancy_bt,2022.2.4,Win32,59.03884756,Chrome,1536,864,,,a,0.8001,10,286,1,0,6,6,7,1,0,0,1,0,0,1,0,0,hexagon,circle,,,,,,,,,,,,,,,,,,,,,,,,,,,,,,,,,,,,,,,,,,,,,,,,,,,,,,
294853,2022-12-04_23h23.52.357,vts_reward_expectancy_bt,2022.2.4,Win32,59.03884756,Chrome,1536,864,,,l,0.6931,10,296,1,0,7,7,4,1,0,1,0,0,0,0,1,0,circle,hexagon,,,,,,,,,,,,,,,,,,,,,,,,,,,,,,,,,,,,,,,,,,,,,,,,,,,,,,
294853,2022-12-04_23h23.52.357,vts_reward_expectancy_bt,2022.2.4,Win32,59.03884756,Chrome,1536,864,,,a,0.7702,1,297,1,0,8,8,6,1,0,0,1,0,1,0,0,0,hexagon,triangle,,,,,,,,,,,,,,,,,,,,,,,,,,,,,,,,,,,,,,,,,,,,,,,,,,,,,,
294853,2022-12-04_23h23.52.357,vts_reward_expectancy_bt,2022.2.4,Win32,59.03884756,Chrome,1536,864,,,a,0.831,1,298,1,0,9,9,0,1,1,0,0,0,0,1,0,0,triangle,circle,,,,,,,,,,,,,,,,,,,,,,,,,,,,,,,,,,,,,,,,,,,,,,,,,,,,,,
294853,2022-12-04_23h23.52.357,vts_reward_expectancy_bt,2022.2.4,Win32,59.03884756,Chrome,1536,864,,,l,0.6653,1,299,1,0,10,10,10,1,0,0,0,1,0,1,0,0,star ,circle,,,,,,,,,,,,,,,,,,,,,,,,,,,,,,,,,,,,,,,,,,,,,,,,,,,,,,
294853,2022-12-04_23h23.52.357,vts_reward_expectancy_bt,2022.2.4,Win32,59.03884756,Chrome,1536,864,,,a,0.7522,1,300,1,0,11,11,3,1,0,1,0,0,1,0,0,0,circle,triangle,,,,,,,,,,,,,,,,,,,,,,,,,,,,,,,,,,,,,,,,,,,,,,,,,,,,,,
294853,2022-12-04_23h23.52.357,vts_reward_expectancy_bt,2022.2.4,Win32,59.03884756,Chrome,1536,864,,,a,0.7843,10,310,1,1,0,12,7,1,0,0,1,0,0,1,0,0,hexagon,circle,,,,,,,,,,,,,,,,,,,,,,,,,,,,,,,,,,,,,,,,,,,,,,,,,,,,,,
294853,2022-12-04_23h23.52.357,vts_reward_expectancy_bt,2022.2.4,Win32,59.03884756,Chrome,1536,864,,,l,0.4589,10,320,1,1,1,13,11,1,0,0,0,1,0,0,1,0,star,hexagon,,,,,,,,,,,,,,,,,,,,,,,,,,,,,,,,,,,,,,,,,,,,,,,,,,,,,,
294853,2022-12-04_23h23.52.357,vts_reward_expectancy_bt,2022.2.4,Win32,59.03884756,Chrome,1536,864,,,l,0.5344,1,321,1,1,2,14,8,1,0,0,1,0,0,0,0,1,hexagon,star,,,,,,,,,,,,,,,,,,,,,,,,,,,,,,,,,,,,,,,,,,,,,,,,,,,,,,
294853,2022-12-04_23h23.52.357,vts_reward_expectancy_bt,2022.2.4,Win32,59.03884756,Chrome,1536,864,,,l,0.5014,10,331,1,1,3,15,4,1,0,1,0,0,0,0,1,0,circle,hexagon,,,,,,,,,,,,,,,,,,,,,,,,,,,,,,,,,,,,,,,,,,,,,,,,,,,,,,
294853,2022-12-04_23h23.52.357,vts_reward_expectancy_bt,2022.2.4,Win32,59.03884756,Chrome,1536,864,,,l,2.0523,10,341,1,1,4,16,3,1,0,1,0,0,1,0,0,0,circle,triangle,,,,,,,,,,,,,,,,,,,,,,,,,,,,,,,,,,,,,,,,,,,,,,,,,,,,,,
294853,2022-12-04_23h23.52.357,vts_reward_expectancy_bt,2022.2.4,Win32,59.03884756,Chrome,1536,864,,,a,0.8041,1,342,1,1,5,17,6,1,0,0,1,0,1,0,0,0,hexagon,triangle,,,,,,,,,,,,,,,,,,,,,,,,,,,,,,,,,,,,,,,,,,,,,,,,,,,,,,
294853,2022-12-04_23h23.52.357,vts_reward_expectancy_bt,2022.2.4,Win32,59.03884756,Chrome,1536,864,,,a,2.0443,10,352,1,1,6,18,9,1,0,0,0,1,1,0,0,0,star,triangle,,,,,,,,,,,,,,,,,,,,,,,,,,,,,,,,,,,,,,,,,,,,,,,,,,,,,,
294853,2022-12-04_23h23.52.357,vts_reward_expectancy_bt,2022.2.4,Win32,59.03884756,Chrome,1536,864,,,l,0.8609,1,353,1,1,7,19,1,1,1,0,0,0,0,0,1,0,triangle,hexagon,,,,,,,,,,,,,,,,,,,,,,,,,,,,,,,,,,,,,,,,,,,,,,,,,,,,,,
294853,2022-12-04_23h23.52.357,vts_reward_expectancy_bt,2022.2.4,Win32,59.03884756,Chrome,1536,864,,,a,0.9492,1,354,1,1,8,20,5,1,0,1,0,0,0,0,0,1,circle,star,,,,,,,,,,,,,,,,,,,,,,,,,,,,,,,,,,,,,,,,,,,,,,,,,,,,,,
294853,2022-12-04_23h23.52.357,vts_reward_expectancy_bt,2022.2.4,Win32,59.03884756,Chrome,1536,864,,,a,1.9298,1,355,1,1,9,21,10,1,0,0,0,1,0,1,0,0,star ,circle,,,,,,,,,,,,,,,,,,,,,,,,,,,,,,,,,,,,,,,,,,,,,,,,,,,,,,
294853,2022-12-04_23h23.52.357,vts_reward_expectancy_bt,2022.2.4,Win32,59.03884756,Chrome,1536,864,,,a,0.5837,10,365,1,1,10,22,2,1,1,0,0,0,0,0,0,1,triangle,star,,,,,,,,,,,,,,,,,,,,,,,,,,,,,,,,,,,,,,,,,,,,,,,,,,,,,,
294853,2022-12-04_23h23.52.357,vts_reward_expectancy_bt,2022.2.4,Win32,59.03884756,Chrome,1536,864,,,a,0.4166,10,375,1,1,11,23,0,1,1,0,0,0,0,1,0,0,triangle,circle,,,,,,,,,,,,,,,,,,,,,,,,,,,,,,,,,,,,,,,,,,,,,,,,,,,,,,
294853,2022-12-04_23h23.52.357,vts_reward_expectancy_bt,2022.2.4,Win32,59.03884756,Chrome,1536,864,,,l,0.5239,10,385,1,2,0,24,3,1,0,1,0,0,1,0,0,0,circle,triangle,,,,,,,,,,,,,,,,,,,,,,,,,,,,,,,,,,,,,,,,,,,,,,,,,,,,,,
294853,2022-12-04_23h23.52.357,vts_reward_expectancy_bt,2022.2.4,Win32,59.03884756,Chrome,1536,864,,,a,0.9991,10,395,1,2,1,25,8,1,0,0,1,0,0,0,0,1,hexagon,star,,,,,,,,,,,,,,,,,,,,,,,,,,,,,,,,,,,,,,,,,,,,,,,,,,,,,,
294853,2022-12-04_23h23.52.357,vts_reward_expectancy_bt,2022.2.4,Win32,59.03884756,Chrome,1536,864,,,l,2.7011,1,396,1,2,2,26,5,1,0,1,0,0,0,0,0,1,circle,star,,,,,,,,,,,,,,,,,,,,,,,,,,,,,,,,,,,,,,,,,,,,,,,,,,,,,,
294853,2022-12-04_23h23.52.357,vts_reward_expectancy_bt,2022.2.4,Win32,59.03884756,Chrome,1536,864,,,a,1.4969,1,397,1,2,3,27,9,1,0,0,0,1,1,0,0,0,star,triangle,,,,,,,,,,,,,,,,,,,,,,,,,,,,,,,,,,,,,,,,,,,,,,,,,,,,,,
294853,2022-12-04_23h23.52.357,vts_reward_expectancy_bt,2022.2.4,Win32,59.03884756,Chrome,1536,864,,,a,0.7199,10,407,1,2,4,28,7,1,0,0,1,0,0,1,0,0,hexagon,circle,,,,,,,,,,,,,,,,,,,,,,,,,,,,,,,,,,,,,,,,,,,,,,,,,,,,,,
294853,2022-12-04_23h23.52.357,vts_reward_expectancy_bt,2022.2.4,Win32,59.03884756,Chrome,1536,864,,,a,1.6685,10,417,1,2,5,29,6,1,0,0,1,0,1,0,0,0,hexagon,triangle,,,,,,,,,,,,,,,,,,,,,,,,,,,,,,,,,,,,,,,,,,,,,,,,,,,,,,
294853,2022-12-04_23h23.52.357,vts_reward_expectancy_bt,2022.2.4,Win32,59.03884756,Chrome,1536,864,,,l,0.727,10,427,1,2,6,30,4,1,0,1,0,0,0,0,1,0,circle,hexagon,,,,,,,,,,,,,,,,,,,,,,,,,,,,,,,,,,,,,,,,,,,,,,,,,,,,,,
294853,2022-12-04_23h23.52.357,vts_reward_expectancy_bt,2022.2.4,Win32,59.03884756,Chrome,1536,864,,,a,0.7626,10,437,1,2,7,31,2,1,1,0,0,0,0,0,0,1,triangle,star,,,,,,,,,,,,,,,,,,,,,,,,,,,,,,,,,,,,,,,,,,,,,,,,,,,,,,
294853,2022-12-04_23h23.52.357,vts_reward_expectancy_bt,2022.2.4,Win32,59.03884756,Chrome,1536,864,,,a,2.0412,10,447,1,2,8,32,10,1,0,0,0,1,0,1,0,0,star ,circle,,,,,,,,,,,,,,,,,,,,,,,,,,,,,,,,,,,,,,,,,,,,,,,,,,,,,,
294853,2022-12-04_23h23.52.357,vts_reward_expectancy_bt,2022.2.4,Win32,59.03884756,Chrome,1536,864,,,a,1.8216,10,457,1,2,9,33,0,1,1,0,0,0,0,1,0,0,triangle,circle,,,,,,,,,,,,,,,,,,,,,,,,,,,,,,,,,,,,,,,,,,,,,,,,,,,,,,
294853,2022-12-04_23h23.52.357,vts_reward_expectancy_bt,2022.2.4,Win32,59.03884756,Chrome,1536,864,,,l,0.9967,10,467,1,2,10,34,11,1,0,0,0,1,0,0,1,0,star,hexagon,,,,,,,,,,,,,,,,,,,,,,,,,,,,,,,,,,,,,,,,,,,,,,,,,,,,,,
294853,2022-12-04_23h23.52.357,vts_reward_expectancy_bt,2022.2.4,Win32,59.03884756,Chrome,1536,864,,,l,0.8679,10,477,1,2,11,35,1,1,1,0,0,0,0,0,1,0,triangle,hexagon,,,,,,,,,,,,,,,,,,,,,,,,,,,,,,,,,,,,,,,,,,,,,,,,,,,,,,
294853,2022-12-04_23h23.52.357,vts_reward_expectancy_bt,2022.2.4,Win32,59.03884756,Chrome,1536,864,,,l,2.4348,10,487,2,0,0,0,9,1,0,0,0,1,1,0,0,0,star,triangle,,,,,,,,,,,,,,,,,,,,,,,,,,,,,,,,,,,,,,,,,,,,,,,,,,,,,,
294853,2022-12-04_23h23.52.357,vts_reward_expectancy_bt,2022.2.4,Win32,59.03884756,Chrome,1536,864,,,a,1.3171,10,497,2,0,1,1,7,1,0,0,1,0,0,1,0,0,hexagon,circle,,,,,,,,,,,,,,,,,,,,,,,,,,,,,,,,,,,,,,,,,,,,,,,,,,,,,,
294853,2022-12-04_23h23.52.357,vts_reward_expectancy_bt,2022.2.4,Win32,59.03884756,Chrome,1536,864,,,a,2.0626,10,507,2,0,2,2,6,1,0,0,1,0,1,0,0,0,hexagon,triangle,,,,,,,,,,,,,,,,,,,,,,,,,,,,,,,,,,,,,,,,,,,,,,,,,,,,,,
294853,2022-12-04_23h23.52.357,vts_reward_expectancy_bt,2022.2.4,Win32,59.03884756,Chrome,1536,864,,,l,2.4881,1,508,2,0,3,3,5,1,0,1,0,0,0,0,0,1,circle,star,,,,,,,,,,,,,,,,,,,,,,,,,,,,,,,,,,,,,,,,,,,,,,,,,,,,,,
294853,2022-12-04_23h23.52.357,vts_reward_expectancy_bt,2022.2.4,Win32,59.03884756,Chrome,1536,864,,,l,0.9498,10,518,2,0,4,4,3,1,0,1,0,0,1,0,0,0,circle,triangle,,,,,,,,,,,,,,,,,,,,,,,,,,,,,,,,,,,,,,,,,,,,,,,,,,,,,,
294853,2022-12-04_23h23.52.357,vts_reward_expectancy_bt,2022.2.4,Win32,59.03884756,Chrome,1536,864,,,a,0.9457,1,519,2,0,5,5,0,1,1,0,0,0,0,1,0,0,triangle,circle,,,,,,,,,,,,,,,,,,,,,,,,,,,,,,,,,,,,,,,,,,,,,,,,,,,,,,
294853,2022-12-04_23h23.52.357,vts_reward_expectancy_bt,2022.2.4,Win32,59.03884756,Chrome,1536,864,,,l,1.6898,10,529,2,0,6,6,4,1,0,1,0,0,0,0,1,0,circle,hexagon,,,,,,,,,,,,,,,,,,,,,,,,,,,,,,,,,,,,,,,,,,,,,,,,,,,,,,
294853,2022-12-04_23h23.52.357,vts_reward_expectancy_bt,2022.2.4,Win32,59.03884756,Chrome,1536,864,,,a,1.4284,10,539,2,0,7,7,8,1,0,0,1,0,0,0,0,1,hexagon,star,,,,,,,,,,,,,,,,,,,,,,,,,,,,,,,,,,,,,,,,,,,,,,,,,,,,,,
294853,2022-12-04_23h23.52.357,vts_reward_expectancy_bt,2022.2.4,Win32,59.03884756,Chrome,1536,864,,,l,1.6234,10,549,2,0,8,8,1,1,1,0,0,0,0,0,1,0,triangle,hexagon,,,,,,,,,,,,,,,,,,,,,,,,,,,,,,,,,,,,,,,,,,,,,,,,,,,,,,
294853,2022-12-04_23h23.52.357,vts_reward_expectancy_bt,2022.2.4,Win32,59.03884756,Chrome,1536,864,,,a,1.1216,10,559,2,0,9,9,2,1,1,0,0,0,0,0,0,1,triangle,star,,,,,,,,,,,,,,,,,,,,,,,,,,,,,,,,,,,,,,,,,,,,,,,,,,,,,,
294853,2022-12-04_23h23.52.357,vts_reward_expectancy_bt,2022.2.4,Win32,59.03884756,Chrome,1536,864,,,l,0.7337,1,560,2,0,10,10,10,1,0,0,0,1,0,1,0,0,star ,circle,,,,,,,,,,,,,,,,,,,,,,,,,,,,,,,,,,,,,,,,,,,,,,,,,,,,,,
294853,2022-12-04_23h23.52.357,vts_reward_expectancy_bt,2022.2.4,Win32,59.03884756,Chrome,1536,864,,,l,1.0588,10,570,2,0,11,11,11,1,0,0,0,1,0,0,1,0,star,hexagon,,,,,,,,,,,,,,,,,,,,,,,,,,,,,,,,,,,,,,,,,,,,,,,,,,,,,,
294853,2022-12-04_23h23.52.357,vts_reward_expectancy_bt,2022.2.4,Win32,59.03884756,Chrome,1536,864,,,a,0.8507,10,580,2,1,0,12,7,1,0,0,1,0,0,1,0,0,hexagon,circle,,,,,,,,,,,,,,,,,,,,,,,,,,,,,,,,,,,,,,,,,,,,,,,,,,,,,,
294853,2022-12-04_23h23.52.357,vts_reward_expectancy_bt,2022.2.4,Win32,59.03884756,Chrome,1536,864,,,a,0.7266,1,581,2,1,1,13,6,1,0,0,1,0,1,0,0,0,hexagon,triangle,,,,,,,,,,,,,,,,,,,,,,,,,,,,,,,,,,,,,,,,,,,,,,,,,,,,,,
294853,2022-12-04_23h23.52.357,vts_reward_expectancy_bt,2022.2.4,Win32,59.03884756,Chrome,1536,864,,,a,2.0445,1,582,2,1,2,14,1,1,1,0,0,0,0,0,1,0,triangle,hexagon,,,,,,,,,,,,,,,,,,,,,,,,,,,,,,,,,,,,,,,,,,,,,,,,,,,,,,
294853,2022-12-04_23h23.52.357,vts_reward_expectancy_bt,2022.2.4,Win32,59.03884756,Chrome,1536,864,,,l,0.6518,10,592,2,1,3,15,3,1,0,1,0,0,1,0,0,0,circle,triangle,,,,,,,,,,,,,,,,,,,,,,,,,,,,,,,,,,,,,,,,,,,,,,,,,,,,,,
294853,2022-12-04_23h23.52.357,vts_reward_expectancy_bt,2022.2.4,Win32,59.03884756,Chrome,1536,864,,,a,0.7822,10,602,2,1,4,16,0,1,1,0,0,0,0,1,0,0,triangle,circle,,,,,,,,,,,,,,,,,,,,,,,,,,,,,,,,,,,,,,,,,,,,,,,,,,,,,,
294853,2022-12-04_23h23.52.357,vts_reward_expectancy_bt,2022.2.4,Win32,59.03884756,Chrome,1536,864,,,l,1.036,10,612,2,1,5,17,9,1,0,0,0,1,1,0,0,0,star,triangle,,,,,,,,,,,,,,,,,,,,,,,,,,,,,,,,,,,,,,,,,,,,,,,,,,,,,,
294853,2022-12-04_23h23.52.357,vts_reward_expectancy_bt,2022.2.4,Win32,59.03884756,Chrome,1536,864,,,l,0.9193,1,613,2,1,6,18,5,1,0,1,0,0,0,0,0,1,circle,star,,,,,,,,,,,,,,,,,,,,,,,,,,,,,,,,,,,,,,,,,,,,,,,,,,,,,,
294853,2022-12-04_23h23.52.357,vts_reward_expectancy_bt,2022.2.4,Win32,59.03884756,Chrome,1536,864,,,a,1.7176,1,614,2,1,7,19,10,1,0,0,0,1,0,1,0,0,star ,circle,,,,,,,,,,,,,,,,,,,,,,,,,,,,,,,,,,,,,,,,,,,,,,,,,,,,,,
294853,2022-12-04_23h23.52.357,vts_reward_expectancy_bt,2022.2.4,Win32,59.03884756,Chrome,1536,864,,,l,1.2038,10,624,2,1,8,20,11,1,0,0,0,1,0,0,1,0,star,hexagon,,,,,,,,,,,,,,,,,,,,,,,,,,,,,,,,,,,,,,,,,,,,,,,,,,,,,,
294853,2022-12-04_23h23.52.357,vts_reward_expectancy_bt,2022.2.4,Win32,59.03884756,Chrome,1536,864,,,a,0.6614,10,634,2,1,9,21,8,1,0,0,1,0,0,0,0,1,hexagon,star,,,,,,,,,,,,,,,,,,,,,,,,,,,,,,,,,,,,,,,,,,,,,,,,,,,,,,
294853,2022-12-04_23h23.52.357,vts_reward_expectancy_bt,2022.2.4,Win32,59.03884756,Chrome,1536,864,,,l,0.6353,10,644,2,1,10,22,4,1,0,1,0,0,0,0,1,0,circle,hexagon,,,,,,,,,,,,,,,,,,,,,,,,,,,,,,,,,,,,,,,,,,,,,,,,,,,,,,
294853,2022-12-04_23h23.52.357,vts_reward_expectancy_bt,2022.2.4,Win32,59.03884756,Chrome,1536,864,,,a,0.5299,1,645,2,1,11,23,2,1,1,0,0,0,0,0,0,1,triangle,star,,,,,,,,,,,,,,,,,,,,,,,,,,,,,,,,,,,,,,,,,,,,,,,,,,,,,,
294853,2022-12-04_23h23.52.357,vts_reward_expectancy_bt,2022.2.4,Win32,59.03884756,Chrome,1536,864,,,l,1.1012,10,655,2,2,0,24,3,1,0,1,0,0,1,0,0,0,circle,triangle,,,,,,,,,,,,,,,,,,,,,,,,,,,,,,,,,,,,,,,,,,,,,,,,,,,,,,
294853,2022-12-04_23h23.52.357,vts_reward_expectancy_bt,2022.2.4,Win32,59.03884756,Chrome,1536,864,,,l,0.6349,1,656,2,2,1,25,8,1,0,0,1,0,0,0,0,1,hexagon,star,,,,,,,,,,,,,,,,,,,,,,,,,,,,,,,,,,,,,,,,,,,,,,,,,,,,,,
294853,2022-12-04_23h23.52.357,vts_reward_expectancy_bt,2022.2.4,Win32,59.03884756,Chrome,1536,864,,,l,0.9839,10,666,2,2,2,26,9,1,0,0,0,1,1,0,0,0,star,triangle,,,,,,,,,,,,,,,,,,,,,,,,,,,,,,,,,,,,,,,,,,,,,,,,,,,,,,
294853,2022-12-04_23h23.52.357,vts_reward_expectancy_bt,2022.2.4,Win32,59.03884756,Chrome,1536,864,,,a,1.7513,10,676,2,2,3,27,7,1,0,0,1,0,0,1,0,0,hexagon,circle,,,,,,,,,,,,,,,,,,,,,,,,,,,,,,,,,,,,,,,,,,,,,,,,,,,,,,
294853,2022-12-04_23h23.52.357,vts_reward_expectancy_bt,2022.2.4,Win32,59.03884756,Chrome,1536,864,,,a,1.369,10,686,2,2,4,28,10,1,0,0,0,1,0,1,0,0,star ,circle,,,,,,,,,,,,,,,,,,,,,,,,,,,,,,,,,,,,,,,,,,,,,,,,,,,,,,
294853,2022-12-04_23h23.52.357,vts_reward_expectancy_bt,2022.2.4,Win32,59.03884756,Chrome,1536,864,,,l,0.8557,10,696,2,2,5,29,11,1,0,0,0,1,0,0,1,0,star,hexagon,,,,,,,,,,,,,,,,,,,,,,,,,,,,,,,,,,,,,,,,,,,,,,,,,,,,,,
294853,2022-12-04_23h23.52.357,vts_reward_expectancy_bt,2022.2.4,Win32,59.03884756,Chrome,1536,864,,,l,1.9013,10,706,2,2,6,30,4,1,0,1,0,0,0,0,1,0,circle,hexagon,,,,,,,,,,,,,,,,,,,,,,,,,,,,,,,,,,,,,,,,,,,,,,,,,,,,,,
294853,2022-12-04_23h23.52.357,vts_reward_expectancy_bt,2022.2.4,Win32,59.03884756,Chrome,1536,864,,,a,0.5601,10,716,2,2,7,31,0,1,1,0,0,0,0,1,0,0,triangle,circle,,,,,,,,,,,,,,,,,,,,,,,,,,,,,,,,,,,,,,,,,,,,,,,,,,,,,,
294853,2022-12-04_23h23.52.357,vts_reward_expectancy_bt,2022.2.4,Win32,59.03884756,Chrome,1536,864,,,a,0.7451,10,726,2,2,8,32,6,1,0,0,1,0,1,0,0,0,hexagon,triangle,,,,,,,,,,,,,,,,,,,,,,,,,,,,,,,,,,,,,,,,,,,,,,,,,,,,,,
294853,2022-12-04_23h23.52.357,vts_reward_expectancy_bt,2022.2.4,Win32,59.03884756,Chrome,1536,864,,,l,0.6721,10,736,2,2,9,33,5,1,0,1,0,0,0,0,0,1,circle,star,,,,,,,,,,,,,,,,,,,,,,,,,,,,,,,,,,,,,,,,,,,,,,,,,,,,,,
294853,2022-12-04_23h23.52.357,vts_reward_expectancy_bt,2022.2.4,Win32,59.03884756,Chrome,1536,864,,,l,0.618,10,746,2,2,10,34,1,1,1,0,0,0,0,0,1,0,triangle,hexagon,,,,,,,,,,,,,,,,,,,,,,,,,,,,,,,,,,,,,,,,,,,,,,,,,,,,,,
294853,2022-12-04_23h23.52.357,vts_reward_expectancy_bt,2022.2.4,Win32,59.03884756,Chrome,1536,864,,,a,0.807,10,756,2,2,11,35,2,1,1,0,0,0,0,0,0,1,triangle,star,,,,,,,,,,,,,,,,,,,,,,,,,,,,,,,,,,,,,,,,,,,,,,,,,,,,,,
294853,2022-12-04_23h23.52.357,vts_reward_expectancy_bt,2022.2.4,Win32,59.03884756,Chrome,1536,864,,,,,,,,,,,,,,,,,,,,,,,167,D,circle,0,0,d,2.1401,0,0,0,0,0,1,,,,,,,,,,,,,,,,,,,,,,,,,,,,,,,,,,,,,,,,,
294853,2022-12-04_23h23.52.357,vts_reward_expectancy_bt,2022.2.4,Win32,59.03884756,Chrome,1536,864,,,,,,,,,,,,,,,,,,,,,,,125,Y,triangle,0,1,,,0,1,0,1,0,1,,,,,,,,,,,,,,,,,,,,,,,,,,,,,,,,,,,,,,,,,
294853,2022-12-04_23h23.52.357,vts_reward_expectancy_bt,2022.2.4,Win32,59.03884756,Chrome,1536,864,,,,,,,,,,,,,,,,,,,,,,,160,B,hexagon,0,1,d,1.1311,0,2,0,2,0,1,,,,,,,,,,,,,,,,,,,,,,,,,,,,,,,,,,,,,,,,,
294853,2022-12-04_23h23.52.357,vts_reward_expectancy_bt,2022.2.4,Win32,59.03884756,Chrome,1536,864,,,,,,,,,,,,,,,,,,,,,,,132,W,star,1,1,d,2.7898,0,3,0,3,0,1,,,,,,,,,,,,,,,,,,,,,,,,,,,,,,,,,,,,,,,,,
294853,2022-12-04_23h23.52.357,vts_reward_expectancy_bt,2022.2.4,Win32,59.03884756,Chrome,1536,864,,,,,,,,,,,,,,,,,,,,,,,139,F,circle,1,0,d,1.7799,0,4,0,4,0,1,,,,,,,,,,,,,,,,,,,,,,,,,,,,,,,,,,,,,,,,,
294853,2022-12-04_23h23.52.357,vts_reward_expectancy_bt,2022.2.4,Win32,59.03884756,Chrome,1536,864,,,,,,,,,,,,,,,,,,,,,,,146,H,triangle,1,0,d,1.3587,0,5,0,5,0,1,,,,,,,,,,,,,,,,,,,,,,,,,,,,,,,,,,,,,,,,,
294853,2022-12-04_23h23.52.357,vts_reward_expectancy_bt,2022.2.4,Win32,59.03884756,Chrome,1536,864,,,,,,,,,,,,,,,,,,,,,,,174,U,hexagon,1,0,f,0.7591,0,6,0,6,0,1,,,,,,,,,,,,,,,,,,,,,,,,,,,,,,,,,,,,,,,,,
294853,2022-12-04_23h23.52.357,vts_reward_expectancy_bt,2022.2.4,Win32,59.03884756,Chrome,1536,864,,,,,,,,,,,,,,,,,,,,,,,181,S,star,1,0,f,0.9579,0,7,0,7,0,1,,,,,,,,,,,,,,,,,,,,,,,,,,,,,,,,,,,,,,,,,
294853,2022-12-04_23h23.52.357,vts_reward_expectancy_bt,2022.2.4,Win32,59.03884756,Chrome,1536,864,,,,,,,,,,,,,,,,,,,,,,,167,D,triangle,1,0,f,1.5871,0,8,0,8,0,1,,,,,,,,,,,,,,,,,,,,,,,,,,,,,,,,,,,,,,,,,
294853,2022-12-04_23h23.52.357,vts_reward_expectancy_bt,2022.2.4,Win32,59.03884756,Chrome,1536,864,,,,,,,,,,,,,,,,,,,,,,,125,Y,star,1,0,d,0.5907,0,9,0,9,0,1,,,,,,,,,,,,,,,,,,,,,,,,,,,,,,,,,,,,,,,,,
294853,2022-12-04_23h23.52.357,vts_reward_expectancy_bt,2022.2.4,Win32,59.03884756,Chrome,1536,864,,,,,,,,,,,,,,,,,,,,,,,132,U,circle,1,0,d,0.8512,1,0,0,0,0,1,,,,,,,,,,,,,,,,,,,,,,,,,,,,,,,,,,,,,,,,,
294853,2022-12-04_23h23.52.357,vts_reward_expectancy_bt,2022.2.4,Win32,59.03884756,Chrome,1536,864,,,,,,,,,,,,,,,,,,,,,,,160,Y,star,1,0,f,0.6179,1,1,0,1,0,1,,,,,,,,,,,,,,,,,,,,,,,,,,,,,,,,,,,,,,,,,
294853,2022-12-04_23h23.52.357,vts_reward_expectancy_bt,2022.2.4,Win32,59.03884756,Chrome,1536,864,,,,,,,,,,,,,,,,,,,,,,,181,S,triangle,1,0,f,0.8762,1,2,0,2,0,1,,,,,,,,,,,,,,,,,,,,,,,,,,,,,,,,,,,,,,,,,
294853,2022-12-04_23h23.52.357,vts_reward_expectancy_bt,2022.2.4,Win32,59.03884756,Chrome,1536,864,,,,,,,,,,,,,,,,,,,,,,,167,W,hexagon,1,0,f,1.6106,1,3,0,3,0,1,,,,,,,,,,,,,,,,,,,,,,,,,,,,,,,,,,,,,,,,,
294853,2022-12-04_23h23.52.357,vts_reward_expectancy_bt,2022.2.4,Win32,59.03884756,Chrome,1536,864,,,,,,,,,,,,,,,,,,,,,,,139,D,circle,1,0,d,2.6432,1,4,0,4,0,1,,,,,,,,,,,,,,,,,,,,,,,,,,,,,,,,,,,,,,,,,
294853,2022-12-04_23h23.52.357,vts_reward_expectancy_bt,2022.2.4,Win32,59.03884756,Chrome,1536,864,,,,,,,,,,,,,,,,,,,,,,,125,F,star,1,0,d,1.7932,1,5,0,5,0,1,,,,,,,,,,,,,,,,,,,,,,,,,,,,,,,,,,,,,,,,,
294853,2022-12-04_23h23.52.357,vts_reward_expectancy_bt,2022.2.4,Win32,59.03884756,Chrome,1536,864,,,,,,,,,,,,,,,,,,,,,,,174,H,triangle,1,0,f,1.3615,1,6,0,6,0,1,,,,,,,,,,,,,,,,,,,,,,,,,,,,,,,,,,,,,,,,,
294853,2022-12-04_23h23.52.357,vts_reward_expectancy_bt,2022.2.4,Win32,59.03884756,Chrome,1536,864,,,,,,,,,,,,,,,,,,,,,,,146,B,hexagon,1,0,d,1.53,1,7,0,7,0,1,,,,,,,,,,,,,,,,,,,,,,,,,,,,,,,,,,,,,,,,,
294853,2022-12-04_23h23.52.357,vts_reward_expectancy_bt,2022.2.4,Win32,59.03884756,Chrome,1536,864,,,,,,,,,,,,,,,,,,,,,,,132,U,hexagon,1,0,d,2.2673,1,8,0,8,0,1,,,,,,,,,,,,,,,,,,,,,,,,,,,,,,,,,,,,,,,,,
294853,2022-12-04_23h23.52.357,vts_reward_expectancy_bt,2022.2.4,Win32,59.03884756,Chrome,1536,864,,,,,,,,,,,,,,,,,,,,,,,160,Y,circle,1,0,f,2.0757,1,9,0,9,0,1,,,,,,,,,,,,,,,,,,,,,,,,,,,,,,,,,,,,,,,,,
294853,2022-12-04_23h23.52.357,vts_reward_expectancy_bt,2022.2.4,Win32,59.03884756,Chrome,1536,864,,,,,,,,,,,,,,,,,,,,,,,174,S,triangle,0,0,,,2,,,,,,,0,0,0,0,1,,,,,,,,,,,,,,,,,,,,,,,,,,,,,,,,,,,
294853,2022-12-04_23h23.52.357,vts_reward_expectancy_bt,2022.2.4,Win32,59.03884756,Chrome,1536,864,,,,,,,,,,,,,,,,,,,,,,,125,W,circle,0,1,,,2,,,,,,,1,0,1,0,1,,,,,,,,,,,,,,,,,,,,,,,,,,,,,,,,,,,
294853,2022-12-04_23h23.52.357,vts_reward_expectancy_bt,2022.2.4,Win32,59.03884756,Chrome,1536,864,,,,,,,,,,,,,,,,,,,,,,,181,B,hexagon,0,1,,,2,,,,,,,2,0,2,0,1,,,,,,,,,,,,,,,,,,,,,,,,,,,,,,,,,,,
294853,2022-12-04_23h23.52.357,vts_reward_expectancy_bt,2022.2.4,Win32,59.03884756,Chrome,1536,864,,,,,,,,,,,,,,,,,,,,,,,139,H,star,0,1,,,2,,,,,,,3,0,3,0,1,,,,,,,,,,,,,,,,,,,,,,,,,,,,,,,,,,,
294853,2022-12-04_23h23.52.357,vts_reward_expectancy_bt,2022.2.4,Win32,59.03884756,Chrome,1536,864,,,,,,,,,,,,,,,,,,,,,,,167,F,triangle,0,1,,,2,,,,,,,4,0,4,0,1,,,,,,,,,,,,,,,,,,,,,,,,,,,,,,,,,,,
294853,2022-12-04_23h23.52.357,vts_reward_expectancy_bt,2022.2.4,Win32,59.03884756,Chrome,1536,864,,,,,,,,,,,,,,,,,,,,,,,160,U,circle,0,1,,,2,,,,,,,5,0,5,0,1,,,,,,,,,,,,,,,,,,,,,,,,,,,,,,,,,,,
294853,2022-12-04_23h23.52.357,vts_reward_expectancy_bt,2022.2.4,Win32,59.03884756,Chrome,1536,864,,,,,,,,,,,,,,,,,,,,,,,132,Y,hexagon,0,1,,,2,,,,,,,6,0,6,0,1,,,,,,,,,,,,,,,,,,,,,,,,,,,,,,,,,,,
294853,2022-12-04_23h23.52.357,vts_reward_expectancy_bt,2022.2.4,Win32,59.03884756,Chrome,1536,864,,,,,,,,,,,,,,,,,,,,,,,146,D,star,0,1,,,2,,,,,,,7,0,7,0,1,,,,,,,,,,,,,,,,,,,,,,,,,,,,,,,,,,,
294853,2022-12-04_23h23.52.357,vts_reward_expectancy_bt,2022.2.4,Win32,59.03884756,Chrome,1536,864,,,,,,,,,,,,,,,,,,,,,,,174,S,hexagon,0,1,,,2,,,,,,,8,0,8,0,1,,,,,,,,,,,,,,,,,,,,,,,,,,,,,,,,,,,
294853,2022-12-04_23h23.52.357,vts_reward_expectancy_bt,2022.2.4,Win32,59.03884756,Chrome,1536,864,,,,,,,,,,,,,,,,,,,,,,,125,W,triangle,0,1,,,2,,,,,,,9,0,9,0,1,,,,,,,,,,,,,,,,,,,,,,,,,,,,,,,,,,,
294853,2022-12-04_23h23.52.357,vts_reward_expectancy_bt,2022.2.4,Win32,59.03884756,Chrome,1536,864,,,,,,,,,,,,,,,,,,,,,,,181,D,hexagon,1,1,,,3,,,,,,j,0,0,0,0,1,0.7752,,,,,,,,,,,,,,,,,,,,,,,,,,,,,,,,,,
294853,2022-12-04_23h23.52.357,vts_reward_expectancy_bt,2022.2.4,Win32,59.03884756,Chrome,1536,864,,,,,,,,,,,,,,,,,,,,,,,139,Y,star,1,0,,,3,,,,,,k,1,0,1,0,1,0.6588,,,,,,,,,,,,,,,,,,,,,,,,,,,,,,,,,,
294853,2022-12-04_23h23.52.357,vts_reward_expectancy_bt,2022.2.4,Win32,59.03884756,Chrome,1536,864,,,,,,,,,,,,,,,,,,,,,,,125,W,triangle,1,0,,,3,,,,,,k,2,0,2,0,1,0.6867,,,,,,,,,,,,,,,,,,,,,,,,,,,,,,,,,,
294853,2022-12-04_23h23.52.357,vts_reward_expectancy_bt,2022.2.4,Win32,59.03884756,Chrome,1536,864,,,,,,,,,,,,,,,,,,,,,,,132,F,circle,1,0,,,3,,,,,,j,3,0,3,0,1,0.826,,,,,,,,,,,,,,,,,,,,,,,,,,,,,,,,,,
294853,2022-12-04_23h23.52.357,vts_reward_expectancy_bt,2022.2.4,Win32,59.03884756,Chrome,1536,864,,,,,,,,,,,,,,,,,,,,,,,146,U,hexagon,1,0,,,3,,,,,,k,4,0,4,0,1,0.8477,,,,,,,,,,,,,,,,,,,,,,,,,,,,,,,,,,
294853,2022-12-04_23h23.52.357,vts_reward_expectancy_bt,2022.2.4,Win32,59.03884756,Chrome,1536,864,,,,,,,,,,,,,,,,,,,,,,,167,B,star,1,0,,,3,,,,,,j,5,0,5,0,1,0.5598,,,,,,,,,,,,,,,,,,,,,,,,,,,,,,,,,,
294853,2022-12-04_23h23.52.357,vts_reward_expectancy_bt,2022.2.4,Win32,59.03884756,Chrome,1536,864,,,,,,,,,,,,,,,,,,,,,,,174,S,triangle,1,0,,,3,,,,,,k,6,0,6,0,1,1.1556,,,,,,,,,,,,,,,,,,,,,,,,,,,,,,,,,,
294853,2022-12-04_23h23.52.357,vts_reward_expectancy_bt,2022.2.4,Win32,59.03884756,Chrome,1536,864,,,,,,,,,,,,,,,,,,,,,,,160,H,circle,1,0,,,3,,,,,,j,7,0,7,0,1,0.8435,,,,,,,,,,,,,,,,,,,,,,,,,,,,,,,,,,
294853,2022-12-04_23h23.52.357,vts_reward_expectancy_bt,2022.2.4,Win32,59.03884756,Chrome,1536,864,,,,,,,,,,,,,,,,,,,,,,,181,D,star,1,0,,,3,,,,,,j,8,0,8,0,1,0.9802,,,,,,,,,,,,,,,,,,,,,,,,,,,,,,,,,,
294853,2022-12-04_23h23.52.357,vts_reward_expectancy_bt,2022.2.4,Win32,59.03884756,Chrome,1536,864,,,,,,,,,,,,,,,,,,,,,,,139,Y,circle,1,0,,,3,,,,,,k,9,0,9,0,1,1.8253,,,,,,,,,,,,,,,,,,,,,,,,,,,,,,,,,,
294853,2022-12-04_23h23.52.357,vts_reward_expectancy_bt,2022.2.4,Win32,59.03884756,Chrome,1536,864,,,,,0,756,,,,,,,,,,,,,,,,,125,H,triangle,1,0,,,4,,,,,,,,,,,,,-1,number,NA,d,1.4222,vtsPrac,0,0,0,0,1,,,,,,,,,,,,,,,,,,,,,,,
294853,2022-12-04_23h23.52.357,vts_reward_expectancy_bt,2022.2.4,Win32,59.03884756,Chrome,1536,864,,,,,0,756,,,,,,,,,,,,,,,,,160,B,circle,1,0,,,4,,,,,,,,,,,,,repeat,number,numRpt,f,2.2424,vtsPrac,1,0,1,0,1,,,,,,,,,,,,,,,,,,,,,,,
294853,2022-12-04_23h23.52.357,vts_reward_expectancy_bt,2022.2.4,Win32,59.03884756,Chrome,1536,864,,,,,0,756,,,,,,,,,,,,,,,,,146,W,triangle,1,0,,,4,,,,,,,,,,,,,repeat,number,numRpt,d,1.7943,vtsPrac,2,0,2,0,1,,,,,,,,,,,,,,,,,,,,,,,
294853,2022-12-04_23h23.52.357,vts_reward_expectancy_bt,2022.2.4,Win32,59.03884756,Chrome,1536,864,,,,,0,756,,,,,,,,,,,,,,,,,181,U,circle,1,0,,,4,,,,,,,,,,,,,repeat,number,numRpt,f,1.4284,vtsPrac,3,0,3,0,1,,,,,,,,,,,,,,,,,,,,,,,
294853,2022-12-04_23h23.52.357,vts_reward_expectancy_bt,2022.2.4,Win32,59.03884756,Chrome,1536,864,,,,,0,756,,,,,,,,,,,,,,,,,125,H,hexagon,1,0,,,4,,,,,,,,,,,,,repeat,number,numRpt,d,2.2248,vtsPrac,4,0,4,0,1,,,,,,,,,,,,,,,,,,,,,,,
294853,2022-12-04_23h23.52.357,vts_reward_expectancy_bt,2022.2.4,Win32,59.03884756,Chrome,1536,864,,,,,0,756,,,,,,,,,,,,,,,,,160,B,circle,1,0,,,4,,,,,,,,,,,,,repeat,number,numRpt,f,2.1083,vtsPrac,5,0,5,0,1,,,,,,,,,,,,,,,,,,,,,,,
294853,2022-12-04_23h23.52.357,vts_reward_expectancy_bt,2022.2.4,Win32,59.03884756,Chrome,1536,864,,,,,0,756,,,,,,,,,,,,,,,,,146,W,circle,1,0,,,4,,,,,,,,,,,,,repeat,number,numRpt,d,2.3073,vtsPrac,6,0,6,0,1,,,,,,,,,,,,,,,,,,,,,,,
294853,2022-12-04_23h23.52.357,vts_reward_expectancy_bt,2022.2.4,Win32,59.03884756,Chrome,1536,864,,,,,0,756,,,,,,,,,,,,,,,,,181,U,hexagon,1,0,,,4,,,,,,,,,,,,,repeat,number,numRpt,f,1.5915,vtsPrac,7,0,7,0,1,,,,,,,,,,,,,,,,,,,,,,,
294853,2022-12-04_23h23.52.357,vts_reward_expectancy_bt,2022.2.4,Win32,59.03884756,Chrome,1536,864,,,,,0,756,,,,,,,,,,,,,,,,,160,W,star,1,0,,,4,,,,,,,,,,,,,repeat,number,numRpt,f,1.3888,vtsPrac,8,0,8,0,1,,,,,,,,,,,,,,,,,,,,,,,
294853,2022-12-04_23h23.52.357,vts_reward_expectancy_bt,2022.2.4,Win32,59.03884756,Chrome,1536,864,,,,,0,756,,,,,,,,,,,,,,,,,125,Y,hexagon,1,0,,,4,,,,,,,,,,,,,repeat,number,numRpt,d,0.974,vtsPrac,9,0,9,0,1,,,,,,,,,,,,,,,,,,,,,,,
294853,2022-12-04_23h23.52.357,vts_reward_expectancy_bt,2022.2.4,Win32,59.03884756,Chrome,1536,864,,,,,0,756,,,,,,,,,,,,,,,,,174,B,hexagon,1,0,,,4,,,,,,,,,,,,,repeat,number,numRpt,f,1.1312,vtsPrac,10,0,10,0,1,,,,,,,,,,,,,,,,,,,,,,,
294853,2022-12-04_23h23.52.357,vts_reward_expectancy_bt,2022.2.4,Win32,59.03884756,Chrome,1536,864,,,,,0,756,,,,,,,,,,,,,,,,,139,D,triangle,1,0,,,4,,,,,,,,,,,,,repeat,number,numRpt,d,1.2033,vtsPrac,11,0,11,0,1,,,,,,,,,,,,,,,,,,,,,,,
294853,2022-12-04_23h23.52.357,vts_reward_expectancy_bt,2022.2.4,Win32,59.03884756,Chrome,1536,864,,,,,0,756,,,,,,,,,,,,,,,,,139,Y,circle,1,0,,,4,,,,,,,,,,,,,repeat,number,numRpt,d,0.9155,vtsPrac,12,0,12,0,1,,,,,,,,,,,,,,,,,,,,,,,
294853,2022-12-04_23h23.52.357,vts_reward_expectancy_bt,2022.2.4,Win32,59.03884756,Chrome,1536,864,,,,,0,756,,,,,,,,,,,,,,,,,146,H,star,1,0,,,4,,,,,,,,,,,,,repeat,number,numRpt,d,1.3939,vtsPrac,13,0,13,0,1,,,,,,,,,,,,,,,,,,,,,,,
294853,2022-12-04_23h23.52.357,vts_reward_expectancy_bt,2022.2.4,Win32,59.03884756,Chrome,1536,864,,,,,0,756,,,,,,,,,,,,,,,,,160,W,star,1,0,,,4,,,,,,,,,,,,,repeat,number,numRpt,f,1.9769,vtsPrac,14,0,14,0,1,,,,,,,,,,,,,,,,,,,,,,,
294853,2022-12-04_23h23.52.357,vts_reward_expectancy_bt,2022.2.4,Win32,59.03884756,Chrome,1536,864,,,,,0,756,,,,,,,,,,,,,,,,,125,S,triangle,1,0,,,4,,,,,,,,,,,,,repeat,number,numRpt,d,0.9093,vtsPrac,15,0,15,0,1,,,,,,,,,,,,,,,,,,,,,,,
294853,2022-12-04_23h23.52.357,vts_reward_expectancy_bt,2022.2.4,Win32,59.03884756,Chrome,1536,864,,,,,0,756,,,,,,,,,,,,,,,,,146,H,hexagon,1,0,,,4,,,,,,,,,,,,,repeat,number,numRpt,d,1.2616,vtsPrac,16,0,16,0,1,,,,,,,,,,,,,,,,,,,,,,,
294853,2022-12-04_23h23.52.357,vts_reward_expectancy_bt,2022.2.4,Win32,59.03884756,Chrome,1536,864,,,,,0,756,,,,,,,,,,,,,,,,,181,S,triangle,1,0,,,4,,,,,,,,,,,,,repeat,number,numRpt,f,2.0579,vtsPrac,17,0,17,0,1,,,,,,,,,,,,,,,,,,,,,,,
294853,2022-12-04_23h23.52.357,vts_reward_expectancy_bt,2022.2.4,Win32,59.03884756,Chrome,1536,864,,,,,0,756,,,,,,,,,,,,,,,,,174,Y,circle,1,0,,,4,,,,,,,,,,,,,repeat,number,numRpt,f,1.0589,vtsPrac,18,0,18,0,1,,,,,,,,,,,,,,,,,,,,,,,
294853,2022-12-04_23h23.52.357,vts_reward_expectancy_bt,2022.2.4,Win32,59.03884756,Chrome,1536,864,,,,,0,756,,,,,,,,,,,,,,,,,160,U,triangle,1,0,,,4,,,,,,,,,,,,,repeat,number,numRpt,f,0.8957,vtsPrac,19,0,19,0,1,,,,,,,,,,,,,,,,,,,,,,,
294853,2022-12-04_23h23.52.357,vts_reward_expectancy_bt,2022.2.4,Win32,59.03884756,Chrome,1536,864,,,,,0,756,,,,,,,,,,,,,,,,,139,D,hexagon,1,0,,,4,,,,,,,,,,,,,repeat,number,numRpt,d,0.8737,vtsPrac,20,0,20,0,1,,,,,,,,,,,,,,,,,,,,,,,
294853,2022-12-04_23h23.52.357,vts_reward_expectancy_bt,2022.2.4,Win32,59.03884756,Chrome,1536,864,,,,,0,756,,,,,,,,,,,,,,,,,160,F,star,1,0,,,4,,,,,,,,,,,,,repeat,number,numRpt,f,1.1164,vtsPrac,21,0,21,0,1,,,,,,,,,,,,,,,,,,,,,,,
294853,2022-12-04_23h23.52.357,vts_reward_expectancy_bt,2022.2.4,Win32,59.03884756,Chrome,1536,864,,,,,0,756,,,,,,,,,,,,,,,,,146,Y,triangle,1,0,,,4,,,,,,,,,,,,,switch,letter,lettSwt,k,0.9912,vtsPrac,22,0,22,0,1,,,,,,,,,,,,,,,,,,,,,,,
294853,2022-12-04_23h23.52.357,vts_reward_expectancy_bt,2022.2.4,Win32,59.03884756,Chrome,1536,864,,,,,0,756,,,,,,,,,,,,,,,,,125,B,hexagon,1,0,,,4,,,,,,,,,,,,,repeat,letter,lettRpt,j,0.7737,vtsPrac,23,0,23,0,1,,,,,,,,,,,,,,,,,,,,,,,
294853,2022-12-04_23h23.52.357,vts_reward_expectancy_bt,2022.2.4,Win32,59.03884756,Chrome,1536,864,,,,,0,756,,,,,,,,,,,,,,,,,167,B,triangle,1,0,,,4,,,,,,,,,,,,,repeat,letter,lettRpt,j,0.8653,vtsPrac,24,0,24,0,1,,,,,,,,,,,,,,,,,,,,,,,
294853,2022-12-04_23h23.52.357,vts_reward_expectancy_bt,2022.2.4,Win32,59.03884756,Chrome,1536,864,,,,,0,756,,,,,,,,,,,,,,,,,174,F,circle,1,0,,,4,,,,,,,,,,,,,repeat,letter,lettRpt,j,1.2608,vtsPrac,25,0,25,0,1,,,,,,,,,,,,,,,,,,,,,,,
294853,2022-12-04_23h23.52.357,vts_reward_expectancy_bt,2022.2.4,Win32,59.03884756,Chrome,1536,864,,,,,0,756,,,,,,,,,,,,,,,,,139,S,hexagon,1,0,,,4,,,,,,,,,,,,,repeat,letter,lettRpt,k,0.8087,vtsPrac,26,0,26,0,1,,,,,,,,,,,,,,,,,,,,,,,
294853,2022-12-04_23h23.52.357,vts_reward_expectancy_bt,2022.2.4,Win32,59.03884756,Chrome,1536,864,,,,,0,756,,,,,,,,,,,,,,,,,181,D,star,1,0,,,4,,,,,,,,,,,,,repeat,letter,lettRpt,j,0.9429,vtsPrac,27,0,27,0,1,,,,,,,,,,,,,,,,,,,,,,,
294853,2022-12-04_23h23.52.357,vts_reward_expectancy_bt,2022.2.4,Win32,59.03884756,Chrome,1536,864,,,,,0,756,,,,,,,,,,,,,,,,,139,H,circle,1,0,,,4,,,,,,,,,,,,,repeat,letter,lettRpt,j,0.9662,vtsPrac,28,0,28,0,1,,,,,,,,,,,,,,,,,,,,,,,
294853,2022-12-04_23h23.52.357,vts_reward_expectancy_bt,2022.2.4,Win32,59.03884756,Chrome,1536,864,,,,,0,756,,,,,,,,,,,,,,,,,132,Y,star,1,0,,,4,,,,,,,,,,,,,repeat,letter,lettRpt,k,0.7593,vtsPrac,29,0,29,0,1,,,,,,,,,,,,,,,,,,,,,,,
294853,2022-12-04_23h23.52.357,vts_reward_expectancy_bt,2022.2.4,Win32,59.03884756,Chrome,1536,864,,,,,0,756,,,,,,,,,,,,,,,,,146,W,circle,1,0,,,4,,,,,,,,,,,,,repeat,letter,lettRpt,k,0.7895,vtsPrac,30,0,30,0,1,,,,,,,,,,,,,,,,,,,,,,,
294853,2022-12-04_23h23.52.357,vts_reward_expectancy_bt,2022.2.4,Win32,59.03884756,Chrome,1536,864,,,,,0,756,,,,,,,,,,,,,,,,,174,F,triangle,1,0,,,4,,,,,,,,,,,,,repeat,letter,lettRpt,j,0.7612,vtsPrac,31,0,31,0,1,,,,,,,,,,,,,,,,,,,,,,,
294853,2022-12-04_23h23.52.357,vts_reward_expectancy_bt,2022.2.4,Win32,59.03884756,Chrome,1536,864,,,,,0,756,,,,,,,,,,,,,,,,,125,U,triangle,-1,0,,,5,,,,,,,,,,,,,switch,no_choice,NA,,,vtsPrac,0,0,0,0,1,,,,,,,,,,,,,,,,,,,,,,,
294853,2022-12-04_23h23.52.357,vts_reward_expectancy_bt,2022.2.4,Win32,59.03884756,Chrome,1536,864,,,,,0,756,,,,,,,,,,,,,,,,,174,W,circle,1,0,,,5,,,,,,,,,,,,,switch,number,numSwt,f,1.0513,vtsPrac,1,0,1,0,1,,,,,,,,,,,,,,,,,,,,,,,
294853,2022-12-04_23h23.52.357,vts_reward_expectancy_bt,2022.2.4,Win32,59.03884756,Chrome,1536,864,,,,,0,756,,,,,,,,,,,,,,,,,139,B,triangle,1,0,,,5,,,,,,,,,,,,,switch,letter,lettSwt,j,1.2613,vtsPrac,2,0,2,0,1,,,,,,,,,,,,,,,,,,,,,,,
294853,2022-12-04_23h23.52.357,vts_reward_expectancy_bt,2022.2.4,Win32,59.03884756,Chrome,1536,864,,,,,0,756,,,,,,,,,,,,,,,,,132,H,circle,1,0,,,5,,,,,,,,,,,,,repeat,letter,lettRpt,j,1.2912,vtsPrac,3,0,3,0,1,,,,,,,,,,,,,,,,,,,,,,,
294853,2022-12-04_23h23.52.357,vts_reward_expectancy_bt,2022.2.4,Win32,59.03884756,Chrome,1536,864,,,,,0,756,,,,,,,,,,,,,,,,,125,U,triangle,1,0,,,5,,,,,,,,,,,,,switch,number,numSwt,d,1.0965,vtsPrac,4,0,4,0,1,,,,,,,,,,,,,,,,,,,,,,,
294853,2022-12-04_23h23.52.357,vts_reward_expectancy_bt,2022.2.4,Win32,59.03884756,Chrome,1536,864,,,,,0,756,,,,,,,,,,,,,,,,,174,W,star,1,0,,,5,,,,,,,,,,,,,repeat,number,numRpt,f,0.677,vtsPrac,5,0,5,0,1,,,,,,,,,,,,,,,,,,,,,,,
294853,2022-12-04_23h23.52.357,vts_reward_expectancy_bt,2022.2.4,Win32,59.03884756,Chrome,1536,864,,,,,0,756,,,,,,,,,,,,,,,,,139,B,star,1,0,,,5,,,,,,,,,,,,,switch,letter,lettSwt,j,0.5473,vtsPrac,6,0,6,0,1,,,,,,,,,,,,,,,,,,,,,,,
294853,2022-12-04_23h23.52.357,vts_reward_expectancy_bt,2022.2.4,Win32,59.03884756,Chrome,1536,864,,,,,0,756,,,,,,,,,,,,,,,,,132,H,triangle,1,0,,,5,,,,,,,,,,,,,repeat,letter,lettRpt,j,0.7896,vtsPrac,7,0,7,0,1,,,,,,,,,,,,,,,,,,,,,,,
294853,2022-12-04_23h23.52.357,vts_reward_expectancy_bt,2022.2.4,Win32,59.03884756,Chrome,1536,864,,,,,0,756,,,,,,,,,,,,,,,,,167,U,hexagon,0,0,,,5,,,,,,,,,,,,,switch,number,NA,d,2.5268,vtsPrac,8,0,8,0,1,,,,,,,,,,,,,,,,,,,,,,,
294853,2022-12-04_23h23.52.357,vts_reward_expectancy_bt,2022.2.4,Win32,59.03884756,Chrome,1536,864,,,,,0,756,,,,,,,,,,,,,,,,,160,Y,triangle,1,1,,,5,,,,,,,,,,,,,switch,letter,lettSwt,k,1.3279,vtsPrac,9,0,9,0,1,,,,,,,,,,,,,,,,,,,,,,,
294853,2022-12-04_23h23.52.357,vts_reward_expectancy_bt,2022.2.4,Win32,59.03884756,Chrome,1536,864,,,,,0,756,,,,,,,,,,,,,,,,,132,S,star,-1,0,,,5,,,,,,,,,,,,,switch,no_choice,NA,,,vtsPrac,10,0,10,0,1,,,,,,,,,,,,,,,,,,,,,,,
294853,2022-12-04_23h23.52.357,vts_reward_expectancy_bt,2022.2.4,Win32,59.03884756,Chrome,1536,864,,,,,0,756,,,,,,,,,,,,,,,,,174,W,hexagon,1,0,,,5,,,,,,,,,,,,,switch,number,numSwt,f,1.017,vtsPrac,11,0,11,0,1,,,,,,,,,,,,,,,,,,,,,,,
294853,2022-12-04_23h23.52.357,vts_reward_expectancy_bt,2022.2.4,Win32,59.03884756,Chrome,1536,864,,,,,0,756,,,,,,,,,,,,,,,,,181,H,hexagon,1,0,,,5,,,,,,,,,,,,,repeat,number,numRpt,f,0.7088,vtsPrac,12,0,12,0,1,,,,,,,,,,,,,,,,,,,,,,,
294853,2022-12-04_23h23.52.357,vts_reward_expectancy_bt,2022.2.4,Win32,59.03884756,Chrome,1536,864,,,,,0,756,,,,,,,,,,,,,,,,,174,F,star,1,0,,,5,,,,,,,,,,,,,repeat,number,numRpt,f,0.8003,vtsPrac,13,0,13,0,1,,,,,,,,,,,,,,,,,,,,,,,
294853,2022-12-04_23h23.52.357,vts_reward_expectancy_bt,2022.2.4,Win32,59.03884756,Chrome,1536,864,,,,,0,756,,,,,,,,,,,,,,,,,132,S,hexagon,1,0,,,5,,,,,,,,,,,,,switch,letter,lettSwt,k,1.3681,vtsPrac,14,0,14,0,1,,,,,,,,,,,,,,,,,,,,,,,
294853,2022-12-04_23h23.52.357,vts_reward_expectancy_bt,2022.2.4,Win32,59.03884756,Chrome,1536,864,,,,,0,756,,,,,,,,,,,,,,,,,167,U,triangle,1,0,,,5,,,,,,,,,,,,,repeat,letter,lettRpt,k,1.0782,vtsPrac,15,0,15,0,1,,,,,,,,,,,,,,,,,,,,,,,
294853,2022-12-04_23h23.52.357,vts_reward_expectancy_bt,2022.2.4,Win32,59.03884756,Chrome,1536,864,,,,,0,756,,,,,,,,,,,,,,,,,160,F,circle,1,0,,,5,,,,,,,,,,,,,switch,number,numSwt,f,1.1671,vtsPrac,16,0,16,0,1,,,,,,,,,,,,,,,,,,,,,,,
294853,2022-12-04_23h23.52.357,vts_reward_expectancy_bt,2022.2.4,Win32,59.03884756,Chrome,1536,864,,,,,0,756,,,,,,,,,,,,,,,,,181,W,star,1,0,,,5,,,,,,,,,,,,,repeat,number,numRpt,f,1.6332,vtsPrac,17,0,17,0,1,,,,,,,,,,,,,,,,,,,,,,,
294853,2022-12-04_23h23.52.357,vts_reward_expectancy_bt,2022.2.4,Win32,59.03884756,Chrome,1536,864,,,,,0,756,,,,,,,,,,,,,,,,,132,H,circle,1,0,,,5,,,,,,,,,,,,,switch,letter,lettSwt,j,1.114,vtsPrac,18,0,18,0,1,,,,,,,,,,,,,,,,,,,,,,,
294853,2022-12-04_23h23.52.357,vts_reward_expectancy_bt,2022.2.4,Win32,59.03884756,Chrome,1536,864,,,,,0,756,,,,,,,,,,,,,,,,,174,U,hexagon,1,0,,,5,,,,,,,,,,,,,repeat,letter,lettRpt,k,1.165,vtsPrac,19,0,19,0,1,,,,,,,,,,,,,,,,,,,,,,,
294853,2022-12-04_23h23.52.357,vts_reward_expectancy_bt,2022.2.4,Win32,59.03884756,Chrome,1536,864,,,,,0,756,,,,,,,,,,,,,,,,,139,U,triangle,1,0,,,5,,,,,,,,,,,,,switch,number,numSwt,d,1.0089,vtsPrac,20,0,20,0,1,,,,,,,,,,,,,,,,,,,,,,,
294853,2022-12-04_23h23.52.357,vts_reward_expectancy_bt,2022.2.4,Win32,59.03884756,Chrome,1536,864,,,,,0,756,,,,,,,,,,,,,,,,,181,W,circle,1,0,,,5,,,,,,,,,,,,,repeat,number,numRpt,f,0.5549,vtsPrac,21,0,21,0,1,,,,,,,,,,,,,,,,,,,,,,,
294853,2022-12-04_23h23.52.357,vts_reward_expectancy_bt,2022.2.4,Win32,59.03884756,Chrome,1536,864,,,,,0,756,,,,,,,,,,,,,,,,,132,H,circle,1,0,,,5,,,,,,,,,,,,,switch,letter,lettSwt,j,1.1433,vtsPrac,22,0,22,0,1,,,,,,,,,,,,,,,,,,,,,,,
294853,2022-12-04_23h23.52.357,vts_reward_expectancy_bt,2022.2.4,Win32,59.03884756,Chrome,1536,864,,,,,0,756,,,,,,,,,,,,,,,,,160,S,star,1,0,,,5,,,,,,,,,,,,,repeat,letter,lettRpt,k,1.181,vtsPrac,23,0,23,0,1,,,,,,,,,,,,,,,,,,,,,,,
294853,2022-12-04_23h23.52.357,vts_reward_expectancy_bt,2022.2.4,Win32,59.03884756,Chrome,1536,864,,,,,0,756,,,,,,,,,,,,,,,,,146,H,hexagon,1,0,,,5,,,,,,,,,,,,,switch,number,numSwt,d,2.3143,vtsPrac,24,0,24,0,1,,,,,,,,,,,,,,,,,,,,,,,
294853,2022-12-04_23h23.52.357,vts_reward_expectancy_bt,2022.2.4,Win32,59.03884756,Chrome,1536,864,,,,,0,756,,,,,,,,,,,,,,,,,181,U,star,1,0,,,5,,,,,,,,,,,,,repeat,number,numRpt,f,0.7695,vtsPrac,25,0,25,0,1,,,,,,,,,,,,,,,,,,,,,,,
294853,2022-12-04_23h23.52.357,vts_reward_expectancy_bt,2022.2.4,Win32,59.03884756,Chrome,1536,864,,,,,0,756,,,,,,,,,,,,,,,,,174,W,circle,1,0,,,5,,,,,,,,,,,,,switch,letter,lettSwt,k,2.4682,vtsPrac,26,0,26,0,1,,,,,,,,,,,,,,,,,,,,,,,
294853,2022-12-04_23h23.52.357,vts_reward_expectancy_bt,2022.2.4,Win32,59.03884756,Chrome,1536,864,,,,,0,756,,,,,,,,,,,,,,,,,160,F,star,1,0,,,5,,,,,,,,,,,,,repeat,letter,lettRpt,j,2.0503,vtsPrac,27,0,27,0,1,,,,,,,,,,,,,,,,,,,,,,,
294853,2022-12-04_23h23.52.357,vts_reward_expectancy_bt,2022.2.4,Win32,59.03884756,Chrome,1536,864,,,,,0,756,,,,,,,,,,,,,,,,,139,D,circle,1,0,,,5,,,,,,,,,,,,,switch,number,numSwt,d,1.3121,vtsPrac,28,0,28,0,1,,,,,,,,,,,,,,,,,,,,,,,
294853,2022-12-04_23h23.52.357,vts_reward_expectancy_bt,2022.2.4,Win32,59.03884756,Chrome,1536,864,,,,,0,756,,,,,,,,,,,,,,,,,146,B,hexagon,1,0,,,5,,,,,,,,,,,,,repeat,number,numRpt,d,1.2979,vtsPrac,29,0,29,0,1,,,,,,,,,,,,,,,,,,,,,,,
294853,2022-12-04_23h23.52.357,vts_reward_expectancy_bt,2022.2.4,Win32,59.03884756,Chrome,1536,864,,,,,0,756,,,,,,,,,,,,,,,,,167,U,hexagon,1,0,,,5,,,,,,,,,,,,,switch,letter,lettSwt,k,1.2272,vtsPrac,30,0,30,0,1,,,,,,,,,,,,,,,,,,,,,,,
294853,2022-12-04_23h23.52.357,vts_reward_expectancy_bt,2022.2.4,Win32,59.03884756,Chrome,1536,864,,,,,0,756,,,,,,,,,,,,,,,,,125,F,triangle,1,0,,,5,,,,,,,,,,,,,repeat,letter,lettRpt,j,1.2086,vtsPrac,31,0,31,0,1,,,,,,,,,,,,,,,,,,,,,,,
294853,2022-12-04_23h23.52.357,vts_reward_expectancy_bt,2022.2.4,Win32,59.03884756,Chrome,1536,864,,,,,,,,,,,,,,,,,,,,,,,,,,,,,,,,,,,,,,,,,,,,,,,,,,,,,,,,,,,,,,,,,,,,,,,,,,,,
294853,2022-12-04_23h23.52.357,vts_reward_expectancy_bt,2022.2.4,Win32,59.03884756,Chrome,1536,864,,,,,,,,,,,,,,,,,,,,,,,,,,,,,,,,,,,,,,,,,,,,,,,,,,,,,,,,,,,,,,,,,,,,,,,,,,,,
294853,2022-12-04_23h23.52.357,vts_reward_expectancy_bt,2022.2.4,Win32,59.03884756,Chrome,1536,864,,,,,0,756,,,,,,,,,,,,,,,,,125,W,triangle,1,0,,,,,,,,,,,,,,,,switch,number,numSwt,d,1.9244,noRew,,,,,,0,0,0,0,0,1,,,,,,,,,,,,,,,,,
294853,2022-12-04_23h23.52.357,vts_reward_expectancy_bt,2022.2.4,Win32,59.03884756,Chrome,1536,864,,,,,0,756,,,,,,,,,,,,,,,,,146,U,hexagon,0,0,,,,,,,,,,,,,,,,repeat,number,NA,f,0.8427,noRew,,,,,,0,1,0,1,0,1,,,,,,,,,,,,,,,,,
294853,2022-12-04_23h23.52.357,vts_reward_expectancy_bt,2022.2.4,Win32,59.03884756,Chrome,1536,864,,,,,0,756,,,,,,,,,,,,,,,,,160,Y,triangle,0,1,,,,,,,,,,,,,,,,repeat,number,NA,d,1.6228,noRew,,,,,,0,2,0,2,0,1,,,,,,,,,,,,,,,,,
294853,2022-12-04_23h23.52.357,vts_reward_expectancy_bt,2022.2.4,Win32,59.03884756,Chrome,1536,864,,,,,0,756,,,,,,,,,,,,,,,,,181,B,hexagon,1,1,,,,,,,,,,,,,,,,switch,letter,lettSwt,j,0.6933,noRew,,,,,,0,3,0,3,0,1,,,,,,,,,,,,,,,,,
294853,2022-12-04_23h23.52.357,vts_reward_expectancy_bt,2022.2.4,Win32,59.03884756,Chrome,1536,864,,,,,0,756,,,,,,,,,,,,,,,,,125,W,star,1,0,,,,,,,,,,,,,,,,repeat,letter,lettRpt,k,1.1081,noRew,,,,,,0,4,0,4,0,1,,,,,,,,,,,,,,,,,
294853,2022-12-04_23h23.52.357,vts_reward_expectancy_bt,2022.2.4,Win32,59.03884756,Chrome,1536,864,,,,,0,756,,,,,,,,,,,,,,,,,146,U,circle,1,0,,,,,,,,,,,,,,,,switch,number,numSwt,d,2.095,noRew,,,,,,0,5,0,5,0,1,,,,,,,,,,,,,,,,,
294853,2022-12-04_23h23.52.357,vts_reward_expectancy_bt,2022.2.4,Win32,59.03884756,Chrome,1536,864,,,,,0,756,,,,,,,,,,,,,,,,,160,Y,triangle,1,0,,,,,,,,,,,,,,,,repeat,number,numRpt,f,2.1097,noRew,,,,,,0,6,0,6,0,1,,,,,,,,,,,,,,,,,
294853,2022-12-04_23h23.52.357,vts_reward_expectancy_bt,2022.2.4,Win32,59.03884756,Chrome,1536,864,,,,,0,756,,,,,,,,,,,,,,,,,181,B,hexagon,1,0,,,,,,,,,,,,,,,,switch,letter,lettSwt,j,0.8087,noRew,,,,,,0,7,0,7,0,1,,,,,,,,,,,,,,,,,
294853,2022-12-04_23h23.52.357,vts_reward_expectancy_bt,2022.2.4,Win32,59.03884756,Chrome,1536,864,,,,,0,756,,,,,,,,,,,,,,,,,160,B,triangle,1,0,,,,,,,,,,,,,,,,repeat,letter,lettRpt,j,0.7814,noRew,,,,,,0,8,0,8,0,1,,,,,,,,,,,,,,,,,
294853,2022-12-04_23h23.52.357,vts_reward_expectancy_bt,2022.2.4,Win32,59.03884756,Chrome,1536,864,,,,,0,756,,,,,,,,,,,,,,,,,139,D,hexagon,1,0,,,,,,,,,,,,,,,,switch,number,numSwt,d,1.5896,noRew,,,,,,0,9,0,9,0,1,,,,,,,,,,,,,,,,,
294853,2022-12-04_23h23.52.357,vts_reward_expectancy_bt,2022.2.4,Win32,59.03884756,Chrome,1536,864,,,,,0,756,,,,,,,,,,,,,,,,,125,Y,star,1,0,,,,,,,,,,,,,,,,repeat,number,numRpt,d,0.6168,noRew,,,,,,0,10,0,10,0,1,,,,,,,,,,,,,,,,,
294853,2022-12-04_23h23.52.357,vts_reward_expectancy_bt,2022.2.4,Win32,59.03884756,Chrome,1536,864,,,,,0,756,,,,,,,,,,,,,,,,,146,F,hexagon,1,0,,,,,,,,,,,,,,,,switch,letter,lettSwt,j,1.1536,noRew,,,,,,0,11,0,11,0,1,,,,,,,,,,,,,,,,,
294853,2022-12-04_23h23.52.357,vts_reward_expectancy_bt,2022.2.4,Win32,59.03884756,Chrome,1536,864,,,,,0,756,,,,,,,,,,,,,,,,,181,U,star,1,0,,,,,,,,,,,,,,,,repeat,letter,lettRpt,k,1.1329,noRew,,,,,,0,12,0,12,0,1,,,,,,,,,,,,,,,,,
294853,2022-12-04_23h23.52.357,vts_reward_expectancy_bt,2022.2.4,Win32,59.03884756,Chrome,1536,864,,,,,0,756,,,,,,,,,,,,,,,,,132,B,hexagon,1,0,,,,,,,,,,,,,,,,switch,number,numSwt,d,1.5161,noRew,,,,,,0,13,0,13,0,1,,,,,,,,,,,,,,,,,
294853,2022-12-04_23h23.52.357,vts_reward_expectancy_bt,2022.2.4,Win32,59.03884756,Chrome,1536,864,,,,,0,756,,,,,,,,,,,,,,,,,174,D,circle,1,0,,,,,,,,,,,,,,,,repeat,number,numRpt,f,0.7933,noRew,,,,,,0,14,0,14,0,1,,,,,,,,,,,,,,,,,
294853,2022-12-04_23h23.52.357,vts_reward_expectancy_bt,2022.2.4,Win32,59.03884756,Chrome,1536,864,,,,,0,756,,,,,,,,,,,,,,,,,125,H,hexagon,1,0,,,,,,,,,,,,,,,,switch,letter,lettSwt,j,1.4776,noRew,,,,,,0,15,0,15,0,1,,,,,,,,,,,,,,,,,
294853,2022-12-04_23h23.52.357,vts_reward_expectancy_bt,2022.2.4,Win32,59.03884756,Chrome,1536,864,,,,,0,756,,,,,,,,,,,,,,,,,125,U,triangle,1,0,,,,,,,,,,,,,,,,repeat,letter,lettRpt,k,1.3323,noRew,,,,,,0,16,0,16,0,1,,,,,,,,,,,,,,,,,
294853,2022-12-04_23h23.52.357,vts_reward_expectancy_bt,2022.2.4,Win32,59.03884756,Chrome,1536,864,,,,,0,756,,,,,,,,,,,,,,,,,146,H,circle,1,0,,,,,,,,,,,,,,,,switch,number,numSwt,d,2.9453,noRew,,,,,,0,17,0,17,0,1,,,,,,,,,,,,,,,,,
294853,2022-12-04_23h23.52.357,vts_reward_expectancy_bt,2022.2.4,Win32,59.03884756,Chrome,1536,864,,,,,0,756,,,,,,,,,,,,,,,,,167,D,circle,1,0,,,,,,,,,,,,,,,,repeat,number,numRpt,f,1.5957,noRew,,,,,,0,18,0,18,0,1,,,,,,,,,,,,,,,,,
294853,2022-12-04_23h23.52.357,vts_reward_expectancy_bt,2022.2.4,Win32,59.03884756,Chrome,1536,864,,,,,0,756,,,,,,,,,,,,,,,,,132,Y,hexagon,1,0,,,,,,,,,,,,,,,,switch,letter,lettSwt,k,1.425,noRew,,,,,,0,19,0,19,0,1,,,,,,,,,,,,,,,,,
294853,2022-12-04_23h23.52.357,vts_reward_expectancy_bt,2022.2.4,Win32,59.03884756,Chrome,1536,864,,,,,0,756,,,,,,,,,,,,,,,,,167,S,circle,1,0,,,,,,,,,,,,,,,,repeat,letter,lettRpt,k,1.0853,noRew,,,,,,0,20,0,20,0,1,,,,,,,,,,,,,,,,,
294853,2022-12-04_23h23.52.357,vts_reward_expectancy_bt,2022.2.4,Win32,59.03884756,Chrome,1536,864,,,,,0,756,,,,,,,,,,,,,,,,,181,W,triangle,1,0,,,,,,,,,,,,,,,,switch,number,numSwt,f,0.9703,noRew,,,,,,0,21,0,21,0,1,,,,,,,,,,,,,,,,,
294853,2022-12-04_23h23.52.357,vts_reward_expectancy_bt,2022.2.4,Win32,59.03884756,Chrome,1536,864,,,,,0,756,,,,,,,,,,,,,,,,,139,B,circle,1,0,,,,,,,,,,,,,,,,repeat,number,numRpt,d,0.7813,noRew,,,,,,0,22,0,22,0,1,,,,,,,,,,,,,,,,,
294853,2022-12-04_23h23.52.357,vts_reward_expectancy_bt,2022.2.4,Win32,59.03884756,Chrome,1536,864,,,,,0,756,,,,,,,,,,,,,,,,,125,U,triangle,1,0,,,,,,,,,,,,,,,,switch,letter,lettSwt,k,0.926,noRew,,,,,,0,23,0,23,0,1,,,,,,,,,,,,,,,,,
294853,2022-12-04_23h23.52.357,vts_reward_expectancy_bt,2022.2.4,Win32,59.03884756,Chrome,1536,864,,,,,0,756,,,,,,,,,,,,,,,,,167,F,hexagon,1,0,,,,,,,,,,,,,,,,repeat,letter,lettRpt,j,0.9634,noRew,,,,,,0,24,0,24,0,1,,,,,,,,,,,,,,,,,
294853,2022-12-04_23h23.52.357,vts_reward_expectancy_bt,2022.2.4,Win32,59.03884756,Chrome,1536,864,,,,,0,756,,,,,,,,,,,,,,,,,174,W,circle,1,0,,,,,,,,,,,,,,,,switch,number,numSwt,f,1.5641,noRew,,,,,,0,25,0,25,0,1,,,,,,,,,,,,,,,,,
294853,2022-12-04_23h23.52.357,vts_reward_expectancy_bt,2022.2.4,Win32,59.03884756,Chrome,1536,864,,,,,0,756,,,,,,,,,,,,,,,,,132,D,hexagon,1,0,,,,,,,,,,,,,,,,repeat,number,numRpt,d,1.4575,noRew,,,,,,0,26,0,26,0,1,,,,,,,,,,,,,,,,,
294853,2022-12-04_23h23.52.357,vts_reward_expectancy_bt,2022.2.4,Win32,59.03884756,Chrome,1536,864,,,,,0,756,,,,,,,,,,,,,,,,,181,U,star,1,0,,,,,,,,,,,,,,,,switch,letter,lettSwt,k,1.082,noRew,,,,,,0,27,0,27,0,1,,,,,,,,,,,,,,,,,
294853,2022-12-04_23h23.52.357,vts_reward_expectancy_bt,2022.2.4,Win32,59.03884756,Chrome,1536,864,,,,,0,756,,,,,,,,,,,,,,,,,125,Y,star,1,0,,,,,,,,,,,,,,,,repeat,letter,lettRpt,k,0.9966,noRew,,,,,,0,28,0,28,0,1,,,,,,,,,,,,,,,,,
294853,2022-12-04_23h23.52.357,vts_reward_expectancy_bt,2022.2.4,Win32,59.03884756,Chrome,1536,864,,,,,0,756,,,,,,,,,,,,,,,,,146,F,hexagon,1,0,,,,,,,,,,,,,,,,switch,number,numSwt,d,2.167,noRew,,,,,,0,29,0,29,0,1,,,,,,,,,,,,,,,,,
294853,2022-12-04_23h23.52.357,vts_reward_expectancy_bt,2022.2.4,Win32,59.03884756,Chrome,1536,864,,,,,0,756,,,,,,,,,,,,,,,,,132,U,triangle,1,0,,,,,,,,,,,,,,,,repeat,number,numRpt,d,2.1277,noRew,,,,,,0,30,0,30,0,1,,,,,,,,,,,,,,,,,
294853,2022-12-04_23h23.52.357,vts_reward_expectancy_bt,2022.2.4,Win32,59.03884756,Chrome,1536,864,,,,,0,756,,,,,,,,,,,,,,,,,174,H,circle,-1,0,,,,,,,,,,,,,,,,switch,no_choice,NA,,,noRew,,,,,,0,31,0,31,0,1,,,,,,,,,,,,,,,,,
294853,2022-12-04_23h23.52.357,vts_reward_expectancy_bt,2022.2.4,Win32,59.03884756,Chrome,1536,864,,,,,0,756,,,,,,,,,,,,,,,,,160,H,triangle,1,0,,,,,,,,,,,,,,,,switch,letter,lettSwt,j,0.8377,noRew,,,,,,0,32,0,32,0,1,,,,,,,,,,,,,,,,,
294853,2022-12-04_23h23.52.357,vts_reward_expectancy_bt,2022.2.4,Win32,59.03884756,Chrome,1536,864,,,,,0,756,,,,,,,,,,,,,,,,,167,F,hexagon,1,0,,,,,,,,,,,,,,,,repeat,letter,lettRpt,j,2.3638,noRew,,,,,,0,33,0,33,0,1,,,,,,,,,,,,,,,,,
294853,2022-12-04_23h23.52.357,vts_reward_expectancy_bt,2022.2.4,Win32,59.03884756,Chrome,1536,864,,,,,0,756,,,,,,,,,,,,,,,,,132,B,triangle,1,0,,,,,,,,,,,,,,,,switch,number,numSwt,d,1.6642,noRew,,,,,,0,34,0,34,0,1,,,,,,,,,,,,,,,,,
294853,2022-12-04_23h23.52.357,vts_reward_expectancy_bt,2022.2.4,Win32,59.03884756,Chrome,1536,864,,,,,0,756,,,,,,,,,,,,,,,,,139,S,circle,1,0,,,,,,,,,,,,,,,,repeat,number,numRpt,d,1.8107,noRew,,,,,,0,35,0,35,0,1,,,,,,,,,,,,,,,,,
294853,2022-12-04_23h23.52.357,vts_reward_expectancy_bt,2022.2.4,Win32,59.03884756,Chrome,1536,864,,,,,0,756,,,,,,,,,,,,,,,,,174,D,hexagon,1,0,,,,,,,,,,,,,,,,switch,letter,lettSwt,j,2.2268,noRew,,,,,,0,36,0,36,0,1,,,,,,,,,,,,,,,,,
294853,2022-12-04_23h23.52.357,vts_reward_expectancy_bt,2022.2.4,Win32,59.03884756,Chrome,1536,864,,,,,0,756,,,,,,,,,,,,,,,,,181,B,star,1,0,,,,,,,,,,,,,,,,repeat,letter,lettRpt,j,1.6903,noRew,,,,,,0,37,0,37,0,1,,,,,,,,,,,,,,,,,
294853,2022-12-04_23h23.52.357,vts_reward_expectancy_bt,2022.2.4,Win32,59.03884756,Chrome,1536,864,,,,,0,756,,,,,,,,,,,,,,,,,139,Y,hexagon,1,0,,,,,,,,,,,,,,,,switch,number,numSwt,d,1.7175,noRew,,,,,,0,38,0,38,0,1,,,,,,,,,,,,,,,,,
294853,2022-12-04_23h23.52.357,vts_reward_expectancy_bt,2022.2.4,Win32,59.03884756,Chrome,1536,864,,,,,0,756,,,,,,,,,,,,,,,,,132,F,star,1,0,,,,,,,,,,,,,,,,repeat,number,numRpt,d,1.3691,noRew,,,,,,0,39,0,39,0,1,,,,,,,,,,,,,,,,,
294853,2022-12-04_23h23.52.357,vts_reward_expectancy_bt,2022.2.4,Win32,59.03884756,Chrome,1536,864,,,,,0,756,,,,,,,,,,,,,,,,,139,B,circle,1,0,,,,,,,,,,,,,,,,switch,letter,lettSwt,j,1.2503,noRew,,,,,,0,40,0,40,0,1,,,,,,,,,,,,,,,,,
294853,2022-12-04_23h23.52.357,vts_reward_expectancy_bt,2022.2.4,Win32,59.03884756,Chrome,1536,864,,,,,0,756,,,,,,,,,,,,,,,,,146,F,triangle,1,0,,,,,,,,,,,,,,,,repeat,letter,lettRpt,j,2.2313,noRew,,,,,,0,41,0,41,0,1,,,,,,,,,,,,,,,,,
294853,2022-12-04_23h23.52.357,vts_reward_expectancy_bt,2022.2.4,Win32,59.03884756,Chrome,1536,864,,,,,0,756,,,,,,,,,,,,,,,,,167,D,circle,1,0,,,,,,,,,,,,,,,,switch,number,numSwt,f,2.2289,noRew,,,,,,0,42,0,42,0,1,,,,,,,,,,,,,,,,,
294853,2022-12-04_23h23.52.357,vts_reward_expectancy_bt,2022.2.4,Win32,59.03884756,Chrome,1536,864,,,,,0,756,,,,,,,,,,,,,,,,,125,H,hexagon,1,0,,,,,,,,,,,,,,,,repeat,number,numRpt,d,2.1879,noRew,,,,,,0,43,0,43,0,1,,,,,,,,,,,,,,,,,
294853,2022-12-04_23h23.52.357,vts_reward_expectancy_bt,2022.2.4,Win32,59.03884756,Chrome,1536,864,,,,,0,756,,,,,,,,,,,,,,,,,167,W,circle,1,0,,,,,,,,,,,,,,,,switch,letter,lettSwt,k,1.5178,noRew,,,,,,0,44,0,44,0,1,,,,,,,,,,,,,,,,,
294853,2022-12-04_23h23.52.357,vts_reward_expectancy_bt,2022.2.4,Win32,59.03884756,Chrome,1536,864,,,,,0,756,,,,,,,,,,,,,,,,,146,S,triangle,1,0,,,,,,,,,,,,,,,,repeat,letter,lettRpt,k,1.8727,noRew,,,,,,0,45,0,45,0,1,,,,,,,,,,,,,,,,,
294853,2022-12-04_23h23.52.357,vts_reward_expectancy_bt,2022.2.4,Win32,59.03884756,Chrome,1536,864,,,,,0,756,,,,,,,,,,,,,,,,,174,H,triangle,1,0,,,,,,,,,,,,,,,,switch,number,numSwt,f,1.6965,noRew,,,,,,0,46,0,46,0,1,,,,,,,,,,,,,,,,,
294853,2022-12-04_23h23.52.357,vts_reward_expectancy_bt,2022.2.4,Win32,59.03884756,Chrome,1536,864,,,,,0,756,,,,,,,,,,,,,,,,,160,F,star,1,0,,,,,,,,,,,,,,,,repeat,number,numRpt,f,1.5836,noRew,,,,,,0,47,0,47,0,1,,,,,,,,,,,,,,,,,
294853,2022-12-04_23h23.52.357,vts_reward_expectancy_bt,2022.2.4,Win32,59.03884756,Chrome,1536,864,,,,,0,756,,,,,,,,,,,,,,,,,146,W,star,1,0,,,,,,,,,,,,,,,,switch,letter,lettSwt,k,1.462,noRew,,,,,,0,48,0,48,0,1,,,,,,,,,,,,,,,,,
294853,2022-12-04_23h23.52.357,vts_reward_expectancy_bt,2022.2.4,Win32,59.03884756,Chrome,1536,864,,,,,0,756,,,,,,,,,,,,,,,,,132,D,circle,1,0,,,,,,,,,,,,,,,,repeat,letter,lettRpt,j,1.358,noRew,,,,,,0,49,0,49,0,1,,,,,,,,,,,,,,,,,
294853,2022-12-04_23h23.52.357,vts_reward_expectancy_bt,2022.2.4,Win32,59.03884756,Chrome,1536,864,,,,,0,756,,,,,,,,,,,,,,,,,167,F,circle,1,0,,,,,,,,,,,,,,,,switch,number,numSwt,f,0.927,noRew,,,,,,0,50,0,50,0,1,,,,,,,,,,,,,,,,,
294853,2022-12-04_23h23.52.357,vts_reward_expectancy_bt,2022.2.4,Win32,59.03884756,Chrome,1536,864,,,,,0,756,,,,,,,,,,,,,,,,,125,H,triangle,1,0,,,,,,,,,,,,,,,,repeat,number,numRpt,d,0.575,noRew,,,,,,0,51,0,51,0,1,,,,,,,,,,,,,,,,,
294853,2022-12-04_23h23.52.357,vts_reward_expectancy_bt,2022.2.4,Win32,59.03884756,Chrome,1536,864,,,,,0,756,,,,,,,,,,,,,,,,,160,B,circle,1,0,,,,,,,,,,,,,,,,switch,letter,lettSwt,j,1.6386,noRew,,,,,,0,52,0,52,0,1,,,,,,,,,,,,,,,,,
294853,2022-12-04_23h23.52.357,vts_reward_expectancy_bt,2022.2.4,Win32,59.03884756,Chrome,1536,864,,,,,0,756,,,,,,,,,,,,,,,,,146,Y,triangle,1,0,,,,,,,,,,,,,,,,repeat,letter,lettRpt,k,1.2872,noRew,,,,,,0,53,0,53,0,1,,,,,,,,,,,,,,,,,
294853,2022-12-04_23h23.52.357,vts_reward_expectancy_bt,2022.2.4,Win32,59.03884756,Chrome,1536,864,,,,,0,756,,,,,,,,,,,,,,,,,167,H,star,1,0,,,,,,,,,,,,,,,,switch,number,numSwt,f,1.6186,noRew,,,,,,0,54,0,54,0,1,,,,,,,,,,,,,,,,,
294853,2022-12-04_23h23.52.357,vts_reward_expectancy_bt,2022.2.4,Win32,59.03884756,Chrome,1536,864,,,,,0,756,,,,,,,,,,,,,,,,,125,D,hexagon,1,0,,,,,,,,,,,,,,,,repeat,number,numRpt,d,2.3346,noRew,,,,,,0,55,0,55,0,1,,,,,,,,,,,,,,,,,
294853,2022-12-04_23h23.52.357,vts_reward_expectancy_bt,2022.2.4,Win32,59.03884756,Chrome,1536,864,,,,,0,756,,,,,,,,,,,,,,,,,139,B,triangle,1,0,,,,,,,,,,,,,,,,switch,letter,lettSwt,j,0.9508,noRew,,,,,,0,56,0,56,0,1,,,,,,,,,,,,,,,,,
294853,2022-12-04_23h23.52.357,vts_reward_expectancy_bt,2022.2.4,Win32,59.03884756,Chrome,1536,864,,,,,0,756,,,,,,,,,,,,,,,,,167,D,star,-1,0,,,,,,,,,,,,,,,,switch,no_choice,NA,,,noRew,,,,,,0,57,0,57,0,1,,,,,,,,,,,,,,,,,
294853,2022-12-04_23h23.52.357,vts_reward_expectancy_bt,2022.2.4,Win32,59.03884756,Chrome,1536,864,,,,,0,756,,,,,,,,,,,,,,,,,181,U,hexagon,1,0,,,,,,,,,,,,,,,,switch,number,numSwt,f,2.0241,noRew,,,,,,0,58,0,58,0,1,,,,,,,,,,,,,,,,,
294853,2022-12-04_23h23.52.357,vts_reward_expectancy_bt,2022.2.4,Win32,59.03884756,Chrome,1536,864,,,,,0,756,,,,,,,,,,,,,,,,,132,Y,circle,1,0,,,,,,,,,,,,,,,,repeat,number,numRpt,d,1.1602,noRew,,,,,,0,59,0,59,0,1,,,,,,,,,,,,,,,,,
294853,2022-12-04_23h23.52.357,vts_reward_expectancy_bt,2022.2.4,Win32,59.03884756,Chrome,1536,864,,,,,0,756,,,,,,,,,,,,,,,,,167,S,circle,1,0,,,,,,,,,,,,,,,,switch,letter,lettSwt,k,0.9322,noRew,,,,,,0,60,0,60,0,1,,,,,,,,,,,,,,,,,
294853,2022-12-04_23h23.52.357,vts_reward_expectancy_bt,2022.2.4,Win32,59.03884756,Chrome,1536,864,,,,,0,756,,,,,,,,,,,,,,,,,146,D,triangle,1,0,,,,,,,,,,,,,,,,repeat,letter,lettRpt,j,0.7161,noRew,,,,,,0,61,0,61,0,1,,,,,,,,,,,,,,,,,
294853,2022-12-04_23h23.52.357,vts_reward_expectancy_bt,2022.2.4,Win32,59.03884756,Chrome,1536,864,,,,,0,756,,,,,,,,,,,,,,,,,125,H,circle,1,0,,,,,,,,,,,,,,,,switch,number,numSwt,d,1.8181,noRew,,,,,,0,62,0,62,0,1,,,,,,,,,,,,,,,,,
294853,2022-12-04_23h23.52.357,vts_reward_expectancy_bt,2022.2.4,Win32,59.03884756,Chrome,1536,864,,,,,0,756,,,,,,,,,,,,,,,,,132,Y,triangle,1,0,,,,,,,,,,,,,,,,repeat,number,numRpt,d,2.2364,noRew,,,,,,0,63,0,63,0,1,,,,,,,,,,,,,,,,,
294853,2022-12-04_23h23.52.357,vts_reward_expectancy_bt,2022.2.4,Win32,59.03884756,Chrome,1536,864,,,,,,,,,,,,,,,,,,,,,,,,,,,,,,,,,,,,,,,,,,,,,,,,,,,,,,,,,,,,,,,,,,,,,,,,,,,,
294853,2022-12-04_23h23.52.357,vts_reward_expectancy_bt,2022.2.4,Win32,59.03884756,Chrome,1536,864,,,,,0,756,,,,,,,,,,,,,,,,,160,W,circle,-1,0,,,,,,,,,,,,,,,,switch,no_choice,NA,,,noRew,,,,,,0,,,,,,space,16.7123,high,0,0,0,0,1,,,,,,,,,
294853,2022-12-04_23h23.52.357,vts_reward_expectancy_bt,2022.2.4,Win32,59.03884756,Chrome,1536,864,,,,,0,756,,,,,,,,,,,,,,,,,132,B,hexagon,1,0,,,,,,,,,,,,,,,,switch,letter,lettSwt,j,1.2515,Hi,,,,,,0,,,,,,,,high,1,0,1,0,1,,,,,,,,,
294853,2022-12-04_23h23.52.357,vts_reward_expectancy_bt,2022.2.4,Win32,59.03884756,Chrome,1536,864,,,,,1,757,,,,,,,,,,,,,,,,,139,S,star,1,0,,,,,,,,,,,,,,,,switch,number,numSwt,d,1.5495,Lo,,,,,,0,,,,,,,,high,2,0,2,0,1,,,,,,,,,
294853,2022-12-04_23h23.52.357,vts_reward_expectancy_bt,2022.2.4,Win32,59.03884756,Chrome,1536,864,,,,,0,757,,,,,,,,,,,,,,,,,146,Y,triangle,1,0,,,,,,,,,,,,,,,,switch,letter,lettSwt,k,1.3344,Hi,,,,,,0,,,,,,,,high,3,0,3,0,1,,,,,,,,,
294853,2022-12-04_23h23.52.357,vts_reward_expectancy_bt,2022.2.4,Win32,59.03884756,Chrome,1536,864,,,,,10,767,,,,,,,,,,,,,,,,,174,D,circle,1,0,,,,,,,,,,,,,,,,repeat,letter,lettRpt,j,0.7929,Lo,,,,,,0,,,,,,,,high,4,0,4,0,1,,,,,,,,,
294853,2022-12-04_23h23.52.357,vts_reward_expectancy_bt,2022.2.4,Win32,59.03884756,Chrome,1536,864,,,,,1,768,,,,,,,,,,,,,,,,,125,U,hexagon,1,0,,,,,,,,,,,,,,,,switch,number,numSwt,d,0.9734,Hi,,,,,,0,,,,,,,,high,5,0,5,0,1,,,,,,,,,
294853,2022-12-04_23h23.52.357,vts_reward_expectancy_bt,2022.2.4,Win32,59.03884756,Chrome,1536,864,,,,,10,778,,,,,,,,,,,,,,,,,181,F,star,1,0,,,,,,,,,,,,,,,,switch,letter,lettSwt,j,0.9724,Lo,,,,,,0,,,,,,,,high,6,0,6,0,1,,,,,,,,,
294853,2022-12-04_23h23.52.357,vts_reward_expectancy_bt,2022.2.4,Win32,59.03884756,Chrome,1536,864,,,,,10,788,,,,,,,,,,,,,,,,,167,H,triangle,1,0,,,,,,,,,,,,,,,,repeat,letter,lettRpt,j,0.891,Hi,,,,,,0,,,,,,,,high,7,0,7,0,1,,,,,,,,,
294853,2022-12-04_23h23.52.357,vts_reward_expectancy_bt,2022.2.4,Win32,59.03884756,Chrome,1536,864,,,,,10,798,,,,,,,,,,,,,,,,,160,W,hexagon,1,0,,,,,,,,,,,,,,,,repeat,letter,lettRpt,k,0.9789,Hi,,,,,,0,,,,,,,,high,8,0,8,0,1,,,,,,,,,
294853,2022-12-04_23h23.52.357,vts_reward_expectancy_bt,2022.2.4,Win32,59.03884756,Chrome,1536,864,,,,,1,799,,,,,,,,,,,,,,,,,132,B,circle,1,0,,,,,,,,,,,,,,,,repeat,letter,lettRpt,j,0.7607,Lo,,,,,,0,,,,,,,,high,9,0,9,0,1,,,,,,,,,
294853,2022-12-04_23h23.52.357,vts_reward_expectancy_bt,2022.2.4,Win32,59.03884756,Chrome,1536,864,,,,,1,800,,,,,,,,,,,,,,,,,139,S,star,1,0,,,,,,,,,,,,,,,,repeat,letter,lettRpt,k,1.042,Lo,,,,,,0,,,,,,,,high,10,0,10,0,1,,,,,,,,,
294853,2022-12-04_23h23.52.357,vts_reward_expectancy_bt,2022.2.4,Win32,59.03884756,Chrome,1536,864,,,,,0,800,,,,,,,,,,,,,,,,,146,Y,triangle,1,0,,,,,,,,,,,,,,,,repeat,letter,lettRpt,k,1.243,Hi,,,,,,0,,,,,,,,high,11,0,11,0,1,,,,,,,,,
294853,2022-12-04_23h23.52.357,vts_reward_expectancy_bt,2022.2.4,Win32,59.03884756,Chrome,1536,864,,,,,0,800,,,,,,,,,,,,,,,,,174,D,hexagon,1,0,,,,,,,,,,,,,,,,repeat,letter,lettRpt,j,1.1005,Hi,,,,,,0,,,,,,,,high,12,0,12,0,1,,,,,,,,,
294853,2022-12-04_23h23.52.357,vts_reward_expectancy_bt,2022.2.4,Win32,59.03884756,Chrome,1536,864,,,,,0,800,,,,,,,,,,,,,,,,,125,U,triangle,0,0,,,,,,,,,,,,,,,,switch,number,NA,f,1.8329,Hi,,,,,,0,,,,,,,,high,13,0,13,0,1,,,,,,,,,
294853,2022-12-04_23h23.52.357,vts_reward_expectancy_bt,2022.2.4,Win32,59.03884756,Chrome,1536,864,,,,,0,800,,,,,,,,,,,,,,,,,181,F,circle,0,1,,,,,,,,,,,,,,,,repeat,number,NA,d,0.9668,Hi,,,,,,0,,,,,,,,high,14,0,14,0,1,,,,,,,,,
294853,2022-12-04_23h23.52.357,vts_reward_expectancy_bt,2022.2.4,Win32,59.03884756,Chrome,1536,864,,,,,1,801,,,,,,,,,,,,,,,,,167,H,star,1,1,,,,,,,,,,,,,,,,switch,letter,lettSwt,j,0.6438,Lo,,,,,,0,,,,,,,,high,15,0,15,0,1,,,,,,,,,
294853,2022-12-04_23h23.52.357,vts_reward_expectancy_bt,2022.2.4,Win32,59.03884756,Chrome,1536,864,,,,,1,802,,,,,,,,,,,,,,,,,139,Y,star,1,0,,,,,,,,,,,,,,,,switch,number,numSwt,d,0.6475,Lo,,,,,,0,,,,,,,,high,16,0,16,0,1,,,,,,,,,
294853,2022-12-04_23h23.52.357,vts_reward_expectancy_bt,2022.2.4,Win32,59.03884756,Chrome,1536,864,,,,,0,802,,,,,,,,,,,,,,,,,125,H,triangle,1,0,,,,,,,,,,,,,,,,switch,letter,lettSwt,j,2.0955,Hi,,,,,,0,,,,,,,,high,17,0,17,0,1,,,,,,,,,
294853,2022-12-04_23h23.52.357,vts_reward_expectancy_bt,2022.2.4,Win32,59.03884756,Chrome,1536,864,,,,,1,803,,,,,,,,,,,,,,,,,160,D,circle,1,0,,,,,,,,,,,,,,,,switch,number,numSwt,f,1.7671,Lo,,,,,,0,,,,,,,,high,18,0,18,0,1,,,,,,,,,
294853,2022-12-04_23h23.52.357,vts_reward_expectancy_bt,2022.2.4,Win32,59.03884756,Chrome,1536,864,,,,,0,803,,,,,,,,,,,,,,,,,174,U,hexagon,1,0,,,,,,,,,,,,,,,,switch,letter,lettSwt,k,1.0223,Hi,,,,,,0,,,,,,,,high,19,0,19,0,1,,,,,,,,,
294853,2022-12-04_23h23.52.357,vts_reward_expectancy_bt,2022.2.4,Win32,59.03884756,Chrome,1536,864,,,,,1,804,,,,,,,,,,,,,,,,,132,S,star,1,0,,,,,,,,,,,,,,,,switch,number,numSwt,d,1.0253,Lo,,,,,,0,,,,,,,,high,20,0,20,0,1,,,,,,,,,
294853,2022-12-04_23h23.52.357,vts_reward_expectancy_bt,2022.2.4,Win32,59.03884756,Chrome,1536,864,,,,,0,804,,,,,,,,,,,,,,,,,167,W,hexagon,1,0,,,,,,,,,,,,,,,,switch,letter,lettSwt,k,1.0436,Hi,,,,,,0,,,,,,,,high,21,0,21,0,1,,,,,,,,,
294853,2022-12-04_23h23.52.357,vts_reward_expectancy_bt,2022.2.4,Win32,59.03884756,Chrome,1536,864,,,,,10,814,,,,,,,,,,,,,,,,,146,F,triangle,1,0,,,,,,,,,,,,,,,,switch,number,numSwt,d,1.0959,Hi,,,,,,0,,,,,,,,high,22,0,22,0,1,,,,,,,,,
294853,2022-12-04_23h23.52.357,vts_reward_expectancy_bt,2022.2.4,Win32,59.03884756,Chrome,1536,864,,,,,0,814,,,,,,,,,,,,,,,,,181,B,circle,0,0,,,,,,,,,,,,,,,,repeat,number,NA,d,0.6435,Hi,,,,,,0,,,,,,,,high,23,0,23,0,1,,,,,,,,,
294853,2022-12-04_23h23.52.357,vts_reward_expectancy_bt,2022.2.4,Win32,59.03884756,Chrome,1536,864,,,,,10,824,,,,,,,,,,,,,,,,,125,B,star,1,1,,,,,,,,,,,,,,,,repeat,number,numRpt,d,1.0279,Lo,,,,,,0,,,,,,,,high,24,0,24,0,1,,,,,,,,,
294853,2022-12-04_23h23.52.357,vts_reward_expectancy_bt,2022.2.4,Win32,59.03884756,Chrome,1536,864,,,,,1,825,,,,,,,,,,,,,,,,,146,S,circle,1,0,,,,,,,,,,,,,,,,repeat,number,numRpt,d,1.3267,Lo,,,,,,0,,,,,,,,high,25,0,25,0,1,,,,,,,,,
294853,2022-12-04_23h23.52.357,vts_reward_expectancy_bt,2022.2.4,Win32,59.03884756,Chrome,1536,864,,,,,0,825,,,,,,,,,,,,,,,,,167,Y,hexagon,1,0,,,,,,,,,,,,,,,,switch,letter,lettSwt,k,1.041,Hi,,,,,,0,,,,,,,,high,26,0,26,0,1,,,,,,,,,
294853,2022-12-04_23h23.52.357,vts_reward_expectancy_bt,2022.2.4,Win32,59.03884756,Chrome,1536,864,,,,,10,835,,,,,,,,,,,,,,,,,132,F,triangle,1,0,,,,,,,,,,,,,,,,switch,number,numSwt,d,1.018,Hi,,,,,,0,,,,,,,,high,27,0,27,0,1,,,,,,,,,
294853,2022-12-04_23h23.52.357,vts_reward_expectancy_bt,2022.2.4,Win32,59.03884756,Chrome,1536,864,,,,,1,836,,,,,,,,,,,,,,,,,139,W,star,1,0,,,,,,,,,,,,,,,,repeat,number,numRpt,d,1.823,Lo,,,,,,0,,,,,,,,high,28,0,28,0,1,,,,,,,,,
294853,2022-12-04_23h23.52.357,vts_reward_expectancy_bt,2022.2.4,Win32,59.03884756,Chrome,1536,864,,,,,1,837,,,,,,,,,,,,,,,,,181,U,triangle,1,0,,,,,,,,,,,,,,,,switch,letter,lettSwt,k,0.7295,Hi,,,,,,0,,,,,,,,high,29,0,29,0,1,,,,,,,,,
294853,2022-12-04_23h23.52.357,vts_reward_expectancy_bt,2022.2.4,Win32,59.03884756,Chrome,1536,864,,,,,10,847,,,,,,,,,,,,,,,,,160,D,hexagon,1,0,,,,,,,,,,,,,,,,repeat,letter,lettRpt,j,0.5975,Hi,,,,,,0,,,,,,,,high,30,0,30,0,1,,,,,,,,,
294853,2022-12-04_23h23.52.357,vts_reward_expectancy_bt,2022.2.4,Win32,59.03884756,Chrome,1536,864,,,,,1,848,,,,,,,,,,,,,,,,,174,H,circle,1,0,,,,,,,,,,,,,,,,repeat,letter,lettRpt,j,0.66,Lo,,,,,,0,,,,,,,,high,31,0,31,0,1,,,,,,,,,
294853,2022-12-04_23h23.52.357,vts_reward_expectancy_bt,2022.2.4,Win32,59.03884756,Chrome,1536,864,,,,,0,848,,,,,,,,,,,,,,,,,181,D,triangle,1,0,,,,,,,,,,,,,,,,repeat,letter,lettRpt,j,0.9286,Hi,,,,,,1,,,,,,space,10.577,high,0,0,0,0,1,,,,,,,,,
294853,2022-12-04_23h23.52.357,vts_reward_expectancy_bt,2022.2.4,Win32,59.03884756,Chrome,1536,864,,,,,10,858,,,,,,,,,,,,,,,,,174,B,hexagon,1,0,,,,,,,,,,,,,,,,repeat,letter,lettRpt,j,0.5582,Hi,,,,,,1,,,,,,,,high,1,0,1,0,1,,,,,,,,,
294853,2022-12-04_23h23.52.357,vts_reward_expectancy_bt,2022.2.4,Win32,59.03884756,Chrome,1536,864,,,,,1,859,,,,,,,,,,,,,,,,,139,W,circle,1,0,,,,,,,,,,,,,,,,repeat,letter,lettRpt,k,0.7124,Lo,,,,,,1,,,,,,,,high,2,0,2,0,1,,,,,,,,,
294853,2022-12-04_23h23.52.357,vts_reward_expectancy_bt,2022.2.4,Win32,59.03884756,Chrome,1536,864,,,,,1,860,,,,,,,,,,,,,,,,,160,F,star,1,0,,,,,,,,,,,,,,,,repeat,letter,lettRpt,j,0.818,Lo,,,,,,1,,,,,,,,high,3,0,3,0,1,,,,,,,,,
294853,2022-12-04_23h23.52.357,vts_reward_expectancy_bt,2022.2.4,Win32,59.03884756,Chrome,1536,864,,,,,0,860,,,,,,,,,,,,,,,,,132,S,triangle,0,0,,,,,,,,,,,,,,,,repeat,letter,NA,j,0.7118,Lo,,,,,,1,,,,,,,,high,4,0,4,0,1,,,,,,,,,
294853,2022-12-04_23h23.52.357,vts_reward_expectancy_bt,2022.2.4,Win32,59.03884756,Chrome,1536,864,,,,,0,860,,,,,,,,,,,,,,,,,146,U,hexagon,1,1,,,,,,,,,,,,,,,,switch,number,numSwt,d,1.3344,Hi,,,,,,1,,,,,,,,high,5,0,5,0,1,,,,,,,,,
294853,2022-12-04_23h23.52.357,vts_reward_expectancy_bt,2022.2.4,Win32,59.03884756,Chrome,1536,864,,,,,1,861,,,,,,,,,,,,,,,,,125,H,circle,1,0,,,,,,,,,,,,,,,,repeat,number,numRpt,d,0.9439,Lo,,,,,,1,,,,,,,,high,6,0,6,0,1,,,,,,,,,
294853,2022-12-04_23h23.52.357,vts_reward_expectancy_bt,2022.2.4,Win32,59.03884756,Chrome,1536,864,,,,,1,862,,,,,,,,,,,,,,,,,167,Y,star,1,0,,,,,,,,,,,,,,,,repeat,number,numRpt,f,0.9117,Lo,,,,,,1,,,,,,,,high,7,0,7,0,1,,,,,,,,,
294853,2022-12-04_23h23.52.357,vts_reward_expectancy_bt,2022.2.4,Win32,59.03884756,Chrome,1536,864,,,,,10,872,,,,,,,,,,,,,,,,,181,D,hexagon,1,0,,,,,,,,,,,,,,,,switch,letter,lettSwt,j,0.7114,Hi,,,,,,1,,,,,,,,high,8,0,8,0,1,,,,,,,,,
294853,2022-12-04_23h23.52.357,vts_reward_expectancy_bt,2022.2.4,Win32,59.03884756,Chrome,1536,864,,,,,1,873,,,,,,,,,,,,,,,,,174,B,star,1,0,,,,,,,,,,,,,,,,repeat,letter,lettRpt,j,0.6591,Lo,,,,,,1,,,,,,,,high,9,0,9,0,1,,,,,,,,,
294853,2022-12-04_23h23.52.357,vts_reward_expectancy_bt,2022.2.4,Win32,59.03884756,Chrome,1536,864,,,,,10,883,,,,,,,,,,,,,,,,,139,W,triangle,1,0,,,,,,,,,,,,,,,,switch,number,numSwt,d,0.926,Hi,,,,,,1,,,,,,,,high,10,0,10,0,1,,,,,,,,,
294853,2022-12-04_23h23.52.357,vts_reward_expectancy_bt,2022.2.4,Win32,59.03884756,Chrome,1536,864,,,,,10,893,,,,,,,,,,,,,,,,,160,F,circle,1,0,,,,,,,,,,,,,,,,repeat,number,numRpt,f,1.2292,Lo,,,,,,1,,,,,,,,high,11,0,11,0,1,,,,,,,,,
294853,2022-12-04_23h23.52.357,vts_reward_expectancy_bt,2022.2.4,Win32,59.03884756,Chrome,1536,864,,,,,10,903,,,,,,,,,,,,,,,,,132,S,star,1,0,,,,,,,,,,,,,,,,switch,letter,lettSwt,k,1.2097,Lo,,,,,,1,,,,,,,,high,12,0,12,0,1,,,,,,,,,
294853,2022-12-04_23h23.52.357,vts_reward_expectancy_bt,2022.2.4,Win32,59.03884756,Chrome,1536,864,,,,,1,904,,,,,,,,,,,,,,,,,146,U,hexagon,1,0,,,,,,,,,,,,,,,,repeat,letter,lettRpt,k,0.7285,Hi,,,,,,1,,,,,,,,high,13,0,13,0,1,,,,,,,,,
294853,2022-12-04_23h23.52.357,vts_reward_expectancy_bt,2022.2.4,Win32,59.03884756,Chrome,1536,864,,,,,0,904,,,,,,,,,,,,,,,,,125,H,triangle,1,0,,,,,,,,,,,,,,,,switch,number,numSwt,d,1.0495,Hi,,,,,,1,,,,,,,,high,14,0,14,0,1,,,,,,,,,
294853,2022-12-04_23h23.52.357,vts_reward_expectancy_bt,2022.2.4,Win32,59.03884756,Chrome,1536,864,,,,,1,905,,,,,,,,,,,,,,,,,167,Y,circle,1,0,,,,,,,,,,,,,,,,repeat,number,numRpt,f,1.1653,Lo,,,,,,1,,,,,,,,high,15,0,15,0,1,,,,,,,,,
294853,2022-12-04_23h23.52.357,vts_reward_expectancy_bt,2022.2.4,Win32,59.03884756,Chrome,1536,864,,,,,10,915,,,,,,,,,,,,,,,,,160,D,triangle,1,0,,,,,,,,,,,,,,,,switch,letter,lettSwt,j,0.7908,Hi,,,,,,1,,,,,,,,high,16,0,16,0,1,,,,,,,,,
294853,2022-12-04_23h23.52.357,vts_reward_expectancy_bt,2022.2.4,Win32,59.03884756,Chrome,1536,864,,,,,0,915,,,,,,,,,,,,,,,,,146,S,hexagon,1,0,,,,,,,,,,,,,,,,switch,number,numSwt,d,1.4338,Hi,,,,,,1,,,,,,,,high,17,0,17,0,1,,,,,,,,,
294853,2022-12-04_23h23.52.357,vts_reward_expectancy_bt,2022.2.4,Win32,59.03884756,Chrome,1536,864,,,,,1,916,,,,,,,,,,,,,,,,,181,H,circle,1,0,,,,,,,,,,,,,,,,switch,letter,lettSwt,j,1.4853,Lo,,,,,,1,,,,,,,,high,18,0,18,0,1,,,,,,,,,
294853,2022-12-04_23h23.52.357,vts_reward_expectancy_bt,2022.2.4,Win32,59.03884756,Chrome,1536,864,,,,,1,917,,,,,,,,,,,,,,,,,132,B,star,1,0,,,,,,,,,,,,,,,,switch,number,numSwt,d,0.6161,Lo,,,,,,1,,,,,,,,high,19,0,19,0,1,,,,,,,,,
294853,2022-12-04_23h23.52.357,vts_reward_expectancy_bt,2022.2.4,Win32,59.03884756,Chrome,1536,864,,,,,1,918,,,,,,,,,,,,,,,,,125,F,star,1,0,,,,,,,,,,,,,,,,repeat,number,numRpt,d,0.6683,Lo,,,,,,1,,,,,,,,high,20,0,20,0,1,,,,,,,,,
294853,2022-12-04_23h23.52.357,vts_reward_expectancy_bt,2022.2.4,Win32,59.03884756,Chrome,1536,864,,,,,1,919,,,,,,,,,,,,,,,,,139,U,circle,1,0,,,,,,,,,,,,,,,,switch,letter,lettSwt,k,0.9849,Lo,,,,,,1,,,,,,,,high,21,0,21,0,1,,,,,,,,,
294853,2022-12-04_23h23.52.357,vts_reward_expectancy_bt,2022.2.4,Win32,59.03884756,Chrome,1536,864,,,,,0,919,,,,,,,,,,,,,,,,,174,Y,hexagon,1,0,,,,,,,,,,,,,,,,repeat,letter,lettRpt,k,1.0069,Hi,,,,,,1,,,,,,,,high,22,0,22,0,1,,,,,,,,,
294853,2022-12-04_23h23.52.357,vts_reward_expectancy_bt,2022.2.4,Win32,59.03884756,Chrome,1536,864,,,,,1,920,,,,,,,,,,,,,,,,,167,W,triangle,1,0,,,,,,,,,,,,,,,,switch,number,numSwt,f,1.0088,Hi,,,,,,1,,,,,,,,high,23,0,23,0,1,,,,,,,,,
294853,2022-12-04_23h23.52.357,vts_reward_expectancy_bt,2022.2.4,Win32,59.03884756,Chrome,1536,864,,,,,1,921,,,,,,,,,,,,,,,,,174,F,star,1,0,,,,,,,,,,,,,,,,switch,letter,lettSwt,j,1.0235,Lo,,,,,,1,,,,,,,,high,24,0,24,0,1,,,,,,,,,
294853,2022-12-04_23h23.52.357,vts_reward_expectancy_bt,2022.2.4,Win32,59.03884756,Chrome,1536,864,,,,,0,921,,,,,,,,,,,,,,,,,181,Y,circle,0,0,,,,,,,,,,,,,,,,repeat,letter,NA,j,0.9083,Lo,,,,,,1,,,,,,,,high,25,0,25,0,1,,,,,,,,,
294853,2022-12-04_23h23.52.357,vts_reward_expectancy_bt,2022.2.4,Win32,59.03884756,Chrome,1536,864,,,,,0,921,,,,,,,,,,,,,,,,,132,U,triangle,1,1,,,,,,,,,,,,,,,,switch,number,numSwt,d,1.2832,Hi,,,,,,1,,,,,,,,high,26,0,26,0,1,,,,,,,,,
294853,2022-12-04_23h23.52.357,vts_reward_expectancy_bt,2022.2.4,Win32,59.03884756,Chrome,1536,864,,,,,10,931,,,,,,,,,,,,,,,,,160,H,hexagon,1,0,,,,,,,,,,,,,,,,repeat,number,numRpt,f,0.897,Hi,,,,,,1,,,,,,,,high,27,0,27,0,1,,,,,,,,,
294853,2022-12-04_23h23.52.357,vts_reward_expectancy_bt,2022.2.4,Win32,59.03884756,Chrome,1536,864,,,,,0,931,,,,,,,,,,,,,,,,,167,D,circle,0,0,,,,,,,,,,,,,,,,repeat,number,NA,d,0.5895,Hi,,,,,,1,,,,,,,,high,28,0,28,0,1,,,,,,,,,
294853,2022-12-04_23h23.52.357,vts_reward_expectancy_bt,2022.2.4,Win32,59.03884756,Chrome,1536,864,,,,,10,941,,,,,,,,,,,,,,,,,125,W,triangle,1,1,,,,,,,,,,,,,,,,repeat,number,numRpt,d,0.9582,Hi,,,,,,1,,,,,,,,high,29,0,29,0,1,,,,,,,,,
294853,2022-12-04_23h23.52.357,vts_reward_expectancy_bt,2022.2.4,Win32,59.03884756,Chrome,1536,864,,,,,1,942,,,,,,,,,,,,,,,,,146,B,star,1,0,,,,,,,,,,,,,,,,repeat,number,numRpt,d,1.1923,Lo,,,,,,1,,,,,,,,high,30,0,30,0,1,,,,,,,,,
294853,2022-12-04_23h23.52.357,vts_reward_expectancy_bt,2022.2.4,Win32,59.03884756,Chrome,1536,864,,,,,0,942,,,,,,,,,,,,,,,,,139,S,hexagon,1,0,,,,,,,,,,,,,,,,switch,letter,lettSwt,k,1.0425,Hi,,,,,,1,,,,,,,,high,31,0,31,0,1,,,,,,,,,
294853,2022-12-04_23h23.52.357,vts_reward_expectancy_bt,2022.2.4,Win32,59.03884756,Chrome,1536,864,,,,,1,943,,,,,,,,,,,,,,,,,167,B,star,1,0,,,,,,,,,,,,,,,,repeat,letter,lettRpt,j,0.8056,Lo,,,,,,2,,,,,,space,6.0945,high,0,0,0,0,1,,,,,,,,,
294853,2022-12-04_23h23.52.357,vts_reward_expectancy_bt,2022.2.4,Win32,59.03884756,Chrome,1536,864,,,,,10,953,,,,,,,,,,,,,,,,,125,Y,hexagon,1,0,,,,,,,,,,,,,,,,switch,number,numSwt,d,0.6797,Hi,,,,,,2,,,,,,,,high,1,0,1,0,1,,,,,,,,,
294853,2022-12-04_23h23.52.357,vts_reward_expectancy_bt,2022.2.4,Win32,59.03884756,Chrome,1536,864,,,,,1,954,,,,,,,,,,,,,,,,,132,W,circle,1,0,,,,,,,,,,,,,,,,switch,letter,lettSwt,k,0.9097,Lo,,,,,,2,,,,,,,,high,2,0,2,0,1,,,,,,,,,
294853,2022-12-04_23h23.52.357,vts_reward_expectancy_bt,2022.2.4,Win32,59.03884756,Chrome,1536,864,,,,,0,954,,,,,,,,,,,,,,,,,139,S,triangle,1,0,,,,,,,,,,,,,,,,switch,number,numSwt,d,1.2677,Hi,,,,,,2,,,,,,,,high,3,0,3,0,1,,,,,,,,,
294853,2022-12-04_23h23.52.357,vts_reward_expectancy_bt,2022.2.4,Win32,59.03884756,Chrome,1536,864,,,,,0,954,,,,,,,,,,,,,,,,,181,F,star,0,0,,,,,,,,,,,,,,,,repeat,number,NA,d,0.6341,Hi,,,,,,2,,,,,,,,high,4,0,4,0,1,,,,,,,,,
294853,2022-12-04_23h23.52.357,vts_reward_expectancy_bt,2022.2.4,Win32,59.03884756,Chrome,1536,864,,,,,0,954,,,,,,,,,,,,,,,,,160,U,hexagon,-1,1,,,,,,,,,,,,,,,,switch,no_choice,NA,,,Hi,,,,,,2,,,,,,,,high,5,0,5,0,1,,,,,,,,,
294853,2022-12-04_23h23.52.357,vts_reward_expectancy_bt,2022.2.4,Win32,59.03884756,Chrome,1536,864,,,,,10,964,,,,,,,,,,,,,,,,,146,H,circle,1,0,,,,,,,,,,,,,,,,switch,letter,lettSwt,j,1.0794,Lo,,,,,,2,,,,,,,,high,6,0,6,0,1,,,,,,,,,
294853,2022-12-04_23h23.52.357,vts_reward_expectancy_bt,2022.2.4,Win32,59.03884756,Chrome,1536,864,,,,,10,974,,,,,,,,,,,,,,,,,174,D,triangle,1,0,,,,,,,,,,,,,,,,repeat,letter,lettRpt,j,0.7059,Hi,,,,,,2,,,,,,,,high,7,0,7,0,1,,,,,,,,,
294853,2022-12-04_23h23.52.357,vts_reward_expectancy_bt,2022.2.4,Win32,59.03884756,Chrome,1536,864,,,,,0,974,,,,,,,,,,,,,,,,,167,B,hexagon,1,0,,,,,,,,,,,,,,,,repeat,letter,lettRpt,j,0.7336,Hi,,,,,,2,,,,,,,,high,8,0,8,0,1,,,,,,,,,
294853,2022-12-04_23h23.52.357,vts_reward_expectancy_bt,2022.2.4,Win32,59.03884756,Chrome,1536,864,,,,,1,975,,,,,,,,,,,,,,,,,125,Y,star,1,0,,,,,,,,,,,,,,,,repeat,letter,lettRpt,k,0.683,Lo,,,,,,2,,,,,,,,high,9,0,9,0,1,,,,,,,,,
294853,2022-12-04_23h23.52.357,vts_reward_expectancy_bt,2022.2.4,Win32,59.03884756,Chrome,1536,864,,,,,10,985,,,,,,,,,,,,,,,,,132,W,circle,1,0,,,,,,,,,,,,,,,,repeat,letter,lettRpt,k,0.8075,Lo,,,,,,2,,,,,,,,high,10,0,10,0,1,,,,,,,,,
294853,2022-12-04_23h23.52.357,vts_reward_expectancy_bt,2022.2.4,Win32,59.03884756,Chrome,1536,864,,,,,0,985,,,,,,,,,,,,,,,,,139,S,triangle,1,0,,,,,,,,,,,,,,,,repeat,letter,lettRpt,k,0.7259,Hi,,,,,,2,,,,,,,,high,11,0,11,0,1,,,,,,,,,
294853,2022-12-04_23h23.52.357,vts_reward_expectancy_bt,2022.2.4,Win32,59.03884756,Chrome,1536,864,,,,,10,995,,,,,,,,,,,,,,,,,181,F,star,1,0,,,,,,,,,,,,,,,,repeat,letter,lettRpt,j,0.7674,Lo,,,,,,2,,,,,,,,high,12,0,12,0,1,,,,,,,,,
294853,2022-12-04_23h23.52.357,vts_reward_expectancy_bt,2022.2.4,Win32,59.03884756,Chrome,1536,864,,,,,1,996,,,,,,,,,,,,,,,,,160,U,circle,1,0,,,,,,,,,,,,,,,,repeat,letter,lettRpt,k,0.6984,Lo,,,,,,2,,,,,,,,high,13,0,13,0,1,,,,,,,,,
294853,2022-12-04_23h23.52.357,vts_reward_expectancy_bt,2022.2.4,Win32,59.03884756,Chrome,1536,864,,,,,0,996,,,,,,,,,,,,,,,,,146,H,hexagon,1,0,,,,,,,,,,,,,,,,repeat,letter,lettRpt,j,0.9785,Hi,,,,,,2,,,,,,,,high,14,0,14,0,1,,,,,,,,,
294853,2022-12-04_23h23.52.357,vts_reward_expectancy_bt,2022.2.4,Win32,59.03884756,Chrome,1536,864,,,,,10,1006,,,,,,,,,,,,,,,,,174,D,triangle,1,0,,,,,,,,,,,,,,,,repeat,letter,lettRpt,j,0.6284,Hi,,,,,,2,,,,,,,,high,15,0,15,0,1,,,,,,,,,
294853,2022-12-04_23h23.52.357,vts_reward_expectancy_bt,2022.2.4,Win32,59.03884756,Chrome,1536,864,,,,,10,1016,,,,,,,,,,,,,,,,,139,S,triangle,1,0,,,,,,,,,,,,,,,,repeat,letter,lettRpt,k,0.6434,Hi,,,,,,2,,,,,,,,high,16,0,16,0,1,,,,,,,,,
294853,2022-12-04_23h23.52.357,vts_reward_expectancy_bt,2022.2.4,Win32,59.03884756,Chrome,1536,864,,,,,1,1017,,,,,,,,,,,,,,,,,160,D,circle,1,0,,,,,,,,,,,,,,,,repeat,letter,lettRpt,j,0.8738,Lo,,,,,,2,,,,,,,,high,17,0,17,0,1,,,,,,,,,
294853,2022-12-04_23h23.52.357,vts_reward_expectancy_bt,2022.2.4,Win32,59.03884756,Chrome,1536,864,,,,,0,1017,,,,,,,,,,,,,,,,,174,F,hexagon,1,0,,,,,,,,,,,,,,,,repeat,letter,lettRpt,j,0.9637,Hi,,,,,,2,,,,,,,,high,18,0,18,0,1,,,,,,,,,
294853,2022-12-04_23h23.52.357,vts_reward_expectancy_bt,2022.2.4,Win32,59.03884756,Chrome,1536,864,,,,,1,1018,,,,,,,,,,,,,,,,,181,U,star,1,0,,,,,,,,,,,,,,,,repeat,letter,lettRpt,k,0.6746,Lo,,,,,,2,,,,,,,,high,19,0,19,0,1,,,,,,,,,
294853,2022-12-04_23h23.52.357,vts_reward_expectancy_bt,2022.2.4,Win32,59.03884756,Chrome,1536,864,,,,,0,1018,,,,,,,,,,,,,,,,,146,W,triangle,0,0,,,,,,,,,,,,,,,,repeat,letter,NA,j,0.6073,Lo,,,,,,2,,,,,,,,high,20,0,20,0,1,,,,,,,,,
294853,2022-12-04_23h23.52.357,vts_reward_expectancy_bt,2022.2.4,Win32,59.03884756,Chrome,1536,864,,,,,1,1019,,,,,,,,,,,,,,,,,125,B,circle,1,1,,,,,,,,,,,,,,,,repeat,letter,lettRpt,j,0.8438,Lo,,,,,,2,,,,,,,,high,21,0,21,0,1,,,,,,,,,
294853,2022-12-04_23h23.52.357,vts_reward_expectancy_bt,2022.2.4,Win32,59.03884756,Chrome,1536,864,,,,,1,1020,,,,,,,,,,,,,,,,,167,H,star,1,0,,,,,,,,,,,,,,,,repeat,letter,lettRpt,j,0.9286,Lo,,,,,,2,,,,,,,,high,22,0,22,0,1,,,,,,,,,
294853,2022-12-04_23h23.52.357,vts_reward_expectancy_bt,2022.2.4,Win32,59.03884756,Chrome,1536,864,,,,,0,1020,,,,,,,,,,,,,,,,,132,Y,hexagon,1,0,,,,,,,,,,,,,,,,repeat,letter,lettRpt,k,0.7732,Hi,,,,,,2,,,,,,,,high,23,0,23,0,1,,,,,,,,,
294853,2022-12-04_23h23.52.357,vts_reward_expectancy_bt,2022.2.4,Win32,59.03884756,Chrome,1536,864,,,,,0,1020,,,,,,,,,,,,,,,,,132,S,hexagon,1,0,,,,,,,,,,,,,,,,repeat,letter,lettRpt,k,0.7681,Hi,,,,,,2,,,,,,,,high,24,0,24,0,1,,,,,,,,,
294853,2022-12-04_23h23.52.357,vts_reward_expectancy_bt,2022.2.4,Win32,59.03884756,Chrome,1536,864,,,,,10,1030,,,,,,,,,,,,,,,,,139,H,triangle,1,0,,,,,,,,,,,,,,,,repeat,letter,lettRpt,j,0.6714,Hi,,,,,,2,,,,,,,,high,25,0,25,0,1,,,,,,,,,
294853,2022-12-04_23h23.52.357,vts_reward_expectancy_bt,2022.2.4,Win32,59.03884756,Chrome,1536,864,,,,,1,1031,,,,,,,,,,,,,,,,,174,U,circle,1,0,,,,,,,,,,,,,,,,repeat,letter,lettRpt,k,0.6996,Lo,,,,,,2,,,,,,,,high,26,0,26,0,1,,,,,,,,,
294853,2022-12-04_23h23.52.357,vts_reward_expectancy_bt,2022.2.4,Win32,59.03884756,Chrome,1536,864,,,,,10,1041,,,,,,,,,,,,,,,,,181,W,star,1,0,,,,,,,,,,,,,,,,repeat,letter,lettRpt,k,0.668,Lo,,,,,,2,,,,,,,,high,27,0,27,0,1,,,,,,,,,
294853,2022-12-04_23h23.52.357,vts_reward_expectancy_bt,2022.2.4,Win32,59.03884756,Chrome,1536,864,,,,,10,1051,,,,,,,,,,,,,,,,,146,F,triangle,1,0,,,,,,,,,,,,,,,,repeat,letter,lettRpt,j,0.6731,Hi,,,,,,2,,,,,,,,high,28,0,28,0,1,,,,,,,,,
294853,2022-12-04_23h23.52.357,vts_reward_expectancy_bt,2022.2.4,Win32,59.03884756,Chrome,1536,864,,,,,1,1052,,,,,,,,,,,,,,,,,167,D,star,1,0,,,,,,,,,,,,,,,,repeat,letter,lettRpt,j,0.4975,Lo,,,,,,2,,,,,,,,high,29,0,29,0,1,,,,,,,,,
294853,2022-12-04_23h23.52.357,vts_reward_expectancy_bt,2022.2.4,Win32,59.03884756,Chrome,1536,864,,,,,10,1062,,,,,,,,,,,,,,,,,125,Y,circle,1,0,,,,,,,,,,,,,,,,repeat,letter,lettRpt,k,0.6267,Lo,,,,,,2,,,,,,,,high,30,0,30,0,1,,,,,,,,,
294853,2022-12-04_23h23.52.357,vts_reward_expectancy_bt,2022.2.4,Win32,59.03884756,Chrome,1536,864,,,,,1,1063,,,,,,,,,,,,,,,,,160,B,hexagon,1,0,,,,,,,,,,,,,,,,repeat,letter,lettRpt,j,0.4673,Hi,,,,,,2,,,,,,,,high,31,0,31,0,1,,,,,,,,,
294853,2022-12-04_23h23.52.357,vts_reward_expectancy_bt,2022.2.4,Win32,59.03884756,Chrome,1536,864,,,,,10,1073,,,,,,,,,,,,,,,,,167,D,hexagon,1,0,,,,,,,,,,,,,,,,repeat,letter,lettRpt,j,0.5431,Hi,,,,,,3,,,,,,space,8.8265,high,0,0,0,0,1,,,,,,,,,
294853,2022-12-04_23h23.52.357,vts_reward_expectancy_bt,2022.2.4,Win32,59.03884756,Chrome,1536,864,,,,,10,1083,,,,,,,,,,,,,,,,,181,U,triangle,1,0,,,,,,,,,,,,,,,,repeat,letter,lettRpt,k,0.5386,Hi,,,,,,3,,,,,,,,high,1,0,1,0,1,,,,,,,,,
294853,2022-12-04_23h23.52.357,vts_reward_expectancy_bt,2022.2.4,Win32,59.03884756,Chrome,1536,864,,,,,1,1084,,,,,,,,,,,,,,,,,139,H,circle,1,0,,,,,,,,,,,,,,,,repeat,letter,lettRpt,j,0.5297,Lo,,,,,,3,,,,,,,,high,2,0,2,0,1,,,,,,,,,
294853,2022-12-04_23h23.52.357,vts_reward_expectancy_bt,2022.2.4,Win32,59.03884756,Chrome,1536,864,,,,,1,1085,,,,,,,,,,,,,,,,,146,S,star,1,0,,,,,,,,,,,,,,,,repeat,letter,lettRpt,k,0.8106,Lo,,,,,,3,,,,,,,,high,3,0,3,0,1,,,,,,,,,
294853,2022-12-04_23h23.52.357,vts_reward_expectancy_bt,2022.2.4,Win32,59.03884756,Chrome,1536,864,,,,,0,1085,,,,,,,,,,,,,,,,,160,Y,hexagon,1,0,,,,,,,,,,,,,,,,repeat,letter,lettRpt,k,0.726,Hi,,,,,,3,,,,,,,,high,4,0,4,0,1,,,,,,,,,
294853,2022-12-04_23h23.52.357,vts_reward_expectancy_bt,2022.2.4,Win32,59.03884756,Chrome,1536,864,,,,,10,1095,,,,,,,,,,,,,,,,,174,W,triangle,1,0,,,,,,,,,,,,,,,,repeat,letter,lettRpt,k,0.607,Hi,,,,,,3,,,,,,,,high,5,0,5,0,1,,,,,,,,,
294853,2022-12-04_23h23.52.357,vts_reward_expectancy_bt,2022.2.4,Win32,59.03884756,Chrome,1536,864,,,,,10,1105,,,,,,,,,,,,,,,,,125,F,circle,1,0,,,,,,,,,,,,,,,,repeat,letter,lettRpt,j,0.6766,Lo,,,,,,3,,,,,,,,high,6,0,6,0,1,,,,,,,,,
294853,2022-12-04_23h23.52.357,vts_reward_expectancy_bt,2022.2.4,Win32,59.03884756,Chrome,1536,864,,,,,1,1106,,,,,,,,,,,,,,,,,132,B,star,1,0,,,,,,,,,,,,,,,,repeat,letter,lettRpt,j,0.5099,Lo,,,,,,3,,,,,,,,high,7,0,7,0,1,,,,,,,,,
294853,2022-12-04_23h23.52.357,vts_reward_expectancy_bt,2022.2.4,Win32,59.03884756,Chrome,1536,864,,,,,10,1116,,,,,,,,,,,,,,,,,167,D,star,1,0,,,,,,,,,,,,,,,,repeat,letter,lettRpt,j,0.8623,Lo,,,,,,3,,,,,,,,high,8,0,8,0,1,,,,,,,,,
294853,2022-12-04_23h23.52.357,vts_reward_expectancy_bt,2022.2.4,Win32,59.03884756,Chrome,1536,864,,,,,10,1126,,,,,,,,,,,,,,,,,181,U,hexagon,1,0,,,,,,,,,,,,,,,,repeat,letter,lettRpt,k,0.613,Hi,,,,,,3,,,,,,,,high,9,0,9,0,1,,,,,,,,,
294853,2022-12-04_23h23.52.357,vts_reward_expectancy_bt,2022.2.4,Win32,59.03884756,Chrome,1536,864,,,,,10,1136,,,,,,,,,,,,,,,,,139,H,triangle,1,0,,,,,,,,,,,,,,,,repeat,letter,lettRpt,j,0.5933,Hi,,,,,,3,,,,,,,,high,10,0,10,0,1,,,,,,,,,
294853,2022-12-04_23h23.52.357,vts_reward_expectancy_bt,2022.2.4,Win32,59.03884756,Chrome,1536,864,,,,,1,1137,,,,,,,,,,,,,,,,,146,S,circle,1,0,,,,,,,,,,,,,,,,repeat,letter,lettRpt,k,0.6465,Lo,,,,,,3,,,,,,,,high,11,0,11,0,1,,,,,,,,,
294853,2022-12-04_23h23.52.357,vts_reward_expectancy_bt,2022.2.4,Win32,59.03884756,Chrome,1536,864,,,,,1,1138,,,,,,,,,,,,,,,,,160,Y,star,1,0,,,,,,,,,,,,,,,,repeat,letter,lettRpt,k,0.639,Lo,,,,,,3,,,,,,,,high,12,0,12,0,1,,,,,,,,,
294853,2022-12-04_23h23.52.357,vts_reward_expectancy_bt,2022.2.4,Win32,59.03884756,Chrome,1536,864,,,,,10,1148,,,,,,,,,,,,,,,,,174,W,hexagon,1,0,,,,,,,,,,,,,,,,repeat,letter,lettRpt,k,0.6583,Hi,,,,,,3,,,,,,,,high,13,0,13,0,1,,,,,,,,,
294853,2022-12-04_23h23.52.357,vts_reward_expectancy_bt,2022.2.4,Win32,59.03884756,Chrome,1536,864,,,,,0,1148,,,,,,,,,,,,,,,,,125,F,triangle,0,0,,,,,,,,,,,,,,,,repeat,letter,NA,k,0.5006,Hi,,,,,,3,,,,,,,,high,14,0,14,0,1,,,,,,,,,
294853,2022-12-04_23h23.52.357,vts_reward_expectancy_bt,2022.2.4,Win32,59.03884756,Chrome,1536,864,,,,,1,1149,,,,,,,,,,,,,,,,,132,B,circle,1,1,,,,,,,,,,,,,,,,repeat,letter,lettRpt,j,0.493,Lo,,,,,,3,,,,,,,,high,15,0,15,0,1,,,,,,,,,
294853,2022-12-04_23h23.52.357,vts_reward_expectancy_bt,2022.2.4,Win32,59.03884756,Chrome,1536,864,,,,,10,1159,,,,,,,,,,,,,,,,,160,D,hexagon,1,0,,,,,,,,,,,,,,,,repeat,letter,lettRpt,j,0.4608,Hi,,,,,,3,,,,,,,,high,16,0,16,0,1,,,,,,,,,
294853,2022-12-04_23h23.52.357,vts_reward_expectancy_bt,2022.2.4,Win32,59.03884756,Chrome,1536,864,,,,,1,1160,,,,,,,,,,,,,,,,,139,H,star,1,0,,,,,,,,,,,,,,,,repeat,letter,lettRpt,j,0.5257,Lo,,,,,,3,,,,,,,,high,17,0,17,0,1,,,,,,,,,
294853,2022-12-04_23h23.52.357,vts_reward_expectancy_bt,2022.2.4,Win32,59.03884756,Chrome,1536,864,,,,,10,1170,,,,,,,,,,,,,,,,,125,B,triangle,1,0,,,,,,,,,,,,,,,,repeat,letter,lettRpt,j,0.5268,Hi,,,,,,3,,,,,,,,high,18,0,18,0,1,,,,,,,,,
294853,2022-12-04_23h23.52.357,vts_reward_expectancy_bt,2022.2.4,Win32,59.03884756,Chrome,1536,864,,,,,1,1171,,,,,,,,,,,,,,,,,174,U,circle,1,0,,,,,,,,,,,,,,,,repeat,letter,lettRpt,k,1.044,Lo,,,,,,3,,,,,,,,high,19,0,19,0,1,,,,,,,,,
294853,2022-12-04_23h23.52.357,vts_reward_expectancy_bt,2022.2.4,Win32,59.03884756,Chrome,1536,864,,,,,0,1171,,,,,,,,,,,,,,,,,181,W,hexagon,1,0,,,,,,,,,,,,,,,,repeat,letter,lettRpt,k,0.7102,Hi,,,,,,3,,,,,,,,high,20,0,20,0,1,,,,,,,,,
294853,2022-12-04_23h23.52.357,vts_reward_expectancy_bt,2022.2.4,Win32,59.03884756,Chrome,1536,864,,,,,1,1172,,,,,,,,,,,,,,,,,167,Y,circle,1,0,,,,,,,,,,,,,,,,repeat,letter,lettRpt,k,0.8449,Lo,,,,,,3,,,,,,,,high,21,0,21,0,1,,,,,,,,,
294853,2022-12-04_23h23.52.357,vts_reward_expectancy_bt,2022.2.4,Win32,59.03884756,Chrome,1536,864,,,,,0,1172,,,,,,,,,,,,,,,,,132,S,star,0,0,,,,,,,,,,,,,,,,repeat,letter,NA,j,0.8591,Lo,,,,,,3,,,,,,,,high,22,0,22,0,1,,,,,,,,,
294853,2022-12-04_23h23.52.357,vts_reward_expectancy_bt,2022.2.4,Win32,59.03884756,Chrome,1536,864,,,,,0,1172,,,,,,,,,,,,,,,,,146,F,triangle,1,1,,,,,,,,,,,,,,,,repeat,letter,lettRpt,j,0.7833,Hi,,,,,,3,,,,,,,,high,23,0,23,0,1,,,,,,,,,
294853,2022-12-04_23h23.52.357,vts_reward_expectancy_bt,2022.2.4,Win32,59.03884756,Chrome,1536,864,,,,,1,1173,,,,,,,,,,,,,,,,,139,W,circle,1,0,,,,,,,,,,,,,,,,repeat,letter,lettRpt,k,0.7851,Lo,,,,,,3,,,,,,,,high,24,0,24,0,1,,,,,,,,,
294853,2022-12-04_23h23.52.357,vts_reward_expectancy_bt,2022.2.4,Win32,59.03884756,Chrome,1536,864,,,,,1,1174,,,,,,,,,,,,,,,,,167,B,star,1,0,,,,,,,,,,,,,,,,repeat,letter,lettRpt,j,0.5331,Lo,,,,,,3,,,,,,,,high,25,0,25,0,1,,,,,,,,,
294853,2022-12-04_23h23.52.357,vts_reward_expectancy_bt,2022.2.4,Win32,59.03884756,Chrome,1536,864,,,,,10,1184,,,,,,,,,,,,,,,,,146,Y,triangle,1,0,,,,,,,,,,,,,,,,repeat,letter,lettRpt,k,0.6347,Hi,,,,,,3,,,,,,,,high,26,0,26,0,1,,,,,,,,,
294853,2022-12-04_23h23.52.357,vts_reward_expectancy_bt,2022.2.4,Win32,59.03884756,Chrome,1536,864,,,,,0,1184,,,,,,,,,,,,,,,,,174,F,hexagon,1,0,,,,,,,,,,,,,,,,repeat,letter,lettRpt,j,0.7337,Hi,,,,,,3,,,,,,,,high,27,0,27,0,1,,,,,,,,,
294853,2022-12-04_23h23.52.357,vts_reward_expectancy_bt,2022.2.4,Win32,59.03884756,Chrome,1536,864,,,,,1,1185,,,,,,,,,,,,,,,,,125,S,hexagon,1,0,,,,,,,,,,,,,,,,repeat,letter,lettRpt,k,0.6516,Hi,,,,,,3,,,,,,,,high,28,0,28,0,1,,,,,,,,,
294853,2022-12-04_23h23.52.357,vts_reward_expectancy_bt,2022.2.4,Win32,59.03884756,Chrome,1536,864,,,,,10,1195,,,,,,,,,,,,,,,,,132,D,star,1,0,,,,,,,,,,,,,,,,repeat,letter,lettRpt,j,0.5003,Lo,,,,,,3,,,,,,,,high,29,0,29,0,1,,,,,,,,,
294853,2022-12-04_23h23.52.357,vts_reward_expectancy_bt,2022.2.4,Win32,59.03884756,Chrome,1536,864,,,,,1,1196,,,,,,,,,,,,,,,,,181,H,circle,1,0,,,,,,,,,,,,,,,,repeat,letter,lettRpt,j,0.7311,Lo,,,,,,3,,,,,,,,high,30,0,30,0,1,,,,,,,,,
294853,2022-12-04_23h23.52.357,vts_reward_expectancy_bt,2022.2.4,Win32,59.03884756,Chrome,1536,864,,,,,0,1196,,,,,,,,,,,,,,,,,160,U,triangle,0,0,,,,,,,,,,,,,,,,repeat,letter,NA,j,0.556,Lo,,,,,,3,,,,,,,,high,31,0,31,0,1,,,,,,,,,
294853,2022-12-04_23h23.52.357,vts_reward_expectancy_bt,2022.2.4,Win32,59.03884756,Chrome,1536,864,,,,,0,1196,,,,,,,,,,,,,,,,,174,D,hexagon,1,1,,,,,,,,,,,,,,,,repeat,letter,lettRpt,j,0.7334,Hi,,,,,,4,,,,,,space,0.6967,high,0,0,0,0,1,,,,,,,,,
294853,2022-12-04_23h23.52.357,vts_reward_expectancy_bt,2022.2.4,Win32,59.03884756,Chrome,1536,864,,,,,0,1196,,,,,,,,,,,,,,,,,125,F,triangle,1,0,,,,,,,,,,,,,,,,repeat,letter,lettRpt,j,0.565,Hi,,,,,,4,,,,,,,,high,1,0,1,0,1,,,,,,,,,
294853,2022-12-04_23h23.52.357,vts_reward_expectancy_bt,2022.2.4,Win32,59.03884756,Chrome,1536,864,,,,,1,1197,,,,,,,,,,,,,,,,,146,H,circle,1,0,,,,,,,,,,,,,,,,repeat,letter,lettRpt,j,0.6515,Lo,,,,,,4,,,,,,,,high,2,0,2,0,1,,,,,,,,,
294853,2022-12-04_23h23.52.357,vts_reward_expectancy_bt,2022.2.4,Win32,59.03884756,Chrome,1536,864,,,,,10,1207,,,,,,,,,,,,,,,,,139,Y,star,1,0,,,,,,,,,,,,,,,,repeat,letter,lettRpt,k,0.6949,Lo,,,,,,4,,,,,,,,high,3,0,3,0,1,,,,,,,,,
294853,2022-12-04_23h23.52.357,vts_reward_expectancy_bt,2022.2.4,Win32,59.03884756,Chrome,1536,864,,,,,10,1217,,,,,,,,,,,,,,,,,132,B,hexagon,1,0,,,,,,,,,,,,,,,,repeat,letter,lettRpt,j,0.5098,Hi,,,,,,4,,,,,,,,high,4,0,4,0,1,,,,,,,,,
294853,2022-12-04_23h23.52.357,vts_reward_expectancy_bt,2022.2.4,Win32,59.03884756,Chrome,1536,864,,,,,0,1217,,,,,,,,,,,,,,,,,167,S,triangle,1,0,,,,,,,,,,,,,,,,repeat,letter,lettRpt,k,1.4401,Hi,,,,,,4,,,,,,,,high,5,0,5,0,1,,,,,,,,,
294853,2022-12-04_23h23.52.357,vts_reward_expectancy_bt,2022.2.4,Win32,59.03884756,Chrome,1536,864,,,,,10,1227,,,,,,,,,,,,,,,,,160,U,circle,1,0,,,,,,,,,,,,,,,,repeat,letter,lettRpt,k,0.9988,Lo,,,,,,4,,,,,,,,high,6,0,6,0,1,,,,,,,,,
294853,2022-12-04_23h23.52.357,vts_reward_expectancy_bt,2022.2.4,Win32,59.03884756,Chrome,1536,864,,,,,10,1237,,,,,,,,,,,,,,,,,181,W,star,1,0,,,,,,,,,,,,,,,,repeat,letter,lettRpt,k,0.65,Lo,,,,,,4,,,,,,,,high,7,0,7,0,1,,,,,,,,,
294853,2022-12-04_23h23.52.357,vts_reward_expectancy_bt,2022.2.4,Win32,59.03884756,Chrome,1536,864,,,,,0,1237,,,,,,,,,,,,,,,,,174,D,hexagon,1,0,,,,,,,,,,,,,,,,repeat,letter,lettRpt,j,0.6758,Hi,,,,,,4,,,,,,,,high,8,0,8,0,1,,,,,,,,,
294853,2022-12-04_23h23.52.357,vts_reward_expectancy_bt,2022.2.4,Win32,59.03884756,Chrome,1536,864,,,,,1,1238,,,,,,,,,,,,,,,,,125,F,star,1,0,,,,,,,,,,,,,,,,repeat,letter,lettRpt,j,0.8446,Lo,,,,,,4,,,,,,,,high,9,0,9,0,1,,,,,,,,,
294853,2022-12-04_23h23.52.357,vts_reward_expectancy_bt,2022.2.4,Win32,59.03884756,Chrome,1536,864,,,,,1,1239,,,,,,,,,,,,,,,,,146,H,circle,1,0,,,,,,,,,,,,,,,,repeat,letter,lettRpt,j,0.7081,Lo,,,,,,4,,,,,,,,high,10,0,10,0,1,,,,,,,,,
294853,2022-12-04_23h23.52.357,vts_reward_expectancy_bt,2022.2.4,Win32,59.03884756,Chrome,1536,864,,,,,0,1239,,,,,,,,,,,,,,,,,139,Y,triangle,1,0,,,,,,,,,,,,,,,,repeat,letter,lettRpt,k,0.6135,Hi,,,,,,4,,,,,,,,high,11,0,11,0,1,,,,,,,,,
294853,2022-12-04_23h23.52.357,vts_reward_expectancy_bt,2022.2.4,Win32,59.03884756,Chrome,1536,864,,,,,10,1249,,,,,,,,,,,,,,,,,132,B,triangle,1,0,,,,,,,,,,,,,,,,repeat,letter,lettRpt,j,0.5528,Hi,,,,,,4,,,,,,,,high,12,0,12,0,1,,,,,,,,,
294853,2022-12-04_23h23.52.357,vts_reward_expectancy_bt,2022.2.4,Win32,59.03884756,Chrome,1536,864,,,,,0,1249,,,,,,,,,,,,,,,,,167,S,hexagon,1,0,,,,,,,,,,,,,,,,repeat,letter,lettRpt,k,0.8439,Hi,,,,,,4,,,,,,,,high,13,0,13,0,1,,,,,,,,,
294853,2022-12-04_23h23.52.357,vts_reward_expectancy_bt,2022.2.4,Win32,59.03884756,Chrome,1536,864,,,,,1,1250,,,,,,,,,,,,,,,,,160,U,star,1,0,,,,,,,,,,,,,,,,repeat,letter,lettRpt,k,0.6203,Lo,,,,,,4,,,,,,,,high,14,0,14,0,1,,,,,,,,,
294853,2022-12-04_23h23.52.357,vts_reward_expectancy_bt,2022.2.4,Win32,59.03884756,Chrome,1536,864,,,,,1,1251,,,,,,,,,,,,,,,,,181,W,circle,1,0,,,,,,,,,,,,,,,,repeat,letter,lettRpt,k,0.5779,Lo,,,,,,4,,,,,,,,high,15,0,15,0,1,,,,,,,,,
294853,2022-12-04_23h23.52.357,vts_reward_expectancy_bt,2022.2.4,Win32,59.03884756,Chrome,1536,864,,,,,1,1252,,,,,,,,,,,,,,,,,181,Y,star,1,0,,,,,,,,,,,,,,,,repeat,letter,lettRpt,k,1.2275,Lo,,,,,,4,,,,,,,,high,16,0,16,0,1,,,,,,,,,
294853,2022-12-04_23h23.52.357,vts_reward_expectancy_bt,2022.2.4,Win32,59.03884756,Chrome,1536,864,,,,,0,1252,,,,,,,,,,,,,,,,,167,B,hexagon,1,0,,,,,,,,,,,,,,,,repeat,letter,lettRpt,j,0.8377,Hi,,,,,,4,,,,,,,,high,17,0,17,0,1,,,,,,,,,
294853,2022-12-04_23h23.52.357,vts_reward_expectancy_bt,2022.2.4,Win32,59.03884756,Chrome,1536,864,,,,,0,1252,,,,,,,,,,,,,,,,,146,W,triangle,0,0,,,,,,,,,,,,,,,,repeat,letter,NA,j,0.8333,Hi,,,,,,4,,,,,,,,high,18,0,18,0,1,,,,,,,,,
294853,2022-12-04_23h23.52.357,vts_reward_expectancy_bt,2022.2.4,Win32,59.03884756,Chrome,1536,864,,,,,1,1253,,,,,,,,,,,,,,,,,132,D,circle,1,1,,,,,,,,,,,,,,,,repeat,letter,lettRpt,j,0.8204,Lo,,,,,,4,,,,,,,,high,19,0,19,0,1,,,,,,,,,
294853,2022-12-04_23h23.52.357,vts_reward_expectancy_bt,2022.2.4,Win32,59.03884756,Chrome,1536,864,,,,,0,1253,,,,,,,,,,,,,,,,,160,H,triangle,1,0,,,,,,,,,,,,,,,,repeat,letter,lettRpt,j,0.7608,Hi,,,,,,4,,,,,,,,high,20,0,20,0,1,,,,,,,,,
294853,2022-12-04_23h23.52.357,vts_reward_expectancy_bt,2022.2.4,Win32,59.03884756,Chrome,1536,864,,,,,10,1263,,,,,,,,,,,,,,,,,139,U,circle,1,0,,,,,,,,,,,,,,,,repeat,letter,lettRpt,k,0.8098,Lo,,,,,,4,,,,,,,,high,21,0,21,0,1,,,,,,,,,
294853,2022-12-04_23h23.52.357,vts_reward_expectancy_bt,2022.2.4,Win32,59.03884756,Chrome,1536,864,,,,,10,1273,,,,,,,,,,,,,,,,,174,F,hexagon,1,0,,,,,,,,,,,,,,,,repeat,letter,lettRpt,j,0.5316,Hi,,,,,,4,,,,,,,,high,22,0,22,0,1,,,,,,,,,
294853,2022-12-04_23h23.52.357,vts_reward_expectancy_bt,2022.2.4,Win32,59.03884756,Chrome,1536,864,,,,,1,1274,,,,,,,,,,,,,,,,,125,S,star,1,0,,,,,,,,,,,,,,,,repeat,letter,lettRpt,k,0.679,Lo,,,,,,4,,,,,,,,high,23,0,23,0,1,,,,,,,,,
294853,2022-12-04_23h23.52.357,vts_reward_expectancy_bt,2022.2.4,Win32,59.03884756,Chrome,1536,864,,,,,0,1274,,,,,,,,,,,,,,,,,181,H,triangle,1,0,,,,,,,,,,,,,,,,repeat,letter,lettRpt,j,0.7935,Hi,,,,,,4,,,,,,,,high,24,0,24,0,1,,,,,,,,,
294853,2022-12-04_23h23.52.357,vts_reward_expectancy_bt,2022.2.4,Win32,59.03884756,Chrome,1536,864,,,,,0,1274,,,,,,,,,,,,,,,,,174,U,hexagon,1,0,,,,,,,,,,,,,,,,repeat,letter,lettRpt,k,0.7079,Hi,,,,,,4,,,,,,,,high,25,0,25,0,1,,,,,,,,,
294853,2022-12-04_23h23.52.357,vts_reward_expectancy_bt,2022.2.4,Win32,59.03884756,Chrome,1536,864,,,,,1,1275,,,,,,,,,,,,,,,,,167,D,star,1,0,,,,,,,,,,,,,,,,repeat,letter,lettRpt,j,0.6112,Lo,,,,,,4,,,,,,,,high,26,0,26,0,1,,,,,,,,,
294853,2022-12-04_23h23.52.357,vts_reward_expectancy_bt,2022.2.4,Win32,59.03884756,Chrome,1536,864,,,,,1,1276,,,,,,,,,,,,,,,,,160,B,circle,1,0,,,,,,,,,,,,,,,,repeat,letter,lettRpt,j,0.5414,Lo,,,,,,4,,,,,,,,high,27,0,27,0,1,,,,,,,,,
294853,2022-12-04_23h23.52.357,vts_reward_expectancy_bt,2022.2.4,Win32,59.03884756,Chrome,1536,864,,,,,1,1277,,,,,,,,,,,,,,,,,139,F,star,1,0,,,,,,,,,,,,,,,,repeat,letter,lettRpt,j,0.7269,Lo,,,,,,4,,,,,,,,high,28,0,28,0,1,,,,,,,,,
294853,2022-12-04_23h23.52.357,vts_reward_expectancy_bt,2022.2.4,Win32,59.03884756,Chrome,1536,864,,,,,1,1278,,,,,,,,,,,,,,,,,125,S,circle,1,0,,,,,,,,,,,,,,,,repeat,letter,lettRpt,k,0.6634,Lo,,,,,,4,,,,,,,,high,29,0,29,0,1,,,,,,,,,
294853,2022-12-04_23h23.52.357,vts_reward_expectancy_bt,2022.2.4,Win32,59.03884756,Chrome,1536,864,,,,,0,1278,,,,,,,,,,,,,,,,,146,W,triangle,1,0,,,,,,,,,,,,,,,,repeat,letter,lettRpt,k,1.1579,Hi,,,,,,4,,,,,,,,high,30,0,30,0,1,,,,,,,,,
