participant,date,expName,psychopyVersion,OS,frameRate,browser,xResolution,yResolution,key_resp.keys,key_resp.rt,training_resp.keys,training_resp.rt,points_trial,points_cumul,trainBlock,training.thisRepN,training.thisTrialN,training.thisN,training.thisIndex,training.ran,LTriangleOpac,LCircleOpac,LHexagonOpac,LStarOpac,RTriangleOpac,RCircleOpac,RHexagonOpac,RStarOpac,LShape_ID,RShape_ID,curr_topStim,curr_bottStim,curr_shape,acc,E1,target_resp_prac1.keys,target_resp_prac1.rt,pracBlock,task1_prac_trials.thisRepN,task1_prac_trials.thisTrialN,task1_prac_trials.thisN,task1_prac_trials.thisIndex,task1_prac_trials.ran,target_resp_prac2.keys,target_resp_prac2.rt,task2_praac_trials.thisRepN,task2_praac_trials.thisTrialN,task2_praac_trials.thisN,task2_praac_trials.thisIndex,task2_praac_trials.ran,alt,task,condition,target_resp.keys,rewCond,vts_practice_trials.thisRepN,vts_practice_trials.thisTrialN,vts_practice_trials.thisN,vts_practice_trials.thisIndex,vts_practice_trials.ran,target_resp.rt,blockNum,trials_norew.thisRepN,trials_norew.thisTrialN,trials_norew.thisN,trials_norew.thisIndex,trials_norew.ran,key_resp_2.keys,key_resp_2.rt,rewExpectancy,trials_rew.thisRepN,trials_rew.thisTrialN,trials_rew.thisN,trials_rew.thisIndex,trials_rew.ran,Q1,Q2,Q2_text,Q3,Q4,Q5_text,Q5,xRes,yRes
294850,2022-11-14_16h23.22.092,vts_reward_expectancy_bt,2022.2.4,Win32,60.16485169,Chrome,1536,960,,,,,,,,,,,,,,,,,,,,,,,,,,,,,,,,,,,,,,,,,,,,,,,,,,,,,,,,,,,,,,,,,,,,,,,,,,,,
294850,2022-11-14_16h23.22.092,vts_reward_expectancy_bt,2022.2.4,Win32,60.16485169,Chrome,1536,960,space,7.6398,,,,,,,,,,,,,,,,,,,,,,,,,,,,,,,,,,,,,,,,,,,,,,,,,,,,,,,,,,,,,,,,,,,,,,,,,,
294850,2022-11-14_16h23.22.092,vts_reward_expectancy_bt,2022.2.4,Win32,60.16485169,Chrome,1536,960,,,,,,,,,,,,,,,,,,,,,,,,,,,,,,,,,,,,,,,,,,,,,,,,,,,,,,,,,,,,,,,,,,,,,,,,,,,,
294850,2022-11-14_16h23.22.092,vts_reward_expectancy_bt,2022.2.4,Win32,60.16485169,Chrome,1536,960,,,l,19.3183,1,1,0,0,0,0,0,1,1,0,0,0,0,1,0,0,triangle,circle,,,,,,,,,,,,,,,,,,,,,,,,,,,,,,,,,,,,,,,,,,,,,,,,,,,,,,
294850,2022-11-14_16h23.22.092,vts_reward_expectancy_bt,2022.2.4,Win32,60.16485169,Chrome,1536,960,,,a,8.4206,10,11,0,0,1,1,9,1,0,0,0,1,1,0,0,0,star,triangle,,,,,,,,,,,,,,,,,,,,,,,,,,,,,,,,,,,,,,,,,,,,,,,,,,,,,,
294850,2022-11-14_16h23.22.092,vts_reward_expectancy_bt,2022.2.4,Win32,60.16485169,Chrome,1536,960,,,a,3.2007,10,21,0,0,2,2,4,1,0,1,0,0,0,0,1,0,circle,hexagon,,,,,,,,,,,,,,,,,,,,,,,,,,,,,,,,,,,,,,,,,,,,,,,,,,,,,,
294850,2022-11-14_16h23.22.092,vts_reward_expectancy_bt,2022.2.4,Win32,60.16485169,Chrome,1536,960,,,l,0.5292,10,31,0,0,3,3,5,1,0,1,0,0,0,0,0,1,circle,star,,,,,,,,,,,,,,,,,,,,,,,,,,,,,,,,,,,,,,,,,,,,,,,,,,,,,,
294850,2022-11-14_16h23.22.092,vts_reward_expectancy_bt,2022.2.4,Win32,60.16485169,Chrome,1536,960,,,a,0.3222,10,41,0,0,4,4,11,1,0,0,0,1,0,0,1,0,star,hexagon,,,,,,,,,,,,,,,,,,,,,,,,,,,,,,,,,,,,,,,,,,,,,,,,,,,,,,
294850,2022-11-14_16h23.22.092,vts_reward_expectancy_bt,2022.2.4,Win32,60.16485169,Chrome,1536,960,,,l,0.3242,10,51,0,0,5,5,7,1,0,0,1,0,0,1,0,0,hexagon,circle,,,,,,,,,,,,,,,,,,,,,,,,,,,,,,,,,,,,,,,,,,,,,,,,,,,,,,
294850,2022-11-14_16h23.22.092,vts_reward_expectancy_bt,2022.2.4,Win32,60.16485169,Chrome,1536,960,,,a,0.2843,10,61,0,0,6,6,6,1,0,0,1,0,1,0,0,0,hexagon,triangle,,,,,,,,,,,,,,,,,,,,,,,,,,,,,,,,,,,,,,,,,,,,,,,,,,,,,,
294850,2022-11-14_16h23.22.092,vts_reward_expectancy_bt,2022.2.4,Win32,60.16485169,Chrome,1536,960,,,l,0.2839,1,62,0,0,7,7,10,1,0,0,0,1,0,1,0,0,star ,circle,,,,,,,,,,,,,,,,,,,,,,,,,,,,,,,,,,,,,,,,,,,,,,,,,,,,,,
294850,2022-11-14_16h23.22.092,vts_reward_expectancy_bt,2022.2.4,Win32,60.16485169,Chrome,1536,960,,,a,0.0007,1,63,0,0,8,8,2,1,1,0,0,0,0,0,0,1,triangle,star,,,,,,,,,,,,,,,,,,,,,,,,,,,,,,,,,,,,,,,,,,,,,,,,,,,,,,
294850,2022-11-14_16h23.22.092,vts_reward_expectancy_bt,2022.2.4,Win32,60.16485169,Chrome,1536,960,,,l,0.4508,1,64,0,0,9,9,3,1,0,1,0,0,1,0,0,0,circle,triangle,,,,,,,,,,,,,,,,,,,,,,,,,,,,,,,,,,,,,,,,,,,,,,,,,,,,,,
294850,2022-11-14_16h23.22.092,vts_reward_expectancy_bt,2022.2.4,Win32,60.16485169,Chrome,1536,960,,,l,7.4063,10,74,0,0,10,10,8,1,0,0,1,0,0,0,0,1,hexagon,star,,,,,,,,,,,,,,,,,,,,,,,,,,,,,,,,,,,,,,,,,,,,,,,,,,,,,,
294850,2022-11-14_16h23.22.092,vts_reward_expectancy_bt,2022.2.4,Win32,60.16485169,Chrome,1536,960,,,a,1.9571,1,75,0,0,11,11,1,1,1,0,0,0,0,0,1,0,triangle,hexagon,,,,,,,,,,,,,,,,,,,,,,,,,,,,,,,,,,,,,,,,,,,,,,,,,,,,,,
294850,2022-11-14_16h23.22.092,vts_reward_expectancy_bt,2022.2.4,Win32,60.16485169,Chrome,1536,960,,,l,0.7327,1,76,0,1,0,12,1,1,1,0,0,0,0,0,1,0,triangle,hexagon,,,,,,,,,,,,,,,,,,,,,,,,,,,,,,,,,,,,,,,,,,,,,,,,,,,,,,
294850,2022-11-14_16h23.22.092,vts_reward_expectancy_bt,2022.2.4,Win32,60.16485169,Chrome,1536,960,,,l,1.1013,1,77,0,1,1,13,8,1,0,0,1,0,0,0,0,1,hexagon,star,,,,,,,,,,,,,,,,,,,,,,,,,,,,,,,,,,,,,,,,,,,,,,,,,,,,,,
294850,2022-11-14_16h23.22.092,vts_reward_expectancy_bt,2022.2.4,Win32,60.16485169,Chrome,1536,960,,,a,0.9743,1,78,0,1,2,14,10,1,0,0,0,1,0,1,0,0,star ,circle,,,,,,,,,,,,,,,,,,,,,,,,,,,,,,,,,,,,,,,,,,,,,,,,,,,,,,
294850,2022-11-14_16h23.22.092,vts_reward_expectancy_bt,2022.2.4,Win32,60.16485169,Chrome,1536,960,,,a,1.4521,1,79,0,1,3,15,9,1,0,0,0,1,1,0,0,0,star,triangle,,,,,,,,,,,,,,,,,,,,,,,,,,,,,,,,,,,,,,,,,,,,,,,,,,,,,,
294850,2022-11-14_16h23.22.092,vts_reward_expectancy_bt,2022.2.4,Win32,60.16485169,Chrome,1536,960,,,l,2.7692,10,89,0,1,4,16,0,1,1,0,0,0,0,1,0,0,triangle,circle,,,,,,,,,,,,,,,,,,,,,,,,,,,,,,,,,,,,,,,,,,,,,,,,,,,,,,
294850,2022-11-14_16h23.22.092,vts_reward_expectancy_bt,2022.2.4,Win32,60.16485169,Chrome,1536,960,,,l,0.9023,10,99,0,1,5,17,2,1,1,0,0,0,0,0,0,1,triangle,star,,,,,,,,,,,,,,,,,,,,,,,,,,,,,,,,,,,,,,,,,,,,,,,,,,,,,,
294850,2022-11-14_16h23.22.092,vts_reward_expectancy_bt,2022.2.4,Win32,60.16485169,Chrome,1536,960,,,a,1.2344,10,109,0,1,6,18,4,1,0,1,0,0,0,0,1,0,circle,hexagon,,,,,,,,,,,,,,,,,,,,,,,,,,,,,,,,,,,,,,,,,,,,,,,,,,,,,,
294850,2022-11-14_16h23.22.092,vts_reward_expectancy_bt,2022.2.4,Win32,60.16485169,Chrome,1536,960,,,a,1.5687,10,119,0,1,7,19,11,1,0,0,0,1,0,0,1,0,star,hexagon,,,,,,,,,,,,,,,,,,,,,,,,,,,,,,,,,,,,,,,,,,,,,,,,,,,,,,
294850,2022-11-14_16h23.22.092,vts_reward_expectancy_bt,2022.2.4,Win32,60.16485169,Chrome,1536,960,,,l,1.2906,1,120,0,1,8,20,6,1,0,0,1,0,1,0,0,0,hexagon,triangle,,,,,,,,,,,,,,,,,,,,,,,,,,,,,,,,,,,,,,,,,,,,,,,,,,,,,,
294850,2022-11-14_16h23.22.092,vts_reward_expectancy_bt,2022.2.4,Win32,60.16485169,Chrome,1536,960,,,a,0.6148,10,130,0,1,9,21,7,1,0,0,1,0,0,1,0,0,hexagon,circle,,,,,,,,,,,,,,,,,,,,,,,,,,,,,,,,,,,,,,,,,,,,,,,,,,,,,,
294850,2022-11-14_16h23.22.092,vts_reward_expectancy_bt,2022.2.4,Win32,60.16485169,Chrome,1536,960,,,l,0.7363,1,131,0,1,10,22,3,1,0,1,0,0,1,0,0,0,circle,triangle,,,,,,,,,,,,,,,,,,,,,,,,,,,,,,,,,,,,,,,,,,,,,,,,,,,,,,
294850,2022-11-14_16h23.22.092,vts_reward_expectancy_bt,2022.2.4,Win32,60.16485169,Chrome,1536,960,,,a,0.7894,10,141,0,1,11,23,5,1,0,1,0,0,0,0,0,1,circle,star,,,,,,,,,,,,,,,,,,,,,,,,,,,,,,,,,,,,,,,,,,,,,,,,,,,,,,
294850,2022-11-14_16h23.22.092,vts_reward_expectancy_bt,2022.2.4,Win32,60.16485169,Chrome,1536,960,,,a,0.9869,10,151,0,2,0,24,8,1,0,0,1,0,0,0,0,1,hexagon,star,,,,,,,,,,,,,,,,,,,,,,,,,,,,,,,,,,,,,,,,,,,,,,,,,,,,,,
294850,2022-11-14_16h23.22.092,vts_reward_expectancy_bt,2022.2.4,Win32,60.16485169,Chrome,1536,960,,,a,0.951,1,152,0,2,1,25,7,1,0,0,1,0,0,1,0,0,hexagon,circle,,,,,,,,,,,,,,,,,,,,,,,,,,,,,,,,,,,,,,,,,,,,,,,,,,,,,,
294850,2022-11-14_16h23.22.092,vts_reward_expectancy_bt,2022.2.4,Win32,60.16485169,Chrome,1536,960,,,a,1.2841,1,153,0,2,2,26,10,1,0,0,0,1,0,1,0,0,star ,circle,,,,,,,,,,,,,,,,,,,,,,,,,,,,,,,,,,,,,,,,,,,,,,,,,,,,,,
294850,2022-11-14_16h23.22.092,vts_reward_expectancy_bt,2022.2.4,Win32,60.16485169,Chrome,1536,960,,,l,0.5985,10,163,0,2,3,27,1,1,1,0,0,0,0,0,1,0,triangle,hexagon,,,,,,,,,,,,,,,,,,,,,,,,,,,,,,,,,,,,,,,,,,,,,,,,,,,,,,
294850,2022-11-14_16h23.22.092,vts_reward_expectancy_bt,2022.2.4,Win32,60.16485169,Chrome,1536,960,,,a,0.8216,1,164,0,2,4,28,0,1,1,0,0,0,0,1,0,0,triangle,circle,,,,,,,,,,,,,,,,,,,,,,,,,,,,,,,,,,,,,,,,,,,,,,,,,,,,,,
294850,2022-11-14_16h23.22.092,vts_reward_expectancy_bt,2022.2.4,Win32,60.16485169,Chrome,1536,960,,,l,1.2071,10,174,0,2,5,29,5,1,0,1,0,0,0,0,0,1,circle,star,,,,,,,,,,,,,,,,,,,,,,,,,,,,,,,,,,,,,,,,,,,,,,,,,,,,,,
294850,2022-11-14_16h23.22.092,vts_reward_expectancy_bt,2022.2.4,Win32,60.16485169,Chrome,1536,960,,,l,2.5516,1,175,0,2,6,30,6,1,0,0,1,0,1,0,0,0,hexagon,triangle,,,,,,,,,,,,,,,,,,,,,,,,,,,,,,,,,,,,,,,,,,,,,,,,,,,,,,
294850,2022-11-14_16h23.22.092,vts_reward_expectancy_bt,2022.2.4,Win32,60.16485169,Chrome,1536,960,,,a,0.9016,10,185,0,2,7,31,2,1,1,0,0,0,0,0,0,1,triangle,star,,,,,,,,,,,,,,,,,,,,,,,,,,,,,,,,,,,,,,,,,,,,,,,,,,,,,,
294850,2022-11-14_16h23.22.092,vts_reward_expectancy_bt,2022.2.4,Win32,60.16485169,Chrome,1536,960,,,l,0.7878,1,186,0,2,8,32,9,1,0,0,0,1,1,0,0,0,star,triangle,,,,,,,,,,,,,,,,,,,,,,,,,,,,,,,,,,,,,,,,,,,,,,,,,,,,,,
294850,2022-11-14_16h23.22.092,vts_reward_expectancy_bt,2022.2.4,Win32,60.16485169,Chrome,1536,960,,,a,0.7073,10,196,0,2,9,33,4,1,0,1,0,0,0,0,1,0,circle,hexagon,,,,,,,,,,,,,,,,,,,,,,,,,,,,,,,,,,,,,,,,,,,,,,,,,,,,,,
294850,2022-11-14_16h23.22.092,vts_reward_expectancy_bt,2022.2.4,Win32,60.16485169,Chrome,1536,960,,,a,0.4901,1,197,0,2,10,34,3,1,0,1,0,0,1,0,0,0,circle,triangle,,,,,,,,,,,,,,,,,,,,,,,,,,,,,,,,,,,,,,,,,,,,,,,,,,,,,,
294850,2022-11-14_16h23.22.092,vts_reward_expectancy_bt,2022.2.4,Win32,60.16485169,Chrome,1536,960,,,l,0.4557,10,207,0,2,11,35,11,1,0,0,0,1,0,0,1,0,star,hexagon,,,,,,,,,,,,,,,,,,,,,,,,,,,,,,,,,,,,,,,,,,,,,,,,,,,,,,
294850,2022-11-14_16h23.22.092,vts_reward_expectancy_bt,2022.2.4,Win32,60.16485169,Chrome,1536,960,,,a,0.6797,10,217,1,0,0,0,9,1,0,0,0,1,1,0,0,0,star,triangle,,,,,,,,,,,,,,,,,,,,,,,,,,,,,,,,,,,,,,,,,,,,,,,,,,,,,,
294850,2022-11-14_16h23.22.092,vts_reward_expectancy_bt,2022.2.4,Win32,60.16485169,Chrome,1536,960,,,l,1.1719,10,227,1,0,1,1,10,1,0,0,0,1,0,1,0,0,star ,circle,,,,,,,,,,,,,,,,,,,,,,,,,,,,,,,,,,,,,,,,,,,,,,,,,,,,,,
294850,2022-11-14_16h23.22.092,vts_reward_expectancy_bt,2022.2.4,Win32,60.16485169,Chrome,1536,960,,,a,0.8037,1,228,1,0,2,2,8,1,0,0,1,0,0,0,0,1,hexagon,star,,,,,,,,,,,,,,,,,,,,,,,,,,,,,,,,,,,,,,,,,,,,,,,,,,,,,,
294850,2022-11-14_16h23.22.092,vts_reward_expectancy_bt,2022.2.4,Win32,60.16485169,Chrome,1536,960,,,a,4.3711,1,229,1,0,3,3,11,1,0,0,0,1,0,0,1,0,star,hexagon,,,,,,,,,,,,,,,,,,,,,,,,,,,,,,,,,,,,,,,,,,,,,,,,,,,,,,
294850,2022-11-14_16h23.22.092,vts_reward_expectancy_bt,2022.2.4,Win32,60.16485169,Chrome,1536,960,,,a,1.4713,1,230,1,0,4,4,0,1,1,0,0,0,0,1,0,0,triangle,circle,,,,,,,,,,,,,,,,,,,,,,,,,,,,,,,,,,,,,,,,,,,,,,,,,,,,,,
294850,2022-11-14_16h23.22.092,vts_reward_expectancy_bt,2022.2.4,Win32,60.16485169,Chrome,1536,960,,,l,1.2721,1,231,1,0,5,5,4,1,0,1,0,0,0,0,1,0,circle,hexagon,,,,,,,,,,,,,,,,,,,,,,,,,,,,,,,,,,,,,,,,,,,,,,,,,,,,,,
294850,2022-11-14_16h23.22.092,vts_reward_expectancy_bt,2022.2.4,Win32,60.16485169,Chrome,1536,960,,,a,0.891,10,241,1,0,6,6,6,1,0,0,1,0,1,0,0,0,hexagon,triangle,,,,,,,,,,,,,,,,,,,,,,,,,,,,,,,,,,,,,,,,,,,,,,,,,,,,,,
294850,2022-11-14_16h23.22.092,vts_reward_expectancy_bt,2022.2.4,Win32,60.16485169,Chrome,1536,960,,,a,0.7015,10,251,1,0,7,7,1,1,1,0,0,0,0,0,1,0,triangle,hexagon,,,,,,,,,,,,,,,,,,,,,,,,,,,,,,,,,,,,,,,,,,,,,,,,,,,,,,
294850,2022-11-14_16h23.22.092,vts_reward_expectancy_bt,2022.2.4,Win32,60.16485169,Chrome,1536,960,,,l,0.5357,1,252,1,0,8,8,2,1,1,0,0,0,0,0,0,1,triangle,star,,,,,,,,,,,,,,,,,,,,,,,,,,,,,,,,,,,,,,,,,,,,,,,,,,,,,,
294850,2022-11-14_16h23.22.092,vts_reward_expectancy_bt,2022.2.4,Win32,60.16485169,Chrome,1536,960,,,a,4.1429,10,262,1,0,9,9,5,1,0,1,0,0,0,0,0,1,circle,star,,,,,,,,,,,,,,,,,,,,,,,,,,,,,,,,,,,,,,,,,,,,,,,,,,,,,,
294850,2022-11-14_16h23.22.092,vts_reward_expectancy_bt,2022.2.4,Win32,60.16485169,Chrome,1536,960,,,l,1.7732,10,272,1,0,10,10,3,1,0,1,0,0,1,0,0,0,circle,triangle,,,,,,,,,,,,,,,,,,,,,,,,,,,,,,,,,,,,,,,,,,,,,,,,,,,,,,
294850,2022-11-14_16h23.22.092,vts_reward_expectancy_bt,2022.2.4,Win32,60.16485169,Chrome,1536,960,,,a,0.4775,1,273,1,0,11,11,7,1,0,0,1,0,0,1,0,0,hexagon,circle,,,,,,,,,,,,,,,,,,,,,,,,,,,,,,,,,,,,,,,,,,,,,,,,,,,,,,
294850,2022-11-14_16h23.22.092,vts_reward_expectancy_bt,2022.2.4,Win32,60.16485169,Chrome,1536,960,,,l,0.3669,1,274,1,1,0,12,2,1,1,0,0,0,0,0,0,1,triangle,star,,,,,,,,,,,,,,,,,,,,,,,,,,,,,,,,,,,,,,,,,,,,,,,,,,,,,,
294850,2022-11-14_16h23.22.092,vts_reward_expectancy_bt,2022.2.4,Win32,60.16485169,Chrome,1536,960,,,a,0.4335,1,275,1,1,1,13,5,1,0,1,0,0,0,0,0,1,circle,star,,,,,,,,,,,,,,,,,,,,,,,,,,,,,,,,,,,,,,,,,,,,,,,,,,,,,,
294850,2022-11-14_16h23.22.092,vts_reward_expectancy_bt,2022.2.4,Win32,60.16485169,Chrome,1536,960,,,a,1.6262,1,276,1,1,2,14,0,1,1,0,0,0,0,1,0,0,triangle,circle,,,,,,,,,,,,,,,,,,,,,,,,,,,,,,,,,,,,,,,,,,,,,,,,,,,,,,
294850,2022-11-14_16h23.22.092,vts_reward_expectancy_bt,2022.2.4,Win32,60.16485169,Chrome,1536,960,,,l,1.3181,10,286,1,1,3,15,4,1,0,1,0,0,0,0,1,0,circle,hexagon,,,,,,,,,,,,,,,,,,,,,,,,,,,,,,,,,,,,,,,,,,,,,,,,,,,,,,
294850,2022-11-14_16h23.22.092,vts_reward_expectancy_bt,2022.2.4,Win32,60.16485169,Chrome,1536,960,,,l,1.1112,10,296,1,1,4,16,1,1,1,0,0,0,0,0,1,0,triangle,hexagon,,,,,,,,,,,,,,,,,,,,,,,,,,,,,,,,,,,,,,,,,,,,,,,,,,,,,,
294850,2022-11-14_16h23.22.092,vts_reward_expectancy_bt,2022.2.4,Win32,60.16485169,Chrome,1536,960,,,l,5.8581,10,306,1,1,5,17,3,1,0,1,0,0,1,0,0,0,circle,triangle,,,,,,,,,,,,,,,,,,,,,,,,,,,,,,,,,,,,,,,,,,,,,,,,,,,,,,
294850,2022-11-14_16h23.22.092,vts_reward_expectancy_bt,2022.2.4,Win32,60.16485169,Chrome,1536,960,,,a,1.213,10,316,1,1,6,18,9,1,0,0,0,1,1,0,0,0,star,triangle,,,,,,,,,,,,,,,,,,,,,,,,,,,,,,,,,,,,,,,,,,,,,,,,,,,,,,
294850,2022-11-14_16h23.22.092,vts_reward_expectancy_bt,2022.2.4,Win32,60.16485169,Chrome,1536,960,,,l,1.3424,1,317,1,1,7,19,11,1,0,0,0,1,0,0,1,0,star,hexagon,,,,,,,,,,,,,,,,,,,,,,,,,,,,,,,,,,,,,,,,,,,,,,,,,,,,,,
294850,2022-11-14_16h23.22.092,vts_reward_expectancy_bt,2022.2.4,Win32,60.16485169,Chrome,1536,960,,,a,1.1995,1,318,1,1,8,20,10,1,0,0,0,1,0,1,0,0,star ,circle,,,,,,,,,,,,,,,,,,,,,,,,,,,,,,,,,,,,,,,,,,,,,,,,,,,,,,
294850,2022-11-14_16h23.22.092,vts_reward_expectancy_bt,2022.2.4,Win32,60.16485169,Chrome,1536,960,,,l,4.5218,1,319,1,1,9,21,8,1,0,0,1,0,0,0,0,1,hexagon,star,,,,,,,,,,,,,,,,,,,,,,,,,,,,,,,,,,,,,,,,,,,,,,,,,,,,,,
294850,2022-11-14_16h23.22.092,vts_reward_expectancy_bt,2022.2.4,Win32,60.16485169,Chrome,1536,960,,,a,1.3022,1,320,1,1,10,22,6,1,0,0,1,0,1,0,0,0,hexagon,triangle,,,,,,,,,,,,,,,,,,,,,,,,,,,,,,,,,,,,,,,,,,,,,,,,,,,,,,
294850,2022-11-14_16h23.22.092,vts_reward_expectancy_bt,2022.2.4,Win32,60.16485169,Chrome,1536,960,,,l,0.4351,1,321,1,1,11,23,7,1,0,0,1,0,0,1,0,0,hexagon,circle,,,,,,,,,,,,,,,,,,,,,,,,,,,,,,,,,,,,,,,,,,,,,,,,,,,,,,
294850,2022-11-14_16h23.22.092,vts_reward_expectancy_bt,2022.2.4,Win32,60.16485169,Chrome,1536,960,,,l,1.1909,10,331,1,2,0,24,6,1,0,0,1,0,1,0,0,0,hexagon,triangle,,,,,,,,,,,,,,,,,,,,,,,,,,,,,,,,,,,,,,,,,,,,,,,,,,,,,,
294850,2022-11-14_16h23.22.092,vts_reward_expectancy_bt,2022.2.4,Win32,60.16485169,Chrome,1536,960,,,l,1.3149,10,341,1,2,1,25,1,1,1,0,0,0,0,0,1,0,triangle,hexagon,,,,,,,,,,,,,,,,,,,,,,,,,,,,,,,,,,,,,,,,,,,,,,,,,,,,,,
294850,2022-11-14_16h23.22.092,vts_reward_expectancy_bt,2022.2.4,Win32,60.16485169,Chrome,1536,960,,,a,1.02,1,342,1,2,2,26,4,1,0,1,0,0,0,0,1,0,circle,hexagon,,,,,,,,,,,,,,,,,,,,,,,,,,,,,,,,,,,,,,,,,,,,,,,,,,,,,,
294850,2022-11-14_16h23.22.092,vts_reward_expectancy_bt,2022.2.4,Win32,60.16485169,Chrome,1536,960,,,a,1.0939,10,352,1,2,3,27,11,1,0,0,0,1,0,0,1,0,star,hexagon,,,,,,,,,,,,,,,,,,,,,,,,,,,,,,,,,,,,,,,,,,,,,,,,,,,,,,
294850,2022-11-14_16h23.22.092,vts_reward_expectancy_bt,2022.2.4,Win32,60.16485169,Chrome,1536,960,,,l,1.6671,10,362,1,2,4,28,3,1,0,1,0,0,1,0,0,0,circle,triangle,,,,,,,,,,,,,,,,,,,,,,,,,,,,,,,,,,,,,,,,,,,,,,,,,,,,,,
294850,2022-11-14_16h23.22.092,vts_reward_expectancy_bt,2022.2.4,Win32,60.16485169,Chrome,1536,960,,,a,1.7461,1,363,1,2,5,29,0,1,1,0,0,0,0,1,0,0,triangle,circle,,,,,,,,,,,,,,,,,,,,,,,,,,,,,,,,,,,,,,,,,,,,,,,,,,,,,,
294850,2022-11-14_16h23.22.092,vts_reward_expectancy_bt,2022.2.4,Win32,60.16485169,Chrome,1536,960,,,a,0.8927,1,364,1,2,6,30,9,1,0,0,0,1,1,0,0,0,star,triangle,,,,,,,,,,,,,,,,,,,,,,,,,,,,,,,,,,,,,,,,,,,,,,,,,,,,,,
294850,2022-11-14_16h23.22.092,vts_reward_expectancy_bt,2022.2.4,Win32,60.16485169,Chrome,1536,960,,,l,1.0397,10,374,1,2,7,31,2,1,1,0,0,0,0,0,0,1,triangle,star,,,,,,,,,,,,,,,,,,,,,,,,,,,,,,,,,,,,,,,,,,,,,,,,,,,,,,
294850,2022-11-14_16h23.22.092,vts_reward_expectancy_bt,2022.2.4,Win32,60.16485169,Chrome,1536,960,,,l,0.7392,10,384,1,2,8,32,8,1,0,0,1,0,0,0,0,1,hexagon,star,,,,,,,,,,,,,,,,,,,,,,,,,,,,,,,,,,,,,,,,,,,,,,,,,,,,,,
294850,2022-11-14_16h23.22.092,vts_reward_expectancy_bt,2022.2.4,Win32,60.16485169,Chrome,1536,960,,,a,0.676,10,394,1,2,9,33,10,1,0,0,0,1,0,1,0,0,star ,circle,,,,,,,,,,,,,,,,,,,,,,,,,,,,,,,,,,,,,,,,,,,,,,,,,,,,,,
294850,2022-11-14_16h23.22.092,vts_reward_expectancy_bt,2022.2.4,Win32,60.16485169,Chrome,1536,960,,,l,0.7503,10,404,1,2,10,34,5,1,0,1,0,0,0,0,0,1,circle,star,,,,,,,,,,,,,,,,,,,,,,,,,,,,,,,,,,,,,,,,,,,,,,,,,,,,,,
294850,2022-11-14_16h23.22.092,vts_reward_expectancy_bt,2022.2.4,Win32,60.16485169,Chrome,1536,960,,,l,1.7871,1,405,1,2,11,35,7,1,0,0,1,0,0,1,0,0,hexagon,circle,,,,,,,,,,,,,,,,,,,,,,,,,,,,,,,,,,,,,,,,,,,,,,,,,,,,,,
294850,2022-11-14_16h23.22.092,vts_reward_expectancy_bt,2022.2.4,Win32,60.16485169,Chrome,1536,960,,,a,0.6656,1,406,2,0,0,0,6,1,0,0,1,0,1,0,0,0,hexagon,triangle,,,,,,,,,,,,,,,,,,,,,,,,,,,,,,,,,,,,,,,,,,,,,,,,,,,,,,
294850,2022-11-14_16h23.22.092,vts_reward_expectancy_bt,2022.2.4,Win32,60.16485169,Chrome,1536,960,,,a,4.1124,1,407,2,0,1,1,7,1,0,0,1,0,0,1,0,0,hexagon,circle,,,,,,,,,,,,,,,,,,,,,,,,,,,,,,,,,,,,,,,,,,,,,,,,,,,,,,
294850,2022-11-14_16h23.22.092,vts_reward_expectancy_bt,2022.2.4,Win32,60.16485169,Chrome,1536,960,,,l,1.4328,10,417,2,0,2,2,3,1,0,1,0,0,1,0,0,0,circle,triangle,,,,,,,,,,,,,,,,,,,,,,,,,,,,,,,,,,,,,,,,,,,,,,,,,,,,,,
294850,2022-11-14_16h23.22.092,vts_reward_expectancy_bt,2022.2.4,Win32,60.16485169,Chrome,1536,960,,,l,2.9437,1,418,2,0,3,3,8,1,0,0,1,0,0,0,0,1,hexagon,star,,,,,,,,,,,,,,,,,,,,,,,,,,,,,,,,,,,,,,,,,,,,,,,,,,,,,,
294850,2022-11-14_16h23.22.092,vts_reward_expectancy_bt,2022.2.4,Win32,60.16485169,Chrome,1536,960,,,l,0.9291,10,428,2,0,4,4,5,1,0,1,0,0,0,0,0,1,circle,star,,,,,,,,,,,,,,,,,,,,,,,,,,,,,,,,,,,,,,,,,,,,,,,,,,,,,,
294850,2022-11-14_16h23.22.092,vts_reward_expectancy_bt,2022.2.4,Win32,60.16485169,Chrome,1536,960,,,a,1.6576,1,429,2,0,5,5,2,1,1,0,0,0,0,0,0,1,triangle,star,,,,,,,,,,,,,,,,,,,,,,,,,,,,,,,,,,,,,,,,,,,,,,,,,,,,,,
294850,2022-11-14_16h23.22.092,vts_reward_expectancy_bt,2022.2.4,Win32,60.16485169,Chrome,1536,960,,,a,2.0381,1,430,2,0,6,6,9,1,0,0,0,1,1,0,0,0,star,triangle,,,,,,,,,,,,,,,,,,,,,,,,,,,,,,,,,,,,,,,,,,,,,,,,,,,,,,
294850,2022-11-14_16h23.22.092,vts_reward_expectancy_bt,2022.2.4,Win32,60.16485169,Chrome,1536,960,,,l,1.3393,10,440,2,0,7,7,1,1,1,0,0,0,0,0,1,0,triangle,hexagon,,,,,,,,,,,,,,,,,,,,,,,,,,,,,,,,,,,,,,,,,,,,,,,,,,,,,,
294850,2022-11-14_16h23.22.092,vts_reward_expectancy_bt,2022.2.4,Win32,60.16485169,Chrome,1536,960,,,l,2.1949,1,441,2,0,8,8,4,1,0,1,0,0,0,0,1,0,circle,hexagon,,,,,,,,,,,,,,,,,,,,,,,,,,,,,,,,,,,,,,,,,,,,,,,,,,,,,,
294850,2022-11-14_16h23.22.092,vts_reward_expectancy_bt,2022.2.4,Win32,60.16485169,Chrome,1536,960,,,a,6.0303,1,442,2,0,9,9,10,1,0,0,0,1,0,1,0,0,star ,circle,,,,,,,,,,,,,,,,,,,,,,,,,,,,,,,,,,,,,,,,,,,,,,,,,,,,,,
294850,2022-11-14_16h23.22.092,vts_reward_expectancy_bt,2022.2.4,Win32,60.16485169,Chrome,1536,960,,,l,1.5388,1,443,2,0,10,10,0,1,1,0,0,0,0,1,0,0,triangle,circle,,,,,,,,,,,,,,,,,,,,,,,,,,,,,,,,,,,,,,,,,,,,,,,,,,,,,,
294850,2022-11-14_16h23.22.092,vts_reward_expectancy_bt,2022.2.4,Win32,60.16485169,Chrome,1536,960,,,a,1.1016,10,453,2,0,11,11,11,1,0,0,0,1,0,0,1,0,star,hexagon,,,,,,,,,,,,,,,,,,,,,,,,,,,,,,,,,,,,,,,,,,,,,,,,,,,,,,
294850,2022-11-14_16h23.22.092,vts_reward_expectancy_bt,2022.2.4,Win32,60.16485169,Chrome,1536,960,,,a,1.3048,1,454,2,1,0,12,5,1,0,1,0,0,0,0,0,1,circle,star,,,,,,,,,,,,,,,,,,,,,,,,,,,,,,,,,,,,,,,,,,,,,,,,,,,,,,
294850,2022-11-14_16h23.22.092,vts_reward_expectancy_bt,2022.2.4,Win32,60.16485169,Chrome,1536,960,,,a,1.0026,10,464,2,1,1,13,9,1,0,0,0,1,1,0,0,0,star,triangle,,,,,,,,,,,,,,,,,,,,,,,,,,,,,,,,,,,,,,,,,,,,,,,,,,,,,,
294850,2022-11-14_16h23.22.092,vts_reward_expectancy_bt,2022.2.4,Win32,60.16485169,Chrome,1536,960,,,l,1.6515,1,465,2,1,2,14,4,1,0,1,0,0,0,0,1,0,circle,hexagon,,,,,,,,,,,,,,,,,,,,,,,,,,,,,,,,,,,,,,,,,,,,,,,,,,,,,,
294850,2022-11-14_16h23.22.092,vts_reward_expectancy_bt,2022.2.4,Win32,60.16485169,Chrome,1536,960,,,a,1.9239,1,466,2,1,3,15,7,1,0,0,1,0,0,1,0,0,hexagon,circle,,,,,,,,,,,,,,,,,,,,,,,,,,,,,,,,,,,,,,,,,,,,,,,,,,,,,,
294850,2022-11-14_16h23.22.092,vts_reward_expectancy_bt,2022.2.4,Win32,60.16485169,Chrome,1536,960,,,a,0.8391,1,467,2,1,4,16,11,1,0,0,0,1,0,0,1,0,star,hexagon,,,,,,,,,,,,,,,,,,,,,,,,,,,,,,,,,,,,,,,,,,,,,,,,,,,,,,
294850,2022-11-14_16h23.22.092,vts_reward_expectancy_bt,2022.2.4,Win32,60.16485169,Chrome,1536,960,,,a,1.3208,1,468,2,1,5,17,10,1,0,0,0,1,0,1,0,0,star ,circle,,,,,,,,,,,,,,,,,,,,,,,,,,,,,,,,,,,,,,,,,,,,,,,,,,,,,,
294850,2022-11-14_16h23.22.092,vts_reward_expectancy_bt,2022.2.4,Win32,60.16485169,Chrome,1536,960,,,l,1.009,10,478,2,1,6,18,6,1,0,0,1,0,1,0,0,0,hexagon,triangle,,,,,,,,,,,,,,,,,,,,,,,,,,,,,,,,,,,,,,,,,,,,,,,,,,,,,,
294850,2022-11-14_16h23.22.092,vts_reward_expectancy_bt,2022.2.4,Win32,60.16485169,Chrome,1536,960,,,l,3.0224,1,479,2,1,7,19,1,1,1,0,0,0,0,0,1,0,triangle,hexagon,,,,,,,,,,,,,,,,,,,,,,,,,,,,,,,,,,,,,,,,,,,,,,,,,,,,,,
294850,2022-11-14_16h23.22.092,vts_reward_expectancy_bt,2022.2.4,Win32,60.16485169,Chrome,1536,960,,,a,0.7797,10,489,2,1,8,20,3,1,0,1,0,0,1,0,0,0,circle,triangle,,,,,,,,,,,,,,,,,,,,,,,,,,,,,,,,,,,,,,,,,,,,,,,,,,,,,,
294850,2022-11-14_16h23.22.092,vts_reward_expectancy_bt,2022.2.4,Win32,60.16485169,Chrome,1536,960,,,l,1.3353,1,490,2,1,9,21,0,1,1,0,0,0,0,1,0,0,triangle,circle,,,,,,,,,,,,,,,,,,,,,,,,,,,,,,,,,,,,,,,,,,,,,,,,,,,,,,
294850,2022-11-14_16h23.22.092,vts_reward_expectancy_bt,2022.2.4,Win32,60.16485169,Chrome,1536,960,,,l,1.0564,10,500,2,1,10,22,2,1,1,0,0,0,0,0,0,1,triangle,star,,,,,,,,,,,,,,,,,,,,,,,,,,,,,,,,,,,,,,,,,,,,,,,,,,,,,,
294850,2022-11-14_16h23.22.092,vts_reward_expectancy_bt,2022.2.4,Win32,60.16485169,Chrome,1536,960,,,a,3.3472,1,501,2,1,11,23,8,1,0,0,1,0,0,0,0,1,hexagon,star,,,,,,,,,,,,,,,,,,,,,,,,,,,,,,,,,,,,,,,,,,,,,,,,,,,,,,
294850,2022-11-14_16h23.22.092,vts_reward_expectancy_bt,2022.2.4,Win32,60.16485169,Chrome,1536,960,,,l,1.4081,10,511,2,2,0,24,1,1,1,0,0,0,0,0,1,0,triangle,hexagon,,,,,,,,,,,,,,,,,,,,,,,,,,,,,,,,,,,,,,,,,,,,,,,,,,,,,,
294850,2022-11-14_16h23.22.092,vts_reward_expectancy_bt,2022.2.4,Win32,60.16485169,Chrome,1536,960,,,l,1.4653,10,521,2,2,1,25,11,1,0,0,0,1,0,0,1,0,star,hexagon,,,,,,,,,,,,,,,,,,,,,,,,,,,,,,,,,,,,,,,,,,,,,,,,,,,,,,
294850,2022-11-14_16h23.22.092,vts_reward_expectancy_bt,2022.2.4,Win32,60.16485169,Chrome,1536,960,,,l,1.5025,10,531,2,2,2,26,2,1,1,0,0,0,0,0,0,1,triangle,star,,,,,,,,,,,,,,,,,,,,,,,,,,,,,,,,,,,,,,,,,,,,,,,,,,,,,,
294850,2022-11-14_16h23.22.092,vts_reward_expectancy_bt,2022.2.4,Win32,60.16485169,Chrome,1536,960,,,l,1.2527,1,532,2,2,3,27,10,1,0,0,0,1,0,1,0,0,star ,circle,,,,,,,,,,,,,,,,,,,,,,,,,,,,,,,,,,,,,,,,,,,,,,,,,,,,,,
294850,2022-11-14_16h23.22.092,vts_reward_expectancy_bt,2022.2.4,Win32,60.16485169,Chrome,1536,960,,,a,1.441,10,542,2,2,4,28,6,1,0,0,1,0,1,0,0,0,hexagon,triangle,,,,,,,,,,,,,,,,,,,,,,,,,,,,,,,,,,,,,,,,,,,,,,,,,,,,,,
294850,2022-11-14_16h23.22.092,vts_reward_expectancy_bt,2022.2.4,Win32,60.16485169,Chrome,1536,960,,,a,1.4285,1,543,2,2,5,29,7,1,0,0,1,0,0,1,0,0,hexagon,circle,,,,,,,,,,,,,,,,,,,,,,,,,,,,,,,,,,,,,,,,,,,,,,,,,,,,,,
294850,2022-11-14_16h23.22.092,vts_reward_expectancy_bt,2022.2.4,Win32,60.16485169,Chrome,1536,960,,,a,0.5008,10,553,2,2,6,30,4,1,0,1,0,0,0,0,1,0,circle,hexagon,,,,,,,,,,,,,,,,,,,,,,,,,,,,,,,,,,,,,,,,,,,,,,,,,,,,,,
294850,2022-11-14_16h23.22.092,vts_reward_expectancy_bt,2022.2.4,Win32,60.16485169,Chrome,1536,960,,,l,0.7551,1,554,2,2,7,31,5,1,0,1,0,0,0,0,0,1,circle,star,,,,,,,,,,,,,,,,,,,,,,,,,,,,,,,,,,,,,,,,,,,,,,,,,,,,,,
294850,2022-11-14_16h23.22.092,vts_reward_expectancy_bt,2022.2.4,Win32,60.16485169,Chrome,1536,960,,,a,2.138,1,555,2,2,8,32,0,1,1,0,0,0,0,1,0,0,triangle,circle,,,,,,,,,,,,,,,,,,,,,,,,,,,,,,,,,,,,,,,,,,,,,,,,,,,,,,
294850,2022-11-14_16h23.22.092,vts_reward_expectancy_bt,2022.2.4,Win32,60.16485169,Chrome,1536,960,,,a,1.51,10,565,2,2,9,33,3,1,0,1,0,0,1,0,0,0,circle,triangle,,,,,,,,,,,,,,,,,,,,,,,,,,,,,,,,,,,,,,,,,,,,,,,,,,,,,,
294850,2022-11-14_16h23.22.092,vts_reward_expectancy_bt,2022.2.4,Win32,60.16485169,Chrome,1536,960,,,a,2.0567,10,575,2,2,10,34,8,1,0,0,1,0,0,0,0,1,hexagon,star,,,,,,,,,,,,,,,,,,,,,,,,,,,,,,,,,,,,,,,,,,,,,,,,,,,,,,
294850,2022-11-14_16h23.22.092,vts_reward_expectancy_bt,2022.2.4,Win32,60.16485169,Chrome,1536,960,,,a,1.4076,10,585,2,2,11,35,9,1,0,0,0,1,1,0,0,0,star,triangle,,,,,,,,,,,,,,,,,,,,,,,,,,,,,,,,,,,,,,,,,,,,,,,,,,,,,,
294850,2022-11-14_16h23.22.092,vts_reward_expectancy_bt,2022.2.4,Win32,60.16485169,Chrome,1536,960,,,,,,,,,,,,,,,,,,,,,,,139,Y,hexagon,1,0,d,1.964,0,0,0,0,0,1,,,,,,,,,,,,,,,,,,,,,,,,,,,,,,,,,,,,,,,,,
294850,2022-11-14_16h23.22.092,vts_reward_expectancy_bt,2022.2.4,Win32,60.16485169,Chrome,1536,960,,,,,,,,,,,,,,,,,,,,,,,132,F,circle,1,0,d,0.8339,0,1,0,1,0,1,,,,,,,,,,,,,,,,,,,,,,,,,,,,,,,,,,,,,,,,,
294850,2022-11-14_16h23.22.092,vts_reward_expectancy_bt,2022.2.4,Win32,60.16485169,Chrome,1536,960,,,,,,,,,,,,,,,,,,,,,,,146,B,triangle,1,0,d,0.8843,0,2,0,2,0,1,,,,,,,,,,,,,,,,,,,,,,,,,,,,,,,,,,,,,,,,,
294850,2022-11-14_16h23.22.092,vts_reward_expectancy_bt,2022.2.4,Win32,60.16485169,Chrome,1536,960,,,,,,,,,,,,,,,,,,,,,,,160,U,star,1,0,f,0.518,0,3,0,3,0,1,,,,,,,,,,,,,,,,,,,,,,,,,,,,,,,,,,,,,,,,,
294850,2022-11-14_16h23.22.092,vts_reward_expectancy_bt,2022.2.4,Win32,60.16485169,Chrome,1536,960,,,,,,,,,,,,,,,,,,,,,,,125,D,hexagon,1,0,d,0.7788,0,4,0,4,0,1,,,,,,,,,,,,,,,,,,,,,,,,,,,,,,,,,,,,,,,,,
294850,2022-11-14_16h23.22.092,vts_reward_expectancy_bt,2022.2.4,Win32,60.16485169,Chrome,1536,960,,,,,,,,,,,,,,,,,,,,,,,174,S,circle,1,0,f,0.635,0,5,0,5,0,1,,,,,,,,,,,,,,,,,,,,,,,,,,,,,,,,,,,,,,,,,
294850,2022-11-14_16h23.22.092,vts_reward_expectancy_bt,2022.2.4,Win32,60.16485169,Chrome,1536,960,,,,,,,,,,,,,,,,,,,,,,,167,H,triangle,1,0,f,0.8684,0,6,0,6,0,1,,,,,,,,,,,,,,,,,,,,,,,,,,,,,,,,,,,,,,,,,
294850,2022-11-14_16h23.22.092,vts_reward_expectancy_bt,2022.2.4,Win32,60.16485169,Chrome,1536,960,,,,,,,,,,,,,,,,,,,,,,,181,W,star,1,0,f,0.5547,0,7,0,7,0,1,,,,,,,,,,,,,,,,,,,,,,,,,,,,,,,,,,,,,,,,,
294850,2022-11-14_16h23.22.092,vts_reward_expectancy_bt,2022.2.4,Win32,60.16485169,Chrome,1536,960,,,,,,,,,,,,,,,,,,,,,,,139,Y,star,1,0,d,1.0365,0,8,0,8,0,1,,,,,,,,,,,,,,,,,,,,,,,,,,,,,,,,,,,,,,,,,
294850,2022-11-14_16h23.22.092,vts_reward_expectancy_bt,2022.2.4,Win32,60.16485169,Chrome,1536,960,,,,,,,,,,,,,,,,,,,,,,,132,F,circle,1,0,d,0.9055,0,9,0,9,0,1,,,,,,,,,,,,,,,,,,,,,,,,,,,,,,,,,,,,,,,,,
294850,2022-11-14_16h23.22.092,vts_reward_expectancy_bt,2022.2.4,Win32,60.16485169,Chrome,1536,960,,,,,,,,,,,,,,,,,,,,,,,125,F,hexagon,1,0,,,1,,,,,,j,1.1852,0,0,0,0,1,,,,,,,,,,,,,,,,,,,,,,,,,,,,,,,,,,
294850,2022-11-14_16h23.22.092,vts_reward_expectancy_bt,2022.2.4,Win32,60.16485169,Chrome,1536,960,,,,,,,,,,,,,,,,,,,,,,,146,U,star,1,0,,,1,,,,,,k,0.701,1,0,1,0,1,,,,,,,,,,,,,,,,,,,,,,,,,,,,,,,,,,
294850,2022-11-14_16h23.22.092,vts_reward_expectancy_bt,2022.2.4,Win32,60.16485169,Chrome,1536,960,,,,,,,,,,,,,,,,,,,,,,,132,H,triangle,1,0,,,1,,,,,,j,0.9363,2,0,2,0,1,,,,,,,,,,,,,,,,,,,,,,,,,,,,,,,,,,
294850,2022-11-14_16h23.22.092,vts_reward_expectancy_bt,2022.2.4,Win32,60.16485169,Chrome,1536,960,,,,,,,,,,,,,,,,,,,,,,,139,B,circle,1,0,,,1,,,,,,j,0.7178,3,0,3,0,1,,,,,,,,,,,,,,,,,,,,,,,,,,,,,,,,,,
294850,2022-11-14_16h23.22.092,vts_reward_expectancy_bt,2022.2.4,Win32,60.16485169,Chrome,1536,960,,,,,,,,,,,,,,,,,,,,,,,181,W,hexagon,1,0,,,1,,,,,,k,1.3237,4,0,4,0,1,,,,,,,,,,,,,,,,,,,,,,,,,,,,,,,,,,
294850,2022-11-14_16h23.22.092,vts_reward_expectancy_bt,2022.2.4,Win32,60.16485169,Chrome,1536,960,,,,,,,,,,,,,,,,,,,,,,,167,Y,star,1,0,,,1,,,,,,k,0.6848,5,0,5,0,1,,,,,,,,,,,,,,,,,,,,,,,,,,,,,,,,,,
294850,2022-11-14_16h23.22.092,vts_reward_expectancy_bt,2022.2.4,Win32,60.16485169,Chrome,1536,960,,,,,,,,,,,,,,,,,,,,,,,174,S,triangle,1,0,,,1,,,,,,k,0.9911,6,0,6,0,1,,,,,,,,,,,,,,,,,,,,,,,,,,,,,,,,,,
294850,2022-11-14_16h23.22.092,vts_reward_expectancy_bt,2022.2.4,Win32,60.16485169,Chrome,1536,960,,,,,,,,,,,,,,,,,,,,,,,160,D,circle,1,0,,,1,,,,,,j,0.9437,7,0,7,0,1,,,,,,,,,,,,,,,,,,,,,,,,,,,,,,,,,,
294850,2022-11-14_16h23.22.092,vts_reward_expectancy_bt,2022.2.4,Win32,60.16485169,Chrome,1536,960,,,,,,,,,,,,,,,,,,,,,,,125,F,hexagon,1,0,,,1,,,,,,j,0.799,8,0,8,0,1,,,,,,,,,,,,,,,,,,,,,,,,,,,,,,,,,,
294850,2022-11-14_16h23.22.092,vts_reward_expectancy_bt,2022.2.4,Win32,60.16485169,Chrome,1536,960,,,,,,,,,,,,,,,,,,,,,,,146,U,circle,1,0,,,1,,,,,,k,0.6253,9,0,9,0,1,,,,,,,,,,,,,,,,,,,,,,,,,,,,,,,,,,
294850,2022-11-14_16h23.22.092,vts_reward_expectancy_bt,2022.2.4,Win32,60.16485169,Chrome,1536,960,,,,,0,585,,,,,,,,,,,,,,,,,160,Y,hexagon,-1,0,,,2,,,,,,,,,,,,,-1,no_choice,NA,,vtsPrac,0,0,0,0,1,,,,,,,,,,,,,,,,,,,,,,,,
294850,2022-11-14_16h23.22.092,vts_reward_expectancy_bt,2022.2.4,Win32,60.16485169,Chrome,1536,960,,,,,0,585,,,,,,,,,,,,,,,,,174,D,circle,0,0,,,2,,,,,,,,,,,,,switch,number,NA,d,vtsPrac,1,0,1,0,1,0.576,,,,,,,,,,,,,,,,,,,,,,,
294850,2022-11-14_16h23.22.092,vts_reward_expectancy_bt,2022.2.4,Win32,60.16485169,Chrome,1536,960,,,,,0,585,,,,,,,,,,,,,,,,,125,B,hexagon,0,1,,,2,,,,,,,,,,,,,switch,letter,NA,k,vtsPrac,2,0,2,0,1,0.7337,,,,,,,,,,,,,,,,,,,,,,,
294850,2022-11-14_16h23.22.092,vts_reward_expectancy_bt,2022.2.4,Win32,60.16485169,Chrome,1536,960,,,,,0,585,,,,,,,,,,,,,,,,,167,F,circle,1,1,,,2,,,,,,,,,,,,,repeat,letter,lettRpt,j,vtsPrac,3,0,3,0,1,0.6176,,,,,,,,,,,,,,,,,,,,,,,
294850,2022-11-14_16h23.22.092,vts_reward_expectancy_bt,2022.2.4,Win32,60.16485169,Chrome,1536,960,,,,,0,585,,,,,,,,,,,,,,,,,160,Y,circle,1,0,,,2,,,,,,,,,,,,,switch,number,numSwt,f,vtsPrac,4,0,4,0,1,0.6258,,,,,,,,,,,,,,,,,,,,,,,
294850,2022-11-14_16h23.22.092,vts_reward_expectancy_bt,2022.2.4,Win32,60.16485169,Chrome,1536,960,,,,,0,585,,,,,,,,,,,,,,,,,174,D,triangle,1,0,,,2,,,,,,,,,,,,,repeat,number,numRpt,f,vtsPrac,5,0,5,0,1,0.5481,,,,,,,,,,,,,,,,,,,,,,,
294850,2022-11-14_16h23.22.092,vts_reward_expectancy_bt,2022.2.4,Win32,60.16485169,Chrome,1536,960,,,,,0,585,,,,,,,,,,,,,,,,,125,B,circle,1,0,,,2,,,,,,,,,,,,,repeat,number,numRpt,d,vtsPrac,6,0,6,0,1,0.6843,,,,,,,,,,,,,,,,,,,,,,,
294850,2022-11-14_16h23.22.092,vts_reward_expectancy_bt,2022.2.4,Win32,60.16485169,Chrome,1536,960,,,,,0,585,,,,,,,,,,,,,,,,,167,F,triangle,1,0,,,2,,,,,,,,,,,,,switch,letter,lettSwt,j,vtsPrac,7,0,7,0,1,0.6855,,,,,,,,,,,,,,,,,,,,,,,
294850,2022-11-14_16h23.22.092,vts_reward_expectancy_bt,2022.2.4,Win32,60.16485169,Chrome,1536,960,,,,,0,585,,,,,,,,,,,,,,,,,132,S,circle,1,0,,,2,,,,,,,,,,,,,repeat,letter,lettRpt,k,vtsPrac,8,0,8,0,1,0.784,,,,,,,,,,,,,,,,,,,,,,,
294850,2022-11-14_16h23.22.092,vts_reward_expectancy_bt,2022.2.4,Win32,60.16485169,Chrome,1536,960,,,,,0,585,,,,,,,,,,,,,,,,,160,W,star,1,0,,,2,,,,,,,,,,,,,switch,number,numSwt,f,vtsPrac,9,0,9,0,1,0.5675,,,,,,,,,,,,,,,,,,,,,,,
294850,2022-11-14_16h23.22.092,vts_reward_expectancy_bt,2022.2.4,Win32,60.16485169,Chrome,1536,960,,,,,0,585,,,,,,,,,,,,,,,,,125,F,circle,0,0,,,2,,,,,,,,,,,,,switch,letter,NA,k,vtsPrac,10,0,10,0,1,0.534,,,,,,,,,,,,,,,,,,,,,,,
294850,2022-11-14_16h23.22.092,vts_reward_expectancy_bt,2022.2.4,Win32,60.16485169,Chrome,1536,960,,,,,0,585,,,,,,,,,,,,,,,,,174,H,hexagon,0,1,,,2,,,,,,,,,,,,,switch,number,NA,d,vtsPrac,11,0,11,0,1,0.7343,,,,,,,,,,,,,,,,,,,,,,,
294850,2022-11-14_16h23.22.092,vts_reward_expectancy_bt,2022.2.4,Win32,60.16485169,Chrome,1536,960,,,,,0,585,,,,,,,,,,,,,,,,,174,B,hexagon,1,1,,,2,,,,,,,,,,,,,switch,letter,lettSwt,j,vtsPrac,12,0,12,0,1,0.5856,,,,,,,,,,,,,,,,,,,,,,,
294850,2022-11-14_16h23.22.092,vts_reward_expectancy_bt,2022.2.4,Win32,60.16485169,Chrome,1536,960,,,,,0,585,,,,,,,,,,,,,,,,,132,U,star,1,0,,,2,,,,,,,,,,,,,switch,number,numSwt,d,vtsPrac,13,0,13,0,1,0.5439,,,,,,,,,,,,,,,,,,,,,,,
294850,2022-11-14_16h23.22.092,vts_reward_expectancy_bt,2022.2.4,Win32,60.16485169,Chrome,1536,960,,,,,0,585,,,,,,,,,,,,,,,,,160,F,star,0,0,,,2,,,,,,,,,,,,,switch,letter,NA,k,vtsPrac,14,0,14,0,1,0.6237,,,,,,,,,,,,,,,,,,,,,,,
294850,2022-11-14_16h23.22.092,vts_reward_expectancy_bt,2022.2.4,Win32,60.16485169,Chrome,1536,960,,,,,0,585,,,,,,,,,,,,,,,,,146,H,circle,1,1,,,2,,,,,,,,,,,,,switch,number,numSwt,d,vtsPrac,15,0,15,0,1,0.8844,,,,,,,,,,,,,,,,,,,,,,,
294850,2022-11-14_16h23.22.092,vts_reward_expectancy_bt,2022.2.4,Win32,60.16485169,Chrome,1536,960,,,,,0,585,,,,,,,,,,,,,,,,,181,Y,hexagon,1,0,,,2,,,,,,,,,,,,,switch,letter,lettSwt,k,vtsPrac,16,0,16,0,1,0.8187,,,,,,,,,,,,,,,,,,,,,,,
294850,2022-11-14_16h23.22.092,vts_reward_expectancy_bt,2022.2.4,Win32,60.16485169,Chrome,1536,960,,,,,0,585,,,,,,,,,,,,,,,,,132,B,star,1,0,,,2,,,,,,,,,,,,,repeat,letter,lettRpt,j,vtsPrac,17,0,17,0,1,0.8166,,,,,,,,,,,,,,,,,,,,,,,
294850,2022-11-14_16h23.22.092,vts_reward_expectancy_bt,2022.2.4,Win32,60.16485169,Chrome,1536,960,,,,,0,585,,,,,,,,,,,,,,,,,139,U,circle,1,0,,,2,,,,,,,,,,,,,repeat,letter,lettRpt,k,vtsPrac,18,0,18,0,1,1.0114,,,,,,,,,,,,,,,,,,,,,,,
294850,2022-11-14_16h23.22.092,vts_reward_expectancy_bt,2022.2.4,Win32,60.16485169,Chrome,1536,960,,,,,0,585,,,,,,,,,,,,,,,,,174,S,triangle,1,0,,,2,,,,,,,,,,,,,switch,number,numSwt,f,vtsPrac,19,0,19,0,1,0.5824,,,,,,,,,,,,,,,,,,,,,,,
294850,2022-11-14_16h23.22.092,vts_reward_expectancy_bt,2022.2.4,Win32,60.16485169,Chrome,1536,960,,,,,0,585,,,,,,,,,,,,,,,,,125,U,hexagon,1,0,,,2,,,,,,,,,,,,,switch,letter,lettSwt,k,vtsPrac,20,0,20,0,1,0.7617,,,,,,,,,,,,,,,,,,,,,,,
294850,2022-11-14_16h23.22.092,vts_reward_expectancy_bt,2022.2.4,Win32,60.16485169,Chrome,1536,960,,,,,0,585,,,,,,,,,,,,,,,,,181,D,circle,0,0,,,2,,,,,,,,,,,,,switch,number,NA,d,vtsPrac,21,0,21,0,1,0.8989,,,,,,,,,,,,,,,,,,,,,,,
294850,2022-11-14_16h23.22.092,vts_reward_expectancy_bt,2022.2.4,Win32,60.16485169,Chrome,1536,960,,,,,0,585,,,,,,,,,,,,,,,,,132,B,hexagon,1,1,,,2,,,,,,,,,,,,,switch,letter,lettSwt,j,vtsPrac,22,0,22,0,1,0.9694,,,,,,,,,,,,,,,,,,,,,,,
294850,2022-11-14_16h23.22.092,vts_reward_expectancy_bt,2022.2.4,Win32,60.16485169,Chrome,1536,960,,,,,0,585,,,,,,,,,,,,,,,,,160,H,star,1,0,,,2,,,,,,,,,,,,,switch,number,numSwt,f,vtsPrac,23,0,23,0,1,0.7905,,,,,,,,,,,,,,,,,,,,,,,
294850,2022-11-14_16h23.22.092,vts_reward_expectancy_bt,2022.2.4,Win32,60.16485169,Chrome,1536,960,,,,,0,585,,,,,,,,,,,,,,,,,146,B,circle,0,0,,,2,,,,,,,,,,,,,switch,letter,NA,k,vtsPrac,24,0,24,0,1,0.6609,,,,,,,,,,,,,,,,,,,,,,,
294850,2022-11-14_16h23.22.092,vts_reward_expectancy_bt,2022.2.4,Win32,60.16485169,Chrome,1536,960,,,,,0,585,,,,,,,,,,,,,,,,,181,H,hexagon,1,1,,,2,,,,,,,,,,,,,switch,number,numSwt,f,vtsPrac,25,0,25,0,1,0.6516,,,,,,,,,,,,,,,,,,,,,,,
294850,2022-11-14_16h23.22.092,vts_reward_expectancy_bt,2022.2.4,Win32,60.16485169,Chrome,1536,960,,,,,0,585,,,,,,,,,,,,,,,,,167,D,star,1,0,,,2,,,,,,,,,,,,,switch,letter,lettSwt,j,vtsPrac,26,0,26,0,1,0.6278,,,,,,,,,,,,,,,,,,,,,,,
294850,2022-11-14_16h23.22.092,vts_reward_expectancy_bt,2022.2.4,Win32,60.16485169,Chrome,1536,960,,,,,0,585,,,,,,,,,,,,,,,,,139,U,circle,1,0,,,2,,,,,,,,,,,,,repeat,letter,lettRpt,k,vtsPrac,27,0,27,0,1,0.8068,,,,,,,,,,,,,,,,,,,,,,,
294850,2022-11-14_16h23.22.092,vts_reward_expectancy_bt,2022.2.4,Win32,60.16485169,Chrome,1536,960,,,,,0,585,,,,,,,,,,,,,,,,,146,H,triangle,1,0,,,2,,,,,,,,,,,,,switch,number,numSwt,d,vtsPrac,28,0,28,0,1,0.7071,,,,,,,,,,,,,,,,,,,,,,,
294850,2022-11-14_16h23.22.092,vts_reward_expectancy_bt,2022.2.4,Win32,60.16485169,Chrome,1536,960,,,,,0,585,,,,,,,,,,,,,,,,,160,U,circle,0,0,,,2,,,,,,,,,,,,,switch,letter,NA,j,vtsPrac,29,0,29,0,1,0.7525,,,,,,,,,,,,,,,,,,,,,,,
294850,2022-11-14_16h23.22.092,vts_reward_expectancy_bt,2022.2.4,Win32,60.16485169,Chrome,1536,960,,,,,0,585,,,,,,,,,,,,,,,,,132,Y,circle,1,1,,,2,,,,,,,,,,,,,repeat,letter,lettRpt,k,vtsPrac,30,0,30,0,1,0.7527,,,,,,,,,,,,,,,,,,,,,,,
294850,2022-11-14_16h23.22.092,vts_reward_expectancy_bt,2022.2.4,Win32,60.16485169,Chrome,1536,960,,,,,0,585,,,,,,,,,,,,,,,,,125,D,triangle,0,0,,,2,,,,,,,,,,,,,repeat,letter,NA,k,vtsPrac,31,0,31,0,1,0.7655,,,,,,,,,,,,,,,,,,,,,,,
294850,2022-11-14_16h23.22.092,vts_reward_expectancy_bt,2022.2.4,Win32,60.16485169,Chrome,1536,960,,,,,0,585,,,,,,,,,,,,,,,,,167,W,hexagon,1,1,,,3,,,,,,,,,,,,,switch,number,numSwt,f,vtsPrac,0,0,0,0,1,0.9197,,,,,,,,,,,,,,,,,,,,,,,
294850,2022-11-14_16h23.22.092,vts_reward_expectancy_bt,2022.2.4,Win32,60.16485169,Chrome,1536,960,,,,,0,585,,,,,,,,,,,,,,,,,174,U,circle,1,0,,,3,,,,,,,,,,,,,repeat,number,numRpt,f,vtsPrac,1,0,1,0,1,0.9922,,,,,,,,,,,,,,,,,,,,,,,
294850,2022-11-14_16h23.22.092,vts_reward_expectancy_bt,2022.2.4,Win32,60.16485169,Chrome,1536,960,,,,,0,585,,,,,,,,,,,,,,,,,125,F,hexagon,0,0,,,3,,,,,,,,,,,,,switch,letter,NA,k,vtsPrac,2,0,2,0,1,0.7178,,,,,,,,,,,,,,,,,,,,,,,
294850,2022-11-14_16h23.22.092,vts_reward_expectancy_bt,2022.2.4,Win32,60.16485169,Chrome,1536,960,,,,,0,585,,,,,,,,,,,,,,,,,139,Y,circle,1,1,,,3,,,,,,,,,,,,,repeat,letter,lettRpt,k,vtsPrac,3,0,3,0,1,1.023,,,,,,,,,,,,,,,,,,,,,,,
294850,2022-11-14_16h23.22.092,vts_reward_expectancy_bt,2022.2.4,Win32,60.16485169,Chrome,1536,960,,,,,0,585,,,,,,,,,,,,,,,,,167,W,hexagon,1,0,,,3,,,,,,,,,,,,,switch,number,numSwt,f,vtsPrac,4,0,4,0,1,0.5993,,,,,,,,,,,,,,,,,,,,,,,
294850,2022-11-14_16h23.22.092,vts_reward_expectancy_bt,2022.2.4,Win32,60.16485169,Chrome,1536,960,,,,,0,585,,,,,,,,,,,,,,,,,174,U,circle,1,0,,,3,,,,,,,,,,,,,switch,letter,lettSwt,k,vtsPrac,5,0,5,0,1,0.6199,,,,,,,,,,,,,,,,,,,,,,,
294850,2022-11-14_16h23.22.092,vts_reward_expectancy_bt,2022.2.4,Win32,60.16485169,Chrome,1536,960,,,,,0,585,,,,,,,,,,,,,,,,,125,F,triangle,1,0,,,3,,,,,,,,,,,,,switch,number,numSwt,d,vtsPrac,6,0,6,0,1,1.0824,,,,,,,,,,,,,,,,,,,,,,,
294850,2022-11-14_16h23.22.092,vts_reward_expectancy_bt,2022.2.4,Win32,60.16485169,Chrome,1536,960,,,,,0,585,,,,,,,,,,,,,,,,,139,Y,circle,1,0,,,3,,,,,,,,,,,,,repeat,number,numRpt,d,vtsPrac,7,0,7,0,1,0.8417,,,,,,,,,,,,,,,,,,,,,,,
294850,2022-11-14_16h23.22.092,vts_reward_expectancy_bt,2022.2.4,Win32,60.16485169,Chrome,1536,960,,,,,0,585,,,,,,,,,,,,,,,,,167,S,hexagon,1,0,,,3,,,,,,,,,,,,,switch,letter,lettSwt,k,vtsPrac,8,0,8,0,1,0.7987,,,,,,,,,,,,,,,,,,,,,,,
294850,2022-11-14_16h23.22.092,vts_reward_expectancy_bt,2022.2.4,Win32,60.16485169,Chrome,1536,960,,,,,0,585,,,,,,,,,,,,,,,,,160,W,triangle,1,0,,,3,,,,,,,,,,,,,switch,number,numSwt,f,vtsPrac,9,0,9,0,1,1.1514,,,,,,,,,,,,,,,,,,,,,,,
294850,2022-11-14_16h23.22.092,vts_reward_expectancy_bt,2022.2.4,Win32,60.16485169,Chrome,1536,960,,,,,0,585,,,,,,,,,,,,,,,,,146,U,circle,1,0,,,3,,,,,,,,,,,,,repeat,number,numRpt,d,vtsPrac,10,0,10,0,1,0.7549,,,,,,,,,,,,,,,,,,,,,,,
294850,2022-11-14_16h23.22.092,vts_reward_expectancy_bt,2022.2.4,Win32,60.16485169,Chrome,1536,960,,,,,0,585,,,,,,,,,,,,,,,,,181,B,star,1,0,,,3,,,,,,,,,,,,,switch,letter,lettSwt,j,vtsPrac,11,0,11,0,1,1.1494,,,,,,,,,,,,,,,,,,,,,,,
294850,2022-11-14_16h23.22.092,vts_reward_expectancy_bt,2022.2.4,Win32,60.16485169,Chrome,1536,960,,,,,0,585,,,,,,,,,,,,,,,,,160,F,hexagon,1,0,,,3,,,,,,,,,,,,,switch,number,numSwt,f,vtsPrac,12,0,12,0,1,0.678,,,,,,,,,,,,,,,,,,,,,,,
294850,2022-11-14_16h23.22.092,vts_reward_expectancy_bt,2022.2.4,Win32,60.16485169,Chrome,1536,960,,,,,0,585,,,,,,,,,,,,,,,,,174,S,triangle,1,0,,,3,,,,,,,,,,,,,repeat,number,numRpt,f,vtsPrac,13,0,13,0,1,0.7176,,,,,,,,,,,,,,,,,,,,,,,
294850,2022-11-14_16h23.22.092,vts_reward_expectancy_bt,2022.2.4,Win32,60.16485169,Chrome,1536,960,,,,,0,585,,,,,,,,,,,,,,,,,132,U,star,1,0,,,3,,,,,,,,,,,,,switch,letter,lettSwt,k,vtsPrac,14,0,14,0,1,0.4933,,,,,,,,,,,,,,,,,,,,,,,
294850,2022-11-14_16h23.22.092,vts_reward_expectancy_bt,2022.2.4,Win32,60.16485169,Chrome,1536,960,,,,,0,585,,,,,,,,,,,,,,,,,181,W,circle,1,0,,,3,,,,,,,,,,,,,repeat,letter,lettRpt,k,vtsPrac,15,0,15,0,1,0.6559,,,,,,,,,,,,,,,,,,,,,,,
294850,2022-11-14_16h23.22.092,vts_reward_expectancy_bt,2022.2.4,Win32,60.16485169,Chrome,1536,960,,,,,0,585,,,,,,,,,,,,,,,,,132,S,hexagon,1,0,,,3,,,,,,,,,,,,,repeat,letter,lettRpt,k,vtsPrac,16,0,16,0,1,0.658,,,,,,,,,,,,,,,,,,,,,,,
294850,2022-11-14_16h23.22.092,vts_reward_expectancy_bt,2022.2.4,Win32,60.16485169,Chrome,1536,960,,,,,0,585,,,,,,,,,,,,,,,,,125,B,star,1,0,,,3,,,,,,,,,,,,,switch,number,numSwt,d,vtsPrac,17,0,17,0,1,0.7374,,,,,,,,,,,,,,,,,,,,,,,
294850,2022-11-14_16h23.22.092,vts_reward_expectancy_bt,2022.2.4,Win32,60.16485169,Chrome,1536,960,,,,,0,585,,,,,,,,,,,,,,,,,146,W,star,1,0,,,3,,,,,,,,,,,,,switch,letter,lettSwt,k,vtsPrac,18,0,18,0,1,1.0493,,,,,,,,,,,,,,,,,,,,,,,
294850,2022-11-14_16h23.22.092,vts_reward_expectancy_bt,2022.2.4,Win32,60.16485169,Chrome,1536,960,,,,,0,585,,,,,,,,,,,,,,,,,167,Y,hexagon,1,0,,,3,,,,,,,,,,,,,switch,number,numSwt,f,vtsPrac,19,0,19,0,1,1.0168,,,,,,,,,,,,,,,,,,,,,,,
294850,2022-11-14_16h23.22.092,vts_reward_expectancy_bt,2022.2.4,Win32,60.16485169,Chrome,1536,960,,,,,0,585,,,,,,,,,,,,,,,,,181,H,triangle,0,0,,,3,,,,,,,,,,,,,repeat,number,NA,d,vtsPrac,20,0,20,0,1,1.3823,,,,,,,,,,,,,,,,,,,,,,,
294850,2022-11-14_16h23.22.092,vts_reward_expectancy_bt,2022.2.4,Win32,60.16485169,Chrome,1536,960,,,,,0,585,,,,,,,,,,,,,,,,,132,B,hexagon,1,1,,,3,,,,,,,,,,,,,switch,letter,lettSwt,j,vtsPrac,21,0,21,0,1,0.8521,,,,,,,,,,,,,,,,,,,,,,,
294850,2022-11-14_16h23.22.092,vts_reward_expectancy_bt,2022.2.4,Win32,60.16485169,Chrome,1536,960,,,,,0,585,,,,,,,,,,,,,,,,,146,W,star,1,0,,,3,,,,,,,,,,,,,switch,number,numSwt,d,vtsPrac,22,0,22,0,1,0.928,,,,,,,,,,,,,,,,,,,,,,,
294850,2022-11-14_16h23.22.092,vts_reward_expectancy_bt,2022.2.4,Win32,60.16485169,Chrome,1536,960,,,,,0,585,,,,,,,,,,,,,,,,,174,S,circle,1,0,,,3,,,,,,,,,,,,,switch,letter,lettSwt,k,vtsPrac,23,0,23,0,1,0.9519,,,,,,,,,,,,,,,,,,,,,,,
294850,2022-11-14_16h23.22.092,vts_reward_expectancy_bt,2022.2.4,Win32,60.16485169,Chrome,1536,960,,,,,0,585,,,,,,,,,,,,,,,,,146,U,triangle,1,0,,,3,,,,,,,,,,,,,switch,number,numSwt,d,vtsPrac,24,0,24,0,1,0.6325,,,,,,,,,,,,,,,,,,,,,,,
294850,2022-11-14_16h23.22.092,vts_reward_expectancy_bt,2022.2.4,Win32,60.16485169,Chrome,1536,960,,,,,0,585,,,,,,,,,,,,,,,,,174,B,hexagon,0,0,,,3,,,,,,,,,,,,,switch,letter,NA,k,vtsPrac,25,0,25,0,1,0.7208,,,,,,,,,,,,,,,,,,,,,,,
294850,2022-11-14_16h23.22.092,vts_reward_expectancy_bt,2022.2.4,Win32,60.16485169,Chrome,1536,960,,,,,0,585,,,,,,,,,,,,,,,,,167,D,star,1,1,,,3,,,,,,,,,,,,,switch,number,numSwt,f,vtsPrac,26,0,26,0,1,0.7486,,,,,,,,,,,,,,,,,,,,,,,
294850,2022-11-14_16h23.22.092,vts_reward_expectancy_bt,2022.2.4,Win32,60.16485169,Chrome,1536,960,,,,,0,585,,,,,,,,,,,,,,,,,132,F,triangle,1,0,,,3,,,,,,,,,,,,,switch,letter,lettSwt,j,vtsPrac,27,0,27,0,1,0.8246,,,,,,,,,,,,,,,,,,,,,,,
294850,2022-11-14_16h23.22.092,vts_reward_expectancy_bt,2022.2.4,Win32,60.16485169,Chrome,1536,960,,,,,0,585,,,,,,,,,,,,,,,,,167,F,circle,1,0,,,3,,,,,,,,,,,,,repeat,letter,lettRpt,j,vtsPrac,28,0,28,0,1,1.0844,,,,,,,,,,,,,,,,,,,,,,,
294850,2022-11-14_16h23.22.092,vts_reward_expectancy_bt,2022.2.4,Win32,60.16485169,Chrome,1536,960,,,,,0,585,,,,,,,,,,,,,,,,,139,B,star,1,0,,,3,,,,,,,,,,,,,switch,number,numSwt,d,vtsPrac,29,0,29,0,1,0.85,,,,,,,,,,,,,,,,,,,,,,,
294850,2022-11-14_16h23.22.092,vts_reward_expectancy_bt,2022.2.4,Win32,60.16485169,Chrome,1536,960,,,,,0,585,,,,,,,,,,,,,,,,,160,U,circle,0,0,,,3,,,,,,,,,,,,,switch,letter,NA,j,vtsPrac,30,0,30,0,1,0.9224,,,,,,,,,,,,,,,,,,,,,,,
294850,2022-11-14_16h23.22.092,vts_reward_expectancy_bt,2022.2.4,Win32,60.16485169,Chrome,1536,960,,,,,0,585,,,,,,,,,,,,,,,,,174,W,hexagon,1,1,,,3,,,,,,,,,,,,,repeat,letter,lettRpt,k,vtsPrac,31,0,31,0,1,0.7342,,,,,,,,,,,,,,,,,,,,,,,
294850,2022-11-14_16h23.22.092,vts_reward_expectancy_bt,2022.2.4,Win32,60.16485169,Chrome,1536,960,,,,,,,,,,,,,,,,,,,,,,,,,,,,,,,,,,,,,,,,,,,,,,,,,,,,,,,,,,,,,,,,,,,,,,,,,,,,
294850,2022-11-14_16h23.22.092,vts_reward_expectancy_bt,2022.2.4,Win32,60.16485169,Chrome,1536,960,,,,,,,,,,,,,,,,,,,,,,,,,,,,,,,,,,,,,,,,,,,,,,,,,,,,,,,,,,,,,,,,,,,,,,,,,,,,
294850,2022-11-14_16h23.22.092,vts_reward_expectancy_bt,2022.2.4,Win32,60.16485169,Chrome,1536,960,,,,,0,585,,,,,,,,,,,,,,,,,160,S,circle,1,0,,,,,,,,,,,,,,,,switch,number,numSwt,f,noRew,,,,,,2.0847,0,0,0,0,0,1,,,,,,,,,,,,,,,,,
294850,2022-11-14_16h23.22.092,vts_reward_expectancy_bt,2022.2.4,Win32,60.16485169,Chrome,1536,960,,,,,0,585,,,,,,,,,,,,,,,,,146,B,triangle,1,0,,,,,,,,,,,,,,,,repeat,number,numRpt,d,noRew,,,,,,1.6747,0,1,0,1,0,1,,,,,,,,,,,,,,,,,
294850,2022-11-14_16h23.22.092,vts_reward_expectancy_bt,2022.2.4,Win32,60.16485169,Chrome,1536,960,,,,,0,585,,,,,,,,,,,,,,,,,125,Y,circle,1,0,,,,,,,,,,,,,,,,switch,letter,lettSwt,k,noRew,,,,,,0.8344,0,2,0,2,0,1,,,,,,,,,,,,,,,,,
294850,2022-11-14_16h23.22.092,vts_reward_expectancy_bt,2022.2.4,Win32,60.16485169,Chrome,1536,960,,,,,0,585,,,,,,,,,,,,,,,,,174,U,triangle,1,0,,,,,,,,,,,,,,,,switch,number,numSwt,f,noRew,,,,,,0.7615,0,3,0,3,0,1,,,,,,,,,,,,,,,,,
294850,2022-11-14_16h23.22.092,vts_reward_expectancy_bt,2022.2.4,Win32,60.16485169,Chrome,1536,960,,,,,0,585,,,,,,,,,,,,,,,,,160,S,star,1,0,,,,,,,,,,,,,,,,switch,letter,lettSwt,k,noRew,,,,,,0.9186,0,4,0,4,0,1,,,,,,,,,,,,,,,,,
294850,2022-11-14_16h23.22.092,vts_reward_expectancy_bt,2022.2.4,Win32,60.16485169,Chrome,1536,960,,,,,0,585,,,,,,,,,,,,,,,,,146,B,triangle,1,0,,,,,,,,,,,,,,,,switch,number,numSwt,d,noRew,,,,,,0.6872,0,5,0,5,0,1,,,,,,,,,,,,,,,,,
294850,2022-11-14_16h23.22.092,vts_reward_expectancy_bt,2022.2.4,Win32,60.16485169,Chrome,1536,960,,,,,0,585,,,,,,,,,,,,,,,,,125,Y,star,1,0,,,,,,,,,,,,,,,,switch,letter,lettSwt,k,noRew,,,,,,0.7778,0,6,0,6,0,1,,,,,,,,,,,,,,,,,
294850,2022-11-14_16h23.22.092,vts_reward_expectancy_bt,2022.2.4,Win32,60.16485169,Chrome,1536,960,,,,,0,585,,,,,,,,,,,,,,,,,174,U,triangle,1,0,,,,,,,,,,,,,,,,repeat,letter,lettRpt,k,noRew,,,,,,0.6516,0,7,0,7,0,1,,,,,,,,,,,,,,,,,
294850,2022-11-14_16h23.22.092,vts_reward_expectancy_bt,2022.2.4,Win32,60.16485169,Chrome,1536,960,,,,,0,585,,,,,,,,,,,,,,,,,146,W,hexagon,1,0,,,,,,,,,,,,,,,,repeat,letter,lettRpt,k,noRew,,,,,,0.5866,0,8,0,8,0,1,,,,,,,,,,,,,,,,,
294850,2022-11-14_16h23.22.092,vts_reward_expectancy_bt,2022.2.4,Win32,60.16485169,Chrome,1536,960,,,,,0,585,,,,,,,,,,,,,,,,,181,S,triangle,1,0,,,,,,,,,,,,,,,,switch,number,numSwt,f,noRew,,,,,,0.8974,0,9,0,9,0,1,,,,,,,,,,,,,,,,,
294850,2022-11-14_16h23.22.092,vts_reward_expectancy_bt,2022.2.4,Win32,60.16485169,Chrome,1536,960,,,,,0,585,,,,,,,,,,,,,,,,,139,B,hexagon,1,0,,,,,,,,,,,,,,,,switch,letter,lettSwt,j,noRew,,,,,,0.8869,0,10,0,10,0,1,,,,,,,,,,,,,,,,,
294850,2022-11-14_16h23.22.092,vts_reward_expectancy_bt,2022.2.4,Win32,60.16485169,Chrome,1536,960,,,,,0,585,,,,,,,,,,,,,,,,,132,F,star,1,0,,,,,,,,,,,,,,,,switch,number,numSwt,d,noRew,,,,,,0.7841,0,11,0,11,0,1,,,,,,,,,,,,,,,,,
294850,2022-11-14_16h23.22.092,vts_reward_expectancy_bt,2022.2.4,Win32,60.16485169,Chrome,1536,960,,,,,0,585,,,,,,,,,,,,,,,,,139,D,circle,1,0,,,,,,,,,,,,,,,,switch,letter,lettSwt,j,noRew,,,,,,0.8051,0,12,0,12,0,1,,,,,,,,,,,,,,,,,
294850,2022-11-14_16h23.22.092,vts_reward_expectancy_bt,2022.2.4,Win32,60.16485169,Chrome,1536,960,,,,,0,585,,,,,,,,,,,,,,,,,125,S,triangle,1,0,,,,,,,,,,,,,,,,switch,number,numSwt,d,noRew,,,,,,0.7516,0,13,0,13,0,1,,,,,,,,,,,,,,,,,
294850,2022-11-14_16h23.22.092,vts_reward_expectancy_bt,2022.2.4,Win32,60.16485169,Chrome,1536,960,,,,,0,585,,,,,,,,,,,,,,,,,174,Y,hexagon,1,0,,,,,,,,,,,,,,,,repeat,number,numRpt,f,noRew,,,,,,0.6846,0,14,0,14,0,1,,,,,,,,,,,,,,,,,
294850,2022-11-14_16h23.22.092,vts_reward_expectancy_bt,2022.2.4,Win32,60.16485169,Chrome,1536,960,,,,,0,585,,,,,,,,,,,,,,,,,160,B,star,1,0,,,,,,,,,,,,,,,,repeat,number,numRpt,f,noRew,,,,,,1.1168,0,15,0,15,0,1,,,,,,,,,,,,,,,,,
294850,2022-11-14_16h23.22.092,vts_reward_expectancy_bt,2022.2.4,Win32,60.16485169,Chrome,1536,960,,,,,0,585,,,,,,,,,,,,,,,,,160,S,hexagon,0,0,,,,,,,,,,,,,,,,switch,letter,NA,j,noRew,,,,,,0.6561,0,16,0,16,0,1,,,,,,,,,,,,,,,,,
294850,2022-11-14_16h23.22.092,vts_reward_expectancy_bt,2022.2.4,Win32,60.16485169,Chrome,1536,960,,,,,0,585,,,,,,,,,,,,,,,,,174,U,star,0,1,,,,,,,,,,,,,,,,switch,number,NA,d,noRew,,,,,,1.0943,0,17,0,17,0,1,,,,,,,,,,,,,,,,,
294850,2022-11-14_16h23.22.092,vts_reward_expectancy_bt,2022.2.4,Win32,60.16485169,Chrome,1536,960,,,,,0,585,,,,,,,,,,,,,,,,,125,D,hexagon,-1,1,,,,,,,,,,,,,,,,switch,no_choice,NA,,noRew,,,,,,,0,18,0,18,0,1,,,,,,,,,,,,,,,,,
294850,2022-11-14_16h23.22.092,vts_reward_expectancy_bt,2022.2.4,Win32,60.16485169,Chrome,1536,960,,,,,0,585,,,,,,,,,,,,,,,,,139,F,star,1,0,,,,,,,,,,,,,,,,switch,number,numSwt,d,noRew,,,,,,0.6518,0,19,0,19,0,1,,,,,,,,,,,,,,,,,
294850,2022-11-14_16h23.22.092,vts_reward_expectancy_bt,2022.2.4,Win32,60.16485169,Chrome,1536,960,,,,,0,585,,,,,,,,,,,,,,,,,132,F,circle,0,0,,,,,,,,,,,,,,,,switch,letter,NA,k,noRew,,,,,,1.0282,0,20,0,20,0,1,,,,,,,,,,,,,,,,,
294850,2022-11-14_16h23.22.092,vts_reward_expectancy_bt,2022.2.4,Win32,60.16485169,Chrome,1536,960,,,,,0,585,,,,,,,,,,,,,,,,,167,W,triangle,1,1,,,,,,,,,,,,,,,,switch,number,numSwt,f,noRew,,,,,,1.3019,0,21,0,21,0,1,,,,,,,,,,,,,,,,,
294850,2022-11-14_16h23.22.092,vts_reward_expectancy_bt,2022.2.4,Win32,60.16485169,Chrome,1536,960,,,,,0,585,,,,,,,,,,,,,,,,,160,D,circle,1,0,,,,,,,,,,,,,,,,switch,letter,lettSwt,j,noRew,,,,,,0.9177,0,22,0,22,0,1,,,,,,,,,,,,,,,,,
294850,2022-11-14_16h23.22.092,vts_reward_expectancy_bt,2022.2.4,Win32,60.16485169,Chrome,1536,960,,,,,0,585,,,,,,,,,,,,,,,,,181,Y,triangle,0,0,,,,,,,,,,,,,,,,switch,number,NA,d,noRew,,,,,,0.8154,0,23,0,23,0,1,,,,,,,,,,,,,,,,,
294850,2022-11-14_16h23.22.092,vts_reward_expectancy_bt,2022.2.4,Win32,60.16485169,Chrome,1536,960,,,,,0,585,,,,,,,,,,,,,,,,,181,Y,star,1,1,,,,,,,,,,,,,,,,repeat,number,numRpt,f,noRew,,,,,,0.5681,0,24,0,24,0,1,,,,,,,,,,,,,,,,,
294850,2022-11-14_16h23.22.092,vts_reward_expectancy_bt,2022.2.4,Win32,60.16485169,Chrome,1536,960,,,,,0,585,,,,,,,,,,,,,,,,,146,D,hexagon,1,0,,,,,,,,,,,,,,,,switch,letter,lettSwt,j,noRew,,,,,,1.7112,0,25,0,25,0,1,,,,,,,,,,,,,,,,,
294850,2022-11-14_16h23.22.092,vts_reward_expectancy_bt,2022.2.4,Win32,60.16485169,Chrome,1536,960,,,,,0,585,,,,,,,,,,,,,,,,,132,H,circle,1,0,,,,,,,,,,,,,,,,switch,number,numSwt,d,noRew,,,,,,0.6128,0,26,0,26,0,1,,,,,,,,,,,,,,,,,
294850,2022-11-14_16h23.22.092,vts_reward_expectancy_bt,2022.2.4,Win32,60.16485169,Chrome,1536,960,,,,,0,585,,,,,,,,,,,,,,,,,160,U,star,1,0,,,,,,,,,,,,,,,,switch,letter,lettSwt,k,noRew,,,,,,0.6003,0,27,0,27,0,1,,,,,,,,,,,,,,,,,
294850,2022-11-14_16h23.22.092,vts_reward_expectancy_bt,2022.2.4,Win32,60.16485169,Chrome,1536,960,,,,,0,585,,,,,,,,,,,,,,,,,181,S,circle,0,0,,,,,,,,,,,,,,,,repeat,letter,NA,j,noRew,,,,,,0.9582,0,28,0,28,0,1,,,,,,,,,,,,,,,,,
294850,2022-11-14_16h23.22.092,vts_reward_expectancy_bt,2022.2.4,Win32,60.16485169,Chrome,1536,960,,,,,0,585,,,,,,,,,,,,,,,,,139,B,star,1,1,,,,,,,,,,,,,,,,switch,number,numSwt,d,noRew,,,,,,0.868,0,29,0,29,0,1,,,,,,,,,,,,,,,,,
294850,2022-11-14_16h23.22.092,vts_reward_expectancy_bt,2022.2.4,Win32,60.16485169,Chrome,1536,960,,,,,0,585,,,,,,,,,,,,,,,,,174,W,star,1,0,,,,,,,,,,,,,,,,switch,letter,lettSwt,k,noRew,,,,,,0.5351,0,30,0,30,0,1,,,,,,,,,,,,,,,,,
294850,2022-11-14_16h23.22.092,vts_reward_expectancy_bt,2022.2.4,Win32,60.16485169,Chrome,1536,960,,,,,0,585,,,,,,,,,,,,,,,,,132,F,circle,1,0,,,,,,,,,,,,,,,,switch,number,numSwt,d,noRew,,,,,,0.6739,0,31,0,31,0,1,,,,,,,,,,,,,,,,,
294850,2022-11-14_16h23.22.092,vts_reward_expectancy_bt,2022.2.4,Win32,60.16485169,Chrome,1536,960,,,,,0,585,,,,,,,,,,,,,,,,,167,Y,star,1,0,,,,,,,,,,,,,,,,switch,letter,lettSwt,k,noRew,,,,,,0.6837,0,32,0,32,0,1,,,,,,,,,,,,,,,,,
294850,2022-11-14_16h23.22.092,vts_reward_expectancy_bt,2022.2.4,Win32,60.16485169,Chrome,1536,960,,,,,0,585,,,,,,,,,,,,,,,,,174,B,circle,1,0,,,,,,,,,,,,,,,,repeat,letter,lettRpt,j,noRew,,,,,,0.6879,0,33,0,33,0,1,,,,,,,,,,,,,,,,,
294850,2022-11-14_16h23.22.092,vts_reward_expectancy_bt,2022.2.4,Win32,60.16485169,Chrome,1536,960,,,,,0,585,,,,,,,,,,,,,,,,,132,S,hexagon,1,0,,,,,,,,,,,,,,,,switch,number,numSwt,d,noRew,,,,,,0.5717,0,34,0,34,0,1,,,,,,,,,,,,,,,,,
294850,2022-11-14_16h23.22.092,vts_reward_expectancy_bt,2022.2.4,Win32,60.16485169,Chrome,1536,960,,,,,0,585,,,,,,,,,,,,,,,,,125,H,star,1,0,,,,,,,,,,,,,,,,repeat,number,numRpt,d,noRew,,,,,,0.5843,0,35,0,35,0,1,,,,,,,,,,,,,,,,,
294850,2022-11-14_16h23.22.092,vts_reward_expectancy_bt,2022.2.4,Win32,60.16485169,Chrome,1536,960,,,,,0,585,,,,,,,,,,,,,,,,,146,W,star,1,0,,,,,,,,,,,,,,,,switch,letter,lettSwt,k,noRew,,,,,,0.5684,0,36,0,36,0,1,,,,,,,,,,,,,,,,,
294850,2022-11-14_16h23.22.092,vts_reward_expectancy_bt,2022.2.4,Win32,60.16485169,Chrome,1536,960,,,,,0,585,,,,,,,,,,,,,,,,,132,D,circle,1,0,,,,,,,,,,,,,,,,switch,number,numSwt,d,noRew,,,,,,0.5835,0,37,0,37,0,1,,,,,,,,,,,,,,,,,
294850,2022-11-14_16h23.22.092,vts_reward_expectancy_bt,2022.2.4,Win32,60.16485169,Chrome,1536,960,,,,,0,585,,,,,,,,,,,,,,,,,160,F,circle,1,0,,,,,,,,,,,,,,,,switch,letter,lettSwt,j,noRew,,,,,,0.7396,0,38,0,38,0,1,,,,,,,,,,,,,,,,,
294850,2022-11-14_16h23.22.092,vts_reward_expectancy_bt,2022.2.4,Win32,60.16485169,Chrome,1536,960,,,,,0,585,,,,,,,,,,,,,,,,,174,U,triangle,1,0,,,,,,,,,,,,,,,,repeat,letter,lettRpt,k,noRew,,,,,,1.29,0,39,0,39,0,1,,,,,,,,,,,,,,,,,
294850,2022-11-14_16h23.22.092,vts_reward_expectancy_bt,2022.2.4,Win32,60.16485169,Chrome,1536,960,,,,,0,585,,,,,,,,,,,,,,,,,167,D,star,1,0,,,,,,,,,,,,,,,,switch,number,numSwt,f,noRew,,,,,,1.7178,0,40,0,40,0,1,,,,,,,,,,,,,,,,,
294850,2022-11-14_16h23.22.092,vts_reward_expectancy_bt,2022.2.4,Win32,60.16485169,Chrome,1536,960,,,,,0,585,,,,,,,,,,,,,,,,,146,B,circle,1,0,,,,,,,,,,,,,,,,switch,letter,lettSwt,j,noRew,,,,,,0.8358,0,41,0,41,0,1,,,,,,,,,,,,,,,,,
294850,2022-11-14_16h23.22.092,vts_reward_expectancy_bt,2022.2.4,Win32,60.16485169,Chrome,1536,960,,,,,0,585,,,,,,,,,,,,,,,,,174,S,circle,1,0,,,,,,,,,,,,,,,,switch,number,numSwt,f,noRew,,,,,,1.162,0,42,0,42,0,1,,,,,,,,,,,,,,,,,
294850,2022-11-14_16h23.22.092,vts_reward_expectancy_bt,2022.2.4,Win32,60.16485169,Chrome,1536,960,,,,,0,585,,,,,,,,,,,,,,,,,160,U,hexagon,1,0,,,,,,,,,,,,,,,,repeat,number,numRpt,f,noRew,,,,,,1.7351,0,43,0,43,0,1,,,,,,,,,,,,,,,,,
294850,2022-11-14_16h23.22.092,vts_reward_expectancy_bt,2022.2.4,Win32,60.16485169,Chrome,1536,960,,,,,0,585,,,,,,,,,,,,,,,,,181,F,hexagon,0,0,,,,,,,,,,,,,,,,switch,letter,NA,k,noRew,,,,,,0.5569,0,44,0,44,0,1,,,,,,,,,,,,,,,,,
294850,2022-11-14_16h23.22.092,vts_reward_expectancy_bt,2022.2.4,Win32,60.16485169,Chrome,1536,960,,,,,0,585,,,,,,,,,,,,,,,,,132,D,circle,1,1,,,,,,,,,,,,,,,,switch,number,numSwt,d,noRew,,,,,,0.571,0,45,0,45,0,1,,,,,,,,,,,,,,,,,
294850,2022-11-14_16h23.22.092,vts_reward_expectancy_bt,2022.2.4,Win32,60.16485169,Chrome,1536,960,,,,,0,585,,,,,,,,,,,,,,,,,125,S,circle,1,0,,,,,,,,,,,,,,,,switch,letter,lettSwt,k,noRew,,,,,,0.8845,0,46,0,46,0,1,,,,,,,,,,,,,,,,,
294850,2022-11-14_16h23.22.092,vts_reward_expectancy_bt,2022.2.4,Win32,60.16485169,Chrome,1536,960,,,,,0,585,,,,,,,,,,,,,,,,,160,W,star,1,0,,,,,,,,,,,,,,,,repeat,letter,lettRpt,k,noRew,,,,,,1.3522,0,47,0,47,0,1,,,,,,,,,,,,,,,,,
294850,2022-11-14_16h23.22.092,vts_reward_expectancy_bt,2022.2.4,Win32,60.16485169,Chrome,1536,960,,,,,0,585,,,,,,,,,,,,,,,,,139,Y,circle,1,0,,,,,,,,,,,,,,,,switch,number,numSwt,d,noRew,,,,,,0.7541,0,48,0,48,0,1,,,,,,,,,,,,,,,,,
294850,2022-11-14_16h23.22.092,vts_reward_expectancy_bt,2022.2.4,Win32,60.16485169,Chrome,1536,960,,,,,0,585,,,,,,,,,,,,,,,,,125,H,triangle,1,0,,,,,,,,,,,,,,,,repeat,number,numRpt,d,noRew,,,,,,0.6944,0,49,0,49,0,1,,,,,,,,,,,,,,,,,
294850,2022-11-14_16h23.22.092,vts_reward_expectancy_bt,2022.2.4,Win32,60.16485169,Chrome,1536,960,,,,,0,585,,,,,,,,,,,,,,,,,174,D,circle,0,0,,,,,,,,,,,,,,,,switch,letter,NA,k,noRew,,,,,,1.2535,0,50,0,50,0,1,,,,,,,,,,,,,,,,,
294850,2022-11-14_16h23.22.092,vts_reward_expectancy_bt,2022.2.4,Win32,60.16485169,Chrome,1536,960,,,,,0,585,,,,,,,,,,,,,,,,,181,W,hexagon,1,1,,,,,,,,,,,,,,,,switch,number,numSwt,f,noRew,,,,,,0.9445,0,51,0,51,0,1,,,,,,,,,,,,,,,,,
294850,2022-11-14_16h23.22.092,vts_reward_expectancy_bt,2022.2.4,Win32,60.16485169,Chrome,1536,960,,,,,0,585,,,,,,,,,,,,,,,,,132,F,hexagon,1,0,,,,,,,,,,,,,,,,repeat,number,numRpt,d,noRew,,,,,,0.7256,0,52,0,52,0,1,,,,,,,,,,,,,,,,,
294850,2022-11-14_16h23.22.092,vts_reward_expectancy_bt,2022.2.4,Win32,60.16485169,Chrome,1536,960,,,,,0,585,,,,,,,,,,,,,,,,,160,Y,triangle,1,0,,,,,,,,,,,,,,,,switch,letter,lettSwt,k,noRew,,,,,,1.4514,0,53,0,53,0,1,,,,,,,,,,,,,,,,,
294850,2022-11-14_16h23.22.092,vts_reward_expectancy_bt,2022.2.4,Win32,60.16485169,Chrome,1536,960,,,,,0,585,,,,,,,,,,,,,,,,,181,H,triangle,1,0,,,,,,,,,,,,,,,,repeat,letter,lettRpt,j,noRew,,,,,,0.8556,0,54,0,54,0,1,,,,,,,,,,,,,,,,,
294850,2022-11-14_16h23.22.092,vts_reward_expectancy_bt,2022.2.4,Win32,60.16485169,Chrome,1536,960,,,,,0,585,,,,,,,,,,,,,,,,,125,S,circle,1,0,,,,,,,,,,,,,,,,switch,number,numSwt,d,noRew,,,,,,1.0771,0,55,0,55,0,1,,,,,,,,,,,,,,,,,
294850,2022-11-14_16h23.22.092,vts_reward_expectancy_bt,2022.2.4,Win32,60.16485169,Chrome,1536,960,,,,,0,585,,,,,,,,,,,,,,,,,146,D,star,1,0,,,,,,,,,,,,,,,,repeat,number,numRpt,d,noRew,,,,,,1.0004,0,56,0,56,0,1,,,,,,,,,,,,,,,,,
294850,2022-11-14_16h23.22.092,vts_reward_expectancy_bt,2022.2.4,Win32,60.16485169,Chrome,1536,960,,,,,0,585,,,,,,,,,,,,,,,,,181,B,triangle,1,0,,,,,,,,,,,,,,,,switch,letter,lettSwt,j,noRew,,,,,,0.6497,0,57,0,57,0,1,,,,,,,,,,,,,,,,,
294850,2022-11-14_16h23.22.092,vts_reward_expectancy_bt,2022.2.4,Win32,60.16485169,Chrome,1536,960,,,,,0,585,,,,,,,,,,,,,,,,,125,U,star,1,0,,,,,,,,,,,,,,,,switch,number,numSwt,d,noRew,,,,,,0.8352,0,58,0,58,0,1,,,,,,,,,,,,,,,,,
294850,2022-11-14_16h23.22.092,vts_reward_expectancy_bt,2022.2.4,Win32,60.16485169,Chrome,1536,960,,,,,0,585,,,,,,,,,,,,,,,,,174,H,triangle,1,0,,,,,,,,,,,,,,,,switch,letter,lettSwt,j,noRew,,,,,,1.6515,0,59,0,59,0,1,,,,,,,,,,,,,,,,,
294850,2022-11-14_16h23.22.092,vts_reward_expectancy_bt,2022.2.4,Win32,60.16485169,Chrome,1536,960,,,,,0,585,,,,,,,,,,,,,,,,,146,B,triangle,1,0,,,,,,,,,,,,,,,,switch,number,numSwt,d,noRew,,,,,,1.1109,0,60,0,60,0,1,,,,,,,,,,,,,,,,,
294850,2022-11-14_16h23.22.092,vts_reward_expectancy_bt,2022.2.4,Win32,60.16485169,Chrome,1536,960,,,,,0,585,,,,,,,,,,,,,,,,,132,D,star,1,0,,,,,,,,,,,,,,,,repeat,number,numRpt,d,noRew,,,,,,0.7184,0,61,0,61,0,1,,,,,,,,,,,,,,,,,
294850,2022-11-14_16h23.22.092,vts_reward_expectancy_bt,2022.2.4,Win32,60.16485169,Chrome,1536,960,,,,,0,585,,,,,,,,,,,,,,,,,174,W,star,1,0,,,,,,,,,,,,,,,,switch,letter,lettSwt,k,noRew,,,,,,0.5883,0,62,0,62,0,1,,,,,,,,,,,,,,,,,
294850,2022-11-14_16h23.22.092,vts_reward_expectancy_bt,2022.2.4,Win32,60.16485169,Chrome,1536,960,,,,,0,585,,,,,,,,,,,,,,,,,167,U,circle,1,0,,,,,,,,,,,,,,,,repeat,letter,lettRpt,k,noRew,,,,,,1.2371,0,63,0,63,0,1,,,,,,,,,,,,,,,,,
294850,2022-11-14_16h23.22.092,vts_reward_expectancy_bt,2022.2.4,Win32,60.16485169,Chrome,1536,960,,,,,,,,,,,,,,,,,,,,,,,,,,,,,,,,,,,,,,,,,,,,,,,,,,,,,,,,,,,,,,,,,,,,,,,,,,,,
294850,2022-11-14_16h23.22.092,vts_reward_expectancy_bt,2022.2.4,Win32,60.16485169,Chrome,1536,960,,,,,0,585,,,,,,,,,,,,,,,,,181,S,star,0,0,,,,,,,,,,,,,,,,switch,number,NA,d,noRew,,,,,,0.3676,0,,,,,,space,7.4261,low,0,0,0,0,1,,,,,,,,,
294850,2022-11-14_16h23.22.092,vts_reward_expectancy_bt,2022.2.4,Win32,60.16485169,Chrome,1536,960,,,,,10,595,,,,,,,,,,,,,,,,,167,U,circle,1,1,,,,,,,,,,,,,,,,switch,letter,lettSwt,k,Hi,,,,,,0.4201,0,,,,,,,,low,1,0,1,0,1,,,,,,,,,
294850,2022-11-14_16h23.22.092,vts_reward_expectancy_bt,2022.2.4,Win32,60.16485169,Chrome,1536,960,,,,,10,605,,,,,,,,,,,,,,,,,132,W,triangle,1,0,,,,,,,,,,,,,,,,switch,number,numSwt,d,Lo,,,,,,0.5608,0,,,,,,,,low,2,0,2,0,1,,,,,,,,,
294850,2022-11-14_16h23.22.092,vts_reward_expectancy_bt,2022.2.4,Win32,60.16485169,Chrome,1536,960,,,,,1,606,,,,,,,,,,,,,,,,,139,H,hexagon,1,0,,,,,,,,,,,,,,,,switch,letter,lettSwt,j,Lo,,,,,,1.3337,0,,,,,,,,low,3,0,3,0,1,,,,,,,,,
294850,2022-11-14_16h23.22.092,vts_reward_expectancy_bt,2022.2.4,Win32,60.16485169,Chrome,1536,960,,,,,0,606,,,,,,,,,,,,,,,,,174,B,star,1,0,,,,,,,,,,,,,,,,repeat,letter,lettRpt,j,Hi,,,,,,0.9982,0,,,,,,,,low,4,0,4,0,1,,,,,,,,,
294850,2022-11-14_16h23.22.092,vts_reward_expectancy_bt,2022.2.4,Win32,60.16485169,Chrome,1536,960,,,,,10,616,,,,,,,,,,,,,,,,,160,Y,circle,1,0,,,,,,,,,,,,,,,,switch,number,numSwt,f,Hi,,,,,,0.3751,0,,,,,,,,low,5,0,5,0,1,,,,,,,,,
294850,2022-11-14_16h23.22.092,vts_reward_expectancy_bt,2022.2.4,Win32,60.16485169,Chrome,1536,960,,,,,1,617,,,,,,,,,,,,,,,,,125,F,triangle,1,0,,,,,,,,,,,,,,,,repeat,number,numRpt,d,Lo,,,,,,0.8345,0,,,,,,,,low,6,0,6,0,1,,,,,,,,,
294850,2022-11-14_16h23.22.092,vts_reward_expectancy_bt,2022.2.4,Win32,60.16485169,Chrome,1536,960,,,,,1,618,,,,,,,,,,,,,,,,,146,D,hexagon,1,0,,,,,,,,,,,,,,,,switch,letter,lettSwt,j,Lo,,,,,,0.45,0,,,,,,,,low,7,0,7,0,1,,,,,,,,,
294850,2022-11-14_16h23.22.092,vts_reward_expectancy_bt,2022.2.4,Win32,60.16485169,Chrome,1536,960,,,,,0,618,,,,,,,,,,,,,,,,,181,S,triangle,0,0,,,,,,,,,,,,,,,,switch,number,NA,d,Lo,,,,,,0.5038,0,,,,,,,,low,8,0,8,0,1,,,,,,,,,
294850,2022-11-14_16h23.22.092,vts_reward_expectancy_bt,2022.2.4,Win32,60.16485169,Chrome,1536,960,,,,,0,618,,,,,,,,,,,,,,,,,167,U,hexagon,0,1,,,,,,,,,,,,,,,,switch,letter,NA,j,Lo,,,,,,0.7048,0,,,,,,,,low,9,0,9,0,1,,,,,,,,,
294850,2022-11-14_16h23.22.092,vts_reward_expectancy_bt,2022.2.4,Win32,60.16485169,Chrome,1536,960,,,,,10,628,,,,,,,,,,,,,,,,,132,W,circle,1,1,,,,,,,,,,,,,,,,switch,number,numSwt,d,Hi,,,,,,0.6501,0,,,,,,,,low,10,0,10,0,1,,,,,,,,,
294850,2022-11-14_16h23.22.092,vts_reward_expectancy_bt,2022.2.4,Win32,60.16485169,Chrome,1536,960,,,,,10,638,,,,,,,,,,,,,,,,,139,H,star,1,0,,,,,,,,,,,,,,,,switch,letter,lettSwt,j,Hi,,,,,,0.7031,0,,,,,,,,low,11,0,11,0,1,,,,,,,,,
294850,2022-11-14_16h23.22.092,vts_reward_expectancy_bt,2022.2.4,Win32,60.16485169,Chrome,1536,960,,,,,0,638,,,,,,,,,,,,,,,,,174,B,hexagon,0,0,,,,,,,,,,,,,,,,switch,number,NA,d,Hi,,,,,,0.4349,0,,,,,,,,low,12,0,12,0,1,,,,,,,,,
294850,2022-11-14_16h23.22.092,vts_reward_expectancy_bt,2022.2.4,Win32,60.16485169,Chrome,1536,960,,,,,10,648,,,,,,,,,,,,,,,,,160,Y,circle,1,1,,,,,,,,,,,,,,,,switch,letter,lettSwt,k,Hi,,,,,,0.5184,0,,,,,,,,low,13,0,13,0,1,,,,,,,,,
294850,2022-11-14_16h23.22.092,vts_reward_expectancy_bt,2022.2.4,Win32,60.16485169,Chrome,1536,960,,,,,10,658,,,,,,,,,,,,,,,,,125,F,triangle,1,0,,,,,,,,,,,,,,,,switch,number,numSwt,d,Lo,,,,,,0.5338,0,,,,,,,,low,14,0,14,0,1,,,,,,,,,
294850,2022-11-14_16h23.22.092,vts_reward_expectancy_bt,2022.2.4,Win32,60.16485169,Chrome,1536,960,,,,,0,658,,,,,,,,,,,,,,,,,146,D,star,1,0,,,,,,,,,,,,,,,,switch,letter,lettSwt,j,Hi,,,,,,0.7352,0,,,,,,,,low,15,0,15,0,1,,,,,,,,,
294850,2022-11-14_16h23.22.092,vts_reward_expectancy_bt,2022.2.4,Win32,60.16485169,Chrome,1536,960,,,,,0,658,,,,,,,,,,,,,,,,,181,W,star,1,0,,,,,,,,,,,,,,,,repeat,letter,lettRpt,k,Hi,,,,,,0.71,0,,,,,,,,low,16,0,16,0,1,,,,,,,,,
294850,2022-11-14_16h23.22.092,vts_reward_expectancy_bt,2022.2.4,Win32,60.16485169,Chrome,1536,960,,,,,0,658,,,,,,,,,,,,,,,,,167,S,circle,0,0,,,,,,,,,,,,,,,,switch,number,NA,d,Hi,,,,,,0.5345,0,,,,,,,,low,17,0,17,0,1,,,,,,,,,
294850,2022-11-14_16h23.22.092,vts_reward_expectancy_bt,2022.2.4,Win32,60.16485169,Chrome,1536,960,,,,,1,659,,,,,,,,,,,,,,,,,125,U,hexagon,1,1,,,,,,,,,,,,,,,,repeat,number,numRpt,d,Lo,,,,,,0.6688,0,,,,,,,,low,18,0,18,0,1,,,,,,,,,
294850,2022-11-14_16h23.22.092,vts_reward_expectancy_bt,2022.2.4,Win32,60.16485169,Chrome,1536,960,,,,,10,669,,,,,,,,,,,,,,,,,174,B,triangle,1,0,,,,,,,,,,,,,,,,repeat,number,numRpt,f,Lo,,,,,,0.4855,0,,,,,,,,low,19,0,19,0,1,,,,,,,,,
294850,2022-11-14_16h23.22.092,vts_reward_expectancy_bt,2022.2.4,Win32,60.16485169,Chrome,1536,960,,,,,1,670,,,,,,,,,,,,,,,,,132,H,star,1,0,,,,,,,,,,,,,,,,repeat,number,numRpt,d,Hi,,,,,,0.2221,0,,,,,,,,low,20,0,20,0,1,,,,,,,,,
294850,2022-11-14_16h23.22.092,vts_reward_expectancy_bt,2022.2.4,Win32,60.16485169,Chrome,1536,960,,,,,0,670,,,,,,,,,,,,,,,,,146,D,hexagon,0,0,,,,,,,,,,,,,,,,switch,letter,NA,k,Hi,,,,,,0.2865,0,,,,,,,,low,21,0,21,0,1,,,,,,,,,
294850,2022-11-14_16h23.22.092,vts_reward_expectancy_bt,2022.2.4,Win32,60.16485169,Chrome,1536,960,,,,,1,671,,,,,,,,,,,,,,,,,139,F,circle,1,1,,,,,,,,,,,,,,,,repeat,letter,lettRpt,j,Hi,,,,,,0.6532,0,,,,,,,,low,22,0,22,0,1,,,,,,,,,
294850,2022-11-14_16h23.22.092,vts_reward_expectancy_bt,2022.2.4,Win32,60.16485169,Chrome,1536,960,,,,,0,671,,,,,,,,,,,,,,,,,160,Y,triangle,0,0,,,,,,,,,,,,,,,,switch,number,NA,d,Hi,,,,,,0.6285,0,,,,,,,,low,23,0,23,0,1,,,,,,,,,
294850,2022-11-14_16h23.22.092,vts_reward_expectancy_bt,2022.2.4,Win32,60.16485169,Chrome,1536,960,,,,,1,672,,,,,,,,,,,,,,,,,146,Y,circle,1,1,,,,,,,,,,,,,,,,repeat,number,numRpt,d,Hi,,,,,,0.4771,0,,,,,,,,low,24,0,24,0,1,,,,,,,,,
294850,2022-11-14_16h23.22.092,vts_reward_expectancy_bt,2022.2.4,Win32,60.16485169,Chrome,1536,960,,,,,0,672,,,,,,,,,,,,,,,,,139,H,star,0,0,,,,,,,,,,,,,,,,switch,letter,NA,k,Hi,,,,,,0.1345,0,,,,,,,,low,25,0,25,0,1,,,,,,,,,
294850,2022-11-14_16h23.22.092,vts_reward_expectancy_bt,2022.2.4,Win32,60.16485169,Chrome,1536,960,,,,,1,673,,,,,,,,,,,,,,,,,132,F,triangle,1,1,,,,,,,,,,,,,,,,switch,number,numSwt,d,Lo,,,,,,0.5344,0,,,,,,,,low,26,0,26,0,1,,,,,,,,,
294850,2022-11-14_16h23.22.092,vts_reward_expectancy_bt,2022.2.4,Win32,60.16485169,Chrome,1536,960,,,,,0,673,,,,,,,,,,,,,,,,,167,W,hexagon,0,0,,,,,,,,,,,,,,,,switch,letter,NA,j,Lo,,,,,,0.4672,0,,,,,,,,low,27,0,27,0,1,,,,,,,,,
294850,2022-11-14_16h23.22.092,vts_reward_expectancy_bt,2022.2.4,Win32,60.16485169,Chrome,1536,960,,,,,0,673,,,,,,,,,,,,,,,,,174,S,hexagon,0,1,,,,,,,,,,,,,,,,switch,number,NA,d,Lo,,,,,,0.5181,0,,,,,,,,low,28,0,28,0,1,,,,,,,,,
294850,2022-11-14_16h23.22.092,vts_reward_expectancy_bt,2022.2.4,Win32,60.16485169,Chrome,1536,960,,,,,0,673,,,,,,,,,,,,,,,,,181,B,triangle,0,1,,,,,,,,,,,,,,,,switch,letter,NA,k,Lo,,,,,,0.4864,0,,,,,,,,low,29,0,29,0,1,,,,,,,,,
294850,2022-11-14_16h23.22.092,vts_reward_expectancy_bt,2022.2.4,Win32,60.16485169,Chrome,1536,960,,,,,0,673,,,,,,,,,,,,,,,,,160,U,circle,1,1,,,,,,,,,,,,,,,,switch,number,numSwt,f,Hi,,,,,,0.7593,0,,,,,,,,low,30,0,30,0,1,,,,,,,,,
294850,2022-11-14_16h23.22.092,vts_reward_expectancy_bt,2022.2.4,Win32,60.16485169,Chrome,1536,960,,,,,10,683,,,,,,,,,,,,,,,,,125,D,star,1,0,,,,,,,,,,,,,,,,switch,letter,lettSwt,j,Hi,,,,,,0.5656,0,,,,,,,,low,31,0,31,0,1,,,,,,,,,
294850,2022-11-14_16h23.22.092,vts_reward_expectancy_bt,2022.2.4,Win32,60.16485169,Chrome,1536,960,,,,,1,684,,,,,,,,,,,,,,,,,125,F,hexagon,1,0,,,,,,,,,,,,,,,,switch,number,numSwt,d,Lo,,,,,,0.618,1,,,,,,space,3.0371,low,0,0,0,0,1,,,,,,,,,
294850,2022-11-14_16h23.22.092,vts_reward_expectancy_bt,2022.2.4,Win32,60.16485169,Chrome,1536,960,,,,,0,684,,,,,,,,,,,,,,,,,181,D,star,1,0,,,,,,,,,,,,,,,,switch,letter,lettSwt,j,Hi,,,,,,0.7177,1,,,,,,,,low,1,0,1,0,1,,,,,,,,,
294850,2022-11-14_16h23.22.092,vts_reward_expectancy_bt,2022.2.4,Win32,60.16485169,Chrome,1536,960,,,,,10,694,,,,,,,,,,,,,,,,,160,W,circle,1,0,,,,,,,,,,,,,,,,repeat,letter,lettRpt,k,Hi,,,,,,0.6,1,,,,,,,,low,2,0,2,0,1,,,,,,,,,
294850,2022-11-14_16h23.22.092,vts_reward_expectancy_bt,2022.2.4,Win32,60.16485169,Chrome,1536,960,,,,,1,695,,,,,,,,,,,,,,,,,139,H,triangle,1,0,,,,,,,,,,,,,,,,switch,number,numSwt,d,Lo,,,,,,0.4842,1,,,,,,,,low,3,0,3,0,1,,,,,,,,,
294850,2022-11-14_16h23.22.092,vts_reward_expectancy_bt,2022.2.4,Win32,60.16485169,Chrome,1536,960,,,,,0,695,,,,,,,,,,,,,,,,,167,U,hexagon,0,0,,,,,,,,,,,,,,,,repeat,number,NA,d,Lo,,,,,,0.4809,1,,,,,,,,low,4,0,4,0,1,,,,,,,,,
294850,2022-11-14_16h23.22.092,vts_reward_expectancy_bt,2022.2.4,Win32,60.16485169,Chrome,1536,960,,,,,0,695,,,,,,,,,,,,,,,,,174,S,star,1,1,,,,,,,,,,,,,,,,repeat,number,numRpt,f,Hi,,,,,,0.5028,1,,,,,,,,low,5,0,5,0,1,,,,,,,,,
294850,2022-11-14_16h23.22.092,vts_reward_expectancy_bt,2022.2.4,Win32,60.16485169,Chrome,1536,960,,,,,1,696,,,,,,,,,,,,,,,,,146,B,circle,1,0,,,,,,,,,,,,,,,,switch,letter,lettSwt,j,Hi,,,,,,0.351,1,,,,,,,,low,6,0,6,0,1,,,,,,,,,
294850,2022-11-14_16h23.22.092,vts_reward_expectancy_bt,2022.2.4,Win32,60.16485169,Chrome,1536,960,,,,,1,697,,,,,,,,,,,,,,,,,132,Y,triangle,1,0,,,,,,,,,,,,,,,,switch,number,numSwt,d,Lo,,,,,,0.4011,1,,,,,,,,low,7,0,7,0,1,,,,,,,,,
294850,2022-11-14_16h23.22.092,vts_reward_expectancy_bt,2022.2.4,Win32,60.16485169,Chrome,1536,960,,,,,1,698,,,,,,,,,,,,,,,,,125,F,triangle,1,0,,,,,,,,,,,,,,,,switch,letter,lettSwt,j,Lo,,,,,,0.6542,1,,,,,,,,low,8,0,8,0,1,,,,,,,,,
294850,2022-11-14_16h23.22.092,vts_reward_expectancy_bt,2022.2.4,Win32,60.16485169,Chrome,1536,960,,,,,0,698,,,,,,,,,,,,,,,,,181,D,circle,1,0,,,,,,,,,,,,,,,,switch,number,numSwt,f,Hi,,,,,,0.6171,1,,,,,,,,low,9,0,9,0,1,,,,,,,,,
294850,2022-11-14_16h23.22.092,vts_reward_expectancy_bt,2022.2.4,Win32,60.16485169,Chrome,1536,960,,,,,0,698,,,,,,,,,,,,,,,,,160,W,hexagon,0,0,,,,,,,,,,,,,,,,switch,letter,NA,j,Hi,,,,,,0.7176,1,,,,,,,,low,10,0,10,0,1,,,,,,,,,
294850,2022-11-14_16h23.22.092,vts_reward_expectancy_bt,2022.2.4,Win32,60.16485169,Chrome,1536,960,,,,,10,708,,,,,,,,,,,,,,,,,139,H,star,1,1,,,,,,,,,,,,,,,,switch,number,numSwt,d,Hi,,,,,,0.3152,1,,,,,,,,low,11,0,11,0,1,,,,,,,,,
294850,2022-11-14_16h23.22.092,vts_reward_expectancy_bt,2022.2.4,Win32,60.16485169,Chrome,1536,960,,,,,1,709,,,,,,,,,,,,,,,,,167,U,hexagon,1,0,,,,,,,,,,,,,,,,repeat,number,numRpt,f,Lo,,,,,,0.636,1,,,,,,,,low,12,0,12,0,1,,,,,,,,,
294850,2022-11-14_16h23.22.092,vts_reward_expectancy_bt,2022.2.4,Win32,60.16485169,Chrome,1536,960,,,,,10,719,,,,,,,,,,,,,,,,,174,S,star,1,0,,,,,,,,,,,,,,,,switch,letter,lettSwt,k,Hi,,,,,,0.2265,1,,,,,,,,low,13,0,13,0,1,,,,,,,,,
294850,2022-11-14_16h23.22.092,vts_reward_expectancy_bt,2022.2.4,Win32,60.16485169,Chrome,1536,960,,,,,1,720,,,,,,,,,,,,,,,,,146,B,circle,1,0,,,,,,,,,,,,,,,,switch,number,numSwt,d,Hi,,,,,,0.2174,1,,,,,,,,low,14,0,14,0,1,,,,,,,,,
294850,2022-11-14_16h23.22.092,vts_reward_expectancy_bt,2022.2.4,Win32,60.16485169,Chrome,1536,960,,,,,1,721,,,,,,,,,,,,,,,,,132,Y,triangle,1,0,,,,,,,,,,,,,,,,switch,letter,lettSwt,k,Lo,,,,,,0.6367,1,,,,,,,,low,15,0,15,0,1,,,,,,,,,
294850,2022-11-14_16h23.22.092,vts_reward_expectancy_bt,2022.2.4,Win32,60.16485169,Chrome,1536,960,,,,,0,721,,,,,,,,,,,,,,,,,139,D,hexagon,0,0,,,,,,,,,,,,,,,,switch,number,NA,f,Lo,,,,,,0.2543,1,,,,,,,,low,16,0,16,0,1,,,,,,,,,
294850,2022-11-14_16h23.22.092,vts_reward_expectancy_bt,2022.2.4,Win32,60.16485169,Chrome,1536,960,,,,,1,722,,,,,,,,,,,,,,,,,167,U,triangle,1,1,,,,,,,,,,,,,,,,switch,letter,lettSwt,k,Lo,,,,,,0.7557,1,,,,,,,,low,17,0,17,0,1,,,,,,,,,
294850,2022-11-14_16h23.22.092,vts_reward_expectancy_bt,2022.2.4,Win32,60.16485169,Chrome,1536,960,,,,,10,732,,,,,,,,,,,,,,,,,125,S,star,1,0,,,,,,,,,,,,,,,,switch,number,numSwt,d,Hi,,,,,,0.4731,1,,,,,,,,low,18,0,18,0,1,,,,,,,,,
294850,2022-11-14_16h23.22.092,vts_reward_expectancy_bt,2022.2.4,Win32,60.16485169,Chrome,1536,960,,,,,0,732,,,,,,,,,,,,,,,,,132,B,circle,1,0,,,,,,,,,,,,,,,,repeat,number,numRpt,d,Hi,,,,,,0.5543,1,,,,,,,,low,19,0,19,0,1,,,,,,,,,
294850,2022-11-14_16h23.22.092,vts_reward_expectancy_bt,2022.2.4,Win32,60.16485169,Chrome,1536,960,,,,,0,732,,,,,,,,,,,,,,,,,174,Y,triangle,0,0,,,,,,,,,,,,,,,,switch,letter,NA,j,Hi,,,,,,0.3558,1,,,,,,,,low,20,0,20,0,1,,,,,,,,,
294850,2022-11-14_16h23.22.092,vts_reward_expectancy_bt,2022.2.4,Win32,60.16485169,Chrome,1536,960,,,,,10,742,,,,,,,,,,,,,,,,,181,F,circle,1,1,,,,,,,,,,,,,,,,switch,number,numSwt,f,Hi,,,,,,0.2554,1,,,,,,,,low,21,0,21,0,1,,,,,,,,,
294850,2022-11-14_16h23.22.092,vts_reward_expectancy_bt,2022.2.4,Win32,60.16485169,Chrome,1536,960,,,,,1,743,,,,,,,,,,,,,,,,,146,H,star,1,0,,,,,,,,,,,,,,,,switch,letter,lettSwt,j,Hi,,,,,,0.1778,1,,,,,,,,low,22,0,22,0,1,,,,,,,,,
294850,2022-11-14_16h23.22.092,vts_reward_expectancy_bt,2022.2.4,Win32,60.16485169,Chrome,1536,960,,,,,0,743,,,,,,,,,,,,,,,,,160,W,hexagon,0,0,,,,,,,,,,,,,,,,repeat,letter,NA,j,Hi,,,,,,0.2903,1,,,,,,,,low,23,0,23,0,1,,,,,,,,,
294850,2022-11-14_16h23.22.092,vts_reward_expectancy_bt,2022.2.4,Win32,60.16485169,Chrome,1536,960,,,,,0,743,,,,,,,,,,,,,,,,,174,S,triangle,0,1,,,,,,,,,,,,,,,,switch,number,NA,d,Hi,,,,,,0.2513,1,,,,,,,,low,24,0,24,0,1,,,,,,,,,
294850,2022-11-14_16h23.22.092,vts_reward_expectancy_bt,2022.2.4,Win32,60.16485169,Chrome,1536,960,,,,,0,743,,,,,,,,,,,,,,,,,160,D,star,0,1,,,,,,,,,,,,,,,,switch,letter,NA,k,Hi,,,,,,0.2578,1,,,,,,,,low,25,0,25,0,1,,,,,,,,,
294850,2022-11-14_16h23.22.092,vts_reward_expectancy_bt,2022.2.4,Win32,60.16485169,Chrome,1536,960,,,,,0,743,,,,,,,,,,,,,,,,,181,B,hexagon,0,1,,,,,,,,,,,,,,,,switch,number,NA,d,Hi,,,,,,0.8666,1,,,,,,,,low,26,0,26,0,1,,,,,,,,,
294850,2022-11-14_16h23.22.092,vts_reward_expectancy_bt,2022.2.4,Win32,60.16485169,Chrome,1536,960,,,,,0,743,,,,,,,,,,,,,,,,,139,F,circle,0,1,,,,,,,,,,,,,,,,switch,letter,NA,k,Hi,,,,,,0.2504,1,,,,,,,,low,27,0,27,0,1,,,,,,,,,
294850,2022-11-14_16h23.22.092,vts_reward_expectancy_bt,2022.2.4,Win32,60.16485169,Chrome,1536,960,,,,,0,743,,,,,,,,,,,,,,,,,125,H,hexagon,0,1,,,,,,,,,,,,,,,,switch,number,NA,f,Hi,,,,,,0.0516,1,,,,,,,,low,28,0,28,0,1,,,,,,,,,
294850,2022-11-14_16h23.22.092,vts_reward_expectancy_bt,2022.2.4,Win32,60.16485169,Chrome,1536,960,,,,,10,753,,,,,,,,,,,,,,,,,167,W,circle,1,1,,,,,,,,,,,,,,,,switch,letter,lettSwt,k,Hi,,,,,,0.0914,1,,,,,,,,low,29,0,29,0,1,,,,,,,,,
294850,2022-11-14_16h23.22.092,vts_reward_expectancy_bt,2022.2.4,Win32,60.16485169,Chrome,1536,960,,,,,1,754,,,,,,,,,,,,,,,,,146,U,triangle,1,0,,,,,,,,,,,,,,,,repeat,letter,lettRpt,k,Lo,,,,,,0.6088,1,,,,,,,,low,30,0,30,0,1,,,,,,,,,
294850,2022-11-14_16h23.22.092,vts_reward_expectancy_bt,2022.2.4,Win32,60.16485169,Chrome,1536,960,,,,,0,754,,,,,,,,,,,,,,,,,132,Y,star,0,0,,,,,,,,,,,,,,,,switch,number,NA,f,Lo,,,,,,0.0081,1,,,,,,,,low,31,0,31,0,1,,,,,,,,,
294850,2022-11-14_16h23.22.092,vts_reward_expectancy_bt,2022.2.4,Win32,60.16485169,Chrome,1536,960,,,,,0,754,,,,,,,,,,,,,,,,,160,H,star,0,1,,,,,,,,,,,,,,,,repeat,number,NA,d,Lo,,,,,,0.2672,2,,,,,,space,2.3104,low,0,0,0,0,1,,,,,,,,,
294850,2022-11-14_16h23.22.092,vts_reward_expectancy_bt,2022.2.4,Win32,60.16485169,Chrome,1536,960,,,,,0,754,,,,,,,,,,,,,,,,,181,D,circle,1,1,,,,,,,,,,,,,,,,switch,letter,lettSwt,j,Hi,,,,,,0.7756,2,,,,,,,,low,1,0,1,0,1,,,,,,,,,
294850,2022-11-14_16h23.22.092,vts_reward_expectancy_bt,2022.2.4,Win32,60.16485169,Chrome,1536,960,,,,,0,754,,,,,,,,,,,,,,,,,139,B,hexagon,0,0,,,,,,,,,,,,,,,,switch,number,NA,f,Hi,,,,,,0.1234,2,,,,,,,,low,2,0,2,0,1,,,,,,,,,
294850,2022-11-14_16h23.22.092,vts_reward_expectancy_bt,2022.2.4,Win32,60.16485169,Chrome,1536,960,,,,,0,754,,,,,,,,,,,,,,,,,167,U,triangle,0,1,,,,,,,,,,,,,,,,switch,letter,NA,j,Hi,,,,,,0.2669,2,,,,,,,,low,3,0,3,0,1,,,,,,,,,
294850,2022-11-14_16h23.22.092,vts_reward_expectancy_bt,2022.2.4,Win32,60.16485169,Chrome,1536,960,,,,,0,754,,,,,,,,,,,,,,,,,146,F,star,1,1,,,,,,,,,,,,,,,,switch,number,numSwt,d,Hi,,,,,,0.4344,2,,,,,,,,low,4,0,4,0,1,,,,,,,,,
294850,2022-11-14_16h23.22.092,vts_reward_expectancy_bt,2022.2.4,Win32,60.16485169,Chrome,1536,960,,,,,0,754,,,,,,,,,,,,,,,,,125,Y,circle,1,0,,,,,,,,,,,,,,,,switch,letter,lettSwt,k,Hi,,,,,,0.2893,2,,,,,,,,low,5,0,5,0,1,,,,,,,,,
294850,2022-11-14_16h23.22.092,vts_reward_expectancy_bt,2022.2.4,Win32,60.16485169,Chrome,1536,960,,,,,0,754,,,,,,,,,,,,,,,,,132,S,hexagon,0,0,,,,,,,,,,,,,,,,switch,number,NA,f,Hi,,,,,,0.2399,2,,,,,,,,low,6,0,6,0,1,,,,,,,,,
294850,2022-11-14_16h23.22.092,vts_reward_expectancy_bt,2022.2.4,Win32,60.16485169,Chrome,1536,960,,,,,1,755,,,,,,,,,,,,,,,,,174,W,triangle,1,1,,,,,,,,,,,,,,,,switch,letter,lettSwt,k,Lo,,,,,,0.2503,2,,,,,,,,low,7,0,7,0,1,,,,,,,,,
294850,2022-11-14_16h23.22.092,vts_reward_expectancy_bt,2022.2.4,Win32,60.16485169,Chrome,1536,960,,,,,0,755,,,,,,,,,,,,,,,,,160,H,circle,0,0,,,,,,,,,,,,,,,,switch,number,NA,d,Lo,,,,,,0.0614,2,,,,,,,,low,8,0,8,0,1,,,,,,,,,
294850,2022-11-14_16h23.22.092,vts_reward_expectancy_bt,2022.2.4,Win32,60.16485169,Chrome,1536,960,,,,,0,755,,,,,,,,,,,,,,,,,181,D,star,0,1,,,,,,,,,,,,,,,,switch,letter,NA,k,Lo,,,,,,0.3754,2,,,,,,,,low,9,0,9,0,1,,,,,,,,,
294850,2022-11-14_16h23.22.092,vts_reward_expectancy_bt,2022.2.4,Win32,60.16485169,Chrome,1536,960,,,,,0,755,,,,,,,,,,,,,,,,,139,B,hexagon,0,1,,,,,,,,,,,,,,,,repeat,letter,NA,k,Lo,,,,,,0.3589,2,,,,,,,,low,10,0,10,0,1,,,,,,,,,
294850,2022-11-14_16h23.22.092,vts_reward_expectancy_bt,2022.2.4,Win32,60.16485169,Chrome,1536,960,,,,,10,765,,,,,,,,,,,,,,,,,167,U,triangle,1,1,,,,,,,,,,,,,,,,repeat,letter,lettRpt,k,Lo,,,,,,0.3366,2,,,,,,,,low,11,0,11,0,1,,,,,,,,,
294850,2022-11-14_16h23.22.092,vts_reward_expectancy_bt,2022.2.4,Win32,60.16485169,Chrome,1536,960,,,,,1,766,,,,,,,,,,,,,,,,,146,F,hexagon,1,0,,,,,,,,,,,,,,,,switch,number,numSwt,d,Lo,,,,,,0.3502,2,,,,,,,,low,12,0,12,0,1,,,,,,,,,
294850,2022-11-14_16h23.22.092,vts_reward_expectancy_bt,2022.2.4,Win32,60.16485169,Chrome,1536,960,,,,,0,766,,,,,,,,,,,,,,,,,125,Y,star,1,0,,,,,,,,,,,,,,,,switch,letter,lettSwt,k,Hi,,,,,,0.5661,2,,,,,,,,low,13,0,13,0,1,,,,,,,,,
294850,2022-11-14_16h23.22.092,vts_reward_expectancy_bt,2022.2.4,Win32,60.16485169,Chrome,1536,960,,,,,1,767,,,,,,,,,,,,,,,,,132,S,triangle,1,0,,,,,,,,,,,,,,,,switch,number,numSwt,d,Lo,,,,,,0.435,2,,,,,,,,low,14,0,14,0,1,,,,,,,,,
294850,2022-11-14_16h23.22.092,vts_reward_expectancy_bt,2022.2.4,Win32,60.16485169,Chrome,1536,960,,,,,0,767,,,,,,,,,,,,,,,,,174,W,circle,1,0,,,,,,,,,,,,,,,,switch,letter,lettSwt,k,Hi,,,,,,0.4039,2,,,,,,,,low,15,0,15,0,1,,,,,,,,,
294850,2022-11-14_16h23.22.092,vts_reward_expectancy_bt,2022.2.4,Win32,60.16485169,Chrome,1536,960,,,,,0,767,,,,,,,,,,,,,,,,,139,S,triangle,0,0,,,,,,,,,,,,,,,,switch,number,NA,f,Hi,,,,,,0.3836,2,,,,,,,,low,16,0,16,0,1,,,,,,,,,
294850,2022-11-14_16h23.22.092,vts_reward_expectancy_bt,2022.2.4,Win32,60.16485169,Chrome,1536,960,,,,,0,767,,,,,,,,,,,,,,,,,181,F,circle,0,1,,,,,,,,,,,,,,,,repeat,number,NA,d,Hi,,,,,,0.3331,2,,,,,,,,low,17,0,17,0,1,,,,,,,,,
294850,2022-11-14_16h23.22.092,vts_reward_expectancy_bt,2022.2.4,Win32,60.16485169,Chrome,1536,960,,,,,1,768,,,,,,,,,,,,,,,,,132,D,hexagon,1,1,,,,,,,,,,,,,,,,switch,letter,lettSwt,j,Lo,,,,,,0.2604,2,,,,,,,,low,18,0,18,0,1,,,,,,,,,
294850,2022-11-14_16h23.22.092,vts_reward_expectancy_bt,2022.2.4,Win32,60.16485169,Chrome,1536,960,,,,,0,768,,,,,,,,,,,,,,,,,146,Y,star,0,0,,,,,,,,,,,,,,,,switch,number,NA,f,Lo,,,,,,0.0639,2,,,,,,,,low,19,0,19,0,1,,,,,,,,,
294850,2022-11-14_16h23.22.092,vts_reward_expectancy_bt,2022.2.4,Win32,60.16485169,Chrome,1536,960,,,,,0,768,,,,,,,,,,,,,,,,,174,B,triangle,0,1,,,,,,,,,,,,,,,,switch,letter,NA,k,Lo,,,,,,0.651,2,,,,,,,,low,20,0,20,0,1,,,,,,,,,
294850,2022-11-14_16h23.22.092,vts_reward_expectancy_bt,2022.2.4,Win32,60.16485169,Chrome,1536,960,,,,,1,769,,,,,,,,,,,,,,,,,160,U,circle,1,1,,,,,,,,,,,,,,,,switch,number,numSwt,f,Hi,,,,,,0.214,2,,,,,,,,low,21,0,21,0,1,,,,,,,,,
294850,2022-11-14_16h23.22.092,vts_reward_expectancy_bt,2022.2.4,Win32,60.16485169,Chrome,1536,960,,,,,10,779,,,,,,,,,,,,,,,,,125,W,star,1,0,,,,,,,,,,,,,,,,switch,letter,lettSwt,k,Hi,,,,,,0.2338,2,,,,,,,,low,22,0,22,0,1,,,,,,,,,
294850,2022-11-14_16h23.22.092,vts_reward_expectancy_bt,2022.2.4,Win32,60.16485169,Chrome,1536,960,,,,,0,779,,,,,,,,,,,,,,,,,167,H,hexagon,0,0,,,,,,,,,,,,,,,,switch,number,NA,d,Hi,,,,,,0.201,2,,,,,,,,low,23,0,23,0,1,,,,,,,,,
294850,2022-11-14_16h23.22.092,vts_reward_expectancy_bt,2022.2.4,Win32,60.16485169,Chrome,1536,960,,,,,0,779,,,,,,,,,,,,,,,,,181,S,triangle,0,1,,,,,,,,,,,,,,,,repeat,number,NA,d,Hi,,,,,,0.3601,2,,,,,,,,low,24,0,24,0,1,,,,,,,,,
294850,2022-11-14_16h23.22.092,vts_reward_expectancy_bt,2022.2.4,Win32,60.16485169,Chrome,1536,960,,,,,1,780,,,,,,,,,,,,,,,,,174,F,hexagon,1,1,,,,,,,,,,,,,,,,repeat,number,numRpt,f,Lo,,,,,,0.4066,2,,,,,,,,low,25,0,25,0,1,,,,,,,,,
294850,2022-11-14_16h23.22.092,vts_reward_expectancy_bt,2022.2.4,Win32,60.16485169,Chrome,1536,960,,,,,1,781,,,,,,,,,,,,,,,,,160,B,circle,1,0,,,,,,,,,,,,,,,,switch,letter,lettSwt,j,Hi,,,,,,0.2171,2,,,,,,,,low,26,0,26,0,1,,,,,,,,,
294850,2022-11-14_16h23.22.092,vts_reward_expectancy_bt,2022.2.4,Win32,60.16485169,Chrome,1536,960,,,,,0,781,,,,,,,,,,,,,,,,,139,H,star,0,0,,,,,,,,,,,,,,,,switch,number,NA,f,Hi,,,,,,0.3855,2,,,,,,,,low,27,0,27,0,1,,,,,,,,,
294850,2022-11-14_16h23.22.092,vts_reward_expectancy_bt,2022.2.4,Win32,60.16485169,Chrome,1536,960,,,,,10,791,,,,,,,,,,,,,,,,,146,U,triangle,1,1,,,,,,,,,,,,,,,,switch,letter,lettSwt,k,Lo,,,,,,0.5511,2,,,,,,,,low,28,0,28,0,1,,,,,,,,,
294850,2022-11-14_16h23.22.092,vts_reward_expectancy_bt,2022.2.4,Win32,60.16485169,Chrome,1536,960,,,,,10,801,,,,,,,,,,,,,,,,,125,W,star,1,0,,,,,,,,,,,,,,,,repeat,letter,lettRpt,k,Hi,,,,,,0.2673,2,,,,,,,,low,29,0,29,0,1,,,,,,,,,
294850,2022-11-14_16h23.22.092,vts_reward_expectancy_bt,2022.2.4,Win32,60.16485169,Chrome,1536,960,,,,,0,801,,,,,,,,,,,,,,,,,167,D,hexagon,0,0,,,,,,,,,,,,,,,,repeat,letter,NA,k,Hi,,,,,,0.2414,2,,,,,,,,low,30,0,30,0,1,,,,,,,,,
294850,2022-11-14_16h23.22.092,vts_reward_expectancy_bt,2022.2.4,Win32,60.16485169,Chrome,1536,960,,,,,0,801,,,,,,,,,,,,,,,,,132,Y,circle,0,1,,,,,,,,,,,,,,,,repeat,letter,NA,j,Hi,,,,,,0.6189,2,,,,,,,,low,31,0,31,0,1,,,,,,,,,
294850,2022-11-14_16h23.22.092,vts_reward_expectancy_bt,2022.2.4,Win32,60.16485169,Chrome,1536,960,,,,,0,801,,,,,,,,,,,,,,,,,181,H,triangle,0,1,,,,,,,,,,,,,,,,switch,number,NA,d,Hi,,,,,,0.6331,3,,,,,,space,1.279,low,0,0,0,0,1,,,,,,,,,
294850,2022-11-14_16h23.22.092,vts_reward_expectancy_bt,2022.2.4,Win32,60.16485169,Chrome,1536,960,,,,,0,801,,,,,,,,,,,,,,,,,132,D,star,0,1,,,,,,,,,,,,,,,,switch,letter,NA,k,Hi,,,,,,0.5017,3,,,,,,,,low,1,0,1,0,1,,,,,,,,,
294850,2022-11-14_16h23.22.092,vts_reward_expectancy_bt,2022.2.4,Win32,60.16485169,Chrome,1536,960,,,,,1,802,,,,,,,,,,,,,,,,,139,Y,hexagon,1,1,,,,,,,,,,,,,,,,switch,number,numSwt,d,Lo,,,,,,0.6504,3,,,,,,,,low,2,0,2,0,1,,,,,,,,,
294850,2022-11-14_16h23.22.092,vts_reward_expectancy_bt,2022.2.4,Win32,60.16485169,Chrome,1536,960,,,,,0,802,,,,,,,,,,,,,,,,,146,F,circle,1,0,,,,,,,,,,,,,,,,switch,letter,lettSwt,j,Hi,,,,,,0.5105,3,,,,,,,,low,3,0,3,0,1,,,,,,,,,
294850,2022-11-14_16h23.22.092,vts_reward_expectancy_bt,2022.2.4,Win32,60.16485169,Chrome,1536,960,,,,,10,812,,,,,,,,,,,,,,,,,125,U,triangle,1,0,,,,,,,,,,,,,,,,switch,number,numSwt,d,Lo,,,,,,0.4613,3,,,,,,,,low,4,0,4,0,1,,,,,,,,,
294850,2022-11-14_16h23.22.092,vts_reward_expectancy_bt,2022.2.4,Win32,60.16485169,Chrome,1536,960,,,,,0,812,,,,,,,,,,,,,,,,,167,S,star,1,0,,,,,,,,,,,,,,,,switch,letter,lettSwt,k,Hi,,,,,,0.584,3,,,,,,,,low,5,0,5,0,1,,,,,,,,,
294850,2022-11-14_16h23.22.092,vts_reward_expectancy_bt,2022.2.4,Win32,60.16485169,Chrome,1536,960,,,,,0,812,,,,,,,,,,,,,,,,,174,W,hexagon,0,0,,,,,,,,,,,,,,,,switch,number,NA,d,Hi,,,,,,0.4015,3,,,,,,,,low,6,0,6,0,1,,,,,,,,,
294850,2022-11-14_16h23.22.092,vts_reward_expectancy_bt,2022.2.4,Win32,60.16485169,Chrome,1536,960,,,,,0,812,,,,,,,,,,,,,,,,,160,B,circle,1,1,,,,,,,,,,,,,,,,switch,letter,lettSwt,j,Hi,,,,,,0.634,3,,,,,,,,low,7,0,7,0,1,,,,,,,,,
294850,2022-11-14_16h23.22.092,vts_reward_expectancy_bt,2022.2.4,Win32,60.16485169,Chrome,1536,960,,,,,0,812,,,,,,,,,,,,,,,,,181,H,star,0,0,,,,,,,,,,,,,,,,switch,number,NA,d,Hi,,,,,,0.351,3,,,,,,,,low,8,0,8,0,1,,,,,,,,,
294850,2022-11-14_16h23.22.092,vts_reward_expectancy_bt,2022.2.4,Win32,60.16485169,Chrome,1536,960,,,,,10,822,,,,,,,,,,,,,,,,,132,D,triangle,1,1,,,,,,,,,,,,,,,,repeat,number,numRpt,d,Lo,,,,,,0.6013,3,,,,,,,,low,9,0,9,0,1,,,,,,,,,
294850,2022-11-14_16h23.22.092,vts_reward_expectancy_bt,2022.2.4,Win32,60.16485169,Chrome,1536,960,,,,,0,822,,,,,,,,,,,,,,,,,139,Y,circle,1,0,,,,,,,,,,,,,,,,repeat,number,numRpt,d,Hi,,,,,,0.5258,3,,,,,,,,low,10,0,10,0,1,,,,,,,,,
294850,2022-11-14_16h23.22.092,vts_reward_expectancy_bt,2022.2.4,Win32,60.16485169,Chrome,1536,960,,,,,1,823,,,,,,,,,,,,,,,,,146,F,hexagon,1,0,,,,,,,,,,,,,,,,switch,letter,lettSwt,j,Lo,,,,,,0.6654,3,,,,,,,,low,11,0,11,0,1,,,,,,,,,
294850,2022-11-14_16h23.22.092,vts_reward_expectancy_bt,2022.2.4,Win32,60.16485169,Chrome,1536,960,,,,,1,824,,,,,,,,,,,,,,,,,125,U,hexagon,1,0,,,,,,,,,,,,,,,,switch,number,numSwt,d,Lo,,,,,,0.4719,3,,,,,,,,low,12,0,12,0,1,,,,,,,,,
294850,2022-11-14_16h23.22.092,vts_reward_expectancy_bt,2022.2.4,Win32,60.16485169,Chrome,1536,960,,,,,0,824,,,,,,,,,,,,,,,,,167,S,star,0,0,,,,,,,,,,,,,,,,repeat,number,NA,d,Lo,,,,,,0.7738,3,,,,,,,,low,13,0,13,0,1,,,,,,,,,
294850,2022-11-14_16h23.22.092,vts_reward_expectancy_bt,2022.2.4,Win32,60.16485169,Chrome,1536,960,,,,,0,824,,,,,,,,,,,,,,,,,174,W,circle,1,1,,,,,,,,,,,,,,,,switch,letter,lettSwt,k,Hi,,,,,,0.7346,3,,,,,,,,low,14,0,14,0,1,,,,,,,,,
294850,2022-11-14_16h23.22.092,vts_reward_expectancy_bt,2022.2.4,Win32,60.16485169,Chrome,1536,960,,,,,0,824,,,,,,,,,,,,,,,,,160,B,triangle,0,0,,,,,,,,,,,,,,,,switch,number,NA,d,Hi,,,,,,0.7557,3,,,,,,,,low,15,0,15,0,1,,,,,,,,,
294850,2022-11-14_16h23.22.092,vts_reward_expectancy_bt,2022.2.4,Win32,60.16485169,Chrome,1536,960,,,,,0,824,,,,,,,,,,,,,,,,,167,D,circle,1,1,,,,,,,,,,,,,,,,switch,letter,lettSwt,j,Hi,,,,,,0.6055,3,,,,,,,,low,16,0,16,0,1,,,,,,,,,
294850,2022-11-14_16h23.22.092,vts_reward_expectancy_bt,2022.2.4,Win32,60.16485169,Chrome,1536,960,,,,,10,834,,,,,,,,,,,,,,,,,132,B,triangle,1,0,,,,,,,,,,,,,,,,repeat,letter,lettRpt,j,Lo,,,,,,0.5004,3,,,,,,,,low,17,0,17,0,1,,,,,,,,,
294850,2022-11-14_16h23.22.092,vts_reward_expectancy_bt,2022.2.4,Win32,60.16485169,Chrome,1536,960,,,,,0,834,,,,,,,,,,,,,,,,,160,Y,star,1,0,,,,,,,,,,,,,,,,repeat,letter,lettRpt,k,Hi,,,,,,0.5816,3,,,,,,,,low,18,0,18,0,1,,,,,,,,,
294850,2022-11-14_16h23.22.092,vts_reward_expectancy_bt,2022.2.4,Win32,60.16485169,Chrome,1536,960,,,,,1,835,,,,,,,,,,,,,,,,,125,H,hexagon,1,0,,,,,,,,,,,,,,,,switch,number,numSwt,d,Lo,,,,,,0.512,3,,,,,,,,low,19,0,19,0,1,,,,,,,,,
294850,2022-11-14_16h23.22.092,vts_reward_expectancy_bt,2022.2.4,Win32,60.16485169,Chrome,1536,960,,,,,0,835,,,,,,,,,,,,,,,,,139,W,circle,0,0,,,,,,,,,,,,,,,,switch,letter,NA,j,Lo,,,,,,0.3729,3,,,,,,,,low,20,0,20,0,1,,,,,,,,,
294850,2022-11-14_16h23.22.092,vts_reward_expectancy_bt,2022.2.4,Win32,60.16485169,Chrome,1536,960,,,,,10,845,,,,,,,,,,,,,,,,,174,F,triangle,1,1,,,,,,,,,,,,,,,,switch,number,numSwt,f,Lo,,,,,,0.4035,3,,,,,,,,low,21,0,21,0,1,,,,,,,,,
294850,2022-11-14_16h23.22.092,vts_reward_expectancy_bt,2022.2.4,Win32,60.16485169,Chrome,1536,960,,,,,0,845,,,,,,,,,,,,,,,,,146,S,star,0,0,,,,,,,,,,,,,,,,switch,letter,NA,j,Lo,,,,,,0.4847,3,,,,,,,,low,22,0,22,0,1,,,,,,,,,
294850,2022-11-14_16h23.22.092,vts_reward_expectancy_bt,2022.2.4,Win32,60.16485169,Chrome,1536,960,,,,,1,846,,,,,,,,,,,,,,,,,181,U,hexagon,1,1,,,,,,,,,,,,,,,,switch,number,numSwt,f,Lo,,,,,,0.3861,3,,,,,,,,low,23,0,23,0,1,,,,,,,,,
294850,2022-11-14_16h23.22.092,vts_reward_expectancy_bt,2022.2.4,Win32,60.16485169,Chrome,1536,960,,,,,0,846,,,,,,,,,,,,,,,,,146,D,star,0,0,,,,,,,,,,,,,,,,switch,letter,NA,k,Lo,,,,,,0.2196,3,,,,,,,,low,24,0,24,0,1,,,,,,,,,
294850,2022-11-14_16h23.22.092,vts_reward_expectancy_bt,2022.2.4,Win32,60.16485169,Chrome,1536,960,,,,,1,847,,,,,,,,,,,,,,,,,125,U,hexagon,1,1,,,,,,,,,,,,,,,,switch,number,numSwt,d,Lo,,,,,,0.5568,3,,,,,,,,low,25,0,25,0,1,,,,,,,,,
294850,2022-11-14_16h23.22.092,vts_reward_expectancy_bt,2022.2.4,Win32,60.16485169,Chrome,1536,960,,,,,0,847,,,,,,,,,,,,,,,,,174,Y,circle,0,0,,,,,,,,,,,,,,,,switch,letter,NA,j,Lo,,,,,,0.507,3,,,,,,,,low,26,0,26,0,1,,,,,,,,,
294850,2022-11-14_16h23.22.092,vts_reward_expectancy_bt,2022.2.4,Win32,60.16485169,Chrome,1536,960,,,,,0,847,,,,,,,,,,,,,,,,,167,B,triangle,0,1,,,,,,,,,,,,,,,,repeat,letter,NA,k,Lo,,,,,,0.4769,3,,,,,,,,low,27,0,27,0,1,,,,,,,,,
294850,2022-11-14_16h23.22.092,vts_reward_expectancy_bt,2022.2.4,Win32,60.16485169,Chrome,1536,960,,,,,0,847,,,,,,,,,,,,,,,,,181,H,star,1,1,,,,,,,,,,,,,,,,switch,number,numSwt,f,Hi,,,,,,0.3669,3,,,,,,,,low,28,0,28,0,1,,,,,,,,,
294850,2022-11-14_16h23.22.092,vts_reward_expectancy_bt,2022.2.4,Win32,60.16485169,Chrome,1536,960,,,,,0,847,,,,,,,,,,,,,,,,,139,S,circle,0,0,,,,,,,,,,,,,,,,repeat,number,NA,f,Hi,,,,,,0.5687,3,,,,,,,,low,29,0,29,0,1,,,,,,,,,
294850,2022-11-14_16h23.22.092,vts_reward_expectancy_bt,2022.2.4,Win32,60.16485169,Chrome,1536,960,,,,,0,847,,,,,,,,,,,,,,,,,160,F,hexagon,0,1,,,,,,,,,,,,,,,,repeat,number,NA,d,Hi,,,,,,0.5519,3,,,,,,,,low,30,0,30,0,1,,,,,,,,,
294850,2022-11-14_16h23.22.092,vts_reward_expectancy_bt,2022.2.4,Win32,60.16485169,Chrome,1536,960,,,,,10,857,,,,,,,,,,,,,,,,,132,W,triangle,1,1,,,,,,,,,,,,,,,,repeat,number,numRpt,d,Lo,,,,,,0.5499,3,,,,,,,,low,31,0,31,0,1,,,,,,,,,
294850,2022-11-14_16h23.22.092,vts_reward_expectancy_bt,2022.2.4,Win32,60.16485169,Chrome,1536,960,,,,,0,857,,,,,,,,,,,,,,,,,132,H,circle,0,0,,,,,,,,,,,,,,,,repeat,number,NA,f,Lo,,,,,,0.3153,4,,,,,,space,1.4012,low,0,0,0,0,1,,,,,,,,,
294850,2022-11-14_16h23.22.092,vts_reward_expectancy_bt,2022.2.4,Win32,60.16485169,Chrome,1536,960,,,,,1,858,,,,,,,,,,,,,,,,,181,S,triangle,1,1,,,,,,,,,,,,,,,,switch,letter,lettSwt,k,Lo,,,,,,0.2097,4,,,,,,,,low,1,0,1,0,1,,,,,,,,,
294850,2022-11-14_16h23.22.092,vts_reward_expectancy_bt,2022.2.4,Win32,60.16485169,Chrome,1536,960,,,,,0,858,,,,,,,,,,,,,,,,,146,D,star,1,0,,,,,,,,,,,,,,,,switch,number,numSwt,d,Hi,,,,,,0.6009,4,,,,,,,,low,2,0,2,0,1,,,,,,,,,
294850,2022-11-14_16h23.22.092,vts_reward_expectancy_bt,2022.2.4,Win32,60.16485169,Chrome,1536,960,,,,,0,858,,,,,,,,,,,,,,,,,160,W,hexagon,0,0,,,,,,,,,,,,,,,,switch,letter,NA,j,Hi,,,,,,0.5086,4,,,,,,,,low,3,0,3,0,1,,,,,,,,,
294850,2022-11-14_16h23.22.092,vts_reward_expectancy_bt,2022.2.4,Win32,60.16485169,Chrome,1536,960,,,,,0,858,,,,,,,,,,,,,,,,,174,B,circle,1,1,,,,,,,,,,,,,,,,repeat,letter,lettRpt,j,Hi,,,,,,0.8534,4,,,,,,,,low,4,0,4,0,1,,,,,,,,,
294850,2022-11-14_16h23.22.092,vts_reward_expectancy_bt,2022.2.4,Win32,60.16485169,Chrome,1536,960,,,,,0,858,,,,,,,,,,,,,,,,,167,F,triangle,0,0,,,,,,,,,,,,,,,,switch,number,NA,d,Hi,,,,,,0.6178,4,,,,,,,,low,5,0,5,0,1,,,,,,,,,
294850,2022-11-14_16h23.22.092,vts_reward_expectancy_bt,2022.2.4,Win32,60.16485169,Chrome,1536,960,,,,,0,858,,,,,,,,,,,,,,,,,139,Y,star,1,1,,,,,,,,,,,,,,,,switch,letter,lettSwt,k,Hi,,,,,,0.6901,4,,,,,,,,low,6,0,6,0,1,,,,,,,,,
294850,2022-11-14_16h23.22.092,vts_reward_expectancy_bt,2022.2.4,Win32,60.16485169,Chrome,1536,960,,,,,10,868,,,,,,,,,,,,,,,,,125,U,hexagon,1,0,,,,,,,,,,,,,,,,repeat,letter,lettRpt,k,Lo,,,,,,0.6119,4,,,,,,,,low,7,0,7,0,1,,,,,,,,,
294850,2022-11-14_16h23.22.092,vts_reward_expectancy_bt,2022.2.4,Win32,60.16485169,Chrome,1536,960,,,,,10,878,,,,,,,,,,,,,,,,,132,H,circle,1,0,,,,,,,,,,,,,,,,switch,number,numSwt,d,Hi,,,,,,0.4195,4,,,,,,,,low,8,0,8,0,1,,,,,,,,,
294850,2022-11-14_16h23.22.092,vts_reward_expectancy_bt,2022.2.4,Win32,60.16485169,Chrome,1536,960,,,,,1,879,,,,,,,,,,,,,,,,,181,S,hexagon,1,0,,,,,,,,,,,,,,,,repeat,number,numRpt,f,Lo,,,,,,0.5342,4,,,,,,,,low,9,0,9,0,1,,,,,,,,,
294850,2022-11-14_16h23.22.092,vts_reward_expectancy_bt,2022.2.4,Win32,60.16485169,Chrome,1536,960,,,,,0,879,,,,,,,,,,,,,,,,,146,D,triangle,0,0,,,,,,,,,,,,,,,,switch,letter,NA,k,Lo,,,,,,0.3784,4,,,,,,,,low,10,0,10,0,1,,,,,,,,,
294850,2022-11-14_16h23.22.092,vts_reward_expectancy_bt,2022.2.4,Win32,60.16485169,Chrome,1536,960,,,,,0,879,,,,,,,,,,,,,,,,,160,W,star,1,1,,,,,,,,,,,,,,,,switch,number,numSwt,f,Hi,,,,,,0.4517,4,,,,,,,,low,11,0,11,0,1,,,,,,,,,
294850,2022-11-14_16h23.22.092,vts_reward_expectancy_bt,2022.2.4,Win32,60.16485169,Chrome,1536,960,,,,,10,889,,,,,,,,,,,,,,,,,174,B,star,1,0,,,,,,,,,,,,,,,,switch,letter,lettSwt,j,Hi,,,,,,0.5348,4,,,,,,,,low,12,0,12,0,1,,,,,,,,,
294850,2022-11-14_16h23.22.092,vts_reward_expectancy_bt,2022.2.4,Win32,60.16485169,Chrome,1536,960,,,,,0,889,,,,,,,,,,,,,,,,,167,F,hexagon,0,0,,,,,,,,,,,,,,,,repeat,letter,NA,k,Hi,,,,,,0.267,4,,,,,,,,low,13,0,13,0,1,,,,,,,,,
294850,2022-11-14_16h23.22.092,vts_reward_expectancy_bt,2022.2.4,Win32,60.16485169,Chrome,1536,960,,,,,1,890,,,,,,,,,,,,,,,,,139,Y,triangle,1,1,,,,,,,,,,,,,,,,switch,number,numSwt,d,Lo,,,,,,0.527,4,,,,,,,,low,14,0,14,0,1,,,,,,,,,
294850,2022-11-14_16h23.22.092,vts_reward_expectancy_bt,2022.2.4,Win32,60.16485169,Chrome,1536,960,,,,,0,890,,,,,,,,,,,,,,,,,125,U,circle,0,0,,,,,,,,,,,,,,,,switch,letter,NA,j,Lo,,,,,,0.6588,4,,,,,,,,low,15,0,15,0,1,,,,,,,,,
294850,2022-11-14_16h23.22.092,vts_reward_expectancy_bt,2022.2.4,Win32,60.16485169,Chrome,1536,960,,,,,1,891,,,,,,,,,,,,,,,,,160,D,triangle,1,1,,,,,,,,,,,,,,,,repeat,letter,lettRpt,j,Lo,,,,,,0.6084,4,,,,,,,,low,16,0,16,0,1,,,,,,,,,
294850,2022-11-14_16h23.22.092,vts_reward_expectancy_bt,2022.2.4,Win32,60.16485169,Chrome,1536,960,,,,,1,892,,,,,,,,,,,,,,,,,167,B,hexagon,1,0,,,,,,,,,,,,,,,,switch,number,numSwt,f,Lo,,,,,,0.6022,4,,,,,,,,low,17,0,17,0,1,,,,,,,,,
294850,2022-11-14_16h23.22.092,vts_reward_expectancy_bt,2022.2.4,Win32,60.16485169,Chrome,1536,960,,,,,0,892,,,,,,,,,,,,,,,,,132,W,star,1,0,,,,,,,,,,,,,,,,repeat,number,numRpt,d,Hi,,,,,,0.7211,4,,,,,,,,low,18,0,18,0,1,,,,,,,,,
294850,2022-11-14_16h23.22.092,vts_reward_expectancy_bt,2022.2.4,Win32,60.16485169,Chrome,1536,960,,,,,10,902,,,,,,,,,,,,,,,,,125,Y,circle,1,0,,,,,,,,,,,,,,,,repeat,number,numRpt,d,Hi,,,,,,0.526,4,,,,,,,,low,19,0,19,0,1,,,,,,,,,
294850,2022-11-14_16h23.22.092,vts_reward_expectancy_bt,2022.2.4,Win32,60.16485169,Chrome,1536,960,,,,,0,902,,,,,,,,,,,,,,,,,181,S,circle,1,0,,,,,,,,,,,,,,,,switch,letter,lettSwt,k,Hi,,,,,,0.6053,4,,,,,,,,low,20,0,20,0,1,,,,,,,,,
294850,2022-11-14_16h23.22.092,vts_reward_expectancy_bt,2022.2.4,Win32,60.16485169,Chrome,1536,960,,,,,1,903,,,,,,,,,,,,,,,,,174,F,hexagon,1,0,,,,,,,,,,,,,,,,repeat,letter,lettRpt,j,Lo,,,,,,0.7215,4,,,,,,,,low,21,0,21,0,1,,,,,,,,,
294850,2022-11-14_16h23.22.092,vts_reward_expectancy_bt,2022.2.4,Win32,60.16485169,Chrome,1536,960,,,,,0,903,,,,,,,,,,,,,,,,,139,H,star,1,0,,,,,,,,,,,,,,,,repeat,letter,lettRpt,j,Hi,,,,,,0.653,4,,,,,,,,low,22,0,22,0,1,,,,,,,,,
294850,2022-11-14_16h23.22.092,vts_reward_expectancy_bt,2022.2.4,Win32,60.16485169,Chrome,1536,960,,,,,1,904,,,,,,,,,,,,,,,,,146,U,triangle,1,0,,,,,,,,,,,,,,,,repeat,letter,lettRpt,k,Lo,,,,,,0.6207,4,,,,,,,,low,23,0,23,0,1,,,,,,,,,
294850,2022-11-14_16h23.22.092,vts_reward_expectancy_bt,2022.2.4,Win32,60.16485169,Chrome,1536,960,,,,,1,905,,,,,,,,,,,,,,,,,125,F,triangle,1,0,,,,,,,,,,,,,,,,repeat,letter,lettRpt,j,Lo,,,,,,0.6585,4,,,,,,,,low,24,0,24,0,1,,,,,,,,,
294850,2022-11-14_16h23.22.092,vts_reward_expectancy_bt,2022.2.4,Win32,60.16485169,Chrome,1536,960,,,,,1,906,,,,,,,,,,,,,,,,,139,Y,star,1,0,,,,,,,,,,,,,,,,repeat,letter,lettRpt,k,Hi,,,,,,0.4863,4,,,,,,,,low,25,0,25,0,1,,,,,,,,,
294850,2022-11-14_16h23.22.092,vts_reward_expectancy_bt,2022.2.4,Win32,60.16485169,Chrome,1536,960,,,,,0,906,,,,,,,,,,,,,,,,,132,W,circle,1,0,,,,,,,,,,,,,,,,repeat,letter,lettRpt,k,Hi,,,,,,0.6166,4,,,,,,,,low,26,0,26,0,1,,,,,,,,,
294850,2022-11-14_16h23.22.092,vts_reward_expectancy_bt,2022.2.4,Win32,60.16485169,Chrome,1536,960,,,,,1,907,,,,,,,,,,,,,,,,,181,U,hexagon,1,0,,,,,,,,,,,,,,,,repeat,letter,lettRpt,k,Lo,,,,,,0.4843,4,,,,,,,,low,27,0,27,0,1,,,,,,,,,
294850,2022-11-14_16h23.22.092,vts_reward_expectancy_bt,2022.2.4,Win32,60.16485169,Chrome,1536,960,,,,,0,907,,,,,,,,,,,,,,,,,174,B,circle,0,0,,,,,,,,,,,,,,,,switch,number,NA,d,Lo,,,,,,0.525,4,,,,,,,,low,28,0,28,0,1,,,,,,,,,
294850,2022-11-14_16h23.22.092,vts_reward_expectancy_bt,2022.2.4,Win32,60.16485169,Chrome,1536,960,,,,,0,907,,,,,,,,,,,,,,,,,146,S,hexagon,0,1,,,,,,,,,,,,,,,,repeat,number,NA,f,Lo,,,,,,0.5345,4,,,,,,,,low,29,0,29,0,1,,,,,,,,,
294850,2022-11-14_16h23.22.092,vts_reward_expectancy_bt,2022.2.4,Win32,60.16485169,Chrome,1536,960,,,,,0,907,,,,,,,,,,,,,,,,,167,D,triangle,0,1,,,,,,,,,,,,,,,,repeat,number,NA,d,Lo,,,,,,0.205,4,,,,,,,,low,30,0,30,0,1,,,,,,,,,
294850,2022-11-14_16h23.22.092,vts_reward_expectancy_bt,2022.2.4,Win32,60.16485169,Chrome,1536,960,,,,,0,907,,,,,,,,,,,,,,,,,160,H,star,0,1,,,,,,,,,,,,,,,,switch,letter,NA,k,Lo,,,,,,0.501,4,,,,,,,,low,31,0,31,0,1,,,,,,,,,
294850,2022-11-14_16h23.22.092,vts_reward_expectancy_bt,2022.2.4,Win32,60.16485169,Chrome,1536,960,,,,,0,907,,,,,,,,,,,,,,,,,125,D,hexagon,0,1,,,,,,,,,,,,,,,,switch,number,NA,f,Lo,,,,,,0.3841,5,,,,,,space,1.775,low,0,0,0,0,1,,,,,,,,,
294850,2022-11-14_16h23.22.092,vts_reward_expectancy_bt,2022.2.4,Win32,60.16485169,Chrome,1536,960,,,,,0,907,,,,,,,,,,,,,,,,,174,H,star,1,1,,,,,,,,,,,,,,,,switch,letter,lettSwt,j,Hi,,,,,,0.6481,5,,,,,,,,low,1,0,1,0,1,,,,,,,,,
294850,2022-11-14_16h23.22.092,vts_reward_expectancy_bt,2022.2.4,Win32,60.16485169,Chrome,1536,960,,,,,1,908,,,,,,,,,,,,,,,,,146,B,triangle,1,0,,,,,,,,,,,,,,,,switch,number,numSwt,d,Lo,,,,,,0.5725,5,,,,,,,,low,2,0,2,0,1,,,,,,,,,
294850,2022-11-14_16h23.22.092,vts_reward_expectancy_bt,2022.2.4,Win32,60.16485169,Chrome,1536,960,,,,,0,908,,,,,,,,,,,,,,,,,139,W,circle,1,0,,,,,,,,,,,,,,,,switch,letter,lettSwt,k,Hi,,,,,,0.5521,5,,,,,,,,low,3,0,3,0,1,,,,,,,,,
294850,2022-11-14_16h23.22.092,vts_reward_expectancy_bt,2022.2.4,Win32,60.16485169,Chrome,1536,960,,,,,10,918,,,,,,,,,,,,,,,,,132,U,hexagon,1,0,,,,,,,,,,,,,,,,switch,number,numSwt,d,Lo,,,,,,0.456,5,,,,,,,,low,4,0,4,0,1,,,,,,,,,
294850,2022-11-14_16h23.22.092,vts_reward_expectancy_bt,2022.2.4,Win32,60.16485169,Chrome,1536,960,,,,,0,918,,,,,,,,,,,,,,,,,167,F,star,1,0,,,,,,,,,,,,,,,,switch,letter,lettSwt,j,Hi,,,,,,0.7022,5,,,,,,,,low,5,0,5,0,1,,,,,,,,,
294850,2022-11-14_16h23.22.092,vts_reward_expectancy_bt,2022.2.4,Win32,60.16485169,Chrome,1536,960,,,,,1,919,,,,,,,,,,,,,,,,,160,S,triangle,1,0,,,,,,,,,,,,,,,,switch,number,numSwt,f,Lo,,,,,,0.4089,5,,,,,,,,low,6,0,6,0,1,,,,,,,,,
294850,2022-11-14_16h23.22.092,vts_reward_expectancy_bt,2022.2.4,Win32,60.16485169,Chrome,1536,960,,,,,0,919,,,,,,,,,,,,,,,,,181,Y,circle,1,0,,,,,,,,,,,,,,,,switch,letter,lettSwt,k,Hi,,,,,,0.6181,5,,,,,,,,low,7,0,7,0,1,,,,,,,,,
294850,2022-11-14_16h23.22.092,vts_reward_expectancy_bt,2022.2.4,Win32,60.16485169,Chrome,1536,960,,,,,1,920,,,,,,,,,,,,,,,,,125,D,triangle,1,0,,,,,,,,,,,,,,,,switch,number,numSwt,d,Lo,,,,,,0.6417,5,,,,,,,,low,8,0,8,0,1,,,,,,,,,
294850,2022-11-14_16h23.22.092,vts_reward_expectancy_bt,2022.2.4,Win32,60.16485169,Chrome,1536,960,,,,,0,920,,,,,,,,,,,,,,,,,174,H,star,0,0,,,,,,,,,,,,,,,,switch,letter,NA,k,Lo,,,,,,0.6839,5,,,,,,,,low,9,0,9,0,1,,,,,,,,,
294850,2022-11-14_16h23.22.092,vts_reward_expectancy_bt,2022.2.4,Win32,60.16485169,Chrome,1536,960,,,,,1,921,,,,,,,,,,,,,,,,,146,B,circle,1,1,,,,,,,,,,,,,,,,repeat,letter,lettRpt,j,Hi,,,,,,0.6046,5,,,,,,,,low,10,0,10,0,1,,,,,,,,,
294850,2022-11-14_16h23.22.092,vts_reward_expectancy_bt,2022.2.4,Win32,60.16485169,Chrome,1536,960,,,,,1,922,,,,,,,,,,,,,,,,,139,W,hexagon,1,0,,,,,,,,,,,,,,,,switch,number,numSwt,d,Lo,,,,,,0.7606,5,,,,,,,,low,11,0,11,0,1,,,,,,,,,
294850,2022-11-14_16h23.22.092,vts_reward_expectancy_bt,2022.2.4,Win32,60.16485169,Chrome,1536,960,,,,,1,923,,,,,,,,,,,,,,,,,132,U,triangle,1,0,,,,,,,,,,,,,,,,switch,letter,lettSwt,k,Lo,,,,,,0.4536,5,,,,,,,,low,12,0,12,0,1,,,,,,,,,
294850,2022-11-14_16h23.22.092,vts_reward_expectancy_bt,2022.2.4,Win32,60.16485169,Chrome,1536,960,,,,,10,933,,,,,,,,,,,,,,,,,167,F,hexagon,1,0,,,,,,,,,,,,,,,,switch,number,numSwt,f,Lo,,,,,,0.5151,5,,,,,,,,low,13,0,13,0,1,,,,,,,,,
294850,2022-11-14_16h23.22.092,vts_reward_expectancy_bt,2022.2.4,Win32,60.16485169,Chrome,1536,960,,,,,0,933,,,,,,,,,,,,,,,,,160,S,circle,1,0,,,,,,,,,,,,,,,,switch,letter,lettSwt,k,Hi,,,,,,0.6054,5,,,,,,,,low,14,0,14,0,1,,,,,,,,,
294850,2022-11-14_16h23.22.092,vts_reward_expectancy_bt,2022.2.4,Win32,60.16485169,Chrome,1536,960,,,,,0,933,,,,,,,,,,,,,,,,,181,Y,star,0,0,,,,,,,,,,,,,,,,repeat,letter,NA,j,Hi,,,,,,0.1496,5,,,,,,,,low,15,0,15,0,1,,,,,,,,,
294850,2022-11-14_16h23.22.092,vts_reward_expectancy_bt,2022.2.4,Win32,60.16485169,Chrome,1536,960,,,,,10,943,,,,,,,,,,,,,,,,,132,Y,circle,1,1,,,,,,,,,,,,,,,,repeat,letter,lettRpt,k,Hi,,,,,,0.4485,5,,,,,,,,low,16,0,16,0,1,,,,,,,,,
294850,2022-11-14_16h23.22.092,vts_reward_expectancy_bt,2022.2.4,Win32,60.16485169,Chrome,1536,960,,,,,0,943,,,,,,,,,,,,,,,,,167,S,star,1,0,,,,,,,,,,,,,,,,switch,number,numSwt,f,Hi,,,,,,0.6229,5,,,,,,,,low,17,0,17,0,1,,,,,,,,,
