participant,date,expName,psychopyVersion,OS,frameRate,browser,xResolution,yResolution,key_resp.keys,key_resp.rt,training_resp.keys,training_resp.rt,points_trial,points_cumul,trainBlock,training.thisRepN,training.thisTrialN,training.thisN,training.thisIndex,training.ran,LTriangleOpac,LCircleOpac,LHexagonOpac,LStarOpac,RTriangleOpac,RCircleOpac,RHexagonOpac,RStarOpac,LShape_ID,RShape_ID,curr_topStim,curr_bottStim,curr_shape,acc,E1,target_resp_prac1.keys,target_resp_prac1.rt,pracBlock,task1_prac_trials.thisRepN,task1_prac_trials.thisTrialN,task1_prac_trials.thisN,task1_prac_trials.thisIndex,task1_prac_trials.ran,target_resp_prac2.keys,target_resp_prac2.rt,task2_praac_trials.thisRepN,task2_praac_trials.thisTrialN,task2_praac_trials.thisN,task2_praac_trials.thisIndex,task2_praac_trials.ran,alt,task,condition,target_resp.keys,target_resp.rt,rewCond,vts_practice_trials.thisRepN,vts_practice_trials.thisTrialN,vts_practice_trials.thisN,vts_practice_trials.thisIndex,vts_practice_trials.ran,blockNum,trials_norew.thisRepN,trials_norew.thisTrialN,trials_norew.thisN,trials_norew.thisIndex,trials_norew.ran,key_resp_2.keys,key_resp_2.rt,rewExpectancy,trials_rew.thisRepN,trials_rew.thisTrialN,trials_rew.thisN,trials_rew.thisIndex,trials_rew.ran,Q1,Q2,Q2_text,Q3,Q4,Q5_text,Q5,xRes,yRes
294859,2022-12-04_22h25.21.379,vts_reward_expectancy_bt,2022.2.4,Win32,61.33464181,Chrome,1536,864,,,,,,,,,,,,,,,,,,,,,,,,,,,,,,,,,,,,,,,,,,,,,,,,,,,,,,,,,,,,,,,,,,,,,,,,,,,,
294859,2022-12-04_22h25.21.379,vts_reward_expectancy_bt,2022.2.4,Win32,61.33464181,Chrome,1536,864,space,11.4961,,,,,,,,,,,,,,,,,,,,,,,,,,,,,,,,,,,,,,,,,,,,,,,,,,,,,,,,,,,,,,,,,,,,,,,,,,
294859,2022-12-04_22h25.21.379,vts_reward_expectancy_bt,2022.2.4,Win32,61.33464181,Chrome,1536,864,,,,,,,,,,,,,,,,,,,,,,,,,,,,,,,,,,,,,,,,,,,,,,,,,,,,,,,,,,,,,,,,,,,,,,,,,,,,
294859,2022-12-04_22h25.21.379,vts_reward_expectancy_bt,2022.2.4,Win32,61.33464181,Chrome,1536,864,,,a,1.128,1,1,0,0,0,0,9,1,0,0,0,1,1,0,0,0,star,triangle,,,,,,,,,,,,,,,,,,,,,,,,,,,,,,,,,,,,,,,,,,,,,,,,,,,,,,
294859,2022-12-04_22h25.21.379,vts_reward_expectancy_bt,2022.2.4,Win32,61.33464181,Chrome,1536,864,,,a,1.2821,10,11,0,0,1,1,0,1,1,0,0,0,0,1,0,0,triangle,circle,,,,,,,,,,,,,,,,,,,,,,,,,,,,,,,,,,,,,,,,,,,,,,,,,,,,,,
294859,2022-12-04_22h25.21.379,vts_reward_expectancy_bt,2022.2.4,Win32,61.33464181,Chrome,1536,864,,,l,1.0988,10,21,0,0,2,2,3,1,0,1,0,0,1,0,0,0,circle,triangle,,,,,,,,,,,,,,,,,,,,,,,,,,,,,,,,,,,,,,,,,,,,,,,,,,,,,,
294859,2022-12-04_22h25.21.379,vts_reward_expectancy_bt,2022.2.4,Win32,61.33464181,Chrome,1536,864,,,l,1.8821,10,31,0,0,3,3,11,1,0,0,0,1,0,0,1,0,star,hexagon,,,,,,,,,,,,,,,,,,,,,,,,,,,,,,,,,,,,,,,,,,,,,,,,,,,,,,
294859,2022-12-04_22h25.21.379,vts_reward_expectancy_bt,2022.2.4,Win32,61.33464181,Chrome,1536,864,,,a,1.6143,10,41,0,0,4,4,8,1,0,0,1,0,0,0,0,1,hexagon,star,,,,,,,,,,,,,,,,,,,,,,,,,,,,,,,,,,,,,,,,,,,,,,,,,,,,,,
294859,2022-12-04_22h25.21.379,vts_reward_expectancy_bt,2022.2.4,Win32,61.33464181,Chrome,1536,864,,,a,1.4197,10,51,0,0,5,5,5,1,0,1,0,0,0,0,0,1,circle,star,,,,,,,,,,,,,,,,,,,,,,,,,,,,,,,,,,,,,,,,,,,,,,,,,,,,,,
294859,2022-12-04_22h25.21.379,vts_reward_expectancy_bt,2022.2.4,Win32,61.33464181,Chrome,1536,864,,,a,0.7851,1,52,0,0,6,6,4,1,0,1,0,0,0,0,1,0,circle,hexagon,,,,,,,,,,,,,,,,,,,,,,,,,,,,,,,,,,,,,,,,,,,,,,,,,,,,,,
294859,2022-12-04_22h25.21.379,vts_reward_expectancy_bt,2022.2.4,Win32,61.33464181,Chrome,1536,864,,,l,1.0777,10,62,0,0,7,7,10,1,0,0,0,1,0,1,0,0,star ,circle,,,,,,,,,,,,,,,,,,,,,,,,,,,,,,,,,,,,,,,,,,,,,,,,,,,,,,
294859,2022-12-04_22h25.21.379,vts_reward_expectancy_bt,2022.2.4,Win32,61.33464181,Chrome,1536,864,,,a,2.2296,1,63,0,0,8,8,2,1,1,0,0,0,0,0,0,1,triangle,star,,,,,,,,,,,,,,,,,,,,,,,,,,,,,,,,,,,,,,,,,,,,,,,,,,,,,,
294859,2022-12-04_22h25.21.379,vts_reward_expectancy_bt,2022.2.4,Win32,61.33464181,Chrome,1536,864,,,l,2.2553,10,73,0,0,9,9,1,1,1,0,0,0,0,0,1,0,triangle,hexagon,,,,,,,,,,,,,,,,,,,,,,,,,,,,,,,,,,,,,,,,,,,,,,,,,,,,,,
294859,2022-12-04_22h25.21.379,vts_reward_expectancy_bt,2022.2.4,Win32,61.33464181,Chrome,1536,864,,,a,1.1544,10,83,0,0,10,10,7,1,0,0,1,0,0,1,0,0,hexagon,circle,,,,,,,,,,,,,,,,,,,,,,,,,,,,,,,,,,,,,,,,,,,,,,,,,,,,,,
294859,2022-12-04_22h25.21.379,vts_reward_expectancy_bt,2022.2.4,Win32,61.33464181,Chrome,1536,864,,,l,1.1001,10,93,0,0,11,11,6,1,0,0,1,0,1,0,0,0,hexagon,triangle,,,,,,,,,,,,,,,,,,,,,,,,,,,,,,,,,,,,,,,,,,,,,,,,,,,,,,
294859,2022-12-04_22h25.21.379,vts_reward_expectancy_bt,2022.2.4,Win32,61.33464181,Chrome,1536,864,,,l,0.8645,10,103,0,1,0,12,9,1,0,0,0,1,1,0,0,0,star,triangle,,,,,,,,,,,,,,,,,,,,,,,,,,,,,,,,,,,,,,,,,,,,,,,,,,,,,,
294859,2022-12-04_22h25.21.379,vts_reward_expectancy_bt,2022.2.4,Win32,61.33464181,Chrome,1536,864,,,a,3.2595,10,113,0,1,1,13,2,1,1,0,0,0,0,0,0,1,triangle,star,,,,,,,,,,,,,,,,,,,,,,,,,,,,,,,,,,,,,,,,,,,,,,,,,,,,,,
294859,2022-12-04_22h25.21.379,vts_reward_expectancy_bt,2022.2.4,Win32,61.33464181,Chrome,1536,864,,,l,1.0668,10,123,0,1,2,14,11,1,0,0,0,1,0,0,1,0,star,hexagon,,,,,,,,,,,,,,,,,,,,,,,,,,,,,,,,,,,,,,,,,,,,,,,,,,,,,,
294859,2022-12-04_22h25.21.379,vts_reward_expectancy_bt,2022.2.4,Win32,61.33464181,Chrome,1536,864,,,a,1.3968,10,133,0,1,3,15,0,1,1,0,0,0,0,1,0,0,triangle,circle,,,,,,,,,,,,,,,,,,,,,,,,,,,,,,,,,,,,,,,,,,,,,,,,,,,,,,
294859,2022-12-04_22h25.21.379,vts_reward_expectancy_bt,2022.2.4,Win32,61.33464181,Chrome,1536,864,,,l,0.8296,10,143,0,1,4,16,3,1,0,1,0,0,1,0,0,0,circle,triangle,,,,,,,,,,,,,,,,,,,,,,,,,,,,,,,,,,,,,,,,,,,,,,,,,,,,,,
294859,2022-12-04_22h25.21.379,vts_reward_expectancy_bt,2022.2.4,Win32,61.33464181,Chrome,1536,864,,,l,1.2321,10,153,0,1,5,17,4,1,0,1,0,0,0,0,1,0,circle,hexagon,,,,,,,,,,,,,,,,,,,,,,,,,,,,,,,,,,,,,,,,,,,,,,,,,,,,,,
294859,2022-12-04_22h25.21.379,vts_reward_expectancy_bt,2022.2.4,Win32,61.33464181,Chrome,1536,864,,,a,0.8492,1,154,0,1,6,18,8,1,0,0,1,0,0,0,0,1,hexagon,star,,,,,,,,,,,,,,,,,,,,,,,,,,,,,,,,,,,,,,,,,,,,,,,,,,,,,,
294859,2022-12-04_22h25.21.379,vts_reward_expectancy_bt,2022.2.4,Win32,61.33464181,Chrome,1536,864,,,l,0.8303,1,155,0,1,7,19,10,1,0,0,0,1,0,1,0,0,star ,circle,,,,,,,,,,,,,,,,,,,,,,,,,,,,,,,,,,,,,,,,,,,,,,,,,,,,,,
294859,2022-12-04_22h25.21.379,vts_reward_expectancy_bt,2022.2.4,Win32,61.33464181,Chrome,1536,864,,,a,0.8141,10,165,0,1,8,20,1,1,1,0,0,0,0,0,1,0,triangle,hexagon,,,,,,,,,,,,,,,,,,,,,,,,,,,,,,,,,,,,,,,,,,,,,,,,,,,,,,
294859,2022-12-04_22h25.21.379,vts_reward_expectancy_bt,2022.2.4,Win32,61.33464181,Chrome,1536,864,,,a,1.2816,1,166,0,1,9,21,6,1,0,0,1,0,1,0,0,0,hexagon,triangle,,,,,,,,,,,,,,,,,,,,,,,,,,,,,,,,,,,,,,,,,,,,,,,,,,,,,,
294859,2022-12-04_22h25.21.379,vts_reward_expectancy_bt,2022.2.4,Win32,61.33464181,Chrome,1536,864,,,a,1.1958,10,176,0,1,10,22,7,1,0,0,1,0,0,1,0,0,hexagon,circle,,,,,,,,,,,,,,,,,,,,,,,,,,,,,,,,,,,,,,,,,,,,,,,,,,,,,,
294859,2022-12-04_22h25.21.379,vts_reward_expectancy_bt,2022.2.4,Win32,61.33464181,Chrome,1536,864,,,l,1.3855,1,177,0,1,11,23,5,1,0,1,0,0,0,0,0,1,circle,star,,,,,,,,,,,,,,,,,,,,,,,,,,,,,,,,,,,,,,,,,,,,,,,,,,,,,,
294859,2022-12-04_22h25.21.379,vts_reward_expectancy_bt,2022.2.4,Win32,61.33464181,Chrome,1536,864,,,a,0.9494,10,187,0,2,0,24,8,1,0,0,1,0,0,0,0,1,hexagon,star,,,,,,,,,,,,,,,,,,,,,,,,,,,,,,,,,,,,,,,,,,,,,,,,,,,,,,
294859,2022-12-04_22h25.21.379,vts_reward_expectancy_bt,2022.2.4,Win32,61.33464181,Chrome,1536,864,,,l,0.9293,10,197,0,2,1,25,4,1,0,1,0,0,0,0,1,0,circle,hexagon,,,,,,,,,,,,,,,,,,,,,,,,,,,,,,,,,,,,,,,,,,,,,,,,,,,,,,
294859,2022-12-04_22h25.21.379,vts_reward_expectancy_bt,2022.2.4,Win32,61.33464181,Chrome,1536,864,,,l,1.5892,10,207,0,2,2,26,1,1,1,0,0,0,0,0,1,0,triangle,hexagon,,,,,,,,,,,,,,,,,,,,,,,,,,,,,,,,,,,,,,,,,,,,,,,,,,,,,,
294859,2022-12-04_22h25.21.379,vts_reward_expectancy_bt,2022.2.4,Win32,61.33464181,Chrome,1536,864,,,l,1.2122,1,208,0,2,3,27,3,1,0,1,0,0,1,0,0,0,circle,triangle,,,,,,,,,,,,,,,,,,,,,,,,,,,,,,,,,,,,,,,,,,,,,,,,,,,,,,
294859,2022-12-04_22h25.21.379,vts_reward_expectancy_bt,2022.2.4,Win32,61.33464181,Chrome,1536,864,,,a,4.2292,1,209,0,2,4,28,10,1,0,0,0,1,0,1,0,0,star ,circle,,,,,,,,,,,,,,,,,,,,,,,,,,,,,,,,,,,,,,,,,,,,,,,,,,,,,,
294859,2022-12-04_22h25.21.379,vts_reward_expectancy_bt,2022.2.4,Win32,61.33464181,Chrome,1536,864,,,a,1.0467,1,210,0,2,5,29,2,1,1,0,0,0,0,0,0,1,triangle,star,,,,,,,,,,,,,,,,,,,,,,,,,,,,,,,,,,,,,,,,,,,,,,,,,,,,,,
294859,2022-12-04_22h25.21.379,vts_reward_expectancy_bt,2022.2.4,Win32,61.33464181,Chrome,1536,864,,,l,0.483,10,220,0,2,6,30,9,1,0,0,0,1,1,0,0,0,star,triangle,,,,,,,,,,,,,,,,,,,,,,,,,,,,,,,,,,,,,,,,,,,,,,,,,,,,,,
294859,2022-12-04_22h25.21.379,vts_reward_expectancy_bt,2022.2.4,Win32,61.33464181,Chrome,1536,864,,,a,0.6697,10,230,0,2,7,31,7,1,0,0,1,0,0,1,0,0,hexagon,circle,,,,,,,,,,,,,,,,,,,,,,,,,,,,,,,,,,,,,,,,,,,,,,,,,,,,,,
294859,2022-12-04_22h25.21.379,vts_reward_expectancy_bt,2022.2.4,Win32,61.33464181,Chrome,1536,864,,,a,0.581,10,240,0,2,8,32,6,1,0,0,1,0,1,0,0,0,hexagon,triangle,,,,,,,,,,,,,,,,,,,,,,,,,,,,,,,,,,,,,,,,,,,,,,,,,,,,,,
294859,2022-12-04_22h25.21.379,vts_reward_expectancy_bt,2022.2.4,Win32,61.33464181,Chrome,1536,864,,,a,0.8993,10,250,0,2,9,33,0,1,1,0,0,0,0,1,0,0,triangle,circle,,,,,,,,,,,,,,,,,,,,,,,,,,,,,,,,,,,,,,,,,,,,,,,,,,,,,,
294859,2022-12-04_22h25.21.379,vts_reward_expectancy_bt,2022.2.4,Win32,61.33464181,Chrome,1536,864,,,l,1.5132,10,260,0,2,10,34,11,1,0,0,0,1,0,0,1,0,star,hexagon,,,,,,,,,,,,,,,,,,,,,,,,,,,,,,,,,,,,,,,,,,,,,,,,,,,,,,
294859,2022-12-04_22h25.21.379,vts_reward_expectancy_bt,2022.2.4,Win32,61.33464181,Chrome,1536,864,,,l,1.1818,1,261,0,2,11,35,5,1,0,1,0,0,0,0,0,1,circle,star,,,,,,,,,,,,,,,,,,,,,,,,,,,,,,,,,,,,,,,,,,,,,,,,,,,,,,
294859,2022-12-04_22h25.21.379,vts_reward_expectancy_bt,2022.2.4,Win32,61.33464181,Chrome,1536,864,,,a,0.9459,10,271,1,0,0,0,6,1,0,0,1,0,1,0,0,0,hexagon,triangle,,,,,,,,,,,,,,,,,,,,,,,,,,,,,,,,,,,,,,,,,,,,,,,,,,,,,,
294859,2022-12-04_22h25.21.379,vts_reward_expectancy_bt,2022.2.4,Win32,61.33464181,Chrome,1536,864,,,l,0.9136,10,281,1,0,1,1,9,1,0,0,0,1,1,0,0,0,star,triangle,,,,,,,,,,,,,,,,,,,,,,,,,,,,,,,,,,,,,,,,,,,,,,,,,,,,,,
294859,2022-12-04_22h25.21.379,vts_reward_expectancy_bt,2022.2.4,Win32,61.33464181,Chrome,1536,864,,,a,0.5773,10,291,1,0,2,2,1,1,1,0,0,0,0,0,1,0,triangle,hexagon,,,,,,,,,,,,,,,,,,,,,,,,,,,,,,,,,,,,,,,,,,,,,,,,,,,,,,
294859,2022-12-04_22h25.21.379,vts_reward_expectancy_bt,2022.2.4,Win32,61.33464181,Chrome,1536,864,,,l,0.6818,10,301,1,0,3,3,4,1,0,1,0,0,0,0,1,0,circle,hexagon,,,,,,,,,,,,,,,,,,,,,,,,,,,,,,,,,,,,,,,,,,,,,,,,,,,,,,
294859,2022-12-04_22h25.21.379,vts_reward_expectancy_bt,2022.2.4,Win32,61.33464181,Chrome,1536,864,,,l,0.5974,1,302,1,0,4,4,2,1,1,0,0,0,0,0,0,1,triangle,star,,,,,,,,,,,,,,,,,,,,,,,,,,,,,,,,,,,,,,,,,,,,,,,,,,,,,,
294859,2022-12-04_22h25.21.379,vts_reward_expectancy_bt,2022.2.4,Win32,61.33464181,Chrome,1536,864,,,a,0.7016,1,303,1,0,5,5,5,1,0,1,0,0,0,0,0,1,circle,star,,,,,,,,,,,,,,,,,,,,,,,,,,,,,,,,,,,,,,,,,,,,,,,,,,,,,,
294859,2022-12-04_22h25.21.379,vts_reward_expectancy_bt,2022.2.4,Win32,61.33464181,Chrome,1536,864,,,a,0.652,1,304,1,0,6,6,0,1,1,0,0,0,0,1,0,0,triangle,circle,,,,,,,,,,,,,,,,,,,,,,,,,,,,,,,,,,,,,,,,,,,,,,,,,,,,,,
294859,2022-12-04_22h25.21.379,vts_reward_expectancy_bt,2022.2.4,Win32,61.33464181,Chrome,1536,864,,,l,1.0454,10,314,1,0,7,7,11,1,0,0,0,1,0,0,1,0,star,hexagon,,,,,,,,,,,,,,,,,,,,,,,,,,,,,,,,,,,,,,,,,,,,,,,,,,,,,,
294859,2022-12-04_22h25.21.379,vts_reward_expectancy_bt,2022.2.4,Win32,61.33464181,Chrome,1536,864,,,a,1.3492,10,324,1,0,8,8,8,1,0,0,1,0,0,0,0,1,hexagon,star,,,,,,,,,,,,,,,,,,,,,,,,,,,,,,,,,,,,,,,,,,,,,,,,,,,,,,
294859,2022-12-04_22h25.21.379,vts_reward_expectancy_bt,2022.2.4,Win32,61.33464181,Chrome,1536,864,,,a,0.734,10,334,1,0,9,9,7,1,0,0,1,0,0,1,0,0,hexagon,circle,,,,,,,,,,,,,,,,,,,,,,,,,,,,,,,,,,,,,,,,,,,,,,,,,,,,,,
294859,2022-12-04_22h25.21.379,vts_reward_expectancy_bt,2022.2.4,Win32,61.33464181,Chrome,1536,864,,,a,1.2892,10,344,1,0,10,10,10,1,0,0,0,1,0,1,0,0,star ,circle,,,,,,,,,,,,,,,,,,,,,,,,,,,,,,,,,,,,,,,,,,,,,,,,,,,,,,
294859,2022-12-04_22h25.21.379,vts_reward_expectancy_bt,2022.2.4,Win32,61.33464181,Chrome,1536,864,,,l,0.8948,10,354,1,0,11,11,3,1,0,1,0,0,1,0,0,0,circle,triangle,,,,,,,,,,,,,,,,,,,,,,,,,,,,,,,,,,,,,,,,,,,,,,,,,,,,,,
294859,2022-12-04_22h25.21.379,vts_reward_expectancy_bt,2022.2.4,Win32,61.33464181,Chrome,1536,864,,,a,1.2709,1,355,1,1,0,12,6,1,0,0,1,0,1,0,0,0,hexagon,triangle,,,,,,,,,,,,,,,,,,,,,,,,,,,,,,,,,,,,,,,,,,,,,,,,,,,,,,
294859,2022-12-04_22h25.21.379,vts_reward_expectancy_bt,2022.2.4,Win32,61.33464181,Chrome,1536,864,,,l,1.631,10,365,1,1,1,13,5,1,0,1,0,0,0,0,0,1,circle,star,,,,,,,,,,,,,,,,,,,,,,,,,,,,,,,,,,,,,,,,,,,,,,,,,,,,,,
294859,2022-12-04_22h25.21.379,vts_reward_expectancy_bt,2022.2.4,Win32,61.33464181,Chrome,1536,864,,,l,1.6873,1,366,1,1,2,14,11,1,0,0,0,1,0,0,1,0,star,hexagon,,,,,,,,,,,,,,,,,,,,,,,,,,,,,,,,,,,,,,,,,,,,,,,,,,,,,,
294859,2022-12-04_22h25.21.379,vts_reward_expectancy_bt,2022.2.4,Win32,61.33464181,Chrome,1536,864,,,a,0.5538,1,367,1,1,3,15,3,1,0,1,0,0,1,0,0,0,circle,triangle,,,,,,,,,,,,,,,,,,,,,,,,,,,,,,,,,,,,,,,,,,,,,,,,,,,,,,
294859,2022-12-04_22h25.21.379,vts_reward_expectancy_bt,2022.2.4,Win32,61.33464181,Chrome,1536,864,,,a,0.887,1,368,1,1,4,16,10,1,0,0,0,1,0,1,0,0,star ,circle,,,,,,,,,,,,,,,,,,,,,,,,,,,,,,,,,,,,,,,,,,,,,,,,,,,,,,
294859,2022-12-04_22h25.21.379,vts_reward_expectancy_bt,2022.2.4,Win32,61.33464181,Chrome,1536,864,,,l,0.314,10,378,1,1,5,17,4,1,0,1,0,0,0,0,1,0,circle,hexagon,,,,,,,,,,,,,,,,,,,,,,,,,,,,,,,,,,,,,,,,,,,,,,,,,,,,,,
294859,2022-12-04_22h25.21.379,vts_reward_expectancy_bt,2022.2.4,Win32,61.33464181,Chrome,1536,864,,,l,0.4961,10,388,1,1,6,18,9,1,0,0,0,1,1,0,0,0,star,triangle,,,,,,,,,,,,,,,,,,,,,,,,,,,,,,,,,,,,,,,,,,,,,,,,,,,,,,
294859,2022-12-04_22h25.21.379,vts_reward_expectancy_bt,2022.2.4,Win32,61.33464181,Chrome,1536,864,,,a,0.8467,10,398,1,1,7,19,7,1,0,0,1,0,0,1,0,0,hexagon,circle,,,,,,,,,,,,,,,,,,,,,,,,,,,,,,,,,,,,,,,,,,,,,,,,,,,,,,
294859,2022-12-04_22h25.21.379,vts_reward_expectancy_bt,2022.2.4,Win32,61.33464181,Chrome,1536,864,,,a,0.5535,1,399,1,1,8,20,8,1,0,0,1,0,0,0,0,1,hexagon,star,,,,,,,,,,,,,,,,,,,,,,,,,,,,,,,,,,,,,,,,,,,,,,,,,,,,,,
294859,2022-12-04_22h25.21.379,vts_reward_expectancy_bt,2022.2.4,Win32,61.33464181,Chrome,1536,864,,,l,1.0618,1,400,1,1,9,21,0,1,1,0,0,0,0,1,0,0,triangle,circle,,,,,,,,,,,,,,,,,,,,,,,,,,,,,,,,,,,,,,,,,,,,,,,,,,,,,,
294859,2022-12-04_22h25.21.379,vts_reward_expectancy_bt,2022.2.4,Win32,61.33464181,Chrome,1536,864,,,a,1.9437,10,410,1,1,10,22,2,1,1,0,0,0,0,0,0,1,triangle,star,,,,,,,,,,,,,,,,,,,,,,,,,,,,,,,,,,,,,,,,,,,,,,,,,,,,,,
294859,2022-12-04_22h25.21.379,vts_reward_expectancy_bt,2022.2.4,Win32,61.33464181,Chrome,1536,864,,,l,1.6144,10,420,1,1,11,23,1,1,1,0,0,0,0,0,1,0,triangle,hexagon,,,,,,,,,,,,,,,,,,,,,,,,,,,,,,,,,,,,,,,,,,,,,,,,,,,,,,
294859,2022-12-04_22h25.21.379,vts_reward_expectancy_bt,2022.2.4,Win32,61.33464181,Chrome,1536,864,,,a,0.9071,10,430,1,2,0,24,1,1,1,0,0,0,0,0,1,0,triangle,hexagon,,,,,,,,,,,,,,,,,,,,,,,,,,,,,,,,,,,,,,,,,,,,,,,,,,,,,,
294859,2022-12-04_22h25.21.379,vts_reward_expectancy_bt,2022.2.4,Win32,61.33464181,Chrome,1536,864,,,a,0.6495,10,440,1,2,1,25,8,1,0,0,1,0,0,0,0,1,hexagon,star,,,,,,,,,,,,,,,,,,,,,,,,,,,,,,,,,,,,,,,,,,,,,,,,,,,,,,
294859,2022-12-04_22h25.21.379,vts_reward_expectancy_bt,2022.2.4,Win32,61.33464181,Chrome,1536,864,,,l,1.3039,1,441,1,2,2,26,11,1,0,0,0,1,0,0,1,0,star,hexagon,,,,,,,,,,,,,,,,,,,,,,,,,,,,,,,,,,,,,,,,,,,,,,,,,,,,,,
294859,2022-12-04_22h25.21.379,vts_reward_expectancy_bt,2022.2.4,Win32,61.33464181,Chrome,1536,864,,,a,1.3791,10,451,1,2,3,27,7,1,0,0,1,0,0,1,0,0,hexagon,circle,,,,,,,,,,,,,,,,,,,,,,,,,,,,,,,,,,,,,,,,,,,,,,,,,,,,,,
294859,2022-12-04_22h25.21.379,vts_reward_expectancy_bt,2022.2.4,Win32,61.33464181,Chrome,1536,864,,,l,1.7488,10,461,1,2,4,28,3,1,0,1,0,0,1,0,0,0,circle,triangle,,,,,,,,,,,,,,,,,,,,,,,,,,,,,,,,,,,,,,,,,,,,,,,,,,,,,,
294859,2022-12-04_22h25.21.379,vts_reward_expectancy_bt,2022.2.4,Win32,61.33464181,Chrome,1536,864,,,a,0.5986,10,471,1,2,5,29,2,1,1,0,0,0,0,0,0,1,triangle,star,,,,,,,,,,,,,,,,,,,,,,,,,,,,,,,,,,,,,,,,,,,,,,,,,,,,,,
294859,2022-12-04_22h25.21.379,vts_reward_expectancy_bt,2022.2.4,Win32,61.33464181,Chrome,1536,864,,,l,1.0014,10,481,1,2,6,30,4,1,0,1,0,0,0,0,1,0,circle,hexagon,,,,,,,,,,,,,,,,,,,,,,,,,,,,,,,,,,,,,,,,,,,,,,,,,,,,,,
294859,2022-12-04_22h25.21.379,vts_reward_expectancy_bt,2022.2.4,Win32,61.33464181,Chrome,1536,864,,,a,2.1392,1,482,1,2,7,31,5,1,0,1,0,0,0,0,0,1,circle,star,,,,,,,,,,,,,,,,,,,,,,,,,,,,,,,,,,,,,,,,,,,,,,,,,,,,,,
294859,2022-12-04_22h25.21.379,vts_reward_expectancy_bt,2022.2.4,Win32,61.33464181,Chrome,1536,864,,,l,0.5466,1,483,1,2,8,32,10,1,0,0,0,1,0,1,0,0,star ,circle,,,,,,,,,,,,,,,,,,,,,,,,,,,,,,,,,,,,,,,,,,,,,,,,,,,,,,
294859,2022-12-04_22h25.21.379,vts_reward_expectancy_bt,2022.2.4,Win32,61.33464181,Chrome,1536,864,,,a,0.5029,10,493,1,2,9,33,6,1,0,0,1,0,1,0,0,0,hexagon,triangle,,,,,,,,,,,,,,,,,,,,,,,,,,,,,,,,,,,,,,,,,,,,,,,,,,,,,,
294859,2022-12-04_22h25.21.379,vts_reward_expectancy_bt,2022.2.4,Win32,61.33464181,Chrome,1536,864,,,l,3.6083,1,494,1,2,10,34,9,1,0,0,0,1,1,0,0,0,star,triangle,,,,,,,,,,,,,,,,,,,,,,,,,,,,,,,,,,,,,,,,,,,,,,,,,,,,,,
294859,2022-12-04_22h25.21.379,vts_reward_expectancy_bt,2022.2.4,Win32,61.33464181,Chrome,1536,864,,,a,0.682,10,504,1,2,11,35,0,1,1,0,0,0,0,1,0,0,triangle,circle,,,,,,,,,,,,,,,,,,,,,,,,,,,,,,,,,,,,,,,,,,,,,,,,,,,,,,
294859,2022-12-04_22h25.21.379,vts_reward_expectancy_bt,2022.2.4,Win32,61.33464181,Chrome,1536,864,,,a,7.2282,10,514,2,0,0,0,0,1,1,0,0,0,0,1,0,0,triangle,circle,,,,,,,,,,,,,,,,,,,,,,,,,,,,,,,,,,,,,,,,,,,,,,,,,,,,,,
294859,2022-12-04_22h25.21.379,vts_reward_expectancy_bt,2022.2.4,Win32,61.33464181,Chrome,1536,864,,,l,0.8656,1,515,2,0,1,1,4,1,0,1,0,0,0,0,1,0,circle,hexagon,,,,,,,,,,,,,,,,,,,,,,,,,,,,,,,,,,,,,,,,,,,,,,,,,,,,,,
294859,2022-12-04_22h25.21.379,vts_reward_expectancy_bt,2022.2.4,Win32,61.33464181,Chrome,1536,864,,,a,0.683,1,516,2,0,2,2,8,1,0,0,1,0,0,0,0,1,hexagon,star,,,,,,,,,,,,,,,,,,,,,,,,,,,,,,,,,,,,,,,,,,,,,,,,,,,,,,
294859,2022-12-04_22h25.21.379,vts_reward_expectancy_bt,2022.2.4,Win32,61.33464181,Chrome,1536,864,,,l,0.4251,10,526,2,0,3,3,11,1,0,0,0,1,0,0,1,0,star,hexagon,,,,,,,,,,,,,,,,,,,,,,,,,,,,,,,,,,,,,,,,,,,,,,,,,,,,,,
294859,2022-12-04_22h25.21.379,vts_reward_expectancy_bt,2022.2.4,Win32,61.33464181,Chrome,1536,864,,,l,11.1428,1,527,2,0,4,4,3,1,0,1,0,0,1,0,0,0,circle,triangle,,,,,,,,,,,,,,,,,,,,,,,,,,,,,,,,,,,,,,,,,,,,,,,,,,,,,,
294859,2022-12-04_22h25.21.379,vts_reward_expectancy_bt,2022.2.4,Win32,61.33464181,Chrome,1536,864,,,l,12.6719,10,537,2,0,5,5,9,1,0,0,0,1,1,0,0,0,star,triangle,,,,,,,,,,,,,,,,,,,,,,,,,,,,,,,,,,,,,,,,,,,,,,,,,,,,,,
294859,2022-12-04_22h25.21.379,vts_reward_expectancy_bt,2022.2.4,Win32,61.33464181,Chrome,1536,864,,,l,1.9104,1,538,2,0,6,6,6,1,0,0,1,0,1,0,0,0,hexagon,triangle,,,,,,,,,,,,,,,,,,,,,,,,,,,,,,,,,,,,,,,,,,,,,,,,,,,,,,
294859,2022-12-04_22h25.21.379,vts_reward_expectancy_bt,2022.2.4,Win32,61.33464181,Chrome,1536,864,,,a,3.3417,10,548,2,0,7,7,5,1,0,1,0,0,0,0,0,1,circle,star,,,,,,,,,,,,,,,,,,,,,,,,,,,,,,,,,,,,,,,,,,,,,,,,,,,,,,
294859,2022-12-04_22h25.21.379,vts_reward_expectancy_bt,2022.2.4,Win32,61.33464181,Chrome,1536,864,,,l,0.8472,1,549,2,0,8,8,10,1,0,0,0,1,0,1,0,0,star ,circle,,,,,,,,,,,,,,,,,,,,,,,,,,,,,,,,,,,,,,,,,,,,,,,,,,,,,,
294859,2022-12-04_22h25.21.379,vts_reward_expectancy_bt,2022.2.4,Win32,61.33464181,Chrome,1536,864,,,a,0.729,10,559,2,0,9,9,1,1,1,0,0,0,0,0,1,0,triangle,hexagon,,,,,,,,,,,,,,,,,,,,,,,,,,,,,,,,,,,,,,,,,,,,,,,,,,,,,,
294859,2022-12-04_22h25.21.379,vts_reward_expectancy_bt,2022.2.4,Win32,61.33464181,Chrome,1536,864,,,a,0.6538,1,560,2,0,10,10,7,1,0,0,1,0,0,1,0,0,hexagon,circle,,,,,,,,,,,,,,,,,,,,,,,,,,,,,,,,,,,,,,,,,,,,,,,,,,,,,,
294859,2022-12-04_22h25.21.379,vts_reward_expectancy_bt,2022.2.4,Win32,61.33464181,Chrome,1536,864,,,a,0.7028,10,570,2,0,11,11,2,1,1,0,0,0,0,0,0,1,triangle,star,,,,,,,,,,,,,,,,,,,,,,,,,,,,,,,,,,,,,,,,,,,,,,,,,,,,,,
294859,2022-12-04_22h25.21.379,vts_reward_expectancy_bt,2022.2.4,Win32,61.33464181,Chrome,1536,864,,,l,0.5006,10,580,2,1,0,12,4,1,0,1,0,0,0,0,1,0,circle,hexagon,,,,,,,,,,,,,,,,,,,,,,,,,,,,,,,,,,,,,,,,,,,,,,,,,,,,,,
294859,2022-12-04_22h25.21.379,vts_reward_expectancy_bt,2022.2.4,Win32,61.33464181,Chrome,1536,864,,,a,1.118,1,581,2,1,1,13,9,1,0,0,0,1,1,0,0,0,star,triangle,,,,,,,,,,,,,,,,,,,,,,,,,,,,,,,,,,,,,,,,,,,,,,,,,,,,,,
294859,2022-12-04_22h25.21.379,vts_reward_expectancy_bt,2022.2.4,Win32,61.33464181,Chrome,1536,864,,,l,0.6663,1,582,2,1,2,14,8,1,0,0,1,0,0,0,0,1,hexagon,star,,,,,,,,,,,,,,,,,,,,,,,,,,,,,,,,,,,,,,,,,,,,,,,,,,,,,,
294859,2022-12-04_22h25.21.379,vts_reward_expectancy_bt,2022.2.4,Win32,61.33464181,Chrome,1536,864,,,a,0.6143,1,583,2,1,3,15,10,1,0,0,0,1,0,1,0,0,star ,circle,,,,,,,,,,,,,,,,,,,,,,,,,,,,,,,,,,,,,,,,,,,,,,,,,,,,,,
294859,2022-12-04_22h25.21.379,vts_reward_expectancy_bt,2022.2.4,Win32,61.33464181,Chrome,1536,864,,,l,0.9025,10,593,2,1,4,16,6,1,0,0,1,0,1,0,0,0,hexagon,triangle,,,,,,,,,,,,,,,,,,,,,,,,,,,,,,,,,,,,,,,,,,,,,,,,,,,,,,
294859,2022-12-04_22h25.21.379,vts_reward_expectancy_bt,2022.2.4,Win32,61.33464181,Chrome,1536,864,,,l,0.5618,1,594,2,1,5,17,0,1,1,0,0,0,0,1,0,0,triangle,circle,,,,,,,,,,,,,,,,,,,,,,,,,,,,,,,,,,,,,,,,,,,,,,,,,,,,,,
294859,2022-12-04_22h25.21.379,vts_reward_expectancy_bt,2022.2.4,Win32,61.33464181,Chrome,1536,864,,,a,0.4873,10,604,2,1,6,18,7,1,0,0,1,0,0,1,0,0,hexagon,circle,,,,,,,,,,,,,,,,,,,,,,,,,,,,,,,,,,,,,,,,,,,,,,,,,,,,,,
294859,2022-12-04_22h25.21.379,vts_reward_expectancy_bt,2022.2.4,Win32,61.33464181,Chrome,1536,864,,,l,0.7881,10,614,2,1,7,19,3,1,0,1,0,0,1,0,0,0,circle,triangle,,,,,,,,,,,,,,,,,,,,,,,,,,,,,,,,,,,,,,,,,,,,,,,,,,,,,,
294859,2022-12-04_22h25.21.379,vts_reward_expectancy_bt,2022.2.4,Win32,61.33464181,Chrome,1536,864,,,a,0.4496,1,615,2,1,8,20,1,1,1,0,0,0,0,0,1,0,triangle,hexagon,,,,,,,,,,,,,,,,,,,,,,,,,,,,,,,,,,,,,,,,,,,,,,,,,,,,,,
294859,2022-12-04_22h25.21.379,vts_reward_expectancy_bt,2022.2.4,Win32,61.33464181,Chrome,1536,864,,,l,1.2451,1,616,2,1,9,21,5,1,0,1,0,0,0,0,0,1,circle,star,,,,,,,,,,,,,,,,,,,,,,,,,,,,,,,,,,,,,,,,,,,,,,,,,,,,,,
294859,2022-12-04_22h25.21.379,vts_reward_expectancy_bt,2022.2.4,Win32,61.33464181,Chrome,1536,864,,,a,0.6564,1,617,2,1,10,22,11,1,0,0,0,1,0,0,1,0,star,hexagon,,,,,,,,,,,,,,,,,,,,,,,,,,,,,,,,,,,,,,,,,,,,,,,,,,,,,,
294859,2022-12-04_22h25.21.379,vts_reward_expectancy_bt,2022.2.4,Win32,61.33464181,Chrome,1536,864,,,l,0.3225,1,618,2,1,11,23,2,1,1,0,0,0,0,0,0,1,triangle,star,,,,,,,,,,,,,,,,,,,,,,,,,,,,,,,,,,,,,,,,,,,,,,,,,,,,,,
294859,2022-12-04_22h25.21.379,vts_reward_expectancy_bt,2022.2.4,Win32,61.33464181,Chrome,1536,864,,,a,23.5056,10,628,2,2,0,24,7,1,0,0,1,0,0,1,0,0,hexagon,circle,,,,,,,,,,,,,,,,,,,,,,,,,,,,,,,,,,,,,,,,,,,,,,,,,,,,,,
294859,2022-12-04_22h25.21.379,vts_reward_expectancy_bt,2022.2.4,Win32,61.33464181,Chrome,1536,864,,,l,0.5918,10,638,2,2,1,25,1,1,1,0,0,0,0,0,1,0,triangle,hexagon,,,,,,,,,,,,,,,,,,,,,,,,,,,,,,,,,,,,,,,,,,,,,,,,,,,,,,
294859,2022-12-04_22h25.21.379,vts_reward_expectancy_bt,2022.2.4,Win32,61.33464181,Chrome,1536,864,,,l,0.6636,10,648,2,2,2,26,9,1,0,0,0,1,1,0,0,0,star,triangle,,,,,,,,,,,,,,,,,,,,,,,,,,,,,,,,,,,,,,,,,,,,,,,,,,,,,,
294859,2022-12-04_22h25.21.379,vts_reward_expectancy_bt,2022.2.4,Win32,61.33464181,Chrome,1536,864,,,l,0.5169,10,658,2,2,3,27,2,1,1,0,0,0,0,0,0,1,triangle,star,,,,,,,,,,,,,,,,,,,,,,,,,,,,,,,,,,,,,,,,,,,,,,,,,,,,,,
294859,2022-12-04_22h25.21.379,vts_reward_expectancy_bt,2022.2.4,Win32,61.33464181,Chrome,1536,864,,,l,1.2302,10,668,2,2,4,28,3,1,0,1,0,0,1,0,0,0,circle,triangle,,,,,,,,,,,,,,,,,,,,,,,,,,,,,,,,,,,,,,,,,,,,,,,,,,,,,,
294859,2022-12-04_22h25.21.379,vts_reward_expectancy_bt,2022.2.4,Win32,61.33464181,Chrome,1536,864,,,l,0.5732,10,678,2,2,5,29,11,1,0,0,0,1,0,0,1,0,star,hexagon,,,,,,,,,,,,,,,,,,,,,,,,,,,,,,,,,,,,,,,,,,,,,,,,,,,,,,
294859,2022-12-04_22h25.21.379,vts_reward_expectancy_bt,2022.2.4,Win32,61.33464181,Chrome,1536,864,,,l,1.4289,1,679,2,2,6,30,10,1,0,0,0,1,0,1,0,0,star ,circle,,,,,,,,,,,,,,,,,,,,,,,,,,,,,,,,,,,,,,,,,,,,,,,,,,,,,,
294859,2022-12-04_22h25.21.379,vts_reward_expectancy_bt,2022.2.4,Win32,61.33464181,Chrome,1536,864,,,l,1.0998,1,680,2,2,7,31,5,1,0,1,0,0,0,0,0,1,circle,star,,,,,,,,,,,,,,,,,,,,,,,,,,,,,,,,,,,,,,,,,,,,,,,,,,,,,,
294859,2022-12-04_22h25.21.379,vts_reward_expectancy_bt,2022.2.4,Win32,61.33464181,Chrome,1536,864,,,l,1.4168,1,681,2,2,8,32,4,1,0,1,0,0,0,0,1,0,circle,hexagon,,,,,,,,,,,,,,,,,,,,,,,,,,,,,,,,,,,,,,,,,,,,,,,,,,,,,,
294859,2022-12-04_22h25.21.379,vts_reward_expectancy_bt,2022.2.4,Win32,61.33464181,Chrome,1536,864,,,a,0.5209,10,691,2,2,9,33,6,1,0,0,1,0,1,0,0,0,hexagon,triangle,,,,,,,,,,,,,,,,,,,,,,,,,,,,,,,,,,,,,,,,,,,,,,,,,,,,,,
294859,2022-12-04_22h25.21.379,vts_reward_expectancy_bt,2022.2.4,Win32,61.33464181,Chrome,1536,864,,,a,23.6451,10,701,2,2,10,34,8,1,0,0,1,0,0,0,0,1,hexagon,star,,,,,,,,,,,,,,,,,,,,,,,,,,,,,,,,,,,,,,,,,,,,,,,,,,,,,,
294859,2022-12-04_22h25.21.379,vts_reward_expectancy_bt,2022.2.4,Win32,61.33464181,Chrome,1536,864,,,a,10.3734,1,702,2,2,11,35,0,1,1,0,0,0,0,1,0,0,triangle,circle,,,,,,,,,,,,,,,,,,,,,,,,,,,,,,,,,,,,,,,,,,,,,,,,,,,,,,
294859,2022-12-04_22h25.21.379,vts_reward_expectancy_bt,2022.2.4,Win32,61.33464181,Chrome,1536,864,,,,,,,,,,,,,,,,,,,,,,,B,146,star,1,0,d,1.9038,0,0,0,0,0,1,,,,,,,,,,,,,,,,,,,,,,,,,,,,,,,,,,,,,,,,,
294859,2022-12-04_22h25.21.379,vts_reward_expectancy_bt,2022.2.4,Win32,61.33464181,Chrome,1536,864,,,,,,,,,,,,,,,,,,,,,,,S,160,hexagon,1,0,f,0.0343,0,1,0,1,0,1,,,,,,,,,,,,,,,,,,,,,,,,,,,,,,,,,,,,,,,,,
294859,2022-12-04_22h25.21.379,vts_reward_expectancy_bt,2022.2.4,Win32,61.33464181,Chrome,1536,864,,,,,,,,,,,,,,,,,,,,,,,U,125,triangle,1,0,f,0.5515,0,2,0,2,0,1,,,,,,,,,,,,,,,,,,,,,,,,,,,,,,,,,,,,,,,,,
294859,2022-12-04_22h25.21.379,vts_reward_expectancy_bt,2022.2.4,Win32,61.33464181,Chrome,1536,864,,,,,,,,,,,,,,,,,,,,,,,F,167,circle,1,0,d,0.4493,0,3,0,3,0,1,,,,,,,,,,,,,,,,,,,,,,,,,,,,,,,,,,,,,,,,,
294859,2022-12-04_22h25.21.379,vts_reward_expectancy_bt,2022.2.4,Win32,61.33464181,Chrome,1536,864,,,,,,,,,,,,,,,,,,,,,,,D,174,star,1,0,d,0.7164,0,4,0,4,0,1,,,,,,,,,,,,,,,,,,,,,,,,,,,,,,,,,,,,,,,,,
294859,2022-12-04_22h25.21.379,vts_reward_expectancy_bt,2022.2.4,Win32,61.33464181,Chrome,1536,864,,,,,,,,,,,,,,,,,,,,,,,W,181,hexagon,1,0,f,0.6662,0,5,0,5,0,1,,,,,,,,,,,,,,,,,,,,,,,,,,,,,,,,,,,,,,,,,
294859,2022-12-04_22h25.21.379,vts_reward_expectancy_bt,2022.2.4,Win32,61.33464181,Chrome,1536,864,,,,,,,,,,,,,,,,,,,,,,,H,132,triangle,0,0,f,0.5154,0,6,0,6,0,1,,,,,,,,,,,,,,,,,,,,,,,,,,,,,,,,,,,,,,,,,
294859,2022-12-04_22h25.21.379,vts_reward_expectancy_bt,2022.2.4,Win32,61.33464181,Chrome,1536,864,,,,,,,,,,,,,,,,,,,,,,,Y,139,circle,1,1,f,0.6484,0,7,0,7,0,1,,,,,,,,,,,,,,,,,,,,,,,,,,,,,,,,,,,,,,,,,
294859,2022-12-04_22h25.21.379,vts_reward_expectancy_bt,2022.2.4,Win32,61.33464181,Chrome,1536,864,,,,,,,,,,,,,,,,,,,,,,,B,146,star,1,0,d,0.7993,0,8,0,8,0,1,,,,,,,,,,,,,,,,,,,,,,,,,,,,,,,,,,,,,,,,,
294859,2022-12-04_22h25.21.379,vts_reward_expectancy_bt,2022.2.4,Win32,61.33464181,Chrome,1536,864,,,,,,,,,,,,,,,,,,,,,,,S,160,circle,1,0,f,0.8881,0,9,0,9,0,1,,,,,,,,,,,,,,,,,,,,,,,,,,,,,,,,,,,,,,,,,
294859,2022-12-04_22h25.21.379,vts_reward_expectancy_bt,2022.2.4,Win32,61.33464181,Chrome,1536,864,,,,,,,,,,,,,,,,,,,,,,,Y,174,circle,1,0,,,1,,,,,,k,0.8629,0,0,0,0,1,,,,,,,,,,,,,,,,,,,,,,,,,,,,,,,,,,
294859,2022-12-04_22h25.21.379,vts_reward_expectancy_bt,2022.2.4,Win32,61.33464181,Chrome,1536,864,,,,,,,,,,,,,,,,,,,,,,,F,146,triangle,0,0,,,1,,,,,,k,1.1146,1,0,1,0,1,,,,,,,,,,,,,,,,,,,,,,,,,,,,,,,,,,
294859,2022-12-04_22h25.21.379,vts_reward_expectancy_bt,2022.2.4,Win32,61.33464181,Chrome,1536,864,,,,,,,,,,,,,,,,,,,,,,,U,167,hexagon,1,1,,,1,,,,,,k,1.0779,2,0,2,0,1,,,,,,,,,,,,,,,,,,,,,,,,,,,,,,,,,,
294859,2022-12-04_22h25.21.379,vts_reward_expectancy_bt,2022.2.4,Win32,61.33464181,Chrome,1536,864,,,,,,,,,,,,,,,,,,,,,,,S,139,star,1,0,,,1,,,,,,j,0.8269,3,0,3,0,1,,,,,,,,,,,,,,,,,,,,,,,,,,,,,,,,,,
294859,2022-12-04_22h25.21.379,vts_reward_expectancy_bt,2022.2.4,Win32,61.33464181,Chrome,1536,864,,,,,,,,,,,,,,,,,,,,,,,B,181,circle,1,0,,,1,,,,,,k,0.7289,4,0,4,0,1,,,,,,,,,,,,,,,,,,,,,,,,,,,,,,,,,,
294859,2022-12-04_22h25.21.379,vts_reward_expectancy_bt,2022.2.4,Win32,61.33464181,Chrome,1536,864,,,,,,,,,,,,,,,,,,,,,,,W,160,triangle,1,0,,,1,,,,,,k,0.682,5,0,5,0,1,,,,,,,,,,,,,,,,,,,,,,,,,,,,,,,,,,
294859,2022-12-04_22h25.21.379,vts_reward_expectancy_bt,2022.2.4,Win32,61.33464181,Chrome,1536,864,,,,,,,,,,,,,,,,,,,,,,,H,132,hexagon,1,0,,,1,,,,,,j,0.5629,6,0,6,0,1,,,,,,,,,,,,,,,,,,,,,,,,,,,,,,,,,,
294859,2022-12-04_22h25.21.379,vts_reward_expectancy_bt,2022.2.4,Win32,61.33464181,Chrome,1536,864,,,,,,,,,,,,,,,,,,,,,,,D,125,star,1,0,,,1,,,,,,j,1.078,7,0,7,0,1,,,,,,,,,,,,,,,,,,,,,,,,,,,,,,,,,,
294859,2022-12-04_22h25.21.379,vts_reward_expectancy_bt,2022.2.4,Win32,61.33464181,Chrome,1536,864,,,,,,,,,,,,,,,,,,,,,,,Y,174,star,1,0,,,1,,,,,,k,0.6771,8,0,8,0,1,,,,,,,,,,,,,,,,,,,,,,,,,,,,,,,,,,
294859,2022-12-04_22h25.21.379,vts_reward_expectancy_bt,2022.2.4,Win32,61.33464181,Chrome,1536,864,,,,,,,,,,,,,,,,,,,,,,,F,146,circle,1,0,,,1,,,,,,j,0.8013,9,0,9,0,1,,,,,,,,,,,,,,,,,,,,,,,,,,,,,,,,,,
294859,2022-12-04_22h25.21.379,vts_reward_expectancy_bt,2022.2.4,Win32,61.33464181,Chrome,1536,864,,,,,0,702,,,,,,,,,,,,,,,,,F,160,circle,1,0,,,2,,,,,,,,,,,,,-1,number,NA,k,1.7191,vtsPrac,0,0,0,0,1,,,,,,,,,,,,,,,,,,,,,,,
294859,2022-12-04_22h25.21.379,vts_reward_expectancy_bt,2022.2.4,Win32,61.33464181,Chrome,1536,864,,,,,0,702,,,,,,,,,,,,,,,,,B,125,triangle,1,0,,,2,,,,,,,,,,,,,repeat,number,numRpt,j,1.6915,vtsPrac,1,0,1,0,1,,,,,,,,,,,,,,,,,,,,,,,
294859,2022-12-04_22h25.21.379,vts_reward_expectancy_bt,2022.2.4,Win32,61.33464181,Chrome,1536,864,,,,,0,702,,,,,,,,,,,,,,,,,U,146,circle,1,0,,,2,,,,,,,,,,,,,repeat,number,numRpt,j,1.0333,vtsPrac,2,0,2,0,1,,,,,,,,,,,,,,,,,,,,,,,
294859,2022-12-04_22h25.21.379,vts_reward_expectancy_bt,2022.2.4,Win32,61.33464181,Chrome,1536,864,,,,,0,702,,,,,,,,,,,,,,,,,W,139,triangle,1,0,,,2,,,,,,,,,,,,,repeat,number,numRpt,j,0.6606,vtsPrac,3,0,3,0,1,,,,,,,,,,,,,,,,,,,,,,,
294859,2022-12-04_22h25.21.379,vts_reward_expectancy_bt,2022.2.4,Win32,61.33464181,Chrome,1536,864,,,,,0,702,,,,,,,,,,,,,,,,,F,160,star,1,0,,,2,,,,,,,,,,,,,repeat,number,numRpt,k,0.9473,vtsPrac,4,0,4,0,1,,,,,,,,,,,,,,,,,,,,,,,
294859,2022-12-04_22h25.21.379,vts_reward_expectancy_bt,2022.2.4,Win32,61.33464181,Chrome,1536,864,,,,,0,702,,,,,,,,,,,,,,,,,B,125,hexagon,1,0,,,2,,,,,,,,,,,,,repeat,number,numRpt,j,0.6928,vtsPrac,5,0,5,0,1,,,,,,,,,,,,,,,,,,,,,,,
294859,2022-12-04_22h25.21.379,vts_reward_expectancy_bt,2022.2.4,Win32,61.33464181,Chrome,1536,864,,,,,0,702,,,,,,,,,,,,,,,,,U,146,circle,1,0,,,2,,,,,,,,,,,,,repeat,number,numRpt,j,0.8441,vtsPrac,6,0,6,0,1,,,,,,,,,,,,,,,,,,,,,,,
294859,2022-12-04_22h25.21.379,vts_reward_expectancy_bt,2022.2.4,Win32,61.33464181,Chrome,1536,864,,,,,0,702,,,,,,,,,,,,,,,,,W,139,hexagon,1,0,,,2,,,,,,,,,,,,,repeat,number,numRpt,j,1.0635,vtsPrac,7,0,7,0,1,,,,,,,,,,,,,,,,,,,,,,,
294859,2022-12-04_22h25.21.379,vts_reward_expectancy_bt,2022.2.4,Win32,61.33464181,Chrome,1536,864,,,,,0,702,,,,,,,,,,,,,,,,,F,160,circle,0,0,,,2,,,,,,,,,,,,,repeat,number,NA,j,0.7111,vtsPrac,8,0,8,0,1,,,,,,,,,,,,,,,,,,,,,,,
294859,2022-12-04_22h25.21.379,vts_reward_expectancy_bt,2022.2.4,Win32,61.33464181,Chrome,1536,864,,,,,0,702,,,,,,,,,,,,,,,,,D,139,hexagon,1,1,,,2,,,,,,,,,,,,,repeat,number,numRpt,j,0.725,vtsPrac,9,0,9,0,1,,,,,,,,,,,,,,,,,,,,,,,
294859,2022-12-04_22h25.21.379,vts_reward_expectancy_bt,2022.2.4,Win32,61.33464181,Chrome,1536,864,,,,,0,702,,,,,,,,,,,,,,,,,W,132,hexagon,1,0,,,2,,,,,,,,,,,,,repeat,number,numRpt,j,0.636,vtsPrac,10,0,10,0,1,,,,,,,,,,,,,,,,,,,,,,,
294859,2022-12-04_22h25.21.379,vts_reward_expectancy_bt,2022.2.4,Win32,61.33464181,Chrome,1536,864,,,,,0,702,,,,,,,,,,,,,,,,,Y,125,triangle,1,0,,,2,,,,,,,,,,,,,repeat,number,numRpt,j,0.6259,vtsPrac,11,0,11,0,1,,,,,,,,,,,,,,,,,,,,,,,
294859,2022-12-04_22h25.21.379,vts_reward_expectancy_bt,2022.2.4,Win32,61.33464181,Chrome,1536,864,,,,,0,702,,,,,,,,,,,,,,,,,U,139,star,1,0,,,2,,,,,,,,,,,,,repeat,number,numRpt,j,0.6948,vtsPrac,12,0,12,0,1,,,,,,,,,,,,,,,,,,,,,,,
294859,2022-12-04_22h25.21.379,vts_reward_expectancy_bt,2022.2.4,Win32,61.33464181,Chrome,1536,864,,,,,0,702,,,,,,,,,,,,,,,,,W,174,hexagon,1,0,,,2,,,,,,,,,,,,,repeat,number,numRpt,k,0.9967,vtsPrac,13,0,13,0,1,,,,,,,,,,,,,,,,,,,,,,,
294859,2022-12-04_22h25.21.379,vts_reward_expectancy_bt,2022.2.4,Win32,61.33464181,Chrome,1536,864,,,,,0,702,,,,,,,,,,,,,,,,,F,181,hexagon,1,0,,,2,,,,,,,,,,,,,repeat,number,numRpt,k,0.4702,vtsPrac,14,0,14,0,1,,,,,,,,,,,,,,,,,,,,,,,
294859,2022-12-04_22h25.21.379,vts_reward_expectancy_bt,2022.2.4,Win32,61.33464181,Chrome,1536,864,,,,,0,702,,,,,,,,,,,,,,,,,S,132,triangle,1,0,,,2,,,,,,,,,,,,,repeat,number,numRpt,j,2.339,vtsPrac,15,0,15,0,1,,,,,,,,,,,,,,,,,,,,,,,
294859,2022-12-04_22h25.21.379,vts_reward_expectancy_bt,2022.2.4,Win32,61.33464181,Chrome,1536,864,,,,,0,702,,,,,,,,,,,,,,,,,W,160,circle,-1,0,,,2,,,,,,,,,,,,,switch,no_choice,NA,,,vtsPrac,16,0,16,0,1,,,,,,,,,,,,,,,,,,,,,,,
294859,2022-12-04_22h25.21.379,vts_reward_expectancy_bt,2022.2.4,Win32,61.33464181,Chrome,1536,864,,,,,0,702,,,,,,,,,,,,,,,,,H,146,triangle,1,0,,,2,,,,,,,,,,,,,switch,number,numSwt,j,0.9066,vtsPrac,17,0,17,0,1,,,,,,,,,,,,,,,,,,,,,,,
294859,2022-12-04_22h25.21.379,vts_reward_expectancy_bt,2022.2.4,Win32,61.33464181,Chrome,1536,864,,,,,0,702,,,,,,,,,,,,,,,,,S,174,circle,1,0,,,2,,,,,,,,,,,,,repeat,number,numRpt,k,1.3948,vtsPrac,18,0,18,0,1,,,,,,,,,,,,,,,,,,,,,,,
294859,2022-12-04_22h25.21.379,vts_reward_expectancy_bt,2022.2.4,Win32,61.33464181,Chrome,1536,864,,,,,0,702,,,,,,,,,,,,,,,,,D,132,triangle,1,0,,,2,,,,,,,,,,,,,repeat,number,numRpt,j,1.0644,vtsPrac,19,0,19,0,1,,,,,,,,,,,,,,,,,,,,,,,
294859,2022-12-04_22h25.21.379,vts_reward_expectancy_bt,2022.2.4,Win32,61.33464181,Chrome,1536,864,,,,,0,702,,,,,,,,,,,,,,,,,F,125,hexagon,1,0,,,2,,,,,,,,,,,,,repeat,number,numRpt,j,0.7128,vtsPrac,20,0,20,0,1,,,,,,,,,,,,,,,,,,,,,,,
294859,2022-12-04_22h25.21.379,vts_reward_expectancy_bt,2022.2.4,Win32,61.33464181,Chrome,1536,864,,,,,0,702,,,,,,,,,,,,,,,,,H,181,star,1,0,,,2,,,,,,,,,,,,,repeat,number,numRpt,k,1.5617,vtsPrac,21,0,21,0,1,,,,,,,,,,,,,,,,,,,,,,,
294859,2022-12-04_22h25.21.379,vts_reward_expectancy_bt,2022.2.4,Win32,61.33464181,Chrome,1536,864,,,,,0,702,,,,,,,,,,,,,,,,,Y,146,circle,1,0,,,2,,,,,,,,,,,,,repeat,number,numRpt,j,1.5633,vtsPrac,22,0,22,0,1,,,,,,,,,,,,,,,,,,,,,,,
294859,2022-12-04_22h25.21.379,vts_reward_expectancy_bt,2022.2.4,Win32,61.33464181,Chrome,1536,864,,,,,0,702,,,,,,,,,,,,,,,,,D,160,hexagon,1,0,,,2,,,,,,,,,,,,,repeat,number,numRpt,k,0.9323,vtsPrac,23,0,23,0,1,,,,,,,,,,,,,,,,,,,,,,,
294859,2022-12-04_22h25.21.379,vts_reward_expectancy_bt,2022.2.4,Win32,61.33464181,Chrome,1536,864,,,,,0,702,,,,,,,,,,,,,,,,,U,139,circle,1,0,,,2,,,,,,,,,,,,,repeat,number,numRpt,j,0.7131,vtsPrac,24,0,24,0,1,,,,,,,,,,,,,,,,,,,,,,,
294859,2022-12-04_22h25.21.379,vts_reward_expectancy_bt,2022.2.4,Win32,61.33464181,Chrome,1536,864,,,,,0,702,,,,,,,,,,,,,,,,,Y,167,hexagon,1,0,,,2,,,,,,,,,,,,,repeat,number,numRpt,k,1.21,vtsPrac,25,0,25,0,1,,,,,,,,,,,,,,,,,,,,,,,
294859,2022-12-04_22h25.21.379,vts_reward_expectancy_bt,2022.2.4,Win32,61.33464181,Chrome,1536,864,,,,,0,702,,,,,,,,,,,,,,,,,D,174,star,1,0,,,2,,,,,,,,,,,,,repeat,number,numRpt,k,1.2628,vtsPrac,26,0,26,0,1,,,,,,,,,,,,,,,,,,,,,,,
294859,2022-12-04_22h25.21.379,vts_reward_expectancy_bt,2022.2.4,Win32,61.33464181,Chrome,1536,864,,,,,0,702,,,,,,,,,,,,,,,,,W,132,triangle,1,0,,,2,,,,,,,,,,,,,repeat,number,numRpt,j,1.5766,vtsPrac,27,0,27,0,1,,,,,,,,,,,,,,,,,,,,,,,
294859,2022-12-04_22h25.21.379,vts_reward_expectancy_bt,2022.2.4,Win32,61.33464181,Chrome,1536,864,,,,,0,702,,,,,,,,,,,,,,,,,U,146,circle,1,0,,,2,,,,,,,,,,,,,repeat,number,numRpt,j,1.6148,vtsPrac,28,0,28,0,1,,,,,,,,,,,,,,,,,,,,,,,
294859,2022-12-04_22h25.21.379,vts_reward_expectancy_bt,2022.2.4,Win32,61.33464181,Chrome,1536,864,,,,,0,702,,,,,,,,,,,,,,,,,B,167,triangle,1,0,,,2,,,,,,,,,,,,,repeat,number,numRpt,k,1.758,vtsPrac,29,0,29,0,1,,,,,,,,,,,,,,,,,,,,,,,
294859,2022-12-04_22h25.21.379,vts_reward_expectancy_bt,2022.2.4,Win32,61.33464181,Chrome,1536,864,,,,,0,702,,,,,,,,,,,,,,,,,S,174,triangle,1,0,,,2,,,,,,,,,,,,,repeat,number,numRpt,k,0.9961,vtsPrac,30,0,30,0,1,,,,,,,,,,,,,,,,,,,,,,,
294859,2022-12-04_22h25.21.379,vts_reward_expectancy_bt,2022.2.4,Win32,61.33464181,Chrome,1536,864,,,,,0,702,,,,,,,,,,,,,,,,,H,181,circle,1,0,,,2,,,,,,,,,,,,,repeat,number,numRpt,k,2.3104,vtsPrac,31,0,31,0,1,,,,,,,,,,,,,,,,,,,,,,,
294859,2022-12-04_22h25.21.379,vts_reward_expectancy_bt,2022.2.4,Win32,61.33464181,Chrome,1536,864,,,,,0,702,,,,,,,,,,,,,,,,,W,167,star,1,0,,,3,,,,,,,,,,,,,repeat,number,numRpt,k,0.697,vtsPrac,0,0,0,0,1,,,,,,,,,,,,,,,,,,,,,,,
294859,2022-12-04_22h25.21.379,vts_reward_expectancy_bt,2022.2.4,Win32,61.33464181,Chrome,1536,864,,,,,0,702,,,,,,,,,,,,,,,,,Y,146,hexagon,1,0,,,3,,,,,,,,,,,,,repeat,number,numRpt,j,0.6451,vtsPrac,1,0,1,0,1,,,,,,,,,,,,,,,,,,,,,,,
294859,2022-12-04_22h25.21.379,vts_reward_expectancy_bt,2022.2.4,Win32,61.33464181,Chrome,1536,864,,,,,0,702,,,,,,,,,,,,,,,,,S,181,star,1,0,,,3,,,,,,,,,,,,,repeat,number,numRpt,k,0.5198,vtsPrac,2,0,2,0,1,,,,,,,,,,,,,,,,,,,,,,,
294859,2022-12-04_22h25.21.379,vts_reward_expectancy_bt,2022.2.4,Win32,61.33464181,Chrome,1536,864,,,,,0,702,,,,,,,,,,,,,,,,,H,160,hexagon,1,0,,,3,,,,,,,,,,,,,repeat,number,numRpt,k,0.7299,vtsPrac,3,0,3,0,1,,,,,,,,,,,,,,,,,,,,,,,
294859,2022-12-04_22h25.21.379,vts_reward_expectancy_bt,2022.2.4,Win32,61.33464181,Chrome,1536,864,,,,,0,702,,,,,,,,,,,,,,,,,W,167,star,1,0,,,3,,,,,,,,,,,,,repeat,number,numRpt,k,1.0117,vtsPrac,4,0,4,0,1,,,,,,,,,,,,,,,,,,,,,,,
294859,2022-12-04_22h25.21.379,vts_reward_expectancy_bt,2022.2.4,Win32,61.33464181,Chrome,1536,864,,,,,0,702,,,,,,,,,,,,,,,,,Y,146,triangle,0,0,,,3,,,,,,,,,,,,,repeat,number,NA,k,0.6652,vtsPrac,5,0,5,0,1,,,,,,,,,,,,,,,,,,,,,,,
294859,2022-12-04_22h25.21.379,vts_reward_expectancy_bt,2022.2.4,Win32,61.33464181,Chrome,1536,864,,,,,0,702,,,,,,,,,,,,,,,,,S,181,triangle,1,1,,,3,,,,,,,,,,,,,repeat,number,numRpt,k,0.8603,vtsPrac,6,0,6,0,1,,,,,,,,,,,,,,,,,,,,,,,
294859,2022-12-04_22h25.21.379,vts_reward_expectancy_bt,2022.2.4,Win32,61.33464181,Chrome,1536,864,,,,,0,702,,,,,,,,,,,,,,,,,H,160,circle,1,0,,,3,,,,,,,,,,,,,repeat,number,numRpt,k,0.6943,vtsPrac,7,0,7,0,1,,,,,,,,,,,,,,,,,,,,,,,
294859,2022-12-04_22h25.21.379,vts_reward_expectancy_bt,2022.2.4,Win32,61.33464181,Chrome,1536,864,,,,,0,702,,,,,,,,,,,,,,,,,U,181,star,1,0,,,3,,,,,,,,,,,,,repeat,number,numRpt,k,0.6293,vtsPrac,8,0,8,0,1,,,,,,,,,,,,,,,,,,,,,,,
294859,2022-12-04_22h25.21.379,vts_reward_expectancy_bt,2022.2.4,Win32,61.33464181,Chrome,1536,864,,,,,0,702,,,,,,,,,,,,,,,,,H,174,triangle,1,0,,,3,,,,,,,,,,,,,repeat,number,numRpt,k,0.7808,vtsPrac,9,0,9,0,1,,,,,,,,,,,,,,,,,,,,,,,
294859,2022-12-04_22h25.21.379,vts_reward_expectancy_bt,2022.2.4,Win32,61.33464181,Chrome,1536,864,,,,,0,702,,,,,,,,,,,,,,,,,S,125,triangle,1,0,,,3,,,,,,,,,,,,,repeat,number,numRpt,j,0.8104,vtsPrac,10,0,10,0,1,,,,,,,,,,,,,,,,,,,,,,,
294859,2022-12-04_22h25.21.379,vts_reward_expectancy_bt,2022.2.4,Win32,61.33464181,Chrome,1536,864,,,,,0,702,,,,,,,,,,,,,,,,,B,132,hexagon,1,0,,,3,,,,,,,,,,,,,repeat,number,numRpt,j,0.9847,vtsPrac,11,0,11,0,1,,,,,,,,,,,,,,,,,,,,,,,
294859,2022-12-04_22h25.21.379,vts_reward_expectancy_bt,2022.2.4,Win32,61.33464181,Chrome,1536,864,,,,,0,702,,,,,,,,,,,,,,,,,H,181,hexagon,1,0,,,3,,,,,,,,,,,,,repeat,number,numRpt,k,2.8717,vtsPrac,12,0,12,0,1,,,,,,,,,,,,,,,,,,,,,,,
294859,2022-12-04_22h25.21.379,vts_reward_expectancy_bt,2022.2.4,Win32,61.33464181,Chrome,1536,864,,,,,0,702,,,,,,,,,,,,,,,,,W,167,triangle,1,0,,,3,,,,,,,,,,,,,repeat,number,numRpt,k,0.8604,vtsPrac,13,0,13,0,1,,,,,,,,,,,,,,,,,,,,,,,
294859,2022-12-04_22h25.21.379,vts_reward_expectancy_bt,2022.2.4,Win32,61.33464181,Chrome,1536,864,,,,,0,702,,,,,,,,,,,,,,,,,Y,174,circle,1,0,,,3,,,,,,,,,,,,,repeat,number,numRpt,k,0.8147,vtsPrac,14,0,14,0,1,,,,,,,,,,,,,,,,,,,,,,,
294859,2022-12-04_22h25.21.379,vts_reward_expectancy_bt,2022.2.4,Win32,61.33464181,Chrome,1536,864,,,,,0,702,,,,,,,,,,,,,,,,,S,160,triangle,1,0,,,3,,,,,,,,,,,,,repeat,number,numRpt,k,0.8931,vtsPrac,15,0,15,0,1,,,,,,,,,,,,,,,,,,,,,,,
294859,2022-12-04_22h25.21.379,vts_reward_expectancy_bt,2022.2.4,Win32,61.33464181,Chrome,1536,864,,,,,0,702,,,,,,,,,,,,,,,,,B,181,circle,0,0,,,3,,,,,,,,,,,,,repeat,number,NA,j,0.3872,vtsPrac,16,0,16,0,1,,,,,,,,,,,,,,,,,,,,,,,
294859,2022-12-04_22h25.21.379,vts_reward_expectancy_bt,2022.2.4,Win32,61.33464181,Chrome,1536,864,,,,,0,702,,,,,,,,,,,,,,,,,S,132,triangle,-1,1,,,3,,,,,,,,,,,,,switch,no_choice,NA,,,vtsPrac,17,0,17,0,1,,,,,,,,,,,,,,,,,,,,,,,
294859,2022-12-04_22h25.21.379,vts_reward_expectancy_bt,2022.2.4,Win32,61.33464181,Chrome,1536,864,,,,,0,702,,,,,,,,,,,,,,,,,Y,160,circle,0,0,,,3,,,,,,,,,,,,,switch,number,NA,j,1.3669,vtsPrac,18,0,18,0,1,,,,,,,,,,,,,,,,,,,,,,,
294859,2022-12-04_22h25.21.379,vts_reward_expectancy_bt,2022.2.4,Win32,61.33464181,Chrome,1536,864,,,,,0,702,,,,,,,,,,,,,,,,,D,174,star,1,1,,,3,,,,,,,,,,,,,repeat,number,numRpt,k,1.1777,vtsPrac,19,0,19,0,1,,,,,,,,,,,,,,,,,,,,,,,
294859,2022-12-04_22h25.21.379,vts_reward_expectancy_bt,2022.2.4,Win32,61.33464181,Chrome,1536,864,,,,,0,702,,,,,,,,,,,,,,,,,Y,132,star,1,0,,,3,,,,,,,,,,,,,repeat,number,numRpt,j,1.0646,vtsPrac,20,0,20,0,1,,,,,,,,,,,,,,,,,,,,,,,
294859,2022-12-04_22h25.21.379,vts_reward_expectancy_bt,2022.2.4,Win32,61.33464181,Chrome,1536,864,,,,,0,702,,,,,,,,,,,,,,,,,F,181,circle,1,0,,,3,,,,,,,,,,,,,repeat,number,numRpt,k,1.4312,vtsPrac,21,0,21,0,1,,,,,,,,,,,,,,,,,,,,,,,
294859,2022-12-04_22h25.21.379,vts_reward_expectancy_bt,2022.2.4,Win32,61.33464181,Chrome,1536,864,,,,,0,702,,,,,,,,,,,,,,,,,U,160,star,1,0,,,3,,,,,,,,,,,,,repeat,number,numRpt,k,1.0117,vtsPrac,22,0,22,0,1,,,,,,,,,,,,,,,,,,,,,,,
294859,2022-12-04_22h25.21.379,vts_reward_expectancy_bt,2022.2.4,Win32,61.33464181,Chrome,1536,864,,,,,0,702,,,,,,,,,,,,,,,,,B,174,hexagon,1,0,,,3,,,,,,,,,,,,,repeat,number,numRpt,k,0.6316,vtsPrac,23,0,23,0,1,,,,,,,,,,,,,,,,,,,,,,,
294859,2022-12-04_22h25.21.379,vts_reward_expectancy_bt,2022.2.4,Win32,61.33464181,Chrome,1536,864,,,,,0,702,,,,,,,,,,,,,,,,,B,181,hexagon,1,0,,,3,,,,,,,,,,,,,repeat,number,numRpt,k,0.9857,vtsPrac,24,0,24,0,1,,,,,,,,,,,,,,,,,,,,,,,
294859,2022-12-04_22h25.21.379,vts_reward_expectancy_bt,2022.2.4,Win32,61.33464181,Chrome,1536,864,,,,,0,702,,,,,,,,,,,,,,,,,H,139,star,1,0,,,3,,,,,,,,,,,,,repeat,number,numRpt,j,0.983,vtsPrac,25,0,25,0,1,,,,,,,,,,,,,,,,,,,,,,,
294859,2022-12-04_22h25.21.379,vts_reward_expectancy_bt,2022.2.4,Win32,61.33464181,Chrome,1536,864,,,,,0,702,,,,,,,,,,,,,,,,,S,160,triangle,1,0,,,3,,,,,,,,,,,,,repeat,number,numRpt,k,0.9141,vtsPrac,26,0,26,0,1,,,,,,,,,,,,,,,,,,,,,,,
294859,2022-12-04_22h25.21.379,vts_reward_expectancy_bt,2022.2.4,Win32,61.33464181,Chrome,1536,864,,,,,0,702,,,,,,,,,,,,,,,,,W,146,star,1,0,,,3,,,,,,,,,,,,,repeat,number,numRpt,j,1.0271,vtsPrac,27,0,27,0,1,,,,,,,,,,,,,,,,,,,,,,,
294859,2022-12-04_22h25.21.379,vts_reward_expectancy_bt,2022.2.4,Win32,61.33464181,Chrome,1536,864,,,,,0,702,,,,,,,,,,,,,,,,,Y,167,triangle,1,0,,,3,,,,,,,,,,,,,repeat,number,numRpt,k,2.5272,vtsPrac,28,0,28,0,1,,,,,,,,,,,,,,,,,,,,,,,
294859,2022-12-04_22h25.21.379,vts_reward_expectancy_bt,2022.2.4,Win32,61.33464181,Chrome,1536,864,,,,,0,702,,,,,,,,,,,,,,,,,U,174,hexagon,1,0,,,3,,,,,,,,,,,,,repeat,number,numRpt,k,1.0286,vtsPrac,29,0,29,0,1,,,,,,,,,,,,,,,,,,,,,,,
294859,2022-12-04_22h25.21.379,vts_reward_expectancy_bt,2022.2.4,Win32,61.33464181,Chrome,1536,864,,,,,0,702,,,,,,,,,,,,,,,,,H,132,circle,1,0,,,3,,,,,,,,,,,,,repeat,number,numRpt,j,1.6492,vtsPrac,30,0,30,0,1,,,,,,,,,,,,,,,,,,,,,,,
294859,2022-12-04_22h25.21.379,vts_reward_expectancy_bt,2022.2.4,Win32,61.33464181,Chrome,1536,864,,,,,0,702,,,,,,,,,,,,,,,,,B,139,star,-1,0,,,3,,,,,,,,,,,,,switch,no_choice,NA,,,vtsPrac,31,0,31,0,1,,,,,,,,,,,,,,,,,,,,,,,
294859,2022-12-04_22h25.21.379,vts_reward_expectancy_bt,2022.2.4,Win32,61.33464181,Chrome,1536,864,,,,,0,702,,,,,,,,,,,,,,,,,H,146,hexagon,-1,0,,,4,,,,,,,,,,,,,repeat,no_choice,NA,,,vtsPrac,0,0,0,0,1,,,,,,,,,,,,,,,,,,,,,,,
294859,2022-12-04_22h25.21.379,vts_reward_expectancy_bt,2022.2.4,Win32,61.33464181,Chrome,1536,864,,,,,0,702,,,,,,,,,,,,,,,,,U,174,circle,1,0,,,4,,,,,,,,,,,,,switch,number,numSwt,k,1.3291,vtsPrac,1,0,1,0,1,,,,,,,,,,,,,,,,,,,,,,,
294859,2022-12-04_22h25.21.379,vts_reward_expectancy_bt,2022.2.4,Win32,61.33464181,Chrome,1536,864,,,,,0,702,,,,,,,,,,,,,,,,,B,160,hexagon,1,0,,,4,,,,,,,,,,,,,repeat,number,numRpt,k,0.7928,vtsPrac,2,0,2,0,1,,,,,,,,,,,,,,,,,,,,,,,
294859,2022-12-04_22h25.21.379,vts_reward_expectancy_bt,2022.2.4,Win32,61.33464181,Chrome,1536,864,,,,,0,702,,,,,,,,,,,,,,,,,Y,167,circle,1,0,,,4,,,,,,,,,,,,,repeat,number,numRpt,k,0.8776,vtsPrac,3,0,3,0,1,,,,,,,,,,,,,,,,,,,,,,,
294859,2022-12-04_22h25.21.379,vts_reward_expectancy_bt,2022.2.4,Win32,61.33464181,Chrome,1536,864,,,,,0,702,,,,,,,,,,,,,,,,,H,146,star,1,0,,,4,,,,,,,,,,,,,repeat,number,numRpt,j,2.5618,vtsPrac,4,0,4,0,1,,,,,,,,,,,,,,,,,,,,,,,
294859,2022-12-04_22h25.21.379,vts_reward_expectancy_bt,2022.2.4,Win32,61.33464181,Chrome,1536,864,,,,,0,702,,,,,,,,,,,,,,,,,U,174,circle,1,0,,,4,,,,,,,,,,,,,repeat,number,numRpt,k,0.7437,vtsPrac,5,0,5,0,1,,,,,,,,,,,,,,,,,,,,,,,
294859,2022-12-04_22h25.21.379,vts_reward_expectancy_bt,2022.2.4,Win32,61.33464181,Chrome,1536,864,,,,,0,702,,,,,,,,,,,,,,,,,B,160,hexagon,-1,0,,,4,,,,,,,,,,,,,switch,no_choice,NA,,,vtsPrac,6,0,6,0,1,,,,,,,,,,,,,,,,,,,,,,,
294859,2022-12-04_22h25.21.379,vts_reward_expectancy_bt,2022.2.4,Win32,61.33464181,Chrome,1536,864,,,,,0,702,,,,,,,,,,,,,,,,,Y,167,circle,1,0,,,4,,,,,,,,,,,,,switch,number,numSwt,k,0.632,vtsPrac,7,0,7,0,1,,,,,,,,,,,,,,,,,,,,,,,
294859,2022-12-04_22h25.21.379,vts_reward_expectancy_bt,2022.2.4,Win32,61.33464181,Chrome,1536,864,,,,,0,702,,,,,,,,,,,,,,,,,B,181,hexagon,1,0,,,4,,,,,,,,,,,,,repeat,number,numRpt,k,0.8125,vtsPrac,8,0,8,0,1,,,,,,,,,,,,,,,,,,,,,,,
294859,2022-12-04_22h25.21.379,vts_reward_expectancy_bt,2022.2.4,Win32,61.33464181,Chrome,1536,864,,,,,0,702,,,,,,,,,,,,,,,,,H,146,star,1,0,,,4,,,,,,,,,,,,,repeat,number,numRpt,j,0.915,vtsPrac,9,0,9,0,1,,,,,,,,,,,,,,,,,,,,,,,
294859,2022-12-04_22h25.21.379,vts_reward_expectancy_bt,2022.2.4,Win32,61.33464181,Chrome,1536,864,,,,,0,702,,,,,,,,,,,,,,,,,F,132,hexagon,1,0,,,4,,,,,,,,,,,,,repeat,number,numRpt,j,1.2173,vtsPrac,10,0,10,0,1,,,,,,,,,,,,,,,,,,,,,,,
294859,2022-12-04_22h25.21.379,vts_reward_expectancy_bt,2022.2.4,Win32,61.33464181,Chrome,1536,864,,,,,0,702,,,,,,,,,,,,,,,,,Y,160,circle,1,0,,,4,,,,,,,,,,,,,repeat,number,numRpt,k,0.8269,vtsPrac,11,0,11,0,1,,,,,,,,,,,,,,,,,,,,,,,
294859,2022-12-04_22h25.21.379,vts_reward_expectancy_bt,2022.2.4,Win32,61.33464181,Chrome,1536,864,,,,,0,702,,,,,,,,,,,,,,,,,D,174,hexagon,1,0,,,4,,,,,,,,,,,,,repeat,number,numRpt,k,0.7803,vtsPrac,12,0,12,0,1,,,,,,,,,,,,,,,,,,,,,,,
294859,2022-12-04_22h25.21.379,vts_reward_expectancy_bt,2022.2.4,Win32,61.33464181,Chrome,1536,864,,,,,0,702,,,,,,,,,,,,,,,,,S,167,star,1,0,,,4,,,,,,,,,,,,,repeat,number,numRpt,k,0.8848,vtsPrac,13,0,13,0,1,,,,,,,,,,,,,,,,,,,,,,,
294859,2022-12-04_22h25.21.379,vts_reward_expectancy_bt,2022.2.4,Win32,61.33464181,Chrome,1536,864,,,,,0,702,,,,,,,,,,,,,,,,,F,160,circle,1,0,,,4,,,,,,,,,,,,,repeat,number,numRpt,k,0.6792,vtsPrac,14,0,14,0,1,,,,,,,,,,,,,,,,,,,,,,,
294859,2022-12-04_22h25.21.379,vts_reward_expectancy_bt,2022.2.4,Win32,61.33464181,Chrome,1536,864,,,,,0,702,,,,,,,,,,,,,,,,,B,146,triangle,1,0,,,4,,,,,,,,,,,,,repeat,number,numRpt,j,1.2438,vtsPrac,15,0,15,0,1,,,,,,,,,,,,,,,,,,,,,,,
294859,2022-12-04_22h25.21.379,vts_reward_expectancy_bt,2022.2.4,Win32,61.33464181,Chrome,1536,864,,,,,0,702,,,,,,,,,,,,,,,,,B,174,circle,1,0,,,4,,,,,,,,,,,,,repeat,number,numRpt,k,0.798,vtsPrac,16,0,16,0,1,,,,,,,,,,,,,,,,,,,,,,,
294859,2022-12-04_22h25.21.379,vts_reward_expectancy_bt,2022.2.4,Win32,61.33464181,Chrome,1536,864,,,,,0,702,,,,,,,,,,,,,,,,,U,181,hexagon,1,0,,,4,,,,,,,,,,,,,repeat,number,numRpt,k,0.7783,vtsPrac,17,0,17,0,1,,,,,,,,,,,,,,,,,,,,,,,
294859,2022-12-04_22h25.21.379,vts_reward_expectancy_bt,2022.2.4,Win32,61.33464181,Chrome,1536,864,,,,,0,702,,,,,,,,,,,,,,,,,D,125,hexagon,1,0,,,4,,,,,,,,,,,,,repeat,number,numRpt,j,0.8274,vtsPrac,18,0,18,0,1,,,,,,,,,,,,,,,,,,,,,,,
294859,2022-12-04_22h25.21.379,vts_reward_expectancy_bt,2022.2.4,Win32,61.33464181,Chrome,1536,864,,,,,0,702,,,,,,,,,,,,,,,,,H,132,circle,1,0,,,4,,,,,,,,,,,,,repeat,number,numRpt,j,0.85,vtsPrac,19,0,19,0,1,,,,,,,,,,,,,,,,,,,,,,,
294859,2022-12-04_22h25.21.379,vts_reward_expectancy_bt,2022.2.4,Win32,61.33464181,Chrome,1536,864,,,,,0,702,,,,,,,,,,,,,,,,,H,146,hexagon,1,0,,,4,,,,,,,,,,,,,repeat,number,numRpt,j,1.0545,vtsPrac,20,0,20,0,1,,,,,,,,,,,,,,,,,,,,,,,
294859,2022-12-04_22h25.21.379,vts_reward_expectancy_bt,2022.2.4,Win32,61.33464181,Chrome,1536,864,,,,,0,702,,,,,,,,,,,,,,,,,W,125,triangle,1,0,,,4,,,,,,,,,,,,,repeat,number,numRpt,j,1.2907,vtsPrac,21,0,21,0,1,,,,,,,,,,,,,,,,,,,,,,,
294859,2022-12-04_22h25.21.379,vts_reward_expectancy_bt,2022.2.4,Win32,61.33464181,Chrome,1536,864,,,,,0,702,,,,,,,,,,,,,,,,,B,174,circle,1,0,,,4,,,,,,,,,,,,,repeat,number,numRpt,k,0.8425,vtsPrac,22,0,22,0,1,,,,,,,,,,,,,,,,,,,,,,,
294859,2022-12-04_22h25.21.379,vts_reward_expectancy_bt,2022.2.4,Win32,61.33464181,Chrome,1536,864,,,,,0,702,,,,,,,,,,,,,,,,,S,181,star,1,0,,,4,,,,,,,,,,,,,repeat,number,numRpt,k,1.2633,vtsPrac,23,0,23,0,1,,,,,,,,,,,,,,,,,,,,,,,
294859,2022-12-04_22h25.21.379,vts_reward_expectancy_bt,2022.2.4,Win32,61.33464181,Chrome,1536,864,,,,,0,702,,,,,,,,,,,,,,,,,H,167,star,1,0,,,4,,,,,,,,,,,,,repeat,number,numRpt,k,1.3269,vtsPrac,24,0,24,0,1,,,,,,,,,,,,,,,,,,,,,,,
294859,2022-12-04_22h25.21.379,vts_reward_expectancy_bt,2022.2.4,Win32,61.33464181,Chrome,1536,864,,,,,0,702,,,,,,,,,,,,,,,,,F,125,circle,1,0,,,4,,,,,,,,,,,,,repeat,number,numRpt,j,1.3777,vtsPrac,25,0,25,0,1,,,,,,,,,,,,,,,,,,,,,,,
294859,2022-12-04_22h25.21.379,vts_reward_expectancy_bt,2022.2.4,Win32,61.33464181,Chrome,1536,864,,,,,0,702,,,,,,,,,,,,,,,,,B,160,circle,1,0,,,4,,,,,,,,,,,,,repeat,number,numRpt,k,0.9443,vtsPrac,26,0,26,0,1,,,,,,,,,,,,,,,,,,,,,,,
294859,2022-12-04_22h25.21.379,vts_reward_expectancy_bt,2022.2.4,Win32,61.33464181,Chrome,1536,864,,,,,0,702,,,,,,,,,,,,,,,,,S,132,star,1,0,,,4,,,,,,,,,,,,,repeat,number,numRpt,j,1.4824,vtsPrac,27,0,27,0,1,,,,,,,,,,,,,,,,,,,,,,,
294859,2022-12-04_22h25.21.379,vts_reward_expectancy_bt,2022.2.4,Win32,61.33464181,Chrome,1536,864,,,,,0,702,,,,,,,,,,,,,,,,,Y,174,hexagon,1,0,,,4,,,,,,,,,,,,,repeat,number,numRpt,k,0.6969,vtsPrac,28,0,28,0,1,,,,,,,,,,,,,,,,,,,,,,,
294859,2022-12-04_22h25.21.379,vts_reward_expectancy_bt,2022.2.4,Win32,61.33464181,Chrome,1536,864,,,,,0,702,,,,,,,,,,,,,,,,,U,132,circle,1,0,,,4,,,,,,,,,,,,,repeat,number,numRpt,j,0.7617,vtsPrac,29,0,29,0,1,,,,,,,,,,,,,,,,,,,,,,,
294859,2022-12-04_22h25.21.379,vts_reward_expectancy_bt,2022.2.4,Win32,61.33464181,Chrome,1536,864,,,,,0,702,,,,,,,,,,,,,,,,,B,167,hexagon,1,0,,,4,,,,,,,,,,,,,repeat,number,numRpt,k,0.8446,vtsPrac,30,0,30,0,1,,,,,,,,,,,,,,,,,,,,,,,
294859,2022-12-04_22h25.21.379,vts_reward_expectancy_bt,2022.2.4,Win32,61.33464181,Chrome,1536,864,,,,,0,702,,,,,,,,,,,,,,,,,F,146,star,1,0,,,4,,,,,,,,,,,,,repeat,number,numRpt,j,0.8112,vtsPrac,31,0,31,0,1,,,,,,,,,,,,,,,,,,,,,,,
294859,2022-12-04_22h25.21.379,vts_reward_expectancy_bt,2022.2.4,Win32,61.33464181,Chrome,1536,864,,,,,,,,,,,,,,,,,,,,,,,,,,,,,,,,,,,,,,,,,,,,,,,,,,,,,,,,,,,,,,,,,,,,,,,,,,,,
294859,2022-12-04_22h25.21.379,vts_reward_expectancy_bt,2022.2.4,Win32,61.33464181,Chrome,1536,864,,,,,,,,,,,,,,,,,,,,,,,,,,,,,,,,,,,,,,,,,,,,,,,,,,,,,,,,,,,,,,,,,,,,,,,,,,,,
294859,2022-12-04_22h25.21.379,vts_reward_expectancy_bt,2022.2.4,Win32,61.33464181,Chrome,1536,864,,,,,0,702,,,,,,,,,,,,,,,,,D,160,triangle,1,0,,,,,,,,,,,,,,,,repeat,number,numRpt,k,1.6462,noRew,,,,,,0,0,0,0,0,1,,,,,,,,,,,,,,,,,
294859,2022-12-04_22h25.21.379,vts_reward_expectancy_bt,2022.2.4,Win32,61.33464181,Chrome,1536,864,,,,,0,702,,,,,,,,,,,,,,,,,S,181,circle,0,0,,,,,,,,,,,,,,,,repeat,number,NA,j,2.0262,noRew,,,,,,0,1,0,1,0,1,,,,,,,,,,,,,,,,,
294859,2022-12-04_22h25.21.379,vts_reward_expectancy_bt,2022.2.4,Win32,61.33464181,Chrome,1536,864,,,,,0,702,,,,,,,,,,,,,,,,,Y,132,triangle,0,1,,,,,,,,,,,,,,,,repeat,number,NA,k,0.4797,noRew,,,,,,0,2,0,2,0,1,,,,,,,,,,,,,,,,,
294859,2022-12-04_22h25.21.379,vts_reward_expectancy_bt,2022.2.4,Win32,61.33464181,Chrome,1536,864,,,,,0,702,,,,,,,,,,,,,,,,,W,146,circle,1,1,,,,,,,,,,,,,,,,repeat,number,numRpt,j,1.5491,noRew,,,,,,0,3,0,3,0,1,,,,,,,,,,,,,,,,,
294859,2022-12-04_22h25.21.379,vts_reward_expectancy_bt,2022.2.4,Win32,61.33464181,Chrome,1536,864,,,,,0,702,,,,,,,,,,,,,,,,,D,160,circle,1,0,,,,,,,,,,,,,,,,repeat,number,numRpt,k,1.244,noRew,,,,,,0,4,0,4,0,1,,,,,,,,,,,,,,,,,
294859,2022-12-04_22h25.21.379,vts_reward_expectancy_bt,2022.2.4,Win32,61.33464181,Chrome,1536,864,,,,,0,702,,,,,,,,,,,,,,,,,S,181,star,1,0,,,,,,,,,,,,,,,,repeat,number,numRpt,k,1.5582,noRew,,,,,,0,5,0,5,0,1,,,,,,,,,,,,,,,,,
294859,2022-12-04_22h25.21.379,vts_reward_expectancy_bt,2022.2.4,Win32,61.33464181,Chrome,1536,864,,,,,0,702,,,,,,,,,,,,,,,,,Y,132,circle,1,0,,,,,,,,,,,,,,,,repeat,number,numRpt,j,1.1298,noRew,,,,,,0,6,0,6,0,1,,,,,,,,,,,,,,,,,
294859,2022-12-04_22h25.21.379,vts_reward_expectancy_bt,2022.2.4,Win32,61.33464181,Chrome,1536,864,,,,,0,702,,,,,,,,,,,,,,,,,W,146,triangle,1,0,,,,,,,,,,,,,,,,repeat,number,numRpt,j,1.1441,noRew,,,,,,0,7,0,7,0,1,,,,,,,,,,,,,,,,,
294859,2022-12-04_22h25.21.379,vts_reward_expectancy_bt,2022.2.4,Win32,61.33464181,Chrome,1536,864,,,,,0,702,,,,,,,,,,,,,,,,,W,125,circle,1,0,,,,,,,,,,,,,,,,repeat,number,numRpt,j,1.0788,noRew,,,,,,0,8,0,8,0,1,,,,,,,,,,,,,,,,,
294859,2022-12-04_22h25.21.379,vts_reward_expectancy_bt,2022.2.4,Win32,61.33464181,Chrome,1536,864,,,,,0,702,,,,,,,,,,,,,,,,,F,146,hexagon,1,0,,,,,,,,,,,,,,,,repeat,number,numRpt,j,1.1349,noRew,,,,,,0,9,0,9,0,1,,,,,,,,,,,,,,,,,
294859,2022-12-04_22h25.21.379,vts_reward_expectancy_bt,2022.2.4,Win32,61.33464181,Chrome,1536,864,,,,,0,702,,,,,,,,,,,,,,,,,H,181,triangle,1,0,,,,,,,,,,,,,,,,repeat,number,numRpt,k,0.946,noRew,,,,,,0,10,0,10,0,1,,,,,,,,,,,,,,,,,
294859,2022-12-04_22h25.21.379,vts_reward_expectancy_bt,2022.2.4,Win32,61.33464181,Chrome,1536,864,,,,,0,702,,,,,,,,,,,,,,,,,Y,132,circle,1,0,,,,,,,,,,,,,,,,repeat,number,numRpt,j,1.2153,noRew,,,,,,0,11,0,11,0,1,,,,,,,,,,,,,,,,,
294859,2022-12-04_22h25.21.379,vts_reward_expectancy_bt,2022.2.4,Win32,61.33464181,Chrome,1536,864,,,,,0,702,,,,,,,,,,,,,,,,,U,139,triangle,1,0,,,,,,,,,,,,,,,,repeat,number,numRpt,j,0.8608,noRew,,,,,,0,12,0,12,0,1,,,,,,,,,,,,,,,,,
294859,2022-12-04_22h25.21.379,vts_reward_expectancy_bt,2022.2.4,Win32,61.33464181,Chrome,1536,864,,,,,0,702,,,,,,,,,,,,,,,,,Y,146,star,1,0,,,,,,,,,,,,,,,,repeat,number,numRpt,j,1.214,noRew,,,,,,0,13,0,13,0,1,,,,,,,,,,,,,,,,,
294859,2022-12-04_22h25.21.379,vts_reward_expectancy_bt,2022.2.4,Win32,61.33464181,Chrome,1536,864,,,,,0,702,,,,,,,,,,,,,,,,,W,132,hexagon,1,0,,,,,,,,,,,,,,,,repeat,number,numRpt,j,0.7687,noRew,,,,,,0,14,0,14,0,1,,,,,,,,,,,,,,,,,
294859,2022-12-04_22h25.21.379,vts_reward_expectancy_bt,2022.2.4,Win32,61.33464181,Chrome,1536,864,,,,,0,702,,,,,,,,,,,,,,,,,F,167,circle,1,0,,,,,,,,,,,,,,,,repeat,number,numRpt,k,0.8769,noRew,,,,,,0,15,0,15,0,1,,,,,,,,,,,,,,,,,
294859,2022-12-04_22h25.21.379,vts_reward_expectancy_bt,2022.2.4,Win32,61.33464181,Chrome,1536,864,,,,,0,702,,,,,,,,,,,,,,,,,D,174,circle,1,0,,,,,,,,,,,,,,,,repeat,number,numRpt,k,1.2762,noRew,,,,,,0,16,0,16,0,1,,,,,,,,,,,,,,,,,
294859,2022-12-04_22h25.21.379,vts_reward_expectancy_bt,2022.2.4,Win32,61.33464181,Chrome,1536,864,,,,,0,702,,,,,,,,,,,,,,,,,W,132,hexagon,1,0,,,,,,,,,,,,,,,,repeat,number,numRpt,j,0.6799,noRew,,,,,,0,17,0,17,0,1,,,,,,,,,,,,,,,,,
294859,2022-12-04_22h25.21.379,vts_reward_expectancy_bt,2022.2.4,Win32,61.33464181,Chrome,1536,864,,,,,0,702,,,,,,,,,,,,,,,,,S,167,star,1,0,,,,,,,,,,,,,,,,repeat,number,numRpt,k,0.697,noRew,,,,,,0,18,0,18,0,1,,,,,,,,,,,,,,,,,
294859,2022-12-04_22h25.21.379,vts_reward_expectancy_bt,2022.2.4,Win32,61.33464181,Chrome,1536,864,,,,,0,702,,,,,,,,,,,,,,,,,Y,146,circle,1,0,,,,,,,,,,,,,,,,repeat,number,numRpt,j,0.735,noRew,,,,,,0,19,0,19,0,1,,,,,,,,,,,,,,,,,
294859,2022-12-04_22h25.21.379,vts_reward_expectancy_bt,2022.2.4,Win32,61.33464181,Chrome,1536,864,,,,,0,702,,,,,,,,,,,,,,,,,H,125,hexagon,1,0,,,,,,,,,,,,,,,,repeat,number,numRpt,j,0.8338,noRew,,,,,,0,20,0,20,0,1,,,,,,,,,,,,,,,,,
294859,2022-12-04_22h25.21.379,vts_reward_expectancy_bt,2022.2.4,Win32,61.33464181,Chrome,1536,864,,,,,0,702,,,,,,,,,,,,,,,,,B,132,circle,1,0,,,,,,,,,,,,,,,,repeat,number,numRpt,j,0.8529,noRew,,,,,,0,21,0,21,0,1,,,,,,,,,,,,,,,,,
294859,2022-12-04_22h25.21.379,vts_reward_expectancy_bt,2022.2.4,Win32,61.33464181,Chrome,1536,864,,,,,0,702,,,,,,,,,,,,,,,,,W,174,hexagon,1,0,,,,,,,,,,,,,,,,repeat,number,numRpt,k,0.7153,noRew,,,,,,0,22,0,22,0,1,,,,,,,,,,,,,,,,,
294859,2022-12-04_22h25.21.379,vts_reward_expectancy_bt,2022.2.4,Win32,61.33464181,Chrome,1536,864,,,,,0,702,,,,,,,,,,,,,,,,,Y,181,star,1,0,,,,,,,,,,,,,,,,repeat,number,numRpt,k,0.7767,noRew,,,,,,0,23,0,23,0,1,,,,,,,,,,,,,,,,,
294859,2022-12-04_22h25.21.379,vts_reward_expectancy_bt,2022.2.4,Win32,61.33464181,Chrome,1536,864,,,,,0,702,,,,,,,,,,,,,,,,,W,125,circle,1,0,,,,,,,,,,,,,,,,repeat,number,numRpt,j,0.8456,noRew,,,,,,0,24,0,24,0,1,,,,,,,,,,,,,,,,,
294859,2022-12-04_22h25.21.379,vts_reward_expectancy_bt,2022.2.4,Win32,61.33464181,Chrome,1536,864,,,,,0,702,,,,,,,,,,,,,,,,,B,174,star,1,0,,,,,,,,,,,,,,,,repeat,number,numRpt,k,0.6639,noRew,,,,,,0,25,0,25,0,1,,,,,,,,,,,,,,,,,
294859,2022-12-04_22h25.21.379,vts_reward_expectancy_bt,2022.2.4,Win32,61.33464181,Chrome,1536,864,,,,,0,702,,,,,,,,,,,,,,,,,H,167,hexagon,-1,0,,,,,,,,,,,,,,,,switch,no_choice,NA,,,noRew,,,,,,0,26,0,26,0,1,,,,,,,,,,,,,,,,,
294859,2022-12-04_22h25.21.379,vts_reward_expectancy_bt,2022.2.4,Win32,61.33464181,Chrome,1536,864,,,,,0,702,,,,,,,,,,,,,,,,,D,160,circle,1,0,,,,,,,,,,,,,,,,switch,number,numSwt,k,1.1591,noRew,,,,,,0,27,0,27,0,1,,,,,,,,,,,,,,,,,
294859,2022-12-04_22h25.21.379,vts_reward_expectancy_bt,2022.2.4,Win32,61.33464181,Chrome,1536,864,,,,,0,702,,,,,,,,,,,,,,,,,D,146,hexagon,1,0,,,,,,,,,,,,,,,,repeat,number,numRpt,j,0.8486,noRew,,,,,,0,28,0,28,0,1,,,,,,,,,,,,,,,,,
294859,2022-12-04_22h25.21.379,vts_reward_expectancy_bt,2022.2.4,Win32,61.33464181,Chrome,1536,864,,,,,0,702,,,,,,,,,,,,,,,,,Y,139,star,1,0,,,,,,,,,,,,,,,,repeat,number,numRpt,j,0.8428,noRew,,,,,,0,29,0,29,0,1,,,,,,,,,,,,,,,,,
294859,2022-12-04_22h25.21.379,vts_reward_expectancy_bt,2022.2.4,Win32,61.33464181,Chrome,1536,864,,,,,0,702,,,,,,,,,,,,,,,,,S,181,star,1,0,,,,,,,,,,,,,,,,repeat,number,numRpt,k,1.1955,noRew,,,,,,0,30,0,30,0,1,,,,,,,,,,,,,,,,,
294859,2022-12-04_22h25.21.379,vts_reward_expectancy_bt,2022.2.4,Win32,61.33464181,Chrome,1536,864,,,,,0,702,,,,,,,,,,,,,,,,,F,125,circle,1,0,,,,,,,,,,,,,,,,repeat,number,numRpt,j,0.7779,noRew,,,,,,0,31,0,31,0,1,,,,,,,,,,,,,,,,,
294859,2022-12-04_22h25.21.379,vts_reward_expectancy_bt,2022.2.4,Win32,61.33464181,Chrome,1536,864,,,,,0,702,,,,,,,,,,,,,,,,,W,146,hexagon,0,0,,,,,,,,,,,,,,,,repeat,number,NA,k,1.3077,noRew,,,,,,0,32,0,32,0,1,,,,,,,,,,,,,,,,,
294859,2022-12-04_22h25.21.379,vts_reward_expectancy_bt,2022.2.4,Win32,61.33464181,Chrome,1536,864,,,,,0,702,,,,,,,,,,,,,,,,,Y,139,triangle,1,1,,,,,,,,,,,,,,,,repeat,number,numRpt,j,1.9797,noRew,,,,,,0,33,0,33,0,1,,,,,,,,,,,,,,,,,
294859,2022-12-04_22h25.21.379,vts_reward_expectancy_bt,2022.2.4,Win32,61.33464181,Chrome,1536,864,,,,,0,702,,,,,,,,,,,,,,,,,D,132,circle,0,0,,,,,,,,,,,,,,,,repeat,number,NA,k,0.711,noRew,,,,,,0,34,0,34,0,1,,,,,,,,,,,,,,,,,
294859,2022-12-04_22h25.21.379,vts_reward_expectancy_bt,2022.2.4,Win32,61.33464181,Chrome,1536,864,,,,,0,702,,,,,,,,,,,,,,,,,F,167,triangle,1,1,,,,,,,,,,,,,,,,repeat,number,numRpt,k,0.702,noRew,,,,,,0,35,0,35,0,1,,,,,,,,,,,,,,,,,
294859,2022-12-04_22h25.21.379,vts_reward_expectancy_bt,2022.2.4,Win32,61.33464181,Chrome,1536,864,,,,,0,702,,,,,,,,,,,,,,,,,U,181,circle,1,0,,,,,,,,,,,,,,,,repeat,number,numRpt,k,1.3437,noRew,,,,,,0,36,0,36,0,1,,,,,,,,,,,,,,,,,
294859,2022-12-04_22h25.21.379,vts_reward_expectancy_bt,2022.2.4,Win32,61.33464181,Chrome,1536,864,,,,,0,702,,,,,,,,,,,,,,,,,Y,174,star,1,0,,,,,,,,,,,,,,,,repeat,number,numRpt,k,0.6385,noRew,,,,,,0,37,0,37,0,1,,,,,,,,,,,,,,,,,
294859,2022-12-04_22h25.21.379,vts_reward_expectancy_bt,2022.2.4,Win32,61.33464181,Chrome,1536,864,,,,,0,702,,,,,,,,,,,,,,,,,H,167,hexagon,1,0,,,,,,,,,,,,,,,,repeat,number,numRpt,k,1.1945,noRew,,,,,,0,38,0,38,0,1,,,,,,,,,,,,,,,,,
294859,2022-12-04_22h25.21.379,vts_reward_expectancy_bt,2022.2.4,Win32,61.33464181,Chrome,1536,864,,,,,0,702,,,,,,,,,,,,,,,,,W,125,triangle,1,0,,,,,,,,,,,,,,,,repeat,number,numRpt,j,0.7772,noRew,,,,,,0,39,0,39,0,1,,,,,,,,,,,,,,,,,
294859,2022-12-04_22h25.21.379,vts_reward_expectancy_bt,2022.2.4,Win32,61.33464181,Chrome,1536,864,,,,,0,702,,,,,,,,,,,,,,,,,Y,132,hexagon,1,0,,,,,,,,,,,,,,,,repeat,number,numRpt,j,1.1256,noRew,,,,,,0,40,0,40,0,1,,,,,,,,,,,,,,,,,
294859,2022-12-04_22h25.21.379,vts_reward_expectancy_bt,2022.2.4,Win32,61.33464181,Chrome,1536,864,,,,,0,702,,,,,,,,,,,,,,,,,S,167,triangle,1,0,,,,,,,,,,,,,,,,repeat,number,numRpt,k,1.3611,noRew,,,,,,0,41,0,41,0,1,,,,,,,,,,,,,,,,,
294859,2022-12-04_22h25.21.379,vts_reward_expectancy_bt,2022.2.4,Win32,61.33464181,Chrome,1536,864,,,,,0,702,,,,,,,,,,,,,,,,,D,160,star,0,0,,,,,,,,,,,,,,,,repeat,number,NA,j,0.6824,noRew,,,,,,0,42,0,42,0,1,,,,,,,,,,,,,,,,,
294859,2022-12-04_22h25.21.379,vts_reward_expectancy_bt,2022.2.4,Win32,61.33464181,Chrome,1536,864,,,,,0,702,,,,,,,,,,,,,,,,,W,181,circle,1,1,,,,,,,,,,,,,,,,repeat,number,numRpt,k,0.5504,noRew,,,,,,0,43,0,43,0,1,,,,,,,,,,,,,,,,,
294859,2022-12-04_22h25.21.379,vts_reward_expectancy_bt,2022.2.4,Win32,61.33464181,Chrome,1536,864,,,,,0,702,,,,,,,,,,,,,,,,,U,146,triangle,1,0,,,,,,,,,,,,,,,,repeat,number,numRpt,j,1.8235,noRew,,,,,,0,44,0,44,0,1,,,,,,,,,,,,,,,,,
294859,2022-12-04_22h25.21.379,vts_reward_expectancy_bt,2022.2.4,Win32,61.33464181,Chrome,1536,864,,,,,0,702,,,,,,,,,,,,,,,,,Y,139,circle,0,0,,,,,,,,,,,,,,,,repeat,number,NA,k,0.6117,noRew,,,,,,0,45,0,45,0,1,,,,,,,,,,,,,,,,,
294859,2022-12-04_22h25.21.379,vts_reward_expectancy_bt,2022.2.4,Win32,61.33464181,Chrome,1536,864,,,,,0,702,,,,,,,,,,,,,,,,,S,125,circle,1,1,,,,,,,,,,,,,,,,repeat,number,numRpt,j,2.6441,noRew,,,,,,0,46,0,46,0,1,,,,,,,,,,,,,,,,,
294859,2022-12-04_22h25.21.379,vts_reward_expectancy_bt,2022.2.4,Win32,61.33464181,Chrome,1536,864,,,,,0,702,,,,,,,,,,,,,,,,,F,174,triangle,1,0,,,,,,,,,,,,,,,,repeat,number,numRpt,k,0.7444,noRew,,,,,,0,47,0,47,0,1,,,,,,,,,,,,,,,,,
294859,2022-12-04_22h25.21.379,vts_reward_expectancy_bt,2022.2.4,Win32,61.33464181,Chrome,1536,864,,,,,0,702,,,,,,,,,,,,,,,,,S,167,triangle,1,0,,,,,,,,,,,,,,,,repeat,number,numRpt,k,1.2434,noRew,,,,,,0,48,0,48,0,1,,,,,,,,,,,,,,,,,
294859,2022-12-04_22h25.21.379,vts_reward_expectancy_bt,2022.2.4,Win32,61.33464181,Chrome,1536,864,,,,,0,702,,,,,,,,,,,,,,,,,Y,160,circle,1,0,,,,,,,,,,,,,,,,repeat,number,numRpt,k,2.2422,noRew,,,,,,0,49,0,49,0,1,,,,,,,,,,,,,,,,,
294859,2022-12-04_22h25.21.379,vts_reward_expectancy_bt,2022.2.4,Win32,61.33464181,Chrome,1536,864,,,,,0,702,,,,,,,,,,,,,,,,,F,174,triangle,1,0,,,,,,,,,,,,,,,,repeat,number,numRpt,k,0.9449,noRew,,,,,,0,50,0,50,0,1,,,,,,,,,,,,,,,,,
294859,2022-12-04_22h25.21.379,vts_reward_expectancy_bt,2022.2.4,Win32,61.33464181,Chrome,1536,864,,,,,0,702,,,,,,,,,,,,,,,,,D,139,circle,1,0,,,,,,,,,,,,,,,,repeat,number,numRpt,j,0.7165,noRew,,,,,,0,51,0,51,0,1,,,,,,,,,,,,,,,,,
294859,2022-12-04_22h25.21.379,vts_reward_expectancy_bt,2022.2.4,Win32,61.33464181,Chrome,1536,864,,,,,0,702,,,,,,,,,,,,,,,,,F,160,circle,1,0,,,,,,,,,,,,,,,,repeat,number,numRpt,k,0.9856,noRew,,,,,,0,52,0,52,0,1,,,,,,,,,,,,,,,,,
294859,2022-12-04_22h25.21.379,vts_reward_expectancy_bt,2022.2.4,Win32,61.33464181,Chrome,1536,864,,,,,0,702,,,,,,,,,,,,,,,,,U,181,triangle,-1,0,,,,,,,,,,,,,,,,switch,no_choice,NA,,,noRew,,,,,,0,53,0,53,0,1,,,,,,,,,,,,,,,,,
294859,2022-12-04_22h25.21.379,vts_reward_expectancy_bt,2022.2.4,Win32,61.33464181,Chrome,1536,864,,,,,0,702,,,,,,,,,,,,,,,,,W,146,star,0,0,,,,,,,,,,,,,,,,switch,number,NA,k,2.0636,noRew,,,,,,0,54,0,54,0,1,,,,,,,,,,,,,,,,,
294859,2022-12-04_22h25.21.379,vts_reward_expectancy_bt,2022.2.4,Win32,61.33464181,Chrome,1536,864,,,,,0,702,,,,,,,,,,,,,,,,,Y,174,circle,1,1,,,,,,,,,,,,,,,,repeat,number,numRpt,k,2.2295,noRew,,,,,,0,55,0,55,0,1,,,,,,,,,,,,,,,,,
294859,2022-12-04_22h25.21.379,vts_reward_expectancy_bt,2022.2.4,Win32,61.33464181,Chrome,1536,864,,,,,0,702,,,,,,,,,,,,,,,,,F,139,hexagon,1,0,,,,,,,,,,,,,,,,repeat,number,numRpt,j,2.6956,noRew,,,,,,0,56,0,56,0,1,,,,,,,,,,,,,,,,,
294859,2022-12-04_22h25.21.379,vts_reward_expectancy_bt,2022.2.4,Win32,61.33464181,Chrome,1536,864,,,,,0,702,,,,,,,,,,,,,,,,,B,132,triangle,1,0,,,,,,,,,,,,,,,,repeat,number,numRpt,j,0.7639,noRew,,,,,,0,57,0,57,0,1,,,,,,,,,,,,,,,,,
294859,2022-12-04_22h25.21.379,vts_reward_expectancy_bt,2022.2.4,Win32,61.33464181,Chrome,1536,864,,,,,0,702,,,,,,,,,,,,,,,,,D,167,star,1,0,,,,,,,,,,,,,,,,repeat,number,numRpt,k,0.6701,noRew,,,,,,0,58,0,58,0,1,,,,,,,,,,,,,,,,,
294859,2022-12-04_22h25.21.379,vts_reward_expectancy_bt,2022.2.4,Win32,61.33464181,Chrome,1536,864,,,,,0,702,,,,,,,,,,,,,,,,,U,181,triangle,1,0,,,,,,,,,,,,,,,,repeat,number,numRpt,k,0.7636,noRew,,,,,,0,59,0,59,0,1,,,,,,,,,,,,,,,,,
294859,2022-12-04_22h25.21.379,vts_reward_expectancy_bt,2022.2.4,Win32,61.33464181,Chrome,1536,864,,,,,0,702,,,,,,,,,,,,,,,,,S,146,hexagon,0,0,,,,,,,,,,,,,,,,repeat,number,NA,k,0.7005,noRew,,,,,,0,60,0,60,0,1,,,,,,,,,,,,,,,,,
294859,2022-12-04_22h25.21.379,vts_reward_expectancy_bt,2022.2.4,Win32,61.33464181,Chrome,1536,864,,,,,0,702,,,,,,,,,,,,,,,,,H,139,circle,1,1,,,,,,,,,,,,,,,,repeat,number,numRpt,j,1.2677,noRew,,,,,,0,61,0,61,0,1,,,,,,,,,,,,,,,,,
294859,2022-12-04_22h25.21.379,vts_reward_expectancy_bt,2022.2.4,Win32,61.33464181,Chrome,1536,864,,,,,0,702,,,,,,,,,,,,,,,,,D,160,circle,1,0,,,,,,,,,,,,,,,,repeat,number,numRpt,k,0.8613,noRew,,,,,,0,62,0,62,0,1,,,,,,,,,,,,,,,,,
294859,2022-12-04_22h25.21.379,vts_reward_expectancy_bt,2022.2.4,Win32,61.33464181,Chrome,1536,864,,,,,0,702,,,,,,,,,,,,,,,,,B,132,triangle,1,0,,,,,,,,,,,,,,,,repeat,number,numRpt,j,1.6587,noRew,,,,,,0,63,0,63,0,1,,,,,,,,,,,,,,,,,
294859,2022-12-04_22h25.21.379,vts_reward_expectancy_bt,2022.2.4,Win32,61.33464181,Chrome,1536,864,,,,,,,,,,,,,,,,,,,,,,,,,,,,,,,,,,,,,,,,,,,,,,,,,,,,,,,,,,,,,,,,,,,,,,,,,,,,
294859,2022-12-04_22h25.21.379,vts_reward_expectancy_bt,2022.2.4,Win32,61.33464181,Chrome,1536,864,,,,,10,712,,,,,,,,,,,,,,,,,F,139,triangle,1,0,,,,,,,,,,,,,,,,switch,letter,lettSwt,d,0.9613,Hi,,,,,,0,,,,,,space,11.6841,high,0,0,0,0,1,,,,,,,,,
294859,2022-12-04_22h25.21.379,vts_reward_expectancy_bt,2022.2.4,Win32,61.33464181,Chrome,1536,864,,,,,1,713,,,,,,,,,,,,,,,,,D,174,star,1,0,,,,,,,,,,,,,,,,switch,number,numSwt,k,0.9614,Lo,,,,,,0,,,,,,,,high,1,0,1,0,1,,,,,,,,,
294859,2022-12-04_22h25.21.379,vts_reward_expectancy_bt,2022.2.4,Win32,61.33464181,Chrome,1536,864,,,,,10,723,,,,,,,,,,,,,,,,,Y,132,hexagon,1,0,,,,,,,,,,,,,,,,repeat,number,numRpt,j,0.7773,Hi,,,,,,0,,,,,,,,high,2,0,2,0,1,,,,,,,,,
294859,2022-12-04_22h25.21.379,vts_reward_expectancy_bt,2022.2.4,Win32,61.33464181,Chrome,1536,864,,,,,10,733,,,,,,,,,,,,,,,,,B,167,circle,1,0,,,,,,,,,,,,,,,,switch,letter,lettSwt,d,1.4821,Lo,,,,,,0,,,,,,,,high,3,0,3,0,1,,,,,,,,,
294859,2022-12-04_22h25.21.379,vts_reward_expectancy_bt,2022.2.4,Win32,61.33464181,Chrome,1536,864,,,,,0,733,,,,,,,,,,,,,,,,,H,146,triangle,0,0,,,,,,,,,,,,,,,,repeat,letter,NA,f,0.6953,Lo,,,,,,0,,,,,,,,high,4,0,4,0,1,,,,,,,,,
294859,2022-12-04_22h25.21.379,vts_reward_expectancy_bt,2022.2.4,Win32,61.33464181,Chrome,1536,864,,,,,10,743,,,,,,,,,,,,,,,,,U,125,star,1,1,,,,,,,,,,,,,,,,repeat,letter,lettRpt,f,0.8445,Lo,,,,,,0,,,,,,,,high,5,0,5,0,1,,,,,,,,,
294859,2022-12-04_22h25.21.379,vts_reward_expectancy_bt,2022.2.4,Win32,61.33464181,Chrome,1536,864,,,,,10,753,,,,,,,,,,,,,,,,,S,181,hexagon,1,0,,,,,,,,,,,,,,,,switch,number,numSwt,k,0.8938,Hi,,,,,,0,,,,,,,,high,6,0,6,0,1,,,,,,,,,
294859,2022-12-04_22h25.21.379,vts_reward_expectancy_bt,2022.2.4,Win32,61.33464181,Chrome,1536,864,,,,,1,754,,,,,,,,,,,,,,,,,W,160,circle,1,0,,,,,,,,,,,,,,,,repeat,number,numRpt,k,1.8162,Lo,,,,,,0,,,,,,,,high,7,0,7,0,1,,,,,,,,,
294859,2022-12-04_22h25.21.379,vts_reward_expectancy_bt,2022.2.4,Win32,61.33464181,Chrome,1536,864,,,,,1,755,,,,,,,,,,,,,,,,,F,139,star,1,0,,,,,,,,,,,,,,,,repeat,number,numRpt,j,1.0101,Lo,,,,,,0,,,,,,,,high,8,0,8,0,1,,,,,,,,,
294859,2022-12-04_22h25.21.379,vts_reward_expectancy_bt,2022.2.4,Win32,61.33464181,Chrome,1536,864,,,,,10,765,,,,,,,,,,,,,,,,,D,174,hexagon,1,0,,,,,,,,,,,,,,,,switch,letter,lettSwt,d,0.7457,Hi,,,,,,0,,,,,,,,high,9,0,9,0,1,,,,,,,,,
294859,2022-12-04_22h25.21.379,vts_reward_expectancy_bt,2022.2.4,Win32,61.33464181,Chrome,1536,864,,,,,10,775,,,,,,,,,,,,,,,,,Y,132,triangle,1,0,,,,,,,,,,,,,,,,repeat,letter,lettRpt,f,0.7347,Hi,,,,,,0,,,,,,,,high,10,0,10,0,1,,,,,,,,,
294859,2022-12-04_22h25.21.379,vts_reward_expectancy_bt,2022.2.4,Win32,61.33464181,Chrome,1536,864,,,,,1,776,,,,,,,,,,,,,,,,,B,167,circle,1,0,,,,,,,,,,,,,,,,repeat,letter,lettRpt,d,0.9096,Lo,,,,,,0,,,,,,,,high,11,0,11,0,1,,,,,,,,,
294859,2022-12-04_22h25.21.379,vts_reward_expectancy_bt,2022.2.4,Win32,61.33464181,Chrome,1536,864,,,,,10,786,,,,,,,,,,,,,,,,,H,146,triangle,1,0,,,,,,,,,,,,,,,,repeat,letter,lettRpt,d,1.0345,Hi,,,,,,0,,,,,,,,high,12,0,12,0,1,,,,,,,,,
294859,2022-12-04_22h25.21.379,vts_reward_expectancy_bt,2022.2.4,Win32,61.33464181,Chrome,1536,864,,,,,1,787,,,,,,,,,,,,,,,,,U,125,hexagon,1,0,,,,,,,,,,,,,,,,repeat,letter,lettRpt,f,1.3273,Hi,,,,,,0,,,,,,,,high,13,0,13,0,1,,,,,,,,,
294859,2022-12-04_22h25.21.379,vts_reward_expectancy_bt,2022.2.4,Win32,61.33464181,Chrome,1536,864,,,,,1,788,,,,,,,,,,,,,,,,,S,181,star,1,0,,,,,,,,,,,,,,,,switch,number,numSwt,k,0.9944,Lo,,,,,,0,,,,,,,,high,14,0,14,0,1,,,,,,,,,
294859,2022-12-04_22h25.21.379,vts_reward_expectancy_bt,2022.2.4,Win32,61.33464181,Chrome,1536,864,,,,,0,788,,,,,,,,,,,,,,,,,W,160,circle,0,0,,,,,,,,,,,,,,,,repeat,number,NA,j,1.7127,Lo,,,,,,0,,,,,,,,high,15,0,15,0,1,,,,,,,,,
294859,2022-12-04_22h25.21.379,vts_reward_expectancy_bt,2022.2.4,Win32,61.33464181,Chrome,1536,864,,,,,10,798,,,,,,,,,,,,,,,,,Y,167,triangle,1,1,,,,,,,,,,,,,,,,switch,letter,lettSwt,f,1.4423,Hi,,,,,,0,,,,,,,,high,16,0,16,0,1,,,,,,,,,
294859,2022-12-04_22h25.21.379,vts_reward_expectancy_bt,2022.2.4,Win32,61.33464181,Chrome,1536,864,,,,,1,799,,,,,,,,,,,,,,,,,S,174,star,1,0,,,,,,,,,,,,,,,,repeat,letter,lettRpt,f,0.9794,Lo,,,,,,0,,,,,,,,high,17,0,17,0,1,,,,,,,,,
294859,2022-12-04_22h25.21.379,vts_reward_expectancy_bt,2022.2.4,Win32,61.33464181,Chrome,1536,864,,,,,1,800,,,,,,,,,,,,,,,,,H,146,circle,1,0,,,,,,,,,,,,,,,,switch,number,numSwt,j,1.5756,Lo,,,,,,0,,,,,,,,high,18,0,18,0,1,,,,,,,,,
294859,2022-12-04_22h25.21.379,vts_reward_expectancy_bt,2022.2.4,Win32,61.33464181,Chrome,1536,864,,,,,10,810,,,,,,,,,,,,,,,,,F,125,hexagon,1,0,,,,,,,,,,,,,,,,switch,letter,lettSwt,d,1.2622,Hi,,,,,,0,,,,,,,,high,19,0,19,0,1,,,,,,,,,
294859,2022-12-04_22h25.21.379,vts_reward_expectancy_bt,2022.2.4,Win32,61.33464181,Chrome,1536,864,,,,,10,820,,,,,,,,,,,,,,,,,D,132,triangle,1,0,,,,,,,,,,,,,,,,repeat,letter,lettRpt,d,0.9662,Hi,,,,,,0,,,,,,,,high,20,0,20,0,1,,,,,,,,,
294859,2022-12-04_22h25.21.379,vts_reward_expectancy_bt,2022.2.4,Win32,61.33464181,Chrome,1536,864,,,,,1,821,,,,,,,,,,,,,,,,,W,181,circle,1,0,,,,,,,,,,,,,,,,repeat,letter,lettRpt,f,1.0257,Lo,,,,,,0,,,,,,,,high,21,0,21,0,1,,,,,,,,,
294859,2022-12-04_22h25.21.379,vts_reward_expectancy_bt,2022.2.4,Win32,61.33464181,Chrome,1536,864,,,,,10,831,,,,,,,,,,,,,,,,,U,139,hexagon,1,0,,,,,,,,,,,,,,,,repeat,letter,lettRpt,f,0.6614,Hi,,,,,,0,,,,,,,,high,22,0,22,0,1,,,,,,,,,
294859,2022-12-04_22h25.21.379,vts_reward_expectancy_bt,2022.2.4,Win32,61.33464181,Chrome,1536,864,,,,,1,832,,,,,,,,,,,,,,,,,B,160,star,1,0,,,,,,,,,,,,,,,,repeat,letter,lettRpt,d,0.6674,Lo,,,,,,0,,,,,,,,high,23,0,23,0,1,,,,,,,,,
294859,2022-12-04_22h25.21.379,vts_reward_expectancy_bt,2022.2.4,Win32,61.33464181,Chrome,1536,864,,,,,0,832,,,,,,,,,,,,,,,,,F,174,star,0,0,,,,,,,,,,,,,,,,switch,number,NA,j,1.5429,Lo,,,,,,0,,,,,,,,high,24,0,24,0,1,,,,,,,,,
294859,2022-12-04_22h25.21.379,vts_reward_expectancy_bt,2022.2.4,Win32,61.33464181,Chrome,1536,864,,,,,10,842,,,,,,,,,,,,,,,,,B,125,triangle,1,1,,,,,,,,,,,,,,,,switch,letter,lettSwt,d,0.8446,Hi,,,,,,0,,,,,,,,high,25,0,25,0,1,,,,,,,,,
294859,2022-12-04_22h25.21.379,vts_reward_expectancy_bt,2022.2.4,Win32,61.33464181,Chrome,1536,864,,,,,10,852,,,,,,,,,,,,,,,,,Y,181,hexagon,1,0,,,,,,,,,,,,,,,,repeat,letter,lettRpt,f,0.9787,Hi,,,,,,0,,,,,,,,high,26,0,26,0,1,,,,,,,,,
294859,2022-12-04_22h25.21.379,vts_reward_expectancy_bt,2022.2.4,Win32,61.33464181,Chrome,1536,864,,,,,0,852,,,,,,,,,,,,,,,,,U,139,circle,0,0,,,,,,,,,,,,,,,,repeat,letter,NA,d,0.9945,Hi,,,,,,0,,,,,,,,high,27,0,27,0,1,,,,,,,,,
294859,2022-12-04_22h25.21.379,vts_reward_expectancy_bt,2022.2.4,Win32,61.33464181,Chrome,1536,864,,,,,10,862,,,,,,,,,,,,,,,,,W,167,triangle,1,1,,,,,,,,,,,,,,,,repeat,letter,lettRpt,f,0.8335,Hi,,,,,,0,,,,,,,,high,28,0,28,0,1,,,,,,,,,
294859,2022-12-04_22h25.21.379,vts_reward_expectancy_bt,2022.2.4,Win32,61.33464181,Chrome,1536,864,,,,,1,863,,,,,,,,,,,,,,,,,H,132,star,1,0,,,,,,,,,,,,,,,,repeat,letter,lettRpt,d,2.5062,Lo,,,,,,0,,,,,,,,high,29,0,29,0,1,,,,,,,,,
294859,2022-12-04_22h25.21.379,vts_reward_expectancy_bt,2022.2.4,Win32,61.33464181,Chrome,1536,864,,,,,1,864,,,,,,,,,,,,,,,,,S,146,circle,1,0,,,,,,,,,,,,,,,,repeat,letter,lettRpt,f,0.8972,Lo,,,,,,0,,,,,,,,high,30,0,30,0,1,,,,,,,,,
294859,2022-12-04_22h25.21.379,vts_reward_expectancy_bt,2022.2.4,Win32,61.33464181,Chrome,1536,864,,,,,0,864,,,,,,,,,,,,,,,,,D,160,hexagon,1,0,,,,,,,,,,,,,,,,switch,number,numSwt,k,1.1601,Hi,,,,,,0,,,,,,,,high,31,0,31,0,1,,,,,,,,,
294859,2022-12-04_22h25.21.379,vts_reward_expectancy_bt,2022.2.4,Win32,61.33464181,Chrome,1536,864,,,,,1,865,,,,,,,,,,,,,,,,,U,125,circle,1,0,,,,,,,,,,,,,,,,switch,letter,lettSwt,f,2.0485,Lo,,,,,,1,,,,,,space,21.0897,high,0,0,0,0,1,,,,,,,,,
294859,2022-12-04_22h25.21.379,vts_reward_expectancy_bt,2022.2.4,Win32,61.33464181,Chrome,1536,864,,,,,0,865,,,,,,,,,,,,,,,,,W,167,triangle,-1,0,,,,,,,,,,,,,,,,switch,no_choice,NA,,,Lo,,,,,,1,,,,,,,,high,1,0,1,0,1,,,,,,,,,
294859,2022-12-04_22h25.21.379,vts_reward_expectancy_bt,2022.2.4,Win32,61.33464181,Chrome,1536,864,,,,,1,866,,,,,,,,,,,,,,,,,B,139,star,1,0,,,,,,,,,,,,,,,,switch,number,numSwt,j,1.163,Lo,,,,,,1,,,,,,,,high,2,0,2,0,1,,,,,,,,,
294859,2022-12-04_22h25.21.379,vts_reward_expectancy_bt,2022.2.4,Win32,61.33464181,Chrome,1536,864,,,,,10,876,,,,,,,,,,,,,,,,,F,146,hexagon,1,0,,,,,,,,,,,,,,,,switch,letter,lettSwt,d,0.8311,Hi,,,,,,1,,,,,,,,high,3,0,3,0,1,,,,,,,,,
294859,2022-12-04_22h25.21.379,vts_reward_expectancy_bt,2022.2.4,Win32,61.33464181,Chrome,1536,864,,,,,1,877,,,,,,,,,,,,,,,,,H,160,circle,1,0,,,,,,,,,,,,,,,,repeat,letter,lettRpt,d,0.9655,Lo,,,,,,1,,,,,,,,high,4,0,4,0,1,,,,,,,,,
294859,2022-12-04_22h25.21.379,vts_reward_expectancy_bt,2022.2.4,Win32,61.33464181,Chrome,1536,864,,,,,10,887,,,,,,,,,,,,,,,,,D,174,triangle,1,0,,,,,,,,,,,,,,,,repeat,letter,lettRpt,d,0.7435,Hi,,,,,,1,,,,,,,,high,5,0,5,0,1,,,,,,,,,
294859,2022-12-04_22h25.21.379,vts_reward_expectancy_bt,2022.2.4,Win32,61.33464181,Chrome,1536,864,,,,,10,897,,,,,,,,,,,,,,,,,S,181,star,1,0,,,,,,,,,,,,,,,,repeat,letter,lettRpt,f,1.1109,Lo,,,,,,1,,,,,,,,high,6,0,6,0,1,,,,,,,,,
294859,2022-12-04_22h25.21.379,vts_reward_expectancy_bt,2022.2.4,Win32,61.33464181,Chrome,1536,864,,,,,0,897,,,,,,,,,,,,,,,,,Y,132,hexagon,1,0,,,,,,,,,,,,,,,,switch,number,numSwt,j,1.1257,Hi,,,,,,1,,,,,,,,high,7,0,7,0,1,,,,,,,,,
294859,2022-12-04_22h25.21.379,vts_reward_expectancy_bt,2022.2.4,Win32,61.33464181,Chrome,1536,864,,,,,0,897,,,,,,,,,,,,,,,,,U,125,hexagon,1,0,,,,,,,,,,,,,,,,switch,letter,lettSwt,f,1.2616,Hi,,,,,,1,,,,,,,,high,8,0,8,0,1,,,,,,,,,
294859,2022-12-04_22h25.21.379,vts_reward_expectancy_bt,2022.2.4,Win32,61.33464181,Chrome,1536,864,,,,,0,897,,,,,,,,,,,,,,,,,W,167,star,0,0,,,,,,,,,,,,,,,,switch,number,NA,j,0.6169,Hi,,,,,,1,,,,,,,,high,9,0,9,0,1,,,,,,,,,
294859,2022-12-04_22h25.21.379,vts_reward_expectancy_bt,2022.2.4,Win32,61.33464181,Chrome,1536,864,,,,,10,907,,,,,,,,,,,,,,,,,B,139,triangle,1,1,,,,,,,,,,,,,,,,switch,letter,lettSwt,d,0.6987,Hi,,,,,,1,,,,,,,,high,10,0,10,0,1,,,,,,,,,
294859,2022-12-04_22h25.21.379,vts_reward_expectancy_bt,2022.2.4,Win32,61.33464181,Chrome,1536,864,,,,,1,908,,,,,,,,,,,,,,,,,F,146,circle,1,0,,,,,,,,,,,,,,,,repeat,letter,lettRpt,d,0.7519,Lo,,,,,,1,,,,,,,,high,11,0,11,0,1,,,,,,,,,
294859,2022-12-04_22h25.21.379,vts_reward_expectancy_bt,2022.2.4,Win32,61.33464181,Chrome,1536,864,,,,,1,909,,,,,,,,,,,,,,,,,H,160,circle,1,0,,,,,,,,,,,,,,,,repeat,letter,lettRpt,d,0.7087,Lo,,,,,,1,,,,,,,,high,12,0,12,0,1,,,,,,,,,
294859,2022-12-04_22h25.21.379,vts_reward_expectancy_bt,2022.2.4,Win32,61.33464181,Chrome,1536,864,,,,,10,919,,,,,,,,,,,,,,,,,D,174,hexagon,1,0,,,,,,,,,,,,,,,,repeat,letter,lettRpt,d,0.7455,Hi,,,,,,1,,,,,,,,high,13,0,13,0,1,,,,,,,,,
294859,2022-12-04_22h25.21.379,vts_reward_expectancy_bt,2022.2.4,Win32,61.33464181,Chrome,1536,864,,,,,0,919,,,,,,,,,,,,,,,,,S,181,triangle,0,0,,,,,,,,,,,,,,,,repeat,letter,NA,d,0.7839,Hi,,,,,,1,,,,,,,,high,14,0,14,0,1,,,,,,,,,
294859,2022-12-04_22h25.21.379,vts_reward_expectancy_bt,2022.2.4,Win32,61.33464181,Chrome,1536,864,,,,,1,920,,,,,,,,,,,,,,,,,Y,132,star,1,1,,,,,,,,,,,,,,,,repeat,letter,lettRpt,f,0.8966,Lo,,,,,,1,,,,,,,,high,15,0,15,0,1,,,,,,,,,
294859,2022-12-04_22h25.21.379,vts_reward_expectancy_bt,2022.2.4,Win32,61.33464181,Chrome,1536,864,,,,,0,920,,,,,,,,,,,,,,,,,S,146,hexagon,0,0,,,,,,,,,,,,,,,,switch,number,NA,k,0.4781,Lo,,,,,,1,,,,,,,,high,16,0,16,0,1,,,,,,,,,
294859,2022-12-04_22h25.21.379,vts_reward_expectancy_bt,2022.2.4,Win32,61.33464181,Chrome,1536,864,,,,,1,921,,,,,,,,,,,,,,,,,F,167,star,1,1,,,,,,,,,,,,,,,,switch,letter,lettSwt,d,0.9692,Lo,,,,,,1,,,,,,,,high,17,0,17,0,1,,,,,,,,,
294859,2022-12-04_22h25.21.379,vts_reward_expectancy_bt,2022.2.4,Win32,61.33464181,Chrome,1536,864,,,,,0,921,,,,,,,,,,,,,,,,,Y,181,triangle,1,0,,,,,,,,,,,,,,,,repeat,letter,lettRpt,f,0.9615,Hi,,,,,,1,,,,,,,,high,18,0,18,0,1,,,,,,,,,
294859,2022-12-04_22h25.21.379,vts_reward_expectancy_bt,2022.2.4,Win32,61.33464181,Chrome,1536,864,,,,,1,922,,,,,,,,,,,,,,,,,B,132,circle,1,0,,,,,,,,,,,,,,,,repeat,letter,lettRpt,d,0.926,Lo,,,,,,1,,,,,,,,high,19,0,19,0,1,,,,,,,,,
294859,2022-12-04_22h25.21.379,vts_reward_expectancy_bt,2022.2.4,Win32,61.33464181,Chrome,1536,864,,,,,1,923,,,,,,,,,,,,,,,,,D,125,hexagon,1,0,,,,,,,,,,,,,,,,repeat,letter,lettRpt,d,0.6071,Hi,,,,,,1,,,,,,,,high,20,0,20,0,1,,,,,,,,,
294859,2022-12-04_22h25.21.379,vts_reward_expectancy_bt,2022.2.4,Win32,61.33464181,Chrome,1536,864,,,,,0,923,,,,,,,,,,,,,,,,,U,139,star,0,0,,,,,,,,,,,,,,,,repeat,letter,NA,d,0.5797,Hi,,,,,,1,,,,,,,,high,21,0,21,0,1,,,,,,,,,
294859,2022-12-04_22h25.21.379,vts_reward_expectancy_bt,2022.2.4,Win32,61.33464181,Chrome,1536,864,,,,,1,924,,,,,,,,,,,,,,,,,W,174,circle,1,1,,,,,,,,,,,,,,,,repeat,letter,lettRpt,f,0.98,Lo,,,,,,1,,,,,,,,high,22,0,22,0,1,,,,,,,,,
294859,2022-12-04_22h25.21.379,vts_reward_expectancy_bt,2022.2.4,Win32,61.33464181,Chrome,1536,864,,,,,10,934,,,,,,,,,,,,,,,,,H,160,triangle,1,0,,,,,,,,,,,,,,,,repeat,letter,lettRpt,d,0.8439,Hi,,,,,,1,,,,,,,,high,23,0,23,0,1,,,,,,,,,
294859,2022-12-04_22h25.21.379,vts_reward_expectancy_bt,2022.2.4,Win32,61.33464181,Chrome,1536,864,,,,,1,935,,,,,,,,,,,,,,,,,U,181,star,1,0,,,,,,,,,,,,,,,,repeat,letter,lettRpt,f,0.7634,Lo,,,,,,1,,,,,,,,high,24,0,24,0,1,,,,,,,,,
294859,2022-12-04_22h25.21.379,vts_reward_expectancy_bt,2022.2.4,Win32,61.33464181,Chrome,1536,864,,,,,0,935,,,,,,,,,,,,,,,,,F,174,hexagon,1,0,,,,,,,,,,,,,,,,repeat,letter,lettRpt,d,0.8972,Hi,,,,,,1,,,,,,,,high,25,0,25,0,1,,,,,,,,,
294859,2022-12-04_22h25.21.379,vts_reward_expectancy_bt,2022.2.4,Win32,61.33464181,Chrome,1536,864,,,,,10,945,,,,,,,,,,,,,,,,,D,139,triangle,1,0,,,,,,,,,,,,,,,,repeat,letter,lettRpt,d,0.8458,Hi,,,,,,1,,,,,,,,high,26,0,26,0,1,,,,,,,,,
294859,2022-12-04_22h25.21.379,vts_reward_expectancy_bt,2022.2.4,Win32,61.33464181,Chrome,1536,864,,,,,1,946,,,,,,,,,,,,,,,,,Y,146,circle,1,0,,,,,,,,,,,,,,,,repeat,letter,lettRpt,f,0.7271,Lo,,,,,,1,,,,,,,,high,27,0,27,0,1,,,,,,,,,
294859,2022-12-04_22h25.21.379,vts_reward_expectancy_bt,2022.2.4,Win32,61.33464181,Chrome,1536,864,,,,,10,956,,,,,,,,,,,,,,,,,H,132,hexagon,1,0,,,,,,,,,,,,,,,,repeat,letter,lettRpt,d,0.6857,Hi,,,,,,1,,,,,,,,high,28,0,28,0,1,,,,,,,,,
294859,2022-12-04_22h25.21.379,vts_reward_expectancy_bt,2022.2.4,Win32,61.33464181,Chrome,1536,864,,,,,1,957,,,,,,,,,,,,,,,,,S,160,circle,1,0,,,,,,,,,,,,,,,,switch,number,numSwt,k,1.0659,Lo,,,,,,1,,,,,,,,high,29,0,29,0,1,,,,,,,,,
294859,2022-12-04_22h25.21.379,vts_reward_expectancy_bt,2022.2.4,Win32,61.33464181,Chrome,1536,864,,,,,1,958,,,,,,,,,,,,,,,,,B,167,star,1,0,,,,,,,,,,,,,,,,repeat,number,numRpt,k,0.616,Lo,,,,,,1,,,,,,,,high,30,0,30,0,1,,,,,,,,,
294859,2022-12-04_22h25.21.379,vts_reward_expectancy_bt,2022.2.4,Win32,61.33464181,Chrome,1536,864,,,,,10,968,,,,,,,,,,,,,,,,,W,125,triangle,1,0,,,,,,,,,,,,,,,,repeat,number,numRpt,j,0.8027,Hi,,,,,,1,,,,,,,,high,31,0,31,0,1,,,,,,,,,
294859,2022-12-04_22h25.21.379,vts_reward_expectancy_bt,2022.2.4,Win32,61.33464181,Chrome,1536,864,,,,,0,968,,,,,,,,,,,,,,,,,H,174,triangle,1,0,,,,,,,,,,,,,,,,switch,letter,lettSwt,d,1.1256,Hi,,,,,,2,,,,,,space,7.6405,high,0,0,0,0,1,,,,,,,,,
294859,2022-12-04_22h25.21.379,vts_reward_expectancy_bt,2022.2.4,Win32,61.33464181,Chrome,1536,864,,,,,10,978,,,,,,,,,,,,,,,,,U,160,hexagon,1,0,,,,,,,,,,,,,,,,switch,number,numSwt,k,0.7197,Hi,,,,,,2,,,,,,,,high,1,0,1,0,1,,,,,,,,,
294859,2022-12-04_22h25.21.379,vts_reward_expectancy_bt,2022.2.4,Win32,61.33464181,Chrome,1536,864,,,,,1,979,,,,,,,,,,,,,,,,,W,139,star,1,0,,,,,,,,,,,,,,,,repeat,number,numRpt,j,1.0184,Lo,,,,,,2,,,,,,,,high,2,0,2,0,1,,,,,,,,,
294859,2022-12-04_22h25.21.379,vts_reward_expectancy_bt,2022.2.4,Win32,61.33464181,Chrome,1536,864,,,,,1,980,,,,,,,,,,,,,,,,,D,167,circle,1,0,,,,,,,,,,,,,,,,repeat,number,numRpt,k,0.9615,Lo,,,,,,2,,,,,,,,high,3,0,3,0,1,,,,,,,,,
294859,2022-12-04_22h25.21.379,vts_reward_expectancy_bt,2022.2.4,Win32,61.33464181,Chrome,1536,864,,,,,0,980,,,,,,,,,,,,,,,,,F,132,triangle,1,0,,,,,,,,,,,,,,,,repeat,number,numRpt,j,0.9375,Hi,,,,,,2,,,,,,,,high,4,0,4,0,1,,,,,,,,,
294859,2022-12-04_22h25.21.379,vts_reward_expectancy_bt,2022.2.4,Win32,61.33464181,Chrome,1536,864,,,,,0,980,,,,,,,,,,,,,,,,,Y,125,hexagon,1,0,,,,,,,,,,,,,,,,switch,letter,lettSwt,f,0.8986,Hi,,,,,,2,,,,,,,,high,5,0,5,0,1,,,,,,,,,
294859,2022-12-04_22h25.21.379,vts_reward_expectancy_bt,2022.2.4,Win32,61.33464181,Chrome,1536,864,,,,,1,981,,,,,,,,,,,,,,,,,B,181,star,1,0,,,,,,,,,,,,,,,,switch,number,numSwt,k,1.2486,Lo,,,,,,2,,,,,,,,high,6,0,6,0,1,,,,,,,,,
294859,2022-12-04_22h25.21.379,vts_reward_expectancy_bt,2022.2.4,Win32,61.33464181,Chrome,1536,864,,,,,1,982,,,,,,,,,,,,,,,,,S,146,circle,1,0,,,,,,,,,,,,,,,,repeat,number,numRpt,j,0.8865,Lo,,,,,,2,,,,,,,,high,7,0,7,0,1,,,,,,,,,
294859,2022-12-04_22h25.21.379,vts_reward_expectancy_bt,2022.2.4,Win32,61.33464181,Chrome,1536,864,,,,,1,983,,,,,,,,,,,,,,,,,H,174,circle,1,0,,,,,,,,,,,,,,,,switch,letter,lettSwt,d,2.7937,Lo,,,,,,2,,,,,,,,high,8,0,8,0,1,,,,,,,,,
294859,2022-12-04_22h25.21.379,vts_reward_expectancy_bt,2022.2.4,Win32,61.33464181,Chrome,1536,864,,,,,1,984,,,,,,,,,,,,,,,,,U,160,star,1,0,,,,,,,,,,,,,,,,repeat,letter,lettRpt,f,1.0262,Lo,,,,,,2,,,,,,,,high,9,0,9,0,1,,,,,,,,,
294859,2022-12-04_22h25.21.379,vts_reward_expectancy_bt,2022.2.4,Win32,61.33464181,Chrome,1536,864,,,,,0,984,,,,,,,,,,,,,,,,,W,139,triangle,0,0,,,,,,,,,,,,,,,,repeat,letter,NA,d,0.862,Lo,,,,,,2,,,,,,,,high,10,0,10,0,1,,,,,,,,,
294859,2022-12-04_22h25.21.379,vts_reward_expectancy_bt,2022.2.4,Win32,61.33464181,Chrome,1536,864,,,,,0,984,,,,,,,,,,,,,,,,,D,167,hexagon,1,1,,,,,,,,,,,,,,,,switch,number,numSwt,k,1.6286,Hi,,,,,,2,,,,,,,,high,11,0,11,0,1,,,,,,,,,
294859,2022-12-04_22h25.21.379,vts_reward_expectancy_bt,2022.2.4,Win32,61.33464181,Chrome,1536,864,,,,,1,985,,,,,,,,,,,,,,,,,F,132,circle,1,0,,,,,,,,,,,,,,,,repeat,number,numRpt,j,0.7276,Lo,,,,,,2,,,,,,,,high,12,0,12,0,1,,,,,,,,,
294859,2022-12-04_22h25.21.379,vts_reward_expectancy_bt,2022.2.4,Win32,61.33464181,Chrome,1536,864,,,,,0,985,,,,,,,,,,,,,,,,,Y,125,hexagon,1,0,,,,,,,,,,,,,,,,switch,letter,lettSwt,f,1.0292,Hi,,,,,,2,,,,,,,,high,13,0,13,0,1,,,,,,,,,
294859,2022-12-04_22h25.21.379,vts_reward_expectancy_bt,2022.2.4,Win32,61.33464181,Chrome,1536,864,,,,,1,986,,,,,,,,,,,,,,,,,B,181,star,1,0,,,,,,,,,,,,,,,,repeat,letter,lettRpt,d,1.7255,Lo,,,,,,2,,,,,,,,high,14,0,14,0,1,,,,,,,,,
294859,2022-12-04_22h25.21.379,vts_reward_expectancy_bt,2022.2.4,Win32,61.33464181,Chrome,1536,864,,,,,0,986,,,,,,,,,,,,,,,,,S,146,triangle,1,0,,,,,,,,,,,,,,,,repeat,letter,lettRpt,f,1.2268,Hi,,,,,,2,,,,,,,,high,15,0,15,0,1,,,,,,,,,
294859,2022-12-04_22h25.21.379,vts_reward_expectancy_bt,2022.2.4,Win32,61.33464181,Chrome,1536,864,,,,,0,986,,,,,,,,,,,,,,,,,Y,146,star,0,0,,,,,,,,,,,,,,,,switch,number,NA,k,0.8137,Hi,,,,,,2,,,,,,,,high,16,0,16,0,1,,,,,,,,,
294859,2022-12-04_22h25.21.379,vts_reward_expectancy_bt,2022.2.4,Win32,61.33464181,Chrome,1536,864,,,,,0,986,,,,,,,,,,,,,,,,,U,167,triangle,1,1,,,,,,,,,,,,,,,,switch,letter,lettSwt,f,1.032,Hi,,,,,,2,,,,,,,,high,17,0,17,0,1,,,,,,,,,
294859,2022-12-04_22h25.21.379,vts_reward_expectancy_bt,2022.2.4,Win32,61.33464181,Chrome,1536,864,,,,,0,986,,,,,,,,,,,,,,,,,S,139,hexagon,1,0,,,,,,,,,,,,,,,,repeat,letter,lettRpt,f,1.4298,Hi,,,,,,2,,,,,,,,high,18,0,18,0,1,,,,,,,,,
294859,2022-12-04_22h25.21.379,vts_reward_expectancy_bt,2022.2.4,Win32,61.33464181,Chrome,1536,864,,,,,1,987,,,,,,,,,,,,,,,,,H,174,circle,1,0,,,,,,,,,,,,,,,,repeat,letter,lettRpt,d,0.8791,Lo,,,,,,2,,,,,,,,high,19,0,19,0,1,,,,,,,,,
294859,2022-12-04_22h25.21.379,vts_reward_expectancy_bt,2022.2.4,Win32,61.33464181,Chrome,1536,864,,,,,0,987,,,,,,,,,,,,,,,,,B,160,circle,0,0,,,,,,,,,,,,,,,,repeat,letter,NA,f,0.0477,Lo,,,,,,2,,,,,,,,high,20,0,20,0,1,,,,,,,,,
294859,2022-12-04_22h25.21.379,vts_reward_expectancy_bt,2022.2.4,Win32,61.33464181,Chrome,1536,864,,,,,0,987,,,,,,,,,,,,,,,,,F,132,hexagon,1,1,,,,,,,,,,,,,,,,switch,number,numSwt,j,2.2064,Hi,,,,,,2,,,,,,,,high,21,0,21,0,1,,,,,,,,,
294859,2022-12-04_22h25.21.379,vts_reward_expectancy_bt,2022.2.4,Win32,61.33464181,Chrome,1536,864,,,,,1,988,,,,,,,,,,,,,,,,,D,125,star,1,0,,,,,,,,,,,,,,,,repeat,number,numRpt,j,0.7792,Lo,,,,,,2,,,,,,,,high,22,0,22,0,1,,,,,,,,,
294859,2022-12-04_22h25.21.379,vts_reward_expectancy_bt,2022.2.4,Win32,61.33464181,Chrome,1536,864,,,,,0,988,,,,,,,,,,,,,,,,,W,181,triangle,0,0,,,,,,,,,,,,,,,,switch,letter,NA,d,0.8955,Lo,,,,,,2,,,,,,,,high,23,0,23,0,1,,,,,,,,,
294859,2022-12-04_22h25.21.379,vts_reward_expectancy_bt,2022.2.4,Win32,61.33464181,Chrome,1536,864,,,,,10,998,,,,,,,,,,,,,,,,,S,125,triangle,1,1,,,,,,,,,,,,,,,,repeat,letter,lettRpt,f,0.697,Hi,,,,,,2,,,,,,,,high,24,0,24,0,1,,,,,,,,,
294859,2022-12-04_22h25.21.379,vts_reward_expectancy_bt,2022.2.4,Win32,61.33464181,Chrome,1536,864,,,,,1,999,,,,,,,,,,,,,,,,,F,146,circle,1,0,,,,,,,,,,,,,,,,switch,number,numSwt,j,1.6764,Lo,,,,,,2,,,,,,,,high,25,0,25,0,1,,,,,,,,,
294859,2022-12-04_22h25.21.379,vts_reward_expectancy_bt,2022.2.4,Win32,61.33464181,Chrome,1536,864,,,,,10,1009,,,,,,,,,,,,,,,,,H,160,star,1,0,,,,,,,,,,,,,,,,switch,letter,lettSwt,d,1.0639,Lo,,,,,,2,,,,,,,,high,26,0,26,0,1,,,,,,,,,
294859,2022-12-04_22h25.21.379,vts_reward_expectancy_bt,2022.2.4,Win32,61.33464181,Chrome,1536,864,,,,,1,1010,,,,,,,,,,,,,,,,,B,174,hexagon,1,0,,,,,,,,,,,,,,,,switch,number,numSwt,k,0.8276,Hi,,,,,,2,,,,,,,,high,27,0,27,0,1,,,,,,,,,
294859,2022-12-04_22h25.21.379,vts_reward_expectancy_bt,2022.2.4,Win32,61.33464181,Chrome,1536,864,,,,,10,1020,,,,,,,,,,,,,,,,,U,181,triangle,1,0,,,,,,,,,,,,,,,,switch,letter,lettSwt,f,0.6536,Hi,,,,,,2,,,,,,,,high,28,0,28,0,1,,,,,,,,,
294859,2022-12-04_22h25.21.379,vts_reward_expectancy_bt,2022.2.4,Win32,61.33464181,Chrome,1536,864,,,,,10,1030,,,,,,,,,,,,,,,,,W,167,hexagon,1,0,,,,,,,,,,,,,,,,switch,number,numSwt,k,1.0323,Hi,,,,,,2,,,,,,,,high,29,0,29,0,1,,,,,,,,,
294859,2022-12-04_22h25.21.379,vts_reward_expectancy_bt,2022.2.4,Win32,61.33464181,Chrome,1536,864,,,,,1,1031,,,,,,,,,,,,,,,,,D,132,circle,1,0,,,,,,,,,,,,,,,,switch,letter,lettSwt,d,1.4793,Lo,,,,,,2,,,,,,,,high,30,0,30,0,1,,,,,,,,,
294859,2022-12-04_22h25.21.379,vts_reward_expectancy_bt,2022.2.4,Win32,61.33464181,Chrome,1536,864,,,,,10,1041,,,,,,,,,,,,,,,,,Y,139,star,1,0,,,,,,,,,,,,,,,,switch,number,numSwt,j,0.7799,Lo,,,,,,2,,,,,,,,high,31,0,31,0,1,,,,,,,,,
294859,2022-12-04_22h25.21.379,vts_reward_expectancy_bt,2022.2.4,Win32,61.33464181,Chrome,1536,864,,,,,0,1041,,,,,,,,,,,,,,,,,U,139,triangle,1,0,,,,,,,,,,,,,,,,switch,letter,lettSwt,f,2.1429,Hi,,,,,,3,,,,,,space,1.0729,high,0,0,0,0,1,,,,,,,,,
294859,2022-12-04_22h25.21.379,vts_reward_expectancy_bt,2022.2.4,Win32,61.33464181,Chrome,1536,864,,,,,1,1042,,,,,,,,,,,,,,,,,S,146,circle,1,0,,,,,,,,,,,,,,,,repeat,letter,lettRpt,f,0.661,Lo,,,,,,3,,,,,,,,high,1,0,1,0,1,,,,,,,,,
294859,2022-12-04_22h25.21.379,vts_reward_expectancy_bt,2022.2.4,Win32,61.33464181,Chrome,1536,864,,,,,0,1042,,,,,,,,,,,,,,,,,Y,132,hexagon,1,0,,,,,,,,,,,,,,,,switch,number,numSwt,j,1.6099,Hi,,,,,,3,,,,,,,,high,2,0,2,0,1,,,,,,,,,
294859,2022-12-04_22h25.21.379,vts_reward_expectancy_bt,2022.2.4,Win32,61.33464181,Chrome,1536,864,,,,,1,1043,,,,,,,,,,,,,,,,,W,174,star,1,0,,,,,,,,,,,,,,,,repeat,number,numRpt,k,1.017,Lo,,,,,,3,,,,,,,,high,3,0,3,0,1,,,,,,,,,
294859,2022-12-04_22h25.21.379,vts_reward_expectancy_bt,2022.2.4,Win32,61.33464181,Chrome,1536,864,,,,,0,1043,,,,,,,,,,,,,,,,,B,160,triangle,-1,0,,,,,,,,,,,,,,,,switch,no_choice,NA,,,Lo,,,,,,3,,,,,,,,high,4,0,4,0,1,,,,,,,,,
294859,2022-12-04_22h25.21.379,vts_reward_expectancy_bt,2022.2.4,Win32,61.33464181,Chrome,1536,864,,,,,1,1044,,,,,,,,,,,,,,,,,H,125,circle,1,0,,,,,,,,,,,,,,,,switch,number,numSwt,j,1.1433,Lo,,,,,,3,,,,,,,,high,5,0,5,0,1,,,,,,,,,
294859,2022-12-04_22h25.21.379,vts_reward_expectancy_bt,2022.2.4,Win32,61.33464181,Chrome,1536,864,,,,,10,1054,,,,,,,,,,,,,,,,,D,167,hexagon,1,0,,,,,,,,,,,,,,,,repeat,number,numRpt,k,0.692,Hi,,,,,,3,,,,,,,,high,6,0,6,0,1,,,,,,,,,
294859,2022-12-04_22h25.21.379,vts_reward_expectancy_bt,2022.2.4,Win32,61.33464181,Chrome,1536,864,,,,,1,1055,,,,,,,,,,,,,,,,,F,181,star,1,0,,,,,,,,,,,,,,,,repeat,number,numRpt,k,0.7774,Lo,,,,,,3,,,,,,,,high,7,0,7,0,1,,,,,,,,,
294859,2022-12-04_22h25.21.379,vts_reward_expectancy_bt,2022.2.4,Win32,61.33464181,Chrome,1536,864,,,,,0,1055,,,,,,,,,,,,,,,,,U,139,hexagon,1,0,,,,,,,,,,,,,,,,repeat,number,numRpt,j,1.2278,Hi,,,,,,3,,,,,,,,high,8,0,8,0,1,,,,,,,,,
294859,2022-12-04_22h25.21.379,vts_reward_expectancy_bt,2022.2.4,Win32,61.33464181,Chrome,1536,864,,,,,1,1056,,,,,,,,,,,,,,,,,S,146,star,1,0,,,,,,,,,,,,,,,,repeat,number,numRpt,j,0.8984,Lo,,,,,,3,,,,,,,,high,9,0,9,0,1,,,,,,,,,
294859,2022-12-04_22h25.21.379,vts_reward_expectancy_bt,2022.2.4,Win32,61.33464181,Chrome,1536,864,,,,,1,1057,,,,,,,,,,,,,,,,,Y,132,circle,1,0,,,,,,,,,,,,,,,,repeat,number,numRpt,j,0.6822,Lo,,,,,,3,,,,,,,,high,10,0,10,0,1,,,,,,,,,
294859,2022-12-04_22h25.21.379,vts_reward_expectancy_bt,2022.2.4,Win32,61.33464181,Chrome,1536,864,,,,,10,1067,,,,,,,,,,,,,,,,,W,174,triangle,1,0,,,,,,,,,,,,,,,,repeat,number,numRpt,k,0.7782,Hi,,,,,,3,,,,,,,,high,11,0,11,0,1,,,,,,,,,
294859,2022-12-04_22h25.21.379,vts_reward_expectancy_bt,2022.2.4,Win32,61.33464181,Chrome,1536,864,,,,,0,1067,,,,,,,,,,,,,,,,,B,160,hexagon,1,0,,,,,,,,,,,,,,,,repeat,number,numRpt,k,0.8496,Hi,,,,,,3,,,,,,,,high,12,0,12,0,1,,,,,,,,,
294859,2022-12-04_22h25.21.379,vts_reward_expectancy_bt,2022.2.4,Win32,61.33464181,Chrome,1536,864,,,,,1,1068,,,,,,,,,,,,,,,,,H,125,star,1,0,,,,,,,,,,,,,,,,repeat,number,numRpt,j,0.6935,Lo,,,,,,3,,,,,,,,high,13,0,13,0,1,,,,,,,,,
294859,2022-12-04_22h25.21.379,vts_reward_expectancy_bt,2022.2.4,Win32,61.33464181,Chrome,1536,864,,,,,10,1078,,,,,,,,,,,,,,,,,D,167,triangle,1,0,,,,,,,,,,,,,,,,repeat,number,numRpt,k,0.7951,Hi,,,,,,3,,,,,,,,high,14,0,14,0,1,,,,,,,,,
294859,2022-12-04_22h25.21.379,vts_reward_expectancy_bt,2022.2.4,Win32,61.33464181,Chrome,1536,864,,,,,10,1088,,,,,,,,,,,,,,,,,F,181,circle,1,0,,,,,,,,,,,,,,,,repeat,number,numRpt,k,0.9947,Lo,,,,,,3,,,,,,,,high,15,0,15,0,1,,,,,,,,,
294859,2022-12-04_22h25.21.379,vts_reward_expectancy_bt,2022.2.4,Win32,61.33464181,Chrome,1536,864,,,,,1,1089,,,,,,,,,,,,,,,,,B,132,circle,1,0,,,,,,,,,,,,,,,,repeat,number,numRpt,j,1.3608,Lo,,,,,,3,,,,,,,,high,16,0,16,0,1,,,,,,,,,
294859,2022-12-04_22h25.21.379,vts_reward_expectancy_bt,2022.2.4,Win32,61.33464181,Chrome,1536,864,,,,,0,1089,,,,,,,,,,,,,,,,,D,125,triangle,1,0,,,,,,,,,,,,,,,,repeat,number,numRpt,j,2.3392,Hi,,,,,,3,,,,,,,,high,17,0,17,0,1,,,,,,,,,
294859,2022-12-04_22h25.21.379,vts_reward_expectancy_bt,2022.2.4,Win32,61.33464181,Chrome,1536,864,,,,,1,1090,,,,,,,,,,,,,,,,,F,167,star,1,0,,,,,,,,,,,,,,,,repeat,number,numRpt,k,0.746,Lo,,,,,,3,,,,,,,,high,18,0,18,0,1,,,,,,,,,
294859,2022-12-04_22h25.21.379,vts_reward_expectancy_bt,2022.2.4,Win32,61.33464181,Chrome,1536,864,,,,,0,1090,,,,,,,,,,,,,,,,,Y,139,hexagon,1,0,,,,,,,,,,,,,,,,repeat,number,numRpt,j,1.7177,Hi,,,,,,3,,,,,,,,high,19,0,19,0,1,,,,,,,,,
294859,2022-12-04_22h25.21.379,vts_reward_expectancy_bt,2022.2.4,Win32,61.33464181,Chrome,1536,864,,,,,0,1090,,,,,,,,,,,,,,,,,S,146,triangle,1,0,,,,,,,,,,,,,,,,repeat,number,numRpt,j,1.8739,Hi,,,,,,3,,,,,,,,high,20,0,20,0,1,,,,,,,,,
294859,2022-12-04_22h25.21.379,vts_reward_expectancy_bt,2022.2.4,Win32,61.33464181,Chrome,1536,864,,,,,1,1091,,,,,,,,,,,,,,,,,U,160,circle,1,0,,,,,,,,,,,,,,,,repeat,number,numRpt,k,0.5947,Lo,,,,,,3,,,,,,,,high,21,0,21,0,1,,,,,,,,,
294859,2022-12-04_22h25.21.379,vts_reward_expectancy_bt,2022.2.4,Win32,61.33464181,Chrome,1536,864,,,,,0,1091,,,,,,,,,,,,,,,,,W,174,hexagon,1,0,,,,,,,,,,,,,,,,repeat,number,numRpt,k,1.062,Hi,,,,,,3,,,,,,,,high,22,0,22,0,1,,,,,,,,,
294859,2022-12-04_22h25.21.379,vts_reward_expectancy_bt,2022.2.4,Win32,61.33464181,Chrome,1536,864,,,,,1,1092,,,,,,,,,,,,,,,,,H,181,star,1,0,,,,,,,,,,,,,,,,repeat,number,numRpt,k,0.7679,Lo,,,,,,3,,,,,,,,high,23,0,23,0,1,,,,,,,,,
294859,2022-12-04_22h25.21.379,vts_reward_expectancy_bt,2022.2.4,Win32,61.33464181,Chrome,1536,864,,,,,10,1102,,,,,,,,,,,,,,,,,F,132,triangle,1,0,,,,,,,,,,,,,,,,repeat,number,numRpt,j,0.7985,Hi,,,,,,3,,,,,,,,high,24,0,24,0,1,,,,,,,,,
294859,2022-12-04_22h25.21.379,vts_reward_expectancy_bt,2022.2.4,Win32,61.33464181,Chrome,1536,864,,,,,0,1102,,,,,,,,,,,,,,,,,D,167,hexagon,0,0,,,,,,,,,,,,,,,,repeat,number,NA,j,1.2481,Hi,,,,,,3,,,,,,,,high,25,0,25,0,1,,,,,,,,,
294859,2022-12-04_22h25.21.379,vts_reward_expectancy_bt,2022.2.4,Win32,61.33464181,Chrome,1536,864,,,,,10,1112,,,,,,,,,,,,,,,,,S,160,circle,1,1,,,,,,,,,,,,,,,,repeat,number,numRpt,k,1.677,Lo,,,,,,3,,,,,,,,high,26,0,26,0,1,,,,,,,,,
294859,2022-12-04_22h25.21.379,vts_reward_expectancy_bt,2022.2.4,Win32,61.33464181,Chrome,1536,864,,,,,1,1113,,,,,,,,,,,,,,,,,W,181,star,1,0,,,,,,,,,,,,,,,,repeat,number,numRpt,k,1.4166,Lo,,,,,,3,,,,,,,,high,27,0,27,0,1,,,,,,,,,
294859,2022-12-04_22h25.21.379,vts_reward_expectancy_bt,2022.2.4,Win32,61.33464181,Chrome,1536,864,,,,,0,1113,,,,,,,,,,,,,,,,,U,174,hexagon,1,0,,,,,,,,,,,,,,,,repeat,number,numRpt,k,1.629,Hi,,,,,,3,,,,,,,,high,28,0,28,0,1,,,,,,,,,
294859,2022-12-04_22h25.21.379,vts_reward_expectancy_bt,2022.2.4,Win32,61.33464181,Chrome,1536,864,,,,,1,1114,,,,,,,,,,,,,,,,,H,146,star,1,0,,,,,,,,,,,,,,,,repeat,number,numRpt,j,1.6977,Lo,,,,,,3,,,,,,,,high,29,0,29,0,1,,,,,,,,,
294859,2022-12-04_22h25.21.379,vts_reward_expectancy_bt,2022.2.4,Win32,61.33464181,Chrome,1536,864,,,,,10,1124,,,,,,,,,,,,,,,,,Y,125,triangle,1,0,,,,,,,,,,,,,,,,repeat,number,numRpt,j,0.7365,Hi,,,,,,3,,,,,,,,high,30,0,30,0,1,,,,,,,,,
294859,2022-12-04_22h25.21.379,vts_reward_expectancy_bt,2022.2.4,Win32,61.33464181,Chrome,1536,864,,,,,1,1125,,,,,,,,,,,,,,,,,B,139,circle,1,0,,,,,,,,,,,,,,,,repeat,number,numRpt,j,0.7493,Lo,,,,,,3,,,,,,,,high,31,0,31,0,1,,,,,,,,,
294859,2022-12-04_22h25.21.379,vts_reward_expectancy_bt,2022.2.4,Win32,61.33464181,Chrome,1536,864,,,,,0,1125,,,,,,,,,,,,,,,,,F,181,triangle,1,0,,,,,,,,,,,,,,,,switch,letter,lettSwt,d,2.2466,Hi,,,,,,4,,,,,,space,0.9544,high,0,0,0,0,1,,,,,,,,,
294859,2022-12-04_22h25.21.379,vts_reward_expectancy_bt,2022.2.4,Win32,61.33464181,Chrome,1536,864,,,,,1,1126,,,,,,,,,,,,,,,,,D,160,circle,1,0,,,,,,,,,,,,,,,,repeat,letter,lettRpt,d,1.0595,Lo,,,,,,4,,,,,,,,high,1,0,1,0,1,,,,,,,,,
294859,2022-12-04_22h25.21.379,vts_reward_expectancy_bt,2022.2.4,Win32,61.33464181,Chrome,1536,864,,,,,1,1127,,,,,,,,,,,,,,,,,B,167,star,1,0,,,,,,,,,,,,,,,,repeat,letter,lettRpt,d,0.5444,Lo,,,,,,4,,,,,,,,high,2,0,2,0,1,,,,,,,,,
294859,2022-12-04_22h25.21.379,vts_reward_expectancy_bt,2022.2.4,Win32,61.33464181,Chrome,1536,864,,,,,0,1127,,,,,,,,,,,,,,,,,U,125,hexagon,1,0,,,,,,,,,,,,,,,,repeat,letter,lettRpt,f,0.7501,Hi,,,,,,4,,,,,,,,high,3,0,3,0,1,,,,,,,,,
294859,2022-12-04_22h25.21.379,vts_reward_expectancy_bt,2022.2.4,Win32,61.33464181,Chrome,1536,864,,,,,0,1127,,,,,,,,,,,,,,,,,Y,146,triangle,1,0,,,,,,,,,,,,,,,,repeat,letter,lettRpt,f,2.5088,Hi,,,,,,4,,,,,,,,high,4,0,4,0,1,,,,,,,,,
294859,2022-12-04_22h25.21.379,vts_reward_expectancy_bt,2022.2.4,Win32,61.33464181,Chrome,1536,864,,,,,0,1127,,,,,,,,,,,,,,,,,H,139,circle,0,0,,,,,,,,,,,,,,,,repeat,letter,NA,f,0.911,Hi,,,,,,4,,,,,,,,high,5,0,5,0,1,,,,,,,,,
294859,2022-12-04_22h25.21.379,vts_reward_expectancy_bt,2022.2.4,Win32,61.33464181,Chrome,1536,864,,,,,10,1137,,,,,,,,,,,,,,,,,S,132,star,1,1,,,,,,,,,,,,,,,,repeat,letter,lettRpt,f,0.9785,Lo,,,,,,4,,,,,,,,high,6,0,6,0,1,,,,,,,,,
294859,2022-12-04_22h25.21.379,vts_reward_expectancy_bt,2022.2.4,Win32,61.33464181,Chrome,1536,864,,,,,0,1137,,,,,,,,,,,,,,,,,W,174,hexagon,1,0,,,,,,,,,,,,,,,,repeat,letter,lettRpt,f,0.7317,Hi,,,,,,4,,,,,,,,high,7,0,7,0,1,,,,,,,,,
294859,2022-12-04_22h25.21.379,vts_reward_expectancy_bt,2022.2.4,Win32,61.33464181,Chrome,1536,864,,,,,0,1137,,,,,,,,,,,,,,,,,F,181,hexagon,1,0,,,,,,,,,,,,,,,,repeat,letter,lettRpt,d,0.9788,Hi,,,,,,4,,,,,,,,high,8,0,8,0,1,,,,,,,,,
294859,2022-12-04_22h25.21.379,vts_reward_expectancy_bt,2022.2.4,Win32,61.33464181,Chrome,1536,864,,,,,10,1147,,,,,,,,,,,,,,,,,D,160,star,1,0,,,,,,,,,,,,,,,,repeat,letter,lettRpt,d,1.3483,Lo,,,,,,4,,,,,,,,high,9,0,9,0,1,,,,,,,,,
294859,2022-12-04_22h25.21.379,vts_reward_expectancy_bt,2022.2.4,Win32,61.33464181,Chrome,1536,864,,,,,1,1148,,,,,,,,,,,,,,,,,B,167,circle,1,0,,,,,,,,,,,,,,,,repeat,letter,lettRpt,d,0.7272,Lo,,,,,,4,,,,,,,,high,10,0,10,0,1,,,,,,,,,
294859,2022-12-04_22h25.21.379,vts_reward_expectancy_bt,2022.2.4,Win32,61.33464181,Chrome,1536,864,,,,,0,1148,,,,,,,,,,,,,,,,,U,125,triangle,1,0,,,,,,,,,,,,,,,,repeat,letter,lettRpt,f,0.7267,Hi,,,,,,4,,,,,,,,high,11,0,11,0,1,,,,,,,,,
294859,2022-12-04_22h25.21.379,vts_reward_expectancy_bt,2022.2.4,Win32,61.33464181,Chrome,1536,864,,,,,1,1149,,,,,,,,,,,,,,,,,Y,146,circle,1,0,,,,,,,,,,,,,,,,repeat,letter,lettRpt,f,0.6445,Lo,,,,,,4,,,,,,,,high,12,0,12,0,1,,,,,,,,,
294859,2022-12-04_22h25.21.379,vts_reward_expectancy_bt,2022.2.4,Win32,61.33464181,Chrome,1536,864,,,,,0,1149,,,,,,,,,,,,,,,,,H,139,star,-1,0,,,,,,,,,,,,,,,,switch,no_choice,NA,,,Lo,,,,,,4,,,,,,,,high,13,0,13,0,1,,,,,,,,,
294859,2022-12-04_22h25.21.379,vts_reward_expectancy_bt,2022.2.4,Win32,61.33464181,Chrome,1536,864,,,,,0,1149,,,,,,,,,,,,,,,,,S,132,triangle,1,0,,,,,,,,,,,,,,,,switch,letter,lettSwt,f,2.6246,Hi,,,,,,4,,,,,,,,high,14,0,14,0,1,,,,,,,,,
294859,2022-12-04_22h25.21.379,vts_reward_expectancy_bt,2022.2.4,Win32,61.33464181,Chrome,1536,864,,,,,0,1149,,,,,,,,,,,,,,,,,W,174,hexagon,1,0,,,,,,,,,,,,,,,,repeat,letter,lettRpt,f,0.8814,Hi,,,,,,4,,,,,,,,high,15,0,15,0,1,,,,,,,,,
294859,2022-12-04_22h25.21.379,vts_reward_expectancy_bt,2022.2.4,Win32,61.33464181,Chrome,1536,864,,,,,1,1150,,,,,,,,,,,,,,,,,D,125,circle,1,0,,,,,,,,,,,,,,,,repeat,letter,lettRpt,d,1.3274,Lo,,,,,,4,,,,,,,,high,16,0,16,0,1,,,,,,,,,