participant,date,expName,psychopyVersion,OS,frameRate,browser,xResolution,yResolution,key_resp.keys,key_resp.rt,training_resp.keys,training_resp.rt,points_trial,points_cumul,trainBlock,training.thisRepN,training.thisTrialN,training.thisN,training.thisIndex,training.ran,LTriangleOpac,LCircleOpac,LHexagonOpac,LStarOpac,RTriangleOpac,RCircleOpac,RHexagonOpac,RStarOpac,LShape_ID,RShape_ID,curr_topStim,curr_bottStim,curr_shape,acc,E1,target_resp_prac1.keys,pracBlock,task1_prac_trials.thisRepN,task1_prac_trials.thisTrialN,task1_prac_trials.thisN,task1_prac_trials.thisIndex,task1_prac_trials.ran,target_resp_prac1.rt,target_resp_prac2.keys,task2_praac_trials.thisRepN,task2_praac_trials.thisTrialN,task2_praac_trials.thisN,task2_praac_trials.thisIndex,task2_praac_trials.ran,target_resp_prac2.rt,alt,task,condition,target_resp.keys,rewCond,vts_practice_trials.thisRepN,vts_practice_trials.thisTrialN,vts_practice_trials.thisN,vts_practice_trials.thisIndex,vts_practice_trials.ran,target_resp.rt,blockNum,trials_norew.thisRepN,trials_norew.thisTrialN,trials_norew.thisN,trials_norew.thisIndex,trials_norew.ran,key_resp_2.keys,key_resp_2.rt,rewExpectancy,trials_rew.thisRepN,trials_rew.thisTrialN,trials_rew.thisN,trials_rew.thisIndex,trials_rew.ran,Q1,Q2,Q2_text,Q3,Q4,Q5_text,Q5,xRes,yRes
294910,2022-12-01_11h30.23.647,vts_reward_expectancy_bt,2022.2.4,MacIntel,59.99880002,Chrome,1440,900,,,,,,,,,,,,,,,,,,,,,,,,,,,,,,,,,,,,,,,,,,,,,,,,,,,,,,,,,,,,,,,,,,,,,,,,,,,,
294910,2022-12-01_11h30.23.647,vts_reward_expectancy_bt,2022.2.4,MacIntel,59.99880002,Chrome,1440,900,space,74.0335,,,,,,,,,,,,,,,,,,,,,,,,,,,,,,,,,,,,,,,,,,,,,,,,,,,,,,,,,,,,,,,,,,,,,,,,,,
294910,2022-12-01_11h30.23.647,vts_reward_expectancy_bt,2022.2.4,MacIntel,59.99880002,Chrome,1440,900,,,,,,,,,,,,,,,,,,,,,,,,,,,,,,,,,,,,,,,,,,,,,,,,,,,,,,,,,,,,,,,,,,,,,,,,,,,,
294910,2022-12-01_11h30.23.647,vts_reward_expectancy_bt,2022.2.4,MacIntel,59.99880002,Chrome,1440,900,,,a,0.8546,1,1,0,0,0,0,11,1,0,0,0,1,0,0,1,0,star,hexagon,,,,,,,,,,,,,,,,,,,,,,,,,,,,,,,,,,,,,,,,,,,,,,,,,,,,,,
294910,2022-12-01_11h30.23.647,vts_reward_expectancy_bt,2022.2.4,MacIntel,59.99880002,Chrome,1440,900,,,a,0.3639,10,11,0,0,1,1,3,1,0,1,0,0,1,0,0,0,circle,triangle,,,,,,,,,,,,,,,,,,,,,,,,,,,,,,,,,,,,,,,,,,,,,,,,,,,,,,
294910,2022-12-01_11h30.23.647,vts_reward_expectancy_bt,2022.2.4,MacIntel,59.99880002,Chrome,1440,900,,,l,0.8414,10,21,0,0,2,2,0,1,1,0,0,0,0,1,0,0,triangle,circle,,,,,,,,,,,,,,,,,,,,,,,,,,,,,,,,,,,,,,,,,,,,,,,,,,,,,,
294910,2022-12-01_11h30.23.647,vts_reward_expectancy_bt,2022.2.4,MacIntel,59.99880002,Chrome,1440,900,,,l,0.5472,10,31,0,0,3,3,10,1,0,0,0,1,0,1,0,0,star ,circle,,,,,,,,,,,,,,,,,,,,,,,,,,,,,,,,,,,,,,,,,,,,,,,,,,,,,,
294910,2022-12-01_11h30.23.647,vts_reward_expectancy_bt,2022.2.4,MacIntel,59.99880002,Chrome,1440,900,,,a,0.6372,10,41,0,0,4,4,1,1,1,0,0,0,0,0,1,0,triangle,hexagon,,,,,,,,,,,,,,,,,,,,,,,,,,,,,,,,,,,,,,,,,,,,,,,,,,,,,,
294910,2022-12-01_11h30.23.647,vts_reward_expectancy_bt,2022.2.4,MacIntel,59.99880002,Chrome,1440,900,,,a,0.5363,1,42,0,0,5,5,2,1,1,0,0,0,0,0,0,1,triangle,star,,,,,,,,,,,,,,,,,,,,,,,,,,,,,,,,,,,,,,,,,,,,,,,,,,,,,,
294910,2022-12-01_11h30.23.647,vts_reward_expectancy_bt,2022.2.4,MacIntel,59.99880002,Chrome,1440,900,,,l,0.2903,1,43,0,0,6,6,6,1,0,0,1,0,1,0,0,0,hexagon,triangle,,,,,,,,,,,,,,,,,,,,,,,,,,,,,,,,,,,,,,,,,,,,,,,,,,,,,,
294910,2022-12-01_11h30.23.647,vts_reward_expectancy_bt,2022.2.4,MacIntel,59.99880002,Chrome,1440,900,,,a,0.3042,1,44,0,0,7,7,8,1,0,0,1,0,0,0,0,1,hexagon,star,,,,,,,,,,,,,,,,,,,,,,,,,,,,,,,,,,,,,,,,,,,,,,,,,,,,,,
294910,2022-12-01_11h30.23.647,vts_reward_expectancy_bt,2022.2.4,MacIntel,59.99880002,Chrome,1440,900,,,l,0.2327,10,54,0,0,8,8,5,1,0,1,0,0,0,0,0,1,circle,star,,,,,,,,,,,,,,,,,,,,,,,,,,,,,,,,,,,,,,,,,,,,,,,,,,,,,,
294910,2022-12-01_11h30.23.647,vts_reward_expectancy_bt,2022.2.4,MacIntel,59.99880002,Chrome,1440,900,,,l,0.2719,1,55,0,0,9,9,9,1,0,0,0,1,1,0,0,0,star,triangle,,,,,,,,,,,,,,,,,,,,,,,,,,,,,,,,,,,,,,,,,,,,,,,,,,,,,,
294910,2022-12-01_11h30.23.647,vts_reward_expectancy_bt,2022.2.4,MacIntel,59.99880002,Chrome,1440,900,,,a,0.2994,10,65,0,0,10,10,7,1,0,0,1,0,0,1,0,0,hexagon,circle,,,,,,,,,,,,,,,,,,,,,,,,,,,,,,,,,,,,,,,,,,,,,,,,,,,,,,
294910,2022-12-01_11h30.23.647,vts_reward_expectancy_bt,2022.2.4,MacIntel,59.99880002,Chrome,1440,900,,,a,0.3012,10,75,0,0,11,11,4,1,0,1,0,0,0,0,1,0,circle,hexagon,,,,,,,,,,,,,,,,,,,,,,,,,,,,,,,,,,,,,,,,,,,,,,,,,,,,,,
294910,2022-12-01_11h30.23.647,vts_reward_expectancy_bt,2022.2.4,MacIntel,59.99880002,Chrome,1440,900,,,a,0.2658,10,85,0,1,0,12,3,1,0,1,0,0,1,0,0,0,circle,triangle,,,,,,,,,,,,,,,,,,,,,,,,,,,,,,,,,,,,,,,,,,,,,,,,,,,,,,
294910,2022-12-01_11h30.23.647,vts_reward_expectancy_bt,2022.2.4,MacIntel,59.99880002,Chrome,1440,900,,,l,0.3029,10,95,0,1,1,13,4,1,0,1,0,0,0,0,1,0,circle,hexagon,,,,,,,,,,,,,,,,,,,,,,,,,,,,,,,,,,,,,,,,,,,,,,,,,,,,,,
294910,2022-12-01_11h30.23.647,vts_reward_expectancy_bt,2022.2.4,MacIntel,59.99880002,Chrome,1440,900,,,l,0.3329,10,105,0,1,2,14,9,1,0,0,0,1,1,0,0,0,star,triangle,,,,,,,,,,,,,,,,,,,,,,,,,,,,,,,,,,,,,,,,,,,,,,,,,,,,,,
294910,2022-12-01_11h30.23.647,vts_reward_expectancy_bt,2022.2.4,MacIntel,59.99880002,Chrome,1440,900,,,a,0.4497,10,115,0,1,3,15,1,1,1,0,0,0,0,0,1,0,triangle,hexagon,,,,,,,,,,,,,,,,,,,,,,,,,,,,,,,,,,,,,,,,,,,,,,,,,,,,,,
294910,2022-12-01_11h30.23.647,vts_reward_expectancy_bt,2022.2.4,MacIntel,59.99880002,Chrome,1440,900,,,l,0.3864,10,125,0,1,4,16,6,1,0,0,1,0,1,0,0,0,hexagon,triangle,,,,,,,,,,,,,,,,,,,,,,,,,,,,,,,,,,,,,,,,,,,,,,,,,,,,,,
294910,2022-12-01_11h30.23.647,vts_reward_expectancy_bt,2022.2.4,MacIntel,59.99880002,Chrome,1440,900,,,a,0.3159,1,126,0,1,5,17,8,1,0,0,1,0,0,0,0,1,hexagon,star,,,,,,,,,,,,,,,,,,,,,,,,,,,,,,,,,,,,,,,,,,,,,,,,,,,,,,
294910,2022-12-01_11h30.23.647,vts_reward_expectancy_bt,2022.2.4,MacIntel,59.99880002,Chrome,1440,900,,,a,0.283,1,127,0,1,6,18,2,1,1,0,0,0,0,0,0,1,triangle,star,,,,,,,,,,,,,,,,,,,,,,,,,,,,,,,,,,,,,,,,,,,,,,,,,,,,,,
294910,2022-12-01_11h30.23.647,vts_reward_expectancy_bt,2022.2.4,MacIntel,59.99880002,Chrome,1440,900,,,a,0.4319,1,128,0,1,7,19,7,1,0,0,1,0,0,1,0,0,hexagon,circle,,,,,,,,,,,,,,,,,,,,,,,,,,,,,,,,,,,,,,,,,,,,,,,,,,,,,,
294910,2022-12-01_11h30.23.647,vts_reward_expectancy_bt,2022.2.4,MacIntel,59.99880002,Chrome,1440,900,,,a,0.3177,1,129,0,1,8,20,5,1,0,1,0,0,0,0,0,1,circle,star,,,,,,,,,,,,,,,,,,,,,,,,,,,,,,,,,,,,,,,,,,,,,,,,,,,,,,
294910,2022-12-01_11h30.23.647,vts_reward_expectancy_bt,2022.2.4,MacIntel,59.99880002,Chrome,1440,900,,,l,0.2832,1,130,0,1,9,21,11,1,0,0,0,1,0,0,1,0,star,hexagon,,,,,,,,,,,,,,,,,,,,,,,,,,,,,,,,,,,,,,,,,,,,,,,,,,,,,,
294910,2022-12-01_11h30.23.647,vts_reward_expectancy_bt,2022.2.4,MacIntel,59.99880002,Chrome,1440,900,,,a,0.3844,10,140,0,1,10,22,0,1,1,0,0,0,0,1,0,0,triangle,circle,,,,,,,,,,,,,,,,,,,,,,,,,,,,,,,,,,,,,,,,,,,,,,,,,,,,,,
294910,2022-12-01_11h30.23.647,vts_reward_expectancy_bt,2022.2.4,MacIntel,59.99880002,Chrome,1440,900,,,l,0.3483,10,150,0,1,11,23,10,1,0,0,0,1,0,1,0,0,star ,circle,,,,,,,,,,,,,,,,,,,,,,,,,,,,,,,,,,,,,,,,,,,,,,,,,,,,,,
294910,2022-12-01_11h30.23.647,vts_reward_expectancy_bt,2022.2.4,MacIntel,59.99880002,Chrome,1440,900,,,a,0.5162,10,160,0,2,0,24,7,1,0,0,1,0,0,1,0,0,hexagon,circle,,,,,,,,,,,,,,,,,,,,,,,,,,,,,,,,,,,,,,,,,,,,,,,,,,,,,,
294910,2022-12-01_11h30.23.647,vts_reward_expectancy_bt,2022.2.4,MacIntel,59.99880002,Chrome,1440,900,,,l,0.5052,10,170,0,2,1,25,0,1,1,0,0,0,0,1,0,0,triangle,circle,,,,,,,,,,,,,,,,,,,,,,,,,,,,,,,,,,,,,,,,,,,,,,,,,,,,,,
294910,2022-12-01_11h30.23.647,vts_reward_expectancy_bt,2022.2.4,MacIntel,59.99880002,Chrome,1440,900,,,l,0.3996,1,171,0,2,2,26,10,1,0,0,0,1,0,1,0,0,star ,circle,,,,,,,,,,,,,,,,,,,,,,,,,,,,,,,,,,,,,,,,,,,,,,,,,,,,,,
294910,2022-12-01_11h30.23.647,vts_reward_expectancy_bt,2022.2.4,MacIntel,59.99880002,Chrome,1440,900,,,a,0.3027,1,172,0,2,3,27,5,1,0,1,0,0,0,0,0,1,circle,star,,,,,,,,,,,,,,,,,,,,,,,,,,,,,,,,,,,,,,,,,,,,,,,,,,,,,,
294910,2022-12-01_11h30.23.647,vts_reward_expectancy_bt,2022.2.4,MacIntel,59.99880002,Chrome,1440,900,,,a,0.4669,1,173,0,2,4,28,8,1,0,0,1,0,0,0,0,1,hexagon,star,,,,,,,,,,,,,,,,,,,,,,,,,,,,,,,,,,,,,,,,,,,,,,,,,,,,,,
294910,2022-12-01_11h30.23.647,vts_reward_expectancy_bt,2022.2.4,MacIntel,59.99880002,Chrome,1440,900,,,l,0.6,10,183,0,2,5,29,2,1,1,0,0,0,0,0,0,1,triangle,star,,,,,,,,,,,,,,,,,,,,,,,,,,,,,,,,,,,,,,,,,,,,,,,,,,,,,,
294910,2022-12-01_11h30.23.647,vts_reward_expectancy_bt,2022.2.4,MacIntel,59.99880002,Chrome,1440,900,,,a,0.6833,10,193,0,2,6,30,4,1,0,1,0,0,0,0,1,0,circle,hexagon,,,,,,,,,,,,,,,,,,,,,,,,,,,,,,,,,,,,,,,,,,,,,,,,,,,,,,
294910,2022-12-01_11h30.23.647,vts_reward_expectancy_bt,2022.2.4,MacIntel,59.99880002,Chrome,1440,900,,,l,0.9361,10,203,0,2,7,31,9,1,0,0,0,1,1,0,0,0,star,triangle,,,,,,,,,,,,,,,,,,,,,,,,,,,,,,,,,,,,,,,,,,,,,,,,,,,,,,
294910,2022-12-01_11h30.23.647,vts_reward_expectancy_bt,2022.2.4,MacIntel,59.99880002,Chrome,1440,900,,,l,0.5994,1,204,0,2,8,32,11,1,0,0,0,1,0,0,1,0,star,hexagon,,,,,,,,,,,,,,,,,,,,,,,,,,,,,,,,,,,,,,,,,,,,,,,,,,,,,,
294910,2022-12-01_11h30.23.647,vts_reward_expectancy_bt,2022.2.4,MacIntel,59.99880002,Chrome,1440,900,,,a,0.4192,1,205,0,2,9,33,6,1,0,0,1,0,1,0,0,0,hexagon,triangle,,,,,,,,,,,,,,,,,,,,,,,,,,,,,,,,,,,,,,,,,,,,,,,,,,,,,,
294910,2022-12-01_11h30.23.647,vts_reward_expectancy_bt,2022.2.4,MacIntel,59.99880002,Chrome,1440,900,,,l,0.3993,10,215,0,2,10,34,3,1,0,1,0,0,1,0,0,0,circle,triangle,,,,,,,,,,,,,,,,,,,,,,,,,,,,,,,,,,,,,,,,,,,,,,,,,,,,,,
294910,2022-12-01_11h30.23.647,vts_reward_expectancy_bt,2022.2.4,MacIntel,59.99880002,Chrome,1440,900,,,l,0.4715,1,216,0,2,11,35,1,1,1,0,0,0,0,0,1,0,triangle,hexagon,,,,,,,,,,,,,,,,,,,,,,,,,,,,,,,,,,,,,,,,,,,,,,,,,,,,,,
294910,2022-12-01_11h30.23.647,vts_reward_expectancy_bt,2022.2.4,MacIntel,59.99880002,Chrome,1440,900,,,a,0.9953,1,217,1,0,0,0,0,1,1,0,0,0,0,1,0,0,triangle,circle,,,,,,,,,,,,,,,,,,,,,,,,,,,,,,,,,,,,,,,,,,,,,,,,,,,,,,
294910,2022-12-01_11h30.23.647,vts_reward_expectancy_bt,2022.2.4,MacIntel,59.99880002,Chrome,1440,900,,,l,0.2996,1,218,1,0,1,1,6,1,0,0,1,0,1,0,0,0,hexagon,triangle,,,,,,,,,,,,,,,,,,,,,,,,,,,,,,,,,,,,,,,,,,,,,,,,,,,,,,
294910,2022-12-01_11h30.23.647,vts_reward_expectancy_bt,2022.2.4,MacIntel,59.99880002,Chrome,1440,900,,,a,0.3821,1,219,1,0,2,2,7,1,0,0,1,0,0,1,0,0,hexagon,circle,,,,,,,,,,,,,,,,,,,,,,,,,,,,,,,,,,,,,,,,,,,,,,,,,,,,,,
294910,2022-12-01_11h30.23.647,vts_reward_expectancy_bt,2022.2.4,MacIntel,59.99880002,Chrome,1440,900,,,l,0.3492,1,220,1,0,3,3,1,1,1,0,0,0,0,0,1,0,triangle,hexagon,,,,,,,,,,,,,,,,,,,,,,,,,,,,,,,,,,,,,,,,,,,,,,,,,,,,,,
294910,2022-12-01_11h30.23.647,vts_reward_expectancy_bt,2022.2.4,MacIntel,59.99880002,Chrome,1440,900,,,a,0.3365,1,221,1,0,4,4,11,1,0,0,0,1,0,0,1,0,star,hexagon,,,,,,,,,,,,,,,,,,,,,,,,,,,,,,,,,,,,,,,,,,,,,,,,,,,,,,
294910,2022-12-01_11h30.23.647,vts_reward_expectancy_bt,2022.2.4,MacIntel,59.99880002,Chrome,1440,900,,,l,0.3495,10,231,1,0,5,5,3,1,0,1,0,0,1,0,0,0,circle,triangle,,,,,,,,,,,,,,,,,,,,,,,,,,,,,,,,,,,,,,,,,,,,,,,,,,,,,,
294910,2022-12-01_11h30.23.647,vts_reward_expectancy_bt,2022.2.4,MacIntel,59.99880002,Chrome,1440,900,,,l,0.3985,1,232,1,0,6,6,9,1,0,0,0,1,1,0,0,0,star,triangle,,,,,,,,,,,,,,,,,,,,,,,,,,,,,,,,,,,,,,,,,,,,,,,,,,,,,,
294910,2022-12-01_11h30.23.647,vts_reward_expectancy_bt,2022.2.4,MacIntel,59.99880002,Chrome,1440,900,,,a,0.507,10,242,1,0,7,7,2,1,1,0,0,0,0,0,0,1,triangle,star,,,,,,,,,,,,,,,,,,,,,,,,,,,,,,,,,,,,,,,,,,,,,,,,,,,,,,
294910,2022-12-01_11h30.23.647,vts_reward_expectancy_bt,2022.2.4,MacIntel,59.99880002,Chrome,1440,900,,,l,0.6743,1,243,1,0,8,8,10,1,0,0,0,1,0,1,0,0,star ,circle,,,,,,,,,,,,,,,,,,,,,,,,,,,,,,,,,,,,,,,,,,,,,,,,,,,,,,
294910,2022-12-01_11h30.23.647,vts_reward_expectancy_bt,2022.2.4,MacIntel,59.99880002,Chrome,1440,900,,,a,0.3196,10,253,1,0,9,9,5,1,0,1,0,0,0,0,0,1,circle,star,,,,,,,,,,,,,,,,,,,,,,,,,,,,,,,,,,,,,,,,,,,,,,,,,,,,,,
294910,2022-12-01_11h30.23.647,vts_reward_expectancy_bt,2022.2.4,MacIntel,59.99880002,Chrome,1440,900,,,a,0.5332,1,254,1,0,10,10,8,1,0,0,1,0,0,0,0,1,hexagon,star,,,,,,,,,,,,,,,,,,,,,,,,,,,,,,,,,,,,,,,,,,,,,,,,,,,,,,
294910,2022-12-01_11h30.23.647,vts_reward_expectancy_bt,2022.2.4,MacIntel,59.99880002,Chrome,1440,900,,,a,0.7664,10,264,1,0,11,11,4,1,0,1,0,0,0,0,1,0,circle,hexagon,,,,,,,,,,,,,,,,,,,,,,,,,,,,,,,,,,,,,,,,,,,,,,,,,,,,,,
294910,2022-12-01_11h30.23.647,vts_reward_expectancy_bt,2022.2.4,MacIntel,59.99880002,Chrome,1440,900,,,l,0.4595,10,274,1,1,0,12,9,1,0,0,0,1,1,0,0,0,star,triangle,,,,,,,,,,,,,,,,,,,,,,,,,,,,,,,,,,,,,,,,,,,,,,,,,,,,,,
294910,2022-12-01_11h30.23.647,vts_reward_expectancy_bt,2022.2.4,MacIntel,59.99880002,Chrome,1440,900,,,l,0.4563,1,275,1,1,1,13,1,1,1,0,0,0,0,0,1,0,triangle,hexagon,,,,,,,,,,,,,,,,,,,,,,,,,,,,,,,,,,,,,,,,,,,,,,,,,,,,,,
294910,2022-12-01_11h30.23.647,vts_reward_expectancy_bt,2022.2.4,MacIntel,59.99880002,Chrome,1440,900,,,a,0.3718,1,276,1,1,2,14,10,1,0,0,0,1,0,1,0,0,star ,circle,,,,,,,,,,,,,,,,,,,,,,,,,,,,,,,,,,,,,,,,,,,,,,,,,,,,,,
294910,2022-12-01_11h30.23.647,vts_reward_expectancy_bt,2022.2.4,MacIntel,59.99880002,Chrome,1440,900,,,l,0.4321,10,286,1,1,3,15,4,1,0,1,0,0,0,0,1,0,circle,hexagon,,,,,,,,,,,,,,,,,,,,,,,,,,,,,,,,,,,,,,,,,,,,,,,,,,,,,,
294910,2022-12-01_11h30.23.647,vts_reward_expectancy_bt,2022.2.4,MacIntel,59.99880002,Chrome,1440,900,,,l,0.7068,1,287,1,1,4,16,8,1,0,0,1,0,0,0,0,1,hexagon,star,,,,,,,,,,,,,,,,,,,,,,,,,,,,,,,,,,,,,,,,,,,,,,,,,,,,,,
294910,2022-12-01_11h30.23.647,vts_reward_expectancy_bt,2022.2.4,MacIntel,59.99880002,Chrome,1440,900,,,a,0.6369,10,297,1,1,5,17,3,1,0,1,0,0,1,0,0,0,circle,triangle,,,,,,,,,,,,,,,,,,,,,,,,,,,,,,,,,,,,,,,,,,,,,,,,,,,,,,
294910,2022-12-01_11h30.23.647,vts_reward_expectancy_bt,2022.2.4,MacIntel,59.99880002,Chrome,1440,900,,,l,0.6325,1,298,1,1,6,18,11,1,0,0,0,1,0,0,1,0,star,hexagon,,,,,,,,,,,,,,,,,,,,,,,,,,,,,,,,,,,,,,,,,,,,,,,,,,,,,,
294910,2022-12-01_11h30.23.647,vts_reward_expectancy_bt,2022.2.4,MacIntel,59.99880002,Chrome,1440,900,,,a,0.5317,10,308,1,1,7,19,7,1,0,0,1,0,0,1,0,0,hexagon,circle,,,,,,,,,,,,,,,,,,,,,,,,,,,,,,,,,,,,,,,,,,,,,,,,,,,,,,
294910,2022-12-01_11h30.23.647,vts_reward_expectancy_bt,2022.2.4,MacIntel,59.99880002,Chrome,1440,900,,,l,0.4747,1,309,1,1,8,20,0,1,1,0,0,0,0,1,0,0,triangle,circle,,,,,,,,,,,,,,,,,,,,,,,,,,,,,,,,,,,,,,,,,,,,,,,,,,,,,,
294910,2022-12-01_11h30.23.647,vts_reward_expectancy_bt,2022.2.4,MacIntel,59.99880002,Chrome,1440,900,,,a,0.6328,1,310,1,1,9,21,5,1,0,1,0,0,0,0,0,1,circle,star,,,,,,,,,,,,,,,,,,,,,,,,,,,,,,,,,,,,,,,,,,,,,,,,,,,,,,
294910,2022-12-01_11h30.23.647,vts_reward_expectancy_bt,2022.2.4,MacIntel,59.99880002,Chrome,1440,900,,,l,0.4164,10,320,1,1,10,22,6,1,0,0,1,0,1,0,0,0,hexagon,triangle,,,,,,,,,,,,,,,,,,,,,,,,,,,,,,,,,,,,,,,,,,,,,,,,,,,,,,
294910,2022-12-01_11h30.23.647,vts_reward_expectancy_bt,2022.2.4,MacIntel,59.99880002,Chrome,1440,900,,,l,0.4989,10,330,1,1,11,23,2,1,1,0,0,0,0,0,0,1,triangle,star,,,,,,,,,,,,,,,,,,,,,,,,,,,,,,,,,,,,,,,,,,,,,,,,,,,,,,
294910,2022-12-01_11h30.23.647,vts_reward_expectancy_bt,2022.2.4,MacIntel,59.99880002,Chrome,1440,900,,,l,0.3189,1,331,1,2,0,24,11,1,0,0,0,1,0,0,1,0,star,hexagon,,,,,,,,,,,,,,,,,,,,,,,,,,,,,,,,,,,,,,,,,,,,,,,,,,,,,,
294910,2022-12-01_11h30.23.647,vts_reward_expectancy_bt,2022.2.4,MacIntel,59.99880002,Chrome,1440,900,,,a,0.6688,10,341,1,2,1,25,0,1,1,0,0,0,0,1,0,0,triangle,circle,,,,,,,,,,,,,,,,,,,,,,,,,,,,,,,,,,,,,,,,,,,,,,,,,,,,,,
294910,2022-12-01_11h30.23.647,vts_reward_expectancy_bt,2022.2.4,MacIntel,59.99880002,Chrome,1440,900,,,l,0.4999,10,351,1,2,2,26,10,1,0,0,0,1,0,1,0,0,star ,circle,,,,,,,,,,,,,,,,,,,,,,,,,,,,,,,,,,,,,,,,,,,,,,,,,,,,,,
294910,2022-12-01_11h30.23.647,vts_reward_expectancy_bt,2022.2.4,MacIntel,59.99880002,Chrome,1440,900,,,l,0.2978,10,361,1,2,3,27,2,1,1,0,0,0,0,0,0,1,triangle,star,,,,,,,,,,,,,,,,,,,,,,,,,,,,,,,,,,,,,,,,,,,,,,,,,,,,,,
294910,2022-12-01_11h30.23.647,vts_reward_expectancy_bt,2022.2.4,MacIntel,59.99880002,Chrome,1440,900,,,a,0.3828,10,371,1,2,4,28,7,1,0,0,1,0,0,1,0,0,hexagon,circle,,,,,,,,,,,,,,,,,,,,,,,,,,,,,,,,,,,,,,,,,,,,,,,,,,,,,,
294910,2022-12-01_11h30.23.647,vts_reward_expectancy_bt,2022.2.4,MacIntel,59.99880002,Chrome,1440,900,,,l,0.2645,10,381,1,2,5,29,6,1,0,0,1,0,1,0,0,0,hexagon,triangle,,,,,,,,,,,,,,,,,,,,,,,,,,,,,,,,,,,,,,,,,,,,,,,,,,,,,,
294910,2022-12-01_11h30.23.647,vts_reward_expectancy_bt,2022.2.4,MacIntel,59.99880002,Chrome,1440,900,,,l,0.3324,1,382,1,2,6,30,5,1,0,1,0,0,0,0,0,1,circle,star,,,,,,,,,,,,,,,,,,,,,,,,,,,,,,,,,,,,,,,,,,,,,,,,,,,,,,
294910,2022-12-01_11h30.23.647,vts_reward_expectancy_bt,2022.2.4,MacIntel,59.99880002,Chrome,1440,900,,,a,0.3657,10,392,1,2,7,31,3,1,0,1,0,0,1,0,0,0,circle,triangle,,,,,,,,,,,,,,,,,,,,,,,,,,,,,,,,,,,,,,,,,,,,,,,,,,,,,,
294910,2022-12-01_11h30.23.647,vts_reward_expectancy_bt,2022.2.4,MacIntel,59.99880002,Chrome,1440,900,,,l,0.4194,10,402,1,2,8,32,9,1,0,0,0,1,1,0,0,0,star,triangle,,,,,,,,,,,,,,,,,,,,,,,,,,,,,,,,,,,,,,,,,,,,,,,,,,,,,,
294910,2022-12-01_11h30.23.647,vts_reward_expectancy_bt,2022.2.4,MacIntel,59.99880002,Chrome,1440,900,,,a,0.9057,10,412,1,2,9,33,4,1,0,1,0,0,0,0,1,0,circle,hexagon,,,,,,,,,,,,,,,,,,,,,,,,,,,,,,,,,,,,,,,,,,,,,,,,,,,,,,
294910,2022-12-01_11h30.23.647,vts_reward_expectancy_bt,2022.2.4,MacIntel,59.99880002,Chrome,1440,900,,,a,0.6333,10,422,1,2,10,34,8,1,0,0,1,0,0,0,0,1,hexagon,star,,,,,,,,,,,,,,,,,,,,,,,,,,,,,,,,,,,,,,,,,,,,,,,,,,,,,,
294910,2022-12-01_11h30.23.647,vts_reward_expectancy_bt,2022.2.4,MacIntel,59.99880002,Chrome,1440,900,,,a,0.4332,10,432,1,2,11,35,1,1,1,0,0,0,0,0,1,0,triangle,hexagon,,,,,,,,,,,,,,,,,,,,,,,,,,,,,,,,,,,,,,,,,,,,,,,,,,,,,,
294910,2022-12-01_11h30.23.647,vts_reward_expectancy_bt,2022.2.4,MacIntel,59.99880002,Chrome,1440,900,,,a,1.1814,10,442,2,0,0,0,5,1,0,1,0,0,0,0,0,1,circle,star,,,,,,,,,,,,,,,,,,,,,,,,,,,,,,,,,,,,,,,,,,,,,,,,,,,,,,
294910,2022-12-01_11h30.23.647,vts_reward_expectancy_bt,2022.2.4,MacIntel,59.99880002,Chrome,1440,900,,,l,0.516,10,452,2,0,1,1,6,1,0,0,1,0,1,0,0,0,hexagon,triangle,,,,,,,,,,,,,,,,,,,,,,,,,,,,,,,,,,,,,,,,,,,,,,,,,,,,,,
294910,2022-12-01_11h30.23.647,vts_reward_expectancy_bt,2022.2.4,MacIntel,59.99880002,Chrome,1440,900,,,a,0.3543,1,453,2,0,2,2,7,1,0,0,1,0,0,1,0,0,hexagon,circle,,,,,,,,,,,,,,,,,,,,,,,,,,,,,,,,,,,,,,,,,,,,,,,,,,,,,,
294910,2022-12-01_11h30.23.647,vts_reward_expectancy_bt,2022.2.4,MacIntel,59.99880002,Chrome,1440,900,,,l,0.6194,1,454,2,0,3,3,2,1,1,0,0,0,0,0,0,1,triangle,star,,,,,,,,,,,,,,,,,,,,,,,,,,,,,,,,,,,,,,,,,,,,,,,,,,,,,,
294910,2022-12-01_11h30.23.647,vts_reward_expectancy_bt,2022.2.4,MacIntel,59.99880002,Chrome,1440,900,,,a,0.4331,10,464,2,0,4,4,8,1,0,0,1,0,0,0,0,1,hexagon,star,,,,,,,,,,,,,,,,,,,,,,,,,,,,,,,,,,,,,,,,,,,,,,,,,,,,,,
294910,2022-12-01_11h30.23.647,vts_reward_expectancy_bt,2022.2.4,MacIntel,59.99880002,Chrome,1440,900,,,a,0.3525,1,465,2,0,5,5,3,1,0,1,0,0,1,0,0,0,circle,triangle,,,,,,,,,,,,,,,,,,,,,,,,,,,,,,,,,,,,,,,,,,,,,,,,,,,,,,
294910,2022-12-01_11h30.23.647,vts_reward_expectancy_bt,2022.2.4,MacIntel,59.99880002,Chrome,1440,900,,,l,0.3332,1,466,2,0,6,6,0,1,1,0,0,0,0,1,0,0,triangle,circle,,,,,,,,,,,,,,,,,,,,,,,,,,,,,,,,,,,,,,,,,,,,,,,,,,,,,,
294910,2022-12-01_11h30.23.647,vts_reward_expectancy_bt,2022.2.4,MacIntel,59.99880002,Chrome,1440,900,,,a,0.3165,10,476,2,0,7,7,4,1,0,1,0,0,0,0,1,0,circle,hexagon,,,,,,,,,,,,,,,,,,,,,,,,,,,,,,,,,,,,,,,,,,,,,,,,,,,,,,
294910,2022-12-01_11h30.23.647,vts_reward_expectancy_bt,2022.2.4,MacIntel,59.99880002,Chrome,1440,900,,,l,0.4901,10,486,2,0,8,8,1,1,1,0,0,0,0,0,1,0,triangle,hexagon,,,,,,,,,,,,,,,,,,,,,,,,,,,,,,,,,,,,,,,,,,,,,,,,,,,,,,
294910,2022-12-01_11h30.23.647,vts_reward_expectancy_bt,2022.2.4,MacIntel,59.99880002,Chrome,1440,900,,,l,0.3996,10,496,2,0,9,9,9,1,0,0,0,1,1,0,0,0,star,triangle,,,,,,,,,,,,,,,,,,,,,,,,,,,,,,,,,,,,,,,,,,,,,,,,,,,,,,
294910,2022-12-01_11h30.23.647,vts_reward_expectancy_bt,2022.2.4,MacIntel,59.99880002,Chrome,1440,900,,,a,0.4045,10,506,2,0,10,10,11,1,0,0,0,1,0,0,1,0,star,hexagon,,,,,,,,,,,,,,,,,,,,,,,,,,,,,,,,,,,,,,,,,,,,,,,,,,,,,,
294910,2022-12-01_11h30.23.647,vts_reward_expectancy_bt,2022.2.4,MacIntel,59.99880002,Chrome,1440,900,,,a,0.367,10,516,2,0,11,11,10,1,0,0,0,1,0,1,0,0,star ,circle,,,,,,,,,,,,,,,,,,,,,,,,,,,,,,,,,,,,,,,,,,,,,,,,,,,,,,
294910,2022-12-01_11h30.23.647,vts_reward_expectancy_bt,2022.2.4,MacIntel,59.99880002,Chrome,1440,900,,,l,0.4654,10,526,2,1,0,12,2,1,1,0,0,0,0,0,0,1,triangle,star,,,,,,,,,,,,,,,,,,,,,,,,,,,,,,,,,,,,,,,,,,,,,,,,,,,,,,
294910,2022-12-01_11h30.23.647,vts_reward_expectancy_bt,2022.2.4,MacIntel,59.99880002,Chrome,1440,900,,,a,0.5245,10,536,2,1,1,13,11,1,0,0,0,1,0,0,1,0,star,hexagon,,,,,,,,,,,,,,,,,,,,,,,,,,,,,,,,,,,,,,,,,,,,,,,,,,,,,,
294910,2022-12-01_11h30.23.647,vts_reward_expectancy_bt,2022.2.4,MacIntel,59.99880002,Chrome,1440,900,,,a,0.8161,1,537,2,1,2,14,4,1,0,1,0,0,0,0,1,0,circle,hexagon,,,,,,,,,,,,,,,,,,,,,,,,,,,,,,,,,,,,,,,,,,,,,,,,,,,,,,
294910,2022-12-01_11h30.23.647,vts_reward_expectancy_bt,2022.2.4,MacIntel,59.99880002,Chrome,1440,900,,,l,0.4835,1,538,2,1,3,15,1,1,1,0,0,0,0,0,1,0,triangle,hexagon,,,,,,,,,,,,,,,,,,,,,,,,,,,,,,,,,,,,,,,,,,,,,,,,,,,,,,
294910,2022-12-01_11h30.23.647,vts_reward_expectancy_bt,2022.2.4,MacIntel,59.99880002,Chrome,1440,900,,,a,1.3365,10,548,2,1,4,16,5,1,0,1,0,0,0,0,0,1,circle,star,,,,,,,,,,,,,,,,,,,,,,,,,,,,,,,,,,,,,,,,,,,,,,,,,,,,,,
294910,2022-12-01_11h30.23.647,vts_reward_expectancy_bt,2022.2.4,MacIntel,59.99880002,Chrome,1440,900,,,a,0.4706,1,549,2,1,5,17,8,1,0,0,1,0,0,0,0,1,hexagon,star,,,,,,,,,,,,,,,,,,,,,,,,,,,,,,,,,,,,,,,,,,,,,,,,,,,,,,
294910,2022-12-01_11h30.23.647,vts_reward_expectancy_bt,2022.2.4,MacIntel,59.99880002,Chrome,1440,900,,,l,0.4875,10,559,2,1,6,18,10,1,0,0,0,1,0,1,0,0,star ,circle,,,,,,,,,,,,,,,,,,,,,,,,,,,,,,,,,,,,,,,,,,,,,,,,,,,,,,
294910,2022-12-01_11h30.23.647,vts_reward_expectancy_bt,2022.2.4,MacIntel,59.99880002,Chrome,1440,900,,,a,0.3536,10,569,2,1,7,19,0,1,1,0,0,0,0,1,0,0,triangle,circle,,,,,,,,,,,,,,,,,,,,,,,,,,,,,,,,,,,,,,,,,,,,,,,,,,,,,,
294910,2022-12-01_11h30.23.647,vts_reward_expectancy_bt,2022.2.4,MacIntel,59.99880002,Chrome,1440,900,,,l,0.3002,1,570,2,1,8,20,7,1,0,0,1,0,0,1,0,0,hexagon,circle,,,,,,,,,,,,,,,,,,,,,,,,,,,,,,,,,,,,,,,,,,,,,,,,,,,,,,
294910,2022-12-01_11h30.23.647,vts_reward_expectancy_bt,2022.2.4,MacIntel,59.99880002,Chrome,1440,900,,,a,0.2652,10,580,2,1,9,21,9,1,0,0,0,1,1,0,0,0,star,triangle,,,,,,,,,,,,,,,,,,,,,,,,,,,,,,,,,,,,,,,,,,,,,,,,,,,,,,
294910,2022-12-01_11h30.23.647,vts_reward_expectancy_bt,2022.2.4,MacIntel,59.99880002,Chrome,1440,900,,,l,0.4992,1,581,2,1,10,22,6,1,0,0,1,0,1,0,0,0,hexagon,triangle,,,,,,,,,,,,,,,,,,,,,,,,,,,,,,,,,,,,,,,,,,,,,,,,,,,,,,
294910,2022-12-01_11h30.23.647,vts_reward_expectancy_bt,2022.2.4,MacIntel,59.99880002,Chrome,1440,900,,,a,0.3545,10,591,2,1,11,23,3,1,0,1,0,0,1,0,0,0,circle,triangle,,,,,,,,,,,,,,,,,,,,,,,,,,,,,,,,,,,,,,,,,,,,,,,,,,,,,,
294910,2022-12-01_11h30.23.647,vts_reward_expectancy_bt,2022.2.4,MacIntel,59.99880002,Chrome,1440,900,,,l,0.6996,1,592,2,2,0,24,9,1,0,0,0,1,1,0,0,0,star,triangle,,,,,,,,,,,,,,,,,,,,,,,,,,,,,,,,,,,,,,,,,,,,,,,,,,,,,,
294910,2022-12-01_11h30.23.647,vts_reward_expectancy_bt,2022.2.4,MacIntel,59.99880002,Chrome,1440,900,,,a,0.3991,10,602,2,2,1,25,2,1,1,0,0,0,0,0,0,1,triangle,star,,,,,,,,,,,,,,,,,,,,,,,,,,,,,,,,,,,,,,,,,,,,,,,,,,,,,,
294910,2022-12-01_11h30.23.647,vts_reward_expectancy_bt,2022.2.4,MacIntel,59.99880002,Chrome,1440,900,,,l,0.3161,1,603,2,2,2,26,5,1,0,1,0,0,0,0,0,1,circle,star,,,,,,,,,,,,,,,,,,,,,,,,,,,,,,,,,,,,,,,,,,,,,,,,,,,,,,
294910,2022-12-01_11h30.23.647,vts_reward_expectancy_bt,2022.2.4,MacIntel,59.99880002,Chrome,1440,900,,,a,0.2865,10,613,2,2,3,27,3,1,0,1,0,0,1,0,0,0,circle,triangle,,,,,,,,,,,,,,,,,,,,,,,,,,,,,,,,,,,,,,,,,,,,,,,,,,,,,,
294910,2022-12-01_11h30.23.647,vts_reward_expectancy_bt,2022.2.4,MacIntel,59.99880002,Chrome,1440,900,,,l,0.4903,10,623,2,2,4,28,0,1,1,0,0,0,0,1,0,0,triangle,circle,,,,,,,,,,,,,,,,,,,,,,,,,,,,,,,,,,,,,,,,,,,,,,,,,,,,,,
294910,2022-12-01_11h30.23.647,vts_reward_expectancy_bt,2022.2.4,MacIntel,59.99880002,Chrome,1440,900,,,a,0.3497,10,633,2,2,5,29,1,1,1,0,0,0,0,0,1,0,triangle,hexagon,,,,,,,,,,,,,,,,,,,,,,,,,,,,,,,,,,,,,,,,,,,,,,,,,,,,,,
294910,2022-12-01_11h30.23.647,vts_reward_expectancy_bt,2022.2.4,MacIntel,59.99880002,Chrome,1440,900,,,l,0.3663,1,634,2,2,6,30,10,1,0,0,0,1,0,1,0,0,star ,circle,,,,,,,,,,,,,,,,,,,,,,,,,,,,,,,,,,,,,,,,,,,,,,,,,,,,,,
294910,2022-12-01_11h30.23.647,vts_reward_expectancy_bt,2022.2.4,MacIntel,59.99880002,Chrome,1440,900,,,a,0.3665,1,635,2,2,7,31,11,1,0,0,0,1,0,0,1,0,star,hexagon,,,,,,,,,,,,,,,,,,,,,,,,,,,,,,,,,,,,,,,,,,,,,,,,,,,,,,
294910,2022-12-01_11h30.23.647,vts_reward_expectancy_bt,2022.2.4,MacIntel,59.99880002,Chrome,1440,900,,,l,0.2038,10,645,2,2,8,32,4,1,0,1,0,0,0,0,1,0,circle,hexagon,,,,,,,,,,,,,,,,,,,,,,,,,,,,,,,,,,,,,,,,,,,,,,,,,,,,,,
294910,2022-12-01_11h30.23.647,vts_reward_expectancy_bt,2022.2.4,MacIntel,59.99880002,Chrome,1440,900,,,l,0.4186,1,646,2,2,9,33,8,1,0,0,1,0,0,0,0,1,hexagon,star,,,,,,,,,,,,,,,,,,,,,,,,,,,,,,,,,,,,,,,,,,,,,,,,,,,,,,
294910,2022-12-01_11h30.23.647,vts_reward_expectancy_bt,2022.2.4,MacIntel,59.99880002,Chrome,1440,900,,,a,0.27,1,647,2,2,10,34,7,1,0,0,1,0,0,1,0,0,hexagon,circle,,,,,,,,,,,,,,,,,,,,,,,,,,,,,,,,,,,,,,,,,,,,,,,,,,,,,,
294910,2022-12-01_11h30.23.647,vts_reward_expectancy_bt,2022.2.4,MacIntel,59.99880002,Chrome,1440,900,,,l,0.2654,1,648,2,2,11,35,6,1,0,0,1,0,1,0,0,0,hexagon,triangle,,,,,,,,,,,,,,,,,,,,,,,,,,,,,,,,,,,,,,,,,,,,,,,,,,,,,,
294910,2022-12-01_11h30.23.647,vts_reward_expectancy_bt,2022.2.4,MacIntel,59.99880002,Chrome,1440,900,,,,,,,,,,,,,,,,,,,,,,,S,167,hexagon,0,0,,0,0,0,0,0,1,,,,,,,,,,,,,,,,,,,,,,,,,,,,,,,,,,,,,,,,,,
294910,2022-12-01_11h30.23.647,vts_reward_expectancy_bt,2022.2.4,MacIntel,59.99880002,Chrome,1440,900,,,,,,,,,,,,,,,,,,,,,,,F,139,triangle,0,1,,0,1,0,1,0,1,,,,,,,,,,,,,,,,,,,,,,,,,,,,,,,,,,,,,,,,,,
294910,2022-12-01_11h30.23.647,vts_reward_expectancy_bt,2022.2.4,MacIntel,59.99880002,Chrome,1440,900,,,,,,,,,,,,,,,,,,,,,,,D,132,star,1,1,d,0,2,0,2,0,1,0.9644,,,,,,,,,,,,,,,,,,,,,,,,,,,,,,,,,,,,,,,,,
294910,2022-12-01_11h30.23.647,vts_reward_expectancy_bt,2022.2.4,MacIntel,59.99880002,Chrome,1440,900,,,,,,,,,,,,,,,,,,,,,,,H,181,circle,1,0,d,0,3,0,3,0,1,1.0467,,,,,,,,,,,,,,,,,,,,,,,,,,,,,,,,,,,,,,,,,
294910,2022-12-01_11h30.23.647,vts_reward_expectancy_bt,2022.2.4,MacIntel,59.99880002,Chrome,1440,900,,,,,,,,,,,,,,,,,,,,,,,Y,174,hexagon,1,0,f,0,4,0,4,0,1,0.8801,,,,,,,,,,,,,,,,,,,,,,,,,,,,,,,,,,,,,,,,,
294910,2022-12-01_11h30.23.647,vts_reward_expectancy_bt,2022.2.4,MacIntel,59.99880002,Chrome,1440,900,,,,,,,,,,,,,,,,,,,,,,,B,125,triangle,1,0,d,0,5,0,5,0,1,1.0812,,,,,,,,,,,,,,,,,,,,,,,,,,,,,,,,,,,,,,,,,
294910,2022-12-01_11h30.23.647,vts_reward_expectancy_bt,2022.2.4,MacIntel,59.99880002,Chrome,1440,900,,,,,,,,,,,,,,,,,,,,,,,W,146,star,1,0,f,0,6,0,6,0,1,1.0156,,,,,,,,,,,,,,,,,,,,,,,,,,,,,,,,,,,,,,,,,
294910,2022-12-01_11h30.23.647,vts_reward_expectancy_bt,2022.2.4,MacIntel,59.99880002,Chrome,1440,900,,,,,,,,,,,,,,,,,,,,,,,U,160,circle,1,0,f,0,7,0,7,0,1,0.7462,,,,,,,,,,,,,,,,,,,,,,,,,,,,,,,,,,,,,,,,,
294910,2022-12-01_11h30.23.647,vts_reward_expectancy_bt,2022.2.4,MacIntel,59.99880002,Chrome,1440,900,,,,,,,,,,,,,,,,,,,,,,,S,167,circle,1,0,f,0,8,0,8,0,1,0.8479,,,,,,,,,,,,,,,,,,,,,,,,,,,,,,,,,,,,,,,,,
294910,2022-12-01_11h30.23.647,vts_reward_expectancy_bt,2022.2.4,MacIntel,59.99880002,Chrome,1440,900,,,,,,,,,,,,,,,,,,,,,,,F,139,star,1,0,d,0,9,0,9,0,1,0.6512,,,,,,,,,,,,,,,,,,,,,,,,,,,,,,,,,,,,,,,,,
294910,2022-12-01_11h30.23.647,vts_reward_expectancy_bt,2022.2.4,MacIntel,59.99880002,Chrome,1440,900,,,,,,,,,,,,,,,,,,,,,,,U,174,hexagon,1,0,f,1,0,0,0,0,1,1.2486,,,,,,,,,,,,,,,,,,,,,,,,,,,,,,,,,,,,,,,,,
294910,2022-12-01_11h30.23.647,vts_reward_expectancy_bt,2022.2.4,MacIntel,59.99880002,Chrome,1440,900,,,,,,,,,,,,,,,,,,,,,,,S,146,star,1,0,f,1,1,0,1,0,1,0.6815,,,,,,,,,,,,,,,,,,,,,,,,,,,,,,,,,,,,,,,,,
294910,2022-12-01_11h30.23.647,vts_reward_expectancy_bt,2022.2.4,MacIntel,59.99880002,Chrome,1440,900,,,,,,,,,,,,,,,,,,,,,,,W,139,triangle,1,0,f,1,2,0,2,0,1,0.6167,,,,,,,,,,,,,,,,,,,,,,,,,,,,,,,,,,,,,,,,,
294910,2022-12-01_11h30.23.647,vts_reward_expectancy_bt,2022.2.4,MacIntel,59.99880002,Chrome,1440,900,,,,,,,,,,,,,,,,,,,,,,,Y,125,circle,1,0,f,1,3,0,3,0,1,0.6312,,,,,,,,,,,,,,,,,,,,,,,,,,,,,,,,,,,,,,,,,
294910,2022-12-01_11h30.23.647,vts_reward_expectancy_bt,2022.2.4,MacIntel,59.99880002,Chrome,1440,900,,,,,,,,,,,,,,,,,,,,,,,B,181,hexagon,1,0,d,1,4,0,4,0,1,0.4983,,,,,,,,,,,,,,,,,,,,,,,,,,,,,,,,,,,,,,,,,
294910,2022-12-01_11h30.23.647,vts_reward_expectancy_bt,2022.2.4,MacIntel,59.99880002,Chrome,1440,900,,,,,,,,,,,,,,,,,,,,,,,F,132,star,1,0,d,1,5,0,5,0,1,1.5803,,,,,,,,,,,,,,,,,,,,,,,,,,,,,,,,,,,,,,,,,
294910,2022-12-01_11h30.23.647,vts_reward_expectancy_bt,2022.2.4,MacIntel,59.99880002,Chrome,1440,900,,,,,,,,,,,,,,,,,,,,,,,H,160,triangle,1,0,d,1,6,0,6,0,1,0.8842,,,,,,,,,,,,,,,,,,,,,,,,,,,,,,,,,,,,,,,,,
294910,2022-12-01_11h30.23.647,vts_reward_expectancy_bt,2022.2.4,MacIntel,59.99880002,Chrome,1440,900,,,,,,,,,,,,,,,,,,,,,,,D,167,circle,1,0,d,1,7,0,7,0,1,0.8463,,,,,,,,,,,,,,,,,,,,,,,,,,,,,,,,,,,,,,,,,
294910,2022-12-01_11h30.23.647,vts_reward_expectancy_bt,2022.2.4,MacIntel,59.99880002,Chrome,1440,900,,,,,,,,,,,,,,,,,,,,,,,U,174,star,1,0,f,1,8,0,8,0,1,1.4301,,,,,,,,,,,,,,,,,,,,,,,,,,,,,,,,,,,,,,,,,
294910,2022-12-01_11h30.23.647,vts_reward_expectancy_bt,2022.2.4,MacIntel,59.99880002,Chrome,1440,900,,,,,,,,,,,,,,,,,,,,,,,S,146,circle,1,0,f,1,9,0,9,0,1,0.6675,,,,,,,,,,,,,,,,,,,,,,,,,,,,,,,,,,,,,,,,,
294910,2022-12-01_11h30.23.647,vts_reward_expectancy_bt,2022.2.4,MacIntel,59.99880002,Chrome,1440,900,,,,,,,,,,,,,,,,,,,,,,,D,132,star,0,0,,2,,,,,,,,0,0,0,0,1,,,,,,,,,,,,,,,,,,,,,,,,,,,,,,,,,,,
294910,2022-12-01_11h30.23.647,vts_reward_expectancy_bt,2022.2.4,MacIntel,59.99880002,Chrome,1440,900,,,,,,,,,,,,,,,,,,,,,,,Y,146,circle,1,1,,2,,,,,,,j,1,0,1,0,1,1.4392,,,,,,,,,,,,,,,,,,,,,,,,,,,,,,,,,,
294910,2022-12-01_11h30.23.647,vts_reward_expectancy_bt,2022.2.4,MacIntel,59.99880002,Chrome,1440,900,,,,,,,,,,,,,,,,,,,,,,,W,160,hexagon,1,0,,2,,,,,,,k,2,0,2,0,1,2.8193,,,,,,,,,,,,,,,,,,,,,,,,,,,,,,,,,,
294910,2022-12-01_11h30.23.647,vts_reward_expectancy_bt,2022.2.4,MacIntel,59.99880002,Chrome,1440,900,,,,,,,,,,,,,,,,,,,,,,,B,167,triangle,1,0,,2,,,,,,,k,3,0,3,0,1,0.9475,,,,,,,,,,,,,,,,,,,,,,,,,,,,,,,,,,
294910,2022-12-01_11h30.23.647,vts_reward_expectancy_bt,2022.2.4,MacIntel,59.99880002,Chrome,1440,900,,,,,,,,,,,,,,,,,,,,,,,H,174,star,1,0,,2,,,,,,,k,4,0,4,0,1,1.0152,,,,,,,,,,,,,,,,,,,,,,,,,,,,,,,,,,
294910,2022-12-01_11h30.23.647,vts_reward_expectancy_bt,2022.2.4,MacIntel,59.99880002,Chrome,1440,900,,,,,,,,,,,,,,,,,,,,,,,S,125,circle,1,0,,2,,,,,,,j,5,0,5,0,1,0.9001,,,,,,,,,,,,,,,,,,,,,,,,,,,,,,,,,,
294910,2022-12-01_11h30.23.647,vts_reward_expectancy_bt,2022.2.4,MacIntel,59.99880002,Chrome,1440,900,,,,,,,,,,,,,,,,,,,,,,,F,139,hexagon,1,0,,2,,,,,,,j,6,0,6,0,1,1.5686,,,,,,,,,,,,,,,,,,,,,,,,,,,,,,,,,,
294910,2022-12-01_11h30.23.647,vts_reward_expectancy_bt,2022.2.4,MacIntel,59.99880002,Chrome,1440,900,,,,,,,,,,,,,,,,,,,,,,,U,181,triangle,1,0,,2,,,,,,,k,7,0,7,0,1,0.8149,,,,,,,,,,,,,,,,,,,,,,,,,,,,,,,,,,
294910,2022-12-01_11h30.23.647,vts_reward_expectancy_bt,2022.2.4,MacIntel,59.99880002,Chrome,1440,900,,,,,,,,,,,,,,,,,,,,,,,D,132,hexagon,1,0,,2,,,,,,,j,8,0,8,0,1,0.7671,,,,,,,,,,,,,,,,,,,,,,,,,,,,,,,,,,
294910,2022-12-01_11h30.23.647,vts_reward_expectancy_bt,2022.2.4,MacIntel,59.99880002,Chrome,1440,900,,,,,,,,,,,,,,,,,,,,,,,Y,146,triangle,1,0,,2,,,,,,,j,9,0,9,0,1,1.7644,,,,,,,,,,,,,,,,,,,,,,,,,,,,,,,,,,
294910,2022-12-01_11h30.23.647,vts_reward_expectancy_bt,2022.2.4,MacIntel,59.99880002,Chrome,1440,900,,,,,0,648,,,,,,,,,,,,,,,,,F,139,circle,-1,0,,3,,,,,,,,,,,,,,-1,no_choice,NA,,vtsPrac,0,0,0,0,1,,,,,,,,,,,,,,,,,,,,,,,,
294910,2022-12-01_11h30.23.647,vts_reward_expectancy_bt,2022.2.4,MacIntel,59.99880002,Chrome,1440,900,,,,,0,648,,,,,,,,,,,,,,,,,B,181,triangle,1,0,,3,,,,,,,,,,,,,,switch,letter,lettSwt,d,vtsPrac,1,0,1,0,1,1.4886,,,,,,,,,,,,,,,,,,,,,,,
294910,2022-12-01_11h30.23.647,vts_reward_expectancy_bt,2022.2.4,MacIntel,59.99880002,Chrome,1440,900,,,,,0,648,,,,,,,,,,,,,,,,,H,146,circle,1,0,,3,,,,,,,,,,,,,,repeat,letter,lettRpt,d,vtsPrac,2,0,2,0,1,0.8971,,,,,,,,,,,,,,,,,,,,,,,
294910,2022-12-01_11h30.23.647,vts_reward_expectancy_bt,2022.2.4,MacIntel,59.99880002,Chrome,1440,900,,,,,0,648,,,,,,,,,,,,,,,,,S,167,triangle,1,0,,3,,,,,,,,,,,,,,repeat,letter,lettRpt,f,vtsPrac,3,0,3,0,1,0.5803,,,,,,,,,,,,,,,,,,,,,,,
294910,2022-12-01_11h30.23.647,vts_reward_expectancy_bt,2022.2.4,MacIntel,59.99880002,Chrome,1440,900,,,,,0,648,,,,,,,,,,,,,,,,,F,139,star,1,0,,3,,,,,,,,,,,,,,repeat,letter,lettRpt,d,vtsPrac,4,0,4,0,1,0.6473,,,,,,,,,,,,,,,,,,,,,,,
294910,2022-12-01_11h30.23.647,vts_reward_expectancy_bt,2022.2.4,MacIntel,59.99880002,Chrome,1440,900,,,,,0,648,,,,,,,,,,,,,,,,,B,181,triangle,1,0,,3,,,,,,,,,,,,,,switch,number,numSwt,k,vtsPrac,5,0,5,0,1,0.6356,,,,,,,,,,,,,,,,,,,,,,,
294910,2022-12-01_11h30.23.647,vts_reward_expectancy_bt,2022.2.4,MacIntel,59.99880002,Chrome,1440,900,,,,,0,648,,,,,,,,,,,,,,,,,H,146,star,1,0,,3,,,,,,,,,,,,,,switch,letter,lettSwt,d,vtsPrac,6,0,6,0,1,0.4964,,,,,,,,,,,,,,,,,,,,,,,
294910,2022-12-01_11h30.23.647,vts_reward_expectancy_bt,2022.2.4,MacIntel,59.99880002,Chrome,1440,900,,,,,0,648,,,,,,,,,,,,,,,,,S,167,circle,1,0,,3,,,,,,,,,,,,,,repeat,letter,lettRpt,f,vtsPrac,7,0,7,0,1,0.6311,,,,,,,,,,,,,,,,,,,,,,,
294910,2022-12-01_11h30.23.647,vts_reward_expectancy_bt,2022.2.4,MacIntel,59.99880002,Chrome,1440,900,,,,,0,648,,,,,,,,,,,,,,,,,U,160,triangle,1,0,,3,,,,,,,,,,,,,,repeat,letter,lettRpt,f,vtsPrac,8,0,8,0,1,0.5139,,,,,,,,,,,,,,,,,,,,,,,
294910,2022-12-01_11h30.23.647,vts_reward_expectancy_bt,2022.2.4,MacIntel,59.99880002,Chrome,1440,900,,,,,0,648,,,,,,,,,,,,,,,,,F,139,star,1,0,,3,,,,,,,,,,,,,,switch,number,numSwt,j,vtsPrac,9,0,9,0,1,0.9468,,,,,,,,,,,,,,,,,,,,,,,
294910,2022-12-01_11h30.23.647,vts_reward_expectancy_bt,2022.2.4,MacIntel,59.99880002,Chrome,1440,900,,,,,0,648,,,,,,,,,,,,,,,,,W,167,triangle,0,0,,3,,,,,,,,,,,,,,switch,letter,NA,d,vtsPrac,10,0,10,0,1,0.6993,,,,,,,,,,,,,,,,,,,,,,,
294910,2022-12-01_11h30.23.647,vts_reward_expectancy_bt,2022.2.4,MacIntel,59.99880002,Chrome,1440,900,,,,,0,648,,,,,,,,,,,,,,,,,B,146,circle,1,1,,3,,,,,,,,,,,,,,repeat,letter,lettRpt,d,vtsPrac,11,0,11,0,1,0.6374,,,,,,,,,,,,,,,,,,,,,,,
294910,2022-12-01_11h30.23.647,vts_reward_expectancy_bt,2022.2.4,MacIntel,59.99880002,Chrome,1440,900,,,,,0,648,,,,,,,,,,,,,,,,,U,181,hexagon,1,0,,3,,,,,,,,,,,,,,switch,number,numSwt,k,vtsPrac,12,0,12,0,1,0.953,,,,,,,,,,,,,,,,,,,,,,,
294910,2022-12-01_11h30.23.647,vts_reward_expectancy_bt,2022.2.4,MacIntel,59.99880002,Chrome,1440,900,,,,,0,648,,,,,,,,,,,,,,,,,F,167,circle,1,0,,3,,,,,,,,,,,,,,repeat,number,numRpt,k,vtsPrac,13,0,13,0,1,1.1464,,,,,,,,,,,,,,,,,,,,,,,
294910,2022-12-01_11h30.23.647,vts_reward_expectancy_bt,2022.2.4,MacIntel,59.99880002,Chrome,1440,900,,,,,0,648,,,,,,,,,,,,,,,,,W,174,hexagon,1,0,,3,,,,,,,,,,,,,,repeat,number,numRpt,k,vtsPrac,14,0,14,0,1,1.0498,,,,,,,,,,,,,,,,,,,,,,,
294910,2022-12-01_11h30.23.647,vts_reward_expectancy_bt,2022.2.4,MacIntel,59.99880002,Chrome,1440,900,,,,,0,648,,,,,,,,,,,,,,,,,D,125,circle,1,0,,3,,,,,,,,,,,,,,repeat,number,numRpt,j,vtsPrac,15,0,15,0,1,0.7474,,,,,,,,,,,,,,,,,,,,,,,
294910,2022-12-01_11h30.23.647,vts_reward_expectancy_bt,2022.2.4,MacIntel,59.99880002,Chrome,1440,900,,,,,0,648,,,,,,,,,,,,,,,,,D,132,hexagon,1,0,,3,,,,,,,,,,,,,,repeat,number,numRpt,j,vtsPrac,16,0,16,0,1,0.6528,,,,,,,,,,,,,,,,,,,,,,,
294910,2022-12-01_11h30.23.647,vts_reward_expectancy_bt,2022.2.4,MacIntel,59.99880002,Chrome,1440,900,,,,,0,648,,,,,,,,,,,,,,,,,U,181,star,1,0,,3,,,,,,,,,,,,,,repeat,number,numRpt,k,vtsPrac,17,0,17,0,1,0.6331,,,,,,,,,,,,,,,,,,,,,,,
294910,2022-12-01_11h30.23.647,vts_reward_expectancy_bt,2022.2.4,MacIntel,59.99880002,Chrome,1440,900,,,,,0,648,,,,,,,,,,,,,,,,,Y,125,star,1,0,,3,,,,,,,,,,,,,,repeat,number,numRpt,j,vtsPrac,18,0,18,0,1,0.8875,,,,,,,,,,,,,,,,,,,,,,,
294910,2022-12-01_11h30.23.647,vts_reward_expectancy_bt,2022.2.4,MacIntel,59.99880002,Chrome,1440,900,,,,,0,648,,,,,,,,,,,,,,,,,F,167,hexagon,1,0,,3,,,,,,,,,,,,,,repeat,number,numRpt,k,vtsPrac,19,0,19,0,1,1.3305,,,,,,,,,,,,,,,,,,,,,,,
294910,2022-12-01_11h30.23.647,vts_reward_expectancy_bt,2022.2.4,MacIntel,59.99880002,Chrome,1440,900,,,,,0,648,,,,,,,,,,,,,,,,,H,174,triangle,1,0,,3,,,,,,,,,,,,,,repeat,number,numRpt,k,vtsPrac,20,0,20,0,1,0.4977,,,,,,,,,,,,,,,,,,,,,,,
294910,2022-12-01_11h30.23.647,vts_reward_expectancy_bt,2022.2.4,MacIntel,59.99880002,Chrome,1440,900,,,,,0,648,,,,,,,,,,,,,,,,,B,160,hexagon,1,0,,3,,,,,,,,,,,,,,repeat,number,numRpt,k,vtsPrac,21,0,21,0,1,0.5805,,,,,,,,,,,,,,,,,,,,,,,
294910,2022-12-01_11h30.23.647,vts_reward_expectancy_bt,2022.2.4,MacIntel,59.99880002,Chrome,1440,900,,,,,0,648,,,,,,,,,,,,,,,,,F,132,circle,1,0,,3,,,,,,,,,,,,,,repeat,number,numRpt,j,vtsPrac,22,0,22,0,1,1.1518,,,,,,,,,,,,,,,,,,,,,,,
294910,2022-12-01_11h30.23.647,vts_reward_expectancy_bt,2022.2.4,MacIntel,59.99880002,Chrome,1440,900,,,,,0,648,,,,,,,,,,,,,,,,,W,125,triangle,1,0,,3,,,,,,,,,,,,,,switch,letter,lettSwt,f,vtsPrac,23,0,23,0,1,0.5626,,,,,,,,,,,,,,,,,,,,,,,
294910,2022-12-01_11h30.23.647,vts_reward_expectancy_bt,2022.2.4,MacIntel,59.99880002,Chrome,1440,900,,,,,0,648,,,,,,,,,,,,,,,,,H,160,circle,1,0,,3,,,,,,,,,,,,,,repeat,letter,lettRpt,d,vtsPrac,24,0,24,0,1,1.0714,,,,,,,,,,,,,,,,,,,,,,,
294910,2022-12-01_11h30.23.647,vts_reward_expectancy_bt,2022.2.4,MacIntel,59.99880002,Chrome,1440,900,,,,,0,648,,,,,,,,,,,,,,,,,D,174,star,1,0,,3,,,,,,,,,,,,,,repeat,letter,lettRpt,d,vtsPrac,25,0,25,0,1,0.7484,,,,,,,,,,,,,,,,,,,,,,,
294910,2022-12-01_11h30.23.647,vts_reward_expectancy_bt,2022.2.4,MacIntel,59.99880002,Chrome,1440,900,,,,,0,648,,,,,,,,,,,,,,,,,U,167,circle,1,0,,3,,,,,,,,,,,,,,switch,number,numSwt,k,vtsPrac,26,0,26,0,1,0.7977,,,,,,,,,,,,,,,,,,,,,,,
294910,2022-12-01_11h30.23.647,vts_reward_expectancy_bt,2022.2.4,MacIntel,59.99880002,Chrome,1440,900,,,,,0,648,,,,,,,,,,,,,,,,,B,181,triangle,1,0,,3,,,,,,,,,,,,,,repeat,number,numRpt,k,vtsPrac,27,0,27,0,1,0.5854,,,,,,,,,,,,,,,,,,,,,,,
294910,2022-12-01_11h30.23.647,vts_reward_expectancy_bt,2022.2.4,MacIntel,59.99880002,Chrome,1440,900,,,,,0,648,,,,,,,,,,,,,,,,,B,139,triangle,0,0,,3,,,,,,,,,,,,,,repeat,number,NA,k,vtsPrac,28,0,28,0,1,1.2151,,,,,,,,,,,,,,,,,,,,,,,
294910,2022-12-01_11h30.23.647,vts_reward_expectancy_bt,2022.2.4,MacIntel,59.99880002,Chrome,1440,900,,,,,0,648,,,,,,,,,,,,,,,,,U,125,hexagon,1,1,,3,,,,,,,,,,,,,,repeat,number,numRpt,j,vtsPrac,29,0,29,0,1,1.3313,,,,,,,,,,,,,,,,,,,,,,,
294910,2022-12-01_11h30.23.647,vts_reward_expectancy_bt,2022.2.4,MacIntel,59.99880002,Chrome,1440,900,,,,,0,648,,,,,,,,,,,,,,,,,S,181,star,1,0,,3,,,,,,,,,,,,,,repeat,number,numRpt,k,vtsPrac,30,0,30,0,1,0.6973,,,,,,,,,,,,,,,,,,,,,,,
294910,2022-12-01_11h30.23.647,vts_reward_expectancy_bt,2022.2.4,MacIntel,59.99880002,Chrome,1440,900,,,,,0,648,,,,,,,,,,,,,,,,,H,160,hexagon,1,0,,3,,,,,,,,,,,,,,repeat,number,numRpt,k,vtsPrac,31,0,31,0,1,0.8289,,,,,,,,,,,,,,,,,,,,,,,
294910,2022-12-01_11h30.23.647,vts_reward_expectancy_bt,2022.2.4,MacIntel,59.99880002,Chrome,1440,900,,,,,,,,,,,,,,,,,,,,,,,,,,,,,,,,,,,,,,,,,,,,,,,,,,,,,,,,,,,,,,,,,,,,,,,,,,,,
294910,2022-12-01_11h30.23.647,vts_reward_expectancy_bt,2022.2.4,MacIntel,59.99880002,Chrome,1440,900,,,,,,,,,,,,,,,,,,,,,,,,,,,,,,,,,,,,,,,,,,,,,,,,,,,,,,,,,,,,,,,,,,,,,,,,,,,,
294910,2022-12-01_11h30.23.647,vts_reward_expectancy_bt,2022.2.4,MacIntel,59.99880002,Chrome,1440,900,,,,,0,648,,,,,,,,,,,,,,,,,Y,160,triangle,1,0,,,,,,,,,,,,,,,,switch,letter,lettSwt,f,noRew,,,,,,0.8485,0,0,0,0,0,1,,,,,,,,,,,,,,,,,
294910,2022-12-01_11h30.23.647,vts_reward_expectancy_bt,2022.2.4,MacIntel,59.99880002,Chrome,1440,900,,,,,0,648,,,,,,,,,,,,,,,,,F,181,star,1,0,,,,,,,,,,,,,,,,switch,number,numSwt,k,noRew,,,,,,0.9042,0,1,0,1,0,1,,,,,,,,,,,,,,,,,
294910,2022-12-01_11h30.23.647,vts_reward_expectancy_bt,2022.2.4,MacIntel,59.99880002,Chrome,1440,900,,,,,0,648,,,,,,,,,,,,,,,,,S,132,triangle,1,0,,,,,,,,,,,,,,,,repeat,number,numRpt,j,noRew,,,,,,1.1155,0,2,0,2,0,1,,,,,,,,,,,,,,,,,
294910,2022-12-01_11h30.23.647,vts_reward_expectancy_bt,2022.2.4,MacIntel,59.99880002,Chrome,1440,900,,,,,0,648,,,,,,,,,,,,,,,,,D,139,star,1,0,,,,,,,,,,,,,,,,repeat,number,numRpt,j,noRew,,,,,,1.1847,0,3,0,3,0,1,,,,,,,,,,,,,,,,,
294910,2022-12-01_11h30.23.647,vts_reward_expectancy_bt,2022.2.4,MacIntel,59.99880002,Chrome,1440,900,,,,,0,648,,,,,,,,,,,,,,,,,Y,160,triangle,1,0,,,,,,,,,,,,,,,,repeat,number,numRpt,k,noRew,,,,,,0.8479,0,4,0,4,0,1,,,,,,,,,,,,,,,,,
294910,2022-12-01_11h30.23.647,vts_reward_expectancy_bt,2022.2.4,MacIntel,59.99880002,Chrome,1440,900,,,,,0,648,,,,,,,,,,,,,,,,,F,181,star,1,0,,,,,,,,,,,,,,,,switch,letter,lettSwt,d,noRew,,,,,,0.7644,0,5,0,5,0,1,,,,,,,,,,,,,,,,,
294910,2022-12-01_11h30.23.647,vts_reward_expectancy_bt,2022.2.4,MacIntel,59.99880002,Chrome,1440,900,,,,,0,648,,,,,,,,,,,,,,,,,S,132,star,1,0,,,,,,,,,,,,,,,,repeat,letter,lettRpt,f,noRew,,,,,,0.6813,0,6,0,6,0,1,,,,,,,,,,,,,,,,,
294910,2022-12-01_11h30.23.647,vts_reward_expectancy_bt,2022.2.4,MacIntel,59.99880002,Chrome,1440,900,,,,,0,648,,,,,,,,,,,,,,,,,D,139,hexagon,1,0,,,,,,,,,,,,,,,,repeat,letter,lettRpt,d,noRew,,,,,,0.6849,0,7,0,7,0,1,,,,,,,,,,,,,,,,,
294910,2022-12-01_11h30.23.647,vts_reward_expectancy_bt,2022.2.4,MacIntel,59.99880002,Chrome,1440,900,,,,,0,648,,,,,,,,,,,,,,,,,H,167,hexagon,1,0,,,,,,,,,,,,,,,,repeat,letter,lettRpt,d,noRew,,,,,,0.7144,0,8,0,8,0,1,,,,,,,,,,,,,,,,,
294910,2022-12-01_11h30.23.647,vts_reward_expectancy_bt,2022.2.4,MacIntel,59.99880002,Chrome,1440,900,,,,,0,648,,,,,,,,,,,,,,,,,B,146,triangle,1,0,,,,,,,,,,,,,,,,repeat,letter,lettRpt,d,noRew,,,,,,0.713,0,9,0,9,0,1,,,,,,,,,,,,,,,,,
294910,2022-12-01_11h30.23.647,vts_reward_expectancy_bt,2022.2.4,MacIntel,59.99880002,Chrome,1440,900,,,,,0,648,,,,,,,,,,,,,,,,,Y,160,circle,1,0,,,,,,,,,,,,,,,,repeat,letter,lettRpt,f,noRew,,,,,,0.6634,0,10,0,10,0,1,,,,,,,,,,,,,,,,,
294910,2022-12-01_11h30.23.647,vts_reward_expectancy_bt,2022.2.4,MacIntel,59.99880002,Chrome,1440,900,,,,,0,648,,,,,,,,,,,,,,,,,W,139,triangle,1,0,,,,,,,,,,,,,,,,switch,number,numSwt,j,noRew,,,,,,1.0322,0,11,0,11,0,1,,,,,,,,,,,,,,,,,
294910,2022-12-01_11h30.23.647,vts_reward_expectancy_bt,2022.2.4,MacIntel,59.99880002,Chrome,1440,900,,,,,0,648,,,,,,,,,,,,,,,,,W,167,triangle,1,0,,,,,,,,,,,,,,,,repeat,number,numRpt,k,noRew,,,,,,0.9657,0,12,0,12,0,1,,,,,,,,,,,,,,,,,
294910,2022-12-01_11h30.23.647,vts_reward_expectancy_bt,2022.2.4,MacIntel,59.99880002,Chrome,1440,900,,,,,0,648,,,,,,,,,,,,,,,,,S,174,hexagon,1,0,,,,,,,,,,,,,,,,repeat,number,numRpt,k,noRew,,,,,,0.8819,0,13,0,13,0,1,,,,,,,,,,,,,,,,,
294910,2022-12-01_11h30.23.647,vts_reward_expectancy_bt,2022.2.4,MacIntel,59.99880002,Chrome,1440,900,,,,,0,648,,,,,,,,,,,,,,,,,B,139,circle,1,0,,,,,,,,,,,,,,,,repeat,number,numRpt,j,noRew,,,,,,1.365,0,14,0,14,0,1,,,,,,,,,,,,,,,,,
294910,2022-12-01_11h30.23.647,vts_reward_expectancy_bt,2022.2.4,MacIntel,59.99880002,Chrome,1440,900,,,,,0,648,,,,,,,,,,,,,,,,,Y,132,triangle,1,0,,,,,,,,,,,,,,,,switch,letter,lettSwt,f,noRew,,,,,,0.963,0,15,0,15,0,1,,,,,,,,,,,,,,,,,
294910,2022-12-01_11h30.23.647,vts_reward_expectancy_bt,2022.2.4,MacIntel,59.99880002,Chrome,1440,900,,,,,0,648,,,,,,,,,,,,,,,,,S,139,triangle,1,0,,,,,,,,,,,,,,,,repeat,letter,lettRpt,f,noRew,,,,,,0.8659,0,16,0,16,0,1,,,,,,,,,,,,,,,,,
294910,2022-12-01_11h30.23.647,vts_reward_expectancy_bt,2022.2.4,MacIntel,59.99880002,Chrome,1440,900,,,,,0,648,,,,,,,,,,,,,,,,,F,160,circle,1,0,,,,,,,,,,,,,,,,repeat,letter,lettRpt,d,noRew,,,,,,0.5315,0,17,0,17,0,1,,,,,,,,,,,,,,,,,
294910,2022-12-01_11h30.23.647,vts_reward_expectancy_bt,2022.2.4,MacIntel,59.99880002,Chrome,1440,900,,,,,0,648,,,,,,,,,,,,,,,,,W,146,triangle,1,0,,,,,,,,,,,,,,,,repeat,letter,lettRpt,f,noRew,,,,,,1.0502,0,18,0,18,0,1,,,,,,,,,,,,,,,,,
294910,2022-12-01_11h30.23.647,vts_reward_expectancy_bt,2022.2.4,MacIntel,59.99880002,Chrome,1440,900,,,,,0,648,,,,,,,,,,,,,,,,,B,181,hexagon,1,0,,,,,,,,,,,,,,,,repeat,letter,lettRpt,d,noRew,,,,,,0.8147,0,19,0,19,0,1,,,,,,,,,,,,,,,,,
294910,2022-12-01_11h30.23.647,vts_reward_expectancy_bt,2022.2.4,MacIntel,59.99880002,Chrome,1440,900,,,,,0,648,,,,,,,,,,,,,,,,,H,167,triangle,1,0,,,,,,,,,,,,,,,,repeat,letter,lettRpt,d,noRew,,,,,,0.853,0,20,0,20,0,1,,,,,,,,,,,,,,,,,
294910,2022-12-01_11h30.23.647,vts_reward_expectancy_bt,2022.2.4,MacIntel,59.99880002,Chrome,1440,900,,,,,0,648,,,,,,,,,,,,,,,,,U,125,hexagon,1,0,,,,,,,,,,,,,,,,repeat,letter,lettRpt,f,noRew,,,,,,0.9982,0,21,0,21,0,1,,,,,,,,,,,,,,,,,
294910,2022-12-01_11h30.23.647,vts_reward_expectancy_bt,2022.2.4,MacIntel,59.99880002,Chrome,1440,900,,,,,0,648,,,,,,,,,,,,,,,,,W,174,triangle,1,0,,,,,,,,,,,,,,,,switch,number,numSwt,k,noRew,,,,,,0.8141,0,22,0,22,0,1,,,,,,,,,,,,,,,,,
294910,2022-12-01_11h30.23.647,vts_reward_expectancy_bt,2022.2.4,MacIntel,59.99880002,Chrome,1440,900,,,,,0,648,,,,,,,,,,,,,,,,,Y,181,hexagon,1,0,,,,,,,,,,,,,,,,repeat,number,numRpt,k,noRew,,,,,,0.6172,0,23,0,23,0,1,,,,,,,,,,,,,,,,,
294910,2022-12-01_11h30.23.647,vts_reward_expectancy_bt,2022.2.4,MacIntel,59.99880002,Chrome,1440,900,,,,,0,648,,,,,,,,,,,,,,,,,Y,125,circle,1,0,,,,,,,,,,,,,,,,repeat,number,numRpt,j,noRew,,,,,,0.9151,0,24,0,24,0,1,,,,,,,,,,,,,,,,,
294910,2022-12-01_11h30.23.647,vts_reward_expectancy_bt,2022.2.4,MacIntel,59.99880002,Chrome,1440,900,,,,,0,648,,,,,,,,,,,,,,,,,H,160,star,1,0,,,,,,,,,,,,,,,,repeat,number,numRpt,k,noRew,,,,,,2.3143,0,25,0,25,0,1,,,,,,,,,,,,,,,,,
294910,2022-12-01_11h30.23.647,vts_reward_expectancy_bt,2022.2.4,MacIntel,59.99880002,Chrome,1440,900,,,,,0,648,,,,,,,,,,,,,,,,,W,174,hexagon,1,0,,,,,,,,,,,,,,,,repeat,number,numRpt,k,noRew,,,,,,0.8225,0,26,0,26,0,1,,,,,,,,,,,,,,,,,
294910,2022-12-01_11h30.23.647,vts_reward_expectancy_bt,2022.2.4,MacIntel,59.99880002,Chrome,1440,900,,,,,0,648,,,,,,,,,,,,,,,,,S,146,star,1,0,,,,,,,,,,,,,,,,repeat,number,numRpt,j,noRew,,,,,,1.3012,0,27,0,27,0,1,,,,,,,,,,,,,,,,,
294910,2022-12-01_11h30.23.647,vts_reward_expectancy_bt,2022.2.4,MacIntel,59.99880002,Chrome,1440,900,,,,,0,648,,,,,,,,,,,,,,,,,Y,125,circle,1,0,,,,,,,,,,,,,,,,repeat,number,numRpt,j,noRew,,,,,,1.6983,0,28,0,28,0,1,,,,,,,,,,,,,,,,,
294910,2022-12-01_11h30.23.647,vts_reward_expectancy_bt,2022.2.4,MacIntel,59.99880002,Chrome,1440,900,,,,,0,648,,,,,,,,,,,,,,,,,U,167,star,1,0,,,,,,,,,,,,,,,,repeat,number,numRpt,k,noRew,,,,,,0.8469,0,29,0,29,0,1,,,,,,,,,,,,,,,,,
294910,2022-12-01_11h30.23.647,vts_reward_expectancy_bt,2022.2.4,MacIntel,59.99880002,Chrome,1440,900,,,,,0,648,,,,,,,,,,,,,,,,,D,160,star,1,0,,,,,,,,,,,,,,,,repeat,number,numRpt,k,noRew,,,,,,0.7813,0,30,0,30,0,1,,,,,,,,,,,,,,,,,
294910,2022-12-01_11h30.23.647,vts_reward_expectancy_bt,2022.2.4,MacIntel,59.99880002,Chrome,1440,900,,,,,0,648,,,,,,,,,,,,,,,,,H,181,hexagon,1,0,,,,,,,,,,,,,,,,repeat,number,numRpt,k,noRew,,,,,,0.7636,0,31,0,31,0,1,,,,,,,,,,,,,,,,,
294910,2022-12-01_11h30.23.647,vts_reward_expectancy_bt,2022.2.4,MacIntel,59.99880002,Chrome,1440,900,,,,,0,648,,,,,,,,,,,,,,,,,D,146,circle,1,0,,,,,,,,,,,,,,,,repeat,number,numRpt,j,noRew,,,,,,1.4127,0,32,0,32,0,1,,,,,,,,,,,,,,,,,
294910,2022-12-01_11h30.23.647,vts_reward_expectancy_bt,2022.2.4,MacIntel,59.99880002,Chrome,1440,900,,,,,0,648,,,,,,,,,,,,,,,,,W,125,hexagon,1,0,,,,,,,,,,,,,,,,switch,letter,lettSwt,f,noRew,,,,,,0.7176,0,33,0,33,0,1,,,,,,,,,,,,,,,,,
294910,2022-12-01_11h30.23.647,vts_reward_expectancy_bt,2022.2.4,MacIntel,59.99880002,Chrome,1440,900,,,,,0,648,,,,,,,,,,,,,,,,,B,139,star,1,0,,,,,,,,,,,,,,,,repeat,letter,lettRpt,d,noRew,,,,,,0.7462,0,34,0,34,0,1,,,,,,,,,,,,,,,,,
294910,2022-12-01_11h30.23.647,vts_reward_expectancy_bt,2022.2.4,MacIntel,59.99880002,Chrome,1440,900,,,,,0,648,,,,,,,,,,,,,,,,,H,167,triangle,1,0,,,,,,,,,,,,,,,,repeat,letter,lettRpt,d,noRew,,,,,,0.7361,0,35,0,35,0,1,,,,,,,,,,,,,,,,,
294910,2022-12-01_11h30.23.647,vts_reward_expectancy_bt,2022.2.4,MacIntel,59.99880002,Chrome,1440,900,,,,,0,648,,,,,,,,,,,,,,,,,B,181,hexagon,1,0,,,,,,,,,,,,,,,,repeat,letter,lettRpt,d,noRew,,,,,,0.6306,0,36,0,36,0,1,,,,,,,,,,,,,,,,,
294910,2022-12-01_11h30.23.647,vts_reward_expectancy_bt,2022.2.4,MacIntel,59.99880002,Chrome,1440,900,,,,,0,648,,,,,,,,,,,,,,,,,F,160,triangle,1,0,,,,,,,,,,,,,,,,repeat,letter,lettRpt,d,noRew,,,,,,0.6466,0,37,0,37,0,1,,,,,,,,,,,,,,,,,
294910,2022-12-01_11h30.23.647,vts_reward_expectancy_bt,2022.2.4,MacIntel,59.99880002,Chrome,1440,900,,,,,0,648,,,,,,,,,,,,,,,,,Y,174,hexagon,1,0,,,,,,,,,,,,,,,,repeat,letter,lettRpt,f,noRew,,,,,,0.8984,0,38,0,38,0,1,,,,,,,,,,,,,,,,,
294910,2022-12-01_11h30.23.647,vts_reward_expectancy_bt,2022.2.4,MacIntel,59.99880002,Chrome,1440,900,,,,,0,648,,,,,,,,,,,,,,,,,H,167,triangle,1,0,,,,,,,,,,,,,,,,repeat,letter,lettRpt,d,noRew,,,,,,0.818,0,39,0,39,0,1,,,,,,,,,,,,,,,,,
294910,2022-12-01_11h30.23.647,vts_reward_expectancy_bt,2022.2.4,MacIntel,59.99880002,Chrome,1440,900,,,,,0,648,,,,,,,,,,,,,,,,,U,174,star,1,0,,,,,,,,,,,,,,,,repeat,letter,lettRpt,f,noRew,,,,,,1.0368,0,40,0,40,0,1,,,,,,,,,,,,,,,,,
294910,2022-12-01_11h30.23.647,vts_reward_expectancy_bt,2022.2.4,MacIntel,59.99880002,Chrome,1440,900,,,,,0,648,,,,,,,,,,,,,,,,,H,181,triangle,1,0,,,,,,,,,,,,,,,,repeat,letter,lettRpt,d,noRew,,,,,,0.716,0,41,0,41,0,1,,,,,,,,,,,,,,,,,
294910,2022-12-01_11h30.23.647,vts_reward_expectancy_bt,2022.2.4,MacIntel,59.99880002,Chrome,1440,900,,,,,0,648,,,,,,,,,,,,,,,,,W,167,triangle,1,0,,,,,,,,,,,,,,,,repeat,letter,lettRpt,f,noRew,,,,,,0.8309,0,42,0,42,0,1,,,,,,,,,,,,,,,,,
294910,2022-12-01_11h30.23.647,vts_reward_expectancy_bt,2022.2.4,MacIntel,59.99880002,Chrome,1440,900,,,,,0,648,,,,,,,,,,,,,,,,,S,160,hexagon,1,0,,,,,,,,,,,,,,,,repeat,letter,lettRpt,f,noRew,,,,,,1.1472,0,43,0,43,0,1,,,,,,,,,,,,,,,,,
294910,2022-12-01_11h30.23.647,vts_reward_expectancy_bt,2022.2.4,MacIntel,59.99880002,Chrome,1440,900,,,,,0,648,,,,,,,,,,,,,,,,,Y,125,star,1,0,,,,,,,,,,,,,,,,repeat,letter,lettRpt,f,noRew,,,,,,0.7313,0,44,0,44,0,1,,,,,,,,,,,,,,,,,
294910,2022-12-01_11h30.23.647,vts_reward_expectancy_bt,2022.2.4,MacIntel,59.99880002,Chrome,1440,900,,,,,0,648,,,,,,,,,,,,,,,,,F,160,triangle,1,0,,,,,,,,,,,,,,,,repeat,letter,lettRpt,d,noRew,,,,,,0.6143,0,45,0,45,0,1,,,,,,,,,,,,,,,,,
294910,2022-12-01_11h30.23.647,vts_reward_expectancy_bt,2022.2.4,MacIntel,59.99880002,Chrome,1440,900,,,,,0,648,,,,,,,,,,,,,,,,,W,139,triangle,1,0,,,,,,,,,,,,,,,,switch,number,numSwt,j,noRew,,,,,,0.9637,0,46,0,46,0,1,,,,,,,,,,,,,,,,,
294910,2022-12-01_11h30.23.647,vts_reward_expectancy_bt,2022.2.4,MacIntel,59.99880002,Chrome,1440,900,,,,,0,648,,,,,,,,,,,,,,,,,D,146,circle,1,0,,,,,,,,,,,,,,,,repeat,number,numRpt,j,noRew,,,,,,1.2982,0,47,0,47,0,1,,,,,,,,,,,,,,,,,
294910,2022-12-01_11h30.23.647,vts_reward_expectancy_bt,2022.2.4,MacIntel,59.99880002,Chrome,1440,900,,,,,0,648,,,,,,,,,,,,,,,,,S,132,circle,1,0,,,,,,,,,,,,,,,,repeat,number,numRpt,j,noRew,,,,,,0.615,0,48,0,48,0,1,,,,,,,,,,,,,,,,,
294910,2022-12-01_11h30.23.647,vts_reward_expectancy_bt,2022.2.4,MacIntel,59.99880002,Chrome,1440,900,,,,,0,648,,,,,,,,,,,,,,,,,B,181,star,1,0,,,,,,,,,,,,,,,,repeat,number,numRpt,k,noRew,,,,,,0.765,0,49,0,49,0,1,,,,,,,,,,,,,,,,,
294910,2022-12-01_11h30.23.647,vts_reward_expectancy_bt,2022.2.4,MacIntel,59.99880002,Chrome,1440,900,,,,,0,648,,,,,,,,,,,,,,,,,U,146,star,1,0,,,,,,,,,,,,,,,,switch,letter,lettSwt,f,noRew,,,,,,0.7806,0,50,0,50,0,1,,,,,,,,,,,,,,,,,
294910,2022-12-01_11h30.23.647,vts_reward_expectancy_bt,2022.2.4,MacIntel,59.99880002,Chrome,1440,900,,,,,0,648,,,,,,,,,,,,,,,,,W,125,circle,1,0,,,,,,,,,,,,,,,,repeat,letter,lettRpt,f,noRew,,,,,,0.9332,0,51,0,51,0,1,,,,,,,,,,,,,,,,,
294910,2022-12-01_11h30.23.647,vts_reward_expectancy_bt,2022.2.4,MacIntel,59.99880002,Chrome,1440,900,,,,,0,648,,,,,,,,,,,,,,,,,S,167,triangle,1,0,,,,,,,,,,,,,,,,repeat,letter,lettRpt,f,noRew,,,,,,0.8315,0,52,0,52,0,1,,,,,,,,,,,,,,,,,
294910,2022-12-01_11h30.23.647,vts_reward_expectancy_bt,2022.2.4,MacIntel,59.99880002,Chrome,1440,900,,,,,0,648,,,,,,,,,,,,,,,,,B,181,star,1,0,,,,,,,,,,,,,,,,repeat,letter,lettRpt,d,noRew,,,,,,0.748,0,53,0,53,0,1,,,,,,,,,,,,,,,,,
294910,2022-12-01_11h30.23.647,vts_reward_expectancy_bt,2022.2.4,MacIntel,59.99880002,Chrome,1440,900,,,,,0,648,,,,,,,,,,,,,,,,,U,125,star,1,0,,,,,,,,,,,,,,,,switch,number,numSwt,j,noRew,,,,,,0.6645,0,54,0,54,0,1,,,,,,,,,,,,,,,,,
294910,2022-12-01_11h30.23.647,vts_reward_expectancy_bt,2022.2.4,MacIntel,59.99880002,Chrome,1440,900,,,,,0,648,,,,,,,,,,,,,,,,,D,160,hexagon,1,0,,,,,,,,,,,,,,,,repeat,number,numRpt,k,noRew,,,,,,1.2307,0,55,0,55,0,1,,,,,,,,,,,,,,,,,
294910,2022-12-01_11h30.23.647,vts_reward_expectancy_bt,2022.2.4,MacIntel,59.99880002,Chrome,1440,900,,,,,0,648,,,,,,,,,,,,,,,,,Y,167,hexagon,1,0,,,,,,,,,,,,,,,,switch,letter,lettSwt,f,noRew,,,,,,1.4795,0,56,0,56,0,1,,,,,,,,,,,,,,,,,
294910,2022-12-01_11h30.23.647,vts_reward_expectancy_bt,2022.2.4,MacIntel,59.99880002,Chrome,1440,900,,,,,0,648,,,,,,,,,,,,,,,,,H,160,triangle,1,0,,,,,,,,,,,,,,,,repeat,letter,lettRpt,d,noRew,,,,,,1.4305,0,57,0,57,0,1,,,,,,,,,,,,,,,,,
294910,2022-12-01_11h30.23.647,vts_reward_expectancy_bt,2022.2.4,MacIntel,59.99880002,Chrome,1440,900,,,,,0,648,,,,,,,,,,,,,,,,,F,132,circle,1,0,,,,,,,,,,,,,,,,repeat,letter,lettRpt,d,noRew,,,,,,0.799,0,58,0,58,0,1,,,,,,,,,,,,,,,,,
294910,2022-12-01_11h30.23.647,vts_reward_expectancy_bt,2022.2.4,MacIntel,59.99880002,Chrome,1440,900,,,,,0,648,,,,,,,,,,,,,,,,,B,139,hexagon,1,0,,,,,,,,,,,,,,,,repeat,letter,lettRpt,d,noRew,,,,,,0.7146,0,59,0,59,0,1,,,,,,,,,,,,,,,,,
294910,2022-12-01_11h30.23.647,vts_reward_expectancy_bt,2022.2.4,MacIntel,59.99880002,Chrome,1440,900,,,,,0,648,,,,,,,,,,,,,,,,,H,160,triangle,1,0,,,,,,,,,,,,,,,,repeat,letter,lettRpt,d,noRew,,,,,,0.913,0,60,0,60,0,1,,,,,,,,,,,,,,,,,
294910,2022-12-01_11h30.23.647,vts_reward_expectancy_bt,2022.2.4,MacIntel,59.99880002,Chrome,1440,900,,,,,0,648,,,,,,,,,,,,,,,,,S,132,circle,1,0,,,,,,,,,,,,,,,,repeat,letter,lettRpt,f,noRew,,,,,,1.2308,0,61,0,61,0,1,,,,,,,,,,,,,,,,,
294910,2022-12-01_11h30.23.647,vts_reward_expectancy_bt,2022.2.4,MacIntel,59.99880002,Chrome,1440,900,,,,,0,648,,,,,,,,,,,,,,,,,W,139,circle,1,0,,,,,,,,,,,,,,,,repeat,letter,lettRpt,f,noRew,,,,,,1.104,0,62,0,62,0,1,,,,,,,,,,,,,,,,,
294910,2022-12-01_11h30.23.647,vts_reward_expectancy_bt,2022.2.4,MacIntel,59.99880002,Chrome,1440,900,,,,,0,648,,,,,,,,,,,,,,,,,F,146,hexagon,1,0,,,,,,,,,,,,,,,,repeat,letter,lettRpt,d,noRew,,,,,,0.7536,0,63,0,63,0,1,,,,,,,,,,,,,,,,,
294910,2022-12-01_11h30.23.647,vts_reward_expectancy_bt,2022.2.4,MacIntel,59.99880002,Chrome,1440,900,,,,,,,,,,,,,,,,,,,,,,,,,,,,,,,,,,,,,,,,,,,,,,,,,,,,,,,,,,,,,,,,,,,,,,,,,,,,
294910,2022-12-01_11h30.23.647,vts_reward_expectancy_bt,2022.2.4,MacIntel,59.99880002,Chrome,1440,900,,,,,1,649,,,,,,,,,,,,,,,,,H,139,star,1,0,,,,,,,,,,,,,,,,repeat,letter,lettRpt,d,Lo,,,,,,0.8466,0,,,,,,space,21.9334,low,0,0,0,0,1,,,,,,,,,
294910,2022-12-01_11h30.23.647,vts_reward_expectancy_bt,2022.2.4,MacIntel,59.99880002,Chrome,1440,900,,,,,0,649,,,,,,,,,,,,,,,,,D,174,hexagon,-1,0,,,,,,,,,,,,,,,,switch,no_choice,NA,,Lo,,,,,,,0,,,,,,,,low,1,0,1,0,1,,,,,,,,,
294910,2022-12-01_11h30.23.647,vts_reward_expectancy_bt,2022.2.4,MacIntel,59.99880002,Chrome,1440,900,,,,,10,659,,,,,,,,,,,,,,,,,U,125,circle,1,0,,,,,,,,,,,,,,,,switch,number,numSwt,j,Hi,,,,,,0.6478,0,,,,,,,,low,2,0,2,0,1,,,,,,,,,
294910,2022-12-01_11h30.23.647,vts_reward_expectancy_bt,2022.2.4,MacIntel,59.99880002,Chrome,1440,900,,,,,10,669,,,,,,,,,,,,,,,,,W,132,triangle,1,0,,,,,,,,,,,,,,,,repeat,number,numRpt,j,Hi,,,,,,0.5474,0,,,,,,,,low,3,0,3,0,1,,,,,,,,,
294910,2022-12-01_11h30.23.647,vts_reward_expectancy_bt,2022.2.4,MacIntel,59.99880002,Chrome,1440,900,,,,,10,679,,,,,,,,,,,,,,,,,S,167,star,1,0,,,,,,,,,,,,,,,,repeat,number,numRpt,k,Lo,,,,,,0.805,0,,,,,,,,low,4,0,4,0,1,,,,,,,,,
294910,2022-12-01_11h30.23.647,vts_reward_expectancy_bt,2022.2.4,MacIntel,59.99880002,Chrome,1440,900,,,,,0,679,,,,,,,,,,,,,,,,,Y,146,hexagon,0,0,,,,,,,,,,,,,,,,repeat,number,NA,k,Lo,,,,,,0.4979,0,,,,,,,,low,5,0,5,0,1,,,,,,,,,
294910,2022-12-01_11h30.23.647,vts_reward_expectancy_bt,2022.2.4,MacIntel,59.99880002,Chrome,1440,900,,,,,1,680,,,,,,,,,,,,,,,,,F,181,circle,1,1,,,,,,,,,,,,,,,,repeat,number,numRpt,k,Hi,,,,,,0.7314,0,,,,,,,,low,6,0,6,0,1,,,,,,,,,
294910,2022-12-01_11h30.23.647,vts_reward_expectancy_bt,2022.2.4,MacIntel,59.99880002,Chrome,1440,900,,,,,1,681,,,,,,,,,,,,,,,,,B,160,triangle,1,0,,,,,,,,,,,,,,,,repeat,number,numRpt,k,Hi,,,,,,0.698,0,,,,,,,,low,7,0,7,0,1,,,,,,,,,
294910,2022-12-01_11h30.23.647,vts_reward_expectancy_bt,2022.2.4,MacIntel,59.99880002,Chrome,1440,900,,,,,1,682,,,,,,,,,,,,,,,,,H,139,star,1,0,,,,,,,,,,,,,,,,switch,letter,lettSwt,d,Lo,,,,,,0.6641,0,,,,,,,,low,8,0,8,0,1,,,,,,,,,
294910,2022-12-01_11h30.23.647,vts_reward_expectancy_bt,2022.2.4,MacIntel,59.99880002,Chrome,1440,900,,,,,1,683,,,,,,,,,,,,,,,,,D,174,hexagon,1,0,,,,,,,,,,,,,,,,switch,number,numSwt,k,Lo,,,,,,0.5516,0,,,,,,,,low,9,0,9,0,1,,,,,,,,,
294910,2022-12-01_11h30.23.647,vts_reward_expectancy_bt,2022.2.4,MacIntel,59.99880002,Chrome,1440,900,,,,,1,684,,,,,,,,,,,,,,,,,U,125,circle,1,0,,,,,,,,,,,,,,,,repeat,number,numRpt,j,Hi,,,,,,0.5143,0,,,,,,,,low,10,0,10,0,1,,,,,,,,,
294910,2022-12-01_11h30.23.647,vts_reward_expectancy_bt,2022.2.4,MacIntel,59.99880002,Chrome,1440,900,,,,,0,684,,,,,,,,,,,,,,,,,W,132,triangle,1,0,,,,,,,,,,,,,,,,repeat,number,numRpt,j,Hi,,,,,,1.1496,0,,,,,,,,low,11,0,11,0,1,,,,,,,,,
294910,2022-12-01_11h30.23.647,vts_reward_expectancy_bt,2022.2.4,MacIntel,59.99880002,Chrome,1440,900,,,,,10,694,,,,,,,,,,,,,,,,,S,167,triangle,1,0,,,,,,,,,,,,,,,,repeat,number,numRpt,k,Hi,,,,,,0.6342,0,,,,,,,,low,12,0,12,0,1,,,,,,,,,
294910,2022-12-01_11h30.23.647,vts_reward_expectancy_bt,2022.2.4,MacIntel,59.99880002,Chrome,1440,900,,,,,1,695,,,,,,,,,,,,,,,,,Y,146,circle,1,0,,,,,,,,,,,,,,,,switch,letter,lettSwt,f,Hi,,,,,,0.7023,0,,,,,,,,low,13,0,13,0,1,,,,,,,,,
294910,2022-12-01_11h30.23.647,vts_reward_expectancy_bt,2022.2.4,MacIntel,59.99880002,Chrome,1440,900,,,,,10,705,,,,,,,,,,,,,,,,,F,181,hexagon,1,0,,,,,,,,,,,,,,,,switch,number,numSwt,k,Lo,,,,,,0.6223,0,,,,,,,,low,14,0,14,0,1,,,,,,,,,
294910,2022-12-01_11h30.23.647,vts_reward_expectancy_bt,2022.2.4,MacIntel,59.99880002,Chrome,1440,900,,,,,10,715,,,,,,,,,,,,,,,,,B,160,star,1,0,,,,,,,,,,,,,,,,repeat,number,numRpt,k,Lo,,,,,,0.5839,0,,,,,,,,low,15,0,15,0,1,,,,,,,,,
294910,2022-12-01_11h30.23.647,vts_reward_expectancy_bt,2022.2.4,MacIntel,59.99880002,Chrome,1440,900,,,,,10,725,,,,,,,,,,,,,,,,,Y,160,hexagon,1,0,,,,,,,,,,,,,,,,repeat,number,numRpt,k,Lo,,,,,,0.4837,0,,,,,,,,low,16,0,16,0,1,,,,,,,,,
294910,2022-12-01_11h30.23.647,vts_reward_expectancy_bt,2022.2.4,MacIntel,59.99880002,Chrome,1440,900,,,,,0,725,,,,,,,,,,,,,,,,,B,132,triangle,0,0,,,,,,,,,,,,,,,,repeat,number,NA,k,Lo,,,,,,0.4673,0,,,,,,,,low,17,0,17,0,1,,,,,,,,,
294910,2022-12-01_11h30.23.647,vts_reward_expectancy_bt,2022.2.4,MacIntel,59.99880002,Chrome,1440,900,,,,,1,726,,,,,,,,,,,,,,,,,H,125,star,1,1,,,,,,,,,,,,,,,,repeat,number,numRpt,j,Lo,,,,,,1.1969,0,,,,,,,,low,18,0,18,0,1,,,,,,,,,
294910,2022-12-01_11h30.23.647,vts_reward_expectancy_bt,2022.2.4,MacIntel,59.99880002,Chrome,1440,900,,,,,0,726,,,,,,,,,,,,,,,,,F,139,circle,1,0,,,,,,,,,,,,,,,,switch,letter,lettSwt,d,Hi,,,,,,0.8302,0,,,,,,,,low,19,0,19,0,1,,,,,,,,,
294910,2022-12-01_11h30.23.647,vts_reward_expectancy_bt,2022.2.4,MacIntel,59.99880002,Chrome,1440,900,,,,,10,736,,,,,,,,,,,,,,,,,W,181,triangle,1,0,,,,,,,,,,,,,,,,repeat,letter,lettRpt,f,Hi,,,,,,0.6019,0,,,,,,,,low,20,0,20,0,1,,,,,,,,,
294910,2022-12-01_11h30.23.647,vts_reward_expectancy_bt,2022.2.4,MacIntel,59.99880002,Chrome,1440,900,,,,,1,737,,,,,,,,,,,,,,,,,U,174,star,1,0,,,,,,,,,,,,,,,,repeat,letter,lettRpt,f,Lo,,,,,,0.632,0,,,,,,,,low,21,0,21,0,1,,,,,,,,,
294910,2022-12-01_11h30.23.647,vts_reward_expectancy_bt,2022.2.4,MacIntel,59.99880002,Chrome,1440,900,,,,,10,747,,,,,,,,,,,,,,,,,S,167,circle,1,0,,,,,,,,,,,,,,,,repeat,letter,lettRpt,f,Hi,,,,,,0.6341,0,,,,,,,,low,22,0,22,0,1,,,,,,,,,
294910,2022-12-01_11h30.23.647,vts_reward_expectancy_bt,2022.2.4,MacIntel,59.99880002,Chrome,1440,900,,,,,1,748,,,,,,,,,,,,,,,,,D,146,hexagon,1,0,,,,,,,,,,,,,,,,repeat,letter,lettRpt,d,Lo,,,,,,0.7981,0,,,,,,,,low,23,0,23,0,1,,,,,,,,,
294910,2022-12-01_11h30.23.647,vts_reward_expectancy_bt,2022.2.4,MacIntel,59.99880002,Chrome,1440,900,,,,,0,748,,,,,,,,,,,,,,,,,B,125,triangle,1,0,,,,,,,,,,,,,,,,repeat,letter,lettRpt,d,Hi,,,,,,0.8311,0,,,,,,,,low,24,0,24,0,1,,,,,,,,,
294910,2022-12-01_11h30.23.647,vts_reward_expectancy_bt,2022.2.4,MacIntel,59.99880002,Chrome,1440,900,,,,,0,748,,,,,,,,,,,,,,,,,S,167,hexagon,0,0,,,,,,,,,,,,,,,,repeat,letter,NA,d,Hi,,,,,,0.5321,0,,,,,,,,low,25,0,25,0,1,,,,,,,,,
294910,2022-12-01_11h30.23.647,vts_reward_expectancy_bt,2022.2.4,MacIntel,59.99880002,Chrome,1440,900,,,,,0,748,,,,,,,,,,,,,,,,,D,132,circle,0,1,,,,,,,,,,,,,,,,repeat,letter,NA,f,Hi,,,,,,0.497,0,,,,,,,,low,26,0,26,0,1,,,,,,,,,
294910,2022-12-01_11h30.23.647,vts_reward_expectancy_bt,2022.2.4,MacIntel,59.99880002,Chrome,1440,900,,,,,1,749,,,,,,,,,,,,,,,,,U,146,star,1,1,,,,,,,,,,,,,,,,repeat,letter,lettRpt,f,Lo,,,,,,0.5967,0,,,,,,,,low,27,0,27,0,1,,,,,,,,,
294910,2022-12-01_11h30.23.647,vts_reward_expectancy_bt,2022.2.4,MacIntel,59.99880002,Chrome,1440,900,,,,,0,749,,,,,,,,,,,,,,,,,F,160,circle,1,0,,,,,,,,,,,,,,,,repeat,letter,lettRpt,d,Hi,,,,,,0.8132,0,,,,,,,,low,28,0,28,0,1,,,,,,,,,
294910,2022-12-01_11h30.23.647,vts_reward_expectancy_bt,2022.2.4,MacIntel,59.99880002,Chrome,1440,900,,,,,1,750,,,,,,,,,,,,,,,,,H,139,hexagon,1,0,,,,,,,,,,,,,,,,repeat,letter,lettRpt,d,Lo,,,,,,0.5526,0,,,,,,,,low,29,0,29,0,1,,,,,,,,,
294910,2022-12-01_11h30.23.647,vts_reward_expectancy_bt,2022.2.4,MacIntel,59.99880002,Chrome,1440,900,,,,,10,760,,,,,,,,,,,,,,,,,W,174,triangle,1,0,,,,,,,,,,,,,,,,repeat,letter,lettRpt,f,Hi,,,,,,0.4799,0,,,,,,,,low,30,0,30,0,1,,,,,,,,,
294910,2022-12-01_11h30.23.647,vts_reward_expectancy_bt,2022.2.4,MacIntel,59.99880002,Chrome,1440,900,,,,,10,770,,,,,,,,,,,,,,,,,Y,181,star,1,0,,,,,,,,,,,,,,,,repeat,letter,lettRpt,f,Lo,,,,,,0.6152,0,,,,,,,,low,31,0,31,0,1,,,,,,,,,
294910,2022-12-01_11h30.23.647,vts_reward_expectancy_bt,2022.2.4,MacIntel,59.99880002,Chrome,1440,900,,,,,0,770,,,,,,,,,,,,,,,,,S,146,circle,1,0,,,,,,,,,,,,,,,,switch,number,numSwt,j,Hi,,,,,,1.3639,1,,,,,,space,1.7525,low,0,0,0,0,1,,,,,,,,,
294910,2022-12-01_11h30.23.647,vts_reward_expectancy_bt,2022.2.4,MacIntel,59.99880002,Chrome,1440,900,,,,,1,771,,,,,,,,,,,,,,,,,B,167,star,1,0,,,,,,,,,,,,,,,,repeat,number,numRpt,k,Lo,,,,,,0.5712,1,,,,,,,,low,1,0,1,0,1,,,,,,,,,
294910,2022-12-01_11h30.23.647,vts_reward_expectancy_bt,2022.2.4,MacIntel,59.99880002,Chrome,1440,900,,,,,10,781,,,,,,,,,,,,,,,,,F,125,hexagon,1,0,,,,,,,,,,,,,,,,repeat,number,numRpt,j,Lo,,,,,,0.5055,1,,,,,,,,low,2,0,2,0,1,,,,,,,,,
294910,2022-12-01_11h30.23.647,vts_reward_expectancy_bt,2022.2.4,MacIntel,59.99880002,Chrome,1440,900,,,,,0,781,,,,,,,,,,,,,,,,,D,139,triangle,1,0,,,,,,,,,,,,,,,,repeat,number,numRpt,j,Hi,,,,,,0.9498,1,,,,,,,,low,3,0,3,0,1,,,,,,,,,
294910,2022-12-01_11h30.23.647,vts_reward_expectancy_bt,2022.2.4,MacIntel,59.99880002,Chrome,1440,900,,,,,10,791,,,,,,,,,,,,,,,,,W,160,circle,1,0,,,,,,,,,,,,,,,,repeat,number,numRpt,k,Hi,,,,,,0.4506,1,,,,,,,,low,4,0,4,0,1,,,,,,,,,
294910,2022-12-01_11h30.23.647,vts_reward_expectancy_bt,2022.2.4,MacIntel,59.99880002,Chrome,1440,900,,,,,10,801,,,,,,,,,,,,,,,,,U,132,star,1,0,,,,,,,,,,,,,,,,repeat,number,numRpt,j,Lo,,,,,,0.7531,1,,,,,,,,low,5,0,5,0,1,,,,,,,,,
294910,2022-12-01_11h30.23.647,vts_reward_expectancy_bt,2022.2.4,MacIntel,59.99880002,Chrome,1440,900,,,,,1,802,,,,,,,,,,,,,,,,,Y,174,hexagon,1,0,,,,,,,,,,,,,,,,repeat,number,numRpt,k,Lo,,,,,,0.4158,1,,,,,,,,low,6,0,6,0,1,,,,,,,,,
294910,2022-12-01_11h30.23.647,vts_reward_expectancy_bt,2022.2.4,MacIntel,59.99880002,Chrome,1440,900,,,,,1,803,,,,,,,,,,,,,,,,,H,181,triangle,1,0,,,,,,,,,,,,,,,,repeat,number,numRpt,k,Hi,,,,,,0.4522,1,,,,,,,,low,7,0,7,0,1,,,,,,,,,
294910,2022-12-01_11h30.23.647,vts_reward_expectancy_bt,2022.2.4,MacIntel,59.99880002,Chrome,1440,900,,,,,1,804,,,,,,,,,,,,,,,,,S,146,star,1,0,,,,,,,,,,,,,,,,repeat,number,numRpt,j,Lo,,,,,,0.8479,1,,,,,,,,low,8,0,8,0,1,,,,,,,,,
294910,2022-12-01_11h30.23.647,vts_reward_expectancy_bt,2022.2.4,MacIntel,59.99880002,Chrome,1440,900,,,,,10,814,,,,,,,,,,,,,,,,,B,167,circle,1,0,,,,,,,,,,,,,,,,repeat,number,numRpt,k,Hi,,,,,,0.5318,1,,,,,,,,low,9,0,9,0,1,,,,,,,,,
294910,2022-12-01_11h30.23.647,vts_reward_expectancy_bt,2022.2.4,MacIntel,59.99880002,Chrome,1440,900,,,,,1,815,,,,,,,,,,,,,,,,,F,125,hexagon,1,0,,,,,,,,,,,,,,,,repeat,number,numRpt,j,Lo,,,,,,0.665,1,,,,,,,,low,10,0,10,0,1,,,,,,,,,
294910,2022-12-01_11h30.23.647,vts_reward_expectancy_bt,2022.2.4,MacIntel,59.99880002,Chrome,1440,900,,,,,0,815,,,,,,,,,,,,,,,,,D,139,triangle,0,0,,,,,,,,,,,,,,,,repeat,number,NA,k,Lo,,,,,,0.4314,1,,,,,,,,low,11,0,11,0,1,,,,,,,,,
294910,2022-12-01_11h30.23.647,vts_reward_expectancy_bt,2022.2.4,MacIntel,59.99880002,Chrome,1440,900,,,,,0,815,,,,,,,,,,,,,,,,,W,160,triangle,1,1,,,,,,,,,,,,,,,,repeat,number,numRpt,k,Hi,,,,,,0.6385,1,,,,,,,,low,12,0,12,0,1,,,,,,,,,
294910,2022-12-01_11h30.23.647,vts_reward_expectancy_bt,2022.2.4,MacIntel,59.99880002,Chrome,1440,900,,,,,0,815,,,,,,,,,,,,,,,,,U,132,star,0,0,,,,,,,,,,,,,,,,repeat,number,NA,k,Hi,,,,,,0.398,1,,,,,,,,low,13,0,13,0,1,,,,,,,,,
294910,2022-12-01_11h30.23.647,vts_reward_expectancy_bt,2022.2.4,MacIntel,59.99880002,Chrome,1440,900,,,,,0,815,,,,,,,,,,,,,,,,,Y,174,hexagon,0,1,,,,,,,,,,,,,,,,repeat,number,NA,j,Hi,,,,,,0.4029,1,,,,,,,,low,14,0,14,0,1,,,,,,,,,
294910,2022-12-01_11h30.23.647,vts_reward_expectancy_bt,2022.2.4,MacIntel,59.99880002,Chrome,1440,900,,,,,10,825,,,,,,,,,,,,,,,,,H,181,circle,1,1,,,,,,,,,,,,,,,,repeat,number,numRpt,k,Hi,,,,,,0.5141,1,,,,,,,,low,15,0,15,0,1,,,,,,,,,
294910,2022-12-01_11h30.23.647,vts_reward_expectancy_bt,2022.2.4,MacIntel,59.99880002,Chrome,1440,900,,,,,10,835,,,,,,,,,,,,,,,,,W,174,triangle,1,0,,,,,,,,,,,,,,,,repeat,number,numRpt,k,Hi,,,,,,0.4484,1,,,,,,,,low,16,0,16,0,1,,,,,,,,,
294910,2022-12-01_11h30.23.647,vts_reward_expectancy_bt,2022.2.4,MacIntel,59.99880002,Chrome,1440,900,,,,,10,845,,,,,,,,,,,,,,,,,B,160,hexagon,1,0,,,,,,,,,,,,,,,,repeat,number,numRpt,k,Lo,,,,,,0.4495,1,,,,,,,,low,17,0,17,0,1,,,,,,,,,
294910,2022-12-01_11h30.23.647,vts_reward_expectancy_bt,2022.2.4,MacIntel,59.99880002,Chrome,1440,900,,,,,10,855,,,,,,,,,,,,,,,,,D,139,circle,1,0,,,,,,,,,,,,,,,,repeat,number,numRpt,j,Hi,,,,,,0.4552,1,,,,,,,,low,18,0,18,0,1,,,,,,,,,
294910,2022-12-01_11h30.23.647,vts_reward_expectancy_bt,2022.2.4,MacIntel,59.99880002,Chrome,1440,900,,,,,10,865,,,,,,,,,,,,,,,,,F,132,star,1,0,,,,,,,,,,,,,,,,repeat,number,numRpt,j,Lo,,,,,,0.8479,1,,,,,,,,low,19,0,19,0,1,,,,,,,,,
294910,2022-12-01_11h30.23.647,vts_reward_expectancy_bt,2022.2.4,MacIntel,59.99880002,Chrome,1440,900,,,,,1,866,,,,,,,,,,,,,,,,,U,125,hexagon,1,0,,,,,,,,,,,,,,,,repeat,number,numRpt,j,Lo,,,,,,0.5362,1,,,,,,,,low,20,0,20,0,1,,,,,,,,,
294910,2022-12-01_11h30.23.647,vts_reward_expectancy_bt,2022.2.4,MacIntel,59.99880002,Chrome,1440,900,,,,,0,866,,,,,,,,,,,,,,,,,S,146,triangle,0,0,,,,,,,,,,,,,,,,repeat,number,NA,k,Lo,,,,,,0.6807,1,,,,,,,,low,21,0,21,0,1,,,,,,,,,
294910,2022-12-01_11h30.23.647,vts_reward_expectancy_bt,2022.2.4,MacIntel,59.99880002,Chrome,1440,900,,,,,10,876,,,,,,,,,,,,,,,,,H,167,star,1,1,,,,,,,,,,,,,,,,repeat,number,numRpt,k,Lo,,,,,,0.6129,1,,,,,,,,low,22,0,22,0,1,,,,,,,,,
294910,2022-12-01_11h30.23.647,vts_reward_expectancy_bt,2022.2.4,MacIntel,59.99880002,Chrome,1440,900,,,,,10,886,,,,,,,,,,,,,,,,,Y,181,circle,1,0,,,,,,,,,,,,,,,,repeat,number,numRpt,k,Hi,,,,,,0.5639,1,,,,,,,,low,23,0,23,0,1,,,,,,,,,
294910,2022-12-01_11h30.23.647,vts_reward_expectancy_bt,2022.2.4,MacIntel,59.99880002,Chrome,1440,900,,,,,0,886,,,,,,,,,,,,,,,,,W,146,circle,1,0,,,,,,,,,,,,,,,,repeat,number,numRpt,j,Hi,,,,,,0.8483,1,,,,,,,,low,24,0,24,0,1,,,,,,,,,
294910,2022-12-01_11h30.23.647,vts_reward_expectancy_bt,2022.2.4,MacIntel,59.99880002,Chrome,1440,900,,,,,1,887,,,,,,,,,,,,,,,,,Y,125,hexagon,1,0,,,,,,,,,,,,,,,,repeat,number,numRpt,j,Lo,,,,,,0.6642,1,,,,,,,,low,25,0,25,0,1,,,,,,,,,
294910,2022-12-01_11h30.23.647,vts_reward_expectancy_bt,2022.2.4,MacIntel,59.99880002,Chrome,1440,900,,,,,10,897,,,,,,,,,,,,,,,,,H,167,star,1,0,,,,,,,,,,,,,,,,repeat,number,numRpt,k,Lo,,,,,,0.3811,1,,,,,,,,low,26,0,26,0,1,,,,,,,,,
294910,2022-12-01_11h30.23.647,vts_reward_expectancy_bt,2022.2.4,MacIntel,59.99880002,Chrome,1440,900,,,,,10,907,,,,,,,,,,,,,,,,,B,139,triangle,1,0,,,,,,,,,,,,,,,,repeat,number,numRpt,j,Hi,,,,,,0.5141,1,,,,,,,,low,27,0,27,0,1,,,,,,,,,
294910,2022-12-01_11h30.23.647,vts_reward_expectancy_bt,2022.2.4,MacIntel,59.99880002,Chrome,1440,900,,,,,0,907,,,,,,,,,,,,,,,,,D,132,circle,1,0,,,,,,,,,,,,,,,,repeat,number,numRpt,j,Hi,,,,,,0.749,1,,,,,,,,low,28,0,28,0,1,,,,,,,,,
294910,2022-12-01_11h30.23.647,vts_reward_expectancy_bt,2022.2.4,MacIntel,59.99880002,Chrome,1440,900,,,,,10,917,,,,,,,,,,,,,,,,,S,181,hexagon,1,0,,,,,,,,,,,,,,,,repeat,number,numRpt,k,Lo,,,,,,0.5299,1,,,,,,,,low,29,0,29,0,1,,,,,,,,,
294910,2022-12-01_11h30.23.647,vts_reward_expectancy_bt,2022.2.4,MacIntel,59.99880002,Chrome,1440,900,,,,,0,917,,,,,,,,,,,,,,,,,U,174,star,0,0,,,,,,,,,,,,,,,,repeat,number,NA,j,Lo,,,,,,0.4151,1,,,,,,,,low,30,0,30,0,1,,,,,,,,,
294910,2022-12-01_11h30.23.647,vts_reward_expectancy_bt,2022.2.4,MacIntel,59.99880002,Chrome,1440,900,,,,,1,918,,,,,,,,,,,,,,,,,F,160,triangle,1,1,,,,,,,,,,,,,,,,repeat,number,numRpt,k,Hi,,,,,,0.3849,1,,,,,,,,low,31,0,31,0,1,,,,,,,,,
294910,2022-12-01_11h30.23.647,vts_reward_expectancy_bt,2022.2.4,MacIntel,59.99880002,Chrome,1440,900,,,,,10,928,,,,,,,,,,,,,,,,,B,174,triangle,1,0,,,,,,,,,,,,,,,,switch,letter,lettSwt,d,Hi,,,,,,0.5469,2,,,,,,space,16.9192,low,0,0,0,0,1,,,,,,,,,
294910,2022-12-01_11h30.23.647,vts_reward_expectancy_bt,2022.2.4,MacIntel,59.99880002,Chrome,1440,900,,,,,1,929,,,,,,,,,,,,,,,,,D,125,hexagon,1,0,,,,,,,,,,,,,,,,repeat,letter,lettRpt,d,Lo,,,,,,0.5,2,,,,,,,,low,1,0,1,0,1,,,,,,,,,
294910,2022-12-01_11h30.23.647,vts_reward_expectancy_bt,2022.2.4,MacIntel,59.99880002,Chrome,1440,900,,,,,10,939,,,,,,,,,,,,,,,,,F,146,star,1,0,,,,,,,,,,,,,,,,repeat,letter,lettRpt,d,Lo,,,,,,0.5672,2,,,,,,,,low,2,0,2,0,1,,,,,,,,,
294910,2022-12-01_11h30.23.647,vts_reward_expectancy_bt,2022.2.4,MacIntel,59.99880002,Chrome,1440,900,,,,,1,940,,,,,,,,,,,,,,,,,H,181,circle,1,0,,,,,,,,,,,,,,,,repeat,letter,lettRpt,d,Hi,,,,,,0.6042,2,,,,,,,,low,3,0,3,0,1,,,,,,,,,
294910,2022-12-01_11h30.23.647,vts_reward_expectancy_bt,2022.2.4,MacIntel,59.99880002,Chrome,1440,900,,,,,1,941,,,,,,,,,,,,,,,,,W,160,triangle,1,0,,,,,,,,,,,,,,,,repeat,letter,lettRpt,f,Hi,,,,,,0.3685,2,,,,,,,,low,4,0,4,0,1,,,,,,,,,
294910,2022-12-01_11h30.23.647,vts_reward_expectancy_bt,2022.2.4,MacIntel,59.99880002,Chrome,1440,900,,,,,0,941,,,,,,,,,,,,,,,,,S,167,hexagon,0,0,,,,,,,,,,,,,,,,repeat,letter,NA,d,Hi,,,,,,0.3983,2,,,,,,,,low,5,0,5,0,1,,,,,,,,,
294910,2022-12-01_11h30.23.647,vts_reward_expectancy_bt,2022.2.4,MacIntel,59.99880002,Chrome,1440,900,,,,,1,942,,,,,,,,,,,,,,,,,U,132,star,1,1,,,,,,,,,,,,,,,,repeat,letter,lettRpt,f,Lo,,,,,,0.5308,2,,,,,,,,low,6,0,6,0,1,,,,,,,,,
294910,2022-12-01_11h30.23.647,vts_reward_expectancy_bt,2022.2.4,MacIntel,59.99880002,Chrome,1440,900,,,,,1,943,,,,,,,,,,,,,,,,,Y,139,circle,1,0,,,,,,,,,,,,,,,,repeat,letter,lettRpt,f,Hi,,,,,,0.5157,2,,,,,,,,low,7,0,7,0,1,,,,,,,,,
294910,2022-12-01_11h30.23.647,vts_reward_expectancy_bt,2022.2.4,MacIntel,59.99880002,Chrome,1440,900,,,,,10,953,,,,,,,,,,,,,,,,,B,174,star,1,0,,,,,,,,,,,,,,,,repeat,letter,lettRpt,d,Lo,,,,,,0.4963,2,,,,,,,,low,8,0,8,0,1,,,,,,,,,
294910,2022-12-01_11h30.23.647,vts_reward_expectancy_bt,2022.2.4,MacIntel,59.99880002,Chrome,1440,900,,,,,10,963,,,,,,,,,,,,,,,,,D,125,circle,1,0,,,,,,,,,,,,,,,,repeat,letter,lettRpt,d,Hi,,,,,,0.417,2,,,,,,,,low,9,0,9,0,1,,,,,,,,,
294910,2022-12-01_11h30.23.647,vts_reward_expectancy_bt,2022.2.4,MacIntel,59.99880002,Chrome,1440,900,,,,,10,973,,,,,,,,,,,,,,,,,F,146,hexagon,1,0,,,,,,,,,,,,,,,,repeat,letter,lettRpt,d,Lo,,,,,,0.638,2,,,,,,,,low,10,0,10,0,1,,,,,,,,,
294910,2022-12-01_11h30.23.647,vts_reward_expectancy_bt,2022.2.4,MacIntel,59.99880002,Chrome,1440,900,,,,,10,983,,,,,,,,,,,,,,,,,H,181,triangle,1,0,,,,,,,,,,,,,,,,repeat,letter,lettRpt,d,Hi,,,,,,0.6317,2,,,,,,,,low,11,0,11,0,1,,,,,,,,,
294910,2022-12-01_11h30.23.647,vts_reward_expectancy_bt,2022.2.4,MacIntel,59.99880002,Chrome,1440,900,,,,,1,984,,,,,,,,,,,,,,,,,W,160,circle,1,0,,,,,,,,,,,,,,,,repeat,letter,lettRpt,f,Hi,,,,,,0.6477,2,,,,,,,,low,12,0,12,0,1,,,,,,,,,
294910,2022-12-01_11h30.23.647,vts_reward_expectancy_bt,2022.2.4,MacIntel,59.99880002,Chrome,1440,900,,,,,10,994,,,,,,,,,,,,,,,,,S,167,triangle,1,0,,,,,,,,,,,,,,,,repeat,letter,lettRpt,f,Hi,,,,,,0.6017,2,,,,,,,,low,13,0,13,0,1,,,,,,,,,
294910,2022-12-01_11h30.23.647,vts_reward_expectancy_bt,2022.2.4,MacIntel,59.99880002,Chrome,1440,900,,,,,1,995,,,,,,,,,,,,,,,,,U,132,hexagon,1,0,,,,,,,,,,,,,,,,repeat,letter,lettRpt,f,Lo,,,,,,0.5809,2,,,,,,,,low,14,0,14,0,1,,,,,,,,,
294910,2022-12-01_11h30.23.647,vts_reward_expectancy_bt,2022.2.4,MacIntel,59.99880002,Chrome,1440,900,,,,,1,996,,,,,,,,,,,,,,,,,Y,139,star,1,0,,,,,,,,,,,,,,,,repeat,letter,lettRpt,f,Lo,,,,,,0.5306,2,,,,,,,,low,15,0,15,0,1,,,,,,,,,
294910,2022-12-01_11h30.23.647,vts_reward_expectancy_bt,2022.2.4,MacIntel,59.99880002,Chrome,1440,900,,,,,10,1006,,,,,,,,,,,,,,,,,D,174,circle,1,0,,,,,,,,,,,,,,,,repeat,letter,lettRpt,d,Hi,,,,,,0.3689,2,,,,,,,,low,16,0,16,0,1,,,,,,,,,
294910,2022-12-01_11h30.23.647,vts_reward_expectancy_bt,2022.2.4,MacIntel,59.99880002,Chrome,1440,900,,,,,10,1016,,,,,,,,,,,,,,,,,B,146,hexagon,1,0,,,,,,,,,,,,,,,,repeat,letter,lettRpt,d,Lo,,,,,,0.5146,2,,,,,,,,low,17,0,17,0,1,,,,,,,,,
294910,2022-12-01_11h30.23.647,vts_reward_expectancy_bt,2022.2.4,MacIntel,59.99880002,Chrome,1440,900,,,,,1,1017,,,,,,,,,,,,,,,,,Y,181,star,1,0,,,,,,,,,,,,,,,,repeat,letter,lettRpt,f,Lo,,,,,,0.38,2,,,,,,,,low,18,0,18,0,1,,,,,,,,,
294910,2022-12-01_11h30.23.647,vts_reward_expectancy_bt,2022.2.4,MacIntel,59.99880002,Chrome,1440,900,,,,,10,1027,,,,,,,,,,,,,,,,,W,125,triangle,1,0,,,,,,,,,,,,,,,,repeat,letter,lettRpt,f,Hi,,,,,,0.515,2,,,,,,,,low,19,0,19,0,1,,,,,,,,,
294910,2022-12-01_11h30.23.647,vts_reward_expectancy_bt,2022.2.4,MacIntel,59.99880002,Chrome,1440,900,,,,,0,1027,,,,,,,,,,,,,,,,,H,139,star,0,0,,,,,,,,,,,,,,,,repeat,letter,NA,f,Hi,,,,,,0.448,2,,,,,,,,low,20,0,20,0,1,,,,,,,,,
294910,2022-12-01_11h30.23.647,vts_reward_expectancy_bt,2022.2.4,MacIntel,59.99880002,Chrome,1440,900,,,,,1,1028,,,,,,,,,,,,,,,,,F,160,hexagon,1,1,,,,,,,,,,,,,,,,repeat,letter,lettRpt,d,Lo,,,,,,0.415,2,,,,,,,,low,21,0,21,0,1,,,,,,,,,
294910,2022-12-01_11h30.23.647,vts_reward_expectancy_bt,2022.2.4,MacIntel,59.99880002,Chrome,1440,900,,,,,10,1038,,,,,,,,,,,,,,,,,U,167,circle,1,0,,,,,,,,,,,,,,,,repeat,letter,lettRpt,f,Hi,,,,,,0.5299,2,,,,,,,,low,22,0,22,0,1,,,,,,,,,
294910,2022-12-01_11h30.23.647,vts_reward_expectancy_bt,2022.2.4,MacIntel,59.99880002,Chrome,1440,900,,,,,1,1039,,,,,,,,,,,,,,,,,S,132,triangle,1,0,,,,,,,,,,,,,,,,repeat,letter,lettRpt,f,Hi,,,,,,0.6473,2,,,,,,,,low,23,0,23,0,1,,,,,,,,,
294910,2022-12-01_11h30.23.647,vts_reward_expectancy_bt,2022.2.4,MacIntel,59.99880002,Chrome,1440,900,,,,,10,1049,,,,,,,,,,,,,,,,,Y,132,circle,1,0,,,,,,,,,,,,,,,,repeat,letter,lettRpt,f,Hi,,,,,,0.59,2,,,,,,,,low,24,0,24,0,1,,,,,,,,,
294910,2022-12-01_11h30.23.647,vts_reward_expectancy_bt,2022.2.4,MacIntel,59.99880002,Chrome,1440,900,,,,,1,1050,,,,,,,,,,,,,,,,,U,139,triangle,1,0,,,,,,,,,,,,,,,,repeat,letter,lettRpt,f,Hi,,,,,,0.5473,2,,,,,,,,low,25,0,25,0,1,,,,,,,,,
294910,2022-12-01_11h30.23.647,vts_reward_expectancy_bt,2022.2.4,MacIntel,59.99880002,Chrome,1440,900,,,,,1,1051,,,,,,,,,,,,,,,,,F,146,hexagon,1,0,,,,,,,,,,,,,,,,repeat,letter,lettRpt,d,Lo,,,,,,0.5494,2,,,,,,,,low,26,0,26,0,1,,,,,,,,,
294910,2022-12-01_11h30.23.647,vts_reward_expectancy_bt,2022.2.4,MacIntel,59.99880002,Chrome,1440,900,,,,,0,1051,,,,,,,,,,,,,,,,,B,181,star,0,0,,,,,,,,,,,,,,,,repeat,letter,NA,f,Lo,,,,,,0.531,2,,,,,,,,low,27,0,27,0,1,,,,,,,,,
294910,2022-12-01_11h30.23.647,vts_reward_expectancy_bt,2022.2.4,MacIntel,59.99880002,Chrome,1440,900,,,,,10,1061,,,,,,,,,,,,,,,,,H,167,triangle,1,1,,,,,,,,,,,,,,,,repeat,letter,lettRpt,d,Hi,,,,,,0.581,2,,,,,,,,low,28,0,28,0,1,,,,,,,,,
294910,2022-12-01_11h30.23.647,vts_reward_expectancy_bt,2022.2.4,MacIntel,59.99880002,Chrome,1440,900,,,,,1,1062,,,,,,,,,,,,,,,,,W,125,circle,1,0,,,,,,,,,,,,,,,,repeat,letter,lettRpt,f,Hi,,,,,,0.7009,2,,,,,,,,low,29,0,29,0,1,,,,,,,,,
294910,2022-12-01_11h30.23.647,vts_reward_expectancy_bt,2022.2.4,MacIntel,59.99880002,Chrome,1440,900,,,,,1,1063,,,,,,,,,,,,,,,,,S,160,star,1,0,,,,,,,,,,,,,,,,repeat,letter,lettRpt,f,Lo,,,,,,0.6322,2,,,,,,,,low,30,0,30,0,1,,,,,,,,,
294910,2022-12-01_11h30.23.647,vts_reward_expectancy_bt,2022.2.4,MacIntel,59.99880002,Chrome,1440,900,,,,,1,1064,,,,,,,,,,,,,,,,,D,174,hexagon,1,0,,,,,,,,,,,,,,,,repeat,letter,lettRpt,d,Lo,,,,,,0.6485,2,,,,,,,,low,31,0,31,0,1,,,,,,,,,
294910,2022-12-01_11h30.23.647,vts_reward_expectancy_bt,2022.2.4,MacIntel,59.99880002,Chrome,1440,900,,,,,0,1064,,,,,,,,,,,,,,,,,H,181,circle,1,0,,,,,,,,,,,,,,,,repeat,letter,lettRpt,d,Hi,,,,,,0.7305,3,,,,,,space,0.4751,low,0,0,0,0,1,,,,,,,,,
294910,2022-12-01_11h30.23.647,vts_reward_expectancy_bt,2022.2.4,MacIntel,59.99880002,Chrome,1440,900,,,,,10,1074,,,,,,,,,,,,,,,,,D,132,star,1,0,,,,,,,,,,,,,,,,repeat,letter,lettRpt,d,Lo,,,,,,0.3973,3,,,,,,,,low,1,0,1,0,1,,,,,,,,,
294910,2022-12-01_11h30.23.647,vts_reward_expectancy_bt,2022.2.4,MacIntel,59.99880002,Chrome,1440,900,,,,,0,1074,,,,,,,,,,,,,,,,,S,160,triangle,1,0,,,,,,,,,,,,,,,,repeat,letter,lettRpt,f,Hi,,,,,,0.813,3,,,,,,,,low,2,0,2,0,1,,,,,,,,,
294910,2022-12-01_11h30.23.647,vts_reward_expectancy_bt,2022.2.4,MacIntel,59.99880002,Chrome,1440,900,,,,,1,1075,,,,,,,,,,,,,,,,,B,125,hexagon,1,0,,,,,,,,,,,,,,,,repeat,letter,lettRpt,d,Lo,,,,,,0.5479,3,,,,,,,,low,3,0,3,0,1,,,,,,,,,
294910,2022-12-01_11h30.23.647,vts_reward_expectancy_bt,2022.2.4,MacIntel,59.99880002,Chrome,1440,900,,,,,1,1076,,,,,,,,,,,,,,,,,U,174,circle,1,0,,,,,,,,,,,,,,,,repeat,letter,lettRpt,f,Hi,,,,,,0.4645,3,,,,,,,,low,4,0,4,0,1,,,,,,,,,
294910,2022-12-01_11h30.23.647,vts_reward_expectancy_bt,2022.2.4,MacIntel,59.99880002,Chrome,1440,900,,,,,10,1086,,,,,,,,,,,,,,,,,F,146,star,1,0,,,,,,,,,,,,,,,,repeat,letter,lettRpt,d,Lo,,,,,,0.5147,3,,,,,,,,low,5,0,5,0,1,,,,,,,,,
294910,2022-12-01_11h30.23.647,vts_reward_expectancy_bt,2022.2.4,MacIntel,59.99880002,Chrome,1440,900,,,,,1,1087,,,,,,,,,,,,,,,,,W,167,triangle,1,0,,,,,,,,,,,,,,,,repeat,letter,lettRpt,f,Hi,,,,,,0.405,3,,,,,,,,low,6,0,6,0,1,,,,,,,,,
294910,2022-12-01_11h30.23.647,vts_reward_expectancy_bt,2022.2.4,MacIntel,59.99880002,Chrome,1440,900,,,,,1,1088,,,,,,,,,,,,,,,,,Y,139,hexagon,1,0,,,,,,,,,,,,,,,,repeat,letter,lettRpt,f,Lo,,,,,,0.5793,3,,,,,,,,low,7,0,7,0,1,,,,,,,,,
294910,2022-12-01_11h30.23.647,vts_reward_expectancy_bt,2022.2.4,MacIntel,59.99880002,Chrome,1440,900,,,,,0,1088,,,,,,,,,,,,,,,,,H,181,triangle,1,0,,,,,,,,,,,,,,,,repeat,letter,lettRpt,d,Hi,,,,,,0.5646,3,,,,,,,,low,8,0,8,0,1,,,,,,,,,
294910,2022-12-01_11h30.23.647,vts_reward_expectancy_bt,2022.2.4,MacIntel,59.99880002,Chrome,1440,900,,,,,0,1088,,,,,,,,,,,,,,,,,D,132,circle,1,0,,,,,,,,,,,,,,,,repeat,letter,lettRpt,d,Hi,,,,,,0.651,3,,,,,,,,low,9,0,9,0,1,,,,,,,,,
294910,2022-12-01_11h30.23.647,vts_reward_expectancy_bt,2022.2.4,MacIntel,59.99880002,Chrome,1440,900,,,,,10,1098,,,,,,,,,,,,,,,,,S,160,star,1,0,,,,,,,,,,,,,,,,repeat,letter,lettRpt,f,Lo,,,,,,0.4642,3,,,,,,,,low,10,0,10,0,1,,,,,,,,,
294910,2022-12-01_11h30.23.647,vts_reward_expectancy_bt,2022.2.4,MacIntel,59.99880002,Chrome,1440,900,,,,,10,1108,,,,,,,,,,,,,,,,,B,125,hexagon,1,0,,,,,,,,,,,,,,,,repeat,letter,lettRpt,d,Lo,,,,,,0.37,3,,,,,,,,low,11,0,11,0,1,,,,,,,,,
294910,2022-12-01_11h30.23.647,vts_reward_expectancy_bt,2022.2.4,MacIntel,59.99880002,Chrome,1440,900,,,,,10,1118,,,,,,,,,,,,,,,,,U,174,triangle,1,0,,,,,,,,,,,,,,,,repeat,letter,lettRpt,f,Hi,,,,,,0.4023,3,,,,,,,,low,12,0,12,0,1,,,,,,,,,
294910,2022-12-01_11h30.23.647,vts_reward_expectancy_bt,2022.2.4,MacIntel,59.99880002,Chrome,1440,900,,,,,0,1118,,,,,,,,,,,,,,,,,F,146,circle,0,0,,,,,,,,,,,,,,,,repeat,letter,NA,f,Hi,,,,,,0.414,3,,,,,,,,low,13,0,13,0,1,,,,,,,,,
294910,2022-12-01_11h30.23.647,vts_reward_expectancy_bt,2022.2.4,MacIntel,59.99880002,Chrome,1440,900,,,,,10,1128,,,,,,,,,,,,,,,,,W,167,star,1,1,,,,,,,,,,,,,,,,repeat,letter,lettRpt,f,Lo,,,,,,0.3822,3,,,,,,,,low,14,0,14,0,1,,,,,,,,,
294910,2022-12-01_11h30.23.647,vts_reward_expectancy_bt,2022.2.4,MacIntel,59.99880002,Chrome,1440,900,,,,,1,1129,,,,,,,,,,,,,,,,,Y,139,hexagon,1,0,,,,,,,,,,,,,,,,repeat,letter,lettRpt,f,Lo,,,,,,0.5982,3,,,,,,,,low,15,0,15,0,1,,,,,,,,,
294910,2022-12-01_11h30.23.647,vts_reward_expectancy_bt,2022.2.4,MacIntel,59.99880002,Chrome,1440,900,,,,,0,1129,,,,,,,,,,,,,,,,,Y,132,star,0,0,,,,,,,,,,,,,,,,repeat,letter,NA,d,Lo,,,,,,0.3544,3,,,,,,,,low,16,0,16,0,1,,,,,,,,,
294910,2022-12-01_11h30.23.647,vts_reward_expectancy_bt,2022.2.4,MacIntel,59.99880002,Chrome,1440,900,,,,,0,1129,,,,,,,,,,,,,,,,,S,167,triangle,0,1,,,,,,,,,,,,,,,,repeat,letter,NA,d,Lo,,,,,,0.4305,3,,,,,,,,low,17,0,17,0,1,,,,,,,,,
294910,2022-12-01_11h30.23.647,vts_reward_expectancy_bt,2022.2.4,MacIntel,59.99880002,Chrome,1440,900,,,,,10,1139,,,,,,,,,,,,,,,,,B,146,hexagon,1,1,,,,,,,,,,,,,,,,repeat,letter,lettRpt,d,Lo,,,,,,0.5814,3,,,,,,,,low,18,0,18,0,1,,,,,,,,,
294910,2022-12-01_11h30.23.647,vts_reward_expectancy_bt,2022.2.4,MacIntel,59.99880002,Chrome,1440,900,,,,,0,1139,,,,,,,,,,,,,,,,,F,181,circle,1,0,,,,,,,,,,,,,,,,repeat,letter,lettRpt,d,Hi,,,,,,0.7403,3,,,,,,,,low,19,0,19,0,1,,,,,,,,,
294910,2022-12-01_11h30.23.647,vts_reward_expectancy_bt,2022.2.4,MacIntel,59.99880002,Chrome,1440,900,,,,,0,1139,,,,,,,,,,,,,,,,,W,174,triangle,1,0,,,,,,,,,,,,,,,,repeat,letter,lettRpt,f,Hi,,,,,,0.6352,3,,,,,,,,low,20,0,20,0,1,,,,,,,,,
294910,2022-12-01_11h30.23.647,vts_reward_expectancy_bt,2022.2.4,MacIntel,59.99880002,Chrome,1440,900,,,,,0,1139,,,,,,,,,,,,,,,,,H,125,hexagon,0,0,,,,,,,,,,,,,,,,repeat,letter,NA,f,Hi,,,,,,0.3491,3,,,,,,,,low,21,0,21,0,1,,,,,,,,,
294910,2022-12-01_11h30.23.647,vts_reward_expectancy_bt,2022.2.4,MacIntel,59.99880002,Chrome,1440,900,,,,,1,1140,,,,,,,,,,,,,,,,,D,139,star,1,1,,,,,,,,,,,,,,,,repeat,letter,lettRpt,d,Lo,,,,,,0.4476,3,,,,,,,,low,22,0,22,0,1,,,,,,,,,
294910,2022-12-01_11h30.23.647,vts_reward_expectancy_bt,2022.2.4,MacIntel,59.99880002,Chrome,1440,900,,,,,1,1141,,,,,,,,,,,,,,,,,U,160,circle,1,0,,,,,,,,,,,,,,,,repeat,letter,lettRpt,f,Hi,,,,,,0.4644,3,,,,,,,,low,23,0,23,0,1,,,,,,,,,
294910,2022-12-01_11h30.23.647,vts_reward_expectancy_bt,2022.2.4,MacIntel,59.99880002,Chrome,1440,900,,,,,10,1151,,,,,,,,,,,,,,,,,Y,181,circle,1,0,,,,,,,,,,,,,,,,repeat,letter,lettRpt,f,Hi,,,,,,0.4811,3,,,,,,,,low,24,0,24,0,1,,,,,,,,,
294910,2022-12-01_11h30.23.647,vts_reward_expectancy_bt,2022.2.4,MacIntel,59.99880002,Chrome,1440,900,,,,,1,1152,,,,,,,,,,,,,,,,,D,125,star,1,0,,,,,,,,,,,,,,,,repeat,letter,lettRpt,d,Lo,,,,,,0.4802,3,,,,,,,,low,25,0,25,0,1,,,,,,,,,
294910,2022-12-01_11h30.23.647,vts_reward_expectancy_bt,2022.2.4,MacIntel,59.99880002,Chrome,1440,900,,,,,10,1162,,,,,,,,,,,,,,,,,U,139,hexagon,1,0,,,,,,,,,,,,,,,,repeat,letter,lettRpt,f,Lo,,,,,,0.3365,3,,,,,,,,low,26,0,26,0,1,,,,,,,,,
294910,2022-12-01_11h30.23.647,vts_reward_expectancy_bt,2022.2.4,MacIntel,59.99880002,Chrome,1440,900,,,,,0,1162,,,,,,,,,,,,,,,,,H,174,triangle,1,0,,,,,,,,,,,,,,,,repeat,letter,lettRpt,d,Hi,,,,,,0.8644,3,,,,,,,,low,27,0,27,0,1,,,,,,,,,
294910,2022-12-01_11h30.23.647,vts_reward_expectancy_bt,2022.2.4,MacIntel,59.99880002,Chrome,1440,900,,,,,0,1162,,,,,,,,,,,,,,,,,S,146,circle,1,0,,,,,,,,,,,,,,,,repeat,letter,lettRpt,f,Hi,,,,,,0.8298,3,,,,,,,,low,28,0,28,0,1,,,,,,,,,
294910,2022-12-01_11h30.23.647,vts_reward_expectancy_bt,2022.2.4,MacIntel,59.99880002,Chrome,1440,900,,,,,0,1162,,,,,,,,,,,,,,,,,F,160,star,0,0,,,,,,,,,,,,,,,,repeat,letter,NA,f,Hi,,,,,,0.364,3,,,,,,,,low,29,0,29,0,1,,,,,,,,,
294910,2022-12-01_11h30.23.647,vts_reward_expectancy_bt,2022.2.4,MacIntel,59.99880002,Chrome,1440,900,,,,,10,1172,,,,,,,,,,,,,,,,,B,132,hexagon,1,1,,,,,,,,,,,,,,,,repeat,letter,lettRpt,d,Lo,,,,,,0.4872,3,,,,,,,,low,30,0,30,0,1,,,,,,,,,
294910,2022-12-01_11h30.23.647,vts_reward_expectancy_bt,2022.2.4,MacIntel,59.99880002,Chrome,1440,900,,,,,10,1182,,,,,,,,,,,,,,,,,W,167,triangle,1,0,,,,,,,,,,,,,,,,repeat,letter,lettRpt,f,Hi,,,,,,0.4802,3,,,,,,,,low,31,0,31,0,1,,,,,,,,,
294910,2022-12-01_11h30.23.647,vts_reward_expectancy_bt,2022.2.4,MacIntel,59.99880002,Chrome,1440,900,,,,,0,1182,,,,,,,,,,,,,,,,,U,167,triangle,0,0,,,,,,,,,,,,,,,,repeat,letter,NA,d,Hi,,,,,,0.3659,4,,,,,,space,0.1604,low,0,0,0,0,1,,,,,,,,,
294910,2022-12-01_11h30.23.647,vts_reward_expectancy_bt,2022.2.4,MacIntel,59.99880002,Chrome,1440,900,,,,,1,1183,,,,,,,,,,,,,,,,,B,146,star,1,1,,,,,,,,,,,,,,,,repeat,letter,lettRpt,d,Lo,,,,,,0.347,4,,,,,,,,low,1,0,1,0,1,,,,,,,,,
294910,2022-12-01_11h30.23.647,vts_reward_expectancy_bt,2022.2.4,MacIntel,59.99880002,Chrome,1440,900,,,,,0,1183,,,,,,,,,,,,,,,,,H,181,circle,0,0,,,,,,,,,,,,,,,,repeat,letter,NA,f,Lo,,,,,,0.4216,4,,,,,,,,low,2,0,2,0,1,,,,,,,,,
294910,2022-12-01_11h30.23.647,vts_reward_expectancy_bt,2022.2.4,MacIntel,59.99880002,Chrome,1440,900,,,,,10,1193,,,,,,,,,,,,,,,,,D,160,hexagon,1,1,,,,,,,,,,,,,,,,repeat,letter,lettRpt,d,Lo,,,,,,0.6375,4,,,,,,,,low,3,0,3,0,1,,,,,,,,,
294910,2022-12-01_11h30.23.647,vts_reward_expectancy_bt,2022.2.4,MacIntel,59.99880002,Chrome,1440,900,,,,,1,1194,,,,,,,,,,,,,,,,,Y,125,triangle,1,0,,,,,,,,,,,,,,,,repeat,letter,lettRpt,f,Hi,,,,,,0.3483,4,,,,,,,,low,4,0,4,0,1,,,,,,,,,
294910,2022-12-01_11h30.23.647,vts_reward_expectancy_bt,2022.2.4,MacIntel,59.99880002,Chrome,1440,900,,,,,1,1195,,,,,,,,,,,,,,,,,S,132,star,1,0,,,,,,,,,,,,,,,,repeat,letter,lettRpt,f,Lo,,,,,,0.5698,4,,,,,,,,low,5,0,5,0,1,,,,,,,,,
294910,2022-12-01_11h30.23.647,vts_reward_expectancy_bt,2022.2.4,MacIntel,59.99880002,Chrome,1440,900,,,,,0,1195,,,,,,,,,,,,,,,,,F,139,circle,1,0,,,,,,,,,,,,,,,,repeat,letter,lettRpt,d,Hi,,,,,,0.6819,4,,,,,,,,low,6,0,6,0,1,,,,,,,,,
294910,2022-12-01_11h30.23.647,vts_reward_expectancy_bt,2022.2.4,MacIntel,59.99880002,Chrome,1440,900,,,,,10,1205,,,,,,,,,,,,,,,,,W,174,hexagon,1,0,,,,,,,,,,,,,,,,repeat,letter,lettRpt,f,Lo,,,,,,0.4469,4,,,,,,,,low,7,0,7,0,1,,,,,,,,,
294910,2022-12-01_11h30.23.647,vts_reward_expectancy_bt,2022.2.4,MacIntel,59.99880002,Chrome,1440,900,,,,,0,1205,,,,,,,,,,,,,,,,,U,167,triangle,1,0,,,,,,,,,,,,,,,,repeat,letter,lettRpt,f,Hi,,,,,,0.5566,4,,,,,,,,low,8,0,8,0,1,,,,,,,,,
294910,2022-12-01_11h30.23.647,vts_reward_expectancy_bt,2022.2.4,MacIntel,59.99880002,Chrome,1440,900,,,,,10,1215,,,,,,,,,,,,,,,,,B,146,circle,1,0,,,,,,,,,,,,,,,,repeat,letter,lettRpt,d,Hi,,,,,,0.4497,4,,,,,,,,low,9,0,9,0,1,,,,,,,,,
294910,2022-12-01_11h30.23.647,vts_reward_expectancy_bt,2022.2.4,MacIntel,59.99880002,Chrome,1440,900,,,,,10,1225,,,,,,,,,,,,,,,,,H,181,hexagon,1,0,,,,,,,,,,,,,,,,repeat,letter,lettRpt,d,Lo,,,,,,0.4828,4,,,,,,,,low,10,0,10,0,1,,,,,,,,,
294910,2022-12-01_11h30.23.647,vts_reward_expectancy_bt,2022.2.4,MacIntel,59.99880002,Chrome,1440,900,,,,,0,1225,,,,,,,,,,,,,,,,,D,160,star,0,0,,,,,,,,,,,,,,,,repeat,letter,NA,f,Lo,,,,,,0.3977,4,,,,,,,,low,11,0,11,0,1,,,,,,,,,
294910,2022-12-01_11h30.23.647,vts_reward_expectancy_bt,2022.2.4,MacIntel,59.99880002,Chrome,1440,900,,,,,0,1225,,,,,,,,,,,,,,,,,Y,125,circle,1,1,,,,,,,,,,,,,,,,repeat,letter,lettRpt,f,Hi,,,,,,0.5042,4,,,,,,,,low,12,0,12,0,1,,,,,,,,,
294910,2022-12-01_11h30.23.647,vts_reward_expectancy_bt,2022.2.4,MacIntel,59.99880002,Chrome,1440,900,,,,,1,1226,,,,,,,,,,,,,,,,,S,132,hexagon,1,0,,,,,,,,,,,,,,,,repeat,letter,lettRpt,f,Lo,,,,,,0.6318,4,,,,,,,,low,13,0,13,0,1,,,,,,,,,
294910,2022-12-01_11h30.23.647,vts_reward_expectancy_bt,2022.2.4,MacIntel,59.99880002,Chrome,1440,900,,,,,1,1227,,,,,,,,,,,,,,,,,F,139,star,1,0,,,,,,,,,,,,,,,,repeat,letter,lettRpt,d,Lo,,,,,,0.2642,4,,,,,,,,low,14,0,14,0,1,,,,,,,,,
294910,2022-12-01_11h30.23.647,vts_reward_expectancy_bt,2022.2.4,MacIntel,59.99880002,Chrome,1440,900,,,,,0,1227,,,,,,,,,,,,,,,,,W,174,triangle,0,0,,,,,,,,,,,,,,,,repeat,letter,NA,d,Lo,,,,,,0.2868,4,,,,,,,,low,15,0,15,0,1,,,,,,,,,
294910,2022-12-01_11h30.23.647,vts_reward_expectancy_bt,2022.2.4,MacIntel,59.99880002,Chrome,1440,900,,,,,1,1228,,,,,,,,,,,,,,,,,F,174,star,1,1,,,,,,,,,,,,,,,,repeat,letter,lettRpt,d,Lo,,,,,,0.4671,4,,,,,,,,low,16,0,16,0,1,,,,,,,,,
294910,2022-12-01_11h30.23.647,vts_reward_expectancy_bt,2022.2.4,MacIntel,59.99880002,Chrome,1440,900,,,,,1,1229,,,,,,,,,,,,,,,,,U,167,circle,1,0,,,,,,,,,,,,,,,,repeat,letter,lettRpt,f,Hi,,,,,,0.402,4,,,,,,,,low,17,0,17,0,1,,,,,,,,,
294910,2022-12-01_11h30.23.647,vts_reward_expectancy_bt,2022.2.4,MacIntel,59.99880002,Chrome,1440,900,,,,,10,1239,,,,,,,,,,,,,,,,,D,160,triangle,1,0,,,,,,,,,,,,,,,,repeat,letter,lettRpt,d,Hi,,,,,,0.3634,4,,,,,,,,low,18,0,18,0,1,,,,,,,,,
294910,2022-12-01_11h30.23.647,vts_reward_expectancy_bt,2022.2.4,MacIntel,59.99880002,Chrome,1440,900,,,,,10,1249,,,,,,,,,,,,,,,,,W,146,hexagon,1,0,,,,,,,,,,,,,,,,repeat,letter,lettRpt,f,Lo,,,,,,0.4312,4,,,,,,,,low,19,0,19,0,1,,,,,,,,,
294910,2022-12-01_11h30.23.647,vts_reward_expectancy_bt,2022.2.4,MacIntel,59.99880002,Chrome,1440,900,,,,,0,1249,,,,,,,,,,,,,,,,,B,181,triangle,1,0,,,,,,,,,,,,,,,,repeat,letter,lettRpt,d,Hi,,,,,,0.4814,4,,,,,,,,low,20,0,20,0,1,,,,,,,,,
294910,2022-12-01_11h30.23.647,vts_reward_expectancy_bt,2022.2.4,MacIntel,59.99880002,Chrome,1440,900,,,,,0,1249,,,,,,,,,,,,,,,,,S,125,hexagon,0,0,,,,,,,,,,,,,,,,repeat,letter,NA,d,Hi,,,,,,0.3787,4,,,,,,,,low,21,0,21,0,1,,,,,,,,,
294910,2022-12-01_11h30.23.647,vts_reward_expectancy_bt,2022.2.4,MacIntel,59.99880002,Chrome,1440,900,,,,,0,1249,,,,,,,,,,,,,,,,,Y,139,circle,1,1,,,,,,,,,,,,,,,,repeat,letter,lettRpt,f,Hi,,,,,,0.5183,4,,,,,,,,low,22,0,22,0,1,,,,,,,,,
294910,2022-12-01_11h30.23.647,vts_reward_expectancy_bt,2022.2.4,MacIntel,59.99880002,Chrome,1440,900,,,,,0,1249,,,,,,,,,,,,,,,,,H,132,star,0,0,,,,,,,,,,,,,,,,repeat,letter,NA,f,Hi,,,,,,0.4641,4,,,,,,,,low,23,0,23,0,1,,,,,,,,,
294910,2022-12-01_11h30.23.647,vts_reward_expectancy_bt,2022.2.4,MacIntel,59.99880002,Chrome,1440,900,,,,,0,1249,,,,,,,,,,,,,,,,,S,139,hexagon,0,1,,,,,,,,,,,,,,,,repeat,letter,NA,d,Hi,,,,,,0.384,4,,,,,,,,low,24,0,24,0,1,,,,,,,,,
294910,2022-12-01_11h30.23.647,vts_reward_expectancy_bt,2022.2.4,MacIntel,59.99880002,Chrome,1440,900,,,,,0,1249,,,,,,,,,,,,,,,,,D,174,circle,0,1,,,,,,,,,,,,,,,,repeat,letter,NA,f,Hi,,,,,,0.4314,4,,,,,,,,low,25,0,25,0,1,,,,,,,,,
294910,2022-12-01_11h30.23.647,vts_reward_expectancy_bt,2022.2.4,MacIntel,59.99880002,Chrome,1440,900,,,,,0,1249,,,,,,,,,,,,,,,,,B,160,triangle,0,1,,,,,,,,,,,,,,,,repeat,letter,NA,f,Hi,,,,,,0.2813,4,,,,,,,,low,26,0,26,0,1,,,,,,,,,
294910,2022-12-01_11h30.23.647,vts_reward_expectancy_bt,2022.2.4,MacIntel,59.99880002,Chrome,1440,900,,,,,0,1249,,,,,,,,,,,,,,,,,Y,167,star,0,1,,,,,,,,,,,,,,,,repeat,letter,NA,d,Hi,,,,,,0.4974,4,,,,,,,,low,27,0,27,0,1,,,,,,,,,
294910,2022-12-01_11h30.23.647,vts_reward_expectancy_bt,2022.2.4,MacIntel,59.99880002,Chrome,1440,900,,,,,1,1250,,,,,,,,,,,,,,,,,U,181,hexagon,1,1,,,,,,,,,,,,,,,,repeat,letter,lettRpt,f,Lo,,,,,,0.4142,4,,,,,,,,low,28,0,28,0,1,,,,,,,,,
294910,2022-12-01_11h30.23.647,vts_reward_expectancy_bt,2022.2.4,MacIntel,59.99880002,Chrome,1440,900,,,,,1,1251,,,,,,,,,,,,,,,,,W,125,star,1,0,,,,,,,,,,,,,,,,repeat,letter,lettRpt,f,Lo,,,,,,0.5473,4,,,,,,,,low,29,0,29,0,1,,,,,,,,,
294910,2022-12-01_11h30.23.647,vts_reward_expectancy_bt,2022.2.4,MacIntel,59.99880002,Chrome,1440,900,,,,,0,1251,,,,,,,,,,,,,,,,,H,132,triangle,1,0,,,,,,,,,,,,,,,,repeat,letter,lettRpt,d,Hi,,,,,,0.7146,4,,,,,,,,low,30,0,30,0,1,,,,,,,,,
294910,2022-12-01_11h30.23.647,vts_reward_expectancy_bt,2022.2.4,MacIntel,59.99880002,Chrome,1440,900,,,,,0,1251,,,,,,,,,,,,,,,,,F,146,circle,1,0,,,,,,,,,,,,,,,,repeat,letter,lettRpt,d,Hi,,,,,,0.4975,4,,,,,,,,low,31,0,31,0,1,,,,,,,,,
294910,2022-12-01_11h30.23.647,vts_reward_expectancy_bt,2022.2.4,MacIntel,59.99880002,Chrome,1440,900,,,,,0,1251,,,,,,,,,,,,,,,,,S,167,triangle,0,0,,,,,,,,,,,,,,,,repeat,letter,NA,d,Hi,,,,,,0.3984,5,,,,,,space,1.0023,low,0,0,0,0,1,,,,,,,,,
294910,2022-12-01_11h30.23.647,vts_reward_expectancy_bt,2022.2.4,MacIntel,59.99880002,Chrome,1440,900,,,,,1,1252,,,,,,,,,,,,,,,,,U,132,hexagon,1,1,,,,,,,,,,,,,,,,repeat,letter,lettRpt,f,Lo,,,,,,0.3895,5,,,,,,,,low,1,0,1,0,1,,,,,,,,,
294910,2022-12-01_11h30.23.647,vts_reward_expectancy_bt,2022.2.4,MacIntel,59.99880002,Chrome,1440,900,,,,,10,1262,,,,,,,,,,,,,,,,,D,181,star,1,0,,,,,,,,,,,,,,,,repeat,letter,lettRpt,d,Lo,,,,,,0.4633,5,,,,,,,,low,2,0,2,0,1,,,,,,,,,
294910,2022-12-01_11h30.23.647,vts_reward_expectancy_bt,2022.2.4,MacIntel,59.99880002,Chrome,1440,900,,,,,10,1272,,,,,,,,,,,,,,,,,W,139,circle,1,0,,,,,,,,,,,,,,,,repeat,letter,lettRpt,f,Hi,,,,,,0.2984,5,,,,,,,,low,3,0,3,0,1,,,,,,,,,
294910,2022-12-01_11h30.23.647,vts_reward_expectancy_bt,2022.2.4,MacIntel,59.99880002,Chrome,1440,900,,,,,0,1272,,,,,,,,,,,,,,,,,H,146,triangle,1,0,,,,,,,,,,,,,,,,repeat,letter,lettRpt,d,Hi,,,,,,0.6975,5,,,,,,,,low,4,0,4,0,1,,,,,,,,,
294910,2022-12-01_11h30.23.647,vts_reward_expectancy_bt,2022.2.4,MacIntel,59.99880002,Chrome,1440,900,,,,,10,1282,,,,,,,,,,,,,,,,,Y,125,hexagon,1,0,,,,,,,,,,,,,,,,repeat,letter,lettRpt,f,Lo,,,,,,0.4466,5,,,,,,,,low,5,0,5,0,1,,,,,,,,,
294910,2022-12-01_11h30.23.647,vts_reward_expectancy_bt,2022.2.4,MacIntel,59.99880002,Chrome,1440,900,,,,,10,1292,,,,,,,,,,,,,,,,,B,174,star,1,0,,,,,,,,,,,,,,,,repeat,letter,lettRpt,d,Lo,,,,,,0.4142,5,,,,,,,,low,6,0,6,0,1,,,,,,,,,
294910,2022-12-01_11h30.23.647,vts_reward_expectancy_bt,2022.2.4,MacIntel,59.99880002,Chrome,1440,900,,,,,0,1292,,,,,,,,,,,,,,,,,F,160,circle,0,0,,,,,,,,,,,,,,,,repeat,letter,NA,f,Lo,,,,,,0.3973,5,,,,,,,,low,7,0,7,0,1,,,,,,,,,
294910,2022-12-01_11h30.23.647,vts_reward_expectancy_bt,2022.2.4,MacIntel,59.99880002,Chrome,1440,900,,,,,1,1293,,,,,,,,,,,,,,,,,S,167,star,1,1,,,,,,,,,,,,,,,,repeat,letter,lettRpt,f,Lo,,,,,,0.315,5,,,,,,,,low,8,0,8,0,1,,,,,,,,,
294910,2022-12-01_11h30.23.647,vts_reward_expectancy_bt,2022.2.4,MacIntel,59.99880002,Chrome,1440,900,,,,,1,1294,,,,,,,,,,,,,,,,,U,132,hexagon,1,0,,,,,,,,,,,,,,,,repeat,letter,lettRpt,f,Lo,,,,,,0.5318,5,,,,,,,,low,9,0,9,0,1,,,,,,,,,
294910,2022-12-01_11h30.23.647,vts_reward_expectancy_bt,2022.2.4,MacIntel,59.99880002,Chrome,1440,900,,,,,10,1304,,,,,,,,,,,,,,,,,D,181,circle,1,0,,,,,,,,,,,,,,,,repeat,letter,lettRpt,d,Hi,,,,,,0.3974,5,,,,,,,,low,10,0,10,0,1,,,,,,,,,
294910,2022-12-01_11h30.23.647,vts_reward_expectancy_bt,2022.2.4,MacIntel,59.99880002,Chrome,1440,900,,,,,0,1304,,,,,,,,,,,,,,,,,W,139,triangle,1,0,,,,,,,,,,,,,,,,repeat,letter,lettRpt,f,Hi,,,,,,0.5049,5,,,,,,,,low,11,0,11,0,1,,,,,,,,,
294910,2022-12-01_11h30.23.647,vts_reward_expectancy_bt,2022.2.4,MacIntel,59.99880002,Chrome,1440,900,,,,,0,1304,,,,,,,,,,,,,,,,,H,146,hexagon,0,0,,,,,,,,,,,,,,,,repeat,letter,NA,f,Hi,,,,,,0.4297,5,,,,,,,,low,12,0,12,0,1,,,,,,,,,
294910,2022-12-01_11h30.23.647,vts_reward_expectancy_bt,2022.2.4,MacIntel,59.99880002,Chrome,1440,900,,,,,0,1304,,,,,,,,,,,,,,,,,Y,125,triangle,1,1,,,,,,,,,,,,,,,,repeat,letter,lettRpt,f,Hi,,,,,,0.5156,5,,,,,,,,low,13,0,13,0,1,,,,,,,,,
294910,2022-12-01_11h30.23.647,vts_reward_expectancy_bt,2022.2.4,MacIntel,59.99880002,Chrome,1440,900,,,,,0,1304,,,,,,,,,,,,,,,,,B,174,star,0,0,,,,,,,,,,,,,,,,repeat,letter,NA,f,Hi,,,,,,0.2516,5,,,,,,,,low,14,0,14,0,1,,,,,,,,,
294910,2022-12-01_11h30.23.647,vts_reward_expectancy_bt,2022.2.4,MacIntel,59.99880002,Chrome,1440,900,,,,,0,1304,,,,,,,,,,,,,,,,,F,160,circle,1,1,,,,,,,,,,,,,,,,repeat,letter,lettRpt,d,Hi,,,,,,0.4559,5,,,,,,,,low,15,0,15,0,1,,,,,,,,,
294910,2022-12-01_11h30.23.647,vts_reward_expectancy_bt,2022.2.4,MacIntel,59.99880002,Chrome,1440,900,,,,,10,1314,,,,,,,,,,,,,,,,,D,181,hexagon,1,0,,,,,,,,,,,,,,,,repeat,letter,lettRpt,d,Lo,,,,,,0.3636,5,,,,,,,,low,16,0,16,0,1,,,,,,,,,
294910,2022-12-01_11h30.23.647,vts_reward_expectancy_bt,2022.2.4,MacIntel,59.99880002,Chrome,1440,900,,,,,10,1324,,,,,,,,,,,,,,,,,W,139,star,1,0,,,,,,,,,,,,,,,,repeat,letter,lettRpt,f,Lo,,,,,,0.4988,5,,,,,,,,low,17,0,17,0,1,,,,,,,,,
294910,2022-12-01_11h30.23.647,vts_reward_expectancy_bt,2022.2.4,MacIntel,59.99880002,Chrome,1440,900,,,,,0,1324,,,,,,,,,,,,,,,,,U,132,circle,0,0,,,,,,,,,,,,,,,,repeat,letter,NA,d,Lo,,,,,,0.3473,5,,,,,,,,low,18,0,18,0,1,,,,,,,,,
294910,2022-12-01_11h30.23.647,vts_reward_expectancy_bt,2022.2.4,MacIntel,59.99880002,Chrome,1440,900,,,,,10,1334,,,,,,,,,,,,,,,,,F,167,triangle,1,1,,,,,,,,,,,,,,,,repeat,letter,lettRpt,d,Hi,,,,,,0.3641,5,,,,,,,,low,19,0,19,0,1,,,,,,,,,
294910,2022-12-01_11h30.23.647,vts_reward_expectancy_bt,2022.2.4,MacIntel,59.99880002,Chrome,1440,900,,,,,10,1344,,,,,,,,,,,,,,,,,S,146,star,1,0,,,,,,,,,,,,,,,,repeat,letter,lettRpt,f,Lo,,,,,,0.5142,5,,,,,,,,low,20,0,20,0,1,,,,,,,,,
294910,2022-12-01_11h30.23.647,vts_reward_expectancy_bt,2022.2.4,MacIntel,59.99880002,Chrome,1440,900,,,,,0,1344,,,,,,,,,,,,,,,,,B,174,triangle,0,0,,,,,,,,,,,,,,,,repeat,letter,NA,f,Lo,,,,,,0.3523,5,,,,,,,,low,21,0,21,0,1,,,,,,,,,
294910,2022-12-01_11h30.23.647,vts_reward_expectancy_bt,2022.2.4,MacIntel,59.99880002,Chrome,1440,900,,,,,1,1345,,,,,,,,,,,,,,,,,Y,125,hexagon,1,1,,,,,,,,,,,,,,,,repeat,letter,lettRpt,f,Lo,,,,,,0.4133,5,,,,,,,,low,22,0,22,0,1,,,,,,,,,
294910,2022-12-01_11h30.23.647,vts_reward_expectancy_bt,2022.2.4,MacIntel,59.99880002,Chrome,1440,900,,,,,0,1345,,,,,,,,,,,,,,,,,H,160,circle,0,0,,,,,,,,,,,,,,,,repeat,letter,NA,f,Lo,,,,,,0.3684,5,,,,,,,,low,23,0,23,0,1,,,,,,,,,
294910,2022-12-01_11h30.23.647,vts_reward_expectancy_bt,2022.2.4,MacIntel,59.99880002,Chrome,1440,900,,,,,0,1345,,,,,,,,,,,,,,,,,W,181,star,0,1,,,,,,,,,,,,,,,,repeat,letter,NA,d,Lo,,,,,,0.4311,5,,,,,,,,low,24,0,24,0,1,,,,,,,,,
294910,2022-12-01_11h30.23.647,vts_reward_expectancy_bt,2022.2.4,MacIntel,59.99880002,Chrome,1440,900,,,,,0,1345,,,,,,,,,,,,,,,,,Y,139,circle,0,1,,,,,,,,,,,,,,,,repeat,letter,NA,d,Lo,,,,,,0.3378,5,,,,,,,,low,25,0,25,0,1,,,,,,,,,
294910,2022-12-01_11h30.23.647,vts_reward_expectancy_bt,2022.2.4,MacIntel,59.99880002,Chrome,1440,900,,,,,10,1355,,,,,,,,,,,,,,,,,B,132,triangle,1,1,,,,,,,,,,,,,,,,repeat,letter,lettRpt,d,Hi,,,,,,0.3643,5,,,,,,,,low,26,0,26,0,1,,,,,,,,,
294910,2022-12-01_11h30.23.647,vts_reward_expectancy_bt,2022.2.4,MacIntel,59.99880002,Chrome,1440,900,,,,,10,1365,,,,,,,,,,,,,,,,,H,174,hexagon,1,0,,,,,,,,,,,,,,,,repeat,letter,lettRpt,d,Lo,,,,,,0.4986,5,,,,,,,,low,27,0,27,0,1,,,,,,,,,
294910,2022-12-01_11h30.23.647,vts_reward_expectancy_bt,2022.2.4,MacIntel,59.99880002,Chrome,1440,900,,,,,0,1365,,,,,,,,,,,,,,,,,U,160,circle,1,0,,,,,,,,,,,,,,,,repeat,letter,lettRpt,f,Hi,,,,,,0.5658,5,,,,,,,,low,28,0,28,0,1,,,,,,,,,
294910,2022-12-01_11h30.23.647,vts_reward_expectancy_bt,2022.2.4,MacIntel,59.99880002,Chrome,1440,900,,,,,10,1375,,,,,,,,,,,,,,,,,S,167,hexagon,1,0,,,,,,,,,,,,,,,,repeat,letter,lettRpt,f,Lo,,,,,,0.6161,5,,,,,,,,low,29,0,29,0,1,,,,,,,,,
294910,2022-12-01_11h30.23.647,vts_reward_expectancy_bt,2022.2.4,MacIntel,59.99880002,Chrome,1440,900,,,,,10,1385,,,,,,,,,,,,,,,,,D,146,star,1,0,,,,,,,,,,,,,,,,repeat,letter,lettRpt,d,Lo,,,,,,0.5479,5,,,,,,,,low,30,0,30,0,1,,,,,,,,,
294910,2022-12-01_11h30.23.647,vts_reward_expectancy_bt,2022.2.4,MacIntel,59.99880002,Chrome,1440,900,,,,,0,1385,,,,,,,,,,,,,,,,,F,125,triangle,0,0,,,,,,,,,,,,,,,,repeat,letter,NA,f,Lo,,,,,,0.2992,5,,,,,,,,low,31,0,31,0,1,,,,,,,,,
294910,2022-12-01_11h30.23.647,vts_reward_expectancy_bt,2022.2.4,MacIntel,59.99880002,Chrome,1440,900,,,,,0,1385,,,,,,,,,,,,,,,,,U,139,circle,0,1,,,,,,,,,,,,,,,,repeat,letter,NA,d,Lo,,,,,,0.4824,6,,,,,,space,1.7949,low,0,0,0,0,1,,,,,,,,,
294910,2022-12-01_11h30.23.647,vts_reward_expectancy_bt,2022.2.4,MacIntel,59.99880002,Chrome,1440,900,,,,,1,1386,,,,,,,,,,,,,,,,,Y,160,star,1,1,,,,,,,,,,,,,,,,repeat,letter,lettRpt,f,Lo,,,,,,0.4333,6,,,,,,,,low,1,0,1,0,1,,,,,,,,,
