participant,date,expName,psychopyVersion,OS,frameRate,browser,xResolution,yResolution,key_resp.keys,key_resp.rt,training_resp.keys,training_resp.rt,points_trial,points_cumul,trainBlock,training.thisRepN,training.thisTrialN,training.thisN,training.thisIndex,training.ran,LTriangleOpac,LCircleOpac,LHexagonOpac,LStarOpac,RTriangleOpac,RCircleOpac,RHexagonOpac,RStarOpac,LShape_ID,RShape_ID,curr_topStim,curr_bottStim,curr_shape,acc,E1,target_resp_prac1.keys,target_resp_prac1.rt,pracBlock,task1_prac_trials.thisRepN,task1_prac_trials.thisTrialN,task1_prac_trials.thisN,task1_prac_trials.thisIndex,task1_prac_trials.ran,target_resp_prac2.keys,target_resp_prac2.rt,task2_praac_trials.thisRepN,task2_praac_trials.thisTrialN,task2_praac_trials.thisN,task2_praac_trials.thisIndex,task2_praac_trials.ran,alt,task,condition,target_resp.keys,target_resp.rt,rewCond,vts_practice_trials.thisRepN,vts_practice_trials.thisTrialN,vts_practice_trials.thisN,vts_practice_trials.thisIndex,vts_practice_trials.ran,blockNum,trials_norew.thisRepN,trials_norew.thisTrialN,trials_norew.thisN,trials_norew.thisIndex,trials_norew.ran,key_resp_2.keys,key_resp_2.rt,rewExpectancy,trials_rew.thisRepN,trials_rew.thisTrialN,trials_rew.thisN,trials_rew.thisIndex,trials_rew.ran,Q1,Q2,Q2_text,Q3,Q4,Q5_text,Q5,xRes,yRes
294934,2022-11-22_24h31.26.439,vts_reward_expectancy_bt,2022.2.4,Win32,60.92731371,Chrome,1440,960,,,,,,,,,,,,,,,,,,,,,,,,,,,,,,,,,,,,,,,,,,,,,,,,,,,,,,,,,,,,,,,,,,,,,,,,,,,,
294934,2022-11-22_24h31.26.439,vts_reward_expectancy_bt,2022.2.4,Win32,60.92731371,Chrome,1440,960,space,22.5806,,,,,,,,,,,,,,,,,,,,,,,,,,,,,,,,,,,,,,,,,,,,,,,,,,,,,,,,,,,,,,,,,,,,,,,,,,
294934,2022-11-22_24h31.26.439,vts_reward_expectancy_bt,2022.2.4,Win32,60.92731371,Chrome,1440,960,,,,,,,,,,,,,,,,,,,,,,,,,,,,,,,,,,,,,,,,,,,,,,,,,,,,,,,,,,,,,,,,,,,,,,,,,,,,
294934,2022-11-22_24h31.26.439,vts_reward_expectancy_bt,2022.2.4,Win32,60.92731371,Chrome,1440,960,,,a,1.7645,1,1,0,0,0,0,9,1,0,0,0,1,1,0,0,0,star,triangle,,,,,,,,,,,,,,,,,,,,,,,,,,,,,,,,,,,,,,,,,,,,,,,,,,,,,,
294934,2022-11-22_24h31.26.439,vts_reward_expectancy_bt,2022.2.4,Win32,60.92731371,Chrome,1440,960,,,l,1.3843,1,2,0,0,1,1,4,1,0,1,0,0,0,0,1,0,circle,hexagon,,,,,,,,,,,,,,,,,,,,,,,,,,,,,,,,,,,,,,,,,,,,,,,,,,,,,,
294934,2022-11-22_24h31.26.439,vts_reward_expectancy_bt,2022.2.4,Win32,60.92731371,Chrome,1440,960,,,a,1.0469,10,12,0,0,2,2,11,1,0,0,0,1,0,0,1,0,star,hexagon,,,,,,,,,,,,,,,,,,,,,,,,,,,,,,,,,,,,,,,,,,,,,,,,,,,,,,
294934,2022-11-22_24h31.26.439,vts_reward_expectancy_bt,2022.2.4,Win32,60.92731371,Chrome,1440,960,,,a,1.3059,10,22,0,0,3,3,1,1,1,0,0,0,0,0,1,0,triangle,hexagon,,,,,,,,,,,,,,,,,,,,,,,,,,,,,,,,,,,,,,,,,,,,,,,,,,,,,,
294934,2022-11-22_24h31.26.439,vts_reward_expectancy_bt,2022.2.4,Win32,60.92731371,Chrome,1440,960,,,l,1.1489,10,32,0,0,4,4,3,1,0,1,0,0,1,0,0,0,circle,triangle,,,,,,,,,,,,,,,,,,,,,,,,,,,,,,,,,,,,,,,,,,,,,,,,,,,,,,
294934,2022-11-22_24h31.26.439,vts_reward_expectancy_bt,2022.2.4,Win32,60.92731371,Chrome,1440,960,,,a,1.6668,10,42,0,0,5,5,8,1,0,0,1,0,0,0,0,1,hexagon,star,,,,,,,,,,,,,,,,,,,,,,,,,,,,,,,,,,,,,,,,,,,,,,,,,,,,,,
294934,2022-11-22_24h31.26.439,vts_reward_expectancy_bt,2022.2.4,Win32,60.92731371,Chrome,1440,960,,,l,1.7556,10,52,0,0,6,6,2,1,1,0,0,0,0,0,0,1,triangle,star,,,,,,,,,,,,,,,,,,,,,,,,,,,,,,,,,,,,,,,,,,,,,,,,,,,,,,
294934,2022-11-22_24h31.26.439,vts_reward_expectancy_bt,2022.2.4,Win32,60.92731371,Chrome,1440,960,,,a,2.1181,10,62,0,0,7,7,0,1,1,0,0,0,0,1,0,0,triangle,circle,,,,,,,,,,,,,,,,,,,,,,,,,,,,,,,,,,,,,,,,,,,,,,,,,,,,,,
294934,2022-11-22_24h31.26.439,vts_reward_expectancy_bt,2022.2.4,Win32,60.92731371,Chrome,1440,960,,,l,1.4203,10,72,0,0,8,8,10,1,0,0,0,1,0,1,0,0,star ,circle,,,,,,,,,,,,,,,,,,,,,,,,,,,,,,,,,,,,,,,,,,,,,,,,,,,,,,
294934,2022-11-22_24h31.26.439,vts_reward_expectancy_bt,2022.2.4,Win32,60.92731371,Chrome,1440,960,,,l,1.7016,1,73,0,0,9,9,5,1,0,1,0,0,0,0,0,1,circle,star,,,,,,,,,,,,,,,,,,,,,,,,,,,,,,,,,,,,,,,,,,,,,,,,,,,,,,
294934,2022-11-22_24h31.26.439,vts_reward_expectancy_bt,2022.2.4,Win32,60.92731371,Chrome,1440,960,,,l,2.5224,1,74,0,0,10,10,6,1,0,0,1,0,1,0,0,0,hexagon,triangle,,,,,,,,,,,,,,,,,,,,,,,,,,,,,,,,,,,,,,,,,,,,,,,,,,,,,,
294934,2022-11-22_24h31.26.439,vts_reward_expectancy_bt,2022.2.4,Win32,60.92731371,Chrome,1440,960,,,a,1.1491,10,84,0,0,11,11,7,1,0,0,1,0,0,1,0,0,hexagon,circle,,,,,,,,,,,,,,,,,,,,,,,,,,,,,,,,,,,,,,,,,,,,,,,,,,,,,,
294934,2022-11-22_24h31.26.439,vts_reward_expectancy_bt,2022.2.4,Win32,60.92731371,Chrome,1440,960,,,a,1.4016,1,85,0,1,0,12,2,1,1,0,0,0,0,0,0,1,triangle,star,,,,,,,,,,,,,,,,,,,,,,,,,,,,,,,,,,,,,,,,,,,,,,,,,,,,,,
294934,2022-11-22_24h31.26.439,vts_reward_expectancy_bt,2022.2.4,Win32,60.92731371,Chrome,1440,960,,,a,1.2004,10,95,0,1,1,13,7,1,0,0,1,0,0,1,0,0,hexagon,circle,,,,,,,,,,,,,,,,,,,,,,,,,,,,,,,,,,,,,,,,,,,,,,,,,,,,,,
294934,2022-11-22_24h31.26.439,vts_reward_expectancy_bt,2022.2.4,Win32,60.92731371,Chrome,1440,960,,,a,0.734,10,105,0,1,2,14,0,1,1,0,0,0,0,1,0,0,triangle,circle,,,,,,,,,,,,,,,,,,,,,,,,,,,,,,,,,,,,,,,,,,,,,,,,,,,,,,
294934,2022-11-22_24h31.26.439,vts_reward_expectancy_bt,2022.2.4,Win32,60.92731371,Chrome,1440,960,,,l,1.0853,10,115,0,1,3,15,5,1,0,1,0,0,0,0,0,1,circle,star,,,,,,,,,,,,,,,,,,,,,,,,,,,,,,,,,,,,,,,,,,,,,,,,,,,,,,
294934,2022-11-22_24h31.26.439,vts_reward_expectancy_bt,2022.2.4,Win32,60.92731371,Chrome,1440,960,,,l,1.1366,10,125,0,1,4,16,3,1,0,1,0,0,1,0,0,0,circle,triangle,,,,,,,,,,,,,,,,,,,,,,,,,,,,,,,,,,,,,,,,,,,,,,,,,,,,,,
294934,2022-11-22_24h31.26.439,vts_reward_expectancy_bt,2022.2.4,Win32,60.92731371,Chrome,1440,960,,,l,2.449,10,135,0,1,5,17,8,1,0,0,1,0,0,0,0,1,hexagon,star,,,,,,,,,,,,,,,,,,,,,,,,,,,,,,,,,,,,,,,,,,,,,,,,,,,,,,
294934,2022-11-22_24h31.26.439,vts_reward_expectancy_bt,2022.2.4,Win32,60.92731371,Chrome,1440,960,,,l,1.1543,1,136,0,1,6,18,6,1,0,0,1,0,1,0,0,0,hexagon,triangle,,,,,,,,,,,,,,,,,,,,,,,,,,,,,,,,,,,,,,,,,,,,,,,,,,,,,,
294934,2022-11-22_24h31.26.439,vts_reward_expectancy_bt,2022.2.4,Win32,60.92731371,Chrome,1440,960,,,l,1.3016,1,137,0,1,7,19,1,1,1,0,0,0,0,0,1,0,triangle,hexagon,,,,,,,,,,,,,,,,,,,,,,,,,,,,,,,,,,,,,,,,,,,,,,,,,,,,,,
294934,2022-11-22_24h31.26.439,vts_reward_expectancy_bt,2022.2.4,Win32,60.92731371,Chrome,1440,960,,,a,0.9856,10,147,0,1,8,20,9,1,0,0,0,1,1,0,0,0,star,triangle,,,,,,,,,,,,,,,,,,,,,,,,,,,,,,,,,,,,,,,,,,,,,,,,,,,,,,
294934,2022-11-22_24h31.26.439,vts_reward_expectancy_bt,2022.2.4,Win32,60.92731371,Chrome,1440,960,,,a,0.9531,10,157,0,1,9,21,10,1,0,0,0,1,0,1,0,0,star ,circle,,,,,,,,,,,,,,,,,,,,,,,,,,,,,,,,,,,,,,,,,,,,,,,,,,,,,,
294934,2022-11-22_24h31.26.439,vts_reward_expectancy_bt,2022.2.4,Win32,60.92731371,Chrome,1440,960,,,l,1.1873,10,167,0,1,10,22,4,1,0,1,0,0,0,0,1,0,circle,hexagon,,,,,,,,,,,,,,,,,,,,,,,,,,,,,,,,,,,,,,,,,,,,,,,,,,,,,,
294934,2022-11-22_24h31.26.439,vts_reward_expectancy_bt,2022.2.4,Win32,60.92731371,Chrome,1440,960,,,a,1.0044,1,168,0,1,11,23,11,1,0,0,0,1,0,0,1,0,star,hexagon,,,,,,,,,,,,,,,,,,,,,,,,,,,,,,,,,,,,,,,,,,,,,,,,,,,,,,
294934,2022-11-22_24h31.26.439,vts_reward_expectancy_bt,2022.2.4,Win32,60.92731371,Chrome,1440,960,,,a,0.903,1,169,0,2,0,24,10,1,0,0,0,1,0,1,0,0,star ,circle,,,,,,,,,,,,,,,,,,,,,,,,,,,,,,,,,,,,,,,,,,,,,,,,,,,,,,
294934,2022-11-22_24h31.26.439,vts_reward_expectancy_bt,2022.2.4,Win32,60.92731371,Chrome,1440,960,,,l,1.1188,1,170,0,2,1,25,3,1,0,1,0,0,1,0,0,0,circle,triangle,,,,,,,,,,,,,,,,,,,,,,,,,,,,,,,,,,,,,,,,,,,,,,,,,,,,,,
294934,2022-11-22_24h31.26.439,vts_reward_expectancy_bt,2022.2.4,Win32,60.92731371,Chrome,1440,960,,,a,2.1719,1,171,0,2,2,26,1,1,1,0,0,0,0,0,1,0,triangle,hexagon,,,,,,,,,,,,,,,,,,,,,,,,,,,,,,,,,,,,,,,,,,,,,,,,,,,,,,
294934,2022-11-22_24h31.26.439,vts_reward_expectancy_bt,2022.2.4,Win32,60.92731371,Chrome,1440,960,,,a,1.4685,1,172,0,2,3,27,8,1,0,0,1,0,0,0,0,1,hexagon,star,,,,,,,,,,,,,,,,,,,,,,,,,,,,,,,,,,,,,,,,,,,,,,,,,,,,,,
294934,2022-11-22_24h31.26.439,vts_reward_expectancy_bt,2022.2.4,Win32,60.92731371,Chrome,1440,960,,,a,0.8864,1,173,0,2,4,28,11,1,0,0,0,1,0,0,1,0,star,hexagon,,,,,,,,,,,,,,,,,,,,,,,,,,,,,,,,,,,,,,,,,,,,,,,,,,,,,,
294934,2022-11-22_24h31.26.439,vts_reward_expectancy_bt,2022.2.4,Win32,60.92731371,Chrome,1440,960,,,a,1.4833,10,183,0,2,5,29,9,1,0,0,0,1,1,0,0,0,star,triangle,,,,,,,,,,,,,,,,,,,,,,,,,,,,,,,,,,,,,,,,,,,,,,,,,,,,,,
294934,2022-11-22_24h31.26.439,vts_reward_expectancy_bt,2022.2.4,Win32,60.92731371,Chrome,1440,960,,,l,2.0859,10,193,0,2,6,30,6,1,0,0,1,0,1,0,0,0,hexagon,triangle,,,,,,,,,,,,,,,,,,,,,,,,,,,,,,,,,,,,,,,,,,,,,,,,,,,,,,
294934,2022-11-22_24h31.26.439,vts_reward_expectancy_bt,2022.2.4,Win32,60.92731371,Chrome,1440,960,,,a,0.8853,1,194,0,2,7,31,2,1,1,0,0,0,0,0,0,1,triangle,star,,,,,,,,,,,,,,,,,,,,,,,,,,,,,,,,,,,,,,,,,,,,,,,,,,,,,,
294934,2022-11-22_24h31.26.439,vts_reward_expectancy_bt,2022.2.4,Win32,60.92731371,Chrome,1440,960,,,l,0.8999,1,195,0,2,8,32,5,1,0,1,0,0,0,0,0,1,circle,star,,,,,,,,,,,,,,,,,,,,,,,,,,,,,,,,,,,,,,,,,,,,,,,,,,,,,,
294934,2022-11-22_24h31.26.439,vts_reward_expectancy_bt,2022.2.4,Win32,60.92731371,Chrome,1440,960,,,a,0.9854,1,196,0,2,9,33,0,1,1,0,0,0,0,1,0,0,triangle,circle,,,,,,,,,,,,,,,,,,,,,,,,,,,,,,,,,,,,,,,,,,,,,,,,,,,,,,
294934,2022-11-22_24h31.26.439,vts_reward_expectancy_bt,2022.2.4,Win32,60.92731371,Chrome,1440,960,,,a,0.6162,10,206,0,2,10,34,4,1,0,1,0,0,0,0,1,0,circle,hexagon,,,,,,,,,,,,,,,,,,,,,,,,,,,,,,,,,,,,,,,,,,,,,,,,,,,,,,
294934,2022-11-22_24h31.26.439,vts_reward_expectancy_bt,2022.2.4,Win32,60.92731371,Chrome,1440,960,,,a,0.5021,1,207,0,2,11,35,7,1,0,0,1,0,0,1,0,0,hexagon,circle,,,,,,,,,,,,,,,,,,,,,,,,,,,,,,,,,,,,,,,,,,,,,,,,,,,,,,
294934,2022-11-22_24h31.26.439,vts_reward_expectancy_bt,2022.2.4,Win32,60.92731371,Chrome,1440,960,,,a,1.0797,1,208,1,0,0,0,8,1,0,0,1,0,0,0,0,1,hexagon,star,,,,,,,,,,,,,,,,,,,,,,,,,,,,,,,,,,,,,,,,,,,,,,,,,,,,,,
294934,2022-11-22_24h31.26.439,vts_reward_expectancy_bt,2022.2.4,Win32,60.92731371,Chrome,1440,960,,,l,0.9668,10,218,1,0,1,1,5,1,0,1,0,0,0,0,0,1,circle,star,,,,,,,,,,,,,,,,,,,,,,,,,,,,,,,,,,,,,,,,,,,,,,,,,,,,,,
294934,2022-11-22_24h31.26.439,vts_reward_expectancy_bt,2022.2.4,Win32,60.92731371,Chrome,1440,960,,,l,0.7325,10,228,1,0,2,2,10,1,0,0,0,1,0,1,0,0,star ,circle,,,,,,,,,,,,,,,,,,,,,,,,,,,,,,,,,,,,,,,,,,,,,,,,,,,,,,
294934,2022-11-22_24h31.26.439,vts_reward_expectancy_bt,2022.2.4,Win32,60.92731371,Chrome,1440,960,,,l,1.1854,10,238,1,0,3,3,9,1,0,0,0,1,1,0,0,0,star,triangle,,,,,,,,,,,,,,,,,,,,,,,,,,,,,,,,,,,,,,,,,,,,,,,,,,,,,,
294934,2022-11-22_24h31.26.439,vts_reward_expectancy_bt,2022.2.4,Win32,60.92731371,Chrome,1440,960,,,a,0.6921,10,248,1,0,4,4,11,1,0,0,0,1,0,0,1,0,star,hexagon,,,,,,,,,,,,,,,,,,,,,,,,,,,,,,,,,,,,,,,,,,,,,,,,,,,,,,
294934,2022-11-22_24h31.26.439,vts_reward_expectancy_bt,2022.2.4,Win32,60.92731371,Chrome,1440,960,,,a,0.5868,1,249,1,0,5,5,0,1,1,0,0,0,0,1,0,0,triangle,circle,,,,,,,,,,,,,,,,,,,,,,,,,,,,,,,,,,,,,,,,,,,,,,,,,,,,,,
294934,2022-11-22_24h31.26.439,vts_reward_expectancy_bt,2022.2.4,Win32,60.92731371,Chrome,1440,960,,,a,0.4962,10,259,1,0,6,6,7,1,0,0,1,0,0,1,0,0,hexagon,circle,,,,,,,,,,,,,,,,,,,,,,,,,,,,,,,,,,,,,,,,,,,,,,,,,,,,,,
294934,2022-11-22_24h31.26.439,vts_reward_expectancy_bt,2022.2.4,Win32,60.92731371,Chrome,1440,960,,,a,0.7314,1,260,1,0,7,7,2,1,1,0,0,0,0,0,0,1,triangle,star,,,,,,,,,,,,,,,,,,,,,,,,,,,,,,,,,,,,,,,,,,,,,,,,,,,,,,
294934,2022-11-22_24h31.26.439,vts_reward_expectancy_bt,2022.2.4,Win32,60.92731371,Chrome,1440,960,,,a,0.5676,1,261,1,0,8,8,6,1,0,0,1,0,1,0,0,0,hexagon,triangle,,,,,,,,,,,,,,,,,,,,,,,,,,,,,,,,,,,,,,,,,,,,,,,,,,,,,,
294934,2022-11-22_24h31.26.439,vts_reward_expectancy_bt,2022.2.4,Win32,60.92731371,Chrome,1440,960,,,a,0.4702,1,262,1,0,9,9,4,1,0,1,0,0,0,0,1,0,circle,hexagon,,,,,,,,,,,,,,,,,,,,,,,,,,,,,,,,,,,,,,,,,,,,,,,,,,,,,,
294934,2022-11-22_24h31.26.439,vts_reward_expectancy_bt,2022.2.4,Win32,60.92731371,Chrome,1440,960,,,a,0.5494,1,263,1,0,10,10,3,1,0,1,0,0,1,0,0,0,circle,triangle,,,,,,,,,,,,,,,,,,,,,,,,,,,,,,,,,,,,,,,,,,,,,,,,,,,,,,
294934,2022-11-22_24h31.26.439,vts_reward_expectancy_bt,2022.2.4,Win32,60.92731371,Chrome,1440,960,,,l,0.3678,1,264,1,0,11,11,1,1,1,0,0,0,0,0,1,0,triangle,hexagon,,,,,,,,,,,,,,,,,,,,,,,,,,,,,,,,,,,,,,,,,,,,,,,,,,,,,,
294934,2022-11-22_24h31.26.439,vts_reward_expectancy_bt,2022.2.4,Win32,60.92731371,Chrome,1440,960,,,a,0.236,10,274,1,1,0,12,2,1,1,0,0,0,0,0,0,1,triangle,star,,,,,,,,,,,,,,,,,,,,,,,,,,,,,,,,,,,,,,,,,,,,,,,,,,,,,,
294934,2022-11-22_24h31.26.439,vts_reward_expectancy_bt,2022.2.4,Win32,60.92731371,Chrome,1440,960,,,l,0.6521,10,284,1,1,1,13,10,1,0,0,0,1,0,1,0,0,star ,circle,,,,,,,,,,,,,,,,,,,,,,,,,,,,,,,,,,,,,,,,,,,,,,,,,,,,,,
294934,2022-11-22_24h31.26.439,vts_reward_expectancy_bt,2022.2.4,Win32,60.92731371,Chrome,1440,960,,,a,0.7187,1,285,1,1,2,14,9,1,0,0,0,1,1,0,0,0,star,triangle,,,,,,,,,,,,,,,,,,,,,,,,,,,,,,,,,,,,,,,,,,,,,,,,,,,,,,
294934,2022-11-22_24h31.26.439,vts_reward_expectancy_bt,2022.2.4,Win32,60.92731371,Chrome,1440,960,,,a,0.5045,10,295,1,1,3,15,5,1,0,1,0,0,0,0,0,1,circle,star,,,,,,,,,,,,,,,,,,,,,,,,,,,,,,,,,,,,,,,,,,,,,,,,,,,,,,
294934,2022-11-22_24h31.26.439,vts_reward_expectancy_bt,2022.2.4,Win32,60.92731371,Chrome,1440,960,,,a,0.7837,1,296,1,1,4,16,4,1,0,1,0,0,0,0,1,0,circle,hexagon,,,,,,,,,,,,,,,,,,,,,,,,,,,,,,,,,,,,,,,,,,,,,,,,,,,,,,
294934,2022-11-22_24h31.26.439,vts_reward_expectancy_bt,2022.2.4,Win32,60.92731371,Chrome,1440,960,,,a,1.2344,10,306,1,1,5,17,7,1,0,0,1,0,0,1,0,0,hexagon,circle,,,,,,,,,,,,,,,,,,,,,,,,,,,,,,,,,,,,,,,,,,,,,,,,,,,,,,
294934,2022-11-22_24h31.26.439,vts_reward_expectancy_bt,2022.2.4,Win32,60.92731371,Chrome,1440,960,,,l,1.9829,1,307,1,1,6,18,11,1,0,0,0,1,0,0,1,0,star,hexagon,,,,,,,,,,,,,,,,,,,,,,,,,,,,,,,,,,,,,,,,,,,,,,,,,,,,,,
294934,2022-11-22_24h31.26.439,vts_reward_expectancy_bt,2022.2.4,Win32,60.92731371,Chrome,1440,960,,,a,4.3169,1,308,1,1,7,19,1,1,1,0,0,0,0,0,1,0,triangle,hexagon,,,,,,,,,,,,,,,,,,,,,,,,,,,,,,,,,,,,,,,,,,,,,,,,,,,,,,
294934,2022-11-22_24h31.26.439,vts_reward_expectancy_bt,2022.2.4,Win32,60.92731371,Chrome,1440,960,,,a,4.1166,10,318,1,1,8,20,0,1,1,0,0,0,0,1,0,0,triangle,circle,,,,,,,,,,,,,,,,,,,,,,,,,,,,,,,,,,,,,,,,,,,,,,,,,,,,,,
294934,2022-11-22_24h31.26.439,vts_reward_expectancy_bt,2022.2.4,Win32,60.92731371,Chrome,1440,960,,,a,4.2341,10,328,1,1,9,21,6,1,0,0,1,0,1,0,0,0,hexagon,triangle,,,,,,,,,,,,,,,,,,,,,,,,,,,,,,,,,,,,,,,,,,,,,,,,,,,,,,
294934,2022-11-22_24h31.26.439,vts_reward_expectancy_bt,2022.2.4,Win32,60.92731371,Chrome,1440,960,,,l,3.9511,10,338,1,1,10,22,8,1,0,0,1,0,0,0,0,1,hexagon,star,,,,,,,,,,,,,,,,,,,,,,,,,,,,,,,,,,,,,,,,,,,,,,,,,,,,,,
294934,2022-11-22_24h31.26.439,vts_reward_expectancy_bt,2022.2.4,Win32,60.92731371,Chrome,1440,960,,,a,8.3837,1,339,1,1,11,23,3,1,0,1,0,0,1,0,0,0,circle,triangle,,,,,,,,,,,,,,,,,,,,,,,,,,,,,,,,,,,,,,,,,,,,,,,,,,,,,,
294934,2022-11-22_24h31.26.439,vts_reward_expectancy_bt,2022.2.4,Win32,60.92731371,Chrome,1440,960,,,a,7.6077,1,340,1,2,0,24,1,1,1,0,0,0,0,0,1,0,triangle,hexagon,,,,,,,,,,,,,,,,,,,,,,,,,,,,,,,,,,,,,,,,,,,,,,,,,,,,,,
294934,2022-11-22_24h31.26.439,vts_reward_expectancy_bt,2022.2.4,Win32,60.92731371,Chrome,1440,960,,,a,1.5815,1,341,1,2,1,25,10,1,0,0,0,1,0,1,0,0,star ,circle,,,,,,,,,,,,,,,,,,,,,,,,,,,,,,,,,,,,,,,,,,,,,,,,,,,,,,
294934,2022-11-22_24h31.26.439,vts_reward_expectancy_bt,2022.2.4,Win32,60.92731371,Chrome,1440,960,,,l,2.3996,1,342,1,2,2,26,3,1,0,1,0,0,1,0,0,0,circle,triangle,,,,,,,,,,,,,,,,,,,,,,,,,,,,,,,,,,,,,,,,,,,,,,,,,,,,,,
294934,2022-11-22_24h31.26.439,vts_reward_expectancy_bt,2022.2.4,Win32,60.92731371,Chrome,1440,960,,,a,3.6383,1,343,1,2,3,27,0,1,1,0,0,0,0,1,0,0,triangle,circle,,,,,,,,,,,,,,,,,,,,,,,,,,,,,,,,,,,,,,,,,,,,,,,,,,,,,,
294934,2022-11-22_24h31.26.439,vts_reward_expectancy_bt,2022.2.4,Win32,60.92731371,Chrome,1440,960,,,a,1.0686,10,353,1,2,4,28,11,1,0,0,0,1,0,0,1,0,star,hexagon,,,,,,,,,,,,,,,,,,,,,,,,,,,,,,,,,,,,,,,,,,,,,,,,,,,,,,
294934,2022-11-22_24h31.26.439,vts_reward_expectancy_bt,2022.2.4,Win32,60.92731371,Chrome,1440,960,,,a,1.3662,10,363,1,2,5,29,5,1,0,1,0,0,0,0,0,1,circle,star,,,,,,,,,,,,,,,,,,,,,,,,,,,,,,,,,,,,,,,,,,,,,,,,,,,,,,
294934,2022-11-22_24h31.26.439,vts_reward_expectancy_bt,2022.2.4,Win32,60.92731371,Chrome,1440,960,,,l,5.671,1,364,1,2,6,30,6,1,0,0,1,0,1,0,0,0,hexagon,triangle,,,,,,,,,,,,,,,,,,,,,,,,,,,,,,,,,,,,,,,,,,,,,,,,,,,,,,
294934,2022-11-22_24h31.26.439,vts_reward_expectancy_bt,2022.2.4,Win32,60.92731371,Chrome,1440,960,,,a,2.8656,10,374,1,2,7,31,8,1,0,0,1,0,0,0,0,1,hexagon,star,,,,,,,,,,,,,,,,,,,,,,,,,,,,,,,,,,,,,,,,,,,,,,,,,,,,,,
294934,2022-11-22_24h31.26.439,vts_reward_expectancy_bt,2022.2.4,Win32,60.92731371,Chrome,1440,960,,,l,20.0688,10,384,1,2,8,32,7,1,0,0,1,0,0,1,0,0,hexagon,circle,,,,,,,,,,,,,,,,,,,,,,,,,,,,,,,,,,,,,,,,,,,,,,,,,,,,,,
294934,2022-11-22_24h31.26.439,vts_reward_expectancy_bt,2022.2.4,Win32,60.92731371,Chrome,1440,960,,,l,4.5993,10,394,1,2,9,33,9,1,0,0,0,1,1,0,0,0,star,triangle,,,,,,,,,,,,,,,,,,,,,,,,,,,,,,,,,,,,,,,,,,,,,,,,,,,,,,
294934,2022-11-22_24h31.26.439,vts_reward_expectancy_bt,2022.2.4,Win32,60.92731371,Chrome,1440,960,,,a,0.8351,1,395,1,2,10,34,2,1,1,0,0,0,0,0,0,1,triangle,star,,,,,,,,,,,,,,,,,,,,,,,,,,,,,,,,,,,,,,,,,,,,,,,,,,,,,,
294934,2022-11-22_24h31.26.439,vts_reward_expectancy_bt,2022.2.4,Win32,60.92731371,Chrome,1440,960,,,l,0.0501,10,405,1,2,11,35,4,1,0,1,0,0,0,0,1,0,circle,hexagon,,,,,,,,,,,,,,,,,,,,,,,,,,,,,,,,,,,,,,,,,,,,,,,,,,,,,,
294934,2022-11-22_24h31.26.439,vts_reward_expectancy_bt,2022.2.4,Win32,60.92731371,Chrome,1440,960,,,l,0.8032,10,415,2,0,0,0,8,1,0,0,1,0,0,0,0,1,hexagon,star,,,,,,,,,,,,,,,,,,,,,,,,,,,,,,,,,,,,,,,,,,,,,,,,,,,,,,
294934,2022-11-22_24h31.26.439,vts_reward_expectancy_bt,2022.2.4,Win32,60.92731371,Chrome,1440,960,,,l,0.8841,10,425,2,0,1,1,1,1,1,0,0,0,0,0,1,0,triangle,hexagon,,,,,,,,,,,,,,,,,,,,,,,,,,,,,,,,,,,,,,,,,,,,,,,,,,,,,,
294934,2022-11-22_24h31.26.439,vts_reward_expectancy_bt,2022.2.4,Win32,60.92731371,Chrome,1440,960,,,l,0.8654,10,435,2,0,2,2,0,1,1,0,0,0,0,1,0,0,triangle,circle,,,,,,,,,,,,,,,,,,,,,,,,,,,,,,,,,,,,,,,,,,,,,,,,,,,,,,
294934,2022-11-22_24h31.26.439,vts_reward_expectancy_bt,2022.2.4,Win32,60.92731371,Chrome,1440,960,,,l,0.376,10,445,2,0,3,3,9,1,0,0,0,1,1,0,0,0,star,triangle,,,,,,,,,,,,,,,,,,,,,,,,,,,,,,,,,,,,,,,,,,,,,,,,,,,,,,
294934,2022-11-22_24h31.26.439,vts_reward_expectancy_bt,2022.2.4,Win32,60.92731371,Chrome,1440,960,,,l,0.7196,10,455,2,0,4,4,7,1,0,0,1,0,0,1,0,0,hexagon,circle,,,,,,,,,,,,,,,,,,,,,,,,,,,,,,,,,,,,,,,,,,,,,,,,,,,,,,
294934,2022-11-22_24h31.26.439,vts_reward_expectancy_bt,2022.2.4,Win32,60.92731371,Chrome,1440,960,,,l,0.7059,10,465,2,0,5,5,5,1,0,1,0,0,0,0,0,1,circle,star,,,,,,,,,,,,,,,,,,,,,,,,,,,,,,,,,,,,,,,,,,,,,,,,,,,,,,
294934,2022-11-22_24h31.26.439,vts_reward_expectancy_bt,2022.2.4,Win32,60.92731371,Chrome,1440,960,,,l,0.0762,10,475,2,0,6,6,4,1,0,1,0,0,0,0,1,0,circle,hexagon,,,,,,,,,,,,,,,,,,,,,,,,,,,,,,,,,,,,,,,,,,,,,,,,,,,,,,
294934,2022-11-22_24h31.26.439,vts_reward_expectancy_bt,2022.2.4,Win32,60.92731371,Chrome,1440,960,,,l,0.267,1,476,2,0,7,7,2,1,1,0,0,0,0,0,0,1,triangle,star,,,,,,,,,,,,,,,,,,,,,,,,,,,,,,,,,,,,,,,,,,,,,,,,,,,,,,
294934,2022-11-22_24h31.26.439,vts_reward_expectancy_bt,2022.2.4,Win32,60.92731371,Chrome,1440,960,,,a,0.5153,1,477,2,0,8,8,11,1,0,0,0,1,0,0,1,0,star,hexagon,,,,,,,,,,,,,,,,,,,,,,,,,,,,,,,,,,,,,,,,,,,,,,,,,,,,,,
294934,2022-11-22_24h31.26.439,vts_reward_expectancy_bt,2022.2.4,Win32,60.92731371,Chrome,1440,960,,,l,0.3145,1,478,2,0,9,9,10,1,0,0,0,1,0,1,0,0,star ,circle,,,,,,,,,,,,,,,,,,,,,,,,,,,,,,,,,,,,,,,,,,,,,,,,,,,,,,
294934,2022-11-22_24h31.26.439,vts_reward_expectancy_bt,2022.2.4,Win32,60.92731371,Chrome,1440,960,,,l,0.4027,10,488,2,0,10,10,3,1,0,1,0,0,1,0,0,0,circle,triangle,,,,,,,,,,,,,,,,,,,,,,,,,,,,,,,,,,,,,,,,,,,,,,,,,,,,,,
294934,2022-11-22_24h31.26.439,vts_reward_expectancy_bt,2022.2.4,Win32,60.92731371,Chrome,1440,960,,,l,0.4341,10,498,2,0,11,11,6,1,0,0,1,0,1,0,0,0,hexagon,triangle,,,,,,,,,,,,,,,,,,,,,,,,,,,,,,,,,,,,,,,,,,,,,,,,,,,,,,
294934,2022-11-22_24h31.26.439,vts_reward_expectancy_bt,2022.2.4,Win32,60.92731371,Chrome,1440,960,,,l,0.4164,10,508,2,1,0,12,4,1,0,1,0,0,0,0,1,0,circle,hexagon,,,,,,,,,,,,,,,,,,,,,,,,,,,,,,,,,,,,,,,,,,,,,,,,,,,,,,
294934,2022-11-22_24h31.26.439,vts_reward_expectancy_bt,2022.2.4,Win32,60.92731371,Chrome,1440,960,,,l,0.1661,10,518,2,1,1,13,7,1,0,0,1,0,0,1,0,0,hexagon,circle,,,,,,,,,,,,,,,,,,,,,,,,,,,,,,,,,,,,,,,,,,,,,,,,,,,,,,
294934,2022-11-22_24h31.26.439,vts_reward_expectancy_bt,2022.2.4,Win32,60.92731371,Chrome,1440,960,,,l,0.4992,10,528,2,1,2,14,0,1,1,0,0,0,0,1,0,0,triangle,circle,,,,,,,,,,,,,,,,,,,,,,,,,,,,,,,,,,,,,,,,,,,,,,,,,,,,,,
294934,2022-11-22_24h31.26.439,vts_reward_expectancy_bt,2022.2.4,Win32,60.92731371,Chrome,1440,960,,,l,0.6163,10,538,2,1,3,15,2,1,1,0,0,0,0,0,0,1,triangle,star,,,,,,,,,,,,,,,,,,,,,,,,,,,,,,,,,,,,,,,,,,,,,,,,,,,,,,
294934,2022-11-22_24h31.26.439,vts_reward_expectancy_bt,2022.2.4,Win32,60.92731371,Chrome,1440,960,,,l,0.886,10,548,2,1,4,16,9,1,0,0,0,1,1,0,0,0,star,triangle,,,,,,,,,,,,,,,,,,,,,,,,,,,,,,,,,,,,,,,,,,,,,,,,,,,,,,
294934,2022-11-22_24h31.26.439,vts_reward_expectancy_bt,2022.2.4,Win32,60.92731371,Chrome,1440,960,,,l,1.0627,10,558,2,1,5,17,10,1,0,0,0,1,0,1,0,0,star ,circle,,,,,,,,,,,,,,,,,,,,,,,,,,,,,,,,,,,,,,,,,,,,,,,,,,,,,,
294934,2022-11-22_24h31.26.439,vts_reward_expectancy_bt,2022.2.4,Win32,60.92731371,Chrome,1440,960,,,l,0.5144,1,559,2,1,6,18,5,1,0,1,0,0,0,0,0,1,circle,star,,,,,,,,,,,,,,,,,,,,,,,,,,,,,,,,,,,,,,,,,,,,,,,,,,,,,,
294934,2022-11-22_24h31.26.439,vts_reward_expectancy_bt,2022.2.4,Win32,60.92731371,Chrome,1440,960,,,a,0.3856,1,560,2,1,7,19,3,1,0,1,0,0,1,0,0,0,circle,triangle,,,,,,,,,,,,,,,,,,,,,,,,,,,,,,,,,,,,,,,,,,,,,,,,,,,,,,
294934,2022-11-22_24h31.26.439,vts_reward_expectancy_bt,2022.2.4,Win32,60.92731371,Chrome,1440,960,,,a,0.4217,1,561,2,1,8,20,1,1,1,0,0,0,0,0,1,0,triangle,hexagon,,,,,,,,,,,,,,,,,,,,,,,,,,,,,,,,,,,,,,,,,,,,,,,,,,,,,,
294934,2022-11-22_24h31.26.439,vts_reward_expectancy_bt,2022.2.4,Win32,60.92731371,Chrome,1440,960,,,l,0.383,1,562,2,1,9,21,11,1,0,0,0,1,0,0,1,0,star,hexagon,,,,,,,,,,,,,,,,,,,,,,,,,,,,,,,,,,,,,,,,,,,,,,,,,,,,,,
294934,2022-11-22_24h31.26.439,vts_reward_expectancy_bt,2022.2.4,Win32,60.92731371,Chrome,1440,960,,,l,0.532,10,572,2,1,10,22,8,1,0,0,1,0,0,0,0,1,hexagon,star,,,,,,,,,,,,,,,,,,,,,,,,,,,,,,,,,,,,,,,,,,,,,,,,,,,,,,
294934,2022-11-22_24h31.26.439,vts_reward_expectancy_bt,2022.2.4,Win32,60.92731371,Chrome,1440,960,,,l,0.3833,10,582,2,1,11,23,6,1,0,0,1,0,1,0,0,0,hexagon,triangle,,,,,,,,,,,,,,,,,,,,,,,,,,,,,,,,,,,,,,,,,,,,,,,,,,,,,,
294934,2022-11-22_24h31.26.439,vts_reward_expectancy_bt,2022.2.4,Win32,60.92731371,Chrome,1440,960,,,l,0.5758,1,583,2,2,0,24,3,1,0,1,0,0,1,0,0,0,circle,triangle,,,,,,,,,,,,,,,,,,,,,,,,,,,,,,,,,,,,,,,,,,,,,,,,,,,,,,
294934,2022-11-22_24h31.26.439,vts_reward_expectancy_bt,2022.2.4,Win32,60.92731371,Chrome,1440,960,,,a,0.9174,1,584,2,2,1,25,4,1,0,1,0,0,0,0,1,0,circle,hexagon,,,,,,,,,,,,,,,,,,,,,,,,,,,,,,,,,,,,,,,,,,,,,,,,,,,,,,
294934,2022-11-22_24h31.26.439,vts_reward_expectancy_bt,2022.2.4,Win32,60.92731371,Chrome,1440,960,,,a,0.718,1,585,2,2,2,26,5,1,0,1,0,0,0,0,0,1,circle,star,,,,,,,,,,,,,,,,,,,,,,,,,,,,,,,,,,,,,,,,,,,,,,,,,,,,,,
294934,2022-11-22_24h31.26.439,vts_reward_expectancy_bt,2022.2.4,Win32,60.92731371,Chrome,1440,960,,,l,0.4352,10,595,2,2,3,27,8,1,0,0,1,0,0,0,0,1,hexagon,star,,,,,,,,,,,,,,,,,,,,,,,,,,,,,,,,,,,,,,,,,,,,,,,,,,,,,,
294934,2022-11-22_24h31.26.439,vts_reward_expectancy_bt,2022.2.4,Win32,60.92731371,Chrome,1440,960,,,l,0.4235,1,596,2,2,4,28,7,1,0,0,1,0,0,1,0,0,hexagon,circle,,,,,,,,,,,,,,,,,,,,,,,,,,,,,,,,,,,,,,,,,,,,,,,,,,,,,,
294934,2022-11-22_24h31.26.439,vts_reward_expectancy_bt,2022.2.4,Win32,60.92731371,Chrome,1440,960,,,l,0.3885,10,606,2,2,5,29,10,1,0,0,0,1,0,1,0,0,star ,circle,,,,,,,,,,,,,,,,,,,,,,,,,,,,,,,,,,,,,,,,,,,,,,,,,,,,,,
294934,2022-11-22_24h31.26.439,vts_reward_expectancy_bt,2022.2.4,Win32,60.92731371,Chrome,1440,960,,,a,0.7166,1,607,2,2,6,30,1,1,1,0,0,0,0,0,1,0,triangle,hexagon,,,,,,,,,,,,,,,,,,,,,,,,,,,,,,,,,,,,,,,,,,,,,,,,,,,,,,
294934,2022-11-22_24h31.26.439,vts_reward_expectancy_bt,2022.2.4,Win32,60.92731371,Chrome,1440,960,,,l,0.5166,10,617,2,2,7,31,11,1,0,0,0,1,0,0,1,0,star,hexagon,,,,,,,,,,,,,,,,,,,,,,,,,,,,,,,,,,,,,,,,,,,,,,,,,,,,,,
294934,2022-11-22_24h31.26.439,vts_reward_expectancy_bt,2022.2.4,Win32,60.92731371,Chrome,1440,960,,,l,0.675,1,618,2,2,8,32,2,1,1,0,0,0,0,0,0,1,triangle,star,,,,,,,,,,,,,,,,,,,,,,,,,,,,,,,,,,,,,,,,,,,,,,,,,,,,,,
294934,2022-11-22_24h31.26.439,vts_reward_expectancy_bt,2022.2.4,Win32,60.92731371,Chrome,1440,960,,,l,0.9157,10,628,2,2,9,33,0,1,1,0,0,0,0,1,0,0,triangle,circle,,,,,,,,,,,,,,,,,,,,,,,,,,,,,,,,,,,,,,,,,,,,,,,,,,,,,,
294934,2022-11-22_24h31.26.439,vts_reward_expectancy_bt,2022.2.4,Win32,60.92731371,Chrome,1440,960,,,l,0.7502,1,629,2,2,10,34,9,1,0,0,0,1,1,0,0,0,star,triangle,,,,,,,,,,,,,,,,,,,,,,,,,,,,,,,,,,,,,,,,,,,,,,,,,,,,,,
294934,2022-11-22_24h31.26.439,vts_reward_expectancy_bt,2022.2.4,Win32,60.92731371,Chrome,1440,960,,,l,0.6681,1,630,2,2,11,35,6,1,0,0,1,0,1,0,0,0,hexagon,triangle,,,,,,,,,,,,,,,,,,,,,,,,,,,,,,,,,,,,,,,,,,,,,,,,,,,,,,
294934,2022-11-22_24h31.26.439,vts_reward_expectancy_bt,2022.2.4,Win32,60.92731371,Chrome,1440,960,,,,,,,,,,,,,,,,,,,,,,,B,181,star,1,0,d,0.8004,0,0,0,0,0,1,,,,,,,,,,,,,,,,,,,,,,,,,,,,,,,,,,,,,,,,,
294934,2022-11-22_24h31.26.439,vts_reward_expectancy_bt,2022.2.4,Win32,60.92731371,Chrome,1440,960,,,,,,,,,,,,,,,,,,,,,,,U,125,triangle,1,0,f,0.9656,0,1,0,1,0,1,,,,,,,,,,,,,,,,,,,,,,,,,,,,,,,,,,,,,,,,,
294934,2022-11-22_24h31.26.439,vts_reward_expectancy_bt,2022.2.4,Win32,60.92731371,Chrome,1440,960,,,,,,,,,,,,,,,,,,,,,,,S,146,circle,1,0,f,0.7828,0,2,0,2,0,1,,,,,,,,,,,,,,,,,,,,,,,,,,,,,,,,,,,,,,,,,
294934,2022-11-22_24h31.26.439,vts_reward_expectancy_bt,2022.2.4,Win32,60.92731371,Chrome,1440,960,,,,,,,,,,,,,,,,,,,,,,,H,174,hexagon,1,0,d,0.616,0,3,0,3,0,1,,,,,,,,,,,,,,,,,,,,,,,,,,,,,,,,,,,,,,,,,
294934,2022-11-22_24h31.26.439,vts_reward_expectancy_bt,2022.2.4,Win32,60.92731371,Chrome,1440,960,,,,,,,,,,,,,,,,,,,,,,,D,167,star,1,0,d,0.6821,0,4,0,4,0,1,,,,,,,,,,,,,,,,,,,,,,,,,,,,,,,,,,,,,,,,,
294934,2022-11-22_24h31.26.439,vts_reward_expectancy_bt,2022.2.4,Win32,60.92731371,Chrome,1440,960,,,,,,,,,,,,,,,,,,,,,,,Y,132,triangle,1,0,f,0.6372,0,5,0,5,0,1,,,,,,,,,,,,,,,,,,,,,,,,,,,,,,,,,,,,,,,,,
294934,2022-11-22_24h31.26.439,vts_reward_expectancy_bt,2022.2.4,Win32,60.92731371,Chrome,1440,960,,,,,,,,,,,,,,,,,,,,,,,W,139,circle,1,0,f,0.6005,0,6,0,6,0,1,,,,,,,,,,,,,,,,,,,,,,,,,,,,,,,,,,,,,,,,,
294934,2022-11-22_24h31.26.439,vts_reward_expectancy_bt,2022.2.4,Win32,60.92731371,Chrome,1440,960,,,,,,,,,,,,,,,,,,,,,,,F,160,hexagon,1,0,d,0.5839,0,7,0,7,0,1,,,,,,,,,,,,,,,,,,,,,,,,,,,,,,,,,,,,,,,,,
294934,2022-11-22_24h31.26.439,vts_reward_expectancy_bt,2022.2.4,Win32,60.92731371,Chrome,1440,960,,,,,,,,,,,,,,,,,,,,,,,B,181,circle,1,0,d,0.6504,0,8,0,8,0,1,,,,,,,,,,,,,,,,,,,,,,,,,,,,,,,,,,,,,,,,,
294934,2022-11-22_24h31.26.439,vts_reward_expectancy_bt,2022.2.4,Win32,60.92731371,Chrome,1440,960,,,,,,,,,,,,,,,,,,,,,,,U,125,hexagon,1,0,f,0.6167,0,9,0,9,0,1,,,,,,,,,,,,,,,,,,,,,,,,,,,,,,,,,,,,,,,,,
294934,2022-11-22_24h31.26.439,vts_reward_expectancy_bt,2022.2.4,Win32,60.92731371,Chrome,1440,960,,,,,,,,,,,,,,,,,,,,,,,Y,181,triangle,1,0,,,1,,,,,,k,0.7323,0,0,0,0,1,,,,,,,,,,,,,,,,,,,,,,,,,,,,,,,,,,
294934,2022-11-22_24h31.26.439,vts_reward_expectancy_bt,2022.2.4,Win32,60.92731371,Chrome,1440,960,,,,,,,,,,,,,,,,,,,,,,,U,160,circle,1,0,,,1,,,,,,k,0.6018,1,0,1,0,1,,,,,,,,,,,,,,,,,,,,,,,,,,,,,,,,,,
294934,2022-11-22_24h31.26.439,vts_reward_expectancy_bt,2022.2.4,Win32,60.92731371,Chrome,1440,960,,,,,,,,,,,,,,,,,,,,,,,F,167,star,1,0,,,1,,,,,,k,0.6336,2,0,2,0,1,,,,,,,,,,,,,,,,,,,,,,,,,,,,,,,,,,
294934,2022-11-22_24h31.26.439,vts_reward_expectancy_bt,2022.2.4,Win32,60.92731371,Chrome,1440,960,,,,,,,,,,,,,,,,,,,,,,,S,146,hexagon,1,0,,,1,,,,,,j,1.816,3,0,3,0,1,,,,,,,,,,,,,,,,,,,,,,,,,,,,,,,,,,
294934,2022-11-22_24h31.26.439,vts_reward_expectancy_bt,2022.2.4,Win32,60.92731371,Chrome,1440,960,,,,,,,,,,,,,,,,,,,,,,,H,174,triangle,0,0,,,1,,,,,,j,2.8493,4,0,4,0,1,,,,,,,,,,,,,,,,,,,,,,,,,,,,,,,,,,
294934,2022-11-22_24h31.26.439,vts_reward_expectancy_bt,2022.2.4,Win32,60.92731371,Chrome,1440,960,,,,,,,,,,,,,,,,,,,,,,,B,125,circle,1,1,,,1,,,,,,j,1.5216,5,0,5,0,1,,,,,,,,,,,,,,,,,,,,,,,,,,,,,,,,,,
294934,2022-11-22_24h31.26.439,vts_reward_expectancy_bt,2022.2.4,Win32,60.92731371,Chrome,1440,960,,,,,,,,,,,,,,,,,,,,,,,D,139,star,1,0,,,1,,,,,,j,1.6707,6,0,6,0,1,,,,,,,,,,,,,,,,,,,,,,,,,,,,,,,,,,
294934,2022-11-22_24h31.26.439,vts_reward_expectancy_bt,2022.2.4,Win32,60.92731371,Chrome,1440,960,,,,,,,,,,,,,,,,,,,,,,,W,132,hexagon,1,0,,,1,,,,,,j,0.7987,7,0,7,0,1,,,,,,,,,,,,,,,,,,,,,,,,,,,,,,,,,,
294934,2022-11-22_24h31.26.439,vts_reward_expectancy_bt,2022.2.4,Win32,60.92731371,Chrome,1440,960,,,,,,,,,,,,,,,,,,,,,,,Y,181,star,1,0,,,1,,,,,,k,0.7192,8,0,8,0,1,,,,,,,,,,,,,,,,,,,,,,,,,,,,,,,,,,
294934,2022-11-22_24h31.26.439,vts_reward_expectancy_bt,2022.2.4,Win32,60.92731371,Chrome,1440,960,,,,,,,,,,,,,,,,,,,,,,,U,160,circle,1,0,,,1,,,,,,k,0.9491,9,0,9,0,1,,,,,,,,,,,,,,,,,,,,,,,,,,,,,,,,,,
294934,2022-11-22_24h31.26.439,vts_reward_expectancy_bt,2022.2.4,Win32,60.92731371,Chrome,1440,960,,,,,0,630,,,,,,,,,,,,,,,,,Y,139,hexagon,1,0,,,2,,,,,,,,,,,,,-1,letter,NA,f,2.2858,vtsPrac,0,0,0,0,1,,,,,,,,,,,,,,,,,,,,,,,
294934,2022-11-22_24h31.26.439,vts_reward_expectancy_bt,2022.2.4,Win32,60.92731371,Chrome,1440,960,,,,,0,630,,,,,,,,,,,,,,,,,D,181,star,1,0,,,2,,,,,,,,,,,,,repeat,letter,lettRpt,d,0.5848,vtsPrac,1,0,1,0,1,,,,,,,,,,,,,,,,,,,,,,,
294934,2022-11-22_24h31.26.439,vts_reward_expectancy_bt,2022.2.4,Win32,60.92731371,Chrome,1440,960,,,,,0,630,,,,,,,,,,,,,,,,,U,174,hexagon,1,0,,,2,,,,,,,,,,,,,repeat,letter,lettRpt,f,0.5987,vtsPrac,2,0,2,0,1,,,,,,,,,,,,,,,,,,,,,,,
294934,2022-11-22_24h31.26.439,vts_reward_expectancy_bt,2022.2.4,Win32,60.92731371,Chrome,1440,960,,,,,0,630,,,,,,,,,,,,,,,,,H,132,star,1,0,,,2,,,,,,,,,,,,,repeat,letter,lettRpt,d,0.6837,vtsPrac,3,0,3,0,1,,,,,,,,,,,,,,,,,,,,,,,
294934,2022-11-22_24h31.26.439,vts_reward_expectancy_bt,2022.2.4,Win32,60.92731371,Chrome,1440,960,,,,,0,630,,,,,,,,,,,,,,,,,Y,139,triangle,1,0,,,2,,,,,,,,,,,,,repeat,letter,lettRpt,f,0.6882,vtsPrac,4,0,4,0,1,,,,,,,,,,,,,,,,,,,,,,,
294934,2022-11-22_24h31.26.439,vts_reward_expectancy_bt,2022.2.4,Win32,60.92731371,Chrome,1440,960,,,,,0,630,,,,,,,,,,,,,,,,,D,181,hexagon,1,0,,,2,,,,,,,,,,,,,repeat,letter,lettRpt,d,0.5178,vtsPrac,5,0,5,0,1,,,,,,,,,,,,,,,,,,,,,,,
294934,2022-11-22_24h31.26.439,vts_reward_expectancy_bt,2022.2.4,Win32,60.92731371,Chrome,1440,960,,,,,0,630,,,,,,,,,,,,,,,,,U,174,circle,1,0,,,2,,,,,,,,,,,,,switch,number,numSwt,k,0.5004,vtsPrac,6,0,6,0,1,,,,,,,,,,,,,,,,,,,,,,,
294934,2022-11-22_24h31.26.439,vts_reward_expectancy_bt,2022.2.4,Win32,60.92731371,Chrome,1440,960,,,,,0,630,,,,,,,,,,,,,,,,,H,132,triangle,1,0,,,2,,,,,,,,,,,,,repeat,number,numRpt,j,0.5653,vtsPrac,7,0,7,0,1,,,,,,,,,,,,,,,,,,,,,,,
294934,2022-11-22_24h31.26.439,vts_reward_expectancy_bt,2022.2.4,Win32,60.92731371,Chrome,1440,960,,,,,0,630,,,,,,,,,,,,,,,,,F,146,hexagon,1,0,,,2,,,,,,,,,,,,,repeat,number,numRpt,j,0.5869,vtsPrac,8,0,8,0,1,,,,,,,,,,,,,,,,,,,,,,,
294934,2022-11-22_24h31.26.439,vts_reward_expectancy_bt,2022.2.4,Win32,60.92731371,Chrome,1440,960,,,,,0,630,,,,,,,,,,,,,,,,,B,132,star,1,0,,,2,,,,,,,,,,,,,repeat,number,numRpt,j,0.584,vtsPrac,9,0,9,0,1,,,,,,,,,,,,,,,,,,,,,,,
294934,2022-11-22_24h31.26.439,vts_reward_expectancy_bt,2022.2.4,Win32,60.92731371,Chrome,1440,960,,,,,0,630,,,,,,,,,,,,,,,,,W,167,triangle,1,0,,,2,,,,,,,,,,,,,repeat,number,numRpt,k,0.5809,vtsPrac,10,0,10,0,1,,,,,,,,,,,,,,,,,,,,,,,
294934,2022-11-22_24h31.26.439,vts_reward_expectancy_bt,2022.2.4,Win32,60.92731371,Chrome,1440,960,,,,,0,630,,,,,,,,,,,,,,,,,Y,174,circle,1,0,,,2,,,,,,,,,,,,,repeat,number,numRpt,k,0.6312,vtsPrac,11,0,11,0,1,,,,,,,,,,,,,,,,,,,,,,,
294934,2022-11-22_24h31.26.439,vts_reward_expectancy_bt,2022.2.4,Win32,60.92731371,Chrome,1440,960,,,,,0,630,,,,,,,,,,,,,,,,,W,125,circle,1,0,,,2,,,,,,,,,,,,,repeat,number,numRpt,j,0.486,vtsPrac,12,0,12,0,1,,,,,,,,,,,,,,,,,,,,,,,
294934,2022-11-22_24h31.26.439,vts_reward_expectancy_bt,2022.2.4,Win32,60.92731371,Chrome,1440,960,,,,,0,630,,,,,,,,,,,,,,,,,D,160,star,1,0,,,2,,,,,,,,,,,,,switch,letter,lettSwt,d,0.8646,vtsPrac,13,0,13,0,1,,,,,,,,,,,,,,,,,,,,,,,
294934,2022-11-22_24h31.26.439,vts_reward_expectancy_bt,2022.2.4,Win32,60.92731371,Chrome,1440,960,,,,,0,630,,,,,,,,,,,,,,,,,F,167,star,1,0,,,2,,,,,,,,,,,,,repeat,letter,lettRpt,d,0.6485,vtsPrac,14,0,14,0,1,,,,,,,,,,,,,,,,,,,,,,,
294934,2022-11-22_24h31.26.439,vts_reward_expectancy_bt,2022.2.4,Win32,60.92731371,Chrome,1440,960,,,,,0,630,,,,,,,,,,,,,,,,,S,139,triangle,1,0,,,2,,,,,,,,,,,,,repeat,letter,lettRpt,f,0.578,vtsPrac,15,0,15,0,1,,,,,,,,,,,,,,,,,,,,,,,
294934,2022-11-22_24h31.26.439,vts_reward_expectancy_bt,2022.2.4,Win32,60.92731371,Chrome,1440,960,,,,,0,630,,,,,,,,,,,,,,,,,H,167,circle,1,0,,,2,,,,,,,,,,,,,repeat,letter,lettRpt,d,0.7008,vtsPrac,16,0,16,0,1,,,,,,,,,,,,,,,,,,,,,,,
294934,2022-11-22_24h31.26.439,vts_reward_expectancy_bt,2022.2.4,Win32,60.92731371,Chrome,1440,960,,,,,0,630,,,,,,,,,,,,,,,,,U,160,star,1,0,,,2,,,,,,,,,,,,,repeat,letter,lettRpt,f,0.8646,vtsPrac,17,0,17,0,1,,,,,,,,,,,,,,,,,,,,,,,
294934,2022-11-22_24h31.26.439,vts_reward_expectancy_bt,2022.2.4,Win32,60.92731371,Chrome,1440,960,,,,,0,630,,,,,,,,,,,,,,,,,F,125,circle,1,0,,,2,,,,,,,,,,,,,switch,number,numSwt,j,0.4972,vtsPrac,18,0,18,0,1,,,,,,,,,,,,,,,,,,,,,,,
294934,2022-11-22_24h31.26.439,vts_reward_expectancy_bt,2022.2.4,Win32,60.92731371,Chrome,1440,960,,,,,0,630,,,,,,,,,,,,,,,,,Y,174,hexagon,1,0,,,2,,,,,,,,,,,,,repeat,number,numRpt,k,0.5489,vtsPrac,19,0,19,0,1,,,,,,,,,,,,,,,,,,,,,,,
294934,2022-11-22_24h31.26.439,vts_reward_expectancy_bt,2022.2.4,Win32,60.92731371,Chrome,1440,960,,,,,0,630,,,,,,,,,,,,,,,,,Y,125,triangle,1,0,,,2,,,,,,,,,,,,,repeat,number,numRpt,j,0.503,vtsPrac,20,0,20,0,1,,,,,,,,,,,,,,,,,,,,,,,
294934,2022-11-22_24h31.26.439,vts_reward_expectancy_bt,2022.2.4,Win32,60.92731371,Chrome,1440,960,,,,,0,630,,,,,,,,,,,,,,,,,H,146,circle,1,0,,,2,,,,,,,,,,,,,repeat,number,numRpt,j,0.5631,vtsPrac,21,0,21,0,1,,,,,,,,,,,,,,,,,,,,,,,
294934,2022-11-22_24h31.26.439,vts_reward_expectancy_bt,2022.2.4,Win32,60.92731371,Chrome,1440,960,,,,,0,630,,,,,,,,,,,,,,,,,S,174,star,1,0,,,2,,,,,,,,,,,,,repeat,number,numRpt,k,0.6178,vtsPrac,22,0,22,0,1,,,,,,,,,,,,,,,,,,,,,,,
294934,2022-11-22_24h31.26.439,vts_reward_expectancy_bt,2022.2.4,Win32,60.92731371,Chrome,1440,960,,,,,0,630,,,,,,,,,,,,,,,,,D,139,triangle,1,0,,,2,,,,,,,,,,,,,repeat,number,numRpt,j,1.3124,vtsPrac,23,0,23,0,1,,,,,,,,,,,,,,,,,,,,,,,
294934,2022-11-22_24h31.26.439,vts_reward_expectancy_bt,2022.2.4,Win32,60.92731371,Chrome,1440,960,,,,,0,630,,,,,,,,,,,,,,,,,S,160,star,1,0,,,2,,,,,,,,,,,,,repeat,number,numRpt,k,0.7658,vtsPrac,24,0,24,0,1,,,,,,,,,,,,,,,,,,,,,,,
294934,2022-11-22_24h31.26.439,vts_reward_expectancy_bt,2022.2.4,Win32,60.92731371,Chrome,1440,960,,,,,0,630,,,,,,,,,,,,,,,,,W,139,circle,1,0,,,2,,,,,,,,,,,,,switch,letter,lettSwt,f,0.5652,vtsPrac,25,0,25,0,1,,,,,,,,,,,,,,,,,,,,,,,
294934,2022-11-22_24h31.26.439,vts_reward_expectancy_bt,2022.2.4,Win32,60.92731371,Chrome,1440,960,,,,,0,630,,,,,,,,,,,,,,,,,Y,132,star,1,0,,,2,,,,,,,,,,,,,repeat,letter,lettRpt,f,1.1648,vtsPrac,26,0,26,0,1,,,,,,,,,,,,,,,,,,,,,,,
294934,2022-11-22_24h31.26.439,vts_reward_expectancy_bt,2022.2.4,Win32,60.92731371,Chrome,1440,960,,,,,0,630,,,,,,,,,,,,,,,,,D,167,circle,1,0,,,2,,,,,,,,,,,,,repeat,letter,lettRpt,d,0.9991,vtsPrac,27,0,27,0,1,,,,,,,,,,,,,,,,,,,,,,,
294934,2022-11-22_24h31.26.439,vts_reward_expectancy_bt,2022.2.4,Win32,60.92731371,Chrome,1440,960,,,,,0,630,,,,,,,,,,,,,,,,,S,160,triangle,1,0,,,2,,,,,,,,,,,,,repeat,letter,lettRpt,f,0.9315,vtsPrac,28,0,28,0,1,,,,,,,,,,,,,,,,,,,,,,,
294934,2022-11-22_24h31.26.439,vts_reward_expectancy_bt,2022.2.4,Win32,60.92731371,Chrome,1440,960,,,,,0,630,,,,,,,,,,,,,,,,,U,146,star,1,0,,,2,,,,,,,,,,,,,repeat,letter,lettRpt,f,0.7637,vtsPrac,29,0,29,0,1,,,,,,,,,,,,,,,,,,,,,,,
294934,2022-11-22_24h31.26.439,vts_reward_expectancy_bt,2022.2.4,Win32,60.92731371,Chrome,1440,960,,,,,0,630,,,,,,,,,,,,,,,,,W,125,triangle,1,0,,,2,,,,,,,,,,,,,switch,number,numSwt,j,0.8166,vtsPrac,30,0,30,0,1,,,,,,,,,,,,,,,,,,,,,,,
294934,2022-11-22_24h31.26.439,vts_reward_expectancy_bt,2022.2.4,Win32,60.92731371,Chrome,1440,960,,,,,0,630,,,,,,,,,,,,,,,,,H,167,circle,1,0,,,2,,,,,,,,,,,,,repeat,number,numRpt,k,1.1474,vtsPrac,31,0,31,0,1,,,,,,,,,,,,,,,,,,,,,,,
294934,2022-11-22_24h31.26.439,vts_reward_expectancy_bt,2022.2.4,Win32,60.92731371,Chrome,1440,960,,,,,0,630,,,,,,,,,,,,,,,,,Y,146,star,-1,0,,,3,,,,,,,,,,,,,switch,no_choice,NA,,,vtsPrac,0,0,0,0,1,,,,,,,,,,,,,,,,,,,,,,,
294934,2022-11-22_24h31.26.439,vts_reward_expectancy_bt,2022.2.4,Win32,60.92731371,Chrome,1440,960,,,,,0,630,,,,,,,,,,,,,,,,,D,167,circle,1,0,,,3,,,,,,,,,,,,,switch,letter,lettSwt,d,0.6726,vtsPrac,1,0,1,0,1,,,,,,,,,,,,,,,,,,,,,,,
294934,2022-11-22_24h31.26.439,vts_reward_expectancy_bt,2022.2.4,Win32,60.92731371,Chrome,1440,960,,,,,0,630,,,,,,,,,,,,,,,,,B,132,star,1,0,,,3,,,,,,,,,,,,,repeat,letter,lettRpt,d,0.6506,vtsPrac,2,0,2,0,1,,,,,,,,,,,,,,,,,,,,,,,
294934,2022-11-22_24h31.26.439,vts_reward_expectancy_bt,2022.2.4,Win32,60.92731371,Chrome,1440,960,,,,,0,630,,,,,,,,,,,,,,,,,W,174,circle,1,0,,,3,,,,,,,,,,,,,switch,number,numSwt,k,0.5856,vtsPrac,3,0,3,0,1,,,,,,,,,,,,,,,,,,,,,,,
294934,2022-11-22_24h31.26.439,vts_reward_expectancy_bt,2022.2.4,Win32,60.92731371,Chrome,1440,960,,,,,0,630,,,,,,,,,,,,,,,,,Y,146,hexagon,1,0,,,3,,,,,,,,,,,,,switch,letter,lettSwt,f,0.6171,vtsPrac,4,0,4,0,1,,,,,,,,,,,,,,,,,,,,,,,
294934,2022-11-22_24h31.26.439,vts_reward_expectancy_bt,2022.2.4,Win32,60.92731371,Chrome,1440,960,,,,,0,630,,,,,,,,,,,,,,,,,D,167,triangle,1,0,,,3,,,,,,,,,,,,,repeat,letter,lettRpt,d,0.6497,vtsPrac,5,0,5,0,1,,,,,,,,,,,,,,,,,,,,,,,
294934,2022-11-22_24h31.26.439,vts_reward_expectancy_bt,2022.2.4,Win32,60.92731371,Chrome,1440,960,,,,,0,630,,,,,,,,,,,,,,,,,B,132,triangle,1,0,,,3,,,,,,,,,,,,,repeat,letter,lettRpt,d,0.6184,vtsPrac,6,0,6,0,1,,,,,,,,,,,,,,,,,,,,,,,
294934,2022-11-22_24h31.26.439,vts_reward_expectancy_bt,2022.2.4,Win32,60.92731371,Chrome,1440,960,,,,,0,630,,,,,,,,,,,,,,,,,W,174,star,1,0,,,3,,,,,,,,,,,,,switch,number,numSwt,k,0.6506,vtsPrac,7,0,7,0,1,,,,,,,,,,,,,,,,,,,,,,,
294934,2022-11-22_24h31.26.439,vts_reward_expectancy_bt,2022.2.4,Win32,60.92731371,Chrome,1440,960,,,,,0,630,,,,,,,,,,,,,,,,,H,181,circle,1,0,,,3,,,,,,,,,,,,,repeat,number,numRpt,k,0.6031,vtsPrac,8,0,8,0,1,,,,,,,,,,,,,,,,,,,,,,,
294934,2022-11-22_24h31.26.439,vts_reward_expectancy_bt,2022.2.4,Win32,60.92731371,Chrome,1440,960,,,,,0,630,,,,,,,,,,,,,,,,,F,167,hexagon,1,0,,,3,,,,,,,,,,,,,switch,letter,lettSwt,d,0.5828,vtsPrac,9,0,9,0,1,,,,,,,,,,,,,,,,,,,,,,,
294934,2022-11-22_24h31.26.439,vts_reward_expectancy_bt,2022.2.4,Win32,60.92731371,Chrome,1440,960,,,,,0,630,,,,,,,,,,,,,,,,,W,132,circle,1,0,,,3,,,,,,,,,,,,,switch,number,numSwt,j,0.7664,vtsPrac,10,0,10,0,1,,,,,,,,,,,,,,,,,,,,,,,
294934,2022-11-22_24h31.26.439,vts_reward_expectancy_bt,2022.2.4,Win32,60.92731371,Chrome,1440,960,,,,,0,630,,,,,,,,,,,,,,,,,Y,139,hexagon,1,0,,,3,,,,,,,,,,,,,switch,letter,lettSwt,f,0.566,vtsPrac,11,0,11,0,1,,,,,,,,,,,,,,,,,,,,,,,
294934,2022-11-22_24h31.26.439,vts_reward_expectancy_bt,2022.2.4,Win32,60.92731371,Chrome,1440,960,,,,,0,630,,,,,,,,,,,,,,,,,W,146,circle,1,0,,,3,,,,,,,,,,,,,repeat,letter,lettRpt,f,0.7655,vtsPrac,12,0,12,0,1,,,,,,,,,,,,,,,,,,,,,,,
294934,2022-11-22_24h31.26.439,vts_reward_expectancy_bt,2022.2.4,Win32,60.92731371,Chrome,1440,960,,,,,0,630,,,,,,,,,,,,,,,,,D,181,star,1,0,,,3,,,,,,,,,,,,,repeat,letter,lettRpt,d,0.4555,vtsPrac,13,0,13,0,1,,,,,,,,,,,,,,,,,,,,,,,
294934,2022-11-22_24h31.26.439,vts_reward_expectancy_bt,2022.2.4,Win32,60.92731371,Chrome,1440,960,,,,,0,630,,,,,,,,,,,,,,,,,U,160,hexagon,1,0,,,3,,,,,,,,,,,,,switch,number,numSwt,k,0.8023,vtsPrac,14,0,14,0,1,,,,,,,,,,,,,,,,,,,,,,,
294934,2022-11-22_24h31.26.439,vts_reward_expectancy_bt,2022.2.4,Win32,60.92731371,Chrome,1440,960,,,,,0,630,,,,,,,,,,,,,,,,,H,167,triangle,1,0,,,3,,,,,,,,,,,,,switch,letter,lettSwt,d,0.7187,vtsPrac,15,0,15,0,1,,,,,,,,,,,,,,,,,,,,,,,
294934,2022-11-22_24h31.26.439,vts_reward_expectancy_bt,2022.2.4,Win32,60.92731371,Chrome,1440,960,,,,,0,630,,,,,,,,,,,,,,,,,H,125,circle,1,0,,,3,,,,,,,,,,,,,switch,number,numSwt,j,2.4663,vtsPrac,16,0,16,0,1,,,,,,,,,,,,,,,,,,,,,,,
294934,2022-11-22_24h31.26.439,vts_reward_expectancy_bt,2022.2.4,Win32,60.92731371,Chrome,1440,960,,,,,0,630,,,,,,,,,,,,,,,,,D,174,hexagon,0,0,,,3,,,,,,,,,,,,,repeat,number,NA,j,0.8496,vtsPrac,17,0,17,0,1,,,,,,,,,,,,,,,,,,,,,,,
294934,2022-11-22_24h31.26.439,vts_reward_expectancy_bt,2022.2.4,Win32,60.92731371,Chrome,1440,960,,,,,0,630,,,,,,,,,,,,,,,,,S,132,star,1,1,,,3,,,,,,,,,,,,,repeat,number,numRpt,j,2.7178,vtsPrac,18,0,18,0,1,,,,,,,,,,,,,,,,,,,,,,,
294934,2022-11-22_24h31.26.439,vts_reward_expectancy_bt,2022.2.4,Win32,60.92731371,Chrome,1440,960,,,,,0,630,,,,,,,,,,,,,,,,,U,167,hexagon,1,0,,,3,,,,,,,,,,,,,switch,letter,lettSwt,f,0.8894,vtsPrac,19,0,19,0,1,,,,,,,,,,,,,,,,,,,,,,,
294934,2022-11-22_24h31.26.439,vts_reward_expectancy_bt,2022.2.4,Win32,60.92731371,Chrome,1440,960,,,,,0,630,,,,,,,,,,,,,,,,,F,132,circle,1,0,,,3,,,,,,,,,,,,,switch,number,numSwt,j,1.2045,vtsPrac,20,0,20,0,1,,,,,,,,,,,,,,,,,,,,,,,
294934,2022-11-22_24h31.26.439,vts_reward_expectancy_bt,2022.2.4,Win32,60.92731371,Chrome,1440,960,,,,,0,630,,,,,,,,,,,,,,,,,D,181,star,1,0,,,3,,,,,,,,,,,,,repeat,number,numRpt,k,1.0652,vtsPrac,21,0,21,0,1,,,,,,,,,,,,,,,,,,,,,,,
294934,2022-11-22_24h31.26.439,vts_reward_expectancy_bt,2022.2.4,Win32,60.92731371,Chrome,1440,960,,,,,0,630,,,,,,,,,,,,,,,,,S,167,circle,1,0,,,3,,,,,,,,,,,,,switch,letter,lettSwt,f,0.6052,vtsPrac,22,0,22,0,1,,,,,,,,,,,,,,,,,,,,,,,
294934,2022-11-22_24h31.26.439,vts_reward_expectancy_bt,2022.2.4,Win32,60.92731371,Chrome,1440,960,,,,,0,630,,,,,,,,,,,,,,,,,B,146,hexagon,1,0,,,3,,,,,,,,,,,,,repeat,letter,lettRpt,d,1.0339,vtsPrac,23,0,23,0,1,,,,,,,,,,,,,,,,,,,,,,,
294934,2022-11-22_24h31.26.439,vts_reward_expectancy_bt,2022.2.4,Win32,60.92731371,Chrome,1440,960,,,,,0,630,,,,,,,,,,,,,,,,,B,125,circle,1,0,,,3,,,,,,,,,,,,,switch,number,numSwt,j,1.9832,vtsPrac,24,0,24,0,1,,,,,,,,,,,,,,,,,,,,,,,
294934,2022-11-22_24h31.26.439,vts_reward_expectancy_bt,2022.2.4,Win32,60.92731371,Chrome,1440,960,,,,,0,630,,,,,,,,,,,,,,,,,H,146,hexagon,1,0,,,3,,,,,,,,,,,,,repeat,number,numRpt,j,2.2814,vtsPrac,25,0,25,0,1,,,,,,,,,,,,,,,,,,,,,,,
294934,2022-11-22_24h31.26.439,vts_reward_expectancy_bt,2022.2.4,Win32,60.92731371,Chrome,1440,960,,,,,0,630,,,,,,,,,,,,,,,,,D,132,star,1,0,,,3,,,,,,,,,,,,,switch,letter,lettSwt,d,0.9527,vtsPrac,26,0,26,0,1,,,,,,,,,,,,,,,,,,,,,,,
294934,2022-11-22_24h31.26.439,vts_reward_expectancy_bt,2022.2.4,Win32,60.92731371,Chrome,1440,960,,,,,0,630,,,,,,,,,,,,,,,,,S,174,circle,1,0,,,3,,,,,,,,,,,,,switch,number,numSwt,k,1.2178,vtsPrac,27,0,27,0,1,,,,,,,,,,,,,,,,,,,,,,,
294934,2022-11-22_24h31.26.439,vts_reward_expectancy_bt,2022.2.4,Win32,60.92731371,Chrome,1440,960,,,,,0,630,,,,,,,,,,,,,,,,,U,139,circle,1,0,,,3,,,,,,,,,,,,,repeat,number,numRpt,j,1.1153,vtsPrac,28,0,28,0,1,,,,,,,,,,,,,,,,,,,,,,,
294934,2022-11-22_24h31.26.439,vts_reward_expectancy_bt,2022.2.4,Win32,60.92731371,Chrome,1440,960,,,,,0,630,,,,,,,,,,,,,,,,,B,146,star,1,0,,,3,,,,,,,,,,,,,switch,letter,lettSwt,d,0.9392,vtsPrac,29,0,29,0,1,,,,,,,,,,,,,,,,,,,,,,,
294934,2022-11-22_24h31.26.439,vts_reward_expectancy_bt,2022.2.4,Win32,60.92731371,Chrome,1440,960,,,,,0,630,,,,,,,,,,,,,,,,,F,181,star,1,0,,,3,,,,,,,,,,,,,repeat,letter,lettRpt,d,0.7155,vtsPrac,30,0,30,0,1,,,,,,,,,,,,,,,,,,,,,,,
294934,2022-11-22_24h31.26.439,vts_reward_expectancy_bt,2022.2.4,Win32,60.92731371,Chrome,1440,960,,,,,0,630,,,,,,,,,,,,,,,,,H,132,hexagon,1,0,,,3,,,,,,,,,,,,,switch,number,numSwt,j,1.9345,vtsPrac,31,0,31,0,1,,,,,,,,,,,,,,,,,,,,,,,
294934,2022-11-22_24h31.26.439,vts_reward_expectancy_bt,2022.2.4,Win32,60.92731371,Chrome,1440,960,,,,,,,,,,,,,,,,,,,,,,,,,,,,,,,,,,,,,,,,,,,,,,,,,,,,,,,,,,,,,,,,,,,,,,,,,,,,
294934,2022-11-22_24h31.26.439,vts_reward_expectancy_bt,2022.2.4,Win32,60.92731371,Chrome,1440,960,,,,,,,,,,,,,,,,,,,,,,,,,,,,,,,,,,,,,,,,,,,,,,,,,,,,,,,,,,,,,,,,,,,,,,,,,,,,
294934,2022-11-22_24h31.26.439,vts_reward_expectancy_bt,2022.2.4,Win32,60.92731371,Chrome,1440,960,,,,,0,630,,,,,,,,,,,,,,,,,Y,174,triangle,1,0,,,,,,,,,,,,,,,,switch,letter,lettSwt,f,2.6989,noRew,,,,,,0,0,0,0,0,1,,,,,,,,,,,,,,,,,
294934,2022-11-22_24h31.26.439,vts_reward_expectancy_bt,2022.2.4,Win32,60.92731371,Chrome,1440,960,,,,,0,630,,,,,,,,,,,,,,,,,W,132,circle,1,0,,,,,,,,,,,,,,,,repeat,letter,lettRpt,f,0.6391,noRew,,,,,,0,1,0,1,0,1,,,,,,,,,,,,,,,,,
294934,2022-11-22_24h31.26.439,vts_reward_expectancy_bt,2022.2.4,Win32,60.92731371,Chrome,1440,960,,,,,0,630,,,,,,,,,,,,,,,,,F,125,triangle,1,0,,,,,,,,,,,,,,,,switch,number,numSwt,j,1.589,noRew,,,,,,0,2,0,2,0,1,,,,,,,,,,,,,,,,,
294934,2022-11-22_24h31.26.439,vts_reward_expectancy_bt,2022.2.4,Win32,60.92731371,Chrome,1440,960,,,,,0,630,,,,,,,,,,,,,,,,,S,146,circle,1,0,,,,,,,,,,,,,,,,repeat,number,numRpt,j,1.6684,noRew,,,,,,0,3,0,3,0,1,,,,,,,,,,,,,,,,,
294934,2022-11-22_24h31.26.439,vts_reward_expectancy_bt,2022.2.4,Win32,60.92731371,Chrome,1440,960,,,,,0,630,,,,,,,,,,,,,,,,,Y,174,circle,1,0,,,,,,,,,,,,,,,,repeat,number,numRpt,k,0.7686,noRew,,,,,,0,4,0,4,0,1,,,,,,,,,,,,,,,,,
294934,2022-11-22_24h31.26.439,vts_reward_expectancy_bt,2022.2.4,Win32,60.92731371,Chrome,1440,960,,,,,0,630,,,,,,,,,,,,,,,,,W,132,triangle,1,0,,,,,,,,,,,,,,,,repeat,number,numRpt,j,0.8075,noRew,,,,,,0,5,0,5,0,1,,,,,,,,,,,,,,,,,
294934,2022-11-22_24h31.26.439,vts_reward_expectancy_bt,2022.2.4,Win32,60.92731371,Chrome,1440,960,,,,,0,630,,,,,,,,,,,,,,,,,F,125,circle,1,0,,,,,,,,,,,,,,,,switch,letter,lettSwt,d,0.7988,noRew,,,,,,0,6,0,6,0,1,,,,,,,,,,,,,,,,,
294934,2022-11-22_24h31.26.439,vts_reward_expectancy_bt,2022.2.4,Win32,60.92731371,Chrome,1440,960,,,,,0,630,,,,,,,,,,,,,,,,,S,146,star,1,0,,,,,,,,,,,,,,,,switch,number,numSwt,j,0.6825,noRew,,,,,,0,7,0,7,0,1,,,,,,,,,,,,,,,,,
294934,2022-11-22_24h31.26.439,vts_reward_expectancy_bt,2022.2.4,Win32,60.92731371,Chrome,1440,960,,,,,0,630,,,,,,,,,,,,,,,,,D,160,star,1,0,,,,,,,,,,,,,,,,repeat,number,numRpt,k,0.5992,noRew,,,,,,0,8,0,8,0,1,,,,,,,,,,,,,,,,,
294934,2022-11-22_24h31.26.439,vts_reward_expectancy_bt,2022.2.4,Win32,60.92731371,Chrome,1440,960,,,,,0,630,,,,,,,,,,,,,,,,,B,139,triangle,1,0,,,,,,,,,,,,,,,,repeat,number,numRpt,j,1.0173,noRew,,,,,,0,9,0,9,0,1,,,,,,,,,,,,,,,,,
294934,2022-11-22_24h31.26.439,vts_reward_expectancy_bt,2022.2.4,Win32,60.92731371,Chrome,1440,960,,,,,0,630,,,,,,,,,,,,,,,,,S,181,star,1,0,,,,,,,,,,,,,,,,switch,letter,lettSwt,f,0.886,noRew,,,,,,0,10,0,10,0,1,,,,,,,,,,,,,,,,,
294934,2022-11-22_24h31.26.439,vts_reward_expectancy_bt,2022.2.4,Win32,60.92731371,Chrome,1440,960,,,,,0,630,,,,,,,,,,,,,,,,,H,174,hexagon,1,0,,,,,,,,,,,,,,,,repeat,letter,lettRpt,d,0.6523,noRew,,,,,,0,11,0,11,0,1,,,,,,,,,,,,,,,,,
294934,2022-11-22_24h31.26.439,vts_reward_expectancy_bt,2022.2.4,Win32,60.92731371,Chrome,1440,960,,,,,0,630,,,,,,,,,,,,,,,,,W,146,hexagon,1,0,,,,,,,,,,,,,,,,switch,number,numSwt,j,0.8495,noRew,,,,,,0,12,0,12,0,1,,,,,,,,,,,,,,,,,
294934,2022-11-22_24h31.26.439,vts_reward_expectancy_bt,2022.2.4,Win32,60.92731371,Chrome,1440,960,,,,,0,630,,,,,,,,,,,,,,,,,S,132,star,1,0,,,,,,,,,,,,,,,,repeat,number,numRpt,j,0.8043,noRew,,,,,,0,13,0,13,0,1,,,,,,,,,,,,,,,,,
294934,2022-11-22_24h31.26.439,vts_reward_expectancy_bt,2022.2.4,Win32,60.92731371,Chrome,1440,960,,,,,0,630,,,,,,,,,,,,,,,,,B,139,hexagon,1,0,,,,,,,,,,,,,,,,switch,letter,lettSwt,d,0.7828,noRew,,,,,,0,14,0,14,0,1,,,,,,,,,,,,,,,,,
294934,2022-11-22_24h31.26.439,vts_reward_expectancy_bt,2022.2.4,Win32,60.92731371,Chrome,1440,960,,,,,0,630,,,,,,,,,,,,,,,,,Y,125,star,1,0,,,,,,,,,,,,,,,,repeat,letter,lettRpt,f,0.8214,noRew,,,,,,0,15,0,15,0,1,,,,,,,,,,,,,,,,,
294934,2022-11-22_24h31.26.439,vts_reward_expectancy_bt,2022.2.4,Win32,60.92731371,Chrome,1440,960,,,,,0,630,,,,,,,,,,,,,,,,,F,167,triangle,1,0,,,,,,,,,,,,,,,,repeat,letter,lettRpt,d,0.7661,noRew,,,,,,0,16,0,16,0,1,,,,,,,,,,,,,,,,,
294934,2022-11-22_24h31.26.439,vts_reward_expectancy_bt,2022.2.4,Win32,60.92731371,Chrome,1440,960,,,,,0,630,,,,,,,,,,,,,,,,,H,132,circle,1,0,,,,,,,,,,,,,,,,switch,number,numSwt,j,0.7495,noRew,,,,,,0,17,0,17,0,1,,,,,,,,,,,,,,,,,
294934,2022-11-22_24h31.26.439,vts_reward_expectancy_bt,2022.2.4,Win32,60.92731371,Chrome,1440,960,,,,,0,630,,,,,,,,,,,,,,,,,S,139,hexagon,1,0,,,,,,,,,,,,,,,,switch,letter,lettSwt,f,0.6853,noRew,,,,,,0,18,0,18,0,1,,,,,,,,,,,,,,,,,
294934,2022-11-22_24h31.26.439,vts_reward_expectancy_bt,2022.2.4,Win32,60.92731371,Chrome,1440,960,,,,,0,630,,,,,,,,,,,,,,,,,W,125,triangle,1,0,,,,,,,,,,,,,,,,repeat,letter,lettRpt,f,0.8907,noRew,,,,,,0,19,0,19,0,1,,,,,,,,,,,,,,,,,
294934,2022-11-22_24h31.26.439,vts_reward_expectancy_bt,2022.2.4,Win32,60.92731371,Chrome,1440,960,,,,,0,630,,,,,,,,,,,,,,,,,U,132,star,1,0,,,,,,,,,,,,,,,,switch,number,numSwt,j,1.2985,noRew,,,,,,0,20,0,20,0,1,,,,,,,,,,,,,,,,,
294934,2022-11-22_24h31.26.439,vts_reward_expectancy_bt,2022.2.4,Win32,60.92731371,Chrome,1440,960,,,,,0,630,,,,,,,,,,,,,,,,,H,181,triangle,1,0,,,,,,,,,,,,,,,,switch,letter,lettSwt,d,0.9331,noRew,,,,,,0,21,0,21,0,1,,,,,,,,,,,,,,,,,
294934,2022-11-22_24h31.26.439,vts_reward_expectancy_bt,2022.2.4,Win32,60.92731371,Chrome,1440,960,,,,,0,630,,,,,,,,,,,,,,,,,Y,174,hexagon,1,0,,,,,,,,,,,,,,,,switch,number,numSwt,k,1.316,noRew,,,,,,0,22,0,22,0,1,,,,,,,,,,,,,,,,,
294934,2022-11-22_24h31.26.439,vts_reward_expectancy_bt,2022.2.4,Win32,60.92731371,Chrome,1440,960,,,,,0,630,,,,,,,,,,,,,,,,,B,125,triangle,1,0,,,,,,,,,,,,,,,,repeat,number,numRpt,j,0.7664,noRew,,,,,,0,23,0,23,0,1,,,,,,,,,,,,,,,,,
294934,2022-11-22_24h31.26.439,vts_reward_expectancy_bt,2022.2.4,Win32,60.92731371,Chrome,1440,960,,,,,0,630,,,,,,,,,,,,,,,,,Y,139,circle,1,0,,,,,,,,,,,,,,,,repeat,number,numRpt,j,0.5827,noRew,,,,,,0,24,0,24,0,1,,,,,,,,,,,,,,,,,
294934,2022-11-22_24h31.26.439,vts_reward_expectancy_bt,2022.2.4,Win32,60.92731371,Chrome,1440,960,,,,,0,630,,,,,,,,,,,,,,,,,S,181,star,1,0,,,,,,,,,,,,,,,,repeat,number,numRpt,k,0.9833,noRew,,,,,,0,25,0,25,0,1,,,,,,,,,,,,,,,,,
294934,2022-11-22_24h31.26.439,vts_reward_expectancy_bt,2022.2.4,Win32,60.92731371,Chrome,1440,960,,,,,0,630,,,,,,,,,,,,,,,,,D,174,circle,0,0,,,,,,,,,,,,,,,,switch,letter,NA,f,0.9332,noRew,,,,,,0,26,0,26,0,1,,,,,,,,,,,,,,,,,
294934,2022-11-22_24h31.26.439,vts_reward_expectancy_bt,2022.2.4,Win32,60.92731371,Chrome,1440,960,,,,,0,630,,,,,,,,,,,,,,,,,W,132,star,1,1,,,,,,,,,,,,,,,,repeat,letter,lettRpt,f,0.8655,noRew,,,,,,0,27,0,27,0,1,,,,,,,,,,,,,,,,,
294934,2022-11-22_24h31.26.439,vts_reward_expectancy_bt,2022.2.4,Win32,60.92731371,Chrome,1440,960,,,,,0,630,,,,,,,,,,,,,,,,,Y,181,circle,1,0,,,,,,,,,,,,,,,,switch,number,numSwt,k,0.599,noRew,,,,,,0,28,0,28,0,1,,,,,,,,,,,,,,,,,
294934,2022-11-22_24h31.26.439,vts_reward_expectancy_bt,2022.2.4,Win32,60.92731371,Chrome,1440,960,,,,,0,630,,,,,,,,,,,,,,,,,U,146,triangle,0,0,,,,,,,,,,,,,,,,switch,letter,NA,d,1.0827,noRew,,,,,,0,29,0,29,0,1,,,,,,,,,,,,,,,,,
294934,2022-11-22_24h31.26.439,vts_reward_expectancy_bt,2022.2.4,Win32,60.92731371,Chrome,1440,960,,,,,0,630,,,,,,,,,,,,,,,,,S,160,triangle,1,1,,,,,,,,,,,,,,,,repeat,letter,lettRpt,f,0.8834,noRew,,,,,,0,30,0,30,0,1,,,,,,,,,,,,,,,,,
294934,2022-11-22_24h31.26.439,vts_reward_expectancy_bt,2022.2.4,Win32,60.92731371,Chrome,1440,960,,,,,0,630,,,,,,,,,,,,,,,,,D,139,star,1,0,,,,,,,,,,,,,,,,switch,number,numSwt,j,0.6183,noRew,,,,,,0,31,0,31,0,1,,,,,,,,,,,,,,,,,
294934,2022-11-22_24h31.26.439,vts_reward_expectancy_bt,2022.2.4,Win32,60.92731371,Chrome,1440,960,,,,,0,630,,,,,,,,,,,,,,,,,D,132,hexagon,1,0,,,,,,,,,,,,,,,,switch,letter,lettSwt,d,0.8992,noRew,,,,,,0,32,0,32,0,1,,,,,,,,,,,,,,,,,
294934,2022-11-22_24h31.26.439,vts_reward_expectancy_bt,2022.2.4,Win32,60.92731371,Chrome,1440,960,,,,,0,630,,,,,,,,,,,,,,,,,F,160,triangle,1,0,,,,,,,,,,,,,,,,repeat,letter,lettRpt,d,0.7887,noRew,,,,,,0,33,0,33,0,1,,,,,,,,,,,,,,,,,
294934,2022-11-22_24h31.26.439,vts_reward_expectancy_bt,2022.2.4,Win32,60.92731371,Chrome,1440,960,,,,,0,630,,,,,,,,,,,,,,,,,Y,181,star,1,0,,,,,,,,,,,,,,,,switch,number,numSwt,k,0.6569,noRew,,,,,,0,34,0,34,0,1,,,,,,,,,,,,,,,,,
294934,2022-11-22_24h31.26.439,vts_reward_expectancy_bt,2022.2.4,Win32,60.92731371,Chrome,1440,960,,,,,0,630,,,,,,,,,,,,,,,,,H,146,hexagon,1,0,,,,,,,,,,,,,,,,repeat,number,numRpt,j,1.1488,noRew,,,,,,0,35,0,35,0,1,,,,,,,,,,,,,,,,,
294934,2022-11-22_24h31.26.439,vts_reward_expectancy_bt,2022.2.4,Win32,60.92731371,Chrome,1440,960,,,,,0,630,,,,,,,,,,,,,,,,,B,174,hexagon,1,0,,,,,,,,,,,,,,,,repeat,number,numRpt,k,1.0057,noRew,,,,,,0,36,0,36,0,1,,,,,,,,,,,,,,,,,
294934,2022-11-22_24h31.26.439,vts_reward_expectancy_bt,2022.2.4,Win32,60.92731371,Chrome,1440,960,,,,,0,630,,,,,,,,,,,,,,,,,S,125,triangle,1,0,,,,,,,,,,,,,,,,switch,letter,lettSwt,f,0.9533,noRew,,,,,,0,37,0,37,0,1,,,,,,,,,,,,,,,,,
294934,2022-11-22_24h31.26.439,vts_reward_expectancy_bt,2022.2.4,Win32,60.92731371,Chrome,1440,960,,,,,0,630,,,,,,,,,,,,,,,,,U,160,star,1,0,,,,,,,,,,,,,,,,repeat,letter,lettRpt,f,1.0543,noRew,,,,,,0,38,0,38,0,1,,,,,,,,,,,,,,,,,
294934,2022-11-22_24h31.26.439,vts_reward_expectancy_bt,2022.2.4,Win32,60.92731371,Chrome,1440,960,,,,,0,630,,,,,,,,,,,,,,,,,F,181,triangle,1,0,,,,,,,,,,,,,,,,repeat,letter,lettRpt,d,0.8318,noRew,,,,,,0,39,0,39,0,1,,,,,,,,,,,,,,,,,
294934,2022-11-22_24h31.26.439,vts_reward_expectancy_bt,2022.2.4,Win32,60.92731371,Chrome,1440,960,,,,,0,630,,,,,,,,,,,,,,,,,Y,160,hexagon,1,0,,,,,,,,,,,,,,,,repeat,letter,lettRpt,f,0.6997,noRew,,,,,,0,40,0,40,0,1,,,,,,,,,,,,,,,,,
294934,2022-11-22_24h31.26.439,vts_reward_expectancy_bt,2022.2.4,Win32,60.92731371,Chrome,1440,960,,,,,0,630,,,,,,,,,,,,,,,,,U,139,triangle,1,0,,,,,,,,,,,,,,,,repeat,letter,lettRpt,f,1.0383,noRew,,,,,,0,41,0,41,0,1,,,,,,,,,,,,,,,,,
294934,2022-11-22_24h31.26.439,vts_reward_expectancy_bt,2022.2.4,Win32,60.92731371,Chrome,1440,960,,,,,0,630,,,,,,,,,,,,,,,,,W,167,hexagon,1,0,,,,,,,,,,,,,,,,switch,number,numSwt,k,1.3059,noRew,,,,,,0,42,0,42,0,1,,,,,,,,,,,,,,,,,
294934,2022-11-22_24h31.26.439,vts_reward_expectancy_bt,2022.2.4,Win32,60.92731371,Chrome,1440,960,,,,,0,630,,,,,,,,,,,,,,,,,F,125,triangle,1,0,,,,,,,,,,,,,,,,repeat,number,numRpt,j,0.8991,noRew,,,,,,0,43,0,43,0,1,,,,,,,,,,,,,,,,,
294934,2022-11-22_24h31.26.439,vts_reward_expectancy_bt,2022.2.4,Win32,60.92731371,Chrome,1440,960,,,,,0,630,,,,,,,,,,,,,,,,,D,132,star,1,0,,,,,,,,,,,,,,,,repeat,number,numRpt,j,0.8003,noRew,,,,,,0,44,0,44,0,1,,,,,,,,,,,,,,,,,
294934,2022-11-22_24h31.26.439,vts_reward_expectancy_bt,2022.2.4,Win32,60.92731371,Chrome,1440,960,,,,,0,630,,,,,,,,,,,,,,,,,S,181,hexagon,1,0,,,,,,,,,,,,,,,,switch,letter,lettSwt,f,0.9463,noRew,,,,,,0,45,0,45,0,1,,,,,,,,,,,,,,,,,
294934,2022-11-22_24h31.26.439,vts_reward_expectancy_bt,2022.2.4,Win32,60.92731371,Chrome,1440,960,,,,,0,630,,,,,,,,,,,,,,,,,H,146,star,1,0,,,,,,,,,,,,,,,,repeat,letter,lettRpt,d,0.8153,noRew,,,,,,0,46,0,46,0,1,,,,,,,,,,,,,,,,,
294934,2022-11-22_24h31.26.439,vts_reward_expectancy_bt,2022.2.4,Win32,60.92731371,Chrome,1440,960,,,,,0,630,,,,,,,,,,,,,,,,,Y,160,triangle,1,0,,,,,,,,,,,,,,,,repeat,letter,lettRpt,f,1.1535,noRew,,,,,,0,47,0,47,0,1,,,,,,,,,,,,,,,,,
294934,2022-11-22_24h31.26.439,vts_reward_expectancy_bt,2022.2.4,Win32,60.92731371,Chrome,1440,960,,,,,0,630,,,,,,,,,,,,,,,,,D,146,circle,1,0,,,,,,,,,,,,,,,,switch,number,numSwt,j,1.6207,noRew,,,,,,0,48,0,48,0,1,,,,,,,,,,,,,,,,,
294934,2022-11-22_24h31.26.439,vts_reward_expectancy_bt,2022.2.4,Win32,60.92731371,Chrome,1440,960,,,,,0,630,,,,,,,,,,,,,,,,,F,160,triangle,1,0,,,,,,,,,,,,,,,,repeat,number,numRpt,k,0.7817,noRew,,,,,,0,49,0,49,0,1,,,,,,,,,,,,,,,,,
294934,2022-11-22_24h31.26.439,vts_reward_expectancy_bt,2022.2.4,Win32,60.92731371,Chrome,1440,960,,,,,0,630,,,,,,,,,,,,,,,,,H,125,circle,1,0,,,,,,,,,,,,,,,,repeat,number,numRpt,j,0.6666,noRew,,,,,,0,50,0,50,0,1,,,,,,,,,,,,,,,,,
294934,2022-11-22_24h31.26.439,vts_reward_expectancy_bt,2022.2.4,Win32,60.92731371,Chrome,1440,960,,,,,0,630,,,,,,,,,,,,,,,,,U,181,hexagon,1,0,,,,,,,,,,,,,,,,switch,letter,lettSwt,f,1.5496,noRew,,,,,,0,51,0,51,0,1,,,,,,,,,,,,,,,,,
294934,2022-11-22_24h31.26.439,vts_reward_expectancy_bt,2022.2.4,Win32,60.92731371,Chrome,1440,960,,,,,0,630,,,,,,,,,,,,,,,,,H,125,star,1,0,,,,,,,,,,,,,,,,repeat,letter,lettRpt,d,2.738,noRew,,,,,,0,52,0,52,0,1,,,,,,,,,,,,,,,,,
294934,2022-11-22_24h31.26.439,vts_reward_expectancy_bt,2022.2.4,Win32,60.92731371,Chrome,1440,960,,,,,0,630,,,,,,,,,,,,,,,,,U,181,circle,1,0,,,,,,,,,,,,,,,,repeat,letter,lettRpt,f,1.0984,noRew,,,,,,0,53,0,53,0,1,,,,,,,,,,,,,,,,,
294934,2022-11-22_24h31.26.439,vts_reward_expectancy_bt,2022.2.4,Win32,60.92731371,Chrome,1440,960,,,,,0,630,,,,,,,,,,,,,,,,,B,167,hexagon,0,0,,,,,,,,,,,,,,,,switch,number,NA,j,0.8666,noRew,,,,,,0,54,0,54,0,1,,,,,,,,,,,,,,,,,
294934,2022-11-22_24h31.26.439,vts_reward_expectancy_bt,2022.2.4,Win32,60.92731371,Chrome,1440,960,,,,,0,630,,,,,,,,,,,,,,,,,F,160,circle,1,1,,,,,,,,,,,,,,,,repeat,number,numRpt,k,0.9996,noRew,,,,,,0,55,0,55,0,1,,,,,,,,,,,,,,,,,
294934,2022-11-22_24h31.26.439,vts_reward_expectancy_bt,2022.2.4,Win32,60.92731371,Chrome,1440,960,,,,,0,630,,,,,,,,,,,,,,,,,B,132,triangle,1,0,,,,,,,,,,,,,,,,switch,letter,lettSwt,d,1.4215,noRew,,,,,,0,56,0,56,0,1,,,,,,,,,,,,,,,,,
294934,2022-11-22_24h31.26.439,vts_reward_expectancy_bt,2022.2.4,Win32,60.92731371,Chrome,1440,960,,,,,0,630,,,,,,,,,,,,,,,,,S,181,star,1,0,,,,,,,,,,,,,,,,switch,number,numSwt,k,1.233,noRew,,,,,,0,57,0,57,0,1,,,,,,,,,,,,,,,,,
294934,2022-11-22_24h31.26.439,vts_reward_expectancy_bt,2022.2.4,Win32,60.92731371,Chrome,1440,960,,,,,0,630,,,,,,,,,,,,,,,,,D,139,triangle,1,0,,,,,,,,,,,,,,,,repeat,number,numRpt,j,0.7676,noRew,,,,,,0,58,0,58,0,1,,,,,,,,,,,,,,,,,
294934,2022-11-22_24h31.26.439,vts_reward_expectancy_bt,2022.2.4,Win32,60.92731371,Chrome,1440,960,,,,,0,630,,,,,,,,,,,,,,,,,H,146,hexagon,1,0,,,,,,,,,,,,,,,,repeat,number,numRpt,j,0.9007,noRew,,,,,,0,59,0,59,0,1,,,,,,,,,,,,,,,,,
294934,2022-11-22_24h31.26.439,vts_reward_expectancy_bt,2022.2.4,Win32,60.92731371,Chrome,1440,960,,,,,0,630,,,,,,,,,,,,,,,,,H,174,circle,1,0,,,,,,,,,,,,,,,,repeat,number,numRpt,k,0.7493,noRew,,,,,,0,60,0,60,0,1,,,,,,,,,,,,,,,,,
294934,2022-11-22_24h31.26.439,vts_reward_expectancy_bt,2022.2.4,Win32,60.92731371,Chrome,1440,960,,,,,0,630,,,,,,,,,,,,,,,,,D,125,star,1,0,,,,,,,,,,,,,,,,switch,letter,lettSwt,d,0.7503,noRew,,,,,,0,61,0,61,0,1,,,,,,,,,,,,,,,,,
294934,2022-11-22_24h31.26.439,vts_reward_expectancy_bt,2022.2.4,Win32,60.92731371,Chrome,1440,960,,,,,0,630,,,,,,,,,,,,,,,,,U,146,hexagon,1,0,,,,,,,,,,,,,,,,repeat,letter,lettRpt,f,1.0165,noRew,,,,,,0,62,0,62,0,1,,,,,,,,,,,,,,,,,
294934,2022-11-22_24h31.26.439,vts_reward_expectancy_bt,2022.2.4,Win32,60.92731371,Chrome,1440,960,,,,,0,630,,,,,,,,,,,,,,,,,S,160,circle,1,0,,,,,,,,,,,,,,,,switch,number,numSwt,k,1.3667,noRew,,,,,,0,63,0,63,0,1,,,,,,,,,,,,,,,,,
294934,2022-11-22_24h31.26.439,vts_reward_expectancy_bt,2022.2.4,Win32,60.92731371,Chrome,1440,960,,,,,,,,,,,,,,,,,,,,,,,,,,,,,,,,,,,,,,,,,,,,,,,,,,,,,,,,,,,,,,,,,,,,,,,,,,,,
294934,2022-11-22_24h31.26.439,vts_reward_expectancy_bt,2022.2.4,Win32,60.92731371,Chrome,1440,960,,,,,0,630,,,,,,,,,,,,,,,,,F,160,star,1,0,,,,,,,,,,,,,,,,switch,letter,lettSwt,d,0.9336,Hi,,,,,,0,,,,,,space,4.9555,low,0,0,0,0,1,,,,,,,,,
294934,2022-11-22_24h31.26.439,vts_reward_expectancy_bt,2022.2.4,Win32,60.92731371,Chrome,1440,960,,,,,1,631,,,,,,,,,,,,,,,,,Y,139,hexagon,1,0,,,,,,,,,,,,,,,,repeat,letter,lettRpt,f,0.5037,Lo,,,,,,0,,,,,,,,low,1,0,1,0,1,,,,,,,,,
294934,2022-11-22_24h31.26.439,vts_reward_expectancy_bt,2022.2.4,Win32,60.92731371,Chrome,1440,960,,,,,10,641,,,,,,,,,,,,,,,,,B,181,triangle,1,0,,,,,,,,,,,,,,,,repeat,letter,lettRpt,d,0.517,Lo,,,,,,0,,,,,,,,low,2,0,2,0,1,,,,,,,,,
294934,2022-11-22_24h31.26.439,vts_reward_expectancy_bt,2022.2.4,Win32,60.92731371,Chrome,1440,960,,,,,10,651,,,,,,,,,,,,,,,,,D,125,circle,1,0,,,,,,,,,,,,,,,,repeat,letter,lettRpt,d,0.4973,Hi,,,,,,0,,,,,,,,low,3,0,3,0,1,,,,,,,,,
294934,2022-11-22_24h31.26.439,vts_reward_expectancy_bt,2022.2.4,Win32,60.92731371,Chrome,1440,960,,,,,0,651,,,,,,,,,,,,,,,,,H,146,star,0,0,,,,,,,,,,,,,,,,repeat,letter,NA,f,0.5135,Hi,,,,,,0,,,,,,,,low,4,0,4,0,1,,,,,,,,,
294934,2022-11-22_24h31.26.439,vts_reward_expectancy_bt,2022.2.4,Win32,60.92731371,Chrome,1440,960,,,,,10,661,,,,,,,,,,,,,,,,,U,132,hexagon,1,1,,,,,,,,,,,,,,,,repeat,letter,lettRpt,f,0.4664,Lo,,,,,,0,,,,,,,,low,5,0,5,0,1,,,,,,,,,
294934,2022-11-22_24h31.26.439,vts_reward_expectancy_bt,2022.2.4,Win32,60.92731371,Chrome,1440,960,,,,,0,661,,,,,,,,,,,,,,,,,W,174,triangle,0,0,,,,,,,,,,,,,,,,repeat,letter,NA,d,0.0528,Lo,,,,,,0,,,,,,,,low,6,0,6,0,1,,,,,,,,,
294934,2022-11-22_24h31.26.439,vts_reward_expectancy_bt,2022.2.4,Win32,60.92731371,Chrome,1440,960,,,,,0,661,,,,,,,,,,,,,,,,,S,167,circle,1,1,,,,,,,,,,,,,,,,repeat,letter,lettRpt,f,0.8522,Hi,,,,,,0,,,,,,,,low,7,0,7,0,1,,,,,,,,,
294934,2022-11-22_24h31.26.439,vts_reward_expectancy_bt,2022.2.4,Win32,60.92731371,Chrome,1440,960,,,,,1,662,,,,,,,,,,,,,,,,,F,160,star,1,0,,,,,,,,,,,,,,,,switch,number,numSwt,k,0.4812,Hi,,,,,,0,,,,,,,,low,8,0,8,0,1,,,,,,,,,
294934,2022-11-22_24h31.26.439,vts_reward_expectancy_bt,2022.2.4,Win32,60.92731371,Chrome,1440,960,,,,,10,672,,,,,,,,,,,,,,,,,Y,139,circle,1,0,,,,,,,,,,,,,,,,repeat,number,numRpt,j,0.4669,Hi,,,,,,0,,,,,,,,low,9,0,9,0,1,,,,,,,,,
294934,2022-11-22_24h31.26.439,vts_reward_expectancy_bt,2022.2.4,Win32,60.92731371,Chrome,1440,960,,,,,10,682,,,,,,,,,,,,,,,,,B,181,hexagon,1,0,,,,,,,,,,,,,,,,repeat,number,numRpt,k,0.5166,Lo,,,,,,0,,,,,,,,low,10,0,10,0,1,,,,,,,,,
294934,2022-11-22_24h31.26.439,vts_reward_expectancy_bt,2022.2.4,Win32,60.92731371,Chrome,1440,960,,,,,10,692,,,,,,,,,,,,,,,,,D,125,triangle,1,0,,,,,,,,,,,,,,,,switch,letter,lettSwt,d,0.4158,Lo,,,,,,0,,,,,,,,low,11,0,11,0,1,,,,,,,,,
294934,2022-11-22_24h31.26.439,vts_reward_expectancy_bt,2022.2.4,Win32,60.92731371,Chrome,1440,960,,,,,10,702,,,,,,,,,,,,,,,,,H,146,hexagon,1,0,,,,,,,,,,,,,,,,switch,number,numSwt,j,0.5801,Lo,,,,,,0,,,,,,,,low,12,0,12,0,1,,,,,,,,,
294934,2022-11-22_24h31.26.439,vts_reward_expectancy_bt,2022.2.4,Win32,60.92731371,Chrome,1440,960,,,,,10,712,,,,,,,,,,,,,,,,,U,132,triangle,1,0,,,,,,,,,,,,,,,,switch,letter,lettSwt,f,0.8485,Lo,,,,,,0,,,,,,,,low,13,0,13,0,1,,,,,,,,,
294934,2022-11-22_24h31.26.439,vts_reward_expectancy_bt,2022.2.4,Win32,60.92731371,Chrome,1440,960,,,,,10,722,,,,,,,,,,,,,,,,,W,174,star,1,0,,,,,,,,,,,,,,,,repeat,letter,lettRpt,f,0.5157,Hi,,,,,,0,,,,,,,,low,14,0,14,0,1,,,,,,,,,
294934,2022-11-22_24h31.26.439,vts_reward_expectancy_bt,2022.2.4,Win32,60.92731371,Chrome,1440,960,,,,,0,722,,,,,,,,,,,,,,,,,S,167,circle,0,0,,,,,,,,,,,,,,,,switch,number,NA,j,0.6848,Hi,,,,,,0,,,,,,,,low,15,0,15,0,1,,,,,,,,,
294934,2022-11-22_24h31.26.439,vts_reward_expectancy_bt,2022.2.4,Win32,60.92731371,Chrome,1440,960,,,,,10,732,,,,,,,,,,,,,,,,,H,146,circle,1,1,,,,,,,,,,,,,,,,switch,letter,lettSwt,d,0.649,Hi,,,,,,0,,,,,,,,low,16,0,16,0,1,,,,,,,,,
294934,2022-11-22_24h31.26.439,vts_reward_expectancy_bt,2022.2.4,Win32,60.92731371,Chrome,1440,960,,,,,1,733,,,,,,,,,,,,,,,,,S,160,triangle,1,0,,,,,,,,,,,,,,,,switch,number,numSwt,k,0.8499,Lo,,,,,,0,,,,,,,,low,17,0,17,0,1,,,,,,,,,
294934,2022-11-22_24h31.26.439,vts_reward_expectancy_bt,2022.2.4,Win32,60.92731371,Chrome,1440,960,,,,,10,743,,,,,,,,,,,,,,,,,Y,174,star,1,0,,,,,,,,,,,,,,,,repeat,number,numRpt,k,0.5655,Hi,,,,,,0,,,,,,,,low,18,0,18,0,1,,,,,,,,,
294934,2022-11-22_24h31.26.439,vts_reward_expectancy_bt,2022.2.4,Win32,60.92731371,Chrome,1440,960,,,,,10,753,,,,,,,,,,,,,,,,,D,139,hexagon,1,0,,,,,,,,,,,,,,,,repeat,number,numRpt,j,0.5964,Lo,,,,,,0,,,,,,,,low,19,0,19,0,1,,,,,,,,,
294934,2022-11-22_24h31.26.439,vts_reward_expectancy_bt,2022.2.4,Win32,60.92731371,Chrome,1440,960,,,,,10,763,,,,,,,,,,,,,,,,,W,181,circle,1,0,,,,,,,,,,,,,,,,repeat,number,numRpt,k,0.599,Hi,,,,,,0,,,,,,,,low,20,0,20,0,1,,,,,,,,,
294934,2022-11-22_24h31.26.439,vts_reward_expectancy_bt,2022.2.4,Win32,60.92731371,Chrome,1440,960,,,,,10,773,,,,,,,,,,,,,,,,,B,132,star,1,0,,,,,,,,,,,,,,,,repeat,number,numRpt,j,0.5998,Hi,,,,,,0,,,,,,,,low,21,0,21,0,1,,,,,,,,,
294934,2022-11-22_24h31.26.439,vts_reward_expectancy_bt,2022.2.4,Win32,60.92731371,Chrome,1440,960,,,,,1,774,,,,,,,,,,,,,,,,,U,167,hexagon,1,0,,,,,,,,,,,,,,,,switch,letter,lettSwt,f,0.0336,Lo,,,,,,0,,,,,,,,low,22,0,22,0,1,,,,,,,,,
294934,2022-11-22_24h31.26.439,vts_reward_expectancy_bt,2022.2.4,Win32,60.92731371,Chrome,1440,960,,,,,10,784,,,,,,,,,,,,,,,,,F,125,triangle,1,0,,,,,,,,,,,,,,,,repeat,letter,lettRpt,d,0.8315,Lo,,,,,,0,,,,,,,,low,23,0,23,0,1,,,,,,,,,
294934,2022-11-22_24h31.26.439,vts_reward_expectancy_bt,2022.2.4,Win32,60.92731371,Chrome,1440,960,,,,,10,794,,,,,,,,,,,,,,,,,F,167,star,1,0,,,,,,,,,,,,,,,,repeat,letter,lettRpt,d,0.8023,Hi,,,,,,0,,,,,,,,low,24,0,24,0,1,,,,,,,,,
294934,2022-11-22_24h31.26.439,vts_reward_expectancy_bt,2022.2.4,Win32,60.92731371,Chrome,1440,960,,,,,10,804,,,,,,,,,,,,,,,,,B,160,triangle,1,0,,,,,,,,,,,,,,,,repeat,letter,lettRpt,d,0.5003,Lo,,,,,,0,,,,,,,,low,25,0,25,0,1,,,,,,,,,
294934,2022-11-22_24h31.26.439,vts_reward_expectancy_bt,2022.2.4,Win32,60.92731371,Chrome,1440,960,,,,,1,805,,,,,,,,,,,,,,,,,S,139,hexagon,1,0,,,,,,,,,,,,,,,,switch,number,numSwt,j,0.7202,Lo,,,,,,0,,,,,,,,low,26,0,26,0,1,,,,,,,,,
294934,2022-11-22_24h31.26.439,vts_reward_expectancy_bt,2022.2.4,Win32,60.92731371,Chrome,1440,960,,,,,10,815,,,,,,,,,,,,,,,,,W,146,circle,1,0,,,,,,,,,,,,,,,,switch,letter,lettSwt,f,0.6661,Hi,,,,,,0,,,,,,,,low,27,0,27,0,1,,,,,,,,,
294934,2022-11-22_24h31.26.439,vts_reward_expectancy_bt,2022.2.4,Win32,60.92731371,Chrome,1440,960,,,,,1,816,,,,,,,,,,,,,,,,,U,174,triangle,1,0,,,,,,,,,,,,,,,,switch,number,numSwt,k,0.7652,Lo,,,,,,0,,,,,,,,low,28,0,28,0,1,,,,,,,,,
294934,2022-11-22_24h31.26.439,vts_reward_expectancy_bt,2022.2.4,Win32,60.92731371,Chrome,1440,960,,,,,10,826,,,,,,,,,,,,,,,,,D,125,hexagon,1,0,,,,,,,,,,,,,,,,switch,letter,lettSwt,d,0.8147,Lo,,,,,,0,,,,,,,,low,29,0,29,0,1,,,,,,,,,
294934,2022-11-22_24h31.26.439,vts_reward_expectancy_bt,2022.2.4,Win32,60.92731371,Chrome,1440,960,,,,,10,836,,,,,,,,,,,,,,,,,Y,132,star,1,0,,,,,,,,,,,,,,,,repeat,letter,lettRpt,f,0.5885,Hi,,,,,,0,,,,,,,,low,30,0,30,0,1,,,,,,,,,
294934,2022-11-22_24h31.26.439,vts_reward_expectancy_bt,2022.2.4,Win32,60.92731371,Chrome,1440,960,,,,,10,846,,,,,,,,,,,,,,,,,H,181,circle,1,0,,,,,,,,,,,,,,,,switch,number,numSwt,k,0.6534,Hi,,,,,,0,,,,,,,,low,31,0,31,0,1,,,,,,,,,
294934,2022-11-22_24h31.26.439,vts_reward_expectancy_bt,2022.2.4,Win32,60.92731371,Chrome,1440,960,,,,,1,847,,,,,,,,,,,,,,,,,B,181,star,1,0,,,,,,,,,,,,,,,,switch,letter,lettSwt,d,0.4677,Hi,,,,,,1,,,,,,space,1.5451,low,0,0,0,0,1,,,,,,,,,
294934,2022-11-22_24h31.26.439,vts_reward_expectancy_bt,2022.2.4,Win32,60.92731371,Chrome,1440,960,,,,,1,848,,,,,,,,,,,,,,,,,Y,160,hexagon,1,0,,,,,,,,,,,,,,,,repeat,letter,lettRpt,f,0.3996,Lo,,,,,,1,,,,,,,,low,1,0,1,0,1,,,,,,,,,
294934,2022-11-22_24h31.26.439,vts_reward_expectancy_bt,2022.2.4,Win32,60.92731371,Chrome,1440,960,,,,,0,848,,,,,,,,,,,,,,,,,H,132,triangle,0,0,,,,,,,,,,,,,,,,repeat,letter,NA,f,0.4403,Lo,,,,,,1,,,,,,,,low,2,0,2,0,1,,,,,,,,,
294934,2022-11-22_24h31.26.439,vts_reward_expectancy_bt,2022.2.4,Win32,60.92731371,Chrome,1440,960,,,,,1,849,,,,,,,,,,,,,,,,,W,125,circle,1,1,,,,,,,,,,,,,,,,switch,number,numSwt,j,0.4328,Hi,,,,,,1,,,,,,,,low,3,0,3,0,1,,,,,,,,,
294934,2022-11-22_24h31.26.439,vts_reward_expectancy_bt,2022.2.4,Win32,60.92731371,Chrome,1440,960,,,,,10,859,,,,,,,,,,,,,,,,,S,146,star,1,0,,,,,,,,,,,,,,,,switch,letter,lettSwt,f,0.57,Hi,,,,,,1,,,,,,,,low,4,0,4,0,1,,,,,,,,,
294934,2022-11-22_24h31.26.439,vts_reward_expectancy_bt,2022.2.4,Win32,60.92731371,Chrome,1440,960,,,,,1,860,,,,,,,,,,,,,,,,,D,139,hexagon,1,0,,,,,,,,,,,,,,,,switch,number,numSwt,j,0.7669,Lo,,,,,,1,,,,,,,,low,5,0,5,0,1,,,,,,,,,
294934,2022-11-22_24h31.26.439,vts_reward_expectancy_bt,2022.2.4,Win32,60.92731371,Chrome,1440,960,,,,,1,861,,,,,,,,,,,,,,,,,U,167,triangle,1,0,,,,,,,,,,,,,,,,repeat,number,numRpt,k,1.1144,Lo,,,,,,1,,,,,,,,low,6,0,6,0,1,,,,,,,,,
294934,2022-11-22_24h31.26.439,vts_reward_expectancy_bt,2022.2.4,Win32,60.92731371,Chrome,1440,960,,,,,1,862,,,,,,,,,,,,,,,,,F,174,circle,1,0,,,,,,,,,,,,,,,,switch,letter,lettSwt,d,0.5317,Hi,,,,,,1,,,,,,,,low,7,0,7,0,1,,,,,,,,,
294934,2022-11-22_24h31.26.439,vts_reward_expectancy_bt,2022.2.4,Win32,60.92731371,Chrome,1440,960,,,,,10,872,,,,,,,,,,,,,,,,,B,181,triangle,1,0,,,,,,,,,,,,,,,,repeat,letter,lettRpt,d,0.5966,Lo,,,,,,1,,,,,,,,low,8,0,8,0,1,,,,,,,,,
294934,2022-11-22_24h31.26.439,vts_reward_expectancy_bt,2022.2.4,Win32,60.92731371,Chrome,1440,960,,,,,10,882,,,,,,,,,,,,,,,,,Y,160,hexagon,1,0,,,,,,,,,,,,,,,,switch,number,numSwt,k,0.8996,Lo,,,,,,1,,,,,,,,low,9,0,9,0,1,,,,,,,,,
294934,2022-11-22_24h31.26.439,vts_reward_expectancy_bt,2022.2.4,Win32,60.92731371,Chrome,1440,960,,,,,1,883,,,,,,,,,,,,,,,,,H,132,circle,1,0,,,,,,,,,,,,,,,,switch,letter,lettSwt,d,0.5843,Hi,,,,,,1,,,,,,,,low,10,0,10,0,1,,,,,,,,,
294934,2022-11-22_24h31.26.439,vts_reward_expectancy_bt,2022.2.4,Win32,60.92731371,Chrome,1440,960,,,,,0,883,,,,,,,,,,,,,,,,,W,125,star,0,0,,,,,,,,,,,,,,,,switch,number,NA,k,1.1322,Hi,,,,,,1,,,,,,,,low,11,0,11,0,1,,,,,,,,,
294934,2022-11-22_24h31.26.439,vts_reward_expectancy_bt,2022.2.4,Win32,60.92731371,Chrome,1440,960,,,,,1,884,,,,,,,,,,,,,,,,,S,146,hexagon,1,1,,,,,,,,,,,,,,,,repeat,number,numRpt,j,2.1668,Lo,,,,,,1,,,,,,,,low,12,0,12,0,1,,,,,,,,,
294934,2022-11-22_24h31.26.439,vts_reward_expectancy_bt,2022.2.4,Win32,60.92731371,Chrome,1440,960,,,,,0,884,,,,,,,,,,,,,,,,,D,139,circle,1,0,,,,,,,,,,,,,,,,switch,letter,lettSwt,d,0.9833,Hi,,,,,,1,,,,,,,,low,13,0,13,0,1,,,,,,,,,
294934,2022-11-22_24h31.26.439,vts_reward_expectancy_bt,2022.2.4,Win32,60.92731371,Chrome,1440,960,,,,,1,885,,,,,,,,,,,,,,,,,U,167,triangle,1,0,,,,,,,,,,,,,,,,repeat,letter,lettRpt,f,0.6319,Lo,,,,,,1,,,,,,,,low,14,0,14,0,1,,,,,,,,,
294934,2022-11-22_24h31.26.439,vts_reward_expectancy_bt,2022.2.4,Win32,60.92731371,Chrome,1440,960,,,,,0,885,,,,,,,,,,,,,,,,,F,174,star,1,0,,,,,,,,,,,,,,,,repeat,letter,lettRpt,d,0.7177,Hi,,,,,,1,,,,,,,,low,15,0,15,0,1,,,,,,,,,
294934,2022-11-22_24h31.26.439,vts_reward_expectancy_bt,2022.2.4,Win32,60.92731371,Chrome,1440,960,,,,,1,886,,,,,,,,,,,,,,,,,F,132,triangle,1,0,,,,,,,,,,,,,,,,repeat,letter,lettRpt,d,0.3824,Lo,,,,,,1,,,,,,,,low,16,0,16,0,1,,,,,,,,,
294934,2022-11-22_24h31.26.439,vts_reward_expectancy_bt,2022.2.4,Win32,60.92731371,Chrome,1440,960,,,,,10,896,,,,,,,,,,,,,,,,,W,160,circle,1,0,,,,,,,,,,,,,,,,switch,number,numSwt,k,0.6203,Hi,,,,,,1,,,,,,,,low,17,0,17,0,1,,,,,,,,,
294934,2022-11-22_24h31.26.439,vts_reward_expectancy_bt,2022.2.4,Win32,60.92731371,Chrome,1440,960,,,,,1,897,,,,,,,,,,,,,,,,,B,125,hexagon,1,0,,,,,,,,,,,,,,,,repeat,number,numRpt,j,0.5117,Lo,,,,,,1,,,,,,,,low,18,0,18,0,1,,,,,,,,,
294934,2022-11-22_24h31.26.439,vts_reward_expectancy_bt,2022.2.4,Win32,60.92731371,Chrome,1440,960,,,,,10,907,,,,,,,,,,,,,,,,,H,181,star,1,0,,,,,,,,,,,,,,,,switch,letter,lettSwt,d,0.5767,Hi,,,,,,1,,,,,,,,low,19,0,19,0,1,,,,,,,,,
294934,2022-11-22_24h31.26.439,vts_reward_expectancy_bt,2022.2.4,Win32,60.92731371,Chrome,1440,960,,,,,0,907,,,,,,,,,,,,,,,,,S,139,circle,1,0,,,,,,,,,,,,,,,,repeat,letter,lettRpt,f,0.8503,Hi,,,,,,1,,,,,,,,low,20,0,20,0,1,,,,,,,,,
294934,2022-11-22_24h31.26.439,vts_reward_expectancy_bt,2022.2.4,Win32,60.92731371,Chrome,1440,960,,,,,10,917,,,,,,,,,,,,,,,,,D,146,triangle,1,0,,,,,,,,,,,,,,,,repeat,letter,lettRpt,d,0.687,Lo,,,,,,1,,,,,,,,low,21,0,21,0,1,,,,,,,,,
294934,2022-11-22_24h31.26.439,vts_reward_expectancy_bt,2022.2.4,Win32,60.92731371,Chrome,1440,960,,,,,10,927,,,,,,,,,,,,,,,,,U,174,hexagon,1,0,,,,,,,,,,,,,,,,switch,number,numSwt,k,0.717,Lo,,,,,,1,,,,,,,,low,22,0,22,0,1,,,,,,,,,
294934,2022-11-22_24h31.26.439,vts_reward_expectancy_bt,2022.2.4,Win32,60.92731371,Chrome,1440,960,,,,,10,937,,,,,,,,,,,,,,,,,Y,167,star,1,0,,,,,,,,,,,,,,,,repeat,number,numRpt,k,0.465,Hi,,,,,,1,,,,,,,,low,23,0,23,0,1,,,,,,,,,
294934,2022-11-22_24h31.26.439,vts_reward_expectancy_bt,2022.2.4,Win32,60.92731371,Chrome,1440,960,,,,,10,947,,,,,,,,,,,,,,,,,U,146,hexagon,1,0,,,,,,,,,,,,,,,,switch,letter,lettSwt,f,0.7153,Lo,,,,,,1,,,,,,,,low,24,0,24,0,1,,,,,,,,,
294934,2022-11-22_24h31.26.439,vts_reward_expectancy_bt,2022.2.4,Win32,60.92731371,Chrome,1440,960,,,,,0,947,,,,,,,,,,,,,,,,,W,167,star,1,0,,,,,,,,,,,,,,,,repeat,letter,lettRpt,f,0.6987,Hi,,,,,,1,,,,,,,,low,25,0,25,0,1,,,,,,,,,
294934,2022-11-22_24h31.26.439,vts_reward_expectancy_bt,2022.2.4,Win32,60.92731371,Chrome,1440,960,,,,,0,947,,,,,,,,,,,,,,,,,H,160,circle,1,0,,,,,,,,,,,,,,,,repeat,letter,lettRpt,d,0.5827,Hi,,,,,,1,,,,,,,,low,26,0,26,0,1,,,,,,,,,
294934,2022-11-22_24h31.26.439,vts_reward_expectancy_bt,2022.2.4,Win32,60.92731371,Chrome,1440,960,,,,,1,948,,,,,,,,,,,,,,,,,F,125,triangle,1,0,,,,,,,,,,,,,,,,repeat,letter,lettRpt,d,0.428,Lo,,,,,,1,,,,,,,,low,27,0,27,0,1,,,,,,,,,
294934,2022-11-22_24h31.26.439,vts_reward_expectancy_bt,2022.2.4,Win32,60.92731371,Chrome,1440,960,,,,,1,949,,,,,,,,,,,,,,,,,B,139,hexagon,1,0,,,,,,,,,,,,,,,,switch,number,numSwt,j,0.4447,Lo,,,,,,1,,,,,,,,low,28,0,28,0,1,,,,,,,,,
294934,2022-11-22_24h31.26.439,vts_reward_expectancy_bt,2022.2.4,Win32,60.92731371,Chrome,1440,960,,,,,10,959,,,,,,,,,,,,,,,,,D,181,circle,1,0,,,,,,,,,,,,,,,,switch,letter,lettSwt,d,0.466,Hi,,,,,,1,,,,,,,,low,29,0,29,0,1,,,,,,,,,
294934,2022-11-22_24h31.26.439,vts_reward_expectancy_bt,2022.2.4,Win32,60.92731371,Chrome,1440,960,,,,,0,959,,,,,,,,,,,,,,,,,S,132,star,1,0,,,,,,,,,,,,,,,,repeat,letter,lettRpt,f,0.5503,Hi,,,,,,1,,,,,,,,low,30,0,30,0,1,,,,,,,,,
294934,2022-11-22_24h31.26.439,vts_reward_expectancy_bt,2022.2.4,Win32,60.92731371,Chrome,1440,960,,,,,10,969,,,,,,,,,,,,,,,,,Y,174,triangle,1,0,,,,,,,,,,,,,,,,switch,number,numSwt,k,0.5666,Lo,,,,,,1,,,,,,,,low,31,0,31,0,1,,,,,,,,,
294934,2022-11-22_24h31.26.439,vts_reward_expectancy_bt,2022.2.4,Win32,60.92731371,Chrome,1440,960,,,,,0,969,,,,,,,,,,,,,,,,,Y,132,circle,1,0,,,,,,,,,,,,,,,,switch,letter,lettSwt,f,0.6671,Hi,,,,,,2,,,,,,space,4.7658,low,0,0,0,0,1,,,,,,,,,
294934,2022-11-22_24h31.26.439,vts_reward_expectancy_bt,2022.2.4,Win32,60.92731371,Chrome,1440,960,,,,,10,979,,,,,,,,,,,,,,,,,F,174,star,1,0,,,,,,,,,,,,,,,,repeat,letter,lettRpt,d,0.5364,Hi,,,,,,2,,,,,,,,low,1,0,1,0,1,,,,,,,,,
294934,2022-11-22_24h31.26.439,vts_reward_expectancy_bt,2022.2.4,Win32,60.92731371,Chrome,1440,960,,,,,0,979,,,,,,,,,,,,,,,,,H,160,hexagon,0,0,,,,,,,,,,,,,,,,switch,number,NA,j,0.8037,Hi,,,,,,2,,,,,,,,low,2,0,2,0,1,,,,,,,,,
294934,2022-11-22_24h31.26.439,vts_reward_expectancy_bt,2022.2.4,Win32,60.92731371,Chrome,1440,960,,,,,0,979,,,,,,,,,,,,,,,,,U,167,triangle,0,1,,,,,,,,,,,,,,,,repeat,number,NA,j,0.7331,Hi,,,,,,2,,,,,,,,low,3,0,3,0,1,,,,,,,,,
294934,2022-11-22_24h31.26.439,vts_reward_expectancy_bt,2022.2.4,Win32,60.92731371,Chrome,1440,960,,,,,0,979,,,,,,,,,,,,,,,,,S,181,circle,1,1,,,,,,,,,,,,,,,,repeat,number,numRpt,k,0.6858,Hi,,,,,,2,,,,,,,,low,4,0,4,0,1,,,,,,,,,
294934,2022-11-22_24h31.26.439,vts_reward_expectancy_bt,2022.2.4,Win32,60.92731371,Chrome,1440,960,,,,,0,979,,,,,,,,,,,,,,,,,B,139,star,1,0,,,,,,,,,,,,,,,,repeat,number,numRpt,j,0.5491,Hi,,,,,,2,,,,,,,,low,5,0,5,0,1,,,,,,,,,
294934,2022-11-22_24h31.26.439,vts_reward_expectancy_bt,2022.2.4,Win32,60.92731371,Chrome,1440,960,,,,,0,979,,,,,,,,,,,,,,,,,W,146,hexagon,0,0,,,,,,,,,,,,,,,,repeat,number,NA,k,0.4364,Hi,,,,,,2,,,,,,,,low,6,0,6,0,1,,,,,,,,,
294934,2022-11-22_24h31.26.439,vts_reward_expectancy_bt,2022.2.4,Win32,60.92731371,Chrome,1440,960,,,,,1,980,,,,,,,,,,,,,,,,,D,125,triangle,1,1,,,,,,,,,,,,,,,,switch,letter,lettSwt,d,0.466,Lo,,,,,,2,,,,,,,,low,7,0,7,0,1,,,,,,,,,
294934,2022-11-22_24h31.26.439,vts_reward_expectancy_bt,2022.2.4,Win32,60.92731371,Chrome,1440,960,,,,,10,990,,,,,,,,,,,,,,,,,Y,132,star,1,0,,,,,,,,,,,,,,,,repeat,letter,lettRpt,f,0.4074,Hi,,,,,,2,,,,,,,,low,8,0,8,0,1,,,,,,,,,
294934,2022-11-22_24h31.26.439,vts_reward_expectancy_bt,2022.2.4,Win32,60.92731371,Chrome,1440,960,,,,,0,990,,,,,,,,,,,,,,,,,F,174,circle,0,0,,,,,,,,,,,,,,,,repeat,letter,NA,f,0.4244,Hi,,,,,,2,,,,,,,,low,9,0,9,0,1,,,,,,,,,
294934,2022-11-22_24h31.26.439,vts_reward_expectancy_bt,2022.2.4,Win32,60.92731371,Chrome,1440,960,,,,,1,991,,,,,,,,,,,,,,,,,H,160,hexagon,1,1,,,,,,,,,,,,,,,,switch,number,numSwt,k,0.5011,Lo,,,,,,2,,,,,,,,low,10,0,10,0,1,,,,,,,,,
294934,2022-11-22_24h31.26.439,vts_reward_expectancy_bt,2022.2.4,Win32,60.92731371,Chrome,1440,960,,,,,1,992,,,,,,,,,,,,,,,,,U,167,triangle,1,0,,,,,,,,,,,,,,,,repeat,number,numRpt,k,0.4823,Lo,,,,,,2,,,,,,,,low,11,0,11,0,1,,,,,,,,,
294934,2022-11-22_24h31.26.439,vts_reward_expectancy_bt,2022.2.4,Win32,60.92731371,Chrome,1440,960,,,,,0,992,,,,,,,,,,,,,,,,,S,181,circle,1,0,,,,,,,,,,,,,,,,repeat,number,numRpt,k,0.6166,Hi,,,,,,2,,,,,,,,low,12,0,12,0,1,,,,,,,,,
294934,2022-11-22_24h31.26.439,vts_reward_expectancy_bt,2022.2.4,Win32,60.92731371,Chrome,1440,960,,,,,10,1002,,,,,,,,,,,,,,,,,B,139,star,1,0,,,,,,,,,,,,,,,,switch,letter,lettSwt,d,0.3998,Hi,,,,,,2,,,,,,,,low,13,0,13,0,1,,,,,,,,,
294934,2022-11-22_24h31.26.439,vts_reward_expectancy_bt,2022.2.4,Win32,60.92731371,Chrome,1440,960,,,,,10,1012,,,,,,,,,,,,,,,,,W,146,hexagon,1,0,,,,,,,,,,,,,,,,switch,number,numSwt,j,0.751,Lo,,,,,,2,,,,,,,,low,14,0,14,0,1,,,,,,,,,
294934,2022-11-22_24h31.26.439,vts_reward_expectancy_bt,2022.2.4,Win32,60.92731371,Chrome,1440,960,,,,,1,1013,,,,,,,,,,,,,,,,,D,125,triangle,1,0,,,,,,,,,,,,,,,,switch,letter,lettSwt,d,0.5513,Lo,,,,,,2,,,,,,,,low,15,0,15,0,1,,,,,,,,,
294934,2022-11-22_24h31.26.439,vts_reward_expectancy_bt,2022.2.4,Win32,60.92731371,Chrome,1440,960,,,,,10,1023,,,,,,,,,,,,,,,,,H,139,triangle,1,0,,,,,,,,,,,,,,,,repeat,letter,lettRpt,d,0.5328,Lo,,,,,,2,,,,,,,,low,16,0,16,0,1,,,,,,,,,
294934,2022-11-22_24h31.26.439,vts_reward_expectancy_bt,2022.2.4,Win32,60.92731371,Chrome,1440,960,,,,,1,1024,,,,,,,,,,,,,,,,,F,132,hexagon,1,0,,,,,,,,,,,,,,,,switch,number,numSwt,j,0.7828,Lo,,,,,,2,,,,,,,,low,17,0,17,0,1,,,,,,,,,
294934,2022-11-22_24h31.26.439,vts_reward_expectancy_bt,2022.2.4,Win32,60.92731371,Chrome,1440,960,,,,,0,1024,,,,,,,,,,,,,,,,,S,167,star,1,0,,,,,,,,,,,,,,,,repeat,number,numRpt,k,0.5492,Hi,,,,,,2,,,,,,,,low,18,0,18,0,1,,,,,,,,,
294934,2022-11-22_24h31.26.439,vts_reward_expectancy_bt,2022.2.4,Win32,60.92731371,Chrome,1440,960,,,,,0,1024,,,,,,,,,,,,,,,,,Y,181,circle,1,0,,,,,,,,,,,,,,,,repeat,number,numRpt,k,0.6993,Hi,,,,,,2,,,,,,,,low,19,0,19,0,1,,,,,,,,,
294934,2022-11-22_24h31.26.439,vts_reward_expectancy_bt,2022.2.4,Win32,60.92731371,Chrome,1440,960,,,,,1,1025,,,,,,,,,,,,,,,,,B,174,triangle,1,0,,,,,,,,,,,,,,,,repeat,number,numRpt,k,0.4323,Lo,,,,,,2,,,,,,,,low,20,0,20,0,1,,,,,,,,,
294934,2022-11-22_24h31.26.439,vts_reward_expectancy_bt,2022.2.4,Win32,60.92731371,Chrome,1440,960,,,,,0,1025,,,,,,,,,,,,,,,,,W,125,star,1,0,,,,,,,,,,,,,,,,switch,letter,lettSwt,f,0.6502,Hi,,,,,,2,,,,,,,,low,21,0,21,0,1,,,,,,,,,
294934,2022-11-22_24h31.26.439,vts_reward_expectancy_bt,2022.2.4,Win32,60.92731371,Chrome,1440,960,,,,,1,1026,,,,,,,,,,,,,,,,,U,160,circle,1,0,,,,,,,,,,,,,,,,switch,number,numSwt,k,0.4662,Hi,,,,,,2,,,,,,,,low,22,0,22,0,1,,,,,,,,,
294934,2022-11-22_24h31.26.439,vts_reward_expectancy_bt,2022.2.4,Win32,60.92731371,Chrome,1440,960,,,,,1,1027,,,,,,,,,,,,,,,,,D,146,hexagon,1,0,,,,,,,,,,,,,,,,switch,letter,lettSwt,d,0.384,Lo,,,,,,2,,,,,,,,low,23,0,23,0,1,,,,,,,,,
294934,2022-11-22_24h31.26.439,vts_reward_expectancy_bt,2022.2.4,Win32,60.92731371,Chrome,1440,960,,,,,1,1028,,,,,,,,,,,,,,,,,D,181,triangle,1,0,,,,,,,,,,,,,,,,repeat,letter,lettRpt,d,0.3846,Lo,,,,,,2,,,,,,,,low,24,0,24,0,1,,,,,,,,,
294934,2022-11-22_24h31.26.439,vts_reward_expectancy_bt,2022.2.4,Win32,60.92731371,Chrome,1440,960,,,,,0,1028,,,,,,,,,,,,,,,,,B,174,circle,1,0,,,,,,,,,,,,,,,,switch,number,numSwt,k,0.568,Hi,,,,,,2,,,,,,,,low,25,0,25,0,1,,,,,,,,,
294934,2022-11-22_24h31.26.439,vts_reward_expectancy_bt,2022.2.4,Win32,60.92731371,Chrome,1440,960,,,,,0,1028,,,,,,,,,,,,,,,,,W,146,star,1,0,,,,,,,,,,,,,,,,switch,letter,lettSwt,f,0.6489,Hi,,,,,,2,,,,,,,,low,26,0,26,0,1,,,,,,,,,
294934,2022-11-22_24h31.26.439,vts_reward_expectancy_bt,2022.2.4,Win32,60.92731371,Chrome,1440,960,,,,,0,1028,,,,,,,,,,,,,,,,,Y,139,hexagon,0,0,,,,,,,,,,,,,,,,switch,number,NA,k,0.6336,Hi,,,,,,2,,,,,,,,low,27,0,27,0,1,,,,,,,,,
294934,2022-11-22_24h31.26.439,vts_reward_expectancy_bt,2022.2.4,Win32,60.92731371,Chrome,1440,960,,,,,0,1028,,,,,,,,,,,,,,,,,F,125,star,1,1,,,,,,,,,,,,,,,,repeat,number,numRpt,j,0.599,Hi,,,,,,2,,,,,,,,low,28,0,28,0,1,,,,,,,,,
294934,2022-11-22_24h31.26.439,vts_reward_expectancy_bt,2022.2.4,Win32,60.92731371,Chrome,1440,960,,,,,1,1029,,,,,,,,,,,,,,,,,U,167,circle,1,0,,,,,,,,,,,,,,,,repeat,number,numRpt,k,0.4533,Hi,,,,,,2,,,,,,,,low,29,0,29,0,1,,,,,,,,,
294934,2022-11-22_24h31.26.439,vts_reward_expectancy_bt,2022.2.4,Win32,60.92731371,Chrome,1440,960,,,,,10,1039,,,,,,,,,,,,,,,,,H,160,triangle,1,0,,,,,,,,,,,,,,,,repeat,number,numRpt,k,0.4177,Lo,,,,,,2,,,,,,,,low,30,0,30,0,1,,,,,,,,,
294934,2022-11-22_24h31.26.439,vts_reward_expectancy_bt,2022.2.4,Win32,60.92731371,Chrome,1440,960,,,,,10,1049,,,,,,,,,,,,,,,,,S,132,hexagon,1,0,,,,,,,,,,,,,,,,switch,letter,lettSwt,f,0.5659,Lo,,,,,,2,,,,,,,,low,31,0,31,0,1,,,,,,,,,
294934,2022-11-22_24h31.26.439,vts_reward_expectancy_bt,2022.2.4,Win32,60.92731371,Chrome,1440,960,,,,,1,1050,,,,,,,,,,,,,,,,,U,167,hexagon,1,0,,,,,,,,,,,,,,,,switch,number,numSwt,k,0.5002,Lo,,,,,,3,,,,,,space,0.8045,low,0,0,0,0,1,,,,,,,,,
294934,2022-11-22_24h31.26.439,vts_reward_expectancy_bt,2022.2.4,Win32,60.92731371,Chrome,1440,960,,,,,0,1050,,,,,,,,,,,,,,,,,B,181,star,1,0,,,,,,,,,,,,,,,,repeat,number,numRpt,k,0.5109,Hi,,,,,,3,,,,,,,,low,1,0,1,0,1,,,,,,,,,
294934,2022-11-22_24h31.26.439,vts_reward_expectancy_bt,2022.2.4,Win32,60.92731371,Chrome,1440,960,,,,,1,1051,,,,,,,,,,,,,,,,,S,125,circle,1,0,,,,,,,,,,,,,,,,repeat,number,numRpt,j,0.4699,Hi,,,,,,3,,,,,,,,low,2,0,2,0,1,,,,,,,,,
294934,2022-11-22_24h31.26.439,vts_reward_expectancy_bt,2022.2.4,Win32,60.92731371,Chrome,1440,960,,,,,10,1061,,,,,,,,,,,,,,,,,F,146,triangle,1,0,,,,,,,,,,,,,,,,switch,letter,lettSwt,d,0.5501,Lo,,,,,,3,,,,,,,,low,3,0,3,0,1,,,,,,,,,
294934,2022-11-22_24h31.26.439,vts_reward_expectancy_bt,2022.2.4,Win32,60.92731371,Chrome,1440,960,,,,,10,1071,,,,,,,,,,,,,,,,,D,160,hexagon,1,0,,,,,,,,,,,,,,,,repeat,letter,lettRpt,d,0.4328,Lo,,,,,,3,,,,,,,,low,4,0,4,0,1,,,,,,,,,
294934,2022-11-22_24h31.26.439,vts_reward_expectancy_bt,2022.2.4,Win32,60.92731371,Chrome,1440,960,,,,,10,1081,,,,,,,,,,,,,,,,,W,139,star,1,0,,,,,,,,,,,,,,,,switch,number,numSwt,j,0.5212,Hi,,,,,,3,,,,,,,,low,5,0,5,0,1,,,,,,,,,
294934,2022-11-22_24h31.26.439,vts_reward_expectancy_bt,2022.2.4,Win32,60.92731371,Chrome,1440,960,,,,,10,1091,,,,,,,,,,,,,,,,,H,174,circle,1,0,,,,,,,,,,,,,,,,repeat,number,numRpt,k,0.4187,Hi,,,,,,3,,,,,,,,low,6,0,6,0,1,,,,,,,,,
294934,2022-11-22_24h31.26.439,vts_reward_expectancy_bt,2022.2.4,Win32,60.92731371,Chrome,1440,960,,,,,10,1101,,,,,,,,,,,,,,,,,Y,132,triangle,1,0,,,,,,,,,,,,,,,,repeat,number,numRpt,j,0.717,Lo,,,,,,3,,,,,,,,low,7,0,7,0,1,,,,,,,,,
294934,2022-11-22_24h31.26.439,vts_reward_expectancy_bt,2022.2.4,Win32,60.92731371,Chrome,1440,960,,,,,1,1102,,,,,,,,,,,,,,,,,U,167,triangle,1,0,,,,,,,,,,,,,,,,switch,letter,lettSwt,f,0.4337,Lo,,,,,,3,,,,,,,,low,8,0,8,0,1,,,,,,,,,
294934,2022-11-22_24h31.26.439,vts_reward_expectancy_bt,2022.2.4,Win32,60.92731371,Chrome,1440,960,,,,,10,1112,,,,,,,,,,,,,,,,,B,181,circle,1,0,,,,,,,,,,,,,,,,switch,number,numSwt,k,0.4159,Hi,,,,,,3,,,,,,,,low,9,0,9,0,1,,,,,,,,,
294934,2022-11-22_24h31.26.439,vts_reward_expectancy_bt,2022.2.4,Win32,60.92731371,Chrome,1440,960,,,,,0,1112,,,,,,,,,,,,,,,,,S,125,star,1,0,,,,,,,,,,,,,,,,repeat,number,numRpt,j,0.566,Hi,,,,,,3,,,,,,,,low,10,0,10,0,1,,,,,,,,,
294934,2022-11-22_24h31.26.439,vts_reward_expectancy_bt,2022.2.4,Win32,60.92731371,Chrome,1440,960,,,,,10,1122,,,,,,,,,,,,,,,,,F,146,hexagon,1,0,,,,,,,,,,,,,,,,switch,letter,lettSwt,d,0.5655,Lo,,,,,,3,,,,,,,,low,11,0,11,0,1,,,,,,,,,
294934,2022-11-22_24h31.26.439,vts_reward_expectancy_bt,2022.2.4,Win32,60.92731371,Chrome,1440,960,,,,,0,1122,,,,,,,,,,,,,,,,,D,160,star,1,0,,,,,,,,,,,,,,,,repeat,letter,lettRpt,d,0.4491,Hi,,,,,,3,,,,,,,,low,12,0,12,0,1,,,,,,,,,
294934,2022-11-22_24h31.26.439,vts_reward_expectancy_bt,2022.2.4,Win32,60.92731371,Chrome,1440,960,,,,,1,1123,,,,,,,,,,,,,,,,,W,139,circle,1,0,,,,,,,,,,,,,,,,switch,number,numSwt,j,0.5205,Hi,,,,,,3,,,,,,,,low,13,0,13,0,1,,,,,,,,,
294934,2022-11-22_24h31.26.439,vts_reward_expectancy_bt,2022.2.4,Win32,60.92731371,Chrome,1440,960,,,,,1,1124,,,,,,,,,,,,,,,,,H,174,hexagon,1,0,,,,,,,,,,,,,,,,repeat,number,numRpt,k,0.4676,Lo,,,,,,3,,,,,,,,low,14,0,14,0,1,,,,,,,,,
294934,2022-11-22_24h31.26.439,vts_reward_expectancy_bt,2022.2.4,Win32,60.92731371,Chrome,1440,960,,,,,10,1134,,,,,,,,,,,,,,,,,Y,132,triangle,1,0,,,,,,,,,,,,,,,,switch,letter,lettSwt,f,0.6839,Lo,,,,,,3,,,,,,,,low,15,0,15,0,1,,,,,,,,,
294934,2022-11-22_24h31.26.439,vts_reward_expectancy_bt,2022.2.4,Win32,60.92731371,Chrome,1440,960,,,,,10,1144,,,,,,,,,,,,,,,,,W,160,triangle,1,0,,,,,,,,,,,,,,,,repeat,letter,lettRpt,f,0.4373,Lo,,,,,,3,,,,,,,,low,16,0,16,0,1,,,,,,,,,
294934,2022-11-22_24h31.26.439,vts_reward_expectancy_bt,2022.2.4,Win32,60.92731371,Chrome,1440,960,,,,,10,1154,,,,,,,,,,,,,,,,,S,132,star,1,0,,,,,,,,,,,,,,,,switch,number,numSwt,j,0.4994,Hi,,,,,,3,,,,,,,,low,17,0,17,0,1,,,,,,,,,
294934,2022-11-22_24h31.26.439,vts_reward_expectancy_bt,2022.2.4,Win32,60.92731371,Chrome,1440,960,,,,,1,1155,,,,,,,,,,,,,,,,,H,146,hexagon,1,0,,,,,,,,,,,,,,,,repeat,number,numRpt,j,0.4556,Lo,,,,,,3,,,,,,,,low,18,0,18,0,1,,,,,,,,,
294934,2022-11-22_24h31.26.439,vts_reward_expectancy_bt,2022.2.4,Win32,60.92731371,Chrome,1440,960,,,,,10,1165,,,,,,,,,,,,,,,,,B,139,circle,1,0,,,,,,,,,,,,,,,,switch,letter,lettSwt,d,0.4831,Hi,,,,,,3,,,,,,,,low,19,0,19,0,1,,,,,,,,,
294934,2022-11-22_24h31.26.439,vts_reward_expectancy_bt,2022.2.4,Win32,60.92731371,Chrome,1440,960,,,,,1,1166,,,,,,,,,,,,,,,,,D,167,triangle,1,0,,,,,,,,,,,,,,,,repeat,letter,lettRpt,d,0.6998,Lo,,,,,,3,,,,,,,,low,20,0,20,0,1,,,,,,,,,
294934,2022-11-22_24h31.26.439,vts_reward_expectancy_bt,2022.2.4,Win32,60.92731371,Chrome,1440,960,,,,,10,1176,,,,,,,,,,,,,,,,,F,174,hexagon,1,0,,,,,,,,,,,,,,,,repeat,letter,lettRpt,d,0.6501,Lo,,,,,,3,,,,,,,,low,21,0,21,0,1,,,,,,,,,
294934,2022-11-22_24h31.26.439,vts_reward_expectancy_bt,2022.2.4,Win32,60.92731371,Chrome,1440,960,,,,,0,1176,,,,,,,,,,,,,,,,,Y,125,star,1,0,,,,,,,,,,,,,,,,repeat,letter,lettRpt,f,0.5316,Hi,,,,,,3,,,,,,,,low,22,0,22,0,1,,,,,,,,,
294934,2022-11-22_24h31.26.439,vts_reward_expectancy_bt,2022.2.4,Win32,60.92731371,Chrome,1440,960,,,,,0,1176,,,,,,,,,,,,,,,,,U,181,circle,1,0,,,,,,,,,,,,,,,,switch,number,numSwt,k,0.5846,Hi,,,,,,3,,,,,,,,low,23,0,23,0,1,,,,,,,,,
294934,2022-11-22_24h31.26.439,vts_reward_expectancy_bt,2022.2.4,Win32,60.92731371,Chrome,1440,960,,,,,10,1186,,,,,,,,,,,,,,,,,S,132,star,1,0,,,,,,,,,,,,,,,,switch,letter,lettSwt,f,0.3987,Hi,,,,,,3,,,,,,,,low,24,0,24,0,1,,,,,,,,,
294934,2022-11-22_24h31.26.439,vts_reward_expectancy_bt,2022.2.4,Win32,60.92731371,Chrome,1440,960,,,,,10,1196,,,,,,,,,,,,,,,,,U,167,triangle,1,0,,,,,,,,,,,,,,,,switch,number,numSwt,k,0.6491,Lo,,,,,,3,,,,,,,,low,25,0,25,0,1,,,,,,,,,
294934,2022-11-22_24h31.26.439,vts_reward_expectancy_bt,2022.2.4,Win32,60.92731371,Chrome,1440,960,,,,,1,1197,,,,,,,,,,,,,,,,,B,139,circle,1,0,,,,,,,,,,,,,,,,repeat,number,numRpt,j,0.3693,Hi,,,,,,3,,,,,,,,low,26,0,26,0,1,,,,,,,,,
294934,2022-11-22_24h31.26.439,vts_reward_expectancy_bt,2022.2.4,Win32,60.92731371,Chrome,1440,960,,,,,0,1197,,,,,,,,,,,,,,,,,H,125,hexagon,0,0,,,,,,,,,,,,,,,,switch,letter,NA,f,0.4497,Hi,,,,,,3,,,,,,,,low,27,0,27,0,1,,,,,,,,,
294934,2022-11-22_24h31.26.439,vts_reward_expectancy_bt,2022.2.4,Win32,60.92731371,Chrome,1440,960,,,,,1,1198,,,,,,,,,,,,,,,,,D,174,hexagon,1,1,,,,,,,,,,,,,,,,repeat,letter,lettRpt,d,0.6343,Lo,,,,,,3,,,,,,,,low,28,0,28,0,1,,,,,,,,,
294934,2022-11-22_24h31.26.439,vts_reward_expectancy_bt,2022.2.4,Win32,60.92731371,Chrome,1440,960,,,,,10,1208,,,,,,,,,,,,,,,,,F,160,triangle,1,0,,,,,,,,,,,,,,,,repeat,letter,lettRpt,d,0.4659,Lo,,,,,,3,,,,,,,,low,29,0,29,0,1,,,,,,,,,
294934,2022-11-22_24h31.26.439,vts_reward_expectancy_bt,2022.2.4,Win32,60.92731371,Chrome,1440,960,,,,,0,1208,,,,,,,,,,,,,,,,,Y,146,star,1,0,,,,,,,,,,,,,,,,switch,number,numSwt,j,0.9372,Hi,,,,,,3,,,,,,,,low,30,0,30,0,1,,,,,,,,,
294934,2022-11-22_24h31.26.439,vts_reward_expectancy_bt,2022.2.4,Win32,60.92731371,Chrome,1440,960,,,,,0,1208,,,,,,,,,,,,,,,,,W,181,circle,1,0,,,,,,,,,,,,,,,,repeat,number,numRpt,k,0.6156,Hi,,,,,,3,,,,,,,,low,31,0,31,0,1,,,,,,,,,
294934,2022-11-22_24h31.26.439,vts_reward_expectancy_bt,2022.2.4,Win32,60.92731371,Chrome,1440,960,,,,,10,1218,,,,,,,,,,,,,,,,,D,146,hexagon,1,0,,,,,,,,,,,,,,,,switch,letter,lettSwt,d,0.7014,Lo,,,,,,4,,,,,,space,1.3356,low,0,0,0,0,1,,,,,,,,,
294934,2022-11-22_24h31.26.439,vts_reward_expectancy_bt,2022.2.4,Win32,60.92731371,Chrome,1440,960,,,,,1,1219,,,,,,,,,,,,,,,,,F,174,star,1,0,,,,,,,,,,,,,,,,repeat,letter,lettRpt,d,0.4315,Hi,,,,,,4,,,,,,,,low,1,0,1,0,1,,,,,,,,,
294934,2022-11-22_24h31.26.439,vts_reward_expectancy_bt,2022.2.4,Win32,60.92731371,Chrome,1440,960,,,,,0,1219,,,,,,,,,,,,,,,,,Y,139,circle,1,0,,,,,,,,,,,,,,,,switch,number,numSwt,j,0.5663,Hi,,,,,,4,,,,,,,,low,2,0,2,0,1,,,,,,,,,
294934,2022-11-22_24h31.26.439,vts_reward_expectancy_bt,2022.2.4,Win32,60.92731371,Chrome,1440,960,,,,,10,1229,,,,,,,,,,,,,,,,,B,181,triangle,1,0,,,,,,,,,,,,,,,,repeat,number,numRpt,k,0.4992,Lo,,,,,,4,,,,,,,,low,3,0,3,0,1,,,,,,,,,
294934,2022-11-22_24h31.26.439,vts_reward_expectancy_bt,2022.2.4,Win32,60.92731371,Chrome,1440,960,,,,,0,1229,,,,,,,,,,,,,,,,,W,125,hexagon,0,0,,,,,,,,,,,,,,,,switch,letter,NA,d,0.3662,Lo,,,,,,4,,,,,,,,low,4,0,4,0,1,,,,,,,,,
294934,2022-11-22_24h31.26.439,vts_reward_expectancy_bt,2022.2.4,Win32,60.92731371,Chrome,1440,960,,,,,0,1229,,,,,,,,,,,,,,,,,S,167,star,1,1,,,,,,,,,,,,,,,,repeat,letter,lettRpt,f,0.4991,Hi,,,,,,4,,,,,,,,low,5,0,5,0,1,,,,,,,,,
294934,2022-11-22_24h31.26.439,vts_reward_expectancy_bt,2022.2.4,Win32,60.92731371,Chrome,1440,960,,,,,0,1229,,,,,,,,,,,,,,,,,H,160,circle,1,0,,,,,,,,,,,,,,,,repeat,letter,lettRpt,d,0.4972,Hi,,,,,,4,,,,,,,,low,6,0,6,0,1,,,,,,,,,
294934,2022-11-22_24h31.26.439,vts_reward_expectancy_bt,2022.2.4,Win32,60.92731371,Chrome,1440,960,,,,,1,1230,,,,,,,,,,,,,,,,,U,132,triangle,1,0,,,,,,,,,,,,,,,,switch,number,numSwt,j,0.464,Lo,,,,,,4,,,,,,,,low,7,0,7,0,1,,,,,,,,,
294934,2022-11-22_24h31.26.439,vts_reward_expectancy_bt,2022.2.4,Win32,60.92731371,Chrome,1440,960,,,,,0,1230,,,,,,,,,,,,,,,,,D,146,circle,1,0,,,,,,,,,,,,,,,,repeat,number,numRpt,j,0.5304,Hi,,,,,,4,,,,,,,,low,8,0,8,0,1,,,,,,,,,
294934,2022-11-22_24h31.26.439,vts_reward_expectancy_bt,2022.2.4,Win32,60.92731371,Chrome,1440,960,,,,,10,1240,,,,,,,,,,,,,,,,,F,174,hexagon,1,0,,,,,,,,,,,,,,,,repeat,number,numRpt,k,0.4105,Lo,,,,,,4,,,,,,,,low,9,0,9,0,1,,,,,,,,,
294934,2022-11-22_24h31.26.439,vts_reward_expectancy_bt,2022.2.4,Win32,60.92731371,Chrome,1440,960,,,,,0,1240,,,,,,,,,,,,,,,,,Y,139,triangle,0,0,,,,,,,,,,,,,,,,switch,letter,NA,d,0.3821,Lo,,,,,,4,,,,,,,,low,10,0,10,0,1,,,,,,,,,
294934,2022-11-22_24h31.26.439,vts_reward_expectancy_bt,2022.2.4,Win32,60.92731371,Chrome,1440,960,,,,,10,1250,,,,,,,,,,,,,,,,,B,181,star,1,1,,,,,,,,,,,,,,,,repeat,letter,lettRpt,d,0.3682,Hi,,,,,,4,,,,,,,,low,11,0,11,0,1,,,,,,,,,
294934,2022-11-22_24h31.26.439,vts_reward_expectancy_bt,2022.2.4,Win32,60.92731371,Chrome,1440,960,,,,,1,1251,,,,,,,,,,,,,,,,,W,125,triangle,1,0,,,,,,,,,,,,,,,,switch,number,numSwt,j,0.4826,Lo,,,,,,4,,,,,,,,low,12,0,12,0,1,,,,,,,,,
294934,2022-11-22_24h31.26.439,vts_reward_expectancy_bt,2022.2.4,Win32,60.92731371,Chrome,1440,960,,,,,0,1251,,,,,,,,,,,,,,,,,S,167,circle,1,0,,,,,,,,,,,,,,,,switch,letter,lettSwt,f,0.4827,Hi,,,,,,4,,,,,,,,low,13,0,13,0,1,,,,,,,,,
294934,2022-11-22_24h31.26.439,vts_reward_expectancy_bt,2022.2.4,Win32,60.92731371,Chrome,1440,960,,,,,0,1251,,,,,,,,,,,,,,,,,H,160,star,1,0,,,,,,,,,,,,,,,,switch,number,numSwt,k,0.6874,Hi,,,,,,4,,,,,,,,low,14,0,14,0,1,,,,,,,,,
294934,2022-11-22_24h31.26.439,vts_reward_expectancy_bt,2022.2.4,Win32,60.92731371,Chrome,1440,960,,,,,1,1252,,,,,,,,,,,,,,,,,U,132,hexagon,1,0,,,,,,,,,,,,,,,,repeat,number,numRpt,j,0.4517,Lo,,,,,,4,,,,,,,,low,15,0,15,0,1,,,,,,,,,
294934,2022-11-22_24h31.26.439,vts_reward_expectancy_bt,2022.2.4,Win32,60.92731371,Chrome,1440,960,,,,,1,1253,,,,,,,,,,,,,,,,,B,139,hexagon,1,0,,,,,,,,,,,,,,,,switch,letter,lettSwt,d,0.4819,Lo,,,,,,4,,,,,,,,low,16,0,16,0,1,,,,,,,,,
294934,2022-11-22_24h31.26.439,vts_reward_expectancy_bt,2022.2.4,Win32,60.92731371,Chrome,1440,960,,,,,0,1253,,,,,,,,,,,,,,,,,S,160,star,1,0,,,,,,,,,,,,,,,,switch,number,numSwt,k,0.6323,Hi,,,,,,4,,,,,,,,low,17,0,17,0,1,,,,,,,,,
294934,2022-11-22_24h31.26.439,vts_reward_expectancy_bt,2022.2.4,Win32,60.92731371,Chrome,1440,960,,,,,0,1253,,,,,,,,,,,,,,,,,W,125,circle,1,0,,,,,,,,,,,,,,,,switch,letter,lettSwt,f,0.5386,Hi,,,,,,4,,,,,,,,low,18,0,18,0,1,,,,,,,,,
294934,2022-11-22_24h31.26.439,vts_reward_expectancy_bt,2022.2.4,Win32,60.92731371,Chrome,1440,960,,,,,0,1253,,,,,,,,,,,,,,,,,H,167,triangle,0,0,,,,,,,,,,,,,,,,repeat,letter,NA,f,0.432,Hi,,,,,,4,,,,,,,,low,19,0,19,0,1,,,,,,,,,
294934,2022-11-22_24h31.26.439,vts_reward_expectancy_bt,2022.2.4,Win32,60.92731371,Chrome,1440,960,,,,,10,1263,,,,,,,,,,,,,,,,,U,132,circle,1,1,,,,,,,,,,,,,,,,switch,number,numSwt,j,0.4326,Hi,,,,,,4,,,,,,,,low,20,0,20,0,1,,,,,,,,,
294934,2022-11-22_24h31.26.439,vts_reward_expectancy_bt,2022.2.4,Win32,60.92731371,Chrome,1440,960,,,,,0,1263,,,,,,,,,,,,,,,,,D,146,star,1,0,,,,,,,,,,,,,,,,switch,letter,lettSwt,d,0.549,Hi,,,,,,4,,,,,,,,low,21,0,21,0,1,,,,,,,,,
294934,2022-11-22_24h31.26.439,vts_reward_expectancy_bt,2022.2.4,Win32,60.92731371,Chrome,1440,960,,,,,10,1273,,,,,,,,,,,,,,,,,F,174,triangle,1,0,,,,,,,,,,,,,,,,repeat,letter,lettRpt,d,0.4066,Lo,,,,,,4,,,,,,,,low,22,0,22,0,1,,,,,,,,,
294934,2022-11-22_24h31.26.439,vts_reward_expectancy_bt,2022.2.4,Win32,60.92731371,Chrome,1440,960,,,,,0,1273,,,,,,,,,,,,,,,,,Y,181,hexagon,0,0,,,,,,,,,,,,,,,,switch,number,NA,j,0.4002,Lo,,,,,,4,,,,,,,,low,23,0,23,0,1,,,,,,,,,
294934,2022-11-22_24h31.26.439,vts_reward_expectancy_bt,2022.2.4,Win32,60.92731371,Chrome,1440,960,,,,,10,1283,,,,,,,,,,,,,,,,,F,139,hexagon,1,1,,,,,,,,,,,,,,,,repeat,number,numRpt,j,0.6496,Lo,,,,,,4,,,,,,,,low,24,0,24,0,1,,,,,,,,,
294934,2022-11-22_24h31.26.439,vts_reward_expectancy_bt,2022.2.4,Win32,60.92731371,Chrome,1440,960,,,,,10,1293,,,,,,,,,,,,,,,,,W,146,triangle,1,0,,,,,,,,,,,,,,,,switch,letter,lettSwt,f,0.6495,Lo,,,,,,4,,,,,,,,low,25,0,25,0,1,,,,,,,,,
294934,2022-11-22_24h31.26.439,vts_reward_expectancy_bt,2022.2.4,Win32,60.92731371,Chrome,1440,960,,,,,10,1303,,,,,,,,,,,,,,,,,B,174,star,1,0,,,,,,,,,,,,,,,,repeat,letter,lettRpt,d,0.3995,Hi,,,,,,4,,,,,,,,low,26,0,26,0,1,,,,,,,,,
294934,2022-11-22_24h31.26.439,vts_reward_expectancy_bt,2022.2.4,Win32,60.92731371,Chrome,1440,960,,,,,10,1313,,,,,,,,,,,,,,,,,S,181,circle,1,0,,,,,,,,,,,,,,,,switch,number,numSwt,k,0.483,Hi,,,,,,4,,,,,,,,low,27,0,27,0,1,,,,,,,,,
294934,2022-11-22_24h31.26.439,vts_reward_expectancy_bt,2022.2.4,Win32,60.92731371,Chrome,1440,960,,,,,0,1313,,,,,,,,,,,,,,,,,Y,167,triangle,0,0,,,,,,,,,,,,,,,,repeat,number,NA,j,0.4549,Hi,,,,,,4,,,,,,,,low,28,0,28,0,1,,,,,,,,,
294934,2022-11-22_24h31.26.439,vts_reward_expectancy_bt,2022.2.4,Win32,60.92731371,Chrome,1440,960,,,,,10,1323,,,,,,,,,,,,,,,,,D,125,star,1,1,,,,,,,,,,,,,,,,switch,letter,lettSwt,d,0.383,Hi,,,,,,4,,,,,,,,low,29,0,29,0,1,,,,,,,,,
294934,2022-11-22_24h31.26.439,vts_reward_expectancy_bt,2022.2.4,Win32,60.92731371,Chrome,1440,960,,,,,1,1324,,,,,,,,,,,,,,,,,H,132,circle,1,0,,,,,,,,,,,,,,,,switch,number,numSwt,j,0.4492,Hi,,,,,,4,,,,,,,,low,30,0,30,0,1,,,,,,,,,
294934,2022-11-22_24h31.26.439,vts_reward_expectancy_bt,2022.2.4,Win32,60.92731371,Chrome,1440,960,,,,,1,1325,,,,,,,,,,,,,,,,,U,160,hexagon,1,0,,,,,,,,,,,,,,,,switch,letter,lettSwt,f,0.4675,Lo,,,,,,4,,,,,,,,low,31,0,31,0,1,,,,,,,,,
294934,2022-11-22_24h31.26.439,vts_reward_expectancy_bt,2022.2.4,Win32,60.92731371,Chrome,1440,960,,,,,0,1325,,,,,,,,,,,,,,,,,D,146,star,1,0,,,,,,,,,,,,,,,,repeat,letter,lettRpt,d,0.6495,Hi,,,,,,5,,,,,,space,0.601,low,0,0,0,0,1,,,,,,,,,
294934,2022-11-22_24h31.26.439,vts_reward_expectancy_bt,2022.2.4,Win32,60.92731371,Chrome,1440,960,,,,,1,1326,,,,,,,,,,,,,,,,,U,139,hexagon,1,0,,,,,,,,,,,,,,,,repeat,letter,lettRpt,f,0.3801,Lo,,,,,,5,,,,,,,,low,1,0,1,0,1,,,,,,,,,
294934,2022-11-22_24h31.26.439,vts_reward_expectancy_bt,2022.2.4,Win32,60.92731371,Chrome,1440,960,,,,,1,1327,,,,,,,,,,,,,,,,,F,174,triangle,1,0,,,,,,,,,,,,,,,,repeat,letter,lettRpt,d,0.4333,Lo,,,,,,5,,,,,,,,low,2,0,2,0,1,,,,,,,,,
294934,2022-11-22_24h31.26.439,vts_reward_expectancy_bt,2022.2.4,Win32,60.92731371,Chrome,1440,960,,,,,10,1337,,,,,,,,,,,,,,,,,B,181,circle,1,0,,,,,,,,,,,,,,,,switch,number,numSwt,k,0.4665,Hi,,,,,,5,,,,,,,,low,3,0,3,0,1,,,,,,,,,
294934,2022-11-22_24h31.26.439,vts_reward_expectancy_bt,2022.2.4,Win32,60.92731371,Chrome,1440,960,,,,,1,1338,,,,,,,,,,,,,,,,,W,132,star,1,0,,,,,,,,,,,,,,,,switch,letter,lettSwt,f,0.4706,Hi,,,,,,5,,,,,,,,low,4,0,4,0,1,,,,,,,,,
294934,2022-11-22_24h31.26.439,vts_reward_expectancy_bt,2022.2.4,Win32,60.92731371,Chrome,1440,960,,,,,1,1339,,,,,,,,,,,,,,,,,H,160,hexagon,1,0,,,,,,,,,,,,,,,,switch,number,numSwt,k,0.3844,Lo,,,,,,5,,,,,,,,low,5,0,5,0,1,,,,,,,,,
294934,2022-11-22_24h31.26.439,vts_reward_expectancy_bt,2022.2.4,Win32,60.92731371,Chrome,1440,960,,,,,1,1340,,,,,,,,,,,,,,,,,S,125,triangle,1,0,,,,,,,,,,,,,,,,switch,letter,lettSwt,f,0.5207,Lo,,,,,,5,,,,,,,,low,6,0,6,0,1,,,,,,,,,
294934,2022-11-22_24h31.26.439,vts_reward_expectancy_bt,2022.2.4,Win32,60.92731371,Chrome,1440,960,,,,,1,1341,,,,,,,,,,,,,,,,,Y,167,circle,1,0,,,,,,,,,,,,,,,,switch,number,numSwt,k,0.3375,Hi,,,,,,5,,,,,,,,low,7,0,7,0,1,,,,,,,,,
294934,2022-11-22_24h31.26.439,vts_reward_expectancy_bt,2022.2.4,Win32,60.92731371,Chrome,1440,960,,,,,0,1341,,,,,,,,,,,,,,,,,D,146,hexagon,0,0,,,,,,,,,,,,,,,,repeat,number,NA,k,0.4015,Hi,,,,,,5,,,,,,,,low,8,0,8,0,1,,,,,,,,,
294934,2022-11-22_24h31.26.439,vts_reward_expectancy_bt,2022.2.4,Win32,60.92731371,Chrome,1440,960,,,,,1,1342,,,,,,,,,,,,,,,,,U,139,circle,1,1,,,,,,,,,,,,,,,,repeat,number,numRpt,j,0.4475,Hi,,,,,,5,,,,,,,,low,9,0,9,0,1,,,,,,,,,
294934,2022-11-22_24h31.26.439,vts_reward_expectancy_bt,2022.2.4,Win32,60.92731371,Chrome,1440,960,,,,,10,1352,,,,,,,,,,,,,,,,,F,174,star,1,0,,,,,,,,,,,,,,,,repeat,number,numRpt,k,0.4334,Hi,,,,,,5,,,,,,,,low,10,0,10,0,1,,,,,,,,,
294934,2022-11-22_24h31.26.439,vts_reward_expectancy_bt,2022.2.4,Win32,60.92731371,Chrome,1440,960,,,,,0,1352,,,,,,,,,,,,,,,,,B,181,triangle,0,0,,,,,,,,,,,,,,,,switch,letter,NA,f,0.4474,Hi,,,,,,5,,,,,,,,low,11,0,11,0,1,,,,,,,,,
294934,2022-11-22_24h31.26.439,vts_reward_expectancy_bt,2022.2.4,Win32,60.92731371,Chrome,1440,960,,,,,1,1353,,,,,,,,,,,,,,,,,W,132,triangle,1,1,,,,,,,,,,,,,,,,repeat,letter,lettRpt,f,0.4349,Lo,,,,,,5,,,,,,,,low,12,0,12,0,1,,,,,,,,,
294934,2022-11-22_24h31.26.439,vts_reward_expectancy_bt,2022.2.4,Win32,60.92731371,Chrome,1440,960,,,,,1,1354,,,,,,,,,,,,,,,,,H,160,hexagon,1,0,,,,,,,,,,,,,,,,switch,number,numSwt,k,0.6311,Lo,,,,,,5,,,,,,,,low,13,0,13,0,1,,,,,,,,,
294934,2022-11-22_24h31.26.439,vts_reward_expectancy_bt,2022.2.4,Win32,60.92731371,Chrome,1440,960,,,,,1,1355,,,,,,,,,,,,,,,,,S,125,star,1,0,,,,,,,,,,,,,,,,switch,letter,lettSwt,f,0.4696,Hi,,,,,,5,,,,,,,,low,14,0,14,0,1,,,,,,,,,
294934,2022-11-22_24h31.26.439,vts_reward_expectancy_bt,2022.2.4,Win32,60.92731371,Chrome,1440,960,,,,,0,1355,,,,,,,,,,,,,,,,,Y,167,circle,1,0,,,,,,,,,,,,,,,,repeat,letter,lettRpt,f,0.5144,Hi,,,,,,5,,,,,,,,low,15,0,15,0,1,,,,,,,,,
294934,2022-11-22_24h31.26.439,vts_reward_expectancy_bt,2022.2.4,Win32,60.92731371,Chrome,1440,960,,,,,1,1356,,,,,,,,,,,,,,,,,B,174,hexagon,1,0,,,,,,,,,,,,,,,,switch,number,numSwt,k,0.3991,Lo,,,,,,5,,,,,,,,low,16,0,16,0,1,,,,,,,,,
