participant,date,expName,psychopyVersion,OS,frameRate,browser,xResolution,yResolution,key_resp.keys,key_resp.rt,training_resp.keys,training_resp.rt,points_trial,points_cumul,trainBlock,training.thisRepN,training.thisTrialN,training.thisN,training.thisIndex,training.ran,LTriangleOpac,LCircleOpac,LHexagonOpac,LStarOpac,RTriangleOpac,RCircleOpac,RHexagonOpac,RStarOpac,LShape_ID,RShape_ID,curr_topStim,curr_bottStim,curr_shape,acc,E1,target_resp_prac1.keys,target_resp_prac1.rt,pracBlock,task1_prac_trials.thisRepN,task1_prac_trials.thisTrialN,task1_prac_trials.thisN,task1_prac_trials.thisIndex,task1_prac_trials.ran,target_resp_prac2.keys,target_resp_prac2.rt,task2_praac_trials.thisRepN,task2_praac_trials.thisTrialN,task2_praac_trials.thisN,task2_praac_trials.thisIndex,task2_praac_trials.ran,alt,task,condition,target_resp.keys,target_resp.rt,rewCond,vts_practice_trials.thisRepN,vts_practice_trials.thisTrialN,vts_practice_trials.thisN,vts_practice_trials.thisIndex,vts_practice_trials.ran,blockNum,trials_norew.thisRepN,trials_norew.thisTrialN,trials_norew.thisN,trials_norew.thisIndex,trials_norew.ran,key_resp_2.keys,key_resp_2.rt,rewExpectancy,trials_rew.thisRepN,trials_rew.thisTrialN,trials_rew.thisN,trials_rew.thisIndex,trials_rew.ran,Q1,Q2,Q2_text,Q3,Q4,Q5_text,Q5,xRes,yRes
294919,2022-11-28_24h42.48.031,vts_reward_expectancy_bt,2022.2.4,MacIntel,60.0024001,Chrome,1440,900,,,,,,,,,,,,,,,,,,,,,,,,,,,,,,,,,,,,,,,,,,,,,,,,,,,,,,,,,,,,,,,,,,,,,,,,,,,,
294919,2022-11-28_24h42.48.031,vts_reward_expectancy_bt,2022.2.4,MacIntel,60.0024001,Chrome,1440,900,space,3.5273,,,,,,,,,,,,,,,,,,,,,,,,,,,,,,,,,,,,,,,,,,,,,,,,,,,,,,,,,,,,,,,,,,,,,,,,,,
294919,2022-11-28_24h42.48.031,vts_reward_expectancy_bt,2022.2.4,MacIntel,60.0024001,Chrome,1440,900,,,,,,,,,,,,,,,,,,,,,,,,,,,,,,,,,,,,,,,,,,,,,,,,,,,,,,,,,,,,,,,,,,,,,,,,,,,,
294919,2022-11-28_24h42.48.031,vts_reward_expectancy_bt,2022.2.4,MacIntel,60.0024001,Chrome,1440,900,,,l,1.7888,10,10,0,0,0,0,5,1,0,1,0,0,0,0,0,1,circle,star,,,,,,,,,,,,,,,,,,,,,,,,,,,,,,,,,,,,,,,,,,,,,,,,,,,,,,
294919,2022-11-28_24h42.48.031,vts_reward_expectancy_bt,2022.2.4,MacIntel,60.0024001,Chrome,1440,900,,,a,1.4177,10,20,0,0,1,1,0,1,1,0,0,0,0,1,0,0,triangle,circle,,,,,,,,,,,,,,,,,,,,,,,,,,,,,,,,,,,,,,,,,,,,,,,,,,,,,,
294919,2022-11-28_24h42.48.031,vts_reward_expectancy_bt,2022.2.4,MacIntel,60.0024001,Chrome,1440,900,,,a,1.0508,10,30,0,0,2,2,9,1,0,0,0,1,1,0,0,0,star,triangle,,,,,,,,,,,,,,,,,,,,,,,,,,,,,,,,,,,,,,,,,,,,,,,,,,,,,,
294919,2022-11-28_24h42.48.031,vts_reward_expectancy_bt,2022.2.4,MacIntel,60.0024001,Chrome,1440,900,,,a,0.8974,1,31,0,0,3,3,1,1,1,0,0,0,0,0,1,0,triangle,hexagon,,,,,,,,,,,,,,,,,,,,,,,,,,,,,,,,,,,,,,,,,,,,,,,,,,,,,,
294919,2022-11-28_24h42.48.031,vts_reward_expectancy_bt,2022.2.4,MacIntel,60.0024001,Chrome,1440,900,,,a,1.2825,1,32,0,0,4,4,2,1,1,0,0,0,0,0,0,1,triangle,star,,,,,,,,,,,,,,,,,,,,,,,,,,,,,,,,,,,,,,,,,,,,,,,,,,,,,,
294919,2022-11-28_24h42.48.031,vts_reward_expectancy_bt,2022.2.4,MacIntel,60.0024001,Chrome,1440,900,,,l,0.7958,10,42,0,0,5,5,7,1,0,0,1,0,0,1,0,0,hexagon,circle,,,,,,,,,,,,,,,,,,,,,,,,,,,,,,,,,,,,,,,,,,,,,,,,,,,,,,
294919,2022-11-28_24h42.48.031,vts_reward_expectancy_bt,2022.2.4,MacIntel,60.0024001,Chrome,1440,900,,,l,1.4398,1,43,0,0,6,6,11,1,0,0,0,1,0,0,1,0,star,hexagon,,,,,,,,,,,,,,,,,,,,,,,,,,,,,,,,,,,,,,,,,,,,,,,,,,,,,,
294919,2022-11-28_24h42.48.031,vts_reward_expectancy_bt,2022.2.4,MacIntel,60.0024001,Chrome,1440,900,,,a,1.0627,10,53,0,0,7,7,6,1,0,0,1,0,1,0,0,0,hexagon,triangle,,,,,,,,,,,,,,,,,,,,,,,,,,,,,,,,,,,,,,,,,,,,,,,,,,,,,,
294919,2022-11-28_24h42.48.031,vts_reward_expectancy_bt,2022.2.4,MacIntel,60.0024001,Chrome,1440,900,,,l,1.0217,1,54,0,0,8,8,4,1,0,1,0,0,0,0,1,0,circle,hexagon,,,,,,,,,,,,,,,,,,,,,,,,,,,,,,,,,,,,,,,,,,,,,,,,,,,,,,
294919,2022-11-28_24h42.48.031,vts_reward_expectancy_bt,2022.2.4,MacIntel,60.0024001,Chrome,1440,900,,,a,0.8868,1,55,0,0,9,9,10,1,0,0,0,1,0,1,0,0,star ,circle,,,,,,,,,,,,,,,,,,,,,,,,,,,,,,,,,,,,,,,,,,,,,,,,,,,,,,
294919,2022-11-28_24h42.48.031,vts_reward_expectancy_bt,2022.2.4,MacIntel,60.0024001,Chrome,1440,900,,,a,2.5888,10,65,0,0,10,10,8,1,0,0,1,0,0,0,0,1,hexagon,star,,,,,,,,,,,,,,,,,,,,,,,,,,,,,,,,,,,,,,,,,,,,,,,,,,,,,,
294919,2022-11-28_24h42.48.031,vts_reward_expectancy_bt,2022.2.4,MacIntel,60.0024001,Chrome,1440,900,,,a,1.2496,1,66,0,0,11,11,3,1,0,1,0,0,1,0,0,0,circle,triangle,,,,,,,,,,,,,,,,,,,,,,,,,,,,,,,,,,,,,,,,,,,,,,,,,,,,,,
294919,2022-11-28_24h42.48.031,vts_reward_expectancy_bt,2022.2.4,MacIntel,60.0024001,Chrome,1440,900,,,a,4.313,10,76,0,1,0,12,11,1,0,0,0,1,0,0,1,0,star,hexagon,,,,,,,,,,,,,,,,,,,,,,,,,,,,,,,,,,,,,,,,,,,,,,,,,,,,,,
294919,2022-11-28_24h42.48.031,vts_reward_expectancy_bt,2022.2.4,MacIntel,60.0024001,Chrome,1440,900,,,l,0.5457,10,86,0,1,1,13,4,1,0,1,0,0,0,0,1,0,circle,hexagon,,,,,,,,,,,,,,,,,,,,,,,,,,,,,,,,,,,,,,,,,,,,,,,,,,,,,,
294919,2022-11-28_24h42.48.031,vts_reward_expectancy_bt,2022.2.4,MacIntel,60.0024001,Chrome,1440,900,,,a,0.5444,1,87,0,1,2,14,2,1,1,0,0,0,0,0,0,1,triangle,star,,,,,,,,,,,,,,,,,,,,,,,,,,,,,,,,,,,,,,,,,,,,,,,,,,,,,,
294919,2022-11-28_24h42.48.031,vts_reward_expectancy_bt,2022.2.4,MacIntel,60.0024001,Chrome,1440,900,,,l,0.7651,1,88,0,1,3,15,0,1,1,0,0,0,0,1,0,0,triangle,circle,,,,,,,,,,,,,,,,,,,,,,,,,,,,,,,,,,,,,,,,,,,,,,,,,,,,,,
294919,2022-11-28_24h42.48.031,vts_reward_expectancy_bt,2022.2.4,MacIntel,60.0024001,Chrome,1440,900,,,l,0.9085,10,98,0,1,4,16,5,1,0,1,0,0,0,0,0,1,circle,star,,,,,,,,,,,,,,,,,,,,,,,,,,,,,,,,,,,,,,,,,,,,,,,,,,,,,,
294919,2022-11-28_24h42.48.031,vts_reward_expectancy_bt,2022.2.4,MacIntel,60.0024001,Chrome,1440,900,,,a,0.5138,1,99,0,1,5,17,6,1,0,0,1,0,1,0,0,0,hexagon,triangle,,,,,,,,,,,,,,,,,,,,,,,,,,,,,,,,,,,,,,,,,,,,,,,,,,,,,,
294919,2022-11-28_24h42.48.031,vts_reward_expectancy_bt,2022.2.4,MacIntel,60.0024001,Chrome,1440,900,,,l,1.4164,1,100,0,1,6,18,10,1,0,0,0,1,0,1,0,0,star ,circle,,,,,,,,,,,,,,,,,,,,,,,,,,,,,,,,,,,,,,,,,,,,,,,,,,,,,,
294919,2022-11-28_24h42.48.031,vts_reward_expectancy_bt,2022.2.4,MacIntel,60.0024001,Chrome,1440,900,,,a,0.7634,1,101,0,1,7,19,7,1,0,0,1,0,0,1,0,0,hexagon,circle,,,,,,,,,,,,,,,,,,,,,,,,,,,,,,,,,,,,,,,,,,,,,,,,,,,,,,
294919,2022-11-28_24h42.48.031,vts_reward_expectancy_bt,2022.2.4,MacIntel,60.0024001,Chrome,1440,900,,,a,1.6934,10,111,0,1,8,20,9,1,0,0,0,1,1,0,0,0,star,triangle,,,,,,,,,,,,,,,,,,,,,,,,,,,,,,,,,,,,,,,,,,,,,,,,,,,,,,
294919,2022-11-28_24h42.48.031,vts_reward_expectancy_bt,2022.2.4,MacIntel,60.0024001,Chrome,1440,900,,,l,0.969,10,121,0,1,9,21,1,1,1,0,0,0,0,0,1,0,triangle,hexagon,,,,,,,,,,,,,,,,,,,,,,,,,,,,,,,,,,,,,,,,,,,,,,,,,,,,,,
294919,2022-11-28_24h42.48.031,vts_reward_expectancy_bt,2022.2.4,MacIntel,60.0024001,Chrome,1440,900,,,l,2.0397,10,131,0,1,10,22,8,1,0,0,1,0,0,0,0,1,hexagon,star,,,,,,,,,,,,,,,,,,,,,,,,,,,,,,,,,,,,,,,,,,,,,,,,,,,,,,
294919,2022-11-28_24h42.48.031,vts_reward_expectancy_bt,2022.2.4,MacIntel,60.0024001,Chrome,1440,900,,,a,1.2166,1,132,0,1,11,23,3,1,0,1,0,0,1,0,0,0,circle,triangle,,,,,,,,,,,,,,,,,,,,,,,,,,,,,,,,,,,,,,,,,,,,,,,,,,,,,,
294919,2022-11-28_24h42.48.031,vts_reward_expectancy_bt,2022.2.4,MacIntel,60.0024001,Chrome,1440,900,,,l,1.3452,10,142,0,2,0,24,11,1,0,0,0,1,0,0,1,0,star,hexagon,,,,,,,,,,,,,,,,,,,,,,,,,,,,,,,,,,,,,,,,,,,,,,,,,,,,,,
294919,2022-11-28_24h42.48.031,vts_reward_expectancy_bt,2022.2.4,MacIntel,60.0024001,Chrome,1440,900,,,a,2.1527,10,152,0,2,1,25,5,1,0,1,0,0,0,0,0,1,circle,star,,,,,,,,,,,,,,,,,,,,,,,,,,,,,,,,,,,,,,,,,,,,,,,,,,,,,,
294919,2022-11-28_24h42.48.031,vts_reward_expectancy_bt,2022.2.4,MacIntel,60.0024001,Chrome,1440,900,,,l,1.3464,10,162,0,2,2,26,6,1,0,0,1,0,1,0,0,0,hexagon,triangle,,,,,,,,,,,,,,,,,,,,,,,,,,,,,,,,,,,,,,,,,,,,,,,,,,,,,,
294919,2022-11-28_24h42.48.031,vts_reward_expectancy_bt,2022.2.4,MacIntel,60.0024001,Chrome,1440,900,,,l,1.8793,1,163,0,2,3,27,10,1,0,0,0,1,0,1,0,0,star ,circle,,,,,,,,,,,,,,,,,,,,,,,,,,,,,,,,,,,,,,,,,,,,,,,,,,,,,,
294919,2022-11-28_24h42.48.031,vts_reward_expectancy_bt,2022.2.4,MacIntel,60.0024001,Chrome,1440,900,,,l,1.5424,1,164,0,2,4,28,3,1,0,1,0,0,1,0,0,0,circle,triangle,,,,,,,,,,,,,,,,,,,,,,,,,,,,,,,,,,,,,,,,,,,,,,,,,,,,,,
294919,2022-11-28_24h42.48.031,vts_reward_expectancy_bt,2022.2.4,MacIntel,60.0024001,Chrome,1440,900,,,l,1.0976,10,174,0,2,5,29,4,1,0,1,0,0,0,0,1,0,circle,hexagon,,,,,,,,,,,,,,,,,,,,,,,,,,,,,,,,,,,,,,,,,,,,,,,,,,,,,,
294919,2022-11-28_24h42.48.031,vts_reward_expectancy_bt,2022.2.4,MacIntel,60.0024001,Chrome,1440,900,,,a,1.9666,10,184,0,2,6,30,1,1,1,0,0,0,0,0,1,0,triangle,hexagon,,,,,,,,,,,,,,,,,,,,,,,,,,,,,,,,,,,,,,,,,,,,,,,,,,,,,,
294919,2022-11-28_24h42.48.031,vts_reward_expectancy_bt,2022.2.4,MacIntel,60.0024001,Chrome,1440,900,,,l,0.9948,10,194,0,2,7,31,8,1,0,0,1,0,0,0,0,1,hexagon,star,,,,,,,,,,,,,,,,,,,,,,,,,,,,,,,,,,,,,,,,,,,,,,,,,,,,,,
294919,2022-11-28_24h42.48.031,vts_reward_expectancy_bt,2022.2.4,MacIntel,60.0024001,Chrome,1440,900,,,l,1.6183,10,204,0,2,8,32,2,1,1,0,0,0,0,0,0,1,triangle,star,,,,,,,,,,,,,,,,,,,,,,,,,,,,,,,,,,,,,,,,,,,,,,,,,,,,,,
294919,2022-11-28_24h42.48.031,vts_reward_expectancy_bt,2022.2.4,MacIntel,60.0024001,Chrome,1440,900,,,a,2.3829,10,214,0,2,9,33,0,1,1,0,0,0,0,1,0,0,triangle,circle,,,,,,,,,,,,,,,,,,,,,,,,,,,,,,,,,,,,,,,,,,,,,,,,,,,,,,
294919,2022-11-28_24h42.48.031,vts_reward_expectancy_bt,2022.2.4,MacIntel,60.0024001,Chrome,1440,900,,,a,0.8705,10,224,0,2,10,34,7,1,0,0,1,0,0,1,0,0,hexagon,circle,,,,,,,,,,,,,,,,,,,,,,,,,,,,,,,,,,,,,,,,,,,,,,,,,,,,,,
294919,2022-11-28_24h42.48.031,vts_reward_expectancy_bt,2022.2.4,MacIntel,60.0024001,Chrome,1440,900,,,l,0.819,1,225,0,2,11,35,9,1,0,0,0,1,1,0,0,0,star,triangle,,,,,,,,,,,,,,,,,,,,,,,,,,,,,,,,,,,,,,,,,,,,,,,,,,,,,,
294919,2022-11-28_24h42.48.031,vts_reward_expectancy_bt,2022.2.4,MacIntel,60.0024001,Chrome,1440,900,,,a,0.9671,1,226,1,0,0,0,4,1,0,1,0,0,0,0,1,0,circle,hexagon,,,,,,,,,,,,,,,,,,,,,,,,,,,,,,,,,,,,,,,,,,,,,,,,,,,,,,
294919,2022-11-28_24h42.48.031,vts_reward_expectancy_bt,2022.2.4,MacIntel,60.0024001,Chrome,1440,900,,,l,0.4892,10,236,1,0,1,1,8,1,0,0,1,0,0,0,0,1,hexagon,star,,,,,,,,,,,,,,,,,,,,,,,,,,,,,,,,,,,,,,,,,,,,,,,,,,,,,,
294919,2022-11-28_24h42.48.031,vts_reward_expectancy_bt,2022.2.4,MacIntel,60.0024001,Chrome,1440,900,,,a,0.6004,10,246,1,0,2,2,7,1,0,0,1,0,0,1,0,0,hexagon,circle,,,,,,,,,,,,,,,,,,,,,,,,,,,,,,,,,,,,,,,,,,,,,,,,,,,,,,
294919,2022-11-28_24h42.48.031,vts_reward_expectancy_bt,2022.2.4,MacIntel,60.0024001,Chrome,1440,900,,,l,0.5301,10,256,1,0,3,3,5,1,0,1,0,0,0,0,0,1,circle,star,,,,,,,,,,,,,,,,,,,,,,,,,,,,,,,,,,,,,,,,,,,,,,,,,,,,,,
294919,2022-11-28_24h42.48.031,vts_reward_expectancy_bt,2022.2.4,MacIntel,60.0024001,Chrome,1440,900,,,l,1.2141,1,257,1,0,4,4,10,1,0,0,0,1,0,1,0,0,star ,circle,,,,,,,,,,,,,,,,,,,,,,,,,,,,,,,,,,,,,,,,,,,,,,,,,,,,,,
294919,2022-11-28_24h42.48.031,vts_reward_expectancy_bt,2022.2.4,MacIntel,60.0024001,Chrome,1440,900,,,a,0.5528,10,267,1,0,5,5,11,1,0,0,0,1,0,0,1,0,star,hexagon,,,,,,,,,,,,,,,,,,,,,,,,,,,,,,,,,,,,,,,,,,,,,,,,,,,,,,
294919,2022-11-28_24h42.48.031,vts_reward_expectancy_bt,2022.2.4,MacIntel,60.0024001,Chrome,1440,900,,,l,0.651,1,268,1,0,6,6,9,1,0,0,0,1,1,0,0,0,star,triangle,,,,,,,,,,,,,,,,,,,,,,,,,,,,,,,,,,,,,,,,,,,,,,,,,,,,,,
294919,2022-11-28_24h42.48.031,vts_reward_expectancy_bt,2022.2.4,MacIntel,60.0024001,Chrome,1440,900,,,l,1.2172,1,269,1,0,7,7,0,1,1,0,0,0,0,1,0,0,triangle,circle,,,,,,,,,,,,,,,,,,,,,,,,,,,,,,,,,,,,,,,,,,,,,,,,,,,,,,
294919,2022-11-28_24h42.48.031,vts_reward_expectancy_bt,2022.2.4,MacIntel,60.0024001,Chrome,1440,900,,,l,0.9991,10,279,1,0,8,8,2,1,1,0,0,0,0,0,0,1,triangle,star,,,,,,,,,,,,,,,,,,,,,,,,,,,,,,,,,,,,,,,,,,,,,,,,,,,,,,
294919,2022-11-28_24h42.48.031,vts_reward_expectancy_bt,2022.2.4,MacIntel,60.0024001,Chrome,1440,900,,,a,0.9523,1,280,1,0,9,9,1,1,1,0,0,0,0,0,1,0,triangle,hexagon,,,,,,,,,,,,,,,,,,,,,,,,,,,,,,,,,,,,,,,,,,,,,,,,,,,,,,
294919,2022-11-28_24h42.48.031,vts_reward_expectancy_bt,2022.2.4,MacIntel,60.0024001,Chrome,1440,900,,,l,0.3679,10,290,1,0,10,10,6,1,0,0,1,0,1,0,0,0,hexagon,triangle,,,,,,,,,,,,,,,,,,,,,,,,,,,,,,,,,,,,,,,,,,,,,,,,,,,,,,
294919,2022-11-28_24h42.48.031,vts_reward_expectancy_bt,2022.2.4,MacIntel,60.0024001,Chrome,1440,900,,,l,0.7174,1,291,1,0,11,11,3,1,0,1,0,0,1,0,0,0,circle,triangle,,,,,,,,,,,,,,,,,,,,,,,,,,,,,,,,,,,,,,,,,,,,,,,,,,,,,,
294919,2022-11-28_24h42.48.031,vts_reward_expectancy_bt,2022.2.4,MacIntel,60.0024001,Chrome,1440,900,,,l,0.6006,1,292,1,1,0,12,0,1,1,0,0,0,0,1,0,0,triangle,circle,,,,,,,,,,,,,,,,,,,,,,,,,,,,,,,,,,,,,,,,,,,,,,,,,,,,,,
294919,2022-11-28_24h42.48.031,vts_reward_expectancy_bt,2022.2.4,MacIntel,60.0024001,Chrome,1440,900,,,l,0.3527,10,302,1,1,1,13,9,1,0,0,0,1,1,0,0,0,star,triangle,,,,,,,,,,,,,,,,,,,,,,,,,,,,,,,,,,,,,,,,,,,,,,,,,,,,,,
294919,2022-11-28_24h42.48.031,vts_reward_expectancy_bt,2022.2.4,MacIntel,60.0024001,Chrome,1440,900,,,l,0.4758,1,303,1,1,2,14,10,1,0,0,0,1,0,1,0,0,star ,circle,,,,,,,,,,,,,,,,,,,,,,,,,,,,,,,,,,,,,,,,,,,,,,,,,,,,,,
294919,2022-11-28_24h42.48.031,vts_reward_expectancy_bt,2022.2.4,MacIntel,60.0024001,Chrome,1440,900,,,l,0.5268,10,313,1,1,3,15,11,1,0,0,0,1,0,0,1,0,star,hexagon,,,,,,,,,,,,,,,,,,,,,,,,,,,,,,,,,,,,,,,,,,,,,,,,,,,,,,
294919,2022-11-28_24h42.48.031,vts_reward_expectancy_bt,2022.2.4,MacIntel,60.0024001,Chrome,1440,900,,,l,0.3825,10,323,1,1,4,16,1,1,1,0,0,0,0,0,1,0,triangle,hexagon,,,,,,,,,,,,,,,,,,,,,,,,,,,,,,,,,,,,,,,,,,,,,,,,,,,,,,
294919,2022-11-28_24h42.48.031,vts_reward_expectancy_bt,2022.2.4,MacIntel,60.0024001,Chrome,1440,900,,,l,0.3074,10,333,1,1,5,17,6,1,0,0,1,0,1,0,0,0,hexagon,triangle,,,,,,,,,,,,,,,,,,,,,,,,,,,,,,,,,,,,,,,,,,,,,,,,,,,,,,
294919,2022-11-28_24h42.48.031,vts_reward_expectancy_bt,2022.2.4,MacIntel,60.0024001,Chrome,1440,900,,,a,0.4933,10,343,1,1,6,18,3,1,0,1,0,0,1,0,0,0,circle,triangle,,,,,,,,,,,,,,,,,,,,,,,,,,,,,,,,,,,,,,,,,,,,,,,,,,,,,,
294919,2022-11-28_24h42.48.031,vts_reward_expectancy_bt,2022.2.4,MacIntel,60.0024001,Chrome,1440,900,,,a,0.409,10,353,1,1,7,19,7,1,0,0,1,0,0,1,0,0,hexagon,circle,,,,,,,,,,,,,,,,,,,,,,,,,,,,,,,,,,,,,,,,,,,,,,,,,,,,,,
294919,2022-11-28_24h42.48.031,vts_reward_expectancy_bt,2022.2.4,MacIntel,60.0024001,Chrome,1440,900,,,a,0.5494,1,354,1,1,8,20,2,1,1,0,0,0,0,0,0,1,triangle,star,,,,,,,,,,,,,,,,,,,,,,,,,,,,,,,,,,,,,,,,,,,,,,,,,,,,,,
294919,2022-11-28_24h42.48.031,vts_reward_expectancy_bt,2022.2.4,MacIntel,60.0024001,Chrome,1440,900,,,l,0.7024,10,364,1,1,9,21,8,1,0,0,1,0,0,0,0,1,hexagon,star,,,,,,,,,,,,,,,,,,,,,,,,,,,,,,,,,,,,,,,,,,,,,,,,,,,,,,
294919,2022-11-28_24h42.48.031,vts_reward_expectancy_bt,2022.2.4,MacIntel,60.0024001,Chrome,1440,900,,,a,0.3549,10,374,1,1,10,22,5,1,0,1,0,0,0,0,0,1,circle,star,,,,,,,,,,,,,,,,,,,,,,,,,,,,,,,,,,,,,,,,,,,,,,,,,,,,,,
294919,2022-11-28_24h42.48.031,vts_reward_expectancy_bt,2022.2.4,MacIntel,60.0024001,Chrome,1440,900,,,l,0.3933,10,384,1,1,11,23,4,1,0,1,0,0,0,0,1,0,circle,hexagon,,,,,,,,,,,,,,,,,,,,,,,,,,,,,,,,,,,,,,,,,,,,,,,,,,,,,,
294919,2022-11-28_24h42.48.031,vts_reward_expectancy_bt,2022.2.4,MacIntel,60.0024001,Chrome,1440,900,,,a,0.3605,10,394,1,2,0,24,8,1,0,0,1,0,0,0,0,1,hexagon,star,,,,,,,,,,,,,,,,,,,,,,,,,,,,,,,,,,,,,,,,,,,,,,,,,,,,,,
294919,2022-11-28_24h42.48.031,vts_reward_expectancy_bt,2022.2.4,MacIntel,60.0024001,Chrome,1440,900,,,l,0.5131,10,404,1,2,1,25,4,1,0,1,0,0,0,0,1,0,circle,hexagon,,,,,,,,,,,,,,,,,,,,,,,,,,,,,,,,,,,,,,,,,,,,,,,,,,,,,,
294919,2022-11-28_24h42.48.031,vts_reward_expectancy_bt,2022.2.4,MacIntel,60.0024001,Chrome,1440,900,,,a,0.4917,1,405,1,2,2,26,3,1,0,1,0,0,1,0,0,0,circle,triangle,,,,,,,,,,,,,,,,,,,,,,,,,,,,,,,,,,,,,,,,,,,,,,,,,,,,,,
294919,2022-11-28_24h42.48.031,vts_reward_expectancy_bt,2022.2.4,MacIntel,60.0024001,Chrome,1440,900,,,l,0.5726,1,406,1,2,3,27,9,1,0,0,0,1,1,0,0,0,star,triangle,,,,,,,,,,,,,,,,,,,,,,,,,,,,,,,,,,,,,,,,,,,,,,,,,,,,,,
294919,2022-11-28_24h42.48.031,vts_reward_expectancy_bt,2022.2.4,MacIntel,60.0024001,Chrome,1440,900,,,a,0.5796,10,416,1,2,4,28,1,1,1,0,0,0,0,0,1,0,triangle,hexagon,,,,,,,,,,,,,,,,,,,,,,,,,,,,,,,,,,,,,,,,,,,,,,,,,,,,,,
294919,2022-11-28_24h42.48.031,vts_reward_expectancy_bt,2022.2.4,MacIntel,60.0024001,Chrome,1440,900,,,a,0.5182,1,417,1,2,5,29,2,1,1,0,0,0,0,0,0,1,triangle,star,,,,,,,,,,,,,,,,,,,,,,,,,,,,,,,,,,,,,,,,,,,,,,,,,,,,,,
294919,2022-11-28_24h42.48.031,vts_reward_expectancy_bt,2022.2.4,MacIntel,60.0024001,Chrome,1440,900,,,l,1.1112,1,418,1,2,6,30,10,1,0,0,0,1,0,1,0,0,star ,circle,,,,,,,,,,,,,,,,,,,,,,,,,,,,,,,,,,,,,,,,,,,,,,,,,,,,,,
294919,2022-11-28_24h42.48.031,vts_reward_expectancy_bt,2022.2.4,MacIntel,60.0024001,Chrome,1440,900,,,a,0.6844,10,428,1,2,7,31,0,1,1,0,0,0,0,1,0,0,triangle,circle,,,,,,,,,,,,,,,,,,,,,,,,,,,,,,,,,,,,,,,,,,,,,,,,,,,,,,
294919,2022-11-28_24h42.48.031,vts_reward_expectancy_bt,2022.2.4,MacIntel,60.0024001,Chrome,1440,900,,,a,0.6187,10,438,1,2,8,32,11,1,0,0,0,1,0,0,1,0,star,hexagon,,,,,,,,,,,,,,,,,,,,,,,,,,,,,,,,,,,,,,,,,,,,,,,,,,,,,,
294919,2022-11-28_24h42.48.031,vts_reward_expectancy_bt,2022.2.4,MacIntel,60.0024001,Chrome,1440,900,,,a,0.4636,10,448,1,2,9,33,5,1,0,1,0,0,0,0,0,1,circle,star,,,,,,,,,,,,,,,,,,,,,,,,,,,,,,,,,,,,,,,,,,,,,,,,,,,,,,
294919,2022-11-28_24h42.48.031,vts_reward_expectancy_bt,2022.2.4,MacIntel,60.0024001,Chrome,1440,900,,,a,0.5478,1,449,1,2,10,34,7,1,0,0,1,0,0,1,0,0,hexagon,circle,,,,,,,,,,,,,,,,,,,,,,,,,,,,,,,,,,,,,,,,,,,,,,,,,,,,,,
294919,2022-11-28_24h42.48.031,vts_reward_expectancy_bt,2022.2.4,MacIntel,60.0024001,Chrome,1440,900,,,a,0.5744,10,459,1,2,11,35,6,1,0,0,1,0,1,0,0,0,hexagon,triangle,,,,,,,,,,,,,,,,,,,,,,,,,,,,,,,,,,,,,,,,,,,,,,,,,,,,,,
294919,2022-11-28_24h42.48.031,vts_reward_expectancy_bt,2022.2.4,MacIntel,60.0024001,Chrome,1440,900,,,a,0.6445,1,460,2,0,0,0,9,1,0,0,0,1,1,0,0,0,star,triangle,,,,,,,,,,,,,,,,,,,,,,,,,,,,,,,,,,,,,,,,,,,,,,,,,,,,,,
294919,2022-11-28_24h42.48.031,vts_reward_expectancy_bt,2022.2.4,MacIntel,60.0024001,Chrome,1440,900,,,a,0.3206,1,461,2,0,1,1,1,1,1,0,0,0,0,0,1,0,triangle,hexagon,,,,,,,,,,,,,,,,,,,,,,,,,,,,,,,,,,,,,,,,,,,,,,,,,,,,,,
294919,2022-11-28_24h42.48.031,vts_reward_expectancy_bt,2022.2.4,MacIntel,60.0024001,Chrome,1440,900,,,l,0.4379,10,471,2,0,2,2,8,1,0,0,1,0,0,0,0,1,hexagon,star,,,,,,,,,,,,,,,,,,,,,,,,,,,,,,,,,,,,,,,,,,,,,,,,,,,,,,
294919,2022-11-28_24h42.48.031,vts_reward_expectancy_bt,2022.2.4,MacIntel,60.0024001,Chrome,1440,900,,,a,0.4514,1,472,2,0,3,3,3,1,0,1,0,0,1,0,0,0,circle,triangle,,,,,,,,,,,,,,,,,,,,,,,,,,,,,,,,,,,,,,,,,,,,,,,,,,,,,,
294919,2022-11-28_24h42.48.031,vts_reward_expectancy_bt,2022.2.4,MacIntel,60.0024001,Chrome,1440,900,,,l,0.5317,10,482,2,0,4,4,10,1,0,0,0,1,0,1,0,0,star ,circle,,,,,,,,,,,,,,,,,,,,,,,,,,,,,,,,,,,,,,,,,,,,,,,,,,,,,,
294919,2022-11-28_24h42.48.031,vts_reward_expectancy_bt,2022.2.4,MacIntel,60.0024001,Chrome,1440,900,,,l,0.4024,1,483,2,0,5,5,7,1,0,0,1,0,0,1,0,0,hexagon,circle,,,,,,,,,,,,,,,,,,,,,,,,,,,,,,,,,,,,,,,,,,,,,,,,,,,,,,
294919,2022-11-28_24h42.48.031,vts_reward_expectancy_bt,2022.2.4,MacIntel,60.0024001,Chrome,1440,900,,,a,0.4044,1,484,2,0,6,6,4,1,0,1,0,0,0,0,1,0,circle,hexagon,,,,,,,,,,,,,,,,,,,,,,,,,,,,,,,,,,,,,,,,,,,,,,,,,,,,,,
294919,2022-11-28_24h42.48.031,vts_reward_expectancy_bt,2022.2.4,MacIntel,60.0024001,Chrome,1440,900,,,l,0.4139,1,485,2,0,7,7,6,1,0,0,1,0,1,0,0,0,hexagon,triangle,,,,,,,,,,,,,,,,,,,,,,,,,,,,,,,,,,,,,,,,,,,,,,,,,,,,,,
294919,2022-11-28_24h42.48.031,vts_reward_expectancy_bt,2022.2.4,MacIntel,60.0024001,Chrome,1440,900,,,a,0.6885,1,486,2,0,8,8,0,1,1,0,0,0,0,1,0,0,triangle,circle,,,,,,,,,,,,,,,,,,,,,,,,,,,,,,,,,,,,,,,,,,,,,,,,,,,,,,
294919,2022-11-28_24h42.48.031,vts_reward_expectancy_bt,2022.2.4,MacIntel,60.0024001,Chrome,1440,900,,,a,0.5668,1,487,2,0,9,9,11,1,0,0,0,1,0,0,1,0,star,hexagon,,,,,,,,,,,,,,,,,,,,,,,,,,,,,,,,,,,,,,,,,,,,,,,,,,,,,,
294919,2022-11-28_24h42.48.031,vts_reward_expectancy_bt,2022.2.4,MacIntel,60.0024001,Chrome,1440,900,,,l,0.6083,10,497,2,0,10,10,5,1,0,1,0,0,0,0,0,1,circle,star,,,,,,,,,,,,,,,,,,,,,,,,,,,,,,,,,,,,,,,,,,,,,,,,,,,,,,
294919,2022-11-28_24h42.48.031,vts_reward_expectancy_bt,2022.2.4,MacIntel,60.0024001,Chrome,1440,900,,,l,0.5675,10,507,2,0,11,11,2,1,1,0,0,0,0,0,0,1,triangle,star,,,,,,,,,,,,,,,,,,,,,,,,,,,,,,,,,,,,,,,,,,,,,,,,,,,,,,
294919,2022-11-28_24h42.48.031,vts_reward_expectancy_bt,2022.2.4,MacIntel,60.0024001,Chrome,1440,900,,,a,0.5597,10,517,2,1,0,12,6,1,0,0,1,0,1,0,0,0,hexagon,triangle,,,,,,,,,,,,,,,,,,,,,,,,,,,,,,,,,,,,,,,,,,,,,,,,,,,,,,
294919,2022-11-28_24h42.48.031,vts_reward_expectancy_bt,2022.2.4,MacIntel,60.0024001,Chrome,1440,900,,,a,0.5725,10,527,2,1,1,13,5,1,0,1,0,0,0,0,0,1,circle,star,,,,,,,,,,,,,,,,,,,,,,,,,,,,,,,,,,,,,,,,,,,,,,,,,,,,,,
294919,2022-11-28_24h42.48.031,vts_reward_expectancy_bt,2022.2.4,MacIntel,60.0024001,Chrome,1440,900,,,a,0.5684,1,528,2,1,2,14,3,1,0,1,0,0,1,0,0,0,circle,triangle,,,,,,,,,,,,,,,,,,,,,,,,,,,,,,,,,,,,,,,,,,,,,,,,,,,,,,
294919,2022-11-28_24h42.48.031,vts_reward_expectancy_bt,2022.2.4,MacIntel,60.0024001,Chrome,1440,900,,,l,0.5956,1,529,2,1,3,15,9,1,0,0,0,1,1,0,0,0,star,triangle,,,,,,,,,,,,,,,,,,,,,,,,,,,,,,,,,,,,,,,,,,,,,,,,,,,,,,
294919,2022-11-28_24h42.48.031,vts_reward_expectancy_bt,2022.2.4,MacIntel,60.0024001,Chrome,1440,900,,,a,0.6737,1,530,2,1,4,16,0,1,1,0,0,0,0,1,0,0,triangle,circle,,,,,,,,,,,,,,,,,,,,,,,,,,,,,,,,,,,,,,,,,,,,,,,,,,,,,,
294919,2022-11-28_24h42.48.031,vts_reward_expectancy_bt,2022.2.4,MacIntel,60.0024001,Chrome,1440,900,,,a,0.7447,10,540,2,1,5,17,11,1,0,0,0,1,0,0,1,0,star,hexagon,,,,,,,,,,,,,,,,,,,,,,,,,,,,,,,,,,,,,,,,,,,,,,,,,,,,,,
294919,2022-11-28_24h42.48.031,vts_reward_expectancy_bt,2022.2.4,MacIntel,60.0024001,Chrome,1440,900,,,l,0.6126,10,550,2,1,6,18,1,1,1,0,0,0,0,0,1,0,triangle,hexagon,,,,,,,,,,,,,,,,,,,,,,,,,,,,,,,,,,,,,,,,,,,,,,,,,,,,,,
294919,2022-11-28_24h42.48.031,vts_reward_expectancy_bt,2022.2.4,MacIntel,60.0024001,Chrome,1440,900,,,a,0.5524,10,560,2,1,7,19,10,1,0,0,0,1,0,1,0,0,star ,circle,,,,,,,,,,,,,,,,,,,,,,,,,,,,,,,,,,,,,,,,,,,,,,,,,,,,,,
294919,2022-11-28_24h42.48.031,vts_reward_expectancy_bt,2022.2.4,MacIntel,60.0024001,Chrome,1440,900,,,l,0.4928,1,561,2,1,8,20,2,1,1,0,0,0,0,0,0,1,triangle,star,,,,,,,,,,,,,,,,,,,,,,,,,,,,,,,,,,,,,,,,,,,,,,,,,,,,,,
294919,2022-11-28_24h42.48.031,vts_reward_expectancy_bt,2022.2.4,MacIntel,60.0024001,Chrome,1440,900,,,l,0.8839,1,562,2,1,9,21,8,1,0,0,1,0,0,0,0,1,hexagon,star,,,,,,,,,,,,,,,,,,,,,,,,,,,,,,,,,,,,,,,,,,,,,,,,,,,,,,
294919,2022-11-28_24h42.48.031,vts_reward_expectancy_bt,2022.2.4,MacIntel,60.0024001,Chrome,1440,900,,,l,0.1668,1,563,2,1,10,22,7,1,0,0,1,0,0,1,0,0,hexagon,circle,,,,,,,,,,,,,,,,,,,,,,,,,,,,,,,,,,,,,,,,,,,,,,,,,,,,,,
294919,2022-11-28_24h42.48.031,vts_reward_expectancy_bt,2022.2.4,MacIntel,60.0024001,Chrome,1440,900,,,a,0.1911,1,564,2,1,11,23,4,1,0,1,0,0,0,0,1,0,circle,hexagon,,,,,,,,,,,,,,,,,,,,,,,,,,,,,,,,,,,,,,,,,,,,,,,,,,,,,,
294919,2022-11-28_24h42.48.031,vts_reward_expectancy_bt,2022.2.4,MacIntel,60.0024001,Chrome,1440,900,,,l,0.1892,1,565,2,2,0,24,4,1,0,1,0,0,0,0,1,0,circle,hexagon,,,,,,,,,,,,,,,,,,,,,,,,,,,,,,,,,,,,,,,,,,,,,,,,,,,,,,
294919,2022-11-28_24h42.48.031,vts_reward_expectancy_bt,2022.2.4,MacIntel,60.0024001,Chrome,1440,900,,,a,0.1939,1,566,2,2,1,25,2,1,1,0,0,0,0,0,0,1,triangle,star,,,,,,,,,,,,,,,,,,,,,,,,,,,,,,,,,,,,,,,,,,,,,,,,,,,,,,
294919,2022-11-28_24h42.48.031,vts_reward_expectancy_bt,2022.2.4,MacIntel,60.0024001,Chrome,1440,900,,,l,1.1985,1,567,2,2,2,26,0,1,1,0,0,0,0,1,0,0,triangle,circle,,,,,,,,,,,,,,,,,,,,,,,,,,,,,,,,,,,,,,,,,,,,,,,,,,,,,,
294919,2022-11-28_24h42.48.031,vts_reward_expectancy_bt,2022.2.4,MacIntel,60.0024001,Chrome,1440,900,,,a,0.4278,10,577,2,2,3,27,11,1,0,0,0,1,0,0,1,0,star,hexagon,,,,,,,,,,,,,,,,,,,,,,,,,,,,,,,,,,,,,,,,,,,,,,,,,,,,,,
294919,2022-11-28_24h42.48.031,vts_reward_expectancy_bt,2022.2.4,MacIntel,60.0024001,Chrome,1440,900,,,a,0.5563,10,587,2,2,4,28,7,1,0,0,1,0,0,1,0,0,hexagon,circle,,,,,,,,,,,,,,,,,,,,,,,,,,,,,,,,,,,,,,,,,,,,,,,,,,,,,,
294919,2022-11-28_24h42.48.031,vts_reward_expectancy_bt,2022.2.4,MacIntel,60.0024001,Chrome,1440,900,,,a,1.2655,10,597,2,2,5,29,9,1,0,0,0,1,1,0,0,0,star,triangle,,,,,,,,,,,,,,,,,,,,,,,,,,,,,,,,,,,,,,,,,,,,,,,,,,,,,,
294919,2022-11-28_24h42.48.031,vts_reward_expectancy_bt,2022.2.4,MacIntel,60.0024001,Chrome,1440,900,,,a,0.3656,1,598,2,2,6,30,3,1,0,1,0,0,1,0,0,0,circle,triangle,,,,,,,,,,,,,,,,,,,,,,,,,,,,,,,,,,,,,,,,,,,,,,,,,,,,,,
294919,2022-11-28_24h42.48.031,vts_reward_expectancy_bt,2022.2.4,MacIntel,60.0024001,Chrome,1440,900,,,a,0.4537,10,608,2,2,7,31,6,1,0,0,1,0,1,0,0,0,hexagon,triangle,,,,,,,,,,,,,,,,,,,,,,,,,,,,,,,,,,,,,,,,,,,,,,,,,,,,,,
294919,2022-11-28_24h42.48.031,vts_reward_expectancy_bt,2022.2.4,MacIntel,60.0024001,Chrome,1440,900,,,l,0.4271,10,618,2,2,8,32,1,1,1,0,0,0,0,0,1,0,triangle,hexagon,,,,,,,,,,,,,,,,,,,,,,,,,,,,,,,,,,,,,,,,,,,,,,,,,,,,,,
294919,2022-11-28_24h42.48.031,vts_reward_expectancy_bt,2022.2.4,MacIntel,60.0024001,Chrome,1440,900,,,a,0.4212,10,628,2,2,9,33,10,1,0,0,0,1,0,1,0,0,star ,circle,,,,,,,,,,,,,,,,,,,,,,,,,,,,,,,,,,,,,,,,,,,,,,,,,,,,,,
294919,2022-11-28_24h42.48.031,vts_reward_expectancy_bt,2022.2.4,MacIntel,60.0024001,Chrome,1440,900,,,a,0.3867,10,638,2,2,10,34,8,1,0,0,1,0,0,0,0,1,hexagon,star,,,,,,,,,,,,,,,,,,,,,,,,,,,,,,,,,,,,,,,,,,,,,,,,,,,,,,
294919,2022-11-28_24h42.48.031,vts_reward_expectancy_bt,2022.2.4,MacIntel,60.0024001,Chrome,1440,900,,,l,0.5888,10,648,2,2,11,35,5,1,0,1,0,0,0,0,0,1,circle,star,,,,,,,,,,,,,,,,,,,,,,,,,,,,,,,,,,,,,,,,,,,,,,,,,,,,,,
294919,2022-11-28_24h42.48.031,vts_reward_expectancy_bt,2022.2.4,MacIntel,60.0024001,Chrome,1440,900,,,,,,,,,,,,,,,,,,,,,,,174,B,star,0,0,d,2.8823,0,0,0,0,0,1,,,,,,,,,,,,,,,,,,,,,,,,,,,,,,,,,,,,,,,,,
294919,2022-11-28_24h42.48.031,vts_reward_expectancy_bt,2022.2.4,MacIntel,60.0024001,Chrome,1440,900,,,,,,,,,,,,,,,,,,,,,,,160,F,circle,0,1,d,2.164,0,1,0,1,0,1,,,,,,,,,,,,,,,,,,,,,,,,,,,,,,,,,,,,,,,,,
294919,2022-11-28_24h42.48.031,vts_reward_expectancy_bt,2022.2.4,MacIntel,60.0024001,Chrome,1440,900,,,,,,,,,,,,,,,,,,,,,,,181,W,hexagon,0,1,d,0.4276,0,2,0,2,0,1,,,,,,,,,,,,,,,,,,,,,,,,,,,,,,,,,,,,,,,,,
294919,2022-11-28_24h42.48.031,vts_reward_expectancy_bt,2022.2.4,MacIntel,60.0024001,Chrome,1440,900,,,,,,,,,,,,,,,,,,,,,,,146,U,triangle,0,1,f,0.4982,0,3,0,3,0,1,,,,,,,,,,,,,,,,,,,,,,,,,,,,,,,,,,,,,,,,,
294919,2022-11-28_24h42.48.031,vts_reward_expectancy_bt,2022.2.4,MacIntel,60.0024001,Chrome,1440,900,,,,,,,,,,,,,,,,,,,,,,,125,D,star,1,1,d,0.4191,0,4,0,4,0,1,,,,,,,,,,,,,,,,,,,,,,,,,,,,,,,,,,,,,,,,,
294919,2022-11-28_24h42.48.031,vts_reward_expectancy_bt,2022.2.4,MacIntel,60.0024001,Chrome,1440,900,,,,,,,,,,,,,,,,,,,,,,,139,H,circle,1,0,d,1.8356,0,5,0,5,0,1,,,,,,,,,,,,,,,,,,,,,,,,,,,,,,,,,,,,,,,,,
294919,2022-11-28_24h42.48.031,vts_reward_expectancy_bt,2022.2.4,MacIntel,60.0024001,Chrome,1440,900,,,,,,,,,,,,,,,,,,,,,,,167,S,hexagon,0,0,d,0.793,0,6,0,6,0,1,,,,,,,,,,,,,,,,,,,,,,,,,,,,,,,,,,,,,,,,,
294919,2022-11-28_24h42.48.031,vts_reward_expectancy_bt,2022.2.4,MacIntel,60.0024001,Chrome,1440,900,,,,,,,,,,,,,,,,,,,,,,,132,Y,triangle,1,1,d,0.7631,0,7,0,7,0,1,,,,,,,,,,,,,,,,,,,,,,,,,,,,,,,,,,,,,,,,,
294919,2022-11-28_24h42.48.031,vts_reward_expectancy_bt,2022.2.4,MacIntel,60.0024001,Chrome,1440,900,,,,,,,,,,,,,,,,,,,,,,,174,B,star,0,0,d,0.5306,0,8,0,8,0,1,,,,,,,,,,,,,,,,,,,,,,,,,,,,,,,,,,,,,,,,,
294919,2022-11-28_24h42.48.031,vts_reward_expectancy_bt,2022.2.4,MacIntel,60.0024001,Chrome,1440,900,,,,,,,,,,,,,,,,,,,,,,,160,F,triangle,1,1,f,0.3777,0,9,0,9,0,1,,,,,,,,,,,,,,,,,,,,,,,,,,,,,,,,,,,,,,,,,
294919,2022-11-28_24h42.48.031,vts_reward_expectancy_bt,2022.2.4,MacIntel,60.0024001,Chrome,1440,900,,,,,,,,,,,,,,,,,,,,,,,139,S,star,1,0,d,0.8383,1,0,0,0,0,1,,,,,,,,,,,,,,,,,,,,,,,,,,,,,,,,,,,,,,,,,
294919,2022-11-28_24h42.48.031,vts_reward_expectancy_bt,2022.2.4,MacIntel,60.0024001,Chrome,1440,900,,,,,,,,,,,,,,,,,,,,,,,174,B,triangle,1,0,f,0.5532,1,1,0,1,0,1,,,,,,,,,,,,,,,,,,,,,,,,,,,,,,,,,,,,,,,,,
294919,2022-11-28_24h42.48.031,vts_reward_expectancy_bt,2022.2.4,MacIntel,60.0024001,Chrome,1440,900,,,,,,,,,,,,,,,,,,,,,,,125,Y,circle,1,0,d,0.5809,1,2,0,2,0,1,,,,,,,,,,,,,,,,,,,,,,,,,,,,,,,,,,,,,,,,,
294919,2022-11-28_24h42.48.031,vts_reward_expectancy_bt,2022.2.4,MacIntel,60.0024001,Chrome,1440,900,,,,,,,,,,,,,,,,,,,,,,,132,F,hexagon,1,0,d,0.9788,1,3,0,3,0,1,,,,,,,,,,,,,,,,,,,,,,,,,,,,,,,,,,,,,,,,,
294919,2022-11-28_24h42.48.031,vts_reward_expectancy_bt,2022.2.4,MacIntel,60.0024001,Chrome,1440,900,,,,,,,,,,,,,,,,,,,,,,,167,U,star,1,0,f,1.0476,1,4,0,4,0,1,,,,,,,,,,,,,,,,,,,,,,,,,,,,,,,,,,,,,,,,,
294919,2022-11-28_24h42.48.031,vts_reward_expectancy_bt,2022.2.4,MacIntel,60.0024001,Chrome,1440,900,,,,,,,,,,,,,,,,,,,,,,,146,D,triangle,1,0,d,0.9867,1,5,0,5,0,1,,,,,,,,,,,,,,,,,,,,,,,,,,,,,,,,,,,,,,,,,
294919,2022-11-28_24h42.48.031,vts_reward_expectancy_bt,2022.2.4,MacIntel,60.0024001,Chrome,1440,900,,,,,,,,,,,,,,,,,,,,,,,181,H,circle,1,0,f,0.9681,1,6,0,6,0,1,,,,,,,,,,,,,,,,,,,,,,,,,,,,,,,,,,,,,,,,,
294919,2022-11-28_24h42.48.031,vts_reward_expectancy_bt,2022.2.4,MacIntel,60.0024001,Chrome,1440,900,,,,,,,,,,,,,,,,,,,,,,,160,W,hexagon,0,0,,,1,7,0,7,0,1,,,,,,,,,,,,,,,,,,,,,,,,,,,,,,,,,,,,,,,,,
294919,2022-11-28_24h42.48.031,vts_reward_expectancy_bt,2022.2.4,MacIntel,60.0024001,Chrome,1440,900,,,,,,,,,,,,,,,,,,,,,,,139,S,circle,1,1,d,0.9986,1,8,0,8,0,1,,,,,,,,,,,,,,,,,,,,,,,,,,,,,,,,,,,,,,,,,
294919,2022-11-28_24h42.48.031,vts_reward_expectancy_bt,2022.2.4,MacIntel,60.0024001,Chrome,1440,900,,,,,,,,,,,,,,,,,,,,,,,174,B,star,1,0,f,0.6968,1,9,0,9,0,1,,,,,,,,,,,,,,,,,,,,,,,,,,,,,,,,,,,,,,,,,
294919,2022-11-28_24h42.48.031,vts_reward_expectancy_bt,2022.2.4,MacIntel,60.0024001,Chrome,1440,900,,,,,,,,,,,,,,,,,,,,,,,125,Y,triangle,2,0,,,2,,,,,,d,0.8671,0,0,0,0,1,,,,,,,,,,,,,,,,,,,,,,,,,,,,,,,,,,
294919,2022-11-28_24h42.48.031,vts_reward_expectancy_bt,2022.2.4,MacIntel,60.0024001,Chrome,1440,900,,,,,,,,,,,,,,,,,,,,,,,132,F,circle,2,0,,,2,,,,,,d,2.1705,1,0,1,0,1,,,,,,,,,,,,,,,,,,,,,,,,,,,,,,,,,,
294919,2022-11-28_24h42.48.031,vts_reward_expectancy_bt,2022.2.4,MacIntel,60.0024001,Chrome,1440,900,,,,,,,,,,,,,,,,,,,,,,,146,W,star,0,0,,,2,,,,,,j,0.3817,2,0,2,0,1,,,,,,,,,,,,,,,,,,,,,,,,,,,,,,,,,,
294919,2022-11-28_24h42.48.031,vts_reward_expectancy_bt,2022.2.4,MacIntel,60.0024001,Chrome,1440,900,,,,,,,,,,,,,,,,,,,,,,,139,H,hexagon,0,1,,,2,,,,,,k,0.5138,3,0,3,0,1,,,,,,,,,,,,,,,,,,,,,,,,,,,,,,,,,,
294919,2022-11-28_24h42.48.031,vts_reward_expectancy_bt,2022.2.4,MacIntel,60.0024001,Chrome,1440,900,,,,,,,,,,,,,,,,,,,,,,,160,D,triangle,0,1,,,2,,,,,,,,4,0,4,0,1,,,,,,,,,,,,,,,,,,,,,,,,,,,,,,,,,,
294919,2022-11-28_24h42.48.031,vts_reward_expectancy_bt,2022.2.4,MacIntel,60.0024001,Chrome,1440,900,,,,,,,,,,,,,,,,,,,,,,,174,S,circle,1,1,,,2,,,,,,k,0.7923,5,0,5,0,1,,,,,,,,,,,,,,,,,,,,,,,,,,,,,,,,,,
294919,2022-11-28_24h42.48.031,vts_reward_expectancy_bt,2022.2.4,MacIntel,60.0024001,Chrome,1440,900,,,,,,,,,,,,,,,,,,,,,,,167,B,star,1,0,,,2,,,,,,j,1.3498,6,0,6,0,1,,,,,,,,,,,,,,,,,,,,,,,,,,,,,,,,,,
294919,2022-11-28_24h42.48.031,vts_reward_expectancy_bt,2022.2.4,MacIntel,60.0024001,Chrome,1440,900,,,,,,,,,,,,,,,,,,,,,,,181,U,hexagon,1,0,,,2,,,,,,k,0.8737,7,0,7,0,1,,,,,,,,,,,,,,,,,,,,,,,,,,,,,,,,,,
294919,2022-11-28_24h42.48.031,vts_reward_expectancy_bt,2022.2.4,MacIntel,60.0024001,Chrome,1440,900,,,,,,,,,,,,,,,,,,,,,,,125,Y,hexagon,0,0,,,2,,,,,,j,1.2029,8,0,8,0,1,,,,,,,,,,,,,,,,,,,,,,,,,,,,,,,,,,
294919,2022-11-28_24h42.48.031,vts_reward_expectancy_bt,2022.2.4,MacIntel,60.0024001,Chrome,1440,900,,,,,,,,,,,,,,,,,,,,,,,132,F,star,1,1,,,2,,,,,,j,0.7881,9,0,9,0,1,,,,,,,,,,,,,,,,,,,,,,,,,,,,,,,,,,
294919,2022-11-28_24h42.48.031,vts_reward_expectancy_bt,2022.2.4,MacIntel,60.0024001,Chrome,1440,900,,,,,,,,,,,,,,,,,,,,,,,125,H,triangle,1,0,,,3,,,,,,j,1.013,0,0,0,0,1,,,,,,,,,,,,,,,,,,,,,,,,,,,,,,,,,,
294919,2022-11-28_24h42.48.031,vts_reward_expectancy_bt,2022.2.4,MacIntel,60.0024001,Chrome,1440,900,,,,,,,,,,,,,,,,,,,,,,,146,F,hexagon,1,0,,,3,,,,,,j,0.9799,1,0,1,0,1,,,,,,,,,,,,,,,,,,,,,,,,,,,,,,,,,,
294919,2022-11-28_24h42.48.031,vts_reward_expectancy_bt,2022.2.4,MacIntel,60.0024001,Chrome,1440,900,,,,,,,,,,,,,,,,,,,,,,,160,Y,star,1,0,,,3,,,,,,k,0.9671,2,0,2,0,1,,,,,,,,,,,,,,,,,,,,,,,,,,,,,,,,,,
294919,2022-11-28_24h42.48.031,vts_reward_expectancy_bt,2022.2.4,MacIntel,60.0024001,Chrome,1440,900,,,,,,,,,,,,,,,,,,,,,,,167,S,circle,1,0,,,3,,,,,,k,0.726,3,0,3,0,1,,,,,,,,,,,,,,,,,,,,,,,,,,,,,,,,,,
294919,2022-11-28_24h42.48.031,vts_reward_expectancy_bt,2022.2.4,MacIntel,60.0024001,Chrome,1440,900,,,,,,,,,,,,,,,,,,,,,,,132,W,triangle,1,0,,,3,,,,,,k,1.9655,4,0,4,0,1,,,,,,,,,,,,,,,,,,,,,,,,,,,,,,,,,,
294919,2022-11-28_24h42.48.031,vts_reward_expectancy_bt,2022.2.4,MacIntel,60.0024001,Chrome,1440,900,,,,,,,,,,,,,,,,,,,,,,,174,U,hexagon,1,0,,,3,,,,,,k,1.0813,5,0,5,0,1,,,,,,,,,,,,,,,,,,,,,,,,,,,,,,,,,,
294919,2022-11-28_24h42.48.031,vts_reward_expectancy_bt,2022.2.4,MacIntel,60.0024001,Chrome,1440,900,,,,,,,,,,,,,,,,,,,,,,,139,B,star,1,0,,,3,,,,,,j,0.9465,6,0,6,0,1,,,,,,,,,,,,,,,,,,,,,,,,,,,,,,,,,,
294919,2022-11-28_24h42.48.031,vts_reward_expectancy_bt,2022.2.4,MacIntel,60.0024001,Chrome,1440,900,,,,,,,,,,,,,,,,,,,,,,,181,D,circle,0,0,,,3,,,,,,,,7,0,7,0,1,,,,,,,,,,,,,,,,,,,,,,,,,,,,,,,,,,
294919,2022-11-28_24h42.48.031,vts_reward_expectancy_bt,2022.2.4,MacIntel,60.0024001,Chrome,1440,900,,,,,,,,,,,,,,,,,,,,,,,125,H,triangle,1,1,,,3,,,,,,j,0.7813,8,0,8,0,1,,,,,,,,,,,,,,,,,,,,,,,,,,,,,,,,,,
294919,2022-11-28_24h42.48.031,vts_reward_expectancy_bt,2022.2.4,MacIntel,60.0024001,Chrome,1440,900,,,,,,,,,,,,,,,,,,,,,,,146,F,circle,1,0,,,3,,,,,,j,0.6005,9,0,9,0,1,,,,,,,,,,,,,,,,,,,,,,,,,,,,,,,,,,
294919,2022-11-28_24h42.48.031,vts_reward_expectancy_bt,2022.2.4,MacIntel,60.0024001,Chrome,1440,900,,,,,0,648,,,,,,,,,,,,,,,,,181,S,triangle,1,0,,,4,,,,,,,,,,,,,-1,letter,NA,k,2.3843,vtsPrac,0,0,0,0,1,,,,,,,,,,,,,,,,,,,,,,,
294919,2022-11-28_24h42.48.031,vts_reward_expectancy_bt,2022.2.4,MacIntel,60.0024001,Chrome,1440,900,,,,,0,648,,,,,,,,,,,,,,,,,125,D,star,1,0,,,4,,,,,,,,,,,,,repeat,letter,lettRpt,j,2.5734,vtsPrac,1,0,1,0,1,,,,,,,,,,,,,,,,,,,,,,,
294919,2022-11-28_24h42.48.031,vts_reward_expectancy_bt,2022.2.4,MacIntel,60.0024001,Chrome,1440,900,,,,,0,648,,,,,,,,,,,,,,,,,132,F,triangle,1,0,,,4,,,,,,,,,,,,,repeat,letter,lettRpt,j,1.2615,vtsPrac,2,0,2,0,1,,,,,,,,,,,,,,,,,,,,,,,
294919,2022-11-28_24h42.48.031,vts_reward_expectancy_bt,2022.2.4,MacIntel,60.0024001,Chrome,1440,900,,,,,0,648,,,,,,,,,,,,,,,,,160,U,star,1,0,,,4,,,,,,,,,,,,,repeat,letter,lettRpt,k,0.8103,vtsPrac,3,0,3,0,1,,,,,,,,,,,,,,,,,,,,,,,
294919,2022-11-28_24h42.48.031,vts_reward_expectancy_bt,2022.2.4,MacIntel,60.0024001,Chrome,1440,900,,,,,0,648,,,,,,,,,,,,,,,,,181,S,triangle,0,0,,,4,,,,,,,,,,,,,repeat,letter,NA,j,0.7644,vtsPrac,4,0,4,0,1,,,,,,,,,,,,,,,,,,,,,,,
294919,2022-11-28_24h42.48.031,vts_reward_expectancy_bt,2022.2.4,MacIntel,60.0024001,Chrome,1440,900,,,,,0,648,,,,,,,,,,,,,,,,,125,D,circle,0,1,,,4,,,,,,,,,,,,,repeat,letter,NA,k,0.0563,vtsPrac,5,0,5,0,1,,,,,,,,,,,,,,,,,,,,,,,
294919,2022-11-28_24h42.48.031,vts_reward_expectancy_bt,2022.2.4,MacIntel,60.0024001,Chrome,1440,900,,,,,0,648,,,,,,,,,,,,,,,,,132,F,hexagon,1,1,,,4,,,,,,,,,,,,,repeat,letter,lettRpt,j,1.1515,vtsPrac,6,0,6,0,1,,,,,,,,,,,,,,,,,,,,,,,
294919,2022-11-28_24h42.48.031,vts_reward_expectancy_bt,2022.2.4,MacIntel,60.0024001,Chrome,1440,900,,,,,0,648,,,,,,,,,,,,,,,,,160,U,triangle,1,0,,,4,,,,,,,,,,,,,repeat,letter,lettRpt,k,0.6474,vtsPrac,7,0,7,0,1,,,,,,,,,,,,,,,,,,,,,,,
294919,2022-11-28_24h42.48.031,vts_reward_expectancy_bt,2022.2.4,MacIntel,60.0024001,Chrome,1440,900,,,,,0,648,,,,,,,,,,,,,,,,,146,W,triangle,1,0,,,4,,,,,,,,,,,,,repeat,letter,lettRpt,k,0.6442,vtsPrac,8,0,8,0,1,,,,,,,,,,,,,,,,,,,,,,,
294919,2022-11-28_24h42.48.031,vts_reward_expectancy_bt,2022.2.4,MacIntel,60.0024001,Chrome,1440,900,,,,,0,648,,,,,,,,,,,,,,,,,125,H,star,1,0,,,4,,,,,,,,,,,,,repeat,letter,lettRpt,j,0.8671,vtsPrac,9,0,9,0,1,,,,,,,,,,,,,,,,,,,,,,,
294919,2022-11-28_24h42.48.031,vts_reward_expectancy_bt,2022.2.4,MacIntel,60.0024001,Chrome,1440,900,,,,,0,648,,,,,,,,,,,,,,,,,139,D,star,1,0,,,4,,,,,,,,,,,,,repeat,letter,lettRpt,j,0.8639,vtsPrac,10,0,10,0,1,,,,,,,,,,,,,,,,,,,,,,,
294919,2022-11-28_24h42.48.031,vts_reward_expectancy_bt,2022.2.4,MacIntel,60.0024001,Chrome,1440,900,,,,,0,648,,,,,,,,,,,,,,,,,132,U,triangle,1,0,,,4,,,,,,,,,,,,,repeat,letter,lettRpt,k,1.428,vtsPrac,11,0,11,0,1,,,,,,,,,,,,,,,,,,,,,,,
294919,2022-11-28_24h42.48.031,vts_reward_expectancy_bt,2022.2.4,MacIntel,60.0024001,Chrome,1440,900,,,,,0,648,,,,,,,,,,,,,,,,,139,B,star,1,0,,,4,,,,,,,,,,,,,repeat,letter,lettRpt,j,1.1955,vtsPrac,12,0,12,0,1,,,,,,,,,,,,,,,,,,,,,,,
294919,2022-11-28_24h42.48.031,vts_reward_expectancy_bt,2022.2.4,MacIntel,60.0024001,Chrome,1440,900,,,,,0,648,,,,,,,,,,,,,,,,,181,H,circle,1,0,,,4,,,,,,,,,,,,,repeat,letter,lettRpt,j,1.3962,vtsPrac,13,0,13,0,1,,,,,,,,,,,,,,,,,,,,,,,
294919,2022-11-28_24h42.48.031,vts_reward_expectancy_bt,2022.2.4,MacIntel,60.0024001,Chrome,1440,900,,,,,0,648,,,,,,,,,,,,,,,,,167,S,triangle,1,0,,,4,,,,,,,,,,,,,repeat,letter,lettRpt,k,0.7821,vtsPrac,14,0,14,0,1,,,,,,,,,,,,,,,,,,,,,,,
294919,2022-11-28_24h42.48.031,vts_reward_expectancy_bt,2022.2.4,MacIntel,60.0024001,Chrome,1440,900,,,,,0,648,,,,,,,,,,,,,,,,,132,W,circle,1,0,,,4,,,,,,,,,,,,,repeat,letter,lettRpt,k,0.9883,vtsPrac,15,0,15,0,1,,,,,,,,,,,,,,,,,,,,,,,
294919,2022-11-28_24h42.48.031,vts_reward_expectancy_bt,2022.2.4,MacIntel,60.0024001,Chrome,1440,900,,,,,0,648,,,,,,,,,,,,,,,,,167,F,circle,1,0,,,4,,,,,,,,,,,,,repeat,letter,lettRpt,j,0.9923,vtsPrac,16,0,16,0,1,,,,,,,,,,,,,,,,,,,,,,,
294919,2022-11-28_24h42.48.031,vts_reward_expectancy_bt,2022.2.4,MacIntel,60.0024001,Chrome,1440,900,,,,,0,648,,,,,,,,,,,,,,,,,139,B,triangle,1,0,,,4,,,,,,,,,,,,,repeat,letter,lettRpt,j,0.9365,vtsPrac,17,0,17,0,1,,,,,,,,,,,,,,,,,,,,,,,
294919,2022-11-28_24h42.48.031,vts_reward_expectancy_bt,2022.2.4,MacIntel,60.0024001,Chrome,1440,900,,,,,0,648,,,,,,,,,,,,,,,,,132,S,circle,1,0,,,4,,,,,,,,,,,,,repeat,letter,lettRpt,k,1.7275,vtsPrac,18,0,18,0,1,,,,,,,,,,,,,,,,,,,,,,,
294919,2022-11-28_24h42.48.031,vts_reward_expectancy_bt,2022.2.4,MacIntel,60.0024001,Chrome,1440,900,,,,,0,648,,,,,,,,,,,,,,,,,125,W,hexagon,1,0,,,4,,,,,,,,,,,,,repeat,letter,lettRpt,k,1.6367,vtsPrac,19,0,19,0,1,,,,,,,,,,,,,,,,,,,,,,,
294919,2022-11-28_24h42.48.031,vts_reward_expectancy_bt,2022.2.4,MacIntel,60.0024001,Chrome,1440,900,,,,,0,648,,,,,,,,,,,,,,,,,174,S,hexagon,1,0,,,4,,,,,,,,,,,,,repeat,letter,lettRpt,k,0.9102,vtsPrac,20,0,20,0,1,,,,,,,,,,,,,,,,,,,,,,,
294919,2022-11-28_24h42.48.031,vts_reward_expectancy_bt,2022.2.4,MacIntel,60.0024001,Chrome,1440,900,,,,,0,648,,,,,,,,,,,,,,,,,160,Y,circle,1,0,,,4,,,,,,,,,,,,,repeat,letter,lettRpt,k,0.5665,vtsPrac,21,0,21,0,1,,,,,,,,,,,,,,,,,,,,,,,
294919,2022-11-28_24h42.48.031,vts_reward_expectancy_bt,2022.2.4,MacIntel,60.0024001,Chrome,1440,900,,,,,0,648,,,,,,,,,,,,,,,,,167,H,triangle,1,0,,,4,,,,,,,,,,,,,repeat,letter,lettRpt,j,0.7464,vtsPrac,22,0,22,0,1,,,,,,,,,,,,,,,,,,,,,,,
294919,2022-11-28_24h42.48.031,vts_reward_expectancy_bt,2022.2.4,MacIntel,60.0024001,Chrome,1440,900,,,,,0,648,,,,,,,,,,,,,,,,,146,W,hexagon,1,0,,,4,,,,,,,,,,,,,repeat,letter,lettRpt,k,0.7498,vtsPrac,23,0,23,0,1,,,,,,,,,,,,,,,,,,,,,,,
294919,2022-11-28_24h42.48.031,vts_reward_expectancy_bt,2022.2.4,MacIntel,60.0024001,Chrome,1440,900,,,,,0,648,,,,,,,,,,,,,,,,,167,S,triangle,1,0,,,4,,,,,,,,,,,,,repeat,letter,lettRpt,k,0.6561,vtsPrac,24,0,24,0,1,,,,,,,,,,,,,,,,,,,,,,,
294919,2022-11-28_24h42.48.031,vts_reward_expectancy_bt,2022.2.4,MacIntel,60.0024001,Chrome,1440,900,,,,,0,648,,,,,,,,,,,,,,,,,181,F,circle,1,0,,,4,,,,,,,,,,,,,repeat,letter,lettRpt,j,0.7361,vtsPrac,25,0,25,0,1,,,,,,,,,,,,,,,,,,,,,,,
294919,2022-11-28_24h42.48.031,vts_reward_expectancy_bt,2022.2.4,MacIntel,60.0024001,Chrome,1440,900,,,,,0,648,,,,,,,,,,,,,,,,,132,W,triangle,1,0,,,4,,,,,,,,,,,,,repeat,letter,lettRpt,k,0.8861,vtsPrac,26,0,26,0,1,,,,,,,,,,,,,,,,,,,,,,,
294919,2022-11-28_24h42.48.031,vts_reward_expectancy_bt,2022.2.4,MacIntel,60.0024001,Chrome,1440,900,,,,,0,648,,,,,,,,,,,,,,,,,125,Y,circle,1,0,,,4,,,,,,,,,,,,,repeat,letter,lettRpt,k,0.6519,vtsPrac,27,0,27,0,1,,,,,,,,,,,,,,,,,,,,,,,
294919,2022-11-28_24h42.48.031,vts_reward_expectancy_bt,2022.2.4,MacIntel,60.0024001,Chrome,1440,900,,,,,0,648,,,,,,,,,,,,,,,,,146,S,star,1,0,,,4,,,,,,,,,,,,,repeat,letter,lettRpt,k,0.7295,vtsPrac,28,0,28,0,1,,,,,,,,,,,,,,,,,,,,,,,
294919,2022-11-28_24h42.48.031,vts_reward_expectancy_bt,2022.2.4,MacIntel,60.0024001,Chrome,1440,900,,,,,0,648,,,,,,,,,,,,,,,,,181,D,hexagon,0,0,,,4,,,,,,,,,,,,,repeat,letter,NA,k,0.5213,vtsPrac,29,0,29,0,1,,,,,,,,,,,,,,,,,,,,,,,
294919,2022-11-28_24h42.48.031,vts_reward_expectancy_bt,2022.2.4,MacIntel,60.0024001,Chrome,1440,900,,,,,0,648,,,,,,,,,,,,,,,,,174,H,circle,1,1,,,4,,,,,,,,,,,,,repeat,letter,lettRpt,j,0.8519,vtsPrac,30,0,30,0,1,,,,,,,,,,,,,,,,,,,,,,,
294919,2022-11-28_24h42.48.031,vts_reward_expectancy_bt,2022.2.4,MacIntel,60.0024001,Chrome,1440,900,,,,,0,648,,,,,,,,,,,,,,,,,139,Y,star,1,0,,,4,,,,,,,,,,,,,repeat,letter,lettRpt,k,0.7282,vtsPrac,31,0,31,0,1,,,,,,,,,,,,,,,,,,,,,,,
294919,2022-11-28_24h42.48.031,vts_reward_expectancy_bt,2022.2.4,MacIntel,60.0024001,Chrome,1440,900,,,,,0,648,,,,,,,,,,,,,,,,,139,F,star,1,0,,,5,,,,,,,,,,,,,repeat,letter,lettRpt,j,2.246,vtsPrac,0,0,0,0,1,,,,,,,,,,,,,,,,,,,,,,,
294919,2022-11-28_24h42.48.031,vts_reward_expectancy_bt,2022.2.4,MacIntel,60.0024001,Chrome,1440,900,,,,,0,648,,,,,,,,,,,,,,,,,174,B,circle,1,0,,,5,,,,,,,,,,,,,repeat,letter,lettRpt,j,0.995,vtsPrac,1,0,1,0,1,,,,,,,,,,,,,,,,,,,,,,,
294919,2022-11-28_24h42.48.031,vts_reward_expectancy_bt,2022.2.4,MacIntel,60.0024001,Chrome,1440,900,,,,,0,648,,,,,,,,,,,,,,,,,167,D,star,1,0,,,5,,,,,,,,,,,,,repeat,letter,lettRpt,j,0.9263,vtsPrac,2,0,2,0,1,,,,,,,,,,,,,,,,,,,,,,,
294919,2022-11-28_24h42.48.031,vts_reward_expectancy_bt,2022.2.4,MacIntel,60.0024001,Chrome,1440,900,,,,,0,648,,,,,,,,,,,,,,,,,181,Y,circle,1,0,,,5,,,,,,,,,,,,,repeat,letter,lettRpt,k,0.8967,vtsPrac,3,0,3,0,1,,,,,,,,,,,,,,,,,,,,,,,
294919,2022-11-28_24h42.48.031,vts_reward_expectancy_bt,2022.2.4,MacIntel,60.0024001,Chrome,1440,900,,,,,0,648,,,,,,,,,,,,,,,,,139,F,star,1,0,,,5,,,,,,,,,,,,,repeat,letter,lettRpt,j,1.0957,vtsPrac,4,0,4,0,1,,,,,,,,,,,,,,,,,,,,,,,
294919,2022-11-28_24h42.48.031,vts_reward_expectancy_bt,2022.2.4,MacIntel,60.0024001,Chrome,1440,900,,,,,0,648,,,,,,,,,,,,,,,,,174,B,triangle,1,0,,,5,,,,,,,,,,,,,repeat,letter,lettRpt,j,0.9207,vtsPrac,5,0,5,0,1,,,,,,,,,,,,,,,,,,,,,,,
294919,2022-11-28_24h42.48.031,vts_reward_expectancy_bt,2022.2.4,MacIntel,60.0024001,Chrome,1440,900,,,,,0,648,,,,,,,,,,,,,,,,,167,D,hexagon,1,0,,,5,,,,,,,,,,,,,repeat,letter,lettRpt,j,0.9607,vtsPrac,6,0,6,0,1,,,,,,,,,,,,,,,,,,,,,,,
294919,2022-11-28_24h42.48.031,vts_reward_expectancy_bt,2022.2.4,MacIntel,60.0024001,Chrome,1440,900,,,,,0,648,,,,,,,,,,,,,,,,,181,Y,star,1,0,,,5,,,,,,,,,,,,,repeat,letter,lettRpt,k,0.9221,vtsPrac,7,0,7,0,1,,,,,,,,,,,,,,,,,,,,,,,
294919,2022-11-28_24h42.48.031,vts_reward_expectancy_bt,2022.2.4,MacIntel,60.0024001,Chrome,1440,900,,,,,0,648,,,,,,,,,,,,,,,,,167,H,hexagon,1,0,,,5,,,,,,,,,,,,,repeat,letter,lettRpt,j,1.1882,vtsPrac,8,0,8,0,1,,,,,,,,,,,,,,,,,,,,,,,
294919,2022-11-28_24h42.48.031,vts_reward_expectancy_bt,2022.2.4,MacIntel,60.0024001,Chrome,1440,900,,,,,0,648,,,,,,,,,,,,,,,,,139,Y,circle,1,0,,,5,,,,,,,,,,,,,repeat,letter,lettRpt,k,1.601,vtsPrac,9,0,9,0,1,,,,,,,,,,,,,,,,,,,,,,,
294919,2022-11-28_24h42.48.031,vts_reward_expectancy_bt,2022.2.4,MacIntel,60.0024001,Chrome,1440,900,,,,,0,648,,,,,,,,,,,,,,,,,174,U,star,1,0,,,5,,,,,,,,,,,,,repeat,letter,lettRpt,k,0.6451,vtsPrac,10,0,10,0,1,,,,,,,,,,,,,,,,,,,,,,,
294919,2022-11-28_24h42.48.031,vts_reward_expectancy_bt,2022.2.4,MacIntel,60.0024001,Chrome,1440,900,,,,,0,648,,,,,,,,,,,,,,,,,125,D,hexagon,1,0,,,5,,,,,,,,,,,,,repeat,letter,lettRpt,j,1.044,vtsPrac,11,0,11,0,1,,,,,,,,,,,,,,,,,,,,,,,
294919,2022-11-28_24h42.48.031,vts_reward_expectancy_bt,2022.2.4,MacIntel,60.0024001,Chrome,1440,900,,,,,0,648,,,,,,,,,,,,,,,,,181,B,circle,1,0,,,5,,,,,,,,,,,,,repeat,letter,lettRpt,j,1.2675,vtsPrac,12,0,12,0,1,,,,,,,,,,,,,,,,,,,,,,,
294919,2022-11-28_24h42.48.031,vts_reward_expectancy_bt,2022.2.4,MacIntel,60.0024001,Chrome,1440,900,,,,,0,648,,,,,,,,,,,,,,,,,167,U,triangle,1,0,,,5,,,,,,,,,,,,,repeat,letter,lettRpt,k,0.8039,vtsPrac,13,0,13,0,1,,,,,,,,,,,,,,,,,,,,,,,
294919,2022-11-28_24h42.48.031,vts_reward_expectancy_bt,2022.2.4,MacIntel,60.0024001,Chrome,1440,900,,,,,0,648,,,,,,,,,,,,,,,,,160,S,triangle,0,0,,,5,,,,,,,,,,,,,repeat,letter,NA,j,0.6979,vtsPrac,14,0,14,0,1,,,,,,,,,,,,,,,,,,,,,,,
294919,2022-11-28_24h42.48.031,vts_reward_expectancy_bt,2022.2.4,MacIntel,60.0024001,Chrome,1440,900,,,,,0,648,,,,,,,,,,,,,,,,,146,H,star,1,1,,,5,,,,,,,,,,,,,repeat,letter,lettRpt,j,1.0297,vtsPrac,15,0,15,0,1,,,,,,,,,,,,,,,,,,,,,,,
294919,2022-11-28_24h42.48.031,vts_reward_expectancy_bt,2022.2.4,MacIntel,60.0024001,Chrome,1440,900,,,,,0,648,,,,,,,,,,,,,,,,,167,B,triangle,1,0,,,5,,,,,,,,,,,,,repeat,letter,lettRpt,j,0.7645,vtsPrac,16,0,16,0,1,,,,,,,,,,,,,,,,,,,,,,,
294919,2022-11-28_24h42.48.031,vts_reward_expectancy_bt,2022.2.4,MacIntel,60.0024001,Chrome,1440,900,,,,,0,648,,,,,,,,,,,,,,,,,146,Y,hexagon,0,0,,,5,,,,,,,,,,,,,repeat,letter,NA,j,1.72,vtsPrac,17,0,17,0,1,,,,,,,,,,,,,,,,,,,,,,,
294919,2022-11-28_24h42.48.031,vts_reward_expectancy_bt,2022.2.4,MacIntel,60.0024001,Chrome,1440,900,,,,,0,648,,,,,,,,,,,,,,,,,125,W,hexagon,1,1,,,5,,,,,,,,,,,,,repeat,letter,lettRpt,k,2.8494,vtsPrac,18,0,18,0,1,,,,,,,,,,,,,,,,,,,,,,,
294919,2022-11-28_24h42.48.031,vts_reward_expectancy_bt,2022.2.4,MacIntel,60.0024001,Chrome,1440,900,,,,,0,648,,,,,,,,,,,,,,,,,132,U,circle,1,0,,,5,,,,,,,,,,,,,repeat,letter,lettRpt,k,0.8703,vtsPrac,19,0,19,0,1,,,,,,,,,,,,,,,,,,,,,,,
294919,2022-11-28_24h42.48.031,vts_reward_expectancy_bt,2022.2.4,MacIntel,60.0024001,Chrome,1440,900,,,,,0,648,,,,,,,,,,,,,,,,,160,U,hexagon,1,0,,,5,,,,,,,,,,,,,repeat,letter,lettRpt,k,1.8816,vtsPrac,20,0,20,0,1,,,,,,,,,,,,,,,,,,,,,,,
294919,2022-11-28_24h42.48.031,vts_reward_expectancy_bt,2022.2.4,MacIntel,60.0024001,Chrome,1440,900,,,,,0,648,,,,,,,,,,,,,,,,,139,F,triangle,1,0,,,5,,,,,,,,,,,,,repeat,letter,lettRpt,j,0.8351,vtsPrac,21,0,21,0,1,,,,,,,,,,,,,,,,,,,,,,,
294919,2022-11-28_24h42.48.031,vts_reward_expectancy_bt,2022.2.4,MacIntel,60.0024001,Chrome,1440,900,,,,,0,648,,,,,,,,,,,,,,,,,181,B,hexagon,1,0,,,5,,,,,,,,,,,,,repeat,letter,lettRpt,j,1.5523,vtsPrac,22,0,22,0,1,,,,,,,,,,,,,,,,,,,,,,,
294919,2022-11-28_24h42.48.031,vts_reward_expectancy_bt,2022.2.4,MacIntel,60.0024001,Chrome,1440,900,,,,,0,648,,,,,,,,,,,,,,,,,167,D,triangle,1,0,,,5,,,,,,,,,,,,,repeat,letter,lettRpt,j,1.152,vtsPrac,23,0,23,0,1,,,,,,,,,,,,,,,,,,,,,,,
294919,2022-11-28_24h42.48.031,vts_reward_expectancy_bt,2022.2.4,MacIntel,60.0024001,Chrome,1440,900,,,,,0,648,,,,,,,,,,,,,,,,,125,W,hexagon,1,0,,,5,,,,,,,,,,,,,repeat,letter,lettRpt,k,1.5045,vtsPrac,24,0,24,0,1,,,,,,,,,,,,,,,,,,,,,,,
294919,2022-11-28_24h42.48.031,vts_reward_expectancy_bt,2022.2.4,MacIntel,60.0024001,Chrome,1440,900,,,,,0,648,,,,,,,,,,,,,,,,,167,B,triangle,1,0,,,5,,,,,,,,,,,,,repeat,letter,lettRpt,j,2.0034,vtsPrac,25,0,25,0,1,,,,,,,,,,,,,,,,,,,,,,,
294919,2022-11-28_24h42.48.031,vts_reward_expectancy_bt,2022.2.4,MacIntel,60.0024001,Chrome,1440,900,,,,,0,648,,,,,,,,,,,,,,,,,146,S,hexagon,1,0,,,5,,,,,,,,,,,,,repeat,letter,lettRpt,k,0.681,vtsPrac,26,0,26,0,1,,,,,,,,,,,,,,,,,,,,,,,
294919,2022-11-28_24h42.48.031,vts_reward_expectancy_bt,2022.2.4,MacIntel,60.0024001,Chrome,1440,900,,,,,0,648,,,,,,,,,,,,,,,,,181,D,circle,0,0,,,5,,,,,,,,,,,,,repeat,letter,NA,k,1.2144,vtsPrac,27,0,27,0,1,,,,,,,,,,,,,,,,,,,,,,,
294919,2022-11-28_24h42.48.031,vts_reward_expectancy_bt,2022.2.4,MacIntel,60.0024001,Chrome,1440,900,,,,,0,648,,,,,,,,,,,,,,,,,160,S,star,0,1,,,5,,,,,,,,,,,,,repeat,letter,NA,j,2.3217,vtsPrac,28,0,28,0,1,,,,,,,,,,,,,,,,,,,,,,,
294919,2022-11-28_24h42.48.031,vts_reward_expectancy_bt,2022.2.4,MacIntel,60.0024001,Chrome,1440,900,,,,,0,648,,,,,,,,,,,,,,,,,132,H,circle,1,1,,,5,,,,,,,,,,,,,repeat,letter,lettRpt,j,1.3511,vtsPrac,29,0,29,0,1,,,,,,,,,,,,,,,,,,,,,,,
294919,2022-11-28_24h42.48.031,vts_reward_expectancy_bt,2022.2.4,MacIntel,60.0024001,Chrome,1440,900,,,,,0,648,,,,,,,,,,,,,,,,,181,Y,circle,1,0,,,5,,,,,,,,,,,,,repeat,letter,lettRpt,k,0.881,vtsPrac,30,0,30,0,1,,,,,,,,,,,,,,,,,,,,,,,
294919,2022-11-28_24h42.48.031,vts_reward_expectancy_bt,2022.2.4,MacIntel,60.0024001,Chrome,1440,900,,,,,0,648,,,,,,,,,,,,,,,,,146,F,triangle,1,0,,,5,,,,,,,,,,,,,repeat,letter,lettRpt,j,2.3649,vtsPrac,31,0,31,0,1,,,,,,,,,,,,,,,,,,,,,,,
294919,2022-11-28_24h42.48.031,vts_reward_expectancy_bt,2022.2.4,MacIntel,60.0024001,Chrome,1440,900,,,,,0,648,,,,,,,,,,,,,,,,,181,S,triangle,1,0,,,6,,,,,,,,,,,,,repeat,letter,lettRpt,k,2.8685,vtsPrac,0,0,0,0,1,,,,,,,,,,,,,,,,,,,,,,,
294919,2022-11-28_24h42.48.031,vts_reward_expectancy_bt,2022.2.4,MacIntel,60.0024001,Chrome,1440,900,,,,,0,648,,,,,,,,,,,,,,,,,160,D,circle,1,0,,,6,,,,,,,,,,,,,repeat,letter,lettRpt,j,1.7376,vtsPrac,1,0,1,0,1,,,,,,,,,,,,,,,,,,,,,,,
294919,2022-11-28_24h42.48.031,vts_reward_expectancy_bt,2022.2.4,MacIntel,60.0024001,Chrome,1440,900,,,,,0,648,,,,,,,,,,,,,,,,,132,H,triangle,1,0,,,6,,,,,,,,,,,,,switch,number,numSwt,d,0.978,vtsPrac,2,0,2,0,1,,,,,,,,,,,,,,,,,,,,,,,
294919,2022-11-28_24h42.48.031,vts_reward_expectancy_bt,2022.2.4,MacIntel,60.0024001,Chrome,1440,900,,,,,0,648,,,,,,,,,,,,,,,,,167,W,circle,0,0,,,6,,,,,,,,,,,,,switch,letter,NA,j,1.2768,vtsPrac,3,0,3,0,1,,,,,,,,,,,,,,,,,,,,,,,
294919,2022-11-28_24h42.48.031,vts_reward_expectancy_bt,2022.2.4,MacIntel,60.0024001,Chrome,1440,900,,,,,0,648,,,,,,,,,,,,,,,,,181,S,circle,1,1,,,6,,,,,,,,,,,,,switch,number,numSwt,f,1.4939,vtsPrac,4,0,4,0,1,,,,,,,,,,,,,,,,,,,,,,,
294919,2022-11-28_24h42.48.031,vts_reward_expectancy_bt,2022.2.4,MacIntel,60.0024001,Chrome,1440,900,,,,,0,648,,,,,,,,,,,,,,,,,160,D,star,-1,0,,,6,,,,,,,,,,,,,switch,no_choice,NA,,,vtsPrac,5,0,5,0,1,,,,,,,,,,,,,,,,,,,,,,,
294919,2022-11-28_24h42.48.031,vts_reward_expectancy_bt,2022.2.4,MacIntel,60.0024001,Chrome,1440,900,,,,,0,648,,,,,,,,,,,,,,,,,132,H,triangle,1,0,,,6,,,,,,,,,,,,,switch,letter,lettSwt,j,2.1489,vtsPrac,6,0,6,0,1,,,,,,,,,,,,,,,,,,,,,,,
294919,2022-11-28_24h42.48.031,vts_reward_expectancy_bt,2022.2.4,MacIntel,60.0024001,Chrome,1440,900,,,,,0,648,,,,,,,,,,,,,,,,,167,W,star,1,0,,,6,,,,,,,,,,,,,repeat,letter,lettRpt,k,1.6283,vtsPrac,7,0,7,0,1,,,,,,,,,,,,,,,,,,,,,,,
294919,2022-11-28_24h42.48.031,vts_reward_expectancy_bt,2022.2.4,MacIntel,60.0024001,Chrome,1440,900,,,,,0,648,,,,,,,,,,,,,,,,,125,D,hexagon,1,0,,,6,,,,,,,,,,,,,repeat,letter,lettRpt,j,1.1789,vtsPrac,8,0,8,0,1,,,,,,,,,,,,,,,,,,,,,,,
294919,2022-11-28_24h42.48.031,vts_reward_expectancy_bt,2022.2.4,MacIntel,60.0024001,Chrome,1440,900,,,,,0,648,,,,,,,,,,,,,,,,,174,B,triangle,-1,0,,,6,,,,,,,,,,,,,switch,no_choice,NA,,,vtsPrac,9,0,9,0,1,,,,,,,,,,,,,,,,,,,,,,,
294919,2022-11-28_24h42.48.031,vts_reward_expectancy_bt,2022.2.4,MacIntel,60.0024001,Chrome,1440,900,,,,,0,648,,,,,,,,,,,,,,,,,132,Y,hexagon,0,0,,,6,,,,,,,,,,,,,switch,letter,NA,j,1.4449,vtsPrac,10,0,10,0,1,,,,,,,,,,,,,,,,,,,,,,,
294919,2022-11-28_24h42.48.031,vts_reward_expectancy_bt,2022.2.4,MacIntel,60.0024001,Chrome,1440,900,,,,,0,648,,,,,,,,,,,,,,,,,181,S,star,1,1,,,6,,,,,,,,,,,,,switch,number,numSwt,f,1.6207,vtsPrac,11,0,11,0,1,,,,,,,,,,,,,,,,,,,,,,,
294919,2022-11-28_24h42.48.031,vts_reward_expectancy_bt,2022.2.4,MacIntel,60.0024001,Chrome,1440,900,,,,,0,648,,,,,,,,,,,,,,,,,125,S,hexagon,1,0,,,6,,,,,,,,,,,,,switch,letter,lettSwt,k,2.0234,vtsPrac,12,0,12,0,1,,,,,,,,,,,,,,,,,,,,,,,
294919,2022-11-28_24h42.48.031,vts_reward_expectancy_bt,2022.2.4,MacIntel,60.0024001,Chrome,1440,900,,,,,0,648,,,,,,,,,,,,,,,,,146,H,circle,1,0,,,6,,,,,,,,,,,,,repeat,letter,lettRpt,j,2.568,vtsPrac,13,0,13,0,1,,,,,,,,,,,,,,,,,,,,,,,
294919,2022-11-28_24h42.48.031,vts_reward_expectancy_bt,2022.2.4,MacIntel,60.0024001,Chrome,1440,900,,,,,0,648,,,,,,,,,,,,,,,,,167,Y,hexagon,1,0,,,6,,,,,,,,,,,,,repeat,letter,lettRpt,k,1.7685,vtsPrac,14,0,14,0,1,,,,,,,,,,,,,,,,,,,,,,,
294919,2022-11-28_24h42.48.031,vts_reward_expectancy_bt,2022.2.4,MacIntel,60.0024001,Chrome,1440,900,,,,,0,648,,,,,,,,,,,,,,,,,132,B,circle,1,0,,,6,,,,,,,,,,,,,switch,number,numSwt,d,1.2341,vtsPrac,15,0,15,0,1,,,,,,,,,,,,,,,,,,,,,,,
294919,2022-11-28_24h42.48.031,vts_reward_expectancy_bt,2022.2.4,MacIntel,60.0024001,Chrome,1440,900,,,,,0,648,,,,,,,,,,,,,,,,,125,H,hexagon,1,0,,,6,,,,,,,,,,,,,switch,letter,lettSwt,j,1.114,vtsPrac,16,0,16,0,1,,,,,,,,,,,,,,,,,,,,,,,
294919,2022-11-28_24h42.48.031,vts_reward_expectancy_bt,2022.2.4,MacIntel,60.0024001,Chrome,1440,900,,,,,0,648,,,,,,,,,,,,,,,,,146,Y,triangle,1,0,,,6,,,,,,,,,,,,,switch,number,numSwt,d,1.2518,vtsPrac,17,0,17,0,1,,,,,,,,,,,,,,,,,,,,,,,
294919,2022-11-28_24h42.48.031,vts_reward_expectancy_bt,2022.2.4,MacIntel,60.0024001,Chrome,1440,900,,,,,0,648,,,,,,,,,,,,,,,,,174,U,star,0,0,,,6,,,,,,,,,,,,,repeat,number,NA,d,1.031,vtsPrac,18,0,18,0,1,,,,,,,,,,,,,,,,,,,,,,,
294919,2022-11-28_24h42.48.031,vts_reward_expectancy_bt,2022.2.4,MacIntel,60.0024001,Chrome,1440,900,,,,,0,648,,,,,,,,,,,,,,,,,139,B,circle,1,1,,,6,,,,,,,,,,,,,repeat,number,numRpt,d,0.5835,vtsPrac,19,0,19,0,1,,,,,,,,,,,,,,,,,,,,,,,
294919,2022-11-28_24h42.48.031,vts_reward_expectancy_bt,2022.2.4,MacIntel,60.0024001,Chrome,1440,900,,,,,0,648,,,,,,,,,,,,,,,,,125,B,triangle,1,0,,,6,,,,,,,,,,,,,switch,letter,lettSwt,j,0.8937,vtsPrac,20,0,20,0,1,,,,,,,,,,,,,,,,,,,,,,,
294919,2022-11-28_24h42.48.031,vts_reward_expectancy_bt,2022.2.4,MacIntel,60.0024001,Chrome,1440,900,,,,,0,648,,,,,,,,,,,,,,,,,146,S,circle,0,0,,,6,,,,,,,,,,,,,switch,number,NA,f,0.561,vtsPrac,21,0,21,0,1,,,,,,,,,,,,,,,,,,,,,,,
294919,2022-11-28_24h42.48.031,vts_reward_expectancy_bt,2022.2.4,MacIntel,60.0024001,Chrome,1440,900,,,,,0,648,,,,,,,,,,,,,,,,,181,F,star,0,1,,,6,,,,,,,,,,,,,repeat,number,NA,d,0.673,vtsPrac,22,0,22,0,1,,,,,,,,,,,,,,,,,,,,,,,
294919,2022-11-28_24h42.48.031,vts_reward_expectancy_bt,2022.2.4,MacIntel,60.0024001,Chrome,1440,900,,,,,0,648,,,,,,,,,,,,,,,,,160,H,triangle,1,1,,,6,,,,,,,,,,,,,switch,letter,lettSwt,j,0.5455,vtsPrac,23,0,23,0,1,,,,,,,,,,,,,,,,,,,,,,,
294919,2022-11-28_24h42.48.031,vts_reward_expectancy_bt,2022.2.4,MacIntel,60.0024001,Chrome,1440,900,,,,,0,648,,,,,,,,,,,,,,,,,125,D,hexagon,1,0,,,6,,,,,,,,,,,,,repeat,letter,lettRpt,j,0.8997,vtsPrac,24,0,24,0,1,,,,,,,,,,,,,,,,,,,,,,,
294919,2022-11-28_24h42.48.031,vts_reward_expectancy_bt,2022.2.4,MacIntel,60.0024001,Chrome,1440,900,,,,,0,648,,,,,,,,,,,,,,,,,181,S,star,1,0,,,6,,,,,,,,,,,,,switch,number,numSwt,f,1.2607,vtsPrac,25,0,25,0,1,,,,,,,,,,,,,,,,,,,,,,,
294919,2022-11-28_24h42.48.031,vts_reward_expectancy_bt,2022.2.4,MacIntel,60.0024001,Chrome,1440,900,,,,,0,648,,,,,,,,,,,,,,,,,132,B,triangle,0,0,,,6,,,,,,,,,,,,,repeat,number,NA,f,1.6622,vtsPrac,26,0,26,0,1,,,,,,,,,,,,,,,,,,,,,,,
294919,2022-11-28_24h42.48.031,vts_reward_expectancy_bt,2022.2.4,MacIntel,60.0024001,Chrome,1440,900,,,,,0,648,,,,,,,,,,,,,,,,,174,F,hexagon,1,1,,,6,,,,,,,,,,,,,switch,letter,lettSwt,j,1.8801,vtsPrac,27,0,27,0,1,,,,,,,,,,,,,,,,,,,,,,,
294919,2022-11-28_24h42.48.031,vts_reward_expectancy_bt,2022.2.4,MacIntel,60.0024001,Chrome,1440,900,,,,,0,648,,,,,,,,,,,,,,,,,181,S,triangle,0,0,,,6,,,,,,,,,,,,,repeat,letter,NA,j,1.6131,vtsPrac,28,0,28,0,1,,,,,,,,,,,,,,,,,,,,,,,
294919,2022-11-28_24h42.48.031,vts_reward_expectancy_bt,2022.2.4,MacIntel,60.0024001,Chrome,1440,900,,,,,0,648,,,,,,,,,,,,,,,,,132,D,circle,1,1,,,6,,,,,,,,,,,,,repeat,letter,lettRpt,j,1.3835,vtsPrac,29,0,29,0,1,,,,,,,,,,,,,,,,,,,,,,,
294919,2022-11-28_24h42.48.031,vts_reward_expectancy_bt,2022.2.4,MacIntel,60.0024001,Chrome,1440,900,,,,,0,648,,,,,,,,,,,,,,,,,146,W,triangle,0,0,,,6,,,,,,,,,,,,,repeat,letter,NA,j,0.568,vtsPrac,30,0,30,0,1,,,,,,,,,,,,,,,,,,,,,,,
294919,2022-11-28_24h42.48.031,vts_reward_expectancy_bt,2022.2.4,MacIntel,60.0024001,Chrome,1440,900,,,,,0,648,,,,,,,,,,,,,,,,,139,U,star,0,1,,,6,,,,,,,,,,,,,switch,number,NA,f,0.7,vtsPrac,31,0,31,0,1,,,,,,,,,,,,,,,,,,,,,,,
294919,2022-11-28_24h42.48.031,vts_reward_expectancy_bt,2022.2.4,MacIntel,60.0024001,Chrome,1440,900,,,,,,,,,,,,,,,,,,,,,,,,,,,,,,,,,,,,,,,,,,,,,,,,,,,,,,,,,,,,,,,,,,,,,,,,,,,,
294919,2022-11-28_24h42.48.031,vts_reward_expectancy_bt,2022.2.4,MacIntel,60.0024001,Chrome,1440,900,,,,,,,,,,,,,,,,,,,,,,,,,,,,,,,,,,,,,,,,,,,,,,,,,,,,,,,,,,,,,,,,,,,,,,,,,,,,
294919,2022-11-28_24h42.48.031,vts_reward_expectancy_bt,2022.2.4,MacIntel,60.0024001,Chrome,1440,900,,,,,0,648,,,,,,,,,,,,,,,,,139,B,circle,0,1,,,,,,,,,,,,,,,,switch,letter,NA,k,0.0008,noRew,,,,,,0,0,0,0,0,1,,,,,,,,,,,,,,,,,
294919,2022-11-28_24h42.48.031,vts_reward_expectancy_bt,2022.2.4,MacIntel,60.0024001,Chrome,1440,900,,,,,0,648,,,,,,,,,,,,,,,,,125,H,star,1,1,,,,,,,,,,,,,,,,switch,number,numSwt,d,0.1553,noRew,,,,,,0,1,0,1,0,1,,,,,,,,,,,,,,,,,
294919,2022-11-28_24h42.48.031,vts_reward_expectancy_bt,2022.2.4,MacIntel,60.0024001,Chrome,1440,900,,,,,0,648,,,,,,,,,,,,,,,,,160,S,circle,-1,0,,,,,,,,,,,,,,,,switch,no_choice,NA,,,noRew,,,,,,0,2,0,2,0,1,,,,,,,,,,,,,,,,,
294919,2022-11-28_24h42.48.031,vts_reward_expectancy_bt,2022.2.4,MacIntel,60.0024001,Chrome,1440,900,,,,,0,648,,,,,,,,,,,,,,,,,132,Y,star,-1,0,,,,,,,,,,,,,,,,repeat,no_choice,NA,,,noRew,,,,,,0,3,0,3,0,1,,,,,,,,,,,,,,,,,
294919,2022-11-28_24h42.48.031,vts_reward_expectancy_bt,2022.2.4,MacIntel,60.0024001,Chrome,1440,900,,,,,0,648,,,,,,,,,,,,,,,,,139,B,triangle,1,0,,,,,,,,,,,,,,,,switch,letter,lettSwt,j,0.0529,noRew,,,,,,0,4,0,4,0,1,,,,,,,,,,,,,,,,,
294919,2022-11-28_24h42.48.031,vts_reward_expectancy_bt,2022.2.4,MacIntel,60.0024001,Chrome,1440,900,,,,,0,648,,,,,,,,,,,,,,,,,125,H,hexagon,-1,0,,,,,,,,,,,,,,,,switch,no_choice,NA,,,noRew,,,,,,0,5,0,5,0,1,,,,,,,,,,,,,,,,,
294919,2022-11-28_24h42.48.031,vts_reward_expectancy_bt,2022.2.4,MacIntel,60.0024001,Chrome,1440,900,,,,,0,648,,,,,,,,,,,,,,,,,160,S,star,0,0,,,,,,,,,,,,,,,,switch,letter,NA,j,0.2284,noRew,,,,,,0,6,0,6,0,1,,,,,,,,,,,,,,,,,
294919,2022-11-28_24h42.48.031,vts_reward_expectancy_bt,2022.2.4,MacIntel,60.0024001,Chrome,1440,900,,,,,0,648,,,,,,,,,,,,,,,,,132,Y,circle,1,1,,,,,,,,,,,,,,,,switch,number,numSwt,d,0.2182,noRew,,,,,,0,7,0,7,0,1,,,,,,,,,,,,,,,,,
294919,2022-11-28_24h42.48.031,vts_reward_expectancy_bt,2022.2.4,MacIntel,60.0024001,Chrome,1440,900,,,,,0,648,,,,,,,,,,,,,,,,,181,Y,hexagon,0,0,,,,,,,,,,,,,,,,switch,letter,NA,j,0.1815,noRew,,,,,,0,8,0,8,0,1,,,,,,,,,,,,,,,,,
294919,2022-11-28_24h42.48.031,vts_reward_expectancy_bt,2022.2.4,MacIntel,60.0024001,Chrome,1440,900,,,,,0,648,,,,,,,,,,,,,,,,,167,H,circle,1,1,,,,,,,,,,,,,,,,repeat,letter,lettRpt,j,0.0209,noRew,,,,,,0,9,0,9,0,1,,,,,,,,,,,,,,,,,
294919,2022-11-28_24h42.48.031,vts_reward_expectancy_bt,2022.2.4,MacIntel,60.0024001,Chrome,1440,900,,,,,0,648,,,,,,,,,,,,,,,,,139,S,hexagon,0,0,,,,,,,,,,,,,,,,repeat,letter,NA,j,0.4388,noRew,,,,,,0,10,0,10,0,1,,,,,,,,,,,,,,,,,
294919,2022-11-28_24h42.48.031,vts_reward_expectancy_bt,2022.2.4,MacIntel,60.0024001,Chrome,1440,900,,,,,0,648,,,,,,,,,,,,,,,,,132,U,triangle,1,1,,,,,,,,,,,,,,,,switch,number,numSwt,d,0.4228,noRew,,,,,,0,11,0,11,0,1,,,,,,,,,,,,,,,,,
294919,2022-11-28_24h42.48.031,vts_reward_expectancy_bt,2022.2.4,MacIntel,60.0024001,Chrome,1440,900,,,,,0,648,,,,,,,,,,,,,,,,,139,B,star,-1,0,,,,,,,,,,,,,,,,switch,no_choice,NA,,,noRew,,,,,,0,12,0,12,0,1,,,,,,,,,,,,,,,,,
294919,2022-11-28_24h42.48.031,vts_reward_expectancy_bt,2022.2.4,MacIntel,60.0024001,Chrome,1440,900,,,,,0,648,,,,,,,,,,,,,,,,,174,F,triangle,0,0,,,,,,,,,,,,,,,,switch,number,NA,d,1.8706,noRew,,,,,,0,13,0,13,0,1,,,,,,,,,,,,,,,,,
294919,2022-11-28_24h42.48.031,vts_reward_expectancy_bt,2022.2.4,MacIntel,60.0024001,Chrome,1440,900,,,,,0,648,,,,,,,,,,,,,,,,,160,W,triangle,0,1,,,,,,,,,,,,,,,,switch,letter,NA,j,0.3804,noRew,,,,,,0,14,0,14,0,1,,,,,,,,,,,,,,,,,
294919,2022-11-28_24h42.48.031,vts_reward_expectancy_bt,2022.2.4,MacIntel,60.0024001,Chrome,1440,900,,,,,0,648,,,,,,,,,,,,,,,,,146,D,star,1,1,,,,,,,,,,,,,,,,repeat,letter,lettRpt,j,0.2168,noRew,,,,,,0,15,0,15,0,1,,,,,,,,,,,,,,,,,
294919,2022-11-28_24h42.48.031,vts_reward_expectancy_bt,2022.2.4,MacIntel,60.0024001,Chrome,1440,900,,,,,0,648,,,,,,,,,,,,,,,,,125,F,star,1,0,,,,,,,,,,,,,,,,repeat,letter,lettRpt,j,0.0013,noRew,,,,,,0,16,0,16,0,1,,,,,,,,,,,,,,,,,
294919,2022-11-28_24h42.48.031,vts_reward_expectancy_bt,2022.2.4,MacIntel,60.0024001,Chrome,1440,900,,,,,0,648,,,,,,,,,,,,,,,,,139,H,triangle,1,0,,,,,,,,,,,,,,,,switch,number,numSwt,d,0.3188,noRew,,,,,,0,17,0,17,0,1,,,,,,,,,,,,,,,,,
294919,2022-11-28_24h42.48.031,vts_reward_expectancy_bt,2022.2.4,MacIntel,60.0024001,Chrome,1440,900,,,,,0,648,,,,,,,,,,,,,,,,,181,B,triangle,1,0,,,,,,,,,,,,,,,,switch,letter,lettSwt,j,0.0677,noRew,,,,,,0,18,0,18,0,1,,,,,,,,,,,,,,,,,
294919,2022-11-28_24h42.48.031,vts_reward_expectancy_bt,2022.2.4,MacIntel,60.0024001,Chrome,1440,900,,,,,0,648,,,,,,,,,,,,,,,,,167,Y,star,0,0,,,,,,,,,,,,,,,,switch,number,NA,d,0.2406,noRew,,,,,,0,19,0,19,0,1,,,,,,,,,,,,,,,,,
294919,2022-11-28_24h42.48.031,vts_reward_expectancy_bt,2022.2.4,MacIntel,60.0024001,Chrome,1440,900,,,,,0,648,,,,,,,,,,,,,,,,,132,B,hexagon,1,1,,,,,,,,,,,,,,,,switch,letter,lettSwt,j,0.5492,noRew,,,,,,0,20,0,20,0,1,,,,,,,,,,,,,,,,,
294919,2022-11-28_24h42.48.031,vts_reward_expectancy_bt,2022.2.4,MacIntel,60.0024001,Chrome,1440,900,,,,,0,648,,,,,,,,,,,,,,,,,139,W,star,0,0,,,,,,,,,,,,,,,,repeat,letter,NA,j,0.765,noRew,,,,,,0,21,0,21,0,1,,,,,,,,,,,,,,,,,
294919,2022-11-28_24h42.48.031,vts_reward_expectancy_bt,2022.2.4,MacIntel,60.0024001,Chrome,1440,900,,,,,0,648,,,,,,,,,,,,,,,,,160,U,star,0,1,,,,,,,,,,,,,,,,repeat,letter,NA,j,0.5986,noRew,,,,,,0,22,0,22,0,1,,,,,,,,,,,,,,,,,
294919,2022-11-28_24h42.48.031,vts_reward_expectancy_bt,2022.2.4,MacIntel,60.0024001,Chrome,1440,900,,,,,0,648,,,,,,,,,,,,,,,,,174,S,hexagon,0,1,,,,,,,,,,,,,,,,repeat,letter,NA,j,0.694,noRew,,,,,,0,23,0,23,0,1,,,,,,,,,,,,,,,,,
294919,2022-11-28_24h42.48.031,vts_reward_expectancy_bt,2022.2.4,MacIntel,60.0024001,Chrome,1440,900,,,,,0,648,,,,,,,,,,,,,,,,,139,U,star,1,1,,,,,,,,,,,,,,,,switch,number,numSwt,d,2.7328,noRew,,,,,,0,24,0,24,0,1,,,,,,,,,,,,,,,,,
294919,2022-11-28_24h42.48.031,vts_reward_expectancy_bt,2022.2.4,MacIntel,60.0024001,Chrome,1440,900,,,,,0,648,,,,,,,,,,,,,,,,,181,D,hexagon,1,0,,,,,,,,,,,,,,,,switch,letter,lettSwt,j,2.6307,noRew,,,,,,0,25,0,25,0,1,,,,,,,,,,,,,,,,,
294919,2022-11-28_24h42.48.031,vts_reward_expectancy_bt,2022.2.4,MacIntel,60.0024001,Chrome,1440,900,,,,,0,648,,,,,,,,,,,,,,,,,160,Y,hexagon,0,0,,,,,,,,,,,,,,,,repeat,letter,NA,j,0.8327,noRew,,,,,,0,26,0,26,0,1,,,,,,,,,,,,,,,,,
294919,2022-11-28_24h42.48.031,vts_reward_expectancy_bt,2022.2.4,MacIntel,60.0024001,Chrome,1440,900,,,,,0,648,,,,,,,,,,,,,,,,,167,W,circle,0,1,,,,,,,,,,,,,,,,switch,number,NA,d,1.4783,noRew,,,,,,0,27,0,27,0,1,,,,,,,,,,,,,,,,,
294919,2022-11-28_24h42.48.031,vts_reward_expectancy_bt,2022.2.4,MacIntel,60.0024001,Chrome,1440,900,,,,,0,648,,,,,,,,,,,,,,,,,174,W,hexagon,0,1,,,,,,,,,,,,,,,,repeat,number,NA,d,0.2492,noRew,,,,,,0,28,0,28,0,1,,,,,,,,,,,,,,,,,
294919,2022-11-28_24h42.48.031,vts_reward_expectancy_bt,2022.2.4,MacIntel,60.0024001,Chrome,1440,900,,,,,0,648,,,,,,,,,,,,,,,,,132,Y,star,0,1,,,,,,,,,,,,,,,,switch,letter,NA,j,1.8991,noRew,,,,,,0,29,0,29,0,1,,,,,,,,,,,,,,,,,
294919,2022-11-28_24h42.48.031,vts_reward_expectancy_bt,2022.2.4,MacIntel,60.0024001,Chrome,1440,900,,,,,0,648,,,,,,,,,,,,,,,,,160,F,star,1,1,,,,,,,,,,,,,,,,repeat,letter,lettRpt,j,0.07,noRew,,,,,,0,30,0,30,0,1,,,,,,,,,,,,,,,,,
294919,2022-11-28_24h42.48.031,vts_reward_expectancy_bt,2022.2.4,MacIntel,60.0024001,Chrome,1440,900,,,,,0,648,,,,,,,,,,,,,,,,,167,H,hexagon,1,0,,,,,,,,,,,,,,,,repeat,letter,lettRpt,j,0.524,noRew,,,,,,0,31,0,31,0,1,,,,,,,,,,,,,,,,,
294919,2022-11-28_24h42.48.031,vts_reward_expectancy_bt,2022.2.4,MacIntel,60.0024001,Chrome,1440,900,,,,,0,648,,,,,,,,,,,,,,,,,167,F,triangle,1,0,,,,,,,,,,,,,,,,repeat,letter,lettRpt,j,0.9308,noRew,,,,,,0,32,0,32,0,1,,,,,,,,,,,,,,,,,
294919,2022-11-28_24h42.48.031,vts_reward_expectancy_bt,2022.2.4,MacIntel,60.0024001,Chrome,1440,900,,,,,0,648,,,,,,,,,,,,,,,,,174,Y,hexagon,0,0,,,,,,,,,,,,,,,,repeat,letter,NA,j,1.5657,noRew,,,,,,0,33,0,33,0,1,,,,,,,,,,,,,,,,,
294919,2022-11-28_24h42.48.031,vts_reward_expectancy_bt,2022.2.4,MacIntel,60.0024001,Chrome,1440,900,,,,,0,648,,,,,,,,,,,,,,,,,132,U,hexagon,1,1,,,,,,,,,,,,,,,,switch,number,numSwt,d,0.5896,noRew,,,,,,0,34,0,34,0,1,,,,,,,,,,,,,,,,,
294919,2022-11-28_24h42.48.031,vts_reward_expectancy_bt,2022.2.4,MacIntel,60.0024001,Chrome,1440,900,,,,,0,648,,,,,,,,,,,,,,,,,146,D,star,1,0,,,,,,,,,,,,,,,,switch,letter,lettSwt,j,0.9144,noRew,,,,,,0,35,0,35,0,1,,,,,,,,,,,,,,,,,
294919,2022-11-28_24h42.48.031,vts_reward_expectancy_bt,2022.2.4,MacIntel,60.0024001,Chrome,1440,900,,,,,0,648,,,,,,,,,,,,,,,,,167,W,triangle,1,0,,,,,,,,,,,,,,,,repeat,letter,lettRpt,k,1.8418,noRew,,,,,,0,36,0,36,0,1,,,,,,,,,,,,,,,,,
294919,2022-11-28_24h42.48.031,vts_reward_expectancy_bt,2022.2.4,MacIntel,60.0024001,Chrome,1440,900,,,,,0,648,,,,,,,,,,,,,,,,,174,S,circle,0,0,,,,,,,,,,,,,,,,repeat,letter,NA,j,1.7584,noRew,,,,,,0,37,0,37,0,1,,,,,,,,,,,,,,,,,
294919,2022-11-28_24h42.48.031,vts_reward_expectancy_bt,2022.2.4,MacIntel,60.0024001,Chrome,1440,900,,,,,0,648,,,,,,,,,,,,,,,,,125,Y,circle,1,1,,,,,,,,,,,,,,,,switch,number,numSwt,d,1.5549,noRew,,,,,,0,38,0,38,0,1,,,,,,,,,,,,,,,,,
294919,2022-11-28_24h42.48.031,vts_reward_expectancy_bt,2022.2.4,MacIntel,60.0024001,Chrome,1440,900,,,,,0,648,,,,,,,,,,,,,,,,,146,F,triangle,1,0,,,,,,,,,,,,,,,,switch,letter,lettSwt,j,0.9144,noRew,,,,,,0,39,0,39,0,1,,,,,,,,,,,,,,,,,
294919,2022-11-28_24h42.48.031,vts_reward_expectancy_bt,2022.2.4,MacIntel,60.0024001,Chrome,1440,900,,,,,0,648,,,,,,,,,,,,,,,,,139,D,triangle,1,0,,,,,,,,,,,,,,,,switch,number,numSwt,d,1.0302,noRew,,,,,,0,40,0,40,0,1,,,,,,,,,,,,,,,,,
294919,2022-11-28_24h42.48.031,vts_reward_expectancy_bt,2022.2.4,MacIntel,60.0024001,Chrome,1440,900,,,,,0,648,,,,,,,,,,,,,,,,,167,S,hexagon,-1,0,,,,,,,,,,,,,,,,switch,no_choice,NA,,,noRew,,,,,,0,41,0,41,0,1,,,,,,,,,,,,,,,,,
294919,2022-11-28_24h42.48.031,vts_reward_expectancy_bt,2022.2.4,MacIntel,60.0024001,Chrome,1440,900,,,,,0,648,,,,,,,,,,,,,,,,,132,H,star,1,0,,,,,,,,,,,,,,,,switch,letter,lettSwt,j,0.5183,noRew,,,,,,0,42,0,42,0,1,,,,,,,,,,,,,,,,,
294919,2022-11-28_24h42.48.031,vts_reward_expectancy_bt,2022.2.4,MacIntel,60.0024001,Chrome,1440,900,,,,,0,648,,,,,,,,,,,,,,,,,146,B,circle,1,0,,,,,,,,,,,,,,,,repeat,letter,lettRpt,j,1.0609,noRew,,,,,,0,43,0,43,0,1,,,,,,,,,,,,,,,,,
294919,2022-11-28_24h42.48.031,vts_reward_expectancy_bt,2022.2.4,MacIntel,60.0024001,Chrome,1440,900,,,,,0,648,,,,,,,,,,,,,,,,,160,S,star,1,0,,,,,,,,,,,,,,,,repeat,letter,lettRpt,k,0.5589,noRew,,,,,,0,44,0,44,0,1,,,,,,,,,,,,,,,,,
294919,2022-11-28_24h42.48.031,vts_reward_expectancy_bt,2022.2.4,MacIntel,60.0024001,Chrome,1440,900,,,,,0,648,,,,,,,,,,,,,,,,,167,H,triangle,1,0,,,,,,,,,,,,,,,,repeat,letter,lettRpt,j,0.6171,noRew,,,,,,0,45,0,45,0,1,,,,,,,,,,,,,,,,,
294919,2022-11-28_24h42.48.031,vts_reward_expectancy_bt,2022.2.4,MacIntel,60.0024001,Chrome,1440,900,,,,,0,648,,,,,,,,,,,,,,,,,174,W,star,-1,0,,,,,,,,,,,,,,,,switch,no_choice,NA,,,noRew,,,,,,0,46,0,46,0,1,,,,,,,,,,,,,,,,,
294919,2022-11-28_24h42.48.031,vts_reward_expectancy_bt,2022.2.4,MacIntel,60.0024001,Chrome,1440,900,,,,,0,648,,,,,,,,,,,,,,,,,125,F,circle,1,0,,,,,,,,,,,,,,,,switch,number,numSwt,d,0.6441,noRew,,,,,,0,47,0,47,0,1,,,,,,,,,,,,,,,,,
294919,2022-11-28_24h42.48.031,vts_reward_expectancy_bt,2022.2.4,MacIntel,60.0024001,Chrome,1440,900,,,,,0,648,,,,,,,,,,,,,,,,,167,H,star,1,0,,,,,,,,,,,,,,,,switch,letter,lettSwt,j,1.6513,noRew,,,,,,0,48,0,48,0,1,,,,,,,,,,,,,,,,,
294919,2022-11-28_24h42.48.031,vts_reward_expectancy_bt,2022.2.4,MacIntel,60.0024001,Chrome,1440,900,,,,,0,648,,,,,,,,,,,,,,,,,160,B,triangle,0,0,,,,,,,,,,,,,,,,switch,number,NA,d,1.3459,noRew,,,,,,0,49,0,49,0,1,,,,,,,,,,,,,,,,,
294919,2022-11-28_24h42.48.031,vts_reward_expectancy_bt,2022.2.4,MacIntel,60.0024001,Chrome,1440,900,,,,,0,648,,,,,,,,,,,,,,,,,181,W,hexagon,0,1,,,,,,,,,,,,,,,,switch,letter,NA,j,1.4794,noRew,,,,,,0,50,0,50,0,1,,,,,,,,,,,,,,,,,
294919,2022-11-28_24h42.48.031,vts_reward_expectancy_bt,2022.2.4,MacIntel,60.0024001,Chrome,1440,900,,,,,0,648,,,,,,,,,,,,,,,,,132,D,star,1,1,,,,,,,,,,,,,,,,repeat,letter,lettRpt,j,0.5915,noRew,,,,,,0,51,0,51,0,1,,,,,,,,,,,,,,,,,
294919,2022-11-28_24h42.48.031,vts_reward_expectancy_bt,2022.2.4,MacIntel,60.0024001,Chrome,1440,900,,,,,0,648,,,,,,,,,,,,,,,,,174,F,star,1,0,,,,,,,,,,,,,,,,repeat,letter,lettRpt,j,0.6974,noRew,,,,,,0,52,0,52,0,1,,,,,,,,,,,,,,,,,
294919,2022-11-28_24h42.48.031,vts_reward_expectancy_bt,2022.2.4,MacIntel,60.0024001,Chrome,1440,900,,,,,0,648,,,,,,,,,,,,,,,,,125,S,circle,1,0,,,,,,,,,,,,,,,,switch,number,numSwt,d,0.5718,noRew,,,,,,0,53,0,53,0,1,,,,,,,,,,,,,,,,,
294919,2022-11-28_24h42.48.031,vts_reward_expectancy_bt,2022.2.4,MacIntel,60.0024001,Chrome,1440,900,,,,,0,648,,,,,,,,,,,,,,,,,181,Y,star,0,0,,,,,,,,,,,,,,,,switch,letter,NA,j,1.2189,noRew,,,,,,0,54,0,54,0,1,,,,,,,,,,,,,,,,,
294919,2022-11-28_24h42.48.031,vts_reward_expectancy_bt,2022.2.4,MacIntel,60.0024001,Chrome,1440,900,,,,,0,648,,,,,,,,,,,,,,,,,146,D,circle,1,1,,,,,,,,,,,,,,,,repeat,letter,lettRpt,j,2.8474,noRew,,,,,,0,55,0,55,0,1,,,,,,,,,,,,,,,,,
294919,2022-11-28_24h42.48.031,vts_reward_expectancy_bt,2022.2.4,MacIntel,60.0024001,Chrome,1440,900,,,,,0,648,,,,,,,,,,,,,,,,,139,W,circle,0,0,,,,,,,,,,,,,,,,repeat,letter,NA,j,0.7965,noRew,,,,,,0,56,0,56,0,1,,,,,,,,,,,,,,,,,
294919,2022-11-28_24h42.48.031,vts_reward_expectancy_bt,2022.2.4,MacIntel,60.0024001,Chrome,1440,900,,,,,0,648,,,,,,,,,,,,,,,,,132,H,star,1,1,,,,,,,,,,,,,,,,repeat,letter,lettRpt,j,0.5956,noRew,,,,,,0,57,0,57,0,1,,,,,,,,,,,,,,,,,
294919,2022-11-28_24h42.48.031,vts_reward_expectancy_bt,2022.2.4,MacIntel,60.0024001,Chrome,1440,900,,,,,0,648,,,,,,,,,,,,,,,,,146,Y,circle,0,0,,,,,,,,,,,,,,,,repeat,letter,NA,j,1.7035,noRew,,,,,,0,58,0,58,0,1,,,,,,,,,,,,,,,,,
294919,2022-11-28_24h42.48.031,vts_reward_expectancy_bt,2022.2.4,MacIntel,60.0024001,Chrome,1440,900,,,,,0,648,,,,,,,,,,,,,,,,,167,F,star,1,1,,,,,,,,,,,,,,,,repeat,letter,lettRpt,j,0.0013,noRew,,,,,,0,59,0,59,0,1,,,,,,,,,,,,,,,,,
294919,2022-11-28_24h42.48.031,vts_reward_expectancy_bt,2022.2.4,MacIntel,60.0024001,Chrome,1440,900,,,,,0,648,,,,,,,,,,,,,,,,,139,S,triangle,0,0,,,,,,,,,,,,,,,,repeat,letter,NA,j,0.9028,noRew,,,,,,0,60,0,60,0,1,,,,,,,,,,,,,,,,,
294919,2022-11-28_24h42.48.031,vts_reward_expectancy_bt,2022.2.4,MacIntel,60.0024001,Chrome,1440,900,,,,,0,648,,,,,,,,,,,,,,,,,181,W,hexagon,0,1,,,,,,,,,,,,,,,,repeat,letter,NA,j,1.0977,noRew,,,,,,0,61,0,61,0,1,,,,,,,,,,,,,,,,,
294919,2022-11-28_24h42.48.031,vts_reward_expectancy_bt,2022.2.4,MacIntel,60.0024001,Chrome,1440,900,,,,,0,648,,,,,,,,,,,,,,,,,160,U,hexagon,-1,1,,,,,,,,,,,,,,,,switch,no_choice,NA,,,noRew,,,,,,0,62,0,62,0,1,,,,,,,,,,,,,,,,,
294919,2022-11-28_24h42.48.031,vts_reward_expectancy_bt,2022.2.4,MacIntel,60.0024001,Chrome,1440,900,,,,,0,648,,,,,,,,,,,,,,,,,125,H,triangle,0,0,,,,,,,,,,,,,,,,switch,letter,NA,k,1.5191,noRew,,,,,,0,63,0,63,0,1,,,,,,,,,,,,,,,,,
294919,2022-11-28_24h42.48.031,vts_reward_expectancy_bt,2022.2.4,MacIntel,60.0024001,Chrome,1440,900,,,,,,,,,,,,,,,,,,,,,,,,,,,,,,,,,,,,,,,,,,,,,,,,,,,,,,,,,,,,,,,,,,,,,,,,,,,,
294919,2022-11-28_24h42.48.031,vts_reward_expectancy_bt,2022.2.4,MacIntel,60.0024001,Chrome,1440,900,,,,,0,648,,,,,,,,,,,,,,,,,132,D,hexagon,1,1,,,,,,,,,,,,,,,,repeat,letter,lettRpt,j,1.7507,Hi,,,,,,0,,,,,,space,12.3873,high,0,0,0,0,1,,,,,,,,,
294919,2022-11-28_24h42.48.031,vts_reward_expectancy_bt,2022.2.4,MacIntel,60.0024001,Chrome,1440,900,,,,,1,649,,,,,,,,,,,,,,,,,174,B,triangle,1,0,,,,,,,,,,,,,,,,repeat,letter,lettRpt,j,0.3559,Lo,,,,,,0,,,,,,,,high,1,0,1,0,1,,,,,,,,,
294919,2022-11-28_24h42.48.031,vts_reward_expectancy_bt,2022.2.4,MacIntel,60.0024001,Chrome,1440,900,,,,,1,650,,,,,,,,,,,,,,,,,160,H,circle,1,0,,,,,,,,,,,,,,,,repeat,letter,lettRpt,j,0.9187,Lo,,,,,,0,,,,,,,,high,2,0,2,0,1,,,,,,,,,
294919,2022-11-28_24h42.48.031,vts_reward_expectancy_bt,2022.2.4,MacIntel,60.0024001,Chrome,1440,900,,,,,0,650,,,,,,,,,,,,,,,,,125,Y,star,1,0,,,,,,,,,,,,,,,,repeat,letter,lettRpt,k,1.3771,Hi,,,,,,0,,,,,,,,high,3,0,3,0,1,,,,,,,,,
294919,2022-11-28_24h42.48.031,vts_reward_expectancy_bt,2022.2.4,MacIntel,60.0024001,Chrome,1440,900,,,,,0,650,,,,,,,,,,,,,,,,,167,U,hexagon,0,0,,,,,,,,,,,,,,,,repeat,letter,NA,j,0.5928,Hi,,,,,,0,,,,,,,,high,4,0,4,0,1,,,,,,,,,
294919,2022-11-28_24h42.48.031,vts_reward_expectancy_bt,2022.2.4,MacIntel,60.0024001,Chrome,1440,900,,,,,1,651,,,,,,,,,,,,,,,,,146,W,triangle,1,1,,,,,,,,,,,,,,,,switch,number,numSwt,d,1.1959,Lo,,,,,,0,,,,,,,,high,5,0,5,0,1,,,,,,,,,
294919,2022-11-28_24h42.48.031,vts_reward_expectancy_bt,2022.2.4,MacIntel,60.0024001,Chrome,1440,900,,,,,0,651,,,,,,,,,,,,,,,,,181,F,circle,0,0,,,,,,,,,,,,,,,,switch,letter,NA,k,1.0023,Lo,,,,,,0,,,,,,,,high,6,0,6,0,1,,,,,,,,,
294919,2022-11-28_24h42.48.031,vts_reward_expectancy_bt,2022.2.4,MacIntel,60.0024001,Chrome,1440,900,,,,,0,651,,,,,,,,,,,,,,,,,139,S,star,0,1,,,,,,,,,,,,,,,,repeat,letter,NA,j,0.2669,Lo,,,,,,0,,,,,,,,high,7,0,7,0,1,,,,,,,,,
294919,2022-11-28_24h42.48.031,vts_reward_expectancy_bt,2022.2.4,MacIntel,60.0024001,Chrome,1440,900,,,,,0,651,,,,,,,,,,,,,,,,,132,D,star,1,1,,,,,,,,,,,,,,,,repeat,letter,lettRpt,j,0.4799,Hi,,,,,,0,,,,,,,,high,8,0,8,0,1,,,,,,,,,
294919,2022-11-28_24h42.48.031,vts_reward_expectancy_bt,2022.2.4,MacIntel,60.0024001,Chrome,1440,900,,,,,0,651,,,,,,,,,,,,,,,,,174,B,hexagon,1,0,,,,,,,,,,,,,,,,switch,number,numSwt,f,1.2184,Hi,,,,,,0,,,,,,,,high,9,0,9,0,1,,,,,,,,,
294919,2022-11-28_24h42.48.031,vts_reward_expectancy_bt,2022.2.4,MacIntel,60.0024001,Chrome,1440,900,,,,,1,652,,,,,,,,,,,,,,,,,160,H,triangle,1,0,,,,,,,,,,,,,,,,repeat,number,numRpt,f,0.0167,Lo,,,,,,0,,,,,,,,high,10,0,10,0,1,,,,,,,,,
294919,2022-11-28_24h42.48.031,vts_reward_expectancy_bt,2022.2.4,MacIntel,60.0024001,Chrome,1440,900,,,,,0,652,,,,,,,,,,,,,,,,,125,Y,circle,0,0,,,,,,,,,,,,,,,,switch,letter,NA,j,0.013,Lo,,,,,,0,,,,,,,,high,11,0,11,0,1,,,,,,,,,
294919,2022-11-28_24h42.48.031,vts_reward_expectancy_bt,2022.2.4,MacIntel,60.0024001,Chrome,1440,900,,,,,1,653,,,,,,,,,,,,,,,,,167,U,triangle,1,1,,,,,,,,,,,,,,,,switch,number,numSwt,f,0.0011,Lo,,,,,,0,,,,,,,,high,12,0,12,0,1,,,,,,,,,
294919,2022-11-28_24h42.48.031,vts_reward_expectancy_bt,2022.2.4,MacIntel,60.0024001,Chrome,1440,900,,,,,0,653,,,,,,,,,,,,,,,,,146,W,circle,0,0,,,,,,,,,,,,,,,,repeat,number,NA,f,1.3021,Lo,,,,,,0,,,,,,,,high,13,0,13,0,1,,,,,,,,,
294919,2022-11-28_24h42.48.031,vts_reward_expectancy_bt,2022.2.4,MacIntel,60.0024001,Chrome,1440,900,,,,,0,653,,,,,,,,,,,,,,,,,181,F,hexagon,0,1,,,,,,,,,,,,,,,,repeat,number,NA,d,0.1656,Lo,,,,,,0,,,,,,,,high,14,0,14,0,1,,,,,,,,,
294919,2022-11-28_24h42.48.031,vts_reward_expectancy_bt,2022.2.4,MacIntel,60.0024001,Chrome,1440,900,,,,,1,654,,,,,,,,,,,,,,,,,139,S,star,1,1,,,,,,,,,,,,,,,,repeat,number,numRpt,d,0.0475,Hi,,,,,,0,,,,,,,,high,15,0,15,0,1,,,,,,,,,
294919,2022-11-28_24h42.48.031,vts_reward_expectancy_bt,2022.2.4,MacIntel,60.0024001,Chrome,1440,900,,,,,1,655,,,,,,,,,,,,,,,,,174,S,circle,1,0,,,,,,,,,,,,,,,,switch,letter,lettSwt,k,0.1493,Lo,,,,,,0,,,,,,,,high,16,0,16,0,1,,,,,,,,,
294919,2022-11-28_24h42.48.031,vts_reward_expectancy_bt,2022.2.4,MacIntel,60.0024001,Chrome,1440,900,,,,,0,655,,,,,,,,,,,,,,,,,181,D,hexagon,0,0,,,,,,,,,,,,,,,,switch,number,NA,d,0.1014,Lo,,,,,,0,,,,,,,,high,17,0,17,0,1,,,,,,,,,
294919,2022-11-28_24h42.48.031,vts_reward_expectancy_bt,2022.2.4,MacIntel,60.0024001,Chrome,1440,900,,,,,0,655,,,,,,,,,,,,,,,,,160,Y,triangle,0,1,,,,,,,,,,,,,,,,repeat,number,NA,d,0.1367,Lo,,,,,,0,,,,,,,,high,18,0,18,0,1,,,,,,,,,
294919,2022-11-28_24h42.48.031,vts_reward_expectancy_bt,2022.2.4,MacIntel,60.0024001,Chrome,1440,900,,,,,10,665,,,,,,,,,,,,,,,,,139,H,star,1,1,,,,,,,,,,,,,,,,repeat,number,numRpt,d,0.1971,Hi,,,,,,0,,,,,,,,high,19,0,19,0,1,,,,,,,,,
294919,2022-11-28_24h42.48.031,vts_reward_expectancy_bt,2022.2.4,MacIntel,60.0024001,Chrome,1440,900,,,,,0,665,,,,,,,,,,,,,,,,,132,U,triangle,0,0,,,,,,,,,,,,,,,,repeat,number,NA,f,0.1194,Hi,,,,,,0,,,,,,,,high,20,0,20,0,1,,,,,,,,,
294919,2022-11-28_24h42.48.031,vts_reward_expectancy_bt,2022.2.4,MacIntel,60.0024001,Chrome,1440,900,,,,,10,675,,,,,,,,,,,,,,,,,125,B,star,1,1,,,,,,,,,,,,,,,,repeat,number,numRpt,d,2.3465,Hi,,,,,,0,,,,,,,,high,21,0,21,0,1,,,,,,,,,
294919,2022-11-28_24h42.48.031,vts_reward_expectancy_bt,2022.2.4,MacIntel,60.0024001,Chrome,1440,900,,,,,0,675,,,,,,,,,,,,,,,,,167,F,hexagon,0,0,,,,,,,,,,,,,,,,repeat,number,NA,d,0.0663,Hi,,,,,,0,,,,,,,,high,22,0,22,0,1,,,,,,,,,
294919,2022-11-28_24h42.48.031,vts_reward_expectancy_bt,2022.2.4,MacIntel,60.0024001,Chrome,1440,900,,,,,0,675,,,,,,,,,,,,,,,,,146,W,circle,0,1,,,,,,,,,,,,,,,,repeat,number,NA,f,0.0006,Hi,,,,,,0,,,,,,,,high,23,0,23,0,1,,,,,,,,,
294919,2022-11-28_24h42.48.031,vts_reward_expectancy_bt,2022.2.4,MacIntel,60.0024001,Chrome,1440,900,,,,,10,685,,,,,,,,,,,,,,,,,146,W,star,1,1,,,,,,,,,,,,,,,,repeat,number,numRpt,d,0.2874,Hi,,,,,,0,,,,,,,,high,24,0,24,0,1,,,,,,,,,
294919,2022-11-28_24h42.48.031,vts_reward_expectancy_bt,2022.2.4,MacIntel,60.0024001,Chrome,1440,900,,,,,1,686,,,,,,,,,,,,,,,,,125,F,triangle,1,0,,,,,,,,,,,,,,,,switch,letter,lettSwt,j,0.0525,Lo,,,,,,0,,,,,,,,high,25,0,25,0,1,,,,,,,,,
294919,2022-11-28_24h42.48.031,vts_reward_expectancy_bt,2022.2.4,MacIntel,60.0024001,Chrome,1440,900,,,,,10,696,,,,,,,,,,,,,,,,,139,D,hexagon,1,0,,,,,,,,,,,,,,,,repeat,letter,lettRpt,j,0.1863,Hi,,,,,,0,,,,,,,,high,26,0,26,0,1,,,,,,,,,
294919,2022-11-28_24h42.48.031,vts_reward_expectancy_bt,2022.2.4,MacIntel,60.0024001,Chrome,1440,900,,,,,1,697,,,,,,,,,,,,,,,,,167,H,circle,1,0,,,,,,,,,,,,,,,,switch,number,numSwt,f,0.0014,Lo,,,,,,0,,,,,,,,high,27,0,27,0,1,,,,,,,,,
294919,2022-11-28_24h42.48.031,vts_reward_expectancy_bt,2022.2.4,MacIntel,60.0024001,Chrome,1440,900,,,,,0,697,,,,,,,,,,,,,,,,,160,U,triangle,0,0,,,,,,,,,,,,,,,,switch,letter,NA,j,0.3664,Lo,,,,,,0,,,,,,,,high,28,0,28,0,1,,,,,,,,,
294919,2022-11-28_24h42.48.031,vts_reward_expectancy_bt,2022.2.4,MacIntel,60.0024001,Chrome,1440,900,,,,,0,697,,,,,,,,,,,,,,,,,181,B,circle,0,1,,,,,,,,,,,,,,,,repeat,letter,NA,k,0.0289,Lo,,,,,,0,,,,,,,,high,29,0,29,0,1,,,,,,,,,
294919,2022-11-28_24h42.48.031,vts_reward_expectancy_bt,2022.2.4,MacIntel,60.0024001,Chrome,1440,900,,,,,0,697,,,,,,,,,,,,,,,,,174,Y,hexagon,0,1,,,,,,,,,,,,,,,,switch,number,NA,d,0.3029,Lo,,,,,,0,,,,,,,,high,30,0,30,0,1,,,,,,,,,
294919,2022-11-28_24h42.48.031,vts_reward_expectancy_bt,2022.2.4,MacIntel,60.0024001,Chrome,1440,900,,,,,0,697,,,,,,,,,,,,,,,,,132,S,star,1,1,,,,,,,,,,,,,,,,switch,letter,lettSwt,k,1.4977,Hi,,,,,,0,,,,,,,,high,31,0,31,0,1,,,,,,,,,
294919,2022-11-28_24h42.48.031,vts_reward_expectancy_bt,2022.2.4,MacIntel,60.0024001,Chrome,1440,900,,,,,0,697,,,,,,,,,,,,,,,,,139,B,star,1,0,,,,,,,,,,,,,,,,switch,number,numSwt,d,0.0621,Hi,,,,,,1,,,,,,space,1.0494,high,0,0,0,0,1,,,,,,,,,
294919,2022-11-28_24h42.48.031,vts_reward_expectancy_bt,2022.2.4,MacIntel,60.0024001,Chrome,1440,900,,,,,0,697,,,,,,,,,,,,,,,,,160,H,circle,0,0,,,,,,,,,,,,,,,,switch,letter,NA,k,0.0673,Hi,,,,,,1,,,,,,,,high,1,0,1,0,1,,,,,,,,,
294919,2022-11-28_24h42.48.031,vts_reward_expectancy_bt,2022.2.4,MacIntel,60.0024001,Chrome,1440,900,,,,,1,698,,,,,,,,,,,,,,,,,132,F,triangle,1,1,,,,,,,,,,,,,,,,switch,number,numSwt,d,0.073,Lo,,,,,,1,,,,,,,,high,2,0,2,0,1,,,,,,,,,
294919,2022-11-28_24h42.48.031,vts_reward_expectancy_bt,2022.2.4,MacIntel,60.0024001,Chrome,1440,900,,,,,0,698,,,,,,,,,,,,,,,,,125,Y,hexagon,0,0,,,,,,,,,,,,,,,,switch,letter,NA,j,0.0544,Lo,,,,,,1,,,,,,,,high,3,0,3,0,1,,,,,,,,,
294919,2022-11-28_24h42.48.031,vts_reward_expectancy_bt,2022.2.4,MacIntel,60.0024001,Chrome,1440,900,,,,,0,698,,,,,,,,,,,,,,,,,174,U,star,0,1,,,,,,,,,,,,,,,,repeat,letter,NA,j,0.5283,Lo,,,,,,1,,,,,,,,high,4,0,4,0,1,,,,,,,,,
294919,2022-11-28_24h42.48.031,vts_reward_expectancy_bt,2022.2.4,MacIntel,60.0024001,Chrome,1440,900,,,,,0,698,,,,,,,,,,,,,,,,,167,S,circle,0,1,,,,,,,,,,,,,,,,repeat,letter,NA,j,0.5305,Lo,,,,,,1,,,,,,,,high,5,0,5,0,1,,,,,,,,,
294919,2022-11-28_24h42.48.031,vts_reward_expectancy_bt,2022.2.4,MacIntel,60.0024001,Chrome,1440,900,,,,,1,699,,,,,,,,,,,,,,,,,146,D,triangle,1,1,,,,,,,,,,,,,,,,repeat,letter,lettRpt,j,0.7923,Lo,,,,,,1,,,,,,,,high,6,0,6,0,1,,,,,,,,,
294919,2022-11-28_24h42.48.031,vts_reward_expectancy_bt,2022.2.4,MacIntel,60.0024001,Chrome,1440,900,,,,,0,699,,,,,,,,,,,,,,,,,181,W,hexagon,1,0,,,,,,,,,,,,,,,,repeat,letter,lettRpt,k,0.7941,Hi,,,,,,1,,,,,,,,high,7,0,7,0,1,,,,,,,,,
294919,2022-11-28_24h42.48.031,vts_reward_expectancy_bt,2022.2.4,MacIntel,60.0024001,Chrome,1440,900,,,,,10,709,,,,,,,,,,,,,,,,,139,B,hexagon,1,0,,,,,,,,,,,,,,,,repeat,letter,lettRpt,j,0.1958,Hi,,,,,,1,,,,,,,,high,8,0,8,0,1,,,,,,,,,
294919,2022-11-28_24h42.48.031,vts_reward_expectancy_bt,2022.2.4,MacIntel,60.0024001,Chrome,1440,900,,,,,0,709,,,,,,,,,,,,,,,,,160,H,circle,0,0,,,,,,,,,,,,,,,,switch,number,NA,d,1.0684,Hi,,,,,,1,,,,,,,,high,9,0,9,0,1,,,,,,,,,
294919,2022-11-28_24h42.48.031,vts_reward_expectancy_bt,2022.2.4,MacIntel,60.0024001,Chrome,1440,900,,,,,0,709,,,,,,,,,,,,,,,,,132,F,star,0,1,,,,,,,,,,,,,,,,repeat,number,NA,f,0.4295,Hi,,,,,,1,,,,,,,,high,10,0,10,0,1,,,,,,,,,
294919,2022-11-28_24h42.48.031,vts_reward_expectancy_bt,2022.2.4,MacIntel,60.0024001,Chrome,1440,900,,,,,0,709,,,,,,,,,,,,,,,,,125,Y,triangle,0,1,,,,,,,,,,,,,,,,repeat,number,NA,f,0.3959,Hi,,,,,,1,,,,,,,,high,11,0,11,0,1,,,,,,,,,
294919,2022-11-28_24h42.48.031,vts_reward_expectancy_bt,2022.2.4,MacIntel,60.0024001,Chrome,1440,900,,,,,0,709,,,,,,,,,,,,,,,,,174,U,star,1,1,,,,,,,,,,,,,,,,repeat,number,numRpt,f,0.5471,Hi,,,,,,1,,,,,,,,high,12,0,12,0,1,,,,,,,,,
294919,2022-11-28_24h42.48.031,vts_reward_expectancy_bt,2022.2.4,MacIntel,60.0024001,Chrome,1440,900,,,,,0,709,,,,,,,,,,,,,,,,,167,S,triangle,0,0,,,,,,,,,,,,,,,,switch,letter,NA,j,0.8243,Hi,,,,,,1,,,,,,,,high,13,0,13,0,1,,,,,,,,,
294919,2022-11-28_24h42.48.031,vts_reward_expectancy_bt,2022.2.4,MacIntel,60.0024001,Chrome,1440,900,,,,,0,709,,,,,,,,,,,,,,,,,146,D,hexagon,0,1,,,,,,,,,,,,,,,,switch,number,NA,f,0.2631,Hi,,,,,,1,,,,,,,,high,14,0,14,0,1,,,,,,,,,
294919,2022-11-28_24h42.48.031,vts_reward_expectancy_bt,2022.2.4,MacIntel,60.0024001,Chrome,1440,900,,,,,1,710,,,,,,,,,,,,,,,,,181,W,circle,1,1,,,,,,,,,,,,,,,,switch,letter,lettSwt,k,0.1811,Lo,,,,,,1,,,,,,,,high,15,0,15,0,1,,,,,,,,,
294919,2022-11-28_24h42.48.031,vts_reward_expectancy_bt,2022.2.4,MacIntel,60.0024001,Chrome,1440,900,,,,,10,720,,,,,,,,,,,,,,,,,146,W,hexagon,1,0,,,,,,,,,,,,,,,,repeat,letter,lettRpt,k,0.0006,Hi,,,,,,1,,,,,,,,high,16,0,16,0,1,,,,,,,,,
294919,2022-11-28_24h42.48.031,vts_reward_expectancy_bt,2022.2.4,MacIntel,60.0024001,Chrome,1440,900,,,,,0,720,,,,,,,,,,,,,,,,,125,Y,triangle,0,0,,,,,,,,,,,,,,,,switch,number,NA,f,0.2001,Hi,,,,,,1,,,,,,,,high,17,0,17,0,1,,,,,,,,,
294919,2022-11-28_24h42.48.031,vts_reward_expectancy_bt,2022.2.4,MacIntel,60.0024001,Chrome,1440,900,,,,,0,720,,,,,,,,,,,,,,,,,181,U,star,0,1,,,,,,,,,,,,,,,,switch,letter,NA,j,0.1432,Hi,,,,,,1,,,,,,,,high,18,0,18,0,1,,,,,,,,,
294919,2022-11-28_24h42.48.031,vts_reward_expectancy_bt,2022.2.4,MacIntel,60.0024001,Chrome,1440,900,,,,,0,720,,,,,,,,,,,,,,,,,174,B,circle,0,1,,,,,,,,,,,,,,,,repeat,letter,NA,k,0.1369,Hi,,,,,,1,,,,,,,,high,19,0,19,0,1,,,,,,,,,
294919,2022-11-28_24h42.48.031,vts_reward_expectancy_bt,2022.2.4,MacIntel,60.0024001,Chrome,1440,900,,,,,0,720,,,,,,,,,,,,,,,,,139,H,hexagon,1,1,,,,,,,,,,,,,,,,repeat,letter,lettRpt,j,0.5698,Hi,,,,,,1,,,,,,,,high,20,0,20,0,1,,,,,,,,,
294919,2022-11-28_24h42.48.031,vts_reward_expectancy_bt,2022.2.4,MacIntel,60.0024001,Chrome,1440,900,,,,,0,720,,,,,,,,,,,,,,,,,160,S,triangle,0,0,,,,,,,,,,,,,,,,repeat,letter,NA,j,0.0799,Hi,,,,,,1,,,,,,,,high,21,0,21,0,1,,,,,,,,,
294919,2022-11-28_24h42.48.031,vts_reward_expectancy_bt,2022.2.4,MacIntel,60.0024001,Chrome,1440,900,,,,,1,721,,,,,,,,,,,,,,,,,167,F,circle,1,1,,,,,,,,,,,,,,,,repeat,letter,lettRpt,j,0.5139,Lo,,,,,,1,,,,,,,,high,22,0,22,0,1,,,,,,,,,
294919,2022-11-28_24h42.48.031,vts_reward_expectancy_bt,2022.2.4,MacIntel,60.0024001,Chrome,1440,900,,,,,0,721,,,,,,,,,,,,,,,,,132,D,star,1,0,,,,,,,,,,,,,,,,switch,number,numSwt,d,1.8198,Hi,,,,,,1,,,,,,,,high,23,0,23,0,1,,,,,,,,,
294919,2022-11-28_24h42.48.031,vts_reward_expectancy_bt,2022.2.4,MacIntel,60.0024001,Chrome,1440,900,,,,,0,721,,,,,,,,,,,,,,,,,167,U,triangle,0,0,,,,,,,,,,,,,,,,repeat,number,NA,d,0.5822,Hi,,,,,,1,,,,,,,,high,24,0,24,0,1,,,,,,,,,
294919,2022-11-28_24h42.48.031,vts_reward_expectancy_bt,2022.2.4,MacIntel,60.0024001,Chrome,1440,900,,,,,0,721,,,,,,,,,,,,,,,,,181,S,circle,0,1,,,,,,,,,,,,,,,,switch,letter,NA,j,0.1508,Hi,,,,,,1,,,,,,,,high,25,0,25,0,1,,,,,,,,,
294919,2022-11-28_24h42.48.031,vts_reward_expectancy_bt,2022.2.4,MacIntel,60.0024001,Chrome,1440,900,,,,,0,721,,,,,,,,,,,,,,,,,146,H,hexagon,0,1,,,,,,,,,,,,,,,,repeat,letter,NA,k,0.013,Hi,,,,,,1,,,,,,,,high,26,0,26,0,1,,,,,,,,,
294919,2022-11-28_24h42.48.031,vts_reward_expectancy_bt,2022.2.4,MacIntel,60.0024001,Chrome,1440,900,,,,,0,721,,,,,,,,,,,,,,,,,139,B,star,1,1,,,,,,,,,,,,,,,,repeat,letter,lettRpt,j,0.4696,Hi,,,,,,1,,,,,,,,high,27,0,27,0,1,,,,,,,,,
294919,2022-11-28_24h42.48.031,vts_reward_expectancy_bt,2022.2.4,MacIntel,60.0024001,Chrome,1440,900,,,,,0,721,,,,,,,,,,,,,,,,,174,D,star,0,0,,,,,,,,,,,,,,,,switch,number,NA,d,0.0213,Hi,,,,,,1,,,,,,,,high,28,0,28,0,1,,,,,,,,,
294919,2022-11-28_24h42.48.031,vts_reward_expectancy_bt,2022.2.4,MacIntel,60.0024001,Chrome,1440,900,,,,,0,721,,,,,,,,,,,,,,,,,160,Y,circle,-1,1,,,,,,,,,,,,,,,,switch,no_choice,NA,,,Hi,,,,,,1,,,,,,,,high,29,0,29,0,1,,,,,,,,,
294919,2022-11-28_24h42.48.031,vts_reward_expectancy_bt,2022.2.4,MacIntel,60.0024001,Chrome,1440,900,,,,,10,731,,,,,,,,,,,,,,,,,132,W,triangle,1,0,,,,,,,,,,,,,,,,switch,number,numSwt,d,0.3447,Lo,,,,,,1,,,,,,,,high,30,0,30,0,1,,,,,,,,,
294919,2022-11-28_24h42.48.031,vts_reward_expectancy_bt,2022.2.4,MacIntel,60.0024001,Chrome,1440,900,,,,,0,731,,,,,,,,,,,,,,,,,125,F,hexagon,0,0,,,,,,,,,,,,,,,,switch,letter,NA,k,0.1364,Lo,,,,,,1,,,,,,,,high,31,0,31,0,1,,,,,,,,,
294919,2022-11-28_24h42.48.031,vts_reward_expectancy_bt,2022.2.4,MacIntel,60.0024001,Chrome,1440,900,,,,,10,741,,,,,,,,,,,,,,,,,181,H,star,1,1,,,,,,,,,,,,,,,,switch,number,numSwt,f,0.0446,Hi,,,,,,2,,,,,,space,1.1852,high,0,0,0,0,1,,,,,,,,,
294919,2022-11-28_24h42.48.031,vts_reward_expectancy_bt,2022.2.4,MacIntel,60.0024001,Chrome,1440,900,,,,,0,741,,,,,,,,,,,,,,,,,125,W,triangle,0,0,,,,,,,,,,,,,,,,switch,letter,NA,j,0.1622,Hi,,,,,,2,,,,,,,,high,1,0,1,0,1,,,,,,,,,
294919,2022-11-28_24h42.48.031,vts_reward_expectancy_bt,2022.2.4,MacIntel,60.0024001,Chrome,1440,900,,,,,0,741,,,,,,,,,,,,,,,,,160,D,hexagon,0,1,,,,,,,,,,,,,,,,switch,number,NA,d,0.0022,Hi,,,,,,2,,,,,,,,high,2,0,2,0,1,,,,,,,,,
294919,2022-11-28_24h42.48.031,vts_reward_expectancy_bt,2022.2.4,MacIntel,60.0024001,Chrome,1440,900,,,,,10,751,,,,,,,,,,,,,,,,,174,Y,circle,1,1,,,,,,,,,,,,,,,,repeat,number,numRpt,f,0.0009,Lo,,,,,,2,,,,,,,,high,3,0,3,0,1,,,,,,,,,
294919,2022-11-28_24h42.48.031,vts_reward_expectancy_bt,2022.2.4,MacIntel,60.0024001,Chrome,1440,900,,,,,0,751,,,,,,,,,,,,,,,,,167,F,star,0,0,,,,,,,,,,,,,,,,repeat,number,NA,d,0.0936,Lo,,,,,,2,,,,,,,,high,4,0,4,0,1,,,,,,,,,
294919,2022-11-28_24h42.48.031,vts_reward_expectancy_bt,2022.2.4,MacIntel,60.0024001,Chrome,1440,900,,,,,0,751,,,,,,,,,,,,,,,,,132,B,triangle,0,1,,,,,,,,,,,,,,,,repeat,number,NA,f,0.1267,Lo,,,,,,2,,,,,,,,high,5,0,5,0,1,,,,,,,,,
294919,2022-11-28_24h42.48.031,vts_reward_expectancy_bt,2022.2.4,MacIntel,60.0024001,Chrome,1440,900,,,,,0,751,,,,,,,,,,,,,,,,,139,U,hexagon,0,1,,,,,,,,,,,,,,,,switch,letter,NA,j,0.3845,Lo,,,,,,2,,,,,,,,high,6,0,6,0,1,,,,,,,,,
294919,2022-11-28_24h42.48.031,vts_reward_expectancy_bt,2022.2.4,MacIntel,60.0024001,Chrome,1440,900,,,,,0,751,,,,,,,,,,,,,,,,,146,S,circle,0,1,,,,,,,,,,,,,,,,repeat,letter,NA,j,1.5191,Lo,,,,,,2,,,,,,,,high,7,0,7,0,1,,,,,,,,,
294919,2022-11-28_24h42.48.031,vts_reward_expectancy_bt,2022.2.4,MacIntel,60.0024001,Chrome,1440,900,,,,,1,752,,,,,,,,,,,,,,,,,181,H,circle,1,1,,,,,,,,,,,,,,,,repeat,letter,lettRpt,j,0.3062,Lo,,,,,,2,,,,,,,,high,8,0,8,0,1,,,,,,,,,
294919,2022-11-28_24h42.48.031,vts_reward_expectancy_bt,2022.2.4,MacIntel,60.0024001,Chrome,1440,900,,,,,0,752,,,,,,,,,,,,,,,,,125,W,star,0,0,,,,,,,,,,,,,,,,switch,number,NA,f,0.2115,Lo,,,,,,2,,,,,,,,high,9,0,9,0,1,,,,,,,,,
294919,2022-11-28_24h42.48.031,vts_reward_expectancy_bt,2022.2.4,MacIntel,60.0024001,Chrome,1440,900,,,,,1,753,,,,,,,,,,,,,,,,,160,D,triangle,1,1,,,,,,,,,,,,,,,,repeat,number,numRpt,f,0.0988,Lo,,,,,,2,,,,,,,,high,10,0,10,0,1,,,,,,,,,
294919,2022-11-28_24h42.48.031,vts_reward_expectancy_bt,2022.2.4,MacIntel,60.0024001,Chrome,1440,900,,,,,10,763,,,,,,,,,,,,,,,,,174,Y,hexagon,1,0,,,,,,,,,,,,,,,,repeat,number,numRpt,f,0.2357,Hi,,,,,,2,,,,,,,,high,11,0,11,0,1,,,,,,,,,
294919,2022-11-28_24h42.48.031,vts_reward_expectancy_bt,2022.2.4,MacIntel,60.0024001,Chrome,1440,900,,,,,0,763,,,,,,,,,,,,,,,,,167,F,star,1,0,,,,,,,,,,,,,,,,switch,letter,lettSwt,j,0.2626,Hi,,,,,,2,,,,,,,,high,12,0,12,0,1,,,,,,,,,
294919,2022-11-28_24h42.48.031,vts_reward_expectancy_bt,2022.2.4,MacIntel,60.0024001,Chrome,1440,900,,,,,10,773,,,,,,,,,,,,,,,,,132,B,hexagon,1,0,,,,,,,,,,,,,,,,repeat,letter,lettRpt,j,0.3308,Hi,,,,,,2,,,,,,,,high,13,0,13,0,1,,,,,,,,,
294919,2022-11-28_24h42.48.031,vts_reward_expectancy_bt,2022.2.4,MacIntel,60.0024001,Chrome,1440,900,,,,,0,773,,,,,,,,,,,,,,,,,139,U,circle,0,0,,,,,,,,,,,,,,,,switch,number,NA,f,0.2343,Hi,,,,,,2,,,,,,,,high,14,0,14,0,1,,,,,,,,,
294919,2022-11-28_24h42.48.031,vts_reward_expectancy_bt,2022.2.4,MacIntel,60.0024001,Chrome,1440,900,,,,,0,773,,,,,,,,,,,,,,,,,146,S,triangle,0,1,,,,,,,,,,,,,,,,switch,letter,NA,j,0.2622,Hi,,,,,,2,,,,,,,,high,15,0,15,0,1,,,,,,,,,
294919,2022-11-28_24h42.48.031,vts_reward_expectancy_bt,2022.2.4,MacIntel,60.0024001,Chrome,1440,900,,,,,10,783,,,,,,,,,,,,,,,,,139,H,star,1,1,,,,,,,,,,,,,,,,repeat,letter,lettRpt,j,0.1291,Hi,,,,,,2,,,,,,,,high,16,0,16,0,1,,,,,,,,,
294919,2022-11-28_24h42.48.031,vts_reward_expectancy_bt,2022.2.4,MacIntel,60.0024001,Chrome,1440,900,,,,,0,783,,,,,,,,,,,,,,,,,146,W,hexagon,0,0,,,,,,,,,,,,,,,,switch,number,NA,f,0.0125,Hi,,,,,,2,,,,,,,,high,17,0,17,0,1,,,,,,,,,
294919,2022-11-28_24h42.48.031,vts_reward_expectancy_bt,2022.2.4,MacIntel,60.0024001,Chrome,1440,900,,,,,0,783,,,,,,,,,,,,,,,,,132,Y,circle,0,1,,,,,,,,,,,,,,,,switch,letter,NA,j,0.1913,Hi,,,,,,2,,,,,,,,high,18,0,18,0,1,,,,,,,,,
294919,2022-11-28_24h42.48.031,vts_reward_expectancy_bt,2022.2.4,MacIntel,60.0024001,Chrome,1440,900,,,,,0,783,,,,,,,,,,,,,,,,,160,S,triangle,0,1,,,,,,,,,,,,,,,,repeat,letter,NA,j,0.265,Hi,,,,,,2,,,,,,,,high,19,0,19,0,1,,,,,,,,,
294919,2022-11-28_24h42.48.031,vts_reward_expectancy_bt,2022.2.4,MacIntel,60.0024001,Chrome,1440,900,,,,,0,783,,,,,,,,,,,,,,,,,181,D,circle,0,1,,,,,,,,,,,,,,,,switch,number,NA,d,0.2147,Hi,,,,,,2,,,,,,,,high,20,0,20,0,1,,,,,,,,,
294919,2022-11-28_24h42.48.031,vts_reward_expectancy_bt,2022.2.4,MacIntel,60.0024001,Chrome,1440,900,,,,,0,783,,,,,,,,,,,,,,,,,125,U,hexagon,0,1,,,,,,,,,,,,,,,,repeat,number,NA,f,0.3779,Hi,,,,,,2,,,,,,,,high,21,0,21,0,1,,,,,,,,,
294919,2022-11-28_24h42.48.031,vts_reward_expectancy_bt,2022.2.4,MacIntel,60.0024001,Chrome,1440,900,,,,,1,784,,,,,,,,,,,,,,,,,174,B,triangle,1,1,,,,,,,,,,,,,,,,switch,letter,lettSwt,j,0.5848,Lo,,,,,,2,,,,,,,,high,22,0,22,0,1,,,,,,,,,
294919,2022-11-28_24h42.48.031,vts_reward_expectancy_bt,2022.2.4,MacIntel,60.0024001,Chrome,1440,900,,,,,0,784,,,,,,,,,,,,,,,,,167,F,star,1,0,,,,,,,,,,,,,,,,repeat,letter,lettRpt,j,0.6002,Hi,,,,,,2,,,,,,,,high,23,0,23,0,1,,,,,,,,,
294919,2022-11-28_24h42.48.031,vts_reward_expectancy_bt,2022.2.4,MacIntel,60.0024001,Chrome,1440,900,,,,,0,784,,,,,,,,,,,,,,,,,160,W,triangle,0,0,,,,,,,,,,,,,,,,switch,number,NA,d,0.6327,Hi,,,,,,2,,,,,,,,high,24,0,24,0,1,,,,,,,,,
294919,2022-11-28_24h42.48.031,vts_reward_expectancy_bt,2022.2.4,MacIntel,60.0024001,Chrome,1440,900,,,,,0,784,,,,,,,,,,,,,,,,,139,S,circle,0,1,,,,,,,,,,,,,,,,repeat,number,NA,f,0.001,Hi,,,,,,2,,,,,,,,high,25,0,25,0,1,,,,,,,,,
294919,2022-11-28_24h42.48.031,vts_reward_expectancy_bt,2022.2.4,MacIntel,60.0024001,Chrome,1440,900,,,,,10,794,,,,,,,,,,,,,,,,,167,Y,star,1,1,,,,,,,,,,,,,,,,repeat,number,numRpt,f,0.053,Hi,,,,,,2,,,,,,,,high,26,0,26,0,1,,,,,,,,,
294919,2022-11-28_24h42.48.031,vts_reward_expectancy_bt,2022.2.4,MacIntel,60.0024001,Chrome,1440,900,,,,,1,795,,,,,,,,,,,,,,,,,132,F,hexagon,1,0,,,,,,,,,,,,,,,,switch,letter,lettSwt,j,0.1198,Hi,,,,,,2,,,,,,,,high,27,0,27,0,1,,,,,,,,,
294919,2022-11-28_24h42.48.031,vts_reward_expectancy_bt,2022.2.4,MacIntel,60.0024001,Chrome,1440,900,,,,,0,795,,,,,,,,,,,,,,,,,174,D,triangle,0,0,,,,,,,,,,,,,,,,switch,number,NA,d,0.0468,Hi,,,,,,2,,,,,,,,high,28,0,28,0,1,,,,,,,,,
294919,2022-11-28_24h42.48.031,vts_reward_expectancy_bt,2022.2.4,MacIntel,60.0024001,Chrome,1440,900,,,,,1,796,,,,,,,,,,,,,,,,,181,B,circle,1,1,,,,,,,,,,,,,,,,switch,letter,lettSwt,j,0.0811,Lo,,,,,,2,,,,,,,,high,29,0,29,0,1,,,,,,,,,
294919,2022-11-28_24h42.48.031,vts_reward_expectancy_bt,2022.2.4,MacIntel,60.0024001,Chrome,1440,900,,,,,10,806,,,,,,,,,,,,,,,,,125,H,hexagon,1,0,,,,,,,,,,,,,,,,repeat,letter,lettRpt,j,0.283,Hi,,,,,,2,,,,,,,,high,30,0,30,0,1,,,,,,,,,
294919,2022-11-28_24h42.48.031,vts_reward_expectancy_bt,2022.2.4,MacIntel,60.0024001,Chrome,1440,900,,,,,0,806,,,,,,,,,,,,,,,,,146,U,star,0,0,,,,,,,,,,,,,,,,switch,number,NA,f,0.1561,Hi,,,,,,2,,,,,,,,high,31,0,31,0,1,,,,,,,,,
294919,2022-11-28_24h42.48.031,vts_reward_expectancy_bt,2022.2.4,MacIntel,60.0024001,Chrome,1440,900,,,,,0,806,,,,,,,,,,,,,,,,,167,Y,star,1,1,,,,,,,,,,,,,,,,repeat,number,numRpt,f,0.1013,Hi,,,,,,3,,,,,,space,75.1891,high,0,0,0,0,1,,,,,,,,,
294919,2022-11-28_24h42.48.031,vts_reward_expectancy_bt,2022.2.4,MacIntel,60.0024001,Chrome,1440,900,,,,,0,806,,,,,,,,,,,,,,,,,174,U,hexagon,0,0,,,,,,,,,,,,,,,,switch,letter,NA,j,0.0377,Hi,,,,,,3,,,,,,,,high,1,0,1,0,1,,,,,,,,,
294919,2022-11-28_24h42.48.031,vts_reward_expectancy_bt,2022.2.4,MacIntel,60.0024001,Chrome,1440,900,,,,,0,806,,,,,,,,,,,,,,,,,181,W,triangle,0,1,,,,,,,,,,,,,,,,repeat,letter,NA,j,0.1539,Hi,,,,,,3,,,,,,,,high,2,0,2,0,1,,,,,,,,,
294919,2022-11-28_24h42.48.031,vts_reward_expectancy_bt,2022.2.4,MacIntel,60.0024001,Chrome,1440,900,,,,,1,807,,,,,,,,,,,,,,,,,132,H,circle,1,1,,,,,,,,,,,,,,,,switch,number,numSwt,d,0.0412,Lo,,,,,,3,,,,,,,,high,3,0,3,0,1,,,,,,,,,
294919,2022-11-28_24h42.48.031,vts_reward_expectancy_bt,2022.2.4,MacIntel,60.0024001,Chrome,1440,900,,,,,1,808,,,,,,,,,,,,,,,,,160,B,star,1,0,,,,,,,,,,,,,,,,switch,letter,lettSwt,j,0.116,Hi,,,,,,3,,,,,,,,high,4,0,4,0,1,,,,,,,,,
294919,2022-11-28_24h42.48.031,vts_reward_expectancy_bt,2022.2.4,MacIntel,60.0024001,Chrome,1440,900,,,,,0,808,,,,,,,,,,,,,,,,,146,S,hexagon,0,0,,,,,,,,,,,,,,,,repeat,letter,NA,j,0.1013,Hi,,,,,,3,,,,,,,,high,5,0,5,0,1,,,,,,,,,
294919,2022-11-28_24h42.48.031,vts_reward_expectancy_bt,2022.2.4,MacIntel,60.0024001,Chrome,1440,900,,,,,10,818,,,,,,,,,,,,,,,,,139,D,triangle,1,1,,,,,,,,,,,,,,,,switch,number,numSwt,d,0.0015,Lo,,,,,,3,,,,,,,,high,6,0,6,0,1,,,,,,,,,
294919,2022-11-28_24h42.48.031,vts_reward_expectancy_bt,2022.2.4,MacIntel,60.0024001,Chrome,1440,900,,,,,1,819,,,,,,,,,,,,,,,,,125,F,circle,1,0,,,,,,,,,,,,,,,,repeat,number,numRpt,d,0.0006,Lo,,,,,,3,,,,,,,,high,7,0,7,0,1,,,,,,,,,
294919,2022-11-28_24h42.48.031,vts_reward_expectancy_bt,2022.2.4,MacIntel,60.0024001,Chrome,1440,900,,,,,0,819,,,,,,,,,,,,,,,,,167,Y,star,0,0,,,,,,,,,,,,,,,,repeat,number,NA,d,0.1192,Lo,,,,,,3,,,,,,,,high,8,0,8,0,1,,,,,,,,,
294919,2022-11-28_24h42.48.031,vts_reward_expectancy_bt,2022.2.4,MacIntel,60.0024001,Chrome,1440,900,,,,,0,819,,,,,,,,,,,,,,,,,174,U,circle,0,1,,,,,,,,,,,,,,,,switch,letter,NA,j,0.1735,Lo,,,,,,3,,,,,,,,high,9,0,9,0,1,,,,,,,,,
294919,2022-11-28_24h42.48.031,vts_reward_expectancy_bt,2022.2.4,MacIntel,60.0024001,Chrome,1440,900,,,,,0,819,,,,,,,,,,,,,,,,,181,W,hexagon,0,1,,,,,,,,,,,,,,,,switch,number,NA,d,0.0945,Lo,,,,,,3,,,,,,,,high,10,0,10,0,1,,,,,,,,,
294919,2022-11-28_24h42.48.031,vts_reward_expectancy_bt,2022.2.4,MacIntel,60.0024001,Chrome,1440,900,,,,,1,820,,,,,,,,,,,,,,,,,132,H,triangle,1,1,,,,,,,,,,,,,,,,switch,letter,lettSwt,j,0.068,Lo,,,,,,3,,,,,,,,high,11,0,11,0,1,,,,,,,,,
294919,2022-11-28_24h42.48.031,vts_reward_expectancy_bt,2022.2.4,MacIntel,60.0024001,Chrome,1440,900,,,,,1,821,,,,,,,,,,,,,,,,,160,B,circle,1,0,,,,,,,,,,,,,,,,repeat,letter,lettRpt,j,0.0525,Lo,,,,,,3,,,,,,,,high,12,0,12,0,1,,,,,,,,,
294919,2022-11-28_24h42.48.031,vts_reward_expectancy_bt,2022.2.4,MacIntel,60.0024001,Chrome,1440,900,,,,,0,821,,,,,,,,,,,,,,,,,146,S,hexagon,0,0,,,,,,,,,,,,,,,,repeat,letter,NA,j,0.1633,Lo,,,,,,3,,,,,,,,high,13,0,13,0,1,,,,,,,,,
294919,2022-11-28_24h42.48.031,vts_reward_expectancy_bt,2022.2.4,MacIntel,60.0024001,Chrome,1440,900,,,,,1,822,,,,,,,,,,,,,,,,,139,D,triangle,1,1,,,,,,,,,,,,,,,,switch,number,numSwt,d,0.0013,Lo,,,,,,3,,,,,,,,high,14,0,14,0,1,,,,,,,,,
294919,2022-11-28_24h42.48.031,vts_reward_expectancy_bt,2022.2.4,MacIntel,60.0024001,Chrome,1440,900,,,,,0,822,,,,,,,,,,,,,,,,,125,F,star,0,0,,,,,,,,,,,,,,,,repeat,number,NA,f,0.0712,Lo,,,,,,3,,,,,,,,high,15,0,15,0,1,,,,,,,,,
294919,2022-11-28_24h42.48.031,vts_reward_expectancy_bt,2022.2.4,MacIntel,60.0024001,Chrome,1440,900,,,,,1,823,,,,,,,,,,,,,,,,,132,F,triangle,1,1,,,,,,,,,,,,,,,,switch,letter,lettSwt,j,0.1324,Lo,,,,,,3,,,,,,,,high,16,0,16,0,1,,,,,,,,,
294919,2022-11-28_24h42.48.031,vts_reward_expectancy_bt,2022.2.4,MacIntel,60.0024001,Chrome,1440,900,,,,,0,823,,,,,,,,,,,,,,,,,139,B,star,0,0,,,,,,,,,,,,,,,,repeat,letter,NA,k,0.2911,Lo,,,,,,3,,,,,,,,high,17,0,17,0,1,,,,,,,,,
294919,2022-11-28_24h42.48.031,vts_reward_expectancy_bt,2022.2.4,MacIntel,60.0024001,Chrome,1440,900,,,,,0,823,,,,,,,,,,,,,,,,,181,Y,circle,0,1,,,,,,,,,,,,,,,,repeat,letter,NA,j,0.0035,Lo,,,,,,3,,,,,,,,high,18,0,18,0,1,,,,,,,,,
294919,2022-11-28_24h42.48.031,vts_reward_expectancy_bt,2022.2.4,MacIntel,60.0024001,Chrome,1440,900,,,,,10,833,,,,,,,,,,,,,,,,,125,H,hexagon,1,1,,,,,,,,,,,,,,,,switch,number,numSwt,d,0.0396,Hi,,,,,,3,,,,,,,,high,19,0,19,0,1,,,,,,,,,
294919,2022-11-28_24h42.48.031,vts_reward_expectancy_bt,2022.2.4,MacIntel,60.0024001,Chrome,1440,900,,,,,0,833,,,,,,,,,,,,,,,,,174,U,triangle,0,0,,,,,,,,,,,,,,,,repeat,number,NA,d,0.4143,Hi,,,,,,3,,,,,,,,high,20,0,20,0,1,,,,,,,,,
294919,2022-11-28_24h42.48.031,vts_reward_expectancy_bt,2022.2.4,MacIntel,60.0024001,Chrome,1440,900,,,,,10,843,,,,,,,,,,,,,,,,,146,D,hexagon,1,1,,,,,,,,,,,,,,,,switch,letter,lettSwt,j,0.0007,Hi,,,,,,3,,,,,,,,high,21,0,21,0,1,,,,,,,,,
294919,2022-11-28_24h42.48.031,vts_reward_expectancy_bt,2022.2.4,MacIntel,60.0024001,Chrome,1440,900,,,,,0,843,,,,,,,,,,,,,,,,,167,S,circle,0,0,,,,,,,,,,,,,,,,repeat,letter,NA,j,0.1194,Hi,,,,,,3,,,,,,,,high,22,0,22,0,1,,,,,,,,,
294919,2022-11-28_24h42.48.031,vts_reward_expectancy_bt,2022.2.4,MacIntel,60.0024001,Chrome,1440,900,,,,,0,843,,,,,,,,,,,,,,,,,160,W,star,0,1,,,,,,,,,,,,,,,,switch,number,NA,d,0.0979,Hi,,,,,,3,,,,,,,,high,23,0,23,0,1,,,,,,,,,
294919,2022-11-28_24h42.48.031,vts_reward_expectancy_bt,2022.2.4,MacIntel,60.0024001,Chrome,1440,900,,,,,0,843,,,,,,,,,,,,,,,,,174,D,circle,0,1,,,,,,,,,,,,,,,,repeat,number,NA,d,0.0945,Hi,,,,,,3,,,,,,,,high,24,0,24,0,1,,,,,,,,,
294919,2022-11-28_24h42.48.031,vts_reward_expectancy_bt,2022.2.4,MacIntel,60.0024001,Chrome,1440,900,,,,,0,843,,,,,,,,,,,,,,,,,167,H,triangle,0,1,,,,,,,,,,,,,,,,repeat,number,NA,d,0.0614,Hi,,,,,,3,,,,,,,,high,25,0,25,0,1,,,,,,,,,
294919,2022-11-28_24h42.48.031,vts_reward_expectancy_bt,2022.2.4,MacIntel,60.0024001,Chrome,1440,900,,,,,10,853,,,,,,,,,,,,,,,,,160,F,star,1,1,,,,,,,,,,,,,,,,switch,letter,lettSwt,j,0.0465,Hi,,,,,,3,,,,,,,,high,26,0,26,0,1,,,,,,,,,
294919,2022-11-28_24h42.48.031,vts_reward_expectancy_bt,2022.2.4,MacIntel,60.0024001,Chrome,1440,900,,,,,0,853,,,,,,,,,,,,,,,,,181,W,hexagon,0,0,,,,,,,,,,,,,,,,repeat,letter,NA,j,0.0842,Hi,,,,,,3,,,,,,,,high,27,0,27,0,1,,,,,,,,,
294919,2022-11-28_24h42.48.031,vts_reward_expectancy_bt,2022.2.4,MacIntel,60.0024001,Chrome,1440,900,,,,,0,853,,,,,,,,,,,,,,,,,125,U,hexagon,0,1,,,,,,,,,,,,,,,,repeat,letter,NA,j,0.0947,Hi,,,,,,3,,,,,,,,high,28,0,28,0,1,,,,,,,,,
