participant,date,expName,psychopyVersion,OS,frameRate,browser,xResolution,yResolution,key_resp.keys,key_resp.rt,training_resp.keys,training_resp.rt,points_trial,points_cumul,trainBlock,training.thisRepN,training.thisTrialN,training.thisN,training.thisIndex,training.ran,LTriangleOpac,LCircleOpac,LHexagonOpac,LStarOpac,RTriangleOpac,RCircleOpac,RHexagonOpac,RStarOpac,LShape_ID,RShape_ID,curr_topStim,curr_bottStim,curr_shape,acc,E1,target_resp_prac1.keys,target_resp_prac1.rt,pracBlock,task1_prac_trials.thisRepN,task1_prac_trials.thisTrialN,task1_prac_trials.thisN,task1_prac_trials.thisIndex,task1_prac_trials.ran,target_resp_prac2.keys,target_resp_prac2.rt,task2_praac_trials.thisRepN,task2_praac_trials.thisTrialN,task2_praac_trials.thisN,task2_praac_trials.thisIndex,task2_praac_trials.ran,alt,task,condition,target_resp.keys,target_resp.rt,rewCond,vts_practice_trials.thisRepN,vts_practice_trials.thisTrialN,vts_practice_trials.thisN,vts_practice_trials.thisIndex,vts_practice_trials.ran,blockNum,trials_norew.thisRepN,trials_norew.thisTrialN,trials_norew.thisN,trials_norew.thisIndex,trials_norew.ran,key_resp_2.keys,key_resp_2.rt,rewExpectancy,trials_rew.thisRepN,trials_rew.thisTrialN,trials_rew.thisN,trials_rew.thisIndex,trials_rew.ran,Q1,Q2,Q2_text,Q3,Q4,Q5_text,Q5,xRes,yRes
295045,2022-11-27_17h46.29.174,vts_reward_expectancy_bt,2022.2.4,MacIntel,60.04202942,Chrome,1440,900,,,,,,,,,,,,,,,,,,,,,,,,,,,,,,,,,,,,,,,,,,,,,,,,,,,,,,,,,,,,,,,,,,,,,,,,,,,,
295045,2022-11-27_17h46.29.174,vts_reward_expectancy_bt,2022.2.4,MacIntel,60.04202942,Chrome,1440,900,space,13.8487,,,,,,,,,,,,,,,,,,,,,,,,,,,,,,,,,,,,,,,,,,,,,,,,,,,,,,,,,,,,,,,,,,,,,,,,,,
295045,2022-11-27_17h46.29.174,vts_reward_expectancy_bt,2022.2.4,MacIntel,60.04202942,Chrome,1440,900,,,,,,,,,,,,,,,,,,,,,,,,,,,,,,,,,,,,,,,,,,,,,,,,,,,,,,,,,,,,,,,,,,,,,,,,,,,,
295045,2022-11-27_17h46.29.174,vts_reward_expectancy_bt,2022.2.4,MacIntel,60.04202942,Chrome,1440,900,,,a,2.7468,10,10,0,0,0,0,6,1,0,0,1,0,1,0,0,0,hexagon,triangle,,,,,,,,,,,,,,,,,,,,,,,,,,,,,,,,,,,,,,,,,,,,,,,,,,,,,,
295045,2022-11-27_17h46.29.174,vts_reward_expectancy_bt,2022.2.4,MacIntel,60.04202942,Chrome,1440,900,,,l,3.2482,10,20,0,0,1,1,10,1,0,0,0,1,0,1,0,0,star ,circle,,,,,,,,,,,,,,,,,,,,,,,,,,,,,,,,,,,,,,,,,,,,,,,,,,,,,,
295045,2022-11-27_17h46.29.174,vts_reward_expectancy_bt,2022.2.4,MacIntel,60.04202942,Chrome,1440,900,,,l,1.5692,1,21,0,0,2,2,2,1,1,0,0,0,0,0,0,1,triangle,star,,,,,,,,,,,,,,,,,,,,,,,,,,,,,,,,,,,,,,,,,,,,,,,,,,,,,,
295045,2022-11-27_17h46.29.174,vts_reward_expectancy_bt,2022.2.4,MacIntel,60.04202942,Chrome,1440,900,,,l,2.1084,10,31,0,0,3,3,7,1,0,0,1,0,0,1,0,0,hexagon,circle,,,,,,,,,,,,,,,,,,,,,,,,,,,,,,,,,,,,,,,,,,,,,,,,,,,,,,
295045,2022-11-27_17h46.29.174,vts_reward_expectancy_bt,2022.2.4,MacIntel,60.04202942,Chrome,1440,900,,,a,2.3032,1,32,0,0,4,4,11,1,0,0,0,1,0,0,1,0,star,hexagon,,,,,,,,,,,,,,,,,,,,,,,,,,,,,,,,,,,,,,,,,,,,,,,,,,,,,,
295045,2022-11-27_17h46.29.174,vts_reward_expectancy_bt,2022.2.4,MacIntel,60.04202942,Chrome,1440,900,,,a,1.169,10,42,0,0,5,5,4,1,0,1,0,0,0,0,1,0,circle,hexagon,,,,,,,,,,,,,,,,,,,,,,,,,,,,,,,,,,,,,,,,,,,,,,,,,,,,,,
295045,2022-11-27_17h46.29.174,vts_reward_expectancy_bt,2022.2.4,MacIntel,60.04202942,Chrome,1440,900,,,a,1.7274,10,52,0,0,6,6,5,1,0,1,0,0,0,0,0,1,circle,star,,,,,,,,,,,,,,,,,,,,,,,,,,,,,,,,,,,,,,,,,,,,,,,,,,,,,,
295045,2022-11-27_17h46.29.174,vts_reward_expectancy_bt,2022.2.4,MacIntel,60.04202942,Chrome,1440,900,,,a,1.6029,1,53,0,0,7,7,9,1,0,0,0,1,1,0,0,0,star,triangle,,,,,,,,,,,,,,,,,,,,,,,,,,,,,,,,,,,,,,,,,,,,,,,,,,,,,,
295045,2022-11-27_17h46.29.174,vts_reward_expectancy_bt,2022.2.4,MacIntel,60.04202942,Chrome,1440,900,,,a,0.9029,1,54,0,0,8,8,3,1,0,1,0,0,1,0,0,0,circle,triangle,,,,,,,,,,,,,,,,,,,,,,,,,,,,,,,,,,,,,,,,,,,,,,,,,,,,,,
295045,2022-11-27_17h46.29.174,vts_reward_expectancy_bt,2022.2.4,MacIntel,60.04202942,Chrome,1440,900,,,l,1.7944,10,64,0,0,9,9,8,1,0,0,1,0,0,0,0,1,hexagon,star,,,,,,,,,,,,,,,,,,,,,,,,,,,,,,,,,,,,,,,,,,,,,,,,,,,,,,
295045,2022-11-27_17h46.29.174,vts_reward_expectancy_bt,2022.2.4,MacIntel,60.04202942,Chrome,1440,900,,,l,1.2953,10,74,0,0,10,10,0,1,1,0,0,0,0,1,0,0,triangle,circle,,,,,,,,,,,,,,,,,,,,,,,,,,,,,,,,,,,,,,,,,,,,,,,,,,,,,,
295045,2022-11-27_17h46.29.174,vts_reward_expectancy_bt,2022.2.4,MacIntel,60.04202942,Chrome,1440,900,,,l,1.3124,1,75,0,0,11,11,1,1,1,0,0,0,0,0,1,0,triangle,hexagon,,,,,,,,,,,,,,,,,,,,,,,,,,,,,,,,,,,,,,,,,,,,,,,,,,,,,,
295045,2022-11-27_17h46.29.174,vts_reward_expectancy_bt,2022.2.4,MacIntel,60.04202942,Chrome,1440,900,,,l,1.9953,10,85,0,1,0,12,2,1,1,0,0,0,0,0,0,1,triangle,star,,,,,,,,,,,,,,,,,,,,,,,,,,,,,,,,,,,,,,,,,,,,,,,,,,,,,,
295045,2022-11-27_17h46.29.174,vts_reward_expectancy_bt,2022.2.4,MacIntel,60.04202942,Chrome,1440,900,,,a,1.7457,1,86,0,1,1,13,11,1,0,0,0,1,0,0,1,0,star,hexagon,,,,,,,,,,,,,,,,,,,,,,,,,,,,,,,,,,,,,,,,,,,,,,,,,,,,,,
295045,2022-11-27_17h46.29.174,vts_reward_expectancy_bt,2022.2.4,MacIntel,60.04202942,Chrome,1440,900,,,a,1.0706,10,96,0,1,2,14,5,1,0,1,0,0,0,0,0,1,circle,star,,,,,,,,,,,,,,,,,,,,,,,,,,,,,,,,,,,,,,,,,,,,,,,,,,,,,,
295045,2022-11-27_17h46.29.174,vts_reward_expectancy_bt,2022.2.4,MacIntel,60.04202942,Chrome,1440,900,,,l,1.8009,10,106,0,1,3,15,7,1,0,0,1,0,0,1,0,0,hexagon,circle,,,,,,,,,,,,,,,,,,,,,,,,,,,,,,,,,,,,,,,,,,,,,,,,,,,,,,
295045,2022-11-27_17h46.29.174,vts_reward_expectancy_bt,2022.2.4,MacIntel,60.04202942,Chrome,1440,900,,,l,1.7012,1,107,0,1,4,16,1,1,1,0,0,0,0,0,1,0,triangle,hexagon,,,,,,,,,,,,,,,,,,,,,,,,,,,,,,,,,,,,,,,,,,,,,,,,,,,,,,
295045,2022-11-27_17h46.29.174,vts_reward_expectancy_bt,2022.2.4,MacIntel,60.04202942,Chrome,1440,900,,,l,1.6161,10,117,0,1,5,17,0,1,1,0,0,0,0,1,0,0,triangle,circle,,,,,,,,,,,,,,,,,,,,,,,,,,,,,,,,,,,,,,,,,,,,,,,,,,,,,,
295045,2022-11-27_17h46.29.174,vts_reward_expectancy_bt,2022.2.4,MacIntel,60.04202942,Chrome,1440,900,,,a,1.115,1,118,0,1,6,18,6,1,0,0,1,0,1,0,0,0,hexagon,triangle,,,,,,,,,,,,,,,,,,,,,,,,,,,,,,,,,,,,,,,,,,,,,,,,,,,,,,
295045,2022-11-27_17h46.29.174,vts_reward_expectancy_bt,2022.2.4,MacIntel,60.04202942,Chrome,1440,900,,,l,1.3519,10,128,0,1,7,19,10,1,0,0,0,1,0,1,0,0,star ,circle,,,,,,,,,,,,,,,,,,,,,,,,,,,,,,,,,,,,,,,,,,,,,,,,,,,,,,
295045,2022-11-27_17h46.29.174,vts_reward_expectancy_bt,2022.2.4,MacIntel,60.04202942,Chrome,1440,900,,,l,1.6322,10,138,0,1,8,20,8,1,0,0,1,0,0,0,0,1,hexagon,star,,,,,,,,,,,,,,,,,,,,,,,,,,,,,,,,,,,,,,,,,,,,,,,,,,,,,,
295045,2022-11-27_17h46.29.174,vts_reward_expectancy_bt,2022.2.4,MacIntel,60.04202942,Chrome,1440,900,,,a,1.414,10,148,0,1,9,21,4,1,0,1,0,0,0,0,1,0,circle,hexagon,,,,,,,,,,,,,,,,,,,,,,,,,,,,,,,,,,,,,,,,,,,,,,,,,,,,,,
295045,2022-11-27_17h46.29.174,vts_reward_expectancy_bt,2022.2.4,MacIntel,60.04202942,Chrome,1440,900,,,l,2.1671,10,158,0,1,10,22,3,1,0,1,0,0,1,0,0,0,circle,triangle,,,,,,,,,,,,,,,,,,,,,,,,,,,,,,,,,,,,,,,,,,,,,,,,,,,,,,
295045,2022-11-27_17h46.29.174,vts_reward_expectancy_bt,2022.2.4,MacIntel,60.04202942,Chrome,1440,900,,,a,1.486,1,159,0,1,11,23,9,1,0,0,0,1,1,0,0,0,star,triangle,,,,,,,,,,,,,,,,,,,,,,,,,,,,,,,,,,,,,,,,,,,,,,,,,,,,,,
295045,2022-11-27_17h46.29.174,vts_reward_expectancy_bt,2022.2.4,MacIntel,60.04202942,Chrome,1440,900,,,a,1.2563,1,160,0,2,0,24,6,1,0,0,1,0,1,0,0,0,hexagon,triangle,,,,,,,,,,,,,,,,,,,,,,,,,,,,,,,,,,,,,,,,,,,,,,,,,,,,,,
295045,2022-11-27_17h46.29.174,vts_reward_expectancy_bt,2022.2.4,MacIntel,60.04202942,Chrome,1440,900,,,l,1.5834,10,170,0,2,1,25,2,1,1,0,0,0,0,0,0,1,triangle,star,,,,,,,,,,,,,,,,,,,,,,,,,,,,,,,,,,,,,,,,,,,,,,,,,,,,,,
295045,2022-11-27_17h46.29.174,vts_reward_expectancy_bt,2022.2.4,MacIntel,60.04202942,Chrome,1440,900,,,a,1.5715,10,180,0,2,2,26,9,1,0,0,0,1,1,0,0,0,star,triangle,,,,,,,,,,,,,,,,,,,,,,,,,,,,,,,,,,,,,,,,,,,,,,,,,,,,,,
295045,2022-11-27_17h46.29.174,vts_reward_expectancy_bt,2022.2.4,MacIntel,60.04202942,Chrome,1440,900,,,l,1.8609,10,190,0,2,3,27,7,1,0,0,1,0,0,1,0,0,hexagon,circle,,,,,,,,,,,,,,,,,,,,,,,,,,,,,,,,,,,,,,,,,,,,,,,,,,,,,,
295045,2022-11-27_17h46.29.174,vts_reward_expectancy_bt,2022.2.4,MacIntel,60.04202942,Chrome,1440,900,,,a,1.4182,10,200,0,2,4,28,5,1,0,1,0,0,0,0,0,1,circle,star,,,,,,,,,,,,,,,,,,,,,,,,,,,,,,,,,,,,,,,,,,,,,,,,,,,,,,
295045,2022-11-27_17h46.29.174,vts_reward_expectancy_bt,2022.2.4,MacIntel,60.04202942,Chrome,1440,900,,,a,3.2543,10,210,0,2,5,29,0,1,1,0,0,0,0,1,0,0,triangle,circle,,,,,,,,,,,,,,,,,,,,,,,,,,,,,,,,,,,,,,,,,,,,,,,,,,,,,,
295045,2022-11-27_17h46.29.174,vts_reward_expectancy_bt,2022.2.4,MacIntel,60.04202942,Chrome,1440,900,,,a,1.2499,10,220,0,2,6,30,4,1,0,1,0,0,0,0,1,0,circle,hexagon,,,,,,,,,,,,,,,,,,,,,,,,,,,,,,,,,,,,,,,,,,,,,,,,,,,,,,
295045,2022-11-27_17h46.29.174,vts_reward_expectancy_bt,2022.2.4,MacIntel,60.04202942,Chrome,1440,900,,,l,2.3691,10,230,0,2,7,31,10,1,0,0,0,1,0,1,0,0,star ,circle,,,,,,,,,,,,,,,,,,,,,,,,,,,,,,,,,,,,,,,,,,,,,,,,,,,,,,
295045,2022-11-27_17h46.29.174,vts_reward_expectancy_bt,2022.2.4,MacIntel,60.04202942,Chrome,1440,900,,,a,1.8887,10,240,0,2,8,32,1,1,1,0,0,0,0,0,1,0,triangle,hexagon,,,,,,,,,,,,,,,,,,,,,,,,,,,,,,,,,,,,,,,,,,,,,,,,,,,,,,
295045,2022-11-27_17h46.29.174,vts_reward_expectancy_bt,2022.2.4,MacIntel,60.04202942,Chrome,1440,900,,,a,1.5778,10,250,0,2,9,33,3,1,0,1,0,0,1,0,0,0,circle,triangle,,,,,,,,,,,,,,,,,,,,,,,,,,,,,,,,,,,,,,,,,,,,,,,,,,,,,,
295045,2022-11-27_17h46.29.174,vts_reward_expectancy_bt,2022.2.4,MacIntel,60.04202942,Chrome,1440,900,,,l,1.985,1,251,0,2,10,34,11,1,0,0,0,1,0,0,1,0,star,hexagon,,,,,,,,,,,,,,,,,,,,,,,,,,,,,,,,,,,,,,,,,,,,,,,,,,,,,,
295045,2022-11-27_17h46.29.174,vts_reward_expectancy_bt,2022.2.4,MacIntel,60.04202942,Chrome,1440,900,,,l,1.5009,1,252,0,2,11,35,8,1,0,0,1,0,0,0,0,1,hexagon,star,,,,,,,,,,,,,,,,,,,,,,,,,,,,,,,,,,,,,,,,,,,,,,,,,,,,,,
295045,2022-11-27_17h46.29.174,vts_reward_expectancy_bt,2022.2.4,MacIntel,60.04202942,Chrome,1440,900,,,a,1.2439,10,262,1,0,0,0,3,1,0,1,0,0,1,0,0,0,circle,triangle,,,,,,,,,,,,,,,,,,,,,,,,,,,,,,,,,,,,,,,,,,,,,,,,,,,,,,
295045,2022-11-27_17h46.29.174,vts_reward_expectancy_bt,2022.2.4,MacIntel,60.04202942,Chrome,1440,900,,,a,2.4993,10,272,1,0,1,1,5,1,0,1,0,0,0,0,0,1,circle,star,,,,,,,,,,,,,,,,,,,,,,,,,,,,,,,,,,,,,,,,,,,,,,,,,,,,,,
295045,2022-11-27_17h46.29.174,vts_reward_expectancy_bt,2022.2.4,MacIntel,60.04202942,Chrome,1440,900,,,l,2.2056,1,273,1,0,2,2,1,1,1,0,0,0,0,0,1,0,triangle,hexagon,,,,,,,,,,,,,,,,,,,,,,,,,,,,,,,,,,,,,,,,,,,,,,,,,,,,,,
295045,2022-11-27_17h46.29.174,vts_reward_expectancy_bt,2022.2.4,MacIntel,60.04202942,Chrome,1440,900,,,l,2.4014,10,283,1,0,3,3,0,1,1,0,0,0,0,1,0,0,triangle,circle,,,,,,,,,,,,,,,,,,,,,,,,,,,,,,,,,,,,,,,,,,,,,,,,,,,,,,
295045,2022-11-27_17h46.29.174,vts_reward_expectancy_bt,2022.2.4,MacIntel,60.04202942,Chrome,1440,900,,,a,2.7132,1,284,1,0,4,4,9,1,0,0,0,1,1,0,0,0,star,triangle,,,,,,,,,,,,,,,,,,,,,,,,,,,,,,,,,,,,,,,,,,,,,,,,,,,,,,
295045,2022-11-27_17h46.29.174,vts_reward_expectancy_bt,2022.2.4,MacIntel,60.04202942,Chrome,1440,900,,,l,1.523,1,285,1,0,5,5,7,1,0,0,1,0,0,1,0,0,hexagon,circle,,,,,,,,,,,,,,,,,,,,,,,,,,,,,,,,,,,,,,,,,,,,,,,,,,,,,,
295045,2022-11-27_17h46.29.174,vts_reward_expectancy_bt,2022.2.4,MacIntel,60.04202942,Chrome,1440,900,,,l,2.3185,10,295,1,0,6,6,6,1,0,0,1,0,1,0,0,0,hexagon,triangle,,,,,,,,,,,,,,,,,,,,,,,,,,,,,,,,,,,,,,,,,,,,,,,,,,,,,,
295045,2022-11-27_17h46.29.174,vts_reward_expectancy_bt,2022.2.4,MacIntel,60.04202942,Chrome,1440,900,,,a,1.5531,1,296,1,0,7,7,8,1,0,0,1,0,0,0,0,1,hexagon,star,,,,,,,,,,,,,,,,,,,,,,,,,,,,,,,,,,,,,,,,,,,,,,,,,,,,,,
295045,2022-11-27_17h46.29.174,vts_reward_expectancy_bt,2022.2.4,MacIntel,60.04202942,Chrome,1440,900,,,l,1.8185,10,306,1,0,8,8,11,1,0,0,0,1,0,0,1,0,star,hexagon,,,,,,,,,,,,,,,,,,,,,,,,,,,,,,,,,,,,,,,,,,,,,,,,,,,,,,
295045,2022-11-27_17h46.29.174,vts_reward_expectancy_bt,2022.2.4,MacIntel,60.04202942,Chrome,1440,900,,,a,1.4154,1,307,1,0,9,9,2,1,1,0,0,0,0,0,0,1,triangle,star,,,,,,,,,,,,,,,,,,,,,,,,,,,,,,,,,,,,,,,,,,,,,,,,,,,,,,
295045,2022-11-27_17h46.29.174,vts_reward_expectancy_bt,2022.2.4,MacIntel,60.04202942,Chrome,1440,900,,,l,1.3768,1,308,1,0,10,10,10,1,0,0,0,1,0,1,0,0,star ,circle,,,,,,,,,,,,,,,,,,,,,,,,,,,,,,,,,,,,,,,,,,,,,,,,,,,,,,
295045,2022-11-27_17h46.29.174,vts_reward_expectancy_bt,2022.2.4,MacIntel,60.04202942,Chrome,1440,900,,,a,1.9506,10,318,1,0,11,11,4,1,0,1,0,0,0,0,1,0,circle,hexagon,,,,,,,,,,,,,,,,,,,,,,,,,,,,,,,,,,,,,,,,,,,,,,,,,,,,,,
295045,2022-11-27_17h46.29.174,vts_reward_expectancy_bt,2022.2.4,MacIntel,60.04202942,Chrome,1440,900,,,l,2.1696,10,328,1,1,0,12,6,1,0,0,1,0,1,0,0,0,hexagon,triangle,,,,,,,,,,,,,,,,,,,,,,,,,,,,,,,,,,,,,,,,,,,,,,,,,,,,,,
295045,2022-11-27_17h46.29.174,vts_reward_expectancy_bt,2022.2.4,MacIntel,60.04202942,Chrome,1440,900,,,a,1.3289,10,338,1,1,1,13,3,1,0,1,0,0,1,0,0,0,circle,triangle,,,,,,,,,,,,,,,,,,,,,,,,,,,,,,,,,,,,,,,,,,,,,,,,,,,,,,
295045,2022-11-27_17h46.29.174,vts_reward_expectancy_bt,2022.2.4,MacIntel,60.04202942,Chrome,1440,900,,,a,1.1833,1,339,1,1,2,14,5,1,0,1,0,0,0,0,0,1,circle,star,,,,,,,,,,,,,,,,,,,,,,,,,,,,,,,,,,,,,,,,,,,,,,,,,,,,,,
295045,2022-11-27_17h46.29.174,vts_reward_expectancy_bt,2022.2.4,MacIntel,60.04202942,Chrome,1440,900,,,a,0.9066,1,340,1,1,3,15,11,1,0,0,0,1,0,0,1,0,star,hexagon,,,,,,,,,,,,,,,,,,,,,,,,,,,,,,,,,,,,,,,,,,,,,,,,,,,,,,
295045,2022-11-27_17h46.29.174,vts_reward_expectancy_bt,2022.2.4,MacIntel,60.04202942,Chrome,1440,900,,,a,1.1687,1,341,1,1,4,16,4,1,0,1,0,0,0,0,1,0,circle,hexagon,,,,,,,,,,,,,,,,,,,,,,,,,,,,,,,,,,,,,,,,,,,,,,,,,,,,,,
295045,2022-11-27_17h46.29.174,vts_reward_expectancy_bt,2022.2.4,MacIntel,60.04202942,Chrome,1440,900,,,a,1.0703,1,342,1,1,5,17,10,1,0,0,0,1,0,1,0,0,star ,circle,,,,,,,,,,,,,,,,,,,,,,,,,,,,,,,,,,,,,,,,,,,,,,,,,,,,,,
295045,2022-11-27_17h46.29.174,vts_reward_expectancy_bt,2022.2.4,MacIntel,60.04202942,Chrome,1440,900,,,l,1.5634,1,343,1,1,6,18,8,1,0,0,1,0,0,0,0,1,hexagon,star,,,,,,,,,,,,,,,,,,,,,,,,,,,,,,,,,,,,,,,,,,,,,,,,,,,,,,
295045,2022-11-27_17h46.29.174,vts_reward_expectancy_bt,2022.2.4,MacIntel,60.04202942,Chrome,1440,900,,,l,1.231,10,353,1,1,7,19,7,1,0,0,1,0,0,1,0,0,hexagon,circle,,,,,,,,,,,,,,,,,,,,,,,,,,,,,,,,,,,,,,,,,,,,,,,,,,,,,,
295045,2022-11-27_17h46.29.174,vts_reward_expectancy_bt,2022.2.4,MacIntel,60.04202942,Chrome,1440,900,,,l,1.7997,10,363,1,1,8,20,0,1,1,0,0,0,0,1,0,0,triangle,circle,,,,,,,,,,,,,,,,,,,,,,,,,,,,,,,,,,,,,,,,,,,,,,,,,,,,,,
295045,2022-11-27_17h46.29.174,vts_reward_expectancy_bt,2022.2.4,MacIntel,60.04202942,Chrome,1440,900,,,a,1.6986,10,373,1,1,9,21,2,1,1,0,0,0,0,0,0,1,triangle,star,,,,,,,,,,,,,,,,,,,,,,,,,,,,,,,,,,,,,,,,,,,,,,,,,,,,,,
295045,2022-11-27_17h46.29.174,vts_reward_expectancy_bt,2022.2.4,MacIntel,60.04202942,Chrome,1440,900,,,a,1.5665,10,383,1,1,10,22,1,1,1,0,0,0,0,0,1,0,triangle,hexagon,,,,,,,,,,,,,,,,,,,,,,,,,,,,,,,,,,,,,,,,,,,,,,,,,,,,,,
295045,2022-11-27_17h46.29.174,vts_reward_expectancy_bt,2022.2.4,MacIntel,60.04202942,Chrome,1440,900,,,a,2.4693,10,393,1,1,11,23,9,1,0,0,0,1,1,0,0,0,star,triangle,,,,,,,,,,,,,,,,,,,,,,,,,,,,,,,,,,,,,,,,,,,,,,,,,,,,,,
295045,2022-11-27_17h46.29.174,vts_reward_expectancy_bt,2022.2.4,MacIntel,60.04202942,Chrome,1440,900,,,a,1.4006,1,394,1,2,0,24,5,1,0,1,0,0,0,0,0,1,circle,star,,,,,,,,,,,,,,,,,,,,,,,,,,,,,,,,,,,,,,,,,,,,,,,,,,,,,,
295045,2022-11-27_17h46.29.174,vts_reward_expectancy_bt,2022.2.4,MacIntel,60.04202942,Chrome,1440,900,,,a,1.0822,10,404,1,2,1,25,4,1,0,1,0,0,0,0,1,0,circle,hexagon,,,,,,,,,,,,,,,,,,,,,,,,,,,,,,,,,,,,,,,,,,,,,,,,,,,,,,
295045,2022-11-27_17h46.29.174,vts_reward_expectancy_bt,2022.2.4,MacIntel,60.04202942,Chrome,1440,900,,,l,0.8178,1,405,1,2,2,26,8,1,0,0,1,0,0,0,0,1,hexagon,star,,,,,,,,,,,,,,,,,,,,,,,,,,,,,,,,,,,,,,,,,,,,,,,,,,,,,,
295045,2022-11-27_17h46.29.174,vts_reward_expectancy_bt,2022.2.4,MacIntel,60.04202942,Chrome,1440,900,,,l,1.314,10,415,1,2,3,27,9,1,0,0,0,1,1,0,0,0,star,triangle,,,,,,,,,,,,,,,,,,,,,,,,,,,,,,,,,,,,,,,,,,,,,,,,,,,,,,
295045,2022-11-27_17h46.29.174,vts_reward_expectancy_bt,2022.2.4,MacIntel,60.04202942,Chrome,1440,900,,,a,2.7451,1,416,1,2,4,28,3,1,0,1,0,0,1,0,0,0,circle,triangle,,,,,,,,,,,,,,,,,,,,,,,,,,,,,,,,,,,,,,,,,,,,,,,,,,,,,,
295045,2022-11-27_17h46.29.174,vts_reward_expectancy_bt,2022.2.4,MacIntel,60.04202942,Chrome,1440,900,,,l,2.4489,1,417,1,2,5,29,2,1,1,0,0,0,0,0,0,1,triangle,star,,,,,,,,,,,,,,,,,,,,,,,,,,,,,,,,,,,,,,,,,,,,,,,,,,,,,,
295045,2022-11-27_17h46.29.174,vts_reward_expectancy_bt,2022.2.4,MacIntel,60.04202942,Chrome,1440,900,,,l,1.4696,1,418,1,2,6,30,1,1,1,0,0,0,0,0,1,0,triangle,hexagon,,,,,,,,,,,,,,,,,,,,,,,,,,,,,,,,,,,,,,,,,,,,,,,,,,,,,,
295045,2022-11-27_17h46.29.174,vts_reward_expectancy_bt,2022.2.4,MacIntel,60.04202942,Chrome,1440,900,,,l,1.0028,10,428,1,2,7,31,0,1,1,0,0,0,0,1,0,0,triangle,circle,,,,,,,,,,,,,,,,,,,,,,,,,,,,,,,,,,,,,,,,,,,,,,,,,,,,,,
295045,2022-11-27_17h46.29.174,vts_reward_expectancy_bt,2022.2.4,MacIntel,60.04202942,Chrome,1440,900,,,l,4.5374,10,438,1,2,8,32,6,1,0,0,1,0,1,0,0,0,hexagon,triangle,,,,,,,,,,,,,,,,,,,,,,,,,,,,,,,,,,,,,,,,,,,,,,,,,,,,,,
295045,2022-11-27_17h46.29.174,vts_reward_expectancy_bt,2022.2.4,MacIntel,60.04202942,Chrome,1440,900,,,a,1.9487,1,439,1,2,9,33,11,1,0,0,0,1,0,0,1,0,star,hexagon,,,,,,,,,,,,,,,,,,,,,,,,,,,,,,,,,,,,,,,,,,,,,,,,,,,,,,
295045,2022-11-27_17h46.29.174,vts_reward_expectancy_bt,2022.2.4,MacIntel,60.04202942,Chrome,1440,900,,,l,1.2347,10,449,1,2,10,34,7,1,0,0,1,0,0,1,0,0,hexagon,circle,,,,,,,,,,,,,,,,,,,,,,,,,,,,,,,,,,,,,,,,,,,,,,,,,,,,,,
295045,2022-11-27_17h46.29.174,vts_reward_expectancy_bt,2022.2.4,MacIntel,60.04202942,Chrome,1440,900,,,a,1.6467,10,459,1,2,11,35,10,1,0,0,0,1,0,1,0,0,star ,circle,,,,,,,,,,,,,,,,,,,,,,,,,,,,,,,,,,,,,,,,,,,,,,,,,,,,,,
295045,2022-11-27_17h46.29.174,vts_reward_expectancy_bt,2022.2.4,MacIntel,60.04202942,Chrome,1440,900,,,l,1.6324,1,460,2,0,0,0,10,1,0,0,0,1,0,1,0,0,star ,circle,,,,,,,,,,,,,,,,,,,,,,,,,,,,,,,,,,,,,,,,,,,,,,,,,,,,,,
295045,2022-11-27_17h46.29.174,vts_reward_expectancy_bt,2022.2.4,MacIntel,60.04202942,Chrome,1440,900,,,l,3.0006,10,470,2,0,1,1,0,1,1,0,0,0,0,1,0,0,triangle,circle,,,,,,,,,,,,,,,,,,,,,,,,,,,,,,,,,,,,,,,,,,,,,,,,,,,,,,
295045,2022-11-27_17h46.29.174,vts_reward_expectancy_bt,2022.2.4,MacIntel,60.04202942,Chrome,1440,900,,,a,4.1647,1,471,2,0,2,2,11,1,0,0,0,1,0,0,1,0,star,hexagon,,,,,,,,,,,,,,,,,,,,,,,,,,,,,,,,,,,,,,,,,,,,,,,,,,,,,,
295045,2022-11-27_17h46.29.174,vts_reward_expectancy_bt,2022.2.4,MacIntel,60.04202942,Chrome,1440,900,,,a,3.3831,1,472,2,0,3,3,8,1,0,0,1,0,0,0,0,1,hexagon,star,,,,,,,,,,,,,,,,,,,,,,,,,,,,,,,,,,,,,,,,,,,,,,,,,,,,,,
295045,2022-11-27_17h46.29.174,vts_reward_expectancy_bt,2022.2.4,MacIntel,60.04202942,Chrome,1440,900,,,a,1.0336,10,482,2,0,4,4,5,1,0,1,0,0,0,0,0,1,circle,star,,,,,,,,,,,,,,,,,,,,,,,,,,,,,,,,,,,,,,,,,,,,,,,,,,,,,,
295045,2022-11-27_17h46.29.174,vts_reward_expectancy_bt,2022.2.4,MacIntel,60.04202942,Chrome,1440,900,,,a,1.7521,1,483,2,0,5,5,9,1,0,0,0,1,1,0,0,0,star,triangle,,,,,,,,,,,,,,,,,,,,,,,,,,,,,,,,,,,,,,,,,,,,,,,,,,,,,,
295045,2022-11-27_17h46.29.174,vts_reward_expectancy_bt,2022.2.4,MacIntel,60.04202942,Chrome,1440,900,,,a,0.934,1,484,2,0,6,6,4,1,0,1,0,0,0,0,1,0,circle,hexagon,,,,,,,,,,,,,,,,,,,,,,,,,,,,,,,,,,,,,,,,,,,,,,,,,,,,,,
295045,2022-11-27_17h46.29.174,vts_reward_expectancy_bt,2022.2.4,MacIntel,60.04202942,Chrome,1440,900,,,a,1.3645,10,494,2,0,7,7,3,1,0,1,0,0,1,0,0,0,circle,triangle,,,,,,,,,,,,,,,,,,,,,,,,,,,,,,,,,,,,,,,,,,,,,,,,,,,,,,
295045,2022-11-27_17h46.29.174,vts_reward_expectancy_bt,2022.2.4,MacIntel,60.04202942,Chrome,1440,900,,,l,1.1546,10,504,2,0,8,8,7,1,0,0,1,0,0,1,0,0,hexagon,circle,,,,,,,,,,,,,,,,,,,,,,,,,,,,,,,,,,,,,,,,,,,,,,,,,,,,,,
295045,2022-11-27_17h46.29.174,vts_reward_expectancy_bt,2022.2.4,MacIntel,60.04202942,Chrome,1440,900,,,l,1.3343,1,505,2,0,9,9,1,1,1,0,0,0,0,0,1,0,triangle,hexagon,,,,,,,,,,,,,,,,,,,,,,,,,,,,,,,,,,,,,,,,,,,,,,,,,,,,,,
295045,2022-11-27_17h46.29.174,vts_reward_expectancy_bt,2022.2.4,MacIntel,60.04202942,Chrome,1440,900,,,l,2.1323,1,506,2,0,10,10,6,1,0,0,1,0,1,0,0,0,hexagon,triangle,,,,,,,,,,,,,,,,,,,,,,,,,,,,,,,,,,,,,,,,,,,,,,,,,,,,,,
295045,2022-11-27_17h46.29.174,vts_reward_expectancy_bt,2022.2.4,MacIntel,60.04202942,Chrome,1440,900,,,l,4.0654,10,516,2,0,11,11,2,1,1,0,0,0,0,0,0,1,triangle,star,,,,,,,,,,,,,,,,,,,,,,,,,,,,,,,,,,,,,,,,,,,,,,,,,,,,,,
295045,2022-11-27_17h46.29.174,vts_reward_expectancy_bt,2022.2.4,MacIntel,60.04202942,Chrome,1440,900,,,a,1.3854,10,526,2,1,0,12,4,1,0,1,0,0,0,0,1,0,circle,hexagon,,,,,,,,,,,,,,,,,,,,,,,,,,,,,,,,,,,,,,,,,,,,,,,,,,,,,,
295045,2022-11-27_17h46.29.174,vts_reward_expectancy_bt,2022.2.4,MacIntel,60.04202942,Chrome,1440,900,,,l,0.9662,10,536,2,1,1,13,7,1,0,0,1,0,0,1,0,0,hexagon,circle,,,,,,,,,,,,,,,,,,,,,,,,,,,,,,,,,,,,,,,,,,,,,,,,,,,,,,
295045,2022-11-27_17h46.29.174,vts_reward_expectancy_bt,2022.2.4,MacIntel,60.04202942,Chrome,1440,900,,,a,1.5174,1,537,2,1,2,14,11,1,0,0,0,1,0,0,1,0,star,hexagon,,,,,,,,,,,,,,,,,,,,,,,,,,,,,,,,,,,,,,,,,,,,,,,,,,,,,,
295045,2022-11-27_17h46.29.174,vts_reward_expectancy_bt,2022.2.4,MacIntel,60.04202942,Chrome,1440,900,,,l,1.363,10,547,2,1,3,15,10,1,0,0,0,1,0,1,0,0,star ,circle,,,,,,,,,,,,,,,,,,,,,,,,,,,,,,,,,,,,,,,,,,,,,,,,,,,,,,
295045,2022-11-27_17h46.29.174,vts_reward_expectancy_bt,2022.2.4,MacIntel,60.04202942,Chrome,1440,900,,,a,1.1444,10,557,2,1,4,16,3,1,0,1,0,0,1,0,0,0,circle,triangle,,,,,,,,,,,,,,,,,,,,,,,,,,,,,,,,,,,,,,,,,,,,,,,,,,,,,,
295045,2022-11-27_17h46.29.174,vts_reward_expectancy_bt,2022.2.4,MacIntel,60.04202942,Chrome,1440,900,,,a,1.2305,10,567,2,1,5,17,5,1,0,1,0,0,0,0,0,1,circle,star,,,,,,,,,,,,,,,,,,,,,,,,,,,,,,,,,,,,,,,,,,,,,,,,,,,,,,
295045,2022-11-27_17h46.29.174,vts_reward_expectancy_bt,2022.2.4,MacIntel,60.04202942,Chrome,1440,900,,,l,1.6652,10,577,2,1,6,18,9,1,0,0,0,1,1,0,0,0,star,triangle,,,,,,,,,,,,,,,,,,,,,,,,,,,,,,,,,,,,,,,,,,,,,,,,,,,,,,
295045,2022-11-27_17h46.29.174,vts_reward_expectancy_bt,2022.2.4,MacIntel,60.04202942,Chrome,1440,900,,,a,1.4512,10,587,2,1,7,19,6,1,0,0,1,0,1,0,0,0,hexagon,triangle,,,,,,,,,,,,,,,,,,,,,,,,,,,,,,,,,,,,,,,,,,,,,,,,,,,,,,
295045,2022-11-27_17h46.29.174,vts_reward_expectancy_bt,2022.2.4,MacIntel,60.04202942,Chrome,1440,900,,,a,2.7828,10,597,2,1,8,20,2,1,1,0,0,0,0,0,0,1,triangle,star,,,,,,,,,,,,,,,,,,,,,,,,,,,,,,,,,,,,,,,,,,,,,,,,,,,,,,
295045,2022-11-27_17h46.29.174,vts_reward_expectancy_bt,2022.2.4,MacIntel,60.04202942,Chrome,1440,900,,,l,2.0135,1,598,2,1,9,21,8,1,0,0,1,0,0,0,0,1,hexagon,star,,,,,,,,,,,,,,,,,,,,,,,,,,,,,,,,,,,,,,,,,,,,,,,,,,,,,,
295045,2022-11-27_17h46.29.174,vts_reward_expectancy_bt,2022.2.4,MacIntel,60.04202942,Chrome,1440,900,,,l,1.1129,10,608,2,1,10,22,0,1,1,0,0,0,0,1,0,0,triangle,circle,,,,,,,,,,,,,,,,,,,,,,,,,,,,,,,,,,,,,,,,,,,,,,,,,,,,,,
295045,2022-11-27_17h46.29.174,vts_reward_expectancy_bt,2022.2.4,MacIntel,60.04202942,Chrome,1440,900,,,l,1.4551,1,609,2,1,11,23,1,1,1,0,0,0,0,0,1,0,triangle,hexagon,,,,,,,,,,,,,,,,,,,,,,,,,,,,,,,,,,,,,,,,,,,,,,,,,,,,,,
295045,2022-11-27_17h46.29.174,vts_reward_expectancy_bt,2022.2.4,MacIntel,60.04202942,Chrome,1440,900,,,a,1.2466,10,619,2,2,0,24,3,1,0,1,0,0,1,0,0,0,circle,triangle,,,,,,,,,,,,,,,,,,,,,,,,,,,,,,,,,,,,,,,,,,,,,,,,,,,,,,
295045,2022-11-27_17h46.29.174,vts_reward_expectancy_bt,2022.2.4,MacIntel,60.04202942,Chrome,1440,900,,,l,1.6837,10,629,2,2,1,25,11,1,0,0,0,1,0,0,1,0,star,hexagon,,,,,,,,,,,,,,,,,,,,,,,,,,,,,,,,,,,,,,,,,,,,,,,,,,,,,,
295045,2022-11-27_17h46.29.174,vts_reward_expectancy_bt,2022.2.4,MacIntel,60.04202942,Chrome,1440,900,,,a,1.4532,1,630,2,2,2,26,8,1,0,0,1,0,0,0,0,1,hexagon,star,,,,,,,,,,,,,,,,,,,,,,,,,,,,,,,,,,,,,,,,,,,,,,,,,,,,,,
295045,2022-11-27_17h46.29.174,vts_reward_expectancy_bt,2022.2.4,MacIntel,60.04202942,Chrome,1440,900,,,l,1.1153,10,640,2,2,3,27,0,1,1,0,0,0,0,1,0,0,triangle,circle,,,,,,,,,,,,,,,,,,,,,,,,,,,,,,,,,,,,,,,,,,,,,,,,,,,,,,
295045,2022-11-27_17h46.29.174,vts_reward_expectancy_bt,2022.2.4,MacIntel,60.04202942,Chrome,1440,900,,,a,1.3139,10,650,2,2,4,28,1,1,1,0,0,0,0,0,1,0,triangle,hexagon,,,,,,,,,,,,,,,,,,,,,,,,,,,,,,,,,,,,,,,,,,,,,,,,,,,,,,
295045,2022-11-27_17h46.29.174,vts_reward_expectancy_bt,2022.2.4,MacIntel,60.04202942,Chrome,1440,900,,,a,1.5,1,651,2,2,5,29,2,1,1,0,0,0,0,0,0,1,triangle,star,,,,,,,,,,,,,,,,,,,,,,,,,,,,,,,,,,,,,,,,,,,,,,,,,,,,,,
295045,2022-11-27_17h46.29.174,vts_reward_expectancy_bt,2022.2.4,MacIntel,60.04202942,Chrome,1440,900,,,a,1.429,1,652,2,2,6,30,6,1,0,0,1,0,1,0,0,0,hexagon,triangle,,,,,,,,,,,,,,,,,,,,,,,,,,,,,,,,,,,,,,,,,,,,,,,,,,,,,,
295045,2022-11-27_17h46.29.174,vts_reward_expectancy_bt,2022.2.4,MacIntel,60.04202942,Chrome,1440,900,,,l,1.4014,10,662,2,2,7,31,10,1,0,0,0,1,0,1,0,0,star ,circle,,,,,,,,,,,,,,,,,,,,,,,,,,,,,,,,,,,,,,,,,,,,,,,,,,,,,,
295045,2022-11-27_17h46.29.174,vts_reward_expectancy_bt,2022.2.4,MacIntel,60.04202942,Chrome,1440,900,,,l,1.326,10,672,2,2,8,32,9,1,0,0,0,1,1,0,0,0,star,triangle,,,,,,,,,,,,,,,,,,,,,,,,,,,,,,,,,,,,,,,,,,,,,,,,,,,,,,
295045,2022-11-27_17h46.29.174,vts_reward_expectancy_bt,2022.2.4,MacIntel,60.04202942,Chrome,1440,900,,,l,1.3822,10,682,2,2,9,33,7,1,0,0,1,0,0,1,0,0,hexagon,circle,,,,,,,,,,,,,,,,,,,,,,,,,,,,,,,,,,,,,,,,,,,,,,,,,,,,,,
295045,2022-11-27_17h46.29.174,vts_reward_expectancy_bt,2022.2.4,MacIntel,60.04202942,Chrome,1440,900,,,a,0.9516,10,692,2,2,10,34,4,1,0,1,0,0,0,0,1,0,circle,hexagon,,,,,,,,,,,,,,,,,,,,,,,,,,,,,,,,,,,,,,,,,,,,,,,,,,,,,,
295045,2022-11-27_17h46.29.174,vts_reward_expectancy_bt,2022.2.4,MacIntel,60.04202942,Chrome,1440,900,,,a,0.7513,10,702,2,2,11,35,5,1,0,1,0,0,0,0,0,1,circle,star,,,,,,,,,,,,,,,,,,,,,,,,,,,,,,,,,,,,,,,,,,,,,,,,,,,,,,
295045,2022-11-27_17h46.29.174,vts_reward_expectancy_bt,2022.2.4,MacIntel,60.04202942,Chrome,1440,900,,,,,,,,,,,,,,,,,,,,,,,F,167,hexagon,1,0,d,1.8175,0,0,0,0,0,1,,,,,,,,,,,,,,,,,,,,,,,,,,,,,,,,,,,,,,,,,
295045,2022-11-27_17h46.29.174,vts_reward_expectancy_bt,2022.2.4,MacIntel,60.04202942,Chrome,1440,900,,,,,,,,,,,,,,,,,,,,,,,U,181,triangle,1,0,f,0.9246,0,1,0,1,0,1,,,,,,,,,,,,,,,,,,,,,,,,,,,,,,,,,,,,,,,,,
295045,2022-11-27_17h46.29.174,vts_reward_expectancy_bt,2022.2.4,MacIntel,60.04202942,Chrome,1440,900,,,,,,,,,,,,,,,,,,,,,,,D,146,star,1,0,d,0.8533,0,2,0,2,0,1,,,,,,,,,,,,,,,,,,,,,,,,,,,,,,,,,,,,,,,,,
295045,2022-11-27_17h46.29.174,vts_reward_expectancy_bt,2022.2.4,MacIntel,60.04202942,Chrome,1440,900,,,,,,,,,,,,,,,,,,,,,,,W,139,circle,1,0,f,1.21,0,3,0,3,0,1,,,,,,,,,,,,,,,,,,,,,,,,,,,,,,,,,,,,,,,,,
295045,2022-11-27_17h46.29.174,vts_reward_expectancy_bt,2022.2.4,MacIntel,60.04202942,Chrome,1440,900,,,,,,,,,,,,,,,,,,,,,,,S,125,hexagon,1,0,f,1.0925,0,4,0,4,0,1,,,,,,,,,,,,,,,,,,,,,,,,,,,,,,,,,,,,,,,,,
295045,2022-11-27_17h46.29.174,vts_reward_expectancy_bt,2022.2.4,MacIntel,60.04202942,Chrome,1440,900,,,,,,,,,,,,,,,,,,,,,,,Y,174,triangle,1,0,f,0.8095,0,5,0,5,0,1,,,,,,,,,,,,,,,,,,,,,,,,,,,,,,,,,,,,,,,,,
295045,2022-11-27_17h46.29.174,vts_reward_expectancy_bt,2022.2.4,MacIntel,60.04202942,Chrome,1440,900,,,,,,,,,,,,,,,,,,,,,,,B,160,star,1,0,d,0.9753,0,6,0,6,0,1,,,,,,,,,,,,,,,,,,,,,,,,,,,,,,,,,,,,,,,,,
295045,2022-11-27_17h46.29.174,vts_reward_expectancy_bt,2022.2.4,MacIntel,60.04202942,Chrome,1440,900,,,,,,,,,,,,,,,,,,,,,,,H,132,circle,1,0,d,1.4144,0,7,0,7,0,1,,,,,,,,,,,,,,,,,,,,,,,,,,,,,,,,,,,,,,,,,
295045,2022-11-27_17h46.29.174,vts_reward_expectancy_bt,2022.2.4,MacIntel,60.04202942,Chrome,1440,900,,,,,,,,,,,,,,,,,,,,,,,F,167,star,1,0,d,1.6976,0,8,0,8,0,1,,,,,,,,,,,,,,,,,,,,,,,,,,,,,,,,,,,,,,,,,
295045,2022-11-27_17h46.29.174,vts_reward_expectancy_bt,2022.2.4,MacIntel,60.04202942,Chrome,1440,900,,,,,,,,,,,,,,,,,,,,,,,U,181,circle,1,0,f,2.6272,0,9,0,9,0,1,,,,,,,,,,,,,,,,,,,,,,,,,,,,,,,,,,,,,,,,,
295045,2022-11-27_17h46.29.174,vts_reward_expectancy_bt,2022.2.4,MacIntel,60.04202942,Chrome,1440,900,,,,,,,,,,,,,,,,,,,,,,,H,174,star,1,0,,,1,,,,,,k,1.8586,0,0,0,0,1,,,,,,,,,,,,,,,,,,,,,,,,,,,,,,,,,,
295045,2022-11-27_17h46.29.174,vts_reward_expectancy_bt,2022.2.4,MacIntel,60.04202942,Chrome,1440,900,,,,,,,,,,,,,,,,,,,,,,,D,139,triangle,1,0,,,1,,,,,,j,0.8226,1,0,1,0,1,,,,,,,,,,,,,,,,,,,,,,,,,,,,,,,,,,
295045,2022-11-27_17h46.29.174,vts_reward_expectancy_bt,2022.2.4,MacIntel,60.04202942,Chrome,1440,900,,,,,,,,,,,,,,,,,,,,,,,W,132,circle,1,0,,,1,,,,,,j,0.5989,2,0,2,0,1,,,,,,,,,,,,,,,,,,,,,,,,,,,,,,,,,,
295045,2022-11-27_17h46.29.174,vts_reward_expectancy_bt,2022.2.4,MacIntel,60.04202942,Chrome,1440,900,,,,,,,,,,,,,,,,,,,,,,,S,181,hexagon,1,0,,,1,,,,,,k,1.0469,3,0,3,0,1,,,,,,,,,,,,,,,,,,,,,,,,,,,,,,,,,,
295045,2022-11-27_17h46.29.174,vts_reward_expectancy_bt,2022.2.4,MacIntel,60.04202942,Chrome,1440,900,,,,,,,,,,,,,,,,,,,,,,,F,167,star,1,0,,,1,,,,,,k,1.3561,4,0,4,0,1,,,,,,,,,,,,,,,,,,,,,,,,,,,,,,,,,,
295045,2022-11-27_17h46.29.174,vts_reward_expectancy_bt,2022.2.4,MacIntel,60.04202942,Chrome,1440,900,,,,,,,,,,,,,,,,,,,,,,,B,146,triangle,1,0,,,1,,,,,,j,0.6483,5,0,5,0,1,,,,,,,,,,,,,,,,,,,,,,,,,,,,,,,,,,
295045,2022-11-27_17h46.29.174,vts_reward_expectancy_bt,2022.2.4,MacIntel,60.04202942,Chrome,1440,900,,,,,,,,,,,,,,,,,,,,,,,U,160,circle,1,0,,,1,,,,,,k,0.6313,6,0,6,0,1,,,,,,,,,,,,,,,,,,,,,,,,,,,,,,,,,,
295045,2022-11-27_17h46.29.174,vts_reward_expectancy_bt,2022.2.4,MacIntel,60.04202942,Chrome,1440,900,,,,,,,,,,,,,,,,,,,,,,,Y,125,hexagon,1,0,,,1,,,,,,j,0.4616,7,0,7,0,1,,,,,,,,,,,,,,,,,,,,,,,,,,,,,,,,,,
295045,2022-11-27_17h46.29.174,vts_reward_expectancy_bt,2022.2.4,MacIntel,60.04202942,Chrome,1440,900,,,,,,,,,,,,,,,,,,,,,,,H,174,circle,0,0,,,1,,,,,,j,0.4366,8,0,8,0,1,,,,,,,,,,,,,,,,,,,,,,,,,,,,,,,,,,
295045,2022-11-27_17h46.29.174,vts_reward_expectancy_bt,2022.2.4,MacIntel,60.04202942,Chrome,1440,900,,,,,,,,,,,,,,,,,,,,,,,D,139,star,1,1,,,1,,,,,,j,0.6954,9,0,9,0,1,,,,,,,,,,,,,,,,,,,,,,,,,,,,,,,,,,
295045,2022-11-27_17h46.29.174,vts_reward_expectancy_bt,2022.2.4,MacIntel,60.04202942,Chrome,1440,900,,,,,0,702,,,,,,,,,,,,,,,,,Y,139,hexagon,1,0,,,2,,,,,,,,,,,,,-1,letter,NA,f,2.5479,vtsPrac,0,0,0,0,1,,,,,,,,,,,,,,,,,,,,,,,
295045,2022-11-27_17h46.29.174,vts_reward_expectancy_bt,2022.2.4,MacIntel,60.04202942,Chrome,1440,900,,,,,0,702,,,,,,,,,,,,,,,,,W,174,star,1,0,,,2,,,,,,,,,,,,,switch,number,numSwt,k,2.7078,vtsPrac,1,0,1,0,1,,,,,,,,,,,,,,,,,,,,,,,
295045,2022-11-27_17h46.29.174,vts_reward_expectancy_bt,2022.2.4,MacIntel,60.04202942,Chrome,1440,900,,,,,0,702,,,,,,,,,,,,,,,,,U,167,hexagon,1,0,,,2,,,,,,,,,,,,,switch,letter,lettSwt,f,1.8102,vtsPrac,2,0,2,0,1,,,,,,,,,,,,,,,,,,,,,,,
295045,2022-11-27_17h46.29.174,vts_reward_expectancy_bt,2022.2.4,MacIntel,60.04202942,Chrome,1440,900,,,,,0,702,,,,,,,,,,,,,,,,,S,181,star,1,0,,,2,,,,,,,,,,,,,repeat,letter,lettRpt,f,1.1957,vtsPrac,3,0,3,0,1,,,,,,,,,,,,,,,,,,,,,,,
295045,2022-11-27_17h46.29.174,vts_reward_expectancy_bt,2022.2.4,MacIntel,60.04202942,Chrome,1440,900,,,,,0,702,,,,,,,,,,,,,,,,,Y,139,triangle,1,0,,,2,,,,,,,,,,,,,switch,number,numSwt,j,0.7759,vtsPrac,4,0,4,0,1,,,,,,,,,,,,,,,,,,,,,,,
295045,2022-11-27_17h46.29.174,vts_reward_expectancy_bt,2022.2.4,MacIntel,60.04202942,Chrome,1440,900,,,,,0,702,,,,,,,,,,,,,,,,,W,174,circle,1,0,,,2,,,,,,,,,,,,,switch,letter,lettSwt,f,1.5514,vtsPrac,5,0,5,0,1,,,,,,,,,,,,,,,,,,,,,,,
295045,2022-11-27_17h46.29.174,vts_reward_expectancy_bt,2022.2.4,MacIntel,60.04202942,Chrome,1440,900,,,,,0,702,,,,,,,,,,,,,,,,,U,167,hexagon,1,0,,,2,,,,,,,,,,,,,switch,number,numSwt,k,1.0787,vtsPrac,6,0,6,0,1,,,,,,,,,,,,,,,,,,,,,,,
295045,2022-11-27_17h46.29.174,vts_reward_expectancy_bt,2022.2.4,MacIntel,60.04202942,Chrome,1440,900,,,,,0,702,,,,,,,,,,,,,,,,,S,181,star,1,0,,,2,,,,,,,,,,,,,repeat,number,numRpt,k,0.7106,vtsPrac,7,0,7,0,1,,,,,,,,,,,,,,,,,,,,,,,
295045,2022-11-27_17h46.29.174,vts_reward_expectancy_bt,2022.2.4,MacIntel,60.04202942,Chrome,1440,900,,,,,0,702,,,,,,,,,,,,,,,,,U,174,circle,1,0,,,2,,,,,,,,,,,,,switch,letter,lettSwt,f,0.9946,vtsPrac,8,0,8,0,1,,,,,,,,,,,,,,,,,,,,,,,
295045,2022-11-27_17h46.29.174,vts_reward_expectancy_bt,2022.2.4,MacIntel,60.04202942,Chrome,1440,900,,,,,0,702,,,,,,,,,,,,,,,,,H,160,star,1,0,,,2,,,,,,,,,,,,,switch,number,numSwt,k,1.5746,vtsPrac,9,0,9,0,1,,,,,,,,,,,,,,,,,,,,,,,
295045,2022-11-27_17h46.29.174,vts_reward_expectancy_bt,2022.2.4,MacIntel,60.04202942,Chrome,1440,900,,,,,0,702,,,,,,,,,,,,,,,,,F,181,triangle,1,0,,,2,,,,,,,,,,,,,switch,letter,lettSwt,d,1.165,vtsPrac,10,0,10,0,1,,,,,,,,,,,,,,,,,,,,,,,
295045,2022-11-27_17h46.29.174,vts_reward_expectancy_bt,2022.2.4,MacIntel,60.04202942,Chrome,1440,900,,,,,0,702,,,,,,,,,,,,,,,,,S,146,hexagon,1,0,,,2,,,,,,,,,,,,,repeat,letter,lettRpt,f,0.7294,vtsPrac,11,0,11,0,1,,,,,,,,,,,,,,,,,,,,,,,
295045,2022-11-27_17h46.29.174,vts_reward_expectancy_bt,2022.2.4,MacIntel,60.04202942,Chrome,1440,900,,,,,0,702,,,,,,,,,,,,,,,,,D,181,circle,1,0,,,2,,,,,,,,,,,,,switch,number,numSwt,k,0.4977,vtsPrac,12,0,12,0,1,,,,,,,,,,,,,,,,,,,,,,,
295045,2022-11-27_17h46.29.174,vts_reward_expectancy_bt,2022.2.4,MacIntel,60.04202942,Chrome,1440,900,,,,,0,702,,,,,,,,,,,,,,,,,H,132,hexagon,1,0,,,2,,,,,,,,,,,,,switch,letter,lettSwt,d,1.2098,vtsPrac,13,0,13,0,1,,,,,,,,,,,,,,,,,,,,,,,
295045,2022-11-27_17h46.29.174,vts_reward_expectancy_bt,2022.2.4,MacIntel,60.04202942,Chrome,1440,900,,,,,0,702,,,,,,,,,,,,,,,,,S,167,triangle,1,0,,,2,,,,,,,,,,,,,switch,number,numSwt,k,0.7105,vtsPrac,14,0,14,0,1,,,,,,,,,,,,,,,,,,,,,,,
295045,2022-11-27_17h46.29.174,vts_reward_expectancy_bt,2022.2.4,MacIntel,60.04202942,Chrome,1440,900,,,,,0,702,,,,,,,,,,,,,,,,,W,139,circle,1,0,,,2,,,,,,,,,,,,,switch,letter,lettSwt,f,0.7434,vtsPrac,15,0,15,0,1,,,,,,,,,,,,,,,,,,,,,,,
295045,2022-11-27_17h46.29.174,vts_reward_expectancy_bt,2022.2.4,MacIntel,60.04202942,Chrome,1440,900,,,,,0,702,,,,,,,,,,,,,,,,,S,181,triangle,1,0,,,2,,,,,,,,,,,,,repeat,letter,lettRpt,f,0.8616,vtsPrac,16,0,16,0,1,,,,,,,,,,,,,,,,,,,,,,,
295045,2022-11-27_17h46.29.174,vts_reward_expectancy_bt,2022.2.4,MacIntel,60.04202942,Chrome,1440,900,,,,,0,702,,,,,,,,,,,,,,,,,H,125,star,1,0,,,2,,,,,,,,,,,,,switch,number,numSwt,j,0.8796,vtsPrac,17,0,17,0,1,,,,,,,,,,,,,,,,,,,,,,,
295045,2022-11-27_17h46.29.174,vts_reward_expectancy_bt,2022.2.4,MacIntel,60.04202942,Chrome,1440,900,,,,,0,702,,,,,,,,,,,,,,,,,F,167,hexagon,1,0,,,2,,,,,,,,,,,,,repeat,number,numRpt,k,0.9247,vtsPrac,18,0,18,0,1,,,,,,,,,,,,,,,,,,,,,,,
295045,2022-11-27_17h46.29.174,vts_reward_expectancy_bt,2022.2.4,MacIntel,60.04202942,Chrome,1440,900,,,,,0,702,,,,,,,,,,,,,,,,,W,174,star,1,0,,,2,,,,,,,,,,,,,switch,letter,lettSwt,f,1.2141,vtsPrac,19,0,19,0,1,,,,,,,,,,,,,,,,,,,,,,,
295045,2022-11-27_17h46.29.174,vts_reward_expectancy_bt,2022.2.4,MacIntel,60.04202942,Chrome,1440,900,,,,,0,702,,,,,,,,,,,,,,,,,F,160,star,1,0,,,2,,,,,,,,,,,,,repeat,letter,lettRpt,d,0.72,vtsPrac,20,0,20,0,1,,,,,,,,,,,,,,,,,,,,,,,
295045,2022-11-27_17h46.29.174,vts_reward_expectancy_bt,2022.2.4,MacIntel,60.04202942,Chrome,1440,900,,,,,0,702,,,,,,,,,,,,,,,,,Y,146,circle,1,0,,,2,,,,,,,,,,,,,switch,number,numSwt,j,0.6256,vtsPrac,21,0,21,0,1,,,,,,,,,,,,,,,,,,,,,,,
295045,2022-11-27_17h46.29.174,vts_reward_expectancy_bt,2022.2.4,MacIntel,60.04202942,Chrome,1440,900,,,,,0,702,,,,,,,,,,,,,,,,,B,174,circle,1,0,,,2,,,,,,,,,,,,,repeat,number,numRpt,k,0.6462,vtsPrac,22,0,22,0,1,,,,,,,,,,,,,,,,,,,,,,,
295045,2022-11-27_17h46.29.174,vts_reward_expectancy_bt,2022.2.4,MacIntel,60.04202942,Chrome,1440,900,,,,,0,702,,,,,,,,,,,,,,,,,W,132,triangle,1,0,,,2,,,,,,,,,,,,,repeat,number,numRpt,j,0.5015,vtsPrac,23,0,23,0,1,,,,,,,,,,,,,,,,,,,,,,,
295045,2022-11-27_17h46.29.174,vts_reward_expectancy_bt,2022.2.4,MacIntel,60.04202942,Chrome,1440,900,,,,,0,702,,,,,,,,,,,,,,,,,D,167,star,1,0,,,2,,,,,,,,,,,,,switch,letter,lettSwt,d,0.5661,vtsPrac,24,0,24,0,1,,,,,,,,,,,,,,,,,,,,,,,
295045,2022-11-27_17h46.29.174,vts_reward_expectancy_bt,2022.2.4,MacIntel,60.04202942,Chrome,1440,900,,,,,0,702,,,,,,,,,,,,,,,,,F,160,triangle,1,0,,,2,,,,,,,,,,,,,repeat,letter,lettRpt,d,0.8971,vtsPrac,25,0,25,0,1,,,,,,,,,,,,,,,,,,,,,,,
295045,2022-11-27_17h46.29.174,vts_reward_expectancy_bt,2022.2.4,MacIntel,60.04202942,Chrome,1440,900,,,,,0,702,,,,,,,,,,,,,,,,,S,146,hexagon,1,0,,,2,,,,,,,,,,,,,switch,number,numSwt,j,1.7037,vtsPrac,26,0,26,0,1,,,,,,,,,,,,,,,,,,,,,,,
295045,2022-11-27_17h46.29.174,vts_reward_expectancy_bt,2022.2.4,MacIntel,60.04202942,Chrome,1440,900,,,,,0,702,,,,,,,,,,,,,,,,,Y,181,triangle,1,0,,,2,,,,,,,,,,,,,repeat,number,numRpt,k,0.7482,vtsPrac,27,0,27,0,1,,,,,,,,,,,,,,,,,,,,,,,
295045,2022-11-27_17h46.29.174,vts_reward_expectancy_bt,2022.2.4,MacIntel,60.04202942,Chrome,1440,900,,,,,0,702,,,,,,,,,,,,,,,,,H,146,star,1,0,,,2,,,,,,,,,,,,,switch,letter,lettSwt,d,1.0832,vtsPrac,28,0,28,0,1,,,,,,,,,,,,,,,,,,,,,,,
295045,2022-11-27_17h46.29.174,vts_reward_expectancy_bt,2022.2.4,MacIntel,60.04202942,Chrome,1440,900,,,,,0,702,,,,,,,,,,,,,,,,,Y,167,triangle,1,0,,,2,,,,,,,,,,,,,repeat,letter,lettRpt,f,1.4952,vtsPrac,29,0,29,0,1,,,,,,,,,,,,,,,,,,,,,,,
295045,2022-11-27_17h46.29.174,vts_reward_expectancy_bt,2022.2.4,MacIntel,60.04202942,Chrome,1440,900,,,,,0,702,,,,,,,,,,,,,,,,,B,132,circle,1,0,,,2,,,,,,,,,,,,,repeat,letter,lettRpt,d,0.7081,vtsPrac,30,0,30,0,1,,,,,,,,,,,,,,,,,,,,,,,
295045,2022-11-27_17h46.29.174,vts_reward_expectancy_bt,2022.2.4,MacIntel,60.04202942,Chrome,1440,900,,,,,0,702,,,,,,,,,,,,,,,,,W,160,hexagon,1,0,,,2,,,,,,,,,,,,,switch,number,numSwt,k,1.6138,vtsPrac,31,0,31,0,1,,,,,,,,,,,,,,,,,,,,,,,
295045,2022-11-27_17h46.29.174,vts_reward_expectancy_bt,2022.2.4,MacIntel,60.04202942,Chrome,1440,900,,,,,,,,,,,,,,,,,,,,,,,,,,,,,,,,,,,,,,,,,,,,,,,,,,,,,,,,,,,,,,,,,,,,,,,,,,,,
295045,2022-11-27_17h46.29.174,vts_reward_expectancy_bt,2022.2.4,MacIntel,60.04202942,Chrome,1440,900,,,,,,,,,,,,,,,,,,,,,,,,,,,,,,,,,,,,,,,,,,,,,,,,,,,,,,,,,,,,,,,,,,,,,,,,,,,,
295045,2022-11-27_17h46.29.174,vts_reward_expectancy_bt,2022.2.4,MacIntel,60.04202942,Chrome,1440,900,,,,,0,702,,,,,,,,,,,,,,,,,Y,132,triangle,1,0,,,,,,,,,,,,,,,,switch,letter,lettSwt,f,1.0778,noRew,,,,,,0,0,0,0,0,1,,,,,,,,,,,,,,,,,
295045,2022-11-27_17h46.29.174,vts_reward_expectancy_bt,2022.2.4,MacIntel,60.04202942,Chrome,1440,900,,,,,0,702,,,,,,,,,,,,,,,,,W,181,circle,1,0,,,,,,,,,,,,,,,,repeat,letter,lettRpt,f,1.0293,noRew,,,,,,0,1,0,1,0,1,,,,,,,,,,,,,,,,,
295045,2022-11-27_17h46.29.174,vts_reward_expectancy_bt,2022.2.4,MacIntel,60.04202942,Chrome,1440,900,,,,,0,702,,,,,,,,,,,,,,,,,H,174,triangle,1,0,,,,,,,,,,,,,,,,switch,number,numSwt,k,0.7969,noRew,,,,,,0,2,0,2,0,1,,,,,,,,,,,,,,,,,
295045,2022-11-27_17h46.29.174,vts_reward_expectancy_bt,2022.2.4,MacIntel,60.04202942,Chrome,1440,900,,,,,0,702,,,,,,,,,,,,,,,,,B,146,circle,1,0,,,,,,,,,,,,,,,,repeat,number,numRpt,j,0.8062,noRew,,,,,,0,3,0,3,0,1,,,,,,,,,,,,,,,,,
295045,2022-11-27_17h46.29.174,vts_reward_expectancy_bt,2022.2.4,MacIntel,60.04202942,Chrome,1440,900,,,,,0,702,,,,,,,,,,,,,,,,,Y,132,star,1,0,,,,,,,,,,,,,,,,repeat,number,numRpt,j,0.5961,noRew,,,,,,0,4,0,4,0,1,,,,,,,,,,,,,,,,,
295045,2022-11-27_17h46.29.174,vts_reward_expectancy_bt,2022.2.4,MacIntel,60.04202942,Chrome,1440,900,,,,,0,702,,,,,,,,,,,,,,,,,W,181,circle,1,0,,,,,,,,,,,,,,,,switch,letter,lettSwt,f,0.5662,noRew,,,,,,0,5,0,5,0,1,,,,,,,,,,,,,,,,,
295045,2022-11-27_17h46.29.174,vts_reward_expectancy_bt,2022.2.4,MacIntel,60.04202942,Chrome,1440,900,,,,,0,702,,,,,,,,,,,,,,,,,H,174,star,1,0,,,,,,,,,,,,,,,,repeat,letter,lettRpt,d,0.8144,noRew,,,,,,0,6,0,6,0,1,,,,,,,,,,,,,,,,,
295045,2022-11-27_17h46.29.174,vts_reward_expectancy_bt,2022.2.4,MacIntel,60.04202942,Chrome,1440,900,,,,,0,702,,,,,,,,,,,,,,,,,B,146,circle,1,0,,,,,,,,,,,,,,,,repeat,letter,lettRpt,d,0.7604,noRew,,,,,,0,7,0,7,0,1,,,,,,,,,,,,,,,,,
295045,2022-11-27_17h46.29.174,vts_reward_expectancy_bt,2022.2.4,MacIntel,60.04202942,Chrome,1440,900,,,,,0,702,,,,,,,,,,,,,,,,,U,160,hexagon,1,0,,,,,,,,,,,,,,,,switch,number,numSwt,k,0.6074,noRew,,,,,,0,8,0,8,0,1,,,,,,,,,,,,,,,,,
295045,2022-11-27_17h46.29.174,vts_reward_expectancy_bt,2022.2.4,MacIntel,60.04202942,Chrome,1440,900,,,,,0,702,,,,,,,,,,,,,,,,,D,139,star,1,0,,,,,,,,,,,,,,,,switch,letter,lettSwt,d,0.623,noRew,,,,,,0,9,0,9,0,1,,,,,,,,,,,,,,,,,
295045,2022-11-27_17h46.29.174,vts_reward_expectancy_bt,2022.2.4,MacIntel,60.04202942,Chrome,1440,900,,,,,0,702,,,,,,,,,,,,,,,,,W,132,star,1,0,,,,,,,,,,,,,,,,repeat,letter,lettRpt,f,1.0298,noRew,,,,,,0,10,0,10,0,1,,,,,,,,,,,,,,,,,
295045,2022-11-27_17h46.29.174,vts_reward_expectancy_bt,2022.2.4,MacIntel,60.04202942,Chrome,1440,900,,,,,0,702,,,,,,,,,,,,,,,,,S,174,triangle,1,0,,,,,,,,,,,,,,,,switch,number,numSwt,k,0.5614,noRew,,,,,,0,11,0,11,0,1,,,,,,,,,,,,,,,,,
295045,2022-11-27_17h46.29.174,vts_reward_expectancy_bt,2022.2.4,MacIntel,60.04202942,Chrome,1440,900,,,,,0,702,,,,,,,,,,,,,,,,,W,160,hexagon,1,0,,,,,,,,,,,,,,,,repeat,number,numRpt,k,0.5339,noRew,,,,,,0,12,0,12,0,1,,,,,,,,,,,,,,,,,
295045,2022-11-27_17h46.29.174,vts_reward_expectancy_bt,2022.2.4,MacIntel,60.04202942,Chrome,1440,900,,,,,0,702,,,,,,,,,,,,,,,,,B,167,star,1,0,,,,,,,,,,,,,,,,switch,letter,lettSwt,d,0.7902,noRew,,,,,,0,13,0,13,0,1,,,,,,,,,,,,,,,,,
295045,2022-11-27_17h46.29.174,vts_reward_expectancy_bt,2022.2.4,MacIntel,60.04202942,Chrome,1440,900,,,,,0,702,,,,,,,,,,,,,,,,,U,181,hexagon,1,0,,,,,,,,,,,,,,,,switch,number,numSwt,k,0.7466,noRew,,,,,,0,14,0,14,0,1,,,,,,,,,,,,,,,,,
295045,2022-11-27_17h46.29.174,vts_reward_expectancy_bt,2022.2.4,MacIntel,60.04202942,Chrome,1440,900,,,,,0,702,,,,,,,,,,,,,,,,,S,125,triangle,1,0,,,,,,,,,,,,,,,,repeat,number,numRpt,j,0.5643,noRew,,,,,,0,15,0,15,0,1,,,,,,,,,,,,,,,,,
295045,2022-11-27_17h46.29.174,vts_reward_expectancy_bt,2022.2.4,MacIntel,60.04202942,Chrome,1440,900,,,,,0,702,,,,,,,,,,,,,,,,,U,167,triangle,1,0,,,,,,,,,,,,,,,,switch,letter,lettSwt,f,1.4963,noRew,,,,,,0,16,0,16,0,1,,,,,,,,,,,,,,,,,
295045,2022-11-27_17h46.29.174,vts_reward_expectancy_bt,2022.2.4,MacIntel,60.04202942,Chrome,1440,900,,,,,0,702,,,,,,,,,,,,,,,,,W,146,circle,1,0,,,,,,,,,,,,,,,,repeat,letter,lettRpt,f,0.5935,noRew,,,,,,0,17,0,17,0,1,,,,,,,,,,,,,,,,,
295045,2022-11-27_17h46.29.174,vts_reward_expectancy_bt,2022.2.4,MacIntel,60.04202942,Chrome,1440,900,,,,,0,702,,,,,,,,,,,,,,,,,B,160,triangle,1,0,,,,,,,,,,,,,,,,switch,number,numSwt,k,1.3915,noRew,,,,,,0,18,0,18,0,1,,,,,,,,,,,,,,,,,
295045,2022-11-27_17h46.29.174,vts_reward_expectancy_bt,2022.2.4,MacIntel,60.04202942,Chrome,1440,900,,,,,0,702,,,,,,,,,,,,,,,,,D,139,hexagon,1,0,,,,,,,,,,,,,,,,repeat,number,numRpt,j,1.3335,noRew,,,,,,0,19,0,19,0,1,,,,,,,,,,,,,,,,,
295045,2022-11-27_17h46.29.174,vts_reward_expectancy_bt,2022.2.4,MacIntel,60.04202942,Chrome,1440,900,,,,,0,702,,,,,,,,,,,,,,,,,Y,160,triangle,1,0,,,,,,,,,,,,,,,,switch,letter,lettSwt,f,0.7125,noRew,,,,,,0,20,0,20,0,1,,,,,,,,,,,,,,,,,
295045,2022-11-27_17h46.29.174,vts_reward_expectancy_bt,2022.2.4,MacIntel,60.04202942,Chrome,1440,900,,,,,0,702,,,,,,,,,,,,,,,,,D,174,star,1,0,,,,,,,,,,,,,,,,repeat,letter,lettRpt,d,0.7057,noRew,,,,,,0,21,0,21,0,1,,,,,,,,,,,,,,,,,
295045,2022-11-27_17h46.29.174,vts_reward_expectancy_bt,2022.2.4,MacIntel,60.04202942,Chrome,1440,900,,,,,0,702,,,,,,,,,,,,,,,,,H,146,circle,1,0,,,,,,,,,,,,,,,,switch,number,numSwt,j,0.6951,noRew,,,,,,0,22,0,22,0,1,,,,,,,,,,,,,,,,,
295045,2022-11-27_17h46.29.174,vts_reward_expectancy_bt,2022.2.4,MacIntel,60.04202942,Chrome,1440,900,,,,,0,702,,,,,,,,,,,,,,,,,U,167,star,1,0,,,,,,,,,,,,,,,,switch,letter,lettSwt,f,1.5289,noRew,,,,,,0,23,0,23,0,1,,,,,,,,,,,,,,,,,
295045,2022-11-27_17h46.29.174,vts_reward_expectancy_bt,2022.2.4,MacIntel,60.04202942,Chrome,1440,900,,,,,0,702,,,,,,,,,,,,,,,,,D,167,hexagon,1,0,,,,,,,,,,,,,,,,repeat,letter,lettRpt,d,0.8504,noRew,,,,,,0,24,0,24,0,1,,,,,,,,,,,,,,,,,
295045,2022-11-27_17h46.29.174,vts_reward_expectancy_bt,2022.2.4,MacIntel,60.04202942,Chrome,1440,900,,,,,0,702,,,,,,,,,,,,,,,,,F,132,star,1,0,,,,,,,,,,,,,,,,switch,number,numSwt,j,0.5452,noRew,,,,,,0,25,0,25,0,1,,,,,,,,,,,,,,,,,
295045,2022-11-27_17h46.29.174,vts_reward_expectancy_bt,2022.2.4,MacIntel,60.04202942,Chrome,1440,900,,,,,0,702,,,,,,,,,,,,,,,,,W,160,circle,1,0,,,,,,,,,,,,,,,,repeat,number,numRpt,k,0.8554,noRew,,,,,,0,26,0,26,0,1,,,,,,,,,,,,,,,,,
295045,2022-11-27_17h46.29.174,vts_reward_expectancy_bt,2022.2.4,MacIntel,60.04202942,Chrome,1440,900,,,,,0,702,,,,,,,,,,,,,,,,,U,146,triangle,1,0,,,,,,,,,,,,,,,,switch,letter,lettSwt,f,0.5651,noRew,,,,,,0,27,0,27,0,1,,,,,,,,,,,,,,,,,
295045,2022-11-27_17h46.29.174,vts_reward_expectancy_bt,2022.2.4,MacIntel,60.04202942,Chrome,1440,900,,,,,0,702,,,,,,,,,,,,,,,,,F,167,star,1,0,,,,,,,,,,,,,,,,repeat,letter,lettRpt,d,0.5131,noRew,,,,,,0,28,0,28,0,1,,,,,,,,,,,,,,,,,
295045,2022-11-27_17h46.29.174,vts_reward_expectancy_bt,2022.2.4,MacIntel,60.04202942,Chrome,1440,900,,,,,0,702,,,,,,,,,,,,,,,,,Y,160,circle,1,0,,,,,,,,,,,,,,,,switch,number,numSwt,k,0.9308,noRew,,,,,,0,29,0,29,0,1,,,,,,,,,,,,,,,,,
295045,2022-11-27_17h46.29.174,vts_reward_expectancy_bt,2022.2.4,MacIntel,60.04202942,Chrome,1440,900,,,,,0,702,,,,,,,,,,,,,,,,,U,139,star,1,0,,,,,,,,,,,,,,,,repeat,number,numRpt,j,0.5301,noRew,,,,,,0,30,0,30,0,1,,,,,,,,,,,,,,,,,
295045,2022-11-27_17h46.29.174,vts_reward_expectancy_bt,2022.2.4,MacIntel,60.04202942,Chrome,1440,900,,,,,0,702,,,,,,,,,,,,,,,,,S,181,hexagon,1,0,,,,,,,,,,,,,,,,switch,letter,lettSwt,f,1.2242,noRew,,,,,,0,31,0,31,0,1,,,,,,,,,,,,,,,,,
295045,2022-11-27_17h46.29.174,vts_reward_expectancy_bt,2022.2.4,MacIntel,60.04202942,Chrome,1440,900,,,,,0,702,,,,,,,,,,,,,,,,,D,146,circle,1,0,,,,,,,,,,,,,,,,repeat,letter,lettRpt,d,0.7828,noRew,,,,,,0,32,0,32,0,1,,,,,,,,,,,,,,,,,
295045,2022-11-27_17h46.29.174,vts_reward_expectancy_bt,2022.2.4,MacIntel,60.04202942,Chrome,1440,900,,,,,0,702,,,,,,,,,,,,,,,,,U,174,star,1,0,,,,,,,,,,,,,,,,switch,number,numSwt,k,0.6509,noRew,,,,,,0,33,0,33,0,1,,,,,,,,,,,,,,,,,
295045,2022-11-27_17h46.29.174,vts_reward_expectancy_bt,2022.2.4,MacIntel,60.04202942,Chrome,1440,900,,,,,0,702,,,,,,,,,,,,,,,,,H,139,triangle,1,0,,,,,,,,,,,,,,,,repeat,number,numRpt,j,0.5115,noRew,,,,,,0,34,0,34,0,1,,,,,,,,,,,,,,,,,
295045,2022-11-27_17h46.29.174,vts_reward_expectancy_bt,2022.2.4,MacIntel,60.04202942,Chrome,1440,900,,,,,0,702,,,,,,,,,,,,,,,,,Y,167,circle,1,0,,,,,,,,,,,,,,,,repeat,number,numRpt,k,0.5924,noRew,,,,,,0,35,0,35,0,1,,,,,,,,,,,,,,,,,
295045,2022-11-27_17h46.29.174,vts_reward_expectancy_bt,2022.2.4,MacIntel,60.04202942,Chrome,1440,900,,,,,0,702,,,,,,,,,,,,,,,,,H,167,circle,1,0,,,,,,,,,,,,,,,,switch,letter,lettSwt,d,0.7912,noRew,,,,,,0,36,0,36,0,1,,,,,,,,,,,,,,,,,
295045,2022-11-27_17h46.29.174,vts_reward_expectancy_bt,2022.2.4,MacIntel,60.04202942,Chrome,1440,900,,,,,0,702,,,,,,,,,,,,,,,,,F,132,hexagon,1,0,,,,,,,,,,,,,,,,switch,number,numSwt,j,1.0424,noRew,,,,,,0,37,0,37,0,1,,,,,,,,,,,,,,,,,
295045,2022-11-27_17h46.29.174,vts_reward_expectancy_bt,2022.2.4,MacIntel,60.04202942,Chrome,1440,900,,,,,0,702,,,,,,,,,,,,,,,,,D,181,triangle,1,0,,,,,,,,,,,,,,,,switch,letter,lettSwt,d,0.4747,noRew,,,,,,0,38,0,38,0,1,,,,,,,,,,,,,,,,,
295045,2022-11-27_17h46.29.174,vts_reward_expectancy_bt,2022.2.4,MacIntel,60.04202942,Chrome,1440,900,,,,,0,702,,,,,,,,,,,,,,,,,B,160,circle,1,0,,,,,,,,,,,,,,,,repeat,letter,lettRpt,d,0.4794,noRew,,,,,,0,39,0,39,0,1,,,,,,,,,,,,,,,,,
295045,2022-11-27_17h46.29.174,vts_reward_expectancy_bt,2022.2.4,MacIntel,60.04202942,Chrome,1440,900,,,,,0,702,,,,,,,,,,,,,,,,,U,167,hexagon,1,0,,,,,,,,,,,,,,,,switch,number,numSwt,k,0.6591,noRew,,,,,,0,40,0,40,0,1,,,,,,,,,,,,,,,,,
295045,2022-11-27_17h46.29.174,vts_reward_expectancy_bt,2022.2.4,MacIntel,60.04202942,Chrome,1440,900,,,,,0,702,,,,,,,,,,,,,,,,,D,132,circle,1,0,,,,,,,,,,,,,,,,repeat,number,numRpt,j,0.4898,noRew,,,,,,0,41,0,41,0,1,,,,,,,,,,,,,,,,,
295045,2022-11-27_17h46.29.174,vts_reward_expectancy_bt,2022.2.4,MacIntel,60.04202942,Chrome,1440,900,,,,,0,702,,,,,,,,,,,,,,,,,S,174,circle,1,0,,,,,,,,,,,,,,,,switch,letter,lettSwt,f,0.6435,noRew,,,,,,0,42,0,42,0,1,,,,,,,,,,,,,,,,,
295045,2022-11-27_17h46.29.174,vts_reward_expectancy_bt,2022.2.4,MacIntel,60.04202942,Chrome,1440,900,,,,,0,702,,,,,,,,,,,,,,,,,F,139,star,0,0,,,,,,,,,,,,,,,,repeat,letter,NA,f,0.5413,noRew,,,,,,0,43,0,43,0,1,,,,,,,,,,,,,,,,,
295045,2022-11-27_17h46.29.174,vts_reward_expectancy_bt,2022.2.4,MacIntel,60.04202942,Chrome,1440,900,,,,,0,702,,,,,,,,,,,,,,,,,H,125,star,1,1,,,,,,,,,,,,,,,,repeat,letter,lettRpt,d,0.828,noRew,,,,,,0,44,0,44,0,1,,,,,,,,,,,,,,,,,
295045,2022-11-27_17h46.29.174,vts_reward_expectancy_bt,2022.2.4,MacIntel,60.04202942,Chrome,1440,900,,,,,0,702,,,,,,,,,,,,,,,,,S,146,triangle,1,0,,,,,,,,,,,,,,,,repeat,letter,lettRpt,f,0.9792,noRew,,,,,,0,45,0,45,0,1,,,,,,,,,,,,,,,,,
295045,2022-11-27_17h46.29.174,vts_reward_expectancy_bt,2022.2.4,MacIntel,60.04202942,Chrome,1440,900,,,,,0,702,,,,,,,,,,,,,,,,,U,167,circle,1,0,,,,,,,,,,,,,,,,switch,number,numSwt,k,0.5954,noRew,,,,,,0,46,0,46,0,1,,,,,,,,,,,,,,,,,
295045,2022-11-27_17h46.29.174,vts_reward_expectancy_bt,2022.2.4,MacIntel,60.04202942,Chrome,1440,900,,,,,0,702,,,,,,,,,,,,,,,,,W,181,star,1,0,,,,,,,,,,,,,,,,repeat,number,numRpt,k,0.5812,noRew,,,,,,0,47,0,47,0,1,,,,,,,,,,,,,,,,,
295045,2022-11-27_17h46.29.174,vts_reward_expectancy_bt,2022.2.4,MacIntel,60.04202942,Chrome,1440,900,,,,,0,702,,,,,,,,,,,,,,,,,W,160,star,1,0,,,,,,,,,,,,,,,,repeat,number,numRpt,k,0.6101,noRew,,,,,,0,48,0,48,0,1,,,,,,,,,,,,,,,,,
295045,2022-11-27_17h46.29.174,vts_reward_expectancy_bt,2022.2.4,MacIntel,60.04202942,Chrome,1440,900,,,,,0,702,,,,,,,,,,,,,,,,,B,181,circle,1,0,,,,,,,,,,,,,,,,switch,letter,lettSwt,d,0.4409,noRew,,,,,,0,49,0,49,0,1,,,,,,,,,,,,,,,,,
295045,2022-11-27_17h46.29.174,vts_reward_expectancy_bt,2022.2.4,MacIntel,60.04202942,Chrome,1440,900,,,,,0,702,,,,,,,,,,,,,,,,,Y,146,hexagon,1,0,,,,,,,,,,,,,,,,switch,number,numSwt,j,0.4807,noRew,,,,,,0,50,0,50,0,1,,,,,,,,,,,,,,,,,
295045,2022-11-27_17h46.29.174,vts_reward_expectancy_bt,2022.2.4,MacIntel,60.04202942,Chrome,1440,900,,,,,0,702,,,,,,,,,,,,,,,,,F,167,circle,1,0,,,,,,,,,,,,,,,,switch,letter,lettSwt,d,0.7317,noRew,,,,,,0,51,0,51,0,1,,,,,,,,,,,,,,,,,
295045,2022-11-27_17h46.29.174,vts_reward_expectancy_bt,2022.2.4,MacIntel,60.04202942,Chrome,1440,900,,,,,0,702,,,,,,,,,,,,,,,,,W,174,circle,1,0,,,,,,,,,,,,,,,,repeat,letter,lettRpt,f,0.9619,noRew,,,,,,0,52,0,52,0,1,,,,,,,,,,,,,,,,,
295045,2022-11-27_17h46.29.174,vts_reward_expectancy_bt,2022.2.4,MacIntel,60.04202942,Chrome,1440,900,,,,,0,702,,,,,,,,,,,,,,,,,D,167,triangle,1,0,,,,,,,,,,,,,,,,switch,number,numSwt,k,0.5465,noRew,,,,,,0,53,0,53,0,1,,,,,,,,,,,,,,,,,
295045,2022-11-27_17h46.29.174,vts_reward_expectancy_bt,2022.2.4,MacIntel,60.04202942,Chrome,1440,900,,,,,0,702,,,,,,,,,,,,,,,,,F,181,circle,1,0,,,,,,,,,,,,,,,,switch,letter,lettSwt,d,0.7788,noRew,,,,,,0,54,0,54,0,1,,,,,,,,,,,,,,,,,
295045,2022-11-27_17h46.29.174,vts_reward_expectancy_bt,2022.2.4,MacIntel,60.04202942,Chrome,1440,900,,,,,0,702,,,,,,,,,,,,,,,,,Y,160,hexagon,1,0,,,,,,,,,,,,,,,,switch,number,numSwt,k,0.66,noRew,,,,,,0,55,0,55,0,1,,,,,,,,,,,,,,,,,
295045,2022-11-27_17h46.29.174,vts_reward_expectancy_bt,2022.2.4,MacIntel,60.04202942,Chrome,1440,900,,,,,0,702,,,,,,,,,,,,,,,,,Y,167,circle,1,0,,,,,,,,,,,,,,,,repeat,number,numRpt,k,0.5046,noRew,,,,,,0,56,0,56,0,1,,,,,,,,,,,,,,,,,
295045,2022-11-27_17h46.29.174,vts_reward_expectancy_bt,2022.2.4,MacIntel,60.04202942,Chrome,1440,900,,,,,0,702,,,,,,,,,,,,,,,,,W,139,star,1,0,,,,,,,,,,,,,,,,switch,letter,lettSwt,f,0.7941,noRew,,,,,,0,57,0,57,0,1,,,,,,,,,,,,,,,,,
295045,2022-11-27_17h46.29.174,vts_reward_expectancy_bt,2022.2.4,MacIntel,60.04202942,Chrome,1440,900,,,,,0,702,,,,,,,,,,,,,,,,,H,125,triangle,1,0,,,,,,,,,,,,,,,,switch,number,numSwt,j,0.7476,noRew,,,,,,0,58,0,58,0,1,,,,,,,,,,,,,,,,,
295045,2022-11-27_17h46.29.174,vts_reward_expectancy_bt,2022.2.4,MacIntel,60.04202942,Chrome,1440,900,,,,,0,702,,,,,,,,,,,,,,,,,U,132,circle,1,0,,,,,,,,,,,,,,,,switch,letter,lettSwt,f,0.4924,noRew,,,,,,0,59,0,59,0,1,,,,,,,,,,,,,,,,,
295045,2022-11-27_17h46.29.174,vts_reward_expectancy_bt,2022.2.4,MacIntel,60.04202942,Chrome,1440,900,,,,,0,702,,,,,,,,,,,,,,,,,U,167,star,1,0,,,,,,,,,,,,,,,,switch,number,numSwt,k,0.8656,noRew,,,,,,0,60,0,60,0,1,,,,,,,,,,,,,,,,,
295045,2022-11-27_17h46.29.174,vts_reward_expectancy_bt,2022.2.4,MacIntel,60.04202942,Chrome,1440,900,,,,,0,702,,,,,,,,,,,,,,,,,F,139,triangle,1,0,,,,,,,,,,,,,,,,switch,letter,lettSwt,d,0.5579,noRew,,,,,,0,61,0,61,0,1,,,,,,,,,,,,,,,,,
295045,2022-11-27_17h46.29.174,vts_reward_expectancy_bt,2022.2.4,MacIntel,60.04202942,Chrome,1440,900,,,,,0,702,,,,,,,,,,,,,,,,,W,160,hexagon,1,0,,,,,,,,,,,,,,,,repeat,letter,lettRpt,f,0.6338,noRew,,,,,,0,62,0,62,0,1,,,,,,,,,,,,,,,,,
295045,2022-11-27_17h46.29.174,vts_reward_expectancy_bt,2022.2.4,MacIntel,60.04202942,Chrome,1440,900,,,,,0,702,,,,,,,,,,,,,,,,,D,146,triangle,1,0,,,,,,,,,,,,,,,,switch,number,numSwt,j,0.496,noRew,,,,,,0,63,0,63,0,1,,,,,,,,,,,,,,,,,
295045,2022-11-27_17h46.29.174,vts_reward_expectancy_bt,2022.2.4,MacIntel,60.04202942,Chrome,1440,900,,,,,,,,,,,,,,,,,,,,,,,,,,,,,,,,,,,,,,,,,,,,,,,,,,,,,,,,,,,,,,,,,,,,,,,,,,,,
295045,2022-11-27_17h46.29.174,vts_reward_expectancy_bt,2022.2.4,MacIntel,60.04202942,Chrome,1440,900,,,,,1,703,,,,,,,,,,,,,,,,,D,167,star,1,0,,,,,,,,,,,,,,,,switch,letter,lettSwt,d,0.8999,Lo,,,,,,0,,,,,,space,5.7296,high,0,0,0,0,1,,,,,,,,,
295045,2022-11-27_17h46.29.174,vts_reward_expectancy_bt,2022.2.4,MacIntel,60.04202942,Chrome,1440,900,,,,,10,713,,,,,,,,,,,,,,,,,Y,160,triangle,1,0,,,,,,,,,,,,,,,,repeat,letter,lettRpt,f,0.7106,Hi,,,,,,0,,,,,,,,high,1,0,1,0,1,,,,,,,,,
295045,2022-11-27_17h46.29.174,vts_reward_expectancy_bt,2022.2.4,MacIntel,60.04202942,Chrome,1440,900,,,,,10,723,,,,,,,,,,,,,,,,,B,125,circle,1,0,,,,,,,,,,,,,,,,switch,number,numSwt,j,0.4402,Hi,,,,,,0,,,,,,,,high,2,0,2,0,1,,,,,,,,,
295045,2022-11-27_17h46.29.174,vts_reward_expectancy_bt,2022.2.4,MacIntel,60.04202942,Chrome,1440,900,,,,,1,724,,,,,,,,,,,,,,,,,F,174,hexagon,1,0,,,,,,,,,,,,,,,,repeat,number,numRpt,k,0.7423,Lo,,,,,,0,,,,,,,,high,3,0,3,0,1,,,,,,,,,
295045,2022-11-27_17h46.29.174,vts_reward_expectancy_bt,2022.2.4,MacIntel,60.04202942,Chrome,1440,900,,,,,1,725,,,,,,,,,,,,,,,,,W,181,star,1,0,,,,,,,,,,,,,,,,repeat,number,numRpt,k,0.5788,Lo,,,,,,0,,,,,,,,high,4,0,4,0,1,,,,,,,,,
295045,2022-11-27_17h46.29.174,vts_reward_expectancy_bt,2022.2.4,MacIntel,60.04202942,Chrome,1440,900,,,,,10,735,,,,,,,,,,,,,,,,,H,139,triangle,1,0,,,,,,,,,,,,,,,,repeat,number,numRpt,j,0.5013,Hi,,,,,,0,,,,,,,,high,5,0,5,0,1,,,,,,,,,
295045,2022-11-27_17h46.29.174,vts_reward_expectancy_bt,2022.2.4,MacIntel,60.04202942,Chrome,1440,900,,,,,10,745,,,,,,,,,,,,,,,,,U,146,circle,1,0,,,,,,,,,,,,,,,,switch,letter,lettSwt,f,0.5979,Hi,,,,,,0,,,,,,,,high,6,0,6,0,1,,,,,,,,,
295045,2022-11-27_17h46.29.174,vts_reward_expectancy_bt,2022.2.4,MacIntel,60.04202942,Chrome,1440,900,,,,,1,746,,,,,,,,,,,,,,,,,S,132,hexagon,1,0,,,,,,,,,,,,,,,,repeat,letter,lettRpt,f,1.351,Lo,,,,,,0,,,,,,,,high,7,0,7,0,1,,,,,,,,,
295045,2022-11-27_17h46.29.174,vts_reward_expectancy_bt,2022.2.4,MacIntel,60.04202942,Chrome,1440,900,,,,,1,747,,,,,,,,,,,,,,,,,D,167,star,1,0,,,,,,,,,,,,,,,,repeat,letter,lettRpt,d,1.1982,Lo,,,,,,0,,,,,,,,high,8,0,8,0,1,,,,,,,,,
295045,2022-11-27_17h46.29.174,vts_reward_expectancy_bt,2022.2.4,MacIntel,60.04202942,Chrome,1440,900,,,,,10,757,,,,,,,,,,,,,,,,,Y,160,triangle,1,0,,,,,,,,,,,,,,,,repeat,letter,lettRpt,f,0.5886,Hi,,,,,,0,,,,,,,,high,9,0,9,0,1,,,,,,,,,
295045,2022-11-27_17h46.29.174,vts_reward_expectancy_bt,2022.2.4,MacIntel,60.04202942,Chrome,1440,900,,,,,1,758,,,,,,,,,,,,,,,,,B,125,circle,1,0,,,,,,,,,,,,,,,,switch,number,numSwt,j,0.5959,Hi,,,,,,0,,,,,,,,high,10,0,10,0,1,,,,,,,,,
295045,2022-11-27_17h46.29.174,vts_reward_expectancy_bt,2022.2.4,MacIntel,60.04202942,Chrome,1440,900,,,,,1,759,,,,,,,,,,,,,,,,,F,174,hexagon,1,0,,,,,,,,,,,,,,,,switch,letter,lettSwt,d,0.9798,Lo,,,,,,0,,,,,,,,high,11,0,11,0,1,,,,,,,,,
295045,2022-11-27_17h46.29.174,vts_reward_expectancy_bt,2022.2.4,MacIntel,60.04202942,Chrome,1440,900,,,,,10,769,,,,,,,,,,,,,,,,,W,181,hexagon,1,0,,,,,,,,,,,,,,,,switch,number,numSwt,k,0.4091,Lo,,,,,,0,,,,,,,,high,12,0,12,0,1,,,,,,,,,
295045,2022-11-27_17h46.29.174,vts_reward_expectancy_bt,2022.2.4,MacIntel,60.04202942,Chrome,1440,900,,,,,10,779,,,,,,,,,,,,,,,,,H,139,triangle,1,0,,,,,,,,,,,,,,,,switch,letter,lettSwt,d,0.5633,Hi,,,,,,0,,,,,,,,high,13,0,13,0,1,,,,,,,,,
295045,2022-11-27_17h46.29.174,vts_reward_expectancy_bt,2022.2.4,MacIntel,60.04202942,Chrome,1440,900,,,,,10,789,,,,,,,,,,,,,,,,,U,146,circle,1,0,,,,,,,,,,,,,,,,repeat,letter,lettRpt,f,0.6254,Hi,,,,,,0,,,,,,,,high,14,0,14,0,1,,,,,,,,,
295045,2022-11-27_17h46.29.174,vts_reward_expectancy_bt,2022.2.4,MacIntel,60.04202942,Chrome,1440,900,,,,,1,790,,,,,,,,,,,,,,,,,S,132,star,1,0,,,,,,,,,,,,,,,,switch,number,numSwt,j,0.4841,Lo,,,,,,0,,,,,,,,high,15,0,15,0,1,,,,,,,,,
295045,2022-11-27_17h46.29.174,vts_reward_expectancy_bt,2022.2.4,MacIntel,60.04202942,Chrome,1440,900,,,,,1,791,,,,,,,,,,,,,,,,,U,132,star,1,0,,,,,,,,,,,,,,,,repeat,number,numRpt,j,0.599,Lo,,,,,,0,,,,,,,,high,16,0,16,0,1,,,,,,,,,
295045,2022-11-27_17h46.29.174,vts_reward_expectancy_bt,2022.2.4,MacIntel,60.04202942,Chrome,1440,900,,,,,10,801,,,,,,,,,,,,,,,,,B,160,circle,1,0,,,,,,,,,,,,,,,,switch,letter,lettSwt,d,0.5962,Hi,,,,,,0,,,,,,,,high,17,0,17,0,1,,,,,,,,,
295045,2022-11-27_17h46.29.174,vts_reward_expectancy_bt,2022.2.4,MacIntel,60.04202942,Chrome,1440,900,,,,,10,811,,,,,,,,,,,,,,,,,D,174,triangle,1,0,,,,,,,,,,,,,,,,repeat,letter,lettRpt,d,0.5606,Hi,,,,,,0,,,,,,,,high,18,0,18,0,1,,,,,,,,,
295045,2022-11-27_17h46.29.174,vts_reward_expectancy_bt,2022.2.4,MacIntel,60.04202942,Chrome,1440,900,,,,,1,812,,,,,,,,,,,,,,,,,W,181,hexagon,1,0,,,,,,,,,,,,,,,,switch,number,numSwt,k,0.4224,Lo,,,,,,0,,,,,,,,high,19,0,19,0,1,,,,,,,,,
295045,2022-11-27_17h46.29.174,vts_reward_expectancy_bt,2022.2.4,MacIntel,60.04202942,Chrome,1440,900,,,,,10,822,,,,,,,,,,,,,,,,,H,146,triangle,1,0,,,,,,,,,,,,,,,,repeat,number,numRpt,j,0.4488,Hi,,,,,,0,,,,,,,,high,20,0,20,0,1,,,,,,,,,
295045,2022-11-27_17h46.29.174,vts_reward_expectancy_bt,2022.2.4,MacIntel,60.04202942,Chrome,1440,900,,,,,0,822,,,,,,,,,,,,,,,,,S,167,star,0,0,,,,,,,,,,,,,,,,repeat,number,NA,j,0.4804,Hi,,,,,,0,,,,,,,,high,21,0,21,0,1,,,,,,,,,
295045,2022-11-27_17h46.29.174,vts_reward_expectancy_bt,2022.2.4,MacIntel,60.04202942,Chrome,1440,900,,,,,1,823,,,,,,,,,,,,,,,,,Y,125,hexagon,1,1,,,,,,,,,,,,,,,,repeat,number,numRpt,j,0.5292,Lo,,,,,,0,,,,,,,,high,22,0,22,0,1,,,,,,,,,
295045,2022-11-27_17h46.29.174,vts_reward_expectancy_bt,2022.2.4,MacIntel,60.04202942,Chrome,1440,900,,,,,10,833,,,,,,,,,,,,,,,,,F,139,circle,1,0,,,,,,,,,,,,,,,,repeat,number,numRpt,j,0.4474,Hi,,,,,,0,,,,,,,,high,23,0,23,0,1,,,,,,,,,
295045,2022-11-27_17h46.29.174,vts_reward_expectancy_bt,2022.2.4,MacIntel,60.04202942,Chrome,1440,900,,,,,10,843,,,,,,,,,,,,,,,,,W,125,triangle,1,0,,,,,,,,,,,,,,,,switch,letter,lettSwt,f,0.462,Hi,,,,,,0,,,,,,,,high,24,0,24,0,1,,,,,,,,,
295045,2022-11-27_17h46.29.174,vts_reward_expectancy_bt,2022.2.4,MacIntel,60.04202942,Chrome,1440,900,,,,,1,844,,,,,,,,,,,,,,,,,F,160,circle,1,0,,,,,,,,,,,,,,,,repeat,letter,lettRpt,d,0.5728,Hi,,,,,,0,,,,,,,,high,25,0,25,0,1,,,,,,,,,
295045,2022-11-27_17h46.29.174,vts_reward_expectancy_bt,2022.2.4,MacIntel,60.04202942,Chrome,1440,900,,,,,1,845,,,,,,,,,,,,,,,,,Y,167,star,1,0,,,,,,,,,,,,,,,,switch,number,numSwt,k,0.6364,Lo,,,,,,0,,,,,,,,high,26,0,26,0,1,,,,,,,,,
295045,2022-11-27_17h46.29.174,vts_reward_expectancy_bt,2022.2.4,MacIntel,60.04202942,Chrome,1440,900,,,,,1,846,,,,,,,,,,,,,,,,,B,181,hexagon,1,0,,,,,,,,,,,,,,,,switch,letter,lettSwt,d,0.4943,Lo,,,,,,0,,,,,,,,high,27,0,27,0,1,,,,,,,,,
295045,2022-11-27_17h46.29.174,vts_reward_expectancy_bt,2022.2.4,MacIntel,60.04202942,Chrome,1440,900,,,,,1,847,,,,,,,,,,,,,,,,,H,146,hexagon,1,0,,,,,,,,,,,,,,,,repeat,letter,lettRpt,d,0.5924,Lo,,,,,,0,,,,,,,,high,28,0,28,0,1,,,,,,,,,
295045,2022-11-27_17h46.29.174,vts_reward_expectancy_bt,2022.2.4,MacIntel,60.04202942,Chrome,1440,900,,,,,10,857,,,,,,,,,,,,,,,,,S,174,circle,1,0,,,,,,,,,,,,,,,,switch,number,numSwt,k,0.4485,Hi,,,,,,0,,,,,,,,high,29,0,29,0,1,,,,,,,,,
295045,2022-11-27_17h46.29.174,vts_reward_expectancy_bt,2022.2.4,MacIntel,60.04202942,Chrome,1440,900,,,,,0,857,,,,,,,,,,,,,,,,,U,132,triangle,1,0,,,,,,,,,,,,,,,,switch,letter,lettSwt,f,0.709,Hi,,,,,,0,,,,,,,,high,30,0,30,0,1,,,,,,,,,
295045,2022-11-27_17h46.29.174,vts_reward_expectancy_bt,2022.2.4,MacIntel,60.04202942,Chrome,1440,900,,,,,1,858,,,,,,,,,,,,,,,,,D,139,star,1,0,,,,,,,,,,,,,,,,switch,number,numSwt,j,0.5494,Lo,,,,,,0,,,,,,,,high,31,0,31,0,1,,,,,,,,,
295045,2022-11-27_17h46.29.174,vts_reward_expectancy_bt,2022.2.4,MacIntel,60.04202942,Chrome,1440,900,,,,,10,868,,,,,,,,,,,,,,,,,B,160,circle,1,0,,,,,,,,,,,,,,,,switch,letter,lettSwt,d,0.4411,Hi,,,,,,1,,,,,,space,2.2839,high,0,0,0,0,1,,,,,,,,,
295045,2022-11-27_17h46.29.174,vts_reward_expectancy_bt,2022.2.4,MacIntel,60.04202942,Chrome,1440,900,,,,,10,878,,,,,,,,,,,,,,,,,F,146,hexagon,1,0,,,,,,,,,,,,,,,,switch,number,numSwt,j,0.4645,Lo,,,,,,1,,,,,,,,high,1,0,1,0,1,,,,,,,,,
295045,2022-11-27_17h46.29.174,vts_reward_expectancy_bt,2022.2.4,MacIntel,60.04202942,Chrome,1440,900,,,,,1,879,,,,,,,,,,,,,,,,,D,132,star,1,0,,,,,,,,,,,,,,,,switch,letter,lettSwt,d,0.8323,Lo,,,,,,1,,,,,,,,high,2,0,2,0,1,,,,,,,,,
295045,2022-11-27_17h46.29.174,vts_reward_expectancy_bt,2022.2.4,MacIntel,60.04202942,Chrome,1440,900,,,,,10,889,,,,,,,,,,,,,,,,,H,167,triangle,1,0,,,,,,,,,,,,,,,,repeat,letter,lettRpt,d,0.4824,Hi,,,,,,1,,,,,,,,high,3,0,3,0,1,,,,,,,,,
295045,2022-11-27_17h46.29.174,vts_reward_expectancy_bt,2022.2.4,MacIntel,60.04202942,Chrome,1440,900,,,,,0,889,,,,,,,,,,,,,,,,,S,181,circle,1,0,,,,,,,,,,,,,,,,switch,number,numSwt,k,0.4606,Hi,,,,,,1,,,,,,,,high,4,0,4,0,1,,,,,,,,,
295045,2022-11-27_17h46.29.174,vts_reward_expectancy_bt,2022.2.4,MacIntel,60.04202942,Chrome,1440,900,,,,,0,889,,,,,,,,,,,,,,,,,U,125,hexagon,-1,0,,,,,,,,,,,,,,,,switch,no_choice,NA,,,Hi,,,,,,1,,,,,,,,high,5,0,5,0,1,,,,,,,,,
295045,2022-11-27_17h46.29.174,vts_reward_expectancy_bt,2022.2.4,MacIntel,60.04202942,Chrome,1440,900,,,,,1,890,,,,,,,,,,,,,,,,,W,139,star,1,0,,,,,,,,,,,,,,,,switch,letter,lettSwt,f,0.7271,Lo,,,,,,1,,,,,,,,high,6,0,6,0,1,,,,,,,,,
295045,2022-11-27_17h46.29.174,vts_reward_expectancy_bt,2022.2.4,MacIntel,60.04202942,Chrome,1440,900,,,,,10,900,,,,,,,,,,,,,,,,,Y,174,triangle,1,0,,,,,,,,,,,,,,,,switch,number,numSwt,k,0.4404,Hi,,,,,,1,,,,,,,,high,7,0,7,0,1,,,,,,,,,
295045,2022-11-27_17h46.29.174,vts_reward_expectancy_bt,2022.2.4,MacIntel,60.04202942,Chrome,1440,900,,,,,10,910,,,,,,,,,,,,,,,,,B,160,circle,1,0,,,,,,,,,,,,,,,,switch,letter,lettSwt,d,0.4323,Hi,,,,,,1,,,,,,,,high,8,0,8,0,1,,,,,,,,,
295045,2022-11-27_17h46.29.174,vts_reward_expectancy_bt,2022.2.4,MacIntel,60.04202942,Chrome,1440,900,,,,,0,910,,,,,,,,,,,,,,,,,F,146,triangle,0,0,,,,,,,,,,,,,,,,repeat,letter,NA,f,0.5921,Hi,,,,,,1,,,,,,,,high,9,0,9,0,1,,,,,,,,,
295045,2022-11-27_17h46.29.174,vts_reward_expectancy_bt,2022.2.4,MacIntel,60.04202942,Chrome,1440,900,,,,,1,911,,,,,,,,,,,,,,,,,D,132,star,1,1,,,,,,,,,,,,,,,,repeat,letter,lettRpt,d,0.4991,Lo,,,,,,1,,,,,,,,high,10,0,10,0,1,,,,,,,,,
295045,2022-11-27_17h46.29.174,vts_reward_expectancy_bt,2022.2.4,MacIntel,60.04202942,Chrome,1440,900,,,,,1,912,,,,,,,,,,,,,,,,,H,167,hexagon,1,0,,,,,,,,,,,,,,,,switch,number,numSwt,k,0.5004,Lo,,,,,,1,,,,,,,,high,11,0,11,0,1,,,,,,,,,
295045,2022-11-27_17h46.29.174,vts_reward_expectancy_bt,2022.2.4,MacIntel,60.04202942,Chrome,1440,900,,,,,10,922,,,,,,,,,,,,,,,,,S,181,circle,1,0,,,,,,,,,,,,,,,,repeat,number,numRpt,k,0.4741,Hi,,,,,,1,,,,,,,,high,12,0,12,0,1,,,,,,,,,
295045,2022-11-27_17h46.29.174,vts_reward_expectancy_bt,2022.2.4,MacIntel,60.04202942,Chrome,1440,900,,,,,1,923,,,,,,,,,,,,,,,,,U,125,star,1,0,,,,,,,,,,,,,,,,switch,letter,lettSwt,f,0.6471,Lo,,,,,,1,,,,,,,,high,13,0,13,0,1,,,,,,,,,
295045,2022-11-27_17h46.29.174,vts_reward_expectancy_bt,2022.2.4,MacIntel,60.04202942,Chrome,1440,900,,,,,0,923,,,,,,,,,,,,,,,,,W,139,triangle,0,0,,,,,,,,,,,,,,,,repeat,letter,NA,d,0.46,Lo,,,,,,1,,,,,,,,high,14,0,14,0,1,,,,,,,,,
295045,2022-11-27_17h46.29.174,vts_reward_expectancy_bt,2022.2.4,MacIntel,60.04202942,Chrome,1440,900,,,,,1,924,,,,,,,,,,,,,,,,,Y,174,hexagon,1,1,,,,,,,,,,,,,,,,repeat,letter,lettRpt,f,0.7615,Lo,,,,,,1,,,,,,,,high,15,0,15,0,1,,,,,,,,,
295045,2022-11-27_17h46.29.174,vts_reward_expectancy_bt,2022.2.4,MacIntel,60.04202942,Chrome,1440,900,,,,,10,934,,,,,,,,,,,,,,,,,Y,139,circle,1,0,,,,,,,,,,,,,,,,repeat,letter,lettRpt,f,0.4827,Hi,,,,,,1,,,,,,,,high,16,0,16,0,1,,,,,,,,,
295045,2022-11-27_17h46.29.174,vts_reward_expectancy_bt,2022.2.4,MacIntel,60.04202942,Chrome,1440,900,,,,,1,935,,,,,,,,,,,,,,,,,F,181,hexagon,1,0,,,,,,,,,,,,,,,,switch,number,numSwt,k,0.7085,Lo,,,,,,1,,,,,,,,high,17,0,17,0,1,,,,,,,,,
295045,2022-11-27_17h46.29.174,vts_reward_expectancy_bt,2022.2.4,MacIntel,60.04202942,Chrome,1440,900,,,,,1,936,,,,,,,,,,,,,,,,,S,146,star,1,0,,,,,,,,,,,,,,,,repeat,number,numRpt,j,0.6561,Lo,,,,,,1,,,,,,,,high,18,0,18,0,1,,,,,,,,,
295045,2022-11-27_17h46.29.174,vts_reward_expectancy_bt,2022.2.4,MacIntel,60.04202942,Chrome,1440,900,,,,,0,936,,,,,,,,,,,,,,,,,B,132,triangle,1,0,,,,,,,,,,,,,,,,switch,letter,lettSwt,d,0.6256,Hi,,,,,,1,,,,,,,,high,19,0,19,0,1,,,,,,,,,
295045,2022-11-27_17h46.29.174,vts_reward_expectancy_bt,2022.2.4,MacIntel,60.04202942,Chrome,1440,900,,,,,1,937,,,,,,,,,,,,,,,,,H,160,star,1,0,,,,,,,,,,,,,,,,switch,number,numSwt,k,0.8907,Lo,,,,,,1,,,,,,,,high,20,0,20,0,1,,,,,,,,,
295045,2022-11-27_17h46.29.174,vts_reward_expectancy_bt,2022.2.4,MacIntel,60.04202942,Chrome,1440,900,,,,,0,937,,,,,,,,,,,,,,,,,W,167,triangle,1,0,,,,,,,,,,,,,,,,repeat,number,numRpt,k,0.553,Hi,,,,,,1,,,,,,,,high,21,0,21,0,1,,,,,,,,,
295045,2022-11-27_17h46.29.174,vts_reward_expectancy_bt,2022.2.4,MacIntel,60.04202942,Chrome,1440,900,,,,,10,947,,,,,,,,,,,,,,,,,U,174,hexagon,1,0,,,,,,,,,,,,,,,,switch,letter,lettSwt,f,0.5595,Lo,,,,,,1,,,,,,,,high,22,0,22,0,1,,,,,,,,,
295045,2022-11-27_17h46.29.174,vts_reward_expectancy_bt,2022.2.4,MacIntel,60.04202942,Chrome,1440,900,,,,,0,947,,,,,,,,,,,,,,,,,D,125,circle,1,0,,,,,,,,,,,,,,,,switch,number,numSwt,j,0.738,Hi,,,,,,1,,,,,,,,high,23,0,23,0,1,,,,,,,,,
295045,2022-11-27_17h46.29.174,vts_reward_expectancy_bt,2022.2.4,MacIntel,60.04202942,Chrome,1440,900,,,,,10,957,,,,,,,,,,,,,,,,,W,139,circle,1,0,,,,,,,,,,,,,,,,switch,letter,lettSwt,f,0.5414,Hi,,,,,,1,,,,,,,,high,24,0,24,0,1,,,,,,,,,
295045,2022-11-27_17h46.29.174,vts_reward_expectancy_bt,2022.2.4,MacIntel,60.04202942,Chrome,1440,900,,,,,0,957,,,,,,,,,,,,,,,,,Y,160,triangle,1,0,,,,,,,,,,,,,,,,switch,number,numSwt,k,2.3432,Hi,,,,,,1,,,,,,,,high,25,0,25,0,1,,,,,,,,,
295045,2022-11-27_17h46.29.174,vts_reward_expectancy_bt,2022.2.4,MacIntel,60.04202942,Chrome,1440,900,,,,,1,958,,,,,,,,,,,,,,,,,B,146,hexagon,1,0,,,,,,,,,,,,,,,,repeat,number,numRpt,j,0.8653,Lo,,,,,,1,,,,,,,,high,26,0,26,0,1,,,,,,,,,
295045,2022-11-27_17h46.29.174,vts_reward_expectancy_bt,2022.2.4,MacIntel,60.04202942,Chrome,1440,900,,,,,10,968,,,,,,,,,,,,,,,,,H,167,star,1,0,,,,,,,,,,,,,,,,repeat,number,numRpt,k,0.8269,Lo,,,,,,1,,,,,,,,high,27,0,27,0,1,,,,,,,,,
295045,2022-11-27_17h46.29.174,vts_reward_expectancy_bt,2022.2.4,MacIntel,60.04202942,Chrome,1440,900,,,,,1,969,,,,,,,,,,,,,,,,,U,174,star,1,0,,,,,,,,,,,,,,,,switch,letter,lettSwt,f,0.5455,Lo,,,,,,1,,,,,,,,high,28,0,28,0,1,,,,,,,,,
295045,2022-11-27_17h46.29.174,vts_reward_expectancy_bt,2022.2.4,MacIntel,60.04202942,Chrome,1440,900,,,,,0,969,,,,,,,,,,,,,,,,,F,132,triangle,1,0,,,,,,,,,,,,,,,,switch,number,numSwt,j,0.7421,Hi,,,,,,1,,,,,,,,high,29,0,29,0,1,,,,,,,,,
295045,2022-11-27_17h46.29.174,vts_reward_expectancy_bt,2022.2.4,MacIntel,60.04202942,Chrome,1440,900,,,,,0,969,,,,,,,,,,,,,,,,,S,125,circle,1,0,,,,,,,,,,,,,,,,repeat,number,numRpt,j,0.8489,Hi,,,,,,1,,,,,,,,high,30,0,30,0,1,,,,,,,,,
295045,2022-11-27_17h46.29.174,vts_reward_expectancy_bt,2022.2.4,MacIntel,60.04202942,Chrome,1440,900,,,,,1,970,,,,,,,,,,,,,,,,,D,181,hexagon,1,0,,,,,,,,,,,,,,,,switch,letter,lettSwt,d,0.5871,Lo,,,,,,1,,,,,,,,high,31,0,31,0,1,,,,,,,,,
295045,2022-11-27_17h46.29.174,vts_reward_expectancy_bt,2022.2.4,MacIntel,60.04202942,Chrome,1440,900,,,,,1,971,,,,,,,,,,,,,,,,,F,167,hexagon,1,0,,,,,,,,,,,,,,,,repeat,letter,lettRpt,d,0.6816,Lo,,,,,,2,,,,,,space,1.1999,high,0,0,0,0,1,,,,,,,,,
295045,2022-11-27_17h46.29.174,vts_reward_expectancy_bt,2022.2.4,MacIntel,60.04202942,Chrome,1440,900,,,,,10,981,,,,,,,,,,,,,,,,,S,139,circle,1,0,,,,,,,,,,,,,,,,switch,number,numSwt,j,0.4577,Hi,,,,,,2,,,,,,,,high,1,0,1,0,1,,,,,,,,,
295045,2022-11-27_17h46.29.174,vts_reward_expectancy_bt,2022.2.4,MacIntel,60.04202942,Chrome,1440,900,,,,,1,982,,,,,,,,,,,,,,,,,W,181,star,1,0,,,,,,,,,,,,,,,,repeat,number,numRpt,k,0.4973,Lo,,,,,,2,,,,,,,,high,2,0,2,0,1,,,,,,,,,
295045,2022-11-27_17h46.29.174,vts_reward_expectancy_bt,2022.2.4,MacIntel,60.04202942,Chrome,1440,900,,,,,0,982,,,,,,,,,,,,,,,,,Y,132,triangle,1,0,,,,,,,,,,,,,,,,switch,letter,lettSwt,f,0.5677,Hi,,,,,,2,,,,,,,,high,3,0,3,0,1,,,,,,,,,
295045,2022-11-27_17h46.29.174,vts_reward_expectancy_bt,2022.2.4,MacIntel,60.04202942,Chrome,1440,900,,,,,1,983,,,,,,,,,,,,,,,,,B,160,hexagon,1,0,,,,,,,,,,,,,,,,repeat,letter,lettRpt,d,0.66,Lo,,,,,,2,,,,,,,,high,4,0,4,0,1,,,,,,,,,
295045,2022-11-27_17h46.29.174,vts_reward_expectancy_bt,2022.2.4,MacIntel,60.04202942,Chrome,1440,900,,,,,10,993,,,,,,,,,,,,,,,,,D,125,circle,1,0,,,,,,,,,,,,,,,,repeat,letter,lettRpt,d,0.3975,Hi,,,,,,2,,,,,,,,high,5,0,5,0,1,,,,,,,,,
295045,2022-11-27_17h46.29.174,vts_reward_expectancy_bt,2022.2.4,MacIntel,60.04202942,Chrome,1440,900,,,,,10,1003,,,,,,,,,,,,,,,,,U,174,star,1,0,,,,,,,,,,,,,,,,switch,number,numSwt,k,0.4949,Lo,,,,,,2,,,,,,,,high,6,0,6,0,1,,,,,,,,,
295045,2022-11-27_17h46.29.174,vts_reward_expectancy_bt,2022.2.4,MacIntel,60.04202942,Chrome,1440,900,,,,,1,1004,,,,,,,,,,,,,,,,,H,146,triangle,1,0,,,,,,,,,,,,,,,,switch,letter,lettSwt,d,0.4931,Hi,,,,,,2,,,,,,,,high,7,0,7,0,1,,,,,,,,,
295045,2022-11-27_17h46.29.174,vts_reward_expectancy_bt,2022.2.4,MacIntel,60.04202942,Chrome,1440,900,,,,,10,1014,,,,,,,,,,,,,,,,,F,167,triangle,1,0,,,,,,,,,,,,,,,,repeat,letter,lettRpt,d,0.4015,Hi,,,,,,2,,,,,,,,high,8,0,8,0,1,,,,,,,,,
295045,2022-11-27_17h46.29.174,vts_reward_expectancy_bt,2022.2.4,MacIntel,60.04202942,Chrome,1440,900,,,,,0,1014,,,,,,,,,,,,,,,,,S,139,circle,1,0,,,,,,,,,,,,,,,,switch,number,numSwt,j,0.5328,Hi,,,,,,2,,,,,,,,high,9,0,9,0,1,,,,,,,,,
295045,2022-11-27_17h46.29.174,vts_reward_expectancy_bt,2022.2.4,MacIntel,60.04202942,Chrome,1440,900,,,,,10,1024,,,,,,,,,,,,,,,,,W,181,hexagon,1,0,,,,,,,,,,,,,,,,switch,letter,lettSwt,f,0.9799,Lo,,,,,,2,,,,,,,,high,10,0,10,0,1,,,,,,,,,
295045,2022-11-27_17h46.29.174,vts_reward_expectancy_bt,2022.2.4,MacIntel,60.04202942,Chrome,1440,900,,,,,1,1025,,,,,,,,,,,,,,,,,Y,132,star,1,0,,,,,,,,,,,,,,,,switch,number,numSwt,j,0.4775,Lo,,,,,,2,,,,,,,,high,11,0,11,0,1,,,,,,,,,
295045,2022-11-27_17h46.29.174,vts_reward_expectancy_bt,2022.2.4,MacIntel,60.04202942,Chrome,1440,900,,,,,0,1025,,,,,,,,,,,,,,,,,B,160,triangle,0,0,,,,,,,,,,,,,,,,repeat,number,NA,j,0.4069,Lo,,,,,,2,,,,,,,,high,12,0,12,0,1,,,,,,,,,
295045,2022-11-27_17h46.29.174,vts_reward_expectancy_bt,2022.2.4,MacIntel,60.04202942,Chrome,1440,900,,,,,10,1035,,,,,,,,,,,,,,,,,D,125,circle,1,1,,,,,,,,,,,,,,,,repeat,number,numRpt,j,0.4319,Hi,,,,,,2,,,,,,,,high,13,0,13,0,1,,,,,,,,,
295045,2022-11-27_17h46.29.174,vts_reward_expectancy_bt,2022.2.4,MacIntel,60.04202942,Chrome,1440,900,,,,,10,1045,,,,,,,,,,,,,,,,,U,174,star,1,0,,,,,,,,,,,,,,,,switch,letter,lettSwt,f,0.9255,Lo,,,,,,2,,,,,,,,high,14,0,14,0,1,,,,,,,,,
295045,2022-11-27_17h46.29.174,vts_reward_expectancy_bt,2022.2.4,MacIntel,60.04202942,Chrome,1440,900,,,,,1,1046,,,,,,,,,,,,,,,,,H,146,hexagon,1,0,,,,,,,,,,,,,,,,repeat,letter,lettRpt,d,0.7593,Lo,,,,,,2,,,,,,,,high,15,0,15,0,1,,,,,,,,,
295045,2022-11-27_17h46.29.174,vts_reward_expectancy_bt,2022.2.4,MacIntel,60.04202942,Chrome,1440,900,,,,,10,1056,,,,,,,,,,,,,,,,,B,132,triangle,1,0,,,,,,,,,,,,,,,,switch,number,numSwt,j,0.4659,Hi,,,,,,2,,,,,,,,high,16,0,16,0,1,,,,,,,,,
295045,2022-11-27_17h46.29.174,vts_reward_expectancy_bt,2022.2.4,MacIntel,60.04202942,Chrome,1440,900,,,,,0,1056,,,,,,,,,,,,,,,,,S,174,hexagon,0,0,,,,,,,,,,,,,,,,switch,letter,NA,d,0.4483,Hi,,,,,,2,,,,,,,,high,17,0,17,0,1,,,,,,,,,
295045,2022-11-27_17h46.29.174,vts_reward_expectancy_bt,2022.2.4,MacIntel,60.04202942,Chrome,1440,900,,,,,0,1056,,,,,,,,,,,,,,,,,Y,146,circle,1,1,,,,,,,,,,,,,,,,repeat,letter,lettRpt,f,0.7092,Hi,,,,,,2,,,,,,,,high,18,0,18,0,1,,,,,,,,,
295045,2022-11-27_17h46.29.174,vts_reward_expectancy_bt,2022.2.4,MacIntel,60.04202942,Chrome,1440,900,,,,,10,1066,,,,,,,,,,,,,,,,,H,167,star,1,0,,,,,,,,,,,,,,,,switch,number,numSwt,k,0.6326,Lo,,,,,,2,,,,,,,,high,19,0,19,0,1,,,,,,,,,
295045,2022-11-27_17h46.29.174,vts_reward_expectancy_bt,2022.2.4,MacIntel,60.04202942,Chrome,1440,900,,,,,1,1067,,,,,,,,,,,,,,,,,W,139,hexagon,1,0,,,,,,,,,,,,,,,,switch,letter,lettSwt,f,0.4419,Lo,,,,,,2,,,,,,,,high,20,0,20,0,1,,,,,,,,,
295045,2022-11-27_17h46.29.174,vts_reward_expectancy_bt,2022.2.4,MacIntel,60.04202942,Chrome,1440,900,,,,,10,1077,,,,,,,,,,,,,,,,,D,181,circle,1,0,,,,,,,,,,,,,,,,switch,number,numSwt,k,0.3652,Hi,,,,,,2,,,,,,,,high,21,0,21,0,1,,,,,,,,,
295045,2022-11-27_17h46.29.174,vts_reward_expectancy_bt,2022.2.4,MacIntel,60.04202942,Chrome,1440,900,,,,,10,1087,,,,,,,,,,,,,,,,,F,160,triangle,1,0,,,,,,,,,,,,,,,,repeat,number,numRpt,k,0.5636,Hi,,,,,,2,,,,,,,,high,22,0,22,0,1,,,,,,,,,
295045,2022-11-27_17h46.29.174,vts_reward_expectancy_bt,2022.2.4,MacIntel,60.04202942,Chrome,1440,900,,,,,10,1097,,,,,,,,,,,,,,,,,U,125,star,1,0,,,,,,,,,,,,,,,,switch,letter,lettSwt,f,0.5808,Lo,,,,,,2,,,,,,,,high,23,0,23,0,1,,,,,,,,,
295045,2022-11-27_17h46.29.174,vts_reward_expectancy_bt,2022.2.4,MacIntel,60.04202942,Chrome,1440,900,,,,,0,1097,,,,,,,,,,,,,,,,,F,160,triangle,0,0,,,,,,,,,,,,,,,,switch,number,NA,j,0.4951,Lo,,,,,,2,,,,,,,,high,24,0,24,0,1,,,,,,,,,
295045,2022-11-27_17h46.29.174,vts_reward_expectancy_bt,2022.2.4,MacIntel,60.04202942,Chrome,1440,900,,,,,0,1097,,,,,,,,,,,,,,,,,U,125,circle,0,1,,,,,,,,,,,,,,,,repeat,number,NA,k,0.2474,Lo,,,,,,2,,,,,,,,high,25,0,25,0,1,,,,,,,,,
295045,2022-11-27_17h46.29.174,vts_reward_expectancy_bt,2022.2.4,MacIntel,60.04202942,Chrome,1440,900,,,,,1,1098,,,,,,,,,,,,,,,,,D,139,star,1,1,,,,,,,,,,,,,,,,switch,letter,lettSwt,d,1.1408,Lo,,,,,,2,,,,,,,,high,26,0,26,0,1,,,,,,,,,
295045,2022-11-27_17h46.29.174,vts_reward_expectancy_bt,2022.2.4,MacIntel,60.04202942,Chrome,1440,900,,,,,1,1099,,,,,,,,,,,,,,,,,W,167,hexagon,1,0,,,,,,,,,,,,,,,,switch,number,numSwt,k,0.4174,Lo,,,,,,2,,,,,,,,high,27,0,27,0,1,,,,,,,,,
295045,2022-11-27_17h46.29.174,vts_reward_expectancy_bt,2022.2.4,MacIntel,60.04202942,Chrome,1440,900,,,,,10,1109,,,,,,,,,,,,,,,,,B,181,triangle,1,0,,,,,,,,,,,,,,,,switch,letter,lettSwt,d,0.4767,Hi,,,,,,2,,,,,,,,high,28,0,28,0,1,,,,,,,,,
295045,2022-11-27_17h46.29.174,vts_reward_expectancy_bt,2022.2.4,MacIntel,60.04202942,Chrome,1440,900,,,,,1,1110,,,,,,,,,,,,,,,,,S,132,star,1,0,,,,,,,,,,,,,,,,repeat,letter,lettRpt,f,0.3985,Lo,,,,,,2,,,,,,,,high,29,0,29,0,1,,,,,,,,,
295045,2022-11-27_17h46.29.174,vts_reward_expectancy_bt,2022.2.4,MacIntel,60.04202942,Chrome,1440,900,,,,,0,1110,,,,,,,,,,,,,,,,,Y,174,hexagon,0,0,,,,,,,,,,,,,,,,repeat,letter,NA,d,0.5069,Lo,,,,,,2,,,,,,,,high,30,0,30,0,1,,,,,,,,,
295045,2022-11-27_17h46.29.174,vts_reward_expectancy_bt,2022.2.4,MacIntel,60.04202942,Chrome,1440,900,,,,,1,1111,,,,,,,,,,,,,,,,,H,146,circle,1,1,,,,,,,,,,,,,,,,switch,number,numSwt,j,0.4731,Hi,,,,,,2,,,,,,,,high,31,0,31,0,1,,,,,,,,,
295045,2022-11-27_17h46.29.174,vts_reward_expectancy_bt,2022.2.4,MacIntel,60.04202942,Chrome,1440,900,,,,,1,1112,,,,,,,,,,,,,,,,,F,160,star,1,0,,,,,,,,,,,,,,,,switch,letter,lettSwt,d,1.0371,Lo,,,,,,3,,,,,,space,1.6432,high,0,0,0,0,1,,,,,,,,,
295045,2022-11-27_17h46.29.174,vts_reward_expectancy_bt,2022.2.4,MacIntel,60.04202942,Chrome,1440,900,,,,,1,1113,,,,,,,,,,,,,,,,,Y,146,hexagon,1,0,,,,,,,,,,,,,,,,repeat,letter,lettRpt,f,0.9578,Lo,,,,,,3,,,,,,,,high,1,0,1,0,1,,,,,,,,,
295045,2022-11-27_17h46.29.174,vts_reward_expectancy_bt,2022.2.4,MacIntel,60.04202942,Chrome,1440,900,,,,,0,1113,,,,,,,,,,,,,,,,,D,125,triangle,1,0,,,,,,,,,,,,,,,,switch,number,numSwt,j,0.5838,Hi,,,,,,3,,,,,,,,high,2,0,2,0,1,,,,,,,,,
295045,2022-11-27_17h46.29.174,vts_reward_expectancy_bt,2022.2.4,MacIntel,60.04202942,Chrome,1440,900,,,,,0,1113,,,,,,,,,,,,,,,,,H,139,circle,1,0,,,,,,,,,,,,,,,,repeat,number,numRpt,j,0.4837,Hi,,,,,,3,,,,,,,,high,3,0,3,0,1,,,,,,,,,
295045,2022-11-27_17h46.29.174,vts_reward_expectancy_bt,2022.2.4,MacIntel,60.04202942,Chrome,1440,900,,,,,1,1114,,,,,,,,,,,,,,,,,U,181,star,1,0,,,,,,,,,,,,,,,,switch,letter,lettSwt,f,0.4813,Lo,,,,,,3,,,,,,,,high,4,0,4,0,1,,,,,,,,,
295045,2022-11-27_17h46.29.174,vts_reward_expectancy_bt,2022.2.4,MacIntel,60.04202942,Chrome,1440,900,,,,,10,1124,,,,,,,,,,,,,,,,,S,174,hexagon,1,0,,,,,,,,,,,,,,,,switch,number,numSwt,k,0.8514,Lo,,,,,,3,,,,,,,,high,5,0,5,0,1,,,,,,,,,
295045,2022-11-27_17h46.29.174,vts_reward_expectancy_bt,2022.2.4,MacIntel,60.04202942,Chrome,1440,900,,,,,10,1134,,,,,,,,,,,,,,,,,B,132,triangle,1,0,,,,,,,,,,,,,,,,repeat,number,numRpt,j,0.3457,Hi,,,,,,3,,,,,,,,high,6,0,6,0,1,,,,,,,,,
295045,2022-11-27_17h46.29.174,vts_reward_expectancy_bt,2022.2.4,MacIntel,60.04202942,Chrome,1440,900,,,,,10,1144,,,,,,,,,,,,,,,,,W,167,circle,1,0,,,,,,,,,,,,,,,,switch,letter,lettSwt,f,0.5123,Hi,,,,,,3,,,,,,,,high,7,0,7,0,1,,,,,,,,,
295045,2022-11-27_17h46.29.174,vts_reward_expectancy_bt,2022.2.4,MacIntel,60.04202942,Chrome,1440,900,,,,,0,1144,,,,,,,,,,,,,,,,,F,160,star,0,0,,,,,,,,,,,,,,,,repeat,letter,NA,f,0.5566,Hi,,,,,,3,,,,,,,,high,8,0,8,0,1,,,,,,,,,
295045,2022-11-27_17h46.29.174,vts_reward_expectancy_bt,2022.2.4,MacIntel,60.04202942,Chrome,1440,900,,,,,1,1145,,,,,,,,,,,,,,,,,Y,146,triangle,1,1,,,,,,,,,,,,,,,,repeat,letter,lettRpt,f,0.3798,Hi,,,,,,3,,,,,,,,high,9,0,9,0,1,,,,,,,,,
295045,2022-11-27_17h46.29.174,vts_reward_expectancy_bt,2022.2.4,MacIntel,60.04202942,Chrome,1440,900,,,,,10,1155,,,,,,,,,,,,,,,,,D,125,circle,1,0,,,,,,,,,,,,,,,,switch,number,numSwt,j,0.3495,Hi,,,,,,3,,,,,,,,high,10,0,10,0,1,,,,,,,,,
295045,2022-11-27_17h46.29.174,vts_reward_expectancy_bt,2022.2.4,MacIntel,60.04202942,Chrome,1440,900,,,,,1,1156,,,,,,,,,,,,,,,,,H,139,hexagon,1,0,,,,,,,,,,,,,,,,switch,letter,lettSwt,d,0.7102,Lo,,,,,,3,,,,,,,,high,11,0,11,0,1,,,,,,,,,
295045,2022-11-27_17h46.29.174,vts_reward_expectancy_bt,2022.2.4,MacIntel,60.04202942,Chrome,1440,900,,,,,1,1157,,,,,,,,,,,,,,,,,U,181,hexagon,1,0,,,,,,,,,,,,,,,,repeat,letter,lettRpt,f,0.5392,Lo,,,,,,3,,,,,,,,high,12,0,12,0,1,,,,,,,,,
295045,2022-11-27_17h46.29.174,vts_reward_expectancy_bt,2022.2.4,MacIntel,60.04202942,Chrome,1440,900,,,,,0,1157,,,,,,,,,,,,,,,,,S,174,triangle,0,0,,,,,,,,,,,,,,,,repeat,letter,NA,d,0.412,Lo,,,,,,3,,,,,,,,high,13,0,13,0,1,,,,,,,,,
295045,2022-11-27_17h46.29.174,vts_reward_expectancy_bt,2022.2.4,MacIntel,60.04202942,Chrome,1440,900,,,,,1,1158,,,,,,,,,,,,,,,,,B,132,star,1,1,,,,,,,,,,,,,,,,repeat,letter,lettRpt,d,0.5589,Lo,,,,,,3,,,,,,,,high,14,0,14,0,1,,,,,,,,,
295045,2022-11-27_17h46.29.174,vts_reward_expectancy_bt,2022.2.4,MacIntel,60.04202942,Chrome,1440,900,,,,,10,1168,,,,,,,,,,,,,,,,,W,167,circle,1,0,,,,,,,,,,,,,,,,switch,number,numSwt,k,0.451,Hi,,,,,,3,,,,,,,,high,15,0,15,0,1,,,,,,,,,
295045,2022-11-27_17h46.29.174,vts_reward_expectancy_bt,2022.2.4,MacIntel,60.04202942,Chrome,1440,900,,,,,1,1169,,,,,,,,,,,,,,,,,Y,132,hexagon,1,0,,,,,,,,,,,,,,,,repeat,number,numRpt,j,0.3959,Lo,,,,,,3,,,,,,,,high,16,0,16,0,1,,,,,,,,,
295045,2022-11-27_17h46.29.174,vts_reward_expectancy_bt,2022.2.4,MacIntel,60.04202942,Chrome,1440,900,,,,,1,1170,,,,,,,,,,,,,,,,,U,160,star,1,0,,,,,,,,,,,,,,,,switch,letter,lettSwt,f,0.4671,Lo,,,,,,3,,,,,,,,high,17,0,17,0,1,,,,,,,,,
295045,2022-11-27_17h46.29.174,vts_reward_expectancy_bt,2022.2.4,MacIntel,60.04202942,Chrome,1440,900,,,,,0,1170,,,,,,,,,,,,,,,,,B,146,triangle,0,0,,,,,,,,,,,,,,,,repeat,letter,NA,f,0.4558,Lo,,,,,,3,,,,,,,,high,18,0,18,0,1,,,,,,,,,
295045,2022-11-27_17h46.29.174,vts_reward_expectancy_bt,2022.2.4,MacIntel,60.04202942,Chrome,1440,900,,,,,0,1170,,,,,,,,,,,,,,,,,W,125,circle,1,1,,,,,,,,,,,,,,,,repeat,letter,lettRpt,f,0.608,Hi,,,,,,3,,,,,,,,high,19,0,19,0,1,,,,,,,,,
295045,2022-11-27_17h46.29.174,vts_reward_expectancy_bt,2022.2.4,MacIntel,60.04202942,Chrome,1440,900,,,,,10,1180,,,,,,,,,,,,,,,,,D,167,hexagon,1,0,,,,,,,,,,,,,,,,switch,number,numSwt,k,1.4654,Lo,,,,,,3,,,,,,,,high,20,0,20,0,1,,,,,,,,,
295045,2022-11-27_17h46.29.174,vts_reward_expectancy_bt,2022.2.4,MacIntel,60.04202942,Chrome,1440,900,,,,,0,1180,,,,,,,,,,,,,,,,,S,174,circle,0,0,,,,,,,,,,,,,,,,repeat,number,NA,j,0.3756,Lo,,,,,,3,,,,,,,,high,21,0,21,0,1,,,,,,,,,
295045,2022-11-27_17h46.29.174,vts_reward_expectancy_bt,2022.2.4,MacIntel,60.04202942,Chrome,1440,900,,,,,1,1181,,,,,,,,,,,,,,,,,F,181,triangle,1,1,,,,,,,,,,,,,,,,switch,letter,lettSwt,d,0.1801,Hi,,,,,,3,,,,,,,,high,22,0,22,0,1,,,,,,,,,
295045,2022-11-27_17h46.29.174,vts_reward_expectancy_bt,2022.2.4,MacIntel,60.04202942,Chrome,1440,900,,,,,1,1182,,,,,,,,,,,,,,,,,H,139,star,1,0,,,,,,,,,,,,,,,,repeat,letter,lettRpt,d,1.0456,Lo,,,,,,3,,,,,,,,high,23,0,23,0,1,,,,,,,,,
295045,2022-11-27_17h46.29.174,vts_reward_expectancy_bt,2022.2.4,MacIntel,60.04202942,Chrome,1440,900,,,,,10,1192,,,,,,,,,,,,,,,,,D,132,circle,1,0,,,,,,,,,,,,,,,,switch,number,numSwt,j,0.4075,Hi,,,,,,3,,,,,,,,high,24,0,24,0,1,,,,,,,,,
295045,2022-11-27_17h46.29.174,vts_reward_expectancy_bt,2022.2.4,MacIntel,60.04202942,Chrome,1440,900,,,,,0,1192,,,,,,,,,,,,,,,,,S,160,triangle,1,0,,,,,,,,,,,,,,,,switch,letter,lettSwt,f,0.6464,Hi,,,,,,3,,,,,,,,high,25,0,25,0,1,,,,,,,,,
295045,2022-11-27_17h46.29.174,vts_reward_expectancy_bt,2022.2.4,MacIntel,60.04202942,Chrome,1440,900,,,,,1,1193,,,,,,,,,,,,,,,,,W,167,hexagon,1,0,,,,,,,,,,,,,,,,repeat,letter,lettRpt,f,1.3745,Lo,,,,,,3,,,,,,,,high,26,0,26,0,1,,,,,,,,,
295045,2022-11-27_17h46.29.174,vts_reward_expectancy_bt,2022.2.4,MacIntel,60.04202942,Chrome,1440,900,,,,,1,1194,,,,,,,,,,,,,,,,,Y,125,star,1,0,,,,,,,,,,,,,,,,repeat,letter,lettRpt,f,0.6996,Lo,,,,,,3,,,,,,,,high,27,0,27,0,1,,,,,,,,,
295045,2022-11-27_17h46.29.174,vts_reward_expectancy_bt,2022.2.4,MacIntel,60.04202942,Chrome,1440,900,,,,,0,1194,,,,,,,,,,,,,,,,,B,146,circle,1,0,,,,,,,,,,,,,,,,switch,number,numSwt,j,0.7472,Hi,,,,,,3,,,,,,,,high,28,0,28,0,1,,,,,,,,,
295045,2022-11-27_17h46.29.174,vts_reward_expectancy_bt,2022.2.4,MacIntel,60.04202942,Chrome,1440,900,,,,,1,1195,,,,,,,,,,,,,,,,,U,174,star,1,0,,,,,,,,,,,,,,,,switch,letter,lettSwt,f,0.8583,Lo,,,,,,3,,,,,,,,high,29,0,29,0,1,,,,,,,,,
295045,2022-11-27_17h46.29.174,vts_reward_expectancy_bt,2022.2.4,MacIntel,60.04202942,Chrome,1440,900,,,,,1,1196,,,,,,,,,,,,,,,,,H,181,hexagon,1,0,,,,,,,,,,,,,,,,repeat,letter,lettRpt,d,0.725,Lo,,,,,,3,,,,,,,,high,30,0,30,0,1,,,,,,,,,
295045,2022-11-27_17h46.29.174,vts_reward_expectancy_bt,2022.2.4,MacIntel,60.04202942,Chrome,1440,900,,,,,0,1196,,,,,,,,,,,,,,,,,F,139,triangle,1,0,,,,,,,,,,,,,,,,switch,number,numSwt,j,0.5193,Hi,,,,,,3,,,,,,,,high,31,0,31,0,1,,,,,,,,,
295045,2022-11-27_17h46.29.174,vts_reward_expectancy_bt,2022.2.4,MacIntel,60.04202942,Chrome,1440,900,,,,,1,1197,,,,,,,,,,,,,,,,,D,174,hexagon,1,0,,,,,,,,,,,,,,,,switch,letter,lettSwt,d,0.6562,Lo,,,,,,4,,,,,,space,0.7145,high,0,0,0,0,1,,,,,,,,,
295045,2022-11-27_17h46.29.174,vts_reward_expectancy_bt,2022.2.4,MacIntel,60.04202942,Chrome,1440,900,,,,,0,1197,,,,,,,,,,,,,,,,,B,125,circle,0,0,,,,,,,,,,,,,,,,repeat,letter,NA,f,0.3256,Lo,,,,,,4,,,,,,,,high,1,0,1,0,1,,,,,,,,,
295045,2022-11-27_17h46.29.174,vts_reward_expectancy_bt,2022.2.4,MacIntel,60.04202942,Chrome,1440,900,,,,,10,1207,,,,,,,,,,,,,,,,,Y,146,star,1,1,,,,,,,,,,,,,,,,repeat,letter,lettRpt,f,0.6255,Lo,,,,,,4,,,,,,,,high,2,0,2,0,1,,,,,,,,,
295045,2022-11-27_17h46.29.174,vts_reward_expectancy_bt,2022.2.4,MacIntel,60.04202942,Chrome,1440,900,,,,,10,1217,,,,,,,,,,,,,,,,,S,167,triangle,1,0,,,,,,,,,,,,,,,,repeat,letter,lettRpt,f,0.5243,Hi,,,,,,4,,,,,,,,high,3,0,3,0,1,,,,,,,,,
295045,2022-11-27_17h46.29.174,vts_reward_expectancy_bt,2022.2.4,MacIntel,60.04202942,Chrome,1440,900,,,,,10,1227,,,,,,,,,,,,,,,,,F,132,hexagon,1,0,,,,,,,,,,,,,,,,repeat,letter,lettRpt,d,0.6069,Lo,,,,,,4,,,,,,,,high,4,0,4,0,1,,,,,,,,,
295045,2022-11-27_17h46.29.174,vts_reward_expectancy_bt,2022.2.4,MacIntel,60.04202942,Chrome,1440,900,,,,,10,1237,,,,,,,,,,,,,,,,,H,160,circle,1,0,,,,,,,,,,,,,,,,switch,number,numSwt,k,0.417,Hi,,,,,,4,,,,,,,,high,5,0,5,0,1,,,,,,,,,
295045,2022-11-27_17h46.29.174,vts_reward_expectancy_bt,2022.2.4,MacIntel,60.04202942,Chrome,1440,900,,,,,1,1238,,,,,,,,,,,,,,,,,W,181,star,1,0,,,,,,,,,,,,,,,,switch,letter,lettSwt,f,0.4242,Lo,,,,,,4,,,,,,,,high,6,0,6,0,1,,,,,,,,,
295045,2022-11-27_17h46.29.174,vts_reward_expectancy_bt,2022.2.4,MacIntel,60.04202942,Chrome,1440,900,,,,,10,1248,,,,,,,,,,,,,,,,,U,139,triangle,1,0,,,,,,,,,,,,,,,,switch,number,numSwt,j,0.4286,Hi,,,,,,4,,,,,,,,high,7,0,7,0,1,,,,,,,,,
295045,2022-11-27_17h46.29.174,vts_reward_expectancy_bt,2022.2.4,MacIntel,60.04202942,Chrome,1440,900,,,,,10,1258,,,,,,,,,,,,,,,,,D,174,hexagon,1,0,,,,,,,,,,,,,,,,repeat,number,numRpt,k,0.5115,Lo,,,,,,4,,,,,,,,high,8,0,8,0,1,,,,,,,,,
295045,2022-11-27_17h46.29.174,vts_reward_expectancy_bt,2022.2.4,MacIntel,60.04202942,Chrome,1440,900,,,,,1,1259,,,,,,,,,,,,,,,,,B,125,circle,1,0,,,,,,,,,,,,,,,,switch,letter,lettSwt,d,0.3906,Hi,,,,,,4,,,,,,,,high,9,0,9,0,1,,,,,,,,,
295045,2022-11-27_17h46.29.174,vts_reward_expectancy_bt,2022.2.4,MacIntel,60.04202942,Chrome,1440,900,,,,,0,1259,,,,,,,,,,,,,,,,,Y,146,star,0,0,,,,,,,,,,,,,,,,repeat,letter,NA,d,0.6511,Hi,,,,,,4,,,,,,,,high,10,0,10,0,1,,,,,,,,,
295045,2022-11-27_17h46.29.174,vts_reward_expectancy_bt,2022.2.4,MacIntel,60.04202942,Chrome,1440,900,,,,,1,1260,,,,,,,,,,,,,,,,,S,167,triangle,1,1,,,,,,,,,,,,,,,,repeat,letter,lettRpt,f,0.5321,Hi,,,,,,4,,,,,,,,high,11,0,11,0,1,,,,,,,,,
295045,2022-11-27_17h46.29.174,vts_reward_expectancy_bt,2022.2.4,MacIntel,60.04202942,Chrome,1440,900,,,,,1,1261,,,,,,,,,,,,,,,,,F,132,star,1,0,,,,,,,,,,,,,,,,switch,number,numSwt,j,0.5129,Lo,,,,,,4,,,,,,,,high,12,0,12,0,1,,,,,,,,,
295045,2022-11-27_17h46.29.174,vts_reward_expectancy_bt,2022.2.4,MacIntel,60.04202942,Chrome,1440,900,,,,,0,1261,,,,,,,,,,,,,,,,,H,160,circle,0,0,,,,,,,,,,,,,,,,switch,letter,NA,f,0.38,Lo,,,,,,4,,,,,,,,high,13,0,13,0,1,,,,,,,,,
295045,2022-11-27_17h46.29.174,vts_reward_expectancy_bt,2022.2.4,MacIntel,60.04202942,Chrome,1440,900,,,,,1,1262,,,,,,,,,,,,,,,,,W,181,hexagon,1,1,,,,,,,,,,,,,,,,repeat,letter,lettRpt,f,0.4568,Lo,,,,,,4,,,,,,,,high,14,0,14,0,1,,,,,,,,,
295045,2022-11-27_17h46.29.174,vts_reward_expectancy_bt,2022.2.4,MacIntel,60.04202942,Chrome,1440,900,,,,,0,1262,,,,,,,,,,,,,,,,,U,139,triangle,1,0,,,,,,,,,,,,,,,,switch,number,numSwt,j,0.4962,Hi,,,,,,4,,,,,,,,high,15,0,15,0,1,,,,,,,,,
295045,2022-11-27_17h46.29.174,vts_reward_expectancy_bt,2022.2.4,MacIntel,60.04202942,Chrome,1440,900,,,,,1,1263,,,,,,,,,,,,,,,,,U,181,hexagon,1,0,,,,,,,,,,,,,,,,switch,letter,lettSwt,f,0.899,Lo,,,,,,4,,,,,,,,high,16,0,16,0,1,,,,,,,,,
295045,2022-11-27_17h46.29.174,vts_reward_expectancy_bt,2022.2.4,MacIntel,60.04202942,Chrome,1440,900,,,,,10,1273,,,,,,,,,,,,,,,,,W,174,triangle,1,0,,,,,,,,,,,,,,,,switch,number,numSwt,k,0.3814,Hi,,,,,,4,,,,,,,,high,17,0,17,0,1,,,,,,,,,
295045,2022-11-27_17h46.29.174,vts_reward_expectancy_bt,2022.2.4,MacIntel,60.04202942,Chrome,1440,900,,,,,1,1274,,,,,,,,,,,,,,,,,S,160,star,1,0,,,,,,,,,,,,,,,,switch,letter,lettSwt,f,0.4803,Lo,,,,,,4,,,,,,,,high,18,0,18,0,1,,,,,,,,,
295045,2022-11-27_17h46.29.174,vts_reward_expectancy_bt,2022.2.4,MacIntel,60.04202942,Chrome,1440,900,,,,,0,1274,,,,,,,,,,,,,,,,,Y,139,circle,0,0,,,,,,,,,,,,,,,,repeat,letter,NA,d,0.3726,Lo,,,,,,4,,,,,,,,high,19,0,19,0,1,,,,,,,,,
295045,2022-11-27_17h46.29.174,vts_reward_expectancy_bt,2022.2.4,MacIntel,60.04202942,Chrome,1440,900,,,,,10,1284,,,,,,,,,,,,,,,,,B,167,star,1,1,,,,,,,,,,,,,,,,repeat,letter,lettRpt,d,0.6899,Lo,,,,,,4,,,,,,,,high,20,0,20,0,1,,,,,,,,,
295045,2022-11-27_17h46.29.174,vts_reward_expectancy_bt,2022.2.4,MacIntel,60.04202942,Chrome,1440,900,,,,,1,1285,,,,,,,,,,,,,,,,,D,132,hexagon,1,0,,,,,,,,,,,,,,,,switch,number,numSwt,j,0.5213,Lo,,,,,,4,,,,,,,,high,21,0,21,0,1,,,,,,,,,
295045,2022-11-27_17h46.29.174,vts_reward_expectancy_bt,2022.2.4,MacIntel,60.04202942,Chrome,1440,900,,,,,10,1295,,,,,,,,,,,,,,,,,F,125,circle,1,0,,,,,,,,,,,,,,,,switch,letter,lettSwt,d,0.4583,Hi,,,,,,4,,,,,,,,high,22,0,22,0,1,,,,,,,,,
295045,2022-11-27_17h46.29.174,vts_reward_expectancy_bt,2022.2.4,MacIntel,60.04202942,Chrome,1440,900,,,,,10,1305,,,,,,,,,,,,,,,,,H,146,triangle,1,0,,,,,,,,,,,,,,,,switch,number,numSwt,j,0.4112,Hi,,,,,,4,,,,,,,,high,23,0,23,0,1,,,,,,,,,
295045,2022-11-27_17h46.29.174,vts_reward_expectancy_bt,2022.2.4,MacIntel,60.04202942,Chrome,1440,900,,,,,1,1306,,,,,,,,,,,,,,,,,H,181,star,1,0,,,,,,,,,,,,,,,,switch,letter,lettSwt,d,0.8334,Lo,,,,,,4,,,,,,,,high,24,0,24,0,1,,,,,,,,,
295045,2022-11-27_17h46.29.174,vts_reward_expectancy_bt,2022.2.4,MacIntel,60.04202942,Chrome,1440,900,,,,,1,1307,,,,,,,,,,,,,,,,,Y,146,triangle,1,0,,,,,,,,,,,,,,,,switch,number,numSwt,j,0.4276,Hi,,,,,,4,,,,,,,,high,25,0,25,0,1,,,,,,,,,
295045,2022-11-27_17h46.29.174,vts_reward_expectancy_bt,2022.2.4,MacIntel,60.04202942,Chrome,1440,900,,,,,10,1317,,,,,,,,,,,,,,,,,W,174,circle,1,0,,,,,,,,,,,,,,,,switch,letter,lettSwt,f,0.4311,Hi,,,,,,4,,,,,,,,high,26,0,26,0,1,,,,,,,,,
295045,2022-11-27_17h46.29.174,vts_reward_expectancy_bt,2022.2.4,MacIntel,60.04202942,Chrome,1440,900,,,,,1,1318,,,,,,,,,,,,,,,,,F,132,hexagon,1,0,,,,,,,,,,,,,,,,repeat,letter,lettRpt,d,0.5899,Lo,,,,,,4,,,,,,,,high,27,0,27,0,1,,,,,,,,,
295045,2022-11-27_17h46.29.174,vts_reward_expectancy_bt,2022.2.4,MacIntel,60.04202942,Chrome,1440,900,,,,,0,1318,,,,,,,,,,,,,,,,,D,160,circle,0,0,,,,,,,,,,,,,,,,switch,number,NA,j,0.4145,Lo,,,,,,4,,,,,,,,high,28,0,28,0,1,,,,,,,,,
295045,2022-11-27_17h46.29.174,vts_reward_expectancy_bt,2022.2.4,MacIntel,60.04202942,Chrome,1440,900,,,,,1,1319,,,,,,,,,,,,,,,,,B,125,hexagon,1,1,,,,,,,,,,,,,,,,repeat,number,numRpt,j,0.5665,Lo,,,,,,4,,,,,,,,high,29,0,29,0,1,,,,,,,,,
295045,2022-11-27_17h46.29.174,vts_reward_expectancy_bt,2022.2.4,MacIntel,60.04202942,Chrome,1440,900,,,,,0,1319,,,,,,,,,,,,,,,,,S,139,triangle,1,0,,,,,,,,,,,,,,,,repeat,number,numRpt,j,0.5514,Hi,,,,,,4,,,,,,,,high,30,0,30,0,1,,,,,,,,,
295045,2022-11-27_17h46.29.174,vts_reward_expectancy_bt,2022.2.4,MacIntel,60.04202942,Chrome,1440,900,,,,,1,1320,,,,,,,,,,,,,,,,,U,167,star,1,0,,,,,,,,,,,,,,,,switch,letter,lettSwt,f,1.6796,Lo,,,,,,4,,,,,,,,high,31,0,31,0,1,,,,,,,,,
295045,2022-11-27_17h46.29.174,vts_reward_expectancy_bt,2022.2.4,MacIntel,60.04202942,Chrome,1440,900,,,,,1,1321,,,,,,,,,,,,,,,,,D,139,star,1,0,,,,,,,,,,,,,,,,repeat,letter,lettRpt,d,0.5113,Lo,,,,,,5,,,,,,space,1.6916,high,0,0,0,0,1,,,,,,,,,
295045,2022-11-27_17h46.29.174,vts_reward_expectancy_bt,2022.2.4,MacIntel,60.04202942,Chrome,1440,900,,,,,0,1321,,,,,,,,,,,,,,,,,W,132,circle,1,0,,,,,,,,,,,,,,,,switch,number,numSwt,j,0.4263,Hi,,,,,,5,,,,,,,,high,1,0,1,0,1,,,,,,,,,
295045,2022-11-27_17h46.29.174,vts_reward_expectancy_bt,2022.2.4,MacIntel,60.04202942,Chrome,1440,900,,,,,10,1331,,,,,,,,,,,,,,,,,H,167,hexagon,1,0,,,,,,,,,,,,,,,,switch,letter,lettSwt,d,0.7596,Lo,,,,,,5,,,,,,,,high,2,0,2,0,1,,,,,,,,,
295045,2022-11-27_17h46.29.174,vts_reward_expectancy_bt,2022.2.4,MacIntel,60.04202942,Chrome,1440,900,,,,,10,1341,,,,,,,,,,,,,,,,,Y,181,triangle,1,0,,,,,,,,,,,,,,,,repeat,letter,lettRpt,f,0.2628,Hi,,,,,,5,,,,,,,,high,3,0,3,0,1,,,,,,,,,
295045,2022-11-27_17h46.29.174,vts_reward_expectancy_bt,2022.2.4,MacIntel,60.04202942,Chrome,1440,900,,,,,1,1342,,,,,,,,,,,,,,,,,B,174,star,1,0,,,,,,,,,,,,,,,,switch,number,numSwt,k,0.7336,Lo,,,,,,5,,,,,,,,high,4,0,4,0,1,,,,,,,,,
295045,2022-11-27_17h46.29.174,vts_reward_expectancy_bt,2022.2.4,MacIntel,60.04202942,Chrome,1440,900,,,,,1,1343,,,,,,,,,,,,,,,,,U,146,circle,1,0,,,,,,,,,,,,,,,,repeat,number,numRpt,j,0.291,Hi,,,,,,5,,,,,,,,high,5,0,5,0,1,,,,,,,,,
295045,2022-11-27_17h46.29.174,vts_reward_expectancy_bt,2022.2.4,MacIntel,60.04202942,Chrome,1440,900,,,,,0,1343,,,,,,,,,,,,,,,,,S,160,hexagon,0,0,,,,,,,,,,,,,,,,switch,letter,NA,d,0.5267,Hi,,,,,,5,,,,,,,,high,6,0,6,0,1,,,,,,,,,
295045,2022-11-27_17h46.29.174,vts_reward_expectancy_bt,2022.2.4,MacIntel,60.04202942,Chrome,1440,900,,,,,0,1343,,,,,,,,,,,,,,,,,F,125,triangle,0,1,,,,,,,,,,,,,,,,repeat,letter,NA,f,0.5252,Hi,,,,,,5,,,,,,,,high,7,0,7,0,1,,,,,,,,,
295045,2022-11-27_17h46.29.174,vts_reward_expectancy_bt,2022.2.4,MacIntel,60.04202942,Chrome,1440,900,,,,,1,1344,,,,,,,,,,,,,,,,,D,139,hexagon,1,1,,,,,,,,,,,,,,,,repeat,letter,lettRpt,d,0.5568,Lo,,,,,,5,,,,,,,,high,8,0,8,0,1,,,,,,,,,
295045,2022-11-27_17h46.29.174,vts_reward_expectancy_bt,2022.2.4,MacIntel,60.04202942,Chrome,1440,900,,,,,0,1344,,,,,,,,,,,,,,,,,W,132,circle,0,0,,,,,,,,,,,,,,,,switch,number,NA,k,0.2787,Lo,,,,,,5,,,,,,,,high,9,0,9,0,1,,,,,,,,,
295045,2022-11-27_17h46.29.174,vts_reward_expectancy_bt,2022.2.4,MacIntel,60.04202942,Chrome,1440,900,,,,,10,1354,,,,,,,,,,,,,,,,,H,167,triangle,1,1,,,,,,,,,,,,,,,,repeat,number,numRpt,k,0.4133,Hi,,,,,,5,,,,,,,,high,10,0,10,0,1,,,,,,,,,
295045,2022-11-27_17h46.29.174,vts_reward_expectancy_bt,2022.2.4,MacIntel,60.04202942,Chrome,1440,900,,,,,1,1355,,,,,,,,,,,,,,,,,Y,181,star,1,0,,,,,,,,,,,,,,,,switch,letter,lettSwt,f,0.5585,Lo,,,,,,5,,,,,,,,high,11,0,11,0,1,,,,,,,,,
295045,2022-11-27_17h46.29.174,vts_reward_expectancy_bt,2022.2.4,MacIntel,60.04202942,Chrome,1440,900,,,,,1,1356,,,,,,,,,,,,,,,,,B,174,hexagon,1,0,,,,,,,,,,,,,,,,switch,number,numSwt,k,0.661,Lo,,,,,,5,,,,,,,,high,12,0,12,0,1,,,,,,,,,
295045,2022-11-27_17h46.29.174,vts_reward_expectancy_bt,2022.2.4,MacIntel,60.04202942,Chrome,1440,900,,,,,0,1356,,,,,,,,,,,,,,,,,U,146,circle,1,0,,,,,,,,,,,,,,,,switch,letter,lettSwt,f,0.4913,Hi,,,,,,5,,,,,,,,high,13,0,13,0,1,,,,,,,,,
295045,2022-11-27_17h46.29.174,vts_reward_expectancy_bt,2022.2.4,MacIntel,60.04202942,Chrome,1440,900,,,,,1,1357,,,,,,,,,,,,,,,,,S,160,star,1,0,,,,,,,,,,,,,,,,repeat,letter,lettRpt,f,0.5932,Lo,,,,,,5,,,,,,,,high,14,0,14,0,1,,,,,,,,,
295045,2022-11-27_17h46.29.174,vts_reward_expectancy_bt,2022.2.4,MacIntel,60.04202942,Chrome,1440,900,,,,,0,1357,,,,,,,,,,,,,,,,,F,125,triangle,1,0,,,,,,,,,,,,,,,,switch,number,numSwt,j,0.5643,Hi,,,,,,5,,,,,,,,high,15,0,15,0,1,,,,,,,,,
295045,2022-11-27_17h46.29.174,vts_reward_expectancy_bt,2022.2.4,MacIntel,60.04202942,Chrome,1440,900,,,,,1,1358,,,,,,,,,,,,,,,,,Y,174,hexagon,1,0,,,,,,,,,,,,,,,,switch,letter,lettSwt,f,0.5467,Lo,,,,,,5,,,,,,,,high,16,0,16,0,1,,,,,,,,,
295045,2022-11-27_17h46.29.174,vts_reward_expectancy_bt,2022.2.4,MacIntel,60.04202942,Chrome,1440,900,,,,,10,1368,,,,,,,,,,,,,,,,,D,139,triangle,1,0,,,,,,,,,,,,,,,,switch,number,numSwt,j,0.3992,Hi,,,,,,5,,,,,,,,high,17,0,17,0,1,,,,,,,,,
295045,2022-11-27_17h46.29.174,vts_reward_expectancy_bt,2022.2.4,MacIntel,60.04202942,Chrome,1440,900,,,,,1,1369,,,,,,,,,,,,,,,,,U,167,star,1,0,,,,,,,,,,,,,,,,switch,letter,lettSwt,f,0.4501,Lo,,,,,,5,,,,,,,,high,18,0,18,0,1,,,,,,,,,
295045,2022-11-27_17h46.29.174,vts_reward_expectancy_bt,2022.2.4,MacIntel,60.04202942,Chrome,1440,900,,,,,0,1369,,,,,,,,,,,,,,,,,F,181,circle,0,0,,,,,,,,,,,,,,,,repeat,letter,NA,f,0.3985,Lo,,,,,,5,,,,,,,,high,19,0,19,0,1,,,,,,,,,
295045,2022-11-27_17h46.29.174,vts_reward_expectancy_bt,2022.2.4,MacIntel,60.04202942,Chrome,1440,900,,,,,10,1379,,,,,,,,,,,,,,,,,S,160,hexagon,1,1,,,,,,,,,,,,,,,,repeat,letter,lettRpt,f,0.5778,Lo,,,,,,5,,,,,,,,high,20,0,20,0,1,,,,,,,,,
295045,2022-11-27_17h46.29.174,vts_reward_expectancy_bt,2022.2.4,MacIntel,60.04202942,Chrome,1440,900,,,,,0,1379,,,,,,,,,,,,,,,,,H,125,circle,1,0,,,,,,,,,,,,,,,,repeat,letter,lettRpt,d,0.5492,Hi,,,,,,5,,,,,,,,high,21,0,21,0,1,,,,,,,,,
295045,2022-11-27_17h46.29.174,vts_reward_expectancy_bt,2022.2.4,MacIntel,60.04202942,Chrome,1440,900,,,,,0,1379,,,,,,,,,,,,,,,,,B,132,triangle,1,0,,,,,,,,,,,,,,,,switch,number,numSwt,j,0.4203,Hi,,,,,,5,,,,,,,,high,22,0,22,0,1,,,,,,,,,
295045,2022-11-27_17h46.29.174,vts_reward_expectancy_bt,2022.2.4,MacIntel,60.04202942,Chrome,1440,900,,,,,1,1380,,,,,,,,,,,,,,,,,W,146,star,1,0,,,,,,,,,,,,,,,,switch,letter,lettSwt,f,0.4613,Lo,,,,,,5,,,,,,,,high,23,0,23,0,1,,,,,,,,,
295045,2022-11-27_17h46.29.174,vts_reward_expectancy_bt,2022.2.4,MacIntel,60.04202942,Chrome,1440,900,,,,,10,1390,,,,,,,,,,,,,,,,,Y,167,triangle,1,0,,,,,,,,,,,,,,,,switch,number,numSwt,k,0.2283,Hi,,,,,,5,,,,,,,,high,24,0,24,0,1,,,,,,,,,
295045,2022-11-27_17h46.29.174,vts_reward_expectancy_bt,2022.2.4,MacIntel,60.04202942,Chrome,1440,900,,,,,1,1391,,,,,,,,,,,,,,,,,W,160,star,1,0,,,,,,,,,,,,,,,,switch,letter,lettSwt,f,0.5813,Lo,,,,,,5,,,,,,,,high,25,0,25,0,1,,,,,,,,,
295045,2022-11-27_17h46.29.174,vts_reward_expectancy_bt,2022.2.4,MacIntel,60.04202942,Chrome,1440,900,,,,,0,1391,,,,,,,,,,,,,,,,,B,125,circle,0,0,,,,,,,,,,,,,,,,repeat,letter,NA,f,0.3468,Lo,,,,,,5,,,,,,,,high,26,0,26,0,1,,,,,,,,,
295045,2022-11-27_17h46.29.174,vts_reward_expectancy_bt,2022.2.4,MacIntel,60.04202942,Chrome,1440,900,,,,,0,1391,,,,,,,,,,,,,,,,,H,139,hexagon,0,1,,,,,,,,,,,,,,,,repeat,letter,NA,f,0.4839,Lo,,,,,,5,,,,,,,,high,27,0,27,0,1,,,,,,,,,
295045,2022-11-27_17h46.29.174,vts_reward_expectancy_bt,2022.2.4,MacIntel,60.04202942,Chrome,1440,900,,,,,0,1391,,,,,,,,,,,,,,,,,D,174,circle,0,1,,,,,,,,,,,,,,,,repeat,letter,NA,f,0.2637,Lo,,,,,,5,,,,,,,,high,28,0,28,0,1,,,,,,,,,
295045,2022-11-27_17h46.29.174,vts_reward_expectancy_bt,2022.2.4,MacIntel,60.04202942,Chrome,1440,900,,,,,10,1401,,,,,,,,,,,,,,,,,U,181,triangle,1,1,,,,,,,,,,,,,,,,repeat,letter,lettRpt,f,0.2888,Hi,,,,,,5,,,,,,,,high,29,0,29,0,1,,,,,,,,,
295045,2022-11-27_17h46.29.174,vts_reward_expectancy_bt,2022.2.4,MacIntel,60.04202942,Chrome,1440,900,,,,,1,1402,,,,,,,,,,,,,,,,,S,132,hexagon,1,0,,,,,,,,,,,,,,,,switch,number,numSwt,j,0.7439,Lo,,,,,,5,,,,,,,,high,30,0,30,0,1,,,,,,,,,
295045,2022-11-27_17h46.29.174,vts_reward_expectancy_bt,2022.2.4,MacIntel,60.04202942,Chrome,1440,900,,,,,1,1403,,,,,,,,,,,,,,,,,F,146,star,1,0,,,,,,,,,,,,,,,,repeat,number,numRpt,j,0.5172,Lo,,,,,,5,,,,,,,,high,31,0,31,0,1,,,,,,,,,
295045,2022-11-27_17h46.29.174,vts_reward_expectancy_bt,2022.2.4,MacIntel,60.04202942,Chrome,1440,900,,,,,1,1404,,,,,,,,,,,,,,,,,Y,125,star,1,0,,,,,,,,,,,,,,,,switch,letter,lettSwt,f,0.5422,Lo,,,,,,6,,,,,,space,0.5515,high,0,0,0,0,1,,,,,,,,,
295045,2022-11-27_17h46.29.174,vts_reward_expectancy_bt,2022.2.4,MacIntel,60.04202942,Chrome,1440,900,,,,,0,1404,,,,,,,,,,,,,,,,,U,174,circle,0,0,,,,,,,,,,,,,,,,switch,number,NA,j,0.2725,Lo,,,,,,6,,,,,,,,high,1,0,1,0,1,,,,,,,,,
295045,2022-11-27_17h46.29.174,vts_reward_expectancy_bt,2022.2.4,MacIntel,60.04202942,Chrome,1440,900,,,,,0,1404,,,,,,,,,,,,,,,,,B,167,triangle,1,1,,,,,,,,,,,,,,,,repeat,number,numRpt,k,0.4945,Hi,,,,,,6,,,,,,,,high,2,0,2,0,1,,,,,,,,,
295045,2022-11-27_17h46.29.174,vts_reward_expectancy_bt,2022.2.4,MacIntel,60.04202942,Chrome,1440,900,,,,,1,1405,,,,,,,,,,,,,,,,,F,132,hexagon,1,0,,,,,,,,,,,,,,,,switch,letter,lettSwt,d,0.7126,Lo,,,,,,6,,,,,,,,high,3,0,3,0,1,,,,,,,,,
295045,2022-11-27_17h46.29.174,vts_reward_expectancy_bt,2022.2.4,MacIntel,60.04202942,Chrome,1440,900,,,,,10,1415,,,,,,,,,,,,,,,,,D,146,star,1,0,,,,,,,,,,,,,,,,repeat,letter,lettRpt,d,0.5244,Lo,,,,,,6,,,,,,,,high,4,0,4,0,1,,,,,,,,,
295045,2022-11-27_17h46.29.174,vts_reward_expectancy_bt,2022.2.4,MacIntel,60.04202942,Chrome,1440,900,,,,,0,1415,,,,,,,,,,,,,,,,,H,160,circle,0,0,,,,,,,,,,,,,,,,repeat,letter,NA,f,0.2795,Lo,,,,,,6,,,,,,,,high,5,0,5,0,1,,,,,,,,,
295045,2022-11-27_17h46.29.174,vts_reward_expectancy_bt,2022.2.4,MacIntel,60.04202942,Chrome,1440,900,,,,,0,1415,,,,,,,,,,,,,,,,,W,139,triangle,0,1,,,,,,,,,,,,,,,,repeat,letter,NA,d,0.2248,Lo,,,,,,6,,,,,,,,high,6,0,6,0,1,,,,,,,,,
295045,2022-11-27_17h46.29.174,vts_reward_expectancy_bt,2022.2.4,MacIntel,60.04202942,Chrome,1440,900,,,,,1,1416,,,,,,,,,,,,,,,,,S,181,hexagon,1,1,,,,,,,,,,,,,,,,switch,number,numSwt,k,1.3946,Lo,,,,,,6,,,,,,,,high,7,0,7,0,1,,,,,,,,,
295045,2022-11-27_17h46.29.174,vts_reward_expectancy_bt,2022.2.4,MacIntel,60.04202942,Chrome,1440,900,,,,,0,1416,,,,,,,,,,,,,,,,,Y,125,circle,0,0,,,,,,,,,,,,,,,,repeat,number,NA,k,0.2493,Lo,,,,,,6,,,,,,,,high,8,0,8,0,1,,,,,,,,,
295045,2022-11-27_17h46.29.174,vts_reward_expectancy_bt,2022.2.4,MacIntel,60.04202942,Chrome,1440,900,,,,,0,1416,,,,,,,,,,,,,,,,,U,174,triangle,0,1,,,,,,,,,,,,,,,,repeat,number,NA,j,0.2261,Lo,,,,,,6,,,,,,,,high,9,0,9,0,1,,,,,,,,,
