participant,date,expName,psychopyVersion,OS,frameRate,browser,xResolution,yResolution,key_resp.keys,key_resp.rt,training_resp.keys,training_resp.rt,points_trial,points_cumul,trainBlock,training.thisRepN,training.thisTrialN,training.thisN,training.thisIndex,training.ran,LTriangleOpac,LCircleOpac,LHexagonOpac,LStarOpac,RTriangleOpac,RCircleOpac,RHexagonOpac,RStarOpac,LShape_ID,RShape_ID,curr_topStim,curr_bottStim,curr_shape,acc,E1,target_resp_prac1.keys,target_resp_prac1.rt,pracBlock,task1_prac_trials.thisRepN,task1_prac_trials.thisTrialN,task1_prac_trials.thisN,task1_prac_trials.thisIndex,task1_prac_trials.ran,target_resp_prac2.keys,target_resp_prac2.rt,task2_praac_trials.thisRepN,task2_praac_trials.thisTrialN,task2_praac_trials.thisN,task2_praac_trials.thisIndex,task2_praac_trials.ran,alt,task,condition,target_resp.keys,target_resp.rt,rewCond,vts_practice_trials.thisRepN,vts_practice_trials.thisTrialN,vts_practice_trials.thisN,vts_practice_trials.thisIndex,vts_practice_trials.ran,blockNum,trials_norew.thisRepN,trials_norew.thisTrialN,trials_norew.thisN,trials_norew.thisIndex,trials_norew.ran,key_resp_2.keys,key_resp_2.rt,rewExpectancy,trials_rew.thisRepN,trials_rew.thisTrialN,trials_rew.thisN,trials_rew.thisIndex,trials_rew.ran,Q1,Q2,Q2_text,Q3,Q4,Q5_text,Q5,xRes,yRes
295054,2022-12-05_12h07.04.794,vts_reward_expectancy_bt,2022.2.4,Win32,59.81934558,Chrome,1504,1003,,,,,,,,,,,,,,,,,,,,,,,,,,,,,,,,,,,,,,,,,,,,,,,,,,,,,,,,,,,,,,,,,,,,,,,,,,,,
295054,2022-12-05_12h07.04.794,vts_reward_expectancy_bt,2022.2.4,Win32,59.81934558,Chrome,1504,1003,space,17.298,,,,,,,,,,,,,,,,,,,,,,,,,,,,,,,,,,,,,,,,,,,,,,,,,,,,,,,,,,,,,,,,,,,,,,,,,,
295054,2022-12-05_12h07.04.794,vts_reward_expectancy_bt,2022.2.4,Win32,59.81934558,Chrome,1504,1003,,,,,,,,,,,,,,,,,,,,,,,,,,,,,,,,,,,,,,,,,,,,,,,,,,,,,,,,,,,,,,,,,,,,,,,,,,,,
295054,2022-12-05_12h07.04.794,vts_reward_expectancy_bt,2022.2.4,Win32,59.81934558,Chrome,1504,1003,,,a,1.1469,10,10,0,0,0,0,7,1,0,0,1,0,0,1,0,0,hexagon,circle,,,,,,,,,,,,,,,,,,,,,,,,,,,,,,,,,,,,,,,,,,,,,,,,,,,,,,
295054,2022-12-05_12h07.04.794,vts_reward_expectancy_bt,2022.2.4,Win32,59.81934558,Chrome,1504,1003,,,a,0.9641,1,11,0,0,1,1,9,1,0,0,0,1,1,0,0,0,star,triangle,,,,,,,,,,,,,,,,,,,,,,,,,,,,,,,,,,,,,,,,,,,,,,,,,,,,,,
295054,2022-12-05_12h07.04.794,vts_reward_expectancy_bt,2022.2.4,Win32,59.81934558,Chrome,1504,1003,,,a,1.2466,10,21,0,0,2,2,8,1,0,0,1,0,0,0,0,1,hexagon,star,,,,,,,,,,,,,,,,,,,,,,,,,,,,,,,,,,,,,,,,,,,,,,,,,,,,,,
295054,2022-12-05_12h07.04.794,vts_reward_expectancy_bt,2022.2.4,Win32,59.81934558,Chrome,1504,1003,,,l,0.602,10,31,0,0,3,3,11,1,0,0,0,1,0,0,1,0,star,hexagon,,,,,,,,,,,,,,,,,,,,,,,,,,,,,,,,,,,,,,,,,,,,,,,,,,,,,,
295054,2022-12-05_12h07.04.794,vts_reward_expectancy_bt,2022.2.4,Win32,59.81934558,Chrome,1504,1003,,,a,1.2608,10,41,0,0,4,4,5,1,0,1,0,0,0,0,0,1,circle,star,,,,,,,,,,,,,,,,,,,,,,,,,,,,,,,,,,,,,,,,,,,,,,,,,,,,,,
295054,2022-12-05_12h07.04.794,vts_reward_expectancy_bt,2022.2.4,Win32,59.81934558,Chrome,1504,1003,,,a,1.0063,10,51,0,0,5,5,6,1,0,0,1,0,1,0,0,0,hexagon,triangle,,,,,,,,,,,,,,,,,,,,,,,,,,,,,,,,,,,,,,,,,,,,,,,,,,,,,,
295054,2022-12-05_12h07.04.794,vts_reward_expectancy_bt,2022.2.4,Win32,59.81934558,Chrome,1504,1003,,,l,0.9951,10,61,0,0,6,6,0,1,1,0,0,0,0,1,0,0,triangle,circle,,,,,,,,,,,,,,,,,,,,,,,,,,,,,,,,,,,,,,,,,,,,,,,,,,,,,,
295054,2022-12-05_12h07.04.794,vts_reward_expectancy_bt,2022.2.4,Win32,59.81934558,Chrome,1504,1003,,,l,0.6671,1,62,0,0,7,7,10,1,0,0,0,1,0,1,0,0,star ,circle,,,,,,,,,,,,,,,,,,,,,,,,,,,,,,,,,,,,,,,,,,,,,,,,,,,,,,
295054,2022-12-05_12h07.04.794,vts_reward_expectancy_bt,2022.2.4,Win32,59.81934558,Chrome,1504,1003,,,a,1.0949,10,72,0,0,8,8,2,1,1,0,0,0,0,0,0,1,triangle,star,,,,,,,,,,,,,,,,,,,,,,,,,,,,,,,,,,,,,,,,,,,,,,,,,,,,,,
295054,2022-12-05_12h07.04.794,vts_reward_expectancy_bt,2022.2.4,Win32,59.81934558,Chrome,1504,1003,,,l,1.1103,1,73,0,0,9,9,4,1,0,1,0,0,0,0,1,0,circle,hexagon,,,,,,,,,,,,,,,,,,,,,,,,,,,,,,,,,,,,,,,,,,,,,,,,,,,,,,
295054,2022-12-05_12h07.04.794,vts_reward_expectancy_bt,2022.2.4,Win32,59.81934558,Chrome,1504,1003,,,a,0.7556,10,83,0,0,10,10,3,1,0,1,0,0,1,0,0,0,circle,triangle,,,,,,,,,,,,,,,,,,,,,,,,,,,,,,,,,,,,,,,,,,,,,,,,,,,,,,
295054,2022-12-05_12h07.04.794,vts_reward_expectancy_bt,2022.2.4,Win32,59.81934558,Chrome,1504,1003,,,l,0.9408,1,84,0,0,11,11,1,1,1,0,0,0,0,0,1,0,triangle,hexagon,,,,,,,,,,,,,,,,,,,,,,,,,,,,,,,,,,,,,,,,,,,,,,,,,,,,,,
295054,2022-12-05_12h07.04.794,vts_reward_expectancy_bt,2022.2.4,Win32,59.81934558,Chrome,1504,1003,,,l,0.7245,1,85,0,1,0,12,11,1,0,0,0,1,0,0,1,0,star,hexagon,,,,,,,,,,,,,,,,,,,,,,,,,,,,,,,,,,,,,,,,,,,,,,,,,,,,,,
295054,2022-12-05_12h07.04.794,vts_reward_expectancy_bt,2022.2.4,Win32,59.81934558,Chrome,1504,1003,,,l,0.8915,10,95,0,1,1,13,10,1,0,0,0,1,0,1,0,0,star ,circle,,,,,,,,,,,,,,,,,,,,,,,,,,,,,,,,,,,,,,,,,,,,,,,,,,,,,,
295054,2022-12-05_12h07.04.794,vts_reward_expectancy_bt,2022.2.4,Win32,59.81934558,Chrome,1504,1003,,,a,0.8267,1,96,0,1,2,14,6,1,0,0,1,0,1,0,0,0,hexagon,triangle,,,,,,,,,,,,,,,,,,,,,,,,,,,,,,,,,,,,,,,,,,,,,,,,,,,,,,
295054,2022-12-05_12h07.04.794,vts_reward_expectancy_bt,2022.2.4,Win32,59.81934558,Chrome,1504,1003,,,a,1.1935,1,97,0,1,3,15,0,1,1,0,0,0,0,1,0,0,triangle,circle,,,,,,,,,,,,,,,,,,,,,,,,,,,,,,,,,,,,,,,,,,,,,,,,,,,,,,
295054,2022-12-05_12h07.04.794,vts_reward_expectancy_bt,2022.2.4,Win32,59.81934558,Chrome,1504,1003,,,l,0.7924,10,107,0,1,4,16,7,1,0,0,1,0,0,1,0,0,hexagon,circle,,,,,,,,,,,,,,,,,,,,,,,,,,,,,,,,,,,,,,,,,,,,,,,,,,,,,,
295054,2022-12-05_12h07.04.794,vts_reward_expectancy_bt,2022.2.4,Win32,59.81934558,Chrome,1504,1003,,,a,0.6565,10,117,0,1,5,17,5,1,0,1,0,0,0,0,0,1,circle,star,,,,,,,,,,,,,,,,,,,,,,,,,,,,,,,,,,,,,,,,,,,,,,,,,,,,,,
295054,2022-12-05_12h07.04.794,vts_reward_expectancy_bt,2022.2.4,Win32,59.81934558,Chrome,1504,1003,,,l,0.5862,10,127,0,1,6,18,9,1,0,0,0,1,1,0,0,0,star,triangle,,,,,,,,,,,,,,,,,,,,,,,,,,,,,,,,,,,,,,,,,,,,,,,,,,,,,,
295054,2022-12-05_12h07.04.794,vts_reward_expectancy_bt,2022.2.4,Win32,59.81934558,Chrome,1504,1003,,,a,0.6224,10,137,0,1,7,19,2,1,1,0,0,0,0,0,0,1,triangle,star,,,,,,,,,,,,,,,,,,,,,,,,,,,,,,,,,,,,,,,,,,,,,,,,,,,,,,
295054,2022-12-05_12h07.04.794,vts_reward_expectancy_bt,2022.2.4,Win32,59.81934558,Chrome,1504,1003,,,a,0.547,1,138,0,1,8,20,8,1,0,0,1,0,0,0,0,1,hexagon,star,,,,,,,,,,,,,,,,,,,,,,,,,,,,,,,,,,,,,,,,,,,,,,,,,,,,,,
295054,2022-12-05_12h07.04.794,vts_reward_expectancy_bt,2022.2.4,Win32,59.81934558,Chrome,1504,1003,,,a,1.24,1,139,0,1,9,21,1,1,1,0,0,0,0,0,1,0,triangle,hexagon,,,,,,,,,,,,,,,,,,,,,,,,,,,,,,,,,,,,,,,,,,,,,,,,,,,,,,
295054,2022-12-05_12h07.04.794,vts_reward_expectancy_bt,2022.2.4,Win32,59.81934558,Chrome,1504,1003,,,a,0.7186,10,149,0,1,10,22,3,1,0,1,0,0,1,0,0,0,circle,triangle,,,,,,,,,,,,,,,,,,,,,,,,,,,,,,,,,,,,,,,,,,,,,,,,,,,,,,
295054,2022-12-05_12h07.04.794,vts_reward_expectancy_bt,2022.2.4,Win32,59.81934558,Chrome,1504,1003,,,l,0.7678,1,150,0,1,11,23,4,1,0,1,0,0,0,0,1,0,circle,hexagon,,,,,,,,,,,,,,,,,,,,,,,,,,,,,,,,,,,,,,,,,,,,,,,,,,,,,,
295054,2022-12-05_12h07.04.794,vts_reward_expectancy_bt,2022.2.4,Win32,59.81934558,Chrome,1504,1003,,,l,0.7501,10,160,0,2,0,24,10,1,0,0,0,1,0,1,0,0,star ,circle,,,,,,,,,,,,,,,,,,,,,,,,,,,,,,,,,,,,,,,,,,,,,,,,,,,,,,
295054,2022-12-05_12h07.04.794,vts_reward_expectancy_bt,2022.2.4,Win32,59.81934558,Chrome,1504,1003,,,l,0.4723,1,161,0,2,1,25,0,1,1,0,0,0,0,1,0,0,triangle,circle,,,,,,,,,,,,,,,,,,,,,,,,,,,,,,,,,,,,,,,,,,,,,,,,,,,,,,
295054,2022-12-05_12h07.04.794,vts_reward_expectancy_bt,2022.2.4,Win32,59.81934558,Chrome,1504,1003,,,a,0.475,10,171,0,2,2,26,3,1,0,1,0,0,1,0,0,0,circle,triangle,,,,,,,,,,,,,,,,,,,,,,,,,,,,,,,,,,,,,,,,,,,,,,,,,,,,,,
295054,2022-12-05_12h07.04.794,vts_reward_expectancy_bt,2022.2.4,Win32,59.81934558,Chrome,1504,1003,,,a,0.6068,10,181,0,2,3,27,8,1,0,0,1,0,0,0,0,1,hexagon,star,,,,,,,,,,,,,,,,,,,,,,,,,,,,,,,,,,,,,,,,,,,,,,,,,,,,,,
295054,2022-12-05_12h07.04.794,vts_reward_expectancy_bt,2022.2.4,Win32,59.81934558,Chrome,1504,1003,,,l,1.629,10,191,0,2,4,28,2,1,1,0,0,0,0,0,0,1,triangle,star,,,,,,,,,,,,,,,,,,,,,,,,,,,,,,,,,,,,,,,,,,,,,,,,,,,,,,
295054,2022-12-05_12h07.04.794,vts_reward_expectancy_bt,2022.2.4,Win32,59.81934558,Chrome,1504,1003,,,l,1.0378,1,192,0,2,5,29,11,1,0,0,0,1,0,0,1,0,star,hexagon,,,,,,,,,,,,,,,,,,,,,,,,,,,,,,,,,,,,,,,,,,,,,,,,,,,,,,
295054,2022-12-05_12h07.04.794,vts_reward_expectancy_bt,2022.2.4,Win32,59.81934558,Chrome,1504,1003,,,a,0.6771,10,202,0,2,6,30,4,1,0,1,0,0,0,0,1,0,circle,hexagon,,,,,,,,,,,,,,,,,,,,,,,,,,,,,,,,,,,,,,,,,,,,,,,,,,,,,,
295054,2022-12-05_12h07.04.794,vts_reward_expectancy_bt,2022.2.4,Win32,59.81934558,Chrome,1504,1003,,,l,0.6357,1,203,0,2,7,31,7,1,0,0,1,0,0,1,0,0,hexagon,circle,,,,,,,,,,,,,,,,,,,,,,,,,,,,,,,,,,,,,,,,,,,,,,,,,,,,,,
295054,2022-12-05_12h07.04.794,vts_reward_expectancy_bt,2022.2.4,Win32,59.81934558,Chrome,1504,1003,,,a,0.8707,10,213,0,2,8,32,1,1,1,0,0,0,0,0,1,0,triangle,hexagon,,,,,,,,,,,,,,,,,,,,,,,,,,,,,,,,,,,,,,,,,,,,,,,,,,,,,,
295054,2022-12-05_12h07.04.794,vts_reward_expectancy_bt,2022.2.4,Win32,59.81934558,Chrome,1504,1003,,,l,1.1685,1,214,0,2,9,33,9,1,0,0,0,1,1,0,0,0,star,triangle,,,,,,,,,,,,,,,,,,,,,,,,,,,,,,,,,,,,,,,,,,,,,,,,,,,,,,
295054,2022-12-05_12h07.04.794,vts_reward_expectancy_bt,2022.2.4,Win32,59.81934558,Chrome,1504,1003,,,a,0.9247,1,215,0,2,10,34,6,1,0,0,1,0,1,0,0,0,hexagon,triangle,,,,,,,,,,,,,,,,,,,,,,,,,,,,,,,,,,,,,,,,,,,,,,,,,,,,,,
295054,2022-12-05_12h07.04.794,vts_reward_expectancy_bt,2022.2.4,Win32,59.81934558,Chrome,1504,1003,,,a,0.8909,10,225,0,2,11,35,5,1,0,1,0,0,0,0,0,1,circle,star,,,,,,,,,,,,,,,,,,,,,,,,,,,,,,,,,,,,,,,,,,,,,,,,,,,,,,
295054,2022-12-05_12h07.04.794,vts_reward_expectancy_bt,2022.2.4,Win32,59.81934558,Chrome,1504,1003,,,a,0.858,1,226,1,0,0,0,3,1,0,1,0,0,1,0,0,0,circle,triangle,,,,,,,,,,,,,,,,,,,,,,,,,,,,,,,,,,,,,,,,,,,,,,,,,,,,,,
295054,2022-12-05_12h07.04.794,vts_reward_expectancy_bt,2022.2.4,Win32,59.81934558,Chrome,1504,1003,,,l,1.5573,1,227,1,0,1,1,6,1,0,0,1,0,1,0,0,0,hexagon,triangle,,,,,,,,,,,,,,,,,,,,,,,,,,,,,,,,,,,,,,,,,,,,,,,,,,,,,,
295054,2022-12-05_12h07.04.794,vts_reward_expectancy_bt,2022.2.4,Win32,59.81934558,Chrome,1504,1003,,,a,1.0616,10,237,1,0,2,2,4,1,0,1,0,0,0,0,1,0,circle,hexagon,,,,,,,,,,,,,,,,,,,,,,,,,,,,,,,,,,,,,,,,,,,,,,,,,,,,,,
295054,2022-12-05_12h07.04.794,vts_reward_expectancy_bt,2022.2.4,Win32,59.81934558,Chrome,1504,1003,,,l,1.4022,10,247,1,0,3,3,10,1,0,0,0,1,0,1,0,0,star ,circle,,,,,,,,,,,,,,,,,,,,,,,,,,,,,,,,,,,,,,,,,,,,,,,,,,,,,,
295054,2022-12-05_12h07.04.794,vts_reward_expectancy_bt,2022.2.4,Win32,59.81934558,Chrome,1504,1003,,,l,1.6035,1,248,1,0,4,4,7,1,0,0,1,0,0,1,0,0,hexagon,circle,,,,,,,,,,,,,,,,,,,,,,,,,,,,,,,,,,,,,,,,,,,,,,,,,,,,,,
295054,2022-12-05_12h07.04.794,vts_reward_expectancy_bt,2022.2.4,Win32,59.81934558,Chrome,1504,1003,,,a,1.3554,10,258,1,0,5,5,0,1,1,0,0,0,0,1,0,0,triangle,circle,,,,,,,,,,,,,,,,,,,,,,,,,,,,,,,,,,,,,,,,,,,,,,,,,,,,,,
295054,2022-12-05_12h07.04.794,vts_reward_expectancy_bt,2022.2.4,Win32,59.81934558,Chrome,1504,1003,,,l,1.1017,1,259,1,0,6,6,11,1,0,0,0,1,0,0,1,0,star,hexagon,,,,,,,,,,,,,,,,,,,,,,,,,,,,,,,,,,,,,,,,,,,,,,,,,,,,,,
295054,2022-12-05_12h07.04.794,vts_reward_expectancy_bt,2022.2.4,Win32,59.81934558,Chrome,1504,1003,,,a,0.9302,10,269,1,0,7,7,2,1,1,0,0,0,0,0,0,1,triangle,star,,,,,,,,,,,,,,,,,,,,,,,,,,,,,,,,,,,,,,,,,,,,,,,,,,,,,,
295054,2022-12-05_12h07.04.794,vts_reward_expectancy_bt,2022.2.4,Win32,59.81934558,Chrome,1504,1003,,,a,1.3378,10,279,1,0,8,8,1,1,1,0,0,0,0,0,1,0,triangle,hexagon,,,,,,,,,,,,,,,,,,,,,,,,,,,,,,,,,,,,,,,,,,,,,,,,,,,,,,
295054,2022-12-05_12h07.04.794,vts_reward_expectancy_bt,2022.2.4,Win32,59.81934558,Chrome,1504,1003,,,l,1.1507,1,280,1,0,9,9,9,1,0,0,0,1,1,0,0,0,star,triangle,,,,,,,,,,,,,,,,,,,,,,,,,,,,,,,,,,,,,,,,,,,,,,,,,,,,,,
295054,2022-12-05_12h07.04.794,vts_reward_expectancy_bt,2022.2.4,Win32,59.81934558,Chrome,1504,1003,,,a,0.8463,10,290,1,0,10,10,5,1,0,1,0,0,0,0,0,1,circle,star,,,,,,,,,,,,,,,,,,,,,,,,,,,,,,,,,,,,,,,,,,,,,,,,,,,,,,
295054,2022-12-05_12h07.04.794,vts_reward_expectancy_bt,2022.2.4,Win32,59.81934558,Chrome,1504,1003,,,a,1.2359,10,300,1,0,11,11,8,1,0,0,1,0,0,0,0,1,hexagon,star,,,,,,,,,,,,,,,,,,,,,,,,,,,,,,,,,,,,,,,,,,,,,,,,,,,,,,
295054,2022-12-05_12h07.04.794,vts_reward_expectancy_bt,2022.2.4,Win32,59.81934558,Chrome,1504,1003,,,l,1.3537,10,310,1,1,0,12,4,1,0,1,0,0,0,0,1,0,circle,hexagon,,,,,,,,,,,,,,,,,,,,,,,,,,,,,,,,,,,,,,,,,,,,,,,,,,,,,,
295054,2022-12-05_12h07.04.794,vts_reward_expectancy_bt,2022.2.4,Win32,59.81934558,Chrome,1504,1003,,,a,1.1582,1,311,1,1,1,13,7,1,0,0,1,0,0,1,0,0,hexagon,circle,,,,,,,,,,,,,,,,,,,,,,,,,,,,,,,,,,,,,,,,,,,,,,,,,,,,,,
295054,2022-12-05_12h07.04.794,vts_reward_expectancy_bt,2022.2.4,Win32,59.81934558,Chrome,1504,1003,,,a,1.3075,1,312,1,1,2,14,2,1,1,0,0,0,0,0,0,1,triangle,star,,,,,,,,,,,,,,,,,,,,,,,,,,,,,,,,,,,,,,,,,,,,,,,,,,,,,,
295054,2022-12-05_12h07.04.794,vts_reward_expectancy_bt,2022.2.4,Win32,59.81934558,Chrome,1504,1003,,,l,1.2054,10,322,1,1,3,15,10,1,0,0,0,1,0,1,0,0,star ,circle,,,,,,,,,,,,,,,,,,,,,,,,,,,,,,,,,,,,,,,,,,,,,,,,,,,,,,
295054,2022-12-05_12h07.04.794,vts_reward_expectancy_bt,2022.2.4,Win32,59.81934558,Chrome,1504,1003,,,a,1.2509,1,323,1,1,4,16,8,1,0,0,1,0,0,0,0,1,hexagon,star,,,,,,,,,,,,,,,,,,,,,,,,,,,,,,,,,,,,,,,,,,,,,,,,,,,,,,
295054,2022-12-05_12h07.04.794,vts_reward_expectancy_bt,2022.2.4,Win32,59.81934558,Chrome,1504,1003,,,a,0.7902,10,333,1,1,5,17,5,1,0,1,0,0,0,0,0,1,circle,star,,,,,,,,,,,,,,,,,,,,,,,,,,,,,,,,,,,,,,,,,,,,,,,,,,,,,,
295054,2022-12-05_12h07.04.794,vts_reward_expectancy_bt,2022.2.4,Win32,59.81934558,Chrome,1504,1003,,,l,1.4349,1,334,1,1,6,18,6,1,0,0,1,0,1,0,0,0,hexagon,triangle,,,,,,,,,,,,,,,,,,,,,,,,,,,,,,,,,,,,,,,,,,,,,,,,,,,,,,
295054,2022-12-05_12h07.04.794,vts_reward_expectancy_bt,2022.2.4,Win32,59.81934558,Chrome,1504,1003,,,a,2.8974,1,335,1,1,7,19,3,1,0,1,0,0,1,0,0,0,circle,triangle,,,,,,,,,,,,,,,,,,,,,,,,,,,,,,,,,,,,,,,,,,,,,,,,,,,,,,
295054,2022-12-05_12h07.04.794,vts_reward_expectancy_bt,2022.2.4,Win32,59.81934558,Chrome,1504,1003,,,l,1.1132,1,336,1,1,8,20,11,1,0,0,0,1,0,0,1,0,star,hexagon,,,,,,,,,,,,,,,,,,,,,,,,,,,,,,,,,,,,,,,,,,,,,,,,,,,,,,
295054,2022-12-05_12h07.04.794,vts_reward_expectancy_bt,2022.2.4,Win32,59.81934558,Chrome,1504,1003,,,a,1.7019,1,337,1,1,9,21,0,1,1,0,0,0,0,1,0,0,triangle,circle,,,,,,,,,,,,,,,,,,,,,,,,,,,,,,,,,,,,,,,,,,,,,,,,,,,,,,
295054,2022-12-05_12h07.04.794,vts_reward_expectancy_bt,2022.2.4,Win32,59.81934558,Chrome,1504,1003,,,l,1.2472,10,347,1,1,10,22,1,1,1,0,0,0,0,0,1,0,triangle,hexagon,,,,,,,,,,,,,,,,,,,,,,,,,,,,,,,,,,,,,,,,,,,,,,,,,,,,,,
295054,2022-12-05_12h07.04.794,vts_reward_expectancy_bt,2022.2.4,Win32,59.81934558,Chrome,1504,1003,,,l,1.1384,1,348,1,1,11,23,9,1,0,0,0,1,1,0,0,0,star,triangle,,,,,,,,,,,,,,,,,,,,,,,,,,,,,,,,,,,,,,,,,,,,,,,,,,,,,,
295054,2022-12-05_12h07.04.794,vts_reward_expectancy_bt,2022.2.4,Win32,59.81934558,Chrome,1504,1003,,,l,0.8677,1,349,1,2,0,24,3,1,0,1,0,0,1,0,0,0,circle,triangle,,,,,,,,,,,,,,,,,,,,,,,,,,,,,,,,,,,,,,,,,,,,,,,,,,,,,,
295054,2022-12-05_12h07.04.794,vts_reward_expectancy_bt,2022.2.4,Win32,59.81934558,Chrome,1504,1003,,,l,0.7089,1,350,1,2,1,25,11,1,0,0,0,1,0,0,1,0,star,hexagon,,,,,,,,,,,,,,,,,,,,,,,,,,,,,,,,,,,,,,,,,,,,,,,,,,,,,,
295054,2022-12-05_12h07.04.794,vts_reward_expectancy_bt,2022.2.4,Win32,59.81934558,Chrome,1504,1003,,,a,0.6285,1,351,1,2,2,26,8,1,0,0,1,0,0,0,0,1,hexagon,star,,,,,,,,,,,,,,,,,,,,,,,,,,,,,,,,,,,,,,,,,,,,,,,,,,,,,,
295054,2022-12-05_12h07.04.794,vts_reward_expectancy_bt,2022.2.4,Win32,59.81934558,Chrome,1504,1003,,,a,0.7719,1,352,1,2,3,27,10,1,0,0,0,1,0,1,0,0,star ,circle,,,,,,,,,,,,,,,,,,,,,,,,,,,,,,,,,,,,,,,,,,,,,,,,,,,,,,
295054,2022-12-05_12h07.04.794,vts_reward_expectancy_bt,2022.2.4,Win32,59.81934558,Chrome,1504,1003,,,l,0.906,10,362,1,2,4,28,0,1,1,0,0,0,0,1,0,0,triangle,circle,,,,,,,,,,,,,,,,,,,,,,,,,,,,,,,,,,,,,,,,,,,,,,,,,,,,,,
295054,2022-12-05_12h07.04.794,vts_reward_expectancy_bt,2022.2.4,Win32,59.81934558,Chrome,1504,1003,,,l,1.2345,10,372,1,2,5,29,7,1,0,0,1,0,0,1,0,0,hexagon,circle,,,,,,,,,,,,,,,,,,,,,,,,,,,,,,,,,,,,,,,,,,,,,,,,,,,,,,
295054,2022-12-05_12h07.04.794,vts_reward_expectancy_bt,2022.2.4,Win32,59.81934558,Chrome,1504,1003,,,l,1.4175,1,373,1,2,6,30,1,1,1,0,0,0,0,0,1,0,triangle,hexagon,,,,,,,,,,,,,,,,,,,,,,,,,,,,,,,,,,,,,,,,,,,,,,,,,,,,,,
295054,2022-12-05_12h07.04.794,vts_reward_expectancy_bt,2022.2.4,Win32,59.81934558,Chrome,1504,1003,,,l,1.5305,1,374,1,2,7,31,9,1,0,0,0,1,1,0,0,0,star,triangle,,,,,,,,,,,,,,,,,,,,,,,,,,,,,,,,,,,,,,,,,,,,,,,,,,,,,,
295054,2022-12-05_12h07.04.794,vts_reward_expectancy_bt,2022.2.4,Win32,59.81934558,Chrome,1504,1003,,,a,0.9046,1,375,1,2,8,32,5,1,0,1,0,0,0,0,0,1,circle,star,,,,,,,,,,,,,,,,,,,,,,,,,,,,,,,,,,,,,,,,,,,,,,,,,,,,,,
295054,2022-12-05_12h07.04.794,vts_reward_expectancy_bt,2022.2.4,Win32,59.81934558,Chrome,1504,1003,,,l,0.8805,10,385,1,2,9,33,2,1,1,0,0,0,0,0,0,1,triangle,star,,,,,,,,,,,,,,,,,,,,,,,,,,,,,,,,,,,,,,,,,,,,,,,,,,,,,,
295054,2022-12-05_12h07.04.794,vts_reward_expectancy_bt,2022.2.4,Win32,59.81934558,Chrome,1504,1003,,,l,1.5549,1,386,1,2,10,34,4,1,0,1,0,0,0,0,1,0,circle,hexagon,,,,,,,,,,,,,,,,,,,,,,,,,,,,,,,,,,,,,,,,,,,,,,,,,,,,,,
295054,2022-12-05_12h07.04.794,vts_reward_expectancy_bt,2022.2.4,Win32,59.81934558,Chrome,1504,1003,,,l,1.4205,1,387,1,2,11,35,6,1,0,0,1,0,1,0,0,0,hexagon,triangle,,,,,,,,,,,,,,,,,,,,,,,,,,,,,,,,,,,,,,,,,,,,,,,,,,,,,,
295054,2022-12-05_12h07.04.794,vts_reward_expectancy_bt,2022.2.4,Win32,59.81934558,Chrome,1504,1003,,,l,1.4017,10,397,2,0,0,0,7,1,0,0,1,0,0,1,0,0,hexagon,circle,,,,,,,,,,,,,,,,,,,,,,,,,,,,,,,,,,,,,,,,,,,,,,,,,,,,,,
295054,2022-12-05_12h07.04.794,vts_reward_expectancy_bt,2022.2.4,Win32,59.81934558,Chrome,1504,1003,,,a,1.575,10,407,2,0,1,1,6,1,0,0,1,0,1,0,0,0,hexagon,triangle,,,,,,,,,,,,,,,,,,,,,,,,,,,,,,,,,,,,,,,,,,,,,,,,,,,,,,
295054,2022-12-05_12h07.04.794,vts_reward_expectancy_bt,2022.2.4,Win32,59.81934558,Chrome,1504,1003,,,l,0.9903,1,408,2,0,2,2,5,1,0,1,0,0,0,0,0,1,circle,star,,,,,,,,,,,,,,,,,,,,,,,,,,,,,,,,,,,,,,,,,,,,,,,,,,,,,,
295054,2022-12-05_12h07.04.794,vts_reward_expectancy_bt,2022.2.4,Win32,59.81934558,Chrome,1504,1003,,,l,0.9302,10,418,2,0,3,3,8,1,0,0,1,0,0,0,0,1,hexagon,star,,,,,,,,,,,,,,,,,,,,,,,,,,,,,,,,,,,,,,,,,,,,,,,,,,,,,,
295054,2022-12-05_12h07.04.794,vts_reward_expectancy_bt,2022.2.4,Win32,59.81934558,Chrome,1504,1003,,,l,1.9441,10,428,2,0,4,4,10,1,0,0,0,1,0,1,0,0,star ,circle,,,,,,,,,,,,,,,,,,,,,,,,,,,,,,,,,,,,,,,,,,,,,,,,,,,,,,
295054,2022-12-05_12h07.04.794,vts_reward_expectancy_bt,2022.2.4,Win32,59.81934558,Chrome,1504,1003,,,l,1.4705,10,438,2,0,5,5,1,1,1,0,0,0,0,0,1,0,triangle,hexagon,,,,,,,,,,,,,,,,,,,,,,,,,,,,,,,,,,,,,,,,,,,,,,,,,,,,,,
295054,2022-12-05_12h07.04.794,vts_reward_expectancy_bt,2022.2.4,Win32,59.81934558,Chrome,1504,1003,,,a,1.3501,10,448,2,0,6,6,11,1,0,0,0,1,0,0,1,0,star,hexagon,,,,,,,,,,,,,,,,,,,,,,,,,,,,,,,,,,,,,,,,,,,,,,,,,,,,,,
295054,2022-12-05_12h07.04.794,vts_reward_expectancy_bt,2022.2.4,Win32,59.81934558,Chrome,1504,1003,,,l,1.1414,1,449,2,0,7,7,2,1,1,0,0,0,0,0,0,1,triangle,star,,,,,,,,,,,,,,,,,,,,,,,,,,,,,,,,,,,,,,,,,,,,,,,,,,,,,,
295054,2022-12-05_12h07.04.794,vts_reward_expectancy_bt,2022.2.4,Win32,59.81934558,Chrome,1504,1003,,,a,2.2176,10,459,2,0,8,8,4,1,0,1,0,0,0,0,1,0,circle,hexagon,,,,,,,,,,,,,,,,,,,,,,,,,,,,,,,,,,,,,,,,,,,,,,,,,,,,,,
295054,2022-12-05_12h07.04.794,vts_reward_expectancy_bt,2022.2.4,Win32,59.81934558,Chrome,1504,1003,,,l,1.9824,10,469,2,0,9,9,9,1,0,0,0,1,1,0,0,0,star,triangle,,,,,,,,,,,,,,,,,,,,,,,,,,,,,,,,,,,,,,,,,,,,,,,,,,,,,,
295054,2022-12-05_12h07.04.794,vts_reward_expectancy_bt,2022.2.4,Win32,59.81934558,Chrome,1504,1003,,,a,1.9553,1,470,2,0,10,10,0,1,1,0,0,0,0,1,0,0,triangle,circle,,,,,,,,,,,,,,,,,,,,,,,,,,,,,,,,,,,,,,,,,,,,,,,,,,,,,,
295054,2022-12-05_12h07.04.794,vts_reward_expectancy_bt,2022.2.4,Win32,59.81934558,Chrome,1504,1003,,,a,0.8139,10,480,2,0,11,11,3,1,0,1,0,0,1,0,0,0,circle,triangle,,,,,,,,,,,,,,,,,,,,,,,,,,,,,,,,,,,,,,,,,,,,,,,,,,,,,,
295054,2022-12-05_12h07.04.794,vts_reward_expectancy_bt,2022.2.4,Win32,59.81934558,Chrome,1504,1003,,,l,0.772,1,481,2,1,0,12,0,1,1,0,0,0,0,1,0,0,triangle,circle,,,,,,,,,,,,,,,,,,,,,,,,,,,,,,,,,,,,,,,,,,,,,,,,,,,,,,
295054,2022-12-05_12h07.04.794,vts_reward_expectancy_bt,2022.2.4,Win32,59.81934558,Chrome,1504,1003,,,a,1.768,1,482,2,1,1,13,11,1,0,0,0,1,0,0,1,0,star,hexagon,,,,,,,,,,,,,,,,,,,,,,,,,,,,,,,,,,,,,,,,,,,,,,,,,,,,,,
295054,2022-12-05_12h07.04.794,vts_reward_expectancy_bt,2022.2.4,Win32,59.81934558,Chrome,1504,1003,,,a,1.2883,1,483,2,1,2,14,4,1,0,1,0,0,0,0,1,0,circle,hexagon,,,,,,,,,,,,,,,,,,,,,,,,,,,,,,,,,,,,,,,,,,,,,,,,,,,,,,
295054,2022-12-05_12h07.04.794,vts_reward_expectancy_bt,2022.2.4,Win32,59.81934558,Chrome,1504,1003,,,a,1.2814,1,484,2,1,3,15,6,1,0,0,1,0,1,0,0,0,hexagon,triangle,,,,,,,,,,,,,,,,,,,,,,,,,,,,,,,,,,,,,,,,,,,,,,,,,,,,,,
295054,2022-12-05_12h07.04.794,vts_reward_expectancy_bt,2022.2.4,Win32,59.81934558,Chrome,1504,1003,,,a,0.5918,1,485,2,1,4,16,2,1,1,0,0,0,0,0,0,1,triangle,star,,,,,,,,,,,,,,,,,,,,,,,,,,,,,,,,,,,,,,,,,,,,,,,,,,,,,,
295054,2022-12-05_12h07.04.794,vts_reward_expectancy_bt,2022.2.4,Win32,59.81934558,Chrome,1504,1003,,,l,1.2048,1,486,2,1,5,17,5,1,0,1,0,0,0,0,0,1,circle,star,,,,,,,,,,,,,,,,,,,,,,,,,,,,,,,,,,,,,,,,,,,,,,,,,,,,,,
295054,2022-12-05_12h07.04.794,vts_reward_expectancy_bt,2022.2.4,Win32,59.81934558,Chrome,1504,1003,,,a,0.9791,10,496,2,1,6,18,9,1,0,0,0,1,1,0,0,0,star,triangle,,,,,,,,,,,,,,,,,,,,,,,,,,,,,,,,,,,,,,,,,,,,,,,,,,,,,,
295054,2022-12-05_12h07.04.794,vts_reward_expectancy_bt,2022.2.4,Win32,59.81934558,Chrome,1504,1003,,,l,1.0485,1,497,2,1,7,19,7,1,0,0,1,0,0,1,0,0,hexagon,circle,,,,,,,,,,,,,,,,,,,,,,,,,,,,,,,,,,,,,,,,,,,,,,,,,,,,,,
295054,2022-12-05_12h07.04.794,vts_reward_expectancy_bt,2022.2.4,Win32,59.81934558,Chrome,1504,1003,,,a,2.4013,10,507,2,1,8,20,1,1,1,0,0,0,0,0,1,0,triangle,hexagon,,,,,,,,,,,,,,,,,,,,,,,,,,,,,,,,,,,,,,,,,,,,,,,,,,,,,,
295054,2022-12-05_12h07.04.794,vts_reward_expectancy_bt,2022.2.4,Win32,59.81934558,Chrome,1504,1003,,,l,1.5649,10,517,2,1,9,21,10,1,0,0,0,1,0,1,0,0,star ,circle,,,,,,,,,,,,,,,,,,,,,,,,,,,,,,,,,,,,,,,,,,,,,,,,,,,,,,
295054,2022-12-05_12h07.04.794,vts_reward_expectancy_bt,2022.2.4,Win32,59.81934558,Chrome,1504,1003,,,a,1.0386,1,518,2,1,10,22,3,1,0,1,0,0,1,0,0,0,circle,triangle,,,,,,,,,,,,,,,,,,,,,,,,,,,,,,,,,,,,,,,,,,,,,,,,,,,,,,
295054,2022-12-05_12h07.04.794,vts_reward_expectancy_bt,2022.2.4,Win32,59.81934558,Chrome,1504,1003,,,l,1.2728,10,528,2,1,11,23,8,1,0,0,1,0,0,0,0,1,hexagon,star,,,,,,,,,,,,,,,,,,,,,,,,,,,,,,,,,,,,,,,,,,,,,,,,,,,,,,
295054,2022-12-05_12h07.04.794,vts_reward_expectancy_bt,2022.2.4,Win32,59.81934558,Chrome,1504,1003,,,a,1.3493,10,538,2,2,0,24,0,1,1,0,0,0,0,1,0,0,triangle,circle,,,,,,,,,,,,,,,,,,,,,,,,,,,,,,,,,,,,,,,,,,,,,,,,,,,,,,
295054,2022-12-05_12h07.04.794,vts_reward_expectancy_bt,2022.2.4,Win32,59.81934558,Chrome,1504,1003,,,l,1.4684,1,539,2,2,1,25,8,1,0,0,1,0,0,0,0,1,hexagon,star,,,,,,,,,,,,,,,,,,,,,,,,,,,,,,,,,,,,,,,,,,,,,,,,,,,,,,
295054,2022-12-05_12h07.04.794,vts_reward_expectancy_bt,2022.2.4,Win32,59.81934558,Chrome,1504,1003,,,l,1.4,10,549,2,2,2,26,5,1,0,1,0,0,0,0,0,1,circle,star,,,,,,,,,,,,,,,,,,,,,,,,,,,,,,,,,,,,,,,,,,,,,,,,,,,,,,
295054,2022-12-05_12h07.04.794,vts_reward_expectancy_bt,2022.2.4,Win32,59.81934558,Chrome,1504,1003,,,l,1.4959,10,559,2,2,3,27,10,1,0,0,0,1,0,1,0,0,star ,circle,,,,,,,,,,,,,,,,,,,,,,,,,,,,,,,,,,,,,,,,,,,,,,,,,,,,,,
295054,2022-12-05_12h07.04.794,vts_reward_expectancy_bt,2022.2.4,Win32,59.81934558,Chrome,1504,1003,,,l,1.9102,1,560,2,2,4,28,9,1,0,0,0,1,1,0,0,0,star,triangle,,,,,,,,,,,,,,,,,,,,,,,,,,,,,,,,,,,,,,,,,,,,,,,,,,,,,,
295054,2022-12-05_12h07.04.794,vts_reward_expectancy_bt,2022.2.4,Win32,59.81934558,Chrome,1504,1003,,,l,1.0968,10,570,2,2,5,29,7,1,0,0,1,0,0,1,0,0,hexagon,circle,,,,,,,,,,,,,,,,,,,,,,,,,,,,,,,,,,,,,,,,,,,,,,,,,,,,,,
295054,2022-12-05_12h07.04.794,vts_reward_expectancy_bt,2022.2.4,Win32,59.81934558,Chrome,1504,1003,,,a,1.9801,10,580,2,2,6,30,3,1,0,1,0,0,1,0,0,0,circle,triangle,,,,,,,,,,,,,,,,,,,,,,,,,,,,,,,,,,,,,,,,,,,,,,,,,,,,,,
295054,2022-12-05_12h07.04.794,vts_reward_expectancy_bt,2022.2.4,Win32,59.81934558,Chrome,1504,1003,,,a,1.2098,1,581,2,2,7,31,4,1,0,1,0,0,0,0,1,0,circle,hexagon,,,,,,,,,,,,,,,,,,,,,,,,,,,,,,,,,,,,,,,,,,,,,,,,,,,,,,
295054,2022-12-05_12h07.04.794,vts_reward_expectancy_bt,2022.2.4,Win32,59.81934558,Chrome,1504,1003,,,a,1.5635,1,582,2,2,8,32,1,1,1,0,0,0,0,0,1,0,triangle,hexagon,,,,,,,,,,,,,,,,,,,,,,,,,,,,,,,,,,,,,,,,,,,,,,,,,,,,,,
295054,2022-12-05_12h07.04.794,vts_reward_expectancy_bt,2022.2.4,Win32,59.81934558,Chrome,1504,1003,,,a,1.9691,1,583,2,2,9,33,2,1,1,0,0,0,0,0,0,1,triangle,star,,,,,,,,,,,,,,,,,,,,,,,,,,,,,,,,,,,,,,,,,,,,,,,,,,,,,,
295054,2022-12-05_12h07.04.794,vts_reward_expectancy_bt,2022.2.4,Win32,59.81934558,Chrome,1504,1003,,,l,0.8948,10,593,2,2,10,34,11,1,0,0,0,1,0,0,1,0,star,hexagon,,,,,,,,,,,,,,,,,,,,,,,,,,,,,,,,,,,,,,,,,,,,,,,,,,,,,,
295054,2022-12-05_12h07.04.794,vts_reward_expectancy_bt,2022.2.4,Win32,59.81934558,Chrome,1504,1003,,,l,2.2751,10,603,2,2,11,35,6,1,0,0,1,0,1,0,0,0,hexagon,triangle,,,,,,,,,,,,,,,,,,,,,,,,,,,,,,,,,,,,,,,,,,,,,,,,,,,,,,
295054,2022-12-05_12h07.04.794,vts_reward_expectancy_bt,2022.2.4,Win32,59.81934558,Chrome,1504,1003,,,,,,,,,,,,,,,,,,,,,,,132,U,circle,1,0,d,2.0068,0,0,0,0,0,1,,,,,,,,,,,,,,,,,,,,,,,,,,,,,,,,,,,,,,,,,
295054,2022-12-05_12h07.04.794,vts_reward_expectancy_bt,2022.2.4,Win32,59.81934558,Chrome,1504,1003,,,,,,,,,,,,,,,,,,,,,,,146,W,hexagon,1,0,d,0.8183,0,1,0,1,0,1,,,,,,,,,,,,,,,,,,,,,,,,,,,,,,,,,,,,,,,,,
295054,2022-12-05_12h07.04.794,vts_reward_expectancy_bt,2022.2.4,Win32,59.81934558,Chrome,1504,1003,,,,,,,,,,,,,,,,,,,,,,,160,F,star,1,0,f,0.8168,0,2,0,2,0,1,,,,,,,,,,,,,,,,,,,,,,,,,,,,,,,,,,,,,,,,,
295054,2022-12-05_12h07.04.794,vts_reward_expectancy_bt,2022.2.4,Win32,59.81934558,Chrome,1504,1003,,,,,,,,,,,,,,,,,,,,,,,181,D,triangle,1,0,f,0.9618,0,3,0,3,0,1,,,,,,,,,,,,,,,,,,,,,,,,,,,,,,,,,,,,,,,,,
295054,2022-12-05_12h07.04.794,vts_reward_expectancy_bt,2022.2.4,Win32,59.81934558,Chrome,1504,1003,,,,,,,,,,,,,,,,,,,,,,,125,S,circle,1,0,d,0.5176,0,4,0,4,0,1,,,,,,,,,,,,,,,,,,,,,,,,,,,,,,,,,,,,,,,,,
295054,2022-12-05_12h07.04.794,vts_reward_expectancy_bt,2022.2.4,Win32,59.81934558,Chrome,1504,1003,,,,,,,,,,,,,,,,,,,,,,,139,H,hexagon,1,0,d,0.6833,0,5,0,5,0,1,,,,,,,,,,,,,,,,,,,,,,,,,,,,,,,,,,,,,,,,,
295054,2022-12-05_12h07.04.794,vts_reward_expectancy_bt,2022.2.4,Win32,59.81934558,Chrome,1504,1003,,,,,,,,,,,,,,,,,,,,,,,167,B,star,1,0,f,0.8853,0,6,0,6,0,1,,,,,,,,,,,,,,,,,,,,,,,,,,,,,,,,,,,,,,,,,
295054,2022-12-05_12h07.04.794,vts_reward_expectancy_bt,2022.2.4,Win32,59.81934558,Chrome,1504,1003,,,,,,,,,,,,,,,,,,,,,,,174,Y,triangle,1,0,f,1.1177,0,7,0,7,0,1,,,,,,,,,,,,,,,,,,,,,,,,,,,,,,,,,,,,,,,,,
295054,2022-12-05_12h07.04.794,vts_reward_expectancy_bt,2022.2.4,Win32,59.81934558,Chrome,1504,1003,,,,,,,,,,,,,,,,,,,,,,,132,U,triangle,1,0,d,0.9094,0,8,0,8,0,1,,,,,,,,,,,,,,,,,,,,,,,,,,,,,,,,,,,,,,,,,
295054,2022-12-05_12h07.04.794,vts_reward_expectancy_bt,2022.2.4,Win32,59.81934558,Chrome,1504,1003,,,,,,,,,,,,,,,,,,,,,,,146,W,hexagon,1,0,d,1.0174,0,9,0,9,0,1,,,,,,,,,,,,,,,,,,,,,,,,,,,,,,,,,,,,,,,,,
295054,2022-12-05_12h07.04.794,vts_reward_expectancy_bt,2022.2.4,Win32,59.81934558,Chrome,1504,1003,,,,,,,,,,,,,,,,,,,,,,,174,B,hexagon,1,0,,,1,,,,,,j,0.6728,0,0,0,0,1,,,,,,,,,,,,,,,,,,,,,,,,,,,,,,,,,,
295054,2022-12-05_12h07.04.794,vts_reward_expectancy_bt,2022.2.4,Win32,59.81934558,Chrome,1504,1003,,,,,,,,,,,,,,,,,,,,,,,139,S,star,1,0,,,1,,,,,,k,1.0508,1,0,1,0,1,,,,,,,,,,,,,,,,,,,,,,,,,,,,,,,,,,
295054,2022-12-05_12h07.04.794,vts_reward_expectancy_bt,2022.2.4,Win32,59.81934558,Chrome,1504,1003,,,,,,,,,,,,,,,,,,,,,,,167,D,circle,1,0,,,1,,,,,,j,0.6343,2,0,2,0,1,,,,,,,,,,,,,,,,,,,,,,,,,,,,,,,,,,
295054,2022-12-05_12h07.04.794,vts_reward_expectancy_bt,2022.2.4,Win32,59.81934558,Chrome,1504,1003,,,,,,,,,,,,,,,,,,,,,,,160,W,triangle,1,0,,,1,,,,,,k,0.6903,3,0,3,0,1,,,,,,,,,,,,,,,,,,,,,,,,,,,,,,,,,,
295054,2022-12-05_12h07.04.794,vts_reward_expectancy_bt,2022.2.4,Win32,59.81934558,Chrome,1504,1003,,,,,,,,,,,,,,,,,,,,,,,125,H,hexagon,1,0,,,1,,,,,,j,1.2687,4,0,4,0,1,,,,,,,,,,,,,,,,,,,,,,,,,,,,,,,,,,
295054,2022-12-05_12h07.04.794,vts_reward_expectancy_bt,2022.2.4,Win32,59.81934558,Chrome,1504,1003,,,,,,,,,,,,,,,,,,,,,,,181,Y,star,1,0,,,1,,,,,,k,0.6688,5,0,5,0,1,,,,,,,,,,,,,,,,,,,,,,,,,,,,,,,,,,
295054,2022-12-05_12h07.04.794,vts_reward_expectancy_bt,2022.2.4,Win32,59.81934558,Chrome,1504,1003,,,,,,,,,,,,,,,,,,,,,,,146,F,circle,1,0,,,1,,,,,,j,0.7939,6,0,6,0,1,,,,,,,,,,,,,,,,,,,,,,,,,,,,,,,,,,
295054,2022-12-05_12h07.04.794,vts_reward_expectancy_bt,2022.2.4,Win32,59.81934558,Chrome,1504,1003,,,,,,,,,,,,,,,,,,,,,,,132,U,triangle,1,0,,,1,,,,,,k,0.653,7,0,7,0,1,,,,,,,,,,,,,,,,,,,,,,,,,,,,,,,,,,
295054,2022-12-05_12h07.04.794,vts_reward_expectancy_bt,2022.2.4,Win32,59.81934558,Chrome,1504,1003,,,,,,,,,,,,,,,,,,,,,,,174,B,circle,1,0,,,1,,,,,,j,0.7009,8,0,8,0,1,,,,,,,,,,,,,,,,,,,,,,,,,,,,,,,,,,
295054,2022-12-05_12h07.04.794,vts_reward_expectancy_bt,2022.2.4,Win32,59.81934558,Chrome,1504,1003,,,,,,,,,,,,,,,,,,,,,,,139,S,star,1,0,,,1,,,,,,k,0.585,9,0,9,0,1,,,,,,,,,,,,,,,,,,,,,,,,,,,,,,,,,,
295054,2022-12-05_12h07.04.794,vts_reward_expectancy_bt,2022.2.4,Win32,59.81934558,Chrome,1504,1003,,,,,0,603,,,,,,,,,,,,,,,,,146,Y,star,1,0,,,2,,,,,,,,,,,,,-1,number,NA,d,2.3609,vtsPrac,0,0,0,0,1,,,,,,,,,,,,,,,,,,,,,,,
295054,2022-12-05_12h07.04.794,vts_reward_expectancy_bt,2022.2.4,Win32,59.81934558,Chrome,1504,1003,,,,,0,603,,,,,,,,,,,,,,,,,160,W,circle,1,0,,,2,,,,,,,,,,,,,repeat,number,numRpt,f,0.888,vtsPrac,1,0,1,0,1,,,,,,,,,,,,,,,,,,,,,,,
295054,2022-12-05_12h07.04.794,vts_reward_expectancy_bt,2022.2.4,Win32,59.81934558,Chrome,1504,1003,,,,,0,603,,,,,,,,,,,,,,,,,167,U,star,1,0,,,2,,,,,,,,,,,,,switch,letter,lettSwt,k,0.8657,vtsPrac,2,0,2,0,1,,,,,,,,,,,,,,,,,,,,,,,
295054,2022-12-05_12h07.04.794,vts_reward_expectancy_bt,2022.2.4,Win32,59.81934558,Chrome,1504,1003,,,,,0,603,,,,,,,,,,,,,,,,,181,S,circle,1,0,,,2,,,,,,,,,,,,,switch,number,numSwt,f,1.068,vtsPrac,3,0,3,0,1,,,,,,,,,,,,,,,,,,,,,,,
295054,2022-12-05_12h07.04.794,vts_reward_expectancy_bt,2022.2.4,Win32,59.81934558,Chrome,1504,1003,,,,,0,603,,,,,,,,,,,,,,,,,146,Y,hexagon,1,0,,,2,,,,,,,,,,,,,switch,letter,lettSwt,k,0.634,vtsPrac,4,0,4,0,1,,,,,,,,,,,,,,,,,,,,,,,
295054,2022-12-05_12h07.04.794,vts_reward_expectancy_bt,2022.2.4,Win32,59.81934558,Chrome,1504,1003,,,,,0,603,,,,,,,,,,,,,,,,,160,W,circle,1,0,,,2,,,,,,,,,,,,,repeat,letter,lettRpt,k,0.7364,vtsPrac,5,0,5,0,1,,,,,,,,,,,,,,,,,,,,,,,
295054,2022-12-05_12h07.04.794,vts_reward_expectancy_bt,2022.2.4,Win32,59.81934558,Chrome,1504,1003,,,,,0,603,,,,,,,,,,,,,,,,,167,U,triangle,1,0,,,2,,,,,,,,,,,,,repeat,letter,lettRpt,k,0.8041,vtsPrac,6,0,6,0,1,,,,,,,,,,,,,,,,,,,,,,,
295054,2022-12-05_12h07.04.794,vts_reward_expectancy_bt,2022.2.4,Win32,59.81934558,Chrome,1504,1003,,,,,0,603,,,,,,,,,,,,,,,,,181,S,star,0,0,,,2,,,,,,,,,,,,,switch,number,NA,d,0.7836,vtsPrac,7,0,7,0,1,,,,,,,,,,,,,,,,,,,,,,,
295054,2022-12-05_12h07.04.794,vts_reward_expectancy_bt,2022.2.4,Win32,59.81934558,Chrome,1504,1003,,,,,0,603,,,,,,,,,,,,,,,,,167,H,star,1,1,,,2,,,,,,,,,,,,,repeat,number,numRpt,f,1.0836,vtsPrac,8,0,8,0,1,,,,,,,,,,,,,,,,,,,,,,,
295054,2022-12-05_12h07.04.794,vts_reward_expectancy_bt,2022.2.4,Win32,59.81934558,Chrome,1504,1003,,,,,0,603,,,,,,,,,,,,,,,,,146,W,circle,1,0,,,2,,,,,,,,,,,,,switch,letter,lettSwt,k,0.7235,vtsPrac,9,0,9,0,1,,,,,,,,,,,,,,,,,,,,,,,
295054,2022-12-05_12h07.04.794,vts_reward_expectancy_bt,2022.2.4,Win32,59.81934558,Chrome,1504,1003,,,,,0,603,,,,,,,,,,,,,,,,,139,Y,star,1,0,,,2,,,,,,,,,,,,,switch,number,numSwt,d,0.9345,vtsPrac,10,0,10,0,1,,,,,,,,,,,,,,,,,,,,,,,
295054,2022-12-05_12h07.04.794,vts_reward_expectancy_bt,2022.2.4,Win32,59.81934558,Chrome,1504,1003,,,,,0,603,,,,,,,,,,,,,,,,,174,U,circle,1,0,,,2,,,,,,,,,,,,,repeat,number,numRpt,f,0.8005,vtsPrac,11,0,11,0,1,,,,,,,,,,,,,,,,,,,,,,,
295054,2022-12-05_12h07.04.794,vts_reward_expectancy_bt,2022.2.4,Win32,59.81934558,Chrome,1504,1003,,,,,0,603,,,,,,,,,,,,,,,,,125,Y,hexagon,1,0,,,2,,,,,,,,,,,,,switch,letter,lettSwt,k,0.8207,vtsPrac,12,0,12,0,1,,,,,,,,,,,,,,,,,,,,,,,
295054,2022-12-05_12h07.04.794,vts_reward_expectancy_bt,2022.2.4,Win32,59.81934558,Chrome,1504,1003,,,,,0,603,,,,,,,,,,,,,,,,,174,W,circle,1,0,,,2,,,,,,,,,,,,,switch,number,numSwt,f,1.0591,vtsPrac,13,0,13,0,1,,,,,,,,,,,,,,,,,,,,,,,
295054,2022-12-05_12h07.04.794,vts_reward_expectancy_bt,2022.2.4,Win32,59.81934558,Chrome,1504,1003,,,,,0,603,,,,,,,,,,,,,,,,,181,B,triangle,1,0,,,2,,,,,,,,,,,,,switch,letter,lettSwt,j,0.7196,vtsPrac,14,0,14,0,1,,,,,,,,,,,,,,,,,,,,,,,
295054,2022-12-05_12h07.04.794,vts_reward_expectancy_bt,2022.2.4,Win32,59.81934558,Chrome,1504,1003,,,,,0,603,,,,,,,,,,,,,,,,,146,H,hexagon,1,0,,,2,,,,,,,,,,,,,switch,number,numSwt,d,2.8679,vtsPrac,15,0,15,0,1,,,,,,,,,,,,,,,,,,,,,,,
295054,2022-12-05_12h07.04.794,vts_reward_expectancy_bt,2022.2.4,Win32,59.81934558,Chrome,1504,1003,,,,,0,603,,,,,,,,,,,,,,,,,146,Y,hexagon,1,0,,,2,,,,,,,,,,,,,switch,letter,lettSwt,k,0.623,vtsPrac,16,0,16,0,1,,,,,,,,,,,,,,,,,,,,,,,
295054,2022-12-05_12h07.04.794,vts_reward_expectancy_bt,2022.2.4,Win32,59.81934558,Chrome,1504,1003,,,,,0,603,,,,,,,,,,,,,,,,,174,B,star,1,0,,,2,,,,,,,,,,,,,switch,number,numSwt,f,0.7852,vtsPrac,17,0,17,0,1,,,,,,,,,,,,,,,,,,,,,,,
295054,2022-12-05_12h07.04.794,vts_reward_expectancy_bt,2022.2.4,Win32,59.81934558,Chrome,1504,1003,,,,,0,603,,,,,,,,,,,,,,,,,125,D,triangle,1,0,,,2,,,,,,,,,,,,,repeat,number,numRpt,d,1.348,vtsPrac,18,0,18,0,1,,,,,,,,,,,,,,,,,,,,,,,
295054,2022-12-05_12h07.04.794,vts_reward_expectancy_bt,2022.2.4,Win32,59.81934558,Chrome,1504,1003,,,,,0,603,,,,,,,,,,,,,,,,,139,F,star,1,0,,,2,,,,,,,,,,,,,switch,letter,lettSwt,j,1.1517,vtsPrac,19,0,19,0,1,,,,,,,,,,,,,,,,,,,,,,,
295054,2022-12-05_12h07.04.794,vts_reward_expectancy_bt,2022.2.4,Win32,59.81934558,Chrome,1504,1003,,,,,0,603,,,,,,,,,,,,,,,,,132,H,star,1,0,,,2,,,,,,,,,,,,,switch,number,numSwt,d,2.134,vtsPrac,20,0,20,0,1,,,,,,,,,,,,,,,,,,,,,,,
295054,2022-12-05_12h07.04.794,vts_reward_expectancy_bt,2022.2.4,Win32,59.81934558,Chrome,1504,1003,,,,,0,603,,,,,,,,,,,,,,,,,167,S,circle,1,0,,,2,,,,,,,,,,,,,repeat,number,numRpt,f,1.5792,vtsPrac,21,0,21,0,1,,,,,,,,,,,,,,,,,,,,,,,
295054,2022-12-05_12h07.04.794,vts_reward_expectancy_bt,2022.2.4,Win32,59.81934558,Chrome,1504,1003,,,,,0,603,,,,,,,,,,,,,,,,,174,B,triangle,1,0,,,2,,,,,,,,,,,,,switch,letter,lettSwt,j,0.7296,vtsPrac,22,0,22,0,1,,,,,,,,,,,,,,,,,,,,,,,
295054,2022-12-05_12h07.04.794,vts_reward_expectancy_bt,2022.2.4,Win32,59.81934558,Chrome,1504,1003,,,,,0,603,,,,,,,,,,,,,,,,,139,W,hexagon,1,0,,,2,,,,,,,,,,,,,repeat,letter,lettRpt,k,0.7616,vtsPrac,23,0,23,0,1,,,,,,,,,,,,,,,,,,,,,,,
295054,2022-12-05_12h07.04.794,vts_reward_expectancy_bt,2022.2.4,Win32,59.81934558,Chrome,1504,1003,,,,,0,603,,,,,,,,,,,,,,,,,181,D,circle,1,0,,,2,,,,,,,,,,,,,switch,number,numSwt,f,1.4983,vtsPrac,24,0,24,0,1,,,,,,,,,,,,,,,,,,,,,,,
295054,2022-12-05_12h07.04.794,vts_reward_expectancy_bt,2022.2.4,Win32,59.81934558,Chrome,1504,1003,,,,,0,603,,,,,,,,,,,,,,,,,139,S,triangle,1,0,,,2,,,,,,,,,,,,,repeat,number,numRpt,d,1.9463,vtsPrac,25,0,25,0,1,,,,,,,,,,,,,,,,,,,,,,,
295054,2022-12-05_12h07.04.794,vts_reward_expectancy_bt,2022.2.4,Win32,59.81934558,Chrome,1504,1003,,,,,0,603,,,,,,,,,,,,,,,,,160,B,triangle,1,0,,,2,,,,,,,,,,,,,switch,letter,lettSwt,j,0.7538,vtsPrac,26,0,26,0,1,,,,,,,,,,,,,,,,,,,,,,,
295054,2022-12-05_12h07.04.794,vts_reward_expectancy_bt,2022.2.4,Win32,59.81934558,Chrome,1504,1003,,,,,0,603,,,,,,,,,,,,,,,,,146,U,hexagon,1,0,,,2,,,,,,,,,,,,,repeat,letter,lettRpt,k,1.0126,vtsPrac,27,0,27,0,1,,,,,,,,,,,,,,,,,,,,,,,
295054,2022-12-05_12h07.04.794,vts_reward_expectancy_bt,2022.2.4,Win32,59.81934558,Chrome,1504,1003,,,,,0,603,,,,,,,,,,,,,,,,,167,F,triangle,1,0,,,2,,,,,,,,,,,,,repeat,letter,lettRpt,j,1.0178,vtsPrac,28,0,28,0,1,,,,,,,,,,,,,,,,,,,,,,,
295054,2022-12-05_12h07.04.794,vts_reward_expectancy_bt,2022.2.4,Win32,59.81934558,Chrome,1504,1003,,,,,0,603,,,,,,,,,,,,,,,,,125,H,circle,1,0,,,2,,,,,,,,,,,,,switch,number,numSwt,d,1.0296,vtsPrac,29,0,29,0,1,,,,,,,,,,,,,,,,,,,,,,,
295054,2022-12-05_12h07.04.794,vts_reward_expectancy_bt,2022.2.4,Win32,59.81934558,Chrome,1504,1003,,,,,0,603,,,,,,,,,,,,,,,,,160,Y,triangle,1,0,,,2,,,,,,,,,,,,,repeat,number,numRpt,f,1.0857,vtsPrac,30,0,30,0,1,,,,,,,,,,,,,,,,,,,,,,,
295054,2022-12-05_12h07.04.794,vts_reward_expectancy_bt,2022.2.4,Win32,59.81934558,Chrome,1504,1003,,,,,0,603,,,,,,,,,,,,,,,,,146,S,circle,-1,0,,,2,,,,,,,,,,,,,switch,no_choice,NA,,,vtsPrac,31,0,31,0,1,,,,,,,,,,,,,,,,,,,,,,,
295054,2022-12-05_12h07.04.794,vts_reward_expectancy_bt,2022.2.4,Win32,59.81934558,Chrome,1504,1003,,,,,,,,,,,,,,,,,,,,,,,,,,,,,,,,,,,,,,,,,,,,,,,,,,,,,,,,,,,,,,,,,,,,,,,,,,,,
295054,2022-12-05_12h07.04.794,vts_reward_expectancy_bt,2022.2.4,Win32,59.81934558,Chrome,1504,1003,,,,,,,,,,,,,,,,,,,,,,,,,,,,,,,,,,,,,,,,,,,,,,,,,,,,,,,,,,,,,,,,,,,,,,,,,,,,
295054,2022-12-05_12h07.04.794,vts_reward_expectancy_bt,2022.2.4,Win32,59.81934558,Chrome,1504,1003,,,,,0,603,,,,,,,,,,,,,,,,,125,U,star,1,0,,,,,,,,,,,,,,,,switch,number,numSwt,d,1.0633,noRew,,,,,,0,0,0,0,0,1,,,,,,,,,,,,,,,,,
295054,2022-12-05_12h07.04.794,vts_reward_expectancy_bt,2022.2.4,Win32,59.81934558,Chrome,1504,1003,,,,,0,603,,,,,,,,,,,,,,,,,174,W,circle,1,0,,,,,,,,,,,,,,,,repeat,number,numRpt,f,1.1637,noRew,,,,,,0,1,0,1,0,1,,,,,,,,,,,,,,,,,
295054,2022-12-05_12h07.04.794,vts_reward_expectancy_bt,2022.2.4,Win32,59.81934558,Chrome,1504,1003,,,,,0,603,,,,,,,,,,,,,,,,,146,S,star,1,0,,,,,,,,,,,,,,,,repeat,number,numRpt,d,1.1443,noRew,,,,,,0,2,0,2,0,1,,,,,,,,,,,,,,,,,
295054,2022-12-05_12h07.04.794,vts_reward_expectancy_bt,2022.2.4,Win32,59.81934558,Chrome,1504,1003,,,,,0,603,,,,,,,,,,,,,,,,,181,H,circle,1,0,,,,,,,,,,,,,,,,repeat,number,numRpt,f,1.7796,noRew,,,,,,0,3,0,3,0,1,,,,,,,,,,,,,,,,,
295054,2022-12-05_12h07.04.794,vts_reward_expectancy_bt,2022.2.4,Win32,59.81934558,Chrome,1504,1003,,,,,0,603,,,,,,,,,,,,,,,,,125,U,triangle,1,0,,,,,,,,,,,,,,,,switch,letter,lettSwt,k,0.6808,noRew,,,,,,0,4,0,4,0,1,,,,,,,,,,,,,,,,,
295054,2022-12-05_12h07.04.794,vts_reward_expectancy_bt,2022.2.4,Win32,59.81934558,Chrome,1504,1003,,,,,0,603,,,,,,,,,,,,,,,,,174,W,star,1,0,,,,,,,,,,,,,,,,repeat,letter,lettRpt,k,0.7974,noRew,,,,,,0,5,0,5,0,1,,,,,,,,,,,,,,,,,
295054,2022-12-05_12h07.04.794,vts_reward_expectancy_bt,2022.2.4,Win32,59.81934558,Chrome,1504,1003,,,,,0,603,,,,,,,,,,,,,,,,,146,S,circle,1,0,,,,,,,,,,,,,,,,switch,number,numSwt,d,2.3285,noRew,,,,,,0,6,0,6,0,1,,,,,,,,,,,,,,,,,
295054,2022-12-05_12h07.04.794,vts_reward_expectancy_bt,2022.2.4,Win32,59.81934558,Chrome,1504,1003,,,,,0,603,,,,,,,,,,,,,,,,,181,H,triangle,1,0,,,,,,,,,,,,,,,,repeat,number,numRpt,f,1.0368,noRew,,,,,,0,7,0,7,0,1,,,,,,,,,,,,,,,,,
295054,2022-12-05_12h07.04.794,vts_reward_expectancy_bt,2022.2.4,Win32,59.81934558,Chrome,1504,1003,,,,,0,603,,,,,,,,,,,,,,,,,139,H,star,1,0,,,,,,,,,,,,,,,,switch,letter,lettSwt,j,1.2809,noRew,,,,,,0,8,0,8,0,1,,,,,,,,,,,,,,,,,
295054,2022-12-05_12h07.04.794,vts_reward_expectancy_bt,2022.2.4,Win32,59.81934558,Chrome,1504,1003,,,,,0,603,,,,,,,,,,,,,,,,,160,Y,circle,1,0,,,,,,,,,,,,,,,,repeat,letter,lettRpt,k,0.7457,noRew,,,,,,0,9,0,9,0,1,,,,,,,,,,,,,,,,,
295054,2022-12-05_12h07.04.794,vts_reward_expectancy_bt,2022.2.4,Win32,59.81934558,Chrome,1504,1003,,,,,0,603,,,,,,,,,,,,,,,,,181,S,star,1,0,,,,,,,,,,,,,,,,repeat,letter,lettRpt,k,1.2959,noRew,,,,,,0,10,0,10,0,1,,,,,,,,,,,,,,,,,
295054,2022-12-05_12h07.04.794,vts_reward_expectancy_bt,2022.2.4,Win32,59.81934558,Chrome,1504,1003,,,,,0,603,,,,,,,,,,,,,,,,,174,B,hexagon,1,0,,,,,,,,,,,,,,,,repeat,letter,lettRpt,j,0.5102,noRew,,,,,,0,11,0,11,0,1,,,,,,,,,,,,,,,,,
295054,2022-12-05_12h07.04.794,vts_reward_expectancy_bt,2022.2.4,Win32,59.81934558,Chrome,1504,1003,,,,,0,603,,,,,,,,,,,,,,,,,174,W,triangle,1,0,,,,,,,,,,,,,,,,switch,number,numSwt,f,1.3476,noRew,,,,,,0,12,0,12,0,1,,,,,,,,,,,,,,,,,
295054,2022-12-05_12h07.04.794,vts_reward_expectancy_bt,2022.2.4,Win32,59.81934558,Chrome,1504,1003,,,,,0,603,,,,,,,,,,,,,,,,,160,Y,hexagon,1,0,,,,,,,,,,,,,,,,repeat,number,numRpt,f,1.2453,noRew,,,,,,0,13,0,13,0,1,,,,,,,,,,,,,,,,,
295054,2022-12-05_12h07.04.794,vts_reward_expectancy_bt,2022.2.4,Win32,59.81934558,Chrome,1504,1003,,,,,0,603,,,,,,,,,,,,,,,,,167,S,circle,1,0,,,,,,,,,,,,,,,,repeat,number,numRpt,f,0.9001,noRew,,,,,,0,14,0,14,0,1,,,,,,,,,,,,,,,,,
295054,2022-12-05_12h07.04.794,vts_reward_expectancy_bt,2022.2.4,Win32,59.81934558,Chrome,1504,1003,,,,,0,603,,,,,,,,,,,,,,,,,146,U,star,1,0,,,,,,,,,,,,,,,,switch,letter,lettSwt,k,0.8282,noRew,,,,,,0,15,0,15,0,1,,,,,,,,,,,,,,,,,
295054,2022-12-05_12h07.04.794,vts_reward_expectancy_bt,2022.2.4,Win32,59.81934558,Chrome,1504,1003,,,,,0,603,,,,,,,,,,,,,,,,,174,D,circle,1,0,,,,,,,,,,,,,,,,repeat,letter,lettRpt,j,0.7626,noRew,,,,,,0,16,0,16,0,1,,,,,,,,,,,,,,,,,
295054,2022-12-05_12h07.04.794,vts_reward_expectancy_bt,2022.2.4,Win32,59.81934558,Chrome,1504,1003,,,,,0,603,,,,,,,,,,,,,,,,,160,S,hexagon,1,0,,,,,,,,,,,,,,,,repeat,letter,lettRpt,k,1.2047,noRew,,,,,,0,17,0,17,0,1,,,,,,,,,,,,,,,,,
295054,2022-12-05_12h07.04.794,vts_reward_expectancy_bt,2022.2.4,Win32,59.81934558,Chrome,1504,1003,,,,,0,603,,,,,,,,,,,,,,,,,139,H,star,1,0,,,,,,,,,,,,,,,,switch,number,numSwt,d,0.7508,noRew,,,,,,0,18,0,18,0,1,,,,,,,,,,,,,,,,,
295054,2022-12-05_12h07.04.794,vts_reward_expectancy_bt,2022.2.4,Win32,59.81934558,Chrome,1504,1003,,,,,0,603,,,,,,,,,,,,,,,,,181,Y,hexagon,1,0,,,,,,,,,,,,,,,,switch,letter,lettSwt,k,0.8369,noRew,,,,,,0,19,0,19,0,1,,,,,,,,,,,,,,,,,
295054,2022-12-05_12h07.04.794,vts_reward_expectancy_bt,2022.2.4,Win32,59.81934558,Chrome,1504,1003,,,,,0,603,,,,,,,,,,,,,,,,,139,F,hexagon,1,0,,,,,,,,,,,,,,,,switch,number,numSwt,d,0.8623,noRew,,,,,,0,20,0,20,0,1,,,,,,,,,,,,,,,,,
295054,2022-12-05_12h07.04.794,vts_reward_expectancy_bt,2022.2.4,Win32,59.81934558,Chrome,1504,1003,,,,,0,603,,,,,,,,,,,,,,,,,146,B,circle,1,0,,,,,,,,,,,,,,,,switch,letter,lettSwt,j,0.6987,noRew,,,,,,0,21,0,21,0,1,,,,,,,,,,,,,,,,,
295054,2022-12-05_12h07.04.794,vts_reward_expectancy_bt,2022.2.4,Win32,59.81934558,Chrome,1504,1003,,,,,0,603,,,,,,,,,,,,,,,,,167,S,hexagon,1,0,,,,,,,,,,,,,,,,repeat,letter,lettRpt,k,0.7635,noRew,,,,,,0,22,0,22,0,1,,,,,,,,,,,,,,,,,
295054,2022-12-05_12h07.04.794,vts_reward_expectancy_bt,2022.2.4,Win32,59.81934558,Chrome,1504,1003,,,,,0,603,,,,,,,,,,,,,,,,,132,H,triangle,1,0,,,,,,,,,,,,,,,,switch,number,numSwt,d,1.3964,noRew,,,,,,0,23,0,23,0,1,,,,,,,,,,,,,,,,,
295054,2022-12-05_12h07.04.794,vts_reward_expectancy_bt,2022.2.4,Win32,59.81934558,Chrome,1504,1003,,,,,0,603,,,,,,,,,,,,,,,,,132,Y,hexagon,1,0,,,,,,,,,,,,,,,,switch,letter,lettSwt,k,0.8703,noRew,,,,,,0,24,0,24,0,1,,,,,,,,,,,,,,,,,
295054,2022-12-05_12h07.04.794,vts_reward_expectancy_bt,2022.2.4,Win32,59.81934558,Chrome,1504,1003,,,,,0,603,,,,,,,,,,,,,,,,,139,W,triangle,1,0,,,,,,,,,,,,,,,,switch,number,numSwt,d,0.8616,noRew,,,,,,0,25,0,25,0,1,,,,,,,,,,,,,,,,,
295054,2022-12-05_12h07.04.794,vts_reward_expectancy_bt,2022.2.4,Win32,59.81934558,Chrome,1504,1003,,,,,0,603,,,,,,,,,,,,,,,,,181,D,circle,1,0,,,,,,,,,,,,,,,,repeat,number,numRpt,f,0.5475,noRew,,,,,,0,26,0,26,0,1,,,,,,,,,,,,,,,,,
295054,2022-12-05_12h07.04.794,vts_reward_expectancy_bt,2022.2.4,Win32,59.81934558,Chrome,1504,1003,,,,,0,603,,,,,,,,,,,,,,,,,174,F,star,1,0,,,,,,,,,,,,,,,,repeat,number,numRpt,f,0.7129,noRew,,,,,,0,27,0,27,0,1,,,,,,,,,,,,,,,,,
295054,2022-12-05_12h07.04.794,vts_reward_expectancy_bt,2022.2.4,Win32,59.81934558,Chrome,1504,1003,,,,,0,603,,,,,,,,,,,,,,,,,139,Y,hexagon,1,0,,,,,,,,,,,,,,,,switch,letter,lettSwt,k,0.7622,noRew,,,,,,0,28,0,28,0,1,,,,,,,,,,,,,,,,,
295054,2022-12-05_12h07.04.794,vts_reward_expectancy_bt,2022.2.4,Win32,59.81934558,Chrome,1504,1003,,,,,0,603,,,,,,,,,,,,,,,,,146,S,star,1,0,,,,,,,,,,,,,,,,repeat,letter,lettRpt,k,1.0376,noRew,,,,,,0,29,0,29,0,1,,,,,,,,,,,,,,,,,
295054,2022-12-05_12h07.04.794,vts_reward_expectancy_bt,2022.2.4,Win32,59.81934558,Chrome,1504,1003,,,,,0,603,,,,,,,,,,,,,,,,,132,F,hexagon,1,0,,,,,,,,,,,,,,,,repeat,letter,lettRpt,j,0.7624,noRew,,,,,,0,30,0,30,0,1,,,,,,,,,,,,,,,,,
295054,2022-12-05_12h07.04.794,vts_reward_expectancy_bt,2022.2.4,Win32,59.81934558,Chrome,1504,1003,,,,,0,603,,,,,,,,,,,,,,,,,125,H,circle,1,0,,,,,,,,,,,,,,,,repeat,letter,lettRpt,j,0.9311,noRew,,,,,,0,31,0,31,0,1,,,,,,,,,,,,,,,,,
295054,2022-12-05_12h07.04.794,vts_reward_expectancy_bt,2022.2.4,Win32,59.81934558,Chrome,1504,1003,,,,,0,603,,,,,,,,,,,,,,,,,174,Y,star,1,0,,,,,,,,,,,,,,,,repeat,letter,lettRpt,k,0.7962,noRew,,,,,,0,32,0,32,0,1,,,,,,,,,,,,,,,,,
295054,2022-12-05_12h07.04.794,vts_reward_expectancy_bt,2022.2.4,Win32,59.81934558,Chrome,1504,1003,,,,,0,603,,,,,,,,,,,,,,,,,181,D,hexagon,1,0,,,,,,,,,,,,,,,,switch,number,numSwt,f,0.7177,noRew,,,,,,0,33,0,33,0,1,,,,,,,,,,,,,,,,,
295054,2022-12-05_12h07.04.794,vts_reward_expectancy_bt,2022.2.4,Win32,59.81934558,Chrome,1504,1003,,,,,0,603,,,,,,,,,,,,,,,,,146,H,hexagon,1,0,,,,,,,,,,,,,,,,repeat,number,numRpt,d,0.996,noRew,,,,,,0,34,0,34,0,1,,,,,,,,,,,,,,,,,
295054,2022-12-05_12h07.04.794,vts_reward_expectancy_bt,2022.2.4,Win32,59.81934558,Chrome,1504,1003,,,,,0,603,,,,,,,,,,,,,,,,,132,F,circle,1,0,,,,,,,,,,,,,,,,repeat,number,numRpt,d,0.7215,noRew,,,,,,0,35,0,35,0,1,,,,,,,,,,,,,,,,,
295054,2022-12-05_12h07.04.794,vts_reward_expectancy_bt,2022.2.4,Win32,59.81934558,Chrome,1504,1003,,,,,0,603,,,,,,,,,,,,,,,,,181,D,star,1,0,,,,,,,,,,,,,,,,repeat,number,numRpt,f,0.5465,noRew,,,,,,0,36,0,36,0,1,,,,,,,,,,,,,,,,,
295054,2022-12-05_12h07.04.794,vts_reward_expectancy_bt,2022.2.4,Win32,59.81934558,Chrome,1504,1003,,,,,0,603,,,,,,,,,,,,,,,,,139,H,triangle,1,0,,,,,,,,,,,,,,,,switch,letter,lettSwt,j,0.6639,noRew,,,,,,0,37,0,37,0,1,,,,,,,,,,,,,,,,,
295054,2022-12-05_12h07.04.794,vts_reward_expectancy_bt,2022.2.4,Win32,59.81934558,Chrome,1504,1003,,,,,0,603,,,,,,,,,,,,,,,,,146,W,circle,1,0,,,,,,,,,,,,,,,,repeat,letter,lettRpt,k,0.7773,noRew,,,,,,0,38,0,38,0,1,,,,,,,,,,,,,,,,,
295054,2022-12-05_12h07.04.794,vts_reward_expectancy_bt,2022.2.4,Win32,59.81934558,Chrome,1504,1003,,,,,0,603,,,,,,,,,,,,,,,,,174,S,star,1,0,,,,,,,,,,,,,,,,repeat,letter,lettRpt,k,1.0983,noRew,,,,,,0,39,0,39,0,1,,,,,,,,,,,,,,,,,
295054,2022-12-05_12h07.04.794,vts_reward_expectancy_bt,2022.2.4,Win32,59.81934558,Chrome,1504,1003,,,,,0,603,,,,,,,,,,,,,,,,,132,W,circle,1,0,,,,,,,,,,,,,,,,switch,number,numSwt,d,1.0311,noRew,,,,,,0,40,0,40,0,1,,,,,,,,,,,,,,,,,
295054,2022-12-05_12h07.04.794,vts_reward_expectancy_bt,2022.2.4,Win32,59.81934558,Chrome,1504,1003,,,,,0,603,,,,,,,,,,,,,,,,,139,F,triangle,1,0,,,,,,,,,,,,,,,,repeat,number,numRpt,d,0.8621,noRew,,,,,,0,41,0,41,0,1,,,,,,,,,,,,,,,,,
295054,2022-12-05_12h07.04.794,vts_reward_expectancy_bt,2022.2.4,Win32,59.81934558,Chrome,1504,1003,,,,,0,603,,,,,,,,,,,,,,,,,181,S,triangle,1,0,,,,,,,,,,,,,,,,repeat,number,numRpt,f,0.6967,noRew,,,,,,0,42,0,42,0,1,,,,,,,,,,,,,,,,,
295054,2022-12-05_12h07.04.794,vts_reward_expectancy_bt,2022.2.4,Win32,59.81934558,Chrome,1504,1003,,,,,0,603,,,,,,,,,,,,,,,,,174,U,hexagon,1,0,,,,,,,,,,,,,,,,repeat,number,numRpt,f,1.1046,noRew,,,,,,0,43,0,43,0,1,,,,,,,,,,,,,,,,,
295054,2022-12-05_12h07.04.794,vts_reward_expectancy_bt,2022.2.4,Win32,59.81934558,Chrome,1504,1003,,,,,0,603,,,,,,,,,,,,,,,,,160,H,hexagon,1,0,,,,,,,,,,,,,,,,repeat,number,numRpt,f,1.0146,noRew,,,,,,0,44,0,44,0,1,,,,,,,,,,,,,,,,,
295054,2022-12-05_12h07.04.794,vts_reward_expectancy_bt,2022.2.4,Win32,59.81934558,Chrome,1504,1003,,,,,0,603,,,,,,,,,,,,,,,,,139,F,star,1,0,,,,,,,,,,,,,,,,switch,letter,lettSwt,j,0.734,noRew,,,,,,0,45,0,45,0,1,,,,,,,,,,,,,,,,,
295054,2022-12-05_12h07.04.794,vts_reward_expectancy_bt,2022.2.4,Win32,59.81934558,Chrome,1504,1003,,,,,0,603,,,,,,,,,,,,,,,,,174,B,hexagon,1,0,,,,,,,,,,,,,,,,repeat,letter,lettRpt,j,0.9021,noRew,,,,,,0,46,0,46,0,1,,,,,,,,,,,,,,,,,
295054,2022-12-05_12h07.04.794,vts_reward_expectancy_bt,2022.2.4,Win32,59.81934558,Chrome,1504,1003,,,,,0,603,,,,,,,,,,,,,,,,,146,D,circle,1,0,,,,,,,,,,,,,,,,switch,number,numSwt,d,0.7147,noRew,,,,,,0,47,0,47,0,1,,,,,,,,,,,,,,,,,
295054,2022-12-05_12h07.04.794,vts_reward_expectancy_bt,2022.2.4,Win32,59.81934558,Chrome,1504,1003,,,,,0,603,,,,,,,,,,,,,,,,,181,Y,triangle,1,0,,,,,,,,,,,,,,,,repeat,number,numRpt,f,0.8462,noRew,,,,,,0,48,0,48,0,1,,,,,,,,,,,,,,,,,
295054,2022-12-05_12h07.04.794,vts_reward_expectancy_bt,2022.2.4,Win32,59.81934558,Chrome,1504,1003,,,,,0,603,,,,,,,,,,,,,,,,,174,H,hexagon,1,0,,,,,,,,,,,,,,,,repeat,number,numRpt,f,1.1173,noRew,,,,,,0,49,0,49,0,1,,,,,,,,,,,,,,,,,
295054,2022-12-05_12h07.04.794,vts_reward_expectancy_bt,2022.2.4,Win32,59.81934558,Chrome,1504,1003,,,,,0,603,,,,,,,,,,,,,,,,,132,U,triangle,1,0,,,,,,,,,,,,,,,,switch,letter,lettSwt,k,0.9958,noRew,,,,,,0,50,0,50,0,1,,,,,,,,,,,,,,,,,
295054,2022-12-05_12h07.04.794,vts_reward_expectancy_bt,2022.2.4,Win32,59.81934558,Chrome,1504,1003,,,,,0,603,,,,,,,,,,,,,,,,,160,D,circle,1,0,,,,,,,,,,,,,,,,switch,number,numSwt,f,1.9551,noRew,,,,,,0,51,0,51,0,1,,,,,,,,,,,,,,,,,
295054,2022-12-05_12h07.04.794,vts_reward_expectancy_bt,2022.2.4,Win32,59.81934558,Chrome,1504,1003,,,,,0,603,,,,,,,,,,,,,,,,,146,H,circle,1,0,,,,,,,,,,,,,,,,repeat,number,numRpt,d,0.918,noRew,,,,,,0,52,0,52,0,1,,,,,,,,,,,,,,,,,
295054,2022-12-05_12h07.04.794,vts_reward_expectancy_bt,2022.2.4,Win32,59.81934558,Chrome,1504,1003,,,,,0,603,,,,,,,,,,,,,,,,,132,U,star,1,0,,,,,,,,,,,,,,,,switch,letter,lettSwt,k,0.8294,noRew,,,,,,0,53,0,53,0,1,,,,,,,,,,,,,,,,,
295054,2022-12-05_12h07.04.794,vts_reward_expectancy_bt,2022.2.4,Win32,59.81934558,Chrome,1504,1003,,,,,0,603,,,,,,,,,,,,,,,,,125,D,star,1,0,,,,,,,,,,,,,,,,repeat,letter,lettRpt,j,0.8651,noRew,,,,,,0,54,0,54,0,1,,,,,,,,,,,,,,,,,
295054,2022-12-05_12h07.04.794,vts_reward_expectancy_bt,2022.2.4,Win32,59.81934558,Chrome,1504,1003,,,,,0,603,,,,,,,,,,,,,,,,,181,F,circle,1,0,,,,,,,,,,,,,,,,switch,number,numSwt,f,0.8623,noRew,,,,,,0,55,0,55,0,1,,,,,,,,,,,,,,,,,
295054,2022-12-05_12h07.04.794,vts_reward_expectancy_bt,2022.2.4,Win32,59.81934558,Chrome,1504,1003,,,,,0,603,,,,,,,,,,,,,,,,,181,W,circle,1,0,,,,,,,,,,,,,,,,repeat,number,numRpt,f,0.8157,noRew,,,,,,0,56,0,56,0,1,,,,,,,,,,,,,,,,,
295054,2022-12-05_12h07.04.794,vts_reward_expectancy_bt,2022.2.4,Win32,59.81934558,Chrome,1504,1003,,,,,0,603,,,,,,,,,,,,,,,,,146,U,triangle,1,0,,,,,,,,,,,,,,,,switch,letter,lettSwt,k,0.7482,noRew,,,,,,0,57,0,57,0,1,,,,,,,,,,,,,,,,,
295054,2022-12-05_12h07.04.794,vts_reward_expectancy_bt,2022.2.4,Win32,59.81934558,Chrome,1504,1003,,,,,0,603,,,,,,,,,,,,,,,,,174,B,hexagon,1,0,,,,,,,,,,,,,,,,repeat,letter,lettRpt,j,0.7146,noRew,,,,,,0,58,0,58,0,1,,,,,,,,,,,,,,,,,
295054,2022-12-05_12h07.04.794,vts_reward_expectancy_bt,2022.2.4,Win32,59.81934558,Chrome,1504,1003,,,,,0,603,,,,,,,,,,,,,,,,,167,S,star,1,0,,,,,,,,,,,,,,,,repeat,letter,lettRpt,k,1.0545,noRew,,,,,,0,59,0,59,0,1,,,,,,,,,,,,,,,,,
295054,2022-12-05_12h07.04.794,vts_reward_expectancy_bt,2022.2.4,Win32,59.81934558,Chrome,1504,1003,,,,,0,603,,,,,,,,,,,,,,,,,125,F,star,1,0,,,,,,,,,,,,,,,,repeat,letter,lettRpt,j,0.934,noRew,,,,,,0,60,0,60,0,1,,,,,,,,,,,,,,,,,
295054,2022-12-05_12h07.04.794,vts_reward_expectancy_bt,2022.2.4,Win32,59.81934558,Chrome,1504,1003,,,,,0,603,,,,,,,,,,,,,,,,,139,S,circle,1,0,,,,,,,,,,,,,,,,switch,number,numSwt,d,1.0176,noRew,,,,,,0,61,0,61,0,1,,,,,,,,,,,,,,,,,
295054,2022-12-05_12h07.04.794,vts_reward_expectancy_bt,2022.2.4,Win32,59.81934558,Chrome,1504,1003,,,,,0,603,,,,,,,,,,,,,,,,,181,D,hexagon,1,0,,,,,,,,,,,,,,,,repeat,number,numRpt,f,0.8198,noRew,,,,,,0,62,0,62,0,1,,,,,,,,,,,,,,,,,
295054,2022-12-05_12h07.04.794,vts_reward_expectancy_bt,2022.2.4,Win32,59.81934558,Chrome,1504,1003,,,,,0,603,,,,,,,,,,,,,,,,,174,B,triangle,1,0,,,,,,,,,,,,,,,,switch,letter,lettSwt,j,0.8289,noRew,,,,,,0,63,0,63,0,1,,,,,,,,,,,,,,,,,
295054,2022-12-05_12h07.04.794,vts_reward_expectancy_bt,2022.2.4,Win32,59.81934558,Chrome,1504,1003,,,,,,,,,,,,,,,,,,,,,,,,,,,,,,,,,,,,,,,,,,,,,,,,,,,,,,,,,,,,,,,,,,,,,,,,,,,,
295054,2022-12-05_12h07.04.794,vts_reward_expectancy_bt,2022.2.4,Win32,59.81934558,Chrome,1504,1003,,,,,10,613,,,,,,,,,,,,,,,,,125,H,triangle,1,0,,,,,,,,,,,,,,,,repeat,letter,lettRpt,j,1.0221,Lo,,,,,,0,,,,,,space,18.8884,low,0,0,0,0,1,,,,,,,,,
295054,2022-12-05_12h07.04.794,vts_reward_expectancy_bt,2022.2.4,Win32,59.81934558,Chrome,1504,1003,,,,,0,613,,,,,,,,,,,,,,,,,167,D,star,1,0,,,,,,,,,,,,,,,,repeat,letter,lettRpt,j,1.0514,Hi,,,,,,0,,,,,,,,low,1,0,1,0,1,,,,,,,,,
295054,2022-12-05_12h07.04.794,vts_reward_expectancy_bt,2022.2.4,Win32,59.81934558,Chrome,1504,1003,,,,,1,614,,,,,,,,,,,,,,,,,174,F,hexagon,1,0,,,,,,,,,,,,,,,,switch,number,numSwt,f,0.9644,Lo,,,,,,0,,,,,,,,low,2,0,2,0,1,,,,,,,,,
295054,2022-12-05_12h07.04.794,vts_reward_expectancy_bt,2022.2.4,Win32,59.81934558,Chrome,1504,1003,,,,,0,614,,,,,,,,,,,,,,,,,132,U,circle,1,0,,,,,,,,,,,,,,,,repeat,number,numRpt,d,0.9018,Hi,,,,,,0,,,,,,,,low,3,0,3,0,1,,,,,,,,,
295054,2022-12-05_12h07.04.794,vts_reward_expectancy_bt,2022.2.4,Win32,59.81934558,Chrome,1504,1003,,,,,10,624,,,,,,,,,,,,,,,,,139,Y,triangle,1,0,,,,,,,,,,,,,,,,repeat,number,numRpt,d,0.8823,Lo,,,,,,0,,,,,,,,low,4,0,4,0,1,,,,,,,,,
295054,2022-12-05_12h07.04.794,vts_reward_expectancy_bt,2022.2.4,Win32,59.81934558,Chrome,1504,1003,,,,,10,634,,,,,,,,,,,,,,,,,181,B,star,1,0,,,,,,,,,,,,,,,,switch,letter,lettSwt,j,0.5755,Hi,,,,,,0,,,,,,,,low,5,0,5,0,1,,,,,,,,,
295054,2022-12-05_12h07.04.794,vts_reward_expectancy_bt,2022.2.4,Win32,59.81934558,Chrome,1504,1003,,,,,1,635,,,,,,,,,,,,,,,,,146,W,hexagon,1,0,,,,,,,,,,,,,,,,repeat,letter,lettRpt,k,0.5044,Lo,,,,,,0,,,,,,,,low,6,0,6,0,1,,,,,,,,,
295054,2022-12-05_12h07.04.794,vts_reward_expectancy_bt,2022.2.4,Win32,59.81934558,Chrome,1504,1003,,,,,10,645,,,,,,,,,,,,,,,,,160,S,circle,1,0,,,,,,,,,,,,,,,,switch,number,numSwt,f,0.5838,Hi,,,,,,0,,,,,,,,low,7,0,7,0,1,,,,,,,,,
295054,2022-12-05_12h07.04.794,vts_reward_expectancy_bt,2022.2.4,Win32,59.81934558,Chrome,1504,1003,,,,,1,646,,,,,,,,,,,,,,,,,125,H,triangle,1,0,,,,,,,,,,,,,,,,switch,letter,lettSwt,j,0.9176,Lo,,,,,,0,,,,,,,,low,8,0,8,0,1,,,,,,,,,
295054,2022-12-05_12h07.04.794,vts_reward_expectancy_bt,2022.2.4,Win32,59.81934558,Chrome,1504,1003,,,,,10,656,,,,,,,,,,,,,,,,,167,D,circle,1,0,,,,,,,,,,,,,,,,switch,number,numSwt,f,0.7681,Hi,,,,,,0,,,,,,,,low,9,0,9,0,1,,,,,,,,,
295054,2022-12-05_12h07.04.794,vts_reward_expectancy_bt,2022.2.4,Win32,59.81934558,Chrome,1504,1003,,,,,1,657,,,,,,,,,,,,,,,,,174,F,hexagon,1,0,,,,,,,,,,,,,,,,repeat,number,numRpt,f,0.6437,Lo,,,,,,0,,,,,,,,low,10,0,10,0,1,,,,,,,,,
295054,2022-12-05_12h07.04.794,vts_reward_expectancy_bt,2022.2.4,Win32,59.81934558,Chrome,1504,1003,,,,,1,658,,,,,,,,,,,,,,,,,132,U,star,1,0,,,,,,,,,,,,,,,,repeat,number,numRpt,d,0.5844,Hi,,,,,,0,,,,,,,,low,11,0,11,0,1,,,,,,,,,
295054,2022-12-05_12h07.04.794,vts_reward_expectancy_bt,2022.2.4,Win32,59.81934558,Chrome,1504,1003,,,,,10,668,,,,,,,,,,,,,,,,,139,Y,star,1,0,,,,,,,,,,,,,,,,switch,letter,lettSwt,k,0.4603,Hi,,,,,,0,,,,,,,,low,12,0,12,0,1,,,,,,,,,
295054,2022-12-05_12h07.04.794,vts_reward_expectancy_bt,2022.2.4,Win32,59.81934558,Chrome,1504,1003,,,,,1,669,,,,,,,,,,,,,,,,,181,B,triangle,1,0,,,,,,,,,,,,,,,,repeat,letter,lettRpt,j,0.4244,Lo,,,,,,0,,,,,,,,low,13,0,13,0,1,,,,,,,,,
295054,2022-12-05_12h07.04.794,vts_reward_expectancy_bt,2022.2.4,Win32,59.81934558,Chrome,1504,1003,,,,,10,679,,,,,,,,,,,,,,,,,146,W,circle,1,0,,,,,,,,,,,,,,,,switch,number,numSwt,d,0.8341,Hi,,,,,,0,,,,,,,,low,14,0,14,0,1,,,,,,,,,
295054,2022-12-05_12h07.04.794,vts_reward_expectancy_bt,2022.2.4,Win32,59.81934558,Chrome,1504,1003,,,,,1,680,,,,,,,,,,,,,,,,,160,S,hexagon,1,0,,,,,,,,,,,,,,,,repeat,number,numRpt,f,0.5241,Lo,,,,,,0,,,,,,,,low,15,0,15,0,1,,,,,,,,,
295054,2022-12-05_12h07.04.794,vts_reward_expectancy_bt,2022.2.4,Win32,59.81934558,Chrome,1504,1003,,,,,1,681,,,,,,,,,,,,,,,,,160,W,triangle,1,0,,,,,,,,,,,,,,,,repeat,number,numRpt,f,0.8925,Lo,,,,,,0,,,,,,,,low,16,0,16,0,1,,,,,,,,,
295054,2022-12-05_12h07.04.794,vts_reward_expectancy_bt,2022.2.4,Win32,59.81934558,Chrome,1504,1003,,,,,1,682,,,,,,,,,,,,,,,,,174,S,hexagon,1,0,,,,,,,,,,,,,,,,switch,letter,lettSwt,k,0.8936,Lo,,,,,,0,,,,,,,,low,17,0,17,0,1,,,,,,,,,
295054,2022-12-05_12h07.04.794,vts_reward_expectancy_bt,2022.2.4,Win32,59.81934558,Chrome,1504,1003,,,,,10,692,,,,,,,,,,,,,,,,,139,D,circle,1,0,,,,,,,,,,,,,,,,switch,number,numSwt,d,0.4719,Hi,,,,,,0,,,,,,,,low,18,0,18,0,1,,,,,,,,,
295054,2022-12-05_12h07.04.794,vts_reward_expectancy_bt,2022.2.4,Win32,59.81934558,Chrome,1504,1003,,,,,0,692,,,,,,,,,,,,,,,,,167,U,star,1,0,,,,,,,,,,,,,,,,repeat,number,numRpt,f,0.987,Hi,,,,,,0,,,,,,,,low,19,0,19,0,1,,,,,,,,,
295054,2022-12-05_12h07.04.794,vts_reward_expectancy_bt,2022.2.4,Win32,59.81934558,Chrome,1504,1003,,,,,10,702,,,,,,,,,,,,,,,,,146,B,star,1,0,,,,,,,,,,,,,,,,repeat,number,numRpt,d,0.3411,Hi,,,,,,0,,,,,,,,low,20,0,20,0,1,,,,,,,,,
295054,2022-12-05_12h07.04.794,vts_reward_expectancy_bt,2022.2.4,Win32,59.81934558,Chrome,1504,1003,,,,,1,703,,,,,,,,,,,,,,,,,181,F,triangle,1,0,,,,,,,,,,,,,,,,switch,letter,lettSwt,j,0.5616,Lo,,,,,,0,,,,,,,,low,21,0,21,0,1,,,,,,,,,
295054,2022-12-05_12h07.04.794,vts_reward_expectancy_bt,2022.2.4,Win32,59.81934558,Chrome,1504,1003,,,,,10,713,,,,,,,,,,,,,,,,,125,H,hexagon,1,0,,,,,,,,,,,,,,,,switch,number,numSwt,d,0.6395,Lo,,,,,,0,,,,,,,,low,22,0,22,0,1,,,,,,,,,
295054,2022-12-05_12h07.04.794,vts_reward_expectancy_bt,2022.2.4,Win32,59.81934558,Chrome,1504,1003,,,,,10,723,,,,,,,,,,,,,,,,,132,Y,circle,1,0,,,,,,,,,,,,,,,,repeat,number,numRpt,d,0.7705,Hi,,,,,,0,,,,,,,,low,23,0,23,0,1,,,,,,,,,
295054,2022-12-05_12h07.04.794,vts_reward_expectancy_bt,2022.2.4,Win32,59.81934558,Chrome,1504,1003,,,,,1,724,,,,,,,,,,,,,,,,,174,U,circle,1,0,,,,,,,,,,,,,,,,repeat,number,numRpt,f,0.6092,Hi,,,,,,0,,,,,,,,low,24,0,24,0,1,,,,,,,,,
295054,2022-12-05_12h07.04.794,vts_reward_expectancy_bt,2022.2.4,Win32,59.81934558,Chrome,1504,1003,,,,,1,725,,,,,,,,,,,,,,,,,125,Y,star,1,0,,,,,,,,,,,,,,,,repeat,number,numRpt,d,0.418,Hi,,,,,,0,,,,,,,,low,25,0,25,0,1,,,,,,,,,
295054,2022-12-05_12h07.04.794,vts_reward_expectancy_bt,2022.2.4,Win32,59.81934558,Chrome,1504,1003,,,,,10,735,,,,,,,,,,,,,,,,,132,S,hexagon,1,0,,,,,,,,,,,,,,,,switch,letter,lettSwt,k,0.8533,Lo,,,,,,0,,,,,,,,low,26,0,26,0,1,,,,,,,,,
295054,2022-12-05_12h07.04.794,vts_reward_expectancy_bt,2022.2.4,Win32,59.81934558,Chrome,1504,1003,,,,,1,736,,,,,,,,,,,,,,,,,139,H,triangle,1,0,,,,,,,,,,,,,,,,switch,number,numSwt,d,0.8846,Lo,,,,,,0,,,,,,,,low,27,0,27,0,1,,,,,,,,,
295054,2022-12-05_12h07.04.794,vts_reward_expectancy_bt,2022.2.4,Win32,59.81934558,Chrome,1504,1003,,,,,10,746,,,,,,,,,,,,,,,,,167,F,circle,1,0,,,,,,,,,,,,,,,,switch,letter,lettSwt,j,0.5173,Hi,,,,,,0,,,,,,,,low,28,0,28,0,1,,,,,,,,,
295054,2022-12-05_12h07.04.794,vts_reward_expectancy_bt,2022.2.4,Win32,59.81934558,Chrome,1504,1003,,,,,10,756,,,,,,,,,,,,,,,,,181,D,star,1,0,,,,,,,,,,,,,,,,switch,number,numSwt,f,0.4769,Hi,,,,,,0,,,,,,,,low,29,0,29,0,1,,,,,,,,,
295054,2022-12-05_12h07.04.794,vts_reward_expectancy_bt,2022.2.4,Win32,59.81934558,Chrome,1504,1003,,,,,10,766,,,,,,,,,,,,,,,,,146,B,triangle,1,0,,,,,,,,,,,,,,,,switch,letter,lettSwt,j,0.5008,Lo,,,,,,0,,,,,,,,low,30,0,30,0,1,,,,,,,,,
295054,2022-12-05_12h07.04.794,vts_reward_expectancy_bt,2022.2.4,Win32,59.81934558,Chrome,1504,1003,,,,,10,776,,,,,,,,,,,,,,,,,160,W,hexagon,1,0,,,,,,,,,,,,,,,,repeat,letter,lettRpt,k,0.5174,Lo,,,,,,0,,,,,,,,low,31,0,31,0,1,,,,,,,,,
295054,2022-12-05_12h07.04.794,vts_reward_expectancy_bt,2022.2.4,Win32,59.81934558,Chrome,1504,1003,,,,,0,776,,,,,,,,,,,,,,,,,167,U,circle,1,0,,,,,,,,,,,,,,,,switch,number,numSwt,f,0.6344,Hi,,,,,,1,,,,,,space,2.1348,low,0,0,0,0,1,,,,,,,,,
295054,2022-12-05_12h07.04.794,vts_reward_expectancy_bt,2022.2.4,Win32,59.81934558,Chrome,1504,1003,,,,,0,776,,,,,,,,,,,,,,,,,125,Y,star,1,0,,,,,,,,,,,,,,,,repeat,number,numRpt,d,0.6364,Hi,,,,,,1,,,,,,,,low,1,0,1,0,1,,,,,,,,,
295054,2022-12-05_12h07.04.794,vts_reward_expectancy_bt,2022.2.4,Win32,59.81934558,Chrome,1504,1003,,,,,1,777,,,,,,,,,,,,,,,,,160,W,hexagon,1,0,,,,,,,,,,,,,,,,repeat,number,numRpt,f,0.6176,Lo,,,,,,1,,,,,,,,low,2,0,2,0,1,,,,,,,,,
295054,2022-12-05_12h07.04.794,vts_reward_expectancy_bt,2022.2.4,Win32,59.81934558,Chrome,1504,1003,,,,,1,778,,,,,,,,,,,,,,,,,132,S,triangle,1,0,,,,,,,,,,,,,,,,switch,letter,lettSwt,k,0.5013,Lo,,,,,,1,,,,,,,,low,3,0,3,0,1,,,,,,,,,
295054,2022-12-05_12h07.04.794,vts_reward_expectancy_bt,2022.2.4,Win32,59.81934558,Chrome,1504,1003,,,,,1,779,,,,,,,,,,,,,,,,,139,F,circle,1,0,,,,,,,,,,,,,,,,switch,number,numSwt,d,0.4677,Hi,,,,,,1,,,,,,,,low,4,0,4,0,1,,,,,,,,,
295054,2022-12-05_12h07.04.794,vts_reward_expectancy_bt,2022.2.4,Win32,59.81934558,Chrome,1504,1003,,,,,10,789,,,,,,,,,,,,,,,,,181,B,star,1,0,,,,,,,,,,,,,,,,repeat,number,numRpt,f,0.368,Hi,,,,,,1,,,,,,,,low,5,0,5,0,1,,,,,,,,,
295054,2022-12-05_12h07.04.794,vts_reward_expectancy_bt,2022.2.4,Win32,59.81934558,Chrome,1504,1003,,,,,10,799,,,,,,,,,,,,,,,,,146,H,hexagon,1,0,,,,,,,,,,,,,,,,switch,letter,lettSwt,j,0.8026,Lo,,,,,,1,,,,,,,,low,6,0,6,0,1,,,,,,,,,
295054,2022-12-05_12h07.04.794,vts_reward_expectancy_bt,2022.2.4,Win32,59.81934558,Chrome,1504,1003,,,,,10,809,,,,,,,,,,,,,,,,,174,D,triangle,1,0,,,,,,,,,,,,,,,,switch,number,numSwt,f,0.6517,Lo,,,,,,1,,,,,,,,low,7,0,7,0,1,,,,,,,,,
295054,2022-12-05_12h07.04.794,vts_reward_expectancy_bt,2022.2.4,Win32,59.81934558,Chrome,1504,1003,,,,,0,809,,,,,,,,,,,,,,,,,167,U,circle,1,0,,,,,,,,,,,,,,,,repeat,number,numRpt,f,0.6511,Hi,,,,,,1,,,,,,,,low,8,0,8,0,1,,,,,,,,,
295054,2022-12-05_12h07.04.794,vts_reward_expectancy_bt,2022.2.4,Win32,59.81934558,Chrome,1504,1003,,,,,10,819,,,,,,,,,,,,,,,,,125,Y,triangle,1,0,,,,,,,,,,,,,,,,repeat,number,numRpt,d,0.3508,Lo,,,,,,1,,,,,,,,low,9,0,9,0,1,,,,,,,,,
295054,2022-12-05_12h07.04.794,vts_reward_expectancy_bt,2022.2.4,Win32,59.81934558,Chrome,1504,1003,,,,,0,819,,,,,,,,,,,,,,,,,160,W,star,1,0,,,,,,,,,,,,,,,,switch,letter,lettSwt,k,0.5502,Hi,,,,,,1,,,,,,,,low,10,0,10,0,1,,,,,,,,,
295054,2022-12-05_12h07.04.794,vts_reward_expectancy_bt,2022.2.4,Win32,59.81934558,Chrome,1504,1003,,,,,0,819,,,,,,,,,,,,,,,,,132,S,hexagon,0,0,,,,,,,,,,,,,,,,repeat,letter,NA,j,0.8695,Hi,,,,,,1,,,,,,,,low,11,0,11,0,1,,,,,,,,,
295054,2022-12-05_12h07.04.794,vts_reward_expectancy_bt,2022.2.4,Win32,59.81934558,Chrome,1504,1003,,,,,1,820,,,,,,,,,,,,,,,,,139,F,hexagon,1,1,,,,,,,,,,,,,,,,repeat,letter,lettRpt,j,0.584,Lo,,,,,,1,,,,,,,,low,12,0,12,0,1,,,,,,,,,
295054,2022-12-05_12h07.04.794,vts_reward_expectancy_bt,2022.2.4,Win32,59.81934558,Chrome,1504,1003,,,,,10,830,,,,,,,,,,,,,,,,,181,B,triangle,1,0,,,,,,,,,,,,,,,,switch,number,numSwt,f,0.5616,Lo,,,,,,1,,,,,,,,low,13,0,13,0,1,,,,,,,,,
295054,2022-12-05_12h07.04.794,vts_reward_expectancy_bt,2022.2.4,Win32,59.81934558,Chrome,1504,1003,,,,,1,831,,,,,,,,,,,,,,,,,146,H,star,1,0,,,,,,,,,,,,,,,,repeat,number,numRpt,d,0.5512,Hi,,,,,,1,,,,,,,,low,14,0,14,0,1,,,,,,,,,
295054,2022-12-05_12h07.04.794,vts_reward_expectancy_bt,2022.2.4,Win32,59.81934558,Chrome,1504,1003,,,,,0,831,,,,,,,,,,,,,,,,,174,D,circle,1,0,,,,,,,,,,,,,,,,repeat,number,numRpt,f,0.6507,Hi,,,,,,1,,,,,,,,low,15,0,15,0,1,,,,,,,,,
295054,2022-12-05_12h07.04.794,vts_reward_expectancy_bt,2022.2.4,Win32,59.81934558,Chrome,1504,1003,,,,,1,832,,,,,,,,,,,,,,,,,146,F,triangle,1,0,,,,,,,,,,,,,,,,repeat,number,numRpt,d,0.5166,Lo,,,,,,1,,,,,,,,low,16,0,16,0,1,,,,,,,,,
295054,2022-12-05_12h07.04.794,vts_reward_expectancy_bt,2022.2.4,Win32,59.81934558,Chrome,1504,1003,,,,,1,833,,,,,,,,,,,,,,,,,181,S,star,1,0,,,,,,,,,,,,,,,,repeat,number,numRpt,f,0.3462,Hi,,,,,,1,,,,,,,,low,17,0,17,0,1,,,,,,,,,
295054,2022-12-05_12h07.04.794,vts_reward_expectancy_bt,2022.2.4,Win32,59.81934558,Chrome,1504,1003,,,,,1,834,,,,,,,,,,,,,,,,,132,W,hexagon,1,0,,,,,,,,,,,,,,,,switch,letter,lettSwt,k,0.415,Lo,,,,,,1,,,,,,,,low,18,0,18,0,1,,,,,,,,,
295054,2022-12-05_12h07.04.794,vts_reward_expectancy_bt,2022.2.4,Win32,59.81934558,Chrome,1504,1003,,,,,1,835,,,,,,,,,,,,,,,,,160,U,circle,1,0,,,,,,,,,,,,,,,,repeat,letter,lettRpt,k,0.4996,Hi,,,,,,1,,,,,,,,low,19,0,19,0,1,,,,,,,,,
295054,2022-12-05_12h07.04.794,vts_reward_expectancy_bt,2022.2.4,Win32,59.81934558,Chrome,1504,1003,,,,,1,836,,,,,,,,,,,,,,,,,125,Y,hexagon,1,0,,,,,,,,,,,,,,,,repeat,letter,lettRpt,k,0.471,Lo,,,,,,1,,,,,,,,low,20,0,20,0,1,,,,,,,,,
295054,2022-12-05_12h07.04.794,vts_reward_expectancy_bt,2022.2.4,Win32,59.81934558,Chrome,1504,1003,,,,,1,837,,,,,,,,,,,,,,,,,167,B,triangle,1,0,,,,,,,,,,,,,,,,switch,number,numSwt,f,0.4626,Lo,,,,,,1,,,,,,,,low,21,0,21,0,1,,,,,,,,,
295054,2022-12-05_12h07.04.794,vts_reward_expectancy_bt,2022.2.4,Win32,59.81934558,Chrome,1504,1003,,,,,10,847,,,,,,,,,,,,,,,,,139,H,star,1,0,,,,,,,,,,,,,,,,repeat,number,numRpt,d,0.4461,Hi,,,,,,1,,,,,,,,low,22,0,22,0,1,,,,,,,,,
295054,2022-12-05_12h07.04.794,vts_reward_expectancy_bt,2022.2.4,Win32,59.81934558,Chrome,1504,1003,,,,,10,857,,,,,,,,,,,,,,,,,174,D,circle,1,0,,,,,,,,,,,,,,,,repeat,number,numRpt,f,0.3635,Hi,,,,,,1,,,,,,,,low,23,0,23,0,1,,,,,,,,,
295054,2022-12-05_12h07.04.794,vts_reward_expectancy_bt,2022.2.4,Win32,59.81934558,Chrome,1504,1003,,,,,1,858,,,,,,,,,,,,,,,,,125,B,hexagon,1,0,,,,,,,,,,,,,,,,repeat,number,numRpt,d,0.4581,Lo,,,,,,1,,,,,,,,low,24,0,24,0,1,,,,,,,,,
295054,2022-12-05_12h07.04.794,vts_reward_expectancy_bt,2022.2.4,Win32,59.81934558,Chrome,1504,1003,,,,,1,859,,,,,,,,,,,,,,,,,167,H,circle,1,0,,,,,,,,,,,,,,,,repeat,number,numRpt,f,0.3877,Hi,,,,,,1,,,,,,,,low,25,0,25,0,1,,,,,,,,,
295054,2022-12-05_12h07.04.794,vts_reward_expectancy_bt,2022.2.4,Win32,59.81934558,Chrome,1504,1003,,,,,1,860,,,,,,,,,,,,,,,,,146,W,star,1,0,,,,,,,,,,,,,,,,switch,letter,lettSwt,k,0.4675,Hi,,,,,,1,,,,,,,,low,26,0,26,0,1,,,,,,,,,
295054,2022-12-05_12h07.04.794,vts_reward_expectancy_bt,2022.2.4,Win32,59.81934558,Chrome,1504,1003,,,,,1,861,,,,,,,,,,,,,,,,,139,S,triangle,1,0,,,,,,,,,,,,,,,,repeat,letter,lettRpt,k,0.8047,Lo,,,,,,1,,,,,,,,low,27,0,27,0,1,,,,,,,,,
295054,2022-12-05_12h07.04.794,vts_reward_expectancy_bt,2022.2.4,Win32,59.81934558,Chrome,1504,1003,,,,,10,871,,,,,,,,,,,,,,,,,132,F,triangle,1,0,,,,,,,,,,,,,,,,repeat,letter,lettRpt,j,0.4177,Lo,,,,,,1,,,,,,,,low,28,0,28,0,1,,,,,,,,,
295054,2022-12-05_12h07.04.794,vts_reward_expectancy_bt,2022.2.4,Win32,59.81934558,Chrome,1504,1003,,,,,1,872,,,,,,,,,,,,,,,,,181,Y,star,1,0,,,,,,,,,,,,,,,,switch,number,numSwt,f,0.4014,Hi,,,,,,1,,,,,,,,low,29,0,29,0,1,,,,,,,,,
295054,2022-12-05_12h07.04.794,vts_reward_expectancy_bt,2022.2.4,Win32,59.81934558,Chrome,1504,1003,,,,,0,872,,,,,,,,,,,,,,,,,174,U,circle,1,0,,,,,,,,,,,,,,,,repeat,number,numRpt,f,0.6343,Hi,,,,,,1,,,,,,,,low,30,0,30,0,1,,,,,,,,,
295054,2022-12-05_12h07.04.794,vts_reward_expectancy_bt,2022.2.4,Win32,59.81934558,Chrome,1504,1003,,,,,10,882,,,,,,,,,,,,,,,,,160,D,hexagon,1,0,,,,,,,,,,,,,,,,repeat,number,numRpt,f,0.4656,Lo,,,,,,1,,,,,,,,low,31,0,31,0,1,,,,,,,,,
295054,2022-12-05_12h07.04.794,vts_reward_expectancy_bt,2022.2.4,Win32,59.81934558,Chrome,1504,1003,,,,,0,882,,,,,,,,,,,,,,,,,146,U,star,0,0,,,,,,,,,,,,,,,,repeat,number,NA,f,0.4894,Lo,,,,,,2,,,,,,space,1.2645,low,0,0,0,0,1,,,,,,,,,
295054,2022-12-05_12h07.04.794,vts_reward_expectancy_bt,2022.2.4,Win32,59.81934558,Chrome,1504,1003,,,,,0,882,,,,,,,,,,,,,,,,,139,W,circle,1,1,,,,,,,,,,,,,,,,repeat,number,numRpt,d,0.5054,Hi,,,,,,2,,,,,,,,low,1,0,1,0,1,,,,,,,,,
295054,2022-12-05_12h07.04.794,vts_reward_expectancy_bt,2022.2.4,Win32,59.81934558,Chrome,1504,1003,,,,,1,883,,,,,,,,,,,,,,,,,160,H,triangle,1,0,,,,,,,,,,,,,,,,repeat,number,numRpt,f,0.3877,Lo,,,,,,2,,,,,,,,low,2,0,2,0,1,,,,,,,,,
295054,2022-12-05_12h07.04.794,vts_reward_expectancy_bt,2022.2.4,Win32,59.81934558,Chrome,1504,1003,,,,,1,884,,,,,,,,,,,,,,,,,132,F,hexagon,1,0,,,,,,,,,,,,,,,,repeat,number,numRpt,d,0.4202,Lo,,,,,,2,,,,,,,,low,3,0,3,0,1,,,,,,,,,
295054,2022-12-05_12h07.04.794,vts_reward_expectancy_bt,2022.2.4,Win32,59.81934558,Chrome,1504,1003,,,,,0,884,,,,,,,,,,,,,,,,,181,D,star,1,0,,,,,,,,,,,,,,,,switch,letter,lettSwt,j,0.6176,Hi,,,,,,2,,,,,,,,low,4,0,4,0,1,,,,,,,,,
295054,2022-12-05_12h07.04.794,vts_reward_expectancy_bt,2022.2.4,Win32,59.81934558,Chrome,1504,1003,,,,,10,894,,,,,,,,,,,,,,,,,125,S,circle,1,0,,,,,,,,,,,,,,,,repeat,letter,lettRpt,k,0.4536,Hi,,,,,,2,,,,,,,,low,5,0,5,0,1,,,,,,,,,
295054,2022-12-05_12h07.04.794,vts_reward_expectancy_bt,2022.2.4,Win32,59.81934558,Chrome,1504,1003,,,,,1,895,,,,,,,,,,,,,,,,,174,Y,triangle,1,0,,,,,,,,,,,,,,,,repeat,letter,lettRpt,k,0.4927,Lo,,,,,,2,,,,,,,,low,6,0,6,0,1,,,,,,,,,
295054,2022-12-05_12h07.04.794,vts_reward_expectancy_bt,2022.2.4,Win32,59.81934558,Chrome,1504,1003,,,,,10,905,,,,,,,,,,,,,,,,,167,B,hexagon,1,0,,,,,,,,,,,,,,,,repeat,letter,lettRpt,j,0.4507,Lo,,,,,,2,,,,,,,,low,7,0,7,0,1,,,,,,,,,
295054,2022-12-05_12h07.04.794,vts_reward_expectancy_bt,2022.2.4,Win32,59.81934558,Chrome,1504,1003,,,,,10,915,,,,,,,,,,,,,,,,,146,U,hexagon,1,0,,,,,,,,,,,,,,,,switch,number,numSwt,d,0.5683,Lo,,,,,,2,,,,,,,,low,8,0,8,0,1,,,,,,,,,
295054,2022-12-05_12h07.04.794,vts_reward_expectancy_bt,2022.2.4,Win32,59.81934558,Chrome,1504,1003,,,,,1,916,,,,,,,,,,,,,,,,,139,W,star,1,0,,,,,,,,,,,,,,,,repeat,number,numRpt,d,0.4072,Hi,,,,,,2,,,,,,,,low,9,0,9,0,1,,,,,,,,,
295054,2022-12-05_12h07.04.794,vts_reward_expectancy_bt,2022.2.4,Win32,59.81934558,Chrome,1504,1003,,,,,10,926,,,,,,,,,,,,,,,,,160,H,triangle,1,0,,,,,,,,,,,,,,,,repeat,number,numRpt,f,0.2699,Lo,,,,,,2,,,,,,,,low,10,0,10,0,1,,,,,,,,,
295054,2022-12-05_12h07.04.794,vts_reward_expectancy_bt,2022.2.4,Win32,59.81934558,Chrome,1504,1003,,,,,1,927,,,,,,,,,,,,,,,,,132,F,circle,1,0,,,,,,,,,,,,,,,,repeat,number,numRpt,d,0.307,Hi,,,,,,2,,,,,,,,low,11,0,11,0,1,,,,,,,,,
295054,2022-12-05_12h07.04.794,vts_reward_expectancy_bt,2022.2.4,Win32,59.81934558,Chrome,1504,1003,,,,,0,927,,,,,,,,,,,,,,,,,181,D,star,1,0,,,,,,,,,,,,,,,,switch,letter,lettSwt,j,0.4841,Hi,,,,,,2,,,,,,,,low,12,0,12,0,1,,,,,,,,,
295054,2022-12-05_12h07.04.794,vts_reward_expectancy_bt,2022.2.4,Win32,59.81934558,Chrome,1504,1003,,,,,10,937,,,,,,,,,,,,,,,,,125,S,triangle,1,0,,,,,,,,,,,,,,,,switch,number,numSwt,d,0.485,Lo,,,,,,2,,,,,,,,low,13,0,13,0,1,,,,,,,,,
295054,2022-12-05_12h07.04.794,vts_reward_expectancy_bt,2022.2.4,Win32,59.81934558,Chrome,1504,1003,,,,,10,947,,,,,,,,,,,,,,,,,174,Y,circle,1,0,,,,,,,,,,,,,,,,repeat,number,numRpt,f,0.334,Hi,,,,,,2,,,,,,,,low,14,0,14,0,1,,,,,,,,,
295054,2022-12-05_12h07.04.794,vts_reward_expectancy_bt,2022.2.4,Win32,59.81934558,Chrome,1504,1003,,,,,1,948,,,,,,,,,,,,,,,,,167,B,hexagon,1,0,,,,,,,,,,,,,,,,repeat,number,numRpt,f,0.4287,Lo,,,,,,2,,,,,,,,low,15,0,15,0,1,,,,,,,,,
295054,2022-12-05_12h07.04.794,vts_reward_expectancy_bt,2022.2.4,Win32,59.81934558,Chrome,1504,1003,,,,,10,958,,,,,,,,,,,,,,,,,125,Y,triangle,1,0,,,,,,,,,,,,,,,,switch,letter,lettSwt,k,0.4917,Lo,,,,,,2,,,,,,,,low,16,0,16,0,1,,,,,,,,,
295054,2022-12-05_12h07.04.794,vts_reward_expectancy_bt,2022.2.4,Win32,59.81934558,Chrome,1504,1003,,,,,1,959,,,,,,,,,,,,,,,,,167,W,hexagon,1,0,,,,,,,,,,,,,,,,switch,number,numSwt,f,0.3683,Lo,,,,,,2,,,,,,,,low,17,0,17,0,1,,,,,,,,,
295054,2022-12-05_12h07.04.794,vts_reward_expectancy_bt,2022.2.4,Win32,59.81934558,Chrome,1504,1003,,,,,0,959,,,,,,,,,,,,,,,,,146,U,circle,0,0,,,,,,,,,,,,,,,,switch,letter,NA,j,0.3923,Lo,,,,,,2,,,,,,,,low,18,0,18,0,1,,,,,,,,,
295054,2022-12-05_12h07.04.794,vts_reward_expectancy_bt,2022.2.4,Win32,59.81934558,Chrome,1504,1003,,,,,0,959,,,,,,,,,,,,,,,,,139,D,star,1,1,,,,,,,,,,,,,,,,repeat,letter,lettRpt,j,0.6175,Hi,,,,,,2,,,,,,,,low,19,0,19,0,1,,,,,,,,,
295054,2022-12-05_12h07.04.794,vts_reward_expectancy_bt,2022.2.4,Win32,59.81934558,Chrome,1504,1003,,,,,0,959,,,,,,,,,,,,,,,,,132,S,star,1,0,,,,,,,,,,,,,,,,switch,number,numSwt,d,0.521,Hi,,,,,,2,,,,,,,,low,20,0,20,0,1,,,,,,,,,
295054,2022-12-05_12h07.04.794,vts_reward_expectancy_bt,2022.2.4,Win32,59.81934558,Chrome,1504,1003,,,,,0,959,,,,,,,,,,,,,,,,,160,F,circle,1,0,,,,,,,,,,,,,,,,repeat,number,numRpt,f,0.4273,Hi,,,,,,2,,,,,,,,low,21,0,21,0,1,,,,,,,,,
295054,2022-12-05_12h07.04.794,vts_reward_expectancy_bt,2022.2.4,Win32,59.81934558,Chrome,1504,1003,,,,,1,960,,,,,,,,,,,,,,,,,174,H,hexagon,1,0,,,,,,,,,,,,,,,,repeat,number,numRpt,f,0.4178,Lo,,,,,,2,,,,,,,,low,22,0,22,0,1,,,,,,,,,
295054,2022-12-05_12h07.04.794,vts_reward_expectancy_bt,2022.2.4,Win32,59.81934558,Chrome,1504,1003,,,,,1,961,,,,,,,,,,,,,,,,,181,B,triangle,1,0,,,,,,,,,,,,,,,,repeat,number,numRpt,f,0.3679,Lo,,,,,,2,,,,,,,,low,23,0,23,0,1,,,,,,,,,
295054,2022-12-05_12h07.04.794,vts_reward_expectancy_bt,2022.2.4,Win32,59.81934558,Chrome,1504,1003,,,,,0,961,,,,,,,,,,,,,,,,,146,W,star,1,0,,,,,,,,,,,,,,,,repeat,number,numRpt,d,0.5205,Hi,,,,,,2,,,,,,,,low,24,0,24,0,1,,,,,,,,,
295054,2022-12-05_12h07.04.794,vts_reward_expectancy_bt,2022.2.4,Win32,59.81934558,Chrome,1504,1003,,,,,1,962,,,,,,,,,,,,,,,,,174,H,hexagon,1,0,,,,,,,,,,,,,,,,repeat,number,numRpt,f,0.3673,Lo,,,,,,2,,,,,,,,low,25,0,25,0,1,,,,,,,,,
295054,2022-12-05_12h07.04.794,vts_reward_expectancy_bt,2022.2.4,Win32,59.81934558,Chrome,1504,1003,,,,,10,972,,,,,,,,,,,,,,,,,139,B,triangle,1,0,,,,,,,,,,,,,,,,repeat,number,numRpt,d,0.4835,Lo,,,,,,2,,,,,,,,low,26,0,26,0,1,,,,,,,,,
295054,2022-12-05_12h07.04.794,vts_reward_expectancy_bt,2022.2.4,Win32,59.81934558,Chrome,1504,1003,,,,,0,972,,,,,,,,,,,,,,,,,132,Y,circle,1,0,,,,,,,,,,,,,,,,repeat,number,numRpt,d,0.529,Hi,,,,,,2,,,,,,,,low,27,0,27,0,1,,,,,,,,,
295054,2022-12-05_12h07.04.794,vts_reward_expectancy_bt,2022.2.4,Win32,59.81934558,Chrome,1504,1003,,,,,1,973,,,,,,,,,,,,,,,,,160,D,triangle,1,0,,,,,,,,,,,,,,,,switch,letter,lettSwt,j,0.3882,Lo,,,,,,2,,,,,,,,low,28,0,28,0,1,,,,,,,,,
295054,2022-12-05_12h07.04.794,vts_reward_expectancy_bt,2022.2.4,Win32,59.81934558,Chrome,1504,1003,,,,,1,974,,,,,,,,,,,,,,,,,125,F,hexagon,1,0,,,,,,,,,,,,,,,,repeat,letter,lettRpt,j,0.6009,Lo,,,,,,2,,,,,,,,low,29,0,29,0,1,,,,,,,,,
295054,2022-12-05_12h07.04.794,vts_reward_expectancy_bt,2022.2.4,Win32,59.81934558,Chrome,1504,1003,,,,,0,974,,,,,,,,,,,,,,,,,181,S,circle,1,0,,,,,,,,,,,,,,,,repeat,letter,lettRpt,k,0.5288,Hi,,,,,,2,,,,,,,,low,30,0,30,0,1,,,,,,,,,
295054,2022-12-05_12h07.04.794,vts_reward_expectancy_bt,2022.2.4,Win32,59.81934558,Chrome,1504,1003,,,,,10,984,,,,,,,,,,,,,,,,,167,U,star,1,0,,,,,,,,,,,,,,,,switch,number,numSwt,f,0.3964,Hi,,,,,,2,,,,,,,,low,31,0,31,0,1,,,,,,,,,
295054,2022-12-05_12h07.04.794,vts_reward_expectancy_bt,2022.2.4,Win32,59.81934558,Chrome,1504,1003,,,,,0,984,,,,,,,,,,,,,,,,,132,H,circle,0,0,,,,,,,,,,,,,,,,repeat,number,NA,f,0.449,Hi,,,,,,3,,,,,,space,1.0202,low,0,0,0,0,1,,,,,,,,,
295054,2022-12-05_12h07.04.794,vts_reward_expectancy_bt,2022.2.4,Win32,59.81934558,Chrome,1504,1003,,,,,0,984,,,,,,,,,,,,,,,,,125,U,star,1,1,,,,,,,,,,,,,,,,repeat,number,numRpt,d,0.4801,Hi,,,,,,3,,,,,,,,low,1,0,1,0,1,,,,,,,,,
295054,2022-12-05_12h07.04.794,vts_reward_expectancy_bt,2022.2.4,Win32,59.81934558,Chrome,1504,1003,,,,,0,984,,,,,,,,,,,,,,,,,146,Y,triangle,0,0,,,,,,,,,,,,,,,,repeat,number,NA,f,0.4961,Hi,,,,,,3,,,,,,,,low,2,0,2,0,1,,,,,,,,,
295054,2022-12-05_12h07.04.794,vts_reward_expectancy_bt,2022.2.4,Win32,59.81934558,Chrome,1504,1003,,,,,1,985,,,,,,,,,,,,,,,,,167,B,hexagon,1,1,,,,,,,,,,,,,,,,repeat,number,numRpt,f,0.4017,Lo,,,,,,3,,,,,,,,low,3,0,3,0,1,,,,,,,,,
295054,2022-12-05_12h07.04.794,vts_reward_expectancy_bt,2022.2.4,Win32,59.81934558,Chrome,1504,1003,,,,,0,985,,,,,,,,,,,,,,,,,160,S,circle,1,0,,,,,,,,,,,,,,,,switch,letter,lettSwt,k,0.5281,Hi,,,,,,3,,,,,,,,low,4,0,4,0,1,,,,,,,,,
295054,2022-12-05_12h07.04.794,vts_reward_expectancy_bt,2022.2.4,Win32,59.81934558,Chrome,1504,1003,,,,,0,985,,,,,,,,,,,,,,,,,139,F,star,1,0,,,,,,,,,,,,,,,,repeat,letter,lettRpt,j,0.4817,Hi,,,,,,3,,,,,,,,low,5,0,5,0,1,,,,,,,,,
295054,2022-12-05_12h07.04.794,vts_reward_expectancy_bt,2022.2.4,Win32,59.81934558,Chrome,1504,1003,,,,,1,986,,,,,,,,,,,,,,,,,174,W,triangle,1,0,,,,,,,,,,,,,,,,switch,number,numSwt,f,0.5859,Lo,,,,,,3,,,,,,,,low,6,0,6,0,1,,,,,,,,,
295054,2022-12-05_12h07.04.794,vts_reward_expectancy_bt,2022.2.4,Win32,59.81934558,Chrome,1504,1003,,,,,1,987,,,,,,,,,,,,,,,,,181,D,hexagon,1,0,,,,,,,,,,,,,,,,repeat,number,numRpt,f,0.4614,Lo,,,,,,3,,,,,,,,low,7,0,7,0,1,,,,,,,,,
295054,2022-12-05_12h07.04.794,vts_reward_expectancy_bt,2022.2.4,Win32,59.81934558,Chrome,1504,1003,,,,,1,988,,,,,,,,,,,,,,,,,132,H,triangle,1,0,,,,,,,,,,,,,,,,repeat,number,numRpt,d,0.3625,Lo,,,,,,3,,,,,,,,low,8,0,8,0,1,,,,,,,,,
295054,2022-12-05_12h07.04.794,vts_reward_expectancy_bt,2022.2.4,Win32,59.81934558,Chrome,1504,1003,,,,,0,988,,,,,,,,,,,,,,,,,125,U,circle,1,0,,,,,,,,,,,,,,,,repeat,number,numRpt,d,0.4789,Hi,,,,,,3,,,,,,,,low,9,0,9,0,1,,,,,,,,,
295054,2022-12-05_12h07.04.794,vts_reward_expectancy_bt,2022.2.4,Win32,59.81934558,Chrome,1504,1003,,,,,1,989,,,,,,,,,,,,,,,,,146,Y,hexagon,1,0,,,,,,,,,,,,,,,,switch,letter,lettSwt,k,0.3964,Lo,,,,,,3,,,,,,,,low,10,0,10,0,1,,,,,,,,,
295054,2022-12-05_12h07.04.794,vts_reward_expectancy_bt,2022.2.4,Win32,59.81934558,Chrome,1504,1003,,,,,0,989,,,,,,,,,,,,,,,,,167,B,star,1,0,,,,,,,,,,,,,,,,switch,number,numSwt,f,0.4641,Hi,,,,,,3,,,,,,,,low,11,0,11,0,1,,,,,,,,,
295054,2022-12-05_12h07.04.794,vts_reward_expectancy_bt,2022.2.4,Win32,59.81934558,Chrome,1504,1003,,,,,1,990,,,,,,,,,,,,,,,,,160,S,hexagon,1,0,,,,,,,,,,,,,,,,repeat,number,numRpt,f,0.3781,Lo,,,,,,3,,,,,,,,low,12,0,12,0,1,,,,,,,,,
295054,2022-12-05_12h07.04.794,vts_reward_expectancy_bt,2022.2.4,Win32,59.81934558,Chrome,1504,1003,,,,,1,991,,,,,,,,,,,,,,,,,139,F,circle,1,0,,,,,,,,,,,,,,,,repeat,number,numRpt,d,0.3051,Hi,,,,,,3,,,,,,,,low,13,0,13,0,1,,,,,,,,,
295054,2022-12-05_12h07.04.794,vts_reward_expectancy_bt,2022.2.4,Win32,59.81934558,Chrome,1504,1003,,,,,10,1001,,,,,,,,,,,,,,,,,174,W,star,1,0,,,,,,,,,,,,,,,,repeat,number,numRpt,f,0.3469,Hi,,,,,,3,,,,,,,,low,14,0,14,0,1,,,,,,,,,
295054,2022-12-05_12h07.04.794,vts_reward_expectancy_bt,2022.2.4,Win32,59.81934558,Chrome,1504,1003,,,,,10,1011,,,,,,,,,,,,,,,,,181,D,triangle,1,0,,,,,,,,,,,,,,,,repeat,number,numRpt,f,0.3957,Lo,,,,,,3,,,,,,,,low,15,0,15,0,1,,,,,,,,,
295054,2022-12-05_12h07.04.794,vts_reward_expectancy_bt,2022.2.4,Win32,59.81934558,Chrome,1504,1003,,,,,0,1011,,,,,,,,,,,,,,,,,174,S,star,1,0,,,,,,,,,,,,,,,,repeat,number,numRpt,f,0.4638,Hi,,,,,,3,,,,,,,,low,16,0,16,0,1,,,,,,,,,
295054,2022-12-05_12h07.04.794,vts_reward_expectancy_bt,2022.2.4,Win32,59.81934558,Chrome,1504,1003,,,,,0,1011,,,,,,,,,,,,,,,,,146,F,circle,1,0,,,,,,,,,,,,,,,,repeat,number,numRpt,d,0.4892,Hi,,,,,,3,,,,,,,,low,17,0,17,0,1,,,,,,,,,
295054,2022-12-05_12h07.04.794,vts_reward_expectancy_bt,2022.2.4,Win32,59.81934558,Chrome,1504,1003,,,,,10,1021,,,,,,,,,,,,,,,,,167,B,hexagon,1,0,,,,,,,,,,,,,,,,repeat,number,numRpt,f,0.3435,Lo,,,,,,3,,,,,,,,low,18,0,18,0,1,,,,,,,,,
295054,2022-12-05_12h07.04.794,vts_reward_expectancy_bt,2022.2.4,Win32,59.81934558,Chrome,1504,1003,,,,,0,1021,,,,,,,,,,,,,,,,,125,D,triangle,0,0,,,,,,,,,,,,,,,,repeat,number,NA,f,0.3649,Lo,,,,,,3,,,,,,,,low,19,0,19,0,1,,,,,,,,,
295054,2022-12-05_12h07.04.794,vts_reward_expectancy_bt,2022.2.4,Win32,59.81934558,Chrome,1504,1003,,,,,10,1031,,,,,,,,,,,,,,,,,139,U,triangle,1,1,,,,,,,,,,,,,,,,switch,letter,lettSwt,k,0.4288,Lo,,,,,,3,,,,,,,,low,20,0,20,0,1,,,,,,,,,
295054,2022-12-05_12h07.04.794,vts_reward_expectancy_bt,2022.2.4,Win32,59.81934558,Chrome,1504,1003,,,,,10,1041,,,,,,,,,,,,,,,,,160,W,circle,1,0,,,,,,,,,,,,,,,,repeat,letter,lettRpt,k,0.399,Hi,,,,,,3,,,,,,,,low,21,0,21,0,1,,,,,,,,,
295054,2022-12-05_12h07.04.794,vts_reward_expectancy_bt,2022.2.4,Win32,59.81934558,Chrome,1504,1003,,,,,0,1041,,,,,,,,,,,,,,,,,181,H,star,0,0,,,,,,,,,,,,,,,,repeat,letter,NA,k,0.4701,Hi,,,,,,3,,,,,,,,low,22,0,22,0,1,,,,,,,,,
295054,2022-12-05_12h07.04.794,vts_reward_expectancy_bt,2022.2.4,Win32,59.81934558,Chrome,1504,1003,,,,,1,1042,,,,,,,,,,,,,,,,,132,Y,hexagon,1,1,,,,,,,,,,,,,,,,switch,number,numSwt,d,0.4649,Lo,,,,,,3,,,,,,,,low,23,0,23,0,1,,,,,,,,,
295054,2022-12-05_12h07.04.794,vts_reward_expectancy_bt,2022.2.4,Win32,59.81934558,Chrome,1504,1003,,,,,10,1052,,,,,,,,,,,,,,,,,139,B,triangle,1,0,,,,,,,,,,,,,,,,repeat,number,numRpt,d,0.4627,Lo,,,,,,3,,,,,,,,low,24,0,24,0,1,,,,,,,,,
295054,2022-12-05_12h07.04.794,vts_reward_expectancy_bt,2022.2.4,Win32,59.81934558,Chrome,1504,1003,,,,,0,1052,,,,,,,,,,,,,,,,,167,F,star,0,0,,,,,,,,,,,,,,,,switch,letter,NA,k,0.4011,Lo,,,,,,3,,,,,,,,low,25,0,25,0,1,,,,,,,,,
295054,2022-12-05_12h07.04.794,vts_reward_expectancy_bt,2022.2.4,Win32,59.81934558,Chrome,1504,1003,,,,,1,1053,,,,,,,,,,,,,,,,,160,U,hexagon,1,1,,,,,,,,,,,,,,,,repeat,letter,lettRpt,k,0.5289,Lo,,,,,,3,,,,,,,,low,26,0,26,0,1,,,,,,,,,
295054,2022-12-05_12h07.04.794,vts_reward_expectancy_bt,2022.2.4,Win32,59.81934558,Chrome,1504,1003,,,,,0,1053,,,,,,,,,,,,,,,,,146,H,circle,1,0,,,,,,,,,,,,,,,,switch,number,numSwt,d,0.4825,Hi,,,,,,3,,,,,,,,low,27,0,27,0,1,,,,,,,,,
295054,2022-12-05_12h07.04.794,vts_reward_expectancy_bt,2022.2.4,Win32,59.81934558,Chrome,1504,1003,,,,,0,1053,,,,,,,,,,,,,,,,,174,S,circle,1,0,,,,,,,,,,,,,,,,switch,letter,lettSwt,k,0.5865,Hi,,,,,,3,,,,,,,,low,28,0,28,0,1,,,,,,,,,
295054,2022-12-05_12h07.04.794,vts_reward_expectancy_bt,2022.2.4,Win32,59.81934558,Chrome,1504,1003,,,,,0,1053,,,,,,,,,,,,,,,,,125,Y,star,1,0,,,,,,,,,,,,,,,,repeat,letter,lettRpt,k,0.4822,Hi,,,,,,3,,,,,,,,low,29,0,29,0,1,,,,,,,,,
295054,2022-12-05_12h07.04.794,vts_reward_expectancy_bt,2022.2.4,Win32,59.81934558,Chrome,1504,1003,,,,,1,1054,,,,,,,,,,,,,,,,,132,W,triangle,1,0,,,,,,,,,,,,,,,,switch,number,numSwt,d,0.4976,Lo,,,,,,3,,,,,,,,low,30,0,30,0,1,,,,,,,,,
295054,2022-12-05_12h07.04.794,vts_reward_expectancy_bt,2022.2.4,Win32,59.81934558,Chrome,1504,1003,,,,,10,1064,,,,,,,,,,,,,,,,,181,D,hexagon,1,0,,,,,,,,,,,,,,,,repeat,number,numRpt,f,0.4453,Lo,,,,,,3,,,,,,,,low,31,0,31,0,1,,,,,,,,,
295054,2022-12-05_12h07.04.794,vts_reward_expectancy_bt,2022.2.4,Win32,59.81934558,Chrome,1504,1003,,,,,0,1064,,,,,,,,,,,,,,,,,125,H,star,1,0,,,,,,,,,,,,,,,,repeat,number,numRpt,d,0.4865,Hi,,,,,,4,,,,,,space,1.3307,low,0,0,0,0,1,,,,,,,,,
295054,2022-12-05_12h07.04.794,vts_reward_expectancy_bt,2022.2.4,Win32,59.81934558,Chrome,1504,1003,,,,,10,1074,,,,,,,,,,,,,,,,,167,W,triangle,1,0,,,,,,,,,,,,,,,,repeat,number,numRpt,f,0.4025,Lo,,,,,,4,,,,,,,,low,1,0,1,0,1,,,,,,,,,
295054,2022-12-05_12h07.04.794,vts_reward_expectancy_bt,2022.2.4,Win32,59.81934558,Chrome,1504,1003,,,,,1,1075,,,,,,,,,,,,,,,,,181,S,hexagon,1,0,,,,,,,,,,,,,,,,repeat,number,numRpt,f,0.4183,Lo,,,,,,4,,,,,,,,low,2,0,2,0,1,,,,,,,,,
295054,2022-12-05_12h07.04.794,vts_reward_expectancy_bt,2022.2.4,Win32,59.81934558,Chrome,1504,1003,,,,,0,1075,,,,,,,,,,,,,,,,,146,D,circle,0,0,,,,,,,,,,,,,,,,repeat,number,NA,f,0.3694,Lo,,,,,,4,,,,,,,,low,3,0,3,0,1,,,,,,,,,
295054,2022-12-05_12h07.04.794,vts_reward_expectancy_bt,2022.2.4,Win32,59.81934558,Chrome,1504,1003,,,,,0,1075,,,,,,,,,,,,,,,,,160,U,star,1,1,,,,,,,,,,,,,,,,switch,letter,lettSwt,k,0.5162,Hi,,,,,,4,,,,,,,,low,4,0,4,0,1,,,,,,,,,
295054,2022-12-05_12h07.04.794,vts_reward_expectancy_bt,2022.2.4,Win32,59.81934558,Chrome,1504,1003,,,,,1,1076,,,,,,,,,,,,,,,,,174,Y,triangle,1,0,,,,,,,,,,,,,,,,switch,number,numSwt,f,0.5317,Lo,,,,,,4,,,,,,,,low,5,0,5,0,1,,,,,,,,,
295054,2022-12-05_12h07.04.794,vts_reward_expectancy_bt,2022.2.4,Win32,59.81934558,Chrome,1504,1003,,,,,1,1077,,,,,,,,,,,,,,,,,132,F,hexagon,1,0,,,,,,,,,,,,,,,,repeat,number,numRpt,d,0.4626,Lo,,,,,,4,,,,,,,,low,6,0,6,0,1,,,,,,,,,
295054,2022-12-05_12h07.04.794,vts_reward_expectancy_bt,2022.2.4,Win32,59.81934558,Chrome,1504,1003,,,,,0,1077,,,,,,,,,,,,,,,,,139,B,circle,1,0,,,,,,,,,,,,,,,,switch,letter,lettSwt,j,0.519,Hi,,,,,,4,,,,,,,,low,7,0,7,0,1,,,,,,,,,
295054,2022-12-05_12h07.04.794,vts_reward_expectancy_bt,2022.2.4,Win32,59.81934558,Chrome,1504,1003,,,,,1,1078,,,,,,,,,,,,,,,,,125,H,hexagon,1,0,,,,,,,,,,,,,,,,switch,number,numSwt,d,0.5034,Lo,,,,,,4,,,,,,,,low,8,0,8,0,1,,,,,,,,,
295054,2022-12-05_12h07.04.794,vts_reward_expectancy_bt,2022.2.4,Win32,59.81934558,Chrome,1504,1003,,,,,0,1078,,,,,,,,,,,,,,,,,167,W,star,0,0,,,,,,,,,,,,,,,,repeat,number,NA,d,0.3945,Lo,,,,,,4,,,,,,,,low,9,0,9,0,1,,,,,,,,,
295054,2022-12-05_12h07.04.794,vts_reward_expectancy_bt,2022.2.4,Win32,59.81934558,Chrome,1504,1003,,,,,1,1079,,,,,,,,,,,,,,,,,181,S,triangle,1,1,,,,,,,,,,,,,,,,repeat,number,numRpt,f,0.5458,Lo,,,,,,4,,,,,,,,low,10,0,10,0,1,,,,,,,,,
295054,2022-12-05_12h07.04.794,vts_reward_expectancy_bt,2022.2.4,Win32,59.81934558,Chrome,1504,1003,,,,,0,1079,,,,,,,,,,,,,,,,,146,D,circle,1,0,,,,,,,,,,,,,,,,repeat,number,numRpt,d,0.477,Hi,,,,,,4,,,,,,,,low,11,0,11,0,1,,,,,,,,,
295054,2022-12-05_12h07.04.794,vts_reward_expectancy_bt,2022.2.4,Win32,59.81934558,Chrome,1504,1003,,,,,10,1089,,,,,,,,,,,,,,,,,160,U,circle,1,0,,,,,,,,,,,,,,,,switch,letter,lettSwt,k,0.3976,Hi,,,,,,4,,,,,,,,low,12,0,12,0,1,,,,,,,,,
295054,2022-12-05_12h07.04.794,vts_reward_expectancy_bt,2022.2.4,Win32,59.81934558,Chrome,1504,1003,,,,,1,1090,,,,,,,,,,,,,,,,,174,Y,star,1,0,,,,,,,,,,,,,,,,switch,number,numSwt,f,0.3969,Hi,,,,,,4,,,,,,,,low,13,0,13,0,1,,,,,,,,,
295054,2022-12-05_12h07.04.794,vts_reward_expectancy_bt,2022.2.4,Win32,59.81934558,Chrome,1504,1003,,,,,1,1091,,,,,,,,,,,,,,,,,132,F,hexagon,1,0,,,,,,,,,,,,,,,,switch,letter,lettSwt,j,0.5151,Lo,,,,,,4,,,,,,,,low,14,0,14,0,1,,,,,,,,,
295054,2022-12-05_12h07.04.794,vts_reward_expectancy_bt,2022.2.4,Win32,59.81934558,Chrome,1504,1003,,,,,1,1092,,,,,,,,,,,,,,,,,139,B,triangle,1,0,,,,,,,,,,,,,,,,switch,number,numSwt,d,0.5467,Lo,,,,,,4,,,,,,,,low,15,0,15,0,1,,,,,,,,,
295054,2022-12-05_12h07.04.794,vts_reward_expectancy_bt,2022.2.4,Win32,59.81934558,Chrome,1504,1003,,,,,1,1093,,,,,,,,,,,,,,,,,167,Y,star,1,0,,,,,,,,,,,,,,,,switch,letter,lettSwt,k,0.4278,Hi,,,,,,4,,,,,,,,low,16,0,16,0,1,,,,,,,,,
295054,2022-12-05_12h07.04.794,vts_reward_expectancy_bt,2022.2.4,Win32,59.81934558,Chrome,1504,1003,,,,,1,1094,,,,,,,,,,,,,,,,,146,D,hexagon,1,0,,,,,,,,,,,,,,,,switch,number,numSwt,d,0.5384,Lo,,,,,,4,,,,,,,,low,17,0,17,0,1,,,,,,,,,
295054,2022-12-05_12h07.04.794,vts_reward_expectancy_bt,2022.2.4,Win32,59.81934558,Chrome,1504,1003,,,,,0,1094,,,,,,,,,,,,,,,,,139,B,circle,1,0,,,,,,,,,,,,,,,,repeat,number,numRpt,d,0.5282,Hi,,,,,,4,,,,,,,,low,18,0,18,0,1,,,,,,,,,
295054,2022-12-05_12h07.04.794,vts_reward_expectancy_bt,2022.2.4,Win32,59.81934558,Chrome,1504,1003,,,,,1,1095,,,,,,,,,,,,,,,,,174,S,triangle,1,0,,,,,,,,,,,,,,,,repeat,number,numRpt,f,0.4492,Lo,,,,,,4,,,,,,,,low,19,0,19,0,1,,,,,,,,,
295054,2022-12-05_12h07.04.794,vts_reward_expectancy_bt,2022.2.4,Win32,59.81934558,Chrome,1504,1003,,,,,1,1096,,,,,,,,,,,,,,,,,181,H,circle,1,0,,,,,,,,,,,,,,,,repeat,number,numRpt,f,0.3793,Hi,,,,,,4,,,,,,,,low,20,0,20,0,1,,,,,,,,,
295054,2022-12-05_12h07.04.794,vts_reward_expectancy_bt,2022.2.4,Win32,59.81934558,Chrome,1504,1003,,,,,0,1096,,,,,,,,,,,,,,,,,125,U,star,1,0,,,,,,,,,,,,,,,,repeat,number,numRpt,d,0.497,Hi,,,,,,4,,,,,,,,low,21,0,21,0,1,,,,,,,,,
295054,2022-12-05_12h07.04.794,vts_reward_expectancy_bt,2022.2.4,Win32,59.81934558,Chrome,1504,1003,,,,,1,1097,,,,,,,,,,,,,,,,,160,F,triangle,1,0,,,,,,,,,,,,,,,,repeat,number,numRpt,f,0.3955,Lo,,,,,,4,,,,,,,,low,22,0,22,0,1,,,,,,,,,
295054,2022-12-05_12h07.04.794,vts_reward_expectancy_bt,2022.2.4,Win32,59.81934558,Chrome,1504,1003,,,,,10,1107,,,,,,,,,,,,,,,,,132,W,hexagon,1,0,,,,,,,,,,,,,,,,repeat,number,numRpt,d,0.5353,Lo,,,,,,4,,,,,,,,low,23,0,23,0,1,,,,,,,,,
295054,2022-12-05_12h07.04.794,vts_reward_expectancy_bt,2022.2.4,Win32,59.81934558,Chrome,1504,1003,,,,,1,1108,,,,,,,,,,,,,,,,,174,D,hexagon,1,0,,,,,,,,,,,,,,,,switch,letter,lettSwt,j,0.5215,Lo,,,,,,4,,,,,,,,low,24,0,24,0,1,,,,,,,,,
295054,2022-12-05_12h07.04.794,vts_reward_expectancy_bt,2022.2.4,Win32,59.81934558,Chrome,1504,1003,,,,,10,1118,,,,,,,,,,,,,,,,,181,U,star,1,0,,,,,,,,,,,,,,,,repeat,letter,lettRpt,k,0.4789,Hi,,,,,,4,,,,,,,,low,25,0,25,0,1,,,,,,,,,
295054,2022-12-05_12h07.04.794,vts_reward_expectancy_bt,2022.2.4,Win32,59.81934558,Chrome,1504,1003,,,,,1,1119,,,,,,,,,,,,,,,,,160,H,triangle,1,0,,,,,,,,,,,,,,,,repeat,letter,lettRpt,j,0.5457,Lo,,,,,,4,,,,,,,,low,26,0,26,0,1,,,,,,,,,
295054,2022-12-05_12h07.04.794,vts_reward_expectancy_bt,2022.2.4,Win32,59.81934558,Chrome,1504,1003,,,,,0,1119,,,,,,,,,,,,,,,,,132,S,circle,1,0,,,,,,,,,,,,,,,,repeat,letter,lettRpt,k,0.5989,Hi,,,,,,4,,,,,,,,low,27,0,27,0,1,,,,,,,,,
295054,2022-12-05_12h07.04.794,vts_reward_expectancy_bt,2022.2.4,Win32,59.81934558,Chrome,1504,1003,,,,,1,1120,,,,,,,,,,,,,,,,,139,W,hexagon,1,0,,,,,,,,,,,,,,,,repeat,letter,lettRpt,k,0.4842,Lo,,,,,,4,,,,,,,,low,28,0,28,0,1,,,,,,,,,
295054,2022-12-05_12h07.04.794,vts_reward_expectancy_bt,2022.2.4,Win32,59.81934558,Chrome,1504,1003,,,,,1,1121,,,,,,,,,,,,,,,,,167,F,circle,1,0,,,,,,,,,,,,,,,,repeat,letter,lettRpt,j,0.3469,Hi,,,,,,4,,,,,,,,low,29,0,29,0,1,,,,,,,,,
295054,2022-12-05_12h07.04.794,vts_reward_expectancy_bt,2022.2.4,Win32,59.81934558,Chrome,1504,1003,,,,,0,1121,,,,,,,,,,,,,,,,,125,B,star,1,0,,,,,,,,,,,,,,,,switch,number,numSwt,d,0.4867,Hi,,,,,,4,,,,,,,,low,30,0,30,0,1,,,,,,,,,
295054,2022-12-05_12h07.04.794,vts_reward_expectancy_bt,2022.2.4,Win32,59.81934558,Chrome,1504,1003,,,,,1,1122,,,,,,,,,,,,,,,,,146,Y,triangle,1,0,,,,,,,,,,,,,,,,repeat,number,numRpt,d,0.5445,Lo,,,,,,4,,,,,,,,low,31,0,31,0,1,,,,,,,,,
295054,2022-12-05_12h07.04.794,vts_reward_expectancy_bt,2022.2.4,Win32,59.81934558,Chrome,1504,1003,,,,,0,1122,,,,,,,,,,,,,,,,,139,F,circle,1,0,,,,,,,,,,,,,,,,repeat,number,numRpt,d,0.6044,Hi,,,,,,5,,,,,,space,0.7985,low,0,0,0,0,1,,,,,,,,,
295054,2022-12-05_12h07.04.794,vts_reward_expectancy_bt,2022.2.4,Win32,59.81934558,Chrome,1504,1003,,,,,1,1123,,,,,,,,,,,,,,,,,174,H,triangle,1,0,,,,,,,,,,,,,,,,repeat,number,numRpt,f,0.4,Lo,,,,,,5,,,,,,,,low,1,0,1,0,1,,,,,,,,,
295054,2022-12-05_12h07.04.794,vts_reward_expectancy_bt,2022.2.4,Win32,59.81934558,Chrome,1504,1003,,,,,1,1124,,,,,,,,,,,,,,,,,167,D,star,1,0,,,,,,,,,,,,,,,,switch,letter,lettSwt,j,0.3796,Hi,,,,,,5,,,,,,,,low,2,0,2,0,1,,,,,,,,,
295054,2022-12-05_12h07.04.794,vts_reward_expectancy_bt,2022.2.4,Win32,59.81934558,Chrome,1504,1003,,,,,1,1125,,,,,,,,,,,,,,,,,160,S,hexagon,1,0,,,,,,,,,,,,,,,,repeat,letter,lettRpt,k,0.3858,Lo,,,,,,5,,,,,,,,low,3,0,3,0,1,,,,,,,,,
295054,2022-12-05_12h07.04.794,vts_reward_expectancy_bt,2022.2.4,Win32,59.81934558,Chrome,1504,1003,,,,,0,1125,,,,,,,,,,,,,,,,,181,B,circle,0,0,,,,,,,,,,,,,,,,repeat,letter,NA,k,0.4624,Lo,,,,,,5,,,,,,,,low,4,0,4,0,1,,,,,,,,,
295054,2022-12-05_12h07.04.794,vts_reward_expectancy_bt,2022.2.4,Win32,59.81934558,Chrome,1504,1003,,,,,1,1126,,,,,,,,,,,,,,,,,132,U,triangle,1,1,,,,,,,,,,,,,,,,repeat,letter,lettRpt,k,0.5491,Lo,,,,,,5,,,,,,,,low,5,0,5,0,1,,,,,,,,,
295054,2022-12-05_12h07.04.794,vts_reward_expectancy_bt,2022.2.4,Win32,59.81934558,Chrome,1504,1003,,,,,1,1127,,,,,,,,,,,,,,,,,125,Y,star,1,0,,,,,,,,,,,,,,,,repeat,letter,lettRpt,k,0.4633,Hi,,,,,,5,,,,,,,,low,6,0,6,0,1,,,,,,,,,
295054,2022-12-05_12h07.04.794,vts_reward_expectancy_bt,2022.2.4,Win32,59.81934558,Chrome,1504,1003,,,,,1,1128,,,,,,,,,,,,,,,,,146,W,hexagon,1,0,,,,,,,,,,,,,,,,switch,number,numSwt,d,0.6639,Lo,,,,,,5,,,,,,,,low,7,0,7,0,1,,,,,,,,,
295054,2022-12-05_12h07.04.794,vts_reward_expectancy_bt,2022.2.4,Win32,59.81934558,Chrome,1504,1003,,,,,10,1138,,,,,,,,,,,,,,,,,139,F,triangle,1,0,,,,,,,,,,,,,,,,repeat,number,numRpt,d,0.5465,Lo,,,,,,5,,,,,,,,low,8,0,8,0,1,,,,,,,,,
295054,2022-12-05_12h07.04.794,vts_reward_expectancy_bt,2022.2.4,Win32,59.81934558,Chrome,1504,1003,,,,,1,1139,,,,,,,,,,,,,,,,,174,H,circle,1,0,,,,,,,,,,,,,,,,repeat,number,numRpt,f,0.3495,Hi,,,,,,5,,,,,,,,low,9,0,9,0,1,,,,,,,,,
295054,2022-12-05_12h07.04.794,vts_reward_expectancy_bt,2022.2.4,Win32,59.81934558,Chrome,1504,1003,,,,,10,1149,,,,,,,,,,,,,,,,,167,D,hexagon,1,0,,,,,,,,,,,,,,,,repeat,number,numRpt,f,0.3964,Lo,,,,,,5,,,,,,,,low,10,0,10,0,1,,,,,,,,,
295054,2022-12-05_12h07.04.794,vts_reward_expectancy_bt,2022.2.4,Win32,59.81934558,Chrome,1504,1003,,,,,0,1149,,,,,,,,,,,,,,,,,160,S,star,1,0,,,,,,,,,,,,,,,,repeat,number,numRpt,f,0.5117,Hi,,,,,,5,,,,,,,,low,11,0,11,0,1,,,,,,,,,
295054,2022-12-05_12h07.04.794,vts_reward_expectancy_bt,2022.2.4,Win32,59.81934558,Chrome,1504,1003,,,,,0,1149,,,,,,,,,,,,,,,,,181,B,triangle,0,0,,,,,,,,,,,,,,,,repeat,number,NA,d,0.3631,Hi,,,,,,5,,,,,,,,low,12,0,12,0,1,,,,,,,,,
295054,2022-12-05_12h07.04.794,vts_reward_expectancy_bt,2022.2.4,Win32,59.81934558,Chrome,1504,1003,,,,,0,1149,,,,,,,,,,,,,,,,,132,U,star,1,1,,,,,,,,,,,,,,,,switch,letter,lettSwt,k,0.5366,Hi,,,,,,5,,,,,,,,low,13,0,13,0,1,,,,,,,,,
295054,2022-12-05_12h07.04.794,vts_reward_expectancy_bt,2022.2.4,Win32,59.81934558,Chrome,1504,1003,,,,,1,1150,,,,,,,,,,,,,,,,,125,Y,circle,1,0,,,,,,,,,,,,,,,,repeat,letter,lettRpt,k,0.4453,Hi,,,,,,5,,,,,,,,low,14,0,14,0,1,,,,,,,,,
295054,2022-12-05_12h07.04.794,vts_reward_expectancy_bt,2022.2.4,Win32,59.81934558,Chrome,1504,1003,,,,,1,1151,,,,,,,,,,,,,,,,,146,W,hexagon,1,0,,,,,,,,,,,,,,,,repeat,letter,lettRpt,k,0.3965,Lo,,,,,,5,,,,,,,,low,15,0,15,0,1,,,,,,,,,
295054,2022-12-05_12h07.04.794,vts_reward_expectancy_bt,2022.2.4,Win32,59.81934558,Chrome,1504,1003,,,,,0,1151,,,,,,,,,,,,,,,,,174,D,circle,0,0,,,,,,,,,,,,,,,,repeat,letter,NA,k,0.3949,Lo,,,,,,5,,,,,,,,low,16,0,16,0,1,,,,,,,,,
295054,2022-12-05_12h07.04.794,vts_reward_expectancy_bt,2022.2.4,Win32,59.81934558,Chrome,1504,1003,,,,,1,1152,,,,,,,,,,,,,,,,,167,F,hexagon,1,1,,,,,,,,,,,,,,,,switch,number,numSwt,f,0.4303,Lo,,,,,,5,,,,,,,,low,17,0,17,0,1,,,,,,,,,
295054,2022-12-05_12h07.04.794,vts_reward_expectancy_bt,2022.2.4,Win32,59.81934558,Chrome,1504,1003,,,,,0,1152,,,,,,,,,,,,,,,,,139,B,star,1,0,,,,,,,,,,,,,,,,repeat,number,numRpt,d,0.4635,Hi,,,,,,5,,,,,,,,low,18,0,18,0,1,,,,,,,,,
295054,2022-12-05_12h07.04.794,vts_reward_expectancy_bt,2022.2.4,Win32,59.81934558,Chrome,1504,1003,,,,,0,1152,,,,,,,,,,,,,,,,,146,S,triangle,0,0,,,,,,,,,,,,,,,,repeat,number,NA,f,0.3325,Hi,,,,,,5,,,,,,,,low,19,0,19,0,1,,,,,,,,,
295054,2022-12-05_12h07.04.794,vts_reward_expectancy_bt,2022.2.4,Win32,59.81934558,Chrome,1504,1003,,,,,1,1153,,,,,,,,,,,,,,,,,160,U,star,1,1,,,,,,,,,,,,,,,,repeat,number,numRpt,f,0.3967,Hi,,,,,,5,,,,,,,,low,20,0,20,0,1,,,,,,,,,
295054,2022-12-05_12h07.04.794,vts_reward_expectancy_bt,2022.2.4,Win32,59.81934558,Chrome,1504,1003,,,,,1,1154,,,,,,,,,,,,,,,,,132,H,triangle,1,0,,,,,,,,,,,,,,,,repeat,number,numRpt,d,0.5442,Lo,,,,,,5,,,,,,,,low,21,0,21,0,1,,,,,,,,,
295054,2022-12-05_12h07.04.794,vts_reward_expectancy_bt,2022.2.4,Win32,59.81934558,Chrome,1504,1003,,,,,10,1164,,,,,,,,,,,,,,,,,125,Y,hexagon,1,0,,,,,,,,,,,,,,,,repeat,number,numRpt,d,0.4457,Lo,,,,,,5,,,,,,,,low,22,0,22,0,1,,,,,,,,,
295054,2022-12-05_12h07.04.794,vts_reward_expectancy_bt,2022.2.4,Win32,59.81934558,Chrome,1504,1003,,,,,0,1164,,,,,,,,,,,,,,,,,181,W,circle,1,0,,,,,,,,,,,,,,,,repeat,number,numRpt,f,0.4494,Hi,,,,,,5,,,,,,,,low,23,0,23,0,1,,,,,,,,,
295054,2022-12-05_12h07.04.794,vts_reward_expectancy_bt,2022.2.4,Win32,59.81934558,Chrome,1504,1003,,,,,1,1165,,,,,,,,,,,,,,,,,160,Y,triangle,1,0,,,,,,,,,,,,,,,,repeat,number,numRpt,f,0.5621,Lo,,,,,,5,,,,,,,,low,24,0,24,0,1,,,,,,,,,
295054,2022-12-05_12h07.04.794,vts_reward_expectancy_bt,2022.2.4,Win32,59.81934558,Chrome,1504,1003,,,,,0,1165,,,,,,,,,,,,,,,,,174,S,circle,1,0,,,,,,,,,,,,,,,,repeat,number,numRpt,f,0.516,Hi,,,,,,5,,,,,,,,low,25,0,25,0,1,,,,,,,,,
295054,2022-12-05_12h07.04.794,vts_reward_expectancy_bt,2022.2.4,Win32,59.81934558,Chrome,1504,1003,,,,,1,1166,,,,,,,,,,,,,,,,,139,D,hexagon,1,0,,,,,,,,,,,,,,,,switch,letter,lettSwt,j,0.5524,Lo,,,,,,5,,,,,,,,low,26,0,26,0,1,,,,,,,,,
295054,2022-12-05_12h07.04.794,vts_reward_expectancy_bt,2022.2.4,Win32,59.81934558,Chrome,1504,1003,,,,,0,1166,,,,,,,,,,,,,,,,,125,F,star,1,0,,,,,,,,,,,,,,,,repeat,letter,lettRpt,j,0.5171,Hi,,,,,,5,,,,,,,,low,27,0,27,0,1,,,,,,,,,
295054,2022-12-05_12h07.04.794,vts_reward_expectancy_bt,2022.2.4,Win32,59.81934558,Chrome,1504,1003,,,,,1,1167,,,,,,,,,,,,,,,,,132,U,triangle,1,0,,,,,,,,,,,,,,,,switch,number,numSwt,d,0.603,Lo,,,,,,5,,,,,,,,low,28,0,28,0,1,,,,,,,,,
295054,2022-12-05_12h07.04.794,vts_reward_expectancy_bt,2022.2.4,Win32,59.81934558,Chrome,1504,1003,,,,,1,1168,,,,,,,,,,,,,,,,,167,H,hexagon,1,0,,,,,,,,,,,,,,,,repeat,number,numRpt,f,0.3783,Lo,,,,,,5,,,,,,,,low,29,0,29,0,1,,,,,,,,,
295054,2022-12-05_12h07.04.794,vts_reward_expectancy_bt,2022.2.4,Win32,59.81934558,Chrome,1504,1003,,,,,0,1168,,,,,,,,,,,,,,,,,181,W,star,0,0,,,,,,,,,,,,,,,,switch,letter,NA,j,0.3621,Lo,,,,,,5,,,,,,,,low,30,0,30,0,1,,,,,,,,,
295054,2022-12-05_12h07.04.794,vts_reward_expectancy_bt,2022.2.4,Win32,59.81934558,Chrome,1504,1003,,,,,10,1178,,,,,,,,,,,,,,,,,146,B,circle,1,1,,,,,,,,,,,,,,,,switch,number,numSwt,d,0.4482,Hi,,,,,,5,,,,,,,,low,31,0,31,0,1,,,,,,,,,
295054,2022-12-05_12h07.04.794,vts_reward_expectancy_bt,2022.2.4,Win32,59.81934558,Chrome,1504,1003,,,,,0,1178,,,,,,,,,,,,,,,,,181,F,circle,1,0,,,,,,,,,,,,,,,,repeat,number,numRpt,f,0.4534,Hi,,,,,,6,,,,,,space,1.0799,low,0,0,0,0,1,,,,,,,,,
295054,2022-12-05_12h07.04.794,vts_reward_expectancy_bt,2022.2.4,Win32,59.81934558,Chrome,1504,1003,,,,,1,1179,,,,,,,,,,,,,,,,,160,Y,star,1,0,,,,,,,,,,,,,,,,repeat,number,numRpt,f,0.3636,Hi,,,,,,6,,,,,,,,low,1,0,1,0,1,,,,,,,,,
295054,2022-12-05_12h07.04.794,vts_reward_expectancy_bt,2022.2.4,Win32,59.81934558,Chrome,1504,1003,,,,,1,1180,,,,,,,,,,,,,,,,,139,S,hexagon,1,0,,,,,,,,,,,,,,,,repeat,number,numRpt,d,0.5201,Lo,,,,,,6,,,,,,,,low,2,0,2,0,1,,,,,,,,,
295054,2022-12-05_12h07.04.794,vts_reward_expectancy_bt,2022.2.4,Win32,59.81934558,Chrome,1504,1003,,,,,1,1181,,,,,,,,,,,,,,,,,146,W,triangle,1,0,,,,,,,,,,,,,,,,repeat,number,numRpt,d,0.5184,Lo,,,,,,6,,,,,,,,low,3,0,3,0,1,,,,,,,,,
295054,2022-12-05_12h07.04.794,vts_reward_expectancy_bt,2022.2.4,Win32,59.81934558,Chrome,1504,1003,,,,,0,1181,,,,,,,,,,,,,,,,,167,H,circle,1,0,,,,,,,,,,,,,,,,switch,letter,lettSwt,j,0.5775,Hi,,,,,,6,,,,,,,,low,4,0,4,0,1,,,,,,,,,
295054,2022-12-05_12h07.04.794,vts_reward_expectancy_bt,2022.2.4,Win32,59.81934558,Chrome,1504,1003,,,,,1,1182,,,,,,,,,,,,,,,,,132,D,star,1,0,,,,,,,,,,,,,,,,switch,number,numSwt,d,0.4123,Hi,,,,,,6,,,,,,,,low,5,0,5,0,1,,,,,,,,,
295054,2022-12-05_12h07.04.794,vts_reward_expectancy_bt,2022.2.4,Win32,59.81934558,Chrome,1504,1003,,,,,0,1182,,,,,,,,,,,,,,,,,174,U,hexagon,0,0,,,,,,,,,,,,,,,,switch,letter,NA,j,0.4305,Hi,,,,,,6,,,,,,,,low,6,0,6,0,1,,,,,,,,,
295054,2022-12-05_12h07.04.794,vts_reward_expectancy_bt,2022.2.4,Win32,59.81934558,Chrome,1504,1003,,,,,1,1183,,,,,,,,,,,,,,,,,125,B,triangle,1,1,,,,,,,,,,,,,,,,switch,number,numSwt,d,0.435,Lo,,,,,,6,,,,,,,,low,7,0,7,0,1,,,,,,,,,
295054,2022-12-05_12h07.04.794,vts_reward_expectancy_bt,2022.2.4,Win32,59.81934558,Chrome,1504,1003,,,,,10,1193,,,,,,,,,,,,,,,,,181,F,circle,1,0,,,,,,,,,,,,,,,,repeat,number,numRpt,f,0.3695,Hi,,,,,,6,,,,,,,,low,8,0,8,0,1,,,,,,,,,
295054,2022-12-05_12h07.04.794,vts_reward_expectancy_bt,2022.2.4,Win32,59.81934558,Chrome,1504,1003,,,,,1,1194,,,,,,,,,,,,,,,,,160,Y,star,1,0,,,,,,,,,,,,,,,,repeat,number,numRpt,f,0.3976,Hi,,,,,,6,,,,,,,,low,9,0,9,0,1,,,,,,,,,
295054,2022-12-05_12h07.04.794,vts_reward_expectancy_bt,2022.2.4,Win32,59.81934558,Chrome,1504,1003,,,,,0,1194,,,,,,,,,,,,,,,,,139,S,triangle,0,0,,,,,,,,,,,,,,,,repeat,number,NA,f,0.5136,Hi,,,,,,6,,,,,,,,low,10,0,10,0,1,,,,,,,,,
295054,2022-12-05_12h07.04.794,vts_reward_expectancy_bt,2022.2.4,Win32,59.81934558,Chrome,1504,1003,,,,,1,1195,,,,,,,,,,,,,,,,,146,W,hexagon,1,1,,,,,,,,,,,,,,,,repeat,number,numRpt,d,0.4788,Lo,,,,,,6,,,,,,,,low,11,0,11,0,1,,,,,,,,,
295054,2022-12-05_12h07.04.794,vts_reward_expectancy_bt,2022.2.4,Win32,59.81934558,Chrome,1504,1003,,,,,1,1196,,,,,,,,,,,,,,,,,167,H,hexagon,1,0,,,,,,,,,,,,,,,,repeat,number,numRpt,f,0.4988,Lo,,,,,,6,,,,,,,,low,12,0,12,0,1,,,,,,,,,
295054,2022-12-05_12h07.04.794,vts_reward_expectancy_bt,2022.2.4,Win32,59.81934558,Chrome,1504,1003,,,,,0,1196,,,,,,,,,,,,,,,,,132,D,circle,1,0,,,,,,,,,,,,,,,,repeat,number,numRpt,d,0.5791,Hi,,,,,,6,,,,,,,,low,13,0,13,0,1,,,,,,,,,
295054,2022-12-05_12h07.04.794,vts_reward_expectancy_bt,2022.2.4,Win32,59.81934558,Chrome,1504,1003,,,,,10,1206,,,,,,,,,,,,,,,,,174,U,star,1,0,,,,,,,,,,,,,,,,repeat,number,numRpt,f,0.3513,Hi,,,,,,6,,,,,,,,low,14,0,14,0,1,,,,,,,,,
