participant,date,expName,psychopyVersion,OS,frameRate,browser,xResolution,yResolution,key_resp.keys,key_resp.rt,training_resp.keys,training_resp.rt,points_trial,points_cumul,trainBlock,training.thisRepN,training.thisTrialN,training.thisN,training.thisIndex,training.ran,LTriangleOpac,LCircleOpac,LHexagonOpac,LStarOpac,RTriangleOpac,RCircleOpac,RHexagonOpac,RStarOpac,LShape_ID,RShape_ID,curr_topStim,curr_bottStim,curr_shape,acc,E1,target_resp_prac1.keys,target_resp_prac1.rt,pracBlock,task1_prac_trials.thisRepN,task1_prac_trials.thisTrialN,task1_prac_trials.thisN,task1_prac_trials.thisIndex,task1_prac_trials.ran,target_resp_prac2.keys,target_resp_prac2.rt,task2_praac_trials.thisRepN,task2_praac_trials.thisTrialN,task2_praac_trials.thisN,task2_praac_trials.thisIndex,task2_praac_trials.ran,alt,task,condition,target_resp.keys,rewCond,vts_practice_trials.thisRepN,vts_practice_trials.thisTrialN,vts_practice_trials.thisN,vts_practice_trials.thisIndex,vts_practice_trials.ran,target_resp.rt,blockNum,trials_norew.thisRepN,trials_norew.thisTrialN,trials_norew.thisN,trials_norew.thisIndex,trials_norew.ran,key_resp_2.keys,key_resp_2.rt,rewExpectancy,trials_rew.thisRepN,trials_rew.thisTrialN,trials_rew.thisN,trials_rew.thisIndex,trials_rew.ran,Q1,Q2,Q2_text,Q3,Q4,Q5_text,Q5,xRes,yRes
295075,2022-11-27_14h01.45.381,vts_reward_expectancy_bt,2022.2.4,MacIntel,60.0024001,Chrome,1470,956,,,,,,,,,,,,,,,,,,,,,,,,,,,,,,,,,,,,,,,,,,,,,,,,,,,,,,,,,,,,,,,,,,,,,,,,,,,,
295075,2022-11-27_14h01.45.381,vts_reward_expectancy_bt,2022.2.4,MacIntel,60.0024001,Chrome,1470,956,space,1.405,,,,,,,,,,,,,,,,,,,,,,,,,,,,,,,,,,,,,,,,,,,,,,,,,,,,,,,,,,,,,,,,,,,,,,,,,,
295075,2022-11-27_14h01.45.381,vts_reward_expectancy_bt,2022.2.4,MacIntel,60.0024001,Chrome,1470,956,,,,,,,,,,,,,,,,,,,,,,,,,,,,,,,,,,,,,,,,,,,,,,,,,,,,,,,,,,,,,,,,,,,,,,,,,,,,
295075,2022-11-27_14h01.45.381,vts_reward_expectancy_bt,2022.2.4,MacIntel,60.0024001,Chrome,1470,956,,,a,3.3214,10,10,0,0,0,0,1,1,1,0,0,0,0,0,1,0,triangle,hexagon,,,,,,,,,,,,,,,,,,,,,,,,,,,,,,,,,,,,,,,,,,,,,,,,,,,,,,
295075,2022-11-27_14h01.45.381,vts_reward_expectancy_bt,2022.2.4,MacIntel,60.0024001,Chrome,1470,956,,,l,0.3701,10,20,0,0,1,1,0,1,1,0,0,0,0,1,0,0,triangle,circle,,,,,,,,,,,,,,,,,,,,,,,,,,,,,,,,,,,,,,,,,,,,,,,,,,,,,,
295075,2022-11-27_14h01.45.381,vts_reward_expectancy_bt,2022.2.4,MacIntel,60.0024001,Chrome,1470,956,,,a,0.3453,10,30,0,0,2,2,5,1,0,1,0,0,0,0,0,1,circle,star,,,,,,,,,,,,,,,,,,,,,,,,,,,,,,,,,,,,,,,,,,,,,,,,,,,,,,
295075,2022-11-27_14h01.45.381,vts_reward_expectancy_bt,2022.2.4,MacIntel,60.0024001,Chrome,1470,956,,,a,0.1603,1,31,0,0,3,3,3,1,0,1,0,0,1,0,0,0,circle,triangle,,,,,,,,,,,,,,,,,,,,,,,,,,,,,,,,,,,,,,,,,,,,,,,,,,,,,,
295075,2022-11-27_14h01.45.381,vts_reward_expectancy_bt,2022.2.4,MacIntel,60.0024001,Chrome,1470,956,,,l,0.1706,1,32,0,0,4,4,11,1,0,0,0,1,0,0,1,0,star,hexagon,,,,,,,,,,,,,,,,,,,,,,,,,,,,,,,,,,,,,,,,,,,,,,,,,,,,,,
295075,2022-11-27_14h01.45.381,vts_reward_expectancy_bt,2022.2.4,MacIntel,60.0024001,Chrome,1470,956,,,a,0.1475,1,33,0,0,5,5,10,1,0,0,0,1,0,1,0,0,star ,circle,,,,,,,,,,,,,,,,,,,,,,,,,,,,,,,,,,,,,,,,,,,,,,,,,,,,,,
295075,2022-11-27_14h01.45.381,vts_reward_expectancy_bt,2022.2.4,MacIntel,60.0024001,Chrome,1470,956,,,a,0.0004,1,34,0,0,6,6,6,1,0,0,1,0,1,0,0,0,hexagon,triangle,,,,,,,,,,,,,,,,,,,,,,,,,,,,,,,,,,,,,,,,,,,,,,,,,,,,,,
295075,2022-11-27_14h01.45.381,vts_reward_expectancy_bt,2022.2.4,MacIntel,60.0024001,Chrome,1470,956,,,a,0.1685,10,44,0,0,7,7,2,1,1,0,0,0,0,0,0,1,triangle,star,,,,,,,,,,,,,,,,,,,,,,,,,,,,,,,,,,,,,,,,,,,,,,,,,,,,,,
295075,2022-11-27_14h01.45.381,vts_reward_expectancy_bt,2022.2.4,MacIntel,60.0024001,Chrome,1470,956,,,l,0.1233,10,54,0,0,8,8,8,1,0,0,1,0,0,0,0,1,hexagon,star,,,,,,,,,,,,,,,,,,,,,,,,,,,,,,,,,,,,,,,,,,,,,,,,,,,,,,
295075,2022-11-27_14h01.45.381,vts_reward_expectancy_bt,2022.2.4,MacIntel,60.0024001,Chrome,1470,956,,,a,0.1883,1,55,0,0,9,9,4,1,0,1,0,0,0,0,1,0,circle,hexagon,,,,,,,,,,,,,,,,,,,,,,,,,,,,,,,,,,,,,,,,,,,,,,,,,,,,,,
295075,2022-11-27_14h01.45.381,vts_reward_expectancy_bt,2022.2.4,MacIntel,60.0024001,Chrome,1470,956,,,a,0.1949,1,56,0,0,10,10,9,1,0,0,0,1,1,0,0,0,star,triangle,,,,,,,,,,,,,,,,,,,,,,,,,,,,,,,,,,,,,,,,,,,,,,,,,,,,,,
295075,2022-11-27_14h01.45.381,vts_reward_expectancy_bt,2022.2.4,MacIntel,60.0024001,Chrome,1470,956,,,a,0.2583,1,57,0,0,11,11,7,1,0,0,1,0,0,1,0,0,hexagon,circle,,,,,,,,,,,,,,,,,,,,,,,,,,,,,,,,,,,,,,,,,,,,,,,,,,,,,,
295075,2022-11-27_14h01.45.381,vts_reward_expectancy_bt,2022.2.4,MacIntel,60.0024001,Chrome,1470,956,,,a,0.0532,1,58,0,1,0,12,10,1,0,0,0,1,0,1,0,0,star ,circle,,,,,,,,,,,,,,,,,,,,,,,,,,,,,,,,,,,,,,,,,,,,,,,,,,,,,,
295075,2022-11-27_14h01.45.381,vts_reward_expectancy_bt,2022.2.4,MacIntel,60.0024001,Chrome,1470,956,,,a,0.1519,10,68,0,1,1,13,5,1,0,1,0,0,0,0,0,1,circle,star,,,,,,,,,,,,,,,,,,,,,,,,,,,,,,,,,,,,,,,,,,,,,,,,,,,,,,
295075,2022-11-27_14h01.45.381,vts_reward_expectancy_bt,2022.2.4,MacIntel,60.0024001,Chrome,1470,956,,,l,0.3428,10,78,0,1,2,14,6,1,0,0,1,0,1,0,0,0,hexagon,triangle,,,,,,,,,,,,,,,,,,,,,,,,,,,,,,,,,,,,,,,,,,,,,,,,,,,,,,
295075,2022-11-27_14h01.45.381,vts_reward_expectancy_bt,2022.2.4,MacIntel,60.0024001,Chrome,1470,956,,,l,0.235,1,79,0,1,3,15,8,1,0,0,1,0,0,0,0,1,hexagon,star,,,,,,,,,,,,,,,,,,,,,,,,,,,,,,,,,,,,,,,,,,,,,,,,,,,,,,
295075,2022-11-27_14h01.45.381,vts_reward_expectancy_bt,2022.2.4,MacIntel,60.0024001,Chrome,1470,956,,,l,0.1039,10,89,0,1,4,16,9,1,0,0,0,1,1,0,0,0,star,triangle,,,,,,,,,,,,,,,,,,,,,,,,,,,,,,,,,,,,,,,,,,,,,,,,,,,,,,
295075,2022-11-27_14h01.45.381,vts_reward_expectancy_bt,2022.2.4,MacIntel,60.0024001,Chrome,1470,956,,,a,0.2357,10,99,0,1,5,17,1,1,1,0,0,0,0,0,1,0,triangle,hexagon,,,,,,,,,,,,,,,,,,,,,,,,,,,,,,,,,,,,,,,,,,,,,,,,,,,,,,
295075,2022-11-27_14h01.45.381,vts_reward_expectancy_bt,2022.2.4,MacIntel,60.0024001,Chrome,1470,956,,,a,0.2088,10,109,0,1,6,18,0,1,1,0,0,0,0,1,0,0,triangle,circle,,,,,,,,,,,,,,,,,,,,,,,,,,,,,,,,,,,,,,,,,,,,,,,,,,,,,,
295075,2022-11-27_14h01.45.381,vts_reward_expectancy_bt,2022.2.4,MacIntel,60.0024001,Chrome,1470,956,,,l,0.1858,1,110,0,1,7,19,2,1,1,0,0,0,0,0,0,1,triangle,star,,,,,,,,,,,,,,,,,,,,,,,,,,,,,,,,,,,,,,,,,,,,,,,,,,,,,,
295075,2022-11-27_14h01.45.381,vts_reward_expectancy_bt,2022.2.4,MacIntel,60.0024001,Chrome,1470,956,,,a,0.2343,10,120,0,1,8,20,3,1,0,1,0,0,1,0,0,0,circle,triangle,,,,,,,,,,,,,,,,,,,,,,,,,,,,,,,,,,,,,,,,,,,,,,,,,,,,,,
295075,2022-11-27_14h01.45.381,vts_reward_expectancy_bt,2022.2.4,MacIntel,60.0024001,Chrome,1470,956,,,l,0.0324,10,130,0,1,9,21,7,1,0,0,1,0,0,1,0,0,hexagon,circle,,,,,,,,,,,,,,,,,,,,,,,,,,,,,,,,,,,,,,,,,,,,,,,,,,,,,,
295075,2022-11-27_14h01.45.381,vts_reward_expectancy_bt,2022.2.4,MacIntel,60.0024001,Chrome,1470,956,,,a,0.0042,10,140,0,1,10,22,11,1,0,0,0,1,0,0,1,0,star,hexagon,,,,,,,,,,,,,,,,,,,,,,,,,,,,,,,,,,,,,,,,,,,,,,,,,,,,,,
295075,2022-11-27_14h01.45.381,vts_reward_expectancy_bt,2022.2.4,MacIntel,60.0024001,Chrome,1470,956,,,l,0.1498,1,141,0,1,11,23,4,1,0,1,0,0,0,0,1,0,circle,hexagon,,,,,,,,,,,,,,,,,,,,,,,,,,,,,,,,,,,,,,,,,,,,,,,,,,,,,,
295075,2022-11-27_14h01.45.381,vts_reward_expectancy_bt,2022.2.4,MacIntel,60.0024001,Chrome,1470,956,,,a,0.1039,1,142,0,2,0,24,1,1,1,0,0,0,0,0,1,0,triangle,hexagon,,,,,,,,,,,,,,,,,,,,,,,,,,,,,,,,,,,,,,,,,,,,,,,,,,,,,,
295075,2022-11-27_14h01.45.381,vts_reward_expectancy_bt,2022.2.4,MacIntel,60.0024001,Chrome,1470,956,,,l,0.079,1,143,0,2,1,25,5,1,0,1,0,0,0,0,0,1,circle,star,,,,,,,,,,,,,,,,,,,,,,,,,,,,,,,,,,,,,,,,,,,,,,,,,,,,,,
295075,2022-11-27_14h01.45.381,vts_reward_expectancy_bt,2022.2.4,MacIntel,60.0024001,Chrome,1470,956,,,a,0.1196,1,144,0,2,2,26,11,1,0,0,0,1,0,0,1,0,star,hexagon,,,,,,,,,,,,,,,,,,,,,,,,,,,,,,,,,,,,,,,,,,,,,,,,,,,,,,
295075,2022-11-27_14h01.45.381,vts_reward_expectancy_bt,2022.2.4,MacIntel,60.0024001,Chrome,1470,956,,,l,0.1595,1,145,0,2,3,27,3,1,0,1,0,0,1,0,0,0,circle,triangle,,,,,,,,,,,,,,,,,,,,,,,,,,,,,,,,,,,,,,,,,,,,,,,,,,,,,,
295075,2022-11-27_14h01.45.381,vts_reward_expectancy_bt,2022.2.4,MacIntel,60.0024001,Chrome,1470,956,,,l,0.137,1,146,0,2,4,28,6,1,0,0,1,0,1,0,0,0,hexagon,triangle,,,,,,,,,,,,,,,,,,,,,,,,,,,,,,,,,,,,,,,,,,,,,,,,,,,,,,
295075,2022-11-27_14h01.45.381,vts_reward_expectancy_bt,2022.2.4,MacIntel,60.0024001,Chrome,1470,956,,,l,0.1461,1,147,0,2,5,29,9,1,0,0,0,1,1,0,0,0,star,triangle,,,,,,,,,,,,,,,,,,,,,,,,,,,,,,,,,,,,,,,,,,,,,,,,,,,,,,
295075,2022-11-27_14h01.45.381,vts_reward_expectancy_bt,2022.2.4,MacIntel,60.0024001,Chrome,1470,956,,,l,0.1166,1,148,0,2,6,30,8,1,0,0,1,0,0,0,0,1,hexagon,star,,,,,,,,,,,,,,,,,,,,,,,,,,,,,,,,,,,,,,,,,,,,,,,,,,,,,,
295075,2022-11-27_14h01.45.381,vts_reward_expectancy_bt,2022.2.4,MacIntel,60.0024001,Chrome,1470,956,,,l,0.1321,10,158,0,2,7,31,10,1,0,0,0,1,0,1,0,0,star ,circle,,,,,,,,,,,,,,,,,,,,,,,,,,,,,,,,,,,,,,,,,,,,,,,,,,,,,,
295075,2022-11-27_14h01.45.381,vts_reward_expectancy_bt,2022.2.4,MacIntel,60.0024001,Chrome,1470,956,,,a,0.1874,1,159,0,2,8,32,0,1,1,0,0,0,0,1,0,0,triangle,circle,,,,,,,,,,,,,,,,,,,,,,,,,,,,,,,,,,,,,,,,,,,,,,,,,,,,,,
295075,2022-11-27_14h01.45.381,vts_reward_expectancy_bt,2022.2.4,MacIntel,60.0024001,Chrome,1470,956,,,a,0.0216,10,169,0,2,9,33,4,1,0,1,0,0,0,0,1,0,circle,hexagon,,,,,,,,,,,,,,,,,,,,,,,,,,,,,,,,,,,,,,,,,,,,,,,,,,,,,,
295075,2022-11-27_14h01.45.381,vts_reward_expectancy_bt,2022.2.4,MacIntel,60.0024001,Chrome,1470,956,,,l,0.0381,10,179,0,2,10,34,2,1,1,0,0,0,0,0,0,1,triangle,star,,,,,,,,,,,,,,,,,,,,,,,,,,,,,,,,,,,,,,,,,,,,,,,,,,,,,,
295075,2022-11-27_14h01.45.381,vts_reward_expectancy_bt,2022.2.4,MacIntel,60.0024001,Chrome,1470,956,,,l,0.1829,1,180,0,2,11,35,7,1,0,0,1,0,0,1,0,0,hexagon,circle,,,,,,,,,,,,,,,,,,,,,,,,,,,,,,,,,,,,,,,,,,,,,,,,,,,,,,
295075,2022-11-27_14h01.45.381,vts_reward_expectancy_bt,2022.2.4,MacIntel,60.0024001,Chrome,1470,956,,,a,0.827,1,181,1,0,0,0,7,1,0,0,1,0,0,1,0,0,hexagon,circle,,,,,,,,,,,,,,,,,,,,,,,,,,,,,,,,,,,,,,,,,,,,,,,,,,,,,,
295075,2022-11-27_14h01.45.381,vts_reward_expectancy_bt,2022.2.4,MacIntel,60.0024001,Chrome,1470,956,,,l,0.0912,10,191,1,0,1,1,2,1,1,0,0,0,0,0,0,1,triangle,star,,,,,,,,,,,,,,,,,,,,,,,,,,,,,,,,,,,,,,,,,,,,,,,,,,,,,,
295075,2022-11-27_14h01.45.381,vts_reward_expectancy_bt,2022.2.4,MacIntel,60.0024001,Chrome,1470,956,,,l,0.0423,10,201,1,0,2,2,10,1,0,0,0,1,0,1,0,0,star ,circle,,,,,,,,,,,,,,,,,,,,,,,,,,,,,,,,,,,,,,,,,,,,,,,,,,,,,,
295075,2022-11-27_14h01.45.381,vts_reward_expectancy_bt,2022.2.4,MacIntel,60.0024001,Chrome,1470,956,,,a,0.1334,10,211,1,0,3,3,3,1,0,1,0,0,1,0,0,0,circle,triangle,,,,,,,,,,,,,,,,,,,,,,,,,,,,,,,,,,,,,,,,,,,,,,,,,,,,,,
295075,2022-11-27_14h01.45.381,vts_reward_expectancy_bt,2022.2.4,MacIntel,60.0024001,Chrome,1470,956,,,a,0.0838,1,212,1,0,4,4,1,1,1,0,0,0,0,0,1,0,triangle,hexagon,,,,,,,,,,,,,,,,,,,,,,,,,,,,,,,,,,,,,,,,,,,,,,,,,,,,,,
295075,2022-11-27_14h01.45.381,vts_reward_expectancy_bt,2022.2.4,MacIntel,60.0024001,Chrome,1470,956,,,l,0.0509,1,213,1,0,5,5,8,1,0,0,1,0,0,0,0,1,hexagon,star,,,,,,,,,,,,,,,,,,,,,,,,,,,,,,,,,,,,,,,,,,,,,,,,,,,,,,
295075,2022-11-27_14h01.45.381,vts_reward_expectancy_bt,2022.2.4,MacIntel,60.0024001,Chrome,1470,956,,,a,0.1336,1,214,1,0,6,6,6,1,0,0,1,0,1,0,0,0,hexagon,triangle,,,,,,,,,,,,,,,,,,,,,,,,,,,,,,,,,,,,,,,,,,,,,,,,,,,,,,
295075,2022-11-27_14h01.45.381,vts_reward_expectancy_bt,2022.2.4,MacIntel,60.0024001,Chrome,1470,956,,,a,0.1316,10,224,1,0,7,7,0,1,1,0,0,0,0,1,0,0,triangle,circle,,,,,,,,,,,,,,,,,,,,,,,,,,,,,,,,,,,,,,,,,,,,,,,,,,,,,,
295075,2022-11-27_14h01.45.381,vts_reward_expectancy_bt,2022.2.4,MacIntel,60.0024001,Chrome,1470,956,,,a,32.6207,1,225,1,0,8,8,4,1,0,1,0,0,0,0,1,0,circle,hexagon,,,,,,,,,,,,,,,,,,,,,,,,,,,,,,,,,,,,,,,,,,,,,,,,,,,,,,
295075,2022-11-27_14h01.45.381,vts_reward_expectancy_bt,2022.2.4,MacIntel,60.0024001,Chrome,1470,956,,,l,0.0502,1,226,1,0,9,9,11,1,0,0,0,1,0,0,1,0,star,hexagon,,,,,,,,,,,,,,,,,,,,,,,,,,,,,,,,,,,,,,,,,,,,,,,,,,,,,,
295075,2022-11-27_14h01.45.381,vts_reward_expectancy_bt,2022.2.4,MacIntel,60.0024001,Chrome,1470,956,,,a,0.164,10,236,1,0,10,10,5,1,0,1,0,0,0,0,0,1,circle,star,,,,,,,,,,,,,,,,,,,,,,,,,,,,,,,,,,,,,,,,,,,,,,,,,,,,,,
295075,2022-11-27_14h01.45.381,vts_reward_expectancy_bt,2022.2.4,MacIntel,60.0024001,Chrome,1470,956,,,a,0.0186,1,237,1,0,11,11,9,1,0,0,0,1,1,0,0,0,star,triangle,,,,,,,,,,,,,,,,,,,,,,,,,,,,,,,,,,,,,,,,,,,,,,,,,,,,,,
295075,2022-11-27_14h01.45.381,vts_reward_expectancy_bt,2022.2.4,MacIntel,60.0024001,Chrome,1470,956,,,a,0.1267,10,247,1,1,0,12,1,1,1,0,0,0,0,0,1,0,triangle,hexagon,,,,,,,,,,,,,,,,,,,,,,,,,,,,,,,,,,,,,,,,,,,,,,,,,,,,,,
295075,2022-11-27_14h01.45.381,vts_reward_expectancy_bt,2022.2.4,MacIntel,60.0024001,Chrome,1470,956,,,a,0.0181,1,248,1,1,1,13,9,1,0,0,0,1,1,0,0,0,star,triangle,,,,,,,,,,,,,,,,,,,,,,,,,,,,,,,,,,,,,,,,,,,,,,,,,,,,,,
295075,2022-11-27_14h01.45.381,vts_reward_expectancy_bt,2022.2.4,MacIntel,60.0024001,Chrome,1470,956,,,a,0.1526,1,249,1,1,2,14,7,1,0,0,1,0,0,1,0,0,hexagon,circle,,,,,,,,,,,,,,,,,,,,,,,,,,,,,,,,,,,,,,,,,,,,,,,,,,,,,,
295075,2022-11-27_14h01.45.381,vts_reward_expectancy_bt,2022.2.4,MacIntel,60.0024001,Chrome,1470,956,,,a,0.1156,1,250,1,1,3,15,6,1,0,0,1,0,1,0,0,0,hexagon,triangle,,,,,,,,,,,,,,,,,,,,,,,,,,,,,,,,,,,,,,,,,,,,,,,,,,,,,,
295075,2022-11-27_14h01.45.381,vts_reward_expectancy_bt,2022.2.4,MacIntel,60.0024001,Chrome,1470,956,,,a,0.085,10,260,1,1,4,16,4,1,0,1,0,0,0,0,1,0,circle,hexagon,,,,,,,,,,,,,,,,,,,,,,,,,,,,,,,,,,,,,,,,,,,,,,,,,,,,,,
295075,2022-11-27_14h01.45.381,vts_reward_expectancy_bt,2022.2.4,MacIntel,60.0024001,Chrome,1470,956,,,a,0.1542,10,270,1,1,5,17,8,1,0,0,1,0,0,0,0,1,hexagon,star,,,,,,,,,,,,,,,,,,,,,,,,,,,,,,,,,,,,,,,,,,,,,,,,,,,,,,
295075,2022-11-27_14h01.45.381,vts_reward_expectancy_bt,2022.2.4,MacIntel,60.0024001,Chrome,1470,956,,,a,0.718,1,271,1,1,6,18,11,1,0,0,0,1,0,0,1,0,star,hexagon,,,,,,,,,,,,,,,,,,,,,,,,,,,,,,,,,,,,,,,,,,,,,,,,,,,,,,
295075,2022-11-27_14h01.45.381,vts_reward_expectancy_bt,2022.2.4,MacIntel,60.0024001,Chrome,1470,956,,,a,0.6161,1,272,1,1,7,19,2,1,1,0,0,0,0,0,0,1,triangle,star,,,,,,,,,,,,,,,,,,,,,,,,,,,,,,,,,,,,,,,,,,,,,,,,,,,,,,
295075,2022-11-27_14h01.45.381,vts_reward_expectancy_bt,2022.2.4,MacIntel,60.0024001,Chrome,1470,956,,,a,0.0425,1,273,1,1,8,20,3,1,0,1,0,0,1,0,0,0,circle,triangle,,,,,,,,,,,,,,,,,,,,,,,,,,,,,,,,,,,,,,,,,,,,,,,,,,,,,,
295075,2022-11-27_14h01.45.381,vts_reward_expectancy_bt,2022.2.4,MacIntel,60.0024001,Chrome,1470,956,,,a,0.176,1,274,1,1,9,21,5,1,0,1,0,0,0,0,0,1,circle,star,,,,,,,,,,,,,,,,,,,,,,,,,,,,,,,,,,,,,,,,,,,,,,,,,,,,,,
295075,2022-11-27_14h01.45.381,vts_reward_expectancy_bt,2022.2.4,MacIntel,60.0024001,Chrome,1470,956,,,a,0.034,1,275,1,1,10,22,10,1,0,0,0,1,0,1,0,0,star ,circle,,,,,,,,,,,,,,,,,,,,,,,,,,,,,,,,,,,,,,,,,,,,,,,,,,,,,,
295075,2022-11-27_14h01.45.381,vts_reward_expectancy_bt,2022.2.4,MacIntel,60.0024001,Chrome,1470,956,,,a,0.2472,1,276,1,1,11,23,0,1,1,0,0,0,0,1,0,0,triangle,circle,,,,,,,,,,,,,,,,,,,,,,,,,,,,,,,,,,,,,,,,,,,,,,,,,,,,,,
295075,2022-11-27_14h01.45.381,vts_reward_expectancy_bt,2022.2.4,MacIntel,60.0024001,Chrome,1470,956,,,a,0.4077,1,277,1,2,0,24,10,1,0,0,0,1,0,1,0,0,star ,circle,,,,,,,,,,,,,,,,,,,,,,,,,,,,,,,,,,,,,,,,,,,,,,,,,,,,,,
295075,2022-11-27_14h01.45.381,vts_reward_expectancy_bt,2022.2.4,MacIntel,60.0024001,Chrome,1470,956,,,a,0.0508,10,287,1,2,1,25,2,1,1,0,0,0,0,0,0,1,triangle,star,,,,,,,,,,,,,,,,,,,,,,,,,,,,,,,,,,,,,,,,,,,,,,,,,,,,,,
295075,2022-11-27_14h01.45.381,vts_reward_expectancy_bt,2022.2.4,MacIntel,60.0024001,Chrome,1470,956,,,a,0.0346,1,288,1,2,2,26,4,1,0,1,0,0,0,0,1,0,circle,hexagon,,,,,,,,,,,,,,,,,,,,,,,,,,,,,,,,,,,,,,,,,,,,,,,,,,,,,,
295075,2022-11-27_14h01.45.381,vts_reward_expectancy_bt,2022.2.4,MacIntel,60.0024001,Chrome,1470,956,,,a,0.0599,10,298,1,2,3,27,1,1,1,0,0,0,0,0,1,0,triangle,hexagon,,,,,,,,,,,,,,,,,,,,,,,,,,,,,,,,,,,,,,,,,,,,,,,,,,,,,,
295075,2022-11-27_14h01.45.381,vts_reward_expectancy_bt,2022.2.4,MacIntel,60.0024001,Chrome,1470,956,,,a,0.2002,1,299,1,2,4,28,7,1,0,0,1,0,0,1,0,0,hexagon,circle,,,,,,,,,,,,,,,,,,,,,,,,,,,,,,,,,,,,,,,,,,,,,,,,,,,,,,
295075,2022-11-27_14h01.45.381,vts_reward_expectancy_bt,2022.2.4,MacIntel,60.0024001,Chrome,1470,956,,,a,0.0182,1,300,1,2,5,29,11,1,0,0,0,1,0,0,1,0,star,hexagon,,,,,,,,,,,,,,,,,,,,,,,,,,,,,,,,,,,,,,,,,,,,,,,,,,,,,,
295075,2022-11-27_14h01.45.381,vts_reward_expectancy_bt,2022.2.4,MacIntel,60.0024001,Chrome,1470,956,,,a,0.2015,1,301,1,2,6,30,6,1,0,0,1,0,1,0,0,0,hexagon,triangle,,,,,,,,,,,,,,,,,,,,,,,,,,,,,,,,,,,,,,,,,,,,,,,,,,,,,,
295075,2022-11-27_14h01.45.381,vts_reward_expectancy_bt,2022.2.4,MacIntel,60.0024001,Chrome,1470,956,,,a,0.1666,10,311,1,2,7,31,0,1,1,0,0,0,0,1,0,0,triangle,circle,,,,,,,,,,,,,,,,,,,,,,,,,,,,,,,,,,,,,,,,,,,,,,,,,,,,,,
295075,2022-11-27_14h01.45.381,vts_reward_expectancy_bt,2022.2.4,MacIntel,60.0024001,Chrome,1470,956,,,a,0.2838,1,312,1,2,8,32,9,1,0,0,0,1,1,0,0,0,star,triangle,,,,,,,,,,,,,,,,,,,,,,,,,,,,,,,,,,,,,,,,,,,,,,,,,,,,,,
295075,2022-11-27_14h01.45.381,vts_reward_expectancy_bt,2022.2.4,MacIntel,60.0024001,Chrome,1470,956,,,a,0.3175,1,313,1,2,9,33,3,1,0,1,0,0,1,0,0,0,circle,triangle,,,,,,,,,,,,,,,,,,,,,,,,,,,,,,,,,,,,,,,,,,,,,,,,,,,,,,
295075,2022-11-27_14h01.45.381,vts_reward_expectancy_bt,2022.2.4,MacIntel,60.0024001,Chrome,1470,956,,,a,0.2429,1,314,1,2,10,34,8,1,0,0,1,0,0,0,0,1,hexagon,star,,,,,,,,,,,,,,,,,,,,,,,,,,,,,,,,,,,,,,,,,,,,,,,,,,,,,,
295075,2022-11-27_14h01.45.381,vts_reward_expectancy_bt,2022.2.4,MacIntel,60.0024001,Chrome,1470,956,,,a,0.3068,10,324,1,2,11,35,5,1,0,1,0,0,0,0,0,1,circle,star,,,,,,,,,,,,,,,,,,,,,,,,,,,,,,,,,,,,,,,,,,,,,,,,,,,,,,
295075,2022-11-27_14h01.45.381,vts_reward_expectancy_bt,2022.2.4,MacIntel,60.0024001,Chrome,1470,956,,,a,0.3663,1,325,2,0,0,0,7,1,0,0,1,0,0,1,0,0,hexagon,circle,,,,,,,,,,,,,,,,,,,,,,,,,,,,,,,,,,,,,,,,,,,,,,,,,,,,,,
295075,2022-11-27_14h01.45.381,vts_reward_expectancy_bt,2022.2.4,MacIntel,60.0024001,Chrome,1470,956,,,a,0.4686,1,326,2,0,1,1,2,1,1,0,0,0,0,0,0,1,triangle,star,,,,,,,,,,,,,,,,,,,,,,,,,,,,,,,,,,,,,,,,,,,,,,,,,,,,,,
295075,2022-11-27_14h01.45.381,vts_reward_expectancy_bt,2022.2.4,MacIntel,60.0024001,Chrome,1470,956,,,a,0.4189,1,327,2,0,2,2,11,1,0,0,0,1,0,0,1,0,star,hexagon,,,,,,,,,,,,,,,,,,,,,,,,,,,,,,,,,,,,,,,,,,,,,,,,,,,,,,
295075,2022-11-27_14h01.45.381,vts_reward_expectancy_bt,2022.2.4,MacIntel,60.0024001,Chrome,1470,956,,,a,0.6009,1,328,2,0,3,3,8,1,0,0,1,0,0,0,0,1,hexagon,star,,,,,,,,,,,,,,,,,,,,,,,,,,,,,,,,,,,,,,,,,,,,,,,,,,,,,,
295075,2022-11-27_14h01.45.381,vts_reward_expectancy_bt,2022.2.4,MacIntel,60.0024001,Chrome,1470,956,,,a,0.2931,1,329,2,0,4,4,6,1,0,0,1,0,1,0,0,0,hexagon,triangle,,,,,,,,,,,,,,,,,,,,,,,,,,,,,,,,,,,,,,,,,,,,,,,,,,,,,,
295075,2022-11-27_14h01.45.381,vts_reward_expectancy_bt,2022.2.4,MacIntel,60.0024001,Chrome,1470,956,,,a,0.2648,10,339,2,0,5,5,3,1,0,1,0,0,1,0,0,0,circle,triangle,,,,,,,,,,,,,,,,,,,,,,,,,,,,,,,,,,,,,,,,,,,,,,,,,,,,,,
295075,2022-11-27_14h01.45.381,vts_reward_expectancy_bt,2022.2.4,MacIntel,60.0024001,Chrome,1470,956,,,a,0.0441,10,349,2,0,6,6,9,1,0,0,0,1,1,0,0,0,star,triangle,,,,,,,,,,,,,,,,,,,,,,,,,,,,,,,,,,,,,,,,,,,,,,,,,,,,,,
295075,2022-11-27_14h01.45.381,vts_reward_expectancy_bt,2022.2.4,MacIntel,60.0024001,Chrome,1470,956,,,a,1.1932,10,359,2,0,7,7,10,1,0,0,0,1,0,1,0,0,star ,circle,,,,,,,,,,,,,,,,,,,,,,,,,,,,,,,,,,,,,,,,,,,,,,,,,,,,,,
295075,2022-11-27_14h01.45.381,vts_reward_expectancy_bt,2022.2.4,MacIntel,60.0024001,Chrome,1470,956,,,a,0.065,10,369,2,0,8,8,4,1,0,1,0,0,0,0,1,0,circle,hexagon,,,,,,,,,,,,,,,,,,,,,,,,,,,,,,,,,,,,,,,,,,,,,,,,,,,,,,
295075,2022-11-27_14h01.45.381,vts_reward_expectancy_bt,2022.2.4,MacIntel,60.0024001,Chrome,1470,956,,,a,0.7695,10,379,2,0,9,9,0,1,1,0,0,0,0,1,0,0,triangle,circle,,,,,,,,,,,,,,,,,,,,,,,,,,,,,,,,,,,,,,,,,,,,,,,,,,,,,,
295075,2022-11-27_14h01.45.381,vts_reward_expectancy_bt,2022.2.4,MacIntel,60.0024001,Chrome,1470,956,,,a,0.031,10,389,2,0,10,10,5,1,0,1,0,0,0,0,0,1,circle,star,,,,,,,,,,,,,,,,,,,,,,,,,,,,,,,,,,,,,,,,,,,,,,,,,,,,,,
295075,2022-11-27_14h01.45.381,vts_reward_expectancy_bt,2022.2.4,MacIntel,60.0024001,Chrome,1470,956,,,a,0.2416,10,399,2,0,11,11,1,1,1,0,0,0,0,0,1,0,triangle,hexagon,,,,,,,,,,,,,,,,,,,,,,,,,,,,,,,,,,,,,,,,,,,,,,,,,,,,,,
295075,2022-11-27_14h01.45.381,vts_reward_expectancy_bt,2022.2.4,MacIntel,60.0024001,Chrome,1470,956,,,a,0.3023,1,400,2,1,0,12,8,1,0,0,1,0,0,0,0,1,hexagon,star,,,,,,,,,,,,,,,,,,,,,,,,,,,,,,,,,,,,,,,,,,,,,,,,,,,,,,
295075,2022-11-27_14h01.45.381,vts_reward_expectancy_bt,2022.2.4,MacIntel,60.0024001,Chrome,1470,956,,,a,0.6776,10,410,2,1,1,13,9,1,0,0,0,1,1,0,0,0,star,triangle,,,,,,,,,,,,,,,,,,,,,,,,,,,,,,,,,,,,,,,,,,,,,,,,,,,,,,
295075,2022-11-27_14h01.45.381,vts_reward_expectancy_bt,2022.2.4,MacIntel,60.0024001,Chrome,1470,956,,,a,0.1694,10,420,2,1,2,14,4,1,0,1,0,0,0,0,1,0,circle,hexagon,,,,,,,,,,,,,,,,,,,,,,,,,,,,,,,,,,,,,,,,,,,,,,,,,,,,,,
295075,2022-11-27_14h01.45.381,vts_reward_expectancy_bt,2022.2.4,MacIntel,60.0024001,Chrome,1470,956,,,a,0.5238,10,430,2,1,3,15,10,1,0,0,0,1,0,1,0,0,star ,circle,,,,,,,,,,,,,,,,,,,,,,,,,,,,,,,,,,,,,,,,,,,,,,,,,,,,,,
295075,2022-11-27_14h01.45.381,vts_reward_expectancy_bt,2022.2.4,MacIntel,60.0024001,Chrome,1470,956,,,a,0.3363,1,431,2,1,4,16,6,1,0,0,1,0,1,0,0,0,hexagon,triangle,,,,,,,,,,,,,,,,,,,,,,,,,,,,,,,,,,,,,,,,,,,,,,,,,,,,,,
295075,2022-11-27_14h01.45.381,vts_reward_expectancy_bt,2022.2.4,MacIntel,60.0024001,Chrome,1470,956,,,a,0.3232,10,441,2,1,5,17,0,1,1,0,0,0,0,1,0,0,triangle,circle,,,,,,,,,,,,,,,,,,,,,,,,,,,,,,,,,,,,,,,,,,,,,,,,,,,,,,
295075,2022-11-27_14h01.45.381,vts_reward_expectancy_bt,2022.2.4,MacIntel,60.0024001,Chrome,1470,956,,,a,1.2497,1,442,2,1,6,18,7,1,0,0,1,0,0,1,0,0,hexagon,circle,,,,,,,,,,,,,,,,,,,,,,,,,,,,,,,,,,,,,,,,,,,,,,,,,,,,,,
295075,2022-11-27_14h01.45.381,vts_reward_expectancy_bt,2022.2.4,MacIntel,60.0024001,Chrome,1470,956,,,a,0.2831,1,443,2,1,7,19,11,1,0,0,0,1,0,0,1,0,star,hexagon,,,,,,,,,,,,,,,,,,,,,,,,,,,,,,,,,,,,,,,,,,,,,,,,,,,,,,
295075,2022-11-27_14h01.45.381,vts_reward_expectancy_bt,2022.2.4,MacIntel,60.0024001,Chrome,1470,956,,,a,1.0358,1,444,2,1,8,20,1,1,1,0,0,0,0,0,1,0,triangle,hexagon,,,,,,,,,,,,,,,,,,,,,,,,,,,,,,,,,,,,,,,,,,,,,,,,,,,,,,
295075,2022-11-27_14h01.45.381,vts_reward_expectancy_bt,2022.2.4,MacIntel,60.0024001,Chrome,1470,956,,,a,0.2683,1,445,2,1,9,21,2,1,1,0,0,0,0,0,0,1,triangle,star,,,,,,,,,,,,,,,,,,,,,,,,,,,,,,,,,,,,,,,,,,,,,,,,,,,,,,
295075,2022-11-27_14h01.45.381,vts_reward_expectancy_bt,2022.2.4,MacIntel,60.0024001,Chrome,1470,956,,,a,1.9163,10,455,2,1,10,22,3,1,0,1,0,0,1,0,0,0,circle,triangle,,,,,,,,,,,,,,,,,,,,,,,,,,,,,,,,,,,,,,,,,,,,,,,,,,,,,,
295075,2022-11-27_14h01.45.381,vts_reward_expectancy_bt,2022.2.4,MacIntel,60.0024001,Chrome,1470,956,,,a,0.0951,1,456,2,1,11,23,5,1,0,1,0,0,0,0,0,1,circle,star,,,,,,,,,,,,,,,,,,,,,,,,,,,,,,,,,,,,,,,,,,,,,,,,,,,,,,
295075,2022-11-27_14h01.45.381,vts_reward_expectancy_bt,2022.2.4,MacIntel,60.0024001,Chrome,1470,956,,,a,1.5545,1,457,2,2,0,24,11,1,0,0,0,1,0,0,1,0,star,hexagon,,,,,,,,,,,,,,,,,,,,,,,,,,,,,,,,,,,,,,,,,,,,,,,,,,,,,,
295075,2022-11-27_14h01.45.381,vts_reward_expectancy_bt,2022.2.4,MacIntel,60.0024001,Chrome,1470,956,,,a,0.119,1,458,2,2,1,25,6,1,0,0,1,0,1,0,0,0,hexagon,triangle,,,,,,,,,,,,,,,,,,,,,,,,,,,,,,,,,,,,,,,,,,,,,,,,,,,,,,
295075,2022-11-27_14h01.45.381,vts_reward_expectancy_bt,2022.2.4,MacIntel,60.0024001,Chrome,1470,956,,,a,0.0075,10,468,2,2,2,26,2,1,1,0,0,0,0,0,0,1,triangle,star,,,,,,,,,,,,,,,,,,,,,,,,,,,,,,,,,,,,,,,,,,,,,,,,,,,,,,
295075,2022-11-27_14h01.45.381,vts_reward_expectancy_bt,2022.2.4,MacIntel,60.0024001,Chrome,1470,956,,,a,0.1721,10,478,2,2,3,27,3,1,0,1,0,0,1,0,0,0,circle,triangle,,,,,,,,,,,,,,,,,,,,,,,,,,,,,,,,,,,,,,,,,,,,,,,,,,,,,,
295075,2022-11-27_14h01.45.381,vts_reward_expectancy_bt,2022.2.4,MacIntel,60.0024001,Chrome,1470,956,,,a,0.3993,1,479,2,2,4,28,8,1,0,0,1,0,0,0,0,1,hexagon,star,,,,,,,,,,,,,,,,,,,,,,,,,,,,,,,,,,,,,,,,,,,,,,,,,,,,,,
295075,2022-11-27_14h01.45.381,vts_reward_expectancy_bt,2022.2.4,MacIntel,60.0024001,Chrome,1470,956,,,a,0.158,10,489,2,2,5,29,9,1,0,0,0,1,1,0,0,0,star,triangle,,,,,,,,,,,,,,,,,,,,,,,,,,,,,,,,,,,,,,,,,,,,,,,,,,,,,,
295075,2022-11-27_14h01.45.381,vts_reward_expectancy_bt,2022.2.4,MacIntel,60.0024001,Chrome,1470,956,,,a,0.17,10,499,2,2,6,30,0,1,1,0,0,0,0,1,0,0,triangle,circle,,,,,,,,,,,,,,,,,,,,,,,,,,,,,,,,,,,,,,,,,,,,,,,,,,,,,,
295075,2022-11-27_14h01.45.381,vts_reward_expectancy_bt,2022.2.4,MacIntel,60.0024001,Chrome,1470,956,,,a,0.252,10,509,2,2,7,31,10,1,0,0,0,1,0,1,0,0,star ,circle,,,,,,,,,,,,,,,,,,,,,,,,,,,,,,,,,,,,,,,,,,,,,,,,,,,,,,
295075,2022-11-27_14h01.45.381,vts_reward_expectancy_bt,2022.2.4,MacIntel,60.0024001,Chrome,1470,956,,,a,0.2824,10,519,2,2,8,32,4,1,0,1,0,0,0,0,1,0,circle,hexagon,,,,,,,,,,,,,,,,,,,,,,,,,,,,,,,,,,,,,,,,,,,,,,,,,,,,,,
295075,2022-11-27_14h01.45.381,vts_reward_expectancy_bt,2022.2.4,MacIntel,60.0024001,Chrome,1470,956,,,a,0.3884,10,529,2,2,9,33,5,1,0,1,0,0,0,0,0,1,circle,star,,,,,,,,,,,,,,,,,,,,,,,,,,,,,,,,,,,,,,,,,,,,,,,,,,,,,,
295075,2022-11-27_14h01.45.381,vts_reward_expectancy_bt,2022.2.4,MacIntel,60.0024001,Chrome,1470,956,,,a,0.3429,1,530,2,2,10,34,7,1,0,0,1,0,0,1,0,0,hexagon,circle,,,,,,,,,,,,,,,,,,,,,,,,,,,,,,,,,,,,,,,,,,,,,,,,,,,,,,
295075,2022-11-27_14h01.45.381,vts_reward_expectancy_bt,2022.2.4,MacIntel,60.0024001,Chrome,1470,956,,,a,0.1805,10,540,2,2,11,35,1,1,1,0,0,0,0,0,1,0,triangle,hexagon,,,,,,,,,,,,,,,,,,,,,,,,,,,,,,,,,,,,,,,,,,,,,,,,,,,,,,
295075,2022-11-27_14h01.45.381,vts_reward_expectancy_bt,2022.2.4,MacIntel,60.0024001,Chrome,1470,956,,,,,,,,,,,,,,,,,,,,,,,132,H,hexagon,1,0,d,1.4187,0,0,0,0,0,1,,,,,,,,,,,,,,,,,,,,,,,,,,,,,,,,,,,,,,,,,
295075,2022-11-27_14h01.45.381,vts_reward_expectancy_bt,2022.2.4,MacIntel,60.0024001,Chrome,1470,956,,,,,,,,,,,,,,,,,,,,,,,181,B,triangle,2,0,k,0.7459,0,1,0,1,0,1,,,,,,,,,,,,,,,,,,,,,,,,,,,,,,,,,,,,,,,,,
295075,2022-11-27_14h01.45.381,vts_reward_expectancy_bt,2022.2.4,MacIntel,60.0024001,Chrome,1470,956,,,,,,,,,,,,,,,,,,,,,,,160,F,circle,0,0,d,1.3004,0,2,0,2,0,1,,,,,,,,,,,,,,,,,,,,,,,,,,,,,,,,,,,,,,,,,
295075,2022-11-27_14h01.45.381,vts_reward_expectancy_bt,2022.2.4,MacIntel,60.0024001,Chrome,1470,956,,,,,,,,,,,,,,,,,,,,,,,146,D,star,1,1,d,0.7982,0,3,0,3,0,1,,,,,,,,,,,,,,,,,,,,,,,,,,,,,,,,,,,,,,,,,
295075,2022-11-27_14h01.45.381,vts_reward_expectancy_bt,2022.2.4,MacIntel,60.0024001,Chrome,1470,956,,,,,,,,,,,,,,,,,,,,,,,125,W,hexagon,1,0,d,1.397,0,4,0,4,0,1,,,,,,,,,,,,,,,,,,,,,,,,,,,,,,,,,,,,,,,,,
295075,2022-11-27_14h01.45.381,vts_reward_expectancy_bt,2022.2.4,MacIntel,60.0024001,Chrome,1470,956,,,,,,,,,,,,,,,,,,,,,,,167,Y,triangle,2,0,k,1.5832,0,5,0,5,0,1,,,,,,,,,,,,,,,,,,,,,,,,,,,,,,,,,,,,,,,,,
295075,2022-11-27_14h01.45.381,vts_reward_expectancy_bt,2022.2.4,MacIntel,60.0024001,Chrome,1470,956,,,,,,,,,,,,,,,,,,,,,,,174,S,circle,2,0,j,1.2077,0,6,0,6,0,1,,,,,,,,,,,,,,,,,,,,,,,,,,,,,,,,,,,,,,,,,
295075,2022-11-27_14h01.45.381,vts_reward_expectancy_bt,2022.2.4,MacIntel,60.0024001,Chrome,1470,956,,,,,,,,,,,,,,,,,,,,,,,139,U,star,1,0,d,0.0004,0,7,0,7,0,1,,,,,,,,,,,,,,,,,,,,,,,,,,,,,,,,,,,,,,,,,
295075,2022-11-27_14h01.45.381,vts_reward_expectancy_bt,2022.2.4,MacIntel,60.0024001,Chrome,1470,956,,,,,,,,,,,,,,,,,,,,,,,132,H,circle,1,0,d,1.0879,0,8,0,8,0,1,,,,,,,,,,,,,,,,,,,,,,,,,,,,,,,,,,,,,,,,,
295075,2022-11-27_14h01.45.381,vts_reward_expectancy_bt,2022.2.4,MacIntel,60.0024001,Chrome,1470,956,,,,,,,,,,,,,,,,,,,,,,,181,B,hexagon,0,0,d,0.3499,0,9,0,9,0,1,,,,,,,,,,,,,,,,,,,,,,,,,,,,,,,,,,,,,,,,,
295075,2022-11-27_14h01.45.381,vts_reward_expectancy_bt,2022.2.4,MacIntel,60.0024001,Chrome,1470,956,,,,,,,,,,,,,,,,,,,,,,,146,S,circle,1,1,d,1.6658,1,0,0,0,0,1,,,,,,,,,,,,,,,,,,,,,,,,,,,,,,,,,,,,,,,,,
295075,2022-11-27_14h01.45.381,vts_reward_expectancy_bt,2022.2.4,MacIntel,60.0024001,Chrome,1470,956,,,,,,,,,,,,,,,,,,,,,,,139,U,hexagon,1,0,d,0.754,1,1,0,1,0,1,,,,,,,,,,,,,,,,,,,,,,,,,,,,,,,,,,,,,,,,,
295075,2022-11-27_14h01.45.381,vts_reward_expectancy_bt,2022.2.4,MacIntel,60.0024001,Chrome,1470,956,,,,,,,,,,,,,,,,,,,,,,,167,D,triangle,1,0,f,0.6011,1,2,0,2,0,1,,,,,,,,,,,,,,,,,,,,,,,,,,,,,,,,,,,,,,,,,
295075,2022-11-27_14h01.45.381,vts_reward_expectancy_bt,2022.2.4,MacIntel,60.0024001,Chrome,1470,956,,,,,,,,,,,,,,,,,,,,,,,125,B,star,1,0,d,0.6632,1,3,0,3,0,1,,,,,,,,,,,,,,,,,,,,,,,,,,,,,,,,,,,,,,,,,
295075,2022-11-27_14h01.45.381,vts_reward_expectancy_bt,2022.2.4,MacIntel,60.0024001,Chrome,1470,956,,,,,,,,,,,,,,,,,,,,,,,132,Y,circle,1,0,d,0.6991,1,4,0,4,0,1,,,,,,,,,,,,,,,,,,,,,,,,,,,,,,,,,,,,,,,,,
295075,2022-11-27_14h01.45.381,vts_reward_expectancy_bt,2022.2.4,MacIntel,60.0024001,Chrome,1470,956,,,,,,,,,,,,,,,,,,,,,,,181,F,hexagon,1,0,f,1.2181,1,5,0,5,0,1,,,,,,,,,,,,,,,,,,,,,,,,,,,,,,,,,,,,,,,,,
295075,2022-11-27_14h01.45.381,vts_reward_expectancy_bt,2022.2.4,MacIntel,60.0024001,Chrome,1470,956,,,,,,,,,,,,,,,,,,,,,,,174,W,triangle,1,0,f,1.8538,1,6,0,6,0,1,,,,,,,,,,,,,,,,,,,,,,,,,,,,,,,,,,,,,,,,,
295075,2022-11-27_14h01.45.381,vts_reward_expectancy_bt,2022.2.4,MacIntel,60.0024001,Chrome,1470,956,,,,,,,,,,,,,,,,,,,,,,,160,H,star,1,0,f,1.3631,1,7,0,7,0,1,,,,,,,,,,,,,,,,,,,,,,,,,,,,,,,,,,,,,,,,,
295075,2022-11-27_14h01.45.381,vts_reward_expectancy_bt,2022.2.4,MacIntel,60.0024001,Chrome,1470,956,,,,,,,,,,,,,,,,,,,,,,,146,S,triangle,1,0,d,1.853,1,8,0,8,0,1,,,,,,,,,,,,,,,,,,,,,,,,,,,,,,,,,,,,,,,,,
295075,2022-11-27_14h01.45.381,vts_reward_expectancy_bt,2022.2.4,MacIntel,60.0024001,Chrome,1470,956,,,,,,,,,,,,,,,,,,,,,,,139,U,hexagon,1,0,d,1.3334,1,9,0,9,0,1,,,,,,,,,,,,,,,,,,,,,,,,,,,,,,,,,,,,,,,,,
295075,2022-11-27_14h01.45.381,vts_reward_expectancy_bt,2022.2.4,MacIntel,60.0024001,Chrome,1470,956,,,,,,,,,,,,,,,,,,,,,,,139,F,star,1,0,,,2,,,,,,j,1.0663,0,0,0,0,1,,,,,,,,,,,,,,,,,,,,,,,,,,,,,,,,,,
295075,2022-11-27_14h01.45.381,vts_reward_expectancy_bt,2022.2.4,MacIntel,60.0024001,Chrome,1470,956,,,,,,,,,,,,,,,,,,,,,,,160,H,hexagon,1,0,,,2,,,,,,j,1.0935,1,0,1,0,1,,,,,,,,,,,,,,,,,,,,,,,,,,,,,,,,,,
295075,2022-11-27_14h01.45.381,vts_reward_expectancy_bt,2022.2.4,MacIntel,60.0024001,Chrome,1470,956,,,,,,,,,,,,,,,,,,,,,,,167,U,circle,0,0,,,2,,,,,,j,1.4136,2,0,2,0,1,,,,,,,,,,,,,,,,,,,,,,,,,,,,,,,,,,
295075,2022-11-27_14h01.45.381,vts_reward_expectancy_bt,2022.2.4,MacIntel,60.0024001,Chrome,1470,956,,,,,,,,,,,,,,,,,,,,,,,174,Y,triangle,1,1,,,2,,,,,,k,0.6149,3,0,3,0,1,,,,,,,,,,,,,,,,,,,,,,,,,,,,,,,,,,
295075,2022-11-27_14h01.45.381,vts_reward_expectancy_bt,2022.2.4,MacIntel,60.0024001,Chrome,1470,956,,,,,,,,,,,,,,,,,,,,,,,181,S,star,1,0,,,2,,,,,,k,1.3664,4,0,4,0,1,,,,,,,,,,,,,,,,,,,,,,,,,,,,,,,,,,
295075,2022-11-27_14h01.45.381,vts_reward_expectancy_bt,2022.2.4,MacIntel,60.0024001,Chrome,1470,956,,,,,,,,,,,,,,,,,,,,,,,132,W,hexagon,1,0,,,2,,,,,,k,0.6357,5,0,5,0,1,,,,,,,,,,,,,,,,,,,,,,,,,,,,,,,,,,
295075,2022-11-27_14h01.45.381,vts_reward_expectancy_bt,2022.2.4,MacIntel,60.0024001,Chrome,1470,956,,,,,,,,,,,,,,,,,,,,,,,125,D,circle,1,0,,,2,,,,,,j,0.9829,6,0,6,0,1,,,,,,,,,,,,,,,,,,,,,,,,,,,,,,,,,,
295075,2022-11-27_14h01.45.381,vts_reward_expectancy_bt,2022.2.4,MacIntel,60.0024001,Chrome,1470,956,,,,,,,,,,,,,,,,,,,,,,,146,B,triangle,1,0,,,2,,,,,,j,1.0125,7,0,7,0,1,,,,,,,,,,,,,,,,,,,,,,,,,,,,,,,,,,
295075,2022-11-27_14h01.45.381,vts_reward_expectancy_bt,2022.2.4,MacIntel,60.0024001,Chrome,1470,956,,,,,,,,,,,,,,,,,,,,,,,139,F,hexagon,1,0,,,2,,,,,,j,1.0842,8,0,8,0,1,,,,,,,,,,,,,,,,,,,,,,,,,,,,,,,,,,
295075,2022-11-27_14h01.45.381,vts_reward_expectancy_bt,2022.2.4,MacIntel,60.0024001,Chrome,1470,956,,,,,,,,,,,,,,,,,,,,,,,160,H,triangle,1,0,,,2,,,,,,j,0.8055,9,0,9,0,1,,,,,,,,,,,,,,,,,,,,,,,,,,,,,,,,,,
295075,2022-11-27_14h01.45.381,vts_reward_expectancy_bt,2022.2.4,MacIntel,60.0024001,Chrome,1470,956,,,,,0,540,,,,,,,,,,,,,,,,,167,W,circle,-1,0,,,3,,,,,,,,,,,,,-1,no_choice,NA,,vtsPrac,0,0,0,0,1,,,,,,,,,,,,,,,,,,,,,,,,
295075,2022-11-27_14h01.45.381,vts_reward_expectancy_bt,2022.2.4,MacIntel,60.0024001,Chrome,1470,956,,,,,0,540,,,,,,,,,,,,,,,,,125,B,hexagon,1,0,,,3,,,,,,,,,,,,,switch,number,numSwt,d,vtsPrac,1,0,1,0,1,1.7478,,,,,,,,,,,,,,,,,,,,,,,
295075,2022-11-27_14h01.45.381,vts_reward_expectancy_bt,2022.2.4,MacIntel,60.0024001,Chrome,1470,956,,,,,0,540,,,,,,,,,,,,,,,,,174,D,circle,1,0,,,3,,,,,,,,,,,,,repeat,number,numRpt,f,vtsPrac,2,0,2,0,1,1.3167,,,,,,,,,,,,,,,,,,,,,,,
295075,2022-11-27_14h01.45.381,vts_reward_expectancy_bt,2022.2.4,MacIntel,60.0024001,Chrome,1470,956,,,,,0,540,,,,,,,,,,,,,,,,,181,Y,hexagon,1,0,,,3,,,,,,,,,,,,,repeat,number,numRpt,f,vtsPrac,3,0,3,0,1,0.7535,,,,,,,,,,,,,,,,,,,,,,,
295075,2022-11-27_14h01.45.381,vts_reward_expectancy_bt,2022.2.4,MacIntel,60.0024001,Chrome,1470,956,,,,,0,540,,,,,,,,,,,,,,,,,167,W,triangle,1,0,,,3,,,,,,,,,,,,,switch,letter,lettSwt,k,vtsPrac,4,0,4,0,1,0.8996,,,,,,,,,,,,,,,,,,,,,,,
295075,2022-11-27_14h01.45.381,vts_reward_expectancy_bt,2022.2.4,MacIntel,60.0024001,Chrome,1470,956,,,,,0,540,,,,,,,,,,,,,,,,,125,B,circle,1,0,,,3,,,,,,,,,,,,,switch,number,numSwt,d,vtsPrac,5,0,5,0,1,1.0506,,,,,,,,,,,,,,,,,,,,,,,
295075,2022-11-27_14h01.45.381,vts_reward_expectancy_bt,2022.2.4,MacIntel,60.0024001,Chrome,1470,956,,,,,0,540,,,,,,,,,,,,,,,,,174,D,star,0,0,,,3,,,,,,,,,,,,,switch,letter,NA,k,vtsPrac,6,0,6,0,1,0.8719,,,,,,,,,,,,,,,,,,,,,,,
295075,2022-11-27_14h01.45.381,vts_reward_expectancy_bt,2022.2.4,MacIntel,60.0024001,Chrome,1470,956,,,,,0,540,,,,,,,,,,,,,,,,,181,Y,circle,1,1,,,3,,,,,,,,,,,,,switch,number,numSwt,f,vtsPrac,7,0,7,0,1,1.6529,,,,,,,,,,,,,,,,,,,,,,,
295075,2022-11-27_14h01.45.381,vts_reward_expectancy_bt,2022.2.4,MacIntel,60.0024001,Chrome,1470,956,,,,,0,540,,,,,,,,,,,,,,,,,167,Y,star,1,0,,,3,,,,,,,,,,,,,switch,letter,lettSwt,k,vtsPrac,8,0,8,0,1,1.2563,,,,,,,,,,,,,,,,,,,,,,,
295075,2022-11-27_14h01.45.381,vts_reward_expectancy_bt,2022.2.4,MacIntel,60.0024001,Chrome,1470,956,,,,,0,540,,,,,,,,,,,,,,,,,125,D,triangle,1,0,,,3,,,,,,,,,,,,,repeat,letter,lettRpt,j,vtsPrac,9,0,9,0,1,1.4834,,,,,,,,,,,,,,,,,,,,,,,
295075,2022-11-27_14h01.45.381,vts_reward_expectancy_bt,2022.2.4,MacIntel,60.0024001,Chrome,1470,956,,,,,0,540,,,,,,,,,,,,,,,,,132,B,circle,1,0,,,3,,,,,,,,,,,,,switch,number,numSwt,d,vtsPrac,10,0,10,0,1,0.9959,,,,,,,,,,,,,,,,,,,,,,,
295075,2022-11-27_14h01.45.381,vts_reward_expectancy_bt,2022.2.4,MacIntel,60.0024001,Chrome,1470,956,,,,,0,540,,,,,,,,,,,,,,,,,181,W,hexagon,1,0,,,3,,,,,,,,,,,,,repeat,number,numRpt,f,vtsPrac,11,0,11,0,1,0.9571,,,,,,,,,,,,,,,,,,,,,,,
295075,2022-11-27_14h01.45.381,vts_reward_expectancy_bt,2022.2.4,MacIntel,60.0024001,Chrome,1470,956,,,,,0,540,,,,,,,,,,,,,,,,,146,U,circle,1,0,,,3,,,,,,,,,,,,,repeat,number,numRpt,d,vtsPrac,12,0,12,0,1,1.5186,,,,,,,,,,,,,,,,,,,,,,,
295075,2022-11-27_14h01.45.381,vts_reward_expectancy_bt,2022.2.4,MacIntel,60.0024001,Chrome,1470,956,,,,,0,540,,,,,,,,,,,,,,,,,125,B,triangle,1,0,,,3,,,,,,,,,,,,,switch,letter,lettSwt,j,vtsPrac,13,0,13,0,1,0.8948,,,,,,,,,,,,,,,,,,,,,,,
295075,2022-11-27_14h01.45.381,vts_reward_expectancy_bt,2022.2.4,MacIntel,60.0024001,Chrome,1470,956,,,,,0,540,,,,,,,,,,,,,,,,,132,D,hexagon,1,0,,,3,,,,,,,,,,,,,repeat,letter,lettRpt,j,vtsPrac,14,0,14,0,1,0.7989,,,,,,,,,,,,,,,,,,,,,,,
295075,2022-11-27_14h01.45.381,vts_reward_expectancy_bt,2022.2.4,MacIntel,60.0024001,Chrome,1470,956,,,,,0,540,,,,,,,,,,,,,,,,,167,H,triangle,1,0,,,3,,,,,,,,,,,,,repeat,letter,lettRpt,j,vtsPrac,15,0,15,0,1,1.0068,,,,,,,,,,,,,,,,,,,,,,,
295075,2022-11-27_14h01.45.381,vts_reward_expectancy_bt,2022.2.4,MacIntel,60.0024001,Chrome,1470,956,,,,,0,540,,,,,,,,,,,,,,,,,160,H,triangle,1,0,,,3,,,,,,,,,,,,,repeat,letter,lettRpt,j,vtsPrac,16,0,16,0,1,0.8168,,,,,,,,,,,,,,,,,,,,,,,
295075,2022-11-27_14h01.45.381,vts_reward_expectancy_bt,2022.2.4,MacIntel,60.0024001,Chrome,1470,956,,,,,0,540,,,,,,,,,,,,,,,,,167,Y,hexagon,1,0,,,3,,,,,,,,,,,,,switch,number,numSwt,f,vtsPrac,17,0,17,0,1,0.9647,,,,,,,,,,,,,,,,,,,,,,,
295075,2022-11-27_14h01.45.381,vts_reward_expectancy_bt,2022.2.4,MacIntel,60.0024001,Chrome,1470,956,,,,,0,540,,,,,,,,,,,,,,,,,132,S,circle,1,0,,,3,,,,,,,,,,,,,switch,letter,lettSwt,k,vtsPrac,18,0,18,0,1,1.1985,,,,,,,,,,,,,,,,,,,,,,,
295075,2022-11-27_14h01.45.381,vts_reward_expectancy_bt,2022.2.4,MacIntel,60.0024001,Chrome,1470,956,,,,,0,540,,,,,,,,,,,,,,,,,146,U,star,1,0,,,3,,,,,,,,,,,,,switch,number,numSwt,d,vtsPrac,19,0,19,0,1,1.0829,,,,,,,,,,,,,,,,,,,,,,,
295075,2022-11-27_14h01.45.381,vts_reward_expectancy_bt,2022.2.4,MacIntel,60.0024001,Chrome,1470,956,,,,,0,540,,,,,,,,,,,,,,,,,174,D,star,1,0,,,3,,,,,,,,,,,,,switch,letter,lettSwt,j,vtsPrac,20,0,20,0,1,0.8633,,,,,,,,,,,,,,,,,,,,,,,
295075,2022-11-27_14h01.45.381,vts_reward_expectancy_bt,2022.2.4,MacIntel,60.0024001,Chrome,1470,956,,,,,0,540,,,,,,,,,,,,,,,,,125,S,triangle,1,0,,,3,,,,,,,,,,,,,switch,number,numSwt,d,vtsPrac,21,0,21,0,1,0.8974,,,,,,,,,,,,,,,,,,,,,,,
295075,2022-11-27_14h01.45.381,vts_reward_expectancy_bt,2022.2.4,MacIntel,60.0024001,Chrome,1470,956,,,,,0,540,,,,,,,,,,,,,,,,,167,Y,circle,1,0,,,3,,,,,,,,,,,,,repeat,number,numRpt,f,vtsPrac,22,0,22,0,1,0.9281,,,,,,,,,,,,,,,,,,,,,,,
295075,2022-11-27_14h01.45.381,vts_reward_expectancy_bt,2022.2.4,MacIntel,60.0024001,Chrome,1470,956,,,,,0,540,,,,,,,,,,,,,,,,,132,B,hexagon,1,0,,,3,,,,,,,,,,,,,repeat,number,numRpt,d,vtsPrac,23,0,23,0,1,0.9661,,,,,,,,,,,,,,,,,,,,,,,
295075,2022-11-27_14h01.45.381,vts_reward_expectancy_bt,2022.2.4,MacIntel,60.0024001,Chrome,1470,956,,,,,0,540,,,,,,,,,,,,,,,,,146,H,circle,1,0,,,3,,,,,,,,,,,,,repeat,number,numRpt,d,vtsPrac,24,0,24,0,1,1.2397,,,,,,,,,,,,,,,,,,,,,,,
295075,2022-11-27_14h01.45.381,vts_reward_expectancy_bt,2022.2.4,MacIntel,60.0024001,Chrome,1470,956,,,,,0,540,,,,,,,,,,,,,,,,,167,U,triangle,1,0,,,3,,,,,,,,,,,,,switch,letter,lettSwt,k,vtsPrac,25,0,25,0,1,1.7941,,,,,,,,,,,,,,,,,,,,,,,
295075,2022-11-27_14h01.45.381,vts_reward_expectancy_bt,2022.2.4,MacIntel,60.0024001,Chrome,1470,956,,,,,0,540,,,,,,,,,,,,,,,,,132,W,hexagon,1,0,,,3,,,,,,,,,,,,,switch,number,numSwt,d,vtsPrac,26,0,26,0,1,0.6546,,,,,,,,,,,,,,,,,,,,,,,
295075,2022-11-27_14h01.45.381,vts_reward_expectancy_bt,2022.2.4,MacIntel,60.0024001,Chrome,1470,956,,,,,0,540,,,,,,,,,,,,,,,,,160,F,circle,1,0,,,3,,,,,,,,,,,,,repeat,number,numRpt,f,vtsPrac,27,0,27,0,1,1.6352,,,,,,,,,,,,,,,,,,,,,,,
295075,2022-11-27_14h01.45.381,vts_reward_expectancy_bt,2022.2.4,MacIntel,60.0024001,Chrome,1470,956,,,,,0,540,,,,,,,,,,,,,,,,,146,F,hexagon,1,0,,,3,,,,,,,,,,,,,repeat,number,numRpt,d,vtsPrac,28,0,28,0,1,0.6888,,,,,,,,,,,,,,,,,,,,,,,
295075,2022-11-27_14h01.45.381,vts_reward_expectancy_bt,2022.2.4,MacIntel,60.0024001,Chrome,1470,956,,,,,0,540,,,,,,,,,,,,,,,,,132,D,triangle,1,0,,,3,,,,,,,,,,,,,switch,letter,lettSwt,j,vtsPrac,29,0,29,0,1,1.2634,,,,,,,,,,,,,,,,,,,,,,,
295075,2022-11-27_14h01.45.381,vts_reward_expectancy_bt,2022.2.4,MacIntel,60.0024001,Chrome,1470,956,,,,,0,540,,,,,,,,,,,,,,,,,125,H,circle,1,0,,,3,,,,,,,,,,,,,switch,number,numSwt,d,vtsPrac,30,0,30,0,1,0.637,,,,,,,,,,,,,,,,,,,,,,,
295075,2022-11-27_14h01.45.381,vts_reward_expectancy_bt,2022.2.4,MacIntel,60.0024001,Chrome,1470,956,,,,,0,540,,,,,,,,,,,,,,,,,181,B,star,1,0,,,3,,,,,,,,,,,,,switch,letter,lettSwt,j,vtsPrac,31,0,31,0,1,1.282,,,,,,,,,,,,,,,,,,,,,,,
295075,2022-11-27_14h01.45.381,vts_reward_expectancy_bt,2022.2.4,MacIntel,60.0024001,Chrome,1470,956,,,,,,,,,,,,,,,,,,,,,,,,,,,,,,,,,,,,,,,,,,,,,,,,,,,,,,,,,,,,,,,,,,,,,,,,,,,,
295075,2022-11-27_14h01.45.381,vts_reward_expectancy_bt,2022.2.4,MacIntel,60.0024001,Chrome,1470,956,,,,,,,,,,,,,,,,,,,,,,,,,,,,,,,,,,,,,,,,,,,,,,,,,,,,,,,,,,,,,,,,,,,,,,,,,,,,
295075,2022-11-27_14h01.45.381,vts_reward_expectancy_bt,2022.2.4,MacIntel,60.0024001,Chrome,1470,956,,,,,0,540,,,,,,,,,,,,,,,,,167,W,star,1,0,,,,,,,,,,,,,,,,switch,number,numSwt,f,noRew,,,,,,0.9747,0,0,0,0,0,1,,,,,,,,,,,,,,,,,
295075,2022-11-27_14h01.45.381,vts_reward_expectancy_bt,2022.2.4,MacIntel,60.0024001,Chrome,1470,956,,,,,0,540,,,,,,,,,,,,,,,,,181,B,circle,1,0,,,,,,,,,,,,,,,,repeat,number,numRpt,f,noRew,,,,,,0.9338,0,1,0,1,0,1,,,,,,,,,,,,,,,,,
295075,2022-11-27_14h01.45.381,vts_reward_expectancy_bt,2022.2.4,MacIntel,60.0024001,Chrome,1470,956,,,,,0,540,,,,,,,,,,,,,,,,,125,F,star,1,0,,,,,,,,,,,,,,,,switch,letter,lettSwt,j,noRew,,,,,,0.8793,0,2,0,2,0,1,,,,,,,,,,,,,,,,,
295075,2022-11-27_14h01.45.381,vts_reward_expectancy_bt,2022.2.4,MacIntel,60.0024001,Chrome,1470,956,,,,,0,540,,,,,,,,,,,,,,,,,174,S,circle,1,0,,,,,,,,,,,,,,,,switch,number,numSwt,f,noRew,,,,,,0.9365,0,3,0,3,0,1,,,,,,,,,,,,,,,,,
295075,2022-11-27_14h01.45.381,vts_reward_expectancy_bt,2022.2.4,MacIntel,60.0024001,Chrome,1470,956,,,,,0,540,,,,,,,,,,,,,,,,,167,W,circle,1,0,,,,,,,,,,,,,,,,switch,letter,lettSwt,k,noRew,,,,,,0.8314,0,4,0,4,0,1,,,,,,,,,,,,,,,,,
295075,2022-11-27_14h01.45.381,vts_reward_expectancy_bt,2022.2.4,MacIntel,60.0024001,Chrome,1470,956,,,,,0,540,,,,,,,,,,,,,,,,,181,B,hexagon,1,0,,,,,,,,,,,,,,,,switch,number,numSwt,f,noRew,,,,,,1.8335,0,5,0,5,0,1,,,,,,,,,,,,,,,,,
295075,2022-11-27_14h01.45.381,vts_reward_expectancy_bt,2022.2.4,MacIntel,60.0024001,Chrome,1470,956,,,,,0,540,,,,,,,,,,,,,,,,,125,F,circle,1,0,,,,,,,,,,,,,,,,switch,letter,lettSwt,j,noRew,,,,,,0.9154,0,6,0,6,0,1,,,,,,,,,,,,,,,,,
295075,2022-11-27_14h01.45.381,vts_reward_expectancy_bt,2022.2.4,MacIntel,60.0024001,Chrome,1470,956,,,,,0,540,,,,,,,,,,,,,,,,,174,S,triangle,1,0,,,,,,,,,,,,,,,,repeat,letter,lettRpt,k,noRew,,,,,,0.701,0,7,0,7,0,1,,,,,,,,,,,,,,,,,
295075,2022-11-27_14h01.45.381,vts_reward_expectancy_bt,2022.2.4,MacIntel,60.0024001,Chrome,1470,956,,,,,0,540,,,,,,,,,,,,,,,,,125,U,circle,1,0,,,,,,,,,,,,,,,,switch,number,numSwt,d,noRew,,,,,,1.533,0,8,0,8,0,1,,,,,,,,,,,,,,,,,
295075,2022-11-27_14h01.45.381,vts_reward_expectancy_bt,2022.2.4,MacIntel,60.0024001,Chrome,1470,956,,,,,0,540,,,,,,,,,,,,,,,,,167,W,star,1,0,,,,,,,,,,,,,,,,switch,letter,lettSwt,k,noRew,,,,,,0.8157,0,9,0,9,0,1,,,,,,,,,,,,,,,,,
295075,2022-11-27_14h01.45.381,vts_reward_expectancy_bt,2022.2.4,MacIntel,60.0024001,Chrome,1470,956,,,,,0,540,,,,,,,,,,,,,,,,,132,H,hexagon,1,0,,,,,,,,,,,,,,,,repeat,letter,lettRpt,j,noRew,,,,,,1.1825,0,10,0,10,0,1,,,,,,,,,,,,,,,,,
295075,2022-11-27_14h01.45.381,vts_reward_expectancy_bt,2022.2.4,MacIntel,60.0024001,Chrome,1470,956,,,,,0,540,,,,,,,,,,,,,,,,,181,F,triangle,1,0,,,,,,,,,,,,,,,,repeat,letter,lettRpt,j,noRew,,,,,,1.0703,0,11,0,11,0,1,,,,,,,,,,,,,,,,,
295075,2022-11-27_14h01.45.381,vts_reward_expectancy_bt,2022.2.4,MacIntel,60.0024001,Chrome,1470,956,,,,,0,540,,,,,,,,,,,,,,,,,160,D,circle,1,0,,,,,,,,,,,,,,,,switch,number,numSwt,f,noRew,,,,,,1.7452,0,12,0,12,0,1,,,,,,,,,,,,,,,,,
295075,2022-11-27_14h01.45.381,vts_reward_expectancy_bt,2022.2.4,MacIntel,60.0024001,Chrome,1470,956,,,,,0,540,,,,,,,,,,,,,,,,,132,S,star,1,0,,,,,,,,,,,,,,,,repeat,number,numRpt,d,noRew,,,,,,0.705,0,13,0,13,0,1,,,,,,,,,,,,,,,,,
295075,2022-11-27_14h01.45.381,vts_reward_expectancy_bt,2022.2.4,MacIntel,60.0024001,Chrome,1470,956,,,,,0,540,,,,,,,,,,,,,,,,,146,Y,star,1,0,,,,,,,,,,,,,,,,repeat,number,numRpt,d,noRew,,,,,,1.3697,0,14,0,14,0,1,,,,,,,,,,,,,,,,,
295075,2022-11-27_14h01.45.381,vts_reward_expectancy_bt,2022.2.4,MacIntel,60.0024001,Chrome,1470,956,,,,,0,540,,,,,,,,,,,,,,,,,125,B,circle,1,0,,,,,,,,,,,,,,,,switch,letter,lettSwt,j,noRew,,,,,,0.5968,0,15,0,15,0,1,,,,,,,,,,,,,,,,,
295075,2022-11-27_14h01.45.381,vts_reward_expectancy_bt,2022.2.4,MacIntel,60.0024001,Chrome,1470,956,,,,,0,540,,,,,,,,,,,,,,,,,167,F,star,1,0,,,,,,,,,,,,,,,,repeat,letter,lettRpt,j,noRew,,,,,,0.7483,0,16,0,16,0,1,,,,,,,,,,,,,,,,,
295075,2022-11-27_14h01.45.381,vts_reward_expectancy_bt,2022.2.4,MacIntel,60.0024001,Chrome,1470,956,,,,,0,540,,,,,,,,,,,,,,,,,132,W,hexagon,1,0,,,,,,,,,,,,,,,,repeat,letter,lettRpt,k,noRew,,,,,,0.7068,0,17,0,17,0,1,,,,,,,,,,,,,,,,,
295075,2022-11-27_14h01.45.381,vts_reward_expectancy_bt,2022.2.4,MacIntel,60.0024001,Chrome,1470,956,,,,,0,540,,,,,,,,,,,,,,,,,181,D,star,1,0,,,,,,,,,,,,,,,,switch,number,numSwt,f,noRew,,,,,,0.831,0,18,0,18,0,1,,,,,,,,,,,,,,,,,
295075,2022-11-27_14h01.45.381,vts_reward_expectancy_bt,2022.2.4,MacIntel,60.0024001,Chrome,1470,956,,,,,0,540,,,,,,,,,,,,,,,,,139,S,hexagon,1,0,,,,,,,,,,,,,,,,repeat,number,numRpt,d,noRew,,,,,,1.4804,0,19,0,19,0,1,,,,,,,,,,,,,,,,,
295075,2022-11-27_14h01.45.381,vts_reward_expectancy_bt,2022.2.4,MacIntel,60.0024001,Chrome,1470,956,,,,,0,540,,,,,,,,,,,,,,,,,160,B,hexagon,1,0,,,,,,,,,,,,,,,,repeat,number,numRpt,f,noRew,,,,,,1.3307,0,20,0,20,0,1,,,,,,,,,,,,,,,,,
295075,2022-11-27_14h01.45.381,vts_reward_expectancy_bt,2022.2.4,MacIntel,60.0024001,Chrome,1470,956,,,,,0,540,,,,,,,,,,,,,,,,,132,S,star,1,0,,,,,,,,,,,,,,,,repeat,number,numRpt,d,noRew,,,,,,1.3887,0,21,0,21,0,1,,,,,,,,,,,,,,,,,
295075,2022-11-27_14h01.45.381,vts_reward_expectancy_bt,2022.2.4,MacIntel,60.0024001,Chrome,1470,956,,,,,0,540,,,,,,,,,,,,,,,,,174,D,circle,1,0,,,,,,,,,,,,,,,,switch,letter,lettSwt,j,noRew,,,,,,1.4036,0,22,0,22,0,1,,,,,,,,,,,,,,,,,
295075,2022-11-27_14h01.45.381,vts_reward_expectancy_bt,2022.2.4,MacIntel,60.0024001,Chrome,1470,956,,,,,0,540,,,,,,,,,,,,,,,,,181,F,hexagon,1,0,,,,,,,,,,,,,,,,switch,number,numSwt,f,noRew,,,,,,0.6802,0,23,0,23,0,1,,,,,,,,,,,,,,,,,
295075,2022-11-27_14h01.45.381,vts_reward_expectancy_bt,2022.2.4,MacIntel,60.0024001,Chrome,1470,956,,,,,0,540,,,,,,,,,,,,,,,,,132,H,circle,1,0,,,,,,,,,,,,,,,,repeat,number,numRpt,d,noRew,,,,,,0.8119,0,24,0,24,0,1,,,,,,,,,,,,,,,,,
295075,2022-11-27_14h01.45.381,vts_reward_expectancy_bt,2022.2.4,MacIntel,60.0024001,Chrome,1470,956,,,,,0,540,,,,,,,,,,,,,,,,,181,B,star,1,0,,,,,,,,,,,,,,,,repeat,number,numRpt,f,noRew,,,,,,0.906,0,25,0,25,0,1,,,,,,,,,,,,,,,,,
295075,2022-11-27_14h01.45.381,vts_reward_expectancy_bt,2022.2.4,MacIntel,60.0024001,Chrome,1470,956,,,,,0,540,,,,,,,,,,,,,,,,,146,Y,hexagon,1,0,,,,,,,,,,,,,,,,repeat,number,numRpt,d,noRew,,,,,,1.38,0,26,0,26,0,1,,,,,,,,,,,,,,,,,
295075,2022-11-27_14h01.45.381,vts_reward_expectancy_bt,2022.2.4,MacIntel,60.0024001,Chrome,1470,956,,,,,0,540,,,,,,,,,,,,,,,,,174,W,circle,1,0,,,,,,,,,,,,,,,,repeat,number,numRpt,f,noRew,,,,,,0.6669,0,27,0,27,0,1,,,,,,,,,,,,,,,,,
295075,2022-11-27_14h01.45.381,vts_reward_expectancy_bt,2022.2.4,MacIntel,60.0024001,Chrome,1470,956,,,,,0,540,,,,,,,,,,,,,,,,,139,B,star,1,0,,,,,,,,,,,,,,,,switch,letter,lettSwt,j,noRew,,,,,,1.0567,0,28,0,28,0,1,,,,,,,,,,,,,,,,,
295075,2022-11-27_14h01.45.381,vts_reward_expectancy_bt,2022.2.4,MacIntel,60.0024001,Chrome,1470,956,,,,,0,540,,,,,,,,,,,,,,,,,167,W,hexagon,1,0,,,,,,,,,,,,,,,,repeat,letter,lettRpt,k,noRew,,,,,,0.5554,0,29,0,29,0,1,,,,,,,,,,,,,,,,,
295075,2022-11-27_14h01.45.381,vts_reward_expectancy_bt,2022.2.4,MacIntel,60.0024001,Chrome,1470,956,,,,,0,540,,,,,,,,,,,,,,,,,125,D,star,1,0,,,,,,,,,,,,,,,,repeat,letter,lettRpt,j,noRew,,,,,,0.7706,0,30,0,30,0,1,,,,,,,,,,,,,,,,,
295075,2022-11-27_14h01.45.381,vts_reward_expectancy_bt,2022.2.4,MacIntel,60.0024001,Chrome,1470,956,,,,,0,540,,,,,,,,,,,,,,,,,160,H,triangle,1,0,,,,,,,,,,,,,,,,repeat,letter,lettRpt,j,noRew,,,,,,0.7314,0,31,0,31,0,1,,,,,,,,,,,,,,,,,
295075,2022-11-27_14h01.45.381,vts_reward_expectancy_bt,2022.2.4,MacIntel,60.0024001,Chrome,1470,956,,,,,0,540,,,,,,,,,,,,,,,,,139,B,star,1,0,,,,,,,,,,,,,,,,repeat,letter,lettRpt,j,noRew,,,,,,0.6479,0,32,0,32,0,1,,,,,,,,,,,,,,,,,
295075,2022-11-27_14h01.45.381,vts_reward_expectancy_bt,2022.2.4,MacIntel,60.0024001,Chrome,1470,956,,,,,0,540,,,,,,,,,,,,,,,,,146,H,hexagon,1,0,,,,,,,,,,,,,,,,repeat,letter,lettRpt,j,noRew,,,,,,0.8319,0,33,0,33,0,1,,,,,,,,,,,,,,,,,
295075,2022-11-27_14h01.45.381,vts_reward_expectancy_bt,2022.2.4,MacIntel,60.0024001,Chrome,1470,956,,,,,0,540,,,,,,,,,,,,,,,,,125,U,star,1,0,,,,,,,,,,,,,,,,repeat,letter,lettRpt,k,noRew,,,,,,0.2805,0,34,0,34,0,1,,,,,,,,,,,,,,,,,
295075,2022-11-27_14h01.45.381,vts_reward_expectancy_bt,2022.2.4,MacIntel,60.0024001,Chrome,1470,956,,,,,0,540,,,,,,,,,,,,,,,,,174,D,triangle,0,0,,,,,,,,,,,,,,,,repeat,letter,NA,k,noRew,,,,,,0.5805,0,35,0,35,0,1,,,,,,,,,,,,,,,,,
295075,2022-11-27_14h01.45.381,vts_reward_expectancy_bt,2022.2.4,MacIntel,60.0024001,Chrome,1470,956,,,,,0,540,,,,,,,,,,,,,,,,,181,U,hexagon,0,1,,,,,,,,,,,,,,,,repeat,letter,NA,j,noRew,,,,,,1.3479,0,36,0,36,0,1,,,,,,,,,,,,,,,,,
295075,2022-11-27_14h01.45.381,vts_reward_expectancy_bt,2022.2.4,MacIntel,60.0024001,Chrome,1470,956,,,,,0,540,,,,,,,,,,,,,,,,,132,W,star,1,1,,,,,,,,,,,,,,,,repeat,letter,lettRpt,k,noRew,,,,,,0.8656,0,37,0,37,0,1,,,,,,,,,,,,,,,,,
295075,2022-11-27_14h01.45.381,vts_reward_expectancy_bt,2022.2.4,MacIntel,60.0024001,Chrome,1470,956,,,,,0,540,,,,,,,,,,,,,,,,,167,Y,hexagon,1,0,,,,,,,,,,,,,,,,switch,number,numSwt,f,noRew,,,,,,0.8153,0,38,0,38,0,1,,,,,,,,,,,,,,,,,
295075,2022-11-27_14h01.45.381,vts_reward_expectancy_bt,2022.2.4,MacIntel,60.0024001,Chrome,1470,956,,,,,0,540,,,,,,,,,,,,,,,,,139,S,circle,1,0,,,,,,,,,,,,,,,,repeat,number,numRpt,d,noRew,,,,,,0.9313,0,39,0,39,0,1,,,,,,,,,,,,,,,,,
295075,2022-11-27_14h01.45.381,vts_reward_expectancy_bt,2022.2.4,MacIntel,60.0024001,Chrome,1470,956,,,,,0,540,,,,,,,,,,,,,,,,,132,F,hexagon,1,0,,,,,,,,,,,,,,,,repeat,number,numRpt,d,noRew,,,,,,0.5706,0,40,0,40,0,1,,,,,,,,,,,,,,,,,
295075,2022-11-27_14h01.45.381,vts_reward_expectancy_bt,2022.2.4,MacIntel,60.0024001,Chrome,1470,956,,,,,0,540,,,,,,,,,,,,,,,,,167,D,star,1,0,,,,,,,,,,,,,,,,repeat,number,numRpt,f,noRew,,,,,,0.6297,0,41,0,41,0,1,,,,,,,,,,,,,,,,,
295075,2022-11-27_14h01.45.381,vts_reward_expectancy_bt,2022.2.4,MacIntel,60.0024001,Chrome,1470,956,,,,,0,540,,,,,,,,,,,,,,,,,160,B,hexagon,1,0,,,,,,,,,,,,,,,,repeat,number,numRpt,f,noRew,,,,,,0.5688,0,42,0,42,0,1,,,,,,,,,,,,,,,,,
295075,2022-11-27_14h01.45.381,vts_reward_expectancy_bt,2022.2.4,MacIntel,60.0024001,Chrome,1470,956,,,,,0,540,,,,,,,,,,,,,,,,,174,Y,star,0,0,,,,,,,,,,,,,,,,repeat,number,NA,d,noRew,,,,,,0.6669,0,43,0,43,0,1,,,,,,,,,,,,,,,,,
295075,2022-11-27_14h01.45.381,vts_reward_expectancy_bt,2022.2.4,MacIntel,60.0024001,Chrome,1470,956,,,,,0,540,,,,,,,,,,,,,,,,,174,H,triangle,1,1,,,,,,,,,,,,,,,,repeat,number,numRpt,f,noRew,,,,,,0.6849,0,44,0,44,0,1,,,,,,,,,,,,,,,,,
295075,2022-11-27_14h01.45.381,vts_reward_expectancy_bt,2022.2.4,MacIntel,60.0024001,Chrome,1470,956,,,,,0,540,,,,,,,,,,,,,,,,,132,B,circle,1,0,,,,,,,,,,,,,,,,repeat,number,numRpt,d,noRew,,,,,,0.6565,0,45,0,45,0,1,,,,,,,,,,,,,,,,,
295075,2022-11-27_14h01.45.381,vts_reward_expectancy_bt,2022.2.4,MacIntel,60.0024001,Chrome,1470,956,,,,,0,540,,,,,,,,,,,,,,,,,139,W,circle,1,0,,,,,,,,,,,,,,,,repeat,number,numRpt,d,noRew,,,,,,0.8014,0,46,0,46,0,1,,,,,,,,,,,,,,,,,
295075,2022-11-27_14h01.45.381,vts_reward_expectancy_bt,2022.2.4,MacIntel,60.0024001,Chrome,1470,956,,,,,0,540,,,,,,,,,,,,,,,,,160,Y,star,1,0,,,,,,,,,,,,,,,,repeat,number,numRpt,f,noRew,,,,,,0.9139,0,47,0,47,0,1,,,,,,,,,,,,,,,,,
295075,2022-11-27_14h01.45.381,vts_reward_expectancy_bt,2022.2.4,MacIntel,60.0024001,Chrome,1470,956,,,,,0,540,,,,,,,,,,,,,,,,,146,Y,star,1,0,,,,,,,,,,,,,,,,repeat,number,numRpt,d,noRew,,,,,,0.8669,0,48,0,48,0,1,,,,,,,,,,,,,,,,,
295075,2022-11-27_14h01.45.381,vts_reward_expectancy_bt,2022.2.4,MacIntel,60.0024001,Chrome,1470,956,,,,,0,540,,,,,,,,,,,,,,,,,181,B,triangle,1,0,,,,,,,,,,,,,,,,repeat,number,numRpt,f,noRew,,,,,,0.7328,0,49,0,49,0,1,,,,,,,,,,,,,,,,,
295075,2022-11-27_14h01.45.381,vts_reward_expectancy_bt,2022.2.4,MacIntel,60.0024001,Chrome,1470,956,,,,,0,540,,,,,,,,,,,,,,,,,132,D,star,1,0,,,,,,,,,,,,,,,,repeat,number,numRpt,d,noRew,,,,,,0.6653,0,50,0,50,0,1,,,,,,,,,,,,,,,,,
295075,2022-11-27_14h01.45.381,vts_reward_expectancy_bt,2022.2.4,MacIntel,60.0024001,Chrome,1470,956,,,,,0,540,,,,,,,,,,,,,,,,,139,U,hexagon,1,0,,,,,,,,,,,,,,,,repeat,number,numRpt,d,noRew,,,,,,0.8303,0,51,0,51,0,1,,,,,,,,,,,,,,,,,
295075,2022-11-27_14h01.45.381,vts_reward_expectancy_bt,2022.2.4,MacIntel,60.0024001,Chrome,1470,956,,,,,0,540,,,,,,,,,,,,,,,,,132,F,star,1,0,,,,,,,,,,,,,,,,repeat,number,numRpt,d,noRew,,,,,,0.6547,0,52,0,52,0,1,,,,,,,,,,,,,,,,,
295075,2022-11-27_14h01.45.381,vts_reward_expectancy_bt,2022.2.4,MacIntel,60.0024001,Chrome,1470,956,,,,,0,540,,,,,,,,,,,,,,,,,167,S,circle,1,0,,,,,,,,,,,,,,,,switch,letter,lettSwt,k,noRew,,,,,,1.1211,0,53,0,53,0,1,,,,,,,,,,,,,,,,,
295075,2022-11-27_14h01.45.381,vts_reward_expectancy_bt,2022.2.4,MacIntel,60.0024001,Chrome,1470,956,,,,,0,540,,,,,,,,,,,,,,,,,146,W,star,1,0,,,,,,,,,,,,,,,,repeat,letter,lettRpt,k,noRew,,,,,,1.2045,0,54,0,54,0,1,,,,,,,,,,,,,,,,,
295075,2022-11-27_14h01.45.381,vts_reward_expectancy_bt,2022.2.4,MacIntel,60.0024001,Chrome,1470,956,,,,,0,540,,,,,,,,,,,,,,,,,174,D,hexagon,1,0,,,,,,,,,,,,,,,,repeat,letter,lettRpt,j,noRew,,,,,,1.5873,0,55,0,55,0,1,,,,,,,,,,,,,,,,,
295075,2022-11-27_14h01.45.381,vts_reward_expectancy_bt,2022.2.4,MacIntel,60.0024001,Chrome,1470,956,,,,,0,540,,,,,,,,,,,,,,,,,132,F,circle,1,0,,,,,,,,,,,,,,,,repeat,letter,lettRpt,j,noRew,,,,,,1.1964,0,56,0,56,0,1,,,,,,,,,,,,,,,,,
295075,2022-11-27_14h01.45.381,vts_reward_expectancy_bt,2022.2.4,MacIntel,60.0024001,Chrome,1470,956,,,,,0,540,,,,,,,,,,,,,,,,,139,S,hexagon,1,0,,,,,,,,,,,,,,,,repeat,letter,lettRpt,k,noRew,,,,,,1.0625,0,57,0,57,0,1,,,,,,,,,,,,,,,,,
295075,2022-11-27_14h01.45.381,vts_reward_expectancy_bt,2022.2.4,MacIntel,60.0024001,Chrome,1470,956,,,,,0,540,,,,,,,,,,,,,,,,,181,H,triangle,1,0,,,,,,,,,,,,,,,,repeat,letter,lettRpt,j,noRew,,,,,,1.0876,0,58,0,58,0,1,,,,,,,,,,,,,,,,,
295075,2022-11-27_14h01.45.381,vts_reward_expectancy_bt,2022.2.4,MacIntel,60.0024001,Chrome,1470,956,,,,,0,540,,,,,,,,,,,,,,,,,125,D,hexagon,1,0,,,,,,,,,,,,,,,,repeat,letter,lettRpt,j,noRew,,,,,,0.9217,0,59,0,59,0,1,,,,,,,,,,,,,,,,,
295075,2022-11-27_14h01.45.381,vts_reward_expectancy_bt,2022.2.4,MacIntel,60.0024001,Chrome,1470,956,,,,,0,540,,,,,,,,,,,,,,,,,132,B,hexagon,1,0,,,,,,,,,,,,,,,,repeat,letter,lettRpt,j,noRew,,,,,,0.9146,0,60,0,60,0,1,,,,,,,,,,,,,,,,,
295075,2022-11-27_14h01.45.381,vts_reward_expectancy_bt,2022.2.4,MacIntel,60.0024001,Chrome,1470,956,,,,,0,540,,,,,,,,,,,,,,,,,125,U,circle,1,0,,,,,,,,,,,,,,,,repeat,letter,lettRpt,k,noRew,,,,,,1.398,0,61,0,61,0,1,,,,,,,,,,,,,,,,,
295075,2022-11-27_14h01.45.381,vts_reward_expectancy_bt,2022.2.4,MacIntel,60.0024001,Chrome,1470,956,,,,,0,540,,,,,,,,,,,,,,,,,167,W,triangle,1,0,,,,,,,,,,,,,,,,repeat,letter,lettRpt,k,noRew,,,,,,1.0316,0,62,0,62,0,1,,,,,,,,,,,,,,,,,
295075,2022-11-27_14h01.45.381,vts_reward_expectancy_bt,2022.2.4,MacIntel,60.0024001,Chrome,1470,956,,,,,0,540,,,,,,,,,,,,,,,,,160,S,star,1,0,,,,,,,,,,,,,,,,repeat,letter,lettRpt,k,noRew,,,,,,1.489,0,63,0,63,0,1,,,,,,,,,,,,,,,,,
295075,2022-11-27_14h01.45.381,vts_reward_expectancy_bt,2022.2.4,MacIntel,60.0024001,Chrome,1470,956,,,,,,,,,,,,,,,,,,,,,,,,,,,,,,,,,,,,,,,,,,,,,,,,,,,,,,,,,,,,,,,,,,,,,,,,,,,,
295075,2022-11-27_14h01.45.381,vts_reward_expectancy_bt,2022.2.4,MacIntel,60.0024001,Chrome,1470,956,,,,,0,540,,,,,,,,,,,,,,,,,139,D,circle,1,0,,,,,,,,,,,,,,,,switch,number,numSwt,d,Hi,,,,,,1.2234,0,,,,,,space,9.4579,high,0,0,0,0,1,,,,,,,,,
295075,2022-11-27_14h01.45.381,vts_reward_expectancy_bt,2022.2.4,MacIntel,60.0024001,Chrome,1470,956,,,,,1,541,,,,,,,,,,,,,,,,,160,H,hexagon,1,0,,,,,,,,,,,,,,,,repeat,number,numRpt,f,Lo,,,,,,0.6981,0,,,,,,,,high,1,0,1,0,1,,,,,,,,,
295075,2022-11-27_14h01.45.381,vts_reward_expectancy_bt,2022.2.4,MacIntel,60.0024001,Chrome,1470,956,,,,,0,541,,,,,,,,,,,,,,,,,146,F,triangle,1,0,,,,,,,,,,,,,,,,repeat,number,numRpt,d,Hi,,,,,,1.1477,0,,,,,,,,high,2,0,2,0,1,,,,,,,,,
295075,2022-11-27_14h01.45.381,vts_reward_expectancy_bt,2022.2.4,MacIntel,60.0024001,Chrome,1470,956,,,,,1,542,,,,,,,,,,,,,,,,,181,Y,star,1,0,,,,,,,,,,,,,,,,repeat,number,numRpt,f,Lo,,,,,,0.6201,0,,,,,,,,high,3,0,3,0,1,,,,,,,,,
295075,2022-11-27_14h01.45.381,vts_reward_expectancy_bt,2022.2.4,MacIntel,60.0024001,Chrome,1470,956,,,,,10,552,,,,,,,,,,,,,,,,,125,W,circle,1,0,,,,,,,,,,,,,,,,switch,letter,lettSwt,k,Hi,,,,,,0.5404,0,,,,,,,,high,4,0,4,0,1,,,,,,,,,
295075,2022-11-27_14h01.45.381,vts_reward_expectancy_bt,2022.2.4,MacIntel,60.0024001,Chrome,1470,956,,,,,0,552,,,,,,,,,,,,,,,,,132,U,hexagon,0,0,,,,,,,,,,,,,,,,repeat,letter,NA,j,Hi,,,,,,0.8235,0,,,,,,,,high,5,0,5,0,1,,,,,,,,,
295075,2022-11-27_14h01.45.381,vts_reward_expectancy_bt,2022.2.4,MacIntel,60.0024001,Chrome,1470,956,,,,,0,552,,,,,,,,,,,,,,,,,174,S,triangle,0,1,,,,,,,,,,,,,,,,switch,number,NA,d,Hi,,,,,,0.9986,0,,,,,,,,high,6,0,6,0,1,,,,,,,,,
295075,2022-11-27_14h01.45.381,vts_reward_expectancy_bt,2022.2.4,MacIntel,60.0024001,Chrome,1470,956,,,,,1,553,,,,,,,,,,,,,,,,,167,B,star,1,1,,,,,,,,,,,,,,,,repeat,number,numRpt,f,Lo,,,,,,0.899,0,,,,,,,,high,7,0,7,0,1,,,,,,,,,
295075,2022-11-27_14h01.45.381,vts_reward_expectancy_bt,2022.2.4,MacIntel,60.0024001,Chrome,1470,956,,,,,10,563,,,,,,,,,,,,,,,,,139,D,triangle,1,0,,,,,,,,,,,,,,,,switch,letter,lettSwt,j,Hi,,,,,,0.7565,0,,,,,,,,high,8,0,8,0,1,,,,,,,,,
295075,2022-11-27_14h01.45.381,vts_reward_expectancy_bt,2022.2.4,MacIntel,60.0024001,Chrome,1470,956,,,,,1,564,,,,,,,,,,,,,,,,,160,H,hexagon,1,0,,,,,,,,,,,,,,,,repeat,letter,lettRpt,j,Lo,,,,,,0.7487,0,,,,,,,,high,9,0,9,0,1,,,,,,,,,
295075,2022-11-27_14h01.45.381,vts_reward_expectancy_bt,2022.2.4,MacIntel,60.0024001,Chrome,1470,956,,,,,0,564,,,,,,,,,,,,,,,,,146,F,circle,1,0,,,,,,,,,,,,,,,,repeat,letter,lettRpt,j,Hi,,,,,,1.3355,0,,,,,,,,high,10,0,10,0,1,,,,,,,,,
295075,2022-11-27_14h01.45.381,vts_reward_expectancy_bt,2022.2.4,MacIntel,60.0024001,Chrome,1470,956,,,,,1,565,,,,,,,,,,,,,,,,,181,Y,star,1,0,,,,,,,,,,,,,,,,repeat,letter,lettRpt,k,Lo,,,,,,0.7034,0,,,,,,,,high,11,0,11,0,1,,,,,,,,,
295075,2022-11-27_14h01.45.381,vts_reward_expectancy_bt,2022.2.4,MacIntel,60.0024001,Chrome,1470,956,,,,,10,575,,,,,,,,,,,,,,,,,125,W,triangle,1,0,,,,,,,,,,,,,,,,repeat,letter,lettRpt,k,Hi,,,,,,0.6869,0,,,,,,,,high,12,0,12,0,1,,,,,,,,,
295075,2022-11-27_14h01.45.381,vts_reward_expectancy_bt,2022.2.4,MacIntel,60.0024001,Chrome,1470,956,,,,,1,576,,,,,,,,,,,,,,,,,132,U,star,1,0,,,,,,,,,,,,,,,,switch,number,numSwt,d,Lo,,,,,,0.7172,0,,,,,,,,high,13,0,13,0,1,,,,,,,,,
295075,2022-11-27_14h01.45.381,vts_reward_expectancy_bt,2022.2.4,MacIntel,60.0024001,Chrome,1470,956,,,,,0,576,,,,,,,,,,,,,,,,,174,S,circle,1,0,,,,,,,,,,,,,,,,repeat,number,numRpt,f,Hi,,,,,,0.837,0,,,,,,,,high,14,0,14,0,1,,,,,,,,,
295075,2022-11-27_14h01.45.381,vts_reward_expectancy_bt,2022.2.4,MacIntel,60.0024001,Chrome,1470,956,,,,,10,586,,,,,,,,,,,,,,,,,167,B,hexagon,1,0,,,,,,,,,,,,,,,,repeat,number,numRpt,f,Lo,,,,,,0.8237,0,,,,,,,,high,15,0,15,0,1,,,,,,,,,
295075,2022-11-27_14h01.45.381,vts_reward_expectancy_bt,2022.2.4,MacIntel,60.0024001,Chrome,1470,956,,,,,0,586,,,,,,,,,,,,,,,,,132,S,circle,0,0,,,,,,,,,,,,,,,,switch,letter,NA,j,Lo,,,,,,0.9984,0,,,,,,,,high,16,0,16,0,1,,,,,,,,,
295075,2022-11-27_14h01.45.381,vts_reward_expectancy_bt,2022.2.4,MacIntel,60.0024001,Chrome,1470,956,,,,,10,596,,,,,,,,,,,,,,,,,181,F,triangle,1,1,,,,,,,,,,,,,,,,switch,number,numSwt,f,Hi,,,,,,0.7181,0,,,,,,,,high,17,0,17,0,1,,,,,,,,,
295075,2022-11-27_14h01.45.381,vts_reward_expectancy_bt,2022.2.4,MacIntel,60.0024001,Chrome,1470,956,,,,,1,597,,,,,,,,,,,,,,,,,160,B,star,1,0,,,,,,,,,,,,,,,,repeat,number,numRpt,f,Lo,,,,,,0.571,0,,,,,,,,high,18,0,18,0,1,,,,,,,,,
295075,2022-11-27_14h01.45.381,vts_reward_expectancy_bt,2022.2.4,MacIntel,60.0024001,Chrome,1470,956,,,,,10,607,,,,,,,,,,,,,,,,,146,Y,hexagon,1,0,,,,,,,,,,,,,,,,repeat,number,numRpt,d,Lo,,,,,,0.5493,0,,,,,,,,high,19,0,19,0,1,,,,,,,,,
295075,2022-11-27_14h01.45.381,vts_reward_expectancy_bt,2022.2.4,MacIntel,60.0024001,Chrome,1470,956,,,,,0,607,,,,,,,,,,,,,,,,,125,D,circle,1,0,,,,,,,,,,,,,,,,repeat,number,numRpt,d,Hi,,,,,,0.7333,0,,,,,,,,high,20,0,20,0,1,,,,,,,,,
295075,2022-11-27_14h01.45.381,vts_reward_expectancy_bt,2022.2.4,MacIntel,60.0024001,Chrome,1470,956,,,,,10,617,,,,,,,,,,,,,,,,,174,U,hexagon,1,0,,,,,,,,,,,,,,,,switch,letter,lettSwt,k,Lo,,,,,,1.0129,0,,,,,,,,high,21,0,21,0,1,,,,,,,,,
295075,2022-11-27_14h01.45.381,vts_reward_expectancy_bt,2022.2.4,MacIntel,60.0024001,Chrome,1470,956,,,,,1,618,,,,,,,,,,,,,,,,,167,W,star,1,0,,,,,,,,,,,,,,,,repeat,letter,lettRpt,k,Lo,,,,,,0.6851,0,,,,,,,,high,22,0,22,0,1,,,,,,,,,
295075,2022-11-27_14h01.45.381,vts_reward_expectancy_bt,2022.2.4,MacIntel,60.0024001,Chrome,1470,956,,,,,0,618,,,,,,,,,,,,,,,,,139,H,triangle,1,0,,,,,,,,,,,,,,,,repeat,letter,lettRpt,j,Hi,,,,,,0.7829,0,,,,,,,,high,23,0,23,0,1,,,,,,,,,
295075,2022-11-27_14h01.45.381,vts_reward_expectancy_bt,2022.2.4,MacIntel,60.0024001,Chrome,1470,956,,,,,10,628,,,,,,,,,,,,,,,,,139,D,star,1,0,,,,,,,,,,,,,,,,repeat,letter,lettRpt,j,Lo,,,,,,0.6201,0,,,,,,,,high,24,0,24,0,1,,,,,,,,,
295075,2022-11-27_14h01.45.381,vts_reward_expectancy_bt,2022.2.4,MacIntel,60.0024001,Chrome,1470,956,,,,,1,629,,,,,,,,,,,,,,,,,160,U,hexagon,1,0,,,,,,,,,,,,,,,,repeat,letter,lettRpt,k,Lo,,,,,,0.6218,0,,,,,,,,high,25,0,25,0,1,,,,,,,,,
295075,2022-11-27_14h01.45.381,vts_reward_expectancy_bt,2022.2.4,MacIntel,60.0024001,Chrome,1470,956,,,,,1,630,,,,,,,,,,,,,,,,,132,F,circle,1,0,,,,,,,,,,,,,,,,repeat,letter,lettRpt,j,Hi,,,,,,0.6387,0,,,,,,,,high,26,0,26,0,1,,,,,,,,,
295075,2022-11-27_14h01.45.381,vts_reward_expectancy_bt,2022.2.4,MacIntel,60.0024001,Chrome,1470,956,,,,,10,640,,,,,,,,,,,,,,,,,125,W,triangle,1,0,,,,,,,,,,,,,,,,switch,number,numSwt,d,Hi,,,,,,0.6502,0,,,,,,,,high,27,0,27,0,1,,,,,,,,,
295075,2022-11-27_14h01.45.381,vts_reward_expectancy_bt,2022.2.4,MacIntel,60.0024001,Chrome,1470,956,,,,,1,641,,,,,,,,,,,,,,,,,174,H,circle,1,0,,,,,,,,,,,,,,,,switch,letter,lettSwt,j,Hi,,,,,,0.6497,0,,,,,,,,high,28,0,28,0,1,,,,,,,,,
295075,2022-11-27_14h01.45.381,vts_reward_expectancy_bt,2022.2.4,MacIntel,60.0024001,Chrome,1470,956,,,,,1,642,,,,,,,,,,,,,,,,,167,Y,star,1,0,,,,,,,,,,,,,,,,repeat,letter,lettRpt,k,Lo,,,,,,0.6482,0,,,,,,,,high,29,0,29,0,1,,,,,,,,,
295075,2022-11-27_14h01.45.381,vts_reward_expectancy_bt,2022.2.4,MacIntel,60.0024001,Chrome,1470,956,,,,,0,642,,,,,,,,,,,,,,,,,146,S,triangle,1,0,,,,,,,,,,,,,,,,repeat,letter,lettRpt,k,Hi,,,,,,0.8805,0,,,,,,,,high,30,0,30,0,1,,,,,,,,,
295075,2022-11-27_14h01.45.381,vts_reward_expectancy_bt,2022.2.4,MacIntel,60.0024001,Chrome,1470,956,,,,,10,652,,,,,,,,,,,,,,,,,181,B,hexagon,1,0,,,,,,,,,,,,,,,,repeat,letter,lettRpt,j,Lo,,,,,,0.8504,0,,,,,,,,high,31,0,31,0,1,,,,,,,,,
295075,2022-11-27_14h01.45.381,vts_reward_expectancy_bt,2022.2.4,MacIntel,60.0024001,Chrome,1470,956,,,,,10,662,,,,,,,,,,,,,,,,,139,Y,circle,1,0,,,,,,,,,,,,,,,,switch,number,numSwt,d,Hi,,,,,,0.6794,1,,,,,,space,1.0442,high,0,0,0,0,1,,,,,,,,,
295075,2022-11-27_14h01.45.381,vts_reward_expectancy_bt,2022.2.4,MacIntel,60.0024001,Chrome,1470,956,,,,,1,663,,,,,,,,,,,,,,,,,181,S,star,1,0,,,,,,,,,,,,,,,,repeat,number,numRpt,f,Lo,,,,,,1.8441,1,,,,,,,,high,1,0,1,0,1,,,,,,,,,
295075,2022-11-27_14h01.45.381,vts_reward_expectancy_bt,2022.2.4,MacIntel,60.0024001,Chrome,1470,956,,,,,1,664,,,,,,,,,,,,,,,,,167,D,hexagon,1,0,,,,,,,,,,,,,,,,repeat,number,numRpt,f,Lo,,,,,,0.7755,1,,,,,,,,high,2,0,2,0,1,,,,,,,,,
295075,2022-11-27_14h01.45.381,vts_reward_expectancy_bt,2022.2.4,MacIntel,60.0024001,Chrome,1470,956,,,,,1,665,,,,,,,,,,,,,,,,,160,H,triangle,1,0,,,,,,,,,,,,,,,,repeat,number,numRpt,f,Hi,,,,,,0.5772,1,,,,,,,,high,3,0,3,0,1,,,,,,,,,
295075,2022-11-27_14h01.45.381,vts_reward_expectancy_bt,2022.2.4,MacIntel,60.0024001,Chrome,1470,956,,,,,0,665,,,,,,,,,,,,,,,,,125,U,circle,1,0,,,,,,,,,,,,,,,,repeat,number,numRpt,d,Hi,,,,,,0.7879,1,,,,,,,,high,4,0,4,0,1,,,,,,,,,
295075,2022-11-27_14h01.45.381,vts_reward_expectancy_bt,2022.2.4,MacIntel,60.0024001,Chrome,1470,956,,,,,0,665,,,,,,,,,,,,,,,,,146,F,star,0,0,,,,,,,,,,,,,,,,repeat,number,NA,f,Hi,,,,,,0.8853,1,,,,,,,,high,5,0,5,0,1,,,,,,,,,
295075,2022-11-27_14h01.45.381,vts_reward_expectancy_bt,2022.2.4,MacIntel,60.0024001,Chrome,1470,956,,,,,1,666,,,,,,,,,,,,,,,,,132,B,hexagon,1,1,,,,,,,,,,,,,,,,repeat,number,numRpt,d,Lo,,,,,,0.5546,1,,,,,,,,high,6,0,6,0,1,,,,,,,,,
295075,2022-11-27_14h01.45.381,vts_reward_expectancy_bt,2022.2.4,MacIntel,60.0024001,Chrome,1470,956,,,,,10,676,,,,,,,,,,,,,,,,,174,W,triangle,1,0,,,,,,,,,,,,,,,,repeat,number,numRpt,f,Hi,,,,,,0.5259,1,,,,,,,,high,7,0,7,0,1,,,,,,,,,
295075,2022-11-27_14h01.45.381,vts_reward_expectancy_bt,2022.2.4,MacIntel,60.0024001,Chrome,1470,956,,,,,10,686,,,,,,,,,,,,,,,,,139,Y,circle,1,0,,,,,,,,,,,,,,,,switch,letter,lettSwt,k,Hi,,,,,,0.6029,1,,,,,,,,high,8,0,8,0,1,,,,,,,,,
295075,2022-11-27_14h01.45.381,vts_reward_expectancy_bt,2022.2.4,MacIntel,60.0024001,Chrome,1470,956,,,,,10,696,,,,,,,,,,,,,,,,,181,S,hexagon,1,0,,,,,,,,,,,,,,,,switch,number,numSwt,f,Lo,,,,,,0.784,1,,,,,,,,high,9,0,9,0,1,,,,,,,,,
295075,2022-11-27_14h01.45.381,vts_reward_expectancy_bt,2022.2.4,MacIntel,60.0024001,Chrome,1470,956,,,,,10,706,,,,,,,,,,,,,,,,,167,D,star,1,0,,,,,,,,,,,,,,,,repeat,number,numRpt,f,Lo,,,,,,0.9243,1,,,,,,,,high,10,0,10,0,1,,,,,,,,,
295075,2022-11-27_14h01.45.381,vts_reward_expectancy_bt,2022.2.4,MacIntel,60.0024001,Chrome,1470,956,,,,,0,706,,,,,,,,,,,,,,,,,160,H,triangle,1,0,,,,,,,,,,,,,,,,switch,letter,lettSwt,j,Hi,,,,,,0.9176,1,,,,,,,,high,11,0,11,0,1,,,,,,,,,
295075,2022-11-27_14h01.45.381,vts_reward_expectancy_bt,2022.2.4,MacIntel,60.0024001,Chrome,1470,956,,,,,1,707,,,,,,,,,,,,,,,,,125,U,hexagon,1,0,,,,,,,,,,,,,,,,switch,number,numSwt,d,Lo,,,,,,0.6063,1,,,,,,,,high,12,0,12,0,1,,,,,,,,,
295075,2022-11-27_14h01.45.381,vts_reward_expectancy_bt,2022.2.4,MacIntel,60.0024001,Chrome,1470,956,,,,,0,707,,,,,,,,,,,,,,,,,146,F,triangle,0,0,,,,,,,,,,,,,,,,repeat,number,NA,f,Lo,,,,,,0.717,1,,,,,,,,high,13,0,13,0,1,,,,,,,,,
295075,2022-11-27_14h01.45.381,vts_reward_expectancy_bt,2022.2.4,MacIntel,60.0024001,Chrome,1470,956,,,,,1,708,,,,,,,,,,,,,,,,,132,B,star,1,1,,,,,,,,,,,,,,,,repeat,number,numRpt,d,Lo,,,,,,0.5862,1,,,,,,,,high,14,0,14,0,1,,,,,,,,,
295075,2022-11-27_14h01.45.381,vts_reward_expectancy_bt,2022.2.4,MacIntel,60.0024001,Chrome,1470,956,,,,,0,708,,,,,,,,,,,,,,,,,174,W,circle,1,0,,,,,,,,,,,,,,,,repeat,number,numRpt,f,Hi,,,,,,0.7775,1,,,,,,,,high,15,0,15,0,1,,,,,,,,,
295075,2022-11-27_14h01.45.381,vts_reward_expectancy_bt,2022.2.4,MacIntel,60.0024001,Chrome,1470,956,,,,,0,708,,,,,,,,,,,,,,,,,139,D,circle,1,0,,,,,,,,,,,,,,,,repeat,number,numRpt,d,Hi,,,,,,0.798,1,,,,,,,,high,16,0,16,0,1,,,,,,,,,
295075,2022-11-27_14h01.45.381,vts_reward_expectancy_bt,2022.2.4,MacIntel,60.0024001,Chrome,1470,956,,,,,1,709,,,,,,,,,,,,,,,,,181,B,hexagon,1,0,,,,,,,,,,,,,,,,switch,letter,lettSwt,j,Lo,,,,,,0.6831,1,,,,,,,,high,17,0,17,0,1,,,,,,,,,
295075,2022-11-27_14h01.45.381,vts_reward_expectancy_bt,2022.2.4,MacIntel,60.0024001,Chrome,1470,956,,,,,1,710,,,,,,,,,,,,,,,,,174,H,star,1,0,,,,,,,,,,,,,,,,switch,number,numSwt,f,Lo,,,,,,0.5635,1,,,,,,,,high,18,0,18,0,1,,,,,,,,,
295075,2022-11-27_14h01.45.381,vts_reward_expectancy_bt,2022.2.4,MacIntel,60.0024001,Chrome,1470,956,,,,,0,710,,,,,,,,,,,,,,,,,132,U,triangle,1,0,,,,,,,,,,,,,,,,switch,letter,lettSwt,k,Hi,,,,,,0.8974,1,,,,,,,,high,19,0,19,0,1,,,,,,,,,
295075,2022-11-27_14h01.45.381,vts_reward_expectancy_bt,2022.2.4,MacIntel,60.0024001,Chrome,1470,956,,,,,10,720,,,,,,,,,,,,,,,,,167,W,triangle,1,0,,,,,,,,,,,,,,,,switch,number,numSwt,f,Hi,,,,,,0.5752,1,,,,,,,,high,20,0,20,0,1,,,,,,,,,
295075,2022-11-27_14h01.45.381,vts_reward_expectancy_bt,2022.2.4,MacIntel,60.0024001,Chrome,1470,956,,,,,1,721,,,,,,,,,,,,,,,,,146,F,star,1,0,,,,,,,,,,,,,,,,repeat,number,numRpt,d,Lo,,,,,,0.7249,1,,,,,,,,high,21,0,21,0,1,,,,,,,,,
295075,2022-11-27_14h01.45.381,vts_reward_expectancy_bt,2022.2.4,MacIntel,60.0024001,Chrome,1470,956,,,,,1,722,,,,,,,,,,,,,,,,,125,S,hexagon,1,0,,,,,,,,,,,,,,,,repeat,number,numRpt,d,Lo,,,,,,0.6182,1,,,,,,,,high,22,0,22,0,1,,,,,,,,,
295075,2022-11-27_14h01.45.381,vts_reward_expectancy_bt,2022.2.4,MacIntel,60.0024001,Chrome,1470,956,,,,,10,732,,,,,,,,,,,,,,,,,160,Y,circle,1,0,,,,,,,,,,,,,,,,repeat,number,numRpt,f,Hi,,,,,,0.5348,1,,,,,,,,high,23,0,23,0,1,,,,,,,,,
295075,2022-11-27_14h01.45.381,vts_reward_expectancy_bt,2022.2.4,MacIntel,60.0024001,Chrome,1470,956,,,,,10,742,,,,,,,,,,,,,,,,,139,Y,circle,1,0,,,,,,,,,,,,,,,,switch,letter,lettSwt,k,Hi,,,,,,0.3412,1,,,,,,,,high,24,0,24,0,1,,,,,,,,,
295075,2022-11-27_14h01.45.381,vts_reward_expectancy_bt,2022.2.4,MacIntel,60.0024001,Chrome,1470,956,,,,,1,743,,,,,,,,,,,,,,,,,174,W,star,1,0,,,,,,,,,,,,,,,,switch,number,numSwt,f,Lo,,,,,,0.6769,1,,,,,,,,high,25,0,25,0,1,,,,,,,,,
295075,2022-11-27_14h01.45.381,vts_reward_expectancy_bt,2022.2.4,MacIntel,60.0024001,Chrome,1470,956,,,,,1,744,,,,,,,,,,,,,,,,,167,H,hexagon,1,0,,,,,,,,,,,,,,,,repeat,number,numRpt,f,Lo,,,,,,0.5551,1,,,,,,,,high,26,0,26,0,1,,,,,,,,,
295075,2022-11-27_14h01.45.381,vts_reward_expectancy_bt,2022.2.4,MacIntel,60.0024001,Chrome,1470,956,,,,,0,744,,,,,,,,,,,,,,,,,146,F,triangle,1,0,,,,,,,,,,,,,,,,repeat,number,numRpt,d,Hi,,,,,,0.6921,1,,,,,,,,high,27,0,27,0,1,,,,,,,,,
295075,2022-11-27_14h01.45.381,vts_reward_expectancy_bt,2022.2.4,MacIntel,60.0024001,Chrome,1470,956,,,,,1,745,,,,,,,,,,,,,,,,,160,S,hexagon,1,0,,,,,,,,,,,,,,,,switch,letter,lettSwt,k,Lo,,,,,,0.5941,1,,,,,,,,high,28,0,28,0,1,,,,,,,,,
295075,2022-11-27_14h01.45.381,vts_reward_expectancy_bt,2022.2.4,MacIntel,60.0024001,Chrome,1470,956,,,,,0,745,,,,,,,,,,,,,,,,,132,B,circle,1,0,,,,,,,,,,,,,,,,repeat,letter,lettRpt,j,Hi,,,,,,0.7765,1,,,,,,,,high,29,0,29,0,1,,,,,,,,,
295075,2022-11-27_14h01.45.381,vts_reward_expectancy_bt,2022.2.4,MacIntel,60.0024001,Chrome,1470,956,,,,,1,746,,,,,,,,,,,,,,,,,125,U,star,1,0,,,,,,,,,,,,,,,,switch,number,numSwt,d,Lo,,,,,,1.4587,1,,,,,,,,high,30,0,30,0,1,,,,,,,,,
295075,2022-11-27_14h01.45.381,vts_reward_expectancy_bt,2022.2.4,MacIntel,60.0024001,Chrome,1470,956,,,,,10,756,,,,,,,,,,,,,,,,,181,D,triangle,1,0,,,,,,,,,,,,,,,,repeat,number,numRpt,f,Hi,,,,,,0.5474,1,,,,,,,,high,31,0,31,0,1,,,,,,,,,
295075,2022-11-27_14h01.45.381,vts_reward_expectancy_bt,2022.2.4,MacIntel,60.0024001,Chrome,1470,956,,,,,0,756,,,,,,,,,,,,,,,,,139,S,circle,1,0,,,,,,,,,,,,,,,,repeat,number,numRpt,d,Hi,,,,,,0.6188,2,,,,,,space,1.1784,high,0,0,0,0,1,,,,,,,,,
295075,2022-11-27_14h01.45.381,vts_reward_expectancy_bt,2022.2.4,MacIntel,60.0024001,Chrome,1470,956,,,,,10,766,,,,,,,,,,,,,,,,,146,B,triangle,1,0,,,,,,,,,,,,,,,,repeat,number,numRpt,d,Hi,,,,,,0.0552,2,,,,,,,,high,1,0,1,0,1,,,,,,,,,
295075,2022-11-27_14h01.45.381,vts_reward_expectancy_bt,2022.2.4,MacIntel,60.0024001,Chrome,1470,956,,,,,1,767,,,,,,,,,,,,,,,,,125,H,hexagon,1,0,,,,,,,,,,,,,,,,switch,letter,lettSwt,j,Lo,,,,,,0.1037,2,,,,,,,,high,2,0,2,0,1,,,,,,,,,
295075,2022-11-27_14h01.45.381,vts_reward_expectancy_bt,2022.2.4,MacIntel,60.0024001,Chrome,1470,956,,,,,1,768,,,,,,,,,,,,,,,,,167,U,star,1,0,,,,,,,,,,,,,,,,repeat,letter,lettRpt,k,Lo,,,,,,0.0155,2,,,,,,,,high,3,0,3,0,1,,,,,,,,,
295075,2022-11-27_14h01.45.381,vts_reward_expectancy_bt,2022.2.4,MacIntel,60.0024001,Chrome,1470,956,,,,,10,778,,,,,,,,,,,,,,,,,174,W,circle,1,0,,,,,,,,,,,,,,,,switch,number,numSwt,f,Hi,,,,,,0.0181,2,,,,,,,,high,4,0,4,0,1,,,,,,,,,
295075,2022-11-27_14h01.45.381,vts_reward_expectancy_bt,2022.2.4,MacIntel,60.0024001,Chrome,1470,956,,,,,10,788,,,,,,,,,,,,,,,,,160,Y,triangle,1,0,,,,,,,,,,,,,,,,switch,letter,lettSwt,k,Hi,,,,,,0.0188,2,,,,,,,,high,5,0,5,0,1,,,,,,,,,
295075,2022-11-27_14h01.45.381,vts_reward_expectancy_bt,2022.2.4,MacIntel,60.0024001,Chrome,1470,956,,,,,0,788,,,,,,,,,,,,,,,,,132,D,hexagon,0,0,,,,,,,,,,,,,,,,switch,number,NA,f,Hi,,,,,,0.1845,2,,,,,,,,high,6,0,6,0,1,,,,,,,,,
295075,2022-11-27_14h01.45.381,vts_reward_expectancy_bt,2022.2.4,MacIntel,60.0024001,Chrome,1470,956,,,,,10,798,,,,,,,,,,,,,,,,,181,F,star,1,1,,,,,,,,,,,,,,,,switch,letter,lettSwt,j,Lo,,,,,,0.0875,2,,,,,,,,high,7,0,7,0,1,,,,,,,,,
295075,2022-11-27_14h01.45.381,vts_reward_expectancy_bt,2022.2.4,MacIntel,60.0024001,Chrome,1470,956,,,,,0,798,,,,,,,,,,,,,,,,,139,S,circle,0,0,,,,,,,,,,,,,,,,repeat,letter,NA,j,Lo,,,,,,0.0713,2,,,,,,,,high,8,0,8,0,1,,,,,,,,,
295075,2022-11-27_14h01.45.381,vts_reward_expectancy_bt,2022.2.4,MacIntel,60.0024001,Chrome,1470,956,,,,,0,798,,,,,,,,,,,,,,,,,146,B,hexagon,0,1,,,,,,,,,,,,,,,,switch,number,NA,f,Lo,,,,,,0.049,2,,,,,,,,high,9,0,9,0,1,,,,,,,,,
295075,2022-11-27_14h01.45.381,vts_reward_expectancy_bt,2022.2.4,MacIntel,60.0024001,Chrome,1470,956,,,,,10,808,,,,,,,,,,,,,,,,,125,H,star,1,1,,,,,,,,,,,,,,,,repeat,number,numRpt,d,Lo,,,,,,0.2491,2,,,,,,,,high,10,0,10,0,1,,,,,,,,,
295075,2022-11-27_14h01.45.381,vts_reward_expectancy_bt,2022.2.4,MacIntel,60.0024001,Chrome,1470,956,,,,,0,808,,,,,,,,,,,,,,,,,167,U,triangle,0,0,,,,,,,,,,,,,,,,switch,letter,NA,j,Lo,,,,,,0.07,2,,,,,,,,high,11,0,11,0,1,,,,,,,,,
295075,2022-11-27_14h01.45.381,vts_reward_expectancy_bt,2022.2.4,MacIntel,60.0024001,Chrome,1470,956,,,,,10,818,,,,,,,,,,,,,,,,,174,W,hexagon,1,1,,,,,,,,,,,,,,,,switch,number,numSwt,f,Lo,,,,,,0.0835,2,,,,,,,,high,12,0,12,0,1,,,,,,,,,
295075,2022-11-27_14h01.45.381,vts_reward_expectancy_bt,2022.2.4,MacIntel,60.0024001,Chrome,1470,956,,,,,0,818,,,,,,,,,,,,,,,,,160,Y,triangle,0,0,,,,,,,,,,,,,,,,repeat,number,NA,d,Lo,,,,,,0.1588,2,,,,,,,,high,13,0,13,0,1,,,,,,,,,
295075,2022-11-27_14h01.45.381,vts_reward_expectancy_bt,2022.2.4,MacIntel,60.0024001,Chrome,1470,956,,,,,1,819,,,,,,,,,,,,,,,,,132,D,star,1,1,,,,,,,,,,,,,,,,repeat,number,numRpt,d,Lo,,,,,,1.2002,2,,,,,,,,high,14,0,14,0,1,,,,,,,,,
295075,2022-11-27_14h01.45.381,vts_reward_expectancy_bt,2022.2.4,MacIntel,60.0024001,Chrome,1470,956,,,,,0,819,,,,,,,,,,,,,,,,,181,F,circle,1,0,,,,,,,,,,,,,,,,repeat,number,numRpt,f,Hi,,,,,,1.9917,2,,,,,,,,high,15,0,15,0,1,,,,,,,,,
295075,2022-11-27_14h01.45.381,vts_reward_expectancy_bt,2022.2.4,MacIntel,60.0024001,Chrome,1470,956,,,,,1,820,,,,,,,,,,,,,,,,,167,Y,star,1,0,,,,,,,,,,,,,,,,repeat,number,numRpt,f,Lo,,,,,,0.1308,2,,,,,,,,high,16,0,16,0,1,,,,,,,,,
295075,2022-11-27_14h01.45.381,vts_reward_expectancy_bt,2022.2.4,MacIntel,60.0024001,Chrome,1470,956,,,,,0,820,,,,,,,,,,,,,,,,,125,B,triangle,0,0,,,,,,,,,,,,,,,,repeat,number,NA,f,Lo,,,,,,0.0077,2,,,,,,,,high,17,0,17,0,1,,,,,,,,,
295075,2022-11-27_14h01.45.381,vts_reward_expectancy_bt,2022.2.4,MacIntel,60.0024001,Chrome,1470,956,,,,,0,820,,,,,,,,,,,,,,,,,139,D,circle,0,1,,,,,,,,,,,,,,,,switch,letter,NA,k,Lo,,,,,,0.0368,2,,,,,,,,high,18,0,18,0,1,,,,,,,,,
295075,2022-11-27_14h01.45.381,vts_reward_expectancy_bt,2022.2.4,MacIntel,60.0024001,Chrome,1470,956,,,,,0,820,,,,,,,,,,,,,,,,,181,U,hexagon,0,1,,,,,,,,,,,,,,,,repeat,letter,NA,j,Lo,,,,,,0.1643,2,,,,,,,,high,19,0,19,0,1,,,,,,,,,
295075,2022-11-27_14h01.45.381,vts_reward_expectancy_bt,2022.2.4,MacIntel,60.0024001,Chrome,1470,956,,,,,0,820,,,,,,,,,,,,,,,,,146,H,star,0,1,,,,,,,,,,,,,,,,repeat,letter,NA,k,Lo,,,,,,0.0067,2,,,,,,,,high,20,0,20,0,1,,,,,,,,,
295075,2022-11-27_14h01.45.381,vts_reward_expectancy_bt,2022.2.4,MacIntel,60.0024001,Chrome,1470,956,,,,,0,820,,,,,,,,,,,,,,,,,174,F,triangle,0,1,,,,,,,,,,,,,,,,repeat,letter,NA,k,Lo,,,,,,0.0819,2,,,,,,,,high,21,0,21,0,1,,,,,,,,,
295075,2022-11-27_14h01.45.381,vts_reward_expectancy_bt,2022.2.4,MacIntel,60.0024001,Chrome,1470,956,,,,,10,830,,,,,,,,,,,,,,,,,160,W,circle,1,1,,,,,,,,,,,,,,,,repeat,letter,lettRpt,k,Hi,,,,,,0.1831,2,,,,,,,,high,22,0,22,0,1,,,,,,,,,
295075,2022-11-27_14h01.45.381,vts_reward_expectancy_bt,2022.2.4,MacIntel,60.0024001,Chrome,1470,956,,,,,10,840,,,,,,,,,,,,,,,,,132,S,hexagon,1,0,,,,,,,,,,,,,,,,switch,number,numSwt,d,Lo,,,,,,0.052,2,,,,,,,,high,23,0,23,0,1,,,,,,,,,
295075,2022-11-27_14h01.45.381,vts_reward_expectancy_bt,2022.2.4,MacIntel,60.0024001,Chrome,1470,956,,,,,0,840,,,,,,,,,,,,,,,,,181,D,hexagon,0,0,,,,,,,,,,,,,,,,repeat,number,NA,d,Lo,,,,,,0.0511,2,,,,,,,,high,24,0,24,0,1,,,,,,,,,
295075,2022-11-27_14h01.45.381,vts_reward_expectancy_bt,2022.2.4,MacIntel,60.0024001,Chrome,1470,956,,,,,1,841,,,,,,,,,,,,,,,,,160,F,triangle,1,1,,,,,,,,,,,,,,,,switch,letter,lettSwt,j,Hi,,,,,,0.1105,2,,,,,,,,high,25,0,25,0,1,,,,,,,,,
295075,2022-11-27_14h01.45.381,vts_reward_expectancy_bt,2022.2.4,MacIntel,60.0024001,Chrome,1470,956,,,,,10,851,,,,,,,,,,,,,,,,,132,Y,star,1,0,,,,,,,,,,,,,,,,switch,number,numSwt,d,Lo,,,,,,0.0663,2,,,,,,,,high,26,0,26,0,1,,,,,,,,,
295075,2022-11-27_14h01.45.381,vts_reward_expectancy_bt,2022.2.4,MacIntel,60.0024001,Chrome,1470,956,,,,,10,861,,,,,,,,,,,,,,,,,139,W,circle,1,0,,,,,,,,,,,,,,,,switch,letter,lettSwt,k,Hi,,,,,,0.1478,2,,,,,,,,high,27,0,27,0,1,,,,,,,,,
295075,2022-11-27_14h01.45.381,vts_reward_expectancy_bt,2022.2.4,MacIntel,60.0024001,Chrome,1470,956,,,,,1,862,,,,,,,,,,,,,,,,,167,S,circle,1,0,,,,,,,,,,,,,,,,repeat,letter,lettRpt,k,Hi,,,,,,0.052,2,,,,,,,,high,28,0,28,0,1,,,,,,,,,
295075,2022-11-27_14h01.45.381,vts_reward_expectancy_bt,2022.2.4,MacIntel,60.0024001,Chrome,1470,956,,,,,0,862,,,,,,,,,,,,,,,,,125,H,triangle,0,0,,,,,,,,,,,,,,,,repeat,letter,NA,k,Hi,,,,,,0.1514,2,,,,,,,,high,29,0,29,0,1,,,,,,,,,
295075,2022-11-27_14h01.45.381,vts_reward_expectancy_bt,2022.2.4,MacIntel,60.0024001,Chrome,1470,956,,,,,0,862,,,,,,,,,,,,,,,,,174,B,hexagon,0,1,,,,,,,,,,,,,,,,repeat,letter,NA,k,Hi,,,,,,0.2261,2,,,,,,,,high,30,0,30,0,1,,,,,,,,,
295075,2022-11-27_14h01.45.381,vts_reward_expectancy_bt,2022.2.4,MacIntel,60.0024001,Chrome,1470,956,,,,,0,862,,,,,,,,,,,,,,,,,146,U,star,0,1,,,,,,,,,,,,,,,,repeat,letter,NA,j,Hi,,,,,,0.085,2,,,,,,,,high,31,0,31,0,1,,,,,,,,,
295075,2022-11-27_14h01.45.381,vts_reward_expectancy_bt,2022.2.4,MacIntel,60.0024001,Chrome,1470,956,,,,,0,862,,,,,,,,,,,,,,,,,160,B,star,0,1,,,,,,,,,,,,,,,,switch,number,NA,d,Hi,,,,,,0.0291,3,,,,,,space,7.1048,high,0,0,0,0,1,,,,,,,,,
295075,2022-11-27_14h01.45.381,vts_reward_expectancy_bt,2022.2.4,MacIntel,60.0024001,Chrome,1470,956,,,,,10,872,,,,,,,,,,,,,,,,,125,S,triangle,1,1,,,,,,,,,,,,,,,,switch,letter,lettSwt,k,Hi,,,,,,0.0186,3,,,,,,,,high,1,0,1,0,1,,,,,,,,,
295075,2022-11-27_14h01.45.381,vts_reward_expectancy_bt,2022.2.4,MacIntel,60.0024001,Chrome,1470,956,,,,,0,872,,,,,,,,,,,,,,,,,181,F,hexagon,0,0,,,,,,,,,,,,,,,,repeat,letter,NA,k,Hi,,,,,,0.0568,3,,,,,,,,high,2,0,2,0,1,,,,,,,,,
295075,2022-11-27_14h01.45.381,vts_reward_expectancy_bt,2022.2.4,MacIntel,60.0024001,Chrome,1470,956,,,,,0,872,,,,,,,,,,,,,,,,,139,H,circle,0,1,,,,,,,,,,,,,,,,switch,number,NA,f,Hi,,,,,,0.0004,3,,,,,,,,high,3,0,3,0,1,,,,,,,,,
295075,2022-11-27_14h01.45.381,vts_reward_expectancy_bt,2022.2.4,MacIntel,60.0024001,Chrome,1470,956,,,,,0,872,,,,,,,,,,,,,,,,,174,Y,star,0,1,,,,,,,,,,,,,,,,repeat,number,NA,d,Hi,,,,,,0.0352,3,,,,,,,,high,4,0,4,0,1,,,,,,,,,
295075,2022-11-27_14h01.45.381,vts_reward_expectancy_bt,2022.2.4,MacIntel,60.0024001,Chrome,1470,956,,,,,0,872,,,,,,,,,,,,,,,,,146,W,triangle,0,1,,,,,,,,,,,,,,,,switch,letter,NA,j,Hi,,,,,,0.0709,3,,,,,,,,high,5,0,5,0,1,,,,,,,,,
295075,2022-11-27_14h01.45.381,vts_reward_expectancy_bt,2022.2.4,MacIntel,60.0024001,Chrome,1470,956,,,,,0,872,,,,,,,,,,,,,,,,,167,D,hexagon,0,1,,,,,,,,,,,,,,,,switch,number,NA,d,Hi,,,,,,0.0199,3,,,,,,,,high,6,0,6,0,1,,,,,,,,,
295075,2022-11-27_14h01.45.381,vts_reward_expectancy_bt,2022.2.4,MacIntel,60.0024001,Chrome,1470,956,,,,,0,872,,,,,,,,,,,,,,,,,132,U,circle,0,1,,,,,,,,,,,,,,,,switch,letter,NA,j,Hi,,,,,,0.0997,3,,,,,,,,high,7,0,7,0,1,,,,,,,,,
295075,2022-11-27_14h01.45.381,vts_reward_expectancy_bt,2022.2.4,MacIntel,60.0024001,Chrome,1470,956,,,,,1,873,,,,,,,,,,,,,,,,,160,B,hexagon,1,1,,,,,,,,,,,,,,,,repeat,letter,lettRpt,j,Lo,,,,,,0.0029,3,,,,,,,,high,8,0,8,0,1,,,,,,,,,
295075,2022-11-27_14h01.45.381,vts_reward_expectancy_bt,2022.2.4,MacIntel,60.0024001,Chrome,1470,956,,,,,0,873,,,,,,,,,,,,,,,,,125,S,triangle,0,0,,,,,,,,,,,,,,,,switch,number,NA,f,Lo,,,,,,0.0507,3,,,,,,,,high,9,0,9,0,1,,,,,,,,,
295075,2022-11-27_14h01.45.381,vts_reward_expectancy_bt,2022.2.4,MacIntel,60.0024001,Chrome,1470,956,,,,,1,874,,,,,,,,,,,,,,,,,181,F,star,1,1,,,,,,,,,,,,,,,,switch,letter,lettSwt,j,Lo,,,,,,0.0538,3,,,,,,,,high,10,0,10,0,1,,,,,,,,,
295075,2022-11-27_14h01.45.381,vts_reward_expectancy_bt,2022.2.4,MacIntel,60.0024001,Chrome,1470,956,,,,,0,874,,,,,,,,,,,,,,,,,139,H,circle,0,0,,,,,,,,,,,,,,,,switch,number,NA,f,Lo,,,,,,0.0022,3,,,,,,,,high,11,0,11,0,1,,,,,,,,,
295075,2022-11-27_14h01.45.381,vts_reward_expectancy_bt,2022.2.4,MacIntel,60.0024001,Chrome,1470,956,,,,,0,874,,,,,,,,,,,,,,,,,174,Y,circle,0,1,,,,,,,,,,,,,,,,switch,letter,NA,j,Lo,,,,,,0.015,3,,,,,,,,high,12,0,12,0,1,,,,,,,,,
295075,2022-11-27_14h01.45.381,vts_reward_expectancy_bt,2022.2.4,MacIntel,60.0024001,Chrome,1470,956,,,,,1,875,,,,,,,,,,,,,,,,,146,W,hexagon,1,1,,,,,,,,,,,,,,,,switch,number,numSwt,d,Lo,,,,,,0.0646,3,,,,,,,,high,13,0,13,0,1,,,,,,,,,
295075,2022-11-27_14h01.45.381,vts_reward_expectancy_bt,2022.2.4,MacIntel,60.0024001,Chrome,1470,956,,,,,0,875,,,,,,,,,,,,,,,,,167,D,star,0,0,,,,,,,,,,,,,,,,switch,letter,NA,k,Lo,,,,,,0.0881,3,,,,,,,,high,14,0,14,0,1,,,,,,,,,
295075,2022-11-27_14h01.45.381,vts_reward_expectancy_bt,2022.2.4,MacIntel,60.0024001,Chrome,1470,956,,,,,0,875,,,,,,,,,,,,,,,,,132,U,triangle,1,1,,,,,,,,,,,,,,,,switch,number,numSwt,d,Hi,,,,,,0.1339,3,,,,,,,,high,15,0,15,0,1,,,,,,,,,
295075,2022-11-27_14h01.45.381,vts_reward_expectancy_bt,2022.2.4,MacIntel,60.0024001,Chrome,1470,956,,,,,0,875,,,,,,,,,,,,,,,,,181,W,star,0,0,,,,,,,,,,,,,,,,repeat,number,NA,d,Hi,,,,,,0.1328,3,,,,,,,,high,16,0,16,0,1,,,,,,,,,
295075,2022-11-27_14h01.45.381,vts_reward_expectancy_bt,2022.2.4,MacIntel,60.0024001,Chrome,1470,956,,,,,10,885,,,,,,,,,,,,,,,,,125,Y,triangle,1,1,,,,,,,,,,,,,,,,repeat,number,numRpt,d,Hi,,,,,,0.0004,3,,,,,,,,high,17,0,17,0,1,,,,,,,,,
295075,2022-11-27_14h01.45.381,vts_reward_expectancy_bt,2022.2.4,MacIntel,60.0024001,Chrome,1470,956,,,,,0,885,,,,,,,,,,,,,,,,,167,F,hexagon,0,0,,,,,,,,,,,,,,,,switch,letter,NA,k,Hi,,,,,,0.0026,3,,,,,,,,high,18,0,18,0,1,,,,,,,,,
295075,2022-11-27_14h01.45.381,vts_reward_expectancy_bt,2022.2.4,MacIntel,60.0024001,Chrome,1470,956,,,,,0,885,,,,,,,,,,,,,,,,,132,H,circle,0,1,,,,,,,,,,,,,,,,switch,number,NA,f,Hi,,,,,,0.0334,3,,,,,,,,high,19,0,19,0,1,,,,,,,,,
295075,2022-11-27_14h01.45.381,vts_reward_expectancy_bt,2022.2.4,MacIntel,60.0024001,Chrome,1470,956,,,,,10,895,,,,,,,,,,,,,,,,,174,D,triangle,1,1,,,,,,,,,,,,,,,,switch,letter,lettSwt,j,Hi,,,,,,0.0048,3,,,,,,,,high,20,0,20,0,1,,,,,,,,,
295075,2022-11-27_14h01.45.381,vts_reward_expectancy_bt,2022.2.4,MacIntel,60.0024001,Chrome,1470,956,,,,,0,895,,,,,,,,,,,,,,,,,139,S,circle,0,0,,,,,,,,,,,,,,,,repeat,letter,NA,j,Hi,,,,,,0.1306,3,,,,,,,,high,21,0,21,0,1,,,,,,,,,
295075,2022-11-27_14h01.45.381,vts_reward_expectancy_bt,2022.2.4,MacIntel,60.0024001,Chrome,1470,956,,,,,0,895,,,,,,,,,,,,,,,,,146,U,star,0,1,,,,,,,,,,,,,,,,switch,number,NA,f,Hi,,,,,,0.0374,3,,,,,,,,high,22,0,22,0,1,,,,,,,,,
295075,2022-11-27_14h01.45.381,vts_reward_expectancy_bt,2022.2.4,MacIntel,60.0024001,Chrome,1470,956,,,,,0,895,,,,,,,,,,,,,,,,,160,B,hexagon,0,1,,,,,,,,,,,,,,,,switch,letter,NA,k,Hi,,,,,,0.0717,3,,,,,,,,high,23,0,23,0,1,,,,,,,,,
295075,2022-11-27_14h01.45.381,vts_reward_expectancy_bt,2022.2.4,MacIntel,60.0024001,Chrome,1470,956,,,,,0,895,,,,,,,,,,,,,,,,,132,B,circle,0,1,,,,,,,,,,,,,,,,switch,number,NA,f,Hi,,,,,,0.1342,3,,,,,,,,high,24,0,24,0,1,,,,,,,,,
295075,2022-11-27_14h01.45.381,vts_reward_expectancy_bt,2022.2.4,MacIntel,60.0024001,Chrome,1470,956,,,,,0,895,,,,,,,,,,,,,,,,,139,S,star,0,1,,,,,,,,,,,,,,,,repeat,number,NA,f,Hi,,,,,,0.0537,3,,,,,,,,high,25,0,25,0,1,,,,,,,,,
295075,2022-11-27_14h01.45.381,vts_reward_expectancy_bt,2022.2.4,MacIntel,60.0024001,Chrome,1470,956,,,,,0,895,,,,,,,,,,,,,,,,,167,U,hexagon,0,1,,,,,,,,,,,,,,,,repeat,number,NA,d,Hi,,,,,,0.0196,3,,,,,,,,high,26,0,26,0,1,,,,,,,,,
295075,2022-11-27_14h01.45.381,vts_reward_expectancy_bt,2022.2.4,MacIntel,60.0024001,Chrome,1470,956,,,,,0,895,,,,,,,,,,,,,,,,,181,W,triangle,0,1,,,,,,,,,,,,,,,,repeat,number,NA,d,Hi,,,,,,0.0198,3,,,,,,,,high,27,0,27,0,1,,,,,,,,,
295075,2022-11-27_14h01.45.381,vts_reward_expectancy_bt,2022.2.4,MacIntel,60.0024001,Chrome,1470,956,,,,,1,896,,,,,,,,,,,,,,,,,174,Y,circle,1,1,,,,,,,,,,,,,,,,repeat,number,numRpt,f,Hi,,,,,,0.0469,3,,,,,,,,high,28,0,28,0,1,,,,,,,,,
295075,2022-11-27_14h01.45.381,vts_reward_expectancy_bt,2022.2.4,MacIntel,60.0024001,Chrome,1470,956,,,,,10,906,,,,,,,,,,,,,,,,,146,D,star,1,0,,,,,,,,,,,,,,,,repeat,number,numRpt,d,Lo,,,,,,0.0857,3,,,,,,,,high,29,0,29,0,1,,,,,,,,,
295075,2022-11-27_14h01.45.381,vts_reward_expectancy_bt,2022.2.4,MacIntel,60.0024001,Chrome,1470,956,,,,,0,906,,,,,,,,,,,,,,,,,160,H,hexagon,0,0,,,,,,,,,,,,,,,,switch,letter,NA,k,Lo,,,,,,0.0064,3,,,,,,,,high,30,0,30,0,1,,,,,,,,,
295075,2022-11-27_14h01.45.381,vts_reward_expectancy_bt,2022.2.4,MacIntel,60.0024001,Chrome,1470,956,,,,,10,916,,,,,,,,,,,,,,,,,125,F,triangle,1,1,,,,,,,,,,,,,,,,switch,number,numSwt,d,Hi,,,,,,0.0352,3,,,,,,,,high,31,0,31,0,1,,,,,,,,,
295075,2022-11-27_14h01.45.381,vts_reward_expectancy_bt,2022.2.4,MacIntel,60.0024001,Chrome,1470,956,,,,,1,917,,,,,,,,,,,,,,,,,181,F,hexagon,1,0,,,,,,,,,,,,,,,,switch,letter,lettSwt,j,Lo,,,,,,0.0264,4,,,,,,space,12.8512,high,0,0,0,0,1,,,,,,,,,
295075,2022-11-27_14h01.45.381,vts_reward_expectancy_bt,2022.2.4,MacIntel,60.0024001,Chrome,1470,956,,,,,0,917,,,,,,,,,,,,,,,,,125,S,triangle,1,0,,,,,,,,,,,,,,,,repeat,letter,lettRpt,k,Hi,,,,,,0.1235,4,,,,,,,,high,1,0,1,0,1,,,,,,,,,
295075,2022-11-27_14h01.45.381,vts_reward_expectancy_bt,2022.2.4,MacIntel,60.0024001,Chrome,1470,956,,,,,0,917,,,,,,,,,,,,,,,,,174,H,circle,1,0,,,,,,,,,,,,,,,,repeat,letter,lettRpt,j,Hi,,,,,,0.0138,4,,,,,,,,high,2,0,2,0,1,,,,,,,,,
295075,2022-11-27_14h01.45.381,vts_reward_expectancy_bt,2022.2.4,MacIntel,60.0024001,Chrome,1470,956,,,,,0,917,,,,,,,,,,,,,,,,,146,U,star,0,0,,,,,,,,,,,,,,,,switch,number,NA,f,Hi,,,,,,0.0067,4,,,,,,,,high,3,0,3,0,1,,,,,,,,,
295075,2022-11-27_14h01.45.381,vts_reward_expectancy_bt,2022.2.4,MacIntel,60.0024001,Chrome,1470,956,,,,,1,918,,,,,,,,,,,,,,,,,139,B,hexagon,1,1,,,,,,,,,,,,,,,,repeat,number,numRpt,d,Lo,,,,,,0.0585,4,,,,,,,,high,4,0,4,0,1,,,,,,,,,
295075,2022-11-27_14h01.45.381,vts_reward_expectancy_bt,2022.2.4,MacIntel,60.0024001,Chrome,1470,956,,,,,0,918,,,,,,,,,,,,,,,,,132,Y,triangle,1,0,,,,,,,,,,,,,,,,repeat,number,numRpt,d,Hi,,,,,,0.1197,4,,,,,,,,high,5,0,5,0,1,,,,,,,,,
295075,2022-11-27_14h01.45.381,vts_reward_expectancy_bt,2022.2.4,MacIntel,60.0024001,Chrome,1470,956,,,,,0,918,,,,,,,,,,,,,,,,,167,D,circle,1,0,,,,,,,,,,,,,,,,switch,letter,lettSwt,j,Hi,,,,,,0.0726,4,,,,,,,,high,6,0,6,0,1,,,,,,,,,
295075,2022-11-27_14h01.45.381,vts_reward_expectancy_bt,2022.2.4,MacIntel,60.0024001,Chrome,1470,956,,,,,0,918,,,,,,,,,,,,,,,,,160,W,star,0,0,,,,,,,,,,,,,,,,repeat,letter,NA,j,Hi,,,,,,0.0846,4,,,,,,,,high,7,0,7,0,1,,,,,,,,,
295075,2022-11-27_14h01.45.381,vts_reward_expectancy_bt,2022.2.4,MacIntel,60.0024001,Chrome,1470,956,,,,,0,918,,,,,,,,,,,,,,,,,181,F,triangle,0,1,,,,,,,,,,,,,,,,repeat,letter,NA,k,Hi,,,,,,0.1843,4,,,,,,,,high,8,0,8,0,1,,,,,,,,,
295075,2022-11-27_14h01.45.381,vts_reward_expectancy_bt,2022.2.4,MacIntel,60.0024001,Chrome,1470,956,,,,,0,918,,,,,,,,,,,,,,,,,125,S,hexagon,0,1,,,,,,,,,,,,,,,,repeat,letter,NA,j,Hi,,,,,,0.0195,4,,,,,,,,high,9,0,9,0,1,,,,,,,,,
295075,2022-11-27_14h01.45.381,vts_reward_expectancy_bt,2022.2.4,MacIntel,60.0024001,Chrome,1470,956,,,,,0,918,,,,,,,,,,,,,,,,,174,H,star,0,1,,,,,,,,,,,,,,,,repeat,letter,NA,k,Hi,,,,,,0.0333,4,,,,,,,,high,10,0,10,0,1,,,,,,,,,
295075,2022-11-27_14h01.45.381,vts_reward_expectancy_bt,2022.2.4,MacIntel,60.0024001,Chrome,1470,956,,,,,10,928,,,,,,,,,,,,,,,,,146,U,circle,1,1,,,,,,,,,,,,,,,,switch,number,numSwt,d,Hi,,,,,,0.0381,4,,,,,,,,high,11,0,11,0,1,,,,,,,,,
295075,2022-11-27_14h01.45.381,vts_reward_expectancy_bt,2022.2.4,MacIntel,60.0024001,Chrome,1470,956,,,,,0,928,,,,,,,,,,,,,,,,,139,B,hexagon,0,0,,,,,,,,,,,,,,,,repeat,number,NA,f,Hi,,,,,,0.0343,4,,,,,,,,high,12,0,12,0,1,,,,,,,,,
295075,2022-11-27_14h01.45.381,vts_reward_expectancy_bt,2022.2.4,MacIntel,60.0024001,Chrome,1470,956,,,,,1,929,,,,,,,,,,,,,,,,,132,Y,star,1,1,,,,,,,,,,,,,,,,switch,letter,lettSwt,k,Lo,,,,,,0.0516,4,,,,,,,,high,13,0,13,0,1,,,,,,,,,
295075,2022-11-27_14h01.45.381,vts_reward_expectancy_bt,2022.2.4,MacIntel,60.0024001,Chrome,1470,956,,,,,0,929,,,,,,,,,,,,,,,,,167,D,circle,0,0,,,,,,,,,,,,,,,,switch,number,NA,d,Lo,,,,,,0.0379,4,,,,,,,,high,14,0,14,0,1,,,,,,,,,
295075,2022-11-27_14h01.45.381,vts_reward_expectancy_bt,2022.2.4,MacIntel,60.0024001,Chrome,1470,956,,,,,0,929,,,,,,,,,,,,,,,,,160,W,triangle,0,1,,,,,,,,,,,,,,,,switch,letter,NA,j,Lo,,,,,,0.1803,4,,,,,,,,high,15,0,15,0,1,,,,,,,,,
295075,2022-11-27_14h01.45.381,vts_reward_expectancy_bt,2022.2.4,MacIntel,60.0024001,Chrome,1470,956,,,,,10,939,,,,,,,,,,,,,,,,,125,F,star,1,1,,,,,,,,,,,,,,,,repeat,letter,lettRpt,j,Lo,,,,,,0.2533,4,,,,,,,,high,16,0,16,0,1,,,,,,,,,
295075,2022-11-27_14h01.45.381,vts_reward_expectancy_bt,2022.2.4,MacIntel,60.0024001,Chrome,1470,956,,,,,0,939,,,,,,,,,,,,,,,,,160,S,hexagon,0,0,,,,,,,,,,,,,,,,switch,number,NA,d,Lo,,,,,,0.062,4,,,,,,,,high,17,0,17,0,1,,,,,,,,,
295075,2022-11-27_14h01.45.381,vts_reward_expectancy_bt,2022.2.4,MacIntel,60.0024001,Chrome,1470,956,,,,,0,939,,,,,,,,,,,,,,,,,167,B,triangle,1,1,,,,,,,,,,,,,,,,switch,letter,lettSwt,j,Hi,,,,,,0.1369,4,,,,,,,,high,18,0,18,0,1,,,,,,,,,
295075,2022-11-27_14h01.45.381,vts_reward_expectancy_bt,2022.2.4,MacIntel,60.0024001,Chrome,1470,956,,,,,0,939,,,,,,,,,,,,,,,,,132,H,circle,0,0,,,,,,,,,,,,,,,,repeat,letter,NA,k,Hi,,,,,,0.0506,4,,,,,,,,high,19,0,19,0,1,,,,,,,,,
295075,2022-11-27_14h01.45.381,vts_reward_expectancy_bt,2022.2.4,MacIntel,60.0024001,Chrome,1470,956,,,,,0,939,,,,,,,,,,,,,,,,,139,U,triangle,0,1,,,,,,,,,,,,,,,,switch,number,NA,f,Hi,,,,,,0.0486,4,,,,,,,,high,20,0,20,0,1,,,,,,,,,
295075,2022-11-27_14h01.45.381,vts_reward_expectancy_bt,2022.2.4,MacIntel,60.0024001,Chrome,1470,956,,,,,0,939,,,,,,,,,,,,,,,,,146,D,circle,1,1,,,,,,,,,,,,,,,,switch,letter,lettSwt,j,Hi,,,,,,0.0345,4,,,,,,,,high,21,0,21,0,1,,,,,,,,,
295075,2022-11-27_14h01.45.381,vts_reward_expectancy_bt,2022.2.4,MacIntel,60.0024001,Chrome,1470,956,,,,,1,940,,,,,,,,,,,,,,,,,174,W,star,1,0,,,,,,,,,,,,,,,,repeat,letter,lettRpt,k,Lo,,,,,,0.1127,4,,,,,,,,high,22,0,22,0,1,,,,,,,,,
295075,2022-11-27_14h01.45.381,vts_reward_expectancy_bt,2022.2.4,MacIntel,60.0024001,Chrome,1470,956,,,,,1,941,,,,,,,,,,,,,,,,,181,Y,hexagon,1,0,,,,,,,,,,,,,,,,repeat,letter,lettRpt,k,Lo,,,,,,0.071,4,,,,,,,,high,23,0,23,0,1,,,,,,,,,
295075,2022-11-27_14h01.45.381,vts_reward_expectancy_bt,2022.2.4,MacIntel,60.0024001,Chrome,1470,956,,,,,10,951,,,,,,,,,,,,,,,,,160,D,triangle,1,0,,,,,,,,,,,,,,,,repeat,letter,lettRpt,j,Hi,,,,,,0.0004,4,,,,,,,,high,24,0,24,0,1,,,,,,,,,
295075,2022-11-27_14h01.45.381,vts_reward_expectancy_bt,2022.2.4,MacIntel,60.0024001,Chrome,1470,956,,,,,0,951,,,,,,,,,,,,,,,,,139,S,circle,1,0,,,,,,,,,,,,,,,,repeat,letter,lettRpt,k,Hi,,,,,,0.0184,4,,,,,,,,high,25,0,25,0,1,,,,,,,,,
295075,2022-11-27_14h01.45.381,vts_reward_expectancy_bt,2022.2.4,MacIntel,60.0024001,Chrome,1470,956,,,,,1,952,,,,,,,,,,,,,,,,,132,F,hexagon,1,0,,,,,,,,,,,,,,,,repeat,letter,lettRpt,j,Lo,,,,,,0.0176,4,,,,,,,,high,26,0,26,0,1,,,,,,,,,
295075,2022-11-27_14h01.45.381,vts_reward_expectancy_bt,2022.2.4,MacIntel,60.0024001,Chrome,1470,956,,,,,0,952,,,,,,,,,,,,,,,,,174,Y,star,0,0,,,,,,,,,,,,,,,,repeat,letter,NA,j,Lo,,,,,,0.0015,4,,,,,,,,high,27,0,27,0,1,,,,,,,,,
295075,2022-11-27_14h01.45.381,vts_reward_expectancy_bt,2022.2.4,MacIntel,60.0024001,Chrome,1470,956,,,,,0,952,,,,,,,,,,,,,,,,,167,U,hexagon,0,1,,,,,,,,,,,,,,,,repeat,letter,NA,j,Lo,,,,,,0.1824,4,,,,,,,,high,28,0,28,0,1,,,,,,,,,
295075,2022-11-27_14h01.45.381,vts_reward_expectancy_bt,2022.2.4,MacIntel,60.0024001,Chrome,1470,956,,,,,1,953,,,,,,,,,,,,,,,,,125,B,star,1,1,,,,,,,,,,,,,,,,repeat,letter,lettRpt,j,Lo,,,,,,0.0403,4,,,,,,,,high,29,0,29,0,1,,,,,,,,,
295075,2022-11-27_14h01.45.381,vts_reward_expectancy_bt,2022.2.4,MacIntel,60.0024001,Chrome,1470,956,,,,,0,953,,,,,,,,,,,,,,,,,181,W,triangle,1,0,,,,,,,,,,,,,,,,repeat,letter,lettRpt,k,Hi,,,,,,0.1388,4,,,,,,,,high,30,0,30,0,1,,,,,,,,,
295075,2022-11-27_14h01.45.381,vts_reward_expectancy_bt,2022.2.4,MacIntel,60.0024001,Chrome,1470,956,,,,,0,953,,,,,,,,,,,,,,,,,146,H,circle,1,0,,,,,,,,,,,,,,,,switch,number,numSwt,d,Hi,,,,,,0.0628,4,,,,,,,,high,31,0,31,0,1,,,,,,,,,
295075,2022-11-27_14h01.45.381,vts_reward_expectancy_bt,2022.2.4,MacIntel,60.0024001,Chrome,1470,956,,,,,0,953,,,,,,,,,,,,,,,,,174,D,hexagon,0,0,,,,,,,,,,,,,,,,repeat,number,NA,d,Hi,,,,,,0.02,5,,,,,,space,7.0767,high,0,0,0,0,1,,,,,,,,,
295075,2022-11-27_14h01.45.381,vts_reward_expectancy_bt,2022.2.4,MacIntel,60.0024001,Chrome,1470,956,,,,,0,953,,,,,,,,,,,,,,,,,139,S,triangle,0,1,,,,,,,,,,,,,,,,switch,letter,NA,j,Hi,,,,,,0.0002,5,,,,,,,,high,1,0,1,0,1,,,,,,,,,
295075,2022-11-27_14h01.45.381,vts_reward_expectancy_bt,2022.2.4,MacIntel,60.0024001,Chrome,1470,956,,,,,0,953,,,,,,,,,,,,,,,,,167,B,star,0,1,,,,,,,,,,,,,,,,switch,number,NA,d,Hi,,,,,,0.0679,5,,,,,,,,high,2,0,2,0,1,,,,,,,,,
295075,2022-11-27_14h01.45.381,vts_reward_expectancy_bt,2022.2.4,MacIntel,60.0024001,Chrome,1470,956,,,,,0,953,,,,,,,,,,,,,,,,,160,H,circle,0,1,,,,,,,,,,,,,,,,repeat,number,NA,d,Hi,,,,,,0.0153,5,,,,,,,,high,3,0,3,0,1,,,,,,,,,
295075,2022-11-27_14h01.45.381,vts_reward_expectancy_bt,2022.2.4,MacIntel,60.0024001,Chrome,1470,956,,,,,10,963,,,,,,,,,,,,,,,,,132,F,hexagon,1,1,,,,,,,,,,,,,,,,switch,letter,lettSwt,j,Lo,,,,,,0.0845,5,,,,,,,,high,4,0,4,0,1,,,,,,,,,
295075,2022-11-27_14h01.45.381,vts_reward_expectancy_bt,2022.2.4,MacIntel,60.0024001,Chrome,1470,956,,,,,0,963,,,,,,,,,,,,,,,,,181,W,triangle,1,0,,,,,,,,,,,,,,,,repeat,letter,lettRpt,k,Hi,,,,,,0.1109,5,,,,,,,,high,5,0,5,0,1,,,,,,,,,
295075,2022-11-27_14h01.45.381,vts_reward_expectancy_bt,2022.2.4,MacIntel,60.0024001,Chrome,1470,956,,,,,0,963,,,,,,,,,,,,,,,,,146,U,star,0,0,,,,,,,,,,,,,,,,repeat,letter,NA,j,Hi,,,,,,0.1598,5,,,,,,,,high,6,0,6,0,1,,,,,,,,,
295075,2022-11-27_14h01.45.381,vts_reward_expectancy_bt,2022.2.4,MacIntel,60.0024001,Chrome,1470,956,,,,,0,963,,,,,,,,,,,,,,,,,125,Y,circle,1,1,,,,,,,,,,,,,,,,repeat,letter,lettRpt,k,Hi,,,,,,0.0295,5,,,,,,,,high,7,0,7,0,1,,,,,,,,,
295075,2022-11-27_14h01.45.381,vts_reward_expectancy_bt,2022.2.4,MacIntel,60.0024001,Chrome,1470,956,,,,,10,973,,,,,,,,,,,,,,,,,174,D,circle,1,0,,,,,,,,,,,,,,,,switch,number,numSwt,f,Hi,,,,,,0.0352,5,,,,,,,,high,8,0,8,0,1,,,,,,,,,
295075,2022-11-27_14h01.45.381,vts_reward_expectancy_bt,2022.2.4,MacIntel,60.0024001,Chrome,1470,956,,,,,0,973,,,,,,,,,,,,,,,,,139,S,star,0,0,,,,,,,,,,,,,,,,repeat,number,NA,f,Hi,,,,,,0.0961,5,,,,,,,,high,9,0,9,0,1,,,,,,,,,
295075,2022-11-27_14h01.45.381,vts_reward_expectancy_bt,2022.2.4,MacIntel,60.0024001,Chrome,1470,956,,,,,0,973,,,,,,,,,,,,,,,,,167,B,hexagon,0,1,,,,,,,,,,,,,,,,repeat,number,NA,d,Hi,,,,,,0.0194,5,,,,,,,,high,10,0,10,0,1,,,,,,,,,
295075,2022-11-27_14h01.45.381,vts_reward_expectancy_bt,2022.2.4,MacIntel,60.0024001,Chrome,1470,956,,,,,0,973,,,,,,,,,,,,,,,,,160,H,triangle,0,1,,,,,,,,,,,,,,,,switch,letter,NA,k,Hi,,,,,,0.0771,5,,,,,,,,high,11,0,11,0,1,,,,,,,,,
295075,2022-11-27_14h01.45.381,vts_reward_expectancy_bt,2022.2.4,MacIntel,60.0024001,Chrome,1470,956,,,,,1,974,,,,,,,,,,,,,,,,,132,F,hexagon,1,1,,,,,,,,,,,,,,,,switch,number,numSwt,d,Lo,,,,,,0.0121,5,,,,,,,,high,12,0,12,0,1,,,,,,,,,
295075,2022-11-27_14h01.45.381,vts_reward_expectancy_bt,2022.2.4,MacIntel,60.0024001,Chrome,1470,956,,,,,1,975,,,,,,,,,,,,,,,,,181,W,star,1,0,,,,,,,,,,,,,,,,repeat,number,numRpt,f,Lo,,,,,,0.6079,5,,,,,,,,high,13,0,13,0,1,,,,,,,,,
295075,2022-11-27_14h01.45.381,vts_reward_expectancy_bt,2022.2.4,MacIntel,60.0024001,Chrome,1470,956,,,,,0,975,,,,,,,,,,,,,,,,,146,U,triangle,1,0,,,,,,,,,,,,,,,,repeat,number,numRpt,d,Hi,,,,,,0.6171,5,,,,,,,,high,14,0,14,0,1,,,,,,,,,
295075,2022-11-27_14h01.45.381,vts_reward_expectancy_bt,2022.2.4,MacIntel,60.0024001,Chrome,1470,956,,,,,0,975,,,,,,,,,,,,,,,,,125,Y,circle,1,0,,,,,,,,,,,,,,,,switch,letter,lettSwt,k,Hi,,,,,,0.075,5,,,,,,,,high,15,0,15,0,1,,,,,,,,,
295075,2022-11-27_14h01.45.381,vts_reward_expectancy_bt,2022.2.4,MacIntel,60.0024001,Chrome,1470,956,,,,,0,975,,,,,,,,,,,,,,,,,139,H,triangle,0,0,,,,,,,,,,,,,,,,switch,number,NA,f,Hi,,,,,,0.0838,5,,,,,,,,high,16,0,16,0,1,,,,,,,,,
295075,2022-11-27_14h01.45.381,vts_reward_expectancy_bt,2022.2.4,MacIntel,60.0024001,Chrome,1470,956,,,,,1,976,,,,,,,,,,,,,,,,,167,F,star,1,1,,,,,,,,,,,,,,,,repeat,number,numRpt,f,Lo,,,,,,0.0682,5,,,,,,,,high,17,0,17,0,1,,,,,,,,,
295075,2022-11-27_14h01.45.381,vts_reward_expectancy_bt,2022.2.4,MacIntel,60.0024001,Chrome,1470,956,,,,,0,976,,,,,,,,,,,,,,,,,181,Y,circle,0,0,,,,,,,,,,,,,,,,repeat,number,NA,d,Lo,,,,,,0.0632,5,,,,,,,,high,18,0,18,0,1,,,,,,,,,
295075,2022-11-27_14h01.45.381,vts_reward_expectancy_bt,2022.2.4,MacIntel,60.0024001,Chrome,1470,956,,,,,1,977,,,,,,,,,,,,,,,,,132,U,hexagon,1,1,,,,,,,,,,,,,,,,switch,letter,lettSwt,k,Lo,,,,,,0.0003,5,,,,,,,,high,19,0,19,0,1,,,,,,,,,
295075,2022-11-27_14h01.45.381,vts_reward_expectancy_bt,2022.2.4,MacIntel,60.0024001,Chrome,1470,956,,,,,0,977,,,,,,,,,,,,,,,,,174,W,hexagon,0,0,,,,,,,,,,,,,,,,repeat,letter,NA,j,Lo,,,,,,0.1757,5,,,,,,,,high,20,0,20,0,1,,,,,,,,,
295075,2022-11-27_14h01.45.381,vts_reward_expectancy_bt,2022.2.4,MacIntel,60.0024001,Chrome,1470,956,,,,,0,977,,,,,,,,,,,,,,,,,146,D,circle,0,1,,,,,,,,,,,,,,,,repeat,letter,NA,k,Lo,,,,,,0.0005,5,,,,,,,,high,21,0,21,0,1,,,,,,,,,
295075,2022-11-27_14h01.45.381,vts_reward_expectancy_bt,2022.2.4,MacIntel,60.0024001,Chrome,1470,956,,,,,10,987,,,,,,,,,,,,,,,,,125,S,triangle,1,1,,,,,,,,,,,,,,,,switch,number,numSwt,d,Hi,,,,,,0.0003,5,,,,,,,,high,22,0,22,0,1,,,,,,,,,
295075,2022-11-27_14h01.45.381,vts_reward_expectancy_bt,2022.2.4,MacIntel,60.0024001,Chrome,1470,956,,,,,10,997,,,,,,,,,,,,,,,,,160,B,star,1,0,,,,,,,,,,,,,,,,switch,letter,lettSwt,j,Lo,,,,,,0.0665,5,,,,,,,,high,23,0,23,0,1,,,,,,,,,
295075,2022-11-27_14h01.45.381,vts_reward_expectancy_bt,2022.2.4,MacIntel,60.0024001,Chrome,1470,956,,,,,0,997,,,,,,,,,,,,,,,,,132,W,triangle,0,0,,,,,,,,,,,,,,,,switch,number,NA,f,Lo,,,,,,0.0823,5,,,,,,,,high,24,0,24,0,1,,,,,,,,,
295075,2022-11-27_14h01.45.381,vts_reward_expectancy_bt,2022.2.4,MacIntel,60.0024001,Chrome,1470,956,,,,,10,1007,,,,,,,,,,,,,,,,,167,D,star,1,1,,,,,,,,,,,,,,,,repeat,number,numRpt,f,Lo,,,,,,0.017,5,,,,,,,,high,25,0,25,0,1,,,,,,,,,
295075,2022-11-27_14h01.45.381,vts_reward_expectancy_bt,2022.2.4,MacIntel,60.0024001,Chrome,1470,956,,,,,0,1007,,,,,,,,,,,,,,,,,174,B,circle,1,0,,,,,,,,,,,,,,,,repeat,number,numRpt,f,Hi,,,,,,0.1835,5,,,,,,,,high,26,0,26,0,1,,,,,,,,,
295075,2022-11-27_14h01.45.381,vts_reward_expectancy_bt,2022.2.4,MacIntel,60.0024001,Chrome,1470,956,,,,,0,1007,,,,,,,,,,,,,,,,,139,S,hexagon,0,0,,,,,,,,,,,,,,,,switch,letter,NA,j,Hi,,,,,,0.026,5,,,,,,,,high,27,0,27,0,1,,,,,,,,,
295075,2022-11-27_14h01.45.381,vts_reward_expectancy_bt,2022.2.4,MacIntel,60.0024001,Chrome,1470,956,,,,,0,1007,,,,,,,,,,,,,,,,,160,U,star,0,1,,,,,,,,,,,,,,,,repeat,letter,NA,j,Hi,,,,,,0.0003,5,,,,,,,,high,28,0,28,0,1,,,,,,,,,
295075,2022-11-27_14h01.45.381,vts_reward_expectancy_bt,2022.2.4,MacIntel,60.0024001,Chrome,1470,956,,,,,1,1008,,,,,,,,,,,,,,,,,146,F,hexagon,1,1,,,,,,,,,,,,,,,,repeat,letter,lettRpt,j,Lo,,,,,,0.0003,5,,,,,,,,high,29,0,29,0,1,,,,,,,,,
295075,2022-11-27_14h01.45.381,vts_reward_expectancy_bt,2022.2.4,MacIntel,60.0024001,Chrome,1470,956,,,,,0,1008,,,,,,,,,,,,,,,,,181,H,circle,1,0,,,,,,,,,,,,,,,,switch,number,numSwt,f,Hi,,,,,,0.5069,5,,,,,,,,high,30,0,30,0,1,,,,,,,,,
295075,2022-11-27_14h01.45.381,vts_reward_expectancy_bt,2022.2.4,MacIntel,60.0024001,Chrome,1470,956,,,,,0,1008,,,,,,,,,,,,,,,,,125,Y,triangle,1,0,,,,,,,,,,,,,,,,repeat,number,numRpt,d,Hi,,,,,,0.4703,5,,,,,,,,high,31,0,31,0,1,,,,,,,,,
295075,2022-11-27_14h01.45.381,vts_reward_expectancy_bt,2022.2.4,MacIntel,60.0024001,Chrome,1470,956,,,,,10,1018,,,,,,,,,,,,,,,,,167,B,circle,1,0,,,,,,,,,,,,,,,,switch,letter,lettSwt,j,Hi,,,,,,0.0373,6,,,,,,space,0.8062,high,0,0,0,0,1,,,,,,,,,
295075,2022-11-27_14h01.45.381,vts_reward_expectancy_bt,2022.2.4,MacIntel,60.0024001,Chrome,1470,956,,,,,1,1019,,,,,,,,,,,,,,,,,125,W,star,1,0,,,,,,,,,,,,,,,,repeat,letter,lettRpt,k,Lo,,,,,,0.0266,6,,,,,,,,high,1,0,1,0,1,,,,,,,,,
295075,2022-11-27_14h01.45.381,vts_reward_expectancy_bt,2022.2.4,MacIntel,60.0024001,Chrome,1470,956,,,,,0,1019,,,,,,,,,,,,,,,,,181,D,triangle,1,0,,,,,,,,,,,,,,,,switch,number,numSwt,f,Hi,,,,,,0.0826,6,,,,,,,,high,2,0,2,0,1,,,,,,,,,
295075,2022-11-27_14h01.45.381,vts_reward_expectancy_bt,2022.2.4,MacIntel,60.0024001,Chrome,1470,956,,,,,10,1029,,,,,,,,,,,,,,,,,160,F,hexagon,1,0,,,,,,,,,,,,,,,,switch,letter,lettSwt,j,Lo,,,,,,0.0462,6,,,,,,,,high,3,0,3,0,1,,,,,,,,,
295075,2022-11-27_14h01.45.381,vts_reward_expectancy_bt,2022.2.4,MacIntel,60.0024001,Chrome,1470,956,,,,,0,1029,,,,,,,,,,,,,,,,,174,U,circle,1,0,,,,,,,,,,,,,,,,repeat,letter,lettRpt,k,Hi,,,,,,0.184,6,,,,,,,,high,4,0,4,0,1,,,,,,,,,
