participant,date,expName,psychopyVersion,OS,frameRate,browser,xResolution,yResolution,key_resp.keys,key_resp.rt,training_resp.keys,training_resp.rt,points_trial,points_cumul,trainBlock,training.thisRepN,training.thisTrialN,training.thisN,training.thisIndex,training.ran,LTriangleOpac,LCircleOpac,LHexagonOpac,LStarOpac,RTriangleOpac,RCircleOpac,RHexagonOpac,RStarOpac,LShape_ID,RShape_ID,curr_topStim,curr_bottStim,curr_shape,acc,E1,target_resp_prac1.keys,target_resp_prac1.rt,pracBlock,task1_prac_trials.thisRepN,task1_prac_trials.thisTrialN,task1_prac_trials.thisN,task1_prac_trials.thisIndex,task1_prac_trials.ran,target_resp_prac2.keys,task2_praac_trials.thisRepN,task2_praac_trials.thisTrialN,task2_praac_trials.thisN,task2_praac_trials.thisIndex,task2_praac_trials.ran,target_resp_prac2.rt,alt,task,condition,target_resp.keys,target_resp.rt,rewCond,vts_practice_trials.thisRepN,vts_practice_trials.thisTrialN,vts_practice_trials.thisN,vts_practice_trials.thisIndex,vts_practice_trials.ran,blockNum,trials_norew.thisRepN,trials_norew.thisTrialN,trials_norew.thisN,trials_norew.thisIndex,trials_norew.ran,key_resp_2.keys,key_resp_2.rt,rewExpectancy,trials_rew.thisRepN,trials_rew.thisTrialN,trials_rew.thisN,trials_rew.thisIndex,trials_rew.ran,Q1,Q2,Q2_text,Q3,Q4,Q5_text,Q5,xRes,yRes
295009,2022-12-05_13h21.27.395,vts_reward_expectancy_bt,2022.2.4,Win32,59.70862193,Chrome,1536,960,,,,,,,,,,,,,,,,,,,,,,,,,,,,,,,,,,,,,,,,,,,,,,,,,,,,,,,,,,,,,,,,,,,,,,,,,,,,
295009,2022-12-05_13h21.27.395,vts_reward_expectancy_bt,2022.2.4,Win32,59.70862193,Chrome,1536,960,space,9.3967,,,,,,,,,,,,,,,,,,,,,,,,,,,,,,,,,,,,,,,,,,,,,,,,,,,,,,,,,,,,,,,,,,,,,,,,,,
295009,2022-12-05_13h21.27.395,vts_reward_expectancy_bt,2022.2.4,Win32,59.70862193,Chrome,1536,960,,,,,,,,,,,,,,,,,,,,,,,,,,,,,,,,,,,,,,,,,,,,,,,,,,,,,,,,,,,,,,,,,,,,,,,,,,,,
295009,2022-12-05_13h21.27.395,vts_reward_expectancy_bt,2022.2.4,Win32,59.70862193,Chrome,1536,960,,,l,1.4103,10,10,0,0,0,0,8,1,0,0,1,0,0,0,0,1,hexagon,star,,,,,,,,,,,,,,,,,,,,,,,,,,,,,,,,,,,,,,,,,,,,,,,,,,,,,,
295009,2022-12-05_13h21.27.395,vts_reward_expectancy_bt,2022.2.4,Win32,59.70862193,Chrome,1536,960,,,a,1.5114,1,11,0,0,1,1,9,1,0,0,0,1,1,0,0,0,star,triangle,,,,,,,,,,,,,,,,,,,,,,,,,,,,,,,,,,,,,,,,,,,,,,,,,,,,,,
295009,2022-12-05_13h21.27.395,vts_reward_expectancy_bt,2022.2.4,Win32,59.70862193,Chrome,1536,960,,,a,0.7058,1,12,0,0,2,2,10,1,0,0,0,1,0,1,0,0,star ,circle,,,,,,,,,,,,,,,,,,,,,,,,,,,,,,,,,,,,,,,,,,,,,,,,,,,,,,
295009,2022-12-05_13h21.27.395,vts_reward_expectancy_bt,2022.2.4,Win32,59.70862193,Chrome,1536,960,,,l,0.9821,1,13,0,0,3,3,4,1,0,1,0,0,0,0,1,0,circle,hexagon,,,,,,,,,,,,,,,,,,,,,,,,,,,,,,,,,,,,,,,,,,,,,,,,,,,,,,
295009,2022-12-05_13h21.27.395,vts_reward_expectancy_bt,2022.2.4,Win32,59.70862193,Chrome,1536,960,,,l,1.1556,10,23,0,0,4,4,1,1,1,0,0,0,0,0,1,0,triangle,hexagon,,,,,,,,,,,,,,,,,,,,,,,,,,,,,,,,,,,,,,,,,,,,,,,,,,,,,,
295009,2022-12-05_13h21.27.395,vts_reward_expectancy_bt,2022.2.4,Win32,59.70862193,Chrome,1536,960,,,a,0.6829,10,33,0,0,5,5,0,1,1,0,0,0,0,1,0,0,triangle,circle,,,,,,,,,,,,,,,,,,,,,,,,,,,,,,,,,,,,,,,,,,,,,,,,,,,,,,
295009,2022-12-05_13h21.27.395,vts_reward_expectancy_bt,2022.2.4,Win32,59.70862193,Chrome,1536,960,,,l,0.7318,1,34,0,0,6,6,3,1,0,1,0,0,1,0,0,0,circle,triangle,,,,,,,,,,,,,,,,,,,,,,,,,,,,,,,,,,,,,,,,,,,,,,,,,,,,,,
295009,2022-12-05_13h21.27.395,vts_reward_expectancy_bt,2022.2.4,Win32,59.70862193,Chrome,1536,960,,,l,0.5508,1,35,0,0,7,7,5,1,0,1,0,0,0,0,0,1,circle,star,,,,,,,,,,,,,,,,,,,,,,,,,,,,,,,,,,,,,,,,,,,,,,,,,,,,,,
295009,2022-12-05_13h21.27.395,vts_reward_expectancy_bt,2022.2.4,Win32,59.70862193,Chrome,1536,960,,,l,0.6011,10,45,0,0,8,8,2,1,1,0,0,0,0,0,0,1,triangle,star,,,,,,,,,,,,,,,,,,,,,,,,,,,,,,,,,,,,,,,,,,,,,,,,,,,,,,
295009,2022-12-05_13h21.27.395,vts_reward_expectancy_bt,2022.2.4,Win32,59.70862193,Chrome,1536,960,,,l,0.8385,10,55,0,0,9,9,6,1,0,0,1,0,1,0,0,0,hexagon,triangle,,,,,,,,,,,,,,,,,,,,,,,,,,,,,,,,,,,,,,,,,,,,,,,,,,,,,,
295009,2022-12-05_13h21.27.395,vts_reward_expectancy_bt,2022.2.4,Win32,59.70862193,Chrome,1536,960,,,a,0.8879,10,65,0,0,10,10,11,1,0,0,0,1,0,0,1,0,star,hexagon,,,,,,,,,,,,,,,,,,,,,,,,,,,,,,,,,,,,,,,,,,,,,,,,,,,,,,
295009,2022-12-05_13h21.27.395,vts_reward_expectancy_bt,2022.2.4,Win32,59.70862193,Chrome,1536,960,,,l,1.0248,10,75,0,0,11,11,7,1,0,0,1,0,0,1,0,0,hexagon,circle,,,,,,,,,,,,,,,,,,,,,,,,,,,,,,,,,,,,,,,,,,,,,,,,,,,,,,
295009,2022-12-05_13h21.27.395,vts_reward_expectancy_bt,2022.2.4,Win32,59.70862193,Chrome,1536,960,,,l,0.8328,10,85,0,1,0,12,4,1,0,1,0,0,0,0,1,0,circle,hexagon,,,,,,,,,,,,,,,,,,,,,,,,,,,,,,,,,,,,,,,,,,,,,,,,,,,,,,
295009,2022-12-05_13h21.27.395,vts_reward_expectancy_bt,2022.2.4,Win32,59.70862193,Chrome,1536,960,,,a,0.6027,10,95,0,1,1,13,10,1,0,0,0,1,0,1,0,0,star ,circle,,,,,,,,,,,,,,,,,,,,,,,,,,,,,,,,,,,,,,,,,,,,,,,,,,,,,,
295009,2022-12-05_13h21.27.395,vts_reward_expectancy_bt,2022.2.4,Win32,59.70862193,Chrome,1536,960,,,a,0.8203,10,105,0,1,2,14,8,1,0,0,1,0,0,0,0,1,hexagon,star,,,,,,,,,,,,,,,,,,,,,,,,,,,,,,,,,,,,,,,,,,,,,,,,,,,,,,
295009,2022-12-05_13h21.27.395,vts_reward_expectancy_bt,2022.2.4,Win32,59.70862193,Chrome,1536,960,,,a,0.8484,10,115,0,1,3,15,7,1,0,0,1,0,0,1,0,0,hexagon,circle,,,,,,,,,,,,,,,,,,,,,,,,,,,,,,,,,,,,,,,,,,,,,,,,,,,,,,
295009,2022-12-05_13h21.27.395,vts_reward_expectancy_bt,2022.2.4,Win32,59.70862193,Chrome,1536,960,,,l,0.6487,10,125,0,1,4,16,2,1,1,0,0,0,0,0,0,1,triangle,star,,,,,,,,,,,,,,,,,,,,,,,,,,,,,,,,,,,,,,,,,,,,,,,,,,,,,,
295009,2022-12-05_13h21.27.395,vts_reward_expectancy_bt,2022.2.4,Win32,59.70862193,Chrome,1536,960,,,l,0.5508,10,135,0,1,5,17,11,1,0,0,0,1,0,0,1,0,star,hexagon,,,,,,,,,,,,,,,,,,,,,,,,,,,,,,,,,,,,,,,,,,,,,,,,,,,,,,
295009,2022-12-05_13h21.27.395,vts_reward_expectancy_bt,2022.2.4,Win32,59.70862193,Chrome,1536,960,,,l,0.8147,1,136,0,1,6,18,1,1,1,0,0,0,0,0,1,0,triangle,hexagon,,,,,,,,,,,,,,,,,,,,,,,,,,,,,,,,,,,,,,,,,,,,,,,,,,,,,,
295009,2022-12-05_13h21.27.395,vts_reward_expectancy_bt,2022.2.4,Win32,59.70862193,Chrome,1536,960,,,a,0.6631,1,137,0,1,7,19,6,1,0,0,1,0,1,0,0,0,hexagon,triangle,,,,,,,,,,,,,,,,,,,,,,,,,,,,,,,,,,,,,,,,,,,,,,,,,,,,,,
295009,2022-12-05_13h21.27.395,vts_reward_expectancy_bt,2022.2.4,Win32,59.70862193,Chrome,1536,960,,,a,0.5043,1,138,0,1,8,20,0,1,1,0,0,0,0,1,0,0,triangle,circle,,,,,,,,,,,,,,,,,,,,,,,,,,,,,,,,,,,,,,,,,,,,,,,,,,,,,,
295009,2022-12-05_13h21.27.395,vts_reward_expectancy_bt,2022.2.4,Win32,59.70862193,Chrome,1536,960,,,l,0.4833,1,139,0,1,9,21,5,1,0,1,0,0,0,0,0,1,circle,star,,,,,,,,,,,,,,,,,,,,,,,,,,,,,,,,,,,,,,,,,,,,,,,,,,,,,,
295009,2022-12-05_13h21.27.395,vts_reward_expectancy_bt,2022.2.4,Win32,59.70862193,Chrome,1536,960,,,a,0.7254,1,140,0,1,10,22,3,1,0,1,0,0,1,0,0,0,circle,triangle,,,,,,,,,,,,,,,,,,,,,,,,,,,,,,,,,,,,,,,,,,,,,,,,,,,,,,
295009,2022-12-05_13h21.27.395,vts_reward_expectancy_bt,2022.2.4,Win32,59.70862193,Chrome,1536,960,,,l,0.5177,10,150,0,1,11,23,9,1,0,0,0,1,1,0,0,0,star,triangle,,,,,,,,,,,,,,,,,,,,,,,,,,,,,,,,,,,,,,,,,,,,,,,,,,,,,,
295009,2022-12-05_13h21.27.395,vts_reward_expectancy_bt,2022.2.4,Win32,59.70862193,Chrome,1536,960,,,l,0.5004,1,151,0,2,0,24,4,1,0,1,0,0,0,0,1,0,circle,hexagon,,,,,,,,,,,,,,,,,,,,,,,,,,,,,,,,,,,,,,,,,,,,,,,,,,,,,,
295009,2022-12-05_13h21.27.395,vts_reward_expectancy_bt,2022.2.4,Win32,59.70862193,Chrome,1536,960,,,a,0.3985,10,161,0,2,1,25,7,1,0,0,1,0,0,1,0,0,hexagon,circle,,,,,,,,,,,,,,,,,,,,,,,,,,,,,,,,,,,,,,,,,,,,,,,,,,,,,,
295009,2022-12-05_13h21.27.395,vts_reward_expectancy_bt,2022.2.4,Win32,59.70862193,Chrome,1536,960,,,a,0.4802,1,162,0,2,2,26,11,1,0,0,0,1,0,0,1,0,star,hexagon,,,,,,,,,,,,,,,,,,,,,,,,,,,,,,,,,,,,,,,,,,,,,,,,,,,,,,
295009,2022-12-05_13h21.27.395,vts_reward_expectancy_bt,2022.2.4,Win32,59.70862193,Chrome,1536,960,,,l,0.4018,1,163,0,2,3,27,5,1,0,1,0,0,0,0,0,1,circle,star,,,,,,,,,,,,,,,,,,,,,,,,,,,,,,,,,,,,,,,,,,,,,,,,,,,,,,
295009,2022-12-05_13h21.27.395,vts_reward_expectancy_bt,2022.2.4,Win32,59.70862193,Chrome,1536,960,,,l,0.9553,10,173,0,2,4,28,10,1,0,0,0,1,0,1,0,0,star ,circle,,,,,,,,,,,,,,,,,,,,,,,,,,,,,,,,,,,,,,,,,,,,,,,,,,,,,,
295009,2022-12-05_13h21.27.395,vts_reward_expectancy_bt,2022.2.4,Win32,59.70862193,Chrome,1536,960,,,a,0.7137,10,183,0,2,5,29,8,1,0,0,1,0,0,0,0,1,hexagon,star,,,,,,,,,,,,,,,,,,,,,,,,,,,,,,,,,,,,,,,,,,,,,,,,,,,,,,
295009,2022-12-05_13h21.27.395,vts_reward_expectancy_bt,2022.2.4,Win32,59.70862193,Chrome,1536,960,,,l,0.8877,1,184,0,2,6,30,3,1,0,1,0,0,1,0,0,0,circle,triangle,,,,,,,,,,,,,,,,,,,,,,,,,,,,,,,,,,,,,,,,,,,,,,,,,,,,,,
295009,2022-12-05_13h21.27.395,vts_reward_expectancy_bt,2022.2.4,Win32,59.70862193,Chrome,1536,960,,,a,0.7183,1,185,0,2,7,31,1,1,1,0,0,0,0,0,1,0,triangle,hexagon,,,,,,,,,,,,,,,,,,,,,,,,,,,,,,,,,,,,,,,,,,,,,,,,,,,,,,
295009,2022-12-05_13h21.27.395,vts_reward_expectancy_bt,2022.2.4,Win32,59.70862193,Chrome,1536,960,,,l,0.3365,1,186,0,2,8,32,2,1,1,0,0,0,0,0,0,1,triangle,star,,,,,,,,,,,,,,,,,,,,,,,,,,,,,,,,,,,,,,,,,,,,,,,,,,,,,,
295009,2022-12-05_13h21.27.395,vts_reward_expectancy_bt,2022.2.4,Win32,59.70862193,Chrome,1536,960,,,l,0.2491,1,187,0,2,9,33,9,1,0,0,0,1,1,0,0,0,star,triangle,,,,,,,,,,,,,,,,,,,,,,,,,,,,,,,,,,,,,,,,,,,,,,,,,,,,,,
295009,2022-12-05_13h21.27.395,vts_reward_expectancy_bt,2022.2.4,Win32,59.70862193,Chrome,1536,960,,,l,0.348,1,188,0,2,10,34,6,1,0,0,1,0,1,0,0,0,hexagon,triangle,,,,,,,,,,,,,,,,,,,,,,,,,,,,,,,,,,,,,,,,,,,,,,,,,,,,,,
295009,2022-12-05_13h21.27.395,vts_reward_expectancy_bt,2022.2.4,Win32,59.70862193,Chrome,1536,960,,,l,0.4004,10,198,0,2,11,35,0,1,1,0,0,0,0,1,0,0,triangle,circle,,,,,,,,,,,,,,,,,,,,,,,,,,,,,,,,,,,,,,,,,,,,,,,,,,,,,,
295009,2022-12-05_13h21.27.395,vts_reward_expectancy_bt,2022.2.4,Win32,59.70862193,Chrome,1536,960,,,l,0.7772,10,208,1,0,0,0,1,1,1,0,0,0,0,0,1,0,triangle,hexagon,,,,,,,,,,,,,,,,,,,,,,,,,,,,,,,,,,,,,,,,,,,,,,,,,,,,,,
295009,2022-12-05_13h21.27.395,vts_reward_expectancy_bt,2022.2.4,Win32,59.70862193,Chrome,1536,960,,,a,0.4351,10,218,1,0,1,1,10,1,0,0,0,1,0,1,0,0,star ,circle,,,,,,,,,,,,,,,,,,,,,,,,,,,,,,,,,,,,,,,,,,,,,,,,,,,,,,
295009,2022-12-05_13h21.27.395,vts_reward_expectancy_bt,2022.2.4,Win32,59.70862193,Chrome,1536,960,,,l,0.2346,1,219,1,0,2,2,8,1,0,0,1,0,0,0,0,1,hexagon,star,,,,,,,,,,,,,,,,,,,,,,,,,,,,,,,,,,,,,,,,,,,,,,,,,,,,,,
295009,2022-12-05_13h21.27.395,vts_reward_expectancy_bt,2022.2.4,Win32,59.70862193,Chrome,1536,960,,,a,0.2843,10,229,1,0,3,3,3,1,0,1,0,0,1,0,0,0,circle,triangle,,,,,,,,,,,,,,,,,,,,,,,,,,,,,,,,,,,,,,,,,,,,,,,,,,,,,,
295009,2022-12-05_13h21.27.395,vts_reward_expectancy_bt,2022.2.4,Win32,59.70862193,Chrome,1536,960,,,l,0.3838,10,239,1,0,4,4,0,1,1,0,0,0,0,1,0,0,triangle,circle,,,,,,,,,,,,,,,,,,,,,,,,,,,,,,,,,,,,,,,,,,,,,,,,,,,,,,
295009,2022-12-05_13h21.27.395,vts_reward_expectancy_bt,2022.2.4,Win32,59.70862193,Chrome,1536,960,,,a,0.2171,10,249,1,0,5,5,7,1,0,0,1,0,0,1,0,0,hexagon,circle,,,,,,,,,,,,,,,,,,,,,,,,,,,,,,,,,,,,,,,,,,,,,,,,,,,,,,
295009,2022-12-05_13h21.27.395,vts_reward_expectancy_bt,2022.2.4,Win32,59.70862193,Chrome,1536,960,,,l,0.2665,1,250,1,0,6,6,6,1,0,0,1,0,1,0,0,0,hexagon,triangle,,,,,,,,,,,,,,,,,,,,,,,,,,,,,,,,,,,,,,,,,,,,,,,,,,,,,,
295009,2022-12-05_13h21.27.395,vts_reward_expectancy_bt,2022.2.4,Win32,59.70862193,Chrome,1536,960,,,a,0.1224,1,251,1,0,7,7,11,1,0,0,0,1,0,0,1,0,star,hexagon,,,,,,,,,,,,,,,,,,,,,,,,,,,,,,,,,,,,,,,,,,,,,,,,,,,,,,
295009,2022-12-05_13h21.27.395,vts_reward_expectancy_bt,2022.2.4,Win32,59.70862193,Chrome,1536,960,,,l,0.1342,10,261,1,0,8,8,4,1,0,1,0,0,0,0,1,0,circle,hexagon,,,,,,,,,,,,,,,,,,,,,,,,,,,,,,,,,,,,,,,,,,,,,,,,,,,,,,
295009,2022-12-05_13h21.27.395,vts_reward_expectancy_bt,2022.2.4,Win32,59.70862193,Chrome,1536,960,,,a,0.1775,10,271,1,0,9,9,2,1,1,0,0,0,0,0,0,1,triangle,star,,,,,,,,,,,,,,,,,,,,,,,,,,,,,,,,,,,,,,,,,,,,,,,,,,,,,,
295009,2022-12-05_13h21.27.395,vts_reward_expectancy_bt,2022.2.4,Win32,59.70862193,Chrome,1536,960,,,l,0.2016,1,272,1,0,10,10,5,1,0,1,0,0,0,0,0,1,circle,star,,,,,,,,,,,,,,,,,,,,,,,,,,,,,,,,,,,,,,,,,,,,,,,,,,,,,,
295009,2022-12-05_13h21.27.395,vts_reward_expectancy_bt,2022.2.4,Win32,59.70862193,Chrome,1536,960,,,a,0.1848,1,273,1,0,11,11,9,1,0,0,0,1,1,0,0,0,star,triangle,,,,,,,,,,,,,,,,,,,,,,,,,,,,,,,,,,,,,,,,,,,,,,,,,,,,,,
295009,2022-12-05_13h21.27.395,vts_reward_expectancy_bt,2022.2.4,Win32,59.70862193,Chrome,1536,960,,,a,0.1181,1,274,1,1,0,12,11,1,0,0,0,1,0,0,1,0,star,hexagon,,,,,,,,,,,,,,,,,,,,,,,,,,,,,,,,,,,,,,,,,,,,,,,,,,,,,,
295009,2022-12-05_13h21.27.395,vts_reward_expectancy_bt,2022.2.4,Win32,59.70862193,Chrome,1536,960,,,a,0.1415,10,284,1,1,1,13,0,1,1,0,0,0,0,1,0,0,triangle,circle,,,,,,,,,,,,,,,,,,,,,,,,,,,,,,,,,,,,,,,,,,,,,,,,,,,,,,
295009,2022-12-05_13h21.27.395,vts_reward_expectancy_bt,2022.2.4,Win32,59.70862193,Chrome,1536,960,,,l,0.2683,10,294,1,1,2,14,2,1,1,0,0,0,0,0,0,1,triangle,star,,,,,,,,,,,,,,,,,,,,,,,,,,,,,,,,,,,,,,,,,,,,,,,,,,,,,,
295009,2022-12-05_13h21.27.395,vts_reward_expectancy_bt,2022.2.4,Win32,59.70862193,Chrome,1536,960,,,a,0.0838,10,304,1,1,3,15,10,1,0,0,0,1,0,1,0,0,star ,circle,,,,,,,,,,,,,,,,,,,,,,,,,,,,,,,,,,,,,,,,,,,,,,,,,,,,,,
295009,2022-12-05_13h21.27.395,vts_reward_expectancy_bt,2022.2.4,Win32,59.70862193,Chrome,1536,960,,,l,0.1008,1,305,1,1,4,16,8,1,0,0,1,0,0,0,0,1,hexagon,star,,,,,,,,,,,,,,,,,,,,,,,,,,,,,,,,,,,,,,,,,,,,,,,,,,,,,,
295009,2022-12-05_13h21.27.395,vts_reward_expectancy_bt,2022.2.4,Win32,59.70862193,Chrome,1536,960,,,l,0.0177,10,315,1,1,5,17,7,1,0,0,1,0,0,1,0,0,hexagon,circle,,,,,,,,,,,,,,,,,,,,,,,,,,,,,,,,,,,,,,,,,,,,,,,,,,,,,,
295009,2022-12-05_13h21.27.395,vts_reward_expectancy_bt,2022.2.4,Win32,59.70862193,Chrome,1536,960,,,a,0.0772,1,316,1,1,6,18,9,1,0,0,0,1,1,0,0,0,star,triangle,,,,,,,,,,,,,,,,,,,,,,,,,,,,,,,,,,,,,,,,,,,,,,,,,,,,,,
295009,2022-12-05_13h21.27.395,vts_reward_expectancy_bt,2022.2.4,Win32,59.70862193,Chrome,1536,960,,,a,0.094,10,326,1,1,7,19,1,1,1,0,0,0,0,0,1,0,triangle,hexagon,,,,,,,,,,,,,,,,,,,,,,,,,,,,,,,,,,,,,,,,,,,,,,,,,,,,,,
295009,2022-12-05_13h21.27.395,vts_reward_expectancy_bt,2022.2.4,Win32,59.70862193,Chrome,1536,960,,,a,0.041,10,336,1,1,8,20,3,1,0,1,0,0,1,0,0,0,circle,triangle,,,,,,,,,,,,,,,,,,,,,,,,,,,,,,,,,,,,,,,,,,,,,,,,,,,,,,
295009,2022-12-05_13h21.27.395,vts_reward_expectancy_bt,2022.2.4,Win32,59.70862193,Chrome,1536,960,,,l,0.1578,1,337,1,1,9,21,6,1,0,0,1,0,1,0,0,0,hexagon,triangle,,,,,,,,,,,,,,,,,,,,,,,,,,,,,,,,,,,,,,,,,,,,,,,,,,,,,,
295009,2022-12-05_13h21.27.395,vts_reward_expectancy_bt,2022.2.4,Win32,59.70862193,Chrome,1536,960,,,l,0.1184,10,347,1,1,10,22,5,1,0,1,0,0,0,0,0,1,circle,star,,,,,,,,,,,,,,,,,,,,,,,,,,,,,,,,,,,,,,,,,,,,,,,,,,,,,,
295009,2022-12-05_13h21.27.395,vts_reward_expectancy_bt,2022.2.4,Win32,59.70862193,Chrome,1536,960,,,l,0.1777,10,357,1,1,11,23,4,1,0,1,0,0,0,0,1,0,circle,hexagon,,,,,,,,,,,,,,,,,,,,,,,,,,,,,,,,,,,,,,,,,,,,,,,,,,,,,,
295009,2022-12-05_13h21.27.395,vts_reward_expectancy_bt,2022.2.4,Win32,59.70862193,Chrome,1536,960,,,l,0.1348,1,358,1,2,0,24,9,1,0,0,0,1,1,0,0,0,star,triangle,,,,,,,,,,,,,,,,,,,,,,,,,,,,,,,,,,,,,,,,,,,,,,,,,,,,,,
295009,2022-12-05_13h21.27.395,vts_reward_expectancy_bt,2022.2.4,Win32,59.70862193,Chrome,1536,960,,,a,0.1689,10,368,1,2,1,25,7,1,0,0,1,0,0,1,0,0,hexagon,circle,,,,,,,,,,,,,,,,,,,,,,,,,,,,,,,,,,,,,,,,,,,,,,,,,,,,,,
295009,2022-12-05_13h21.27.395,vts_reward_expectancy_bt,2022.2.4,Win32,59.70862193,Chrome,1536,960,,,l,0.165,1,369,1,2,2,26,6,1,0,0,1,0,1,0,0,0,hexagon,triangle,,,,,,,,,,,,,,,,,,,,,,,,,,,,,,,,,,,,,,,,,,,,,,,,,,,,,,
295009,2022-12-05_13h21.27.395,vts_reward_expectancy_bt,2022.2.4,Win32,59.70862193,Chrome,1536,960,,,l,0.1345,1,370,1,2,3,27,8,1,0,0,1,0,0,0,0,1,hexagon,star,,,,,,,,,,,,,,,,,,,,,,,,,,,,,,,,,,,,,,,,,,,,,,,,,,,,,,
295009,2022-12-05_13h21.27.395,vts_reward_expectancy_bt,2022.2.4,Win32,59.70862193,Chrome,1536,960,,,l,0.2665,10,380,1,2,4,28,4,1,0,1,0,0,0,0,1,0,circle,hexagon,,,,,,,,,,,,,,,,,,,,,,,,,,,,,,,,,,,,,,,,,,,,,,,,,,,,,,
295009,2022-12-05_13h21.27.395,vts_reward_expectancy_bt,2022.2.4,Win32,59.70862193,Chrome,1536,960,,,a,0.2344,1,381,1,2,5,29,2,1,1,0,0,0,0,0,0,1,triangle,star,,,,,,,,,,,,,,,,,,,,,,,,,,,,,,,,,,,,,,,,,,,,,,,,,,,,,,
295009,2022-12-05_13h21.27.395,vts_reward_expectancy_bt,2022.2.4,Win32,59.70862193,Chrome,1536,960,,,a,0.3341,1,382,1,2,6,30,11,1,0,0,0,1,0,0,1,0,star,hexagon,,,,,,,,,,,,,,,,,,,,,,,,,,,,,,,,,,,,,,,,,,,,,,,,,,,,,,
295009,2022-12-05_13h21.27.395,vts_reward_expectancy_bt,2022.2.4,Win32,59.70862193,Chrome,1536,960,,,l,0.2433,1,383,1,2,7,31,5,1,0,1,0,0,0,0,0,1,circle,star,,,,,,,,,,,,,,,,,,,,,,,,,,,,,,,,,,,,,,,,,,,,,,,,,,,,,,
295009,2022-12-05_13h21.27.395,vts_reward_expectancy_bt,2022.2.4,Win32,59.70862193,Chrome,1536,960,,,a,0.2058,1,384,1,2,8,32,1,1,1,0,0,0,0,0,1,0,triangle,hexagon,,,,,,,,,,,,,,,,,,,,,,,,,,,,,,,,,,,,,,,,,,,,,,,,,,,,,,
295009,2022-12-05_13h21.27.395,vts_reward_expectancy_bt,2022.2.4,Win32,59.70862193,Chrome,1536,960,,,a,0.2675,10,394,1,2,9,33,3,1,0,1,0,0,1,0,0,0,circle,triangle,,,,,,,,,,,,,,,,,,,,,,,,,,,,,,,,,,,,,,,,,,,,,,,,,,,,,,
295009,2022-12-05_13h21.27.395,vts_reward_expectancy_bt,2022.2.4,Win32,59.70862193,Chrome,1536,960,,,a,0.3672,10,404,1,2,10,34,10,1,0,0,0,1,0,1,0,0,star ,circle,,,,,,,,,,,,,,,,,,,,,,,,,,,,,,,,,,,,,,,,,,,,,,,,,,,,,,
295009,2022-12-05_13h21.27.395,vts_reward_expectancy_bt,2022.2.4,Win32,59.70862193,Chrome,1536,960,,,a,0.2507,1,405,1,2,11,35,0,1,1,0,0,0,0,1,0,0,triangle,circle,,,,,,,,,,,,,,,,,,,,,,,,,,,,,,,,,,,,,,,,,,,,,,,,,,,,,,
295009,2022-12-05_13h21.27.395,vts_reward_expectancy_bt,2022.2.4,Win32,59.70862193,Chrome,1536,960,,,l,0.4681,10,415,2,0,0,0,8,1,0,0,1,0,0,0,0,1,hexagon,star,,,,,,,,,,,,,,,,,,,,,,,,,,,,,,,,,,,,,,,,,,,,,,,,,,,,,,
295009,2022-12-05_13h21.27.395,vts_reward_expectancy_bt,2022.2.4,Win32,59.70862193,Chrome,1536,960,,,a,0.2004,10,425,2,0,1,1,6,1,0,0,1,0,1,0,0,0,hexagon,triangle,,,,,,,,,,,,,,,,,,,,,,,,,,,,,,,,,,,,,,,,,,,,,,,,,,,,,,
295009,2022-12-05_13h21.27.395,vts_reward_expectancy_bt,2022.2.4,Win32,59.70862193,Chrome,1536,960,,,l,0.2265,10,435,2,0,2,2,11,1,0,0,0,1,0,0,1,0,star,hexagon,,,,,,,,,,,,,,,,,,,,,,,,,,,,,,,,,,,,,,,,,,,,,,,,,,,,,,
295009,2022-12-05_13h21.27.395,vts_reward_expectancy_bt,2022.2.4,Win32,59.70862193,Chrome,1536,960,,,a,0.0009,10,445,2,0,3,3,10,1,0,0,0,1,0,1,0,0,star ,circle,,,,,,,,,,,,,,,,,,,,,,,,,,,,,,,,,,,,,,,,,,,,,,,,,,,,,,
295009,2022-12-05_13h21.27.395,vts_reward_expectancy_bt,2022.2.4,Win32,59.70862193,Chrome,1536,960,,,l,0.2177,10,455,2,0,4,4,0,1,1,0,0,0,0,1,0,0,triangle,circle,,,,,,,,,,,,,,,,,,,,,,,,,,,,,,,,,,,,,,,,,,,,,,,,,,,,,,
295009,2022-12-05_13h21.27.395,vts_reward_expectancy_bt,2022.2.4,Win32,59.70862193,Chrome,1536,960,,,a,0.2186,1,456,2,0,5,5,7,1,0,0,1,0,0,1,0,0,hexagon,circle,,,,,,,,,,,,,,,,,,,,,,,,,,,,,,,,,,,,,,,,,,,,,,,,,,,,,,
295009,2022-12-05_13h21.27.395,vts_reward_expectancy_bt,2022.2.4,Win32,59.70862193,Chrome,1536,960,,,a,0.0852,1,457,2,0,6,6,9,1,0,0,0,1,1,0,0,0,star,triangle,,,,,,,,,,,,,,,,,,,,,,,,,,,,,,,,,,,,,,,,,,,,,,,,,,,,,,
295009,2022-12-05_13h21.27.395,vts_reward_expectancy_bt,2022.2.4,Win32,59.70862193,Chrome,1536,960,,,l,0.2356,10,467,2,0,7,7,5,1,0,1,0,0,0,0,0,1,circle,star,,,,,,,,,,,,,,,,,,,,,,,,,,,,,,,,,,,,,,,,,,,,,,,,,,,,,,
295009,2022-12-05_13h21.27.395,vts_reward_expectancy_bt,2022.2.4,Win32,59.70862193,Chrome,1536,960,,,l,0.1685,10,477,2,0,8,8,1,1,1,0,0,0,0,0,1,0,triangle,hexagon,,,,,,,,,,,,,,,,,,,,,,,,,,,,,,,,,,,,,,,,,,,,,,,,,,,,,,
295009,2022-12-05_13h21.27.395,vts_reward_expectancy_bt,2022.2.4,Win32,59.70862193,Chrome,1536,960,,,l,0.3344,1,478,2,0,9,9,3,1,0,1,0,0,1,0,0,0,circle,triangle,,,,,,,,,,,,,,,,,,,,,,,,,,,,,,,,,,,,,,,,,,,,,,,,,,,,,,
295009,2022-12-05_13h21.27.395,vts_reward_expectancy_bt,2022.2.4,Win32,59.70862193,Chrome,1536,960,,,a,0.2516,1,479,2,0,10,10,2,1,1,0,0,0,0,0,0,1,triangle,star,,,,,,,,,,,,,,,,,,,,,,,,,,,,,,,,,,,,,,,,,,,,,,,,,,,,,,
295009,2022-12-05_13h21.27.395,vts_reward_expectancy_bt,2022.2.4,Win32,59.70862193,Chrome,1536,960,,,a,0.2857,1,480,2,0,11,11,4,1,0,1,0,0,0,0,1,0,circle,hexagon,,,,,,,,,,,,,,,,,,,,,,,,,,,,,,,,,,,,,,,,,,,,,,,,,,,,,,
295009,2022-12-05_13h21.27.395,vts_reward_expectancy_bt,2022.2.4,Win32,59.70862193,Chrome,1536,960,,,a,0.3013,1,481,2,1,0,12,11,1,0,0,0,1,0,0,1,0,star,hexagon,,,,,,,,,,,,,,,,,,,,,,,,,,,,,,,,,,,,,,,,,,,,,,,,,,,,,,
295009,2022-12-05_13h21.27.395,vts_reward_expectancy_bt,2022.2.4,Win32,59.70862193,Chrome,1536,960,,,a,0.159,10,491,2,1,1,13,6,1,0,0,1,0,1,0,0,0,hexagon,triangle,,,,,,,,,,,,,,,,,,,,,,,,,,,,,,,,,,,,,,,,,,,,,,,,,,,,,,
295009,2022-12-05_13h21.27.395,vts_reward_expectancy_bt,2022.2.4,Win32,59.70862193,Chrome,1536,960,,,l,0.1905,10,501,2,1,2,14,4,1,0,1,0,0,0,0,1,0,circle,hexagon,,,,,,,,,,,,,,,,,,,,,,,,,,,,,,,,,,,,,,,,,,,,,,,,,,,,,,
295009,2022-12-05_13h21.27.395,vts_reward_expectancy_bt,2022.2.4,Win32,59.70862193,Chrome,1536,960,,,a,0.1344,1,502,2,1,3,15,3,1,0,1,0,0,1,0,0,0,circle,triangle,,,,,,,,,,,,,,,,,,,,,,,,,,,,,,,,,,,,,,,,,,,,,,,,,,,,,,
295009,2022-12-05_13h21.27.395,vts_reward_expectancy_bt,2022.2.4,Win32,59.70862193,Chrome,1536,960,,,l,0.1761,1,503,2,1,4,16,5,1,0,1,0,0,0,0,0,1,circle,star,,,,,,,,,,,,,,,,,,,,,,,,,,,,,,,,,,,,,,,,,,,,,,,,,,,,,,
295009,2022-12-05_13h21.27.395,vts_reward_expectancy_bt,2022.2.4,Win32,59.70862193,Chrome,1536,960,,,a,0.1846,10,513,2,1,5,17,2,1,1,0,0,0,0,0,0,1,triangle,star,,,,,,,,,,,,,,,,,,,,,,,,,,,,,,,,,,,,,,,,,,,,,,,,,,,,,,
295009,2022-12-05_13h21.27.395,vts_reward_expectancy_bt,2022.2.4,Win32,59.70862193,Chrome,1536,960,,,a,0.2405,1,514,2,1,6,18,9,1,0,0,0,1,1,0,0,0,star,triangle,,,,,,,,,,,,,,,,,,,,,,,,,,,,,,,,,,,,,,,,,,,,,,,,,,,,,,
295009,2022-12-05_13h21.27.395,vts_reward_expectancy_bt,2022.2.4,Win32,59.70862193,Chrome,1536,960,,,l,0.1857,10,524,2,1,7,19,1,1,1,0,0,0,0,0,1,0,triangle,hexagon,,,,,,,,,,,,,,,,,,,,,,,,,,,,,,,,,,,,,,,,,,,,,,,,,,,,,,
295009,2022-12-05_13h21.27.395,vts_reward_expectancy_bt,2022.2.4,Win32,59.70862193,Chrome,1536,960,,,l,0.1623,10,534,2,1,8,20,7,1,0,0,1,0,0,1,0,0,hexagon,circle,,,,,,,,,,,,,,,,,,,,,,,,,,,,,,,,,,,,,,,,,,,,,,,,,,,,,,
295009,2022-12-05_13h21.27.395,vts_reward_expectancy_bt,2022.2.4,Win32,59.70862193,Chrome,1536,960,,,l,0.1001,1,535,2,1,9,21,10,1,0,0,0,1,0,1,0,0,star ,circle,,,,,,,,,,,,,,,,,,,,,,,,,,,,,,,,,,,,,,,,,,,,,,,,,,,,,,
295009,2022-12-05_13h21.27.395,vts_reward_expectancy_bt,2022.2.4,Win32,59.70862193,Chrome,1536,960,,,l,0.1025,1,536,2,1,10,22,8,1,0,0,1,0,0,0,0,1,hexagon,star,,,,,,,,,,,,,,,,,,,,,,,,,,,,,,,,,,,,,,,,,,,,,,,,,,,,,,
295009,2022-12-05_13h21.27.395,vts_reward_expectancy_bt,2022.2.4,Win32,59.70862193,Chrome,1536,960,,,a,0.3351,10,546,2,1,11,23,0,1,1,0,0,0,0,1,0,0,triangle,circle,,,,,,,,,,,,,,,,,,,,,,,,,,,,,,,,,,,,,,,,,,,,,,,,,,,,,,
295009,2022-12-05_13h21.27.395,vts_reward_expectancy_bt,2022.2.4,Win32,59.70862193,Chrome,1536,960,,,l,0.0875,10,556,2,2,0,24,10,1,0,0,0,1,0,1,0,0,star ,circle,,,,,,,,,,,,,,,,,,,,,,,,,,,,,,,,,,,,,,,,,,,,,,,,,,,,,,
295009,2022-12-05_13h21.27.395,vts_reward_expectancy_bt,2022.2.4,Win32,59.70862193,Chrome,1536,960,,,l,0.124,10,566,2,2,1,25,5,1,0,1,0,0,0,0,0,1,circle,star,,,,,,,,,,,,,,,,,,,,,,,,,,,,,,,,,,,,,,,,,,,,,,,,,,,,,,
295009,2022-12-05_13h21.27.395,vts_reward_expectancy_bt,2022.2.4,Win32,59.70862193,Chrome,1536,960,,,a,0.1017,1,567,2,2,2,26,8,1,0,0,1,0,0,0,0,1,hexagon,star,,,,,,,,,,,,,,,,,,,,,,,,,,,,,,,,,,,,,,,,,,,,,,,,,,,,,,
295009,2022-12-05_13h21.27.395,vts_reward_expectancy_bt,2022.2.4,Win32,59.70862193,Chrome,1536,960,,,a,0.1402,1,568,2,2,3,27,1,1,1,0,0,0,0,0,1,0,triangle,hexagon,,,,,,,,,,,,,,,,,,,,,,,,,,,,,,,,,,,,,,,,,,,,,,,,,,,,,,
295009,2022-12-05_13h21.27.395,vts_reward_expectancy_bt,2022.2.4,Win32,59.70862193,Chrome,1536,960,,,l,0.1495,1,569,2,2,4,28,0,1,1,0,0,0,0,1,0,0,triangle,circle,,,,,,,,,,,,,,,,,,,,,,,,,,,,,,,,,,,,,,,,,,,,,,,,,,,,,,
295009,2022-12-05_13h21.27.395,vts_reward_expectancy_bt,2022.2.4,Win32,59.70862193,Chrome,1536,960,,,a,0.1855,1,570,2,2,5,29,9,1,0,0,0,1,1,0,0,0,star,triangle,,,,,,,,,,,,,,,,,,,,,,,,,,,,,,,,,,,,,,,,,,,,,,,,,,,,,,
295009,2022-12-05_13h21.27.395,vts_reward_expectancy_bt,2022.2.4,Win32,59.70862193,Chrome,1536,960,,,a,0.3175,1,571,2,2,6,30,11,1,0,0,0,1,0,0,1,0,star,hexagon,,,,,,,,,,,,,,,,,,,,,,,,,,,,,,,,,,,,,,,,,,,,,,,,,,,,,,
295009,2022-12-05_13h21.27.395,vts_reward_expectancy_bt,2022.2.4,Win32,59.70862193,Chrome,1536,960,,,l,0.2652,1,572,2,2,7,31,6,1,0,0,1,0,1,0,0,0,hexagon,triangle,,,,,,,,,,,,,,,,,,,,,,,,,,,,,,,,,,,,,,,,,,,,,,,,,,,,,,
295009,2022-12-05_13h21.27.395,vts_reward_expectancy_bt,2022.2.4,Win32,59.70862193,Chrome,1536,960,,,l,0.1316,1,573,2,2,8,32,2,1,1,0,0,0,0,0,0,1,triangle,star,,,,,,,,,,,,,,,,,,,,,,,,,,,,,,,,,,,,,,,,,,,,,,,,,,,,,,
295009,2022-12-05_13h21.27.395,vts_reward_expectancy_bt,2022.2.4,Win32,59.70862193,Chrome,1536,960,,,l,0.1513,10,583,2,2,9,33,7,1,0,0,1,0,0,1,0,0,hexagon,circle,,,,,,,,,,,,,,,,,,,,,,,,,,,,,,,,,,,,,,,,,,,,,,,,,,,,,,
295009,2022-12-05_13h21.27.395,vts_reward_expectancy_bt,2022.2.4,Win32,59.70862193,Chrome,1536,960,,,l,0.1505,10,593,2,2,10,34,4,1,0,1,0,0,0,0,1,0,circle,hexagon,,,,,,,,,,,,,,,,,,,,,,,,,,,,,,,,,,,,,,,,,,,,,,,,,,,,,,
295009,2022-12-05_13h21.27.395,vts_reward_expectancy_bt,2022.2.4,Win32,59.70862193,Chrome,1536,960,,,l,0.1394,1,594,2,2,11,35,3,1,0,1,0,0,1,0,0,0,circle,triangle,,,,,,,,,,,,,,,,,,,,,,,,,,,,,,,,,,,,,,,,,,,,,,,,,,,,,,
295009,2022-12-05_13h21.27.395,vts_reward_expectancy_bt,2022.2.4,Win32,59.70862193,Chrome,1536,960,,,,,,,,,,,,,,,,,,,,,,,125,D,circle,1,0,d,2.7542,0,0,0,0,0,1,,,,,,,,,,,,,,,,,,,,,,,,,,,,,,,,,,,,,,,,,
295009,2022-12-05_13h21.27.395,vts_reward_expectancy_bt,2022.2.4,Win32,59.70862193,Chrome,1536,960,,,,,,,,,,,,,,,,,,,,,,,146,S,hexagon,1,0,d,0.6267,0,1,0,1,0,1,,,,,,,,,,,,,,,,,,,,,,,,,,,,,,,,,,,,,,,,,
295009,2022-12-05_13h21.27.395,vts_reward_expectancy_bt,2022.2.4,Win32,59.70862193,Chrome,1536,960,,,,,,,,,,,,,,,,,,,,,,,160,U,triangle,1,0,f,0.4283,0,2,0,2,0,1,,,,,,,,,,,,,,,,,,,,,,,,,,,,,,,,,,,,,,,,,
295009,2022-12-05_13h21.27.395,vts_reward_expectancy_bt,2022.2.4,Win32,59.70862193,Chrome,1536,960,,,,,,,,,,,,,,,,,,,,,,,181,H,star,1,0,f,0.417,0,3,0,3,0,1,,,,,,,,,,,,,,,,,,,,,,,,,,,,,,,,,,,,,,,,,
295009,2022-12-05_13h21.27.395,vts_reward_expectancy_bt,2022.2.4,Win32,59.70862193,Chrome,1536,960,,,,,,,,,,,,,,,,,,,,,,,167,W,circle,1,0,f,0.5232,0,4,0,4,0,1,,,,,,,,,,,,,,,,,,,,,,,,,,,,,,,,,,,,,,,,,
295009,2022-12-05_13h21.27.395,vts_reward_expectancy_bt,2022.2.4,Win32,59.70862193,Chrome,1536,960,,,,,,,,,,,,,,,,,,,,,,,132,B,hexagon,1,0,d,0.4188,0,5,0,5,0,1,,,,,,,,,,,,,,,,,,,,,,,,,,,,,,,,,,,,,,,,,
295009,2022-12-05_13h21.27.395,vts_reward_expectancy_bt,2022.2.4,Win32,59.70862193,Chrome,1536,960,,,,,,,,,,,,,,,,,,,,,,,139,Y,triangle,1,0,d,0.5179,0,6,0,6,0,1,,,,,,,,,,,,,,,,,,,,,,,,,,,,,,,,,,,,,,,,,
295009,2022-12-05_13h21.27.395,vts_reward_expectancy_bt,2022.2.4,Win32,59.70862193,Chrome,1536,960,,,,,,,,,,,,,,,,,,,,,,,174,F,star,1,0,f,0.5171,0,7,0,7,0,1,,,,,,,,,,,,,,,,,,,,,,,,,,,,,,,,,,,,,,,,,
295009,2022-12-05_13h21.27.395,vts_reward_expectancy_bt,2022.2.4,Win32,59.70862193,Chrome,1536,960,,,,,,,,,,,,,,,,,,,,,,,125,D,triangle,1,0,d,0.4682,0,8,0,8,0,1,,,,,,,,,,,,,,,,,,,,,,,,,,,,,,,,,,,,,,,,,
295009,2022-12-05_13h21.27.395,vts_reward_expectancy_bt,2022.2.4,Win32,59.70862193,Chrome,1536,960,,,,,,,,,,,,,,,,,,,,,,,146,S,star,1,0,d,0.4328,0,9,0,9,0,1,,,,,,,,,,,,,,,,,,,,,,,,,,,,,,,,,,,,,,,,,
295009,2022-12-05_13h21.27.395,vts_reward_expectancy_bt,2022.2.4,Win32,59.70862193,Chrome,1536,960,,,,,,,,,,,,,,,,,,,,,,,174,Y,hexagon,0,0,,,1,,,,,,,0,0,0,0,1,,,,,,,,,,,,,,,,,,,,,,,,,,,,,,,,,,,
295009,2022-12-05_13h21.27.395,vts_reward_expectancy_bt,2022.2.4,Win32,59.70862193,Chrome,1536,960,,,,,,,,,,,,,,,,,,,,,,,160,H,star,2,1,,,1,,,,,,d,1,0,1,0,1,1.1106,,,,,,,,,,,,,,,,,,,,,,,,,,,,,,,,,,
295009,2022-12-05_13h21.27.395,vts_reward_expectancy_bt,2022.2.4,Win32,59.70862193,Chrome,1536,960,,,,,,,,,,,,,,,,,,,,,,,139,S,circle,2,0,,,1,,,,,,f,2,0,2,0,1,1.1666,,,,,,,,,,,,,,,,,,,,,,,,,,,,,,,,,,
295009,2022-12-05_13h21.27.395,vts_reward_expectancy_bt,2022.2.4,Win32,59.70862193,Chrome,1536,960,,,,,,,,,,,,,,,,,,,,,,,181,D,triangle,2,0,,,1,,,,,,d,3,0,3,0,1,0.6145,,,,,,,,,,,,,,,,,,,,,,,,,,,,,,,,,,
295009,2022-12-05_13h21.27.395,vts_reward_expectancy_bt,2022.2.4,Win32,59.70862193,Chrome,1536,960,,,,,,,,,,,,,,,,,,,,,,,146,W,hexagon,2,0,,,1,,,,,,f,4,0,4,0,1,2.4656,,,,,,,,,,,,,,,,,,,,,,,,,,,,,,,,,,
295009,2022-12-05_13h21.27.395,vts_reward_expectancy_bt,2022.2.4,Win32,59.70862193,Chrome,1536,960,,,,,,,,,,,,,,,,,,,,,,,125,F,star,1,0,,,1,,,,,,j,5,0,5,0,1,0.7125,,,,,,,,,,,,,,,,,,,,,,,,,,,,,,,,,,
295009,2022-12-05_13h21.27.395,vts_reward_expectancy_bt,2022.2.4,Win32,59.70862193,Chrome,1536,960,,,,,,,,,,,,,,,,,,,,,,,167,U,circle,0,0,,,1,,,,,,,6,0,6,0,1,,,,,,,,,,,,,,,,,,,,,,,,,,,,,,,,,,,
295009,2022-12-05_13h21.27.395,vts_reward_expectancy_bt,2022.2.4,Win32,59.70862193,Chrome,1536,960,,,,,,,,,,,,,,,,,,,,,,,132,B,triangle,0,1,,,1,,,,,,k,7,0,7,0,1,1.1182,,,,,,,,,,,,,,,,,,,,,,,,,,,,,,,,,,
295009,2022-12-05_13h21.27.395,vts_reward_expectancy_bt,2022.2.4,Win32,59.70862193,Chrome,1536,960,,,,,,,,,,,,,,,,,,,,,,,174,Y,circle,2,1,,,1,,,,,,f,8,0,8,0,1,2.7266,,,,,,,,,,,,,,,,,,,,,,,,,,,,,,,,,,
295009,2022-12-05_13h21.27.395,vts_reward_expectancy_bt,2022.2.4,Win32,59.70862193,Chrome,1536,960,,,,,,,,,,,,,,,,,,,,,,,160,H,star,0,0,,,1,,,,,,k,9,0,9,0,1,2.2826,,,,,,,,,,,,,,,,,,,,,,,,,,,,,,,,,,
295009,2022-12-05_13h21.27.395,vts_reward_expectancy_bt,2022.2.4,Win32,59.70862193,Chrome,1536,960,,,,,,,,,,,,,,,,,,,,,,,167,B,triangle,1,1,,,2,,,,,,j,0,0,0,0,1,0.8767,,,,,,,,,,,,,,,,,,,,,,,,,,,,,,,,,,
295009,2022-12-05_13h21.27.395,vts_reward_expectancy_bt,2022.2.4,Win32,59.70862193,Chrome,1536,960,,,,,,,,,,,,,,,,,,,,,,,132,H,circle,1,0,,,2,,,,,,j,1,0,1,0,1,0.9617,,,,,,,,,,,,,,,,,,,,,,,,,,,,,,,,,,
295009,2022-12-05_13h21.27.395,vts_reward_expectancy_bt,2022.2.4,Win32,59.70862193,Chrome,1536,960,,,,,,,,,,,,,,,,,,,,,,,146,U,hexagon,1,0,,,2,,,,,,k,2,0,2,0,1,0.6476,,,,,,,,,,,,,,,,,,,,,,,,,,,,,,,,,,
295009,2022-12-05_13h21.27.395,vts_reward_expectancy_bt,2022.2.4,Win32,59.70862193,Chrome,1536,960,,,,,,,,,,,,,,,,,,,,,,,181,W,star,1,0,,,2,,,,,,k,3,0,3,0,1,0.43,,,,,,,,,,,,,,,,,,,,,,,,,,,,,,,,,,
295009,2022-12-05_13h21.27.395,vts_reward_expectancy_bt,2022.2.4,Win32,59.70862193,Chrome,1536,960,,,,,,,,,,,,,,,,,,,,,,,125,F,triangle,1,0,,,2,,,,,,j,4,0,4,0,1,0.4953,,,,,,,,,,,,,,,,,,,,,,,,,,,,,,,,,,
295009,2022-12-05_13h21.27.395,vts_reward_expectancy_bt,2022.2.4,Win32,59.70862193,Chrome,1536,960,,,,,,,,,,,,,,,,,,,,,,,139,D,circle,1,0,,,2,,,,,,j,5,0,5,0,1,0.5153,,,,,,,,,,,,,,,,,,,,,,,,,,,,,,,,,,
295009,2022-12-05_13h21.27.395,vts_reward_expectancy_bt,2022.2.4,Win32,59.70862193,Chrome,1536,960,,,,,,,,,,,,,,,,,,,,,,,160,Y,hexagon,1,0,,,2,,,,,,k,6,0,6,0,1,0.4339,,,,,,,,,,,,,,,,,,,,,,,,,,,,,,,,,,
295009,2022-12-05_13h21.27.395,vts_reward_expectancy_bt,2022.2.4,Win32,59.70862193,Chrome,1536,960,,,,,,,,,,,,,,,,,,,,,,,174,S,star,1,0,,,2,,,,,,k,7,0,7,0,1,0.4857,,,,,,,,,,,,,,,,,,,,,,,,,,,,,,,,,,
295009,2022-12-05_13h21.27.395,vts_reward_expectancy_bt,2022.2.4,Win32,59.70862193,Chrome,1536,960,,,,,,,,,,,,,,,,,,,,,,,167,B,star,1,0,,,2,,,,,,j,8,0,8,0,1,0.5038,,,,,,,,,,,,,,,,,,,,,,,,,,,,,,,,,,
295009,2022-12-05_13h21.27.395,vts_reward_expectancy_bt,2022.2.4,Win32,59.70862193,Chrome,1536,960,,,,,,,,,,,,,,,,,,,,,,,132,H,circle,1,0,,,2,,,,,,j,9,0,9,0,1,0.5779,,,,,,,,,,,,,,,,,,,,,,,,,,,,,,,,,,
295009,2022-12-05_13h21.27.395,vts_reward_expectancy_bt,2022.2.4,Win32,59.70862193,Chrome,1536,960,,,,,0,594,,,,,,,,,,,,,,,,,174,U,triangle,1,0,,,3,,,,,,,,,,,,,-1,number,NA,f,1.5667,vtsPrac,0,0,0,0,1,,,,,,,,,,,,,,,,,,,,,,,
295009,2022-12-05_13h21.27.395,vts_reward_expectancy_bt,2022.2.4,Win32,59.70862193,Chrome,1536,960,,,,,0,594,,,,,,,,,,,,,,,,,125,W,circle,1,0,,,3,,,,,,,,,,,,,switch,letter,lettSwt,k,0.9268,vtsPrac,1,0,1,0,1,,,,,,,,,,,,,,,,,,,,,,,
295009,2022-12-05_13h21.27.395,vts_reward_expectancy_bt,2022.2.4,Win32,59.70862193,Chrome,1536,960,,,,,0,594,,,,,,,,,,,,,,,,,160,F,triangle,1,0,,,3,,,,,,,,,,,,,switch,number,numSwt,f,0.8329,vtsPrac,2,0,2,0,1,,,,,,,,,,,,,,,,,,,,,,,
295009,2022-12-05_13h21.27.395,vts_reward_expectancy_bt,2022.2.4,Win32,59.70862193,Chrome,1536,960,,,,,0,594,,,,,,,,,,,,,,,,,132,S,circle,1,0,,,3,,,,,,,,,,,,,switch,letter,lettSwt,k,0.4793,vtsPrac,3,0,3,0,1,,,,,,,,,,,,,,,,,,,,,,,
295009,2022-12-05_13h21.27.395,vts_reward_expectancy_bt,2022.2.4,Win32,59.70862193,Chrome,1536,960,,,,,0,594,,,,,,,,,,,,,,,,,174,U,circle,1,0,,,3,,,,,,,,,,,,,switch,number,numSwt,f,0.429,vtsPrac,4,0,4,0,1,,,,,,,,,,,,,,,,,,,,,,,
295009,2022-12-05_13h21.27.395,vts_reward_expectancy_bt,2022.2.4,Win32,59.70862193,Chrome,1536,960,,,,,0,594,,,,,,,,,,,,,,,,,125,W,star,1,0,,,3,,,,,,,,,,,,,switch,letter,lettSwt,k,0.8276,vtsPrac,5,0,5,0,1,,,,,,,,,,,,,,,,,,,,,,,
295009,2022-12-05_13h21.27.395,vts_reward_expectancy_bt,2022.2.4,Win32,59.70862193,Chrome,1536,960,,,,,0,594,,,,,,,,,,,,,,,,,160,F,triangle,1,0,,,3,,,,,,,,,,,,,switch,number,numSwt,f,0.4149,vtsPrac,6,0,6,0,1,,,,,,,,,,,,,,,,,,,,,,,
295009,2022-12-05_13h21.27.395,vts_reward_expectancy_bt,2022.2.4,Win32,59.70862193,Chrome,1536,960,,,,,0,594,,,,,,,,,,,,,,,,,132,S,circle,1,0,,,3,,,,,,,,,,,,,switch,letter,lettSwt,k,1.0153,vtsPrac,7,0,7,0,1,,,,,,,,,,,,,,,,,,,,,,,
295009,2022-12-05_13h21.27.395,vts_reward_expectancy_bt,2022.2.4,Win32,59.70862193,Chrome,1536,960,,,,,0,594,,,,,,,,,,,,,,,,,181,F,triangle,1,0,,,3,,,,,,,,,,,,,repeat,letter,lettRpt,j,1.0837,vtsPrac,8,0,8,0,1,,,,,,,,,,,,,,,,,,,,,,,
295009,2022-12-05_13h21.27.395,vts_reward_expectancy_bt,2022.2.4,Win32,59.70862193,Chrome,1536,960,,,,,0,594,,,,,,,,,,,,,,,,,125,Y,circle,1,0,,,3,,,,,,,,,,,,,switch,number,numSwt,d,0.4813,vtsPrac,9,0,9,0,1,,,,,,,,,,,,,,,,,,,,,,,
295009,2022-12-05_13h21.27.395,vts_reward_expectancy_bt,2022.2.4,Win32,59.70862193,Chrome,1536,960,,,,,0,594,,,,,,,,,,,,,,,,,160,D,hexagon,1,0,,,3,,,,,,,,,,,,,switch,letter,lettSwt,j,0.6428,vtsPrac,10,0,10,0,1,,,,,,,,,,,,,,,,,,,,,,,
295009,2022-12-05_13h21.27.395,vts_reward_expectancy_bt,2022.2.4,Win32,59.70862193,Chrome,1536,960,,,,,0,594,,,,,,,,,,,,,,,,,174,W,triangle,1,0,,,3,,,,,,,,,,,,,switch,number,numSwt,f,0.5319,vtsPrac,11,0,11,0,1,,,,,,,,,,,,,,,,,,,,,,,
295009,2022-12-05_13h21.27.395,vts_reward_expectancy_bt,2022.2.4,Win32,59.70862193,Chrome,1536,960,,,,,0,594,,,,,,,,,,,,,,,,,181,D,star,1,0,,,3,,,,,,,,,,,,,switch,letter,lettSwt,j,0.5639,vtsPrac,12,0,12,0,1,,,,,,,,,,,,,,,,,,,,,,,
295009,2022-12-05_13h21.27.395,vts_reward_expectancy_bt,2022.2.4,Win32,59.70862193,Chrome,1536,960,,,,,0,594,,,,,,,,,,,,,,,,,146,B,triangle,1,0,,,3,,,,,,,,,,,,,switch,number,numSwt,d,0.5619,vtsPrac,13,0,13,0,1,,,,,,,,,,,,,,,,,,,,,,,
295009,2022-12-05_13h21.27.395,vts_reward_expectancy_bt,2022.2.4,Win32,59.70862193,Chrome,1536,960,,,,,0,594,,,,,,,,,,,,,,,,,160,S,circle,1,0,,,3,,,,,,,,,,,,,switch,letter,lettSwt,k,0.861,vtsPrac,14,0,14,0,1,,,,,,,,,,,,,,,,,,,,,,,
295009,2022-12-05_13h21.27.395,vts_reward_expectancy_bt,2022.2.4,Win32,59.70862193,Chrome,1536,960,,,,,0,594,,,,,,,,,,,,,,,,,125,U,hexagon,1,0,,,3,,,,,,,,,,,,,switch,number,numSwt,d,0.5319,vtsPrac,15,0,15,0,1,,,,,,,,,,,,,,,,,,,,,,,
295009,2022-12-05_13h21.27.395,vts_reward_expectancy_bt,2022.2.4,Win32,59.70862193,Chrome,1536,960,,,,,0,594,,,,,,,,,,,,,,,,,160,W,triangle,1,0,,,3,,,,,,,,,,,,,repeat,number,numRpt,f,0.781,vtsPrac,16,0,16,0,1,,,,,,,,,,,,,,,,,,,,,,,
295009,2022-12-05_13h21.27.395,vts_reward_expectancy_bt,2022.2.4,Win32,59.70862193,Chrome,1536,960,,,,,0,594,,,,,,,,,,,,,,,,,167,F,circle,1,0,,,3,,,,,,,,,,,,,switch,letter,lettSwt,j,0.7686,vtsPrac,17,0,17,0,1,,,,,,,,,,,,,,,,,,,,,,,
295009,2022-12-05_13h21.27.395,vts_reward_expectancy_bt,2022.2.4,Win32,59.70862193,Chrome,1536,960,,,,,0,594,,,,,,,,,,,,,,,,,181,Y,triangle,1,0,,,3,,,,,,,,,,,,,repeat,letter,lettRpt,k,0.6509,vtsPrac,18,0,18,0,1,,,,,,,,,,,,,,,,,,,,,,,
295009,2022-12-05_13h21.27.395,vts_reward_expectancy_bt,2022.2.4,Win32,59.70862193,Chrome,1536,960,,,,,0,594,,,,,,,,,,,,,,,,,125,H,star,1,0,,,3,,,,,,,,,,,,,switch,number,numSwt,d,0.5287,vtsPrac,19,0,19,0,1,,,,,,,,,,,,,,,,,,,,,,,
295009,2022-12-05_13h21.27.395,vts_reward_expectancy_bt,2022.2.4,Win32,59.70862193,Chrome,1536,960,,,,,0,594,,,,,,,,,,,,,,,,,139,B,star,1,0,,,3,,,,,,,,,,,,,repeat,number,numRpt,d,0.7489,vtsPrac,20,0,20,0,1,,,,,,,,,,,,,,,,,,,,,,,
295009,2022-12-05_13h21.27.395,vts_reward_expectancy_bt,2022.2.4,Win32,59.70862193,Chrome,1536,960,,,,,0,594,,,,,,,,,,,,,,,,,125,Y,hexagon,1,0,,,3,,,,,,,,,,,,,repeat,number,numRpt,d,0.4453,vtsPrac,21,0,21,0,1,,,,,,,,,,,,,,,,,,,,,,,
295009,2022-12-05_13h21.27.395,vts_reward_expectancy_bt,2022.2.4,Win32,59.70862193,Chrome,1536,960,,,,,0,594,,,,,,,,,,,,,,,,,174,D,triangle,1,0,,,3,,,,,,,,,,,,,switch,letter,lettSwt,j,0.5449,vtsPrac,22,0,22,0,1,,,,,,,,,,,,,,,,,,,,,,,
295009,2022-12-05_13h21.27.395,vts_reward_expectancy_bt,2022.2.4,Win32,59.70862193,Chrome,1536,960,,,,,0,594,,,,,,,,,,,,,,,,,132,F,hexagon,1,0,,,3,,,,,,,,,,,,,repeat,letter,lettRpt,j,0.6112,vtsPrac,23,0,23,0,1,,,,,,,,,,,,,,,,,,,,,,,
295009,2022-12-05_13h21.27.395,vts_reward_expectancy_bt,2022.2.4,Win32,59.70862193,Chrome,1536,960,,,,,0,594,,,,,,,,,,,,,,,,,174,Y,star,1,0,,,3,,,,,,,,,,,,,switch,number,numSwt,f,0.7859,vtsPrac,24,0,24,0,1,,,,,,,,,,,,,,,,,,,,,,,
295009,2022-12-05_13h21.27.395,vts_reward_expectancy_bt,2022.2.4,Win32,59.70862193,Chrome,1536,960,,,,,0,594,,,,,,,,,,,,,,,,,139,D,circle,1,0,,,3,,,,,,,,,,,,,repeat,number,numRpt,d,0.6997,vtsPrac,25,0,25,0,1,,,,,,,,,,,,,,,,,,,,,,,
295009,2022-12-05_13h21.27.395,vts_reward_expectancy_bt,2022.2.4,Win32,59.70862193,Chrome,1536,960,,,,,0,594,,,,,,,,,,,,,,,,,160,U,hexagon,1,0,,,3,,,,,,,,,,,,,repeat,number,numRpt,f,0.8365,vtsPrac,26,0,26,0,1,,,,,,,,,,,,,,,,,,,,,,,
295009,2022-12-05_13h21.27.395,vts_reward_expectancy_bt,2022.2.4,Win32,59.70862193,Chrome,1536,960,,,,,0,594,,,,,,,,,,,,,,,,,125,B,circle,1,0,,,3,,,,,,,,,,,,,repeat,number,numRpt,d,1.2656,vtsPrac,27,0,27,0,1,,,,,,,,,,,,,,,,,,,,,,,
295009,2022-12-05_13h21.27.395,vts_reward_expectancy_bt,2022.2.4,Win32,59.70862193,Chrome,1536,960,,,,,0,594,,,,,,,,,,,,,,,,,125,W,triangle,1,0,,,3,,,,,,,,,,,,,repeat,number,numRpt,d,1.0137,vtsPrac,28,0,28,0,1,,,,,,,,,,,,,,,,,,,,,,,
295009,2022-12-05_13h21.27.395,vts_reward_expectancy_bt,2022.2.4,Win32,59.70862193,Chrome,1536,960,,,,,0,594,,,,,,,,,,,,,,,,,174,Y,hexagon,1,0,,,3,,,,,,,,,,,,,switch,letter,lettSwt,k,1.2866,vtsPrac,29,0,29,0,1,,,,,,,,,,,,,,,,,,,,,,,
295009,2022-12-05_13h21.27.395,vts_reward_expectancy_bt,2022.2.4,Win32,59.70862193,Chrome,1536,960,,,,,0,594,,,,,,,,,,,,,,,,,146,H,circle,1,0,,,3,,,,,,,,,,,,,switch,number,numSwt,d,0.7129,vtsPrac,30,0,30,0,1,,,,,,,,,,,,,,,,,,,,,,,
295009,2022-12-05_13h21.27.395,vts_reward_expectancy_bt,2022.2.4,Win32,59.70862193,Chrome,1536,960,,,,,0,594,,,,,,,,,,,,,,,,,139,F,hexagon,1,0,,,3,,,,,,,,,,,,,switch,letter,lettSwt,j,1.0332,vtsPrac,31,0,31,0,1,,,,,,,,,,,,,,,,,,,,,,,
295009,2022-12-05_13h21.27.395,vts_reward_expectancy_bt,2022.2.4,Win32,59.70862193,Chrome,1536,960,,,,,,,,,,,,,,,,,,,,,,,,,,,,,,,,,,,,,,,,,,,,,,,,,,,,,,,,,,,,,,,,,,,,,,,,,,,,
295009,2022-12-05_13h21.27.395,vts_reward_expectancy_bt,2022.2.4,Win32,59.70862193,Chrome,1536,960,,,,,,,,,,,,,,,,,,,,,,,,,,,,,,,,,,,,,,,,,,,,,,,,,,,,,,,,,,,,,,,,,,,,,,,,,,,,
295009,2022-12-05_13h21.27.395,vts_reward_expectancy_bt,2022.2.4,Win32,59.70862193,Chrome,1536,960,,,,,0,594,,,,,,,,,,,,,,,,,139,U,circle,1,0,,,,,,,,,,,,,,,,switch,number,numSwt,d,0.9616,noRew,,,,,,0,0,0,0,0,1,,,,,,,,,,,,,,,,,
295009,2022-12-05_13h21.27.395,vts_reward_expectancy_bt,2022.2.4,Win32,59.70862193,Chrome,1536,960,,,,,0,594,,,,,,,,,,,,,,,,,146,W,hexagon,1,0,,,,,,,,,,,,,,,,repeat,number,numRpt,d,0.5152,noRew,,,,,,0,1,0,1,0,1,,,,,,,,,,,,,,,,,
295009,2022-12-05_13h21.27.395,vts_reward_expectancy_bt,2022.2.4,Win32,59.70862193,Chrome,1536,960,,,,,0,594,,,,,,,,,,,,,,,,,132,S,circle,1,0,,,,,,,,,,,,,,,,repeat,number,numRpt,d,0.4949,noRew,,,,,,0,2,0,2,0,1,,,,,,,,,,,,,,,,,
295009,2022-12-05_13h21.27.395,vts_reward_expectancy_bt,2022.2.4,Win32,59.70862193,Chrome,1536,960,,,,,0,594,,,,,,,,,,,,,,,,,125,F,hexagon,1,0,,,,,,,,,,,,,,,,repeat,number,numRpt,d,0.4811,noRew,,,,,,0,3,0,3,0,1,,,,,,,,,,,,,,,,,
295009,2022-12-05_13h21.27.395,vts_reward_expectancy_bt,2022.2.4,Win32,59.70862193,Chrome,1536,960,,,,,0,594,,,,,,,,,,,,,,,,,139,U,circle,1,0,,,,,,,,,,,,,,,,repeat,number,numRpt,d,0.4785,noRew,,,,,,0,4,0,4,0,1,,,,,,,,,,,,,,,,,
295009,2022-12-05_13h21.27.395,vts_reward_expectancy_bt,2022.2.4,Win32,59.70862193,Chrome,1536,960,,,,,0,594,,,,,,,,,,,,,,,,,146,W,star,1,0,,,,,,,,,,,,,,,,switch,letter,lettSwt,k,0.4804,noRew,,,,,,0,5,0,5,0,1,,,,,,,,,,,,,,,,,
295009,2022-12-05_13h21.27.395,vts_reward_expectancy_bt,2022.2.4,Win32,59.70862193,Chrome,1536,960,,,,,0,594,,,,,,,,,,,,,,,,,132,S,circle,1,0,,,,,,,,,,,,,,,,repeat,letter,lettRpt,k,0.5112,noRew,,,,,,0,6,0,6,0,1,,,,,,,,,,,,,,,,,
295009,2022-12-05_13h21.27.395,vts_reward_expectancy_bt,2022.2.4,Win32,59.70862193,Chrome,1536,960,,,,,0,594,,,,,,,,,,,,,,,,,125,F,triangle,1,0,,,,,,,,,,,,,,,,repeat,letter,lettRpt,j,0.4719,noRew,,,,,,0,7,0,7,0,1,,,,,,,,,,,,,,,,,
295009,2022-12-05_13h21.27.395,vts_reward_expectancy_bt,2022.2.4,Win32,59.70862193,Chrome,1536,960,,,,,0,594,,,,,,,,,,,,,,,,,125,B,hexagon,1,0,,,,,,,,,,,,,,,,repeat,letter,lettRpt,j,0.6024,noRew,,,,,,0,8,0,8,0,1,,,,,,,,,,,,,,,,,
295009,2022-12-05_13h21.27.395,vts_reward_expectancy_bt,2022.2.4,Win32,59.70862193,Chrome,1536,960,,,,,0,594,,,,,,,,,,,,,,,,,146,H,star,1,0,,,,,,,,,,,,,,,,repeat,letter,lettRpt,j,0.5172,noRew,,,,,,0,9,0,9,0,1,,,,,,,,,,,,,,,,,
295009,2022-12-05_13h21.27.395,vts_reward_expectancy_bt,2022.2.4,Win32,59.70862193,Chrome,1536,960,,,,,0,594,,,,,,,,,,,,,,,,,139,F,triangle,1,0,,,,,,,,,,,,,,,,repeat,letter,lettRpt,j,0.4863,noRew,,,,,,0,10,0,10,0,1,,,,,,,,,,,,,,,,,
295009,2022-12-05_13h21.27.395,vts_reward_expectancy_bt,2022.2.4,Win32,59.70862193,Chrome,1536,960,,,,,0,594,,,,,,,,,,,,,,,,,181,D,circle,1,0,,,,,,,,,,,,,,,,switch,number,numSwt,f,1.1178,noRew,,,,,,0,11,0,11,0,1,,,,,,,,,,,,,,,,,
295009,2022-12-05_13h21.27.395,vts_reward_expectancy_bt,2022.2.4,Win32,59.70862193,Chrome,1536,960,,,,,0,594,,,,,,,,,,,,,,,,,125,Y,circle,1,0,,,,,,,,,,,,,,,,repeat,number,numRpt,d,0.5316,noRew,,,,,,0,12,0,12,0,1,,,,,,,,,,,,,,,,,
295009,2022-12-05_13h21.27.395,vts_reward_expectancy_bt,2022.2.4,Win32,59.70862193,Chrome,1536,960,,,,,0,594,,,,,,,,,,,,,,,,,160,F,star,1,0,,,,,,,,,,,,,,,,repeat,number,numRpt,f,1.2298,noRew,,,,,,0,13,0,13,0,1,,,,,,,,,,,,,,,,,
295009,2022-12-05_13h21.27.395,vts_reward_expectancy_bt,2022.2.4,Win32,59.70862193,Chrome,1536,960,,,,,0,594,,,,,,,,,,,,,,,,,181,W,circle,1,0,,,,,,,,,,,,,,,,repeat,number,numRpt,f,0.6774,noRew,,,,,,0,14,0,14,0,1,,,,,,,,,,,,,,,,,
295009,2022-12-05_13h21.27.395,vts_reward_expectancy_bt,2022.2.4,Win32,59.70862193,Chrome,1536,960,,,,,0,594,,,,,,,,,,,,,,,,,132,D,triangle,1,0,,,,,,,,,,,,,,,,repeat,number,numRpt,d,0.6061,noRew,,,,,,0,15,0,15,0,1,,,,,,,,,,,,,,,,,
295009,2022-12-05_13h21.27.395,vts_reward_expectancy_bt,2022.2.4,Win32,59.70862193,Chrome,1536,960,,,,,0,594,,,,,,,,,,,,,,,,,125,S,triangle,1,0,,,,,,,,,,,,,,,,repeat,number,numRpt,d,0.5303,noRew,,,,,,0,16,0,16,0,1,,,,,,,,,,,,,,,,,
295009,2022-12-05_13h21.27.395,vts_reward_expectancy_bt,2022.2.4,Win32,59.70862193,Chrome,1536,960,,,,,0,594,,,,,,,,,,,,,,,,,167,U,hexagon,1,0,,,,,,,,,,,,,,,,repeat,number,numRpt,f,0.6309,noRew,,,,,,0,17,0,17,0,1,,,,,,,,,,,,,,,,,
295009,2022-12-05_13h21.27.395,vts_reward_expectancy_bt,2022.2.4,Win32,59.70862193,Chrome,1536,960,,,,,0,594,,,,,,,,,,,,,,,,,174,Y,triangle,1,0,,,,,,,,,,,,,,,,repeat,number,numRpt,f,0.6786,noRew,,,,,,0,18,0,18,0,1,,,,,,,,,,,,,,,,,
295009,2022-12-05_13h21.27.395,vts_reward_expectancy_bt,2022.2.4,Win32,59.70862193,Chrome,1536,960,,,,,0,594,,,,,,,,,,,,,,,,,160,F,circle,1,0,,,,,,,,,,,,,,,,switch,letter,lettSwt,j,0.6598,noRew,,,,,,0,19,0,19,0,1,,,,,,,,,,,,,,,,,
295009,2022-12-05_13h21.27.395,vts_reward_expectancy_bt,2022.2.4,Win32,59.70862193,Chrome,1536,960,,,,,0,594,,,,,,,,,,,,,,,,,181,U,star,1,0,,,,,,,,,,,,,,,,switch,number,numSwt,f,0.7283,noRew,,,,,,0,20,0,20,0,1,,,,,,,,,,,,,,,,,
295009,2022-12-05_13h21.27.395,vts_reward_expectancy_bt,2022.2.4,Win32,59.70862193,Chrome,1536,960,,,,,0,594,,,,,,,,,,,,,,,,,167,F,hexagon,1,0,,,,,,,,,,,,,,,,repeat,number,numRpt,f,0.4113,noRew,,,,,,0,21,0,21,0,1,,,,,,,,,,,,,,,,,
295009,2022-12-05_13h21.27.395,vts_reward_expectancy_bt,2022.2.4,Win32,59.70862193,Chrome,1536,960,,,,,0,594,,,,,,,,,,,,,,,,,139,B,circle,1,0,,,,,,,,,,,,,,,,repeat,number,numRpt,d,0.5349,noRew,,,,,,0,22,0,22,0,1,,,,,,,,,,,,,,,,,
295009,2022-12-05_13h21.27.395,vts_reward_expectancy_bt,2022.2.4,Win32,59.70862193,Chrome,1536,960,,,,,0,594,,,,,,,,,,,,,,,,,125,Y,star,1,0,,,,,,,,,,,,,,,,repeat,number,numRpt,d,0.4644,noRew,,,,,,0,23,0,23,0,1,,,,,,,,,,,,,,,,,
295009,2022-12-05_13h21.27.395,vts_reward_expectancy_bt,2022.2.4,Win32,59.70862193,Chrome,1536,960,,,,,0,594,,,,,,,,,,,,,,,,,181,U,star,1,0,,,,,,,,,,,,,,,,switch,letter,lettSwt,k,0.5857,noRew,,,,,,0,24,0,24,0,1,,,,,,,,,,,,,,,,,
295009,2022-12-05_13h21.27.395,vts_reward_expectancy_bt,2022.2.4,Win32,59.70862193,Chrome,1536,960,,,,,0,594,,,,,,,,,,,,,,,,,146,B,triangle,1,0,,,,,,,,,,,,,,,,repeat,letter,lettRpt,j,0.9779,noRew,,,,,,0,25,0,25,0,1,,,,,,,,,,,,,,,,,
295009,2022-12-05_13h21.27.395,vts_reward_expectancy_bt,2022.2.4,Win32,59.70862193,Chrome,1536,960,,,,,0,594,,,,,,,,,,,,,,,,,139,Y,star,1,0,,,,,,,,,,,,,,,,repeat,letter,lettRpt,k,0.5173,noRew,,,,,,0,26,0,26,0,1,,,,,,,,,,,,,,,,,
295009,2022-12-05_13h21.27.395,vts_reward_expectancy_bt,2022.2.4,Win32,59.70862193,Chrome,1536,960,,,,,0,594,,,,,,,,,,,,,,,,,125,F,hexagon,1,0,,,,,,,,,,,,,,,,repeat,letter,lettRpt,j,0.364,noRew,,,,,,0,27,0,27,0,1,,,,,,,,,,,,,,,,,
295009,2022-12-05_13h21.27.395,vts_reward_expectancy_bt,2022.2.4,Win32,59.70862193,Chrome,1536,960,,,,,0,594,,,,,,,,,,,,,,,,,160,F,triangle,1,0,,,,,,,,,,,,,,,,repeat,letter,lettRpt,j,0.4867,noRew,,,,,,0,28,0,28,0,1,,,,,,,,,,,,,,,,,
295009,2022-12-05_13h21.27.395,vts_reward_expectancy_bt,2022.2.4,Win32,59.70862193,Chrome,1536,960,,,,,0,594,,,,,,,,,,,,,,,,,174,Y,hexagon,1,0,,,,,,,,,,,,,,,,repeat,letter,lettRpt,k,1.4479,noRew,,,,,,0,29,0,29,0,1,,,,,,,,,,,,,,,,,
295009,2022-12-05_13h21.27.395,vts_reward_expectancy_bt,2022.2.4,Win32,59.70862193,Chrome,1536,960,,,,,0,594,,,,,,,,,,,,,,,,,132,D,circle,1,0,,,,,,,,,,,,,,,,switch,number,numSwt,d,0.5967,noRew,,,,,,0,30,0,30,0,1,,,,,,,,,,,,,,,,,
295009,2022-12-05_13h21.27.395,vts_reward_expectancy_bt,2022.2.4,Win32,59.70862193,Chrome,1536,960,,,,,0,594,,,,,,,,,,,,,,,,,139,H,hexagon,1,0,,,,,,,,,,,,,,,,switch,letter,lettSwt,j,1.5389,noRew,,,,,,0,31,0,31,0,1,,,,,,,,,,,,,,,,,
295009,2022-12-05_13h21.27.395,vts_reward_expectancy_bt,2022.2.4,Win32,59.70862193,Chrome,1536,960,,,,,0,594,,,,,,,,,,,,,,,,,181,B,hexagon,1,0,,,,,,,,,,,,,,,,repeat,letter,lettRpt,j,1.4496,noRew,,,,,,0,32,0,32,0,1,,,,,,,,,,,,,,,,,
295009,2022-12-05_13h21.27.395,vts_reward_expectancy_bt,2022.2.4,Win32,59.70862193,Chrome,1536,960,,,,,0,594,,,,,,,,,,,,,,,,,146,W,star,1,0,,,,,,,,,,,,,,,,repeat,letter,lettRpt,k,1.2303,noRew,,,,,,0,33,0,33,0,1,,,,,,,,,,,,,,,,,
295009,2022-12-05_13h21.27.395,vts_reward_expectancy_bt,2022.2.4,Win32,59.70862193,Chrome,1536,960,,,,,0,594,,,,,,,,,,,,,,,,,160,F,star,1,0,,,,,,,,,,,,,,,,switch,number,numSwt,f,2.9325,noRew,,,,,,0,34,0,34,0,1,,,,,,,,,,,,,,,,,
295009,2022-12-05_13h21.27.395,vts_reward_expectancy_bt,2022.2.4,Win32,59.70862193,Chrome,1536,960,,,,,0,594,,,,,,,,,,,,,,,,,125,Y,triangle,1,0,,,,,,,,,,,,,,,,switch,letter,lettSwt,k,1.061,noRew,,,,,,0,35,0,35,0,1,,,,,,,,,,,,,,,,,
295009,2022-12-05_13h21.27.395,vts_reward_expectancy_bt,2022.2.4,Win32,59.70862193,Chrome,1536,960,,,,,0,594,,,,,,,,,,,,,,,,,181,Y,triangle,1,0,,,,,,,,,,,,,,,,repeat,letter,lettRpt,k,0.8173,noRew,,,,,,0,36,0,36,0,1,,,,,,,,,,,,,,,,,
295009,2022-12-05_13h21.27.395,vts_reward_expectancy_bt,2022.2.4,Win32,59.70862193,Chrome,1536,960,,,,,0,594,,,,,,,,,,,,,,,,,125,F,star,1,0,,,,,,,,,,,,,,,,switch,number,numSwt,d,2.4137,noRew,,,,,,0,37,0,37,0,1,,,,,,,,,,,,,,,,,
295009,2022-12-05_13h21.27.395,vts_reward_expectancy_bt,2022.2.4,Win32,59.70862193,Chrome,1536,960,,,,,0,594,,,,,,,,,,,,,,,,,160,D,hexagon,1,0,,,,,,,,,,,,,,,,switch,letter,lettSwt,j,0.8167,noRew,,,,,,0,38,0,38,0,1,,,,,,,,,,,,,,,,,
295009,2022-12-05_13h21.27.395,vts_reward_expectancy_bt,2022.2.4,Win32,59.70862193,Chrome,1536,960,,,,,0,594,,,,,,,,,,,,,,,,,174,S,star,1,0,,,,,,,,,,,,,,,,switch,number,numSwt,f,0.9787,noRew,,,,,,0,39,0,39,0,1,,,,,,,,,,,,,,,,,
295009,2022-12-05_13h21.27.395,vts_reward_expectancy_bt,2022.2.4,Win32,59.70862193,Chrome,1536,960,,,,,0,594,,,,,,,,,,,,,,,,,139,H,star,1,0,,,,,,,,,,,,,,,,repeat,number,numRpt,d,1.4956,noRew,,,,,,0,40,0,40,0,1,,,,,,,,,,,,,,,,,
295009,2022-12-05_13h21.27.395,vts_reward_expectancy_bt,2022.2.4,Win32,59.70862193,Chrome,1536,960,,,,,0,594,,,,,,,,,,,,,,,,,146,U,triangle,0,0,,,,,,,,,,,,,,,,repeat,number,NA,f,0.96,noRew,,,,,,0,41,0,41,0,1,,,,,,,,,,,,,,,,,
295009,2022-12-05_13h21.27.395,vts_reward_expectancy_bt,2022.2.4,Win32,59.70862193,Chrome,1536,960,,,,,0,594,,,,,,,,,,,,,,,,,181,S,triangle,1,1,,,,,,,,,,,,,,,,repeat,number,numRpt,f,0.9847,noRew,,,,,,0,42,0,42,0,1,,,,,,,,,,,,,,,,,
295009,2022-12-05_13h21.27.395,vts_reward_expectancy_bt,2022.2.4,Win32,59.70862193,Chrome,1536,960,,,,,0,594,,,,,,,,,,,,,,,,,132,F,star,1,0,,,,,,,,,,,,,,,,repeat,number,numRpt,d,0.9144,noRew,,,,,,0,43,0,43,0,1,,,,,,,,,,,,,,,,,
295009,2022-12-05_13h21.27.395,vts_reward_expectancy_bt,2022.2.4,Win32,59.70862193,Chrome,1536,960,,,,,0,594,,,,,,,,,,,,,,,,,132,W,triangle,1,0,,,,,,,,,,,,,,,,repeat,number,numRpt,d,0.7677,noRew,,,,,,0,44,0,44,0,1,,,,,,,,,,,,,,,,,
295009,2022-12-05_13h21.27.395,vts_reward_expectancy_bt,2022.2.4,Win32,59.70862193,Chrome,1536,960,,,,,0,594,,,,,,,,,,,,,,,,,167,F,star,1,0,,,,,,,,,,,,,,,,repeat,number,numRpt,f,1.3177,noRew,,,,,,0,45,0,45,0,1,,,,,,,,,,,,,,,,,
295009,2022-12-05_13h21.27.395,vts_reward_expectancy_bt,2022.2.4,Win32,59.70862193,Chrome,1536,960,,,,,0,594,,,,,,,,,,,,,,,,,146,S,triangle,1,0,,,,,,,,,,,,,,,,repeat,number,numRpt,d,1.3848,noRew,,,,,,0,46,0,46,0,1,,,,,,,,,,,,,,,,,
295009,2022-12-05_13h21.27.395,vts_reward_expectancy_bt,2022.2.4,Win32,59.70862193,Chrome,1536,960,,,,,0,594,,,,,,,,,,,,,,,,,174,U,star,1,0,,,,,,,,,,,,,,,,repeat,number,numRpt,f,0.8558,noRew,,,,,,0,47,0,47,0,1,,,,,,,,,,,,,,,,,
295009,2022-12-05_13h21.27.395,vts_reward_expectancy_bt,2022.2.4,Win32,59.70862193,Chrome,1536,960,,,,,0,594,,,,,,,,,,,,,,,,,160,Y,circle,1,0,,,,,,,,,,,,,,,,switch,letter,lettSwt,k,2.4675,noRew,,,,,,0,48,0,48,0,1,,,,,,,,,,,,,,,,,
295009,2022-12-05_13h21.27.395,vts_reward_expectancy_bt,2022.2.4,Win32,59.70862193,Chrome,1536,960,,,,,0,594,,,,,,,,,,,,,,,,,146,W,hexagon,1,0,,,,,,,,,,,,,,,,switch,number,numSwt,d,0.7175,noRew,,,,,,0,49,0,49,0,1,,,,,,,,,,,,,,,,,
295009,2022-12-05_13h21.27.395,vts_reward_expectancy_bt,2022.2.4,Win32,59.70862193,Chrome,1536,960,,,,,0,594,,,,,,,,,,,,,,,,,132,F,circle,1,0,,,,,,,,,,,,,,,,switch,letter,lettSwt,j,0.8916,noRew,,,,,,0,50,0,50,0,1,,,,,,,,,,,,,,,,,
295009,2022-12-05_13h21.27.395,vts_reward_expectancy_bt,2022.2.4,Win32,59.70862193,Chrome,1536,960,,,,,0,594,,,,,,,,,,,,,,,,,125,D,triangle,1,0,,,,,,,,,,,,,,,,switch,number,numSwt,d,2.5218,noRew,,,,,,0,51,0,51,0,1,,,,,,,,,,,,,,,,,
295009,2022-12-05_13h21.27.395,vts_reward_expectancy_bt,2022.2.4,Win32,59.70862193,Chrome,1536,960,,,,,0,594,,,,,,,,,,,,,,,,,132,S,star,1,0,,,,,,,,,,,,,,,,switch,letter,lettSwt,k,0.8881,noRew,,,,,,0,52,0,52,0,1,,,,,,,,,,,,,,,,,
295009,2022-12-05_13h21.27.395,vts_reward_expectancy_bt,2022.2.4,Win32,59.70862193,Chrome,1536,960,,,,,0,594,,,,,,,,,,,,,,,,,174,Y,hexagon,1,0,,,,,,,,,,,,,,,,switch,number,numSwt,f,1.2087,noRew,,,,,,0,53,0,53,0,1,,,,,,,,,,,,,,,,,
295009,2022-12-05_13h21.27.395,vts_reward_expectancy_bt,2022.2.4,Win32,59.70862193,Chrome,1536,960,,,,,0,594,,,,,,,,,,,,,,,,,167,H,triangle,1,0,,,,,,,,,,,,,,,,switch,letter,lettSwt,j,1.1676,noRew,,,,,,0,54,0,54,0,1,,,,,,,,,,,,,,,,,
295009,2022-12-05_13h21.27.395,vts_reward_expectancy_bt,2022.2.4,Win32,59.70862193,Chrome,1536,960,,,,,0,594,,,,,,,,,,,,,,,,,146,U,hexagon,1,0,,,,,,,,,,,,,,,,switch,number,numSwt,d,0.8675,noRew,,,,,,0,55,0,55,0,1,,,,,,,,,,,,,,,,,
295009,2022-12-05_13h21.27.395,vts_reward_expectancy_bt,2022.2.4,Win32,59.70862193,Chrome,1536,960,,,,,0,594,,,,,,,,,,,,,,,,,160,D,circle,1,0,,,,,,,,,,,,,,,,switch,letter,lettSwt,j,0.7685,noRew,,,,,,0,56,0,56,0,1,,,,,,,,,,,,,,,,,
295009,2022-12-05_13h21.27.395,vts_reward_expectancy_bt,2022.2.4,Win32,59.70862193,Chrome,1536,960,,,,,0,594,,,,,,,,,,,,,,,,,146,S,hexagon,1,0,,,,,,,,,,,,,,,,switch,number,numSwt,d,2.2495,noRew,,,,,,0,57,0,57,0,1,,,,,,,,,,,,,,,,,
295009,2022-12-05_13h21.27.395,vts_reward_expectancy_bt,2022.2.4,Win32,59.70862193,Chrome,1536,960,,,,,0,594,,,,,,,,,,,,,,,,,174,U,hexagon,1,0,,,,,,,,,,,,,,,,repeat,number,numRpt,f,0.7688,noRew,,,,,,0,58,0,58,0,1,,,,,,,,,,,,,,,,,
295009,2022-12-05_13h21.27.395,vts_reward_expectancy_bt,2022.2.4,Win32,59.70862193,Chrome,1536,960,,,,,0,594,,,,,,,,,,,,,,,,,181,F,star,1,0,,,,,,,,,,,,,,,,repeat,number,numRpt,f,0.7354,noRew,,,,,,0,59,0,59,0,1,,,,,,,,,,,,,,,,,
295009,2022-12-05_13h21.27.395,vts_reward_expectancy_bt,2022.2.4,Win32,59.70862193,Chrome,1536,960,,,,,0,594,,,,,,,,,,,,,,,,,125,U,triangle,1,0,,,,,,,,,,,,,,,,repeat,number,numRpt,d,0.7902,noRew,,,,,,0,60,0,60,0,1,,,,,,,,,,,,,,,,,
295009,2022-12-05_13h21.27.395,vts_reward_expectancy_bt,2022.2.4,Win32,59.70862193,Chrome,1536,960,,,,,0,594,,,,,,,,,,,,,,,,,139,Y,star,1,0,,,,,,,,,,,,,,,,switch,letter,lettSwt,k,1.1186,noRew,,,,,,0,61,0,61,0,1,,,,,,,,,,,,,,,,,
295009,2022-12-05_13h21.27.395,vts_reward_expectancy_bt,2022.2.4,Win32,59.70862193,Chrome,1536,960,,,,,0,594,,,,,,,,,,,,,,,,,160,F,circle,1,0,,,,,,,,,,,,,,,,switch,number,numSwt,f,1.4331,noRew,,,,,,0,62,0,62,0,1,,,,,,,,,,,,,,,,,
295009,2022-12-05_13h21.27.395,vts_reward_expectancy_bt,2022.2.4,Win32,59.70862193,Chrome,1536,960,,,,,0,594,,,,,,,,,,,,,,,,,146,W,triangle,1,0,,,,,,,,,,,,,,,,repeat,number,numRpt,d,0.933,noRew,,,,,,0,63,0,63,0,1,,,,,,,,,,,,,,,,,
295009,2022-12-05_13h21.27.395,vts_reward_expectancy_bt,2022.2.4,Win32,59.70862193,Chrome,1536,960,,,,,,,,,,,,,,,,,,,,,,,,,,,,,,,,,,,,,,,,,,,,,,,,,,,,,,,,,,,,,,,,,,,,,,,,,,,,
295009,2022-12-05_13h21.27.395,vts_reward_expectancy_bt,2022.2.4,Win32,59.70862193,Chrome,1536,960,,,,,1,595,,,,,,,,,,,,,,,,,146,S,triangle,1,0,,,,,,,,,,,,,,,,repeat,number,numRpt,d,1.7574,Lo,,,,,,0,,,,,,space,4.4365,high,0,0,0,0,1,,,,,,,,,
295009,2022-12-05_13h21.27.395,vts_reward_expectancy_bt,2022.2.4,Win32,59.70862193,Chrome,1536,960,,,,,0,595,,,,,,,,,,,,,,,,,132,U,hexagon,1,0,,,,,,,,,,,,,,,,repeat,number,numRpt,d,0.6389,Hi,,,,,,0,,,,,,,,high,1,0,1,0,1,,,,,,,,,
295009,2022-12-05_13h21.27.395,vts_reward_expectancy_bt,2022.2.4,Win32,59.70862193,Chrome,1536,960,,,,,1,596,,,,,,,,,,,,,,,,,139,H,star,1,0,,,,,,,,,,,,,,,,switch,letter,lettSwt,j,0.6371,Lo,,,,,,0,,,,,,,,high,2,0,2,0,1,,,,,,,,,
295009,2022-12-05_13h21.27.395,vts_reward_expectancy_bt,2022.2.4,Win32,59.70862193,Chrome,1536,960,,,,,1,597,,,,,,,,,,,,,,,,,167,Y,circle,1,0,,,,,,,,,,,,,,,,switch,number,numSwt,f,0.5579,Hi,,,,,,0,,,,,,,,high,3,0,3,0,1,,,,,,,,,
295009,2022-12-05_13h21.27.395,vts_reward_expectancy_bt,2022.2.4,Win32,59.70862193,Chrome,1536,960,,,,,1,598,,,,,,,,,,,,,,,,,174,W,triangle,1,0,,,,,,,,,,,,,,,,repeat,number,numRpt,f,0.6026,Lo,,,,,,0,,,,,,,,high,4,0,4,0,1,,,,,,,,,
295009,2022-12-05_13h21.27.395,vts_reward_expectancy_bt,2022.2.4,Win32,59.70862193,Chrome,1536,960,,,,,10,608,,,,,,,,,,,,,,,,,160,D,hexagon,1,0,,,,,,,,,,,,,,,,switch,letter,lettSwt,j,0.4682,Hi,,,,,,0,,,,,,,,high,5,0,5,0,1,,,,,,,,,
295009,2022-12-05_13h21.27.395,vts_reward_expectancy_bt,2022.2.4,Win32,59.70862193,Chrome,1536,960,,,,,0,608,,,,,,,,,,,,,,,,,181,F,star,0,0,,,,,,,,,,,,,,,,repeat,letter,NA,k,0.9852,Hi,,,,,,0,,,,,,,,high,6,0,6,0,1,,,,,,,,,
295009,2022-12-05_13h21.27.395,vts_reward_expectancy_bt,2022.2.4,Win32,59.70862193,Chrome,1536,960,,,,,10,618,,,,,,,,,,,,,,,,,125,B,circle,1,1,,,,,,,,,,,,,,,,switch,number,numSwt,d,0.7006,Hi,,,,,,0,,,,,,,,high,7,0,7,0,1,,,,,,,,,
295009,2022-12-05_13h21.27.395,vts_reward_expectancy_bt,2022.2.4,Win32,59.70862193,Chrome,1536,960,,,,,1,619,,,,,,,,,,,,,,,,,146,S,star,1,0,,,,,,,,,,,,,,,,repeat,number,numRpt,d,0.6684,Lo,,,,,,0,,,,,,,,high,8,0,8,0,1,,,,,,,,,
295009,2022-12-05_13h21.27.395,vts_reward_expectancy_bt,2022.2.4,Win32,59.70862193,Chrome,1536,960,,,,,0,619,,,,,,,,,,,,,,,,,132,U,hexagon,1,0,,,,,,,,,,,,,,,,repeat,number,numRpt,d,1.2851,Hi,,,,,,0,,,,,,,,high,9,0,9,0,1,,,,,,,,,
295009,2022-12-05_13h21.27.395,vts_reward_expectancy_bt,2022.2.4,Win32,59.70862193,Chrome,1536,960,,,,,0,619,,,,,,,,,,,,,,,,,139,H,circle,1,0,,,,,,,,,,,,,,,,repeat,number,numRpt,d,1.0186,Hi,,,,,,0,,,,,,,,high,10,0,10,0,1,,,,,,,,,
295009,2022-12-05_13h21.27.395,vts_reward_expectancy_bt,2022.2.4,Win32,59.70862193,Chrome,1536,960,,,,,10,629,,,,,,,,,,,,,,,,,167,Y,triangle,1,0,,,,,,,,,,,,,,,,repeat,number,numRpt,f,0.4554,Lo,,,,,,0,,,,,,,,high,11,0,11,0,1,,,,,,,,,
295009,2022-12-05_13h21.27.395,vts_reward_expectancy_bt,2022.2.4,Win32,59.70862193,Chrome,1536,960,,,,,0,629,,,,,,,,,,,,,,,,,174,W,circle,1,0,,,,,,,,,,,,,,,,repeat,number,numRpt,f,1.1985,Hi,,,,,,0,,,,,,,,high,12,0,12,0,1,,,,,,,,,
295009,2022-12-05_13h21.27.395,vts_reward_expectancy_bt,2022.2.4,Win32,59.70862193,Chrome,1536,960,,,,,0,629,,,,,,,,,,,,,,,,,160,D,triangle,0,0,,,,,,,,,,,,,,,,switch,letter,NA,k,1.0687,Hi,,,,,,0,,,,,,,,high,13,0,13,0,1,,,,,,,,,
295009,2022-12-05_13h21.27.395,vts_reward_expectancy_bt,2022.2.4,Win32,59.70862193,Chrome,1536,960,,,,,1,630,,,,,,,,,,,,,,,,,181,F,star,1,1,,,,,,,,,,,,,,,,switch,number,numSwt,f,0.8671,Lo,,,,,,0,,,,,,,,high,14,0,14,0,1,,,,,,,,,
295009,2022-12-05_13h21.27.395,vts_reward_expectancy_bt,2022.2.4,Win32,59.70862193,Chrome,1536,960,,,,,0,630,,,,,,,,,,,,,,,,,125,B,hexagon,1,0,,,,,,,,,,,,,,,,repeat,number,numRpt,d,0.6356,Hi,,,,,,0,,,,,,,,high,15,0,15,0,1,,,,,,,,,
295009,2022-12-05_13h21.27.395,vts_reward_expectancy_bt,2022.2.4,Win32,59.70862193,Chrome,1536,960,,,,,0,630,,,,,,,,,,,,,,,,,139,S,hexagon,1,0,,,,,,,,,,,,,,,,repeat,number,numRpt,d,0.7643,Hi,,,,,,0,,,,,,,,high,16,0,16,0,1,,,,,,,,,
295009,2022-12-05_13h21.27.395,vts_reward_expectancy_bt,2022.2.4,Win32,59.70862193,Chrome,1536,960,,,,,10,640,,,,,,,,,,,,,,,,,181,F,triangle,1,0,,,,,,,,,,,,,,,,switch,letter,lettSwt,j,0.7485,Lo,,,,,,0,,,,,,,,high,17,0,17,0,1,,,,,,,,,
295009,2022-12-05_13h21.27.395,vts_reward_expectancy_bt,2022.2.4,Win32,59.70862193,Chrome,1536,960,,,,,0,640,,,,,,,,,,,,,,,,,174,Y,circle,1,0,,,,,,,,,,,,,,,,repeat,letter,lettRpt,k,0.6148,Hi,,,,,,0,,,,,,,,high,18,0,18,0,1,,,,,,,,,
295009,2022-12-05_13h21.27.395,vts_reward_expectancy_bt,2022.2.4,Win32,59.70862193,Chrome,1536,960,,,,,1,641,,,,,,,,,,,,,,,,,132,W,star,1,0,,,,,,,,,,,,,,,,switch,number,numSwt,d,1.1691,Lo,,,,,,0,,,,,,,,high,19,0,19,0,1,,,,,,,,,
295009,2022-12-05_13h21.27.395,vts_reward_expectancy_bt,2022.2.4,Win32,59.70862193,Chrome,1536,960,,,,,0,641,,,,,,,,,,,,,,,,,146,B,circle,1,0,,,,,,,,,,,,,,,,repeat,number,numRpt,d,0.9353,Hi,,,,,,0,,,,,,,,high,20,0,20,0,1,,,,,,,,,
295009,2022-12-05_13h21.27.395,vts_reward_expectancy_bt,2022.2.4,Win32,59.70862193,Chrome,1536,960,,,,,0,641,,,,,,,,,,,,,,,,,160,D,hexagon,1,0,,,,,,,,,,,,,,,,repeat,number,numRpt,f,1.1014,Hi,,,,,,0,,,,,,,,high,21,0,21,0,1,,,,,,,,,
295009,2022-12-05_13h21.27.395,vts_reward_expectancy_bt,2022.2.4,Win32,59.70862193,Chrome,1536,960,,,,,1,642,,,,,,,,,,,,,,,,,125,H,star,1,0,,,,,,,,,,,,,,,,switch,letter,lettSwt,j,0.6127,Lo,,,,,,0,,,,,,,,high,22,0,22,0,1,,,,,,,,,
295009,2022-12-05_13h21.27.395,vts_reward_expectancy_bt,2022.2.4,Win32,59.70862193,Chrome,1536,960,,,,,1,643,,,,,,,,,,,,,,,,,167,U,triangle,1,0,,,,,,,,,,,,,,,,switch,number,numSwt,f,0.4957,Lo,,,,,,0,,,,,,,,high,23,0,23,0,1,,,,,,,,,
295009,2022-12-05_13h21.27.395,vts_reward_expectancy_bt,2022.2.4,Win32,59.70862193,Chrome,1536,960,,,,,10,653,,,,,,,,,,,,,,,,,181,W,circle,1,0,,,,,,,,,,,,,,,,switch,letter,lettSwt,k,0.5547,Hi,,,,,,0,,,,,,,,high,24,0,24,0,1,,,,,,,,,
295009,2022-12-05_13h21.27.395,vts_reward_expectancy_bt,2022.2.4,Win32,59.70862193,Chrome,1536,960,,,,,10,663,,,,,,,,,,,,,,,,,174,F,hexagon,1,0,,,,,,,,,,,,,,,,switch,number,numSwt,f,0.6871,Hi,,,,,,0,,,,,,,,high,25,0,25,0,1,,,,,,,,,
295009,2022-12-05_13h21.27.395,vts_reward_expectancy_bt,2022.2.4,Win32,59.70862193,Chrome,1536,960,,,,,1,664,,,,,,,,,,,,,,,,,125,H,star,1,0,,,,,,,,,,,,,,,,switch,letter,lettSwt,j,0.87,Lo,,,,,,0,,,,,,,,high,26,0,26,0,1,,,,,,,,,
295009,2022-12-05_13h21.27.395,vts_reward_expectancy_bt,2022.2.4,Win32,59.70862193,Chrome,1536,960,,,,,1,665,,,,,,,,,,,,,,,,,160,B,triangle,1,0,,,,,,,,,,,,,,,,switch,number,numSwt,f,0.4034,Lo,,,,,,0,,,,,,,,high,27,0,27,0,1,,,,,,,,,
295009,2022-12-05_13h21.27.395,vts_reward_expectancy_bt,2022.2.4,Win32,59.70862193,Chrome,1536,960,,,,,1,666,,,,,,,,,,,,,,,,,139,U,star,1,0,,,,,,,,,,,,,,,,switch,letter,lettSwt,k,0.5308,Lo,,,,,,0,,,,,,,,high,28,0,28,0,1,,,,,,,,,
295009,2022-12-05_13h21.27.395,vts_reward_expectancy_bt,2022.2.4,Win32,59.70862193,Chrome,1536,960,,,,,10,676,,,,,,,,,,,,,,,,,132,S,circle,1,0,,,,,,,,,,,,,,,,switch,number,numSwt,d,0.7334,Hi,,,,,,0,,,,,,,,high,29,0,29,0,1,,,,,,,,,
295009,2022-12-05_13h21.27.395,vts_reward_expectancy_bt,2022.2.4,Win32,59.70862193,Chrome,1536,960,,,,,1,677,,,,,,,,,,,,,,,,,146,Y,triangle,1,0,,,,,,,,,,,,,,,,repeat,number,numRpt,d,0.5461,Lo,,,,,,0,,,,,,,,high,30,0,30,0,1,,,,,,,,,
295009,2022-12-05_13h21.27.395,vts_reward_expectancy_bt,2022.2.4,Win32,59.70862193,Chrome,1536,960,,,,,0,677,,,,,,,,,,,,,,,,,167,D,hexagon,0,0,,,,,,,,,,,,,,,,switch,letter,NA,k,0.3692,Lo,,,,,,0,,,,,,,,high,31,0,31,0,1,,,,,,,,,
295009,2022-12-05_13h21.27.395,vts_reward_expectancy_bt,2022.2.4,Win32,59.70862193,Chrome,1536,960,,,,,1,678,,,,,,,,,,,,,,,,,167,Y,star,1,1,,,,,,,,,,,,,,,,switch,number,numSwt,f,1.431,Lo,,,,,,1,,,,,,space,2.3893,high,0,0,0,0,1,,,,,,,,,
295009,2022-12-05_13h21.27.395,vts_reward_expectancy_bt,2022.2.4,Win32,59.70862193,Chrome,1536,960,,,,,1,679,,,,,,,,,,,,,,,,,181,U,triangle,1,0,,,,,,,,,,,,,,,,repeat,number,numRpt,f,0.7351,Lo,,,,,,1,,,,,,,,high,1,0,1,0,1,,,,,,,,,
295009,2022-12-05_13h21.27.395,vts_reward_expectancy_bt,2022.2.4,Win32,59.70862193,Chrome,1536,960,,,,,0,679,,,,,,,,,,,,,,,,,146,W,circle,1,0,,,,,,,,,,,,,,,,switch,letter,lettSwt,k,0.6158,Hi,,,,,,1,,,,,,,,high,2,0,2,0,1,,,,,,,,,
295009,2022-12-05_13h21.27.395,vts_reward_expectancy_bt,2022.2.4,Win32,59.70862193,Chrome,1536,960,,,,,1,680,,,,,,,,,,,,,,,,,132,S,hexagon,1,0,,,,,,,,,,,,,,,,repeat,letter,lettRpt,k,0.5806,Hi,,,,,,1,,,,,,,,high,3,0,3,0,1,,,,,,,,,
295009,2022-12-05_13h21.27.395,vts_reward_expectancy_bt,2022.2.4,Win32,59.70862193,Chrome,1536,960,,,,,10,690,,,,,,,,,,,,,,,,,160,B,star,1,0,,,,,,,,,,,,,,,,repeat,letter,lettRpt,j,0.5956,Lo,,,,,,1,,,,,,,,high,4,0,4,0,1,,,,,,,,,
295009,2022-12-05_13h21.27.395,vts_reward_expectancy_bt,2022.2.4,Win32,59.70862193,Chrome,1536,960,,,,,0,690,,,,,,,,,,,,,,,,,174,F,triangle,0,0,,,,,,,,,,,,,,,,switch,number,NA,d,0.3738,Lo,,,,,,1,,,,,,,,high,5,0,5,0,1,,,,,,,,,
295009,2022-12-05_13h21.27.395,vts_reward_expectancy_bt,2022.2.4,Win32,59.70862193,Chrome,1536,960,,,,,10,700,,,,,,,,,,,,,,,,,139,H,circle,1,1,,,,,,,,,,,,,,,,repeat,number,numRpt,d,0.6139,Hi,,,,,,1,,,,,,,,high,6,0,6,0,1,,,,,,,,,
295009,2022-12-05_13h21.27.395,vts_reward_expectancy_bt,2022.2.4,Win32,59.70862193,Chrome,1536,960,,,,,0,700,,,,,,,,,,,,,,,,,125,D,hexagon,1,0,,,,,,,,,,,,,,,,switch,letter,lettSwt,j,0.5632,Hi,,,,,,1,,,,,,,,high,7,0,7,0,1,,,,,,,,,
295009,2022-12-05_13h21.27.395,vts_reward_expectancy_bt,2022.2.4,Win32,59.70862193,Chrome,1536,960,,,,,0,700,,,,,,,,,,,,,,,,,167,Y,hexagon,1,0,,,,,,,,,,,,,,,,switch,number,numSwt,f,0.6452,Hi,,,,,,1,,,,,,,,high,8,0,8,0,1,,,,,,,,,
295009,2022-12-05_13h21.27.395,vts_reward_expectancy_bt,2022.2.4,Win32,59.70862193,Chrome,1536,960,,,,,1,701,,,,,,,,,,,,,,,,,181,U,star,1,0,,,,,,,,,,,,,,,,repeat,number,numRpt,f,0.663,Lo,,,,,,1,,,,,,,,high,9,0,9,0,1,,,,,,,,,
295009,2022-12-05_13h21.27.395,vts_reward_expectancy_bt,2022.2.4,Win32,59.70862193,Chrome,1536,960,,,,,1,702,,,,,,,,,,,,,,,,,146,W,circle,1,0,,,,,,,,,,,,,,,,switch,letter,lettSwt,k,0.5227,Hi,,,,,,1,,,,,,,,high,10,0,10,0,1,,,,,,,,,
295009,2022-12-05_13h21.27.395,vts_reward_expectancy_bt,2022.2.4,Win32,59.70862193,Chrome,1536,960,,,,,1,703,,,,,,,,,,,,,,,,,132,S,triangle,1,0,,,,,,,,,,,,,,,,repeat,letter,lettRpt,k,0.5979,Lo,,,,,,1,,,,,,,,high,11,0,11,0,1,,,,,,,,,
295009,2022-12-05_13h21.27.395,vts_reward_expectancy_bt,2022.2.4,Win32,59.70862193,Chrome,1536,960,,,,,1,704,,,,,,,,,,,,,,,,,160,B,star,1,0,,,,,,,,,,,,,,,,switch,number,numSwt,f,0.7321,Lo,,,,,,1,,,,,,,,high,12,0,12,0,1,,,,,,,,,
295009,2022-12-05_13h21.27.395,vts_reward_expectancy_bt,2022.2.4,Win32,59.70862193,Chrome,1536,960,,,,,0,704,,,,,,,,,,,,,,,,,174,F,hexagon,1,0,,,,,,,,,,,,,,,,repeat,number,numRpt,f,0.8363,Hi,,,,,,1,,,,,,,,high,13,0,13,0,1,,,,,,,,,
295009,2022-12-05_13h21.27.395,vts_reward_expectancy_bt,2022.2.4,Win32,59.70862193,Chrome,1536,960,,,,,0,704,,,,,,,,,,,,,,,,,139,H,triangle,0,0,,,,,,,,,,,,,,,,repeat,number,NA,f,0.7164,Hi,,,,,,1,,,,,,,,high,14,0,14,0,1,,,,,,,,,
295009,2022-12-05_13h21.27.395,vts_reward_expectancy_bt,2022.2.4,Win32,59.70862193,Chrome,1536,960,,,,,0,704,,,,,,,,,,,,,,,,,125,D,circle,1,1,,,,,,,,,,,,,,,,repeat,number,numRpt,d,0.8629,Hi,,,,,,1,,,,,,,,high,15,0,15,0,1,,,,,,,,,
295009,2022-12-05_13h21.27.395,vts_reward_expectancy_bt,2022.2.4,Win32,59.70862193,Chrome,1536,960,,,,,0,704,,,,,,,,,,,,,,,,,132,B,hexagon,0,0,,,,,,,,,,,,,,,,repeat,number,NA,f,0.4478,Hi,,,,,,1,,,,,,,,high,16,0,16,0,1,,,,,,,,,
295009,2022-12-05_13h21.27.395,vts_reward_expectancy_bt,2022.2.4,Win32,59.70862193,Chrome,1536,960,,,,,1,705,,,,,,,,,,,,,,,,,181,F,star,1,1,,,,,,,,,,,,,,,,repeat,number,numRpt,f,0.4487,Lo,,,,,,1,,,,,,,,high,17,0,17,0,1,,,,,,,,,
295009,2022-12-05_13h21.27.395,vts_reward_expectancy_bt,2022.2.4,Win32,59.70862193,Chrome,1536,960,,,,,1,706,,,,,,,,,,,,,,,,,160,Y,triangle,1,0,,,,,,,,,,,,,,,,switch,letter,lettSwt,k,0.485,Lo,,,,,,1,,,,,,,,high,18,0,18,0,1,,,,,,,,,
295009,2022-12-05_13h21.27.395,vts_reward_expectancy_bt,2022.2.4,Win32,59.70862193,Chrome,1536,960,,,,,10,716,,,,,,,,,,,,,,,,,174,U,circle,1,0,,,,,,,,,,,,,,,,repeat,letter,lettRpt,k,0.5153,Hi,,,,,,1,,,,,,,,high,19,0,19,0,1,,,,,,,,,
295009,2022-12-05_13h21.27.395,vts_reward_expectancy_bt,2022.2.4,Win32,59.70862193,Chrome,1536,960,,,,,0,716,,,,,,,,,,,,,,,,,167,D,triangle,0,0,,,,,,,,,,,,,,,,switch,number,NA,d,0.8661,Hi,,,,,,1,,,,,,,,high,20,0,20,0,1,,,,,,,,,
295009,2022-12-05_13h21.27.395,vts_reward_expectancy_bt,2022.2.4,Win32,59.70862193,Chrome,1536,960,,,,,0,716,,,,,,,,,,,,,,,,,146,S,hexagon,1,1,,,,,,,,,,,,,,,,repeat,number,numRpt,d,0.8143,Hi,,,,,,1,,,,,,,,high,21,0,21,0,1,,,,,,,,,
295009,2022-12-05_13h21.27.395,vts_reward_expectancy_bt,2022.2.4,Win32,59.70862193,Chrome,1536,960,,,,,0,716,,,,,,,,,,,,,,,,,139,H,star,0,0,,,,,,,,,,,,,,,,switch,letter,NA,k,0.503,Hi,,,,,,1,,,,,,,,high,22,0,22,0,1,,,,,,,,,
295009,2022-12-05_13h21.27.395,vts_reward_expectancy_bt,2022.2.4,Win32,59.70862193,Chrome,1536,960,,,,,0,716,,,,,,,,,,,,,,,,,125,W,circle,1,1,,,,,,,,,,,,,,,,switch,number,numSwt,d,0.7153,Hi,,,,,,1,,,,,,,,high,23,0,23,0,1,,,,,,,,,
295009,2022-12-05_13h21.27.395,vts_reward_expectancy_bt,2022.2.4,Win32,59.70862193,Chrome,1536,960,,,,,1,717,,,,,,,,,,,,,,,,,132,F,hexagon,1,0,,,,,,,,,,,,,,,,repeat,number,numRpt,d,0.3872,Hi,,,,,,1,,,,,,,,high,24,0,24,0,1,,,,,,,,,
295009,2022-12-05_13h21.27.395,vts_reward_expectancy_bt,2022.2.4,Win32,59.70862193,Chrome,1536,960,,,,,10,727,,,,,,,,,,,,,,,,,181,Y,triangle,1,0,,,,,,,,,,,,,,,,repeat,number,numRpt,f,0.4802,Lo,,,,,,1,,,,,,,,high,25,0,25,0,1,,,,,,,,,
295009,2022-12-05_13h21.27.395,vts_reward_expectancy_bt,2022.2.4,Win32,59.70862193,Chrome,1536,960,,,,,10,737,,,,,,,,,,,,,,,,,146,S,circle,1,0,,,,,,,,,,,,,,,,switch,letter,lettSwt,k,0.4814,Hi,,,,,,1,,,,,,,,high,26,0,26,0,1,,,,,,,,,
295009,2022-12-05_13h21.27.395,vts_reward_expectancy_bt,2022.2.4,Win32,59.70862193,Chrome,1536,960,,,,,1,738,,,,,,,,,,,,,,,,,139,W,star,1,0,,,,,,,,,,,,,,,,switch,number,numSwt,d,2.2182,Lo,,,,,,1,,,,,,,,high,27,0,27,0,1,,,,,,,,,
295009,2022-12-05_13h21.27.395,vts_reward_expectancy_bt,2022.2.4,Win32,59.70862193,Chrome,1536,960,,,,,10,748,,,,,,,,,,,,,,,,,167,D,star,1,0,,,,,,,,,,,,,,,,repeat,number,numRpt,f,0.8803,Lo,,,,,,1,,,,,,,,high,28,0,28,0,1,,,,,,,,,
295009,2022-12-05_13h21.27.395,vts_reward_expectancy_bt,2022.2.4,Win32,59.70862193,Chrome,1536,960,,,,,1,749,,,,,,,,,,,,,,,,,125,H,triangle,1,0,,,,,,,,,,,,,,,,repeat,number,numRpt,d,0.6534,Lo,,,,,,1,,,,,,,,high,29,0,29,0,1,,,,,,,,,
295009,2022-12-05_13h21.27.395,vts_reward_expectancy_bt,2022.2.4,Win32,59.70862193,Chrome,1536,960,,,,,0,749,,,,,,,,,,,,,,,,,174,U,circle,1,0,,,,,,,,,,,,,,,,repeat,number,numRpt,f,0.7166,Hi,,,,,,1,,,,,,,,high,30,0,30,0,1,,,,,,,,,
295009,2022-12-05_13h21.27.395,vts_reward_expectancy_bt,2022.2.4,Win32,59.70862193,Chrome,1536,960,,,,,0,749,,,,,,,,,,,,,,,,,160,B,hexagon,1,0,,,,,,,,,,,,,,,,repeat,number,numRpt,f,0.7674,Hi,,,,,,1,,,,,,,,high,31,0,31,0,1,,,,,,,,,
295009,2022-12-05_13h21.27.395,vts_reward_expectancy_bt,2022.2.4,Win32,59.70862193,Chrome,1536,960,,,,,0,749,,,,,,,,,,,,,,,,,160,F,circle,1,0,,,,,,,,,,,,,,,,repeat,number,numRpt,f,0.7232,Hi,,,,,,2,,,,,,space,4.0102,high,0,0,0,0,1,,,,,,,,,
295009,2022-12-05_13h21.27.395,vts_reward_expectancy_bt,2022.2.4,Win32,59.70862193,Chrome,1536,960,,,,,1,750,,,,,,,,,,,,,,,,,174,S,triangle,1,0,,,,,,,,,,,,,,,,repeat,number,numRpt,f,0.6226,Lo,,,,,,2,,,,,,,,high,1,0,1,0,1,,,,,,,,,
295009,2022-12-05_13h21.27.395,vts_reward_expectancy_bt,2022.2.4,Win32,59.70862193,Chrome,1536,960,,,,,1,751,,,,,,,,,,,,,,,,,181,W,star,1,0,,,,,,,,,,,,,,,,repeat,number,numRpt,f,0.5045,Lo,,,,,,2,,,,,,,,high,2,0,2,0,1,,,,,,,,,
295009,2022-12-05_13h21.27.395,vts_reward_expectancy_bt,2022.2.4,Win32,59.70862193,Chrome,1536,960,,,,,1,752,,,,,,,,,,,,,,,,,125,H,hexagon,1,0,,,,,,,,,,,,,,,,repeat,number,numRpt,d,0.5075,Hi,,,,,,2,,,,,,,,high,3,0,3,0,1,,,,,,,,,
295009,2022-12-05_13h21.27.395,vts_reward_expectancy_bt,2022.2.4,Win32,59.70862193,Chrome,1536,960,,,,,10,762,,,,,,,,,,,,,,,,,139,U,circle,1,0,,,,,,,,,,,,,,,,repeat,number,numRpt,d,0.5223,Hi,,,,,,2,,,,,,,,high,4,0,4,0,1,,,,,,,,,
295009,2022-12-05_13h21.27.395,vts_reward_expectancy_bt,2022.2.4,Win32,59.70862193,Chrome,1536,960,,,,,0,762,,,,,,,,,,,,,,,,,167,B,triangle,0,0,,,,,,,,,,,,,,,,repeat,number,NA,d,0.4868,Hi,,,,,,2,,,,,,,,high,5,0,5,0,1,,,,,,,,,
295009,2022-12-05_13h21.27.395,vts_reward_expectancy_bt,2022.2.4,Win32,59.70862193,Chrome,1536,960,,,,,10,772,,,,,,,,,,,,,,,,,132,Y,star,1,1,,,,,,,,,,,,,,,,switch,letter,lettSwt,k,0.5554,Lo,,,,,,2,,,,,,,,high,6,0,6,0,1,,,,,,,,,
295009,2022-12-05_13h21.27.395,vts_reward_expectancy_bt,2022.2.4,Win32,59.70862193,Chrome,1536,960,,,,,0,772,,,,,,,,,,,,,,,,,146,D,hexagon,0,0,,,,,,,,,,,,,,,,switch,number,NA,f,0.5364,Lo,,,,,,2,,,,,,,,high,7,0,7,0,1,,,,,,,,,
295009,2022-12-05_13h21.27.395,vts_reward_expectancy_bt,2022.2.4,Win32,59.70862193,Chrome,1536,960,,,,,0,772,,,,,,,,,,,,,,,,,160,F,circle,0,1,,,,,,,,,,,,,,,,switch,letter,NA,k,0.6321,Lo,,,,,,2,,,,,,,,high,8,0,8,0,1,,,,,,,,,
295009,2022-12-05_13h21.27.395,vts_reward_expectancy_bt,2022.2.4,Win32,59.70862193,Chrome,1536,960,,,,,10,782,,,,,,,,,,,,,,,,,174,S,hexagon,1,1,,,,,,,,,,,,,,,,switch,number,numSwt,f,0.6244,Hi,,,,,,2,,,,,,,,high,9,0,9,0,1,,,,,,,,,
295009,2022-12-05_13h21.27.395,vts_reward_expectancy_bt,2022.2.4,Win32,59.70862193,Chrome,1536,960,,,,,1,783,,,,,,,,,,,,,,,,,181,W,star,1,0,,,,,,,,,,,,,,,,repeat,number,numRpt,f,1.2546,Lo,,,,,,2,,,,,,,,high,10,0,10,0,1,,,,,,,,,
295009,2022-12-05_13h21.27.395,vts_reward_expectancy_bt,2022.2.4,Win32,59.70862193,Chrome,1536,960,,,,,10,793,,,,,,,,,,,,,,,,,125,H,triangle,1,0,,,,,,,,,,,,,,,,repeat,number,numRpt,d,0.5508,Lo,,,,,,2,,,,,,,,high,11,0,11,0,1,,,,,,,,,
295009,2022-12-05_13h21.27.395,vts_reward_expectancy_bt,2022.2.4,Win32,59.70862193,Chrome,1536,960,,,,,0,793,,,,,,,,,,,,,,,,,139,U,circle,1,0,,,,,,,,,,,,,,,,switch,letter,lettSwt,k,0.616,Hi,,,,,,2,,,,,,,,high,12,0,12,0,1,,,,,,,,,
295009,2022-12-05_13h21.27.395,vts_reward_expectancy_bt,2022.2.4,Win32,59.70862193,Chrome,1536,960,,,,,10,803,,,,,,,,,,,,,,,,,167,B,triangle,1,0,,,,,,,,,,,,,,,,switch,number,numSwt,f,1.1279,Lo,,,,,,2,,,,,,,,high,13,0,13,0,1,,,,,,,,,
295009,2022-12-05_13h21.27.395,vts_reward_expectancy_bt,2022.2.4,Win32,59.70862193,Chrome,1536,960,,,,,10,813,,,,,,,,,,,,,,,,,132,Y,star,1,0,,,,,,,,,,,,,,,,repeat,number,numRpt,d,0.7382,Lo,,,,,,2,,,,,,,,high,14,0,14,0,1,,,,,,,,,
295009,2022-12-05_13h21.27.395,vts_reward_expectancy_bt,2022.2.4,Win32,59.70862193,Chrome,1536,960,,,,,0,813,,,,,,,,,,,,,,,,,146,D,hexagon,1,0,,,,,,,,,,,,,,,,switch,letter,lettSwt,j,0.6144,Hi,,,,,,2,,,,,,,,high,15,0,15,0,1,,,,,,,,,
295009,2022-12-05_13h21.27.395,vts_reward_expectancy_bt,2022.2.4,Win32,59.70862193,Chrome,1536,960,,,,,1,814,,,,,,,,,,,,,,,,,146,S,star,1,0,,,,,,,,,,,,,,,,repeat,letter,lettRpt,k,0.6751,Lo,,,,,,2,,,,,,,,high,16,0,16,0,1,,,,,,,,,
295009,2022-12-05_13h21.27.395,vts_reward_expectancy_bt,2022.2.4,Win32,59.70862193,Chrome,1536,960,,,,,0,814,,,,,,,,,,,,,,,,,132,B,hexagon,1,0,,,,,,,,,,,,,,,,repeat,letter,lettRpt,j,0.599,Hi,,,,,,2,,,,,,,,high,17,0,17,0,1,,,,,,,,,
295009,2022-12-05_13h21.27.395,vts_reward_expectancy_bt,2022.2.4,Win32,59.70862193,Chrome,1536,960,,,,,10,824,,,,,,,,,,,,,,,,,125,F,triangle,1,0,,,,,,,,,,,,,,,,switch,number,numSwt,d,0.5666,Lo,,,,,,2,,,,,,,,high,18,0,18,0,1,,,,,,,,,
295009,2022-12-05_13h21.27.395,vts_reward_expectancy_bt,2022.2.4,Win32,59.70862193,Chrome,1536,960,,,,,0,824,,,,,,,,,,,,,,,,,160,U,circle,0,0,,,,,,,,,,,,,,,,repeat,number,NA,d,0.5486,Lo,,,,,,2,,,,,,,,high,19,0,19,0,1,,,,,,,,,
295009,2022-12-05_13h21.27.395,vts_reward_expectancy_bt,2022.2.4,Win32,59.70862193,Chrome,1536,960,,,,,1,825,,,,,,,,,,,,,,,,,139,W,hexagon,1,1,,,,,,,,,,,,,,,,repeat,number,numRpt,d,0.5501,Hi,,,,,,2,,,,,,,,high,20,0,20,0,1,,,,,,,,,
295009,2022-12-05_13h21.27.395,vts_reward_expectancy_bt,2022.2.4,Win32,59.70862193,Chrome,1536,960,,,,,1,826,,,,,,,,,,,,,,,,,174,H,circle,1,0,,,,,,,,,,,,,,,,repeat,number,numRpt,f,0.4803,Hi,,,,,,2,,,,,,,,high,21,0,21,0,1,,,,,,,,,
295009,2022-12-05_13h21.27.395,vts_reward_expectancy_bt,2022.2.4,Win32,59.70862193,Chrome,1536,960,,,,,1,827,,,,,,,,,,,,,,,,,167,D,star,1,0,,,,,,,,,,,,,,,,repeat,number,numRpt,f,0.5979,Lo,,,,,,2,,,,,,,,high,22,0,22,0,1,,,,,,,,,
295009,2022-12-05_13h21.27.395,vts_reward_expectancy_bt,2022.2.4,Win32,59.70862193,Chrome,1536,960,,,,,10,837,,,,,,,,,,,,,,,,,181,Y,triangle,1,0,,,,,,,,,,,,,,,,repeat,number,numRpt,f,0.6315,Lo,,,,,,2,,,,,,,,high,23,0,23,0,1,,,,,,,,,
295009,2022-12-05_13h21.27.395,vts_reward_expectancy_bt,2022.2.4,Win32,59.70862193,Chrome,1536,960,,,,,10,847,,,,,,,,,,,,,,,,,160,S,hexagon,1,0,,,,,,,,,,,,,,,,repeat,number,numRpt,f,0.6306,Hi,,,,,,2,,,,,,,,high,24,0,24,0,1,,,,,,,,,
295009,2022-12-05_13h21.27.395,vts_reward_expectancy_bt,2022.2.4,Win32,59.70862193,Chrome,1536,960,,,,,1,848,,,,,,,,,,,,,,,,,139,D,triangle,1,0,,,,,,,,,,,,,,,,repeat,number,numRpt,d,0.4964,Lo,,,,,,2,,,,,,,,high,25,0,25,0,1,,,,,,,,,
295009,2022-12-05_13h21.27.395,vts_reward_expectancy_bt,2022.2.4,Win32,59.70862193,Chrome,1536,960,,,,,1,849,,,,,,,,,,,,,,,,,174,U,circle,1,0,,,,,,,,,,,,,,,,repeat,number,numRpt,f,0.4785,Hi,,,,,,2,,,,,,,,high,26,0,26,0,1,,,,,,,,,
295009,2022-12-05_13h21.27.395,vts_reward_expectancy_bt,2022.2.4,Win32,59.70862193,Chrome,1536,960,,,,,0,849,,,,,,,,,,,,,,,,,146,H,star,0,0,,,,,,,,,,,,,,,,repeat,number,NA,f,0.6216,Hi,,,,,,2,,,,,,,,high,27,0,27,0,1,,,,,,,,,
295009,2022-12-05_13h21.27.395,vts_reward_expectancy_bt,2022.2.4,Win32,59.70862193,Chrome,1536,960,,,,,1,850,,,,,,,,,,,,,,,,,167,B,triangle,1,1,,,,,,,,,,,,,,,,repeat,number,numRpt,f,0.5627,Lo,,,,,,2,,,,,,,,high,28,0,28,0,1,,,,,,,,,
295009,2022-12-05_13h21.27.395,vts_reward_expectancy_bt,2022.2.4,Win32,59.70862193,Chrome,1536,960,,,,,10,860,,,,,,,,,,,,,,,,,132,W,star,1,0,,,,,,,,,,,,,,,,repeat,number,numRpt,d,0.6298,Lo,,,,,,2,,,,,,,,high,29,0,29,0,1,,,,,,,,,
295009,2022-12-05_13h21.27.395,vts_reward_expectancy_bt,2022.2.4,Win32,59.70862193,Chrome,1536,960,,,,,10,870,,,,,,,,,,,,,,,,,125,F,circle,1,0,,,,,,,,,,,,,,,,repeat,number,numRpt,d,0.5133,Hi,,,,,,2,,,,,,,,high,30,0,30,0,1,,,,,,,,,
295009,2022-12-05_13h21.27.395,vts_reward_expectancy_bt,2022.2.4,Win32,59.70862193,Chrome,1536,960,,,,,0,870,,,,,,,,,,,,,,,,,181,Y,hexagon,1,0,,,,,,,,,,,,,,,,switch,letter,lettSwt,k,0.5205,Hi,,,,,,2,,,,,,,,high,31,0,31,0,1,,,,,,,,,
295009,2022-12-05_13h21.27.395,vts_reward_expectancy_bt,2022.2.4,Win32,59.70862193,Chrome,1536,960,,,,,0,870,,,,,,,,,,,,,,,,,181,B,circle,0,0,,,,,,,,,,,,,,,,repeat,letter,NA,k,0.8325,Hi,,,,,,3,,,,,,space,1.0763,high,0,0,0,0,1,,,,,,,,,
295009,2022-12-05_13h21.27.395,vts_reward_expectancy_bt,2022.2.4,Win32,59.70862193,Chrome,1536,960,,,,,10,880,,,,,,,,,,,,,,,,,125,W,hexagon,1,1,,,,,,,,,,,,,,,,switch,number,numSwt,d,0.3654,Hi,,,,,,3,,,,,,,,high,1,0,1,0,1,,,,,,,,,
295009,2022-12-05_13h21.27.395,vts_reward_expectancy_bt,2022.2.4,Win32,59.70862193,Chrome,1536,960,,,,,1,881,,,,,,,,,,,,,,,,,146,H,triangle,1,0,,,,,,,,,,,,,,,,repeat,number,numRpt,d,0.5461,Lo,,,,,,3,,,,,,,,high,2,0,2,0,1,,,,,,,,,
295009,2022-12-05_13h21.27.395,vts_reward_expectancy_bt,2022.2.4,Win32,59.70862193,Chrome,1536,960,,,,,1,882,,,,,,,,,,,,,,,,,132,D,star,1,0,,,,,,,,,,,,,,,,repeat,number,numRpt,d,0.4196,Lo,,,,,,3,,,,,,,,high,3,0,3,0,1,,,,,,,,,
295009,2022-12-05_13h21.27.395,vts_reward_expectancy_bt,2022.2.4,Win32,59.70862193,Chrome,1536,960,,,,,10,892,,,,,,,,,,,,,,,,,174,U,circle,1,0,,,,,,,,,,,,,,,,switch,letter,lettSwt,k,0.4962,Hi,,,,,,3,,,,,,,,high,4,0,4,0,1,,,,,,,,,
295009,2022-12-05_13h21.27.395,vts_reward_expectancy_bt,2022.2.4,Win32,59.70862193,Chrome,1536,960,,,,,10,902,,,,,,,,,,,,,,,,,167,Y,hexagon,1,0,,,,,,,,,,,,,,,,switch,number,numSwt,f,0.4954,Hi,,,,,,3,,,,,,,,high,5,0,5,0,1,,,,,,,,,
295009,2022-12-05_13h21.27.395,vts_reward_expectancy_bt,2022.2.4,Win32,59.70862193,Chrome,1536,960,,,,,10,912,,,,,,,,,,,,,,,,,139,S,triangle,1,0,,,,,,,,,,,,,,,,switch,letter,lettSwt,k,0.447,Lo,,,,,,3,,,,,,,,high,6,0,6,0,1,,,,,,,,,
295009,2022-12-05_13h21.27.395,vts_reward_expectancy_bt,2022.2.4,Win32,59.70862193,Chrome,1536,960,,,,,1,913,,,,,,,,,,,,,,,,,160,F,star,1,0,,,,,,,,,,,,,,,,switch,number,numSwt,f,0.4145,Lo,,,,,,3,,,,,,,,high,7,0,7,0,1,,,,,,,,,
295009,2022-12-05_13h21.27.395,vts_reward_expectancy_bt,2022.2.4,Win32,59.70862193,Chrome,1536,960,,,,,0,913,,,,,,,,,,,,,,,,,181,B,hexagon,0,0,,,,,,,,,,,,,,,,repeat,number,NA,d,0.5341,Lo,,,,,,3,,,,,,,,high,8,0,8,0,1,,,,,,,,,
295009,2022-12-05_13h21.27.395,vts_reward_expectancy_bt,2022.2.4,Win32,59.70862193,Chrome,1536,960,,,,,0,913,,,,,,,,,,,,,,,,,125,W,circle,1,1,,,,,,,,,,,,,,,,repeat,number,numRpt,d,0.5835,Hi,,,,,,3,,,,,,,,high,9,0,9,0,1,,,,,,,,,
295009,2022-12-05_13h21.27.395,vts_reward_expectancy_bt,2022.2.4,Win32,59.70862193,Chrome,1536,960,,,,,1,914,,,,,,,,,,,,,,,,,146,H,triangle,1,0,,,,,,,,,,,,,,,,repeat,number,numRpt,d,0.6143,Lo,,,,,,3,,,,,,,,high,10,0,10,0,1,,,,,,,,,
295009,2022-12-05_13h21.27.395,vts_reward_expectancy_bt,2022.2.4,Win32,59.70862193,Chrome,1536,960,,,,,1,915,,,,,,,,,,,,,,,,,132,D,star,1,0,,,,,,,,,,,,,,,,repeat,number,numRpt,d,0.5625,Lo,,,,,,3,,,,,,,,high,11,0,11,0,1,,,,,,,,,
295009,2022-12-05_13h21.27.395,vts_reward_expectancy_bt,2022.2.4,Win32,59.70862193,Chrome,1536,960,,,,,0,915,,,,,,,,,,,,,,,,,174,U,circle,1,0,,,,,,,,,,,,,,,,switch,letter,lettSwt,k,0.6805,Hi,,,,,,3,,,,,,,,high,12,0,12,0,1,,,,,,,,,
295009,2022-12-05_13h21.27.395,vts_reward_expectancy_bt,2022.2.4,Win32,59.70862193,Chrome,1536,960,,,,,0,915,,,,,,,,,,,,,,,,,167,Y,triangle,0,0,,,,,,,,,,,,,,,,switch,number,NA,d,0.5299,Hi,,,,,,3,,,,,,,,high,13,0,13,0,1,,,,,,,,,
295009,2022-12-05_13h21.27.395,vts_reward_expectancy_bt,2022.2.4,Win32,59.70862193,Chrome,1536,960,,,,,10,925,,,,,,,,,,,,,,,,,139,S,hexagon,1,1,,,,,,,,,,,,,,,,repeat,number,numRpt,d,0.4301,Hi,,,,,,3,,,,,,,,high,14,0,14,0,1,,,,,,,,,
295009,2022-12-05_13h21.27.395,vts_reward_expectancy_bt,2022.2.4,Win32,59.70862193,Chrome,1536,960,,,,,10,935,,,,,,,,,,,,,,,,,160,F,star,1,0,,,,,,,,,,,,,,,,switch,letter,lettSwt,j,0.5469,Lo,,,,,,3,,,,,,,,high,15,0,15,0,1,,,,,,,,,
295009,2022-12-05_13h21.27.395,vts_reward_expectancy_bt,2022.2.4,Win32,59.70862193,Chrome,1536,960,,,,,0,935,,,,,,,,,,,,,,,,,146,S,circle,1,0,,,,,,,,,,,,,,,,switch,number,numSwt,d,0.7482,Hi,,,,,,3,,,,,,,,high,16,0,16,0,1,,,,,,,,,
295009,2022-12-05_13h21.27.395,vts_reward_expectancy_bt,2022.2.4,Win32,59.70862193,Chrome,1536,960,,,,,1,936,,,,,,,,,,,,,,,,,160,F,triangle,1,0,,,,,,,,,,,,,,,,switch,letter,lettSwt,j,0.7465,Lo,,,,,,3,,,,,,,,high,17,0,17,0,1,,,,,,,,,
295009,2022-12-05_13h21.27.395,vts_reward_expectancy_bt,2022.2.4,Win32,59.70862193,Chrome,1536,960,,,,,1,937,,,,,,,,,,,,,,,,,139,D,star,1,0,,,,,,,,,,,,,,,,repeat,letter,lettRpt,j,0.5546,Lo,,,,,,3,,,,,,,,high,18,0,18,0,1,,,,,,,,,
295009,2022-12-05_13h21.27.395,vts_reward_expectancy_bt,2022.2.4,Win32,59.70862193,Chrome,1536,960,,,,,0,937,,,,,,,,,,,,,,,,,181,W,hexagon,1,0,,,,,,,,,,,,,,,,switch,number,numSwt,f,0.7503,Hi,,,,,,3,,,,,,,,high,19,0,19,0,1,,,,,,,,,
295009,2022-12-05_13h21.27.395,vts_reward_expectancy_bt,2022.2.4,Win32,59.70862193,Chrome,1536,960,,,,,1,938,,,,,,,,,,,,,,,,,132,H,triangle,1,0,,,,,,,,,,,,,,,,switch,letter,lettSwt,j,0.5286,Lo,,,,,,3,,,,,,,,high,20,0,20,0,1,,,,,,,,,
295009,2022-12-05_13h21.27.395,vts_reward_expectancy_bt,2022.2.4,Win32,59.70862193,Chrome,1536,960,,,,,10,948,,,,,,,,,,,,,,,,,125,Y,star,1,0,,,,,,,,,,,,,,,,switch,number,numSwt,d,0.8623,Lo,,,,,,3,,,,,,,,high,21,0,21,0,1,,,,,,,,,
295009,2022-12-05_13h21.27.395,vts_reward_expectancy_bt,2022.2.4,Win32,59.70862193,Chrome,1536,960,,,,,0,948,,,,,,,,,,,,,,,,,174,U,hexagon,1,0,,,,,,,,,,,,,,,,repeat,number,numRpt,f,0.7112,Hi,,,,,,3,,,,,,,,high,22,0,22,0,1,,,,,,,,,
295009,2022-12-05_13h21.27.395,vts_reward_expectancy_bt,2022.2.4,Win32,59.70862193,Chrome,1536,960,,,,,0,948,,,,,,,,,,,,,,,,,167,B,circle,0,0,,,,,,,,,,,,,,,,repeat,number,NA,d,0.6782,Hi,,,,,,3,,,,,,,,high,23,0,23,0,1,,,,,,,,,
295009,2022-12-05_13h21.27.395,vts_reward_expectancy_bt,2022.2.4,Win32,59.70862193,Chrome,1536,960,,,,,0,948,,,,,,,,,,,,,,,,,174,W,hexagon,1,1,,,,,,,,,,,,,,,,repeat,number,numRpt,f,0.9464,Hi,,,,,,3,,,,,,,,high,24,0,24,0,1,,,,,,,,,
295009,2022-12-05_13h21.27.395,vts_reward_expectancy_bt,2022.2.4,Win32,59.70862193,Chrome,1536,960,,,,,0,948,,,,,,,,,,,,,,,,,181,F,circle,1,0,,,,,,,,,,,,,,,,repeat,number,numRpt,f,0.6634,Hi,,,,,,3,,,,,,,,high,25,0,25,0,1,,,,,,,,,
295009,2022-12-05_13h21.27.395,vts_reward_expectancy_bt,2022.2.4,Win32,59.70862193,Chrome,1536,960,,,,,1,949,,,,,,,,,,,,,,,,,146,Y,triangle,1,0,,,,,,,,,,,,,,,,repeat,number,numRpt,d,0.5313,Lo,,,,,,3,,,,,,,,high,26,0,26,0,1,,,,,,,,,
295009,2022-12-05_13h21.27.395,vts_reward_expectancy_bt,2022.2.4,Win32,59.70862193,Chrome,1536,960,,,,,1,950,,,,,,,,,,,,,,,,,132,D,star,1,0,,,,,,,,,,,,,,,,repeat,number,numRpt,d,0.5962,Lo,,,,,,3,,,,,,,,high,27,0,27,0,1,,,,,,,,,
295009,2022-12-05_13h21.27.395,vts_reward_expectancy_bt,2022.2.4,Win32,59.70862193,Chrome,1536,960,,,,,1,951,,,,,,,,,,,,,,,,,139,S,triangle,1,0,,,,,,,,,,,,,,,,repeat,number,numRpt,d,0.6469,Lo,,,,,,3,,,,,,,,high,28,0,28,0,1,,,,,,,,,
295009,2022-12-05_13h21.27.395,vts_reward_expectancy_bt,2022.2.4,Win32,59.70862193,Chrome,1536,960,,,,,0,951,,,,,,,,,,,,,,,,,160,H,hexagon,1,0,,,,,,,,,,,,,,,,repeat,number,numRpt,f,0.7319,Hi,,,,,,3,,,,,,,,high,29,0,29,0,1,,,,,,,,,
295009,2022-12-05_13h21.27.395,vts_reward_expectancy_bt,2022.2.4,Win32,59.70862193,Chrome,1536,960,,,,,10,961,,,,,,,,,,,,,,,,,125,U,star,1,0,,,,,,,,,,,,,,,,repeat,number,numRpt,d,0.6815,Lo,,,,,,3,,,,,,,,high,30,0,30,0,1,,,,,,,,,
295009,2022-12-05_13h21.27.395,vts_reward_expectancy_bt,2022.2.4,Win32,59.70862193,Chrome,1536,960,,,,,0,961,,,,,,,,,,,,,,,,,167,B,circle,1,0,,,,,,,,,,,,,,,,repeat,number,numRpt,f,0.8961,Hi,,,,,,3,,,,,,,,high,31,0,31,0,1,,,,,,,,,
295009,2022-12-05_13h21.27.395,vts_reward_expectancy_bt,2022.2.4,Win32,59.70862193,Chrome,1536,960,,,,,1,962,,,,,,,,,,,,,,,,,139,Y,star,1,0,,,,,,,,,,,,,,,,repeat,number,numRpt,d,0.9458,Lo,,,,,,4,,,,,,space,7.927,high,0,0,0,0,1,,,,,,,,,
295009,2022-12-05_13h21.27.395,vts_reward_expectancy_bt,2022.2.4,Win32,59.70862193,Chrome,1536,960,,,,,0,962,,,,,,,,,,,,,,,,,174,H,circle,1,0,,,,,,,,,,,,,,,,repeat,number,numRpt,f,0.615,Hi,,,,,,4,,,,,,,,high,1,0,1,0,1,,,,,,,,,
295009,2022-12-05_13h21.27.395,vts_reward_expectancy_bt,2022.2.4,Win32,59.70862193,Chrome,1536,960,,,,,0,962,,,,,,,,,,,,,,,,,125,B,hexagon,1,0,,,,,,,,,,,,,,,,switch,letter,lettSwt,j,0.8718,Hi,,,,,,4,,,,,,,,high,2,0,2,0,1,,,,,,,,,
295009,2022-12-05_13h21.27.395,vts_reward_expectancy_bt,2022.2.4,Win32,59.70862193,Chrome,1536,960,,,,,1,963,,,,,,,,,,,,,,,,,132,S,triangle,1,0,,,,,,,,,,,,,,,,switch,number,numSwt,d,0.5183,Lo,,,,,,4,,,,,,,,high,3,0,3,0,1,,,,,,,,,
295009,2022-12-05_13h21.27.395,vts_reward_expectancy_bt,2022.2.4,Win32,59.70862193,Chrome,1536,960,,,,,1,964,,,,,,,,,,,,,,,,,181,F,star,1,0,,,,,,,,,,,,,,,,repeat,number,numRpt,f,0.4999,Lo,,,,,,4,,,,,,,,high,4,0,4,0,1,,,,,,,,,
295009,2022-12-05_13h21.27.395,vts_reward_expectancy_bt,2022.2.4,Win32,59.70862193,Chrome,1536,960,,,,,10,974,,,,,,,,,,,,,,,,,160,U,circle,1,0,,,,,,,,,,,,,,,,repeat,number,numRpt,f,0.4834,Hi,,,,,,4,,,,,,,,high,5,0,5,0,1,,,,,,,,,
295009,2022-12-05_13h21.27.395,vts_reward_expectancy_bt,2022.2.4,Win32,59.70862193,Chrome,1536,960,,,,,0,974,,,,,,,,,,,,,,,,,167,W,hexagon,0,0,,,,,,,,,,,,,,,,switch,letter,NA,j,0.4815,Hi,,,,,,4,,,,,,,,high,6,0,6,0,1,,,,,,,,,
295009,2022-12-05_13h21.27.395,vts_reward_expectancy_bt,2022.2.4,Win32,59.70862193,Chrome,1536,960,,,,,1,975,,,,,,,,,,,,,,,,,146,D,triangle,1,1,,,,,,,,,,,,,,,,switch,number,numSwt,d,0.6658,Lo,,,,,,4,,,,,,,,high,7,0,7,0,1,,,,,,,,,
295009,2022-12-05_13h21.27.395,vts_reward_expectancy_bt,2022.2.4,Win32,59.70862193,Chrome,1536,960,,,,,1,976,,,,,,,,,,,,,,,,,139,Y,triangle,1,0,,,,,,,,,,,,,,,,repeat,number,numRpt,d,0.4851,Lo,,,,,,4,,,,,,,,high,8,0,8,0,1,,,,,,,,,
295009,2022-12-05_13h21.27.395,vts_reward_expectancy_bt,2022.2.4,Win32,59.70862193,Chrome,1536,960,,,,,0,976,,,,,,,,,,,,,,,,,174,H,hexagon,1,0,,,,,,,,,,,,,,,,switch,letter,lettSwt,j,0.6949,Hi,,,,,,4,,,,,,,,high,9,0,9,0,1,,,,,,,,,
295009,2022-12-05_13h21.27.395,vts_reward_expectancy_bt,2022.2.4,Win32,59.70862193,Chrome,1536,960,,,,,1,977,,,,,,,,,,,,,,,,,125,B,star,1,0,,,,,,,,,,,,,,,,switch,number,numSwt,d,0.4638,Lo,,,,,,4,,,,,,,,high,10,0,10,0,1,,,,,,,,,
295009,2022-12-05_13h21.27.395,vts_reward_expectancy_bt,2022.2.4,Win32,59.70862193,Chrome,1536,960,,,,,0,977,,,,,,,,,,,,,,,,,132,S,circle,1,0,,,,,,,,,,,,,,,,switch,letter,lettSwt,k,0.9646,Hi,,,,,,4,,,,,,,,high,11,0,11,0,1,,,,,,,,,
295009,2022-12-05_13h21.27.395,vts_reward_expectancy_bt,2022.2.4,Win32,59.70862193,Chrome,1536,960,,,,,0,977,,,,,,,,,,,,,,,,,181,F,circle,0,0,,,,,,,,,,,,,,,,switch,number,NA,d,0.6485,Hi,,,,,,4,,,,,,,,high,12,0,12,0,1,,,,,,,,,
295009,2022-12-05_13h21.27.395,vts_reward_expectancy_bt,2022.2.4,Win32,59.70862193,Chrome,1536,960,,,,,0,977,,,,,,,,,,,,,,,,,160,U,star,0,1,,,,,,,,,,,,,,,,repeat,number,NA,d,0.9325,Hi,,,,,,4,,,,,,,,high,13,0,13,0,1,,,,,,,,,
295009,2022-12-05_13h21.27.395,vts_reward_expectancy_bt,2022.2.4,Win32,59.70862193,Chrome,1536,960,,,,,0,977,,,,,,,,,,,,,,,,,167,W,hexagon,0,1,,,,,,,,,,,,,,,,repeat,number,NA,d,0.5822,Hi,,,,,,4,,,,,,,,high,14,0,14,0,1,,,,,,,,,
295009,2022-12-05_13h21.27.395,vts_reward_expectancy_bt,2022.2.4,Win32,59.70862193,Chrome,1536,960,,,,,1,978,,,,,,,,,,,,,,,,,146,D,triangle,1,1,,,,,,,,,,,,,,,,switch,letter,lettSwt,j,0.6974,Lo,,,,,,4,,,,,,,,high,15,0,15,0,1,,,,,,,,,
295009,2022-12-05_13h21.27.395,vts_reward_expectancy_bt,2022.2.4,Win32,59.70862193,Chrome,1536,960,,,,,10,988,,,,,,,,,,,,,,,,,181,D,hexagon,1,0,,,,,,,,,,,,,,,,repeat,letter,lettRpt,j,0.5234,Hi,,,,,,4,,,,,,,,high,16,0,16,0,1,,,,,,,,,
295009,2022-12-05_13h21.27.395,vts_reward_expectancy_bt,2022.2.4,Win32,59.70862193,Chrome,1536,960,,,,,1,989,,,,,,,,,,,,,,,,,125,S,triangle,1,0,,,,,,,,,,,,,,,,repeat,letter,lettRpt,k,0.7533,Lo,,,,,,4,,,,,,,,high,17,0,17,0,1,,,,,,,,,
295009,2022-12-05_13h21.27.395,vts_reward_expectancy_bt,2022.2.4,Win32,59.70862193,Chrome,1536,960,,,,,0,989,,,,,,,,,,,,,,,,,167,U,star,0,0,,,,,,,,,,,,,,,,repeat,letter,NA,j,0.5992,Lo,,,,,,4,,,,,,,,high,18,0,18,0,1,,,,,,,,,
295009,2022-12-05_13h21.27.395,vts_reward_expectancy_bt,2022.2.4,Win32,59.70862193,Chrome,1536,960,,,,,0,989,,,,,,,,,,,,,,,,,174,H,circle,1,1,,,,,,,,,,,,,,,,switch,number,numSwt,f,0.6137,Hi,,,,,,4,,,,,,,,high,19,0,19,0,1,,,,,,,,,
295009,2022-12-05_13h21.27.395,vts_reward_expectancy_bt,2022.2.4,Win32,59.70862193,Chrome,1536,960,,,,,1,990,,,,,,,,,,,,,,,,,132,Y,star,1,0,,,,,,,,,,,,,,,,switch,letter,lettSwt,k,0.8513,Lo,,,,,,4,,,,,,,,high,20,0,20,0,1,,,,,,,,,
295009,2022-12-05_13h21.27.395,vts_reward_expectancy_bt,2022.2.4,Win32,59.70862193,Chrome,1536,960,,,,,0,990,,,,,,,,,,,,,,,,,160,F,circle,0,0,,,,,,,,,,,,,,,,switch,number,NA,d,0.6334,Lo,,,,,,4,,,,,,,,high,21,0,21,0,1,,,,,,,,,
295009,2022-12-05_13h21.27.395,vts_reward_expectancy_bt,2022.2.4,Win32,59.70862193,Chrome,1536,960,,,,,0,990,,,,,,,,,,,,,,,,,139,B,hexagon,1,1,,,,,,,,,,,,,,,,repeat,number,numRpt,d,0.6308,Hi,,,,,,4,,,,,,,,high,22,0,22,0,1,,,,,,,,,
295009,2022-12-05_13h21.27.395,vts_reward_expectancy_bt,2022.2.4,Win32,59.70862193,Chrome,1536,960,,,,,1,991,,,,,,,,,,,,,,,,,146,W,triangle,1,0,,,,,,,,,,,,,,,,repeat,number,numRpt,d,0.6452,Lo,,,,,,4,,,,,,,,high,23,0,23,0,1,,,,,,,,,
295009,2022-12-05_13h21.27.395,vts_reward_expectancy_bt,2022.2.4,Win32,59.70862193,Chrome,1536,960,,,,,0,991,,,,,,,,,,,,,,,,,181,D,circle,1,0,,,,,,,,,,,,,,,,switch,letter,lettSwt,j,0.6688,Hi,,,,,,4,,,,,,,,high,24,0,24,0,1,,,,,,,,,
295009,2022-12-05_13h21.27.395,vts_reward_expectancy_bt,2022.2.4,Win32,59.70862193,Chrome,1536,960,,,,,0,991,,,,,,,,,,,,,,,,,132,Y,hexagon,1,0,,,,,,,,,,,,,,,,switch,number,numSwt,d,0.6003,Hi,,,,,,4,,,,,,,,high,25,0,25,0,1,,,,,,,,,
295009,2022-12-05_13h21.27.395,vts_reward_expectancy_bt,2022.2.4,Win32,59.70862193,Chrome,1536,960,,,,,10,1001,,,,,,,,,,,,,,,,,174,H,star,1,0,,,,,,,,,,,,,,,,repeat,number,numRpt,f,0.6152,Lo,,,,,,4,,,,,,,,high,26,0,26,0,1,,,,,,,,,
295009,2022-12-05_13h21.27.395,vts_reward_expectancy_bt,2022.2.4,Win32,59.70862193,Chrome,1536,960,,,,,10,1011,,,,,,,,,,,,,,,,,139,W,triangle,1,0,,,,,,,,,,,,,,,,switch,letter,lettSwt,k,0.7139,Lo,,,,,,4,,,,,,,,high,27,0,27,0,1,,,,,,,,,
295009,2022-12-05_13h21.27.395,vts_reward_expectancy_bt,2022.2.4,Win32,59.70862193,Chrome,1536,960,,,,,0,1011,,,,,,,,,,,,,,,,,125,B,circle,1,0,,,,,,,,,,,,,,,,switch,number,numSwt,d,0.5978,Hi,,,,,,4,,,,,,,,high,28,0,28,0,1,,,,,,,,,
295009,2022-12-05_13h21.27.395,vts_reward_expectancy_bt,2022.2.4,Win32,59.70862193,Chrome,1536,960,,,,,1,1012,,,,,,,,,,,,,,,,,167,U,triangle,1,0,,,,,,,,,,,,,,,,repeat,number,numRpt,f,0.6477,Lo,,,,,,4,,,,,,,,high,29,0,29,0,1,,,,,,,,,
295009,2022-12-05_13h21.27.395,vts_reward_expectancy_bt,2022.2.4,Win32,59.70862193,Chrome,1536,960,,,,,1,1013,,,,,,,,,,,,,,,,,160,S,star,1,0,,,,,,,,,,,,,,,,repeat,number,numRpt,f,0.6321,Lo,,,,,,4,,,,,,,,high,30,0,30,0,1,,,,,,,,,
295009,2022-12-05_13h21.27.395,vts_reward_expectancy_bt,2022.2.4,Win32,59.70862193,Chrome,1536,960,,,,,0,1013,,,,,,,,,,,,,,,,,146,F,hexagon,1,0,,,,,,,,,,,,,,,,switch,letter,lettSwt,j,0.8464,Hi,,,,,,4,,,,,,,,high,31,0,31,0,1,,,,,,,,,
295009,2022-12-05_13h21.27.395,vts_reward_expectancy_bt,2022.2.4,Win32,59.70862193,Chrome,1536,960,,,,,1,1014,,,,,,,,,,,,,,,,,167,D,triangle,1,0,,,,,,,,,,,,,,,,repeat,letter,lettRpt,j,0.8475,Lo,,,,,,5,,,,,,space,1.1543,high,0,0,0,0,1,,,,,,,,,
295009,2022-12-05_13h21.27.395,vts_reward_expectancy_bt,2022.2.4,Win32,59.70862193,Chrome,1536,960,,,,,1,1015,,,,,,,,,,,,,,,,,146,H,star,1,0,,,,,,,,,,,,,,,,switch,number,numSwt,d,0.4987,Lo,,,,,,5,,,,,,,,high,1,0,1,0,1,,,,,,,,,
295009,2022-12-05_13h21.27.395,vts_reward_expectancy_bt,2022.2.4,Win32,59.70862193,Chrome,1536,960,,,,,0,1015,,,,,,,,,,,,,,,,,174,F,hexagon,1,0,,,,,,,,,,,,,,,,repeat,number,numRpt,f,1.2029,Hi,,,,,,5,,,,,,,,high,2,0,2,0,1,,,,,,,,,
295009,2022-12-05_13h21.27.395,vts_reward_expectancy_bt,2022.2.4,Win32,59.70862193,Chrome,1536,960,,,,,10,1025,,,,,,,,,,,,,,,,,139,Y,circle,1,0,,,,,,,,,,,,,,,,switch,letter,lettSwt,k,0.5607,Hi,,,,,,5,,,,,,,,high,3,0,3,0,1,,,,,,,,,
295009,2022-12-05_13h21.27.395,vts_reward_expectancy_bt,2022.2.4,Win32,59.70862193,Chrome,1536,960,,,,,0,1025,,,,,,,,,,,,,,,,,160,B,triangle,0,0,,,,,,,,,,,,,,,,switch,number,NA,d,0.4981,Hi,,,,,,5,,,,,,,,high,4,0,4,0,1,,,,,,,,,
295009,2022-12-05_13h21.27.395,vts_reward_expectancy_bt,2022.2.4,Win32,59.70862193,Chrome,1536,960,,,,,1,1026,,,,,,,,,,,,,,,,,132,U,star,1,1,,,,,,,,,,,,,,,,repeat,number,numRpt,d,0.4333,Lo,,,,,,5,,,,,,,,high,5,0,5,0,1,,,,,,,,,
295009,2022-12-05_13h21.27.395,vts_reward_expectancy_bt,2022.2.4,Win32,59.70862193,Chrome,1536,960,,,,,1,1027,,,,,,,,,,,,,,,,,125,S,hexagon,1,0,,,,,,,,,,,,,,,,repeat,number,numRpt,d,0.5306,Hi,,,,,,5,,,,,,,,high,6,0,6,0,1,,,,,,,,,
295009,2022-12-05_13h21.27.395,vts_reward_expectancy_bt,2022.2.4,Win32,59.70862193,Chrome,1536,960,,,,,10,1037,,,,,,,,,,,,,,,,,181,W,circle,1,0,,,,,,,,,,,,,,,,switch,letter,lettSwt,k,0.6137,Hi,,,,,,5,,,,,,,,high,7,0,7,0,1,,,,,,,,,
295009,2022-12-05_13h21.27.395,vts_reward_expectancy_bt,2022.2.4,Win32,59.70862193,Chrome,1536,960,,,,,1,1038,,,,,,,,,,,,,,,,,167,D,triangle,1,0,,,,,,,,,,,,,,,,repeat,letter,lettRpt,j,1.0853,Lo,,,,,,5,,,,,,,,high,8,0,8,0,1,,,,,,,,,
295009,2022-12-05_13h21.27.395,vts_reward_expectancy_bt,2022.2.4,Win32,59.70862193,Chrome,1536,960,,,,,1,1039,,,,,,,,,,,,,,,,,146,H,star,1,0,,,,,,,,,,,,,,,,switch,number,numSwt,d,0.6138,Lo,,,,,,5,,,,,,,,high,9,0,9,0,1,,,,,,,,,
295009,2022-12-05_13h21.27.395,vts_reward_expectancy_bt,2022.2.4,Win32,59.70862193,Chrome,1536,960,,,,,0,1039,,,,,,,,,,,,,,,,,174,F,hexagon,0,0,,,,,,,,,,,,,,,,switch,letter,NA,k,0.8533,Lo,,,,,,5,,,,,,,,high,10,0,10,0,1,,,,,,,,,
295009,2022-12-05_13h21.27.395,vts_reward_expectancy_bt,2022.2.4,Win32,59.70862193,Chrome,1536,960,,,,,0,1039,,,,,,,,,,,,,,,,,139,Y,circle,1,1,,,,,,,,,,,,,,,,repeat,letter,lettRpt,k,0.5302,Hi,,,,,,5,,,,,,,,high,11,0,11,0,1,,,,,,,,,
295009,2022-12-05_13h21.27.395,vts_reward_expectancy_bt,2022.2.4,Win32,59.70862193,Chrome,1536,960,,,,,10,1049,,,,,,,,,,,,,,,,,160,B,star,1,0,,,,,,,,,,,,,,,,switch,number,numSwt,f,0.8469,Lo,,,,,,5,,,,,,,,high,12,0,12,0,1,,,,,,,,,
295009,2022-12-05_13h21.27.395,vts_reward_expectancy_bt,2022.2.4,Win32,59.70862193,Chrome,1536,960,,,,,0,1049,,,,,,,,,,,,,,,,,132,U,triangle,0,0,,,,,,,,,,,,,,,,switch,letter,NA,j,1.1863,Lo,,,,,,5,,,,,,,,high,13,0,13,0,1,,,,,,,,,
295009,2022-12-05_13h21.27.395,vts_reward_expectancy_bt,2022.2.4,Win32,59.70862193,Chrome,1536,960,,,,,0,1049,,,,,,,,,,,,,,,,,125,S,hexagon,1,1,,,,,,,,,,,,,,,,repeat,letter,lettRpt,k,1.1203,Hi,,,,,,5,,,,,,,,high,14,0,14,0,1,,,,,,,,,
295009,2022-12-05_13h21.27.395,vts_reward_expectancy_bt,2022.2.4,Win32,59.70862193,Chrome,1536,960,,,,,0,1049,,,,,,,,,,,,,,,,,181,W,circle,1,0,,,,,,,,,,,,,,,,repeat,letter,lettRpt,k,0.9173,Hi,,,,,,5,,,,,,,,high,15,0,15,0,1,,,,,,,,,
295009,2022-12-05_13h21.27.395,vts_reward_expectancy_bt,2022.2.4,Win32,59.70862193,Chrome,1536,960,,,,,1,1050,,,,,,,,,,,,,,,,,125,B,triangle,1,0,,,,,,,,,,,,,,,,repeat,letter,lettRpt,j,0.6296,Lo,,,,,,5,,,,,,,,high,16,0,16,0,1,,,,,,,,,
295009,2022-12-05_13h21.27.395,vts_reward_expectancy_bt,2022.2.4,Win32,59.70862193,Chrome,1536,960,,,,,10,1060,,,,,,,,,,,,,,,,,174,D,star,1,0,,,,,,,,,,,,,,,,repeat,letter,lettRpt,j,0.5021,Lo,,,,,,5,,,,,,,,high,17,0,17,0,1,,,,,,,,,
295009,2022-12-05_13h21.27.395,vts_reward_expectancy_bt,2022.2.4,Win32,59.70862193,Chrome,1536,960,,,,,0,1060,,,,,,,,,,,,,,,,,160,H,circle,1,0,,,,,,,,,,,,,,,,repeat,letter,lettRpt,j,0.7152,Hi,,,,,,5,,,,,,,,high,18,0,18,0,1,,,,,,,,,
295009,2022-12-05_13h21.27.395,vts_reward_expectancy_bt,2022.2.4,Win32,59.70862193,Chrome,1536,960,,,,,0,1060,,,,,,,,,,,,,,,,,139,U,hexagon,1,0,,,,,,,,,,,,,,,,repeat,letter,lettRpt,k,0.7452,Hi,,,,,,5,,,,,,,,high,19,0,19,0,1,,,,,,,,,
295009,2022-12-05_13h21.27.395,vts_reward_expectancy_bt,2022.2.4,Win32,59.70862193,Chrome,1536,960,,,,,10,1070,,,,,,,,,,,,,,,,,132,S,circle,1,0,,,,,,,,,,,,,,,,repeat,letter,lettRpt,k,0.4992,Hi,,,,,,5,,,,,,,,high,20,0,20,0,1,,,,,,,,,
295009,2022-12-05_13h21.27.395,vts_reward_expectancy_bt,2022.2.4,Win32,59.70862193,Chrome,1536,960,,,,,1,1071,,,,,,,,,,,,,,,,,146,F,triangle,1,0,,,,,,,,,,,,,,,,switch,number,numSwt,d,0.5104,Lo,,,,,,5,,,,,,,,high,21,0,21,0,1,,,,,,,,,
295009,2022-12-05_13h21.27.395,vts_reward_expectancy_bt,2022.2.4,Win32,59.70862193,Chrome,1536,960,,,,,0,1071,,,,,,,,,,,,,,,,,181,W,hexagon,1,0,,,,,,,,,,,,,,,,repeat,number,numRpt,f,0.8131,Hi,,,,,,5,,,,,,,,high,22,0,22,0,1,,,,,,,,,
295009,2022-12-05_13h21.27.395,vts_reward_expectancy_bt,2022.2.4,Win32,59.70862193,Chrome,1536,960,,,,,10,1081,,,,,,,,,,,,,,,,,167,Y,star,1,0,,,,,,,,,,,,,,,,repeat,number,numRpt,f,0.7055,Lo,,,,,,5,,,,,,,,high,23,0,23,0,1,,,,,,,,,
295009,2022-12-05_13h21.27.395,vts_reward_expectancy_bt,2022.2.4,Win32,59.70862193,Chrome,1536,960,,,,,0,1081,,,,,,,,,,,,,,,,,174,B,hexagon,1,0,,,,,,,,,,,,,,,,repeat,number,numRpt,f,0.8307,Hi,,,,,,5,,,,,,,,high,24,0,24,0,1,,,,,,,,,
295009,2022-12-05_13h21.27.395,vts_reward_expectancy_bt,2022.2.4,Win32,59.70862193,Chrome,1536,960,,,,,0,1081,,,,,,,,,,,,,,,,,146,U,circle,1,0,,,,,,,,,,,,,,,,repeat,number,numRpt,d,1.0468,Hi,,,,,,5,,,,,,,,high,25,0,25,0,1,,,,,,,,,
295009,2022-12-05_13h21.27.395,vts_reward_expectancy_bt,2022.2.4,Win32,59.70862193,Chrome,1536,960,,,,,1,1082,,,,,,,,,,,,,,,,,181,H,triangle,1,0,,,,,,,,,,,,,,,,repeat,number,numRpt,f,0.6812,Lo,,,,,,5,,,,,,,,high,26,0,26,0,1,,,,,,,,,
295009,2022-12-05_13h21.27.395,vts_reward_expectancy_bt,2022.2.4,Win32,59.70862193,Chrome,1536,960,,,,,1,1083,,,,,,,,,,,,,,,,,160,S,star,1,0,,,,,,,,,,,,,,,,repeat,number,numRpt,f,0.6137,Lo,,,,,,5,,,,,,,,high,27,0,27,0,1,,,,,,,,,
295009,2022-12-05_13h21.27.395,vts_reward_expectancy_bt,2022.2.4,Win32,59.70862193,Chrome,1536,960,,,,,0,1083,,,,,,,,,,,,,,,,,167,F,circle,0,0,,,,,,,,,,,,,,,,repeat,number,NA,d,1.835,Lo,,,,,,5,,,,,,,,high,28,0,28,0,1,,,,,,,,,
295009,2022-12-05_13h21.27.395,vts_reward_expectancy_bt,2022.2.4,Win32,59.70862193,Chrome,1536,960,,,,,1,1084,,,,,,,,,,,,,,,,,132,Y,triangle,1,1,,,,,,,,,,,,,,,,repeat,number,numRpt,d,0.6784,Lo,,,,,,5,,,,,,,,high,29,0,29,0,1,,,,,,,,,
295009,2022-12-05_13h21.27.395,vts_reward_expectancy_bt,2022.2.4,Win32,59.70862193,Chrome,1536,960,,,,,0,1084,,,,,,,,,,,,,,,,,139,D,hexagon,1,0,,,,,,,,,,,,,,,,repeat,number,numRpt,d,0.9624,Hi,,,,,,5,,,,,,,,high,30,0,30,0,1,,,,,,,,,
295009,2022-12-05_13h21.27.395,vts_reward_expectancy_bt,2022.2.4,Win32,59.70862193,Chrome,1536,960,,,,,10,1094,,,,,,,,,,,,,,,,,125,W,star,1,0,,,,,,,,,,,,,,,,repeat,number,numRpt,d,0.5333,Lo,,,,,,5,,,,,,,,high,31,0,31,0,1,,,,,,,,,
295009,2022-12-05_13h21.27.395,vts_reward_expectancy_bt,2022.2.4,Win32,59.70862193,Chrome,1536,960,,,,,10,1104,,,,,,,,,,,,,,,,,160,B,hexagon,1,0,,,,,,,,,,,,,,,,repeat,number,numRpt,f,0.6327,Hi,,,,,,6,,,,,,space,2.841,high,0,0,0,0,1,,,,,,,,,
295009,2022-12-05_13h21.27.395,vts_reward_expectancy_bt,2022.2.4,Win32,59.70862193,Chrome,1536,960,,,,,1,1105,,,,,,,,,,,,,,,,,139,W,star,1,0,,,,,,,,,,,,,,,,switch,letter,lettSwt,k,0.6823,Lo,,,,,,6,,,,,,,,high,1,0,1,0,1,,,,,,,,,
295009,2022-12-05_13h21.27.395,vts_reward_expectancy_bt,2022.2.4,Win32,59.70862193,Chrome,1536,960,,,,,10,1115,,,,,,,,,,,,,,,,,181,H,triangle,1,0,,,,,,,,,,,,,,,,switch,number,numSwt,f,0.6678,Lo,,,,,,6,,,,,,,,high,2,0,2,0,1,,,,,,,,,
295009,2022-12-05_13h21.27.395,vts_reward_expectancy_bt,2022.2.4,Win32,59.70862193,Chrome,1536,960,,,,,0,1115,,,,,,,,,,,,,,,,,146,D,circle,1,0,,,,,,,,,,,,,,,,repeat,number,numRpt,d,0.7495,Hi,,,,,,6,,,,,,,,high,3,0,3,0,1,,,,,,,,,
295009,2022-12-05_13h21.27.395,vts_reward_expectancy_bt,2022.2.4,Win32,59.70862193,Chrome,1536,960,,,,,0,1115,,,,,,,,,,,,,,,,,132,Y,hexagon,0,0,,,,,,,,,,,,,,,,repeat,number,NA,f,0.6513,Hi,,,,,,6,,,,,,,,high,4,0,4,0,1,,,,,,,,,
295009,2022-12-05_13h21.27.395,vts_reward_expectancy_bt,2022.2.4,Win32,59.70862193,Chrome,1536,960,,,,,1,1116,,,,,,,,,,,,,,,,,125,F,star,1,1,,,,,,,,,,,,,,,,repeat,number,numRpt,d,0.5469,Lo,,,,,,6,,,,,,,,high,5,0,5,0,1,,,,,,,,,
295009,2022-12-05_13h21.27.395,vts_reward_expectancy_bt,2022.2.4,Win32,59.70862193,Chrome,1536,960,,,,,1,1117,,,,,,,,,,,,,,,,,167,U,triangle,1,0,,,,,,,,,,,,,,,,repeat,number,numRpt,f,0.5655,Lo,,,,,,6,,,,,,,,high,6,0,6,0,1,,,,,,,,,
295009,2022-12-05_13h21.27.395,vts_reward_expectancy_bt,2022.2.4,Win32,59.70862193,Chrome,1536,960,,,,,0,1117,,,,,,,,,,,,,,,,,174,S,circle,1,0,,,,,,,,,,,,,,,,switch,letter,lettSwt,k,0.5789,Hi,,,,,,6,,,,,,,,high,7,0,7,0,1,,,,,,,,,
