participant,date,expName,psychopyVersion,OS,frameRate,browser,xResolution,yResolution,key_resp.keys,key_resp.rt,training_resp.keys,training_resp.rt,points_trial,points_cumul,trainBlock,training.thisRepN,training.thisTrialN,training.thisN,training.thisIndex,training.ran,LTriangleOpac,LCircleOpac,LHexagonOpac,LStarOpac,RTriangleOpac,RCircleOpac,RHexagonOpac,RStarOpac,LShape_ID,RShape_ID,curr_topStim,curr_bottStim,curr_shape,acc,E1,target_resp_prac1.keys,target_resp_prac1.rt,pracBlock,task1_prac_trials.thisRepN,task1_prac_trials.thisTrialN,task1_prac_trials.thisN,task1_prac_trials.thisIndex,task1_prac_trials.ran,target_resp_prac2.keys,target_resp_prac2.rt,task2_praac_trials.thisRepN,task2_praac_trials.thisTrialN,task2_praac_trials.thisN,task2_praac_trials.thisIndex,task2_praac_trials.ran,alt,task,condition,target_resp.keys,target_resp.rt,rewCond,vts_practice_trials.thisRepN,vts_practice_trials.thisTrialN,vts_practice_trials.thisN,vts_practice_trials.thisIndex,vts_practice_trials.ran,blockNum,trials_norew.thisRepN,trials_norew.thisTrialN,trials_norew.thisN,trials_norew.thisIndex,trials_norew.ran,key_resp_2.keys,key_resp_2.rt,rewExpectancy,trials_rew.thisRepN,trials_rew.thisTrialN,trials_rew.thisN,trials_rew.thisIndex,trials_rew.ran,Q1,Q2,Q2_text,Q3,Q4,Q5_text,Q5,xRes,yRes
295030,2022-12-03_13h07.17.083,vts_reward_expectancy_bt,2022.2.4,MacIntel,60.82725061,Firefox,1440,900,,,,,,,,,,,,,,,,,,,,,,,,,,,,,,,,,,,,,,,,,,,,,,,,,,,,,,,,,,,,,,,,,,,,,,,,,,,,
295030,2022-12-03_13h07.17.083,vts_reward_expectancy_bt,2022.2.4,MacIntel,60.82725061,Firefox,1440,900,space,0.905,,,,,,,,,,,,,,,,,,,,,,,,,,,,,,,,,,,,,,,,,,,,,,,,,,,,,,,,,,,,,,,,,,,,,,,,,,
295030,2022-12-03_13h07.17.083,vts_reward_expectancy_bt,2022.2.4,MacIntel,60.82725061,Firefox,1440,900,,,,,,,,,,,,,,,,,,,,,,,,,,,,,,,,,,,,,,,,,,,,,,,,,,,,,,,,,,,,,,,,,,,,,,,,,,,,
295030,2022-12-03_13h07.17.083,vts_reward_expectancy_bt,2022.2.4,MacIntel,60.82725061,Firefox,1440,900,,,l,0.699,1,1,0,0,0,0,3,1,0,1,0,0,1,0,0,0,circle,triangle,,,,,,,,,,,,,,,,,,,,,,,,,,,,,,,,,,,,,,,,,,,,,,,,,,,,,,
295030,2022-12-03_13h07.17.083,vts_reward_expectancy_bt,2022.2.4,MacIntel,60.82725061,Firefox,1440,900,,,a,1.717,10,11,0,0,1,1,8,1,0,0,1,0,0,0,0,1,hexagon,star,,,,,,,,,,,,,,,,,,,,,,,,,,,,,,,,,,,,,,,,,,,,,,,,,,,,,,
295030,2022-12-03_13h07.17.083,vts_reward_expectancy_bt,2022.2.4,MacIntel,60.82725061,Firefox,1440,900,,,l,2.11,1,12,0,0,2,2,4,1,0,1,0,0,0,0,1,0,circle,hexagon,,,,,,,,,,,,,,,,,,,,,,,,,,,,,,,,,,,,,,,,,,,,,,,,,,,,,,
295030,2022-12-03_13h07.17.083,vts_reward_expectancy_bt,2022.2.4,MacIntel,60.82725061,Firefox,1440,900,,,a,1.614,1,13,0,0,3,3,0,1,1,0,0,0,0,1,0,0,triangle,circle,,,,,,,,,,,,,,,,,,,,,,,,,,,,,,,,,,,,,,,,,,,,,,,,,,,,,,
295030,2022-12-03_13h07.17.083,vts_reward_expectancy_bt,2022.2.4,MacIntel,60.82725061,Firefox,1440,900,,,l,0.874,10,23,0,0,4,4,9,1,0,0,0,1,1,0,0,0,star,triangle,,,,,,,,,,,,,,,,,,,,,,,,,,,,,,,,,,,,,,,,,,,,,,,,,,,,,,
295030,2022-12-03_13h07.17.083,vts_reward_expectancy_bt,2022.2.4,MacIntel,60.82725061,Firefox,1440,900,,,l,0.271,1,24,0,0,5,5,11,1,0,0,0,1,0,0,1,0,star,hexagon,,,,,,,,,,,,,,,,,,,,,,,,,,,,,,,,,,,,,,,,,,,,,,,,,,,,,,
295030,2022-12-03_13h07.17.083,vts_reward_expectancy_bt,2022.2.4,MacIntel,60.82725061,Firefox,1440,900,,,l,0.835,10,34,0,0,6,6,10,1,0,0,0,1,0,1,0,0,star ,circle,,,,,,,,,,,,,,,,,,,,,,,,,,,,,,,,,,,,,,,,,,,,,,,,,,,,,,
295030,2022-12-03_13h07.17.083,vts_reward_expectancy_bt,2022.2.4,MacIntel,60.82725061,Firefox,1440,900,,,l,0.306,10,44,0,0,7,7,2,1,1,0,0,0,0,0,0,1,triangle,star,,,,,,,,,,,,,,,,,,,,,,,,,,,,,,,,,,,,,,,,,,,,,,,,,,,,,,
295030,2022-12-03_13h07.17.083,vts_reward_expectancy_bt,2022.2.4,MacIntel,60.82725061,Firefox,1440,900,,,l,0.338,10,54,0,0,8,8,7,1,0,0,1,0,0,1,0,0,hexagon,circle,,,,,,,,,,,,,,,,,,,,,,,,,,,,,,,,,,,,,,,,,,,,,,,,,,,,,,
295030,2022-12-03_13h07.17.083,vts_reward_expectancy_bt,2022.2.4,MacIntel,60.82725061,Firefox,1440,900,,,l,0.407,1,55,0,0,9,9,5,1,0,1,0,0,0,0,0,1,circle,star,,,,,,,,,,,,,,,,,,,,,,,,,,,,,,,,,,,,,,,,,,,,,,,,,,,,,,
295030,2022-12-03_13h07.17.083,vts_reward_expectancy_bt,2022.2.4,MacIntel,60.82725061,Firefox,1440,900,,,l,4.957,1,56,0,0,10,10,1,1,1,0,0,0,0,0,1,0,triangle,hexagon,,,,,,,,,,,,,,,,,,,,,,,,,,,,,,,,,,,,,,,,,,,,,,,,,,,,,,
295030,2022-12-03_13h07.17.083,vts_reward_expectancy_bt,2022.2.4,MacIntel,60.82725061,Firefox,1440,900,,,a,0.386,1,57,0,0,11,11,6,1,0,0,1,0,1,0,0,0,hexagon,triangle,,,,,,,,,,,,,,,,,,,,,,,,,,,,,,,,,,,,,,,,,,,,,,,,,,,,,,
295030,2022-12-03_13h07.17.083,vts_reward_expectancy_bt,2022.2.4,MacIntel,60.82725061,Firefox,1440,900,,,l,0.689,10,67,0,1,0,12,11,1,0,0,0,1,0,0,1,0,star,hexagon,,,,,,,,,,,,,,,,,,,,,,,,,,,,,,,,,,,,,,,,,,,,,,,,,,,,,,
295030,2022-12-03_13h07.17.083,vts_reward_expectancy_bt,2022.2.4,MacIntel,60.82725061,Firefox,1440,900,,,l,0.452,1,68,0,1,1,13,3,1,0,1,0,0,1,0,0,0,circle,triangle,,,,,,,,,,,,,,,,,,,,,,,,,,,,,,,,,,,,,,,,,,,,,,,,,,,,,,
295030,2022-12-03_13h07.17.083,vts_reward_expectancy_bt,2022.2.4,MacIntel,60.82725061,Firefox,1440,900,,,l,0.353,1,69,0,1,2,14,4,1,0,1,0,0,0,0,1,0,circle,hexagon,,,,,,,,,,,,,,,,,,,,,,,,,,,,,,,,,,,,,,,,,,,,,,,,,,,,,,
295030,2022-12-03_13h07.17.083,vts_reward_expectancy_bt,2022.2.4,MacIntel,60.82725061,Firefox,1440,900,,,l,0.319,10,79,0,1,3,15,6,1,0,0,1,0,1,0,0,0,hexagon,triangle,,,,,,,,,,,,,,,,,,,,,,,,,,,,,,,,,,,,,,,,,,,,,,,,,,,,,,
295030,2022-12-03_13h07.17.083,vts_reward_expectancy_bt,2022.2.4,MacIntel,60.82725061,Firefox,1440,900,,,l,0.517,10,89,0,1,4,16,10,1,0,0,0,1,0,1,0,0,star ,circle,,,,,,,,,,,,,,,,,,,,,,,,,,,,,,,,,,,,,,,,,,,,,,,,,,,,,,
295030,2022-12-03_13h07.17.083,vts_reward_expectancy_bt,2022.2.4,MacIntel,60.82725061,Firefox,1440,900,,,l,0.356,10,99,0,1,5,17,0,1,1,0,0,0,0,1,0,0,triangle,circle,,,,,,,,,,,,,,,,,,,,,,,,,,,,,,,,,,,,,,,,,,,,,,,,,,,,,,
295030,2022-12-03_13h07.17.083,vts_reward_expectancy_bt,2022.2.4,MacIntel,60.82725061,Firefox,1440,900,,,l,0.323,10,109,0,1,6,18,2,1,1,0,0,0,0,0,0,1,triangle,star,,,,,,,,,,,,,,,,,,,,,,,,,,,,,,,,,,,,,,,,,,,,,,,,,,,,,,
295030,2022-12-03_13h07.17.083,vts_reward_expectancy_bt,2022.2.4,MacIntel,60.82725061,Firefox,1440,900,,,l,0.322,10,119,0,1,7,19,8,1,0,0,1,0,0,0,0,1,hexagon,star,,,,,,,,,,,,,,,,,,,,,,,,,,,,,,,,,,,,,,,,,,,,,,,,,,,,,,
295030,2022-12-03_13h07.17.083,vts_reward_expectancy_bt,2022.2.4,MacIntel,60.82725061,Firefox,1440,900,,,l,0.271,10,129,0,1,8,20,5,1,0,1,0,0,0,0,0,1,circle,star,,,,,,,,,,,,,,,,,,,,,,,,,,,,,,,,,,,,,,,,,,,,,,,,,,,,,,
295030,2022-12-03_13h07.17.083,vts_reward_expectancy_bt,2022.2.4,MacIntel,60.82725061,Firefox,1440,900,,,l,0.373,1,130,0,1,9,21,9,1,0,0,0,1,1,0,0,0,star,triangle,,,,,,,,,,,,,,,,,,,,,,,,,,,,,,,,,,,,,,,,,,,,,,,,,,,,,,
295030,2022-12-03_13h07.17.083,vts_reward_expectancy_bt,2022.2.4,MacIntel,60.82725061,Firefox,1440,900,,,l,0.346,1,131,0,1,10,22,7,1,0,0,1,0,0,1,0,0,hexagon,circle,,,,,,,,,,,,,,,,,,,,,,,,,,,,,,,,,,,,,,,,,,,,,,,,,,,,,,
295030,2022-12-03_13h07.17.083,vts_reward_expectancy_bt,2022.2.4,MacIntel,60.82725061,Firefox,1440,900,,,l,0.35,10,141,0,1,11,23,1,1,1,0,0,0,0,0,1,0,triangle,hexagon,,,,,,,,,,,,,,,,,,,,,,,,,,,,,,,,,,,,,,,,,,,,,,,,,,,,,,
295030,2022-12-03_13h07.17.083,vts_reward_expectancy_bt,2022.2.4,MacIntel,60.82725061,Firefox,1440,900,,,l,0.987,1,142,0,2,0,24,8,1,0,0,1,0,0,0,0,1,hexagon,star,,,,,,,,,,,,,,,,,,,,,,,,,,,,,,,,,,,,,,,,,,,,,,,,,,,,,,
295030,2022-12-03_13h07.17.083,vts_reward_expectancy_bt,2022.2.4,MacIntel,60.82725061,Firefox,1440,900,,,l,0.487,10,152,0,2,1,25,2,1,1,0,0,0,0,0,0,1,triangle,star,,,,,,,,,,,,,,,,,,,,,,,,,,,,,,,,,,,,,,,,,,,,,,,,,,,,,,
295030,2022-12-03_13h07.17.083,vts_reward_expectancy_bt,2022.2.4,MacIntel,60.82725061,Firefox,1440,900,,,l,1.504,10,162,0,2,2,26,0,1,1,0,0,0,0,1,0,0,triangle,circle,,,,,,,,,,,,,,,,,,,,,,,,,,,,,,,,,,,,,,,,,,,,,,,,,,,,,,
295030,2022-12-03_13h07.17.083,vts_reward_expectancy_bt,2022.2.4,MacIntel,60.82725061,Firefox,1440,900,,,l,0.536,1,163,0,2,3,27,11,1,0,0,0,1,0,0,1,0,star,hexagon,,,,,,,,,,,,,,,,,,,,,,,,,,,,,,,,,,,,,,,,,,,,,,,,,,,,,,
295030,2022-12-03_13h07.17.083,vts_reward_expectancy_bt,2022.2.4,MacIntel,60.82725061,Firefox,1440,900,,,l,0.987,1,164,0,2,4,28,9,1,0,0,0,1,1,0,0,0,star,triangle,,,,,,,,,,,,,,,,,,,,,,,,,,,,,,,,,,,,,,,,,,,,,,,,,,,,,,
295030,2022-12-03_13h07.17.083,vts_reward_expectancy_bt,2022.2.4,MacIntel,60.82725061,Firefox,1440,900,,,l,0.275,1,165,0,2,5,29,6,1,0,0,1,0,1,0,0,0,hexagon,triangle,,,,,,,,,,,,,,,,,,,,,,,,,,,,,,,,,,,,,,,,,,,,,,,,,,,,,,
295030,2022-12-03_13h07.17.083,vts_reward_expectancy_bt,2022.2.4,MacIntel,60.82725061,Firefox,1440,900,,,a,3.087,1,166,0,2,6,30,5,1,0,1,0,0,0,0,0,1,circle,star,,,,,,,,,,,,,,,,,,,,,,,,,,,,,,,,,,,,,,,,,,,,,,,,,,,,,,
295030,2022-12-03_13h07.17.083,vts_reward_expectancy_bt,2022.2.4,MacIntel,60.82725061,Firefox,1440,900,,,l,1.687,10,176,0,2,7,31,3,1,0,1,0,0,1,0,0,0,circle,triangle,,,,,,,,,,,,,,,,,,,,,,,,,,,,,,,,,,,,,,,,,,,,,,,,,,,,,,
295030,2022-12-03_13h07.17.083,vts_reward_expectancy_bt,2022.2.4,MacIntel,60.82725061,Firefox,1440,900,,,l,0.271,1,177,0,2,8,32,1,1,1,0,0,0,0,0,1,0,triangle,hexagon,,,,,,,,,,,,,,,,,,,,,,,,,,,,,,,,,,,,,,,,,,,,,,,,,,,,,,
295030,2022-12-03_13h07.17.083,vts_reward_expectancy_bt,2022.2.4,MacIntel,60.82725061,Firefox,1440,900,,,l,0.281,1,178,0,2,9,33,4,1,0,1,0,0,0,0,1,0,circle,hexagon,,,,,,,,,,,,,,,,,,,,,,,,,,,,,,,,,,,,,,,,,,,,,,,,,,,,,,
295030,2022-12-03_13h07.17.083,vts_reward_expectancy_bt,2022.2.4,MacIntel,60.82725061,Firefox,1440,900,,,l,0.27,1,179,0,2,10,34,10,1,0,0,0,1,0,1,0,0,star ,circle,,,,,,,,,,,,,,,,,,,,,,,,,,,,,,,,,,,,,,,,,,,,,,,,,,,,,,
295030,2022-12-03_13h07.17.083,vts_reward_expectancy_bt,2022.2.4,MacIntel,60.82725061,Firefox,1440,900,,,l,0.187,10,189,0,2,11,35,7,1,0,0,1,0,0,1,0,0,hexagon,circle,,,,,,,,,,,,,,,,,,,,,,,,,,,,,,,,,,,,,,,,,,,,,,,,,,,,,,
295030,2022-12-03_13h07.17.083,vts_reward_expectancy_bt,2022.2.4,MacIntel,60.82725061,Firefox,1440,900,,,l,1.104,1,190,1,0,0,0,6,1,0,0,1,0,1,0,0,0,hexagon,triangle,,,,,,,,,,,,,,,,,,,,,,,,,,,,,,,,,,,,,,,,,,,,,,,,,,,,,,
295030,2022-12-03_13h07.17.083,vts_reward_expectancy_bt,2022.2.4,MacIntel,60.82725061,Firefox,1440,900,,,a,0.884,1,191,1,0,1,1,11,1,0,0,0,1,0,0,1,0,star,hexagon,,,,,,,,,,,,,,,,,,,,,,,,,,,,,,,,,,,,,,,,,,,,,,,,,,,,,,
295030,2022-12-03_13h07.17.083,vts_reward_expectancy_bt,2022.2.4,MacIntel,60.82725061,Firefox,1440,900,,,l,0.387,10,201,1,0,2,2,0,1,1,0,0,0,0,1,0,0,triangle,circle,,,,,,,,,,,,,,,,,,,,,,,,,,,,,,,,,,,,,,,,,,,,,,,,,,,,,,
295030,2022-12-03_13h07.17.083,vts_reward_expectancy_bt,2022.2.4,MacIntel,60.82725061,Firefox,1440,900,,,l,0.422,10,211,1,0,3,3,9,1,0,0,0,1,1,0,0,0,star,triangle,,,,,,,,,,,,,,,,,,,,,,,,,,,,,,,,,,,,,,,,,,,,,,,,,,,,,,
295030,2022-12-03_13h07.17.083,vts_reward_expectancy_bt,2022.2.4,MacIntel,60.82725061,Firefox,1440,900,,,l,0.288,10,221,1,0,4,4,7,1,0,0,1,0,0,1,0,0,hexagon,circle,,,,,,,,,,,,,,,,,,,,,,,,,,,,,,,,,,,,,,,,,,,,,,,,,,,,,,
295030,2022-12-03_13h07.17.083,vts_reward_expectancy_bt,2022.2.4,MacIntel,60.82725061,Firefox,1440,900,,,l,0.254,1,222,1,0,5,5,4,1,0,1,0,0,0,0,1,0,circle,hexagon,,,,,,,,,,,,,,,,,,,,,,,,,,,,,,,,,,,,,,,,,,,,,,,,,,,,,,
295030,2022-12-03_13h07.17.083,vts_reward_expectancy_bt,2022.2.4,MacIntel,60.82725061,Firefox,1440,900,,,a,0.271,1,223,1,0,6,6,3,1,0,1,0,0,1,0,0,0,circle,triangle,,,,,,,,,,,,,,,,,,,,,,,,,,,,,,,,,,,,,,,,,,,,,,,,,,,,,,
295030,2022-12-03_13h07.17.083,vts_reward_expectancy_bt,2022.2.4,MacIntel,60.82725061,Firefox,1440,900,,,l,0.388,10,233,1,0,7,7,2,1,1,0,0,0,0,0,0,1,triangle,star,,,,,,,,,,,,,,,,,,,,,,,,,,,,,,,,,,,,,,,,,,,,,,,,,,,,,,
295030,2022-12-03_13h07.17.083,vts_reward_expectancy_bt,2022.2.4,MacIntel,60.82725061,Firefox,1440,900,,,l,0.424,1,234,1,0,8,8,8,1,0,0,1,0,0,0,0,1,hexagon,star,,,,,,,,,,,,,,,,,,,,,,,,,,,,,,,,,,,,,,,,,,,,,,,,,,,,,,
295030,2022-12-03_13h07.17.083,vts_reward_expectancy_bt,2022.2.4,MacIntel,60.82725061,Firefox,1440,900,,,l,0.473,1,235,1,0,9,9,10,1,0,0,0,1,0,1,0,0,star ,circle,,,,,,,,,,,,,,,,,,,,,,,,,,,,,,,,,,,,,,,,,,,,,,,,,,,,,,
295030,2022-12-03_13h07.17.083,vts_reward_expectancy_bt,2022.2.4,MacIntel,60.82725061,Firefox,1440,900,,,l,0.404,10,245,1,0,10,10,5,1,0,1,0,0,0,0,0,1,circle,star,,,,,,,,,,,,,,,,,,,,,,,,,,,,,,,,,,,,,,,,,,,,,,,,,,,,,,
295030,2022-12-03_13h07.17.083,vts_reward_expectancy_bt,2022.2.4,MacIntel,60.82725061,Firefox,1440,900,,,l,0.44,1,246,1,0,11,11,1,1,1,0,0,0,0,0,1,0,triangle,hexagon,,,,,,,,,,,,,,,,,,,,,,,,,,,,,,,,,,,,,,,,,,,,,,,,,,,,,,
295030,2022-12-03_13h07.17.083,vts_reward_expectancy_bt,2022.2.4,MacIntel,60.82725061,Firefox,1440,900,,,l,0.387,10,256,1,1,0,12,3,1,0,1,0,0,1,0,0,0,circle,triangle,,,,,,,,,,,,,,,,,,,,,,,,,,,,,,,,,,,,,,,,,,,,,,,,,,,,,,
295030,2022-12-03_13h07.17.083,vts_reward_expectancy_bt,2022.2.4,MacIntel,60.82725061,Firefox,1440,900,,,l,0.439,1,257,1,1,1,13,1,1,1,0,0,0,0,0,1,0,triangle,hexagon,,,,,,,,,,,,,,,,,,,,,,,,,,,,,,,,,,,,,,,,,,,,,,,,,,,,,,
295030,2022-12-03_13h07.17.083,vts_reward_expectancy_bt,2022.2.4,MacIntel,60.82725061,Firefox,1440,900,,,l,0.285,1,258,1,1,2,14,4,1,0,1,0,0,0,0,1,0,circle,hexagon,,,,,,,,,,,,,,,,,,,,,,,,,,,,,,,,,,,,,,,,,,,,,,,,,,,,,,
295030,2022-12-03_13h07.17.083,vts_reward_expectancy_bt,2022.2.4,MacIntel,60.82725061,Firefox,1440,900,,,l,0.538,10,268,1,1,3,15,6,1,0,0,1,0,1,0,0,0,hexagon,triangle,,,,,,,,,,,,,,,,,,,,,,,,,,,,,,,,,,,,,,,,,,,,,,,,,,,,,,
295030,2022-12-03_13h07.17.083,vts_reward_expectancy_bt,2022.2.4,MacIntel,60.82725061,Firefox,1440,900,,,l,0.306,10,278,1,1,4,16,10,1,0,0,0,1,0,1,0,0,star ,circle,,,,,,,,,,,,,,,,,,,,,,,,,,,,,,,,,,,,,,,,,,,,,,,,,,,,,,
295030,2022-12-03_13h07.17.083,vts_reward_expectancy_bt,2022.2.4,MacIntel,60.82725061,Firefox,1440,900,,,a,5.919,1,279,1,1,5,17,5,1,0,1,0,0,0,0,0,1,circle,star,,,,,,,,,,,,,,,,,,,,,,,,,,,,,,,,,,,,,,,,,,,,,,,,,,,,,,
295030,2022-12-03_13h07.17.083,vts_reward_expectancy_bt,2022.2.4,MacIntel,60.82725061,Firefox,1440,900,,,l,5.782,10,289,1,1,6,18,7,1,0,0,1,0,0,1,0,0,hexagon,circle,,,,,,,,,,,,,,,,,,,,,,,,,,,,,,,,,,,,,,,,,,,,,,,,,,,,,,
295030,2022-12-03_13h07.17.083,vts_reward_expectancy_bt,2022.2.4,MacIntel,60.82725061,Firefox,1440,900,,,l,0.321,10,299,1,1,7,19,9,1,0,0,0,1,1,0,0,0,star,triangle,,,,,,,,,,,,,,,,,,,,,,,,,,,,,,,,,,,,,,,,,,,,,,,,,,,,,,
295030,2022-12-03_13h07.17.083,vts_reward_expectancy_bt,2022.2.4,MacIntel,60.82725061,Firefox,1440,900,,,l,0.504,1,300,1,1,8,20,2,1,1,0,0,0,0,0,0,1,triangle,star,,,,,,,,,,,,,,,,,,,,,,,,,,,,,,,,,,,,,,,,,,,,,,,,,,,,,,
295030,2022-12-03_13h07.17.083,vts_reward_expectancy_bt,2022.2.4,MacIntel,60.82725061,Firefox,1440,900,,,a,0.503,1,301,1,1,9,21,11,1,0,0,0,1,0,0,1,0,star,hexagon,,,,,,,,,,,,,,,,,,,,,,,,,,,,,,,,,,,,,,,,,,,,,,,,,,,,,,
295030,2022-12-03_13h07.17.083,vts_reward_expectancy_bt,2022.2.4,MacIntel,60.82725061,Firefox,1440,900,,,l,0.819,1,302,1,1,10,22,0,1,1,0,0,0,0,1,0,0,triangle,circle,,,,,,,,,,,,,,,,,,,,,,,,,,,,,,,,,,,,,,,,,,,,,,,,,,,,,,
295030,2022-12-03_13h07.17.083,vts_reward_expectancy_bt,2022.2.4,MacIntel,60.82725061,Firefox,1440,900,,,a,0.506,1,303,1,1,11,23,8,1,0,0,1,0,0,0,0,1,hexagon,star,,,,,,,,,,,,,,,,,,,,,,,,,,,,,,,,,,,,,,,,,,,,,,,,,,,,,,
295030,2022-12-03_13h07.17.083,vts_reward_expectancy_bt,2022.2.4,MacIntel,60.82725061,Firefox,1440,900,,,l,0.441,1,304,1,2,0,24,11,1,0,0,0,1,0,0,1,0,star,hexagon,,,,,,,,,,,,,,,,,,,,,,,,,,,,,,,,,,,,,,,,,,,,,,,,,,,,,,
295030,2022-12-03_13h07.17.083,vts_reward_expectancy_bt,2022.2.4,MacIntel,60.82725061,Firefox,1440,900,,,l,0.236,10,314,1,2,1,25,10,1,0,0,0,1,0,1,0,0,star ,circle,,,,,,,,,,,,,,,,,,,,,,,,,,,,,,,,,,,,,,,,,,,,,,,,,,,,,,
295030,2022-12-03_13h07.17.083,vts_reward_expectancy_bt,2022.2.4,MacIntel,60.82725061,Firefox,1440,900,,,l,0.323,10,324,1,2,2,26,9,1,0,0,0,1,1,0,0,0,star,triangle,,,,,,,,,,,,,,,,,,,,,,,,,,,,,,,,,,,,,,,,,,,,,,,,,,,,,,
295030,2022-12-03_13h07.17.083,vts_reward_expectancy_bt,2022.2.4,MacIntel,60.82725061,Firefox,1440,900,,,l,0.322,10,334,1,2,3,27,6,1,0,0,1,0,1,0,0,0,hexagon,triangle,,,,,,,,,,,,,,,,,,,,,,,,,,,,,,,,,,,,,,,,,,,,,,,,,,,,,,
295030,2022-12-03_13h07.17.083,vts_reward_expectancy_bt,2022.2.4,MacIntel,60.82725061,Firefox,1440,900,,,l,0.45,10,344,1,2,4,28,1,1,1,0,0,0,0,0,1,0,triangle,hexagon,,,,,,,,,,,,,,,,,,,,,,,,,,,,,,,,,,,,,,,,,,,,,,,,,,,,,,
295030,2022-12-03_13h07.17.083,vts_reward_expectancy_bt,2022.2.4,MacIntel,60.82725061,Firefox,1440,900,,,l,0.933,10,354,1,2,5,29,7,1,0,0,1,0,0,1,0,0,hexagon,circle,,,,,,,,,,,,,,,,,,,,,,,,,,,,,,,,,,,,,,,,,,,,,,,,,,,,,,
295030,2022-12-03_13h07.17.083,vts_reward_expectancy_bt,2022.2.4,MacIntel,60.82725061,Firefox,1440,900,,,l,0.517,10,364,1,2,6,30,3,1,0,1,0,0,1,0,0,0,circle,triangle,,,,,,,,,,,,,,,,,,,,,,,,,,,,,,,,,,,,,,,,,,,,,,,,,,,,,,
295030,2022-12-03_13h07.17.083,vts_reward_expectancy_bt,2022.2.4,MacIntel,60.82725061,Firefox,1440,900,,,l,0.337,1,365,1,2,7,31,2,1,1,0,0,0,0,0,0,1,triangle,star,,,,,,,,,,,,,,,,,,,,,,,,,,,,,,,,,,,,,,,,,,,,,,,,,,,,,,
295030,2022-12-03_13h07.17.083,vts_reward_expectancy_bt,2022.2.4,MacIntel,60.82725061,Firefox,1440,900,,,l,0.339,1,366,1,2,8,32,8,1,0,0,1,0,0,0,0,1,hexagon,star,,,,,,,,,,,,,,,,,,,,,,,,,,,,,,,,,,,,,,,,,,,,,,,,,,,,,,
295030,2022-12-03_13h07.17.083,vts_reward_expectancy_bt,2022.2.4,MacIntel,60.82725061,Firefox,1440,900,,,l,0.185,10,376,1,2,9,33,5,1,0,1,0,0,0,0,0,1,circle,star,,,,,,,,,,,,,,,,,,,,,,,,,,,,,,,,,,,,,,,,,,,,,,,,,,,,,,
295030,2022-12-03_13h07.17.083,vts_reward_expectancy_bt,2022.2.4,MacIntel,60.82725061,Firefox,1440,900,,,l,0.404,1,377,1,2,10,34,4,1,0,1,0,0,0,0,1,0,circle,hexagon,,,,,,,,,,,,,,,,,,,,,,,,,,,,,,,,,,,,,,,,,,,,,,,,,,,,,,
295030,2022-12-03_13h07.17.083,vts_reward_expectancy_bt,2022.2.4,MacIntel,60.82725061,Firefox,1440,900,,,a,0.422,10,387,1,2,11,35,0,1,1,0,0,0,0,1,0,0,triangle,circle,,,,,,,,,,,,,,,,,,,,,,,,,,,,,,,,,,,,,,,,,,,,,,,,,,,,,,
295030,2022-12-03_13h07.17.083,vts_reward_expectancy_bt,2022.2.4,MacIntel,60.82725061,Firefox,1440,900,,,l,1.038,1,388,2,0,0,0,6,1,0,0,1,0,1,0,0,0,hexagon,triangle,,,,,,,,,,,,,,,,,,,,,,,,,,,,,,,,,,,,,,,,,,,,,,,,,,,,,,
295030,2022-12-03_13h07.17.083,vts_reward_expectancy_bt,2022.2.4,MacIntel,60.82725061,Firefox,1440,900,,,l,0.854,1,389,2,0,1,1,2,1,1,0,0,0,0,0,0,1,triangle,star,,,,,,,,,,,,,,,,,,,,,,,,,,,,,,,,,,,,,,,,,,,,,,,,,,,,,,
295030,2022-12-03_13h07.17.083,vts_reward_expectancy_bt,2022.2.4,MacIntel,60.82725061,Firefox,1440,900,,,a,0.663,1,390,2,0,2,2,5,1,0,1,0,0,0,0,0,1,circle,star,,,,,,,,,,,,,,,,,,,,,,,,,,,,,,,,,,,,,,,,,,,,,,,,,,,,,,
295030,2022-12-03_13h07.17.083,vts_reward_expectancy_bt,2022.2.4,MacIntel,60.82725061,Firefox,1440,900,,,a,0.751,10,400,2,0,3,3,9,1,0,0,0,1,1,0,0,0,star,triangle,,,,,,,,,,,,,,,,,,,,,,,,,,,,,,,,,,,,,,,,,,,,,,,,,,,,,,
295030,2022-12-03_13h07.17.083,vts_reward_expectancy_bt,2022.2.4,MacIntel,60.82725061,Firefox,1440,900,,,l,0.486,10,410,2,0,4,4,3,1,0,1,0,0,1,0,0,0,circle,triangle,,,,,,,,,,,,,,,,,,,,,,,,,,,,,,,,,,,,,,,,,,,,,,,,,,,,,,
295030,2022-12-03_13h07.17.083,vts_reward_expectancy_bt,2022.2.4,MacIntel,60.82725061,Firefox,1440,900,,,l,0.421,1,411,2,0,5,5,8,1,0,0,1,0,0,0,0,1,hexagon,star,,,,,,,,,,,,,,,,,,,,,,,,,,,,,,,,,,,,,,,,,,,,,,,,,,,,,,
295030,2022-12-03_13h07.17.083,vts_reward_expectancy_bt,2022.2.4,MacIntel,60.82725061,Firefox,1440,900,,,l,0.4,10,421,2,0,6,6,10,1,0,0,0,1,0,1,0,0,star ,circle,,,,,,,,,,,,,,,,,,,,,,,,,,,,,,,,,,,,,,,,,,,,,,,,,,,,,,
295030,2022-12-03_13h07.17.083,vts_reward_expectancy_bt,2022.2.4,MacIntel,60.82725061,Firefox,1440,900,,,a,0.59,1,422,2,0,7,7,7,1,0,0,1,0,0,1,0,0,hexagon,circle,,,,,,,,,,,,,,,,,,,,,,,,,,,,,,,,,,,,,,,,,,,,,,,,,,,,,,
295030,2022-12-03_13h07.17.083,vts_reward_expectancy_bt,2022.2.4,MacIntel,60.82725061,Firefox,1440,900,,,l,0.287,10,432,2,0,8,8,1,1,1,0,0,0,0,0,1,0,triangle,hexagon,,,,,,,,,,,,,,,,,,,,,,,,,,,,,,,,,,,,,,,,,,,,,,,,,,,,,,
295030,2022-12-03_13h07.17.083,vts_reward_expectancy_bt,2022.2.4,MacIntel,60.82725061,Firefox,1440,900,,,l,0.323,1,433,2,0,9,9,11,1,0,0,0,1,0,0,1,0,star,hexagon,,,,,,,,,,,,,,,,,,,,,,,,,,,,,,,,,,,,,,,,,,,,,,,,,,,,,,
295030,2022-12-03_13h07.17.083,vts_reward_expectancy_bt,2022.2.4,MacIntel,60.82725061,Firefox,1440,900,,,l,0.321,10,443,2,0,10,10,0,1,1,0,0,0,0,1,0,0,triangle,circle,,,,,,,,,,,,,,,,,,,,,,,,,,,,,,,,,,,,,,,,,,,,,,,,,,,,,,
295030,2022-12-03_13h07.17.083,vts_reward_expectancy_bt,2022.2.4,MacIntel,60.82725061,Firefox,1440,900,,,a,0.272,10,453,2,0,11,11,4,1,0,1,0,0,0,0,1,0,circle,hexagon,,,,,,,,,,,,,,,,,,,,,,,,,,,,,,,,,,,,,,,,,,,,,,,,,,,,,,
295030,2022-12-03_13h07.17.083,vts_reward_expectancy_bt,2022.2.4,MacIntel,60.82725061,Firefox,1440,900,,,l,0.358,10,463,2,1,0,12,5,1,0,1,0,0,0,0,0,1,circle,star,,,,,,,,,,,,,,,,,,,,,,,,,,,,,,,,,,,,,,,,,,,,,,,,,,,,,,
295030,2022-12-03_13h07.17.083,vts_reward_expectancy_bt,2022.2.4,MacIntel,60.82725061,Firefox,1440,900,,,l,0.339,10,473,2,1,1,13,8,1,0,0,1,0,0,0,0,1,hexagon,star,,,,,,,,,,,,,,,,,,,,,,,,,,,,,,,,,,,,,,,,,,,,,,,,,,,,,,
295030,2022-12-03_13h07.17.083,vts_reward_expectancy_bt,2022.2.4,MacIntel,60.82725061,Firefox,1440,900,,,l,0.286,1,474,2,1,2,14,0,1,1,0,0,0,0,1,0,0,triangle,circle,,,,,,,,,,,,,,,,,,,,,,,,,,,,,,,,,,,,,,,,,,,,,,,,,,,,,,
295030,2022-12-03_13h07.17.083,vts_reward_expectancy_bt,2022.2.4,MacIntel,60.82725061,Firefox,1440,900,,,a,0.326,1,475,2,1,3,15,9,1,0,0,0,1,1,0,0,0,star,triangle,,,,,,,,,,,,,,,,,,,,,,,,,,,,,,,,,,,,,,,,,,,,,,,,,,,,,,
295030,2022-12-03_13h07.17.083,vts_reward_expectancy_bt,2022.2.4,MacIntel,60.82725061,Firefox,1440,900,,,l,0.338,10,485,2,1,4,16,4,1,0,1,0,0,0,0,1,0,circle,hexagon,,,,,,,,,,,,,,,,,,,,,,,,,,,,,,,,,,,,,,,,,,,,,,,,,,,,,,
295030,2022-12-03_13h07.17.083,vts_reward_expectancy_bt,2022.2.4,MacIntel,60.82725061,Firefox,1440,900,,,l,0.218,1,486,2,1,5,17,1,1,1,0,0,0,0,0,1,0,triangle,hexagon,,,,,,,,,,,,,,,,,,,,,,,,,,,,,,,,,,,,,,,,,,,,,,,,,,,,,,
295030,2022-12-03_13h07.17.083,vts_reward_expectancy_bt,2022.2.4,MacIntel,60.82725061,Firefox,1440,900,,,a,0.236,10,496,2,1,6,18,6,1,0,0,1,0,1,0,0,0,hexagon,triangle,,,,,,,,,,,,,,,,,,,,,,,,,,,,,,,,,,,,,,,,,,,,,,,,,,,,,,
295030,2022-12-03_13h07.17.083,vts_reward_expectancy_bt,2022.2.4,MacIntel,60.82725061,Firefox,1440,900,,,l,0.289,10,506,2,1,7,19,10,1,0,0,0,1,0,1,0,0,star ,circle,,,,,,,,,,,,,,,,,,,,,,,,,,,,,,,,,,,,,,,,,,,,,,,,,,,,,,
295030,2022-12-03_13h07.17.083,vts_reward_expectancy_bt,2022.2.4,MacIntel,60.82725061,Firefox,1440,900,,,l,0.384,1,507,2,1,8,20,2,1,1,0,0,0,0,0,0,1,triangle,star,,,,,,,,,,,,,,,,,,,,,,,,,,,,,,,,,,,,,,,,,,,,,,,,,,,,,,
295030,2022-12-03_13h07.17.083,vts_reward_expectancy_bt,2022.2.4,MacIntel,60.82725061,Firefox,1440,900,,,a,0.255,10,517,2,1,9,21,11,1,0,0,0,1,0,0,1,0,star,hexagon,,,,,,,,,,,,,,,,,,,,,,,,,,,,,,,,,,,,,,,,,,,,,,,,,,,,,,
295030,2022-12-03_13h07.17.083,vts_reward_expectancy_bt,2022.2.4,MacIntel,60.82725061,Firefox,1440,900,,,l,0.272,1,518,2,1,10,22,3,1,0,1,0,0,1,0,0,0,circle,triangle,,,,,,,,,,,,,,,,,,,,,,,,,,,,,,,,,,,,,,,,,,,,,,,,,,,,,,
295030,2022-12-03_13h07.17.083,vts_reward_expectancy_bt,2022.2.4,MacIntel,60.82725061,Firefox,1440,900,,,a,0.504,1,519,2,1,11,23,7,1,0,0,1,0,0,1,0,0,hexagon,circle,,,,,,,,,,,,,,,,,,,,,,,,,,,,,,,,,,,,,,,,,,,,,,,,,,,,,,
295030,2022-12-03_13h07.17.083,vts_reward_expectancy_bt,2022.2.4,MacIntel,60.82725061,Firefox,1440,900,,,l,0.404,1,520,2,2,0,24,2,1,1,0,0,0,0,0,0,1,triangle,star,,,,,,,,,,,,,,,,,,,,,,,,,,,,,,,,,,,,,,,,,,,,,,,,,,,,,,
295030,2022-12-03_13h07.17.083,vts_reward_expectancy_bt,2022.2.4,MacIntel,60.82725061,Firefox,1440,900,,,l,0.388,10,530,2,2,1,25,11,1,0,0,0,1,0,0,1,0,star,hexagon,,,,,,,,,,,,,,,,,,,,,,,,,,,,,,,,,,,,,,,,,,,,,,,,,,,,,,
295030,2022-12-03_13h07.17.083,vts_reward_expectancy_bt,2022.2.4,MacIntel,60.82725061,Firefox,1440,900,,,l,0.271,1,531,2,2,2,26,4,1,0,1,0,0,0,0,1,0,circle,hexagon,,,,,,,,,,,,,,,,,,,,,,,,,,,,,,,,,,,,,,,,,,,,,,,,,,,,,,
295030,2022-12-03_13h07.17.083,vts_reward_expectancy_bt,2022.2.4,MacIntel,60.82725061,Firefox,1440,900,,,a,0.29,10,541,2,2,3,27,3,1,0,1,0,0,1,0,0,0,circle,triangle,,,,,,,,,,,,,,,,,,,,,,,,,,,,,,,,,,,,,,,,,,,,,,,,,,,,,,
295030,2022-12-03_13h07.17.083,vts_reward_expectancy_bt,2022.2.4,MacIntel,60.82725061,Firefox,1440,900,,,l,0.205,10,551,2,2,4,28,1,1,1,0,0,0,0,0,1,0,triangle,hexagon,,,,,,,,,,,,,,,,,,,,,,,,,,,,,,,,,,,,,,,,,,,,,,,,,,,,,,
295030,2022-12-03_13h07.17.083,vts_reward_expectancy_bt,2022.2.4,MacIntel,60.82725061,Firefox,1440,900,,,l,0.401,1,552,2,2,5,29,8,1,0,0,1,0,0,0,0,1,hexagon,star,,,,,,,,,,,,,,,,,,,,,,,,,,,,,,,,,,,,,,,,,,,,,,,,,,,,,,
295030,2022-12-03_13h07.17.083,vts_reward_expectancy_bt,2022.2.4,MacIntel,60.82725061,Firefox,1440,900,,,a,0.154,1,553,2,2,6,30,6,1,0,0,1,0,1,0,0,0,hexagon,triangle,,,,,,,,,,,,,,,,,,,,,,,,,,,,,,,,,,,,,,,,,,,,,,,,,,,,,,
295030,2022-12-03_13h07.17.083,vts_reward_expectancy_bt,2022.2.4,MacIntel,60.82725061,Firefox,1440,900,,,l,0.383,10,563,2,2,7,31,7,1,0,0,1,0,0,1,0,0,hexagon,circle,,,,,,,,,,,,,,,,,,,,,,,,,,,,,,,,,,,,,,,,,,,,,,,,,,,,,,
295030,2022-12-03_13h07.17.083,vts_reward_expectancy_bt,2022.2.4,MacIntel,60.82725061,Firefox,1440,900,,,l,0.352,10,573,2,2,8,32,9,1,0,0,0,1,1,0,0,0,star,triangle,,,,,,,,,,,,,,,,,,,,,,,,,,,,,,,,,,,,,,,,,,,,,,,,,,,,,,
295030,2022-12-03_13h07.17.083,vts_reward_expectancy_bt,2022.2.4,MacIntel,60.82725061,Firefox,1440,900,,,l,0.268,1,574,2,2,9,33,10,1,0,0,0,1,0,1,0,0,star ,circle,,,,,,,,,,,,,,,,,,,,,,,,,,,,,,,,,,,,,,,,,,,,,,,,,,,,,,
295030,2022-12-03_13h07.17.083,vts_reward_expectancy_bt,2022.2.4,MacIntel,60.82725061,Firefox,1440,900,,,l,0.669,1,575,2,2,10,34,0,1,1,0,0,0,0,1,0,0,triangle,circle,,,,,,,,,,,,,,,,,,,,,,,,,,,,,,,,,,,,,,,,,,,,,,,,,,,,,,
295030,2022-12-03_13h07.17.083,vts_reward_expectancy_bt,2022.2.4,MacIntel,60.82725061,Firefox,1440,900,,,l,0.124,10,585,2,2,11,35,5,1,0,1,0,0,0,0,0,1,circle,star,,,,,,,,,,,,,,,,,,,,,,,,,,,,,,,,,,,,,,,,,,,,,,,,,,,,,,
295030,2022-12-03_13h07.17.083,vts_reward_expectancy_bt,2022.2.4,MacIntel,60.82725061,Firefox,1440,900,,,,,,,,,,,,,,,,,,,,,,,W,132,triangle,0,0,d,2.834,0,0,0,0,0,1,,,,,,,,,,,,,,,,,,,,,,,,,,,,,,,,,,,,,,,,,
295030,2022-12-03_13h07.17.083,vts_reward_expectancy_bt,2022.2.4,MacIntel,60.82725061,Firefox,1440,900,,,,,,,,,,,,,,,,,,,,,,,S,160,hexagon,1,1,f,0.335,0,1,0,1,0,1,,,,,,,,,,,,,,,,,,,,,,,,,,,,,,,,,,,,,,,,,
295030,2022-12-03_13h07.17.083,vts_reward_expectancy_bt,2022.2.4,MacIntel,60.82725061,Firefox,1440,900,,,,,,,,,,,,,,,,,,,,,,,U,174,star,0,0,d,0.701,0,2,0,2,0,1,,,,,,,,,,,,,,,,,,,,,,,,,,,,,,,,,,,,,,,,,
295030,2022-12-03_13h07.17.083,vts_reward_expectancy_bt,2022.2.4,MacIntel,60.82725061,Firefox,1440,900,,,,,,,,,,,,,,,,,,,,,,,D,146,circle,0,1,f,0.303,0,3,0,3,0,1,,,,,,,,,,,,,,,,,,,,,,,,,,,,,,,,,,,,,,,,,
295030,2022-12-03_13h07.17.083,vts_reward_expectancy_bt,2022.2.4,MacIntel,60.82725061,Firefox,1440,900,,,,,,,,,,,,,,,,,,,,,,,F,139,triangle,1,1,d,0.438,0,4,0,4,0,1,,,,,,,,,,,,,,,,,,,,,,,,,,,,,,,,,,,,,,,,,
295030,2022-12-03_13h07.17.083,vts_reward_expectancy_bt,2022.2.4,MacIntel,60.82725061,Firefox,1440,900,,,,,,,,,,,,,,,,,,,,,,,H,125,hexagon,1,0,d,0.951,0,5,0,5,0,1,,,,,,,,,,,,,,,,,,,,,,,,,,,,,,,,,,,,,,,,,
295030,2022-12-03_13h07.17.083,vts_reward_expectancy_bt,2022.2.4,MacIntel,60.82725061,Firefox,1440,900,,,,,,,,,,,,,,,,,,,,,,,B,167,star,1,0,d,0.673,0,6,0,6,0,1,,,,,,,,,,,,,,,,,,,,,,,,,,,,,,,,,,,,,,,,,
295030,2022-12-03_13h07.17.083,vts_reward_expectancy_bt,2022.2.4,MacIntel,60.82725061,Firefox,1440,900,,,,,,,,,,,,,,,,,,,,,,,Y,181,circle,1,0,f,0.65,0,7,0,7,0,1,,,,,,,,,,,,,,,,,,,,,,,,,,,,,,,,,,,,,,,,,
295030,2022-12-03_13h07.17.083,vts_reward_expectancy_bt,2022.2.4,MacIntel,60.82725061,Firefox,1440,900,,,,,,,,,,,,,,,,,,,,,,,W,132,hexagon,1,0,f,0.636,0,8,0,8,0,1,,,,,,,,,,,,,,,,,,,,,,,,,,,,,,,,,,,,,,,,,
295030,2022-12-03_13h07.17.083,vts_reward_expectancy_bt,2022.2.4,MacIntel,60.82725061,Firefox,1440,900,,,,,,,,,,,,,,,,,,,,,,,S,160,star,1,0,f,0.719,0,9,0,9,0,1,,,,,,,,,,,,,,,,,,,,,,,,,,,,,,,,,,,,,,,,,
295030,2022-12-03_13h07.17.083,vts_reward_expectancy_bt,2022.2.4,MacIntel,60.82725061,Firefox,1440,900,,,,,,,,,,,,,,,,,,,,,,,B,174,hexagon,1,0,d,1.451,1,0,0,0,0,1,,,,,,,,,,,,,,,,,,,,,,,,,,,,,,,,,,,,,,,,,
295030,2022-12-03_13h07.17.083,vts_reward_expectancy_bt,2022.2.4,MacIntel,60.82725061,Firefox,1440,900,,,,,,,,,,,,,,,,,,,,,,,W,181,star,1,0,f,0.65,1,1,0,1,0,1,,,,,,,,,,,,,,,,,,,,,,,,,,,,,,,,,,,,,,,,,
295030,2022-12-03_13h07.17.083,vts_reward_expectancy_bt,2022.2.4,MacIntel,60.82725061,Firefox,1440,900,,,,,,,,,,,,,,,,,,,,,,,Y,160,triangle,0,0,,,1,2,0,2,0,1,,,,,,,,,,,,,,,,,,,,,,,,,,,,,,,,,,,,,,,,,
295030,2022-12-03_13h07.17.083,vts_reward_expectancy_bt,2022.2.4,MacIntel,60.82725061,Firefox,1440,900,,,,,,,,,,,,,,,,,,,,,,,U,146,circle,1,1,f,0.585,1,3,0,3,0,1,,,,,,,,,,,,,,,,,,,,,,,,,,,,,,,,,,,,,,,,,
295030,2022-12-03_13h07.17.083,vts_reward_expectancy_bt,2022.2.4,MacIntel,60.82725061,Firefox,1440,900,,,,,,,,,,,,,,,,,,,,,,,D,139,hexagon,1,0,d,0.569,1,4,0,4,0,1,,,,,,,,,,,,,,,,,,,,,,,,,,,,,,,,,,,,,,,,,
295030,2022-12-03_13h07.17.083,vts_reward_expectancy_bt,2022.2.4,MacIntel,60.82725061,Firefox,1440,900,,,,,,,,,,,,,,,,,,,,,,,H,167,star,0,0,f,0.539,1,5,0,5,0,1,,,,,,,,,,,,,,,,,,,,,,,,,,,,,,,,,,,,,,,,,
295030,2022-12-03_13h07.17.083,vts_reward_expectancy_bt,2022.2.4,MacIntel,60.82725061,Firefox,1440,900,,,,,,,,,,,,,,,,,,,,,,,S,125,triangle,0,1,d,0.569,1,6,0,6,0,1,,,,,,,,,,,,,,,,,,,,,,,,,,,,,,,,,,,,,,,,,
295030,2022-12-03_13h07.17.083,vts_reward_expectancy_bt,2022.2.4,MacIntel,60.82725061,Firefox,1440,900,,,,,,,,,,,,,,,,,,,,,,,F,132,circle,0,1,f,0.686,1,7,0,7,0,1,,,,,,,,,,,,,,,,,,,,,,,,,,,,,,,,,,,,,,,,,
295030,2022-12-03_13h07.17.083,vts_reward_expectancy_bt,2022.2.4,MacIntel,60.82725061,Firefox,1440,900,,,,,,,,,,,,,,,,,,,,,,,B,174,circle,1,1,d,0.488,1,8,0,8,0,1,,,,,,,,,,,,,,,,,,,,,,,,,,,,,,,,,,,,,,,,,
295030,2022-12-03_13h07.17.083,vts_reward_expectancy_bt,2022.2.4,MacIntel,60.82725061,Firefox,1440,900,,,,,,,,,,,,,,,,,,,,,,,W,181,triangle,1,0,f,0.67,1,9,0,9,0,1,,,,,,,,,,,,,,,,,,,,,,,,,,,,,,,,,,,,,,,,,
295030,2022-12-03_13h07.17.083,vts_reward_expectancy_bt,2022.2.4,MacIntel,60.82725061,Firefox,1440,900,,,,,,,,,,,,,,,,,,,,,,,W,139,star,1,0,f,0.851,2,0,0,0,0,1,,,,,,,,,,,,,,,,,,,,,,,,,,,,,,,,,,,,,,,,,
295030,2022-12-03_13h07.17.083,vts_reward_expectancy_bt,2022.2.4,MacIntel,60.82725061,Firefox,1440,900,,,,,,,,,,,,,,,,,,,,,,,F,174,triangle,1,0,d,1.02,2,1,0,1,0,1,,,,,,,,,,,,,,,,,,,,,,,,,,,,,,,,,,,,,,,,,
295030,2022-12-03_13h07.17.083,vts_reward_expectancy_bt,2022.2.4,MacIntel,60.82725061,Firefox,1440,900,,,,,,,,,,,,,,,,,,,,,,,U,132,hexagon,1,0,f,0.901,2,2,0,2,0,1,,,,,,,,,,,,,,,,,,,,,,,,,,,,,,,,,,,,,,,,,
295030,2022-12-03_13h07.17.083,vts_reward_expectancy_bt,2022.2.4,MacIntel,60.82725061,Firefox,1440,900,,,,,,,,,,,,,,,,,,,,,,,B,160,circle,1,0,d,0.821,2,3,0,3,0,1,,,,,,,,,,,,,,,,,,,,,,,,,,,,,,,,,,,,,,,,,
295030,2022-12-03_13h07.17.083,vts_reward_expectancy_bt,2022.2.4,MacIntel,60.82725061,Firefox,1440,900,,,,,,,,,,,,,,,,,,,,,,,Y,146,star,1,0,f,0.806,2,4,0,4,0,1,,,,,,,,,,,,,,,,,,,,,,,,,,,,,,,,,,,,,,,,,
295030,2022-12-03_13h07.17.083,vts_reward_expectancy_bt,2022.2.4,MacIntel,60.82725061,Firefox,1440,900,,,,,,,,,,,,,,,,,,,,,,,S,125,triangle,1,0,f,0.907,2,5,0,5,0,1,,,,,,,,,,,,,,,,,,,,,,,,,,,,,,,,,,,,,,,,,
295030,2022-12-03_13h07.17.083,vts_reward_expectancy_bt,2022.2.4,MacIntel,60.82725061,Firefox,1440,900,,,,,,,,,,,,,,,,,,,,,,,H,167,hexagon,1,0,d,1.139,2,6,0,6,0,1,,,,,,,,,,,,,,,,,,,,,,,,,,,,,,,,,,,,,,,,,
295030,2022-12-03_13h07.17.083,vts_reward_expectancy_bt,2022.2.4,MacIntel,60.82725061,Firefox,1440,900,,,,,,,,,,,,,,,,,,,,,,,D,181,circle,1,0,d,1.053,2,7,0,7,0,1,,,,,,,,,,,,,,,,,,,,,,,,,,,,,,,,,,,,,,,,,
295030,2022-12-03_13h07.17.083,vts_reward_expectancy_bt,2022.2.4,MacIntel,60.82725061,Firefox,1440,900,,,,,,,,,,,,,,,,,,,,,,,W,139,triangle,1,0,f,0.89,2,8,0,8,0,1,,,,,,,,,,,,,,,,,,,,,,,,,,,,,,,,,,,,,,,,,
295030,2022-12-03_13h07.17.083,vts_reward_expectancy_bt,2022.2.4,MacIntel,60.82725061,Firefox,1440,900,,,,,,,,,,,,,,,,,,,,,,,F,174,circle,1,0,d,1.566,2,9,0,9,0,1,,,,,,,,,,,,,,,,,,,,,,,,,,,,,,,,,,,,,,,,,
295030,2022-12-03_13h07.17.083,vts_reward_expectancy_bt,2022.2.4,MacIntel,60.82725061,Firefox,1440,900,,,,,,,,,,,,,,,,,,,,,,,H,146,circle,1,0,,,3,,,,,,j,0.886,0,0,0,0,1,,,,,,,,,,,,,,,,,,,,,,,,,,,,,,,,,,
295030,2022-12-03_13h07.17.083,vts_reward_expectancy_bt,2022.2.4,MacIntel,60.82725061,Firefox,1440,900,,,,,,,,,,,,,,,,,,,,,,,B,174,star,1,0,,,3,,,,,,k,0.753,1,0,1,0,1,,,,,,,,,,,,,,,,,,,,,,,,,,,,,,,,,,
295030,2022-12-03_13h07.17.083,vts_reward_expectancy_bt,2022.2.4,MacIntel,60.82725061,Firefox,1440,900,,,,,,,,,,,,,,,,,,,,,,,S,125,hexagon,1,0,,,3,,,,,,j,1.104,2,0,2,0,1,,,,,,,,,,,,,,,,,,,,,,,,,,,,,,,,,,
295030,2022-12-03_13h07.17.083,vts_reward_expectancy_bt,2022.2.4,MacIntel,60.82725061,Firefox,1440,900,,,,,,,,,,,,,,,,,,,,,,,Y,167,triangle,1,0,,,3,,,,,,k,1.383,3,0,3,0,1,,,,,,,,,,,,,,,,,,,,,,,,,,,,,,,,,,
295030,2022-12-03_13h07.17.083,vts_reward_expectancy_bt,2022.2.4,MacIntel,60.82725061,Firefox,1440,900,,,,,,,,,,,,,,,,,,,,,,,U,181,circle,1,0,,,3,,,,,,k,0.918,4,0,4,0,1,,,,,,,,,,,,,,,,,,,,,,,,,,,,,,,,,,
295030,2022-12-03_13h07.17.083,vts_reward_expectancy_bt,2022.2.4,MacIntel,60.82725061,Firefox,1440,900,,,,,,,,,,,,,,,,,,,,,,,W,132,star,0,0,,,3,,,,,,k,1.356,5,0,5,0,1,,,,,,,,,,,,,,,,,,,,,,,,,,,,,,,,,,
295030,2022-12-03_13h07.17.083,vts_reward_expectancy_bt,2022.2.4,MacIntel,60.82725061,Firefox,1440,900,,,,,,,,,,,,,,,,,,,,,,,D,139,hexagon,1,1,,,3,,,,,,j,2.171,6,0,6,0,1,,,,,,,,,,,,,,,,,,,,,,,,,,,,,,,,,,
295030,2022-12-03_13h07.17.083,vts_reward_expectancy_bt,2022.2.4,MacIntel,60.82725061,Firefox,1440,900,,,,,,,,,,,,,,,,,,,,,,,F,160,triangle,1,0,,,3,,,,,,k,1.271,7,0,7,0,1,,,,,,,,,,,,,,,,,,,,,,,,,,,,,,,,,,
295030,2022-12-03_13h07.17.083,vts_reward_expectancy_bt,2022.2.4,MacIntel,60.82725061,Firefox,1440,900,,,,,,,,,,,,,,,,,,,,,,,H,146,hexagon,1,0,,,3,,,,,,j,1.803,8,0,8,0,1,,,,,,,,,,,,,,,,,,,,,,,,,,,,,,,,,,
295030,2022-12-03_13h07.17.083,vts_reward_expectancy_bt,2022.2.4,MacIntel,60.82725061,Firefox,1440,900,,,,,,,,,,,,,,,,,,,,,,,B,174,circle,1,0,,,3,,,,,,k,0.585,9,0,9,0,1,,,,,,,,,,,,,,,,,,,,,,,,,,,,,,,,,,
295030,2022-12-03_13h07.17.083,vts_reward_expectancy_bt,2022.2.4,MacIntel,60.82725061,Firefox,1440,900,,,,,0,585,,,,,,,,,,,,,,,,,H,132,star,1,0,,,4,,,,,,,,,,,,,-1,letter,NA,d,2.686,vtsPrac,0,0,0,0,1,,,,,,,,,,,,,,,,,,,,,,,
295030,2022-12-03_13h07.17.083,vts_reward_expectancy_bt,2022.2.4,MacIntel,60.82725061,Firefox,1440,900,,,,,0,585,,,,,,,,,,,,,,,,,B,181,triangle,1,0,,,4,,,,,,,,,,,,,repeat,letter,lettRpt,d,1.538,vtsPrac,1,0,1,0,1,,,,,,,,,,,,,,,,,,,,,,,
295030,2022-12-03_13h07.17.083,vts_reward_expectancy_bt,2022.2.4,MacIntel,60.82725061,Firefox,1440,900,,,,,0,585,,,,,,,,,,,,,,,,,W,167,star,1,0,,,4,,,,,,,,,,,,,switch,number,numSwt,k,1.349,vtsPrac,2,0,2,0,1,,,,,,,,,,,,,,,,,,,,,,,
295030,2022-12-03_13h07.17.083,vts_reward_expectancy_bt,2022.2.4,MacIntel,60.82725061,Firefox,1440,900,,,,,0,585,,,,,,,,,,,,,,,,,F,160,triangle,1,0,,,4,,,,,,,,,,,,,repeat,number,numRpt,k,0.968,vtsPrac,3,0,3,0,1,,,,,,,,,,,,,,,,,,,,,,,
295030,2022-12-03_13h07.17.083,vts_reward_expectancy_bt,2022.2.4,MacIntel,60.82725061,Firefox,1440,900,,,,,0,585,,,,,,,,,,,,,,,,,H,132,star,1,0,,,4,,,,,,,,,,,,,repeat,number,numRpt,j,0.687,vtsPrac,4,0,4,0,1,,,,,,,,,,,,,,,,,,,,,,,
295030,2022-12-03_13h07.17.083,vts_reward_expectancy_bt,2022.2.4,MacIntel,60.82725061,Firefox,1440,900,,,,,0,585,,,,,,,,,,,,,,,,,B,181,hexagon,1,0,,,4,,,,,,,,,,,,,switch,letter,lettSwt,d,0.752,vtsPrac,5,0,5,0,1,,,,,,,,,,,,,,,,,,,,,,,
295030,2022-12-03_13h07.17.083,vts_reward_expectancy_bt,2022.2.4,MacIntel,60.82725061,Firefox,1440,900,,,,,0,585,,,,,,,,,,,,,,,,,W,167,circle,1,0,,,4,,,,,,,,,,,,,switch,number,numSwt,k,0.736,vtsPrac,6,0,6,0,1,,,,,,,,,,,,,,,,,,,,,,,
295030,2022-12-03_13h07.17.083,vts_reward_expectancy_bt,2022.2.4,MacIntel,60.82725061,Firefox,1440,900,,,,,0,585,,,,,,,,,,,,,,,,,F,160,triangle,1,0,,,4,,,,,,,,,,,,,repeat,number,numRpt,k,2.169,vtsPrac,7,0,7,0,1,,,,,,,,,,,,,,,,,,,,,,,
295030,2022-12-03_13h07.17.083,vts_reward_expectancy_bt,2022.2.4,MacIntel,60.82725061,Firefox,1440,900,,,,,0,585,,,,,,,,,,,,,,,,,D,160,circle,1,0,,,4,,,,,,,,,,,,,repeat,number,numRpt,k,1.219,vtsPrac,8,0,8,0,1,,,,,,,,,,,,,,,,,,,,,,,
295030,2022-12-03_13h07.17.083,vts_reward_expectancy_bt,2022.2.4,MacIntel,60.82725061,Firefox,1440,900,,,,,0,585,,,,,,,,,,,,,,,,,B,181,hexagon,1,0,,,4,,,,,,,,,,,,,switch,letter,lettSwt,d,0.703,vtsPrac,9,0,9,0,1,,,,,,,,,,,,,,,,,,,,,,,
295030,2022-12-03_13h07.17.083,vts_reward_expectancy_bt,2022.2.4,MacIntel,60.82725061,Firefox,1440,900,,,,,0,585,,,,,,,,,,,,,,,,,F,167,hexagon,1,0,,,4,,,,,,,,,,,,,switch,number,numSwt,k,0.585,vtsPrac,10,0,10,0,1,,,,,,,,,,,,,,,,,,,,,,,
295030,2022-12-03_13h07.17.083,vts_reward_expectancy_bt,2022.2.4,MacIntel,60.82725061,Firefox,1440,900,,,,,0,585,,,,,,,,,,,,,,,,,W,125,star,-1,0,,,4,,,,,,,,,,,,,switch,no_choice,NA,,,vtsPrac,11,0,11,0,1,,,,,,,,,,,,,,,,,,,,,,,
295030,2022-12-03_13h07.17.083,vts_reward_expectancy_bt,2022.2.4,MacIntel,60.82725061,Firefox,1440,900,,,,,0,585,,,,,,,,,,,,,,,,,F,181,triangle,1,0,,,4,,,,,,,,,,,,,switch,number,numSwt,k,0.786,vtsPrac,12,0,12,0,1,,,,,,,,,,,,,,,,,,,,,,,
295030,2022-12-03_13h07.17.083,vts_reward_expectancy_bt,2022.2.4,MacIntel,60.82725061,Firefox,1440,900,,,,,0,585,,,,,,,,,,,,,,,,,S,132,circle,1,0,,,4,,,,,,,,,,,,,repeat,number,numRpt,j,1.236,vtsPrac,13,0,13,0,1,,,,,,,,,,,,,,,,,,,,,,,
295030,2022-12-03_13h07.17.083,vts_reward_expectancy_bt,2022.2.4,MacIntel,60.82725061,Firefox,1440,900,,,,,0,585,,,,,,,,,,,,,,,,,W,139,circle,1,0,,,4,,,,,,,,,,,,,repeat,number,numRpt,j,1.035,vtsPrac,14,0,14,0,1,,,,,,,,,,,,,,,,,,,,,,,
295030,2022-12-03_13h07.17.083,vts_reward_expectancy_bt,2022.2.4,MacIntel,60.82725061,Firefox,1440,900,,,,,0,585,,,,,,,,,,,,,,,,,B,167,hexagon,1,0,,,4,,,,,,,,,,,,,repeat,number,numRpt,k,2.106,vtsPrac,15,0,15,0,1,,,,,,,,,,,,,,,,,,,,,,,
295030,2022-12-03_13h07.17.083,vts_reward_expectancy_bt,2022.2.4,MacIntel,60.82725061,Firefox,1440,900,,,,,0,585,,,,,,,,,,,,,,,,,Y,146,triangle,1,0,,,4,,,,,,,,,,,,,repeat,number,numRpt,j,1.089,vtsPrac,16,0,16,0,1,,,,,,,,,,,,,,,,,,,,,,,
295030,2022-12-03_13h07.17.083,vts_reward_expectancy_bt,2022.2.4,MacIntel,60.82725061,Firefox,1440,900,,,,,0,585,,,,,,,,,,,,,,,,,F,167,circle,1,0,,,4,,,,,,,,,,,,,repeat,number,numRpt,k,0.817,vtsPrac,17,0,17,0,1,,,,,,,,,,,,,,,,,,,,,,,
295030,2022-12-03_13h07.17.083,vts_reward_expectancy_bt,2022.2.4,MacIntel,60.82725061,Firefox,1440,900,,,,,0,585,,,,,,,,,,,,,,,,,U,181,triangle,1,0,,,4,,,,,,,,,,,,,repeat,number,numRpt,k,1.069,vtsPrac,18,0,18,0,1,,,,,,,,,,,,,,,,,,,,,,,
295030,2022-12-03_13h07.17.083,vts_reward_expectancy_bt,2022.2.4,MacIntel,60.82725061,Firefox,1440,900,,,,,0,585,,,,,,,,,,,,,,,,,S,160,circle,1,0,,,4,,,,,,,,,,,,,repeat,number,numRpt,k,1.303,vtsPrac,19,0,19,0,1,,,,,,,,,,,,,,,,,,,,,,,
295030,2022-12-03_13h07.17.083,vts_reward_expectancy_bt,2022.2.4,MacIntel,60.82725061,Firefox,1440,900,,,,,0,585,,,,,,,,,,,,,,,,,U,125,hexagon,1,0,,,4,,,,,,,,,,,,,repeat,number,numRpt,j,0.723,vtsPrac,20,0,20,0,1,,,,,,,,,,,,,,,,,,,,,,,
295030,2022-12-03_13h07.17.083,vts_reward_expectancy_bt,2022.2.4,MacIntel,60.82725061,Firefox,1440,900,,,,,0,585,,,,,,,,,,,,,,,,,Y,174,triangle,1,0,,,4,,,,,,,,,,,,,repeat,number,numRpt,k,0.716,vtsPrac,21,0,21,0,1,,,,,,,,,,,,,,,,,,,,,,,
295030,2022-12-03_13h07.17.083,vts_reward_expectancy_bt,2022.2.4,MacIntel,60.82725061,Firefox,1440,900,,,,,0,585,,,,,,,,,,,,,,,,,S,146,triangle,1,0,,,4,,,,,,,,,,,,,repeat,number,numRpt,j,0.933,vtsPrac,22,0,22,0,1,,,,,,,,,,,,,,,,,,,,,,,
295030,2022-12-03_13h07.17.083,vts_reward_expectancy_bt,2022.2.4,MacIntel,60.82725061,Firefox,1440,900,,,,,0,585,,,,,,,,,,,,,,,,,F,160,star,1,0,,,4,,,,,,,,,,,,,repeat,number,numRpt,k,0.835,vtsPrac,23,0,23,0,1,,,,,,,,,,,,,,,,,,,,,,,
295030,2022-12-03_13h07.17.083,vts_reward_expectancy_bt,2022.2.4,MacIntel,60.82725061,Firefox,1440,900,,,,,0,585,,,,,,,,,,,,,,,,,W,125,triangle,1,0,,,4,,,,,,,,,,,,,repeat,number,numRpt,j,0.689,vtsPrac,24,0,24,0,1,,,,,,,,,,,,,,,,,,,,,,,
295030,2022-12-03_13h07.17.083,vts_reward_expectancy_bt,2022.2.4,MacIntel,60.82725061,Firefox,1440,900,,,,,0,585,,,,,,,,,,,,,,,,,U,174,star,1,0,,,4,,,,,,,,,,,,,repeat,number,numRpt,k,1.151,vtsPrac,25,0,25,0,1,,,,,,,,,,,,,,,,,,,,,,,
295030,2022-12-03_13h07.17.083,vts_reward_expectancy_bt,2022.2.4,MacIntel,60.82725061,Firefox,1440,900,,,,,0,585,,,,,,,,,,,,,,,,,F,132,hexagon,1,0,,,4,,,,,,,,,,,,,repeat,number,numRpt,j,1.157,vtsPrac,26,0,26,0,1,,,,,,,,,,,,,,,,,,,,,,,
295030,2022-12-03_13h07.17.083,vts_reward_expectancy_bt,2022.2.4,MacIntel,60.82725061,Firefox,1440,900,,,,,0,585,,,,,,,,,,,,,,,,,S,160,triangle,1,0,,,4,,,,,,,,,,,,,repeat,number,numRpt,k,1.039,vtsPrac,27,0,27,0,1,,,,,,,,,,,,,,,,,,,,,,,
295030,2022-12-03_13h07.17.083,vts_reward_expectancy_bt,2022.2.4,MacIntel,60.82725061,Firefox,1440,900,,,,,0,585,,,,,,,,,,,,,,,,,S,146,hexagon,1,0,,,4,,,,,,,,,,,,,repeat,number,numRpt,j,1.674,vtsPrac,28,0,28,0,1,,,,,,,,,,,,,,,,,,,,,,,
295030,2022-12-03_13h07.17.083,vts_reward_expectancy_bt,2022.2.4,MacIntel,60.82725061,Firefox,1440,900,,,,,0,585,,,,,,,,,,,,,,,,,H,174,circle,1,0,,,4,,,,,,,,,,,,,repeat,number,numRpt,k,1.854,vtsPrac,29,0,29,0,1,,,,,,,,,,,,,,,,,,,,,,,
295030,2022-12-03_13h07.17.083,vts_reward_expectancy_bt,2022.2.4,MacIntel,60.82725061,Firefox,1440,900,,,,,0,585,,,,,,,,,,,,,,,,,D,125,triangle,1,0,,,4,,,,,,,,,,,,,repeat,number,numRpt,j,1.585,vtsPrac,30,0,30,0,1,,,,,,,,,,,,,,,,,,,,,,,
295030,2022-12-03_13h07.17.083,vts_reward_expectancy_bt,2022.2.4,MacIntel,60.82725061,Firefox,1440,900,,,,,0,585,,,,,,,,,,,,,,,,,U,160,hexagon,1,0,,,4,,,,,,,,,,,,,repeat,number,numRpt,k,0.889,vtsPrac,31,0,31,0,1,,,,,,,,,,,,,,,,,,,,,,,
295030,2022-12-03_13h07.17.083,vts_reward_expectancy_bt,2022.2.4,MacIntel,60.82725061,Firefox,1440,900,,,,,,,,,,,,,,,,,,,,,,,,,,,,,,,,,,,,,,,,,,,,,,,,,,,,,,,,,,,,,,,,,,,,,,,,,,,,
295030,2022-12-03_13h07.17.083,vts_reward_expectancy_bt,2022.2.4,MacIntel,60.82725061,Firefox,1440,900,,,,,,,,,,,,,,,,,,,,,,,,,,,,,,,,,,,,,,,,,,,,,,,,,,,,,,,,,,,,,,,,,,,,,,,,,,,,
295030,2022-12-03_13h07.17.083,vts_reward_expectancy_bt,2022.2.4,MacIntel,60.82725061,Firefox,1440,900,,,,,0,585,,,,,,,,,,,,,,,,,D,160,hexagon,1,0,,,,,,,,,,,,,,,,repeat,number,numRpt,k,2.039,noRew,,,,,,0,0,0,0,0,1,,,,,,,,,,,,,,,,,
295030,2022-12-03_13h07.17.083,vts_reward_expectancy_bt,2022.2.4,MacIntel,60.82725061,Firefox,1440,900,,,,,0,585,,,,,,,,,,,,,,,,,S,181,circle,1,0,,,,,,,,,,,,,,,,repeat,number,numRpt,k,0.65,noRew,,,,,,0,1,0,1,0,1,,,,,,,,,,,,,,,,,
295030,2022-12-03_13h07.17.083,vts_reward_expectancy_bt,2022.2.4,MacIntel,60.82725061,Firefox,1440,900,,,,,0,585,,,,,,,,,,,,,,,,,W,132,hexagon,1,0,,,,,,,,,,,,,,,,repeat,number,numRpt,j,0.902,noRew,,,,,,0,2,0,2,0,1,,,,,,,,,,,,,,,,,
295030,2022-12-03_13h07.17.083,vts_reward_expectancy_bt,2022.2.4,MacIntel,60.82725061,Firefox,1440,900,,,,,0,585,,,,,,,,,,,,,,,,,U,125,circle,1,0,,,,,,,,,,,,,,,,repeat,number,numRpt,j,0.752,noRew,,,,,,0,3,0,3,0,1,,,,,,,,,,,,,,,,,
295030,2022-12-03_13h07.17.083,vts_reward_expectancy_bt,2022.2.4,MacIntel,60.82725061,Firefox,1440,900,,,,,0,585,,,,,,,,,,,,,,,,,D,160,triangle,1,0,,,,,,,,,,,,,,,,repeat,number,numRpt,k,0.751,noRew,,,,,,0,4,0,4,0,1,,,,,,,,,,,,,,,,,
295030,2022-12-03_13h07.17.083,vts_reward_expectancy_bt,2022.2.4,MacIntel,60.82725061,Firefox,1440,900,,,,,0,585,,,,,,,,,,,,,,,,,S,181,hexagon,1,0,,,,,,,,,,,,,,,,repeat,number,numRpt,k,0.985,noRew,,,,,,0,5,0,5,0,1,,,,,,,,,,,,,,,,,
295030,2022-12-03_13h07.17.083,vts_reward_expectancy_bt,2022.2.4,MacIntel,60.82725061,Firefox,1440,900,,,,,0,585,,,,,,,,,,,,,,,,,W,132,triangle,1,0,,,,,,,,,,,,,,,,repeat,number,numRpt,j,2.501,noRew,,,,,,0,6,0,6,0,1,,,,,,,,,,,,,,,,,
295030,2022-12-03_13h07.17.083,vts_reward_expectancy_bt,2022.2.4,MacIntel,60.82725061,Firefox,1440,900,,,,,0,585,,,,,,,,,,,,,,,,,U,125,circle,1,0,,,,,,,,,,,,,,,,repeat,number,numRpt,j,1.152,noRew,,,,,,0,7,0,7,0,1,,,,,,,,,,,,,,,,,
295030,2022-12-03_13h07.17.083,vts_reward_expectancy_bt,2022.2.4,MacIntel,60.82725061,Firefox,1440,900,,,,,0,585,,,,,,,,,,,,,,,,,U,181,hexagon,1,0,,,,,,,,,,,,,,,,repeat,number,numRpt,k,0.937,noRew,,,,,,0,8,0,8,0,1,,,,,,,,,,,,,,,,,
295030,2022-12-03_13h07.17.083,vts_reward_expectancy_bt,2022.2.4,MacIntel,60.82725061,Firefox,1440,900,,,,,0,585,,,,,,,,,,,,,,,,,D,139,triangle,1,0,,,,,,,,,,,,,,,,repeat,number,numRpt,j,0.948,noRew,,,,,,0,9,0,9,0,1,,,,,,,,,,,,,,,,,
295030,2022-12-03_13h07.17.083,vts_reward_expectancy_bt,2022.2.4,MacIntel,60.82725061,Firefox,1440,900,,,,,0,585,,,,,,,,,,,,,,,,,Y,125,hexagon,1,0,,,,,,,,,,,,,,,,repeat,number,numRpt,j,0.734,noRew,,,,,,0,10,0,10,0,1,,,,,,,,,,,,,,,,,
295030,2022-12-03_13h07.17.083,vts_reward_expectancy_bt,2022.2.4,MacIntel,60.82725061,Firefox,1440,900,,,,,0,585,,,,,,,,,,,,,,,,,F,160,circle,1,0,,,,,,,,,,,,,,,,repeat,number,numRpt,k,0.936,noRew,,,,,,0,11,0,11,0,1,,,,,,,,,,,,,,,,,
295030,2022-12-03_13h07.17.083,vts_reward_expectancy_bt,2022.2.4,MacIntel,60.82725061,Firefox,1440,900,,,,,0,585,,,,,,,,,,,,,,,,,S,174,star,1,0,,,,,,,,,,,,,,,,repeat,number,numRpt,k,0.674,noRew,,,,,,0,12,0,12,0,1,,,,,,,,,,,,,,,,,
295030,2022-12-03_13h07.17.083,vts_reward_expectancy_bt,2022.2.4,MacIntel,60.82725061,Firefox,1440,900,,,,,0,585,,,,,,,,,,,,,,,,,F,125,circle,1,0,,,,,,,,,,,,,,,,repeat,number,numRpt,j,0.721,noRew,,,,,,0,13,0,13,0,1,,,,,,,,,,,,,,,,,
295030,2022-12-03_13h07.17.083,vts_reward_expectancy_bt,2022.2.4,MacIntel,60.82725061,Firefox,1440,900,,,,,0,585,,,,,,,,,,,,,,,,,D,146,triangle,1,0,,,,,,,,,,,,,,,,repeat,number,numRpt,j,1.304,noRew,,,,,,0,14,0,14,0,1,,,,,,,,,,,,,,,,,
295030,2022-12-03_13h07.17.083,vts_reward_expectancy_bt,2022.2.4,MacIntel,60.82725061,Firefox,1440,900,,,,,0,585,,,,,,,,,,,,,,,,,W,139,circle,1,0,,,,,,,,,,,,,,,,repeat,number,numRpt,j,1.02,noRew,,,,,,0,15,0,15,0,1,,,,,,,,,,,,,,,,,
295030,2022-12-03_13h07.17.083,vts_reward_expectancy_bt,2022.2.4,MacIntel,60.82725061,Firefox,1440,900,,,,,0,585,,,,,,,,,,,,,,,,,U,174,hexagon,1,0,,,,,,,,,,,,,,,,repeat,number,numRpt,k,0.687,noRew,,,,,,0,16,0,16,0,1,,,,,,,,,,,,,,,,,
295030,2022-12-03_13h07.17.083,vts_reward_expectancy_bt,2022.2.4,MacIntel,60.82725061,Firefox,1440,900,,,,,0,585,,,,,,,,,,,,,,,,,S,125,star,1,0,,,,,,,,,,,,,,,,repeat,number,numRpt,j,1.921,noRew,,,,,,0,17,0,17,0,1,,,,,,,,,,,,,,,,,
295030,2022-12-03_13h07.17.083,vts_reward_expectancy_bt,2022.2.4,MacIntel,60.82725061,Firefox,1440,900,,,,,0,585,,,,,,,,,,,,,,,,,D,181,circle,1,0,,,,,,,,,,,,,,,,repeat,number,numRpt,k,0.967,noRew,,,,,,0,18,0,18,0,1,,,,,,,,,,,,,,,,,
295030,2022-12-03_13h07.17.083,vts_reward_expectancy_bt,2022.2.4,MacIntel,60.82725061,Firefox,1440,900,,,,,0,585,,,,,,,,,,,,,,,,,W,167,triangle,1,0,,,,,,,,,,,,,,,,repeat,number,numRpt,k,0.652,noRew,,,,,,0,19,0,19,0,1,,,,,,,,,,,,,,,,,
295030,2022-12-03_13h07.17.083,vts_reward_expectancy_bt,2022.2.4,MacIntel,60.82725061,Firefox,1440,900,,,,,0,585,,,,,,,,,,,,,,,,,F,167,star,1,0,,,,,,,,,,,,,,,,repeat,number,numRpt,k,1.753,noRew,,,,,,0,20,0,20,0,1,,,,,,,,,,,,,,,,,
295030,2022-12-03_13h07.17.083,vts_reward_expectancy_bt,2022.2.4,MacIntel,60.82725061,Firefox,1440,900,,,,,0,585,,,,,,,,,,,,,,,,,D,181,triangle,1,0,,,,,,,,,,,,,,,,repeat,number,numRpt,k,1.034,noRew,,,,,,0,21,0,21,0,1,,,,,,,,,,,,,,,,,
295030,2022-12-03_13h07.17.083,vts_reward_expectancy_bt,2022.2.4,MacIntel,60.82725061,Firefox,1440,900,,,,,0,585,,,,,,,,,,,,,,,,,W,174,triangle,1,0,,,,,,,,,,,,,,,,repeat,number,numRpt,k,2.853,noRew,,,,,,0,22,0,22,0,1,,,,,,,,,,,,,,,,,
295030,2022-12-03_13h07.17.083,vts_reward_expectancy_bt,2022.2.4,MacIntel,60.82725061,Firefox,1440,900,,,,,0,585,,,,,,,,,,,,,,,,,H,132,hexagon,1,0,,,,,,,,,,,,,,,,repeat,number,numRpt,j,1.087,noRew,,,,,,0,23,0,23,0,1,,,,,,,,,,,,,,,,,
295030,2022-12-03_13h07.17.083,vts_reward_expectancy_bt,2022.2.4,MacIntel,60.82725061,Firefox,1440,900,,,,,0,585,,,,,,,,,,,,,,,,,B,181,hexagon,1,0,,,,,,,,,,,,,,,,repeat,number,numRpt,k,1.755,noRew,,,,,,0,24,0,24,0,1,,,,,,,,,,,,,,,,,
295030,2022-12-03_13h07.17.083,vts_reward_expectancy_bt,2022.2.4,MacIntel,60.82725061,Firefox,1440,900,,,,,0,585,,,,,,,,,,,,,,,,,S,167,circle,1,0,,,,,,,,,,,,,,,,repeat,number,numRpt,k,2.536,noRew,,,,,,0,25,0,25,0,1,,,,,,,,,,,,,,,,,
295030,2022-12-03_13h07.17.083,vts_reward_expectancy_bt,2022.2.4,MacIntel,60.82725061,Firefox,1440,900,,,,,0,585,,,,,,,,,,,,,,,,,F,139,star,1,0,,,,,,,,,,,,,,,,repeat,number,numRpt,j,0.855,noRew,,,,,,0,26,0,26,0,1,,,,,,,,,,,,,,,,,
295030,2022-12-03_13h07.17.083,vts_reward_expectancy_bt,2022.2.4,MacIntel,60.82725061,Firefox,1440,900,,,,,0,585,,,,,,,,,,,,,,,,,D,160,hexagon,1,0,,,,,,,,,,,,,,,,repeat,number,numRpt,k,1.201,noRew,,,,,,0,27,0,27,0,1,,,,,,,,,,,,,,,,,
295030,2022-12-03_13h07.17.083,vts_reward_expectancy_bt,2022.2.4,MacIntel,60.82725061,Firefox,1440,900,,,,,0,585,,,,,,,,,,,,,,,,,B,160,star,1,0,,,,,,,,,,,,,,,,repeat,number,numRpt,k,0.703,noRew,,,,,,0,28,0,28,0,1,,,,,,,,,,,,,,,,,
295030,2022-12-03_13h07.17.083,vts_reward_expectancy_bt,2022.2.4,MacIntel,60.82725061,Firefox,1440,900,,,,,0,585,,,,,,,,,,,,,,,,,U,125,hexagon,1,0,,,,,,,,,,,,,,,,repeat,number,numRpt,j,1.319,noRew,,,,,,0,29,0,29,0,1,,,,,,,,,,,,,,,,,
295030,2022-12-03_13h07.17.083,vts_reward_expectancy_bt,2022.2.4,MacIntel,60.82725061,Firefox,1440,900,,,,,0,585,,,,,,,,,,,,,,,,,Y,174,hexagon,1,0,,,,,,,,,,,,,,,,repeat,number,numRpt,k,0.767,noRew,,,,,,0,30,0,30,0,1,,,,,,,,,,,,,,,,,
295030,2022-12-03_13h07.17.083,vts_reward_expectancy_bt,2022.2.4,MacIntel,60.82725061,Firefox,1440,900,,,,,0,585,,,,,,,,,,,,,,,,,F,167,circle,1,0,,,,,,,,,,,,,,,,repeat,number,numRpt,k,0.62,noRew,,,,,,0,31,0,31,0,1,,,,,,,,,,,,,,,,,
295030,2022-12-03_13h07.17.083,vts_reward_expectancy_bt,2022.2.4,MacIntel,60.82725061,Firefox,1440,900,,,,,0,585,,,,,,,,,,,,,,,,,B,167,star,1,0,,,,,,,,,,,,,,,,repeat,number,numRpt,k,1.056,noRew,,,,,,0,32,0,32,0,1,,,,,,,,,,,,,,,,,
295030,2022-12-03_13h07.17.083,vts_reward_expectancy_bt,2022.2.4,MacIntel,60.82725061,Firefox,1440,900,,,,,0,585,,,,,,,,,,,,,,,,,U,132,hexagon,1,0,,,,,,,,,,,,,,,,repeat,number,numRpt,j,1.07,noRew,,,,,,0,33,0,33,0,1,,,,,,,,,,,,,,,,,
295030,2022-12-03_13h07.17.083,vts_reward_expectancy_bt,2022.2.4,MacIntel,60.82725061,Firefox,1440,900,,,,,0,585,,,,,,,,,,,,,,,,,F,146,hexagon,1,0,,,,,,,,,,,,,,,,repeat,number,numRpt,j,1.701,noRew,,,,,,0,34,0,34,0,1,,,,,,,,,,,,,,,,,
295030,2022-12-03_13h07.17.083,vts_reward_expectancy_bt,2022.2.4,MacIntel,60.82725061,Firefox,1440,900,,,,,0,585,,,,,,,,,,,,,,,,,S,125,star,1,0,,,,,,,,,,,,,,,,repeat,number,numRpt,j,1.501,noRew,,,,,,0,35,0,35,0,1,,,,,,,,,,,,,,,,,
295030,2022-12-03_13h07.17.083,vts_reward_expectancy_bt,2022.2.4,MacIntel,60.82725061,Firefox,1440,900,,,,,0,585,,,,,,,,,,,,,,,,,W,139,hexagon,1,0,,,,,,,,,,,,,,,,repeat,number,numRpt,j,1.319,noRew,,,,,,0,36,0,36,0,1,,,,,,,,,,,,,,,,,
295030,2022-12-03_13h07.17.083,vts_reward_expectancy_bt,2022.2.4,MacIntel,60.82725061,Firefox,1440,900,,,,,0,585,,,,,,,,,,,,,,,,,F,181,star,1,0,,,,,,,,,,,,,,,,repeat,number,numRpt,k,1.071,noRew,,,,,,0,37,0,37,0,1,,,,,,,,,,,,,,,,,
295030,2022-12-03_13h07.17.083,vts_reward_expectancy_bt,2022.2.4,MacIntel,60.82725061,Firefox,1440,900,,,,,0,585,,,,,,,,,,,,,,,,,B,174,hexagon,1,0,,,,,,,,,,,,,,,,repeat,number,numRpt,k,1.503,noRew,,,,,,0,38,0,38,0,1,,,,,,,,,,,,,,,,,
295030,2022-12-03_13h07.17.083,vts_reward_expectancy_bt,2022.2.4,MacIntel,60.82725061,Firefox,1440,900,,,,,0,585,,,,,,,,,,,,,,,,,Y,125,circle,-1,0,,,,,,,,,,,,,,,,switch,no_choice,NA,,,noRew,,,,,,0,39,0,39,0,1,,,,,,,,,,,,,,,,,
295030,2022-12-03_13h07.17.083,vts_reward_expectancy_bt,2022.2.4,MacIntel,60.82725061,Firefox,1440,900,,,,,0,585,,,,,,,,,,,,,,,,,D,125,circle,1,0,,,,,,,,,,,,,,,,switch,number,numSwt,j,0.836,noRew,,,,,,0,40,0,40,0,1,,,,,,,,,,,,,,,,,
295030,2022-12-03_13h07.17.083,vts_reward_expectancy_bt,2022.2.4,MacIntel,60.82725061,Firefox,1440,900,,,,,0,585,,,,,,,,,,,,,,,,,H,146,star,1,0,,,,,,,,,,,,,,,,repeat,number,numRpt,j,0.789,noRew,,,,,,0,41,0,41,0,1,,,,,,,,,,,,,,,,,
295030,2022-12-03_13h07.17.083,vts_reward_expectancy_bt,2022.2.4,MacIntel,60.82725061,Firefox,1440,900,,,,,0,585,,,,,,,,,,,,,,,,,F,160,triangle,1,0,,,,,,,,,,,,,,,,repeat,number,numRpt,k,1.502,noRew,,,,,,0,42,0,42,0,1,,,,,,,,,,,,,,,,,
295030,2022-12-03_13h07.17.083,vts_reward_expectancy_bt,2022.2.4,MacIntel,60.82725061,Firefox,1440,900,,,,,0,585,,,,,,,,,,,,,,,,,U,174,hexagon,1,0,,,,,,,,,,,,,,,,repeat,number,numRpt,k,0.869,noRew,,,,,,0,43,0,43,0,1,,,,,,,,,,,,,,,,,
295030,2022-12-03_13h07.17.083,vts_reward_expectancy_bt,2022.2.4,MacIntel,60.82725061,Firefox,1440,900,,,,,0,585,,,,,,,,,,,,,,,,,F,146,star,1,0,,,,,,,,,,,,,,,,repeat,number,numRpt,j,1.501,noRew,,,,,,0,44,0,44,0,1,,,,,,,,,,,,,,,,,
295030,2022-12-03_13h07.17.083,vts_reward_expectancy_bt,2022.2.4,MacIntel,60.82725061,Firefox,1440,900,,,,,0,585,,,,,,,,,,,,,,,,,U,125,triangle,1,0,,,,,,,,,,,,,,,,repeat,number,numRpt,j,1.505,noRew,,,,,,0,45,0,45,0,1,,,,,,,,,,,,,,,,,
295030,2022-12-03_13h07.17.083,vts_reward_expectancy_bt,2022.2.4,MacIntel,60.82725061,Firefox,1440,900,,,,,0,585,,,,,,,,,,,,,,,,,H,181,hexagon,1,0,,,,,,,,,,,,,,,,repeat,number,numRpt,k,1.136,noRew,,,,,,0,46,0,46,0,1,,,,,,,,,,,,,,,,,
295030,2022-12-03_13h07.17.083,vts_reward_expectancy_bt,2022.2.4,MacIntel,60.82725061,Firefox,1440,900,,,,,0,585,,,,,,,,,,,,,,,,,B,139,star,1,0,,,,,,,,,,,,,,,,repeat,number,numRpt,j,0.802,noRew,,,,,,0,47,0,47,0,1,,,,,,,,,,,,,,,,,
295030,2022-12-03_13h07.17.083,vts_reward_expectancy_bt,2022.2.4,MacIntel,60.82725061,Firefox,1440,900,,,,,0,585,,,,,,,,,,,,,,,,,U,132,hexagon,1,0,,,,,,,,,,,,,,,,repeat,number,numRpt,j,0.65,noRew,,,,,,0,48,0,48,0,1,,,,,,,,,,,,,,,,,
295030,2022-12-03_13h07.17.083,vts_reward_expectancy_bt,2022.2.4,MacIntel,60.82725061,Firefox,1440,900,,,,,0,585,,,,,,,,,,,,,,,,,D,139,star,1,0,,,,,,,,,,,,,,,,repeat,number,numRpt,j,0.903,noRew,,,,,,0,49,0,49,0,1,,,,,,,,,,,,,,,,,
295030,2022-12-03_13h07.17.083,vts_reward_expectancy_bt,2022.2.4,MacIntel,60.82725061,Firefox,1440,900,,,,,0,585,,,,,,,,,,,,,,,,,W,174,star,1,0,,,,,,,,,,,,,,,,repeat,number,numRpt,k,1.121,noRew,,,,,,0,50,0,50,0,1,,,,,,,,,,,,,,,,,
295030,2022-12-03_13h07.17.083,vts_reward_expectancy_bt,2022.2.4,MacIntel,60.82725061,Firefox,1440,900,,,,,0,585,,,,,,,,,,,,,,,,,B,146,hexagon,1,0,,,,,,,,,,,,,,,,repeat,number,numRpt,j,1.203,noRew,,,,,,0,51,0,51,0,1,,,,,,,,,,,,,,,,,
295030,2022-12-03_13h07.17.083,vts_reward_expectancy_bt,2022.2.4,MacIntel,60.82725061,Firefox,1440,900,,,,,0,585,,,,,,,,,,,,,,,,,S,160,hexagon,1,0,,,,,,,,,,,,,,,,repeat,number,numRpt,k,1.219,noRew,,,,,,0,52,0,52,0,1,,,,,,,,,,,,,,,,,
295030,2022-12-03_13h07.17.083,vts_reward_expectancy_bt,2022.2.4,MacIntel,60.82725061,Firefox,1440,900,,,,,0,585,,,,,,,,,,,,,,,,,W,132,triangle,1,0,,,,,,,,,,,,,,,,repeat,number,numRpt,j,1.333,noRew,,,,,,0,53,0,53,0,1,,,,,,,,,,,,,,,,,
295030,2022-12-03_13h07.17.083,vts_reward_expectancy_bt,2022.2.4,MacIntel,60.82725061,Firefox,1440,900,,,,,0,585,,,,,,,,,,,,,,,,,U,125,hexagon,1,0,,,,,,,,,,,,,,,,repeat,number,numRpt,j,2.785,noRew,,,,,,0,54,0,54,0,1,,,,,,,,,,,,,,,,,
295030,2022-12-03_13h07.17.083,vts_reward_expectancy_bt,2022.2.4,MacIntel,60.82725061,Firefox,1440,900,,,,,0,585,,,,,,,,,,,,,,,,,F,181,triangle,1,0,,,,,,,,,,,,,,,,repeat,number,numRpt,k,0.87,noRew,,,,,,0,55,0,55,0,1,,,,,,,,,,,,,,,,,
295030,2022-12-03_13h07.17.083,vts_reward_expectancy_bt,2022.2.4,MacIntel,60.82725061,Firefox,1440,900,,,,,0,585,,,,,,,,,,,,,,,,,H,174,star,-1,0,,,,,,,,,,,,,,,,switch,no_choice,NA,,,noRew,,,,,,0,56,0,56,0,1,,,,,,,,,,,,,,,,,
295030,2022-12-03_13h07.17.083,vts_reward_expectancy_bt,2022.2.4,MacIntel,60.82725061,Firefox,1440,900,,,,,0,585,,,,,,,,,,,,,,,,,W,125,circle,1,0,,,,,,,,,,,,,,,,switch,number,numSwt,j,1.27,noRew,,,,,,0,57,0,57,0,1,,,,,,,,,,,,,,,,,
295030,2022-12-03_13h07.17.083,vts_reward_expectancy_bt,2022.2.4,MacIntel,60.82725061,Firefox,1440,900,,,,,0,585,,,,,,,,,,,,,,,,,Y,160,circle,1,0,,,,,,,,,,,,,,,,repeat,number,numRpt,k,1.119,noRew,,,,,,0,58,0,58,0,1,,,,,,,,,,,,,,,,,
295030,2022-12-03_13h07.17.083,vts_reward_expectancy_bt,2022.2.4,MacIntel,60.82725061,Firefox,1440,900,,,,,0,585,,,,,,,,,,,,,,,,,S,181,triangle,1,0,,,,,,,,,,,,,,,,repeat,number,numRpt,k,1.101,noRew,,,,,,0,59,0,59,0,1,,,,,,,,,,,,,,,,,
295030,2022-12-03_13h07.17.083,vts_reward_expectancy_bt,2022.2.4,MacIntel,60.82725061,Firefox,1440,900,,,,,0,585,,,,,,,,,,,,,,,,,H,139,hexagon,1,0,,,,,,,,,,,,,,,,repeat,number,numRpt,j,1.855,noRew,,,,,,0,60,0,60,0,1,,,,,,,,,,,,,,,,,
295030,2022-12-03_13h07.17.083,vts_reward_expectancy_bt,2022.2.4,MacIntel,60.82725061,Firefox,1440,900,,,,,0,585,,,,,,,,,,,,,,,,,B,146,triangle,1,0,,,,,,,,,,,,,,,,repeat,number,numRpt,j,1.768,noRew,,,,,,0,61,0,61,0,1,,,,,,,,,,,,,,,,,
295030,2022-12-03_13h07.17.083,vts_reward_expectancy_bt,2022.2.4,MacIntel,60.82725061,Firefox,1440,900,,,,,0,585,,,,,,,,,,,,,,,,,U,132,circle,1,0,,,,,,,,,,,,,,,,repeat,number,numRpt,j,1.021,noRew,,,,,,0,62,0,62,0,1,,,,,,,,,,,,,,,,,
295030,2022-12-03_13h07.17.083,vts_reward_expectancy_bt,2022.2.4,MacIntel,60.82725061,Firefox,1440,900,,,,,0,585,,,,,,,,,,,,,,,,,W,174,triangle,1,0,,,,,,,,,,,,,,,,repeat,number,numRpt,k,1.034,noRew,,,,,,0,63,0,63,0,1,,,,,,,,,,,,,,,,,
295030,2022-12-03_13h07.17.083,vts_reward_expectancy_bt,2022.2.4,MacIntel,60.82725061,Firefox,1440,900,,,,,,,,,,,,,,,,,,,,,,,,,,,,,,,,,,,,,,,,,,,,,,,,,,,,,,,,,,,,,,,,,,,,,,,,,,,,
295030,2022-12-03_13h07.17.083,vts_reward_expectancy_bt,2022.2.4,MacIntel,60.82725061,Firefox,1440,900,,,,,0,585,,,,,,,,,,,,,,,,,S,132,circle,1,0,,,,,,,,,,,,,,,,repeat,number,numRpt,j,1.106,Hi,,,,,,0,,,,,,space,6.609,low,0,0,0,0,1,,,,,,,,,
295030,2022-12-03_13h07.17.083,vts_reward_expectancy_bt,2022.2.4,MacIntel,60.82725061,Firefox,1440,900,,,,,1,586,,,,,,,,,,,,,,,,,W,146,star,1,0,,,,,,,,,,,,,,,,repeat,number,numRpt,j,0.637,Lo,,,,,,0,,,,,,,,low,1,0,1,0,1,,,,,,,,,
295030,2022-12-03_13h07.17.083,vts_reward_expectancy_bt,2022.2.4,MacIntel,60.82725061,Firefox,1440,900,,,,,10,596,,,,,,,,,,,,,,,,,Y,125,triangle,1,0,,,,,,,,,,,,,,,,switch,letter,lettSwt,f,0.755,Hi,,,,,,0,,,,,,,,low,2,0,2,0,1,,,,,,,,,
295030,2022-12-03_13h07.17.083,vts_reward_expectancy_bt,2022.2.4,MacIntel,60.82725061,Firefox,1440,900,,,,,1,597,,,,,,,,,,,,,,,,,U,174,hexagon,1,0,,,,,,,,,,,,,,,,switch,number,numSwt,k,0.652,Lo,,,,,,0,,,,,,,,low,3,0,3,0,1,,,,,,,,,
295030,2022-12-03_13h07.17.083,vts_reward_expectancy_bt,2022.2.4,MacIntel,60.82725061,Firefox,1440,900,,,,,0,597,,,,,,,,,,,,,,,,,F,160,circle,0,0,,,,,,,,,,,,,,,,switch,letter,NA,f,0.604,Lo,,,,,,0,,,,,,,,low,4,0,4,0,1,,,,,,,,,
295030,2022-12-03_13h07.17.083,vts_reward_expectancy_bt,2022.2.4,MacIntel,60.82725061,Firefox,1440,900,,,,,1,598,,,,,,,,,,,,,,,,,D,139,star,1,1,,,,,,,,,,,,,,,,switch,number,numSwt,j,1.455,Lo,,,,,,0,,,,,,,,low,5,0,5,0,1,,,,,,,,,
295030,2022-12-03_13h07.17.083,vts_reward_expectancy_bt,2022.2.4,MacIntel,60.82725061,Firefox,1440,900,,,,,10,608,,,,,,,,,,,,,,,,,B,181,triangle,1,0,,,,,,,,,,,,,,,,switch,letter,lettSwt,d,1.268,Hi,,,,,,0,,,,,,,,low,6,0,6,0,1,,,,,,,,,
295030,2022-12-03_13h07.17.083,vts_reward_expectancy_bt,2022.2.4,MacIntel,60.82725061,Firefox,1440,900,,,,,10,618,,,,,,,,,,,,,,,,,H,167,hexagon,1,0,,,,,,,,,,,,,,,,repeat,letter,lettRpt,d,1.389,Lo,,,,,,0,,,,,,,,low,7,0,7,0,1,,,,,,,,,
295030,2022-12-03_13h07.17.083,vts_reward_expectancy_bt,2022.2.4,MacIntel,60.82725061,Firefox,1440,900,,,,,10,628,,,,,,,,,,,,,,,,,S,132,triangle,1,0,,,,,,,,,,,,,,,,repeat,letter,lettRpt,f,1.52,Hi,,,,,,0,,,,,,,,low,8,0,8,0,1,,,,,,,,,
295030,2022-12-03_13h07.17.083,vts_reward_expectancy_bt,2022.2.4,MacIntel,60.82725061,Firefox,1440,900,,,,,1,629,,,,,,,,,,,,,,,,,W,146,star,1,0,,,,,,,,,,,,,,,,repeat,letter,lettRpt,f,1.234,Lo,,,,,,0,,,,,,,,low,9,0,9,0,1,,,,,,,,,
295030,2022-12-03_13h07.17.083,vts_reward_expectancy_bt,2022.2.4,MacIntel,60.82725061,Firefox,1440,900,,,,,10,639,,,,,,,,,,,,,,,,,Y,125,circle,1,0,,,,,,,,,,,,,,,,switch,number,numSwt,j,0.668,Hi,,,,,,0,,,,,,,,low,10,0,10,0,1,,,,,,,,,
295030,2022-12-03_13h07.17.083,vts_reward_expectancy_bt,2022.2.4,MacIntel,60.82725061,Firefox,1440,900,,,,,10,649,,,,,,,,,,,,,,,,,U,174,hexagon,1,0,,,,,,,,,,,,,,,,switch,letter,lettSwt,f,1.222,Lo,,,,,,0,,,,,,,,low,11,0,11,0,1,,,,,,,,,
295030,2022-12-03_13h07.17.083,vts_reward_expectancy_bt,2022.2.4,MacIntel,60.82725061,Firefox,1440,900,,,,,1,650,,,,,,,,,,,,,,,,,F,160,hexagon,1,0,,,,,,,,,,,,,,,,switch,number,numSwt,k,2.653,Lo,,,,,,0,,,,,,,,low,12,0,12,0,1,,,,,,,,,
295030,2022-12-03_13h07.17.083,vts_reward_expectancy_bt,2022.2.4,MacIntel,60.82725061,Firefox,1440,900,,,,,1,651,,,,,,,,,,,,,,,,,D,139,star,1,0,,,,,,,,,,,,,,,,switch,letter,lettSwt,d,0.804,Lo,,,,,,0,,,,,,,,low,13,0,13,0,1,,,,,,,,,
295030,2022-12-03_13h07.17.083,vts_reward_expectancy_bt,2022.2.4,MacIntel,60.82725061,Firefox,1440,900,,,,,10,661,,,,,,,,,,,,,,,,,B,181,circle,1,0,,,,,,,,,,,,,,,,repeat,letter,lettRpt,d,1.255,Hi,,,,,,0,,,,,,,,low,14,0,14,0,1,,,,,,,,,
295030,2022-12-03_13h07.17.083,vts_reward_expectancy_bt,2022.2.4,MacIntel,60.82725061,Firefox,1440,900,,,,,1,662,,,,,,,,,,,,,,,,,H,167,triangle,1,0,,,,,,,,,,,,,,,,repeat,letter,lettRpt,d,1.22,Hi,,,,,,0,,,,,,,,low,15,0,15,0,1,,,,,,,,,
295030,2022-12-03_13h07.17.083,vts_reward_expectancy_bt,2022.2.4,MacIntel,60.82725061,Firefox,1440,900,,,,,0,662,,,,,,,,,,,,,,,,,Y,181,triangle,0,0,,,,,,,,,,,,,,,,repeat,letter,NA,d,2.17,Hi,,,,,,0,,,,,,,,low,16,0,16,0,1,,,,,,,,,
295030,2022-12-03_13h07.17.083,vts_reward_expectancy_bt,2022.2.4,MacIntel,60.82725061,Firefox,1440,900,,,,,1,663,,,,,,,,,,,,,,,,,S,139,hexagon,1,1,,,,,,,,,,,,,,,,repeat,letter,lettRpt,f,1.286,Lo,,,,,,0,,,,,,,,low,17,0,17,0,1,,,,,,,,,
295030,2022-12-03_13h07.17.083,vts_reward_expectancy_bt,2022.2.4,MacIntel,60.82725061,Firefox,1440,900,,,,,10,673,,,,,,,,,,,,,,,,,U,146,circle,1,0,,,,,,,,,,,,,,,,repeat,letter,lettRpt,f,2.589,Hi,,,,,,0,,,,,,,,low,18,0,18,0,1,,,,,,,,,
295030,2022-12-03_13h07.17.083,vts_reward_expectancy_bt,2022.2.4,MacIntel,60.82725061,Firefox,1440,900,,,,,1,674,,,,,,,,,,,,,,,,,B,167,star,1,0,,,,,,,,,,,,,,,,repeat,letter,lettRpt,d,0.989,Lo,,,,,,0,,,,,,,,low,19,0,19,0,1,,,,,,,,,
295030,2022-12-03_13h07.17.083,vts_reward_expectancy_bt,2022.2.4,MacIntel,60.82725061,Firefox,1440,900,,,,,10,684,,,,,,,,,,,,,,,,,D,160,hexagon,1,0,,,,,,,,,,,,,,,,switch,number,numSwt,k,0.871,Lo,,,,,,0,,,,,,,,low,20,0,20,0,1,,,,,,,,,
295030,2022-12-03_13h07.17.083,vts_reward_expectancy_bt,2022.2.4,MacIntel,60.82725061,Firefox,1440,900,,,,,0,684,,,,,,,,,,,,,,,,,W,125,circle,1,0,,,,,,,,,,,,,,,,repeat,number,numRpt,j,1.436,Hi,,,,,,0,,,,,,,,low,21,0,21,0,1,,,,,,,,,
295030,2022-12-03_13h07.17.083,vts_reward_expectancy_bt,2022.2.4,MacIntel,60.82725061,Firefox,1440,900,,,,,0,684,,,,,,,,,,,,,,,,,H,132,star,-1,0,,,,,,,,,,,,,,,,switch,no_choice,NA,,,Hi,,,,,,0,,,,,,,,low,22,0,22,0,1,,,,,,,,,
295030,2022-12-03_13h07.17.083,vts_reward_expectancy_bt,2022.2.4,MacIntel,60.82725061,Firefox,1440,900,,,,,10,694,,,,,,,,,,,,,,,,,F,174,triangle,1,0,,,,,,,,,,,,,,,,switch,letter,lettSwt,d,0.353,Hi,,,,,,0,,,,,,,,low,23,0,23,0,1,,,,,,,,,
295030,2022-12-03_13h07.17.083,vts_reward_expectancy_bt,2022.2.4,MacIntel,60.82725061,Firefox,1440,900,,,,,0,694,,,,,,,,,,,,,,,,,B,181,triangle,0,0,,,,,,,,,,,,,,,,repeat,letter,NA,f,0.955,Hi,,,,,,0,,,,,,,,low,24,0,24,0,1,,,,,,,,,
295030,2022-12-03_13h07.17.083,vts_reward_expectancy_bt,2022.2.4,MacIntel,60.82725061,Firefox,1440,900,,,,,1,695,,,,,,,,,,,,,,,,,H,125,hexagon,1,1,,,,,,,,,,,,,,,,repeat,letter,lettRpt,d,0.353,Lo,,,,,,0,,,,,,,,low,25,0,25,0,1,,,,,,,,,
295030,2022-12-03_13h07.17.083,vts_reward_expectancy_bt,2022.2.4,MacIntel,60.82725061,Firefox,1440,900,,,,,1,696,,,,,,,,,,,,,,,,,U,167,star,1,0,,,,,,,,,,,,,,,,repeat,letter,lettRpt,f,0.855,Lo,,,,,,0,,,,,,,,low,26,0,26,0,1,,,,,,,,,
295030,2022-12-03_13h07.17.083,vts_reward_expectancy_bt,2022.2.4,MacIntel,60.82725061,Firefox,1440,900,,,,,10,706,,,,,,,,,,,,,,,,,D,160,circle,1,0,,,,,,,,,,,,,,,,switch,number,numSwt,k,0.501,Hi,,,,,,0,,,,,,,,low,27,0,27,0,1,,,,,,,,,
295030,2022-12-03_13h07.17.083,vts_reward_expectancy_bt,2022.2.4,MacIntel,60.82725061,Firefox,1440,900,,,,,0,706,,,,,,,,,,,,,,,,,W,146,star,0,0,,,,,,,,,,,,,,,,switch,letter,NA,d,0.687,Hi,,,,,,0,,,,,,,,low,28,0,28,0,1,,,,,,,,,
295030,2022-12-03_13h07.17.083,vts_reward_expectancy_bt,2022.2.4,MacIntel,60.82725061,Firefox,1440,900,,,,,1,707,,,,,,,,,,,,,,,,,Y,174,circle,1,1,,,,,,,,,,,,,,,,repeat,letter,lettRpt,f,1.205,Hi,,,,,,0,,,,,,,,low,29,0,29,0,1,,,,,,,,,
295030,2022-12-03_13h07.17.083,vts_reward_expectancy_bt,2022.2.4,MacIntel,60.82725061,Firefox,1440,900,,,,,0,707,,,,,,,,,,,,,,,,,F,132,triangle,0,0,,,,,,,,,,,,,,,,switch,number,NA,k,0.455,Hi,,,,,,0,,,,,,,,low,30,0,30,0,1,,,,,,,,,
295030,2022-12-03_13h07.17.083,vts_reward_expectancy_bt,2022.2.4,MacIntel,60.82725061,Firefox,1440,900,,,,,10,717,,,,,,,,,,,,,,,,,S,139,hexagon,1,1,,,,,,,,,,,,,,,,switch,letter,lettSwt,f,0.308,Lo,,,,,,0,,,,,,,,low,31,0,31,0,1,,,,,,,,,
295030,2022-12-03_13h07.17.083,vts_reward_expectancy_bt,2022.2.4,MacIntel,60.82725061,Firefox,1440,900,,,,,10,727,,,,,,,,,,,,,,,,,D,181,triangle,1,0,,,,,,,,,,,,,,,,repeat,letter,lettRpt,d,1.086,Hi,,,,,,1,,,,,,space,8.207,low,0,0,0,0,1,,,,,,,,,
295030,2022-12-03_13h07.17.083,vts_reward_expectancy_bt,2022.2.4,MacIntel,60.82725061,Firefox,1440,900,,,,,10,737,,,,,,,,,,,,,,,,,U,167,hexagon,1,0,,,,,,,,,,,,,,,,repeat,letter,lettRpt,f,0.898,Lo,,,,,,1,,,,,,,,low,1,0,1,0,1,,,,,,,,,
295030,2022-12-03_13h07.17.083,vts_reward_expectancy_bt,2022.2.4,MacIntel,60.82725061,Firefox,1440,900,,,,,0,737,,,,,,,,,,,,,,,,,Y,146,circle,-1,0,,,,,,,,,,,,,,,,switch,no_choice,NA,,,Lo,,,,,,1,,,,,,,,low,2,0,2,0,1,,,,,,,,,
295030,2022-12-03_13h07.17.083,vts_reward_expectancy_bt,2022.2.4,MacIntel,60.82725061,Firefox,1440,900,,,,,1,738,,,,,,,,,,,,,,,,,F,132,star,1,0,,,,,,,,,,,,,,,,switch,letter,lettSwt,d,0.805,Lo,,,,,,1,,,,,,,,low,3,0,3,0,1,,,,,,,,,
295030,2022-12-03_13h07.17.083,vts_reward_expectancy_bt,2022.2.4,MacIntel,60.82725061,Firefox,1440,900,,,,,0,738,,,,,,,,,,,,,,,,,S,125,triangle,0,0,,,,,,,,,,,,,,,,repeat,letter,NA,d,1.785,Lo,,,,,,1,,,,,,,,low,4,0,4,0,1,,,,,,,,,
295030,2022-12-03_13h07.17.083,vts_reward_expectancy_bt,2022.2.4,MacIntel,60.82725061,Firefox,1440,900,,,,,0,738,,,,,,,,,,,,,,,,,W,160,hexagon,-1,1,,,,,,,,,,,,,,,,switch,no_choice,NA,,,Lo,,,,,,1,,,,,,,,low,5,0,5,0,1,,,,,,,,,
295030,2022-12-03_13h07.17.083,vts_reward_expectancy_bt,2022.2.4,MacIntel,60.82725061,Firefox,1440,900,,,,,0,738,,,,,,,,,,,,,,,,,B,139,circle,1,0,,,,,,,,,,,,,,,,switch,letter,lettSwt,d,0.67,Hi,,,,,,1,,,,,,,,low,6,0,6,0,1,,,,,,,,,
295030,2022-12-03_13h07.17.083,vts_reward_expectancy_bt,2022.2.4,MacIntel,60.82725061,Firefox,1440,900,,,,,10,748,,,,,,,,,,,,,,,,,H,174,star,1,0,,,,,,,,,,,,,,,,repeat,letter,lettRpt,d,1.854,Lo,,,,,,1,,,,,,,,low,7,0,7,0,1,,,,,,,,,
295030,2022-12-03_13h07.17.083,vts_reward_expectancy_bt,2022.2.4,MacIntel,60.82725061,Firefox,1440,900,,,,,0,748,,,,,,,,,,,,,,,,,D,181,circle,1,0,,,,,,,,,,,,,,,,repeat,letter,lettRpt,d,1.739,Hi,,,,,,1,,,,,,,,low,8,0,8,0,1,,,,,,,,,
295030,2022-12-03_13h07.17.083,vts_reward_expectancy_bt,2022.2.4,MacIntel,60.82725061,Firefox,1440,900,,,,,0,748,,,,,,,,,,,,,,,,,U,167,star,0,0,,,,,,,,,,,,,,,,repeat,letter,NA,d,0.824,Hi,,,,,,1,,,,,,,,low,9,0,9,0,1,,,,,,,,,
295030,2022-12-03_13h07.17.083,vts_reward_expectancy_bt,2022.2.4,MacIntel,60.82725061,Firefox,1440,900,,,,,0,748,,,,,,,,,,,,,,,,,Y,146,hexagon,-1,1,,,,,,,,,,,,,,,,switch,no_choice,NA,,,Hi,,,,,,1,,,,,,,,low,10,0,10,0,1,,,,,,,,,
295030,2022-12-03_13h07.17.083,vts_reward_expectancy_bt,2022.2.4,MacIntel,60.82725061,Firefox,1440,900,,,,,0,748,,,,,,,,,,,,,,,,,F,132,triangle,1,0,,,,,,,,,,,,,,,,switch,letter,lettSwt,d,1.205,Hi,,,,,,1,,,,,,,,low,11,0,11,0,1,,,,,,,,,
295030,2022-12-03_13h07.17.083,vts_reward_expectancy_bt,2022.2.4,MacIntel,60.82725061,Firefox,1440,900,,,,,1,749,,,,,,,,,,,,,,,,,S,125,hexagon,1,0,,,,,,,,,,,,,,,,repeat,letter,lettRpt,f,1.755,Lo,,,,,,1,,,,,,,,low,12,0,12,0,1,,,,,,,,,
295030,2022-12-03_13h07.17.083,vts_reward_expectancy_bt,2022.2.4,MacIntel,60.82725061,Firefox,1440,900,,,,,0,749,,,,,,,,,,,,,,,,,W,160,circle,1,0,,,,,,,,,,,,,,,,repeat,letter,lettRpt,f,1.352,Hi,,,,,,1,,,,,,,,low,13,0,13,0,1,,,,,,,,,
295030,2022-12-03_13h07.17.083,vts_reward_expectancy_bt,2022.2.4,MacIntel,60.82725061,Firefox,1440,900,,,,,1,750,,,,,,,,,,,,,,,,,B,139,star,1,0,,,,,,,,,,,,,,,,repeat,letter,lettRpt,d,1.836,Lo,,,,,,1,,,,,,,,low,14,0,14,0,1,,,,,,,,,
295030,2022-12-03_13h07.17.083,vts_reward_expectancy_bt,2022.2.4,MacIntel,60.82725061,Firefox,1440,900,,,,,10,760,,,,,,,,,,,,,,,,,H,174,triangle,1,0,,,,,,,,,,,,,,,,repeat,letter,lettRpt,d,1.138,Hi,,,,,,1,,,,,,,,low,15,0,15,0,1,,,,,,,,,
295030,2022-12-03_13h07.17.083,vts_reward_expectancy_bt,2022.2.4,MacIntel,60.82725061,Firefox,1440,900,,,,,1,761,,,,,,,,,,,,,,,,,D,132,hexagon,1,0,,,,,,,,,,,,,,,,repeat,letter,lettRpt,d,1.003,Lo,,,,,,1,,,,,,,,low,16,0,16,0,1,,,,,,,,,
295030,2022-12-03_13h07.17.083,vts_reward_expectancy_bt,2022.2.4,MacIntel,60.82725061,Firefox,1440,900,,,,,0,761,,,,,,,,,,,,,,,,,Y,139,triangle,1,0,,,,,,,,,,,,,,,,repeat,letter,lettRpt,f,1.271,Hi,,,,,,1,,,,,,,,low,17,0,17,0,1,,,,,,,,,
295030,2022-12-03_13h07.17.083,vts_reward_expectancy_bt,2022.2.4,MacIntel,60.82725061,Firefox,1440,900,,,,,0,761,,,,,,,,,,,,,,,,,F,167,circle,1,0,,,,,,,,,,,,,,,,repeat,letter,lettRpt,d,2.705,Hi,,,,,,1,,,,,,,,low,18,0,18,0,1,,,,,,,,,
295030,2022-12-03_13h07.17.083,vts_reward_expectancy_bt,2022.2.4,MacIntel,60.82725061,Firefox,1440,900,,,,,1,762,,,,,,,,,,,,,,,,,W,174,star,1,0,,,,,,,,,,,,,,,,repeat,letter,lettRpt,f,1.235,Lo,,,,,,1,,,,,,,,low,19,0,19,0,1,,,,,,,,,
295030,2022-12-03_13h07.17.083,vts_reward_expectancy_bt,2022.2.4,MacIntel,60.82725061,Firefox,1440,900,,,,,0,762,,,,,,,,,,,,,,,,,B,160,triangle,1,0,,,,,,,,,,,,,,,,repeat,letter,lettRpt,d,1.751,Hi,,,,,,1,,,,,,,,low,20,0,20,0,1,,,,,,,,,
295030,2022-12-03_13h07.17.083,vts_reward_expectancy_bt,2022.2.4,MacIntel,60.82725061,Firefox,1440,900,,,,,0,762,,,,,,,,,,,,,,,,,H,125,hexagon,-1,0,,,,,,,,,,,,,,,,switch,no_choice,NA,,,Hi,,,,,,1,,,,,,,,low,21,0,21,0,1,,,,,,,,,
295030,2022-12-03_13h07.17.083,vts_reward_expectancy_bt,2022.2.4,MacIntel,60.82725061,Firefox,1440,900,,,,,1,763,,,,,,,,,,,,,,,,,S,146,star,1,0,,,,,,,,,,,,,,,,switch,letter,lettSwt,f,2.59,Lo,,,,,,1,,,,,,,,low,22,0,22,0,1,,,,,,,,,
295030,2022-12-03_13h07.17.083,vts_reward_expectancy_bt,2022.2.4,MacIntel,60.82725061,Firefox,1440,900,,,,,10,773,,,,,,,,,,,,,,,,,U,181,circle,1,0,,,,,,,,,,,,,,,,repeat,letter,lettRpt,f,0.873,Hi,,,,,,1,,,,,,,,low,23,0,23,0,1,,,,,,,,,
295030,2022-12-03_13h07.17.083,vts_reward_expectancy_bt,2022.2.4,MacIntel,60.82725061,Firefox,1440,900,,,,,1,774,,,,,,,,,,,,,,,,,F,167,hexagon,1,0,,,,,,,,,,,,,,,,repeat,letter,lettRpt,d,2,Lo,,,,,,1,,,,,,,,low,24,0,24,0,1,,,,,,,,,
295030,2022-12-03_13h07.17.083,vts_reward_expectancy_bt,2022.2.4,MacIntel,60.82725061,Firefox,1440,900,,,,,0,774,,,,,,,,,,,,,,,,,S,146,triangle,-1,0,,,,,,,,,,,,,,,,switch,no_choice,NA,,,Lo,,,,,,1,,,,,,,,low,25,0,25,0,1,,,,,,,,,
295030,2022-12-03_13h07.17.083,vts_reward_expectancy_bt,2022.2.4,MacIntel,60.82725061,Firefox,1440,900,,,,,1,775,,,,,,,,,,,,,,,,,W,174,star,1,0,,,,,,,,,,,,,,,,switch,letter,lettSwt,f,0.82,Lo,,,,,,1,,,,,,,,low,26,0,26,0,1,,,,,,,,,
295030,2022-12-03_13h07.17.083,vts_reward_expectancy_bt,2022.2.4,MacIntel,60.82725061,Firefox,1440,900,,,,,10,785,,,,,,,,,,,,,,,,,U,132,circle,1,0,,,,,,,,,,,,,,,,repeat,letter,lettRpt,f,1.071,Hi,,,,,,1,,,,,,,,low,27,0,27,0,1,,,,,,,,,
295030,2022-12-03_13h07.17.083,vts_reward_expectancy_bt,2022.2.4,MacIntel,60.82725061,Firefox,1440,900,,,,,0,785,,,,,,,,,,,,,,,,,D,181,circle,1,0,,,,,,,,,,,,,,,,repeat,letter,lettRpt,d,1.934,Hi,,,,,,1,,,,,,,,low,28,0,28,0,1,,,,,,,,,
295030,2022-12-03_13h07.17.083,vts_reward_expectancy_bt,2022.2.4,MacIntel,60.82725061,Firefox,1440,900,,,,,1,786,,,,,,,,,,,,,,,,,B,139,hexagon,1,0,,,,,,,,,,,,,,,,repeat,letter,lettRpt,d,1.906,Lo,,,,,,1,,,,,,,,low,29,0,29,0,1,,,,,,,,,
295030,2022-12-03_13h07.17.083,vts_reward_expectancy_bt,2022.2.4,MacIntel,60.82725061,Firefox,1440,900,,,,,0,786,,,,,,,,,,,,,,,,,H,160,triangle,0,0,,,,,,,,,,,,,,,,repeat,letter,NA,f,1.516,Lo,,,,,,1,,,,,,,,low,30,0,30,0,1,,,,,,,,,
295030,2022-12-03_13h07.17.083,vts_reward_expectancy_bt,2022.2.4,MacIntel,60.82725061,Firefox,1440,900,,,,,0,786,,,,,,,,,,,,,,,,,Y,125,star,0,1,,,,,,,,,,,,,,,,repeat,letter,NA,d,2.87,Lo,,,,,,1,,,,,,,,low,31,0,31,0,1,,,,,,,,,
295030,2022-12-03_13h07.17.083,vts_reward_expectancy_bt,2022.2.4,MacIntel,60.82725061,Firefox,1440,900,,,,,10,796,,,,,,,,,,,,,,,,,H,160,hexagon,1,1,,,,,,,,,,,,,,,,switch,number,numSwt,k,0.438,Lo,,,,,,2,,,,,,space,3.176,low,0,0,0,0,1,,,,,,,,,
295030,2022-12-03_13h07.17.083,vts_reward_expectancy_bt,2022.2.4,MacIntel,60.82725061,Firefox,1440,900,,,,,1,797,,,,,,,,,,,,,,,,,Y,125,circle,1,0,,,,,,,,,,,,,,,,repeat,number,numRpt,j,0.688,Hi,,,,,,2,,,,,,,,low,1,0,1,0,1,,,,,,,,,
295030,2022-12-03_13h07.17.083,vts_reward_expectancy_bt,2022.2.4,MacIntel,60.82725061,Firefox,1440,900,,,,,0,797,,,,,,,,,,,,,,,,,W,132,triangle,-1,0,,,,,,,,,,,,,,,,switch,no_choice,NA,,,Hi,,,,,,2,,,,,,,,low,2,0,2,0,1,,,,,,,,,
295030,2022-12-03_13h07.17.083,vts_reward_expectancy_bt,2022.2.4,MacIntel,60.82725061,Firefox,1440,900,,,,,1,798,,,,,,,,,,,,,,,,,S,167,star,1,0,,,,,,,,,,,,,,,,switch,number,numSwt,k,0.905,Lo,,,,,,2,,,,,,,,low,3,0,3,0,1,,,,,,,,,
295030,2022-12-03_13h07.17.083,vts_reward_expectancy_bt,2022.2.4,MacIntel,60.82725061,Firefox,1440,900,,,,,1,799,,,,,,,,,,,,,,,,,F,139,hexagon,1,0,,,,,,,,,,,,,,,,repeat,number,numRpt,j,1.969,Lo,,,,,,2,,,,,,,,low,4,0,4,0,1,,,,,,,,,
295030,2022-12-03_13h07.17.083,vts_reward_expectancy_bt,2022.2.4,MacIntel,60.82725061,Firefox,1440,900,,,,,1,800,,,,,,,,,,,,,,,,,D,174,circle,1,0,,,,,,,,,,,,,,,,repeat,number,numRpt,k,0.637,Hi,,,,,,2,,,,,,,,low,5,0,5,0,1,,,,,,,,,
295030,2022-12-03_13h07.17.083,vts_reward_expectancy_bt,2022.2.4,MacIntel,60.82725061,Firefox,1440,900,,,,,10,810,,,,,,,,,,,,,,,,,U,181,triangle,1,0,,,,,,,,,,,,,,,,repeat,number,numRpt,k,0.634,Hi,,,,,,2,,,,,,,,low,6,0,6,0,1,,,,,,,,,
295030,2022-12-03_13h07.17.083,vts_reward_expectancy_bt,2022.2.4,MacIntel,60.82725061,Firefox,1440,900,,,,,1,811,,,,,,,,,,,,,,,,,B,146,star,1,0,,,,,,,,,,,,,,,,repeat,number,numRpt,j,0.987,Lo,,,,,,2,,,,,,,,low,7,0,7,0,1,,,,,,,,,
295030,2022-12-03_13h07.17.083,vts_reward_expectancy_bt,2022.2.4,MacIntel,60.82725061,Firefox,1440,900,,,,,1,812,,,,,,,,,,,,,,,,,H,160,triangle,1,0,,,,,,,,,,,,,,,,repeat,number,numRpt,k,1.64,Hi,,,,,,2,,,,,,,,low,8,0,8,0,1,,,,,,,,,
295030,2022-12-03_13h07.17.083,vts_reward_expectancy_bt,2022.2.4,MacIntel,60.82725061,Firefox,1440,900,,,,,1,813,,,,,,,,,,,,,,,,,Y,125,circle,1,0,,,,,,,,,,,,,,,,repeat,number,numRpt,j,1.868,Hi,,,,,,2,,,,,,,,low,9,0,9,0,1,,,,,,,,,
295030,2022-12-03_13h07.17.083,vts_reward_expectancy_bt,2022.2.4,MacIntel,60.82725061,Firefox,1440,900,,,,,0,813,,,,,,,,,,,,,,,,,W,132,hexagon,-1,0,,,,,,,,,,,,,,,,switch,no_choice,NA,,,Hi,,,,,,2,,,,,,,,low,10,0,10,0,1,,,,,,,,,
295030,2022-12-03_13h07.17.083,vts_reward_expectancy_bt,2022.2.4,MacIntel,60.82725061,Firefox,1440,900,,,,,1,814,,,,,,,,,,,,,,,,,S,167,star,1,0,,,,,,,,,,,,,,,,switch,number,numSwt,k,1.168,Lo,,,,,,2,,,,,,,,low,11,0,11,0,1,,,,,,,,,
295030,2022-12-03_13h07.17.083,vts_reward_expectancy_bt,2022.2.4,MacIntel,60.82725061,Firefox,1440,900,,,,,1,815,,,,,,,,,,,,,,,,,F,139,star,1,0,,,,,,,,,,,,,,,,repeat,number,numRpt,j,1.069,Lo,,,,,,2,,,,,,,,low,12,0,12,0,1,,,,,,,,,
295030,2022-12-03_13h07.17.083,vts_reward_expectancy_bt,2022.2.4,MacIntel,60.82725061,Firefox,1440,900,,,,,1,816,,,,,,,,,,,,,,,,,D,174,hexagon,1,0,,,,,,,,,,,,,,,,repeat,number,numRpt,k,0.855,Lo,,,,,,2,,,,,,,,low,13,0,13,0,1,,,,,,,,,
295030,2022-12-03_13h07.17.083,vts_reward_expectancy_bt,2022.2.4,MacIntel,60.82725061,Firefox,1440,900,,,,,10,826,,,,,,,,,,,,,,,,,U,181,triangle,1,0,,,,,,,,,,,,,,,,repeat,number,numRpt,k,0.584,Hi,,,,,,2,,,,,,,,low,14,0,14,0,1,,,,,,,,,
295030,2022-12-03_13h07.17.083,vts_reward_expectancy_bt,2022.2.4,MacIntel,60.82725061,Firefox,1440,900,,,,,1,827,,,,,,,,,,,,,,,,,B,146,circle,1,0,,,,,,,,,,,,,,,,repeat,number,numRpt,j,1.451,Hi,,,,,,2,,,,,,,,low,15,0,15,0,1,,,,,,,,,
295030,2022-12-03_13h07.17.083,vts_reward_expectancy_bt,2022.2.4,MacIntel,60.82725061,Firefox,1440,900,,,,,10,837,,,,,,,,,,,,,,,,,D,167,hexagon,1,0,,,,,,,,,,,,,,,,repeat,number,numRpt,k,1.153,Lo,,,,,,2,,,,,,,,low,16,0,16,0,1,,,,,,,,,
295030,2022-12-03_13h07.17.083,vts_reward_expectancy_bt,2022.2.4,MacIntel,60.82725061,Firefox,1440,900,,,,,10,847,,,,,,,,,,,,,,,,,F,174,triangle,1,0,,,,,,,,,,,,,,,,repeat,number,numRpt,k,0.686,Hi,,,,,,2,,,,,,,,low,17,0,17,0,1,,,,,,,,,
295030,2022-12-03_13h07.17.083,vts_reward_expectancy_bt,2022.2.4,MacIntel,60.82725061,Firefox,1440,900,,,,,0,847,,,,,,,,,,,,,,,,,B,146,star,0,0,,,,,,,,,,,,,,,,repeat,number,NA,k,0.871,Hi,,,,,,2,,,,,,,,low,18,0,18,0,1,,,,,,,,,
295030,2022-12-03_13h07.17.083,vts_reward_expectancy_bt,2022.2.4,MacIntel,60.82725061,Firefox,1440,900,,,,,10,857,,,,,,,,,,,,,,,,,H,125,circle,1,1,,,,,,,,,,,,,,,,repeat,number,numRpt,j,0.953,Hi,,,,,,2,,,,,,,,low,19,0,19,0,1,,,,,,,,,
295030,2022-12-03_13h07.17.083,vts_reward_expectancy_bt,2022.2.4,MacIntel,60.82725061,Firefox,1440,900,,,,,10,867,,,,,,,,,,,,,,,,,W,181,hexagon,1,0,,,,,,,,,,,,,,,,repeat,number,numRpt,k,2.487,Lo,,,,,,2,,,,,,,,low,20,0,20,0,1,,,,,,,,,
295030,2022-12-03_13h07.17.083,vts_reward_expectancy_bt,2022.2.4,MacIntel,60.82725061,Firefox,1440,900,,,,,1,868,,,,,,,,,,,,,,,,,U,132,triangle,1,0,,,,,,,,,,,,,,,,repeat,number,numRpt,j,1.436,Hi,,,,,,2,,,,,,,,low,21,0,21,0,1,,,,,,,,,
295030,2022-12-03_13h07.17.083,vts_reward_expectancy_bt,2022.2.4,MacIntel,60.82725061,Firefox,1440,900,,,,,10,878,,,,,,,,,,,,,,,,,Y,139,circle,1,0,,,,,,,,,,,,,,,,repeat,number,numRpt,j,0.82,Hi,,,,,,2,,,,,,,,low,22,0,22,0,1,,,,,,,,,
295030,2022-12-03_13h07.17.083,vts_reward_expectancy_bt,2022.2.4,MacIntel,60.82725061,Firefox,1440,900,,,,,0,878,,,,,,,,,,,,,,,,,S,160,star,0,0,,,,,,,,,,,,,,,,repeat,number,NA,j,1.635,Hi,,,,,,2,,,,,,,,low,23,0,23,0,1,,,,,,,,,
295030,2022-12-03_13h07.17.083,vts_reward_expectancy_bt,2022.2.4,MacIntel,60.82725061,Firefox,1440,900,,,,,10,888,,,,,,,,,,,,,,,,,B,132,star,1,1,,,,,,,,,,,,,,,,repeat,number,numRpt,j,0.986,Lo,,,,,,2,,,,,,,,low,24,0,24,0,1,,,,,,,,,
295030,2022-12-03_13h07.17.083,vts_reward_expectancy_bt,2022.2.4,MacIntel,60.82725061,Firefox,1440,900,,,,,10,898,,,,,,,,,,,,,,,,,H,181,circle,1,0,,,,,,,,,,,,,,,,repeat,number,numRpt,k,0.956,Hi,,,,,,2,,,,,,,,low,25,0,25,0,1,,,,,,,,,
295030,2022-12-03_13h07.17.083,vts_reward_expectancy_bt,2022.2.4,MacIntel,60.82725061,Firefox,1440,900,,,,,1,899,,,,,,,,,,,,,,,,,Y,167,hexagon,1,0,,,,,,,,,,,,,,,,repeat,number,numRpt,k,1.153,Lo,,,,,,2,,,,,,,,low,26,0,26,0,1,,,,,,,,,
295030,2022-12-03_13h07.17.083,vts_reward_expectancy_bt,2022.2.4,MacIntel,60.82725061,Firefox,1440,900,,,,,1,900,,,,,,,,,,,,,,,,,W,174,triangle,1,0,,,,,,,,,,,,,,,,repeat,number,numRpt,k,1.103,Hi,,,,,,2,,,,,,,,low,27,0,27,0,1,,,,,,,,,
295030,2022-12-03_13h07.17.083,vts_reward_expectancy_bt,2022.2.4,MacIntel,60.82725061,Firefox,1440,900,,,,,10,910,,,,,,,,,,,,,,,,,S,160,circle,1,0,,,,,,,,,,,,,,,,repeat,number,numRpt,k,0.969,Hi,,,,,,2,,,,,,,,low,28,0,28,0,1,,,,,,,,,
295030,2022-12-03_13h07.17.083,vts_reward_expectancy_bt,2022.2.4,MacIntel,60.82725061,Firefox,1440,900,,,,,10,920,,,,,,,,,,,,,,,,,U,146,star,1,0,,,,,,,,,,,,,,,,repeat,number,numRpt,j,1.239,Lo,,,,,,2,,,,,,,,low,29,0,29,0,1,,,,,,,,,
295030,2022-12-03_13h07.17.083,vts_reward_expectancy_bt,2022.2.4,MacIntel,60.82725061,Firefox,1440,900,,,,,1,921,,,,,,,,,,,,,,,,,D,125,triangle,1,0,,,,,,,,,,,,,,,,repeat,number,numRpt,j,1.052,Hi,,,,,,2,,,,,,,,low,30,0,30,0,1,,,,,,,,,
295030,2022-12-03_13h07.17.083,vts_reward_expectancy_bt,2022.2.4,MacIntel,60.82725061,Firefox,1440,900,,,,,1,922,,,,,,,,,,,,,,,,,F,139,hexagon,1,0,,,,,,,,,,,,,,,,repeat,number,numRpt,j,1.103,Lo,,,,,,2,,,,,,,,low,31,0,31,0,1,,,,,,,,,
295030,2022-12-03_13h07.17.083,vts_reward_expectancy_bt,2022.2.4,MacIntel,60.82725061,Firefox,1440,900,,,,,0,922,,,,,,,,,,,,,,,,,Y,132,circle,0,0,,,,,,,,,,,,,,,,repeat,number,NA,k,2.686,Lo,,,,,,3,,,,,,space,35.915,low,0,0,0,0,1,,,,,,,,,
295030,2022-12-03_13h07.17.083,vts_reward_expectancy_bt,2022.2.4,MacIntel,60.82725061,Firefox,1440,900,,,,,0,922,,,,,,,,,,,,,,,,,F,181,hexagon,-1,1,,,,,,,,,,,,,,,,switch,no_choice,NA,,,Lo,,,,,,3,,,,,,,,low,1,0,1,0,1,,,,,,,,,
295030,2022-12-03_13h07.17.083,vts_reward_expectancy_bt,2022.2.4,MacIntel,60.82725061,Firefox,1440,900,,,,,0,922,,,,,,,,,,,,,,,,,H,174,triangle,-1,0,,,,,,,,,,,,,,,,repeat,no_choice,NA,,,Lo,,,,,,3,,,,,,,,low,2,0,2,0,1,,,,,,,,,
295030,2022-12-03_13h07.17.083,vts_reward_expectancy_bt,2022.2.4,MacIntel,60.82725061,Firefox,1440,900,,,,,0,922,,,,,,,,,,,,,,,,,B,160,star,-1,0,,,,,,,,,,,,,,,,repeat,no_choice,NA,,,Lo,,,,,,3,,,,,,,,low,3,0,3,0,1,,,,,,,,,
295030,2022-12-03_13h07.17.083,vts_reward_expectancy_bt,2022.2.4,MacIntel,60.82725061,Firefox,1440,900,,,,,0,922,,,,,,,,,,,,,,,,,U,146,circle,0,0,,,,,,,,,,,,,,,,switch,number,NA,k,1.136,Lo,,,,,,3,,,,,,,,low,4,0,4,0,1,,,,,,,,,
295030,2022-12-03_13h07.17.083,vts_reward_expectancy_bt,2022.2.4,MacIntel,60.82725061,Firefox,1440,900,,,,,1,923,,,,,,,,,,,,,,,,,S,167,hexagon,1,1,,,,,,,,,,,,,,,,repeat,number,numRpt,k,1.489,Lo,,,,,,3,,,,,,,,low,5,0,5,0,1,,,,,,,,,
295030,2022-12-03_13h07.17.083,vts_reward_expectancy_bt,2022.2.4,MacIntel,60.82725061,Firefox,1440,900,,,,,0,923,,,,,,,,,,,,,,,,,D,125,triangle,1,0,,,,,,,,,,,,,,,,repeat,number,numRpt,j,1.053,Hi,,,,,,3,,,,,,,,low,6,0,6,0,1,,,,,,,,,
295030,2022-12-03_13h07.17.083,vts_reward_expectancy_bt,2022.2.4,MacIntel,60.82725061,Firefox,1440,900,,,,,10,933,,,,,,,,,,,,,,,,,W,139,star,1,0,,,,,,,,,,,,,,,,repeat,number,numRpt,j,0.706,Lo,,,,,,3,,,,,,,,low,7,0,7,0,1,,,,,,,,,
295030,2022-12-03_13h07.17.083,vts_reward_expectancy_bt,2022.2.4,MacIntel,60.82725061,Firefox,1440,900,,,,,0,933,,,,,,,,,,,,,,,,,Y,132,triangle,1,0,,,,,,,,,,,,,,,,repeat,number,numRpt,j,1.487,Hi,,,,,,3,,,,,,,,low,8,0,8,0,1,,,,,,,,,
295030,2022-12-03_13h07.17.083,vts_reward_expectancy_bt,2022.2.4,MacIntel,60.82725061,Firefox,1440,900,,,,,0,933,,,,,,,,,,,,,,,,,F,181,circle,1,0,,,,,,,,,,,,,,,,repeat,number,numRpt,k,1.787,Hi,,,,,,3,,,,,,,,low,9,0,9,0,1,,,,,,,,,
295030,2022-12-03_13h07.17.083,vts_reward_expectancy_bt,2022.2.4,MacIntel,60.82725061,Firefox,1440,900,,,,,1,934,,,,,,,,,,,,,,,,,H,174,star,1,0,,,,,,,,,,,,,,,,repeat,number,numRpt,k,0.904,Lo,,,,,,3,,,,,,,,low,10,0,10,0,1,,,,,,,,,
295030,2022-12-03_13h07.17.083,vts_reward_expectancy_bt,2022.2.4,MacIntel,60.82725061,Firefox,1440,900,,,,,10,944,,,,,,,,,,,,,,,,,B,160,hexagon,1,0,,,,,,,,,,,,,,,,repeat,number,numRpt,k,1.433,Lo,,,,,,3,,,,,,,,low,11,0,11,0,1,,,,,,,,,
295030,2022-12-03_13h07.17.083,vts_reward_expectancy_bt,2022.2.4,MacIntel,60.82725061,Firefox,1440,900,,,,,10,954,,,,,,,,,,,,,,,,,U,146,star,1,0,,,,,,,,,,,,,,,,repeat,number,numRpt,j,1.553,Lo,,,,,,3,,,,,,,,low,12,0,12,0,1,,,,,,,,,
295030,2022-12-03_13h07.17.083,vts_reward_expectancy_bt,2022.2.4,MacIntel,60.82725061,Firefox,1440,900,,,,,10,964,,,,,,,,,,,,,,,,,S,167,hexagon,1,0,,,,,,,,,,,,,,,,repeat,number,numRpt,k,1.039,Lo,,,,,,3,,,,,,,,low,13,0,13,0,1,,,,,,,,,
295030,2022-12-03_13h07.17.083,vts_reward_expectancy_bt,2022.2.4,MacIntel,60.82725061,Firefox,1440,900,,,,,0,964,,,,,,,,,,,,,,,,,D,125,circle,1,0,,,,,,,,,,,,,,,,repeat,number,numRpt,j,1.269,Hi,,,,,,3,,,,,,,,low,14,0,14,0,1,,,,,,,,,
295030,2022-12-03_13h07.17.083,vts_reward_expectancy_bt,2022.2.4,MacIntel,60.82725061,Firefox,1440,900,,,,,10,974,,,,,,,,,,,,,,,,,W,139,triangle,1,0,,,,,,,,,,,,,,,,repeat,number,numRpt,j,0.955,Hi,,,,,,3,,,,,,,,low,15,0,15,0,1,,,,,,,,,
295030,2022-12-03_13h07.17.083,vts_reward_expectancy_bt,2022.2.4,MacIntel,60.82725061,Firefox,1440,900,,,,,1,975,,,,,,,,,,,,,,,,,B,132,hexagon,1,0,,,,,,,,,,,,,,,,repeat,number,numRpt,j,1.434,Lo,,,,,,3,,,,,,,,low,16,0,16,0,1,,,,,,,,,
295030,2022-12-03_13h07.17.083,vts_reward_expectancy_bt,2022.2.4,MacIntel,60.82725061,Firefox,1440,900,,,,,0,975,,,,,,,,,,,,,,,,,U,139,circle,1,0,,,,,,,,,,,,,,,,repeat,number,numRpt,j,2.967,Hi,,,,,,3,,,,,,,,low,17,0,17,0,1,,,,,,,,,
295030,2022-12-03_13h07.17.083,vts_reward_expectancy_bt,2022.2.4,MacIntel,60.82725061,Firefox,1440,900,,,,,0,975,,,,,,,,,,,,,,,,,W,160,triangle,0,0,,,,,,,,,,,,,,,,repeat,number,NA,j,1.085,Hi,,,,,,3,,,,,,,,low,18,0,18,0,1,,,,,,,,,
295030,2022-12-03_13h07.17.083,vts_reward_expectancy_bt,2022.2.4,MacIntel,60.82725061,Firefox,1440,900,,,,,0,975,,,,,,,,,,,,,,,,,D,146,star,0,1,,,,,,,,,,,,,,,,repeat,number,NA,k,0.453,Hi,,,,,,3,,,,,,,,low,19,0,19,0,1,,,,,,,,,
295030,2022-12-03_13h07.17.083,vts_reward_expectancy_bt,2022.2.4,MacIntel,60.82725061,Firefox,1440,900,,,,,1,976,,,,,,,,,,,,,,,,,F,174,circle,1,1,,,,,,,,,,,,,,,,repeat,number,numRpt,k,0.872,Hi,,,,,,3,,,,,,,,low,20,0,20,0,1,,,,,,,,,
295030,2022-12-03_13h07.17.083,vts_reward_expectancy_bt,2022.2.4,MacIntel,60.82725061,Firefox,1440,900,,,,,10,986,,,,,,,,,,,,,,,,,Y,167,star,1,0,,,,,,,,,,,,,,,,repeat,number,numRpt,k,1.068,Lo,,,,,,3,,,,,,,,low,21,0,21,0,1,,,,,,,,,
295030,2022-12-03_13h07.17.083,vts_reward_expectancy_bt,2022.2.4,MacIntel,60.82725061,Firefox,1440,900,,,,,10,996,,,,,,,,,,,,,,,,,S,125,triangle,1,0,,,,,,,,,,,,,,,,repeat,number,numRpt,j,0.934,Hi,,,,,,3,,,,,,,,low,22,0,22,0,1,,,,,,,,,
295030,2022-12-03_13h07.17.083,vts_reward_expectancy_bt,2022.2.4,MacIntel,60.82725061,Firefox,1440,900,,,,,1,997,,,,,,,,,,,,,,,,,H,181,hexagon,1,0,,,,,,,,,,,,,,,,repeat,number,numRpt,k,1.419,Lo,,,,,,3,,,,,,,,low,23,0,23,0,1,,,,,,,,,
295030,2022-12-03_13h07.17.083,vts_reward_expectancy_bt,2022.2.4,MacIntel,60.82725061,Firefox,1440,900,,,,,1,998,,,,,,,,,,,,,,,,,D,132,hexagon,1,0,,,,,,,,,,,,,,,,repeat,number,numRpt,j,1.219,Lo,,,,,,3,,,,,,,,low,24,0,24,0,1,,,,,,,,,
295030,2022-12-03_13h07.17.083,vts_reward_expectancy_bt,2022.2.4,MacIntel,60.82725061,Firefox,1440,900,,,,,1,999,,,,,,,,,,,,,,,,,F,174,star,1,0,,,,,,,,,,,,,,,,repeat,number,numRpt,k,1.601,Lo,,,,,,3,,,,,,,,low,25,0,25,0,1,,,,,,,,,
295030,2022-12-03_13h07.17.083,vts_reward_expectancy_bt,2022.2.4,MacIntel,60.82725061,Firefox,1440,900,,,,,0,999,,,,,,,,,,,,,,,,,U,167,circle,-1,0,,,,,,,,,,,,,,,,switch,no_choice,NA,,,Lo,,,,,,3,,,,,,,,low,26,0,26,0,1,,,,,,,,,
295030,2022-12-03_13h07.17.083,vts_reward_expectancy_bt,2022.2.4,MacIntel,60.82725061,Firefox,1440,900,,,,,0,999,,,,,,,,,,,,,,,,,B,160,triangle,1,0,,,,,,,,,,,,,,,,switch,number,numSwt,k,0.758,Hi,,,,,,3,,,,,,,,low,27,0,27,0,1,,,,,,,,,
295030,2022-12-03_13h07.17.083,vts_reward_expectancy_bt,2022.2.4,MacIntel,60.82725061,Firefox,1440,900,,,,,0,999,,,,,,,,,,,,,,,,,Y,139,triangle,1,0,,,,,,,,,,,,,,,,repeat,number,numRpt,j,1.763,Hi,,,,,,3,,,,,,,,low,28,0,28,0,1,,,,,,,,,
295030,2022-12-03_13h07.17.083,vts_reward_expectancy_bt,2022.2.4,MacIntel,60.82725061,Firefox,1440,900,,,,,0,999,,,,,,,,,,,,,,,,,H,146,circle,0,0,,,,,,,,,,,,,,,,repeat,number,NA,k,2.202,Hi,,,,,,3,,,,,,,,low,29,0,29,0,1,,,,,,,,,
295030,2022-12-03_13h07.17.083,vts_reward_expectancy_bt,2022.2.4,MacIntel,60.82725061,Firefox,1440,900,,,,,10,1009,,,,,,,,,,,,,,,,,W,181,star,1,1,,,,,,,,,,,,,,,,repeat,number,numRpt,k,0.718,Lo,,,,,,3,,,,,,,,low,30,0,30,0,1,,,,,,,,,
295030,2022-12-03_13h07.17.083,vts_reward_expectancy_bt,2022.2.4,MacIntel,60.82725061,Firefox,1440,900,,,,,10,1019,,,,,,,,,,,,,,,,,S,125,hexagon,1,0,,,,,,,,,,,,,,,,repeat,number,numRpt,j,0.654,Lo,,,,,,3,,,,,,,,low,31,0,31,0,1,,,,,,,,,
295030,2022-12-03_13h07.17.083,vts_reward_expectancy_bt,2022.2.4,MacIntel,60.82725061,Firefox,1440,900,,,,,1,1020,,,,,,,,,,,,,,,,,F,146,circle,1,0,,,,,,,,,,,,,,,,repeat,number,numRpt,j,0.77,Hi,,,,,,4,,,,,,space,1.719,low,0,0,0,0,1,,,,,,,,,
295030,2022-12-03_13h07.17.083,vts_reward_expectancy_bt,2022.2.4,MacIntel,60.82725061,Firefox,1440,900,,,,,0,1020,,,,,,,,,,,,,,,,,Y,167,triangle,1,0,,,,,,,,,,,,,,,,repeat,number,numRpt,k,1.148,Hi,,,,,,4,,,,,,,,low,1,0,1,0,1,,,,,,,,,
295030,2022-12-03_13h07.17.083,vts_reward_expectancy_bt,2022.2.4,MacIntel,60.82725061,Firefox,1440,900,,,,,10,1030,,,,,,,,,,,,,,,,,H,139,hexagon,1,0,,,,,,,,,,,,,,,,repeat,number,numRpt,j,2.099,Lo,,,,,,4,,,,,,,,low,2,0,2,0,1,,,,,,,,,
295030,2022-12-03_13h07.17.083,vts_reward_expectancy_bt,2022.2.4,MacIntel,60.82725061,Firefox,1440,900,,,,,10,1040,,,,,,,,,,,,,,,,,D,160,star,1,0,,,,,,,,,,,,,,,,repeat,number,numRpt,k,2.055,Lo,,,,,,4,,,,,,,,low,3,0,3,0,1,,,,,,,,,
295030,2022-12-03_13h07.17.083,vts_reward_expectancy_bt,2022.2.4,MacIntel,60.82725061,Firefox,1440,900,,,,,10,1050,,,,,,,,,,,,,,,,,W,125,circle,1,0,,,,,,,,,,,,,,,,repeat,number,numRpt,j,0.719,Hi,,,,,,4,,,,,,,,low,4,0,4,0,1,,,,,,,,,
295030,2022-12-03_13h07.17.083,vts_reward_expectancy_bt,2022.2.4,MacIntel,60.82725061,Firefox,1440,900,,,,,10,1060,,,,,,,,,,,,,,,,,B,174,triangle,1,0,,,,,,,,,,,,,,,,repeat,number,numRpt,k,0.701,Hi,,,,,,4,,,,,,,,low,5,0,5,0,1,,,,,,,,,
295030,2022-12-03_13h07.17.083,vts_reward_expectancy_bt,2022.2.4,MacIntel,60.82725061,Firefox,1440,900,,,,,1,1061,,,,,,,,,,,,,,,,,S,181,hexagon,1,0,,,,,,,,,,,,,,,,repeat,number,numRpt,k,0.621,Lo,,,,,,4,,,,,,,,low,6,0,6,0,1,,,,,,,,,
295030,2022-12-03_13h07.17.083,vts_reward_expectancy_bt,2022.2.4,MacIntel,60.82725061,Firefox,1440,900,,,,,10,1071,,,,,,,,,,,,,,,,,U,132,star,1,0,,,,,,,,,,,,,,,,repeat,number,numRpt,j,1.084,Lo,,,,,,4,,,,,,,,low,7,0,7,0,1,,,,,,,,,
295030,2022-12-03_13h07.17.083,vts_reward_expectancy_bt,2022.2.4,MacIntel,60.82725061,Firefox,1440,900,,,,,10,1081,,,,,,,,,,,,,,,,,F,146,hexagon,1,0,,,,,,,,,,,,,,,,repeat,number,numRpt,j,1.302,Lo,,,,,,4,,,,,,,,low,8,0,8,0,1,,,,,,,,,
295030,2022-12-03_13h07.17.083,vts_reward_expectancy_bt,2022.2.4,MacIntel,60.82725061,Firefox,1440,900,,,,,1,1082,,,,,,,,,,,,,,,,,Y,167,star,1,0,,,,,,,,,,,,,,,,repeat,number,numRpt,k,1.867,Lo,,,,,,4,,,,,,,,low,9,0,9,0,1,,,,,,,,,
295030,2022-12-03_13h07.17.083,vts_reward_expectancy_bt,2022.2.4,MacIntel,60.82725061,Firefox,1440,900,,,,,0,1082,,,,,,,,,,,,,,,,,H,139,triangle,1,0,,,,,,,,,,,,,,,,repeat,number,numRpt,j,1.237,Hi,,,,,,4,,,,,,,,low,10,0,10,0,1,,,,,,,,,
295030,2022-12-03_13h07.17.083,vts_reward_expectancy_bt,2022.2.4,MacIntel,60.82725061,Firefox,1440,900,,,,,1,1083,,,,,,,,,,,,,,,,,D,160,circle,1,0,,,,,,,,,,,,,,,,repeat,number,numRpt,k,0.97,Hi,,,,,,4,,,,,,,,low,11,0,11,0,1,,,,,,,,,
295030,2022-12-03_13h07.17.083,vts_reward_expectancy_bt,2022.2.4,MacIntel,60.82725061,Firefox,1440,900,,,,,1,1084,,,,,,,,,,,,,,,,,W,125,star,1,0,,,,,,,,,,,,,,,,repeat,number,numRpt,j,1.352,Lo,,,,,,4,,,,,,,,low,12,0,12,0,1,,,,,,,,,
295030,2022-12-03_13h07.17.083,vts_reward_expectancy_bt,2022.2.4,MacIntel,60.82725061,Firefox,1440,900,,,,,0,1084,,,,,,,,,,,,,,,,,B,174,triangle,1,0,,,,,,,,,,,,,,,,repeat,number,numRpt,k,2.084,Hi,,,,,,4,,,,,,,,low,13,0,13,0,1,,,,,,,,,
295030,2022-12-03_13h07.17.083,vts_reward_expectancy_bt,2022.2.4,MacIntel,60.82725061,Firefox,1440,900,,,,,0,1084,,,,,,,,,,,,,,,,,S,181,circle,1,0,,,,,,,,,,,,,,,,repeat,number,numRpt,k,1.788,Hi,,,,,,4,,,,,,,,low,14,0,14,0,1,,,,,,,,,
295030,2022-12-03_13h07.17.083,vts_reward_expectancy_bt,2022.2.4,MacIntel,60.82725061,Firefox,1440,900,,,,,10,1094,,,,,,,,,,,,,,,,,U,132,hexagon,1,0,,,,,,,,,,,,,,,,repeat,number,numRpt,j,1.551,Lo,,,,,,4,,,,,,,,low,15,0,15,0,1,,,,,,,,,
295030,2022-12-03_13h07.17.083,vts_reward_expectancy_bt,2022.2.4,MacIntel,60.82725061,Firefox,1440,900,,,,,0,1094,,,,,,,,,,,,,,,,,H,167,circle,1,0,,,,,,,,,,,,,,,,repeat,number,numRpt,k,1.152,Hi,,,,,,4,,,,,,,,low,16,0,16,0,1,,,,,,,,,
295030,2022-12-03_13h07.17.083,vts_reward_expectancy_bt,2022.2.4,MacIntel,60.82725061,Firefox,1440,900,,,,,1,1095,,,,,,,,,,,,,,,,,B,174,star,1,0,,,,,,,,,,,,,,,,repeat,number,numRpt,k,1.503,Lo,,,,,,4,,,,,,,,low,17,0,17,0,1,,,,,,,,,
295030,2022-12-03_13h07.17.083,vts_reward_expectancy_bt,2022.2.4,MacIntel,60.82725061,Firefox,1440,900,,,,,1,1096,,,,,,,,,,,,,,,,,F,125,hexagon,1,0,,,,,,,,,,,,,,,,repeat,number,numRpt,j,0.719,Lo,,,,,,4,,,,,,,,low,18,0,18,0,1,,,,,,,,,
295030,2022-12-03_13h07.17.083,vts_reward_expectancy_bt,2022.2.4,MacIntel,60.82725061,Firefox,1440,900,,,,,1,1097,,,,,,,,,,,,,,,,,U,139,triangle,1,0,,,,,,,,,,,,,,,,repeat,number,numRpt,j,0.782,Hi,,,,,,4,,,,,,,,low,19,0,19,0,1,,,,,,,,,
295030,2022-12-03_13h07.17.083,vts_reward_expectancy_bt,2022.2.4,MacIntel,60.82725061,Firefox,1440,900,,,,,10,1107,,,,,,,,,,,,,,,,,W,181,circle,1,0,,,,,,,,,,,,,,,,repeat,number,numRpt,k,0.9,Hi,,,,,,4,,,,,,,,low,20,0,20,0,1,,,,,,,,,
295030,2022-12-03_13h07.17.083,vts_reward_expectancy_bt,2022.2.4,MacIntel,60.82725061,Firefox,1440,900,,,,,1,1108,,,,,,,,,,,,,,,,,D,146,star,1,0,,,,,,,,,,,,,,,,repeat,number,numRpt,j,0.955,Lo,,,,,,4,,,,,,,,low,21,0,21,0,1,,,,,,,,,
295030,2022-12-03_13h07.17.083,vts_reward_expectancy_bt,2022.2.4,MacIntel,60.82725061,Firefox,1440,900,,,,,10,1118,,,,,,,,,,,,,,,,,S,160,hexagon,1,0,,,,,,,,,,,,,,,,repeat,number,numRpt,k,1.337,Lo,,,,,,4,,,,,,,,low,22,0,22,0,1,,,,,,,,,
295030,2022-12-03_13h07.17.083,vts_reward_expectancy_bt,2022.2.4,MacIntel,60.82725061,Firefox,1440,900,,,,,0,1118,,,,,,,,,,,,,,,,,Y,132,triangle,1,0,,,,,,,,,,,,,,,,repeat,number,numRpt,j,1.102,Hi,,,,,,4,,,,,,,,low,23,0,23,0,1,,,,,,,,,
295030,2022-12-03_13h07.17.083,vts_reward_expectancy_bt,2022.2.4,MacIntel,60.82725061,Firefox,1440,900,,,,,1,1119,,,,,,,,,,,,,,,,,D,181,circle,1,0,,,,,,,,,,,,,,,,repeat,number,numRpt,k,0.871,Hi,,,,,,4,,,,,,,,low,24,0,24,0,1,,,,,,,,,
295030,2022-12-03_13h07.17.083,vts_reward_expectancy_bt,2022.2.4,MacIntel,60.82725061,Firefox,1440,900,,,,,1,1120,,,,,,,,,,,,,,,,,B,146,star,1,0,,,,,,,,,,,,,,,,repeat,number,numRpt,j,1.035,Lo,,,,,,4,,,,,,,,low,25,0,25,0,1,,,,,,,,,
295030,2022-12-03_13h07.17.083,vts_reward_expectancy_bt,2022.2.4,MacIntel,60.82725061,Firefox,1440,900,,,,,1,1121,,,,,,,,,,,,,,,,,S,160,hexagon,1,0,,,,,,,,,,,,,,,,repeat,number,numRpt,k,0.57,Lo,,,,,,4,,,,,,,,low,26,0,26,0,1,,,,,,,,,
295030,2022-12-03_13h07.17.083,vts_reward_expectancy_bt,2022.2.4,MacIntel,60.82725061,Firefox,1440,900,,,,,1,1122,,,,,,,,,,,,,,,,,H,174,triangle,1,0,,,,,,,,,,,,,,,,repeat,number,numRpt,k,0.651,Hi,,,,,,4,,,,,,,,low,27,0,27,0,1,,,,,,,,,
295030,2022-12-03_13h07.17.083,vts_reward_expectancy_bt,2022.2.4,MacIntel,60.82725061,Firefox,1440,900,,,,,1,1123,,,,,,,,,,,,,,,,,W,139,hexagon,1,0,,,,,,,,,,,,,,,,repeat,number,numRpt,j,0.801,Lo,,,,,,4,,,,,,,,low,28,0,28,0,1,,,,,,,,,
295030,2022-12-03_13h07.17.083,vts_reward_expectancy_bt,2022.2.4,MacIntel,60.82725061,Firefox,1440,900,,,,,0,1123,,,,,,,,,,,,,,,,,F,125,circle,1,0,,,,,,,,,,,,,,,,repeat,number,numRpt,j,1.838,Hi,,,,,,4,,,,,,,,low,29,0,29,0,1,,,,,,,,,
295030,2022-12-03_13h07.17.083,vts_reward_expectancy_bt,2022.2.4,MacIntel,60.82725061,Firefox,1440,900,,,,,10,1133,,,,,,,,,,,,,,,,,U,132,star,1,0,,,,,,,,,,,,,,,,repeat,number,numRpt,j,1.485,Lo,,,,,,4,,,,,,,,low,30,0,30,0,1,,,,,,,,,
295030,2022-12-03_13h07.17.083,vts_reward_expectancy_bt,2022.2.4,MacIntel,60.82725061,Firefox,1440,900,,,,,0,1133,,,,,,,,,,,,,,,,,Y,167,triangle,-1,0,,,,,,,,,,,,,,,,switch,no_choice,NA,,,Lo,,,,,,4,,,,,,,,low,31,0,31,0,1,,,,,,,,,
295030,2022-12-03_13h07.17.083,vts_reward_expectancy_bt,2022.2.4,MacIntel,60.82725061,Firefox,1440,900,,,,,1,1134,,,,,,,,,,,,,,,,,W,139,hexagon,1,0,,,,,,,,,,,,,,,,switch,letter,lettSwt,f,2.304,Lo,,,,,,5,,,,,,space,1.049,low,0,0,0,0,1,,,,,,,,,
295030,2022-12-03_13h07.17.083,vts_reward_expectancy_bt,2022.2.4,MacIntel,60.82725061,Firefox,1440,900,,,,,10,1144,,,,,,,,,,,,,,,,,U,181,triangle,1,0,,,,,,,,,,,,,,,,switch,number,numSwt,k,1.135,Hi,,,,,,5,,,,,,,,low,1,0,1,0,1,,,,,,,,,
295030,2022-12-03_13h07.17.083,vts_reward_expectancy_bt,2022.2.4,MacIntel,60.82725061,Firefox,1440,900,,,,,0,1144,,,,,,,,,,,,,,,,,B,160,circle,1,0,,,,,,,,,,,,,,,,repeat,number,numRpt,k,1.018,Hi,,,,,,5,,,,,,,,low,2,0,2,0,1,,,,,,,,,
295030,2022-12-03_13h07.17.083,vts_reward_expectancy_bt,2022.2.4,MacIntel,60.82725061,Firefox,1440,900,,,,,10,1154,,,,,,,,,,,,,,,,,S,146,star,1,0,,,,,,,,,,,,,,,,repeat,number,numRpt,j,2.807,Lo,,,,,,5,,,,,,,,low,3,0,3,0,1,,,,,,,,,
295030,2022-12-03_13h07.17.083,vts_reward_expectancy_bt,2022.2.4,MacIntel,60.82725061,Firefox,1440,900,,,,,1,1155,,,,,,,,,,,,,,,,,F,174,hexagon,1,0,,,,,,,,,,,,,,,,repeat,number,numRpt,k,1.569,Lo,,,,,,5,,,,,,,,low,4,0,4,0,1,,,,,,,,,
295030,2022-12-03_13h07.17.083,vts_reward_expectancy_bt,2022.2.4,MacIntel,60.82725061,Firefox,1440,900,,,,,1,1156,,,,,,,,,,,,,,,,,Y,125,triangle,1,0,,,,,,,,,,,,,,,,repeat,number,numRpt,j,0.817,Hi,,,,,,5,,,,,,,,low,5,0,5,0,1,,,,,,,,,
295030,2022-12-03_13h07.17.083,vts_reward_expectancy_bt,2022.2.4,MacIntel,60.82725061,Firefox,1440,900,,,,,10,1166,,,,,,,,,,,,,,,,,H,132,circle,1,0,,,,,,,,,,,,,,,,repeat,number,numRpt,j,0.702,Hi,,,,,,5,,,,,,,,low,6,0,6,0,1,,,,,,,,,
295030,2022-12-03_13h07.17.083,vts_reward_expectancy_bt,2022.2.4,MacIntel,60.82725061,Firefox,1440,900,,,,,1,1167,,,,,,,,,,,,,,,,,D,167,star,1,0,,,,,,,,,,,,,,,,repeat,number,numRpt,k,2.087,Lo,,,,,,5,,,,,,,,low,7,0,7,0,1,,,,,,,,,
295030,2022-12-03_13h07.17.083,vts_reward_expectancy_bt,2022.2.4,MacIntel,60.82725061,Firefox,1440,900,,,,,0,1167,,,,,,,,,,,,,,,,,W,139,hexagon,-1,0,,,,,,,,,,,,,,,,switch,no_choice,NA,,,Lo,,,,,,5,,,,,,,,low,8,0,8,0,1,,,,,,,,,
295030,2022-12-03_13h07.17.083,vts_reward_expectancy_bt,2022.2.4,MacIntel,60.82725061,Firefox,1440,900,,,,,1,1168,,,,,,,,,,,,,,,,,U,181,star,1,0,,,,,,,,,,,,,,,,switch,number,numSwt,k,1.051,Lo,,,,,,5,,,,,,,,low,9,0,9,0,1,,,,,,,,,
295030,2022-12-03_13h07.17.083,vts_reward_expectancy_bt,2022.2.4,MacIntel,60.82725061,Firefox,1440,900,,,,,0,1168,,,,,,,,,,,,,,,,,B,160,circle,0,0,,,,,,,,,,,,,,,,repeat,number,NA,j,1.732,Lo,,,,,,5,,,,,,,,low,10,0,10,0,1,,,,,,,,,
295030,2022-12-03_13h07.17.083,vts_reward_expectancy_bt,2022.2.4,MacIntel,60.82725061,Firefox,1440,900,,,,,0,1168,,,,,,,,,,,,,,,,,S,146,triangle,1,1,,,,,,,,,,,,,,,,repeat,number,numRpt,j,1.669,Hi,,,,,,5,,,,,,,,low,11,0,11,0,1,,,,,,,,,
295030,2022-12-03_13h07.17.083,vts_reward_expectancy_bt,2022.2.4,MacIntel,60.82725061,Firefox,1440,900,,,,,10,1178,,,,,,,,,,,,,,,,,F,174,star,1,0,,,,,,,,,,,,,,,,repeat,number,numRpt,k,0.602,Lo,,,,,,5,,,,,,,,low,12,0,12,0,1,,,,,,,,,
295030,2022-12-03_13h07.17.083,vts_reward_expectancy_bt,2022.2.4,MacIntel,60.82725061,Firefox,1440,900,,,,,0,1178,,,,,,,,,,,,,,,,,Y,125,triangle,1,0,,,,,,,,,,,,,,,,repeat,number,numRpt,j,1.12,Hi,,,,,,5,,,,,,,,low,13,0,13,0,1,,,,,,,,,
295030,2022-12-03_13h07.17.083,vts_reward_expectancy_bt,2022.2.4,MacIntel,60.82725061,Firefox,1440,900,,,,,10,1188,,,,,,,,,,,,,,,,,H,132,hexagon,1,0,,,,,,,,,,,,,,,,repeat,number,numRpt,j,1.8,Lo,,,,,,5,,,,,,,,low,14,0,14,0,1,,,,,,,,,
295030,2022-12-03_13h07.17.083,vts_reward_expectancy_bt,2022.2.4,MacIntel,60.82725061,Firefox,1440,900,,,,,0,1188,,,,,,,,,,,,,,,,,D,167,circle,1,0,,,,,,,,,,,,,,,,repeat,number,numRpt,k,2.583,Hi,,,,,,5,,,,,,,,low,15,0,15,0,1,,,,,,,,,
295030,2022-12-03_13h07.17.083,vts_reward_expectancy_bt,2022.2.4,MacIntel,60.82725061,Firefox,1440,900,,,,,0,1188,,,,,,,,,,,,,,,,,Y,146,triangle,1,0,,,,,,,,,,,,,,,,repeat,number,numRpt,j,1.52,Hi,,,,,,5,,,,,,,,low,16,0,16,0,1,,,,,,,,,
295030,2022-12-03_13h07.17.083,vts_reward_expectancy_bt,2022.2.4,MacIntel,60.82725061,Firefox,1440,900,,,,,1,1189,,,,,,,,,,,,,,,,,U,167,hexagon,1,0,,,,,,,,,,,,,,,,repeat,number,numRpt,k,1.885,Lo,,,,,,5,,,,,,,,low,17,0,17,0,1,,,,,,,,,
295030,2022-12-03_13h07.17.083,vts_reward_expectancy_bt,2022.2.4,MacIntel,60.82725061,Firefox,1440,900,,,,,10,1199,,,,,,,,,,,,,,,,,B,132,star,1,0,,,,,,,,,,,,,,,,repeat,number,numRpt,j,1.593,Lo,,,,,,5,,,,,,,,low,18,0,18,0,1,,,,,,,,,
295030,2022-12-03_13h07.17.083,vts_reward_expectancy_bt,2022.2.4,MacIntel,60.82725061,Firefox,1440,900,,,,,0,1199,,,,,,,,,,,,,,,,,H,181,circle,-1,0,,,,,,,,,,,,,,,,switch,no_choice,NA,,,Lo,,,,,,5,,,,,,,,low,19,0,19,0,1,,,,,,,,,
295030,2022-12-03_13h07.17.083,vts_reward_expectancy_bt,2022.2.4,MacIntel,60.82725061,Firefox,1440,900,,,,,0,1199,,,,,,,,,,,,,,,,,S,174,star,-1,0,,,,,,,,,,,,,,,,repeat,no_choice,NA,,,Lo,,,,,,5,,,,,,,,low,20,0,20,0,1,,,,,,,,,
295030,2022-12-03_13h07.17.083,vts_reward_expectancy_bt,2022.2.4,MacIntel,60.82725061,Firefox,1440,900,,,,,10,1209,,,,,,,,,,,,,,,,,W,160,circle,1,0,,,,,,,,,,,,,,,,switch,number,numSwt,k,1.351,Hi,,,,,,5,,,,,,,,low,21,0,21,0,1,,,,,,,,,
295030,2022-12-03_13h07.17.083,vts_reward_expectancy_bt,2022.2.4,MacIntel,60.82725061,Firefox,1440,900,,,,,10,1219,,,,,,,,,,,,,,,,,D,139,hexagon,1,0,,,,,,,,,,,,,,,,repeat,number,numRpt,j,1.702,Lo,,,,,,5,,,,,,,,low,22,0,22,0,1,,,,,,,,,
295030,2022-12-03_13h07.17.083,vts_reward_expectancy_bt,2022.2.4,MacIntel,60.82725061,Firefox,1440,900,,,,,0,1219,,,,,,,,,,,,,,,,,F,125,triangle,1,0,,,,,,,,,,,,,,,,repeat,number,numRpt,j,1.688,Hi,,,,,,5,,,,,,,,low,23,0,23,0,1,,,,,,,,,
295030,2022-12-03_13h07.17.083,vts_reward_expectancy_bt,2022.2.4,MacIntel,60.82725061,Firefox,1440,900,,,,,1,1220,,,,,,,,,,,,,,,,,F,125,hexagon,1,0,,,,,,,,,,,,,,,,repeat,number,numRpt,j,1.858,Lo,,,,,,5,,,,,,,,low,24,0,24,0,1,,,,,,,,,
295030,2022-12-03_13h07.17.083,vts_reward_expectancy_bt,2022.2.4,MacIntel,60.82725061,Firefox,1440,900,,,,,0,1220,,,,,,,,,,,,,,,,,W,167,star,-1,0,,,,,,,,,,,,,,,,switch,no_choice,NA,,,Lo,,,,,,5,,,,,,,,low,25,0,25,0,1,,,,,,,,,
295030,2022-12-03_13h07.17.083,vts_reward_expectancy_bt,2022.2.4,MacIntel,60.82725061,Firefox,1440,900,,,,,0,1220,,,,,,,,,,,,,,,,,H,146,triangle,-1,0,,,,,,,,,,,,,,,,repeat,no_choice,NA,,,Lo,,,,,,5,,,,,,,,low,26,0,26,0,1,,,,,,,,,
