participant,date,expName,psychopyVersion,OS,frameRate,browser,xResolution,yResolution,key_resp.keys,key_resp.rt,training_resp.keys,training_resp.rt,points_trial,points_cumul,trainBlock,training.thisRepN,training.thisTrialN,training.thisN,training.thisIndex,training.ran,LTriangleOpac,LCircleOpac,LHexagonOpac,LStarOpac,RTriangleOpac,RCircleOpac,RHexagonOpac,RStarOpac,LShape_ID,RShape_ID,curr_topStim,curr_bottStim,curr_shape,acc,E1,target_resp_prac1.keys,target_resp_prac1.rt,pracBlock,task1_prac_trials.thisRepN,task1_prac_trials.thisTrialN,task1_prac_trials.thisN,task1_prac_trials.thisIndex,task1_prac_trials.ran,target_resp_prac2.keys,target_resp_prac2.rt,task2_praac_trials.thisRepN,task2_praac_trials.thisTrialN,task2_praac_trials.thisN,task2_praac_trials.thisIndex,task2_praac_trials.ran,alt,task,condition,target_resp.keys,target_resp.rt,rewCond,vts_practice_trials.thisRepN,vts_practice_trials.thisTrialN,vts_practice_trials.thisN,vts_practice_trials.thisIndex,vts_practice_trials.ran,blockNum,trials_norew.thisRepN,trials_norew.thisTrialN,trials_norew.thisN,trials_norew.thisIndex,trials_norew.ran,key_resp_2.keys,key_resp_2.rt,rewExpectancy,trials_rew.thisRepN,trials_rew.thisTrialN,trials_rew.thisN,trials_rew.thisIndex,trials_rew.ran,Q1,Q2,Q2_text,Q3,Q4,Q5,Q5_text,xRes,yRes
295183,2022-11-23_17h45.45.155,vts_reward_expectancy_bt,2022.2.4,MacIntel,30.3030303,Safari,1728,1117,,,,,,,,,,,,,,,,,,,,,,,,,,,,,,,,,,,,,,,,,,,,,,,,,,,,,,,,,,,,,,,,,,,,,,,,,,,,
295183,2022-11-23_17h45.45.155,vts_reward_expectancy_bt,2022.2.4,MacIntel,30.3030303,Safari,1728,1117,space,89.137,,,,,,,,,,,,,,,,,,,,,,,,,,,,,,,,,,,,,,,,,,,,,,,,,,,,,,,,,,,,,,,,,,,,,,,,,,
295183,2022-11-23_17h45.45.155,vts_reward_expectancy_bt,2022.2.4,MacIntel,30.3030303,Safari,1728,1117,,,,,,,,,,,,,,,,,,,,,,,,,,,,,,,,,,,,,,,,,,,,,,,,,,,,,,,,,,,,,,,,,,,,,,,,,,,,
295183,2022-11-23_17h45.45.155,vts_reward_expectancy_bt,2022.2.4,MacIntel,30.3030303,Safari,1728,1117,,,l,2.195,1,1,0,0,0,0,0,1,1,0,0,0,0,1,0,0,triangle,circle,,,,,,,,,,,,,,,,,,,,,,,,,,,,,,,,,,,,,,,,,,,,,,,,,,,,,,
295183,2022-11-23_17h45.45.155,vts_reward_expectancy_bt,2022.2.4,MacIntel,30.3030303,Safari,1728,1117,,,a,1.53,1,2,0,0,1,1,2,1,1,0,0,0,0,0,0,1,triangle,star,,,,,,,,,,,,,,,,,,,,,,,,,,,,,,,,,,,,,,,,,,,,,,,,,,,,,,
295183,2022-11-23_17h45.45.155,vts_reward_expectancy_bt,2022.2.4,MacIntel,30.3030303,Safari,1728,1117,,,l,1.296,10,12,0,0,2,2,11,1,0,0,0,1,0,0,1,0,star,hexagon,,,,,,,,,,,,,,,,,,,,,,,,,,,,,,,,,,,,,,,,,,,,,,,,,,,,,,
295183,2022-11-23_17h45.45.155,vts_reward_expectancy_bt,2022.2.4,MacIntel,30.3030303,Safari,1728,1117,,,l,1.362,10,22,0,0,3,3,1,1,1,0,0,0,0,0,1,0,triangle,hexagon,,,,,,,,,,,,,,,,,,,,,,,,,,,,,,,,,,,,,,,,,,,,,,,,,,,,,,
295183,2022-11-23_17h45.45.155,vts_reward_expectancy_bt,2022.2.4,MacIntel,30.3030303,Safari,1728,1117,,,a,0.784,1,23,0,0,4,4,7,1,0,0,1,0,0,1,0,0,hexagon,circle,,,,,,,,,,,,,,,,,,,,,,,,,,,,,,,,,,,,,,,,,,,,,,,,,,,,,,
295183,2022-11-23_17h45.45.155,vts_reward_expectancy_bt,2022.2.4,MacIntel,30.3030303,Safari,1728,1117,,,a,1.019,10,33,0,0,5,5,6,1,0,0,1,0,1,0,0,0,hexagon,triangle,,,,,,,,,,,,,,,,,,,,,,,,,,,,,,,,,,,,,,,,,,,,,,,,,,,,,,
295183,2022-11-23_17h45.45.155,vts_reward_expectancy_bt,2022.2.4,MacIntel,30.3030303,Safari,1728,1117,,,l,0.996,10,43,0,0,6,6,5,1,0,1,0,0,0,0,0,1,circle,star,,,,,,,,,,,,,,,,,,,,,,,,,,,,,,,,,,,,,,,,,,,,,,,,,,,,,,
295183,2022-11-23_17h45.45.155,vts_reward_expectancy_bt,2022.2.4,MacIntel,30.3030303,Safari,1728,1117,,,l,1.024,1,44,0,0,7,7,4,1,0,1,0,0,0,0,1,0,circle,hexagon,,,,,,,,,,,,,,,,,,,,,,,,,,,,,,,,,,,,,,,,,,,,,,,,,,,,,,
295183,2022-11-23_17h45.45.155,vts_reward_expectancy_bt,2022.2.4,MacIntel,30.3030303,Safari,1728,1117,,,a,0.916,10,54,0,0,8,8,9,1,0,0,0,1,1,0,0,0,star,triangle,,,,,,,,,,,,,,,,,,,,,,,,,,,,,,,,,,,,,,,,,,,,,,,,,,,,,,
295183,2022-11-23_17h45.45.155,vts_reward_expectancy_bt,2022.2.4,MacIntel,30.3030303,Safari,1728,1117,,,l,2.207,1,55,0,0,9,9,8,1,0,0,1,0,0,0,0,1,hexagon,star,,,,,,,,,,,,,,,,,,,,,,,,,,,,,,,,,,,,,,,,,,,,,,,,,,,,,,
295183,2022-11-23_17h45.45.155,vts_reward_expectancy_bt,2022.2.4,MacIntel,30.3030303,Safari,1728,1117,,,l,0.737,1,56,0,0,10,10,3,1,0,1,0,0,1,0,0,0,circle,triangle,,,,,,,,,,,,,,,,,,,,,,,,,,,,,,,,,,,,,,,,,,,,,,,,,,,,,,
295183,2022-11-23_17h45.45.155,vts_reward_expectancy_bt,2022.2.4,MacIntel,30.3030303,Safari,1728,1117,,,a,0.812,1,57,0,0,11,11,10,1,0,0,0,1,0,1,0,0,star ,circle,,,,,,,,,,,,,,,,,,,,,,,,,,,,,,,,,,,,,,,,,,,,,,,,,,,,,,
295183,2022-11-23_17h45.45.155,vts_reward_expectancy_bt,2022.2.4,MacIntel,30.3030303,Safari,1728,1117,,,a,1.197,1,58,0,1,0,12,3,1,0,1,0,0,1,0,0,0,circle,triangle,,,,,,,,,,,,,,,,,,,,,,,,,,,,,,,,,,,,,,,,,,,,,,,,,,,,,,
295183,2022-11-23_17h45.45.155,vts_reward_expectancy_bt,2022.2.4,MacIntel,30.3030303,Safari,1728,1117,,,l,0.476,10,68,0,1,1,13,4,1,0,1,0,0,0,0,1,0,circle,hexagon,,,,,,,,,,,,,,,,,,,,,,,,,,,,,,,,,,,,,,,,,,,,,,,,,,,,,,
295183,2022-11-23_17h45.45.155,vts_reward_expectancy_bt,2022.2.4,MacIntel,30.3030303,Safari,1728,1117,,,a,0.517,10,78,0,1,2,14,6,1,0,0,1,0,1,0,0,0,hexagon,triangle,,,,,,,,,,,,,,,,,,,,,,,,,,,,,,,,,,,,,,,,,,,,,,,,,,,,,,
295183,2022-11-23_17h45.45.155,vts_reward_expectancy_bt,2022.2.4,MacIntel,30.3030303,Safari,1728,1117,,,l,1.358,1,79,0,1,3,15,10,1,0,0,0,1,0,1,0,0,star ,circle,,,,,,,,,,,,,,,,,,,,,,,,,,,,,,,,,,,,,,,,,,,,,,,,,,,,,,
295183,2022-11-23_17h45.45.155,vts_reward_expectancy_bt,2022.2.4,MacIntel,30.3030303,Safari,1728,1117,,,a,1.126,1,80,0,1,4,16,7,1,0,0,1,0,0,1,0,0,hexagon,circle,,,,,,,,,,,,,,,,,,,,,,,,,,,,,,,,,,,,,,,,,,,,,,,,,,,,,,
295183,2022-11-23_17h45.45.155,vts_reward_expectancy_bt,2022.2.4,MacIntel,30.3030303,Safari,1728,1117,,,l,1.213,10,90,0,1,5,17,1,1,1,0,0,0,0,0,1,0,triangle,hexagon,,,,,,,,,,,,,,,,,,,,,,,,,,,,,,,,,,,,,,,,,,,,,,,,,,,,,,
295183,2022-11-23_17h45.45.155,vts_reward_expectancy_bt,2022.2.4,MacIntel,30.3030303,Safari,1728,1117,,,a,1.4,1,91,0,1,6,18,0,1,1,0,0,0,0,1,0,0,triangle,circle,,,,,,,,,,,,,,,,,,,,,,,,,,,,,,,,,,,,,,,,,,,,,,,,,,,,,,
295183,2022-11-23_17h45.45.155,vts_reward_expectancy_bt,2022.2.4,MacIntel,30.3030303,Safari,1728,1117,,,l,1.429,1,92,0,1,7,19,9,1,0,0,0,1,1,0,0,0,star,triangle,,,,,,,,,,,,,,,,,,,,,,,,,,,,,,,,,,,,,,,,,,,,,,,,,,,,,,
295183,2022-11-23_17h45.45.155,vts_reward_expectancy_bt,2022.2.4,MacIntel,30.3030303,Safari,1728,1117,,,l,1.764,10,102,0,1,8,20,8,1,0,0,1,0,0,0,0,1,hexagon,star,,,,,,,,,,,,,,,,,,,,,,,,,,,,,,,,,,,,,,,,,,,,,,,,,,,,,,
295183,2022-11-23_17h45.45.155,vts_reward_expectancy_bt,2022.2.4,MacIntel,30.3030303,Safari,1728,1117,,,a,0.903,10,112,0,1,9,21,11,1,0,0,0,1,0,0,1,0,star,hexagon,,,,,,,,,,,,,,,,,,,,,,,,,,,,,,,,,,,,,,,,,,,,,,,,,,,,,,
295183,2022-11-23_17h45.45.155,vts_reward_expectancy_bt,2022.2.4,MacIntel,30.3030303,Safari,1728,1117,,,a,2.744,1,113,0,1,10,22,2,1,1,0,0,0,0,0,0,1,triangle,star,,,,,,,,,,,,,,,,,,,,,,,,,,,,,,,,,,,,,,,,,,,,,,,,,,,,,,
295183,2022-11-23_17h45.45.155,vts_reward_expectancy_bt,2022.2.4,MacIntel,30.3030303,Safari,1728,1117,,,a,1.402,1,114,0,1,11,23,5,1,0,1,0,0,0,0,0,1,circle,star,,,,,,,,,,,,,,,,,,,,,,,,,,,,,,,,,,,,,,,,,,,,,,,,,,,,,,
295183,2022-11-23_17h45.45.155,vts_reward_expectancy_bt,2022.2.4,MacIntel,30.3030303,Safari,1728,1117,,,l,1.143,10,124,0,2,0,24,0,1,1,0,0,0,0,1,0,0,triangle,circle,,,,,,,,,,,,,,,,,,,,,,,,,,,,,,,,,,,,,,,,,,,,,,,,,,,,,,
295183,2022-11-23_17h45.45.155,vts_reward_expectancy_bt,2022.2.4,MacIntel,30.3030303,Safari,1728,1117,,,l,2.733,10,134,0,2,1,25,8,1,0,0,1,0,0,0,0,1,hexagon,star,,,,,,,,,,,,,,,,,,,,,,,,,,,,,,,,,,,,,,,,,,,,,,,,,,,,,,
295183,2022-11-23_17h45.45.155,vts_reward_expectancy_bt,2022.2.4,MacIntel,30.3030303,Safari,1728,1117,,,l,1.323,1,135,0,2,2,26,3,1,0,1,0,0,1,0,0,0,circle,triangle,,,,,,,,,,,,,,,,,,,,,,,,,,,,,,,,,,,,,,,,,,,,,,,,,,,,,,
295183,2022-11-23_17h45.45.155,vts_reward_expectancy_bt,2022.2.4,MacIntel,30.3030303,Safari,1728,1117,,,l,1.386,1,136,0,2,3,27,10,1,0,0,0,1,0,1,0,0,star ,circle,,,,,,,,,,,,,,,,,,,,,,,,,,,,,,,,,,,,,,,,,,,,,,,,,,,,,,
295183,2022-11-23_17h45.45.155,vts_reward_expectancy_bt,2022.2.4,MacIntel,30.3030303,Safari,1728,1117,,,a,0.81,1,137,0,2,4,28,6,1,0,0,1,0,1,0,0,0,hexagon,triangle,,,,,,,,,,,,,,,,,,,,,,,,,,,,,,,,,,,,,,,,,,,,,,,,,,,,,,
295183,2022-11-23_17h45.45.155,vts_reward_expectancy_bt,2022.2.4,MacIntel,30.3030303,Safari,1728,1117,,,l,0.808,10,147,0,2,5,29,5,1,0,1,0,0,0,0,0,1,circle,star,,,,,,,,,,,,,,,,,,,,,,,,,,,,,,,,,,,,,,,,,,,,,,,,,,,,,,
295183,2022-11-23_17h45.45.155,vts_reward_expectancy_bt,2022.2.4,MacIntel,30.3030303,Safari,1728,1117,,,l,0.947,1,148,0,2,6,30,4,1,0,1,0,0,0,0,1,0,circle,hexagon,,,,,,,,,,,,,,,,,,,,,,,,,,,,,,,,,,,,,,,,,,,,,,,,,,,,,,
295183,2022-11-23_17h45.45.155,vts_reward_expectancy_bt,2022.2.4,MacIntel,30.3030303,Safari,1728,1117,,,l,1.604,1,149,0,2,7,31,7,1,0,0,1,0,0,1,0,0,hexagon,circle,,,,,,,,,,,,,,,,,,,,,,,,,,,,,,,,,,,,,,,,,,,,,,,,,,,,,,
295183,2022-11-23_17h45.45.155,vts_reward_expectancy_bt,2022.2.4,MacIntel,30.3030303,Safari,1728,1117,,,l,0.78,1,150,0,2,8,32,1,1,1,0,0,0,0,0,1,0,triangle,hexagon,,,,,,,,,,,,,,,,,,,,,,,,,,,,,,,,,,,,,,,,,,,,,,,,,,,,,,
295183,2022-11-23_17h45.45.155,vts_reward_expectancy_bt,2022.2.4,MacIntel,30.3030303,Safari,1728,1117,,,a,0.801,10,160,0,2,9,33,11,1,0,0,0,1,0,0,1,0,star,hexagon,,,,,,,,,,,,,,,,,,,,,,,,,,,,,,,,,,,,,,,,,,,,,,,,,,,,,,
295183,2022-11-23_17h45.45.155,vts_reward_expectancy_bt,2022.2.4,MacIntel,30.3030303,Safari,1728,1117,,,a,0.819,10,170,0,2,10,34,9,1,0,0,0,1,1,0,0,0,star,triangle,,,,,,,,,,,,,,,,,,,,,,,,,,,,,,,,,,,,,,,,,,,,,,,,,,,,,,
295183,2022-11-23_17h45.45.155,vts_reward_expectancy_bt,2022.2.4,MacIntel,30.3030303,Safari,1728,1117,,,l,0.743,1,171,0,2,11,35,2,1,1,0,0,0,0,0,0,1,triangle,star,,,,,,,,,,,,,,,,,,,,,,,,,,,,,,,,,,,,,,,,,,,,,,,,,,,,,,
295183,2022-11-23_17h45.45.155,vts_reward_expectancy_bt,2022.2.4,MacIntel,30.3030303,Safari,1728,1117,,,a,1.784,10,181,1,0,0,0,9,1,0,0,0,1,1,0,0,0,star,triangle,,,,,,,,,,,,,,,,,,,,,,,,,,,,,,,,,,,,,,,,,,,,,,,,,,,,,,
295183,2022-11-23_17h45.45.155,vts_reward_expectancy_bt,2022.2.4,MacIntel,30.3030303,Safari,1728,1117,,,l,0.877,10,191,1,0,1,1,1,1,1,0,0,0,0,0,1,0,triangle,hexagon,,,,,,,,,,,,,,,,,,,,,,,,,,,,,,,,,,,,,,,,,,,,,,,,,,,,,,
295183,2022-11-23_17h45.45.155,vts_reward_expectancy_bt,2022.2.4,MacIntel,30.3030303,Safari,1728,1117,,,l,2.782,10,201,1,0,2,2,8,1,0,0,1,0,0,0,0,1,hexagon,star,,,,,,,,,,,,,,,,,,,,,,,,,,,,,,,,,,,,,,,,,,,,,,,,,,,,,,
295183,2022-11-23_17h45.45.155,vts_reward_expectancy_bt,2022.2.4,MacIntel,30.3030303,Safari,1728,1117,,,l,1.102,10,211,1,0,3,3,4,1,0,1,0,0,0,0,1,0,circle,hexagon,,,,,,,,,,,,,,,,,,,,,,,,,,,,,,,,,,,,,,,,,,,,,,,,,,,,,,
295183,2022-11-23_17h45.45.155,vts_reward_expectancy_bt,2022.2.4,MacIntel,30.3030303,Safari,1728,1117,,,a,0.923,1,212,1,0,4,4,3,1,0,1,0,0,1,0,0,0,circle,triangle,,,,,,,,,,,,,,,,,,,,,,,,,,,,,,,,,,,,,,,,,,,,,,,,,,,,,,
295183,2022-11-23_17h45.45.155,vts_reward_expectancy_bt,2022.2.4,MacIntel,30.3030303,Safari,1728,1117,,,a,0.83,10,222,1,0,5,5,0,1,1,0,0,0,0,1,0,0,triangle,circle,,,,,,,,,,,,,,,,,,,,,,,,,,,,,,,,,,,,,,,,,,,,,,,,,,,,,,
295183,2022-11-23_17h45.45.155,vts_reward_expectancy_bt,2022.2.4,MacIntel,30.3030303,Safari,1728,1117,,,l,0.867,10,232,1,0,6,6,2,1,1,0,0,0,0,0,0,1,triangle,star,,,,,,,,,,,,,,,,,,,,,,,,,,,,,,,,,,,,,,,,,,,,,,,,,,,,,,
295183,2022-11-23_17h45.45.155,vts_reward_expectancy_bt,2022.2.4,MacIntel,30.3030303,Safari,1728,1117,,,l,0.573,10,242,1,0,7,7,5,1,0,1,0,0,0,0,0,1,circle,star,,,,,,,,,,,,,,,,,,,,,,,,,,,,,,,,,,,,,,,,,,,,,,,,,,,,,,
295183,2022-11-23_17h45.45.155,vts_reward_expectancy_bt,2022.2.4,MacIntel,30.3030303,Safari,1728,1117,,,a,0.584,10,252,1,0,8,8,10,1,0,0,0,1,0,1,0,0,star ,circle,,,,,,,,,,,,,,,,,,,,,,,,,,,,,,,,,,,,,,,,,,,,,,,,,,,,,,
295183,2022-11-23_17h45.45.155,vts_reward_expectancy_bt,2022.2.4,MacIntel,30.3030303,Safari,1728,1117,,,a,1.219,1,253,1,0,9,9,11,1,0,0,0,1,0,0,1,0,star,hexagon,,,,,,,,,,,,,,,,,,,,,,,,,,,,,,,,,,,,,,,,,,,,,,,,,,,,,,
295183,2022-11-23_17h45.45.155,vts_reward_expectancy_bt,2022.2.4,MacIntel,30.3030303,Safari,1728,1117,,,l,0.953,1,254,1,0,10,10,7,1,0,0,1,0,0,1,0,0,hexagon,circle,,,,,,,,,,,,,,,,,,,,,,,,,,,,,,,,,,,,,,,,,,,,,,,,,,,,,,
295183,2022-11-23_17h45.45.155,vts_reward_expectancy_bt,2022.2.4,MacIntel,30.3030303,Safari,1728,1117,,,a,1.08,10,264,1,0,11,11,6,1,0,0,1,0,1,0,0,0,hexagon,triangle,,,,,,,,,,,,,,,,,,,,,,,,,,,,,,,,,,,,,,,,,,,,,,,,,,,,,,
295183,2022-11-23_17h45.45.155,vts_reward_expectancy_bt,2022.2.4,MacIntel,30.3030303,Safari,1728,1117,,,a,0.579,1,265,1,1,0,12,7,1,0,0,1,0,0,1,0,0,hexagon,circle,,,,,,,,,,,,,,,,,,,,,,,,,,,,,,,,,,,,,,,,,,,,,,,,,,,,,,
295183,2022-11-23_17h45.45.155,vts_reward_expectancy_bt,2022.2.4,MacIntel,30.3030303,Safari,1728,1117,,,a,0.798,10,275,1,1,1,13,9,1,0,0,0,1,1,0,0,0,star,triangle,,,,,,,,,,,,,,,,,,,,,,,,,,,,,,,,,,,,,,,,,,,,,,,,,,,,,,
295183,2022-11-23_17h45.45.155,vts_reward_expectancy_bt,2022.2.4,MacIntel,30.3030303,Safari,1728,1117,,,a,1.211,1,276,1,1,2,14,2,1,1,0,0,0,0,0,0,1,triangle,star,,,,,,,,,,,,,,,,,,,,,,,,,,,,,,,,,,,,,,,,,,,,,,,,,,,,,,
295183,2022-11-23_17h45.45.155,vts_reward_expectancy_bt,2022.2.4,MacIntel,30.3030303,Safari,1728,1117,,,l,0.847,1,277,1,1,3,15,0,1,1,0,0,0,0,1,0,0,triangle,circle,,,,,,,,,,,,,,,,,,,,,,,,,,,,,,,,,,,,,,,,,,,,,,,,,,,,,,
295183,2022-11-23_17h45.45.155,vts_reward_expectancy_bt,2022.2.4,MacIntel,30.3030303,Safari,1728,1117,,,a,0.631,1,278,1,1,4,16,6,1,0,0,1,0,1,0,0,0,hexagon,triangle,,,,,,,,,,,,,,,,,,,,,,,,,,,,,,,,,,,,,,,,,,,,,,,,,,,,,,
295183,2022-11-23_17h45.45.155,vts_reward_expectancy_bt,2022.2.4,MacIntel,30.3030303,Safari,1728,1117,,,l,0.584,10,288,1,1,5,17,1,1,1,0,0,0,0,0,1,0,triangle,hexagon,,,,,,,,,,,,,,,,,,,,,,,,,,,,,,,,,,,,,,,,,,,,,,,,,,,,,,
295183,2022-11-23_17h45.45.155,vts_reward_expectancy_bt,2022.2.4,MacIntel,30.3030303,Safari,1728,1117,,,l,0.584,1,289,1,1,6,18,4,1,0,1,0,0,0,0,1,0,circle,hexagon,,,,,,,,,,,,,,,,,,,,,,,,,,,,,,,,,,,,,,,,,,,,,,,,,,,,,,
295183,2022-11-23_17h45.45.155,vts_reward_expectancy_bt,2022.2.4,MacIntel,30.3030303,Safari,1728,1117,,,l,0.524,10,299,1,1,7,19,5,1,0,1,0,0,0,0,0,1,circle,star,,,,,,,,,,,,,,,,,,,,,,,,,,,,,,,,,,,,,,,,,,,,,,,,,,,,,,
295183,2022-11-23_17h45.45.155,vts_reward_expectancy_bt,2022.2.4,MacIntel,30.3030303,Safari,1728,1117,,,a,0.391,10,309,1,1,8,20,11,1,0,0,0,1,0,0,1,0,star,hexagon,,,,,,,,,,,,,,,,,,,,,,,,,,,,,,,,,,,,,,,,,,,,,,,,,,,,,,
295183,2022-11-23_17h45.45.155,vts_reward_expectancy_bt,2022.2.4,MacIntel,30.3030303,Safari,1728,1117,,,l,0.946,1,310,1,1,9,21,3,1,0,1,0,0,1,0,0,0,circle,triangle,,,,,,,,,,,,,,,,,,,,,,,,,,,,,,,,,,,,,,,,,,,,,,,,,,,,,,
295183,2022-11-23_17h45.45.155,vts_reward_expectancy_bt,2022.2.4,MacIntel,30.3030303,Safari,1728,1117,,,l,0.619,10,320,1,1,10,22,8,1,0,0,1,0,0,0,0,1,hexagon,star,,,,,,,,,,,,,,,,,,,,,,,,,,,,,,,,,,,,,,,,,,,,,,,,,,,,,,
295183,2022-11-23_17h45.45.155,vts_reward_expectancy_bt,2022.2.4,MacIntel,30.3030303,Safari,1728,1117,,,a,0.821,10,330,1,1,11,23,10,1,0,0,0,1,0,1,0,0,star ,circle,,,,,,,,,,,,,,,,,,,,,,,,,,,,,,,,,,,,,,,,,,,,,,,,,,,,,,
295183,2022-11-23_17h45.45.155,vts_reward_expectancy_bt,2022.2.4,MacIntel,30.3030303,Safari,1728,1117,,,l,0.488,10,340,1,2,0,24,5,1,0,1,0,0,0,0,0,1,circle,star,,,,,,,,,,,,,,,,,,,,,,,,,,,,,,,,,,,,,,,,,,,,,,,,,,,,,,
295183,2022-11-23_17h45.45.155,vts_reward_expectancy_bt,2022.2.4,MacIntel,30.3030303,Safari,1728,1117,,,l,0.788,10,350,1,2,1,25,4,1,0,1,0,0,0,0,1,0,circle,hexagon,,,,,,,,,,,,,,,,,,,,,,,,,,,,,,,,,,,,,,,,,,,,,,,,,,,,,,
295183,2022-11-23_17h45.45.155,vts_reward_expectancy_bt,2022.2.4,MacIntel,30.3030303,Safari,1728,1117,,,l,0.836,10,360,1,2,2,26,1,1,1,0,0,0,0,0,1,0,triangle,hexagon,,,,,,,,,,,,,,,,,,,,,,,,,,,,,,,,,,,,,,,,,,,,,,,,,,,,,,
295183,2022-11-23_17h45.45.155,vts_reward_expectancy_bt,2022.2.4,MacIntel,30.3030303,Safari,1728,1117,,,a,0.631,1,361,1,2,3,27,3,1,0,1,0,0,1,0,0,0,circle,triangle,,,,,,,,,,,,,,,,,,,,,,,,,,,,,,,,,,,,,,,,,,,,,,,,,,,,,,
295183,2022-11-23_17h45.45.155,vts_reward_expectancy_bt,2022.2.4,MacIntel,30.3030303,Safari,1728,1117,,,a,0.7,10,371,1,2,4,28,7,1,0,0,1,0,0,1,0,0,hexagon,circle,,,,,,,,,,,,,,,,,,,,,,,,,,,,,,,,,,,,,,,,,,,,,,,,,,,,,,
295183,2022-11-23_17h45.45.155,vts_reward_expectancy_bt,2022.2.4,MacIntel,30.3030303,Safari,1728,1117,,,a,0.591,1,372,1,2,5,29,11,1,0,0,0,1,0,0,1,0,star,hexagon,,,,,,,,,,,,,,,,,,,,,,,,,,,,,,,,,,,,,,,,,,,,,,,,,,,,,,
295183,2022-11-23_17h45.45.155,vts_reward_expectancy_bt,2022.2.4,MacIntel,30.3030303,Safari,1728,1117,,,l,0.568,10,382,1,2,6,30,2,1,1,0,0,0,0,0,0,1,triangle,star,,,,,,,,,,,,,,,,,,,,,,,,,,,,,,,,,,,,,,,,,,,,,,,,,,,,,,
295183,2022-11-23_17h45.45.155,vts_reward_expectancy_bt,2022.2.4,MacIntel,30.3030303,Safari,1728,1117,,,a,0.572,10,392,1,2,7,31,9,1,0,0,0,1,1,0,0,0,star,triangle,,,,,,,,,,,,,,,,,,,,,,,,,,,,,,,,,,,,,,,,,,,,,,,,,,,,,,
295183,2022-11-23_17h45.45.155,vts_reward_expectancy_bt,2022.2.4,MacIntel,30.3030303,Safari,1728,1117,,,l,0.657,1,393,1,2,8,32,0,1,1,0,0,0,0,1,0,0,triangle,circle,,,,,,,,,,,,,,,,,,,,,,,,,,,,,,,,,,,,,,,,,,,,,,,,,,,,,,
295183,2022-11-23_17h45.45.155,vts_reward_expectancy_bt,2022.2.4,MacIntel,30.3030303,Safari,1728,1117,,,a,0.65,10,403,1,2,9,33,6,1,0,0,1,0,1,0,0,0,hexagon,triangle,,,,,,,,,,,,,,,,,,,,,,,,,,,,,,,,,,,,,,,,,,,,,,,,,,,,,,
295183,2022-11-23_17h45.45.155,vts_reward_expectancy_bt,2022.2.4,MacIntel,30.3030303,Safari,1728,1117,,,l,0.464,10,413,1,2,10,34,8,1,0,0,1,0,0,0,0,1,hexagon,star,,,,,,,,,,,,,,,,,,,,,,,,,,,,,,,,,,,,,,,,,,,,,,,,,,,,,,
295183,2022-11-23_17h45.45.155,vts_reward_expectancy_bt,2022.2.4,MacIntel,30.3030303,Safari,1728,1117,,,a,0.368,10,423,1,2,11,35,10,1,0,0,0,1,0,1,0,0,star ,circle,,,,,,,,,,,,,,,,,,,,,,,,,,,,,,,,,,,,,,,,,,,,,,,,,,,,,,
295183,2022-11-23_17h45.45.155,vts_reward_expectancy_bt,2022.2.4,MacIntel,30.3030303,Safari,1728,1117,,,l,0.679,1,424,2,0,0,0,2,1,1,0,0,0,0,0,0,1,triangle,star,,,,,,,,,,,,,,,,,,,,,,,,,,,,,,,,,,,,,,,,,,,,,,,,,,,,,,
295183,2022-11-23_17h45.45.155,vts_reward_expectancy_bt,2022.2.4,MacIntel,30.3030303,Safari,1728,1117,,,l,0.454,10,434,2,0,1,1,8,1,0,0,1,0,0,0,0,1,hexagon,star,,,,,,,,,,,,,,,,,,,,,,,,,,,,,,,,,,,,,,,,,,,,,,,,,,,,,,
295183,2022-11-23_17h45.45.155,vts_reward_expectancy_bt,2022.2.4,MacIntel,30.3030303,Safari,1728,1117,,,a,1.278,1,435,2,0,2,2,4,1,0,1,0,0,0,0,1,0,circle,hexagon,,,,,,,,,,,,,,,,,,,,,,,,,,,,,,,,,,,,,,,,,,,,,,,,,,,,,,
295183,2022-11-23_17h45.45.155,vts_reward_expectancy_bt,2022.2.4,MacIntel,30.3030303,Safari,1728,1117,,,a,0.541,10,445,2,0,3,3,9,1,0,0,0,1,1,0,0,0,star,triangle,,,,,,,,,,,,,,,,,,,,,,,,,,,,,,,,,,,,,,,,,,,,,,,,,,,,,,
295183,2022-11-23_17h45.45.155,vts_reward_expectancy_bt,2022.2.4,MacIntel,30.3030303,Safari,1728,1117,,,a,0.544,10,455,2,0,4,4,7,1,0,0,1,0,0,1,0,0,hexagon,circle,,,,,,,,,,,,,,,,,,,,,,,,,,,,,,,,,,,,,,,,,,,,,,,,,,,,,,
295183,2022-11-23_17h45.45.155,vts_reward_expectancy_bt,2022.2.4,MacIntel,30.3030303,Safari,1728,1117,,,a,0.487,10,465,2,0,5,5,11,1,0,0,0,1,0,0,1,0,star,hexagon,,,,,,,,,,,,,,,,,,,,,,,,,,,,,,,,,,,,,,,,,,,,,,,,,,,,,,
295183,2022-11-23_17h45.45.155,vts_reward_expectancy_bt,2022.2.4,MacIntel,30.3030303,Safari,1728,1117,,,l,0.399,10,475,2,0,6,6,1,1,1,0,0,0,0,0,1,0,triangle,hexagon,,,,,,,,,,,,,,,,,,,,,,,,,,,,,,,,,,,,,,,,,,,,,,,,,,,,,,
295183,2022-11-23_17h45.45.155,vts_reward_expectancy_bt,2022.2.4,MacIntel,30.3030303,Safari,1728,1117,,,a,0.53,10,485,2,0,7,7,10,1,0,0,0,1,0,1,0,0,star ,circle,,,,,,,,,,,,,,,,,,,,,,,,,,,,,,,,,,,,,,,,,,,,,,,,,,,,,,
295183,2022-11-23_17h45.45.155,vts_reward_expectancy_bt,2022.2.4,MacIntel,30.3030303,Safari,1728,1117,,,l,0.441,1,486,2,0,8,8,0,1,1,0,0,0,0,1,0,0,triangle,circle,,,,,,,,,,,,,,,,,,,,,,,,,,,,,,,,,,,,,,,,,,,,,,,,,,,,,,
295183,2022-11-23_17h45.45.155,vts_reward_expectancy_bt,2022.2.4,MacIntel,30.3030303,Safari,1728,1117,,,l,1.105,1,487,2,0,9,9,3,1,0,1,0,0,1,0,0,0,circle,triangle,,,,,,,,,,,,,,,,,,,,,,,,,,,,,,,,,,,,,,,,,,,,,,,,,,,,,,
295183,2022-11-23_17h45.45.155,vts_reward_expectancy_bt,2022.2.4,MacIntel,30.3030303,Safari,1728,1117,,,l,0.696,10,497,2,0,10,10,5,1,0,1,0,0,0,0,0,1,circle,star,,,,,,,,,,,,,,,,,,,,,,,,,,,,,,,,,,,,,,,,,,,,,,,,,,,,,,
295183,2022-11-23_17h45.45.155,vts_reward_expectancy_bt,2022.2.4,MacIntel,30.3030303,Safari,1728,1117,,,a,0.555,10,507,2,0,11,11,6,1,0,0,1,0,1,0,0,0,hexagon,triangle,,,,,,,,,,,,,,,,,,,,,,,,,,,,,,,,,,,,,,,,,,,,,,,,,,,,,,
295183,2022-11-23_17h45.45.155,vts_reward_expectancy_bt,2022.2.4,MacIntel,30.3030303,Safari,1728,1117,,,a,0.603,10,517,2,1,0,12,9,1,0,0,0,1,1,0,0,0,star,triangle,,,,,,,,,,,,,,,,,,,,,,,,,,,,,,,,,,,,,,,,,,,,,,,,,,,,,,
295183,2022-11-23_17h45.45.155,vts_reward_expectancy_bt,2022.2.4,MacIntel,30.3030303,Safari,1728,1117,,,l,0.478,10,527,2,1,1,13,8,1,0,0,1,0,0,0,0,1,hexagon,star,,,,,,,,,,,,,,,,,,,,,,,,,,,,,,,,,,,,,,,,,,,,,,,,,,,,,,
295183,2022-11-23_17h45.45.155,vts_reward_expectancy_bt,2022.2.4,MacIntel,30.3030303,Safari,1728,1117,,,a,0.544,10,537,2,1,2,14,11,1,0,0,0,1,0,0,1,0,star,hexagon,,,,,,,,,,,,,,,,,,,,,,,,,,,,,,,,,,,,,,,,,,,,,,,,,,,,,,
295183,2022-11-23_17h45.45.155,vts_reward_expectancy_bt,2022.2.4,MacIntel,30.3030303,Safari,1728,1117,,,a,1.092,1,538,2,1,3,15,3,1,0,1,0,0,1,0,0,0,circle,triangle,,,,,,,,,,,,,,,,,,,,,,,,,,,,,,,,,,,,,,,,,,,,,,,,,,,,,,
295183,2022-11-23_17h45.45.155,vts_reward_expectancy_bt,2022.2.4,MacIntel,30.3030303,Safari,1728,1117,,,l,0.83,1,539,2,1,4,16,1,1,1,0,0,0,0,0,1,0,triangle,hexagon,,,,,,,,,,,,,,,,,,,,,,,,,,,,,,,,,,,,,,,,,,,,,,,,,,,,,,
295183,2022-11-23_17h45.45.155,vts_reward_expectancy_bt,2022.2.4,MacIntel,30.3030303,Safari,1728,1117,,,l,0.456,10,549,2,1,5,17,5,1,0,1,0,0,0,0,0,1,circle,star,,,,,,,,,,,,,,,,,,,,,,,,,,,,,,,,,,,,,,,,,,,,,,,,,,,,,,
295183,2022-11-23_17h45.45.155,vts_reward_expectancy_bt,2022.2.4,MacIntel,30.3030303,Safari,1728,1117,,,a,1.204,10,559,2,1,6,18,0,1,1,0,0,0,0,1,0,0,triangle,circle,,,,,,,,,,,,,,,,,,,,,,,,,,,,,,,,,,,,,,,,,,,,,,,,,,,,,,
295183,2022-11-23_17h45.45.155,vts_reward_expectancy_bt,2022.2.4,MacIntel,30.3030303,Safari,1728,1117,,,l,0.872,10,569,2,1,7,19,4,1,0,1,0,0,0,0,1,0,circle,hexagon,,,,,,,,,,,,,,,,,,,,,,,,,,,,,,,,,,,,,,,,,,,,,,,,,,,,,,
295183,2022-11-23_17h45.45.155,vts_reward_expectancy_bt,2022.2.4,MacIntel,30.3030303,Safari,1728,1117,,,a,0.806,1,570,2,1,8,20,6,1,0,0,1,0,1,0,0,0,hexagon,triangle,,,,,,,,,,,,,,,,,,,,,,,,,,,,,,,,,,,,,,,,,,,,,,,,,,,,,,
295183,2022-11-23_17h45.45.155,vts_reward_expectancy_bt,2022.2.4,MacIntel,30.3030303,Safari,1728,1117,,,a,0.733,1,571,2,1,9,21,10,1,0,0,0,1,0,1,0,0,star ,circle,,,,,,,,,,,,,,,,,,,,,,,,,,,,,,,,,,,,,,,,,,,,,,,,,,,,,,
295183,2022-11-23_17h45.45.155,vts_reward_expectancy_bt,2022.2.4,MacIntel,30.3030303,Safari,1728,1117,,,a,0.465,10,581,2,1,10,22,7,1,0,0,1,0,0,1,0,0,hexagon,circle,,,,,,,,,,,,,,,,,,,,,,,,,,,,,,,,,,,,,,,,,,,,,,,,,,,,,,
295183,2022-11-23_17h45.45.155,vts_reward_expectancy_bt,2022.2.4,MacIntel,30.3030303,Safari,1728,1117,,,l,0.372,10,591,2,1,11,23,2,1,1,0,0,0,0,0,0,1,triangle,star,,,,,,,,,,,,,,,,,,,,,,,,,,,,,,,,,,,,,,,,,,,,,,,,,,,,,,
295183,2022-11-23_17h45.45.155,vts_reward_expectancy_bt,2022.2.4,MacIntel,30.3030303,Safari,1728,1117,,,l,0.703,1,592,2,2,0,24,3,1,0,1,0,0,1,0,0,0,circle,triangle,,,,,,,,,,,,,,,,,,,,,,,,,,,,,,,,,,,,,,,,,,,,,,,,,,,,,,
295183,2022-11-23_17h45.45.155,vts_reward_expectancy_bt,2022.2.4,MacIntel,30.3030303,Safari,1728,1117,,,l,0.472,10,602,2,2,1,25,2,1,1,0,0,0,0,0,0,1,triangle,star,,,,,,,,,,,,,,,,,,,,,,,,,,,,,,,,,,,,,,,,,,,,,,,,,,,,,,
295183,2022-11-23_17h45.45.155,vts_reward_expectancy_bt,2022.2.4,MacIntel,30.3030303,Safari,1728,1117,,,a,0.604,1,603,2,2,2,26,0,1,1,0,0,0,0,1,0,0,triangle,circle,,,,,,,,,,,,,,,,,,,,,,,,,,,,,,,,,,,,,,,,,,,,,,,,,,,,,,
295183,2022-11-23_17h45.45.155,vts_reward_expectancy_bt,2022.2.4,MacIntel,30.3030303,Safari,1728,1117,,,l,0.62,10,613,2,2,3,27,8,1,0,0,1,0,0,0,0,1,hexagon,star,,,,,,,,,,,,,,,,,,,,,,,,,,,,,,,,,,,,,,,,,,,,,,,,,,,,,,
295183,2022-11-23_17h45.45.155,vts_reward_expectancy_bt,2022.2.4,MacIntel,30.3030303,Safari,1728,1117,,,l,0.508,10,623,2,2,4,28,5,1,0,1,0,0,0,0,0,1,circle,star,,,,,,,,,,,,,,,,,,,,,,,,,,,,,,,,,,,,,,,,,,,,,,,,,,,,,,
295183,2022-11-23_17h45.45.155,vts_reward_expectancy_bt,2022.2.4,MacIntel,30.3030303,Safari,1728,1117,,,a,0.506,10,633,2,2,5,29,7,1,0,0,1,0,0,1,0,0,hexagon,circle,,,,,,,,,,,,,,,,,,,,,,,,,,,,,,,,,,,,,,,,,,,,,,,,,,,,,,
295183,2022-11-23_17h45.45.155,vts_reward_expectancy_bt,2022.2.4,MacIntel,30.3030303,Safari,1728,1117,,,l,0.452,10,643,2,2,6,30,1,1,1,0,0,0,0,0,1,0,triangle,hexagon,,,,,,,,,,,,,,,,,,,,,,,,,,,,,,,,,,,,,,,,,,,,,,,,,,,,,,
295183,2022-11-23_17h45.45.155,vts_reward_expectancy_bt,2022.2.4,MacIntel,30.3030303,Safari,1728,1117,,,l,0.606,10,653,2,2,7,31,4,1,0,1,0,0,0,0,1,0,circle,hexagon,,,,,,,,,,,,,,,,,,,,,,,,,,,,,,,,,,,,,,,,,,,,,,,,,,,,,,
295183,2022-11-23_17h45.45.155,vts_reward_expectancy_bt,2022.2.4,MacIntel,30.3030303,Safari,1728,1117,,,a,0.777,1,654,2,2,8,32,6,1,0,0,1,0,1,0,0,0,hexagon,triangle,,,,,,,,,,,,,,,,,,,,,,,,,,,,,,,,,,,,,,,,,,,,,,,,,,,,,,
295183,2022-11-23_17h45.45.155,vts_reward_expectancy_bt,2022.2.4,MacIntel,30.3030303,Safari,1728,1117,,,a,0.664,1,655,2,2,9,33,11,1,0,0,0,1,0,0,1,0,star,hexagon,,,,,,,,,,,,,,,,,,,,,,,,,,,,,,,,,,,,,,,,,,,,,,,,,,,,,,
295183,2022-11-23_17h45.45.155,vts_reward_expectancy_bt,2022.2.4,MacIntel,30.3030303,Safari,1728,1117,,,a,0.609,1,656,2,2,10,34,10,1,0,0,0,1,0,1,0,0,star ,circle,,,,,,,,,,,,,,,,,,,,,,,,,,,,,,,,,,,,,,,,,,,,,,,,,,,,,,
295183,2022-11-23_17h45.45.155,vts_reward_expectancy_bt,2022.2.4,MacIntel,30.3030303,Safari,1728,1117,,,a,0.678,10,666,2,2,11,35,9,1,0,0,0,1,1,0,0,0,star,triangle,,,,,,,,,,,,,,,,,,,,,,,,,,,,,,,,,,,,,,,,,,,,,,,,,,,,,,
295183,2022-11-23_17h45.45.155,vts_reward_expectancy_bt,2022.2.4,MacIntel,30.3030303,Safari,1728,1117,,,,,,,,,,,,,,,,,,,,,,,125,Y,star,1,0,d,0.924,0,0,0,0,0,1,,,,,,,,,,,,,,,,,,,,,,,,,,,,,,,,,,,,,,,,,
295183,2022-11-23_17h45.45.155,vts_reward_expectancy_bt,2022.2.4,MacIntel,30.3030303,Safari,1728,1117,,,,,,,,,,,,,,,,,,,,,,,174,B,hexagon,1,0,f,0.833,0,1,0,1,0,1,,,,,,,,,,,,,,,,,,,,,,,,,,,,,,,,,,,,,,,,,
295183,2022-11-23_17h45.45.155,vts_reward_expectancy_bt,2022.2.4,MacIntel,30.3030303,Safari,1728,1117,,,,,,,,,,,,,,,,,,,,,,,167,H,triangle,0,0,d,1.059,0,2,0,2,0,1,,,,,,,,,,,,,,,,,,,,,,,,,,,,,,,,,,,,,,,,,
295183,2022-11-23_17h45.45.155,vts_reward_expectancy_bt,2022.2.4,MacIntel,30.3030303,Safari,1728,1117,,,,,,,,,,,,,,,,,,,,,,,139,S,circle,1,1,d,0.654,0,3,0,3,0,1,,,,,,,,,,,,,,,,,,,,,,,,,,,,,,,,,,,,,,,,,
295183,2022-11-23_17h45.45.155,vts_reward_expectancy_bt,2022.2.4,MacIntel,30.3030303,Safari,1728,1117,,,,,,,,,,,,,,,,,,,,,,,146,D,star,1,0,d,0.762,0,4,0,4,0,1,,,,,,,,,,,,,,,,,,,,,,,,,,,,,,,,,,,,,,,,,
295183,2022-11-23_17h45.45.155,vts_reward_expectancy_bt,2022.2.4,MacIntel,30.3030303,Safari,1728,1117,,,,,,,,,,,,,,,,,,,,,,,160,U,hexagon,1,0,f,0.76,0,5,0,5,0,1,,,,,,,,,,,,,,,,,,,,,,,,,,,,,,,,,,,,,,,,,
295183,2022-11-23_17h45.45.155,vts_reward_expectancy_bt,2022.2.4,MacIntel,30.3030303,Safari,1728,1117,,,,,,,,,,,,,,,,,,,,,,,132,W,triangle,1,0,d,0.503,0,6,0,6,0,1,,,,,,,,,,,,,,,,,,,,,,,,,,,,,,,,,,,,,,,,,
295183,2022-11-23_17h45.45.155,vts_reward_expectancy_bt,2022.2.4,MacIntel,30.3030303,Safari,1728,1117,,,,,,,,,,,,,,,,,,,,,,,181,F,circle,1,0,f,0.407,0,7,0,7,0,1,,,,,,,,,,,,,,,,,,,,,,,,,,,,,,,,,,,,,,,,,
295183,2022-11-23_17h45.45.155,vts_reward_expectancy_bt,2022.2.4,MacIntel,30.3030303,Safari,1728,1117,,,,,,,,,,,,,,,,,,,,,,,125,Y,circle,1,0,d,0.55,0,8,0,8,0,1,,,,,,,,,,,,,,,,,,,,,,,,,,,,,,,,,,,,,,,,,
295183,2022-11-23_17h45.45.155,vts_reward_expectancy_bt,2022.2.4,MacIntel,30.3030303,Safari,1728,1117,,,,,,,,,,,,,,,,,,,,,,,174,B,triangle,1,0,f,0.522,0,9,0,9,0,1,,,,,,,,,,,,,,,,,,,,,,,,,,,,,,,,,,,,,,,,,
295183,2022-11-23_17h45.45.155,vts_reward_expectancy_bt,2022.2.4,MacIntel,30.3030303,Safari,1728,1117,,,,,,,,,,,,,,,,,,,,,,,160,F,star,1,0,,,1,,,,,,j,0.974,0,0,0,0,1,,,,,,,,,,,,,,,,,,,,,,,,,,,,,,,,,,
295183,2022-11-23_17h45.45.155,vts_reward_expectancy_bt,2022.2.4,MacIntel,30.3030303,Safari,1728,1117,,,,,,,,,,,,,,,,,,,,,,,181,D,triangle,1,0,,,1,,,,,,j,0.559,1,0,1,0,1,,,,,,,,,,,,,,,,,,,,,,,,,,,,,,,,,,
295183,2022-11-23_17h45.45.155,vts_reward_expectancy_bt,2022.2.4,MacIntel,30.3030303,Safari,1728,1117,,,,,,,,,,,,,,,,,,,,,,,125,U,circle,1,0,,,1,,,,,,k,0.427,2,0,2,0,1,,,,,,,,,,,,,,,,,,,,,,,,,,,,,,,,,,
295183,2022-11-23_17h45.45.155,vts_reward_expectancy_bt,2022.2.4,MacIntel,30.3030303,Safari,1728,1117,,,,,,,,,,,,,,,,,,,,,,,132,H,hexagon,1,0,,,1,,,,,,j,0.727,3,0,3,0,1,,,,,,,,,,,,,,,,,,,,,,,,,,,,,,,,,,
295183,2022-11-23_17h45.45.155,vts_reward_expectancy_bt,2022.2.4,MacIntel,30.3030303,Safari,1728,1117,,,,,,,,,,,,,,,,,,,,,,,174,W,star,1,0,,,1,,,,,,k,0.578,4,0,4,0,1,,,,,,,,,,,,,,,,,,,,,,,,,,,,,,,,,,
295183,2022-11-23_17h45.45.155,vts_reward_expectancy_bt,2022.2.4,MacIntel,30.3030303,Safari,1728,1117,,,,,,,,,,,,,,,,,,,,,,,139,Y,triangle,1,0,,,1,,,,,,k,0.517,5,0,5,0,1,,,,,,,,,,,,,,,,,,,,,,,,,,,,,,,,,,
295183,2022-11-23_17h45.45.155,vts_reward_expectancy_bt,2022.2.4,MacIntel,30.3030303,Safari,1728,1117,,,,,,,,,,,,,,,,,,,,,,,167,S,circle,1,0,,,1,,,,,,k,0.393,6,0,6,0,1,,,,,,,,,,,,,,,,,,,,,,,,,,,,,,,,,,
295183,2022-11-23_17h45.45.155,vts_reward_expectancy_bt,2022.2.4,MacIntel,30.3030303,Safari,1728,1117,,,,,,,,,,,,,,,,,,,,,,,146,B,hexagon,1,0,,,1,,,,,,j,0.432,7,0,7,0,1,,,,,,,,,,,,,,,,,,,,,,,,,,,,,,,,,,
295183,2022-11-23_17h45.45.155,vts_reward_expectancy_bt,2022.2.4,MacIntel,30.3030303,Safari,1728,1117,,,,,,,,,,,,,,,,,,,,,,,160,F,star,1,0,,,1,,,,,,j,0.56,8,0,8,0,1,,,,,,,,,,,,,,,,,,,,,,,,,,,,,,,,,,
295183,2022-11-23_17h45.45.155,vts_reward_expectancy_bt,2022.2.4,MacIntel,30.3030303,Safari,1728,1117,,,,,,,,,,,,,,,,,,,,,,,181,D,triangle,1,0,,,1,,,,,,j,0.511,9,0,9,0,1,,,,,,,,,,,,,,,,,,,,,,,,,,,,,,,,,,
295183,2022-11-23_17h45.45.155,vts_reward_expectancy_bt,2022.2.4,MacIntel,30.3030303,Safari,1728,1117,,,,,0,666,,,,,,,,,,,,,,,,,146,F,triangle,1,0,,,2,,,,,,,,,,,,,-1,number,NA,d,1.615,vtsPrac,0,0,0,0,1,,,,,,,,,,,,,,,,,,,,,,,
295183,2022-11-23_17h45.45.155,vts_reward_expectancy_bt,2022.2.4,MacIntel,30.3030303,Safari,1728,1117,,,,,0,666,,,,,,,,,,,,,,,,,132,Y,circle,1,0,,,2,,,,,,,,,,,,,repeat,number,numRpt,d,0.766,vtsPrac,1,0,1,0,1,,,,,,,,,,,,,,,,,,,,,,,
295183,2022-11-23_17h45.45.155,vts_reward_expectancy_bt,2022.2.4,MacIntel,30.3030303,Safari,1728,1117,,,,,0,666,,,,,,,,,,,,,,,,,167,W,triangle,1,0,,,2,,,,,,,,,,,,,repeat,number,numRpt,f,0.793,vtsPrac,2,0,2,0,1,,,,,,,,,,,,,,,,,,,,,,,
295183,2022-11-23_17h45.45.155,vts_reward_expectancy_bt,2022.2.4,MacIntel,30.3030303,Safari,1728,1117,,,,,0,666,,,,,,,,,,,,,,,,,139,U,circle,1,0,,,2,,,,,,,,,,,,,switch,letter,lettSwt,k,0.55,vtsPrac,3,0,3,0,1,,,,,,,,,,,,,,,,,,,,,,,
295183,2022-11-23_17h45.45.155,vts_reward_expectancy_bt,2022.2.4,MacIntel,30.3030303,Safari,1728,1117,,,,,0,666,,,,,,,,,,,,,,,,,146,F,triangle,1,0,,,2,,,,,,,,,,,,,switch,number,numSwt,d,1.073,vtsPrac,4,0,4,0,1,,,,,,,,,,,,,,,,,,,,,,,
295183,2022-11-23_17h45.45.155,vts_reward_expectancy_bt,2022.2.4,MacIntel,30.3030303,Safari,1728,1117,,,,,0,666,,,,,,,,,,,,,,,,,132,Y,circle,1,0,,,2,,,,,,,,,,,,,switch,letter,lettSwt,k,0.607,vtsPrac,5,0,5,0,1,,,,,,,,,,,,,,,,,,,,,,,
295183,2022-11-23_17h45.45.155,vts_reward_expectancy_bt,2022.2.4,MacIntel,30.3030303,Safari,1728,1117,,,,,0,666,,,,,,,,,,,,,,,,,167,W,star,1,0,,,2,,,,,,,,,,,,,repeat,letter,lettRpt,k,0.684,vtsPrac,6,0,6,0,1,,,,,,,,,,,,,,,,,,,,,,,
295183,2022-11-23_17h45.45.155,vts_reward_expectancy_bt,2022.2.4,MacIntel,30.3030303,Safari,1728,1117,,,,,0,666,,,,,,,,,,,,,,,,,139,U,hexagon,1,0,,,2,,,,,,,,,,,,,switch,number,numSwt,d,0.948,vtsPrac,7,0,7,0,1,,,,,,,,,,,,,,,,,,,,,,,
295183,2022-11-23_17h45.45.155,vts_reward_expectancy_bt,2022.2.4,MacIntel,30.3030303,Safari,1728,1117,,,,,0,666,,,,,,,,,,,,,,,,,181,S,star,1,0,,,2,,,,,,,,,,,,,switch,letter,lettSwt,k,0.626,vtsPrac,8,0,8,0,1,,,,,,,,,,,,,,,,,,,,,,,
295183,2022-11-23_17h45.45.155,vts_reward_expectancy_bt,2022.2.4,MacIntel,30.3030303,Safari,1728,1117,,,,,0,666,,,,,,,,,,,,,,,,,146,D,circle,1,0,,,2,,,,,,,,,,,,,repeat,letter,lettRpt,j,0.76,vtsPrac,9,0,9,0,1,,,,,,,,,,,,,,,,,,,,,,,
295183,2022-11-23_17h45.45.155,vts_reward_expectancy_bt,2022.2.4,MacIntel,30.3030303,Safari,1728,1117,,,,,0,666,,,,,,,,,,,,,,,,,160,U,circle,1,0,,,2,,,,,,,,,,,,,repeat,letter,lettRpt,k,0.622,vtsPrac,10,0,10,0,1,,,,,,,,,,,,,,,,,,,,,,,
295183,2022-11-23_17h45.45.155,vts_reward_expectancy_bt,2022.2.4,MacIntel,30.3030303,Safari,1728,1117,,,,,0,666,,,,,,,,,,,,,,,,,167,W,star,1,0,,,2,,,,,,,,,,,,,repeat,letter,lettRpt,k,0.615,vtsPrac,11,0,11,0,1,,,,,,,,,,,,,,,,,,,,,,,
295183,2022-11-23_17h45.45.155,vts_reward_expectancy_bt,2022.2.4,MacIntel,30.3030303,Safari,1728,1117,,,,,0,666,,,,,,,,,,,,,,,,,146,W,hexagon,1,0,,,2,,,,,,,,,,,,,switch,number,numSwt,d,0.566,vtsPrac,12,0,12,0,1,,,,,,,,,,,,,,,,,,,,,,,
295183,2022-11-23_17h45.45.155,vts_reward_expectancy_bt,2022.2.4,MacIntel,30.3030303,Safari,1728,1117,,,,,0,666,,,,,,,,,,,,,,,,,174,B,triangle,1,0,,,2,,,,,,,,,,,,,switch,letter,lettSwt,j,0.579,vtsPrac,13,0,13,0,1,,,,,,,,,,,,,,,,,,,,,,,
295183,2022-11-23_17h45.45.155,vts_reward_expectancy_bt,2022.2.4,MacIntel,30.3030303,Safari,1728,1117,,,,,0,666,,,,,,,,,,,,,,,,,167,F,circle,1,0,,,2,,,,,,,,,,,,,switch,number,numSwt,f,0.378,vtsPrac,14,0,14,0,1,,,,,,,,,,,,,,,,,,,,,,,
295183,2022-11-23_17h45.45.155,vts_reward_expectancy_bt,2022.2.4,MacIntel,30.3030303,Safari,1728,1117,,,,,0,666,,,,,,,,,,,,,,,,,181,D,triangle,1,0,,,2,,,,,,,,,,,,,repeat,number,numRpt,f,0.674,vtsPrac,15,0,15,0,1,,,,,,,,,,,,,,,,,,,,,,,
295183,2022-11-23_17h45.45.155,vts_reward_expectancy_bt,2022.2.4,MacIntel,30.3030303,Safari,1728,1117,,,,,0,666,,,,,,,,,,,,,,,,,181,F,circle,1,0,,,2,,,,,,,,,,,,,repeat,number,numRpt,f,0.554,vtsPrac,16,0,16,0,1,,,,,,,,,,,,,,,,,,,,,,,
295183,2022-11-23_17h45.45.155,vts_reward_expectancy_bt,2022.2.4,MacIntel,30.3030303,Safari,1728,1117,,,,,0,666,,,,,,,,,,,,,,,,,174,U,hexagon,1,0,,,2,,,,,,,,,,,,,switch,letter,lettSwt,k,0.515,vtsPrac,17,0,17,0,1,,,,,,,,,,,,,,,,,,,,,,,
295183,2022-11-23_17h45.45.155,vts_reward_expectancy_bt,2022.2.4,MacIntel,30.3030303,Safari,1728,1117,,,,,0,666,,,,,,,,,,,,,,,,,132,S,star,1,0,,,2,,,,,,,,,,,,,repeat,letter,lettRpt,k,0.587,vtsPrac,18,0,18,0,1,,,,,,,,,,,,,,,,,,,,,,,
295183,2022-11-23_17h45.45.155,vts_reward_expectancy_bt,2022.2.4,MacIntel,30.3030303,Safari,1728,1117,,,,,0,666,,,,,,,,,,,,,,,,,167,B,triangle,1,0,,,2,,,,,,,,,,,,,repeat,letter,lettRpt,j,0.411,vtsPrac,19,0,19,0,1,,,,,,,,,,,,,,,,,,,,,,,
295183,2022-11-23_17h45.45.155,vts_reward_expectancy_bt,2022.2.4,MacIntel,30.3030303,Safari,1728,1117,,,,,0,666,,,,,,,,,,,,,,,,,160,B,triangle,1,0,,,2,,,,,,,,,,,,,switch,number,numSwt,f,0.668,vtsPrac,20,0,20,0,1,,,,,,,,,,,,,,,,,,,,,,,
295183,2022-11-23_17h45.45.155,vts_reward_expectancy_bt,2022.2.4,MacIntel,30.3030303,Safari,1728,1117,,,,,0,666,,,,,,,,,,,,,,,,,146,D,star,1,0,,,2,,,,,,,,,,,,,repeat,number,numRpt,d,0.441,vtsPrac,21,0,21,0,1,,,,,,,,,,,,,,,,,,,,,,,
295183,2022-11-23_17h45.45.155,vts_reward_expectancy_bt,2022.2.4,MacIntel,30.3030303,Safari,1728,1117,,,,,0,666,,,,,,,,,,,,,,,,,174,F,star,1,0,,,2,,,,,,,,,,,,,switch,letter,lettSwt,j,0.54,vtsPrac,22,0,22,0,1,,,,,,,,,,,,,,,,,,,,,,,
295183,2022-11-23_17h45.45.155,vts_reward_expectancy_bt,2022.2.4,MacIntel,30.3030303,Safari,1728,1117,,,,,0,666,,,,,,,,,,,,,,,,,167,U,circle,1,0,,,2,,,,,,,,,,,,,repeat,letter,lettRpt,k,0.554,vtsPrac,23,0,23,0,1,,,,,,,,,,,,,,,,,,,,,,,
295183,2022-11-23_17h45.45.155,vts_reward_expectancy_bt,2022.2.4,MacIntel,30.3030303,Safari,1728,1117,,,,,0,666,,,,,,,,,,,,,,,,,132,B,hexagon,1,0,,,2,,,,,,,,,,,,,switch,number,numSwt,d,0.507,vtsPrac,24,0,24,0,1,,,,,,,,,,,,,,,,,,,,,,,
295183,2022-11-23_17h45.45.155,vts_reward_expectancy_bt,2022.2.4,MacIntel,30.3030303,Safari,1728,1117,,,,,0,666,,,,,,,,,,,,,,,,,146,S,star,1,0,,,2,,,,,,,,,,,,,switch,letter,lettSwt,k,0.529,vtsPrac,25,0,25,0,1,,,,,,,,,,,,,,,,,,,,,,,
295183,2022-11-23_17h45.45.155,vts_reward_expectancy_bt,2022.2.4,MacIntel,30.3030303,Safari,1728,1117,,,,,0,666,,,,,,,,,,,,,,,,,167,H,triangle,1,0,,,2,,,,,,,,,,,,,repeat,letter,lettRpt,j,0.54,vtsPrac,26,0,26,0,1,,,,,,,,,,,,,,,,,,,,,,,
295183,2022-11-23_17h45.45.155,vts_reward_expectancy_bt,2022.2.4,MacIntel,30.3030303,Safari,1728,1117,,,,,0,666,,,,,,,,,,,,,,,,,139,Y,circle,1,0,,,2,,,,,,,,,,,,,repeat,letter,lettRpt,k,0.485,vtsPrac,27,0,27,0,1,,,,,,,,,,,,,,,,,,,,,,,
295183,2022-11-23_17h45.45.155,vts_reward_expectancy_bt,2022.2.4,MacIntel,30.3030303,Safari,1728,1117,,,,,0,666,,,,,,,,,,,,,,,,,132,U,hexagon,1,0,,,2,,,,,,,,,,,,,switch,number,numSwt,d,0.438,vtsPrac,28,0,28,0,1,,,,,,,,,,,,,,,,,,,,,,,
295183,2022-11-23_17h45.45.155,vts_reward_expectancy_bt,2022.2.4,MacIntel,30.3030303,Safari,1728,1117,,,,,0,666,,,,,,,,,,,,,,,,,125,S,triangle,1,0,,,2,,,,,,,,,,,,,repeat,number,numRpt,d,0.659,vtsPrac,29,0,29,0,1,,,,,,,,,,,,,,,,,,,,,,,
295183,2022-11-23_17h45.45.155,vts_reward_expectancy_bt,2022.2.4,MacIntel,30.3030303,Safari,1728,1117,,,,,0,666,,,,,,,,,,,,,,,,,160,W,circle,1,0,,,2,,,,,,,,,,,,,switch,letter,lettSwt,k,0.469,vtsPrac,30,0,30,0,1,,,,,,,,,,,,,,,,,,,,,,,
295183,2022-11-23_17h45.45.155,vts_reward_expectancy_bt,2022.2.4,MacIntel,30.3030303,Safari,1728,1117,,,,,0,666,,,,,,,,,,,,,,,,,146,B,hexagon,1,0,,,2,,,,,,,,,,,,,repeat,letter,lettRpt,j,0.56,vtsPrac,31,0,31,0,1,,,,,,,,,,,,,,,,,,,,,,,
295183,2022-11-23_17h45.45.155,vts_reward_expectancy_bt,2022.2.4,MacIntel,30.3030303,Safari,1728,1117,,,,,,,,,,,,,,,,,,,,,,,,,,,,,,,,,,,,,,,,,,,,,,,,,,,,,,,,,,,,,,,,,,,,,,,,,,,,
295183,2022-11-23_17h45.45.155,vts_reward_expectancy_bt,2022.2.4,MacIntel,30.3030303,Safari,1728,1117,,,,,,,,,,,,,,,,,,,,,,,,,,,,,,,,,,,,,,,,,,,,,,,,,,,,,,,,,,,,,,,,,,,,,,,,,,,,
295183,2022-11-23_17h45.45.155,vts_reward_expectancy_bt,2022.2.4,MacIntel,30.3030303,Safari,1728,1117,,,,,0,666,,,,,,,,,,,,,,,,,167,D,hexagon,1,0,,,,,,,,,,,,,,,,switch,number,numSwt,f,0.673,noRew,,,,,,0,0,0,0,0,1,,,,,,,,,,,,,,,,,
295183,2022-11-23_17h45.45.155,vts_reward_expectancy_bt,2022.2.4,MacIntel,30.3030303,Safari,1728,1117,,,,,0,666,,,,,,,,,,,,,,,,,139,B,circle,1,0,,,,,,,,,,,,,,,,repeat,number,numRpt,d,0.597,noRew,,,,,,0,1,0,1,0,1,,,,,,,,,,,,,,,,,
295183,2022-11-23_17h45.45.155,vts_reward_expectancy_bt,2022.2.4,MacIntel,30.3030303,Safari,1728,1117,,,,,0,666,,,,,,,,,,,,,,,,,181,F,hexagon,1,0,,,,,,,,,,,,,,,,repeat,number,numRpt,f,0.714,noRew,,,,,,0,2,0,2,0,1,,,,,,,,,,,,,,,,,
295183,2022-11-23_17h45.45.155,vts_reward_expectancy_bt,2022.2.4,MacIntel,30.3030303,Safari,1728,1117,,,,,0,666,,,,,,,,,,,,,,,,,160,H,circle,1,0,,,,,,,,,,,,,,,,switch,letter,lettSwt,j,0.592,noRew,,,,,,0,3,0,3,0,1,,,,,,,,,,,,,,,,,
295183,2022-11-23_17h45.45.155,vts_reward_expectancy_bt,2022.2.4,MacIntel,30.3030303,Safari,1728,1117,,,,,0,666,,,,,,,,,,,,,,,,,167,D,triangle,1,0,,,,,,,,,,,,,,,,switch,number,numSwt,f,1.07,noRew,,,,,,0,4,0,4,0,1,,,,,,,,,,,,,,,,,
295183,2022-11-23_17h45.45.155,vts_reward_expectancy_bt,2022.2.4,MacIntel,30.3030303,Safari,1728,1117,,,,,0,666,,,,,,,,,,,,,,,,,139,B,star,1,0,,,,,,,,,,,,,,,,switch,letter,lettSwt,j,0.493,noRew,,,,,,0,5,0,5,0,1,,,,,,,,,,,,,,,,,
295183,2022-11-23_17h45.45.155,vts_reward_expectancy_bt,2022.2.4,MacIntel,30.3030303,Safari,1728,1117,,,,,0,666,,,,,,,,,,,,,,,,,181,F,triangle,0,0,,,,,,,,,,,,,,,,repeat,letter,NA,k,0.432,noRew,,,,,,0,6,0,6,0,1,,,,,,,,,,,,,,,,,
295183,2022-11-23_17h45.45.155,vts_reward_expectancy_bt,2022.2.4,MacIntel,30.3030303,Safari,1728,1117,,,,,0,666,,,,,,,,,,,,,,,,,160,H,hexagon,1,1,,,,,,,,,,,,,,,,repeat,letter,lettRpt,j,0.642,noRew,,,,,,0,7,0,7,0,1,,,,,,,,,,,,,,,,,
295183,2022-11-23_17h45.45.155,vts_reward_expectancy_bt,2022.2.4,MacIntel,30.3030303,Safari,1728,1117,,,,,0,666,,,,,,,,,,,,,,,,,174,B,star,1,0,,,,,,,,,,,,,,,,repeat,letter,lettRpt,j,0.444,noRew,,,,,,0,8,0,8,0,1,,,,,,,,,,,,,,,,,
295183,2022-11-23_17h45.45.155,vts_reward_expectancy_bt,2022.2.4,MacIntel,30.3030303,Safari,1728,1117,,,,,0,666,,,,,,,,,,,,,,,,,167,D,triangle,1,0,,,,,,,,,,,,,,,,switch,number,numSwt,f,0.567,noRew,,,,,,0,9,0,9,0,1,,,,,,,,,,,,,,,,,
295183,2022-11-23_17h45.45.155,vts_reward_expectancy_bt,2022.2.4,MacIntel,30.3030303,Safari,1728,1117,,,,,0,666,,,,,,,,,,,,,,,,,160,F,circle,1,0,,,,,,,,,,,,,,,,repeat,number,numRpt,f,0.631,noRew,,,,,,0,10,0,10,0,1,,,,,,,,,,,,,,,,,
295183,2022-11-23_17h45.45.155,vts_reward_expectancy_bt,2022.2.4,MacIntel,30.3030303,Safari,1728,1117,,,,,0,666,,,,,,,,,,,,,,,,,125,S,triangle,1,0,,,,,,,,,,,,,,,,repeat,number,numRpt,d,0.473,noRew,,,,,,0,11,0,11,0,1,,,,,,,,,,,,,,,,,
295183,2022-11-23_17h45.45.155,vts_reward_expectancy_bt,2022.2.4,MacIntel,30.3030303,Safari,1728,1117,,,,,0,666,,,,,,,,,,,,,,,,,160,U,star,1,0,,,,,,,,,,,,,,,,repeat,number,numRpt,f,0.65,noRew,,,,,,0,12,0,12,0,1,,,,,,,,,,,,,,,,,
295183,2022-11-23_17h45.45.155,vts_reward_expectancy_bt,2022.2.4,MacIntel,30.3030303,Safari,1728,1117,,,,,0,666,,,,,,,,,,,,,,,,,139,Y,circle,1,0,,,,,,,,,,,,,,,,switch,letter,lettSwt,k,0.645,noRew,,,,,,0,13,0,13,0,1,,,,,,,,,,,,,,,,,
295183,2022-11-23_17h45.45.155,vts_reward_expectancy_bt,2022.2.4,MacIntel,30.3030303,Safari,1728,1117,,,,,0,666,,,,,,,,,,,,,,,,,167,H,hexagon,1,0,,,,,,,,,,,,,,,,repeat,letter,lettRpt,j,0.464,noRew,,,,,,0,14,0,14,0,1,,,,,,,,,,,,,,,,,
295183,2022-11-23_17h45.45.155,vts_reward_expectancy_bt,2022.2.4,MacIntel,30.3030303,Safari,1728,1117,,,,,0,666,,,,,,,,,,,,,,,,,132,S,star,1,0,,,,,,,,,,,,,,,,repeat,letter,lettRpt,k,0.576,noRew,,,,,,0,15,0,15,0,1,,,,,,,,,,,,,,,,,
295183,2022-11-23_17h45.45.155,vts_reward_expectancy_bt,2022.2.4,MacIntel,30.3030303,Safari,1728,1117,,,,,0,666,,,,,,,,,,,,,,,,,139,B,star,1,0,,,,,,,,,,,,,,,,repeat,letter,lettRpt,j,0.579,noRew,,,,,,0,16,0,16,0,1,,,,,,,,,,,,,,,,,
295183,2022-11-23_17h45.45.155,vts_reward_expectancy_bt,2022.2.4,MacIntel,30.3030303,Safari,1728,1117,,,,,0,666,,,,,,,,,,,,,,,,,132,U,hexagon,1,0,,,,,,,,,,,,,,,,switch,number,numSwt,d,0.513,noRew,,,,,,0,17,0,17,0,1,,,,,,,,,,,,,,,,,
295183,2022-11-23_17h45.45.155,vts_reward_expectancy_bt,2022.2.4,MacIntel,30.3030303,Safari,1728,1117,,,,,0,666,,,,,,,,,,,,,,,,,181,W,circle,1,0,,,,,,,,,,,,,,,,repeat,number,numRpt,f,0.594,noRew,,,,,,0,18,0,18,0,1,,,,,,,,,,,,,,,,,
295183,2022-11-23_17h45.45.155,vts_reward_expectancy_bt,2022.2.4,MacIntel,30.3030303,Safari,1728,1117,,,,,0,666,,,,,,,,,,,,,,,,,160,F,triangle,1,0,,,,,,,,,,,,,,,,switch,letter,lettSwt,j,0.643,noRew,,,,,,0,19,0,19,0,1,,,,,,,,,,,,,,,,,
295183,2022-11-23_17h45.45.155,vts_reward_expectancy_bt,2022.2.4,MacIntel,30.3030303,Safari,1728,1117,,,,,0,666,,,,,,,,,,,,,,,,,146,D,hexagon,1,0,,,,,,,,,,,,,,,,repeat,letter,lettRpt,j,0.649,noRew,,,,,,0,20,0,20,0,1,,,,,,,,,,,,,,,,,
295183,2022-11-23_17h45.45.155,vts_reward_expectancy_bt,2022.2.4,MacIntel,30.3030303,Safari,1728,1117,,,,,0,666,,,,,,,,,,,,,,,,,167,H,triangle,1,0,,,,,,,,,,,,,,,,switch,number,numSwt,f,0.527,noRew,,,,,,0,21,0,21,0,1,,,,,,,,,,,,,,,,,
295183,2022-11-23_17h45.45.155,vts_reward_expectancy_bt,2022.2.4,MacIntel,30.3030303,Safari,1728,1117,,,,,0,666,,,,,,,,,,,,,,,,,174,F,triangle,1,0,,,,,,,,,,,,,,,,repeat,number,numRpt,f,0.526,noRew,,,,,,0,22,0,22,0,1,,,,,,,,,,,,,,,,,
295183,2022-11-23_17h45.45.155,vts_reward_expectancy_bt,2022.2.4,MacIntel,30.3030303,Safari,1728,1117,,,,,0,666,,,,,,,,,,,,,,,,,125,W,hexagon,1,0,,,,,,,,,,,,,,,,repeat,number,numRpt,d,0.502,noRew,,,,,,0,23,0,23,0,1,,,,,,,,,,,,,,,,,
295183,2022-11-23_17h45.45.155,vts_reward_expectancy_bt,2022.2.4,MacIntel,30.3030303,Safari,1728,1117,,,,,0,666,,,,,,,,,,,,,,,,,132,Y,hexagon,1,0,,,,,,,,,,,,,,,,switch,letter,lettSwt,k,0.499,noRew,,,,,,0,24,0,24,0,1,,,,,,,,,,,,,,,,,
295183,2022-11-23_17h45.45.155,vts_reward_expectancy_bt,2022.2.4,MacIntel,30.3030303,Safari,1728,1117,,,,,0,666,,,,,,,,,,,,,,,,,174,B,star,1,0,,,,,,,,,,,,,,,,repeat,letter,lettRpt,j,0.489,noRew,,,,,,0,25,0,25,0,1,,,,,,,,,,,,,,,,,
295183,2022-11-23_17h45.45.155,vts_reward_expectancy_bt,2022.2.4,MacIntel,30.3030303,Safari,1728,1117,,,,,0,666,,,,,,,,,,,,,,,,,125,S,hexagon,1,0,,,,,,,,,,,,,,,,repeat,letter,lettRpt,k,0.551,noRew,,,,,,0,26,0,26,0,1,,,,,,,,,,,,,,,,,
295183,2022-11-23_17h45.45.155,vts_reward_expectancy_bt,2022.2.4,MacIntel,30.3030303,Safari,1728,1117,,,,,0,666,,,,,,,,,,,,,,,,,181,D,circle,1,0,,,,,,,,,,,,,,,,repeat,letter,lettRpt,j,0.496,noRew,,,,,,0,27,0,27,0,1,,,,,,,,,,,,,,,,,
295183,2022-11-23_17h45.45.155,vts_reward_expectancy_bt,2022.2.4,MacIntel,30.3030303,Safari,1728,1117,,,,,0,666,,,,,,,,,,,,,,,,,146,Y,circle,1,0,,,,,,,,,,,,,,,,switch,number,numSwt,d,0.939,noRew,,,,,,0,28,0,28,0,1,,,,,,,,,,,,,,,,,
295183,2022-11-23_17h45.45.155,vts_reward_expectancy_bt,2022.2.4,MacIntel,30.3030303,Safari,1728,1117,,,,,0,666,,,,,,,,,,,,,,,,,181,H,star,1,0,,,,,,,,,,,,,,,,repeat,number,numRpt,f,0.497,noRew,,,,,,0,29,0,29,0,1,,,,,,,,,,,,,,,,,
295183,2022-11-23_17h45.45.155,vts_reward_expectancy_bt,2022.2.4,MacIntel,30.3030303,Safari,1728,1117,,,,,0,666,,,,,,,,,,,,,,,,,139,D,triangle,1,0,,,,,,,,,,,,,,,,switch,letter,lettSwt,j,0.489,noRew,,,,,,0,30,0,30,0,1,,,,,,,,,,,,,,,,,
295183,2022-11-23_17h45.45.155,vts_reward_expectancy_bt,2022.2.4,MacIntel,30.3030303,Safari,1728,1117,,,,,0,666,,,,,,,,,,,,,,,,,160,S,hexagon,1,0,,,,,,,,,,,,,,,,switch,number,numSwt,f,0.564,noRew,,,,,,0,31,0,31,0,1,,,,,,,,,,,,,,,,,
295183,2022-11-23_17h45.45.155,vts_reward_expectancy_bt,2022.2.4,MacIntel,30.3030303,Safari,1728,1117,,,,,0,666,,,,,,,,,,,,,,,,,160,D,circle,1,0,,,,,,,,,,,,,,,,switch,letter,lettSwt,j,0.444,noRew,,,,,,0,32,0,32,0,1,,,,,,,,,,,,,,,,,
295183,2022-11-23_17h45.45.155,vts_reward_expectancy_bt,2022.2.4,MacIntel,30.3030303,Safari,1728,1117,,,,,0,666,,,,,,,,,,,,,,,,,125,S,star,1,0,,,,,,,,,,,,,,,,repeat,letter,lettRpt,k,0.444,noRew,,,,,,0,33,0,33,0,1,,,,,,,,,,,,,,,,,
295183,2022-11-23_17h45.45.155,vts_reward_expectancy_bt,2022.2.4,MacIntel,30.3030303,Safari,1728,1117,,,,,0,666,,,,,,,,,,,,,,,,,174,F,star,1,0,,,,,,,,,,,,,,,,repeat,letter,lettRpt,j,0.504,noRew,,,,,,0,34,0,34,0,1,,,,,,,,,,,,,,,,,
295183,2022-11-23_17h45.45.155,vts_reward_expectancy_bt,2022.2.4,MacIntel,30.3030303,Safari,1728,1117,,,,,0,666,,,,,,,,,,,,,,,,,167,Y,circle,1,0,,,,,,,,,,,,,,,,switch,number,numSwt,f,0.477,noRew,,,,,,0,35,0,35,0,1,,,,,,,,,,,,,,,,,
295183,2022-11-23_17h45.45.155,vts_reward_expectancy_bt,2022.2.4,MacIntel,30.3030303,Safari,1728,1117,,,,,0,666,,,,,,,,,,,,,,,,,132,B,star,1,0,,,,,,,,,,,,,,,,repeat,number,numRpt,d,0.615,noRew,,,,,,0,36,0,36,0,1,,,,,,,,,,,,,,,,,
295183,2022-11-23_17h45.45.155,vts_reward_expectancy_bt,2022.2.4,MacIntel,30.3030303,Safari,1728,1117,,,,,0,666,,,,,,,,,,,,,,,,,181,D,circle,1,0,,,,,,,,,,,,,,,,repeat,number,numRpt,f,0.644,noRew,,,,,,0,37,0,37,0,1,,,,,,,,,,,,,,,,,
295183,2022-11-23_17h45.45.155,vts_reward_expectancy_bt,2022.2.4,MacIntel,30.3030303,Safari,1728,1117,,,,,0,666,,,,,,,,,,,,,,,,,174,W,star,1,0,,,,,,,,,,,,,,,,repeat,number,numRpt,f,0.891,noRew,,,,,,0,38,0,38,0,1,,,,,,,,,,,,,,,,,
295183,2022-11-23_17h45.45.155,vts_reward_expectancy_bt,2022.2.4,MacIntel,30.3030303,Safari,1728,1117,,,,,0,666,,,,,,,,,,,,,,,,,125,S,hexagon,1,0,,,,,,,,,,,,,,,,switch,letter,lettSwt,k,0.602,noRew,,,,,,0,39,0,39,0,1,,,,,,,,,,,,,,,,,
295183,2022-11-23_17h45.45.155,vts_reward_expectancy_bt,2022.2.4,MacIntel,30.3030303,Safari,1728,1117,,,,,0,666,,,,,,,,,,,,,,,,,146,H,triangle,1,0,,,,,,,,,,,,,,,,repeat,letter,lettRpt,j,0.579,noRew,,,,,,0,40,0,40,0,1,,,,,,,,,,,,,,,,,
295183,2022-11-23_17h45.45.155,vts_reward_expectancy_bt,2022.2.4,MacIntel,30.3030303,Safari,1728,1117,,,,,0,666,,,,,,,,,,,,,,,,,125,Y,hexagon,1,0,,,,,,,,,,,,,,,,repeat,letter,lettRpt,k,0.906,noRew,,,,,,0,41,0,41,0,1,,,,,,,,,,,,,,,,,
295183,2022-11-23_17h45.45.155,vts_reward_expectancy_bt,2022.2.4,MacIntel,30.3030303,Safari,1728,1117,,,,,0,666,,,,,,,,,,,,,,,,,139,B,star,1,0,,,,,,,,,,,,,,,,switch,number,numSwt,d,0.735,noRew,,,,,,0,42,0,42,0,1,,,,,,,,,,,,,,,,,
295183,2022-11-23_17h45.45.155,vts_reward_expectancy_bt,2022.2.4,MacIntel,30.3030303,Safari,1728,1117,,,,,0,666,,,,,,,,,,,,,,,,,160,U,hexagon,1,0,,,,,,,,,,,,,,,,repeat,number,numRpt,f,0.608,noRew,,,,,,0,43,0,43,0,1,,,,,,,,,,,,,,,,,
295183,2022-11-23_17h45.45.155,vts_reward_expectancy_bt,2022.2.4,MacIntel,30.3030303,Safari,1728,1117,,,,,0,666,,,,,,,,,,,,,,,,,174,B,triangle,1,0,,,,,,,,,,,,,,,,switch,letter,lettSwt,j,0.47,noRew,,,,,,0,44,0,44,0,1,,,,,,,,,,,,,,,,,
295183,2022-11-23_17h45.45.155,vts_reward_expectancy_bt,2022.2.4,MacIntel,30.3030303,Safari,1728,1117,,,,,0,666,,,,,,,,,,,,,,,,,167,F,circle,1,0,,,,,,,,,,,,,,,,repeat,letter,lettRpt,j,0.577,noRew,,,,,,0,45,0,45,0,1,,,,,,,,,,,,,,,,,
295183,2022-11-23_17h45.45.155,vts_reward_expectancy_bt,2022.2.4,MacIntel,30.3030303,Safari,1728,1117,,,,,0,666,,,,,,,,,,,,,,,,,125,W,star,1,0,,,,,,,,,,,,,,,,repeat,letter,lettRpt,k,0.591,noRew,,,,,,0,46,0,46,0,1,,,,,,,,,,,,,,,,,
295183,2022-11-23_17h45.45.155,vts_reward_expectancy_bt,2022.2.4,MacIntel,30.3030303,Safari,1728,1117,,,,,0,666,,,,,,,,,,,,,,,,,146,Y,circle,1,0,,,,,,,,,,,,,,,,switch,number,numSwt,d,0.384,noRew,,,,,,0,47,0,47,0,1,,,,,,,,,,,,,,,,,
295183,2022-11-23_17h45.45.155,vts_reward_expectancy_bt,2022.2.4,MacIntel,30.3030303,Safari,1728,1117,,,,,0,666,,,,,,,,,,,,,,,,,160,S,triangle,1,0,,,,,,,,,,,,,,,,repeat,number,numRpt,f,0.85,noRew,,,,,,0,48,0,48,0,1,,,,,,,,,,,,,,,,,
295183,2022-11-23_17h45.45.155,vts_reward_expectancy_bt,2022.2.4,MacIntel,30.3030303,Safari,1728,1117,,,,,0,666,,,,,,,,,,,,,,,,,125,D,star,1,0,,,,,,,,,,,,,,,,repeat,number,numRpt,d,0.604,noRew,,,,,,0,49,0,49,0,1,,,,,,,,,,,,,,,,,
295183,2022-11-23_17h45.45.155,vts_reward_expectancy_bt,2022.2.4,MacIntel,30.3030303,Safari,1728,1117,,,,,0,666,,,,,,,,,,,,,,,,,174,B,star,1,0,,,,,,,,,,,,,,,,repeat,number,numRpt,f,0.568,noRew,,,,,,0,50,0,50,0,1,,,,,,,,,,,,,,,,,
295183,2022-11-23_17h45.45.155,vts_reward_expectancy_bt,2022.2.4,MacIntel,30.3030303,Safari,1728,1117,,,,,0,666,,,,,,,,,,,,,,,,,132,H,triangle,1,0,,,,,,,,,,,,,,,,repeat,number,numRpt,d,0.413,noRew,,,,,,0,51,0,51,0,1,,,,,,,,,,,,,,,,,
295183,2022-11-23_17h45.45.155,vts_reward_expectancy_bt,2022.2.4,MacIntel,30.3030303,Safari,1728,1117,,,,,0,666,,,,,,,,,,,,,,,,,146,U,hexagon,1,0,,,,,,,,,,,,,,,,switch,letter,lettSwt,k,0.586,noRew,,,,,,0,52,0,52,0,1,,,,,,,,,,,,,,,,,
295183,2022-11-23_17h45.45.155,vts_reward_expectancy_bt,2022.2.4,MacIntel,30.3030303,Safari,1728,1117,,,,,0,666,,,,,,,,,,,,,,,,,174,Y,star,1,0,,,,,,,,,,,,,,,,repeat,letter,lettRpt,k,0.646,noRew,,,,,,0,53,0,53,0,1,,,,,,,,,,,,,,,,,
295183,2022-11-23_17h45.45.155,vts_reward_expectancy_bt,2022.2.4,MacIntel,30.3030303,Safari,1728,1117,,,,,0,666,,,,,,,,,,,,,,,,,167,F,star,1,0,,,,,,,,,,,,,,,,repeat,letter,lettRpt,j,0.693,noRew,,,,,,0,54,0,54,0,1,,,,,,,,,,,,,,,,,
295183,2022-11-23_17h45.45.155,vts_reward_expectancy_bt,2022.2.4,MacIntel,30.3030303,Safari,1728,1117,,,,,0,666,,,,,,,,,,,,,,,,,139,B,circle,1,0,,,,,,,,,,,,,,,,repeat,letter,lettRpt,j,0.536,noRew,,,,,,0,55,0,55,0,1,,,,,,,,,,,,,,,,,
295183,2022-11-23_17h45.45.155,vts_reward_expectancy_bt,2022.2.4,MacIntel,30.3030303,Safari,1728,1117,,,,,0,666,,,,,,,,,,,,,,,,,125,U,hexagon,1,0,,,,,,,,,,,,,,,,switch,number,numSwt,d,0.465,noRew,,,,,,0,56,0,56,0,1,,,,,,,,,,,,,,,,,
295183,2022-11-23_17h45.45.155,vts_reward_expectancy_bt,2022.2.4,MacIntel,30.3030303,Safari,1728,1117,,,,,0,666,,,,,,,,,,,,,,,,,146,F,triangle,1,0,,,,,,,,,,,,,,,,repeat,number,numRpt,d,0.514,noRew,,,,,,0,57,0,57,0,1,,,,,,,,,,,,,,,,,
295183,2022-11-23_17h45.45.155,vts_reward_expectancy_bt,2022.2.4,MacIntel,30.3030303,Safari,1728,1117,,,,,0,666,,,,,,,,,,,,,,,,,139,D,circle,1,0,,,,,,,,,,,,,,,,switch,letter,lettSwt,j,0.694,noRew,,,,,,0,58,0,58,0,1,,,,,,,,,,,,,,,,,
295183,2022-11-23_17h45.45.155,vts_reward_expectancy_bt,2022.2.4,MacIntel,30.3030303,Safari,1728,1117,,,,,0,666,,,,,,,,,,,,,,,,,160,B,star,1,0,,,,,,,,,,,,,,,,repeat,letter,lettRpt,j,0.453,noRew,,,,,,0,59,0,59,0,1,,,,,,,,,,,,,,,,,
295183,2022-11-23_17h45.45.155,vts_reward_expectancy_bt,2022.2.4,MacIntel,30.3030303,Safari,1728,1117,,,,,0,666,,,,,,,,,,,,,,,,,132,W,circle,1,0,,,,,,,,,,,,,,,,switch,number,numSwt,d,0.338,noRew,,,,,,0,60,0,60,0,1,,,,,,,,,,,,,,,,,
295183,2022-11-23_17h45.45.155,vts_reward_expectancy_bt,2022.2.4,MacIntel,30.3030303,Safari,1728,1117,,,,,0,666,,,,,,,,,,,,,,,,,174,Y,triangle,1,0,,,,,,,,,,,,,,,,switch,letter,lettSwt,k,0.416,noRew,,,,,,0,61,0,61,0,1,,,,,,,,,,,,,,,,,
295183,2022-11-23_17h45.45.155,vts_reward_expectancy_bt,2022.2.4,MacIntel,30.3030303,Safari,1728,1117,,,,,0,666,,,,,,,,,,,,,,,,,146,S,circle,1,0,,,,,,,,,,,,,,,,repeat,letter,lettRpt,k,0.663,noRew,,,,,,0,62,0,62,0,1,,,,,,,,,,,,,,,,,
295183,2022-11-23_17h45.45.155,vts_reward_expectancy_bt,2022.2.4,MacIntel,30.3030303,Safari,1728,1117,,,,,0,666,,,,,,,,,,,,,,,,,160,U,star,1,0,,,,,,,,,,,,,,,,repeat,letter,lettRpt,k,0.486,noRew,,,,,,0,63,0,63,0,1,,,,,,,,,,,,,,,,,
295183,2022-11-23_17h45.45.155,vts_reward_expectancy_bt,2022.2.4,MacIntel,30.3030303,Safari,1728,1117,,,,,,,,,,,,,,,,,,,,,,,,,,,,,,,,,,,,,,,,,,,,,,,,,,,,,,,,,,,,,,,,,,,,,,,,,,,,
295183,2022-11-23_17h45.45.155,vts_reward_expectancy_bt,2022.2.4,MacIntel,30.3030303,Safari,1728,1117,,,,,10,676,,,,,,,,,,,,,,,,,146,H,triangle,1,0,,,,,,,,,,,,,,,,switch,number,numSwt,d,1.471,Lo,,,,,,0,,,,,,space,6.466,high,0,0,0,0,1,,,,,,,,,
295183,2022-11-23_17h45.45.155,vts_reward_expectancy_bt,2022.2.4,MacIntel,30.3030303,Safari,1728,1117,,,,,0,676,,,,,,,,,,,,,,,,,181,Y,hexagon,1,0,,,,,,,,,,,,,,,,repeat,number,numRpt,f,1.881,Hi,,,,,,0,,,,,,,,high,1,0,1,0,1,,,,,,,,,
295183,2022-11-23_17h45.45.155,vts_reward_expectancy_bt,2022.2.4,MacIntel,30.3030303,Safari,1728,1117,,,,,0,676,,,,,,,,,,,,,,,,,139,S,star,1,0,,,,,,,,,,,,,,,,switch,letter,lettSwt,k,0.845,Hi,,,,,,0,,,,,,,,high,2,0,2,0,1,,,,,,,,,
295183,2022-11-23_17h45.45.155,vts_reward_expectancy_bt,2022.2.4,MacIntel,30.3030303,Safari,1728,1117,,,,,1,677,,,,,,,,,,,,,,,,,167,U,circle,1,0,,,,,,,,,,,,,,,,repeat,letter,lettRpt,k,0.486,Lo,,,,,,0,,,,,,,,high,3,0,3,0,1,,,,,,,,,
295183,2022-11-23_17h45.45.155,vts_reward_expectancy_bt,2022.2.4,MacIntel,30.3030303,Safari,1728,1117,,,,,1,678,,,,,,,,,,,,,,,,,132,W,triangle,1,0,,,,,,,,,,,,,,,,switch,number,numSwt,d,0.467,Lo,,,,,,0,,,,,,,,high,4,0,4,0,1,,,,,,,,,
295183,2022-11-23_17h45.45.155,vts_reward_expectancy_bt,2022.2.4,MacIntel,30.3030303,Safari,1728,1117,,,,,0,678,,,,,,,,,,,,,,,,,125,B,hexagon,1,0,,,,,,,,,,,,,,,,repeat,number,numRpt,d,0.648,Hi,,,,,,0,,,,,,,,high,5,0,5,0,1,,,,,,,,,
295183,2022-11-23_17h45.45.155,vts_reward_expectancy_bt,2022.2.4,MacIntel,30.3030303,Safari,1728,1117,,,,,0,678,,,,,,,,,,,,,,,,,174,D,star,0,0,,,,,,,,,,,,,,,,repeat,number,NA,d,0.318,Hi,,,,,,0,,,,,,,,high,6,0,6,0,1,,,,,,,,,
295183,2022-11-23_17h45.45.155,vts_reward_expectancy_bt,2022.2.4,MacIntel,30.3030303,Safari,1728,1117,,,,,1,679,,,,,,,,,,,,,,,,,160,F,circle,1,1,,,,,,,,,,,,,,,,repeat,number,numRpt,f,2.064,Lo,,,,,,0,,,,,,,,high,7,0,7,0,1,,,,,,,,,
295183,2022-11-23_17h45.45.155,vts_reward_expectancy_bt,2022.2.4,MacIntel,30.3030303,Safari,1728,1117,,,,,1,680,,,,,,,,,,,,,,,,,146,H,triangle,1,0,,,,,,,,,,,,,,,,repeat,number,numRpt,d,0.476,Lo,,,,,,0,,,,,,,,high,8,0,8,0,1,,,,,,,,,
295183,2022-11-23_17h45.45.155,vts_reward_expectancy_bt,2022.2.4,MacIntel,30.3030303,Safari,1728,1117,,,,,1,681,,,,,,,,,,,,,,,,,181,Y,hexagon,1,0,,,,,,,,,,,,,,,,repeat,number,numRpt,f,0.416,Hi,,,,,,0,,,,,,,,high,9,0,9,0,1,,,,,,,,,
295183,2022-11-23_17h45.45.155,vts_reward_expectancy_bt,2022.2.4,MacIntel,30.3030303,Safari,1728,1117,,,,,1,682,,,,,,,,,,,,,,,,,139,S,star,1,0,,,,,,,,,,,,,,,,repeat,number,numRpt,d,0.407,Hi,,,,,,0,,,,,,,,high,10,0,10,0,1,,,,,,,,,
295183,2022-11-23_17h45.45.155,vts_reward_expectancy_bt,2022.2.4,MacIntel,30.3030303,Safari,1728,1117,,,,,1,683,,,,,,,,,,,,,,,,,167,U,circle,1,0,,,,,,,,,,,,,,,,switch,letter,lettSwt,k,0.91,Lo,,,,,,0,,,,,,,,high,11,0,11,0,1,,,,,,,,,
295183,2022-11-23_17h45.45.155,vts_reward_expectancy_bt,2022.2.4,MacIntel,30.3030303,Safari,1728,1117,,,,,1,684,,,,,,,,,,,,,,,,,132,W,hexagon,1,0,,,,,,,,,,,,,,,,repeat,letter,lettRpt,k,0.452,Hi,,,,,,0,,,,,,,,high,12,0,12,0,1,,,,,,,,,
295183,2022-11-23_17h45.45.155,vts_reward_expectancy_bt,2022.2.4,MacIntel,30.3030303,Safari,1728,1117,,,,,1,685,,,,,,,,,,,,,,,,,125,B,circle,1,0,,,,,,,,,,,,,,,,repeat,letter,lettRpt,j,1.226,Lo,,,,,,0,,,,,,,,high,13,0,13,0,1,,,,,,,,,
295183,2022-11-23_17h45.45.155,vts_reward_expectancy_bt,2022.2.4,MacIntel,30.3030303,Safari,1728,1117,,,,,1,686,,,,,,,,,,,,,,,,,174,D,triangle,1,0,,,,,,,,,,,,,,,,switch,number,numSwt,f,0.584,Lo,,,,,,0,,,,,,,,high,14,0,14,0,1,,,,,,,,,
295183,2022-11-23_17h45.45.155,vts_reward_expectancy_bt,2022.2.4,MacIntel,30.3030303,Safari,1728,1117,,,,,0,686,,,,,,,,,,,,,,,,,160,F,star,0,0,,,,,,,,,,,,,,,,switch,letter,NA,k,1.408,Lo,,,,,,0,,,,,,,,high,15,0,15,0,1,,,,,,,,,
295183,2022-11-23_17h45.45.155,vts_reward_expectancy_bt,2022.2.4,MacIntel,30.3030303,Safari,1728,1117,,,,,1,687,,,,,,,,,,,,,,,,,160,D,hexagon,1,1,,,,,,,,,,,,,,,,switch,number,numSwt,f,0.47,Hi,,,,,,0,,,,,,,,high,16,0,16,0,1,,,,,,,,,
295183,2022-11-23_17h45.45.155,vts_reward_expectancy_bt,2022.2.4,MacIntel,30.3030303,Safari,1728,1117,,,,,0,687,,,,,,,,,,,,,,,,,167,H,star,1,0,,,,,,,,,,,,,,,,switch,letter,lettSwt,j,0.86,Hi,,,,,,0,,,,,,,,high,17,0,17,0,1,,,,,,,,,
295183,2022-11-23_17h45.45.155,vts_reward_expectancy_bt,2022.2.4,MacIntel,30.3030303,Safari,1728,1117,,,,,1,688,,,,,,,,,,,,,,,,,139,Y,circle,1,0,,,,,,,,,,,,,,,,repeat,letter,lettRpt,k,0.652,Lo,,,,,,0,,,,,,,,high,18,0,18,0,1,,,,,,,,,
295183,2022-11-23_17h45.45.155,vts_reward_expectancy_bt,2022.2.4,MacIntel,30.3030303,Safari,1728,1117,,,,,1,689,,,,,,,,,,,,,,,,,132,W,triangle,1,0,,,,,,,,,,,,,,,,repeat,letter,lettRpt,k,0.592,Lo,,,,,,0,,,,,,,,high,19,0,19,0,1,,,,,,,,,
295183,2022-11-23_17h45.45.155,vts_reward_expectancy_bt,2022.2.4,MacIntel,30.3030303,Safari,1728,1117,,,,,1,690,,,,,,,,,,,,,,,,,181,B,triangle,1,0,,,,,,,,,,,,,,,,repeat,letter,lettRpt,j,0.472,Lo,,,,,,0,,,,,,,,high,20,0,20,0,1,,,,,,,,,
295183,2022-11-23_17h45.45.155,vts_reward_expectancy_bt,2022.2.4,MacIntel,30.3030303,Safari,1728,1117,,,,,0,690,,,,,,,,,,,,,,,,,174,U,star,1,0,,,,,,,,,,,,,,,,switch,number,numSwt,f,0.611,Hi,,,,,,0,,,,,,,,high,21,0,21,0,1,,,,,,,,,
295183,2022-11-23_17h45.45.155,vts_reward_expectancy_bt,2022.2.4,MacIntel,30.3030303,Safari,1728,1117,,,,,10,700,,,,,,,,,,,,,,,,,146,F,hexagon,1,0,,,,,,,,,,,,,,,,repeat,number,numRpt,d,0.459,Hi,,,,,,0,,,,,,,,high,22,0,22,0,1,,,,,,,,,
295183,2022-11-23_17h45.45.155,vts_reward_expectancy_bt,2022.2.4,MacIntel,30.3030303,Safari,1728,1117,,,,,1,701,,,,,,,,,,,,,,,,,125,S,circle,1,0,,,,,,,,,,,,,,,,repeat,number,numRpt,d,0.482,Lo,,,,,,0,,,,,,,,high,23,0,23,0,1,,,,,,,,,
295183,2022-11-23_17h45.45.155,vts_reward_expectancy_bt,2022.2.4,MacIntel,30.3030303,Safari,1728,1117,,,,,1,702,,,,,,,,,,,,,,,,,132,F,triangle,1,0,,,,,,,,,,,,,,,,repeat,number,numRpt,d,0.412,Lo,,,,,,0,,,,,,,,high,24,0,24,0,1,,,,,,,,,
295183,2022-11-23_17h45.45.155,vts_reward_expectancy_bt,2022.2.4,MacIntel,30.3030303,Safari,1728,1117,,,,,0,702,,,,,,,,,,,,,,,,,167,D,star,0,0,,,,,,,,,,,,,,,,repeat,number,NA,d,0.417,Lo,,,,,,0,,,,,,,,high,25,0,25,0,1,,,,,,,,,
295183,2022-11-23_17h45.45.155,vts_reward_expectancy_bt,2022.2.4,MacIntel,30.3030303,Safari,1728,1117,,,,,10,712,,,,,,,,,,,,,,,,,146,B,hexagon,1,1,,,,,,,,,,,,,,,,repeat,number,numRpt,d,0.395,Hi,,,,,,0,,,,,,,,high,26,0,26,0,1,,,,,,,,,
295183,2022-11-23_17h45.45.155,vts_reward_expectancy_bt,2022.2.4,MacIntel,30.3030303,Safari,1728,1117,,,,,1,713,,,,,,,,,,,,,,,,,125,W,circle,1,0,,,,,,,,,,,,,,,,repeat,number,numRpt,d,0.294,Lo,,,,,,0,,,,,,,,high,27,0,27,0,1,,,,,,,,,
295183,2022-11-23_17h45.45.155,vts_reward_expectancy_bt,2022.2.4,MacIntel,30.3030303,Safari,1728,1117,,,,,1,714,,,,,,,,,,,,,,,,,181,U,circle,1,0,,,,,,,,,,,,,,,,switch,letter,lettSwt,k,0.38,Lo,,,,,,0,,,,,,,,high,28,0,28,0,1,,,,,,,,,
295183,2022-11-23_17h45.45.155,vts_reward_expectancy_bt,2022.2.4,MacIntel,30.3030303,Safari,1728,1117,,,,,0,714,,,,,,,,,,,,,,,,,160,Y,hexagon,0,0,,,,,,,,,,,,,,,,repeat,letter,NA,j,0.375,Lo,,,,,,0,,,,,,,,high,29,0,29,0,1,,,,,,,,,
295183,2022-11-23_17h45.45.155,vts_reward_expectancy_bt,2022.2.4,MacIntel,30.3030303,Safari,1728,1117,,,,,10,724,,,,,,,,,,,,,,,,,174,S,triangle,1,1,,,,,,,,,,,,,,,,repeat,letter,lettRpt,k,0.5,Lo,,,,,,0,,,,,,,,high,30,0,30,0,1,,,,,,,,,
295183,2022-11-23_17h45.45.155,vts_reward_expectancy_bt,2022.2.4,MacIntel,30.3030303,Safari,1728,1117,,,,,1,725,,,,,,,,,,,,,,,,,139,H,star,1,0,,,,,,,,,,,,,,,,repeat,letter,lettRpt,j,0.353,Hi,,,,,,0,,,,,,,,high,31,0,31,0,1,,,,,,,,,
295183,2022-11-23_17h45.45.155,vts_reward_expectancy_bt,2022.2.4,MacIntel,30.3030303,Safari,1728,1117,,,,,1,726,,,,,,,,,,,,,,,,,146,D,triangle,1,0,,,,,,,,,,,,,,,,repeat,letter,lettRpt,j,0.735,Lo,,,,,,1,,,,,,space,1.711,high,0,0,0,0,1,,,,,,,,,
295183,2022-11-23_17h45.45.155,vts_reward_expectancy_bt,2022.2.4,MacIntel,30.3030303,Safari,1728,1117,,,,,10,736,,,,,,,,,,,,,,,,,125,U,circle,1,0,,,,,,,,,,,,,,,,repeat,letter,lettRpt,k,0.472,Lo,,,,,,1,,,,,,,,high,1,0,1,0,1,,,,,,,,,
295183,2022-11-23_17h45.45.155,vts_reward_expectancy_bt,2022.2.4,MacIntel,30.3030303,Safari,1728,1117,,,,,1,737,,,,,,,,,,,,,,,,,181,F,hexagon,1,0,,,,,,,,,,,,,,,,repeat,letter,lettRpt,j,0.397,Hi,,,,,,1,,,,,,,,high,2,0,2,0,1,,,,,,,,,
295183,2022-11-23_17h45.45.155,vts_reward_expectancy_bt,2022.2.4,MacIntel,30.3030303,Safari,1728,1117,,,,,0,737,,,,,,,,,,,,,,,,,174,S,star,1,0,,,,,,,,,,,,,,,,switch,number,numSwt,f,0.574,Hi,,,,,,1,,,,,,,,high,3,0,3,0,1,,,,,,,,,
295183,2022-11-23_17h45.45.155,vts_reward_expectancy_bt,2022.2.4,MacIntel,30.3030303,Safari,1728,1117,,,,,1,738,,,,,,,,,,,,,,,,,160,H,triangle,1,0,,,,,,,,,,,,,,,,switch,letter,lettSwt,j,0.501,Lo,,,,,,1,,,,,,,,high,4,0,4,0,1,,,,,,,,,
295183,2022-11-23_17h45.45.155,vts_reward_expectancy_bt,2022.2.4,MacIntel,30.3030303,Safari,1728,1117,,,,,1,739,,,,,,,,,,,,,,,,,139,Y,circle,1,0,,,,,,,,,,,,,,,,repeat,letter,lettRpt,k,0.427,Lo,,,,,,1,,,,,,,,high,5,0,5,0,1,,,,,,,,,
295183,2022-11-23_17h45.45.155,vts_reward_expectancy_bt,2022.2.4,MacIntel,30.3030303,Safari,1728,1117,,,,,10,749,,,,,,,,,,,,,,,,,167,W,hexagon,1,0,,,,,,,,,,,,,,,,repeat,letter,lettRpt,k,0.427,Hi,,,,,,1,,,,,,,,high,6,0,6,0,1,,,,,,,,,
295183,2022-11-23_17h45.45.155,vts_reward_expectancy_bt,2022.2.4,MacIntel,30.3030303,Safari,1728,1117,,,,,10,759,,,,,,,,,,,,,,,,,132,B,star,1,0,,,,,,,,,,,,,,,,repeat,letter,lettRpt,j,0.431,Hi,,,,,,1,,,,,,,,high,7,0,7,0,1,,,,,,,,,
295183,2022-11-23_17h45.45.155,vts_reward_expectancy_bt,2022.2.4,MacIntel,30.3030303,Safari,1728,1117,,,,,0,759,,,,,,,,,,,,,,,,,146,D,triangle,0,0,,,,,,,,,,,,,,,,switch,number,NA,f,0.618,Hi,,,,,,1,,,,,,,,high,8,0,8,0,1,,,,,,,,,
295183,2022-11-23_17h45.45.155,vts_reward_expectancy_bt,2022.2.4,MacIntel,30.3030303,Safari,1728,1117,,,,,1,760,,,,,,,,,,,,,,,,,125,U,circle,1,1,,,,,,,,,,,,,,,,repeat,number,numRpt,d,0.387,Lo,,,,,,1,,,,,,,,high,9,0,9,0,1,,,,,,,,,
295183,2022-11-23_17h45.45.155,vts_reward_expectancy_bt,2022.2.4,MacIntel,30.3030303,Safari,1728,1117,,,,,10,770,,,,,,,,,,,,,,,,,181,F,star,1,0,,,,,,,,,,,,,,,,repeat,number,numRpt,f,0.33,Hi,,,,,,1,,,,,,,,high,10,0,10,0,1,,,,,,,,,
295183,2022-11-23_17h45.45.155,vts_reward_expectancy_bt,2022.2.4,MacIntel,30.3030303,Safari,1728,1117,,,,,0,770,,,,,,,,,,,,,,,,,174,S,hexagon,0,0,,,,,,,,,,,,,,,,repeat,number,NA,d,0.293,Hi,,,,,,1,,,,,,,,high,11,0,11,0,1,,,,,,,,,
295183,2022-11-23_17h45.45.155,vts_reward_expectancy_bt,2022.2.4,MacIntel,30.3030303,Safari,1728,1117,,,,,1,771,,,,,,,,,,,,,,,,,160,H,circle,1,1,,,,,,,,,,,,,,,,repeat,number,numRpt,f,0.309,Lo,,,,,,1,,,,,,,,high,12,0,12,0,1,,,,,,,,,
295183,2022-11-23_17h45.45.155,vts_reward_expectancy_bt,2022.2.4,MacIntel,30.3030303,Safari,1728,1117,,,,,1,772,,,,,,,,,,,,,,,,,139,Y,triangle,1,0,,,,,,,,,,,,,,,,repeat,number,numRpt,d,0.47,Lo,,,,,,1,,,,,,,,high,13,0,13,0,1,,,,,,,,,
295183,2022-11-23_17h45.45.155,vts_reward_expectancy_bt,2022.2.4,MacIntel,30.3030303,Safari,1728,1117,,,,,10,782,,,,,,,,,,,,,,,,,167,W,star,1,0,,,,,,,,,,,,,,,,switch,letter,lettSwt,k,0.399,Hi,,,,,,1,,,,,,,,high,14,0,14,0,1,,,,,,,,,
295183,2022-11-23_17h45.45.155,vts_reward_expectancy_bt,2022.2.4,MacIntel,30.3030303,Safari,1728,1117,,,,,10,792,,,,,,,,,,,,,,,,,132,B,hexagon,1,0,,,,,,,,,,,,,,,,repeat,letter,lettRpt,j,0.392,Hi,,,,,,1,,,,,,,,high,15,0,15,0,1,,,,,,,,,
295183,2022-11-23_17h45.45.155,vts_reward_expectancy_bt,2022.2.4,MacIntel,30.3030303,Safari,1728,1117,,,,,10,802,,,,,,,,,,,,,,,,,139,W,star,1,0,,,,,,,,,,,,,,,,repeat,letter,lettRpt,k,0.311,Hi,,,,,,1,,,,,,,,high,16,0,16,0,1,,,,,,,,,
295183,2022-11-23_17h45.45.155,vts_reward_expectancy_bt,2022.2.4,MacIntel,30.3030303,Safari,1728,1117,,,,,0,802,,,,,,,,,,,,,,,,,132,S,hexagon,0,0,,,,,,,,,,,,,,,,repeat,letter,NA,j,0.599,Hi,,,,,,1,,,,,,,,high,17,0,17,0,1,,,,,,,,,
295183,2022-11-23_17h45.45.155,vts_reward_expectancy_bt,2022.2.4,MacIntel,30.3030303,Safari,1728,1117,,,,,1,803,,,,,,,,,,,,,,,,,125,Y,triangle,1,1,,,,,,,,,,,,,,,,switch,number,numSwt,d,0.393,Lo,,,,,,1,,,,,,,,high,18,0,18,0,1,,,,,,,,,
295183,2022-11-23_17h45.45.155,vts_reward_expectancy_bt,2022.2.4,MacIntel,30.3030303,Safari,1728,1117,,,,,1,804,,,,,,,,,,,,,,,,,174,H,circle,1,0,,,,,,,,,,,,,,,,repeat,number,numRpt,f,0.502,Lo,,,,,,1,,,,,,,,high,19,0,19,0,1,,,,,,,,,
295183,2022-11-23_17h45.45.155,vts_reward_expectancy_bt,2022.2.4,MacIntel,30.3030303,Safari,1728,1117,,,,,0,804,,,,,,,,,,,,,,,,,181,B,triangle,0,0,,,,,,,,,,,,,,,,repeat,number,NA,d,0.507,Lo,,,,,,1,,,,,,,,high,20,0,20,0,1,,,,,,,,,
295183,2022-11-23_17h45.45.155,vts_reward_expectancy_bt,2022.2.4,MacIntel,30.3030303,Safari,1728,1117,,,,,1,805,,,,,,,,,,,,,,,,,167,U,star,1,1,,,,,,,,,,,,,,,,switch,letter,lettSwt,k,0.367,Hi,,,,,,1,,,,,,,,high,21,0,21,0,1,,,,,,,,,
295183,2022-11-23_17h45.45.155,vts_reward_expectancy_bt,2022.2.4,MacIntel,30.3030303,Safari,1728,1117,,,,,10,815,,,,,,,,,,,,,,,,,160,D,circle,1,0,,,,,,,,,,,,,,,,repeat,letter,lettRpt,j,0.394,Lo,,,,,,1,,,,,,,,high,22,0,22,0,1,,,,,,,,,
295183,2022-11-23_17h45.45.155,vts_reward_expectancy_bt,2022.2.4,MacIntel,30.3030303,Safari,1728,1117,,,,,0,815,,,,,,,,,,,,,,,,,146,F,hexagon,1,0,,,,,,,,,,,,,,,,switch,number,numSwt,d,0.546,Hi,,,,,,1,,,,,,,,high,23,0,23,0,1,,,,,,,,,
295183,2022-11-23_17h45.45.155,vts_reward_expectancy_bt,2022.2.4,MacIntel,30.3030303,Safari,1728,1117,,,,,0,815,,,,,,,,,,,,,,,,,146,F,star,1,0,,,,,,,,,,,,,,,,repeat,number,numRpt,d,0.414,Hi,,,,,,1,,,,,,,,high,24,0,24,0,1,,,,,,,,,
295183,2022-11-23_17h45.45.155,vts_reward_expectancy_bt,2022.2.4,MacIntel,30.3030303,Safari,1728,1117,,,,,1,816,,,,,,,,,,,,,,,,,181,W,triangle,1,0,,,,,,,,,,,,,,,,repeat,number,numRpt,f,0.479,Lo,,,,,,1,,,,,,,,high,25,0,25,0,1,,,,,,,,,
295183,2022-11-23_17h45.45.155,vts_reward_expectancy_bt,2022.2.4,MacIntel,30.3030303,Safari,1728,1117,,,,,10,826,,,,,,,,,,,,,,,,,174,H,hexagon,1,0,,,,,,,,,,,,,,,,repeat,number,numRpt,f,0.407,Hi,,,,,,1,,,,,,,,high,26,0,26,0,1,,,,,,,,,
295183,2022-11-23_17h45.45.155,vts_reward_expectancy_bt,2022.2.4,MacIntel,30.3030303,Safari,1728,1117,,,,,1,827,,,,,,,,,,,,,,,,,132,D,circle,1,0,,,,,,,,,,,,,,,,repeat,number,numRpt,d,0.27,Lo,,,,,,1,,,,,,,,high,27,0,27,0,1,,,,,,,,,
295183,2022-11-23_17h45.45.155,vts_reward_expectancy_bt,2022.2.4,MacIntel,30.3030303,Safari,1728,1117,,,,,10,837,,,,,,,,,,,,,,,,,167,B,star,1,0,,,,,,,,,,,,,,,,repeat,number,numRpt,f,0.402,Hi,,,,,,1,,,,,,,,high,28,0,28,0,1,,,,,,,,,
295183,2022-11-23_17h45.45.155,vts_reward_expectancy_bt,2022.2.4,MacIntel,30.3030303,Safari,1728,1117,,,,,10,847,,,,,,,,,,,,,,,,,125,U,triangle,1,0,,,,,,,,,,,,,,,,repeat,number,numRpt,d,0.443,Lo,,,,,,1,,,,,,,,high,29,0,29,0,1,,,,,,,,,
295183,2022-11-23_17h45.45.155,vts_reward_expectancy_bt,2022.2.4,MacIntel,30.3030303,Safari,1728,1117,,,,,1,848,,,,,,,,,,,,,,,,,139,Y,hexagon,1,0,,,,,,,,,,,,,,,,switch,letter,lettSwt,k,0.41,Hi,,,,,,1,,,,,,,,high,30,0,30,0,1,,,,,,,,,
295183,2022-11-23_17h45.45.155,vts_reward_expectancy_bt,2022.2.4,MacIntel,30.3030303,Safari,1728,1117,,,,,1,849,,,,,,,,,,,,,,,,,160,S,circle,1,0,,,,,,,,,,,,,,,,repeat,letter,lettRpt,k,0.619,Lo,,,,,,1,,,,,,,,high,31,0,31,0,1,,,,,,,,,
295183,2022-11-23_17h45.45.155,vts_reward_expectancy_bt,2022.2.4,MacIntel,30.3030303,Safari,1728,1117,,,,,10,859,,,,,,,,,,,,,,,,,139,Y,star,1,0,,,,,,,,,,,,,,,,repeat,letter,lettRpt,k,0.38,Hi,,,,,,2,,,,,,space,1.033,high,0,0,0,0,1,,,,,,,,,
295183,2022-11-23_17h45.45.155,vts_reward_expectancy_bt,2022.2.4,MacIntel,30.3030303,Safari,1728,1117,,,,,0,859,,,,,,,,,,,,,,,,,160,D,circle,0,0,,,,,,,,,,,,,,,,repeat,letter,NA,k,0.458,Hi,,,,,,2,,,,,,,,high,1,0,1,0,1,,,,,,,,,
295183,2022-11-23_17h45.45.155,vts_reward_expectancy_bt,2022.2.4,MacIntel,30.3030303,Safari,1728,1117,,,,,0,859,,,,,,,,,,,,,,,,,181,H,hexagon,1,1,,,,,,,,,,,,,,,,repeat,letter,lettRpt,j,0.508,Hi,,,,,,2,,,,,,,,high,2,0,2,0,1,,,,,,,,,
295183,2022-11-23_17h45.45.155,vts_reward_expectancy_bt,2022.2.4,MacIntel,30.3030303,Safari,1728,1117,,,,,10,869,,,,,,,,,,,,,,,,,132,W,triangle,1,0,,,,,,,,,,,,,,,,repeat,letter,lettRpt,k,0.441,Lo,,,,,,2,,,,,,,,high,3,0,3,0,1,,,,,,,,,
295183,2022-11-23_17h45.45.155,vts_reward_expectancy_bt,2022.2.4,MacIntel,30.3030303,Safari,1728,1117,,,,,0,869,,,,,,,,,,,,,,,,,174,S,star,0,0,,,,,,,,,,,,,,,,switch,number,NA,d,0.284,Lo,,,,,,2,,,,,,,,high,4,0,4,0,1,,,,,,,,,
295183,2022-11-23_17h45.45.155,vts_reward_expectancy_bt,2022.2.4,MacIntel,30.3030303,Safari,1728,1117,,,,,1,870,,,,,,,,,,,,,,,,,146,U,circle,1,1,,,,,,,,,,,,,,,,repeat,number,numRpt,d,0.42,Lo,,,,,,2,,,,,,,,high,5,0,5,0,1,,,,,,,,,
295183,2022-11-23_17h45.45.155,vts_reward_expectancy_bt,2022.2.4,MacIntel,30.3030303,Safari,1728,1117,,,,,0,870,,,,,,,,,,,,,,,,,125,F,hexagon,1,0,,,,,,,,,,,,,,,,switch,letter,lettSwt,j,0.527,Hi,,,,,,2,,,,,,,,high,6,0,6,0,1,,,,,,,,,
295183,2022-11-23_17h45.45.155,vts_reward_expectancy_bt,2022.2.4,MacIntel,30.3030303,Safari,1728,1117,,,,,1,871,,,,,,,,,,,,,,,,,167,B,triangle,1,0,,,,,,,,,,,,,,,,repeat,letter,lettRpt,j,0.441,Lo,,,,,,2,,,,,,,,high,7,0,7,0,1,,,,,,,,,
295183,2022-11-23_17h45.45.155,vts_reward_expectancy_bt,2022.2.4,MacIntel,30.3030303,Safari,1728,1117,,,,,0,871,,,,,,,,,,,,,,,,,139,Y,triangle,0,0,,,,,,,,,,,,,,,,repeat,letter,NA,j,0.322,Lo,,,,,,2,,,,,,,,high,8,0,8,0,1,,,,,,,,,
295183,2022-11-23_17h45.45.155,vts_reward_expectancy_bt,2022.2.4,MacIntel,30.3030303,Safari,1728,1117,,,,,1,872,,,,,,,,,,,,,,,,,160,D,star,1,1,,,,,,,,,,,,,,,,switch,number,numSwt,f,0.374,Hi,,,,,,2,,,,,,,,high,9,0,9,0,1,,,,,,,,,
295183,2022-11-23_17h45.45.155,vts_reward_expectancy_bt,2022.2.4,MacIntel,30.3030303,Safari,1728,1117,,,,,0,872,,,,,,,,,,,,,,,,,181,H,hexagon,1,0,,,,,,,,,,,,,,,,repeat,number,numRpt,f,0.527,Hi,,,,,,2,,,,,,,,high,10,0,10,0,1,,,,,,,,,
295183,2022-11-23_17h45.45.155,vts_reward_expectancy_bt,2022.2.4,MacIntel,30.3030303,Safari,1728,1117,,,,,10,882,,,,,,,,,,,,,,,,,132,W,circle,1,0,,,,,,,,,,,,,,,,repeat,number,numRpt,d,0.379,Lo,,,,,,2,,,,,,,,high,11,0,11,0,1,,,,,,,,,
295183,2022-11-23_17h45.45.155,vts_reward_expectancy_bt,2022.2.4,MacIntel,30.3030303,Safari,1728,1117,,,,,1,883,,,,,,,,,,,,,,,,,174,S,circle,1,0,,,,,,,,,,,,,,,,repeat,number,numRpt,f,0.396,Lo,,,,,,2,,,,,,,,high,12,0,12,0,1,,,,,,,,,
295183,2022-11-23_17h45.45.155,vts_reward_expectancy_bt,2022.2.4,MacIntel,30.3030303,Safari,1728,1117,,,,,10,893,,,,,,,,,,,,,,,,,146,U,hexagon,1,0,,,,,,,,,,,,,,,,repeat,number,numRpt,d,0.373,Hi,,,,,,2,,,,,,,,high,13,0,13,0,1,,,,,,,,,
295183,2022-11-23_17h45.45.155,vts_reward_expectancy_bt,2022.2.4,MacIntel,30.3030303,Safari,1728,1117,,,,,10,903,,,,,,,,,,,,,,,,,125,F,star,1,0,,,,,,,,,,,,,,,,switch,letter,lettSwt,j,0.368,Hi,,,,,,2,,,,,,,,high,14,0,14,0,1,,,,,,,,,
295183,2022-11-23_17h45.45.155,vts_reward_expectancy_bt,2022.2.4,MacIntel,30.3030303,Safari,1728,1117,,,,,1,904,,,,,,,,,,,,,,,,,167,B,triangle,1,0,,,,,,,,,,,,,,,,switch,number,numSwt,f,0.513,Lo,,,,,,2,,,,,,,,high,15,0,15,0,1,,,,,,,,,
295183,2022-11-23_17h45.45.155,vts_reward_expectancy_bt,2022.2.4,MacIntel,30.3030303,Safari,1728,1117,,,,,0,904,,,,,,,,,,,,,,,,,139,Y,triangle,0,0,,,,,,,,,,,,,,,,switch,letter,NA,j,0.515,Lo,,,,,,2,,,,,,,,high,16,0,16,0,1,,,,,,,,,
295183,2022-11-23_17h45.45.155,vts_reward_expectancy_bt,2022.2.4,MacIntel,30.3030303,Safari,1728,1117,,,,,0,904,,,,,,,,,,,,,,,,,146,H,circle,0,1,,,,,,,,,,,,,,,,switch,number,NA,f,0.539,Lo,,,,,,2,,,,,,,,high,17,0,17,0,1,,,,,,,,,
295183,2022-11-23_17h45.45.155,vts_reward_expectancy_bt,2022.2.4,MacIntel,30.3030303,Safari,1728,1117,,,,,10,914,,,,,,,,,,,,,,,,,125,D,hexagon,1,1,,,,,,,,,,,,,,,,repeat,number,numRpt,d,0.319,Hi,,,,,,2,,,,,,,,high,18,0,18,0,1,,,,,,,,,
295183,2022-11-23_17h45.45.155,vts_reward_expectancy_bt,2022.2.4,MacIntel,30.3030303,Safari,1728,1117,,,,,0,914,,,,,,,,,,,,,,,,,174,S,star,0,0,,,,,,,,,,,,,,,,switch,letter,NA,j,0.292,Hi,,,,,,2,,,,,,,,high,19,0,19,0,1,,,,,,,,,
295183,2022-11-23_17h45.45.155,vts_reward_expectancy_bt,2022.2.4,MacIntel,30.3030303,Safari,1728,1117,,,,,1,915,,,,,,,,,,,,,,,,,181,B,circle,1,1,,,,,,,,,,,,,,,,switch,number,numSwt,f,0.409,Lo,,,,,,2,,,,,,,,high,20,0,20,0,1,,,,,,,,,
295183,2022-11-23_17h45.45.155,vts_reward_expectancy_bt,2022.2.4,MacIntel,30.3030303,Safari,1728,1117,,,,,1,916,,,,,,,,,,,,,,,,,167,W,triangle,1,0,,,,,,,,,,,,,,,,repeat,number,numRpt,f,0.434,Lo,,,,,,2,,,,,,,,high,21,0,21,0,1,,,,,,,,,
295183,2022-11-23_17h45.45.155,vts_reward_expectancy_bt,2022.2.4,MacIntel,30.3030303,Safari,1728,1117,,,,,0,916,,,,,,,,,,,,,,,,,132,U,star,0,0,,,,,,,,,,,,,,,,switch,letter,NA,j,0.373,Lo,,,,,,2,,,,,,,,high,22,0,22,0,1,,,,,,,,,
295183,2022-11-23_17h45.45.155,vts_reward_expectancy_bt,2022.2.4,MacIntel,30.3030303,Safari,1728,1117,,,,,0,916,,,,,,,,,,,,,,,,,160,F,hexagon,1,1,,,,,,,,,,,,,,,,repeat,letter,lettRpt,j,0.526,Hi,,,,,,2,,,,,,,,high,23,0,23,0,1,,,,,,,,,
295183,2022-11-23_17h45.45.155,vts_reward_expectancy_bt,2022.2.4,MacIntel,30.3030303,Safari,1728,1117,,,,,10,926,,,,,,,,,,,,,,,,,146,B,circle,1,0,,,,,,,,,,,,,,,,repeat,letter,lettRpt,j,0.398,Lo,,,,,,2,,,,,,,,high,24,0,24,0,1,,,,,,,,,
295183,2022-11-23_17h45.45.155,vts_reward_expectancy_bt,2022.2.4,MacIntel,30.3030303,Safari,1728,1117,,,,,0,926,,,,,,,,,,,,,,,,,125,S,star,0,0,,,,,,,,,,,,,,,,repeat,letter,NA,j,0.364,Lo,,,,,,2,,,,,,,,high,25,0,25,0,1,,,,,,,,,
295183,2022-11-23_17h45.45.155,vts_reward_expectancy_bt,2022.2.4,MacIntel,30.3030303,Safari,1728,1117,,,,,0,926,,,,,,,,,,,,,,,,,181,F,hexagon,0,1,,,,,,,,,,,,,,,,repeat,letter,NA,k,0.345,Lo,,,,,,2,,,,,,,,high,26,0,26,0,1,,,,,,,,,
295183,2022-11-23_17h45.45.155,vts_reward_expectancy_bt,2022.2.4,MacIntel,30.3030303,Safari,1728,1117,,,,,1,927,,,,,,,,,,,,,,,,,167,Y,triangle,1,1,,,,,,,,,,,,,,,,repeat,letter,lettRpt,k,0.332,Lo,,,,,,2,,,,,,,,high,27,0,27,0,1,,,,,,,,,
295183,2022-11-23_17h45.45.155,vts_reward_expectancy_bt,2022.2.4,MacIntel,30.3030303,Safari,1728,1117,,,,,10,937,,,,,,,,,,,,,,,,,139,H,star,1,0,,,,,,,,,,,,,,,,switch,number,numSwt,d,0.33,Hi,,,,,,2,,,,,,,,high,28,0,28,0,1,,,,,,,,,
295183,2022-11-23_17h45.45.155,vts_reward_expectancy_bt,2022.2.4,MacIntel,30.3030303,Safari,1728,1117,,,,,1,938,,,,,,,,,,,,,,,,,132,U,triangle,1,0,,,,,,,,,,,,,,,,repeat,number,numRpt,d,0.395,Lo,,,,,,2,,,,,,,,high,29,0,29,0,1,,,,,,,,,
295183,2022-11-23_17h45.45.155,vts_reward_expectancy_bt,2022.2.4,MacIntel,30.3030303,Safari,1728,1117,,,,,0,938,,,,,,,,,,,,,,,,,160,D,hexagon,1,0,,,,,,,,,,,,,,,,repeat,number,numRpt,f,0.459,Hi,,,,,,2,,,,,,,,high,30,0,30,0,1,,,,,,,,,
295183,2022-11-23_17h45.45.155,vts_reward_expectancy_bt,2022.2.4,MacIntel,30.3030303,Safari,1728,1117,,,,,1,939,,,,,,,,,,,,,,,,,174,W,circle,1,0,,,,,,,,,,,,,,,,switch,letter,lettSwt,k,0.4,Lo,,,,,,2,,,,,,,,high,31,0,31,0,1,,,,,,,,,
295183,2022-11-23_17h45.45.155,vts_reward_expectancy_bt,2022.2.4,MacIntel,30.3030303,Safari,1728,1117,,,,,0,939,,,,,,,,,,,,,,,,,167,W,hexagon,0,0,,,,,,,,,,,,,,,,switch,number,NA,d,0.607,Lo,,,,,,3,,,,,,space,1.795,high,0,0,0,0,1,,,,,,,,,
295183,2022-11-23_17h45.45.155,vts_reward_expectancy_bt,2022.2.4,MacIntel,30.3030303,Safari,1728,1117,,,,,1,940,,,,,,,,,,,,,,,,,139,S,triangle,1,1,,,,,,,,,,,,,,,,repeat,number,numRpt,d,0.506,Lo,,,,,,3,,,,,,,,high,1,0,1,0,1,,,,,,,,,
295183,2022-11-23_17h45.45.155,vts_reward_expectancy_bt,2022.2.4,MacIntel,30.3030303,Safari,1728,1117,,,,,10,950,,,,,,,,,,,,,,,,,160,H,star,1,0,,,,,,,,,,,,,,,,repeat,number,numRpt,f,0.3,Hi,,,,,,3,,,,,,,,high,2,0,2,0,1,,,,,,,,,
295183,2022-11-23_17h45.45.155,vts_reward_expectancy_bt,2022.2.4,MacIntel,30.3030303,Safari,1728,1117,,,,,1,951,,,,,,,,,,,,,,,,,125,B,circle,1,0,,,,,,,,,,,,,,,,switch,letter,lettSwt,j,0.5,Lo,,,,,,3,,,,,,,,high,3,0,3,0,1,,,,,,,,,
295183,2022-11-23_17h45.45.155,vts_reward_expectancy_bt,2022.2.4,MacIntel,30.3030303,Safari,1728,1117,,,,,0,951,,,,,,,,,,,,,,,,,132,F,hexagon,0,0,,,,,,,,,,,,,,,,repeat,letter,NA,k,0.427,Lo,,,,,,3,,,,,,,,high,4,0,4,0,1,,,,,,,,,
295183,2022-11-23_17h45.45.155,vts_reward_expectancy_bt,2022.2.4,MacIntel,30.3030303,Safari,1728,1117,,,,,1,952,,,,,,,,,,,,,,,,,146,D,triangle,1,1,,,,,,,,,,,,,,,,repeat,letter,lettRpt,j,0.359,Lo,,,,,,3,,,,,,,,high,5,0,5,0,1,,,,,,,,,
295183,2022-11-23_17h45.45.155,vts_reward_expectancy_bt,2022.2.4,MacIntel,30.3030303,Safari,1728,1117,,,,,0,952,,,,,,,,,,,,,,,,,174,U,star,0,0,,,,,,,,,,,,,,,,switch,number,NA,d,0.26,Lo,,,,,,3,,,,,,,,high,6,0,6,0,1,,,,,,,,,
295183,2022-11-23_17h45.45.155,vts_reward_expectancy_bt,2022.2.4,MacIntel,30.3030303,Safari,1728,1117,,,,,1,953,,,,,,,,,,,,,,,,,181,Y,circle,1,1,,,,,,,,,,,,,,,,repeat,number,numRpt,f,0.396,Lo,,,,,,3,,,,,,,,high,7,0,7,0,1,,,,,,,,,
295183,2022-11-23_17h45.45.155,vts_reward_expectancy_bt,2022.2.4,MacIntel,30.3030303,Safari,1728,1117,,,,,1,954,,,,,,,,,,,,,,,,,167,W,circle,1,0,,,,,,,,,,,,,,,,repeat,number,numRpt,f,0.419,Lo,,,,,,3,,,,,,,,high,8,0,8,0,1,,,,,,,,,
295183,2022-11-23_17h45.45.155,vts_reward_expectancy_bt,2022.2.4,MacIntel,30.3030303,Safari,1728,1117,,,,,0,954,,,,,,,,,,,,,,,,,139,S,hexagon,1,0,,,,,,,,,,,,,,,,repeat,number,numRpt,d,0.592,Hi,,,,,,3,,,,,,,,high,9,0,9,0,1,,,,,,,,,
295183,2022-11-23_17h45.45.155,vts_reward_expectancy_bt,2022.2.4,MacIntel,30.3030303,Safari,1728,1117,,,,,10,964,,,,,,,,,,,,,,,,,160,H,triangle,1,0,,,,,,,,,,,,,,,,switch,letter,lettSwt,j,0.443,Lo,,,,,,3,,,,,,,,high,10,0,10,0,1,,,,,,,,,
295183,2022-11-23_17h45.45.155,vts_reward_expectancy_bt,2022.2.4,MacIntel,30.3030303,Safari,1728,1117,,,,,10,974,,,,,,,,,,,,,,,,,125,B,star,1,0,,,,,,,,,,,,,,,,repeat,letter,lettRpt,j,0.342,Hi,,,,,,3,,,,,,,,high,11,0,11,0,1,,,,,,,,,
295183,2022-11-23_17h45.45.155,vts_reward_expectancy_bt,2022.2.4,MacIntel,30.3030303,Safari,1728,1117,,,,,10,984,,,,,,,,,,,,,,,,,132,F,hexagon,1,0,,,,,,,,,,,,,,,,repeat,letter,lettRpt,j,0.353,Hi,,,,,,3,,,,,,,,high,12,0,12,0,1,,,,,,,,,
295183,2022-11-23_17h45.45.155,vts_reward_expectancy_bt,2022.2.4,MacIntel,30.3030303,Safari,1728,1117,,,,,1,985,,,,,,,,,,,,,,,,,146,D,triangle,1,0,,,,,,,,,,,,,,,,switch,number,numSwt,d,0.279,Lo,,,,,,3,,,,,,,,high,13,0,13,0,1,,,,,,,,,
295183,2022-11-23_17h45.45.155,vts_reward_expectancy_bt,2022.2.4,MacIntel,30.3030303,Safari,1728,1117,,,,,0,985,,,,,,,,,,,,,,,,,174,U,star,1,0,,,,,,,,,,,,,,,,repeat,number,numRpt,f,0.392,Hi,,,,,,3,,,,,,,,high,14,0,14,0,1,,,,,,,,,
295183,2022-11-23_17h45.45.155,vts_reward_expectancy_bt,2022.2.4,MacIntel,30.3030303,Safari,1728,1117,,,,,0,985,,,,,,,,,,,,,,,,,181,Y,circle,0,0,,,,,,,,,,,,,,,,switch,letter,NA,j,0.353,Hi,,,,,,3,,,,,,,,high,15,0,15,0,1,,,,,,,,,
295183,2022-11-23_17h45.45.155,vts_reward_expectancy_bt,2022.2.4,MacIntel,30.3030303,Safari,1728,1117,,,,,1,986,,,,,,,,,,,,,,,,,181,U,triangle,1,1,,,,,,,,,,,,,,,,repeat,letter,lettRpt,k,0.485,Lo,,,,,,3,,,,,,,,high,16,0,16,0,1,,,,,,,,,
295183,2022-11-23_17h45.45.155,vts_reward_expectancy_bt,2022.2.4,MacIntel,30.3030303,Safari,1728,1117,,,,,10,996,,,,,,,,,,,,,,,,,146,H,hexagon,1,0,,,,,,,,,,,,,,,,repeat,letter,lettRpt,j,0.327,Hi,,,,,,3,,,,,,,,high,17,0,17,0,1,,,,,,,,,
295183,2022-11-23_17h45.45.155,vts_reward_expectancy_bt,2022.2.4,MacIntel,30.3030303,Safari,1728,1117,,,,,10,1006,,,,,,,,,,,,,,,,,125,B,star,1,0,,,,,,,,,,,,,,,,repeat,letter,lettRpt,j,0.34,Hi,,,,,,3,,,,,,,,high,18,0,18,0,1,,,,,,,,,
295183,2022-11-23_17h45.45.155,vts_reward_expectancy_bt,2022.2.4,MacIntel,30.3030303,Safari,1728,1117,,,,,1,1007,,,,,,,,,,,,,,,,,132,W,circle,1,0,,,,,,,,,,,,,,,,repeat,letter,lettRpt,k,0.46,Lo,,,,,,3,,,,,,,,high,19,0,19,0,1,,,,,,,,,
295183,2022-11-23_17h45.45.155,vts_reward_expectancy_bt,2022.2.4,MacIntel,30.3030303,Safari,1728,1117,,,,,0,1007,,,,,,,,,,,,,,,,,174,D,star,0,0,,,,,,,,,,,,,,,,switch,number,NA,d,0.272,Lo,,,,,,3,,,,,,,,high,20,0,20,0,1,,,,,,,,,
295183,2022-11-23_17h45.45.155,vts_reward_expectancy_bt,2022.2.4,MacIntel,30.3030303,Safari,1728,1117,,,,,1,1008,,,,,,,,,,,,,,,,,139,F,circle,1,1,,,,,,,,,,,,,,,,switch,letter,lettSwt,j,0.511,Lo,,,,,,3,,,,,,,,high,21,0,21,0,1,,,,,,,,,
295183,2022-11-23_17h45.45.155,vts_reward_expectancy_bt,2022.2.4,MacIntel,30.3030303,Safari,1728,1117,,,,,1,1009,,,,,,,,,,,,,,,,,160,S,triangle,1,0,,,,,,,,,,,,,,,,repeat,letter,lettRpt,k,0.562,Lo,,,,,,3,,,,,,,,high,22,0,22,0,1,,,,,,,,,
295183,2022-11-23_17h45.45.155,vts_reward_expectancy_bt,2022.2.4,MacIntel,30.3030303,Safari,1728,1117,,,,,10,1019,,,,,,,,,,,,,,,,,167,Y,hexagon,1,0,,,,,,,,,,,,,,,,repeat,letter,lettRpt,k,0.372,Hi,,,,,,3,,,,,,,,high,23,0,23,0,1,,,,,,,,,
295183,2022-11-23_17h45.45.155,vts_reward_expectancy_bt,2022.2.4,MacIntel,30.3030303,Safari,1728,1117,,,,,0,1019,,,,,,,,,,,,,,,,,132,B,hexagon,1,0,,,,,,,,,,,,,,,,repeat,letter,lettRpt,j,0.45,Hi,,,,,,3,,,,,,,,high,24,0,24,0,1,,,,,,,,,
295183,2022-11-23_17h45.45.155,vts_reward_expectancy_bt,2022.2.4,MacIntel,30.3030303,Safari,1728,1117,,,,,0,1019,,,,,,,,,,,,,,,,,181,W,star,0,0,,,,,,,,,,,,,,,,switch,number,NA,d,0.527,Hi,,,,,,3,,,,,,,,high,25,0,25,0,1,,,,,,,,,
295183,2022-11-23_17h45.45.155,vts_reward_expectancy_bt,2022.2.4,MacIntel,30.3030303,Safari,1728,1117,,,,,10,1029,,,,,,,,,,,,,,,,,167,H,triangle,1,1,,,,,,,,,,,,,,,,switch,letter,lettSwt,j,0.374,Lo,,,,,,3,,,,,,,,high,26,0,26,0,1,,,,,,,,,
295183,2022-11-23_17h45.45.155,vts_reward_expectancy_bt,2022.2.4,MacIntel,30.3030303,Safari,1728,1117,,,,,10,1039,,,,,,,,,,,,,,,,,146,U,circle,1,0,,,,,,,,,,,,,,,,repeat,letter,lettRpt,k,0.497,Lo,,,,,,3,,,,,,,,high,27,0,27,0,1,,,,,,,,,
295183,2022-11-23_17h45.45.155,vts_reward_expectancy_bt,2022.2.4,MacIntel,30.3030303,Safari,1728,1117,,,,,0,1039,,,,,,,,,,,,,,,,,139,Y,star,1,0,,,,,,,,,,,,,,,,switch,number,numSwt,d,0.45,Hi,,,,,,3,,,,,,,,high,28,0,28,0,1,,,,,,,,,
295183,2022-11-23_17h45.45.155,vts_reward_expectancy_bt,2022.2.4,MacIntel,30.3030303,Safari,1728,1117,,,,,1,1040,,,,,,,,,,,,,,,,,125,F,hexagon,1,0,,,,,,,,,,,,,,,,repeat,number,numRpt,d,0.315,Hi,,,,,,3,,,,,,,,high,29,0,29,0,1,,,,,,,,,
295183,2022-11-23_17h45.45.155,vts_reward_expectancy_bt,2022.2.4,MacIntel,30.3030303,Safari,1728,1117,,,,,1,1041,,,,,,,,,,,,,,,,,174,S,triangle,1,0,,,,,,,,,,,,,,,,repeat,number,numRpt,f,0.493,Lo,,,,,,3,,,,,,,,high,30,0,30,0,1,,,,,,,,,
295183,2022-11-23_17h45.45.155,vts_reward_expectancy_bt,2022.2.4,MacIntel,30.3030303,Safari,1728,1117,,,,,0,1041,,,,,,,,,,,,,,,,,160,D,circle,0,0,,,,,,,,,,,,,,,,repeat,number,NA,d,0.497,Lo,,,,,,3,,,,,,,,high,31,0,31,0,1,,,,,,,,,
295183,2022-11-23_17h45.45.155,vts_reward_expectancy_bt,2022.2.4,MacIntel,30.3030303,Safari,1728,1117,,,,,1,1042,,,,,,,,,,,,,,,,,132,S,star,1,1,,,,,,,,,,,,,,,,repeat,number,numRpt,d,0.312,Hi,,,,,,4,,,,,,space,3.398,high,0,0,0,0,1,,,,,,,,,
295183,2022-11-23_17h45.45.155,vts_reward_expectancy_bt,2022.2.4,MacIntel,30.3030303,Safari,1728,1117,,,,,10,1052,,,,,,,,,,,,,,,,,160,B,hexagon,1,0,,,,,,,,,,,,,,,,switch,letter,lettSwt,j,0.36,Hi,,,,,,4,,,,,,,,high,1,0,1,0,1,,,,,,,,,
295183,2022-11-23_17h45.45.155,vts_reward_expectancy_bt,2022.2.4,MacIntel,30.3030303,Safari,1728,1117,,,,,1,1053,,,,,,,,,,,,,,,,,167,Y,triangle,1,0,,,,,,,,,,,,,,,,repeat,letter,lettRpt,k,0.44,Lo,,,,,,4,,,,,,,,high,2,0,2,0,1,,,,,,,,,
295183,2022-11-23_17h45.45.155,vts_reward_expectancy_bt,2022.2.4,MacIntel,30.3030303,Safari,1728,1117,,,,,1,1054,,,,,,,,,,,,,,,,,146,U,circle,1,0,,,,,,,,,,,,,,,,repeat,letter,lettRpt,k,0.544,Lo,,,,,,4,,,,,,,,high,3,0,3,0,1,,,,,,,,,
295183,2022-11-23_17h45.45.155,vts_reward_expectancy_bt,2022.2.4,MacIntel,30.3030303,Safari,1728,1117,,,,,0,1054,,,,,,,,,,,,,,,,,125,F,star,1,0,,,,,,,,,,,,,,,,repeat,letter,lettRpt,j,0.363,Hi,,,,,,4,,,,,,,,high,4,0,4,0,1,,,,,,,,,
295183,2022-11-23_17h45.45.155,vts_reward_expectancy_bt,2022.2.4,MacIntel,30.3030303,Safari,1728,1117,,,,,0,1054,,,,,,,,,,,,,,,,,174,W,hexagon,0,0,,,,,,,,,,,,,,,,switch,number,NA,d,0.361,Hi,,,,,,4,,,,,,,,high,5,0,5,0,1,,,,,,,,,
295183,2022-11-23_17h45.45.155,vts_reward_expectancy_bt,2022.2.4,MacIntel,30.3030303,Safari,1728,1117,,,,,1,1055,,,,,,,,,,,,,,,,,139,D,triangle,1,1,,,,,,,,,,,,,,,,repeat,number,numRpt,d,0.32,Lo,,,,,,4,,,,,,,,high,6,0,6,0,1,,,,,,,,,
295183,2022-11-23_17h45.45.155,vts_reward_expectancy_bt,2022.2.4,MacIntel,30.3030303,Safari,1728,1117,,,,,1,1056,,,,,,,,,,,,,,,,,181,H,circle,1,0,,,,,,,,,,,,,,,,repeat,number,numRpt,f,0.328,Lo,,,,,,4,,,,,,,,high,7,0,7,0,1,,,,,,,,,
295183,2022-11-23_17h45.45.155,vts_reward_expectancy_bt,2022.2.4,MacIntel,30.3030303,Safari,1728,1117,,,,,10,1066,,,,,,,,,,,,,,,,,132,S,hexagon,1,0,,,,,,,,,,,,,,,,repeat,number,numRpt,d,0.302,Hi,,,,,,4,,,,,,,,high,8,0,8,0,1,,,,,,,,,
295183,2022-11-23_17h45.45.155,vts_reward_expectancy_bt,2022.2.4,MacIntel,30.3030303,Safari,1728,1117,,,,,10,1076,,,,,,,,,,,,,,,,,160,B,star,1,0,,,,,,,,,,,,,,,,switch,letter,lettSwt,j,0.234,Hi,,,,,,4,,,,,,,,high,9,0,9,0,1,,,,,,,,,
295183,2022-11-23_17h45.45.155,vts_reward_expectancy_bt,2022.2.4,MacIntel,30.3030303,Safari,1728,1117,,,,,1,1077,,,,,,,,,,,,,,,,,167,Y,circle,1,0,,,,,,,,,,,,,,,,repeat,letter,lettRpt,k,0.301,Lo,,,,,,4,,,,,,,,high,10,0,10,0,1,,,,,,,,,
295183,2022-11-23_17h45.45.155,vts_reward_expectancy_bt,2022.2.4,MacIntel,30.3030303,Safari,1728,1117,,,,,0,1077,,,,,,,,,,,,,,,,,146,U,triangle,0,0,,,,,,,,,,,,,,,,switch,number,NA,f,0.432,Lo,,,,,,4,,,,,,,,high,11,0,11,0,1,,,,,,,,,
295183,2022-11-23_17h45.45.155,vts_reward_expectancy_bt,2022.2.4,MacIntel,30.3030303,Safari,1728,1117,,,,,0,1077,,,,,,,,,,,,,,,,,125,F,hexagon,0,1,,,,,,,,,,,,,,,,switch,letter,NA,k,0.482,Lo,,,,,,4,,,,,,,,high,12,0,12,0,1,,,,,,,,,
295183,2022-11-23_17h45.45.155,vts_reward_expectancy_bt,2022.2.4,MacIntel,30.3030303,Safari,1728,1117,,,,,1,1078,,,,,,,,,,,,,,,,,174,W,triangle,1,1,,,,,,,,,,,,,,,,repeat,letter,lettRpt,k,0.392,Lo,,,,,,4,,,,,,,,high,13,0,13,0,1,,,,,,,,,
295183,2022-11-23_17h45.45.155,vts_reward_expectancy_bt,2022.2.4,MacIntel,30.3030303,Safari,1728,1117,,,,,10,1088,,,,,,,,,,,,,,,,,139,D,star,1,0,,,,,,,,,,,,,,,,repeat,letter,lettRpt,j,0.3,Hi,,,,,,4,,,,,,,,high,14,0,14,0,1,,,,,,,,,
295183,2022-11-23_17h45.45.155,vts_reward_expectancy_bt,2022.2.4,MacIntel,30.3030303,Safari,1728,1117,,,,,1,1089,,,,,,,,,,,,,,,,,181,H,circle,1,0,,,,,,,,,,,,,,,,switch,number,numSwt,f,0.427,Lo,,,,,,4,,,,,,,,high,15,0,15,0,1,,,,,,,,,
295183,2022-11-23_17h45.45.155,vts_reward_expectancy_bt,2022.2.4,MacIntel,30.3030303,Safari,1728,1117,,,,,1,1090,,,,,,,,,,,,,,,,,174,D,triangle,1,0,,,,,,,,,,,,,,,,repeat,number,numRpt,f,0.362,Lo,,,,,,4,,,,,,,,high,16,0,16,0,1,,,,,,,,,
295183,2022-11-23_17h45.45.155,vts_reward_expectancy_bt,2022.2.4,MacIntel,30.3030303,Safari,1728,1117,,,,,10,1100,,,,,,,,,,,,,,,,,139,U,star,1,0,,,,,,,,,,,,,,,,repeat,number,numRpt,d,0.345,Hi,,,,,,4,,,,,,,,high,17,0,17,0,1,,,,,,,,,
295183,2022-11-23_17h45.45.155,vts_reward_expectancy_bt,2022.2.4,MacIntel,30.3030303,Safari,1728,1117,,,,,0,1100,,,,,,,,,,,,,,,,,125,F,circle,0,0,,,,,,,,,,,,,,,,switch,letter,NA,k,0.371,Hi,,,,,,4,,,,,,,,high,18,0,18,0,1,,,,,,,,,
295183,2022-11-23_17h45.45.155,vts_reward_expectancy_bt,2022.2.4,MacIntel,30.3030303,Safari,1728,1117,,,,,0,1100,,,,,,,,,,,,,,,,,181,B,hexagon,1,1,,,,,,,,,,,,,,,,repeat,letter,lettRpt,j,0.385,Hi,,,,,,4,,,,,,,,high,19,0,19,0,1,,,,,,,,,
295183,2022-11-23_17h45.45.155,vts_reward_expectancy_bt,2022.2.4,MacIntel,30.3030303,Safari,1728,1117,,,,,0,1100,,,,,,,,,,,,,,,,,167,Y,star,0,0,,,,,,,,,,,,,,,,switch,number,NA,d,0.226,Hi,,,,,,4,,,,,,,,high,20,0,20,0,1,,,,,,,,,
295183,2022-11-23_17h45.45.155,vts_reward_expectancy_bt,2022.2.4,MacIntel,30.3030303,Safari,1728,1117,,,,,1,1101,,,,,,,,,,,,,,,,,146,S,triangle,1,1,,,,,,,,,,,,,,,,switch,letter,lettSwt,k,0.622,Lo,,,,,,4,,,,,,,,high,21,0,21,0,1,,,,,,,,,
295183,2022-11-23_17h45.45.155,vts_reward_expectancy_bt,2022.2.4,MacIntel,30.3030303,Safari,1728,1117,,,,,0,1101,,,,,,,,,,,,,,,,,132,H,hexagon,1,0,,,,,,,,,,,,,,,,repeat,letter,lettRpt,j,0.438,Hi,,,,,,4,,,,,,,,high,22,0,22,0,1,,,,,,,,,
295183,2022-11-23_17h45.45.155,vts_reward_expectancy_bt,2022.2.4,MacIntel,30.3030303,Safari,1728,1117,,,,,0,1101,,,,,,,,,,,,,,,,,160,W,circle,0,0,,,,,,,,,,,,,,,,repeat,letter,NA,j,0.509,Hi,,,,,,4,,,,,,,,high,23,0,23,0,1,,,,,,,,,
295183,2022-11-23_17h45.45.155,vts_reward_expectancy_bt,2022.2.4,MacIntel,30.3030303,Safari,1728,1117,,,,,1,1102,,,,,,,,,,,,,,,,,125,D,triangle,1,1,,,,,,,,,,,,,,,,repeat,letter,lettRpt,j,0.445,Lo,,,,,,4,,,,,,,,high,24,0,24,0,1,,,,,,,,,
295183,2022-11-23_17h45.45.155,vts_reward_expectancy_bt,2022.2.4,MacIntel,30.3030303,Safari,1728,1117,,,,,0,1102,,,,,,,,,,,,,,,,,167,Y,circle,0,0,,,,,,,,,,,,,,,,switch,number,NA,d,0.353,Lo,,,,,,4,,,,,,,,high,25,0,25,0,1,,,,,,,,,
295183,2022-11-23_17h45.45.155,vts_reward_expectancy_bt,2022.2.4,MacIntel,30.3030303,Safari,1728,1117,,,,,10,1112,,,,,,,,,,,,,,,,,181,B,star,1,1,,,,,,,,,,,,,,,,repeat,number,numRpt,f,0.326,Hi,,,,,,4,,,,,,,,high,26,0,26,0,1,,,,,,,,,
295183,2022-11-23_17h45.45.155,vts_reward_expectancy_bt,2022.2.4,MacIntel,30.3030303,Safari,1728,1117,,,,,1,1113,,,,,,,,,,,,,,,,,174,H,hexagon,1,0,,,,,,,,,,,,,,,,repeat,number,numRpt,f,0.299,Hi,,,,,,4,,,,,,,,high,27,0,27,0,1,,,,,,,,,
295183,2022-11-23_17h45.45.155,vts_reward_expectancy_bt,2022.2.4,MacIntel,30.3030303,Safari,1728,1117,,,,,1,1114,,,,,,,,,,,,,,,,,146,U,circle,1,0,,,,,,,,,,,,,,,,repeat,number,numRpt,d,0.426,Lo,,,,,,4,,,,,,,,high,28,0,28,0,1,,,,,,,,,
295183,2022-11-23_17h45.45.155,vts_reward_expectancy_bt,2022.2.4,MacIntel,30.3030303,Safari,1728,1117,,,,,0,1114,,,,,,,,,,,,,,,,,160,W,hexagon,1,0,,,,,,,,,,,,,,,,repeat,number,numRpt,f,0.521,Hi,,,,,,4,,,,,,,,high,29,0,29,0,1,,,,,,,,,
295183,2022-11-23_17h45.45.155,vts_reward_expectancy_bt,2022.2.4,MacIntel,30.3030303,Safari,1728,1117,,,,,1,1115,,,,,,,,,,,,,,,,,132,F,triangle,1,0,,,,,,,,,,,,,,,,switch,letter,lettSwt,j,0.284,Lo,,,,,,4,,,,,,,,high,30,0,30,0,1,,,,,,,,,
295183,2022-11-23_17h45.45.155,vts_reward_expectancy_bt,2022.2.4,MacIntel,30.3030303,Safari,1728,1117,,,,,10,1125,,,,,,,,,,,,,,,,,139,S,star,1,0,,,,,,,,,,,,,,,,repeat,letter,lettRpt,k,0.265,Hi,,,,,,4,,,,,,,,high,31,0,31,0,1,,,,,,,,,
295183,2022-11-23_17h45.45.155,vts_reward_expectancy_bt,2022.2.4,MacIntel,30.3030303,Safari,1728,1117,,,,,0,1125,,,,,,,,,,,,,,,,,146,H,star,1,0,,,,,,,,,,,,,,,,repeat,letter,lettRpt,j,0.453,Hi,,,,,,5,,,,,,space,1.053,high,0,0,0,0,1,,,,,,,,,
295183,2022-11-23_17h45.45.155,vts_reward_expectancy_bt,2022.2.4,MacIntel,30.3030303,Safari,1728,1117,,,,,0,1125,,,,,,,,,,,,,,,,,125,F,hexagon,0,0,,,,,,,,,,,,,,,,repeat,letter,NA,k,0.328,Hi,,,,,,5,,,,,,,,high,1,0,1,0,1,,,,,,,,,
295183,2022-11-23_17h45.45.155,vts_reward_expectancy_bt,2022.2.4,MacIntel,30.3030303,Safari,1728,1117,,,,,1,1126,,,,,,,,,,,,,,,,,160,U,triangle,1,1,,,,,,,,,,,,,,,,repeat,letter,lettRpt,k,0.383,Lo,,,,,,5,,,,,,,,high,2,0,2,0,1,,,,,,,,,
295183,2022-11-23_17h45.45.155,vts_reward_expectancy_bt,2022.2.4,MacIntel,30.3030303,Safari,1728,1117,,,,,0,1126,,,,,,,,,,,,,,,,,167,S,circle,0,0,,,,,,,,,,,,,,,,repeat,letter,NA,j,0.337,Lo,,,,,,5,,,,,,,,high,3,0,3,0,1,,,,,,,,,
295183,2022-11-23_17h45.45.155,vts_reward_expectancy_bt,2022.2.4,MacIntel,30.3030303,Safari,1728,1117,,,,,0,1126,,,,,,,,,,,,,,,,,139,W,star,1,1,,,,,,,,,,,,,,,,repeat,letter,lettRpt,k,0.396,Hi,,,,,,5,,,,,,,,high,4,0,4,0,1,,,,,,,,,
295183,2022-11-23_17h45.45.155,vts_reward_expectancy_bt,2022.2.4,MacIntel,30.3030303,Safari,1728,1117,,,,,0,1126,,,,,,,,,,,,,,,,,174,B,hexagon,1,0,,,,,,,,,,,,,,,,switch,number,numSwt,f,0.43,Hi,,,,,,5,,,,,,,,high,5,0,5,0,1,,,,,,,,,
295183,2022-11-23_17h45.45.155,vts_reward_expectancy_bt,2022.2.4,MacIntel,30.3030303,Safari,1728,1117,,,,,1,1127,,,,,,,,,,,,,,,,,132,D,triangle,1,0,,,,,,,,,,,,,,,,repeat,number,numRpt,d,0.385,Lo,,,,,,5,,,,,,,,high,6,0,6,0,1,,,,,,,,,
295183,2022-11-23_17h45.45.155,vts_reward_expectancy_bt,2022.2.4,MacIntel,30.3030303,Safari,1728,1117,,,,,1,1128,,,,,,,,,,,,,,,,,181,Y,circle,1,0,,,,,,,,,,,,,,,,repeat,number,numRpt,f,0.4,Lo,,,,,,5,,,,,,,,high,7,0,7,0,1,,,,,,,,,
295183,2022-11-23_17h45.45.155,vts_reward_expectancy_bt,2022.2.4,MacIntel,30.3030303,Safari,1728,1117,,,,,1,1129,,,,,,,,,,,,,,,,,146,H,star,1,0,,,,,,,,,,,,,,,,repeat,number,numRpt,d,0.292,Hi,,,,,,5,,,,,,,,high,8,0,8,0,1,,,,,,,,,
295183,2022-11-23_17h45.45.155,vts_reward_expectancy_bt,2022.2.4,MacIntel,30.3030303,Safari,1728,1117,,,,,0,1129,,,,,,,,,,,,,,,,,125,F,hexagon,1,0,,,,,,,,,,,,,,,,repeat,number,numRpt,d,0.416,Hi,,,,,,5,,,,,,,,high,9,0,9,0,1,,,,,,,,,
295183,2022-11-23_17h45.45.155,vts_reward_expectancy_bt,2022.2.4,MacIntel,30.3030303,Safari,1728,1117,,,,,1,1130,,,,,,,,,,,,,,,,,160,U,circle,1,0,,,,,,,,,,,,,,,,switch,letter,lettSwt,k,0.431,Lo,,,,,,5,,,,,,,,high,10,0,10,0,1,,,,,,,,,
295183,2022-11-23_17h45.45.155,vts_reward_expectancy_bt,2022.2.4,MacIntel,30.3030303,Safari,1728,1117,,,,,1,1131,,,,,,,,,,,,,,,,,167,S,triangle,1,0,,,,,,,,,,,,,,,,repeat,letter,lettRpt,k,0.344,Lo,,,,,,5,,,,,,,,high,11,0,11,0,1,,,,,,,,,
295183,2022-11-23_17h45.45.155,vts_reward_expectancy_bt,2022.2.4,MacIntel,30.3030303,Safari,1728,1117,,,,,1,1132,,,,,,,,,,,,,,,,,139,W,triangle,1,0,,,,,,,,,,,,,,,,repeat,letter,lettRpt,k,0.319,Lo,,,,,,5,,,,,,,,high,12,0,12,0,1,,,,,,,,,
295183,2022-11-23_17h45.45.155,vts_reward_expectancy_bt,2022.2.4,MacIntel,30.3030303,Safari,1728,1117,,,,,10,1142,,,,,,,,,,,,,,,,,174,B,star,1,0,,,,,,,,,,,,,,,,repeat,letter,lettRpt,j,0.351,Hi,,,,,,5,,,,,,,,high,13,0,13,0,1,,,,,,,,,
295183,2022-11-23_17h45.45.155,vts_reward_expectancy_bt,2022.2.4,MacIntel,30.3030303,Safari,1728,1117,,,,,10,1152,,,,,,,,,,,,,,,,,132,D,hexagon,1,0,,,,,,,,,,,,,,,,repeat,letter,lettRpt,j,0.301,Hi,,,,,,5,,,,,,,,high,14,0,14,0,1,,,,,,,,,
295183,2022-11-23_17h45.45.155,vts_reward_expectancy_bt,2022.2.4,MacIntel,30.3030303,Safari,1728,1117,,,,,1,1153,,,,,,,,,,,,,,,,,181,Y,circle,1,0,,,,,,,,,,,,,,,,switch,number,numSwt,f,0.373,Lo,,,,,,5,,,,,,,,high,15,0,15,0,1,,,,,,,,,
295183,2022-11-23_17h45.45.155,vts_reward_expectancy_bt,2022.2.4,MacIntel,30.3030303,Safari,1728,1117,,,,,10,1163,,,,,,,,,,,,,,,,,181,S,triangle,1,0,,,,,,,,,,,,,,,,repeat,number,numRpt,f,0.377,Lo,,,,,,5,,,,,,,,high,16,0,16,0,1,,,,,,,,,
295183,2022-11-23_17h45.45.155,vts_reward_expectancy_bt,2022.2.4,MacIntel,30.3030303,Safari,1728,1117,,,,,0,1163,,,,,,,,,,,,,,,,,146,B,hexagon,1,0,,,,,,,,,,,,,,,,switch,letter,lettSwt,j,0.321,Hi,,,,,,5,,,,,,,,high,17,0,17,0,1,,,,,,,,,
295183,2022-11-23_17h45.45.155,vts_reward_expectancy_bt,2022.2.4,MacIntel,30.3030303,Safari,1728,1117,,,,,0,1163,,,,,,,,,,,,,,,,,139,D,star,0,0,,,,,,,,,,,,,,,,repeat,letter,NA,k,0.296,Hi,,,,,,5,,,,,,,,high,18,0,18,0,1,,,,,,,,,
295183,2022-11-23_17h45.45.155,vts_reward_expectancy_bt,2022.2.4,MacIntel,30.3030303,Safari,1728,1117,,,,,1,1164,,,,,,,,,,,,,,,,,174,Y,circle,1,1,,,,,,,,,,,,,,,,repeat,letter,lettRpt,k,0.444,Lo,,,,,,5,,,,,,,,high,19,0,19,0,1,,,,,,,,,
295183,2022-11-23_17h45.45.155,vts_reward_expectancy_bt,2022.2.4,MacIntel,30.3030303,Safari,1728,1117,,,,,10,1174,,,,,,,,,,,,,,,,,125,W,hexagon,1,0,,,,,,,,,,,,,,,,switch,number,numSwt,d,0.361,Hi,,,,,,5,,,,,,,,high,20,0,20,0,1,,,,,,,,,
295183,2022-11-23_17h45.45.155,vts_reward_expectancy_bt,2022.2.4,MacIntel,30.3030303,Safari,1728,1117,,,,,0,1174,,,,,,,,,,,,,,,,,160,U,star,0,0,,,,,,,,,,,,,,,,repeat,number,NA,d,0.377,Hi,,,,,,5,,,,,,,,high,21,0,21,0,1,,,,,,,,,
295183,2022-11-23_17h45.45.155,vts_reward_expectancy_bt,2022.2.4,MacIntel,30.3030303,Safari,1728,1117,,,,,10,1184,,,,,,,,,,,,,,,,,167,F,circle,1,1,,,,,,,,,,,,,,,,switch,letter,lettSwt,j,0.319,Lo,,,,,,5,,,,,,,,high,22,0,22,0,1,,,,,,,,,
295183,2022-11-23_17h45.45.155,vts_reward_expectancy_bt,2022.2.4,MacIntel,30.3030303,Safari,1728,1117,,,,,1,1185,,,,,,,,,,,,,,,,,132,H,triangle,1,0,,,,,,,,,,,,,,,,repeat,letter,lettRpt,j,0.411,Lo,,,,,,5,,,,,,,,high,23,0,23,0,1,,,,,,,,,
295183,2022-11-23_17h45.45.155,vts_reward_expectancy_bt,2022.2.4,MacIntel,30.3030303,Safari,1728,1117,,,,,10,1195,,,,,,,,,,,,,,,,,167,B,star,1,0,,,,,,,,,,,,,,,,repeat,letter,lettRpt,j,0.311,Hi,,,,,,5,,,,,,,,high,24,0,24,0,1,,,,,,,,,
295183,2022-11-23_17h45.45.155,vts_reward_expectancy_bt,2022.2.4,MacIntel,30.3030303,Safari,1728,1117,,,,,0,1195,,,,,,,,,,,,,,,,,174,W,circle,0,0,,,,,,,,,,,,,,,,repeat,letter,NA,j,0.247,Hi,,,,,,5,,,,,,,,high,25,0,25,0,1,,,,,,,,,
295183,2022-11-23_17h45.45.155,vts_reward_expectancy_bt,2022.2.4,MacIntel,30.3030303,Safari,1728,1117,,,,,0,1195,,,,,,,,,,,,,,,,,160,S,triangle,0,1,,,,,,,,,,,,,,,,switch,number,NA,d,0.325,Hi,,,,,,5,,,,,,,,high,26,0,26,0,1,,,,,,,,,
295183,2022-11-23_17h45.45.155,vts_reward_expectancy_bt,2022.2.4,MacIntel,30.3030303,Safari,1728,1117,,,,,0,1195,,,,,,,,,,,,,,,,,125,Y,hexagon,1,1,,,,,,,,,,,,,,,,switch,letter,lettSwt,k,0.468,Hi,,,,,,5,,,,,,,,high,27,0,27,0,1,,,,,,,,,
295183,2022-11-23_17h45.45.155,vts_reward_expectancy_bt,2022.2.4,MacIntel,30.3030303,Safari,1728,1117,,,,,0,1195,,,,,,,,,,,,,,,,,146,D,triangle,0,0,,,,,,,,,,,,,,,,switch,number,NA,f,0.282,Hi,,,,,,5,,,,,,,,high,28,0,28,0,1,,,,,,,,,
295183,2022-11-23_17h45.45.155,vts_reward_expectancy_bt,2022.2.4,MacIntel,30.3030303,Safari,1728,1117,,,,,0,1195,,,,,,,,,,,,,,,,,139,H,hexagon,1,1,,,,,,,,,,,,,,,,repeat,number,numRpt,d,0.32,Hi,,,,,,5,,,,,,,,high,29,0,29,0,1,,,,,,,,,
295183,2022-11-23_17h45.45.155,vts_reward_expectancy_bt,2022.2.4,MacIntel,30.3030303,Safari,1728,1117,,,,,0,1195,,,,,,,,,,,,,,,,,132,F,star,1,0,,,,,,,,,,,,,,,,repeat,number,numRpt,d,0.331,Hi,,,,,,5,,,,,,,,high,30,0,30,0,1,,,,,,,,,
295183,2022-11-23_17h45.45.155,vts_reward_expectancy_bt,2022.2.4,MacIntel,30.3030303,Safari,1728,1117,,,,,1,1196,,,,,,,,,,,,,,,,,181,U,circle,1,0,,,,,,,,,,,,,,,,switch,letter,lettSwt,k,0.437,Lo,,,,,,5,,,,,,,,high,31,0,31,0,1,,,,,,,,,
295183,2022-11-23_17h45.45.155,vts_reward_expectancy_bt,2022.2.4,MacIntel,30.3030303,Safari,1728,1117,,,,,1,1197,,,,,,,,,,,,,,,,,167,H,triangle,1,0,,,,,,,,,,,,,,,,switch,number,numSwt,f,0.6,Lo,,,,,,6,,,,,,space,0.771,high,0,0,0,0,1,,,,,,,,,
295183,2022-11-23_17h45.45.155,vts_reward_expectancy_bt,2022.2.4,MacIntel,30.3030303,Safari,1728,1117,,,,,0,1197,,,,,,,,,,,,,,,,,160,S,star,1,0,,,,,,,,,,,,,,,,repeat,number,numRpt,f,0.378,Hi,,,,,,6,,,,,,,,high,1,0,1,0,1,,,,,,,,,
295183,2022-11-23_17h45.45.155,vts_reward_expectancy_bt,2022.2.4,MacIntel,30.3030303,Safari,1728,1117,,,,,0,1197,,,,,,,,,,,,,,,,,174,F,circle,0,0,,,,,,,,,,,,,,,,repeat,number,NA,d,0.349,Hi,,,,,,6,,,,,,,,high,2,0,2,0,1,,,,,,,,,
295183,2022-11-23_17h45.45.155,vts_reward_expectancy_bt,2022.2.4,MacIntel,30.3030303,Safari,1728,1117,,,,,0,1197,,,,,,,,,,,,,,,,,139,W,hexagon,0,1,,,,,,,,,,,,,,,,switch,letter,NA,j,0.338,Hi,,,,,,6,,,,,,,,high,3,0,3,0,1,,,,,,,,,
295183,2022-11-23_17h45.45.155,vts_reward_expectancy_bt,2022.2.4,MacIntel,30.3030303,Safari,1728,1117,,,,,0,1197,,,,,,,,,,,,,,,,,125,D,triangle,0,1,,,,,,,,,,,,,,,,repeat,letter,NA,k,0.407,Hi,,,,,,6,,,,,,,,high,4,0,4,0,1,,,,,,,,,
295183,2022-11-23_17h45.45.155,vts_reward_expectancy_bt,2022.2.4,MacIntel,30.3030303,Safari,1728,1117,,,,,0,1197,,,,,,,,,,,,,,,,,132,Y,star,0,1,,,,,,,,,,,,,,,,repeat,letter,NA,j,0.37,Hi,,,,,,6,,,,,,,,high,5,0,5,0,1,,,,,,,,,
295183,2022-11-23_17h45.45.155,vts_reward_expectancy_bt,2022.2.4,MacIntel,30.3030303,Safari,1728,1117,,,,,10,1207,,,,,,,,,,,,,,,,,146,B,circle,1,1,,,,,,,,,,,,,,,,repeat,letter,lettRpt,j,0.43,Lo,,,,,,6,,,,,,,,high,6,0,6,0,1,,,,,,,,,
295183,2022-11-23_17h45.45.155,vts_reward_expectancy_bt,2022.2.4,MacIntel,30.3030303,Safari,1728,1117,,,,,0,1207,,,,,,,,,,,,,,,,,181,U,hexagon,1,0,,,,,,,,,,,,,,,,repeat,letter,lettRpt,k,0.442,Hi,,,,,,6,,,,,,,,high,7,0,7,0,1,,,,,,,,,
295183,2022-11-23_17h45.45.155,vts_reward_expectancy_bt,2022.2.4,MacIntel,30.3030303,Safari,1728,1117,,,,,1,1208,,,,,,,,,,,,,,,,,167,H,circle,1,0,,,,,,,,,,,,,,,,repeat,letter,lettRpt,j,0.435,Lo,,,,,,6,,,,,,,,high,8,0,8,0,1,,,,,,,,,
295183,2022-11-23_17h45.45.155,vts_reward_expectancy_bt,2022.2.4,MacIntel,30.3030303,Safari,1728,1117,,,,,0,1208,,,,,,,,,,,,,,,,,160,S,hexagon,1,0,,,,,,,,,,,,,,,,repeat,letter,lettRpt,k,0.55,Hi,,,,,,6,,,,,,,,high,9,0,9,0,1,,,,,,,,,
295183,2022-11-23_17h45.45.155,vts_reward_expectancy_bt,2022.2.4,MacIntel,30.3030303,Safari,1728,1117,,,,,0,1208,,,,,,,,,,,,,,,,,174,F,star,1,0,,,,,,,,,,,,,,,,switch,number,numSwt,f,0.381,Hi,,,,,,6,,,,,,,,high,10,0,10,0,1,,,,,,,,,
295183,2022-11-23_17h45.45.155,vts_reward_expectancy_bt,2022.2.4,MacIntel,30.3030303,Safari,1728,1117,,,,,1,1209,,,,,,,,,,,,,,,,,139,W,triangle,1,0,,,,,,,,,,,,,,,,switch,letter,lettSwt,k,0.469,Lo,,,,,,6,,,,,,,,high,11,0,11,0,1,,,,,,,,,
295183,2022-11-23_17h45.45.155,vts_reward_expectancy_bt,2022.2.4,MacIntel,30.3030303,Safari,1728,1117,,,,,0,1209,,,,,,,,,,,,,,,,,125,D,hexagon,1,0,,,,,,,,,,,,,,,,repeat,letter,lettRpt,j,0.429,Hi,,,,,,6,,,,,,,,high,12,0,12,0,1,,,,,,,,,
