participant,date,expName,psychopyVersion,OS,frameRate,browser,xResolution,yResolution,key_resp.keys,key_resp.rt,training_resp.keys,training_resp.rt,points_trial,points_cumul,trainBlock,training.thisRepN,training.thisTrialN,training.thisN,training.thisIndex,training.ran,LTriangleOpac,LCircleOpac,LHexagonOpac,LStarOpac,RTriangleOpac,RCircleOpac,RHexagonOpac,RStarOpac,LShape_ID,RShape_ID,curr_topStim,curr_bottStim,curr_shape,acc,E1,target_resp_prac1.keys,target_resp_prac1.rt,pracBlock,task1_prac_trials.thisRepN,task1_prac_trials.thisTrialN,task1_prac_trials.thisN,task1_prac_trials.thisIndex,task1_prac_trials.ran,target_resp_prac2.keys,target_resp_prac2.rt,task2_praac_trials.thisRepN,task2_praac_trials.thisTrialN,task2_praac_trials.thisN,task2_praac_trials.thisIndex,task2_praac_trials.ran,alt,task,condition,target_resp.keys,rewCond,vts_practice_trials.thisRepN,vts_practice_trials.thisTrialN,vts_practice_trials.thisN,vts_practice_trials.thisIndex,vts_practice_trials.ran,target_resp.rt,blockNum,trials_norew.thisRepN,trials_norew.thisTrialN,trials_norew.thisN,trials_norew.thisIndex,trials_norew.ran,key_resp_2.keys,key_resp_2.rt,rewExpectancy,trials_rew.thisRepN,trials_rew.thisTrialN,trials_rew.thisN,trials_rew.thisIndex,trials_rew.ran,Q1,Q2,Q2_text,Q3,Q4,Q5_text,Q5,xRes,yRes
295165,2022-12-05_23h27.58.175,vts_reward_expectancy_bt,2022.2.4,Win32,60.15399423,Chrome,1536,864,,,,,,,,,,,,,,,,,,,,,,,,,,,,,,,,,,,,,,,,,,,,,,,,,,,,,,,,,,,,,,,,,,,,,,,,,,,,
295165,2022-12-05_23h27.58.175,vts_reward_expectancy_bt,2022.2.4,Win32,60.15399423,Chrome,1536,864,space,4.4546,,,,,,,,,,,,,,,,,,,,,,,,,,,,,,,,,,,,,,,,,,,,,,,,,,,,,,,,,,,,,,,,,,,,,,,,,,
295165,2022-12-05_23h27.58.175,vts_reward_expectancy_bt,2022.2.4,Win32,60.15399423,Chrome,1536,864,,,,,,,,,,,,,,,,,,,,,,,,,,,,,,,,,,,,,,,,,,,,,,,,,,,,,,,,,,,,,,,,,,,,,,,,,,,,
295165,2022-12-05_23h27.58.175,vts_reward_expectancy_bt,2022.2.4,Win32,60.15399423,Chrome,1536,864,,,a,0.8435,10,10,0,0,0,0,11,1,0,0,0,1,0,0,1,0,star,hexagon,,,,,,,,,,,,,,,,,,,,,,,,,,,,,,,,,,,,,,,,,,,,,,,,,,,,,,
295165,2022-12-05_23h27.58.175,vts_reward_expectancy_bt,2022.2.4,Win32,60.15399423,Chrome,1536,864,,,a,0.3817,10,20,0,0,1,1,1,1,1,0,0,0,0,0,1,0,triangle,hexagon,,,,,,,,,,,,,,,,,,,,,,,,,,,,,,,,,,,,,,,,,,,,,,,,,,,,,,
295165,2022-12-05_23h27.58.175,vts_reward_expectancy_bt,2022.2.4,Win32,60.15399423,Chrome,1536,864,,,a,0.2656,1,21,0,0,2,2,6,1,0,0,1,0,1,0,0,0,hexagon,triangle,,,,,,,,,,,,,,,,,,,,,,,,,,,,,,,,,,,,,,,,,,,,,,,,,,,,,,
295165,2022-12-05_23h27.58.175,vts_reward_expectancy_bt,2022.2.4,Win32,60.15399423,Chrome,1536,864,,,a,0.4405,10,31,0,0,3,3,5,1,0,1,0,0,0,0,0,1,circle,star,,,,,,,,,,,,,,,,,,,,,,,,,,,,,,,,,,,,,,,,,,,,,,,,,,,,,,
295165,2022-12-05_23h27.58.175,vts_reward_expectancy_bt,2022.2.4,Win32,60.15399423,Chrome,1536,864,,,l,1.2251,1,32,0,0,4,4,2,1,1,0,0,0,0,0,0,1,triangle,star,,,,,,,,,,,,,,,,,,,,,,,,,,,,,,,,,,,,,,,,,,,,,,,,,,,,,,
295165,2022-12-05_23h27.58.175,vts_reward_expectancy_bt,2022.2.4,Win32,60.15399423,Chrome,1536,864,,,a,0.7435,1,33,0,0,5,5,8,1,0,0,1,0,0,0,0,1,hexagon,star,,,,,,,,,,,,,,,,,,,,,,,,,,,,,,,,,,,,,,,,,,,,,,,,,,,,,,
295165,2022-12-05_23h27.58.175,vts_reward_expectancy_bt,2022.2.4,Win32,60.15399423,Chrome,1536,864,,,l,1.3218,10,43,0,0,6,6,0,1,1,0,0,0,0,1,0,0,triangle,circle,,,,,,,,,,,,,,,,,,,,,,,,,,,,,,,,,,,,,,,,,,,,,,,,,,,,,,
295165,2022-12-05_23h27.58.175,vts_reward_expectancy_bt,2022.2.4,Win32,60.15399423,Chrome,1536,864,,,a,1.9939,10,53,0,0,7,7,3,1,0,1,0,0,1,0,0,0,circle,triangle,,,,,,,,,,,,,,,,,,,,,,,,,,,,,,,,,,,,,,,,,,,,,,,,,,,,,,
295165,2022-12-05_23h27.58.175,vts_reward_expectancy_bt,2022.2.4,Win32,60.15399423,Chrome,1536,864,,,a,2.1104,1,54,0,0,8,8,7,1,0,0,1,0,0,1,0,0,hexagon,circle,,,,,,,,,,,,,,,,,,,,,,,,,,,,,,,,,,,,,,,,,,,,,,,,,,,,,,
295165,2022-12-05_23h27.58.175,vts_reward_expectancy_bt,2022.2.4,Win32,60.15399423,Chrome,1536,864,,,l,6.9006,10,64,0,0,9,9,9,1,0,0,0,1,1,0,0,0,star,triangle,,,,,,,,,,,,,,,,,,,,,,,,,,,,,,,,,,,,,,,,,,,,,,,,,,,,,,
295165,2022-12-05_23h27.58.175,vts_reward_expectancy_bt,2022.2.4,Win32,60.15399423,Chrome,1536,864,,,a,6.735,10,74,0,0,10,10,4,1,0,1,0,0,0,0,1,0,circle,hexagon,,,,,,,,,,,,,,,,,,,,,,,,,,,,,,,,,,,,,,,,,,,,,,,,,,,,,,
295165,2022-12-05_23h27.58.175,vts_reward_expectancy_bt,2022.2.4,Win32,60.15399423,Chrome,1536,864,,,l,26.9595,10,84,0,0,11,11,10,1,0,0,0,1,0,1,0,0,star ,circle,,,,,,,,,,,,,,,,,,,,,,,,,,,,,,,,,,,,,,,,,,,,,,,,,,,,,,
295165,2022-12-05_23h27.58.175,vts_reward_expectancy_bt,2022.2.4,Win32,60.15399423,Chrome,1536,864,,,a,11.5973,1,85,0,1,0,12,2,1,1,0,0,0,0,0,0,1,triangle,star,,,,,,,,,,,,,,,,,,,,,,,,,,,,,,,,,,,,,,,,,,,,,,,,,,,,,,
295165,2022-12-05_23h27.58.175,vts_reward_expectancy_bt,2022.2.4,Win32,60.15399423,Chrome,1536,864,,,a,3.781,10,95,0,1,1,13,9,1,0,0,0,1,1,0,0,0,star,triangle,,,,,,,,,,,,,,,,,,,,,,,,,,,,,,,,,,,,,,,,,,,,,,,,,,,,,,
295165,2022-12-05_23h27.58.175,vts_reward_expectancy_bt,2022.2.4,Win32,60.15399423,Chrome,1536,864,,,a,25.0062,1,96,0,1,2,14,7,1,0,0,1,0,0,1,0,0,hexagon,circle,,,,,,,,,,,,,,,,,,,,,,,,,,,,,,,,,,,,,,,,,,,,,,,,,,,,,,
295165,2022-12-05_23h27.58.175,vts_reward_expectancy_bt,2022.2.4,Win32,60.15399423,Chrome,1536,864,,,a,16.3418,10,106,0,1,3,15,4,1,0,1,0,0,0,0,1,0,circle,hexagon,,,,,,,,,,,,,,,,,,,,,,,,,,,,,,,,,,,,,,,,,,,,,,,,,,,,,,
295165,2022-12-05_23h27.58.175,vts_reward_expectancy_bt,2022.2.4,Win32,60.15399423,Chrome,1536,864,,,a,10.7526,10,116,0,1,4,16,5,1,0,1,0,0,0,0,0,1,circle,star,,,,,,,,,,,,,,,,,,,,,,,,,,,,,,,,,,,,,,,,,,,,,,,,,,,,,,
295165,2022-12-05_23h27.58.175,vts_reward_expectancy_bt,2022.2.4,Win32,60.15399423,Chrome,1536,864,,,a,9.5604,10,126,0,1,5,17,3,1,0,1,0,0,1,0,0,0,circle,triangle,,,,,,,,,,,,,,,,,,,,,,,,,,,,,,,,,,,,,,,,,,,,,,,,,,,,,,
295165,2022-12-05_23h27.58.175,vts_reward_expectancy_bt,2022.2.4,Win32,60.15399423,Chrome,1536,864,,,l,8.0436,1,127,0,1,6,18,6,1,0,0,1,0,1,0,0,0,hexagon,triangle,,,,,,,,,,,,,,,,,,,,,,,,,,,,,,,,,,,,,,,,,,,,,,,,,,,,,,
295165,2022-12-05_23h27.58.175,vts_reward_expectancy_bt,2022.2.4,Win32,60.15399423,Chrome,1536,864,,,a,1.6749,1,128,0,1,7,19,8,1,0,0,1,0,0,0,0,1,hexagon,star,,,,,,,,,,,,,,,,,,,,,,,,,,,,,,,,,,,,,,,,,,,,,,,,,,,,,,
295165,2022-12-05_23h27.58.175,vts_reward_expectancy_bt,2022.2.4,Win32,60.15399423,Chrome,1536,864,,,a,2.8773,10,138,0,1,8,20,11,1,0,0,0,1,0,0,1,0,star,hexagon,,,,,,,,,,,,,,,,,,,,,,,,,,,,,,,,,,,,,,,,,,,,,,,,,,,,,,
295165,2022-12-05_23h27.58.175,vts_reward_expectancy_bt,2022.2.4,Win32,60.15399423,Chrome,1536,864,,,l,2.9209,1,139,0,1,9,21,1,1,1,0,0,0,0,0,1,0,triangle,hexagon,,,,,,,,,,,,,,,,,,,,,,,,,,,,,,,,,,,,,,,,,,,,,,,,,,,,,,
295165,2022-12-05_23h27.58.175,vts_reward_expectancy_bt,2022.2.4,Win32,60.15399423,Chrome,1536,864,,,a,0.9349,1,140,0,1,10,22,0,1,1,0,0,0,0,1,0,0,triangle,circle,,,,,,,,,,,,,,,,,,,,,,,,,,,,,,,,,,,,,,,,,,,,,,,,,,,,,,
295165,2022-12-05_23h27.58.175,vts_reward_expectancy_bt,2022.2.4,Win32,60.15399423,Chrome,1536,864,,,l,0.2691,10,150,0,1,11,23,10,1,0,0,0,1,0,1,0,0,star ,circle,,,,,,,,,,,,,,,,,,,,,,,,,,,,,,,,,,,,,,,,,,,,,,,,,,,,,,
295165,2022-12-05_23h27.58.175,vts_reward_expectancy_bt,2022.2.4,Win32,60.15399423,Chrome,1536,864,,,a,3.8799,1,151,0,2,0,24,7,1,0,0,1,0,0,1,0,0,hexagon,circle,,,,,,,,,,,,,,,,,,,,,,,,,,,,,,,,,,,,,,,,,,,,,,,,,,,,,,
295165,2022-12-05_23h27.58.175,vts_reward_expectancy_bt,2022.2.4,Win32,60.15399423,Chrome,1536,864,,,a,0.7809,1,152,0,2,1,25,6,1,0,0,1,0,1,0,0,0,hexagon,triangle,,,,,,,,,,,,,,,,,,,,,,,,,,,,,,,,,,,,,,,,,,,,,,,,,,,,,,
295165,2022-12-05_23h27.58.175,vts_reward_expectancy_bt,2022.2.4,Win32,60.15399423,Chrome,1536,864,,,a,5.4614,1,153,0,2,2,26,2,1,1,0,0,0,0,0,0,1,triangle,star,,,,,,,,,,,,,,,,,,,,,,,,,,,,,,,,,,,,,,,,,,,,,,,,,,,,,,
295165,2022-12-05_23h27.58.175,vts_reward_expectancy_bt,2022.2.4,Win32,60.15399423,Chrome,1536,864,,,l,6.5659,10,163,0,2,3,27,8,1,0,0,1,0,0,0,0,1,hexagon,star,,,,,,,,,,,,,,,,,,,,,,,,,,,,,,,,,,,,,,,,,,,,,,,,,,,,,,
295165,2022-12-05_23h27.58.175,vts_reward_expectancy_bt,2022.2.4,Win32,60.15399423,Chrome,1536,864,,,l,12.5626,10,173,0,2,4,28,9,1,0,0,0,1,1,0,0,0,star,triangle,,,,,,,,,,,,,,,,,,,,,,,,,,,,,,,,,,,,,,,,,,,,,,,,,,,,,,
295165,2022-12-05_23h27.58.175,vts_reward_expectancy_bt,2022.2.4,Win32,60.15399423,Chrome,1536,864,,,a,13.145,10,183,0,2,5,29,5,1,0,1,0,0,0,0,0,1,circle,star,,,,,,,,,,,,,,,,,,,,,,,,,,,,,,,,,,,,,,,,,,,,,,,,,,,,,,
295165,2022-12-05_23h27.58.175,vts_reward_expectancy_bt,2022.2.4,Win32,60.15399423,Chrome,1536,864,,,a,3.2098,10,193,0,2,6,30,11,1,0,0,0,1,0,0,1,0,star,hexagon,,,,,,,,,,,,,,,,,,,,,,,,,,,,,,,,,,,,,,,,,,,,,,,,,,,,,,
295165,2022-12-05_23h27.58.175,vts_reward_expectancy_bt,2022.2.4,Win32,60.15399423,Chrome,1536,864,,,a,10.7874,10,203,0,2,7,31,4,1,0,1,0,0,0,0,1,0,circle,hexagon,,,,,,,,,,,,,,,,,,,,,,,,,,,,,,,,,,,,,,,,,,,,,,,,,,,,,,
295165,2022-12-05_23h27.58.175,vts_reward_expectancy_bt,2022.2.4,Win32,60.15399423,Chrome,1536,864,,,l,1.829,1,204,0,2,8,32,3,1,0,1,0,0,1,0,0,0,circle,triangle,,,,,,,,,,,,,,,,,,,,,,,,,,,,,,,,,,,,,,,,,,,,,,,,,,,,,,
295165,2022-12-05_23h27.58.175,vts_reward_expectancy_bt,2022.2.4,Win32,60.15399423,Chrome,1536,864,,,a,0.5384,1,205,0,2,9,33,1,1,1,0,0,0,0,0,1,0,triangle,hexagon,,,,,,,,,,,,,,,,,,,,,,,,,,,,,,,,,,,,,,,,,,,,,,,,,,,,,,
295165,2022-12-05_23h27.58.175,vts_reward_expectancy_bt,2022.2.4,Win32,60.15399423,Chrome,1536,864,,,a,0.2973,1,206,0,2,10,34,10,1,0,0,0,1,0,1,0,0,star ,circle,,,,,,,,,,,,,,,,,,,,,,,,,,,,,,,,,,,,,,,,,,,,,,,,,,,,,,
295165,2022-12-05_23h27.58.175,vts_reward_expectancy_bt,2022.2.4,Win32,60.15399423,Chrome,1536,864,,,a,0.0723,1,207,0,2,11,35,0,1,1,0,0,0,0,1,0,0,triangle,circle,,,,,,,,,,,,,,,,,,,,,,,,,,,,,,,,,,,,,,,,,,,,,,,,,,,,,,
295165,2022-12-05_23h27.58.175,vts_reward_expectancy_bt,2022.2.4,Win32,60.15399423,Chrome,1536,864,,,a,0.9007,10,217,1,0,0,0,6,1,0,0,1,0,1,0,0,0,hexagon,triangle,,,,,,,,,,,,,,,,,,,,,,,,,,,,,,,,,,,,,,,,,,,,,,,,,,,,,,
295165,2022-12-05_23h27.58.175,vts_reward_expectancy_bt,2022.2.4,Win32,60.15399423,Chrome,1536,864,,,a,0.4031,10,227,1,0,1,1,11,1,0,0,0,1,0,0,1,0,star,hexagon,,,,,,,,,,,,,,,,,,,,,,,,,,,,,,,,,,,,,,,,,,,,,,,,,,,,,,
295165,2022-12-05_23h27.58.175,vts_reward_expectancy_bt,2022.2.4,Win32,60.15399423,Chrome,1536,864,,,l,0.1908,1,228,1,0,2,2,9,1,0,0,0,1,1,0,0,0,star,triangle,,,,,,,,,,,,,,,,,,,,,,,,,,,,,,,,,,,,,,,,,,,,,,,,,,,,,,
295165,2022-12-05_23h27.58.175,vts_reward_expectancy_bt,2022.2.4,Win32,60.15399423,Chrome,1536,864,,,a,0.3532,1,229,1,0,3,3,2,1,1,0,0,0,0,0,0,1,triangle,star,,,,,,,,,,,,,,,,,,,,,,,,,,,,,,,,,,,,,,,,,,,,,,,,,,,,,,
295165,2022-12-05_23h27.58.175,vts_reward_expectancy_bt,2022.2.4,Win32,60.15399423,Chrome,1536,864,,,a,0.2167,10,239,1,0,4,4,5,1,0,1,0,0,0,0,0,1,circle,star,,,,,,,,,,,,,,,,,,,,,,,,,,,,,,,,,,,,,,,,,,,,,,,,,,,,,,
295165,2022-12-05_23h27.58.175,vts_reward_expectancy_bt,2022.2.4,Win32,60.15399423,Chrome,1536,864,,,a,0.2583,1,240,1,0,5,5,0,1,1,0,0,0,0,1,0,0,triangle,circle,,,,,,,,,,,,,,,,,,,,,,,,,,,,,,,,,,,,,,,,,,,,,,,,,,,,,,
295165,2022-12-05_23h27.58.175,vts_reward_expectancy_bt,2022.2.4,Win32,60.15399423,Chrome,1536,864,,,a,0.4017,10,250,1,0,6,6,3,1,0,1,0,0,1,0,0,0,circle,triangle,,,,,,,,,,,,,,,,,,,,,,,,,,,,,,,,,,,,,,,,,,,,,,,,,,,,,,
295165,2022-12-05_23h27.58.175,vts_reward_expectancy_bt,2022.2.4,Win32,60.15399423,Chrome,1536,864,,,l,0.8467,10,260,1,0,7,7,7,1,0,0,1,0,0,1,0,0,hexagon,circle,,,,,,,,,,,,,,,,,,,,,,,,,,,,,,,,,,,,,,,,,,,,,,,,,,,,,,
295165,2022-12-05_23h27.58.175,vts_reward_expectancy_bt,2022.2.4,Win32,60.15399423,Chrome,1536,864,,,a,0.2728,10,270,1,0,8,8,10,1,0,0,0,1,0,1,0,0,star ,circle,,,,,,,,,,,,,,,,,,,,,,,,,,,,,,,,,,,,,,,,,,,,,,,,,,,,,,
295165,2022-12-05_23h27.58.175,vts_reward_expectancy_bt,2022.2.4,Win32,60.15399423,Chrome,1536,864,,,a,0.2388,1,271,1,0,9,9,1,1,1,0,0,0,0,0,1,0,triangle,hexagon,,,,,,,,,,,,,,,,,,,,,,,,,,,,,,,,,,,,,,,,,,,,,,,,,,,,,,
295165,2022-12-05_23h27.58.175,vts_reward_expectancy_bt,2022.2.4,Win32,60.15399423,Chrome,1536,864,,,l,0.5326,1,272,1,0,10,10,4,1,0,1,0,0,0,0,1,0,circle,hexagon,,,,,,,,,,,,,,,,,,,,,,,,,,,,,,,,,,,,,,,,,,,,,,,,,,,,,,
295165,2022-12-05_23h27.58.175,vts_reward_expectancy_bt,2022.2.4,Win32,60.15399423,Chrome,1536,864,,,a,0.2847,1,273,1,0,11,11,8,1,0,0,1,0,0,0,0,1,hexagon,star,,,,,,,,,,,,,,,,,,,,,,,,,,,,,,,,,,,,,,,,,,,,,,,,,,,,,,
295165,2022-12-05_23h27.58.175,vts_reward_expectancy_bt,2022.2.4,Win32,60.15399423,Chrome,1536,864,,,a,0.2524,10,283,1,1,0,12,11,1,0,0,0,1,0,0,1,0,star,hexagon,,,,,,,,,,,,,,,,,,,,,,,,,,,,,,,,,,,,,,,,,,,,,,,,,,,,,,
295165,2022-12-05_23h27.58.175,vts_reward_expectancy_bt,2022.2.4,Win32,60.15399423,Chrome,1536,864,,,a,0.4685,10,293,1,1,1,13,10,1,0,0,0,1,0,1,0,0,star ,circle,,,,,,,,,,,,,,,,,,,,,,,,,,,,,,,,,,,,,,,,,,,,,,,,,,,,,,
295165,2022-12-05_23h27.58.175,vts_reward_expectancy_bt,2022.2.4,Win32,60.15399423,Chrome,1536,864,,,a,0.5884,10,303,1,1,2,14,3,1,0,1,0,0,1,0,0,0,circle,triangle,,,,,,,,,,,,,,,,,,,,,,,,,,,,,,,,,,,,,,,,,,,,,,,,,,,,,,
295165,2022-12-05_23h27.58.175,vts_reward_expectancy_bt,2022.2.4,Win32,60.15399423,Chrome,1536,864,,,a,0.8692,10,313,1,1,3,15,9,1,0,0,0,1,1,0,0,0,star,triangle,,,,,,,,,,,,,,,,,,,,,,,,,,,,,,,,,,,,,,,,,,,,,,,,,,,,,,
295165,2022-12-05_23h27.58.175,vts_reward_expectancy_bt,2022.2.4,Win32,60.15399423,Chrome,1536,864,,,a,0.31,1,314,1,1,4,16,6,1,0,0,1,0,1,0,0,0,hexagon,triangle,,,,,,,,,,,,,,,,,,,,,,,,,,,,,,,,,,,,,,,,,,,,,,,,,,,,,,
295165,2022-12-05_23h27.58.175,vts_reward_expectancy_bt,2022.2.4,Win32,60.15399423,Chrome,1536,864,,,l,0.0632,10,324,1,1,5,17,0,1,1,0,0,0,0,1,0,0,triangle,circle,,,,,,,,,,,,,,,,,,,,,,,,,,,,,,,,,,,,,,,,,,,,,,,,,,,,,,
295165,2022-12-05_23h27.58.175,vts_reward_expectancy_bt,2022.2.4,Win32,60.15399423,Chrome,1536,864,,,a,0.5619,1,325,1,1,6,18,1,1,1,0,0,0,0,0,1,0,triangle,hexagon,,,,,,,,,,,,,,,,,,,,,,,,,,,,,,,,,,,,,,,,,,,,,,,,,,,,,,
295165,2022-12-05_23h27.58.175,vts_reward_expectancy_bt,2022.2.4,Win32,60.15399423,Chrome,1536,864,,,a,0.0637,1,326,1,1,7,19,2,1,1,0,0,0,0,0,0,1,triangle,star,,,,,,,,,,,,,,,,,,,,,,,,,,,,,,,,,,,,,,,,,,,,,,,,,,,,,,
295165,2022-12-05_23h27.58.175,vts_reward_expectancy_bt,2022.2.4,Win32,60.15399423,Chrome,1536,864,,,a,0.9471,1,327,1,1,8,20,7,1,0,0,1,0,0,1,0,0,hexagon,circle,,,,,,,,,,,,,,,,,,,,,,,,,,,,,,,,,,,,,,,,,,,,,,,,,,,,,,
295165,2022-12-05_23h27.58.175,vts_reward_expectancy_bt,2022.2.4,Win32,60.15399423,Chrome,1536,864,,,a,0.5209,10,337,1,1,9,21,5,1,0,1,0,0,0,0,0,1,circle,star,,,,,,,,,,,,,,,,,,,,,,,,,,,,,,,,,,,,,,,,,,,,,,,,,,,,,,
295165,2022-12-05_23h27.58.175,vts_reward_expectancy_bt,2022.2.4,Win32,60.15399423,Chrome,1536,864,,,a,0.7,10,347,1,1,10,22,8,1,0,0,1,0,0,0,0,1,hexagon,star,,,,,,,,,,,,,,,,,,,,,,,,,,,,,,,,,,,,,,,,,,,,,,,,,,,,,,
295165,2022-12-05_23h27.58.175,vts_reward_expectancy_bt,2022.2.4,Win32,60.15399423,Chrome,1536,864,,,a,0.6767,10,357,1,1,11,23,4,1,0,1,0,0,0,0,1,0,circle,hexagon,,,,,,,,,,,,,,,,,,,,,,,,,,,,,,,,,,,,,,,,,,,,,,,,,,,,,,
295165,2022-12-05_23h27.58.175,vts_reward_expectancy_bt,2022.2.4,Win32,60.15399423,Chrome,1536,864,,,a,0.4046,1,358,1,2,0,24,1,1,1,0,0,0,0,0,1,0,triangle,hexagon,,,,,,,,,,,,,,,,,,,,,,,,,,,,,,,,,,,,,,,,,,,,,,,,,,,,,,
295165,2022-12-05_23h27.58.175,vts_reward_expectancy_bt,2022.2.4,Win32,60.15399423,Chrome,1536,864,,,l,1.378,10,368,1,2,1,25,7,1,0,0,1,0,0,1,0,0,hexagon,circle,,,,,,,,,,,,,,,,,,,,,,,,,,,,,,,,,,,,,,,,,,,,,,,,,,,,,,
295165,2022-12-05_23h27.58.175,vts_reward_expectancy_bt,2022.2.4,Win32,60.15399423,Chrome,1536,864,,,a,0.5784,1,369,1,2,2,26,0,1,1,0,0,0,0,1,0,0,triangle,circle,,,,,,,,,,,,,,,,,,,,,,,,,,,,,,,,,,,,,,,,,,,,,,,,,,,,,,
295165,2022-12-05_23h27.58.175,vts_reward_expectancy_bt,2022.2.4,Win32,60.15399423,Chrome,1536,864,,,a,2.2972,10,379,1,2,3,27,4,1,0,1,0,0,0,0,1,0,circle,hexagon,,,,,,,,,,,,,,,,,,,,,,,,,,,,,,,,,,,,,,,,,,,,,,,,,,,,,,
295165,2022-12-05_23h27.58.175,vts_reward_expectancy_bt,2022.2.4,Win32,60.15399423,Chrome,1536,864,,,a,2.2926,10,389,1,2,4,28,10,1,0,0,0,1,0,1,0,0,star ,circle,,,,,,,,,,,,,,,,,,,,,,,,,,,,,,,,,,,,,,,,,,,,,,,,,,,,,,
295165,2022-12-05_23h27.58.175,vts_reward_expectancy_bt,2022.2.4,Win32,60.15399423,Chrome,1536,864,,,l,1.5577,10,399,1,2,5,29,5,1,0,1,0,0,0,0,0,1,circle,star,,,,,,,,,,,,,,,,,,,,,,,,,,,,,,,,,,,,,,,,,,,,,,,,,,,,,,
295165,2022-12-05_23h27.58.175,vts_reward_expectancy_bt,2022.2.4,Win32,60.15399423,Chrome,1536,864,,,a,7.2118,10,409,1,2,6,30,3,1,0,1,0,0,1,0,0,0,circle,triangle,,,,,,,,,,,,,,,,,,,,,,,,,,,,,,,,,,,,,,,,,,,,,,,,,,,,,,
295165,2022-12-05_23h27.58.175,vts_reward_expectancy_bt,2022.2.4,Win32,60.15399423,Chrome,1536,864,,,l,2.3883,1,410,1,2,7,31,8,1,0,0,1,0,0,0,0,1,hexagon,star,,,,,,,,,,,,,,,,,,,,,,,,,,,,,,,,,,,,,,,,,,,,,,,,,,,,,,
295165,2022-12-05_23h27.58.175,vts_reward_expectancy_bt,2022.2.4,Win32,60.15399423,Chrome,1536,864,,,a,7.7283,1,411,1,2,8,32,6,1,0,0,1,0,1,0,0,0,hexagon,triangle,,,,,,,,,,,,,,,,,,,,,,,,,,,,,,,,,,,,,,,,,,,,,,,,,,,,,,
295165,2022-12-05_23h27.58.175,vts_reward_expectancy_bt,2022.2.4,Win32,60.15399423,Chrome,1536,864,,,l,0.6199,10,421,1,2,9,33,2,1,1,0,0,0,0,0,0,1,triangle,star,,,,,,,,,,,,,,,,,,,,,,,,,,,,,,,,,,,,,,,,,,,,,,,,,,,,,,
295165,2022-12-05_23h27.58.175,vts_reward_expectancy_bt,2022.2.4,Win32,60.15399423,Chrome,1536,864,,,a,0.7821,1,422,1,2,10,34,9,1,0,0,0,1,1,0,0,0,star,triangle,,,,,,,,,,,,,,,,,,,,,,,,,,,,,,,,,,,,,,,,,,,,,,,,,,,,,,
295165,2022-12-05_23h27.58.175,vts_reward_expectancy_bt,2022.2.4,Win32,60.15399423,Chrome,1536,864,,,a,0.8862,10,432,1,2,11,35,11,1,0,0,0,1,0,0,1,0,star,hexagon,,,,,,,,,,,,,,,,,,,,,,,,,,,,,,,,,,,,,,,,,,,,,,,,,,,,,,
295165,2022-12-05_23h27.58.175,vts_reward_expectancy_bt,2022.2.4,Win32,60.15399423,Chrome,1536,864,,,a,0.8436,10,442,2,0,0,0,9,1,0,0,0,1,1,0,0,0,star,triangle,,,,,,,,,,,,,,,,,,,,,,,,,,,,,,,,,,,,,,,,,,,,,,,,,,,,,,
295165,2022-12-05_23h27.58.175,vts_reward_expectancy_bt,2022.2.4,Win32,60.15399423,Chrome,1536,864,,,a,0.132,10,452,2,0,1,1,5,1,0,1,0,0,0,0,0,1,circle,star,,,,,,,,,,,,,,,,,,,,,,,,,,,,,,,,,,,,,,,,,,,,,,,,,,,,,,
295165,2022-12-05_23h27.58.175,vts_reward_expectancy_bt,2022.2.4,Win32,60.15399423,Chrome,1536,864,,,a,0.9333,1,453,2,0,2,2,7,1,0,0,1,0,0,1,0,0,hexagon,circle,,,,,,,,,,,,,,,,,,,,,,,,,,,,,,,,,,,,,,,,,,,,,,,,,,,,,,
295165,2022-12-05_23h27.58.175,vts_reward_expectancy_bt,2022.2.4,Win32,60.15399423,Chrome,1536,864,,,l,2.2746,1,454,2,0,3,3,3,1,0,1,0,0,1,0,0,0,circle,triangle,,,,,,,,,,,,,,,,,,,,,,,,,,,,,,,,,,,,,,,,,,,,,,,,,,,,,,
295165,2022-12-05_23h27.58.175,vts_reward_expectancy_bt,2022.2.4,Win32,60.15399423,Chrome,1536,864,,,a,1.6173,1,455,2,0,4,4,6,1,0,0,1,0,1,0,0,0,hexagon,triangle,,,,,,,,,,,,,,,,,,,,,,,,,,,,,,,,,,,,,,,,,,,,,,,,,,,,,,
295165,2022-12-05_23h27.58.175,vts_reward_expectancy_bt,2022.2.4,Win32,60.15399423,Chrome,1536,864,,,l,1.6041,10,465,2,0,5,5,10,1,0,0,0,1,0,1,0,0,star ,circle,,,,,,,,,,,,,,,,,,,,,,,,,,,,,,,,,,,,,,,,,,,,,,,,,,,,,,
295165,2022-12-05_23h27.58.175,vts_reward_expectancy_bt,2022.2.4,Win32,60.15399423,Chrome,1536,864,,,a,5.7646,1,466,2,0,6,6,0,1,1,0,0,0,0,1,0,0,triangle,circle,,,,,,,,,,,,,,,,,,,,,,,,,,,,,,,,,,,,,,,,,,,,,,,,,,,,,,
295165,2022-12-05_23h27.58.175,vts_reward_expectancy_bt,2022.2.4,Win32,60.15399423,Chrome,1536,864,,,a,4.8306,1,467,2,0,7,7,2,1,1,0,0,0,0,0,0,1,triangle,star,,,,,,,,,,,,,,,,,,,,,,,,,,,,,,,,,,,,,,,,,,,,,,,,,,,,,,
295165,2022-12-05_23h27.58.175,vts_reward_expectancy_bt,2022.2.4,Win32,60.15399423,Chrome,1536,864,,,l,0.8493,1,468,2,0,8,8,1,1,1,0,0,0,0,0,1,0,triangle,hexagon,,,,,,,,,,,,,,,,,,,,,,,,,,,,,,,,,,,,,,,,,,,,,,,,,,,,,,
295165,2022-12-05_23h27.58.175,vts_reward_expectancy_bt,2022.2.4,Win32,60.15399423,Chrome,1536,864,,,l,0.4804,1,469,2,0,9,9,8,1,0,0,1,0,0,0,0,1,hexagon,star,,,,,,,,,,,,,,,,,,,,,,,,,,,,,,,,,,,,,,,,,,,,,,,,,,,,,,
295165,2022-12-05_23h27.58.175,vts_reward_expectancy_bt,2022.2.4,Win32,60.15399423,Chrome,1536,864,,,a,2.3873,10,479,2,0,10,10,11,1,0,0,0,1,0,0,1,0,star,hexagon,,,,,,,,,,,,,,,,,,,,,,,,,,,,,,,,,,,,,,,,,,,,,,,,,,,,,,
295165,2022-12-05_23h27.58.175,vts_reward_expectancy_bt,2022.2.4,Win32,60.15399423,Chrome,1536,864,,,a,1.9238,10,489,2,0,11,11,4,1,0,1,0,0,0,0,1,0,circle,hexagon,,,,,,,,,,,,,,,,,,,,,,,,,,,,,,,,,,,,,,,,,,,,,,,,,,,,,,
295165,2022-12-05_23h27.58.175,vts_reward_expectancy_bt,2022.2.4,Win32,60.15399423,Chrome,1536,864,,,a,7.1906,10,499,2,1,0,12,4,1,0,1,0,0,0,0,1,0,circle,hexagon,,,,,,,,,,,,,,,,,,,,,,,,,,,,,,,,,,,,,,,,,,,,,,,,,,,,,,
295165,2022-12-05_23h27.58.175,vts_reward_expectancy_bt,2022.2.4,Win32,60.15399423,Chrome,1536,864,,,a,3.2233,1,500,2,1,1,13,0,1,1,0,0,0,0,1,0,0,triangle,circle,,,,,,,,,,,,,,,,,,,,,,,,,,,,,,,,,,,,,,,,,,,,,,,,,,,,,,
295165,2022-12-05_23h27.58.175,vts_reward_expectancy_bt,2022.2.4,Win32,60.15399423,Chrome,1536,864,,,l,7.3418,10,510,2,1,2,14,8,1,0,0,1,0,0,0,0,1,hexagon,star,,,,,,,,,,,,,,,,,,,,,,,,,,,,,,,,,,,,,,,,,,,,,,,,,,,,,,
295165,2022-12-05_23h27.58.175,vts_reward_expectancy_bt,2022.2.4,Win32,60.15399423,Chrome,1536,864,,,l,9.8041,10,520,2,1,3,15,10,1,0,0,0,1,0,1,0,0,star ,circle,,,,,,,,,,,,,,,,,,,,,,,,,,,,,,,,,,,,,,,,,,,,,,,,,,,,,,
295165,2022-12-05_23h27.58.175,vts_reward_expectancy_bt,2022.2.4,Win32,60.15399423,Chrome,1536,864,,,a,5.1114,10,530,2,1,4,16,3,1,0,1,0,0,1,0,0,0,circle,triangle,,,,,,,,,,,,,,,,,,,,,,,,,,,,,,,,,,,,,,,,,,,,,,,,,,,,,,
295165,2022-12-05_23h27.58.175,vts_reward_expectancy_bt,2022.2.4,Win32,60.15399423,Chrome,1536,864,,,l,2.7618,10,540,2,1,5,17,6,1,0,0,1,0,1,0,0,0,hexagon,triangle,,,,,,,,,,,,,,,,,,,,,,,,,,,,,,,,,,,,,,,,,,,,,,,,,,,,,,
295165,2022-12-05_23h27.58.175,vts_reward_expectancy_bt,2022.2.4,Win32,60.15399423,Chrome,1536,864,,,a,3.6226,1,541,2,1,6,18,7,1,0,0,1,0,0,1,0,0,hexagon,circle,,,,,,,,,,,,,,,,,,,,,,,,,,,,,,,,,,,,,,,,,,,,,,,,,,,,,,
295165,2022-12-05_23h27.58.175,vts_reward_expectancy_bt,2022.2.4,Win32,60.15399423,Chrome,1536,864,,,a,1.3637,10,551,2,1,7,19,11,1,0,0,0,1,0,0,1,0,star,hexagon,,,,,,,,,,,,,,,,,,,,,,,,,,,,,,,,,,,,,,,,,,,,,,,,,,,,,,
295165,2022-12-05_23h27.58.175,vts_reward_expectancy_bt,2022.2.4,Win32,60.15399423,Chrome,1536,864,,,a,2.8542,1,552,2,1,8,20,1,1,1,0,0,0,0,0,1,0,triangle,hexagon,,,,,,,,,,,,,,,,,,,,,,,,,,,,,,,,,,,,,,,,,,,,,,,,,,,,,,
295165,2022-12-05_23h27.58.175,vts_reward_expectancy_bt,2022.2.4,Win32,60.15399423,Chrome,1536,864,,,a,1.8132,1,553,2,1,9,21,2,1,1,0,0,0,0,0,0,1,triangle,star,,,,,,,,,,,,,,,,,,,,,,,,,,,,,,,,,,,,,,,,,,,,,,,,,,,,,,
295165,2022-12-05_23h27.58.175,vts_reward_expectancy_bt,2022.2.4,Win32,60.15399423,Chrome,1536,864,,,a,6.2734,10,563,2,1,10,22,5,1,0,1,0,0,0,0,0,1,circle,star,,,,,,,,,,,,,,,,,,,,,,,,,,,,,,,,,,,,,,,,,,,,,,,,,,,,,,
295165,2022-12-05_23h27.58.175,vts_reward_expectancy_bt,2022.2.4,Win32,60.15399423,Chrome,1536,864,,,l,6.6246,1,564,2,1,11,23,9,1,0,0,0,1,1,0,0,0,star,triangle,,,,,,,,,,,,,,,,,,,,,,,,,,,,,,,,,,,,,,,,,,,,,,,,,,,,,,
295165,2022-12-05_23h27.58.175,vts_reward_expectancy_bt,2022.2.4,Win32,60.15399423,Chrome,1536,864,,,a,18.5665,10,574,2,2,0,24,11,1,0,0,0,1,0,0,1,0,star,hexagon,,,,,,,,,,,,,,,,,,,,,,,,,,,,,,,,,,,,,,,,,,,,,,,,,,,,,,
295165,2022-12-05_23h27.58.175,vts_reward_expectancy_bt,2022.2.4,Win32,60.15399423,Chrome,1536,864,,,a,1.9099,1,575,2,2,1,25,1,1,1,0,0,0,0,0,1,0,triangle,hexagon,,,,,,,,,,,,,,,,,,,,,,,,,,,,,,,,,,,,,,,,,,,,,,,,,,,,,,
295165,2022-12-05_23h27.58.175,vts_reward_expectancy_bt,2022.2.4,Win32,60.15399423,Chrome,1536,864,,,a,1.7079,10,585,2,2,2,26,5,1,0,1,0,0,0,0,0,1,circle,star,,,,,,,,,,,,,,,,,,,,,,,,,,,,,,,,,,,,,,,,,,,,,,,,,,,,,,
295165,2022-12-05_23h27.58.175,vts_reward_expectancy_bt,2022.2.4,Win32,60.15399423,Chrome,1536,864,,,a,2.8583,1,586,2,2,3,27,0,1,1,0,0,0,0,1,0,0,triangle,circle,,,,,,,,,,,,,,,,,,,,,,,,,,,,,,,,,,,,,,,,,,,,,,,,,,,,,,
295165,2022-12-05_23h27.58.175,vts_reward_expectancy_bt,2022.2.4,Win32,60.15399423,Chrome,1536,864,,,a,2.9577,10,596,2,2,4,28,3,1,0,1,0,0,1,0,0,0,circle,triangle,,,,,,,,,,,,,,,,,,,,,,,,,,,,,,,,,,,,,,,,,,,,,,,,,,,,,,
295165,2022-12-05_23h27.58.175,vts_reward_expectancy_bt,2022.2.4,Win32,60.15399423,Chrome,1536,864,,,a,2.6931,1,597,2,2,5,29,8,1,0,0,1,0,0,0,0,1,hexagon,star,,,,,,,,,,,,,,,,,,,,,,,,,,,,,,,,,,,,,,,,,,,,,,,,,,,,,,
295165,2022-12-05_23h27.58.175,vts_reward_expectancy_bt,2022.2.4,Win32,60.15399423,Chrome,1536,864,,,a,1.3327,1,598,2,2,6,30,10,1,0,0,0,1,0,1,0,0,star ,circle,,,,,,,,,,,,,,,,,,,,,,,,,,,,,,,,,,,,,,,,,,,,,,,,,,,,,,
295165,2022-12-05_23h27.58.175,vts_reward_expectancy_bt,2022.2.4,Win32,60.15399423,Chrome,1536,864,,,l,0.4002,1,599,2,2,7,31,9,1,0,0,0,1,1,0,0,0,star,triangle,,,,,,,,,,,,,,,,,,,,,,,,,,,,,,,,,,,,,,,,,,,,,,,,,,,,,,
295165,2022-12-05_23h27.58.175,vts_reward_expectancy_bt,2022.2.4,Win32,60.15399423,Chrome,1536,864,,,l,0.1461,10,609,2,2,8,32,2,1,1,0,0,0,0,0,0,1,triangle,star,,,,,,,,,,,,,,,,,,,,,,,,,,,,,,,,,,,,,,,,,,,,,,,,,,,,,,
295165,2022-12-05_23h27.58.175,vts_reward_expectancy_bt,2022.2.4,Win32,60.15399423,Chrome,1536,864,,,a,0.6122,1,610,2,2,9,33,6,1,0,0,1,0,1,0,0,0,hexagon,triangle,,,,,,,,,,,,,,,,,,,,,,,,,,,,,,,,,,,,,,,,,,,,,,,,,,,,,,
295165,2022-12-05_23h27.58.175,vts_reward_expectancy_bt,2022.2.4,Win32,60.15399423,Chrome,1536,864,,,a,0.0358,10,620,2,2,10,34,4,1,0,1,0,0,0,0,1,0,circle,hexagon,,,,,,,,,,,,,,,,,,,,,,,,,,,,,,,,,,,,,,,,,,,,,,,,,,,,,,
295165,2022-12-05_23h27.58.175,vts_reward_expectancy_bt,2022.2.4,Win32,60.15399423,Chrome,1536,864,,,a,0.3186,10,630,2,2,11,35,7,1,0,0,1,0,0,1,0,0,hexagon,circle,,,,,,,,,,,,,,,,,,,,,,,,,,,,,,,,,,,,,,,,,,,,,,,,,,,,,,
295165,2022-12-05_23h27.58.175,vts_reward_expectancy_bt,2022.2.4,Win32,60.15399423,Chrome,1536,864,,,,,,,,,,,,,,,,,,,,,,,174,H,circle,1,0,f,0.8504,0,0,0,0,0,1,,,,,,,,,,,,,,,,,,,,,,,,,,,,,,,,,,,,,,,,,
295165,2022-12-05_23h27.58.175,vts_reward_expectancy_bt,2022.2.4,Win32,60.15399423,Chrome,1536,864,,,,,,,,,,,,,,,,,,,,,,,132,B,triangle,1,0,d,0.4316,0,1,0,1,0,1,,,,,,,,,,,,,,,,,,,,,,,,,,,,,,,,,,,,,,,,,
295165,2022-12-05_23h27.58.175,vts_reward_expectancy_bt,2022.2.4,Win32,60.15399423,Chrome,1536,864,,,,,,,,,,,,,,,,,,,,,,,139,W,star,1,0,d,0.8043,0,2,0,2,0,1,,,,,,,,,,,,,,,,,,,,,,,,,,,,,,,,,,,,,,,,,
295165,2022-12-05_23h27.58.175,vts_reward_expectancy_bt,2022.2.4,Win32,60.15399423,Chrome,1536,864,,,,,,,,,,,,,,,,,,,,,,,146,S,hexagon,1,0,d,0.9531,0,3,0,3,0,1,,,,,,,,,,,,,,,,,,,,,,,,,,,,,,,,,,,,,,,,,
295165,2022-12-05_23h27.58.175,vts_reward_expectancy_bt,2022.2.4,Win32,60.15399423,Chrome,1536,864,,,,,,,,,,,,,,,,,,,,,,,181,F,circle,1,0,f,1.3482,0,4,0,4,0,1,,,,,,,,,,,,,,,,,,,,,,,,,,,,,,,,,,,,,,,,,
295165,2022-12-05_23h27.58.175,vts_reward_expectancy_bt,2022.2.4,Win32,60.15399423,Chrome,1536,864,,,,,,,,,,,,,,,,,,,,,,,167,U,triangle,1,0,f,2.0089,0,5,0,5,0,1,,,,,,,,,,,,,,,,,,,,,,,,,,,,,,,,,,,,,,,,,
295165,2022-12-05_23h27.58.175,vts_reward_expectancy_bt,2022.2.4,Win32,60.15399423,Chrome,1536,864,,,,,,,,,,,,,,,,,,,,,,,125,Y,star,1,0,d,0.6508,0,6,0,6,0,1,,,,,,,,,,,,,,,,,,,,,,,,,,,,,,,,,,,,,,,,,
295165,2022-12-05_23h27.58.175,vts_reward_expectancy_bt,2022.2.4,Win32,60.15399423,Chrome,1536,864,,,,,,,,,,,,,,,,,,,,,,,160,D,hexagon,1,0,f,1.5361,0,7,0,7,0,1,,,,,,,,,,,,,,,,,,,,,,,,,,,,,,,,,,,,,,,,,
295165,2022-12-05_23h27.58.175,vts_reward_expectancy_bt,2022.2.4,Win32,60.15399423,Chrome,1536,864,,,,,,,,,,,,,,,,,,,,,,,174,H,circle,1,0,f,0.6715,0,8,0,8,0,1,,,,,,,,,,,,,,,,,,,,,,,,,,,,,,,,,,,,,,,,,
295165,2022-12-05_23h27.58.175,vts_reward_expectancy_bt,2022.2.4,Win32,60.15399423,Chrome,1536,864,,,,,,,,,,,,,,,,,,,,,,,132,B,hexagon,1,0,d,0.621,0,9,0,9,0,1,,,,,,,,,,,,,,,,,,,,,,,,,,,,,,,,,,,,,,,,,
295165,2022-12-05_23h27.58.175,vts_reward_expectancy_bt,2022.2.4,Win32,60.15399423,Chrome,1536,864,,,,,,,,,,,,,,,,,,,,,,,174,W,circle,1,0,,,1,,,,,,k,0.6862,0,0,0,0,1,,,,,,,,,,,,,,,,,,,,,,,,,,,,,,,,,,
295165,2022-12-05_23h27.58.175,vts_reward_expectancy_bt,2022.2.4,Win32,60.15399423,Chrome,1536,864,,,,,,,,,,,,,,,,,,,,,,,132,H,star,1,0,,,1,,,,,,j,1.2931,1,0,1,0,1,,,,,,,,,,,,,,,,,,,,,,,,,,,,,,,,,,
295165,2022-12-05_23h27.58.175,vts_reward_expectancy_bt,2022.2.4,Win32,60.15399423,Chrome,1536,864,,,,,,,,,,,,,,,,,,,,,,,160,D,hexagon,1,0,,,1,,,,,,j,0.8836,2,0,2,0,1,,,,,,,,,,,,,,,,,,,,,,,,,,,,,,,,,,
295165,2022-12-05_23h27.58.175,vts_reward_expectancy_bt,2022.2.4,Win32,60.15399423,Chrome,1536,864,,,,,,,,,,,,,,,,,,,,,,,181,F,triangle,1,0,,,1,,,,,,j,1.2336,3,0,3,0,1,,,,,,,,,,,,,,,,,,,,,,,,,,,,,,,,,,
295165,2022-12-05_23h27.58.175,vts_reward_expectancy_bt,2022.2.4,Win32,60.15399423,Chrome,1536,864,,,,,,,,,,,,,,,,,,,,,,,139,B,circle,1,0,,,1,,,,,,j,1.1365,4,0,4,0,1,,,,,,,,,,,,,,,,,,,,,,,,,,,,,,,,,,
295165,2022-12-05_23h27.58.175,vts_reward_expectancy_bt,2022.2.4,Win32,60.15399423,Chrome,1536,864,,,,,,,,,,,,,,,,,,,,,,,146,Y,star,1,0,,,1,,,,,,k,1.2001,5,0,5,0,1,,,,,,,,,,,,,,,,,,,,,,,,,,,,,,,,,,
295165,2022-12-05_23h27.58.175,vts_reward_expectancy_bt,2022.2.4,Win32,60.15399423,Chrome,1536,864,,,,,,,,,,,,,,,,,,,,,,,125,U,hexagon,1,0,,,1,,,,,,k,0.6615,6,0,6,0,1,,,,,,,,,,,,,,,,,,,,,,,,,,,,,,,,,,
295165,2022-12-05_23h27.58.175,vts_reward_expectancy_bt,2022.2.4,Win32,60.15399423,Chrome,1536,864,,,,,,,,,,,,,,,,,,,,,,,167,S,triangle,1,0,,,1,,,,,,k,1.3825,7,0,7,0,1,,,,,,,,,,,,,,,,,,,,,,,,,,,,,,,,,,
295165,2022-12-05_23h27.58.175,vts_reward_expectancy_bt,2022.2.4,Win32,60.15399423,Chrome,1536,864,,,,,,,,,,,,,,,,,,,,,,,174,W,hexagon,1,0,,,1,,,,,,k,1.1276,8,0,8,0,1,,,,,,,,,,,,,,,,,,,,,,,,,,,,,,,,,,
295165,2022-12-05_23h27.58.175,vts_reward_expectancy_bt,2022.2.4,Win32,60.15399423,Chrome,1536,864,,,,,,,,,,,,,,,,,,,,,,,132,H,circle,1,0,,,1,,,,,,j,1.4336,9,0,9,0,1,,,,,,,,,,,,,,,,,,,,,,,,,,,,,,,,,,
295165,2022-12-05_23h27.58.175,vts_reward_expectancy_bt,2022.2.4,Win32,60.15399423,Chrome,1536,864,,,,,0,630,,,,,,,,,,,,,,,,,146,B,circle,-1,0,,,2,,,,,,,,,,,,,-1,no_choice,NA,,vtsPrac,0,0,0,0,1,,,,,,,,,,,,,,,,,,,,,,,,
295165,2022-12-05_23h27.58.175,vts_reward_expectancy_bt,2022.2.4,Win32,60.15399423,Chrome,1536,864,,,,,0,630,,,,,,,,,,,,,,,,,167,Y,triangle,0,0,,,2,,,,,,,,,,,,,switch,number,NA,d,vtsPrac,1,0,1,0,1,1.877,,,,,,,,,,,,,,,,,,,,,,,
295165,2022-12-05_23h27.58.175,vts_reward_expectancy_bt,2022.2.4,Win32,60.15399423,Chrome,1536,864,,,,,0,630,,,,,,,,,,,,,,,,,139,D,circle,1,1,,,2,,,,,,,,,,,,,switch,letter,lettSwt,j,vtsPrac,2,0,2,0,1,0.8509,,,,,,,,,,,,,,,,,,,,,,,
295165,2022-12-05_23h27.58.175,vts_reward_expectancy_bt,2022.2.4,Win32,60.15399423,Chrome,1536,864,,,,,0,630,,,,,,,,,,,,,,,,,181,W,triangle,1,0,,,2,,,,,,,,,,,,,switch,number,numSwt,f,vtsPrac,3,0,3,0,1,1.0893,,,,,,,,,,,,,,,,,,,,,,,
295165,2022-12-05_23h27.58.175,vts_reward_expectancy_bt,2022.2.4,Win32,60.15399423,Chrome,1536,864,,,,,0,630,,,,,,,,,,,,,,,,,146,B,triangle,1,0,,,2,,,,,,,,,,,,,switch,letter,lettSwt,j,vtsPrac,4,0,4,0,1,1.2841,,,,,,,,,,,,,,,,,,,,,,,
295165,2022-12-05_23h27.58.175,vts_reward_expectancy_bt,2022.2.4,Win32,60.15399423,Chrome,1536,864,,,,,0,630,,,,,,,,,,,,,,,,,167,Y,star,1,0,,,2,,,,,,,,,,,,,repeat,letter,lettRpt,k,vtsPrac,5,0,5,0,1,0.5165,,,,,,,,,,,,,,,,,,,,,,,
295165,2022-12-05_23h27.58.175,vts_reward_expectancy_bt,2022.2.4,Win32,60.15399423,Chrome,1536,864,,,,,0,630,,,,,,,,,,,,,,,,,139,D,triangle,1,0,,,2,,,,,,,,,,,,,switch,number,numSwt,d,vtsPrac,6,0,6,0,1,0.5312,,,,,,,,,,,,,,,,,,,,,,,
295165,2022-12-05_23h27.58.175,vts_reward_expectancy_bt,2022.2.4,Win32,60.15399423,Chrome,1536,864,,,,,0,630,,,,,,,,,,,,,,,,,181,W,circle,1,0,,,2,,,,,,,,,,,,,repeat,number,numRpt,f,vtsPrac,7,0,7,0,1,0.5699,,,,,,,,,,,,,,,,,,,,,,,
295165,2022-12-05_23h27.58.175,vts_reward_expectancy_bt,2022.2.4,Win32,60.15399423,Chrome,1536,864,,,,,0,630,,,,,,,,,,,,,,,,,125,D,triangle,1,0,,,2,,,,,,,,,,,,,repeat,number,numRpt,d,vtsPrac,8,0,8,0,1,0.5649,,,,,,,,,,,,,,,,,,,,,,,
295165,2022-12-05_23h27.58.175,vts_reward_expectancy_bt,2022.2.4,Win32,60.15399423,Chrome,1536,864,,,,,0,630,,,,,,,,,,,,,,,,,146,B,hexagon,1,0,,,2,,,,,,,,,,,,,switch,letter,lettSwt,j,vtsPrac,9,0,9,0,1,0.8535,,,,,,,,,,,,,,,,,,,,,,,
295165,2022-12-05_23h27.58.175,vts_reward_expectancy_bt,2022.2.4,Win32,60.15399423,Chrome,1536,864,,,,,0,630,,,,,,,,,,,,,,,,,139,U,star,1,0,,,2,,,,,,,,,,,,,repeat,letter,lettRpt,k,vtsPrac,10,0,10,0,1,0.6214,,,,,,,,,,,,,,,,,,,,,,,
295165,2022-12-05_23h27.58.175,vts_reward_expectancy_bt,2022.2.4,Win32,60.15399423,Chrome,1536,864,,,,,0,630,,,,,,,,,,,,,,,,,174,W,hexagon,1,0,,,2,,,,,,,,,,,,,repeat,letter,lettRpt,k,vtsPrac,11,0,11,0,1,0.5812,,,,,,,,,,,,,,,,,,,,,,,
295165,2022-12-05_23h27.58.175,vts_reward_expectancy_bt,2022.2.4,Win32,60.15399423,Chrome,1536,864,,,,,0,630,,,,,,,,,,,,,,,,,139,U,circle,1,0,,,2,,,,,,,,,,,,,switch,number,numSwt,d,vtsPrac,12,0,12,0,1,0.6358,,,,,,,,,,,,,,,,,,,,,,,
295165,2022-12-05_23h27.58.175,vts_reward_expectancy_bt,2022.2.4,Win32,60.15399423,Chrome,1536,864,,,,,0,630,,,,,,,,,,,,,,,,,132,S,star,1,0,,,2,,,,,,,,,,,,,repeat,number,numRpt,d,vtsPrac,13,0,13,0,1,0.6244,,,,,,,,,,,,,,,,,,,,,,,
295165,2022-12-05_23h27.58.175,vts_reward_expectancy_bt,2022.2.4,Win32,60.15399423,Chrome,1536,864,,,,,0,630,,,,,,,,,,,,,,,,,146,B,circle,1,0,,,2,,,,,,,,,,,,,repeat,number,numRpt,d,vtsPrac,14,0,14,0,1,0.7144,,,,,,,,,,,,,,,,,,,,,,,
295165,2022-12-05_23h27.58.175,vts_reward_expectancy_bt,2022.2.4,Win32,60.15399423,Chrome,1536,864,,,,,0,630,,,,,,,,,,,,,,,,,125,D,hexagon,1,0,,,2,,,,,,,,,,,,,switch,letter,lettSwt,j,vtsPrac,15,0,15,0,1,0.6139,,,,,,,,,,,,,,,,,,,,,,,
295165,2022-12-05_23h27.58.175,vts_reward_expectancy_bt,2022.2.4,Win32,60.15399423,Chrome,1536,864,,,,,0,630,,,,,,,,,,,,,,,,,160,U,star,1,0,,,2,,,,,,,,,,,,,repeat,letter,lettRpt,k,vtsPrac,16,0,16,0,1,0.9833,,,,,,,,,,,,,,,,,,,,,,,
295165,2022-12-05_23h27.58.175,vts_reward_expectancy_bt,2022.2.4,Win32,60.15399423,Chrome,1536,864,,,,,0,630,,,,,,,,,,,,,,,,,174,F,hexagon,1,0,,,2,,,,,,,,,,,,,switch,number,numSwt,f,vtsPrac,17,0,17,0,1,0.5558,,,,,,,,,,,,,,,,,,,,,,,
295165,2022-12-05_23h27.58.175,vts_reward_expectancy_bt,2022.2.4,Win32,60.15399423,Chrome,1536,864,,,,,0,630,,,,,,,,,,,,,,,,,125,S,circle,0,0,,,2,,,,,,,,,,,,,switch,letter,NA,j,vtsPrac,18,0,18,0,1,1.1545,,,,,,,,,,,,,,,,,,,,,,,
295165,2022-12-05_23h27.58.175,vts_reward_expectancy_bt,2022.2.4,Win32,60.15399423,Chrome,1536,864,,,,,0,630,,,,,,,,,,,,,,,,,146,W,hexagon,1,1,,,2,,,,,,,,,,,,,switch,number,numSwt,d,vtsPrac,19,0,19,0,1,1.1782,,,,,,,,,,,,,,,,,,,,,,,
295165,2022-12-05_23h27.58.175,vts_reward_expectancy_bt,2022.2.4,Win32,60.15399423,Chrome,1536,864,,,,,0,630,,,,,,,,,,,,,,,,,167,B,triangle,1,0,,,2,,,,,,,,,,,,,switch,letter,lettSwt,j,vtsPrac,20,0,20,0,1,0.9466,,,,,,,,,,,,,,,,,,,,,,,
295165,2022-12-05_23h27.58.175,vts_reward_expectancy_bt,2022.2.4,Win32,60.15399423,Chrome,1536,864,,,,,0,630,,,,,,,,,,,,,,,,,125,Y,hexagon,1,0,,,2,,,,,,,,,,,,,repeat,letter,lettRpt,k,vtsPrac,21,0,21,0,1,1.0861,,,,,,,,,,,,,,,,,,,,,,,
295165,2022-12-05_23h27.58.175,vts_reward_expectancy_bt,2022.2.4,Win32,60.15399423,Chrome,1536,864,,,,,0,630,,,,,,,,,,,,,,,,,160,S,hexagon,0,0,,,2,,,,,,,,,,,,,repeat,letter,NA,j,vtsPrac,22,0,22,0,1,0.9868,,,,,,,,,,,,,,,,,,,,,,,
295165,2022-12-05_23h27.58.175,vts_reward_expectancy_bt,2022.2.4,Win32,60.15399423,Chrome,1536,864,,,,,0,630,,,,,,,,,,,,,,,,,132,D,triangle,1,1,,,2,,,,,,,,,,,,,switch,number,numSwt,d,vtsPrac,23,0,23,0,1,0.4858,,,,,,,,,,,,,,,,,,,,,,,
295165,2022-12-05_23h27.58.175,vts_reward_expectancy_bt,2022.2.4,Win32,60.15399423,Chrome,1536,864,,,,,0,630,,,,,,,,,,,,,,,,,174,Y,star,1,0,,,2,,,,,,,,,,,,,switch,letter,lettSwt,k,vtsPrac,24,0,24,0,1,1.4791,,,,,,,,,,,,,,,,,,,,,,,
295165,2022-12-05_23h27.58.175,vts_reward_expectancy_bt,2022.2.4,Win32,60.15399423,Chrome,1536,864,,,,,0,630,,,,,,,,,,,,,,,,,146,W,circle,1,0,,,2,,,,,,,,,,,,,repeat,letter,lettRpt,k,vtsPrac,25,0,25,0,1,0.8343,,,,,,,,,,,,,,,,,,,,,,,
295165,2022-12-05_23h27.58.175,vts_reward_expectancy_bt,2022.2.4,Win32,60.15399423,Chrome,1536,864,,,,,0,630,,,,,,,,,,,,,,,,,181,U,triangle,1,0,,,2,,,,,,,,,,,,,repeat,letter,lettRpt,k,vtsPrac,26,0,26,0,1,1.4322,,,,,,,,,,,,,,,,,,,,,,,
295165,2022-12-05_23h27.58.175,vts_reward_expectancy_bt,2022.2.4,Win32,60.15399423,Chrome,1536,864,,,,,0,630,,,,,,,,,,,,,,,,,125,H,hexagon,1,0,,,2,,,,,,,,,,,,,repeat,letter,lettRpt,j,vtsPrac,27,0,27,0,1,1.012,,,,,,,,,,,,,,,,,,,,,,,
295165,2022-12-05_23h27.58.175,vts_reward_expectancy_bt,2022.2.4,Win32,60.15399423,Chrome,1536,864,,,,,0,630,,,,,,,,,,,,,,,,,160,H,triangle,1,0,,,2,,,,,,,,,,,,,repeat,letter,lettRpt,j,vtsPrac,28,0,28,0,1,1.6633,,,,,,,,,,,,,,,,,,,,,,,
295165,2022-12-05_23h27.58.175,vts_reward_expectancy_bt,2022.2.4,Win32,60.15399423,Chrome,1536,864,,,,,0,630,,,,,,,,,,,,,,,,,167,U,hexagon,1,0,,,2,,,,,,,,,,,,,repeat,letter,lettRpt,k,vtsPrac,29,0,29,0,1,1.4041,,,,,,,,,,,,,,,,,,,,,,,
295165,2022-12-05_23h27.58.175,vts_reward_expectancy_bt,2022.2.4,Win32,60.15399423,Chrome,1536,864,,,,,0,630,,,,,,,,,,,,,,,,,125,B,star,-1,0,,,2,,,,,,,,,,,,,switch,no_choice,NA,,vtsPrac,30,0,30,0,1,,,,,,,,,,,,,,,,,,,,,,,,
295165,2022-12-05_23h27.58.175,vts_reward_expectancy_bt,2022.2.4,Win32,60.15399423,Chrome,1536,864,,,,,0,630,,,,,,,,,,,,,,,,,174,F,triangle,-1,0,,,2,,,,,,,,,,,,,repeat,no_choice,NA,,vtsPrac,31,0,31,0,1,,,,,,,,,,,,,,,,,,,,,,,,
295165,2022-12-05_23h27.58.175,vts_reward_expectancy_bt,2022.2.4,Win32,60.15399423,Chrome,1536,864,,,,,,,,,,,,,,,,,,,,,,,,,,,,,,,,,,,,,,,,,,,,,,,,,,,,,,,,,,,,,,,,,,,,,,,,,,,,
295165,2022-12-05_23h27.58.175,vts_reward_expectancy_bt,2022.2.4,Win32,60.15399423,Chrome,1536,864,,,,,,,,,,,,,,,,,,,,,,,,,,,,,,,,,,,,,,,,,,,,,,,,,,,,,,,,,,,,,,,,,,,,,,,,,,,,
295165,2022-12-05_23h27.58.175,vts_reward_expectancy_bt,2022.2.4,Win32,60.15399423,Chrome,1536,864,,,,,0,630,,,,,,,,,,,,,,,,,160,F,star,1,0,,,,,,,,,,,,,,,,switch,letter,lettSwt,j,noRew,,,,,,0.7169,0,0,0,0,0,1,,,,,,,,,,,,,,,,,
295165,2022-12-05_23h27.58.175,vts_reward_expectancy_bt,2022.2.4,Win32,60.15399423,Chrome,1536,864,,,,,0,630,,,,,,,,,,,,,,,,,139,W,circle,1,0,,,,,,,,,,,,,,,,repeat,letter,lettRpt,k,noRew,,,,,,0.6808,0,1,0,1,0,1,,,,,,,,,,,,,,,,,
295165,2022-12-05_23h27.58.175,vts_reward_expectancy_bt,2022.2.4,Win32,60.15399423,Chrome,1536,864,,,,,0,630,,,,,,,,,,,,,,,,,146,H,star,1,0,,,,,,,,,,,,,,,,repeat,letter,lettRpt,j,noRew,,,,,,0.8805,0,2,0,2,0,1,,,,,,,,,,,,,,,,,
295165,2022-12-05_23h27.58.175,vts_reward_expectancy_bt,2022.2.4,Win32,60.15399423,Chrome,1536,864,,,,,0,630,,,,,,,,,,,,,,,,,181,S,circle,0,0,,,,,,,,,,,,,,,,repeat,letter,NA,j,noRew,,,,,,0.8063,0,3,0,3,0,1,,,,,,,,,,,,,,,,,
295165,2022-12-05_23h27.58.175,vts_reward_expectancy_bt,2022.2.4,Win32,60.15399423,Chrome,1536,864,,,,,0,630,,,,,,,,,,,,,,,,,160,F,star,1,1,,,,,,,,,,,,,,,,repeat,letter,lettRpt,j,noRew,,,,,,0.8291,0,4,0,4,0,1,,,,,,,,,,,,,,,,,
295165,2022-12-05_23h27.58.175,vts_reward_expectancy_bt,2022.2.4,Win32,60.15399423,Chrome,1536,864,,,,,0,630,,,,,,,,,,,,,,,,,139,W,circle,0,0,,,,,,,,,,,,,,,,repeat,letter,NA,j,noRew,,,,,,0.8438,0,5,0,5,0,1,,,,,,,,,,,,,,,,,
295165,2022-12-05_23h27.58.175,vts_reward_expectancy_bt,2022.2.4,Win32,60.15399423,Chrome,1536,864,,,,,0,630,,,,,,,,,,,,,,,,,146,H,circle,1,1,,,,,,,,,,,,,,,,switch,number,numSwt,d,noRew,,,,,,0.5249,0,6,0,6,0,1,,,,,,,,,,,,,,,,,
295165,2022-12-05_23h27.58.175,vts_reward_expectancy_bt,2022.2.4,Win32,60.15399423,Chrome,1536,864,,,,,0,630,,,,,,,,,,,,,,,,,181,S,triangle,1,0,,,,,,,,,,,,,,,,repeat,number,numRpt,f,noRew,,,,,,0.7497,0,7,0,7,0,1,,,,,,,,,,,,,,,,,
295165,2022-12-05_23h27.58.175,vts_reward_expectancy_bt,2022.2.4,Win32,60.15399423,Chrome,1536,864,,,,,0,630,,,,,,,,,,,,,,,,,160,F,triangle,1,0,,,,,,,,,,,,,,,,repeat,number,numRpt,f,noRew,,,,,,0.5557,0,8,0,8,0,1,,,,,,,,,,,,,,,,,
295165,2022-12-05_23h27.58.175,vts_reward_expectancy_bt,2022.2.4,Win32,60.15399423,Chrome,1536,864,,,,,0,630,,,,,,,,,,,,,,,,,174,H,circle,1,0,,,,,,,,,,,,,,,,repeat,number,numRpt,f,noRew,,,,,,0.6445,0,9,0,9,0,1,,,,,,,,,,,,,,,,,
295165,2022-12-05_23h27.58.175,vts_reward_expectancy_bt,2022.2.4,Win32,60.15399423,Chrome,1536,864,,,,,0,630,,,,,,,,,,,,,,,,,132,S,star,1,0,,,,,,,,,,,,,,,,repeat,number,numRpt,d,noRew,,,,,,0.7442,0,10,0,10,0,1,,,,,,,,,,,,,,,,,
295165,2022-12-05_23h27.58.175,vts_reward_expectancy_bt,2022.2.4,Win32,60.15399423,Chrome,1536,864,,,,,0,630,,,,,,,,,,,,,,,,,167,U,hexagon,1,0,,,,,,,,,,,,,,,,repeat,number,numRpt,f,noRew,,,,,,1.7949,0,11,0,11,0,1,,,,,,,,,,,,,,,,,
295165,2022-12-05_23h27.58.175,vts_reward_expectancy_bt,2022.2.4,Win32,60.15399423,Chrome,1536,864,,,,,0,630,,,,,,,,,,,,,,,,,139,W,triangle,1,0,,,,,,,,,,,,,,,,repeat,number,numRpt,d,noRew,,,,,,0.7618,0,12,0,12,0,1,,,,,,,,,,,,,,,,,
295165,2022-12-05_23h27.58.175,vts_reward_expectancy_bt,2022.2.4,Win32,60.15399423,Chrome,1536,864,,,,,0,630,,,,,,,,,,,,,,,,,132,Y,star,1,0,,,,,,,,,,,,,,,,switch,letter,lettSwt,k,noRew,,,,,,1.1621,0,13,0,13,0,1,,,,,,,,,,,,,,,,,
295165,2022-12-05_23h27.58.175,vts_reward_expectancy_bt,2022.2.4,Win32,60.15399423,Chrome,1536,864,,,,,0,630,,,,,,,,,,,,,,,,,125,S,star,1,0,,,,,,,,,,,,,,,,switch,number,numSwt,d,noRew,,,,,,1.6214,0,14,0,14,0,1,,,,,,,,,,,,,,,,,
295165,2022-12-05_23h27.58.175,vts_reward_expectancy_bt,2022.2.4,Win32,60.15399423,Chrome,1536,864,,,,,0,630,,,,,,,,,,,,,,,,,181,D,hexagon,1,0,,,,,,,,,,,,,,,,switch,letter,lettSwt,j,noRew,,,,,,0.9654,0,15,0,15,0,1,,,,,,,,,,,,,,,,,
295165,2022-12-05_23h27.58.175,vts_reward_expectancy_bt,2022.2.4,Win32,60.15399423,Chrome,1536,864,,,,,0,630,,,,,,,,,,,,,,,,,139,F,star,1,0,,,,,,,,,,,,,,,,switch,number,numSwt,d,noRew,,,,,,1.1528,0,16,0,16,0,1,,,,,,,,,,,,,,,,,
295165,2022-12-05_23h27.58.175,vts_reward_expectancy_bt,2022.2.4,Win32,60.15399423,Chrome,1536,864,,,,,0,630,,,,,,,,,,,,,,,,,160,S,circle,1,0,,,,,,,,,,,,,,,,repeat,number,numRpt,f,noRew,,,,,,1.3567,0,17,0,17,0,1,,,,,,,,,,,,,,,,,
295165,2022-12-05_23h27.58.175,vts_reward_expectancy_bt,2022.2.4,Win32,60.15399423,Chrome,1536,864,,,,,0,630,,,,,,,,,,,,,,,,,125,Y,triangle,1,0,,,,,,,,,,,,,,,,repeat,number,numRpt,d,noRew,,,,,,0.4964,0,18,0,18,0,1,,,,,,,,,,,,,,,,,
295165,2022-12-05_23h27.58.175,vts_reward_expectancy_bt,2022.2.4,Win32,60.15399423,Chrome,1536,864,,,,,0,630,,,,,,,,,,,,,,,,,132,B,star,1,0,,,,,,,,,,,,,,,,switch,letter,lettSwt,j,noRew,,,,,,0.9584,0,19,0,19,0,1,,,,,,,,,,,,,,,,,
295165,2022-12-05_23h27.58.175,vts_reward_expectancy_bt,2022.2.4,Win32,60.15399423,Chrome,1536,864,,,,,0,630,,,,,,,,,,,,,,,,,167,B,hexagon,1,0,,,,,,,,,,,,,,,,switch,number,numSwt,f,noRew,,,,,,0.5052,0,20,0,20,0,1,,,,,,,,,,,,,,,,,
295165,2022-12-05_23h27.58.175,vts_reward_expectancy_bt,2022.2.4,Win32,60.15399423,Chrome,1536,864,,,,,0,630,,,,,,,,,,,,,,,,,174,S,triangle,1,0,,,,,,,,,,,,,,,,repeat,number,numRpt,f,noRew,,,,,,1.5359,0,21,0,21,0,1,,,,,,,,,,,,,,,,,
295165,2022-12-05_23h27.58.175,vts_reward_expectancy_bt,2022.2.4,Win32,60.15399423,Chrome,1536,864,,,,,0,630,,,,,,,,,,,,,,,,,181,D,circle,1,0,,,,,,,,,,,,,,,,repeat,number,numRpt,f,noRew,,,,,,0.5737,0,22,0,22,0,1,,,,,,,,,,,,,,,,,
295165,2022-12-05_23h27.58.175,vts_reward_expectancy_bt,2022.2.4,Win32,60.15399423,Chrome,1536,864,,,,,0,630,,,,,,,,,,,,,,,,,125,F,star,1,0,,,,,,,,,,,,,,,,repeat,number,numRpt,d,noRew,,,,,,0.6334,0,23,0,23,0,1,,,,,,,,,,,,,,,,,
295165,2022-12-05_23h27.58.175,vts_reward_expectancy_bt,2022.2.4,Win32,60.15399423,Chrome,1536,864,,,,,0,630,,,,,,,,,,,,,,,,,181,B,circle,1,0,,,,,,,,,,,,,,,,repeat,number,numRpt,f,noRew,,,,,,0.6179,0,24,0,24,0,1,,,,,,,,,,,,,,,,,
295165,2022-12-05_23h27.58.175,vts_reward_expectancy_bt,2022.2.4,Win32,60.15399423,Chrome,1536,864,,,,,0,630,,,,,,,,,,,,,,,,,146,Y,hexagon,1,0,,,,,,,,,,,,,,,,switch,letter,lettSwt,k,noRew,,,,,,0.8206,0,25,0,25,0,1,,,,,,,,,,,,,,,,,
295165,2022-12-05_23h27.58.175,vts_reward_expectancy_bt,2022.2.4,Win32,60.15399423,Chrome,1536,864,,,,,0,630,,,,,,,,,,,,,,,,,167,D,triangle,1,0,,,,,,,,,,,,,,,,repeat,letter,lettRpt,j,noRew,,,,,,0.587,0,26,0,26,0,1,,,,,,,,,,,,,,,,,
295165,2022-12-05_23h27.58.175,vts_reward_expectancy_bt,2022.2.4,Win32,60.15399423,Chrome,1536,864,,,,,0,630,,,,,,,,,,,,,,,,,125,S,circle,1,0,,,,,,,,,,,,,,,,repeat,letter,lettRpt,k,noRew,,,,,,1.1688,0,27,0,27,0,1,,,,,,,,,,,,,,,,,
295165,2022-12-05_23h27.58.175,vts_reward_expectancy_bt,2022.2.4,Win32,60.15399423,Chrome,1536,864,,,,,0,630,,,,,,,,,,,,,,,,,132,U,triangle,1,0,,,,,,,,,,,,,,,,switch,number,numSwt,d,noRew,,,,,,0.699,0,28,0,28,0,1,,,,,,,,,,,,,,,,,
295165,2022-12-05_23h27.58.175,vts_reward_expectancy_bt,2022.2.4,Win32,60.15399423,Chrome,1536,864,,,,,0,630,,,,,,,,,,,,,,,,,174,F,circle,1,0,,,,,,,,,,,,,,,,repeat,number,numRpt,f,noRew,,,,,,0.9853,0,29,0,29,0,1,,,,,,,,,,,,,,,,,
295165,2022-12-05_23h27.58.175,vts_reward_expectancy_bt,2022.2.4,Win32,60.15399423,Chrome,1536,864,,,,,0,630,,,,,,,,,,,,,,,,,125,B,circle,1,0,,,,,,,,,,,,,,,,repeat,number,numRpt,d,noRew,,,,,,1.0459,0,30,0,30,0,1,,,,,,,,,,,,,,,,,
295165,2022-12-05_23h27.58.175,vts_reward_expectancy_bt,2022.2.4,Win32,60.15399423,Chrome,1536,864,,,,,0,630,,,,,,,,,,,,,,,,,181,Y,hexagon,1,0,,,,,,,,,,,,,,,,switch,letter,lettSwt,k,noRew,,,,,,0.8345,0,31,0,31,0,1,,,,,,,,,,,,,,,,,
295165,2022-12-05_23h27.58.175,vts_reward_expectancy_bt,2022.2.4,Win32,60.15399423,Chrome,1536,864,,,,,0,630,,,,,,,,,,,,,,,,,132,B,triangle,1,0,,,,,,,,,,,,,,,,repeat,letter,lettRpt,j,noRew,,,,,,1.0294,0,32,0,32,0,1,,,,,,,,,,,,,,,,,
295165,2022-12-05_23h27.58.175,vts_reward_expectancy_bt,2022.2.4,Win32,60.15399423,Chrome,1536,864,,,,,0,630,,,,,,,,,,,,,,,,,167,Y,hexagon,1,0,,,,,,,,,,,,,,,,repeat,letter,lettRpt,k,noRew,,,,,,1.0637,0,33,0,33,0,1,,,,,,,,,,,,,,,,,
295165,2022-12-05_23h27.58.175,vts_reward_expectancy_bt,2022.2.4,Win32,60.15399423,Chrome,1536,864,,,,,0,630,,,,,,,,,,,,,,,,,174,S,hexagon,1,0,,,,,,,,,,,,,,,,switch,number,numSwt,f,noRew,,,,,,0.6634,0,34,0,34,0,1,,,,,,,,,,,,,,,,,
295165,2022-12-05_23h27.58.175,vts_reward_expectancy_bt,2022.2.4,Win32,60.15399423,Chrome,1536,864,,,,,0,630,,,,,,,,,,,,,,,,,181,U,star,1,0,,,,,,,,,,,,,,,,repeat,number,numRpt,f,noRew,,,,,,0.6204,0,35,0,35,0,1,,,,,,,,,,,,,,,,,
295165,2022-12-05_23h27.58.175,vts_reward_expectancy_bt,2022.2.4,Win32,60.15399423,Chrome,1536,864,,,,,0,630,,,,,,,,,,,,,,,,,160,F,triangle,1,0,,,,,,,,,,,,,,,,repeat,number,numRpt,f,noRew,,,,,,0.7643,0,36,0,36,0,1,,,,,,,,,,,,,,,,,
295165,2022-12-05_23h27.58.175,vts_reward_expectancy_bt,2022.2.4,Win32,60.15399423,Chrome,1536,864,,,,,0,630,,,,,,,,,,,,,,,,,139,W,hexagon,1,0,,,,,,,,,,,,,,,,repeat,number,numRpt,d,noRew,,,,,,1.3165,0,37,0,37,0,1,,,,,,,,,,,,,,,,,
295165,2022-12-05_23h27.58.175,vts_reward_expectancy_bt,2022.2.4,Win32,60.15399423,Chrome,1536,864,,,,,0,630,,,,,,,,,,,,,,,,,167,D,circle,1,0,,,,,,,,,,,,,,,,repeat,number,numRpt,f,noRew,,,,,,0.7804,0,38,0,38,0,1,,,,,,,,,,,,,,,,,
295165,2022-12-05_23h27.58.175,vts_reward_expectancy_bt,2022.2.4,Win32,60.15399423,Chrome,1536,864,,,,,0,630,,,,,,,,,,,,,,,,,146,S,star,1,0,,,,,,,,,,,,,,,,repeat,number,numRpt,d,noRew,,,,,,1.2127,0,39,0,39,0,1,,,,,,,,,,,,,,,,,
295165,2022-12-05_23h27.58.175,vts_reward_expectancy_bt,2022.2.4,Win32,60.15399423,Chrome,1536,864,,,,,0,630,,,,,,,,,,,,,,,,,181,D,hexagon,1,0,,,,,,,,,,,,,,,,repeat,number,numRpt,f,noRew,,,,,,1.6785,0,40,0,40,0,1,,,,,,,,,,,,,,,,,
295165,2022-12-05_23h27.58.175,vts_reward_expectancy_bt,2022.2.4,Win32,60.15399423,Chrome,1536,864,,,,,0,630,,,,,,,,,,,,,,,,,139,H,star,1,0,,,,,,,,,,,,,,,,repeat,number,numRpt,d,noRew,,,,,,0.7531,0,41,0,41,0,1,,,,,,,,,,,,,,,,,
295165,2022-12-05_23h27.58.175,vts_reward_expectancy_bt,2022.2.4,Win32,60.15399423,Chrome,1536,864,,,,,0,630,,,,,,,,,,,,,,,,,146,W,star,1,0,,,,,,,,,,,,,,,,repeat,number,numRpt,d,noRew,,,,,,0.697,0,42,0,42,0,1,,,,,,,,,,,,,,,,,
295165,2022-12-05_23h27.58.175,vts_reward_expectancy_bt,2022.2.4,Win32,60.15399423,Chrome,1536,864,,,,,0,630,,,,,,,,,,,,,,,,,167,Y,circle,1,0,,,,,,,,,,,,,,,,switch,letter,lettSwt,k,noRew,,,,,,0.8155,0,43,0,43,0,1,,,,,,,,,,,,,,,,,
295165,2022-12-05_23h27.58.175,vts_reward_expectancy_bt,2022.2.4,Win32,60.15399423,Chrome,1536,864,,,,,0,630,,,,,,,,,,,,,,,,,181,H,star,1,0,,,,,,,,,,,,,,,,repeat,letter,lettRpt,j,noRew,,,,,,1.1626,0,44,0,44,0,1,,,,,,,,,,,,,,,,,
295165,2022-12-05_23h27.58.175,vts_reward_expectancy_bt,2022.2.4,Win32,60.15399423,Chrome,1536,864,,,,,0,630,,,,,,,,,,,,,,,,,174,U,hexagon,1,0,,,,,,,,,,,,,,,,repeat,letter,lettRpt,k,noRew,,,,,,1.4294,0,45,0,45,0,1,,,,,,,,,,,,,,,,,
295165,2022-12-05_23h27.58.175,vts_reward_expectancy_bt,2022.2.4,Win32,60.15399423,Chrome,1536,864,,,,,0,630,,,,,,,,,,,,,,,,,139,D,star,1,0,,,,,,,,,,,,,,,,switch,number,numSwt,d,noRew,,,,,,0.9384,0,46,0,46,0,1,,,,,,,,,,,,,,,,,
295165,2022-12-05_23h27.58.175,vts_reward_expectancy_bt,2022.2.4,Win32,60.15399423,Chrome,1536,864,,,,,0,630,,,,,,,,,,,,,,,,,160,W,circle,-1,0,,,,,,,,,,,,,,,,switch,no_choice,NA,,noRew,,,,,,,0,47,0,47,0,1,,,,,,,,,,,,,,,,,
295165,2022-12-05_23h27.58.175,vts_reward_expectancy_bt,2022.2.4,Win32,60.15399423,Chrome,1536,864,,,,,0,630,,,,,,,,,,,,,,,,,174,F,circle,1,0,,,,,,,,,,,,,,,,switch,letter,lettSwt,j,noRew,,,,,,1.4249,0,48,0,48,0,1,,,,,,,,,,,,,,,,,
295165,2022-12-05_23h27.58.175,vts_reward_expectancy_bt,2022.2.4,Win32,60.15399423,Chrome,1536,864,,,,,0,630,,,,,,,,,,,,,,,,,146,S,hexagon,1,0,,,,,,,,,,,,,,,,repeat,letter,lettRpt,k,noRew,,,,,,1.883,0,49,0,49,0,1,,,,,,,,,,,,,,,,,
295165,2022-12-05_23h27.58.175,vts_reward_expectancy_bt,2022.2.4,Win32,60.15399423,Chrome,1536,864,,,,,0,630,,,,,,,,,,,,,,,,,132,H,circle,1,0,,,,,,,,,,,,,,,,repeat,letter,lettRpt,j,noRew,,,,,,1.1667,0,50,0,50,0,1,,,,,,,,,,,,,,,,,
295165,2022-12-05_23h27.58.175,vts_reward_expectancy_bt,2022.2.4,Win32,60.15399423,Chrome,1536,864,,,,,0,630,,,,,,,,,,,,,,,,,125,B,star,1,0,,,,,,,,,,,,,,,,switch,number,numSwt,d,noRew,,,,,,1.0998,0,51,0,51,0,1,,,,,,,,,,,,,,,,,
295165,2022-12-05_23h27.58.175,vts_reward_expectancy_bt,2022.2.4,Win32,60.15399423,Chrome,1536,864,,,,,0,630,,,,,,,,,,,,,,,,,160,B,hexagon,1,0,,,,,,,,,,,,,,,,switch,letter,lettSwt,j,noRew,,,,,,1.0129,0,52,0,52,0,1,,,,,,,,,,,,,,,,,
295165,2022-12-05_23h27.58.175,vts_reward_expectancy_bt,2022.2.4,Win32,60.15399423,Chrome,1536,864,,,,,0,630,,,,,,,,,,,,,,,,,139,U,star,1,0,,,,,,,,,,,,,,,,repeat,letter,lettRpt,k,noRew,,,,,,1.2455,0,53,0,53,0,1,,,,,,,,,,,,,,,,,
295165,2022-12-05_23h27.58.175,vts_reward_expectancy_bt,2022.2.4,Win32,60.15399423,Chrome,1536,864,,,,,0,630,,,,,,,,,,,,,,,,,146,W,star,1,0,,,,,,,,,,,,,,,,switch,number,numSwt,d,noRew,,,,,,1.0651,0,54,0,54,0,1,,,,,,,,,,,,,,,,,
295165,2022-12-05_23h27.58.175,vts_reward_expectancy_bt,2022.2.4,Win32,60.15399423,Chrome,1536,864,,,,,0,630,,,,,,,,,,,,,,,,,167,H,hexagon,1,0,,,,,,,,,,,,,,,,repeat,number,numRpt,f,noRew,,,,,,0.9965,0,55,0,55,0,1,,,,,,,,,,,,,,,,,
295165,2022-12-05_23h27.58.175,vts_reward_expectancy_bt,2022.2.4,Win32,60.15399423,Chrome,1536,864,,,,,0,630,,,,,,,,,,,,,,,,,132,U,circle,1,0,,,,,,,,,,,,,,,,switch,letter,lettSwt,k,noRew,,,,,,1.4807,0,56,0,56,0,1,,,,,,,,,,,,,,,,,
295165,2022-12-05_23h27.58.175,vts_reward_expectancy_bt,2022.2.4,Win32,60.15399423,Chrome,1536,864,,,,,0,630,,,,,,,,,,,,,,,,,167,H,star,1,0,,,,,,,,,,,,,,,,repeat,letter,lettRpt,j,noRew,,,,,,0.9505,0,57,0,57,0,1,,,,,,,,,,,,,,,,,
295165,2022-12-05_23h27.58.175,vts_reward_expectancy_bt,2022.2.4,Win32,60.15399423,Chrome,1536,864,,,,,0,630,,,,,,,,,,,,,,,,,181,W,hexagon,1,0,,,,,,,,,,,,,,,,repeat,letter,lettRpt,k,noRew,,,,,,1.5994,0,58,0,58,0,1,,,,,,,,,,,,,,,,,
295165,2022-12-05_23h27.58.175,vts_reward_expectancy_bt,2022.2.4,Win32,60.15399423,Chrome,1536,864,,,,,0,630,,,,,,,,,,,,,,,,,146,Y,star,1,0,,,,,,,,,,,,,,,,repeat,letter,lettRpt,k,noRew,,,,,,1.3148,0,59,0,59,0,1,,,,,,,,,,,,,,,,,
295165,2022-12-05_23h27.58.175,vts_reward_expectancy_bt,2022.2.4,Win32,60.15399423,Chrome,1536,864,,,,,0,630,,,,,,,,,,,,,,,,,160,Y,circle,1,0,,,,,,,,,,,,,,,,repeat,letter,lettRpt,k,noRew,,,,,,1.0673,0,60,0,60,0,1,,,,,,,,,,,,,,,,,
295165,2022-12-05_23h27.58.175,vts_reward_expectancy_bt,2022.2.4,Win32,60.15399423,Chrome,1536,864,,,,,0,630,,,,,,,,,,,,,,,,,174,F,star,1,0,,,,,,,,,,,,,,,,switch,number,numSwt,f,noRew,,,,,,1.0128,0,61,0,61,0,1,,,,,,,,,,,,,,,,,
295165,2022-12-05_23h27.58.175,vts_reward_expectancy_bt,2022.2.4,Win32,60.15399423,Chrome,1536,864,,,,,0,630,,,,,,,,,,,,,,,,,181,B,triangle,1,0,,,,,,,,,,,,,,,,repeat,number,numRpt,f,noRew,,,,,,0.7139,0,62,0,62,0,1,,,,,,,,,,,,,,,,,
295165,2022-12-05_23h27.58.175,vts_reward_expectancy_bt,2022.2.4,Win32,60.15399423,Chrome,1536,864,,,,,0,630,,,,,,,,,,,,,,,,,139,S,circle,1,0,,,,,,,,,,,,,,,,repeat,number,numRpt,d,noRew,,,,,,1.2528,0,63,0,63,0,1,,,,,,,,,,,,,,,,,
295165,2022-12-05_23h27.58.175,vts_reward_expectancy_bt,2022.2.4,Win32,60.15399423,Chrome,1536,864,,,,,,,,,,,,,,,,,,,,,,,,,,,,,,,,,,,,,,,,,,,,,,,,,,,,,,,,,,,,,,,,,,,,,,,,,,,,
295165,2022-12-05_23h27.58.175,vts_reward_expectancy_bt,2022.2.4,Win32,60.15399423,Chrome,1536,864,,,,,0,630,,,,,,,,,,,,,,,,,132,D,circle,1,0,,,,,,,,,,,,,,,,switch,letter,lettSwt,j,Hi,,,,,,2.7929,0,,,,,,space,10.4086,high,0,0,0,0,1,,,,,,,,,
295165,2022-12-05_23h27.58.175,vts_reward_expectancy_bt,2022.2.4,Win32,60.15399423,Chrome,1536,864,,,,,10,640,,,,,,,,,,,,,,,,,181,F,star,1,0,,,,,,,,,,,,,,,,switch,number,numSwt,f,Hi,,,,,,0.515,0,,,,,,,,high,1,0,1,0,1,,,,,,,,,
295165,2022-12-05_23h27.58.175,vts_reward_expectancy_bt,2022.2.4,Win32,60.15399423,Chrome,1536,864,,,,,1,641,,,,,,,,,,,,,,,,,160,S,hexagon,1,0,,,,,,,,,,,,,,,,switch,letter,lettSwt,k,Lo,,,,,,1.18,0,,,,,,,,high,2,0,2,0,1,,,,,,,,,
295165,2022-12-05_23h27.58.175,vts_reward_expectancy_bt,2022.2.4,Win32,60.15399423,Chrome,1536,864,,,,,1,642,,,,,,,,,,,,,,,,,174,Y,triangle,1,0,,,,,,,,,,,,,,,,switch,number,numSwt,f,Lo,,,,,,0.5639,0,,,,,,,,high,3,0,3,0,1,,,,,,,,,
295165,2022-12-05_23h27.58.175,vts_reward_expectancy_bt,2022.2.4,Win32,60.15399423,Chrome,1536,864,,,,,10,652,,,,,,,,,,,,,,,,,139,H,circle,1,0,,,,,,,,,,,,,,,,repeat,number,numRpt,d,Hi,,,,,,0.6467,0,,,,,,,,high,4,0,4,0,1,,,,,,,,,
295165,2022-12-05_23h27.58.175,vts_reward_expectancy_bt,2022.2.4,Win32,60.15399423,Chrome,1536,864,,,,,0,652,,,,,,,,,,,,,,,,,146,U,star,1,0,,,,,,,,,,,,,,,,switch,letter,lettSwt,k,Hi,,,,,,0.9305,0,,,,,,,,high,5,0,5,0,1,,,,,,,,,
295165,2022-12-05_23h27.58.175,vts_reward_expectancy_bt,2022.2.4,Win32,60.15399423,Chrome,1536,864,,,,,1,653,,,,,,,,,,,,,,,,,125,B,hexagon,1,0,,,,,,,,,,,,,,,,repeat,letter,lettRpt,j,Lo,,,,,,0.4826,0,,,,,,,,high,6,0,6,0,1,,,,,,,,,
295165,2022-12-05_23h27.58.175,vts_reward_expectancy_bt,2022.2.4,Win32,60.15399423,Chrome,1536,864,,,,,1,654,,,,,,,,,,,,,,,,,167,W,triangle,1,0,,,,,,,,,,,,,,,,repeat,letter,lettRpt,k,Lo,,,,,,0.8508,0,,,,,,,,high,7,0,7,0,1,,,,,,,,,
295165,2022-12-05_23h27.58.175,vts_reward_expectancy_bt,2022.2.4,Win32,60.15399423,Chrome,1536,864,,,,,10,664,,,,,,,,,,,,,,,,,132,D,circle,1,0,,,,,,,,,,,,,,,,repeat,letter,lettRpt,j,Hi,,,,,,0.6313,0,,,,,,,,high,8,0,8,0,1,,,,,,,,,
295165,2022-12-05_23h27.58.175,vts_reward_expectancy_bt,2022.2.4,Win32,60.15399423,Chrome,1536,864,,,,,1,665,,,,,,,,,,,,,,,,,181,F,triangle,1,0,,,,,,,,,,,,,,,,switch,number,numSwt,f,Lo,,,,,,0.7442,0,,,,,,,,high,9,0,9,0,1,,,,,,,,,
295165,2022-12-05_23h27.58.175,vts_reward_expectancy_bt,2022.2.4,Win32,60.15399423,Chrome,1536,864,,,,,1,666,,,,,,,,,,,,,,,,,160,S,hexagon,1,0,,,,,,,,,,,,,,,,repeat,number,numRpt,f,Lo,,,,,,0.7379,0,,,,,,,,high,10,0,10,0,1,,,,,,,,,
295165,2022-12-05_23h27.58.175,vts_reward_expectancy_bt,2022.2.4,Win32,60.15399423,Chrome,1536,864,,,,,10,676,,,,,,,,,,,,,,,,,174,Y,star,1,0,,,,,,,,,,,,,,,,repeat,number,numRpt,f,Hi,,,,,,0.5646,0,,,,,,,,high,11,0,11,0,1,,,,,,,,,
295165,2022-12-05_23h27.58.175,vts_reward_expectancy_bt,2022.2.4,Win32,60.15399423,Chrome,1536,864,,,,,10,686,,,,,,,,,,,,,,,,,139,H,triangle,1,0,,,,,,,,,,,,,,,,repeat,number,numRpt,d,Lo,,,,,,0.8861,0,,,,,,,,high,12,0,12,0,1,,,,,,,,,
295165,2022-12-05_23h27.58.175,vts_reward_expectancy_bt,2022.2.4,Win32,60.15399423,Chrome,1536,864,,,,,1,687,,,,,,,,,,,,,,,,,146,U,hexagon,1,0,,,,,,,,,,,,,,,,switch,letter,lettSwt,k,Lo,,,,,,1.516,0,,,,,,,,high,13,0,13,0,1,,,,,,,,,
295165,2022-12-05_23h27.58.175,vts_reward_expectancy_bt,2022.2.4,Win32,60.15399423,Chrome,1536,864,,,,,10,697,,,,,,,,,,,,,,,,,125,B,star,1,0,,,,,,,,,,,,,,,,repeat,letter,lettRpt,j,Hi,,,,,,0.8462,0,,,,,,,,high,14,0,14,0,1,,,,,,,,,
295165,2022-12-05_23h27.58.175,vts_reward_expectancy_bt,2022.2.4,Win32,60.15399423,Chrome,1536,864,,,,,10,707,,,,,,,,,,,,,,,,,167,W,circle,1,0,,,,,,,,,,,,,,,,switch,number,numSwt,f,Hi,,,,,,0.4809,0,,,,,,,,high,15,0,15,0,1,,,,,,,,,
295165,2022-12-05_23h27.58.175,vts_reward_expectancy_bt,2022.2.4,Win32,60.15399423,Chrome,1536,864,,,,,1,708,,,,,,,,,,,,,,,,,160,Y,hexagon,1,0,,,,,,,,,,,,,,,,repeat,number,numRpt,f,Lo,,,,,,0.6969,0,,,,,,,,high,16,0,16,0,1,,,,,,,,,
295165,2022-12-05_23h27.58.175,vts_reward_expectancy_bt,2022.2.4,Win32,60.15399423,Chrome,1536,864,,,,,1,709,,,,,,,,,,,,,,,,,167,U,triangle,1,0,,,,,,,,,,,,,,,,repeat,number,numRpt,f,Lo,,,,,,0.6142,0,,,,,,,,high,17,0,17,0,1,,,,,,,,,
295165,2022-12-05_23h27.58.175,vts_reward_expectancy_bt,2022.2.4,Win32,60.15399423,Chrome,1536,864,,,,,0,709,,,,,,,,,,,,,,,,,146,S,circle,1,0,,,,,,,,,,,,,,,,repeat,number,numRpt,d,Hi,,,,,,1.7938,0,,,,,,,,high,18,0,18,0,1,,,,,,,,,
295165,2022-12-05_23h27.58.175,vts_reward_expectancy_bt,2022.2.4,Win32,60.15399423,Chrome,1536,864,,,,,0,709,,,,,,,,,,,,,,,,,181,B,star,1,0,,,,,,,,,,,,,,,,switch,letter,lettSwt,j,Hi,,,,,,1.0628,0,,,,,,,,high,19,0,19,0,1,,,,,,,,,
295165,2022-12-05_23h27.58.175,vts_reward_expectancy_bt,2022.2.4,Win32,60.15399423,Chrome,1536,864,,,,,0,709,,,,,,,,,,,,,,,,,132,H,circle,0,0,,,,,,,,,,,,,,,,repeat,letter,NA,k,Hi,,,,,,1.1462,0,,,,,,,,high,20,0,20,0,1,,,,,,,,,
295165,2022-12-05_23h27.58.175,vts_reward_expectancy_bt,2022.2.4,Win32,60.15399423,Chrome,1536,864,,,,,1,710,,,,,,,,,,,,,,,,,139,W,triangle,1,1,,,,,,,,,,,,,,,,switch,number,numSwt,d,Lo,,,,,,0.7319,0,,,,,,,,high,21,0,21,0,1,,,,,,,,,
295165,2022-12-05_23h27.58.175,vts_reward_expectancy_bt,2022.2.4,Win32,60.15399423,Chrome,1536,864,,,,,0,710,,,,,,,,,,,,,,,,,125,F,star,1,0,,,,,,,,,,,,,,,,switch,letter,lettSwt,j,Hi,,,,,,1.2975,0,,,,,,,,high,22,0,22,0,1,,,,,,,,,
295165,2022-12-05_23h27.58.175,vts_reward_expectancy_bt,2022.2.4,Win32,60.15399423,Chrome,1536,864,,,,,0,710,,,,,,,,,,,,,,,,,174,D,hexagon,0,0,,,,,,,,,,,,,,,,switch,number,NA,d,Hi,,,,,,2.8414,0,,,,,,,,high,23,0,23,0,1,,,,,,,,,
295165,2022-12-05_23h27.58.175,vts_reward_expectancy_bt,2022.2.4,Win32,60.15399423,Chrome,1536,864,,,,,0,710,,,,,,,,,,,,,,,,,174,S,hexagon,-1,1,,,,,,,,,,,,,,,,switch,no_choice,NA,,Hi,,,,,,,0,,,,,,,,high,24,0,24,0,1,,,,,,,,,
295165,2022-12-05_23h27.58.175,vts_reward_expectancy_bt,2022.2.4,Win32,60.15399423,Chrome,1536,864,,,,,10,720,,,,,,,,,,,,,,,,,139,B,triangle,1,0,,,,,,,,,,,,,,,,switch,letter,lettSwt,j,Lo,,,,,,1.6613,0,,,,,,,,high,25,0,25,0,1,,,,,,,,,
295165,2022-12-05_23h27.58.175,vts_reward_expectancy_bt,2022.2.4,Win32,60.15399423,Chrome,1536,864,,,,,0,720,,,,,,,,,,,,,,,,,160,Y,star,1,0,,,,,,,,,,,,,,,,repeat,letter,lettRpt,k,Hi,,,,,,2.1268,0,,,,,,,,high,26,0,26,0,1,,,,,,,,,
295165,2022-12-05_23h27.58.175,vts_reward_expectancy_bt,2022.2.4,Win32,60.15399423,Chrome,1536,864,,,,,0,720,,,,,,,,,,,,,,,,,167,D,circle,1,0,,,,,,,,,,,,,,,,repeat,letter,lettRpt,j,Hi,,,,,,1.163,0,,,,,,,,high,27,0,27,0,1,,,,,,,,,
295165,2022-12-05_23h27.58.175,vts_reward_expectancy_bt,2022.2.4,Win32,60.15399423,Chrome,1536,864,,,,,0,720,,,,,,,,,,,,,,,,,132,F,circle,1,0,,,,,,,,,,,,,,,,repeat,letter,lettRpt,j,Hi,,,,,,1.3119,0,,,,,,,,high,28,0,28,0,1,,,,,,,,,
295165,2022-12-05_23h27.58.175,vts_reward_expectancy_bt,2022.2.4,Win32,60.15399423,Chrome,1536,864,,,,,0,720,,,,,,,,,,,,,,,,,146,H,triangle,0,0,,,,,,,,,,,,,,,,repeat,letter,NA,k,Hi,,,,,,0.863,0,,,,,,,,high,29,0,29,0,1,,,,,,,,,
295165,2022-12-05_23h27.58.175,vts_reward_expectancy_bt,2022.2.4,Win32,60.15399423,Chrome,1536,864,,,,,1,721,,,,,,,,,,,,,,,,,125,W,hexagon,1,1,,,,,,,,,,,,,,,,switch,number,numSwt,d,Lo,,,,,,0.9294,0,,,,,,,,high,30,0,30,0,1,,,,,,,,,
295165,2022-12-05_23h27.58.175,vts_reward_expectancy_bt,2022.2.4,Win32,60.15399423,Chrome,1536,864,,,,,0,721,,,,,,,,,,,,,,,,,181,U,star,1,0,,,,,,,,,,,,,,,,repeat,number,numRpt,f,Hi,,,,,,1.1292,0,,,,,,,,high,31,0,31,0,1,,,,,,,,,
295165,2022-12-05_23h27.58.175,vts_reward_expectancy_bt,2022.2.4,Win32,60.15399423,Chrome,1536,864,,,,,10,731,,,,,,,,,,,,,,,,,160,U,circle,1,0,,,,,,,,,,,,,,,,repeat,number,numRpt,f,Hi,,,,,,0.1666,1,,,,,,space,0.83,high,0,0,0,0,1,,,,,,,,,
295165,2022-12-05_23h27.58.175,vts_reward_expectancy_bt,2022.2.4,Win32,60.15399423,Chrome,1536,864,,,,,0,731,,,,,,,,,,,,,,,,,139,H,hexagon,0,0,,,,,,,,,,,,,,,,switch,letter,NA,k,Hi,,,,,,0.2198,1,,,,,,,,high,1,0,1,0,1,,,,,,,,,
295165,2022-12-05_23h27.58.175,vts_reward_expectancy_bt,2022.2.4,Win32,60.15399423,Chrome,1536,864,,,,,0,731,,,,,,,,,,,,,,,,,174,F,triangle,0,1,,,,,,,,,,,,,,,,switch,number,NA,d,Hi,,,,,,0.9492,1,,,,,,,,high,2,0,2,0,1,,,,,,,,,
295165,2022-12-05_23h27.58.175,vts_reward_expectancy_bt,2022.2.4,Win32,60.15399423,Chrome,1536,864,,,,,0,731,,,,,,,,,,,,,,,,,167,W,star,0,1,,,,,,,,,,,,,,,,switch,letter,NA,j,Hi,,,,,,2.0644,1,,,,,,,,high,3,0,3,0,1,,,,,,,,,
295165,2022-12-05_23h27.58.175,vts_reward_expectancy_bt,2022.2.4,Win32,60.15399423,Chrome,1536,864,,,,,0,731,,,,,,,,,,,,,,,,,125,D,circle,1,1,,,,,,,,,,,,,,,,switch,number,numSwt,d,Hi,,,,,,0.8633,1,,,,,,,,high,4,0,4,0,1,,,,,,,,,
295165,2022-12-05_23h27.58.175,vts_reward_expectancy_bt,2022.2.4,Win32,60.15399423,Chrome,1536,864,,,,,0,731,,,,,,,,,,,,,,,,,146,B,hexagon,0,0,,,,,,,,,,,,,,,,repeat,number,NA,f,Hi,,,,,,2.4428,1,,,,,,,,high,5,0,5,0,1,,,,,,,,,
295165,2022-12-05_23h27.58.175,vts_reward_expectancy_bt,2022.2.4,Win32,60.15399423,Chrome,1536,864,,,,,0,731,,,,,,,,,,,,,,,,,132,Y,triangle,0,1,,,,,,,,,,,,,,,,switch,letter,NA,j,Hi,,,,,,0.4477,1,,,,,,,,high,6,0,6,0,1,,,,,,,,,
295165,2022-12-05_23h27.58.175,vts_reward_expectancy_bt,2022.2.4,Win32,60.15399423,Chrome,1536,864,,,,,10,741,,,,,,,,,,,,,,,,,181,S,star,1,1,,,,,,,,,,,,,,,,switch,number,numSwt,f,Hi,,,,,,0.0179,1,,,,,,,,high,7,0,7,0,1,,,,,,,,,
295165,2022-12-05_23h27.58.175,vts_reward_expectancy_bt,2022.2.4,Win32,60.15399423,Chrome,1536,864,,,,,0,741,,,,,,,,,,,,,,,,,160,U,circle,0,0,,,,,,,,,,,,,,,,switch,letter,NA,j,Hi,,,,,,0.8384,1,,,,,,,,high,8,0,8,0,1,,,,,,,,,
295165,2022-12-05_23h27.58.175,vts_reward_expectancy_bt,2022.2.4,Win32,60.15399423,Chrome,1536,864,,,,,0,741,,,,,,,,,,,,,,,,,139,H,triangle,0,1,,,,,,,,,,,,,,,,switch,number,NA,f,Hi,,,,,,0.8845,1,,,,,,,,high,9,0,9,0,1,,,,,,,,,
295165,2022-12-05_23h27.58.175,vts_reward_expectancy_bt,2022.2.4,Win32,60.15399423,Chrome,1536,864,,,,,0,741,,,,,,,,,,,,,,,,,174,F,hexagon,0,1,,,,,,,,,,,,,,,,switch,letter,NA,k,Hi,,,,,,2.0656,1,,,,,,,,high,10,0,10,0,1,,,,,,,,,
295165,2022-12-05_23h27.58.175,vts_reward_expectancy_bt,2022.2.4,Win32,60.15399423,Chrome,1536,864,,,,,0,741,,,,,,,,,,,,,,,,,167,W,star,1,1,,,,,,,,,,,,,,,,switch,number,numSwt,f,Hi,,,,,,1.4146,1,,,,,,,,high,11,0,11,0,1,,,,,,,,,
295165,2022-12-05_23h27.58.175,vts_reward_expectancy_bt,2022.2.4,Win32,60.15399423,Chrome,1536,864,,,,,0,741,,,,,,,,,,,,,,,,,125,D,triangle,0,0,,,,,,,,,,,,,,,,repeat,number,NA,f,Hi,,,,,,1.1823,1,,,,,,,,high,12,0,12,0,1,,,,,,,,,
295165,2022-12-05_23h27.58.175,vts_reward_expectancy_bt,2022.2.4,Win32,60.15399423,Chrome,1536,864,,,,,0,741,,,,,,,,,,,,,,,,,146,B,hexagon,0,1,,,,,,,,,,,,,,,,repeat,number,NA,f,Hi,,,,,,0.039,1,,,,,,,,high,13,0,13,0,1,,,,,,,,,
295165,2022-12-05_23h27.58.175,vts_reward_expectancy_bt,2022.2.4,Win32,60.15399423,Chrome,1536,864,,,,,0,741,,,,,,,,,,,,,,,,,132,Y,circle,0,1,,,,,,,,,,,,,,,,repeat,number,NA,f,Hi,,,,,,1.316,1,,,,,,,,high,14,0,14,0,1,,,,,,,,,
295165,2022-12-05_23h27.58.175,vts_reward_expectancy_bt,2022.2.4,Win32,60.15399423,Chrome,1536,864,,,,,0,741,,,,,,,,,,,,,,,,,181,S,star,0,1,,,,,,,,,,,,,,,,switch,letter,NA,j,Hi,,,,,,1.1823,1,,,,,,,,high,15,0,15,0,1,,,,,,,,,
295165,2022-12-05_23h27.58.175,vts_reward_expectancy_bt,2022.2.4,Win32,60.15399423,Chrome,1536,864,,,,,10,751,,,,,,,,,,,,,,,,,125,Y,triangle,1,1,,,,,,,,,,,,,,,,repeat,letter,lettRpt,k,Lo,,,,,,1.3118,1,,,,,,,,high,16,0,16,0,1,,,,,,,,,
295165,2022-12-05_23h27.58.175,vts_reward_expectancy_bt,2022.2.4,Win32,60.15399423,Chrome,1536,864,,,,,0,751,,,,,,,,,,,,,,,,,160,H,star,-1,0,,,,,,,,,,,,,,,,switch,no_choice,NA,,Lo,,,,,,,1,,,,,,,,high,17,0,17,0,1,,,,,,,,,
295165,2022-12-05_23h27.58.175,vts_reward_expectancy_bt,2022.2.4,Win32,60.15399423,Chrome,1536,864,,,,,0,751,,,,,,,,,,,,,,,,,167,F,hexagon,0,0,,,,,,,,,,,,,,,,switch,number,NA,d,Lo,,,,,,1.9935,1,,,,,,,,high,18,0,18,0,1,,,,,,,,,
295165,2022-12-05_23h27.58.175,vts_reward_expectancy_bt,2022.2.4,Win32,60.15399423,Chrome,1536,864,,,,,0,751,,,,,,,,,,,,,,,,,181,B,circle,0,1,,,,,,,,,,,,,,,,repeat,number,NA,d,Lo,,,,,,0.8968,1,,,,,,,,high,19,0,19,0,1,,,,,,,,,
295165,2022-12-05_23h27.58.175,vts_reward_expectancy_bt,2022.2.4,Win32,60.15399423,Chrome,1536,864,,,,,0,751,,,,,,,,,,,,,,,,,174,U,triangle,0,1,,,,,,,,,,,,,,,,repeat,number,NA,d,Lo,,,,,,0.0748,1,,,,,,,,high,20,0,20,0,1,,,,,,,,,
295165,2022-12-05_23h27.58.175,vts_reward_expectancy_bt,2022.2.4,Win32,60.15399423,Chrome,1536,864,,,,,0,751,,,,,,,,,,,,,,,,,146,S,hexagon,0,1,,,,,,,,,,,,,,,,switch,letter,NA,j,Lo,,,,,,0.776,1,,,,,,,,high,21,0,21,0,1,,,,,,,,,
295165,2022-12-05_23h27.58.175,vts_reward_expectancy_bt,2022.2.4,Win32,60.15399423,Chrome,1536,864,,,,,0,751,,,,,,,,,,,,,,,,,139,W,star,1,1,,,,,,,,,,,,,,,,switch,number,numSwt,d,Hi,,,,,,0.6471,1,,,,,,,,high,22,0,22,0,1,,,,,,,,,
295165,2022-12-05_23h27.58.175,vts_reward_expectancy_bt,2022.2.4,Win32,60.15399423,Chrome,1536,864,,,,,0,751,,,,,,,,,,,,,,,,,132,D,circle,1,0,,,,,,,,,,,,,,,,repeat,number,numRpt,d,Hi,,,,,,0.9956,1,,,,,,,,high,23,0,23,0,1,,,,,,,,,
295165,2022-12-05_23h27.58.175,vts_reward_expectancy_bt,2022.2.4,Win32,60.15399423,Chrome,1536,864,,,,,1,752,,,,,,,,,,,,,,,,,160,W,triangle,1,0,,,,,,,,,,,,,,,,repeat,number,numRpt,f,Lo,,,,,,1.5017,1,,,,,,,,high,24,0,24,0,1,,,,,,,,,
295165,2022-12-05_23h27.58.175,vts_reward_expectancy_bt,2022.2.4,Win32,60.15399423,Chrome,1536,864,,,,,1,753,,,,,,,,,,,,,,,,,167,Y,hexagon,1,0,,,,,,,,,,,,,,,,repeat,number,numRpt,f,Lo,,,,,,0.5649,1,,,,,,,,high,25,0,25,0,1,,,,,,,,,
295165,2022-12-05_23h27.58.175,vts_reward_expectancy_bt,2022.2.4,Win32,60.15399423,Chrome,1536,864,,,,,0,753,,,,,,,,,,,,,,,,,181,S,star,-1,0,,,,,,,,,,,,,,,,switch,no_choice,NA,,Lo,,,,,,,1,,,,,,,,high,26,0,26,0,1,,,,,,,,,
295165,2022-12-05_23h27.58.175,vts_reward_expectancy_bt,2022.2.4,Win32,60.15399423,Chrome,1536,864,,,,,0,753,,,,,,,,,,,,,,,,,139,D,circle,0,0,,,,,,,,,,,,,,,,switch,number,NA,f,Lo,,,,,,0.431,1,,,,,,,,high,27,0,27,0,1,,,,,,,,,
295165,2022-12-05_23h27.58.175,vts_reward_expectancy_bt,2022.2.4,Win32,60.15399423,Chrome,1536,864,,,,,1,754,,,,,,,,,,,,,,,,,146,H,hexagon,1,1,,,,,,,,,,,,,,,,switch,letter,lettSwt,j,Lo,,,,,,0.3143,1,,,,,,,,high,28,0,28,0,1,,,,,,,,,
295165,2022-12-05_23h27.58.175,vts_reward_expectancy_bt,2022.2.4,Win32,60.15399423,Chrome,1536,864,,,,,0,754,,,,,,,,,,,,,,,,,132,B,star,0,0,,,,,,,,,,,,,,,,switch,number,NA,f,Lo,,,,,,2.8909,1,,,,,,,,high,29,0,29,0,1,,,,,,,,,
295165,2022-12-05_23h27.58.175,vts_reward_expectancy_bt,2022.2.4,Win32,60.15399423,Chrome,1536,864,,,,,0,754,,,,,,,,,,,,,,,,,125,F,triangle,0,1,,,,,,,,,,,,,,,,repeat,number,NA,f,Lo,,,,,,0.1151,1,,,,,,,,high,30,0,30,0,1,,,,,,,,,
295165,2022-12-05_23h27.58.175,vts_reward_expectancy_bt,2022.2.4,Win32,60.15399423,Chrome,1536,864,,,,,0,754,,,,,,,,,,,,,,,,,174,U,circle,-1,1,,,,,,,,,,,,,,,,switch,no_choice,NA,,Lo,,,,,,,1,,,,,,,,high,31,0,31,0,1,,,,,,,,,
295165,2022-12-05_23h27.58.175,vts_reward_expectancy_bt,2022.2.4,Win32,60.15399423,Chrome,1536,864,,,,,0,754,,,,,,,,,,,,,,,,,125,Y,triangle,0,0,,,,,,,,,,,,,,,,switch,number,NA,f,Lo,,,,,,1.3441,2,,,,,,space,1.3618,high,0,0,0,0,1,,,,,,,,,
295165,2022-12-05_23h27.58.175,vts_reward_expectancy_bt,2022.2.4,Win32,60.15399423,Chrome,1536,864,,,,,0,754,,,,,,,,,,,,,,,,,181,S,circle,0,1,,,,,,,,,,,,,,,,switch,letter,NA,j,Lo,,,,,,0.0156,2,,,,,,,,high,1,0,1,0,1,,,,,,,,,
295165,2022-12-05_23h27.58.175,vts_reward_expectancy_bt,2022.2.4,Win32,60.15399423,Chrome,1536,864,,,,,1,755,,,,,,,,,,,,,,,,,132,U,hexagon,1,1,,,,,,,,,,,,,,,,repeat,letter,lettRpt,k,Lo,,,,,,0.6475,2,,,,,,,,high,2,0,2,0,1,,,,,,,,,
295165,2022-12-05_23h27.58.175,vts_reward_expectancy_bt,2022.2.4,Win32,60.15399423,Chrome,1536,864,,,,,0,755,,,,,,,,,,,,,,,,,160,D,star,-1,0,,,,,,,,,,,,,,,,switch,no_choice,NA,,Lo,,,,,,,2,,,,,,,,high,3,0,3,0,1,,,,,,,,,
295165,2022-12-05_23h27.58.175,vts_reward_expectancy_bt,2022.2.4,Win32,60.15399423,Chrome,1536,864,,,,,1,756,,,,,,,,,,,,,,,,,167,W,triangle,1,0,,,,,,,,,,,,,,,,switch,number,numSwt,f,Lo,,,,,,1.8109,2,,,,,,,,high,4,0,4,0,1,,,,,,,,,
295165,2022-12-05_23h27.58.175,vts_reward_expectancy_bt,2022.2.4,Win32,60.15399423,Chrome,1536,864,,,,,0,756,,,,,,,,,,,,,,,,,139,F,circle,0,0,,,,,,,,,,,,,,,,repeat,number,NA,f,Lo,,,,,,1.3666,2,,,,,,,,high,5,0,5,0,1,,,,,,,,,
295165,2022-12-05_23h27.58.175,vts_reward_expectancy_bt,2022.2.4,Win32,60.15399423,Chrome,1536,864,,,,,1,757,,,,,,,,,,,,,,,,,174,H,hexagon,1,1,,,,,,,,,,,,,,,,repeat,number,numRpt,f,Lo,,,,,,1.7781,2,,,,,,,,high,6,0,6,0,1,,,,,,,,,
295165,2022-12-05_23h27.58.175,vts_reward_expectancy_bt,2022.2.4,Win32,60.15399423,Chrome,1536,864,,,,,0,757,,,,,,,,,,,,,,,,,146,B,star,-1,0,,,,,,,,,,,,,,,,switch,no_choice,NA,,Lo,,,,,,,2,,,,,,,,high,7,0,7,0,1,,,,,,,,,
295165,2022-12-05_23h27.58.175,vts_reward_expectancy_bt,2022.2.4,Win32,60.15399423,Chrome,1536,864,,,,,1,758,,,,,,,,,,,,,,,,,125,Y,star,1,0,,,,,,,,,,,,,,,,switch,letter,lettSwt,k,Hi,,,,,,0.2483,2,,,,,,,,high,8,0,8,0,1,,,,,,,,,
295165,2022-12-05_23h27.58.175,vts_reward_expectancy_bt,2022.2.4,Win32,60.15399423,Chrome,1536,864,,,,,0,758,,,,,,,,,,,,,,,,,181,S,hexagon,0,0,,,,,,,,,,,,,,,,switch,number,NA,d,Hi,,,,,,1.6103,2,,,,,,,,high,9,0,9,0,1,,,,,,,,,
295165,2022-12-05_23h27.58.175,vts_reward_expectancy_bt,2022.2.4,Win32,60.15399423,Chrome,1536,864,,,,,0,758,,,,,,,,,,,,,,,,,132,U,circle,-1,1,,,,,,,,,,,,,,,,switch,no_choice,NA,,Hi,,,,,,,2,,,,,,,,high,10,0,10,0,1,,,,,,,,,
295165,2022-12-05_23h27.58.175,vts_reward_expectancy_bt,2022.2.4,Win32,60.15399423,Chrome,1536,864,,,,,0,758,,,,,,,,,,,,,,,,,160,D,triangle,-1,0,,,,,,,,,,,,,,,,repeat,no_choice,NA,,Hi,,,,,,,2,,,,,,,,high,11,0,11,0,1,,,,,,,,,
295165,2022-12-05_23h27.58.175,vts_reward_expectancy_bt,2022.2.4,Win32,60.15399423,Chrome,1536,864,,,,,0,758,,,,,,,,,,,,,,,,,167,W,circle,-1,0,,,,,,,,,,,,,,,,repeat,no_choice,NA,,Hi,,,,,,,2,,,,,,,,high,12,0,12,0,1,,,,,,,,,
295165,2022-12-05_23h27.58.175,vts_reward_expectancy_bt,2022.2.4,Win32,60.15399423,Chrome,1536,864,,,,,0,758,,,,,,,,,,,,,,,,,139,F,triangle,-1,0,,,,,,,,,,,,,,,,repeat,no_choice,NA,,Hi,,,,,,,2,,,,,,,,high,13,0,13,0,1,,,,,,,,,
295165,2022-12-05_23h27.58.175,vts_reward_expectancy_bt,2022.2.4,Win32,60.15399423,Chrome,1536,864,,,,,0,758,,,,,,,,,,,,,,,,,174,H,hexagon,0,0,,,,,,,,,,,,,,,,switch,letter,NA,k,Hi,,,,,,1.9549,2,,,,,,,,high,14,0,14,0,1,,,,,,,,,
295165,2022-12-05_23h27.58.175,vts_reward_expectancy_bt,2022.2.4,Win32,60.15399423,Chrome,1536,864,,,,,0,758,,,,,,,,,,,,,,,,,146,B,star,1,1,,,,,,,,,,,,,,,,repeat,letter,lettRpt,j,Hi,,,,,,2.2928,2,,,,,,,,high,15,0,15,0,1,,,,,,,,,
295165,2022-12-05_23h27.58.175,vts_reward_expectancy_bt,2022.2.4,Win32,60.15399423,Chrome,1536,864,,,,,0,758,,,,,,,,,,,,,,,,,167,S,hexagon,-1,0,,,,,,,,,,,,,,,,switch,no_choice,NA,,Hi,,,,,,,2,,,,,,,,high,16,0,16,0,1,,,,,,,,,
295165,2022-12-05_23h27.58.175,vts_reward_expectancy_bt,2022.2.4,Win32,60.15399423,Chrome,1536,864,,,,,0,758,,,,,,,,,,,,,,,,,132,F,star,-1,0,,,,,,,,,,,,,,,,repeat,no_choice,NA,,Hi,,,,,,,2,,,,,,,,high,17,0,17,0,1,,,,,,,,,
295165,2022-12-05_23h27.58.175,vts_reward_expectancy_bt,2022.2.4,Win32,60.15399423,Chrome,1536,864,,,,,0,758,,,,,,,,,,,,,,,,,125,B,circle,-1,0,,,,,,,,,,,,,,,,repeat,no_choice,NA,,Hi,,,,,,,2,,,,,,,,high,18,0,18,0,1,,,,,,,,,
295165,2022-12-05_23h27.58.175,vts_reward_expectancy_bt,2022.2.4,Win32,60.15399423,Chrome,1536,864,,,,,0,758,,,,,,,,,,,,,,,,,139,D,triangle,-1,0,,,,,,,,,,,,,,,,repeat,no_choice,NA,,Hi,,,,,,,2,,,,,,,,high,19,0,19,0,1,,,,,,,,,
295165,2022-12-05_23h27.58.175,vts_reward_expectancy_bt,2022.2.4,Win32,60.15399423,Chrome,1536,864,,,,,0,758,,,,,,,,,,,,,,,,,174,U,hexagon,-1,0,,,,,,,,,,,,,,,,repeat,no_choice,NA,,Hi,,,,,,,2,,,,,,,,high,20,0,20,0,1,,,,,,,,,
295165,2022-12-05_23h27.58.175,vts_reward_expectancy_bt,2022.2.4,Win32,60.15399423,Chrome,1536,864,,,,,1,759,,,,,,,,,,,,,,,,,160,W,triangle,1,0,,,,,,,,,,,,,,,,switch,letter,lettSwt,k,Lo,,,,,,1.6392,2,,,,,,,,high,21,0,21,0,1,,,,,,,,,
295165,2022-12-05_23h27.58.175,vts_reward_expectancy_bt,2022.2.4,Win32,60.15399423,Chrome,1536,864,,,,,0,759,,,,,,,,,,,,,,,,,181,Y,circle,1,0,,,,,,,,,,,,,,,,repeat,letter,lettRpt,k,Hi,,,,,,1.7451,2,,,,,,,,high,22,0,22,0,1,,,,,,,,,
295165,2022-12-05_23h27.58.175,vts_reward_expectancy_bt,2022.2.4,Win32,60.15399423,Chrome,1536,864,,,,,10,769,,,,,,,,,,,,,,,,,146,H,star,1,0,,,,,,,,,,,,,,,,repeat,letter,lettRpt,j,Hi,,,,,,1.0205,2,,,,,,,,high,23,0,23,0,1,,,,,,,,,
295165,2022-12-05_23h27.58.175,vts_reward_expectancy_bt,2022.2.4,Win32,60.15399423,Chrome,1536,864,,,,,0,769,,,,,,,,,,,,,,,,,146,Y,hexagon,0,0,,,,,,,,,,,,,,,,repeat,letter,NA,j,Hi,,,,,,0.915,2,,,,,,,,high,24,0,24,0,1,,,,,,,,,
295165,2022-12-05_23h27.58.175,vts_reward_expectancy_bt,2022.2.4,Win32,60.15399423,Chrome,1536,864,,,,,10,779,,,,,,,,,,,,,,,,,167,W,triangle,1,1,,,,,,,,,,,,,,,,repeat,letter,lettRpt,k,Lo,,,,,,2.0118,2,,,,,,,,high,25,0,25,0,1,,,,,,,,,
295165,2022-12-05_23h27.58.175,vts_reward_expectancy_bt,2022.2.4,Win32,60.15399423,Chrome,1536,864,,,,,0,779,,,,,,,,,,,,,,,,,160,F,star,1,0,,,,,,,,,,,,,,,,repeat,letter,lettRpt,j,Hi,,,,,,1.8004,2,,,,,,,,high,26,0,26,0,1,,,,,,,,,
295165,2022-12-05_23h27.58.175,vts_reward_expectancy_bt,2022.2.4,Win32,60.15399423,Chrome,1536,864,,,,,0,779,,,,,,,,,,,,,,,,,174,B,circle,-1,0,,,,,,,,,,,,,,,,switch,no_choice,NA,,Hi,,,,,,,2,,,,,,,,high,27,0,27,0,1,,,,,,,,,
295165,2022-12-05_23h27.58.175,vts_reward_expectancy_bt,2022.2.4,Win32,60.15399423,Chrome,1536,864,,,,,0,779,,,,,,,,,,,,,,,,,139,D,triangle,-1,0,,,,,,,,,,,,,,,,repeat,no_choice,NA,,Hi,,,,,,,2,,,,,,,,high,28,0,28,0,1,,,,,,,,,
295165,2022-12-05_23h27.58.175,vts_reward_expectancy_bt,2022.2.4,Win32,60.15399423,Chrome,1536,864,,,,,0,779,,,,,,,,,,,,,,,,,181,S,star,-1,0,,,,,,,,,,,,,,,,repeat,no_choice,NA,,Hi,,,,,,,2,,,,,,,,high,29,0,29,0,1,,,,,,,,,
295165,2022-12-05_23h27.58.175,vts_reward_expectancy_bt,2022.2.4,Win32,60.15399423,Chrome,1536,864,,,,,0,779,,,,,,,,,,,,,,,,,132,U,circle,-1,0,,,,,,,,,,,,,,,,repeat,no_choice,NA,,Hi,,,,,,,2,,,,,,,,high,30,0,30,0,1,,,,,,,,,
295165,2022-12-05_23h27.58.175,vts_reward_expectancy_bt,2022.2.4,Win32,60.15399423,Chrome,1536,864,,,,,0,779,,,,,,,,,,,,,,,,,125,H,hexagon,-1,0,,,,,,,,,,,,,,,,repeat,no_choice,NA,,Hi,,,,,,,2,,,,,,,,high,31,0,31,0,1,,,,,,,,,
295165,2022-12-05_23h27.58.175,vts_reward_expectancy_bt,2022.2.4,Win32,60.15399423,Chrome,1536,864,,,,,0,779,,,,,,,,,,,,,,,,,174,Y,triangle,-1,0,,,,,,,,,,,,,,,,repeat,no_choice,NA,,Hi,,,,,,,3,,,,,,space,2.0304,high,0,0,0,0,1,,,,,,,,,
295165,2022-12-05_23h27.58.175,vts_reward_expectancy_bt,2022.2.4,Win32,60.15399423,Chrome,1536,864,,,,,0,779,,,,,,,,,,,,,,,,,139,W,circle,-1,0,,,,,,,,,,,,,,,,repeat,no_choice,NA,,Hi,,,,,,,3,,,,,,,,high,1,0,1,0,1,,,,,,,,,
295165,2022-12-05_23h27.58.175,vts_reward_expectancy_bt,2022.2.4,Win32,60.15399423,Chrome,1536,864,,,,,0,779,,,,,,,,,,,,,,,,,160,D,hexagon,-1,0,,,,,,,,,,,,,,,,repeat,no_choice,NA,,Hi,,,,,,,3,,,,,,,,high,2,0,2,0,1,,,,,,,,,
295165,2022-12-05_23h27.58.175,vts_reward_expectancy_bt,2022.2.4,Win32,60.15399423,Chrome,1536,864,,,,,0,779,,,,,,,,,,,,,,,,,181,U,star,-1,0,,,,,,,,,,,,,,,,repeat,no_choice,NA,,Hi,,,,,,,3,,,,,,,,high,3,0,3,0,1,,,,,,,,,
295165,2022-12-05_23h27.58.175,vts_reward_expectancy_bt,2022.2.4,Win32,60.15399423,Chrome,1536,864,,,,,0,779,,,,,,,,,,,,,,,,,125,F,triangle,-1,0,,,,,,,,,,,,,,,,repeat,no_choice,NA,,Hi,,,,,,,3,,,,,,,,high,4,0,4,0,1,,,,,,,,,
295165,2022-12-05_23h27.58.175,vts_reward_expectancy_bt,2022.2.4,Win32,60.15399423,Chrome,1536,864,,,,,0,779,,,,,,,,,,,,,,,,,132,H,circle,-1,0,,,,,,,,,,,,,,,,repeat,no_choice,NA,,Hi,,,,,,,3,,,,,,,,high,5,0,5,0,1,,,,,,,,,
295165,2022-12-05_23h27.58.175,vts_reward_expectancy_bt,2022.2.4,Win32,60.15399423,Chrome,1536,864,,,,,1,780,,,,,,,,,,,,,,,,,167,S,hexagon,1,0,,,,,,,,,,,,,,,,switch,number,numSwt,f,Lo,,,,,,2.395,3,,,,,,,,high,6,0,6,0,1,,,,,,,,,
295165,2022-12-05_23h27.58.175,vts_reward_expectancy_bt,2022.2.4,Win32,60.15399423,Chrome,1536,864,,,,,0,780,,,,,,,,,,,,,,,,,146,B,star,1,0,,,,,,,,,,,,,,,,switch,letter,lettSwt,j,Hi,,,,,,2.1148,3,,,,,,,,high,7,0,7,0,1,,,,,,,,,
295165,2022-12-05_23h27.58.175,vts_reward_expectancy_bt,2022.2.4,Win32,60.15399423,Chrome,1536,864,,,,,1,781,,,,,,,,,,,,,,,,,174,Y,triangle,1,0,,,,,,,,,,,,,,,,repeat,letter,lettRpt,k,Lo,,,,,,1.3832,3,,,,,,,,high,8,0,8,0,1,,,,,,,,,
295165,2022-12-05_23h27.58.175,vts_reward_expectancy_bt,2022.2.4,Win32,60.15399423,Chrome,1536,864,,,,,10,791,,,,,,,,,,,,,,,,,139,W,circle,1,0,,,,,,,,,,,,,,,,repeat,letter,lettRpt,k,Hi,,,,,,1.4391,3,,,,,,,,high,9,0,9,0,1,,,,,,,,,
295165,2022-12-05_23h27.58.175,vts_reward_expectancy_bt,2022.2.4,Win32,60.15399423,Chrome,1536,864,,,,,10,801,,,,,,,,,,,,,,,,,160,D,star,1,0,,,,,,,,,,,,,,,,repeat,letter,lettRpt,j,Hi,,,,,,1.0718,3,,,,,,,,high,10,0,10,0,1,,,,,,,,,
295165,2022-12-05_23h27.58.175,vts_reward_expectancy_bt,2022.2.4,Win32,60.15399423,Chrome,1536,864,,,,,1,802,,,,,,,,,,,,,,,,,181,U,hexagon,1,0,,,,,,,,,,,,,,,,repeat,letter,lettRpt,k,Lo,,,,,,2.8163,3,,,,,,,,high,11,0,11,0,1,,,,,,,,,
295165,2022-12-05_23h27.58.175,vts_reward_expectancy_bt,2022.2.4,Win32,60.15399423,Chrome,1536,864,,,,,10,812,,,,,,,,,,,,,,,,,125,F,circle,1,0,,,,,,,,,,,,,,,,repeat,letter,lettRpt,j,Hi,,,,,,1.3089,3,,,,,,,,high,12,0,12,0,1,,,,,,,,,
295165,2022-12-05_23h27.58.175,vts_reward_expectancy_bt,2022.2.4,Win32,60.15399423,Chrome,1536,864,,,,,0,812,,,,,,,,,,,,,,,,,132,H,hexagon,0,0,,,,,,,,,,,,,,,,repeat,letter,NA,k,Hi,,,,,,1.4907,3,,,,,,,,high,13,0,13,0,1,,,,,,,,,
295165,2022-12-05_23h27.58.175,vts_reward_expectancy_bt,2022.2.4,Win32,60.15399423,Chrome,1536,864,,,,,0,812,,,,,,,,,,,,,,,,,167,S,triangle,0,1,,,,,,,,,,,,,,,,repeat,letter,NA,j,Hi,,,,,,2.0832,3,,,,,,,,high,14,0,14,0,1,,,,,,,,,
295165,2022-12-05_23h27.58.175,vts_reward_expectancy_bt,2022.2.4,Win32,60.15399423,Chrome,1536,864,,,,,0,812,,,,,,,,,,,,,,,,,146,B,star,-1,1,,,,,,,,,,,,,,,,switch,no_choice,NA,,Hi,,,,,,,3,,,,,,,,high,15,0,15,0,1,,,,,,,,,
295165,2022-12-05_23h27.58.175,vts_reward_expectancy_bt,2022.2.4,Win32,60.15399423,Chrome,1536,864,,,,,0,812,,,,,,,,,,,,,,,,,160,B,hexagon,-1,0,,,,,,,,,,,,,,,,repeat,no_choice,NA,,Hi,,,,,,,3,,,,,,,,high,16,0,16,0,1,,,,,,,,,
295165,2022-12-05_23h27.58.175,vts_reward_expectancy_bt,2022.2.4,Win32,60.15399423,Chrome,1536,864,,,,,0,812,,,,,,,,,,,,,,,,,139,D,star,1,0,,,,,,,,,,,,,,,,switch,letter,lettSwt,j,Hi,,,,,,1.144,3,,,,,,,,high,17,0,17,0,1,,,,,,,,,
295165,2022-12-05_23h27.58.175,vts_reward_expectancy_bt,2022.2.4,Win32,60.15399423,Chrome,1536,864,,,,,1,813,,,,,,,,,,,,,,,,,146,U,triangle,1,0,,,,,,,,,,,,,,,,repeat,letter,lettRpt,k,Lo,,,,,,1.474,3,,,,,,,,high,18,0,18,0,1,,,,,,,,,
295165,2022-12-05_23h27.58.175,vts_reward_expectancy_bt,2022.2.4,Win32,60.15399423,Chrome,1536,864,,,,,0,813,,,,,,,,,,,,,,,,,125,S,circle,0,0,,,,,,,,,,,,,,,,repeat,letter,NA,j,Lo,,,,,,1.1031,3,,,,,,,,high,19,0,19,0,1,,,,,,,,,
295165,2022-12-05_23h27.58.175,vts_reward_expectancy_bt,2022.2.4,Win32,60.15399423,Chrome,1536,864,,,,,0,813,,,,,,,,,,,,,,,,,132,F,circle,-1,1,,,,,,,,,,,,,,,,switch,no_choice,NA,,Lo,,,,,,,3,,,,,,,,high,20,0,20,0,1,,,,,,,,,
295165,2022-12-05_23h27.58.175,vts_reward_expectancy_bt,2022.2.4,Win32,60.15399423,Chrome,1536,864,,,,,0,813,,,,,,,,,,,,,,,,,174,H,triangle,-1,0,,,,,,,,,,,,,,,,repeat,no_choice,NA,,Lo,,,,,,,3,,,,,,,,high,21,0,21,0,1,,,,,,,,,
295165,2022-12-05_23h27.58.175,vts_reward_expectancy_bt,2022.2.4,Win32,60.15399423,Chrome,1536,864,,,,,0,813,,,,,,,,,,,,,,,,,167,W,star,-1,0,,,,,,,,,,,,,,,,repeat,no_choice,NA,,Lo,,,,,,,3,,,,,,,,high,22,0,22,0,1,,,,,,,,,
295165,2022-12-05_23h27.58.175,vts_reward_expectancy_bt,2022.2.4,Win32,60.15399423,Chrome,1536,864,,,,,0,813,,,,,,,,,,,,,,,,,181,Y,hexagon,-1,0,,,,,,,,,,,,,,,,repeat,no_choice,NA,,Lo,,,,,,,3,,,,,,,,high,23,0,23,0,1,,,,,,,,,
295165,2022-12-05_23h27.58.175,vts_reward_expectancy_bt,2022.2.4,Win32,60.15399423,Chrome,1536,864,,,,,0,813,,,,,,,,,,,,,,,,,146,B,star,-1,0,,,,,,,,,,,,,,,,repeat,no_choice,NA,,Lo,,,,,,,3,,,,,,,,high,24,0,24,0,1,,,,,,,,,
295165,2022-12-05_23h27.58.175,vts_reward_expectancy_bt,2022.2.4,Win32,60.15399423,Chrome,1536,864,,,,,0,813,,,,,,,,,,,,,,,,,167,D,circle,-1,0,,,,,,,,,,,,,,,,repeat,no_choice,NA,,Lo,,,,,,,3,,,,,,,,high,25,0,25,0,1,,,,,,,,,
295165,2022-12-05_23h27.58.175,vts_reward_expectancy_bt,2022.2.4,Win32,60.15399423,Chrome,1536,864,,,,,0,813,,,,,,,,,,,,,,,,,174,S,triangle,-1,0,,,,,,,,,,,,,,,,repeat,no_choice,NA,,Lo,,,,,,,3,,,,,,,,high,26,0,26,0,1,,,,,,,,,
295165,2022-12-05_23h27.58.175,vts_reward_expectancy_bt,2022.2.4,Win32,60.15399423,Chrome,1536,864,,,,,0,813,,,,,,,,,,,,,,,,,132,U,hexagon,-1,0,,,,,,,,,,,,,,,,repeat,no_choice,NA,,Lo,,,,,,,3,,,,,,,,high,27,0,27,0,1,,,,,,,,,
295165,2022-12-05_23h27.58.175,vts_reward_expectancy_bt,2022.2.4,Win32,60.15399423,Chrome,1536,864,,,,,0,813,,,,,,,,,,,,,,,,,139,W,star,-1,0,,,,,,,,,,,,,,,,repeat,no_choice,NA,,Lo,,,,,,,3,,,,,,,,high,28,0,28,0,1,,,,,,,,,
295165,2022-12-05_23h27.58.175,vts_reward_expectancy_bt,2022.2.4,Win32,60.15399423,Chrome,1536,864,,,,,0,813,,,,,,,,,,,,,,,,,181,F,circle,-1,0,,,,,,,,,,,,,,,,repeat,no_choice,NA,,Lo,,,,,,,3,,,,,,,,high,29,0,29,0,1,,,,,,,,,
295165,2022-12-05_23h27.58.175,vts_reward_expectancy_bt,2022.2.4,Win32,60.15399423,Chrome,1536,864,,,,,0,813,,,,,,,,,,,,,,,,,160,Y,triangle,-1,0,,,,,,,,,,,,,,,,repeat,no_choice,NA,,Lo,,,,,,,3,,,,,,,,high,30,0,30,0,1,,,,,,,,,
295165,2022-12-05_23h27.58.175,vts_reward_expectancy_bt,2022.2.4,Win32,60.15399423,Chrome,1536,864,,,,,0,813,,,,,,,,,,,,,,,,,125,H,hexagon,-1,0,,,,,,,,,,,,,,,,repeat,no_choice,NA,,Lo,,,,,,,3,,,,,,,,high,31,0,31,0,1,,,,,,,,,
295165,2022-12-05_23h27.58.175,vts_reward_expectancy_bt,2022.2.4,Win32,60.15399423,Chrome,1536,864,,,,,0,813,,,,,,,,,,,,,,,,,139,W,hexagon,-1,0,,,,,,,,,,,,,,,,repeat,no_choice,NA,,Lo,,,,,,,4,,,,,,space,5.3111,high,0,0,0,0,1,,,,,,,,,
295165,2022-12-05_23h27.58.175,vts_reward_expectancy_bt,2022.2.4,Win32,60.15399423,Chrome,1536,864,,,,,0,813,,,,,,,,,,,,,,,,,167,F,star,-1,0,,,,,,,,,,,,,,,,repeat,no_choice,NA,,Lo,,,,,,,4,,,,,,,,high,1,0,1,0,1,,,,,,,,,
295165,2022-12-05_23h27.58.175,vts_reward_expectancy_bt,2022.2.4,Win32,60.15399423,Chrome,1536,864,,,,,0,813,,,,,,,,,,,,,,,,,174,B,triangle,-1,0,,,,,,,,,,,,,,,,repeat,no_choice,NA,,Lo,,,,,,,4,,,,,,,,high,2,0,2,0,1,,,,,,,,,
295165,2022-12-05_23h27.58.175,vts_reward_expectancy_bt,2022.2.4,Win32,60.15399423,Chrome,1536,864,,,,,0,813,,,,,,,,,,,,,,,,,125,D,circle,-1,0,,,,,,,,,,,,,,,,repeat,no_choice,NA,,Lo,,,,,,,4,,,,,,,,high,3,0,3,0,1,,,,,,,,,
295165,2022-12-05_23h27.58.175,vts_reward_expectancy_bt,2022.2.4,Win32,60.15399423,Chrome,1536,864,,,,,0,813,,,,,,,,,,,,,,,,,160,U,hexagon,-1,0,,,,,,,,,,,,,,,,repeat,no_choice,NA,,Lo,,,,,,,4,,,,,,,,high,4,0,4,0,1,,,,,,,,,
295165,2022-12-05_23h27.58.175,vts_reward_expectancy_bt,2022.2.4,Win32,60.15399423,Chrome,1536,864,,,,,0,813,,,,,,,,,,,,,,,,,146,Y,star,-1,0,,,,,,,,,,,,,,,,repeat,no_choice,NA,,Lo,,,,,,,4,,,,,,,,high,5,0,5,0,1,,,,,,,,,
295165,2022-12-05_23h27.58.175,vts_reward_expectancy_bt,2022.2.4,Win32,60.15399423,Chrome,1536,864,,,,,0,813,,,,,,,,,,,,,,,,,181,S,triangle,-1,0,,,,,,,,,,,,,,,,repeat,no_choice,NA,,Lo,,,,,,,4,,,,,,,,high,6,0,6,0,1,,,,,,,,,
295165,2022-12-05_23h27.58.175,vts_reward_expectancy_bt,2022.2.4,Win32,60.15399423,Chrome,1536,864,,,,,0,813,,,,,,,,,,,,,,,,,132,H,circle,-1,0,,,,,,,,,,,,,,,,repeat,no_choice,NA,,Lo,,,,,,,4,,,,,,,,high,7,0,7,0,1,,,,,,,,,
295165,2022-12-05_23h27.58.175,vts_reward_expectancy_bt,2022.2.4,Win32,60.15399423,Chrome,1536,864,,,,,0,813,,,,,,,,,,,,,,,,,139,W,star,-1,0,,,,,,,,,,,,,,,,repeat,no_choice,NA,,Lo,,,,,,,4,,,,,,,,high,8,0,8,0,1,,,,,,,,,
295165,2022-12-05_23h27.58.175,vts_reward_expectancy_bt,2022.2.4,Win32,60.15399423,Chrome,1536,864,,,,,0,813,,,,,,,,,,,,,,,,,167,F,hexagon,-1,0,,,,,,,,,,,,,,,,repeat,no_choice,NA,,Lo,,,,,,,4,,,,,,,,high,9,0,9,0,1,,,,,,,,,
295165,2022-12-05_23h27.58.175,vts_reward_expectancy_bt,2022.2.4,Win32,60.15399423,Chrome,1536,864,,,,,0,813,,,,,,,,,,,,,,,,,174,B,triangle,-1,0,,,,,,,,,,,,,,,,repeat,no_choice,NA,,Lo,,,,,,,4,,,,,,,,high,10,0,10,0,1,,,,,,,,,
295165,2022-12-05_23h27.58.175,vts_reward_expectancy_bt,2022.2.4,Win32,60.15399423,Chrome,1536,864,,,,,0,813,,,,,,,,,,,,,,,,,125,D,circle,-1,0,,,,,,,,,,,,,,,,repeat,no_choice,NA,,Lo,,,,,,,4,,,,,,,,high,11,0,11,0,1,,,,,,,,,
295165,2022-12-05_23h27.58.175,vts_reward_expectancy_bt,2022.2.4,Win32,60.15399423,Chrome,1536,864,,,,,0,813,,,,,,,,,,,,,,,,,160,U,circle,-1,0,,,,,,,,,,,,,,,,repeat,no_choice,NA,,Lo,,,,,,,4,,,,,,,,high,12,0,12,0,1,,,,,,,,,
295165,2022-12-05_23h27.58.175,vts_reward_expectancy_bt,2022.2.4,Win32,60.15399423,Chrome,1536,864,,,,,0,813,,,,,,,,,,,,,,,,,146,Y,hexagon,-1,0,,,,,,,,,,,,,,,,repeat,no_choice,NA,,Lo,,,,,,,4,,,,,,,,high,13,0,13,0,1,,,,,,,,,
295165,2022-12-05_23h27.58.175,vts_reward_expectancy_bt,2022.2.4,Win32,60.15399423,Chrome,1536,864,,,,,0,813,,,,,,,,,,,,,,,,,181,S,triangle,-1,0,,,,,,,,,,,,,,,,repeat,no_choice,NA,,Lo,,,,,,,4,,,,,,,,high,14,0,14,0,1,,,,,,,,,
295165,2022-12-05_23h27.58.175,vts_reward_expectancy_bt,2022.2.4,Win32,60.15399423,Chrome,1536,864,,,,,10,823,,,,,,,,,,,,,,,,,132,H,star,1,0,,,,,,,,,,,,,,,,switch,letter,lettSwt,j,Hi,,,,,,1.1881,4,,,,,,,,high,15,0,15,0,1,,,,,,,,,
295165,2022-12-05_23h27.58.175,vts_reward_expectancy_bt,2022.2.4,Win32,60.15399423,Chrome,1536,864,,,,,1,824,,,,,,,,,,,,,,,,,181,S,circle,1,0,,,,,,,,,,,,,,,,switch,number,numSwt,f,Hi,,,,,,1.5627,4,,,,,,,,high,16,0,16,0,1,,,,,,,,,
295165,2022-12-05_23h27.58.175,vts_reward_expectancy_bt,2022.2.4,Win32,60.15399423,Chrome,1536,864,,,,,1,825,,,,,,,,,,,,,,,,,125,B,triangle,1,0,,,,,,,,,,,,,,,,repeat,number,numRpt,d,Lo,,,,,,0.9882,4,,,,,,,,high,17,0,17,0,1,,,,,,,,,
295165,2022-12-05_23h27.58.175,vts_reward_expectancy_bt,2022.2.4,Win32,60.15399423,Chrome,1536,864,,,,,10,835,,,,,,,,,,,,,,,,,139,H,hexagon,1,0,,,,,,,,,,,,,,,,repeat,number,numRpt,d,Lo,,,,,,1.7967,4,,,,,,,,high,18,0,18,0,1,,,,,,,,,
295165,2022-12-05_23h27.58.175,vts_reward_expectancy_bt,2022.2.4,Win32,60.15399423,Chrome,1536,864,,,,,10,845,,,,,,,,,,,,,,,,,160,D,star,1,0,,,,,,,,,,,,,,,,switch,letter,lettSwt,j,Hi,,,,,,1.5024,4,,,,,,,,high,19,0,19,0,1,,,,,,,,,
295165,2022-12-05_23h27.58.175,vts_reward_expectancy_bt,2022.2.4,Win32,60.15399423,Chrome,1536,864,,,,,0,845,,,,,,,,,,,,,,,,,132,Y,triangle,-1,0,,,,,,,,,,,,,,,,switch,no_choice,NA,,Hi,,,,,,,4,,,,,,,,high,20,0,20,0,1,,,,,,,,,
295165,2022-12-05_23h27.58.175,vts_reward_expectancy_bt,2022.2.4,Win32,60.15399423,Chrome,1536,864,,,,,0,845,,,,,,,,,,,,,,,,,146,U,circle,-1,0,,,,,,,,,,,,,,,,repeat,no_choice,NA,,Hi,,,,,,,4,,,,,,,,high,21,0,21,0,1,,,,,,,,,
295165,2022-12-05_23h27.58.175,vts_reward_expectancy_bt,2022.2.4,Win32,60.15399423,Chrome,1536,864,,,,,0,845,,,,,,,,,,,,,,,,,167,W,hexagon,-1,0,,,,,,,,,,,,,,,,repeat,no_choice,NA,,Hi,,,,,,,4,,,,,,,,high,22,0,22,0,1,,,,,,,,,
295165,2022-12-05_23h27.58.175,vts_reward_expectancy_bt,2022.2.4,Win32,60.15399423,Chrome,1536,864,,,,,0,845,,,,,,,,,,,,,,,,,174,F,star,-1,0,,,,,,,,,,,,,,,,repeat,no_choice,NA,,Hi,,,,,,,4,,,,,,,,high,23,0,23,0,1,,,,,,,,,
295165,2022-12-05_23h27.58.175,vts_reward_expectancy_bt,2022.2.4,Win32,60.15399423,Chrome,1536,864,,,,,0,845,,,,,,,,,,,,,,,,,125,H,hexagon,-1,0,,,,,,,,,,,,,,,,repeat,no_choice,NA,,Hi,,,,,,,4,,,,,,,,high,24,0,24,0,1,,,,,,,,,
295165,2022-12-05_23h27.58.175,vts_reward_expectancy_bt,2022.2.4,Win32,60.15399423,Chrome,1536,864,,,,,0,845,,,,,,,,,,,,,,,,,160,F,star,-1,0,,,,,,,,,,,,,,,,repeat,no_choice,NA,,Hi,,,,,,,4,,,,,,,,high,25,0,25,0,1,,,,,,,,,
295165,2022-12-05_23h27.58.175,vts_reward_expectancy_bt,2022.2.4,Win32,60.15399423,Chrome,1536,864,,,,,0,845,,,,,,,,,,,,,,,,,146,D,triangle,-1,0,,,,,,,,,,,,,,,,repeat,no_choice,NA,,Hi,,,,,,,4,,,,,,,,high,26,0,26,0,1,,,,,,,,,
295165,2022-12-05_23h27.58.175,vts_reward_expectancy_bt,2022.2.4,Win32,60.15399423,Chrome,1536,864,,,,,0,845,,,,,,,,,,,,,,,,,139,B,circle,-1,0,,,,,,,,,,,,,,,,repeat,no_choice,NA,,Hi,,,,,,,4,,,,,,,,high,27,0,27,0,1,,,,,,,,,
295165,2022-12-05_23h27.58.175,vts_reward_expectancy_bt,2022.2.4,Win32,60.15399423,Chrome,1536,864,,,,,0,845,,,,,,,,,,,,,,,,,132,Y,hexagon,-1,0,,,,,,,,,,,,,,,,repeat,no_choice,NA,,Hi,,,,,,,4,,,,,,,,high,28,0,28,0,1,,,,,,,,,
295165,2022-12-05_23h27.58.175,vts_reward_expectancy_bt,2022.2.4,Win32,60.15399423,Chrome,1536,864,,,,,0,845,,,,,,,,,,,,,,,,,181,U,star,-1,0,,,,,,,,,,,,,,,,repeat,no_choice,NA,,Hi,,,,,,,4,,,,,,,,high,29,0,29,0,1,,,,,,,,,
295165,2022-12-05_23h27.58.175,vts_reward_expectancy_bt,2022.2.4,Win32,60.15399423,Chrome,1536,864,,,,,0,845,,,,,,,,,,,,,,,,,167,W,circle,-1,0,,,,,,,,,,,,,,,,repeat,no_choice,NA,,Hi,,,,,,,4,,,,,,,,high,30,0,30,0,1,,,,,,,,,
295165,2022-12-05_23h27.58.175,vts_reward_expectancy_bt,2022.2.4,Win32,60.15399423,Chrome,1536,864,,,,,0,845,,,,,,,,,,,,,,,,,174,S,triangle,-1,0,,,,,,,,,,,,,,,,repeat,no_choice,NA,,Hi,,,,,,,4,,,,,,,,high,31,0,31,0,1,,,,,,,,,
295165,2022-12-05_23h27.58.175,vts_reward_expectancy_bt,2022.2.4,Win32,60.15399423,Chrome,1536,864,,,,,0,845,,,,,,,,,,,,,,,,,146,F,star,-1,0,,,,,,,,,,,,,,,,repeat,no_choice,NA,,Hi,,,,,,,5,,,,,,space,30.9671,high,0,0,0,0,1,,,,,,,,,
295165,2022-12-05_23h27.58.175,vts_reward_expectancy_bt,2022.2.4,Win32,60.15399423,Chrome,1536,864,,,,,0,845,,,,,,,,,,,,,,,,,181,B,hexagon,-1,0,,,,,,,,,,,,,,,,repeat,no_choice,NA,,Hi,,,,,,,5,,,,,,,,high,1,0,1,0,1,,,,,,,,,
295165,2022-12-05_23h27.58.175,vts_reward_expectancy_bt,2022.2.4,Win32,60.15399423,Chrome,1536,864,,,,,0,845,,,,,,,,,,,,,,,,,139,D,triangle,-1,0,,,,,,,,,,,,,,,,repeat,no_choice,NA,,Hi,,,,,,,5,,,,,,,,high,2,0,2,0,1,,,,,,,,,
295165,2022-12-05_23h27.58.175,vts_reward_expectancy_bt,2022.2.4,Win32,60.15399423,Chrome,1536,864,,,,,0,845,,,,,,,,,,,,,,,,,167,U,circle,-1,0,,,,,,,,,,,,,,,,repeat,no_choice,NA,,Hi,,,,,,,5,,,,,,,,high,3,0,3,0,1,,,,,,,,,
295165,2022-12-05_23h27.58.175,vts_reward_expectancy_bt,2022.2.4,Win32,60.15399423,Chrome,1536,864,,,,,0,845,,,,,,,,,,,,,,,,,125,H,star,-1,0,,,,,,,,,,,,,,,,repeat,no_choice,NA,,Hi,,,,,,,5,,,,,,,,high,4,0,4,0,1,,,,,,,,,
295165,2022-12-05_23h27.58.175,vts_reward_expectancy_bt,2022.2.4,Win32,60.15399423,Chrome,1536,864,,,,,0,845,,,,,,,,,,,,,,,,,174,S,hexagon,-1,0,,,,,,,,,,,,,,,,repeat,no_choice,NA,,Hi,,,,,,,5,,,,,,,,high,5,0,5,0,1,,,,,,,,,
295165,2022-12-05_23h27.58.175,vts_reward_expectancy_bt,2022.2.4,Win32,60.15399423,Chrome,1536,864,,,,,0,845,,,,,,,,,,,,,,,,,132,W,triangle,-1,0,,,,,,,,,,,,,,,,repeat,no_choice,NA,,Hi,,,,,,,5,,,,,,,,high,6,0,6,0,1,,,,,,,,,
295165,2022-12-05_23h27.58.175,vts_reward_expectancy_bt,2022.2.4,Win32,60.15399423,Chrome,1536,864,,,,,0,845,,,,,,,,,,,,,,,,,160,Y,circle,-1,0,,,,,,,,,,,,,,,,repeat,no_choice,NA,,Hi,,,,,,,5,,,,,,,,high,7,0,7,0,1,,,,,,,,,
295165,2022-12-05_23h27.58.175,vts_reward_expectancy_bt,2022.2.4,Win32,60.15399423,Chrome,1536,864,,,,,0,845,,,,,,,,,,,,,,,,,146,F,star,-1,0,,,,,,,,,,,,,,,,repeat,no_choice,NA,,Hi,,,,,,,5,,,,,,,,high,8,0,8,0,1,,,,,,,,,
295165,2022-12-05_23h27.58.175,vts_reward_expectancy_bt,2022.2.4,Win32,60.15399423,Chrome,1536,864,,,,,0,845,,,,,,,,,,,,,,,,,181,B,hexagon,-1,0,,,,,,,,,,,,,,,,repeat,no_choice,NA,,Hi,,,,,,,5,,,,,,,,high,9,0,9,0,1,,,,,,,,,
295165,2022-12-05_23h27.58.175,vts_reward_expectancy_bt,2022.2.4,Win32,60.15399423,Chrome,1536,864,,,,,0,845,,,,,,,,,,,,,,,,,139,D,circle,-1,0,,,,,,,,,,,,,,,,repeat,no_choice,NA,,Hi,,,,,,,5,,,,,,,,high,10,0,10,0,1,,,,,,,,,
295165,2022-12-05_23h27.58.175,vts_reward_expectancy_bt,2022.2.4,Win32,60.15399423,Chrome,1536,864,,,,,0,845,,,,,,,,,,,,,,,,,167,U,triangle,-1,0,,,,,,,,,,,,,,,,repeat,no_choice,NA,,Hi,,,,,,,5,,,,,,,,high,11,0,11,0,1,,,,,,,,,
295165,2022-12-05_23h27.58.175,vts_reward_expectancy_bt,2022.2.4,Win32,60.15399423,Chrome,1536,864,,,,,0,845,,,,,,,,,,,,,,,,,125,H,triangle,-1,0,,,,,,,,,,,,,,,,repeat,no_choice,NA,,Hi,,,,,,,5,,,,,,,,high,12,0,12,0,1,,,,,,,,,
295165,2022-12-05_23h27.58.175,vts_reward_expectancy_bt,2022.2.4,Win32,60.15399423,Chrome,1536,864,,,,,0,845,,,,,,,,,,,,,,,,,174,S,circle,-1,0,,,,,,,,,,,,,,,,repeat,no_choice,NA,,Hi,,,,,,,5,,,,,,,,high,13,0,13,0,1,,,,,,,,,
295165,2022-12-05_23h27.58.175,vts_reward_expectancy_bt,2022.2.4,Win32,60.15399423,Chrome,1536,864,,,,,0,845,,,,,,,,,,,,,,,,,132,W,star,-1,0,,,,,,,,,,,,,,,,repeat,no_choice,NA,,Hi,,,,,,,5,,,,,,,,high,14,0,14,0,1,,,,,,,,,
295165,2022-12-05_23h27.58.175,vts_reward_expectancy_bt,2022.2.4,Win32,60.15399423,Chrome,1536,864,,,,,0,845,,,,,,,,,,,,,,,,,160,Y,hexagon,-1,0,,,,,,,,,,,,,,,,repeat,no_choice,NA,,Hi,,,,,,,5,,,,,,,,high,15,0,15,0,1,,,,,,,,,
295165,2022-12-05_23h27.58.175,vts_reward_expectancy_bt,2022.2.4,Win32,60.15399423,Chrome,1536,864,,,,,0,845,,,,,,,,,,,,,,,,,139,H,circle,-1,0,,,,,,,,,,,,,,,,repeat,no_choice,NA,,Hi,,,,,,,5,,,,,,,,high,16,0,16,0,1,,,,,,,,,
295165,2022-12-05_23h27.58.175,vts_reward_expectancy_bt,2022.2.4,Win32,60.15399423,Chrome,1536,864,,,,,0,845,,,,,,,,,,,,,,,,,174,B,star,-1,0,,,,,,,,,,,,,,,,repeat,no_choice,NA,,Hi,,,,,,,5,,,,,,,,high,17,0,17,0,1,,,,,,,,,
295165,2022-12-05_23h27.58.175,vts_reward_expectancy_bt,2022.2.4,Win32,60.15399423,Chrome,1536,864,,,,,0,845,,,,,,,,,,,,,,,,,167,U,hexagon,-1,0,,,,,,,,,,,,,,,,repeat,no_choice,NA,,Hi,,,,,,,5,,,,,,,,high,18,0,18,0,1,,,,,,,,,
295165,2022-12-05_23h27.58.175,vts_reward_expectancy_bt,2022.2.4,Win32,60.15399423,Chrome,1536,864,,,,,0,845,,,,,,,,,,,,,,,,,181,F,triangle,-1,0,,,,,,,,,,,,,,,,repeat,no_choice,NA,,Hi,,,,,,,5,,,,,,,,high,19,0,19,0,1,,,,,,,,,
295165,2022-12-05_23h27.58.175,vts_reward_expectancy_bt,2022.2.4,Win32,60.15399423,Chrome,1536,864,,,,,0,845,,,,,,,,,,,,,,,,,132,D,star,-1,0,,,,,,,,,,,,,,,,repeat,no_choice,NA,,Hi,,,,,,,5,,,,,,,,high,20,0,20,0,1,,,,,,,,,
295165,2022-12-05_23h27.58.175,vts_reward_expectancy_bt,2022.2.4,Win32,60.15399423,Chrome,1536,864,,,,,0,845,,,,,,,,,,,,,,,,,125,W,triangle,-1,0,,,,,,,,,,,,,,,,repeat,no_choice,NA,,Hi,,,,,,,5,,,,,,,,high,21,0,21,0,1,,,,,,,,,
295165,2022-12-05_23h27.58.175,vts_reward_expectancy_bt,2022.2.4,Win32,60.15399423,Chrome,1536,864,,,,,0,845,,,,,,,,,,,,,,,,,146,S,circle,-1,0,,,,,,,,,,,,,,,,repeat,no_choice,NA,,Hi,,,,,,,5,,,,,,,,high,22,0,22,0,1,,,,,,,,,
295165,2022-12-05_23h27.58.175,vts_reward_expectancy_bt,2022.2.4,Win32,60.15399423,Chrome,1536,864,,,,,0,845,,,,,,,,,,,,,,,,,160,Y,hexagon,-1,0,,,,,,,,,,,,,,,,repeat,no_choice,NA,,Hi,,,,,,,5,,,,,,,,high,23,0,23,0,1,,,,,,,,,
295165,2022-12-05_23h27.58.175,vts_reward_expectancy_bt,2022.2.4,Win32,60.15399423,Chrome,1536,864,,,,,0,845,,,,,,,,,,,,,,,,,160,B,star,-1,0,,,,,,,,,,,,,,,,repeat,no_choice,NA,,Hi,,,,,,,5,,,,,,,,high,24,0,24,0,1,,,,,,,,,
295165,2022-12-05_23h27.58.175,vts_reward_expectancy_bt,2022.2.4,Win32,60.15399423,Chrome,1536,864,,,,,0,845,,,,,,,,,,,,,,,,,125,W,hexagon,-1,0,,,,,,,,,,,,,,,,repeat,no_choice,NA,,Hi,,,,,,,5,,,,,,,,high,25,0,25,0,1,,,,,,,,,
295165,2022-12-05_23h27.58.175,vts_reward_expectancy_bt,2022.2.4,Win32,60.15399423,Chrome,1536,864,,,,,0,845,,,,,,,,,,,,,,,,,139,F,circle,-1,0,,,,,,,,,,,,,,,,repeat,no_choice,NA,,Hi,,,,,,,5,,,,,,,,high,26,0,26,0,1,,,,,,,,,
295165,2022-12-05_23h27.58.175,vts_reward_expectancy_bt,2022.2.4,Win32,60.15399423,Chrome,1536,864,,,,,0,845,,,,,,,,,,,,,,,,,132,H,triangle,-1,0,,,,,,,,,,,,,,,,repeat,no_choice,NA,,Hi,,,,,,,5,,,,,,,,high,27,0,27,0,1,,,,,,,,,
295165,2022-12-05_23h27.58.175,vts_reward_expectancy_bt,2022.2.4,Win32,60.15399423,Chrome,1536,864,,,,,0,845,,,,,,,,,,,,,,,,,167,S,triangle,-1,0,,,,,,,,,,,,,,,,repeat,no_choice,NA,,Hi,,,,,,,5,,,,,,,,high,28,0,28,0,1,,,,,,,,,
295165,2022-12-05_23h27.58.175,vts_reward_expectancy_bt,2022.2.4,Win32,60.15399423,Chrome,1536,864,,,,,0,845,,,,,,,,,,,,,,,,,146,Y,hexagon,-1,0,,,,,,,,,,,,,,,,repeat,no_choice,NA,,Hi,,,,,,,5,,,,,,,,high,29,0,29,0,1,,,,,,,,,
295165,2022-12-05_23h27.58.175,vts_reward_expectancy_bt,2022.2.4,Win32,60.15399423,Chrome,1536,864,,,,,0,845,,,,,,,,,,,,,,,,,174,U,star,-1,0,,,,,,,,,,,,,,,,repeat,no_choice,NA,,Hi,,,,,,,5,,,,,,,,high,30,0,30,0,1,,,,,,,,,
295165,2022-12-05_23h27.58.175,vts_reward_expectancy_bt,2022.2.4,Win32,60.15399423,Chrome,1536,864,,,,,0,845,,,,,,,,,,,,,,,,,181,D,circle,-1,0,,,,,,,,,,,,,,,,repeat,no_choice,NA,,Hi,,,,,,,5,,,,,,,,high,31,0,31,0,1,,,,,,,,,
295165,2022-12-05_23h27.58.175,vts_reward_expectancy_bt,2022.2.4,Win32,60.15399423,Chrome,1536,864,,,,,0,845,,,,,,,,,,,,,,,,,132,D,hexagon,-1,0,,,,,,,,,,,,,,,,repeat,no_choice,NA,,Hi,,,,,,,6,,,,,,space,0.3017,high,0,0,0,0,1,,,,,,,,,
295165,2022-12-05_23h27.58.175,vts_reward_expectancy_bt,2022.2.4,Win32,60.15399423,Chrome,1536,864,,,,,0,845,,,,,,,,,,,,,,,,,125,S,circle,-1,0,,,,,,,,,,,,,,,,repeat,no_choice,NA,,Hi,,,,,,,6,,,,,,,,high,1,0,1,0,1,,,,,,,,,
295165,2022-12-05_23h27.58.175,vts_reward_expectancy_bt,2022.2.4,Win32,60.15399423,Chrome,1536,864,,,,,0,845,,,,,,,,,,,,,,,,,174,B,triangle,-1,0,,,,,,,,,,,,,,,,repeat,no_choice,NA,,Hi,,,,,,,6,,,,,,,,high,2,0,2,0,1,,,,,,,,,
295165,2022-12-05_23h27.58.175,vts_reward_expectancy_bt,2022.2.4,Win32,60.15399423,Chrome,1536,864,,,,,0,845,,,,,,,,,,,,,,,,,160,W,star,-1,0,,,,,,,,,,,,,,,,repeat,no_choice,NA,,Hi,,,,,,,6,,,,,,,,high,3,0,3,0,1,,,,,,,,,
295165,2022-12-05_23h27.58.175,vts_reward_expectancy_bt,2022.2.4,Win32,60.15399423,Chrome,1536,864,,,,,0,845,,,,,,,,,,,,,,,,,146,U,hexagon,-1,0,,,,,,,,,,,,,,,,repeat,no_choice,NA,,Hi,,,,,,,6,,,,,,,,high,4,0,4,0,1,,,,,,,,,
295165,2022-12-05_23h27.58.175,vts_reward_expectancy_bt,2022.2.4,Win32,60.15399423,Chrome,1536,864,,,,,0,845,,,,,,,,,,,,,,,,,167,Y,circle,-1,0,,,,,,,,,,,,,,,,repeat,no_choice,NA,,Hi,,,,,,,6,,,,,,,,high,5,0,5,0,1,,,,,,,,,
295165,2022-12-05_23h27.58.175,vts_reward_expectancy_bt,2022.2.4,Win32,60.15399423,Chrome,1536,864,,,,,0,845,,,,,,,,,,,,,,,,,139,F,triangle,-1,0,,,,,,,,,,,,,,,,repeat,no_choice,NA,,Hi,,,,,,,6,,,,,,,,high,6,0,6,0,1,,,,,,,,,
295165,2022-12-05_23h27.58.175,vts_reward_expectancy_bt,2022.2.4,Win32,60.15399423,Chrome,1536,864,,,,,0,845,,,,,,,,,,,,,,,,,181,H,star,-1,0,,,,,,,,,,,,,,,,repeat,no_choice,NA,,Hi,,,,,,,6,,,,,,,,high,7,0,7,0,1,,,,,,,,,
295165,2022-12-05_23h27.58.175,vts_reward_expectancy_bt,2022.2.4,Win32,60.15399423,Chrome,1536,864,,,,,0,845,,,,,,,,,,,,,,,,,132,D,star,-1,0,,,,,,,,,,,,,,,,repeat,no_choice,NA,,Hi,,,,,,,6,,,,,,,,high,8,0,8,0,1,,,,,,,,,
295165,2022-12-05_23h27.58.175,vts_reward_expectancy_bt,2022.2.4,Win32,60.15399423,Chrome,1536,864,,,,,0,845,,,,,,,,,,,,,,,,,125,S,hexagon,-1,0,,,,,,,,,,,,,,,,repeat,no_choice,NA,,Hi,,,,,,,6,,,,,,,,high,9,0,9,0,1,,,,,,,,,
295165,2022-12-05_23h27.58.175,vts_reward_expectancy_bt,2022.2.4,Win32,60.15399423,Chrome,1536,864,,,,,0,845,,,,,,,,,,,,,,,,,174,B,triangle,-1,0,,,,,,,,,,,,,,,,repeat,no_choice,NA,,Hi,,,,,,,6,,,,,,,,high,10,0,10,0,1,,,,,,,,,
295165,2022-12-05_23h27.58.175,vts_reward_expectancy_bt,2022.2.4,Win32,60.15399423,Chrome,1536,864,,,,,0,845,,,,,,,,,,,,,,,,,160,W,circle,-1,0,,,,,,,,,,,,,,,,repeat,no_choice,NA,,Hi,,,,,,,6,,,,,,,,high,11,0,11,0,1,,,,,,,,,
295165,2022-12-05_23h27.58.175,vts_reward_expectancy_bt,2022.2.4,Win32,60.15399423,Chrome,1536,864,,,,,0,845,,,,,,,,,,,,,,,,,146,U,star,-1,0,,,,,,,,,,,,,,,,repeat,no_choice,NA,,Hi,,,,,,,6,,,,,,,,high,12,0,12,0,1,,,,,,,,,
295165,2022-12-05_23h27.58.175,vts_reward_expectancy_bt,2022.2.4,Win32,60.15399423,Chrome,1536,864,,,,,0,845,,,,,,,,,,,,,,,,,167,Y,triangle,-1,0,,,,,,,,,,,,,,,,repeat,no_choice,NA,,Hi,,,,,,,6,,,,,,,,high,13,0,13,0,1,,,,,,,,,
295165,2022-12-05_23h27.58.175,vts_reward_expectancy_bt,2022.2.4,Win32,60.15399423,Chrome,1536,864,,,,,0,845,,,,,,,,,,,,,,,,,139,F,hexagon,-1,0,,,,,,,,,,,,,,,,repeat,no_choice,NA,,Hi,,,,,,,6,,,,,,,,high,14,0,14,0,1,,,,,,,,,
295165,2022-12-05_23h27.58.175,vts_reward_expectancy_bt,2022.2.4,Win32,60.15399423,Chrome,1536,864,,,,,0,845,,,,,,,,,,,,,,,,,181,H,circle,-1,0,,,,,,,,,,,,,,,,repeat,no_choice,NA,,Hi,,,,,,,6,,,,,,,,high,15,0,15,0,1,,,,,,,,,
295165,2022-12-05_23h27.58.175,vts_reward_expectancy_bt,2022.2.4,Win32,60.15399423,Chrome,1536,864,,,,,0,845,,,,,,,,,,,,,,,,,146,F,star,-1,0,,,,,,,,,,,,,,,,repeat,no_choice,NA,,Hi,,,,,,,6,,,,,,,,high,16,0,16,0,1,,,,,,,,,
295165,2022-12-05_23h27.58.175,vts_reward_expectancy_bt,2022.2.4,Win32,60.15399423,Chrome,1536,864,,,,,0,845,,,,,,,,,,,,,,,,,167,Y,hexagon,-1,0,,,,,,,,,,,,,,,,repeat,no_choice,NA,,Hi,,,,,,,6,,,,,,,,high,17,0,17,0,1,,,,,,,,,
295165,2022-12-05_23h27.58.175,vts_reward_expectancy_bt,2022.2.4,Win32,60.15399423,Chrome,1536,864,,,,,0,845,,,,,,,,,,,,,,,,,160,D,circle,-1,0,,,,,,,,,,,,,,,,repeat,no_choice,NA,,Hi,,,,,,,6,,,,,,,,high,18,0,18,0,1,,,,,,,,,
295165,2022-12-05_23h27.58.175,vts_reward_expectancy_bt,2022.2.4,Win32,60.15399423,Chrome,1536,864,,,,,0,845,,,,,,,,,,,,,,,,,181,U,triangle,-1,0,,,,,,,,,,,,,,,,repeat,no_choice,NA,,Hi,,,,,,,6,,,,,,,,high,19,0,19,0,1,,,,,,,,,
295165,2022-12-05_23h27.58.175,vts_reward_expectancy_bt,2022.2.4,Win32,60.15399423,Chrome,1536,864,,,,,0,845,,,,,,,,,,,,,,,,,139,H,star,-1,0,,,,,,,,,,,,,,,,repeat,no_choice,NA,,Hi,,,,,,,6,,,,,,,,high,20,0,20,0,1,,,,,,,,,
