participant,date,expName,psychopyVersion,OS,frameRate,browser,xResolution,yResolution,key_resp.keys,key_resp.rt,training_resp.keys,training_resp.rt,points_trial,points_cumul,trainBlock,training.thisRepN,training.thisTrialN,training.thisN,training.thisIndex,training.ran,LTriangleOpac,LCircleOpac,LHexagonOpac,LStarOpac,RTriangleOpac,RCircleOpac,RHexagonOpac,RStarOpac,LShape_ID,RShape_ID,curr_topStim,curr_bottStim,curr_shape,acc,E1,target_resp_prac1.keys,target_resp_prac1.rt,pracBlock,task1_prac_trials.thisRepN,task1_prac_trials.thisTrialN,task1_prac_trials.thisN,task1_prac_trials.thisIndex,task1_prac_trials.ran,target_resp_prac2.keys,target_resp_prac2.rt,task2_praac_trials.thisRepN,task2_praac_trials.thisTrialN,task2_praac_trials.thisN,task2_praac_trials.thisIndex,task2_praac_trials.ran,alt,task,condition,target_resp.keys,target_resp.rt,rewCond,vts_practice_trials.thisRepN,vts_practice_trials.thisTrialN,vts_practice_trials.thisN,vts_practice_trials.thisIndex,vts_practice_trials.ran,blockNum,trials_norew.thisRepN,trials_norew.thisTrialN,trials_norew.thisN,trials_norew.thisIndex,trials_norew.ran,key_resp_2.keys,key_resp_2.rt,rewExpectancy,trials_rew.thisRepN,trials_rew.thisTrialN,trials_rew.thisN,trials_rew.thisIndex,trials_rew.ran,Q1,Q2,Q2_text,Q3,Q4,Q5_text,Q5,xRes,yRes
295141,2022-11-28_10h54.46.148,vts_reward_expectancy_bt,2022.2.4,Win32,60.19744763,Chrome,1620,1080,,,,,,,,,,,,,,,,,,,,,,,,,,,,,,,,,,,,,,,,,,,,,,,,,,,,,,,,,,,,,,,,,,,,,,,,,,,,
295141,2022-11-28_10h54.46.148,vts_reward_expectancy_bt,2022.2.4,Win32,60.19744763,Chrome,1620,1080,space,19.4659,,,,,,,,,,,,,,,,,,,,,,,,,,,,,,,,,,,,,,,,,,,,,,,,,,,,,,,,,,,,,,,,,,,,,,,,,,
295141,2022-11-28_10h54.46.148,vts_reward_expectancy_bt,2022.2.4,Win32,60.19744763,Chrome,1620,1080,,,,,,,,,,,,,,,,,,,,,,,,,,,,,,,,,,,,,,,,,,,,,,,,,,,,,,,,,,,,,,,,,,,,,,,,,,,,
295141,2022-11-28_10h54.46.148,vts_reward_expectancy_bt,2022.2.4,Win32,60.19744763,Chrome,1620,1080,,,a,2.3434,10,10,0,0,0,0,2,1,1,0,0,0,0,0,0,1,triangle,star,,,,,,,,,,,,,,,,,,,,,,,,,,,,,,,,,,,,,,,,,,,,,,,,,,,,,,
295141,2022-11-28_10h54.46.148,vts_reward_expectancy_bt,2022.2.4,Win32,60.19744763,Chrome,1620,1080,,,l,2.9974,10,20,0,0,1,1,10,1,0,0,0,1,0,1,0,0,star ,circle,,,,,,,,,,,,,,,,,,,,,,,,,,,,,,,,,,,,,,,,,,,,,,,,,,,,,,
295141,2022-11-28_10h54.46.148,vts_reward_expectancy_bt,2022.2.4,Win32,60.19744763,Chrome,1620,1080,,,a,3.5671,1,21,0,0,2,2,3,1,0,1,0,0,1,0,0,0,circle,triangle,,,,,,,,,,,,,,,,,,,,,,,,,,,,,,,,,,,,,,,,,,,,,,,,,,,,,,
295141,2022-11-28_10h54.46.148,vts_reward_expectancy_bt,2022.2.4,Win32,60.19744763,Chrome,1620,1080,,,a,2.4894,10,31,0,0,3,3,8,1,0,0,1,0,0,0,0,1,hexagon,star,,,,,,,,,,,,,,,,,,,,,,,,,,,,,,,,,,,,,,,,,,,,,,,,,,,,,,
295141,2022-11-28_10h54.46.148,vts_reward_expectancy_bt,2022.2.4,Win32,60.19744763,Chrome,1620,1080,,,l,4.1873,1,32,0,0,4,4,4,1,0,1,0,0,0,0,1,0,circle,hexagon,,,,,,,,,,,,,,,,,,,,,,,,,,,,,,,,,,,,,,,,,,,,,,,,,,,,,,
295141,2022-11-28_10h54.46.148,vts_reward_expectancy_bt,2022.2.4,Win32,60.19744763,Chrome,1620,1080,,,a,5.6501,10,42,0,0,5,5,0,1,1,0,0,0,0,1,0,0,triangle,circle,,,,,,,,,,,,,,,,,,,,,,,,,,,,,,,,,,,,,,,,,,,,,,,,,,,,,,
295141,2022-11-28_10h54.46.148,vts_reward_expectancy_bt,2022.2.4,Win32,60.19744763,Chrome,1620,1080,,,l,6.9312,10,52,0,0,6,6,6,1,0,0,1,0,1,0,0,0,hexagon,triangle,,,,,,,,,,,,,,,,,,,,,,,,,,,,,,,,,,,,,,,,,,,,,,,,,,,,,,
295141,2022-11-28_10h54.46.148,vts_reward_expectancy_bt,2022.2.4,Win32,60.19744763,Chrome,1620,1080,,,l,2.2835,10,62,0,0,7,7,11,1,0,0,0,1,0,0,1,0,star,hexagon,,,,,,,,,,,,,,,,,,,,,,,,,,,,,,,,,,,,,,,,,,,,,,,,,,,,,,
295141,2022-11-28_10h54.46.148,vts_reward_expectancy_bt,2022.2.4,Win32,60.19744763,Chrome,1620,1080,,,l,4.2537,10,72,0,0,8,8,7,1,0,0,1,0,0,1,0,0,hexagon,circle,,,,,,,,,,,,,,,,,,,,,,,,,,,,,,,,,,,,,,,,,,,,,,,,,,,,,,
295141,2022-11-28_10h54.46.148,vts_reward_expectancy_bt,2022.2.4,Win32,60.19744763,Chrome,1620,1080,,,a,0.9835,1,73,0,0,9,9,9,1,0,0,0,1,1,0,0,0,star,triangle,,,,,,,,,,,,,,,,,,,,,,,,,,,,,,,,,,,,,,,,,,,,,,,,,,,,,,
295141,2022-11-28_10h54.46.148,vts_reward_expectancy_bt,2022.2.4,Win32,60.19744763,Chrome,1620,1080,,,a,0.8673,10,83,0,0,10,10,1,1,1,0,0,0,0,0,1,0,triangle,hexagon,,,,,,,,,,,,,,,,,,,,,,,,,,,,,,,,,,,,,,,,,,,,,,,,,,,,,,
295141,2022-11-28_10h54.46.148,vts_reward_expectancy_bt,2022.2.4,Win32,60.19744763,Chrome,1620,1080,,,a,1.833,10,93,0,0,11,11,5,1,0,1,0,0,0,0,0,1,circle,star,,,,,,,,,,,,,,,,,,,,,,,,,,,,,,,,,,,,,,,,,,,,,,,,,,,,,,
295141,2022-11-28_10h54.46.148,vts_reward_expectancy_bt,2022.2.4,Win32,60.19744763,Chrome,1620,1080,,,l,1.0333,10,103,0,1,0,12,7,1,0,0,1,0,0,1,0,0,hexagon,circle,,,,,,,,,,,,,,,,,,,,,,,,,,,,,,,,,,,,,,,,,,,,,,,,,,,,,,
295141,2022-11-28_10h54.46.148,vts_reward_expectancy_bt,2022.2.4,Win32,60.19744763,Chrome,1620,1080,,,a,0.7167,1,104,0,1,1,13,2,1,1,0,0,0,0,0,0,1,triangle,star,,,,,,,,,,,,,,,,,,,,,,,,,,,,,,,,,,,,,,,,,,,,,,,,,,,,,,
295141,2022-11-28_10h54.46.148,vts_reward_expectancy_bt,2022.2.4,Win32,60.19744763,Chrome,1620,1080,,,l,3.0002,10,114,0,1,2,14,3,1,0,1,0,0,1,0,0,0,circle,triangle,,,,,,,,,,,,,,,,,,,,,,,,,,,,,,,,,,,,,,,,,,,,,,,,,,,,,,
295141,2022-11-28_10h54.46.148,vts_reward_expectancy_bt,2022.2.4,Win32,60.19744763,Chrome,1620,1080,,,a,1.1179,1,115,0,1,3,15,5,1,0,1,0,0,0,0,0,1,circle,star,,,,,,,,,,,,,,,,,,,,,,,,,,,,,,,,,,,,,,,,,,,,,,,,,,,,,,
295141,2022-11-28_10h54.46.148,vts_reward_expectancy_bt,2022.2.4,Win32,60.19744763,Chrome,1620,1080,,,a,1.4038,1,116,0,1,4,16,11,1,0,0,0,1,0,0,1,0,star,hexagon,,,,,,,,,,,,,,,,,,,,,,,,,,,,,,,,,,,,,,,,,,,,,,,,,,,,,,
295141,2022-11-28_10h54.46.148,vts_reward_expectancy_bt,2022.2.4,Win32,60.19744763,Chrome,1620,1080,,,l,1.7699,1,117,0,1,5,17,8,1,0,0,1,0,0,0,0,1,hexagon,star,,,,,,,,,,,,,,,,,,,,,,,,,,,,,,,,,,,,,,,,,,,,,,,,,,,,,,
295141,2022-11-28_10h54.46.148,vts_reward_expectancy_bt,2022.2.4,Win32,60.19744763,Chrome,1620,1080,,,l,2.434,1,118,0,1,6,18,9,1,0,0,0,1,1,0,0,0,star,triangle,,,,,,,,,,,,,,,,,,,,,,,,,,,,,,,,,,,,,,,,,,,,,,,,,,,,,,
295141,2022-11-28_10h54.46.148,vts_reward_expectancy_bt,2022.2.4,Win32,60.19744763,Chrome,1620,1080,,,a,3.5666,1,119,0,1,7,19,6,1,0,0,1,0,1,0,0,0,hexagon,triangle,,,,,,,,,,,,,,,,,,,,,,,,,,,,,,,,,,,,,,,,,,,,,,,,,,,,,,
295141,2022-11-28_10h54.46.148,vts_reward_expectancy_bt,2022.2.4,Win32,60.19744763,Chrome,1620,1080,,,l,1.7835,1,120,0,1,8,20,1,1,1,0,0,0,0,0,1,0,triangle,hexagon,,,,,,,,,,,,,,,,,,,,,,,,,,,,,,,,,,,,,,,,,,,,,,,,,,,,,,
295141,2022-11-28_10h54.46.148,vts_reward_expectancy_bt,2022.2.4,Win32,60.19744763,Chrome,1620,1080,,,l,1.647,1,121,0,1,9,21,4,1,0,1,0,0,0,0,1,0,circle,hexagon,,,,,,,,,,,,,,,,,,,,,,,,,,,,,,,,,,,,,,,,,,,,,,,,,,,,,,
295141,2022-11-28_10h54.46.148,vts_reward_expectancy_bt,2022.2.4,Win32,60.19744763,Chrome,1620,1080,,,a,1.4,1,122,0,1,10,22,10,1,0,0,0,1,0,1,0,0,star ,circle,,,,,,,,,,,,,,,,,,,,,,,,,,,,,,,,,,,,,,,,,,,,,,,,,,,,,,
295141,2022-11-28_10h54.46.148,vts_reward_expectancy_bt,2022.2.4,Win32,60.19744763,Chrome,1620,1080,,,a,1.3245,10,132,0,1,11,23,0,1,1,0,0,0,0,1,0,0,triangle,circle,,,,,,,,,,,,,,,,,,,,,,,,,,,,,,,,,,,,,,,,,,,,,,,,,,,,,,
295141,2022-11-28_10h54.46.148,vts_reward_expectancy_bt,2022.2.4,Win32,60.19744763,Chrome,1620,1080,,,a,2.6478,1,133,0,2,0,24,9,1,0,0,0,1,1,0,0,0,star,triangle,,,,,,,,,,,,,,,,,,,,,,,,,,,,,,,,,,,,,,,,,,,,,,,,,,,,,,
295141,2022-11-28_10h54.46.148,vts_reward_expectancy_bt,2022.2.4,Win32,60.19744763,Chrome,1620,1080,,,l,1.1828,10,143,0,2,1,25,7,1,0,0,1,0,0,1,0,0,hexagon,circle,,,,,,,,,,,,,,,,,,,,,,,,,,,,,,,,,,,,,,,,,,,,,,,,,,,,,,
295141,2022-11-28_10h54.46.148,vts_reward_expectancy_bt,2022.2.4,Win32,60.19744763,Chrome,1620,1080,,,l,2.3084,1,144,0,2,2,26,6,1,0,0,1,0,1,0,0,0,hexagon,triangle,,,,,,,,,,,,,,,,,,,,,,,,,,,,,,,,,,,,,,,,,,,,,,,,,,,,,,
295141,2022-11-28_10h54.46.148,vts_reward_expectancy_bt,2022.2.4,Win32,60.19744763,Chrome,1620,1080,,,a,1.6057,1,145,0,2,3,27,10,1,0,0,0,1,0,1,0,0,star ,circle,,,,,,,,,,,,,,,,,,,,,,,,,,,,,,,,,,,,,,,,,,,,,,,,,,,,,,
295141,2022-11-28_10h54.46.148,vts_reward_expectancy_bt,2022.2.4,Win32,60.19744763,Chrome,1620,1080,,,a,1.0565,10,155,0,2,4,28,4,1,0,1,0,0,0,0,1,0,circle,hexagon,,,,,,,,,,,,,,,,,,,,,,,,,,,,,,,,,,,,,,,,,,,,,,,,,,,,,,
295141,2022-11-28_10h54.46.148,vts_reward_expectancy_bt,2022.2.4,Win32,60.19744763,Chrome,1620,1080,,,a,2.1691,10,165,0,2,5,29,0,1,1,0,0,0,0,1,0,0,triangle,circle,,,,,,,,,,,,,,,,,,,,,,,,,,,,,,,,,,,,,,,,,,,,,,,,,,,,,,
295141,2022-11-28_10h54.46.148,vts_reward_expectancy_bt,2022.2.4,Win32,60.19744763,Chrome,1620,1080,,,a,2.0347,1,166,0,2,6,30,8,1,0,0,1,0,0,0,0,1,hexagon,star,,,,,,,,,,,,,,,,,,,,,,,,,,,,,,,,,,,,,,,,,,,,,,,,,,,,,,
295141,2022-11-28_10h54.46.148,vts_reward_expectancy_bt,2022.2.4,Win32,60.19744763,Chrome,1620,1080,,,l,1.5492,1,167,0,2,7,31,3,1,0,1,0,0,1,0,0,0,circle,triangle,,,,,,,,,,,,,,,,,,,,,,,,,,,,,,,,,,,,,,,,,,,,,,,,,,,,,,
295141,2022-11-28_10h54.46.148,vts_reward_expectancy_bt,2022.2.4,Win32,60.19744763,Chrome,1620,1080,,,l,2.4729,1,168,0,2,8,32,5,1,0,1,0,0,0,0,0,1,circle,star,,,,,,,,,,,,,,,,,,,,,,,,,,,,,,,,,,,,,,,,,,,,,,,,,,,,,,
295141,2022-11-28_10h54.46.148,vts_reward_expectancy_bt,2022.2.4,Win32,60.19744763,Chrome,1620,1080,,,l,2.6004,1,169,0,2,9,33,1,1,1,0,0,0,0,0,1,0,triangle,hexagon,,,,,,,,,,,,,,,,,,,,,,,,,,,,,,,,,,,,,,,,,,,,,,,,,,,,,,
295141,2022-11-28_10h54.46.148,vts_reward_expectancy_bt,2022.2.4,Win32,60.19744763,Chrome,1620,1080,,,l,1.2846,1,170,0,2,10,34,2,1,1,0,0,0,0,0,0,1,triangle,star,,,,,,,,,,,,,,,,,,,,,,,,,,,,,,,,,,,,,,,,,,,,,,,,,,,,,,
295141,2022-11-28_10h54.46.148,vts_reward_expectancy_bt,2022.2.4,Win32,60.19744763,Chrome,1620,1080,,,a,1.4512,1,171,0,2,11,35,11,1,0,0,0,1,0,0,1,0,star,hexagon,,,,,,,,,,,,,,,,,,,,,,,,,,,,,,,,,,,,,,,,,,,,,,,,,,,,,,
295141,2022-11-28_10h54.46.148,vts_reward_expectancy_bt,2022.2.4,Win32,60.19744763,Chrome,1620,1080,,,a,2.9086,1,172,1,0,0,0,9,1,0,0,0,1,1,0,0,0,star,triangle,,,,,,,,,,,,,,,,,,,,,,,,,,,,,,,,,,,,,,,,,,,,,,,,,,,,,,
295141,2022-11-28_10h54.46.148,vts_reward_expectancy_bt,2022.2.4,Win32,60.19744763,Chrome,1620,1080,,,l,0.8179,1,173,1,0,1,1,4,1,0,1,0,0,0,0,1,0,circle,hexagon,,,,,,,,,,,,,,,,,,,,,,,,,,,,,,,,,,,,,,,,,,,,,,,,,,,,,,
295141,2022-11-28_10h54.46.148,vts_reward_expectancy_bt,2022.2.4,Win32,60.19744763,Chrome,1620,1080,,,l,3.4508,1,174,1,0,2,2,7,1,0,0,1,0,0,1,0,0,hexagon,circle,,,,,,,,,,,,,,,,,,,,,,,,,,,,,,,,,,,,,,,,,,,,,,,,,,,,,,
295141,2022-11-28_10h54.46.148,vts_reward_expectancy_bt,2022.2.4,Win32,60.19744763,Chrome,1620,1080,,,l,1.8669,1,175,1,0,3,3,8,1,0,0,1,0,0,0,0,1,hexagon,star,,,,,,,,,,,,,,,,,,,,,,,,,,,,,,,,,,,,,,,,,,,,,,,,,,,,,,
295141,2022-11-28_10h54.46.148,vts_reward_expectancy_bt,2022.2.4,Win32,60.19744763,Chrome,1620,1080,,,a,2.5675,1,176,1,0,4,4,10,1,0,0,0,1,0,1,0,0,star ,circle,,,,,,,,,,,,,,,,,,,,,,,,,,,,,,,,,,,,,,,,,,,,,,,,,,,,,,
295141,2022-11-28_10h54.46.148,vts_reward_expectancy_bt,2022.2.4,Win32,60.19744763,Chrome,1620,1080,,,l,1.1994,10,186,1,0,5,5,11,1,0,0,0,1,0,0,1,0,star,hexagon,,,,,,,,,,,,,,,,,,,,,,,,,,,,,,,,,,,,,,,,,,,,,,,,,,,,,,
295141,2022-11-28_10h54.46.148,vts_reward_expectancy_bt,2022.2.4,Win32,60.19744763,Chrome,1620,1080,,,a,1.1854,10,196,1,0,6,6,0,1,1,0,0,0,0,1,0,0,triangle,circle,,,,,,,,,,,,,,,,,,,,,,,,,,,,,,,,,,,,,,,,,,,,,,,,,,,,,,
295141,2022-11-28_10h54.46.148,vts_reward_expectancy_bt,2022.2.4,Win32,60.19744763,Chrome,1620,1080,,,l,6.4837,1,197,1,0,7,7,3,1,0,1,0,0,1,0,0,0,circle,triangle,,,,,,,,,,,,,,,,,,,,,,,,,,,,,,,,,,,,,,,,,,,,,,,,,,,,,,
295141,2022-11-28_10h54.46.148,vts_reward_expectancy_bt,2022.2.4,Win32,60.19744763,Chrome,1620,1080,,,l,1.2564,10,207,1,0,8,8,2,1,1,0,0,0,0,0,0,1,triangle,star,,,,,,,,,,,,,,,,,,,,,,,,,,,,,,,,,,,,,,,,,,,,,,,,,,,,,,
295141,2022-11-28_10h54.46.148,vts_reward_expectancy_bt,2022.2.4,Win32,60.19744763,Chrome,1620,1080,,,a,0.9663,1,208,1,0,9,9,6,1,0,0,1,0,1,0,0,0,hexagon,triangle,,,,,,,,,,,,,,,,,,,,,,,,,,,,,,,,,,,,,,,,,,,,,,,,,,,,,,
295141,2022-11-28_10h54.46.148,vts_reward_expectancy_bt,2022.2.4,Win32,60.19744763,Chrome,1620,1080,,,l,3.8168,1,209,1,0,10,10,1,1,1,0,0,0,0,0,1,0,triangle,hexagon,,,,,,,,,,,,,,,,,,,,,,,,,,,,,,,,,,,,,,,,,,,,,,,,,,,,,,
295141,2022-11-28_10h54.46.148,vts_reward_expectancy_bt,2022.2.4,Win32,60.19744763,Chrome,1620,1080,,,a,2.6735,1,210,1,0,11,11,5,1,0,1,0,0,0,0,0,1,circle,star,,,,,,,,,,,,,,,,,,,,,,,,,,,,,,,,,,,,,,,,,,,,,,,,,,,,,,
295141,2022-11-28_10h54.46.148,vts_reward_expectancy_bt,2022.2.4,Win32,60.19744763,Chrome,1620,1080,,,l,0.6502,1,211,1,1,0,12,7,1,0,0,1,0,0,1,0,0,hexagon,circle,,,,,,,,,,,,,,,,,,,,,,,,,,,,,,,,,,,,,,,,,,,,,,,,,,,,,,
295141,2022-11-28_10h54.46.148,vts_reward_expectancy_bt,2022.2.4,Win32,60.19744763,Chrome,1620,1080,,,l,1.0333,10,221,1,1,1,13,3,1,0,1,0,0,1,0,0,0,circle,triangle,,,,,,,,,,,,,,,,,,,,,,,,,,,,,,,,,,,,,,,,,,,,,,,,,,,,,,
295141,2022-11-28_10h54.46.148,vts_reward_expectancy_bt,2022.2.4,Win32,60.19744763,Chrome,1620,1080,,,l,3.1869,1,222,1,1,2,14,1,1,1,0,0,0,0,0,1,0,triangle,hexagon,,,,,,,,,,,,,,,,,,,,,,,,,,,,,,,,,,,,,,,,,,,,,,,,,,,,,,
295141,2022-11-28_10h54.46.148,vts_reward_expectancy_bt,2022.2.4,Win32,60.19744763,Chrome,1620,1080,,,a,1.0507,1,223,1,1,3,15,0,1,1,0,0,0,0,1,0,0,triangle,circle,,,,,,,,,,,,,,,,,,,,,,,,,,,,,,,,,,,,,,,,,,,,,,,,,,,,,,
295141,2022-11-28_10h54.46.148,vts_reward_expectancy_bt,2022.2.4,Win32,60.19744763,Chrome,1620,1080,,,a,2.0006,1,224,1,1,4,16,11,1,0,0,0,1,0,0,1,0,star,hexagon,,,,,,,,,,,,,,,,,,,,,,,,,,,,,,,,,,,,,,,,,,,,,,,,,,,,,,
295141,2022-11-28_10h54.46.148,vts_reward_expectancy_bt,2022.2.4,Win32,60.19744763,Chrome,1620,1080,,,l,1.3665,1,225,1,1,5,17,4,1,0,1,0,0,0,0,1,0,circle,hexagon,,,,,,,,,,,,,,,,,,,,,,,,,,,,,,,,,,,,,,,,,,,,,,,,,,,,,,
295141,2022-11-28_10h54.46.148,vts_reward_expectancy_bt,2022.2.4,Win32,60.19744763,Chrome,1620,1080,,,l,3.9167,1,226,1,1,6,18,5,1,0,1,0,0,0,0,0,1,circle,star,,,,,,,,,,,,,,,,,,,,,,,,,,,,,,,,,,,,,,,,,,,,,,,,,,,,,,
295141,2022-11-28_10h54.46.148,vts_reward_expectancy_bt,2022.2.4,Win32,60.19744763,Chrome,1620,1080,,,l,2.8342,10,236,1,1,7,19,10,1,0,0,0,1,0,1,0,0,star ,circle,,,,,,,,,,,,,,,,,,,,,,,,,,,,,,,,,,,,,,,,,,,,,,,,,,,,,,
295141,2022-11-28_10h54.46.148,vts_reward_expectancy_bt,2022.2.4,Win32,60.19744763,Chrome,1620,1080,,,a,4.7492,10,246,1,1,8,20,8,1,0,0,1,0,0,0,0,1,hexagon,star,,,,,,,,,,,,,,,,,,,,,,,,,,,,,,,,,,,,,,,,,,,,,,,,,,,,,,
295141,2022-11-28_10h54.46.148,vts_reward_expectancy_bt,2022.2.4,Win32,60.19744763,Chrome,1620,1080,,,l,1.6003,1,247,1,1,9,21,2,1,1,0,0,0,0,0,0,1,triangle,star,,,,,,,,,,,,,,,,,,,,,,,,,,,,,,,,,,,,,,,,,,,,,,,,,,,,,,
295141,2022-11-28_10h54.46.148,vts_reward_expectancy_bt,2022.2.4,Win32,60.19744763,Chrome,1620,1080,,,l,3.5837,10,257,1,1,10,22,6,1,0,0,1,0,1,0,0,0,hexagon,triangle,,,,,,,,,,,,,,,,,,,,,,,,,,,,,,,,,,,,,,,,,,,,,,,,,,,,,,
295141,2022-11-28_10h54.46.148,vts_reward_expectancy_bt,2022.2.4,Win32,60.19744763,Chrome,1620,1080,,,a,2.1247,1,258,1,1,11,23,9,1,0,0,0,1,1,0,0,0,star,triangle,,,,,,,,,,,,,,,,,,,,,,,,,,,,,,,,,,,,,,,,,,,,,,,,,,,,,,
295141,2022-11-28_10h54.46.148,vts_reward_expectancy_bt,2022.2.4,Win32,60.19744763,Chrome,1620,1080,,,a,1.7,10,268,1,2,0,24,2,1,1,0,0,0,0,0,0,1,triangle,star,,,,,,,,,,,,,,,,,,,,,,,,,,,,,,,,,,,,,,,,,,,,,,,,,,,,,,
295141,2022-11-28_10h54.46.148,vts_reward_expectancy_bt,2022.2.4,Win32,60.19744763,Chrome,1620,1080,,,a,1.6904,10,278,1,2,1,25,0,1,1,0,0,0,0,1,0,0,triangle,circle,,,,,,,,,,,,,,,,,,,,,,,,,,,,,,,,,,,,,,,,,,,,,,,,,,,,,,
295141,2022-11-28_10h54.46.148,vts_reward_expectancy_bt,2022.2.4,Win32,60.19744763,Chrome,1620,1080,,,a,2.2511,1,279,1,2,2,26,5,1,0,1,0,0,0,0,0,1,circle,star,,,,,,,,,,,,,,,,,,,,,,,,,,,,,,,,,,,,,,,,,,,,,,,,,,,,,,
295141,2022-11-28_10h54.46.148,vts_reward_expectancy_bt,2022.2.4,Win32,60.19744763,Chrome,1620,1080,,,a,6.9179,1,280,1,2,3,27,9,1,0,0,0,1,1,0,0,0,star,triangle,,,,,,,,,,,,,,,,,,,,,,,,,,,,,,,,,,,,,,,,,,,,,,,,,,,,,,
295141,2022-11-28_10h54.46.148,vts_reward_expectancy_bt,2022.2.4,Win32,60.19744763,Chrome,1620,1080,,,l,2.1199,10,290,1,2,4,28,10,1,0,0,0,1,0,1,0,0,star ,circle,,,,,,,,,,,,,,,,,,,,,,,,,,,,,,,,,,,,,,,,,,,,,,,,,,,,,,
295141,2022-11-28_10h54.46.148,vts_reward_expectancy_bt,2022.2.4,Win32,60.19744763,Chrome,1620,1080,,,a,1.2366,1,291,1,2,5,29,6,1,0,0,1,0,1,0,0,0,hexagon,triangle,,,,,,,,,,,,,,,,,,,,,,,,,,,,,,,,,,,,,,,,,,,,,,,,,,,,,,
295141,2022-11-28_10h54.46.148,vts_reward_expectancy_bt,2022.2.4,Win32,60.19744763,Chrome,1620,1080,,,a,8.2667,10,301,1,2,6,30,3,1,0,1,0,0,1,0,0,0,circle,triangle,,,,,,,,,,,,,,,,,,,,,,,,,,,,,,,,,,,,,,,,,,,,,,,,,,,,,,
295141,2022-11-28_10h54.46.148,vts_reward_expectancy_bt,2022.2.4,Win32,60.19744763,Chrome,1620,1080,,,l,1.0673,1,302,1,2,7,31,4,1,0,1,0,0,0,0,1,0,circle,hexagon,,,,,,,,,,,,,,,,,,,,,,,,,,,,,,,,,,,,,,,,,,,,,,,,,,,,,,
295141,2022-11-28_10h54.46.148,vts_reward_expectancy_bt,2022.2.4,Win32,60.19744763,Chrome,1620,1080,,,a,3.2677,1,303,1,2,8,32,7,1,0,0,1,0,0,1,0,0,hexagon,circle,,,,,,,,,,,,,,,,,,,,,,,,,,,,,,,,,,,,,,,,,,,,,,,,,,,,,,
295141,2022-11-28_10h54.46.148,vts_reward_expectancy_bt,2022.2.4,Win32,60.19744763,Chrome,1620,1080,,,l,1.1177,1,304,1,2,9,33,11,1,0,0,0,1,0,0,1,0,star,hexagon,,,,,,,,,,,,,,,,,,,,,,,,,,,,,,,,,,,,,,,,,,,,,,,,,,,,,,
295141,2022-11-28_10h54.46.148,vts_reward_expectancy_bt,2022.2.4,Win32,60.19744763,Chrome,1620,1080,,,l,1.8168,1,305,1,2,10,34,1,1,1,0,0,0,0,0,1,0,triangle,hexagon,,,,,,,,,,,,,,,,,,,,,,,,,,,,,,,,,,,,,,,,,,,,,,,,,,,,,,
295141,2022-11-28_10h54.46.148,vts_reward_expectancy_bt,2022.2.4,Win32,60.19744763,Chrome,1620,1080,,,a,1.1157,1,306,1,2,11,35,8,1,0,0,1,0,0,0,0,1,hexagon,star,,,,,,,,,,,,,,,,,,,,,,,,,,,,,,,,,,,,,,,,,,,,,,,,,,,,,,
295141,2022-11-28_10h54.46.148,vts_reward_expectancy_bt,2022.2.4,Win32,60.19744763,Chrome,1620,1080,,,l,3.4726,10,316,2,0,0,0,3,1,0,1,0,0,1,0,0,0,circle,triangle,,,,,,,,,,,,,,,,,,,,,,,,,,,,,,,,,,,,,,,,,,,,,,,,,,,,,,
295141,2022-11-28_10h54.46.148,vts_reward_expectancy_bt,2022.2.4,Win32,60.19744763,Chrome,1620,1080,,,a,2.5332,1,317,2,0,1,1,9,1,0,0,0,1,1,0,0,0,star,triangle,,,,,,,,,,,,,,,,,,,,,,,,,,,,,,,,,,,,,,,,,,,,,,,,,,,,,,
295141,2022-11-28_10h54.46.148,vts_reward_expectancy_bt,2022.2.4,Win32,60.19744763,Chrome,1620,1080,,,l,0.617,1,318,2,0,2,2,5,1,0,1,0,0,0,0,0,1,circle,star,,,,,,,,,,,,,,,,,,,,,,,,,,,,,,,,,,,,,,,,,,,,,,,,,,,,,,
295141,2022-11-28_10h54.46.148,vts_reward_expectancy_bt,2022.2.4,Win32,60.19744763,Chrome,1620,1080,,,l,0.7994,1,319,2,0,3,3,0,1,1,0,0,0,0,1,0,0,triangle,circle,,,,,,,,,,,,,,,,,,,,,,,,,,,,,,,,,,,,,,,,,,,,,,,,,,,,,,
295141,2022-11-28_10h54.46.148,vts_reward_expectancy_bt,2022.2.4,Win32,60.19744763,Chrome,1620,1080,,,l,1.0505,10,329,2,0,4,4,6,1,0,0,1,0,1,0,0,0,hexagon,triangle,,,,,,,,,,,,,,,,,,,,,,,,,,,,,,,,,,,,,,,,,,,,,,,,,,,,,,
295141,2022-11-28_10h54.46.148,vts_reward_expectancy_bt,2022.2.4,Win32,60.19744763,Chrome,1620,1080,,,a,1.6391,10,339,2,0,5,5,1,1,1,0,0,0,0,0,1,0,triangle,hexagon,,,,,,,,,,,,,,,,,,,,,,,,,,,,,,,,,,,,,,,,,,,,,,,,,,,,,,
295141,2022-11-28_10h54.46.148,vts_reward_expectancy_bt,2022.2.4,Win32,60.19744763,Chrome,1620,1080,,,a,1.9497,10,349,2,0,6,6,10,1,0,0,0,1,0,1,0,0,star ,circle,,,,,,,,,,,,,,,,,,,,,,,,,,,,,,,,,,,,,,,,,,,,,,,,,,,,,,
295141,2022-11-28_10h54.46.148,vts_reward_expectancy_bt,2022.2.4,Win32,60.19744763,Chrome,1620,1080,,,a,4.2839,1,350,2,0,7,7,11,1,0,0,0,1,0,0,1,0,star,hexagon,,,,,,,,,,,,,,,,,,,,,,,,,,,,,,,,,,,,,,,,,,,,,,,,,,,,,,
295141,2022-11-28_10h54.46.148,vts_reward_expectancy_bt,2022.2.4,Win32,60.19744763,Chrome,1620,1080,,,l,1.9194,1,351,2,0,8,8,4,1,0,1,0,0,0,0,1,0,circle,hexagon,,,,,,,,,,,,,,,,,,,,,,,,,,,,,,,,,,,,,,,,,,,,,,,,,,,,,,
295141,2022-11-28_10h54.46.148,vts_reward_expectancy_bt,2022.2.4,Win32,60.19744763,Chrome,1620,1080,,,a,5.1513,10,361,2,0,9,9,2,1,1,0,0,0,0,0,0,1,triangle,star,,,,,,,,,,,,,,,,,,,,,,,,,,,,,,,,,,,,,,,,,,,,,,,,,,,,,,
295141,2022-11-28_10h54.46.148,vts_reward_expectancy_bt,2022.2.4,Win32,60.19744763,Chrome,1620,1080,,,l,3.3523,1,362,2,0,10,10,8,1,0,0,1,0,0,0,0,1,hexagon,star,,,,,,,,,,,,,,,,,,,,,,,,,,,,,,,,,,,,,,,,,,,,,,,,,,,,,,
295141,2022-11-28_10h54.46.148,vts_reward_expectancy_bt,2022.2.4,Win32,60.19744763,Chrome,1620,1080,,,l,1.2573,10,372,2,0,11,11,7,1,0,0,1,0,0,1,0,0,hexagon,circle,,,,,,,,,,,,,,,,,,,,,,,,,,,,,,,,,,,,,,,,,,,,,,,,,,,,,,
295141,2022-11-28_10h54.46.148,vts_reward_expectancy_bt,2022.2.4,Win32,60.19744763,Chrome,1620,1080,,,a,3.2834,10,382,2,1,0,12,5,1,0,1,0,0,0,0,0,1,circle,star,,,,,,,,,,,,,,,,,,,,,,,,,,,,,,,,,,,,,,,,,,,,,,,,,,,,,,
295141,2022-11-28_10h54.46.148,vts_reward_expectancy_bt,2022.2.4,Win32,60.19744763,Chrome,1620,1080,,,a,2.9667,1,383,2,1,1,13,2,1,1,0,0,0,0,0,0,1,triangle,star,,,,,,,,,,,,,,,,,,,,,,,,,,,,,,,,,,,,,,,,,,,,,,,,,,,,,,
295141,2022-11-28_10h54.46.148,vts_reward_expectancy_bt,2022.2.4,Win32,60.19744763,Chrome,1620,1080,,,l,2.2729,1,384,2,1,2,14,8,1,0,0,1,0,0,0,0,1,hexagon,star,,,,,,,,,,,,,,,,,,,,,,,,,,,,,,,,,,,,,,,,,,,,,,,,,,,,,,
295141,2022-11-28_10h54.46.148,vts_reward_expectancy_bt,2022.2.4,Win32,60.19744763,Chrome,1620,1080,,,l,2.7509,10,394,2,1,3,15,0,1,1,0,0,0,0,1,0,0,triangle,circle,,,,,,,,,,,,,,,,,,,,,,,,,,,,,,,,,,,,,,,,,,,,,,,,,,,,,,
295141,2022-11-28_10h54.46.148,vts_reward_expectancy_bt,2022.2.4,Win32,60.19744763,Chrome,1620,1080,,,a,4.7509,10,404,2,1,4,16,1,1,1,0,0,0,0,0,1,0,triangle,hexagon,,,,,,,,,,,,,,,,,,,,,,,,,,,,,,,,,,,,,,,,,,,,,,,,,,,,,,
295141,2022-11-28_10h54.46.148,vts_reward_expectancy_bt,2022.2.4,Win32,60.19744763,Chrome,1620,1080,,,a,3.0739,10,414,2,1,5,17,11,1,0,0,0,1,0,0,1,0,star,hexagon,,,,,,,,,,,,,,,,,,,,,,,,,,,,,,,,,,,,,,,,,,,,,,,,,,,,,,
295141,2022-11-28_10h54.46.148,vts_reward_expectancy_bt,2022.2.4,Win32,60.19744763,Chrome,1620,1080,,,a,1.4861,10,424,2,1,6,18,3,1,0,1,0,0,1,0,0,0,circle,triangle,,,,,,,,,,,,,,,,,,,,,,,,,,,,,,,,,,,,,,,,,,,,,,,,,,,,,,
295141,2022-11-28_10h54.46.148,vts_reward_expectancy_bt,2022.2.4,Win32,60.19744763,Chrome,1620,1080,,,l,1.7673,10,434,2,1,7,19,10,1,0,0,0,1,0,1,0,0,star ,circle,,,,,,,,,,,,,,,,,,,,,,,,,,,,,,,,,,,,,,,,,,,,,,,,,,,,,,
295141,2022-11-28_10h54.46.148,vts_reward_expectancy_bt,2022.2.4,Win32,60.19744763,Chrome,1620,1080,,,l,2.5166,1,435,2,1,8,20,6,1,0,0,1,0,1,0,0,0,hexagon,triangle,,,,,,,,,,,,,,,,,,,,,,,,,,,,,,,,,,,,,,,,,,,,,,,,,,,,,,
295141,2022-11-28_10h54.46.148,vts_reward_expectancy_bt,2022.2.4,Win32,60.19744763,Chrome,1620,1080,,,l,1.7499,10,445,2,1,9,21,7,1,0,0,1,0,0,1,0,0,hexagon,circle,,,,,,,,,,,,,,,,,,,,,,,,,,,,,,,,,,,,,,,,,,,,,,,,,,,,,,
295141,2022-11-28_10h54.46.148,vts_reward_expectancy_bt,2022.2.4,Win32,60.19744763,Chrome,1620,1080,,,l,2.6156,10,455,2,1,10,22,9,1,0,0,0,1,1,0,0,0,star,triangle,,,,,,,,,,,,,,,,,,,,,,,,,,,,,,,,,,,,,,,,,,,,,,,,,,,,,,
295141,2022-11-28_10h54.46.148,vts_reward_expectancy_bt,2022.2.4,Win32,60.19744763,Chrome,1620,1080,,,a,2.1237,10,465,2,1,11,23,4,1,0,1,0,0,0,0,1,0,circle,hexagon,,,,,,,,,,,,,,,,,,,,,,,,,,,,,,,,,,,,,,,,,,,,,,,,,,,,,,
295141,2022-11-28_10h54.46.148,vts_reward_expectancy_bt,2022.2.4,Win32,60.19744763,Chrome,1620,1080,,,l,1.0388,10,475,2,2,0,24,9,1,0,0,0,1,1,0,0,0,star,triangle,,,,,,,,,,,,,,,,,,,,,,,,,,,,,,,,,,,,,,,,,,,,,,,,,,,,,,
295141,2022-11-28_10h54.46.148,vts_reward_expectancy_bt,2022.2.4,Win32,60.19744763,Chrome,1620,1080,,,a,0.6837,10,485,2,2,1,25,4,1,0,1,0,0,0,0,1,0,circle,hexagon,,,,,,,,,,,,,,,,,,,,,,,,,,,,,,,,,,,,,,,,,,,,,,,,,,,,,,
295141,2022-11-28_10h54.46.148,vts_reward_expectancy_bt,2022.2.4,Win32,60.19744763,Chrome,1620,1080,,,a,0.9677,10,495,2,2,2,26,5,1,0,1,0,0,0,0,0,1,circle,star,,,,,,,,,,,,,,,,,,,,,,,,,,,,,,,,,,,,,,,,,,,,,,,,,,,,,,
295141,2022-11-28_10h54.46.148,vts_reward_expectancy_bt,2022.2.4,Win32,60.19744763,Chrome,1620,1080,,,a,0.7378,10,505,2,2,3,27,0,1,1,0,0,0,0,1,0,0,triangle,circle,,,,,,,,,,,,,,,,,,,,,,,,,,,,,,,,,,,,,,,,,,,,,,,,,,,,,,
295141,2022-11-28_10h54.46.148,vts_reward_expectancy_bt,2022.2.4,Win32,60.19744763,Chrome,1620,1080,,,a,0.9695,10,515,2,2,4,28,1,1,1,0,0,0,0,0,1,0,triangle,hexagon,,,,,,,,,,,,,,,,,,,,,,,,,,,,,,,,,,,,,,,,,,,,,,,,,,,,,,
295141,2022-11-28_10h54.46.148,vts_reward_expectancy_bt,2022.2.4,Win32,60.19744763,Chrome,1620,1080,,,a,0.6057,10,525,2,2,5,29,2,1,1,0,0,0,0,0,0,1,triangle,star,,,,,,,,,,,,,,,,,,,,,,,,,,,,,,,,,,,,,,,,,,,,,,,,,,,,,,
295141,2022-11-28_10h54.46.148,vts_reward_expectancy_bt,2022.2.4,Win32,60.19744763,Chrome,1620,1080,,,l,2.808,1,526,2,2,6,30,8,1,0,0,1,0,0,0,0,1,hexagon,star,,,,,,,,,,,,,,,,,,,,,,,,,,,,,,,,,,,,,,,,,,,,,,,,,,,,,,
295141,2022-11-28_10h54.46.148,vts_reward_expectancy_bt,2022.2.4,Win32,60.19744763,Chrome,1620,1080,,,l,0.7706,10,536,2,2,7,31,7,1,0,0,1,0,0,1,0,0,hexagon,circle,,,,,,,,,,,,,,,,,,,,,,,,,,,,,,,,,,,,,,,,,,,,,,,,,,,,,,
295141,2022-11-28_10h54.46.148,vts_reward_expectancy_bt,2022.2.4,Win32,60.19744763,Chrome,1620,1080,,,l,0.9333,1,537,2,2,8,32,11,1,0,0,0,1,0,0,1,0,star,hexagon,,,,,,,,,,,,,,,,,,,,,,,,,,,,,,,,,,,,,,,,,,,,,,,,,,,,,,
295141,2022-11-28_10h54.46.148,vts_reward_expectancy_bt,2022.2.4,Win32,60.19744763,Chrome,1620,1080,,,a,1.8328,10,547,2,2,9,33,3,1,0,1,0,0,1,0,0,0,circle,triangle,,,,,,,,,,,,,,,,,,,,,,,,,,,,,,,,,,,,,,,,,,,,,,,,,,,,,,
295141,2022-11-28_10h54.46.148,vts_reward_expectancy_bt,2022.2.4,Win32,60.19744763,Chrome,1620,1080,,,l,0.8556,10,557,2,2,10,34,10,1,0,0,0,1,0,1,0,0,star ,circle,,,,,,,,,,,,,,,,,,,,,,,,,,,,,,,,,,,,,,,,,,,,,,,,,,,,,,
295141,2022-11-28_10h54.46.148,vts_reward_expectancy_bt,2022.2.4,Win32,60.19744763,Chrome,1620,1080,,,l,0.6835,10,567,2,2,11,35,6,1,0,0,1,0,1,0,0,0,hexagon,triangle,,,,,,,,,,,,,,,,,,,,,,,,,,,,,,,,,,,,,,,,,,,,,,,,,,,,,,
295141,2022-11-28_10h54.46.148,vts_reward_expectancy_bt,2022.2.4,Win32,60.19744763,Chrome,1620,1080,,,,,,,,,,,,,,,,,,,,,,,125,D,hexagon,0,0,f,1.8169,0,0,0,0,0,1,,,,,,,,,,,,,,,,,,,,,,,,,,,,,,,,,,,,,,,,,
295141,2022-11-28_10h54.46.148,vts_reward_expectancy_bt,2022.2.4,Win32,60.19744763,Chrome,1620,1080,,,,,,,,,,,,,,,,,,,,,,,167,W,triangle,0,1,,,0,1,0,1,0,1,,,,,,,,,,,,,,,,,,,,,,,,,,,,,,,,,,,,,,,,,
295141,2022-11-28_10h54.46.148,vts_reward_expectancy_bt,2022.2.4,Win32,60.19744763,Chrome,1620,1080,,,,,,,,,,,,,,,,,,,,,,,146,Y,circle,0,1,f,0.7167,0,2,0,2,0,1,,,,,,,,,,,,,,,,,,,,,,,,,,,,,,,,,,,,,,,,,
295141,2022-11-28_10h54.46.148,vts_reward_expectancy_bt,2022.2.4,Win32,60.19744763,Chrome,1620,1080,,,,,,,,,,,,,,,,,,,,,,,132,S,star,0,1,,,0,3,0,3,0,1,,,,,,,,,,,,,,,,,,,,,,,,,,,,,,,,,,,,,,,,,
295141,2022-11-28_10h54.46.148,vts_reward_expectancy_bt,2022.2.4,Win32,60.19744763,Chrome,1620,1080,,,,,,,,,,,,,,,,,,,,,,,181,U,hexagon,1,1,f,0.7173,0,4,0,4,0,1,,,,,,,,,,,,,,,,,,,,,,,,,,,,,,,,,,,,,,,,,
295141,2022-11-28_10h54.46.148,vts_reward_expectancy_bt,2022.2.4,Win32,60.19744763,Chrome,1620,1080,,,,,,,,,,,,,,,,,,,,,,,139,H,triangle,0,0,f,0.701,0,5,0,5,0,1,,,,,,,,,,,,,,,,,,,,,,,,,,,,,,,,,,,,,,,,,
295141,2022-11-28_10h54.46.148,vts_reward_expectancy_bt,2022.2.4,Win32,60.19744763,Chrome,1620,1080,,,,,,,,,,,,,,,,,,,,,,,160,F,circle,1,1,f,0.8965,0,6,0,6,0,1,,,,,,,,,,,,,,,,,,,,,,,,,,,,,,,,,,,,,,,,,
295141,2022-11-28_10h54.46.148,vts_reward_expectancy_bt,2022.2.4,Win32,60.19744763,Chrome,1620,1080,,,,,,,,,,,,,,,,,,,,,,,174,B,star,1,0,f,0.7052,0,7,0,7,0,1,,,,,,,,,,,,,,,,,,,,,,,,,,,,,,,,,,,,,,,,,
295141,2022-11-28_10h54.46.148,vts_reward_expectancy_bt,2022.2.4,Win32,60.19744763,Chrome,1620,1080,,,,,,,,,,,,,,,,,,,,,,,125,D,circle,0,0,f,0.8469,0,8,0,8,0,1,,,,,,,,,,,,,,,,,,,,,,,,,,,,,,,,,,,,,,,,,
295141,2022-11-28_10h54.46.148,vts_reward_expectancy_bt,2022.2.4,Win32,60.19744763,Chrome,1620,1080,,,,,,,,,,,,,,,,,,,,,,,167,W,triangle,1,1,f,0.7531,0,9,0,9,0,1,,,,,,,,,,,,,,,,,,,,,,,,,,,,,,,,,,,,,,,,,
295141,2022-11-28_10h54.46.148,vts_reward_expectancy_bt,2022.2.4,Win32,60.19744763,Chrome,1620,1080,,,,,,,,,,,,,,,,,,,,,,,167,U,star,1,0,f,0.6797,1,0,0,0,0,1,,,,,,,,,,,,,,,,,,,,,,,,,,,,,,,,,,,,,,,,,
295141,2022-11-28_10h54.46.148,vts_reward_expectancy_bt,2022.2.4,Win32,60.19744763,Chrome,1620,1080,,,,,,,,,,,,,,,,,,,,,,,174,F,hexagon,1,0,f,0.6114,1,1,0,1,0,1,,,,,,,,,,,,,,,,,,,,,,,,,,,,,,,,,,,,,,,,,
295141,2022-11-28_10h54.46.148,vts_reward_expectancy_bt,2022.2.4,Win32,60.19744763,Chrome,1620,1080,,,,,,,,,,,,,,,,,,,,,,,132,Y,circle,1,0,d,0.9294,1,2,0,2,0,1,,,,,,,,,,,,,,,,,,,,,,,,,,,,,,,,,,,,,,,,,
295141,2022-11-28_10h54.46.148,vts_reward_expectancy_bt,2022.2.4,Win32,60.19744763,Chrome,1620,1080,,,,,,,,,,,,,,,,,,,,,,,125,H,triangle,1,0,d,1.2657,1,3,0,3,0,1,,,,,,,,,,,,,,,,,,,,,,,,,,,,,,,,,,,,,,,,,
295141,2022-11-28_10h54.46.148,vts_reward_expectancy_bt,2022.2.4,Win32,60.19744763,Chrome,1620,1080,,,,,,,,,,,,,,,,,,,,,,,146,B,star,1,0,d,0.5293,1,4,0,4,0,1,,,,,,,,,,,,,,,,,,,,,,,,,,,,,,,,,,,,,,,,,
295141,2022-11-28_10h54.46.148,vts_reward_expectancy_bt,2022.2.4,Win32,60.19744763,Chrome,1620,1080,,,,,,,,,,,,,,,,,,,,,,,139,W,hexagon,1,0,d,0.5553,1,5,0,5,0,1,,,,,,,,,,,,,,,,,,,,,,,,,,,,,,,,,,,,,,,,,
295141,2022-11-28_10h54.46.148,vts_reward_expectancy_bt,2022.2.4,Win32,60.19744763,Chrome,1620,1080,,,,,,,,,,,,,,,,,,,,,,,181,D,circle,1,0,f,0.5387,1,6,0,6,0,1,,,,,,,,,,,,,,,,,,,,,,,,,,,,,,,,,,,,,,,,,
295141,2022-11-28_10h54.46.148,vts_reward_expectancy_bt,2022.2.4,Win32,60.19744763,Chrome,1620,1080,,,,,,,,,,,,,,,,,,,,,,,160,S,triangle,1,0,f,0.397,1,7,0,7,0,1,,,,,,,,,,,,,,,,,,,,,,,,,,,,,,,,,,,,,,,,,
295141,2022-11-28_10h54.46.148,vts_reward_expectancy_bt,2022.2.4,Win32,60.19744763,Chrome,1620,1080,,,,,,,,,,,,,,,,,,,,,,,167,U,triangle,1,0,f,0.5666,1,8,0,8,0,1,,,,,,,,,,,,,,,,,,,,,,,,,,,,,,,,,,,,,,,,,
295141,2022-11-28_10h54.46.148,vts_reward_expectancy_bt,2022.2.4,Win32,60.19744763,Chrome,1620,1080,,,,,,,,,,,,,,,,,,,,,,,174,F,star,1,0,f,0.7231,1,9,0,9,0,1,,,,,,,,,,,,,,,,,,,,,,,,,,,,,,,,,,,,,,,,,
295141,2022-11-28_10h54.46.148,vts_reward_expectancy_bt,2022.2.4,Win32,60.19744763,Chrome,1620,1080,,,,,,,,,,,,,,,,,,,,,,,132,B,triangle,1,0,,,2,,,,,,j,1.6333,0,0,0,0,1,,,,,,,,,,,,,,,,,,,,,,,,,,,,,,,,,,
295141,2022-11-28_10h54.46.148,vts_reward_expectancy_bt,2022.2.4,Win32,60.19744763,Chrome,1620,1080,,,,,,,,,,,,,,,,,,,,,,,139,S,circle,1,0,,,2,,,,,,k,0.7497,1,0,1,0,1,,,,,,,,,,,,,,,,,,,,,,,,,,,,,,,,,,
295141,2022-11-28_10h54.46.148,vts_reward_expectancy_bt,2022.2.4,Win32,60.19744763,Chrome,1620,1080,,,,,,,,,,,,,,,,,,,,,,,125,Y,star,1,0,,,2,,,,,,k,0.7001,2,0,2,0,1,,,,,,,,,,,,,,,,,,,,,,,,,,,,,,,,,,
295141,2022-11-28_10h54.46.148,vts_reward_expectancy_bt,2022.2.4,Win32,60.19744763,Chrome,1620,1080,,,,,,,,,,,,,,,,,,,,,,,167,F,hexagon,1,0,,,2,,,,,,j,0.7663,3,0,3,0,1,,,,,,,,,,,,,,,,,,,,,,,,,,,,,,,,,,
295141,2022-11-28_10h54.46.148,vts_reward_expectancy_bt,2022.2.4,Win32,60.19744763,Chrome,1620,1080,,,,,,,,,,,,,,,,,,,,,,,160,H,triangle,1,0,,,2,,,,,,j,0.8666,4,0,4,0,1,,,,,,,,,,,,,,,,,,,,,,,,,,,,,,,,,,
295141,2022-11-28_10h54.46.148,vts_reward_expectancy_bt,2022.2.4,Win32,60.19744763,Chrome,1620,1080,,,,,,,,,,,,,,,,,,,,,,,146,U,circle,1,0,,,2,,,,,,k,0.5888,5,0,5,0,1,,,,,,,,,,,,,,,,,,,,,,,,,,,,,,,,,,
295141,2022-11-28_10h54.46.148,vts_reward_expectancy_bt,2022.2.4,Win32,60.19744763,Chrome,1620,1080,,,,,,,,,,,,,,,,,,,,,,,174,W,star,1,0,,,2,,,,,,k,0.6079,6,0,6,0,1,,,,,,,,,,,,,,,,,,,,,,,,,,,,,,,,,,
295141,2022-11-28_10h54.46.148,vts_reward_expectancy_bt,2022.2.4,Win32,60.19744763,Chrome,1620,1080,,,,,,,,,,,,,,,,,,,,,,,181,D,hexagon,1,0,,,2,,,,,,j,0.9001,7,0,7,0,1,,,,,,,,,,,,,,,,,,,,,,,,,,,,,,,,,,
295141,2022-11-28_10h54.46.148,vts_reward_expectancy_bt,2022.2.4,Win32,60.19744763,Chrome,1620,1080,,,,,,,,,,,,,,,,,,,,,,,132,B,circle,1,0,,,2,,,,,,j,0.6011,8,0,8,0,1,,,,,,,,,,,,,,,,,,,,,,,,,,,,,,,,,,
295141,2022-11-28_10h54.46.148,vts_reward_expectancy_bt,2022.2.4,Win32,60.19744763,Chrome,1620,1080,,,,,,,,,,,,,,,,,,,,,,,139,S,star,1,0,,,2,,,,,,k,0.8168,9,0,9,0,1,,,,,,,,,,,,,,,,,,,,,,,,,,,,,,,,,,
295141,2022-11-28_10h54.46.148,vts_reward_expectancy_bt,2022.2.4,Win32,60.19744763,Chrome,1620,1080,,,,,0,567,,,,,,,,,,,,,,,,,139,F,hexagon,1,0,,,3,,,,,,,,,,,,,-1,number,NA,d,1.8101,vtsPrac,0,0,0,0,1,,,,,,,,,,,,,,,,,,,,,,,
295141,2022-11-28_10h54.46.148,vts_reward_expectancy_bt,2022.2.4,Win32,60.19744763,Chrome,1620,1080,,,,,0,567,,,,,,,,,,,,,,,,,181,B,circle,1,0,,,3,,,,,,,,,,,,,repeat,number,numRpt,f,0.9856,vtsPrac,1,0,1,0,1,,,,,,,,,,,,,,,,,,,,,,,
295141,2022-11-28_10h54.46.148,vts_reward_expectancy_bt,2022.2.4,Win32,60.19744763,Chrome,1620,1080,,,,,0,567,,,,,,,,,,,,,,,,,167,U,hexagon,1,0,,,3,,,,,,,,,,,,,switch,letter,lettSwt,k,0.6861,vtsPrac,2,0,2,0,1,,,,,,,,,,,,,,,,,,,,,,,
295141,2022-11-28_10h54.46.148,vts_reward_expectancy_bt,2022.2.4,Win32,60.19744763,Chrome,1620,1080,,,,,0,567,,,,,,,,,,,,,,,,,132,W,circle,1,0,,,3,,,,,,,,,,,,,switch,number,numSwt,d,1.8649,vtsPrac,3,0,3,0,1,,,,,,,,,,,,,,,,,,,,,,,
295141,2022-11-28_10h54.46.148,vts_reward_expectancy_bt,2022.2.4,Win32,60.19744763,Chrome,1620,1080,,,,,0,567,,,,,,,,,,,,,,,,,139,F,circle,1,0,,,3,,,,,,,,,,,,,switch,letter,lettSwt,j,0.8665,vtsPrac,4,0,4,0,1,,,,,,,,,,,,,,,,,,,,,,,
295141,2022-11-28_10h54.46.148,vts_reward_expectancy_bt,2022.2.4,Win32,60.19744763,Chrome,1620,1080,,,,,0,567,,,,,,,,,,,,,,,,,181,B,star,1,0,,,3,,,,,,,,,,,,,repeat,letter,lettRpt,j,0.7706,vtsPrac,5,0,5,0,1,,,,,,,,,,,,,,,,,,,,,,,
295141,2022-11-28_10h54.46.148,vts_reward_expectancy_bt,2022.2.4,Win32,60.19744763,Chrome,1620,1080,,,,,0,567,,,,,,,,,,,,,,,,,167,U,circle,1,0,,,3,,,,,,,,,,,,,switch,number,numSwt,f,0.9163,vtsPrac,6,0,6,0,1,,,,,,,,,,,,,,,,,,,,,,,
295141,2022-11-28_10h54.46.148,vts_reward_expectancy_bt,2022.2.4,Win32,60.19744763,Chrome,1620,1080,,,,,0,567,,,,,,,,,,,,,,,,,132,W,triangle,1,0,,,3,,,,,,,,,,,,,repeat,number,numRpt,d,1.1832,vtsPrac,7,0,7,0,1,,,,,,,,,,,,,,,,,,,,,,,
295141,2022-11-28_10h54.46.148,vts_reward_expectancy_bt,2022.2.4,Win32,60.19744763,Chrome,1620,1080,,,,,0,567,,,,,,,,,,,,,,,,,181,W,hexagon,1,0,,,3,,,,,,,,,,,,,repeat,number,numRpt,f,0.7575,vtsPrac,8,0,8,0,1,,,,,,,,,,,,,,,,,,,,,,,
295141,2022-11-28_10h54.46.148,vts_reward_expectancy_bt,2022.2.4,Win32,60.19744763,Chrome,1620,1080,,,,,0,567,,,,,,,,,,,,,,,,,160,F,star,1,0,,,3,,,,,,,,,,,,,repeat,number,numRpt,f,0.6502,vtsPrac,9,0,9,0,1,,,,,,,,,,,,,,,,,,,,,,,
295141,2022-11-28_10h54.46.148,vts_reward_expectancy_bt,2022.2.4,Win32,60.19744763,Chrome,1620,1080,,,,,0,567,,,,,,,,,,,,,,,,,174,B,triangle,1,0,,,3,,,,,,,,,,,,,switch,letter,lettSwt,j,0.8163,vtsPrac,10,0,10,0,1,,,,,,,,,,,,,,,,,,,,,,,
295141,2022-11-28_10h54.46.148,vts_reward_expectancy_bt,2022.2.4,Win32,60.19744763,Chrome,1620,1080,,,,,0,567,,,,,,,,,,,,,,,,,167,U,star,1,0,,,3,,,,,,,,,,,,,repeat,letter,lettRpt,k,0.7692,vtsPrac,11,0,11,0,1,,,,,,,,,,,,,,,,,,,,,,,
295141,2022-11-28_10h54.46.148,vts_reward_expectancy_bt,2022.2.4,Win32,60.19744763,Chrome,1620,1080,,,,,0,567,,,,,,,,,,,,,,,,,174,B,hexagon,1,0,,,3,,,,,,,,,,,,,repeat,letter,lettRpt,j,0.9332,vtsPrac,12,0,12,0,1,,,,,,,,,,,,,,,,,,,,,,,
295141,2022-11-28_10h54.46.148,vts_reward_expectancy_bt,2022.2.4,Win32,60.19744763,Chrome,1620,1080,,,,,0,567,,,,,,,,,,,,,,,,,167,U,triangle,1,0,,,3,,,,,,,,,,,,,repeat,letter,lettRpt,k,0.6557,vtsPrac,13,0,13,0,1,,,,,,,,,,,,,,,,,,,,,,,
295141,2022-11-28_10h54.46.148,vts_reward_expectancy_bt,2022.2.4,Win32,60.19744763,Chrome,1620,1080,,,,,0,567,,,,,,,,,,,,,,,,,132,S,circle,1,0,,,3,,,,,,,,,,,,,switch,number,numSwt,d,0.9328,vtsPrac,14,0,14,0,1,,,,,,,,,,,,,,,,,,,,,,,
295141,2022-11-28_10h54.46.148,vts_reward_expectancy_bt,2022.2.4,Win32,60.19744763,Chrome,1620,1080,,,,,0,567,,,,,,,,,,,,,,,,,125,H,star,1,0,,,3,,,,,,,,,,,,,repeat,number,numRpt,d,0.7714,vtsPrac,15,0,15,0,1,,,,,,,,,,,,,,,,,,,,,,,
295141,2022-11-28_10h54.46.148,vts_reward_expectancy_bt,2022.2.4,Win32,60.19744763,Chrome,1620,1080,,,,,0,567,,,,,,,,,,,,,,,,,160,S,hexagon,1,0,,,3,,,,,,,,,,,,,repeat,number,numRpt,f,1.0484,vtsPrac,16,0,16,0,1,,,,,,,,,,,,,,,,,,,,,,,
295141,2022-11-28_10h54.46.148,vts_reward_expectancy_bt,2022.2.4,Win32,60.19744763,Chrome,1620,1080,,,,,0,567,,,,,,,,,,,,,,,,,125,W,star,1,0,,,3,,,,,,,,,,,,,switch,letter,lettSwt,k,0.6831,vtsPrac,17,0,17,0,1,,,,,,,,,,,,,,,,,,,,,,,
295141,2022-11-28_10h54.46.148,vts_reward_expectancy_bt,2022.2.4,Win32,60.19744763,Chrome,1620,1080,,,,,0,567,,,,,,,,,,,,,,,,,167,U,circle,0,0,,,3,,,,,,,,,,,,,switch,number,NA,d,1.1322,vtsPrac,18,0,18,0,1,,,,,,,,,,,,,,,,,,,,,,,
295141,2022-11-28_10h54.46.148,vts_reward_expectancy_bt,2022.2.4,Win32,60.19744763,Chrome,1620,1080,,,,,0,567,,,,,,,,,,,,,,,,,174,Y,triangle,1,1,,,3,,,,,,,,,,,,,repeat,number,numRpt,f,1.4871,vtsPrac,19,0,19,0,1,,,,,,,,,,,,,,,,,,,,,,,
295141,2022-11-28_10h54.46.148,vts_reward_expectancy_bt,2022.2.4,Win32,60.19744763,Chrome,1620,1080,,,,,0,567,,,,,,,,,,,,,,,,,174,B,star,1,0,,,3,,,,,,,,,,,,,repeat,number,numRpt,f,1.0668,vtsPrac,20,0,20,0,1,,,,,,,,,,,,,,,,,,,,,,,
295141,2022-11-28_10h54.46.148,vts_reward_expectancy_bt,2022.2.4,Win32,60.19744763,Chrome,1620,1080,,,,,0,567,,,,,,,,,,,,,,,,,139,W,triangle,1,0,,,3,,,,,,,,,,,,,repeat,number,numRpt,d,0.8514,vtsPrac,21,0,21,0,1,,,,,,,,,,,,,,,,,,,,,,,
295141,2022-11-28_10h54.46.148,vts_reward_expectancy_bt,2022.2.4,Win32,60.19744763,Chrome,1620,1080,,,,,0,567,,,,,,,,,,,,,,,,,146,D,hexagon,1,0,,,3,,,,,,,,,,,,,repeat,number,numRpt,d,1.1984,vtsPrac,22,0,22,0,1,,,,,,,,,,,,,,,,,,,,,,,
295141,2022-11-28_10h54.46.148,vts_reward_expectancy_bt,2022.2.4,Win32,60.19744763,Chrome,1620,1080,,,,,0,567,,,,,,,,,,,,,,,,,132,U,triangle,1,0,,,3,,,,,,,,,,,,,switch,letter,lettSwt,k,0.8382,vtsPrac,23,0,23,0,1,,,,,,,,,,,,,,,,,,,,,,,
295141,2022-11-28_10h54.46.148,vts_reward_expectancy_bt,2022.2.4,Win32,60.19744763,Chrome,1620,1080,,,,,0,567,,,,,,,,,,,,,,,,,167,S,circle,1,0,,,3,,,,,,,,,,,,,repeat,letter,lettRpt,k,0.7704,vtsPrac,24,0,24,0,1,,,,,,,,,,,,,,,,,,,,,,,
295141,2022-11-28_10h54.46.148,vts_reward_expectancy_bt,2022.2.4,Win32,60.19744763,Chrome,1620,1080,,,,,0,567,,,,,,,,,,,,,,,,,125,W,star,1,0,,,3,,,,,,,,,,,,,repeat,letter,lettRpt,k,0.5996,vtsPrac,25,0,25,0,1,,,,,,,,,,,,,,,,,,,,,,,
295141,2022-11-28_10h54.46.148,vts_reward_expectancy_bt,2022.2.4,Win32,60.19744763,Chrome,1620,1080,,,,,0,567,,,,,,,,,,,,,,,,,146,Y,triangle,1,0,,,3,,,,,,,,,,,,,repeat,letter,lettRpt,k,0.6011,vtsPrac,26,0,26,0,1,,,,,,,,,,,,,,,,,,,,,,,
295141,2022-11-28_10h54.46.148,vts_reward_expectancy_bt,2022.2.4,Win32,60.19744763,Chrome,1620,1080,,,,,0,567,,,,,,,,,,,,,,,,,160,D,star,1,0,,,3,,,,,,,,,,,,,repeat,letter,lettRpt,j,0.6873,vtsPrac,27,0,27,0,1,,,,,,,,,,,,,,,,,,,,,,,
295141,2022-11-28_10h54.46.148,vts_reward_expectancy_bt,2022.2.4,Win32,60.19744763,Chrome,1620,1080,,,,,0,567,,,,,,,,,,,,,,,,,139,D,triangle,1,0,,,3,,,,,,,,,,,,,repeat,letter,lettRpt,j,0.7546,vtsPrac,28,0,28,0,1,,,,,,,,,,,,,,,,,,,,,,,
295141,2022-11-28_10h54.46.148,vts_reward_expectancy_bt,2022.2.4,Win32,60.19744763,Chrome,1620,1080,,,,,0,567,,,,,,,,,,,,,,,,,132,B,circle,1,0,,,3,,,,,,,,,,,,,repeat,letter,lettRpt,j,0.6349,vtsPrac,29,0,29,0,1,,,,,,,,,,,,,,,,,,,,,,,
295141,2022-11-28_10h54.46.148,vts_reward_expectancy_bt,2022.2.4,Win32,60.19744763,Chrome,1620,1080,,,,,0,567,,,,,,,,,,,,,,,,,125,Y,hexagon,1,0,,,3,,,,,,,,,,,,,repeat,letter,lettRpt,k,0.7001,vtsPrac,30,0,30,0,1,,,,,,,,,,,,,,,,,,,,,,,
295141,2022-11-28_10h54.46.148,vts_reward_expectancy_bt,2022.2.4,Win32,60.19744763,Chrome,1620,1080,,,,,0,567,,,,,,,,,,,,,,,,,181,W,circle,-1,0,,,3,,,,,,,,,,,,,switch,no_choice,NA,,,vtsPrac,31,0,31,0,1,,,,,,,,,,,,,,,,,,,,,,,
295141,2022-11-28_10h54.46.148,vts_reward_expectancy_bt,2022.2.4,Win32,60.19744763,Chrome,1620,1080,,,,,,,,,,,,,,,,,,,,,,,,,,,,,,,,,,,,,,,,,,,,,,,,,,,,,,,,,,,,,,,,,,,,,,,,,,,,
295141,2022-11-28_10h54.46.148,vts_reward_expectancy_bt,2022.2.4,Win32,60.19744763,Chrome,1620,1080,,,,,,,,,,,,,,,,,,,,,,,,,,,,,,,,,,,,,,,,,,,,,,,,,,,,,,,,,,,,,,,,,,,,,,,,,,,,
295141,2022-11-28_10h54.46.148,vts_reward_expectancy_bt,2022.2.4,Win32,60.19744763,Chrome,1620,1080,,,,,0,567,,,,,,,,,,,,,,,,,160,F,triangle,0,0,,,,,,,,,,,,,,,,switch,number,NA,d,1.5676,noRew,,,,,,0,0,0,0,0,1,,,,,,,,,,,,,,,,,
295141,2022-11-28_10h54.46.148,vts_reward_expectancy_bt,2022.2.4,Win32,60.19744763,Chrome,1620,1080,,,,,0,567,,,,,,,,,,,,,,,,,146,D,circle,1,1,,,,,,,,,,,,,,,,repeat,number,numRpt,d,1.4999,noRew,,,,,,0,1,0,1,0,1,,,,,,,,,,,,,,,,,
295141,2022-11-28_10h54.46.148,vts_reward_expectancy_bt,2022.2.4,Win32,60.19744763,Chrome,1620,1080,,,,,0,567,,,,,,,,,,,,,,,,,174,Y,triangle,-1,0,,,,,,,,,,,,,,,,switch,no_choice,NA,,,noRew,,,,,,0,2,0,2,0,1,,,,,,,,,,,,,,,,,
295141,2022-11-28_10h54.46.148,vts_reward_expectancy_bt,2022.2.4,Win32,60.19744763,Chrome,1620,1080,,,,,0,567,,,,,,,,,,,,,,,,,139,H,circle,1,0,,,,,,,,,,,,,,,,switch,number,numSwt,d,0.9673,noRew,,,,,,0,3,0,3,0,1,,,,,,,,,,,,,,,,,
295141,2022-11-28_10h54.46.148,vts_reward_expectancy_bt,2022.2.4,Win32,60.19744763,Chrome,1620,1080,,,,,0,567,,,,,,,,,,,,,,,,,160,F,circle,1,0,,,,,,,,,,,,,,,,repeat,number,numRpt,f,0.8509,noRew,,,,,,0,4,0,4,0,1,,,,,,,,,,,,,,,,,
295141,2022-11-28_10h54.46.148,vts_reward_expectancy_bt,2022.2.4,Win32,60.19744763,Chrome,1620,1080,,,,,0,567,,,,,,,,,,,,,,,,,146,D,hexagon,1,0,,,,,,,,,,,,,,,,repeat,number,numRpt,d,0.7174,noRew,,,,,,0,5,0,5,0,1,,,,,,,,,,,,,,,,,
295141,2022-11-28_10h54.46.148,vts_reward_expectancy_bt,2022.2.4,Win32,60.19744763,Chrome,1620,1080,,,,,0,567,,,,,,,,,,,,,,,,,174,Y,triangle,1,0,,,,,,,,,,,,,,,,repeat,number,numRpt,f,0.8207,noRew,,,,,,0,6,0,6,0,1,,,,,,,,,,,,,,,,,
295141,2022-11-28_10h54.46.148,vts_reward_expectancy_bt,2022.2.4,Win32,60.19744763,Chrome,1620,1080,,,,,0,567,,,,,,,,,,,,,,,,,139,H,circle,1,0,,,,,,,,,,,,,,,,repeat,number,numRpt,d,1.2999,noRew,,,,,,0,7,0,7,0,1,,,,,,,,,,,,,,,,,
295141,2022-11-28_10h54.46.148,vts_reward_expectancy_bt,2022.2.4,Win32,60.19744763,Chrome,1620,1080,,,,,0,567,,,,,,,,,,,,,,,,,125,H,star,1,0,,,,,,,,,,,,,,,,repeat,number,numRpt,d,0.7044,noRew,,,,,,0,8,0,8,0,1,,,,,,,,,,,,,,,,,
295141,2022-11-28_10h54.46.148,vts_reward_expectancy_bt,2022.2.4,Win32,60.19744763,Chrome,1620,1080,,,,,0,567,,,,,,,,,,,,,,,,,167,Y,hexagon,1,0,,,,,,,,,,,,,,,,repeat,number,numRpt,f,1.1737,noRew,,,,,,0,9,0,9,0,1,,,,,,,,,,,,,,,,,
295141,2022-11-28_10h54.46.148,vts_reward_expectancy_bt,2022.2.4,Win32,60.19744763,Chrome,1620,1080,,,,,0,567,,,,,,,,,,,,,,,,,181,W,circle,1,0,,,,,,,,,,,,,,,,repeat,number,numRpt,f,1.1563,noRew,,,,,,0,10,0,10,0,1,,,,,,,,,,,,,,,,,
295141,2022-11-28_10h54.46.148,vts_reward_expectancy_bt,2022.2.4,Win32,60.19744763,Chrome,1620,1080,,,,,0,567,,,,,,,,,,,,,,,,,139,D,star,1,0,,,,,,,,,,,,,,,,repeat,number,numRpt,d,1.8537,noRew,,,,,,0,11,0,11,0,1,,,,,,,,,,,,,,,,,
295141,2022-11-28_10h54.46.148,vts_reward_expectancy_bt,2022.2.4,Win32,60.19744763,Chrome,1620,1080,,,,,0,567,,,,,,,,,,,,,,,,,167,D,hexagon,1,0,,,,,,,,,,,,,,,,repeat,number,numRpt,f,0.9549,noRew,,,,,,0,12,0,12,0,1,,,,,,,,,,,,,,,,,
295141,2022-11-28_10h54.46.148,vts_reward_expectancy_bt,2022.2.4,Win32,60.19744763,Chrome,1620,1080,,,,,0,567,,,,,,,,,,,,,,,,,125,H,triangle,1,0,,,,,,,,,,,,,,,,repeat,number,numRpt,d,1.0998,noRew,,,,,,0,13,0,13,0,1,,,,,,,,,,,,,,,,,
295141,2022-11-28_10h54.46.148,vts_reward_expectancy_bt,2022.2.4,Win32,60.19744763,Chrome,1620,1080,,,,,0,567,,,,,,,,,,,,,,,,,146,B,circle,1,0,,,,,,,,,,,,,,,,repeat,number,numRpt,d,1.2391,noRew,,,,,,0,14,0,14,0,1,,,,,,,,,,,,,,,,,
295141,2022-11-28_10h54.46.148,vts_reward_expectancy_bt,2022.2.4,Win32,60.19744763,Chrome,1620,1080,,,,,0,567,,,,,,,,,,,,,,,,,160,U,triangle,1,0,,,,,,,,,,,,,,,,repeat,number,numRpt,f,0.7337,noRew,,,,,,0,15,0,15,0,1,,,,,,,,,,,,,,,,,
295141,2022-11-28_10h54.46.148,vts_reward_expectancy_bt,2022.2.4,Win32,60.19744763,Chrome,1620,1080,,,,,0,567,,,,,,,,,,,,,,,,,132,S,hexagon,1,0,,,,,,,,,,,,,,,,repeat,number,numRpt,d,0.8337,noRew,,,,,,0,16,0,16,0,1,,,,,,,,,,,,,,,,,
295141,2022-11-28_10h54.46.148,vts_reward_expectancy_bt,2022.2.4,Win32,60.19744763,Chrome,1620,1080,,,,,0,567,,,,,,,,,,,,,,,,,125,F,circle,1,0,,,,,,,,,,,,,,,,repeat,number,numRpt,d,0.7677,noRew,,,,,,0,17,0,17,0,1,,,,,,,,,,,,,,,,,
295141,2022-11-28_10h54.46.148,vts_reward_expectancy_bt,2022.2.4,Win32,60.19744763,Chrome,1620,1080,,,,,0,567,,,,,,,,,,,,,,,,,139,D,star,1,0,,,,,,,,,,,,,,,,repeat,number,numRpt,d,1.5837,noRew,,,,,,0,18,0,18,0,1,,,,,,,,,,,,,,,,,
295141,2022-11-28_10h54.46.148,vts_reward_expectancy_bt,2022.2.4,Win32,60.19744763,Chrome,1620,1080,,,,,0,567,,,,,,,,,,,,,,,,,167,U,circle,1,0,,,,,,,,,,,,,,,,repeat,number,numRpt,f,1.7165,noRew,,,,,,0,19,0,19,0,1,,,,,,,,,,,,,,,,,
295141,2022-11-28_10h54.46.148,vts_reward_expectancy_bt,2022.2.4,Win32,60.19744763,Chrome,1620,1080,,,,,0,567,,,,,,,,,,,,,,,,,160,D,circle,1,0,,,,,,,,,,,,,,,,repeat,number,numRpt,f,1.0671,noRew,,,,,,0,20,0,20,0,1,,,,,,,,,,,,,,,,,
295141,2022-11-28_10h54.46.148,vts_reward_expectancy_bt,2022.2.4,Win32,60.19744763,Chrome,1620,1080,,,,,0,567,,,,,,,,,,,,,,,,,174,B,hexagon,1,0,,,,,,,,,,,,,,,,repeat,number,numRpt,f,2.3842,noRew,,,,,,0,21,0,21,0,1,,,,,,,,,,,,,,,,,
295141,2022-11-28_10h54.46.148,vts_reward_expectancy_bt,2022.2.4,Win32,60.19744763,Chrome,1620,1080,,,,,0,567,,,,,,,,,,,,,,,,,181,S,hexagon,1,0,,,,,,,,,,,,,,,,repeat,number,numRpt,f,0.6834,noRew,,,,,,0,22,0,22,0,1,,,,,,,,,,,,,,,,,
295141,2022-11-28_10h54.46.148,vts_reward_expectancy_bt,2022.2.4,Win32,60.19744763,Chrome,1620,1080,,,,,0,567,,,,,,,,,,,,,,,,,167,H,triangle,1,0,,,,,,,,,,,,,,,,repeat,number,numRpt,f,2.9059,noRew,,,,,,0,23,0,23,0,1,,,,,,,,,,,,,,,,,
295141,2022-11-28_10h54.46.148,vts_reward_expectancy_bt,2022.2.4,Win32,60.19744763,Chrome,1620,1080,,,,,0,567,,,,,,,,,,,,,,,,,160,Y,star,1,0,,,,,,,,,,,,,,,,repeat,number,numRpt,f,1.0047,noRew,,,,,,0,24,0,24,0,1,,,,,,,,,,,,,,,,,
295141,2022-11-28_10h54.46.148,vts_reward_expectancy_bt,2022.2.4,Win32,60.19744763,Chrome,1620,1080,,,,,0,567,,,,,,,,,,,,,,,,,139,D,triangle,1,0,,,,,,,,,,,,,,,,repeat,number,numRpt,d,0.6159,noRew,,,,,,0,25,0,25,0,1,,,,,,,,,,,,,,,,,
295141,2022-11-28_10h54.46.148,vts_reward_expectancy_bt,2022.2.4,Win32,60.19744763,Chrome,1620,1080,,,,,0,567,,,,,,,,,,,,,,,,,125,W,circle,1,0,,,,,,,,,,,,,,,,repeat,number,numRpt,d,0.8861,noRew,,,,,,0,26,0,26,0,1,,,,,,,,,,,,,,,,,
295141,2022-11-28_10h54.46.148,vts_reward_expectancy_bt,2022.2.4,Win32,60.19744763,Chrome,1620,1080,,,,,0,567,,,,,,,,,,,,,,,,,132,F,triangle,1,0,,,,,,,,,,,,,,,,repeat,number,numRpt,d,0.8173,noRew,,,,,,0,27,0,27,0,1,,,,,,,,,,,,,,,,,
295141,2022-11-28_10h54.46.148,vts_reward_expectancy_bt,2022.2.4,Win32,60.19744763,Chrome,1620,1080,,,,,0,567,,,,,,,,,,,,,,,,,174,U,circle,1,0,,,,,,,,,,,,,,,,repeat,number,numRpt,f,0.8665,noRew,,,,,,0,28,0,28,0,1,,,,,,,,,,,,,,,,,
295141,2022-11-28_10h54.46.148,vts_reward_expectancy_bt,2022.2.4,Win32,60.19744763,Chrome,1620,1080,,,,,0,567,,,,,,,,,,,,,,,,,167,B,star,1,0,,,,,,,,,,,,,,,,repeat,number,numRpt,f,1.2242,noRew,,,,,,0,29,0,29,0,1,,,,,,,,,,,,,,,,,
295141,2022-11-28_10h54.46.148,vts_reward_expectancy_bt,2022.2.4,Win32,60.19744763,Chrome,1620,1080,,,,,0,567,,,,,,,,,,,,,,,,,181,F,circle,1,0,,,,,,,,,,,,,,,,repeat,number,numRpt,f,0.7745,noRew,,,,,,0,30,0,30,0,1,,,,,,,,,,,,,,,,,
295141,2022-11-28_10h54.46.148,vts_reward_expectancy_bt,2022.2.4,Win32,60.19744763,Chrome,1620,1080,,,,,0,567,,,,,,,,,,,,,,,,,139,W,hexagon,1,0,,,,,,,,,,,,,,,,repeat,number,numRpt,d,2.0673,noRew,,,,,,0,31,0,31,0,1,,,,,,,,,,,,,,,,,
295141,2022-11-28_10h54.46.148,vts_reward_expectancy_bt,2022.2.4,Win32,60.19744763,Chrome,1620,1080,,,,,0,567,,,,,,,,,,,,,,,,,167,Y,triangle,1,0,,,,,,,,,,,,,,,,repeat,number,numRpt,f,0.7494,noRew,,,,,,0,32,0,32,0,1,,,,,,,,,,,,,,,,,
295141,2022-11-28_10h54.46.148,vts_reward_expectancy_bt,2022.2.4,Win32,60.19744763,Chrome,1620,1080,,,,,0,567,,,,,,,,,,,,,,,,,174,F,hexagon,1,0,,,,,,,,,,,,,,,,repeat,number,numRpt,f,0.6215,noRew,,,,,,0,33,0,33,0,1,,,,,,,,,,,,,,,,,
295141,2022-11-28_10h54.46.148,vts_reward_expectancy_bt,2022.2.4,Win32,60.19744763,Chrome,1620,1080,,,,,0,567,,,,,,,,,,,,,,,,,125,B,triangle,1,0,,,,,,,,,,,,,,,,repeat,number,numRpt,d,1.7499,noRew,,,,,,0,34,0,34,0,1,,,,,,,,,,,,,,,,,
295141,2022-11-28_10h54.46.148,vts_reward_expectancy_bt,2022.2.4,Win32,60.19744763,Chrome,1620,1080,,,,,0,567,,,,,,,,,,,,,,,,,181,H,star,1,0,,,,,,,,,,,,,,,,repeat,number,numRpt,f,0.9827,noRew,,,,,,0,35,0,35,0,1,,,,,,,,,,,,,,,,,
295141,2022-11-28_10h54.46.148,vts_reward_expectancy_bt,2022.2.4,Win32,60.19744763,Chrome,1620,1080,,,,,0,567,,,,,,,,,,,,,,,,,146,U,circle,0,0,,,,,,,,,,,,,,,,repeat,number,NA,f,0.4332,noRew,,,,,,0,36,0,36,0,1,,,,,,,,,,,,,,,,,
295141,2022-11-28_10h54.46.148,vts_reward_expectancy_bt,2022.2.4,Win32,60.19744763,Chrome,1620,1080,,,,,0,567,,,,,,,,,,,,,,,,,160,D,hexagon,1,1,,,,,,,,,,,,,,,,repeat,number,numRpt,f,0.8832,noRew,,,,,,0,37,0,37,0,1,,,,,,,,,,,,,,,,,
295141,2022-11-28_10h54.46.148,vts_reward_expectancy_bt,2022.2.4,Win32,60.19744763,Chrome,1620,1080,,,,,0,567,,,,,,,,,,,,,,,,,139,B,triangle,1,0,,,,,,,,,,,,,,,,repeat,number,numRpt,d,0.9361,noRew,,,,,,0,38,0,38,0,1,,,,,,,,,,,,,,,,,
295141,2022-11-28_10h54.46.148,vts_reward_expectancy_bt,2022.2.4,Win32,60.19744763,Chrome,1620,1080,,,,,0,567,,,,,,,,,,,,,,,,,125,F,circle,1,0,,,,,,,,,,,,,,,,repeat,number,numRpt,d,0.6496,noRew,,,,,,0,39,0,39,0,1,,,,,,,,,,,,,,,,,
295141,2022-11-28_10h54.46.148,vts_reward_expectancy_bt,2022.2.4,Win32,60.19744763,Chrome,1620,1080,,,,,0,567,,,,,,,,,,,,,,,,,139,F,circle,1,0,,,,,,,,,,,,,,,,repeat,number,numRpt,d,0.9671,noRew,,,,,,0,40,0,40,0,1,,,,,,,,,,,,,,,,,
295141,2022-11-28_10h54.46.148,vts_reward_expectancy_bt,2022.2.4,Win32,60.19744763,Chrome,1620,1080,,,,,0,567,,,,,,,,,,,,,,,,,132,W,hexagon,1,0,,,,,,,,,,,,,,,,repeat,number,numRpt,d,0.7511,noRew,,,,,,0,41,0,41,0,1,,,,,,,,,,,,,,,,,
295141,2022-11-28_10h54.46.148,vts_reward_expectancy_bt,2022.2.4,Win32,60.19744763,Chrome,1620,1080,,,,,0,567,,,,,,,,,,,,,,,,,167,Y,star,1,0,,,,,,,,,,,,,,,,repeat,number,numRpt,f,2.2164,noRew,,,,,,0,42,0,42,0,1,,,,,,,,,,,,,,,,,
295141,2022-11-28_10h54.46.148,vts_reward_expectancy_bt,2022.2.4,Win32,60.19744763,Chrome,1620,1080,,,,,0,567,,,,,,,,,,,,,,,,,160,S,circle,1,0,,,,,,,,,,,,,,,,repeat,number,numRpt,f,1.6995,noRew,,,,,,0,43,0,43,0,1,,,,,,,,,,,,,,,,,
295141,2022-11-28_10h54.46.148,vts_reward_expectancy_bt,2022.2.4,Win32,60.19744763,Chrome,1620,1080,,,,,0,567,,,,,,,,,,,,,,,,,167,F,circle,1,0,,,,,,,,,,,,,,,,repeat,number,numRpt,f,0.7169,noRew,,,,,,0,44,0,44,0,1,,,,,,,,,,,,,,,,,
295141,2022-11-28_10h54.46.148,vts_reward_expectancy_bt,2022.2.4,Win32,60.19744763,Chrome,1620,1080,,,,,0,567,,,,,,,,,,,,,,,,,125,U,star,1,0,,,,,,,,,,,,,,,,repeat,number,numRpt,d,0.667,noRew,,,,,,0,45,0,45,0,1,,,,,,,,,,,,,,,,,
295141,2022-11-28_10h54.46.148,vts_reward_expectancy_bt,2022.2.4,Win32,60.19744763,Chrome,1620,1080,,,,,0,567,,,,,,,,,,,,,,,,,146,W,hexagon,1,0,,,,,,,,,,,,,,,,repeat,number,numRpt,d,1.017,noRew,,,,,,0,46,0,46,0,1,,,,,,,,,,,,,,,,,
295141,2022-11-28_10h54.46.148,vts_reward_expectancy_bt,2022.2.4,Win32,60.19744763,Chrome,1620,1080,,,,,0,567,,,,,,,,,,,,,,,,,160,S,triangle,1,0,,,,,,,,,,,,,,,,repeat,number,numRpt,f,0.8033,noRew,,,,,,0,47,0,47,0,1,,,,,,,,,,,,,,,,,
295141,2022-11-28_10h54.46.148,vts_reward_expectancy_bt,2022.2.4,Win32,60.19744763,Chrome,1620,1080,,,,,0,567,,,,,,,,,,,,,,,,,132,F,triangle,1,0,,,,,,,,,,,,,,,,repeat,number,numRpt,d,0.6335,noRew,,,,,,0,48,0,48,0,1,,,,,,,,,,,,,,,,,
295141,2022-11-28_10h54.46.148,vts_reward_expectancy_bt,2022.2.4,Win32,60.19744763,Chrome,1620,1080,,,,,0,567,,,,,,,,,,,,,,,,,139,U,hexagon,1,0,,,,,,,,,,,,,,,,repeat,number,numRpt,d,0.9972,noRew,,,,,,0,49,0,49,0,1,,,,,,,,,,,,,,,,,
295141,2022-11-28_10h54.46.148,vts_reward_expectancy_bt,2022.2.4,Win32,60.19744763,Chrome,1620,1080,,,,,0,567,,,,,,,,,,,,,,,,,146,W,star,1,0,,,,,,,,,,,,,,,,repeat,number,numRpt,d,0.8832,noRew,,,,,,0,50,0,50,0,1,,,,,,,,,,,,,,,,,
295141,2022-11-28_10h54.46.148,vts_reward_expectancy_bt,2022.2.4,Win32,60.19744763,Chrome,1620,1080,,,,,0,567,,,,,,,,,,,,,,,,,167,Y,circle,1,0,,,,,,,,,,,,,,,,repeat,number,numRpt,f,1.2737,noRew,,,,,,0,51,0,51,0,1,,,,,,,,,,,,,,,,,
295141,2022-11-28_10h54.46.148,vts_reward_expectancy_bt,2022.2.4,Win32,60.19744763,Chrome,1620,1080,,,,,0,567,,,,,,,,,,,,,,,,,174,B,star,1,0,,,,,,,,,,,,,,,,repeat,number,numRpt,f,1.502,noRew,,,,,,0,52,0,52,0,1,,,,,,,,,,,,,,,,,
295141,2022-11-28_10h54.46.148,vts_reward_expectancy_bt,2022.2.4,Win32,60.19744763,Chrome,1620,1080,,,,,0,567,,,,,,,,,,,,,,,,,160,S,hexagon,1,0,,,,,,,,,,,,,,,,repeat,number,numRpt,f,0.7336,noRew,,,,,,0,53,0,53,0,1,,,,,,,,,,,,,,,,,
295141,2022-11-28_10h54.46.148,vts_reward_expectancy_bt,2022.2.4,Win32,60.19744763,Chrome,1620,1080,,,,,0,567,,,,,,,,,,,,,,,,,139,Y,triangle,1,0,,,,,,,,,,,,,,,,repeat,number,numRpt,d,1.3832,noRew,,,,,,0,54,0,54,0,1,,,,,,,,,,,,,,,,,
295141,2022-11-28_10h54.46.148,vts_reward_expectancy_bt,2022.2.4,Win32,60.19744763,Chrome,1620,1080,,,,,0,567,,,,,,,,,,,,,,,,,146,H,circle,1,0,,,,,,,,,,,,,,,,repeat,number,numRpt,d,1.2181,noRew,,,,,,0,55,0,55,0,1,,,,,,,,,,,,,,,,,
295141,2022-11-28_10h54.46.148,vts_reward_expectancy_bt,2022.2.4,Win32,60.19744763,Chrome,1620,1080,,,,,0,567,,,,,,,,,,,,,,,,,174,D,triangle,1,0,,,,,,,,,,,,,,,,repeat,number,numRpt,f,1.7338,noRew,,,,,,0,56,0,56,0,1,,,,,,,,,,,,,,,,,
295141,2022-11-28_10h54.46.148,vts_reward_expectancy_bt,2022.2.4,Win32,60.19744763,Chrome,1620,1080,,,,,0,567,,,,,,,,,,,,,,,,,125,Y,star,1,0,,,,,,,,,,,,,,,,repeat,number,numRpt,d,0.8198,noRew,,,,,,0,57,0,57,0,1,,,,,,,,,,,,,,,,,
295141,2022-11-28_10h54.46.148,vts_reward_expectancy_bt,2022.2.4,Win32,60.19744763,Chrome,1620,1080,,,,,0,567,,,,,,,,,,,,,,,,,139,U,triangle,1,0,,,,,,,,,,,,,,,,repeat,number,numRpt,d,1.7547,noRew,,,,,,0,58,0,58,0,1,,,,,,,,,,,,,,,,,
295141,2022-11-28_10h54.46.148,vts_reward_expectancy_bt,2022.2.4,Win32,60.19744763,Chrome,1620,1080,,,,,0,567,,,,,,,,,,,,,,,,,181,B,hexagon,1,0,,,,,,,,,,,,,,,,repeat,number,numRpt,f,1.0498,noRew,,,,,,0,59,0,59,0,1,,,,,,,,,,,,,,,,,
295141,2022-11-28_10h54.46.148,vts_reward_expectancy_bt,2022.2.4,Win32,60.19744763,Chrome,1620,1080,,,,,0,567,,,,,,,,,,,,,,,,,174,H,circle,1,0,,,,,,,,,,,,,,,,repeat,number,numRpt,f,1.6319,noRew,,,,,,0,60,0,60,0,1,,,,,,,,,,,,,,,,,
295141,2022-11-28_10h54.46.148,vts_reward_expectancy_bt,2022.2.4,Win32,60.19744763,Chrome,1620,1080,,,,,0,567,,,,,,,,,,,,,,,,,139,U,star,1,0,,,,,,,,,,,,,,,,repeat,number,numRpt,d,2.0392,noRew,,,,,,0,61,0,61,0,1,,,,,,,,,,,,,,,,,
295141,2022-11-28_10h54.46.148,vts_reward_expectancy_bt,2022.2.4,Win32,60.19744763,Chrome,1620,1080,,,,,0,567,,,,,,,,,,,,,,,,,132,B,hexagon,1,0,,,,,,,,,,,,,,,,repeat,number,numRpt,d,0.7003,noRew,,,,,,0,62,0,62,0,1,,,,,,,,,,,,,,,,,
295141,2022-11-28_10h54.46.148,vts_reward_expectancy_bt,2022.2.4,Win32,60.19744763,Chrome,1620,1080,,,,,0,567,,,,,,,,,,,,,,,,,160,F,triangle,1,0,,,,,,,,,,,,,,,,repeat,number,numRpt,f,0.7018,noRew,,,,,,0,63,0,63,0,1,,,,,,,,,,,,,,,,,
295141,2022-11-28_10h54.46.148,vts_reward_expectancy_bt,2022.2.4,Win32,60.19744763,Chrome,1620,1080,,,,,,,,,,,,,,,,,,,,,,,,,,,,,,,,,,,,,,,,,,,,,,,,,,,,,,,,,,,,,,,,,,,,,,,,,,,,
295141,2022-11-28_10h54.46.148,vts_reward_expectancy_bt,2022.2.4,Win32,60.19744763,Chrome,1620,1080,,,,,0,567,,,,,,,,,,,,,,,,,146,F,circle,1,0,,,,,,,,,,,,,,,,repeat,number,numRpt,d,0.9019,Hi,,,,,,0,,,,,,space,20.8437,high,0,0,0,0,1,,,,,,,,,
295141,2022-11-28_10h54.46.148,vts_reward_expectancy_bt,2022.2.4,Win32,60.19744763,Chrome,1620,1080,,,,,10,577,,,,,,,,,,,,,,,,,132,U,triangle,1,0,,,,,,,,,,,,,,,,repeat,number,numRpt,d,0.5845,Hi,,,,,,0,,,,,,,,high,1,0,1,0,1,,,,,,,,,
295141,2022-11-28_10h54.46.148,vts_reward_expectancy_bt,2022.2.4,Win32,60.19744763,Chrome,1620,1080,,,,,1,578,,,,,,,,,,,,,,,,,160,H,star,1,0,,,,,,,,,,,,,,,,repeat,number,numRpt,f,0.6675,Lo,,,,,,0,,,,,,,,high,2,0,2,0,1,,,,,,,,,
295141,2022-11-28_10h54.46.148,vts_reward_expectancy_bt,2022.2.4,Win32,60.19744763,Chrome,1620,1080,,,,,1,579,,,,,,,,,,,,,,,,,139,B,hexagon,1,0,,,,,,,,,,,,,,,,repeat,number,numRpt,d,1.8058,Lo,,,,,,0,,,,,,,,high,3,0,3,0,1,,,,,,,,,
295141,2022-11-28_10h54.46.148,vts_reward_expectancy_bt,2022.2.4,Win32,60.19744763,Chrome,1620,1080,,,,,10,589,,,,,,,,,,,,,,,,,125,W,circle,1,0,,,,,,,,,,,,,,,,switch,letter,lettSwt,k,2.2838,Hi,,,,,,0,,,,,,,,high,4,0,4,0,1,,,,,,,,,
295141,2022-11-28_10h54.46.148,vts_reward_expectancy_bt,2022.2.4,Win32,60.19744763,Chrome,1620,1080,,,,,10,599,,,,,,,,,,,,,,,,,181,Y,triangle,1,0,,,,,,,,,,,,,,,,switch,number,numSwt,f,0.7998,Hi,,,,,,0,,,,,,,,high,5,0,5,0,1,,,,,,,,,
295141,2022-11-28_10h54.46.148,vts_reward_expectancy_bt,2022.2.4,Win32,60.19744763,Chrome,1620,1080,,,,,10,609,,,,,,,,,,,,,,,,,167,S,star,1,0,,,,,,,,,,,,,,,,switch,letter,lettSwt,k,0.8668,Lo,,,,,,0,,,,,,,,high,6,0,6,0,1,,,,,,,,,
295141,2022-11-28_10h54.46.148,vts_reward_expectancy_bt,2022.2.4,Win32,60.19744763,Chrome,1620,1080,,,,,1,610,,,,,,,,,,,,,,,,,174,D,hexagon,1,0,,,,,,,,,,,,,,,,switch,number,numSwt,f,1.5196,Lo,,,,,,0,,,,,,,,high,7,0,7,0,1,,,,,,,,,
295141,2022-11-28_10h54.46.148,vts_reward_expectancy_bt,2022.2.4,Win32,60.19744763,Chrome,1620,1080,,,,,10,620,,,,,,,,,,,,,,,,,146,F,circle,1,0,,,,,,,,,,,,,,,,switch,letter,lettSwt,j,1.2839,Hi,,,,,,0,,,,,,,,high,8,0,8,0,1,,,,,,,,,
295141,2022-11-28_10h54.46.148,vts_reward_expectancy_bt,2022.2.4,Win32,60.19744763,Chrome,1620,1080,,,,,1,621,,,,,,,,,,,,,,,,,132,U,hexagon,1,0,,,,,,,,,,,,,,,,switch,number,numSwt,d,1.069,Lo,,,,,,0,,,,,,,,high,9,0,9,0,1,,,,,,,,,
295141,2022-11-28_10h54.46.148,vts_reward_expectancy_bt,2022.2.4,Win32,60.19744763,Chrome,1620,1080,,,,,1,622,,,,,,,,,,,,,,,,,160,H,triangle,1,0,,,,,,,,,,,,,,,,switch,letter,lettSwt,j,1.3998,Hi,,,,,,0,,,,,,,,high,10,0,10,0,1,,,,,,,,,
295141,2022-11-28_10h54.46.148,vts_reward_expectancy_bt,2022.2.4,Win32,60.19744763,Chrome,1620,1080,,,,,10,632,,,,,,,,,,,,,,,,,139,B,star,1,0,,,,,,,,,,,,,,,,repeat,letter,lettRpt,j,1.3071,Lo,,,,,,0,,,,,,,,high,11,0,11,0,1,,,,,,,,,
295141,2022-11-28_10h54.46.148,vts_reward_expectancy_bt,2022.2.4,Win32,60.19744763,Chrome,1620,1080,,,,,1,633,,,,,,,,,,,,,,,,,125,W,star,1,0,,,,,,,,,,,,,,,,repeat,letter,lettRpt,k,0.7667,Lo,,,,,,0,,,,,,,,high,12,0,12,0,1,,,,,,,,,
295141,2022-11-28_10h54.46.148,vts_reward_expectancy_bt,2022.2.4,Win32,60.19744763,Chrome,1620,1080,,,,,1,634,,,,,,,,,,,,,,,,,181,Y,circle,1,0,,,,,,,,,,,,,,,,repeat,letter,lettRpt,k,1.3215,Hi,,,,,,0,,,,,,,,high,13,0,13,0,1,,,,,,,,,
295141,2022-11-28_10h54.46.148,vts_reward_expectancy_bt,2022.2.4,Win32,60.19744763,Chrome,1620,1080,,,,,0,634,,,,,,,,,,,,,,,,,167,S,triangle,1,0,,,,,,,,,,,,,,,,switch,number,numSwt,f,1.4182,Hi,,,,,,0,,,,,,,,high,14,0,14,0,1,,,,,,,,,
295141,2022-11-28_10h54.46.148,vts_reward_expectancy_bt,2022.2.4,Win32,60.19744763,Chrome,1620,1080,,,,,1,635,,,,,,,,,,,,,,,,,174,D,hexagon,1,0,,,,,,,,,,,,,,,,switch,letter,lettSwt,j,0.7332,Lo,,,,,,0,,,,,,,,high,15,0,15,0,1,,,,,,,,,
295141,2022-11-28_10h54.46.148,vts_reward_expectancy_bt,2022.2.4,Win32,60.19744763,Chrome,1620,1080,,,,,0,635,,,,,,,,,,,,,,,,,125,W,star,0,0,,,,,,,,,,,,,,,,switch,number,NA,f,2.0013,Lo,,,,,,0,,,,,,,,high,16,0,16,0,1,,,,,,,,,
295141,2022-11-28_10h54.46.148,vts_reward_expectancy_bt,2022.2.4,Win32,60.19744763,Chrome,1620,1080,,,,,1,636,,,,,,,,,,,,,,,,,139,B,hexagon,1,1,,,,,,,,,,,,,,,,repeat,number,numRpt,d,0.8017,Lo,,,,,,0,,,,,,,,high,17,0,17,0,1,,,,,,,,,
295141,2022-11-28_10h54.46.148,vts_reward_expectancy_bt,2022.2.4,Win32,60.19744763,Chrome,1620,1080,,,,,1,637,,,,,,,,,,,,,,,,,174,Y,circle,1,0,,,,,,,,,,,,,,,,switch,letter,lettSwt,k,0.6567,Hi,,,,,,0,,,,,,,,high,18,0,18,0,1,,,,,,,,,
295141,2022-11-28_10h54.46.148,vts_reward_expectancy_bt,2022.2.4,Win32,60.19744763,Chrome,1620,1080,,,,,10,647,,,,,,,,,,,,,,,,,160,F,triangle,1,0,,,,,,,,,,,,,,,,repeat,letter,lettRpt,j,0.7012,Hi,,,,,,0,,,,,,,,high,19,0,19,0,1,,,,,,,,,
295141,2022-11-28_10h54.46.148,vts_reward_expectancy_bt,2022.2.4,Win32,60.19744763,Chrome,1620,1080,,,,,1,648,,,,,,,,,,,,,,,,,146,H,star,1,0,,,,,,,,,,,,,,,,switch,number,numSwt,d,1.5665,Lo,,,,,,0,,,,,,,,high,20,0,20,0,1,,,,,,,,,
295141,2022-11-28_10h54.46.148,vts_reward_expectancy_bt,2022.2.4,Win32,60.19744763,Chrome,1620,1080,,,,,0,648,,,,,,,,,,,,,,,,,181,U,triangle,1,0,,,,,,,,,,,,,,,,repeat,number,numRpt,f,1.1004,Hi,,,,,,0,,,,,,,,high,21,0,21,0,1,,,,,,,,,
295141,2022-11-28_10h54.46.148,vts_reward_expectancy_bt,2022.2.4,Win32,60.19744763,Chrome,1620,1080,,,,,1,649,,,,,,,,,,,,,,,,,167,D,hexagon,1,0,,,,,,,,,,,,,,,,repeat,number,numRpt,f,0.8046,Lo,,,,,,0,,,,,,,,high,22,0,22,0,1,,,,,,,,,
295141,2022-11-28_10h54.46.148,vts_reward_expectancy_bt,2022.2.4,Win32,60.19744763,Chrome,1620,1080,,,,,10,659,,,,,,,,,,,,,,,,,132,S,circle,1,0,,,,,,,,,,,,,,,,switch,letter,lettSwt,k,0.7831,Hi,,,,,,0,,,,,,,,high,23,0,23,0,1,,,,,,,,,
295141,2022-11-28_10h54.46.148,vts_reward_expectancy_bt,2022.2.4,Win32,60.19744763,Chrome,1620,1080,,,,,1,660,,,,,,,,,,,,,,,,,167,H,star,1,0,,,,,,,,,,,,,,,,repeat,letter,lettRpt,j,0.6333,Lo,,,,,,0,,,,,,,,high,24,0,24,0,1,,,,,,,,,
295141,2022-11-28_10h54.46.148,vts_reward_expectancy_bt,2022.2.4,Win32,60.19744763,Chrome,1620,1080,,,,,1,661,,,,,,,,,,,,,,,,,132,F,hexagon,1,0,,,,,,,,,,,,,,,,repeat,letter,lettRpt,j,0.6841,Lo,,,,,,0,,,,,,,,high,25,0,25,0,1,,,,,,,,,
295141,2022-11-28_10h54.46.148,vts_reward_expectancy_bt,2022.2.4,Win32,60.19744763,Chrome,1620,1080,,,,,1,662,,,,,,,,,,,,,,,,,146,U,circle,1,0,,,,,,,,,,,,,,,,repeat,letter,lettRpt,k,0.9323,Hi,,,,,,0,,,,,,,,high,26,0,26,0,1,,,,,,,,,
295141,2022-11-28_10h54.46.148,vts_reward_expectancy_bt,2022.2.4,Win32,60.19744763,Chrome,1620,1080,,,,,10,672,,,,,,,,,,,,,,,,,125,S,triangle,1,0,,,,,,,,,,,,,,,,repeat,letter,lettRpt,k,0.7838,Hi,,,,,,0,,,,,,,,high,27,0,27,0,1,,,,,,,,,
295141,2022-11-28_10h54.46.148,vts_reward_expectancy_bt,2022.2.4,Win32,60.19744763,Chrome,1620,1080,,,,,1,673,,,,,,,,,,,,,,,,,139,D,star,1,0,,,,,,,,,,,,,,,,repeat,letter,lettRpt,j,1.2239,Lo,,,,,,0,,,,,,,,high,28,0,28,0,1,,,,,,,,,
295141,2022-11-28_10h54.46.148,vts_reward_expectancy_bt,2022.2.4,Win32,60.19744763,Chrome,1620,1080,,,,,10,683,,,,,,,,,,,,,,,,,160,Y,hexagon,1,0,,,,,,,,,,,,,,,,repeat,letter,lettRpt,k,1.2831,Lo,,,,,,0,,,,,,,,high,29,0,29,0,1,,,,,,,,,
295141,2022-11-28_10h54.46.148,vts_reward_expectancy_bt,2022.2.4,Win32,60.19744763,Chrome,1620,1080,,,,,1,684,,,,,,,,,,,,,,,,,174,B,circle,1,0,,,,,,,,,,,,,,,,repeat,letter,lettRpt,j,0.733,Hi,,,,,,0,,,,,,,,high,30,0,30,0,1,,,,,,,,,
295141,2022-11-28_10h54.46.148,vts_reward_expectancy_bt,2022.2.4,Win32,60.19744763,Chrome,1620,1080,,,,,10,694,,,,,,,,,,,,,,,,,181,W,triangle,1,0,,,,,,,,,,,,,,,,repeat,letter,lettRpt,k,0.8026,Hi,,,,,,0,,,,,,,,high,31,0,31,0,1,,,,,,,,,
295141,2022-11-28_10h54.46.148,vts_reward_expectancy_bt,2022.2.4,Win32,60.19744763,Chrome,1620,1080,,,,,1,695,,,,,,,,,,,,,,,,,139,S,star,1,0,,,,,,,,,,,,,,,,repeat,letter,lettRpt,k,1.1547,Lo,,,,,,1,,,,,,space,12.2308,high,0,0,0,0,1,,,,,,,,,
295141,2022-11-28_10h54.46.148,vts_reward_expectancy_bt,2022.2.4,Win32,60.19744763,Chrome,1620,1080,,,,,1,696,,,,,,,,,,,,,,,,,160,B,hexagon,1,0,,,,,,,,,,,,,,,,switch,number,numSwt,f,0.7399,Lo,,,,,,1,,,,,,,,high,1,0,1,0,1,,,,,,,,,
295141,2022-11-28_10h54.46.148,vts_reward_expectancy_bt,2022.2.4,Win32,60.19744763,Chrome,1620,1080,,,,,0,696,,,,,,,,,,,,,,,,,167,D,triangle,1,0,,,,,,,,,,,,,,,,switch,letter,lettSwt,j,1.3067,Hi,,,,,,1,,,,,,,,high,2,0,2,0,1,,,,,,,,,
295141,2022-11-28_10h54.46.148,vts_reward_expectancy_bt,2022.2.4,Win32,60.19744763,Chrome,1620,1080,,,,,0,696,,,,,,,,,,,,,,,,,125,Y,circle,0,0,,,,,,,,,,,,,,,,repeat,letter,NA,j,0.97,Hi,,,,,,1,,,,,,,,high,3,0,3,0,1,,,,,,,,,
295141,2022-11-28_10h54.46.148,vts_reward_expectancy_bt,2022.2.4,Win32,60.19744763,Chrome,1620,1080,,,,,1,697,,,,,,,,,,,,,,,,,181,W,star,1,1,,,,,,,,,,,,,,,,switch,number,numSwt,f,0.6364,Lo,,,,,,1,,,,,,,,high,4,0,4,0,1,,,,,,,,,
295141,2022-11-28_10h54.46.148,vts_reward_expectancy_bt,2022.2.4,Win32,60.19744763,Chrome,1620,1080,,,,,1,698,,,,,,,,,,,,,,,,,146,U,hexagon,1,0,,,,,,,,,,,,,,,,repeat,number,numRpt,d,1.684,Lo,,,,,,1,,,,,,,,high,5,0,5,0,1,,,,,,,,,
295141,2022-11-28_10h54.46.148,vts_reward_expectancy_bt,2022.2.4,Win32,60.19744763,Chrome,1620,1080,,,,,0,698,,,,,,,,,,,,,,,,,174,H,triangle,1,0,,,,,,,,,,,,,,,,switch,letter,lettSwt,j,0.8006,Hi,,,,,,1,,,,,,,,high,6,0,6,0,1,,,,,,,,,
295141,2022-11-28_10h54.46.148,vts_reward_expectancy_bt,2022.2.4,Win32,60.19744763,Chrome,1620,1080,,,,,10,708,,,,,,,,,,,,,,,,,132,F,circle,1,0,,,,,,,,,,,,,,,,repeat,letter,lettRpt,j,0.717,Hi,,,,,,1,,,,,,,,high,7,0,7,0,1,,,,,,,,,
295141,2022-11-28_10h54.46.148,vts_reward_expectancy_bt,2022.2.4,Win32,60.19744763,Chrome,1620,1080,,,,,0,708,,,,,,,,,,,,,,,,,139,S,hexagon,0,0,,,,,,,,,,,,,,,,repeat,letter,NA,j,0.7234,Hi,,,,,,1,,,,,,,,high,8,0,8,0,1,,,,,,,,,
295141,2022-11-28_10h54.46.148,vts_reward_expectancy_bt,2022.2.4,Win32,60.19744763,Chrome,1620,1080,,,,,0,708,,,,,,,,,,,,,,,,,160,B,star,0,1,,,,,,,,,,,,,,,,repeat,letter,NA,k,1.3334,Hi,,,,,,1,,,,,,,,high,9,0,9,0,1,,,,,,,,,
295141,2022-11-28_10h54.46.148,vts_reward_expectancy_bt,2022.2.4,Win32,60.19744763,Chrome,1620,1080,,,,,10,718,,,,,,,,,,,,,,,,,167,D,triangle,1,1,,,,,,,,,,,,,,,,repeat,letter,lettRpt,j,0.667,Hi,,,,,,1,,,,,,,,high,10,0,10,0,1,,,,,,,,,
295141,2022-11-28_10h54.46.148,vts_reward_expectancy_bt,2022.2.4,Win32,60.19744763,Chrome,1620,1080,,,,,0,718,,,,,,,,,,,,,,,,,125,Y,circle,0,0,,,,,,,,,,,,,,,,repeat,letter,NA,j,0.4836,Hi,,,,,,1,,,,,,,,high,11,0,11,0,1,,,,,,,,,
295141,2022-11-28_10h54.46.148,vts_reward_expectancy_bt,2022.2.4,Win32,60.19744763,Chrome,1620,1080,,,,,10,728,,,,,,,,,,,,,,,,,181,W,circle,1,1,,,,,,,,,,,,,,,,repeat,letter,lettRpt,k,0.6826,Hi,,,,,,1,,,,,,,,high,12,0,12,0,1,,,,,,,,,
295141,2022-11-28_10h54.46.148,vts_reward_expectancy_bt,2022.2.4,Win32,60.19744763,Chrome,1620,1080,,,,,1,729,,,,,,,,,,,,,,,,,146,U,hexagon,1,0,,,,,,,,,,,,,,,,repeat,letter,lettRpt,k,0.6055,Lo,,,,,,1,,,,,,,,high,13,0,13,0,1,,,,,,,,,
295141,2022-11-28_10h54.46.148,vts_reward_expectancy_bt,2022.2.4,Win32,60.19744763,Chrome,1620,1080,,,,,0,729,,,,,,,,,,,,,,,,,174,H,triangle,1,0,,,,,,,,,,,,,,,,repeat,letter,lettRpt,j,0.8004,Hi,,,,,,1,,,,,,,,high,14,0,14,0,1,,,,,,,,,
295141,2022-11-28_10h54.46.148,vts_reward_expectancy_bt,2022.2.4,Win32,60.19744763,Chrome,1620,1080,,,,,1,730,,,,,,,,,,,,,,,,,132,F,star,1,0,,,,,,,,,,,,,,,,repeat,letter,lettRpt,j,0.5533,Lo,,,,,,1,,,,,,,,high,15,0,15,0,1,,,,,,,,,
295141,2022-11-28_10h54.46.148,vts_reward_expectancy_bt,2022.2.4,Win32,60.19744763,Chrome,1620,1080,,,,,10,740,,,,,,,,,,,,,,,,,139,Y,circle,1,0,,,,,,,,,,,,,,,,repeat,letter,lettRpt,k,0.6,Hi,,,,,,1,,,,,,,,high,16,0,16,0,1,,,,,,,,,
295141,2022-11-28_10h54.46.148,vts_reward_expectancy_bt,2022.2.4,Win32,60.19744763,Chrome,1620,1080,,,,,1,741,,,,,,,,,,,,,,,,,181,S,hexagon,1,0,,,,,,,,,,,,,,,,repeat,letter,lettRpt,k,0.6345,Lo,,,,,,1,,,,,,,,high,17,0,17,0,1,,,,,,,,,
295141,2022-11-28_10h54.46.148,vts_reward_expectancy_bt,2022.2.4,Win32,60.19744763,Chrome,1620,1080,,,,,1,742,,,,,,,,,,,,,,,,,132,F,triangle,1,0,,,,,,,,,,,,,,,,repeat,letter,lettRpt,j,0.7408,Hi,,,,,,1,,,,,,,,high,18,0,18,0,1,,,,,,,,,
295141,2022-11-28_10h54.46.148,vts_reward_expectancy_bt,2022.2.4,Win32,60.19744763,Chrome,1620,1080,,,,,10,752,,,,,,,,,,,,,,,,,146,D,star,1,0,,,,,,,,,,,,,,,,repeat,letter,lettRpt,j,0.7165,Lo,,,,,,1,,,,,,,,high,19,0,19,0,1,,,,,,,,,
295141,2022-11-28_10h54.46.148,vts_reward_expectancy_bt,2022.2.4,Win32,60.19744763,Chrome,1620,1080,,,,,10,762,,,,,,,,,,,,,,,,,160,U,hexagon,1,0,,,,,,,,,,,,,,,,repeat,letter,lettRpt,k,0.6989,Lo,,,,,,1,,,,,,,,high,20,0,20,0,1,,,,,,,,,
295141,2022-11-28_10h54.46.148,vts_reward_expectancy_bt,2022.2.4,Win32,60.19744763,Chrome,1620,1080,,,,,10,772,,,,,,,,,,,,,,,,,125,W,star,1,0,,,,,,,,,,,,,,,,repeat,letter,lettRpt,k,0.6167,Lo,,,,,,1,,,,,,,,high,21,0,21,0,1,,,,,,,,,
295141,2022-11-28_10h54.46.148,vts_reward_expectancy_bt,2022.2.4,Win32,60.19744763,Chrome,1620,1080,,,,,0,772,,,,,,,,,,,,,,,,,167,H,triangle,1,0,,,,,,,,,,,,,,,,repeat,letter,lettRpt,j,0.9161,Hi,,,,,,1,,,,,,,,high,22,0,22,0,1,,,,,,,,,
295141,2022-11-28_10h54.46.148,vts_reward_expectancy_bt,2022.2.4,Win32,60.19744763,Chrome,1620,1080,,,,,10,782,,,,,,,,,,,,,,,,,174,B,circle,1,0,,,,,,,,,,,,,,,,repeat,letter,lettRpt,j,0.6403,Hi,,,,,,1,,,,,,,,high,23,0,23,0,1,,,,,,,,,
295141,2022-11-28_10h54.46.148,vts_reward_expectancy_bt,2022.2.4,Win32,60.19744763,Chrome,1620,1080,,,,,1,783,,,,,,,,,,,,,,,,,181,W,triangle,1,0,,,,,,,,,,,,,,,,repeat,letter,lettRpt,k,0.6341,Hi,,,,,,1,,,,,,,,high,24,0,24,0,1,,,,,,,,,
295141,2022-11-28_10h54.46.148,vts_reward_expectancy_bt,2022.2.4,Win32,60.19744763,Chrome,1620,1080,,,,,1,784,,,,,,,,,,,,,,,,,132,S,star,1,0,,,,,,,,,,,,,,,,repeat,letter,lettRpt,k,0.6664,Lo,,,,,,1,,,,,,,,high,25,0,25,0,1,,,,,,,,,
295141,2022-11-28_10h54.46.148,vts_reward_expectancy_bt,2022.2.4,Win32,60.19744763,Chrome,1620,1080,,,,,0,784,,,,,,,,,,,,,,,,,146,H,circle,1,0,,,,,,,,,,,,,,,,repeat,letter,lettRpt,j,0.8398,Hi,,,,,,1,,,,,,,,high,26,0,26,0,1,,,,,,,,,
295141,2022-11-28_10h54.46.148,vts_reward_expectancy_bt,2022.2.4,Win32,60.19744763,Chrome,1620,1080,,,,,1,785,,,,,,,,,,,,,,,,,160,F,hexagon,1,0,,,,,,,,,,,,,,,,repeat,letter,lettRpt,j,1.3837,Lo,,,,,,1,,,,,,,,high,27,0,27,0,1,,,,,,,,,
295141,2022-11-28_10h54.46.148,vts_reward_expectancy_bt,2022.2.4,Win32,60.19744763,Chrome,1620,1080,,,,,1,786,,,,,,,,,,,,,,,,,139,Y,hexagon,1,0,,,,,,,,,,,,,,,,repeat,letter,lettRpt,k,0.7166,Lo,,,,,,1,,,,,,,,high,28,0,28,0,1,,,,,,,,,
295141,2022-11-28_10h54.46.148,vts_reward_expectancy_bt,2022.2.4,Win32,60.19744763,Chrome,1620,1080,,,,,1,787,,,,,,,,,,,,,,,,,125,U,star,1,0,,,,,,,,,,,,,,,,repeat,letter,lettRpt,k,0.8057,Lo,,,,,,1,,,,,,,,high,29,0,29,0,1,,,,,,,,,
295141,2022-11-28_10h54.46.148,vts_reward_expectancy_bt,2022.2.4,Win32,60.19744763,Chrome,1620,1080,,,,,0,787,,,,,,,,,,,,,,,,,174,B,triangle,1,0,,,,,,,,,,,,,,,,repeat,letter,lettRpt,j,0.9365,Hi,,,,,,1,,,,,,,,high,30,0,30,0,1,,,,,,,,,
295141,2022-11-28_10h54.46.148,vts_reward_expectancy_bt,2022.2.4,Win32,60.19744763,Chrome,1620,1080,,,,,10,797,,,,,,,,,,,,,,,,,167,D,circle,1,0,,,,,,,,,,,,,,,,repeat,letter,lettRpt,j,0.5835,Hi,,,,,,1,,,,,,,,high,31,0,31,0,1,,,,,,,,,
295141,2022-11-28_10h54.46.148,vts_reward_expectancy_bt,2022.2.4,Win32,60.19744763,Chrome,1620,1080,,,,,1,798,,,,,,,,,,,,,,,,,146,B,hexagon,1,0,,,,,,,,,,,,,,,,repeat,letter,lettRpt,j,0.6864,Lo,,,,,,2,,,,,,space,1.1926,high,0,0,0,0,1,,,,,,,,,
295141,2022-11-28_10h54.46.148,vts_reward_expectancy_bt,2022.2.4,Win32,60.19744763,Chrome,1620,1080,,,,,10,808,,,,,,,,,,,,,,,,,125,W,triangle,1,0,,,,,,,,,,,,,,,,repeat,letter,lettRpt,k,0.4835,Hi,,,,,,2,,,,,,,,high,1,0,1,0,1,,,,,,,,,
295141,2022-11-28_10h54.46.148,vts_reward_expectancy_bt,2022.2.4,Win32,60.19744763,Chrome,1620,1080,,,,,10,818,,,,,,,,,,,,,,,,,181,Y,star,1,0,,,,,,,,,,,,,,,,repeat,letter,lettRpt,k,0.6832,Lo,,,,,,2,,,,,,,,high,2,0,2,0,1,,,,,,,,,
295141,2022-11-28_10h54.46.148,vts_reward_expectancy_bt,2022.2.4,Win32,60.19744763,Chrome,1620,1080,,,,,0,818,,,,,,,,,,,,,,,,,132,F,circle,0,0,,,,,,,,,,,,,,,,repeat,letter,NA,k,0.5909,Lo,,,,,,2,,,,,,,,high,3,0,3,0,1,,,,,,,,,
295141,2022-11-28_10h54.46.148,vts_reward_expectancy_bt,2022.2.4,Win32,60.19744763,Chrome,1620,1080,,,,,1,819,,,,,,,,,,,,,,,,,139,S,hexagon,1,1,,,,,,,,,,,,,,,,repeat,letter,lettRpt,k,0.7669,Lo,,,,,,2,,,,,,,,high,4,0,4,0,1,,,,,,,,,
295141,2022-11-28_10h54.46.148,vts_reward_expectancy_bt,2022.2.4,Win32,60.19744763,Chrome,1620,1080,,,,,0,819,,,,,,,,,,,,,,,,,174,H,triangle,1,0,,,,,,,,,,,,,,,,repeat,letter,lettRpt,j,0.7056,Hi,,,,,,2,,,,,,,,high,5,0,5,0,1,,,,,,,,,
295141,2022-11-28_10h54.46.148,vts_reward_expectancy_bt,2022.2.4,Win32,60.19744763,Chrome,1620,1080,,,,,1,820,,,,,,,,,,,,,,,,,167,U,star,1,0,,,,,,,,,,,,,,,,repeat,letter,lettRpt,k,0.5227,Lo,,,,,,2,,,,,,,,high,6,0,6,0,1,,,,,,,,,
295141,2022-11-28_10h54.46.148,vts_reward_expectancy_bt,2022.2.4,Win32,60.19744763,Chrome,1620,1080,,,,,0,820,,,,,,,,,,,,,,,,,160,D,circle,1,0,,,,,,,,,,,,,,,,repeat,letter,lettRpt,j,0.7303,Hi,,,,,,2,,,,,,,,high,7,0,7,0,1,,,,,,,,,
295141,2022-11-28_10h54.46.148,vts_reward_expectancy_bt,2022.2.4,Win32,60.19744763,Chrome,1620,1080,,,,,1,821,,,,,,,,,,,,,,,,,146,B,star,1,0,,,,,,,,,,,,,,,,repeat,letter,lettRpt,j,0.9393,Lo,,,,,,2,,,,,,,,high,8,0,8,0,1,,,,,,,,,
295141,2022-11-28_10h54.46.148,vts_reward_expectancy_bt,2022.2.4,Win32,60.19744763,Chrome,1620,1080,,,,,10,831,,,,,,,,,,,,,,,,,125,W,circle,1,0,,,,,,,,,,,,,,,,repeat,letter,lettRpt,k,0.4708,Hi,,,,,,2,,,,,,,,high,9,0,9,0,1,,,,,,,,,
295141,2022-11-28_10h54.46.148,vts_reward_expectancy_bt,2022.2.4,Win32,60.19744763,Chrome,1620,1080,,,,,1,832,,,,,,,,,,,,,,,,,181,Y,hexagon,1,0,,,,,,,,,,,,,,,,repeat,letter,lettRpt,k,0.5704,Lo,,,,,,2,,,,,,,,high,10,0,10,0,1,,,,,,,,,
295141,2022-11-28_10h54.46.148,vts_reward_expectancy_bt,2022.2.4,Win32,60.19744763,Chrome,1620,1080,,,,,1,833,,,,,,,,,,,,,,,,,132,F,triangle,1,0,,,,,,,,,,,,,,,,repeat,letter,lettRpt,j,0.6007,Hi,,,,,,2,,,,,,,,high,11,0,11,0,1,,,,,,,,,
295141,2022-11-28_10h54.46.148,vts_reward_expectancy_bt,2022.2.4,Win32,60.19744763,Chrome,1620,1080,,,,,10,843,,,,,,,,,,,,,,,,,139,S,triangle,1,0,,,,,,,,,,,,,,,,repeat,letter,lettRpt,k,0.4496,Hi,,,,,,2,,,,,,,,high,12,0,12,0,1,,,,,,,,,
295141,2022-11-28_10h54.46.148,vts_reward_expectancy_bt,2022.2.4,Win32,60.19744763,Chrome,1620,1080,,,,,1,844,,,,,,,,,,,,,,,,,174,H,star,1,0,,,,,,,,,,,,,,,,repeat,letter,lettRpt,j,0.6002,Lo,,,,,,2,,,,,,,,high,13,0,13,0,1,,,,,,,,,
295141,2022-11-28_10h54.46.148,vts_reward_expectancy_bt,2022.2.4,Win32,60.19744763,Chrome,1620,1080,,,,,1,845,,,,,,,,,,,,,,,,,167,U,hexagon,1,0,,,,,,,,,,,,,,,,repeat,letter,lettRpt,k,0.4042,Lo,,,,,,2,,,,,,,,high,14,0,14,0,1,,,,,,,,,
295141,2022-11-28_10h54.46.148,vts_reward_expectancy_bt,2022.2.4,Win32,60.19744763,Chrome,1620,1080,,,,,10,855,,,,,,,,,,,,,,,,,160,D,circle,1,0,,,,,,,,,,,,,,,,repeat,letter,lettRpt,j,0.6203,Hi,,,,,,2,,,,,,,,high,15,0,15,0,1,,,,,,,,,
295141,2022-11-28_10h54.46.148,vts_reward_expectancy_bt,2022.2.4,Win32,60.19744763,Chrome,1620,1080,,,,,0,855,,,,,,,,,,,,,,,,,146,H,triangle,1,0,,,,,,,,,,,,,,,,repeat,letter,lettRpt,j,1.383,Hi,,,,,,2,,,,,,,,high,16,0,16,0,1,,,,,,,,,
295141,2022-11-28_10h54.46.148,vts_reward_expectancy_bt,2022.2.4,Win32,60.19744763,Chrome,1620,1080,,,,,10,865,,,,,,,,,,,,,,,,,160,U,circle,1,0,,,,,,,,,,,,,,,,repeat,letter,lettRpt,k,0.6039,Hi,,,,,,2,,,,,,,,high,17,0,17,0,1,,,,,,,,,
295141,2022-11-28_10h54.46.148,vts_reward_expectancy_bt,2022.2.4,Win32,60.19744763,Chrome,1620,1080,,,,,1,866,,,,,,,,,,,,,,,,,174,Y,star,1,0,,,,,,,,,,,,,,,,repeat,letter,lettRpt,k,0.5549,Lo,,,,,,2,,,,,,,,high,18,0,18,0,1,,,,,,,,,
295141,2022-11-28_10h54.46.148,vts_reward_expectancy_bt,2022.2.4,Win32,60.19744763,Chrome,1620,1080,,,,,1,867,,,,,,,,,,,,,,,,,139,S,hexagon,1,0,,,,,,,,,,,,,,,,repeat,letter,lettRpt,k,0.5846,Lo,,,,,,2,,,,,,,,high,19,0,19,0,1,,,,,,,,,
295141,2022-11-28_10h54.46.148,vts_reward_expectancy_bt,2022.2.4,Win32,60.19744763,Chrome,1620,1080,,,,,10,877,,,,,,,,,,,,,,,,,167,W,star,1,0,,,,,,,,,,,,,,,,repeat,letter,lettRpt,k,0.4338,Lo,,,,,,2,,,,,,,,high,20,0,20,0,1,,,,,,,,,
295141,2022-11-28_10h54.46.148,vts_reward_expectancy_bt,2022.2.4,Win32,60.19744763,Chrome,1620,1080,,,,,10,887,,,,,,,,,,,,,,,,,132,B,triangle,1,0,,,,,,,,,,,,,,,,repeat,letter,lettRpt,j,0.5835,Hi,,,,,,2,,,,,,,,high,21,0,21,0,1,,,,,,,,,
295141,2022-11-28_10h54.46.148,vts_reward_expectancy_bt,2022.2.4,Win32,60.19744763,Chrome,1620,1080,,,,,1,888,,,,,,,,,,,,,,,,,181,D,hexagon,1,0,,,,,,,,,,,,,,,,repeat,letter,lettRpt,j,0.7161,Lo,,,,,,2,,,,,,,,high,22,0,22,0,1,,,,,,,,,
295141,2022-11-28_10h54.46.148,vts_reward_expectancy_bt,2022.2.4,Win32,60.19744763,Chrome,1620,1080,,,,,0,888,,,,,,,,,,,,,,,,,125,F,circle,1,0,,,,,,,,,,,,,,,,repeat,letter,lettRpt,j,0.6832,Hi,,,,,,2,,,,,,,,high,23,0,23,0,1,,,,,,,,,
295141,2022-11-28_10h54.46.148,vts_reward_expectancy_bt,2022.2.4,Win32,60.19744763,Chrome,1620,1080,,,,,10,898,,,,,,,,,,,,,,,,,181,D,circle,1,0,,,,,,,,,,,,,,,,repeat,letter,lettRpt,j,0.567,Hi,,,,,,2,,,,,,,,high,24,0,24,0,1,,,,,,,,,
295141,2022-11-28_10h54.46.148,vts_reward_expectancy_bt,2022.2.4,Win32,60.19744763,Chrome,1620,1080,,,,,10,908,,,,,,,,,,,,,,,,,132,S,triangle,1,0,,,,,,,,,,,,,,,,repeat,letter,lettRpt,k,0.521,Hi,,,,,,2,,,,,,,,high,25,0,25,0,1,,,,,,,,,
295141,2022-11-28_10h54.46.148,vts_reward_expectancy_bt,2022.2.4,Win32,60.19744763,Chrome,1620,1080,,,,,10,918,,,,,,,,,,,,,,,,,125,H,hexagon,1,0,,,,,,,,,,,,,,,,repeat,letter,lettRpt,j,0.6744,Lo,,,,,,2,,,,,,,,high,26,0,26,0,1,,,,,,,,,
295141,2022-11-28_10h54.46.148,vts_reward_expectancy_bt,2022.2.4,Win32,60.19744763,Chrome,1620,1080,,,,,1,919,,,,,,,,,,,,,,,,,167,B,star,1,0,,,,,,,,,,,,,,,,repeat,letter,lettRpt,j,0.5555,Lo,,,,,,2,,,,,,,,high,27,0,27,0,1,,,,,,,,,
295141,2022-11-28_10h54.46.148,vts_reward_expectancy_bt,2022.2.4,Win32,60.19744763,Chrome,1620,1080,,,,,1,920,,,,,,,,,,,,,,,,,139,Y,hexagon,1,0,,,,,,,,,,,,,,,,repeat,letter,lettRpt,k,0.5009,Lo,,,,,,2,,,,,,,,high,28,0,28,0,1,,,,,,,,,
295141,2022-11-28_10h54.46.148,vts_reward_expectancy_bt,2022.2.4,Win32,60.19744763,Chrome,1620,1080,,,,,10,930,,,,,,,,,,,,,,,,,174,U,triangle,1,0,,,,,,,,,,,,,,,,repeat,letter,lettRpt,k,0.6204,Hi,,,,,,2,,,,,,,,high,29,0,29,0,1,,,,,,,,,
295141,2022-11-28_10h54.46.148,vts_reward_expectancy_bt,2022.2.4,Win32,60.19744763,Chrome,1620,1080,,,,,1,931,,,,,,,,,,,,,,,,,160,W,star,1,0,,,,,,,,,,,,,,,,repeat,letter,lettRpt,k,0.5836,Lo,,,,,,2,,,,,,,,high,30,0,30,0,1,,,,,,,,,
295141,2022-11-28_10h54.46.148,vts_reward_expectancy_bt,2022.2.4,Win32,60.19744763,Chrome,1620,1080,,,,,0,931,,,,,,,,,,,,,,,,,146,F,circle,1,0,,,,,,,,,,,,,,,,repeat,letter,lettRpt,j,0.8898,Hi,,,,,,2,,,,,,,,high,31,0,31,0,1,,,,,,,,,
295141,2022-11-28_10h54.46.148,vts_reward_expectancy_bt,2022.2.4,Win32,60.19744763,Chrome,1620,1080,,,,,0,931,,,,,,,,,,,,,,,,,139,W,circle,1,0,,,,,,,,,,,,,,,,repeat,letter,lettRpt,k,2.9508,Hi,,,,,,3,,,,,,space,2.9155,high,0,0,0,0,1,,,,,,,,,
295141,2022-11-28_10h54.46.148,vts_reward_expectancy_bt,2022.2.4,Win32,60.19744763,Chrome,1620,1080,,,,,10,941,,,,,,,,,,,,,,,,,181,B,triangle,1,0,,,,,,,,,,,,,,,,repeat,letter,lettRpt,j,0.5516,Hi,,,,,,3,,,,,,,,high,1,0,1,0,1,,,,,,,,,
295141,2022-11-28_10h54.46.148,vts_reward_expectancy_bt,2022.2.4,Win32,60.19744763,Chrome,1620,1080,,,,,1,942,,,,,,,,,,,,,,,,,146,U,hexagon,1,0,,,,,,,,,,,,,,,,repeat,letter,lettRpt,k,0.6999,Lo,,,,,,3,,,,,,,,high,2,0,2,0,1,,,,,,,,,
295141,2022-11-28_10h54.46.148,vts_reward_expectancy_bt,2022.2.4,Win32,60.19744763,Chrome,1620,1080,,,,,1,943,,,,,,,,,,,,,,,,,174,Y,star,1,0,,,,,,,,,,,,,,,,repeat,letter,lettRpt,k,0.5498,Lo,,,,,,3,,,,,,,,high,3,0,3,0,1,,,,,,,,,
295141,2022-11-28_10h54.46.148,vts_reward_expectancy_bt,2022.2.4,Win32,60.19744763,Chrome,1620,1080,,,,,0,943,,,,,,,,,,,,,,,,,125,H,circle,0,0,,,,,,,,,,,,,,,,repeat,letter,NA,k,0.533,Lo,,,,,,3,,,,,,,,high,4,0,4,0,1,,,,,,,,,
295141,2022-11-28_10h54.46.148,vts_reward_expectancy_bt,2022.2.4,Win32,60.19744763,Chrome,1620,1080,,,,,0,943,,,,,,,,,,,,,,,,,160,D,triangle,1,1,,,,,,,,,,,,,,,,repeat,letter,lettRpt,j,0.7001,Hi,,,,,,3,,,,,,,,high,5,0,5,0,1,,,,,,,,,
295141,2022-11-28_10h54.46.148,vts_reward_expectancy_bt,2022.2.4,Win32,60.19744763,Chrome,1620,1080,,,,,1,944,,,,,,,,,,,,,,,,,167,F,hexagon,1,0,,,,,,,,,,,,,,,,repeat,letter,lettRpt,j,0.5834,Lo,,,,,,3,,,,,,,,high,6,0,6,0,1,,,,,,,,,
295141,2022-11-28_10h54.46.148,vts_reward_expectancy_bt,2022.2.4,Win32,60.19744763,Chrome,1620,1080,,,,,0,944,,,,,,,,,,,,,,,,,132,S,star,0,0,,,,,,,,,,,,,,,,repeat,letter,NA,j,0.4721,Lo,,,,,,3,,,,,,,,high,7,0,7,0,1,,,,,,,,,
295141,2022-11-28_10h54.46.148,vts_reward_expectancy_bt,2022.2.4,Win32,60.19744763,Chrome,1620,1080,,,,,10,954,,,,,,,,,,,,,,,,,139,W,hexagon,1,1,,,,,,,,,,,,,,,,repeat,letter,lettRpt,k,0.5164,Lo,,,,,,3,,,,,,,,high,8,0,8,0,1,,,,,,,,,
295141,2022-11-28_10h54.46.148,vts_reward_expectancy_bt,2022.2.4,Win32,60.19744763,Chrome,1620,1080,,,,,1,955,,,,,,,,,,,,,,,,,181,B,star,1,0,,,,,,,,,,,,,,,,repeat,letter,lettRpt,j,0.5738,Lo,,,,,,3,,,,,,,,high,9,0,9,0,1,,,,,,,,,
295141,2022-11-28_10h54.46.148,vts_reward_expectancy_bt,2022.2.4,Win32,60.19744763,Chrome,1620,1080,,,,,0,955,,,,,,,,,,,,,,,,,146,U,circle,1,0,,,,,,,,,,,,,,,,repeat,letter,lettRpt,k,0.6671,Hi,,,,,,3,,,,,,,,high,10,0,10,0,1,,,,,,,,,
295141,2022-11-28_10h54.46.148,vts_reward_expectancy_bt,2022.2.4,Win32,60.19744763,Chrome,1620,1080,,,,,0,955,,,,,,,,,,,,,,,,,174,Y,triangle,1,0,,,,,,,,,,,,,,,,repeat,letter,lettRpt,k,0.6731,Hi,,,,,,3,,,,,,,,high,11,0,11,0,1,,,,,,,,,
295141,2022-11-28_10h54.46.148,vts_reward_expectancy_bt,2022.2.4,Win32,60.19744763,Chrome,1620,1080,,,,,0,955,,,,,,,,,,,,,,,,,125,H,circle,1,0,,,,,,,,,,,,,,,,repeat,letter,lettRpt,j,1.0316,Hi,,,,,,3,,,,,,,,high,12,0,12,0,1,,,,,,,,,
295141,2022-11-28_10h54.46.148,vts_reward_expectancy_bt,2022.2.4,Win32,60.19744763,Chrome,1620,1080,,,,,0,955,,,,,,,,,,,,,,,,,160,D,hexagon,0,0,,,,,,,,,,,,,,,,repeat,letter,NA,k,0.3504,Hi,,,,,,3,,,,,,,,high,13,0,13,0,1,,,,,,,,,
295141,2022-11-28_10h54.46.148,vts_reward_expectancy_bt,2022.2.4,Win32,60.19744763,Chrome,1620,1080,,,,,0,955,,,,,,,,,,,,,,,,,167,F,triangle,1,1,,,,,,,,,,,,,,,,repeat,letter,lettRpt,j,0.6502,Hi,,,,,,3,,,,,,,,high,14,0,14,0,1,,,,,,,,,
295141,2022-11-28_10h54.46.148,vts_reward_expectancy_bt,2022.2.4,Win32,60.19744763,Chrome,1620,1080,,,,,0,955,,,,,,,,,,,,,,,,,132,S,star,0,0,,,,,,,,,,,,,,,,repeat,letter,NA,j,0.5352,Hi,,,,,,3,,,,,,,,high,15,0,15,0,1,,,,,,,,,
295141,2022-11-28_10h54.46.148,vts_reward_expectancy_bt,2022.2.4,Win32,60.19744763,Chrome,1620,1080,,,,,0,955,,,,,,,,,,,,,,,,,160,Y,hexagon,0,1,,,,,,,,,,,,,,,,repeat,letter,NA,j,0.3558,Hi,,,,,,3,,,,,,,,high,16,0,16,0,1,,,,,,,,,
295141,2022-11-28_10h54.46.148,vts_reward_expectancy_bt,2022.2.4,Win32,60.19744763,Chrome,1620,1080,,,,,1,956,,,,,,,,,,,,,,,,,125,F,star,1,1,,,,,,,,,,,,,,,,repeat,letter,lettRpt,j,0.6031,Lo,,,,,,3,,,,,,,,high,17,0,17,0,1,,,,,,,,,
295141,2022-11-28_10h54.46.148,vts_reward_expectancy_bt,2022.2.4,Win32,60.19744763,Chrome,1620,1080,,,,,10,966,,,,,,,,,,,,,,,,,174,S,circle,1,0,,,,,,,,,,,,,,,,repeat,letter,lettRpt,k,0.5005,Hi,,,,,,3,,,,,,,,high,18,0,18,0,1,,,,,,,,,
295141,2022-11-28_10h54.46.148,vts_reward_expectancy_bt,2022.2.4,Win32,60.19744763,Chrome,1620,1080,,,,,0,966,,,,,,,,,,,,,,,,,181,D,triangle,1,0,,,,,,,,,,,,,,,,repeat,letter,lettRpt,j,0.8704,Hi,,,,,,3,,,,,,,,high,19,0,19,0,1,,,,,,,,,
295141,2022-11-28_10h54.46.148,vts_reward_expectancy_bt,2022.2.4,Win32,60.19744763,Chrome,1620,1080,,,,,10,976,,,,,,,,,,,,,,,,,146,W,circle,1,0,,,,,,,,,,,,,,,,repeat,letter,lettRpt,k,0.4333,Hi,,,,,,3,,,,,,,,high,20,0,20,0,1,,,,,,,,,
295141,2022-11-28_10h54.46.148,vts_reward_expectancy_bt,2022.2.4,Win32,60.19744763,Chrome,1620,1080,,,,,1,977,,,,,,,,,,,,,,,,,132,H,hexagon,1,0,,,,,,,,,,,,,,,,repeat,letter,lettRpt,j,0.4496,Lo,,,,,,3,,,,,,,,high,21,0,21,0,1,,,,,,,,,
295141,2022-11-28_10h54.46.148,vts_reward_expectancy_bt,2022.2.4,Win32,60.19744763,Chrome,1620,1080,,,,,10,987,,,,,,,,,,,,,,,,,167,U,star,1,0,,,,,,,,,,,,,,,,repeat,letter,lettRpt,k,0.4499,Lo,,,,,,3,,,,,,,,high,22,0,22,0,1,,,,,,,,,
295141,2022-11-28_10h54.46.148,vts_reward_expectancy_bt,2022.2.4,Win32,60.19744763,Chrome,1620,1080,,,,,10,997,,,,,,,,,,,,,,,,,139,B,triangle,1,0,,,,,,,,,,,,,,,,repeat,letter,lettRpt,j,0.4003,Hi,,,,,,3,,,,,,,,high,23,0,23,0,1,,,,,,,,,
295141,2022-11-28_10h54.46.148,vts_reward_expectancy_bt,2022.2.4,Win32,60.19744763,Chrome,1620,1080,,,,,0,997,,,,,,,,,,,,,,,,,132,H,hexagon,0,0,,,,,,,,,,,,,,,,repeat,letter,NA,k,0.6159,Hi,,,,,,3,,,,,,,,high,24,0,24,0,1,,,,,,,,,
295141,2022-11-28_10h54.46.148,vts_reward_expectancy_bt,2022.2.4,Win32,60.19744763,Chrome,1620,1080,,,,,10,1007,,,,,,,,,,,,,,,,,139,U,circle,1,1,,,,,,,,,,,,,,,,repeat,letter,lettRpt,k,0.4998,Hi,,,,,,3,,,,,,,,high,25,0,25,0,1,,,,,,,,,
295141,2022-11-28_10h54.46.148,vts_reward_expectancy_bt,2022.2.4,Win32,60.19744763,Chrome,1620,1080,,,,,10,1017,,,,,,,,,,,,,,,,,167,B,triangle,1,0,,,,,,,,,,,,,,,,repeat,letter,lettRpt,j,0.5338,Hi,,,,,,3,,,,,,,,high,26,0,26,0,1,,,,,,,,,
295141,2022-11-28_10h54.46.148,vts_reward_expectancy_bt,2022.2.4,Win32,60.19744763,Chrome,1620,1080,,,,,0,1017,,,,,,,,,,,,,,,,,160,F,star,0,0,,,,,,,,,,,,,,,,repeat,letter,NA,k,0.8539,Hi,,,,,,3,,,,,,,,high,27,0,27,0,1,,,,,,,,,
295141,2022-11-28_10h54.46.148,vts_reward_expectancy_bt,2022.2.4,Win32,60.19744763,Chrome,1620,1080,,,,,1,1018,,,,,,,,,,,,,,,,,181,S,hexagon,1,1,,,,,,,,,,,,,,,,repeat,letter,lettRpt,k,0.6831,Lo,,,,,,3,,,,,,,,high,28,0,28,0,1,,,,,,,,,
295141,2022-11-28_10h54.46.148,vts_reward_expectancy_bt,2022.2.4,Win32,60.19744763,Chrome,1620,1080,,,,,0,1018,,,,,,,,,,,,,,,,,146,Y,triangle,1,0,,,,,,,,,,,,,,,,repeat,letter,lettRpt,k,0.6661,Hi,,,,,,3,,,,,,,,high,29,0,29,0,1,,,,,,,,,
295141,2022-11-28_10h54.46.148,vts_reward_expectancy_bt,2022.2.4,Win32,60.19744763,Chrome,1620,1080,,,,,10,1028,,,,,,,,,,,,,,,,,125,D,circle,1,0,,,,,,,,,,,,,,,,repeat,letter,lettRpt,j,0.4987,Hi,,,,,,3,,,,,,,,high,30,0,30,0,1,,,,,,,,,
295141,2022-11-28_10h54.46.148,vts_reward_expectancy_bt,2022.2.4,Win32,60.19744763,Chrome,1620,1080,,,,,1,1029,,,,,,,,,,,,,,,,,174,W,star,1,0,,,,,,,,,,,,,,,,repeat,letter,lettRpt,k,0.6338,Lo,,,,,,3,,,,,,,,high,31,0,31,0,1,,,,,,,,,
295141,2022-11-28_10h54.46.148,vts_reward_expectancy_bt,2022.2.4,Win32,60.19744763,Chrome,1620,1080,,,,,1,1030,,,,,,,,,,,,,,,,,160,F,star,1,0,,,,,,,,,,,,,,,,repeat,letter,lettRpt,j,0.7995,Lo,,,,,,4,,,,,,space,10.493,high,0,0,0,0,1,,,,,,,,,
295141,2022-11-28_10h54.46.148,vts_reward_expectancy_bt,2022.2.4,Win32,60.19744763,Chrome,1620,1080,,,,,0,1030,,,,,,,,,,,,,,,,,125,W,circle,1,0,,,,,,,,,,,,,,,,repeat,letter,lettRpt,k,0.9337,Hi,,,,,,4,,,,,,,,high,1,0,1,0,1,,,,,,,,,
295141,2022-11-28_10h54.46.148,vts_reward_expectancy_bt,2022.2.4,Win32,60.19744763,Chrome,1620,1080,,,,,1,1031,,,,,,,,,,,,,,,,,146,H,hexagon,1,0,,,,,,,,,,,,,,,,repeat,letter,lettRpt,j,0.6078,Lo,,,,,,4,,,,,,,,high,2,0,2,0,1,,,,,,,,,
295141,2022-11-28_10h54.46.148,vts_reward_expectancy_bt,2022.2.4,Win32,60.19744763,Chrome,1620,1080,,,,,0,1031,,,,,,,,,,,,,,,,,132,B,triangle,1,0,,,,,,,,,,,,,,,,repeat,letter,lettRpt,j,0.7017,Hi,,,,,,4,,,,,,,,high,3,0,3,0,1,,,,,,,,,
295141,2022-11-28_10h54.46.148,vts_reward_expectancy_bt,2022.2.4,Win32,60.19744763,Chrome,1620,1080,,,,,1,1032,,,,,,,,,,,,,,,,,181,D,star,1,0,,,,,,,,,,,,,,,,repeat,letter,lettRpt,j,0.5377,Lo,,,,,,4,,,,,,,,high,4,0,4,0,1,,,,,,,,,
295141,2022-11-28_10h54.46.148,vts_reward_expectancy_bt,2022.2.4,Win32,60.19744763,Chrome,1620,1080,,,,,0,1032,,,,,,,,,,,,,,,,,139,U,circle,1,0,,,,,,,,,,,,,,,,repeat,letter,lettRpt,k,0.6338,Hi,,,,,,4,,,,,,,,high,5,0,5,0,1,,,,,,,,,
295141,2022-11-28_10h54.46.148,vts_reward_expectancy_bt,2022.2.4,Win32,60.19744763,Chrome,1620,1080,,,,,1,1033,,,,,,,,,,,,,,,,,167,Y,hexagon,1,0,,,,,,,,,,,,,,,,repeat,letter,lettRpt,k,0.6175,Lo,,,,,,4,,,,,,,,high,6,0,6,0,1,,,,,,,,,
295141,2022-11-28_10h54.46.148,vts_reward_expectancy_bt,2022.2.4,Win32,60.19744763,Chrome,1620,1080,,,,,0,1033,,,,,,,,,,,,,,,,,174,S,triangle,1,0,,,,,,,,,,,,,,,,repeat,letter,lettRpt,k,0.6369,Hi,,,,,,4,,,,,,,,high,7,0,7,0,1,,,,,,,,,
295141,2022-11-28_10h54.46.148,vts_reward_expectancy_bt,2022.2.4,Win32,60.19744763,Chrome,1620,1080,,,,,1,1034,,,,,,,,,,,,,,,,,160,F,circle,1,0,,,,,,,,,,,,,,,,repeat,letter,lettRpt,j,0.5201,Hi,,,,,,4,,,,,,,,high,8,0,8,0,1,,,,,,,,,
295141,2022-11-28_10h54.46.148,vts_reward_expectancy_bt,2022.2.4,Win32,60.19744763,Chrome,1620,1080,,,,,1,1035,,,,,,,,,,,,,,,,,125,W,hexagon,1,0,,,,,,,,,,,,,,,,repeat,letter,lettRpt,k,0.35,Lo,,,,,,4,,,,,,,,high,9,0,9,0,1,,,,,,,,,
295141,2022-11-28_10h54.46.148,vts_reward_expectancy_bt,2022.2.4,Win32,60.19744763,Chrome,1620,1080,,,,,0,1035,,,,,,,,,,,,,,,,,146,H,star,0,0,,,,,,,,,,,,,,,,repeat,letter,NA,k,0.6163,Lo,,,,,,4,,,,,,,,high,10,0,10,0,1,,,,,,,,,
295141,2022-11-28_10h54.46.148,vts_reward_expectancy_bt,2022.2.4,Win32,60.19744763,Chrome,1620,1080,,,,,0,1035,,,,,,,,,,,,,,,,,132,B,triangle,1,1,,,,,,,,,,,,,,,,repeat,letter,lettRpt,j,0.6832,Hi,,,,,,4,,,,,,,,high,11,0,11,0,1,,,,,,,,,
295141,2022-11-28_10h54.46.148,vts_reward_expectancy_bt,2022.2.4,Win32,60.19744763,Chrome,1620,1080,,,,,0,1035,,,,,,,,,,,,,,,,,181,D,circle,1,0,,,,,,,,,,,,,,,,repeat,letter,lettRpt,j,0.6327,Hi,,,,,,4,,,,,,,,high,12,0,12,0,1,,,,,,,,,
295141,2022-11-28_10h54.46.148,vts_reward_expectancy_bt,2022.2.4,Win32,60.19744763,Chrome,1620,1080,,,,,10,1045,,,,,,,,,,,,,,,,,139,U,star,1,0,,,,,,,,,,,,,,,,repeat,letter,lettRpt,k,0.4986,Lo,,,,,,4,,,,,,,,high,13,0,13,0,1,,,,,,,,,
295141,2022-11-28_10h54.46.148,vts_reward_expectancy_bt,2022.2.4,Win32,60.19744763,Chrome,1620,1080,,,,,10,1055,,,,,,,,,,,,,,,,,167,Y,triangle,1,0,,,,,,,,,,,,,,,,repeat,letter,lettRpt,k,0.5064,Hi,,,,,,4,,,,,,,,high,14,0,14,0,1,,,,,,,,,
295141,2022-11-28_10h54.46.148,vts_reward_expectancy_bt,2022.2.4,Win32,60.19744763,Chrome,1620,1080,,,,,1,1056,,,,,,,,,,,,,,,,,174,S,hexagon,1,0,,,,,,,,,,,,,,,,repeat,letter,lettRpt,k,0.507,Lo,,,,,,4,,,,,,,,high,15,0,15,0,1,,,,,,,,,
295141,2022-11-28_10h54.46.148,vts_reward_expectancy_bt,2022.2.4,Win32,60.19744763,Chrome,1620,1080,,,,,0,1056,,,,,,,,,,,,,,,,,146,H,triangle,1,0,,,,,,,,,,,,,,,,repeat,letter,lettRpt,j,0.6834,Hi,,,,,,4,,,,,,,,high,16,0,16,0,1,,,,,,,,,
295141,2022-11-28_10h54.46.148,vts_reward_expectancy_bt,2022.2.4,Win32,60.19744763,Chrome,1620,1080,,,,,1,1057,,,,,,,,,,,,,,,,,125,U,hexagon,1,0,,,,,,,,,,,,,,,,repeat,letter,lettRpt,k,0.6336,Lo,,,,,,4,,,,,,,,high,17,0,17,0,1,,,,,,,,,
295141,2022-11-28_10h54.46.148,vts_reward_expectancy_bt,2022.2.4,Win32,60.19744763,Chrome,1620,1080,,,,,10,1067,,,,,,,,,,,,,,,,,132,B,circle,1,0,,,,,,,,,,,,,,,,repeat,letter,lettRpt,j,0.4171,Hi,,,,,,4,,,,,,,,high,18,0,18,0,1,,,,,,,,,
295141,2022-11-28_10h54.46.148,vts_reward_expectancy_bt,2022.2.4,Win32,60.19744763,Chrome,1620,1080,,,,,1,1068,,,,,,,,,,,,,,,,,160,D,star,1,0,,,,,,,,,,,,,,,,repeat,letter,lettRpt,j,0.5666,Lo,,,,,,4,,,,,,,,high,19,0,19,0,1,,,,,,,,,
295141,2022-11-28_10h54.46.148,vts_reward_expectancy_bt,2022.2.4,Win32,60.19744763,Chrome,1620,1080,,,,,10,1078,,,,,,,,,,,,,,,,,167,S,circle,1,0,,,,,,,,,,,,,,,,repeat,letter,lettRpt,k,0.4339,Hi,,,,,,4,,,,,,,,high,20,0,20,0,1,,,,,,,,,
295141,2022-11-28_10h54.46.148,vts_reward_expectancy_bt,2022.2.4,Win32,60.19744763,Chrome,1620,1080,,,,,10,1088,,,,,,,,,,,,,,,,,181,F,star,1,0,,,,,,,,,,,,,,,,repeat,letter,lettRpt,j,0.8839,Lo,,,,,,4,,,,,,,,high,21,0,21,0,1,,,,,,,,,
295141,2022-11-28_10h54.46.148,vts_reward_expectancy_bt,2022.2.4,Win32,60.19744763,Chrome,1620,1080,,,,,1,1089,,,,,,,,,,,,,,,,,174,W,triangle,1,0,,,,,,,,,,,,,,,,repeat,letter,lettRpt,k,0.5009,Hi,,,,,,4,,,,,,,,high,22,0,22,0,1,,,,,,,,,
295141,2022-11-28_10h54.46.148,vts_reward_expectancy_bt,2022.2.4,Win32,60.19744763,Chrome,1620,1080,,,,,1,1090,,,,,,,,,,,,,,,,,139,Y,hexagon,1,0,,,,,,,,,,,,,,,,repeat,letter,lettRpt,k,0.5386,Lo,,,,,,4,,,,,,,,high,23,0,23,0,1,,,,,,,,,
295141,2022-11-28_10h54.46.148,vts_reward_expectancy_bt,2022.2.4,Win32,60.19744763,Chrome,1620,1080,,,,,1,1091,,,,,,,,,,,,,,,,,181,S,hexagon,1,0,,,,,,,,,,,,,,,,repeat,letter,lettRpt,k,0.5829,Lo,,,,,,4,,,,,,,,high,24,0,24,0,1,,,,,,,,,
295141,2022-11-28_10h54.46.148,vts_reward_expectancy_bt,2022.2.4,Win32,60.19744763,Chrome,1620,1080,,,,,0,1091,,,,,,,,,,,,,,,,,139,F,circle,1,0,,,,,,,,,,,,,,,,repeat,letter,lettRpt,j,0.8507,Hi,,,,,,4,,,,,,,,high,25,0,25,0,1,,,,,,,,,
295141,2022-11-28_10h54.46.148,vts_reward_expectancy_bt,2022.2.4,Win32,60.19744763,Chrome,1620,1080,,,,,0,1091,,,,,,,,,,,,,,,,,146,Y,triangle,1,0,,,,,,,,,,,,,,,,repeat,letter,lettRpt,k,0.5715,Hi,,,,,,4,,,,,,,,high,26,0,26,0,1,,,,,,,,,
295141,2022-11-28_10h54.46.148,vts_reward_expectancy_bt,2022.2.4,Win32,60.19744763,Chrome,1620,1080,,,,,1,1092,,,,,,,,,,,,,,,,,125,W,star,1,0,,,,,,,,,,,,,,,,repeat,letter,lettRpt,k,0.5044,Lo,,,,,,4,,,,,,,,high,27,0,27,0,1,,,,,,,,,
295141,2022-11-28_10h54.46.148,vts_reward_expectancy_bt,2022.2.4,Win32,60.19744763,Chrome,1620,1080,,,,,1,1093,,,,,,,,,,,,,,,,,174,H,star,1,0,,,,,,,,,,,,,,,,repeat,letter,lettRpt,j,0.8164,Lo,,,,,,4,,,,,,,,high,28,0,28,0,1,,,,,,,,,
295141,2022-11-28_10h54.46.148,vts_reward_expectancy_bt,2022.2.4,Win32,60.19744763,Chrome,1620,1080,,,,,0,1093,,,,,,,,,,,,,,,,,160,U,circle,1,0,,,,,,,,,,,,,,,,repeat,letter,lettRpt,k,0.552,Hi,,,,,,4,,,,,,,,high,29,0,29,0,1,,,,,,,,,
295141,2022-11-28_10h54.46.148,vts_reward_expectancy_bt,2022.2.4,Win32,60.19744763,Chrome,1620,1080,,,,,1,1094,,,,,,,,,,,,,,,,,132,D,hexagon,1,0,,,,,,,,,,,,,,,,repeat,letter,lettRpt,j,0.567,Lo,,,,,,4,,,,,,,,high,30,0,30,0,1,,,,,,,,,
295141,2022-11-28_10h54.46.148,vts_reward_expectancy_bt,2022.2.4,Win32,60.19744763,Chrome,1620,1080,,,,,10,1104,,,,,,,,,,,,,,,,,167,B,triangle,1,0,,,,,,,,,,,,,,,,repeat,letter,lettRpt,j,0.5,Hi,,,,,,4,,,,,,,,high,31,0,31,0,1,,,,,,,,,
295141,2022-11-28_10h54.46.148,vts_reward_expectancy_bt,2022.2.4,Win32,60.19744763,Chrome,1620,1080,,,,,1,1105,,,,,,,,,,,,,,,,,139,W,star,1,0,,,,,,,,,,,,,,,,repeat,letter,lettRpt,k,0.7329,Lo,,,,,,5,,,,,,space,17.6688,high,0,0,0,0,1,,,,,,,,,
295141,2022-11-28_10h54.46.148,vts_reward_expectancy_bt,2022.2.4,Win32,60.19744763,Chrome,1620,1080,,,,,0,1105,,,,,,,,,,,,,,,,,160,B,triangle,1,0,,,,,,,,,,,,,,,,repeat,letter,lettRpt,j,0.5499,Hi,,,,,,5,,,,,,,,high,1,0,1,0,1,,,,,,,,,
295141,2022-11-28_10h54.46.148,vts_reward_expectancy_bt,2022.2.4,Win32,60.19744763,Chrome,1620,1080,,,,,10,1115,,,,,,,,,,,,,,,,,132,U,circle,1,0,,,,,,,,,,,,,,,,repeat,letter,lettRpt,k,0.5356,Hi,,,,,,5,,,,,,,,high,2,0,2,0,1,,,,,,,,,
295141,2022-11-28_10h54.46.148,vts_reward_expectancy_bt,2022.2.4,Win32,60.19744763,Chrome,1620,1080,,,,,0,1115,,,,,,,,,,,,,,,,,146,H,hexagon,0,0,,,,,,,,,,,,,,,,repeat,letter,NA,k,0.5826,Hi,,,,,,5,,,,,,,,high,3,0,3,0,1,,,,,,,,,
295141,2022-11-28_10h54.46.148,vts_reward_expectancy_bt,2022.2.4,Win32,60.19744763,Chrome,1620,1080,,,,,1,1116,,,,,,,,,,,,,,,,,174,D,star,1,1,,,,,,,,,,,,,,,,repeat,letter,lettRpt,j,0.4672,Lo,,,,,,5,,,,,,,,high,4,0,4,0,1,,,,,,,,,
295141,2022-11-28_10h54.46.148,vts_reward_expectancy_bt,2022.2.4,Win32,60.19744763,Chrome,1620,1080,,,,,0,1116,,,,,,,,,,,,,,,,,125,F,triangle,1,0,,,,,,,,,,,,,,,,repeat,letter,lettRpt,j,0.5826,Hi,,,,,,5,,,,,,,,high,5,0,5,0,1,,,,,,,,,
295141,2022-11-28_10h54.46.148,vts_reward_expectancy_bt,2022.2.4,Win32,60.19744763,Chrome,1620,1080,,,,,0,1116,,,,,,,,,,,,,,,,,167,S,circle,0,0,,,,,,,,,,,,,,,,repeat,letter,NA,j,0.6165,Hi,,,,,,5,,,,,,,,high,6,0,6,0,1,,,,,,,,,
295141,2022-11-28_10h54.46.148,vts_reward_expectancy_bt,2022.2.4,Win32,60.19744763,Chrome,1620,1080,,,,,1,1117,,,,,,,,,,,,,,,,,181,Y,hexagon,1,1,,,,,,,,,,,,,,,,repeat,letter,lettRpt,k,1.1836,Lo,,,,,,5,,,,,,,,high,7,0,7,0,1,,,,,,,,,
295141,2022-11-28_10h54.46.148,vts_reward_expectancy_bt,2022.2.4,Win32,60.19744763,Chrome,1620,1080,,,,,1,1118,,,,,,,,,,,,,,,,,139,W,star,1,0,,,,,,,,,,,,,,,,repeat,letter,lettRpt,k,0.5332,Lo,,,,,,5,,,,,,,,high,8,0,8,0,1,,,,,,,,,
295141,2022-11-28_10h54.46.148,vts_reward_expectancy_bt,2022.2.4,Win32,60.19744763,Chrome,1620,1080,,,,,1,1119,,,,,,,,,,,,,,,,,160,B,hexagon,1,0,,,,,,,,,,,,,,,,repeat,letter,lettRpt,j,0.5336,Lo,,,,,,5,,,,,,,,high,9,0,9,0,1,,,,,,,,,
295141,2022-11-28_10h54.46.148,vts_reward_expectancy_bt,2022.2.4,Win32,60.19744763,Chrome,1620,1080,,,,,10,1129,,,,,,,,,,,,,,,,,132,U,triangle,1,0,,,,,,,,,,,,,,,,repeat,letter,lettRpt,k,0.5075,Hi,,,,,,5,,,,,,,,high,10,0,10,0,1,,,,,,,,,
295141,2022-11-28_10h54.46.148,vts_reward_expectancy_bt,2022.2.4,Win32,60.19744763,Chrome,1620,1080,,,,,0,1129,,,,,,,,,,,,,,,,,146,H,circle,1,0,,,,,,,,,,,,,,,,repeat,letter,lettRpt,j,0.9682,Hi,,,,,,5,,,,,,,,high,11,0,11,0,1,,,,,,,,,
295141,2022-11-28_10h54.46.148,vts_reward_expectancy_bt,2022.2.4,Win32,60.19744763,Chrome,1620,1080,,,,,0,1129,,,,,,,,,,,,,,,,,174,D,triangle,1,0,,,,,,,,,,,,,,,,repeat,letter,lettRpt,j,0.6356,Hi,,,,,,5,,,,,,,,high,12,0,12,0,1,,,,,,,,,
295141,2022-11-28_10h54.46.148,vts_reward_expectancy_bt,2022.2.4,Win32,60.19744763,Chrome,1620,1080,,,,,1,1130,,,,,,,,,,,,,,,,,125,F,star,1,0,,,,,,,,,,,,,,,,repeat,letter,lettRpt,j,0.4162,Lo,,,,,,5,,,,,,,,high,13,0,13,0,1,,,,,,,,,
295141,2022-11-28_10h54.46.148,vts_reward_expectancy_bt,2022.2.4,Win32,60.19744763,Chrome,1620,1080,,,,,1,1131,,,,,,,,,,,,,,,,,167,S,circle,1,0,,,,,,,,,,,,,,,,repeat,letter,lettRpt,k,0.5232,Hi,,,,,,5,,,,,,,,high,14,0,14,0,1,,,,,,,,,
295141,2022-11-28_10h54.46.148,vts_reward_expectancy_bt,2022.2.4,Win32,60.19744763,Chrome,1620,1080,,,,,1,1132,,,,,,,,,,,,,,,,,181,Y,hexagon,1,0,,,,,,,,,,,,,,,,repeat,letter,lettRpt,k,0.6159,Lo,,,,,,5,,,,,,,,high,15,0,15,0,1,,,,,,,,,
295141,2022-11-28_10h54.46.148,vts_reward_expectancy_bt,2022.2.4,Win32,60.19744763,Chrome,1620,1080,,,,,1,1133,,,,,,,,,,,,,,,,,125,B,hexagon,1,0,,,,,,,,,,,,,,,,repeat,letter,lettRpt,j,0.4335,Lo,,,,,,5,,,,,,,,high,16,0,16,0,1,,,,,,,,,
295141,2022-11-28_10h54.46.148,vts_reward_expectancy_bt,2022.2.4,Win32,60.19744763,Chrome,1620,1080,,,,,0,1133,,,,,,,,,,,,,,,,,181,W,circle,1,0,,,,,,,,,,,,,,,,repeat,letter,lettRpt,k,0.5525,Hi,,,,,,5,,,,,,,,high,17,0,17,0,1,,,,,,,,,
295141,2022-11-28_10h54.46.148,vts_reward_expectancy_bt,2022.2.4,Win32,60.19744763,Chrome,1620,1080,,,,,0,1133,,,,,,,,,,,,,,,,,160,S,triangle,0,0,,,,,,,,,,,,,,,,repeat,letter,NA,j,0.4562,Hi,,,,,,5,,,,,,,,high,18,0,18,0,1,,,,,,,,,
295141,2022-11-28_10h54.46.148,vts_reward_expectancy_bt,2022.2.4,Win32,60.19744763,Chrome,1620,1080,,,,,0,1133,,,,,,,,,,,,,,,,,139,H,star,0,1,,,,,,,,,,,,,,,,repeat,letter,NA,k,0.6165,Hi,,,,,,5,,,,,,,,high,19,0,19,0,1,,,,,,,,,
295141,2022-11-28_10h54.46.148,vts_reward_expectancy_bt,2022.2.4,Win32,60.19744763,Chrome,1620,1080,,,,,0,1133,,,,,,,,,,,,,,,,,132,F,triangle,0,1,,,,,,,,,,,,,,,,repeat,letter,NA,k,0.0498,Hi,,,,,,5,,,,,,,,high,20,0,20,0,1,,,,,,,,,
295141,2022-11-28_10h54.46.148,vts_reward_expectancy_bt,2022.2.4,Win32,60.19744763,Chrome,1620,1080,,,,,0,1133,,,,,,,,,,,,,,,,,174,U,star,0,1,,,,,,,,,,,,,,,,repeat,letter,NA,j,0.5857,Hi,,,,,,5,,,,,,,,high,21,0,21,0,1,,,,,,,,,
295141,2022-11-28_10h54.46.148,vts_reward_expectancy_bt,2022.2.4,Win32,60.19744763,Chrome,1620,1080,,,,,0,1133,,,,,,,,,,,,,,,,,167,D,circle,1,1,,,,,,,,,,,,,,,,repeat,letter,lettRpt,j,1.0239,Hi,,,,,,5,,,,,,,,high,22,0,22,0,1,,,,,,,,,
295141,2022-11-28_10h54.46.148,vts_reward_expectancy_bt,2022.2.4,Win32,60.19744763,Chrome,1620,1080,,,,,1,1134,,,,,,,,,,,,,,,,,146,Y,hexagon,1,0,,,,,,,,,,,,,,,,repeat,letter,lettRpt,k,0.4559,Lo,,,,,,5,,,,,,,,high,23,0,23,0,1,,,,,,,,,
295141,2022-11-28_10h54.46.148,vts_reward_expectancy_bt,2022.2.4,Win32,60.19744763,Chrome,1620,1080,,,,,1,1135,,,,,,,,,,,,,,,,,174,D,star,1,0,,,,,,,,,,,,,,,,repeat,letter,lettRpt,j,0.5501,Lo,,,,,,5,,,,,,,,high,24,0,24,0,1,,,,,,,,,
295141,2022-11-28_10h54.46.148,vts_reward_expectancy_bt,2022.2.4,Win32,60.19744763,Chrome,1620,1080,,,,,10,1145,,,,,,,,,,,,,,,,,146,W,triangle,1,0,,,,,,,,,,,,,,,,repeat,letter,lettRpt,k,0.3999,Hi,,,,,,5,,,,,,,,high,25,0,25,0,1,,,,,,,,,
295141,2022-11-28_10h54.46.148,vts_reward_expectancy_bt,2022.2.4,Win32,60.19744763,Chrome,1620,1080,,,,,0,1145,,,,,,,,,,,,,,,,,139,Y,circle,1,0,,,,,,,,,,,,,,,,repeat,letter,lettRpt,k,0.6645,Hi,,,,,,5,,,,,,,,high,26,0,26,0,1,,,,,,,,,
295141,2022-11-28_10h54.46.148,vts_reward_expectancy_bt,2022.2.4,Win32,60.19744763,Chrome,1620,1080,,,,,1,1146,,,,,,,,,,,,,,,,,167,F,hexagon,1,0,,,,,,,,,,,,,,,,repeat,letter,lettRpt,j,0.8501,Lo,,,,,,5,,,,,,,,high,27,0,27,0,1,,,,,,,,,
295141,2022-11-28_10h54.46.148,vts_reward_expectancy_bt,2022.2.4,Win32,60.19744763,Chrome,1620,1080,,,,,1,1147,,,,,,,,,,,,,,,,,181,S,star,1,0,,,,,,,,,,,,,,,,repeat,letter,lettRpt,k,0.5667,Lo,,,,,,5,,,,,,,,high,28,0,28,0,1,,,,,,,,,
295141,2022-11-28_10h54.46.148,vts_reward_expectancy_bt,2022.2.4,Win32,60.19744763,Chrome,1620,1080,,,,,0,1147,,,,,,,,,,,,,,,,,132,U,triangle,0,0,,,,,,,,,,,,,,,,repeat,letter,NA,j,0.4871,Lo,,,,,,5,,,,,,,,high,29,0,29,0,1,,,,,,,,,
295141,2022-11-28_10h54.46.148,vts_reward_expectancy_bt,2022.2.4,Win32,60.19744763,Chrome,1620,1080,,,,,0,1147,,,,,,,,,,,,,,,,,160,B,circle,1,1,,,,,,,,,,,,,,,,repeat,letter,lettRpt,j,0.5499,Hi,,,,,,5,,,,,,,,high,30,0,30,0,1,,,,,,,,,
295141,2022-11-28_10h54.46.148,vts_reward_expectancy_bt,2022.2.4,Win32,60.19744763,Chrome,1620,1080,,,,,1,1148,,,,,,,,,,,,,,,,,125,H,hexagon,1,0,,,,,,,,,,,,,,,,repeat,letter,lettRpt,j,0.5194,Lo,,,,,,5,,,,,,,,high,31,0,31,0,1,,,,,,,,,
295141,2022-11-28_10h54.46.148,vts_reward_expectancy_bt,2022.2.4,Win32,60.19744763,Chrome,1620,1080,,,,,10,1158,,,,,,,,,,,,,,,,,146,B,hexagon,1,0,,,,,,,,,,,,,,,,repeat,letter,lettRpt,j,0.8999,Lo,,,,,,6,,,,,,space,1.894,high,0,0,0,0,1,,,,,,,,,
295141,2022-11-28_10h54.46.148,vts_reward_expectancy_bt,2022.2.4,Win32,60.19744763,Chrome,1620,1080,,,,,0,1158,,,,,,,,,,,,,,,,,132,D,triangle,1,0,,,,,,,,,,,,,,,,repeat,letter,lettRpt,j,0.5332,Hi,,,,,,6,,,,,,,,high,1,0,1,0,1,,,,,,,,,
295141,2022-11-28_10h54.46.148,vts_reward_expectancy_bt,2022.2.4,Win32,60.19744763,Chrome,1620,1080,,,,,1,1159,,,,,,,,,,,,,,,,,174,F,star,1,0,,,,,,,,,,,,,,,,repeat,letter,lettRpt,j,0.7882,Lo,,,,,,6,,,,,,,,high,2,0,2,0,1,,,,,,,,,
295141,2022-11-28_10h54.46.148,vts_reward_expectancy_bt,2022.2.4,Win32,60.19744763,Chrome,1620,1080,,,,,0,1159,,,,,,,,,,,,,,,,,167,W,circle,1,0,,,,,,,,,,,,,,,,repeat,letter,lettRpt,k,0.5507,Hi,,,,,,6,,,,,,,,high,3,0,3,0,1,,,,,,,,,
295141,2022-11-28_10h54.46.148,vts_reward_expectancy_bt,2022.2.4,Win32,60.19744763,Chrome,1620,1080,,,,,1,1160,,,,,,,,,,,,,,,,,181,S,hexagon,1,0,,,,,,,,,,,,,,,,repeat,letter,lettRpt,k,0.8077,Lo,,,,,,6,,,,,,,,high,4,0,4,0,1,,,,,,,,,
