participant,date,expName,psychopyVersion,OS,frameRate,browser,xResolution,yResolution,key_resp.keys,key_resp.rt,training_resp.keys,training_resp.rt,points_trial,points_cumul,trainBlock,training.thisRepN,training.thisTrialN,training.thisN,training.thisIndex,training.ran,LTriangleOpac,LCircleOpac,LHexagonOpac,LStarOpac,RTriangleOpac,RCircleOpac,RHexagonOpac,RStarOpac,LShape_ID,RShape_ID,curr_topStim,curr_bottStim,curr_shape,acc,E1,target_resp_prac1.keys,pracBlock,task1_prac_trials.thisRepN,task1_prac_trials.thisTrialN,task1_prac_trials.thisN,task1_prac_trials.thisIndex,task1_prac_trials.ran,target_resp_prac1.rt,target_resp_prac2.keys,target_resp_prac2.rt,task2_praac_trials.thisRepN,task2_praac_trials.thisTrialN,task2_praac_trials.thisN,task2_praac_trials.thisIndex,task2_praac_trials.ran,alt,task,condition,target_resp.keys,target_resp.rt,rewCond,vts_practice_trials.thisRepN,vts_practice_trials.thisTrialN,vts_practice_trials.thisN,vts_practice_trials.thisIndex,vts_practice_trials.ran,blockNum,trials_norew.thisRepN,trials_norew.thisTrialN,trials_norew.thisN,trials_norew.thisIndex,trials_norew.ran,key_resp_2.keys,key_resp_2.rt,rewExpectancy,trials_rew.thisRepN,trials_rew.thisTrialN,trials_rew.thisN,trials_rew.thisIndex,trials_rew.ran,Q1,Q2,Q2_text,Q3,Q4,Q5_text,Q5,xRes,yRes
295261,2022-11-15_20h17.54.746,vts_reward_expectancy_bt,2022.2.4,MacIntel,60.0024001,Chrome,1440,900,,,,,,,,,,,,,,,,,,,,,,,,,,,,,,,,,,,,,,,,,,,,,,,,,,,,,,,,,,,,,,,,,,,,,,,,,,,,
295261,2022-11-15_20h17.54.746,vts_reward_expectancy_bt,2022.2.4,MacIntel,60.0024001,Chrome,1440,900,space,3.144,,,,,,,,,,,,,,,,,,,,,,,,,,,,,,,,,,,,,,,,,,,,,,,,,,,,,,,,,,,,,,,,,,,,,,,,,,
295261,2022-11-15_20h17.54.746,vts_reward_expectancy_bt,2022.2.4,MacIntel,60.0024001,Chrome,1440,900,,,,,,,,,,,,,,,,,,,,,,,,,,,,,,,,,,,,,,,,,,,,,,,,,,,,,,,,,,,,,,,,,,,,,,,,,,,,
295261,2022-11-15_20h17.54.746,vts_reward_expectancy_bt,2022.2.4,MacIntel,60.0024001,Chrome,1440,900,,,a,25.2983,10,10,0,0,0,0,5,1,0,1,0,0,0,0,0,1,circle,star,,,,,,,,,,,,,,,,,,,,,,,,,,,,,,,,,,,,,,,,,,,,,,,,,,,,,,
295261,2022-11-15_20h17.54.746,vts_reward_expectancy_bt,2022.2.4,MacIntel,60.0024001,Chrome,1440,900,,,l,6.8636,10,20,0,0,1,1,10,1,0,0,0,1,0,1,0,0,star ,circle,,,,,,,,,,,,,,,,,,,,,,,,,,,,,,,,,,,,,,,,,,,,,,,,,,,,,,
295261,2022-11-15_20h17.54.746,vts_reward_expectancy_bt,2022.2.4,MacIntel,60.0024001,Chrome,1440,900,,,l,11.9642,1,21,0,0,2,2,4,1,0,1,0,0,0,0,1,0,circle,hexagon,,,,,,,,,,,,,,,,,,,,,,,,,,,,,,,,,,,,,,,,,,,,,,,,,,,,,,
295261,2022-11-15_20h17.54.746,vts_reward_expectancy_bt,2022.2.4,MacIntel,60.0024001,Chrome,1440,900,,,l,1.6151,10,31,0,0,3,3,7,1,0,0,1,0,0,1,0,0,hexagon,circle,,,,,,,,,,,,,,,,,,,,,,,,,,,,,,,,,,,,,,,,,,,,,,,,,,,,,,
295261,2022-11-15_20h17.54.746,vts_reward_expectancy_bt,2022.2.4,MacIntel,60.0024001,Chrome,1440,900,,,a,0.0952,10,41,0,0,4,4,3,1,0,1,0,0,1,0,0,0,circle,triangle,,,,,,,,,,,,,,,,,,,,,,,,,,,,,,,,,,,,,,,,,,,,,,,,,,,,,,
295261,2022-11-15_20h17.54.746,vts_reward_expectancy_bt,2022.2.4,MacIntel,60.0024001,Chrome,1440,900,,,l,1.2309,1,42,0,0,5,5,2,1,1,0,0,0,0,0,0,1,triangle,star,,,,,,,,,,,,,,,,,,,,,,,,,,,,,,,,,,,,,,,,,,,,,,,,,,,,,,
295261,2022-11-15_20h17.54.746,vts_reward_expectancy_bt,2022.2.4,MacIntel,60.0024001,Chrome,1440,900,,,l,0.1618,1,43,0,0,6,6,1,1,1,0,0,0,0,0,1,0,triangle,hexagon,,,,,,,,,,,,,,,,,,,,,,,,,,,,,,,,,,,,,,,,,,,,,,,,,,,,,,
295261,2022-11-15_20h17.54.746,vts_reward_expectancy_bt,2022.2.4,MacIntel,60.0024001,Chrome,1440,900,,,l,2.3436,1,44,0,0,7,7,8,1,0,0,1,0,0,0,0,1,hexagon,star,,,,,,,,,,,,,,,,,,,,,,,,,,,,,,,,,,,,,,,,,,,,,,,,,,,,,,
295261,2022-11-15_20h17.54.746,vts_reward_expectancy_bt,2022.2.4,MacIntel,60.0024001,Chrome,1440,900,,,l,1.1353,10,54,0,0,8,8,9,1,0,0,0,1,1,0,0,0,star,triangle,,,,,,,,,,,,,,,,,,,,,,,,,,,,,,,,,,,,,,,,,,,,,,,,,,,,,,
295261,2022-11-15_20h17.54.746,vts_reward_expectancy_bt,2022.2.4,MacIntel,60.0024001,Chrome,1440,900,,,l,1.6507,10,64,0,0,9,9,6,1,0,0,1,0,1,0,0,0,hexagon,triangle,,,,,,,,,,,,,,,,,,,,,,,,,,,,,,,,,,,,,,,,,,,,,,,,,,,,,,
295261,2022-11-15_20h17.54.746,vts_reward_expectancy_bt,2022.2.4,MacIntel,60.0024001,Chrome,1440,900,,,a,0.7297,10,74,0,0,10,10,0,1,1,0,0,0,0,1,0,0,triangle,circle,,,,,,,,,,,,,,,,,,,,,,,,,,,,,,,,,,,,,,,,,,,,,,,,,,,,,,
295261,2022-11-15_20h17.54.746,vts_reward_expectancy_bt,2022.2.4,MacIntel,60.0024001,Chrome,1440,900,,,l,4.9605,1,75,0,0,11,11,11,1,0,0,0,1,0,0,1,0,star,hexagon,,,,,,,,,,,,,,,,,,,,,,,,,,,,,,,,,,,,,,,,,,,,,,,,,,,,,,
295261,2022-11-15_20h17.54.746,vts_reward_expectancy_bt,2022.2.4,MacIntel,60.0024001,Chrome,1440,900,,,l,1.1311,10,85,0,1,0,12,9,1,0,0,0,1,1,0,0,0,star,triangle,,,,,,,,,,,,,,,,,,,,,,,,,,,,,,,,,,,,,,,,,,,,,,,,,,,,,,
295261,2022-11-15_20h17.54.746,vts_reward_expectancy_bt,2022.2.4,MacIntel,60.0024001,Chrome,1440,900,,,l,3.3494,1,86,0,1,1,13,8,1,0,0,1,0,0,0,0,1,hexagon,star,,,,,,,,,,,,,,,,,,,,,,,,,,,,,,,,,,,,,,,,,,,,,,,,,,,,,,
295261,2022-11-15_20h17.54.746,vts_reward_expectancy_bt,2022.2.4,MacIntel,60.0024001,Chrome,1440,900,,,l,1.4955,1,87,0,1,2,14,5,1,0,1,0,0,0,0,0,1,circle,star,,,,,,,,,,,,,,,,,,,,,,,,,,,,,,,,,,,,,,,,,,,,,,,,,,,,,,
295261,2022-11-15_20h17.54.746,vts_reward_expectancy_bt,2022.2.4,MacIntel,60.0024001,Chrome,1440,900,,,l,1.6682,10,97,0,1,3,15,10,1,0,0,0,1,0,1,0,0,star ,circle,,,,,,,,,,,,,,,,,,,,,,,,,,,,,,,,,,,,,,,,,,,,,,,,,,,,,,
295261,2022-11-15_20h17.54.746,vts_reward_expectancy_bt,2022.2.4,MacIntel,60.0024001,Chrome,1440,900,,,a,1.0512,10,107,0,1,4,16,0,1,1,0,0,0,0,1,0,0,triangle,circle,,,,,,,,,,,,,,,,,,,,,,,,,,,,,,,,,,,,,,,,,,,,,,,,,,,,,,
295261,2022-11-15_20h17.54.746,vts_reward_expectancy_bt,2022.2.4,MacIntel,60.0024001,Chrome,1440,900,,,l,1.3999,1,108,0,1,5,17,7,1,0,0,1,0,0,1,0,0,hexagon,circle,,,,,,,,,,,,,,,,,,,,,,,,,,,,,,,,,,,,,,,,,,,,,,,,,,,,,,
295261,2022-11-15_20h17.54.746,vts_reward_expectancy_bt,2022.2.4,MacIntel,60.0024001,Chrome,1440,900,,,l,0.8841,10,118,0,1,6,18,6,1,0,0,1,0,1,0,0,0,hexagon,triangle,,,,,,,,,,,,,,,,,,,,,,,,,,,,,,,,,,,,,,,,,,,,,,,,,,,,,,
295261,2022-11-15_20h17.54.746,vts_reward_expectancy_bt,2022.2.4,MacIntel,60.0024001,Chrome,1440,900,,,l,0.9219,10,128,0,1,7,19,3,1,0,1,0,0,1,0,0,0,circle,triangle,,,,,,,,,,,,,,,,,,,,,,,,,,,,,,,,,,,,,,,,,,,,,,,,,,,,,,
295261,2022-11-15_20h17.54.746,vts_reward_expectancy_bt,2022.2.4,MacIntel,60.0024001,Chrome,1440,900,,,a,0.9913,10,138,0,1,8,20,2,1,1,0,0,0,0,0,0,1,triangle,star,,,,,,,,,,,,,,,,,,,,,,,,,,,,,,,,,,,,,,,,,,,,,,,,,,,,,,
295261,2022-11-15_20h17.54.746,vts_reward_expectancy_bt,2022.2.4,MacIntel,60.0024001,Chrome,1440,900,,,l,0.9419,10,148,0,1,9,21,11,1,0,0,0,1,0,0,1,0,star,hexagon,,,,,,,,,,,,,,,,,,,,,,,,,,,,,,,,,,,,,,,,,,,,,,,,,,,,,,
295261,2022-11-15_20h17.54.746,vts_reward_expectancy_bt,2022.2.4,MacIntel,60.0024001,Chrome,1440,900,,,l,0.7169,1,149,0,1,10,22,4,1,0,1,0,0,0,0,1,0,circle,hexagon,,,,,,,,,,,,,,,,,,,,,,,,,,,,,,,,,,,,,,,,,,,,,,,,,,,,,,
295261,2022-11-15_20h17.54.746,vts_reward_expectancy_bt,2022.2.4,MacIntel,60.0024001,Chrome,1440,900,,,a,1.1939,10,159,0,1,11,23,1,1,1,0,0,0,0,0,1,0,triangle,hexagon,,,,,,,,,,,,,,,,,,,,,,,,,,,,,,,,,,,,,,,,,,,,,,,,,,,,,,
295261,2022-11-15_20h17.54.746,vts_reward_expectancy_bt,2022.2.4,MacIntel,60.0024001,Chrome,1440,900,,,l,0.791,10,169,0,2,0,24,6,1,0,0,1,0,1,0,0,0,hexagon,triangle,,,,,,,,,,,,,,,,,,,,,,,,,,,,,,,,,,,,,,,,,,,,,,,,,,,,,,
295261,2022-11-15_20h17.54.746,vts_reward_expectancy_bt,2022.2.4,MacIntel,60.0024001,Chrome,1440,900,,,l,1.4677,1,170,0,2,1,25,4,1,0,1,0,0,0,0,1,0,circle,hexagon,,,,,,,,,,,,,,,,,,,,,,,,,,,,,,,,,,,,,,,,,,,,,,,,,,,,,,
295261,2022-11-15_20h17.54.746,vts_reward_expectancy_bt,2022.2.4,MacIntel,60.0024001,Chrome,1440,900,,,l,0.4886,1,171,0,2,2,26,5,1,0,1,0,0,0,0,0,1,circle,star,,,,,,,,,,,,,,,,,,,,,,,,,,,,,,,,,,,,,,,,,,,,,,,,,,,,,,
295261,2022-11-15_20h17.54.746,vts_reward_expectancy_bt,2022.2.4,MacIntel,60.0024001,Chrome,1440,900,,,l,2.2126,1,172,0,2,3,27,7,1,0,0,1,0,0,1,0,0,hexagon,circle,,,,,,,,,,,,,,,,,,,,,,,,,,,,,,,,,,,,,,,,,,,,,,,,,,,,,,
295261,2022-11-15_20h17.54.746,vts_reward_expectancy_bt,2022.2.4,MacIntel,60.0024001,Chrome,1440,900,,,a,0.952,10,182,0,2,4,28,1,1,1,0,0,0,0,0,1,0,triangle,hexagon,,,,,,,,,,,,,,,,,,,,,,,,,,,,,,,,,,,,,,,,,,,,,,,,,,,,,,
295261,2022-11-15_20h17.54.746,vts_reward_expectancy_bt,2022.2.4,MacIntel,60.0024001,Chrome,1440,900,,,a,0.7399,1,183,0,2,5,29,0,1,1,0,0,0,0,1,0,0,triangle,circle,,,,,,,,,,,,,,,,,,,,,,,,,,,,,,,,,,,,,,,,,,,,,,,,,,,,,,
295261,2022-11-15_20h17.54.746,vts_reward_expectancy_bt,2022.2.4,MacIntel,60.0024001,Chrome,1440,900,,,l,1.1309,10,193,0,2,6,30,3,1,0,1,0,0,1,0,0,0,circle,triangle,,,,,,,,,,,,,,,,,,,,,,,,,,,,,,,,,,,,,,,,,,,,,,,,,,,,,,
295261,2022-11-15_20h17.54.746,vts_reward_expectancy_bt,2022.2.4,MacIntel,60.0024001,Chrome,1440,900,,,a,1.3506,1,194,0,2,7,31,8,1,0,0,1,0,0,0,0,1,hexagon,star,,,,,,,,,,,,,,,,,,,,,,,,,,,,,,,,,,,,,,,,,,,,,,,,,,,,,,
295261,2022-11-15_20h17.54.746,vts_reward_expectancy_bt,2022.2.4,MacIntel,60.0024001,Chrome,1440,900,,,a,1.3825,1,195,0,2,8,32,11,1,0,0,0,1,0,0,1,0,star,hexagon,,,,,,,,,,,,,,,,,,,,,,,,,,,,,,,,,,,,,,,,,,,,,,,,,,,,,,
295261,2022-11-15_20h17.54.746,vts_reward_expectancy_bt,2022.2.4,MacIntel,60.0024001,Chrome,1440,900,,,l,1.0527,10,205,0,2,9,33,9,1,0,0,0,1,1,0,0,0,star,triangle,,,,,,,,,,,,,,,,,,,,,,,,,,,,,,,,,,,,,,,,,,,,,,,,,,,,,,
295261,2022-11-15_20h17.54.746,vts_reward_expectancy_bt,2022.2.4,MacIntel,60.0024001,Chrome,1440,900,,,a,0.542,1,206,0,2,10,34,2,1,1,0,0,0,0,0,0,1,triangle,star,,,,,,,,,,,,,,,,,,,,,,,,,,,,,,,,,,,,,,,,,,,,,,,,,,,,,,
295261,2022-11-15_20h17.54.746,vts_reward_expectancy_bt,2022.2.4,MacIntel,60.0024001,Chrome,1440,900,,,l,0.6011,10,216,0,2,11,35,10,1,0,0,0,1,0,1,0,0,star ,circle,,,,,,,,,,,,,,,,,,,,,,,,,,,,,,,,,,,,,,,,,,,,,,,,,,,,,,
295261,2022-11-15_20h17.54.746,vts_reward_expectancy_bt,2022.2.4,MacIntel,60.0024001,Chrome,1440,900,,,l,0.859,1,217,1,0,0,0,8,1,0,0,1,0,0,0,0,1,hexagon,star,,,,,,,,,,,,,,,,,,,,,,,,,,,,,,,,,,,,,,,,,,,,,,,,,,,,,,
295261,2022-11-15_20h17.54.746,vts_reward_expectancy_bt,2022.2.4,MacIntel,60.0024001,Chrome,1440,900,,,l,0.0225,10,227,1,0,1,1,10,1,0,0,0,1,0,1,0,0,star ,circle,,,,,,,,,,,,,,,,,,,,,,,,,,,,,,,,,,,,,,,,,,,,,,,,,,,,,,
295261,2022-11-15_20h17.54.746,vts_reward_expectancy_bt,2022.2.4,MacIntel,60.0024001,Chrome,1440,900,,,a,0.5591,10,237,1,0,2,2,7,1,0,0,1,0,0,1,0,0,hexagon,circle,,,,,,,,,,,,,,,,,,,,,,,,,,,,,,,,,,,,,,,,,,,,,,,,,,,,,,
295261,2022-11-15_20h17.54.746,vts_reward_expectancy_bt,2022.2.4,MacIntel,60.0024001,Chrome,1440,900,,,a,0.4127,1,238,1,0,3,3,11,1,0,0,0,1,0,0,1,0,star,hexagon,,,,,,,,,,,,,,,,,,,,,,,,,,,,,,,,,,,,,,,,,,,,,,,,,,,,,,
295261,2022-11-15_20h17.54.746,vts_reward_expectancy_bt,2022.2.4,MacIntel,60.0024001,Chrome,1440,900,,,l,0.0471,1,239,1,0,4,4,4,1,0,1,0,0,0,0,1,0,circle,hexagon,,,,,,,,,,,,,,,,,,,,,,,,,,,,,,,,,,,,,,,,,,,,,,,,,,,,,,
295261,2022-11-15_20h17.54.746,vts_reward_expectancy_bt,2022.2.4,MacIntel,60.0024001,Chrome,1440,900,,,a,0.6826,10,249,1,0,5,5,2,1,1,0,0,0,0,0,0,1,triangle,star,,,,,,,,,,,,,,,,,,,,,,,,,,,,,,,,,,,,,,,,,,,,,,,,,,,,,,
295261,2022-11-15_20h17.54.746,vts_reward_expectancy_bt,2022.2.4,MacIntel,60.0024001,Chrome,1440,900,,,l,0.6027,1,250,1,0,6,6,9,1,0,0,0,1,1,0,0,0,star,triangle,,,,,,,,,,,,,,,,,,,,,,,,,,,,,,,,,,,,,,,,,,,,,,,,,,,,,,
295261,2022-11-15_20h17.54.746,vts_reward_expectancy_bt,2022.2.4,MacIntel,60.0024001,Chrome,1440,900,,,l,0.9001,10,260,1,0,7,7,0,1,1,0,0,0,0,1,0,0,triangle,circle,,,,,,,,,,,,,,,,,,,,,,,,,,,,,,,,,,,,,,,,,,,,,,,,,,,,,,
295261,2022-11-15_20h17.54.746,vts_reward_expectancy_bt,2022.2.4,MacIntel,60.0024001,Chrome,1440,900,,,a,0.8006,1,261,1,0,8,8,3,1,0,1,0,0,1,0,0,0,circle,triangle,,,,,,,,,,,,,,,,,,,,,,,,,,,,,,,,,,,,,,,,,,,,,,,,,,,,,,
295261,2022-11-15_20h17.54.746,vts_reward_expectancy_bt,2022.2.4,MacIntel,60.0024001,Chrome,1440,900,,,l,0.0333,1,262,1,0,9,9,5,1,0,1,0,0,0,0,0,1,circle,star,,,,,,,,,,,,,,,,,,,,,,,,,,,,,,,,,,,,,,,,,,,,,,,,,,,,,,
295261,2022-11-15_20h17.54.746,vts_reward_expectancy_bt,2022.2.4,MacIntel,60.0024001,Chrome,1440,900,,,a,6.0124,10,272,1,0,10,10,1,1,1,0,0,0,0,0,1,0,triangle,hexagon,,,,,,,,,,,,,,,,,,,,,,,,,,,,,,,,,,,,,,,,,,,,,,,,,,,,,,
295261,2022-11-15_20h17.54.746,vts_reward_expectancy_bt,2022.2.4,MacIntel,60.0024001,Chrome,1440,900,,,a,0.2653,1,273,1,0,11,11,6,1,0,0,1,0,1,0,0,0,hexagon,triangle,,,,,,,,,,,,,,,,,,,,,,,,,,,,,,,,,,,,,,,,,,,,,,,,,,,,,,
295261,2022-11-15_20h17.54.746,vts_reward_expectancy_bt,2022.2.4,MacIntel,60.0024001,Chrome,1440,900,,,a,0.2307,1,274,1,1,0,12,1,1,1,0,0,0,0,0,1,0,triangle,hexagon,,,,,,,,,,,,,,,,,,,,,,,,,,,,,,,,,,,,,,,,,,,,,,,,,,,,,,
295261,2022-11-15_20h17.54.746,vts_reward_expectancy_bt,2022.2.4,MacIntel,60.0024001,Chrome,1440,900,,,a,0.2201,10,284,1,1,1,13,7,1,0,0,1,0,0,1,0,0,hexagon,circle,,,,,,,,,,,,,,,,,,,,,,,,,,,,,,,,,,,,,,,,,,,,,,,,,,,,,,
295261,2022-11-15_20h17.54.746,vts_reward_expectancy_bt,2022.2.4,MacIntel,60.0024001,Chrome,1440,900,,,l,0.2673,10,294,1,1,2,14,10,1,0,0,0,1,0,1,0,0,star ,circle,,,,,,,,,,,,,,,,,,,,,,,,,,,,,,,,,,,,,,,,,,,,,,,,,,,,,,
295261,2022-11-15_20h17.54.746,vts_reward_expectancy_bt,2022.2.4,MacIntel,60.0024001,Chrome,1440,900,,,l,0.2411,1,295,1,1,3,15,5,1,0,1,0,0,0,0,0,1,circle,star,,,,,,,,,,,,,,,,,,,,,,,,,,,,,,,,,,,,,,,,,,,,,,,,,,,,,,
295261,2022-11-15_20h17.54.746,vts_reward_expectancy_bt,2022.2.4,MacIntel,60.0024001,Chrome,1440,900,,,a,0.1167,10,305,1,1,4,16,3,1,0,1,0,0,1,0,0,0,circle,triangle,,,,,,,,,,,,,,,,,,,,,,,,,,,,,,,,,,,,,,,,,,,,,,,,,,,,,,
295261,2022-11-15_20h17.54.746,vts_reward_expectancy_bt,2022.2.4,MacIntel,60.0024001,Chrome,1440,900,,,l,0.2847,1,306,1,1,5,17,9,1,0,0,0,1,1,0,0,0,star,triangle,,,,,,,,,,,,,,,,,,,,,,,,,,,,,,,,,,,,,,,,,,,,,,,,,,,,,,
295261,2022-11-15_20h17.54.746,vts_reward_expectancy_bt,2022.2.4,MacIntel,60.0024001,Chrome,1440,900,,,l,0.5097,10,316,1,1,6,18,8,1,0,0,1,0,0,0,0,1,hexagon,star,,,,,,,,,,,,,,,,,,,,,,,,,,,,,,,,,,,,,,,,,,,,,,,,,,,,,,
295261,2022-11-15_20h17.54.746,vts_reward_expectancy_bt,2022.2.4,MacIntel,60.0024001,Chrome,1440,900,,,a,0.2988,1,317,1,1,7,19,4,1,0,1,0,0,0,0,1,0,circle,hexagon,,,,,,,,,,,,,,,,,,,,,,,,,,,,,,,,,,,,,,,,,,,,,,,,,,,,,,
295261,2022-11-15_20h17.54.746,vts_reward_expectancy_bt,2022.2.4,MacIntel,60.0024001,Chrome,1440,900,,,l,0.1393,1,318,1,1,8,20,11,1,0,0,0,1,0,0,1,0,star,hexagon,,,,,,,,,,,,,,,,,,,,,,,,,,,,,,,,,,,,,,,,,,,,,,,,,,,,,,
295261,2022-11-15_20h17.54.746,vts_reward_expectancy_bt,2022.2.4,MacIntel,60.0024001,Chrome,1440,900,,,l,0.4489,1,319,1,1,9,21,2,1,1,0,0,0,0,0,0,1,triangle,star,,,,,,,,,,,,,,,,,,,,,,,,,,,,,,,,,,,,,,,,,,,,,,,,,,,,,,
295261,2022-11-15_20h17.54.746,vts_reward_expectancy_bt,2022.2.4,MacIntel,60.0024001,Chrome,1440,900,,,l,0.1029,10,329,1,1,10,22,0,1,1,0,0,0,0,1,0,0,triangle,circle,,,,,,,,,,,,,,,,,,,,,,,,,,,,,,,,,,,,,,,,,,,,,,,,,,,,,,
295261,2022-11-15_20h17.54.746,vts_reward_expectancy_bt,2022.2.4,MacIntel,60.0024001,Chrome,1440,900,,,l,0.1092,10,339,1,1,11,23,6,1,0,0,1,0,1,0,0,0,hexagon,triangle,,,,,,,,,,,,,,,,,,,,,,,,,,,,,,,,,,,,,,,,,,,,,,,,,,,,,,
295261,2022-11-15_20h17.54.746,vts_reward_expectancy_bt,2022.2.4,MacIntel,60.0024001,Chrome,1440,900,,,a,0.0214,10,349,1,2,0,24,10,1,0,0,0,1,0,1,0,0,star ,circle,,,,,,,,,,,,,,,,,,,,,,,,,,,,,,,,,,,,,,,,,,,,,,,,,,,,,,
295261,2022-11-15_20h17.54.746,vts_reward_expectancy_bt,2022.2.4,MacIntel,60.0024001,Chrome,1440,900,,,a,0.1189,10,359,1,2,1,25,11,1,0,0,0,1,0,0,1,0,star,hexagon,,,,,,,,,,,,,,,,,,,,,,,,,,,,,,,,,,,,,,,,,,,,,,,,,,,,,,
295261,2022-11-15_20h17.54.746,vts_reward_expectancy_bt,2022.2.4,MacIntel,60.0024001,Chrome,1440,900,,,a,0.1409,1,360,1,2,2,26,6,1,0,0,1,0,1,0,0,0,hexagon,triangle,,,,,,,,,,,,,,,,,,,,,,,,,,,,,,,,,,,,,,,,,,,,,,,,,,,,,,
295261,2022-11-15_20h17.54.746,vts_reward_expectancy_bt,2022.2.4,MacIntel,60.0024001,Chrome,1440,900,,,a,0.0345,1,361,1,2,3,27,1,1,1,0,0,0,0,0,1,0,triangle,hexagon,,,,,,,,,,,,,,,,,,,,,,,,,,,,,,,,,,,,,,,,,,,,,,,,,,,,,,
295261,2022-11-15_20h17.54.746,vts_reward_expectancy_bt,2022.2.4,MacIntel,60.0024001,Chrome,1440,900,,,l,0.1352,1,362,1,2,4,28,8,1,0,0,1,0,0,0,0,1,hexagon,star,,,,,,,,,,,,,,,,,,,,,,,,,,,,,,,,,,,,,,,,,,,,,,,,,,,,,,
295261,2022-11-15_20h17.54.746,vts_reward_expectancy_bt,2022.2.4,MacIntel,60.0024001,Chrome,1440,900,,,l,0.1608,10,372,1,2,5,29,3,1,0,1,0,0,1,0,0,0,circle,triangle,,,,,,,,,,,,,,,,,,,,,,,,,,,,,,,,,,,,,,,,,,,,,,,,,,,,,,
295261,2022-11-15_20h17.54.746,vts_reward_expectancy_bt,2022.2.4,MacIntel,60.0024001,Chrome,1440,900,,,l,0.1006,1,373,1,2,6,30,2,1,1,0,0,0,0,0,0,1,triangle,star,,,,,,,,,,,,,,,,,,,,,,,,,,,,,,,,,,,,,,,,,,,,,,,,,,,,,,
295261,2022-11-15_20h17.54.746,vts_reward_expectancy_bt,2022.2.4,MacIntel,60.0024001,Chrome,1440,900,,,a,0.6244,10,383,1,2,7,31,5,1,0,1,0,0,0,0,0,1,circle,star,,,,,,,,,,,,,,,,,,,,,,,,,,,,,,,,,,,,,,,,,,,,,,,,,,,,,,
295261,2022-11-15_20h17.54.746,vts_reward_expectancy_bt,2022.2.4,MacIntel,60.0024001,Chrome,1440,900,,,a,0.3692,10,393,1,2,8,32,4,1,0,1,0,0,0,0,1,0,circle,hexagon,,,,,,,,,,,,,,,,,,,,,,,,,,,,,,,,,,,,,,,,,,,,,,,,,,,,,,
295261,2022-11-15_20h17.54.746,vts_reward_expectancy_bt,2022.2.4,MacIntel,60.0024001,Chrome,1440,900,,,a,0.4331,10,403,1,2,9,33,7,1,0,0,1,0,0,1,0,0,hexagon,circle,,,,,,,,,,,,,,,,,,,,,,,,,,,,,,,,,,,,,,,,,,,,,,,,,,,,,,
295261,2022-11-15_20h17.54.746,vts_reward_expectancy_bt,2022.2.4,MacIntel,60.0024001,Chrome,1440,900,,,l,0.2451,10,413,1,2,10,34,0,1,1,0,0,0,0,1,0,0,triangle,circle,,,,,,,,,,,,,,,,,,,,,,,,,,,,,,,,,,,,,,,,,,,,,,,,,,,,,,
295261,2022-11-15_20h17.54.746,vts_reward_expectancy_bt,2022.2.4,MacIntel,60.0024001,Chrome,1440,900,,,l,0.2945,10,423,1,2,11,35,9,1,0,0,0,1,1,0,0,0,star,triangle,,,,,,,,,,,,,,,,,,,,,,,,,,,,,,,,,,,,,,,,,,,,,,,,,,,,,,
295261,2022-11-15_20h17.54.746,vts_reward_expectancy_bt,2022.2.4,MacIntel,60.0024001,Chrome,1440,900,,,a,0.4183,10,433,2,0,0,0,1,1,1,0,0,0,0,0,1,0,triangle,hexagon,,,,,,,,,,,,,,,,,,,,,,,,,,,,,,,,,,,,,,,,,,,,,,,,,,,,,,
295261,2022-11-15_20h17.54.746,vts_reward_expectancy_bt,2022.2.4,MacIntel,60.0024001,Chrome,1440,900,,,l,0.3001,10,443,2,0,1,1,6,1,0,0,1,0,1,0,0,0,hexagon,triangle,,,,,,,,,,,,,,,,,,,,,,,,,,,,,,,,,,,,,,,,,,,,,,,,,,,,,,
295261,2022-11-15_20h17.54.746,vts_reward_expectancy_bt,2022.2.4,MacIntel,60.0024001,Chrome,1440,900,,,l,0.281,1,444,2,0,2,2,5,1,0,1,0,0,0,0,0,1,circle,star,,,,,,,,,,,,,,,,,,,,,,,,,,,,,,,,,,,,,,,,,,,,,,,,,,,,,,
295261,2022-11-15_20h17.54.746,vts_reward_expectancy_bt,2022.2.4,MacIntel,60.0024001,Chrome,1440,900,,,a,0.06,10,454,2,0,3,3,0,1,1,0,0,0,0,1,0,0,triangle,circle,,,,,,,,,,,,,,,,,,,,,,,,,,,,,,,,,,,,,,,,,,,,,,,,,,,,,,
295261,2022-11-15_20h17.54.746,vts_reward_expectancy_bt,2022.2.4,MacIntel,60.0024001,Chrome,1440,900,,,a,0.5639,1,455,2,0,4,4,9,1,0,0,0,1,1,0,0,0,star,triangle,,,,,,,,,,,,,,,,,,,,,,,,,,,,,,,,,,,,,,,,,,,,,,,,,,,,,,
295261,2022-11-15_20h17.54.746,vts_reward_expectancy_bt,2022.2.4,MacIntel,60.0024001,Chrome,1440,900,,,a,0.2428,1,456,2,0,5,5,11,1,0,0,0,1,0,0,1,0,star,hexagon,,,,,,,,,,,,,,,,,,,,,,,,,,,,,,,,,,,,,,,,,,,,,,,,,,,,,,
295261,2022-11-15_20h17.54.746,vts_reward_expectancy_bt,2022.2.4,MacIntel,60.0024001,Chrome,1440,900,,,a,0.2328,10,466,2,0,6,6,4,1,0,1,0,0,0,0,1,0,circle,hexagon,,,,,,,,,,,,,,,,,,,,,,,,,,,,,,,,,,,,,,,,,,,,,,,,,,,,,,
295261,2022-11-15_20h17.54.746,vts_reward_expectancy_bt,2022.2.4,MacIntel,60.0024001,Chrome,1440,900,,,l,0.4182,1,467,2,0,7,7,2,1,1,0,0,0,0,0,0,1,triangle,star,,,,,,,,,,,,,,,,,,,,,,,,,,,,,,,,,,,,,,,,,,,,,,,,,,,,,,
295261,2022-11-15_20h17.54.746,vts_reward_expectancy_bt,2022.2.4,MacIntel,60.0024001,Chrome,1440,900,,,l,0.185,1,468,2,0,8,8,3,1,0,1,0,0,1,0,0,0,circle,triangle,,,,,,,,,,,,,,,,,,,,,,,,,,,,,,,,,,,,,,,,,,,,,,,,,,,,,,
295261,2022-11-15_20h17.54.746,vts_reward_expectancy_bt,2022.2.4,MacIntel,60.0024001,Chrome,1440,900,,,l,0.3672,10,478,2,0,9,9,10,1,0,0,0,1,0,1,0,0,star ,circle,,,,,,,,,,,,,,,,,,,,,,,,,,,,,,,,,,,,,,,,,,,,,,,,,,,,,,
295261,2022-11-15_20h17.54.746,vts_reward_expectancy_bt,2022.2.4,MacIntel,60.0024001,Chrome,1440,900,,,l,0.386,10,488,2,0,10,10,8,1,0,0,1,0,0,0,0,1,hexagon,star,,,,,,,,,,,,,,,,,,,,,,,,,,,,,,,,,,,,,,,,,,,,,,,,,,,,,,
295261,2022-11-15_20h17.54.746,vts_reward_expectancy_bt,2022.2.4,MacIntel,60.0024001,Chrome,1440,900,,,a,0.2599,1,489,2,0,11,11,7,1,0,0,1,0,0,1,0,0,hexagon,circle,,,,,,,,,,,,,,,,,,,,,,,,,,,,,,,,,,,,,,,,,,,,,,,,,,,,,,
295261,2022-11-15_20h17.54.746,vts_reward_expectancy_bt,2022.2.4,MacIntel,60.0024001,Chrome,1440,900,,,a,0.283,10,499,2,1,0,12,7,1,0,0,1,0,0,1,0,0,hexagon,circle,,,,,,,,,,,,,,,,,,,,,,,,,,,,,,,,,,,,,,,,,,,,,,,,,,,,,,
295261,2022-11-15_20h17.54.746,vts_reward_expectancy_bt,2022.2.4,MacIntel,60.0024001,Chrome,1440,900,,,l,0.3769,1,500,2,1,1,13,9,1,0,0,0,1,1,0,0,0,star,triangle,,,,,,,,,,,,,,,,,,,,,,,,,,,,,,,,,,,,,,,,,,,,,,,,,,,,,,
295261,2022-11-15_20h17.54.746,vts_reward_expectancy_bt,2022.2.4,MacIntel,60.0024001,Chrome,1440,900,,,a,0.0006,10,510,2,1,2,14,4,1,0,1,0,0,0,0,1,0,circle,hexagon,,,,,,,,,,,,,,,,,,,,,,,,,,,,,,,,,,,,,,,,,,,,,,,,,,,,,,
295261,2022-11-15_20h17.54.746,vts_reward_expectancy_bt,2022.2.4,MacIntel,60.0024001,Chrome,1440,900,,,l,0.0716,10,520,2,1,3,15,10,1,0,0,0,1,0,1,0,0,star ,circle,,,,,,,,,,,,,,,,,,,,,,,,,,,,,,,,,,,,,,,,,,,,,,,,,,,,,,
295261,2022-11-15_20h17.54.746,vts_reward_expectancy_bt,2022.2.4,MacIntel,60.0024001,Chrome,1440,900,,,l,0.051,1,521,2,1,4,16,8,1,0,0,1,0,0,0,0,1,hexagon,star,,,,,,,,,,,,,,,,,,,,,,,,,,,,,,,,,,,,,,,,,,,,,,,,,,,,,,
295261,2022-11-15_20h17.54.746,vts_reward_expectancy_bt,2022.2.4,MacIntel,60.0024001,Chrome,1440,900,,,a,0.1132,10,531,2,1,5,17,3,1,0,1,0,0,1,0,0,0,circle,triangle,,,,,,,,,,,,,,,,,,,,,,,,,,,,,,,,,,,,,,,,,,,,,,,,,,,,,,
295261,2022-11-15_20h17.54.746,vts_reward_expectancy_bt,2022.2.4,MacIntel,60.0024001,Chrome,1440,900,,,l,0.0502,10,541,2,1,6,18,2,1,1,0,0,0,0,0,0,1,triangle,star,,,,,,,,,,,,,,,,,,,,,,,,,,,,,,,,,,,,,,,,,,,,,,,,,,,,,,
295261,2022-11-15_20h17.54.746,vts_reward_expectancy_bt,2022.2.4,MacIntel,60.0024001,Chrome,1440,900,,,a,0.0394,10,551,2,1,7,19,11,1,0,0,0,1,0,0,1,0,star,hexagon,,,,,,,,,,,,,,,,,,,,,,,,,,,,,,,,,,,,,,,,,,,,,,,,,,,,,,
295261,2022-11-15_20h17.54.746,vts_reward_expectancy_bt,2022.2.4,MacIntel,60.0024001,Chrome,1440,900,,,a,0.0997,1,552,2,1,8,20,0,1,1,0,0,0,0,1,0,0,triangle,circle,,,,,,,,,,,,,,,,,,,,,,,,,,,,,,,,,,,,,,,,,,,,,,,,,,,,,,
295261,2022-11-15_20h17.54.746,vts_reward_expectancy_bt,2022.2.4,MacIntel,60.0024001,Chrome,1440,900,,,l,0.066,10,562,2,1,9,21,6,1,0,0,1,0,1,0,0,0,hexagon,triangle,,,,,,,,,,,,,,,,,,,,,,,,,,,,,,,,,,,,,,,,,,,,,,,,,,,,,,
295261,2022-11-15_20h17.54.746,vts_reward_expectancy_bt,2022.2.4,MacIntel,60.0024001,Chrome,1440,900,,,l,0.0178,1,563,2,1,10,22,5,1,0,1,0,0,0,0,0,1,circle,star,,,,,,,,,,,,,,,,,,,,,,,,,,,,,,,,,,,,,,,,,,,,,,,,,,,,,,
295261,2022-11-15_20h17.54.746,vts_reward_expectancy_bt,2022.2.4,MacIntel,60.0024001,Chrome,1440,900,,,a,0.0498,10,573,2,1,11,23,1,1,1,0,0,0,0,0,1,0,triangle,hexagon,,,,,,,,,,,,,,,,,,,,,,,,,,,,,,,,,,,,,,,,,,,,,,,,,,,,,,
295261,2022-11-15_20h17.54.746,vts_reward_expectancy_bt,2022.2.4,MacIntel,60.0024001,Chrome,1440,900,,,a,0.0008,10,583,2,2,0,24,4,1,0,1,0,0,0,0,1,0,circle,hexagon,,,,,,,,,,,,,,,,,,,,,,,,,,,,,,,,,,,,,,,,,,,,,,,,,,,,,,
295261,2022-11-15_20h17.54.746,vts_reward_expectancy_bt,2022.2.4,MacIntel,60.0024001,Chrome,1440,900,,,l,0.0136,10,593,2,2,1,25,3,1,0,1,0,0,1,0,0,0,circle,triangle,,,,,,,,,,,,,,,,,,,,,,,,,,,,,,,,,,,,,,,,,,,,,,,,,,,,,,
295261,2022-11-15_20h17.54.746,vts_reward_expectancy_bt,2022.2.4,MacIntel,60.0024001,Chrome,1440,900,,,a,0.0354,10,603,2,2,2,26,10,1,0,0,0,1,0,1,0,0,star ,circle,,,,,,,,,,,,,,,,,,,,,,,,,,,,,,,,,,,,,,,,,,,,,,,,,,,,,,
295261,2022-11-15_20h17.54.746,vts_reward_expectancy_bt,2022.2.4,MacIntel,60.0024001,Chrome,1440,900,,,l,0.0936,10,613,2,2,3,27,8,1,0,0,1,0,0,0,0,1,hexagon,star,,,,,,,,,,,,,,,,,,,,,,,,,,,,,,,,,,,,,,,,,,,,,,,,,,,,,,
295261,2022-11-15_20h17.54.746,vts_reward_expectancy_bt,2022.2.4,MacIntel,60.0024001,Chrome,1440,900,,,l,0.1215,1,614,2,2,4,28,7,1,0,0,1,0,0,1,0,0,hexagon,circle,,,,,,,,,,,,,,,,,,,,,,,,,,,,,,,,,,,,,,,,,,,,,,,,,,,,,,
295261,2022-11-15_20h17.54.746,vts_reward_expectancy_bt,2022.2.4,MacIntel,60.0024001,Chrome,1440,900,,,a,0.0569,10,624,2,2,5,29,5,1,0,1,0,0,0,0,0,1,circle,star,,,,,,,,,,,,,,,,,,,,,,,,,,,,,,,,,,,,,,,,,,,,,,,,,,,,,,
295261,2022-11-15_20h17.54.746,vts_reward_expectancy_bt,2022.2.4,MacIntel,60.0024001,Chrome,1440,900,,,l,0.0274,10,634,2,2,6,30,11,1,0,0,0,1,0,0,1,0,star,hexagon,,,,,,,,,,,,,,,,,,,,,,,,,,,,,,,,,,,,,,,,,,,,,,,,,,,,,,
295261,2022-11-15_20h17.54.746,vts_reward_expectancy_bt,2022.2.4,MacIntel,60.0024001,Chrome,1440,900,,,a,0.0647,1,635,2,2,7,31,6,1,0,0,1,0,1,0,0,0,hexagon,triangle,,,,,,,,,,,,,,,,,,,,,,,,,,,,,,,,,,,,,,,,,,,,,,,,,,,,,,
295261,2022-11-15_20h17.54.746,vts_reward_expectancy_bt,2022.2.4,MacIntel,60.0024001,Chrome,1440,900,,,a,0.0858,10,645,2,2,8,32,9,1,0,0,0,1,1,0,0,0,star,triangle,,,,,,,,,,,,,,,,,,,,,,,,,,,,,,,,,,,,,,,,,,,,,,,,,,,,,,
295261,2022-11-15_20h17.54.746,vts_reward_expectancy_bt,2022.2.4,MacIntel,60.0024001,Chrome,1440,900,,,l,0.0209,1,646,2,2,9,33,1,1,1,0,0,0,0,0,1,0,triangle,hexagon,,,,,,,,,,,,,,,,,,,,,,,,,,,,,,,,,,,,,,,,,,,,,,,,,,,,,,
295261,2022-11-15_20h17.54.746,vts_reward_expectancy_bt,2022.2.4,MacIntel,60.0024001,Chrome,1440,900,,,a,0.0406,10,656,2,2,10,34,2,1,1,0,0,0,0,0,0,1,triangle,star,,,,,,,,,,,,,,,,,,,,,,,,,,,,,,,,,,,,,,,,,,,,,,,,,,,,,,
295261,2022-11-15_20h17.54.746,vts_reward_expectancy_bt,2022.2.4,MacIntel,60.0024001,Chrome,1440,900,,,l,0.0283,10,666,2,2,11,35,0,1,1,0,0,0,0,1,0,0,triangle,circle,,,,,,,,,,,,,,,,,,,,,,,,,,,,,,,,,,,,,,,,,,,,,,,,,,,,,,
295261,2022-11-15_20h17.54.746,vts_reward_expectancy_bt,2022.2.4,MacIntel,60.0024001,Chrome,1440,900,,,,,,,,,,,,,,,,,,,,,,,H,167,circle,0,0,,0,0,0,0,0,1,,,,,,,,,,,,,,,,,,,,,,,,,,,,,,,,,,,,,,,,,,
295261,2022-11-15_20h17.54.746,vts_reward_expectancy_bt,2022.2.4,MacIntel,60.0024001,Chrome,1440,900,,,,,,,,,,,,,,,,,,,,,,,D,160,star,1,1,d,0,1,0,1,0,1,0.9266,,,,,,,,,,,,,,,,,,,,,,,,,,,,,,,,,,,,,,,,,
295261,2022-11-15_20h17.54.746,vts_reward_expectancy_bt,2022.2.4,MacIntel,60.0024001,Chrome,1440,900,,,,,,,,,,,,,,,,,,,,,,,W,139,triangle,1,0,f,0,2,0,2,0,1,0.5125,,,,,,,,,,,,,,,,,,,,,,,,,,,,,,,,,,,,,,,,,
295261,2022-11-15_20h17.54.746,vts_reward_expectancy_bt,2022.2.4,MacIntel,60.0024001,Chrome,1440,900,,,,,,,,,,,,,,,,,,,,,,,B,146,hexagon,1,0,d,0,3,0,3,0,1,0.5295,,,,,,,,,,,,,,,,,,,,,,,,,,,,,,,,,,,,,,,,,
295261,2022-11-15_20h17.54.746,vts_reward_expectancy_bt,2022.2.4,MacIntel,60.0024001,Chrome,1440,900,,,,,,,,,,,,,,,,,,,,,,,S,174,circle,1,0,f,0,4,0,4,0,1,0.7625,,,,,,,,,,,,,,,,,,,,,,,,,,,,,,,,,,,,,,,,,
295261,2022-11-15_20h17.54.746,vts_reward_expectancy_bt,2022.2.4,MacIntel,60.0024001,Chrome,1440,900,,,,,,,,,,,,,,,,,,,,,,,U,132,star,1,0,f,0,5,0,5,0,1,0.8461,,,,,,,,,,,,,,,,,,,,,,,,,,,,,,,,,,,,,,,,,
295261,2022-11-15_20h17.54.746,vts_reward_expectancy_bt,2022.2.4,MacIntel,60.0024001,Chrome,1440,900,,,,,,,,,,,,,,,,,,,,,,,Y,181,triangle,1,0,f,0,6,0,6,0,1,0.5563,,,,,,,,,,,,,,,,,,,,,,,,,,,,,,,,,,,,,,,,,
295261,2022-11-15_20h17.54.746,vts_reward_expectancy_bt,2022.2.4,MacIntel,60.0024001,Chrome,1440,900,,,,,,,,,,,,,,,,,,,,,,,F,125,hexagon,1,0,d,0,7,0,7,0,1,0.6425,,,,,,,,,,,,,,,,,,,,,,,,,,,,,,,,,,,,,,,,,
295261,2022-11-15_20h17.54.746,vts_reward_expectancy_bt,2022.2.4,MacIntel,60.0024001,Chrome,1440,900,,,,,,,,,,,,,,,,,,,,,,,H,167,star,1,0,d,0,8,0,8,0,1,0.6771,,,,,,,,,,,,,,,,,,,,,,,,,,,,,,,,,,,,,,,,,
295261,2022-11-15_20h17.54.746,vts_reward_expectancy_bt,2022.2.4,MacIntel,60.0024001,Chrome,1440,900,,,,,,,,,,,,,,,,,,,,,,,D,160,triangle,1,0,d,0,9,0,9,0,1,0.6469,,,,,,,,,,,,,,,,,,,,,,,,,,,,,,,,,,,,,,,,,
295261,2022-11-15_20h17.54.746,vts_reward_expectancy_bt,2022.2.4,MacIntel,60.0024001,Chrome,1440,900,,,,,,,,,,,,,,,,,,,,,,,U,181,star,1,0,,1,,,,,,,k,1.81,0,0,0,0,1,,,,,,,,,,,,,,,,,,,,,,,,,,,,,,,,,,
295261,2022-11-15_20h17.54.746,vts_reward_expectancy_bt,2022.2.4,MacIntel,60.0024001,Chrome,1440,900,,,,,,,,,,,,,,,,,,,,,,,Y,167,circle,1,0,,1,,,,,,,k,0.7901,1,0,1,0,1,,,,,,,,,,,,,,,,,,,,,,,,,,,,,,,,,,
295261,2022-11-15_20h17.54.746,vts_reward_expectancy_bt,2022.2.4,MacIntel,60.0024001,Chrome,1440,900,,,,,,,,,,,,,,,,,,,,,,,H,174,hexagon,1,0,,1,,,,,,,k,0.9621,2,0,2,0,1,,,,,,,,,,,,,,,,,,,,,,,,,,,,,,,,,,
295261,2022-11-15_20h17.54.746,vts_reward_expectancy_bt,2022.2.4,MacIntel,60.0024001,Chrome,1440,900,,,,,,,,,,,,,,,,,,,,,,,B,132,triangle,1,0,,1,,,,,,,j,0.5346,3,0,3,0,1,,,,,,,,,,,,,,,,,,,,,,,,,,,,,,,,,,
295261,2022-11-15_20h17.54.746,vts_reward_expectancy_bt,2022.2.4,MacIntel,60.0024001,Chrome,1440,900,,,,,,,,,,,,,,,,,,,,,,,D,125,star,1,0,,1,,,,,,,j,0.4938,4,0,4,0,1,,,,,,,,,,,,,,,,,,,,,,,,,,,,,,,,,,
295261,2022-11-15_20h17.54.746,vts_reward_expectancy_bt,2022.2.4,MacIntel,60.0024001,Chrome,1440,900,,,,,,,,,,,,,,,,,,,,,,,S,139,circle,1,0,,1,,,,,,,j,0.6809,5,0,5,0,1,,,,,,,,,,,,,,,,,,,,,,,,,,,,,,,,,,
295261,2022-11-15_20h17.54.746,vts_reward_expectancy_bt,2022.2.4,MacIntel,60.0024001,Chrome,1440,900,,,,,,,,,,,,,,,,,,,,,,,F,160,hexagon,1,0,,1,,,,,,,k,0.664,6,0,6,0,1,,,,,,,,,,,,,,,,,,,,,,,,,,,,,,,,,,
295261,2022-11-15_20h17.54.746,vts_reward_expectancy_bt,2022.2.4,MacIntel,60.0024001,Chrome,1440,900,,,,,,,,,,,,,,,,,,,,,,,W,146,triangle,1,0,,1,,,,,,,j,0.631,7,0,7,0,1,,,,,,,,,,,,,,,,,,,,,,,,,,,,,,,,,,
295261,2022-11-15_20h17.54.746,vts_reward_expectancy_bt,2022.2.4,MacIntel,60.0024001,Chrome,1440,900,,,,,,,,,,,,,,,,,,,,,,,U,181,hexagon,1,0,,1,,,,,,,k,0.6331,8,0,8,0,1,,,,,,,,,,,,,,,,,,,,,,,,,,,,,,,,,,
295261,2022-11-15_20h17.54.746,vts_reward_expectancy_bt,2022.2.4,MacIntel,60.0024001,Chrome,1440,900,,,,,,,,,,,,,,,,,,,,,,,Y,167,circle,1,0,,1,,,,,,,k,0.6798,9,0,9,0,1,,,,,,,,,,,,,,,,,,,,,,,,,,,,,,,,,,
295261,2022-11-15_20h17.54.746,vts_reward_expectancy_bt,2022.2.4,MacIntel,60.0024001,Chrome,1440,900,,,,,0,666,,,,,,,,,,,,,,,,,U,125,star,1,0,,2,,,,,,,,,,,,,,-1,letter,NA,f,1.1687,vtsPrac,0,0,0,0,1,,,,,,,,,,,,,,,,,,,,,,,
295261,2022-11-15_20h17.54.746,vts_reward_expectancy_bt,2022.2.4,MacIntel,60.0024001,Chrome,1440,900,,,,,0,666,,,,,,,,,,,,,,,,,F,167,triangle,1,0,,2,,,,,,,,,,,,,,switch,number,numSwt,k,0.7104,vtsPrac,1,0,1,0,1,,,,,,,,,,,,,,,,,,,,,,,
295261,2022-11-15_20h17.54.746,vts_reward_expectancy_bt,2022.2.4,MacIntel,60.0024001,Chrome,1440,900,,,,,0,666,,,,,,,,,,,,,,,,,H,181,star,1,0,,2,,,,,,,,,,,,,,repeat,number,numRpt,k,0.5929,vtsPrac,2,0,2,0,1,,,,,,,,,,,,,,,,,,,,,,,
295261,2022-11-15_20h17.54.746,vts_reward_expectancy_bt,2022.2.4,MacIntel,60.0024001,Chrome,1440,900,,,,,0,666,,,,,,,,,,,,,,,,,B,132,triangle,1,0,,2,,,,,,,,,,,,,,switch,letter,lettSwt,d,0.7049,vtsPrac,3,0,3,0,1,,,,,,,,,,,,,,,,,,,,,,,
295261,2022-11-15_20h17.54.746,vts_reward_expectancy_bt,2022.2.4,MacIntel,60.0024001,Chrome,1440,900,,,,,0,666,,,,,,,,,,,,,,,,,U,125,circle,1,0,,2,,,,,,,,,,,,,,repeat,letter,lettRpt,f,0.7004,vtsPrac,4,0,4,0,1,,,,,,,,,,,,,,,,,,,,,,,
295261,2022-11-15_20h17.54.746,vts_reward_expectancy_bt,2022.2.4,MacIntel,60.0024001,Chrome,1440,900,,,,,0,666,,,,,,,,,,,,,,,,,F,167,triangle,1,0,,2,,,,,,,,,,,,,,repeat,letter,lettRpt,d,0.9258,vtsPrac,5,0,5,0,1,,,,,,,,,,,,,,,,,,,,,,,
295261,2022-11-15_20h17.54.746,vts_reward_expectancy_bt,2022.2.4,MacIntel,60.0024001,Chrome,1440,900,,,,,0,666,,,,,,,,,,,,,,,,,H,181,hexagon,1,0,,2,,,,,,,,,,,,,,switch,number,numSwt,k,0.7044,vtsPrac,6,0,6,0,1,,,,,,,,,,,,,,,,,,,,,,,
295261,2022-11-15_20h17.54.746,vts_reward_expectancy_bt,2022.2.4,MacIntel,60.0024001,Chrome,1440,900,,,,,0,666,,,,,,,,,,,,,,,,,B,132,triangle,1,0,,2,,,,,,,,,,,,,,repeat,number,numRpt,j,0.7918,vtsPrac,7,0,7,0,1,,,,,,,,,,,,,,,,,,,,,,,
295261,2022-11-15_20h17.54.746,vts_reward_expectancy_bt,2022.2.4,MacIntel,60.0024001,Chrome,1440,900,,,,,0,666,,,,,,,,,,,,,,,,,U,174,triangle,1,0,,2,,,,,,,,,,,,,,switch,letter,lettSwt,f,0.6086,vtsPrac,8,0,8,0,1,,,,,,,,,,,,,,,,,,,,,,,
295261,2022-11-15_20h17.54.746,vts_reward_expectancy_bt,2022.2.4,MacIntel,60.0024001,Chrome,1440,900,,,,,0,666,,,,,,,,,,,,,,,,,D,160,star,1,0,,2,,,,,,,,,,,,,,switch,number,numSwt,k,0.7349,vtsPrac,9,0,9,0,1,,,,,,,,,,,,,,,,,,,,,,,
295261,2022-11-15_20h17.54.746,vts_reward_expectancy_bt,2022.2.4,MacIntel,60.0024001,Chrome,1440,900,,,,,0,666,,,,,,,,,,,,,,,,,Y,125,triangle,1,0,,2,,,,,,,,,,,,,,repeat,number,numRpt,j,0.9743,vtsPrac,10,0,10,0,1,,,,,,,,,,,,,,,,,,,,,,,
295261,2022-11-15_20h17.54.746,vts_reward_expectancy_bt,2022.2.4,MacIntel,60.0024001,Chrome,1440,900,,,,,0,666,,,,,,,,,,,,,,,,,W,146,circle,1,0,,2,,,,,,,,,,,,,,switch,letter,lettSwt,f,0.698,vtsPrac,11,0,11,0,1,,,,,,,,,,,,,,,,,,,,,,,
295261,2022-11-15_20h17.54.746,vts_reward_expectancy_bt,2022.2.4,MacIntel,60.0024001,Chrome,1440,900,,,,,0,666,,,,,,,,,,,,,,,,,B,132,hexagon,1,0,,2,,,,,,,,,,,,,,repeat,letter,lettRpt,d,0.6137,vtsPrac,12,0,12,0,1,,,,,,,,,,,,,,,,,,,,,,,
295261,2022-11-15_20h17.54.746,vts_reward_expectancy_bt,2022.2.4,MacIntel,60.0024001,Chrome,1440,900,,,,,0,666,,,,,,,,,,,,,,,,,S,125,star,1,0,,2,,,,,,,,,,,,,,repeat,letter,lettRpt,f,0.7939,vtsPrac,13,0,13,0,1,,,,,,,,,,,,,,,,,,,,,,,
295261,2022-11-15_20h17.54.746,vts_reward_expectancy_bt,2022.2.4,MacIntel,60.0024001,Chrome,1440,900,,,,,0,666,,,,,,,,,,,,,,,,,D,174,triangle,1,0,,2,,,,,,,,,,,,,,switch,number,numSwt,k,0.7811,vtsPrac,14,0,14,0,1,,,,,,,,,,,,,,,,,,,,,,,
295261,2022-11-15_20h17.54.746,vts_reward_expectancy_bt,2022.2.4,MacIntel,60.0024001,Chrome,1440,900,,,,,0,666,,,,,,,,,,,,,,,,,W,160,star,1,0,,2,,,,,,,,,,,,,,repeat,number,numRpt,k,0.7231,vtsPrac,15,0,15,0,1,,,,,,,,,,,,,,,,,,,,,,,
295261,2022-11-15_20h17.54.746,vts_reward_expectancy_bt,2022.2.4,MacIntel,60.0024001,Chrome,1440,900,,,,,0,666,,,,,,,,,,,,,,,,,U,139,circle,1,0,,2,,,,,,,,,,,,,,switch,letter,lettSwt,f,0.7622,vtsPrac,16,0,16,0,1,,,,,,,,,,,,,,,,,,,,,,,
295261,2022-11-15_20h17.54.746,vts_reward_expectancy_bt,2022.2.4,MacIntel,60.0024001,Chrome,1440,900,,,,,0,666,,,,,,,,,,,,,,,,,Y,181,triangle,1,0,,2,,,,,,,,,,,,,,switch,number,numSwt,k,0.6834,vtsPrac,17,0,17,0,1,,,,,,,,,,,,,,,,,,,,,,,
295261,2022-11-15_20h17.54.746,vts_reward_expectancy_bt,2022.2.4,MacIntel,60.0024001,Chrome,1440,900,,,,,0,666,,,,,,,,,,,,,,,,,F,146,star,1,0,,2,,,,,,,,,,,,,,switch,letter,lettSwt,d,0.7303,vtsPrac,18,0,18,0,1,,,,,,,,,,,,,,,,,,,,,,,
295261,2022-11-15_20h17.54.746,vts_reward_expectancy_bt,2022.2.4,MacIntel,60.0024001,Chrome,1440,900,,,,,0,666,,,,,,,,,,,,,,,,,W,174,triangle,1,0,,2,,,,,,,,,,,,,,switch,number,numSwt,k,0.8464,vtsPrac,19,0,19,0,1,,,,,,,,,,,,,,,,,,,,,,,
295261,2022-11-15_20h17.54.746,vts_reward_expectancy_bt,2022.2.4,MacIntel,60.0024001,Chrome,1440,900,,,,,0,666,,,,,,,,,,,,,,,,,F,167,circle,1,0,,2,,,,,,,,,,,,,,switch,letter,lettSwt,d,0.634,vtsPrac,20,0,20,0,1,,,,,,,,,,,,,,,,,,,,,,,
295261,2022-11-15_20h17.54.746,vts_reward_expectancy_bt,2022.2.4,MacIntel,60.0024001,Chrome,1440,900,,,,,0,666,,,,,,,,,,,,,,,,,H,160,triangle,1,0,,2,,,,,,,,,,,,,,repeat,letter,lettRpt,d,0.7642,vtsPrac,21,0,21,0,1,,,,,,,,,,,,,,,,,,,,,,,
295261,2022-11-15_20h17.54.746,vts_reward_expectancy_bt,2022.2.4,MacIntel,60.0024001,Chrome,1440,900,,,,,0,666,,,,,,,,,,,,,,,,,B,139,hexagon,1,0,,2,,,,,,,,,,,,,,repeat,letter,lettRpt,d,0.6054,vtsPrac,22,0,22,0,1,,,,,,,,,,,,,,,,,,,,,,,
295261,2022-11-15_20h17.54.746,vts_reward_expectancy_bt,2022.2.4,MacIntel,60.0024001,Chrome,1440,900,,,,,0,666,,,,,,,,,,,,,,,,,Y,146,circle,1,0,,2,,,,,,,,,,,,,,switch,number,numSwt,j,1.0101,vtsPrac,23,0,23,0,1,,,,,,,,,,,,,,,,,,,,,,,
295261,2022-11-15_20h17.54.746,vts_reward_expectancy_bt,2022.2.4,MacIntel,60.0024001,Chrome,1440,900,,,,,0,666,,,,,,,,,,,,,,,,,U,125,hexagon,1,0,,2,,,,,,,,,,,,,,switch,letter,lettSwt,f,0.6228,vtsPrac,24,0,24,0,1,,,,,,,,,,,,,,,,,,,,,,,
295261,2022-11-15_20h17.54.746,vts_reward_expectancy_bt,2022.2.4,MacIntel,60.0024001,Chrome,1440,900,,,,,0,666,,,,,,,,,,,,,,,,,S,160,circle,1,0,,2,,,,,,,,,,,,,,switch,number,numSwt,k,0.8874,vtsPrac,25,0,25,0,1,,,,,,,,,,,,,,,,,,,,,,,
295261,2022-11-15_20h17.54.746,vts_reward_expectancy_bt,2022.2.4,MacIntel,60.0024001,Chrome,1440,900,,,,,0,666,,,,,,,,,,,,,,,,,H,181,hexagon,1,0,,2,,,,,,,,,,,,,,switch,letter,lettSwt,d,0.696,vtsPrac,26,0,26,0,1,,,,,,,,,,,,,,,,,,,,,,,
295261,2022-11-15_20h17.54.746,vts_reward_expectancy_bt,2022.2.4,MacIntel,60.0024001,Chrome,1440,900,,,,,0,666,,,,,,,,,,,,,,,,,W,174,star,1,0,,2,,,,,,,,,,,,,,repeat,letter,lettRpt,f,0.717,vtsPrac,27,0,27,0,1,,,,,,,,,,,,,,,,,,,,,,,
295261,2022-11-15_20h17.54.746,vts_reward_expectancy_bt,2022.2.4,MacIntel,60.0024001,Chrome,1440,900,,,,,0,666,,,,,,,,,,,,,,,,,F,132,circle,1,0,,2,,,,,,,,,,,,,,switch,number,numSwt,j,0.6792,vtsPrac,28,0,28,0,1,,,,,,,,,,,,,,,,,,,,,,,
295261,2022-11-15_20h17.54.746,vts_reward_expectancy_bt,2022.2.4,MacIntel,60.0024001,Chrome,1440,900,,,,,0,666,,,,,,,,,,,,,,,,,U,167,hexagon,1,0,,2,,,,,,,,,,,,,,repeat,number,numRpt,k,0.991,vtsPrac,29,0,29,0,1,,,,,,,,,,,,,,,,,,,,,,,
295261,2022-11-15_20h17.54.746,vts_reward_expectancy_bt,2022.2.4,MacIntel,60.0024001,Chrome,1440,900,,,,,0,666,,,,,,,,,,,,,,,,,W,125,star,1,0,,2,,,,,,,,,,,,,,switch,letter,lettSwt,f,0.6678,vtsPrac,30,0,30,0,1,,,,,,,,,,,,,,,,,,,,,,,
295261,2022-11-15_20h17.54.746,vts_reward_expectancy_bt,2022.2.4,MacIntel,60.0024001,Chrome,1440,900,,,,,0,666,,,,,,,,,,,,,,,,,B,146,triangle,1,0,,2,,,,,,,,,,,,,,switch,number,numSwt,j,0.8349,vtsPrac,31,0,31,0,1,,,,,,,,,,,,,,,,,,,,,,,
295261,2022-11-15_20h17.54.746,vts_reward_expectancy_bt,2022.2.4,MacIntel,60.0024001,Chrome,1440,900,,,,,,,,,,,,,,,,,,,,,,,,,,,,,,,,,,,,,,,,,,,,,,,,,,,,,,,,,,,,,,,,,,,,,,,,,,,,
295261,2022-11-15_20h17.54.746,vts_reward_expectancy_bt,2022.2.4,MacIntel,60.0024001,Chrome,1440,900,,,,,,,,,,,,,,,,,,,,,,,,,,,,,,,,,,,,,,,,,,,,,,,,,,,,,,,,,,,,,,,,,,,,,,,,,,,,
295261,2022-11-15_20h17.54.746,vts_reward_expectancy_bt,2022.2.4,MacIntel,60.0024001,Chrome,1440,900,,,,,0,666,,,,,,,,,,,,,,,,,Y,132,star,1,0,,,,,,,,,,,,,,,,switch,letter,lettSwt,f,0.8765,noRew,,,,,,0,0,0,0,0,1,,,,,,,,,,,,,,,,,
295261,2022-11-15_20h17.54.746,vts_reward_expectancy_bt,2022.2.4,MacIntel,60.0024001,Chrome,1440,900,,,,,0,666,,,,,,,,,,,,,,,,,S,174,circle,1,0,,,,,,,,,,,,,,,,repeat,letter,lettRpt,f,0.7504,noRew,,,,,,0,1,0,1,0,1,,,,,,,,,,,,,,,,,
295261,2022-11-15_20h17.54.746,vts_reward_expectancy_bt,2022.2.4,MacIntel,60.0024001,Chrome,1440,900,,,,,0,666,,,,,,,,,,,,,,,,,B,167,star,1,0,,,,,,,,,,,,,,,,switch,number,numSwt,k,0.6756,noRew,,,,,,0,2,0,2,0,1,,,,,,,,,,,,,,,,,
295261,2022-11-15_20h17.54.746,vts_reward_expectancy_bt,2022.2.4,MacIntel,60.0024001,Chrome,1440,900,,,,,0,666,,,,,,,,,,,,,,,,,D,125,circle,1,0,,,,,,,,,,,,,,,,repeat,number,numRpt,j,0.6465,noRew,,,,,,0,3,0,3,0,1,,,,,,,,,,,,,,,,,
295261,2022-11-15_20h17.54.746,vts_reward_expectancy_bt,2022.2.4,MacIntel,60.0024001,Chrome,1440,900,,,,,0,666,,,,,,,,,,,,,,,,,Y,132,star,1,0,,,,,,,,,,,,,,,,repeat,number,numRpt,j,0.7177,noRew,,,,,,0,4,0,4,0,1,,,,,,,,,,,,,,,,,
295261,2022-11-15_20h17.54.746,vts_reward_expectancy_bt,2022.2.4,MacIntel,60.0024001,Chrome,1440,900,,,,,0,666,,,,,,,,,,,,,,,,,S,174,triangle,1,0,,,,,,,,,,,,,,,,switch,letter,lettSwt,f,0.7613,noRew,,,,,,0,5,0,5,0,1,,,,,,,,,,,,,,,,,
295261,2022-11-15_20h17.54.746,vts_reward_expectancy_bt,2022.2.4,MacIntel,60.0024001,Chrome,1440,900,,,,,0,666,,,,,,,,,,,,,,,,,B,167,star,1,0,,,,,,,,,,,,,,,,switch,number,numSwt,k,0.7965,noRew,,,,,,0,6,0,6,0,1,,,,,,,,,,,,,,,,,
295261,2022-11-15_20h17.54.746,vts_reward_expectancy_bt,2022.2.4,MacIntel,60.0024001,Chrome,1440,900,,,,,0,666,,,,,,,,,,,,,,,,,D,125,circle,1,0,,,,,,,,,,,,,,,,switch,letter,lettSwt,d,0.5722,noRew,,,,,,0,7,0,7,0,1,,,,,,,,,,,,,,,,,
295261,2022-11-15_20h17.54.746,vts_reward_expectancy_bt,2022.2.4,MacIntel,60.0024001,Chrome,1440,900,,,,,0,666,,,,,,,,,,,,,,,,,Y,146,star,1,0,,,,,,,,,,,,,,,,repeat,letter,lettRpt,f,0.6186,noRew,,,,,,0,8,0,8,0,1,,,,,,,,,,,,,,,,,
295261,2022-11-15_20h17.54.746,vts_reward_expectancy_bt,2022.2.4,MacIntel,60.0024001,Chrome,1440,900,,,,,0,666,,,,,,,,,,,,,,,,,S,167,circle,1,0,,,,,,,,,,,,,,,,switch,number,numSwt,k,0.7108,noRew,,,,,,0,9,0,9,0,1,,,,,,,,,,,,,,,,,
295261,2022-11-15_20h17.54.746,vts_reward_expectancy_bt,2022.2.4,MacIntel,60.0024001,Chrome,1440,900,,,,,0,666,,,,,,,,,,,,,,,,,H,132,circle,1,0,,,,,,,,,,,,,,,,repeat,number,numRpt,j,0.6309,noRew,,,,,,0,10,0,10,0,1,,,,,,,,,,,,,,,,,
295261,2022-11-15_20h17.54.746,vts_reward_expectancy_bt,2022.2.4,MacIntel,60.0024001,Chrome,1440,900,,,,,0,666,,,,,,,,,,,,,,,,,D,160,hexagon,1,0,,,,,,,,,,,,,,,,switch,letter,lettSwt,d,0.884,noRew,,,,,,0,11,0,11,0,1,,,,,,,,,,,,,,,,,
295261,2022-11-15_20h17.54.746,vts_reward_expectancy_bt,2022.2.4,MacIntel,60.0024001,Chrome,1440,900,,,,,0,666,,,,,,,,,,,,,,,,,Y,146,triangle,1,0,,,,,,,,,,,,,,,,switch,number,numSwt,j,0.9293,noRew,,,,,,0,12,0,12,0,1,,,,,,,,,,,,,,,,,
295261,2022-11-15_20h17.54.746,vts_reward_expectancy_bt,2022.2.4,MacIntel,60.0024001,Chrome,1440,900,,,,,0,666,,,,,,,,,,,,,,,,,W,174,circle,1,0,,,,,,,,,,,,,,,,switch,letter,lettSwt,f,0.6136,noRew,,,,,,0,13,0,13,0,1,,,,,,,,,,,,,,,,,
295261,2022-11-15_20h17.54.746,vts_reward_expectancy_bt,2022.2.4,MacIntel,60.0024001,Chrome,1440,900,,,,,0,666,,,,,,,,,,,,,,,,,D,167,hexagon,1,0,,,,,,,,,,,,,,,,switch,number,numSwt,k,0.8191,noRew,,,,,,0,14,0,14,0,1,,,,,,,,,,,,,,,,,
295261,2022-11-15_20h17.54.746,vts_reward_expectancy_bt,2022.2.4,MacIntel,60.0024001,Chrome,1440,900,,,,,0,666,,,,,,,,,,,,,,,,,B,125,star,1,0,,,,,,,,,,,,,,,,switch,letter,lettSwt,d,0.7479,noRew,,,,,,0,15,0,15,0,1,,,,,,,,,,,,,,,,,
295261,2022-11-15_20h17.54.746,vts_reward_expectancy_bt,2022.2.4,MacIntel,60.0024001,Chrome,1440,900,,,,,0,666,,,,,,,,,,,,,,,,,U,181,circle,1,0,,,,,,,,,,,,,,,,switch,number,numSwt,k,0.8537,noRew,,,,,,0,16,0,16,0,1,,,,,,,,,,,,,,,,,
295261,2022-11-15_20h17.54.746,vts_reward_expectancy_bt,2022.2.4,MacIntel,60.0024001,Chrome,1440,900,,,,,0,666,,,,,,,,,,,,,,,,,Y,139,hexagon,1,0,,,,,,,,,,,,,,,,switch,letter,lettSwt,f,0.711,noRew,,,,,,0,17,0,17,0,1,,,,,,,,,,,,,,,,,
295261,2022-11-15_20h17.54.746,vts_reward_expectancy_bt,2022.2.4,MacIntel,60.0024001,Chrome,1440,900,,,,,0,666,,,,,,,,,,,,,,,,,F,146,circle,1,0,,,,,,,,,,,,,,,,repeat,letter,lettRpt,d,0.6939,noRew,,,,,,0,18,0,18,0,1,,,,,,,,,,,,,,,,,
295261,2022-11-15_20h17.54.746,vts_reward_expectancy_bt,2022.2.4,MacIntel,60.0024001,Chrome,1440,900,,,,,0,666,,,,,,,,,,,,,,,,,S,167,hexagon,1,0,,,,,,,,,,,,,,,,switch,number,numSwt,k,1.3103,noRew,,,,,,0,19,0,19,0,1,,,,,,,,,,,,,,,,,
295261,2022-11-15_20h17.54.746,vts_reward_expectancy_bt,2022.2.4,MacIntel,60.0024001,Chrome,1440,900,,,,,0,666,,,,,,,,,,,,,,,,,D,160,hexagon,1,0,,,,,,,,,,,,,,,,repeat,number,numRpt,k,0.6855,noRew,,,,,,0,20,0,20,0,1,,,,,,,,,,,,,,,,,
295261,2022-11-15_20h17.54.746,vts_reward_expectancy_bt,2022.2.4,MacIntel,60.0024001,Chrome,1440,900,,,,,0,666,,,,,,,,,,,,,,,,,U,181,circle,1,0,,,,,,,,,,,,,,,,repeat,number,numRpt,k,0.8146,noRew,,,,,,0,21,0,21,0,1,,,,,,,,,,,,,,,,,
295261,2022-11-15_20h17.54.746,vts_reward_expectancy_bt,2022.2.4,MacIntel,60.0024001,Chrome,1440,900,,,,,0,666,,,,,,,,,,,,,,,,,B,125,hexagon,-1,0,,,,,,,,,,,,,,,,switch,no_choice,NA,,,noRew,,,,,,0,22,0,22,0,1,,,,,,,,,,,,,,,,,
295261,2022-11-15_20h17.54.746,vts_reward_expectancy_bt,2022.2.4,MacIntel,60.0024001,Chrome,1440,900,,,,,0,666,,,,,,,,,,,,,,,,,S,139,circle,-1,0,,,,,,,,,,,,,,,,repeat,no_choice,NA,,,noRew,,,,,,0,23,0,23,0,1,,,,,,,,,,,,,,,,,
295261,2022-11-15_20h17.54.746,vts_reward_expectancy_bt,2022.2.4,MacIntel,60.0024001,Chrome,1440,900,,,,,0,666,,,,,,,,,,,,,,,,,D,181,circle,1,0,,,,,,,,,,,,,,,,switch,letter,lettSwt,d,2.0248,noRew,,,,,,0,24,0,24,0,1,,,,,,,,,,,,,,,,,
295261,2022-11-15_20h17.54.746,vts_reward_expectancy_bt,2022.2.4,MacIntel,60.0024001,Chrome,1440,900,,,,,0,666,,,,,,,,,,,,,,,,,F,167,star,1,0,,,,,,,,,,,,,,,,repeat,letter,lettRpt,d,1.2873,noRew,,,,,,0,25,0,25,0,1,,,,,,,,,,,,,,,,,
295261,2022-11-15_20h17.54.746,vts_reward_expectancy_bt,2022.2.4,MacIntel,60.0024001,Chrome,1440,900,,,,,0,666,,,,,,,,,,,,,,,,,Y,160,triangle,1,0,,,,,,,,,,,,,,,,switch,number,numSwt,k,1.0711,noRew,,,,,,0,26,0,26,0,1,,,,,,,,,,,,,,,,,
295261,2022-11-15_20h17.54.746,vts_reward_expectancy_bt,2022.2.4,MacIntel,60.0024001,Chrome,1440,900,,,,,0,666,,,,,,,,,,,,,,,,,S,146,circle,1,0,,,,,,,,,,,,,,,,repeat,number,numRpt,j,1.0106,noRew,,,,,,0,27,0,27,0,1,,,,,,,,,,,,,,,,,
295261,2022-11-15_20h17.54.746,vts_reward_expectancy_bt,2022.2.4,MacIntel,60.0024001,Chrome,1440,900,,,,,0,666,,,,,,,,,,,,,,,,,H,125,circle,1,0,,,,,,,,,,,,,,,,switch,letter,lettSwt,d,1.83,noRew,,,,,,0,28,0,28,0,1,,,,,,,,,,,,,,,,,
295261,2022-11-15_20h17.54.746,vts_reward_expectancy_bt,2022.2.4,MacIntel,60.0024001,Chrome,1440,900,,,,,0,666,,,,,,,,,,,,,,,,,S,146,triangle,1,0,,,,,,,,,,,,,,,,repeat,letter,lettRpt,f,0.9004,noRew,,,,,,0,29,0,29,0,1,,,,,,,,,,,,,,,,,
295261,2022-11-15_20h17.54.746,vts_reward_expectancy_bt,2022.2.4,MacIntel,60.0024001,Chrome,1440,900,,,,,0,666,,,,,,,,,,,,,,,,,D,167,circle,1,0,,,,,,,,,,,,,,,,switch,number,numSwt,k,1.1788,noRew,,,,,,0,30,0,30,0,1,,,,,,,,,,,,,,,,,
295261,2022-11-15_20h17.54.746,vts_reward_expectancy_bt,2022.2.4,MacIntel,60.0024001,Chrome,1440,900,,,,,0,666,,,,,,,,,,,,,,,,,F,132,hexagon,1,0,,,,,,,,,,,,,,,,switch,letter,lettSwt,d,0.8323,noRew,,,,,,0,31,0,31,0,1,,,,,,,,,,,,,,,,,
295261,2022-11-15_20h17.54.746,vts_reward_expectancy_bt,2022.2.4,MacIntel,60.0024001,Chrome,1440,900,,,,,0,666,,,,,,,,,,,,,,,,,S,160,star,1,0,,,,,,,,,,,,,,,,switch,number,numSwt,k,0.6956,noRew,,,,,,0,32,0,32,0,1,,,,,,,,,,,,,,,,,
295261,2022-11-15_20h17.54.746,vts_reward_expectancy_bt,2022.2.4,MacIntel,60.0024001,Chrome,1440,900,,,,,0,666,,,,,,,,,,,,,,,,,W,174,hexagon,1,0,,,,,,,,,,,,,,,,switch,letter,lettSwt,f,0.8124,noRew,,,,,,0,33,0,33,0,1,,,,,,,,,,,,,,,,,
295261,2022-11-15_20h17.54.746,vts_reward_expectancy_bt,2022.2.4,MacIntel,60.0024001,Chrome,1440,900,,,,,0,666,,,,,,,,,,,,,,,,,U,139,hexagon,1,0,,,,,,,,,,,,,,,,switch,number,numSwt,j,0.7142,noRew,,,,,,0,34,0,34,0,1,,,,,,,,,,,,,,,,,
295261,2022-11-15_20h17.54.746,vts_reward_expectancy_bt,2022.2.4,MacIntel,60.0024001,Chrome,1440,900,,,,,0,666,,,,,,,,,,,,,,,,,H,181,triangle,1,0,,,,,,,,,,,,,,,,repeat,number,numRpt,k,0.5748,noRew,,,,,,0,35,0,35,0,1,,,,,,,,,,,,,,,,,
295261,2022-11-15_20h17.54.746,vts_reward_expectancy_bt,2022.2.4,MacIntel,60.0024001,Chrome,1440,900,,,,,0,666,,,,,,,,,,,,,,,,,D,181,hexagon,1,0,,,,,,,,,,,,,,,,switch,letter,lettSwt,d,0.6318,noRew,,,,,,0,36,0,36,0,1,,,,,,,,,,,,,,,,,
295261,2022-11-15_20h17.54.746,vts_reward_expectancy_bt,2022.2.4,MacIntel,60.0024001,Chrome,1440,900,,,,,0,666,,,,,,,,,,,,,,,,,B,132,star,1,0,,,,,,,,,,,,,,,,repeat,letter,lettRpt,d,0.7318,noRew,,,,,,0,37,0,37,0,1,,,,,,,,,,,,,,,,,
295261,2022-11-15_20h17.54.746,vts_reward_expectancy_bt,2022.2.4,MacIntel,60.0024001,Chrome,1440,900,,,,,0,666,,,,,,,,,,,,,,,,,S,160,hexagon,1,0,,,,,,,,,,,,,,,,repeat,letter,lettRpt,f,0.9643,noRew,,,,,,0,38,0,38,0,1,,,,,,,,,,,,,,,,,
295261,2022-11-15_20h17.54.746,vts_reward_expectancy_bt,2022.2.4,MacIntel,60.0024001,Chrome,1440,900,,,,,0,666,,,,,,,,,,,,,,,,,U,139,star,1,0,,,,,,,,,,,,,,,,repeat,letter,lettRpt,f,1.3984,noRew,,,,,,0,39,0,39,0,1,,,,,,,,,,,,,,,,,
295261,2022-11-15_20h17.54.746,vts_reward_expectancy_bt,2022.2.4,MacIntel,60.0024001,Chrome,1440,900,,,,,0,666,,,,,,,,,,,,,,,,,W,125,star,1,0,,,,,,,,,,,,,,,,switch,number,numSwt,j,0.787,noRew,,,,,,0,40,0,40,0,1,,,,,,,,,,,,,,,,,
295261,2022-11-15_20h17.54.746,vts_reward_expectancy_bt,2022.2.4,MacIntel,60.0024001,Chrome,1440,900,,,,,0,666,,,,,,,,,,,,,,,,,S,181,hexagon,1,0,,,,,,,,,,,,,,,,repeat,number,numRpt,k,0.7582,noRew,,,,,,0,41,0,41,0,1,,,,,,,,,,,,,,,,,
295261,2022-11-15_20h17.54.746,vts_reward_expectancy_bt,2022.2.4,MacIntel,60.0024001,Chrome,1440,900,,,,,0,666,,,,,,,,,,,,,,,,,H,146,circle,1,0,,,,,,,,,,,,,,,,switch,letter,lettSwt,d,0.6269,noRew,,,,,,0,42,0,42,0,1,,,,,,,,,,,,,,,,,
295261,2022-11-15_20h17.54.746,vts_reward_expectancy_bt,2022.2.4,MacIntel,60.0024001,Chrome,1440,900,,,,,0,666,,,,,,,,,,,,,,,,,F,160,hexagon,1,0,,,,,,,,,,,,,,,,switch,number,numSwt,k,1.0656,noRew,,,,,,0,43,0,43,0,1,,,,,,,,,,,,,,,,,
295261,2022-11-15_20h17.54.746,vts_reward_expectancy_bt,2022.2.4,MacIntel,60.0024001,Chrome,1440,900,,,,,0,666,,,,,,,,,,,,,,,,,W,125,triangle,1,0,,,,,,,,,,,,,,,,switch,letter,lettSwt,f,0.7125,noRew,,,,,,0,44,0,44,0,1,,,,,,,,,,,,,,,,,
295261,2022-11-15_20h17.54.746,vts_reward_expectancy_bt,2022.2.4,MacIntel,60.0024001,Chrome,1440,900,,,,,0,666,,,,,,,,,,,,,,,,,U,132,hexagon,1,0,,,,,,,,,,,,,,,,repeat,letter,lettRpt,f,0.5958,noRew,,,,,,0,45,0,45,0,1,,,,,,,,,,,,,,,,,
295261,2022-11-15_20h17.54.746,vts_reward_expectancy_bt,2022.2.4,MacIntel,60.0024001,Chrome,1440,900,,,,,0,666,,,,,,,,,,,,,,,,,B,167,hexagon,1,0,,,,,,,,,,,,,,,,repeat,letter,lettRpt,d,0.5675,noRew,,,,,,0,46,0,46,0,1,,,,,,,,,,,,,,,,,
295261,2022-11-15_20h17.54.746,vts_reward_expectancy_bt,2022.2.4,MacIntel,60.0024001,Chrome,1440,900,,,,,0,666,,,,,,,,,,,,,,,,,D,174,triangle,1,0,,,,,,,,,,,,,,,,switch,number,numSwt,k,0.6841,noRew,,,,,,0,47,0,47,0,1,,,,,,,,,,,,,,,,,
295261,2022-11-15_20h17.54.746,vts_reward_expectancy_bt,2022.2.4,MacIntel,60.0024001,Chrome,1440,900,,,,,0,666,,,,,,,,,,,,,,,,,D,174,hexagon,1,0,,,,,,,,,,,,,,,,repeat,number,numRpt,k,0.7099,noRew,,,,,,0,48,0,48,0,1,,,,,,,,,,,,,,,,,
295261,2022-11-15_20h17.54.746,vts_reward_expectancy_bt,2022.2.4,MacIntel,60.0024001,Chrome,1440,900,,,,,0,666,,,,,,,,,,,,,,,,,W,146,star,1,0,,,,,,,,,,,,,,,,repeat,number,numRpt,j,1.0642,noRew,,,,,,0,49,0,49,0,1,,,,,,,,,,,,,,,,,
295261,2022-11-15_20h17.54.746,vts_reward_expectancy_bt,2022.2.4,MacIntel,60.0024001,Chrome,1440,900,,,,,0,666,,,,,,,,,,,,,,,,,S,132,triangle,1,0,,,,,,,,,,,,,,,,switch,letter,lettSwt,f,1.144,noRew,,,,,,0,50,0,50,0,1,,,,,,,,,,,,,,,,,
295261,2022-11-15_20h17.54.746,vts_reward_expectancy_bt,2022.2.4,MacIntel,60.0024001,Chrome,1440,900,,,,,0,666,,,,,,,,,,,,,,,,,F,181,hexagon,1,0,,,,,,,,,,,,,,,,repeat,letter,lettRpt,d,0.9291,noRew,,,,,,0,51,0,51,0,1,,,,,,,,,,,,,,,,,
295261,2022-11-15_20h17.54.746,vts_reward_expectancy_bt,2022.2.4,MacIntel,60.0024001,Chrome,1440,900,,,,,0,666,,,,,,,,,,,,,,,,,S,181,circle,1,0,,,,,,,,,,,,,,,,switch,number,numSwt,k,1.2368,noRew,,,,,,0,52,0,52,0,1,,,,,,,,,,,,,,,,,
295261,2022-11-15_20h17.54.746,vts_reward_expectancy_bt,2022.2.4,MacIntel,60.0024001,Chrome,1440,900,,,,,0,666,,,,,,,,,,,,,,,,,H,132,hexagon,1,0,,,,,,,,,,,,,,,,switch,letter,lettSwt,d,0.8125,noRew,,,,,,0,53,0,53,0,1,,,,,,,,,,,,,,,,,
295261,2022-11-15_20h17.54.746,vts_reward_expectancy_bt,2022.2.4,MacIntel,60.0024001,Chrome,1440,900,,,,,0,666,,,,,,,,,,,,,,,,,F,167,circle,1,0,,,,,,,,,,,,,,,,switch,number,numSwt,k,1.2426,noRew,,,,,,0,54,0,54,0,1,,,,,,,,,,,,,,,,,
295261,2022-11-15_20h17.54.746,vts_reward_expectancy_bt,2022.2.4,MacIntel,60.0024001,Chrome,1440,900,,,,,0,666,,,,,,,,,,,,,,,,,D,139,hexagon,1,0,,,,,,,,,,,,,,,,switch,letter,lettSwt,d,0.6577,noRew,,,,,,0,55,0,55,0,1,,,,,,,,,,,,,,,,,
295261,2022-11-15_20h17.54.746,vts_reward_expectancy_bt,2022.2.4,MacIntel,60.0024001,Chrome,1440,900,,,,,0,666,,,,,,,,,,,,,,,,,S,132,hexagon,1,0,,,,,,,,,,,,,,,,repeat,letter,lettRpt,f,0.7839,noRew,,,,,,0,56,0,56,0,1,,,,,,,,,,,,,,,,,
295261,2022-11-15_20h17.54.746,vts_reward_expectancy_bt,2022.2.4,MacIntel,60.0024001,Chrome,1440,900,,,,,0,666,,,,,,,,,,,,,,,,,H,167,star,1,0,,,,,,,,,,,,,,,,switch,number,numSwt,k,0.6973,noRew,,,,,,0,57,0,57,0,1,,,,,,,,,,,,,,,,,
295261,2022-11-15_20h17.54.746,vts_reward_expectancy_bt,2022.2.4,MacIntel,60.0024001,Chrome,1440,900,,,,,0,666,,,,,,,,,,,,,,,,,F,174,star,1,0,,,,,,,,,,,,,,,,switch,letter,lettSwt,d,0.8056,noRew,,,,,,0,58,0,58,0,1,,,,,,,,,,,,,,,,,
295261,2022-11-15_20h17.54.746,vts_reward_expectancy_bt,2022.2.4,MacIntel,60.0024001,Chrome,1440,900,,,,,0,666,,,,,,,,,,,,,,,,,B,181,hexagon,1,0,,,,,,,,,,,,,,,,repeat,letter,lettRpt,d,1.1017,noRew,,,,,,0,59,0,59,0,1,,,,,,,,,,,,,,,,,
295261,2022-11-15_20h17.54.746,vts_reward_expectancy_bt,2022.2.4,MacIntel,60.0024001,Chrome,1440,900,,,,,0,666,,,,,,,,,,,,,,,,,W,139,star,1,0,,,,,,,,,,,,,,,,repeat,letter,lettRpt,f,0.8695,noRew,,,,,,0,60,0,60,0,1,,,,,,,,,,,,,,,,,
295261,2022-11-15_20h17.54.746,vts_reward_expectancy_bt,2022.2.4,MacIntel,60.0024001,Chrome,1440,900,,,,,0,666,,,,,,,,,,,,,,,,,S,146,triangle,1,0,,,,,,,,,,,,,,,,switch,number,numSwt,j,1.1265,noRew,,,,,,0,61,0,61,0,1,,,,,,,,,,,,,,,,,
295261,2022-11-15_20h17.54.746,vts_reward_expectancy_bt,2022.2.4,MacIntel,60.0024001,Chrome,1440,900,,,,,0,666,,,,,,,,,,,,,,,,,H,132,triangle,1,0,,,,,,,,,,,,,,,,repeat,number,numRpt,j,0.9192,noRew,,,,,,0,62,0,62,0,1,,,,,,,,,,,,,,,,,
295261,2022-11-15_20h17.54.746,vts_reward_expectancy_bt,2022.2.4,MacIntel,60.0024001,Chrome,1440,900,,,,,0,666,,,,,,,,,,,,,,,,,F,167,hexagon,1,0,,,,,,,,,,,,,,,,switch,letter,lettSwt,d,0.9466,noRew,,,,,,0,63,0,63,0,1,,,,,,,,,,,,,,,,,
295261,2022-11-15_20h17.54.746,vts_reward_expectancy_bt,2022.2.4,MacIntel,60.0024001,Chrome,1440,900,,,,,,,,,,,,,,,,,,,,,,,,,,,,,,,,,,,,,,,,,,,,,,,,,,,,,,,,,,,,,,,,,,,,,,,,,,,,
295261,2022-11-15_20h17.54.746,vts_reward_expectancy_bt,2022.2.4,MacIntel,60.0024001,Chrome,1440,900,,,,,10,676,,,,,,,,,,,,,,,,,U,132,hexagon,1,0,,,,,,,,,,,,,,,,repeat,letter,lettRpt,f,1.2958,Lo,,,,,,0,,,,,,space,5.0656,high,0,0,0,0,1,,,,,,,,,
295261,2022-11-15_20h17.54.746,vts_reward_expectancy_bt,2022.2.4,MacIntel,60.0024001,Chrome,1440,900,,,,,10,686,,,,,,,,,,,,,,,,,Y,160,star,1,0,,,,,,,,,,,,,,,,switch,number,numSwt,k,0.7258,Lo,,,,,,0,,,,,,,,high,1,0,1,0,1,,,,,,,,,
295261,2022-11-15_20h17.54.746,vts_reward_expectancy_bt,2022.2.4,MacIntel,60.0024001,Chrome,1440,900,,,,,10,696,,,,,,,,,,,,,,,,,S,146,triangle,1,0,,,,,,,,,,,,,,,,repeat,number,numRpt,j,0.6683,Hi,,,,,,0,,,,,,,,high,2,0,2,0,1,,,,,,,,,
295261,2022-11-15_20h17.54.746,vts_reward_expectancy_bt,2022.2.4,MacIntel,60.0024001,Chrome,1440,900,,,,,0,696,,,,,,,,,,,,,,,,,D,181,circle,1,0,,,,,,,,,,,,,,,,switch,letter,lettSwt,d,0.7352,Hi,,,,,,0,,,,,,,,high,3,0,3,0,1,,,,,,,,,
295261,2022-11-15_20h17.54.746,vts_reward_expectancy_bt,2022.2.4,MacIntel,60.0024001,Chrome,1440,900,,,,,1,697,,,,,,,,,,,,,,,,,W,125,hexagon,1,0,,,,,,,,,,,,,,,,switch,number,numSwt,j,0.5187,Lo,,,,,,0,,,,,,,,high,4,0,4,0,1,,,,,,,,,
295261,2022-11-15_20h17.54.746,vts_reward_expectancy_bt,2022.2.4,MacIntel,60.0024001,Chrome,1440,900,,,,,1,698,,,,,,,,,,,,,,,,,F,174,star,1,0,,,,,,,,,,,,,,,,switch,letter,lettSwt,d,0.464,Lo,,,,,,0,,,,,,,,high,5,0,5,0,1,,,,,,,,,
295261,2022-11-15_20h17.54.746,vts_reward_expectancy_bt,2022.2.4,MacIntel,60.0024001,Chrome,1440,900,,,,,0,698,,,,,,,,,,,,,,,,,H,139,triangle,1,0,,,,,,,,,,,,,,,,repeat,letter,lettRpt,d,0.7519,Hi,,,,,,0,,,,,,,,high,6,0,6,0,1,,,,,,,,,
295261,2022-11-15_20h17.54.746,vts_reward_expectancy_bt,2022.2.4,MacIntel,60.0024001,Chrome,1440,900,,,,,10,708,,,,,,,,,,,,,,,,,B,167,circle,1,0,,,,,,,,,,,,,,,,repeat,letter,lettRpt,d,0.2681,Hi,,,,,,0,,,,,,,,high,7,0,7,0,1,,,,,,,,,
295261,2022-11-15_20h17.54.746,vts_reward_expectancy_bt,2022.2.4,MacIntel,60.0024001,Chrome,1440,900,,,,,10,718,,,,,,,,,,,,,,,,,U,132,triangle,1,0,,,,,,,,,,,,,,,,switch,number,numSwt,j,0.4083,Hi,,,,,,0,,,,,,,,high,8,0,8,0,1,,,,,,,,,
295261,2022-11-15_20h17.54.746,vts_reward_expectancy_bt,2022.2.4,MacIntel,60.0024001,Chrome,1440,900,,,,,0,718,,,,,,,,,,,,,,,,,Y,160,hexagon,0,0,,,,,,,,,,,,,,,,switch,letter,NA,d,0.4551,Hi,,,,,,0,,,,,,,,high,9,0,9,0,1,,,,,,,,,
295261,2022-11-15_20h17.54.746,vts_reward_expectancy_bt,2022.2.4,MacIntel,60.0024001,Chrome,1440,900,,,,,1,719,,,,,,,,,,,,,,,,,S,146,star,1,1,,,,,,,,,,,,,,,,switch,number,numSwt,j,0.4554,Lo,,,,,,0,,,,,,,,high,10,0,10,0,1,,,,,,,,,
295261,2022-11-15_20h17.54.746,vts_reward_expectancy_bt,2022.2.4,MacIntel,60.0024001,Chrome,1440,900,,,,,1,720,,,,,,,,,,,,,,,,,D,181,circle,1,0,,,,,,,,,,,,,,,,switch,letter,lettSwt,d,0.5279,Hi,,,,,,0,,,,,,,,high,11,0,11,0,1,,,,,,,,,
295261,2022-11-15_20h17.54.746,vts_reward_expectancy_bt,2022.2.4,MacIntel,60.0024001,Chrome,1440,900,,,,,1,721,,,,,,,,,,,,,,,,,W,125,circle,1,0,,,,,,,,,,,,,,,,repeat,letter,lettRpt,f,0.5955,Hi,,,,,,0,,,,,,,,high,12,0,12,0,1,,,,,,,,,
295261,2022-11-15_20h17.54.746,vts_reward_expectancy_bt,2022.2.4,MacIntel,60.0024001,Chrome,1440,900,,,,,10,731,,,,,,,,,,,,,,,,,F,174,hexagon,1,0,,,,,,,,,,,,,,,,switch,number,numSwt,k,0.3681,Lo,,,,,,0,,,,,,,,high,13,0,13,0,1,,,,,,,,,
295261,2022-11-15_20h17.54.746,vts_reward_expectancy_bt,2022.2.4,MacIntel,60.0024001,Chrome,1440,900,,,,,10,741,,,,,,,,,,,,,,,,,H,139,triangle,1,0,,,,,,,,,,,,,,,,repeat,number,numRpt,j,0.5692,Hi,,,,,,0,,,,,,,,high,14,0,14,0,1,,,,,,,,,
295261,2022-11-15_20h17.54.746,vts_reward_expectancy_bt,2022.2.4,MacIntel,60.0024001,Chrome,1440,900,,,,,1,742,,,,,,,,,,,,,,,,,B,167,star,1,0,,,,,,,,,,,,,,,,switch,letter,lettSwt,d,0.5043,Lo,,,,,,0,,,,,,,,high,15,0,15,0,1,,,,,,,,,
295261,2022-11-15_20h17.54.746,vts_reward_expectancy_bt,2022.2.4,MacIntel,60.0024001,Chrome,1440,900,,,,,10,752,,,,,,,,,,,,,,,,,U,181,circle,1,0,,,,,,,,,,,,,,,,repeat,letter,lettRpt,f,0.6236,Hi,,,,,,0,,,,,,,,high,16,0,16,0,1,,,,,,,,,
295261,2022-11-15_20h17.54.746,vts_reward_expectancy_bt,2022.2.4,MacIntel,60.0024001,Chrome,1440,900,,,,,10,762,,,,,,,,,,,,,,,,,W,125,triangle,1,0,,,,,,,,,,,,,,,,switch,number,numSwt,j,0.5787,Hi,,,,,,0,,,,,,,,high,17,0,17,0,1,,,,,,,,,
295261,2022-11-15_20h17.54.746,vts_reward_expectancy_bt,2022.2.4,MacIntel,60.0024001,Chrome,1440,900,,,,,1,763,,,,,,,,,,,,,,,,,B,160,hexagon,1,0,,,,,,,,,,,,,,,,switch,letter,lettSwt,d,0.4846,Lo,,,,,,0,,,,,,,,high,18,0,18,0,1,,,,,,,,,
295261,2022-11-15_20h17.54.746,vts_reward_expectancy_bt,2022.2.4,MacIntel,60.0024001,Chrome,1440,900,,,,,10,773,,,,,,,,,,,,,,,,,F,139,star,1,0,,,,,,,,,,,,,,,,switch,number,numSwt,j,0.694,Lo,,,,,,0,,,,,,,,high,19,0,19,0,1,,,,,,,,,
295261,2022-11-15_20h17.54.746,vts_reward_expectancy_bt,2022.2.4,MacIntel,60.0024001,Chrome,1440,900,,,,,10,783,,,,,,,,,,,,,,,,,D,174,circle,1,0,,,,,,,,,,,,,,,,switch,letter,lettSwt,d,0.3796,Hi,,,,,,0,,,,,,,,high,20,0,20,0,1,,,,,,,,,
295261,2022-11-15_20h17.54.746,vts_reward_expectancy_bt,2022.2.4,MacIntel,60.0024001,Chrome,1440,900,,,,,10,793,,,,,,,,,,,,,,,,,H,132,star,1,0,,,,,,,,,,,,,,,,switch,number,numSwt,j,0.5642,Lo,,,,,,0,,,,,,,,high,21,0,21,0,1,,,,,,,,,
295261,2022-11-15_20h17.54.746,vts_reward_expectancy_bt,2022.2.4,MacIntel,60.0024001,Chrome,1440,900,,,,,10,803,,,,,,,,,,,,,,,,,Y,146,triangle,1,0,,,,,,,,,,,,,,,,repeat,number,numRpt,j,0.5184,Hi,,,,,,0,,,,,,,,high,22,0,22,0,1,,,,,,,,,
295261,2022-11-15_20h17.54.746,vts_reward_expectancy_bt,2022.2.4,MacIntel,60.0024001,Chrome,1440,900,,,,,0,803,,,,,,,,,,,,,,,,,S,167,hexagon,0,0,,,,,,,,,,,,,,,,switch,letter,NA,d,0.4769,Hi,,,,,,0,,,,,,,,high,23,0,23,0,1,,,,,,,,,
295261,2022-11-15_20h17.54.746,vts_reward_expectancy_bt,2022.2.4,MacIntel,60.0024001,Chrome,1440,900,,,,,1,804,,,,,,,,,,,,,,,,,F,146,star,1,1,,,,,,,,,,,,,,,,repeat,letter,lettRpt,d,0.5548,Lo,,,,,,0,,,,,,,,high,24,0,24,0,1,,,,,,,,,
295261,2022-11-15_20h17.54.746,vts_reward_expectancy_bt,2022.2.4,MacIntel,60.0024001,Chrome,1440,900,,,,,10,814,,,,,,,,,,,,,,,,,U,174,hexagon,1,0,,,,,,,,,,,,,,,,repeat,letter,lettRpt,f,0.5883,Lo,,,,,,0,,,,,,,,high,25,0,25,0,1,,,,,,,,,
295261,2022-11-15_20h17.54.746,vts_reward_expectancy_bt,2022.2.4,MacIntel,60.0024001,Chrome,1440,900,,,,,10,824,,,,,,,,,,,,,,,,,D,132,triangle,1,0,,,,,,,,,,,,,,,,repeat,letter,lettRpt,d,0.4966,Hi,,,,,,0,,,,,,,,high,26,0,26,0,1,,,,,,,,,
295261,2022-11-15_20h17.54.746,vts_reward_expectancy_bt,2022.2.4,MacIntel,60.0024001,Chrome,1440,900,,,,,1,825,,,,,,,,,,,,,,,,,B,139,circle,1,0,,,,,,,,,,,,,,,,repeat,letter,lettRpt,d,0.6477,Hi,,,,,,0,,,,,,,,high,27,0,27,0,1,,,,,,,,,
295261,2022-11-15_20h17.54.746,vts_reward_expectancy_bt,2022.2.4,MacIntel,60.0024001,Chrome,1440,900,,,,,1,826,,,,,,,,,,,,,,,,,S,181,circle,1,0,,,,,,,,,,,,,,,,switch,number,numSwt,k,0.5346,Hi,,,,,,0,,,,,,,,high,28,0,28,0,1,,,,,,,,,
295261,2022-11-15_20h17.54.746,vts_reward_expectancy_bt,2022.2.4,MacIntel,60.0024001,Chrome,1440,900,,,,,10,836,,,,,,,,,,,,,,,,,W,160,triangle,1,0,,,,,,,,,,,,,,,,repeat,number,numRpt,k,0.5851,Hi,,,,,,0,,,,,,,,high,29,0,29,0,1,,,,,,,,,
295261,2022-11-15_20h17.54.746,vts_reward_expectancy_bt,2022.2.4,MacIntel,60.0024001,Chrome,1440,900,,,,,1,837,,,,,,,,,,,,,,,,,Y,125,star,1,0,,,,,,,,,,,,,,,,switch,letter,lettSwt,f,0.5449,Lo,,,,,,0,,,,,,,,high,30,0,30,0,1,,,,,,,,,
295261,2022-11-15_20h17.54.746,vts_reward_expectancy_bt,2022.2.4,MacIntel,60.0024001,Chrome,1440,900,,,,,1,838,,,,,,,,,,,,,,,,,H,167,hexagon,1,0,,,,,,,,,,,,,,,,repeat,letter,lettRpt,d,0.8215,Lo,,,,,,0,,,,,,,,high,31,0,31,0,1,,,,,,,,,
295261,2022-11-15_20h17.54.746,vts_reward_expectancy_bt,2022.2.4,MacIntel,60.0024001,Chrome,1440,900,,,,,0,838,,,,,,,,,,,,,,,,,H,132,circle,0,0,,,,,,,,,,,,,,,,switch,number,NA,k,0.529,Lo,,,,,,1,,,,,,space,2.2267,high,0,0,0,0,1,,,,,,,,,
295261,2022-11-15_20h17.54.746,vts_reward_expectancy_bt,2022.2.4,MacIntel,60.0024001,Chrome,1440,900,,,,,1,839,,,,,,,,,,,,,,,,,B,139,hexagon,1,1,,,,,,,,,,,,,,,,repeat,number,numRpt,j,0.6195,Lo,,,,,,1,,,,,,,,high,1,0,1,0,1,,,,,,,,,
295261,2022-11-15_20h17.54.746,vts_reward_expectancy_bt,2022.2.4,MacIntel,60.0024001,Chrome,1440,900,,,,,1,840,,,,,,,,,,,,,,,,,U,125,star,1,0,,,,,,,,,,,,,,,,repeat,number,numRpt,j,0.6264,Lo,,,,,,1,,,,,,,,high,2,0,2,0,1,,,,,,,,,
295261,2022-11-15_20h17.54.746,vts_reward_expectancy_bt,2022.2.4,MacIntel,60.0024001,Chrome,1440,900,,,,,0,840,,,,,,,,,,,,,,,,,F,181,triangle,1,0,,,,,,,,,,,,,,,,switch,letter,lettSwt,d,0.6435,Hi,,,,,,1,,,,,,,,high,3,0,3,0,1,,,,,,,,,
295261,2022-11-15_20h17.54.746,vts_reward_expectancy_bt,2022.2.4,MacIntel,60.0024001,Chrome,1440,900,,,,,10,850,,,,,,,,,,,,,,,,,Y,167,circle,1,0,,,,,,,,,,,,,,,,repeat,letter,lettRpt,f,0.481,Hi,,,,,,1,,,,,,,,high,4,0,4,0,1,,,,,,,,,
295261,2022-11-15_20h17.54.746,vts_reward_expectancy_bt,2022.2.4,MacIntel,60.0024001,Chrome,1440,900,,,,,1,851,,,,,,,,,,,,,,,,,D,146,hexagon,1,0,,,,,,,,,,,,,,,,repeat,letter,lettRpt,d,0.4696,Lo,,,,,,1,,,,,,,,high,5,0,5,0,1,,,,,,,,,
295261,2022-11-15_20h17.54.746,vts_reward_expectancy_bt,2022.2.4,MacIntel,60.0024001,Chrome,1440,900,,,,,1,852,,,,,,,,,,,,,,,,,S,174,star,1,0,,,,,,,,,,,,,,,,switch,number,numSwt,k,0.5565,Lo,,,,,,1,,,,,,,,high,6,0,6,0,1,,,,,,,,,
295261,2022-11-15_20h17.54.746,vts_reward_expectancy_bt,2022.2.4,MacIntel,60.0024001,Chrome,1440,900,,,,,0,852,,,,,,,,,,,,,,,,,W,160,triangle,1,0,,,,,,,,,,,,,,,,repeat,number,numRpt,k,0.5781,Hi,,,,,,1,,,,,,,,high,7,0,7,0,1,,,,,,,,,
295261,2022-11-15_20h17.54.746,vts_reward_expectancy_bt,2022.2.4,MacIntel,60.0024001,Chrome,1440,900,,,,,10,862,,,,,,,,,,,,,,,,,H,132,circle,1,0,,,,,,,,,,,,,,,,switch,letter,lettSwt,d,0.4319,Hi,,,,,,1,,,,,,,,high,8,0,8,0,1,,,,,,,,,
295261,2022-11-15_20h17.54.746,vts_reward_expectancy_bt,2022.2.4,MacIntel,60.0024001,Chrome,1440,900,,,,,1,863,,,,,,,,,,,,,,,,,B,139,star,1,0,,,,,,,,,,,,,,,,repeat,letter,lettRpt,d,0.3761,Lo,,,,,,1,,,,,,,,high,9,0,9,0,1,,,,,,,,,
295261,2022-11-15_20h17.54.746,vts_reward_expectancy_bt,2022.2.4,MacIntel,60.0024001,Chrome,1440,900,,,,,10,873,,,,,,,,,,,,,,,,,U,125,triangle,1,0,,,,,,,,,,,,,,,,repeat,letter,lettRpt,f,0.5204,Hi,,,,,,1,,,,,,,,high,10,0,10,0,1,,,,,,,,,
295261,2022-11-15_20h17.54.746,vts_reward_expectancy_bt,2022.2.4,MacIntel,60.0024001,Chrome,1440,900,,,,,10,883,,,,,,,,,,,,,,,,,F,181,hexagon,1,0,,,,,,,,,,,,,,,,switch,number,numSwt,k,0.5128,Lo,,,,,,1,,,,,,,,high,11,0,11,0,1,,,,,,,,,
295261,2022-11-15_20h17.54.746,vts_reward_expectancy_bt,2022.2.4,MacIntel,60.0024001,Chrome,1440,900,,,,,1,884,,,,,,,,,,,,,,,,,Y,167,hexagon,1,0,,,,,,,,,,,,,,,,repeat,number,numRpt,k,0.4602,Lo,,,,,,1,,,,,,,,high,12,0,12,0,1,,,,,,,,,
295261,2022-11-15_20h17.54.746,vts_reward_expectancy_bt,2022.2.4,MacIntel,60.0024001,Chrome,1440,900,,,,,1,885,,,,,,,,,,,,,,,,,D,146,star,1,0,,,,,,,,,,,,,,,,switch,letter,lettSwt,d,0.4317,Lo,,,,,,1,,,,,,,,high,13,0,13,0,1,,,,,,,,,
295261,2022-11-15_20h17.54.746,vts_reward_expectancy_bt,2022.2.4,MacIntel,60.0024001,Chrome,1440,900,,,,,10,895,,,,,,,,,,,,,,,,,S,174,triangle,1,0,,,,,,,,,,,,,,,,switch,number,numSwt,k,0.4953,Hi,,,,,,1,,,,,,,,high,14,0,14,0,1,,,,,,,,,
295261,2022-11-15_20h17.54.746,vts_reward_expectancy_bt,2022.2.4,MacIntel,60.0024001,Chrome,1440,900,,,,,10,905,,,,,,,,,,,,,,,,,W,160,circle,1,0,,,,,,,,,,,,,,,,repeat,number,numRpt,k,0.4809,Hi,,,,,,1,,,,,,,,high,15,0,15,0,1,,,,,,,,,
295261,2022-11-15_20h17.54.746,vts_reward_expectancy_bt,2022.2.4,MacIntel,60.0024001,Chrome,1440,900,,,,,1,906,,,,,,,,,,,,,,,,,H,174,star,1,0,,,,,,,,,,,,,,,,repeat,number,numRpt,k,0.461,Lo,,,,,,1,,,,,,,,high,16,0,16,0,1,,,,,,,,,
295261,2022-11-15_20h17.54.746,vts_reward_expectancy_bt,2022.2.4,MacIntel,60.0024001,Chrome,1440,900,,,,,10,916,,,,,,,,,,,,,,,,,Y,139,circle,1,0,,,,,,,,,,,,,,,,switch,letter,lettSwt,f,0.4779,Hi,,,,,,1,,,,,,,,high,17,0,17,0,1,,,,,,,,,
295261,2022-11-15_20h17.54.746,vts_reward_expectancy_bt,2022.2.4,MacIntel,60.0024001,Chrome,1440,900,,,,,0,916,,,,,,,,,,,,,,,,,S,146,triangle,1,0,,,,,,,,,,,,,,,,switch,number,numSwt,j,0.5294,Hi,,,,,,1,,,,,,,,high,18,0,18,0,1,,,,,,,,,
295261,2022-11-15_20h17.54.746,vts_reward_expectancy_bt,2022.2.4,MacIntel,60.0024001,Chrome,1440,900,,,,,10,926,,,,,,,,,,,,,,,,,D,125,hexagon,1,0,,,,,,,,,,,,,,,,repeat,number,numRpt,j,0.5297,Lo,,,,,,1,,,,,,,,high,19,0,19,0,1,,,,,,,,,
295261,2022-11-15_20h17.54.746,vts_reward_expectancy_bt,2022.2.4,MacIntel,60.0024001,Chrome,1440,900,,,,,1,927,,,,,,,,,,,,,,,,,F,132,star,1,0,,,,,,,,,,,,,,,,switch,letter,lettSwt,d,0.569,Lo,,,,,,1,,,,,,,,high,20,0,20,0,1,,,,,,,,,
295261,2022-11-15_20h17.54.746,vts_reward_expectancy_bt,2022.2.4,MacIntel,60.0024001,Chrome,1440,900,,,,,1,928,,,,,,,,,,,,,,,,,W,167,hexagon,1,0,,,,,,,,,,,,,,,,repeat,letter,lettRpt,f,0.5133,Lo,,,,,,1,,,,,,,,high,21,0,21,0,1,,,,,,,,,
295261,2022-11-15_20h17.54.746,vts_reward_expectancy_bt,2022.2.4,MacIntel,60.0024001,Chrome,1440,900,,,,,0,928,,,,,,,,,,,,,,,,,U,160,triangle,1,0,,,,,,,,,,,,,,,,switch,number,numSwt,k,0.5634,Hi,,,,,,1,,,,,,,,high,22,0,22,0,1,,,,,,,,,
295261,2022-11-15_20h17.54.746,vts_reward_expectancy_bt,2022.2.4,MacIntel,60.0024001,Chrome,1440,900,,,,,10,938,,,,,,,,,,,,,,,,,B,181,circle,1,0,,,,,,,,,,,,,,,,repeat,number,numRpt,k,0.5261,Hi,,,,,,1,,,,,,,,high,23,0,23,0,1,,,,,,,,,
295261,2022-11-15_20h17.54.746,vts_reward_expectancy_bt,2022.2.4,MacIntel,60.0024001,Chrome,1440,900,,,,,1,939,,,,,,,,,,,,,,,,,Y,125,star,1,0,,,,,,,,,,,,,,,,repeat,number,numRpt,j,0.5182,Lo,,,,,,1,,,,,,,,high,24,0,24,0,1,,,,,,,,,
295261,2022-11-15_20h17.54.746,vts_reward_expectancy_bt,2022.2.4,MacIntel,60.0024001,Chrome,1440,900,,,,,0,939,,,,,,,,,,,,,,,,,U,167,triangle,0,0,,,,,,,,,,,,,,,,repeat,number,NA,j,0.4338,Lo,,,,,,1,,,,,,,,high,25,0,25,0,1,,,,,,,,,
295261,2022-11-15_20h17.54.746,vts_reward_expectancy_bt,2022.2.4,MacIntel,60.0024001,Chrome,1440,900,,,,,1,940,,,,,,,,,,,,,,,,,D,139,hexagon,1,1,,,,,,,,,,,,,,,,repeat,number,numRpt,j,0.5923,Lo,,,,,,1,,,,,,,,high,26,0,26,0,1,,,,,,,,,
295261,2022-11-15_20h17.54.746,vts_reward_expectancy_bt,2022.2.4,MacIntel,60.0024001,Chrome,1440,900,,,,,1,941,,,,,,,,,,,,,,,,,B,181,circle,1,0,,,,,,,,,,,,,,,,switch,letter,lettSwt,d,0.4837,Hi,,,,,,1,,,,,,,,high,27,0,27,0,1,,,,,,,,,
295261,2022-11-15_20h17.54.746,vts_reward_expectancy_bt,2022.2.4,MacIntel,60.0024001,Chrome,1440,900,,,,,10,951,,,,,,,,,,,,,,,,,H,146,triangle,1,0,,,,,,,,,,,,,,,,repeat,letter,lettRpt,d,0.5541,Hi,,,,,,1,,,,,,,,high,28,0,28,0,1,,,,,,,,,
295261,2022-11-15_20h17.54.746,vts_reward_expectancy_bt,2022.2.4,MacIntel,60.0024001,Chrome,1440,900,,,,,0,951,,,,,,,,,,,,,,,,,S,132,circle,1,0,,,,,,,,,,,,,,,,switch,number,numSwt,j,0.5589,Hi,,,,,,1,,,,,,,,high,29,0,29,0,1,,,,,,,,,
295261,2022-11-15_20h17.54.746,vts_reward_expectancy_bt,2022.2.4,MacIntel,60.0024001,Chrome,1440,900,,,,,0,951,,,,,,,,,,,,,,,,,F,160,star,0,0,,,,,,,,,,,,,,,,repeat,number,NA,j,0.4318,Hi,,,,,,1,,,,,,,,high,30,0,30,0,1,,,,,,,,,
295261,2022-11-15_20h17.54.746,vts_reward_expectancy_bt,2022.2.4,MacIntel,60.0024001,Chrome,1440,900,,,,,10,961,,,,,,,,,,,,,,,,,W,174,hexagon,1,1,,,,,,,,,,,,,,,,repeat,number,numRpt,k,0.4591,Lo,,,,,,1,,,,,,,,high,31,0,31,0,1,,,,,,,,,
295261,2022-11-15_20h17.54.746,vts_reward_expectancy_bt,2022.2.4,MacIntel,60.0024001,Chrome,1440,900,,,,,10,971,,,,,,,,,,,,,,,,,H,125,star,1,0,,,,,,,,,,,,,,,,repeat,number,numRpt,j,0.6124,Lo,,,,,,2,,,,,,space,1.3165,high,0,0,0,0,1,,,,,,,,,
295261,2022-11-15_20h17.54.746,vts_reward_expectancy_bt,2022.2.4,MacIntel,60.0024001,Chrome,1440,900,,,,,0,971,,,,,,,,,,,,,,,,,W,167,circle,1,0,,,,,,,,,,,,,,,,switch,letter,lettSwt,f,0.5617,Hi,,,,,,2,,,,,,,,high,1,0,1,0,1,,,,,,,,,
295261,2022-11-15_20h17.54.746,vts_reward_expectancy_bt,2022.2.4,MacIntel,60.0024001,Chrome,1440,900,,,,,1,972,,,,,,,,,,,,,,,,,S,139,hexagon,1,0,,,,,,,,,,,,,,,,repeat,letter,lettRpt,f,0.5257,Lo,,,,,,2,,,,,,,,high,2,0,2,0,1,,,,,,,,,
295261,2022-11-15_20h17.54.746,vts_reward_expectancy_bt,2022.2.4,MacIntel,60.0024001,Chrome,1440,900,,,,,0,972,,,,,,,,,,,,,,,,,B,146,triangle,1,0,,,,,,,,,,,,,,,,switch,number,numSwt,j,0.5566,Hi,,,,,,2,,,,,,,,high,3,0,3,0,1,,,,,,,,,
295261,2022-11-15_20h17.54.746,vts_reward_expectancy_bt,2022.2.4,MacIntel,60.0024001,Chrome,1440,900,,,,,1,973,,,,,,,,,,,,,,,,,D,181,star,1,0,,,,,,,,,,,,,,,,repeat,number,numRpt,k,0.5219,Lo,,,,,,2,,,,,,,,high,4,0,4,0,1,,,,,,,,,
295261,2022-11-15_20h17.54.746,vts_reward_expectancy_bt,2022.2.4,MacIntel,60.0024001,Chrome,1440,900,,,,,0,973,,,,,,,,,,,,,,,,,Y,174,circle,0,0,,,,,,,,,,,,,,,,switch,letter,NA,d,0.3852,Lo,,,,,,2,,,,,,,,high,5,0,5,0,1,,,,,,,,,
295261,2022-11-15_20h17.54.746,vts_reward_expectancy_bt,2022.2.4,MacIntel,60.0024001,Chrome,1440,900,,,,,0,973,,,,,,,,,,,,,,,,,F,160,hexagon,0,1,,,,,,,,,,,,,,,,repeat,letter,NA,f,0.4948,Lo,,,,,,2,,,,,,,,high,6,0,6,0,1,,,,,,,,,
295261,2022-11-15_20h17.54.746,vts_reward_expectancy_bt,2022.2.4,MacIntel,60.0024001,Chrome,1440,900,,,,,0,973,,,,,,,,,,,,,,,,,U,132,triangle,1,1,,,,,,,,,,,,,,,,repeat,letter,lettRpt,f,0.4941,Hi,,,,,,2,,,,,,,,high,7,0,7,0,1,,,,,,,,,
295261,2022-11-15_20h17.54.746,vts_reward_expectancy_bt,2022.2.4,MacIntel,60.0024001,Chrome,1440,900,,,,,1,974,,,,,,,,,,,,,,,,,H,125,hexagon,1,0,,,,,,,,,,,,,,,,switch,number,numSwt,j,0.3887,Lo,,,,,,2,,,,,,,,high,8,0,8,0,1,,,,,,,,,
295261,2022-11-15_20h17.54.746,vts_reward_expectancy_bt,2022.2.4,MacIntel,60.0024001,Chrome,1440,900,,,,,10,984,,,,,,,,,,,,,,,,,W,167,triangle,1,0,,,,,,,,,,,,,,,,switch,letter,lettSwt,f,0.4108,Hi,,,,,,2,,,,,,,,high,9,0,9,0,1,,,,,,,,,
295261,2022-11-15_20h17.54.746,vts_reward_expectancy_bt,2022.2.4,MacIntel,60.0024001,Chrome,1440,900,,,,,0,984,,,,,,,,,,,,,,,,,S,139,circle,1,0,,,,,,,,,,,,,,,,repeat,letter,lettRpt,f,0.6522,Hi,,,,,,2,,,,,,,,high,10,0,10,0,1,,,,,,,,,
295261,2022-11-15_20h17.54.746,vts_reward_expectancy_bt,2022.2.4,MacIntel,60.0024001,Chrome,1440,900,,,,,1,985,,,,,,,,,,,,,,,,,B,146,star,1,0,,,,,,,,,,,,,,,,repeat,letter,lettRpt,d,0.4884,Lo,,,,,,2,,,,,,,,high,11,0,11,0,1,,,,,,,,,
295261,2022-11-15_20h17.54.746,vts_reward_expectancy_bt,2022.2.4,MacIntel,60.0024001,Chrome,1440,900,,,,,0,985,,,,,,,,,,,,,,,,,D,181,triangle,1,0,,,,,,,,,,,,,,,,switch,number,numSwt,k,0.529,Hi,,,,,,2,,,,,,,,high,12,0,12,0,1,,,,,,,,,
295261,2022-11-15_20h17.54.746,vts_reward_expectancy_bt,2022.2.4,MacIntel,60.0024001,Chrome,1440,900,,,,,1,986,,,,,,,,,,,,,,,,,Y,174,hexagon,1,0,,,,,,,,,,,,,,,,repeat,number,numRpt,k,0.4575,Lo,,,,,,2,,,,,,,,high,13,0,13,0,1,,,,,,,,,
295261,2022-11-15_20h17.54.746,vts_reward_expectancy_bt,2022.2.4,MacIntel,60.0024001,Chrome,1440,900,,,,,10,996,,,,,,,,,,,,,,,,,F,160,circle,1,0,,,,,,,,,,,,,,,,switch,letter,lettSwt,d,0.4369,Hi,,,,,,2,,,,,,,,high,14,0,14,0,1,,,,,,,,,
295261,2022-11-15_20h17.54.746,vts_reward_expectancy_bt,2022.2.4,MacIntel,60.0024001,Chrome,1440,900,,,,,0,996,,,,,,,,,,,,,,,,,U,132,star,0,0,,,,,,,,,,,,,,,,switch,number,NA,k,0.4986,Hi,,,,,,2,,,,,,,,high,15,0,15,0,1,,,,,,,,,
295261,2022-11-15_20h17.54.746,vts_reward_expectancy_bt,2022.2.4,MacIntel,60.0024001,Chrome,1440,900,,,,,0,996,,,,,,,,,,,,,,,,,B,160,triangle,1,1,,,,,,,,,,,,,,,,repeat,number,numRpt,k,0.5367,Hi,,,,,,2,,,,,,,,high,16,0,16,0,1,,,,,,,,,
295261,2022-11-15_20h17.54.746,vts_reward_expectancy_bt,2022.2.4,MacIntel,60.0024001,Chrome,1440,900,,,,,1,997,,,,,,,,,,,,,,,,,H,167,star,1,0,,,,,,,,,,,,,,,,repeat,number,numRpt,k,0.5796,Lo,,,,,,2,,,,,,,,high,17,0,17,0,1,,,,,,,,,
295261,2022-11-15_20h17.54.746,vts_reward_expectancy_bt,2022.2.4,MacIntel,60.0024001,Chrome,1440,900,,,,,10,1007,,,,,,,,,,,,,,,,,W,139,circle,1,0,,,,,,,,,,,,,,,,switch,letter,lettSwt,f,0.4469,Hi,,,,,,2,,,,,,,,high,18,0,18,0,1,,,,,,,,,
295261,2022-11-15_20h17.54.746,vts_reward_expectancy_bt,2022.2.4,MacIntel,60.0024001,Chrome,1440,900,,,,,1,1008,,,,,,,,,,,,,,,,,Y,125,hexagon,1,0,,,,,,,,,,,,,,,,switch,number,numSwt,j,0.4883,Lo,,,,,,2,,,,,,,,high,19,0,19,0,1,,,,,,,,,
295261,2022-11-15_20h17.54.746,vts_reward_expectancy_bt,2022.2.4,MacIntel,60.0024001,Chrome,1440,900,,,,,0,1008,,,,,,,,,,,,,,,,,D,132,circle,1,0,,,,,,,,,,,,,,,,switch,letter,lettSwt,d,0.5181,Hi,,,,,,2,,,,,,,,high,20,0,20,0,1,,,,,,,,,
295261,2022-11-15_20h17.54.746,vts_reward_expectancy_bt,2022.2.4,MacIntel,60.0024001,Chrome,1440,900,,,,,1,1009,,,,,,,,,,,,,,,,,U,181,star,1,0,,,,,,,,,,,,,,,,repeat,letter,lettRpt,f,0.4771,Lo,,,,,,2,,,,,,,,high,21,0,21,0,1,,,,,,,,,
295261,2022-11-15_20h17.54.746,vts_reward_expectancy_bt,2022.2.4,MacIntel,60.0024001,Chrome,1440,900,,,,,1,1010,,,,,,,,,,,,,,,,,S,174,hexagon,1,0,,,,,,,,,,,,,,,,repeat,letter,lettRpt,f,0.5949,Lo,,,,,,2,,,,,,,,high,22,0,22,0,1,,,,,,,,,
295261,2022-11-15_20h17.54.746,vts_reward_expectancy_bt,2022.2.4,MacIntel,60.0024001,Chrome,1440,900,,,,,0,1010,,,,,,,,,,,,,,,,,F,146,triangle,1,0,,,,,,,,,,,,,,,,switch,number,numSwt,j,0.5426,Hi,,,,,,2,,,,,,,,high,23,0,23,0,1,,,,,,,,,
295261,2022-11-15_20h17.54.746,vts_reward_expectancy_bt,2022.2.4,MacIntel,60.0024001,Chrome,1440,900,,,,,10,1020,,,,,,,,,,,,,,,,,S,181,hexagon,1,0,,,,,,,,,,,,,,,,repeat,number,numRpt,k,0.4137,Lo,,,,,,2,,,,,,,,high,24,0,24,0,1,,,,,,,,,
295261,2022-11-15_20h17.54.746,vts_reward_expectancy_bt,2022.2.4,MacIntel,60.0024001,Chrome,1440,900,,,,,0,1020,,,,,,,,,,,,,,,,,F,146,triangle,1,0,,,,,,,,,,,,,,,,switch,letter,lettSwt,d,0.5622,Hi,,,,,,2,,,,,,,,high,25,0,25,0,1,,,,,,,,,
295261,2022-11-15_20h17.54.746,vts_reward_expectancy_bt,2022.2.4,MacIntel,60.0024001,Chrome,1440,900,,,,,1,1021,,,,,,,,,,,,,,,,,H,125,star,1,0,,,,,,,,,,,,,,,,repeat,letter,lettRpt,d,0.592,Lo,,,,,,2,,,,,,,,high,26,0,26,0,1,,,,,,,,,
295261,2022-11-15_20h17.54.746,vts_reward_expectancy_bt,2022.2.4,MacIntel,60.0024001,Chrome,1440,900,,,,,1,1022,,,,,,,,,,,,,,,,,W,139,circle,1,0,,,,,,,,,,,,,,,,switch,number,numSwt,j,0.3911,Hi,,,,,,2,,,,,,,,high,27,0,27,0,1,,,,,,,,,
295261,2022-11-15_20h17.54.746,vts_reward_expectancy_bt,2022.2.4,MacIntel,60.0024001,Chrome,1440,900,,,,,1,1023,,,,,,,,,,,,,,,,,U,160,triangle,1,0,,,,,,,,,,,,,,,,switch,letter,lettSwt,f,0.4299,Hi,,,,,,2,,,,,,,,high,28,0,28,0,1,,,,,,,,,
295261,2022-11-15_20h17.54.746,vts_reward_expectancy_bt,2022.2.4,MacIntel,60.0024001,Chrome,1440,900,,,,,10,1033,,,,,,,,,,,,,,,,,B,132,circle,1,0,,,,,,,,,,,,,,,,repeat,letter,lettRpt,d,0.3739,Hi,,,,,,2,,,,,,,,high,29,0,29,0,1,,,,,,,,,
295261,2022-11-15_20h17.54.746,vts_reward_expectancy_bt,2022.2.4,MacIntel,60.0024001,Chrome,1440,900,,,,,0,1033,,,,,,,,,,,,,,,,,Y,167,hexagon,0,0,,,,,,,,,,,,,,,,switch,number,NA,j,0.4159,Hi,,,,,,2,,,,,,,,high,30,0,30,0,1,,,,,,,,,
295261,2022-11-15_20h17.54.746,vts_reward_expectancy_bt,2022.2.4,MacIntel,60.0024001,Chrome,1440,900,,,,,1,1034,,,,,,,,,,,,,,,,,D,174,star,1,1,,,,,,,,,,,,,,,,switch,letter,lettSwt,d,0.4403,Lo,,,,,,2,,,,,,,,high,31,0,31,0,1,,,,,,,,,
295261,2022-11-15_20h17.54.746,vts_reward_expectancy_bt,2022.2.4,MacIntel,60.0024001,Chrome,1440,900,,,,,1,1035,,,,,,,,,,,,,,,,,W,167,star,1,0,,,,,,,,,,,,,,,,switch,number,numSwt,k,0.465,Lo,,,,,,3,,,,,,space,1.6665,high,0,0,0,0,1,,,,,,,,,
295261,2022-11-15_20h17.54.746,vts_reward_expectancy_bt,2022.2.4,MacIntel,60.0024001,Chrome,1440,900,,,,,1,1036,,,,,,,,,,,,,,,,,B,160,hexagon,1,0,,,,,,,,,,,,,,,,switch,letter,lettSwt,d,0.3932,Lo,,,,,,3,,,,,,,,high,1,0,1,0,1,,,,,,,,,
295261,2022-11-15_20h17.54.746,vts_reward_expectancy_bt,2022.2.4,MacIntel,60.0024001,Chrome,1440,900,,,,,0,1036,,,,,,,,,,,,,,,,,H,132,circle,1,0,,,,,,,,,,,,,,,,repeat,letter,lettRpt,d,0.5304,Hi,,,,,,3,,,,,,,,high,2,0,2,0,1,,,,,,,,,
295261,2022-11-15_20h17.54.746,vts_reward_expectancy_bt,2022.2.4,MacIntel,60.0024001,Chrome,1440,900,,,,,1,1037,,,,,,,,,,,,,,,,,U,174,triangle,1,0,,,,,,,,,,,,,,,,switch,number,numSwt,k,0.3982,Hi,,,,,,3,,,,,,,,high,3,0,3,0,1,,,,,,,,,
295261,2022-11-15_20h17.54.746,vts_reward_expectancy_bt,2022.2.4,MacIntel,60.0024001,Chrome,1440,900,,,,,1,1038,,,,,,,,,,,,,,,,,F,139,star,1,0,,,,,,,,,,,,,,,,repeat,number,numRpt,j,0.3486,Lo,,,,,,3,,,,,,,,high,4,0,4,0,1,,,,,,,,,
295261,2022-11-15_20h17.54.746,vts_reward_expectancy_bt,2022.2.4,MacIntel,60.0024001,Chrome,1440,900,,,,,1,1039,,,,,,,,,,,,,,,,,D,125,hexagon,1,0,,,,,,,,,,,,,,,,switch,letter,lettSwt,d,0.3238,Lo,,,,,,3,,,,,,,,high,5,0,5,0,1,,,,,,,,,
295261,2022-11-15_20h17.54.746,vts_reward_expectancy_bt,2022.2.4,MacIntel,60.0024001,Chrome,1440,900,,,,,1,1040,,,,,,,,,,,,,,,,,Y,181,circle,1,0,,,,,,,,,,,,,,,,repeat,letter,lettRpt,f,0.4529,Hi,,,,,,3,,,,,,,,high,6,0,6,0,1,,,,,,,,,
295261,2022-11-15_20h17.54.746,vts_reward_expectancy_bt,2022.2.4,MacIntel,60.0024001,Chrome,1440,900,,,,,0,1040,,,,,,,,,,,,,,,,,S,146,triangle,1,0,,,,,,,,,,,,,,,,switch,number,numSwt,j,0.5305,Hi,,,,,,3,,,,,,,,high,7,0,7,0,1,,,,,,,,,
295261,2022-11-15_20h17.54.746,vts_reward_expectancy_bt,2022.2.4,MacIntel,60.0024001,Chrome,1440,900,,,,,10,1050,,,,,,,,,,,,,,,,,W,167,triangle,1,0,,,,,,,,,,,,,,,,repeat,number,numRpt,k,0.3981,Hi,,,,,,3,,,,,,,,high,8,0,8,0,1,,,,,,,,,
295261,2022-11-15_20h17.54.746,vts_reward_expectancy_bt,2022.2.4,MacIntel,60.0024001,Chrome,1440,900,,,,,10,1060,,,,,,,,,,,,,,,,,B,160,circle,1,0,,,,,,,,,,,,,,,,repeat,number,numRpt,k,0.4281,Hi,,,,,,3,,,,,,,,high,9,0,9,0,1,,,,,,,,,
295261,2022-11-15_20h17.54.746,vts_reward_expectancy_bt,2022.2.4,MacIntel,60.0024001,Chrome,1440,900,,,,,1,1061,,,,,,,,,,,,,,,,,H,132,hexagon,1,0,,,,,,,,,,,,,,,,switch,letter,lettSwt,d,0.4598,Lo,,,,,,3,,,,,,,,high,10,0,10,0,1,,,,,,,,,
295261,2022-11-15_20h17.54.746,vts_reward_expectancy_bt,2022.2.4,MacIntel,60.0024001,Chrome,1440,900,,,,,1,1062,,,,,,,,,,,,,,,,,U,174,star,1,0,,,,,,,,,,,,,,,,switch,number,numSwt,k,0.4475,Lo,,,,,,3,,,,,,,,high,11,0,11,0,1,,,,,,,,,
295261,2022-11-15_20h17.54.746,vts_reward_expectancy_bt,2022.2.4,MacIntel,60.0024001,Chrome,1440,900,,,,,10,1072,,,,,,,,,,,,,,,,,F,139,circle,1,0,,,,,,,,,,,,,,,,repeat,number,numRpt,j,0.28,Hi,,,,,,3,,,,,,,,high,12,0,12,0,1,,,,,,,,,
295261,2022-11-15_20h17.54.746,vts_reward_expectancy_bt,2022.2.4,MacIntel,60.0024001,Chrome,1440,900,,,,,1,1073,,,,,,,,,,,,,,,,,D,125,hexagon,1,0,,,,,,,,,,,,,,,,repeat,number,numRpt,j,0.4199,Lo,,,,,,3,,,,,,,,high,13,0,13,0,1,,,,,,,,,
295261,2022-11-15_20h17.54.746,vts_reward_expectancy_bt,2022.2.4,MacIntel,60.0024001,Chrome,1440,900,,,,,10,1083,,,,,,,,,,,,,,,,,Y,181,triangle,1,0,,,,,,,,,,,,,,,,switch,letter,lettSwt,f,0.4117,Hi,,,,,,3,,,,,,,,high,14,0,14,0,1,,,,,,,,,
295261,2022-11-15_20h17.54.746,vts_reward_expectancy_bt,2022.2.4,MacIntel,60.0024001,Chrome,1440,900,,,,,1,1084,,,,,,,,,,,,,,,,,S,146,star,1,0,,,,,,,,,,,,,,,,switch,number,numSwt,j,0.4153,Lo,,,,,,3,,,,,,,,high,15,0,15,0,1,,,,,,,,,
295261,2022-11-15_20h17.54.746,vts_reward_expectancy_bt,2022.2.4,MacIntel,60.0024001,Chrome,1440,900,,,,,0,1084,,,,,,,,,,,,,,,,,W,174,triangle,1,0,,,,,,,,,,,,,,,,switch,letter,lettSwt,f,0.4674,Hi,,,,,,3,,,,,,,,high,16,0,16,0,1,,,,,,,,,
295261,2022-11-15_20h17.54.746,vts_reward_expectancy_bt,2022.2.4,MacIntel,60.0024001,Chrome,1440,900,,,,,1,1085,,,,,,,,,,,,,,,,,Y,167,hexagon,1,0,,,,,,,,,,,,,,,,switch,number,numSwt,k,0.4272,Lo,,,,,,3,,,,,,,,high,17,0,17,0,1,,,,,,,,,
295261,2022-11-15_20h17.54.746,vts_reward_expectancy_bt,2022.2.4,MacIntel,60.0024001,Chrome,1440,900,,,,,10,1095,,,,,,,,,,,,,,,,,U,125,star,1,0,,,,,,,,,,,,,,,,switch,letter,lettSwt,f,0.4941,Lo,,,,,,3,,,,,,,,high,18,0,18,0,1,,,,,,,,,
295261,2022-11-15_20h17.54.746,vts_reward_expectancy_bt,2022.2.4,MacIntel,60.0024001,Chrome,1440,900,,,,,0,1095,,,,,,,,,,,,,,,,,H,146,circle,1,0,,,,,,,,,,,,,,,,repeat,letter,lettRpt,d,0.5659,Hi,,,,,,3,,,,,,,,high,19,0,19,0,1,,,,,,,,,
295261,2022-11-15_20h17.54.746,vts_reward_expectancy_bt,2022.2.4,MacIntel,60.0024001,Chrome,1440,900,,,,,1,1096,,,,,,,,,,,,,,,,,F,160,hexagon,1,0,,,,,,,,,,,,,,,,switch,number,numSwt,k,0.8634,Lo,,,,,,3,,,,,,,,high,20,0,20,0,1,,,,,,,,,
295261,2022-11-15_20h17.54.746,vts_reward_expectancy_bt,2022.2.4,MacIntel,60.0024001,Chrome,1440,900,,,,,0,1096,,,,,,,,,,,,,,,,,D,181,triangle,1,0,,,,,,,,,,,,,,,,switch,letter,lettSwt,d,0.5925,Hi,,,,,,3,,,,,,,,high,21,0,21,0,1,,,,,,,,,
295261,2022-11-15_20h17.54.746,vts_reward_expectancy_bt,2022.2.4,MacIntel,60.0024001,Chrome,1440,900,,,,,1,1097,,,,,,,,,,,,,,,,,S,132,star,1,0,,,,,,,,,,,,,,,,repeat,letter,lettRpt,f,0.5942,Lo,,,,,,3,,,,,,,,high,22,0,22,0,1,,,,,,,,,
295261,2022-11-15_20h17.54.746,vts_reward_expectancy_bt,2022.2.4,MacIntel,60.0024001,Chrome,1440,900,,,,,0,1097,,,,,,,,,,,,,,,,,B,139,circle,1,0,,,,,,,,,,,,,,,,switch,number,numSwt,j,0.685,Hi,,,,,,3,,,,,,,,high,23,0,23,0,1,,,,,,,,,
295261,2022-11-15_20h17.54.746,vts_reward_expectancy_bt,2022.2.4,MacIntel,60.0024001,Chrome,1440,900,,,,,10,1107,,,,,,,,,,,,,,,,,D,167,circle,1,0,,,,,,,,,,,,,,,,repeat,number,numRpt,k,0.4149,Hi,,,,,,3,,,,,,,,high,24,0,24,0,1,,,,,,,,,
295261,2022-11-15_20h17.54.746,vts_reward_expectancy_bt,2022.2.4,MacIntel,60.0024001,Chrome,1440,900,,,,,1,1108,,,,,,,,,,,,,,,,,Y,181,star,1,0,,,,,,,,,,,,,,,,repeat,number,numRpt,k,0.522,Lo,,,,,,3,,,,,,,,high,25,0,25,0,1,,,,,,,,,
295261,2022-11-15_20h17.54.746,vts_reward_expectancy_bt,2022.2.4,MacIntel,60.0024001,Chrome,1440,900,,,,,0,1108,,,,,,,,,,,,,,,,,H,160,triangle,1,0,,,,,,,,,,,,,,,,switch,letter,lettSwt,d,0.6738,Hi,,,,,,3,,,,,,,,high,26,0,26,0,1,,,,,,,,,
295261,2022-11-15_20h17.54.746,vts_reward_expectancy_bt,2022.2.4,MacIntel,60.0024001,Chrome,1440,900,,,,,1,1109,,,,,,,,,,,,,,,,,F,139,hexagon,1,0,,,,,,,,,,,,,,,,switch,number,numSwt,j,0.48,Lo,,,,,,3,,,,,,,,high,27,0,27,0,1,,,,,,,,,
295261,2022-11-15_20h17.54.746,vts_reward_expectancy_bt,2022.2.4,MacIntel,60.0024001,Chrome,1440,900,,,,,0,1109,,,,,,,,,,,,,,,,,S,174,circle,1,0,,,,,,,,,,,,,,,,switch,letter,lettSwt,f,0.5473,Hi,,,,,,3,,,,,,,,high,28,0,28,0,1,,,,,,,,,
295261,2022-11-15_20h17.54.746,vts_reward_expectancy_bt,2022.2.4,MacIntel,60.0024001,Chrome,1440,900,,,,,10,1119,,,,,,,,,,,,,,,,,B,132,triangle,1,0,,,,,,,,,,,,,,,,repeat,letter,lettRpt,d,0.403,Hi,,,,,,3,,,,,,,,high,29,0,29,0,1,,,,,,,,,
295261,2022-11-15_20h17.54.746,vts_reward_expectancy_bt,2022.2.4,MacIntel,60.0024001,Chrome,1440,900,,,,,1,1120,,,,,,,,,,,,,,,,,W,146,hexagon,1,0,,,,,,,,,,,,,,,,repeat,letter,lettRpt,f,0.3717,Lo,,,,,,3,,,,,,,,high,30,0,30,0,1,,,,,,,,,
295261,2022-11-15_20h17.54.746,vts_reward_expectancy_bt,2022.2.4,MacIntel,60.0024001,Chrome,1440,900,,,,,1,1121,,,,,,,,,,,,,,,,,U,125,star,1,0,,,,,,,,,,,,,,,,switch,number,numSwt,j,0.6012,Lo,,,,,,3,,,,,,,,high,31,0,31,0,1,,,,,,,,,
295261,2022-11-15_20h17.54.746,vts_reward_expectancy_bt,2022.2.4,MacIntel,60.0024001,Chrome,1440,900,,,,,1,1122,,,,,,,,,,,,,,,,,F,181,hexagon,1,0,,,,,,,,,,,,,,,,switch,letter,lettSwt,d,0.8493,Lo,,,,,,4,,,,,,space,0.4104,high,0,0,0,0,1,,,,,,,,,
295261,2022-11-15_20h17.54.746,vts_reward_expectancy_bt,2022.2.4,MacIntel,60.0024001,Chrome,1440,900,,,,,0,1122,,,,,,,,,,,,,,,,,B,146,circle,1,0,,,,,,,,,,,,,,,,switch,number,numSwt,j,0.461,Hi,,,,,,4,,,,,,,,high,1,0,1,0,1,,,,,,,,,
295261,2022-11-15_20h17.54.746,vts_reward_expectancy_bt,2022.2.4,MacIntel,60.0024001,Chrome,1440,900,,,,,1,1123,,,,,,,,,,,,,,,,,D,174,star,1,0,,,,,,,,,,,,,,,,repeat,number,numRpt,k,0.3843,Lo,,,,,,4,,,,,,,,high,2,0,2,0,1,,,,,,,,,
295261,2022-11-15_20h17.54.746,vts_reward_expectancy_bt,2022.2.4,MacIntel,60.0024001,Chrome,1440,900,,,,,0,1123,,,,,,,,,,,,,,,,,U,167,triangle,1,0,,,,,,,,,,,,,,,,switch,letter,lettSwt,f,0.5702,Hi,,,,,,4,,,,,,,,high,3,0,3,0,1,,,,,,,,,
295261,2022-11-15_20h17.54.746,vts_reward_expectancy_bt,2022.2.4,MacIntel,60.0024001,Chrome,1440,900,,,,,0,1123,,,,,,,,,,,,,,,,,H,139,hexagon,0,0,,,,,,,,,,,,,,,,repeat,letter,NA,f,0.4243,Hi,,,,,,4,,,,,,,,high,4,0,4,0,1,,,,,,,,,
295261,2022-11-15_20h17.54.746,vts_reward_expectancy_bt,2022.2.4,MacIntel,60.0024001,Chrome,1440,900,,,,,0,1123,,,,,,,,,,,,,,,,,W,160,circle,1,1,,,,,,,,,,,,,,,,repeat,letter,lettRpt,f,0.4478,Hi,,,,,,4,,,,,,,,high,5,0,5,0,1,,,,,,,,,
295261,2022-11-15_20h17.54.746,vts_reward_expectancy_bt,2022.2.4,MacIntel,60.0024001,Chrome,1440,900,,,,,1,1124,,,,,,,,,,,,,,,,,S,132,star,1,0,,,,,,,,,,,,,,,,switch,number,numSwt,j,0.5132,Lo,,,,,,4,,,,,,,,high,6,0,6,0,1,,,,,,,,,
295261,2022-11-15_20h17.54.746,vts_reward_expectancy_bt,2022.2.4,MacIntel,60.0024001,Chrome,1440,900,,,,,0,1124,,,,,,,,,,,,,,,,,Y,125,triangle,1,0,,,,,,,,,,,,,,,,repeat,number,numRpt,j,0.5009,Hi,,,,,,4,,,,,,,,high,7,0,7,0,1,,,,,,,,,
295261,2022-11-15_20h17.54.746,vts_reward_expectancy_bt,2022.2.4,MacIntel,60.0024001,Chrome,1440,900,,,,,0,1124,,,,,,,,,,,,,,,,,F,181,circle,1,0,,,,,,,,,,,,,,,,repeat,number,numRpt,k,0.4017,Hi,,,,,,4,,,,,,,,high,8,0,8,0,1,,,,,,,,,
295261,2022-11-15_20h17.54.746,vts_reward_expectancy_bt,2022.2.4,MacIntel,60.0024001,Chrome,1440,900,,,,,0,1124,,,,,,,,,,,,,,,,,B,146,triangle,1,0,,,,,,,,,,,,,,,,switch,letter,lettSwt,d,0.4478,Hi,,,,,,4,,,,,,,,high,9,0,9,0,1,,,,,,,,,
295261,2022-11-15_20h17.54.746,vts_reward_expectancy_bt,2022.2.4,MacIntel,60.0024001,Chrome,1440,900,,,,,10,1134,,,,,,,,,,,,,,,,,D,174,hexagon,1,0,,,,,,,,,,,,,,,,switch,number,numSwt,k,0.4117,Lo,,,,,,4,,,,,,,,high,10,0,10,0,1,,,,,,,,,
295261,2022-11-15_20h17.54.746,vts_reward_expectancy_bt,2022.2.4,MacIntel,60.0024001,Chrome,1440,900,,,,,0,1134,,,,,,,,,,,,,,,,,U,167,star,0,0,,,,,,,,,,,,,,,,repeat,number,NA,j,0.4754,Lo,,,,,,4,,,,,,,,high,11,0,11,0,1,,,,,,,,,
295261,2022-11-15_20h17.54.746,vts_reward_expectancy_bt,2022.2.4,MacIntel,60.0024001,Chrome,1440,900,,,,,10,1144,,,,,,,,,,,,,,,,,H,139,circle,1,1,,,,,,,,,,,,,,,,switch,letter,lettSwt,d,0.4374,Hi,,,,,,4,,,,,,,,high,12,0,12,0,1,,,,,,,,,
295261,2022-11-15_20h17.54.746,vts_reward_expectancy_bt,2022.2.4,MacIntel,60.0024001,Chrome,1440,900,,,,,10,1154,,,,,,,,,,,,,,,,,W,160,hexagon,1,0,,,,,,,,,,,,,,,,repeat,letter,lettRpt,f,0.516,Lo,,,,,,4,,,,,,,,high,13,0,13,0,1,,,,,,,,,
295261,2022-11-15_20h17.54.746,vts_reward_expectancy_bt,2022.2.4,MacIntel,60.0024001,Chrome,1440,900,,,,,1,1155,,,,,,,,,,,,,,,,,S,132,star,1,0,,,,,,,,,,,,,,,,switch,number,numSwt,j,0.406,Lo,,,,,,4,,,,,,,,high,14,0,14,0,1,,,,,,,,,
295261,2022-11-15_20h17.54.746,vts_reward_expectancy_bt,2022.2.4,MacIntel,60.0024001,Chrome,1440,900,,,,,0,1155,,,,,,,,,,,,,,,,,Y,125,triangle,0,0,,,,,,,,,,,,,,,,repeat,number,NA,k,0.3138,Lo,,,,,,4,,,,,,,,high,15,0,15,0,1,,,,,,,,,
295261,2022-11-15_20h17.54.746,vts_reward_expectancy_bt,2022.2.4,MacIntel,60.0024001,Chrome,1440,900,,,,,10,1165,,,,,,,,,,,,,,,,,U,160,hexagon,1,1,,,,,,,,,,,,,,,,repeat,number,numRpt,k,0.3303,Lo,,,,,,4,,,,,,,,high,16,0,16,0,1,,,,,,,,,
295261,2022-11-15_20h17.54.746,vts_reward_expectancy_bt,2022.2.4,MacIntel,60.0024001,Chrome,1440,900,,,,,1,1166,,,,,,,,,,,,,,,,,B,146,star,1,0,,,,,,,,,,,,,,,,switch,letter,lettSwt,d,0.4142,Lo,,,,,,4,,,,,,,,high,17,0,17,0,1,,,,,,,,,
295261,2022-11-15_20h17.54.746,vts_reward_expectancy_bt,2022.2.4,MacIntel,60.0024001,Chrome,1440,900,,,,,0,1166,,,,,,,,,,,,,,,,,Y,125,circle,1,0,,,,,,,,,,,,,,,,repeat,letter,lettRpt,f,0.5128,Hi,,,,,,4,,,,,,,,high,18,0,18,0,1,,,,,,,,,
295261,2022-11-15_20h17.54.746,vts_reward_expectancy_bt,2022.2.4,MacIntel,60.0024001,Chrome,1440,900,,,,,1,1167,,,,,,,,,,,,,,,,,F,132,triangle,1,0,,,,,,,,,,,,,,,,switch,number,numSwt,j,0.4337,Hi,,,,,,4,,,,,,,,high,19,0,19,0,1,,,,,,,,,
295261,2022-11-15_20h17.54.746,vts_reward_expectancy_bt,2022.2.4,MacIntel,60.0024001,Chrome,1440,900,,,,,0,1167,,,,,,,,,,,,,,,,,D,139,circle,1,0,,,,,,,,,,,,,,,,switch,letter,lettSwt,d,0.4435,Hi,,,,,,4,,,,,,,,high,20,0,20,0,1,,,,,,,,,
295261,2022-11-15_20h17.54.746,vts_reward_expectancy_bt,2022.2.4,MacIntel,60.0024001,Chrome,1440,900,,,,,1,1168,,,,,,,,,,,,,,,,,W,167,star,1,0,,,,,,,,,,,,,,,,switch,number,numSwt,k,0.3802,Lo,,,,,,4,,,,,,,,high,21,0,21,0,1,,,,,,,,,
295261,2022-11-15_20h17.54.746,vts_reward_expectancy_bt,2022.2.4,MacIntel,60.0024001,Chrome,1440,900,,,,,10,1178,,,,,,,,,,,,,,,,,H,174,triangle,1,0,,,,,,,,,,,,,,,,repeat,number,numRpt,k,0.3449,Hi,,,,,,4,,,,,,,,high,22,0,22,0,1,,,,,,,,,
295261,2022-11-15_20h17.54.746,vts_reward_expectancy_bt,2022.2.4,MacIntel,60.0024001,Chrome,1440,900,,,,,1,1179,,,,,,,,,,,,,,,,,S,181,hexagon,1,0,,,,,,,,,,,,,,,,switch,letter,lettSwt,f,0.4813,Lo,,,,,,4,,,,,,,,high,23,0,23,0,1,,,,,,,,,
295261,2022-11-15_20h17.54.746,vts_reward_expectancy_bt,2022.2.4,MacIntel,60.0024001,Chrome,1440,900,,,,,0,1179,,,,,,,,,,,,,,,,,S,167,triangle,1,0,,,,,,,,,,,,,,,,switch,number,numSwt,k,0.5376,Hi,,,,,,4,,,,,,,,high,24,0,24,0,1,,,,,,,,,
295261,2022-11-15_20h17.54.746,vts_reward_expectancy_bt,2022.2.4,MacIntel,60.0024001,Chrome,1440,900,,,,,1,1180,,,,,,,,,,,,,,,,,Y,181,star,1,0,,,,,,,,,,,,,,,,repeat,number,numRpt,k,0.4062,Lo,,,,,,4,,,,,,,,high,25,0,25,0,1,,,,,,,,,
295261,2022-11-15_20h17.54.746,vts_reward_expectancy_bt,2022.2.4,MacIntel,60.0024001,Chrome,1440,900,,,,,10,1190,,,,,,,,,,,,,,,,,F,125,circle,1,0,,,,,,,,,,,,,,,,repeat,number,numRpt,j,0.3734,Hi,,,,,,4,,,,,,,,high,26,0,26,0,1,,,,,,,,,
295261,2022-11-15_20h17.54.746,vts_reward_expectancy_bt,2022.2.4,MacIntel,60.0024001,Chrome,1440,900,,,,,1,1191,,,,,,,,,,,,,,,,,W,139,hexagon,1,0,,,,,,,,,,,,,,,,switch,letter,lettSwt,f,0.4723,Lo,,,,,,4,,,,,,,,high,27,0,27,0,1,,,,,,,,,
295261,2022-11-15_20h17.54.746,vts_reward_expectancy_bt,2022.2.4,MacIntel,60.0024001,Chrome,1440,900,,,,,1,1192,,,,,,,,,,,,,,,,,B,146,hexagon,1,0,,,,,,,,,,,,,,,,repeat,letter,lettRpt,d,0.43,Lo,,,,,,4,,,,,,,,high,28,0,28,0,1,,,,,,,,,
295261,2022-11-15_20h17.54.746,vts_reward_expectancy_bt,2022.2.4,MacIntel,60.0024001,Chrome,1440,900,,,,,1,1193,,,,,,,,,,,,,,,,,U,132,star,1,0,,,,,,,,,,,,,,,,repeat,letter,lettRpt,f,0.4955,Lo,,,,,,4,,,,,,,,high,29,0,29,0,1,,,,,,,,,
295261,2022-11-15_20h17.54.746,vts_reward_expectancy_bt,2022.2.4,MacIntel,60.0024001,Chrome,1440,900,,,,,0,1193,,,,,,,,,,,,,,,,,H,160,circle,1,0,,,,,,,,,,,,,,,,switch,number,numSwt,k,0.5127,Hi,,,,,,4,,,,,,,,high,30,0,30,0,1,,,,,,,,,
295261,2022-11-15_20h17.54.746,vts_reward_expectancy_bt,2022.2.4,MacIntel,60.0024001,Chrome,1440,900,,,,,10,1203,,,,,,,,,,,,,,,,,D,174,triangle,1,0,,,,,,,,,,,,,,,,switch,letter,lettSwt,d,0.3802,Hi,,,,,,4,,,,,,,,high,31,0,31,0,1,,,,,,,,,
295261,2022-11-15_20h17.54.746,vts_reward_expectancy_bt,2022.2.4,MacIntel,60.0024001,Chrome,1440,900,,,,,10,1213,,,,,,,,,,,,,,,,,F,160,star,1,0,,,,,,,,,,,,,,,,repeat,letter,lettRpt,d,0.6335,Lo,,,,,,5,,,,,,space,0.5517,high,0,0,0,0,1,,,,,,,,,
295261,2022-11-15_20h17.54.746,vts_reward_expectancy_bt,2022.2.4,MacIntel,60.0024001,Chrome,1440,900,,,,,10,1223,,,,,,,,,,,,,,,,,D,174,triangle,1,0,,,,,,,,,,,,,,,,repeat,letter,lettRpt,d,0.4353,Hi,,,,,,5,,,,,,,,high,1,0,1,0,1,,,,,,,,,
295261,2022-11-15_20h17.54.746,vts_reward_expectancy_bt,2022.2.4,MacIntel,60.0024001,Chrome,1440,900,,,,,0,1223,,,,,,,,,,,,,,,,,S,125,circle,1,0,,,,,,,,,,,,,,,,repeat,letter,lettRpt,f,0.5112,Hi,,,,,,5,,,,,,,,high,2,0,2,0,1,,,,,,,,,
295261,2022-11-15_20h17.54.746,vts_reward_expectancy_bt,2022.2.4,MacIntel,60.0024001,Chrome,1440,900,,,,,1,1224,,,,,,,,,,,,,,,,,Y,181,hexagon,1,0,,,,,,,,,,,,,,,,switch,number,numSwt,k,0.42,Lo,,,,,,5,,,,,,,,high,3,0,3,0,1,,,,,,,,,
295261,2022-11-15_20h17.54.746,vts_reward_expectancy_bt,2022.2.4,MacIntel,60.0024001,Chrome,1440,900,,,,,1,1225,,,,,,,,,,,,,,,,,U,146,star,1,0,,,,,,,,,,,,,,,,switch,letter,lettSwt,f,0.4846,Lo,,,,,,5,,,,,,,,high,4,0,4,0,1,,,,,,,,,
295261,2022-11-15_20h17.54.746,vts_reward_expectancy_bt,2022.2.4,MacIntel,60.0024001,Chrome,1440,900,,,,,10,1235,,,,,,,,,,,,,,,,,B,167,triangle,1,0,,,,,,,,,,,,,,,,repeat,letter,lettRpt,d,0.4363,Hi,,,,,,5,,,,,,,,high,5,0,5,0,1,,,,,,,,,
295261,2022-11-15_20h17.54.746,vts_reward_expectancy_bt,2022.2.4,MacIntel,60.0024001,Chrome,1440,900,,,,,0,1235,,,,,,,,,,,,,,,,,H,139,circle,1,0,,,,,,,,,,,,,,,,repeat,letter,lettRpt,d,0.4905,Hi,,,,,,5,,,,,,,,high,6,0,6,0,1,,,,,,,,,
295261,2022-11-15_20h17.54.746,vts_reward_expectancy_bt,2022.2.4,MacIntel,60.0024001,Chrome,1440,900,,,,,1,1236,,,,,,,,,,,,,,,,,W,132,hexagon,1,0,,,,,,,,,,,,,,,,switch,number,numSwt,j,0.3474,Lo,,,,,,5,,,,,,,,high,7,0,7,0,1,,,,,,,,,
295261,2022-11-15_20h17.54.746,vts_reward_expectancy_bt,2022.2.4,MacIntel,60.0024001,Chrome,1440,900,,,,,1,1237,,,,,,,,,,,,,,,,,F,160,star,1,0,,,,,,,,,,,,,,,,repeat,number,numRpt,k,0.3473,Lo,,,,,,5,,,,,,,,high,8,0,8,0,1,,,,,,,,,
295261,2022-11-15_20h17.54.746,vts_reward_expectancy_bt,2022.2.4,MacIntel,60.0024001,Chrome,1440,900,,,,,10,1247,,,,,,,,,,,,,,,,,D,174,circle,1,0,,,,,,,,,,,,,,,,switch,letter,lettSwt,d,0.422,Hi,,,,,,5,,,,,,,,high,9,0,9,0,1,,,,,,,,,
295261,2022-11-15_20h17.54.746,vts_reward_expectancy_bt,2022.2.4,MacIntel,60.0024001,Chrome,1440,900,,,,,0,1247,,,,,,,,,,,,,,,,,S,125,triangle,0,0,,,,,,,,,,,,,,,,repeat,letter,NA,d,0.5309,Hi,,,,,,5,,,,,,,,high,10,0,10,0,1,,,,,,,,,
295261,2022-11-15_20h17.54.746,vts_reward_expectancy_bt,2022.2.4,MacIntel,60.0024001,Chrome,1440,900,,,,,1,1248,,,,,,,,,,,,,,,,,Y,181,hexagon,1,1,,,,,,,,,,,,,,,,repeat,letter,lettRpt,f,0.484,Lo,,,,,,5,,,,,,,,high,11,0,11,0,1,,,,,,,,,
295261,2022-11-15_20h17.54.746,vts_reward_expectancy_bt,2022.2.4,MacIntel,60.0024001,Chrome,1440,900,,,,,0,1248,,,,,,,,,,,,,,,,,U,146,circle,1,0,,,,,,,,,,,,,,,,switch,number,numSwt,j,0.4875,Hi,,,,,,5,,,,,,,,high,12,0,12,0,1,,,,,,,,,
295261,2022-11-15_20h17.54.746,vts_reward_expectancy_bt,2022.2.4,MacIntel,60.0024001,Chrome,1440,900,,,,,1,1249,,,,,,,,,,,,,,,,,B,167,hexagon,1,0,,,,,,,,,,,,,,,,repeat,number,numRpt,k,0.5016,Lo,,,,,,5,,,,,,,,high,13,0,13,0,1,,,,,,,,,
295261,2022-11-15_20h17.54.746,vts_reward_expectancy_bt,2022.2.4,MacIntel,60.0024001,Chrome,1440,900,,,,,0,1249,,,,,,,,,,,,,,,,,H,139,triangle,1,0,,,,,,,,,,,,,,,,switch,letter,lettSwt,d,0.4805,Hi,,,,,,5,,,,,,,,high,14,0,14,0,1,,,,,,,,,
295261,2022-11-15_20h17.54.746,vts_reward_expectancy_bt,2022.2.4,MacIntel,60.0024001,Chrome,1440,900,,,,,0,1249,,,,,,,,,,,,,,,,,W,132,star,0,0,,,,,,,,,,,,,,,,switch,number,NA,k,0.3298,Hi,,,,,,5,,,,,,,,high,15,0,15,0,1,,,,,,,,,
295261,2022-11-15_20h17.54.746,vts_reward_expectancy_bt,2022.2.4,MacIntel,60.0024001,Chrome,1440,900,,,,,1,1250,,,,,,,,,,,,,,,,,S,174,circle,1,1,,,,,,,,,,,,,,,,repeat,number,numRpt,k,0.3672,Hi,,,,,,5,,,,,,,,high,16,0,16,0,1,,,,,,,,,
295261,2022-11-15_20h17.54.746,vts_reward_expectancy_bt,2022.2.4,MacIntel,60.0024001,Chrome,1440,900,,,,,0,1250,,,,,,,,,,,,,,,,,U,146,triangle,1,0,,,,,,,,,,,,,,,,switch,letter,lettSwt,f,0.4814,Hi,,,,,,5,,,,,,,,high,17,0,17,0,1,,,,,,,,,
295261,2022-11-15_20h17.54.746,vts_reward_expectancy_bt,2022.2.4,MacIntel,60.0024001,Chrome,1440,900,,,,,1,1251,,,,,,,,,,,,,,,,,F,132,hexagon,1,0,,,,,,,,,,,,,,,,repeat,letter,lettRpt,d,0.4135,Lo,,,,,,5,,,,,,,,high,18,0,18,0,1,,,,,,,,,
295261,2022-11-15_20h17.54.746,vts_reward_expectancy_bt,2022.2.4,MacIntel,60.0024001,Chrome,1440,900,,,,,1,1252,,,,,,,,,,,,,,,,,D,160,star,1,0,,,,,,,,,,,,,,,,switch,number,numSwt,k,0.4401,Lo,,,,,,5,,,,,,,,high,19,0,19,0,1,,,,,,,,,
295261,2022-11-15_20h17.54.746,vts_reward_expectancy_bt,2022.2.4,MacIntel,60.0024001,Chrome,1440,900,,,,,1,1253,,,,,,,,,,,,,,,,,B,167,hexagon,1,0,,,,,,,,,,,,,,,,repeat,number,numRpt,k,0.4316,Lo,,,,,,5,,,,,,,,high,20,0,20,0,1,,,,,,,,,
295261,2022-11-15_20h17.54.746,vts_reward_expectancy_bt,2022.2.4,MacIntel,60.0024001,Chrome,1440,900,,,,,1,1254,,,,,,,,,,,,,,,,,H,139,circle,1,0,,,,,,,,,,,,,,,,repeat,number,numRpt,j,0.3559,Hi,,,,,,5,,,,,,,,high,21,0,21,0,1,,,,,,,,,
295261,2022-11-15_20h17.54.746,vts_reward_expectancy_bt,2022.2.4,MacIntel,60.0024001,Chrome,1440,900,,,,,0,1254,,,,,,,,,,,,,,,,,W,181,triangle,0,0,,,,,,,,,,,,,,,,switch,letter,NA,d,0.4501,Hi,,,,,,5,,,,,,,,high,22,0,22,0,1,,,,,,,,,
295261,2022-11-15_20h17.54.746,vts_reward_expectancy_bt,2022.2.4,MacIntel,60.0024001,Chrome,1440,900,,,,,1,1255,,,,,,,,,,,,,,,,,Y,125,star,1,1,,,,,,,,,,,,,,,,repeat,letter,lettRpt,f,0.4783,Lo,,,,,,5,,,,,,,,high,23,0,23,0,1,,,,,,,,,
295261,2022-11-15_20h17.54.746,vts_reward_expectancy_bt,2022.2.4,MacIntel,60.0024001,Chrome,1440,900,,,,,1,1256,,,,,,,,,,,,,,,,,S,146,star,1,0,,,,,,,,,,,,,,,,switch,number,numSwt,j,0.5189,Lo,,,,,,5,,,,,,,,high,24,0,24,0,1,,,,,,,,,
295261,2022-11-15_20h17.54.746,vts_reward_expectancy_bt,2022.2.4,MacIntel,60.0024001,Chrome,1440,900,,,,,0,1256,,,,,,,,,,,,,,,,,F,125,circle,1,0,,,,,,,,,,,,,,,,switch,letter,lettSwt,d,0.6121,Hi,,,,,,5,,,,,,,,high,25,0,25,0,1,,,,,,,,,
295261,2022-11-15_20h17.54.746,vts_reward_expectancy_bt,2022.2.4,MacIntel,60.0024001,Chrome,1440,900,,,,,0,1256,,,,,,,,,,,,,,,,,U,139,triangle,1,0,,,,,,,,,,,,,,,,repeat,letter,lettRpt,f,0.4801,Hi,,,,,,5,,,,,,,,high,26,0,26,0,1,,,,,,,,,
295261,2022-11-15_20h17.54.746,vts_reward_expectancy_bt,2022.2.4,MacIntel,60.0024001,Chrome,1440,900,,,,,0,1256,,,,,,,,,,,,,,,,,Y,174,hexagon,0,0,,,,,,,,,,,,,,,,repeat,letter,NA,d,0.4408,Hi,,,,,,5,,,,,,,,high,27,0,27,0,1,,,,,,,,,
295261,2022-11-15_20h17.54.746,vts_reward_expectancy_bt,2022.2.4,MacIntel,60.0024001,Chrome,1440,900,,,,,10,1266,,,,,,,,,,,,,,,,,B,160,circle,1,1,,,,,,,,,,,,,,,,repeat,letter,lettRpt,d,0.4145,Hi,,,,,,5,,,,,,,,high,28,0,28,0,1,,,,,,,,,
295261,2022-11-15_20h17.54.746,vts_reward_expectancy_bt,2022.2.4,MacIntel,60.0024001,Chrome,1440,900,,,,,0,1266,,,,,,,,,,,,,,,,,H,181,triangle,1,0,,,,,,,,,,,,,,,,repeat,letter,lettRpt,d,0.7123,Hi,,,,,,5,,,,,,,,high,29,0,29,0,1,,,,,,,,,
295261,2022-11-15_20h17.54.746,vts_reward_expectancy_bt,2022.2.4,MacIntel,60.0024001,Chrome,1440,900,,,,,1,1267,,,,,,,,,,,,,,,,,D,167,hexagon,1,0,,,,,,,,,,,,,,,,switch,number,numSwt,k,0.6469,Lo,,,,,,5,,,,,,,,high,30,0,30,0,1,,,,,,,,,
295261,2022-11-15_20h17.54.746,vts_reward_expectancy_bt,2022.2.4,MacIntel,60.0024001,Chrome,1440,900,,,,,1,1268,,,,,,,,,,,,,,,,,W,132,star,1,0,,,,,,,,,,,,,,,,repeat,number,numRpt,j,0.9312,Lo,,,,,,5,,,,,,,,high,31,0,31,0,1,,,,,,,,,
295261,2022-11-15_20h17.54.746,vts_reward_expectancy_bt,2022.2.4,MacIntel,60.0024001,Chrome,1440,900,,,,,1,1269,,,,,,,,,,,,,,,,,S,181,star,1,0,,,,,,,,,,,,,,,,repeat,number,numRpt,k,0.4683,Lo,,,,,,6,,,,,,space,0.5097,high,0,0,0,0,1,,,,,,,,,
295261,2022-11-15_20h17.54.746,vts_reward_expectancy_bt,2022.2.4,MacIntel,60.0024001,Chrome,1440,900,,,,,1,1270,,,,,,,,,,,,,,,,,B,132,hexagon,1,0,,,,,,,,,,,,,,,,switch,letter,lettSwt,d,0.5037,Lo,,,,,,6,,,,,,,,high,1,0,1,0,1,,,,,,,,,
295261,2022-11-15_20h17.54.746,vts_reward_expectancy_bt,2022.2.4,MacIntel,60.0024001,Chrome,1440,900,,,,,0,1270,,,,,,,,,,,,,,,,,Y,167,triangle,1,0,,,,,,,,,,,,,,,,repeat,letter,lettRpt,f,0.491,Hi,,,,,,6,,,,,,,,high,2,0,2,0,1,,,,,,,,,
295261,2022-11-15_20h17.54.746,vts_reward_expectancy_bt,2022.2.4,MacIntel,60.0024001,Chrome,1440,900,,,,,10,1280,,,,,,,,,,,,,,,,,W,174,circle,1,0,,,,,,,,,,,,,,,,switch,number,numSwt,k,0.4317,Hi,,,,,,6,,,,,,,,high,3,0,3,0,1,,,,,,,,,
295261,2022-11-15_20h17.54.746,vts_reward_expectancy_bt,2022.2.4,MacIntel,60.0024001,Chrome,1440,900,,,,,1,1281,,,,,,,,,,,,,,,,,F,160,star,1,0,,,,,,,,,,,,,,,,switch,letter,lettSwt,d,0.3975,Lo,,,,,,6,,,,,,,,high,4,0,4,0,1,,,,,,,,,
295261,2022-11-15_20h17.54.746,vts_reward_expectancy_bt,2022.2.4,MacIntel,60.0024001,Chrome,1440,900,,,,,1,1282,,,,,,,,,,,,,,,,,D,146,hexagon,1,0,,,,,,,,,,,,,,,,repeat,letter,lettRpt,d,0.4631,Lo,,,,,,6,,,,,,,,high,5,0,5,0,1,,,,,,,,,
295261,2022-11-15_20h17.54.746,vts_reward_expectancy_bt,2022.2.4,MacIntel,60.0024001,Chrome,1440,900,,,,,10,1292,,,,,,,,,,,,,,,,,H,125,triangle,1,0,,,,,,,,,,,,,,,,switch,number,numSwt,j,0.3136,Hi,,,,,,6,,,,,,,,high,6,0,6,0,1,,,,,,,,,
295261,2022-11-15_20h17.54.746,vts_reward_expectancy_bt,2022.2.4,MacIntel,60.0024001,Chrome,1440,900,,,,,10,1302,,,,,,,,,,,,,,,,,U,139,circle,1,0,,,,,,,,,,,,,,,,repeat,number,numRpt,j,0.3506,Hi,,,,,,6,,,,,,,,high,7,0,7,0,1,,,,,,,,,
295261,2022-11-15_20h17.54.746,vts_reward_expectancy_bt,2022.2.4,MacIntel,60.0024001,Chrome,1440,900,,,,,10,1312,,,,,,,,,,,,,,,,,S,181,star,1,0,,,,,,,,,,,,,,,,repeat,number,numRpt,k,0.4269,Lo,,,,,,6,,,,,,,,high,8,0,8,0,1,,,,,,,,,
295261,2022-11-15_20h17.54.746,vts_reward_expectancy_bt,2022.2.4,MacIntel,60.0024001,Chrome,1440,900,,,,,10,1322,,,,,,,,,,,,,,,,,B,132,circle,1,0,,,,,,,,,,,,,,,,repeat,number,numRpt,j,0.2414,Hi,,,,,,6,,,,,,,,high,9,0,9,0,1,,,,,,,,,
295261,2022-11-15_20h17.54.746,vts_reward_expectancy_bt,2022.2.4,MacIntel,60.0024001,Chrome,1440,900,,,,,10,1332,,,,,,,,,,,,,,,,,Y,167,triangle,1,0,,,,,,,,,,,,,,,,repeat,number,numRpt,k,0.18,Hi,,,,,,6,,,,,,,,high,10,0,10,0,1,,,,,,,,,
295261,2022-11-15_20h17.54.746,vts_reward_expectancy_bt,2022.2.4,MacIntel,60.0024001,Chrome,1440,900,,,,,1,1333,,,,,,,,,,,,,,,,,W,174,hexagon,1,0,,,,,,,,,,,,,,,,repeat,number,numRpt,k,0.2134,Lo,,,,,,6,,,,,,,,high,11,0,11,0,1,,,,,,,,,
