participant,date,expName,psychopyVersion,OS,frameRate,browser,xResolution,yResolution,key_resp.keys,key_resp.rt,training_resp.keys,training_resp.rt,points_trial,points_cumul,trainBlock,training.thisRepN,training.thisTrialN,training.thisN,training.thisIndex,training.ran,LTriangleOpac,LCircleOpac,LHexagonOpac,LStarOpac,RTriangleOpac,RCircleOpac,RHexagonOpac,RStarOpac,LShape_ID,RShape_ID,curr_topStim,curr_bottStim,curr_shape,acc,E1,target_resp_prac1.keys,pracBlock,task1_prac_trials.thisRepN,task1_prac_trials.thisTrialN,task1_prac_trials.thisN,task1_prac_trials.thisIndex,task1_prac_trials.ran,target_resp_prac1.rt,target_resp_prac2.keys,task2_praac_trials.thisRepN,task2_praac_trials.thisTrialN,task2_praac_trials.thisN,task2_praac_trials.thisIndex,task2_praac_trials.ran,target_resp_prac2.rt,alt,task,condition,target_resp.keys,target_resp.rt,rewCond,vts_practice_trials.thisRepN,vts_practice_trials.thisTrialN,vts_practice_trials.thisN,vts_practice_trials.thisIndex,vts_practice_trials.ran,blockNum,trials_norew.thisRepN,trials_norew.thisTrialN,trials_norew.thisN,trials_norew.thisIndex,trials_norew.ran,key_resp_2.keys,key_resp_2.rt,rewExpectancy,trials_rew.thisRepN,trials_rew.thisTrialN,trials_rew.thisN,trials_rew.thisIndex,trials_rew.ran,Q1,Q2,Q2_text,Q3,Q4,Q5_text,Q5,xRes,yRes
295258,2022-12-05_21h56.38.174,vts_reward_expectancy_bt,2022.2.4,Win32,60.40106306,Chrome,1280,720,,,,,,,,,,,,,,,,,,,,,,,,,,,,,,,,,,,,,,,,,,,,,,,,,,,,,,,,,,,,,,,,,,,,,,,,,,,,
295258,2022-12-05_21h56.38.174,vts_reward_expectancy_bt,2022.2.4,Win32,60.40106306,Chrome,1280,720,space,29.539,,,,,,,,,,,,,,,,,,,,,,,,,,,,,,,,,,,,,,,,,,,,,,,,,,,,,,,,,,,,,,,,,,,,,,,,,,
295258,2022-12-05_21h56.38.174,vts_reward_expectancy_bt,2022.2.4,Win32,60.40106306,Chrome,1280,720,,,,,,,,,,,,,,,,,,,,,,,,,,,,,,,,,,,,,,,,,,,,,,,,,,,,,,,,,,,,,,,,,,,,,,,,,,,,
295258,2022-12-05_21h56.38.174,vts_reward_expectancy_bt,2022.2.4,Win32,60.40106306,Chrome,1280,720,,,a,3.1959,1,1,0,0,0,0,11,1,0,0,0,1,0,0,1,0,star,hexagon,,,,,,,,,,,,,,,,,,,,,,,,,,,,,,,,,,,,,,,,,,,,,,,,,,,,,,
295258,2022-12-05_21h56.38.174,vts_reward_expectancy_bt,2022.2.4,Win32,60.40106306,Chrome,1280,720,,,l,1.8753,10,11,0,0,1,1,10,1,0,0,0,1,0,1,0,0,star ,circle,,,,,,,,,,,,,,,,,,,,,,,,,,,,,,,,,,,,,,,,,,,,,,,,,,,,,,
295258,2022-12-05_21h56.38.174,vts_reward_expectancy_bt,2022.2.4,Win32,60.40106306,Chrome,1280,720,,,a,1.8729,10,21,0,0,2,2,7,1,0,0,1,0,0,1,0,0,hexagon,circle,,,,,,,,,,,,,,,,,,,,,,,,,,,,,,,,,,,,,,,,,,,,,,,,,,,,,,
295258,2022-12-05_21h56.38.174,vts_reward_expectancy_bt,2022.2.4,Win32,60.40106306,Chrome,1280,720,,,a,4.7749,1,22,0,0,3,3,3,1,0,1,0,0,1,0,0,0,circle,triangle,,,,,,,,,,,,,,,,,,,,,,,,,,,,,,,,,,,,,,,,,,,,,,,,,,,,,,
295258,2022-12-05_21h56.38.174,vts_reward_expectancy_bt,2022.2.4,Win32,60.40106306,Chrome,1280,720,,,a,1.8157,10,32,0,0,4,4,8,1,0,0,1,0,0,0,0,1,hexagon,star,,,,,,,,,,,,,,,,,,,,,,,,,,,,,,,,,,,,,,,,,,,,,,,,,,,,,,
295258,2022-12-05_21h56.38.174,vts_reward_expectancy_bt,2022.2.4,Win32,60.40106306,Chrome,1280,720,,,l,4.1495,10,42,0,0,5,5,5,1,0,1,0,0,0,0,0,1,circle,star,,,,,,,,,,,,,,,,,,,,,,,,,,,,,,,,,,,,,,,,,,,,,,,,,,,,,,
295258,2022-12-05_21h56.38.174,vts_reward_expectancy_bt,2022.2.4,Win32,60.40106306,Chrome,1280,720,,,l,1.5101,10,52,0,0,6,6,2,1,1,0,0,0,0,0,0,1,triangle,star,,,,,,,,,,,,,,,,,,,,,,,,,,,,,,,,,,,,,,,,,,,,,,,,,,,,,,
295258,2022-12-05_21h56.38.174,vts_reward_expectancy_bt,2022.2.4,Win32,60.40106306,Chrome,1280,720,,,l,2.997,10,62,0,0,7,7,0,1,1,0,0,0,0,1,0,0,triangle,circle,,,,,,,,,,,,,,,,,,,,,,,,,,,,,,,,,,,,,,,,,,,,,,,,,,,,,,
295258,2022-12-05_21h56.38.174,vts_reward_expectancy_bt,2022.2.4,Win32,60.40106306,Chrome,1280,720,,,l,2.9242,1,63,0,0,8,8,4,1,0,1,0,0,0,0,1,0,circle,hexagon,,,,,,,,,,,,,,,,,,,,,,,,,,,,,,,,,,,,,,,,,,,,,,,,,,,,,,
295258,2022-12-05_21h56.38.174,vts_reward_expectancy_bt,2022.2.4,Win32,60.40106306,Chrome,1280,720,,,a,1.9257,1,64,0,0,9,9,9,1,0,0,0,1,1,0,0,0,star,triangle,,,,,,,,,,,,,,,,,,,,,,,,,,,,,,,,,,,,,,,,,,,,,,,,,,,,,,
295258,2022-12-05_21h56.38.174,vts_reward_expectancy_bt,2022.2.4,Win32,60.40106306,Chrome,1280,720,,,a,2.131,1,65,0,0,10,10,6,1,0,0,1,0,1,0,0,0,hexagon,triangle,,,,,,,,,,,,,,,,,,,,,,,,,,,,,,,,,,,,,,,,,,,,,,,,,,,,,,
295258,2022-12-05_21h56.38.174,vts_reward_expectancy_bt,2022.2.4,Win32,60.40106306,Chrome,1280,720,,,l,1.1641,10,75,0,0,11,11,1,1,1,0,0,0,0,0,1,0,triangle,hexagon,,,,,,,,,,,,,,,,,,,,,,,,,,,,,,,,,,,,,,,,,,,,,,,,,,,,,,
295258,2022-12-05_21h56.38.174,vts_reward_expectancy_bt,2022.2.4,Win32,60.40106306,Chrome,1280,720,,,l,1.5598,1,76,0,1,0,12,4,1,0,1,0,0,0,0,1,0,circle,hexagon,,,,,,,,,,,,,,,,,,,,,,,,,,,,,,,,,,,,,,,,,,,,,,,,,,,,,,
295258,2022-12-05_21h56.38.174,vts_reward_expectancy_bt,2022.2.4,Win32,60.40106306,Chrome,1280,720,,,l,1.7601,10,86,0,1,1,13,0,1,1,0,0,0,0,1,0,0,triangle,circle,,,,,,,,,,,,,,,,,,,,,,,,,,,,,,,,,,,,,,,,,,,,,,,,,,,,,,
295258,2022-12-05_21h56.38.174,vts_reward_expectancy_bt,2022.2.4,Win32,60.40106306,Chrome,1280,720,,,l,2.3008,1,87,0,1,2,14,1,1,1,0,0,0,0,0,1,0,triangle,hexagon,,,,,,,,,,,,,,,,,,,,,,,,,,,,,,,,,,,,,,,,,,,,,,,,,,,,,,
295258,2022-12-05_21h56.38.174,vts_reward_expectancy_bt,2022.2.4,Win32,60.40106306,Chrome,1280,720,,,l,1.7261,10,97,0,1,3,15,7,1,0,0,1,0,0,1,0,0,hexagon,circle,,,,,,,,,,,,,,,,,,,,,,,,,,,,,,,,,,,,,,,,,,,,,,,,,,,,,,
295258,2022-12-05_21h56.38.174,vts_reward_expectancy_bt,2022.2.4,Win32,60.40106306,Chrome,1280,720,,,a,2.049,10,107,0,1,4,16,10,1,0,0,0,1,0,1,0,0,star ,circle,,,,,,,,,,,,,,,,,,,,,,,,,,,,,,,,,,,,,,,,,,,,,,,,,,,,,,
295258,2022-12-05_21h56.38.174,vts_reward_expectancy_bt,2022.2.4,Win32,60.40106306,Chrome,1280,720,,,l,1.7427,1,108,0,1,5,17,11,1,0,0,0,1,0,0,1,0,star,hexagon,,,,,,,,,,,,,,,,,,,,,,,,,,,,,,,,,,,,,,,,,,,,,,,,,,,,,,
295258,2022-12-05_21h56.38.174,vts_reward_expectancy_bt,2022.2.4,Win32,60.40106306,Chrome,1280,720,,,a,1.3098,10,118,0,1,6,18,9,1,0,0,0,1,1,0,0,0,star,triangle,,,,,,,,,,,,,,,,,,,,,,,,,,,,,,,,,,,,,,,,,,,,,,,,,,,,,,
295258,2022-12-05_21h56.38.174,vts_reward_expectancy_bt,2022.2.4,Win32,60.40106306,Chrome,1280,720,,,a,1.6011,1,119,0,1,7,19,5,1,0,1,0,0,0,0,0,1,circle,star,,,,,,,,,,,,,,,,,,,,,,,,,,,,,,,,,,,,,,,,,,,,,,,,,,,,,,
295258,2022-12-05_21h56.38.174,vts_reward_expectancy_bt,2022.2.4,Win32,60.40106306,Chrome,1280,720,,,l,1.8177,10,129,0,1,8,20,2,1,1,0,0,0,0,0,0,1,triangle,star,,,,,,,,,,,,,,,,,,,,,,,,,,,,,,,,,,,,,,,,,,,,,,,,,,,,,,
295258,2022-12-05_21h56.38.174,vts_reward_expectancy_bt,2022.2.4,Win32,60.40106306,Chrome,1280,720,,,a,1.209,10,139,0,1,9,21,3,1,0,1,0,0,1,0,0,0,circle,triangle,,,,,,,,,,,,,,,,,,,,,,,,,,,,,,,,,,,,,,,,,,,,,,,,,,,,,,
295258,2022-12-05_21h56.38.174,vts_reward_expectancy_bt,2022.2.4,Win32,60.40106306,Chrome,1280,720,,,a,1.5912,10,149,0,1,10,22,8,1,0,0,1,0,0,0,0,1,hexagon,star,,,,,,,,,,,,,,,,,,,,,,,,,,,,,,,,,,,,,,,,,,,,,,,,,,,,,,
295258,2022-12-05_21h56.38.174,vts_reward_expectancy_bt,2022.2.4,Win32,60.40106306,Chrome,1280,720,,,a,1.0365,1,150,0,1,11,23,6,1,0,0,1,0,1,0,0,0,hexagon,triangle,,,,,,,,,,,,,,,,,,,,,,,,,,,,,,,,,,,,,,,,,,,,,,,,,,,,,,
295258,2022-12-05_21h56.38.174,vts_reward_expectancy_bt,2022.2.4,Win32,60.40106306,Chrome,1280,720,,,l,3.6277,1,151,0,2,0,24,0,1,1,0,0,0,0,1,0,0,triangle,circle,,,,,,,,,,,,,,,,,,,,,,,,,,,,,,,,,,,,,,,,,,,,,,,,,,,,,,
295258,2022-12-05_21h56.38.174,vts_reward_expectancy_bt,2022.2.4,Win32,60.40106306,Chrome,1280,720,,,a,1.7928,1,152,0,2,1,25,10,1,0,0,0,1,0,1,0,0,star ,circle,,,,,,,,,,,,,,,,,,,,,,,,,,,,,,,,,,,,,,,,,,,,,,,,,,,,,,
295258,2022-12-05_21h56.38.174,vts_reward_expectancy_bt,2022.2.4,Win32,60.40106306,Chrome,1280,720,,,a,2.2127,10,162,0,2,2,26,8,1,0,0,1,0,0,0,0,1,hexagon,star,,,,,,,,,,,,,,,,,,,,,,,,,,,,,,,,,,,,,,,,,,,,,,,,,,,,,,
295258,2022-12-05_21h56.38.174,vts_reward_expectancy_bt,2022.2.4,Win32,60.40106306,Chrome,1280,720,,,a,1.9913,1,163,0,2,3,27,5,1,0,1,0,0,0,0,0,1,circle,star,,,,,,,,,,,,,,,,,,,,,,,,,,,,,,,,,,,,,,,,,,,,,,,,,,,,,,
295258,2022-12-05_21h56.38.174,vts_reward_expectancy_bt,2022.2.4,Win32,60.40106306,Chrome,1280,720,,,l,1.4762,1,164,0,2,4,28,4,1,0,1,0,0,0,0,1,0,circle,hexagon,,,,,,,,,,,,,,,,,,,,,,,,,,,,,,,,,,,,,,,,,,,,,,,,,,,,,,
295258,2022-12-05_21h56.38.174,vts_reward_expectancy_bt,2022.2.4,Win32,60.40106306,Chrome,1280,720,,,a,1.6326,10,174,0,2,5,29,7,1,0,0,1,0,0,1,0,0,hexagon,circle,,,,,,,,,,,,,,,,,,,,,,,,,,,,,,,,,,,,,,,,,,,,,,,,,,,,,,
295258,2022-12-05_21h56.38.174,vts_reward_expectancy_bt,2022.2.4,Win32,60.40106306,Chrome,1280,720,,,l,1.2981,10,184,0,2,6,30,1,1,1,0,0,0,0,0,1,0,triangle,hexagon,,,,,,,,,,,,,,,,,,,,,,,,,,,,,,,,,,,,,,,,,,,,,,,,,,,,,,
295258,2022-12-05_21h56.38.174,vts_reward_expectancy_bt,2022.2.4,Win32,60.40106306,Chrome,1280,720,,,l,1.7225,10,194,0,2,7,31,3,1,0,1,0,0,1,0,0,0,circle,triangle,,,,,,,,,,,,,,,,,,,,,,,,,,,,,,,,,,,,,,,,,,,,,,,,,,,,,,
295258,2022-12-05_21h56.38.174,vts_reward_expectancy_bt,2022.2.4,Win32,60.40106306,Chrome,1280,720,,,a,1.3781,10,204,0,2,8,32,6,1,0,0,1,0,1,0,0,0,hexagon,triangle,,,,,,,,,,,,,,,,,,,,,,,,,,,,,,,,,,,,,,,,,,,,,,,,,,,,,,
295258,2022-12-05_21h56.38.174,vts_reward_expectancy_bt,2022.2.4,Win32,60.40106306,Chrome,1280,720,,,l,1.946,1,205,0,2,9,33,11,1,0,0,0,1,0,0,1,0,star,hexagon,,,,,,,,,,,,,,,,,,,,,,,,,,,,,,,,,,,,,,,,,,,,,,,,,,,,,,
295258,2022-12-05_21h56.38.174,vts_reward_expectancy_bt,2022.2.4,Win32,60.40106306,Chrome,1280,720,,,a,2.2461,10,215,0,2,10,34,2,1,1,0,0,0,0,0,0,1,triangle,star,,,,,,,,,,,,,,,,,,,,,,,,,,,,,,,,,,,,,,,,,,,,,,,,,,,,,,
295258,2022-12-05_21h56.38.174,vts_reward_expectancy_bt,2022.2.4,Win32,60.40106306,Chrome,1280,720,,,l,1.4995,1,216,0,2,11,35,9,1,0,0,0,1,1,0,0,0,star,triangle,,,,,,,,,,,,,,,,,,,,,,,,,,,,,,,,,,,,,,,,,,,,,,,,,,,,,,
295258,2022-12-05_21h56.38.174,vts_reward_expectancy_bt,2022.2.4,Win32,60.40106306,Chrome,1280,720,,,a,2.4074,10,226,1,0,0,0,2,1,1,0,0,0,0,0,0,1,triangle,star,,,,,,,,,,,,,,,,,,,,,,,,,,,,,,,,,,,,,,,,,,,,,,,,,,,,,,
295258,2022-12-05_21h56.38.174,vts_reward_expectancy_bt,2022.2.4,Win32,60.40106306,Chrome,1280,720,,,l,3.126,10,236,1,0,1,1,11,1,0,0,0,1,0,0,1,0,star,hexagon,,,,,,,,,,,,,,,,,,,,,,,,,,,,,,,,,,,,,,,,,,,,,,,,,,,,,,
295258,2022-12-05_21h56.38.174,vts_reward_expectancy_bt,2022.2.4,Win32,60.40106306,Chrome,1280,720,,,a,1.9753,1,237,1,0,2,2,1,1,1,0,0,0,0,0,1,0,triangle,hexagon,,,,,,,,,,,,,,,,,,,,,,,,,,,,,,,,,,,,,,,,,,,,,,,,,,,,,,
295258,2022-12-05_21h56.38.174,vts_reward_expectancy_bt,2022.2.4,Win32,60.40106306,Chrome,1280,720,,,a,1.3124,1,238,1,0,3,3,3,1,0,1,0,0,1,0,0,0,circle,triangle,,,,,,,,,,,,,,,,,,,,,,,,,,,,,,,,,,,,,,,,,,,,,,,,,,,,,,
295258,2022-12-05_21h56.38.174,vts_reward_expectancy_bt,2022.2.4,Win32,60.40106306,Chrome,1280,720,,,a,2.0969,1,239,1,0,4,4,8,1,0,0,1,0,0,0,0,1,hexagon,star,,,,,,,,,,,,,,,,,,,,,,,,,,,,,,,,,,,,,,,,,,,,,,,,,,,,,,
295258,2022-12-05_21h56.38.174,vts_reward_expectancy_bt,2022.2.4,Win32,60.40106306,Chrome,1280,720,,,l,0.566,1,240,1,0,5,5,4,1,0,1,0,0,0,0,1,0,circle,hexagon,,,,,,,,,,,,,,,,,,,,,,,,,,,,,,,,,,,,,,,,,,,,,,,,,,,,,,
295258,2022-12-05_21h56.38.174,vts_reward_expectancy_bt,2022.2.4,Win32,60.40106306,Chrome,1280,720,,,l,1.1064,10,250,1,0,6,6,0,1,1,0,0,0,0,1,0,0,triangle,circle,,,,,,,,,,,,,,,,,,,,,,,,,,,,,,,,,,,,,,,,,,,,,,,,,,,,,,
295258,2022-12-05_21h56.38.174,vts_reward_expectancy_bt,2022.2.4,Win32,60.40106306,Chrome,1280,720,,,l,2.7774,10,260,1,0,7,7,5,1,0,1,0,0,0,0,0,1,circle,star,,,,,,,,,,,,,,,,,,,,,,,,,,,,,,,,,,,,,,,,,,,,,,,,,,,,,,
295258,2022-12-05_21h56.38.174,vts_reward_expectancy_bt,2022.2.4,Win32,60.40106306,Chrome,1280,720,,,a,1.1836,1,261,1,0,8,8,7,1,0,0,1,0,0,1,0,0,hexagon,circle,,,,,,,,,,,,,,,,,,,,,,,,,,,,,,,,,,,,,,,,,,,,,,,,,,,,,,
295258,2022-12-05_21h56.38.174,vts_reward_expectancy_bt,2022.2.4,Win32,60.40106306,Chrome,1280,720,,,l,1.1716,10,271,1,0,9,9,6,1,0,0,1,0,1,0,0,0,hexagon,triangle,,,,,,,,,,,,,,,,,,,,,,,,,,,,,,,,,,,,,,,,,,,,,,,,,,,,,,
295258,2022-12-05_21h56.38.174,vts_reward_expectancy_bt,2022.2.4,Win32,60.40106306,Chrome,1280,720,,,a,2.4171,10,281,1,0,10,10,10,1,0,0,0,1,0,1,0,0,star ,circle,,,,,,,,,,,,,,,,,,,,,,,,,,,,,,,,,,,,,,,,,,,,,,,,,,,,,,
295258,2022-12-05_21h56.38.174,vts_reward_expectancy_bt,2022.2.4,Win32,60.40106306,Chrome,1280,720,,,l,1.0233,1,282,1,0,11,11,9,1,0,0,0,1,1,0,0,0,star,triangle,,,,,,,,,,,,,,,,,,,,,,,,,,,,,,,,,,,,,,,,,,,,,,,,,,,,,,
295258,2022-12-05_21h56.38.174,vts_reward_expectancy_bt,2022.2.4,Win32,60.40106306,Chrome,1280,720,,,l,14.1795,10,292,1,1,0,12,9,1,0,0,0,1,1,0,0,0,star,triangle,,,,,,,,,,,,,,,,,,,,,,,,,,,,,,,,,,,,,,,,,,,,,,,,,,,,,,
295258,2022-12-05_21h56.38.174,vts_reward_expectancy_bt,2022.2.4,Win32,60.40106306,Chrome,1280,720,,,a,2.0917,1,293,1,1,1,13,3,1,0,1,0,0,1,0,0,0,circle,triangle,,,,,,,,,,,,,,,,,,,,,,,,,,,,,,,,,,,,,,,,,,,,,,,,,,,,,,
295258,2022-12-05_21h56.38.174,vts_reward_expectancy_bt,2022.2.4,Win32,60.40106306,Chrome,1280,720,,,a,2.3003,1,294,1,1,2,14,1,1,1,0,0,0,0,0,1,0,triangle,hexagon,,,,,,,,,,,,,,,,,,,,,,,,,,,,,,,,,,,,,,,,,,,,,,,,,,,,,,
295258,2022-12-05_21h56.38.174,vts_reward_expectancy_bt,2022.2.4,Win32,60.40106306,Chrome,1280,720,,,l,1.2675,1,295,1,1,3,15,7,1,0,0,1,0,0,1,0,0,hexagon,circle,,,,,,,,,,,,,,,,,,,,,,,,,,,,,,,,,,,,,,,,,,,,,,,,,,,,,,
295258,2022-12-05_21h56.38.174,vts_reward_expectancy_bt,2022.2.4,Win32,60.40106306,Chrome,1280,720,,,l,2.1766,10,305,1,1,4,16,8,1,0,0,1,0,0,0,0,1,hexagon,star,,,,,,,,,,,,,,,,,,,,,,,,,,,,,,,,,,,,,,,,,,,,,,,,,,,,,,
295258,2022-12-05_21h56.38.174,vts_reward_expectancy_bt,2022.2.4,Win32,60.40106306,Chrome,1280,720,,,l,2.6932,1,306,1,1,5,17,10,1,0,0,0,1,0,1,0,0,star ,circle,,,,,,,,,,,,,,,,,,,,,,,,,,,,,,,,,,,,,,,,,,,,,,,,,,,,,,
295258,2022-12-05_21h56.38.174,vts_reward_expectancy_bt,2022.2.4,Win32,60.40106306,Chrome,1280,720,,,l,1.695,10,316,1,1,6,18,4,1,0,1,0,0,0,0,1,0,circle,hexagon,,,,,,,,,,,,,,,,,,,,,,,,,,,,,,,,,,,,,,,,,,,,,,,,,,,,,,
295258,2022-12-05_21h56.38.174,vts_reward_expectancy_bt,2022.2.4,Win32,60.40106306,Chrome,1280,720,,,a,1.2537,1,317,1,1,7,19,11,1,0,0,0,1,0,0,1,0,star,hexagon,,,,,,,,,,,,,,,,,,,,,,,,,,,,,,,,,,,,,,,,,,,,,,,,,,,,,,
295258,2022-12-05_21h56.38.174,vts_reward_expectancy_bt,2022.2.4,Win32,60.40106306,Chrome,1280,720,,,a,1.1296,10,327,1,1,8,20,6,1,0,0,1,0,1,0,0,0,hexagon,triangle,,,,,,,,,,,,,,,,,,,,,,,,,,,,,,,,,,,,,,,,,,,,,,,,,,,,,,
295258,2022-12-05_21h56.38.174,vts_reward_expectancy_bt,2022.2.4,Win32,60.40106306,Chrome,1280,720,,,l,1.9849,10,337,1,1,9,21,2,1,1,0,0,0,0,0,0,1,triangle,star,,,,,,,,,,,,,,,,,,,,,,,,,,,,,,,,,,,,,,,,,,,,,,,,,,,,,,
295258,2022-12-05_21h56.38.174,vts_reward_expectancy_bt,2022.2.4,Win32,60.40106306,Chrome,1280,720,,,a,0.8074,10,347,1,1,10,22,0,1,1,0,0,0,0,1,0,0,triangle,circle,,,,,,,,,,,,,,,,,,,,,,,,,,,,,,,,,,,,,,,,,,,,,,,,,,,,,,
295258,2022-12-05_21h56.38.174,vts_reward_expectancy_bt,2022.2.4,Win32,60.40106306,Chrome,1280,720,,,l,1.7803,10,357,1,1,11,23,5,1,0,1,0,0,0,0,0,1,circle,star,,,,,,,,,,,,,,,,,,,,,,,,,,,,,,,,,,,,,,,,,,,,,,,,,,,,,,
295258,2022-12-05_21h56.38.174,vts_reward_expectancy_bt,2022.2.4,Win32,60.40106306,Chrome,1280,720,,,a,1.0339,10,367,1,2,0,24,11,1,0,0,0,1,0,0,1,0,star,hexagon,,,,,,,,,,,,,,,,,,,,,,,,,,,,,,,,,,,,,,,,,,,,,,,,,,,,,,
295258,2022-12-05_21h56.38.174,vts_reward_expectancy_bt,2022.2.4,Win32,60.40106306,Chrome,1280,720,,,l,0.6876,10,377,1,2,1,25,2,1,1,0,0,0,0,0,0,1,triangle,star,,,,,,,,,,,,,,,,,,,,,,,,,,,,,,,,,,,,,,,,,,,,,,,,,,,,,,
295258,2022-12-05_21h56.38.174,vts_reward_expectancy_bt,2022.2.4,Win32,60.40106306,Chrome,1280,720,,,a,0.4923,10,387,1,2,2,26,10,1,0,0,0,1,0,1,0,0,star ,circle,,,,,,,,,,,,,,,,,,,,,,,,,,,,,,,,,,,,,,,,,,,,,,,,,,,,,,
295258,2022-12-05_21h56.38.174,vts_reward_expectancy_bt,2022.2.4,Win32,60.40106306,Chrome,1280,720,,,l,0.4834,1,388,1,2,3,27,9,1,0,0,0,1,1,0,0,0,star,triangle,,,,,,,,,,,,,,,,,,,,,,,,,,,,,,,,,,,,,,,,,,,,,,,,,,,,,,
295258,2022-12-05_21h56.38.174,vts_reward_expectancy_bt,2022.2.4,Win32,60.40106306,Chrome,1280,720,,,a,0.864,1,389,1,2,4,28,5,1,0,1,0,0,0,0,0,1,circle,star,,,,,,,,,,,,,,,,,,,,,,,,,,,,,,,,,,,,,,,,,,,,,,,,,,,,,,
295258,2022-12-05_21h56.38.174,vts_reward_expectancy_bt,2022.2.4,Win32,60.40106306,Chrome,1280,720,,,a,1.0491,1,390,1,2,5,29,0,1,1,0,0,0,0,1,0,0,triangle,circle,,,,,,,,,,,,,,,,,,,,,,,,,,,,,,,,,,,,,,,,,,,,,,,,,,,,,,
295258,2022-12-05_21h56.38.174,vts_reward_expectancy_bt,2022.2.4,Win32,60.40106306,Chrome,1280,720,,,a,1.0008,10,400,1,2,6,30,3,1,0,1,0,0,1,0,0,0,circle,triangle,,,,,,,,,,,,,,,,,,,,,,,,,,,,,,,,,,,,,,,,,,,,,,,,,,,,,,
295258,2022-12-05_21h56.38.174,vts_reward_expectancy_bt,2022.2.4,Win32,60.40106306,Chrome,1280,720,,,l,0.3502,1,401,1,2,7,31,7,1,0,0,1,0,0,1,0,0,hexagon,circle,,,,,,,,,,,,,,,,,,,,,,,,,,,,,,,,,,,,,,,,,,,,,,,,,,,,,,
295258,2022-12-05_21h56.38.174,vts_reward_expectancy_bt,2022.2.4,Win32,60.40106306,Chrome,1280,720,,,l,0.3092,1,402,1,2,8,32,1,1,1,0,0,0,0,0,1,0,triangle,hexagon,,,,,,,,,,,,,,,,,,,,,,,,,,,,,,,,,,,,,,,,,,,,,,,,,,,,,,
295258,2022-12-05_21h56.38.174,vts_reward_expectancy_bt,2022.2.4,Win32,60.40106306,Chrome,1280,720,,,l,0.6417,1,403,1,2,9,33,4,1,0,1,0,0,0,0,1,0,circle,hexagon,,,,,,,,,,,,,,,,,,,,,,,,,,,,,,,,,,,,,,,,,,,,,,,,,,,,,,
295258,2022-12-05_21h56.38.174,vts_reward_expectancy_bt,2022.2.4,Win32,60.40106306,Chrome,1280,720,,,l,1.2331,1,404,1,2,10,34,6,1,0,0,1,0,1,0,0,0,hexagon,triangle,,,,,,,,,,,,,,,,,,,,,,,,,,,,,,,,,,,,,,,,,,,,,,,,,,,,,,
295258,2022-12-05_21h56.38.174,vts_reward_expectancy_bt,2022.2.4,Win32,60.40106306,Chrome,1280,720,,,a,0.5642,10,414,1,2,11,35,8,1,0,0,1,0,0,0,0,1,hexagon,star,,,,,,,,,,,,,,,,,,,,,,,,,,,,,,,,,,,,,,,,,,,,,,,,,,,,,,
295258,2022-12-05_21h56.38.174,vts_reward_expectancy_bt,2022.2.4,Win32,60.40106306,Chrome,1280,720,,,l,1.4358,1,415,2,0,0,0,3,1,0,1,0,0,1,0,0,0,circle,triangle,,,,,,,,,,,,,,,,,,,,,,,,,,,,,,,,,,,,,,,,,,,,,,,,,,,,,,
295258,2022-12-05_21h56.38.174,vts_reward_expectancy_bt,2022.2.4,Win32,60.40106306,Chrome,1280,720,,,l,0.8504,1,416,2,0,1,1,11,1,0,0,0,1,0,0,1,0,star,hexagon,,,,,,,,,,,,,,,,,,,,,,,,,,,,,,,,,,,,,,,,,,,,,,,,,,,,,,
295258,2022-12-05_21h56.38.174,vts_reward_expectancy_bt,2022.2.4,Win32,60.40106306,Chrome,1280,720,,,a,0.5352,1,417,2,0,2,2,8,1,0,0,1,0,0,0,0,1,hexagon,star,,,,,,,,,,,,,,,,,,,,,,,,,,,,,,,,,,,,,,,,,,,,,,,,,,,,,,
295258,2022-12-05_21h56.38.174,vts_reward_expectancy_bt,2022.2.4,Win32,60.40106306,Chrome,1280,720,,,l,1.8688,1,418,2,0,3,3,9,1,0,0,0,1,1,0,0,0,star,triangle,,,,,,,,,,,,,,,,,,,,,,,,,,,,,,,,,,,,,,,,,,,,,,,,,,,,,,
295258,2022-12-05_21h56.38.174,vts_reward_expectancy_bt,2022.2.4,Win32,60.40106306,Chrome,1280,720,,,l,1.2426,10,428,2,0,4,4,2,1,1,0,0,0,0,0,0,1,triangle,star,,,,,,,,,,,,,,,,,,,,,,,,,,,,,,,,,,,,,,,,,,,,,,,,,,,,,,
295258,2022-12-05_21h56.38.174,vts_reward_expectancy_bt,2022.2.4,Win32,60.40106306,Chrome,1280,720,,,a,0.4048,10,438,2,0,5,5,0,1,1,0,0,0,0,1,0,0,triangle,circle,,,,,,,,,,,,,,,,,,,,,,,,,,,,,,,,,,,,,,,,,,,,,,,,,,,,,,
295258,2022-12-05_21h56.38.174,vts_reward_expectancy_bt,2022.2.4,Win32,60.40106306,Chrome,1280,720,,,l,0.2942,1,439,2,0,6,6,7,1,0,0,1,0,0,1,0,0,hexagon,circle,,,,,,,,,,,,,,,,,,,,,,,,,,,,,,,,,,,,,,,,,,,,,,,,,,,,,,
295258,2022-12-05_21h56.38.174,vts_reward_expectancy_bt,2022.2.4,Win32,60.40106306,Chrome,1280,720,,,a,3.8668,10,449,2,0,7,7,6,1,0,0,1,0,1,0,0,0,hexagon,triangle,,,,,,,,,,,,,,,,,,,,,,,,,,,,,,,,,,,,,,,,,,,,,,,,,,,,,,
295258,2022-12-05_21h56.38.174,vts_reward_expectancy_bt,2022.2.4,Win32,60.40106306,Chrome,1280,720,,,a,2.4513,10,459,2,0,8,8,10,1,0,0,0,1,0,1,0,0,star ,circle,,,,,,,,,,,,,,,,,,,,,,,,,,,,,,,,,,,,,,,,,,,,,,,,,,,,,,
295258,2022-12-05_21h56.38.174,vts_reward_expectancy_bt,2022.2.4,Win32,60.40106306,Chrome,1280,720,,,l,1.2446,1,460,2,0,9,9,1,1,1,0,0,0,0,0,1,0,triangle,hexagon,,,,,,,,,,,,,,,,,,,,,,,,,,,,,,,,,,,,,,,,,,,,,,,,,,,,,,
295258,2022-12-05_21h56.38.174,vts_reward_expectancy_bt,2022.2.4,Win32,60.40106306,Chrome,1280,720,,,a,1.7824,1,461,2,0,10,10,5,1,0,1,0,0,0,0,0,1,circle,star,,,,,,,,,,,,,,,,,,,,,,,,,,,,,,,,,,,,,,,,,,,,,,,,,,,,,,
295258,2022-12-05_21h56.38.174,vts_reward_expectancy_bt,2022.2.4,Win32,60.40106306,Chrome,1280,720,,,l,1.3037,1,462,2,0,11,11,4,1,0,1,0,0,0,0,1,0,circle,hexagon,,,,,,,,,,,,,,,,,,,,,,,,,,,,,,,,,,,,,,,,,,,,,,,,,,,,,,
295258,2022-12-05_21h56.38.174,vts_reward_expectancy_bt,2022.2.4,Win32,60.40106306,Chrome,1280,720,,,l,1.3772,10,472,2,1,0,12,11,1,0,0,0,1,0,0,1,0,star,hexagon,,,,,,,,,,,,,,,,,,,,,,,,,,,,,,,,,,,,,,,,,,,,,,,,,,,,,,
295258,2022-12-05_21h56.38.174,vts_reward_expectancy_bt,2022.2.4,Win32,60.40106306,Chrome,1280,720,,,l,0.6539,1,473,2,1,1,13,5,1,0,1,0,0,0,0,0,1,circle,star,,,,,,,,,,,,,,,,,,,,,,,,,,,,,,,,,,,,,,,,,,,,,,,,,,,,,,
295258,2022-12-05_21h56.38.174,vts_reward_expectancy_bt,2022.2.4,Win32,60.40106306,Chrome,1280,720,,,l,0.8002,1,474,2,1,2,14,0,1,1,0,0,0,0,1,0,0,triangle,circle,,,,,,,,,,,,,,,,,,,,,,,,,,,,,,,,,,,,,,,,,,,,,,,,,,,,,,
295258,2022-12-05_21h56.38.174,vts_reward_expectancy_bt,2022.2.4,Win32,60.40106306,Chrome,1280,720,,,a,1.1037,1,475,2,1,3,15,7,1,0,0,1,0,0,1,0,0,hexagon,circle,,,,,,,,,,,,,,,,,,,,,,,,,,,,,,,,,,,,,,,,,,,,,,,,,,,,,,
295258,2022-12-05_21h56.38.174,vts_reward_expectancy_bt,2022.2.4,Win32,60.40106306,Chrome,1280,720,,,a,1.3841,1,476,2,1,4,16,10,1,0,0,0,1,0,1,0,0,star ,circle,,,,,,,,,,,,,,,,,,,,,,,,,,,,,,,,,,,,,,,,,,,,,,,,,,,,,,
295258,2022-12-05_21h56.38.174,vts_reward_expectancy_bt,2022.2.4,Win32,60.40106306,Chrome,1280,720,,,a,0.6838,10,486,2,1,5,17,6,1,0,0,1,0,1,0,0,0,hexagon,triangle,,,,,,,,,,,,,,,,,,,,,,,,,,,,,,,,,,,,,,,,,,,,,,,,,,,,,,
295258,2022-12-05_21h56.38.174,vts_reward_expectancy_bt,2022.2.4,Win32,60.40106306,Chrome,1280,720,,,l,0.5387,1,487,2,1,6,18,4,1,0,1,0,0,0,0,1,0,circle,hexagon,,,,,,,,,,,,,,,,,,,,,,,,,,,,,,,,,,,,,,,,,,,,,,,,,,,,,,
295258,2022-12-05_21h56.38.174,vts_reward_expectancy_bt,2022.2.4,Win32,60.40106306,Chrome,1280,720,,,a,1.3544,1,488,2,1,7,19,8,1,0,0,1,0,0,0,0,1,hexagon,star,,,,,,,,,,,,,,,,,,,,,,,,,,,,,,,,,,,,,,,,,,,,,,,,,,,,,,
295258,2022-12-05_21h56.38.174,vts_reward_expectancy_bt,2022.2.4,Win32,60.40106306,Chrome,1280,720,,,l,0.7003,10,498,2,1,8,20,2,1,1,0,0,0,0,0,0,1,triangle,star,,,,,,,,,,,,,,,,,,,,,,,,,,,,,,,,,,,,,,,,,,,,,,,,,,,,,,
295258,2022-12-05_21h56.38.174,vts_reward_expectancy_bt,2022.2.4,Win32,60.40106306,Chrome,1280,720,,,a,2.5541,1,499,2,1,9,21,1,1,1,0,0,0,0,0,1,0,triangle,hexagon,,,,,,,,,,,,,,,,,,,,,,,,,,,,,,,,,,,,,,,,,,,,,,,,,,,,,,
295258,2022-12-05_21h56.38.174,vts_reward_expectancy_bt,2022.2.4,Win32,60.40106306,Chrome,1280,720,,,a,0.9391,10,509,2,1,10,22,9,1,0,0,0,1,1,0,0,0,star,triangle,,,,,,,,,,,,,,,,,,,,,,,,,,,,,,,,,,,,,,,,,,,,,,,,,,,,,,
295258,2022-12-05_21h56.38.174,vts_reward_expectancy_bt,2022.2.4,Win32,60.40106306,Chrome,1280,720,,,l,0.9921,10,519,2,1,11,23,3,1,0,1,0,0,1,0,0,0,circle,triangle,,,,,,,,,,,,,,,,,,,,,,,,,,,,,,,,,,,,,,,,,,,,,,,,,,,,,,
295258,2022-12-05_21h56.38.174,vts_reward_expectancy_bt,2022.2.4,Win32,60.40106306,Chrome,1280,720,,,a,0.694,10,529,2,2,0,24,10,1,0,0,0,1,0,1,0,0,star ,circle,,,,,,,,,,,,,,,,,,,,,,,,,,,,,,,,,,,,,,,,,,,,,,,,,,,,,,
295258,2022-12-05_21h56.38.174,vts_reward_expectancy_bt,2022.2.4,Win32,60.40106306,Chrome,1280,720,,,a,0.8113,10,539,2,2,1,25,11,1,0,0,0,1,0,0,1,0,star,hexagon,,,,,,,,,,,,,,,,,,,,,,,,,,,,,,,,,,,,,,,,,,,,,,,,,,,,,,
295258,2022-12-05_21h56.38.174,vts_reward_expectancy_bt,2022.2.4,Win32,60.40106306,Chrome,1280,720,,,l,0.6834,1,540,2,2,2,26,5,1,0,1,0,0,0,0,0,1,circle,star,,,,,,,,,,,,,,,,,,,,,,,,,,,,,,,,,,,,,,,,,,,,,,,,,,,,,,
295258,2022-12-05_21h56.38.174,vts_reward_expectancy_bt,2022.2.4,Win32,60.40106306,Chrome,1280,720,,,a,0.8626,10,550,2,2,3,27,0,1,1,0,0,0,0,1,0,0,triangle,circle,,,,,,,,,,,,,,,,,,,,,,,,,,,,,,,,,,,,,,,,,,,,,,,,,,,,,,
295258,2022-12-05_21h56.38.174,vts_reward_expectancy_bt,2022.2.4,Win32,60.40106306,Chrome,1280,720,,,a,0.7206,1,551,2,2,4,28,9,1,0,0,0,1,1,0,0,0,star,triangle,,,,,,,,,,,,,,,,,,,,,,,,,,,,,,,,,,,,,,,,,,,,,,,,,,,,,,
295258,2022-12-05_21h56.38.174,vts_reward_expectancy_bt,2022.2.4,Win32,60.40106306,Chrome,1280,720,,,l,0.9562,1,552,2,2,5,29,3,1,0,1,0,0,1,0,0,0,circle,triangle,,,,,,,,,,,,,,,,,,,,,,,,,,,,,,,,,,,,,,,,,,,,,,,,,,,,,,
295258,2022-12-05_21h56.38.174,vts_reward_expectancy_bt,2022.2.4,Win32,60.40106306,Chrome,1280,720,,,l,0.7503,10,562,2,2,6,30,8,1,0,0,1,0,0,0,0,1,hexagon,star,,,,,,,,,,,,,,,,,,,,,,,,,,,,,,,,,,,,,,,,,,,,,,,,,,,,,,
295258,2022-12-05_21h56.38.174,vts_reward_expectancy_bt,2022.2.4,Win32,60.40106306,Chrome,1280,720,,,l,1.1579,10,572,2,2,7,31,1,1,1,0,0,0,0,0,1,0,triangle,hexagon,,,,,,,,,,,,,,,,,,,,,,,,,,,,,,,,,,,,,,,,,,,,,,,,,,,,,,
295258,2022-12-05_21h56.38.174,vts_reward_expectancy_bt,2022.2.4,Win32,60.40106306,Chrome,1280,720,,,a,0.8467,1,573,2,2,8,32,7,1,0,0,1,0,0,1,0,0,hexagon,circle,,,,,,,,,,,,,,,,,,,,,,,,,,,,,,,,,,,,,,,,,,,,,,,,,,,,,,
295258,2022-12-05_21h56.38.174,vts_reward_expectancy_bt,2022.2.4,Win32,60.40106306,Chrome,1280,720,,,a,1.0587,10,583,2,2,9,33,6,1,0,0,1,0,1,0,0,0,hexagon,triangle,,,,,,,,,,,,,,,,,,,,,,,,,,,,,,,,,,,,,,,,,,,,,,,,,,,,,,
295258,2022-12-05_21h56.38.174,vts_reward_expectancy_bt,2022.2.4,Win32,60.40106306,Chrome,1280,720,,,l,0.7839,10,593,2,2,10,34,4,1,0,1,0,0,0,0,1,0,circle,hexagon,,,,,,,,,,,,,,,,,,,,,,,,,,,,,,,,,,,,,,,,,,,,,,,,,,,,,,
295258,2022-12-05_21h56.38.174,vts_reward_expectancy_bt,2022.2.4,Win32,60.40106306,Chrome,1280,720,,,l,0.7755,1,594,2,2,11,35,2,1,1,0,0,0,0,0,0,1,triangle,star,,,,,,,,,,,,,,,,,,,,,,,,,,,,,,,,,,,,,,,,,,,,,,,,,,,,,,
295258,2022-12-05_21h56.38.174,vts_reward_expectancy_bt,2022.2.4,Win32,60.40106306,Chrome,1280,720,,,,,,,,,,,,,,,,,,,,,,,160,Y,star,0,0,,0,0,0,0,0,1,,,,,,,,,,,,,,,,,,,,,,,,,,,,,,,,,,,,,,,,,,
295258,2022-12-05_21h56.38.174,vts_reward_expectancy_bt,2022.2.4,Win32,60.40106306,Chrome,1280,720,,,,,,,,,,,,,,,,,,,,,,,174,U,hexagon,0,1,d,0,1,0,1,0,1,0.7466,,,,,,,,,,,,,,,,,,,,,,,,,,,,,,,,,,,,,,,,,
295258,2022-12-05_21h56.38.174,vts_reward_expectancy_bt,2022.2.4,Win32,60.40106306,Chrome,1280,720,,,,,,,,,,,,,,,,,,,,,,,181,S,triangle,0,1,d,0,2,0,2,0,1,1.5494,,,,,,,,,,,,,,,,,,,,,,,,,,,,,,,,,,,,,,,,,
295258,2022-12-05_21h56.38.174,vts_reward_expectancy_bt,2022.2.4,Win32,60.40106306,Chrome,1280,720,,,,,,,,,,,,,,,,,,,,,,,146,H,circle,0,1,f,0,3,0,3,0,1,1.2938,,,,,,,,,,,,,,,,,,,,,,,,,,,,,,,,,,,,,,,,,
295258,2022-12-05_21h56.38.174,vts_reward_expectancy_bt,2022.2.4,Win32,60.40106306,Chrome,1280,720,,,,,,,,,,,,,,,,,,,,,,,125,W,star,0,1,f,0,4,0,4,0,1,0.8476,,,,,,,,,,,,,,,,,,,,,,,,,,,,,,,,,,,,,,,,,
295258,2022-12-05_21h56.38.174,vts_reward_expectancy_bt,2022.2.4,Win32,60.40106306,Chrome,1280,720,,,,,,,,,,,,,,,,,,,,,,,132,F,hexagon,0,1,f,0,5,0,5,0,1,0.7322,,,,,,,,,,,,,,,,,,,,,,,,,,,,,,,,,,,,,,,,,
295258,2022-12-05_21h56.38.174,vts_reward_expectancy_bt,2022.2.4,Win32,60.40106306,Chrome,1280,720,,,,,,,,,,,,,,,,,,,,,,,167,D,triangle,0,1,d,0,6,0,6,0,1,0.8247,,,,,,,,,,,,,,,,,,,,,,,,,,,,,,,,,,,,,,,,,
295258,2022-12-05_21h56.38.174,vts_reward_expectancy_bt,2022.2.4,Win32,60.40106306,Chrome,1280,720,,,,,,,,,,,,,,,,,,,,,,,139,B,circle,0,1,f,0,7,0,7,0,1,1.4996,,,,,,,,,,,,,,,,,,,,,,,,,,,,,,,,,,,,,,,,,
295258,2022-12-05_21h56.38.174,vts_reward_expectancy_bt,2022.2.4,Win32,60.40106306,Chrome,1280,720,,,,,,,,,,,,,,,,,,,,,,,160,Y,triangle,0,1,,0,8,0,8,0,1,,,,,,,,,,,,,,,,,,,,,,,,,,,,,,,,,,,,,,,,,,
295258,2022-12-05_21h56.38.174,vts_reward_expectancy_bt,2022.2.4,Win32,60.40106306,Chrome,1280,720,,,,,,,,,,,,,,,,,,,,,,,174,U,star,0,1,d,0,9,0,9,0,1,2.2711,,,,,,,,,,,,,,,,,,,,,,,,,,,,,,,,,,,,,,,,,
295258,2022-12-05_21h56.38.174,vts_reward_expectancy_bt,2022.2.4,Win32,60.40106306,Chrome,1280,720,,,,,,,,,,,,,,,,,,,,,,,160,S,circle,1,1,f,1,0,0,0,0,1,0.5817,,,,,,,,,,,,,,,,,,,,,,,,,,,,,,,,,,,,,,,,,
295258,2022-12-05_21h56.38.174,vts_reward_expectancy_bt,2022.2.4,Win32,60.40106306,Chrome,1280,720,,,,,,,,,,,,,,,,,,,,,,,181,W,triangle,1,0,f,1,1,0,1,0,1,0.5395,,,,,,,,,,,,,,,,,,,,,,,,,,,,,,,,,,,,,,,,,
295258,2022-12-05_21h56.38.174,vts_reward_expectancy_bt,2022.2.4,Win32,60.40106306,Chrome,1280,720,,,,,,,,,,,,,,,,,,,,,,,146,D,star,1,0,d,1,2,0,2,0,1,0.7043,,,,,,,,,,,,,,,,,,,,,,,,,,,,,,,,,,,,,,,,,
295258,2022-12-05_21h56.38.174,vts_reward_expectancy_bt,2022.2.4,Win32,60.40106306,Chrome,1280,720,,,,,,,,,,,,,,,,,,,,,,,125,U,hexagon,1,0,d,1,3,0,3,0,1,0.5656,,,,,,,,,,,,,,,,,,,,,,,,,,,,,,,,,,,,,,,,,
295258,2022-12-05_21h56.38.174,vts_reward_expectancy_bt,2022.2.4,Win32,60.40106306,Chrome,1280,720,,,,,,,,,,,,,,,,,,,,,,,167,F,circle,1,0,f,1,4,0,4,0,1,0.488,,,,,,,,,,,,,,,,,,,,,,,,,,,,,,,,,,,,,,,,,
295258,2022-12-05_21h56.38.174,vts_reward_expectancy_bt,2022.2.4,Win32,60.40106306,Chrome,1280,720,,,,,,,,,,,,,,,,,,,,,,,174,B,triangle,1,0,f,1,5,0,5,0,1,0.5914,,,,,,,,,,,,,,,,,,,,,,,,,,,,,,,,,,,,,,,,,
295258,2022-12-05_21h56.38.174,vts_reward_expectancy_bt,2022.2.4,Win32,60.40106306,Chrome,1280,720,,,,,,,,,,,,,,,,,,,,,,,139,Y,star,1,0,d,1,6,0,6,0,1,0.6811,,,,,,,,,,,,,,,,,,,,,,,,,,,,,,,,,,,,,,,,,
295258,2022-12-05_21h56.38.174,vts_reward_expectancy_bt,2022.2.4,Win32,60.40106306,Chrome,1280,720,,,,,,,,,,,,,,,,,,,,,,,132,H,hexagon,1,0,d,1,7,0,7,0,1,0.8149,,,,,,,,,,,,,,,,,,,,,,,,,,,,,,,,,,,,,,,,,
295258,2022-12-05_21h56.38.174,vts_reward_expectancy_bt,2022.2.4,Win32,60.40106306,Chrome,1280,720,,,,,,,,,,,,,,,,,,,,,,,160,S,triangle,1,0,f,1,8,0,8,0,1,0.9662,,,,,,,,,,,,,,,,,,,,,,,,,,,,,,,,,,,,,,,,,
295258,2022-12-05_21h56.38.174,vts_reward_expectancy_bt,2022.2.4,Win32,60.40106306,Chrome,1280,720,,,,,,,,,,,,,,,,,,,,,,,181,W,circle,1,0,f,1,9,0,9,0,1,0.5749,,,,,,,,,,,,,,,,,,,,,,,,,,,,,,,,,,,,,,,,,
295258,2022-12-05_21h56.38.174,vts_reward_expectancy_bt,2022.2.4,Win32,60.40106306,Chrome,1280,720,,,,,,,,,,,,,,,,,,,,,,,174,Y,circle,0,0,,2,,,,,,,,0,0,0,0,1,,,,,,,,,,,,,,,,,,,,,,,,,,,,,,,,,,,
295258,2022-12-05_21h56.38.174,vts_reward_expectancy_bt,2022.2.4,Win32,60.40106306,Chrome,1280,720,,,,,,,,,,,,,,,,,,,,,,,167,F,hexagon,2,1,,2,,,,,,,d,1,0,1,0,1,1.955,,,,,,,,,,,,,,,,,,,,,,,,,,,,,,,,,,
295258,2022-12-05_21h56.38.174,vts_reward_expectancy_bt,2022.2.4,Win32,60.40106306,Chrome,1280,720,,,,,,,,,,,,,,,,,,,,,,,139,S,star,2,0,,2,,,,,,,d,2,0,2,0,1,1.3084,,,,,,,,,,,,,,,,,,,,,,,,,,,,,,,,,,
295258,2022-12-05_21h56.38.174,vts_reward_expectancy_bt,2022.2.4,Win32,60.40106306,Chrome,1280,720,,,,,,,,,,,,,,,,,,,,,,,132,B,triangle,1,0,,2,,,,,,,j,3,0,3,0,1,1.573,,,,,,,,,,,,,,,,,,,,,,,,,,,,,,,,,,
295258,2022-12-05_21h56.38.174,vts_reward_expectancy_bt,2022.2.4,Win32,60.40106306,Chrome,1280,720,,,,,,,,,,,,,,,,,,,,,,,125,D,circle,1,0,,2,,,,,,,j,4,0,4,0,1,0.8457,,,,,,,,,,,,,,,,,,,,,,,,,,,,,,,,,,
295258,2022-12-05_21h56.38.174,vts_reward_expectancy_bt,2022.2.4,Win32,60.40106306,Chrome,1280,720,,,,,,,,,,,,,,,,,,,,,,,146,U,hexagon,1,0,,2,,,,,,,k,5,0,5,0,1,0.737,,,,,,,,,,,,,,,,,,,,,,,,,,,,,,,,,,
295258,2022-12-05_21h56.38.174,vts_reward_expectancy_bt,2022.2.4,Win32,60.40106306,Chrome,1280,720,,,,,,,,,,,,,,,,,,,,,,,181,W,star,1,0,,2,,,,,,,k,6,0,6,0,1,0.7014,,,,,,,,,,,,,,,,,,,,,,,,,,,,,,,,,,
295258,2022-12-05_21h56.38.174,vts_reward_expectancy_bt,2022.2.4,Win32,60.40106306,Chrome,1280,720,,,,,,,,,,,,,,,,,,,,,,,160,H,triangle,1,0,,2,,,,,,,j,7,0,7,0,1,0.6677,,,,,,,,,,,,,,,,,,,,,,,,,,,,,,,,,,
295258,2022-12-05_21h56.38.174,vts_reward_expectancy_bt,2022.2.4,Win32,60.40106306,Chrome,1280,720,,,,,,,,,,,,,,,,,,,,,,,174,Y,hexagon,1,0,,2,,,,,,,k,8,0,8,0,1,0.5829,,,,,,,,,,,,,,,,,,,,,,,,,,,,,,,,,,
295258,2022-12-05_21h56.38.174,vts_reward_expectancy_bt,2022.2.4,Win32,60.40106306,Chrome,1280,720,,,,,,,,,,,,,,,,,,,,,,,167,F,star,1,0,,2,,,,,,,j,9,0,9,0,1,0.6776,,,,,,,,,,,,,,,,,,,,,,,,,,,,,,,,,,
295258,2022-12-05_21h56.38.174,vts_reward_expectancy_bt,2022.2.4,Win32,60.40106306,Chrome,1280,720,,,,,,,,,,,,,,,,,,,,,,,181,H,triangle,1,0,,3,,,,,,,j,0,0,0,0,1,0.5847,,,,,,,,,,,,,,,,,,,,,,,,,,,,,,,,,,
295258,2022-12-05_21h56.38.174,vts_reward_expectancy_bt,2022.2.4,Win32,60.40106306,Chrome,1280,720,,,,,,,,,,,,,,,,,,,,,,,174,W,hexagon,1,0,,3,,,,,,,k,1,0,1,0,1,0.7452,,,,,,,,,,,,,,,,,,,,,,,,,,,,,,,,,,
295258,2022-12-05_21h56.38.174,vts_reward_expectancy_bt,2022.2.4,Win32,60.40106306,Chrome,1280,720,,,,,,,,,,,,,,,,,,,,,,,167,D,star,1,0,,3,,,,,,,j,2,0,2,0,1,0.6054,,,,,,,,,,,,,,,,,,,,,,,,,,,,,,,,,,
295258,2022-12-05_21h56.38.174,vts_reward_expectancy_bt,2022.2.4,Win32,60.40106306,Chrome,1280,720,,,,,,,,,,,,,,,,,,,,,,,125,Y,circle,1,0,,3,,,,,,,k,3,0,3,0,1,0.6776,,,,,,,,,,,,,,,,,,,,,,,,,,,,,,,,,,
295258,2022-12-05_21h56.38.174,vts_reward_expectancy_bt,2022.2.4,Win32,60.40106306,Chrome,1280,720,,,,,,,,,,,,,,,,,,,,,,,146,U,triangle,1,0,,3,,,,,,,k,4,0,4,0,1,0.7889,,,,,,,,,,,,,,,,,,,,,,,,,,,,,,,,,,
295258,2022-12-05_21h56.38.174,vts_reward_expectancy_bt,2022.2.4,Win32,60.40106306,Chrome,1280,720,,,,,,,,,,,,,,,,,,,,,,,139,F,hexagon,1,0,,3,,,,,,,j,5,0,5,0,1,0.651,,,,,,,,,,,,,,,,,,,,,,,,,,,,,,,,,,
295258,2022-12-05_21h56.38.174,vts_reward_expectancy_bt,2022.2.4,Win32,60.40106306,Chrome,1280,720,,,,,,,,,,,,,,,,,,,,,,,132,S,star,1,0,,3,,,,,,,k,6,0,6,0,1,0.7223,,,,,,,,,,,,,,,,,,,,,,,,,,,,,,,,,,
295258,2022-12-05_21h56.38.174,vts_reward_expectancy_bt,2022.2.4,Win32,60.40106306,Chrome,1280,720,,,,,,,,,,,,,,,,,,,,,,,160,B,circle,1,0,,3,,,,,,,j,7,0,7,0,1,0.6506,,,,,,,,,,,,,,,,,,,,,,,,,,,,,,,,,,
295258,2022-12-05_21h56.38.174,vts_reward_expectancy_bt,2022.2.4,Win32,60.40106306,Chrome,1280,720,,,,,,,,,,,,,,,,,,,,,,,181,H,triangle,1,0,,3,,,,,,,j,8,0,8,0,1,0.7472,,,,,,,,,,,,,,,,,,,,,,,,,,,,,,,,,,
295258,2022-12-05_21h56.38.174,vts_reward_expectancy_bt,2022.2.4,Win32,60.40106306,Chrome,1280,720,,,,,,,,,,,,,,,,,,,,,,,174,W,circle,1,0,,3,,,,,,,k,9,0,9,0,1,0.6152,,,,,,,,,,,,,,,,,,,,,,,,,,,,,,,,,,
295258,2022-12-05_21h56.38.174,vts_reward_expectancy_bt,2022.2.4,Win32,60.40106306,Chrome,1280,720,,,,,0,594,,,,,,,,,,,,,,,,,181,S,triangle,0,0,,4,,,,,,,,,,,,,,-1,number,NA,d,1.7112,vtsPrac,0,0,0,0,1,,,,,,,,,,,,,,,,,,,,,,,
295258,2022-12-05_21h56.38.174,vts_reward_expectancy_bt,2022.2.4,Win32,60.40106306,Chrome,1280,720,,,,,0,594,,,,,,,,,,,,,,,,,139,Y,circle,1,1,,4,,,,,,,,,,,,,,repeat,number,numRpt,d,1.6915,vtsPrac,1,0,1,0,1,,,,,,,,,,,,,,,,,,,,,,,
295258,2022-12-05_21h56.38.174,vts_reward_expectancy_bt,2022.2.4,Win32,60.40106306,Chrome,1280,720,,,,,0,594,,,,,,,,,,,,,,,,,174,U,triangle,1,0,,4,,,,,,,,,,,,,,switch,letter,lettSwt,k,0.9534,vtsPrac,2,0,2,0,1,,,,,,,,,,,,,,,,,,,,,,,
295258,2022-12-05_21h56.38.174,vts_reward_expectancy_bt,2022.2.4,Win32,60.40106306,Chrome,1280,720,,,,,0,594,,,,,,,,,,,,,,,,,160,F,circle,1,0,,4,,,,,,,,,,,,,,repeat,letter,lettRpt,j,0.8341,vtsPrac,3,0,3,0,1,,,,,,,,,,,,,,,,,,,,,,,
295258,2022-12-05_21h56.38.174,vts_reward_expectancy_bt,2022.2.4,Win32,60.40106306,Chrome,1280,720,,,,,0,594,,,,,,,,,,,,,,,,,181,S,triangle,1,0,,4,,,,,,,,,,,,,,switch,number,numSwt,f,0.7515,vtsPrac,4,0,4,0,1,,,,,,,,,,,,,,,,,,,,,,,
295258,2022-12-05_21h56.38.174,vts_reward_expectancy_bt,2022.2.4,Win32,60.40106306,Chrome,1280,720,,,,,0,594,,,,,,,,,,,,,,,,,139,Y,hexagon,1,0,,4,,,,,,,,,,,,,,repeat,number,numRpt,d,1.1686,vtsPrac,5,0,5,0,1,,,,,,,,,,,,,,,,,,,,,,,
295258,2022-12-05_21h56.38.174,vts_reward_expectancy_bt,2022.2.4,Win32,60.40106306,Chrome,1280,720,,,,,0,594,,,,,,,,,,,,,,,,,174,U,star,1,0,,4,,,,,,,,,,,,,,switch,letter,lettSwt,k,1.8517,vtsPrac,6,0,6,0,1,,,,,,,,,,,,,,,,,,,,,,,
295258,2022-12-05_21h56.38.174,vts_reward_expectancy_bt,2022.2.4,Win32,60.40106306,Chrome,1280,720,,,,,0,594,,,,,,,,,,,,,,,,,160,F,circle,1,0,,4,,,,,,,,,,,,,,repeat,letter,lettRpt,j,0.7677,vtsPrac,7,0,7,0,1,,,,,,,,,,,,,,,,,,,,,,,
295258,2022-12-05_21h56.38.174,vts_reward_expectancy_bt,2022.2.4,Win32,60.40106306,Chrome,1280,720,,,,,0,594,,,,,,,,,,,,,,,,,146,F,star,1,0,,4,,,,,,,,,,,,,,switch,number,numSwt,d,0.8613,vtsPrac,8,0,8,0,1,,,,,,,,,,,,,,,,,,,,,,,
295258,2022-12-05_21h56.38.174,vts_reward_expectancy_bt,2022.2.4,Win32,60.40106306,Chrome,1280,720,,,,,0,594,,,,,,,,,,,,,,,,,167,W,circle,1,0,,4,,,,,,,,,,,,,,repeat,number,numRpt,f,1.0008,vtsPrac,9,0,9,0,1,,,,,,,,,,,,,,,,,,,,,,,
295258,2022-12-05_21h56.38.174,vts_reward_expectancy_bt,2022.2.4,Win32,60.40106306,Chrome,1280,720,,,,,0,594,,,,,,,,,,,,,,,,,139,S,circle,1,0,,4,,,,,,,,,,,,,,switch,letter,lettSwt,k,1.5095,vtsPrac,10,0,10,0,1,,,,,,,,,,,,,,,,,,,,,,,
295258,2022-12-05_21h56.38.174,vts_reward_expectancy_bt,2022.2.4,Win32,60.40106306,Chrome,1280,720,,,,,0,594,,,,,,,,,,,,,,,,,160,D,star,1,0,,4,,,,,,,,,,,,,,repeat,letter,lettRpt,j,1.586,vtsPrac,11,0,11,0,1,,,,,,,,,,,,,,,,,,,,,,,
295258,2022-12-05_21h56.38.174,vts_reward_expectancy_bt,2022.2.4,Win32,60.40106306,Chrome,1280,720,,,,,0,594,,,,,,,,,,,,,,,,,146,S,circle,1,0,,4,,,,,,,,,,,,,,switch,number,numSwt,d,1.3081,vtsPrac,12,0,12,0,1,,,,,,,,,,,,,,,,,,,,,,,
295258,2022-12-05_21h56.38.174,vts_reward_expectancy_bt,2022.2.4,Win32,60.40106306,Chrome,1280,720,,,,,0,594,,,,,,,,,,,,,,,,,167,F,triangle,1,0,,4,,,,,,,,,,,,,,repeat,number,numRpt,f,0.8428,vtsPrac,13,0,13,0,1,,,,,,,,,,,,,,,,,,,,,,,
295258,2022-12-05_21h56.38.174,vts_reward_expectancy_bt,2022.2.4,Win32,60.40106306,Chrome,1280,720,,,,,0,594,,,,,,,,,,,,,,,,,160,B,star,1,0,,4,,,,,,,,,,,,,,switch,letter,lettSwt,j,1.3005,vtsPrac,14,0,14,0,1,,,,,,,,,,,,,,,,,,,,,,,
295258,2022-12-05_21h56.38.174,vts_reward_expectancy_bt,2022.2.4,Win32,60.40106306,Chrome,1280,720,,,,,0,594,,,,,,,,,,,,,,,,,181,H,hexagon,0,0,,4,,,,,,,,,,,,,,repeat,letter,NA,k,1.4196,vtsPrac,15,0,15,0,1,,,,,,,,,,,,,,,,,,,,,,,
295258,2022-12-05_21h56.38.174,vts_reward_expectancy_bt,2022.2.4,Win32,60.40106306,Chrome,1280,720,,,,,0,594,,,,,,,,,,,,,,,,,139,S,triangle,1,1,,4,,,,,,,,,,,,,,switch,number,numSwt,d,0.9673,vtsPrac,16,0,16,0,1,,,,,,,,,,,,,,,,,,,,,,,
295258,2022-12-05_21h56.38.174,vts_reward_expectancy_bt,2022.2.4,Win32,60.40106306,Chrome,1280,720,,,,,0,594,,,,,,,,,,,,,,,,,125,H,hexagon,1,0,,4,,,,,,,,,,,,,,repeat,number,numRpt,d,0.7446,vtsPrac,17,0,17,0,1,,,,,,,,,,,,,,,,,,,,,,,
295258,2022-12-05_21h56.38.174,vts_reward_expectancy_bt,2022.2.4,Win32,60.40106306,Chrome,1280,720,,,,,0,594,,,,,,,,,,,,,,,,,174,U,triangle,1,0,,4,,,,,,,,,,,,,,switch,letter,lettSwt,k,1.8004,vtsPrac,18,0,18,0,1,,,,,,,,,,,,,,,,,,,,,,,
295258,2022-12-05_21h56.38.174,vts_reward_expectancy_bt,2022.2.4,Win32,60.40106306,Chrome,1280,720,,,,,0,594,,,,,,,,,,,,,,,,,160,Y,circle,1,0,,4,,,,,,,,,,,,,,repeat,letter,lettRpt,k,0.9936,vtsPrac,19,0,19,0,1,,,,,,,,,,,,,,,,,,,,,,,
295258,2022-12-05_21h56.38.174,vts_reward_expectancy_bt,2022.2.4,Win32,60.40106306,Chrome,1280,720,,,,,0,594,,,,,,,,,,,,,,,,,139,F,triangle,1,0,,4,,,,,,,,,,,,,,switch,number,numSwt,d,0.5805,vtsPrac,20,0,20,0,1,,,,,,,,,,,,,,,,,,,,,,,
295258,2022-12-05_21h56.38.174,vts_reward_expectancy_bt,2022.2.4,Win32,60.40106306,Chrome,1280,720,,,,,0,594,,,,,,,,,,,,,,,,,125,U,circle,1,0,,4,,,,,,,,,,,,,,repeat,number,numRpt,d,0.7333,vtsPrac,21,0,21,0,1,,,,,,,,,,,,,,,,,,,,,,,
295258,2022-12-05_21h56.38.174,vts_reward_expectancy_bt,2022.2.4,Win32,60.40106306,Chrome,1280,720,,,,,0,594,,,,,,,,,,,,,,,,,132,B,triangle,1,0,,4,,,,,,,,,,,,,,switch,letter,lettSwt,j,1.3197,vtsPrac,22,0,22,0,1,,,,,,,,,,,,,,,,,,,,,,,
295258,2022-12-05_21h56.38.174,vts_reward_expectancy_bt,2022.2.4,Win32,60.40106306,Chrome,1280,720,,,,,0,594,,,,,,,,,,,,,,,,,167,D,star,1,0,,4,,,,,,,,,,,,,,repeat,letter,lettRpt,j,0.6626,vtsPrac,23,0,23,0,1,,,,,,,,,,,,,,,,,,,,,,,
295258,2022-12-05_21h56.38.174,vts_reward_expectancy_bt,2022.2.4,Win32,60.40106306,Chrome,1280,720,,,,,0,594,,,,,,,,,,,,,,,,,125,B,hexagon,1,0,,4,,,,,,,,,,,,,,switch,number,numSwt,d,0.6493,vtsPrac,24,0,24,0,1,,,,,,,,,,,,,,,,,,,,,,,
295258,2022-12-05_21h56.38.174,vts_reward_expectancy_bt,2022.2.4,Win32,60.40106306,Chrome,1280,720,,,,,0,594,,,,,,,,,,,,,,,,,146,W,star,1,0,,4,,,,,,,,,,,,,,repeat,number,numRpt,d,1.5509,vtsPrac,25,0,25,0,1,,,,,,,,,,,,,,,,,,,,,,,
295258,2022-12-05_21h56.38.174,vts_reward_expectancy_bt,2022.2.4,Win32,60.40106306,Chrome,1280,720,,,,,0,594,,,,,,,,,,,,,,,,,181,Y,circle,1,0,,4,,,,,,,,,,,,,,repeat,number,numRpt,f,1.7917,vtsPrac,26,0,26,0,1,,,,,,,,,,,,,,,,,,,,,,,
295258,2022-12-05_21h56.38.174,vts_reward_expectancy_bt,2022.2.4,Win32,60.40106306,Chrome,1280,720,,,,,0,594,,,,,,,,,,,,,,,,,160,D,hexagon,1,0,,4,,,,,,,,,,,,,,switch,letter,lettSwt,j,0.8851,vtsPrac,27,0,27,0,1,,,,,,,,,,,,,,,,,,,,,,,
295258,2022-12-05_21h56.38.174,vts_reward_expectancy_bt,2022.2.4,Win32,60.40106306,Chrome,1280,720,,,,,0,594,,,,,,,,,,,,,,,,,132,W,triangle,1,0,,4,,,,,,,,,,,,,,repeat,letter,lettRpt,k,0.8803,vtsPrac,28,0,28,0,1,,,,,,,,,,,,,,,,,,,,,,,
295258,2022-12-05_21h56.38.174,vts_reward_expectancy_bt,2022.2.4,Win32,60.40106306,Chrome,1280,720,,,,,0,594,,,,,,,,,,,,,,,,,160,H,hexagon,1,0,,4,,,,,,,,,,,,,,repeat,letter,lettRpt,j,0.8177,vtsPrac,29,0,29,0,1,,,,,,,,,,,,,,,,,,,,,,,
295258,2022-12-05_21h56.38.174,vts_reward_expectancy_bt,2022.2.4,Win32,60.40106306,Chrome,1280,720,,,,,0,594,,,,,,,,,,,,,,,,,125,Y,circle,1,0,,4,,,,,,,,,,,,,,switch,number,numSwt,d,1.6559,vtsPrac,30,0,30,0,1,,,,,,,,,,,,,,,,,,,,,,,
295258,2022-12-05_21h56.38.174,vts_reward_expectancy_bt,2022.2.4,Win32,60.40106306,Chrome,1280,720,,,,,0,594,,,,,,,,,,,,,,,,,174,B,star,1,0,,4,,,,,,,,,,,,,,repeat,number,numRpt,f,1.4018,vtsPrac,31,0,31,0,1,,,,,,,,,,,,,,,,,,,,,,,
295258,2022-12-05_21h56.38.174,vts_reward_expectancy_bt,2022.2.4,Win32,60.40106306,Chrome,1280,720,,,,,,,,,,,,,,,,,,,,,,,,,,,,,,,,,,,,,,,,,,,,,,,,,,,,,,,,,,,,,,,,,,,,,,,,,,,,
295258,2022-12-05_21h56.38.174,vts_reward_expectancy_bt,2022.2.4,Win32,60.40106306,Chrome,1280,720,,,,,,,,,,,,,,,,,,,,,,,,,,,,,,,,,,,,,,,,,,,,,,,,,,,,,,,,,,,,,,,,,,,,,,,,,,,,
295258,2022-12-05_21h56.38.174,vts_reward_expectancy_bt,2022.2.4,Win32,60.40106306,Chrome,1280,720,,,,,0,594,,,,,,,,,,,,,,,,,139,S,hexagon,1,0,,,,,,,,,,,,,,,,switch,letter,lettSwt,k,1.2172,noRew,,,,,,0,0,0,0,0,1,,,,,,,,,,,,,,,,,
295258,2022-12-05_21h56.38.174,vts_reward_expectancy_bt,2022.2.4,Win32,60.40106306,Chrome,1280,720,,,,,0,594,,,,,,,,,,,,,,,,,146,W,star,1,0,,,,,,,,,,,,,,,,repeat,letter,lettRpt,k,0.6781,noRew,,,,,,0,1,0,1,0,1,,,,,,,,,,,,,,,,,
295258,2022-12-05_21h56.38.174,vts_reward_expectancy_bt,2022.2.4,Win32,60.40106306,Chrome,1280,720,,,,,0,594,,,,,,,,,,,,,,,,,125,B,hexagon,1,0,,,,,,,,,,,,,,,,repeat,letter,lettRpt,j,0.5247,noRew,,,,,,0,2,0,2,0,1,,,,,,,,,,,,,,,,,
295258,2022-12-05_21h56.38.174,vts_reward_expectancy_bt,2022.2.4,Win32,60.40106306,Chrome,1280,720,,,,,0,594,,,,,,,,,,,,,,,,,167,H,star,1,0,,,,,,,,,,,,,,,,repeat,letter,lettRpt,j,0.5678,noRew,,,,,,0,3,0,3,0,1,,,,,,,,,,,,,,,,,
295258,2022-12-05_21h56.38.174,vts_reward_expectancy_bt,2022.2.4,Win32,60.40106306,Chrome,1280,720,,,,,0,594,,,,,,,,,,,,,,,,,139,S,hexagon,1,0,,,,,,,,,,,,,,,,repeat,letter,lettRpt,k,0.5259,noRew,,,,,,0,4,0,4,0,1,,,,,,,,,,,,,,,,,
295258,2022-12-05_21h56.38.174,vts_reward_expectancy_bt,2022.2.4,Win32,60.40106306,Chrome,1280,720,,,,,0,594,,,,,,,,,,,,,,,,,146,W,triangle,1,0,,,,,,,,,,,,,,,,switch,number,numSwt,d,0.7258,noRew,,,,,,0,5,0,5,0,1,,,,,,,,,,,,,,,,,
295258,2022-12-05_21h56.38.174,vts_reward_expectancy_bt,2022.2.4,Win32,60.40106306,Chrome,1280,720,,,,,0,594,,,,,,,,,,,,,,,,,125,B,circle,1,0,,,,,,,,,,,,,,,,repeat,number,numRpt,d,0.6071,noRew,,,,,,0,6,0,6,0,1,,,,,,,,,,,,,,,,,
295258,2022-12-05_21h56.38.174,vts_reward_expectancy_bt,2022.2.4,Win32,60.40106306,Chrome,1280,720,,,,,0,594,,,,,,,,,,,,,,,,,167,H,triangle,1,0,,,,,,,,,,,,,,,,repeat,number,numRpt,f,0.7775,noRew,,,,,,0,7,0,7,0,1,,,,,,,,,,,,,,,,,
295258,2022-12-05_21h56.38.174,vts_reward_expectancy_bt,2022.2.4,Win32,60.40106306,Chrome,1280,720,,,,,0,594,,,,,,,,,,,,,,,,,167,S,star,1,0,,,,,,,,,,,,,,,,repeat,number,numRpt,f,0.8014,noRew,,,,,,0,8,0,8,0,1,,,,,,,,,,,,,,,,,
295258,2022-12-05_21h56.38.174,vts_reward_expectancy_bt,2022.2.4,Win32,60.40106306,Chrome,1280,720,,,,,0,594,,,,,,,,,,,,,,,,,160,W,circle,1,0,,,,,,,,,,,,,,,,repeat,number,numRpt,f,0.7095,noRew,,,,,,0,9,0,9,0,1,,,,,,,,,,,,,,,,,
295258,2022-12-05_21h56.38.174,vts_reward_expectancy_bt,2022.2.4,Win32,60.40106306,Chrome,1280,720,,,,,0,594,,,,,,,,,,,,,,,,,132,F,triangle,1,0,,,,,,,,,,,,,,,,switch,letter,lettSwt,j,1.2608,noRew,,,,,,0,10,0,10,0,1,,,,,,,,,,,,,,,,,
295258,2022-12-05_21h56.38.174,vts_reward_expectancy_bt,2022.2.4,Win32,60.40106306,Chrome,1280,720,,,,,0,594,,,,,,,,,,,,,,,,,181,B,star,1,0,,,,,,,,,,,,,,,,repeat,letter,lettRpt,j,0.8106,noRew,,,,,,0,11,0,11,0,1,,,,,,,,,,,,,,,,,
295258,2022-12-05_21h56.38.174,vts_reward_expectancy_bt,2022.2.4,Win32,60.40106306,Chrome,1280,720,,,,,0,594,,,,,,,,,,,,,,,,,125,F,triangle,1,0,,,,,,,,,,,,,,,,repeat,letter,lettRpt,j,0.6342,noRew,,,,,,0,12,0,12,0,1,,,,,,,,,,,,,,,,,
295258,2022-12-05_21h56.38.174,vts_reward_expectancy_bt,2022.2.4,Win32,60.40106306,Chrome,1280,720,,,,,0,594,,,,,,,,,,,,,,,,,160,H,star,1,0,,,,,,,,,,,,,,,,repeat,letter,lettRpt,j,0.6782,noRew,,,,,,0,13,0,13,0,1,,,,,,,,,,,,,,,,,
295258,2022-12-05_21h56.38.174,vts_reward_expectancy_bt,2022.2.4,Win32,60.40106306,Chrome,1280,720,,,,,0,594,,,,,,,,,,,,,,,,,174,W,hexagon,1,0,,,,,,,,,,,,,,,,repeat,letter,lettRpt,k,0.5179,noRew,,,,,,0,14,0,14,0,1,,,,,,,,,,,,,,,,,
295258,2022-12-05_21h56.38.174,vts_reward_expectancy_bt,2022.2.4,Win32,60.40106306,Chrome,1280,720,,,,,0,594,,,,,,,,,,,,,,,,,146,Y,circle,1,0,,,,,,,,,,,,,,,,switch,number,numSwt,d,0.7583,noRew,,,,,,0,15,0,15,0,1,,,,,,,,,,,,,,,,,
295258,2022-12-05_21h56.38.174,vts_reward_expectancy_bt,2022.2.4,Win32,60.40106306,Chrome,1280,720,,,,,0,594,,,,,,,,,,,,,,,,,174,Y,star,1,0,,,,,,,,,,,,,,,,repeat,number,numRpt,f,0.6501,noRew,,,,,,0,16,0,16,0,1,,,,,,,,,,,,,,,,,
295258,2022-12-05_21h56.38.174,vts_reward_expectancy_bt,2022.2.4,Win32,60.40106306,Chrome,1280,720,,,,,0,594,,,,,,,,,,,,,,,,,167,D,triangle,1,0,,,,,,,,,,,,,,,,repeat,number,numRpt,f,0.6811,noRew,,,,,,0,17,0,17,0,1,,,,,,,,,,,,,,,,,
295258,2022-12-05_21h56.38.174,vts_reward_expectancy_bt,2022.2.4,Win32,60.40106306,Chrome,1280,720,,,,,0,594,,,,,,,,,,,,,,,,,139,B,star,1,0,,,,,,,,,,,,,,,,repeat,number,numRpt,d,0.4514,noRew,,,,,,0,18,0,18,0,1,,,,,,,,,,,,,,,,,
295258,2022-12-05_21h56.38.174,vts_reward_expectancy_bt,2022.2.4,Win32,60.40106306,Chrome,1280,720,,,,,0,594,,,,,,,,,,,,,,,,,132,F,hexagon,1,0,,,,,,,,,,,,,,,,repeat,number,numRpt,d,0.7545,noRew,,,,,,0,19,0,19,0,1,,,,,,,,,,,,,,,,,
295258,2022-12-05_21h56.38.174,vts_reward_expectancy_bt,2022.2.4,Win32,60.40106306,Chrome,1280,720,,,,,0,594,,,,,,,,,,,,,,,,,125,H,hexagon,1,0,,,,,,,,,,,,,,,,switch,letter,lettSwt,j,0.6849,noRew,,,,,,0,20,0,20,0,1,,,,,,,,,,,,,,,,,
295258,2022-12-05_21h56.38.174,vts_reward_expectancy_bt,2022.2.4,Win32,60.40106306,Chrome,1280,720,,,,,0,594,,,,,,,,,,,,,,,,,146,W,triangle,1,0,,,,,,,,,,,,,,,,repeat,letter,lettRpt,k,0.5051,noRew,,,,,,0,21,0,21,0,1,,,,,,,,,,,,,,,,,
295258,2022-12-05_21h56.38.174,vts_reward_expectancy_bt,2022.2.4,Win32,60.40106306,Chrome,1280,720,,,,,0,594,,,,,,,,,,,,,,,,,174,B,triangle,1,0,,,,,,,,,,,,,,,,repeat,letter,lettRpt,j,0.6235,noRew,,,,,,0,22,0,22,0,1,,,,,,,,,,,,,,,,,
295258,2022-12-05_21h56.38.174,vts_reward_expectancy_bt,2022.2.4,Win32,60.40106306,Chrome,1280,720,,,,,0,594,,,,,,,,,,,,,,,,,181,F,star,1,0,,,,,,,,,,,,,,,,repeat,letter,lettRpt,j,0.5174,noRew,,,,,,0,23,0,23,0,1,,,,,,,,,,,,,,,,,
295258,2022-12-05_21h56.38.174,vts_reward_expectancy_bt,2022.2.4,Win32,60.40106306,Chrome,1280,720,,,,,0,594,,,,,,,,,,,,,,,,,167,F,star,1,0,,,,,,,,,,,,,,,,repeat,letter,lettRpt,j,0.7695,noRew,,,,,,0,24,0,24,0,1,,,,,,,,,,,,,,,,,
295258,2022-12-05_21h56.38.174,vts_reward_expectancy_bt,2022.2.4,Win32,60.40106306,Chrome,1280,720,,,,,0,594,,,,,,,,,,,,,,,,,181,U,hexagon,1,0,,,,,,,,,,,,,,,,switch,number,numSwt,f,0.717,noRew,,,,,,0,25,0,25,0,1,,,,,,,,,,,,,,,,,
295258,2022-12-05_21h56.38.174,vts_reward_expectancy_bt,2022.2.4,Win32,60.40106306,Chrome,1280,720,,,,,0,594,,,,,,,,,,,,,,,,,174,H,hexagon,1,0,,,,,,,,,,,,,,,,repeat,number,numRpt,f,0.6745,noRew,,,,,,0,26,0,26,0,1,,,,,,,,,,,,,,,,,
295258,2022-12-05_21h56.38.174,vts_reward_expectancy_bt,2022.2.4,Win32,60.40106306,Chrome,1280,720,,,,,0,594,,,,,,,,,,,,,,,,,125,B,star,1,0,,,,,,,,,,,,,,,,repeat,number,numRpt,d,0.5034,noRew,,,,,,0,27,0,27,0,1,,,,,,,,,,,,,,,,,
295258,2022-12-05_21h56.38.174,vts_reward_expectancy_bt,2022.2.4,Win32,60.40106306,Chrome,1280,720,,,,,0,594,,,,,,,,,,,,,,,,,181,U,triangle,1,0,,,,,,,,,,,,,,,,repeat,number,numRpt,f,0.6722,noRew,,,,,,0,28,0,28,0,1,,,,,,,,,,,,,,,,,
295258,2022-12-05_21h56.38.174,vts_reward_expectancy_bt,2022.2.4,Win32,60.40106306,Chrome,1280,720,,,,,0,594,,,,,,,,,,,,,,,,,139,B,circle,1,0,,,,,,,,,,,,,,,,repeat,number,numRpt,d,0.7742,noRew,,,,,,0,29,0,29,0,1,,,,,,,,,,,,,,,,,
295258,2022-12-05_21h56.38.174,vts_reward_expectancy_bt,2022.2.4,Win32,60.40106306,Chrome,1280,720,,,,,0,594,,,,,,,,,,,,,,,,,160,H,star,1,0,,,,,,,,,,,,,,,,repeat,number,numRpt,f,0.9642,noRew,,,,,,0,30,0,30,0,1,,,,,,,,,,,,,,,,,
295258,2022-12-05_21h56.38.174,vts_reward_expectancy_bt,2022.2.4,Win32,60.40106306,Chrome,1280,720,,,,,0,594,,,,,,,,,,,,,,,,,125,W,circle,1,0,,,,,,,,,,,,,,,,switch,letter,lettSwt,k,0.7019,noRew,,,,,,0,31,0,31,0,1,,,,,,,,,,,,,,,,,
295258,2022-12-05_21h56.38.174,vts_reward_expectancy_bt,2022.2.4,Win32,60.40106306,Chrome,1280,720,,,,,0,594,,,,,,,,,,,,,,,,,181,D,circle,1,0,,,,,,,,,,,,,,,,repeat,letter,lettRpt,j,0.7508,noRew,,,,,,0,32,0,32,0,1,,,,,,,,,,,,,,,,,
295258,2022-12-05_21h56.38.174,vts_reward_expectancy_bt,2022.2.4,Win32,60.40106306,Chrome,1280,720,,,,,0,594,,,,,,,,,,,,,,,,,160,U,triangle,1,0,,,,,,,,,,,,,,,,repeat,letter,lettRpt,k,0.6866,noRew,,,,,,0,33,0,33,0,1,,,,,,,,,,,,,,,,,
295258,2022-12-05_21h56.38.174,vts_reward_expectancy_bt,2022.2.4,Win32,60.40106306,Chrome,1280,720,,,,,0,594,,,,,,,,,,,,,,,,,146,B,triangle,1,0,,,,,,,,,,,,,,,,repeat,letter,lettRpt,j,0.7041,noRew,,,,,,0,34,0,34,0,1,,,,,,,,,,,,,,,,,
295258,2022-12-05_21h56.38.174,vts_reward_expectancy_bt,2022.2.4,Win32,60.40106306,Chrome,1280,720,,,,,0,594,,,,,,,,,,,,,,,,,139,S,circle,1,0,,,,,,,,,,,,,,,,repeat,letter,lettRpt,k,0.8873,noRew,,,,,,0,35,0,35,0,1,,,,,,,,,,,,,,,,,
295258,2022-12-05_21h56.38.174,vts_reward_expectancy_bt,2022.2.4,Win32,60.40106306,Chrome,1280,720,,,,,0,594,,,,,,,,,,,,,,,,,174,S,triangle,1,0,,,,,,,,,,,,,,,,repeat,letter,lettRpt,k,1.4944,noRew,,,,,,0,36,0,36,0,1,,,,,,,,,,,,,,,,,
295258,2022-12-05_21h56.38.174,vts_reward_expectancy_bt,2022.2.4,Win32,60.40106306,Chrome,1280,720,,,,,0,594,,,,,,,,,,,,,,,,,167,D,star,1,0,,,,,,,,,,,,,,,,switch,number,numSwt,f,1.2121,noRew,,,,,,0,37,0,37,0,1,,,,,,,,,,,,,,,,,
295258,2022-12-05_21h56.38.174,vts_reward_expectancy_bt,2022.2.4,Win32,60.40106306,Chrome,1280,720,,,,,0,594,,,,,,,,,,,,,,,,,139,H,hexagon,1,0,,,,,,,,,,,,,,,,repeat,number,numRpt,d,0.676,noRew,,,,,,0,38,0,38,0,1,,,,,,,,,,,,,,,,,
295258,2022-12-05_21h56.38.174,vts_reward_expectancy_bt,2022.2.4,Win32,60.40106306,Chrome,1280,720,,,,,0,594,,,,,,,,,,,,,,,,,132,W,triangle,1,0,,,,,,,,,,,,,,,,repeat,number,numRpt,d,0.6253,noRew,,,,,,0,39,0,39,0,1,,,,,,,,,,,,,,,,,
295258,2022-12-05_21h56.38.174,vts_reward_expectancy_bt,2022.2.4,Win32,60.40106306,Chrome,1280,720,,,,,0,594,,,,,,,,,,,,,,,,,174,S,circle,1,0,,,,,,,,,,,,,,,,repeat,number,numRpt,f,0.7207,noRew,,,,,,0,40,0,40,0,1,,,,,,,,,,,,,,,,,
295258,2022-12-05_21h56.38.174,vts_reward_expectancy_bt,2022.2.4,Win32,60.40106306,Chrome,1280,720,,,,,0,594,,,,,,,,,,,,,,,,,139,H,triangle,1,0,,,,,,,,,,,,,,,,repeat,number,numRpt,d,0.6831,noRew,,,,,,0,41,0,41,0,1,,,,,,,,,,,,,,,,,
295258,2022-12-05_21h56.38.174,vts_reward_expectancy_bt,2022.2.4,Win32,60.40106306,Chrome,1280,720,,,,,0,594,,,,,,,,,,,,,,,,,181,D,star,1,0,,,,,,,,,,,,,,,,switch,letter,lettSwt,j,0.9107,noRew,,,,,,0,42,0,42,0,1,,,,,,,,,,,,,,,,,
295258,2022-12-05_21h56.38.174,vts_reward_expectancy_bt,2022.2.4,Win32,60.40106306,Chrome,1280,720,,,,,0,594,,,,,,,,,,,,,,,,,160,F,circle,0,0,,,,,,,,,,,,,,,,repeat,letter,NA,k,0.5346,noRew,,,,,,0,43,0,43,0,1,,,,,,,,,,,,,,,,,
295258,2022-12-05_21h56.38.174,vts_reward_expectancy_bt,2022.2.4,Win32,60.40106306,Chrome,1280,720,,,,,0,594,,,,,,,,,,,,,,,,,132,H,star,1,1,,,,,,,,,,,,,,,,repeat,letter,lettRpt,j,0.6088,noRew,,,,,,0,44,0,44,0,1,,,,,,,,,,,,,,,,,
295258,2022-12-05_21h56.38.174,vts_reward_expectancy_bt,2022.2.4,Win32,60.40106306,Chrome,1280,720,,,,,0,594,,,,,,,,,,,,,,,,,146,B,circle,1,0,,,,,,,,,,,,,,,,repeat,letter,lettRpt,j,0.511,noRew,,,,,,0,45,0,45,0,1,,,,,,,,,,,,,,,,,
295258,2022-12-05_21h56.38.174,vts_reward_expectancy_bt,2022.2.4,Win32,60.40106306,Chrome,1280,720,,,,,0,594,,,,,,,,,,,,,,,,,125,D,triangle,1,0,,,,,,,,,,,,,,,,repeat,letter,lettRpt,j,0.8337,noRew,,,,,,0,46,0,46,0,1,,,,,,,,,,,,,,,,,
295258,2022-12-05_21h56.38.174,vts_reward_expectancy_bt,2022.2.4,Win32,60.40106306,Chrome,1280,720,,,,,0,594,,,,,,,,,,,,,,,,,167,W,star,1,0,,,,,,,,,,,,,,,,switch,number,numSwt,f,0.688,noRew,,,,,,0,47,0,47,0,1,,,,,,,,,,,,,,,,,
295258,2022-12-05_21h56.38.174,vts_reward_expectancy_bt,2022.2.4,Win32,60.40106306,Chrome,1280,720,,,,,0,594,,,,,,,,,,,,,,,,,132,D,hexagon,1,0,,,,,,,,,,,,,,,,repeat,number,numRpt,d,0.7173,noRew,,,,,,0,48,0,48,0,1,,,,,,,,,,,,,,,,,
295258,2022-12-05_21h56.38.174,vts_reward_expectancy_bt,2022.2.4,Win32,60.40106306,Chrome,1280,720,,,,,0,594,,,,,,,,,,,,,,,,,125,F,star,1,0,,,,,,,,,,,,,,,,repeat,number,numRpt,d,0.54,noRew,,,,,,0,49,0,49,0,1,,,,,,,,,,,,,,,,,
295258,2022-12-05_21h56.38.174,vts_reward_expectancy_bt,2022.2.4,Win32,60.40106306,Chrome,1280,720,,,,,0,594,,,,,,,,,,,,,,,,,181,B,circle,1,0,,,,,,,,,,,,,,,,repeat,number,numRpt,f,0.6287,noRew,,,,,,0,50,0,50,0,1,,,,,,,,,,,,,,,,,
295258,2022-12-05_21h56.38.174,vts_reward_expectancy_bt,2022.2.4,Win32,60.40106306,Chrome,1280,720,,,,,0,594,,,,,,,,,,,,,,,,,167,H,hexagon,1,0,,,,,,,,,,,,,,,,repeat,number,numRpt,f,0.6338,noRew,,,,,,0,51,0,51,0,1,,,,,,,,,,,,,,,,,
295258,2022-12-05_21h56.38.174,vts_reward_expectancy_bt,2022.2.4,Win32,60.40106306,Chrome,1280,720,,,,,0,594,,,,,,,,,,,,,,,,,181,U,hexagon,1,0,,,,,,,,,,,,,,,,repeat,number,numRpt,f,0.5729,noRew,,,,,,0,52,0,52,0,1,,,,,,,,,,,,,,,,,
295258,2022-12-05_21h56.38.174,vts_reward_expectancy_bt,2022.2.4,Win32,60.40106306,Chrome,1280,720,,,,,0,594,,,,,,,,,,,,,,,,,125,W,triangle,1,0,,,,,,,,,,,,,,,,switch,letter,lettSwt,k,0.8386,noRew,,,,,,0,53,0,53,0,1,,,,,,,,,,,,,,,,,
295258,2022-12-05_21h56.38.174,vts_reward_expectancy_bt,2022.2.4,Win32,60.40106306,Chrome,1280,720,,,,,0,594,,,,,,,,,,,,,,,,,167,H,star,1,0,,,,,,,,,,,,,,,,repeat,letter,lettRpt,j,0.6039,noRew,,,,,,0,54,0,54,0,1,,,,,,,,,,,,,,,,,
295258,2022-12-05_21h56.38.174,vts_reward_expectancy_bt,2022.2.4,Win32,60.40106306,Chrome,1280,720,,,,,0,594,,,,,,,,,,,,,,,,,160,F,triangle,1,0,,,,,,,,,,,,,,,,repeat,letter,lettRpt,j,0.7091,noRew,,,,,,0,55,0,55,0,1,,,,,,,,,,,,,,,,,
295258,2022-12-05_21h56.38.174,vts_reward_expectancy_bt,2022.2.4,Win32,60.40106306,Chrome,1280,720,,,,,0,594,,,,,,,,,,,,,,,,,132,F,circle,1,0,,,,,,,,,,,,,,,,repeat,letter,lettRpt,j,0.6351,noRew,,,,,,0,56,0,56,0,1,,,,,,,,,,,,,,,,,
295258,2022-12-05_21h56.38.174,vts_reward_expectancy_bt,2022.2.4,Win32,60.40106306,Chrome,1280,720,,,,,0,594,,,,,,,,,,,,,,,,,174,D,star,1,0,,,,,,,,,,,,,,,,repeat,letter,lettRpt,j,0.578,noRew,,,,,,0,57,0,57,0,1,,,,,,,,,,,,,,,,,
295258,2022-12-05_21h56.38.174,vts_reward_expectancy_bt,2022.2.4,Win32,60.40106306,Chrome,1280,720,,,,,0,594,,,,,,,,,,,,,,,,,181,S,hexagon,1,0,,,,,,,,,,,,,,,,repeat,letter,lettRpt,k,0.6339,noRew,,,,,,0,58,0,58,0,1,,,,,,,,,,,,,,,,,
295258,2022-12-05_21h56.38.174,vts_reward_expectancy_bt,2022.2.4,Win32,60.40106306,Chrome,1280,720,,,,,0,594,,,,,,,,,,,,,,,,,146,B,star,1,0,,,,,,,,,,,,,,,,repeat,letter,lettRpt,j,0.5586,noRew,,,,,,0,59,0,59,0,1,,,,,,,,,,,,,,,,,
295258,2022-12-05_21h56.38.174,vts_reward_expectancy_bt,2022.2.4,Win32,60.40106306,Chrome,1280,720,,,,,0,594,,,,,,,,,,,,,,,,,167,H,star,1,0,,,,,,,,,,,,,,,,switch,number,numSwt,f,0.7243,noRew,,,,,,0,60,0,60,0,1,,,,,,,,,,,,,,,,,
295258,2022-12-05_21h56.38.174,vts_reward_expectancy_bt,2022.2.4,Win32,60.40106306,Chrome,1280,720,,,,,0,594,,,,,,,,,,,,,,,,,125,D,hexagon,1,0,,,,,,,,,,,,,,,,repeat,number,numRpt,d,1.008,noRew,,,,,,0,61,0,61,0,1,,,,,,,,,,,,,,,,,
295258,2022-12-05_21h56.38.174,vts_reward_expectancy_bt,2022.2.4,Win32,60.40106306,Chrome,1280,720,,,,,0,594,,,,,,,,,,,,,,,,,132,S,circle,1,0,,,,,,,,,,,,,,,,repeat,number,numRpt,d,0.5595,noRew,,,,,,0,62,0,62,0,1,,,,,,,,,,,,,,,,,
295258,2022-12-05_21h56.38.174,vts_reward_expectancy_bt,2022.2.4,Win32,60.40106306,Chrome,1280,720,,,,,0,594,,,,,,,,,,,,,,,,,181,W,star,1,0,,,,,,,,,,,,,,,,repeat,number,numRpt,f,0.4739,noRew,,,,,,0,63,0,63,0,1,,,,,,,,,,,,,,,,,
295258,2022-12-05_21h56.38.174,vts_reward_expectancy_bt,2022.2.4,Win32,60.40106306,Chrome,1280,720,,,,,,,,,,,,,,,,,,,,,,,,,,,,,,,,,,,,,,,,,,,,,,,,,,,,,,,,,,,,,,,,,,,,,,,,,,,,
295258,2022-12-05_21h56.38.174,vts_reward_expectancy_bt,2022.2.4,Win32,60.40106306,Chrome,1280,720,,,,,0,594,,,,,,,,,,,,,,,,,146,F,hexagon,-1,0,,,,,,,,,,,,,,,,switch,no_choice,NA,,,noRew,,,,,,0,,,,,,space,12.8738,low,0,0,0,0,1,,,,,,,,,
295258,2022-12-05_21h56.38.174,vts_reward_expectancy_bt,2022.2.4,Win32,60.40106306,Chrome,1280,720,,,,,0,594,,,,,,,,,,,,,,,,,181,S,star,1,0,,,,,,,,,,,,,,,,switch,number,numSwt,f,1.0763,Hi,,,,,,0,,,,,,,,low,1,0,1,0,1,,,,,,,,,
295258,2022-12-05_21h56.38.174,vts_reward_expectancy_bt,2022.2.4,Win32,60.40106306,Chrome,1280,720,,,,,0,594,,,,,,,,,,,,,,,,,132,D,triangle,1,0,,,,,,,,,,,,,,,,repeat,number,numRpt,d,0.7342,Hi,,,,,,0,,,,,,,,low,2,0,2,0,1,,,,,,,,,
295258,2022-12-05_21h56.38.174,vts_reward_expectancy_bt,2022.2.4,Win32,60.40106306,Chrome,1280,720,,,,,10,604,,,,,,,,,,,,,,,,,167,B,circle,1,0,,,,,,,,,,,,,,,,switch,letter,lettSwt,j,0.5291,Lo,,,,,,0,,,,,,,,low,3,0,3,0,1,,,,,,,,,
295258,2022-12-05_21h56.38.174,vts_reward_expectancy_bt,2022.2.4,Win32,60.40106306,Chrome,1280,720,,,,,1,605,,,,,,,,,,,,,,,,,139,W,hexagon,1,0,,,,,,,,,,,,,,,,repeat,letter,lettRpt,k,0.6083,Lo,,,,,,0,,,,,,,,low,4,0,4,0,1,,,,,,,,,
295258,2022-12-05_21h56.38.174,vts_reward_expectancy_bt,2022.2.4,Win32,60.40106306,Chrome,1280,720,,,,,0,605,,,,,,,,,,,,,,,,,160,H,star,1,0,,,,,,,,,,,,,,,,switch,number,numSwt,f,0.7266,Hi,,,,,,0,,,,,,,,low,5,0,5,0,1,,,,,,,,,
295258,2022-12-05_21h56.38.174,vts_reward_expectancy_bt,2022.2.4,Win32,60.40106306,Chrome,1280,720,,,,,10,615,,,,,,,,,,,,,,,,,125,U,triangle,1,0,,,,,,,,,,,,,,,,repeat,number,numRpt,d,0.5005,Hi,,,,,,0,,,,,,,,low,6,0,6,0,1,,,,,,,,,
295258,2022-12-05_21h56.38.174,vts_reward_expectancy_bt,2022.2.4,Win32,60.40106306,Chrome,1280,720,,,,,10,625,,,,,,,,,,,,,,,,,174,Y,circle,1,0,,,,,,,,,,,,,,,,repeat,number,numRpt,f,0.6727,Lo,,,,,,0,,,,,,,,low,7,0,7,0,1,,,,,,,,,
295258,2022-12-05_21h56.38.174,vts_reward_expectancy_bt,2022.2.4,Win32,60.40106306,Chrome,1280,720,,,,,1,626,,,,,,,,,,,,,,,,,146,F,triangle,1,0,,,,,,,,,,,,,,,,switch,letter,lettSwt,j,0.7215,Hi,,,,,,0,,,,,,,,low,8,0,8,0,1,,,,,,,,,
295258,2022-12-05_21h56.38.174,vts_reward_expectancy_bt,2022.2.4,Win32,60.40106306,Chrome,1280,720,,,,,1,627,,,,,,,,,,,,,,,,,181,S,hexagon,1,0,,,,,,,,,,,,,,,,switch,number,numSwt,f,0.5008,Lo,,,,,,0,,,,,,,,low,9,0,9,0,1,,,,,,,,,
295258,2022-12-05_21h56.38.174,vts_reward_expectancy_bt,2022.2.4,Win32,60.40106306,Chrome,1280,720,,,,,0,627,,,,,,,,,,,,,,,,,132,D,star,0,0,,,,,,,,,,,,,,,,repeat,number,NA,f,0.4801,Lo,,,,,,0,,,,,,,,low,10,0,10,0,1,,,,,,,,,
295258,2022-12-05_21h56.38.174,vts_reward_expectancy_bt,2022.2.4,Win32,60.40106306,Chrome,1280,720,,,,,10,637,,,,,,,,,,,,,,,,,167,B,circle,1,1,,,,,,,,,,,,,,,,switch,letter,lettSwt,j,0.561,Lo,,,,,,0,,,,,,,,low,11,0,11,0,1,,,,,,,,,
295258,2022-12-05_21h56.38.174,vts_reward_expectancy_bt,2022.2.4,Win32,60.40106306,Chrome,1280,720,,,,,0,637,,,,,,,,,,,,,,,,,139,W,triangle,1,0,,,,,,,,,,,,,,,,repeat,letter,lettRpt,k,0.6516,Hi,,,,,,0,,,,,,,,low,12,0,12,0,1,,,,,,,,,
295258,2022-12-05_21h56.38.174,vts_reward_expectancy_bt,2022.2.4,Win32,60.40106306,Chrome,1280,720,,,,,1,638,,,,,,,,,,,,,,,,,160,H,circle,1,0,,,,,,,,,,,,,,,,switch,number,numSwt,f,0.6836,Lo,,,,,,0,,,,,,,,low,13,0,13,0,1,,,,,,,,,
295258,2022-12-05_21h56.38.174,vts_reward_expectancy_bt,2022.2.4,Win32,60.40106306,Chrome,1280,720,,,,,0,638,,,,,,,,,,,,,,,,,125,U,star,0,0,,,,,,,,,,,,,,,,repeat,number,NA,f,0.5282,Lo,,,,,,0,,,,,,,,low,14,0,14,0,1,,,,,,,,,
295258,2022-12-05_21h56.38.174,vts_reward_expectancy_bt,2022.2.4,Win32,60.40106306,Chrome,1280,720,,,,,1,639,,,,,,,,,,,,,,,,,174,Y,hexagon,1,1,,,,,,,,,,,,,,,,repeat,number,numRpt,f,0.7915,Lo,,,,,,0,,,,,,,,low,15,0,15,0,1,,,,,,,,,
295258,2022-12-05_21h56.38.174,vts_reward_expectancy_bt,2022.2.4,Win32,60.40106306,Chrome,1280,720,,,,,10,649,,,,,,,,,,,,,,,,,160,S,circle,1,0,,,,,,,,,,,,,,,,switch,letter,lettSwt,k,0.6089,Lo,,,,,,0,,,,,,,,low,16,0,16,0,1,,,,,,,,,
295258,2022-12-05_21h56.38.174,vts_reward_expectancy_bt,2022.2.4,Win32,60.40106306,Chrome,1280,720,,,,,0,649,,,,,,,,,,,,,,,,,174,U,triangle,0,0,,,,,,,,,,,,,,,,repeat,letter,NA,j,0.5267,Lo,,,,,,0,,,,,,,,low,17,0,17,0,1,,,,,,,,,
295258,2022-12-05_21h56.38.174,vts_reward_expectancy_bt,2022.2.4,Win32,60.40106306,Chrome,1280,720,,,,,10,659,,,,,,,,,,,,,,,,,132,D,hexagon,1,1,,,,,,,,,,,,,,,,repeat,letter,lettRpt,j,1.0294,Lo,,,,,,0,,,,,,,,low,18,0,18,0,1,,,,,,,,,
295258,2022-12-05_21h56.38.174,vts_reward_expectancy_bt,2022.2.4,Win32,60.40106306,Chrome,1280,720,,,,,1,660,,,,,,,,,,,,,,,,,181,W,star,1,0,,,,,,,,,,,,,,,,switch,number,numSwt,f,0.5506,Hi,,,,,,0,,,,,,,,low,19,0,19,0,1,,,,,,,,,
295258,2022-12-05_21h56.38.174,vts_reward_expectancy_bt,2022.2.4,Win32,60.40106306,Chrome,1280,720,,,,,10,670,,,,,,,,,,,,,,,,,167,F,hexagon,1,0,,,,,,,,,,,,,,,,repeat,number,numRpt,f,0.5289,Lo,,,,,,0,,,,,,,,low,20,0,20,0,1,,,,,,,,,
295258,2022-12-05_21h56.38.174,vts_reward_expectancy_bt,2022.2.4,Win32,60.40106306,Chrome,1280,720,,,,,10,680,,,,,,,,,,,,,,,,,146,H,triangle,1,0,,,,,,,,,,,,,,,,repeat,number,numRpt,d,0.5503,Hi,,,,,,0,,,,,,,,low,21,0,21,0,1,,,,,,,,,
295258,2022-12-05_21h56.38.174,vts_reward_expectancy_bt,2022.2.4,Win32,60.40106306,Chrome,1280,720,,,,,1,681,,,,,,,,,,,,,,,,,125,B,star,1,0,,,,,,,,,,,,,,,,switch,letter,lettSwt,j,0.7255,Hi,,,,,,0,,,,,,,,low,22,0,22,0,1,,,,,,,,,
295258,2022-12-05_21h56.38.174,vts_reward_expectancy_bt,2022.2.4,Win32,60.40106306,Chrome,1280,720,,,,,1,682,,,,,,,,,,,,,,,,,139,Y,circle,1,0,,,,,,,,,,,,,,,,repeat,letter,lettRpt,k,0.8089,Lo,,,,,,0,,,,,,,,low,23,0,23,0,1,,,,,,,,,
295258,2022-12-05_21h56.38.174,vts_reward_expectancy_bt,2022.2.4,Win32,60.40106306,Chrome,1280,720,,,,,1,683,,,,,,,,,,,,,,,,,174,D,hexagon,1,0,,,,,,,,,,,,,,,,switch,number,numSwt,f,0.628,Lo,,,,,,0,,,,,,,,low,24,0,24,0,1,,,,,,,,,
295258,2022-12-05_21h56.38.174,vts_reward_expectancy_bt,2022.2.4,Win32,60.40106306,Chrome,1280,720,,,,,1,684,,,,,,,,,,,,,,,,,146,F,circle,1,0,,,,,,,,,,,,,,,,repeat,number,numRpt,d,0.7846,Lo,,,,,,0,,,,,,,,low,25,0,25,0,1,,,,,,,,,
295258,2022-12-05_21h56.38.174,vts_reward_expectancy_bt,2022.2.4,Win32,60.40106306,Chrome,1280,720,,,,,0,684,,,,,,,,,,,,,,,,,181,B,star,1,0,,,,,,,,,,,,,,,,repeat,number,numRpt,f,0.8212,Hi,,,,,,0,,,,,,,,low,26,0,26,0,1,,,,,,,,,
295258,2022-12-05_21h56.38.174,vts_reward_expectancy_bt,2022.2.4,Win32,60.40106306,Chrome,1280,720,,,,,0,684,,,,,,,,,,,,,,,,,132,S,triangle,1,0,,,,,,,,,,,,,,,,switch,letter,lettSwt,k,0.8532,Hi,,,,,,0,,,,,,,,low,27,0,27,0,1,,,,,,,,,
295258,2022-12-05_21h56.38.174,vts_reward_expectancy_bt,2022.2.4,Win32,60.40106306,Chrome,1280,720,,,,,10,694,,,,,,,,,,,,,,,,,160,W,triangle,1,0,,,,,,,,,,,,,,,,switch,number,numSwt,f,0.5745,Hi,,,,,,0,,,,,,,,low,28,0,28,0,1,,,,,,,,,
295258,2022-12-05_21h56.38.174,vts_reward_expectancy_bt,2022.2.4,Win32,60.40106306,Chrome,1280,720,,,,,10,704,,,,,,,,,,,,,,,,,167,Y,star,1,0,,,,,,,,,,,,,,,,switch,letter,lettSwt,k,0.6849,Hi,,,,,,0,,,,,,,,low,29,0,29,0,1,,,,,,,,,
295258,2022-12-05_21h56.38.174,vts_reward_expectancy_bt,2022.2.4,Win32,60.40106306,Chrome,1280,720,,,,,1,705,,,,,,,,,,,,,,,,,125,U,circle,1,0,,,,,,,,,,,,,,,,repeat,letter,lettRpt,k,0.5604,Lo,,,,,,0,,,,,,,,low,30,0,30,0,1,,,,,,,,,
295258,2022-12-05_21h56.38.174,vts_reward_expectancy_bt,2022.2.4,Win32,60.40106306,Chrome,1280,720,,,,,10,715,,,,,,,,,,,,,,,,,139,H,hexagon,1,0,,,,,,,,,,,,,,,,switch,number,numSwt,d,0.5991,Lo,,,,,,0,,,,,,,,low,31,0,31,0,1,,,,,,,,,
295258,2022-12-05_21h56.38.174,vts_reward_expectancy_bt,2022.2.4,Win32,60.40106306,Chrome,1280,720,,,,,0,715,,,,,,,,,,,,,,,,,125,H,star,1,0,,,,,,,,,,,,,,,,switch,letter,lettSwt,j,1.3434,Hi,,,,,,1,,,,,,space,1.8687,low,0,0,0,0,1,,,,,,,,,
295258,2022-12-05_21h56.38.174,vts_reward_expectancy_bt,2022.2.4,Win32,60.40106306,Chrome,1280,720,,,,,1,716,,,,,,,,,,,,,,,,,146,W,hexagon,1,0,,,,,,,,,,,,,,,,repeat,letter,lettRpt,k,0.8256,Lo,,,,,,1,,,,,,,,low,1,0,1,0,1,,,,,,,,,
295258,2022-12-05_21h56.38.174,vts_reward_expectancy_bt,2022.2.4,Win32,60.40106306,Chrome,1280,720,,,,,0,716,,,,,,,,,,,,,,,,,167,U,triangle,1,0,,,,,,,,,,,,,,,,repeat,letter,lettRpt,k,1.3455,Hi,,,,,,1,,,,,,,,low,2,0,2,0,1,,,,,,,,,
295258,2022-12-05_21h56.38.174,vts_reward_expectancy_bt,2022.2.4,Win32,60.40106306,Chrome,1280,720,,,,,1,717,,,,,,,,,,,,,,,,,174,D,circle,1,0,,,,,,,,,,,,,,,,switch,number,numSwt,f,1.0621,Lo,,,,,,1,,,,,,,,low,3,0,3,0,1,,,,,,,,,
295258,2022-12-05_21h56.38.174,vts_reward_expectancy_bt,2022.2.4,Win32,60.40106306,Chrome,1280,720,,,,,0,717,,,,,,,,,,,,,,,,,160,B,star,1,0,,,,,,,,,,,,,,,,switch,letter,lettSwt,j,0.9257,Hi,,,,,,1,,,,,,,,low,4,0,4,0,1,,,,,,,,,
295258,2022-12-05_21h56.38.174,vts_reward_expectancy_bt,2022.2.4,Win32,60.40106306,Chrome,1280,720,,,,,10,727,,,,,,,,,,,,,,,,,181,Y,hexagon,1,0,,,,,,,,,,,,,,,,switch,number,numSwt,f,0.7164,Lo,,,,,,1,,,,,,,,low,5,0,5,0,1,,,,,,,,,
295258,2022-12-05_21h56.38.174,vts_reward_expectancy_bt,2022.2.4,Win32,60.40106306,Chrome,1280,720,,,,,0,727,,,,,,,,,,,,,,,,,139,S,triangle,1,0,,,,,,,,,,,,,,,,switch,letter,lettSwt,k,1.1387,Hi,,,,,,1,,,,,,,,low,6,0,6,0,1,,,,,,,,,
295258,2022-12-05_21h56.38.174,vts_reward_expectancy_bt,2022.2.4,Win32,60.40106306,Chrome,1280,720,,,,,10,737,,,,,,,,,,,,,,,,,132,F,circle,1,0,,,,,,,,,,,,,,,,repeat,letter,lettRpt,j,1.153,Lo,,,,,,1,,,,,,,,low,7,0,7,0,1,,,,,,,,,
295258,2022-12-05_21h56.38.174,vts_reward_expectancy_bt,2022.2.4,Win32,60.40106306,Chrome,1280,720,,,,,10,747,,,,,,,,,,,,,,,,,125,H,hexagon,1,0,,,,,,,,,,,,,,,,switch,number,numSwt,d,0.7498,Lo,,,,,,1,,,,,,,,low,8,0,8,0,1,,,,,,,,,
295258,2022-12-05_21h56.38.174,vts_reward_expectancy_bt,2022.2.4,Win32,60.40106306,Chrome,1280,720,,,,,0,747,,,,,,,,,,,,,,,,,146,W,triangle,1,0,,,,,,,,,,,,,,,,switch,letter,lettSwt,k,0.6244,Hi,,,,,,1,,,,,,,,low,9,0,9,0,1,,,,,,,,,
295258,2022-12-05_21h56.38.174,vts_reward_expectancy_bt,2022.2.4,Win32,60.40106306,Chrome,1280,720,,,,,0,747,,,,,,,,,,,,,,,,,167,U,star,0,0,,,,,,,,,,,,,,,,repeat,letter,NA,j,0.5962,Hi,,,,,,1,,,,,,,,low,10,0,10,0,1,,,,,,,,,
295258,2022-12-05_21h56.38.174,vts_reward_expectancy_bt,2022.2.4,Win32,60.40106306,Chrome,1280,720,,,,,10,757,,,,,,,,,,,,,,,,,174,D,circle,1,1,,,,,,,,,,,,,,,,repeat,letter,lettRpt,j,0.684,Lo,,,,,,1,,,,,,,,low,11,0,11,0,1,,,,,,,,,
295258,2022-12-05_21h56.38.174,vts_reward_expectancy_bt,2022.2.4,Win32,60.40106306,Chrome,1280,720,,,,,0,757,,,,,,,,,,,,,,,,,160,B,triangle,0,0,,,,,,,,,,,,,,,,switch,number,NA,d,0.6016,Lo,,,,,,1,,,,,,,,low,12,0,12,0,1,,,,,,,,,
295258,2022-12-05_21h56.38.174,vts_reward_expectancy_bt,2022.2.4,Win32,60.40106306,Chrome,1280,720,,,,,1,758,,,,,,,,,,,,,,,,,181,Y,hexagon,1,1,,,,,,,,,,,,,,,,repeat,number,numRpt,f,0.669,Lo,,,,,,1,,,,,,,,low,13,0,13,0,1,,,,,,,,,
295258,2022-12-05_21h56.38.174,vts_reward_expectancy_bt,2022.2.4,Win32,60.40106306,Chrome,1280,720,,,,,0,758,,,,,,,,,,,,,,,,,139,S,star,1,0,,,,,,,,,,,,,,,,switch,letter,lettSwt,k,1.6424,Hi,,,,,,1,,,,,,,,low,14,0,14,0,1,,,,,,,,,
295258,2022-12-05_21h56.38.174,vts_reward_expectancy_bt,2022.2.4,Win32,60.40106306,Chrome,1280,720,,,,,1,759,,,,,,,,,,,,,,,,,132,F,circle,1,0,,,,,,,,,,,,,,,,repeat,letter,lettRpt,j,0.8108,Lo,,,,,,1,,,,,,,,low,15,0,15,0,1,,,,,,,,,
295258,2022-12-05_21h56.38.174,vts_reward_expectancy_bt,2022.2.4,Win32,60.40106306,Chrome,1280,720,,,,,10,769,,,,,,,,,,,,,,,,,132,D,circle,1,0,,,,,,,,,,,,,,,,repeat,letter,lettRpt,j,0.8616,Lo,,,,,,1,,,,,,,,low,16,0,16,0,1,,,,,,,,,
295258,2022-12-05_21h56.38.174,vts_reward_expectancy_bt,2022.2.4,Win32,60.40106306,Chrome,1280,720,,,,,0,769,,,,,,,,,,,,,,,,,160,S,star,1,0,,,,,,,,,,,,,,,,repeat,letter,lettRpt,k,0.8634,Hi,,,,,,1,,,,,,,,low,17,0,17,0,1,,,,,,,,,
295258,2022-12-05_21h56.38.174,vts_reward_expectancy_bt,2022.2.4,Win32,60.40106306,Chrome,1280,720,,,,,1,770,,,,,,,,,,,,,,,,,167,Y,hexagon,1,0,,,,,,,,,,,,,,,,repeat,letter,lettRpt,k,0.6942,Lo,,,,,,1,,,,,,,,low,18,0,18,0,1,,,,,,,,,
295258,2022-12-05_21h56.38.174,vts_reward_expectancy_bt,2022.2.4,Win32,60.40106306,Chrome,1280,720,,,,,0,770,,,,,,,,,,,,,,,,,125,W,triangle,0,0,,,,,,,,,,,,,,,,repeat,letter,NA,j,0.7241,Lo,,,,,,1,,,,,,,,low,19,0,19,0,1,,,,,,,,,
295258,2022-12-05_21h56.38.174,vts_reward_expectancy_bt,2022.2.4,Win32,60.40106306,Chrome,1280,720,,,,,0,770,,,,,,,,,,,,,,,,,174,U,triangle,1,1,,,,,,,,,,,,,,,,switch,number,numSwt,f,0.7888,Hi,,,,,,1,,,,,,,,low,20,0,20,0,1,,,,,,,,,
295258,2022-12-05_21h56.38.174,vts_reward_expectancy_bt,2022.2.4,Win32,60.40106306,Chrome,1280,720,,,,,10,780,,,,,,,,,,,,,,,,,181,F,star,1,0,,,,,,,,,,,,,,,,repeat,number,numRpt,f,0.4705,Hi,,,,,,1,,,,,,,,low,21,0,21,0,1,,,,,,,,,
295258,2022-12-05_21h56.38.174,vts_reward_expectancy_bt,2022.2.4,Win32,60.40106306,Chrome,1280,720,,,,,10,790,,,,,,,,,,,,,,,,,139,H,circle,1,0,,,,,,,,,,,,,,,,switch,letter,lettSwt,j,0.4747,Lo,,,,,,1,,,,,,,,low,22,0,22,0,1,,,,,,,,,
295258,2022-12-05_21h56.38.174,vts_reward_expectancy_bt,2022.2.4,Win32,60.40106306,Chrome,1280,720,,,,,10,800,,,,,,,,,,,,,,,,,146,B,hexagon,1,0,,,,,,,,,,,,,,,,repeat,letter,lettRpt,j,0.6338,Lo,,,,,,1,,,,,,,,low,23,0,23,0,1,,,,,,,,,
295258,2022-12-05_21h56.38.174,vts_reward_expectancy_bt,2022.2.4,Win32,60.40106306,Chrome,1280,720,,,,,0,800,,,,,,,,,,,,,,,,,146,H,star,1,0,,,,,,,,,,,,,,,,switch,number,numSwt,d,0.6065,Hi,,,,,,1,,,,,,,,low,24,0,24,0,1,,,,,,,,,
295258,2022-12-05_21h56.38.174,vts_reward_expectancy_bt,2022.2.4,Win32,60.40106306,Chrome,1280,720,,,,,10,810,,,,,,,,,,,,,,,,,139,B,triangle,1,0,,,,,,,,,,,,,,,,switch,letter,lettSwt,j,0.5055,Hi,,,,,,1,,,,,,,,low,25,0,25,0,1,,,,,,,,,
295258,2022-12-05_21h56.38.174,vts_reward_expectancy_bt,2022.2.4,Win32,60.40106306,Chrome,1280,720,,,,,1,811,,,,,,,,,,,,,,,,,174,F,hexagon,1,0,,,,,,,,,,,,,,,,repeat,letter,lettRpt,j,0.5066,Lo,,,,,,1,,,,,,,,low,26,0,26,0,1,,,,,,,,,
295258,2022-12-05_21h56.38.174,vts_reward_expectancy_bt,2022.2.4,Win32,60.40106306,Chrome,1280,720,,,,,1,812,,,,,,,,,,,,,,,,,125,D,circle,1,0,,,,,,,,,,,,,,,,repeat,letter,lettRpt,j,0.5003,Lo,,,,,,1,,,,,,,,low,27,0,27,0,1,,,,,,,,,
295258,2022-12-05_21h56.38.174,vts_reward_expectancy_bt,2022.2.4,Win32,60.40106306,Chrome,1280,720,,,,,0,812,,,,,,,,,,,,,,,,,132,S,circle,0,0,,,,,,,,,,,,,,,,repeat,letter,NA,j,0.4621,Lo,,,,,,1,,,,,,,,low,28,0,28,0,1,,,,,,,,,
295258,2022-12-05_21h56.38.174,vts_reward_expectancy_bt,2022.2.4,Win32,60.40106306,Chrome,1280,720,,,,,0,812,,,,,,,,,,,,,,,,,160,Y,triangle,1,1,,,,,,,,,,,,,,,,switch,number,numSwt,f,1.0452,Hi,,,,,,1,,,,,,,,low,29,0,29,0,1,,,,,,,,,
295258,2022-12-05_21h56.38.174,vts_reward_expectancy_bt,2022.2.4,Win32,60.40106306,Chrome,1280,720,,,,,0,812,,,,,,,,,,,,,,,,,181,U,star,1,0,,,,,,,,,,,,,,,,repeat,number,numRpt,f,0.5889,Hi,,,,,,1,,,,,,,,low,30,0,30,0,1,,,,,,,,,
295258,2022-12-05_21h56.38.174,vts_reward_expectancy_bt,2022.2.4,Win32,60.40106306,Chrome,1280,720,,,,,1,813,,,,,,,,,,,,,,,,,167,W,hexagon,1,0,,,,,,,,,,,,,,,,repeat,number,numRpt,f,0.6044,Lo,,,,,,1,,,,,,,,low,31,0,31,0,1,,,,,,,,,
295258,2022-12-05_21h56.38.174,vts_reward_expectancy_bt,2022.2.4,Win32,60.40106306,Chrome,1280,720,,,,,10,823,,,,,,,,,,,,,,,,,146,U,hexagon,1,0,,,,,,,,,,,,,,,,switch,letter,lettSwt,k,0.7542,Lo,,,,,,2,,,,,,space,1.5346,low,0,0,0,0,1,,,,,,,,,
295258,2022-12-05_21h56.38.174,vts_reward_expectancy_bt,2022.2.4,Win32,60.40106306,Chrome,1280,720,,,,,0,823,,,,,,,,,,,,,,,,,160,Y,triangle,0,0,,,,,,,,,,,,,,,,repeat,letter,NA,j,0.8425,Lo,,,,,,2,,,,,,,,low,1,0,1,0,1,,,,,,,,,
295258,2022-12-05_21h56.38.174,vts_reward_expectancy_bt,2022.2.4,Win32,60.40106306,Chrome,1280,720,,,,,1,824,,,,,,,,,,,,,,,,,167,D,circle,1,1,,,,,,,,,,,,,,,,switch,number,numSwt,f,0.5437,Lo,,,,,,2,,,,,,,,low,2,0,2,0,1,,,,,,,,,
295258,2022-12-05_21h56.38.174,vts_reward_expectancy_bt,2022.2.4,Win32,60.40106306,Chrome,1280,720,,,,,1,825,,,,,,,,,,,,,,,,,181,W,star,1,0,,,,,,,,,,,,,,,,repeat,number,numRpt,f,0.4849,Hi,,,,,,2,,,,,,,,low,3,0,3,0,1,,,,,,,,,
295258,2022-12-05_21h56.38.174,vts_reward_expectancy_bt,2022.2.4,Win32,60.40106306,Chrome,1280,720,,,,,10,835,,,,,,,,,,,,,,,,,132,B,hexagon,1,0,,,,,,,,,,,,,,,,switch,letter,lettSwt,j,0.5847,Lo,,,,,,2,,,,,,,,low,4,0,4,0,1,,,,,,,,,
295258,2022-12-05_21h56.38.174,vts_reward_expectancy_bt,2022.2.4,Win32,60.40106306,Chrome,1280,720,,,,,1,836,,,,,,,,,,,,,,,,,139,S,triangle,1,0,,,,,,,,,,,,,,,,repeat,letter,lettRpt,k,0.4683,Hi,,,,,,2,,,,,,,,low,5,0,5,0,1,,,,,,,,,
295258,2022-12-05_21h56.38.174,vts_reward_expectancy_bt,2022.2.4,Win32,60.40106306,Chrome,1280,720,,,,,1,837,,,,,,,,,,,,,,,,,125,F,circle,1,0,,,,,,,,,,,,,,,,repeat,letter,lettRpt,j,0.572,Lo,,,,,,2,,,,,,,,low,6,0,6,0,1,,,,,,,,,
295258,2022-12-05_21h56.38.174,vts_reward_expectancy_bt,2022.2.4,Win32,60.40106306,Chrome,1280,720,,,,,10,847,,,,,,,,,,,,,,,,,174,H,star,1,0,,,,,,,,,,,,,,,,switch,number,numSwt,f,0.5833,Hi,,,,,,2,,,,,,,,low,7,0,7,0,1,,,,,,,,,
295258,2022-12-05_21h56.38.174,vts_reward_expectancy_bt,2022.2.4,Win32,60.40106306,Chrome,1280,720,,,,,10,857,,,,,,,,,,,,,,,,,146,U,star,1,0,,,,,,,,,,,,,,,,repeat,number,numRpt,d,0.5385,Hi,,,,,,2,,,,,,,,low,8,0,8,0,1,,,,,,,,,
295258,2022-12-05_21h56.38.174,vts_reward_expectancy_bt,2022.2.4,Win32,60.40106306,Chrome,1280,720,,,,,10,867,,,,,,,,,,,,,,,,,160,Y,hexagon,1,0,,,,,,,,,,,,,,,,switch,letter,lettSwt,k,0.491,Lo,,,,,,2,,,,,,,,low,9,0,9,0,1,,,,,,,,,
295258,2022-12-05_21h56.38.174,vts_reward_expectancy_bt,2022.2.4,Win32,60.40106306,Chrome,1280,720,,,,,1,868,,,,,,,,,,,,,,,,,167,D,circle,1,0,,,,,,,,,,,,,,,,repeat,letter,lettRpt,j,0.4509,Lo,,,,,,2,,,,,,,,low,10,0,10,0,1,,,,,,,,,
295258,2022-12-05_21h56.38.174,vts_reward_expectancy_bt,2022.2.4,Win32,60.40106306,Chrome,1280,720,,,,,10,878,,,,,,,,,,,,,,,,,181,W,triangle,1,0,,,,,,,,,,,,,,,,repeat,letter,lettRpt,k,0.5363,Hi,,,,,,2,,,,,,,,low,11,0,11,0,1,,,,,,,,,
295258,2022-12-05_21h56.38.174,vts_reward_expectancy_bt,2022.2.4,Win32,60.40106306,Chrome,1280,720,,,,,1,879,,,,,,,,,,,,,,,,,132,B,triangle,1,0,,,,,,,,,,,,,,,,repeat,letter,lettRpt,j,0.5522,Hi,,,,,,2,,,,,,,,low,12,0,12,0,1,,,,,,,,,
295258,2022-12-05_21h56.38.174,vts_reward_expectancy_bt,2022.2.4,Win32,60.40106306,Chrome,1280,720,,,,,1,880,,,,,,,,,,,,,,,,,139,S,star,1,0,,,,,,,,,,,,,,,,switch,number,numSwt,d,0.4414,Hi,,,,,,2,,,,,,,,low,13,0,13,0,1,,,,,,,,,
295258,2022-12-05_21h56.38.174,vts_reward_expectancy_bt,2022.2.4,Win32,60.40106306,Chrome,1280,720,,,,,1,881,,,,,,,,,,,,,,,,,125,F,hexagon,1,0,,,,,,,,,,,,,,,,switch,letter,lettSwt,j,0.5672,Lo,,,,,,2,,,,,,,,low,14,0,14,0,1,,,,,,,,,
295258,2022-12-05_21h56.38.174,vts_reward_expectancy_bt,2022.2.4,Win32,60.40106306,Chrome,1280,720,,,,,10,891,,,,,,,,,,,,,,,,,174,H,circle,1,0,,,,,,,,,,,,,,,,switch,number,numSwt,f,0.6589,Lo,,,,,,2,,,,,,,,low,15,0,15,0,1,,,,,,,,,
295258,2022-12-05_21h56.38.174,vts_reward_expectancy_bt,2022.2.4,Win32,60.40106306,Chrome,1280,720,,,,,1,892,,,,,,,,,,,,,,,,,160,U,triangle,1,0,,,,,,,,,,,,,,,,repeat,number,numRpt,f,0.4707,Hi,,,,,,2,,,,,,,,low,16,0,16,0,1,,,,,,,,,
295258,2022-12-05_21h56.38.174,vts_reward_expectancy_bt,2022.2.4,Win32,60.40106306,Chrome,1280,720,,,,,1,893,,,,,,,,,,,,,,,,,125,Y,star,1,0,,,,,,,,,,,,,,,,repeat,number,numRpt,d,0.5174,Hi,,,,,,2,,,,,,,,low,17,0,17,0,1,,,,,,,,,
295258,2022-12-05_21h56.38.174,vts_reward_expectancy_bt,2022.2.4,Win32,60.40106306,Chrome,1280,720,,,,,1,894,,,,,,,,,,,,,,,,,132,S,circle,1,0,,,,,,,,,,,,,,,,switch,letter,lettSwt,k,0.8003,Lo,,,,,,2,,,,,,,,low,18,0,18,0,1,,,,,,,,,
295258,2022-12-05_21h56.38.174,vts_reward_expectancy_bt,2022.2.4,Win32,60.40106306,Chrome,1280,720,,,,,1,895,,,,,,,,,,,,,,,,,167,F,hexagon,1,0,,,,,,,,,,,,,,,,repeat,letter,lettRpt,j,0.5758,Lo,,,,,,2,,,,,,,,low,19,0,19,0,1,,,,,,,,,
295258,2022-12-05_21h56.38.174,vts_reward_expectancy_bt,2022.2.4,Win32,60.40106306,Chrome,1280,720,,,,,10,905,,,,,,,,,,,,,,,,,139,B,triangle,1,0,,,,,,,,,,,,,,,,repeat,letter,lettRpt,j,0.6324,Hi,,,,,,2,,,,,,,,low,20,0,20,0,1,,,,,,,,,
295258,2022-12-05_21h56.38.174,vts_reward_expectancy_bt,2022.2.4,Win32,60.40106306,Chrome,1280,720,,,,,1,906,,,,,,,,,,,,,,,,,174,H,hexagon,1,0,,,,,,,,,,,,,,,,repeat,letter,lettRpt,j,0.5669,Lo,,,,,,2,,,,,,,,low,21,0,21,0,1,,,,,,,,,
295258,2022-12-05_21h56.38.174,vts_reward_expectancy_bt,2022.2.4,Win32,60.40106306,Chrome,1280,720,,,,,1,907,,,,,,,,,,,,,,,,,146,D,star,1,0,,,,,,,,,,,,,,,,repeat,letter,lettRpt,j,0.5265,Hi,,,,,,2,,,,,,,,low,22,0,22,0,1,,,,,,,,,
295258,2022-12-05_21h56.38.174,vts_reward_expectancy_bt,2022.2.4,Win32,60.40106306,Chrome,1280,720,,,,,10,917,,,,,,,,,,,,,,,,,181,W,circle,1,0,,,,,,,,,,,,,,,,repeat,letter,lettRpt,k,0.8559,Lo,,,,,,2,,,,,,,,low,23,0,23,0,1,,,,,,,,,
295258,2022-12-05_21h56.38.174,vts_reward_expectancy_bt,2022.2.4,Win32,60.40106306,Chrome,1280,720,,,,,1,918,,,,,,,,,,,,,,,,,167,F,triangle,1,0,,,,,,,,,,,,,,,,switch,number,numSwt,f,0.6173,Hi,,,,,,2,,,,,,,,low,24,0,24,0,1,,,,,,,,,
295258,2022-12-05_21h56.38.174,vts_reward_expectancy_bt,2022.2.4,Win32,60.40106306,Chrome,1280,720,,,,,10,928,,,,,,,,,,,,,,,,,146,Y,hexagon,1,0,,,,,,,,,,,,,,,,repeat,number,numRpt,d,0.9379,Lo,,,,,,2,,,,,,,,low,25,0,25,0,1,,,,,,,,,
295258,2022-12-05_21h56.38.174,vts_reward_expectancy_bt,2022.2.4,Win32,60.40106306,Chrome,1280,720,,,,,1,929,,,,,,,,,,,,,,,,,181,U,circle,1,0,,,,,,,,,,,,,,,,switch,letter,lettSwt,k,0.5842,Lo,,,,,,2,,,,,,,,low,26,0,26,0,1,,,,,,,,,
295258,2022-12-05_21h56.38.174,vts_reward_expectancy_bt,2022.2.4,Win32,60.40106306,Chrome,1280,720,,,,,1,930,,,,,,,,,,,,,,,,,160,B,star,1,0,,,,,,,,,,,,,,,,switch,number,numSwt,f,0.6099,Hi,,,,,,2,,,,,,,,low,27,0,27,0,1,,,,,,,,,
295258,2022-12-05_21h56.38.174,vts_reward_expectancy_bt,2022.2.4,Win32,60.40106306,Chrome,1280,720,,,,,1,931,,,,,,,,,,,,,,,,,125,W,hexagon,1,0,,,,,,,,,,,,,,,,repeat,number,numRpt,d,0.6111,Lo,,,,,,2,,,,,,,,low,28,0,28,0,1,,,,,,,,,
295258,2022-12-05_21h56.38.174,vts_reward_expectancy_bt,2022.2.4,Win32,60.40106306,Chrome,1280,720,,,,,0,931,,,,,,,,,,,,,,,,,132,S,star,0,0,,,,,,,,,,,,,,,,switch,letter,NA,j,0.6427,Lo,,,,,,2,,,,,,,,low,29,0,29,0,1,,,,,,,,,
295258,2022-12-05_21h56.38.174,vts_reward_expectancy_bt,2022.2.4,Win32,60.40106306,Chrome,1280,720,,,,,0,931,,,,,,,,,,,,,,,,,139,H,triangle,1,1,,,,,,,,,,,,,,,,repeat,letter,lettRpt,j,0.9731,Hi,,,,,,2,,,,,,,,low,30,0,30,0,1,,,,,,,,,
295258,2022-12-05_21h56.38.174,vts_reward_expectancy_bt,2022.2.4,Win32,60.40106306,Chrome,1280,720,,,,,1,932,,,,,,,,,,,,,,,,,174,D,circle,1,0,,,,,,,,,,,,,,,,switch,number,numSwt,f,0.6748,Lo,,,,,,2,,,,,,,,low,31,0,31,0,1,,,,,,,,,
295258,2022-12-05_21h56.38.174,vts_reward_expectancy_bt,2022.2.4,Win32,60.40106306,Chrome,1280,720,,,,,10,942,,,,,,,,,,,,,,,,,139,W,hexagon,1,0,,,,,,,,,,,,,,,,switch,letter,lettSwt,k,0.8909,Lo,,,,,,3,,,,,,space,1.8868,low,0,0,0,0,1,,,,,,,,,
295258,2022-12-05_21h56.38.174,vts_reward_expectancy_bt,2022.2.4,Win32,60.40106306,Chrome,1280,720,,,,,1,943,,,,,,,,,,,,,,,,,146,D,star,1,0,,,,,,,,,,,,,,,,switch,number,numSwt,d,0.5705,Hi,,,,,,3,,,,,,,,low,1,0,1,0,1,,,,,,,,,
295258,2022-12-05_21h56.38.174,vts_reward_expectancy_bt,2022.2.4,Win32,60.40106306,Chrome,1280,720,,,,,0,943,,,,,,,,,,,,,,,,,181,F,triangle,0,0,,,,,,,,,,,,,,,,repeat,number,NA,d,0.8505,Hi,,,,,,3,,,,,,,,low,2,0,2,0,1,,,,,,,,,
295258,2022-12-05_21h56.38.174,vts_reward_expectancy_bt,2022.2.4,Win32,60.40106306,Chrome,1280,720,,,,,10,953,,,,,,,,,,,,,,,,,167,Y,circle,1,1,,,,,,,,,,,,,,,,switch,letter,lettSwt,k,0.5844,Lo,,,,,,3,,,,,,,,low,3,0,3,0,1,,,,,,,,,
295258,2022-12-05_21h56.38.174,vts_reward_expectancy_bt,2022.2.4,Win32,60.40106306,Chrome,1280,720,,,,,10,963,,,,,,,,,,,,,,,,,174,H,hexagon,1,0,,,,,,,,,,,,,,,,repeat,letter,lettRpt,j,0.5259,Lo,,,,,,3,,,,,,,,low,4,0,4,0,1,,,,,,,,,
295258,2022-12-05_21h56.38.174,vts_reward_expectancy_bt,2022.2.4,Win32,60.40106306,Chrome,1280,720,,,,,0,963,,,,,,,,,,,,,,,,,125,U,star,1,0,,,,,,,,,,,,,,,,switch,number,numSwt,d,0.6912,Hi,,,,,,3,,,,,,,,low,5,0,5,0,1,,,,,,,,,
295258,2022-12-05_21h56.38.174,vts_reward_expectancy_bt,2022.2.4,Win32,60.40106306,Chrome,1280,720,,,,,0,963,,,,,,,,,,,,,,,,,132,B,triangle,1,0,,,,,,,,,,,,,,,,repeat,number,numRpt,d,0.6032,Hi,,,,,,3,,,,,,,,low,6,0,6,0,1,,,,,,,,,
295258,2022-12-05_21h56.38.174,vts_reward_expectancy_bt,2022.2.4,Win32,60.40106306,Chrome,1280,720,,,,,10,973,,,,,,,,,,,,,,,,,160,S,circle,1,0,,,,,,,,,,,,,,,,switch,letter,lettSwt,k,0.5016,Lo,,,,,,3,,,,,,,,low,7,0,7,0,1,,,,,,,,,
295258,2022-12-05_21h56.38.174,vts_reward_expectancy_bt,2022.2.4,Win32,60.40106306,Chrome,1280,720,,,,,10,983,,,,,,,,,,,,,,,,,139,W,triangle,1,0,,,,,,,,,,,,,,,,switch,number,numSwt,d,0.5739,Hi,,,,,,3,,,,,,,,low,8,0,8,0,1,,,,,,,,,
295258,2022-12-05_21h56.38.174,vts_reward_expectancy_bt,2022.2.4,Win32,60.40106306,Chrome,1280,720,,,,,1,984,,,,,,,,,,,,,,,,,146,D,hexagon,1,0,,,,,,,,,,,,,,,,switch,letter,lettSwt,j,0.4883,Lo,,,,,,3,,,,,,,,low,9,0,9,0,1,,,,,,,,,
295258,2022-12-05_21h56.38.174,vts_reward_expectancy_bt,2022.2.4,Win32,60.40106306,Chrome,1280,720,,,,,1,985,,,,,,,,,,,,,,,,,181,F,circle,1,0,,,,,,,,,,,,,,,,repeat,letter,lettRpt,j,0.5681,Lo,,,,,,3,,,,,,,,low,10,0,10,0,1,,,,,,,,,
295258,2022-12-05_21h56.38.174,vts_reward_expectancy_bt,2022.2.4,Win32,60.40106306,Chrome,1280,720,,,,,0,985,,,,,,,,,,,,,,,,,167,Y,star,1,0,,,,,,,,,,,,,,,,repeat,letter,lettRpt,k,0.553,Hi,,,,,,3,,,,,,,,low,11,0,11,0,1,,,,,,,,,
295258,2022-12-05_21h56.38.174,vts_reward_expectancy_bt,2022.2.4,Win32,60.40106306,Chrome,1280,720,,,,,1,986,,,,,,,,,,,,,,,,,174,H,hexagon,1,0,,,,,,,,,,,,,,,,repeat,letter,lettRpt,j,0.5344,Lo,,,,,,3,,,,,,,,low,12,0,12,0,1,,,,,,,,,
295258,2022-12-05_21h56.38.174,vts_reward_expectancy_bt,2022.2.4,Win32,60.40106306,Chrome,1280,720,,,,,0,986,,,,,,,,,,,,,,,,,125,U,star,0,0,,,,,,,,,,,,,,,,repeat,letter,NA,j,0.6095,Lo,,,,,,3,,,,,,,,low,13,0,13,0,1,,,,,,,,,
295258,2022-12-05_21h56.38.174,vts_reward_expectancy_bt,2022.2.4,Win32,60.40106306,Chrome,1280,720,,,,,0,986,,,,,,,,,,,,,,,,,132,B,triangle,1,1,,,,,,,,,,,,,,,,switch,number,numSwt,d,0.6012,Hi,,,,,,3,,,,,,,,low,14,0,14,0,1,,,,,,,,,
295258,2022-12-05_21h56.38.174,vts_reward_expectancy_bt,2022.2.4,Win32,60.40106306,Chrome,1280,720,,,,,1,987,,,,,,,,,,,,,,,,,160,S,circle,1,0,,,,,,,,,,,,,,,,repeat,number,numRpt,f,0.6669,Lo,,,,,,3,,,,,,,,low,15,0,15,0,1,,,,,,,,,
295258,2022-12-05_21h56.38.174,vts_reward_expectancy_bt,2022.2.4,Win32,60.40106306,Chrome,1280,720,,,,,1,988,,,,,,,,,,,,,,,,,160,Y,hexagon,1,0,,,,,,,,,,,,,,,,repeat,number,numRpt,f,0.6171,Lo,,,,,,3,,,,,,,,low,16,0,16,0,1,,,,,,,,,
295258,2022-12-05_21h56.38.174,vts_reward_expectancy_bt,2022.2.4,Win32,60.40106306,Chrome,1280,720,,,,,0,988,,,,,,,,,,,,,,,,,146,D,triangle,1,0,,,,,,,,,,,,,,,,repeat,number,numRpt,d,0.55,Hi,,,,,,3,,,,,,,,low,17,0,17,0,1,,,,,,,,,
295258,2022-12-05_21h56.38.174,vts_reward_expectancy_bt,2022.2.4,Win32,60.40106306,Chrome,1280,720,,,,,0,988,,,,,,,,,,,,,,,,,167,F,star,1,0,,,,,,,,,,,,,,,,repeat,number,numRpt,f,0.5749,Hi,,,,,,3,,,,,,,,low,18,0,18,0,1,,,,,,,,,
295258,2022-12-05_21h56.38.174,vts_reward_expectancy_bt,2022.2.4,Win32,60.40106306,Chrome,1280,720,,,,,1,989,,,,,,,,,,,,,,,,,174,B,circle,1,0,,,,,,,,,,,,,,,,switch,letter,lettSwt,j,0.5634,Lo,,,,,,3,,,,,,,,low,19,0,19,0,1,,,,,,,,,
295258,2022-12-05_21h56.38.174,vts_reward_expectancy_bt,2022.2.4,Win32,60.40106306,Chrome,1280,720,,,,,0,989,,,,,,,,,,,,,,,,,139,H,star,0,0,,,,,,,,,,,,,,,,switch,number,NA,f,0.4502,Lo,,,,,,3,,,,,,,,low,20,0,20,0,1,,,,,,,,,
295258,2022-12-05_21h56.38.174,vts_reward_expectancy_bt,2022.2.4,Win32,60.40106306,Chrome,1280,720,,,,,10,999,,,,,,,,,,,,,,,,,181,U,circle,1,1,,,,,,,,,,,,,,,,switch,letter,lettSwt,k,0.4174,Lo,,,,,,3,,,,,,,,low,21,0,21,0,1,,,,,,,,,
295258,2022-12-05_21h56.38.174,vts_reward_expectancy_bt,2022.2.4,Win32,60.40106306,Chrome,1280,720,,,,,1,1000,,,,,,,,,,,,,,,,,132,W,triangle,1,0,,,,,,,,,,,,,,,,switch,number,numSwt,d,0.5179,Hi,,,,,,3,,,,,,,,low,22,0,22,0,1,,,,,,,,,
295258,2022-12-05_21h56.38.174,vts_reward_expectancy_bt,2022.2.4,Win32,60.40106306,Chrome,1280,720,,,,,10,1010,,,,,,,,,,,,,,,,,125,S,hexagon,1,0,,,,,,,,,,,,,,,,repeat,number,numRpt,d,0.5503,Lo,,,,,,3,,,,,,,,low,23,0,23,0,1,,,,,,,,,
295258,2022-12-05_21h56.38.174,vts_reward_expectancy_bt,2022.2.4,Win32,60.40106306,Chrome,1280,720,,,,,0,1010,,,,,,,,,,,,,,,,,132,W,star,0,0,,,,,,,,,,,,,,,,repeat,number,NA,f,0.4017,Lo,,,,,,3,,,,,,,,low,24,0,24,0,1,,,,,,,,,
295258,2022-12-05_21h56.38.174,vts_reward_expectancy_bt,2022.2.4,Win32,60.40106306,Chrome,1280,720,,,,,0,1010,,,,,,,,,,,,,,,,,146,H,circle,0,1,,,,,,,,,,,,,,,,switch,letter,NA,k,0.6469,Lo,,,,,,3,,,,,,,,low,25,0,25,0,1,,,,,,,,,
295258,2022-12-05_21h56.38.174,vts_reward_expectancy_bt,2022.2.4,Win32,60.40106306,Chrome,1280,720,,,,,10,1020,,,,,,,,,,,,,,,,,174,Y,hexagon,1,1,,,,,,,,,,,,,,,,switch,number,numSwt,f,0.6036,Lo,,,,,,3,,,,,,,,low,26,0,26,0,1,,,,,,,,,
295258,2022-12-05_21h56.38.174,vts_reward_expectancy_bt,2022.2.4,Win32,60.40106306,Chrome,1280,720,,,,,0,1020,,,,,,,,,,,,,,,,,181,D,triangle,1,0,,,,,,,,,,,,,,,,repeat,number,numRpt,f,0.6533,Hi,,,,,,3,,,,,,,,low,27,0,27,0,1,,,,,,,,,
295258,2022-12-05_21h56.38.174,vts_reward_expectancy_bt,2022.2.4,Win32,60.40106306,Chrome,1280,720,,,,,1,1021,,,,,,,,,,,,,,,,,160,U,star,1,0,,,,,,,,,,,,,,,,repeat,number,numRpt,f,0.4681,Hi,,,,,,3,,,,,,,,low,28,0,28,0,1,,,,,,,,,
295258,2022-12-05_21h56.38.174,vts_reward_expectancy_bt,2022.2.4,Win32,60.40106306,Chrome,1280,720,,,,,0,1021,,,,,,,,,,,,,,,,,139,F,triangle,1,0,,,,,,,,,,,,,,,,repeat,number,numRpt,d,0.5864,Hi,,,,,,3,,,,,,,,low,29,0,29,0,1,,,,,,,,,
295258,2022-12-05_21h56.38.174,vts_reward_expectancy_bt,2022.2.4,Win32,60.40106306,Chrome,1280,720,,,,,10,1031,,,,,,,,,,,,,,,,,125,B,circle,1,0,,,,,,,,,,,,,,,,switch,letter,lettSwt,j,0.4745,Lo,,,,,,3,,,,,,,,low,30,0,30,0,1,,,,,,,,,
295258,2022-12-05_21h56.38.174,vts_reward_expectancy_bt,2022.2.4,Win32,60.40106306,Chrome,1280,720,,,,,10,1041,,,,,,,,,,,,,,,,,167,S,hexagon,1,0,,,,,,,,,,,,,,,,switch,number,numSwt,f,0.5472,Lo,,,,,,3,,,,,,,,low,31,0,31,0,1,,,,,,,,,
295258,2022-12-05_21h56.38.174,vts_reward_expectancy_bt,2022.2.4,Win32,60.40106306,Chrome,1280,720,,,,,10,1051,,,,,,,,,,,,,,,,,139,U,circle,1,0,,,,,,,,,,,,,,,,switch,letter,lettSwt,k,0.601,Lo,,,,,,4,,,,,,space,0.9662,low,0,0,0,0,1,,,,,,,,,
295258,2022-12-05_21h56.38.174,vts_reward_expectancy_bt,2022.2.4,Win32,60.40106306,Chrome,1280,720,,,,,1,1052,,,,,,,,,,,,,,,,,125,W,hexagon,1,0,,,,,,,,,,,,,,,,switch,number,numSwt,d,0.4936,Lo,,,,,,4,,,,,,,,low,1,0,1,0,1,,,,,,,,,
295258,2022-12-05_21h56.38.174,vts_reward_expectancy_bt,2022.2.4,Win32,60.40106306,Chrome,1280,720,,,,,10,1062,,,,,,,,,,,,,,,,,181,Y,triangle,1,0,,,,,,,,,,,,,,,,repeat,number,numRpt,f,0.479,Hi,,,,,,4,,,,,,,,low,2,0,2,0,1,,,,,,,,,
295258,2022-12-05_21h56.38.174,vts_reward_expectancy_bt,2022.2.4,Win32,60.40106306,Chrome,1280,720,,,,,10,1072,,,,,,,,,,,,,,,,,160,S,star,1,0,,,,,,,,,,,,,,,,repeat,number,numRpt,f,0.4404,Hi,,,,,,4,,,,,,,,low,3,0,3,0,1,,,,,,,,,
295258,2022-12-05_21h56.38.174,vts_reward_expectancy_bt,2022.2.4,Win32,60.40106306,Chrome,1280,720,,,,,10,1082,,,,,,,,,,,,,,,,,174,D,circle,1,0,,,,,,,,,,,,,,,,switch,letter,lettSwt,j,0.5339,Lo,,,,,,4,,,,,,,,low,4,0,4,0,1,,,,,,,,,
295258,2022-12-05_21h56.38.174,vts_reward_expectancy_bt,2022.2.4,Win32,60.40106306,Chrome,1280,720,,,,,1,1083,,,,,,,,,,,,,,,,,146,H,hexagon,1,0,,,,,,,,,,,,,,,,repeat,letter,lettRpt,j,0.5343,Lo,,,,,,4,,,,,,,,low,5,0,5,0,1,,,,,,,,,
295258,2022-12-05_21h56.38.174,vts_reward_expectancy_bt,2022.2.4,Win32,60.40106306,Chrome,1280,720,,,,,1,1084,,,,,,,,,,,,,,,,,167,B,triangle,1,0,,,,,,,,,,,,,,,,switch,number,numSwt,f,0.525,Hi,,,,,,4,,,,,,,,low,6,0,6,0,1,,,,,,,,,
295258,2022-12-05_21h56.38.174,vts_reward_expectancy_bt,2022.2.4,Win32,60.40106306,Chrome,1280,720,,,,,0,1084,,,,,,,,,,,,,,,,,132,F,star,0,0,,,,,,,,,,,,,,,,repeat,number,NA,f,0.5069,Hi,,,,,,4,,,,,,,,low,7,0,7,0,1,,,,,,,,,
295258,2022-12-05_21h56.38.174,vts_reward_expectancy_bt,2022.2.4,Win32,60.40106306,Chrome,1280,720,,,,,0,1084,,,,,,,,,,,,,,,,,139,U,star,1,1,,,,,,,,,,,,,,,,repeat,number,numRpt,d,0.5676,Hi,,,,,,4,,,,,,,,low,8,0,8,0,1,,,,,,,,,
295258,2022-12-05_21h56.38.174,vts_reward_expectancy_bt,2022.2.4,Win32,60.40106306,Chrome,1280,720,,,,,1,1085,,,,,,,,,,,,,,,,,125,W,circle,1,0,,,,,,,,,,,,,,,,repeat,number,numRpt,d,0.5213,Lo,,,,,,4,,,,,,,,low,9,0,9,0,1,,,,,,,,,
295258,2022-12-05_21h56.38.174,vts_reward_expectancy_bt,2022.2.4,Win32,60.40106306,Chrome,1280,720,,,,,1,1086,,,,,,,,,,,,,,,,,181,Y,triangle,1,0,,,,,,,,,,,,,,,,repeat,number,numRpt,f,0.5215,Hi,,,,,,4,,,,,,,,low,10,0,10,0,1,,,,,,,,,
295258,2022-12-05_21h56.38.174,vts_reward_expectancy_bt,2022.2.4,Win32,60.40106306,Chrome,1280,720,,,,,1,1087,,,,,,,,,,,,,,,,,160,S,hexagon,1,0,,,,,,,,,,,,,,,,switch,letter,lettSwt,k,0.6725,Lo,,,,,,4,,,,,,,,low,11,0,11,0,1,,,,,,,,,
295258,2022-12-05_21h56.38.174,vts_reward_expectancy_bt,2022.2.4,Win32,60.40106306,Chrome,1280,720,,,,,0,1087,,,,,,,,,,,,,,,,,174,D,star,1,0,,,,,,,,,,,,,,,,switch,number,numSwt,f,0.7116,Hi,,,,,,4,,,,,,,,low,12,0,12,0,1,,,,,,,,,
295258,2022-12-05_21h56.38.174,vts_reward_expectancy_bt,2022.2.4,Win32,60.40106306,Chrome,1280,720,,,,,0,1087,,,,,,,,,,,,,,,,,146,H,triangle,1,0,,,,,,,,,,,,,,,,switch,letter,lettSwt,j,0.5455,Hi,,,,,,4,,,,,,,,low,13,0,13,0,1,,,,,,,,,
295258,2022-12-05_21h56.38.174,vts_reward_expectancy_bt,2022.2.4,Win32,60.40106306,Chrome,1280,720,,,,,1,1088,,,,,,,,,,,,,,,,,167,B,hexagon,1,0,,,,,,,,,,,,,,,,repeat,letter,lettRpt,j,0.5733,Lo,,,,,,4,,,,,,,,low,14,0,14,0,1,,,,,,,,,
295258,2022-12-05_21h56.38.174,vts_reward_expectancy_bt,2022.2.4,Win32,60.40106306,Chrome,1280,720,,,,,10,1098,,,,,,,,,,,,,,,,,132,F,circle,1,0,,,,,,,,,,,,,,,,repeat,letter,lettRpt,j,0.4617,Lo,,,,,,4,,,,,,,,low,15,0,15,0,1,,,,,,,,,
295258,2022-12-05_21h56.38.174,vts_reward_expectancy_bt,2022.2.4,Win32,60.40106306,Chrome,1280,720,,,,,10,1108,,,,,,,,,,,,,,,,,139,H,circle,1,0,,,,,,,,,,,,,,,,repeat,letter,lettRpt,j,0.5464,Lo,,,,,,4,,,,,,,,low,16,0,16,0,1,,,,,,,,,
295258,2022-12-05_21h56.38.174,vts_reward_expectancy_bt,2022.2.4,Win32,60.40106306,Chrome,1280,720,,,,,0,1108,,,,,,,,,,,,,,,,,132,F,star,1,0,,,,,,,,,,,,,,,,repeat,letter,lettRpt,j,0.5586,Hi,,,,,,4,,,,,,,,low,17,0,17,0,1,,,,,,,,,
295258,2022-12-05_21h56.38.174,vts_reward_expectancy_bt,2022.2.4,Win32,60.40106306,Chrome,1280,720,,,,,1,1109,,,,,,,,,,,,,,,,,174,U,triangle,1,0,,,,,,,,,,,,,,,,repeat,letter,lettRpt,k,0.4442,Hi,,,,,,4,,,,,,,,low,18,0,18,0,1,,,,,,,,,
295258,2022-12-05_21h56.38.174,vts_reward_expectancy_bt,2022.2.4,Win32,60.40106306,Chrome,1280,720,,,,,10,1119,,,,,,,,,,,,,,,,,167,D,hexagon,1,0,,,,,,,,,,,,,,,,repeat,letter,lettRpt,j,0.534,Lo,,,,,,4,,,,,,,,low,19,0,19,0,1,,,,,,,,,
295258,2022-12-05_21h56.38.174,vts_reward_expectancy_bt,2022.2.4,Win32,60.40106306,Chrome,1280,720,,,,,10,1129,,,,,,,,,,,,,,,,,146,B,hexagon,1,0,,,,,,,,,,,,,,,,repeat,letter,lettRpt,j,0.4676,Lo,,,,,,4,,,,,,,,low,20,0,20,0,1,,,,,,,,,
295258,2022-12-05_21h56.38.174,vts_reward_expectancy_bt,2022.2.4,Win32,60.40106306,Chrome,1280,720,,,,,1,1130,,,,,,,,,,,,,,,,,125,W,star,1,0,,,,,,,,,,,,,,,,repeat,letter,lettRpt,k,0.5069,Hi,,,,,,4,,,,,,,,low,21,0,21,0,1,,,,,,,,,
295258,2022-12-05_21h56.38.174,vts_reward_expectancy_bt,2022.2.4,Win32,60.40106306,Chrome,1280,720,,,,,0,1130,,,,,,,,,,,,,,,,,181,S,triangle,0,0,,,,,,,,,,,,,,,,repeat,letter,NA,j,0.4812,Hi,,,,,,4,,,,,,,,low,22,0,22,0,1,,,,,,,,,
295258,2022-12-05_21h56.38.174,vts_reward_expectancy_bt,2022.2.4,Win32,60.40106306,Chrome,1280,720,,,,,1,1131,,,,,,,,,,,,,,,,,160,Y,circle,1,1,,,,,,,,,,,,,,,,repeat,letter,lettRpt,k,0.4514,Lo,,,,,,4,,,,,,,,low,23,0,23,0,1,,,,,,,,,
295258,2022-12-05_21h56.38.174,vts_reward_expectancy_bt,2022.2.4,Win32,60.40106306,Chrome,1280,720,,,,,1,1132,,,,,,,,,,,,,,,,,146,S,hexagon,1,0,,,,,,,,,,,,,,,,repeat,letter,lettRpt,k,0.583,Lo,,,,,,4,,,,,,,,low,24,0,24,0,1,,,,,,,,,
295258,2022-12-05_21h56.38.174,vts_reward_expectancy_bt,2022.2.4,Win32,60.40106306,Chrome,1280,720,,,,,1,1133,,,,,,,,,,,,,,,,,132,B,circle,1,0,,,,,,,,,,,,,,,,repeat,letter,lettRpt,j,0.4041,Lo,,,,,,4,,,,,,,,low,25,0,25,0,1,,,,,,,,,
295258,2022-12-05_21h56.38.174,vts_reward_expectancy_bt,2022.2.4,Win32,60.40106306,Chrome,1280,720,,,,,0,1133,,,,,,,,,,,,,,,,,160,U,star,1,0,,,,,,,,,,,,,,,,switch,number,numSwt,f,0.6005,Hi,,,,,,4,,,,,,,,low,26,0,26,0,1,,,,,,,,,
295258,2022-12-05_21h56.38.174,vts_reward_expectancy_bt,2022.2.4,Win32,60.40106306,Chrome,1280,720,,,,,10,1143,,,,,,,,,,,,,,,,,181,D,triangle,1,0,,,,,,,,,,,,,,,,repeat,number,numRpt,f,0.4763,Hi,,,,,,4,,,,,,,,low,27,0,27,0,1,,,,,,,,,
295258,2022-12-05_21h56.38.174,vts_reward_expectancy_bt,2022.2.4,Win32,60.40106306,Chrome,1280,720,,,,,1,1144,,,,,,,,,,,,,,,,,167,Y,star,1,0,,,,,,,,,,,,,,,,repeat,number,numRpt,f,0.4219,Hi,,,,,,4,,,,,,,,low,28,0,28,0,1,,,,,,,,,
295258,2022-12-05_21h56.38.174,vts_reward_expectancy_bt,2022.2.4,Win32,60.40106306,Chrome,1280,720,,,,,1,1145,,,,,,,,,,,,,,,,,139,W,hexagon,1,0,,,,,,,,,,,,,,,,switch,letter,lettSwt,k,0.5255,Lo,,,,,,4,,,,,,,,low,29,0,29,0,1,,,,,,,,,
295258,2022-12-05_21h56.38.174,vts_reward_expectancy_bt,2022.2.4,Win32,60.40106306,Chrome,1280,720,,,,,1,1146,,,,,,,,,,,,,,,,,174,F,circle,1,0,,,,,,,,,,,,,,,,repeat,letter,lettRpt,j,0.556,Lo,,,,,,4,,,,,,,,low,30,0,30,0,1,,,,,,,,,
295258,2022-12-05_21h56.38.174,vts_reward_expectancy_bt,2022.2.4,Win32,60.40106306,Chrome,1280,720,,,,,0,1146,,,,,,,,,,,,,,,,,125,H,triangle,1,0,,,,,,,,,,,,,,,,switch,number,numSwt,d,0.6263,Hi,,,,,,4,,,,,,,,low,31,0,31,0,1,,,,,,,,,
295258,2022-12-05_21h56.38.174,vts_reward_expectancy_bt,2022.2.4,Win32,60.40106306,Chrome,1280,720,,,,,0,1146,,,,,,,,,,,,,,,,,174,W,triangle,1,0,,,,,,,,,,,,,,,,switch,letter,lettSwt,k,0.7426,Hi,,,,,,5,,,,,,space,1.6577,low,0,0,0,0,1,,,,,,,,,
295258,2022-12-05_21h56.38.174,vts_reward_expectancy_bt,2022.2.4,Win32,60.40106306,Chrome,1280,720,,,,,10,1156,,,,,,,,,,,,,,,,,146,Y,hexagon,1,0,,,,,,,,,,,,,,,,repeat,letter,lettRpt,k,0.5511,Lo,,,,,,5,,,,,,,,low,1,0,1,0,1,,,,,,,,,
295258,2022-12-05_21h56.38.174,vts_reward_expectancy_bt,2022.2.4,Win32,60.40106306,Chrome,1280,720,,,,,10,1166,,,,,,,,,,,,,,,,,125,H,circle,1,0,,,,,,,,,,,,,,,,repeat,letter,lettRpt,j,0.6092,Lo,,,,,,5,,,,,,,,low,2,0,2,0,1,,,,,,,,,
295258,2022-12-05_21h56.38.174,vts_reward_expectancy_bt,2022.2.4,Win32,60.40106306,Chrome,1280,720,,,,,0,1166,,,,,,,,,,,,,,,,,160,U,star,1,0,,,,,,,,,,,,,,,,repeat,letter,lettRpt,k,0.6178,Hi,,,,,,5,,,,,,,,low,3,0,3,0,1,,,,,,,,,
295258,2022-12-05_21h56.38.174,vts_reward_expectancy_bt,2022.2.4,Win32,60.40106306,Chrome,1280,720,,,,,0,1166,,,,,,,,,,,,,,,,,132,F,triangle,1,0,,,,,,,,,,,,,,,,repeat,letter,lettRpt,j,0.5517,Hi,,,,,,5,,,,,,,,low,4,0,4,0,1,,,,,,,,,
295258,2022-12-05_21h56.38.174,vts_reward_expectancy_bt,2022.2.4,Win32,60.40106306,Chrome,1280,720,,,,,1,1167,,,,,,,,,,,,,,,,,167,B,hexagon,1,0,,,,,,,,,,,,,,,,repeat,letter,lettRpt,j,0.4759,Lo,,,,,,5,,,,,,,,low,5,0,5,0,1,,,,,,,,,
295258,2022-12-05_21h56.38.174,vts_reward_expectancy_bt,2022.2.4,Win32,60.40106306,Chrome,1280,720,,,,,1,1168,,,,,,,,,,,,,,,,,181,S,circle,1,0,,,,,,,,,,,,,,,,repeat,letter,lettRpt,k,0.6173,Lo,,,,,,5,,,,,,,,low,6,0,6,0,1,,,,,,,,,
295258,2022-12-05_21h56.38.174,vts_reward_expectancy_bt,2022.2.4,Win32,60.40106306,Chrome,1280,720,,,,,10,1178,,,,,,,,,,,,,,,,,139,D,star,1,0,,,,,,,,,,,,,,,,repeat,letter,lettRpt,j,0.4614,Hi,,,,,,5,,,,,,,,low,7,0,7,0,1,,,,,,,,,
295258,2022-12-05_21h56.38.174,vts_reward_expectancy_bt,2022.2.4,Win32,60.40106306,Chrome,1280,720,,,,,0,1178,,,,,,,,,,,,,,,,,174,W,star,1,0,,,,,,,,,,,,,,,,repeat,letter,lettRpt,k,0.4851,Hi,,,,,,5,,,,,,,,low,8,0,8,0,1,,,,,,,,,
295258,2022-12-05_21h56.38.174,vts_reward_expectancy_bt,2022.2.4,Win32,60.40106306,Chrome,1280,720,,,,,0,1178,,,,,,,,,,,,,,,,,146,Y,triangle,1,0,,,,,,,,,,,,,,,,repeat,letter,lettRpt,k,0.5519,Hi,,,,,,5,,,,,,,,low,9,0,9,0,1,,,,,,,,,
295258,2022-12-05_21h56.38.174,vts_reward_expectancy_bt,2022.2.4,Win32,60.40106306,Chrome,1280,720,,,,,10,1188,,,,,,,,,,,,,,,,,125,H,hexagon,1,0,,,,,,,,,,,,,,,,repeat,letter,lettRpt,j,0.573,Lo,,,,,,5,,,,,,,,low,10,0,10,0,1,,,,,,,,,
295258,2022-12-05_21h56.38.174,vts_reward_expectancy_bt,2022.2.4,Win32,60.40106306,Chrome,1280,720,,,,,10,1198,,,,,,,,,,,,,,,,,160,U,circle,1,0,,,,,,,,,,,,,,,,repeat,letter,lettRpt,k,0.511,Lo,,,,,,5,,,,,,,,low,11,0,11,0,1,,,,,,,,,
295258,2022-12-05_21h56.38.174,vts_reward_expectancy_bt,2022.2.4,Win32,60.40106306,Chrome,1280,720,,,,,0,1198,,,,,,,,,,,,,,,,,132,F,hexagon,0,0,,,,,,,,,,,,,,,,repeat,letter,NA,k,0.4878,Lo,,,,,,5,,,,,,,,low,12,0,12,0,1,,,,,,,,,
295258,2022-12-05_21h56.38.174,vts_reward_expectancy_bt,2022.2.4,Win32,60.40106306,Chrome,1280,720,,,,,0,1198,,,,,,,,,,,,,,,,,167,B,triangle,1,1,,,,,,,,,,,,,,,,repeat,letter,lettRpt,j,0.4831,Hi,,,,,,5,,,,,,,,low,13,0,13,0,1,,,,,,,,,
295258,2022-12-05_21h56.38.174,vts_reward_expectancy_bt,2022.2.4,Win32,60.40106306,Chrome,1280,720,,,,,0,1198,,,,,,,,,,,,,,,,,181,S,star,0,0,,,,,,,,,,,,,,,,repeat,letter,NA,j,0.3982,Hi,,,,,,5,,,,,,,,low,14,0,14,0,1,,,,,,,,,
295258,2022-12-05_21h56.38.174,vts_reward_expectancy_bt,2022.2.4,Win32,60.40106306,Chrome,1280,720,,,,,1,1199,,,,,,,,,,,,,,,,,139,D,circle,1,1,,,,,,,,,,,,,,,,repeat,letter,lettRpt,j,0.7337,Lo,,,,,,5,,,,,,,,low,15,0,15,0,1,,,,,,,,,
295258,2022-12-05_21h56.38.174,vts_reward_expectancy_bt,2022.2.4,Win32,60.40106306,Chrome,1280,720,,,,,0,1199,,,,,,,,,,,,,,,,,125,F,star,1,0,,,,,,,,,,,,,,,,repeat,letter,lettRpt,j,0.5172,Hi,,,,,,5,,,,,,,,low,16,0,16,0,1,,,,,,,,,
295258,2022-12-05_21h56.38.174,vts_reward_expectancy_bt,2022.2.4,Win32,60.40106306,Chrome,1280,720,,,,,10,1209,,,,,,,,,,,,,,,,,181,W,circle,1,0,,,,,,,,,,,,,,,,repeat,letter,lettRpt,k,0.481,Lo,,,,,,5,,,,,,,,low,17,0,17,0,1,,,,,,,,,
295258,2022-12-05_21h56.38.174,vts_reward_expectancy_bt,2022.2.4,Win32,60.40106306,Chrome,1280,720,,,,,0,1209,,,,,,,,,,,,,,,,,167,S,triangle,1,0,,,,,,,,,,,,,,,,repeat,letter,lettRpt,k,0.5946,Hi,,,,,,5,,,,,,,,low,18,0,18,0,1,,,,,,,,,
295258,2022-12-05_21h56.38.174,vts_reward_expectancy_bt,2022.2.4,Win32,60.40106306,Chrome,1280,720,,,,,1,1210,,,,,,,,,,,,,,,,,160,D,hexagon,1,0,,,,,,,,,,,,,,,,repeat,letter,lettRpt,j,0.6766,Lo,,,,,,5,,,,,,,,low,19,0,19,0,1,,,,,,,,,
295258,2022-12-05_21h56.38.174,vts_reward_expectancy_bt,2022.2.4,Win32,60.40106306,Chrome,1280,720,,,,,0,1210,,,,,,,,,,,,,,,,,139,U,star,1,0,,,,,,,,,,,,,,,,repeat,letter,lettRpt,k,0.6078,Hi,,,,,,5,,,,,,,,low,20,0,20,0,1,,,,,,,,,
295258,2022-12-05_21h56.38.174,vts_reward_expectancy_bt,2022.2.4,Win32,60.40106306,Chrome,1280,720,,,,,0,1210,,,,,,,,,,,,,,,,,132,B,triangle,1,0,,,,,,,,,,,,,,,,repeat,letter,lettRpt,j,0.5177,Hi,,,,,,5,,,,,,,,low,21,0,21,0,1,,,,,,,,,
295258,2022-12-05_21h56.38.174,vts_reward_expectancy_bt,2022.2.4,Win32,60.40106306,Chrome,1280,720,,,,,1,1211,,,,,,,,,,,,,,,,,146,H,hexagon,1,0,,,,,,,,,,,,,,,,repeat,letter,lettRpt,j,0.6208,Lo,,,,,,5,,,,,,,,low,22,0,22,0,1,,,,,,,,,
295258,2022-12-05_21h56.38.174,vts_reward_expectancy_bt,2022.2.4,Win32,60.40106306,Chrome,1280,720,,,,,10,1221,,,,,,,,,,,,,,,,,174,Y,circle,1,0,,,,,,,,,,,,,,,,repeat,letter,lettRpt,k,0.4678,Lo,,,,,,5,,,,,,,,low,23,0,23,0,1,,,,,,,,,
295258,2022-12-05_21h56.38.174,vts_reward_expectancy_bt,2022.2.4,Win32,60.40106306,Chrome,1280,720,,,,,10,1231,,,,,,,,,,,,,,,,,181,B,triangle,1,0,,,,,,,,,,,,,,,,repeat,letter,lettRpt,j,0.4505,Hi,,,,,,5,,,,,,,,low,24,0,24,0,1,,,,,,,,,
295258,2022-12-05_21h56.38.174,vts_reward_expectancy_bt,2022.2.4,Win32,60.40106306,Chrome,1280,720,,,,,1,1232,,,,,,,,,,,,,,,,,146,F,hexagon,1,0,,,,,,,,,,,,,,,,repeat,letter,lettRpt,j,0.455,Lo,,,,,,5,,,,,,,,low,25,0,25,0,1,,,,,,,,,
295258,2022-12-05_21h56.38.174,vts_reward_expectancy_bt,2022.2.4,Win32,60.40106306,Chrome,1280,720,,,,,0,1232,,,,,,,,,,,,,,,,,160,W,star,1,0,,,,,,,,,,,,,,,,repeat,letter,lettRpt,k,0.6009,Hi,,,,,,5,,,,,,,,low,26,0,26,0,1,,,,,,,,,
295258,2022-12-05_21h56.38.174,vts_reward_expectancy_bt,2022.2.4,Win32,60.40106306,Chrome,1280,720,,,,,1,1233,,,,,,,,,,,,,,,,,167,S,circle,1,0,,,,,,,,,,,,,,,,repeat,letter,lettRpt,k,0.5169,Lo,,,,,,5,,,,,,,,low,27,0,27,0,1,,,,,,,,,
295258,2022-12-05_21h56.38.174,vts_reward_expectancy_bt,2022.2.4,Win32,60.40106306,Chrome,1280,720,,,,,1,1234,,,,,,,,,,,,,,,,,132,U,circle,1,0,,,,,,,,,,,,,,,,repeat,letter,lettRpt,k,0.6425,Lo,,,,,,5,,,,,,,,low,28,0,28,0,1,,,,,,,,,
295258,2022-12-05_21h56.38.174,vts_reward_expectancy_bt,2022.2.4,Win32,60.40106306,Chrome,1280,720,,,,,0,1234,,,,,,,,,,,,,,,,,174,H,star,1,0,,,,,,,,,,,,,,,,repeat,letter,lettRpt,j,0.558,Hi,,,,,,5,,,,,,,,low,29,0,29,0,1,,,,,,,,,
295258,2022-12-05_21h56.38.174,vts_reward_expectancy_bt,2022.2.4,Win32,60.40106306,Chrome,1280,720,,,,,10,1244,,,,,,,,,,,,,,,,,139,Y,hexagon,1,0,,,,,,,,,,,,,,,,repeat,letter,lettRpt,k,0.5133,Lo,,,,,,5,,,,,,,,low,30,0,30,0,1,,,,,,,,,
