participant,date,expName,psychopyVersion,OS,frameRate,browser,xResolution,yResolution,key_resp.keys,key_resp.rt,training_resp.keys,training_resp.rt,points_trial,points_cumul,trainBlock,training.thisRepN,training.thisTrialN,training.thisN,training.thisIndex,training.ran,LTriangleOpac,LCircleOpac,LHexagonOpac,LStarOpac,RTriangleOpac,RCircleOpac,RHexagonOpac,RStarOpac,LShape_ID,RShape_ID,curr_topStim,curr_bottStim,curr_shape,acc,E1,target_resp_prac1.keys,pracBlock,task1_prac_trials.thisRepN,task1_prac_trials.thisTrialN,task1_prac_trials.thisN,task1_prac_trials.thisIndex,task1_prac_trials.ran,target_resp_prac1.rt,target_resp_prac2.keys,target_resp_prac2.rt,task2_praac_trials.thisRepN,task2_praac_trials.thisTrialN,task2_praac_trials.thisN,task2_praac_trials.thisIndex,task2_praac_trials.ran,alt,task,condition,target_resp.keys,target_resp.rt,rewCond,vts_practice_trials.thisRepN,vts_practice_trials.thisTrialN,vts_practice_trials.thisN,vts_practice_trials.thisIndex,vts_practice_trials.ran,blockNum,trials_norew.thisRepN,trials_norew.thisTrialN,trials_norew.thisN,trials_norew.thisIndex,trials_norew.ran,key_resp_2.keys,key_resp_2.rt,rewExpectancy,trials_rew.thisRepN,trials_rew.thisTrialN,trials_rew.thisN,trials_rew.thisIndex,trials_rew.ran,Q1,Q2,Q2_text,Q3,Q4,Q5_text,Q5,xRes,yRes
295288,2022-11-21_18h20.57.220,vts_reward_expectancy_bt,2022.2.4,MacIntel,60.0024001,Chrome,1440,900,,,,,,,,,,,,,,,,,,,,,,,,,,,,,,,,,,,,,,,,,,,,,,,,,,,,,,,,,,,,,,,,,,,,,,,,,,,,
295288,2022-11-21_18h20.57.220,vts_reward_expectancy_bt,2022.2.4,MacIntel,60.0024001,Chrome,1440,900,space,12.8178,,,,,,,,,,,,,,,,,,,,,,,,,,,,,,,,,,,,,,,,,,,,,,,,,,,,,,,,,,,,,,,,,,,,,,,,,,
295288,2022-11-21_18h20.57.220,vts_reward_expectancy_bt,2022.2.4,MacIntel,60.0024001,Chrome,1440,900,,,,,,,,,,,,,,,,,,,,,,,,,,,,,,,,,,,,,,,,,,,,,,,,,,,,,,,,,,,,,,,,,,,,,,,,,,,,
295288,2022-11-21_18h20.57.220,vts_reward_expectancy_bt,2022.2.4,MacIntel,60.0024001,Chrome,1440,900,,,a,1.4231,1,1,0,0,0,0,0,1,1,0,0,0,0,1,0,0,triangle,circle,,,,,,,,,,,,,,,,,,,,,,,,,,,,,,,,,,,,,,,,,,,,,,,,,,,,,,
295288,2022-11-21_18h20.57.220,vts_reward_expectancy_bt,2022.2.4,MacIntel,60.0024001,Chrome,1440,900,,,l,0.9715,1,2,0,0,1,1,10,1,0,0,0,1,0,1,0,0,star ,circle,,,,,,,,,,,,,,,,,,,,,,,,,,,,,,,,,,,,,,,,,,,,,,,,,,,,,,
295288,2022-11-21_18h20.57.220,vts_reward_expectancy_bt,2022.2.4,MacIntel,60.0024001,Chrome,1440,900,,,l,1.8917,1,3,0,0,2,2,6,1,0,0,1,0,1,0,0,0,hexagon,triangle,,,,,,,,,,,,,,,,,,,,,,,,,,,,,,,,,,,,,,,,,,,,,,,,,,,,,,
295288,2022-11-21_18h20.57.220,vts_reward_expectancy_bt,2022.2.4,MacIntel,60.0024001,Chrome,1440,900,,,a,1.2004,10,13,0,0,3,3,1,1,1,0,0,0,0,0,1,0,triangle,hexagon,,,,,,,,,,,,,,,,,,,,,,,,,,,,,,,,,,,,,,,,,,,,,,,,,,,,,,
295288,2022-11-21_18h20.57.220,vts_reward_expectancy_bt,2022.2.4,MacIntel,60.0024001,Chrome,1440,900,,,l,1.9044,1,14,0,0,4,4,8,1,0,0,1,0,0,0,0,1,hexagon,star,,,,,,,,,,,,,,,,,,,,,,,,,,,,,,,,,,,,,,,,,,,,,,,,,,,,,,
295288,2022-11-21_18h20.57.220,vts_reward_expectancy_bt,2022.2.4,MacIntel,60.0024001,Chrome,1440,900,,,l,1.8055,10,24,0,0,5,5,7,1,0,0,1,0,0,1,0,0,hexagon,circle,,,,,,,,,,,,,,,,,,,,,,,,,,,,,,,,,,,,,,,,,,,,,,,,,,,,,,
295288,2022-11-21_18h20.57.220,vts_reward_expectancy_bt,2022.2.4,MacIntel,60.0024001,Chrome,1440,900,,,a,0.8967,10,34,0,0,6,6,2,1,1,0,0,0,0,0,0,1,triangle,star,,,,,,,,,,,,,,,,,,,,,,,,,,,,,,,,,,,,,,,,,,,,,,,,,,,,,,
295288,2022-11-21_18h20.57.220,vts_reward_expectancy_bt,2022.2.4,MacIntel,60.0024001,Chrome,1440,900,,,a,1.1667,10,44,0,0,7,7,4,1,0,1,0,0,0,0,1,0,circle,hexagon,,,,,,,,,,,,,,,,,,,,,,,,,,,,,,,,,,,,,,,,,,,,,,,,,,,,,,
295288,2022-11-21_18h20.57.220,vts_reward_expectancy_bt,2022.2.4,MacIntel,60.0024001,Chrome,1440,900,,,a,0.577,10,54,0,0,8,8,5,1,0,1,0,0,0,0,0,1,circle,star,,,,,,,,,,,,,,,,,,,,,,,,,,,,,,,,,,,,,,,,,,,,,,,,,,,,,,
295288,2022-11-21_18h20.57.220,vts_reward_expectancy_bt,2022.2.4,MacIntel,60.0024001,Chrome,1440,900,,,l,1.0457,1,55,0,0,9,9,9,1,0,0,0,1,1,0,0,0,star,triangle,,,,,,,,,,,,,,,,,,,,,,,,,,,,,,,,,,,,,,,,,,,,,,,,,,,,,,
295288,2022-11-21_18h20.57.220,vts_reward_expectancy_bt,2022.2.4,MacIntel,60.0024001,Chrome,1440,900,,,a,1.1884,10,65,0,0,10,10,11,1,0,0,0,1,0,0,1,0,star,hexagon,,,,,,,,,,,,,,,,,,,,,,,,,,,,,,,,,,,,,,,,,,,,,,,,,,,,,,
295288,2022-11-21_18h20.57.220,vts_reward_expectancy_bt,2022.2.4,MacIntel,60.0024001,Chrome,1440,900,,,a,1.1317,1,66,0,0,11,11,3,1,0,1,0,0,1,0,0,0,circle,triangle,,,,,,,,,,,,,,,,,,,,,,,,,,,,,,,,,,,,,,,,,,,,,,,,,,,,,,
295288,2022-11-21_18h20.57.220,vts_reward_expectancy_bt,2022.2.4,MacIntel,60.0024001,Chrome,1440,900,,,l,0.6511,1,67,0,1,0,12,7,1,0,0,1,0,0,1,0,0,hexagon,circle,,,,,,,,,,,,,,,,,,,,,,,,,,,,,,,,,,,,,,,,,,,,,,,,,,,,,,
295288,2022-11-21_18h20.57.220,vts_reward_expectancy_bt,2022.2.4,MacIntel,60.0024001,Chrome,1440,900,,,l,0.853,1,68,0,1,1,13,8,1,0,0,1,0,0,0,0,1,hexagon,star,,,,,,,,,,,,,,,,,,,,,,,,,,,,,,,,,,,,,,,,,,,,,,,,,,,,,,
295288,2022-11-21_18h20.57.220,vts_reward_expectancy_bt,2022.2.4,MacIntel,60.0024001,Chrome,1440,900,,,l,0.734,1,69,0,1,2,14,2,1,1,0,0,0,0,0,0,1,triangle,star,,,,,,,,,,,,,,,,,,,,,,,,,,,,,,,,,,,,,,,,,,,,,,,,,,,,,,
295288,2022-11-21_18h20.57.220,vts_reward_expectancy_bt,2022.2.4,MacIntel,60.0024001,Chrome,1440,900,,,a,0.6944,10,79,0,1,3,15,5,1,0,1,0,0,0,0,0,1,circle,star,,,,,,,,,,,,,,,,,,,,,,,,,,,,,,,,,,,,,,,,,,,,,,,,,,,,,,
295288,2022-11-21_18h20.57.220,vts_reward_expectancy_bt,2022.2.4,MacIntel,60.0024001,Chrome,1440,900,,,a,0.8498,10,89,0,1,4,16,6,1,0,0,1,0,1,0,0,0,hexagon,triangle,,,,,,,,,,,,,,,,,,,,,,,,,,,,,,,,,,,,,,,,,,,,,,,,,,,,,,
295288,2022-11-21_18h20.57.220,vts_reward_expectancy_bt,2022.2.4,MacIntel,60.0024001,Chrome,1440,900,,,a,0.8039,10,99,0,1,5,17,3,1,0,1,0,0,1,0,0,0,circle,triangle,,,,,,,,,,,,,,,,,,,,,,,,,,,,,,,,,,,,,,,,,,,,,,,,,,,,,,
295288,2022-11-21_18h20.57.220,vts_reward_expectancy_bt,2022.2.4,MacIntel,60.0024001,Chrome,1440,900,,,a,0.437,1,100,0,1,6,18,4,1,0,1,0,0,0,0,1,0,circle,hexagon,,,,,,,,,,,,,,,,,,,,,,,,,,,,,,,,,,,,,,,,,,,,,,,,,,,,,,
295288,2022-11-21_18h20.57.220,vts_reward_expectancy_bt,2022.2.4,MacIntel,60.0024001,Chrome,1440,900,,,l,0.7697,10,110,0,1,7,19,11,1,0,0,0,1,0,0,1,0,star,hexagon,,,,,,,,,,,,,,,,,,,,,,,,,,,,,,,,,,,,,,,,,,,,,,,,,,,,,,
295288,2022-11-21_18h20.57.220,vts_reward_expectancy_bt,2022.2.4,MacIntel,60.0024001,Chrome,1440,900,,,l,0.568,10,120,0,1,8,20,0,1,1,0,0,0,0,1,0,0,triangle,circle,,,,,,,,,,,,,,,,,,,,,,,,,,,,,,,,,,,,,,,,,,,,,,,,,,,,,,
295288,2022-11-21_18h20.57.220,vts_reward_expectancy_bt,2022.2.4,MacIntel,60.0024001,Chrome,1440,900,,,l,0.5993,10,130,0,1,9,21,10,1,0,0,0,1,0,1,0,0,star ,circle,,,,,,,,,,,,,,,,,,,,,,,,,,,,,,,,,,,,,,,,,,,,,,,,,,,,,,
295288,2022-11-21_18h20.57.220,vts_reward_expectancy_bt,2022.2.4,MacIntel,60.0024001,Chrome,1440,900,,,l,0.3491,10,140,0,1,10,22,1,1,1,0,0,0,0,0,1,0,triangle,hexagon,,,,,,,,,,,,,,,,,,,,,,,,,,,,,,,,,,,,,,,,,,,,,,,,,,,,,,
295288,2022-11-21_18h20.57.220,vts_reward_expectancy_bt,2022.2.4,MacIntel,60.0024001,Chrome,1440,900,,,a,0.3876,1,141,0,1,11,23,9,1,0,0,0,1,1,0,0,0,star,triangle,,,,,,,,,,,,,,,,,,,,,,,,,,,,,,,,,,,,,,,,,,,,,,,,,,,,,,
295288,2022-11-21_18h20.57.220,vts_reward_expectancy_bt,2022.2.4,MacIntel,60.0024001,Chrome,1440,900,,,l,0.6336,1,142,0,2,0,24,8,1,0,0,1,0,0,0,0,1,hexagon,star,,,,,,,,,,,,,,,,,,,,,,,,,,,,,,,,,,,,,,,,,,,,,,,,,,,,,,
295288,2022-11-21_18h20.57.220,vts_reward_expectancy_bt,2022.2.4,MacIntel,60.0024001,Chrome,1440,900,,,l,0.3322,1,143,0,2,1,25,7,1,0,0,1,0,0,1,0,0,hexagon,circle,,,,,,,,,,,,,,,,,,,,,,,,,,,,,,,,,,,,,,,,,,,,,,,,,,,,,,
295288,2022-11-21_18h20.57.220,vts_reward_expectancy_bt,2022.2.4,MacIntel,60.0024001,Chrome,1440,900,,,a,0.3842,10,153,0,2,2,26,6,1,0,0,1,0,1,0,0,0,hexagon,triangle,,,,,,,,,,,,,,,,,,,,,,,,,,,,,,,,,,,,,,,,,,,,,,,,,,,,,,
295288,2022-11-21_18h20.57.220,vts_reward_expectancy_bt,2022.2.4,MacIntel,60.0024001,Chrome,1440,900,,,a,0.2551,10,163,0,2,3,27,2,1,1,0,0,0,0,0,0,1,triangle,star,,,,,,,,,,,,,,,,,,,,,,,,,,,,,,,,,,,,,,,,,,,,,,,,,,,,,,
295288,2022-11-21_18h20.57.220,vts_reward_expectancy_bt,2022.2.4,MacIntel,60.0024001,Chrome,1440,900,,,l,0.4384,10,173,0,2,4,28,9,1,0,0,0,1,1,0,0,0,star,triangle,,,,,,,,,,,,,,,,,,,,,,,,,,,,,,,,,,,,,,,,,,,,,,,,,,,,,,
295288,2022-11-21_18h20.57.220,vts_reward_expectancy_bt,2022.2.4,MacIntel,60.0024001,Chrome,1440,900,,,a,0.5216,1,174,0,2,5,29,4,1,0,1,0,0,0,0,1,0,circle,hexagon,,,,,,,,,,,,,,,,,,,,,,,,,,,,,,,,,,,,,,,,,,,,,,,,,,,,,,
295288,2022-11-21_18h20.57.220,vts_reward_expectancy_bt,2022.2.4,MacIntel,60.0024001,Chrome,1440,900,,,l,0.2993,10,184,0,2,6,30,10,1,0,0,0,1,0,1,0,0,star ,circle,,,,,,,,,,,,,,,,,,,,,,,,,,,,,,,,,,,,,,,,,,,,,,,,,,,,,,
295288,2022-11-21_18h20.57.220,vts_reward_expectancy_bt,2022.2.4,MacIntel,60.0024001,Chrome,1440,900,,,l,0.2861,10,194,0,2,7,31,11,1,0,0,0,1,0,0,1,0,star,hexagon,,,,,,,,,,,,,,,,,,,,,,,,,,,,,,,,,,,,,,,,,,,,,,,,,,,,,,
295288,2022-11-21_18h20.57.220,vts_reward_expectancy_bt,2022.2.4,MacIntel,60.0024001,Chrome,1440,900,,,l,0.2645,10,204,0,2,8,32,3,1,0,1,0,0,1,0,0,0,circle,triangle,,,,,,,,,,,,,,,,,,,,,,,,,,,,,,,,,,,,,,,,,,,,,,,,,,,,,,
295288,2022-11-21_18h20.57.220,vts_reward_expectancy_bt,2022.2.4,MacIntel,60.0024001,Chrome,1440,900,,,a,0.0328,10,214,0,2,9,33,0,1,1,0,0,0,0,1,0,0,triangle,circle,,,,,,,,,,,,,,,,,,,,,,,,,,,,,,,,,,,,,,,,,,,,,,,,,,,,,,
295288,2022-11-21_18h20.57.220,vts_reward_expectancy_bt,2022.2.4,MacIntel,60.0024001,Chrome,1440,900,,,l,2.8339,1,215,0,2,10,34,5,1,0,1,0,0,0,0,0,1,circle,star,,,,,,,,,,,,,,,,,,,,,,,,,,,,,,,,,,,,,,,,,,,,,,,,,,,,,,
295288,2022-11-21_18h20.57.220,vts_reward_expectancy_bt,2022.2.4,MacIntel,60.0024001,Chrome,1440,900,,,a,2.219,1,216,0,2,11,35,1,1,1,0,0,0,0,0,1,0,triangle,hexagon,,,,,,,,,,,,,,,,,,,,,,,,,,,,,,,,,,,,,,,,,,,,,,,,,,,,,,
295288,2022-11-21_18h20.57.220,vts_reward_expectancy_bt,2022.2.4,MacIntel,60.0024001,Chrome,1440,900,,,l,0.687,10,226,1,0,0,0,1,1,1,0,0,0,0,0,1,0,triangle,hexagon,,,,,,,,,,,,,,,,,,,,,,,,,,,,,,,,,,,,,,,,,,,,,,,,,,,,,,
295288,2022-11-21_18h20.57.220,vts_reward_expectancy_bt,2022.2.4,MacIntel,60.0024001,Chrome,1440,900,,,l,0.4226,10,236,1,0,1,1,10,1,0,0,0,1,0,1,0,0,star ,circle,,,,,,,,,,,,,,,,,,,,,,,,,,,,,,,,,,,,,,,,,,,,,,,,,,,,,,
295288,2022-11-21_18h20.57.220,vts_reward_expectancy_bt,2022.2.4,MacIntel,60.0024001,Chrome,1440,900,,,a,0.4522,10,246,1,0,2,2,6,1,0,0,1,0,1,0,0,0,hexagon,triangle,,,,,,,,,,,,,,,,,,,,,,,,,,,,,,,,,,,,,,,,,,,,,,,,,,,,,,
295288,2022-11-21_18h20.57.220,vts_reward_expectancy_bt,2022.2.4,MacIntel,60.0024001,Chrome,1440,900,,,l,0.4637,1,247,1,0,3,3,5,1,0,1,0,0,0,0,0,1,circle,star,,,,,,,,,,,,,,,,,,,,,,,,,,,,,,,,,,,,,,,,,,,,,,,,,,,,,,
295288,2022-11-21_18h20.57.220,vts_reward_expectancy_bt,2022.2.4,MacIntel,60.0024001,Chrome,1440,900,,,a,0.4005,10,257,1,0,4,4,2,1,1,0,0,0,0,0,0,1,triangle,star,,,,,,,,,,,,,,,,,,,,,,,,,,,,,,,,,,,,,,,,,,,,,,,,,,,,,,
295288,2022-11-21_18h20.57.220,vts_reward_expectancy_bt,2022.2.4,MacIntel,60.0024001,Chrome,1440,900,,,a,0.4402,10,267,1,0,5,5,8,1,0,0,1,0,0,0,0,1,hexagon,star,,,,,,,,,,,,,,,,,,,,,,,,,,,,,,,,,,,,,,,,,,,,,,,,,,,,,,
295288,2022-11-21_18h20.57.220,vts_reward_expectancy_bt,2022.2.4,MacIntel,60.0024001,Chrome,1440,900,,,l,0.366,10,277,1,0,6,6,9,1,0,0,0,1,1,0,0,0,star,triangle,,,,,,,,,,,,,,,,,,,,,,,,,,,,,,,,,,,,,,,,,,,,,,,,,,,,,,
295288,2022-11-21_18h20.57.220,vts_reward_expectancy_bt,2022.2.4,MacIntel,60.0024001,Chrome,1440,900,,,a,0.2447,1,278,1,0,7,7,3,1,0,1,0,0,1,0,0,0,circle,triangle,,,,,,,,,,,,,,,,,,,,,,,,,,,,,,,,,,,,,,,,,,,,,,,,,,,,,,
295288,2022-11-21_18h20.57.220,vts_reward_expectancy_bt,2022.2.4,MacIntel,60.0024001,Chrome,1440,900,,,l,0.3435,10,288,1,0,8,8,4,1,0,1,0,0,0,0,1,0,circle,hexagon,,,,,,,,,,,,,,,,,,,,,,,,,,,,,,,,,,,,,,,,,,,,,,,,,,,,,,
295288,2022-11-21_18h20.57.220,vts_reward_expectancy_bt,2022.2.4,MacIntel,60.0024001,Chrome,1440,900,,,l,0.3346,1,289,1,0,9,9,7,1,0,0,1,0,0,1,0,0,hexagon,circle,,,,,,,,,,,,,,,,,,,,,,,,,,,,,,,,,,,,,,,,,,,,,,,,,,,,,,
295288,2022-11-21_18h20.57.220,vts_reward_expectancy_bt,2022.2.4,MacIntel,60.0024001,Chrome,1440,900,,,a,0.3208,10,299,1,0,10,10,11,1,0,0,0,1,0,0,1,0,star,hexagon,,,,,,,,,,,,,,,,,,,,,,,,,,,,,,,,,,,,,,,,,,,,,,,,,,,,,,
295288,2022-11-21_18h20.57.220,vts_reward_expectancy_bt,2022.2.4,MacIntel,60.0024001,Chrome,1440,900,,,a,0.3634,10,309,1,0,11,11,0,1,1,0,0,0,0,1,0,0,triangle,circle,,,,,,,,,,,,,,,,,,,,,,,,,,,,,,,,,,,,,,,,,,,,,,,,,,,,,,
295288,2022-11-21_18h20.57.220,vts_reward_expectancy_bt,2022.2.4,MacIntel,60.0024001,Chrome,1440,900,,,a,0.2834,1,310,1,1,0,12,2,1,1,0,0,0,0,0,0,1,triangle,star,,,,,,,,,,,,,,,,,,,,,,,,,,,,,,,,,,,,,,,,,,,,,,,,,,,,,,
295288,2022-11-21_18h20.57.220,vts_reward_expectancy_bt,2022.2.4,MacIntel,60.0024001,Chrome,1440,900,,,l,0.2972,10,320,1,1,1,13,3,1,0,1,0,0,1,0,0,0,circle,triangle,,,,,,,,,,,,,,,,,,,,,,,,,,,,,,,,,,,,,,,,,,,,,,,,,,,,,,
295288,2022-11-21_18h20.57.220,vts_reward_expectancy_bt,2022.2.4,MacIntel,60.0024001,Chrome,1440,900,,,a,0.295,1,321,1,1,2,14,6,1,0,0,1,0,1,0,0,0,hexagon,triangle,,,,,,,,,,,,,,,,,,,,,,,,,,,,,,,,,,,,,,,,,,,,,,,,,,,,,,
295288,2022-11-21_18h20.57.220,vts_reward_expectancy_bt,2022.2.4,MacIntel,60.0024001,Chrome,1440,900,,,l,0.5481,10,331,1,1,3,15,0,1,1,0,0,0,0,1,0,0,triangle,circle,,,,,,,,,,,,,,,,,,,,,,,,,,,,,,,,,,,,,,,,,,,,,,,,,,,,,,
295288,2022-11-21_18h20.57.220,vts_reward_expectancy_bt,2022.2.4,MacIntel,60.0024001,Chrome,1440,900,,,l,0.3152,1,332,1,1,4,16,9,1,0,0,0,1,1,0,0,0,star,triangle,,,,,,,,,,,,,,,,,,,,,,,,,,,,,,,,,,,,,,,,,,,,,,,,,,,,,,
295288,2022-11-21_18h20.57.220,vts_reward_expectancy_bt,2022.2.4,MacIntel,60.0024001,Chrome,1440,900,,,a,0.2938,10,342,1,1,5,17,8,1,0,0,1,0,0,0,0,1,hexagon,star,,,,,,,,,,,,,,,,,,,,,,,,,,,,,,,,,,,,,,,,,,,,,,,,,,,,,,
295288,2022-11-21_18h20.57.220,vts_reward_expectancy_bt,2022.2.4,MacIntel,60.0024001,Chrome,1440,900,,,a,0.3294,10,352,1,1,6,18,4,1,0,1,0,0,0,0,1,0,circle,hexagon,,,,,,,,,,,,,,,,,,,,,,,,,,,,,,,,,,,,,,,,,,,,,,,,,,,,,,
295288,2022-11-21_18h20.57.220,vts_reward_expectancy_bt,2022.2.4,MacIntel,60.0024001,Chrome,1440,900,,,l,0.4219,1,353,1,1,7,19,5,1,0,1,0,0,0,0,0,1,circle,star,,,,,,,,,,,,,,,,,,,,,,,,,,,,,,,,,,,,,,,,,,,,,,,,,,,,,,
295288,2022-11-21_18h20.57.220,vts_reward_expectancy_bt,2022.2.4,MacIntel,60.0024001,Chrome,1440,900,,,a,0.2614,10,363,1,1,8,20,7,1,0,0,1,0,0,1,0,0,hexagon,circle,,,,,,,,,,,,,,,,,,,,,,,,,,,,,,,,,,,,,,,,,,,,,,,,,,,,,,
295288,2022-11-21_18h20.57.220,vts_reward_expectancy_bt,2022.2.4,MacIntel,60.0024001,Chrome,1440,900,,,a,0.3226,1,364,1,1,9,21,11,1,0,0,0,1,0,0,1,0,star,hexagon,,,,,,,,,,,,,,,,,,,,,,,,,,,,,,,,,,,,,,,,,,,,,,,,,,,,,,
295288,2022-11-21_18h20.57.220,vts_reward_expectancy_bt,2022.2.4,MacIntel,60.0024001,Chrome,1440,900,,,l,0.3184,10,374,1,1,10,22,1,1,1,0,0,0,0,0,1,0,triangle,hexagon,,,,,,,,,,,,,,,,,,,,,,,,,,,,,,,,,,,,,,,,,,,,,,,,,,,,,,
295288,2022-11-21_18h20.57.220,vts_reward_expectancy_bt,2022.2.4,MacIntel,60.0024001,Chrome,1440,900,,,l,0.2918,10,384,1,1,11,23,10,1,0,0,0,1,0,1,0,0,star ,circle,,,,,,,,,,,,,,,,,,,,,,,,,,,,,,,,,,,,,,,,,,,,,,,,,,,,,,
295288,2022-11-21_18h20.57.220,vts_reward_expectancy_bt,2022.2.4,MacIntel,60.0024001,Chrome,1440,900,,,a,0.2353,1,385,1,2,0,24,0,1,1,0,0,0,0,1,0,0,triangle,circle,,,,,,,,,,,,,,,,,,,,,,,,,,,,,,,,,,,,,,,,,,,,,,,,,,,,,,
295288,2022-11-21_18h20.57.220,vts_reward_expectancy_bt,2022.2.4,MacIntel,60.0024001,Chrome,1440,900,,,l,0.2796,1,386,1,2,1,25,5,1,0,1,0,0,0,0,0,1,circle,star,,,,,,,,,,,,,,,,,,,,,,,,,,,,,,,,,,,,,,,,,,,,,,,,,,,,,,
295288,2022-11-21_18h20.57.220,vts_reward_expectancy_bt,2022.2.4,MacIntel,60.0024001,Chrome,1440,900,,,l,0.4638,10,396,1,2,2,26,1,1,1,0,0,0,0,0,1,0,triangle,hexagon,,,,,,,,,,,,,,,,,,,,,,,,,,,,,,,,,,,,,,,,,,,,,,,,,,,,,,
295288,2022-11-21_18h20.57.220,vts_reward_expectancy_bt,2022.2.4,MacIntel,60.0024001,Chrome,1440,900,,,a,0.5408,1,397,1,2,3,27,6,1,0,0,1,0,1,0,0,0,hexagon,triangle,,,,,,,,,,,,,,,,,,,,,,,,,,,,,,,,,,,,,,,,,,,,,,,,,,,,,,
295288,2022-11-21_18h20.57.220,vts_reward_expectancy_bt,2022.2.4,MacIntel,60.0024001,Chrome,1440,900,,,a,0.6987,1,398,1,2,4,28,10,1,0,0,0,1,0,1,0,0,star ,circle,,,,,,,,,,,,,,,,,,,,,,,,,,,,,,,,,,,,,,,,,,,,,,,,,,,,,,
295288,2022-11-21_18h20.57.220,vts_reward_expectancy_bt,2022.2.4,MacIntel,60.0024001,Chrome,1440,900,,,l,0.2992,1,399,1,2,5,29,3,1,0,1,0,0,1,0,0,0,circle,triangle,,,,,,,,,,,,,,,,,,,,,,,,,,,,,,,,,,,,,,,,,,,,,,,,,,,,,,
295288,2022-11-21_18h20.57.220,vts_reward_expectancy_bt,2022.2.4,MacIntel,60.0024001,Chrome,1440,900,,,l,0.249,10,409,1,2,6,30,7,1,0,0,1,0,0,1,0,0,hexagon,circle,,,,,,,,,,,,,,,,,,,,,,,,,,,,,,,,,,,,,,,,,,,,,,,,,,,,,,
295288,2022-11-21_18h20.57.220,vts_reward_expectancy_bt,2022.2.4,MacIntel,60.0024001,Chrome,1440,900,,,l,0.293,1,410,1,2,7,31,8,1,0,0,1,0,0,0,0,1,hexagon,star,,,,,,,,,,,,,,,,,,,,,,,,,,,,,,,,,,,,,,,,,,,,,,,,,,,,,,
295288,2022-11-21_18h20.57.220,vts_reward_expectancy_bt,2022.2.4,MacIntel,60.0024001,Chrome,1440,900,,,a,0.8172,10,420,1,2,8,32,9,1,0,0,0,1,1,0,0,0,star,triangle,,,,,,,,,,,,,,,,,,,,,,,,,,,,,,,,,,,,,,,,,,,,,,,,,,,,,,
295288,2022-11-21_18h20.57.220,vts_reward_expectancy_bt,2022.2.4,MacIntel,60.0024001,Chrome,1440,900,,,a,0.9412,10,430,1,2,9,33,4,1,0,1,0,0,0,0,1,0,circle,hexagon,,,,,,,,,,,,,,,,,,,,,,,,,,,,,,,,,,,,,,,,,,,,,,,,,,,,,,
295288,2022-11-21_18h20.57.220,vts_reward_expectancy_bt,2022.2.4,MacIntel,60.0024001,Chrome,1440,900,,,l,0.6852,10,440,1,2,10,34,11,1,0,0,0,1,0,0,1,0,star,hexagon,,,,,,,,,,,,,,,,,,,,,,,,,,,,,,,,,,,,,,,,,,,,,,,,,,,,,,
295288,2022-11-21_18h20.57.220,vts_reward_expectancy_bt,2022.2.4,MacIntel,60.0024001,Chrome,1440,900,,,l,0.6648,1,441,1,2,11,35,2,1,1,0,0,0,0,0,0,1,triangle,star,,,,,,,,,,,,,,,,,,,,,,,,,,,,,,,,,,,,,,,,,,,,,,,,,,,,,,
295288,2022-11-21_18h20.57.220,vts_reward_expectancy_bt,2022.2.4,MacIntel,60.0024001,Chrome,1440,900,,,a,0.7298,1,442,2,0,0,0,10,1,0,0,0,1,0,1,0,0,star ,circle,,,,,,,,,,,,,,,,,,,,,,,,,,,,,,,,,,,,,,,,,,,,,,,,,,,,,,
295288,2022-11-21_18h20.57.220,vts_reward_expectancy_bt,2022.2.4,MacIntel,60.0024001,Chrome,1440,900,,,a,0.2712,1,443,2,0,1,1,9,1,0,0,0,1,1,0,0,0,star,triangle,,,,,,,,,,,,,,,,,,,,,,,,,,,,,,,,,,,,,,,,,,,,,,,,,,,,,,
295288,2022-11-21_18h20.57.220,vts_reward_expectancy_bt,2022.2.4,MacIntel,60.0024001,Chrome,1440,900,,,l,1.2161,10,453,2,0,2,2,6,1,0,0,1,0,1,0,0,0,hexagon,triangle,,,,,,,,,,,,,,,,,,,,,,,,,,,,,,,,,,,,,,,,,,,,,,,,,,,,,,
295288,2022-11-21_18h20.57.220,vts_reward_expectancy_bt,2022.2.4,MacIntel,60.0024001,Chrome,1440,900,,,l,0.4643,10,463,2,0,3,3,2,1,1,0,0,0,0,0,0,1,triangle,star,,,,,,,,,,,,,,,,,,,,,,,,,,,,,,,,,,,,,,,,,,,,,,,,,,,,,,
295288,2022-11-21_18h20.57.220,vts_reward_expectancy_bt,2022.2.4,MacIntel,60.0024001,Chrome,1440,900,,,l,0.5013,1,464,2,0,4,4,8,1,0,0,1,0,0,0,0,1,hexagon,star,,,,,,,,,,,,,,,,,,,,,,,,,,,,,,,,,,,,,,,,,,,,,,,,,,,,,,
295288,2022-11-21_18h20.57.220,vts_reward_expectancy_bt,2022.2.4,MacIntel,60.0024001,Chrome,1440,900,,,a,0.2029,1,465,2,0,5,5,1,1,1,0,0,0,0,0,1,0,triangle,hexagon,,,,,,,,,,,,,,,,,,,,,,,,,,,,,,,,,,,,,,,,,,,,,,,,,,,,,,
295288,2022-11-21_18h20.57.220,vts_reward_expectancy_bt,2022.2.4,MacIntel,60.0024001,Chrome,1440,900,,,a,0.5787,10,475,2,0,6,6,0,1,1,0,0,0,0,1,0,0,triangle,circle,,,,,,,,,,,,,,,,,,,,,,,,,,,,,,,,,,,,,,,,,,,,,,,,,,,,,,
295288,2022-11-21_18h20.57.220,vts_reward_expectancy_bt,2022.2.4,MacIntel,60.0024001,Chrome,1440,900,,,a,0.7224,1,476,2,0,7,7,7,1,0,0,1,0,0,1,0,0,hexagon,circle,,,,,,,,,,,,,,,,,,,,,,,,,,,,,,,,,,,,,,,,,,,,,,,,,,,,,,
295288,2022-11-21_18h20.57.220,vts_reward_expectancy_bt,2022.2.4,MacIntel,60.0024001,Chrome,1440,900,,,a,0.7314,1,477,2,0,8,8,4,1,0,1,0,0,0,0,1,0,circle,hexagon,,,,,,,,,,,,,,,,,,,,,,,,,,,,,,,,,,,,,,,,,,,,,,,,,,,,,,
295288,2022-11-21_18h20.57.220,vts_reward_expectancy_bt,2022.2.4,MacIntel,60.0024001,Chrome,1440,900,,,l,0.4047,10,487,2,0,9,9,11,1,0,0,0,1,0,0,1,0,star,hexagon,,,,,,,,,,,,,,,,,,,,,,,,,,,,,,,,,,,,,,,,,,,,,,,,,,,,,,
295288,2022-11-21_18h20.57.220,vts_reward_expectancy_bt,2022.2.4,MacIntel,60.0024001,Chrome,1440,900,,,l,0.8249,1,488,2,0,10,10,3,1,0,1,0,0,1,0,0,0,circle,triangle,,,,,,,,,,,,,,,,,,,,,,,,,,,,,,,,,,,,,,,,,,,,,,,,,,,,,,
295288,2022-11-21_18h20.57.220,vts_reward_expectancy_bt,2022.2.4,MacIntel,60.0024001,Chrome,1440,900,,,l,0.4315,10,498,2,0,11,11,5,1,0,1,0,0,0,0,0,1,circle,star,,,,,,,,,,,,,,,,,,,,,,,,,,,,,,,,,,,,,,,,,,,,,,,,,,,,,,
295288,2022-11-21_18h20.57.220,vts_reward_expectancy_bt,2022.2.4,MacIntel,60.0024001,Chrome,1440,900,,,l,0.2989,1,499,2,1,0,12,8,1,0,0,1,0,0,0,0,1,hexagon,star,,,,,,,,,,,,,,,,,,,,,,,,,,,,,,,,,,,,,,,,,,,,,,,,,,,,,,
295288,2022-11-21_18h20.57.220,vts_reward_expectancy_bt,2022.2.4,MacIntel,60.0024001,Chrome,1440,900,,,a,0.6348,10,509,2,1,1,13,6,1,0,0,1,0,1,0,0,0,hexagon,triangle,,,,,,,,,,,,,,,,,,,,,,,,,,,,,,,,,,,,,,,,,,,,,,,,,,,,,,
295288,2022-11-21_18h20.57.220,vts_reward_expectancy_bt,2022.2.4,MacIntel,60.0024001,Chrome,1440,900,,,l,0.97,10,519,2,1,2,14,7,1,0,0,1,0,0,1,0,0,hexagon,circle,,,,,,,,,,,,,,,,,,,,,,,,,,,,,,,,,,,,,,,,,,,,,,,,,,,,,,
295288,2022-11-21_18h20.57.220,vts_reward_expectancy_bt,2022.2.4,MacIntel,60.0024001,Chrome,1440,900,,,a,0.3803,1,520,2,1,3,15,4,1,0,1,0,0,0,0,1,0,circle,hexagon,,,,,,,,,,,,,,,,,,,,,,,,,,,,,,,,,,,,,,,,,,,,,,,,,,,,,,
295288,2022-11-21_18h20.57.220,vts_reward_expectancy_bt,2022.2.4,MacIntel,60.0024001,Chrome,1440,900,,,l,0.349,1,521,2,1,4,16,1,1,1,0,0,0,0,0,1,0,triangle,hexagon,,,,,,,,,,,,,,,,,,,,,,,,,,,,,,,,,,,,,,,,,,,,,,,,,,,,,,
295288,2022-11-21_18h20.57.220,vts_reward_expectancy_bt,2022.2.4,MacIntel,60.0024001,Chrome,1440,900,,,l,0.3153,1,522,2,1,5,17,5,1,0,1,0,0,0,0,0,1,circle,star,,,,,,,,,,,,,,,,,,,,,,,,,,,,,,,,,,,,,,,,,,,,,,,,,,,,,,
295288,2022-11-21_18h20.57.220,vts_reward_expectancy_bt,2022.2.4,MacIntel,60.0024001,Chrome,1440,900,,,l,0.7982,1,523,2,1,6,18,11,1,0,0,0,1,0,0,1,0,star,hexagon,,,,,,,,,,,,,,,,,,,,,,,,,,,,,,,,,,,,,,,,,,,,,,,,,,,,,,
295288,2022-11-21_18h20.57.220,vts_reward_expectancy_bt,2022.2.4,MacIntel,60.0024001,Chrome,1440,900,,,a,0.5477,1,524,2,1,7,19,10,1,0,0,0,1,0,1,0,0,star ,circle,,,,,,,,,,,,,,,,,,,,,,,,,,,,,,,,,,,,,,,,,,,,,,,,,,,,,,
295288,2022-11-21_18h20.57.220,vts_reward_expectancy_bt,2022.2.4,MacIntel,60.0024001,Chrome,1440,900,,,a,0.4638,1,525,2,1,8,20,3,1,0,1,0,0,1,0,0,0,circle,triangle,,,,,,,,,,,,,,,,,,,,,,,,,,,,,,,,,,,,,,,,,,,,,,,,,,,,,,
295288,2022-11-21_18h20.57.220,vts_reward_expectancy_bt,2022.2.4,MacIntel,60.0024001,Chrome,1440,900,,,a,0.2488,10,535,2,1,9,21,0,1,1,0,0,0,0,1,0,0,triangle,circle,,,,,,,,,,,,,,,,,,,,,,,,,,,,,,,,,,,,,,,,,,,,,,,,,,,,,,
295288,2022-11-21_18h20.57.220,vts_reward_expectancy_bt,2022.2.4,MacIntel,60.0024001,Chrome,1440,900,,,a,0.3488,1,536,2,1,10,22,2,1,1,0,0,0,0,0,0,1,triangle,star,,,,,,,,,,,,,,,,,,,,,,,,,,,,,,,,,,,,,,,,,,,,,,,,,,,,,,
295288,2022-11-21_18h20.57.220,vts_reward_expectancy_bt,2022.2.4,MacIntel,60.0024001,Chrome,1440,900,,,a,0.5933,10,546,2,1,11,23,9,1,0,0,0,1,1,0,0,0,star,triangle,,,,,,,,,,,,,,,,,,,,,,,,,,,,,,,,,,,,,,,,,,,,,,,,,,,,,,
295288,2022-11-21_18h20.57.220,vts_reward_expectancy_bt,2022.2.4,MacIntel,60.0024001,Chrome,1440,900,,,l,0.6153,10,556,2,2,0,24,4,1,0,1,0,0,0,0,1,0,circle,hexagon,,,,,,,,,,,,,,,,,,,,,,,,,,,,,,,,,,,,,,,,,,,,,,,,,,,,,,
295288,2022-11-21_18h20.57.220,vts_reward_expectancy_bt,2022.2.4,MacIntel,60.0024001,Chrome,1440,900,,,l,0.6074,1,557,2,2,1,25,5,1,0,1,0,0,0,0,0,1,circle,star,,,,,,,,,,,,,,,,,,,,,,,,,,,,,,,,,,,,,,,,,,,,,,,,,,,,,,
295288,2022-11-21_18h20.57.220,vts_reward_expectancy_bt,2022.2.4,MacIntel,60.0024001,Chrome,1440,900,,,l,0.3318,1,558,2,2,2,26,9,1,0,0,0,1,1,0,0,0,star,triangle,,,,,,,,,,,,,,,,,,,,,,,,,,,,,,,,,,,,,,,,,,,,,,,,,,,,,,
295288,2022-11-21_18h20.57.220,vts_reward_expectancy_bt,2022.2.4,MacIntel,60.0024001,Chrome,1440,900,,,l,0.7649,1,559,2,2,3,27,3,1,0,1,0,0,1,0,0,0,circle,triangle,,,,,,,,,,,,,,,,,,,,,,,,,,,,,,,,,,,,,,,,,,,,,,,,,,,,,,
295288,2022-11-21_18h20.57.220,vts_reward_expectancy_bt,2022.2.4,MacIntel,60.0024001,Chrome,1440,900,,,a,0.9547,10,569,2,2,4,28,11,1,0,0,0,1,0,0,1,0,star,hexagon,,,,,,,,,,,,,,,,,,,,,,,,,,,,,,,,,,,,,,,,,,,,,,,,,,,,,,
295288,2022-11-21_18h20.57.220,vts_reward_expectancy_bt,2022.2.4,MacIntel,60.0024001,Chrome,1440,900,,,a,0.7189,10,579,2,2,5,29,6,1,0,0,1,0,1,0,0,0,hexagon,triangle,,,,,,,,,,,,,,,,,,,,,,,,,,,,,,,,,,,,,,,,,,,,,,,,,,,,,,
295288,2022-11-21_18h20.57.220,vts_reward_expectancy_bt,2022.2.4,MacIntel,60.0024001,Chrome,1440,900,,,a,0.649,1,580,2,2,6,30,1,1,1,0,0,0,0,0,1,0,triangle,hexagon,,,,,,,,,,,,,,,,,,,,,,,,,,,,,,,,,,,,,,,,,,,,,,,,,,,,,,
295288,2022-11-21_18h20.57.220,vts_reward_expectancy_bt,2022.2.4,MacIntel,60.0024001,Chrome,1440,900,,,l,0.3643,10,590,2,2,7,31,0,1,1,0,0,0,0,1,0,0,triangle,circle,,,,,,,,,,,,,,,,,,,,,,,,,,,,,,,,,,,,,,,,,,,,,,,,,,,,,,
295288,2022-11-21_18h20.57.220,vts_reward_expectancy_bt,2022.2.4,MacIntel,60.0024001,Chrome,1440,900,,,a,0.5813,1,591,2,2,8,32,2,1,1,0,0,0,0,0,0,1,triangle,star,,,,,,,,,,,,,,,,,,,,,,,,,,,,,,,,,,,,,,,,,,,,,,,,,,,,,,
295288,2022-11-21_18h20.57.220,vts_reward_expectancy_bt,2022.2.4,MacIntel,60.0024001,Chrome,1440,900,,,l,0.639,1,592,2,2,9,33,8,1,0,0,1,0,0,0,0,1,hexagon,star,,,,,,,,,,,,,,,,,,,,,,,,,,,,,,,,,,,,,,,,,,,,,,,,,,,,,,
295288,2022-11-21_18h20.57.220,vts_reward_expectancy_bt,2022.2.4,MacIntel,60.0024001,Chrome,1440,900,,,l,0.0005,10,602,2,2,10,34,10,1,0,0,0,1,0,1,0,0,star ,circle,,,,,,,,,,,,,,,,,,,,,,,,,,,,,,,,,,,,,,,,,,,,,,,,,,,,,,
295288,2022-11-21_18h20.57.220,vts_reward_expectancy_bt,2022.2.4,MacIntel,60.0024001,Chrome,1440,900,,,l,0.2996,10,612,2,2,11,35,7,1,0,0,1,0,0,1,0,0,hexagon,circle,,,,,,,,,,,,,,,,,,,,,,,,,,,,,,,,,,,,,,,,,,,,,,,,,,,,,,
295288,2022-11-21_18h20.57.220,vts_reward_expectancy_bt,2022.2.4,MacIntel,60.0024001,Chrome,1440,900,,,,,,,,,,,,,,,,,,,,,,,125,W,hexagon,0,0,,0,0,0,0,0,1,,,,,,,,,,,,,,,,,,,,,,,,,,,,,,,,,,,,,,,,,,
295288,2022-11-21_18h20.57.220,vts_reward_expectancy_bt,2022.2.4,MacIntel,60.0024001,Chrome,1440,900,,,,,,,,,,,,,,,,,,,,,,,174,F,triangle,1,1,f,0,1,0,1,0,1,0.638,,,,,,,,,,,,,,,,,,,,,,,,,,,,,,,,,,,,,,,,,
295288,2022-11-21_18h20.57.220,vts_reward_expectancy_bt,2022.2.4,MacIntel,60.0024001,Chrome,1440,900,,,,,,,,,,,,,,,,,,,,,,,167,D,circle,1,0,f,0,2,0,2,0,1,0.6092,,,,,,,,,,,,,,,,,,,,,,,,,,,,,,,,,,,,,,,,,
295288,2022-11-21_18h20.57.220,vts_reward_expectancy_bt,2022.2.4,MacIntel,60.0024001,Chrome,1440,900,,,,,,,,,,,,,,,,,,,,,,,146,S,star,1,0,d,0,3,0,3,0,1,0.7055,,,,,,,,,,,,,,,,,,,,,,,,,,,,,,,,,,,,,,,,,
295288,2022-11-21_18h20.57.220,vts_reward_expectancy_bt,2022.2.4,MacIntel,60.0024001,Chrome,1440,900,,,,,,,,,,,,,,,,,,,,,,,132,U,hexagon,1,0,d,0,4,0,4,0,1,0.555,,,,,,,,,,,,,,,,,,,,,,,,,,,,,,,,,,,,,,,,,
295288,2022-11-21_18h20.57.220,vts_reward_expectancy_bt,2022.2.4,MacIntel,60.0024001,Chrome,1440,900,,,,,,,,,,,,,,,,,,,,,,,160,Y,triangle,1,0,f,0,5,0,5,0,1,0.4602,,,,,,,,,,,,,,,,,,,,,,,,,,,,,,,,,,,,,,,,,
295288,2022-11-21_18h20.57.220,vts_reward_expectancy_bt,2022.2.4,MacIntel,60.0024001,Chrome,1440,900,,,,,,,,,,,,,,,,,,,,,,,181,H,circle,1,0,f,0,6,0,6,0,1,0.5267,,,,,,,,,,,,,,,,,,,,,,,,,,,,,,,,,,,,,,,,,
295288,2022-11-21_18h20.57.220,vts_reward_expectancy_bt,2022.2.4,MacIntel,60.0024001,Chrome,1440,900,,,,,,,,,,,,,,,,,,,,,,,139,B,star,1,0,d,0,7,0,7,0,1,0.7797,,,,,,,,,,,,,,,,,,,,,,,,,,,,,,,,,,,,,,,,,
295288,2022-11-21_18h20.57.220,vts_reward_expectancy_bt,2022.2.4,MacIntel,60.0024001,Chrome,1440,900,,,,,,,,,,,,,,,,,,,,,,,125,W,triangle,1,0,d,0,8,0,8,0,1,0.5371,,,,,,,,,,,,,,,,,,,,,,,,,,,,,,,,,,,,,,,,,
295288,2022-11-21_18h20.57.220,vts_reward_expectancy_bt,2022.2.4,MacIntel,60.0024001,Chrome,1440,900,,,,,,,,,,,,,,,,,,,,,,,174,F,hexagon,1,0,f,0,9,0,9,0,1,0.5152,,,,,,,,,,,,,,,,,,,,,,,,,,,,,,,,,,,,,,,,,
295288,2022-11-21_18h20.57.220,vts_reward_expectancy_bt,2022.2.4,MacIntel,60.0024001,Chrome,1440,900,,,,,,,,,,,,,,,,,,,,,,,181,Y,hexagon,1,0,,1,,,,,,,k,0.7878,0,0,0,0,1,,,,,,,,,,,,,,,,,,,,,,,,,,,,,,,,,,
295288,2022-11-21_18h20.57.220,vts_reward_expectancy_bt,2022.2.4,MacIntel,60.0024001,Chrome,1440,900,,,,,,,,,,,,,,,,,,,,,,,139,F,circle,1,0,,1,,,,,,,j,0.7235,1,0,1,0,1,,,,,,,,,,,,,,,,,,,,,,,,,,,,,,,,,,
295288,2022-11-21_18h20.57.220,vts_reward_expectancy_bt,2022.2.4,MacIntel,60.0024001,Chrome,1440,900,,,,,,,,,,,,,,,,,,,,,,,146,W,triangle,1,0,,1,,,,,,,k,0.6331,2,0,2,0,1,,,,,,,,,,,,,,,,,,,,,,,,,,,,,,,,,,
295288,2022-11-21_18h20.57.220,vts_reward_expectancy_bt,2022.2.4,MacIntel,60.0024001,Chrome,1440,900,,,,,,,,,,,,,,,,,,,,,,,132,D,star,1,0,,1,,,,,,,j,0.6933,3,0,3,0,1,,,,,,,,,,,,,,,,,,,,,,,,,,,,,,,,,,
295288,2022-11-21_18h20.57.220,vts_reward_expectancy_bt,2022.2.4,MacIntel,60.0024001,Chrome,1440,900,,,,,,,,,,,,,,,,,,,,,,,160,U,hexagon,1,0,,1,,,,,,,k,0.5299,4,0,4,0,1,,,,,,,,,,,,,,,,,,,,,,,,,,,,,,,,,,
295288,2022-11-21_18h20.57.220,vts_reward_expectancy_bt,2022.2.4,MacIntel,60.0024001,Chrome,1440,900,,,,,,,,,,,,,,,,,,,,,,,125,H,circle,1,0,,1,,,,,,,j,1.6035,5,0,5,0,1,,,,,,,,,,,,,,,,,,,,,,,,,,,,,,,,,,
295288,2022-11-21_18h20.57.220,vts_reward_expectancy_bt,2022.2.4,MacIntel,60.0024001,Chrome,1440,900,,,,,,,,,,,,,,,,,,,,,,,167,S,triangle,1,0,,1,,,,,,,k,0.6911,6,0,6,0,1,,,,,,,,,,,,,,,,,,,,,,,,,,,,,,,,,,
295288,2022-11-21_18h20.57.220,vts_reward_expectancy_bt,2022.2.4,MacIntel,60.0024001,Chrome,1440,900,,,,,,,,,,,,,,,,,,,,,,,174,B,star,1,0,,1,,,,,,,j,0.311,7,0,7,0,1,,,,,,,,,,,,,,,,,,,,,,,,,,,,,,,,,,
295288,2022-11-21_18h20.57.220,vts_reward_expectancy_bt,2022.2.4,MacIntel,60.0024001,Chrome,1440,900,,,,,,,,,,,,,,,,,,,,,,,181,Y,star,1,0,,1,,,,,,,k,0.5991,8,0,8,0,1,,,,,,,,,,,,,,,,,,,,,,,,,,,,,,,,,,
295288,2022-11-21_18h20.57.220,vts_reward_expectancy_bt,2022.2.4,MacIntel,60.0024001,Chrome,1440,900,,,,,,,,,,,,,,,,,,,,,,,139,F,circle,1,0,,1,,,,,,,j,0.5747,9,0,9,0,1,,,,,,,,,,,,,,,,,,,,,,,,,,,,,,,,,,
295288,2022-11-21_18h20.57.220,vts_reward_expectancy_bt,2022.2.4,MacIntel,60.0024001,Chrome,1440,900,,,,,0,612,,,,,,,,,,,,,,,,,132,W,triangle,1,0,,2,,,,,,,,,,,,,,-1,letter,NA,k,1.3075,vtsPrac,0,0,0,0,1,,,,,,,,,,,,,,,,,,,,,,,
295288,2022-11-21_18h20.57.220,vts_reward_expectancy_bt,2022.2.4,MacIntel,60.0024001,Chrome,1440,900,,,,,0,612,,,,,,,,,,,,,,,,,146,U,star,1,0,,2,,,,,,,,,,,,,,repeat,letter,lettRpt,k,1.2567,vtsPrac,1,0,1,0,1,,,,,,,,,,,,,,,,,,,,,,,
295288,2022-11-21_18h20.57.220,vts_reward_expectancy_bt,2022.2.4,MacIntel,60.0024001,Chrome,1440,900,,,,,0,612,,,,,,,,,,,,,,,,,181,F,triangle,1,0,,2,,,,,,,,,,,,,,repeat,letter,lettRpt,j,0.2847,vtsPrac,2,0,2,0,1,,,,,,,,,,,,,,,,,,,,,,,
295288,2022-11-21_18h20.57.220,vts_reward_expectancy_bt,2022.2.4,MacIntel,60.0024001,Chrome,1440,900,,,,,0,612,,,,,,,,,,,,,,,,,139,S,star,1,0,,2,,,,,,,,,,,,,,repeat,letter,lettRpt,k,0.5758,vtsPrac,3,0,3,0,1,,,,,,,,,,,,,,,,,,,,,,,
295288,2022-11-21_18h20.57.220,vts_reward_expectancy_bt,2022.2.4,MacIntel,60.0024001,Chrome,1440,900,,,,,0,612,,,,,,,,,,,,,,,,,132,W,circle,0,0,,2,,,,,,,,,,,,,,switch,number,NA,f,0.9435,vtsPrac,4,0,4,0,1,,,,,,,,,,,,,,,,,,,,,,,
295288,2022-11-21_18h20.57.220,vts_reward_expectancy_bt,2022.2.4,MacIntel,60.0024001,Chrome,1440,900,,,,,0,612,,,,,,,,,,,,,,,,,146,U,star,1,1,,2,,,,,,,,,,,,,,repeat,number,numRpt,d,0.6629,vtsPrac,5,0,5,0,1,,,,,,,,,,,,,,,,,,,,,,,
295288,2022-11-21_18h20.57.220,vts_reward_expectancy_bt,2022.2.4,MacIntel,60.0024001,Chrome,1440,900,,,,,0,612,,,,,,,,,,,,,,,,,181,F,hexagon,1,0,,2,,,,,,,,,,,,,,repeat,number,numRpt,f,0.7772,vtsPrac,6,0,6,0,1,,,,,,,,,,,,,,,,,,,,,,,
295288,2022-11-21_18h20.57.220,vts_reward_expectancy_bt,2022.2.4,MacIntel,60.0024001,Chrome,1440,900,,,,,0,612,,,,,,,,,,,,,,,,,139,S,circle,1,0,,2,,,,,,,,,,,,,,repeat,number,numRpt,d,0.5555,vtsPrac,7,0,7,0,1,,,,,,,,,,,,,,,,,,,,,,,
295288,2022-11-21_18h20.57.220,vts_reward_expectancy_bt,2022.2.4,MacIntel,60.0024001,Chrome,1440,900,,,,,0,612,,,,,,,,,,,,,,,,,167,H,star,1,0,,2,,,,,,,,,,,,,,repeat,number,numRpt,f,0.5978,vtsPrac,8,0,8,0,1,,,,,,,,,,,,,,,,,,,,,,,
295288,2022-11-21_18h20.57.220,vts_reward_expectancy_bt,2022.2.4,MacIntel,60.0024001,Chrome,1440,900,,,,,0,612,,,,,,,,,,,,,,,,,181,U,triangle,1,0,,2,,,,,,,,,,,,,,switch,letter,lettSwt,k,0.6459,vtsPrac,9,0,9,0,1,,,,,,,,,,,,,,,,,,,,,,,
295288,2022-11-21_18h20.57.220,vts_reward_expectancy_bt,2022.2.4,MacIntel,60.0024001,Chrome,1440,900,,,,,0,612,,,,,,,,,,,,,,,,,139,F,star,1,0,,2,,,,,,,,,,,,,,repeat,letter,lettRpt,j,0.7653,vtsPrac,10,0,10,0,1,,,,,,,,,,,,,,,,,,,,,,,
295288,2022-11-21_18h20.57.220,vts_reward_expectancy_bt,2022.2.4,MacIntel,60.0024001,Chrome,1440,900,,,,,0,612,,,,,,,,,,,,,,,,,174,W,triangle,1,0,,2,,,,,,,,,,,,,,repeat,letter,lettRpt,k,0.9708,vtsPrac,11,0,11,0,1,,,,,,,,,,,,,,,,,,,,,,,
295288,2022-11-21_18h20.57.220,vts_reward_expectancy_bt,2022.2.4,MacIntel,60.0024001,Chrome,1440,900,,,,,0,612,,,,,,,,,,,,,,,,,174,B,hexagon,1,0,,2,,,,,,,,,,,,,,repeat,letter,lettRpt,j,0.8105,vtsPrac,12,0,12,0,1,,,,,,,,,,,,,,,,,,,,,,,
295288,2022-11-21_18h20.57.220,vts_reward_expectancy_bt,2022.2.4,MacIntel,60.0024001,Chrome,1440,900,,,,,0,612,,,,,,,,,,,,,,,,,160,W,star,1,0,,2,,,,,,,,,,,,,,switch,number,numSwt,f,0.4073,vtsPrac,13,0,13,0,1,,,,,,,,,,,,,,,,,,,,,,,
295288,2022-11-21_18h20.57.220,vts_reward_expectancy_bt,2022.2.4,MacIntel,60.0024001,Chrome,1440,900,,,,,0,612,,,,,,,,,,,,,,,,,125,F,hexagon,1,0,,2,,,,,,,,,,,,,,repeat,number,numRpt,d,1.0193,vtsPrac,14,0,14,0,1,,,,,,,,,,,,,,,,,,,,,,,
295288,2022-11-21_18h20.57.220,vts_reward_expectancy_bt,2022.2.4,MacIntel,60.0024001,Chrome,1440,900,,,,,0,612,,,,,,,,,,,,,,,,,139,U,triangle,0,0,,2,,,,,,,,,,,,,,repeat,number,NA,f,0.3931,vtsPrac,15,0,15,0,1,,,,,,,,,,,,,,,,,,,,,,,
295288,2022-11-21_18h20.57.220,vts_reward_expectancy_bt,2022.2.4,MacIntel,60.0024001,Chrome,1440,900,,,,,0,612,,,,,,,,,,,,,,,,,167,S,hexagon,1,1,,2,,,,,,,,,,,,,,repeat,number,numRpt,f,0.5761,vtsPrac,16,0,16,0,1,,,,,,,,,,,,,,,,,,,,,,,
295288,2022-11-21_18h20.57.220,vts_reward_expectancy_bt,2022.2.4,MacIntel,60.0024001,Chrome,1440,900,,,,,0,612,,,,,,,,,,,,,,,,,139,U,star,0,0,,2,,,,,,,,,,,,,,switch,letter,NA,j,1.1786,vtsPrac,17,0,17,0,1,,,,,,,,,,,,,,,,,,,,,,,
295288,2022-11-21_18h20.57.220,vts_reward_expectancy_bt,2022.2.4,MacIntel,60.0024001,Chrome,1440,900,,,,,0,612,,,,,,,,,,,,,,,,,174,Y,hexagon,1,1,,2,,,,,,,,,,,,,,repeat,letter,lettRpt,k,1.4135,vtsPrac,18,0,18,0,1,,,,,,,,,,,,,,,,,,,,,,,
295288,2022-11-21_18h20.57.220,vts_reward_expectancy_bt,2022.2.4,MacIntel,60.0024001,Chrome,1440,900,,,,,0,612,,,,,,,,,,,,,,,,,160,D,star,1,0,,2,,,,,,,,,,,,,,repeat,letter,lettRpt,j,0.6234,vtsPrac,19,0,19,0,1,,,,,,,,,,,,,,,,,,,,,,,
295288,2022-11-21_18h20.57.220,vts_reward_expectancy_bt,2022.2.4,MacIntel,60.0024001,Chrome,1440,900,,,,,0,612,,,,,,,,,,,,,,,,,160,Y,circle,1,0,,2,,,,,,,,,,,,,,repeat,letter,lettRpt,k,1.1119,vtsPrac,20,0,20,0,1,,,,,,,,,,,,,,,,,,,,,,,
295288,2022-11-21_18h20.57.220,vts_reward_expectancy_bt,2022.2.4,MacIntel,60.0024001,Chrome,1440,900,,,,,0,612,,,,,,,,,,,,,,,,,181,S,hexagon,0,0,,2,,,,,,,,,,,,,,repeat,letter,NA,j,1.0942,vtsPrac,21,0,21,0,1,,,,,,,,,,,,,,,,,,,,,,,
295288,2022-11-21_18h20.57.220,vts_reward_expectancy_bt,2022.2.4,MacIntel,60.0024001,Chrome,1440,900,,,,,0,612,,,,,,,,,,,,,,,,,125,W,triangle,0,1,,2,,,,,,,,,,,,,,switch,number,NA,f,0.8457,vtsPrac,22,0,22,0,1,,,,,,,,,,,,,,,,,,,,,,,
295288,2022-11-21_18h20.57.220,vts_reward_expectancy_bt,2022.2.4,MacIntel,60.0024001,Chrome,1440,900,,,,,0,612,,,,,,,,,,,,,,,,,146,U,circle,1,1,,2,,,,,,,,,,,,,,repeat,number,numRpt,d,0.9902,vtsPrac,23,0,23,0,1,,,,,,,,,,,,,,,,,,,,,,,
295288,2022-11-21_18h20.57.220,vts_reward_expectancy_bt,2022.2.4,MacIntel,60.0024001,Chrome,1440,900,,,,,0,612,,,,,,,,,,,,,,,,,174,Y,circle,1,0,,2,,,,,,,,,,,,,,repeat,number,numRpt,f,0.6492,vtsPrac,24,0,24,0,1,,,,,,,,,,,,,,,,,,,,,,,
295288,2022-11-21_18h20.57.220,vts_reward_expectancy_bt,2022.2.4,MacIntel,60.0024001,Chrome,1440,900,,,,,0,612,,,,,,,,,,,,,,,,,125,U,triangle,1,0,,2,,,,,,,,,,,,,,repeat,number,numRpt,d,0.7288,vtsPrac,25,0,25,0,1,,,,,,,,,,,,,,,,,,,,,,,
295288,2022-11-21_18h20.57.220,vts_reward_expectancy_bt,2022.2.4,MacIntel,60.0024001,Chrome,1440,900,,,,,0,612,,,,,,,,,,,,,,,,,146,W,circle,1,0,,2,,,,,,,,,,,,,,repeat,number,numRpt,d,1.1842,vtsPrac,26,0,26,0,1,,,,,,,,,,,,,,,,,,,,,,,
295288,2022-11-21_18h20.57.220,vts_reward_expectancy_bt,2022.2.4,MacIntel,60.0024001,Chrome,1440,900,,,,,0,612,,,,,,,,,,,,,,,,,160,S,hexagon,1,0,,2,,,,,,,,,,,,,,repeat,number,numRpt,f,0.5409,vtsPrac,27,0,27,0,1,,,,,,,,,,,,,,,,,,,,,,,
295288,2022-11-21_18h20.57.220,vts_reward_expectancy_bt,2022.2.4,MacIntel,60.0024001,Chrome,1440,900,,,,,0,612,,,,,,,,,,,,,,,,,167,W,star,1,0,,2,,,,,,,,,,,,,,switch,letter,lettSwt,k,0.6456,vtsPrac,28,0,28,0,1,,,,,,,,,,,,,,,,,,,,,,,
295288,2022-11-21_18h20.57.220,vts_reward_expectancy_bt,2022.2.4,MacIntel,60.0024001,Chrome,1440,900,,,,,0,612,,,,,,,,,,,,,,,,,181,Y,hexagon,1,0,,2,,,,,,,,,,,,,,repeat,letter,lettRpt,k,0.7115,vtsPrac,29,0,29,0,1,,,,,,,,,,,,,,,,,,,,,,,
295288,2022-11-21_18h20.57.220,vts_reward_expectancy_bt,2022.2.4,MacIntel,60.0024001,Chrome,1440,900,,,,,0,612,,,,,,,,,,,,,,,,,132,D,circle,1,0,,2,,,,,,,,,,,,,,repeat,letter,lettRpt,j,0.7936,vtsPrac,30,0,30,0,1,,,,,,,,,,,,,,,,,,,,,,,
295288,2022-11-21_18h20.57.220,vts_reward_expectancy_bt,2022.2.4,MacIntel,60.0024001,Chrome,1440,900,,,,,0,612,,,,,,,,,,,,,,,,,160,U,star,1,0,,2,,,,,,,,,,,,,,repeat,letter,lettRpt,k,0.609,vtsPrac,31,0,31,0,1,,,,,,,,,,,,,,,,,,,,,,,
295288,2022-11-21_18h20.57.220,vts_reward_expectancy_bt,2022.2.4,MacIntel,60.0024001,Chrome,1440,900,,,,,0,612,,,,,,,,,,,,,,,,,160,S,hexagon,1,0,,3,,,,,,,,,,,,,,repeat,letter,lettRpt,k,1.6637,vtsPrac,0,0,0,0,1,,,,,,,,,,,,,,,,,,,,,,,
295288,2022-11-21_18h20.57.220,vts_reward_expectancy_bt,2022.2.4,MacIntel,60.0024001,Chrome,1440,900,,,,,0,612,,,,,,,,,,,,,,,,,146,H,triangle,0,0,,3,,,,,,,,,,,,,,switch,number,NA,f,0.5922,vtsPrac,1,0,1,0,1,,,,,,,,,,,,,,,,,,,,,,,
295288,2022-11-21_18h20.57.220,vts_reward_expectancy_bt,2022.2.4,MacIntel,60.0024001,Chrome,1440,900,,,,,0,612,,,,,,,,,,,,,,,,,139,Y,hexagon,1,1,,3,,,,,,,,,,,,,,switch,letter,lettSwt,k,0.9378,vtsPrac,2,0,2,0,1,,,,,,,,,,,,,,,,,,,,,,,
295288,2022-11-21_18h20.57.220,vts_reward_expectancy_bt,2022.2.4,MacIntel,60.0024001,Chrome,1440,900,,,,,0,612,,,,,,,,,,,,,,,,,167,B,triangle,1,0,,3,,,,,,,,,,,,,,switch,number,numSwt,f,0.9322,vtsPrac,3,0,3,0,1,,,,,,,,,,,,,,,,,,,,,,,
295288,2022-11-21_18h20.57.220,vts_reward_expectancy_bt,2022.2.4,MacIntel,60.0024001,Chrome,1440,900,,,,,0,612,,,,,,,,,,,,,,,,,160,S,hexagon,1,0,,3,,,,,,,,,,,,,,switch,letter,lettSwt,k,0.8483,vtsPrac,4,0,4,0,1,,,,,,,,,,,,,,,,,,,,,,,
295288,2022-11-21_18h20.57.220,vts_reward_expectancy_bt,2022.2.4,MacIntel,60.0024001,Chrome,1440,900,,,,,0,612,,,,,,,,,,,,,,,,,146,H,triangle,1,0,,3,,,,,,,,,,,,,,switch,number,numSwt,d,0.7337,vtsPrac,5,0,5,0,1,,,,,,,,,,,,,,,,,,,,,,,
295288,2022-11-21_18h20.57.220,vts_reward_expectancy_bt,2022.2.4,MacIntel,60.0024001,Chrome,1440,900,,,,,0,612,,,,,,,,,,,,,,,,,139,Y,circle,1,0,,3,,,,,,,,,,,,,,switch,letter,lettSwt,k,0.6313,vtsPrac,6,0,6,0,1,,,,,,,,,,,,,,,,,,,,,,,
295288,2022-11-21_18h20.57.220,vts_reward_expectancy_bt,2022.2.4,MacIntel,60.0024001,Chrome,1440,900,,,,,0,612,,,,,,,,,,,,,,,,,167,B,triangle,1,0,,3,,,,,,,,,,,,,,switch,number,numSwt,f,0.7009,vtsPrac,7,0,7,0,1,,,,,,,,,,,,,,,,,,,,,,,
295288,2022-11-21_18h20.57.220,vts_reward_expectancy_bt,2022.2.4,MacIntel,60.0024001,Chrome,1440,900,,,,,0,612,,,,,,,,,,,,,,,,,125,B,circle,1,0,,3,,,,,,,,,,,,,,switch,letter,lettSwt,j,1.4358,vtsPrac,8,0,8,0,1,,,,,,,,,,,,,,,,,,,,,,,
295288,2022-11-21_18h20.57.220,vts_reward_expectancy_bt,2022.2.4,MacIntel,60.0024001,Chrome,1440,900,,,,,0,612,,,,,,,,,,,,,,,,,160,S,triangle,1,0,,3,,,,,,,,,,,,,,switch,number,numSwt,f,1.0476,vtsPrac,9,0,9,0,1,,,,,,,,,,,,,,,,,,,,,,,
295288,2022-11-21_18h20.57.220,vts_reward_expectancy_bt,2022.2.4,MacIntel,60.0024001,Chrome,1440,900,,,,,0,612,,,,,,,,,,,,,,,,,174,F,triangle,1,0,,3,,,,,,,,,,,,,,switch,letter,lettSwt,j,1.1609,vtsPrac,10,0,10,0,1,,,,,,,,,,,,,,,,,,,,,,,
295288,2022-11-21_18h20.57.220,vts_reward_expectancy_bt,2022.2.4,MacIntel,60.0024001,Chrome,1440,900,,,,,0,612,,,,,,,,,,,,,,,,,132,U,star,1,0,,3,,,,,,,,,,,,,,switch,number,numSwt,d,0.6424,vtsPrac,11,0,11,0,1,,,,,,,,,,,,,,,,,,,,,,,
295288,2022-11-21_18h20.57.220,vts_reward_expectancy_bt,2022.2.4,MacIntel,60.0024001,Chrome,1440,900,,,,,0,612,,,,,,,,,,,,,,,,,146,S,circle,1,0,,3,,,,,,,,,,,,,,switch,letter,lettSwt,k,1.0336,vtsPrac,12,0,12,0,1,,,,,,,,,,,,,,,,,,,,,,,
295288,2022-11-21_18h20.57.220,vts_reward_expectancy_bt,2022.2.4,MacIntel,60.0024001,Chrome,1440,900,,,,,0,612,,,,,,,,,,,,,,,,,174,U,star,1,0,,3,,,,,,,,,,,,,,switch,number,numSwt,f,0.5463,vtsPrac,13,0,13,0,1,,,,,,,,,,,,,,,,,,,,,,,
295288,2022-11-21_18h20.57.220,vts_reward_expectancy_bt,2022.2.4,MacIntel,60.0024001,Chrome,1440,900,,,,,0,612,,,,,,,,,,,,,,,,,181,D,triangle,1,0,,3,,,,,,,,,,,,,,switch,letter,lettSwt,j,1.2064,vtsPrac,14,0,14,0,1,,,,,,,,,,,,,,,,,,,,,,,
295288,2022-11-21_18h20.57.220,vts_reward_expectancy_bt,2022.2.4,MacIntel,60.0024001,Chrome,1440,900,,,,,0,612,,,,,,,,,,,,,,,,,167,Y,circle,1,0,,3,,,,,,,,,,,,,,switch,number,numSwt,f,0.8425,vtsPrac,15,0,15,0,1,,,,,,,,,,,,,,,,,,,,,,,
295288,2022-11-21_18h20.57.220,vts_reward_expectancy_bt,2022.2.4,MacIntel,60.0024001,Chrome,1440,900,,,,,0,612,,,,,,,,,,,,,,,,,139,S,triangle,1,0,,3,,,,,,,,,,,,,,switch,letter,lettSwt,k,0.8218,vtsPrac,16,0,16,0,1,,,,,,,,,,,,,,,,,,,,,,,
295288,2022-11-21_18h20.57.220,vts_reward_expectancy_bt,2022.2.4,MacIntel,60.0024001,Chrome,1440,900,,,,,0,612,,,,,,,,,,,,,,,,,174,F,hexagon,1,0,,3,,,,,,,,,,,,,,switch,number,numSwt,f,0.9127,vtsPrac,17,0,17,0,1,,,,,,,,,,,,,,,,,,,,,,,
295288,2022-11-21_18h20.57.220,vts_reward_expectancy_bt,2022.2.4,MacIntel,60.0024001,Chrome,1440,900,,,,,0,612,,,,,,,,,,,,,,,,,125,U,star,0,0,,3,,,,,,,,,,,,,,switch,letter,NA,j,1.264,vtsPrac,18,0,18,0,1,,,,,,,,,,,,,,,,,,,,,,,
295288,2022-11-21_18h20.57.220,vts_reward_expectancy_bt,2022.2.4,MacIntel,60.0024001,Chrome,1440,900,,,,,0,612,,,,,,,,,,,,,,,,,146,Y,triangle,1,1,,3,,,,,,,,,,,,,,switch,number,numSwt,d,1.2975,vtsPrac,19,0,19,0,1,,,,,,,,,,,,,,,,,,,,,,,
295288,2022-11-21_18h20.57.220,vts_reward_expectancy_bt,2022.2.4,MacIntel,60.0024001,Chrome,1440,900,,,,,0,612,,,,,,,,,,,,,,,,,160,F,star,0,0,,3,,,,,,,,,,,,,,switch,letter,NA,k,0.8987,vtsPrac,20,0,20,0,1,,,,,,,,,,,,,,,,,,,,,,,
295288,2022-11-21_18h20.57.220,vts_reward_expectancy_bt,2022.2.4,MacIntel,60.0024001,Chrome,1440,900,,,,,0,612,,,,,,,,,,,,,,,,,139,D,triangle,1,1,,3,,,,,,,,,,,,,,switch,number,numSwt,d,1.1315,vtsPrac,21,0,21,0,1,,,,,,,,,,,,,,,,,,,,,,,
295288,2022-11-21_18h20.57.220,vts_reward_expectancy_bt,2022.2.4,MacIntel,60.0024001,Chrome,1440,900,,,,,0,612,,,,,,,,,,,,,,,,,174,U,star,1,0,,3,,,,,,,,,,,,,,switch,letter,lettSwt,k,1.0444,vtsPrac,22,0,22,0,1,,,,,,,,,,,,,,,,,,,,,,,
295288,2022-11-21_18h20.57.220,vts_reward_expectancy_bt,2022.2.4,MacIntel,60.0024001,Chrome,1440,900,,,,,0,612,,,,,,,,,,,,,,,,,125,S,triangle,1,0,,3,,,,,,,,,,,,,,switch,number,numSwt,d,0.8973,vtsPrac,23,0,23,0,1,,,,,,,,,,,,,,,,,,,,,,,
295288,2022-11-21_18h20.57.220,vts_reward_expectancy_bt,2022.2.4,MacIntel,60.0024001,Chrome,1440,900,,,,,0,612,,,,,,,,,,,,,,,,,146,Y,star,1,0,,3,,,,,,,,,,,,,,switch,letter,lettSwt,k,1.1523,vtsPrac,24,0,24,0,1,,,,,,,,,,,,,,,,,,,,,,,
295288,2022-11-21_18h20.57.220,vts_reward_expectancy_bt,2022.2.4,MacIntel,60.0024001,Chrome,1440,900,,,,,0,612,,,,,,,,,,,,,,,,,181,D,triangle,1,0,,3,,,,,,,,,,,,,,switch,number,numSwt,f,1.5487,vtsPrac,25,0,25,0,1,,,,,,,,,,,,,,,,,,,,,,,
295288,2022-11-21_18h20.57.220,vts_reward_expectancy_bt,2022.2.4,MacIntel,60.0024001,Chrome,1440,900,,,,,0,612,,,,,,,,,,,,,,,,,167,F,star,1,0,,3,,,,,,,,,,,,,,switch,letter,lettSwt,j,1.1438,vtsPrac,26,0,26,0,1,,,,,,,,,,,,,,,,,,,,,,,
295288,2022-11-21_18h20.57.220,vts_reward_expectancy_bt,2022.2.4,MacIntel,60.0024001,Chrome,1440,900,,,,,0,612,,,,,,,,,,,,,,,,,174,W,hexagon,1,0,,3,,,,,,,,,,,,,,switch,number,numSwt,f,1.3415,vtsPrac,27,0,27,0,1,,,,,,,,,,,,,,,,,,,,,,,
295288,2022-11-21_18h20.57.220,vts_reward_expectancy_bt,2022.2.4,MacIntel,60.0024001,Chrome,1440,900,,,,,0,612,,,,,,,,,,,,,,,,,125,F,triangle,1,0,,3,,,,,,,,,,,,,,switch,letter,lettSwt,j,1.7039,vtsPrac,28,0,28,0,1,,,,,,,,,,,,,,,,,,,,,,,
295288,2022-11-21_18h20.57.220,vts_reward_expectancy_bt,2022.2.4,MacIntel,60.0024001,Chrome,1440,900,,,,,0,612,,,,,,,,,,,,,,,,,181,Y,hexagon,0,0,,3,,,,,,,,,,,,,,switch,number,NA,d,1.3788,vtsPrac,29,0,29,0,1,,,,,,,,,,,,,,,,,,,,,,,
295288,2022-11-21_18h20.57.220,vts_reward_expectancy_bt,2022.2.4,MacIntel,60.0024001,Chrome,1440,900,,,,,0,612,,,,,,,,,,,,,,,,,160,W,circle,1,1,,3,,,,,,,,,,,,,,switch,letter,lettSwt,k,0.6976,vtsPrac,30,0,30,0,1,,,,,,,,,,,,,,,,,,,,,,,
295288,2022-11-21_18h20.57.220,vts_reward_expectancy_bt,2022.2.4,MacIntel,60.0024001,Chrome,1440,900,,,,,0,612,,,,,,,,,,,,,,,,,139,S,triangle,1,0,,3,,,,,,,,,,,,,,switch,number,numSwt,d,0.9048,vtsPrac,31,0,31,0,1,,,,,,,,,,,,,,,,,,,,,,,
295288,2022-11-21_18h20.57.220,vts_reward_expectancy_bt,2022.2.4,MacIntel,60.0024001,Chrome,1440,900,,,,,0,612,,,,,,,,,,,,,,,,,174,W,hexagon,1,0,,4,,,,,,,,,,,,,,switch,letter,lettSwt,k,1.0952,vtsPrac,0,0,0,0,1,,,,,,,,,,,,,,,,,,,,,,,
295288,2022-11-21_18h20.57.220,vts_reward_expectancy_bt,2022.2.4,MacIntel,60.0024001,Chrome,1440,900,,,,,0,612,,,,,,,,,,,,,,,,,139,B,star,1,0,,4,,,,,,,,,,,,,,switch,number,numSwt,d,1.3824,vtsPrac,1,0,1,0,1,,,,,,,,,,,,,,,,,,,,,,,
295288,2022-11-21_18h20.57.220,vts_reward_expectancy_bt,2022.2.4,MacIntel,60.0024001,Chrome,1440,900,,,,,0,612,,,,,,,,,,,,,,,,,167,D,hexagon,1,0,,4,,,,,,,,,,,,,,switch,letter,lettSwt,j,1.9319,vtsPrac,2,0,2,0,1,,,,,,,,,,,,,,,,,,,,,,,
295288,2022-11-21_18h20.57.220,vts_reward_expectancy_bt,2022.2.4,MacIntel,60.0024001,Chrome,1440,900,,,,,0,612,,,,,,,,,,,,,,,,,125,H,star,1,0,,4,,,,,,,,,,,,,,switch,number,numSwt,d,1.5213,vtsPrac,3,0,3,0,1,,,,,,,,,,,,,,,,,,,,,,,
295288,2022-11-21_18h20.57.220,vts_reward_expectancy_bt,2022.2.4,MacIntel,60.0024001,Chrome,1440,900,,,,,0,612,,,,,,,,,,,,,,,,,174,W,circle,1,0,,4,,,,,,,,,,,,,,switch,letter,lettSwt,k,1.0154,vtsPrac,4,0,4,0,1,,,,,,,,,,,,,,,,,,,,,,,
295288,2022-11-21_18h20.57.220,vts_reward_expectancy_bt,2022.2.4,MacIntel,60.0024001,Chrome,1440,900,,,,,0,612,,,,,,,,,,,,,,,,,139,B,hexagon,1,0,,4,,,,,,,,,,,,,,switch,number,numSwt,d,0.6299,vtsPrac,5,0,5,0,1,,,,,,,,,,,,,,,,,,,,,,,
295288,2022-11-21_18h20.57.220,vts_reward_expectancy_bt,2022.2.4,MacIntel,60.0024001,Chrome,1440,900,,,,,0,612,,,,,,,,,,,,,,,,,167,D,hexagon,1,0,,4,,,,,,,,,,,,,,switch,letter,lettSwt,j,0.911,vtsPrac,6,0,6,0,1,,,,,,,,,,,,,,,,,,,,,,,
295288,2022-11-21_18h20.57.220,vts_reward_expectancy_bt,2022.2.4,MacIntel,60.0024001,Chrome,1440,900,,,,,0,612,,,,,,,,,,,,,,,,,125,H,star,1,0,,4,,,,,,,,,,,,,,switch,number,numSwt,d,1.779,vtsPrac,7,0,7,0,1,,,,,,,,,,,,,,,,,,,,,,,
295288,2022-11-21_18h20.57.220,vts_reward_expectancy_bt,2022.2.4,MacIntel,60.0024001,Chrome,1440,900,,,,,0,612,,,,,,,,,,,,,,,,,146,S,hexagon,1,0,,4,,,,,,,,,,,,,,switch,letter,lettSwt,k,1.1196,vtsPrac,8,0,8,0,1,,,,,,,,,,,,,,,,,,,,,,,
295288,2022-11-21_18h20.57.220,vts_reward_expectancy_bt,2022.2.4,MacIntel,60.0024001,Chrome,1440,900,,,,,0,612,,,,,,,,,,,,,,,,,181,F,star,0,0,,4,,,,,,,,,,,,,,switch,number,NA,d,1.37,vtsPrac,9,0,9,0,1,,,,,,,,,,,,,,,,,,,,,,,
295288,2022-11-21_18h20.57.220,vts_reward_expectancy_bt,2022.2.4,MacIntel,60.0024001,Chrome,1440,900,,,,,0,612,,,,,,,,,,,,,,,,,160,H,triangle,1,1,,4,,,,,,,,,,,,,,switch,letter,lettSwt,j,1.5679,vtsPrac,10,0,10,0,1,,,,,,,,,,,,,,,,,,,,,,,
295288,2022-11-21_18h20.57.220,vts_reward_expectancy_bt,2022.2.4,MacIntel,60.0024001,Chrome,1440,900,,,,,0,612,,,,,,,,,,,,,,,,,167,Y,star,1,0,,4,,,,,,,,,,,,,,switch,number,numSwt,f,0.5461,vtsPrac,11,0,11,0,1,,,,,,,,,,,,,,,,,,,,,,,
295288,2022-11-21_18h20.57.220,vts_reward_expectancy_bt,2022.2.4,MacIntel,60.0024001,Chrome,1440,900,,,,,0,612,,,,,,,,,,,,,,,,,181,W,star,1,0,,4,,,,,,,,,,,,,,switch,letter,lettSwt,k,1.1673,vtsPrac,12,0,12,0,1,,,,,,,,,,,,,,,,,,,,,,,
295288,2022-11-21_18h20.57.220,vts_reward_expectancy_bt,2022.2.4,MacIntel,60.0024001,Chrome,1440,900,,,,,0,612,,,,,,,,,,,,,,,,,146,S,triangle,1,0,,4,,,,,,,,,,,,,,switch,number,numSwt,d,0.7633,vtsPrac,13,0,13,0,1,,,,,,,,,,,,,,,,,,,,,,,
295288,2022-11-21_18h20.57.220,vts_reward_expectancy_bt,2022.2.4,MacIntel,60.0024001,Chrome,1440,900,,,,,0,612,,,,,,,,,,,,,,,,,160,B,triangle,1,0,,4,,,,,,,,,,,,,,switch,letter,lettSwt,j,1.7148,vtsPrac,14,0,14,0,1,,,,,,,,,,,,,,,,,,,,,,,
295288,2022-11-21_18h20.57.220,vts_reward_expectancy_bt,2022.2.4,MacIntel,60.0024001,Chrome,1440,900,,,,,0,612,,,,,,,,,,,,,,,,,139,D,circle,1,0,,4,,,,,,,,,,,,,,switch,number,numSwt,d,1.4947,vtsPrac,15,0,15,0,1,,,,,,,,,,,,,,,,,,,,,,,
295288,2022-11-21_18h20.57.220,vts_reward_expectancy_bt,2022.2.4,MacIntel,60.0024001,Chrome,1440,900,,,,,0,612,,,,,,,,,,,,,,,,,160,H,hexagon,1,0,,4,,,,,,,,,,,,,,switch,letter,lettSwt,j,0.7638,vtsPrac,16,0,16,0,1,,,,,,,,,,,,,,,,,,,,,,,
295288,2022-11-21_18h20.57.220,vts_reward_expectancy_bt,2022.2.4,MacIntel,60.0024001,Chrome,1440,900,,,,,0,612,,,,,,,,,,,,,,,,,181,F,triangle,1,0,,4,,,,,,,,,,,,,,switch,number,numSwt,f,0.9948,vtsPrac,17,0,17,0,1,,,,,,,,,,,,,,,,,,,,,,,
295288,2022-11-21_18h20.57.220,vts_reward_expectancy_bt,2022.2.4,MacIntel,60.0024001,Chrome,1440,900,,,,,0,612,,,,,,,,,,,,,,,,,146,D,triangle,1,0,,4,,,,,,,,,,,,,,switch,letter,lettSwt,j,1.9283,vtsPrac,18,0,18,0,1,,,,,,,,,,,,,,,,,,,,,,,
295288,2022-11-21_18h20.57.220,vts_reward_expectancy_bt,2022.2.4,MacIntel,60.0024001,Chrome,1440,900,,,,,0,612,,,,,,,,,,,,,,,,,167,B,hexagon,1,0,,4,,,,,,,,,,,,,,switch,number,numSwt,f,2.3117,vtsPrac,19,0,19,0,1,,,,,,,,,,,,,,,,,,,,,,,
295288,2022-11-21_18h20.57.220,vts_reward_expectancy_bt,2022.2.4,MacIntel,60.0024001,Chrome,1440,900,,,,,0,612,,,,,,,,,,,,,,,,,181,U,star,1,0,,4,,,,,,,,,,,,,,switch,letter,lettSwt,k,1.0433,vtsPrac,20,0,20,0,1,,,,,,,,,,,,,,,,,,,,,,,
295288,2022-11-21_18h20.57.220,vts_reward_expectancy_bt,2022.2.4,MacIntel,60.0024001,Chrome,1440,900,,,,,0,612,,,,,,,,,,,,,,,,,139,D,triangle,1,0,,4,,,,,,,,,,,,,,switch,number,numSwt,d,0.5736,vtsPrac,21,0,21,0,1,,,,,,,,,,,,,,,,,,,,,,,
295288,2022-11-21_18h20.57.220,vts_reward_expectancy_bt,2022.2.4,MacIntel,60.0024001,Chrome,1440,900,,,,,0,612,,,,,,,,,,,,,,,,,125,W,star,1,0,,4,,,,,,,,,,,,,,switch,letter,lettSwt,k,0.9803,vtsPrac,22,0,22,0,1,,,,,,,,,,,,,,,,,,,,,,,
295288,2022-11-21_18h20.57.220,vts_reward_expectancy_bt,2022.2.4,MacIntel,60.0024001,Chrome,1440,900,,,,,0,612,,,,,,,,,,,,,,,,,174,Y,triangle,1,0,,4,,,,,,,,,,,,,,switch,number,numSwt,f,0.9154,vtsPrac,23,0,23,0,1,,,,,,,,,,,,,,,,,,,,,,,
295288,2022-11-21_18h20.57.220,vts_reward_expectancy_bt,2022.2.4,MacIntel,60.0024001,Chrome,1440,900,,,,,0,612,,,,,,,,,,,,,,,,,132,D,triangle,1,0,,4,,,,,,,,,,,,,,switch,letter,lettSwt,j,0.9043,vtsPrac,24,0,24,0,1,,,,,,,,,,,,,,,,,,,,,,,
295288,2022-11-21_18h20.57.220,vts_reward_expectancy_bt,2022.2.4,MacIntel,60.0024001,Chrome,1440,900,,,,,0,612,,,,,,,,,,,,,,,,,139,B,star,1,0,,4,,,,,,,,,,,,,,switch,number,numSwt,d,1.0863,vtsPrac,25,0,25,0,1,,,,,,,,,,,,,,,,,,,,,,,
295288,2022-11-21_18h20.57.220,vts_reward_expectancy_bt,2022.2.4,MacIntel,60.0024001,Chrome,1440,900,,,,,0,612,,,,,,,,,,,,,,,,,167,S,star,1,0,,4,,,,,,,,,,,,,,switch,letter,lettSwt,k,0.8303,vtsPrac,26,0,26,0,1,,,,,,,,,,,,,,,,,,,,,,,
295288,2022-11-21_18h20.57.220,vts_reward_expectancy_bt,2022.2.4,MacIntel,60.0024001,Chrome,1440,900,,,,,0,612,,,,,,,,,,,,,,,,,181,Y,hexagon,1,0,,4,,,,,,,,,,,,,,switch,number,numSwt,f,0.6947,vtsPrac,27,0,27,0,1,,,,,,,,,,,,,,,,,,,,,,,
295288,2022-11-21_18h20.57.220,vts_reward_expectancy_bt,2022.2.4,MacIntel,60.0024001,Chrome,1440,900,,,,,0,612,,,,,,,,,,,,,,,,,174,Y,hexagon,0,0,,4,,,,,,,,,,,,,,switch,letter,NA,j,2.1223,vtsPrac,28,0,28,0,1,,,,,,,,,,,,,,,,,,,,,,,
295288,2022-11-21_18h20.57.220,vts_reward_expectancy_bt,2022.2.4,MacIntel,60.0024001,Chrome,1440,900,,,,,0,612,,,,,,,,,,,,,,,,,160,W,circle,1,1,,4,,,,,,,,,,,,,,switch,number,numSwt,f,0.946,vtsPrac,29,0,29,0,1,,,,,,,,,,,,,,,,,,,,,,,
295288,2022-11-21_18h20.57.220,vts_reward_expectancy_bt,2022.2.4,MacIntel,60.0024001,Chrome,1440,900,,,,,0,612,,,,,,,,,,,,,,,,,139,B,star,1,0,,4,,,,,,,,,,,,,,switch,letter,lettSwt,j,1.2874,vtsPrac,30,0,30,0,1,,,,,,,,,,,,,,,,,,,,,,,
295288,2022-11-21_18h20.57.220,vts_reward_expectancy_bt,2022.2.4,MacIntel,60.0024001,Chrome,1440,900,,,,,0,612,,,,,,,,,,,,,,,,,132,D,circle,0,0,,4,,,,,,,,,,,,,,switch,number,NA,f,0.9817,vtsPrac,31,0,31,0,1,,,,,,,,,,,,,,,,,,,,,,,
295288,2022-11-21_18h20.57.220,vts_reward_expectancy_bt,2022.2.4,MacIntel,60.0024001,Chrome,1440,900,,,,,,,,,,,,,,,,,,,,,,,,,,,,,,,,,,,,,,,,,,,,,,,,,,,,,,,,,,,,,,,,,,,,,,,,,,,,
295288,2022-11-21_18h20.57.220,vts_reward_expectancy_bt,2022.2.4,MacIntel,60.0024001,Chrome,1440,900,,,,,,,,,,,,,,,,,,,,,,,,,,,,,,,,,,,,,,,,,,,,,,,,,,,,,,,,,,,,,,,,,,,,,,,,,,,,
295288,2022-11-21_18h20.57.220,vts_reward_expectancy_bt,2022.2.4,MacIntel,60.0024001,Chrome,1440,900,,,,,0,612,,,,,,,,,,,,,,,,,160,F,circle,1,1,,,,,,,,,,,,,,,,switch,letter,lettSwt,j,0.8171,noRew,,,,,,0,0,0,0,0,1,,,,,,,,,,,,,,,,,
295288,2022-11-21_18h20.57.220,vts_reward_expectancy_bt,2022.2.4,MacIntel,60.0024001,Chrome,1440,900,,,,,0,612,,,,,,,,,,,,,,,,,132,D,hexagon,1,0,,,,,,,,,,,,,,,,repeat,letter,lettRpt,j,0.6208,noRew,,,,,,0,1,0,1,0,1,,,,,,,,,,,,,,,,,
295288,2022-11-21_18h20.57.220,vts_reward_expectancy_bt,2022.2.4,MacIntel,60.0024001,Chrome,1440,900,,,,,0,612,,,,,,,,,,,,,,,,,146,U,circle,0,0,,,,,,,,,,,,,,,,switch,number,NA,f,0.5089,noRew,,,,,,0,2,0,2,0,1,,,,,,,,,,,,,,,,,
295288,2022-11-21_18h20.57.220,vts_reward_expectancy_bt,2022.2.4,MacIntel,60.0024001,Chrome,1440,900,,,,,0,612,,,,,,,,,,,,,,,,,125,B,hexagon,1,1,,,,,,,,,,,,,,,,repeat,number,numRpt,d,0.7864,noRew,,,,,,0,3,0,3,0,1,,,,,,,,,,,,,,,,,
295288,2022-11-21_18h20.57.220,vts_reward_expectancy_bt,2022.2.4,MacIntel,60.0024001,Chrome,1440,900,,,,,0,612,,,,,,,,,,,,,,,,,160,F,triangle,1,0,,,,,,,,,,,,,,,,switch,letter,lettSwt,j,0.7086,noRew,,,,,,0,4,0,4,0,1,,,,,,,,,,,,,,,,,
295288,2022-11-21_18h20.57.220,vts_reward_expectancy_bt,2022.2.4,MacIntel,60.0024001,Chrome,1440,900,,,,,0,612,,,,,,,,,,,,,,,,,132,D,hexagon,1,0,,,,,,,,,,,,,,,,repeat,letter,lettRpt,j,0.606,noRew,,,,,,0,5,0,5,0,1,,,,,,,,,,,,,,,,,
295288,2022-11-21_18h20.57.220,vts_reward_expectancy_bt,2022.2.4,MacIntel,60.0024001,Chrome,1440,900,,,,,0,612,,,,,,,,,,,,,,,,,146,U,star,1,0,,,,,,,,,,,,,,,,switch,number,numSwt,d,0.7163,noRew,,,,,,0,6,0,6,0,1,,,,,,,,,,,,,,,,,
295288,2022-11-21_18h20.57.220,vts_reward_expectancy_bt,2022.2.4,MacIntel,60.0024001,Chrome,1440,900,,,,,0,612,,,,,,,,,,,,,,,,,125,B,circle,1,0,,,,,,,,,,,,,,,,repeat,number,numRpt,d,0.6419,noRew,,,,,,0,7,0,7,0,1,,,,,,,,,,,,,,,,,
295288,2022-11-21_18h20.57.220,vts_reward_expectancy_bt,2022.2.4,MacIntel,60.0024001,Chrome,1440,900,,,,,0,612,,,,,,,,,,,,,,,,,132,W,star,1,0,,,,,,,,,,,,,,,,switch,letter,lettSwt,k,1.0285,noRew,,,,,,0,8,0,8,0,1,,,,,,,,,,,,,,,,,
295288,2022-11-21_18h20.57.220,vts_reward_expectancy_bt,2022.2.4,MacIntel,60.0024001,Chrome,1440,900,,,,,0,612,,,,,,,,,,,,,,,,,167,B,hexagon,1,0,,,,,,,,,,,,,,,,repeat,letter,lettRpt,j,0.5968,noRew,,,,,,0,9,0,9,0,1,,,,,,,,,,,,,,,,,
295288,2022-11-21_18h20.57.220,vts_reward_expectancy_bt,2022.2.4,MacIntel,60.0024001,Chrome,1440,900,,,,,0,612,,,,,,,,,,,,,,,,,160,Y,star,1,0,,,,,,,,,,,,,,,,switch,number,numSwt,f,0.6027,noRew,,,,,,0,10,0,10,0,1,,,,,,,,,,,,,,,,,
295288,2022-11-21_18h20.57.220,vts_reward_expectancy_bt,2022.2.4,MacIntel,60.0024001,Chrome,1440,900,,,,,0,612,,,,,,,,,,,,,,,,,139,U,hexagon,1,0,,,,,,,,,,,,,,,,repeat,number,numRpt,d,0.5751,noRew,,,,,,0,11,0,11,0,1,,,,,,,,,,,,,,,,,
295288,2022-11-21_18h20.57.220,vts_reward_expectancy_bt,2022.2.4,MacIntel,60.0024001,Chrome,1440,900,,,,,0,612,,,,,,,,,,,,,,,,,160,W,triangle,1,0,,,,,,,,,,,,,,,,switch,letter,lettSwt,k,0.5558,noRew,,,,,,0,12,0,12,0,1,,,,,,,,,,,,,,,,,
295288,2022-11-21_18h20.57.220,vts_reward_expectancy_bt,2022.2.4,MacIntel,60.0024001,Chrome,1440,900,,,,,0,612,,,,,,,,,,,,,,,,,167,S,star,1,0,,,,,,,,,,,,,,,,repeat,letter,lettRpt,k,0.9758,noRew,,,,,,0,13,0,13,0,1,,,,,,,,,,,,,,,,,
295288,2022-11-21_18h20.57.220,vts_reward_expectancy_bt,2022.2.4,MacIntel,60.0024001,Chrome,1440,900,,,,,0,612,,,,,,,,,,,,,,,,,174,B,star,1,0,,,,,,,,,,,,,,,,switch,number,numSwt,f,1.1181,noRew,,,,,,0,14,0,14,0,1,,,,,,,,,,,,,,,,,
295288,2022-11-21_18h20.57.220,vts_reward_expectancy_bt,2022.2.4,MacIntel,60.0024001,Chrome,1440,900,,,,,0,612,,,,,,,,,,,,,,,,,181,F,circle,1,0,,,,,,,,,,,,,,,,repeat,number,numRpt,f,0.8071,noRew,,,,,,0,15,0,15,0,1,,,,,,,,,,,,,,,,,
295288,2022-11-21_18h20.57.220,vts_reward_expectancy_bt,2022.2.4,MacIntel,60.0024001,Chrome,1440,900,,,,,0,612,,,,,,,,,,,,,,,,,167,S,triangle,1,0,,,,,,,,,,,,,,,,switch,letter,lettSwt,k,0.6409,noRew,,,,,,0,16,0,16,0,1,,,,,,,,,,,,,,,,,
295288,2022-11-21_18h20.57.220,vts_reward_expectancy_bt,2022.2.4,MacIntel,60.0024001,Chrome,1440,900,,,,,0,612,,,,,,,,,,,,,,,,,139,W,star,1,0,,,,,,,,,,,,,,,,repeat,letter,lettRpt,k,0.5964,noRew,,,,,,0,17,0,17,0,1,,,,,,,,,,,,,,,,,
295288,2022-11-21_18h20.57.220,vts_reward_expectancy_bt,2022.2.4,MacIntel,60.0024001,Chrome,1440,900,,,,,0,612,,,,,,,,,,,,,,,,,125,B,hexagon,1,0,,,,,,,,,,,,,,,,switch,number,numSwt,d,0.4734,noRew,,,,,,0,18,0,18,0,1,,,,,,,,,,,,,,,,,
295288,2022-11-21_18h20.57.220,vts_reward_expectancy_bt,2022.2.4,MacIntel,60.0024001,Chrome,1440,900,,,,,0,612,,,,,,,,,,,,,,,,,174,D,triangle,1,0,,,,,,,,,,,,,,,,repeat,number,numRpt,f,1.0416,noRew,,,,,,0,19,0,19,0,1,,,,,,,,,,,,,,,,,
295288,2022-11-21_18h20.57.220,vts_reward_expectancy_bt,2022.2.4,MacIntel,60.0024001,Chrome,1440,900,,,,,0,612,,,,,,,,,,,,,,,,,174,U,star,1,0,,,,,,,,,,,,,,,,switch,letter,lettSwt,k,1.6095,noRew,,,,,,0,20,0,20,0,1,,,,,,,,,,,,,,,,,
295288,2022-11-21_18h20.57.220,vts_reward_expectancy_bt,2022.2.4,MacIntel,60.0024001,Chrome,1440,900,,,,,0,612,,,,,,,,,,,,,,,,,125,Y,hexagon,1,0,,,,,,,,,,,,,,,,repeat,letter,lettRpt,k,0.6543,noRew,,,,,,0,21,0,21,0,1,,,,,,,,,,,,,,,,,
295288,2022-11-21_18h20.57.220,vts_reward_expectancy_bt,2022.2.4,MacIntel,60.0024001,Chrome,1440,900,,,,,0,612,,,,,,,,,,,,,,,,,181,B,hexagon,1,0,,,,,,,,,,,,,,,,switch,number,numSwt,f,0.529,noRew,,,,,,0,22,0,22,0,1,,,,,,,,,,,,,,,,,
295288,2022-11-21_18h20.57.220,vts_reward_expectancy_bt,2022.2.4,MacIntel,60.0024001,Chrome,1440,900,,,,,0,612,,,,,,,,,,,,,,,,,167,F,circle,1,0,,,,,,,,,,,,,,,,repeat,number,numRpt,f,0.4778,noRew,,,,,,0,23,0,23,0,1,,,,,,,,,,,,,,,,,
295288,2022-11-21_18h20.57.220,vts_reward_expectancy_bt,2022.2.4,MacIntel,60.0024001,Chrome,1440,900,,,,,0,612,,,,,,,,,,,,,,,,,181,B,circle,1,0,,,,,,,,,,,,,,,,switch,letter,lettSwt,j,0.9605,noRew,,,,,,0,24,0,24,0,1,,,,,,,,,,,,,,,,,
295288,2022-11-21_18h20.57.220,vts_reward_expectancy_bt,2022.2.4,MacIntel,60.0024001,Chrome,1440,900,,,,,0,612,,,,,,,,,,,,,,,,,167,U,star,1,0,,,,,,,,,,,,,,,,repeat,letter,lettRpt,k,0.908,noRew,,,,,,0,25,0,25,0,1,,,,,,,,,,,,,,,,,
295288,2022-11-21_18h20.57.220,vts_reward_expectancy_bt,2022.2.4,MacIntel,60.0024001,Chrome,1440,900,,,,,0,612,,,,,,,,,,,,,,,,,174,W,circle,1,0,,,,,,,,,,,,,,,,switch,number,numSwt,f,0.5714,noRew,,,,,,0,26,0,26,0,1,,,,,,,,,,,,,,,,,
295288,2022-11-21_18h20.57.220,vts_reward_expectancy_bt,2022.2.4,MacIntel,60.0024001,Chrome,1440,900,,,,,0,612,,,,,,,,,,,,,,,,,139,Y,triangle,1,0,,,,,,,,,,,,,,,,repeat,number,numRpt,d,0.6436,noRew,,,,,,0,27,0,27,0,1,,,,,,,,,,,,,,,,,
295288,2022-11-21_18h20.57.220,vts_reward_expectancy_bt,2022.2.4,MacIntel,60.0024001,Chrome,1440,900,,,,,0,612,,,,,,,,,,,,,,,,,181,F,star,1,0,,,,,,,,,,,,,,,,switch,letter,lettSwt,j,0.9759,noRew,,,,,,0,28,0,28,0,1,,,,,,,,,,,,,,,,,
295288,2022-11-21_18h20.57.220,vts_reward_expectancy_bt,2022.2.4,MacIntel,60.0024001,Chrome,1440,900,,,,,0,612,,,,,,,,,,,,,,,,,160,H,triangle,1,0,,,,,,,,,,,,,,,,repeat,letter,lettRpt,j,0.4904,noRew,,,,,,0,29,0,29,0,1,,,,,,,,,,,,,,,,,
295288,2022-11-21_18h20.57.220,vts_reward_expectancy_bt,2022.2.4,MacIntel,60.0024001,Chrome,1440,900,,,,,0,612,,,,,,,,,,,,,,,,,125,U,star,1,0,,,,,,,,,,,,,,,,switch,number,numSwt,d,0.7275,noRew,,,,,,0,30,0,30,0,1,,,,,,,,,,,,,,,,,
295288,2022-11-21_18h20.57.220,vts_reward_expectancy_bt,2022.2.4,MacIntel,60.0024001,Chrome,1440,900,,,,,0,612,,,,,,,,,,,,,,,,,167,S,circle,1,0,,,,,,,,,,,,,,,,repeat,number,numRpt,f,0.4707,noRew,,,,,,0,31,0,31,0,1,,,,,,,,,,,,,,,,,
295288,2022-11-21_18h20.57.220,vts_reward_expectancy_bt,2022.2.4,MacIntel,60.0024001,Chrome,1440,900,,,,,0,612,,,,,,,,,,,,,,,,,174,H,circle,1,0,,,,,,,,,,,,,,,,switch,letter,lettSwt,j,0.5173,noRew,,,,,,0,32,0,32,0,1,,,,,,,,,,,,,,,,,
295288,2022-11-21_18h20.57.220,vts_reward_expectancy_bt,2022.2.4,MacIntel,60.0024001,Chrome,1440,900,,,,,0,612,,,,,,,,,,,,,,,,,125,D,star,1,0,,,,,,,,,,,,,,,,repeat,letter,lettRpt,j,0.5342,noRew,,,,,,0,33,0,33,0,1,,,,,,,,,,,,,,,,,
295288,2022-11-21_18h20.57.220,vts_reward_expectancy_bt,2022.2.4,MacIntel,60.0024001,Chrome,1440,900,,,,,0,612,,,,,,,,,,,,,,,,,167,U,triangle,1,0,,,,,,,,,,,,,,,,switch,number,numSwt,f,0.8325,noRew,,,,,,0,34,0,34,0,1,,,,,,,,,,,,,,,,,
295288,2022-11-21_18h20.57.220,vts_reward_expectancy_bt,2022.2.4,MacIntel,60.0024001,Chrome,1440,900,,,,,0,612,,,,,,,,,,,,,,,,,146,W,circle,1,0,,,,,,,,,,,,,,,,repeat,number,numRpt,d,0.6209,noRew,,,,,,0,35,0,35,0,1,,,,,,,,,,,,,,,,,
295288,2022-11-21_18h20.57.220,vts_reward_expectancy_bt,2022.2.4,MacIntel,60.0024001,Chrome,1440,900,,,,,0,612,,,,,,,,,,,,,,,,,160,Y,circle,1,0,,,,,,,,,,,,,,,,switch,letter,lettSwt,k,0.6272,noRew,,,,,,0,36,0,36,0,1,,,,,,,,,,,,,,,,,
295288,2022-11-21_18h20.57.220,vts_reward_expectancy_bt,2022.2.4,MacIntel,60.0024001,Chrome,1440,900,,,,,0,612,,,,,,,,,,,,,,,,,139,S,triangle,1,0,,,,,,,,,,,,,,,,repeat,letter,lettRpt,k,0.7609,noRew,,,,,,0,37,0,37,0,1,,,,,,,,,,,,,,,,,
295288,2022-11-21_18h20.57.220,vts_reward_expectancy_bt,2022.2.4,MacIntel,60.0024001,Chrome,1440,900,,,,,0,612,,,,,,,,,,,,,,,,,181,D,star,1,0,,,,,,,,,,,,,,,,switch,number,numSwt,f,0.5632,noRew,,,,,,0,38,0,38,0,1,,,,,,,,,,,,,,,,,
295288,2022-11-21_18h20.57.220,vts_reward_expectancy_bt,2022.2.4,MacIntel,60.0024001,Chrome,1440,900,,,,,0,612,,,,,,,,,,,,,,,,,174,U,hexagon,1,0,,,,,,,,,,,,,,,,repeat,number,numRpt,f,0.7051,noRew,,,,,,0,39,0,39,0,1,,,,,,,,,,,,,,,,,
295288,2022-11-21_18h20.57.220,vts_reward_expectancy_bt,2022.2.4,MacIntel,60.0024001,Chrome,1440,900,,,,,0,612,,,,,,,,,,,,,,,,,181,S,triangle,1,0,,,,,,,,,,,,,,,,switch,letter,lettSwt,k,1.2385,noRew,,,,,,0,40,0,40,0,1,,,,,,,,,,,,,,,,,
295288,2022-11-21_18h20.57.220,vts_reward_expectancy_bt,2022.2.4,MacIntel,60.0024001,Chrome,1440,900,,,,,0,612,,,,,,,,,,,,,,,,,160,U,circle,1,0,,,,,,,,,,,,,,,,repeat,letter,lettRpt,k,0.7191,noRew,,,,,,0,41,0,41,0,1,,,,,,,,,,,,,,,,,
295288,2022-11-21_18h20.57.220,vts_reward_expectancy_bt,2022.2.4,MacIntel,60.0024001,Chrome,1440,900,,,,,0,612,,,,,,,,,,,,,,,,,174,W,star,1,0,,,,,,,,,,,,,,,,switch,number,numSwt,f,0.5908,noRew,,,,,,0,42,0,42,0,1,,,,,,,,,,,,,,,,,
295288,2022-11-21_18h20.57.220,vts_reward_expectancy_bt,2022.2.4,MacIntel,60.0024001,Chrome,1440,900,,,,,0,612,,,,,,,,,,,,,,,,,125,D,circle,1,0,,,,,,,,,,,,,,,,repeat,number,numRpt,d,0.6007,noRew,,,,,,0,43,0,43,0,1,,,,,,,,,,,,,,,,,
295288,2022-11-21_18h20.57.220,vts_reward_expectancy_bt,2022.2.4,MacIntel,60.0024001,Chrome,1440,900,,,,,0,612,,,,,,,,,,,,,,,,,167,U,hexagon,1,0,,,,,,,,,,,,,,,,switch,letter,lettSwt,k,1.0397,noRew,,,,,,0,44,0,44,0,1,,,,,,,,,,,,,,,,,
295288,2022-11-21_18h20.57.220,vts_reward_expectancy_bt,2022.2.4,MacIntel,60.0024001,Chrome,1440,900,,,,,0,612,,,,,,,,,,,,,,,,,160,Y,circle,1,0,,,,,,,,,,,,,,,,repeat,letter,lettRpt,k,0.5365,noRew,,,,,,0,45,0,45,0,1,,,,,,,,,,,,,,,,,
295288,2022-11-21_18h20.57.220,vts_reward_expectancy_bt,2022.2.4,MacIntel,60.0024001,Chrome,1440,900,,,,,0,612,,,,,,,,,,,,,,,,,181,W,triangle,1,0,,,,,,,,,,,,,,,,switch,number,numSwt,f,0.609,noRew,,,,,,0,46,0,46,0,1,,,,,,,,,,,,,,,,,
295288,2022-11-21_18h20.57.220,vts_reward_expectancy_bt,2022.2.4,MacIntel,60.0024001,Chrome,1440,900,,,,,0,612,,,,,,,,,,,,,,,,,125,H,hexagon,1,0,,,,,,,,,,,,,,,,repeat,number,numRpt,d,0.4821,noRew,,,,,,0,47,0,47,0,1,,,,,,,,,,,,,,,,,
295288,2022-11-21_18h20.57.220,vts_reward_expectancy_bt,2022.2.4,MacIntel,60.0024001,Chrome,1440,900,,,,,0,612,,,,,,,,,,,,,,,,,181,B,hexagon,1,0,,,,,,,,,,,,,,,,switch,letter,lettSwt,j,0.9119,noRew,,,,,,0,48,0,48,0,1,,,,,,,,,,,,,,,,,
295288,2022-11-21_18h20.57.220,vts_reward_expectancy_bt,2022.2.4,MacIntel,60.0024001,Chrome,1440,900,,,,,0,612,,,,,,,,,,,,,,,,,146,D,circle,1,0,,,,,,,,,,,,,,,,repeat,letter,lettRpt,j,0.7499,noRew,,,,,,0,49,0,49,0,1,,,,,,,,,,,,,,,,,
295288,2022-11-21_18h20.57.220,vts_reward_expectancy_bt,2022.2.4,MacIntel,60.0024001,Chrome,1440,900,,,,,0,612,,,,,,,,,,,,,,,,,132,W,hexagon,1,0,,,,,,,,,,,,,,,,switch,number,numSwt,d,1.278,noRew,,,,,,0,50,0,50,0,1,,,,,,,,,,,,,,,,,
295288,2022-11-21_18h20.57.220,vts_reward_expectancy_bt,2022.2.4,MacIntel,60.0024001,Chrome,1440,900,,,,,0,612,,,,,,,,,,,,,,,,,125,F,triangle,1,0,,,,,,,,,,,,,,,,repeat,number,numRpt,d,0.5447,noRew,,,,,,0,51,0,51,0,1,,,,,,,,,,,,,,,,,
295288,2022-11-21_18h20.57.220,vts_reward_expectancy_bt,2022.2.4,MacIntel,60.0024001,Chrome,1440,900,,,,,0,612,,,,,,,,,,,,,,,,,125,B,circle,1,0,,,,,,,,,,,,,,,,switch,letter,lettSwt,j,1.2753,noRew,,,,,,0,52,0,52,0,1,,,,,,,,,,,,,,,,,
295288,2022-11-21_18h20.57.220,vts_reward_expectancy_bt,2022.2.4,MacIntel,60.0024001,Chrome,1440,900,,,,,0,612,,,,,,,,,,,,,,,,,132,D,hexagon,1,0,,,,,,,,,,,,,,,,repeat,letter,lettRpt,j,1.2163,noRew,,,,,,0,53,0,53,0,1,,,,,,,,,,,,,,,,,
295288,2022-11-21_18h20.57.220,vts_reward_expectancy_bt,2022.2.4,MacIntel,60.0024001,Chrome,1440,900,,,,,0,612,,,,,,,,,,,,,,,,,181,H,hexagon,1,0,,,,,,,,,,,,,,,,switch,number,numSwt,f,1.0954,noRew,,,,,,0,54,0,54,0,1,,,,,,,,,,,,,,,,,
295288,2022-11-21_18h20.57.220,vts_reward_expectancy_bt,2022.2.4,MacIntel,60.0024001,Chrome,1440,900,,,,,0,612,,,,,,,,,,,,,,,,,160,S,circle,1,0,,,,,,,,,,,,,,,,repeat,number,numRpt,f,0.5787,noRew,,,,,,0,55,0,55,0,1,,,,,,,,,,,,,,,,,
295288,2022-11-21_18h20.57.220,vts_reward_expectancy_bt,2022.2.4,MacIntel,60.0024001,Chrome,1440,900,,,,,0,612,,,,,,,,,,,,,,,,,174,H,circle,1,0,,,,,,,,,,,,,,,,switch,letter,lettSwt,j,1.0216,noRew,,,,,,0,56,0,56,0,1,,,,,,,,,,,,,,,,,
295288,2022-11-21_18h20.57.220,vts_reward_expectancy_bt,2022.2.4,MacIntel,60.0024001,Chrome,1440,900,,,,,0,612,,,,,,,,,,,,,,,,,125,S,star,1,0,,,,,,,,,,,,,,,,repeat,letter,lettRpt,k,0.9252,noRew,,,,,,0,57,0,57,0,1,,,,,,,,,,,,,,,,,
295288,2022-11-21_18h20.57.220,vts_reward_expectancy_bt,2022.2.4,MacIntel,60.0024001,Chrome,1440,900,,,,,0,612,,,,,,,,,,,,,,,,,146,F,circle,1,0,,,,,,,,,,,,,,,,repeat,letter,lettRpt,j,0.8615,noRew,,,,,,0,58,0,58,0,1,,,,,,,,,,,,,,,,,
295288,2022-11-21_18h20.57.220,vts_reward_expectancy_bt,2022.2.4,MacIntel,60.0024001,Chrome,1440,900,,,,,0,612,,,,,,,,,,,,,,,,,139,Y,star,1,0,,,,,,,,,,,,,,,,switch,number,numSwt,d,0.6954,noRew,,,,,,0,59,0,59,0,1,,,,,,,,,,,,,,,,,
295288,2022-11-21_18h20.57.220,vts_reward_expectancy_bt,2022.2.4,MacIntel,60.0024001,Chrome,1440,900,,,,,0,612,,,,,,,,,,,,,,,,,174,H,hexagon,1,0,,,,,,,,,,,,,,,,repeat,number,numRpt,f,0.4835,noRew,,,,,,0,60,0,60,0,1,,,,,,,,,,,,,,,,,
295288,2022-11-21_18h20.57.220,vts_reward_expectancy_bt,2022.2.4,MacIntel,60.0024001,Chrome,1440,900,,,,,0,612,,,,,,,,,,,,,,,,,125,S,star,1,0,,,,,,,,,,,,,,,,switch,letter,lettSwt,k,1.142,noRew,,,,,,0,61,0,61,0,1,,,,,,,,,,,,,,,,,
295288,2022-11-21_18h20.57.220,vts_reward_expectancy_bt,2022.2.4,MacIntel,60.0024001,Chrome,1440,900,,,,,0,612,,,,,,,,,,,,,,,,,181,B,hexagon,1,0,,,,,,,,,,,,,,,,repeat,letter,lettRpt,j,0.5936,noRew,,,,,,0,62,0,62,0,1,,,,,,,,,,,,,,,,,
295288,2022-11-21_18h20.57.220,vts_reward_expectancy_bt,2022.2.4,MacIntel,60.0024001,Chrome,1440,900,,,,,0,612,,,,,,,,,,,,,,,,,160,Y,circle,1,0,,,,,,,,,,,,,,,,switch,number,numSwt,f,0.5048,noRew,,,,,,0,63,0,63,0,1,,,,,,,,,,,,,,,,,
295288,2022-11-21_18h20.57.220,vts_reward_expectancy_bt,2022.2.4,MacIntel,60.0024001,Chrome,1440,900,,,,,,,,,,,,,,,,,,,,,,,,,,,,,,,,,,,,,,,,,,,,,,,,,,,,,,,,,,,,,,,,,,,,,,,,,,,,
295288,2022-11-21_18h20.57.220,vts_reward_expectancy_bt,2022.2.4,MacIntel,60.0024001,Chrome,1440,900,,,,,1,613,,,,,,,,,,,,,,,,,167,D,triangle,1,0,,,,,,,,,,,,,,,,repeat,number,numRpt,f,1.3475,Lo,,,,,,0,,,,,,space,7.2125,low,0,0,0,0,1,,,,,,,,,
295288,2022-11-21_18h20.57.220,vts_reward_expectancy_bt,2022.2.4,MacIntel,60.0024001,Chrome,1440,900,,,,,0,613,,,,,,,,,,,,,,,,,125,S,circle,1,0,,,,,,,,,,,,,,,,repeat,number,numRpt,d,0.7629,Hi,,,,,,0,,,,,,,,low,1,0,1,0,1,,,,,,,,,
295288,2022-11-21_18h20.57.220,vts_reward_expectancy_bt,2022.2.4,MacIntel,60.0024001,Chrome,1440,900,,,,,0,613,,,,,,,,,,,,,,,,,139,H,hexagon,1,0,,,,,,,,,,,,,,,,switch,letter,lettSwt,j,0.8147,Hi,,,,,,0,,,,,,,,low,2,0,2,0,1,,,,,,,,,
295288,2022-11-21_18h20.57.220,vts_reward_expectancy_bt,2022.2.4,MacIntel,60.0024001,Chrome,1440,900,,,,,1,614,,,,,,,,,,,,,,,,,160,W,star,1,0,,,,,,,,,,,,,,,,repeat,letter,lettRpt,k,0.5349,Lo,,,,,,0,,,,,,,,low,3,0,3,0,1,,,,,,,,,
295288,2022-11-21_18h20.57.220,vts_reward_expectancy_bt,2022.2.4,MacIntel,60.0024001,Chrome,1440,900,,,,,1,615,,,,,,,,,,,,,,,,,181,F,triangle,1,0,,,,,,,,,,,,,,,,switch,number,numSwt,f,0.5191,Lo,,,,,,0,,,,,,,,low,4,0,4,0,1,,,,,,,,,
295288,2022-11-21_18h20.57.220,vts_reward_expectancy_bt,2022.2.4,MacIntel,60.0024001,Chrome,1440,900,,,,,0,615,,,,,,,,,,,,,,,,,132,Y,circle,1,0,,,,,,,,,,,,,,,,repeat,number,numRpt,d,0.5909,Hi,,,,,,0,,,,,,,,low,5,0,5,0,1,,,,,,,,,
295288,2022-11-21_18h20.57.220,vts_reward_expectancy_bt,2022.2.4,MacIntel,60.0024001,Chrome,1440,900,,,,,10,625,,,,,,,,,,,,,,,,,146,U,hexagon,1,0,,,,,,,,,,,,,,,,switch,letter,lettSwt,k,0.4952,Hi,,,,,,0,,,,,,,,low,6,0,6,0,1,,,,,,,,,
295288,2022-11-21_18h20.57.220,vts_reward_expectancy_bt,2022.2.4,MacIntel,60.0024001,Chrome,1440,900,,,,,1,626,,,,,,,,,,,,,,,,,174,B,star,1,0,,,,,,,,,,,,,,,,repeat,letter,lettRpt,j,0.4084,Lo,,,,,,0,,,,,,,,low,7,0,7,0,1,,,,,,,,,
295288,2022-11-21_18h20.57.220,vts_reward_expectancy_bt,2022.2.4,MacIntel,60.0024001,Chrome,1440,900,,,,,10,636,,,,,,,,,,,,,,,,,167,D,triangle,1,0,,,,,,,,,,,,,,,,repeat,letter,lettRpt,j,0.5708,Lo,,,,,,0,,,,,,,,low,8,0,8,0,1,,,,,,,,,
295288,2022-11-21_18h20.57.220,vts_reward_expectancy_bt,2022.2.4,MacIntel,60.0024001,Chrome,1440,900,,,,,1,637,,,,,,,,,,,,,,,,,125,S,star,1,0,,,,,,,,,,,,,,,,switch,number,numSwt,d,0.442,Lo,,,,,,0,,,,,,,,low,9,0,9,0,1,,,,,,,,,
295288,2022-11-21_18h20.57.220,vts_reward_expectancy_bt,2022.2.4,MacIntel,60.0024001,Chrome,1440,900,,,,,1,638,,,,,,,,,,,,,,,,,139,H,circle,1,0,,,,,,,,,,,,,,,,repeat,number,numRpt,d,0.4832,Hi,,,,,,0,,,,,,,,low,10,0,10,0,1,,,,,,,,,
295288,2022-11-21_18h20.57.220,vts_reward_expectancy_bt,2022.2.4,MacIntel,60.0024001,Chrome,1440,900,,,,,10,648,,,,,,,,,,,,,,,,,160,W,hexagon,1,0,,,,,,,,,,,,,,,,repeat,number,numRpt,f,0.5561,Hi,,,,,,0,,,,,,,,low,11,0,11,0,1,,,,,,,,,
295288,2022-11-21_18h20.57.220,vts_reward_expectancy_bt,2022.2.4,MacIntel,60.0024001,Chrome,1440,900,,,,,1,649,,,,,,,,,,,,,,,,,181,F,hexagon,1,0,,,,,,,,,,,,,,,,switch,letter,lettSwt,j,0.5959,Hi,,,,,,0,,,,,,,,low,12,0,12,0,1,,,,,,,,,
295288,2022-11-21_18h20.57.220,vts_reward_expectancy_bt,2022.2.4,MacIntel,60.0024001,Chrome,1440,900,,,,,0,649,,,,,,,,,,,,,,,,,132,Y,circle,1,0,,,,,,,,,,,,,,,,repeat,letter,lettRpt,k,0.6382,Hi,,,,,,0,,,,,,,,low,13,0,13,0,1,,,,,,,,,
295288,2022-11-21_18h20.57.220,vts_reward_expectancy_bt,2022.2.4,MacIntel,60.0024001,Chrome,1440,900,,,,,1,650,,,,,,,,,,,,,,,,,146,U,star,1,0,,,,,,,,,,,,,,,,repeat,letter,lettRpt,k,0.7795,Lo,,,,,,0,,,,,,,,low,14,0,14,0,1,,,,,,,,,
295288,2022-11-21_18h20.57.220,vts_reward_expectancy_bt,2022.2.4,MacIntel,60.0024001,Chrome,1440,900,,,,,10,660,,,,,,,,,,,,,,,,,174,B,triangle,1,0,,,,,,,,,,,,,,,,switch,number,numSwt,f,0.4606,Lo,,,,,,0,,,,,,,,low,15,0,15,0,1,,,,,,,,,
295288,2022-11-21_18h20.57.220,vts_reward_expectancy_bt,2022.2.4,MacIntel,60.0024001,Chrome,1440,900,,,,,0,660,,,,,,,,,,,,,,,,,132,Y,hexagon,1,0,,,,,,,,,,,,,,,,repeat,number,numRpt,d,0.5933,Hi,,,,,,0,,,,,,,,low,16,0,16,0,1,,,,,,,,,
295288,2022-11-21_18h20.57.220,vts_reward_expectancy_bt,2022.2.4,MacIntel,60.0024001,Chrome,1440,900,,,,,0,660,,,,,,,,,,,,,,,,,146,H,circle,0,0,,,,,,,,,,,,,,,,repeat,number,NA,f,0.378,Hi,,,,,,0,,,,,,,,low,17,0,17,0,1,,,,,,,,,
295288,2022-11-21_18h20.57.220,vts_reward_expectancy_bt,2022.2.4,MacIntel,60.0024001,Chrome,1440,900,,,,,1,661,,,,,,,,,,,,,,,,,125,D,triangle,1,1,,,,,,,,,,,,,,,,repeat,number,numRpt,d,0.4971,Lo,,,,,,0,,,,,,,,low,18,0,18,0,1,,,,,,,,,
295288,2022-11-21_18h20.57.220,vts_reward_expectancy_bt,2022.2.4,MacIntel,60.0024001,Chrome,1440,900,,,,,10,671,,,,,,,,,,,,,,,,,160,F,star,1,0,,,,,,,,,,,,,,,,switch,letter,lettSwt,j,0.763,Lo,,,,,,0,,,,,,,,low,19,0,19,0,1,,,,,,,,,
295288,2022-11-21_18h20.57.220,vts_reward_expectancy_bt,2022.2.4,MacIntel,60.0024001,Chrome,1440,900,,,,,1,672,,,,,,,,,,,,,,,,,139,U,star,1,0,,,,,,,,,,,,,,,,repeat,letter,lettRpt,k,0.5387,Lo,,,,,,0,,,,,,,,low,20,0,20,0,1,,,,,,,,,
295288,2022-11-21_18h20.57.220,vts_reward_expectancy_bt,2022.2.4,MacIntel,60.0024001,Chrome,1440,900,,,,,10,682,,,,,,,,,,,,,,,,,167,W,circle,1,0,,,,,,,,,,,,,,,,repeat,letter,lettRpt,k,0.5749,Hi,,,,,,0,,,,,,,,low,21,0,21,0,1,,,,,,,,,
295288,2022-11-21_18h20.57.220,vts_reward_expectancy_bt,2022.2.4,MacIntel,60.0024001,Chrome,1440,900,,,,,0,682,,,,,,,,,,,,,,,,,174,B,hexagon,1,0,,,,,,,,,,,,,,,,switch,number,numSwt,f,0.6973,Hi,,,,,,0,,,,,,,,low,22,0,22,0,1,,,,,,,,,
295288,2022-11-21_18h20.57.220,vts_reward_expectancy_bt,2022.2.4,MacIntel,60.0024001,Chrome,1440,900,,,,,1,683,,,,,,,,,,,,,,,,,181,S,triangle,1,0,,,,,,,,,,,,,,,,repeat,number,numRpt,f,0.533,Lo,,,,,,0,,,,,,,,low,23,0,23,0,1,,,,,,,,,
295288,2022-11-21_18h20.57.220,vts_reward_expectancy_bt,2022.2.4,MacIntel,60.0024001,Chrome,1440,900,,,,,1,684,,,,,,,,,,,,,,,,,139,B,star,1,0,,,,,,,,,,,,,,,,repeat,number,numRpt,d,0.4919,Lo,,,,,,0,,,,,,,,low,24,0,24,0,1,,,,,,,,,
295288,2022-11-21_18h20.57.220,vts_reward_expectancy_bt,2022.2.4,MacIntel,60.0024001,Chrome,1440,900,,,,,10,694,,,,,,,,,,,,,,,,,125,F,circle,1,0,,,,,,,,,,,,,,,,switch,letter,lettSwt,j,0.6754,Hi,,,,,,0,,,,,,,,low,25,0,25,0,1,,,,,,,,,
295288,2022-11-21_18h20.57.220,vts_reward_expectancy_bt,2022.2.4,MacIntel,60.0024001,Chrome,1440,900,,,,,10,704,,,,,,,,,,,,,,,,,160,H,triangle,1,0,,,,,,,,,,,,,,,,repeat,letter,lettRpt,j,0.6465,Lo,,,,,,0,,,,,,,,low,26,0,26,0,1,,,,,,,,,
295288,2022-11-21_18h20.57.220,vts_reward_expectancy_bt,2022.2.4,MacIntel,60.0024001,Chrome,1440,900,,,,,0,704,,,,,,,,,,,,,,,,,146,U,hexagon,1,0,,,,,,,,,,,,,,,,repeat,letter,lettRpt,k,0.6517,Hi,,,,,,0,,,,,,,,low,27,0,27,0,1,,,,,,,,,
295288,2022-11-21_18h20.57.220,vts_reward_expectancy_bt,2022.2.4,MacIntel,60.0024001,Chrome,1440,900,,,,,0,704,,,,,,,,,,,,,,,,,174,D,circle,0,0,,,,,,,,,,,,,,,,switch,number,NA,d,0.8367,Hi,,,,,,0,,,,,,,,low,28,0,28,0,1,,,,,,,,,
295288,2022-11-21_18h20.57.220,vts_reward_expectancy_bt,2022.2.4,MacIntel,60.0024001,Chrome,1440,900,,,,,1,705,,,,,,,,,,,,,,,,,132,S,hexagon,1,1,,,,,,,,,,,,,,,,repeat,number,numRpt,d,0.4397,Hi,,,,,,0,,,,,,,,low,29,0,29,0,1,,,,,,,,,
295288,2022-11-21_18h20.57.220,vts_reward_expectancy_bt,2022.2.4,MacIntel,60.0024001,Chrome,1440,900,,,,,1,706,,,,,,,,,,,,,,,,,167,W,star,1,0,,,,,,,,,,,,,,,,repeat,number,numRpt,f,0.4415,Lo,,,,,,0,,,,,,,,low,30,0,30,0,1,,,,,,,,,
295288,2022-11-21_18h20.57.220,vts_reward_expectancy_bt,2022.2.4,MacIntel,60.0024001,Chrome,1440,900,,,,,1,707,,,,,,,,,,,,,,,,,181,Y,triangle,1,0,,,,,,,,,,,,,,,,switch,letter,lettSwt,k,0.4943,Lo,,,,,,0,,,,,,,,low,31,0,31,0,1,,,,,,,,,
295288,2022-11-21_18h20.57.220,vts_reward_expectancy_bt,2022.2.4,MacIntel,60.0024001,Chrome,1440,900,,,,,10,717,,,,,,,,,,,,,,,,,160,B,star,1,0,,,,,,,,,,,,,,,,switch,number,numSwt,f,0.548,Lo,,,,,,1,,,,,,space,8.6612,low,0,0,0,0,1,,,,,,,,,
295288,2022-11-21_18h20.57.220,vts_reward_expectancy_bt,2022.2.4,MacIntel,60.0024001,Chrome,1440,900,,,,,10,727,,,,,,,,,,,,,,,,,139,F,hexagon,1,0,,,,,,,,,,,,,,,,repeat,number,numRpt,d,0.4227,Hi,,,,,,1,,,,,,,,low,1,0,1,0,1,,,,,,,,,
295288,2022-11-21_18h20.57.220,vts_reward_expectancy_bt,2022.2.4,MacIntel,60.0024001,Chrome,1440,900,,,,,1,728,,,,,,,,,,,,,,,,,125,W,triangle,1,0,,,,,,,,,,,,,,,,repeat,number,numRpt,d,0.493,Lo,,,,,,1,,,,,,,,low,2,0,2,0,1,,,,,,,,,
295288,2022-11-21_18h20.57.220,vts_reward_expectancy_bt,2022.2.4,MacIntel,60.0024001,Chrome,1440,900,,,,,10,738,,,,,,,,,,,,,,,,,174,H,circle,1,0,,,,,,,,,,,,,,,,switch,letter,lettSwt,j,0.4067,Hi,,,,,,1,,,,,,,,low,3,0,3,0,1,,,,,,,,,
295288,2022-11-21_18h20.57.220,vts_reward_expectancy_bt,2022.2.4,MacIntel,60.0024001,Chrome,1440,900,,,,,1,739,,,,,,,,,,,,,,,,,132,U,star,1,0,,,,,,,,,,,,,,,,repeat,letter,lettRpt,k,0.6427,Lo,,,,,,1,,,,,,,,low,4,0,4,0,1,,,,,,,,,
295288,2022-11-21_18h20.57.220,vts_reward_expectancy_bt,2022.2.4,MacIntel,60.0024001,Chrome,1440,900,,,,,0,739,,,,,,,,,,,,,,,,,146,S,hexagon,1,0,,,,,,,,,,,,,,,,repeat,letter,lettRpt,k,0.695,Hi,,,,,,1,,,,,,,,low,5,0,5,0,1,,,,,,,,,
295288,2022-11-21_18h20.57.220,vts_reward_expectancy_bt,2022.2.4,MacIntel,60.0024001,Chrome,1440,900,,,,,10,749,,,,,,,,,,,,,,,,,167,Y,triangle,1,0,,,,,,,,,,,,,,,,switch,number,numSwt,f,0.6853,Lo,,,,,,1,,,,,,,,low,6,0,6,0,1,,,,,,,,,
295288,2022-11-21_18h20.57.220,vts_reward_expectancy_bt,2022.2.4,MacIntel,60.0024001,Chrome,1440,900,,,,,0,749,,,,,,,,,,,,,,,,,181,D,circle,1,0,,,,,,,,,,,,,,,,repeat,number,numRpt,f,0.5055,Hi,,,,,,1,,,,,,,,low,7,0,7,0,1,,,,,,,,,
295288,2022-11-21_18h20.57.220,vts_reward_expectancy_bt,2022.2.4,MacIntel,60.0024001,Chrome,1440,900,,,,,1,750,,,,,,,,,,,,,,,,,160,B,triangle,1,0,,,,,,,,,,,,,,,,repeat,number,numRpt,f,0.5142,Lo,,,,,,1,,,,,,,,low,8,0,8,0,1,,,,,,,,,
295288,2022-11-21_18h20.57.220,vts_reward_expectancy_bt,2022.2.4,MacIntel,60.0024001,Chrome,1440,900,,,,,0,750,,,,,,,,,,,,,,,,,139,F,circle,1,0,,,,,,,,,,,,,,,,switch,letter,lettSwt,j,0.6265,Hi,,,,,,1,,,,,,,,low,9,0,9,0,1,,,,,,,,,
295288,2022-11-21_18h20.57.220,vts_reward_expectancy_bt,2022.2.4,MacIntel,60.0024001,Chrome,1440,900,,,,,10,760,,,,,,,,,,,,,,,,,125,W,star,1,0,,,,,,,,,,,,,,,,repeat,letter,lettRpt,k,0.4868,Lo,,,,,,1,,,,,,,,low,10,0,10,0,1,,,,,,,,,
295288,2022-11-21_18h20.57.220,vts_reward_expectancy_bt,2022.2.4,MacIntel,60.0024001,Chrome,1440,900,,,,,1,761,,,,,,,,,,,,,,,,,174,H,hexagon,1,0,,,,,,,,,,,,,,,,repeat,letter,lettRpt,j,0.461,Hi,,,,,,1,,,,,,,,low,11,0,11,0,1,,,,,,,,,
295288,2022-11-21_18h20.57.220,vts_reward_expectancy_bt,2022.2.4,MacIntel,60.0024001,Chrome,1440,900,,,,,0,761,,,,,,,,,,,,,,,,,132,U,circle,1,0,,,,,,,,,,,,,,,,switch,number,numSwt,d,0.7581,Hi,,,,,,1,,,,,,,,low,12,0,12,0,1,,,,,,,,,
295288,2022-11-21_18h20.57.220,vts_reward_expectancy_bt,2022.2.4,MacIntel,60.0024001,Chrome,1440,900,,,,,0,761,,,,,,,,,,,,,,,,,146,S,hexagon,1,0,,,,,,,,,,,,,,,,repeat,number,numRpt,d,0.7504,Hi,,,,,,1,,,,,,,,low,13,0,13,0,1,,,,,,,,,
295288,2022-11-21_18h20.57.220,vts_reward_expectancy_bt,2022.2.4,MacIntel,60.0024001,Chrome,1440,900,,,,,10,771,,,,,,,,,,,,,,,,,167,Y,star,1,0,,,,,,,,,,,,,,,,repeat,number,numRpt,f,0.4012,Lo,,,,,,1,,,,,,,,low,14,0,14,0,1,,,,,,,,,
295288,2022-11-21_18h20.57.220,vts_reward_expectancy_bt,2022.2.4,MacIntel,60.0024001,Chrome,1440,900,,,,,1,772,,,,,,,,,,,,,,,,,181,D,triangle,1,0,,,,,,,,,,,,,,,,switch,letter,lettSwt,j,0.5785,Lo,,,,,,1,,,,,,,,low,15,0,15,0,1,,,,,,,,,
295288,2022-11-21_18h20.57.220,vts_reward_expectancy_bt,2022.2.4,MacIntel,60.0024001,Chrome,1440,900,,,,,1,773,,,,,,,,,,,,,,,,,160,Y,star,1,0,,,,,,,,,,,,,,,,repeat,letter,lettRpt,k,0.4846,Lo,,,,,,1,,,,,,,,low,16,0,16,0,1,,,,,,,,,
295288,2022-11-21_18h20.57.220,vts_reward_expectancy_bt,2022.2.4,MacIntel,60.0024001,Chrome,1440,900,,,,,0,773,,,,,,,,,,,,,,,,,132,U,circle,1,0,,,,,,,,,,,,,,,,repeat,letter,lettRpt,k,0.7784,Hi,,,,,,1,,,,,,,,low,17,0,17,0,1,,,,,,,,,
295288,2022-11-21_18h20.57.220,vts_reward_expectancy_bt,2022.2.4,MacIntel,60.0024001,Chrome,1440,900,,,,,0,773,,,,,,,,,,,,,,,,,146,F,hexagon,1,0,,,,,,,,,,,,,,,,switch,number,numSwt,d,0.5576,Hi,,,,,,1,,,,,,,,low,18,0,18,0,1,,,,,,,,,
295288,2022-11-21_18h20.57.220,vts_reward_expectancy_bt,2022.2.4,MacIntel,60.0024001,Chrome,1440,900,,,,,10,783,,,,,,,,,,,,,,,,,167,D,triangle,1,0,,,,,,,,,,,,,,,,repeat,number,numRpt,f,0.4031,Lo,,,,,,1,,,,,,,,low,19,0,19,0,1,,,,,,,,,
295288,2022-11-21_18h20.57.220,vts_reward_expectancy_bt,2022.2.4,MacIntel,60.0024001,Chrome,1440,900,,,,,0,783,,,,,,,,,,,,,,,,,174,B,circle,1,0,,,,,,,,,,,,,,,,repeat,number,numRpt,f,0.4949,Hi,,,,,,1,,,,,,,,low,20,0,20,0,1,,,,,,,,,
295288,2022-11-21_18h20.57.220,vts_reward_expectancy_bt,2022.2.4,MacIntel,60.0024001,Chrome,1440,900,,,,,10,793,,,,,,,,,,,,,,,,,125,H,triangle,1,0,,,,,,,,,,,,,,,,switch,letter,lettSwt,j,0.4751,Lo,,,,,,1,,,,,,,,low,21,0,21,0,1,,,,,,,,,
295288,2022-11-21_18h20.57.220,vts_reward_expectancy_bt,2022.2.4,MacIntel,60.0024001,Chrome,1440,900,,,,,1,794,,,,,,,,,,,,,,,,,181,S,star,1,0,,,,,,,,,,,,,,,,repeat,letter,lettRpt,k,0.5499,Lo,,,,,,1,,,,,,,,low,22,0,22,0,1,,,,,,,,,
295288,2022-11-21_18h20.57.220,vts_reward_expectancy_bt,2022.2.4,MacIntel,60.0024001,Chrome,1440,900,,,,,1,795,,,,,,,,,,,,,,,,,139,W,hexagon,1,0,,,,,,,,,,,,,,,,repeat,letter,lettRpt,k,0.4973,Hi,,,,,,1,,,,,,,,low,23,0,23,0,1,,,,,,,,,
295288,2022-11-21_18h20.57.220,vts_reward_expectancy_bt,2022.2.4,MacIntel,60.0024001,Chrome,1440,900,,,,,0,795,,,,,,,,,,,,,,,,,146,Y,hexagon,1,0,,,,,,,,,,,,,,,,switch,number,numSwt,d,0.6671,Hi,,,,,,1,,,,,,,,low,24,0,24,0,1,,,,,,,,,
295288,2022-11-21_18h20.57.220,vts_reward_expectancy_bt,2022.2.4,MacIntel,60.0024001,Chrome,1440,900,,,,,1,796,,,,,,,,,,,,,,,,,132,W,triangle,1,0,,,,,,,,,,,,,,,,repeat,number,numRpt,d,0.545,Lo,,,,,,1,,,,,,,,low,25,0,25,0,1,,,,,,,,,
295288,2022-11-21_18h20.57.220,vts_reward_expectancy_bt,2022.2.4,MacIntel,60.0024001,Chrome,1440,900,,,,,1,797,,,,,,,,,,,,,,,,,167,U,star,1,0,,,,,,,,,,,,,,,,repeat,number,numRpt,f,0.5142,Lo,,,,,,1,,,,,,,,low,26,0,26,0,1,,,,,,,,,
295288,2022-11-21_18h20.57.220,vts_reward_expectancy_bt,2022.2.4,MacIntel,60.0024001,Chrome,1440,900,,,,,0,797,,,,,,,,,,,,,,,,,181,F,circle,1,0,,,,,,,,,,,,,,,,switch,letter,lettSwt,j,0.6499,Hi,,,,,,1,,,,,,,,low,27,0,27,0,1,,,,,,,,,
295288,2022-11-21_18h20.57.220,vts_reward_expectancy_bt,2022.2.4,MacIntel,60.0024001,Chrome,1440,900,,,,,0,797,,,,,,,,,,,,,,,,,174,D,circle,1,0,,,,,,,,,,,,,,,,repeat,letter,lettRpt,j,0.6079,Hi,,,,,,1,,,,,,,,low,28,0,28,0,1,,,,,,,,,
295288,2022-11-21_18h20.57.220,vts_reward_expectancy_bt,2022.2.4,MacIntel,60.0024001,Chrome,1440,900,,,,,1,798,,,,,,,,,,,,,,,,,139,H,triangle,1,0,,,,,,,,,,,,,,,,repeat,letter,lettRpt,j,0.7239,Lo,,,,,,1,,,,,,,,low,29,0,29,0,1,,,,,,,,,
295288,2022-11-21_18h20.57.220,vts_reward_expectancy_bt,2022.2.4,MacIntel,60.0024001,Chrome,1440,900,,,,,0,798,,,,,,,,,,,,,,,,,160,B,hexagon,1,0,,,,,,,,,,,,,,,,switch,number,numSwt,f,0.5012,Hi,,,,,,1,,,,,,,,low,30,0,30,0,1,,,,,,,,,
295288,2022-11-21_18h20.57.220,vts_reward_expectancy_bt,2022.2.4,MacIntel,60.0024001,Chrome,1440,900,,,,,1,799,,,,,,,,,,,,,,,,,125,S,star,1,0,,,,,,,,,,,,,,,,repeat,number,numRpt,d,0.4348,Lo,,,,,,1,,,,,,,,low,31,0,31,0,1,,,,,,,,,
295288,2022-11-21_18h20.57.220,vts_reward_expectancy_bt,2022.2.4,MacIntel,60.0024001,Chrome,1440,900,,,,,0,799,,,,,,,,,,,,,,,,,167,F,circle,1,0,,,,,,,,,,,,,,,,switch,letter,lettSwt,j,0.6672,Hi,,,,,,2,,,,,,space,4.4044,low,0,0,0,0,1,,,,,,,,,
295288,2022-11-21_18h20.57.220,vts_reward_expectancy_bt,2022.2.4,MacIntel,60.0024001,Chrome,1440,900,,,,,1,800,,,,,,,,,,,,,,,,,132,S,star,1,0,,,,,,,,,,,,,,,,repeat,letter,lettRpt,k,0.6638,Lo,,,,,,2,,,,,,,,low,1,0,1,0,1,,,,,,,,,
295288,2022-11-21_18h20.57.220,vts_reward_expectancy_bt,2022.2.4,MacIntel,60.0024001,Chrome,1440,900,,,,,0,800,,,,,,,,,,,,,,,,,139,H,hexagon,1,0,,,,,,,,,,,,,,,,repeat,letter,lettRpt,j,0.6628,Hi,,,,,,2,,,,,,,,low,2,0,2,0,1,,,,,,,,,
295288,2022-11-21_18h20.57.220,vts_reward_expectancy_bt,2022.2.4,MacIntel,60.0024001,Chrome,1440,900,,,,,1,801,,,,,,,,,,,,,,,,,146,D,triangle,1,0,,,,,,,,,,,,,,,,switch,number,numSwt,d,0.5776,Lo,,,,,,2,,,,,,,,low,3,0,3,0,1,,,,,,,,,
295288,2022-11-21_18h20.57.220,vts_reward_expectancy_bt,2022.2.4,MacIntel,60.0024001,Chrome,1440,900,,,,,1,802,,,,,,,,,,,,,,,,,174,B,circle,1,0,,,,,,,,,,,,,,,,repeat,number,numRpt,f,0.4133,Hi,,,,,,2,,,,,,,,low,4,0,4,0,1,,,,,,,,,
295288,2022-11-21_18h20.57.220,vts_reward_expectancy_bt,2022.2.4,MacIntel,60.0024001,Chrome,1440,900,,,,,10,812,,,,,,,,,,,,,,,,,125,W,star,1,0,,,,,,,,,,,,,,,,repeat,number,numRpt,d,0.4136,Lo,,,,,,2,,,,,,,,low,5,0,5,0,1,,,,,,,,,
295288,2022-11-21_18h20.57.220,vts_reward_expectancy_bt,2022.2.4,MacIntel,60.0024001,Chrome,1440,900,,,,,0,812,,,,,,,,,,,,,,,,,181,Y,hexagon,1,0,,,,,,,,,,,,,,,,switch,letter,lettSwt,k,0.7049,Hi,,,,,,2,,,,,,,,low,6,0,6,0,1,,,,,,,,,
295288,2022-11-21_18h20.57.220,vts_reward_expectancy_bt,2022.2.4,MacIntel,60.0024001,Chrome,1440,900,,,,,10,822,,,,,,,,,,,,,,,,,160,U,triangle,1,0,,,,,,,,,,,,,,,,repeat,letter,lettRpt,k,0.5102,Lo,,,,,,2,,,,,,,,low,7,0,7,0,1,,,,,,,,,
295288,2022-11-21_18h20.57.220,vts_reward_expectancy_bt,2022.2.4,MacIntel,60.0024001,Chrome,1440,900,,,,,0,822,,,,,,,,,,,,,,,,,167,F,hexagon,1,0,,,,,,,,,,,,,,,,repeat,letter,lettRpt,j,0.566,Hi,,,,,,2,,,,,,,,low,8,0,8,0,1,,,,,,,,,
295288,2022-11-21_18h20.57.220,vts_reward_expectancy_bt,2022.2.4,MacIntel,60.0024001,Chrome,1440,900,,,,,10,832,,,,,,,,,,,,,,,,,132,S,circle,1,0,,,,,,,,,,,,,,,,switch,number,numSwt,d,0.4119,Hi,,,,,,2,,,,,,,,low,9,0,9,0,1,,,,,,,,,
295288,2022-11-21_18h20.57.220,vts_reward_expectancy_bt,2022.2.4,MacIntel,60.0024001,Chrome,1440,900,,,,,1,833,,,,,,,,,,,,,,,,,139,H,star,1,0,,,,,,,,,,,,,,,,repeat,number,numRpt,d,0.5993,Lo,,,,,,2,,,,,,,,low,10,0,10,0,1,,,,,,,,,
295288,2022-11-21_18h20.57.220,vts_reward_expectancy_bt,2022.2.4,MacIntel,60.0024001,Chrome,1440,900,,,,,1,834,,,,,,,,,,,,,,,,,146,D,triangle,1,0,,,,,,,,,,,,,,,,repeat,number,numRpt,d,0.8085,Lo,,,,,,2,,,,,,,,low,11,0,11,0,1,,,,,,,,,
295288,2022-11-21_18h20.57.220,vts_reward_expectancy_bt,2022.2.4,MacIntel,60.0024001,Chrome,1440,900,,,,,1,835,,,,,,,,,,,,,,,,,174,B,star,1,0,,,,,,,,,,,,,,,,switch,letter,lettSwt,j,0.4991,Lo,,,,,,2,,,,,,,,low,12,0,12,0,1,,,,,,,,,
295288,2022-11-21_18h20.57.220,vts_reward_expectancy_bt,2022.2.4,MacIntel,60.0024001,Chrome,1440,900,,,,,0,835,,,,,,,,,,,,,,,,,125,W,circle,1,0,,,,,,,,,,,,,,,,repeat,letter,lettRpt,k,0.5489,Hi,,,,,,2,,,,,,,,low,13,0,13,0,1,,,,,,,,,
295288,2022-11-21_18h20.57.220,vts_reward_expectancy_bt,2022.2.4,MacIntel,60.0024001,Chrome,1440,900,,,,,0,835,,,,,,,,,,,,,,,,,181,Y,hexagon,1,0,,,,,,,,,,,,,,,,switch,number,numSwt,f,0.6838,Hi,,,,,,2,,,,,,,,low,14,0,14,0,1,,,,,,,,,
295288,2022-11-21_18h20.57.220,vts_reward_expectancy_bt,2022.2.4,MacIntel,60.0024001,Chrome,1440,900,,,,,1,836,,,,,,,,,,,,,,,,,160,U,triangle,1,0,,,,,,,,,,,,,,,,repeat,number,numRpt,f,0.8379,Lo,,,,,,2,,,,,,,,low,15,0,15,0,1,,,,,,,,,
295288,2022-11-21_18h20.57.220,vts_reward_expectancy_bt,2022.2.4,MacIntel,60.0024001,Chrome,1440,900,,,,,10,846,,,,,,,,,,,,,,,,,181,F,star,1,0,,,,,,,,,,,,,,,,switch,letter,lettSwt,j,0.4687,Lo,,,,,,2,,,,,,,,low,16,0,16,0,1,,,,,,,,,
295288,2022-11-21_18h20.57.220,vts_reward_expectancy_bt,2022.2.4,MacIntel,60.0024001,Chrome,1440,900,,,,,10,856,,,,,,,,,,,,,,,,,125,D,triangle,1,0,,,,,,,,,,,,,,,,repeat,letter,lettRpt,j,0.5786,Lo,,,,,,2,,,,,,,,low,17,0,17,0,1,,,,,,,,,
295288,2022-11-21_18h20.57.220,vts_reward_expectancy_bt,2022.2.4,MacIntel,60.0024001,Chrome,1440,900,,,,,10,866,,,,,,,,,,,,,,,,,174,B,circle,1,0,,,,,,,,,,,,,,,,switch,number,numSwt,f,0.4446,Hi,,,,,,2,,,,,,,,low,18,0,18,0,1,,,,,,,,,
295288,2022-11-21_18h20.57.220,vts_reward_expectancy_bt,2022.2.4,MacIntel,60.0024001,Chrome,1440,900,,,,,0,866,,,,,,,,,,,,,,,,,132,H,hexagon,1,0,,,,,,,,,,,,,,,,repeat,number,numRpt,d,0.5215,Hi,,,,,,2,,,,,,,,low,19,0,19,0,1,,,,,,,,,
295288,2022-11-21_18h20.57.220,vts_reward_expectancy_bt,2022.2.4,MacIntel,60.0024001,Chrome,1440,900,,,,,1,867,,,,,,,,,,,,,,,,,167,W,triangle,1,0,,,,,,,,,,,,,,,,repeat,number,numRpt,f,0.5909,Lo,,,,,,2,,,,,,,,low,20,0,20,0,1,,,,,,,,,
295288,2022-11-21_18h20.57.220,vts_reward_expectancy_bt,2022.2.4,MacIntel,60.0024001,Chrome,1440,900,,,,,0,867,,,,,,,,,,,,,,,,,160,Y,circle,1,0,,,,,,,,,,,,,,,,switch,letter,lettSwt,k,0.6433,Hi,,,,,,2,,,,,,,,low,21,0,21,0,1,,,,,,,,,
295288,2022-11-21_18h20.57.220,vts_reward_expectancy_bt,2022.2.4,MacIntel,60.0024001,Chrome,1440,900,,,,,1,868,,,,,,,,,,,,,,,,,146,U,star,1,0,,,,,,,,,,,,,,,,repeat,letter,lettRpt,k,0.5431,Lo,,,,,,2,,,,,,,,low,22,0,22,0,1,,,,,,,,,
295288,2022-11-21_18h20.57.220,vts_reward_expectancy_bt,2022.2.4,MacIntel,60.0024001,Chrome,1440,900,,,,,0,868,,,,,,,,,,,,,,,,,139,S,hexagon,1,0,,,,,,,,,,,,,,,,repeat,letter,lettRpt,k,0.6014,Hi,,,,,,2,,,,,,,,low,23,0,23,0,1,,,,,,,,,
295288,2022-11-21_18h20.57.220,vts_reward_expectancy_bt,2022.2.4,MacIntel,60.0024001,Chrome,1440,900,,,,,10,878,,,,,,,,,,,,,,,,,167,B,triangle,1,0,,,,,,,,,,,,,,,,switch,number,numSwt,f,0.5572,Lo,,,,,,2,,,,,,,,low,24,0,24,0,1,,,,,,,,,
295288,2022-11-21_18h20.57.220,vts_reward_expectancy_bt,2022.2.4,MacIntel,60.0024001,Chrome,1440,900,,,,,0,878,,,,,,,,,,,,,,,,,132,W,hexagon,1,0,,,,,,,,,,,,,,,,repeat,number,numRpt,d,0.6236,Hi,,,,,,2,,,,,,,,low,25,0,25,0,1,,,,,,,,,
295288,2022-11-21_18h20.57.220,vts_reward_expectancy_bt,2022.2.4,MacIntel,60.0024001,Chrome,1440,900,,,,,0,878,,,,,,,,,,,,,,,,,139,F,circle,1,0,,,,,,,,,,,,,,,,repeat,number,numRpt,d,0.5088,Hi,,,,,,2,,,,,,,,low,26,0,26,0,1,,,,,,,,,
295288,2022-11-21_18h20.57.220,vts_reward_expectancy_bt,2022.2.4,MacIntel,60.0024001,Chrome,1440,900,,,,,10,888,,,,,,,,,,,,,,,,,174,Y,star,1,0,,,,,,,,,,,,,,,,switch,letter,lettSwt,k,0.5648,Lo,,,,,,2,,,,,,,,low,27,0,27,0,1,,,,,,,,,
295288,2022-11-21_18h20.57.220,vts_reward_expectancy_bt,2022.2.4,MacIntel,60.0024001,Chrome,1440,900,,,,,10,898,,,,,,,,,,,,,,,,,125,S,star,1,0,,,,,,,,,,,,,,,,repeat,letter,lettRpt,k,0.5766,Lo,,,,,,2,,,,,,,,low,28,0,28,0,1,,,,,,,,,
295288,2022-11-21_18h20.57.220,vts_reward_expectancy_bt,2022.2.4,MacIntel,60.0024001,Chrome,1440,900,,,,,10,908,,,,,,,,,,,,,,,,,160,D,circle,1,0,,,,,,,,,,,,,,,,switch,number,numSwt,f,0.4601,Hi,,,,,,2,,,,,,,,low,29,0,29,0,1,,,,,,,,,
295288,2022-11-21_18h20.57.220,vts_reward_expectancy_bt,2022.2.4,MacIntel,60.0024001,Chrome,1440,900,,,,,10,918,,,,,,,,,,,,,,,,,181,H,triangle,1,0,,,,,,,,,,,,,,,,repeat,number,numRpt,f,0.6586,Lo,,,,,,2,,,,,,,,low,30,0,30,0,1,,,,,,,,,
295288,2022-11-21_18h20.57.220,vts_reward_expectancy_bt,2022.2.4,MacIntel,60.0024001,Chrome,1440,900,,,,,1,919,,,,,,,,,,,,,,,,,146,U,hexagon,1,0,,,,,,,,,,,,,,,,switch,letter,lettSwt,k,0.4992,Hi,,,,,,2,,,,,,,,low,31,0,31,0,1,,,,,,,,,
295288,2022-11-21_18h20.57.220,vts_reward_expectancy_bt,2022.2.4,MacIntel,60.0024001,Chrome,1440,900,,,,,1,920,,,,,,,,,,,,,,,,,146,D,triangle,1,0,,,,,,,,,,,,,,,,switch,number,numSwt,d,0.5789,Lo,,,,,,3,,,,,,space,1.3904,low,0,0,0,0,1,,,,,,,,,
295288,2022-11-21_18h20.57.220,vts_reward_expectancy_bt,2022.2.4,MacIntel,60.0024001,Chrome,1440,900,,,,,10,930,,,,,,,,,,,,,,,,,181,Y,circle,1,0,,,,,,,,,,,,,,,,repeat,number,numRpt,f,0.3923,Hi,,,,,,3,,,,,,,,low,1,0,1,0,1,,,,,,,,,
295288,2022-11-21_18h20.57.220,vts_reward_expectancy_bt,2022.2.4,MacIntel,60.0024001,Chrome,1440,900,,,,,10,940,,,,,,,,,,,,,,,,,167,H,star,1,0,,,,,,,,,,,,,,,,switch,letter,lettSwt,j,0.3768,Lo,,,,,,3,,,,,,,,low,2,0,2,0,1,,,,,,,,,
295288,2022-11-21_18h20.57.220,vts_reward_expectancy_bt,2022.2.4,MacIntel,60.0024001,Chrome,1440,900,,,,,1,941,,,,,,,,,,,,,,,,,125,W,hexagon,1,0,,,,,,,,,,,,,,,,repeat,letter,lettRpt,k,0.4599,Hi,,,,,,3,,,,,,,,low,3,0,3,0,1,,,,,,,,,
295288,2022-11-21_18h20.57.220,vts_reward_expectancy_bt,2022.2.4,MacIntel,60.0024001,Chrome,1440,900,,,,,10,951,,,,,,,,,,,,,,,,,132,B,triangle,1,0,,,,,,,,,,,,,,,,switch,number,numSwt,d,0.424,Lo,,,,,,3,,,,,,,,low,4,0,4,0,1,,,,,,,,,
295288,2022-11-21_18h20.57.220,vts_reward_expectancy_bt,2022.2.4,MacIntel,60.0024001,Chrome,1440,900,,,,,10,961,,,,,,,,,,,,,,,,,160,S,circle,1,0,,,,,,,,,,,,,,,,repeat,number,numRpt,f,0.4747,Hi,,,,,,3,,,,,,,,low,5,0,5,0,1,,,,,,,,,
295288,2022-11-21_18h20.57.220,vts_reward_expectancy_bt,2022.2.4,MacIntel,60.0024001,Chrome,1440,900,,,,,0,961,,,,,,,,,,,,,,,,,174,U,star,0,0,,,,,,,,,,,,,,,,switch,letter,NA,j,0.3567,Hi,,,,,,3,,,,,,,,low,6,0,6,0,1,,,,,,,,,
295288,2022-11-21_18h20.57.220,vts_reward_expectancy_bt,2022.2.4,MacIntel,60.0024001,Chrome,1440,900,,,,,10,971,,,,,,,,,,,,,,,,,139,F,hexagon,1,1,,,,,,,,,,,,,,,,repeat,letter,lettRpt,j,0.55,Hi,,,,,,3,,,,,,,,low,7,0,7,0,1,,,,,,,,,
295288,2022-11-21_18h20.57.220,vts_reward_expectancy_bt,2022.2.4,MacIntel,60.0024001,Chrome,1440,900,,,,,0,971,,,,,,,,,,,,,,,,,146,D,hexagon,1,0,,,,,,,,,,,,,,,,switch,number,numSwt,d,0.5766,Hi,,,,,,3,,,,,,,,low,8,0,8,0,1,,,,,,,,,
295288,2022-11-21_18h20.57.220,vts_reward_expectancy_bt,2022.2.4,MacIntel,60.0024001,Chrome,1440,900,,,,,10,981,,,,,,,,,,,,,,,,,181,Y,triangle,1,0,,,,,,,,,,,,,,,,repeat,number,numRpt,f,0.4662,Lo,,,,,,3,,,,,,,,low,9,0,9,0,1,,,,,,,,,
295288,2022-11-21_18h20.57.220,vts_reward_expectancy_bt,2022.2.4,MacIntel,60.0024001,Chrome,1440,900,,,,,1,982,,,,,,,,,,,,,,,,,167,H,star,1,0,,,,,,,,,,,,,,,,switch,letter,lettSwt,j,0.4394,Lo,,,,,,3,,,,,,,,low,10,0,10,0,1,,,,,,,,,
295288,2022-11-21_18h20.57.220,vts_reward_expectancy_bt,2022.2.4,MacIntel,60.0024001,Chrome,1440,900,,,,,10,992,,,,,,,,,,,,,,,,,125,W,circle,1,0,,,,,,,,,,,,,,,,repeat,letter,lettRpt,k,0.3983,Hi,,,,,,3,,,,,,,,low,11,0,11,0,1,,,,,,,,,
295288,2022-11-21_18h20.57.220,vts_reward_expectancy_bt,2022.2.4,MacIntel,60.0024001,Chrome,1440,900,,,,,1,993,,,,,,,,,,,,,,,,,132,B,star,1,0,,,,,,,,,,,,,,,,switch,number,numSwt,d,0.4657,Lo,,,,,,3,,,,,,,,low,12,0,12,0,1,,,,,,,,,
295288,2022-11-21_18h20.57.220,vts_reward_expectancy_bt,2022.2.4,MacIntel,60.0024001,Chrome,1440,900,,,,,10,1003,,,,,,,,,,,,,,,,,160,S,circle,1,0,,,,,,,,,,,,,,,,repeat,number,numRpt,f,0.4111,Hi,,,,,,3,,,,,,,,low,13,0,13,0,1,,,,,,,,,
295288,2022-11-21_18h20.57.220,vts_reward_expectancy_bt,2022.2.4,MacIntel,60.0024001,Chrome,1440,900,,,,,0,1003,,,,,,,,,,,,,,,,,174,U,hexagon,0,0,,,,,,,,,,,,,,,,switch,letter,NA,j,0.3474,Hi,,,,,,3,,,,,,,,low,14,0,14,0,1,,,,,,,,,
295288,2022-11-21_18h20.57.220,vts_reward_expectancy_bt,2022.2.4,MacIntel,60.0024001,Chrome,1440,900,,,,,1,1004,,,,,,,,,,,,,,,,,139,F,triangle,1,1,,,,,,,,,,,,,,,,repeat,letter,lettRpt,j,0.6277,Lo,,,,,,3,,,,,,,,low,15,0,15,0,1,,,,,,,,,
295288,2022-11-21_18h20.57.220,vts_reward_expectancy_bt,2022.2.4,MacIntel,60.0024001,Chrome,1440,900,,,,,10,1014,,,,,,,,,,,,,,,,,146,H,triangle,1,0,,,,,,,,,,,,,,,,switch,number,numSwt,d,0.685,Lo,,,,,,3,,,,,,,,low,16,0,16,0,1,,,,,,,,,
295288,2022-11-21_18h20.57.220,vts_reward_expectancy_bt,2022.2.4,MacIntel,60.0024001,Chrome,1440,900,,,,,10,1024,,,,,,,,,,,,,,,,,167,Y,hexagon,1,0,,,,,,,,,,,,,,,,repeat,number,numRpt,f,0.4569,Hi,,,,,,3,,,,,,,,low,17,0,17,0,1,,,,,,,,,
295288,2022-11-21_18h20.57.220,vts_reward_expectancy_bt,2022.2.4,MacIntel,60.0024001,Chrome,1440,900,,,,,0,1024,,,,,,,,,,,,,,,,,125,D,circle,1,0,,,,,,,,,,,,,,,,switch,letter,lettSwt,j,0.543,Hi,,,,,,3,,,,,,,,low,18,0,18,0,1,,,,,,,,,
295288,2022-11-21_18h20.57.220,vts_reward_expectancy_bt,2022.2.4,MacIntel,60.0024001,Chrome,1440,900,,,,,1,1025,,,,,,,,,,,,,,,,,132,U,star,1,0,,,,,,,,,,,,,,,,repeat,letter,lettRpt,k,0.6343,Lo,,,,,,3,,,,,,,,low,19,0,19,0,1,,,,,,,,,
295288,2022-11-21_18h20.57.220,vts_reward_expectancy_bt,2022.2.4,MacIntel,60.0024001,Chrome,1440,900,,,,,1,1026,,,,,,,,,,,,,,,,,160,S,triangle,1,0,,,,,,,,,,,,,,,,switch,number,numSwt,f,0.426,Lo,,,,,,3,,,,,,,,low,20,0,20,0,1,,,,,,,,,
295288,2022-11-21_18h20.57.220,vts_reward_expectancy_bt,2022.2.4,MacIntel,60.0024001,Chrome,1440,900,,,,,10,1036,,,,,,,,,,,,,,,,,139,F,circle,1,0,,,,,,,,,,,,,,,,repeat,number,numRpt,d,0.4376,Hi,,,,,,3,,,,,,,,low,21,0,21,0,1,,,,,,,,,
295288,2022-11-21_18h20.57.220,vts_reward_expectancy_bt,2022.2.4,MacIntel,60.0024001,Chrome,1440,900,,,,,10,1046,,,,,,,,,,,,,,,,,174,W,star,1,0,,,,,,,,,,,,,,,,switch,letter,lettSwt,k,0.6427,Lo,,,,,,3,,,,,,,,low,22,0,22,0,1,,,,,,,,,
295288,2022-11-21_18h20.57.220,vts_reward_expectancy_bt,2022.2.4,MacIntel,60.0024001,Chrome,1440,900,,,,,10,1056,,,,,,,,,,,,,,,,,181,B,hexagon,1,0,,,,,,,,,,,,,,,,repeat,letter,lettRpt,j,0.4848,Hi,,,,,,3,,,,,,,,low,23,0,23,0,1,,,,,,,,,
295288,2022-11-21_18h20.57.220,vts_reward_expectancy_bt,2022.2.4,MacIntel,60.0024001,Chrome,1440,900,,,,,0,1056,,,,,,,,,,,,,,,,,181,D,hexagon,1,0,,,,,,,,,,,,,,,,switch,number,numSwt,f,0.4782,Hi,,,,,,3,,,,,,,,low,24,0,24,0,1,,,,,,,,,
295288,2022-11-21_18h20.57.220,vts_reward_expectancy_bt,2022.2.4,MacIntel,60.0024001,Chrome,1440,900,,,,,10,1066,,,,,,,,,,,,,,,,,146,Y,star,1,0,,,,,,,,,,,,,,,,repeat,number,numRpt,d,0.6749,Lo,,,,,,3,,,,,,,,low,25,0,25,0,1,,,,,,,,,
295288,2022-11-21_18h20.57.220,vts_reward_expectancy_bt,2022.2.4,MacIntel,60.0024001,Chrome,1440,900,,,,,10,1076,,,,,,,,,,,,,,,,,125,W,triangle,1,0,,,,,,,,,,,,,,,,switch,letter,lettSwt,k,0.6265,Lo,,,,,,3,,,,,,,,low,26,0,26,0,1,,,,,,,,,
295288,2022-11-21_18h20.57.220,vts_reward_expectancy_bt,2022.2.4,MacIntel,60.0024001,Chrome,1440,900,,,,,0,1076,,,,,,,,,,,,,,,,,174,F,circle,1,0,,,,,,,,,,,,,,,,repeat,letter,lettRpt,j,0.5984,Hi,,,,,,3,,,,,,,,low,27,0,27,0,1,,,,,,,,,
295288,2022-11-21_18h20.57.220,vts_reward_expectancy_bt,2022.2.4,MacIntel,60.0024001,Chrome,1440,900,,,,,0,1076,,,,,,,,,,,,,,,,,132,U,hexagon,1,0,,,,,,,,,,,,,,,,switch,number,numSwt,d,0.5437,Hi,,,,,,3,,,,,,,,low,28,0,28,0,1,,,,,,,,,
295288,2022-11-21_18h20.57.220,vts_reward_expectancy_bt,2022.2.4,MacIntel,60.0024001,Chrome,1440,900,,,,,0,1076,,,,,,,,,,,,,,,,,139,S,triangle,0,0,,,,,,,,,,,,,,,,repeat,number,NA,f,0.4002,Hi,,,,,,3,,,,,,,,low,29,0,29,0,1,,,,,,,,,
295288,2022-11-21_18h20.57.220,vts_reward_expectancy_bt,2022.2.4,MacIntel,60.0024001,Chrome,1440,900,,,,,1,1077,,,,,,,,,,,,,,,,,167,H,star,1,1,,,,,,,,,,,,,,,,switch,letter,lettSwt,j,0.5224,Lo,,,,,,3,,,,,,,,low,30,0,30,0,1,,,,,,,,,
295288,2022-11-21_18h20.57.220,vts_reward_expectancy_bt,2022.2.4,MacIntel,60.0024001,Chrome,1440,900,,,,,10,1087,,,,,,,,,,,,,,,,,160,B,circle,1,0,,,,,,,,,,,,,,,,repeat,letter,lettRpt,j,0.5113,Hi,,,,,,3,,,,,,,,low,31,0,31,0,1,,,,,,,,,
295288,2022-11-21_18h20.57.220,vts_reward_expectancy_bt,2022.2.4,MacIntel,60.0024001,Chrome,1440,900,,,,,0,1087,,,,,,,,,,,,,,,,,181,B,circle,1,0,,,,,,,,,,,,,,,,switch,number,numSwt,f,0.5553,Hi,,,,,,4,,,,,,space,3.1628,low,0,0,0,0,1,,,,,,,,,
295288,2022-11-21_18h20.57.220,vts_reward_expectancy_bt,2022.2.4,MacIntel,60.0024001,Chrome,1440,900,,,,,0,1087,,,,,,,,,,,,,,,,,125,D,hexagon,1,0,,,,,,,,,,,,,,,,repeat,number,numRpt,d,0.4447,Hi,,,,,,4,,,,,,,,low,1,0,1,0,1,,,,,,,,,
295288,2022-11-21_18h20.57.220,vts_reward_expectancy_bt,2022.2.4,MacIntel,60.0024001,Chrome,1440,900,,,,,1,1088,,,,,,,,,,,,,,,,,132,S,star,1,0,,,,,,,,,,,,,,,,switch,letter,lettSwt,k,0.6961,Lo,,,,,,4,,,,,,,,low,2,0,2,0,1,,,,,,,,,
295288,2022-11-21_18h20.57.220,vts_reward_expectancy_bt,2022.2.4,MacIntel,60.0024001,Chrome,1440,900,,,,,1,1089,,,,,,,,,,,,,,,,,139,F,triangle,1,0,,,,,,,,,,,,,,,,repeat,letter,lettRpt,j,0.4619,Lo,,,,,,4,,,,,,,,low,3,0,3,0,1,,,,,,,,,
295288,2022-11-21_18h20.57.220,vts_reward_expectancy_bt,2022.2.4,MacIntel,60.0024001,Chrome,1440,900,,,,,0,1089,,,,,,,,,,,,,,,,,167,Y,circle,1,0,,,,,,,,,,,,,,,,repeat,letter,lettRpt,k,0.5541,Hi,,,,,,4,,,,,,,,low,4,0,4,0,1,,,,,,,,,
295288,2022-11-21_18h20.57.220,vts_reward_expectancy_bt,2022.2.4,MacIntel,60.0024001,Chrome,1440,900,,,,,0,1089,,,,,,,,,,,,,,,,,146,U,hexagon,1,0,,,,,,,,,,,,,,,,switch,number,numSwt,d,0.5613,Hi,,,,,,4,,,,,,,,low,5,0,5,0,1,,,,,,,,,
295288,2022-11-21_18h20.57.220,vts_reward_expectancy_bt,2022.2.4,MacIntel,60.0024001,Chrome,1440,900,,,,,1,1090,,,,,,,,,,,,,,,,,174,H,star,1,0,,,,,,,,,,,,,,,,repeat,number,numRpt,f,0.5169,Lo,,,,,,4,,,,,,,,low,6,0,6,0,1,,,,,,,,,
295288,2022-11-21_18h20.57.220,vts_reward_expectancy_bt,2022.2.4,MacIntel,60.0024001,Chrome,1440,900,,,,,1,1091,,,,,,,,,,,,,,,,,160,W,triangle,1,0,,,,,,,,,,,,,,,,repeat,number,numRpt,f,0.564,Lo,,,,,,4,,,,,,,,low,7,0,7,0,1,,,,,,,,,
295288,2022-11-21_18h20.57.220,vts_reward_expectancy_bt,2022.2.4,MacIntel,60.0024001,Chrome,1440,900,,,,,10,1101,,,,,,,,,,,,,,,,,181,B,star,1,0,,,,,,,,,,,,,,,,switch,letter,lettSwt,j,0.4259,Lo,,,,,,4,,,,,,,,low,8,0,8,0,1,,,,,,,,,
295288,2022-11-21_18h20.57.220,vts_reward_expectancy_bt,2022.2.4,MacIntel,60.0024001,Chrome,1440,900,,,,,0,1101,,,,,,,,,,,,,,,,,125,D,hexagon,1,0,,,,,,,,,,,,,,,,repeat,letter,lettRpt,j,0.6754,Hi,,,,,,4,,,,,,,,low,9,0,9,0,1,,,,,,,,,
295288,2022-11-21_18h20.57.220,vts_reward_expectancy_bt,2022.2.4,MacIntel,60.0024001,Chrome,1440,900,,,,,10,1111,,,,,,,,,,,,,,,,,132,S,circle,1,0,,,,,,,,,,,,,,,,switch,number,numSwt,d,0.412,Hi,,,,,,4,,,,,,,,low,10,0,10,0,1,,,,,,,,,
295288,2022-11-21_18h20.57.220,vts_reward_expectancy_bt,2022.2.4,MacIntel,60.0024001,Chrome,1440,900,,,,,1,1112,,,,,,,,,,,,,,,,,139,F,triangle,1,0,,,,,,,,,,,,,,,,repeat,number,numRpt,d,0.579,Lo,,,,,,4,,,,,,,,low,11,0,11,0,1,,,,,,,,,
295288,2022-11-21_18h20.57.220,vts_reward_expectancy_bt,2022.2.4,MacIntel,60.0024001,Chrome,1440,900,,,,,0,1112,,,,,,,,,,,,,,,,,167,Y,hexagon,1,0,,,,,,,,,,,,,,,,switch,letter,lettSwt,k,0.5305,Hi,,,,,,4,,,,,,,,low,12,0,12,0,1,,,,,,,,,
295288,2022-11-21_18h20.57.220,vts_reward_expectancy_bt,2022.2.4,MacIntel,60.0024001,Chrome,1440,900,,,,,1,1113,,,,,,,,,,,,,,,,,146,U,triangle,1,0,,,,,,,,,,,,,,,,repeat,letter,lettRpt,k,0.5719,Lo,,,,,,4,,,,,,,,low,13,0,13,0,1,,,,,,,,,
295288,2022-11-21_18h20.57.220,vts_reward_expectancy_bt,2022.2.4,MacIntel,60.0024001,Chrome,1440,900,,,,,10,1123,,,,,,,,,,,,,,,,,174,H,star,1,0,,,,,,,,,,,,,,,,switch,number,numSwt,f,0.4713,Lo,,,,,,4,,,,,,,,low,14,0,14,0,1,,,,,,,,,
