participant,date,expName,psychopyVersion,OS,frameRate,browser,xResolution,yResolution,key_resp.keys,key_resp.rt,training_resp.keys,training_resp.rt,points_trial,points_cumul,trainBlock,training.thisRepN,training.thisTrialN,training.thisN,training.thisIndex,training.ran,LTriangleOpac,LCircleOpac,LHexagonOpac,LStarOpac,RTriangleOpac,RCircleOpac,RHexagonOpac,RStarOpac,LShape_ID,RShape_ID,curr_topStim,curr_bottStim,curr_shape,acc,E1,target_resp_prac1.keys,pracBlock,task1_prac_trials.thisRepN,task1_prac_trials.thisTrialN,task1_prac_trials.thisN,task1_prac_trials.thisIndex,task1_prac_trials.ran,target_resp_prac1.rt,target_resp_prac2.keys,target_resp_prac2.rt,task2_praac_trials.thisRepN,task2_praac_trials.thisTrialN,task2_praac_trials.thisN,task2_praac_trials.thisIndex,task2_praac_trials.ran,alt,task,condition,target_resp.keys,target_resp.rt,rewCond,vts_practice_trials.thisRepN,vts_practice_trials.thisTrialN,vts_practice_trials.thisN,vts_practice_trials.thisIndex,vts_practice_trials.ran,blockNum,trials_norew.thisRepN,trials_norew.thisTrialN,trials_norew.thisN,trials_norew.thisIndex,trials_norew.ran,key_resp_2.keys,key_resp_2.rt,rewExpectancy,trials_rew.thisRepN,trials_rew.thisTrialN,trials_rew.thisN,trials_rew.thisIndex,trials_rew.ran,Q1,Q2,Q2_text,Q3,Q4,Q5_text,Q5,xRes,yRes
295276,2022-11-21_17h00.28.145,vts_reward_expectancy_bt,2022.2.4,Win32,143.3486239,Chrome,1536,864,,,,,,,,,,,,,,,,,,,,,,,,,,,,,,,,,,,,,,,,,,,,,,,,,,,,,,,,,,,,,,,,,,,,,,,,,,,,
295276,2022-11-21_17h00.28.145,vts_reward_expectancy_bt,2022.2.4,Win32,143.3486239,Chrome,1536,864,space,15.6239,,,,,,,,,,,,,,,,,,,,,,,,,,,,,,,,,,,,,,,,,,,,,,,,,,,,,,,,,,,,,,,,,,,,,,,,,,
295276,2022-11-21_17h00.28.145,vts_reward_expectancy_bt,2022.2.4,Win32,143.3486239,Chrome,1536,864,,,,,,,,,,,,,,,,,,,,,,,,,,,,,,,,,,,,,,,,,,,,,,,,,,,,,,,,,,,,,,,,,,,,,,,,,,,,
295276,2022-11-21_17h00.28.145,vts_reward_expectancy_bt,2022.2.4,Win32,143.3486239,Chrome,1536,864,,,l,4.6463,10,10,0,0,0,0,3,1,0,1,0,0,1,0,0,0,circle,triangle,,,,,,,,,,,,,,,,,,,,,,,,,,,,,,,,,,,,,,,,,,,,,,,,,,,,,,
295276,2022-11-21_17h00.28.145,vts_reward_expectancy_bt,2022.2.4,Win32,143.3486239,Chrome,1536,864,,,l,1.5961,1,11,0,0,1,1,4,1,0,1,0,0,0,0,1,0,circle,hexagon,,,,,,,,,,,,,,,,,,,,,,,,,,,,,,,,,,,,,,,,,,,,,,,,,,,,,,
295276,2022-11-21_17h00.28.145,vts_reward_expectancy_bt,2022.2.4,Win32,143.3486239,Chrome,1536,864,,,l,1.1626,10,21,0,0,2,2,5,1,0,1,0,0,0,0,0,1,circle,star,,,,,,,,,,,,,,,,,,,,,,,,,,,,,,,,,,,,,,,,,,,,,,,,,,,,,,
295276,2022-11-21_17h00.28.145,vts_reward_expectancy_bt,2022.2.4,Win32,143.3486239,Chrome,1536,864,,,a,1.031,10,31,0,0,3,3,9,1,0,0,0,1,1,0,0,0,star,triangle,,,,,,,,,,,,,,,,,,,,,,,,,,,,,,,,,,,,,,,,,,,,,,,,,,,,,,
295276,2022-11-21_17h00.28.145,vts_reward_expectancy_bt,2022.2.4,Win32,143.3486239,Chrome,1536,864,,,l,1.2756,10,41,0,0,4,4,2,1,1,0,0,0,0,0,0,1,triangle,star,,,,,,,,,,,,,,,,,,,,,,,,,,,,,,,,,,,,,,,,,,,,,,,,,,,,,,
295276,2022-11-21_17h00.28.145,vts_reward_expectancy_bt,2022.2.4,Win32,143.3486239,Chrome,1536,864,,,a,0.8778,10,51,0,0,5,5,10,1,0,0,0,1,0,1,0,0,star ,circle,,,,,,,,,,,,,,,,,,,,,,,,,,,,,,,,,,,,,,,,,,,,,,,,,,,,,,
295276,2022-11-21_17h00.28.145,vts_reward_expectancy_bt,2022.2.4,Win32,143.3486239,Chrome,1536,864,,,a,0.5774,1,52,0,0,6,6,11,1,0,0,0,1,0,0,1,0,star,hexagon,,,,,,,,,,,,,,,,,,,,,,,,,,,,,,,,,,,,,,,,,,,,,,,,,,,,,,
295276,2022-11-21_17h00.28.145,vts_reward_expectancy_bt,2022.2.4,Win32,143.3486239,Chrome,1536,864,,,a,0.7596,10,62,0,0,7,7,7,1,0,0,1,0,0,1,0,0,hexagon,circle,,,,,,,,,,,,,,,,,,,,,,,,,,,,,,,,,,,,,,,,,,,,,,,,,,,,,,
295276,2022-11-21_17h00.28.145,vts_reward_expectancy_bt,2022.2.4,Win32,143.3486239,Chrome,1536,864,,,a,1.2598,1,63,0,0,8,8,6,1,0,0,1,0,1,0,0,0,hexagon,triangle,,,,,,,,,,,,,,,,,,,,,,,,,,,,,,,,,,,,,,,,,,,,,,,,,,,,,,
295276,2022-11-21_17h00.28.145,vts_reward_expectancy_bt,2022.2.4,Win32,143.3486239,Chrome,1536,864,,,l,0.8945,10,73,0,0,9,9,1,1,1,0,0,0,0,0,1,0,triangle,hexagon,,,,,,,,,,,,,,,,,,,,,,,,,,,,,,,,,,,,,,,,,,,,,,,,,,,,,,
295276,2022-11-21_17h00.28.145,vts_reward_expectancy_bt,2022.2.4,Win32,143.3486239,Chrome,1536,864,,,l,1.451,1,74,0,0,10,10,0,1,1,0,0,0,0,1,0,0,triangle,circle,,,,,,,,,,,,,,,,,,,,,,,,,,,,,,,,,,,,,,,,,,,,,,,,,,,,,,
295276,2022-11-21_17h00.28.145,vts_reward_expectancy_bt,2022.2.4,Win32,143.3486239,Chrome,1536,864,,,l,1.2097,1,75,0,0,11,11,8,1,0,0,1,0,0,0,0,1,hexagon,star,,,,,,,,,,,,,,,,,,,,,,,,,,,,,,,,,,,,,,,,,,,,,,,,,,,,,,
295276,2022-11-21_17h00.28.145,vts_reward_expectancy_bt,2022.2.4,Win32,143.3486239,Chrome,1536,864,,,l,1.3237,10,85,0,1,0,12,8,1,0,0,1,0,0,0,0,1,hexagon,star,,,,,,,,,,,,,,,,,,,,,,,,,,,,,,,,,,,,,,,,,,,,,,,,,,,,,,
295276,2022-11-21_17h00.28.145,vts_reward_expectancy_bt,2022.2.4,Win32,143.3486239,Chrome,1536,864,,,l,0.9788,1,86,0,1,1,13,10,1,0,0,0,1,0,1,0,0,star ,circle,,,,,,,,,,,,,,,,,,,,,,,,,,,,,,,,,,,,,,,,,,,,,,,,,,,,,,
295276,2022-11-21_17h00.28.145,vts_reward_expectancy_bt,2022.2.4,Win32,143.3486239,Chrome,1536,864,,,l,0.7783,1,87,0,1,2,14,2,1,1,0,0,0,0,0,0,1,triangle,star,,,,,,,,,,,,,,,,,,,,,,,,,,,,,,,,,,,,,,,,,,,,,,,,,,,,,,
295276,2022-11-21_17h00.28.145,vts_reward_expectancy_bt,2022.2.4,Win32,143.3486239,Chrome,1536,864,,,a,1.3248,1,88,0,1,3,15,11,1,0,0,0,1,0,0,1,0,star,hexagon,,,,,,,,,,,,,,,,,,,,,,,,,,,,,,,,,,,,,,,,,,,,,,,,,,,,,,
295276,2022-11-21_17h00.28.145,vts_reward_expectancy_bt,2022.2.4,Win32,143.3486239,Chrome,1536,864,,,a,0.6444,10,98,0,1,4,16,9,1,0,0,0,1,1,0,0,0,star,triangle,,,,,,,,,,,,,,,,,,,,,,,,,,,,,,,,,,,,,,,,,,,,,,,,,,,,,,
295276,2022-11-21_17h00.28.145,vts_reward_expectancy_bt,2022.2.4,Win32,143.3486239,Chrome,1536,864,,,l,0.7654,10,108,0,1,5,17,5,1,0,1,0,0,0,0,0,1,circle,star,,,,,,,,,,,,,,,,,,,,,,,,,,,,,,,,,,,,,,,,,,,,,,,,,,,,,,
295276,2022-11-21_17h00.28.145,vts_reward_expectancy_bt,2022.2.4,Win32,143.3486239,Chrome,1536,864,,,l,0.6881,10,118,0,1,6,18,4,1,0,1,0,0,0,0,1,0,circle,hexagon,,,,,,,,,,,,,,,,,,,,,,,,,,,,,,,,,,,,,,,,,,,,,,,,,,,,,,
295276,2022-11-21_17h00.28.145,vts_reward_expectancy_bt,2022.2.4,Win32,143.3486239,Chrome,1536,864,,,a,0.8287,1,119,0,1,7,19,1,1,1,0,0,0,0,0,1,0,triangle,hexagon,,,,,,,,,,,,,,,,,,,,,,,,,,,,,,,,,,,,,,,,,,,,,,,,,,,,,,
295276,2022-11-21_17h00.28.145,vts_reward_expectancy_bt,2022.2.4,Win32,143.3486239,Chrome,1536,864,,,l,0.8873,1,120,0,1,8,20,3,1,0,1,0,0,1,0,0,0,circle,triangle,,,,,,,,,,,,,,,,,,,,,,,,,,,,,,,,,,,,,,,,,,,,,,,,,,,,,,
295276,2022-11-21_17h00.28.145,vts_reward_expectancy_bt,2022.2.4,Win32,143.3486239,Chrome,1536,864,,,a,0.6946,1,121,0,1,9,21,0,1,1,0,0,0,0,1,0,0,triangle,circle,,,,,,,,,,,,,,,,,,,,,,,,,,,,,,,,,,,,,,,,,,,,,,,,,,,,,,
295276,2022-11-21_17h00.28.145,vts_reward_expectancy_bt,2022.2.4,Win32,143.3486239,Chrome,1536,864,,,a,0.8073,1,122,0,1,10,22,7,1,0,0,1,0,0,1,0,0,hexagon,circle,,,,,,,,,,,,,,,,,,,,,,,,,,,,,,,,,,,,,,,,,,,,,,,,,,,,,,
295276,2022-11-21_17h00.28.145,vts_reward_expectancy_bt,2022.2.4,Win32,143.3486239,Chrome,1536,864,,,a,1.027,1,123,0,1,11,23,6,1,0,0,1,0,1,0,0,0,hexagon,triangle,,,,,,,,,,,,,,,,,,,,,,,,,,,,,,,,,,,,,,,,,,,,,,,,,,,,,,
295276,2022-11-21_17h00.28.145,vts_reward_expectancy_bt,2022.2.4,Win32,143.3486239,Chrome,1536,864,,,a,1.2999,1,124,0,2,0,24,11,1,0,0,0,1,0,0,1,0,star,hexagon,,,,,,,,,,,,,,,,,,,,,,,,,,,,,,,,,,,,,,,,,,,,,,,,,,,,,,
295276,2022-11-21_17h00.28.145,vts_reward_expectancy_bt,2022.2.4,Win32,143.3486239,Chrome,1536,864,,,a,1.5242,10,134,0,2,1,25,1,1,1,0,0,0,0,0,1,0,triangle,hexagon,,,,,,,,,,,,,,,,,,,,,,,,,,,,,,,,,,,,,,,,,,,,,,,,,,,,,,
295276,2022-11-21_17h00.28.145,vts_reward_expectancy_bt,2022.2.4,Win32,143.3486239,Chrome,1536,864,,,a,0.6893,10,144,0,2,2,26,5,1,0,1,0,0,0,0,0,1,circle,star,,,,,,,,,,,,,,,,,,,,,,,,,,,,,,,,,,,,,,,,,,,,,,,,,,,,,,
295276,2022-11-21_17h00.28.145,vts_reward_expectancy_bt,2022.2.4,Win32,143.3486239,Chrome,1536,864,,,a,0.8248,1,145,0,2,3,27,2,1,1,0,0,0,0,0,0,1,triangle,star,,,,,,,,,,,,,,,,,,,,,,,,,,,,,,,,,,,,,,,,,,,,,,,,,,,,,,
295276,2022-11-21_17h00.28.145,vts_reward_expectancy_bt,2022.2.4,Win32,143.3486239,Chrome,1536,864,,,l,0.785,10,155,0,2,4,28,9,1,0,0,0,1,1,0,0,0,star,triangle,,,,,,,,,,,,,,,,,,,,,,,,,,,,,,,,,,,,,,,,,,,,,,,,,,,,,,
295276,2022-11-21_17h00.28.145,vts_reward_expectancy_bt,2022.2.4,Win32,143.3486239,Chrome,1536,864,,,a,0.89,1,156,0,2,5,29,8,1,0,0,1,0,0,0,0,1,hexagon,star,,,,,,,,,,,,,,,,,,,,,,,,,,,,,,,,,,,,,,,,,,,,,,,,,,,,,,
295276,2022-11-21_17h00.28.145,vts_reward_expectancy_bt,2022.2.4,Win32,143.3486239,Chrome,1536,864,,,l,1.3464,10,166,0,2,6,30,3,1,0,1,0,0,1,0,0,0,circle,triangle,,,,,,,,,,,,,,,,,,,,,,,,,,,,,,,,,,,,,,,,,,,,,,,,,,,,,,
295276,2022-11-21_17h00.28.145,vts_reward_expectancy_bt,2022.2.4,Win32,143.3486239,Chrome,1536,864,,,a,0.674,10,176,0,2,7,31,0,1,1,0,0,0,0,1,0,0,triangle,circle,,,,,,,,,,,,,,,,,,,,,,,,,,,,,,,,,,,,,,,,,,,,,,,,,,,,,,
295276,2022-11-21_17h00.28.145,vts_reward_expectancy_bt,2022.2.4,Win32,143.3486239,Chrome,1536,864,,,a,1.2519,1,177,0,2,8,32,7,1,0,0,1,0,0,1,0,0,hexagon,circle,,,,,,,,,,,,,,,,,,,,,,,,,,,,,,,,,,,,,,,,,,,,,,,,,,,,,,
295276,2022-11-21_17h00.28.145,vts_reward_expectancy_bt,2022.2.4,Win32,143.3486239,Chrome,1536,864,,,a,1.2306,1,178,0,2,9,33,10,1,0,0,0,1,0,1,0,0,star ,circle,,,,,,,,,,,,,,,,,,,,,,,,,,,,,,,,,,,,,,,,,,,,,,,,,,,,,,
295276,2022-11-21_17h00.28.145,vts_reward_expectancy_bt,2022.2.4,Win32,143.3486239,Chrome,1536,864,,,l,1.0006,10,188,0,2,10,34,4,1,0,1,0,0,0,0,1,0,circle,hexagon,,,,,,,,,,,,,,,,,,,,,,,,,,,,,,,,,,,,,,,,,,,,,,,,,,,,,,
295276,2022-11-21_17h00.28.145,vts_reward_expectancy_bt,2022.2.4,Win32,143.3486239,Chrome,1536,864,,,l,1.6819,10,198,0,2,11,35,6,1,0,0,1,0,1,0,0,0,hexagon,triangle,,,,,,,,,,,,,,,,,,,,,,,,,,,,,,,,,,,,,,,,,,,,,,,,,,,,,,
295276,2022-11-21_17h00.28.145,vts_reward_expectancy_bt,2022.2.4,Win32,143.3486239,Chrome,1536,864,,,l,1.0651,10,208,1,0,0,0,9,1,0,0,0,1,1,0,0,0,star,triangle,,,,,,,,,,,,,,,,,,,,,,,,,,,,,,,,,,,,,,,,,,,,,,,,,,,,,,
295276,2022-11-21_17h00.28.145,vts_reward_expectancy_bt,2022.2.4,Win32,143.3486239,Chrome,1536,864,,,a,1.0959,1,209,1,0,1,1,0,1,1,0,0,0,0,1,0,0,triangle,circle,,,,,,,,,,,,,,,,,,,,,,,,,,,,,,,,,,,,,,,,,,,,,,,,,,,,,,
295276,2022-11-21_17h00.28.145,vts_reward_expectancy_bt,2022.2.4,Win32,143.3486239,Chrome,1536,864,,,l,0.624,1,210,1,0,2,2,3,1,0,1,0,0,1,0,0,0,circle,triangle,,,,,,,,,,,,,,,,,,,,,,,,,,,,,,,,,,,,,,,,,,,,,,,,,,,,,,
295276,2022-11-21_17h00.28.145,vts_reward_expectancy_bt,2022.2.4,Win32,143.3486239,Chrome,1536,864,,,l,0.7562,1,211,1,0,3,3,4,1,0,1,0,0,0,0,1,0,circle,hexagon,,,,,,,,,,,,,,,,,,,,,,,,,,,,,,,,,,,,,,,,,,,,,,,,,,,,,,
295276,2022-11-21_17h00.28.145,vts_reward_expectancy_bt,2022.2.4,Win32,143.3486239,Chrome,1536,864,,,l,0.799,1,212,1,0,4,4,5,1,0,1,0,0,0,0,0,1,circle,star,,,,,,,,,,,,,,,,,,,,,,,,,,,,,,,,,,,,,,,,,,,,,,,,,,,,,,
295276,2022-11-21_17h00.28.145,vts_reward_expectancy_bt,2022.2.4,Win32,143.3486239,Chrome,1536,864,,,l,0.8562,10,222,1,0,5,5,7,1,0,0,1,0,0,1,0,0,hexagon,circle,,,,,,,,,,,,,,,,,,,,,,,,,,,,,,,,,,,,,,,,,,,,,,,,,,,,,,
295276,2022-11-21_17h00.28.145,vts_reward_expectancy_bt,2022.2.4,Win32,143.3486239,Chrome,1536,864,,,l,0.7808,1,223,1,0,6,6,11,1,0,0,0,1,0,0,1,0,star,hexagon,,,,,,,,,,,,,,,,,,,,,,,,,,,,,,,,,,,,,,,,,,,,,,,,,,,,,,
295276,2022-11-21_17h00.28.145,vts_reward_expectancy_bt,2022.2.4,Win32,143.3486239,Chrome,1536,864,,,l,0.8946,1,224,1,0,7,7,6,1,0,0,1,0,1,0,0,0,hexagon,triangle,,,,,,,,,,,,,,,,,,,,,,,,,,,,,,,,,,,,,,,,,,,,,,,,,,,,,,
295276,2022-11-21_17h00.28.145,vts_reward_expectancy_bt,2022.2.4,Win32,143.3486239,Chrome,1536,864,,,l,0.6881,1,225,1,0,8,8,10,1,0,0,0,1,0,1,0,0,star ,circle,,,,,,,,,,,,,,,,,,,,,,,,,,,,,,,,,,,,,,,,,,,,,,,,,,,,,,
295276,2022-11-21_17h00.28.145,vts_reward_expectancy_bt,2022.2.4,Win32,143.3486239,Chrome,1536,864,,,l,0.8244,1,226,1,0,9,9,1,1,1,0,0,0,0,0,1,0,triangle,hexagon,,,,,,,,,,,,,,,,,,,,,,,,,,,,,,,,,,,,,,,,,,,,,,,,,,,,,,
295276,2022-11-21_17h00.28.145,vts_reward_expectancy_bt,2022.2.4,Win32,143.3486239,Chrome,1536,864,,,a,0.8692,1,227,1,0,10,10,8,1,0,0,1,0,0,0,0,1,hexagon,star,,,,,,,,,,,,,,,,,,,,,,,,,,,,,,,,,,,,,,,,,,,,,,,,,,,,,,
295276,2022-11-21_17h00.28.145,vts_reward_expectancy_bt,2022.2.4,Win32,143.3486239,Chrome,1536,864,,,a,0.8529,1,228,1,0,11,11,2,1,1,0,0,0,0,0,0,1,triangle,star,,,,,,,,,,,,,,,,,,,,,,,,,,,,,,,,,,,,,,,,,,,,,,,,,,,,,,
295276,2022-11-21_17h00.28.145,vts_reward_expectancy_bt,2022.2.4,Win32,143.3486239,Chrome,1536,864,,,a,1.1875,1,229,1,1,0,12,6,1,0,0,1,0,1,0,0,0,hexagon,triangle,,,,,,,,,,,,,,,,,,,,,,,,,,,,,,,,,,,,,,,,,,,,,,,,,,,,,,
295276,2022-11-21_17h00.28.145,vts_reward_expectancy_bt,2022.2.4,Win32,143.3486239,Chrome,1536,864,,,l,0.8017,10,239,1,1,1,13,5,1,0,1,0,0,0,0,0,1,circle,star,,,,,,,,,,,,,,,,,,,,,,,,,,,,,,,,,,,,,,,,,,,,,,,,,,,,,,
295276,2022-11-21_17h00.28.145,vts_reward_expectancy_bt,2022.2.4,Win32,143.3486239,Chrome,1536,864,,,a,1.3679,1,240,1,1,2,14,9,1,0,0,0,1,1,0,0,0,star,triangle,,,,,,,,,,,,,,,,,,,,,,,,,,,,,,,,,,,,,,,,,,,,,,,,,,,,,,
295276,2022-11-21_17h00.28.145,vts_reward_expectancy_bt,2022.2.4,Win32,143.3486239,Chrome,1536,864,,,l,1.6143,10,250,1,1,3,15,1,1,1,0,0,0,0,0,1,0,triangle,hexagon,,,,,,,,,,,,,,,,,,,,,,,,,,,,,,,,,,,,,,,,,,,,,,,,,,,,,,
295276,2022-11-21_17h00.28.145,vts_reward_expectancy_bt,2022.2.4,Win32,143.3486239,Chrome,1536,864,,,l,0.6888,1,251,1,1,4,16,11,1,0,0,0,1,0,0,1,0,star,hexagon,,,,,,,,,,,,,,,,,,,,,,,,,,,,,,,,,,,,,,,,,,,,,,,,,,,,,,
295276,2022-11-21_17h00.28.145,vts_reward_expectancy_bt,2022.2.4,Win32,143.3486239,Chrome,1536,864,,,l,0.6676,1,252,1,1,5,17,4,1,0,1,0,0,0,0,1,0,circle,hexagon,,,,,,,,,,,,,,,,,,,,,,,,,,,,,,,,,,,,,,,,,,,,,,,,,,,,,,
295276,2022-11-21_17h00.28.145,vts_reward_expectancy_bt,2022.2.4,Win32,143.3486239,Chrome,1536,864,,,l,1.2337,10,262,1,1,6,18,2,1,1,0,0,0,0,0,0,1,triangle,star,,,,,,,,,,,,,,,,,,,,,,,,,,,,,,,,,,,,,,,,,,,,,,,,,,,,,,
295276,2022-11-21_17h00.28.145,vts_reward_expectancy_bt,2022.2.4,Win32,143.3486239,Chrome,1536,864,,,a,0.7093,10,272,1,1,7,19,10,1,0,0,0,1,0,1,0,0,star ,circle,,,,,,,,,,,,,,,,,,,,,,,,,,,,,,,,,,,,,,,,,,,,,,,,,,,,,,
295276,2022-11-21_17h00.28.145,vts_reward_expectancy_bt,2022.2.4,Win32,143.3486239,Chrome,1536,864,,,l,0.8965,1,273,1,1,8,20,3,1,0,1,0,0,1,0,0,0,circle,triangle,,,,,,,,,,,,,,,,,,,,,,,,,,,,,,,,,,,,,,,,,,,,,,,,,,,,,,
295276,2022-11-21_17h00.28.145,vts_reward_expectancy_bt,2022.2.4,Win32,143.3486239,Chrome,1536,864,,,a,0.9824,1,274,1,1,9,21,8,1,0,0,1,0,0,0,0,1,hexagon,star,,,,,,,,,,,,,,,,,,,,,,,,,,,,,,,,,,,,,,,,,,,,,,,,,,,,,,
295276,2022-11-21_17h00.28.145,vts_reward_expectancy_bt,2022.2.4,Win32,143.3486239,Chrome,1536,864,,,a,1.1187,10,284,1,1,10,22,7,1,0,0,1,0,0,1,0,0,hexagon,circle,,,,,,,,,,,,,,,,,,,,,,,,,,,,,,,,,,,,,,,,,,,,,,,,,,,,,,
295276,2022-11-21_17h00.28.145,vts_reward_expectancy_bt,2022.2.4,Win32,143.3486239,Chrome,1536,864,,,a,0.7095,10,294,1,1,11,23,0,1,1,0,0,0,0,1,0,0,triangle,circle,,,,,,,,,,,,,,,,,,,,,,,,,,,,,,,,,,,,,,,,,,,,,,,,,,,,,,
295276,2022-11-21_17h00.28.145,vts_reward_expectancy_bt,2022.2.4,Win32,143.3486239,Chrome,1536,864,,,a,0.9658,10,304,1,2,0,24,1,1,1,0,0,0,0,0,1,0,triangle,hexagon,,,,,,,,,,,,,,,,,,,,,,,,,,,,,,,,,,,,,,,,,,,,,,,,,,,,,,
295276,2022-11-21_17h00.28.145,vts_reward_expectancy_bt,2022.2.4,Win32,143.3486239,Chrome,1536,864,,,l,0.7346,10,314,1,2,1,25,5,1,0,1,0,0,0,0,0,1,circle,star,,,,,,,,,,,,,,,,,,,,,,,,,,,,,,,,,,,,,,,,,,,,,,,,,,,,,,
295276,2022-11-21_17h00.28.145,vts_reward_expectancy_bt,2022.2.4,Win32,143.3486239,Chrome,1536,864,,,l,0.9176,10,324,1,2,2,26,9,1,0,0,0,1,1,0,0,0,star,triangle,,,,,,,,,,,,,,,,,,,,,,,,,,,,,,,,,,,,,,,,,,,,,,,,,,,,,,
295276,2022-11-21_17h00.28.145,vts_reward_expectancy_bt,2022.2.4,Win32,143.3486239,Chrome,1536,864,,,a,0.7853,10,334,1,2,3,27,8,1,0,0,1,0,0,0,0,1,hexagon,star,,,,,,,,,,,,,,,,,,,,,,,,,,,,,,,,,,,,,,,,,,,,,,,,,,,,,,
295276,2022-11-21_17h00.28.145,vts_reward_expectancy_bt,2022.2.4,Win32,143.3486239,Chrome,1536,864,,,l,0.7325,10,344,1,2,4,28,6,1,0,0,1,0,1,0,0,0,hexagon,triangle,,,,,,,,,,,,,,,,,,,,,,,,,,,,,,,,,,,,,,,,,,,,,,,,,,,,,,
295276,2022-11-21_17h00.28.145,vts_reward_expectancy_bt,2022.2.4,Win32,143.3486239,Chrome,1536,864,,,a,0.632,1,345,1,2,5,29,2,1,1,0,0,0,0,0,0,1,triangle,star,,,,,,,,,,,,,,,,,,,,,,,,,,,,,,,,,,,,,,,,,,,,,,,,,,,,,,
295276,2022-11-21_17h00.28.145,vts_reward_expectancy_bt,2022.2.4,Win32,143.3486239,Chrome,1536,864,,,a,1.3617,10,355,1,2,6,30,0,1,1,0,0,0,0,1,0,0,triangle,circle,,,,,,,,,,,,,,,,,,,,,,,,,,,,,,,,,,,,,,,,,,,,,,,,,,,,,,
295276,2022-11-21_17h00.28.145,vts_reward_expectancy_bt,2022.2.4,Win32,143.3486239,Chrome,1536,864,,,a,0.5555,1,356,1,2,7,31,7,1,0,0,1,0,0,1,0,0,hexagon,circle,,,,,,,,,,,,,,,,,,,,,,,,,,,,,,,,,,,,,,,,,,,,,,,,,,,,,,
295276,2022-11-21_17h00.28.145,vts_reward_expectancy_bt,2022.2.4,Win32,143.3486239,Chrome,1536,864,,,a,0.956,1,357,1,2,8,32,4,1,0,1,0,0,0,0,1,0,circle,hexagon,,,,,,,,,,,,,,,,,,,,,,,,,,,,,,,,,,,,,,,,,,,,,,,,,,,,,,
295276,2022-11-21_17h00.28.145,vts_reward_expectancy_bt,2022.2.4,Win32,143.3486239,Chrome,1536,864,,,l,0.847,10,367,1,2,9,33,10,1,0,0,0,1,0,1,0,0,star ,circle,,,,,,,,,,,,,,,,,,,,,,,,,,,,,,,,,,,,,,,,,,,,,,,,,,,,,,
295276,2022-11-21_17h00.28.145,vts_reward_expectancy_bt,2022.2.4,Win32,143.3486239,Chrome,1536,864,,,l,0.6235,1,368,1,2,10,34,3,1,0,1,0,0,1,0,0,0,circle,triangle,,,,,,,,,,,,,,,,,,,,,,,,,,,,,,,,,,,,,,,,,,,,,,,,,,,,,,
295276,2022-11-21_17h00.28.145,vts_reward_expectancy_bt,2022.2.4,Win32,143.3486239,Chrome,1536,864,,,l,0.7126,1,369,1,2,11,35,11,1,0,0,0,1,0,0,1,0,star,hexagon,,,,,,,,,,,,,,,,,,,,,,,,,,,,,,,,,,,,,,,,,,,,,,,,,,,,,,
295276,2022-11-21_17h00.28.145,vts_reward_expectancy_bt,2022.2.4,Win32,143.3486239,Chrome,1536,864,,,a,0.73,10,379,2,0,0,0,1,1,1,0,0,0,0,0,1,0,triangle,hexagon,,,,,,,,,,,,,,,,,,,,,,,,,,,,,,,,,,,,,,,,,,,,,,,,,,,,,,
295276,2022-11-21_17h00.28.145,vts_reward_expectancy_bt,2022.2.4,Win32,143.3486239,Chrome,1536,864,,,a,0.6223,1,380,2,0,1,1,0,1,1,0,0,0,0,1,0,0,triangle,circle,,,,,,,,,,,,,,,,,,,,,,,,,,,,,,,,,,,,,,,,,,,,,,,,,,,,,,
295276,2022-11-21_17h00.28.145,vts_reward_expectancy_bt,2022.2.4,Win32,143.3486239,Chrome,1536,864,,,a,0.6889,1,381,2,0,2,2,2,1,1,0,0,0,0,0,0,1,triangle,star,,,,,,,,,,,,,,,,,,,,,,,,,,,,,,,,,,,,,,,,,,,,,,,,,,,,,,
295276,2022-11-21_17h00.28.145,vts_reward_expectancy_bt,2022.2.4,Win32,143.3486239,Chrome,1536,864,,,a,0.653,1,382,2,0,3,3,7,1,0,0,1,0,0,1,0,0,hexagon,circle,,,,,,,,,,,,,,,,,,,,,,,,,,,,,,,,,,,,,,,,,,,,,,,,,,,,,,
295276,2022-11-21_17h00.28.145,vts_reward_expectancy_bt,2022.2.4,Win32,143.3486239,Chrome,1536,864,,,a,0.5301,10,392,2,0,4,4,6,1,0,0,1,0,1,0,0,0,hexagon,triangle,,,,,,,,,,,,,,,,,,,,,,,,,,,,,,,,,,,,,,,,,,,,,,,,,,,,,,
295276,2022-11-21_17h00.28.145,vts_reward_expectancy_bt,2022.2.4,Win32,143.3486239,Chrome,1536,864,,,l,0.7845,1,393,2,0,5,5,5,1,0,1,0,0,0,0,0,1,circle,star,,,,,,,,,,,,,,,,,,,,,,,,,,,,,,,,,,,,,,,,,,,,,,,,,,,,,,
295276,2022-11-21_17h00.28.145,vts_reward_expectancy_bt,2022.2.4,Win32,143.3486239,Chrome,1536,864,,,a,0.9617,1,394,2,0,6,6,8,1,0,0,1,0,0,0,0,1,hexagon,star,,,,,,,,,,,,,,,,,,,,,,,,,,,,,,,,,,,,,,,,,,,,,,,,,,,,,,
295276,2022-11-21_17h00.28.145,vts_reward_expectancy_bt,2022.2.4,Win32,143.3486239,Chrome,1536,864,,,l,0.7178,10,404,2,0,7,7,9,1,0,0,0,1,1,0,0,0,star,triangle,,,,,,,,,,,,,,,,,,,,,,,,,,,,,,,,,,,,,,,,,,,,,,,,,,,,,,
295276,2022-11-21_17h00.28.145,vts_reward_expectancy_bt,2022.2.4,Win32,143.3486239,Chrome,1536,864,,,a,1.1584,10,414,2,0,8,8,10,1,0,0,0,1,0,1,0,0,star ,circle,,,,,,,,,,,,,,,,,,,,,,,,,,,,,,,,,,,,,,,,,,,,,,,,,,,,,,
295276,2022-11-21_17h00.28.145,vts_reward_expectancy_bt,2022.2.4,Win32,143.3486239,Chrome,1536,864,,,l,0.7117,10,424,2,0,9,9,3,1,0,1,0,0,1,0,0,0,circle,triangle,,,,,,,,,,,,,,,,,,,,,,,,,,,,,,,,,,,,,,,,,,,,,,,,,,,,,,
295276,2022-11-21_17h00.28.145,vts_reward_expectancy_bt,2022.2.4,Win32,143.3486239,Chrome,1536,864,,,l,1.0103,10,434,2,0,10,10,11,1,0,0,0,1,0,0,1,0,star,hexagon,,,,,,,,,,,,,,,,,,,,,,,,,,,,,,,,,,,,,,,,,,,,,,,,,,,,,,
295276,2022-11-21_17h00.28.145,vts_reward_expectancy_bt,2022.2.4,Win32,143.3486239,Chrome,1536,864,,,l,1.2513,10,444,2,0,11,11,4,1,0,1,0,0,0,0,1,0,circle,hexagon,,,,,,,,,,,,,,,,,,,,,,,,,,,,,,,,,,,,,,,,,,,,,,,,,,,,,,
295276,2022-11-21_17h00.28.145,vts_reward_expectancy_bt,2022.2.4,Win32,143.3486239,Chrome,1536,864,,,l,1.0532,1,445,2,1,0,12,4,1,0,1,0,0,0,0,1,0,circle,hexagon,,,,,,,,,,,,,,,,,,,,,,,,,,,,,,,,,,,,,,,,,,,,,,,,,,,,,,
295276,2022-11-21_17h00.28.145,vts_reward_expectancy_bt,2022.2.4,Win32,143.3486239,Chrome,1536,864,,,a,1.2058,1,446,2,1,1,13,1,1,1,0,0,0,0,0,1,0,triangle,hexagon,,,,,,,,,,,,,,,,,,,,,,,,,,,,,,,,,,,,,,,,,,,,,,,,,,,,,,
295276,2022-11-21_17h00.28.145,vts_reward_expectancy_bt,2022.2.4,Win32,143.3486239,Chrome,1536,864,,,l,0.7874,1,447,2,1,2,14,9,1,0,0,0,1,1,0,0,0,star,triangle,,,,,,,,,,,,,,,,,,,,,,,,,,,,,,,,,,,,,,,,,,,,,,,,,,,,,,
295276,2022-11-21_17h00.28.145,vts_reward_expectancy_bt,2022.2.4,Win32,143.3486239,Chrome,1536,864,,,a,1.3831,10,457,2,1,3,15,5,1,0,1,0,0,0,0,0,1,circle,star,,,,,,,,,,,,,,,,,,,,,,,,,,,,,,,,,,,,,,,,,,,,,,,,,,,,,,
295276,2022-11-21_17h00.28.145,vts_reward_expectancy_bt,2022.2.4,Win32,143.3486239,Chrome,1536,864,,,l,0.9397,10,467,2,1,4,16,10,1,0,0,0,1,0,1,0,0,star ,circle,,,,,,,,,,,,,,,,,,,,,,,,,,,,,,,,,,,,,,,,,,,,,,,,,,,,,,
295276,2022-11-21_17h00.28.145,vts_reward_expectancy_bt,2022.2.4,Win32,143.3486239,Chrome,1536,864,,,a,1.2276,1,468,2,1,5,17,0,1,1,0,0,0,0,1,0,0,triangle,circle,,,,,,,,,,,,,,,,,,,,,,,,,,,,,,,,,,,,,,,,,,,,,,,,,,,,,,
295276,2022-11-21_17h00.28.145,vts_reward_expectancy_bt,2022.2.4,Win32,143.3486239,Chrome,1536,864,,,a,0.8324,1,469,2,1,6,18,8,1,0,0,1,0,0,0,0,1,hexagon,star,,,,,,,,,,,,,,,,,,,,,,,,,,,,,,,,,,,,,,,,,,,,,,,,,,,,,,
295276,2022-11-21_17h00.28.145,vts_reward_expectancy_bt,2022.2.4,Win32,143.3486239,Chrome,1536,864,,,l,0.6896,1,470,2,1,7,19,11,1,0,0,0,1,0,0,1,0,star,hexagon,,,,,,,,,,,,,,,,,,,,,,,,,,,,,,,,,,,,,,,,,,,,,,,,,,,,,,
295276,2022-11-21_17h00.28.145,vts_reward_expectancy_bt,2022.2.4,Win32,143.3486239,Chrome,1536,864,,,l,0.8537,10,480,2,1,8,20,7,1,0,0,1,0,0,1,0,0,hexagon,circle,,,,,,,,,,,,,,,,,,,,,,,,,,,,,,,,,,,,,,,,,,,,,,,,,,,,,,
295276,2022-11-21_17h00.28.145,vts_reward_expectancy_bt,2022.2.4,Win32,143.3486239,Chrome,1536,864,,,a,0.7541,10,490,2,1,9,21,2,1,1,0,0,0,0,0,0,1,triangle,star,,,,,,,,,,,,,,,,,,,,,,,,,,,,,,,,,,,,,,,,,,,,,,,,,,,,,,
295276,2022-11-21_17h00.28.145,vts_reward_expectancy_bt,2022.2.4,Win32,143.3486239,Chrome,1536,864,,,a,1.0095,10,500,2,1,10,22,3,1,0,1,0,0,1,0,0,0,circle,triangle,,,,,,,,,,,,,,,,,,,,,,,,,,,,,,,,,,,,,,,,,,,,,,,,,,,,,,
295276,2022-11-21_17h00.28.145,vts_reward_expectancy_bt,2022.2.4,Win32,143.3486239,Chrome,1536,864,,,l,0.9875,1,501,2,1,11,23,6,1,0,0,1,0,1,0,0,0,hexagon,triangle,,,,,,,,,,,,,,,,,,,,,,,,,,,,,,,,,,,,,,,,,,,,,,,,,,,,,,
295276,2022-11-21_17h00.28.145,vts_reward_expectancy_bt,2022.2.4,Win32,143.3486239,Chrome,1536,864,,,l,0.7589,10,511,2,2,0,24,10,1,0,0,0,1,0,1,0,0,star ,circle,,,,,,,,,,,,,,,,,,,,,,,,,,,,,,,,,,,,,,,,,,,,,,,,,,,,,,
295276,2022-11-21_17h00.28.145,vts_reward_expectancy_bt,2022.2.4,Win32,143.3486239,Chrome,1536,864,,,a,0.6002,10,521,2,2,1,25,2,1,1,0,0,0,0,0,0,1,triangle,star,,,,,,,,,,,,,,,,,,,,,,,,,,,,,,,,,,,,,,,,,,,,,,,,,,,,,,
295276,2022-11-21_17h00.28.145,vts_reward_expectancy_bt,2022.2.4,Win32,143.3486239,Chrome,1536,864,,,l,0.6221,1,522,2,2,2,26,9,1,0,0,0,1,1,0,0,0,star,triangle,,,,,,,,,,,,,,,,,,,,,,,,,,,,,,,,,,,,,,,,,,,,,,,,,,,,,,
295276,2022-11-21_17h00.28.145,vts_reward_expectancy_bt,2022.2.4,Win32,143.3486239,Chrome,1536,864,,,l,1.0072,10,532,2,2,3,27,7,1,0,0,1,0,0,1,0,0,hexagon,circle,,,,,,,,,,,,,,,,,,,,,,,,,,,,,,,,,,,,,,,,,,,,,,,,,,,,,,
295276,2022-11-21_17h00.28.145,vts_reward_expectancy_bt,2022.2.4,Win32,143.3486239,Chrome,1536,864,,,l,0.9621,1,533,2,2,4,28,1,1,1,0,0,0,0,0,1,0,triangle,hexagon,,,,,,,,,,,,,,,,,,,,,,,,,,,,,,,,,,,,,,,,,,,,,,,,,,,,,,
295276,2022-11-21_17h00.28.145,vts_reward_expectancy_bt,2022.2.4,Win32,143.3486239,Chrome,1536,864,,,a,1.167,10,543,2,2,5,29,4,1,0,1,0,0,0,0,1,0,circle,hexagon,,,,,,,,,,,,,,,,,,,,,,,,,,,,,,,,,,,,,,,,,,,,,,,,,,,,,,
295276,2022-11-21_17h00.28.145,vts_reward_expectancy_bt,2022.2.4,Win32,143.3486239,Chrome,1536,864,,,l,0.5503,10,553,2,2,6,30,0,1,1,0,0,0,0,1,0,0,triangle,circle,,,,,,,,,,,,,,,,,,,,,,,,,,,,,,,,,,,,,,,,,,,,,,,,,,,,,,
295276,2022-11-21_17h00.28.145,vts_reward_expectancy_bt,2022.2.4,Win32,143.3486239,Chrome,1536,864,,,l,0.6967,1,554,2,2,7,31,11,1,0,0,0,1,0,0,1,0,star,hexagon,,,,,,,,,,,,,,,,,,,,,,,,,,,,,,,,,,,,,,,,,,,,,,,,,,,,,,
295276,2022-11-21_17h00.28.145,vts_reward_expectancy_bt,2022.2.4,Win32,143.3486239,Chrome,1536,864,,,a,0.7151,10,564,2,2,8,32,5,1,0,1,0,0,0,0,0,1,circle,star,,,,,,,,,,,,,,,,,,,,,,,,,,,,,,,,,,,,,,,,,,,,,,,,,,,,,,
295276,2022-11-21_17h00.28.145,vts_reward_expectancy_bt,2022.2.4,Win32,143.3486239,Chrome,1536,864,,,a,0.8238,10,574,2,2,9,33,6,1,0,0,1,0,1,0,0,0,hexagon,triangle,,,,,,,,,,,,,,,,,,,,,,,,,,,,,,,,,,,,,,,,,,,,,,,,,,,,,,
295276,2022-11-21_17h00.28.145,vts_reward_expectancy_bt,2022.2.4,Win32,143.3486239,Chrome,1536,864,,,a,0.8334,10,584,2,2,10,34,3,1,0,1,0,0,1,0,0,0,circle,triangle,,,,,,,,,,,,,,,,,,,,,,,,,,,,,,,,,,,,,,,,,,,,,,,,,,,,,,
295276,2022-11-21_17h00.28.145,vts_reward_expectancy_bt,2022.2.4,Win32,143.3486239,Chrome,1536,864,,,a,0.9141,1,585,2,2,11,35,8,1,0,0,1,0,0,0,0,1,hexagon,star,,,,,,,,,,,,,,,,,,,,,,,,,,,,,,,,,,,,,,,,,,,,,,,,,,,,,,
295276,2022-11-21_17h00.28.145,vts_reward_expectancy_bt,2022.2.4,Win32,143.3486239,Chrome,1536,864,,,,,,,,,,,,,,,,,,,,,,,146,Y,triangle,0,0,,0,0,0,0,0,1,,,,,,,,,,,,,,,,,,,,,,,,,,,,,,,,,,,,,,,,,,
295276,2022-11-21_17h00.28.145,vts_reward_expectancy_bt,2022.2.4,Win32,143.3486239,Chrome,1536,864,,,,,,,,,,,,,,,,,,,,,,,181,F,hexagon,1,1,f,0,1,0,1,0,1,1.2003,,,,,,,,,,,,,,,,,,,,,,,,,,,,,,,,,,,,,,,,,
295276,2022-11-21_17h00.28.145,vts_reward_expectancy_bt,2022.2.4,Win32,143.3486239,Chrome,1536,864,,,,,,,,,,,,,,,,,,,,,,,125,H,star,0,0,f,0,2,0,2,0,1,1.2836,,,,,,,,,,,,,,,,,,,,,,,,,,,,,,,,,,,,,,,,,
295276,2022-11-21_17h00.28.145,vts_reward_expectancy_bt,2022.2.4,Win32,143.3486239,Chrome,1536,864,,,,,,,,,,,,,,,,,,,,,,,174,W,circle,1,1,f,0,3,0,3,0,1,0.7099,,,,,,,,,,,,,,,,,,,,,,,,,,,,,,,,,,,,,,,,,
295276,2022-11-21_17h00.28.145,vts_reward_expectancy_bt,2022.2.4,Win32,143.3486239,Chrome,1536,864,,,,,,,,,,,,,,,,,,,,,,,139,S,triangle,1,0,d,0,4,0,4,0,1,0.5894,,,,,,,,,,,,,,,,,,,,,,,,,,,,,,,,,,,,,,,,,
295276,2022-11-21_17h00.28.145,vts_reward_expectancy_bt,2022.2.4,Win32,143.3486239,Chrome,1536,864,,,,,,,,,,,,,,,,,,,,,,,160,D,hexagon,1,0,f,0,5,0,5,0,1,0.727,,,,,,,,,,,,,,,,,,,,,,,,,,,,,,,,,,,,,,,,,
295276,2022-11-21_17h00.28.145,vts_reward_expectancy_bt,2022.2.4,Win32,143.3486239,Chrome,1536,864,,,,,,,,,,,,,,,,,,,,,,,167,B,star,1,0,f,0,6,0,6,0,1,0.7101,,,,,,,,,,,,,,,,,,,,,,,,,,,,,,,,,,,,,,,,,
295276,2022-11-21_17h00.28.145,vts_reward_expectancy_bt,2022.2.4,Win32,143.3486239,Chrome,1536,864,,,,,,,,,,,,,,,,,,,,,,,132,U,circle,0,0,f,0,7,0,7,0,1,1.4015,,,,,,,,,,,,,,,,,,,,,,,,,,,,,,,,,,,,,,,,,
295276,2022-11-21_17h00.28.145,vts_reward_expectancy_bt,2022.2.4,Win32,143.3486239,Chrome,1536,864,,,,,,,,,,,,,,,,,,,,,,,146,Y,triangle,1,1,d,0,8,0,8,0,1,1.2982,,,,,,,,,,,,,,,,,,,,,,,,,,,,,,,,,,,,,,,,,
295276,2022-11-21_17h00.28.145,vts_reward_expectancy_bt,2022.2.4,Win32,143.3486239,Chrome,1536,864,,,,,,,,,,,,,,,,,,,,,,,181,F,circle,1,0,f,0,9,0,9,0,1,0.6614,,,,,,,,,,,,,,,,,,,,,,,,,,,,,,,,,,,,,,,,,
295276,2022-11-21_17h00.28.145,vts_reward_expectancy_bt,2022.2.4,Win32,143.3486239,Chrome,1536,864,,,,,,,,,,,,,,,,,,,,,,,174,D,star,1,0,f,1,0,0,0,0,1,0.8135,,,,,,,,,,,,,,,,,,,,,,,,,,,,,,,,,,,,,,,,,
295276,2022-11-21_17h00.28.145,vts_reward_expectancy_bt,2022.2.4,Win32,143.3486239,Chrome,1536,864,,,,,,,,,,,,,,,,,,,,,,,139,U,circle,1,0,d,1,1,0,1,0,1,0.6717,,,,,,,,,,,,,,,,,,,,,,,,,,,,,,,,,,,,,,,,,
295276,2022-11-21_17h00.28.145,vts_reward_expectancy_bt,2022.2.4,Win32,143.3486239,Chrome,1536,864,,,,,,,,,,,,,,,,,,,,,,,167,Y,triangle,1,0,f,1,2,0,2,0,1,0.6454,,,,,,,,,,,,,,,,,,,,,,,,,,,,,,,,,,,,,,,,,
295276,2022-11-21_17h00.28.145,vts_reward_expectancy_bt,2022.2.4,Win32,143.3486239,Chrome,1536,864,,,,,,,,,,,,,,,,,,,,,,,160,S,hexagon,1,0,f,1,3,0,3,0,1,0.6448,,,,,,,,,,,,,,,,,,,,,,,,,,,,,,,,,,,,,,,,,
295276,2022-11-21_17h00.28.145,vts_reward_expectancy_bt,2022.2.4,Win32,143.3486239,Chrome,1536,864,,,,,,,,,,,,,,,,,,,,,,,146,B,star,1,0,d,1,4,0,4,0,1,0.6443,,,,,,,,,,,,,,,,,,,,,,,,,,,,,,,,,,,,,,,,,
295276,2022-11-21_17h00.28.145,vts_reward_expectancy_bt,2022.2.4,Win32,143.3486239,Chrome,1536,864,,,,,,,,,,,,,,,,,,,,,,,132,W,circle,1,0,d,1,5,0,5,0,1,0.7361,,,,,,,,,,,,,,,,,,,,,,,,,,,,,,,,,,,,,,,,,
295276,2022-11-21_17h00.28.145,vts_reward_expectancy_bt,2022.2.4,Win32,143.3486239,Chrome,1536,864,,,,,,,,,,,,,,,,,,,,,,,181,F,triangle,1,0,f,1,6,0,6,0,1,0.6876,,,,,,,,,,,,,,,,,,,,,,,,,,,,,,,,,,,,,,,,,
295276,2022-11-21_17h00.28.145,vts_reward_expectancy_bt,2022.2.4,Win32,143.3486239,Chrome,1536,864,,,,,,,,,,,,,,,,,,,,,,,125,H,hexagon,1,0,d,1,7,0,7,0,1,0.9766,,,,,,,,,,,,,,,,,,,,,,,,,,,,,,,,,,,,,,,,,
295276,2022-11-21_17h00.28.145,vts_reward_expectancy_bt,2022.2.4,Win32,143.3486239,Chrome,1536,864,,,,,,,,,,,,,,,,,,,,,,,174,D,star,1,0,f,1,8,0,8,0,1,0.7805,,,,,,,,,,,,,,,,,,,,,,,,,,,,,,,,,,,,,,,,,
295276,2022-11-21_17h00.28.145,vts_reward_expectancy_bt,2022.2.4,Win32,143.3486239,Chrome,1536,864,,,,,,,,,,,,,,,,,,,,,,,139,U,circle,1,0,d,1,9,0,9,0,1,0.7286,,,,,,,,,,,,,,,,,,,,,,,,,,,,,,,,,,,,,,,,,
295276,2022-11-21_17h00.28.145,vts_reward_expectancy_bt,2022.2.4,Win32,143.3486239,Chrome,1536,864,,,,,,,,,,,,,,,,,,,,,,,139,B,star,1,0,,2,,,,,,,j,0.9159,0,0,0,0,1,,,,,,,,,,,,,,,,,,,,,,,,,,,,,,,,,,
295276,2022-11-21_17h00.28.145,vts_reward_expectancy_bt,2022.2.4,Win32,143.3486239,Chrome,1536,864,,,,,,,,,,,,,,,,,,,,,,,174,F,hexagon,1,0,,2,,,,,,,j,1.0485,1,0,1,0,1,,,,,,,,,,,,,,,,,,,,,,,,,,,,,,,,,,
295276,2022-11-21_17h00.28.145,vts_reward_expectancy_bt,2022.2.4,Win32,143.3486239,Chrome,1536,864,,,,,,,,,,,,,,,,,,,,,,,167,H,circle,1,0,,2,,,,,,,j,1.5853,2,0,2,0,1,,,,,,,,,,,,,,,,,,,,,,,,,,,,,,,,,,
295276,2022-11-21_17h00.28.145,vts_reward_expectancy_bt,2022.2.4,Win32,143.3486239,Chrome,1536,864,,,,,,,,,,,,,,,,,,,,,,,125,W,triangle,1,0,,2,,,,,,,k,0.8636,3,0,3,0,1,,,,,,,,,,,,,,,,,,,,,,,,,,,,,,,,,,
295276,2022-11-21_17h00.28.145,vts_reward_expectancy_bt,2022.2.4,Win32,143.3486239,Chrome,1536,864,,,,,,,,,,,,,,,,,,,,,,,132,D,star,1,0,,2,,,,,,,j,0.6965,4,0,4,0,1,,,,,,,,,,,,,,,,,,,,,,,,,,,,,,,,,,
295276,2022-11-21_17h00.28.145,vts_reward_expectancy_bt,2022.2.4,Win32,143.3486239,Chrome,1536,864,,,,,,,,,,,,,,,,,,,,,,,146,S,hexagon,1,0,,2,,,,,,,k,0.7368,5,0,5,0,1,,,,,,,,,,,,,,,,,,,,,,,,,,,,,,,,,,
295276,2022-11-21_17h00.28.145,vts_reward_expectancy_bt,2022.2.4,Win32,143.3486239,Chrome,1536,864,,,,,,,,,,,,,,,,,,,,,,,181,Y,circle,1,0,,2,,,,,,,k,0.8195,6,0,6,0,1,,,,,,,,,,,,,,,,,,,,,,,,,,,,,,,,,,
295276,2022-11-21_17h00.28.145,vts_reward_expectancy_bt,2022.2.4,Win32,143.3486239,Chrome,1536,864,,,,,,,,,,,,,,,,,,,,,,,160,U,triangle,1,0,,2,,,,,,,k,0.7554,7,0,7,0,1,,,,,,,,,,,,,,,,,,,,,,,,,,,,,,,,,,
295276,2022-11-21_17h00.28.145,vts_reward_expectancy_bt,2022.2.4,Win32,143.3486239,Chrome,1536,864,,,,,,,,,,,,,,,,,,,,,,,139,B,star,1,0,,2,,,,,,,j,0.7352,8,0,8,0,1,,,,,,,,,,,,,,,,,,,,,,,,,,,,,,,,,,
295276,2022-11-21_17h00.28.145,vts_reward_expectancy_bt,2022.2.4,Win32,143.3486239,Chrome,1536,864,,,,,,,,,,,,,,,,,,,,,,,174,F,triangle,1,0,,2,,,,,,,j,0.9307,9,0,9,0,1,,,,,,,,,,,,,,,,,,,,,,,,,,,,,,,,,,
295276,2022-11-21_17h00.28.145,vts_reward_expectancy_bt,2022.2.4,Win32,143.3486239,Chrome,1536,864,,,,,0,585,,,,,,,,,,,,,,,,,132,D,circle,1,0,,3,,,,,,,,,,,,,,-1,letter,NA,j,1.2723,vtsPrac,0,0,0,0,1,,,,,,,,,,,,,,,,,,,,,,,
295276,2022-11-21_17h00.28.145,vts_reward_expectancy_bt,2022.2.4,Win32,143.3486239,Chrome,1536,864,,,,,0,585,,,,,,,,,,,,,,,,,146,W,star,1,0,,3,,,,,,,,,,,,,,repeat,letter,lettRpt,k,0.8871,vtsPrac,1,0,1,0,1,,,,,,,,,,,,,,,,,,,,,,,
295276,2022-11-21_17h00.28.145,vts_reward_expectancy_bt,2022.2.4,Win32,143.3486239,Chrome,1536,864,,,,,0,585,,,,,,,,,,,,,,,,,139,U,circle,1,0,,3,,,,,,,,,,,,,,repeat,letter,lettRpt,k,0.9041,vtsPrac,2,0,2,0,1,,,,,,,,,,,,,,,,,,,,,,,
295276,2022-11-21_17h00.28.145,vts_reward_expectancy_bt,2022.2.4,Win32,143.3486239,Chrome,1536,864,,,,,0,585,,,,,,,,,,,,,,,,,125,H,star,1,0,,3,,,,,,,,,,,,,,switch,number,numSwt,d,0.8273,vtsPrac,3,0,3,0,1,,,,,,,,,,,,,,,,,,,,,,,
295276,2022-11-21_17h00.28.145,vts_reward_expectancy_bt,2022.2.4,Win32,143.3486239,Chrome,1536,864,,,,,0,585,,,,,,,,,,,,,,,,,132,D,triangle,1,0,,3,,,,,,,,,,,,,,switch,letter,lettSwt,j,0.8416,vtsPrac,4,0,4,0,1,,,,,,,,,,,,,,,,,,,,,,,
295276,2022-11-21_17h00.28.145,vts_reward_expectancy_bt,2022.2.4,Win32,143.3486239,Chrome,1536,864,,,,,0,585,,,,,,,,,,,,,,,,,146,W,star,1,0,,3,,,,,,,,,,,,,,switch,number,numSwt,d,0.9913,vtsPrac,5,0,5,0,1,,,,,,,,,,,,,,,,,,,,,,,
295276,2022-11-21_17h00.28.145,vts_reward_expectancy_bt,2022.2.4,Win32,143.3486239,Chrome,1536,864,,,,,0,585,,,,,,,,,,,,,,,,,139,U,star,1,0,,3,,,,,,,,,,,,,,repeat,number,numRpt,d,0.8065,vtsPrac,6,0,6,0,1,,,,,,,,,,,,,,,,,,,,,,,
295276,2022-11-21_17h00.28.145,vts_reward_expectancy_bt,2022.2.4,Win32,143.3486239,Chrome,1536,864,,,,,0,585,,,,,,,,,,,,,,,,,125,H,circle,1,0,,3,,,,,,,,,,,,,,repeat,number,numRpt,d,0.7684,vtsPrac,7,0,7,0,1,,,,,,,,,,,,,,,,,,,,,,,
295276,2022-11-21_17h00.28.145,vts_reward_expectancy_bt,2022.2.4,Win32,143.3486239,Chrome,1536,864,,,,,0,585,,,,,,,,,,,,,,,,,132,Y,hexagon,1,0,,3,,,,,,,,,,,,,,switch,letter,lettSwt,k,0.6474,vtsPrac,8,0,8,0,1,,,,,,,,,,,,,,,,,,,,,,,
295276,2022-11-21_17h00.28.145,vts_reward_expectancy_bt,2022.2.4,Win32,143.3486239,Chrome,1536,864,,,,,0,585,,,,,,,,,,,,,,,,,160,W,circle,1,0,,3,,,,,,,,,,,,,,repeat,letter,lettRpt,k,0.8343,vtsPrac,9,0,9,0,1,,,,,,,,,,,,,,,,,,,,,,,
295276,2022-11-21_17h00.28.145,vts_reward_expectancy_bt,2022.2.4,Win32,143.3486239,Chrome,1536,864,,,,,0,585,,,,,,,,,,,,,,,,,181,F,circle,1,0,,3,,,,,,,,,,,,,,switch,number,numSwt,f,0.8562,vtsPrac,10,0,10,0,1,,,,,,,,,,,,,,,,,,,,,,,
295276,2022-11-21_17h00.28.145,vts_reward_expectancy_bt,2022.2.4,Win32,143.3486239,Chrome,1536,864,,,,,0,585,,,,,,,,,,,,,,,,,167,S,star,1,0,,3,,,,,,,,,,,,,,switch,letter,lettSwt,k,0.7281,vtsPrac,11,0,11,0,1,,,,,,,,,,,,,,,,,,,,,,,
295276,2022-11-21_17h00.28.145,vts_reward_expectancy_bt,2022.2.4,Win32,143.3486239,Chrome,1536,864,,,,,0,585,,,,,,,,,,,,,,,,,139,B,hexagon,1,0,,3,,,,,,,,,,,,,,switch,number,numSwt,d,0.597,vtsPrac,12,0,12,0,1,,,,,,,,,,,,,,,,,,,,,,,
295276,2022-11-21_17h00.28.145,vts_reward_expectancy_bt,2022.2.4,Win32,143.3486239,Chrome,1536,864,,,,,0,585,,,,,,,,,,,,,,,,,125,S,triangle,1,0,,3,,,,,,,,,,,,,,switch,letter,lettSwt,k,0.7098,vtsPrac,13,0,13,0,1,,,,,,,,,,,,,,,,,,,,,,,
295276,2022-11-21_17h00.28.145,vts_reward_expectancy_bt,2022.2.4,Win32,143.3486239,Chrome,1536,864,,,,,0,585,,,,,,,,,,,,,,,,,160,Y,circle,1,0,,3,,,,,,,,,,,,,,switch,number,numSwt,f,0.6861,vtsPrac,14,0,14,0,1,,,,,,,,,,,,,,,,,,,,,,,
295276,2022-11-21_17h00.28.145,vts_reward_expectancy_bt,2022.2.4,Win32,143.3486239,Chrome,1536,864,,,,,0,585,,,,,,,,,,,,,,,,,181,F,triangle,1,0,,3,,,,,,,,,,,,,,switch,letter,lettSwt,j,0.5967,vtsPrac,15,0,15,0,1,,,,,,,,,,,,,,,,,,,,,,,
295276,2022-11-21_17h00.28.145,vts_reward_expectancy_bt,2022.2.4,Win32,143.3486239,Chrome,1536,864,,,,,0,585,,,,,,,,,,,,,,,,,132,S,circle,1,0,,3,,,,,,,,,,,,,,repeat,letter,lettRpt,k,0.7587,vtsPrac,16,0,16,0,1,,,,,,,,,,,,,,,,,,,,,,,
295276,2022-11-21_17h00.28.145,vts_reward_expectancy_bt,2022.2.4,Win32,143.3486239,Chrome,1536,864,,,,,0,585,,,,,,,,,,,,,,,,,139,U,triangle,1,0,,3,,,,,,,,,,,,,,switch,number,numSwt,d,0.8419,vtsPrac,17,0,17,0,1,,,,,,,,,,,,,,,,,,,,,,,
295276,2022-11-21_17h00.28.145,vts_reward_expectancy_bt,2022.2.4,Win32,143.3486239,Chrome,1536,864,,,,,0,585,,,,,,,,,,,,,,,,,160,Y,star,1,0,,3,,,,,,,,,,,,,,switch,letter,lettSwt,k,0.7289,vtsPrac,18,0,18,0,1,,,,,,,,,,,,,,,,,,,,,,,
295276,2022-11-21_17h00.28.145,vts_reward_expectancy_bt,2022.2.4,Win32,143.3486239,Chrome,1536,864,,,,,0,585,,,,,,,,,,,,,,,,,146,W,hexagon,1,0,,3,,,,,,,,,,,,,,repeat,letter,lettRpt,k,0.8347,vtsPrac,19,0,19,0,1,,,,,,,,,,,,,,,,,,,,,,,
295276,2022-11-21_17h00.28.145,vts_reward_expectancy_bt,2022.2.4,Win32,143.3486239,Chrome,1536,864,,,,,0,585,,,,,,,,,,,,,,,,,160,D,hexagon,1,0,,3,,,,,,,,,,,,,,switch,number,numSwt,f,0.6041,vtsPrac,20,0,20,0,1,,,,,,,,,,,,,,,,,,,,,,,
295276,2022-11-21_17h00.28.145,vts_reward_expectancy_bt,2022.2.4,Win32,143.3486239,Chrome,1536,864,,,,,0,585,,,,,,,,,,,,,,,,,125,H,star,1,0,,3,,,,,,,,,,,,,,repeat,number,numRpt,d,0.8956,vtsPrac,21,0,21,0,1,,,,,,,,,,,,,,,,,,,,,,,
295276,2022-11-21_17h00.28.145,vts_reward_expectancy_bt,2022.2.4,Win32,143.3486239,Chrome,1536,864,,,,,0,585,,,,,,,,,,,,,,,,,146,F,hexagon,1,0,,3,,,,,,,,,,,,,,switch,letter,lettSwt,j,0.8237,vtsPrac,22,0,22,0,1,,,,,,,,,,,,,,,,,,,,,,,
295276,2022-11-21_17h00.28.145,vts_reward_expectancy_bt,2022.2.4,Win32,143.3486239,Chrome,1536,864,,,,,0,585,,,,,,,,,,,,,,,,,167,S,circle,1,0,,3,,,,,,,,,,,,,,repeat,letter,lettRpt,k,1.1536,vtsPrac,23,0,23,0,1,,,,,,,,,,,,,,,,,,,,,,,
295276,2022-11-21_17h00.28.145,vts_reward_expectancy_bt,2022.2.4,Win32,143.3486239,Chrome,1536,864,,,,,0,585,,,,,,,,,,,,,,,,,132,S,star,1,0,,3,,,,,,,,,,,,,,switch,number,numSwt,d,0.6876,vtsPrac,24,0,24,0,1,,,,,,,,,,,,,,,,,,,,,,,
295276,2022-11-21_17h00.28.145,vts_reward_expectancy_bt,2022.2.4,Win32,143.3486239,Chrome,1536,864,,,,,0,585,,,,,,,,,,,,,,,,,174,B,circle,1,0,,3,,,,,,,,,,,,,,repeat,number,numRpt,f,0.911,vtsPrac,25,0,25,0,1,,,,,,,,,,,,,,,,,,,,,,,
295276,2022-11-21_17h00.28.145,vts_reward_expectancy_bt,2022.2.4,Win32,143.3486239,Chrome,1536,864,,,,,0,585,,,,,,,,,,,,,,,,,167,D,hexagon,1,0,,3,,,,,,,,,,,,,,switch,letter,lettSwt,j,0.8764,vtsPrac,26,0,26,0,1,,,,,,,,,,,,,,,,,,,,,,,
295276,2022-11-21_17h00.28.145,vts_reward_expectancy_bt,2022.2.4,Win32,143.3486239,Chrome,1536,864,,,,,0,585,,,,,,,,,,,,,,,,,139,U,triangle,1,0,,3,,,,,,,,,,,,,,repeat,letter,lettRpt,k,1.063,vtsPrac,27,0,27,0,1,,,,,,,,,,,,,,,,,,,,,,,
295276,2022-11-21_17h00.28.145,vts_reward_expectancy_bt,2022.2.4,Win32,143.3486239,Chrome,1536,864,,,,,0,585,,,,,,,,,,,,,,,,,174,D,hexagon,1,0,,3,,,,,,,,,,,,,,repeat,letter,lettRpt,j,0.7696,vtsPrac,28,0,28,0,1,,,,,,,,,,,,,,,,,,,,,,,
295276,2022-11-21_17h00.28.145,vts_reward_expectancy_bt,2022.2.4,Win32,143.3486239,Chrome,1536,864,,,,,0,585,,,,,,,,,,,,,,,,,167,Y,star,1,0,,3,,,,,,,,,,,,,,switch,number,numSwt,f,0.7354,vtsPrac,29,0,29,0,1,,,,,,,,,,,,,,,,,,,,,,,
295276,2022-11-21_17h00.28.145,vts_reward_expectancy_bt,2022.2.4,Win32,143.3486239,Chrome,1536,864,,,,,0,585,,,,,,,,,,,,,,,,,125,W,hexagon,1,0,,3,,,,,,,,,,,,,,switch,letter,lettSwt,k,0.7786,vtsPrac,30,0,30,0,1,,,,,,,,,,,,,,,,,,,,,,,
295276,2022-11-21_17h00.28.145,vts_reward_expectancy_bt,2022.2.4,Win32,143.3486239,Chrome,1536,864,,,,,0,585,,,,,,,,,,,,,,,,,160,B,star,1,0,,3,,,,,,,,,,,,,,switch,number,numSwt,f,0.7996,vtsPrac,31,0,31,0,1,,,,,,,,,,,,,,,,,,,,,,,
295276,2022-11-21_17h00.28.145,vts_reward_expectancy_bt,2022.2.4,Win32,143.3486239,Chrome,1536,864,,,,,,,,,,,,,,,,,,,,,,,,,,,,,,,,,,,,,,,,,,,,,,,,,,,,,,,,,,,,,,,,,,,,,,,,,,,,
295276,2022-11-21_17h00.28.145,vts_reward_expectancy_bt,2022.2.4,Win32,143.3486239,Chrome,1536,864,,,,,,,,,,,,,,,,,,,,,,,,,,,,,,,,,,,,,,,,,,,,,,,,,,,,,,,,,,,,,,,,,,,,,,,,,,,,
295276,2022-11-21_17h00.28.145,vts_reward_expectancy_bt,2022.2.4,Win32,143.3486239,Chrome,1536,864,,,,,0,585,,,,,,,,,,,,,,,,,174,D,triangle,1,0,,,,,,,,,,,,,,,,switch,letter,lettSwt,j,1.8556,noRew,,,,,,0,0,0,0,0,1,,,,,,,,,,,,,,,,,
295276,2022-11-21_17h00.28.145,vts_reward_expectancy_bt,2022.2.4,Win32,143.3486239,Chrome,1536,864,,,,,0,585,,,,,,,,,,,,,,,,,132,U,hexagon,1,0,,,,,,,,,,,,,,,,repeat,letter,lettRpt,k,0.9787,noRew,,,,,,0,1,0,1,0,1,,,,,,,,,,,,,,,,,
295276,2022-11-21_17h00.28.145,vts_reward_expectancy_bt,2022.2.4,Win32,143.3486239,Chrome,1536,864,,,,,0,585,,,,,,,,,,,,,,,,,139,H,triangle,1,0,,,,,,,,,,,,,,,,switch,number,numSwt,d,0.6182,noRew,,,,,,0,2,0,2,0,1,,,,,,,,,,,,,,,,,
295276,2022-11-21_17h00.28.145,vts_reward_expectancy_bt,2022.2.4,Win32,143.3486239,Chrome,1536,864,,,,,0,585,,,,,,,,,,,,,,,,,160,B,hexagon,1,0,,,,,,,,,,,,,,,,repeat,number,numRpt,f,0.7696,noRew,,,,,,0,3,0,3,0,1,,,,,,,,,,,,,,,,,
295276,2022-11-21_17h00.28.145,vts_reward_expectancy_bt,2022.2.4,Win32,143.3486239,Chrome,1536,864,,,,,0,585,,,,,,,,,,,,,,,,,174,D,circle,1,0,,,,,,,,,,,,,,,,repeat,number,numRpt,f,0.7853,noRew,,,,,,0,4,0,4,0,1,,,,,,,,,,,,,,,,,
295276,2022-11-21_17h00.28.145,vts_reward_expectancy_bt,2022.2.4,Win32,143.3486239,Chrome,1536,864,,,,,0,585,,,,,,,,,,,,,,,,,132,U,triangle,1,0,,,,,,,,,,,,,,,,switch,letter,lettSwt,k,0.5968,noRew,,,,,,0,5,0,5,0,1,,,,,,,,,,,,,,,,,
295276,2022-11-21_17h00.28.145,vts_reward_expectancy_bt,2022.2.4,Win32,143.3486239,Chrome,1536,864,,,,,0,585,,,,,,,,,,,,,,,,,139,H,hexagon,1,0,,,,,,,,,,,,,,,,switch,number,numSwt,d,0.7562,noRew,,,,,,0,6,0,6,0,1,,,,,,,,,,,,,,,,,
295276,2022-11-21_17h00.28.145,vts_reward_expectancy_bt,2022.2.4,Win32,143.3486239,Chrome,1536,864,,,,,0,585,,,,,,,,,,,,,,,,,160,B,triangle,1,0,,,,,,,,,,,,,,,,switch,letter,lettSwt,j,0.7157,noRew,,,,,,0,7,0,7,0,1,,,,,,,,,,,,,,,,,
295276,2022-11-21_17h00.28.145,vts_reward_expectancy_bt,2022.2.4,Win32,143.3486239,Chrome,1536,864,,,,,0,585,,,,,,,,,,,,,,,,,139,S,circle,1,0,,,,,,,,,,,,,,,,switch,number,numSwt,d,0.6306,noRew,,,,,,0,8,0,8,0,1,,,,,,,,,,,,,,,,,
295276,2022-11-21_17h00.28.145,vts_reward_expectancy_bt,2022.2.4,Win32,143.3486239,Chrome,1536,864,,,,,0,585,,,,,,,,,,,,,,,,,174,U,star,1,0,,,,,,,,,,,,,,,,repeat,number,numRpt,f,0.8279,noRew,,,,,,0,9,0,9,0,1,,,,,,,,,,,,,,,,,
295276,2022-11-21_17h00.28.145,vts_reward_expectancy_bt,2022.2.4,Win32,143.3486239,Chrome,1536,864,,,,,0,585,,,,,,,,,,,,,,,,,160,W,hexagon,1,0,,,,,,,,,,,,,,,,repeat,number,numRpt,f,1.1942,noRew,,,,,,0,10,0,10,0,1,,,,,,,,,,,,,,,,,
295276,2022-11-21_17h00.28.145,vts_reward_expectancy_bt,2022.2.4,Win32,143.3486239,Chrome,1536,864,,,,,0,585,,,,,,,,,,,,,,,,,146,D,star,1,0,,,,,,,,,,,,,,,,switch,letter,lettSwt,j,1.4313,noRew,,,,,,0,11,0,11,0,1,,,,,,,,,,,,,,,,,
295276,2022-11-21_17h00.28.145,vts_reward_expectancy_bt,2022.2.4,Win32,143.3486239,Chrome,1536,864,,,,,0,585,,,,,,,,,,,,,,,,,174,W,triangle,1,0,,,,,,,,,,,,,,,,repeat,letter,lettRpt,k,0.6893,noRew,,,,,,0,12,0,12,0,1,,,,,,,,,,,,,,,,,
295276,2022-11-21_17h00.28.145,vts_reward_expectancy_bt,2022.2.4,Win32,143.3486239,Chrome,1536,864,,,,,0,585,,,,,,,,,,,,,,,,,125,S,hexagon,1,0,,,,,,,,,,,,,,,,repeat,letter,lettRpt,k,1.0212,noRew,,,,,,0,13,0,13,0,1,,,,,,,,,,,,,,,,,
295276,2022-11-21_17h00.28.145,vts_reward_expectancy_bt,2022.2.4,Win32,143.3486239,Chrome,1536,864,,,,,0,585,,,,,,,,,,,,,,,,,167,H,triangle,1,0,,,,,,,,,,,,,,,,repeat,letter,lettRpt,j,0.7312,noRew,,,,,,0,14,0,14,0,1,,,,,,,,,,,,,,,,,
295276,2022-11-21_17h00.28.145,vts_reward_expectancy_bt,2022.2.4,Win32,143.3486239,Chrome,1536,864,,,,,0,585,,,,,,,,,,,,,,,,,160,D,hexagon,1,0,,,,,,,,,,,,,,,,switch,number,numSwt,f,0.7714,noRew,,,,,,0,15,0,15,0,1,,,,,,,,,,,,,,,,,
295276,2022-11-21_17h00.28.145,vts_reward_expectancy_bt,2022.2.4,Win32,143.3486239,Chrome,1536,864,,,,,0,585,,,,,,,,,,,,,,,,,146,U,circle,1,0,,,,,,,,,,,,,,,,switch,letter,lettSwt,k,0.6956,noRew,,,,,,0,16,0,16,0,1,,,,,,,,,,,,,,,,,
295276,2022-11-21_17h00.28.145,vts_reward_expectancy_bt,2022.2.4,Win32,143.3486239,Chrome,1536,864,,,,,0,585,,,,,,,,,,,,,,,,,174,Y,star,1,0,,,,,,,,,,,,,,,,repeat,letter,lettRpt,k,0.6879,noRew,,,,,,0,17,0,17,0,1,,,,,,,,,,,,,,,,,
295276,2022-11-21_17h00.28.145,vts_reward_expectancy_bt,2022.2.4,Win32,143.3486239,Chrome,1536,864,,,,,0,585,,,,,,,,,,,,,,,,,139,W,hexagon,1,0,,,,,,,,,,,,,,,,switch,number,numSwt,d,1.3476,noRew,,,,,,0,18,0,18,0,1,,,,,,,,,,,,,,,,,
295276,2022-11-21_17h00.28.145,vts_reward_expectancy_bt,2022.2.4,Win32,143.3486239,Chrome,1536,864,,,,,0,585,,,,,,,,,,,,,,,,,167,B,triangle,1,0,,,,,,,,,,,,,,,,repeat,number,numRpt,f,0.771,noRew,,,,,,0,19,0,19,0,1,,,,,,,,,,,,,,,,,
295276,2022-11-21_17h00.28.145,vts_reward_expectancy_bt,2022.2.4,Win32,143.3486239,Chrome,1536,864,,,,,0,585,,,,,,,,,,,,,,,,,167,S,hexagon,1,0,,,,,,,,,,,,,,,,repeat,number,numRpt,f,0.6796,noRew,,,,,,0,20,0,20,0,1,,,,,,,,,,,,,,,,,
295276,2022-11-21_17h00.28.145,vts_reward_expectancy_bt,2022.2.4,Win32,143.3486239,Chrome,1536,864,,,,,0,585,,,,,,,,,,,,,,,,,160,F,circle,1,0,,,,,,,,,,,,,,,,switch,letter,lettSwt,j,0.917,noRew,,,,,,0,21,0,21,0,1,,,,,,,,,,,,,,,,,
295276,2022-11-21_17h00.28.145,vts_reward_expectancy_bt,2022.2.4,Win32,143.3486239,Chrome,1536,864,,,,,0,585,,,,,,,,,,,,,,,,,181,B,circle,1,0,,,,,,,,,,,,,,,,repeat,letter,lettRpt,j,0.8679,noRew,,,,,,0,22,0,22,0,1,,,,,,,,,,,,,,,,,
295276,2022-11-21_17h00.28.145,vts_reward_expectancy_bt,2022.2.4,Win32,143.3486239,Chrome,1536,864,,,,,0,585,,,,,,,,,,,,,,,,,132,U,triangle,1,0,,,,,,,,,,,,,,,,repeat,letter,lettRpt,k,0.8901,noRew,,,,,,0,23,0,23,0,1,,,,,,,,,,,,,,,,,
295276,2022-11-21_17h00.28.145,vts_reward_expectancy_bt,2022.2.4,Win32,143.3486239,Chrome,1536,864,,,,,0,585,,,,,,,,,,,,,,,,,167,W,circle,1,0,,,,,,,,,,,,,,,,switch,number,numSwt,f,0.7382,noRew,,,,,,0,24,0,24,0,1,,,,,,,,,,,,,,,,,
295276,2022-11-21_17h00.28.145,vts_reward_expectancy_bt,2022.2.4,Win32,143.3486239,Chrome,1536,864,,,,,0,585,,,,,,,,,,,,,,,,,132,D,hexagon,1,0,,,,,,,,,,,,,,,,repeat,number,numRpt,d,0.7777,noRew,,,,,,0,25,0,25,0,1,,,,,,,,,,,,,,,,,
295276,2022-11-21_17h00.28.145,vts_reward_expectancy_bt,2022.2.4,Win32,143.3486239,Chrome,1536,864,,,,,0,585,,,,,,,,,,,,,,,,,181,H,triangle,1,0,,,,,,,,,,,,,,,,repeat,number,numRpt,f,0.9171,noRew,,,,,,0,26,0,26,0,1,,,,,,,,,,,,,,,,,
295276,2022-11-21_17h00.28.145,vts_reward_expectancy_bt,2022.2.4,Win32,143.3486239,Chrome,1536,864,,,,,0,585,,,,,,,,,,,,,,,,,146,Y,circle,1,0,,,,,,,,,,,,,,,,switch,letter,lettSwt,k,0.6391,noRew,,,,,,0,27,0,27,0,1,,,,,,,,,,,,,,,,,
295276,2022-11-21_17h00.28.145,vts_reward_expectancy_bt,2022.2.4,Win32,143.3486239,Chrome,1536,864,,,,,0,585,,,,,,,,,,,,,,,,,181,U,triangle,1,0,,,,,,,,,,,,,,,,switch,number,numSwt,f,0.8662,noRew,,,,,,0,28,0,28,0,1,,,,,,,,,,,,,,,,,
295276,2022-11-21_17h00.28.145,vts_reward_expectancy_bt,2022.2.4,Win32,143.3486239,Chrome,1536,864,,,,,0,585,,,,,,,,,,,,,,,,,132,F,hexagon,1,0,,,,,,,,,,,,,,,,switch,letter,lettSwt,j,0.7794,noRew,,,,,,0,29,0,29,0,1,,,,,,,,,,,,,,,,,
295276,2022-11-21_17h00.28.145,vts_reward_expectancy_bt,2022.2.4,Win32,143.3486239,Chrome,1536,864,,,,,0,585,,,,,,,,,,,,,,,,,146,H,star,1,0,,,,,,,,,,,,,,,,repeat,letter,lettRpt,j,1.1523,noRew,,,,,,0,30,0,30,0,1,,,,,,,,,,,,,,,,,
295276,2022-11-21_17h00.28.145,vts_reward_expectancy_bt,2022.2.4,Win32,143.3486239,Chrome,1536,864,,,,,0,585,,,,,,,,,,,,,,,,,125,W,triangle,1,0,,,,,,,,,,,,,,,,switch,number,numSwt,d,1.2914,noRew,,,,,,0,31,0,31,0,1,,,,,,,,,,,,,,,,,
295276,2022-11-21_17h00.28.145,vts_reward_expectancy_bt,2022.2.4,Win32,143.3486239,Chrome,1536,864,,,,,0,585,,,,,,,,,,,,,,,,,125,F,star,1,0,,,,,,,,,,,,,,,,repeat,number,numRpt,d,1.54,noRew,,,,,,0,32,0,32,0,1,,,,,,,,,,,,,,,,,
295276,2022-11-21_17h00.28.145,vts_reward_expectancy_bt,2022.2.4,Win32,143.3486239,Chrome,1536,864,,,,,0,585,,,,,,,,,,,,,,,,,139,Y,hexagon,1,0,,,,,,,,,,,,,,,,switch,letter,lettSwt,k,0.6788,noRew,,,,,,0,33,0,33,0,1,,,,,,,,,,,,,,,,,
295276,2022-11-21_17h00.28.145,vts_reward_expectancy_bt,2022.2.4,Win32,143.3486239,Chrome,1536,864,,,,,0,585,,,,,,,,,,,,,,,,,160,W,star,1,0,,,,,,,,,,,,,,,,switch,number,numSwt,f,1.221,noRew,,,,,,0,34,0,34,0,1,,,,,,,,,,,,,,,,,
295276,2022-11-21_17h00.28.145,vts_reward_expectancy_bt,2022.2.4,Win32,143.3486239,Chrome,1536,864,,,,,0,585,,,,,,,,,,,,,,,,,181,B,hexagon,1,0,,,,,,,,,,,,,,,,repeat,number,numRpt,f,1.1181,noRew,,,,,,0,35,0,35,0,1,,,,,,,,,,,,,,,,,
295276,2022-11-21_17h00.28.145,vts_reward_expectancy_bt,2022.2.4,Win32,143.3486239,Chrome,1536,864,,,,,0,585,,,,,,,,,,,,,,,,,139,B,star,1,0,,,,,,,,,,,,,,,,repeat,number,numRpt,d,1.2549,noRew,,,,,,0,36,0,36,0,1,,,,,,,,,,,,,,,,,
295276,2022-11-21_17h00.28.145,vts_reward_expectancy_bt,2022.2.4,Win32,143.3486239,Chrome,1536,864,,,,,0,585,,,,,,,,,,,,,,,,,125,D,circle,1,0,,,,,,,,,,,,,,,,switch,letter,lettSwt,j,1.6663,noRew,,,,,,0,37,0,37,0,1,,,,,,,,,,,,,,,,,
295276,2022-11-21_17h00.28.145,vts_reward_expectancy_bt,2022.2.4,Win32,143.3486239,Chrome,1536,864,,,,,0,585,,,,,,,,,,,,,,,,,174,U,circle,1,0,,,,,,,,,,,,,,,,repeat,letter,lettRpt,k,0.7087,noRew,,,,,,0,38,0,38,0,1,,,,,,,,,,,,,,,,,
295276,2022-11-21_17h00.28.145,vts_reward_expectancy_bt,2022.2.4,Win32,143.3486239,Chrome,1536,864,,,,,0,585,,,,,,,,,,,,,,,,,146,W,triangle,1,0,,,,,,,,,,,,,,,,switch,number,numSwt,d,1.4221,noRew,,,,,,0,39,0,39,0,1,,,,,,,,,,,,,,,,,
295276,2022-11-21_17h00.28.145,vts_reward_expectancy_bt,2022.2.4,Win32,143.3486239,Chrome,1536,864,,,,,0,585,,,,,,,,,,,,,,,,,160,S,hexagon,1,0,,,,,,,,,,,,,,,,switch,letter,lettSwt,k,1.3113,noRew,,,,,,0,40,0,40,0,1,,,,,,,,,,,,,,,,,
295276,2022-11-21_17h00.28.145,vts_reward_expectancy_bt,2022.2.4,Win32,143.3486239,Chrome,1536,864,,,,,0,585,,,,,,,,,,,,,,,,,125,U,star,1,0,,,,,,,,,,,,,,,,repeat,letter,lettRpt,k,0.6878,noRew,,,,,,0,41,0,41,0,1,,,,,,,,,,,,,,,,,
295276,2022-11-21_17h00.28.145,vts_reward_expectancy_bt,2022.2.4,Win32,143.3486239,Chrome,1536,864,,,,,0,585,,,,,,,,,,,,,,,,,146,W,star,1,0,,,,,,,,,,,,,,,,switch,number,numSwt,d,1.0779,noRew,,,,,,0,42,0,42,0,1,,,,,,,,,,,,,,,,,
295276,2022-11-21_17h00.28.145,vts_reward_expectancy_bt,2022.2.4,Win32,143.3486239,Chrome,1536,864,,,,,0,585,,,,,,,,,,,,,,,,,167,D,hexagon,1,0,,,,,,,,,,,,,,,,repeat,number,numRpt,f,1.5397,noRew,,,,,,0,43,0,43,0,1,,,,,,,,,,,,,,,,,
295276,2022-11-21_17h00.28.145,vts_reward_expectancy_bt,2022.2.4,Win32,143.3486239,Chrome,1536,864,,,,,0,585,,,,,,,,,,,,,,,,,167,S,hexagon,1,0,,,,,,,,,,,,,,,,repeat,number,numRpt,f,0.6674,noRew,,,,,,0,44,0,44,0,1,,,,,,,,,,,,,,,,,
295276,2022-11-21_17h00.28.145,vts_reward_expectancy_bt,2022.2.4,Win32,143.3486239,Chrome,1536,864,,,,,0,585,,,,,,,,,,,,,,,,,181,D,circle,1,0,,,,,,,,,,,,,,,,repeat,number,numRpt,f,0.8191,noRew,,,,,,0,45,0,45,0,1,,,,,,,,,,,,,,,,,
295276,2022-11-21_17h00.28.145,vts_reward_expectancy_bt,2022.2.4,Win32,143.3486239,Chrome,1536,864,,,,,0,585,,,,,,,,,,,,,,,,,146,B,hexagon,1,0,,,,,,,,,,,,,,,,switch,letter,lettSwt,j,1.1106,noRew,,,,,,0,46,0,46,0,1,,,,,,,,,,,,,,,,,
295276,2022-11-21_17h00.28.145,vts_reward_expectancy_bt,2022.2.4,Win32,143.3486239,Chrome,1536,864,,,,,0,585,,,,,,,,,,,,,,,,,125,W,circle,1,0,,,,,,,,,,,,,,,,repeat,letter,lettRpt,k,0.7127,noRew,,,,,,0,47,0,47,0,1,,,,,,,,,,,,,,,,,
295276,2022-11-21_17h00.28.145,vts_reward_expectancy_bt,2022.2.4,Win32,143.3486239,Chrome,1536,864,,,,,0,585,,,,,,,,,,,,,,,,,125,H,star,1,0,,,,,,,,,,,,,,,,switch,number,numSwt,d,0.6334,noRew,,,,,,0,48,0,48,0,1,,,,,,,,,,,,,,,,,
295276,2022-11-21_17h00.28.145,vts_reward_expectancy_bt,2022.2.4,Win32,143.3486239,Chrome,1536,864,,,,,0,585,,,,,,,,,,,,,,,,,146,Y,circle,1,0,,,,,,,,,,,,,,,,repeat,number,numRpt,d,0.8943,noRew,,,,,,0,49,0,49,0,1,,,,,,,,,,,,,,,,,
295276,2022-11-21_17h00.28.145,vts_reward_expectancy_bt,2022.2.4,Win32,143.3486239,Chrome,1536,864,,,,,0,585,,,,,,,,,,,,,,,,,181,U,triangle,1,0,,,,,,,,,,,,,,,,switch,letter,lettSwt,k,0.731,noRew,,,,,,0,50,0,50,0,1,,,,,,,,,,,,,,,,,
295276,2022-11-21_17h00.28.145,vts_reward_expectancy_bt,2022.2.4,Win32,143.3486239,Chrome,1536,864,,,,,0,585,,,,,,,,,,,,,,,,,174,S,hexagon,1,0,,,,,,,,,,,,,,,,repeat,letter,lettRpt,k,0.8416,noRew,,,,,,0,51,0,51,0,1,,,,,,,,,,,,,,,,,
295276,2022-11-21_17h00.28.145,vts_reward_expectancy_bt,2022.2.4,Win32,143.3486239,Chrome,1536,864,,,,,0,585,,,,,,,,,,,,,,,,,160,F,hexagon,1,0,,,,,,,,,,,,,,,,switch,number,numSwt,f,1.0967,noRew,,,,,,0,52,0,52,0,1,,,,,,,,,,,,,,,,,
295276,2022-11-21_17h00.28.145,vts_reward_expectancy_bt,2022.2.4,Win32,143.3486239,Chrome,1536,864,,,,,0,585,,,,,,,,,,,,,,,,,181,H,circle,1,0,,,,,,,,,,,,,,,,switch,letter,lettSwt,j,0.792,noRew,,,,,,0,53,0,53,0,1,,,,,,,,,,,,,,,,,
295276,2022-11-21_17h00.28.145,vts_reward_expectancy_bt,2022.2.4,Win32,143.3486239,Chrome,1536,864,,,,,0,585,,,,,,,,,,,,,,,,,132,S,circle,1,0,,,,,,,,,,,,,,,,switch,number,numSwt,d,0.8452,noRew,,,,,,0,54,0,54,0,1,,,,,,,,,,,,,,,,,
295276,2022-11-21_17h00.28.145,vts_reward_expectancy_bt,2022.2.4,Win32,143.3486239,Chrome,1536,864,,,,,0,585,,,,,,,,,,,,,,,,,146,W,star,1,0,,,,,,,,,,,,,,,,switch,letter,lettSwt,k,0.8615,noRew,,,,,,0,55,0,55,0,1,,,,,,,,,,,,,,,,,
295276,2022-11-21_17h00.28.145,vts_reward_expectancy_bt,2022.2.4,Win32,143.3486239,Chrome,1536,864,,,,,0,585,,,,,,,,,,,,,,,,,146,B,circle,1,0,,,,,,,,,,,,,,,,switch,number,numSwt,d,0.7389,noRew,,,,,,0,56,0,56,0,1,,,,,,,,,,,,,,,,,
295276,2022-11-21_17h00.28.145,vts_reward_expectancy_bt,2022.2.4,Win32,143.3486239,Chrome,1536,864,,,,,0,585,,,,,,,,,,,,,,,,,160,U,hexagon,1,0,,,,,,,,,,,,,,,,repeat,number,numRpt,f,0.8377,noRew,,,,,,0,57,0,57,0,1,,,,,,,,,,,,,,,,,
295276,2022-11-21_17h00.28.145,vts_reward_expectancy_bt,2022.2.4,Win32,143.3486239,Chrome,1536,864,,,,,0,585,,,,,,,,,,,,,,,,,174,H,triangle,1,0,,,,,,,,,,,,,,,,repeat,number,numRpt,f,0.7245,noRew,,,,,,0,58,0,58,0,1,,,,,,,,,,,,,,,,,
295276,2022-11-21_17h00.28.145,vts_reward_expectancy_bt,2022.2.4,Win32,143.3486239,Chrome,1536,864,,,,,0,585,,,,,,,,,,,,,,,,,139,F,hexagon,1,0,,,,,,,,,,,,,,,,switch,letter,lettSwt,j,0.7502,noRew,,,,,,0,59,0,59,0,1,,,,,,,,,,,,,,,,,
295276,2022-11-21_17h00.28.145,vts_reward_expectancy_bt,2022.2.4,Win32,143.3486239,Chrome,1536,864,,,,,0,585,,,,,,,,,,,,,,,,,125,B,triangle,1,0,,,,,,,,,,,,,,,,repeat,letter,lettRpt,j,0.8901,noRew,,,,,,0,60,0,60,0,1,,,,,,,,,,,,,,,,,
295276,2022-11-21_17h00.28.145,vts_reward_expectancy_bt,2022.2.4,Win32,143.3486239,Chrome,1536,864,,,,,0,585,,,,,,,,,,,,,,,,,174,S,star,1,0,,,,,,,,,,,,,,,,switch,number,numSwt,f,0.6579,noRew,,,,,,0,61,0,61,0,1,,,,,,,,,,,,,,,,,
295276,2022-11-21_17h00.28.145,vts_reward_expectancy_bt,2022.2.4,Win32,143.3486239,Chrome,1536,864,,,,,0,585,,,,,,,,,,,,,,,,,132,Y,circle,1,0,,,,,,,,,,,,,,,,switch,letter,lettSwt,k,0.6411,noRew,,,,,,0,62,0,62,0,1,,,,,,,,,,,,,,,,,
295276,2022-11-21_17h00.28.145,vts_reward_expectancy_bt,2022.2.4,Win32,143.3486239,Chrome,1536,864,,,,,0,585,,,,,,,,,,,,,,,,,181,D,triangle,1,0,,,,,,,,,,,,,,,,repeat,letter,lettRpt,j,0.8132,noRew,,,,,,0,63,0,63,0,1,,,,,,,,,,,,,,,,,
295276,2022-11-21_17h00.28.145,vts_reward_expectancy_bt,2022.2.4,Win32,143.3486239,Chrome,1536,864,,,,,,,,,,,,,,,,,,,,,,,,,,,,,,,,,,,,,,,,,,,,,,,,,,,,,,,,,,,,,,,,,,,,,,,,,,,,
295276,2022-11-21_17h00.28.145,vts_reward_expectancy_bt,2022.2.4,Win32,143.3486239,Chrome,1536,864,,,,,0,585,,,,,,,,,,,,,,,,,125,H,circle,1,0,,,,,,,,,,,,,,,,repeat,letter,lettRpt,j,1.1088,Hi,,,,,,0,,,,,,space,17.3751,low,0,0,0,0,1,,,,,,,,,
295276,2022-11-21_17h00.28.145,vts_reward_expectancy_bt,2022.2.4,Win32,143.3486239,Chrome,1536,864,,,,,10,595,,,,,,,,,,,,,,,,,146,D,star,1,0,,,,,,,,,,,,,,,,repeat,letter,lettRpt,j,0.5781,Hi,,,,,,0,,,,,,,,low,1,0,1,0,1,,,,,,,,,
295276,2022-11-21_17h00.28.145,vts_reward_expectancy_bt,2022.2.4,Win32,143.3486239,Chrome,1536,864,,,,,1,596,,,,,,,,,,,,,,,,,181,Y,hexagon,1,0,,,,,,,,,,,,,,,,switch,number,numSwt,f,0.5647,Lo,,,,,,0,,,,,,,,low,2,0,2,0,1,,,,,,,,,
295276,2022-11-21_17h00.28.145,vts_reward_expectancy_bt,2022.2.4,Win32,143.3486239,Chrome,1536,864,,,,,10,606,,,,,,,,,,,,,,,,,167,W,triangle,1,0,,,,,,,,,,,,,,,,repeat,number,numRpt,f,0.807,Lo,,,,,,0,,,,,,,,low,3,0,3,0,1,,,,,,,,,
295276,2022-11-21_17h00.28.145,vts_reward_expectancy_bt,2022.2.4,Win32,143.3486239,Chrome,1536,864,,,,,1,607,,,,,,,,,,,,,,,,,132,U,circle,1,0,,,,,,,,,,,,,,,,repeat,number,numRpt,d,0.5367,Hi,,,,,,0,,,,,,,,low,4,0,4,0,1,,,,,,,,,
295276,2022-11-21_17h00.28.145,vts_reward_expectancy_bt,2022.2.4,Win32,143.3486239,Chrome,1536,864,,,,,10,617,,,,,,,,,,,,,,,,,160,S,star,1,0,,,,,,,,,,,,,,,,switch,letter,lettSwt,k,0.6183,Hi,,,,,,0,,,,,,,,low,5,0,5,0,1,,,,,,,,,
295276,2022-11-21_17h00.28.145,vts_reward_expectancy_bt,2022.2.4,Win32,143.3486239,Chrome,1536,864,,,,,1,618,,,,,,,,,,,,,,,,,174,F,hexagon,1,0,,,,,,,,,,,,,,,,repeat,letter,lettRpt,j,0.603,Lo,,,,,,0,,,,,,,,low,6,0,6,0,1,,,,,,,,,
295276,2022-11-21_17h00.28.145,vts_reward_expectancy_bt,2022.2.4,Win32,143.3486239,Chrome,1536,864,,,,,10,628,,,,,,,,,,,,,,,,,139,B,triangle,1,0,,,,,,,,,,,,,,,,switch,number,numSwt,d,0.5848,Lo,,,,,,0,,,,,,,,low,7,0,7,0,1,,,,,,,,,
295276,2022-11-21_17h00.28.145,vts_reward_expectancy_bt,2022.2.4,Win32,143.3486239,Chrome,1536,864,,,,,1,629,,,,,,,,,,,,,,,,,125,H,hexagon,1,0,,,,,,,,,,,,,,,,repeat,number,numRpt,d,0.6053,Lo,,,,,,0,,,,,,,,low,8,0,8,0,1,,,,,,,,,
295276,2022-11-21_17h00.28.145,vts_reward_expectancy_bt,2022.2.4,Win32,143.3486239,Chrome,1536,864,,,,,1,630,,,,,,,,,,,,,,,,,146,D,triangle,1,0,,,,,,,,,,,,,,,,switch,letter,lettSwt,j,0.5153,Lo,,,,,,0,,,,,,,,low,9,0,9,0,1,,,,,,,,,
295276,2022-11-21_17h00.28.145,vts_reward_expectancy_bt,2022.2.4,Win32,143.3486239,Chrome,1536,864,,,,,0,630,,,,,,,,,,,,,,,,,181,Y,star,1,0,,,,,,,,,,,,,,,,repeat,letter,lettRpt,k,0.835,Hi,,,,,,0,,,,,,,,low,10,0,10,0,1,,,,,,,,,
295276,2022-11-21_17h00.28.145,vts_reward_expectancy_bt,2022.2.4,Win32,143.3486239,Chrome,1536,864,,,,,10,640,,,,,,,,,,,,,,,,,167,W,circle,1,0,,,,,,,,,,,,,,,,repeat,letter,lettRpt,k,0.6669,Hi,,,,,,0,,,,,,,,low,11,0,11,0,1,,,,,,,,,
295276,2022-11-21_17h00.28.145,vts_reward_expectancy_bt,2022.2.4,Win32,143.3486239,Chrome,1536,864,,,,,1,641,,,,,,,,,,,,,,,,,132,U,triangle,1,0,,,,,,,,,,,,,,,,switch,number,numSwt,d,0.5839,Lo,,,,,,0,,,,,,,,low,12,0,12,0,1,,,,,,,,,
295276,2022-11-21_17h00.28.145,vts_reward_expectancy_bt,2022.2.4,Win32,143.3486239,Chrome,1536,864,,,,,0,641,,,,,,,,,,,,,,,,,160,S,circle,0,0,,,,,,,,,,,,,,,,switch,letter,NA,j,0.5337,Lo,,,,,,0,,,,,,,,low,13,0,13,0,1,,,,,,,,,
295276,2022-11-21_17h00.28.145,vts_reward_expectancy_bt,2022.2.4,Win32,143.3486239,Chrome,1536,864,,,,,10,651,,,,,,,,,,,,,,,,,174,F,star,1,1,,,,,,,,,,,,,,,,repeat,letter,lettRpt,j,0.5528,Hi,,,,,,0,,,,,,,,low,14,0,14,0,1,,,,,,,,,
295276,2022-11-21_17h00.28.145,vts_reward_expectancy_bt,2022.2.4,Win32,143.3486239,Chrome,1536,864,,,,,1,652,,,,,,,,,,,,,,,,,139,B,hexagon,1,0,,,,,,,,,,,,,,,,repeat,letter,lettRpt,j,0.5833,Lo,,,,,,0,,,,,,,,low,15,0,15,0,1,,,,,,,,,
295276,2022-11-21_17h00.28.145,vts_reward_expectancy_bt,2022.2.4,Win32,143.3486239,Chrome,1536,864,,,,,1,653,,,,,,,,,,,,,,,,,146,F,triangle,1,0,,,,,,,,,,,,,,,,switch,number,numSwt,d,0.5338,Lo,,,,,,0,,,,,,,,low,16,0,16,0,1,,,,,,,,,
295276,2022-11-21_17h00.28.145,vts_reward_expectancy_bt,2022.2.4,Win32,143.3486239,Chrome,1536,864,,,,,10,663,,,,,,,,,,,,,,,,,139,U,hexagon,1,0,,,,,,,,,,,,,,,,repeat,number,numRpt,d,0.5541,Lo,,,,,,0,,,,,,,,low,17,0,17,0,1,,,,,,,,,
295276,2022-11-21_17h00.28.145,vts_reward_expectancy_bt,2022.2.4,Win32,143.3486239,Chrome,1536,864,,,,,10,673,,,,,,,,,,,,,,,,,160,Y,circle,1,0,,,,,,,,,,,,,,,,switch,letter,lettSwt,k,0.5556,Hi,,,,,,0,,,,,,,,low,18,0,18,0,1,,,,,,,,,
295276,2022-11-21_17h00.28.145,vts_reward_expectancy_bt,2022.2.4,Win32,143.3486239,Chrome,1536,864,,,,,10,683,,,,,,,,,,,,,,,,,174,S,star,1,0,,,,,,,,,,,,,,,,switch,number,numSwt,f,0.6403,Hi,,,,,,0,,,,,,,,low,19,0,19,0,1,,,,,,,,,
295276,2022-11-21_17h00.28.145,vts_reward_expectancy_bt,2022.2.4,Win32,143.3486239,Chrome,1536,864,,,,,10,693,,,,,,,,,,,,,,,,,132,W,star,1,0,,,,,,,,,,,,,,,,repeat,number,numRpt,d,0.5573,Hi,,,,,,0,,,,,,,,low,20,0,20,0,1,,,,,,,,,
295276,2022-11-21_17h00.28.145,vts_reward_expectancy_bt,2022.2.4,Win32,143.3486239,Chrome,1536,864,,,,,1,694,,,,,,,,,,,,,,,,,181,B,triangle,1,0,,,,,,,,,,,,,,,,repeat,number,numRpt,f,0.6031,Lo,,,,,,0,,,,,,,,low,21,0,21,0,1,,,,,,,,,
295276,2022-11-21_17h00.28.145,vts_reward_expectancy_bt,2022.2.4,Win32,143.3486239,Chrome,1536,864,,,,,10,704,,,,,,,,,,,,,,,,,125,D,circle,1,0,,,,,,,,,,,,,,,,switch,letter,lettSwt,j,0.578,Hi,,,,,,0,,,,,,,,low,22,0,22,0,1,,,,,,,,,
295276,2022-11-21_17h00.28.145,vts_reward_expectancy_bt,2022.2.4,Win32,143.3486239,Chrome,1536,864,,,,,1,705,,,,,,,,,,,,,,,,,167,H,hexagon,1,0,,,,,,,,,,,,,,,,repeat,letter,lettRpt,j,0.5975,Lo,,,,,,0,,,,,,,,low,23,0,23,0,1,,,,,,,,,
295276,2022-11-21_17h00.28.145,vts_reward_expectancy_bt,2022.2.4,Win32,143.3486239,Chrome,1536,864,,,,,10,715,,,,,,,,,,,,,,,,,181,F,star,1,0,,,,,,,,,,,,,,,,switch,number,numSwt,f,0.6042,Hi,,,,,,0,,,,,,,,low,24,0,24,0,1,,,,,,,,,
295276,2022-11-21_17h00.28.145,vts_reward_expectancy_bt,2022.2.4,Win32,143.3486239,Chrome,1536,864,,,,,1,716,,,,,,,,,,,,,,,,,174,U,hexagon,1,0,,,,,,,,,,,,,,,,repeat,number,numRpt,f,0.5543,Lo,,,,,,0,,,,,,,,low,25,0,25,0,1,,,,,,,,,
295276,2022-11-21_17h00.28.145,vts_reward_expectancy_bt,2022.2.4,Win32,143.3486239,Chrome,1536,864,,,,,10,726,,,,,,,,,,,,,,,,,167,H,circle,1,0,,,,,,,,,,,,,,,,switch,letter,lettSwt,j,0.487,Hi,,,,,,0,,,,,,,,low,26,0,26,0,1,,,,,,,,,
295276,2022-11-21_17h00.28.145,vts_reward_expectancy_bt,2022.2.4,Win32,143.3486239,Chrome,1536,864,,,,,10,736,,,,,,,,,,,,,,,,,132,B,triangle,1,0,,,,,,,,,,,,,,,,repeat,letter,lettRpt,j,0.5614,Lo,,,,,,0,,,,,,,,low,27,0,27,0,1,,,,,,,,,
295276,2022-11-21_17h00.28.145,vts_reward_expectancy_bt,2022.2.4,Win32,143.3486239,Chrome,1536,864,,,,,10,746,,,,,,,,,,,,,,,,,146,S,star,1,0,,,,,,,,,,,,,,,,switch,number,numSwt,d,0.7149,Hi,,,,,,0,,,,,,,,low,28,0,28,0,1,,,,,,,,,
295276,2022-11-21_17h00.28.145,vts_reward_expectancy_bt,2022.2.4,Win32,143.3486239,Chrome,1536,864,,,,,10,756,,,,,,,,,,,,,,,,,160,D,circle,1,0,,,,,,,,,,,,,,,,switch,letter,lettSwt,j,0.5777,Hi,,,,,,0,,,,,,,,low,29,0,29,0,1,,,,,,,,,
295276,2022-11-21_17h00.28.145,vts_reward_expectancy_bt,2022.2.4,Win32,143.3486239,Chrome,1536,864,,,,,0,756,,,,,,,,,,,,,,,,,125,Y,triangle,0,0,,,,,,,,,,,,,,,,repeat,letter,NA,j,0.5964,Hi,,,,,,0,,,,,,,,low,30,0,30,0,1,,,,,,,,,
295276,2022-11-21_17h00.28.145,vts_reward_expectancy_bt,2022.2.4,Win32,143.3486239,Chrome,1536,864,,,,,10,766,,,,,,,,,,,,,,,,,139,W,hexagon,1,1,,,,,,,,,,,,,,,,switch,number,numSwt,d,0.5289,Lo,,,,,,0,,,,,,,,low,31,0,31,0,1,,,,,,,,,
295276,2022-11-21_17h00.28.145,vts_reward_expectancy_bt,2022.2.4,Win32,143.3486239,Chrome,1536,864,,,,,10,776,,,,,,,,,,,,,,,,,132,B,hexagon,1,0,,,,,,,,,,,,,,,,repeat,number,numRpt,d,0.6588,Lo,,,,,,1,,,,,,space,1.7917,low,0,0,0,0,1,,,,,,,,,
295276,2022-11-21_17h00.28.145,vts_reward_expectancy_bt,2022.2.4,Win32,143.3486239,Chrome,1536,864,,,,,1,777,,,,,,,,,,,,,,,,,181,U,triangle,1,0,,,,,,,,,,,,,,,,repeat,number,numRpt,f,0.6108,Lo,,,,,,1,,,,,,,,low,1,0,1,0,1,,,,,,,,,
295276,2022-11-21_17h00.28.145,vts_reward_expectancy_bt,2022.2.4,Win32,143.3486239,Chrome,1536,864,,,,,10,787,,,,,,,,,,,,,,,,,125,Y,star,1,0,,,,,,,,,,,,,,,,repeat,number,numRpt,d,0.4857,Hi,,,,,,1,,,,,,,,low,2,0,2,0,1,,,,,,,,,
295276,2022-11-21_17h00.28.145,vts_reward_expectancy_bt,2022.2.4,Win32,143.3486239,Chrome,1536,864,,,,,0,787,,,,,,,,,,,,,,,,,146,S,circle,1,0,,,,,,,,,,,,,,,,switch,letter,lettSwt,k,0.5776,Hi,,,,,,1,,,,,,,,low,3,0,3,0,1,,,,,,,,,
295276,2022-11-21_17h00.28.145,vts_reward_expectancy_bt,2022.2.4,Win32,143.3486239,Chrome,1536,864,,,,,10,797,,,,,,,,,,,,,,,,,167,D,hexagon,1,0,,,,,,,,,,,,,,,,repeat,letter,lettRpt,j,0.5749,Lo,,,,,,1,,,,,,,,low,4,0,4,0,1,,,,,,,,,
295276,2022-11-21_17h00.28.145,vts_reward_expectancy_bt,2022.2.4,Win32,143.3486239,Chrome,1536,864,,,,,10,807,,,,,,,,,,,,,,,,,139,F,triangle,1,0,,,,,,,,,,,,,,,,repeat,letter,lettRpt,j,0.6445,Lo,,,,,,1,,,,,,,,low,5,0,5,0,1,,,,,,,,,
295276,2022-11-21_17h00.28.145,vts_reward_expectancy_bt,2022.2.4,Win32,143.3486239,Chrome,1536,864,,,,,0,807,,,,,,,,,,,,,,,,,174,H,star,1,0,,,,,,,,,,,,,,,,repeat,letter,lettRpt,j,0.6064,Hi,,,,,,1,,,,,,,,low,6,0,6,0,1,,,,,,,,,
295276,2022-11-21_17h00.28.145,vts_reward_expectancy_bt,2022.2.4,Win32,143.3486239,Chrome,1536,864,,,,,0,807,,,,,,,,,,,,,,,,,160,W,circle,1,0,,,,,,,,,,,,,,,,switch,number,numSwt,f,0.5958,Hi,,,,,,1,,,,,,,,low,7,0,7,0,1,,,,,,,,,
295276,2022-11-21_17h00.28.145,vts_reward_expectancy_bt,2022.2.4,Win32,143.3486239,Chrome,1536,864,,,,,1,808,,,,,,,,,,,,,,,,,132,B,circle,1,0,,,,,,,,,,,,,,,,repeat,number,numRpt,d,0.5129,Hi,,,,,,1,,,,,,,,low,8,0,8,0,1,,,,,,,,,
295276,2022-11-21_17h00.28.145,vts_reward_expectancy_bt,2022.2.4,Win32,143.3486239,Chrome,1536,864,,,,,10,818,,,,,,,,,,,,,,,,,181,U,hexagon,1,0,,,,,,,,,,,,,,,,repeat,number,numRpt,f,0.4866,Lo,,,,,,1,,,,,,,,low,9,0,9,0,1,,,,,,,,,
295276,2022-11-21_17h00.28.145,vts_reward_expectancy_bt,2022.2.4,Win32,143.3486239,Chrome,1536,864,,,,,10,828,,,,,,,,,,,,,,,,,125,Y,triangle,1,0,,,,,,,,,,,,,,,,switch,letter,lettSwt,k,0.514,Lo,,,,,,1,,,,,,,,low,10,0,10,0,1,,,,,,,,,
295276,2022-11-21_17h00.28.145,vts_reward_expectancy_bt,2022.2.4,Win32,143.3486239,Chrome,1536,864,,,,,1,829,,,,,,,,,,,,,,,,,146,S,star,1,0,,,,,,,,,,,,,,,,repeat,letter,lettRpt,k,0.5572,Hi,,,,,,1,,,,,,,,low,11,0,11,0,1,,,,,,,,,
295276,2022-11-21_17h00.28.145,vts_reward_expectancy_bt,2022.2.4,Win32,143.3486239,Chrome,1536,864,,,,,1,830,,,,,,,,,,,,,,,,,167,D,triangle,1,0,,,,,,,,,,,,,,,,switch,number,numSwt,f,0.4875,Lo,,,,,,1,,,,,,,,low,12,0,12,0,1,,,,,,,,,
295276,2022-11-21_17h00.28.145,vts_reward_expectancy_bt,2022.2.4,Win32,143.3486239,Chrome,1536,864,,,,,10,840,,,,,,,,,,,,,,,,,139,F,star,1,0,,,,,,,,,,,,,,,,repeat,number,numRpt,d,0.5058,Hi,,,,,,1,,,,,,,,low,13,0,13,0,1,,,,,,,,,
295276,2022-11-21_17h00.28.145,vts_reward_expectancy_bt,2022.2.4,Win32,143.3486239,Chrome,1536,864,,,,,0,840,,,,,,,,,,,,,,,,,174,H,circle,1,0,,,,,,,,,,,,,,,,repeat,number,numRpt,f,0.5831,Hi,,,,,,1,,,,,,,,low,14,0,14,0,1,,,,,,,,,
295276,2022-11-21_17h00.28.145,vts_reward_expectancy_bt,2022.2.4,Win32,143.3486239,Chrome,1536,864,,,,,1,841,,,,,,,,,,,,,,,,,160,W,hexagon,1,0,,,,,,,,,,,,,,,,switch,letter,lettSwt,k,0.6191,Lo,,,,,,1,,,,,,,,low,15,0,15,0,1,,,,,,,,,
295276,2022-11-21_17h00.28.145,vts_reward_expectancy_bt,2022.2.4,Win32,143.3486239,Chrome,1536,864,,,,,10,851,,,,,,,,,,,,,,,,,132,W,hexagon,1,0,,,,,,,,,,,,,,,,repeat,letter,lettRpt,k,0.5129,Lo,,,,,,1,,,,,,,,low,16,0,16,0,1,,,,,,,,,
295276,2022-11-21_17h00.28.145,vts_reward_expectancy_bt,2022.2.4,Win32,143.3486239,Chrome,1536,864,,,,,1,852,,,,,,,,,,,,,,,,,139,B,triangle,1,0,,,,,,,,,,,,,,,,repeat,letter,lettRpt,j,0.5146,Lo,,,,,,1,,,,,,,,low,17,0,17,0,1,,,,,,,,,
295276,2022-11-21_17h00.28.145,vts_reward_expectancy_bt,2022.2.4,Win32,143.3486239,Chrome,1536,864,,,,,10,862,,,,,,,,,,,,,,,,,167,S,star,1,0,,,,,,,,,,,,,,,,switch,number,numSwt,f,0.4708,Hi,,,,,,1,,,,,,,,low,18,0,18,0,1,,,,,,,,,
295276,2022-11-21_17h00.28.145,vts_reward_expectancy_bt,2022.2.4,Win32,143.3486239,Chrome,1536,864,,,,,0,862,,,,,,,,,,,,,,,,,181,D,circle,1,0,,,,,,,,,,,,,,,,repeat,number,numRpt,f,0.605,Hi,,,,,,1,,,,,,,,low,19,0,19,0,1,,,,,,,,,
295276,2022-11-21_17h00.28.145,vts_reward_expectancy_bt,2022.2.4,Win32,143.3486239,Chrome,1536,864,,,,,0,862,,,,,,,,,,,,,,,,,146,F,triangle,0,0,,,,,,,,,,,,,,,,repeat,number,NA,f,0.6232,Hi,,,,,,1,,,,,,,,low,20,0,20,0,1,,,,,,,,,
295276,2022-11-21_17h00.28.145,vts_reward_expectancy_bt,2022.2.4,Win32,143.3486239,Chrome,1536,864,,,,,0,862,,,,,,,,,,,,,,,,,174,U,circle,0,1,,,,,,,,,,,,,,,,repeat,number,NA,d,0.5542,Hi,,,,,,1,,,,,,,,low,21,0,21,0,1,,,,,,,,,
295276,2022-11-21_17h00.28.145,vts_reward_expectancy_bt,2022.2.4,Win32,143.3486239,Chrome,1536,864,,,,,0,862,,,,,,,,,,,,,,,,,125,Y,star,1,1,,,,,,,,,,,,,,,,repeat,number,numRpt,d,0.6391,Hi,,,,,,1,,,,,,,,low,22,0,22,0,1,,,,,,,,,
295276,2022-11-21_17h00.28.145,vts_reward_expectancy_bt,2022.2.4,Win32,143.3486239,Chrome,1536,864,,,,,1,863,,,,,,,,,,,,,,,,,160,H,hexagon,1,0,,,,,,,,,,,,,,,,switch,letter,lettSwt,j,0.5841,Lo,,,,,,1,,,,,,,,low,23,0,23,0,1,,,,,,,,,
295276,2022-11-21_17h00.28.145,vts_reward_expectancy_bt,2022.2.4,Win32,143.3486239,Chrome,1536,864,,,,,1,864,,,,,,,,,,,,,,,,,181,B,triangle,1,0,,,,,,,,,,,,,,,,repeat,letter,lettRpt,j,0.5578,Lo,,,,,,1,,,,,,,,low,24,0,24,0,1,,,,,,,,,
295276,2022-11-21_17h00.28.145,vts_reward_expectancy_bt,2022.2.4,Win32,143.3486239,Chrome,1536,864,,,,,0,864,,,,,,,,,,,,,,,,,125,U,star,1,0,,,,,,,,,,,,,,,,repeat,letter,lettRpt,k,0.5815,Hi,,,,,,1,,,,,,,,low,25,0,25,0,1,,,,,,,,,
295276,2022-11-21_17h00.28.145,vts_reward_expectancy_bt,2022.2.4,Win32,143.3486239,Chrome,1536,864,,,,,1,865,,,,,,,,,,,,,,,,,174,W,hexagon,1,0,,,,,,,,,,,,,,,,repeat,letter,lettRpt,k,0.53,Lo,,,,,,1,,,,,,,,low,26,0,26,0,1,,,,,,,,,
295276,2022-11-21_17h00.28.145,vts_reward_expectancy_bt,2022.2.4,Win32,143.3486239,Chrome,1536,864,,,,,1,866,,,,,,,,,,,,,,,,,167,D,circle,1,0,,,,,,,,,,,,,,,,repeat,letter,lettRpt,j,0.5128,Hi,,,,,,1,,,,,,,,low,27,0,27,0,1,,,,,,,,,
295276,2022-11-21_17h00.28.145,vts_reward_expectancy_bt,2022.2.4,Win32,143.3486239,Chrome,1536,864,,,,,10,876,,,,,,,,,,,,,,,,,160,S,circle,1,0,,,,,,,,,,,,,,,,switch,number,numSwt,f,0.5499,Hi,,,,,,1,,,,,,,,low,28,0,28,0,1,,,,,,,,,
295276,2022-11-21_17h00.28.145,vts_reward_expectancy_bt,2022.2.4,Win32,143.3486239,Chrome,1536,864,,,,,10,886,,,,,,,,,,,,,,,,,146,H,triangle,1,0,,,,,,,,,,,,,,,,repeat,number,numRpt,d,0.5211,Lo,,,,,,1,,,,,,,,low,29,0,29,0,1,,,,,,,,,
295276,2022-11-21_17h00.28.145,vts_reward_expectancy_bt,2022.2.4,Win32,143.3486239,Chrome,1536,864,,,,,0,886,,,,,,,,,,,,,,,,,132,F,star,1,0,,,,,,,,,,,,,,,,repeat,number,numRpt,d,0.6135,Hi,,,,,,1,,,,,,,,low,30,0,30,0,1,,,,,,,,,
295276,2022-11-21_17h00.28.145,vts_reward_expectancy_bt,2022.2.4,Win32,143.3486239,Chrome,1536,864,,,,,10,896,,,,,,,,,,,,,,,,,139,Y,hexagon,1,0,,,,,,,,,,,,,,,,repeat,number,numRpt,d,0.4875,Lo,,,,,,1,,,,,,,,low,31,0,31,0,1,,,,,,,,,
295276,2022-11-21_17h00.28.145,vts_reward_expectancy_bt,2022.2.4,Win32,143.3486239,Chrome,1536,864,,,,,1,897,,,,,,,,,,,,,,,,,181,W,triangle,1,0,,,,,,,,,,,,,,,,repeat,number,numRpt,f,0.5775,Lo,,,,,,2,,,,,,space,2.841,low,0,0,0,0,1,,,,,,,,,
295276,2022-11-21_17h00.28.145,vts_reward_expectancy_bt,2022.2.4,Win32,143.3486239,Chrome,1536,864,,,,,1,898,,,,,,,,,,,,,,,,,174,H,hexagon,1,0,,,,,,,,,,,,,,,,repeat,number,numRpt,f,0.5371,Lo,,,,,,2,,,,,,,,low,1,0,1,0,1,,,,,,,,,
295276,2022-11-21_17h00.28.145,vts_reward_expectancy_bt,2022.2.4,Win32,143.3486239,Chrome,1536,864,,,,,0,898,,,,,,,,,,,,,,,,,160,S,star,1,0,,,,,,,,,,,,,,,,repeat,number,numRpt,f,0.5282,Hi,,,,,,2,,,,,,,,low,2,0,2,0,1,,,,,,,,,
295276,2022-11-21_17h00.28.145,vts_reward_expectancy_bt,2022.2.4,Win32,143.3486239,Chrome,1536,864,,,,,0,898,,,,,,,,,,,,,,,,,139,Y,circle,1,0,,,,,,,,,,,,,,,,repeat,number,numRpt,d,0.5337,Hi,,,,,,2,,,,,,,,low,3,0,3,0,1,,,,,,,,,
295276,2022-11-21_17h00.28.145,vts_reward_expectancy_bt,2022.2.4,Win32,143.3486239,Chrome,1536,864,,,,,0,898,,,,,,,,,,,,,,,,,146,F,triangle,0,0,,,,,,,,,,,,,,,,switch,letter,NA,k,0.7761,Hi,,,,,,2,,,,,,,,low,4,0,4,0,1,,,,,,,,,
295276,2022-11-21_17h00.28.145,vts_reward_expectancy_bt,2022.2.4,Win32,143.3486239,Chrome,1536,864,,,,,1,899,,,,,,,,,,,,,,,,,132,B,hexagon,1,1,,,,,,,,,,,,,,,,repeat,letter,lettRpt,j,0.5084,Lo,,,,,,2,,,,,,,,low,5,0,5,0,1,,,,,,,,,
295276,2022-11-21_17h00.28.145,vts_reward_expectancy_bt,2022.2.4,Win32,143.3486239,Chrome,1536,864,,,,,10,909,,,,,,,,,,,,,,,,,125,D,star,1,0,,,,,,,,,,,,,,,,repeat,letter,lettRpt,j,0.4858,Hi,,,,,,2,,,,,,,,low,6,0,6,0,1,,,,,,,,,
295276,2022-11-21_17h00.28.145,vts_reward_expectancy_bt,2022.2.4,Win32,143.3486239,Chrome,1536,864,,,,,0,909,,,,,,,,,,,,,,,,,167,U,circle,1,0,,,,,,,,,,,,,,,,switch,number,numSwt,f,0.6524,Hi,,,,,,2,,,,,,,,low,7,0,7,0,1,,,,,,,,,
295276,2022-11-21_17h00.28.145,vts_reward_expectancy_bt,2022.2.4,Win32,143.3486239,Chrome,1536,864,,,,,1,910,,,,,,,,,,,,,,,,,181,W,hexagon,1,0,,,,,,,,,,,,,,,,repeat,number,numRpt,f,0.5558,Lo,,,,,,2,,,,,,,,low,8,0,8,0,1,,,,,,,,,
295276,2022-11-21_17h00.28.145,vts_reward_expectancy_bt,2022.2.4,Win32,143.3486239,Chrome,1536,864,,,,,1,911,,,,,,,,,,,,,,,,,174,H,circle,1,0,,,,,,,,,,,,,,,,repeat,number,numRpt,f,0.4922,Hi,,,,,,2,,,,,,,,low,9,0,9,0,1,,,,,,,,,
295276,2022-11-21_17h00.28.145,vts_reward_expectancy_bt,2022.2.4,Win32,143.3486239,Chrome,1536,864,,,,,1,912,,,,,,,,,,,,,,,,,160,S,triangle,1,0,,,,,,,,,,,,,,,,switch,letter,lettSwt,k,0.4912,Lo,,,,,,2,,,,,,,,low,10,0,10,0,1,,,,,,,,,
295276,2022-11-21_17h00.28.145,vts_reward_expectancy_bt,2022.2.4,Win32,143.3486239,Chrome,1536,864,,,,,1,913,,,,,,,,,,,,,,,,,139,Y,star,1,0,,,,,,,,,,,,,,,,repeat,letter,lettRpt,k,0.5082,Hi,,,,,,2,,,,,,,,low,11,0,11,0,1,,,,,,,,,
295276,2022-11-21_17h00.28.145,vts_reward_expectancy_bt,2022.2.4,Win32,143.3486239,Chrome,1536,864,,,,,1,914,,,,,,,,,,,,,,,,,146,F,hexagon,1,0,,,,,,,,,,,,,,,,repeat,letter,lettRpt,j,0.4879,Lo,,,,,,2,,,,,,,,low,12,0,12,0,1,,,,,,,,,
295276,2022-11-21_17h00.28.145,vts_reward_expectancy_bt,2022.2.4,Win32,143.3486239,Chrome,1536,864,,,,,10,924,,,,,,,,,,,,,,,,,132,B,star,1,0,,,,,,,,,,,,,,,,switch,number,numSwt,d,0.472,Hi,,,,,,2,,,,,,,,low,13,0,13,0,1,,,,,,,,,
295276,2022-11-21_17h00.28.145,vts_reward_expectancy_bt,2022.2.4,Win32,143.3486239,Chrome,1536,864,,,,,10,934,,,,,,,,,,,,,,,,,125,D,circle,1,0,,,,,,,,,,,,,,,,switch,letter,lettSwt,j,0.509,Hi,,,,,,2,,,,,,,,low,14,0,14,0,1,,,,,,,,,
295276,2022-11-21_17h00.28.145,vts_reward_expectancy_bt,2022.2.4,Win32,143.3486239,Chrome,1536,864,,,,,0,934,,,,,,,,,,,,,,,,,167,U,triangle,0,0,,,,,,,,,,,,,,,,switch,number,NA,d,0.4658,Hi,,,,,,2,,,,,,,,low,15,0,15,0,1,,,,,,,,,
295276,2022-11-21_17h00.28.145,vts_reward_expectancy_bt,2022.2.4,Win32,143.3486239,Chrome,1536,864,,,,,1,935,,,,,,,,,,,,,,,,,160,Y,hexagon,1,1,,,,,,,,,,,,,,,,repeat,number,numRpt,f,0.4694,Lo,,,,,,2,,,,,,,,low,16,0,16,0,1,,,,,,,,,
295276,2022-11-21_17h00.28.145,vts_reward_expectancy_bt,2022.2.4,Win32,143.3486239,Chrome,1536,864,,,,,1,936,,,,,,,,,,,,,,,,,139,U,circle,1,0,,,,,,,,,,,,,,,,switch,letter,lettSwt,k,0.5343,Hi,,,,,,2,,,,,,,,low,17,0,17,0,1,,,,,,,,,
295276,2022-11-21_17h00.28.145,vts_reward_expectancy_bt,2022.2.4,Win32,143.3486239,Chrome,1536,864,,,,,0,936,,,,,,,,,,,,,,,,,174,D,star,1,0,,,,,,,,,,,,,,,,repeat,letter,lettRpt,j,0.5639,Hi,,,,,,2,,,,,,,,low,18,0,18,0,1,,,,,,,,,
295276,2022-11-21_17h00.28.145,vts_reward_expectancy_bt,2022.2.4,Win32,143.3486239,Chrome,1536,864,,,,,1,937,,,,,,,,,,,,,,,,,167,B,triangle,1,0,,,,,,,,,,,,,,,,repeat,letter,lettRpt,j,0.4167,Lo,,,,,,2,,,,,,,,low,19,0,19,0,1,,,,,,,,,
295276,2022-11-21_17h00.28.145,vts_reward_expectancy_bt,2022.2.4,Win32,143.3486239,Chrome,1536,864,,,,,1,938,,,,,,,,,,,,,,,,,146,F,hexagon,1,0,,,,,,,,,,,,,,,,switch,number,numSwt,d,0.5434,Lo,,,,,,2,,,,,,,,low,20,0,20,0,1,,,,,,,,,
295276,2022-11-21_17h00.28.145,vts_reward_expectancy_bt,2022.2.4,Win32,143.3486239,Chrome,1536,864,,,,,10,948,,,,,,,,,,,,,,,,,132,S,circle,1,0,,,,,,,,,,,,,,,,switch,letter,lettSwt,k,0.5338,Hi,,,,,,2,,,,,,,,low,21,0,21,0,1,,,,,,,,,
295276,2022-11-21_17h00.28.145,vts_reward_expectancy_bt,2022.2.4,Win32,143.3486239,Chrome,1536,864,,,,,1,949,,,,,,,,,,,,,,,,,125,W,triangle,1,0,,,,,,,,,,,,,,,,repeat,letter,lettRpt,k,0.5338,Lo,,,,,,2,,,,,,,,low,22,0,22,0,1,,,,,,,,,
295276,2022-11-21_17h00.28.145,vts_reward_expectancy_bt,2022.2.4,Win32,143.3486239,Chrome,1536,864,,,,,10,959,,,,,,,,,,,,,,,,,181,H,star,1,0,,,,,,,,,,,,,,,,switch,number,numSwt,f,0.4867,Hi,,,,,,2,,,,,,,,low,23,0,23,0,1,,,,,,,,,
295276,2022-11-21_17h00.28.145,vts_reward_expectancy_bt,2022.2.4,Win32,143.3486239,Chrome,1536,864,,,,,10,969,,,,,,,,,,,,,,,,,139,W,triangle,1,0,,,,,,,,,,,,,,,,repeat,number,numRpt,d,0.6189,Lo,,,,,,2,,,,,,,,low,24,0,24,0,1,,,,,,,,,
295276,2022-11-21_17h00.28.145,vts_reward_expectancy_bt,2022.2.4,Win32,143.3486239,Chrome,1536,864,,,,,10,979,,,,,,,,,,,,,,,,,174,H,circle,1,0,,,,,,,,,,,,,,,,switch,letter,lettSwt,j,0.5431,Hi,,,,,,2,,,,,,,,low,25,0,25,0,1,,,,,,,,,
295276,2022-11-21_17h00.28.145,vts_reward_expectancy_bt,2022.2.4,Win32,143.3486239,Chrome,1536,864,,,,,10,989,,,,,,,,,,,,,,,,,125,F,hexagon,1,0,,,,,,,,,,,,,,,,switch,number,numSwt,d,0.4865,Lo,,,,,,2,,,,,,,,low,26,0,26,0,1,,,,,,,,,
295276,2022-11-21_17h00.28.145,vts_reward_expectancy_bt,2022.2.4,Win32,143.3486239,Chrome,1536,864,,,,,0,989,,,,,,,,,,,,,,,,,181,D,star,0,0,,,,,,,,,,,,,,,,repeat,number,NA,d,0.5632,Lo,,,,,,2,,,,,,,,low,27,0,27,0,1,,,,,,,,,
295276,2022-11-21_17h00.28.145,vts_reward_expectancy_bt,2022.2.4,Win32,143.3486239,Chrome,1536,864,,,,,0,989,,,,,,,,,,,,,,,,,146,U,triangle,0,1,,,,,,,,,,,,,,,,repeat,number,NA,f,0.5486,Lo,,,,,,2,,,,,,,,low,28,0,28,0,1,,,,,,,,,
295276,2022-11-21_17h00.28.145,vts_reward_expectancy_bt,2022.2.4,Win32,143.3486239,Chrome,1536,864,,,,,10,999,,,,,,,,,,,,,,,,,160,S,hexagon,1,1,,,,,,,,,,,,,,,,repeat,number,numRpt,f,0.5368,Lo,,,,,,2,,,,,,,,low,29,0,29,0,1,,,,,,,,,
295276,2022-11-21_17h00.28.145,vts_reward_expectancy_bt,2022.2.4,Win32,143.3486239,Chrome,1536,864,,,,,1,1000,,,,,,,,,,,,,,,,,167,Y,star,1,0,,,,,,,,,,,,,,,,repeat,number,numRpt,f,0.4933,Hi,,,,,,2,,,,,,,,low,30,0,30,0,1,,,,,,,,,
295276,2022-11-21_17h00.28.145,vts_reward_expectancy_bt,2022.2.4,Win32,143.3486239,Chrome,1536,864,,,,,10,1010,,,,,,,,,,,,,,,,,132,B,circle,1,0,,,,,,,,,,,,,,,,switch,letter,lettSwt,j,0.5567,Hi,,,,,,2,,,,,,,,low,31,0,31,0,1,,,,,,,,,
295276,2022-11-21_17h00.28.145,vts_reward_expectancy_bt,2022.2.4,Win32,143.3486239,Chrome,1536,864,,,,,10,1020,,,,,,,,,,,,,,,,,125,H,hexagon,1,0,,,,,,,,,,,,,,,,repeat,letter,lettRpt,j,0.5337,Lo,,,,,,3,,,,,,space,1.3656,low,0,0,0,0,1,,,,,,,,,
295276,2022-11-21_17h00.28.145,vts_reward_expectancy_bt,2022.2.4,Win32,143.3486239,Chrome,1536,864,,,,,0,1020,,,,,,,,,,,,,,,,,132,U,star,1,0,,,,,,,,,,,,,,,,switch,number,numSwt,d,0.5066,Hi,,,,,,3,,,,,,,,low,1,0,1,0,1,,,,,,,,,
295276,2022-11-21_17h00.28.145,vts_reward_expectancy_bt,2022.2.4,Win32,143.3486239,Chrome,1536,864,,,,,1,1021,,,,,,,,,,,,,,,,,174,F,triangle,1,0,,,,,,,,,,,,,,,,repeat,number,numRpt,f,0.4874,Lo,,,,,,3,,,,,,,,low,2,0,2,0,1,,,,,,,,,
295276,2022-11-21_17h00.28.145,vts_reward_expectancy_bt,2022.2.4,Win32,143.3486239,Chrome,1536,864,,,,,0,1021,,,,,,,,,,,,,,,,,181,D,circle,1,0,,,,,,,,,,,,,,,,switch,letter,lettSwt,j,0.562,Hi,,,,,,3,,,,,,,,low,3,0,3,0,1,,,,,,,,,
295276,2022-11-21_17h00.28.145,vts_reward_expectancy_bt,2022.2.4,Win32,143.3486239,Chrome,1536,864,,,,,1,1022,,,,,,,,,,,,,,,,,160,S,hexagon,1,0,,,,,,,,,,,,,,,,repeat,letter,lettRpt,k,0.5575,Lo,,,,,,3,,,,,,,,low,4,0,4,0,1,,,,,,,,,
295276,2022-11-21_17h00.28.145,vts_reward_expectancy_bt,2022.2.4,Win32,143.3486239,Chrome,1536,864,,,,,0,1022,,,,,,,,,,,,,,,,,146,Y,star,1,0,,,,,,,,,,,,,,,,repeat,letter,lettRpt,k,0.5576,Hi,,,,,,3,,,,,,,,low,5,0,5,0,1,,,,,,,,,
295276,2022-11-21_17h00.28.145,vts_reward_expectancy_bt,2022.2.4,Win32,143.3486239,Chrome,1536,864,,,,,1,1023,,,,,,,,,,,,,,,,,167,B,triangle,1,0,,,,,,,,,,,,,,,,repeat,letter,lettRpt,j,0.5556,Lo,,,,,,3,,,,,,,,low,6,0,6,0,1,,,,,,,,,
295276,2022-11-21_17h00.28.145,vts_reward_expectancy_bt,2022.2.4,Win32,143.3486239,Chrome,1536,864,,,,,10,1033,,,,,,,,,,,,,,,,,139,W,circle,1,0,,,,,,,,,,,,,,,,repeat,letter,lettRpt,k,0.4793,Hi,,,,,,3,,,,,,,,low,7,0,7,0,1,,,,,,,,,
295276,2022-11-21_17h00.28.145,vts_reward_expectancy_bt,2022.2.4,Win32,143.3486239,Chrome,1536,864,,,,,0,1033,,,,,,,,,,,,,,,,,125,H,circle,1,0,,,,,,,,,,,,,,,,repeat,letter,lettRpt,j,0.5555,Hi,,,,,,3,,,,,,,,low,8,0,8,0,1,,,,,,,,,
295276,2022-11-21_17h00.28.145,vts_reward_expectancy_bt,2022.2.4,Win32,143.3486239,Chrome,1536,864,,,,,1,1034,,,,,,,,,,,,,,,,,132,U,triangle,1,0,,,,,,,,,,,,,,,,switch,number,numSwt,d,0.4946,Lo,,,,,,3,,,,,,,,low,9,0,9,0,1,,,,,,,,,
295276,2022-11-21_17h00.28.145,vts_reward_expectancy_bt,2022.2.4,Win32,143.3486239,Chrome,1536,864,,,,,0,1034,,,,,,,,,,,,,,,,,174,F,star,0,0,,,,,,,,,,,,,,,,repeat,number,NA,d,0.4663,Lo,,,,,,3,,,,,,,,low,10,0,10,0,1,,,,,,,,,
295276,2022-11-21_17h00.28.145,vts_reward_expectancy_bt,2022.2.4,Win32,143.3486239,Chrome,1536,864,,,,,1,1035,,,,,,,,,,,,,,,,,181,D,hexagon,1,1,,,,,,,,,,,,,,,,repeat,number,numRpt,f,0.5562,Lo,,,,,,3,,,,,,,,low,11,0,11,0,1,,,,,,,,,
295276,2022-11-21_17h00.28.145,vts_reward_expectancy_bt,2022.2.4,Win32,143.3486239,Chrome,1536,864,,,,,0,1035,,,,,,,,,,,,,,,,,160,S,star,1,0,,,,,,,,,,,,,,,,repeat,number,numRpt,f,0.6029,Hi,,,,,,3,,,,,,,,low,12,0,12,0,1,,,,,,,,,
295276,2022-11-21_17h00.28.145,vts_reward_expectancy_bt,2022.2.4,Win32,143.3486239,Chrome,1536,864,,,,,1,1036,,,,,,,,,,,,,,,,,146,Y,triangle,1,0,,,,,,,,,,,,,,,,repeat,number,numRpt,d,0.5064,Lo,,,,,,3,,,,,,,,low,13,0,13,0,1,,,,,,,,,
295276,2022-11-21_17h00.28.145,vts_reward_expectancy_bt,2022.2.4,Win32,143.3486239,Chrome,1536,864,,,,,10,1046,,,,,,,,,,,,,,,,,167,B,hexagon,1,0,,,,,,,,,,,,,,,,switch,letter,lettSwt,j,0.5141,Lo,,,,,,3,,,,,,,,low,14,0,14,0,1,,,,,,,,,
295276,2022-11-21_17h00.28.145,vts_reward_expectancy_bt,2022.2.4,Win32,143.3486239,Chrome,1536,864,,,,,10,1056,,,,,,,,,,,,,,,,,139,W,circle,1,0,,,,,,,,,,,,,,,,repeat,letter,lettRpt,k,0.4636,Hi,,,,,,3,,,,,,,,low,15,0,15,0,1,,,,,,,,,
295276,2022-11-21_17h00.28.145,vts_reward_expectancy_bt,2022.2.4,Win32,143.3486239,Chrome,1536,864,,,,,10,1066,,,,,,,,,,,,,,,,,125,F,triangle,1,0,,,,,,,,,,,,,,,,repeat,letter,lettRpt,j,0.4447,Lo,,,,,,3,,,,,,,,low,16,0,16,0,1,,,,,,,,,
295276,2022-11-21_17h00.28.145,vts_reward_expectancy_bt,2022.2.4,Win32,143.3486239,Chrome,1536,864,,,,,0,1066,,,,,,,,,,,,,,,,,160,S,circle,0,0,,,,,,,,,,,,,,,,switch,number,NA,d,0.4436,Lo,,,,,,3,,,,,,,,low,17,0,17,0,1,,,,,,,,,
295276,2022-11-21_17h00.28.145,vts_reward_expectancy_bt,2022.2.4,Win32,143.3486239,Chrome,1536,864,,,,,10,1076,,,,,,,,,,,,,,,,,139,W,hexagon,1,1,,,,,,,,,,,,,,,,repeat,number,numRpt,d,0.5626,Lo,,,,,,3,,,,,,,,low,18,0,18,0,1,,,,,,,,,
295276,2022-11-21_17h00.28.145,vts_reward_expectancy_bt,2022.2.4,Win32,143.3486239,Chrome,1536,864,,,,,0,1076,,,,,,,,,,,,,,,,,167,H,star,0,0,,,,,,,,,,,,,,,,repeat,number,NA,d,0.6531,Lo,,,,,,3,,,,,,,,low,19,0,19,0,1,,,,,,,,,
295276,2022-11-21_17h00.28.145,vts_reward_expectancy_bt,2022.2.4,Win32,143.3486239,Chrome,1536,864,,,,,1,1077,,,,,,,,,,,,,,,,,146,U,hexagon,1,1,,,,,,,,,,,,,,,,repeat,number,numRpt,d,0.5144,Lo,,,,,,3,,,,,,,,low,20,0,20,0,1,,,,,,,,,
295276,2022-11-21_17h00.28.145,vts_reward_expectancy_bt,2022.2.4,Win32,143.3486239,Chrome,1536,864,,,,,1,1078,,,,,,,,,,,,,,,,,174,B,triangle,1,0,,,,,,,,,,,,,,,,switch,letter,lettSwt,j,0.4851,Lo,,,,,,3,,,,,,,,low,21,0,21,0,1,,,,,,,,,
295276,2022-11-21_17h00.28.145,vts_reward_expectancy_bt,2022.2.4,Win32,143.3486239,Chrome,1536,864,,,,,10,1088,,,,,,,,,,,,,,,,,181,D,circle,1,0,,,,,,,,,,,,,,,,repeat,letter,lettRpt,j,0.4735,Hi,,,,,,3,,,,,,,,low,22,0,22,0,1,,,,,,,,,
295276,2022-11-21_17h00.28.145,vts_reward_expectancy_bt,2022.2.4,Win32,143.3486239,Chrome,1536,864,,,,,10,1098,,,,,,,,,,,,,,,,,132,Y,star,1,0,,,,,,,,,,,,,,,,switch,number,numSwt,d,0.4857,Hi,,,,,,3,,,,,,,,low,23,0,23,0,1,,,,,,,,,
295276,2022-11-21_17h00.28.145,vts_reward_expectancy_bt,2022.2.4,Win32,143.3486239,Chrome,1536,864,,,,,1,1099,,,,,,,,,,,,,,,,,125,B,triangle,1,0,,,,,,,,,,,,,,,,repeat,number,numRpt,d,0.5144,Lo,,,,,,3,,,,,,,,low,24,0,24,0,1,,,,,,,,,
295276,2022-11-21_17h00.28.145,vts_reward_expectancy_bt,2022.2.4,Win32,143.3486239,Chrome,1536,864,,,,,0,1099,,,,,,,,,,,,,,,,,132,D,star,1,0,,,,,,,,,,,,,,,,repeat,number,numRpt,d,0.5357,Hi,,,,,,3,,,,,,,,low,25,0,25,0,1,,,,,,,,,
295276,2022-11-21_17h00.28.145,vts_reward_expectancy_bt,2022.2.4,Win32,143.3486239,Chrome,1536,864,,,,,10,1109,,,,,,,,,,,,,,,,,139,Y,circle,1,0,,,,,,,,,,,,,,,,switch,letter,lettSwt,k,0.4933,Hi,,,,,,3,,,,,,,,low,26,0,26,0,1,,,,,,,,,
295276,2022-11-21_17h00.28.145,vts_reward_expectancy_bt,2022.2.4,Win32,143.3486239,Chrome,1536,864,,,,,10,1119,,,,,,,,,,,,,,,,,181,W,hexagon,1,0,,,,,,,,,,,,,,,,repeat,letter,lettRpt,k,0.5574,Lo,,,,,,3,,,,,,,,low,27,0,27,0,1,,,,,,,,,
295276,2022-11-21_17h00.28.145,vts_reward_expectancy_bt,2022.2.4,Win32,143.3486239,Chrome,1536,864,,,,,0,1119,,,,,,,,,,,,,,,,,160,S,circle,0,0,,,,,,,,,,,,,,,,repeat,letter,NA,j,0.4721,Lo,,,,,,3,,,,,,,,low,28,0,28,0,1,,,,,,,,,
295276,2022-11-21_17h00.28.145,vts_reward_expectancy_bt,2022.2.4,Win32,143.3486239,Chrome,1536,864,,,,,0,1119,,,,,,,,,,,,,,,,,174,U,star,1,1,,,,,,,,,,,,,,,,repeat,letter,lettRpt,k,0.5399,Hi,,,,,,3,,,,,,,,low,29,0,29,0,1,,,,,,,,,
295276,2022-11-21_17h00.28.145,vts_reward_expectancy_bt,2022.2.4,Win32,143.3486239,Chrome,1536,864,,,,,1,1120,,,,,,,,,,,,,,,,,167,H,triangle,1,0,,,,,,,,,,,,,,,,repeat,letter,lettRpt,j,0.555,Lo,,,,,,3,,,,,,,,low,30,0,30,0,1,,,,,,,,,
295276,2022-11-21_17h00.28.145,vts_reward_expectancy_bt,2022.2.4,Win32,143.3486239,Chrome,1536,864,,,,,1,1121,,,,,,,,,,,,,,,,,146,F,hexagon,1,0,,,,,,,,,,,,,,,,switch,number,numSwt,d,0.5145,Lo,,,,,,3,,,,,,,,low,31,0,31,0,1,,,,,,,,,
295276,2022-11-21_17h00.28.145,vts_reward_expectancy_bt,2022.2.4,Win32,143.3486239,Chrome,1536,864,,,,,0,1121,,,,,,,,,,,,,,,,,160,F,circle,0,0,,,,,,,,,,,,,,,,repeat,number,NA,d,0.5889,Lo,,,,,,4,,,,,,space,0.4676,low,0,0,0,0,1,,,,,,,,,
295276,2022-11-21_17h00.28.145,vts_reward_expectancy_bt,2022.2.4,Win32,143.3486239,Chrome,1536,864,,,,,10,1131,,,,,,,,,,,,,,,,,125,S,star,1,1,,,,,,,,,,,,,,,,repeat,number,numRpt,d,0.4715,Hi,,,,,,4,,,,,,,,low,1,0,1,0,1,,,,,,,,,
295276,2022-11-21_17h00.28.145,vts_reward_expectancy_bt,2022.2.4,Win32,143.3486239,Chrome,1536,864,,,,,1,1132,,,,,,,,,,,,,,,,,174,B,triangle,1,0,,,,,,,,,,,,,,,,repeat,number,numRpt,f,0.597,Lo,,,,,,4,,,,,,,,low,2,0,2,0,1,,,,,,,,,
295276,2022-11-21_17h00.28.145,vts_reward_expectancy_bt,2022.2.4,Win32,143.3486239,Chrome,1536,864,,,,,10,1142,,,,,,,,,,,,,,,,,181,U,hexagon,1,0,,,,,,,,,,,,,,,,switch,letter,lettSwt,k,0.4881,Lo,,,,,,4,,,,,,,,low,3,0,3,0,1,,,,,,,,,
295276,2022-11-21_17h00.28.145,vts_reward_expectancy_bt,2022.2.4,Win32,143.3486239,Chrome,1536,864,,,,,10,1152,,,,,,,,,,,,,,,,,132,Y,circle,1,0,,,,,,,,,,,,,,,,switch,number,numSwt,d,0.4645,Hi,,,,,,4,,,,,,,,low,4,0,4,0,1,,,,,,,,,
295276,2022-11-21_17h00.28.145,vts_reward_expectancy_bt,2022.2.4,Win32,143.3486239,Chrome,1536,864,,,,,1,1153,,,,,,,,,,,,,,,,,139,W,star,1,0,,,,,,,,,,,,,,,,repeat,number,numRpt,d,0.5132,Hi,,,,,,4,,,,,,,,low,5,0,5,0,1,,,,,,,,,
295276,2022-11-21_17h00.28.145,vts_reward_expectancy_bt,2022.2.4,Win32,143.3486239,Chrome,1536,864,,,,,1,1154,,,,,,,,,,,,,,,,,146,D,triangle,1,0,,,,,,,,,,,,,,,,repeat,number,numRpt,d,0.5567,Lo,,,,,,4,,,,,,,,low,6,0,6,0,1,,,,,,,,,
295276,2022-11-21_17h00.28.145,vts_reward_expectancy_bt,2022.2.4,Win32,143.3486239,Chrome,1536,864,,,,,10,1164,,,,,,,,,,,,,,,,,167,H,hexagon,1,0,,,,,,,,,,,,,,,,repeat,number,numRpt,f,0.5825,Lo,,,,,,4,,,,,,,,low,7,0,7,0,1,,,,,,,,,
295276,2022-11-21_17h00.28.145,vts_reward_expectancy_bt,2022.2.4,Win32,143.3486239,Chrome,1536,864,,,,,0,1164,,,,,,,,,,,,,,,,,160,F,circle,1,0,,,,,,,,,,,,,,,,switch,letter,lettSwt,j,0.6055,Hi,,,,,,4,,,,,,,,low,8,0,8,0,1,,,,,,,,,
295276,2022-11-21_17h00.28.145,vts_reward_expectancy_bt,2022.2.4,Win32,143.3486239,Chrome,1536,864,,,,,0,1164,,,,,,,,,,,,,,,,,125,S,star,1,0,,,,,,,,,,,,,,,,repeat,letter,lettRpt,k,0.5604,Hi,,,,,,4,,,,,,,,low,9,0,9,0,1,,,,,,,,,
295276,2022-11-21_17h00.28.145,vts_reward_expectancy_bt,2022.2.4,Win32,143.3486239,Chrome,1536,864,,,,,10,1174,,,,,,,,,,,,,,,,,174,B,triangle,1,0,,,,,,,,,,,,,,,,repeat,letter,lettRpt,j,0.5132,Lo,,,,,,4,,,,,,,,low,10,0,10,0,1,,,,,,,,,
295276,2022-11-21_17h00.28.145,vts_reward_expectancy_bt,2022.2.4,Win32,143.3486239,Chrome,1536,864,,,,,10,1184,,,,,,,,,,,,,,,,,181,U,hexagon,1,0,,,,,,,,,,,,,,,,switch,number,numSwt,f,0.4712,Lo,,,,,,4,,,,,,,,low,11,0,11,0,1,,,,,,,,,
295276,2022-11-21_17h00.28.145,vts_reward_expectancy_bt,2022.2.4,Win32,143.3486239,Chrome,1536,864,,,,,1,1185,,,,,,,,,,,,,,,,,132,Y,hexagon,1,0,,,,,,,,,,,,,,,,switch,letter,lettSwt,k,0.5138,Lo,,,,,,4,,,,,,,,low,12,0,12,0,1,,,,,,,,,
295276,2022-11-21_17h00.28.145,vts_reward_expectancy_bt,2022.2.4,Win32,143.3486239,Chrome,1536,864,,,,,10,1195,,,,,,,,,,,,,,,,,139,W,triangle,1,0,,,,,,,,,,,,,,,,repeat,letter,lettRpt,k,0.5153,Lo,,,,,,4,,,,,,,,low,13,0,13,0,1,,,,,,,,,
295276,2022-11-21_17h00.28.145,vts_reward_expectancy_bt,2022.2.4,Win32,143.3486239,Chrome,1536,864,,,,,0,1195,,,,,,,,,,,,,,,,,146,D,circle,1,0,,,,,,,,,,,,,,,,switch,number,numSwt,d,0.5273,Hi,,,,,,4,,,,,,,,low,14,0,14,0,1,,,,,,,,,
295276,2022-11-21_17h00.28.145,vts_reward_expectancy_bt,2022.2.4,Win32,143.3486239,Chrome,1536,864,,,,,0,1195,,,,,,,,,,,,,,,,,167,H,star,0,0,,,,,,,,,,,,,,,,repeat,number,NA,d,0.5569,Hi,,,,,,4,,,,,,,,low,15,0,15,0,1,,,,,,,,,
295276,2022-11-21_17h00.28.145,vts_reward_expectancy_bt,2022.2.4,Win32,143.3486239,Chrome,1536,864,,,,,1,1196,,,,,,,,,,,,,,,,,132,U,hexagon,1,1,,,,,,,,,,,,,,,,repeat,number,numRpt,d,0.5941,Lo,,,,,,4,,,,,,,,low,16,0,16,0,1,,,,,,,,,
295276,2022-11-21_17h00.28.145,vts_reward_expectancy_bt,2022.2.4,Win32,143.3486239,Chrome,1536,864,,,,,1,1197,,,,,,,,,,,,,,,,,181,B,triangle,1,0,,,,,,,,,,,,,,,,repeat,number,numRpt,f,0.6476,Lo,,,,,,4,,,,,,,,low,17,0,17,0,1,,,,,,,,,
295276,2022-11-21_17h00.28.145,vts_reward_expectancy_bt,2022.2.4,Win32,143.3486239,Chrome,1536,864,,,,,0,1197,,,,,,,,,,,,,,,,,160,W,circle,1,0,,,,,,,,,,,,,,,,repeat,number,numRpt,f,0.5345,Hi,,,,,,4,,,,,,,,low,18,0,18,0,1,,,,,,,,,
295276,2022-11-21_17h00.28.145,vts_reward_expectancy_bt,2022.2.4,Win32,143.3486239,Chrome,1536,864,,,,,0,1197,,,,,,,,,,,,,,,,,174,Y,star,1,0,,,,,,,,,,,,,,,,repeat,number,numRpt,f,0.5771,Hi,,,,,,4,,,,,,,,low,19,0,19,0,1,,,,,,,,,
295276,2022-11-21_17h00.28.145,vts_reward_expectancy_bt,2022.2.4,Win32,143.3486239,Chrome,1536,864,,,,,1,1198,,,,,,,,,,,,,,,,,146,F,triangle,1,0,,,,,,,,,,,,,,,,repeat,number,numRpt,d,0.5369,Lo,,,,,,4,,,,,,,,low,20,0,20,0,1,,,,,,,,,
295276,2022-11-21_17h00.28.145,vts_reward_expectancy_bt,2022.2.4,Win32,143.3486239,Chrome,1536,864,,,,,0,1198,,,,,,,,,,,,,,,,,139,S,circle,1,0,,,,,,,,,,,,,,,,repeat,number,numRpt,d,0.5327,Hi,,,,,,4,,,,,,,,low,21,0,21,0,1,,,,,,,,,
295276,2022-11-21_17h00.28.145,vts_reward_expectancy_bt,2022.2.4,Win32,143.3486239,Chrome,1536,864,,,,,0,1198,,,,,,,,,,,,,,,,,125,D,star,1,0,,,,,,,,,,,,,,,,repeat,number,numRpt,d,0.5541,Hi,,,,,,4,,,,,,,,low,22,0,22,0,1,,,,,,,,,
295276,2022-11-21_17h00.28.145,vts_reward_expectancy_bt,2022.2.4,Win32,143.3486239,Chrome,1536,864,,,,,1,1199,,,,,,,,,,,,,,,,,167,H,hexagon,1,0,,,,,,,,,,,,,,,,repeat,number,numRpt,f,0.5781,Lo,,,,,,4,,,,,,,,low,23,0,23,0,1,,,,,,,,,
295276,2022-11-21_17h00.28.145,vts_reward_expectancy_bt,2022.2.4,Win32,143.3486239,Chrome,1536,864,,,,,1,1200,,,,,,,,,,,,,,,,,181,B,hexagon,1,0,,,,,,,,,,,,,,,,repeat,number,numRpt,f,0.6324,Lo,,,,,,4,,,,,,,,low,24,0,24,0,1,,,,,,,,,
295276,2022-11-21_17h00.28.145,vts_reward_expectancy_bt,2022.2.4,Win32,143.3486239,Chrome,1536,864,,,,,1,1201,,,,,,,,,,,,,,,,,174,F,triangle,1,0,,,,,,,,,,,,,,,,repeat,number,numRpt,f,0.5045,Lo,,,,,,4,,,,,,,,low,25,0,25,0,1,,,,,,,,,
295276,2022-11-21_17h00.28.145,vts_reward_expectancy_bt,2022.2.4,Win32,143.3486239,Chrome,1536,864,,,,,10,1211,,,,,,,,,,,,,,,,,160,D,circle,1,0,,,,,,,,,,,,,,,,repeat,number,numRpt,f,0.4923,Hi,,,,,,4,,,,,,,,low,26,0,26,0,1,,,,,,,,,
295276,2022-11-21_17h00.28.145,vts_reward_expectancy_bt,2022.2.4,Win32,143.3486239,Chrome,1536,864,,,,,10,1221,,,,,,,,,,,,,,,,,146,W,star,1,0,,,,,,,,,,,,,,,,switch,letter,lettSwt,k,0.4672,Hi,,,,,,4,,,,,,,,low,27,0,27,0,1,,,,,,,,,
295276,2022-11-21_17h00.28.145,vts_reward_expectancy_bt,2022.2.4,Win32,143.3486239,Chrome,1536,864,,,,,0,1221,,,,,,,,,,,,,,,,,132,Y,hexagon,0,0,,,,,,,,,,,,,,,,switch,number,NA,f,0.4648,Hi,,,,,,4,,,,,,,,low,28,0,28,0,1,,,,,,,,,
295276,2022-11-21_17h00.28.145,vts_reward_expectancy_bt,2022.2.4,Win32,143.3486239,Chrome,1536,864,,,,,0,1221,,,,,,,,,,,,,,,,,167,U,star,0,1,,,,,,,,,,,,,,,,repeat,number,NA,d,0.5407,Hi,,,,,,4,,,,,,,,low,29,0,29,0,1,,,,,,,,,
295276,2022-11-21_17h00.28.145,vts_reward_expectancy_bt,2022.2.4,Win32,143.3486239,Chrome,1536,864,,,,,10,1231,,,,,,,,,,,,,,,,,139,S,circle,1,1,,,,,,,,,,,,,,,,repeat,number,numRpt,d,0.4863,Hi,,,,,,4,,,,,,,,low,30,0,30,0,1,,,,,,,,,
295276,2022-11-21_17h00.28.145,vts_reward_expectancy_bt,2022.2.4,Win32,143.3486239,Chrome,1536,864,,,,,0,1231,,,,,,,,,,,,,,,,,125,H,triangle,0,0,,,,,,,,,,,,,,,,switch,letter,NA,k,0.5127,Hi,,,,,,4,,,,,,,,low,31,0,31,0,1,,,,,,,,,
295276,2022-11-21_17h00.28.145,vts_reward_expectancy_bt,2022.2.4,Win32,143.3486239,Chrome,1536,864,,,,,0,1231,,,,,,,,,,,,,,,,,174,Y,star,1,1,,,,,,,,,,,,,,,,switch,number,numSwt,f,0.6455,Hi,,,,,,5,,,,,,space,0.7811,low,0,0,0,0,1,,,,,,,,,
295276,2022-11-21_17h00.28.145,vts_reward_expectancy_bt,2022.2.4,Win32,143.3486239,Chrome,1536,864,,,,,1,1232,,,,,,,,,,,,,,,,,125,W,hexagon,1,0,,,,,,,,,,,,,,,,repeat,number,numRpt,d,0.5336,Lo,,,,,,5,,,,,,,,low,1,0,1,0,1,,,,,,,,,
295276,2022-11-21_17h00.28.145,vts_reward_expectancy_bt,2022.2.4,Win32,143.3486239,Chrome,1536,864,,,,,10,1242,,,,,,,,,,,,,,,,,146,D,circle,1,0,,,,,,,,,,,,,,,,repeat,number,numRpt,d,0.4426,Hi,,,,,,5,,,,,,,,low,2,0,2,0,1,,,,,,,,,
295276,2022-11-21_17h00.28.145,vts_reward_expectancy_bt,2022.2.4,Win32,143.3486239,Chrome,1536,864,,,,,10,1252,,,,,,,,,,,,,,,,,181,B,triangle,1,0,,,,,,,,,,,,,,,,switch,letter,lettSwt,j,0.648,Lo,,,,,,5,,,,,,,,low,3,0,3,0,1,,,,,,,,,
295276,2022-11-21_17h00.28.145,vts_reward_expectancy_bt,2022.2.4,Win32,143.3486239,Chrome,1536,864,,,,,0,1252,,,,,,,,,,,,,,,,,167,H,star,1,0,,,,,,,,,,,,,,,,switch,number,numSwt,f,0.5131,Hi,,,,,,5,,,,,,,,low,4,0,4,0,1,,,,,,,,,
295276,2022-11-21_17h00.28.145,vts_reward_expectancy_bt,2022.2.4,Win32,143.3486239,Chrome,1536,864,,,,,1,1253,,,,,,,,,,,,,,,,,160,U,hexagon,1,0,,,,,,,,,,,,,,,,repeat,number,numRpt,f,0.7642,Lo,,,,,,5,,,,,,,,low,5,0,5,0,1,,,,,,,,,
295276,2022-11-21_17h00.28.145,vts_reward_expectancy_bt,2022.2.4,Win32,143.3486239,Chrome,1536,864,,,,,0,1253,,,,,,,,,,,,,,,,,139,F,circle,0,0,,,,,,,,,,,,,,,,repeat,number,NA,f,0.5556,Lo,,,,,,5,,,,,,,,low,6,0,6,0,1,,,,,,,,,
295276,2022-11-21_17h00.28.145,vts_reward_expectancy_bt,2022.2.4,Win32,143.3486239,Chrome,1536,864,,,,,1,1254,,,,,,,,,,,,,,,,,132,S,triangle,1,1,,,,,,,,,,,,,,,,repeat,number,numRpt,d,0.5578,Lo,,,,,,5,,,,,,,,low,7,0,7,0,1,,,,,,,,,
295276,2022-11-21_17h00.28.145,vts_reward_expectancy_bt,2022.2.4,Win32,143.3486239,Chrome,1536,864,,,,,10,1264,,,,,,,,,,,,,,,,,174,Y,star,1,0,,,,,,,,,,,,,,,,repeat,number,numRpt,f,0.4873,Hi,,,,,,5,,,,,,,,low,8,0,8,0,1,,,,,,,,,
295276,2022-11-21_17h00.28.145,vts_reward_expectancy_bt,2022.2.4,Win32,143.3486239,Chrome,1536,864,,,,,0,1264,,,,,,,,,,,,,,,,,125,W,circle,1,0,,,,,,,,,,,,,,,,switch,letter,lettSwt,k,0.5094,Hi,,,,,,5,,,,,,,,low,9,0,9,0,1,,,,,,,,,
295276,2022-11-21_17h00.28.145,vts_reward_expectancy_bt,2022.2.4,Win32,143.3486239,Chrome,1536,864,,,,,10,1274,,,,,,,,,,,,,,,,,146,D,hexagon,1,0,,,,,,,,,,,,,,,,repeat,letter,lettRpt,j,0.5276,Lo,,,,,,5,,,,,,,,low,10,0,10,0,1,,,,,,,,,
295276,2022-11-21_17h00.28.145,vts_reward_expectancy_bt,2022.2.4,Win32,143.3486239,Chrome,1536,864,,,,,1,1275,,,,,,,,,,,,,,,,,181,B,triangle,1,0,,,,,,,,,,,,,,,,switch,number,numSwt,f,0.5134,Lo,,,,,,5,,,,,,,,low,11,0,11,0,1,,,,,,,,,
295276,2022-11-21_17h00.28.145,vts_reward_expectancy_bt,2022.2.4,Win32,143.3486239,Chrome,1536,864,,,,,0,1275,,,,,,,,,,,,,,,,,167,H,star,1,0,,,,,,,,,,,,,,,,repeat,number,numRpt,f,0.5969,Hi,,,,,,5,,,,,,,,low,12,0,12,0,1,,,,,,,,,
295276,2022-11-21_17h00.28.145,vts_reward_expectancy_bt,2022.2.4,Win32,143.3486239,Chrome,1536,864,,,,,0,1275,,,,,,,,,,,,,,,,,160,U,circle,1,0,,,,,,,,,,,,,,,,repeat,number,numRpt,f,0.5433,Hi,,,,,,5,,,,,,,,low,13,0,13,0,1,,,,,,,,,
295276,2022-11-21_17h00.28.145,vts_reward_expectancy_bt,2022.2.4,Win32,143.3486239,Chrome,1536,864,,,,,0,1275,,,,,,,,,,,,,,,,,139,F,triangle,0,0,,,,,,,,,,,,,,,,repeat,number,NA,f,0.4944,Hi,,,,,,5,,,,,,,,low,14,0,14,0,1,,,,,,,,,
295276,2022-11-21_17h00.28.145,vts_reward_expectancy_bt,2022.2.4,Win32,143.3486239,Chrome,1536,864,,,,,1,1276,,,,,,,,,,,,,,,,,132,S,hexagon,1,1,,,,,,,,,,,,,,,,switch,letter,lettSwt,k,0.5489,Lo,,,,,,5,,,,,,,,low,15,0,15,0,1,,,,,,,,,
295276,2022-11-21_17h00.28.145,vts_reward_expectancy_bt,2022.2.4,Win32,143.3486239,Chrome,1536,864,,,,,1,1277,,,,,,,,,,,,,,,,,125,F,triangle,1,0,,,,,,,,,,,,,,,,repeat,letter,lettRpt,j,0.5354,Lo,,,,,,5,,,,,,,,low,16,0,16,0,1,,,,,,,,,
295276,2022-11-21_17h00.28.145,vts_reward_expectancy_bt,2022.2.4,Win32,143.3486239,Chrome,1536,864,,,,,0,1277,,,,,,,,,,,,,,,,,146,W,circle,1,0,,,,,,,,,,,,,,,,repeat,letter,lettRpt,k,0.5996,Hi,,,,,,5,,,,,,,,low,17,0,17,0,1,,,,,,,,,
295276,2022-11-21_17h00.28.145,vts_reward_expectancy_bt,2022.2.4,Win32,143.3486239,Chrome,1536,864,,,,,10,1287,,,,,,,,,,,,,,,,,139,B,hexagon,1,0,,,,,,,,,,,,,,,,repeat,letter,lettRpt,j,0.5433,Lo,,,,,,5,,,,,,,,low,18,0,18,0,1,,,,,,,,,
295276,2022-11-21_17h00.28.145,vts_reward_expectancy_bt,2022.2.4,Win32,143.3486239,Chrome,1536,864,,,,,0,1287,,,,,,,,,,,,,,,,,174,D,star,0,0,,,,,,,,,,,,,,,,repeat,letter,NA,k,0.9646,Lo,,,,,,5,,,,,,,,low,19,0,19,0,1,,,,,,,,,
295276,2022-11-21_17h00.28.145,vts_reward_expectancy_bt,2022.2.4,Win32,143.3486239,Chrome,1536,864,,,,,0,1287,,,,,,,,,,,,,,,,,132,H,circle,1,1,,,,,,,,,,,,,,,,repeat,letter,lettRpt,j,0.5582,Hi,,,,,,5,,,,,,,,low,20,0,20,0,1,,,,,,,,,
295276,2022-11-21_17h00.28.145,vts_reward_expectancy_bt,2022.2.4,Win32,143.3486239,Chrome,1536,864,,,,,0,1287,,,,,,,,,,,,,,,,,160,U,star,0,0,,,,,,,,,,,,,,,,repeat,letter,NA,j,0.5422,Hi,,,,,,5,,,,,,,,low,21,0,21,0,1,,,,,,,,,
295276,2022-11-21_17h00.28.145,vts_reward_expectancy_bt,2022.2.4,Win32,143.3486239,Chrome,1536,864,,,,,10,1297,,,,,,,,,,,,,,,,,167,Y,triangle,1,1,,,,,,,,,,,,,,,,switch,number,numSwt,f,0.5562,Lo,,,,,,5,,,,,,,,low,22,0,22,0,1,,,,,,,,,
295276,2022-11-21_17h00.28.145,vts_reward_expectancy_bt,2022.2.4,Win32,143.3486239,Chrome,1536,864,,,,,1,1298,,,,,,,,,,,,,,,,,181,S,hexagon,1,0,,,,,,,,,,,,,,,,switch,letter,lettSwt,k,0.5351,Lo,,,,,,5,,,,,,,,low,23,0,23,0,1,,,,,,,,,
295276,2022-11-21_17h00.28.145,vts_reward_expectancy_bt,2022.2.4,Win32,143.3486239,Chrome,1536,864,,,,,0,1298,,,,,,,,,,,,,,,,,160,U,star,1,0,,,,,,,,,,,,,,,,repeat,letter,lettRpt,k,0.5392,Hi,,,,,,5,,,,,,,,low,24,0,24,0,1,,,,,,,,,
295276,2022-11-21_17h00.28.145,vts_reward_expectancy_bt,2022.2.4,Win32,143.3486239,Chrome,1536,864,,,,,1,1299,,,,,,,,,,,,,,,,,146,F,hexagon,1,0,,,,,,,,,,,,,,,,repeat,letter,lettRpt,j,0.5149,Lo,,,,,,5,,,,,,,,low,25,0,25,0,1,,,,,,,,,
295276,2022-11-21_17h00.28.145,vts_reward_expectancy_bt,2022.2.4,Win32,143.3486239,Chrome,1536,864,,,,,1,1300,,,,,,,,,,,,,,,,,181,H,triangle,1,0,,,,,,,,,,,,,,,,repeat,letter,lettRpt,j,0.5896,Lo,,,,,,5,,,,,,,,low,26,0,26,0,1,,,,,,,,,
295276,2022-11-21_17h00.28.145,vts_reward_expectancy_bt,2022.2.4,Win32,143.3486239,Chrome,1536,864,,,,,10,1310,,,,,,,,,,,,,,,,,167,S,circle,1,0,,,,,,,,,,,,,,,,repeat,letter,lettRpt,k,0.4865,Hi,,,,,,5,,,,,,,,low,27,0,27,0,1,,,,,,,,,
295276,2022-11-21_17h00.28.145,vts_reward_expectancy_bt,2022.2.4,Win32,143.3486239,Chrome,1536,864,,,,,1,1311,,,,,,,,,,,,,,,,,139,B,triangle,1,0,,,,,,,,,,,,,,,,switch,number,numSwt,d,0.507,Lo,,,,,,5,,,,,,,,low,28,0,28,0,1,,,,,,,,,
295276,2022-11-21_17h00.28.145,vts_reward_expectancy_bt,2022.2.4,Win32,143.3486239,Chrome,1536,864,,,,,1,1312,,,,,,,,,,,,,,,,,174,W,hexagon,1,0,,,,,,,,,,,,,,,,repeat,number,numRpt,f,0.5963,Lo,,,,,,5,,,,,,,,low,29,0,29,0,1,,,,,,,,,
295276,2022-11-21_17h00.28.145,vts_reward_expectancy_bt,2022.2.4,Win32,143.3486239,Chrome,1536,864,,,,,0,1312,,,,,,,,,,,,,,,,,125,Y,star,1,0,,,,,,,,,,,,,,,,repeat,number,numRpt,d,0.6942,Hi,,,,,,5,,,,,,,,low,30,0,30,0,1,,,,,,,,,
295276,2022-11-21_17h00.28.145,vts_reward_expectancy_bt,2022.2.4,Win32,143.3486239,Chrome,1536,864,,,,,0,1312,,,,,,,,,,,,,,,,,132,D,circle,1,0,,,,,,,,,,,,,,,,repeat,number,numRpt,d,0.5345,Hi,,,,,,5,,,,,,,,low,31,0,31,0,1,,,,,,,,,
295276,2022-11-21_17h00.28.145,vts_reward_expectancy_bt,2022.2.4,Win32,143.3486239,Chrome,1536,864,,,,,10,1322,,,,,,,,,,,,,,,,,125,F,star,1,0,,,,,,,,,,,,,,,,switch,letter,lettSwt,j,0.4796,Hi,,,,,,6,,,,,,space,0.892,low,0,0,0,0,1,,,,,,,,,
295276,2022-11-21_17h00.28.145,vts_reward_expectancy_bt,2022.2.4,Win32,143.3486239,Chrome,1536,864,,,,,1,1323,,,,,,,,,,,,,,,,,139,H,triangle,1,0,,,,,,,,,,,,,,,,switch,number,numSwt,d,0.4662,Lo,,,,,,6,,,,,,,,low,1,0,1,0,1,,,,,,,,,
295276,2022-11-21_17h00.28.145,vts_reward_expectancy_bt,2022.2.4,Win32,143.3486239,Chrome,1536,864,,,,,1,1324,,,,,,,,,,,,,,,,,132,S,hexagon,1,0,,,,,,,,,,,,,,,,repeat,number,numRpt,d,0.5424,Lo,,,,,,6,,,,,,,,low,2,0,2,0,1,,,,,,,,,
295276,2022-11-21_17h00.28.145,vts_reward_expectancy_bt,2022.2.4,Win32,143.3486239,Chrome,1536,864,,,,,10,1334,,,,,,,,,,,,,,,,,160,W,circle,1,0,,,,,,,,,,,,,,,,repeat,number,numRpt,f,0.4463,Hi,,,,,,6,,,,,,,,low,3,0,3,0,1,,,,,,,,,
295276,2022-11-21_17h00.28.145,vts_reward_expectancy_bt,2022.2.4,Win32,143.3486239,Chrome,1536,864,,,,,1,1335,,,,,,,,,,,,,,,,,174,B,star,1,0,,,,,,,,,,,,,,,,switch,letter,lettSwt,j,0.4738,Hi,,,,,,6,,,,,,,,low,4,0,4,0,1,,,,,,,,,
295276,2022-11-21_17h00.28.145,vts_reward_expectancy_bt,2022.2.4,Win32,143.3486239,Chrome,1536,864,,,,,10,1345,,,,,,,,,,,,,,,,,181,U,triangle,1,0,,,,,,,,,,,,,,,,repeat,letter,lettRpt,k,0.4651,Lo,,,,,,6,,,,,,,,low,5,0,5,0,1,,,,,,,,,
295276,2022-11-21_17h00.28.145,vts_reward_expectancy_bt,2022.2.4,Win32,143.3486239,Chrome,1536,864,,,,,0,1345,,,,,,,,,,,,,,,,,146,D,hexagon,0,0,,,,,,,,,,,,,,,,switch,number,NA,f,0.5144,Lo,,,,,,6,,,,,,,,low,6,0,6,0,1,,,,,,,,,
295276,2022-11-21_17h00.28.145,vts_reward_expectancy_bt,2022.2.4,Win32,143.3486239,Chrome,1536,864,,,,,0,1345,,,,,,,,,,,,,,,,,167,Y,circle,0,1,,,,,,,,,,,,,,,,repeat,number,NA,d,0.5163,Lo,,,,,,6,,,,,,,,low,7,0,7,0,1,,,,,,,,,
