participant,date,expName,psychopyVersion,OS,frameRate,browser,xResolution,yResolution,key_resp.keys,key_resp.rt,training_resp.keys,training_resp.rt,points_trial,points_cumul,trainBlock,training.thisRepN,training.thisTrialN,training.thisN,training.thisIndex,training.ran,LTriangleOpac,LCircleOpac,LHexagonOpac,LStarOpac,RTriangleOpac,RCircleOpac,RHexagonOpac,RStarOpac,LShape_ID,RShape_ID,curr_topStim,curr_bottStim,curr_shape,acc,E1,target_resp_prac1.keys,pracBlock,task1_prac_trials.thisRepN,task1_prac_trials.thisTrialN,task1_prac_trials.thisN,task1_prac_trials.thisIndex,task1_prac_trials.ran,target_resp_prac1.rt,target_resp_prac2.keys,target_resp_prac2.rt,task2_praac_trials.thisRepN,task2_praac_trials.thisTrialN,task2_praac_trials.thisN,task2_praac_trials.thisIndex,task2_praac_trials.ran,alt,task,condition,target_resp.keys,rewCond,vts_practice_trials.thisRepN,vts_practice_trials.thisTrialN,vts_practice_trials.thisN,vts_practice_trials.thisIndex,vts_practice_trials.ran,target_resp.rt,blockNum,trials_norew.thisRepN,trials_norew.thisTrialN,trials_norew.thisN,trials_norew.thisIndex,trials_norew.ran,key_resp_2.keys,key_resp_2.rt,rewExpectancy,trials_rew.thisRepN,trials_rew.thisTrialN,trials_rew.thisN,trials_rew.thisIndex,trials_rew.ran,Q1,Q2,Q2_text,Q3,Q4,Q5,Q5_text,xRes,yRes
295330,2022-11-25_11h04.03.838,vts_reward_expectancy_bt,2022.2.4,MacIntel,60.0024001,Chrome,1200,750,,,,,,,,,,,,,,,,,,,,,,,,,,,,,,,,,,,,,,,,,,,,,,,,,,,,,,,,,,,,,,,,,,,,,,,,,,,,
295330,2022-11-25_11h04.03.838,vts_reward_expectancy_bt,2022.2.4,MacIntel,60.0024001,Chrome,1200,750,space,2.3682,,,,,,,,,,,,,,,,,,,,,,,,,,,,,,,,,,,,,,,,,,,,,,,,,,,,,,,,,,,,,,,,,,,,,,,,,,
295330,2022-11-25_11h04.03.838,vts_reward_expectancy_bt,2022.2.4,MacIntel,60.0024001,Chrome,1200,750,,,,,,,,,,,,,,,,,,,,,,,,,,,,,,,,,,,,,,,,,,,,,,,,,,,,,,,,,,,,,,,,,,,,,,,,,,,,
295330,2022-11-25_11h04.03.838,vts_reward_expectancy_bt,2022.2.4,MacIntel,60.0024001,Chrome,1200,750,,,a,5.5615,1,1,0,0,0,0,8,1,0,0,1,0,0,0,0,1,hexagon,star,,,,,,,,,,,,,,,,,,,,,,,,,,,,,,,,,,,,,,,,,,,,,,,,,,,,,,
295330,2022-11-25_11h04.03.838,vts_reward_expectancy_bt,2022.2.4,MacIntel,60.0024001,Chrome,1200,750,,,a,7.0321,1,2,0,0,1,1,2,1,1,0,0,0,0,0,0,1,triangle,star,,,,,,,,,,,,,,,,,,,,,,,,,,,,,,,,,,,,,,,,,,,,,,,,,,,,,,
295330,2022-11-25_11h04.03.838,vts_reward_expectancy_bt,2022.2.4,MacIntel,60.0024001,Chrome,1200,750,,,a,4.3021,1,3,0,0,2,2,6,1,0,0,1,0,1,0,0,0,hexagon,triangle,,,,,,,,,,,,,,,,,,,,,,,,,,,,,,,,,,,,,,,,,,,,,,,,,,,,,,
295330,2022-11-25_11h04.03.838,vts_reward_expectancy_bt,2022.2.4,MacIntel,60.0024001,Chrome,1200,750,,,l,1.6831,10,13,0,0,3,3,7,1,0,0,1,0,0,1,0,0,hexagon,circle,,,,,,,,,,,,,,,,,,,,,,,,,,,,,,,,,,,,,,,,,,,,,,,,,,,,,,
295330,2022-11-25_11h04.03.838,vts_reward_expectancy_bt,2022.2.4,MacIntel,60.0024001,Chrome,1200,750,,,a,1.8541,1,14,0,0,4,4,11,1,0,0,0,1,0,0,1,0,star,hexagon,,,,,,,,,,,,,,,,,,,,,,,,,,,,,,,,,,,,,,,,,,,,,,,,,,,,,,
295330,2022-11-25_11h04.03.838,vts_reward_expectancy_bt,2022.2.4,MacIntel,60.0024001,Chrome,1200,750,,,l,0.9797,10,24,0,0,5,5,4,1,0,1,0,0,0,0,1,0,circle,hexagon,,,,,,,,,,,,,,,,,,,,,,,,,,,,,,,,,,,,,,,,,,,,,,,,,,,,,,
295330,2022-11-25_11h04.03.838,vts_reward_expectancy_bt,2022.2.4,MacIntel,60.0024001,Chrome,1200,750,,,l,0.4545,10,34,0,0,6,6,10,1,0,0,0,1,0,1,0,0,star ,circle,,,,,,,,,,,,,,,,,,,,,,,,,,,,,,,,,,,,,,,,,,,,,,,,,,,,,,
295330,2022-11-25_11h04.03.838,vts_reward_expectancy_bt,2022.2.4,MacIntel,60.0024001,Chrome,1200,750,,,l,0.4183,1,35,0,0,7,7,9,1,0,0,0,1,1,0,0,0,star,triangle,,,,,,,,,,,,,,,,,,,,,,,,,,,,,,,,,,,,,,,,,,,,,,,,,,,,,,
295330,2022-11-25_11h04.03.838,vts_reward_expectancy_bt,2022.2.4,MacIntel,60.0024001,Chrome,1200,750,,,a,0.4846,1,36,0,0,8,8,0,1,1,0,0,0,0,1,0,0,triangle,circle,,,,,,,,,,,,,,,,,,,,,,,,,,,,,,,,,,,,,,,,,,,,,,,,,,,,,,
295330,2022-11-25_11h04.03.838,vts_reward_expectancy_bt,2022.2.4,MacIntel,60.0024001,Chrome,1200,750,,,l,0.5005,1,37,0,0,9,9,3,1,0,1,0,0,1,0,0,0,circle,triangle,,,,,,,,,,,,,,,,,,,,,,,,,,,,,,,,,,,,,,,,,,,,,,,,,,,,,,
295330,2022-11-25_11h04.03.838,vts_reward_expectancy_bt,2022.2.4,MacIntel,60.0024001,Chrome,1200,750,,,a,0.7143,10,47,0,0,10,10,5,1,0,1,0,0,0,0,0,1,circle,star,,,,,,,,,,,,,,,,,,,,,,,,,,,,,,,,,,,,,,,,,,,,,,,,,,,,,,
295330,2022-11-25_11h04.03.838,vts_reward_expectancy_bt,2022.2.4,MacIntel,60.0024001,Chrome,1200,750,,,l,1.3343,10,57,0,0,11,11,1,1,1,0,0,0,0,0,1,0,triangle,hexagon,,,,,,,,,,,,,,,,,,,,,,,,,,,,,,,,,,,,,,,,,,,,,,,,,,,,,,
295330,2022-11-25_11h04.03.838,vts_reward_expectancy_bt,2022.2.4,MacIntel,60.0024001,Chrome,1200,750,,,l,2.452,10,67,0,1,0,12,7,1,0,0,1,0,0,1,0,0,hexagon,circle,,,,,,,,,,,,,,,,,,,,,,,,,,,,,,,,,,,,,,,,,,,,,,,,,,,,,,
295330,2022-11-25_11h04.03.838,vts_reward_expectancy_bt,2022.2.4,MacIntel,60.0024001,Chrome,1200,750,,,a,1.3695,1,68,0,1,1,13,8,1,0,0,1,0,0,0,0,1,hexagon,star,,,,,,,,,,,,,,,,,,,,,,,,,,,,,,,,,,,,,,,,,,,,,,,,,,,,,,
295330,2022-11-25_11h04.03.838,vts_reward_expectancy_bt,2022.2.4,MacIntel,60.0024001,Chrome,1200,750,,,a,3.6893,10,78,0,1,2,14,2,1,1,0,0,0,0,0,0,1,triangle,star,,,,,,,,,,,,,,,,,,,,,,,,,,,,,,,,,,,,,,,,,,,,,,,,,,,,,,
295330,2022-11-25_11h04.03.838,vts_reward_expectancy_bt,2022.2.4,MacIntel,60.0024001,Chrome,1200,750,,,l,4.2795,1,79,0,1,3,15,0,1,1,0,0,0,0,1,0,0,triangle,circle,,,,,,,,,,,,,,,,,,,,,,,,,,,,,,,,,,,,,,,,,,,,,,,,,,,,,,
295330,2022-11-25_11h04.03.838,vts_reward_expectancy_bt,2022.2.4,MacIntel,60.0024001,Chrome,1200,750,,,l,1.6511,1,80,0,1,4,16,5,1,0,1,0,0,0,0,0,1,circle,star,,,,,,,,,,,,,,,,,,,,,,,,,,,,,,,,,,,,,,,,,,,,,,,,,,,,,,
295330,2022-11-25_11h04.03.838,vts_reward_expectancy_bt,2022.2.4,MacIntel,60.0024001,Chrome,1200,750,,,l,3.1595,1,81,0,1,5,17,11,1,0,0,0,1,0,0,1,0,star,hexagon,,,,,,,,,,,,,,,,,,,,,,,,,,,,,,,,,,,,,,,,,,,,,,,,,,,,,,
295330,2022-11-25_11h04.03.838,vts_reward_expectancy_bt,2022.2.4,MacIntel,60.0024001,Chrome,1200,750,,,l,1.1072,1,82,0,1,6,18,4,1,0,1,0,0,0,0,1,0,circle,hexagon,,,,,,,,,,,,,,,,,,,,,,,,,,,,,,,,,,,,,,,,,,,,,,,,,,,,,,
295330,2022-11-25_11h04.03.838,vts_reward_expectancy_bt,2022.2.4,MacIntel,60.0024001,Chrome,1200,750,,,a,1.0079,10,92,0,1,7,19,1,1,1,0,0,0,0,0,1,0,triangle,hexagon,,,,,,,,,,,,,,,,,,,,,,,,,,,,,,,,,,,,,,,,,,,,,,,,,,,,,,
295330,2022-11-25_11h04.03.838,vts_reward_expectancy_bt,2022.2.4,MacIntel,60.0024001,Chrome,1200,750,,,l,1.0152,1,93,0,1,8,20,6,1,0,0,1,0,1,0,0,0,hexagon,triangle,,,,,,,,,,,,,,,,,,,,,,,,,,,,,,,,,,,,,,,,,,,,,,,,,,,,,,
295330,2022-11-25_11h04.03.838,vts_reward_expectancy_bt,2022.2.4,MacIntel,60.0024001,Chrome,1200,750,,,l,1.5517,10,103,0,1,9,21,10,1,0,0,0,1,0,1,0,0,star ,circle,,,,,,,,,,,,,,,,,,,,,,,,,,,,,,,,,,,,,,,,,,,,,,,,,,,,,,
295330,2022-11-25_11h04.03.838,vts_reward_expectancy_bt,2022.2.4,MacIntel,60.0024001,Chrome,1200,750,,,a,0.5146,1,104,0,1,10,22,3,1,0,1,0,0,1,0,0,0,circle,triangle,,,,,,,,,,,,,,,,,,,,,,,,,,,,,,,,,,,,,,,,,,,,,,,,,,,,,,
295330,2022-11-25_11h04.03.838,vts_reward_expectancy_bt,2022.2.4,MacIntel,60.0024001,Chrome,1200,750,,,l,1.8152,1,105,0,1,11,23,9,1,0,0,0,1,1,0,0,0,star,triangle,,,,,,,,,,,,,,,,,,,,,,,,,,,,,,,,,,,,,,,,,,,,,,,,,,,,,,
295330,2022-11-25_11h04.03.838,vts_reward_expectancy_bt,2022.2.4,MacIntel,60.0024001,Chrome,1200,750,,,a,1.6207,1,106,0,2,0,24,9,1,0,0,0,1,1,0,0,0,star,triangle,,,,,,,,,,,,,,,,,,,,,,,,,,,,,,,,,,,,,,,,,,,,,,,,,,,,,,
295330,2022-11-25_11h04.03.838,vts_reward_expectancy_bt,2022.2.4,MacIntel,60.0024001,Chrome,1200,750,,,a,1.3555,1,107,0,2,1,25,3,1,0,1,0,0,1,0,0,0,circle,triangle,,,,,,,,,,,,,,,,,,,,,,,,,,,,,,,,,,,,,,,,,,,,,,,,,,,,,,
295330,2022-11-25_11h04.03.838,vts_reward_expectancy_bt,2022.2.4,MacIntel,60.0024001,Chrome,1200,750,,,a,1.2149,10,117,0,2,2,26,2,1,1,0,0,0,0,0,0,1,triangle,star,,,,,,,,,,,,,,,,,,,,,,,,,,,,,,,,,,,,,,,,,,,,,,,,,,,,,,
295330,2022-11-25_11h04.03.838,vts_reward_expectancy_bt,2022.2.4,MacIntel,60.0024001,Chrome,1200,750,,,l,1.2772,10,127,0,2,3,27,11,1,0,0,0,1,0,0,1,0,star,hexagon,,,,,,,,,,,,,,,,,,,,,,,,,,,,,,,,,,,,,,,,,,,,,,,,,,,,,,
295330,2022-11-25_11h04.03.838,vts_reward_expectancy_bt,2022.2.4,MacIntel,60.0024001,Chrome,1200,750,,,a,1.5248,1,128,0,2,4,28,8,1,0,0,1,0,0,0,0,1,hexagon,star,,,,,,,,,,,,,,,,,,,,,,,,,,,,,,,,,,,,,,,,,,,,,,,,,,,,,,
295330,2022-11-25_11h04.03.838,vts_reward_expectancy_bt,2022.2.4,MacIntel,60.0024001,Chrome,1200,750,,,l,1.0749,1,129,0,2,5,29,10,1,0,0,0,1,0,1,0,0,star ,circle,,,,,,,,,,,,,,,,,,,,,,,,,,,,,,,,,,,,,,,,,,,,,,,,,,,,,,
295330,2022-11-25_11h04.03.838,vts_reward_expectancy_bt,2022.2.4,MacIntel,60.0024001,Chrome,1200,750,,,a,4.188,10,139,0,2,6,30,0,1,1,0,0,0,0,1,0,0,triangle,circle,,,,,,,,,,,,,,,,,,,,,,,,,,,,,,,,,,,,,,,,,,,,,,,,,,,,,,
295330,2022-11-25_11h04.03.838,vts_reward_expectancy_bt,2022.2.4,MacIntel,60.0024001,Chrome,1200,750,,,a,11.8225,1,140,0,2,7,31,5,1,0,1,0,0,0,0,0,1,circle,star,,,,,,,,,,,,,,,,,,,,,,,,,,,,,,,,,,,,,,,,,,,,,,,,,,,,,,
295330,2022-11-25_11h04.03.838,vts_reward_expectancy_bt,2022.2.4,MacIntel,60.0024001,Chrome,1200,750,,,l,263.1752,10,150,0,2,8,32,6,1,0,0,1,0,1,0,0,0,hexagon,triangle,,,,,,,,,,,,,,,,,,,,,,,,,,,,,,,,,,,,,,,,,,,,,,,,,,,,,,
295330,2022-11-25_11h04.03.838,vts_reward_expectancy_bt,2022.2.4,MacIntel,60.0024001,Chrome,1200,750,,,a,2.1203,10,160,0,2,9,33,4,1,0,1,0,0,0,0,1,0,circle,hexagon,,,,,,,,,,,,,,,,,,,,,,,,,,,,,,,,,,,,,,,,,,,,,,,,,,,,,,
295330,2022-11-25_11h04.03.838,vts_reward_expectancy_bt,2022.2.4,MacIntel,60.0024001,Chrome,1200,750,,,a,2.2089,10,170,0,2,10,34,1,1,1,0,0,0,0,0,1,0,triangle,hexagon,,,,,,,,,,,,,,,,,,,,,,,,,,,,,,,,,,,,,,,,,,,,,,,,,,,,,,
295330,2022-11-25_11h04.03.838,vts_reward_expectancy_bt,2022.2.4,MacIntel,60.0024001,Chrome,1200,750,,,l,1.7367,1,171,0,2,11,35,7,1,0,0,1,0,0,1,0,0,hexagon,circle,,,,,,,,,,,,,,,,,,,,,,,,,,,,,,,,,,,,,,,,,,,,,,,,,,,,,,
295330,2022-11-25_11h04.03.838,vts_reward_expectancy_bt,2022.2.4,MacIntel,60.0024001,Chrome,1200,750,,,l,1.7139,1,172,1,0,0,0,7,1,0,0,1,0,0,1,0,0,hexagon,circle,,,,,,,,,,,,,,,,,,,,,,,,,,,,,,,,,,,,,,,,,,,,,,,,,,,,,,
295330,2022-11-25_11h04.03.838,vts_reward_expectancy_bt,2022.2.4,MacIntel,60.0024001,Chrome,1200,750,,,a,0.9237,10,182,1,0,1,1,6,1,0,0,1,0,1,0,0,0,hexagon,triangle,,,,,,,,,,,,,,,,,,,,,,,,,,,,,,,,,,,,,,,,,,,,,,,,,,,,,,
295330,2022-11-25_11h04.03.838,vts_reward_expectancy_bt,2022.2.4,MacIntel,60.0024001,Chrome,1200,750,,,l,1.5892,1,183,1,0,2,2,9,1,0,0,0,1,1,0,0,0,star,triangle,,,,,,,,,,,,,,,,,,,,,,,,,,,,,,,,,,,,,,,,,,,,,,,,,,,,,,
295330,2022-11-25_11h04.03.838,vts_reward_expectancy_bt,2022.2.4,MacIntel,60.0024001,Chrome,1200,750,,,l,1.7846,1,184,1,0,3,3,1,1,1,0,0,0,0,0,1,0,triangle,hexagon,,,,,,,,,,,,,,,,,,,,,,,,,,,,,,,,,,,,,,,,,,,,,,,,,,,,,,
295330,2022-11-25_11h04.03.838,vts_reward_expectancy_bt,2022.2.4,MacIntel,60.0024001,Chrome,1200,750,,,a,3.1067,10,194,1,0,4,4,5,1,0,1,0,0,0,0,0,1,circle,star,,,,,,,,,,,,,,,,,,,,,,,,,,,,,,,,,,,,,,,,,,,,,,,,,,,,,,
295330,2022-11-25_11h04.03.838,vts_reward_expectancy_bt,2022.2.4,MacIntel,60.0024001,Chrome,1200,750,,,a,1.3926,10,204,1,0,5,5,8,1,0,0,1,0,0,0,0,1,hexagon,star,,,,,,,,,,,,,,,,,,,,,,,,,,,,,,,,,,,,,,,,,,,,,,,,,,,,,,
295330,2022-11-25_11h04.03.838,vts_reward_expectancy_bt,2022.2.4,MacIntel,60.0024001,Chrome,1200,750,,,l,1.2983,10,214,1,0,6,6,10,1,0,0,0,1,0,1,0,0,star ,circle,,,,,,,,,,,,,,,,,,,,,,,,,,,,,,,,,,,,,,,,,,,,,,,,,,,,,,
295330,2022-11-25_11h04.03.838,vts_reward_expectancy_bt,2022.2.4,MacIntel,60.0024001,Chrome,1200,750,,,l,3.002,1,215,1,0,7,7,4,1,0,1,0,0,0,0,1,0,circle,hexagon,,,,,,,,,,,,,,,,,,,,,,,,,,,,,,,,,,,,,,,,,,,,,,,,,,,,,,
295330,2022-11-25_11h04.03.838,vts_reward_expectancy_bt,2022.2.4,MacIntel,60.0024001,Chrome,1200,750,,,a,1.5898,10,225,1,0,8,8,2,1,1,0,0,0,0,0,0,1,triangle,star,,,,,,,,,,,,,,,,,,,,,,,,,,,,,,,,,,,,,,,,,,,,,,,,,,,,,,
295330,2022-11-25_11h04.03.838,vts_reward_expectancy_bt,2022.2.4,MacIntel,60.0024001,Chrome,1200,750,,,l,1.3001,1,226,1,0,9,9,3,1,0,1,0,0,1,0,0,0,circle,triangle,,,,,,,,,,,,,,,,,,,,,,,,,,,,,,,,,,,,,,,,,,,,,,,,,,,,,,
295330,2022-11-25_11h04.03.838,vts_reward_expectancy_bt,2022.2.4,MacIntel,60.0024001,Chrome,1200,750,,,l,2.2527,1,227,1,0,10,10,11,1,0,0,0,1,0,0,1,0,star,hexagon,,,,,,,,,,,,,,,,,,,,,,,,,,,,,,,,,,,,,,,,,,,,,,,,,,,,,,
295330,2022-11-25_11h04.03.838,vts_reward_expectancy_bt,2022.2.4,MacIntel,60.0024001,Chrome,1200,750,,,a,1.1707,10,237,1,0,11,11,0,1,1,0,0,0,0,1,0,0,triangle,circle,,,,,,,,,,,,,,,,,,,,,,,,,,,,,,,,,,,,,,,,,,,,,,,,,,,,,,
295330,2022-11-25_11h04.03.838,vts_reward_expectancy_bt,2022.2.4,MacIntel,60.0024001,Chrome,1200,750,,,a,0.9922,10,247,1,1,0,12,7,1,0,0,1,0,0,1,0,0,hexagon,circle,,,,,,,,,,,,,,,,,,,,,,,,,,,,,,,,,,,,,,,,,,,,,,,,,,,,,,
295330,2022-11-25_11h04.03.838,vts_reward_expectancy_bt,2022.2.4,MacIntel,60.0024001,Chrome,1200,750,,,a,0.8024,10,257,1,1,1,13,1,1,1,0,0,0,0,0,1,0,triangle,hexagon,,,,,,,,,,,,,,,,,,,,,,,,,,,,,,,,,,,,,,,,,,,,,,,,,,,,,,
295330,2022-11-25_11h04.03.838,vts_reward_expectancy_bt,2022.2.4,MacIntel,60.0024001,Chrome,1200,750,,,a,0.8246,10,267,1,1,2,14,2,1,1,0,0,0,0,0,0,1,triangle,star,,,,,,,,,,,,,,,,,,,,,,,,,,,,,,,,,,,,,,,,,,,,,,,,,,,,,,
295330,2022-11-25_11h04.03.838,vts_reward_expectancy_bt,2022.2.4,MacIntel,60.0024001,Chrome,1200,750,,,a,0.65,1,268,1,1,3,15,11,1,0,0,0,1,0,0,1,0,star,hexagon,,,,,,,,,,,,,,,,,,,,,,,,,,,,,,,,,,,,,,,,,,,,,,,,,,,,,,
295330,2022-11-25_11h04.03.838,vts_reward_expectancy_bt,2022.2.4,MacIntel,60.0024001,Chrome,1200,750,,,a,0.8128,10,278,1,1,4,16,3,1,0,1,0,0,1,0,0,0,circle,triangle,,,,,,,,,,,,,,,,,,,,,,,,,,,,,,,,,,,,,,,,,,,,,,,,,,,,,,
295330,2022-11-25_11h04.03.838,vts_reward_expectancy_bt,2022.2.4,MacIntel,60.0024001,Chrome,1200,750,,,l,0.9688,1,279,1,1,5,17,10,1,0,0,0,1,0,1,0,0,star ,circle,,,,,,,,,,,,,,,,,,,,,,,,,,,,,,,,,,,,,,,,,,,,,,,,,,,,,,
295330,2022-11-25_11h04.03.838,vts_reward_expectancy_bt,2022.2.4,MacIntel,60.0024001,Chrome,1200,750,,,a,0.7911,1,280,1,1,6,18,8,1,0,0,1,0,0,0,0,1,hexagon,star,,,,,,,,,,,,,,,,,,,,,,,,,,,,,,,,,,,,,,,,,,,,,,,,,,,,,,
295330,2022-11-25_11h04.03.838,vts_reward_expectancy_bt,2022.2.4,MacIntel,60.0024001,Chrome,1200,750,,,a,0.6929,1,281,1,1,7,19,6,1,0,0,1,0,1,0,0,0,hexagon,triangle,,,,,,,,,,,,,,,,,,,,,,,,,,,,,,,,,,,,,,,,,,,,,,,,,,,,,,
295330,2022-11-25_11h04.03.838,vts_reward_expectancy_bt,2022.2.4,MacIntel,60.0024001,Chrome,1200,750,,,l,1.98,10,291,1,1,8,20,4,1,0,1,0,0,0,0,1,0,circle,hexagon,,,,,,,,,,,,,,,,,,,,,,,,,,,,,,,,,,,,,,,,,,,,,,,,,,,,,,
295330,2022-11-25_11h04.03.838,vts_reward_expectancy_bt,2022.2.4,MacIntel,60.0024001,Chrome,1200,750,,,a,2.1596,10,301,1,1,9,21,5,1,0,1,0,0,0,0,0,1,circle,star,,,,,,,,,,,,,,,,,,,,,,,,,,,,,,,,,,,,,,,,,,,,,,,,,,,,,,
295330,2022-11-25_11h04.03.838,vts_reward_expectancy_bt,2022.2.4,MacIntel,60.0024001,Chrome,1200,750,,,l,1.2418,10,311,1,1,10,22,9,1,0,0,0,1,1,0,0,0,star,triangle,,,,,,,,,,,,,,,,,,,,,,,,,,,,,,,,,,,,,,,,,,,,,,,,,,,,,,
295330,2022-11-25_11h04.03.838,vts_reward_expectancy_bt,2022.2.4,MacIntel,60.0024001,Chrome,1200,750,,,l,2.3076,1,312,1,1,11,23,0,1,1,0,0,0,0,1,0,0,triangle,circle,,,,,,,,,,,,,,,,,,,,,,,,,,,,,,,,,,,,,,,,,,,,,,,,,,,,,,
295330,2022-11-25_11h04.03.838,vts_reward_expectancy_bt,2022.2.4,MacIntel,60.0024001,Chrome,1200,750,,,a,1.1405,10,322,1,2,0,24,8,1,0,0,1,0,0,0,0,1,hexagon,star,,,,,,,,,,,,,,,,,,,,,,,,,,,,,,,,,,,,,,,,,,,,,,,,,,,,,,
295330,2022-11-25_11h04.03.838,vts_reward_expectancy_bt,2022.2.4,MacIntel,60.0024001,Chrome,1200,750,,,l,1.0248,1,323,1,2,1,25,10,1,0,0,0,1,0,1,0,0,star ,circle,,,,,,,,,,,,,,,,,,,,,,,,,,,,,,,,,,,,,,,,,,,,,,,,,,,,,,
295330,2022-11-25_11h04.03.838,vts_reward_expectancy_bt,2022.2.4,MacIntel,60.0024001,Chrome,1200,750,,,a,0.6927,1,324,1,2,2,26,9,1,0,0,0,1,1,0,0,0,star,triangle,,,,,,,,,,,,,,,,,,,,,,,,,,,,,,,,,,,,,,,,,,,,,,,,,,,,,,
295330,2022-11-25_11h04.03.838,vts_reward_expectancy_bt,2022.2.4,MacIntel,60.0024001,Chrome,1200,750,,,a,0.4355,10,334,1,2,3,27,5,1,0,1,0,0,0,0,0,1,circle,star,,,,,,,,,,,,,,,,,,,,,,,,,,,,,,,,,,,,,,,,,,,,,,,,,,,,,,
295330,2022-11-25_11h04.03.838,vts_reward_expectancy_bt,2022.2.4,MacIntel,60.0024001,Chrome,1200,750,,,a,0.4883,1,335,1,2,4,28,2,1,1,0,0,0,0,0,0,1,triangle,star,,,,,,,,,,,,,,,,,,,,,,,,,,,,,,,,,,,,,,,,,,,,,,,,,,,,,,
295330,2022-11-25_11h04.03.838,vts_reward_expectancy_bt,2022.2.4,MacIntel,60.0024001,Chrome,1200,750,,,a,2.7821,10,345,1,2,5,29,7,1,0,0,1,0,0,1,0,0,hexagon,circle,,,,,,,,,,,,,,,,,,,,,,,,,,,,,,,,,,,,,,,,,,,,,,,,,,,,,,
295330,2022-11-25_11h04.03.838,vts_reward_expectancy_bt,2022.2.4,MacIntel,60.0024001,Chrome,1200,750,,,a,1.261,1,346,1,2,6,30,1,1,1,0,0,0,0,0,1,0,triangle,hexagon,,,,,,,,,,,,,,,,,,,,,,,,,,,,,,,,,,,,,,,,,,,,,,,,,,,,,,
295330,2022-11-25_11h04.03.838,vts_reward_expectancy_bt,2022.2.4,MacIntel,60.0024001,Chrome,1200,750,,,a,2.221,1,347,1,2,7,31,0,1,1,0,0,0,0,1,0,0,triangle,circle,,,,,,,,,,,,,,,,,,,,,,,,,,,,,,,,,,,,,,,,,,,,,,,,,,,,,,
295330,2022-11-25_11h04.03.838,vts_reward_expectancy_bt,2022.2.4,MacIntel,60.0024001,Chrome,1200,750,,,a,2.0238,10,357,1,2,8,32,4,1,0,1,0,0,0,0,1,0,circle,hexagon,,,,,,,,,,,,,,,,,,,,,,,,,,,,,,,,,,,,,,,,,,,,,,,,,,,,,,
295330,2022-11-25_11h04.03.838,vts_reward_expectancy_bt,2022.2.4,MacIntel,60.0024001,Chrome,1200,750,,,a,1.6727,10,367,1,2,9,33,3,1,0,1,0,0,1,0,0,0,circle,triangle,,,,,,,,,,,,,,,,,,,,,,,,,,,,,,,,,,,,,,,,,,,,,,,,,,,,,,
295330,2022-11-25_11h04.03.838,vts_reward_expectancy_bt,2022.2.4,MacIntel,60.0024001,Chrome,1200,750,,,l,1.7474,10,377,1,2,10,34,6,1,0,0,1,0,1,0,0,0,hexagon,triangle,,,,,,,,,,,,,,,,,,,,,,,,,,,,,,,,,,,,,,,,,,,,,,,,,,,,,,
295330,2022-11-25_11h04.03.838,vts_reward_expectancy_bt,2022.2.4,MacIntel,60.0024001,Chrome,1200,750,,,l,1.6054,1,378,1,2,11,35,11,1,0,0,0,1,0,0,1,0,star,hexagon,,,,,,,,,,,,,,,,,,,,,,,,,,,,,,,,,,,,,,,,,,,,,,,,,,,,,,
295330,2022-11-25_11h04.03.838,vts_reward_expectancy_bt,2022.2.4,MacIntel,60.0024001,Chrome,1200,750,,,l,1.182,1,379,2,0,0,0,7,1,0,0,1,0,0,1,0,0,hexagon,circle,,,,,,,,,,,,,,,,,,,,,,,,,,,,,,,,,,,,,,,,,,,,,,,,,,,,,,
295330,2022-11-25_11h04.03.838,vts_reward_expectancy_bt,2022.2.4,MacIntel,60.0024001,Chrome,1200,750,,,l,1.1174,1,380,2,0,1,1,11,1,0,0,0,1,0,0,1,0,star,hexagon,,,,,,,,,,,,,,,,,,,,,,,,,,,,,,,,,,,,,,,,,,,,,,,,,,,,,,
295330,2022-11-25_11h04.03.838,vts_reward_expectancy_bt,2022.2.4,MacIntel,60.0024001,Chrome,1200,750,,,a,1.6042,10,390,2,0,2,2,9,1,0,0,0,1,1,0,0,0,star,triangle,,,,,,,,,,,,,,,,,,,,,,,,,,,,,,,,,,,,,,,,,,,,,,,,,,,,,,
295330,2022-11-25_11h04.03.838,vts_reward_expectancy_bt,2022.2.4,MacIntel,60.0024001,Chrome,1200,750,,,a,1.0303,10,400,2,0,3,3,1,1,1,0,0,0,0,0,1,0,triangle,hexagon,,,,,,,,,,,,,,,,,,,,,,,,,,,,,,,,,,,,,,,,,,,,,,,,,,,,,,
295330,2022-11-25_11h04.03.838,vts_reward_expectancy_bt,2022.2.4,MacIntel,60.0024001,Chrome,1200,750,,,a,0.8228,10,410,2,0,4,4,10,1,0,0,0,1,0,1,0,0,star ,circle,,,,,,,,,,,,,,,,,,,,,,,,,,,,,,,,,,,,,,,,,,,,,,,,,,,,,,
295330,2022-11-25_11h04.03.838,vts_reward_expectancy_bt,2022.2.4,MacIntel,60.0024001,Chrome,1200,750,,,a,0.6489,10,420,2,0,5,5,5,1,0,1,0,0,0,0,0,1,circle,star,,,,,,,,,,,,,,,,,,,,,,,,,,,,,,,,,,,,,,,,,,,,,,,,,,,,,,
295330,2022-11-25_11h04.03.838,vts_reward_expectancy_bt,2022.2.4,MacIntel,60.0024001,Chrome,1200,750,,,a,0.3081,10,430,2,0,6,6,3,1,0,1,0,0,1,0,0,0,circle,triangle,,,,,,,,,,,,,,,,,,,,,,,,,,,,,,,,,,,,,,,,,,,,,,,,,,,,,,
295330,2022-11-25_11h04.03.838,vts_reward_expectancy_bt,2022.2.4,MacIntel,60.0024001,Chrome,1200,750,,,a,0.4062,10,440,2,0,7,7,4,1,0,1,0,0,0,0,1,0,circle,hexagon,,,,,,,,,,,,,,,,,,,,,,,,,,,,,,,,,,,,,,,,,,,,,,,,,,,,,,
295330,2022-11-25_11h04.03.838,vts_reward_expectancy_bt,2022.2.4,MacIntel,60.0024001,Chrome,1200,750,,,a,0.3516,1,441,2,0,8,8,6,1,0,0,1,0,1,0,0,0,hexagon,triangle,,,,,,,,,,,,,,,,,,,,,,,,,,,,,,,,,,,,,,,,,,,,,,,,,,,,,,
295330,2022-11-25_11h04.03.838,vts_reward_expectancy_bt,2022.2.4,MacIntel,60.0024001,Chrome,1200,750,,,a,0.3408,1,442,2,0,9,9,2,1,1,0,0,0,0,0,0,1,triangle,star,,,,,,,,,,,,,,,,,,,,,,,,,,,,,,,,,,,,,,,,,,,,,,,,,,,,,,
295330,2022-11-25_11h04.03.838,vts_reward_expectancy_bt,2022.2.4,MacIntel,60.0024001,Chrome,1200,750,,,l,0.4034,10,452,2,0,10,10,0,1,1,0,0,0,0,1,0,0,triangle,circle,,,,,,,,,,,,,,,,,,,,,,,,,,,,,,,,,,,,,,,,,,,,,,,,,,,,,,
295330,2022-11-25_11h04.03.838,vts_reward_expectancy_bt,2022.2.4,MacIntel,60.0024001,Chrome,1200,750,,,l,0.4058,1,453,2,0,11,11,8,1,0,0,1,0,0,0,0,1,hexagon,star,,,,,,,,,,,,,,,,,,,,,,,,,,,,,,,,,,,,,,,,,,,,,,,,,,,,,,
295330,2022-11-25_11h04.03.838,vts_reward_expectancy_bt,2022.2.4,MacIntel,60.0024001,Chrome,1200,750,,,a,0.362,1,454,2,1,0,12,1,1,1,0,0,0,0,0,1,0,triangle,hexagon,,,,,,,,,,,,,,,,,,,,,,,,,,,,,,,,,,,,,,,,,,,,,,,,,,,,,,
295330,2022-11-25_11h04.03.838,vts_reward_expectancy_bt,2022.2.4,MacIntel,60.0024001,Chrome,1200,750,,,l,0.3485,1,455,2,1,1,13,5,1,0,1,0,0,0,0,0,1,circle,star,,,,,,,,,,,,,,,,,,,,,,,,,,,,,,,,,,,,,,,,,,,,,,,,,,,,,,
295330,2022-11-25_11h04.03.838,vts_reward_expectancy_bt,2022.2.4,MacIntel,60.0024001,Chrome,1200,750,,,a,0.3566,10,465,2,1,2,14,3,1,0,1,0,0,1,0,0,0,circle,triangle,,,,,,,,,,,,,,,,,,,,,,,,,,,,,,,,,,,,,,,,,,,,,,,,,,,,,,
295330,2022-11-25_11h04.03.838,vts_reward_expectancy_bt,2022.2.4,MacIntel,60.0024001,Chrome,1200,750,,,l,0.9313,10,475,2,1,3,15,7,1,0,0,1,0,0,1,0,0,hexagon,circle,,,,,,,,,,,,,,,,,,,,,,,,,,,,,,,,,,,,,,,,,,,,,,,,,,,,,,
295330,2022-11-25_11h04.03.838,vts_reward_expectancy_bt,2022.2.4,MacIntel,60.0024001,Chrome,1200,750,,,a,1.6413,1,476,2,1,4,16,2,1,1,0,0,0,0,0,0,1,triangle,star,,,,,,,,,,,,,,,,,,,,,,,,,,,,,,,,,,,,,,,,,,,,,,,,,,,,,,
295330,2022-11-25_11h04.03.838,vts_reward_expectancy_bt,2022.2.4,MacIntel,60.0024001,Chrome,1200,750,,,a,1.6734,10,486,2,1,5,17,11,1,0,0,0,1,0,0,1,0,star,hexagon,,,,,,,,,,,,,,,,,,,,,,,,,,,,,,,,,,,,,,,,,,,,,,,,,,,,,,
295330,2022-11-25_11h04.03.838,vts_reward_expectancy_bt,2022.2.4,MacIntel,60.0024001,Chrome,1200,750,,,l,0.8572,1,487,2,1,6,18,4,1,0,1,0,0,0,0,1,0,circle,hexagon,,,,,,,,,,,,,,,,,,,,,,,,,,,,,,,,,,,,,,,,,,,,,,,,,,,,,,
295330,2022-11-25_11h04.03.838,vts_reward_expectancy_bt,2022.2.4,MacIntel,60.0024001,Chrome,1200,750,,,a,0.9972,1,488,2,1,7,19,9,1,0,0,0,1,1,0,0,0,star,triangle,,,,,,,,,,,,,,,,,,,,,,,,,,,,,,,,,,,,,,,,,,,,,,,,,,,,,,
295330,2022-11-25_11h04.03.838,vts_reward_expectancy_bt,2022.2.4,MacIntel,60.0024001,Chrome,1200,750,,,a,1.2583,1,489,2,1,8,20,8,1,0,0,1,0,0,0,0,1,hexagon,star,,,,,,,,,,,,,,,,,,,,,,,,,,,,,,,,,,,,,,,,,,,,,,,,,,,,,,
295330,2022-11-25_11h04.03.838,vts_reward_expectancy_bt,2022.2.4,MacIntel,60.0024001,Chrome,1200,750,,,l,0.5617,10,499,2,1,9,21,0,1,1,0,0,0,0,1,0,0,triangle,circle,,,,,,,,,,,,,,,,,,,,,,,,,,,,,,,,,,,,,,,,,,,,,,,,,,,,,,
295330,2022-11-25_11h04.03.838,vts_reward_expectancy_bt,2022.2.4,MacIntel,60.0024001,Chrome,1200,750,,,l,0.522,10,509,2,1,10,22,10,1,0,0,0,1,0,1,0,0,star ,circle,,,,,,,,,,,,,,,,,,,,,,,,,,,,,,,,,,,,,,,,,,,,,,,,,,,,,,
295330,2022-11-25_11h04.03.838,vts_reward_expectancy_bt,2022.2.4,MacIntel,60.0024001,Chrome,1200,750,,,l,1.9887,1,510,2,1,11,23,6,1,0,0,1,0,1,0,0,0,hexagon,triangle,,,,,,,,,,,,,,,,,,,,,,,,,,,,,,,,,,,,,,,,,,,,,,,,,,,,,,
295330,2022-11-25_11h04.03.838,vts_reward_expectancy_bt,2022.2.4,MacIntel,60.0024001,Chrome,1200,750,,,a,1.0743,10,520,2,2,0,24,6,1,0,0,1,0,1,0,0,0,hexagon,triangle,,,,,,,,,,,,,,,,,,,,,,,,,,,,,,,,,,,,,,,,,,,,,,,,,,,,,,
295330,2022-11-25_11h04.03.838,vts_reward_expectancy_bt,2022.2.4,MacIntel,60.0024001,Chrome,1200,750,,,l,0.8451,1,521,2,2,1,25,9,1,0,0,0,1,1,0,0,0,star,triangle,,,,,,,,,,,,,,,,,,,,,,,,,,,,,,,,,,,,,,,,,,,,,,,,,,,,,,
295330,2022-11-25_11h04.03.838,vts_reward_expectancy_bt,2022.2.4,MacIntel,60.0024001,Chrome,1200,750,,,l,1.0433,1,522,2,2,2,26,11,1,0,0,0,1,0,0,1,0,star,hexagon,,,,,,,,,,,,,,,,,,,,,,,,,,,,,,,,,,,,,,,,,,,,,,,,,,,,,,
295330,2022-11-25_11h04.03.838,vts_reward_expectancy_bt,2022.2.4,MacIntel,60.0024001,Chrome,1200,750,,,a,0.3818,1,523,2,2,3,27,3,1,0,1,0,0,1,0,0,0,circle,triangle,,,,,,,,,,,,,,,,,,,,,,,,,,,,,,,,,,,,,,,,,,,,,,,,,,,,,,
295330,2022-11-25_11h04.03.838,vts_reward_expectancy_bt,2022.2.4,MacIntel,60.0024001,Chrome,1200,750,,,l,0.2969,10,533,2,2,4,28,4,1,0,1,0,0,0,0,1,0,circle,hexagon,,,,,,,,,,,,,,,,,,,,,,,,,,,,,,,,,,,,,,,,,,,,,,,,,,,,,,
295330,2022-11-25_11h04.03.838,vts_reward_expectancy_bt,2022.2.4,MacIntel,60.0024001,Chrome,1200,750,,,l,0.6899,1,534,2,2,5,29,2,1,1,0,0,0,0,0,0,1,triangle,star,,,,,,,,,,,,,,,,,,,,,,,,,,,,,,,,,,,,,,,,,,,,,,,,,,,,,,
295330,2022-11-25_11h04.03.838,vts_reward_expectancy_bt,2022.2.4,MacIntel,60.0024001,Chrome,1200,750,,,a,0.6571,1,535,2,2,6,30,0,1,1,0,0,0,0,1,0,0,triangle,circle,,,,,,,,,,,,,,,,,,,,,,,,,,,,,,,,,,,,,,,,,,,,,,,,,,,,,,
295330,2022-11-25_11h04.03.838,vts_reward_expectancy_bt,2022.2.4,MacIntel,60.0024001,Chrome,1200,750,,,a,0.598,1,536,2,2,7,31,10,1,0,0,0,1,0,1,0,0,star ,circle,,,,,,,,,,,,,,,,,,,,,,,,,,,,,,,,,,,,,,,,,,,,,,,,,,,,,,
295330,2022-11-25_11h04.03.838,vts_reward_expectancy_bt,2022.2.4,MacIntel,60.0024001,Chrome,1200,750,,,a,0.3373,10,546,2,2,8,32,1,1,1,0,0,0,0,0,1,0,triangle,hexagon,,,,,,,,,,,,,,,,,,,,,,,,,,,,,,,,,,,,,,,,,,,,,,,,,,,,,,
295330,2022-11-25_11h04.03.838,vts_reward_expectancy_bt,2022.2.4,MacIntel,60.0024001,Chrome,1200,750,,,l,2.5527,10,556,2,2,9,33,8,1,0,0,1,0,0,0,0,1,hexagon,star,,,,,,,,,,,,,,,,,,,,,,,,,,,,,,,,,,,,,,,,,,,,,,,,,,,,,,
295330,2022-11-25_11h04.03.838,vts_reward_expectancy_bt,2022.2.4,MacIntel,60.0024001,Chrome,1200,750,,,l,1.31,10,566,2,2,10,34,7,1,0,0,1,0,0,1,0,0,hexagon,circle,,,,,,,,,,,,,,,,,,,,,,,,,,,,,,,,,,,,,,,,,,,,,,,,,,,,,,
295330,2022-11-25_11h04.03.838,vts_reward_expectancy_bt,2022.2.4,MacIntel,60.0024001,Chrome,1200,750,,,l,1.5545,10,576,2,2,11,35,5,1,0,1,0,0,0,0,0,1,circle,star,,,,,,,,,,,,,,,,,,,,,,,,,,,,,,,,,,,,,,,,,,,,,,,,,,,,,,
295330,2022-11-25_11h04.03.838,vts_reward_expectancy_bt,2022.2.4,MacIntel,60.0024001,Chrome,1200,750,,,,,,,,,,,,,,,,,,,,,,,167,D,circle,0,0,,0,0,0,0,0,1,,,,,,,,,,,,,,,,,,,,,,,,,,,,,,,,,,,,,,,,,,
295330,2022-11-25_11h04.03.838,vts_reward_expectancy_bt,2022.2.4,MacIntel,60.0024001,Chrome,1200,750,,,,,,,,,,,,,,,,,,,,,,,174,F,hexagon,0,1,,0,1,0,1,0,1,,,,,,,,,,,,,,,,,,,,,,,,,,,,,,,,,,,,,,,,,,
295330,2022-11-25_11h04.03.838,vts_reward_expectancy_bt,2022.2.4,MacIntel,60.0024001,Chrome,1200,750,,,,,,,,,,,,,,,,,,,,,,,139,H,triangle,0,1,,0,2,0,2,0,1,,,,,,,,,,,,,,,,,,,,,,,,,,,,,,,,,,,,,,,,,,
295330,2022-11-25_11h04.03.838,vts_reward_expectancy_bt,2022.2.4,MacIntel,60.0024001,Chrome,1200,750,,,,,,,,,,,,,,,,,,,,,,,181,Y,star,0,1,,0,3,0,3,0,1,,,,,,,,,,,,,,,,,,,,,,,,,,,,,,,,,,,,,,,,,,
295330,2022-11-25_11h04.03.838,vts_reward_expectancy_bt,2022.2.4,MacIntel,60.0024001,Chrome,1200,750,,,,,,,,,,,,,,,,,,,,,,,132,U,circle,1,1,d,0,4,0,4,0,1,1.6301,,,,,,,,,,,,,,,,,,,,,,,,,,,,,,,,,,,,,,,,,
295330,2022-11-25_11h04.03.838,vts_reward_expectancy_bt,2022.2.4,MacIntel,60.0024001,Chrome,1200,750,,,,,,,,,,,,,,,,,,,,,,,125,S,hexagon,0,0,,0,5,0,5,0,1,,,,,,,,,,,,,,,,,,,,,,,,,,,,,,,,,,,,,,,,,,
295330,2022-11-25_11h04.03.838,vts_reward_expectancy_bt,2022.2.4,MacIntel,60.0024001,Chrome,1200,750,,,,,,,,,,,,,,,,,,,,,,,146,W,triangle,0,1,,0,6,0,6,0,1,,,,,,,,,,,,,,,,,,,,,,,,,,,,,,,,,,,,,,,,,,
295330,2022-11-25_11h04.03.838,vts_reward_expectancy_bt,2022.2.4,MacIntel,60.0024001,Chrome,1200,750,,,,,,,,,,,,,,,,,,,,,,,160,B,star,1,1,f,0,7,0,7,0,1,0.1547,,,,,,,,,,,,,,,,,,,,,,,,,,,,,,,,,,,,,,,,,
295330,2022-11-25_11h04.03.838,vts_reward_expectancy_bt,2022.2.4,MacIntel,60.0024001,Chrome,1200,750,,,,,,,,,,,,,,,,,,,,,,,167,D,triangle,1,0,f,0,8,0,8,0,1,0.9059,,,,,,,,,,,,,,,,,,,,,,,,,,,,,,,,,,,,,,,,,
295330,2022-11-25_11h04.03.838,vts_reward_expectancy_bt,2022.2.4,MacIntel,60.0024001,Chrome,1200,750,,,,,,,,,,,,,,,,,,,,,,,174,F,star,1,0,f,0,9,0,9,0,1,1.2785,,,,,,,,,,,,,,,,,,,,,,,,,,,,,,,,,,,,,,,,,
295330,2022-11-25_11h04.03.838,vts_reward_expectancy_bt,2022.2.4,MacIntel,60.0024001,Chrome,1200,750,,,,,,,,,,,,,,,,,,,,,,,181,B,hexagon,1,0,f,1,0,0,0,0,1,0.9003,,,,,,,,,,,,,,,,,,,,,,,,,,,,,,,,,,,,,,,,,
295330,2022-11-25_11h04.03.838,vts_reward_expectancy_bt,2022.2.4,MacIntel,60.0024001,Chrome,1200,750,,,,,,,,,,,,,,,,,,,,,,,125,H,circle,1,0,d,1,1,0,1,0,1,0.7606,,,,,,,,,,,,,,,,,,,,,,,,,,,,,,,,,,,,,,,,,
295330,2022-11-25_11h04.03.838,vts_reward_expectancy_bt,2022.2.4,MacIntel,60.0024001,Chrome,1200,750,,,,,,,,,,,,,,,,,,,,,,,174,S,star,1,0,f,1,2,0,2,0,1,0.8642,,,,,,,,,,,,,,,,,,,,,,,,,,,,,,,,,,,,,,,,,
295330,2022-11-25_11h04.03.838,vts_reward_expectancy_bt,2022.2.4,MacIntel,60.0024001,Chrome,1200,750,,,,,,,,,,,,,,,,,,,,,,,160,W,triangle,1,0,f,1,3,0,3,0,1,0.8568,,,,,,,,,,,,,,,,,,,,,,,,,,,,,,,,,,,,,,,,,
295330,2022-11-25_11h04.03.838,vts_reward_expectancy_bt,2022.2.4,MacIntel,60.0024001,Chrome,1200,750,,,,,,,,,,,,,,,,,,,,,,,139,U,hexagon,1,0,d,1,4,0,4,0,1,1.3807,,,,,,,,,,,,,,,,,,,,,,,,,,,,,,,,,,,,,,,,,
295330,2022-11-25_11h04.03.838,vts_reward_expectancy_bt,2022.2.4,MacIntel,60.0024001,Chrome,1200,750,,,,,,,,,,,,,,,,,,,,,,,167,Y,circle,1,0,f,1,5,0,5,0,1,0.8016,,,,,,,,,,,,,,,,,,,,,,,,,,,,,,,,,,,,,,,,,
295330,2022-11-25_11h04.03.838,vts_reward_expectancy_bt,2022.2.4,MacIntel,60.0024001,Chrome,1200,750,,,,,,,,,,,,,,,,,,,,,,,132,F,star,1,0,d,1,6,0,6,0,1,1.5027,,,,,,,,,,,,,,,,,,,,,,,,,,,,,,,,,,,,,,,,,
295330,2022-11-25_11h04.03.838,vts_reward_expectancy_bt,2022.2.4,MacIntel,60.0024001,Chrome,1200,750,,,,,,,,,,,,,,,,,,,,,,,146,D,triangle,1,0,d,1,7,0,7,0,1,1.062,,,,,,,,,,,,,,,,,,,,,,,,,,,,,,,,,,,,,,,,,
295330,2022-11-25_11h04.03.838,vts_reward_expectancy_bt,2022.2.4,MacIntel,60.0024001,Chrome,1200,750,,,,,,,,,,,,,,,,,,,,,,,181,B,triangle,1,0,f,1,8,0,8,0,1,0.801,,,,,,,,,,,,,,,,,,,,,,,,,,,,,,,,,,,,,,,,,
295330,2022-11-25_11h04.03.838,vts_reward_expectancy_bt,2022.2.4,MacIntel,60.0024001,Chrome,1200,750,,,,,,,,,,,,,,,,,,,,,,,125,H,star,1,0,d,1,9,0,9,0,1,0.6803,,,,,,,,,,,,,,,,,,,,,,,,,,,,,,,,,,,,,,,,,
295330,2022-11-25_11h04.03.838,vts_reward_expectancy_bt,2022.2.4,MacIntel,60.0024001,Chrome,1200,750,,,,,,,,,,,,,,,,,,,,,,,174,U,circle,1,0,,2,,,,,,,k,1.6012,0,0,0,0,1,,,,,,,,,,,,,,,,,,,,,,,,,,,,,,,,,,
295330,2022-11-25_11h04.03.838,vts_reward_expectancy_bt,2022.2.4,MacIntel,60.0024001,Chrome,1200,750,,,,,,,,,,,,,,,,,,,,,,,181,D,hexagon,1,0,,2,,,,,,,j,1.6303,1,0,1,0,1,,,,,,,,,,,,,,,,,,,,,,,,,,,,,,,,,,
295330,2022-11-25_11h04.03.838,vts_reward_expectancy_bt,2022.2.4,MacIntel,60.0024001,Chrome,1200,750,,,,,,,,,,,,,,,,,,,,,,,125,W,triangle,1,0,,2,,,,,,,k,0.8151,2,0,2,0,1,,,,,,,,,,,,,,,,,,,,,,,,,,,,,,,,,,
295330,2022-11-25_11h04.03.838,vts_reward_expectancy_bt,2022.2.4,MacIntel,60.0024001,Chrome,1200,750,,,,,,,,,,,,,,,,,,,,,,,146,Y,star,1,0,,2,,,,,,,k,0.8124,3,0,3,0,1,,,,,,,,,,,,,,,,,,,,,,,,,,,,,,,,,,
295330,2022-11-25_11h04.03.838,vts_reward_expectancy_bt,2022.2.4,MacIntel,60.0024001,Chrome,1200,750,,,,,,,,,,,,,,,,,,,,,,,160,S,circle,1,0,,2,,,,,,,k,0.7287,4,0,4,0,1,,,,,,,,,,,,,,,,,,,,,,,,,,,,,,,,,,
295330,2022-11-25_11h04.03.838,vts_reward_expectancy_bt,2022.2.4,MacIntel,60.0024001,Chrome,1200,750,,,,,,,,,,,,,,,,,,,,,,,167,H,hexagon,1,0,,2,,,,,,,j,1.9138,5,0,5,0,1,,,,,,,,,,,,,,,,,,,,,,,,,,,,,,,,,,
295330,2022-11-25_11h04.03.838,vts_reward_expectancy_bt,2022.2.4,MacIntel,60.0024001,Chrome,1200,750,,,,,,,,,,,,,,,,,,,,,,,132,B,triangle,1,0,,2,,,,,,,j,0.848,6,0,6,0,1,,,,,,,,,,,,,,,,,,,,,,,,,,,,,,,,,,
295330,2022-11-25_11h04.03.838,vts_reward_expectancy_bt,2022.2.4,MacIntel,60.0024001,Chrome,1200,750,,,,,,,,,,,,,,,,,,,,,,,139,F,star,1,0,,2,,,,,,,j,0.6282,7,0,7,0,1,,,,,,,,,,,,,,,,,,,,,,,,,,,,,,,,,,
295330,2022-11-25_11h04.03.838,vts_reward_expectancy_bt,2022.2.4,MacIntel,60.0024001,Chrome,1200,750,,,,,,,,,,,,,,,,,,,,,,,174,U,star,1,0,,2,,,,,,,k,0.6633,8,0,8,0,1,,,,,,,,,,,,,,,,,,,,,,,,,,,,,,,,,,
295330,2022-11-25_11h04.03.838,vts_reward_expectancy_bt,2022.2.4,MacIntel,60.0024001,Chrome,1200,750,,,,,,,,,,,,,,,,,,,,,,,181,D,circle,1,0,,2,,,,,,,j,0.7298,9,0,9,0,1,,,,,,,,,,,,,,,,,,,,,,,,,,,,,,,,,,
295330,2022-11-25_11h04.03.838,vts_reward_expectancy_bt,2022.2.4,MacIntel,60.0024001,Chrome,1200,750,,,,,0,576,,,,,,,,,,,,,,,,,174,Y,hexagon,-1,0,,3,,,,,,,,,,,,,,-1,no_choice,NA,,vtsPrac,0,0,0,0,1,,,,,,,,,,,,,,,,,,,,,,,,
295330,2022-11-25_11h04.03.838,vts_reward_expectancy_bt,2022.2.4,MacIntel,60.0024001,Chrome,1200,750,,,,,0,576,,,,,,,,,,,,,,,,,160,S,triangle,1,0,,3,,,,,,,,,,,,,,switch,number,numSwt,f,vtsPrac,1,0,1,0,1,1.1636,,,,,,,,,,,,,,,,,,,,,,,
295330,2022-11-25_11h04.03.838,vts_reward_expectancy_bt,2022.2.4,MacIntel,60.0024001,Chrome,1200,750,,,,,0,576,,,,,,,,,,,,,,,,,167,H,hexagon,1,0,,3,,,,,,,,,,,,,,repeat,number,numRpt,f,vtsPrac,2,0,2,0,1,0.9778,,,,,,,,,,,,,,,,,,,,,,,
295330,2022-11-25_11h04.03.838,vts_reward_expectancy_bt,2022.2.4,MacIntel,60.0024001,Chrome,1200,750,,,,,0,576,,,,,,,,,,,,,,,,,181,F,triangle,1,0,,3,,,,,,,,,,,,,,switch,letter,lettSwt,j,vtsPrac,3,0,3,0,1,0.9199,,,,,,,,,,,,,,,,,,,,,,,
295330,2022-11-25_11h04.03.838,vts_reward_expectancy_bt,2022.2.4,MacIntel,60.0024001,Chrome,1200,750,,,,,0,576,,,,,,,,,,,,,,,,,174,Y,circle,1,0,,3,,,,,,,,,,,,,,repeat,letter,lettRpt,k,vtsPrac,4,0,4,0,1,0.8641,,,,,,,,,,,,,,,,,,,,,,,
295330,2022-11-25_11h04.03.838,vts_reward_expectancy_bt,2022.2.4,MacIntel,60.0024001,Chrome,1200,750,,,,,0,576,,,,,,,,,,,,,,,,,160,S,hexagon,1,0,,3,,,,,,,,,,,,,,repeat,letter,lettRpt,k,vtsPrac,5,0,5,0,1,0.9051,,,,,,,,,,,,,,,,,,,,,,,
295330,2022-11-25_11h04.03.838,vts_reward_expectancy_bt,2022.2.4,MacIntel,60.0024001,Chrome,1200,750,,,,,0,576,,,,,,,,,,,,,,,,,167,H,hexagon,1,0,,3,,,,,,,,,,,,,,repeat,letter,lettRpt,j,vtsPrac,6,0,6,0,1,0.898,,,,,,,,,,,,,,,,,,,,,,,
295330,2022-11-25_11h04.03.838,vts_reward_expectancy_bt,2022.2.4,MacIntel,60.0024001,Chrome,1200,750,,,,,0,576,,,,,,,,,,,,,,,,,181,F,star,1,0,,3,,,,,,,,,,,,,,switch,number,numSwt,f,vtsPrac,7,0,7,0,1,0.9298,,,,,,,,,,,,,,,,,,,,,,,
295330,2022-11-25_11h04.03.838,vts_reward_expectancy_bt,2022.2.4,MacIntel,60.0024001,Chrome,1200,750,,,,,0,576,,,,,,,,,,,,,,,,,132,D,hexagon,1,0,,3,,,,,,,,,,,,,,switch,letter,lettSwt,j,vtsPrac,8,0,8,0,1,2.9353,,,,,,,,,,,,,,,,,,,,,,,
295330,2022-11-25_11h04.03.838,vts_reward_expectancy_bt,2022.2.4,MacIntel,60.0024001,Chrome,1200,750,,,,,0,576,,,,,,,,,,,,,,,,,139,U,triangle,1,0,,3,,,,,,,,,,,,,,repeat,letter,lettRpt,k,vtsPrac,9,0,9,0,1,1.0313,,,,,,,,,,,,,,,,,,,,,,,
295330,2022-11-25_11h04.03.838,vts_reward_expectancy_bt,2022.2.4,MacIntel,60.0024001,Chrome,1200,750,,,,,0,576,,,,,,,,,,,,,,,,,125,F,hexagon,1,0,,3,,,,,,,,,,,,,,switch,number,numSwt,d,vtsPrac,10,0,10,0,1,0.8327,,,,,,,,,,,,,,,,,,,,,,,
295330,2022-11-25_11h04.03.838,vts_reward_expectancy_bt,2022.2.4,MacIntel,60.0024001,Chrome,1200,750,,,,,0,576,,,,,,,,,,,,,,,,,167,Y,triangle,1,0,,3,,,,,,,,,,,,,,repeat,number,numRpt,f,vtsPrac,11,0,11,0,1,0.897,,,,,,,,,,,,,,,,,,,,,,,
295330,2022-11-25_11h04.03.838,vts_reward_expectancy_bt,2022.2.4,MacIntel,60.0024001,Chrome,1200,750,,,,,0,576,,,,,,,,,,,,,,,,,167,H,circle,1,0,,3,,,,,,,,,,,,,,repeat,number,numRpt,f,vtsPrac,12,0,12,0,1,0.6837,,,,,,,,,,,,,,,,,,,,,,,
295330,2022-11-25_11h04.03.838,vts_reward_expectancy_bt,2022.2.4,MacIntel,60.0024001,Chrome,1200,750,,,,,0,576,,,,,,,,,,,,,,,,,160,W,triangle,1,0,,3,,,,,,,,,,,,,,switch,letter,lettSwt,k,vtsPrac,13,0,13,0,1,1.5652,,,,,,,,,,,,,,,,,,,,,,,
295330,2022-11-25_11h04.03.838,vts_reward_expectancy_bt,2022.2.4,MacIntel,60.0024001,Chrome,1200,750,,,,,0,576,,,,,,,,,,,,,,,,,139,S,circle,1,0,,3,,,,,,,,,,,,,,switch,number,numSwt,d,vtsPrac,14,0,14,0,1,1.1692,,,,,,,,,,,,,,,,,,,,,,,
295330,2022-11-25_11h04.03.838,vts_reward_expectancy_bt,2022.2.4,MacIntel,60.0024001,Chrome,1200,750,,,,,0,576,,,,,,,,,,,,,,,,,125,B,star,1,0,,3,,,,,,,,,,,,,,switch,letter,lettSwt,j,vtsPrac,15,0,15,0,1,0.8826,,,,,,,,,,,,,,,,,,,,,,,
295330,2022-11-25_11h04.03.838,vts_reward_expectancy_bt,2022.2.4,MacIntel,60.0024001,Chrome,1200,750,,,,,0,576,,,,,,,,,,,,,,,,,160,H,circle,1,0,,3,,,,,,,,,,,,,,repeat,letter,lettRpt,j,vtsPrac,16,0,16,0,1,0.8784,,,,,,,,,,,,,,,,,,,,,,,
295330,2022-11-25_11h04.03.838,vts_reward_expectancy_bt,2022.2.4,MacIntel,60.0024001,Chrome,1200,750,,,,,0,576,,,,,,,,,,,,,,,,,125,W,triangle,1,0,,3,,,,,,,,,,,,,,repeat,letter,lettRpt,k,vtsPrac,17,0,17,0,1,0.9694,,,,,,,,,,,,,,,,,,,,,,,
295330,2022-11-25_11h04.03.838,vts_reward_expectancy_bt,2022.2.4,MacIntel,60.0024001,Chrome,1200,750,,,,,0,576,,,,,,,,,,,,,,,,,181,S,hexagon,1,0,,3,,,,,,,,,,,,,,switch,number,numSwt,f,vtsPrac,18,0,18,0,1,1.297,,,,,,,,,,,,,,,,,,,,,,,
295330,2022-11-25_11h04.03.838,vts_reward_expectancy_bt,2022.2.4,MacIntel,60.0024001,Chrome,1200,750,,,,,0,576,,,,,,,,,,,,,,,,,139,Y,circle,1,0,,3,,,,,,,,,,,,,,repeat,number,numRpt,d,vtsPrac,19,0,19,0,1,0.8948,,,,,,,,,,,,,,,,,,,,,,,
295330,2022-11-25_11h04.03.838,vts_reward_expectancy_bt,2022.2.4,MacIntel,60.0024001,Chrome,1200,750,,,,,0,576,,,,,,,,,,,,,,,,,132,S,star,1,0,,3,,,,,,,,,,,,,,switch,letter,lettSwt,k,vtsPrac,20,0,20,0,1,0.7331,,,,,,,,,,,,,,,,,,,,,,,
295330,2022-11-25_11h04.03.838,vts_reward_expectancy_bt,2022.2.4,MacIntel,60.0024001,Chrome,1200,750,,,,,0,576,,,,,,,,,,,,,,,,,146,U,hexagon,1,0,,3,,,,,,,,,,,,,,switch,number,numSwt,d,vtsPrac,21,0,21,0,1,1.8782,,,,,,,,,,,,,,,,,,,,,,,
295330,2022-11-25_11h04.03.838,vts_reward_expectancy_bt,2022.2.4,MacIntel,60.0024001,Chrome,1200,750,,,,,0,576,,,,,,,,,,,,,,,,,139,H,hexagon,1,0,,3,,,,,,,,,,,,,,switch,letter,lettSwt,j,vtsPrac,22,0,22,0,1,0.7226,,,,,,,,,,,,,,,,,,,,,,,
295330,2022-11-25_11h04.03.838,vts_reward_expectancy_bt,2022.2.4,MacIntel,60.0024001,Chrome,1200,750,,,,,0,576,,,,,,,,,,,,,,,,,125,Y,triangle,1,0,,3,,,,,,,,,,,,,,repeat,letter,lettRpt,k,vtsPrac,23,0,23,0,1,1.4809,,,,,,,,,,,,,,,,,,,,,,,
295330,2022-11-25_11h04.03.838,vts_reward_expectancy_bt,2022.2.4,MacIntel,60.0024001,Chrome,1200,750,,,,,0,576,,,,,,,,,,,,,,,,,181,Y,circle,1,0,,3,,,,,,,,,,,,,,repeat,letter,lettRpt,k,vtsPrac,24,0,24,0,1,1.2801,,,,,,,,,,,,,,,,,,,,,,,
295330,2022-11-25_11h04.03.838,vts_reward_expectancy_bt,2022.2.4,MacIntel,60.0024001,Chrome,1200,750,,,,,0,576,,,,,,,,,,,,,,,,,146,F,star,1,0,,3,,,,,,,,,,,,,,repeat,letter,lettRpt,j,vtsPrac,25,0,25,0,1,1.4831,,,,,,,,,,,,,,,,,,,,,,,
295330,2022-11-25_11h04.03.838,vts_reward_expectancy_bt,2022.2.4,MacIntel,60.0024001,Chrome,1200,750,,,,,0,576,,,,,,,,,,,,,,,,,125,D,star,1,0,,3,,,,,,,,,,,,,,switch,number,numSwt,d,vtsPrac,26,0,26,0,1,2.7318,,,,,,,,,,,,,,,,,,,,,,,
295330,2022-11-25_11h04.03.838,vts_reward_expectancy_bt,2022.2.4,MacIntel,60.0024001,Chrome,1200,750,,,,,0,576,,,,,,,,,,,,,,,,,160,U,circle,0,0,,3,,,,,,,,,,,,,,repeat,number,NA,d,vtsPrac,27,0,27,0,1,1.4789,,,,,,,,,,,,,,,,,,,,,,,
295330,2022-11-25_11h04.03.838,vts_reward_expectancy_bt,2022.2.4,MacIntel,60.0024001,Chrome,1200,750,,,,,0,576,,,,,,,,,,,,,,,,,125,W,star,0,1,,3,,,,,,,,,,,,,,repeat,number,NA,f,vtsPrac,28,0,28,0,1,1.7457,,,,,,,,,,,,,,,,,,,,,,,
295330,2022-11-25_11h04.03.838,vts_reward_expectancy_bt,2022.2.4,MacIntel,60.0024001,Chrome,1200,750,,,,,0,576,,,,,,,,,,,,,,,,,181,B,triangle,1,1,,3,,,,,,,,,,,,,,switch,letter,lettSwt,j,vtsPrac,29,0,29,0,1,2.9489,,,,,,,,,,,,,,,,,,,,,,,
295330,2022-11-25_11h04.03.838,vts_reward_expectancy_bt,2022.2.4,MacIntel,60.0024001,Chrome,1200,750,,,,,0,576,,,,,,,,,,,,,,,,,146,Y,circle,1,0,,3,,,,,,,,,,,,,,switch,number,numSwt,d,vtsPrac,30,0,30,0,1,1.4768,,,,,,,,,,,,,,,,,,,,,,,
295330,2022-11-25_11h04.03.838,vts_reward_expectancy_bt,2022.2.4,MacIntel,60.0024001,Chrome,1200,750,,,,,0,576,,,,,,,,,,,,,,,,,174,U,hexagon,1,0,,3,,,,,,,,,,,,,,repeat,number,numRpt,f,vtsPrac,31,0,31,0,1,1.3989,,,,,,,,,,,,,,,,,,,,,,,
295330,2022-11-25_11h04.03.838,vts_reward_expectancy_bt,2022.2.4,MacIntel,60.0024001,Chrome,1200,750,,,,,,,,,,,,,,,,,,,,,,,,,,,,,,,,,,,,,,,,,,,,,,,,,,,,,,,,,,,,,,,,,,,,,,,,,,,,
295330,2022-11-25_11h04.03.838,vts_reward_expectancy_bt,2022.2.4,MacIntel,60.0024001,Chrome,1200,750,,,,,,,,,,,,,,,,,,,,,,,,,,,,,,,,,,,,,,,,,,,,,,,,,,,,,,,,,,,,,,,,,,,,,,,,,,,,
295330,2022-11-25_11h04.03.838,vts_reward_expectancy_bt,2022.2.4,MacIntel,60.0024001,Chrome,1200,750,,,,,0,576,,,,,,,,,,,,,,,,,139,W,triangle,1,0,,,,,,,,,,,,,,,,repeat,number,numRpt,d,noRew,,,,,,1.3623,0,0,0,0,0,1,,,,,,,,,,,,,,,,,
295330,2022-11-25_11h04.03.838,vts_reward_expectancy_bt,2022.2.4,MacIntel,60.0024001,Chrome,1200,750,,,,,0,576,,,,,,,,,,,,,,,,,174,Y,star,1,0,,,,,,,,,,,,,,,,switch,letter,lettSwt,k,noRew,,,,,,2.9718,0,1,0,1,0,1,,,,,,,,,,,,,,,,,
295330,2022-11-25_11h04.03.838,vts_reward_expectancy_bt,2022.2.4,MacIntel,60.0024001,Chrome,1200,750,,,,,0,576,,,,,,,,,,,,,,,,,132,H,triangle,-1,0,,,,,,,,,,,,,,,,switch,no_choice,NA,,noRew,,,,,,,0,2,0,2,0,1,,,,,,,,,,,,,,,,,
295330,2022-11-25_11h04.03.838,vts_reward_expectancy_bt,2022.2.4,MacIntel,60.0024001,Chrome,1200,750,,,,,0,576,,,,,,,,,,,,,,,,,181,F,star,1,0,,,,,,,,,,,,,,,,switch,number,numSwt,f,noRew,,,,,,1.3942,0,3,0,3,0,1,,,,,,,,,,,,,,,,,
295330,2022-11-25_11h04.03.838,vts_reward_expectancy_bt,2022.2.4,MacIntel,60.0024001,Chrome,1200,750,,,,,0,576,,,,,,,,,,,,,,,,,139,W,hexagon,0,0,,,,,,,,,,,,,,,,switch,letter,NA,j,noRew,,,,,,1.8994,0,4,0,4,0,1,,,,,,,,,,,,,,,,,
295330,2022-11-25_11h04.03.838,vts_reward_expectancy_bt,2022.2.4,MacIntel,60.0024001,Chrome,1200,750,,,,,0,576,,,,,,,,,,,,,,,,,174,Y,triangle,1,1,,,,,,,,,,,,,,,,switch,number,numSwt,f,noRew,,,,,,1.4171,0,5,0,5,0,1,,,,,,,,,,,,,,,,,
295330,2022-11-25_11h04.03.838,vts_reward_expectancy_bt,2022.2.4,MacIntel,60.0024001,Chrome,1200,750,,,,,0,576,,,,,,,,,,,,,,,,,132,H,triangle,1,0,,,,,,,,,,,,,,,,repeat,number,numRpt,d,noRew,,,,,,1.3173,0,6,0,6,0,1,,,,,,,,,,,,,,,,,
295330,2022-11-25_11h04.03.838,vts_reward_expectancy_bt,2022.2.4,MacIntel,60.0024001,Chrome,1200,750,,,,,0,576,,,,,,,,,,,,,,,,,181,F,circle,1,0,,,,,,,,,,,,,,,,switch,letter,lettSwt,j,noRew,,,,,,0.7973,0,7,0,7,0,1,,,,,,,,,,,,,,,,,
295330,2022-11-25_11h04.03.838,vts_reward_expectancy_bt,2022.2.4,MacIntel,60.0024001,Chrome,1200,750,,,,,0,576,,,,,,,,,,,,,,,,,132,H,circle,1,0,,,,,,,,,,,,,,,,repeat,letter,lettRpt,j,noRew,,,,,,0.7449,0,8,0,8,0,1,,,,,,,,,,,,,,,,,
295330,2022-11-25_11h04.03.838,vts_reward_expectancy_bt,2022.2.4,MacIntel,60.0024001,Chrome,1200,750,,,,,0,576,,,,,,,,,,,,,,,,,181,Y,hexagon,1,0,,,,,,,,,,,,,,,,repeat,letter,lettRpt,k,noRew,,,,,,0.9786,0,9,0,9,0,1,,,,,,,,,,,,,,,,,
295330,2022-11-25_11h04.03.838,vts_reward_expectancy_bt,2022.2.4,MacIntel,60.0024001,Chrome,1200,750,,,,,0,576,,,,,,,,,,,,,,,,,174,B,star,1,0,,,,,,,,,,,,,,,,switch,number,numSwt,f,noRew,,,,,,1.5858,0,10,0,10,0,1,,,,,,,,,,,,,,,,,
295330,2022-11-25_11h04.03.838,vts_reward_expectancy_bt,2022.2.4,MacIntel,60.0024001,Chrome,1200,750,,,,,0,576,,,,,,,,,,,,,,,,,125,W,triangle,1,0,,,,,,,,,,,,,,,,repeat,number,numRpt,d,noRew,,,,,,0.8393,0,11,0,11,0,1,,,,,,,,,,,,,,,,,
295330,2022-11-25_11h04.03.838,vts_reward_expectancy_bt,2022.2.4,MacIntel,60.0024001,Chrome,1200,750,,,,,0,576,,,,,,,,,,,,,,,,,160,S,triangle,1,0,,,,,,,,,,,,,,,,repeat,number,numRpt,f,noRew,,,,,,0.7878,0,12,0,12,0,1,,,,,,,,,,,,,,,,,
295330,2022-11-25_11h04.03.838,vts_reward_expectancy_bt,2022.2.4,MacIntel,60.0024001,Chrome,1200,750,,,,,0,576,,,,,,,,,,,,,,,,,132,H,circle,1,0,,,,,,,,,,,,,,,,switch,letter,lettSwt,j,noRew,,,,,,0.8985,0,13,0,13,0,1,,,,,,,,,,,,,,,,,
295330,2022-11-25_11h04.03.838,vts_reward_expectancy_bt,2022.2.4,MacIntel,60.0024001,Chrome,1200,750,,,,,0,576,,,,,,,,,,,,,,,,,167,B,circle,1,0,,,,,,,,,,,,,,,,repeat,letter,lettRpt,j,noRew,,,,,,0.7825,0,14,0,14,0,1,,,,,,,,,,,,,,,,,
295330,2022-11-25_11h04.03.838,vts_reward_expectancy_bt,2022.2.4,MacIntel,60.0024001,Chrome,1200,750,,,,,0,576,,,,,,,,,,,,,,,,,139,Y,triangle,1,0,,,,,,,,,,,,,,,,switch,number,numSwt,d,noRew,,,,,,1.3831,0,15,0,15,0,1,,,,,,,,,,,,,,,,,
295330,2022-11-25_11h04.03.838,vts_reward_expectancy_bt,2022.2.4,MacIntel,60.0024001,Chrome,1200,750,,,,,0,576,,,,,,,,,,,,,,,,,167,H,circle,0,0,,,,,,,,,,,,,,,,switch,letter,NA,k,noRew,,,,,,0.6472,0,16,0,16,0,1,,,,,,,,,,,,,,,,,
295330,2022-11-25_11h04.03.838,vts_reward_expectancy_bt,2022.2.4,MacIntel,60.0024001,Chrome,1200,750,,,,,0,576,,,,,,,,,,,,,,,,,146,S,hexagon,1,1,,,,,,,,,,,,,,,,switch,number,numSwt,d,noRew,,,,,,1.5187,0,17,0,17,0,1,,,,,,,,,,,,,,,,,
295330,2022-11-25_11h04.03.838,vts_reward_expectancy_bt,2022.2.4,MacIntel,60.0024001,Chrome,1200,750,,,,,0,576,,,,,,,,,,,,,,,,,125,F,star,1,0,,,,,,,,,,,,,,,,repeat,number,numRpt,d,noRew,,,,,,1.0226,0,18,0,18,0,1,,,,,,,,,,,,,,,,,
295330,2022-11-25_11h04.03.838,vts_reward_expectancy_bt,2022.2.4,MacIntel,60.0024001,Chrome,1200,750,,,,,0,576,,,,,,,,,,,,,,,,,181,U,triangle,1,0,,,,,,,,,,,,,,,,switch,letter,lettSwt,k,noRew,,,,,,0.8136,0,19,0,19,0,1,,,,,,,,,,,,,,,,,
295330,2022-11-25_11h04.03.838,vts_reward_expectancy_bt,2022.2.4,MacIntel,60.0024001,Chrome,1200,750,,,,,0,576,,,,,,,,,,,,,,,,,174,U,star,1,0,,,,,,,,,,,,,,,,repeat,letter,lettRpt,k,noRew,,,,,,1.0503,0,20,0,20,0,1,,,,,,,,,,,,,,,,,
295330,2022-11-25_11h04.03.838,vts_reward_expectancy_bt,2022.2.4,MacIntel,60.0024001,Chrome,1200,750,,,,,0,576,,,,,,,,,,,,,,,,,132,F,circle,1,0,,,,,,,,,,,,,,,,repeat,letter,lettRpt,j,noRew,,,,,,1.4611,0,21,0,21,0,1,,,,,,,,,,,,,,,,,
295330,2022-11-25_11h04.03.838,vts_reward_expectancy_bt,2022.2.4,MacIntel,60.0024001,Chrome,1200,750,,,,,0,576,,,,,,,,,,,,,,,,,146,Y,circle,1,0,,,,,,,,,,,,,,,,switch,number,numSwt,d,noRew,,,,,,1.0135,0,22,0,22,0,1,,,,,,,,,,,,,,,,,
295330,2022-11-25_11h04.03.838,vts_reward_expectancy_bt,2022.2.4,MacIntel,60.0024001,Chrome,1200,750,,,,,0,576,,,,,,,,,,,,,,,,,181,W,star,1,0,,,,,,,,,,,,,,,,repeat,number,numRpt,f,noRew,,,,,,0.82,0,23,0,23,0,1,,,,,,,,,,,,,,,,,
295330,2022-11-25_11h04.03.838,vts_reward_expectancy_bt,2022.2.4,MacIntel,60.0024001,Chrome,1200,750,,,,,0,576,,,,,,,,,,,,,,,,,181,U,star,0,0,,,,,,,,,,,,,,,,switch,letter,NA,j,noRew,,,,,,1.5559,0,24,0,24,0,1,,,,,,,,,,,,,,,,,
295330,2022-11-25_11h04.03.838,vts_reward_expectancy_bt,2022.2.4,MacIntel,60.0024001,Chrome,1200,750,,,,,0,576,,,,,,,,,,,,,,,,,146,F,hexagon,1,1,,,,,,,,,,,,,,,,repeat,letter,lettRpt,j,noRew,,,,,,0.813,0,25,0,25,0,1,,,,,,,,,,,,,,,,,
295330,2022-11-25_11h04.03.838,vts_reward_expectancy_bt,2022.2.4,MacIntel,60.0024001,Chrome,1200,750,,,,,0,576,,,,,,,,,,,,,,,,,167,S,triangle,1,0,,,,,,,,,,,,,,,,repeat,letter,lettRpt,k,noRew,,,,,,1.0794,0,26,0,26,0,1,,,,,,,,,,,,,,,,,
295330,2022-11-25_11h04.03.838,vts_reward_expectancy_bt,2022.2.4,MacIntel,60.0024001,Chrome,1200,750,,,,,0,576,,,,,,,,,,,,,,,,,132,D,star,1,0,,,,,,,,,,,,,,,,repeat,letter,lettRpt,j,noRew,,,,,,0.7899,0,27,0,27,0,1,,,,,,,,,,,,,,,,,
295330,2022-11-25_11h04.03.838,vts_reward_expectancy_bt,2022.2.4,MacIntel,60.0024001,Chrome,1200,750,,,,,0,576,,,,,,,,,,,,,,,,,139,F,triangle,1,0,,,,,,,,,,,,,,,,repeat,letter,lettRpt,j,noRew,,,,,,1.0807,0,28,0,28,0,1,,,,,,,,,,,,,,,,,
295330,2022-11-25_11h04.03.838,vts_reward_expectancy_bt,2022.2.4,MacIntel,60.0024001,Chrome,1200,750,,,,,0,576,,,,,,,,,,,,,,,,,181,B,hexagon,1,0,,,,,,,,,,,,,,,,switch,number,numSwt,f,noRew,,,,,,1.7675,0,29,0,29,0,1,,,,,,,,,,,,,,,,,
295330,2022-11-25_11h04.03.838,vts_reward_expectancy_bt,2022.2.4,MacIntel,60.0024001,Chrome,1200,750,,,,,0,576,,,,,,,,,,,,,,,,,160,Y,star,1,0,,,,,,,,,,,,,,,,switch,letter,lettSwt,k,noRew,,,,,,1.8299,0,30,0,30,0,1,,,,,,,,,,,,,,,,,
295330,2022-11-25_11h04.03.838,vts_reward_expectancy_bt,2022.2.4,MacIntel,60.0024001,Chrome,1200,750,,,,,0,576,,,,,,,,,,,,,,,,,132,H,triangle,1,0,,,,,,,,,,,,,,,,switch,number,numSwt,d,noRew,,,,,,1.2169,0,31,0,31,0,1,,,,,,,,,,,,,,,,,
295330,2022-11-25_11h04.03.838,vts_reward_expectancy_bt,2022.2.4,MacIntel,60.0024001,Chrome,1200,750,,,,,0,576,,,,,,,,,,,,,,,,,139,W,triangle,1,0,,,,,,,,,,,,,,,,repeat,number,numRpt,d,noRew,,,,,,1.8621,0,32,0,32,0,1,,,,,,,,,,,,,,,,,
295330,2022-11-25_11h04.03.838,vts_reward_expectancy_bt,2022.2.4,MacIntel,60.0024001,Chrome,1200,750,,,,,0,576,,,,,,,,,,,,,,,,,146,S,circle,1,0,,,,,,,,,,,,,,,,repeat,number,numRpt,d,noRew,,,,,,0.8687,0,33,0,33,0,1,,,,,,,,,,,,,,,,,
295330,2022-11-25_11h04.03.838,vts_reward_expectancy_bt,2022.2.4,MacIntel,60.0024001,Chrome,1200,750,,,,,0,576,,,,,,,,,,,,,,,,,167,U,triangle,1,0,,,,,,,,,,,,,,,,switch,letter,lettSwt,k,noRew,,,,,,0.8974,0,34,0,34,0,1,,,,,,,,,,,,,,,,,
295330,2022-11-25_11h04.03.838,vts_reward_expectancy_bt,2022.2.4,MacIntel,60.0024001,Chrome,1200,750,,,,,0,576,,,,,,,,,,,,,,,,,181,B,circle,1,0,,,,,,,,,,,,,,,,repeat,letter,lettRpt,j,noRew,,,,,,1.4146,0,35,0,35,0,1,,,,,,,,,,,,,,,,,
295330,2022-11-25_11h04.03.838,vts_reward_expectancy_bt,2022.2.4,MacIntel,60.0024001,Chrome,1200,750,,,,,0,576,,,,,,,,,,,,,,,,,125,H,star,1,0,,,,,,,,,,,,,,,,switch,number,numSwt,d,noRew,,,,,,0.7807,0,36,0,36,0,1,,,,,,,,,,,,,,,,,
295330,2022-11-25_11h04.03.838,vts_reward_expectancy_bt,2022.2.4,MacIntel,60.0024001,Chrome,1200,750,,,,,0,576,,,,,,,,,,,,,,,,,181,U,circle,1,0,,,,,,,,,,,,,,,,repeat,number,numRpt,f,noRew,,,,,,1.0661,0,37,0,37,0,1,,,,,,,,,,,,,,,,,
295330,2022-11-25_11h04.03.838,vts_reward_expectancy_bt,2022.2.4,MacIntel,60.0024001,Chrome,1200,750,,,,,0,576,,,,,,,,,,,,,,,,,174,B,circle,1,0,,,,,,,,,,,,,,,,repeat,number,numRpt,f,noRew,,,,,,0.9331,0,38,0,38,0,1,,,,,,,,,,,,,,,,,
295330,2022-11-25_11h04.03.838,vts_reward_expectancy_bt,2022.2.4,MacIntel,60.0024001,Chrome,1200,750,,,,,0,576,,,,,,,,,,,,,,,,,132,F,triangle,1,0,,,,,,,,,,,,,,,,repeat,number,numRpt,d,noRew,,,,,,1.1792,0,39,0,39,0,1,,,,,,,,,,,,,,,,,
295330,2022-11-25_11h04.03.838,vts_reward_expectancy_bt,2022.2.4,MacIntel,60.0024001,Chrome,1200,750,,,,,0,576,,,,,,,,,,,,,,,,,132,H,star,1,0,,,,,,,,,,,,,,,,switch,letter,lettSwt,j,noRew,,,,,,0.7178,0,40,0,40,0,1,,,,,,,,,,,,,,,,,
295330,2022-11-25_11h04.03.838,vts_reward_expectancy_bt,2022.2.4,MacIntel,60.0024001,Chrome,1200,750,,,,,0,576,,,,,,,,,,,,,,,,,174,W,triangle,1,0,,,,,,,,,,,,,,,,switch,number,numSwt,f,noRew,,,,,,0.9764,0,41,0,41,0,1,,,,,,,,,,,,,,,,,
295330,2022-11-25_11h04.03.838,vts_reward_expectancy_bt,2022.2.4,MacIntel,60.0024001,Chrome,1200,750,,,,,0,576,,,,,,,,,,,,,,,,,125,Y,star,1,0,,,,,,,,,,,,,,,,switch,letter,lettSwt,k,noRew,,,,,,1.4866,0,42,0,42,0,1,,,,,,,,,,,,,,,,,
295330,2022-11-25_11h04.03.838,vts_reward_expectancy_bt,2022.2.4,MacIntel,60.0024001,Chrome,1200,750,,,,,0,576,,,,,,,,,,,,,,,,,181,D,hexagon,1,0,,,,,,,,,,,,,,,,switch,number,numSwt,f,noRew,,,,,,0.8138,0,43,0,43,0,1,,,,,,,,,,,,,,,,,
295330,2022-11-25_11h04.03.838,vts_reward_expectancy_bt,2022.2.4,MacIntel,60.0024001,Chrome,1200,750,,,,,0,576,,,,,,,,,,,,,,,,,174,U,star,1,0,,,,,,,,,,,,,,,,repeat,number,numRpt,f,noRew,,,,,,0.7657,0,44,0,44,0,1,,,,,,,,,,,,,,,,,
295330,2022-11-25_11h04.03.838,vts_reward_expectancy_bt,2022.2.4,MacIntel,60.0024001,Chrome,1200,750,,,,,0,576,,,,,,,,,,,,,,,,,146,Y,hexagon,1,0,,,,,,,,,,,,,,,,repeat,number,numRpt,d,noRew,,,,,,1.2967,0,45,0,45,0,1,,,,,,,,,,,,,,,,,
295330,2022-11-25_11h04.03.838,vts_reward_expectancy_bt,2022.2.4,MacIntel,60.0024001,Chrome,1200,750,,,,,0,576,,,,,,,,,,,,,,,,,181,F,hexagon,1,0,,,,,,,,,,,,,,,,switch,letter,lettSwt,j,noRew,,,,,,0.7968,0,46,0,46,0,1,,,,,,,,,,,,,,,,,
295330,2022-11-25_11h04.03.838,vts_reward_expectancy_bt,2022.2.4,MacIntel,60.0024001,Chrome,1200,750,,,,,0,576,,,,,,,,,,,,,,,,,139,H,star,1,0,,,,,,,,,,,,,,,,repeat,letter,lettRpt,j,noRew,,,,,,0.7629,0,47,0,47,0,1,,,,,,,,,,,,,,,,,
295330,2022-11-25_11h04.03.838,vts_reward_expectancy_bt,2022.2.4,MacIntel,60.0024001,Chrome,1200,750,,,,,0,576,,,,,,,,,,,,,,,,,167,F,hexagon,1,0,,,,,,,,,,,,,,,,switch,number,numSwt,f,noRew,,,,,,0.7149,0,48,0,48,0,1,,,,,,,,,,,,,,,,,
295330,2022-11-25_11h04.03.838,vts_reward_expectancy_bt,2022.2.4,MacIntel,60.0024001,Chrome,1200,750,,,,,0,576,,,,,,,,,,,,,,,,,181,D,circle,1,0,,,,,,,,,,,,,,,,switch,letter,lettSwt,j,noRew,,,,,,0.8324,0,49,0,49,0,1,,,,,,,,,,,,,,,,,
295330,2022-11-25_11h04.03.838,vts_reward_expectancy_bt,2022.2.4,MacIntel,60.0024001,Chrome,1200,750,,,,,0,576,,,,,,,,,,,,,,,,,132,U,hexagon,1,0,,,,,,,,,,,,,,,,switch,number,numSwt,d,noRew,,,,,,0.8052,0,50,0,50,0,1,,,,,,,,,,,,,,,,,
295330,2022-11-25_11h04.03.838,vts_reward_expectancy_bt,2022.2.4,MacIntel,60.0024001,Chrome,1200,750,,,,,0,576,,,,,,,,,,,,,,,,,174,H,star,1,0,,,,,,,,,,,,,,,,switch,letter,lettSwt,j,noRew,,,,,,0.9456,0,51,0,51,0,1,,,,,,,,,,,,,,,,,
295330,2022-11-25_11h04.03.838,vts_reward_expectancy_bt,2022.2.4,MacIntel,60.0024001,Chrome,1200,750,,,,,0,576,,,,,,,,,,,,,,,,,125,S,circle,1,0,,,,,,,,,,,,,,,,repeat,letter,lettRpt,k,noRew,,,,,,0.666,0,52,0,52,0,1,,,,,,,,,,,,,,,,,
295330,2022-11-25_11h04.03.838,vts_reward_expectancy_bt,2022.2.4,MacIntel,60.0024001,Chrome,1200,750,,,,,0,576,,,,,,,,,,,,,,,,,167,Y,triangle,1,0,,,,,,,,,,,,,,,,switch,number,numSwt,f,noRew,,,,,,1.449,0,53,0,53,0,1,,,,,,,,,,,,,,,,,
295330,2022-11-25_11h04.03.838,vts_reward_expectancy_bt,2022.2.4,MacIntel,60.0024001,Chrome,1200,750,,,,,0,576,,,,,,,,,,,,,,,,,146,F,star,1,0,,,,,,,,,,,,,,,,repeat,number,numRpt,d,noRew,,,,,,0.9496,0,54,0,54,0,1,,,,,,,,,,,,,,,,,
295330,2022-11-25_11h04.03.838,vts_reward_expectancy_bt,2022.2.4,MacIntel,60.0024001,Chrome,1200,750,,,,,0,576,,,,,,,,,,,,,,,,,160,W,hexagon,1,0,,,,,,,,,,,,,,,,repeat,number,numRpt,f,noRew,,,,,,0.7656,0,55,0,55,0,1,,,,,,,,,,,,,,,,,
295330,2022-11-25_11h04.03.838,vts_reward_expectancy_bt,2022.2.4,MacIntel,60.0024001,Chrome,1200,750,,,,,0,576,,,,,,,,,,,,,,,,,132,U,triangle,1,0,,,,,,,,,,,,,,,,switch,letter,lettSwt,k,noRew,,,,,,1.3514,0,56,0,56,0,1,,,,,,,,,,,,,,,,,
295330,2022-11-25_11h04.03.838,vts_reward_expectancy_bt,2022.2.4,MacIntel,60.0024001,Chrome,1200,750,,,,,0,576,,,,,,,,,,,,,,,,,181,Y,star,1,0,,,,,,,,,,,,,,,,repeat,letter,lettRpt,k,noRew,,,,,,0.8456,0,57,0,57,0,1,,,,,,,,,,,,,,,,,
295330,2022-11-25_11h04.03.838,vts_reward_expectancy_bt,2022.2.4,MacIntel,60.0024001,Chrome,1200,750,,,,,0,576,,,,,,,,,,,,,,,,,160,B,circle,1,0,,,,,,,,,,,,,,,,switch,number,numSwt,f,noRew,,,,,,1.798,0,58,0,58,0,1,,,,,,,,,,,,,,,,,
295330,2022-11-25_11h04.03.838,vts_reward_expectancy_bt,2022.2.4,MacIntel,60.0024001,Chrome,1200,750,,,,,0,576,,,,,,,,,,,,,,,,,125,D,hexagon,1,0,,,,,,,,,,,,,,,,repeat,number,numRpt,d,noRew,,,,,,0.9122,0,59,0,59,0,1,,,,,,,,,,,,,,,,,
295330,2022-11-25_11h04.03.838,vts_reward_expectancy_bt,2022.2.4,MacIntel,60.0024001,Chrome,1200,750,,,,,0,576,,,,,,,,,,,,,,,,,146,Y,star,1,0,,,,,,,,,,,,,,,,switch,letter,lettSwt,k,noRew,,,,,,2.3034,0,60,0,60,0,1,,,,,,,,,,,,,,,,,
295330,2022-11-25_11h04.03.838,vts_reward_expectancy_bt,2022.2.4,MacIntel,60.0024001,Chrome,1200,750,,,,,0,576,,,,,,,,,,,,,,,,,174,W,hexagon,1,0,,,,,,,,,,,,,,,,repeat,letter,lettRpt,k,noRew,,,,,,0.8142,0,61,0,61,0,1,,,,,,,,,,,,,,,,,
295330,2022-11-25_11h04.03.838,vts_reward_expectancy_bt,2022.2.4,MacIntel,60.0024001,Chrome,1200,750,,,,,0,576,,,,,,,,,,,,,,,,,132,U,triangle,1,0,,,,,,,,,,,,,,,,switch,number,numSwt,d,noRew,,,,,,1.2326,0,62,0,62,0,1,,,,,,,,,,,,,,,,,
295330,2022-11-25_11h04.03.838,vts_reward_expectancy_bt,2022.2.4,MacIntel,60.0024001,Chrome,1200,750,,,,,0,576,,,,,,,,,,,,,,,,,181,B,hexagon,1,0,,,,,,,,,,,,,,,,switch,letter,lettSwt,j,noRew,,,,,,1.9304,0,63,0,63,0,1,,,,,,,,,,,,,,,,,
295330,2022-11-25_11h04.03.838,vts_reward_expectancy_bt,2022.2.4,MacIntel,60.0024001,Chrome,1200,750,,,,,,,,,,,,,,,,,,,,,,,,,,,,,,,,,,,,,,,,,,,,,,,,,,,,,,,,,,,,,,,,,,,,,,,,,,,,
295330,2022-11-25_11h04.03.838,vts_reward_expectancy_bt,2022.2.4,MacIntel,60.0024001,Chrome,1200,750,,,,,10,586,,,,,,,,,,,,,,,,,139,S,hexagon,1,0,,,,,,,,,,,,,,,,switch,number,numSwt,d,Lo,,,,,,1.2779,0,,,,,,space,11.6468,low,0,0,0,0,1,,,,,,,,,
295330,2022-11-25_11h04.03.838,vts_reward_expectancy_bt,2022.2.4,MacIntel,60.0024001,Chrome,1200,750,,,,,0,586,,,,,,,,,,,,,,,,,125,F,triangle,1,0,,,,,,,,,,,,,,,,switch,letter,lettSwt,j,Hi,,,,,,1.6472,0,,,,,,,,low,1,0,1,0,1,,,,,,,,,
295330,2022-11-25_11h04.03.838,vts_reward_expectancy_bt,2022.2.4,MacIntel,60.0024001,Chrome,1200,750,,,,,0,586,,,,,,,,,,,,,,,,,181,H,circle,1,0,,,,,,,,,,,,,,,,repeat,letter,lettRpt,j,Hi,,,,,,1.0622,0,,,,,,,,low,2,0,2,0,1,,,,,,,,,
295330,2022-11-25_11h04.03.838,vts_reward_expectancy_bt,2022.2.4,MacIntel,60.0024001,Chrome,1200,750,,,,,10,596,,,,,,,,,,,,,,,,,167,Y,star,1,0,,,,,,,,,,,,,,,,switch,number,numSwt,f,Lo,,,,,,1.1506,0,,,,,,,,low,3,0,3,0,1,,,,,,,,,
295330,2022-11-25_11h04.03.838,vts_reward_expectancy_bt,2022.2.4,MacIntel,60.0024001,Chrome,1200,750,,,,,1,597,,,,,,,,,,,,,,,,,160,D,hexagon,1,0,,,,,,,,,,,,,,,,repeat,number,numRpt,f,Lo,,,,,,0.9108,0,,,,,,,,low,4,0,4,0,1,,,,,,,,,
295330,2022-11-25_11h04.03.838,vts_reward_expectancy_bt,2022.2.4,MacIntel,60.0024001,Chrome,1200,750,,,,,10,607,,,,,,,,,,,,,,,,,174,W,triangle,1,0,,,,,,,,,,,,,,,,repeat,number,numRpt,f,Hi,,,,,,0.8548,0,,,,,,,,low,5,0,5,0,1,,,,,,,,,
295330,2022-11-25_11h04.03.838,vts_reward_expectancy_bt,2022.2.4,MacIntel,60.0024001,Chrome,1200,750,,,,,0,607,,,,,,,,,,,,,,,,,146,U,circle,0,0,,,,,,,,,,,,,,,,repeat,number,NA,f,Hi,,,,,,0.7144,0,,,,,,,,low,6,0,6,0,1,,,,,,,,,
295330,2022-11-25_11h04.03.838,vts_reward_expectancy_bt,2022.2.4,MacIntel,60.0024001,Chrome,1200,750,,,,,10,617,,,,,,,,,,,,,,,,,132,B,star,1,1,,,,,,,,,,,,,,,,repeat,number,numRpt,d,Lo,,,,,,0.7809,0,,,,,,,,low,7,0,7,0,1,,,,,,,,,
295330,2022-11-25_11h04.03.838,vts_reward_expectancy_bt,2022.2.4,MacIntel,60.0024001,Chrome,1200,750,,,,,0,617,,,,,,,,,,,,,,,,,139,S,triangle,1,0,,,,,,,,,,,,,,,,repeat,number,numRpt,d,Hi,,,,,,0.9217,0,,,,,,,,low,8,0,8,0,1,,,,,,,,,
295330,2022-11-25_11h04.03.838,vts_reward_expectancy_bt,2022.2.4,MacIntel,60.0024001,Chrome,1200,750,,,,,1,618,,,,,,,,,,,,,,,,,125,F,star,1,0,,,,,,,,,,,,,,,,repeat,number,numRpt,d,Lo,,,,,,0.8471,0,,,,,,,,low,9,0,9,0,1,,,,,,,,,
295330,2022-11-25_11h04.03.838,vts_reward_expectancy_bt,2022.2.4,MacIntel,60.0024001,Chrome,1200,750,,,,,1,619,,,,,,,,,,,,,,,,,181,H,circle,1,0,,,,,,,,,,,,,,,,repeat,number,numRpt,f,Hi,,,,,,0.6622,0,,,,,,,,low,10,0,10,0,1,,,,,,,,,
295330,2022-11-25_11h04.03.838,vts_reward_expectancy_bt,2022.2.4,MacIntel,60.0024001,Chrome,1200,750,,,,,10,629,,,,,,,,,,,,,,,,,167,Y,hexagon,1,0,,,,,,,,,,,,,,,,switch,letter,lettSwt,k,Lo,,,,,,1.4799,0,,,,,,,,low,11,0,11,0,1,,,,,,,,,
295330,2022-11-25_11h04.03.838,vts_reward_expectancy_bt,2022.2.4,MacIntel,60.0024001,Chrome,1200,750,,,,,1,630,,,,,,,,,,,,,,,,,160,D,star,1,0,,,,,,,,,,,,,,,,switch,number,numSwt,f,Lo,,,,,,1.4033,0,,,,,,,,low,12,0,12,0,1,,,,,,,,,
295330,2022-11-25_11h04.03.838,vts_reward_expectancy_bt,2022.2.4,MacIntel,60.0024001,Chrome,1200,750,,,,,0,630,,,,,,,,,,,,,,,,,174,W,circle,1,0,,,,,,,,,,,,,,,,switch,letter,lettSwt,k,Hi,,,,,,1.2135,0,,,,,,,,low,13,0,13,0,1,,,,,,,,,
295330,2022-11-25_11h04.03.838,vts_reward_expectancy_bt,2022.2.4,MacIntel,60.0024001,Chrome,1200,750,,,,,1,631,,,,,,,,,,,,,,,,,146,U,hexagon,1,0,,,,,,,,,,,,,,,,switch,number,numSwt,d,Lo,,,,,,2.4692,0,,,,,,,,low,14,0,14,0,1,,,,,,,,,
295330,2022-11-25_11h04.03.838,vts_reward_expectancy_bt,2022.2.4,MacIntel,60.0024001,Chrome,1200,750,,,,,0,631,,,,,,,,,,,,,,,,,132,B,triangle,1,0,,,,,,,,,,,,,,,,repeat,number,numRpt,d,Hi,,,,,,1.5849,0,,,,,,,,low,15,0,15,0,1,,,,,,,,,
295330,2022-11-25_11h04.03.838,vts_reward_expectancy_bt,2022.2.4,MacIntel,60.0024001,Chrome,1200,750,,,,,0,631,,,,,,,,,,,,,,,,,125,F,circle,1,0,,,,,,,,,,,,,,,,repeat,number,numRpt,d,Hi,,,,,,0.9187,0,,,,,,,,low,16,0,16,0,1,,,,,,,,,
295330,2022-11-25_11h04.03.838,vts_reward_expectancy_bt,2022.2.4,MacIntel,60.0024001,Chrome,1200,750,,,,,0,631,,,,,,,,,,,,,,,,,181,H,triangle,1,0,,,,,,,,,,,,,,,,switch,letter,lettSwt,j,Hi,,,,,,1.4807,0,,,,,,,,low,17,0,17,0,1,,,,,,,,,
295330,2022-11-25_11h04.03.838,vts_reward_expectancy_bt,2022.2.4,MacIntel,60.0024001,Chrome,1200,750,,,,,10,641,,,,,,,,,,,,,,,,,160,Y,star,1,0,,,,,,,,,,,,,,,,repeat,letter,lettRpt,k,Lo,,,,,,1.5354,0,,,,,,,,low,18,0,18,0,1,,,,,,,,,
295330,2022-11-25_11h04.03.838,vts_reward_expectancy_bt,2022.2.4,MacIntel,60.0024001,Chrome,1200,750,,,,,10,651,,,,,,,,,,,,,,,,,139,D,hexagon,1,0,,,,,,,,,,,,,,,,switch,number,numSwt,d,Lo,,,,,,2.2727,0,,,,,,,,low,19,0,19,0,1,,,,,,,,,
295330,2022-11-25_11h04.03.838,vts_reward_expectancy_bt,2022.2.4,MacIntel,60.0024001,Chrome,1200,750,,,,,10,661,,,,,,,,,,,,,,,,,174,S,star,1,0,,,,,,,,,,,,,,,,switch,letter,lettSwt,k,Lo,,,,,,0.9506,0,,,,,,,,low,20,0,20,0,1,,,,,,,,,
295330,2022-11-25_11h04.03.838,vts_reward_expectancy_bt,2022.2.4,MacIntel,60.0024001,Chrome,1200,750,,,,,0,661,,,,,,,,,,,,,,,,,132,U,hexagon,-1,0,,,,,,,,,,,,,,,,switch,no_choice,NA,,Lo,,,,,,,0,,,,,,,,low,21,0,21,0,1,,,,,,,,,
295330,2022-11-25_11h04.03.838,vts_reward_expectancy_bt,2022.2.4,MacIntel,60.0024001,Chrome,1200,750,,,,,0,661,,,,,,,,,,,,,,,,,167,B,circle,-1,0,,,,,,,,,,,,,,,,repeat,no_choice,NA,,Lo,,,,,,,0,,,,,,,,low,22,0,22,0,1,,,,,,,,,
295330,2022-11-25_11h04.03.838,vts_reward_expectancy_bt,2022.2.4,MacIntel,60.0024001,Chrome,1200,750,,,,,0,661,,,,,,,,,,,,,,,,,146,W,triangle,-1,0,,,,,,,,,,,,,,,,repeat,no_choice,NA,,Lo,,,,,,,0,,,,,,,,low,23,0,23,0,1,,,,,,,,,
295330,2022-11-25_11h04.03.838,vts_reward_expectancy_bt,2022.2.4,MacIntel,60.0024001,Chrome,1200,750,,,,,0,661,,,,,,,,,,,,,,,,,125,F,hexagon,-1,0,,,,,,,,,,,,,,,,repeat,no_choice,NA,,Lo,,,,,,,0,,,,,,,,low,24,0,24,0,1,,,,,,,,,
295330,2022-11-25_11h04.03.838,vts_reward_expectancy_bt,2022.2.4,MacIntel,60.0024001,Chrome,1200,750,,,,,0,661,,,,,,,,,,,,,,,,,132,Y,triangle,-1,0,,,,,,,,,,,,,,,,repeat,no_choice,NA,,Lo,,,,,,,0,,,,,,,,low,25,0,25,0,1,,,,,,,,,
295330,2022-11-25_11h04.03.838,vts_reward_expectancy_bt,2022.2.4,MacIntel,60.0024001,Chrome,1200,750,,,,,0,661,,,,,,,,,,,,,,,,,139,D,circle,-1,0,,,,,,,,,,,,,,,,repeat,no_choice,NA,,Lo,,,,,,,0,,,,,,,,low,26,0,26,0,1,,,,,,,,,
295330,2022-11-25_11h04.03.838,vts_reward_expectancy_bt,2022.2.4,MacIntel,60.0024001,Chrome,1200,750,,,,,0,661,,,,,,,,,,,,,,,,,174,H,star,-1,0,,,,,,,,,,,,,,,,repeat,no_choice,NA,,Lo,,,,,,,0,,,,,,,,low,27,0,27,0,1,,,,,,,,,
295330,2022-11-25_11h04.03.838,vts_reward_expectancy_bt,2022.2.4,MacIntel,60.0024001,Chrome,1200,750,,,,,0,661,,,,,,,,,,,,,,,,,167,W,star,-1,0,,,,,,,,,,,,,,,,repeat,no_choice,NA,,Lo,,,,,,,0,,,,,,,,low,28,0,28,0,1,,,,,,,,,
295330,2022-11-25_11h04.03.838,vts_reward_expectancy_bt,2022.2.4,MacIntel,60.0024001,Chrome,1200,750,,,,,0,661,,,,,,,,,,,,,,,,,181,S,circle,-1,0,,,,,,,,,,,,,,,,repeat,no_choice,NA,,Lo,,,,,,,0,,,,,,,,low,29,0,29,0,1,,,,,,,,,
295330,2022-11-25_11h04.03.838,vts_reward_expectancy_bt,2022.2.4,MacIntel,60.0024001,Chrome,1200,750,,,,,0,661,,,,,,,,,,,,,,,,,160,B,hexagon,-1,0,,,,,,,,,,,,,,,,repeat,no_choice,NA,,Lo,,,,,,,0,,,,,,,,low,30,0,30,0,1,,,,,,,,,
295330,2022-11-25_11h04.03.838,vts_reward_expectancy_bt,2022.2.4,MacIntel,60.0024001,Chrome,1200,750,,,,,0,661,,,,,,,,,,,,,,,,,146,U,triangle,-1,0,,,,,,,,,,,,,,,,repeat,no_choice,NA,,Lo,,,,,,,0,,,,,,,,low,31,0,31,0,1,,,,,,,,,
295330,2022-11-25_11h04.03.838,vts_reward_expectancy_bt,2022.2.4,MacIntel,60.0024001,Chrome,1200,750,,,,,1,662,,,,,,,,,,,,,,,,,181,F,hexagon,1,0,,,,,,,,,,,,,,,,switch,number,numSwt,f,Lo,,,,,,1.1314,1,,,,,,space,6.1769,low,0,0,0,0,1,,,,,,,,,
295330,2022-11-25_11h04.03.838,vts_reward_expectancy_bt,2022.2.4,MacIntel,60.0024001,Chrome,1200,750,,,,,0,662,,,,,,,,,,,,,,,,,139,D,star,-1,0,,,,,,,,,,,,,,,,switch,no_choice,NA,,Lo,,,,,,,1,,,,,,,,low,1,0,1,0,1,,,,,,,,,
295330,2022-11-25_11h04.03.838,vts_reward_expectancy_bt,2022.2.4,MacIntel,60.0024001,Chrome,1200,750,,,,,0,662,,,,,,,,,,,,,,,,,160,H,circle,1,0,,,,,,,,,,,,,,,,switch,number,numSwt,f,Hi,,,,,,1.3459,1,,,,,,,,low,2,0,2,0,1,,,,,,,,,
295330,2022-11-25_11h04.03.838,vts_reward_expectancy_bt,2022.2.4,MacIntel,60.0024001,Chrome,1200,750,,,,,0,662,,,,,,,,,,,,,,,,,125,W,triangle,1,0,,,,,,,,,,,,,,,,switch,letter,lettSwt,k,Hi,,,,,,1.771,1,,,,,,,,low,3,0,3,0,1,,,,,,,,,
295330,2022-11-25_11h04.03.838,vts_reward_expectancy_bt,2022.2.4,MacIntel,60.0024001,Chrome,1200,750,,,,,1,663,,,,,,,,,,,,,,,,,146,S,hexagon,1,0,,,,,,,,,,,,,,,,switch,number,numSwt,d,Lo,,,,,,0.9447,1,,,,,,,,low,4,0,4,0,1,,,,,,,,,
295330,2022-11-25_11h04.03.838,vts_reward_expectancy_bt,2022.2.4,MacIntel,60.0024001,Chrome,1200,750,,,,,10,673,,,,,,,,,,,,,,,,,167,U,star,1,0,,,,,,,,,,,,,,,,repeat,number,numRpt,f,Lo,,,,,,1.179,1,,,,,,,,low,5,0,5,0,1,,,,,,,,,
295330,2022-11-25_11h04.03.838,vts_reward_expectancy_bt,2022.2.4,MacIntel,60.0024001,Chrome,1200,750,,,,,1,674,,,,,,,,,,,,,,,,,174,Y,circle,1,0,,,,,,,,,,,,,,,,repeat,number,numRpt,f,Hi,,,,,,0.6552,1,,,,,,,,low,6,0,6,0,1,,,,,,,,,
295330,2022-11-25_11h04.03.838,vts_reward_expectancy_bt,2022.2.4,MacIntel,60.0024001,Chrome,1200,750,,,,,0,674,,,,,,,,,,,,,,,,,132,B,triangle,1,0,,,,,,,,,,,,,,,,repeat,number,numRpt,d,Hi,,,,,,1.0629,1,,,,,,,,low,7,0,7,0,1,,,,,,,,,
295330,2022-11-25_11h04.03.838,vts_reward_expectancy_bt,2022.2.4,MacIntel,60.0024001,Chrome,1200,750,,,,,0,674,,,,,,,,,,,,,,,,,181,F,circle,1,0,,,,,,,,,,,,,,,,switch,letter,lettSwt,j,Hi,,,,,,1.4795,1,,,,,,,,low,8,0,8,0,1,,,,,,,,,
295330,2022-11-25_11h04.03.838,vts_reward_expectancy_bt,2022.2.4,MacIntel,60.0024001,Chrome,1200,750,,,,,0,674,,,,,,,,,,,,,,,,,139,D,triangle,0,0,,,,,,,,,,,,,,,,switch,number,NA,f,Hi,,,,,,1.1954,1,,,,,,,,low,9,0,9,0,1,,,,,,,,,
295330,2022-11-25_11h04.03.838,vts_reward_expectancy_bt,2022.2.4,MacIntel,60.0024001,Chrome,1200,750,,,,,10,684,,,,,,,,,,,,,,,,,160,H,hexagon,1,1,,,,,,,,,,,,,,,,repeat,number,numRpt,f,Lo,,,,,,0.8642,1,,,,,,,,low,10,0,10,0,1,,,,,,,,,
295330,2022-11-25_11h04.03.838,vts_reward_expectancy_bt,2022.2.4,MacIntel,60.0024001,Chrome,1200,750,,,,,1,685,,,,,,,,,,,,,,,,,125,W,star,1,0,,,,,,,,,,,,,,,,repeat,number,numRpt,d,Lo,,,,,,0.646,1,,,,,,,,low,11,0,11,0,1,,,,,,,,,
295330,2022-11-25_11h04.03.838,vts_reward_expectancy_bt,2022.2.4,MacIntel,60.0024001,Chrome,1200,750,,,,,10,695,,,,,,,,,,,,,,,,,146,S,circle,1,0,,,,,,,,,,,,,,,,repeat,number,numRpt,d,Hi,,,,,,0.7496,1,,,,,,,,low,12,0,12,0,1,,,,,,,,,
295330,2022-11-25_11h04.03.838,vts_reward_expectancy_bt,2022.2.4,MacIntel,60.0024001,Chrome,1200,750,,,,,1,696,,,,,,,,,,,,,,,,,167,U,hexagon,1,0,,,,,,,,,,,,,,,,repeat,number,numRpt,f,Lo,,,,,,0.8686,1,,,,,,,,low,13,0,13,0,1,,,,,,,,,
295330,2022-11-25_11h04.03.838,vts_reward_expectancy_bt,2022.2.4,MacIntel,60.0024001,Chrome,1200,750,,,,,0,696,,,,,,,,,,,,,,,,,174,Y,star,0,0,,,,,,,,,,,,,,,,repeat,number,NA,d,Lo,,,,,,0.2494,1,,,,,,,,low,14,0,14,0,1,,,,,,,,,
295330,2022-11-25_11h04.03.838,vts_reward_expectancy_bt,2022.2.4,MacIntel,60.0024001,Chrome,1200,750,,,,,1,697,,,,,,,,,,,,,,,,,132,B,triangle,1,1,,,,,,,,,,,,,,,,repeat,number,numRpt,d,Hi,,,,,,0.7289,1,,,,,,,,low,15,0,15,0,1,,,,,,,,,
295330,2022-11-25_11h04.03.838,vts_reward_expectancy_bt,2022.2.4,MacIntel,60.0024001,Chrome,1200,750,,,,,10,707,,,,,,,,,,,,,,,,,160,H,star,1,0,,,,,,,,,,,,,,,,repeat,number,numRpt,f,Lo,,,,,,0.6948,1,,,,,,,,low,16,0,16,0,1,,,,,,,,,
295330,2022-11-25_11h04.03.838,vts_reward_expectancy_bt,2022.2.4,MacIntel,60.0024001,Chrome,1200,750,,,,,0,707,,,,,,,,,,,,,,,,,139,F,circle,1,0,,,,,,,,,,,,,,,,repeat,number,numRpt,d,Hi,,,,,,0.8497,1,,,,,,,,low,17,0,17,0,1,,,,,,,,,
295330,2022-11-25_11h04.03.838,vts_reward_expectancy_bt,2022.2.4,MacIntel,60.0024001,Chrome,1200,750,,,,,10,717,,,,,,,,,,,,,,,,,181,S,hexagon,1,0,,,,,,,,,,,,,,,,repeat,number,numRpt,f,Lo,,,,,,0.6974,1,,,,,,,,low,18,0,18,0,1,,,,,,,,,
295330,2022-11-25_11h04.03.838,vts_reward_expectancy_bt,2022.2.4,MacIntel,60.0024001,Chrome,1200,750,,,,,0,717,,,,,,,,,,,,,,,,,167,D,triangle,1,0,,,,,,,,,,,,,,,,repeat,number,numRpt,f,Hi,,,,,,1.0004,1,,,,,,,,low,19,0,19,0,1,,,,,,,,,
295330,2022-11-25_11h04.03.838,vts_reward_expectancy_bt,2022.2.4,MacIntel,60.0024001,Chrome,1200,750,,,,,1,718,,,,,,,,,,,,,,,,,132,W,circle,1,0,,,,,,,,,,,,,,,,repeat,number,numRpt,d,Hi,,,,,,0.7457,1,,,,,,,,low,20,0,20,0,1,,,,,,,,,
295330,2022-11-25_11h04.03.838,vts_reward_expectancy_bt,2022.2.4,MacIntel,60.0024001,Chrome,1200,750,,,,,10,728,,,,,,,,,,,,,,,,,125,U,star,1,0,,,,,,,,,,,,,,,,repeat,number,numRpt,d,Lo,,,,,,0.8499,1,,,,,,,,low,21,0,21,0,1,,,,,,,,,
295330,2022-11-25_11h04.03.838,vts_reward_expectancy_bt,2022.2.4,MacIntel,60.0024001,Chrome,1200,750,,,,,10,738,,,,,,,,,,,,,,,,,174,B,hexagon,1,0,,,,,,,,,,,,,,,,repeat,number,numRpt,f,Lo,,,,,,0.7449,1,,,,,,,,low,22,0,22,0,1,,,,,,,,,
295330,2022-11-25_11h04.03.838,vts_reward_expectancy_bt,2022.2.4,MacIntel,60.0024001,Chrome,1200,750,,,,,0,738,,,,,,,,,,,,,,,,,146,Y,triangle,1,0,,,,,,,,,,,,,,,,repeat,number,numRpt,d,Hi,,,,,,1.352,1,,,,,,,,low,23,0,23,0,1,,,,,,,,,
295330,2022-11-25_11h04.03.838,vts_reward_expectancy_bt,2022.2.4,MacIntel,60.0024001,Chrome,1200,750,,,,,1,739,,,,,,,,,,,,,,,,,160,U,hexagon,1,0,,,,,,,,,,,,,,,,repeat,number,numRpt,f,Lo,,,,,,1.0153,1,,,,,,,,low,24,0,24,0,1,,,,,,,,,
295330,2022-11-25_11h04.03.838,vts_reward_expectancy_bt,2022.2.4,MacIntel,60.0024001,Chrome,1200,750,,,,,0,739,,,,,,,,,,,,,,,,,139,Y,circle,1,0,,,,,,,,,,,,,,,,repeat,number,numRpt,d,Hi,,,,,,1.1683,1,,,,,,,,low,25,0,25,0,1,,,,,,,,,
295330,2022-11-25_11h04.03.838,vts_reward_expectancy_bt,2022.2.4,MacIntel,60.0024001,Chrome,1200,750,,,,,10,749,,,,,,,,,,,,,,,,,132,H,star,1,0,,,,,,,,,,,,,,,,repeat,number,numRpt,d,Lo,,,,,,1.4145,1,,,,,,,,low,26,0,26,0,1,,,,,,,,,
295330,2022-11-25_11h04.03.838,vts_reward_expectancy_bt,2022.2.4,MacIntel,60.0024001,Chrome,1200,750,,,,,0,749,,,,,,,,,,,,,,,,,146,W,triangle,1,0,,,,,,,,,,,,,,,,repeat,number,numRpt,d,Hi,,,,,,0.9319,1,,,,,,,,low,27,0,27,0,1,,,,,,,,,
295330,2022-11-25_11h04.03.838,vts_reward_expectancy_bt,2022.2.4,MacIntel,60.0024001,Chrome,1200,750,,,,,10,759,,,,,,,,,,,,,,,,,174,S,hexagon,1,0,,,,,,,,,,,,,,,,switch,letter,lettSwt,k,Lo,,,,,,1.4699,1,,,,,,,,low,28,0,28,0,1,,,,,,,,,
295330,2022-11-25_11h04.03.838,vts_reward_expectancy_bt,2022.2.4,MacIntel,60.0024001,Chrome,1200,750,,,,,0,759,,,,,,,,,,,,,,,,,181,F,star,0,0,,,,,,,,,,,,,,,,repeat,letter,NA,k,Lo,,,,,,0.7282,1,,,,,,,,low,29,0,29,0,1,,,,,,,,,
295330,2022-11-25_11h04.03.838,vts_reward_expectancy_bt,2022.2.4,MacIntel,60.0024001,Chrome,1200,750,,,,,0,759,,,,,,,,,,,,,,,,,125,D,circle,1,1,,,,,,,,,,,,,,,,repeat,letter,lettRpt,j,Hi,,,,,,2.0301,1,,,,,,,,low,30,0,30,0,1,,,,,,,,,
295330,2022-11-25_11h04.03.838,vts_reward_expectancy_bt,2022.2.4,MacIntel,60.0024001,Chrome,1200,750,,,,,10,769,,,,,,,,,,,,,,,,,167,B,triangle,1,0,,,,,,,,,,,,,,,,switch,number,numSwt,f,Hi,,,,,,0.8647,1,,,,,,,,low,31,0,31,0,1,,,,,,,,,
295330,2022-11-25_11h04.03.838,vts_reward_expectancy_bt,2022.2.4,MacIntel,60.0024001,Chrome,1200,750,,,,,0,769,,,,,,,,,,,,,,,,,174,F,triangle,1,0,,,,,,,,,,,,,,,,repeat,number,numRpt,f,Hi,,,,,,1.1126,2,,,,,,space,1.408,low,0,0,0,0,1,,,,,,,,,
295330,2022-11-25_11h04.03.838,vts_reward_expectancy_bt,2022.2.4,MacIntel,60.0024001,Chrome,1200,750,,,,,10,779,,,,,,,,,,,,,,,,,132,W,star,1,0,,,,,,,,,,,,,,,,repeat,number,numRpt,d,Lo,,,,,,0.7953,2,,,,,,,,low,1,0,1,0,1,,,,,,,,,
295330,2022-11-25_11h04.03.838,vts_reward_expectancy_bt,2022.2.4,MacIntel,60.0024001,Chrome,1200,750,,,,,10,789,,,,,,,,,,,,,,,,,181,H,circle,1,0,,,,,,,,,,,,,,,,repeat,number,numRpt,f,Hi,,,,,,0.6983,2,,,,,,,,low,2,0,2,0,1,,,,,,,,,
295330,2022-11-25_11h04.03.838,vts_reward_expectancy_bt,2022.2.4,MacIntel,60.0024001,Chrome,1200,750,,,,,10,799,,,,,,,,,,,,,,,,,139,U,hexagon,1,0,,,,,,,,,,,,,,,,repeat,number,numRpt,d,Lo,,,,,,0.7358,2,,,,,,,,low,3,0,3,0,1,,,,,,,,,
295330,2022-11-25_11h04.03.838,vts_reward_expectancy_bt,2022.2.4,MacIntel,60.0024001,Chrome,1200,750,,,,,0,799,,,,,,,,,,,,,,,,,125,D,triangle,1,0,,,,,,,,,,,,,,,,repeat,number,numRpt,d,Hi,,,,,,0.9153,2,,,,,,,,low,4,0,4,0,1,,,,,,,,,
295330,2022-11-25_11h04.03.838,vts_reward_expectancy_bt,2022.2.4,MacIntel,60.0024001,Chrome,1200,750,,,,,1,800,,,,,,,,,,,,,,,,,167,Y,star,1,0,,,,,,,,,,,,,,,,switch,letter,lettSwt,k,Lo,,,,,,1.0794,2,,,,,,,,low,5,0,5,0,1,,,,,,,,,
295330,2022-11-25_11h04.03.838,vts_reward_expectancy_bt,2022.2.4,MacIntel,60.0024001,Chrome,1200,750,,,,,1,801,,,,,,,,,,,,,,,,,160,B,circle,1,0,,,,,,,,,,,,,,,,repeat,letter,lettRpt,j,Hi,,,,,,0.8827,2,,,,,,,,low,6,0,6,0,1,,,,,,,,,
295330,2022-11-25_11h04.03.838,vts_reward_expectancy_bt,2022.2.4,MacIntel,60.0024001,Chrome,1200,750,,,,,10,811,,,,,,,,,,,,,,,,,146,S,hexagon,1,0,,,,,,,,,,,,,,,,repeat,letter,lettRpt,k,Lo,,,,,,1.182,2,,,,,,,,low,7,0,7,0,1,,,,,,,,,
295330,2022-11-25_11h04.03.838,vts_reward_expectancy_bt,2022.2.4,MacIntel,60.0024001,Chrome,1200,750,,,,,1,812,,,,,,,,,,,,,,,,,174,F,hexagon,1,0,,,,,,,,,,,,,,,,repeat,letter,lettRpt,j,Lo,,,,,,1.4471,2,,,,,,,,low,8,0,8,0,1,,,,,,,,,
295330,2022-11-25_11h04.03.838,vts_reward_expectancy_bt,2022.2.4,MacIntel,60.0024001,Chrome,1200,750,,,,,10,822,,,,,,,,,,,,,,,,,132,W,circle,1,0,,,,,,,,,,,,,,,,repeat,letter,lettRpt,k,Hi,,,,,,0.7989,2,,,,,,,,low,9,0,9,0,1,,,,,,,,,
295330,2022-11-25_11h04.03.838,vts_reward_expectancy_bt,2022.2.4,MacIntel,60.0024001,Chrome,1200,750,,,,,10,832,,,,,,,,,,,,,,,,,181,H,triangle,1,0,,,,,,,,,,,,,,,,repeat,letter,lettRpt,j,Hi,,,,,,0.789,2,,,,,,,,low,10,0,10,0,1,,,,,,,,,
295330,2022-11-25_11h04.03.838,vts_reward_expectancy_bt,2022.2.4,MacIntel,60.0024001,Chrome,1200,750,,,,,1,833,,,,,,,,,,,,,,,,,139,U,star,1,0,,,,,,,,,,,,,,,,switch,number,numSwt,d,Lo,,,,,,0.5963,2,,,,,,,,low,11,0,11,0,1,,,,,,,,,
295330,2022-11-25_11h04.03.838,vts_reward_expectancy_bt,2022.2.4,MacIntel,60.0024001,Chrome,1200,750,,,,,1,834,,,,,,,,,,,,,,,,,125,D,circle,1,0,,,,,,,,,,,,,,,,repeat,number,numRpt,d,Hi,,,,,,0.7362,2,,,,,,,,low,12,0,12,0,1,,,,,,,,,
295330,2022-11-25_11h04.03.838,vts_reward_expectancy_bt,2022.2.4,MacIntel,60.0024001,Chrome,1200,750,,,,,10,844,,,,,,,,,,,,,,,,,167,Y,star,1,0,,,,,,,,,,,,,,,,switch,letter,lettSwt,k,Lo,,,,,,0.7813,2,,,,,,,,low,13,0,13,0,1,,,,,,,,,
295330,2022-11-25_11h04.03.838,vts_reward_expectancy_bt,2022.2.4,MacIntel,60.0024001,Chrome,1200,750,,,,,10,854,,,,,,,,,,,,,,,,,160,B,triangle,1,0,,,,,,,,,,,,,,,,repeat,letter,lettRpt,j,Hi,,,,,,0.9048,2,,,,,,,,low,14,0,14,0,1,,,,,,,,,
295330,2022-11-25_11h04.03.838,vts_reward_expectancy_bt,2022.2.4,MacIntel,60.0024001,Chrome,1200,750,,,,,1,855,,,,,,,,,,,,,,,,,146,S,hexagon,1,0,,,,,,,,,,,,,,,,repeat,letter,lettRpt,k,Lo,,,,,,1.7196,2,,,,,,,,low,15,0,15,0,1,,,,,,,,,
295330,2022-11-25_11h04.03.838,vts_reward_expectancy_bt,2022.2.4,MacIntel,60.0024001,Chrome,1200,750,,,,,10,865,,,,,,,,,,,,,,,,,139,W,circle,1,0,,,,,,,,,,,,,,,,repeat,letter,lettRpt,k,Hi,,,,,,1.2147,2,,,,,,,,low,16,0,16,0,1,,,,,,,,,
295330,2022-11-25_11h04.03.838,vts_reward_expectancy_bt,2022.2.4,MacIntel,60.0024001,Chrome,1200,750,,,,,10,875,,,,,,,,,,,,,,,,,146,D,star,1,0,,,,,,,,,,,,,,,,switch,number,numSwt,d,Lo,,,,,,1.216,2,,,,,,,,low,17,0,17,0,1,,,,,,,,,
295330,2022-11-25_11h04.03.838,vts_reward_expectancy_bt,2022.2.4,MacIntel,60.0024001,Chrome,1200,750,,,,,0,875,,,,,,,,,,,,,,,,,132,S,triangle,1,0,,,,,,,,,,,,,,,,repeat,number,numRpt,d,Hi,,,,,,0.8304,2,,,,,,,,low,18,0,18,0,1,,,,,,,,,
295330,2022-11-25_11h04.03.838,vts_reward_expectancy_bt,2022.2.4,MacIntel,60.0024001,Chrome,1200,750,,,,,1,876,,,,,,,,,,,,,,,,,125,B,hexagon,1,0,,,,,,,,,,,,,,,,repeat,number,numRpt,d,Lo,,,,,,0.7841,2,,,,,,,,low,19,0,19,0,1,,,,,,,,,
295330,2022-11-25_11h04.03.838,vts_reward_expectancy_bt,2022.2.4,MacIntel,60.0024001,Chrome,1200,750,,,,,1,877,,,,,,,,,,,,,,,,,160,H,star,1,0,,,,,,,,,,,,,,,,switch,letter,lettSwt,j,Lo,,,,,,0.865,2,,,,,,,,low,20,0,20,0,1,,,,,,,,,
295330,2022-11-25_11h04.03.838,vts_reward_expectancy_bt,2022.2.4,MacIntel,60.0024001,Chrome,1200,750,,,,,1,878,,,,,,,,,,,,,,,,,181,Y,hexagon,1,0,,,,,,,,,,,,,,,,repeat,letter,lettRpt,k,Lo,,,,,,0.8176,2,,,,,,,,low,21,0,21,0,1,,,,,,,,,
295330,2022-11-25_11h04.03.838,vts_reward_expectancy_bt,2022.2.4,MacIntel,60.0024001,Chrome,1200,750,,,,,10,888,,,,,,,,,,,,,,,,,174,U,triangle,1,0,,,,,,,,,,,,,,,,repeat,letter,lettRpt,k,Hi,,,,,,0.9897,2,,,,,,,,low,22,0,22,0,1,,,,,,,,,
295330,2022-11-25_11h04.03.838,vts_reward_expectancy_bt,2022.2.4,MacIntel,60.0024001,Chrome,1200,750,,,,,10,898,,,,,,,,,,,,,,,,,167,F,circle,1,0,,,,,,,,,,,,,,,,repeat,letter,lettRpt,j,Hi,,,,,,0.8948,2,,,,,,,,low,23,0,23,0,1,,,,,,,,,
295330,2022-11-25_11h04.03.838,vts_reward_expectancy_bt,2022.2.4,MacIntel,60.0024001,Chrome,1200,750,,,,,10,908,,,,,,,,,,,,,,,,,132,S,triangle,1,0,,,,,,,,,,,,,,,,repeat,letter,lettRpt,k,Hi,,,,,,0.7314,2,,,,,,,,low,24,0,24,0,1,,,,,,,,,
295330,2022-11-25_11h04.03.838,vts_reward_expectancy_bt,2022.2.4,MacIntel,60.0024001,Chrome,1200,750,,,,,1,909,,,,,,,,,,,,,,,,,160,W,star,1,0,,,,,,,,,,,,,,,,switch,number,numSwt,f,Lo,,,,,,1.2821,2,,,,,,,,low,25,0,25,0,1,,,,,,,,,
295330,2022-11-25_11h04.03.838,vts_reward_expectancy_bt,2022.2.4,MacIntel,60.0024001,Chrome,1200,750,,,,,1,910,,,,,,,,,,,,,,,,,174,Y,hexagon,1,0,,,,,,,,,,,,,,,,repeat,number,numRpt,f,Lo,,,,,,0.7451,2,,,,,,,,low,26,0,26,0,1,,,,,,,,,
295330,2022-11-25_11h04.03.838,vts_reward_expectancy_bt,2022.2.4,MacIntel,60.0024001,Chrome,1200,750,,,,,10,920,,,,,,,,,,,,,,,,,181,B,circle,1,0,,,,,,,,,,,,,,,,repeat,number,numRpt,f,Hi,,,,,,0.6824,2,,,,,,,,low,27,0,27,0,1,,,,,,,,,
295330,2022-11-25_11h04.03.838,vts_reward_expectancy_bt,2022.2.4,MacIntel,60.0024001,Chrome,1200,750,,,,,1,921,,,,,,,,,,,,,,,,,139,D,hexagon,1,0,,,,,,,,,,,,,,,,repeat,number,numRpt,d,Lo,,,,,,0.7348,2,,,,,,,,low,28,0,28,0,1,,,,,,,,,
295330,2022-11-25_11h04.03.838,vts_reward_expectancy_bt,2022.2.4,MacIntel,60.0024001,Chrome,1200,750,,,,,10,931,,,,,,,,,,,,,,,,,167,F,triangle,1,0,,,,,,,,,,,,,,,,repeat,number,numRpt,f,Hi,,,,,,0.4998,2,,,,,,,,low,29,0,29,0,1,,,,,,,,,
295330,2022-11-25_11h04.03.838,vts_reward_expectancy_bt,2022.2.4,MacIntel,60.0024001,Chrome,1200,750,,,,,0,931,,,,,,,,,,,,,,,,,146,U,circle,1,0,,,,,,,,,,,,,,,,repeat,number,numRpt,d,Hi,,,,,,0.8193,2,,,,,,,,low,30,0,30,0,1,,,,,,,,,
295330,2022-11-25_11h04.03.838,vts_reward_expectancy_bt,2022.2.4,MacIntel,60.0024001,Chrome,1200,750,,,,,0,931,,,,,,,,,,,,,,,,,125,H,star,0,0,,,,,,,,,,,,,,,,switch,letter,NA,k,Hi,,,,,,1.4297,2,,,,,,,,low,31,0,31,0,1,,,,,,,,,
295330,2022-11-25_11h04.03.838,vts_reward_expectancy_bt,2022.2.4,MacIntel,60.0024001,Chrome,1200,750,,,,,0,931,,,,,,,,,,,,,,,,,160,U,triangle,1,1,,,,,,,,,,,,,,,,switch,number,numSwt,f,Hi,,,,,,1.3464,3,,,,,,space,2.1403,low,0,0,0,0,1,,,,,,,,,
295330,2022-11-25_11h04.03.838,vts_reward_expectancy_bt,2022.2.4,MacIntel,60.0024001,Chrome,1200,750,,,,,1,932,,,,,,,,,,,,,,,,,132,H,star,1,0,,,,,,,,,,,,,,,,repeat,number,numRpt,d,Lo,,,,,,0.8823,3,,,,,,,,low,1,0,1,0,1,,,,,,,,,
295330,2022-11-25_11h04.03.838,vts_reward_expectancy_bt,2022.2.4,MacIntel,60.0024001,Chrome,1200,750,,,,,10,942,,,,,,,,,,,,,,,,,174,Y,hexagon,1,0,,,,,,,,,,,,,,,,repeat,number,numRpt,f,Lo,,,,,,0.9028,3,,,,,,,,low,2,0,2,0,1,,,,,,,,,
295330,2022-11-25_11h04.03.838,vts_reward_expectancy_bt,2022.2.4,MacIntel,60.0024001,Chrome,1200,750,,,,,0,942,,,,,,,,,,,,,,,,,139,B,circle,1,0,,,,,,,,,,,,,,,,repeat,number,numRpt,d,Hi,,,,,,0.9024,3,,,,,,,,low,3,0,3,0,1,,,,,,,,,
295330,2022-11-25_11h04.03.838,vts_reward_expectancy_bt,2022.2.4,MacIntel,60.0024001,Chrome,1200,750,,,,,0,942,,,,,,,,,,,,,,,,,125,S,triangle,1,0,,,,,,,,,,,,,,,,repeat,number,numRpt,d,Hi,,,,,,0.8305,3,,,,,,,,low,4,0,4,0,1,,,,,,,,,
295330,2022-11-25_11h04.03.838,vts_reward_expectancy_bt,2022.2.4,MacIntel,60.0024001,Chrome,1200,750,,,,,1,943,,,,,,,,,,,,,,,,,146,W,star,1,0,,,,,,,,,,,,,,,,repeat,number,numRpt,d,Lo,,,,,,0.6317,3,,,,,,,,low,5,0,5,0,1,,,,,,,,,
295330,2022-11-25_11h04.03.838,vts_reward_expectancy_bt,2022.2.4,MacIntel,60.0024001,Chrome,1200,750,,,,,1,944,,,,,,,,,,,,,,,,,181,D,hexagon,1,0,,,,,,,,,,,,,,,,repeat,number,numRpt,f,Lo,,,,,,0.6005,3,,,,,,,,low,6,0,6,0,1,,,,,,,,,
295330,2022-11-25_11h04.03.838,vts_reward_expectancy_bt,2022.2.4,MacIntel,60.0024001,Chrome,1200,750,,,,,0,944,,,,,,,,,,,,,,,,,167,F,circle,1,0,,,,,,,,,,,,,,,,repeat,number,numRpt,f,Hi,,,,,,0.8478,3,,,,,,,,low,7,0,7,0,1,,,,,,,,,
295330,2022-11-25_11h04.03.838,vts_reward_expectancy_bt,2022.2.4,MacIntel,60.0024001,Chrome,1200,750,,,,,0,944,,,,,,,,,,,,,,,,,160,U,triangle,1,0,,,,,,,,,,,,,,,,switch,letter,lettSwt,k,Hi,,,,,,1.4967,3,,,,,,,,low,8,0,8,0,1,,,,,,,,,
295330,2022-11-25_11h04.03.838,vts_reward_expectancy_bt,2022.2.4,MacIntel,60.0024001,Chrome,1200,750,,,,,1,945,,,,,,,,,,,,,,,,,132,H,hexagon,1,0,,,,,,,,,,,,,,,,switch,number,numSwt,d,Lo,,,,,,0.7719,3,,,,,,,,low,9,0,9,0,1,,,,,,,,,
295330,2022-11-25_11h04.03.838,vts_reward_expectancy_bt,2022.2.4,MacIntel,60.0024001,Chrome,1200,750,,,,,1,946,,,,,,,,,,,,,,,,,174,Y,star,1,0,,,,,,,,,,,,,,,,repeat,number,numRpt,f,Lo,,,,,,1.086,3,,,,,,,,low,10,0,10,0,1,,,,,,,,,
295330,2022-11-25_11h04.03.838,vts_reward_expectancy_bt,2022.2.4,MacIntel,60.0024001,Chrome,1200,750,,,,,0,946,,,,,,,,,,,,,,,,,139,B,circle,1,0,,,,,,,,,,,,,,,,repeat,number,numRpt,d,Hi,,,,,,1.1153,3,,,,,,,,low,11,0,11,0,1,,,,,,,,,
295330,2022-11-25_11h04.03.838,vts_reward_expectancy_bt,2022.2.4,MacIntel,60.0024001,Chrome,1200,750,,,,,0,946,,,,,,,,,,,,,,,,,125,S,circle,1,0,,,,,,,,,,,,,,,,switch,letter,lettSwt,k,Hi,,,,,,1.1722,3,,,,,,,,low,12,0,12,0,1,,,,,,,,,
295330,2022-11-25_11h04.03.838,vts_reward_expectancy_bt,2022.2.4,MacIntel,60.0024001,Chrome,1200,750,,,,,10,956,,,,,,,,,,,,,,,,,146,W,star,1,0,,,,,,,,,,,,,,,,switch,number,numSwt,d,Lo,,,,,,0.7817,3,,,,,,,,low,13,0,13,0,1,,,,,,,,,
295330,2022-11-25_11h04.03.838,vts_reward_expectancy_bt,2022.2.4,MacIntel,60.0024001,Chrome,1200,750,,,,,0,956,,,,,,,,,,,,,,,,,181,D,triangle,1,0,,,,,,,,,,,,,,,,repeat,number,numRpt,f,Hi,,,,,,0.905,3,,,,,,,,low,14,0,14,0,1,,,,,,,,,
295330,2022-11-25_11h04.03.838,vts_reward_expectancy_bt,2022.2.4,MacIntel,60.0024001,Chrome,1200,750,,,,,10,966,,,,,,,,,,,,,,,,,167,F,hexagon,1,0,,,,,,,,,,,,,,,,repeat,number,numRpt,f,Lo,,,,,,0.6962,3,,,,,,,,low,15,0,15,0,1,,,,,,,,,
295330,2022-11-25_11h04.03.838,vts_reward_expectancy_bt,2022.2.4,MacIntel,60.0024001,Chrome,1200,750,,,,,0,966,,,,,,,,,,,,,,,,,167,B,star,0,0,,,,,,,,,,,,,,,,repeat,number,NA,d,Lo,,,,,,0.5361,3,,,,,,,,low,16,0,16,0,1,,,,,,,,,
295330,2022-11-25_11h04.03.838,vts_reward_expectancy_bt,2022.2.4,MacIntel,60.0024001,Chrome,1200,750,,,,,1,967,,,,,,,,,,,,,,,,,174,H,circle,1,1,,,,,,,,,,,,,,,,repeat,number,numRpt,f,Hi,,,,,,0.6322,3,,,,,,,,low,17,0,17,0,1,,,,,,,,,
295330,2022-11-25_11h04.03.838,vts_reward_expectancy_bt,2022.2.4,MacIntel,60.0024001,Chrome,1200,750,,,,,0,967,,,,,,,,,,,,,,,,,160,W,triangle,1,0,,,,,,,,,,,,,,,,repeat,number,numRpt,f,Hi,,,,,,0.7901,3,,,,,,,,low,18,0,18,0,1,,,,,,,,,
295330,2022-11-25_11h04.03.838,vts_reward_expectancy_bt,2022.2.4,MacIntel,60.0024001,Chrome,1200,750,,,,,1,968,,,,,,,,,,,,,,,,,132,F,hexagon,1,0,,,,,,,,,,,,,,,,repeat,number,numRpt,d,Lo,,,,,,0.847,3,,,,,,,,low,19,0,19,0,1,,,,,,,,,
295330,2022-11-25_11h04.03.838,vts_reward_expectancy_bt,2022.2.4,MacIntel,60.0024001,Chrome,1200,750,,,,,0,968,,,,,,,,,,,,,,,,,125,U,circle,1,0,,,,,,,,,,,,,,,,repeat,number,numRpt,d,Hi,,,,,,1.5221,3,,,,,,,,low,20,0,20,0,1,,,,,,,,,
295330,2022-11-25_11h04.03.838,vts_reward_expectancy_bt,2022.2.4,MacIntel,60.0024001,Chrome,1200,750,,,,,10,978,,,,,,,,,,,,,,,,,181,D,triangle,1,0,,,,,,,,,,,,,,,,repeat,number,numRpt,f,Hi,,,,,,0.5976,3,,,,,,,,low,21,0,21,0,1,,,,,,,,,
295330,2022-11-25_11h04.03.838,vts_reward_expectancy_bt,2022.2.4,MacIntel,60.0024001,Chrome,1200,750,,,,,1,979,,,,,,,,,,,,,,,,,146,S,hexagon,1,0,,,,,,,,,,,,,,,,repeat,number,numRpt,d,Lo,,,,,,1.6949,3,,,,,,,,low,22,0,22,0,1,,,,,,,,,
295330,2022-11-25_11h04.03.838,vts_reward_expectancy_bt,2022.2.4,MacIntel,60.0024001,Chrome,1200,750,,,,,1,980,,,,,,,,,,,,,,,,,139,Y,star,1,0,,,,,,,,,,,,,,,,repeat,number,numRpt,d,Lo,,,,,,0.8198,3,,,,,,,,low,23,0,23,0,1,,,,,,,,,
295330,2022-11-25_11h04.03.838,vts_reward_expectancy_bt,2022.2.4,MacIntel,60.0024001,Chrome,1200,750,,,,,0,980,,,,,,,,,,,,,,,,,146,W,circle,1,0,,,,,,,,,,,,,,,,switch,letter,lettSwt,k,Hi,,,,,,1.1794,3,,,,,,,,low,24,0,24,0,1,,,,,,,,,
295330,2022-11-25_11h04.03.838,vts_reward_expectancy_bt,2022.2.4,MacIntel,60.0024001,Chrome,1200,750,,,,,1,981,,,,,,,,,,,,,,,,,132,U,hexagon,1,0,,,,,,,,,,,,,,,,switch,number,numSwt,d,Lo,,,,,,0.9171,3,,,,,,,,low,25,0,25,0,1,,,,,,,,,
295330,2022-11-25_11h04.03.838,vts_reward_expectancy_bt,2022.2.4,MacIntel,60.0024001,Chrome,1200,750,,,,,10,991,,,,,,,,,,,,,,,,,167,B,star,1,0,,,,,,,,,,,,,,,,repeat,number,numRpt,f,Lo,,,,,,1.1494,3,,,,,,,,low,26,0,26,0,1,,,,,,,,,
295330,2022-11-25_11h04.03.838,vts_reward_expectancy_bt,2022.2.4,MacIntel,60.0024001,Chrome,1200,750,,,,,0,991,,,,,,,,,,,,,,,,,139,H,triangle,1,0,,,,,,,,,,,,,,,,repeat,number,numRpt,d,Hi,,,,,,0.8189,3,,,,,,,,low,27,0,27,0,1,,,,,,,,,
295330,2022-11-25_11h04.03.838,vts_reward_expectancy_bt,2022.2.4,MacIntel,60.0024001,Chrome,1200,750,,,,,0,991,,,,,,,,,,,,,,,,,174,D,circle,1,0,,,,,,,,,,,,,,,,repeat,number,numRpt,f,Hi,,,,,,0.7608,3,,,,,,,,low,28,0,28,0,1,,,,,,,,,
295330,2022-11-25_11h04.03.838,vts_reward_expectancy_bt,2022.2.4,MacIntel,60.0024001,Chrome,1200,750,,,,,1,992,,,,,,,,,,,,,,,,,181,S,hexagon,1,0,,,,,,,,,,,,,,,,repeat,number,numRpt,f,Lo,,,,,,0.6654,3,,,,,,,,low,29,0,29,0,1,,,,,,,,,
295330,2022-11-25_11h04.03.838,vts_reward_expectancy_bt,2022.2.4,MacIntel,60.0024001,Chrome,1200,750,,,,,10,1002,,,,,,,,,,,,,,,,,125,F,star,1,0,,,,,,,,,,,,,,,,repeat,number,numRpt,d,Lo,,,,,,0.7461,3,,,,,,,,low,30,0,30,0,1,,,,,,,,,
295330,2022-11-25_11h04.03.838,vts_reward_expectancy_bt,2022.2.4,MacIntel,60.0024001,Chrome,1200,750,,,,,0,1002,,,,,,,,,,,,,,,,,160,Y,triangle,1,0,,,,,,,,,,,,,,,,repeat,number,numRpt,f,Hi,,,,,,1.1782,3,,,,,,,,low,31,0,31,0,1,,,,,,,,,
295330,2022-11-25_11h04.03.838,vts_reward_expectancy_bt,2022.2.4,MacIntel,60.0024001,Chrome,1200,750,,,,,0,1002,,,,,,,,,,,,,,,,,174,F,triangle,1,0,,,,,,,,,,,,,,,,repeat,number,numRpt,f,Hi,,,,,,1.4776,4,,,,,,space,1.4709,low,0,0,0,0,1,,,,,,,,,
295330,2022-11-25_11h04.03.838,vts_reward_expectancy_bt,2022.2.4,MacIntel,60.0024001,Chrome,1200,750,,,,,10,1012,,,,,,,,,,,,,,,,,125,Y,star,1,0,,,,,,,,,,,,,,,,switch,letter,lettSwt,k,Lo,,,,,,1.0063,4,,,,,,,,low,1,0,1,0,1,,,,,,,,,
295330,2022-11-25_11h04.03.838,vts_reward_expectancy_bt,2022.2.4,MacIntel,60.0024001,Chrome,1200,750,,,,,10,1022,,,,,,,,,,,,,,,,,132,D,circle,1,0,,,,,,,,,,,,,,,,repeat,letter,lettRpt,j,Hi,,,,,,1.1031,4,,,,,,,,low,2,0,2,0,1,,,,,,,,,
295330,2022-11-25_11h04.03.838,vts_reward_expectancy_bt,2022.2.4,MacIntel,60.0024001,Chrome,1200,750,,,,,10,1032,,,,,,,,,,,,,,,,,160,S,hexagon,1,0,,,,,,,,,,,,,,,,repeat,letter,lettRpt,k,Lo,,,,,,0.9884,4,,,,,,,,low,3,0,3,0,1,,,,,,,,,
295330,2022-11-25_11h04.03.838,vts_reward_expectancy_bt,2022.2.4,MacIntel,60.0024001,Chrome,1200,750,,,,,1,1033,,,,,,,,,,,,,,,,,181,B,triangle,1,0,,,,,,,,,,,,,,,,repeat,letter,lettRpt,j,Hi,,,,,,1.0718,4,,,,,,,,low,4,0,4,0,1,,,,,,,,,
295330,2022-11-25_11h04.03.838,vts_reward_expectancy_bt,2022.2.4,MacIntel,60.0024001,Chrome,1200,750,,,,,10,1043,,,,,,,,,,,,,,,,,146,H,star,1,0,,,,,,,,,,,,,,,,repeat,letter,lettRpt,j,Lo,,,,,,1.0989,4,,,,,,,,low,5,0,5,0,1,,,,,,,,,
295330,2022-11-25_11h04.03.838,vts_reward_expectancy_bt,2022.2.4,MacIntel,60.0024001,Chrome,1200,750,,,,,10,1053,,,,,,,,,,,,,,,,,167,W,circle,1,0,,,,,,,,,,,,,,,,repeat,letter,lettRpt,k,Hi,,,,,,0.9651,4,,,,,,,,low,6,0,6,0,1,,,,,,,,,
295330,2022-11-25_11h04.03.838,vts_reward_expectancy_bt,2022.2.4,MacIntel,60.0024001,Chrome,1200,750,,,,,10,1063,,,,,,,,,,,,,,,,,139,U,hexagon,1,0,,,,,,,,,,,,,,,,repeat,letter,lettRpt,k,Lo,,,,,,1.5368,4,,,,,,,,low,7,0,7,0,1,,,,,,,,,
295330,2022-11-25_11h04.03.838,vts_reward_expectancy_bt,2022.2.4,MacIntel,60.0024001,Chrome,1200,750,,,,,1,1064,,,,,,,,,,,,,,,,,174,F,star,1,0,,,,,,,,,,,,,,,,repeat,letter,lettRpt,j,Lo,,,,,,1.2469,4,,,,,,,,low,8,0,8,0,1,,,,,,,,,
295330,2022-11-25_11h04.03.838,vts_reward_expectancy_bt,2022.2.4,MacIntel,60.0024001,Chrome,1200,750,,,,,10,1074,,,,,,,,,,,,,,,,,125,Y,hexagon,1,0,,,,,,,,,,,,,,,,repeat,letter,lettRpt,k,Lo,,,,,,0.7129,4,,,,,,,,low,9,0,9,0,1,,,,,,,,,
295330,2022-11-25_11h04.03.838,vts_reward_expectancy_bt,2022.2.4,MacIntel,60.0024001,Chrome,1200,750,,,,,10,1084,,,,,,,,,,,,,,,,,132,D,triangle,1,0,,,,,,,,,,,,,,,,repeat,letter,lettRpt,j,Hi,,,,,,0.6792,4,,,,,,,,low,10,0,10,0,1,,,,,,,,,
295330,2022-11-25_11h04.03.838,vts_reward_expectancy_bt,2022.2.4,MacIntel,60.0024001,Chrome,1200,750,,,,,1,1085,,,,,,,,,,,,,,,,,160,S,circle,1,0,,,,,,,,,,,,,,,,repeat,letter,lettRpt,k,Hi,,,,,,1.2134,4,,,,,,,,low,11,0,11,0,1,,,,,,,,,
295330,2022-11-25_11h04.03.838,vts_reward_expectancy_bt,2022.2.4,MacIntel,60.0024001,Chrome,1200,750,,,,,10,1095,,,,,,,,,,,,,,,,,181,B,circle,1,0,,,,,,,,,,,,,,,,repeat,letter,lettRpt,j,Hi,,,,,,0.7483,4,,,,,,,,low,12,0,12,0,1,,,,,,,,,
295330,2022-11-25_11h04.03.838,vts_reward_expectancy_bt,2022.2.4,MacIntel,60.0024001,Chrome,1200,750,,,,,10,1105,,,,,,,,,,,,,,,,,146,H,hexagon,1,0,,,,,,,,,,,,,,,,repeat,letter,lettRpt,j,Lo,,,,,,0.8731,4,,,,,,,,low,13,0,13,0,1,,,,,,,,,
295330,2022-11-25_11h04.03.838,vts_reward_expectancy_bt,2022.2.4,MacIntel,60.0024001,Chrome,1200,750,,,,,1,1106,,,,,,,,,,,,,,,,,167,W,triangle,1,0,,,,,,,,,,,,,,,,repeat,letter,lettRpt,k,Hi,,,,,,0.8805,4,,,,,,,,low,14,0,14,0,1,,,,,,,,,
295330,2022-11-25_11h04.03.838,vts_reward_expectancy_bt,2022.2.4,MacIntel,60.0024001,Chrome,1200,750,,,,,10,1116,,,,,,,,,,,,,,,,,139,U,star,1,0,,,,,,,,,,,,,,,,repeat,letter,lettRpt,k,Lo,,,,,,1.5329,4,,,,,,,,low,15,0,15,0,1,,,,,,,,,
295330,2022-11-25_11h04.03.838,vts_reward_expectancy_bt,2022.2.4,MacIntel,60.0024001,Chrome,1200,750,,,,,10,1126,,,,,,,,,,,,,,,,,132,Y,hexagon,1,0,,,,,,,,,,,,,,,,repeat,letter,lettRpt,k,Lo,,,,,,1.1063,4,,,,,,,,low,16,0,16,0,1,,,,,,,,,
295330,2022-11-25_11h04.03.838,vts_reward_expectancy_bt,2022.2.4,MacIntel,60.0024001,Chrome,1200,750,,,,,10,1136,,,,,,,,,,,,,,,,,174,F,circle,1,0,,,,,,,,,,,,,,,,repeat,letter,lettRpt,j,Hi,,,,,,0.9465,4,,,,,,,,low,17,0,17,0,1,,,,,,,,,
295330,2022-11-25_11h04.03.838,vts_reward_expectancy_bt,2022.2.4,MacIntel,60.0024001,Chrome,1200,750,,,,,1,1137,,,,,,,,,,,,,,,,,167,W,star,1,0,,,,,,,,,,,,,,,,repeat,letter,lettRpt,k,Lo,,,,,,0.8639,4,,,,,,,,low,18,0,18,0,1,,,,,,,,,
295330,2022-11-25_11h04.03.838,vts_reward_expectancy_bt,2022.2.4,MacIntel,60.0024001,Chrome,1200,750,,,,,10,1147,,,,,,,,,,,,,,,,,125,U,triangle,1,0,,,,,,,,,,,,,,,,repeat,letter,lettRpt,k,Hi,,,,,,1.0149,4,,,,,,,,low,19,0,19,0,1,,,,,,,,,
295330,2022-11-25_11h04.03.838,vts_reward_expectancy_bt,2022.2.4,MacIntel,60.0024001,Chrome,1200,750,,,,,1,1148,,,,,,,,,,,,,,,,,146,S,hexagon,1,0,,,,,,,,,,,,,,,,repeat,letter,lettRpt,k,Lo,,,,,,0.8875,4,,,,,,,,low,20,0,20,0,1,,,,,,,,,
295330,2022-11-25_11h04.03.838,vts_reward_expectancy_bt,2022.2.4,MacIntel,60.0024001,Chrome,1200,750,,,,,10,1158,,,,,,,,,,,,,,,,,181,H,circle,1,0,,,,,,,,,,,,,,,,repeat,letter,lettRpt,j,Hi,,,,,,0.6856,4,,,,,,,,low,21,0,21,0,1,,,,,,,,,
295330,2022-11-25_11h04.03.838,vts_reward_expectancy_bt,2022.2.4,MacIntel,60.0024001,Chrome,1200,750,,,,,10,1168,,,,,,,,,,,,,,,,,139,D,triangle,1,0,,,,,,,,,,,,,,,,repeat,letter,lettRpt,j,Hi,,,,,,0.915,4,,,,,,,,low,22,0,22,0,1,,,,,,,,,
295330,2022-11-25_11h04.03.838,vts_reward_expectancy_bt,2022.2.4,MacIntel,60.0024001,Chrome,1200,750,,,,,1,1169,,,,,,,,,,,,,,,,,160,B,star,1,0,,,,,,,,,,,,,,,,repeat,letter,lettRpt,j,Lo,,,,,,0.665,4,,,,,,,,low,23,0,23,0,1,,,,,,,,,
295330,2022-11-25_11h04.03.838,vts_reward_expectancy_bt,2022.2.4,MacIntel,60.0024001,Chrome,1200,750,,,,,1,1170,,,,,,,,,,,,,,,,,167,Y,star,1,0,,,,,,,,,,,,,,,,repeat,letter,lettRpt,k,Lo,,,,,,0.7962,4,,,,,,,,low,24,0,24,0,1,,,,,,,,,
295330,2022-11-25_11h04.03.838,vts_reward_expectancy_bt,2022.2.4,MacIntel,60.0024001,Chrome,1200,750,,,,,10,1180,,,,,,,,,,,,,,,,,160,D,circle,1,0,,,,,,,,,,,,,,,,repeat,letter,lettRpt,j,Hi,,,,,,0.8183,4,,,,,,,,low,25,0,25,0,1,,,,,,,,,
295330,2022-11-25_11h04.03.838,vts_reward_expectancy_bt,2022.2.4,MacIntel,60.0024001,Chrome,1200,750,,,,,1,1181,,,,,,,,,,,,,,,,,139,H,hexagon,1,0,,,,,,,,,,,,,,,,repeat,letter,lettRpt,j,Lo,,,,,,0.9335,4,,,,,,,,low,26,0,26,0,1,,,,,,,,,
295330,2022-11-25_11h04.03.838,vts_reward_expectancy_bt,2022.2.4,MacIntel,60.0024001,Chrome,1200,750,,,,,10,1191,,,,,,,,,,,,,,,,,125,U,triangle,1,0,,,,,,,,,,,,,,,,repeat,letter,lettRpt,k,Hi,,,,,,0.8694,4,,,,,,,,low,27,0,27,0,1,,,,,,,,,
295330,2022-11-25_11h04.03.838,vts_reward_expectancy_bt,2022.2.4,MacIntel,60.0024001,Chrome,1200,750,,,,,1,1192,,,,,,,,,,,,,,,,,132,W,star,1,0,,,,,,,,,,,,,,,,repeat,letter,lettRpt,k,Lo,,,,,,1.0141,4,,,,,,,,low,28,0,28,0,1,,,,,,,,,
295330,2022-11-25_11h04.03.838,vts_reward_expectancy_bt,2022.2.4,MacIntel,60.0024001,Chrome,1200,750,,,,,10,1202,,,,,,,,,,,,,,,,,146,S,triangle,1,0,,,,,,,,,,,,,,,,repeat,letter,lettRpt,k,Hi,,,,,,0.9032,4,,,,,,,,low,29,0,29,0,1,,,,,,,,,
295330,2022-11-25_11h04.03.838,vts_reward_expectancy_bt,2022.2.4,MacIntel,60.0024001,Chrome,1200,750,,,,,10,1212,,,,,,,,,,,,,,,,,181,F,hexagon,1,0,,,,,,,,,,,,,,,,repeat,letter,lettRpt,j,Lo,,,,,,0.7814,4,,,,,,,,low,30,0,30,0,1,,,,,,,,,
295330,2022-11-25_11h04.03.838,vts_reward_expectancy_bt,2022.2.4,MacIntel,60.0024001,Chrome,1200,750,,,,,10,1222,,,,,,,,,,,,,,,,,174,B,circle,1,0,,,,,,,,,,,,,,,,repeat,letter,lettRpt,j,Hi,,,,,,0.7299,4,,,,,,,,low,31,0,31,0,1,,,,,,,,,
295330,2022-11-25_11h04.03.838,vts_reward_expectancy_bt,2022.2.4,MacIntel,60.0024001,Chrome,1200,750,,,,,10,1232,,,,,,,,,,,,,,,,,132,Y,hexagon,1,0,,,,,,,,,,,,,,,,switch,number,numSwt,d,Lo,,,,,,2.1296,5,,,,,,space,21.3466,low,0,0,0,0,1,,,,,,,,,
295330,2022-11-25_11h04.03.838,vts_reward_expectancy_bt,2022.2.4,MacIntel,60.0024001,Chrome,1200,750,,,,,1,1233,,,,,,,,,,,,,,,,,146,F,star,1,0,,,,,,,,,,,,,,,,repeat,number,numRpt,d,Lo,,,,,,1.1819,5,,,,,,,,low,1,0,1,0,1,,,,,,,,,
295330,2022-11-25_11h04.03.838,vts_reward_expectancy_bt,2022.2.4,MacIntel,60.0024001,Chrome,1200,750,,,,,1,1234,,,,,,,,,,,,,,,,,181,B,circle,1,0,,,,,,,,,,,,,,,,repeat,number,numRpt,f,Hi,,,,,,1.28,5,,,,,,,,low,2,0,2,0,1,,,,,,,,,
295330,2022-11-25_11h04.03.838,vts_reward_expectancy_bt,2022.2.4,MacIntel,60.0024001,Chrome,1200,750,,,,,10,1244,,,,,,,,,,,,,,,,,174,W,triangle,1,0,,,,,,,,,,,,,,,,repeat,number,numRpt,f,Hi,,,,,,0.7982,5,,,,,,,,low,3,0,3,0,1,,,,,,,,,
295330,2022-11-25_11h04.03.838,vts_reward_expectancy_bt,2022.2.4,MacIntel,60.0024001,Chrome,1200,750,,,,,10,1254,,,,,,,,,,,,,,,,,167,U,hexagon,1,0,,,,,,,,,,,,,,,,repeat,number,numRpt,f,Lo,,,,,,1.0116,5,,,,,,,,low,4,0,4,0,1,,,,,,,,,
295330,2022-11-25_11h04.03.838,vts_reward_expectancy_bt,2022.2.4,MacIntel,60.0024001,Chrome,1200,750,,,,,1,1255,,,,,,,,,,,,,,,,,139,S,star,1,0,,,,,,,,,,,,,,,,repeat,number,numRpt,d,Lo,,,,,,1.1817,5,,,,,,,,low,5,0,5,0,1,,,,,,,,,
295330,2022-11-25_11h04.03.838,vts_reward_expectancy_bt,2022.2.4,MacIntel,60.0024001,Chrome,1200,750,,,,,10,1265,,,,,,,,,,,,,,,,,160,D,circle,1,0,,,,,,,,,,,,,,,,repeat,number,numRpt,f,Hi,,,,,,0.8306,5,,,,,,,,low,6,0,6,0,1,,,,,,,,,
295330,2022-11-25_11h04.03.838,vts_reward_expectancy_bt,2022.2.4,MacIntel,60.0024001,Chrome,1200,750,,,,,10,1275,,,,,,,,,,,,,,,,,125,H,triangle,1,0,,,,,,,,,,,,,,,,repeat,number,numRpt,d,Hi,,,,,,0.698,5,,,,,,,,low,7,0,7,0,1,,,,,,,,,
295330,2022-11-25_11h04.03.838,vts_reward_expectancy_bt,2022.2.4,MacIntel,60.0024001,Chrome,1200,750,,,,,1,1276,,,,,,,,,,,,,,,,,132,Y,circle,1,0,,,,,,,,,,,,,,,,repeat,number,numRpt,d,Hi,,,,,,0.7824,5,,,,,,,,low,8,0,8,0,1,,,,,,,,,
295330,2022-11-25_11h04.03.838,vts_reward_expectancy_bt,2022.2.4,MacIntel,60.0024001,Chrome,1200,750,,,,,1,1277,,,,,,,,,,,,,,,,,146,F,triangle,1,0,,,,,,,,,,,,,,,,repeat,number,numRpt,d,Hi,,,,,,0.9655,5,,,,,,,,low,9,0,9,0,1,,,,,,,,,
295330,2022-11-25_11h04.03.838,vts_reward_expectancy_bt,2022.2.4,MacIntel,60.0024001,Chrome,1200,750,,,,,1,1278,,,,,,,,,,,,,,,,,181,B,hexagon,1,0,,,,,,,,,,,,,,,,repeat,number,numRpt,f,Lo,,,,,,0.6306,5,,,,,,,,low,10,0,10,0,1,,,,,,,,,
295330,2022-11-25_11h04.03.838,vts_reward_expectancy_bt,2022.2.4,MacIntel,60.0024001,Chrome,1200,750,,,,,1,1279,,,,,,,,,,,,,,,,,174,W,star,1,0,,,,,,,,,,,,,,,,repeat,number,numRpt,f,Lo,,,,,,0.6482,5,,,,,,,,low,11,0,11,0,1,,,,,,,,,
295330,2022-11-25_11h04.03.838,vts_reward_expectancy_bt,2022.2.4,MacIntel,60.0024001,Chrome,1200,750,,,,,10,1289,,,,,,,,,,,,,,,,,167,U,star,1,0,,,,,,,,,,,,,,,,repeat,number,numRpt,f,Lo,,,,,,0.6316,5,,,,,,,,low,12,0,12,0,1,,,,,,,,,
295330,2022-11-25_11h04.03.838,vts_reward_expectancy_bt,2022.2.4,MacIntel,60.0024001,Chrome,1200,750,,,,,10,1299,,,,,,,,,,,,,,,,,139,S,hexagon,1,0,,,,,,,,,,,,,,,,repeat,number,numRpt,d,Lo,,,,,,0.7034,5,,,,,,,,low,13,0,13,0,1,,,,,,,,,
295330,2022-11-25_11h04.03.838,vts_reward_expectancy_bt,2022.2.4,MacIntel,60.0024001,Chrome,1200,750,,,,,1,1300,,,,,,,,,,,,,,,,,160,D,circle,1,0,,,,,,,,,,,,,,,,repeat,number,numRpt,f,Hi,,,,,,0.6699,5,,,,,,,,low,14,0,14,0,1,,,,,,,,,
295330,2022-11-25_11h04.03.838,vts_reward_expectancy_bt,2022.2.4,MacIntel,60.0024001,Chrome,1200,750,,,,,10,1310,,,,,,,,,,,,,,,,,125,H,triangle,1,0,,,,,,,,,,,,,,,,repeat,number,numRpt,d,Hi,,,,,,1.2302,5,,,,,,,,low,15,0,15,0,1,,,,,,,,,
295330,2022-11-25_11h04.03.838,vts_reward_expectancy_bt,2022.2.4,MacIntel,60.0024001,Chrome,1200,750,,,,,1,1311,,,,,,,,,,,,,,,,,160,Y,hexagon,1,0,,,,,,,,,,,,,,,,repeat,number,numRpt,f,Lo,,,,,,0.6446,5,,,,,,,,low,16,0,16,0,1,,,,,,,,,
295330,2022-11-25_11h04.03.838,vts_reward_expectancy_bt,2022.2.4,MacIntel,60.0024001,Chrome,1200,750,,,,,10,1321,,,,,,,,,,,,,,,,,139,D,triangle,1,0,,,,,,,,,,,,,,,,repeat,number,numRpt,d,Hi,,,,,,0.8149,5,,,,,,,,low,17,0,17,0,1,,,,,,,,,
295330,2022-11-25_11h04.03.838,vts_reward_expectancy_bt,2022.2.4,MacIntel,60.0024001,Chrome,1200,750,,,,,10,1331,,,,,,,,,,,,,,,,,146,F,star,1,0,,,,,,,,,,,,,,,,repeat,number,numRpt,d,Lo,,,,,,0.7475,5,,,,,,,,low,18,0,18,0,1,,,,,,,,,
295330,2022-11-25_11h04.03.838,vts_reward_expectancy_bt,2022.2.4,MacIntel,60.0024001,Chrome,1200,750,,,,,1,1332,,,,,,,,,,,,,,,,,167,S,circle,1,0,,,,,,,,,,,,,,,,repeat,number,numRpt,f,Hi,,,,,,0.6532,5,,,,,,,,low,19,0,19,0,1,,,,,,,,,
295330,2022-11-25_11h04.03.838,vts_reward_expectancy_bt,2022.2.4,MacIntel,60.0024001,Chrome,1200,750,,,,,10,1342,,,,,,,,,,,,,,,,,174,B,star,1,0,,,,,,,,,,,,,,,,repeat,number,numRpt,f,Lo,,,,,,0.7149,5,,,,,,,,low,20,0,20,0,1,,,,,,,,,
295330,2022-11-25_11h04.03.838,vts_reward_expectancy_bt,2022.2.4,MacIntel,60.0024001,Chrome,1200,750,,,,,1,1343,,,,,,,,,,,,,,,,,132,W,triangle,1,0,,,,,,,,,,,,,,,,repeat,number,numRpt,d,Hi,,,,,,0.6161,5,,,,,,,,low,21,0,21,0,1,,,,,,,,,
295330,2022-11-25_11h04.03.838,vts_reward_expectancy_bt,2022.2.4,MacIntel,60.0024001,Chrome,1200,750,,,,,1,1344,,,,,,,,,,,,,,,,,181,U,hexagon,1,0,,,,,,,,,,,,,,,,repeat,number,numRpt,f,Lo,,,,,,0.6985,5,,,,,,,,low,22,0,22,0,1,,,,,,,,,
295330,2022-11-25_11h04.03.838,vts_reward_expectancy_bt,2022.2.4,MacIntel,60.0024001,Chrome,1200,750,,,,,10,1354,,,,,,,,,,,,,,,,,125,H,circle,1,0,,,,,,,,,,,,,,,,repeat,number,numRpt,d,Hi,,,,,,0.666,5,,,,,,,,low,23,0,23,0,1,,,,,,,,,
295330,2022-11-25_11h04.03.838,vts_reward_expectancy_bt,2022.2.4,MacIntel,60.0024001,Chrome,1200,750,,,,,1,1355,,,,,,,,,,,,,,,,,167,B,triangle,1,0,,,,,,,,,,,,,,,,repeat,number,numRpt,f,Hi,,,,,,1.149,5,,,,,,,,low,24,0,24,0,1,,,,,,,,,
295330,2022-11-25_11h04.03.838,vts_reward_expectancy_bt,2022.2.4,MacIntel,60.0024001,Chrome,1200,750,,,,,1,1356,,,,,,,,,,,,,,,,,146,W,circle,1,0,,,,,,,,,,,,,,,,repeat,number,numRpt,d,Hi,,,,,,1.1656,5,,,,,,,,low,25,0,25,0,1,,,,,,,,,
295330,2022-11-25_11h04.03.838,vts_reward_expectancy_bt,2022.2.4,MacIntel,60.0024001,Chrome,1200,750,,,,,10,1366,,,,,,,,,,,,,,,,,125,H,star,1,0,,,,,,,,,,,,,,,,repeat,number,numRpt,d,Lo,,,,,,1.3994,5,,,,,,,,low,26,0,26,0,1,,,,,,,,,
295330,2022-11-25_11h04.03.838,vts_reward_expectancy_bt,2022.2.4,MacIntel,60.0024001,Chrome,1200,750,,,,,10,1376,,,,,,,,,,,,,,,,,139,D,hexagon,1,0,,,,,,,,,,,,,,,,repeat,number,numRpt,d,Lo,,,,,,1.2533,5,,,,,,,,low,27,0,27,0,1,,,,,,,,,
295330,2022-11-25_11h04.03.838,vts_reward_expectancy_bt,2022.2.4,MacIntel,60.0024001,Chrome,1200,750,,,,,10,1386,,,,,,,,,,,,,,,,,181,U,triangle,1,0,,,,,,,,,,,,,,,,repeat,number,numRpt,f,Hi,,,,,,0.9556,5,,,,,,,,low,28,0,28,0,1,,,,,,,,,
295330,2022-11-25_11h04.03.838,vts_reward_expectancy_bt,2022.2.4,MacIntel,60.0024001,Chrome,1200,750,,,,,1,1387,,,,,,,,,,,,,,,,,132,F,star,1,0,,,,,,,,,,,,,,,,repeat,number,numRpt,d,Lo,,,,,,1.4885,5,,,,,,,,low,29,0,29,0,1,,,,,,,,,
295330,2022-11-25_11h04.03.838,vts_reward_expectancy_bt,2022.2.4,MacIntel,60.0024001,Chrome,1200,750,,,,,10,1397,,,,,,,,,,,,,,,,,174,S,circle,1,0,,,,,,,,,,,,,,,,repeat,number,numRpt,f,Hi,,,,,,1.4062,5,,,,,,,,low,30,0,30,0,1,,,,,,,,,
295330,2022-11-25_11h04.03.838,vts_reward_expectancy_bt,2022.2.4,MacIntel,60.0024001,Chrome,1200,750,,,,,1,1398,,,,,,,,,,,,,,,,,160,Y,hexagon,1,0,,,,,,,,,,,,,,,,repeat,number,numRpt,f,Lo,,,,,,0.8989,5,,,,,,,,low,31,0,31,0,1,,,,,,,,,
295330,2022-11-25_11h04.03.838,vts_reward_expectancy_bt,2022.2.4,MacIntel,60.0024001,Chrome,1200,750,,,,,0,1398,,,,,,,,,,,,,,,,,181,U,triangle,1,0,,,,,,,,,,,,,,,,repeat,number,numRpt,f,Hi,,,,,,0.7313,6,,,,,,space,1.0196,low,0,0,0,0,1,,,,,,,,,
295330,2022-11-25_11h04.03.838,vts_reward_expectancy_bt,2022.2.4,MacIntel,60.0024001,Chrome,1200,750,,,,,1,1399,,,,,,,,,,,,,,,,,174,F,star,1,0,,,,,,,,,,,,,,,,switch,letter,lettSwt,j,Lo,,,,,,1.8512,6,,,,,,,,low,1,0,1,0,1,,,,,,,,,
295330,2022-11-25_11h04.03.838,vts_reward_expectancy_bt,2022.2.4,MacIntel,60.0024001,Chrome,1200,750,,,,,10,1409,,,,,,,,,,,,,,,,,125,H,hexagon,1,0,,,,,,,,,,,,,,,,repeat,letter,lettRpt,j,Lo,,,,,,0.8326,6,,,,,,,,low,2,0,2,0,1,,,,,,,,,
295330,2022-11-25_11h04.03.838,vts_reward_expectancy_bt,2022.2.4,MacIntel,60.0024001,Chrome,1200,750,,,,,10,1419,,,,,,,,,,,,,,,,,160,W,circle,1,0,,,,,,,,,,,,,,,,repeat,letter,lettRpt,k,Hi,,,,,,0.9286,6,,,,,,,,low,3,0,3,0,1,,,,,,,,,
295330,2022-11-25_11h04.03.838,vts_reward_expectancy_bt,2022.2.4,MacIntel,60.0024001,Chrome,1200,750,,,,,1,1420,,,,,,,,,,,,,,,,,132,D,triangle,1,0,,,,,,,,,,,,,,,,repeat,letter,lettRpt,j,Hi,,,,,,0.7517,6,,,,,,,,low,4,0,4,0,1,,,,,,,,,
