participant,date,expName,psychopyVersion,OS,frameRate,browser,xResolution,yResolution,key_resp.keys,key_resp.rt,training_resp.keys,training_resp.rt,points_trial,points_cumul,trainBlock,training.thisRepN,training.thisTrialN,training.thisN,training.thisIndex,training.ran,LTriangleOpac,LCircleOpac,LHexagonOpac,LStarOpac,RTriangleOpac,RCircleOpac,RHexagonOpac,RStarOpac,LShape_ID,RShape_ID,curr_topStim,curr_bottStim,curr_shape,acc,E1,target_resp_prac1.keys,pracBlock,task1_prac_trials.thisRepN,task1_prac_trials.thisTrialN,task1_prac_trials.thisN,task1_prac_trials.thisIndex,task1_prac_trials.ran,target_resp_prac1.rt,target_resp_prac2.keys,target_resp_prac2.rt,task2_praac_trials.thisRepN,task2_praac_trials.thisTrialN,task2_praac_trials.thisN,task2_praac_trials.thisIndex,task2_praac_trials.ran,alt,task,condition,target_resp.keys,target_resp.rt,rewCond,vts_practice_trials.thisRepN,vts_practice_trials.thisTrialN,vts_practice_trials.thisN,vts_practice_trials.thisIndex,vts_practice_trials.ran,blockNum,trials_norew.thisRepN,trials_norew.thisTrialN,trials_norew.thisN,trials_norew.thisIndex,trials_norew.ran,key_resp_2.keys,key_resp_2.rt,rewExpectancy,trials_rew.thisRepN,trials_rew.thisTrialN,trials_rew.thisN,trials_rew.thisIndex,trials_rew.ran,Q1,Q2,Q2_text,Q3,Q4,Q5_text,Q5,xRes,yRes
295309,2022-11-28_17h36.16.527,vts_reward_expectancy_bt,2022.2.4,Win32,59.80861244,Chrome,1280,800,,,,,,,,,,,,,,,,,,,,,,,,,,,,,,,,,,,,,,,,,,,,,,,,,,,,,,,,,,,,,,,,,,,,,,,,,,,,
295309,2022-11-28_17h36.16.527,vts_reward_expectancy_bt,2022.2.4,Win32,59.80861244,Chrome,1280,800,space,11.3572,,,,,,,,,,,,,,,,,,,,,,,,,,,,,,,,,,,,,,,,,,,,,,,,,,,,,,,,,,,,,,,,,,,,,,,,,,
295309,2022-11-28_17h36.16.527,vts_reward_expectancy_bt,2022.2.4,Win32,59.80861244,Chrome,1280,800,,,,,,,,,,,,,,,,,,,,,,,,,,,,,,,,,,,,,,,,,,,,,,,,,,,,,,,,,,,,,,,,,,,,,,,,,,,,
295309,2022-11-28_17h36.16.527,vts_reward_expectancy_bt,2022.2.4,Win32,59.80861244,Chrome,1280,800,,,a,1.9748,1,1,0,0,0,0,5,1,0,1,0,0,0,0,0,1,circle,star,,,,,,,,,,,,,,,,,,,,,,,,,,,,,,,,,,,,,,,,,,,,,,,,,,,,,,
295309,2022-11-28_17h36.16.527,vts_reward_expectancy_bt,2022.2.4,Win32,59.80861244,Chrome,1280,800,,,l,0.965,1,2,0,0,1,1,10,1,0,0,0,1,0,1,0,0,star ,circle,,,,,,,,,,,,,,,,,,,,,,,,,,,,,,,,,,,,,,,,,,,,,,,,,,,,,,
295309,2022-11-28_17h36.16.527,vts_reward_expectancy_bt,2022.2.4,Win32,59.80861244,Chrome,1280,800,,,l,2.0242,1,3,0,0,2,2,4,1,0,1,0,0,0,0,1,0,circle,hexagon,,,,,,,,,,,,,,,,,,,,,,,,,,,,,,,,,,,,,,,,,,,,,,,,,,,,,,
295309,2022-11-28_17h36.16.527,vts_reward_expectancy_bt,2022.2.4,Win32,59.80861244,Chrome,1280,800,,,l,0.7276,1,4,0,0,3,3,7,1,0,0,1,0,0,1,0,0,hexagon,circle,,,,,,,,,,,,,,,,,,,,,,,,,,,,,,,,,,,,,,,,,,,,,,,,,,,,,,
295309,2022-11-28_17h36.16.527,vts_reward_expectancy_bt,2022.2.4,Win32,59.80861244,Chrome,1280,800,,,a,0.4059,10,14,0,0,4,4,8,1,0,0,1,0,0,0,0,1,hexagon,star,,,,,,,,,,,,,,,,,,,,,,,,,,,,,,,,,,,,,,,,,,,,,,,,,,,,,,
295309,2022-11-28_17h36.16.527,vts_reward_expectancy_bt,2022.2.4,Win32,59.80861244,Chrome,1280,800,,,l,1.2451,1,15,0,0,5,5,2,1,1,0,0,0,0,0,0,1,triangle,star,,,,,,,,,,,,,,,,,,,,,,,,,,,,,,,,,,,,,,,,,,,,,,,,,,,,,,
295309,2022-11-28_17h36.16.527,vts_reward_expectancy_bt,2022.2.4,Win32,59.80861244,Chrome,1280,800,,,a,0.7674,1,16,0,0,6,6,0,1,1,0,0,0,0,1,0,0,triangle,circle,,,,,,,,,,,,,,,,,,,,,,,,,,,,,,,,,,,,,,,,,,,,,,,,,,,,,,
295309,2022-11-28_17h36.16.527,vts_reward_expectancy_bt,2022.2.4,Win32,59.80861244,Chrome,1280,800,,,l,0.7296,10,26,0,0,7,7,9,1,0,0,0,1,1,0,0,0,star,triangle,,,,,,,,,,,,,,,,,,,,,,,,,,,,,,,,,,,,,,,,,,,,,,,,,,,,,,
295309,2022-11-28_17h36.16.527,vts_reward_expectancy_bt,2022.2.4,Win32,59.80861244,Chrome,1280,800,,,l,0.7086,10,36,0,0,8,8,11,1,0,0,0,1,0,0,1,0,star,hexagon,,,,,,,,,,,,,,,,,,,,,,,,,,,,,,,,,,,,,,,,,,,,,,,,,,,,,,
295309,2022-11-28_17h36.16.527,vts_reward_expectancy_bt,2022.2.4,Win32,59.80861244,Chrome,1280,800,,,a,1.0501,10,46,0,0,9,9,6,1,0,0,1,0,1,0,0,0,hexagon,triangle,,,,,,,,,,,,,,,,,,,,,,,,,,,,,,,,,,,,,,,,,,,,,,,,,,,,,,
295309,2022-11-28_17h36.16.527,vts_reward_expectancy_bt,2022.2.4,Win32,59.80861244,Chrome,1280,800,,,l,1.2434,10,56,0,0,10,10,1,1,1,0,0,0,0,0,1,0,triangle,hexagon,,,,,,,,,,,,,,,,,,,,,,,,,,,,,,,,,,,,,,,,,,,,,,,,,,,,,,
295309,2022-11-28_17h36.16.527,vts_reward_expectancy_bt,2022.2.4,Win32,59.80861244,Chrome,1280,800,,,l,1.3506,1,57,0,0,11,11,3,1,0,1,0,0,1,0,0,0,circle,triangle,,,,,,,,,,,,,,,,,,,,,,,,,,,,,,,,,,,,,,,,,,,,,,,,,,,,,,
295309,2022-11-28_17h36.16.527,vts_reward_expectancy_bt,2022.2.4,Win32,59.80861244,Chrome,1280,800,,,a,0.7263,1,58,0,1,0,12,4,1,0,1,0,0,0,0,1,0,circle,hexagon,,,,,,,,,,,,,,,,,,,,,,,,,,,,,,,,,,,,,,,,,,,,,,,,,,,,,,
295309,2022-11-28_17h36.16.527,vts_reward_expectancy_bt,2022.2.4,Win32,59.80861244,Chrome,1280,800,,,a,1.353,1,59,0,1,1,13,9,1,0,0,0,1,1,0,0,0,star,triangle,,,,,,,,,,,,,,,,,,,,,,,,,,,,,,,,,,,,,,,,,,,,,,,,,,,,,,
295309,2022-11-28_17h36.16.527,vts_reward_expectancy_bt,2022.2.4,Win32,59.80861244,Chrome,1280,800,,,a,1.0096,10,69,0,1,2,14,0,1,1,0,0,0,0,1,0,0,triangle,circle,,,,,,,,,,,,,,,,,,,,,,,,,,,,,,,,,,,,,,,,,,,,,,,,,,,,,,
295309,2022-11-28_17h36.16.527,vts_reward_expectancy_bt,2022.2.4,Win32,59.80861244,Chrome,1280,800,,,a,0.4763,1,70,0,1,3,15,5,1,0,1,0,0,0,0,0,1,circle,star,,,,,,,,,,,,,,,,,,,,,,,,,,,,,,,,,,,,,,,,,,,,,,,,,,,,,,
295309,2022-11-28_17h36.16.527,vts_reward_expectancy_bt,2022.2.4,Win32,59.80861244,Chrome,1280,800,,,a,0.6687,10,80,0,1,4,16,7,1,0,0,1,0,0,1,0,0,hexagon,circle,,,,,,,,,,,,,,,,,,,,,,,,,,,,,,,,,,,,,,,,,,,,,,,,,,,,,,
295309,2022-11-28_17h36.16.527,vts_reward_expectancy_bt,2022.2.4,Win32,59.80861244,Chrome,1280,800,,,a,0.5873,1,81,0,1,5,17,11,1,0,0,0,1,0,0,1,0,star,hexagon,,,,,,,,,,,,,,,,,,,,,,,,,,,,,,,,,,,,,,,,,,,,,,,,,,,,,,
295309,2022-11-28_17h36.16.527,vts_reward_expectancy_bt,2022.2.4,Win32,59.80861244,Chrome,1280,800,,,a,0.6134,10,91,0,1,6,18,8,1,0,0,1,0,0,0,0,1,hexagon,star,,,,,,,,,,,,,,,,,,,,,,,,,,,,,,,,,,,,,,,,,,,,,,,,,,,,,,
295309,2022-11-28_17h36.16.527,vts_reward_expectancy_bt,2022.2.4,Win32,59.80861244,Chrome,1280,800,,,l,0.9506,1,92,0,1,7,19,2,1,1,0,0,0,0,0,0,1,triangle,star,,,,,,,,,,,,,,,,,,,,,,,,,,,,,,,,,,,,,,,,,,,,,,,,,,,,,,
295309,2022-11-28_17h36.16.527,vts_reward_expectancy_bt,2022.2.4,Win32,59.80861244,Chrome,1280,800,,,a,0.5882,1,93,0,1,8,20,10,1,0,0,0,1,0,1,0,0,star ,circle,,,,,,,,,,,,,,,,,,,,,,,,,,,,,,,,,,,,,,,,,,,,,,,,,,,,,,
295309,2022-11-28_17h36.16.527,vts_reward_expectancy_bt,2022.2.4,Win32,59.80861244,Chrome,1280,800,,,a,0.7946,10,103,0,1,9,21,6,1,0,0,1,0,1,0,0,0,hexagon,triangle,,,,,,,,,,,,,,,,,,,,,,,,,,,,,,,,,,,,,,,,,,,,,,,,,,,,,,
295309,2022-11-28_17h36.16.527,vts_reward_expectancy_bt,2022.2.4,Win32,59.80861244,Chrome,1280,800,,,a,0.7497,1,104,0,1,10,22,3,1,0,1,0,0,1,0,0,0,circle,triangle,,,,,,,,,,,,,,,,,,,,,,,,,,,,,,,,,,,,,,,,,,,,,,,,,,,,,,
295309,2022-11-28_17h36.16.527,vts_reward_expectancy_bt,2022.2.4,Win32,59.80861244,Chrome,1280,800,,,l,0.7743,10,114,0,1,11,23,1,1,1,0,0,0,0,0,1,0,triangle,hexagon,,,,,,,,,,,,,,,,,,,,,,,,,,,,,,,,,,,,,,,,,,,,,,,,,,,,,,
295309,2022-11-28_17h36.16.527,vts_reward_expectancy_bt,2022.2.4,Win32,59.80861244,Chrome,1280,800,,,a,0.7315,10,124,0,2,0,24,7,1,0,0,1,0,0,1,0,0,hexagon,circle,,,,,,,,,,,,,,,,,,,,,,,,,,,,,,,,,,,,,,,,,,,,,,,,,,,,,,
295309,2022-11-28_17h36.16.527,vts_reward_expectancy_bt,2022.2.4,Win32,59.80861244,Chrome,1280,800,,,l,1.1171,1,125,0,2,1,25,9,1,0,0,0,1,1,0,0,0,star,triangle,,,,,,,,,,,,,,,,,,,,,,,,,,,,,,,,,,,,,,,,,,,,,,,,,,,,,,
295309,2022-11-28_17h36.16.527,vts_reward_expectancy_bt,2022.2.4,Win32,59.80861244,Chrome,1280,800,,,a,0.4708,1,126,0,2,2,26,11,1,0,0,0,1,0,0,1,0,star,hexagon,,,,,,,,,,,,,,,,,,,,,,,,,,,,,,,,,,,,,,,,,,,,,,,,,,,,,,
295309,2022-11-28_17h36.16.527,vts_reward_expectancy_bt,2022.2.4,Win32,59.80861244,Chrome,1280,800,,,a,0.8165,10,136,0,2,3,27,3,1,0,1,0,0,1,0,0,0,circle,triangle,,,,,,,,,,,,,,,,,,,,,,,,,,,,,,,,,,,,,,,,,,,,,,,,,,,,,,
295309,2022-11-28_17h36.16.527,vts_reward_expectancy_bt,2022.2.4,Win32,59.80861244,Chrome,1280,800,,,l,0.4684,1,137,0,2,4,28,0,1,1,0,0,0,0,1,0,0,triangle,circle,,,,,,,,,,,,,,,,,,,,,,,,,,,,,,,,,,,,,,,,,,,,,,,,,,,,,,
295309,2022-11-28_17h36.16.527,vts_reward_expectancy_bt,2022.2.4,Win32,59.80861244,Chrome,1280,800,,,l,0.9814,10,147,0,2,5,29,10,1,0,0,0,1,0,1,0,0,star ,circle,,,,,,,,,,,,,,,,,,,,,,,,,,,,,,,,,,,,,,,,,,,,,,,,,,,,,,
295309,2022-11-28_17h36.16.527,vts_reward_expectancy_bt,2022.2.4,Win32,59.80861244,Chrome,1280,800,,,a,0.8163,10,157,0,2,6,30,6,1,0,0,1,0,1,0,0,0,hexagon,triangle,,,,,,,,,,,,,,,,,,,,,,,,,,,,,,,,,,,,,,,,,,,,,,,,,,,,,,
295309,2022-11-28_17h36.16.527,vts_reward_expectancy_bt,2022.2.4,Win32,59.80861244,Chrome,1280,800,,,l,0.9651,1,158,0,2,7,31,2,1,1,0,0,0,0,0,0,1,triangle,star,,,,,,,,,,,,,,,,,,,,,,,,,,,,,,,,,,,,,,,,,,,,,,,,,,,,,,
295309,2022-11-28_17h36.16.527,vts_reward_expectancy_bt,2022.2.4,Win32,59.80861244,Chrome,1280,800,,,a,0.5873,10,168,0,2,8,32,1,1,1,0,0,0,0,0,1,0,triangle,hexagon,,,,,,,,,,,,,,,,,,,,,,,,,,,,,,,,,,,,,,,,,,,,,,,,,,,,,,
295309,2022-11-28_17h36.16.527,vts_reward_expectancy_bt,2022.2.4,Win32,59.80861244,Chrome,1280,800,,,a,0.6615,1,169,0,2,9,33,5,1,0,1,0,0,0,0,0,1,circle,star,,,,,,,,,,,,,,,,,,,,,,,,,,,,,,,,,,,,,,,,,,,,,,,,,,,,,,
295309,2022-11-28_17h36.16.527,vts_reward_expectancy_bt,2022.2.4,Win32,59.80861244,Chrome,1280,800,,,a,1.2606,1,170,0,2,10,34,4,1,0,1,0,0,0,0,1,0,circle,hexagon,,,,,,,,,,,,,,,,,,,,,,,,,,,,,,,,,,,,,,,,,,,,,,,,,,,,,,
295309,2022-11-28_17h36.16.527,vts_reward_expectancy_bt,2022.2.4,Win32,59.80861244,Chrome,1280,800,,,a,0.5539,10,180,0,2,11,35,8,1,0,0,1,0,0,0,0,1,hexagon,star,,,,,,,,,,,,,,,,,,,,,,,,,,,,,,,,,,,,,,,,,,,,,,,,,,,,,,
295309,2022-11-28_17h36.16.527,vts_reward_expectancy_bt,2022.2.4,Win32,59.80861244,Chrome,1280,800,,,a,0.9576,10,190,1,0,0,0,1,1,1,0,0,0,0,0,1,0,triangle,hexagon,,,,,,,,,,,,,,,,,,,,,,,,,,,,,,,,,,,,,,,,,,,,,,,,,,,,,,
295309,2022-11-28_17h36.16.527,vts_reward_expectancy_bt,2022.2.4,Win32,59.80861244,Chrome,1280,800,,,l,0.6487,10,200,1,0,1,1,8,1,0,0,1,0,0,0,0,1,hexagon,star,,,,,,,,,,,,,,,,,,,,,,,,,,,,,,,,,,,,,,,,,,,,,,,,,,,,,,
295309,2022-11-28_17h36.16.527,vts_reward_expectancy_bt,2022.2.4,Win32,59.80861244,Chrome,1280,800,,,l,0.2695,10,210,1,0,2,2,6,1,0,0,1,0,1,0,0,0,hexagon,triangle,,,,,,,,,,,,,,,,,,,,,,,,,,,,,,,,,,,,,,,,,,,,,,,,,,,,,,
295309,2022-11-28_17h36.16.527,vts_reward_expectancy_bt,2022.2.4,Win32,59.80861244,Chrome,1280,800,,,l,0.4883,1,211,1,0,3,3,5,1,0,1,0,0,0,0,0,1,circle,star,,,,,,,,,,,,,,,,,,,,,,,,,,,,,,,,,,,,,,,,,,,,,,,,,,,,,,
295309,2022-11-28_17h36.16.527,vts_reward_expectancy_bt,2022.2.4,Win32,59.80861244,Chrome,1280,800,,,l,0.6258,10,221,1,0,4,4,4,1,0,1,0,0,0,0,1,0,circle,hexagon,,,,,,,,,,,,,,,,,,,,,,,,,,,,,,,,,,,,,,,,,,,,,,,,,,,,,,
295309,2022-11-28_17h36.16.527,vts_reward_expectancy_bt,2022.2.4,Win32,59.80861244,Chrome,1280,800,,,l,0.7557,10,231,1,0,5,5,2,1,1,0,0,0,0,0,0,1,triangle,star,,,,,,,,,,,,,,,,,,,,,,,,,,,,,,,,,,,,,,,,,,,,,,,,,,,,,,
295309,2022-11-28_17h36.16.527,vts_reward_expectancy_bt,2022.2.4,Win32,59.80861244,Chrome,1280,800,,,l,0.5869,10,241,1,0,6,6,7,1,0,0,1,0,0,1,0,0,hexagon,circle,,,,,,,,,,,,,,,,,,,,,,,,,,,,,,,,,,,,,,,,,,,,,,,,,,,,,,
295309,2022-11-28_17h36.16.527,vts_reward_expectancy_bt,2022.2.4,Win32,59.80861244,Chrome,1280,800,,,l,0.4857,1,242,1,0,7,7,0,1,1,0,0,0,0,1,0,0,triangle,circle,,,,,,,,,,,,,,,,,,,,,,,,,,,,,,,,,,,,,,,,,,,,,,,,,,,,,,
295309,2022-11-28_17h36.16.527,vts_reward_expectancy_bt,2022.2.4,Win32,59.80861244,Chrome,1280,800,,,a,1.3014,10,252,1,0,8,8,3,1,0,1,0,0,1,0,0,0,circle,triangle,,,,,,,,,,,,,,,,,,,,,,,,,,,,,,,,,,,,,,,,,,,,,,,,,,,,,,
295309,2022-11-28_17h36.16.527,vts_reward_expectancy_bt,2022.2.4,Win32,59.80861244,Chrome,1280,800,,,l,1.9925,10,262,1,0,9,9,11,1,0,0,0,1,0,0,1,0,star,hexagon,,,,,,,,,,,,,,,,,,,,,,,,,,,,,,,,,,,,,,,,,,,,,,,,,,,,,,
295309,2022-11-28_17h36.16.527,vts_reward_expectancy_bt,2022.2.4,Win32,59.80861244,Chrome,1280,800,,,l,0.9726,1,263,1,0,10,10,9,1,0,0,0,1,1,0,0,0,star,triangle,,,,,,,,,,,,,,,,,,,,,,,,,,,,,,,,,,,,,,,,,,,,,,,,,,,,,,
295309,2022-11-28_17h36.16.527,vts_reward_expectancy_bt,2022.2.4,Win32,59.80861244,Chrome,1280,800,,,l,0.6688,1,264,1,0,11,11,10,1,0,0,0,1,0,1,0,0,star ,circle,,,,,,,,,,,,,,,,,,,,,,,,,,,,,,,,,,,,,,,,,,,,,,,,,,,,,,
295309,2022-11-28_17h36.16.527,vts_reward_expectancy_bt,2022.2.4,Win32,59.80861244,Chrome,1280,800,,,l,1.0337,10,274,1,1,0,12,4,1,0,1,0,0,0,0,1,0,circle,hexagon,,,,,,,,,,,,,,,,,,,,,,,,,,,,,,,,,,,,,,,,,,,,,,,,,,,,,,
295309,2022-11-28_17h36.16.527,vts_reward_expectancy_bt,2022.2.4,Win32,59.80861244,Chrome,1280,800,,,l,2.2533,1,275,1,1,1,13,2,1,1,0,0,0,0,0,0,1,triangle,star,,,,,,,,,,,,,,,,,,,,,,,,,,,,,,,,,,,,,,,,,,,,,,,,,,,,,,
295309,2022-11-28_17h36.16.527,vts_reward_expectancy_bt,2022.2.4,Win32,59.80861244,Chrome,1280,800,,,l,0.8252,1,276,1,1,2,14,0,1,1,0,0,0,0,1,0,0,triangle,circle,,,,,,,,,,,,,,,,,,,,,,,,,,,,,,,,,,,,,,,,,,,,,,,,,,,,,,
295309,2022-11-28_17h36.16.527,vts_reward_expectancy_bt,2022.2.4,Win32,59.80861244,Chrome,1280,800,,,a,0.9679,1,277,1,1,3,15,3,1,0,1,0,0,1,0,0,0,circle,triangle,,,,,,,,,,,,,,,,,,,,,,,,,,,,,,,,,,,,,,,,,,,,,,,,,,,,,,
295309,2022-11-28_17h36.16.527,vts_reward_expectancy_bt,2022.2.4,Win32,59.80861244,Chrome,1280,800,,,l,1.0463,1,278,1,1,4,16,9,1,0,0,0,1,1,0,0,0,star,triangle,,,,,,,,,,,,,,,,,,,,,,,,,,,,,,,,,,,,,,,,,,,,,,,,,,,,,,
295309,2022-11-28_17h36.16.527,vts_reward_expectancy_bt,2022.2.4,Win32,59.80861244,Chrome,1280,800,,,l,1.7906,1,279,1,1,5,17,10,1,0,0,0,1,0,1,0,0,star ,circle,,,,,,,,,,,,,,,,,,,,,,,,,,,,,,,,,,,,,,,,,,,,,,,,,,,,,,
295309,2022-11-28_17h36.16.527,vts_reward_expectancy_bt,2022.2.4,Win32,59.80861244,Chrome,1280,800,,,l,0.574,1,280,1,1,6,18,11,1,0,0,0,1,0,0,1,0,star,hexagon,,,,,,,,,,,,,,,,,,,,,,,,,,,,,,,,,,,,,,,,,,,,,,,,,,,,,,
295309,2022-11-28_17h36.16.527,vts_reward_expectancy_bt,2022.2.4,Win32,59.80861244,Chrome,1280,800,,,l,0.6426,10,290,1,1,7,19,5,1,0,1,0,0,0,0,0,1,circle,star,,,,,,,,,,,,,,,,,,,,,,,,,,,,,,,,,,,,,,,,,,,,,,,,,,,,,,
295309,2022-11-28_17h36.16.527,vts_reward_expectancy_bt,2022.2.4,Win32,59.80861244,Chrome,1280,800,,,l,0.8378,10,300,1,1,8,20,1,1,1,0,0,0,0,0,1,0,triangle,hexagon,,,,,,,,,,,,,,,,,,,,,,,,,,,,,,,,,,,,,,,,,,,,,,,,,,,,,,
295309,2022-11-28_17h36.16.527,vts_reward_expectancy_bt,2022.2.4,Win32,59.80861244,Chrome,1280,800,,,a,0.8595,10,310,1,1,9,21,6,1,0,0,1,0,1,0,0,0,hexagon,triangle,,,,,,,,,,,,,,,,,,,,,,,,,,,,,,,,,,,,,,,,,,,,,,,,,,,,,,
295309,2022-11-28_17h36.16.527,vts_reward_expectancy_bt,2022.2.4,Win32,59.80861244,Chrome,1280,800,,,l,0.8332,1,311,1,1,10,22,7,1,0,0,1,0,0,1,0,0,hexagon,circle,,,,,,,,,,,,,,,,,,,,,,,,,,,,,,,,,,,,,,,,,,,,,,,,,,,,,,
295309,2022-11-28_17h36.16.527,vts_reward_expectancy_bt,2022.2.4,Win32,59.80861244,Chrome,1280,800,,,a,0.9842,10,321,1,1,11,23,8,1,0,0,1,0,0,0,0,1,hexagon,star,,,,,,,,,,,,,,,,,,,,,,,,,,,,,,,,,,,,,,,,,,,,,,,,,,,,,,
295309,2022-11-28_17h36.16.527,vts_reward_expectancy_bt,2022.2.4,Win32,59.80861244,Chrome,1280,800,,,l,0.6004,10,331,1,2,0,24,3,1,0,1,0,0,1,0,0,0,circle,triangle,,,,,,,,,,,,,,,,,,,,,,,,,,,,,,,,,,,,,,,,,,,,,,,,,,,,,,
295309,2022-11-28_17h36.16.527,vts_reward_expectancy_bt,2022.2.4,Win32,59.80861244,Chrome,1280,800,,,a,1.1832,1,332,1,2,1,25,11,1,0,0,0,1,0,0,1,0,star,hexagon,,,,,,,,,,,,,,,,,,,,,,,,,,,,,,,,,,,,,,,,,,,,,,,,,,,,,,
295309,2022-11-28_17h36.16.527,vts_reward_expectancy_bt,2022.2.4,Win32,59.80861244,Chrome,1280,800,,,l,0.6694,10,342,1,2,2,26,4,1,0,1,0,0,0,0,1,0,circle,hexagon,,,,,,,,,,,,,,,,,,,,,,,,,,,,,,,,,,,,,,,,,,,,,,,,,,,,,,
295309,2022-11-28_17h36.16.527,vts_reward_expectancy_bt,2022.2.4,Win32,59.80861244,Chrome,1280,800,,,l,6.1835,1,343,1,2,3,27,5,1,0,1,0,0,0,0,0,1,circle,star,,,,,,,,,,,,,,,,,,,,,,,,,,,,,,,,,,,,,,,,,,,,,,,,,,,,,,
295309,2022-11-28_17h36.16.527,vts_reward_expectancy_bt,2022.2.4,Win32,59.80861244,Chrome,1280,800,,,l,0.5535,10,353,1,2,4,28,6,1,0,0,1,0,1,0,0,0,hexagon,triangle,,,,,,,,,,,,,,,,,,,,,,,,,,,,,,,,,,,,,,,,,,,,,,,,,,,,,,
295309,2022-11-28_17h36.16.527,vts_reward_expectancy_bt,2022.2.4,Win32,59.80861244,Chrome,1280,800,,,a,1.2024,10,363,1,2,5,29,0,1,1,0,0,0,0,1,0,0,triangle,circle,,,,,,,,,,,,,,,,,,,,,,,,,,,,,,,,,,,,,,,,,,,,,,,,,,,,,,
295309,2022-11-28_17h36.16.527,vts_reward_expectancy_bt,2022.2.4,Win32,59.80861244,Chrome,1280,800,,,a,1.1445,10,373,1,2,6,30,7,1,0,0,1,0,0,1,0,0,hexagon,circle,,,,,,,,,,,,,,,,,,,,,,,,,,,,,,,,,,,,,,,,,,,,,,,,,,,,,,
295309,2022-11-28_17h36.16.527,vts_reward_expectancy_bt,2022.2.4,Win32,59.80861244,Chrome,1280,800,,,l,2.7001,1,374,1,2,7,31,8,1,0,0,1,0,0,0,0,1,hexagon,star,,,,,,,,,,,,,,,,,,,,,,,,,,,,,,,,,,,,,,,,,,,,,,,,,,,,,,
295309,2022-11-28_17h36.16.527,vts_reward_expectancy_bt,2022.2.4,Win32,59.80861244,Chrome,1280,800,,,a,2.1017,1,375,1,2,8,32,10,1,0,0,0,1,0,1,0,0,star ,circle,,,,,,,,,,,,,,,,,,,,,,,,,,,,,,,,,,,,,,,,,,,,,,,,,,,,,,
295309,2022-11-28_17h36.16.527,vts_reward_expectancy_bt,2022.2.4,Win32,59.80861244,Chrome,1280,800,,,l,3.3451,10,385,1,2,9,33,1,1,1,0,0,0,0,0,1,0,triangle,hexagon,,,,,,,,,,,,,,,,,,,,,,,,,,,,,,,,,,,,,,,,,,,,,,,,,,,,,,
295309,2022-11-28_17h36.16.527,vts_reward_expectancy_bt,2022.2.4,Win32,59.80861244,Chrome,1280,800,,,l,1.7526,1,386,1,2,10,34,9,1,0,0,0,1,1,0,0,0,star,triangle,,,,,,,,,,,,,,,,,,,,,,,,,,,,,,,,,,,,,,,,,,,,,,,,,,,,,,
295309,2022-11-28_17h36.16.527,vts_reward_expectancy_bt,2022.2.4,Win32,59.80861244,Chrome,1280,800,,,l,1.451,1,387,1,2,11,35,2,1,1,0,0,0,0,0,0,1,triangle,star,,,,,,,,,,,,,,,,,,,,,,,,,,,,,,,,,,,,,,,,,,,,,,,,,,,,,,
295309,2022-11-28_17h36.16.527,vts_reward_expectancy_bt,2022.2.4,Win32,59.80861244,Chrome,1280,800,,,a,2.6232,1,388,2,0,0,0,0,1,1,0,0,0,0,1,0,0,triangle,circle,,,,,,,,,,,,,,,,,,,,,,,,,,,,,,,,,,,,,,,,,,,,,,,,,,,,,,
295309,2022-11-28_17h36.16.527,vts_reward_expectancy_bt,2022.2.4,Win32,59.80861244,Chrome,1280,800,,,l,0.4566,10,398,2,0,1,1,1,1,1,0,0,0,0,0,1,0,triangle,hexagon,,,,,,,,,,,,,,,,,,,,,,,,,,,,,,,,,,,,,,,,,,,,,,,,,,,,,,
295309,2022-11-28_17h36.16.527,vts_reward_expectancy_bt,2022.2.4,Win32,59.80861244,Chrome,1280,800,,,a,1.1146,1,399,2,0,2,2,9,1,0,0,0,1,1,0,0,0,star,triangle,,,,,,,,,,,,,,,,,,,,,,,,,,,,,,,,,,,,,,,,,,,,,,,,,,,,,,
295309,2022-11-28_17h36.16.527,vts_reward_expectancy_bt,2022.2.4,Win32,59.80861244,Chrome,1280,800,,,l,0.9203,1,400,2,0,3,3,5,1,0,1,0,0,0,0,0,1,circle,star,,,,,,,,,,,,,,,,,,,,,,,,,,,,,,,,,,,,,,,,,,,,,,,,,,,,,,
295309,2022-11-28_17h36.16.527,vts_reward_expectancy_bt,2022.2.4,Win32,59.80861244,Chrome,1280,800,,,l,3.1156,10,410,2,0,4,4,6,1,0,0,1,0,1,0,0,0,hexagon,triangle,,,,,,,,,,,,,,,,,,,,,,,,,,,,,,,,,,,,,,,,,,,,,,,,,,,,,,
295309,2022-11-28_17h36.16.527,vts_reward_expectancy_bt,2022.2.4,Win32,59.80861244,Chrome,1280,800,,,a,2.6347,10,420,2,0,5,5,10,1,0,0,0,1,0,1,0,0,star ,circle,,,,,,,,,,,,,,,,,,,,,,,,,,,,,,,,,,,,,,,,,,,,,,,,,,,,,,
295309,2022-11-28_17h36.16.527,vts_reward_expectancy_bt,2022.2.4,Win32,59.80861244,Chrome,1280,800,,,l,0.6193,1,421,2,0,6,6,8,1,0,0,1,0,0,0,0,1,hexagon,star,,,,,,,,,,,,,,,,,,,,,,,,,,,,,,,,,,,,,,,,,,,,,,,,,,,,,,
295309,2022-11-28_17h36.16.527,vts_reward_expectancy_bt,2022.2.4,Win32,59.80861244,Chrome,1280,800,,,l,0.9157,10,431,2,0,7,7,3,1,0,1,0,0,1,0,0,0,circle,triangle,,,,,,,,,,,,,,,,,,,,,,,,,,,,,,,,,,,,,,,,,,,,,,,,,,,,,,
295309,2022-11-28_17h36.16.527,vts_reward_expectancy_bt,2022.2.4,Win32,59.80861244,Chrome,1280,800,,,l,0.7853,10,441,2,0,8,8,4,1,0,1,0,0,0,0,1,0,circle,hexagon,,,,,,,,,,,,,,,,,,,,,,,,,,,,,,,,,,,,,,,,,,,,,,,,,,,,,,
295309,2022-11-28_17h36.16.527,vts_reward_expectancy_bt,2022.2.4,Win32,59.80861244,Chrome,1280,800,,,l,1.7702,1,442,2,0,9,9,7,1,0,0,1,0,0,1,0,0,hexagon,circle,,,,,,,,,,,,,,,,,,,,,,,,,,,,,,,,,,,,,,,,,,,,,,,,,,,,,,
295309,2022-11-28_17h36.16.527,vts_reward_expectancy_bt,2022.2.4,Win32,59.80861244,Chrome,1280,800,,,l,0.9541,1,443,2,0,10,10,2,1,1,0,0,0,0,0,0,1,triangle,star,,,,,,,,,,,,,,,,,,,,,,,,,,,,,,,,,,,,,,,,,,,,,,,,,,,,,,
295309,2022-11-28_17h36.16.527,vts_reward_expectancy_bt,2022.2.4,Win32,59.80861244,Chrome,1280,800,,,l,1.7099,10,453,2,0,11,11,11,1,0,0,0,1,0,0,1,0,star,hexagon,,,,,,,,,,,,,,,,,,,,,,,,,,,,,,,,,,,,,,,,,,,,,,,,,,,,,,
295309,2022-11-28_17h36.16.527,vts_reward_expectancy_bt,2022.2.4,Win32,59.80861244,Chrome,1280,800,,,a,1.3603,10,463,2,1,0,12,7,1,0,0,1,0,0,1,0,0,hexagon,circle,,,,,,,,,,,,,,,,,,,,,,,,,,,,,,,,,,,,,,,,,,,,,,,,,,,,,,
295309,2022-11-28_17h36.16.527,vts_reward_expectancy_bt,2022.2.4,Win32,59.80861244,Chrome,1280,800,,,l,1.439,10,473,2,1,1,13,11,1,0,0,0,1,0,0,1,0,star,hexagon,,,,,,,,,,,,,,,,,,,,,,,,,,,,,,,,,,,,,,,,,,,,,,,,,,,,,,
295309,2022-11-28_17h36.16.527,vts_reward_expectancy_bt,2022.2.4,Win32,59.80861244,Chrome,1280,800,,,l,2.474,10,483,2,1,2,14,4,1,0,1,0,0,0,0,1,0,circle,hexagon,,,,,,,,,,,,,,,,,,,,,,,,,,,,,,,,,,,,,,,,,,,,,,,,,,,,,,
295309,2022-11-28_17h36.16.527,vts_reward_expectancy_bt,2022.2.4,Win32,59.80861244,Chrome,1280,800,,,a,1.2062,1,484,2,1,3,15,8,1,0,0,1,0,0,0,0,1,hexagon,star,,,,,,,,,,,,,,,,,,,,,,,,,,,,,,,,,,,,,,,,,,,,,,,,,,,,,,
295309,2022-11-28_17h36.16.527,vts_reward_expectancy_bt,2022.2.4,Win32,59.80861244,Chrome,1280,800,,,a,1.6704,10,494,2,1,4,16,0,1,1,0,0,0,0,1,0,0,triangle,circle,,,,,,,,,,,,,,,,,,,,,,,,,,,,,,,,,,,,,,,,,,,,,,,,,,,,,,
295309,2022-11-28_17h36.16.527,vts_reward_expectancy_bt,2022.2.4,Win32,59.80861244,Chrome,1280,800,,,a,1.3383,10,504,2,1,5,17,2,1,1,0,0,0,0,0,0,1,triangle,star,,,,,,,,,,,,,,,,,,,,,,,,,,,,,,,,,,,,,,,,,,,,,,,,,,,,,,
295309,2022-11-28_17h36.16.527,vts_reward_expectancy_bt,2022.2.4,Win32,59.80861244,Chrome,1280,800,,,l,0.6859,10,514,2,1,6,18,9,1,0,0,0,1,1,0,0,0,star,triangle,,,,,,,,,,,,,,,,,,,,,,,,,,,,,,,,,,,,,,,,,,,,,,,,,,,,,,
295309,2022-11-28_17h36.16.527,vts_reward_expectancy_bt,2022.2.4,Win32,59.80861244,Chrome,1280,800,,,a,1.1181,1,515,2,1,7,19,6,1,0,0,1,0,1,0,0,0,hexagon,triangle,,,,,,,,,,,,,,,,,,,,,,,,,,,,,,,,,,,,,,,,,,,,,,,,,,,,,,
295309,2022-11-28_17h36.16.527,vts_reward_expectancy_bt,2022.2.4,Win32,59.80861244,Chrome,1280,800,,,l,1.3508,10,525,2,1,8,20,3,1,0,1,0,0,1,0,0,0,circle,triangle,,,,,,,,,,,,,,,,,,,,,,,,,,,,,,,,,,,,,,,,,,,,,,,,,,,,,,
295309,2022-11-28_17h36.16.527,vts_reward_expectancy_bt,2022.2.4,Win32,59.80861244,Chrome,1280,800,,,l,1.0344,1,526,2,1,9,21,10,1,0,0,0,1,0,1,0,0,star ,circle,,,,,,,,,,,,,,,,,,,,,,,,,,,,,,,,,,,,,,,,,,,,,,,,,,,,,,
295309,2022-11-28_17h36.16.527,vts_reward_expectancy_bt,2022.2.4,Win32,59.80861244,Chrome,1280,800,,,l,1.0171,1,527,2,1,10,22,1,1,1,0,0,0,0,0,1,0,triangle,hexagon,,,,,,,,,,,,,,,,,,,,,,,,,,,,,,,,,,,,,,,,,,,,,,,,,,,,,,
295309,2022-11-28_17h36.16.527,vts_reward_expectancy_bt,2022.2.4,Win32,59.80861244,Chrome,1280,800,,,a,1.5158,1,528,2,1,11,23,5,1,0,1,0,0,0,0,0,1,circle,star,,,,,,,,,,,,,,,,,,,,,,,,,,,,,,,,,,,,,,,,,,,,,,,,,,,,,,
295309,2022-11-28_17h36.16.527,vts_reward_expectancy_bt,2022.2.4,Win32,59.80861244,Chrome,1280,800,,,l,0.7244,10,538,2,2,0,24,9,1,0,0,0,1,1,0,0,0,star,triangle,,,,,,,,,,,,,,,,,,,,,,,,,,,,,,,,,,,,,,,,,,,,,,,,,,,,,,
295309,2022-11-28_17h36.16.527,vts_reward_expectancy_bt,2022.2.4,Win32,59.80861244,Chrome,1280,800,,,a,6.355,1,539,2,2,1,25,6,1,0,0,1,0,1,0,0,0,hexagon,triangle,,,,,,,,,,,,,,,,,,,,,,,,,,,,,,,,,,,,,,,,,,,,,,,,,,,,,,
295309,2022-11-28_17h36.16.527,vts_reward_expectancy_bt,2022.2.4,Win32,59.80861244,Chrome,1280,800,,,l,0.7516,1,540,2,2,2,26,10,1,0,0,0,1,0,1,0,0,star ,circle,,,,,,,,,,,,,,,,,,,,,,,,,,,,,,,,,,,,,,,,,,,,,,,,,,,,,,
295309,2022-11-28_17h36.16.527,vts_reward_expectancy_bt,2022.2.4,Win32,59.80861244,Chrome,1280,800,,,l,0.2705,10,550,2,2,3,27,7,1,0,0,1,0,0,1,0,0,hexagon,circle,,,,,,,,,,,,,,,,,,,,,,,,,,,,,,,,,,,,,,,,,,,,,,,,,,,,,,
295309,2022-11-28_17h36.16.527,vts_reward_expectancy_bt,2022.2.4,Win32,59.80861244,Chrome,1280,800,,,l,0.4336,10,560,2,2,4,28,11,1,0,0,0,1,0,0,1,0,star,hexagon,,,,,,,,,,,,,,,,,,,,,,,,,,,,,,,,,,,,,,,,,,,,,,,,,,,,,,
295309,2022-11-28_17h36.16.527,vts_reward_expectancy_bt,2022.2.4,Win32,59.80861244,Chrome,1280,800,,,a,1.6666,1,561,2,2,5,29,4,1,0,1,0,0,0,0,1,0,circle,hexagon,,,,,,,,,,,,,,,,,,,,,,,,,,,,,,,,,,,,,,,,,,,,,,,,,,,,,,
295309,2022-11-28_17h36.16.527,vts_reward_expectancy_bt,2022.2.4,Win32,59.80861244,Chrome,1280,800,,,l,0.825,10,571,2,2,6,30,1,1,1,0,0,0,0,0,1,0,triangle,hexagon,,,,,,,,,,,,,,,,,,,,,,,,,,,,,,,,,,,,,,,,,,,,,,,,,,,,,,
295309,2022-11-28_17h36.16.527,vts_reward_expectancy_bt,2022.2.4,Win32,59.80861244,Chrome,1280,800,,,l,0.6061,1,572,2,2,7,31,0,1,1,0,0,0,0,1,0,0,triangle,circle,,,,,,,,,,,,,,,,,,,,,,,,,,,,,,,,,,,,,,,,,,,,,,,,,,,,,,
295309,2022-11-28_17h36.16.527,vts_reward_expectancy_bt,2022.2.4,Win32,59.80861244,Chrome,1280,800,,,l,0.7504,1,573,2,2,8,32,5,1,0,1,0,0,0,0,0,1,circle,star,,,,,,,,,,,,,,,,,,,,,,,,,,,,,,,,,,,,,,,,,,,,,,,,,,,,,,
295309,2022-11-28_17h36.16.527,vts_reward_expectancy_bt,2022.2.4,Win32,59.80861244,Chrome,1280,800,,,a,2.1012,10,583,2,2,9,33,8,1,0,0,1,0,0,0,0,1,hexagon,star,,,,,,,,,,,,,,,,,,,,,,,,,,,,,,,,,,,,,,,,,,,,,,,,,,,,,,
295309,2022-11-28_17h36.16.527,vts_reward_expectancy_bt,2022.2.4,Win32,59.80861244,Chrome,1280,800,,,a,3.6669,1,584,2,2,10,34,2,1,1,0,0,0,0,0,0,1,triangle,star,,,,,,,,,,,,,,,,,,,,,,,,,,,,,,,,,,,,,,,,,,,,,,,,,,,,,,
295309,2022-11-28_17h36.16.527,vts_reward_expectancy_bt,2022.2.4,Win32,59.80861244,Chrome,1280,800,,,l,0.701,10,594,2,2,11,35,3,1,0,1,0,0,1,0,0,0,circle,triangle,,,,,,,,,,,,,,,,,,,,,,,,,,,,,,,,,,,,,,,,,,,,,,,,,,,,,,
295309,2022-11-28_17h36.16.527,vts_reward_expectancy_bt,2022.2.4,Win32,59.80861244,Chrome,1280,800,,,,,,,,,,,,,,,,,,,,,,,H,146,triangle,0,0,,0,0,0,0,0,1,,,,,,,,,,,,,,,,,,,,,,,,,,,,,,,,,,,,,,,,,,
295309,2022-11-28_17h36.16.527,vts_reward_expectancy_bt,2022.2.4,Win32,59.80861244,Chrome,1280,800,,,,,,,,,,,,,,,,,,,,,,,F,174,star,0,1,,0,1,0,1,0,1,,,,,,,,,,,,,,,,,,,,,,,,,,,,,,,,,,,,,,,,,,
295309,2022-11-28_17h36.16.527,vts_reward_expectancy_bt,2022.2.4,Win32,59.80861244,Chrome,1280,800,,,,,,,,,,,,,,,,,,,,,,,B,160,circle,0,1,,0,2,0,2,0,1,,,,,,,,,,,,,,,,,,,,,,,,,,,,,,,,,,,,,,,,,,
295309,2022-11-28_17h36.16.527,vts_reward_expectancy_bt,2022.2.4,Win32,59.80861244,Chrome,1280,800,,,,,,,,,,,,,,,,,,,,,,,Y,125,hexagon,0,1,,0,3,0,3,0,1,,,,,,,,,,,,,,,,,,,,,,,,,,,,,,,,,,,,,,,,,,
295309,2022-11-28_17h36.16.527,vts_reward_expectancy_bt,2022.2.4,Win32,59.80861244,Chrome,1280,800,,,,,,,,,,,,,,,,,,,,,,,D,132,triangle,0,1,,0,4,0,4,0,1,,,,,,,,,,,,,,,,,,,,,,,,,,,,,,,,,,,,,,,,,,
295309,2022-11-28_17h36.16.527,vts_reward_expectancy_bt,2022.2.4,Win32,59.80861244,Chrome,1280,800,,,,,,,,,,,,,,,,,,,,,,,W,139,star,0,1,d,0,5,0,5,0,1,0.3841,,,,,,,,,,,,,,,,,,,,,,,,,,,,,,,,,,,,,,,,,
295309,2022-11-28_17h36.16.527,vts_reward_expectancy_bt,2022.2.4,Win32,59.80861244,Chrome,1280,800,,,,,,,,,,,,,,,,,,,,,,,U,181,circle,0,1,,0,6,0,6,0,1,,,,,,,,,,,,,,,,,,,,,,,,,,,,,,,,,,,,,,,,,,
295309,2022-11-28_17h36.16.527,vts_reward_expectancy_bt,2022.2.4,Win32,59.80861244,Chrome,1280,800,,,,,,,,,,,,,,,,,,,,,,,S,167,hexagon,0,1,,0,7,0,7,0,1,,,,,,,,,,,,,,,,,,,,,,,,,,,,,,,,,,,,,,,,,,
295309,2022-11-28_17h36.16.527,vts_reward_expectancy_bt,2022.2.4,Win32,59.80861244,Chrome,1280,800,,,,,,,,,,,,,,,,,,,,,,,H,146,hexagon,0,1,,0,8,0,8,0,1,,,,,,,,,,,,,,,,,,,,,,,,,,,,,,,,,,,,,,,,,,
295309,2022-11-28_17h36.16.527,vts_reward_expectancy_bt,2022.2.4,Win32,59.80861244,Chrome,1280,800,,,,,,,,,,,,,,,,,,,,,,,F,174,circle,0,1,,0,9,0,9,0,1,,,,,,,,,,,,,,,,,,,,,,,,,,,,,,,,,,,,,,,,,,
295309,2022-11-28_17h36.16.527,vts_reward_expectancy_bt,2022.2.4,Win32,59.80861244,Chrome,1280,800,,,,,,,,,,,,,,,,,,,,,,,H,139,triangle,1,1,d,1,0,0,0,0,1,0.7147,,,,,,,,,,,,,,,,,,,,,,,,,,,,,,,,,,,,,,,,,
295309,2022-11-28_17h36.16.527,vts_reward_expectancy_bt,2022.2.4,Win32,59.80861244,Chrome,1280,800,,,,,,,,,,,,,,,,,,,,,,,W,181,circle,1,0,f,1,1,0,1,0,1,0.6533,,,,,,,,,,,,,,,,,,,,,,,,,,,,,,,,,,,,,,,,,
295309,2022-11-28_17h36.16.527,vts_reward_expectancy_bt,2022.2.4,Win32,59.80861244,Chrome,1280,800,,,,,,,,,,,,,,,,,,,,,,,D,132,hexagon,1,0,d,1,2,0,2,0,1,0.7416,,,,,,,,,,,,,,,,,,,,,,,,,,,,,,,,,,,,,,,,,
295309,2022-11-28_17h36.16.527,vts_reward_expectancy_bt,2022.2.4,Win32,59.80861244,Chrome,1280,800,,,,,,,,,,,,,,,,,,,,,,,Y,167,star,1,0,f,1,3,0,3,0,1,0.8145,,,,,,,,,,,,,,,,,,,,,,,,,,,,,,,,,,,,,,,,,
295309,2022-11-28_17h36.16.527,vts_reward_expectancy_bt,2022.2.4,Win32,59.80861244,Chrome,1280,800,,,,,,,,,,,,,,,,,,,,,,,U,160,triangle,0,0,d,1,4,0,4,0,1,0.7313,,,,,,,,,,,,,,,,,,,,,,,,,,,,,,,,,,,,,,,,,
295309,2022-11-28_17h36.16.527,vts_reward_expectancy_bt,2022.2.4,Win32,59.80861244,Chrome,1280,800,,,,,,,,,,,,,,,,,,,,,,,F,174,circle,1,1,d,1,5,0,5,0,1,0.9146,,,,,,,,,,,,,,,,,,,,,,,,,,,,,,,,,,,,,,,,,
295309,2022-11-28_17h36.16.527,vts_reward_expectancy_bt,2022.2.4,Win32,59.80861244,Chrome,1280,800,,,,,,,,,,,,,,,,,,,,,,,B,146,hexagon,1,0,d,1,6,0,6,0,1,0.771,,,,,,,,,,,,,,,,,,,,,,,,,,,,,,,,,,,,,,,,,
295309,2022-11-28_17h36.16.527,vts_reward_expectancy_bt,2022.2.4,Win32,59.80861244,Chrome,1280,800,,,,,,,,,,,,,,,,,,,,,,,S,125,star,1,0,f,1,7,0,7,0,1,2.1559,,,,,,,,,,,,,,,,,,,,,,,,,,,,,,,,,,,,,,,,,
295309,2022-11-28_17h36.16.527,vts_reward_expectancy_bt,2022.2.4,Win32,59.80861244,Chrome,1280,800,,,,,,,,,,,,,,,,,,,,,,,H,139,star,1,0,d,1,8,0,8,0,1,1.0036,,,,,,,,,,,,,,,,,,,,,,,,,,,,,,,,,,,,,,,,,
295309,2022-11-28_17h36.16.527,vts_reward_expectancy_bt,2022.2.4,Win32,59.80861244,Chrome,1280,800,,,,,,,,,,,,,,,,,,,,,,,W,181,hexagon,1,0,f,1,9,0,9,0,1,0.7459,,,,,,,,,,,,,,,,,,,,,,,,,,,,,,,,,,,,,,,,,
295309,2022-11-28_17h36.16.527,vts_reward_expectancy_bt,2022.2.4,Win32,59.80861244,Chrome,1280,800,,,,,,,,,,,,,,,,,,,,,,,D,181,star,1,0,,2,,,,,,,k,1.5531,0,0,0,0,1,,,,,,,,,,,,,,,,,,,,,,,,,,,,,,,,,,
295309,2022-11-28_17h36.16.527,vts_reward_expectancy_bt,2022.2.4,Win32,59.80861244,Chrome,1280,800,,,,,,,,,,,,,,,,,,,,,,,S,167,hexagon,1,0,,2,,,,,,,k,0.6979,1,0,1,0,1,,,,,,,,,,,,,,,,,,,,,,,,,,,,,,,,,,
295309,2022-11-28_17h36.16.527,vts_reward_expectancy_bt,2022.2.4,Win32,59.80861244,Chrome,1280,800,,,,,,,,,,,,,,,,,,,,,,,Y,125,circle,1,0,,2,,,,,,,j,0.9505,2,0,2,0,1,,,,,,,,,,,,,,,,,,,,,,,,,,,,,,,,,,
295309,2022-11-28_17h36.16.527,vts_reward_expectancy_bt,2022.2.4,Win32,59.80861244,Chrome,1280,800,,,,,,,,,,,,,,,,,,,,,,,W,132,triangle,1,0,,2,,,,,,,j,1.1657,3,0,3,0,1,,,,,,,,,,,,,,,,,,,,,,,,,,,,,,,,,,
295309,2022-11-28_17h36.16.527,vts_reward_expectancy_bt,2022.2.4,Win32,59.80861244,Chrome,1280,800,,,,,,,,,,,,,,,,,,,,,,,F,139,star,1,0,,2,,,,,,,j,0.9317,4,0,4,0,1,,,,,,,,,,,,,,,,,,,,,,,,,,,,,,,,,,
295309,2022-11-28_17h36.16.527,vts_reward_expectancy_bt,2022.2.4,Win32,59.80861244,Chrome,1280,800,,,,,,,,,,,,,,,,,,,,,,,B,146,hexagon,1,0,,2,,,,,,,j,0.6631,5,0,5,0,1,,,,,,,,,,,,,,,,,,,,,,,,,,,,,,,,,,
295309,2022-11-28_17h36.16.527,vts_reward_expectancy_bt,2022.2.4,Win32,59.80861244,Chrome,1280,800,,,,,,,,,,,,,,,,,,,,,,,H,174,circle,1,0,,2,,,,,,,k,0.6639,6,0,6,0,1,,,,,,,,,,,,,,,,,,,,,,,,,,,,,,,,,,
295309,2022-11-28_17h36.16.527,vts_reward_expectancy_bt,2022.2.4,Win32,59.80861244,Chrome,1280,800,,,,,,,,,,,,,,,,,,,,,,,U,160,triangle,1,0,,2,,,,,,,k,1.0555,7,0,7,0,1,,,,,,,,,,,,,,,,,,,,,,,,,,,,,,,,,,
295309,2022-11-28_17h36.16.527,vts_reward_expectancy_bt,2022.2.4,Win32,59.80861244,Chrome,1280,800,,,,,,,,,,,,,,,,,,,,,,,D,181,triangle,0,0,,2,,,,,,,j,1.0134,8,0,8,0,1,,,,,,,,,,,,,,,,,,,,,,,,,,,,,,,,,,
295309,2022-11-28_17h36.16.527,vts_reward_expectancy_bt,2022.2.4,Win32,59.80861244,Chrome,1280,800,,,,,,,,,,,,,,,,,,,,,,,S,167,hexagon,1,1,,2,,,,,,,k,0.7144,9,0,9,0,1,,,,,,,,,,,,,,,,,,,,,,,,,,,,,,,,,,
295309,2022-11-28_17h36.16.527,vts_reward_expectancy_bt,2022.2.4,Win32,59.80861244,Chrome,1280,800,,,,,0,594,,,,,,,,,,,,,,,,,W,181,circle,0,0,,3,,,,,,,,,,,,,,-1,letter,NA,d,1.6762,vtsPrac,0,0,0,0,1,,,,,,,,,,,,,,,,,,,,,,,
295309,2022-11-28_17h36.16.527,vts_reward_expectancy_bt,2022.2.4,Win32,59.80861244,Chrome,1280,800,,,,,0,594,,,,,,,,,,,,,,,,,B,160,star,1,1,,3,,,,,,,,,,,,,,repeat,letter,lettRpt,d,1.257,vtsPrac,1,0,1,0,1,,,,,,,,,,,,,,,,,,,,,,,
295309,2022-11-28_17h36.16.527,vts_reward_expectancy_bt,2022.2.4,Win32,59.80861244,Chrome,1280,800,,,,,0,594,,,,,,,,,,,,,,,,,F,132,circle,1,0,,3,,,,,,,,,,,,,,repeat,letter,lettRpt,d,1.118,vtsPrac,2,0,2,0,1,,,,,,,,,,,,,,,,,,,,,,,
295309,2022-11-28_17h36.16.527,vts_reward_expectancy_bt,2022.2.4,Win32,59.80861244,Chrome,1280,800,,,,,0,594,,,,,,,,,,,,,,,,,D,139,star,1,0,,3,,,,,,,,,,,,,,switch,number,numSwt,j,0.8475,vtsPrac,3,0,3,0,1,,,,,,,,,,,,,,,,,,,,,,,
295309,2022-11-28_17h36.16.527,vts_reward_expectancy_bt,2022.2.4,Win32,59.80861244,Chrome,1280,800,,,,,0,594,,,,,,,,,,,,,,,,,W,181,hexagon,1,0,,3,,,,,,,,,,,,,,repeat,number,numRpt,k,1.7816,vtsPrac,4,0,4,0,1,,,,,,,,,,,,,,,,,,,,,,,
295309,2022-11-28_17h36.16.527,vts_reward_expectancy_bt,2022.2.4,Win32,59.80861244,Chrome,1280,800,,,,,0,594,,,,,,,,,,,,,,,,,B,160,triangle,1,0,,3,,,,,,,,,,,,,,switch,letter,lettSwt,d,1.0858,vtsPrac,5,0,5,0,1,,,,,,,,,,,,,,,,,,,,,,,
295309,2022-11-28_17h36.16.527,vts_reward_expectancy_bt,2022.2.4,Win32,59.80861244,Chrome,1280,800,,,,,0,594,,,,,,,,,,,,,,,,,F,132,triangle,1,0,,3,,,,,,,,,,,,,,repeat,letter,lettRpt,d,0.78,vtsPrac,6,0,6,0,1,,,,,,,,,,,,,,,,,,,,,,,
295309,2022-11-28_17h36.16.527,vts_reward_expectancy_bt,2022.2.4,Win32,59.80861244,Chrome,1280,800,,,,,0,594,,,,,,,,,,,,,,,,,D,139,hexagon,1,0,,3,,,,,,,,,,,,,,switch,number,numSwt,j,0.978,vtsPrac,7,0,7,0,1,,,,,,,,,,,,,,,,,,,,,,,
295309,2022-11-28_17h36.16.527,vts_reward_expectancy_bt,2022.2.4,Win32,59.80861244,Chrome,1280,800,,,,,0,594,,,,,,,,,,,,,,,,,F,167,circle,1,0,,3,,,,,,,,,,,,,,repeat,number,numRpt,k,0.7027,vtsPrac,8,0,8,0,1,,,,,,,,,,,,,,,,,,,,,,,
295309,2022-11-28_17h36.16.527,vts_reward_expectancy_bt,2022.2.4,Win32,59.80861244,Chrome,1280,800,,,,,0,594,,,,,,,,,,,,,,,,,U,132,hexagon,1,0,,3,,,,,,,,,,,,,,switch,letter,lettSwt,f,0.814,vtsPrac,9,0,9,0,1,,,,,,,,,,,,,,,,,,,,,,,
295309,2022-11-28_17h36.16.527,vts_reward_expectancy_bt,2022.2.4,Win32,59.80861244,Chrome,1280,800,,,,,0,594,,,,,,,,,,,,,,,,,W,160,hexagon,1,0,,3,,,,,,,,,,,,,,repeat,letter,lettRpt,f,0.7663,vtsPrac,10,0,10,0,1,,,,,,,,,,,,,,,,,,,,,,,
295309,2022-11-28_17h36.16.527,vts_reward_expectancy_bt,2022.2.4,Win32,59.80861244,Chrome,1280,800,,,,,0,594,,,,,,,,,,,,,,,,,B,125,circle,1,0,,3,,,,,,,,,,,,,,switch,number,numSwt,j,0.65,vtsPrac,11,0,11,0,1,,,,,,,,,,,,,,,,,,,,,,,
295309,2022-11-28_17h36.16.527,vts_reward_expectancy_bt,2022.2.4,Win32,59.80861244,Chrome,1280,800,,,,,0,594,,,,,,,,,,,,,,,,,F,146,star,1,0,,3,,,,,,,,,,,,,,repeat,number,numRpt,j,0.6487,vtsPrac,12,0,12,0,1,,,,,,,,,,,,,,,,,,,,,,,
295309,2022-11-28_17h36.16.527,vts_reward_expectancy_bt,2022.2.4,Win32,59.80861244,Chrome,1280,800,,,,,0,594,,,,,,,,,,,,,,,,,H,139,triangle,1,0,,3,,,,,,,,,,,,,,repeat,number,numRpt,j,0.8636,vtsPrac,13,0,13,0,1,,,,,,,,,,,,,,,,,,,,,,,
295309,2022-11-28_17h36.16.527,vts_reward_expectancy_bt,2022.2.4,Win32,59.80861244,Chrome,1280,800,,,,,0,594,,,,,,,,,,,,,,,,,D,125,star,1,0,,3,,,,,,,,,,,,,,repeat,number,numRpt,j,0.7147,vtsPrac,14,0,14,0,1,,,,,,,,,,,,,,,,,,,,,,,
295309,2022-11-28_17h36.16.527,vts_reward_expectancy_bt,2022.2.4,Win32,59.80861244,Chrome,1280,800,,,,,0,594,,,,,,,,,,,,,,,,,B,132,circle,1,0,,3,,,,,,,,,,,,,,repeat,number,numRpt,j,0.6656,vtsPrac,15,0,15,0,1,,,,,,,,,,,,,,,,,,,,,,,
295309,2022-11-28_17h36.16.527,vts_reward_expectancy_bt,2022.2.4,Win32,59.80861244,Chrome,1280,800,,,,,0,594,,,,,,,,,,,,,,,,,B,125,hexagon,1,0,,3,,,,,,,,,,,,,,repeat,number,numRpt,j,0.7341,vtsPrac,16,0,16,0,1,,,,,,,,,,,,,,,,,,,,,,,
295309,2022-11-28_17h36.16.527,vts_reward_expectancy_bt,2022.2.4,Win32,59.80861244,Chrome,1280,800,,,,,0,594,,,,,,,,,,,,,,,,,S,139,circle,1,0,,3,,,,,,,,,,,,,,repeat,number,numRpt,j,0.6351,vtsPrac,17,0,17,0,1,,,,,,,,,,,,,,,,,,,,,,,
295309,2022-11-28_17h36.16.527,vts_reward_expectancy_bt,2022.2.4,Win32,59.80861244,Chrome,1280,800,,,,,0,594,,,,,,,,,,,,,,,,,U,181,triangle,1,0,,3,,,,,,,,,,,,,,repeat,number,numRpt,k,1.1814,vtsPrac,18,0,18,0,1,,,,,,,,,,,,,,,,,,,,,,,
295309,2022-11-28_17h36.16.527,vts_reward_expectancy_bt,2022.2.4,Win32,59.80861244,Chrome,1280,800,,,,,0,594,,,,,,,,,,,,,,,,,W,174,circle,1,0,,3,,,,,,,,,,,,,,repeat,number,numRpt,k,0.903,vtsPrac,19,0,19,0,1,,,,,,,,,,,,,,,,,,,,,,,
295309,2022-11-28_17h36.16.527,vts_reward_expectancy_bt,2022.2.4,Win32,59.80861244,Chrome,1280,800,,,,,0,594,,,,,,,,,,,,,,,,,U,174,circle,1,0,,3,,,,,,,,,,,,,,switch,letter,lettSwt,f,0.6265,vtsPrac,20,0,20,0,1,,,,,,,,,,,,,,,,,,,,,,,
295309,2022-11-28_17h36.16.527,vts_reward_expectancy_bt,2022.2.4,Win32,59.80861244,Chrome,1280,800,,,,,0,594,,,,,,,,,,,,,,,,,H,160,hexagon,1,0,,3,,,,,,,,,,,,,,repeat,letter,lettRpt,d,0.8246,vtsPrac,21,0,21,0,1,,,,,,,,,,,,,,,,,,,,,,,
295309,2022-11-28_17h36.16.527,vts_reward_expectancy_bt,2022.2.4,Win32,59.80861244,Chrome,1280,800,,,,,0,594,,,,,,,,,,,,,,,,,B,146,triangle,1,0,,3,,,,,,,,,,,,,,repeat,letter,lettRpt,d,0.8188,vtsPrac,22,0,22,0,1,,,,,,,,,,,,,,,,,,,,,,,
295309,2022-11-28_17h36.16.527,vts_reward_expectancy_bt,2022.2.4,Win32,59.80861244,Chrome,1280,800,,,,,0,594,,,,,,,,,,,,,,,,,Y,139,circle,1,0,,3,,,,,,,,,,,,,,repeat,letter,lettRpt,f,0.7335,vtsPrac,23,0,23,0,1,,,,,,,,,,,,,,,,,,,,,,,
295309,2022-11-28_17h36.16.527,vts_reward_expectancy_bt,2022.2.4,Win32,59.80861244,Chrome,1280,800,,,,,0,594,,,,,,,,,,,,,,,,,Y,146,hexagon,1,0,,3,,,,,,,,,,,,,,switch,number,numSwt,j,0.8484,vtsPrac,24,0,24,0,1,,,,,,,,,,,,,,,,,,,,,,,
295309,2022-11-28_17h36.16.527,vts_reward_expectancy_bt,2022.2.4,Win32,59.80861244,Chrome,1280,800,,,,,0,594,,,,,,,,,,,,,,,,,W,167,star,1,0,,3,,,,,,,,,,,,,,repeat,number,numRpt,k,0.7984,vtsPrac,25,0,25,0,1,,,,,,,,,,,,,,,,,,,,,,,
295309,2022-11-28_17h36.16.527,vts_reward_expectancy_bt,2022.2.4,Win32,59.80861244,Chrome,1280,800,,,,,0,594,,,,,,,,,,,,,,,,,F,125,hexagon,1,0,,3,,,,,,,,,,,,,,switch,letter,lettSwt,d,0.8973,vtsPrac,26,0,26,0,1,,,,,,,,,,,,,,,,,,,,,,,
295309,2022-11-28_17h36.16.527,vts_reward_expectancy_bt,2022.2.4,Win32,59.80861244,Chrome,1280,800,,,,,0,594,,,,,,,,,,,,,,,,,H,132,triangle,1,0,,3,,,,,,,,,,,,,,switch,number,numSwt,j,0.7307,vtsPrac,27,0,27,0,1,,,,,,,,,,,,,,,,,,,,,,,
295309,2022-11-28_17h36.16.527,vts_reward_expectancy_bt,2022.2.4,Win32,59.80861244,Chrome,1280,800,,,,,0,594,,,,,,,,,,,,,,,,,W,146,hexagon,1,0,,3,,,,,,,,,,,,,,repeat,number,numRpt,j,0.5664,vtsPrac,28,0,28,0,1,,,,,,,,,,,,,,,,,,,,,,,
295309,2022-11-28_17h36.16.527,vts_reward_expectancy_bt,2022.2.4,Win32,59.80861244,Chrome,1280,800,,,,,0,594,,,,,,,,,,,,,,,,,B,167,circle,1,0,,3,,,,,,,,,,,,,,switch,letter,lettSwt,d,0.7081,vtsPrac,29,0,29,0,1,,,,,,,,,,,,,,,,,,,,,,,
295309,2022-11-28_17h36.16.527,vts_reward_expectancy_bt,2022.2.4,Win32,59.80861244,Chrome,1280,800,,,,,0,594,,,,,,,,,,,,,,,,,S,132,hexagon,1,0,,3,,,,,,,,,,,,,,repeat,letter,lettRpt,f,0.8635,vtsPrac,30,0,30,0,1,,,,,,,,,,,,,,,,,,,,,,,
295309,2022-11-28_17h36.16.527,vts_reward_expectancy_bt,2022.2.4,Win32,59.80861244,Chrome,1280,800,,,,,0,594,,,,,,,,,,,,,,,,,F,181,star,1,0,,3,,,,,,,,,,,,,,switch,number,numSwt,k,0.7137,vtsPrac,31,0,31,0,1,,,,,,,,,,,,,,,,,,,,,,,
295309,2022-11-28_17h36.16.527,vts_reward_expectancy_bt,2022.2.4,Win32,59.80861244,Chrome,1280,800,,,,,,,,,,,,,,,,,,,,,,,,,,,,,,,,,,,,,,,,,,,,,,,,,,,,,,,,,,,,,,,,,,,,,,,,,,,,
295309,2022-11-28_17h36.16.527,vts_reward_expectancy_bt,2022.2.4,Win32,59.80861244,Chrome,1280,800,,,,,,,,,,,,,,,,,,,,,,,,,,,,,,,,,,,,,,,,,,,,,,,,,,,,,,,,,,,,,,,,,,,,,,,,,,,,
295309,2022-11-28_17h36.16.527,vts_reward_expectancy_bt,2022.2.4,Win32,59.80861244,Chrome,1280,800,,,,,0,594,,,,,,,,,,,,,,,,,S,167,star,0,0,,,,,,,,,,,,,,,,repeat,number,NA,j,2.8992,noRew,,,,,,0,0,0,0,0,1,,,,,,,,,,,,,,,,,
295309,2022-11-28_17h36.16.527,vts_reward_expectancy_bt,2022.2.4,Win32,59.80861244,Chrome,1280,800,,,,,0,594,,,,,,,,,,,,,,,,,U,160,triangle,1,1,,,,,,,,,,,,,,,,switch,letter,lettSwt,f,0.8166,noRew,,,,,,0,1,0,1,0,1,,,,,,,,,,,,,,,,,
295309,2022-11-28_17h36.16.527,vts_reward_expectancy_bt,2022.2.4,Win32,59.80861244,Chrome,1280,800,,,,,0,594,,,,,,,,,,,,,,,,,W,146,star,1,0,,,,,,,,,,,,,,,,switch,number,numSwt,j,0.9204,noRew,,,,,,0,2,0,2,0,1,,,,,,,,,,,,,,,,,
295309,2022-11-28_17h36.16.527,vts_reward_expectancy_bt,2022.2.4,Win32,59.80861244,Chrome,1280,800,,,,,0,594,,,,,,,,,,,,,,,,,H,139,triangle,1,0,,,,,,,,,,,,,,,,switch,letter,lettSwt,d,1.1757,noRew,,,,,,0,3,0,3,0,1,,,,,,,,,,,,,,,,,
295309,2022-11-28_17h36.16.527,vts_reward_expectancy_bt,2022.2.4,Win32,59.80861244,Chrome,1280,800,,,,,0,594,,,,,,,,,,,,,,,,,S,167,hexagon,1,0,,,,,,,,,,,,,,,,repeat,letter,lettRpt,f,0.8173,noRew,,,,,,0,4,0,4,0,1,,,,,,,,,,,,,,,,,
295309,2022-11-28_17h36.16.527,vts_reward_expectancy_bt,2022.2.4,Win32,59.80861244,Chrome,1280,800,,,,,0,594,,,,,,,,,,,,,,,,,U,160,star,1,0,,,,,,,,,,,,,,,,switch,number,numSwt,k,0.8524,noRew,,,,,,0,5,0,5,0,1,,,,,,,,,,,,,,,,,
295309,2022-11-28_17h36.16.527,vts_reward_expectancy_bt,2022.2.4,Win32,59.80861244,Chrome,1280,800,,,,,0,594,,,,,,,,,,,,,,,,,W,146,hexagon,0,0,,,,,,,,,,,,,,,,repeat,number,NA,k,0.7711,noRew,,,,,,0,6,0,6,0,1,,,,,,,,,,,,,,,,,
295309,2022-11-28_17h36.16.527,vts_reward_expectancy_bt,2022.2.4,Win32,59.80861244,Chrome,1280,800,,,,,0,594,,,,,,,,,,,,,,,,,H,139,triangle,1,1,,,,,,,,,,,,,,,,switch,letter,lettSwt,d,0.7186,noRew,,,,,,0,7,0,7,0,1,,,,,,,,,,,,,,,,,
295309,2022-11-28_17h36.16.527,vts_reward_expectancy_bt,2022.2.4,Win32,59.80861244,Chrome,1280,800,,,,,0,594,,,,,,,,,,,,,,,,,S,160,hexagon,1,0,,,,,,,,,,,,,,,,switch,number,numSwt,k,1.1685,noRew,,,,,,0,8,0,8,0,1,,,,,,,,,,,,,,,,,
295309,2022-11-28_17h36.16.527,vts_reward_expectancy_bt,2022.2.4,Win32,59.80861244,Chrome,1280,800,,,,,0,594,,,,,,,,,,,,,,,,,B,146,circle,1,0,,,,,,,,,,,,,,,,repeat,number,numRpt,j,1.7708,noRew,,,,,,0,9,0,9,0,1,,,,,,,,,,,,,,,,,
295309,2022-11-28_17h36.16.527,vts_reward_expectancy_bt,2022.2.4,Win32,59.80861244,Chrome,1280,800,,,,,0,594,,,,,,,,,,,,,,,,,F,167,circle,1,0,,,,,,,,,,,,,,,,repeat,number,numRpt,k,0.7834,noRew,,,,,,0,10,0,10,0,1,,,,,,,,,,,,,,,,,
295309,2022-11-28_17h36.16.527,vts_reward_expectancy_bt,2022.2.4,Win32,59.80861244,Chrome,1280,800,,,,,0,594,,,,,,,,,,,,,,,,,U,132,star,1,0,,,,,,,,,,,,,,,,repeat,number,numRpt,j,0.7867,noRew,,,,,,0,11,0,11,0,1,,,,,,,,,,,,,,,,,
295309,2022-11-28_17h36.16.527,vts_reward_expectancy_bt,2022.2.4,Win32,59.80861244,Chrome,1280,800,,,,,0,594,,,,,,,,,,,,,,,,,F,125,hexagon,1,0,,,,,,,,,,,,,,,,repeat,number,numRpt,j,0.6931,noRew,,,,,,0,12,0,12,0,1,,,,,,,,,,,,,,,,,
295309,2022-11-28_17h36.16.527,vts_reward_expectancy_bt,2022.2.4,Win32,59.80861244,Chrome,1280,800,,,,,0,594,,,,,,,,,,,,,,,,,B,132,circle,1,0,,,,,,,,,,,,,,,,repeat,number,numRpt,j,0.7616,noRew,,,,,,0,13,0,13,0,1,,,,,,,,,,,,,,,,,
295309,2022-11-28_17h36.16.527,vts_reward_expectancy_bt,2022.2.4,Win32,59.80861244,Chrome,1280,800,,,,,0,594,,,,,,,,,,,,,,,,,Y,167,triangle,1,0,,,,,,,,,,,,,,,,switch,letter,lettSwt,f,0.9169,noRew,,,,,,0,14,0,14,0,1,,,,,,,,,,,,,,,,,
295309,2022-11-28_17h36.16.527,vts_reward_expectancy_bt,2022.2.4,Win32,59.80861244,Chrome,1280,800,,,,,0,594,,,,,,,,,,,,,,,,,D,139,circle,1,0,,,,,,,,,,,,,,,,repeat,letter,lettRpt,d,0.9029,noRew,,,,,,0,15,0,15,0,1,,,,,,,,,,,,,,,,,
295309,2022-11-28_17h36.16.527,vts_reward_expectancy_bt,2022.2.4,Win32,59.80861244,Chrome,1280,800,,,,,0,594,,,,,,,,,,,,,,,,,Y,146,circle,1,0,,,,,,,,,,,,,,,,repeat,letter,lettRpt,f,1.5669,noRew,,,,,,0,16,0,16,0,1,,,,,,,,,,,,,,,,,
295309,2022-11-28_17h36.16.527,vts_reward_expectancy_bt,2022.2.4,Win32,59.80861244,Chrome,1280,800,,,,,0,594,,,,,,,,,,,,,,,,,H,160,star,1,0,,,,,,,,,,,,,,,,switch,number,numSwt,k,0.936,noRew,,,,,,0,17,0,17,0,1,,,,,,,,,,,,,,,,,
295309,2022-11-28_17h36.16.527,vts_reward_expectancy_bt,2022.2.4,Win32,59.80861244,Chrome,1280,800,,,,,0,594,,,,,,,,,,,,,,,,,W,132,triangle,0,0,,,,,,,,,,,,,,,,repeat,number,NA,k,1.0174,noRew,,,,,,0,18,0,18,0,1,,,,,,,,,,,,,,,,,
295309,2022-11-28_17h36.16.527,vts_reward_expectancy_bt,2022.2.4,Win32,59.80861244,Chrome,1280,800,,,,,0,594,,,,,,,,,,,,,,,,,B,181,circle,1,1,,,,,,,,,,,,,,,,repeat,number,numRpt,k,0.8001,noRew,,,,,,0,19,0,19,0,1,,,,,,,,,,,,,,,,,
295309,2022-11-28_17h36.16.527,vts_reward_expectancy_bt,2022.2.4,Win32,59.80861244,Chrome,1280,800,,,,,0,594,,,,,,,,,,,,,,,,,F,139,triangle,1,0,,,,,,,,,,,,,,,,repeat,number,numRpt,j,1.3379,noRew,,,,,,0,20,0,20,0,1,,,,,,,,,,,,,,,,,
295309,2022-11-28_17h36.16.527,vts_reward_expectancy_bt,2022.2.4,Win32,59.80861244,Chrome,1280,800,,,,,0,594,,,,,,,,,,,,,,,,,B,167,star,0,0,,,,,,,,,,,,,,,,repeat,number,NA,j,0.9067,noRew,,,,,,0,21,0,21,0,1,,,,,,,,,,,,,,,,,
295309,2022-11-28_17h36.16.527,vts_reward_expectancy_bt,2022.2.4,Win32,59.80861244,Chrome,1280,800,,,,,0,594,,,,,,,,,,,,,,,,,W,146,circle,1,1,,,,,,,,,,,,,,,,switch,letter,lettSwt,f,0.9331,noRew,,,,,,0,22,0,22,0,1,,,,,,,,,,,,,,,,,
295309,2022-11-28_17h36.16.527,vts_reward_expectancy_bt,2022.2.4,Win32,59.80861244,Chrome,1280,800,,,,,0,594,,,,,,,,,,,,,,,,,Y,174,triangle,1,0,,,,,,,,,,,,,,,,repeat,letter,lettRpt,f,1.4879,noRew,,,,,,0,23,0,23,0,1,,,,,,,,,,,,,,,,,
295309,2022-11-28_17h36.16.527,vts_reward_expectancy_bt,2022.2.4,Win32,59.80861244,Chrome,1280,800,,,,,0,594,,,,,,,,,,,,,,,,,H,132,hexagon,1,0,,,,,,,,,,,,,,,,repeat,letter,lettRpt,d,1.1015,noRew,,,,,,0,24,0,24,0,1,,,,,,,,,,,,,,,,,
295309,2022-11-28_17h36.16.527,vts_reward_expectancy_bt,2022.2.4,Win32,59.80861244,Chrome,1280,800,,,,,0,594,,,,,,,,,,,,,,,,,B,125,triangle,1,0,,,,,,,,,,,,,,,,switch,number,numSwt,j,1.1016,noRew,,,,,,0,25,0,25,0,1,,,,,,,,,,,,,,,,,
295309,2022-11-28_17h36.16.527,vts_reward_expectancy_bt,2022.2.4,Win32,59.80861244,Chrome,1280,800,,,,,0,594,,,,,,,,,,,,,,,,,F,160,hexagon,1,0,,,,,,,,,,,,,,,,repeat,number,numRpt,k,1.5678,noRew,,,,,,0,26,0,26,0,1,,,,,,,,,,,,,,,,,
295309,2022-11-28_17h36.16.527,vts_reward_expectancy_bt,2022.2.4,Win32,59.80861244,Chrome,1280,800,,,,,0,594,,,,,,,,,,,,,,,,,S,181,star,0,0,,,,,,,,,,,,,,,,switch,letter,NA,d,1.2865,noRew,,,,,,0,27,0,27,0,1,,,,,,,,,,,,,,,,,
295309,2022-11-28_17h36.16.527,vts_reward_expectancy_bt,2022.2.4,Win32,59.80861244,Chrome,1280,800,,,,,0,594,,,,,,,,,,,,,,,,,W,139,star,0,1,,,,,,,,,,,,,,,,switch,number,NA,k,1.5705,noRew,,,,,,0,28,0,28,0,1,,,,,,,,,,,,,,,,,
295309,2022-11-28_17h36.16.527,vts_reward_expectancy_bt,2022.2.4,Win32,59.80861244,Chrome,1280,800,,,,,0,594,,,,,,,,,,,,,,,,,D,146,circle,1,1,,,,,,,,,,,,,,,,switch,letter,lettSwt,d,1.4861,noRew,,,,,,0,29,0,29,0,1,,,,,,,,,,,,,,,,,
295309,2022-11-28_17h36.16.527,vts_reward_expectancy_bt,2022.2.4,Win32,59.80861244,Chrome,1280,800,,,,,0,594,,,,,,,,,,,,,,,,,B,174,hexagon,1,0,,,,,,,,,,,,,,,,repeat,letter,lettRpt,d,1.0902,noRew,,,,,,0,30,0,30,0,1,,,,,,,,,,,,,,,,,
295309,2022-11-28_17h36.16.527,vts_reward_expectancy_bt,2022.2.4,Win32,59.80861244,Chrome,1280,800,,,,,0,594,,,,,,,,,,,,,,,,,S,167,circle,1,0,,,,,,,,,,,,,,,,repeat,letter,lettRpt,f,0.7682,noRew,,,,,,0,31,0,31,0,1,,,,,,,,,,,,,,,,,
295309,2022-11-28_17h36.16.527,vts_reward_expectancy_bt,2022.2.4,Win32,59.80861244,Chrome,1280,800,,,,,0,594,,,,,,,,,,,,,,,,,U,125,hexagon,1,0,,,,,,,,,,,,,,,,repeat,letter,lettRpt,f,0.7383,noRew,,,,,,0,32,0,32,0,1,,,,,,,,,,,,,,,,,
295309,2022-11-28_17h36.16.527,vts_reward_expectancy_bt,2022.2.4,Win32,59.80861244,Chrome,1280,800,,,,,0,594,,,,,,,,,,,,,,,,,B,139,circle,1,0,,,,,,,,,,,,,,,,switch,number,numSwt,j,1.9667,noRew,,,,,,0,33,0,33,0,1,,,,,,,,,,,,,,,,,
295309,2022-11-28_17h36.16.527,vts_reward_expectancy_bt,2022.2.4,Win32,59.80861244,Chrome,1280,800,,,,,0,594,,,,,,,,,,,,,,,,,D,174,circle,1,0,,,,,,,,,,,,,,,,repeat,number,numRpt,k,1.061,noRew,,,,,,0,34,0,34,0,1,,,,,,,,,,,,,,,,,
295309,2022-11-28_17h36.16.527,vts_reward_expectancy_bt,2022.2.4,Win32,59.80861244,Chrome,1280,800,,,,,0,594,,,,,,,,,,,,,,,,,W,167,star,1,0,,,,,,,,,,,,,,,,repeat,number,numRpt,k,1.2054,noRew,,,,,,0,35,0,35,0,1,,,,,,,,,,,,,,,,,
295309,2022-11-28_17h36.16.527,vts_reward_expectancy_bt,2022.2.4,Win32,59.80861244,Chrome,1280,800,,,,,0,594,,,,,,,,,,,,,,,,,Y,139,triangle,1,0,,,,,,,,,,,,,,,,repeat,number,numRpt,j,1.0245,noRew,,,,,,0,36,0,36,0,1,,,,,,,,,,,,,,,,,
295309,2022-11-28_17h36.16.527,vts_reward_expectancy_bt,2022.2.4,Win32,59.80861244,Chrome,1280,800,,,,,0,594,,,,,,,,,,,,,,,,,D,132,hexagon,1,0,,,,,,,,,,,,,,,,repeat,number,numRpt,j,1.9013,noRew,,,,,,0,37,0,37,0,1,,,,,,,,,,,,,,,,,
295309,2022-11-28_17h36.16.527,vts_reward_expectancy_bt,2022.2.4,Win32,59.80861244,Chrome,1280,800,,,,,0,594,,,,,,,,,,,,,,,,,W,146,star,1,0,,,,,,,,,,,,,,,,repeat,number,numRpt,j,1.4757,noRew,,,,,,0,38,0,38,0,1,,,,,,,,,,,,,,,,,
295309,2022-11-28_17h36.16.527,vts_reward_expectancy_bt,2022.2.4,Win32,59.80861244,Chrome,1280,800,,,,,0,594,,,,,,,,,,,,,,,,,F,160,triangle,1,0,,,,,,,,,,,,,,,,repeat,number,numRpt,k,2.0678,noRew,,,,,,0,39,0,39,0,1,,,,,,,,,,,,,,,,,
295309,2022-11-28_17h36.16.527,vts_reward_expectancy_bt,2022.2.4,Win32,59.80861244,Chrome,1280,800,,,,,0,594,,,,,,,,,,,,,,,,,H,132,circle,1,0,,,,,,,,,,,,,,,,repeat,number,numRpt,j,1.1373,noRew,,,,,,0,40,0,40,0,1,,,,,,,,,,,,,,,,,
295309,2022-11-28_17h36.16.527,vts_reward_expectancy_bt,2022.2.4,Win32,59.80861244,Chrome,1280,800,,,,,0,594,,,,,,,,,,,,,,,,,Y,139,hexagon,1,0,,,,,,,,,,,,,,,,repeat,number,numRpt,j,1.4677,noRew,,,,,,0,41,0,41,0,1,,,,,,,,,,,,,,,,,
295309,2022-11-28_17h36.16.527,vts_reward_expectancy_bt,2022.2.4,Win32,59.80861244,Chrome,1280,800,,,,,0,594,,,,,,,,,,,,,,,,,D,125,triangle,1,0,,,,,,,,,,,,,,,,repeat,number,numRpt,j,0.9018,noRew,,,,,,0,42,0,42,0,1,,,,,,,,,,,,,,,,,
295309,2022-11-28_17h36.16.527,vts_reward_expectancy_bt,2022.2.4,Win32,59.80861244,Chrome,1280,800,,,,,0,594,,,,,,,,,,,,,,,,,U,174,star,0,0,,,,,,,,,,,,,,,,repeat,number,NA,j,0.7356,noRew,,,,,,0,43,0,43,0,1,,,,,,,,,,,,,,,,,
295309,2022-11-28_17h36.16.527,vts_reward_expectancy_bt,2022.2.4,Win32,59.80861244,Chrome,1280,800,,,,,0,594,,,,,,,,,,,,,,,,,U,160,triangle,1,1,,,,,,,,,,,,,,,,switch,letter,lettSwt,f,1.4154,noRew,,,,,,0,44,0,44,0,1,,,,,,,,,,,,,,,,,
295309,2022-11-28_17h36.16.527,vts_reward_expectancy_bt,2022.2.4,Win32,59.80861244,Chrome,1280,800,,,,,0,594,,,,,,,,,,,,,,,,,B,132,hexagon,1,0,,,,,,,,,,,,,,,,repeat,letter,lettRpt,d,0.8509,noRew,,,,,,0,45,0,45,0,1,,,,,,,,,,,,,,,,,
295309,2022-11-28_17h36.16.527,vts_reward_expectancy_bt,2022.2.4,Win32,59.80861244,Chrome,1280,800,,,,,0,594,,,,,,,,,,,,,,,,,W,125,circle,1,0,,,,,,,,,,,,,,,,repeat,letter,lettRpt,f,0.8677,noRew,,,,,,0,46,0,46,0,1,,,,,,,,,,,,,,,,,
295309,2022-11-28_17h36.16.527,vts_reward_expectancy_bt,2022.2.4,Win32,59.80861244,Chrome,1280,800,,,,,0,594,,,,,,,,,,,,,,,,,S,174,star,1,0,,,,,,,,,,,,,,,,repeat,letter,lettRpt,f,1.1398,noRew,,,,,,0,47,0,47,0,1,,,,,,,,,,,,,,,,,
295309,2022-11-28_17h36.16.527,vts_reward_expectancy_bt,2022.2.4,Win32,59.80861244,Chrome,1280,800,,,,,0,594,,,,,,,,,,,,,,,,,B,160,hexagon,1,0,,,,,,,,,,,,,,,,repeat,letter,lettRpt,d,0.8009,noRew,,,,,,0,48,0,48,0,1,,,,,,,,,,,,,,,,,
295309,2022-11-28_17h36.16.527,vts_reward_expectancy_bt,2022.2.4,Win32,59.80861244,Chrome,1280,800,,,,,0,594,,,,,,,,,,,,,,,,,D,125,triangle,1,0,,,,,,,,,,,,,,,,repeat,letter,lettRpt,d,0.9347,noRew,,,,,,0,49,0,49,0,1,,,,,,,,,,,,,,,,,
295309,2022-11-28_17h36.16.527,vts_reward_expectancy_bt,2022.2.4,Win32,59.80861244,Chrome,1280,800,,,,,0,594,,,,,,,,,,,,,,,,,S,132,hexagon,1,0,,,,,,,,,,,,,,,,repeat,letter,lettRpt,f,0.7613,noRew,,,,,,0,50,0,50,0,1,,,,,,,,,,,,,,,,,
295309,2022-11-28_17h36.16.527,vts_reward_expectancy_bt,2022.2.4,Win32,59.80861244,Chrome,1280,800,,,,,0,594,,,,,,,,,,,,,,,,,W,167,circle,1,0,,,,,,,,,,,,,,,,repeat,letter,lettRpt,f,1.2213,noRew,,,,,,0,51,0,51,0,1,,,,,,,,,,,,,,,,,
295309,2022-11-28_17h36.16.527,vts_reward_expectancy_bt,2022.2.4,Win32,59.80861244,Chrome,1280,800,,,,,0,594,,,,,,,,,,,,,,,,,H,181,hexagon,1,0,,,,,,,,,,,,,,,,repeat,letter,lettRpt,d,0.7112,noRew,,,,,,0,52,0,52,0,1,,,,,,,,,,,,,,,,,
295309,2022-11-28_17h36.16.527,vts_reward_expectancy_bt,2022.2.4,Win32,59.80861244,Chrome,1280,800,,,,,0,594,,,,,,,,,,,,,,,,,Y,167,circle,1,0,,,,,,,,,,,,,,,,repeat,letter,lettRpt,f,0.7177,noRew,,,,,,0,53,0,53,0,1,,,,,,,,,,,,,,,,,
295309,2022-11-28_17h36.16.527,vts_reward_expectancy_bt,2022.2.4,Win32,59.80861244,Chrome,1280,800,,,,,0,594,,,,,,,,,,,,,,,,,F,160,star,1,0,,,,,,,,,,,,,,,,repeat,letter,lettRpt,d,1.0053,noRew,,,,,,0,54,0,54,0,1,,,,,,,,,,,,,,,,,
295309,2022-11-28_17h36.16.527,vts_reward_expectancy_bt,2022.2.4,Win32,59.80861244,Chrome,1280,800,,,,,0,594,,,,,,,,,,,,,,,,,U,146,hexagon,1,0,,,,,,,,,,,,,,,,repeat,letter,lettRpt,f,0.753,noRew,,,,,,0,55,0,55,0,1,,,,,,,,,,,,,,,,,
295309,2022-11-28_17h36.16.527,vts_reward_expectancy_bt,2022.2.4,Win32,59.80861244,Chrome,1280,800,,,,,0,594,,,,,,,,,,,,,,,,,S,146,circle,0,0,,,,,,,,,,,,,,,,repeat,letter,NA,d,0.6838,noRew,,,,,,0,56,0,56,0,1,,,,,,,,,,,,,,,,,
295309,2022-11-28_17h36.16.527,vts_reward_expectancy_bt,2022.2.4,Win32,59.80861244,Chrome,1280,800,,,,,0,594,,,,,,,,,,,,,,,,,H,174,star,1,1,,,,,,,,,,,,,,,,repeat,letter,lettRpt,d,0.7162,noRew,,,,,,0,57,0,57,0,1,,,,,,,,,,,,,,,,,
295309,2022-11-28_17h36.16.527,vts_reward_expectancy_bt,2022.2.4,Win32,59.80861244,Chrome,1280,800,,,,,0,594,,,,,,,,,,,,,,,,,F,181,circle,1,0,,,,,,,,,,,,,,,,repeat,letter,lettRpt,d,0.9019,noRew,,,,,,0,58,0,58,0,1,,,,,,,,,,,,,,,,,
295309,2022-11-28_17h36.16.527,vts_reward_expectancy_bt,2022.2.4,Win32,59.80861244,Chrome,1280,800,,,,,0,594,,,,,,,,,,,,,,,,,B,125,star,1,0,,,,,,,,,,,,,,,,repeat,letter,lettRpt,d,0.7739,noRew,,,,,,0,59,0,59,0,1,,,,,,,,,,,,,,,,,
295309,2022-11-28_17h36.16.527,vts_reward_expectancy_bt,2022.2.4,Win32,59.80861244,Chrome,1280,800,,,,,0,594,,,,,,,,,,,,,,,,,F,125,circle,1,0,,,,,,,,,,,,,,,,repeat,letter,lettRpt,d,0.9327,noRew,,,,,,0,60,0,60,0,1,,,,,,,,,,,,,,,,,
295309,2022-11-28_17h36.16.527,vts_reward_expectancy_bt,2022.2.4,Win32,59.80861244,Chrome,1280,800,,,,,0,594,,,,,,,,,,,,,,,,,S,174,triangle,0,0,,,,,,,,,,,,,,,,repeat,letter,NA,d,0.7198,noRew,,,,,,0,61,0,61,0,1,,,,,,,,,,,,,,,,,
295309,2022-11-28_17h36.16.527,vts_reward_expectancy_bt,2022.2.4,Win32,59.80861244,Chrome,1280,800,,,,,0,594,,,,,,,,,,,,,,,,,U,146,star,-1,1,,,,,,,,,,,,,,,,switch,no_choice,NA,,,noRew,,,,,,0,62,0,62,0,1,,,,,,,,,,,,,,,,,
295309,2022-11-28_17h36.16.527,vts_reward_expectancy_bt,2022.2.4,Win32,59.80861244,Chrome,1280,800,,,,,0,594,,,,,,,,,,,,,,,,,W,132,hexagon,1,0,,,,,,,,,,,,,,,,switch,letter,lettSwt,f,0.7829,noRew,,,,,,0,63,0,63,0,1,,,,,,,,,,,,,,,,,
295309,2022-11-28_17h36.16.527,vts_reward_expectancy_bt,2022.2.4,Win32,59.80861244,Chrome,1280,800,,,,,,,,,,,,,,,,,,,,,,,,,,,,,,,,,,,,,,,,,,,,,,,,,,,,,,,,,,,,,,,,,,,,,,,,,,,,
295309,2022-11-28_17h36.16.527,vts_reward_expectancy_bt,2022.2.4,Win32,59.80861244,Chrome,1280,800,,,,,0,594,,,,,,,,,,,,,,,,,B,174,triangle,1,0,,,,,,,,,,,,,,,,repeat,letter,lettRpt,d,1.1558,Hi,,,,,,0,,,,,,space,5.7915,high,0,0,0,0,1,,,,,,,,,
295309,2022-11-28_17h36.16.527,vts_reward_expectancy_bt,2022.2.4,Win32,59.80861244,Chrome,1280,800,,,,,0,594,,,,,,,,,,,,,,,,,F,160,hexagon,0,0,,,,,,,,,,,,,,,,repeat,letter,NA,f,1.3719,Hi,,,,,,0,,,,,,,,high,1,0,1,0,1,,,,,,,,,
295309,2022-11-28_17h36.16.527,vts_reward_expectancy_bt,2022.2.4,Win32,59.80861244,Chrome,1280,800,,,,,1,595,,,,,,,,,,,,,,,,,H,146,circle,1,1,,,,,,,,,,,,,,,,repeat,letter,lettRpt,d,0.67,Lo,,,,,,0,,,,,,,,high,2,0,2,0,1,,,,,,,,,
295309,2022-11-28_17h36.16.527,vts_reward_expectancy_bt,2022.2.4,Win32,59.80861244,Chrome,1280,800,,,,,1,596,,,,,,,,,,,,,,,,,D,167,star,1,0,,,,,,,,,,,,,,,,repeat,letter,lettRpt,d,0.5904,Lo,,,,,,0,,,,,,,,high,3,0,3,0,1,,,,,,,,,
295309,2022-11-28_17h36.16.527,vts_reward_expectancy_bt,2022.2.4,Win32,59.80861244,Chrome,1280,800,,,,,10,606,,,,,,,,,,,,,,,,,S,181,triangle,1,0,,,,,,,,,,,,,,,,switch,number,numSwt,k,0.4459,Hi,,,,,,0,,,,,,,,high,4,0,4,0,1,,,,,,,,,
295309,2022-11-28_17h36.16.527,vts_reward_expectancy_bt,2022.2.4,Win32,59.80861244,Chrome,1280,800,,,,,10,616,,,,,,,,,,,,,,,,,Y,125,hexagon,1,0,,,,,,,,,,,,,,,,repeat,number,numRpt,j,0.5349,Hi,,,,,,0,,,,,,,,high,5,0,5,0,1,,,,,,,,,
295309,2022-11-28_17h36.16.527,vts_reward_expectancy_bt,2022.2.4,Win32,59.80861244,Chrome,1280,800,,,,,1,617,,,,,,,,,,,,,,,,,W,139,circle,1,0,,,,,,,,,,,,,,,,repeat,number,numRpt,j,0.4681,Lo,,,,,,0,,,,,,,,high,6,0,6,0,1,,,,,,,,,
295309,2022-11-28_17h36.16.527,vts_reward_expectancy_bt,2022.2.4,Win32,59.80861244,Chrome,1280,800,,,,,1,618,,,,,,,,,,,,,,,,,U,132,star,1,0,,,,,,,,,,,,,,,,repeat,number,numRpt,j,0.684,Lo,,,,,,0,,,,,,,,high,7,0,7,0,1,,,,,,,,,
295309,2022-11-28_17h36.16.527,vts_reward_expectancy_bt,2022.2.4,Win32,59.80861244,Chrome,1280,800,,,,,10,628,,,,,,,,,,,,,,,,,B,174,triangle,1,0,,,,,,,,,,,,,,,,switch,letter,lettSwt,d,0.5895,Hi,,,,,,0,,,,,,,,high,8,0,8,0,1,,,,,,,,,
295309,2022-11-28_17h36.16.527,vts_reward_expectancy_bt,2022.2.4,Win32,59.80861244,Chrome,1280,800,,,,,1,629,,,,,,,,,,,,,,,,,F,160,star,1,0,,,,,,,,,,,,,,,,repeat,letter,lettRpt,d,0.3505,Lo,,,,,,0,,,,,,,,high,9,0,9,0,1,,,,,,,,,
295309,2022-11-28_17h36.16.527,vts_reward_expectancy_bt,2022.2.4,Win32,59.80861244,Chrome,1280,800,,,,,10,639,,,,,,,,,,,,,,,,,H,146,hexagon,1,0,,,,,,,,,,,,,,,,repeat,letter,lettRpt,d,0.2771,Hi,,,,,,0,,,,,,,,high,10,0,10,0,1,,,,,,,,,
295309,2022-11-28_17h36.16.527,vts_reward_expectancy_bt,2022.2.4,Win32,59.80861244,Chrome,1280,800,,,,,1,640,,,,,,,,,,,,,,,,,D,167,circle,1,0,,,,,,,,,,,,,,,,repeat,letter,lettRpt,d,0.4931,Lo,,,,,,0,,,,,,,,high,11,0,11,0,1,,,,,,,,,
295309,2022-11-28_17h36.16.527,vts_reward_expectancy_bt,2022.2.4,Win32,59.80861244,Chrome,1280,800,,,,,0,640,,,,,,,,,,,,,,,,,S,181,hexagon,0,0,,,,,,,,,,,,,,,,repeat,letter,NA,d,0.5915,Lo,,,,,,0,,,,,,,,high,12,0,12,0,1,,,,,,,,,
295309,2022-11-28_17h36.16.527,vts_reward_expectancy_bt,2022.2.4,Win32,59.80861244,Chrome,1280,800,,,,,1,641,,,,,,,,,,,,,,,,,Y,125,star,1,1,,,,,,,,,,,,,,,,repeat,letter,lettRpt,f,0.7086,Lo,,,,,,0,,,,,,,,high,13,0,13,0,1,,,,,,,,,
295309,2022-11-28_17h36.16.527,vts_reward_expectancy_bt,2022.2.4,Win32,59.80861244,Chrome,1280,800,,,,,1,642,,,,,,,,,,,,,,,,,W,139,triangle,1,0,,,,,,,,,,,,,,,,repeat,letter,lettRpt,f,0.5711,Hi,,,,,,0,,,,,,,,high,14,0,14,0,1,,,,,,,,,
295309,2022-11-28_17h36.16.527,vts_reward_expectancy_bt,2022.2.4,Win32,59.80861244,Chrome,1280,800,,,,,1,643,,,,,,,,,,,,,,,,,U,132,circle,1,0,,,,,,,,,,,,,,,,repeat,letter,lettRpt,f,0.7354,Lo,,,,,,0,,,,,,,,high,15,0,15,0,1,,,,,,,,,
295309,2022-11-28_17h36.16.527,vts_reward_expectancy_bt,2022.2.4,Win32,59.80861244,Chrome,1280,800,,,,,1,644,,,,,,,,,,,,,,,,,W,174,circle,1,0,,,,,,,,,,,,,,,,repeat,letter,lettRpt,f,0.7088,Lo,,,,,,0,,,,,,,,high,16,0,16,0,1,,,,,,,,,
295309,2022-11-28_17h36.16.527,vts_reward_expectancy_bt,2022.2.4,Win32,59.80861244,Chrome,1280,800,,,,,0,644,,,,,,,,,,,,,,,,,D,160,star,0,0,,,,,,,,,,,,,,,,switch,number,NA,j,0.4998,Lo,,,,,,0,,,,,,,,high,17,0,17,0,1,,,,,,,,,
295309,2022-11-28_17h36.16.527,vts_reward_expectancy_bt,2022.2.4,Win32,59.80861244,Chrome,1280,800,,,,,10,654,,,,,,,,,,,,,,,,,B,181,triangle,1,1,,,,,,,,,,,,,,,,repeat,number,numRpt,k,0.7895,Hi,,,,,,0,,,,,,,,high,18,0,18,0,1,,,,,,,,,
295309,2022-11-28_17h36.16.527,vts_reward_expectancy_bt,2022.2.4,Win32,59.80861244,Chrome,1280,800,,,,,10,664,,,,,,,,,,,,,,,,,F,132,hexagon,1,0,,,,,,,,,,,,,,,,repeat,number,numRpt,j,0.5167,Hi,,,,,,0,,,,,,,,high,19,0,19,0,1,,,,,,,,,
295309,2022-11-28_17h36.16.527,vts_reward_expectancy_bt,2022.2.4,Win32,59.80861244,Chrome,1280,800,,,,,1,665,,,,,,,,,,,,,,,,,H,125,star,1,0,,,,,,,,,,,,,,,,repeat,number,numRpt,j,0.4529,Lo,,,,,,0,,,,,,,,high,20,0,20,0,1,,,,,,,,,
295309,2022-11-28_17h36.16.527,vts_reward_expectancy_bt,2022.2.4,Win32,59.80861244,Chrome,1280,800,,,,,10,675,,,,,,,,,,,,,,,,,Y,146,circle,1,0,,,,,,,,,,,,,,,,repeat,number,numRpt,j,0.6913,Lo,,,,,,0,,,,,,,,high,21,0,21,0,1,,,,,,,,,
295309,2022-11-28_17h36.16.527,vts_reward_expectancy_bt,2022.2.4,Win32,59.80861244,Chrome,1280,800,,,,,0,675,,,,,,,,,,,,,,,,,S,167,triangle,0,0,,,,,,,,,,,,,,,,repeat,number,NA,j,0.5057,Lo,,,,,,0,,,,,,,,high,22,0,22,0,1,,,,,,,,,
295309,2022-11-28_17h36.16.527,vts_reward_expectancy_bt,2022.2.4,Win32,59.80861244,Chrome,1280,800,,,,,10,685,,,,,,,,,,,,,,,,,U,139,hexagon,1,1,,,,,,,,,,,,,,,,repeat,number,numRpt,j,0.6555,Hi,,,,,,0,,,,,,,,high,23,0,23,0,1,,,,,,,,,
295309,2022-11-28_17h36.16.527,vts_reward_expectancy_bt,2022.2.4,Win32,59.80861244,Chrome,1280,800,,,,,0,685,,,,,,,,,,,,,,,,,H,139,circle,0,0,,,,,,,,,,,,,,,,repeat,number,NA,k,0.3831,Hi,,,,,,0,,,,,,,,high,24,0,24,0,1,,,,,,,,,
295309,2022-11-28_17h36.16.527,vts_reward_expectancy_bt,2022.2.4,Win32,59.80861244,Chrome,1280,800,,,,,1,686,,,,,,,,,,,,,,,,,F,146,star,1,1,,,,,,,,,,,,,,,,switch,letter,lettSwt,d,0.6334,Lo,,,,,,0,,,,,,,,high,25,0,25,0,1,,,,,,,,,
295309,2022-11-28_17h36.16.527,vts_reward_expectancy_bt,2022.2.4,Win32,59.80861244,Chrome,1280,800,,,,,10,696,,,,,,,,,,,,,,,,,Y,160,hexagon,1,0,,,,,,,,,,,,,,,,repeat,letter,lettRpt,f,0.5835,Hi,,,,,,0,,,,,,,,high,26,0,26,0,1,,,,,,,,,
295309,2022-11-28_17h36.16.527,vts_reward_expectancy_bt,2022.2.4,Win32,59.80861244,Chrome,1280,800,,,,,0,696,,,,,,,,,,,,,,,,,S,174,triangle,0,0,,,,,,,,,,,,,,,,repeat,letter,NA,d,0.5201,Hi,,,,,,0,,,,,,,,high,27,0,27,0,1,,,,,,,,,
295309,2022-11-28_17h36.16.527,vts_reward_expectancy_bt,2022.2.4,Win32,59.80861244,Chrome,1280,800,,,,,1,697,,,,,,,,,,,,,,,,,W,181,circle,1,1,,,,,,,,,,,,,,,,repeat,letter,lettRpt,f,0.5012,Lo,,,,,,0,,,,,,,,high,28,0,28,0,1,,,,,,,,,
295309,2022-11-28_17h36.16.527,vts_reward_expectancy_bt,2022.2.4,Win32,59.80861244,Chrome,1280,800,,,,,0,697,,,,,,,,,,,,,,,,,D,125,triangle,1,0,,,,,,,,,,,,,,,,repeat,letter,lettRpt,d,1.3386,Hi,,,,,,0,,,,,,,,high,29,0,29,0,1,,,,,,,,,
295309,2022-11-28_17h36.16.527,vts_reward_expectancy_bt,2022.2.4,Win32,59.80861244,Chrome,1280,800,,,,,1,698,,,,,,,,,,,,,,,,,U,132,hexagon,1,0,,,,,,,,,,,,,,,,repeat,letter,lettRpt,f,0.6,Hi,,,,,,0,,,,,,,,high,30,0,30,0,1,,,,,,,,,
295309,2022-11-28_17h36.16.527,vts_reward_expectancy_bt,2022.2.4,Win32,59.80861244,Chrome,1280,800,,,,,10,708,,,,,,,,,,,,,,,,,B,167,star,1,0,,,,,,,,,,,,,,,,repeat,letter,lettRpt,d,0.8039,Lo,,,,,,0,,,,,,,,high,31,0,31,0,1,,,,,,,,,
295309,2022-11-28_17h36.16.527,vts_reward_expectancy_bt,2022.2.4,Win32,59.80861244,Chrome,1280,800,,,,,0,708,,,,,,,,,,,,,,,,,F,139,hexagon,1,0,,,,,,,,,,,,,,,,switch,number,numSwt,j,0.8049,Hi,,,,,,1,,,,,,space,1.3666,high,0,0,0,0,1,,,,,,,,,
295309,2022-11-28_17h36.16.527,vts_reward_expectancy_bt,2022.2.4,Win32,59.80861244,Chrome,1280,800,,,,,0,708,,,,,,,,,,,,,,,,,D,167,circle,0,0,,,,,,,,,,,,,,,,repeat,number,NA,j,0.3919,Hi,,,,,,1,,,,,,,,high,1,0,1,0,1,,,,,,,,,
295309,2022-11-28_17h36.16.527,vts_reward_expectancy_bt,2022.2.4,Win32,59.80861244,Chrome,1280,800,,,,,1,709,,,,,,,,,,,,,,,,,H,174,star,1,1,,,,,,,,,,,,,,,,repeat,number,numRpt,k,0.7349,Lo,,,,,,1,,,,,,,,high,2,0,2,0,1,,,,,,,,,
295309,2022-11-28_17h36.16.527,vts_reward_expectancy_bt,2022.2.4,Win32,59.80861244,Chrome,1280,800,,,,,10,719,,,,,,,,,,,,,,,,,B,181,triangle,1,0,,,,,,,,,,,,,,,,repeat,number,numRpt,k,0.518,Hi,,,,,,1,,,,,,,,high,3,0,3,0,1,,,,,,,,,
295309,2022-11-28_17h36.16.527,vts_reward_expectancy_bt,2022.2.4,Win32,59.80861244,Chrome,1280,800,,,,,0,719,,,,,,,,,,,,,,,,,Y,125,hexagon,0,0,,,,,,,,,,,,,,,,repeat,number,NA,k,0.4207,Hi,,,,,,1,,,,,,,,high,4,0,4,0,1,,,,,,,,,
295309,2022-11-28_17h36.16.527,vts_reward_expectancy_bt,2022.2.4,Win32,59.80861244,Chrome,1280,800,,,,,1,720,,,,,,,,,,,,,,,,,W,146,circle,1,1,,,,,,,,,,,,,,,,repeat,number,numRpt,j,0.935,Lo,,,,,,1,,,,,,,,high,5,0,5,0,1,,,,,,,,,
295309,2022-11-28_17h36.16.527,vts_reward_expectancy_bt,2022.2.4,Win32,59.80861244,Chrome,1280,800,,,,,0,720,,,,,,,,,,,,,,,,,U,160,star,0,0,,,,,,,,,,,,,,,,repeat,number,NA,j,1.1183,Lo,,,,,,1,,,,,,,,high,6,0,6,0,1,,,,,,,,,
295309,2022-11-28_17h36.16.527,vts_reward_expectancy_bt,2022.2.4,Win32,59.80861244,Chrome,1280,800,,,,,0,720,,,,,,,,,,,,,,,,,S,132,triangle,1,1,,,,,,,,,,,,,,,,repeat,number,numRpt,j,0.8117,Hi,,,,,,1,,,,,,,,high,7,0,7,0,1,,,,,,,,,
295309,2022-11-28_17h36.16.527,vts_reward_expectancy_bt,2022.2.4,Win32,59.80861244,Chrome,1280,800,,,,,0,720,,,,,,,,,,,,,,,,,F,139,hexagon,1,0,,,,,,,,,,,,,,,,repeat,number,numRpt,j,0.8597,Hi,,,,,,1,,,,,,,,high,8,0,8,0,1,,,,,,,,,
295309,2022-11-28_17h36.16.527,vts_reward_expectancy_bt,2022.2.4,Win32,59.80861244,Chrome,1280,800,,,,,1,721,,,,,,,,,,,,,,,,,D,167,circle,1,0,,,,,,,,,,,,,,,,repeat,number,numRpt,k,0.6849,Lo,,,,,,1,,,,,,,,high,9,0,9,0,1,,,,,,,,,
295309,2022-11-28_17h36.16.527,vts_reward_expectancy_bt,2022.2.4,Win32,59.80861244,Chrome,1280,800,,,,,0,721,,,,,,,,,,,,,,,,,H,174,triangle,0,0,,,,,,,,,,,,,,,,repeat,number,NA,j,0.9272,Lo,,,,,,1,,,,,,,,high,10,0,10,0,1,,,,,,,,,
295309,2022-11-28_17h36.16.527,vts_reward_expectancy_bt,2022.2.4,Win32,59.80861244,Chrome,1280,800,,,,,1,722,,,,,,,,,,,,,,,,,B,181,star,1,1,,,,,,,,,,,,,,,,repeat,number,numRpt,k,0.8171,Lo,,,,,,1,,,,,,,,high,11,0,11,0,1,,,,,,,,,
295309,2022-11-28_17h36.16.527,vts_reward_expectancy_bt,2022.2.4,Win32,59.80861244,Chrome,1280,800,,,,,1,723,,,,,,,,,,,,,,,,,Y,125,star,1,0,,,,,,,,,,,,,,,,repeat,number,numRpt,j,1.117,Lo,,,,,,1,,,,,,,,high,12,0,12,0,1,,,,,,,,,
295309,2022-11-28_17h36.16.527,vts_reward_expectancy_bt,2022.2.4,Win32,59.80861244,Chrome,1280,800,,,,,0,723,,,,,,,,,,,,,,,,,W,146,triangle,1,0,,,,,,,,,,,,,,,,repeat,number,numRpt,j,0.7171,Hi,,,,,,1,,,,,,,,high,13,0,13,0,1,,,,,,,,,
295309,2022-11-28_17h36.16.527,vts_reward_expectancy_bt,2022.2.4,Win32,59.80861244,Chrome,1280,800,,,,,0,723,,,,,,,,,,,,,,,,,U,160,hexagon,1,0,,,,,,,,,,,,,,,,repeat,number,numRpt,k,0.9498,Hi,,,,,,1,,,,,,,,high,14,0,14,0,1,,,,,,,,,
295309,2022-11-28_17h36.16.527,vts_reward_expectancy_bt,2022.2.4,Win32,59.80861244,Chrome,1280,800,,,,,1,724,,,,,,,,,,,,,,,,,S,132,circle,1,0,,,,,,,,,,,,,,,,repeat,number,numRpt,j,0.8503,Lo,,,,,,1,,,,,,,,high,15,0,15,0,1,,,,,,,,,
295309,2022-11-28_17h36.16.527,vts_reward_expectancy_bt,2022.2.4,Win32,59.80861244,Chrome,1280,800,,,,,0,724,,,,,,,,,,,,,,,,,U,139,hexagon,1,0,,,,,,,,,,,,,,,,repeat,number,numRpt,j,1.0993,Hi,,,,,,1,,,,,,,,high,16,0,16,0,1,,,,,,,,,
295309,2022-11-28_17h36.16.527,vts_reward_expectancy_bt,2022.2.4,Win32,59.80861244,Chrome,1280,800,,,,,1,725,,,,,,,,,,,,,,,,,H,167,circle,1,0,,,,,,,,,,,,,,,,repeat,number,numRpt,k,0.7859,Lo,,,,,,1,,,,,,,,high,17,0,17,0,1,,,,,,,,,
295309,2022-11-28_17h36.16.527,vts_reward_expectancy_bt,2022.2.4,Win32,59.80861244,Chrome,1280,800,,,,,10,735,,,,,,,,,,,,,,,,,S,174,star,1,0,,,,,,,,,,,,,,,,repeat,number,numRpt,k,0.7501,Lo,,,,,,1,,,,,,,,high,18,0,18,0,1,,,,,,,,,
295309,2022-11-28_17h36.16.527,vts_reward_expectancy_bt,2022.2.4,Win32,59.80861244,Chrome,1280,800,,,,,0,735,,,,,,,,,,,,,,,,,F,181,triangle,1,0,,,,,,,,,,,,,,,,repeat,number,numRpt,k,0.5263,Hi,,,,,,1,,,,,,,,high,19,0,19,0,1,,,,,,,,,
295309,2022-11-28_17h36.16.527,vts_reward_expectancy_bt,2022.2.4,Win32,59.80861244,Chrome,1280,800,,,,,1,736,,,,,,,,,,,,,,,,,D,160,star,1,0,,,,,,,,,,,,,,,,repeat,number,numRpt,k,0.0907,Lo,,,,,,1,,,,,,,,high,20,0,20,0,1,,,,,,,,,
295309,2022-11-28_17h36.16.527,vts_reward_expectancy_bt,2022.2.4,Win32,59.80861244,Chrome,1280,800,,,,,0,736,,,,,,,,,,,,,,,,,B,125,hexagon,0,0,,,,,,,,,,,,,,,,repeat,number,NA,k,0.0174,Lo,,,,,,1,,,,,,,,high,21,0,21,0,1,,,,,,,,,
295309,2022-11-28_17h36.16.527,vts_reward_expectancy_bt,2022.2.4,Win32,59.80861244,Chrome,1280,800,,,,,1,737,,,,,,,,,,,,,,,,,W,146,circle,1,1,,,,,,,,,,,,,,,,repeat,number,numRpt,j,0.0689,Lo,,,,,,1,,,,,,,,high,22,0,22,0,1,,,,,,,,,
295309,2022-11-28_17h36.16.527,vts_reward_expectancy_bt,2022.2.4,Win32,59.80861244,Chrome,1280,800,,,,,10,747,,,,,,,,,,,,,,,,,Y,132,triangle,1,0,,,,,,,,,,,,,,,,repeat,number,numRpt,j,0.0006,Hi,,,,,,1,,,,,,,,high,23,0,23,0,1,,,,,,,,,
295309,2022-11-28_17h36.16.527,vts_reward_expectancy_bt,2022.2.4,Win32,59.80861244,Chrome,1280,800,,,,,0,747,,,,,,,,,,,,,,,,,H,146,triangle,0,0,,,,,,,,,,,,,,,,repeat,number,NA,k,0.0873,Hi,,,,,,1,,,,,,,,high,24,0,24,0,1,,,,,,,,,
295309,2022-11-28_17h36.16.527,vts_reward_expectancy_bt,2022.2.4,Win32,59.80861244,Chrome,1280,800,,,,,0,747,,,,,,,,,,,,,,,,,D,181,hexagon,0,1,,,,,,,,,,,,,,,,repeat,number,NA,j,0.0715,Hi,,,,,,1,,,,,,,,high,25,0,25,0,1,,,,,,,,,
295309,2022-11-28_17h36.16.527,vts_reward_expectancy_bt,2022.2.4,Win32,59.80861244,Chrome,1280,800,,,,,1,748,,,,,,,,,,,,,,,,,Y,167,circle,1,1,,,,,,,,,,,,,,,,repeat,number,numRpt,k,0.024,Lo,,,,,,1,,,,,,,,high,26,0,26,0,1,,,,,,,,,
295309,2022-11-28_17h36.16.527,vts_reward_expectancy_bt,2022.2.4,Win32,59.80861244,Chrome,1280,800,,,,,0,748,,,,,,,,,,,,,,,,,F,139,star,0,0,,,,,,,,,,,,,,,,repeat,number,NA,k,0.0004,Lo,,,,,,1,,,,,,,,high,27,0,27,0,1,,,,,,,,,
295309,2022-11-28_17h36.16.527,vts_reward_expectancy_bt,2022.2.4,Win32,59.80861244,Chrome,1280,800,,,,,0,748,,,,,,,,,,,,,,,,,B,174,triangle,0,1,,,,,,,,,,,,,,,,repeat,number,NA,j,0.1182,Lo,,,,,,1,,,,,,,,high,28,0,28,0,1,,,,,,,,,
295309,2022-11-28_17h36.16.527,vts_reward_expectancy_bt,2022.2.4,Win32,59.80861244,Chrome,1280,800,,,,,0,748,,,,,,,,,,,,,,,,,U,160,hexagon,0,1,,,,,,,,,,,,,,,,switch,letter,NA,d,0.0349,Lo,,,,,,1,,,,,,,,high,29,0,29,0,1,,,,,,,,,
295309,2022-11-28_17h36.16.527,vts_reward_expectancy_bt,2022.2.4,Win32,59.80861244,Chrome,1280,800,,,,,0,748,,,,,,,,,,,,,,,,,S,125,circle,0,1,,,,,,,,,,,,,,,,repeat,letter,NA,d,0.0006,Lo,,,,,,1,,,,,,,,high,30,0,30,0,1,,,,,,,,,
295309,2022-11-28_17h36.16.527,vts_reward_expectancy_bt,2022.2.4,Win32,59.80861244,Chrome,1280,800,,,,,0,748,,,,,,,,,,,,,,,,,W,132,star,0,1,,,,,,,,,,,,,,,,repeat,letter,NA,d,0.0589,Lo,,,,,,1,,,,,,,,high,31,0,31,0,1,,,,,,,,,
295309,2022-11-28_17h36.16.527,vts_reward_expectancy_bt,2022.2.4,Win32,59.80861244,Chrome,1280,800,,,,,10,758,,,,,,,,,,,,,,,,,D,139,star,1,1,,,,,,,,,,,,,,,,switch,number,numSwt,j,0.9678,Lo,,,,,,2,,,,,,space,5.3767,high,0,0,0,0,1,,,,,,,,,
295309,2022-11-28_17h36.16.527,vts_reward_expectancy_bt,2022.2.4,Win32,59.80861244,Chrome,1280,800,,,,,0,758,,,,,,,,,,,,,,,,,U,181,triangle,1,0,,,,,,,,,,,,,,,,repeat,number,numRpt,k,0.8847,Hi,,,,,,2,,,,,,,,high,1,0,1,0,1,,,,,,,,,
295309,2022-11-28_17h36.16.527,vts_reward_expectancy_bt,2022.2.4,Win32,59.80861244,Chrome,1280,800,,,,,10,768,,,,,,,,,,,,,,,,,S,132,hexagon,1,0,,,,,,,,,,,,,,,,repeat,number,numRpt,j,0.5711,Hi,,,,,,2,,,,,,,,high,2,0,2,0,1,,,,,,,,,
295309,2022-11-28_17h36.16.527,vts_reward_expectancy_bt,2022.2.4,Win32,59.80861244,Chrome,1280,800,,,,,0,768,,,,,,,,,,,,,,,,,Y,160,circle,0,0,,,,,,,,,,,,,,,,repeat,number,NA,j,0.8012,Hi,,,,,,2,,,,,,,,high,3,0,3,0,1,,,,,,,,,
295309,2022-11-28_17h36.16.527,vts_reward_expectancy_bt,2022.2.4,Win32,59.80861244,Chrome,1280,800,,,,,10,778,,,,,,,,,,,,,,,,,H,125,star,1,1,,,,,,,,,,,,,,,,repeat,number,numRpt,j,0.5175,Lo,,,,,,2,,,,,,,,high,4,0,4,0,1,,,,,,,,,
295309,2022-11-28_17h36.16.527,vts_reward_expectancy_bt,2022.2.4,Win32,59.80861244,Chrome,1280,800,,,,,10,788,,,,,,,,,,,,,,,,,B,167,triangle,1,0,,,,,,,,,,,,,,,,repeat,number,numRpt,k,0.3128,Hi,,,,,,2,,,,,,,,high,5,0,5,0,1,,,,,,,,,
295309,2022-11-28_17h36.16.527,vts_reward_expectancy_bt,2022.2.4,Win32,59.80861244,Chrome,1280,800,,,,,10,798,,,,,,,,,,,,,,,,,W,146,hexagon,1,0,,,,,,,,,,,,,,,,repeat,number,numRpt,j,0.6565,Hi,,,,,,2,,,,,,,,high,6,0,6,0,1,,,,,,,,,
295309,2022-11-28_17h36.16.527,vts_reward_expectancy_bt,2022.2.4,Win32,59.80861244,Chrome,1280,800,,,,,1,799,,,,,,,,,,,,,,,,,F,174,circle,1,0,,,,,,,,,,,,,,,,repeat,number,numRpt,k,0.6517,Lo,,,,,,2,,,,,,,,high,7,0,7,0,1,,,,,,,,,
295309,2022-11-28_17h36.16.527,vts_reward_expectancy_bt,2022.2.4,Win32,59.80861244,Chrome,1280,800,,,,,1,800,,,,,,,,,,,,,,,,,D,139,circle,1,0,,,,,,,,,,,,,,,,repeat,number,numRpt,j,0.7673,Lo,,,,,,2,,,,,,,,high,8,0,8,0,1,,,,,,,,,
295309,2022-11-28_17h36.16.527,vts_reward_expectancy_bt,2022.2.4,Win32,59.80861244,Chrome,1280,800,,,,,10,810,,,,,,,,,,,,,,,,,U,181,triangle,1,0,,,,,,,,,,,,,,,,repeat,number,numRpt,k,0.4691,Hi,,,,,,2,,,,,,,,high,9,0,9,0,1,,,,,,,,,
295309,2022-11-28_17h36.16.527,vts_reward_expectancy_bt,2022.2.4,Win32,59.80861244,Chrome,1280,800,,,,,1,811,,,,,,,,,,,,,,,,,S,132,star,1,0,,,,,,,,,,,,,,,,repeat,number,numRpt,j,0.7559,Lo,,,,,,2,,,,,,,,high,10,0,10,0,1,,,,,,,,,
295309,2022-11-28_17h36.16.527,vts_reward_expectancy_bt,2022.2.4,Win32,59.80861244,Chrome,1280,800,,,,,0,811,,,,,,,,,,,,,,,,,Y,160,hexagon,0,0,,,,,,,,,,,,,,,,repeat,number,NA,j,0.8796,Lo,,,,,,2,,,,,,,,high,11,0,11,0,1,,,,,,,,,
295309,2022-11-28_17h36.16.527,vts_reward_expectancy_bt,2022.2.4,Win32,59.80861244,Chrome,1280,800,,,,,0,811,,,,,,,,,,,,,,,,,H,125,circle,0,1,,,,,,,,,,,,,,,,repeat,number,NA,k,0.8943,Lo,,,,,,2,,,,,,,,high,12,0,12,0,1,,,,,,,,,
295309,2022-11-28_17h36.16.527,vts_reward_expectancy_bt,2022.2.4,Win32,59.80861244,Chrome,1280,800,,,,,0,811,,,,,,,,,,,,,,,,,B,167,star,0,1,,,,,,,,,,,,,,,,repeat,number,NA,j,1.0222,Lo,,,,,,2,,,,,,,,high,13,0,13,0,1,,,,,,,,,
295309,2022-11-28_17h36.16.527,vts_reward_expectancy_bt,2022.2.4,Win32,59.80861244,Chrome,1280,800,,,,,0,811,,,,,,,,,,,,,,,,,W,146,hexagon,1,1,,,,,,,,,,,,,,,,repeat,number,numRpt,j,0.7995,Hi,,,,,,2,,,,,,,,high,14,0,14,0,1,,,,,,,,,
295309,2022-11-28_17h36.16.527,vts_reward_expectancy_bt,2022.2.4,Win32,59.80861244,Chrome,1280,800,,,,,10,821,,,,,,,,,,,,,,,,,F,174,triangle,1,0,,,,,,,,,,,,,,,,repeat,number,numRpt,k,0.5612,Hi,,,,,,2,,,,,,,,high,15,0,15,0,1,,,,,,,,,
295309,2022-11-28_17h36.16.527,vts_reward_expectancy_bt,2022.2.4,Win32,59.80861244,Chrome,1280,800,,,,,0,821,,,,,,,,,,,,,,,,,H,160,triangle,0,0,,,,,,,,,,,,,,,,repeat,number,NA,j,0.7281,Hi,,,,,,2,,,,,,,,high,16,0,16,0,1,,,,,,,,,
295309,2022-11-28_17h36.16.527,vts_reward_expectancy_bt,2022.2.4,Win32,59.80861244,Chrome,1280,800,,,,,0,821,,,,,,,,,,,,,,,,,S,132,circle,0,1,,,,,,,,,,,,,,,,repeat,number,NA,k,1.2224,Hi,,,,,,2,,,,,,,,high,17,0,17,0,1,,,,,,,,,
295309,2022-11-28_17h36.16.527,vts_reward_expectancy_bt,2022.2.4,Win32,59.80861244,Chrome,1280,800,,,,,1,822,,,,,,,,,,,,,,,,,W,174,star,1,1,,,,,,,,,,,,,,,,repeat,number,numRpt,k,0.6392,Lo,,,,,,2,,,,,,,,high,18,0,18,0,1,,,,,,,,,
295309,2022-11-28_17h36.16.527,vts_reward_expectancy_bt,2022.2.4,Win32,59.80861244,Chrome,1280,800,,,,,0,822,,,,,,,,,,,,,,,,,U,146,hexagon,0,0,,,,,,,,,,,,,,,,repeat,number,NA,k,0.4368,Lo,,,,,,2,,,,,,,,high,19,0,19,0,1,,,,,,,,,
295309,2022-11-28_17h36.16.527,vts_reward_expectancy_bt,2022.2.4,Win32,59.80861244,Chrome,1280,800,,,,,0,822,,,,,,,,,,,,,,,,,Y,139,hexagon,1,1,,,,,,,,,,,,,,,,repeat,number,numRpt,j,0.8095,Hi,,,,,,2,,,,,,,,high,20,0,20,0,1,,,,,,,,,
295309,2022-11-28_17h36.16.527,vts_reward_expectancy_bt,2022.2.4,Win32,59.80861244,Chrome,1280,800,,,,,0,822,,,,,,,,,,,,,,,,,B,167,triangle,0,0,,,,,,,,,,,,,,,,repeat,number,NA,j,1.1059,Hi,,,,,,2,,,,,,,,high,21,0,21,0,1,,,,,,,,,
295309,2022-11-28_17h36.16.527,vts_reward_expectancy_bt,2022.2.4,Win32,59.80861244,Chrome,1280,800,,,,,1,823,,,,,,,,,,,,,,,,,F,181,circle,1,1,,,,,,,,,,,,,,,,repeat,number,numRpt,k,0.1715,Lo,,,,,,2,,,,,,,,high,22,0,22,0,1,,,,,,,,,
295309,2022-11-28_17h36.16.527,vts_reward_expectancy_bt,2022.2.4,Win32,59.80861244,Chrome,1280,800,,,,,0,823,,,,,,,,,,,,,,,,,D,125,star,0,0,,,,,,,,,,,,,,,,repeat,number,NA,k,0.0034,Lo,,,,,,2,,,,,,,,high,23,0,23,0,1,,,,,,,,,
295309,2022-11-28_17h36.16.527,vts_reward_expectancy_bt,2022.2.4,Win32,59.80861244,Chrome,1280,800,,,,,10,833,,,,,,,,,,,,,,,,,H,160,hexagon,1,1,,,,,,,,,,,,,,,,repeat,number,numRpt,k,0.0607,Hi,,,,,,2,,,,,,,,high,24,0,24,0,1,,,,,,,,,
295309,2022-11-28_17h36.16.527,vts_reward_expectancy_bt,2022.2.4,Win32,59.80861244,Chrome,1280,800,,,,,10,843,,,,,,,,,,,,,,,,,F,181,circle,1,0,,,,,,,,,,,,,,,,repeat,number,numRpt,k,0.1543,Lo,,,,,,2,,,,,,,,high,25,0,25,0,1,,,,,,,,,
295309,2022-11-28_17h36.16.527,vts_reward_expectancy_bt,2022.2.4,Win32,59.80861244,Chrome,1280,800,,,,,0,843,,,,,,,,,,,,,,,,,D,125,triangle,-1,0,,,,,,,,,,,,,,,,switch,no_choice,NA,,,Lo,,,,,,2,,,,,,,,high,26,0,26,0,1,,,,,,,,,
295309,2022-11-28_17h36.16.527,vts_reward_expectancy_bt,2022.2.4,Win32,59.80861244,Chrome,1280,800,,,,,1,844,,,,,,,,,,,,,,,,,B,146,star,1,0,,,,,,,,,,,,,,,,switch,letter,lettSwt,d,1.2352,Lo,,,,,,2,,,,,,,,high,27,0,27,0,1,,,,,,,,,
295309,2022-11-28_17h36.16.527,vts_reward_expectancy_bt,2022.2.4,Win32,59.80861244,Chrome,1280,800,,,,,0,844,,,,,,,,,,,,,,,,,W,167,star,0,0,,,,,,,,,,,,,,,,repeat,letter,NA,d,0.6416,Lo,,,,,,2,,,,,,,,high,28,0,28,0,1,,,,,,,,,
295309,2022-11-28_17h36.16.527,vts_reward_expectancy_bt,2022.2.4,Win32,59.80861244,Chrome,1280,800,,,,,1,845,,,,,,,,,,,,,,,,,U,132,triangle,1,1,,,,,,,,,,,,,,,,repeat,letter,lettRpt,f,1.729,Hi,,,,,,2,,,,,,,,high,29,0,29,0,1,,,,,,,,,
295309,2022-11-28_17h36.16.527,vts_reward_expectancy_bt,2022.2.4,Win32,59.80861244,Chrome,1280,800,,,,,10,855,,,,,,,,,,,,,,,,,S,174,hexagon,1,0,,,,,,,,,,,,,,,,repeat,letter,lettRpt,f,0.9836,Hi,,,,,,2,,,,,,,,high,30,0,30,0,1,,,,,,,,,
295309,2022-11-28_17h36.16.527,vts_reward_expectancy_bt,2022.2.4,Win32,59.80861244,Chrome,1280,800,,,,,0,855,,,,,,,,,,,,,,,,,Y,139,circle,0,0,,,,,,,,,,,,,,,,repeat,letter,NA,d,0.2731,Hi,,,,,,2,,,,,,,,high,31,0,31,0,1,,,,,,,,,
295309,2022-11-28_17h36.16.527,vts_reward_expectancy_bt,2022.2.4,Win32,59.80861244,Chrome,1280,800,,,,,10,865,,,,,,,,,,,,,,,,,Y,160,circle,1,1,,,,,,,,,,,,,,,,switch,number,numSwt,k,0.02,Lo,,,,,,3,,,,,,space,1.5857,high,0,0,0,0,1,,,,,,,,,
295309,2022-11-28_17h36.16.527,vts_reward_expectancy_bt,2022.2.4,Win32,59.80861244,Chrome,1280,800,,,,,10,875,,,,,,,,,,,,,,,,,F,174,hexagon,1,0,,,,,,,,,,,,,,,,repeat,number,numRpt,k,0.0024,Hi,,,,,,3,,,,,,,,high,1,0,1,0,1,,,,,,,,,
295309,2022-11-28_17h36.16.527,vts_reward_expectancy_bt,2022.2.4,Win32,59.80861244,Chrome,1280,800,,,,,0,875,,,,,,,,,,,,,,,,,H,139,star,0,0,,,,,,,,,,,,,,,,repeat,number,NA,k,0.0006,Hi,,,,,,3,,,,,,,,high,2,0,2,0,1,,,,,,,,,
295309,2022-11-28_17h36.16.527,vts_reward_expectancy_bt,2022.2.4,Win32,59.80861244,Chrome,1280,800,,,,,0,875,,,,,,,,,,,,,,,,,W,146,triangle,0,1,,,,,,,,,,,,,,,,repeat,number,NA,k,0.0673,Hi,,,,,,3,,,,,,,,high,3,0,3,0,1,,,,,,,,,
295309,2022-11-28_17h36.16.527,vts_reward_expectancy_bt,2022.2.4,Win32,59.80861244,Chrome,1280,800,,,,,0,875,,,,,,,,,,,,,,,,,B,132,circle,0,1,,,,,,,,,,,,,,,,repeat,number,NA,k,0.067,Hi,,,,,,3,,,,,,,,high,4,0,4,0,1,,,,,,,,,
295309,2022-11-28_17h36.16.527,vts_reward_expectancy_bt,2022.2.4,Win32,59.80861244,Chrome,1280,800,,,,,0,875,,,,,,,,,,,,,,,,,S,125,hexagon,0,1,,,,,,,,,,,,,,,,repeat,number,NA,k,0.2034,Hi,,,,,,3,,,,,,,,high,5,0,5,0,1,,,,,,,,,
295309,2022-11-28_17h36.16.527,vts_reward_expectancy_bt,2022.2.4,Win32,59.80861244,Chrome,1280,800,,,,,1,876,,,,,,,,,,,,,,,,,D,181,star,1,1,,,,,,,,,,,,,,,,repeat,number,numRpt,k,1.2765,Lo,,,,,,3,,,,,,,,high,6,0,6,0,1,,,,,,,,,
295309,2022-11-28_17h36.16.527,vts_reward_expectancy_bt,2022.2.4,Win32,59.80861244,Chrome,1280,800,,,,,0,876,,,,,,,,,,,,,,,,,U,167,triangle,1,0,,,,,,,,,,,,,,,,repeat,number,numRpt,k,0.5703,Hi,,,,,,3,,,,,,,,high,7,0,7,0,1,,,,,,,,,
295309,2022-11-28_17h36.16.527,vts_reward_expectancy_bt,2022.2.4,Win32,59.80861244,Chrome,1280,800,,,,,0,876,,,,,,,,,,,,,,,,,Y,160,circle,0,0,,,,,,,,,,,,,,,,switch,letter,NA,d,0.153,Hi,,,,,,3,,,,,,,,high,8,0,8,0,1,,,,,,,,,
295309,2022-11-28_17h36.16.527,vts_reward_expectancy_bt,2022.2.4,Win32,59.80861244,Chrome,1280,800,,,,,0,876,,,,,,,,,,,,,,,,,F,174,star,0,1,,,,,,,,,,,,,,,,repeat,letter,NA,f,0.0855,Hi,,,,,,3,,,,,,,,high,9,0,9,0,1,,,,,,,,,
295309,2022-11-28_17h36.16.527,vts_reward_expectancy_bt,2022.2.4,Win32,59.80861244,Chrome,1280,800,,,,,0,876,,,,,,,,,,,,,,,,,H,139,hexagon,0,1,,,,,,,,,,,,,,,,repeat,letter,NA,f,0.0619,Hi,,,,,,3,,,,,,,,high,10,0,10,0,1,,,,,,,,,
295309,2022-11-28_17h36.16.527,vts_reward_expectancy_bt,2022.2.4,Win32,59.80861244,Chrome,1280,800,,,,,10,886,,,,,,,,,,,,,,,,,W,146,triangle,1,1,,,,,,,,,,,,,,,,repeat,letter,lettRpt,f,0.6673,Hi,,,,,,3,,,,,,,,high,11,0,11,0,1,,,,,,,,,
295309,2022-11-28_17h36.16.527,vts_reward_expectancy_bt,2022.2.4,Win32,59.80861244,Chrome,1280,800,,,,,0,886,,,,,,,,,,,,,,,,,B,132,triangle,0,0,,,,,,,,,,,,,,,,repeat,letter,NA,f,0.2633,Hi,,,,,,3,,,,,,,,high,12,0,12,0,1,,,,,,,,,
295309,2022-11-28_17h36.16.527,vts_reward_expectancy_bt,2022.2.4,Win32,59.80861244,Chrome,1280,800,,,,,10,896,,,,,,,,,,,,,,,,,S,125,hexagon,1,1,,,,,,,,,,,,,,,,repeat,letter,lettRpt,f,0.0337,Hi,,,,,,3,,,,,,,,high,13,0,13,0,1,,,,,,,,,
295309,2022-11-28_17h36.16.527,vts_reward_expectancy_bt,2022.2.4,Win32,59.80861244,Chrome,1280,800,,,,,0,896,,,,,,,,,,,,,,,,,D,181,star,-1,0,,,,,,,,,,,,,,,,switch,no_choice,NA,,,Hi,,,,,,3,,,,,,,,high,14,0,14,0,1,,,,,,,,,
295309,2022-11-28_17h36.16.527,vts_reward_expectancy_bt,2022.2.4,Win32,59.80861244,Chrome,1280,800,,,,,0,896,,,,,,,,,,,,,,,,,U,167,circle,-1,0,,,,,,,,,,,,,,,,repeat,no_choice,NA,,,Hi,,,,,,3,,,,,,,,high,15,0,15,0,1,,,,,,,,,
295309,2022-11-28_17h36.16.527,vts_reward_expectancy_bt,2022.2.4,Win32,59.80861244,Chrome,1280,800,,,,,0,896,,,,,,,,,,,,,,,,,W,174,circle,-1,0,,,,,,,,,,,,,,,,repeat,no_choice,NA,,,Hi,,,,,,3,,,,,,,,high,16,0,16,0,1,,,,,,,,,
295309,2022-11-28_17h36.16.527,vts_reward_expectancy_bt,2022.2.4,Win32,59.80861244,Chrome,1280,800,,,,,1,897,,,,,,,,,,,,,,,,,D,132,star,1,0,,,,,,,,,,,,,,,,switch,letter,lettSwt,d,0.0346,Lo,,,,,,3,,,,,,,,high,17,0,17,0,1,,,,,,,,,
295309,2022-11-28_17h36.16.527,vts_reward_expectancy_bt,2022.2.4,Win32,59.80861244,Chrome,1280,800,,,,,10,907,,,,,,,,,,,,,,,,,H,160,triangle,1,0,,,,,,,,,,,,,,,,repeat,letter,lettRpt,d,0.1524,Hi,,,,,,3,,,,,,,,high,18,0,18,0,1,,,,,,,,,
295309,2022-11-28_17h36.16.527,vts_reward_expectancy_bt,2022.2.4,Win32,59.80861244,Chrome,1280,800,,,,,0,907,,,,,,,,,,,,,,,,,Y,167,hexagon,0,0,,,,,,,,,,,,,,,,repeat,letter,NA,d,0.0384,Hi,,,,,,3,,,,,,,,high,19,0,19,0,1,,,,,,,,,
295309,2022-11-28_17h36.16.527,vts_reward_expectancy_bt,2022.2.4,Win32,59.80861244,Chrome,1280,800,,,,,0,907,,,,,,,,,,,,,,,,,U,146,star,0,1,,,,,,,,,,,,,,,,repeat,letter,NA,d,0.0217,Hi,,,,,,3,,,,,,,,high,20,0,20,0,1,,,,,,,,,
295309,2022-11-28_17h36.16.527,vts_reward_expectancy_bt,2022.2.4,Win32,59.80861244,Chrome,1280,800,,,,,0,907,,,,,,,,,,,,,,,,,S,139,triangle,0,1,,,,,,,,,,,,,,,,repeat,letter,NA,d,0.2872,Hi,,,,,,3,,,,,,,,high,21,0,21,0,1,,,,,,,,,
295309,2022-11-28_17h36.16.527,vts_reward_expectancy_bt,2022.2.4,Win32,59.80861244,Chrome,1280,800,,,,,1,908,,,,,,,,,,,,,,,,,F,125,circle,1,1,,,,,,,,,,,,,,,,repeat,letter,lettRpt,d,0.0383,Lo,,,,,,3,,,,,,,,high,22,0,22,0,1,,,,,,,,,
295309,2022-11-28_17h36.16.527,vts_reward_expectancy_bt,2022.2.4,Win32,59.80861244,Chrome,1280,800,,,,,10,918,,,,,,,,,,,,,,,,,B,181,hexagon,1,0,,,,,,,,,,,,,,,,repeat,letter,lettRpt,d,1.4347,Hi,,,,,,3,,,,,,,,high,23,0,23,0,1,,,,,,,,,
295309,2022-11-28_17h36.16.527,vts_reward_expectancy_bt,2022.2.4,Win32,59.80861244,Chrome,1280,800,,,,,0,918,,,,,,,,,,,,,,,,,F,181,triangle,-1,0,,,,,,,,,,,,,,,,switch,no_choice,NA,,,Hi,,,,,,3,,,,,,,,high,24,0,24,0,1,,,,,,,,,
295309,2022-11-28_17h36.16.527,vts_reward_expectancy_bt,2022.2.4,Win32,59.80861244,Chrome,1280,800,,,,,0,918,,,,,,,,,,,,,,,,,S,174,star,-1,0,,,,,,,,,,,,,,,,repeat,no_choice,NA,,,Hi,,,,,,3,,,,,,,,high,25,0,25,0,1,,,,,,,,,
295309,2022-11-28_17h36.16.527,vts_reward_expectancy_bt,2022.2.4,Win32,59.80861244,Chrome,1280,800,,,,,1,919,,,,,,,,,,,,,,,,,B,146,hexagon,1,0,,,,,,,,,,,,,,,,switch,letter,lettSwt,d,0.0005,Hi,,,,,,3,,,,,,,,high,26,0,26,0,1,,,,,,,,,
295309,2022-11-28_17h36.16.527,vts_reward_expectancy_bt,2022.2.4,Win32,59.80861244,Chrome,1280,800,,,,,1,920,,,,,,,,,,,,,,,,,H,139,circle,1,0,,,,,,,,,,,,,,,,repeat,letter,lettRpt,d,2.4841,Lo,,,,,,3,,,,,,,,high,27,0,27,0,1,,,,,,,,,
295309,2022-11-28_17h36.16.527,vts_reward_expectancy_bt,2022.2.4,Win32,59.80861244,Chrome,1280,800,,,,,0,920,,,,,,,,,,,,,,,,,W,160,triangle,0,0,,,,,,,,,,,,,,,,repeat,letter,NA,d,0.2003,Lo,,,,,,3,,,,,,,,high,28,0,28,0,1,,,,,,,,,
295309,2022-11-28_17h36.16.527,vts_reward_expectancy_bt,2022.2.4,Win32,59.80861244,Chrome,1280,800,,,,,10,930,,,,,,,,,,,,,,,,,U,125,hexagon,1,1,,,,,,,,,,,,,,,,repeat,letter,lettRpt,f,0.1887,Hi,,,,,,3,,,,,,,,high,29,0,29,0,1,,,,,,,,,
295309,2022-11-28_17h36.16.527,vts_reward_expectancy_bt,2022.2.4,Win32,59.80861244,Chrome,1280,800,,,,,0,930,,,,,,,,,,,,,,,,,D,167,star,0,0,,,,,,,,,,,,,,,,repeat,letter,NA,f,0.0498,Hi,,,,,,3,,,,,,,,high,30,0,30,0,1,,,,,,,,,
295309,2022-11-28_17h36.16.527,vts_reward_expectancy_bt,2022.2.4,Win32,59.80861244,Chrome,1280,800,,,,,1,931,,,,,,,,,,,,,,,,,Y,132,circle,1,1,,,,,,,,,,,,,,,,repeat,letter,lettRpt,f,0.3036,Lo,,,,,,3,,,,,,,,high,31,0,31,0,1,,,,,,,,,
295309,2022-11-28_17h36.16.527,vts_reward_expectancy_bt,2022.2.4,Win32,59.80861244,Chrome,1280,800,,,,,0,931,,,,,,,,,,,,,,,,,B,174,hexagon,0,0,,,,,,,,,,,,,,,,switch,number,NA,j,0.5217,Lo,,,,,,4,,,,,,space,1.8577,high,0,0,0,0,1,,,,,,,,,
295309,2022-11-28_17h36.16.527,vts_reward_expectancy_bt,2022.2.4,Win32,59.80861244,Chrome,1280,800,,,,,0,931,,,,,,,,,,,,,,,,,Y,132,circle,-1,1,,,,,,,,,,,,,,,,switch,no_choice,NA,,,Lo,,,,,,4,,,,,,,,high,1,0,1,0,1,,,,,,,,,
295309,2022-11-28_17h36.16.527,vts_reward_expectancy_bt,2022.2.4,Win32,59.80861244,Chrome,1280,800,,,,,0,931,,,,,,,,,,,,,,,,,W,160,star,-1,0,,,,,,,,,,,,,,,,repeat,no_choice,NA,,,Lo,,,,,,4,,,,,,,,high,2,0,2,0,1,,,,,,,,,
295309,2022-11-28_17h36.16.527,vts_reward_expectancy_bt,2022.2.4,Win32,59.80861244,Chrome,1280,800,,,,,0,931,,,,,,,,,,,,,,,,,D,167,triangle,1,0,,,,,,,,,,,,,,,,switch,number,numSwt,k,2.1832,Hi,,,,,,4,,,,,,,,high,3,0,3,0,1,,,,,,,,,
295309,2022-11-28_17h36.16.527,vts_reward_expectancy_bt,2022.2.4,Win32,59.80861244,Chrome,1280,800,,,,,0,931,,,,,,,,,,,,,,,,,F,125,hexagon,0,0,,,,,,,,,,,,,,,,repeat,number,NA,k,0.0609,Hi,,,,,,4,,,,,,,,high,4,0,4,0,1,,,,,,,,,
295309,2022-11-28_17h36.16.527,vts_reward_expectancy_bt,2022.2.4,Win32,59.80861244,Chrome,1280,800,,,,,10,941,,,,,,,,,,,,,,,,,U,139,circle,1,1,,,,,,,,,,,,,,,,repeat,number,numRpt,j,0.7744,Lo,,,,,,4,,,,,,,,high,5,0,5,0,1,,,,,,,,,
295309,2022-11-28_17h36.16.527,vts_reward_expectancy_bt,2022.2.4,Win32,59.80861244,Chrome,1280,800,,,,,1,942,,,,,,,,,,,,,,,,,H,181,star,1,0,,,,,,,,,,,,,,,,repeat,number,numRpt,k,2.8512,Lo,,,,,,4,,,,,,,,high,6,0,6,0,1,,,,,,,,,
295309,2022-11-28_17h36.16.527,vts_reward_expectancy_bt,2022.2.4,Win32,59.80861244,Chrome,1280,800,,,,,0,942,,,,,,,,,,,,,,,,,S,146,triangle,0,0,,,,,,,,,,,,,,,,repeat,number,NA,k,1.4474,Lo,,,,,,4,,,,,,,,high,7,0,7,0,1,,,,,,,,,
295309,2022-11-28_17h36.16.527,vts_reward_expectancy_bt,2022.2.4,Win32,59.80861244,Chrome,1280,800,,,,,0,942,,,,,,,,,,,,,,,,,B,174,triangle,1,1,,,,,,,,,,,,,,,,switch,letter,lettSwt,d,1.5517,Hi,,,,,,4,,,,,,,,high,8,0,8,0,1,,,,,,,,,
295309,2022-11-28_17h36.16.527,vts_reward_expectancy_bt,2022.2.4,Win32,59.80861244,Chrome,1280,800,,,,,10,952,,,,,,,,,,,,,,,,,Y,132,circle,1,0,,,,,,,,,,,,,,,,repeat,letter,lettRpt,f,1.4877,Lo,,,,,,4,,,,,,,,high,9,0,9,0,1,,,,,,,,,
295309,2022-11-28_17h36.16.527,vts_reward_expectancy_bt,2022.2.4,Win32,59.80861244,Chrome,1280,800,,,,,0,952,,,,,,,,,,,,,,,,,W,160,hexagon,1,0,,,,,,,,,,,,,,,,switch,number,numSwt,k,0.3196,Hi,,,,,,4,,,,,,,,high,10,0,10,0,1,,,,,,,,,
295309,2022-11-28_17h36.16.527,vts_reward_expectancy_bt,2022.2.4,Win32,59.80861244,Chrome,1280,800,,,,,0,952,,,,,,,,,,,,,,,,,D,167,star,-1,0,,,,,,,,,,,,,,,,switch,no_choice,NA,,,Hi,,,,,,4,,,,,,,,high,11,0,11,0,1,,,,,,,,,
295309,2022-11-28_17h36.16.527,vts_reward_expectancy_bt,2022.2.4,Win32,59.80861244,Chrome,1280,800,,,,,0,952,,,,,,,,,,,,,,,,,F,125,hexagon,-1,0,,,,,,,,,,,,,,,,repeat,no_choice,NA,,,Hi,,,,,,4,,,,,,,,high,12,0,12,0,1,,,,,,,,,
295309,2022-11-28_17h36.16.527,vts_reward_expectancy_bt,2022.2.4,Win32,59.80861244,Chrome,1280,800,,,,,0,952,,,,,,,,,,,,,,,,,U,139,star,0,0,,,,,,,,,,,,,,,,switch,letter,NA,d,0.0833,Hi,,,,,,4,,,,,,,,high,13,0,13,0,1,,,,,,,,,
295309,2022-11-28_17h36.16.527,vts_reward_expectancy_bt,2022.2.4,Win32,59.80861244,Chrome,1280,800,,,,,1,953,,,,,,,,,,,,,,,,,H,181,circle,1,1,,,,,,,,,,,,,,,,repeat,letter,lettRpt,d,0.2362,Lo,,,,,,4,,,,,,,,high,14,0,14,0,1,,,,,,,,,
295309,2022-11-28_17h36.16.527,vts_reward_expectancy_bt,2022.2.4,Win32,59.80861244,Chrome,1280,800,,,,,0,953,,,,,,,,,,,,,,,,,S,146,triangle,-1,0,,,,,,,,,,,,,,,,switch,no_choice,NA,,,Lo,,,,,,4,,,,,,,,high,15,0,15,0,1,,,,,,,,,
295309,2022-11-28_17h36.16.527,vts_reward_expectancy_bt,2022.2.4,Win32,59.80861244,Chrome,1280,800,,,,,0,953,,,,,,,,,,,,,,,,,H,174,triangle,-1,0,,,,,,,,,,,,,,,,repeat,no_choice,NA,,,Lo,,,,,,4,,,,,,,,high,16,0,16,0,1,,,,,,,,,
295309,2022-11-28_17h36.16.527,vts_reward_expectancy_bt,2022.2.4,Win32,59.80861244,Chrome,1280,800,,,,,0,953,,,,,,,,,,,,,,,,,D,167,star,0,0,,,,,,,,,,,,,,,,switch,letter,NA,f,0.0005,Lo,,,,,,4,,,,,,,,high,17,0,17,0,1,,,,,,,,,
295309,2022-11-28_17h36.16.527,vts_reward_expectancy_bt,2022.2.4,Win32,59.80861244,Chrome,1280,800,,,,,0,953,,,,,,,,,,,,,,,,,B,132,hexagon,0,1,,,,,,,,,,,,,,,,repeat,letter,NA,f,0.0005,Lo,,,,,,4,,,,,,,,high,18,0,18,0,1,,,,,,,,,
295309,2022-11-28_17h36.16.527,vts_reward_expectancy_bt,2022.2.4,Win32,59.80861244,Chrome,1280,800,,,,,0,953,,,,,,,,,,,,,,,,,U,181,circle,-1,1,,,,,,,,,,,,,,,,switch,no_choice,NA,,,Lo,,,,,,4,,,,,,,,high,19,0,19,0,1,,,,,,,,,
295309,2022-11-28_17h36.16.527,vts_reward_expectancy_bt,2022.2.4,Win32,59.80861244,Chrome,1280,800,,,,,0,953,,,,,,,,,,,,,,,,,S,125,triangle,1,0,,,,,,,,,,,,,,,,switch,letter,lettSwt,f,0.0576,Hi,,,,,,4,,,,,,,,high,20,0,20,0,1,,,,,,,,,
295309,2022-11-28_17h36.16.527,vts_reward_expectancy_bt,2022.2.4,Win32,59.80861244,Chrome,1280,800,,,,,0,953,,,,,,,,,,,,,,,,,W,139,star,0,0,,,,,,,,,,,,,,,,repeat,letter,NA,d,0.1525,Hi,,,,,,4,,,,,,,,high,21,0,21,0,1,,,,,,,,,
295309,2022-11-28_17h36.16.527,vts_reward_expectancy_bt,2022.2.4,Win32,59.80861244,Chrome,1280,800,,,,,1,954,,,,,,,,,,,,,,,,,F,146,circle,1,1,,,,,,,,,,,,,,,,repeat,letter,lettRpt,d,0.1174,Lo,,,,,,4,,,,,,,,high,22,0,22,0,1,,,,,,,,,
295309,2022-11-28_17h36.16.527,vts_reward_expectancy_bt,2022.2.4,Win32,59.80861244,Chrome,1280,800,,,,,0,954,,,,,,,,,,,,,,,,,Y,160,hexagon,0,0,,,,,,,,,,,,,,,,repeat,letter,NA,d,0.2032,Lo,,,,,,4,,,,,,,,high,23,0,23,0,1,,,,,,,,,
295309,2022-11-28_17h36.16.527,vts_reward_expectancy_bt,2022.2.4,Win32,59.80861244,Chrome,1280,800,,,,,0,954,,,,,,,,,,,,,,,,,U,132,triangle,-1,1,,,,,,,,,,,,,,,,switch,no_choice,NA,,,Lo,,,,,,4,,,,,,,,high,24,0,24,0,1,,,,,,,,,
295309,2022-11-28_17h36.16.527,vts_reward_expectancy_bt,2022.2.4,Win32,59.80861244,Chrome,1280,800,,,,,0,954,,,,,,,,,,,,,,,,,W,146,circle,0,0,,,,,,,,,,,,,,,,switch,letter,NA,d,0.0942,Lo,,,,,,4,,,,,,,,high,25,0,25,0,1,,,,,,,,,
295309,2022-11-28_17h36.16.527,vts_reward_expectancy_bt,2022.2.4,Win32,59.80861244,Chrome,1280,800,,,,,0,954,,,,,,,,,,,,,,,,,S,160,star,0,1,,,,,,,,,,,,,,,,repeat,letter,NA,d,0.1172,Lo,,,,,,4,,,,,,,,high,26,0,26,0,1,,,,,,,,,
295309,2022-11-28_17h36.16.527,vts_reward_expectancy_bt,2022.2.4,Win32,59.80861244,Chrome,1280,800,,,,,0,954,,,,,,,,,,,,,,,,,D,167,hexagon,-1,1,,,,,,,,,,,,,,,,switch,no_choice,NA,,,Lo,,,,,,4,,,,,,,,high,27,0,27,0,1,,,,,,,,,
295309,2022-11-28_17h36.16.527,vts_reward_expectancy_bt,2022.2.4,Win32,59.80861244,Chrome,1280,800,,,,,1,955,,,,,,,,,,,,,,,,,F,125,star,1,0,,,,,,,,,,,,,,,,switch,letter,lettSwt,d,0.0295,Lo,,,,,,4,,,,,,,,high,28,0,28,0,1,,,,,,,,,
295309,2022-11-28_17h36.16.527,vts_reward_expectancy_bt,2022.2.4,Win32,59.80861244,Chrome,1280,800,,,,,1,956,,,,,,,,,,,,,,,,,H,174,circle,1,0,,,,,,,,,,,,,,,,repeat,letter,lettRpt,d,0.0839,Lo,,,,,,4,,,,,,,,high,29,0,29,0,1,,,,,,,,,
295309,2022-11-28_17h36.16.527,vts_reward_expectancy_bt,2022.2.4,Win32,59.80861244,Chrome,1280,800,,,,,0,956,,,,,,,,,,,,,,,,,Y,139,triangle,0,0,,,,,,,,,,,,,,,,repeat,letter,NA,d,0.0693,Lo,,,,,,4,,,,,,,,high,30,0,30,0,1,,,,,,,,,
295309,2022-11-28_17h36.16.527,vts_reward_expectancy_bt,2022.2.4,Win32,59.80861244,Chrome,1280,800,,,,,10,966,,,,,,,,,,,,,,,,,B,181,hexagon,1,1,,,,,,,,,,,,,,,,switch,number,numSwt,k,0.0004,Hi,,,,,,4,,,,,,,,high,31,0,31,0,1,,,,,,,,,
295309,2022-11-28_17h36.16.527,vts_reward_expectancy_bt,2022.2.4,Win32,59.80861244,Chrome,1280,800,,,,,10,976,,,,,,,,,,,,,,,,,Y,139,triangle,1,0,,,,,,,,,,,,,,,,repeat,number,numRpt,j,0.0007,Hi,,,,,,5,,,,,,space,1.0778,high,0,0,0,0,1,,,,,,,,,
295309,2022-11-28_17h36.16.527,vts_reward_expectancy_bt,2022.2.4,Win32,59.80861244,Chrome,1280,800,,,,,10,986,,,,,,,,,,,,,,,,,B,167,hexagon,1,0,,,,,,,,,,,,,,,,repeat,number,numRpt,k,0.1024,Hi,,,,,,5,,,,,,,,high,1,0,1,0,1,,,,,,,,,
295309,2022-11-28_17h36.16.527,vts_reward_expectancy_bt,2022.2.4,Win32,59.80861244,Chrome,1280,800,,,,,0,986,,,,,,,,,,,,,,,,,U,146,star,0,0,,,,,,,,,,,,,,,,repeat,number,NA,k,0.0006,Hi,,,,,,5,,,,,,,,high,2,0,2,0,1,,,,,,,,,
295309,2022-11-28_17h36.16.527,vts_reward_expectancy_bt,2022.2.4,Win32,59.80861244,Chrome,1280,800,,,,,0,986,,,,,,,,,,,,,,,,,F,174,circle,0,1,,,,,,,,,,,,,,,,repeat,number,NA,j,0.0006,Hi,,,,,,5,,,,,,,,high,3,0,3,0,1,,,,,,,,,
295309,2022-11-28_17h36.16.527,vts_reward_expectancy_bt,2022.2.4,Win32,59.80861244,Chrome,1280,800,,,,,0,986,,,,,,,,,,,,,,,,,D,181,triangle,0,1,,,,,,,,,,,,,,,,repeat,number,NA,j,0.2059,Hi,,,,,,5,,,,,,,,high,4,0,4,0,1,,,,,,,,,
295309,2022-11-28_17h36.16.527,vts_reward_expectancy_bt,2022.2.4,Win32,59.80861244,Chrome,1280,800,,,,,0,986,,,,,,,,,,,,,,,,,S,125,hexagon,0,1,,,,,,,,,,,,,,,,repeat,number,NA,k,0.1178,Hi,,,,,,5,,,,,,,,high,5,0,5,0,1,,,,,,,,,
295309,2022-11-28_17h36.16.527,vts_reward_expectancy_bt,2022.2.4,Win32,59.80861244,Chrome,1280,800,,,,,0,986,,,,,,,,,,,,,,,,,H,132,star,0,1,,,,,,,,,,,,,,,,repeat,number,NA,k,0.1099,Hi,,,,,,5,,,,,,,,high,6,0,6,0,1,,,,,,,,,
295309,2022-11-28_17h36.16.527,vts_reward_expectancy_bt,2022.2.4,Win32,59.80861244,Chrome,1280,800,,,,,1,987,,,,,,,,,,,,,,,,,W,160,circle,1,1,,,,,,,,,,,,,,,,repeat,number,numRpt,k,0.5047,Lo,,,,,,5,,,,,,,,high,7,0,7,0,1,,,,,,,,,
295309,2022-11-28_17h36.16.527,vts_reward_expectancy_bt,2022.2.4,Win32,59.80861244,Chrome,1280,800,,,,,0,987,,,,,,,,,,,,,,,,,Y,139,hexagon,0,0,,,,,,,,,,,,,,,,repeat,number,NA,k,0.1223,Lo,,,,,,5,,,,,,,,high,8,0,8,0,1,,,,,,,,,
295309,2022-11-28_17h36.16.527,vts_reward_expectancy_bt,2022.2.4,Win32,59.80861244,Chrome,1280,800,,,,,0,987,,,,,,,,,,,,,,,,,B,167,circle,0,1,,,,,,,,,,,,,,,,repeat,number,NA,j,0.0244,Lo,,,,,,5,,,,,,,,high,9,0,9,0,1,,,,,,,,,
295309,2022-11-28_17h36.16.527,vts_reward_expectancy_bt,2022.2.4,Win32,59.80861244,Chrome,1280,800,,,,,10,997,,,,,,,,,,,,,,,,,U,146,triangle,1,1,,,,,,,,,,,,,,,,repeat,number,numRpt,j,0.0428,Hi,,,,,,5,,,,,,,,high,10,0,10,0,1,,,,,,,,,
295309,2022-11-28_17h36.16.527,vts_reward_expectancy_bt,2022.2.4,Win32,59.80861244,Chrome,1280,800,,,,,0,997,,,,,,,,,,,,,,,,,F,174,star,0,0,,,,,,,,,,,,,,,,repeat,number,NA,j,0.033,Hi,,,,,,5,,,,,,,,high,11,0,11,0,1,,,,,,,,,
295309,2022-11-28_17h36.16.527,vts_reward_expectancy_bt,2022.2.4,Win32,59.80861244,Chrome,1280,800,,,,,10,1007,,,,,,,,,,,,,,,,,D,181,triangle,1,1,,,,,,,,,,,,,,,,repeat,number,numRpt,k,0.0545,Hi,,,,,,5,,,,,,,,high,12,0,12,0,1,,,,,,,,,
295309,2022-11-28_17h36.16.527,vts_reward_expectancy_bt,2022.2.4,Win32,59.80861244,Chrome,1280,800,,,,,0,1007,,,,,,,,,,,,,,,,,S,125,circle,0,0,,,,,,,,,,,,,,,,repeat,number,NA,k,0.1614,Hi,,,,,,5,,,,,,,,high,13,0,13,0,1,,,,,,,,,
295309,2022-11-28_17h36.16.527,vts_reward_expectancy_bt,2022.2.4,Win32,59.80861244,Chrome,1280,800,,,,,1,1008,,,,,,,,,,,,,,,,,H,132,star,1,1,,,,,,,,,,,,,,,,repeat,number,numRpt,j,1.2527,Lo,,,,,,5,,,,,,,,high,14,0,14,0,1,,,,,,,,,
295309,2022-11-28_17h36.16.527,vts_reward_expectancy_bt,2022.2.4,Win32,59.80861244,Chrome,1280,800,,,,,0,1008,,,,,,,,,,,,,,,,,W,160,hexagon,0,0,,,,,,,,,,,,,,,,repeat,number,NA,j,0.1375,Lo,,,,,,5,,,,,,,,high,15,0,15,0,1,,,,,,,,,
295309,2022-11-28_17h36.16.527,vts_reward_expectancy_bt,2022.2.4,Win32,59.80861244,Chrome,1280,800,,,,,1,1009,,,,,,,,,,,,,,,,,Y,146,hexagon,1,1,,,,,,,,,,,,,,,,repeat,number,numRpt,j,0.0955,Hi,,,,,,5,,,,,,,,high,16,0,16,0,1,,,,,,,,,
295309,2022-11-28_17h36.16.527,vts_reward_expectancy_bt,2022.2.4,Win32,59.80861244,Chrome,1280,800,,,,,0,1009,,,,,,,,,,,,,,,,,U,132,triangle,0,0,,,,,,,,,,,,,,,,repeat,number,NA,k,0.0436,Hi,,,,,,5,,,,,,,,high,17,0,17,0,1,,,,,,,,,
295309,2022-11-28_17h36.16.527,vts_reward_expectancy_bt,2022.2.4,Win32,59.80861244,Chrome,1280,800,,,,,0,1009,,,,,,,,,,,,,,,,,D,160,circle,-1,1,,,,,,,,,,,,,,,,switch,no_choice,NA,,,Hi,,,,,,5,,,,,,,,high,18,0,18,0,1,,,,,,,,,
295309,2022-11-28_17h36.16.527,vts_reward_expectancy_bt,2022.2.4,Win32,59.80861244,Chrome,1280,800,,,,,0,1009,,,,,,,,,,,,,,,,,F,125,star,-1,0,,,,,,,,,,,,,,,,repeat,no_choice,NA,,,Hi,,,,,,5,,,,,,,,high,19,0,19,0,1,,,,,,,,,
295309,2022-11-28_17h36.16.527,vts_reward_expectancy_bt,2022.2.4,Win32,59.80861244,Chrome,1280,800,,,,,0,1009,,,,,,,,,,,,,,,,,W,167,hexagon,-1,0,,,,,,,,,,,,,,,,repeat,no_choice,NA,,,Hi,,,,,,5,,,,,,,,high,20,0,20,0,1,,,,,,,,,
295309,2022-11-28_17h36.16.527,vts_reward_expectancy_bt,2022.2.4,Win32,59.80861244,Chrome,1280,800,,,,,0,1009,,,,,,,,,,,,,,,,,H,139,circle,-1,0,,,,,,,,,,,,,,,,repeat,no_choice,NA,,,Hi,,,,,,5,,,,,,,,high,21,0,21,0,1,,,,,,,,,
295309,2022-11-28_17h36.16.527,vts_reward_expectancy_bt,2022.2.4,Win32,59.80861244,Chrome,1280,800,,,,,0,1009,,,,,,,,,,,,,,,,,B,181,star,-1,0,,,,,,,,,,,,,,,,repeat,no_choice,NA,,,Hi,,,,,,5,,,,,,,,high,22,0,22,0,1,,,,,,,,,
295309,2022-11-28_17h36.16.527,vts_reward_expectancy_bt,2022.2.4,Win32,59.80861244,Chrome,1280,800,,,,,0,1009,,,,,,,,,,,,,,,,,S,174,triangle,0,0,,,,,,,,,,,,,,,,switch,number,NA,j,0.0595,Hi,,,,,,5,,,,,,,,high,23,0,23,0,1,,,,,,,,,
295309,2022-11-28_17h36.16.527,vts_reward_expectancy_bt,2022.2.4,Win32,59.80861244,Chrome,1280,800,,,,,0,1009,,,,,,,,,,,,,,,,,Y,146,circle,0,1,,,,,,,,,,,,,,,,repeat,number,NA,k,0.0007,Hi,,,,,,5,,,,,,,,high,24,0,24,0,1,,,,,,,,,
295309,2022-11-28_17h36.16.527,vts_reward_expectancy_bt,2022.2.4,Win32,59.80861244,Chrome,1280,800,,,,,0,1009,,,,,,,,,,,,,,,,,B,139,triangle,-1,1,,,,,,,,,,,,,,,,switch,no_choice,NA,,,Hi,,,,,,5,,,,,,,,high,25,0,25,0,1,,,,,,,,,
295309,2022-11-28_17h36.16.527,vts_reward_expectancy_bt,2022.2.4,Win32,59.80861244,Chrome,1280,800,,,,,0,1009,,,,,,,,,,,,,,,,,H,132,hexagon,0,0,,,,,,,,,,,,,,,,switch,letter,NA,f,0.1502,Hi,,,,,,5,,,,,,,,high,26,0,26,0,1,,,,,,,,,
295309,2022-11-28_17h36.16.527,vts_reward_expectancy_bt,2022.2.4,Win32,59.80861244,Chrome,1280,800,,,,,0,1009,,,,,,,,,,,,,,,,,D,160,star,0,1,,,,,,,,,,,,,,,,repeat,letter,NA,f,0.0589,Hi,,,,,,5,,,,,,,,high,27,0,27,0,1,,,,,,,,,
295309,2022-11-28_17h36.16.527,vts_reward_expectancy_bt,2022.2.4,Win32,59.80861244,Chrome,1280,800,,,,,10,1019,,,,,,,,,,,,,,,,,F,174,star,1,1,,,,,,,,,,,,,,,,repeat,letter,lettRpt,d,0.1386,Lo,,,,,,5,,,,,,,,high,28,0,28,0,1,,,,,,,,,
295309,2022-11-28_17h36.16.527,vts_reward_expectancy_bt,2022.2.4,Win32,59.80861244,Chrome,1280,800,,,,,0,1019,,,,,,,,,,,,,,,,,S,125,hexagon,0,0,,,,,,,,,,,,,,,,repeat,letter,NA,d,0.0008,Lo,,,,,,5,,,,,,,,high,29,0,29,0,1,,,,,,,,,
295309,2022-11-28_17h36.16.527,vts_reward_expectancy_bt,2022.2.4,Win32,59.80861244,Chrome,1280,800,,,,,0,1019,,,,,,,,,,,,,,,,,W,167,triangle,0,1,,,,,,,,,,,,,,,,repeat,letter,NA,d,0.1839,Lo,,,,,,5,,,,,,,,high,30,0,30,0,1,,,,,,,,,
295309,2022-11-28_17h36.16.527,vts_reward_expectancy_bt,2022.2.4,Win32,59.80861244,Chrome,1280,800,,,,,0,1019,,,,,,,,,,,,,,,,,U,181,circle,0,1,,,,,,,,,,,,,,,,repeat,letter,NA,d,0.1353,Lo,,,,,,5,,,,,,,,high,31,0,31,0,1,,,,,,,,,
295309,2022-11-28_17h36.16.527,vts_reward_expectancy_bt,2022.2.4,Win32,59.80861244,Chrome,1280,800,,,,,1,1020,,,,,,,,,,,,,,,,,U,125,circle,1,1,,,,,,,,,,,,,,,,repeat,letter,lettRpt,f,0.1182,Lo,,,,,,6,,,,,,space,1.7043,high,0,0,0,0,1,,,,,,,,,
295309,2022-11-28_17h36.16.527,vts_reward_expectancy_bt,2022.2.4,Win32,59.80861244,Chrome,1280,800,,,,,0,1020,,,,,,,,,,,,,,,,,H,139,star,0,0,,,,,,,,,,,,,,,,repeat,letter,NA,f,0.0072,Lo,,,,,,6,,,,,,,,high,1,0,1,0,1,,,,,,,,,
295309,2022-11-28_17h36.16.527,vts_reward_expectancy_bt,2022.2.4,Win32,59.80861244,Chrome,1280,800,,,,,0,1020,,,,,,,,,,,,,,,,,S,174,hexagon,0,1,,,,,,,,,,,,,,,,repeat,letter,NA,d,0.218,Lo,,,,,,6,,,,,,,,high,2,0,2,0,1,,,,,,,,,
295309,2022-11-28_17h36.16.527,vts_reward_expectancy_bt,2022.2.4,Win32,59.80861244,Chrome,1280,800,,,,,1,1021,,,,,,,,,,,,,,,,,B,160,triangle,1,1,,,,,,,,,,,,,,,,repeat,letter,lettRpt,d,0.1023,Hi,,,,,,6,,,,,,,,high,3,0,3,0,1,,,,,,,,,
295309,2022-11-28_17h36.16.527,vts_reward_expectancy_bt,2022.2.4,Win32,59.80861244,Chrome,1280,800,,,,,0,1021,,,,,,,,,,,,,,,,,Y,181,circle,0,0,,,,,,,,,,,,,,,,repeat,letter,NA,d,0.0299,Hi,,,,,,6,,,,,,,,high,4,0,4,0,1,,,,,,,,,
295309,2022-11-28_17h36.16.527,vts_reward_expectancy_bt,2022.2.4,Win32,59.80861244,Chrome,1280,800,,,,,10,1031,,,,,,,,,,,,,,,,,W,146,star,1,1,,,,,,,,,,,,,,,,repeat,letter,lettRpt,f,0.1732,Lo,,,,,,6,,,,,,,,high,5,0,5,0,1,,,,,,,,,
295309,2022-11-28_17h36.16.527,vts_reward_expectancy_bt,2022.2.4,Win32,59.80861244,Chrome,1280,800,,,,,0,1031,,,,,,,,,,,,,,,,,D,167,hexagon,0,0,,,,,,,,,,,,,,,,repeat,letter,NA,f,0.0573,Lo,,,,,,6,,,,,,,,high,6,0,6,0,1,,,,,,,,,
295309,2022-11-28_17h36.16.527,vts_reward_expectancy_bt,2022.2.4,Win32,59.80861244,Chrome,1280,800,,,,,10,1041,,,,,,,,,,,,,,,,,F,132,triangle,1,1,,,,,,,,,,,,,,,,repeat,letter,lettRpt,d,0.0832,Hi,,,,,,6,,,,,,,,high,7,0,7,0,1,,,,,,,,,
295309,2022-11-28_17h36.16.527,vts_reward_expectancy_bt,2022.2.4,Win32,59.80861244,Chrome,1280,800,,,,,0,1041,,,,,,,,,,,,,,,,,U,125,hexagon,0,0,,,,,,,,,,,,,,,,repeat,letter,NA,d,0.1541,Hi,,,,,,6,,,,,,,,high,8,0,8,0,1,,,,,,,,,
295309,2022-11-28_17h36.16.527,vts_reward_expectancy_bt,2022.2.4,Win32,59.80861244,Chrome,1280,800,,,,,0,1041,,,,,,,,,,,,,,,,,H,139,circle,0,1,,,,,,,,,,,,,,,,repeat,letter,NA,f,0.136,Hi,,,,,,6,,,,,,,,high,9,0,9,0,1,,,,,,,,,
