participant,date,expName,psychopyVersion,OS,frameRate,browser,xResolution,yResolution,key_resp.keys,key_resp.rt,training_resp.keys,training_resp.rt,points_trial,points_cumul,trainBlock,training.thisRepN,training.thisTrialN,training.thisN,training.thisIndex,training.ran,LTriangleOpac,LCircleOpac,LHexagonOpac,LStarOpac,RTriangleOpac,RCircleOpac,RHexagonOpac,RStarOpac,LShape_ID,RShape_ID,curr_topStim,curr_bottStim,curr_shape,acc,E1,target_resp_prac1.keys,target_resp_prac1.rt,pracBlock,task1_prac_trials.thisRepN,task1_prac_trials.thisTrialN,task1_prac_trials.thisN,task1_prac_trials.thisIndex,task1_prac_trials.ran,target_resp_prac2.keys,target_resp_prac2.rt,task2_praac_trials.thisRepN,task2_praac_trials.thisTrialN,task2_praac_trials.thisN,task2_praac_trials.thisIndex,task2_praac_trials.ran,alt,task,condition,target_resp.keys,target_resp.rt,rewCond,vts_practice_trials.thisRepN,vts_practice_trials.thisTrialN,vts_practice_trials.thisN,vts_practice_trials.thisIndex,vts_practice_trials.ran,blockNum,trials_norew.thisRepN,trials_norew.thisTrialN,trials_norew.thisN,trials_norew.thisIndex,trials_norew.ran,key_resp_2.keys,key_resp_2.rt,rewExpectancy,trials_rew.thisRepN,trials_rew.thisTrialN,trials_rew.thisN,trials_rew.thisIndex,trials_rew.ran,Q1,Q2,Q2_text,Q3,Q4,Q5_text,Q5,xRes,yRes
295399,2022-12-06_17h36.24.160,vts_reward_expectancy_bt,2022.2.4,Win32,58.79586077,Chrome,1500,1000,,,,,,,,,,,,,,,,,,,,,,,,,,,,,,,,,,,,,,,,,,,,,,,,,,,,,,,,,,,,,,,,,,,,,,,,,,,,
295399,2022-12-06_17h36.24.160,vts_reward_expectancy_bt,2022.2.4,Win32,58.79586077,Chrome,1500,1000,space,3438.313,,,,,,,,,,,,,,,,,,,,,,,,,,,,,,,,,,,,,,,,,,,,,,,,,,,,,,,,,,,,,,,,,,,,,,,,,,
295399,2022-12-06_17h36.24.160,vts_reward_expectancy_bt,2022.2.4,Win32,58.79586077,Chrome,1500,1000,,,,,,,,,,,,,,,,,,,,,,,,,,,,,,,,,,,,,,,,,,,,,,,,,,,,,,,,,,,,,,,,,,,,,,,,,,,,
295399,2022-12-06_17h36.24.160,vts_reward_expectancy_bt,2022.2.4,Win32,58.79586077,Chrome,1500,1000,,,l,2.4093,10,10,0,0,0,0,4,1,0,1,0,0,0,0,1,0,circle,hexagon,,,,,,,,,,,,,,,,,,,,,,,,,,,,,,,,,,,,,,,,,,,,,,,,,,,,,,
295399,2022-12-06_17h36.24.160,vts_reward_expectancy_bt,2022.2.4,Win32,58.79586077,Chrome,1500,1000,,,l,1.7069,1,11,0,0,1,1,3,1,0,1,0,0,1,0,0,0,circle,triangle,,,,,,,,,,,,,,,,,,,,,,,,,,,,,,,,,,,,,,,,,,,,,,,,,,,,,,
295399,2022-12-06_17h36.24.160,vts_reward_expectancy_bt,2022.2.4,Win32,58.79586077,Chrome,1500,1000,,,l,0.9001,10,21,0,0,2,2,0,1,1,0,0,0,0,1,0,0,triangle,circle,,,,,,,,,,,,,,,,,,,,,,,,,,,,,,,,,,,,,,,,,,,,,,,,,,,,,,
295399,2022-12-06_17h36.24.160,vts_reward_expectancy_bt,2022.2.4,Win32,58.79586077,Chrome,1500,1000,,,a,1.3018,10,31,0,0,3,3,7,1,0,0,1,0,0,1,0,0,hexagon,circle,,,,,,,,,,,,,,,,,,,,,,,,,,,,,,,,,,,,,,,,,,,,,,,,,,,,,,
295399,2022-12-06_17h36.24.160,vts_reward_expectancy_bt,2022.2.4,Win32,58.79586077,Chrome,1500,1000,,,a,0.6822,10,41,0,0,4,4,6,1,0,0,1,0,1,0,0,0,hexagon,triangle,,,,,,,,,,,,,,,,,,,,,,,,,,,,,,,,,,,,,,,,,,,,,,,,,,,,,,
295399,2022-12-06_17h36.24.160,vts_reward_expectancy_bt,2022.2.4,Win32,58.79586077,Chrome,1500,1000,,,l,1.2544,1,42,0,0,5,5,5,1,0,1,0,0,0,0,0,1,circle,star,,,,,,,,,,,,,,,,,,,,,,,,,,,,,,,,,,,,,,,,,,,,,,,,,,,,,,
295399,2022-12-06_17h36.24.160,vts_reward_expectancy_bt,2022.2.4,Win32,58.79586077,Chrome,1500,1000,,,a,1.6159,10,52,0,0,6,6,9,1,0,0,0,1,1,0,0,0,star,triangle,,,,,,,,,,,,,,,,,,,,,,,,,,,,,,,,,,,,,,,,,,,,,,,,,,,,,,
295399,2022-12-06_17h36.24.160,vts_reward_expectancy_bt,2022.2.4,Win32,58.79586077,Chrome,1500,1000,,,a,1.0064,1,53,0,0,7,7,11,1,0,0,0,1,0,0,1,0,star,hexagon,,,,,,,,,,,,,,,,,,,,,,,,,,,,,,,,,,,,,,,,,,,,,,,,,,,,,,
295399,2022-12-06_17h36.24.160,vts_reward_expectancy_bt,2022.2.4,Win32,58.79586077,Chrome,1500,1000,,,l,0.9257,1,54,0,0,8,8,1,1,1,0,0,0,0,0,1,0,triangle,hexagon,,,,,,,,,,,,,,,,,,,,,,,,,,,,,,,,,,,,,,,,,,,,,,,,,,,,,,
295399,2022-12-06_17h36.24.160,vts_reward_expectancy_bt,2022.2.4,Win32,58.79586077,Chrome,1500,1000,,,a,1.5451,1,55,0,0,9,9,10,1,0,0,0,1,0,1,0,0,star ,circle,,,,,,,,,,,,,,,,,,,,,,,,,,,,,,,,,,,,,,,,,,,,,,,,,,,,,,
295399,2022-12-06_17h36.24.160,vts_reward_expectancy_bt,2022.2.4,Win32,58.79586077,Chrome,1500,1000,,,a,0.9797,10,65,0,0,10,10,8,1,0,0,1,0,0,0,0,1,hexagon,star,,,,,,,,,,,,,,,,,,,,,,,,,,,,,,,,,,,,,,,,,,,,,,,,,,,,,,
295399,2022-12-06_17h36.24.160,vts_reward_expectancy_bt,2022.2.4,Win32,58.79586077,Chrome,1500,1000,,,l,0.8547,1,66,0,0,11,11,2,1,1,0,0,0,0,0,0,1,triangle,star,,,,,,,,,,,,,,,,,,,,,,,,,,,,,,,,,,,,,,,,,,,,,,,,,,,,,,
295399,2022-12-06_17h36.24.160,vts_reward_expectancy_bt,2022.2.4,Win32,58.79586077,Chrome,1500,1000,,,a,0.8902,1,67,0,1,0,12,0,1,1,0,0,0,0,1,0,0,triangle,circle,,,,,,,,,,,,,,,,,,,,,,,,,,,,,,,,,,,,,,,,,,,,,,,,,,,,,,
295399,2022-12-06_17h36.24.160,vts_reward_expectancy_bt,2022.2.4,Win32,58.79586077,Chrome,1500,1000,,,a,0.9195,1,68,0,1,1,13,10,1,0,0,0,1,0,1,0,0,star ,circle,,,,,,,,,,,,,,,,,,,,,,,,,,,,,,,,,,,,,,,,,,,,,,,,,,,,,,
295399,2022-12-06_17h36.24.160,vts_reward_expectancy_bt,2022.2.4,Win32,58.79586077,Chrome,1500,1000,,,l,0.7743,10,78,0,1,2,14,3,1,0,1,0,0,1,0,0,0,circle,triangle,,,,,,,,,,,,,,,,,,,,,,,,,,,,,,,,,,,,,,,,,,,,,,,,,,,,,,
295399,2022-12-06_17h36.24.160,vts_reward_expectancy_bt,2022.2.4,Win32,58.79586077,Chrome,1500,1000,,,l,0.6987,10,88,0,1,3,15,1,1,1,0,0,0,0,0,1,0,triangle,hexagon,,,,,,,,,,,,,,,,,,,,,,,,,,,,,,,,,,,,,,,,,,,,,,,,,,,,,,
295399,2022-12-06_17h36.24.160,vts_reward_expectancy_bt,2022.2.4,Win32,58.79586077,Chrome,1500,1000,,,l,1.5184,10,98,0,1,4,16,11,1,0,0,0,1,0,0,1,0,star,hexagon,,,,,,,,,,,,,,,,,,,,,,,,,,,,,,,,,,,,,,,,,,,,,,,,,,,,,,
295399,2022-12-06_17h36.24.160,vts_reward_expectancy_bt,2022.2.4,Win32,58.79586077,Chrome,1500,1000,,,a,0.8485,1,99,0,1,5,17,2,1,1,0,0,0,0,0,0,1,triangle,star,,,,,,,,,,,,,,,,,,,,,,,,,,,,,,,,,,,,,,,,,,,,,,,,,,,,,,
295399,2022-12-06_17h36.24.160,vts_reward_expectancy_bt,2022.2.4,Win32,58.79586077,Chrome,1500,1000,,,a,0.7175,10,109,0,1,6,18,7,1,0,0,1,0,0,1,0,0,hexagon,circle,,,,,,,,,,,,,,,,,,,,,,,,,,,,,,,,,,,,,,,,,,,,,,,,,,,,,,
295399,2022-12-06_17h36.24.160,vts_reward_expectancy_bt,2022.2.4,Win32,58.79586077,Chrome,1500,1000,,,a,0.8486,10,119,0,1,7,19,9,1,0,0,0,1,1,0,0,0,star,triangle,,,,,,,,,,,,,,,,,,,,,,,,,,,,,,,,,,,,,,,,,,,,,,,,,,,,,,
295399,2022-12-06_17h36.24.160,vts_reward_expectancy_bt,2022.2.4,Win32,58.79586077,Chrome,1500,1000,,,a,0.7199,10,129,0,1,8,20,6,1,0,0,1,0,1,0,0,0,hexagon,triangle,,,,,,,,,,,,,,,,,,,,,,,,,,,,,,,,,,,,,,,,,,,,,,,,,,,,,,
295399,2022-12-06_17h36.24.160,vts_reward_expectancy_bt,2022.2.4,Win32,58.79586077,Chrome,1500,1000,,,l,0.7005,10,139,0,1,9,21,4,1,0,1,0,0,0,0,1,0,circle,hexagon,,,,,,,,,,,,,,,,,,,,,,,,,,,,,,,,,,,,,,,,,,,,,,,,,,,,,,
295399,2022-12-06_17h36.24.160,vts_reward_expectancy_bt,2022.2.4,Win32,58.79586077,Chrome,1500,1000,,,a,0.9202,10,149,0,1,10,22,8,1,0,0,1,0,0,0,0,1,hexagon,star,,,,,,,,,,,,,,,,,,,,,,,,,,,,,,,,,,,,,,,,,,,,,,,,,,,,,,
295399,2022-12-06_17h36.24.160,vts_reward_expectancy_bt,2022.2.4,Win32,58.79586077,Chrome,1500,1000,,,a,1.5562,1,150,0,1,11,23,5,1,0,1,0,0,0,0,0,1,circle,star,,,,,,,,,,,,,,,,,,,,,,,,,,,,,,,,,,,,,,,,,,,,,,,,,,,,,,
295399,2022-12-06_17h36.24.160,vts_reward_expectancy_bt,2022.2.4,Win32,58.79586077,Chrome,1500,1000,,,a,0.8169,10,160,0,2,0,24,5,1,0,1,0,0,0,0,0,1,circle,star,,,,,,,,,,,,,,,,,,,,,,,,,,,,,,,,,,,,,,,,,,,,,,,,,,,,,,
295399,2022-12-06_17h36.24.160,vts_reward_expectancy_bt,2022.2.4,Win32,58.79586077,Chrome,1500,1000,,,l,0.8858,1,161,0,2,1,25,11,1,0,0,0,1,0,0,1,0,star,hexagon,,,,,,,,,,,,,,,,,,,,,,,,,,,,,,,,,,,,,,,,,,,,,,,,,,,,,,
295399,2022-12-06_17h36.24.160,vts_reward_expectancy_bt,2022.2.4,Win32,58.79586077,Chrome,1500,1000,,,a,0.981,1,162,0,2,2,26,0,1,1,0,0,0,0,1,0,0,triangle,circle,,,,,,,,,,,,,,,,,,,,,,,,,,,,,,,,,,,,,,,,,,,,,,,,,,,,,,
295399,2022-12-06_17h36.24.160,vts_reward_expectancy_bt,2022.2.4,Win32,58.79586077,Chrome,1500,1000,,,l,1.0017,1,163,0,2,3,27,3,1,0,1,0,0,1,0,0,0,circle,triangle,,,,,,,,,,,,,,,,,,,,,,,,,,,,,,,,,,,,,,,,,,,,,,,,,,,,,,
295399,2022-12-06_17h36.24.160,vts_reward_expectancy_bt,2022.2.4,Win32,58.79586077,Chrome,1500,1000,,,l,0.7104,10,173,0,2,4,28,4,1,0,1,0,0,0,0,1,0,circle,hexagon,,,,,,,,,,,,,,,,,,,,,,,,,,,,,,,,,,,,,,,,,,,,,,,,,,,,,,
295399,2022-12-06_17h36.24.160,vts_reward_expectancy_bt,2022.2.4,Win32,58.79586077,Chrome,1500,1000,,,a,0.9115,1,174,0,2,5,29,2,1,1,0,0,0,0,0,0,1,triangle,star,,,,,,,,,,,,,,,,,,,,,,,,,,,,,,,,,,,,,,,,,,,,,,,,,,,,,,
295399,2022-12-06_17h36.24.160,vts_reward_expectancy_bt,2022.2.4,Win32,58.79586077,Chrome,1500,1000,,,l,1.0537,1,175,0,2,6,30,9,1,0,0,0,1,1,0,0,0,star,triangle,,,,,,,,,,,,,,,,,,,,,,,,,,,,,,,,,,,,,,,,,,,,,,,,,,,,,,
295399,2022-12-06_17h36.24.160,vts_reward_expectancy_bt,2022.2.4,Win32,58.79586077,Chrome,1500,1000,,,a,0.6193,1,176,0,2,7,31,10,1,0,0,0,1,0,1,0,0,star ,circle,,,,,,,,,,,,,,,,,,,,,,,,,,,,,,,,,,,,,,,,,,,,,,,,,,,,,,
295399,2022-12-06_17h36.24.160,vts_reward_expectancy_bt,2022.2.4,Win32,58.79586077,Chrome,1500,1000,,,a,0.6839,1,177,0,2,8,32,6,1,0,0,1,0,1,0,0,0,hexagon,triangle,,,,,,,,,,,,,,,,,,,,,,,,,,,,,,,,,,,,,,,,,,,,,,,,,,,,,,
295399,2022-12-06_17h36.24.160,vts_reward_expectancy_bt,2022.2.4,Win32,58.79586077,Chrome,1500,1000,,,a,0.8672,10,187,0,2,9,33,7,1,0,0,1,0,0,1,0,0,hexagon,circle,,,,,,,,,,,,,,,,,,,,,,,,,,,,,,,,,,,,,,,,,,,,,,,,,,,,,,
295399,2022-12-06_17h36.24.160,vts_reward_expectancy_bt,2022.2.4,Win32,58.79586077,Chrome,1500,1000,,,l,0.6223,10,197,0,2,10,34,8,1,0,0,1,0,0,0,0,1,hexagon,star,,,,,,,,,,,,,,,,,,,,,,,,,,,,,,,,,,,,,,,,,,,,,,,,,,,,,,
295399,2022-12-06_17h36.24.160,vts_reward_expectancy_bt,2022.2.4,Win32,58.79586077,Chrome,1500,1000,,,l,0.6879,1,198,0,2,11,35,1,1,1,0,0,0,0,0,1,0,triangle,hexagon,,,,,,,,,,,,,,,,,,,,,,,,,,,,,,,,,,,,,,,,,,,,,,,,,,,,,,
295399,2022-12-06_17h36.24.160,vts_reward_expectancy_bt,2022.2.4,Win32,58.79586077,Chrome,1500,1000,,,l,0.6377,10,208,1,0,0,0,1,1,1,0,0,0,0,0,1,0,triangle,hexagon,,,,,,,,,,,,,,,,,,,,,,,,,,,,,,,,,,,,,,,,,,,,,,,,,,,,,,
295399,2022-12-06_17h36.24.160,vts_reward_expectancy_bt,2022.2.4,Win32,58.79586077,Chrome,1500,1000,,,a,0.65,1,209,1,0,1,1,6,1,0,0,1,0,1,0,0,0,hexagon,triangle,,,,,,,,,,,,,,,,,,,,,,,,,,,,,,,,,,,,,,,,,,,,,,,,,,,,,,
295399,2022-12-06_17h36.24.160,vts_reward_expectancy_bt,2022.2.4,Win32,58.79586077,Chrome,1500,1000,,,a,0.5971,10,219,1,0,2,2,7,1,0,0,1,0,0,1,0,0,hexagon,circle,,,,,,,,,,,,,,,,,,,,,,,,,,,,,,,,,,,,,,,,,,,,,,,,,,,,,,
295399,2022-12-06_17h36.24.160,vts_reward_expectancy_bt,2022.2.4,Win32,58.79586077,Chrome,1500,1000,,,a,0.5191,10,229,1,0,3,3,8,1,0,0,1,0,0,0,0,1,hexagon,star,,,,,,,,,,,,,,,,,,,,,,,,,,,,,,,,,,,,,,,,,,,,,,,,,,,,,,
295399,2022-12-06_17h36.24.160,vts_reward_expectancy_bt,2022.2.4,Win32,58.79586077,Chrome,1500,1000,,,l,1.1676,1,230,1,0,4,4,9,1,0,0,0,1,1,0,0,0,star,triangle,,,,,,,,,,,,,,,,,,,,,,,,,,,,,,,,,,,,,,,,,,,,,,,,,,,,,,
295399,2022-12-06_17h36.24.160,vts_reward_expectancy_bt,2022.2.4,Win32,58.79586077,Chrome,1500,1000,,,a,0.6678,1,231,1,0,5,5,10,1,0,0,0,1,0,1,0,0,star ,circle,,,,,,,,,,,,,,,,,,,,,,,,,,,,,,,,,,,,,,,,,,,,,,,,,,,,,,
295399,2022-12-06_17h36.24.160,vts_reward_expectancy_bt,2022.2.4,Win32,58.79586077,Chrome,1500,1000,,,a,1.1392,1,232,1,0,6,6,2,1,1,0,0,0,0,0,0,1,triangle,star,,,,,,,,,,,,,,,,,,,,,,,,,,,,,,,,,,,,,,,,,,,,,,,,,,,,,,
295399,2022-12-06_17h36.24.160,vts_reward_expectancy_bt,2022.2.4,Win32,58.79586077,Chrome,1500,1000,,,l,0.7736,10,242,1,0,7,7,4,1,0,1,0,0,0,0,1,0,circle,hexagon,,,,,,,,,,,,,,,,,,,,,,,,,,,,,,,,,,,,,,,,,,,,,,,,,,,,,,
295399,2022-12-06_17h36.24.160,vts_reward_expectancy_bt,2022.2.4,Win32,58.79586077,Chrome,1500,1000,,,a,0.5674,10,252,1,0,8,8,0,1,1,0,0,0,0,1,0,0,triangle,circle,,,,,,,,,,,,,,,,,,,,,,,,,,,,,,,,,,,,,,,,,,,,,,,,,,,,,,
295399,2022-12-06_17h36.24.160,vts_reward_expectancy_bt,2022.2.4,Win32,58.79586077,Chrome,1500,1000,,,l,0.8259,10,262,1,0,9,9,11,1,0,0,0,1,0,0,1,0,star,hexagon,,,,,,,,,,,,,,,,,,,,,,,,,,,,,,,,,,,,,,,,,,,,,,,,,,,,,,
295399,2022-12-06_17h36.24.160,vts_reward_expectancy_bt,2022.2.4,Win32,58.79586077,Chrome,1500,1000,,,a,0.8705,10,272,1,0,10,10,5,1,0,1,0,0,0,0,0,1,circle,star,,,,,,,,,,,,,,,,,,,,,,,,,,,,,,,,,,,,,,,,,,,,,,,,,,,,,,
295399,2022-12-06_17h36.24.160,vts_reward_expectancy_bt,2022.2.4,Win32,58.79586077,Chrome,1500,1000,,,l,0.5986,1,273,1,0,11,11,3,1,0,1,0,0,1,0,0,0,circle,triangle,,,,,,,,,,,,,,,,,,,,,,,,,,,,,,,,,,,,,,,,,,,,,,,,,,,,,,
295399,2022-12-06_17h36.24.160,vts_reward_expectancy_bt,2022.2.4,Win32,58.79586077,Chrome,1500,1000,,,a,0.5871,10,283,1,1,0,12,6,1,0,0,1,0,1,0,0,0,hexagon,triangle,,,,,,,,,,,,,,,,,,,,,,,,,,,,,,,,,,,,,,,,,,,,,,,,,,,,,,
295399,2022-12-06_17h36.24.160,vts_reward_expectancy_bt,2022.2.4,Win32,58.79586077,Chrome,1500,1000,,,l,0.6348,1,284,1,1,1,13,8,1,0,0,1,0,0,0,0,1,hexagon,star,,,,,,,,,,,,,,,,,,,,,,,,,,,,,,,,,,,,,,,,,,,,,,,,,,,,,,
295399,2022-12-06_17h36.24.160,vts_reward_expectancy_bt,2022.2.4,Win32,58.79586077,Chrome,1500,1000,,,l,0.6652,1,285,1,1,2,14,3,1,0,1,0,0,1,0,0,0,circle,triangle,,,,,,,,,,,,,,,,,,,,,,,,,,,,,,,,,,,,,,,,,,,,,,,,,,,,,,
295399,2022-12-06_17h36.24.160,vts_reward_expectancy_bt,2022.2.4,Win32,58.79586077,Chrome,1500,1000,,,a,0.9851,10,295,1,1,3,15,7,1,0,0,1,0,0,1,0,0,hexagon,circle,,,,,,,,,,,,,,,,,,,,,,,,,,,,,,,,,,,,,,,,,,,,,,,,,,,,,,
295399,2022-12-06_17h36.24.160,vts_reward_expectancy_bt,2022.2.4,Win32,58.79586077,Chrome,1500,1000,,,l,0.6483,10,305,1,1,4,16,5,1,0,1,0,0,0,0,0,1,circle,star,,,,,,,,,,,,,,,,,,,,,,,,,,,,,,,,,,,,,,,,,,,,,,,,,,,,,,
295399,2022-12-06_17h36.24.160,vts_reward_expectancy_bt,2022.2.4,Win32,58.79586077,Chrome,1500,1000,,,a,1.2025,1,306,1,1,5,17,9,1,0,0,0,1,1,0,0,0,star,triangle,,,,,,,,,,,,,,,,,,,,,,,,,,,,,,,,,,,,,,,,,,,,,,,,,,,,,,
295399,2022-12-06_17h36.24.160,vts_reward_expectancy_bt,2022.2.4,Win32,58.79586077,Chrome,1500,1000,,,a,0.867,10,316,1,1,6,18,11,1,0,0,0,1,0,0,1,0,star,hexagon,,,,,,,,,,,,,,,,,,,,,,,,,,,,,,,,,,,,,,,,,,,,,,,,,,,,,,
295399,2022-12-06_17h36.24.160,vts_reward_expectancy_bt,2022.2.4,Win32,58.79586077,Chrome,1500,1000,,,l,0.6399,10,326,1,1,7,19,1,1,1,0,0,0,0,0,1,0,triangle,hexagon,,,,,,,,,,,,,,,,,,,,,,,,,,,,,,,,,,,,,,,,,,,,,,,,,,,,,,
295399,2022-12-06_17h36.24.160,vts_reward_expectancy_bt,2022.2.4,Win32,58.79586077,Chrome,1500,1000,,,a,0.6246,1,327,1,1,8,20,0,1,1,0,0,0,0,1,0,0,triangle,circle,,,,,,,,,,,,,,,,,,,,,,,,,,,,,,,,,,,,,,,,,,,,,,,,,,,,,,
295399,2022-12-06_17h36.24.160,vts_reward_expectancy_bt,2022.2.4,Win32,58.79586077,Chrome,1500,1000,,,a,0.8323,1,328,1,1,9,21,10,1,0,0,0,1,0,1,0,0,star ,circle,,,,,,,,,,,,,,,,,,,,,,,,,,,,,,,,,,,,,,,,,,,,,,,,,,,,,,
295399,2022-12-06_17h36.24.160,vts_reward_expectancy_bt,2022.2.4,Win32,58.79586077,Chrome,1500,1000,,,l,0.6016,10,338,1,1,10,22,4,1,0,1,0,0,0,0,1,0,circle,hexagon,,,,,,,,,,,,,,,,,,,,,,,,,,,,,,,,,,,,,,,,,,,,,,,,,,,,,,
295399,2022-12-06_17h36.24.160,vts_reward_expectancy_bt,2022.2.4,Win32,58.79586077,Chrome,1500,1000,,,l,0.5522,1,339,1,1,11,23,2,1,1,0,0,0,0,0,0,1,triangle,star,,,,,,,,,,,,,,,,,,,,,,,,,,,,,,,,,,,,,,,,,,,,,,,,,,,,,,
295399,2022-12-06_17h36.24.160,vts_reward_expectancy_bt,2022.2.4,Win32,58.79586077,Chrome,1500,1000,,,a,0.5991,10,349,1,2,0,24,6,1,0,0,1,0,1,0,0,0,hexagon,triangle,,,,,,,,,,,,,,,,,,,,,,,,,,,,,,,,,,,,,,,,,,,,,,,,,,,,,,
295399,2022-12-06_17h36.24.160,vts_reward_expectancy_bt,2022.2.4,Win32,58.79586077,Chrome,1500,1000,,,l,0.8025,10,359,1,2,1,25,4,1,0,1,0,0,0,0,1,0,circle,hexagon,,,,,,,,,,,,,,,,,,,,,,,,,,,,,,,,,,,,,,,,,,,,,,,,,,,,,,
295399,2022-12-06_17h36.24.160,vts_reward_expectancy_bt,2022.2.4,Win32,58.79586077,Chrome,1500,1000,,,a,0.5359,1,360,1,2,2,26,0,1,1,0,0,0,0,1,0,0,triangle,circle,,,,,,,,,,,,,,,,,,,,,,,,,,,,,,,,,,,,,,,,,,,,,,,,,,,,,,
295399,2022-12-06_17h36.24.160,vts_reward_expectancy_bt,2022.2.4,Win32,58.79586077,Chrome,1500,1000,,,l,0.6331,10,370,1,2,3,27,10,1,0,0,0,1,0,1,0,0,star ,circle,,,,,,,,,,,,,,,,,,,,,,,,,,,,,,,,,,,,,,,,,,,,,,,,,,,,,,
295399,2022-12-06_17h36.24.160,vts_reward_expectancy_bt,2022.2.4,Win32,58.79586077,Chrome,1500,1000,,,a,0.8338,10,380,1,2,4,28,8,1,0,0,1,0,0,0,0,1,hexagon,star,,,,,,,,,,,,,,,,,,,,,,,,,,,,,,,,,,,,,,,,,,,,,,,,,,,,,,
295399,2022-12-06_17h36.24.160,vts_reward_expectancy_bt,2022.2.4,Win32,58.79586077,Chrome,1500,1000,,,l,0.65,1,381,1,2,5,29,11,1,0,0,0,1,0,0,1,0,star,hexagon,,,,,,,,,,,,,,,,,,,,,,,,,,,,,,,,,,,,,,,,,,,,,,,,,,,,,,
295399,2022-12-06_17h36.24.160,vts_reward_expectancy_bt,2022.2.4,Win32,58.79586077,Chrome,1500,1000,,,a,0.6487,10,391,1,2,6,30,7,1,0,0,1,0,0,1,0,0,hexagon,circle,,,,,,,,,,,,,,,,,,,,,,,,,,,,,,,,,,,,,,,,,,,,,,,,,,,,,,
295399,2022-12-06_17h36.24.160,vts_reward_expectancy_bt,2022.2.4,Win32,58.79586077,Chrome,1500,1000,,,l,0.735,1,392,1,2,7,31,9,1,0,0,0,1,1,0,0,0,star,triangle,,,,,,,,,,,,,,,,,,,,,,,,,,,,,,,,,,,,,,,,,,,,,,,,,,,,,,
295399,2022-12-06_17h36.24.160,vts_reward_expectancy_bt,2022.2.4,Win32,58.79586077,Chrome,1500,1000,,,a,0.6172,10,402,1,2,8,32,5,1,0,1,0,0,0,0,0,1,circle,star,,,,,,,,,,,,,,,,,,,,,,,,,,,,,,,,,,,,,,,,,,,,,,,,,,,,,,
295399,2022-12-06_17h36.24.160,vts_reward_expectancy_bt,2022.2.4,Win32,58.79586077,Chrome,1500,1000,,,l,0.6581,1,403,1,2,9,33,3,1,0,1,0,0,1,0,0,0,circle,triangle,,,,,,,,,,,,,,,,,,,,,,,,,,,,,,,,,,,,,,,,,,,,,,,,,,,,,,
295399,2022-12-06_17h36.24.160,vts_reward_expectancy_bt,2022.2.4,Win32,58.79586077,Chrome,1500,1000,,,l,0.6018,10,413,1,2,10,34,1,1,1,0,0,0,0,0,1,0,triangle,hexagon,,,,,,,,,,,,,,,,,,,,,,,,,,,,,,,,,,,,,,,,,,,,,,,,,,,,,,
295399,2022-12-06_17h36.24.160,vts_reward_expectancy_bt,2022.2.4,Win32,58.79586077,Chrome,1500,1000,,,a,0.8526,1,414,1,2,11,35,2,1,1,0,0,0,0,0,0,1,triangle,star,,,,,,,,,,,,,,,,,,,,,,,,,,,,,,,,,,,,,,,,,,,,,,,,,,,,,,
295399,2022-12-06_17h36.24.160,vts_reward_expectancy_bt,2022.2.4,Win32,58.79586077,Chrome,1500,1000,,,l,0.8441,10,424,2,0,0,0,4,1,0,1,0,0,0,0,1,0,circle,hexagon,,,,,,,,,,,,,,,,,,,,,,,,,,,,,,,,,,,,,,,,,,,,,,,,,,,,,,
295399,2022-12-06_17h36.24.160,vts_reward_expectancy_bt,2022.2.4,Win32,58.79586077,Chrome,1500,1000,,,a,0.614,10,434,2,0,1,1,7,1,0,0,1,0,0,1,0,0,hexagon,circle,,,,,,,,,,,,,,,,,,,,,,,,,,,,,,,,,,,,,,,,,,,,,,,,,,,,,,
295399,2022-12-06_17h36.24.160,vts_reward_expectancy_bt,2022.2.4,Win32,58.79586077,Chrome,1500,1000,,,l,0.651,10,444,2,0,2,2,10,1,0,0,0,1,0,1,0,0,star ,circle,,,,,,,,,,,,,,,,,,,,,,,,,,,,,,,,,,,,,,,,,,,,,,,,,,,,,,
295399,2022-12-06_17h36.24.160,vts_reward_expectancy_bt,2022.2.4,Win32,58.79586077,Chrome,1500,1000,,,a,0.6509,10,454,2,0,3,3,6,1,0,0,1,0,1,0,0,0,hexagon,triangle,,,,,,,,,,,,,,,,,,,,,,,,,,,,,,,,,,,,,,,,,,,,,,,,,,,,,,
295399,2022-12-06_17h36.24.160,vts_reward_expectancy_bt,2022.2.4,Win32,58.79586077,Chrome,1500,1000,,,a,0.9156,1,455,2,0,4,4,1,1,1,0,0,0,0,0,1,0,triangle,hexagon,,,,,,,,,,,,,,,,,,,,,,,,,,,,,,,,,,,,,,,,,,,,,,,,,,,,,,
295399,2022-12-06_17h36.24.160,vts_reward_expectancy_bt,2022.2.4,Win32,58.79586077,Chrome,1500,1000,,,a,0.8542,1,456,2,0,5,5,2,1,1,0,0,0,0,0,0,1,triangle,star,,,,,,,,,,,,,,,,,,,,,,,,,,,,,,,,,,,,,,,,,,,,,,,,,,,,,,
295399,2022-12-06_17h36.24.160,vts_reward_expectancy_bt,2022.2.4,Win32,58.79586077,Chrome,1500,1000,,,l,0.5159,10,466,2,0,6,6,0,1,1,0,0,0,0,1,0,0,triangle,circle,,,,,,,,,,,,,,,,,,,,,,,,,,,,,,,,,,,,,,,,,,,,,,,,,,,,,,
295399,2022-12-06_17h36.24.160,vts_reward_expectancy_bt,2022.2.4,Win32,58.79586077,Chrome,1500,1000,,,a,0.9303,10,476,2,0,7,7,3,1,0,1,0,0,1,0,0,0,circle,triangle,,,,,,,,,,,,,,,,,,,,,,,,,,,,,,,,,,,,,,,,,,,,,,,,,,,,,,
295399,2022-12-06_17h36.24.160,vts_reward_expectancy_bt,2022.2.4,Win32,58.79586077,Chrome,1500,1000,,,l,0.7329,1,477,2,0,8,8,9,1,0,0,0,1,1,0,0,0,star,triangle,,,,,,,,,,,,,,,,,,,,,,,,,,,,,,,,,,,,,,,,,,,,,,,,,,,,,,
295399,2022-12-06_17h36.24.160,vts_reward_expectancy_bt,2022.2.4,Win32,58.79586077,Chrome,1500,1000,,,a,1.6043,10,487,2,0,9,9,11,1,0,0,0,1,0,0,1,0,star,hexagon,,,,,,,,,,,,,,,,,,,,,,,,,,,,,,,,,,,,,,,,,,,,,,,,,,,,,,
295399,2022-12-06_17h36.24.160,vts_reward_expectancy_bt,2022.2.4,Win32,58.79586077,Chrome,1500,1000,,,a,0.6675,1,488,2,0,10,10,8,1,0,0,1,0,0,0,0,1,hexagon,star,,,,,,,,,,,,,,,,,,,,,,,,,,,,,,,,,,,,,,,,,,,,,,,,,,,,,,
295399,2022-12-06_17h36.24.160,vts_reward_expectancy_bt,2022.2.4,Win32,58.79586077,Chrome,1500,1000,,,a,1.5185,10,498,2,0,11,11,5,1,0,1,0,0,0,0,0,1,circle,star,,,,,,,,,,,,,,,,,,,,,,,,,,,,,,,,,,,,,,,,,,,,,,,,,,,,,,
295399,2022-12-06_17h36.24.160,vts_reward_expectancy_bt,2022.2.4,Win32,58.79586077,Chrome,1500,1000,,,l,0.6398,10,508,2,1,0,12,4,1,0,1,0,0,0,0,1,0,circle,hexagon,,,,,,,,,,,,,,,,,,,,,,,,,,,,,,,,,,,,,,,,,,,,,,,,,,,,,,
295399,2022-12-06_17h36.24.160,vts_reward_expectancy_bt,2022.2.4,Win32,58.79586077,Chrome,1500,1000,,,l,0.8497,1,509,2,1,1,13,9,1,0,0,0,1,1,0,0,0,star,triangle,,,,,,,,,,,,,,,,,,,,,,,,,,,,,,,,,,,,,,,,,,,,,,,,,,,,,,
295399,2022-12-06_17h36.24.160,vts_reward_expectancy_bt,2022.2.4,Win32,58.79586077,Chrome,1500,1000,,,a,0.5842,1,510,2,1,2,14,10,1,0,0,0,1,0,1,0,0,star ,circle,,,,,,,,,,,,,,,,,,,,,,,,,,,,,,,,,,,,,,,,,,,,,,,,,,,,,,
295399,2022-12-06_17h36.24.160,vts_reward_expectancy_bt,2022.2.4,Win32,58.79586077,Chrome,1500,1000,,,a,0.6538,10,520,2,1,3,15,8,1,0,0,1,0,0,0,0,1,hexagon,star,,,,,,,,,,,,,,,,,,,,,,,,,,,,,,,,,,,,,,,,,,,,,,,,,,,,,,
295399,2022-12-06_17h36.24.160,vts_reward_expectancy_bt,2022.2.4,Win32,58.79586077,Chrome,1500,1000,,,a,0.684,10,530,2,1,4,16,6,1,0,0,1,0,1,0,0,0,hexagon,triangle,,,,,,,,,,,,,,,,,,,,,,,,,,,,,,,,,,,,,,,,,,,,,,,,,,,,,,
295399,2022-12-06_17h36.24.160,vts_reward_expectancy_bt,2022.2.4,Win32,58.79586077,Chrome,1500,1000,,,l,1.1002,1,531,2,1,5,17,0,1,1,0,0,0,0,1,0,0,triangle,circle,,,,,,,,,,,,,,,,,,,,,,,,,,,,,,,,,,,,,,,,,,,,,,,,,,,,,,
295399,2022-12-06_17h36.24.160,vts_reward_expectancy_bt,2022.2.4,Win32,58.79586077,Chrome,1500,1000,,,l,1.5188,10,541,2,1,6,18,1,1,1,0,0,0,0,0,1,0,triangle,hexagon,,,,,,,,,,,,,,,,,,,,,,,,,,,,,,,,,,,,,,,,,,,,,,,,,,,,,,
295399,2022-12-06_17h36.24.160,vts_reward_expectancy_bt,2022.2.4,Win32,58.79586077,Chrome,1500,1000,,,a,1.1045,10,551,2,1,7,19,3,1,0,1,0,0,1,0,0,0,circle,triangle,,,,,,,,,,,,,,,,,,,,,,,,,,,,,,,,,,,,,,,,,,,,,,,,,,,,,,
295399,2022-12-06_17h36.24.160,vts_reward_expectancy_bt,2022.2.4,Win32,58.79586077,Chrome,1500,1000,,,a,0.6362,10,561,2,1,8,20,7,1,0,0,1,0,0,1,0,0,hexagon,circle,,,,,,,,,,,,,,,,,,,,,,,,,,,,,,,,,,,,,,,,,,,,,,,,,,,,,,
295399,2022-12-06_17h36.24.160,vts_reward_expectancy_bt,2022.2.4,Win32,58.79586077,Chrome,1500,1000,,,l,0.6495,10,571,2,1,9,21,11,1,0,0,0,1,0,0,1,0,star,hexagon,,,,,,,,,,,,,,,,,,,,,,,,,,,,,,,,,,,,,,,,,,,,,,,,,,,,,,
295399,2022-12-06_17h36.24.160,vts_reward_expectancy_bt,2022.2.4,Win32,58.79586077,Chrome,1500,1000,,,a,2.767,10,581,2,1,10,22,5,1,0,1,0,0,0,0,0,1,circle,star,,,,,,,,,,,,,,,,,,,,,,,,,,,,,,,,,,,,,,,,,,,,,,,,,,,,,,
295399,2022-12-06_17h36.24.160,vts_reward_expectancy_bt,2022.2.4,Win32,58.79586077,Chrome,1500,1000,,,a,1.1326,10,591,2,1,11,23,2,1,1,0,0,0,0,0,0,1,triangle,star,,,,,,,,,,,,,,,,,,,,,,,,,,,,,,,,,,,,,,,,,,,,,,,,,,,,,,
295399,2022-12-06_17h36.24.160,vts_reward_expectancy_bt,2022.2.4,Win32,58.79586077,Chrome,1500,1000,,,a,0.7185,10,601,2,2,0,24,6,1,0,0,1,0,1,0,0,0,hexagon,triangle,,,,,,,,,,,,,,,,,,,,,,,,,,,,,,,,,,,,,,,,,,,,,,,,,,,,,,
295399,2022-12-06_17h36.24.160,vts_reward_expectancy_bt,2022.2.4,Win32,58.79586077,Chrome,1500,1000,,,a,2.171,10,611,2,2,1,25,5,1,0,1,0,0,0,0,0,1,circle,star,,,,,,,,,,,,,,,,,,,,,,,,,,,,,,,,,,,,,,,,,,,,,,,,,,,,,,
295399,2022-12-06_17h36.24.160,vts_reward_expectancy_bt,2022.2.4,Win32,58.79586077,Chrome,1500,1000,,,l,1.3058,1,612,2,2,2,26,10,1,0,0,0,1,0,1,0,0,star ,circle,,,,,,,,,,,,,,,,,,,,,,,,,,,,,,,,,,,,,,,,,,,,,,,,,,,,,,
295399,2022-12-06_17h36.24.160,vts_reward_expectancy_bt,2022.2.4,Win32,58.79586077,Chrome,1500,1000,,,a,1.6465,1,613,2,2,3,27,0,1,1,0,0,0,0,1,0,0,triangle,circle,,,,,,,,,,,,,,,,,,,,,,,,,,,,,,,,,,,,,,,,,,,,,,,,,,,,,,
295399,2022-12-06_17h36.24.160,vts_reward_expectancy_bt,2022.2.4,Win32,58.79586077,Chrome,1500,1000,,,l,0.6174,1,614,2,2,4,28,4,1,0,1,0,0,0,0,1,0,circle,hexagon,,,,,,,,,,,,,,,,,,,,,,,,,,,,,,,,,,,,,,,,,,,,,,,,,,,,,,
295399,2022-12-06_17h36.24.160,vts_reward_expectancy_bt,2022.2.4,Win32,58.79586077,Chrome,1500,1000,,,a,0.6205,10,624,2,2,5,29,11,1,0,0,0,1,0,0,1,0,star,hexagon,,,,,,,,,,,,,,,,,,,,,,,,,,,,,,,,,,,,,,,,,,,,,,,,,,,,,,
295399,2022-12-06_17h36.24.160,vts_reward_expectancy_bt,2022.2.4,Win32,58.79586077,Chrome,1500,1000,,,a,0.7991,10,634,2,2,6,30,8,1,0,0,1,0,0,0,0,1,hexagon,star,,,,,,,,,,,,,,,,,,,,,,,,,,,,,,,,,,,,,,,,,,,,,,,,,,,,,,
295399,2022-12-06_17h36.24.160,vts_reward_expectancy_bt,2022.2.4,Win32,58.79586077,Chrome,1500,1000,,,a,0.6006,10,644,2,2,7,31,7,1,0,0,1,0,0,1,0,0,hexagon,circle,,,,,,,,,,,,,,,,,,,,,,,,,,,,,,,,,,,,,,,,,,,,,,,,,,,,,,
295399,2022-12-06_17h36.24.160,vts_reward_expectancy_bt,2022.2.4,Win32,58.79586077,Chrome,1500,1000,,,l,0.8014,1,645,2,2,8,32,3,1,0,1,0,0,1,0,0,0,circle,triangle,,,,,,,,,,,,,,,,,,,,,,,,,,,,,,,,,,,,,,,,,,,,,,,,,,,,,,
295399,2022-12-06_17h36.24.160,vts_reward_expectancy_bt,2022.2.4,Win32,58.79586077,Chrome,1500,1000,,,a,1.7846,1,646,2,2,9,33,1,1,1,0,0,0,0,0,1,0,triangle,hexagon,,,,,,,,,,,,,,,,,,,,,,,,,,,,,,,,,,,,,,,,,,,,,,,,,,,,,,
295399,2022-12-06_17h36.24.160,vts_reward_expectancy_bt,2022.2.4,Win32,58.79586077,Chrome,1500,1000,,,l,1.7662,1,647,2,2,10,34,9,1,0,0,0,1,1,0,0,0,star,triangle,,,,,,,,,,,,,,,,,,,,,,,,,,,,,,,,,,,,,,,,,,,,,,,,,,,,,,
295399,2022-12-06_17h36.24.160,vts_reward_expectancy_bt,2022.2.4,Win32,58.79586077,Chrome,1500,1000,,,a,0.5533,1,648,2,2,11,35,2,1,1,0,0,0,0,0,0,1,triangle,star,,,,,,,,,,,,,,,,,,,,,,,,,,,,,,,,,,,,,,,,,,,,,,,,,,,,,,
295399,2022-12-06_17h36.24.160,vts_reward_expectancy_bt,2022.2.4,Win32,58.79586077,Chrome,1500,1000,,,,,,,,,,,,,,,,,,,,,,,146,S,triangle,1,0,d,2.0405,0,0,0,0,0,1,,,,,,,,,,,,,,,,,,,,,,,,,,,,,,,,,,,,,,,,,
295399,2022-12-06_17h36.24.160,vts_reward_expectancy_bt,2022.2.4,Win32,58.79586077,Chrome,1500,1000,,,,,,,,,,,,,,,,,,,,,,,139,Y,circle,1,0,d,0.6074,0,1,0,1,0,1,,,,,,,,,,,,,,,,,,,,,,,,,,,,,,,,,,,,,,,,,
295399,2022-12-06_17h36.24.160,vts_reward_expectancy_bt,2022.2.4,Win32,58.79586077,Chrome,1500,1000,,,,,,,,,,,,,,,,,,,,,,,181,F,hexagon,1,0,f,0.69,0,2,0,2,0,1,,,,,,,,,,,,,,,,,,,,,,,,,,,,,,,,,,,,,,,,,
295399,2022-12-06_17h36.24.160,vts_reward_expectancy_bt,2022.2.4,Win32,58.79586077,Chrome,1500,1000,,,,,,,,,,,,,,,,,,,,,,,125,H,star,1,0,d,1.0232,0,3,0,3,0,1,,,,,,,,,,,,,,,,,,,,,,,,,,,,,,,,,,,,,,,,,
295399,2022-12-06_17h36.24.160,vts_reward_expectancy_bt,2022.2.4,Win32,58.79586077,Chrome,1500,1000,,,,,,,,,,,,,,,,,,,,,,,132,W,triangle,1,0,d,0.8686,0,4,0,4,0,1,,,,,,,,,,,,,,,,,,,,,,,,,,,,,,,,,,,,,,,,,
295399,2022-12-06_17h36.24.160,vts_reward_expectancy_bt,2022.2.4,Win32,58.79586077,Chrome,1500,1000,,,,,,,,,,,,,,,,,,,,,,,174,D,circle,1,0,f,0.6348,0,5,0,5,0,1,,,,,,,,,,,,,,,,,,,,,,,,,,,,,,,,,,,,,,,,,
295399,2022-12-06_17h36.24.160,vts_reward_expectancy_bt,2022.2.4,Win32,58.79586077,Chrome,1500,1000,,,,,,,,,,,,,,,,,,,,,,,160,B,hexagon,1,0,f,0.8499,0,6,0,6,0,1,,,,,,,,,,,,,,,,,,,,,,,,,,,,,,,,,,,,,,,,,
295399,2022-12-06_17h36.24.160,vts_reward_expectancy_bt,2022.2.4,Win32,58.79586077,Chrome,1500,1000,,,,,,,,,,,,,,,,,,,,,,,167,U,star,1,0,f,0.7012,0,7,0,7,0,1,,,,,,,,,,,,,,,,,,,,,,,,,,,,,,,,,,,,,,,,,
295399,2022-12-06_17h36.24.160,vts_reward_expectancy_bt,2022.2.4,Win32,58.79586077,Chrome,1500,1000,,,,,,,,,,,,,,,,,,,,,,,146,S,hexagon,1,0,d,0.8683,0,8,0,8,0,1,,,,,,,,,,,,,,,,,,,,,,,,,,,,,,,,,,,,,,,,,
295399,2022-12-06_17h36.24.160,vts_reward_expectancy_bt,2022.2.4,Win32,58.79586077,Chrome,1500,1000,,,,,,,,,,,,,,,,,,,,,,,139,Y,star,1,0,d,0.7882,0,9,0,9,0,1,,,,,,,,,,,,,,,,,,,,,,,,,,,,,,,,,,,,,,,,,
295399,2022-12-06_17h36.24.160,vts_reward_expectancy_bt,2022.2.4,Win32,58.79586077,Chrome,1500,1000,,,,,,,,,,,,,,,,,,,,,,,139,U,triangle,1,0,,,1,,,,,,k,0.6589,0,0,0,0,1,,,,,,,,,,,,,,,,,,,,,,,,,,,,,,,,,,
295399,2022-12-06_17h36.24.160,vts_reward_expectancy_bt,2022.2.4,Win32,58.79586077,Chrome,1500,1000,,,,,,,,,,,,,,,,,,,,,,,160,B,circle,1,0,,,1,,,,,,j,0.6178,1,0,1,0,1,,,,,,,,,,,,,,,,,,,,,,,,,,,,,,,,,,
295399,2022-12-06_17h36.24.160,vts_reward_expectancy_bt,2022.2.4,Win32,58.79586077,Chrome,1500,1000,,,,,,,,,,,,,,,,,,,,,,,181,S,hexagon,1,0,,,1,,,,,,k,0.7006,2,0,2,0,1,,,,,,,,,,,,,,,,,,,,,,,,,,,,,,,,,,
295399,2022-12-06_17h36.24.160,vts_reward_expectancy_bt,2022.2.4,Win32,58.79586077,Chrome,1500,1000,,,,,,,,,,,,,,,,,,,,,,,132,D,star,1,0,,,1,,,,,,j,0.766,3,0,3,0,1,,,,,,,,,,,,,,,,,,,,,,,,,,,,,,,,,,
295399,2022-12-06_17h36.24.160,vts_reward_expectancy_bt,2022.2.4,Win32,58.79586077,Chrome,1500,1000,,,,,,,,,,,,,,,,,,,,,,,174,H,triangle,1,0,,,1,,,,,,j,0.6848,4,0,4,0,1,,,,,,,,,,,,,,,,,,,,,,,,,,,,,,,,,,
295399,2022-12-06_17h36.24.160,vts_reward_expectancy_bt,2022.2.4,Win32,58.79586077,Chrome,1500,1000,,,,,,,,,,,,,,,,,,,,,,,146,F,circle,1,0,,,1,,,,,,j,0.9175,5,0,5,0,1,,,,,,,,,,,,,,,,,,,,,,,,,,,,,,,,,,
295399,2022-12-06_17h36.24.160,vts_reward_expectancy_bt,2022.2.4,Win32,58.79586077,Chrome,1500,1000,,,,,,,,,,,,,,,,,,,,,,,125,W,hexagon,1,0,,,1,,,,,,k,0.6665,6,0,6,0,1,,,,,,,,,,,,,,,,,,,,,,,,,,,,,,,,,,
295399,2022-12-06_17h36.24.160,vts_reward_expectancy_bt,2022.2.4,Win32,58.79586077,Chrome,1500,1000,,,,,,,,,,,,,,,,,,,,,,,167,Y,star,1,0,,,1,,,,,,k,0.719,7,0,7,0,1,,,,,,,,,,,,,,,,,,,,,,,,,,,,,,,,,,
295399,2022-12-06_17h36.24.160,vts_reward_expectancy_bt,2022.2.4,Win32,58.79586077,Chrome,1500,1000,,,,,,,,,,,,,,,,,,,,,,,139,U,hexagon,1,0,,,1,,,,,,k,0.6511,8,0,8,0,1,,,,,,,,,,,,,,,,,,,,,,,,,,,,,,,,,,
295399,2022-12-06_17h36.24.160,vts_reward_expectancy_bt,2022.2.4,Win32,58.79586077,Chrome,1500,1000,,,,,,,,,,,,,,,,,,,,,,,160,B,star,1,0,,,1,,,,,,j,0.6344,9,0,9,0,1,,,,,,,,,,,,,,,,,,,,,,,,,,,,,,,,,,
295399,2022-12-06_17h36.24.160,vts_reward_expectancy_bt,2022.2.4,Win32,58.79586077,Chrome,1500,1000,,,,,0,648,,,,,,,,,,,,,,,,,167,W,hexagon,1,0,,,2,,,,,,,,,,,,,-1,letter,NA,k,2.42,vtsPrac,0,0,0,0,1,,,,,,,,,,,,,,,,,,,,,,,
295399,2022-12-06_17h36.24.160,vts_reward_expectancy_bt,2022.2.4,Win32,58.79586077,Chrome,1500,1000,,,,,0,648,,,,,,,,,,,,,,,,,174,D,triangle,0,0,,,2,,,,,,,,,,,,,repeat,letter,NA,k,2.2081,vtsPrac,1,0,1,0,1,,,,,,,,,,,,,,,,,,,,,,,
295399,2022-12-06_17h36.24.160,vts_reward_expectancy_bt,2022.2.4,Win32,58.79586077,Chrome,1500,1000,,,,,0,648,,,,,,,,,,,,,,,,,181,S,hexagon,1,1,,,2,,,,,,,,,,,,,switch,number,numSwt,f,2.7193,vtsPrac,2,0,2,0,1,,,,,,,,,,,,,,,,,,,,,,,
295399,2022-12-06_17h36.24.160,vts_reward_expectancy_bt,2022.2.4,Win32,58.79586077,Chrome,1500,1000,,,,,0,648,,,,,,,,,,,,,,,,,146,H,triangle,1,0,,,2,,,,,,,,,,,,,repeat,number,numRpt,d,0.968,vtsPrac,3,0,3,0,1,,,,,,,,,,,,,,,,,,,,,,,
295399,2022-12-06_17h36.24.160,vts_reward_expectancy_bt,2022.2.4,Win32,58.79586077,Chrome,1500,1000,,,,,0,648,,,,,,,,,,,,,,,,,167,W,star,1,0,,,2,,,,,,,,,,,,,switch,letter,lettSwt,k,1.5502,vtsPrac,4,0,4,0,1,,,,,,,,,,,,,,,,,,,,,,,
295399,2022-12-06_17h36.24.160,vts_reward_expectancy_bt,2022.2.4,Win32,58.79586077,Chrome,1500,1000,,,,,0,648,,,,,,,,,,,,,,,,,174,D,triangle,1,0,,,2,,,,,,,,,,,,,switch,number,numSwt,f,0.7071,vtsPrac,5,0,5,0,1,,,,,,,,,,,,,,,,,,,,,,,
295399,2022-12-06_17h36.24.160,vts_reward_expectancy_bt,2022.2.4,Win32,58.79586077,Chrome,1500,1000,,,,,0,648,,,,,,,,,,,,,,,,,181,S,star,1,0,,,2,,,,,,,,,,,,,repeat,number,numRpt,f,0.5174,vtsPrac,6,0,6,0,1,,,,,,,,,,,,,,,,,,,,,,,
295399,2022-12-06_17h36.24.160,vts_reward_expectancy_bt,2022.2.4,Win32,58.79586077,Chrome,1500,1000,,,,,0,648,,,,,,,,,,,,,,,,,146,H,triangle,1,0,,,2,,,,,,,,,,,,,switch,letter,lettSwt,j,1.5463,vtsPrac,7,0,7,0,1,,,,,,,,,,,,,,,,,,,,,,,
295399,2022-12-06_17h36.24.160,vts_reward_expectancy_bt,2022.2.4,Win32,58.79586077,Chrome,1500,1000,,,,,0,648,,,,,,,,,,,,,,,,,167,H,circle,1,0,,,2,,,,,,,,,,,,,switch,number,numSwt,f,1.0846,vtsPrac,8,0,8,0,1,,,,,,,,,,,,,,,,,,,,,,,
295399,2022-12-06_17h36.24.160,vts_reward_expectancy_bt,2022.2.4,Win32,58.79586077,Chrome,1500,1000,,,,,0,648,,,,,,,,,,,,,,,,,174,W,hexagon,1,0,,,2,,,,,,,,,,,,,switch,letter,lettSwt,k,0.8079,vtsPrac,9,0,9,0,1,,,,,,,,,,,,,,,,,,,,,,,
295399,2022-12-06_17h36.24.160,vts_reward_expectancy_bt,2022.2.4,Win32,58.79586077,Chrome,1500,1000,,,,,0,648,,,,,,,,,,,,,,,,,160,D,star,1,0,,,2,,,,,,,,,,,,,repeat,letter,lettRpt,j,0.7345,vtsPrac,10,0,10,0,1,,,,,,,,,,,,,,,,,,,,,,,
295399,2022-12-06_17h36.24.160,vts_reward_expectancy_bt,2022.2.4,Win32,58.79586077,Chrome,1500,1000,,,,,0,648,,,,,,,,,,,,,,,,,146,U,hexagon,1,0,,,2,,,,,,,,,,,,,repeat,letter,lettRpt,k,0.635,vtsPrac,11,0,11,0,1,,,,,,,,,,,,,,,,,,,,,,,
295399,2022-12-06_17h36.24.160,vts_reward_expectancy_bt,2022.2.4,Win32,58.79586077,Chrome,1500,1000,,,,,0,648,,,,,,,,,,,,,,,,,160,S,circle,1,0,,,2,,,,,,,,,,,,,switch,number,numSwt,f,1.0556,vtsPrac,12,0,12,0,1,,,,,,,,,,,,,,,,,,,,,,,
295399,2022-12-06_17h36.24.160,vts_reward_expectancy_bt,2022.2.4,Win32,58.79586077,Chrome,1500,1000,,,,,0,648,,,,,,,,,,,,,,,,,167,H,triangle,1,0,,,2,,,,,,,,,,,,,repeat,number,numRpt,f,0.7401,vtsPrac,13,0,13,0,1,,,,,,,,,,,,,,,,,,,,,,,
295399,2022-12-06_17h36.24.160,vts_reward_expectancy_bt,2022.2.4,Win32,58.79586077,Chrome,1500,1000,,,,,0,648,,,,,,,,,,,,,,,,,174,Y,hexagon,1,0,,,2,,,,,,,,,,,,,switch,letter,lettSwt,k,0.7544,vtsPrac,14,0,14,0,1,,,,,,,,,,,,,,,,,,,,,,,
295399,2022-12-06_17h36.24.160,vts_reward_expectancy_bt,2022.2.4,Win32,58.79586077,Chrome,1500,1000,,,,,0,648,,,,,,,,,,,,,,,,,125,D,star,1,0,,,2,,,,,,,,,,,,,switch,number,numSwt,d,0.617,vtsPrac,15,0,15,0,1,,,,,,,,,,,,,,,,,,,,,,,
295399,2022-12-06_17h36.24.160,vts_reward_expectancy_bt,2022.2.4,Win32,58.79586077,Chrome,1500,1000,,,,,0,648,,,,,,,,,,,,,,,,,132,W,triangle,1,0,,,2,,,,,,,,,,,,,repeat,number,numRpt,d,0.6079,vtsPrac,16,0,16,0,1,,,,,,,,,,,,,,,,,,,,,,,
295399,2022-12-06_17h36.24.160,vts_reward_expectancy_bt,2022.2.4,Win32,58.79586077,Chrome,1500,1000,,,,,0,648,,,,,,,,,,,,,,,,,174,B,circle,1,0,,,2,,,,,,,,,,,,,repeat,number,numRpt,f,0.8005,vtsPrac,17,0,17,0,1,,,,,,,,,,,,,,,,,,,,,,,
295399,2022-12-06_17h36.24.160,vts_reward_expectancy_bt,2022.2.4,Win32,58.79586077,Chrome,1500,1000,,,,,0,648,,,,,,,,,,,,,,,,,160,D,star,1,0,,,2,,,,,,,,,,,,,switch,letter,lettSwt,j,1.5505,vtsPrac,18,0,18,0,1,,,,,,,,,,,,,,,,,,,,,,,
295399,2022-12-06_17h36.24.160,vts_reward_expectancy_bt,2022.2.4,Win32,58.79586077,Chrome,1500,1000,,,,,0,648,,,,,,,,,,,,,,,,,167,H,circle,1,0,,,2,,,,,,,,,,,,,switch,number,numSwt,f,0.8174,vtsPrac,19,0,19,0,1,,,,,,,,,,,,,,,,,,,,,,,
295399,2022-12-06_17h36.24.160,vts_reward_expectancy_bt,2022.2.4,Win32,58.79586077,Chrome,1500,1000,,,,,0,648,,,,,,,,,,,,,,,,,139,D,triangle,1,0,,,2,,,,,,,,,,,,,switch,letter,lettSwt,j,1.2844,vtsPrac,20,0,20,0,1,,,,,,,,,,,,,,,,,,,,,,,
295399,2022-12-06_17h36.24.160,vts_reward_expectancy_bt,2022.2.4,Win32,58.79586077,Chrome,1500,1000,,,,,0,648,,,,,,,,,,,,,,,,,146,W,hexagon,1,0,,,2,,,,,,,,,,,,,switch,number,numSwt,d,0.9504,vtsPrac,21,0,21,0,1,,,,,,,,,,,,,,,,,,,,,,,
295399,2022-12-06_17h36.24.160,vts_reward_expectancy_bt,2022.2.4,Win32,58.79586077,Chrome,1500,1000,,,,,0,648,,,,,,,,,,,,,,,,,160,S,triangle,1,0,,,2,,,,,,,,,,,,,switch,letter,lettSwt,k,1.4876,vtsPrac,22,0,22,0,1,,,,,,,,,,,,,,,,,,,,,,,
295399,2022-12-06_17h36.24.160,vts_reward_expectancy_bt,2022.2.4,Win32,58.79586077,Chrome,1500,1000,,,,,0,648,,,,,,,,,,,,,,,,,174,H,circle,1,0,,,2,,,,,,,,,,,,,repeat,letter,lettRpt,j,1.0352,vtsPrac,23,0,23,0,1,,,,,,,,,,,,,,,,,,,,,,,
295399,2022-12-06_17h36.24.160,vts_reward_expectancy_bt,2022.2.4,Win32,58.79586077,Chrome,1500,1000,,,,,0,648,,,,,,,,,,,,,,,,,174,H,circle,1,0,,,2,,,,,,,,,,,,,switch,number,numSwt,f,0.6195,vtsPrac,24,0,24,0,1,,,,,,,,,,,,,,,,,,,,,,,
295399,2022-12-06_17h36.24.160,vts_reward_expectancy_bt,2022.2.4,Win32,58.79586077,Chrome,1500,1000,,,,,0,648,,,,,,,,,,,,,,,,,181,B,hexagon,0,0,,,2,,,,,,,,,,,,,repeat,number,NA,d,0.5549,vtsPrac,25,0,25,0,1,,,,,,,,,,,,,,,,,,,,,,,
295399,2022-12-06_17h36.24.160,vts_reward_expectancy_bt,2022.2.4,Win32,58.79586077,Chrome,1500,1000,,,,,0,648,,,,,,,,,,,,,,,,,167,W,circle,1,1,,,2,,,,,,,,,,,,,repeat,number,numRpt,f,0.9368,vtsPrac,26,0,26,0,1,,,,,,,,,,,,,,,,,,,,,,,
295399,2022-12-06_17h36.24.160,vts_reward_expectancy_bt,2022.2.4,Win32,58.79586077,Chrome,1500,1000,,,,,0,648,,,,,,,,,,,,,,,,,125,Y,star,1,0,,,2,,,,,,,,,,,,,switch,letter,lettSwt,k,1.2588,vtsPrac,27,0,27,0,1,,,,,,,,,,,,,,,,,,,,,,,
295399,2022-12-06_17h36.24.160,vts_reward_expectancy_bt,2022.2.4,Win32,58.79586077,Chrome,1500,1000,,,,,0,648,,,,,,,,,,,,,,,,,132,F,star,1,0,,,2,,,,,,,,,,,,,repeat,letter,lettRpt,j,1.0201,vtsPrac,28,0,28,0,1,,,,,,,,,,,,,,,,,,,,,,,
295399,2022-12-06_17h36.24.160,vts_reward_expectancy_bt,2022.2.4,Win32,58.79586077,Chrome,1500,1000,,,,,0,648,,,,,,,,,,,,,,,,,181,Y,triangle,1,0,,,2,,,,,,,,,,,,,switch,number,numSwt,f,0.7508,vtsPrac,29,0,29,0,1,,,,,,,,,,,,,,,,,,,,,,,
295399,2022-12-06_17h36.24.160,vts_reward_expectancy_bt,2022.2.4,Win32,58.79586077,Chrome,1500,1000,,,,,0,648,,,,,,,,,,,,,,,,,174,S,hexagon,1,0,,,2,,,,,,,,,,,,,switch,letter,lettSwt,k,0.9179,vtsPrac,30,0,30,0,1,,,,,,,,,,,,,,,,,,,,,,,
295399,2022-12-06_17h36.24.160,vts_reward_expectancy_bt,2022.2.4,Win32,58.79586077,Chrome,1500,1000,,,,,0,648,,,,,,,,,,,,,,,,,160,H,circle,1,0,,,2,,,,,,,,,,,,,switch,number,numSwt,f,0.9404,vtsPrac,31,0,31,0,1,,,,,,,,,,,,,,,,,,,,,,,
295399,2022-12-06_17h36.24.160,vts_reward_expectancy_bt,2022.2.4,Win32,58.79586077,Chrome,1500,1000,,,,,,,,,,,,,,,,,,,,,,,,,,,,,,,,,,,,,,,,,,,,,,,,,,,,,,,,,,,,,,,,,,,,,,,,,,,,
295399,2022-12-06_17h36.24.160,vts_reward_expectancy_bt,2022.2.4,Win32,58.79586077,Chrome,1500,1000,,,,,,,,,,,,,,,,,,,,,,,,,,,,,,,,,,,,,,,,,,,,,,,,,,,,,,,,,,,,,,,,,,,,,,,,,,,,
295399,2022-12-06_17h36.24.160,vts_reward_expectancy_bt,2022.2.4,Win32,58.79586077,Chrome,1500,1000,,,,,0,648,,,,,,,,,,,,,,,,,146,S,triangle,1,0,,,,,,,,,,,,,,,,switch,letter,lettSwt,k,0.9875,noRew,,,,,,0,0,0,0,0,1,,,,,,,,,,,,,,,,,
295399,2022-12-06_17h36.24.160,vts_reward_expectancy_bt,2022.2.4,Win32,58.79586077,Chrome,1500,1000,,,,,0,648,,,,,,,,,,,,,,,,,181,Y,star,1,0,,,,,,,,,,,,,,,,repeat,letter,lettRpt,k,0.6504,noRew,,,,,,0,1,0,1,0,1,,,,,,,,,,,,,,,,,
295399,2022-12-06_17h36.24.160,vts_reward_expectancy_bt,2022.2.4,Win32,58.79586077,Chrome,1500,1000,,,,,0,648,,,,,,,,,,,,,,,,,174,D,triangle,1,0,,,,,,,,,,,,,,,,switch,number,numSwt,f,0.6679,noRew,,,,,,0,2,0,2,0,1,,,,,,,,,,,,,,,,,
295399,2022-12-06_17h36.24.160,vts_reward_expectancy_bt,2022.2.4,Win32,58.79586077,Chrome,1500,1000,,,,,0,648,,,,,,,,,,,,,,,,,167,W,star,1,0,,,,,,,,,,,,,,,,repeat,number,numRpt,f,0.6008,noRew,,,,,,0,3,0,3,0,1,,,,,,,,,,,,,,,,,
295399,2022-12-06_17h36.24.160,vts_reward_expectancy_bt,2022.2.4,Win32,58.79586077,Chrome,1500,1000,,,,,0,648,,,,,,,,,,,,,,,,,146,S,hexagon,1,0,,,,,,,,,,,,,,,,repeat,number,numRpt,d,0.7902,noRew,,,,,,0,4,0,4,0,1,,,,,,,,,,,,,,,,,
295399,2022-12-06_17h36.24.160,vts_reward_expectancy_bt,2022.2.4,Win32,58.79586077,Chrome,1500,1000,,,,,0,648,,,,,,,,,,,,,,,,,181,Y,triangle,1,0,,,,,,,,,,,,,,,,switch,letter,lettSwt,k,0.7003,noRew,,,,,,0,5,0,5,0,1,,,,,,,,,,,,,,,,,
295399,2022-12-06_17h36.24.160,vts_reward_expectancy_bt,2022.2.4,Win32,58.79586077,Chrome,1500,1000,,,,,0,648,,,,,,,,,,,,,,,,,174,D,circle,1,0,,,,,,,,,,,,,,,,repeat,letter,lettRpt,j,1.8753,noRew,,,,,,0,6,0,6,0,1,,,,,,,,,,,,,,,,,
295399,2022-12-06_17h36.24.160,vts_reward_expectancy_bt,2022.2.4,Win32,58.79586077,Chrome,1500,1000,,,,,0,648,,,,,,,,,,,,,,,,,167,W,hexagon,1,0,,,,,,,,,,,,,,,,repeat,letter,lettRpt,k,0.6772,noRew,,,,,,0,7,0,7,0,1,,,,,,,,,,,,,,,,,
295399,2022-12-06_17h36.24.160,vts_reward_expectancy_bt,2022.2.4,Win32,58.79586077,Chrome,1500,1000,,,,,0,648,,,,,,,,,,,,,,,,,139,S,circle,1,0,,,,,,,,,,,,,,,,switch,number,numSwt,d,0.9861,noRew,,,,,,0,8,0,8,0,1,,,,,,,,,,,,,,,,,
295399,2022-12-06_17h36.24.160,vts_reward_expectancy_bt,2022.2.4,Win32,58.79586077,Chrome,1500,1000,,,,,0,648,,,,,,,,,,,,,,,,,132,F,triangle,1,0,,,,,,,,,,,,,,,,repeat,number,numRpt,d,0.7511,noRew,,,,,,0,9,0,9,0,1,,,,,,,,,,,,,,,,,
295399,2022-12-06_17h36.24.160,vts_reward_expectancy_bt,2022.2.4,Win32,58.79586077,Chrome,1500,1000,,,,,0,648,,,,,,,,,,,,,,,,,174,U,star,1,0,,,,,,,,,,,,,,,,repeat,number,numRpt,f,0.8356,noRew,,,,,,0,10,0,10,0,1,,,,,,,,,,,,,,,,,
295399,2022-12-06_17h36.24.160,vts_reward_expectancy_bt,2022.2.4,Win32,58.79586077,Chrome,1500,1000,,,,,0,648,,,,,,,,,,,,,,,,,160,Y,circle,1,0,,,,,,,,,,,,,,,,switch,letter,lettSwt,k,0.8351,noRew,,,,,,0,11,0,11,0,1,,,,,,,,,,,,,,,,,
295399,2022-12-06_17h36.24.160,vts_reward_expectancy_bt,2022.2.4,Win32,58.79586077,Chrome,1500,1000,,,,,0,648,,,,,,,,,,,,,,,,,160,U,hexagon,1,0,,,,,,,,,,,,,,,,repeat,letter,lettRpt,k,0.7754,noRew,,,,,,0,12,0,12,0,1,,,,,,,,,,,,,,,,,
295399,2022-12-06_17h36.24.160,vts_reward_expectancy_bt,2022.2.4,Win32,58.79586077,Chrome,1500,1000,,,,,0,648,,,,,,,,,,,,,,,,,146,D,triangle,1,0,,,,,,,,,,,,,,,,switch,number,numSwt,d,0.8171,noRew,,,,,,0,13,0,13,0,1,,,,,,,,,,,,,,,,,
295399,2022-12-06_17h36.24.160,vts_reward_expectancy_bt,2022.2.4,Win32,58.79586077,Chrome,1500,1000,,,,,0,648,,,,,,,,,,,,,,,,,174,S,hexagon,1,0,,,,,,,,,,,,,,,,switch,letter,lettSwt,k,0.8725,noRew,,,,,,0,14,0,14,0,1,,,,,,,,,,,,,,,,,
295399,2022-12-06_17h36.24.160,vts_reward_expectancy_bt,2022.2.4,Win32,58.79586077,Chrome,1500,1000,,,,,0,648,,,,,,,,,,,,,,,,,167,B,circle,1,0,,,,,,,,,,,,,,,,repeat,letter,lettRpt,j,0.7022,noRew,,,,,,0,15,0,15,0,1,,,,,,,,,,,,,,,,,
295399,2022-12-06_17h36.24.160,vts_reward_expectancy_bt,2022.2.4,Win32,58.79586077,Chrome,1500,1000,,,,,0,648,,,,,,,,,,,,,,,,,146,H,circle,1,0,,,,,,,,,,,,,,,,switch,number,numSwt,d,0.8548,noRew,,,,,,0,16,0,16,0,1,,,,,,,,,,,,,,,,,
295399,2022-12-06_17h36.24.160,vts_reward_expectancy_bt,2022.2.4,Win32,58.79586077,Chrome,1500,1000,,,,,0,648,,,,,,,,,,,,,,,,,139,S,triangle,1,0,,,,,,,,,,,,,,,,repeat,number,numRpt,d,0.7844,noRew,,,,,,0,17,0,17,0,1,,,,,,,,,,,,,,,,,
295399,2022-12-06_17h36.24.160,vts_reward_expectancy_bt,2022.2.4,Win32,58.79586077,Chrome,1500,1000,,,,,0,648,,,,,,,,,,,,,,,,,174,D,star,1,0,,,,,,,,,,,,,,,,switch,letter,lettSwt,j,1.4044,noRew,,,,,,0,18,0,18,0,1,,,,,,,,,,,,,,,,,
295399,2022-12-06_17h36.24.160,vts_reward_expectancy_bt,2022.2.4,Win32,58.79586077,Chrome,1500,1000,,,,,0,648,,,,,,,,,,,,,,,,,181,B,hexagon,1,0,,,,,,,,,,,,,,,,repeat,letter,lettRpt,j,0.791,noRew,,,,,,0,19,0,19,0,1,,,,,,,,,,,,,,,,,
295399,2022-12-06_17h36.24.160,vts_reward_expectancy_bt,2022.2.4,Win32,58.79586077,Chrome,1500,1000,,,,,0,648,,,,,,,,,,,,,,,,,132,B,triangle,1,0,,,,,,,,,,,,,,,,repeat,letter,lettRpt,j,0.8742,noRew,,,,,,0,20,0,20,0,1,,,,,,,,,,,,,,,,,
295399,2022-12-06_17h36.24.160,vts_reward_expectancy_bt,2022.2.4,Win32,58.79586077,Chrome,1500,1000,,,,,0,648,,,,,,,,,,,,,,,,,181,F,circle,1,0,,,,,,,,,,,,,,,,switch,number,numSwt,f,0.7112,noRew,,,,,,0,21,0,21,0,1,,,,,,,,,,,,,,,,,
295399,2022-12-06_17h36.24.160,vts_reward_expectancy_bt,2022.2.4,Win32,58.79586077,Chrome,1500,1000,,,,,0,648,,,,,,,,,,,,,,,,,174,Y,triangle,1,0,,,,,,,,,,,,,,,,repeat,number,numRpt,f,0.6227,noRew,,,,,,0,22,0,22,0,1,,,,,,,,,,,,,,,,,
295399,2022-12-06_17h36.24.160,vts_reward_expectancy_bt,2022.2.4,Win32,58.79586077,Chrome,1500,1000,,,,,0,648,,,,,,,,,,,,,,,,,167,W,circle,1,0,,,,,,,,,,,,,,,,switch,letter,lettSwt,k,0.634,noRew,,,,,,0,23,0,23,0,1,,,,,,,,,,,,,,,,,
295399,2022-12-06_17h36.24.160,vts_reward_expectancy_bt,2022.2.4,Win32,58.79586077,Chrome,1500,1000,,,,,0,648,,,,,,,,,,,,,,,,,167,H,triangle,1,0,,,,,,,,,,,,,,,,repeat,letter,lettRpt,j,0.7668,noRew,,,,,,0,24,0,24,0,1,,,,,,,,,,,,,,,,,
295399,2022-12-06_17h36.24.160,vts_reward_expectancy_bt,2022.2.4,Win32,58.79586077,Chrome,1500,1000,,,,,0,648,,,,,,,,,,,,,,,,,160,B,hexagon,1,0,,,,,,,,,,,,,,,,repeat,letter,lettRpt,j,0.975,noRew,,,,,,0,25,0,25,0,1,,,,,,,,,,,,,,,,,
295399,2022-12-06_17h36.24.160,vts_reward_expectancy_bt,2022.2.4,Win32,58.79586077,Chrome,1500,1000,,,,,0,648,,,,,,,,,,,,,,,,,125,W,triangle,1,0,,,,,,,,,,,,,,,,repeat,letter,lettRpt,k,1.0005,noRew,,,,,,0,26,0,26,0,1,,,,,,,,,,,,,,,,,
295399,2022-12-06_17h36.24.160,vts_reward_expectancy_bt,2022.2.4,Win32,58.79586077,Chrome,1500,1000,,,,,0,648,,,,,,,,,,,,,,,,,181,F,circle,1,0,,,,,,,,,,,,,,,,switch,number,numSwt,f,0.7835,noRew,,,,,,0,27,0,27,0,1,,,,,,,,,,,,,,,,,
295399,2022-12-06_17h36.24.160,vts_reward_expectancy_bt,2022.2.4,Win32,58.79586077,Chrome,1500,1000,,,,,0,648,,,,,,,,,,,,,,,,,181,F,star,1,0,,,,,,,,,,,,,,,,repeat,number,numRpt,f,0.7219,noRew,,,,,,0,28,0,28,0,1,,,,,,,,,,,,,,,,,
295399,2022-12-06_17h36.24.160,vts_reward_expectancy_bt,2022.2.4,Win32,58.79586077,Chrome,1500,1000,,,,,0,648,,,,,,,,,,,,,,,,,139,H,hexagon,1,0,,,,,,,,,,,,,,,,repeat,number,numRpt,d,0.8708,noRew,,,,,,0,29,0,29,0,1,,,,,,,,,,,,,,,,,
295399,2022-12-06_17h36.24.160,vts_reward_expectancy_bt,2022.2.4,Win32,58.79586077,Chrome,1500,1000,,,,,0,648,,,,,,,,,,,,,,,,,174,D,circle,1,0,,,,,,,,,,,,,,,,switch,letter,lettSwt,j,1.2019,noRew,,,,,,0,30,0,30,0,1,,,,,,,,,,,,,,,,,
295399,2022-12-06_17h36.24.160,vts_reward_expectancy_bt,2022.2.4,Win32,58.79586077,Chrome,1500,1000,,,,,0,648,,,,,,,,,,,,,,,,,132,B,hexagon,1,0,,,,,,,,,,,,,,,,repeat,letter,lettRpt,j,1.0183,noRew,,,,,,0,31,0,31,0,1,,,,,,,,,,,,,,,,,
295399,2022-12-06_17h36.24.160,vts_reward_expectancy_bt,2022.2.4,Win32,58.79586077,Chrome,1500,1000,,,,,0,648,,,,,,,,,,,,,,,,,146,Y,circle,1,0,,,,,,,,,,,,,,,,switch,number,numSwt,d,0.8182,noRew,,,,,,0,32,0,32,0,1,,,,,,,,,,,,,,,,,
295399,2022-12-06_17h36.24.160,vts_reward_expectancy_bt,2022.2.4,Win32,58.79586077,Chrome,1500,1000,,,,,0,648,,,,,,,,,,,,,,,,,125,B,hexagon,1,0,,,,,,,,,,,,,,,,repeat,number,numRpt,d,0.6867,noRew,,,,,,0,33,0,33,0,1,,,,,,,,,,,,,,,,,
295399,2022-12-06_17h36.24.160,vts_reward_expectancy_bt,2022.2.4,Win32,58.79586077,Chrome,1500,1000,,,,,0,648,,,,,,,,,,,,,,,,,181,U,hexagon,1,0,,,,,,,,,,,,,,,,switch,letter,lettSwt,k,0.8009,noRew,,,,,,0,34,0,34,0,1,,,,,,,,,,,,,,,,,
295399,2022-12-06_17h36.24.160,vts_reward_expectancy_bt,2022.2.4,Win32,58.79586077,Chrome,1500,1000,,,,,0,648,,,,,,,,,,,,,,,,,132,F,star,1,0,,,,,,,,,,,,,,,,switch,number,numSwt,d,1.6508,noRew,,,,,,0,35,0,35,0,1,,,,,,,,,,,,,,,,,
295399,2022-12-06_17h36.24.160,vts_reward_expectancy_bt,2022.2.4,Win32,58.79586077,Chrome,1500,1000,,,,,0,648,,,,,,,,,,,,,,,,,160,B,star,1,0,,,,,,,,,,,,,,,,switch,letter,lettSwt,j,0.9358,noRew,,,,,,0,36,0,36,0,1,,,,,,,,,,,,,,,,,
295399,2022-12-06_17h36.24.160,vts_reward_expectancy_bt,2022.2.4,Win32,58.79586077,Chrome,1500,1000,,,,,0,648,,,,,,,,,,,,,,,,,139,F,triangle,1,0,,,,,,,,,,,,,,,,switch,number,numSwt,d,1.7672,noRew,,,,,,0,37,0,37,0,1,,,,,,,,,,,,,,,,,
295399,2022-12-06_17h36.24.160,vts_reward_expectancy_bt,2022.2.4,Win32,58.79586077,Chrome,1500,1000,,,,,0,648,,,,,,,,,,,,,,,,,174,H,triangle,0,0,,,,,,,,,,,,,,,,repeat,number,NA,d,2.0361,noRew,,,,,,0,38,0,38,0,1,,,,,,,,,,,,,,,,,
295399,2022-12-06_17h36.24.160,vts_reward_expectancy_bt,2022.2.4,Win32,58.79586077,Chrome,1500,1000,,,,,0,648,,,,,,,,,,,,,,,,,125,Y,circle,1,1,,,,,,,,,,,,,,,,repeat,number,numRpt,d,0.9972,noRew,,,,,,0,39,0,39,0,1,,,,,,,,,,,,,,,,,
295399,2022-12-06_17h36.24.160,vts_reward_expectancy_bt,2022.2.4,Win32,58.79586077,Chrome,1500,1000,,,,,0,648,,,,,,,,,,,,,,,,,125,D,triangle,1,0,,,,,,,,,,,,,,,,switch,letter,lettSwt,j,0.983,noRew,,,,,,0,40,0,40,0,1,,,,,,,,,,,,,,,,,
295399,2022-12-06_17h36.24.160,vts_reward_expectancy_bt,2022.2.4,Win32,58.79586077,Chrome,1500,1000,,,,,0,648,,,,,,,,,,,,,,,,,139,F,circle,1,0,,,,,,,,,,,,,,,,repeat,letter,lettRpt,j,1.531,noRew,,,,,,0,41,0,41,0,1,,,,,,,,,,,,,,,,,
295399,2022-12-06_17h36.24.160,vts_reward_expectancy_bt,2022.2.4,Win32,58.79586077,Chrome,1500,1000,,,,,0,648,,,,,,,,,,,,,,,,,167,Y,star,0,0,,,,,,,,,,,,,,,,switch,number,NA,d,1.4315,noRew,,,,,,0,42,0,42,0,1,,,,,,,,,,,,,,,,,
295399,2022-12-06_17h36.24.160,vts_reward_expectancy_bt,2022.2.4,Win32,58.79586077,Chrome,1500,1000,,,,,0,648,,,,,,,,,,,,,,,,,146,H,circle,1,1,,,,,,,,,,,,,,,,switch,letter,lettSwt,j,2.1805,noRew,,,,,,0,43,0,43,0,1,,,,,,,,,,,,,,,,,
295399,2022-12-06_17h36.24.160,vts_reward_expectancy_bt,2022.2.4,Win32,58.79586077,Chrome,1500,1000,,,,,0,648,,,,,,,,,,,,,,,,,174,F,hexagon,1,0,,,,,,,,,,,,,,,,repeat,letter,lettRpt,j,1.0364,noRew,,,,,,0,44,0,44,0,1,,,,,,,,,,,,,,,,,
295399,2022-12-06_17h36.24.160,vts_reward_expectancy_bt,2022.2.4,Win32,58.79586077,Chrome,1500,1000,,,,,0,648,,,,,,,,,,,,,,,,,181,Y,triangle,1,0,,,,,,,,,,,,,,,,repeat,letter,lettRpt,k,0.9641,noRew,,,,,,0,45,0,45,0,1,,,,,,,,,,,,,,,,,
295399,2022-12-06_17h36.24.160,vts_reward_expectancy_bt,2022.2.4,Win32,58.79586077,Chrome,1500,1000,,,,,0,648,,,,,,,,,,,,,,,,,125,W,star,1,0,,,,,,,,,,,,,,,,switch,number,numSwt,d,1.3132,noRew,,,,,,0,46,0,46,0,1,,,,,,,,,,,,,,,,,
295399,2022-12-06_17h36.24.160,vts_reward_expectancy_bt,2022.2.4,Win32,58.79586077,Chrome,1500,1000,,,,,0,648,,,,,,,,,,,,,,,,,167,U,circle,0,0,,,,,,,,,,,,,,,,repeat,number,NA,d,1.3613,noRew,,,,,,0,47,0,47,0,1,,,,,,,,,,,,,,,,,
295399,2022-12-06_17h36.24.160,vts_reward_expectancy_bt,2022.2.4,Win32,58.79586077,Chrome,1500,1000,,,,,0,648,,,,,,,,,,,,,,,,,146,Y,triangle,1,1,,,,,,,,,,,,,,,,switch,letter,lettSwt,k,1.0793,noRew,,,,,,0,48,0,48,0,1,,,,,,,,,,,,,,,,,
295399,2022-12-06_17h36.24.160,vts_reward_expectancy_bt,2022.2.4,Win32,58.79586077,Chrome,1500,1000,,,,,0,648,,,,,,,,,,,,,,,,,125,W,hexagon,1,0,,,,,,,,,,,,,,,,repeat,letter,lettRpt,k,0.8983,noRew,,,,,,0,49,0,49,0,1,,,,,,,,,,,,,,,,,
295399,2022-12-06_17h36.24.160,vts_reward_expectancy_bt,2022.2.4,Win32,58.79586077,Chrome,1500,1000,,,,,0,648,,,,,,,,,,,,,,,,,160,F,circle,1,0,,,,,,,,,,,,,,,,switch,number,numSwt,f,1.3662,noRew,,,,,,0,50,0,50,0,1,,,,,,,,,,,,,,,,,
295399,2022-12-06_17h36.24.160,vts_reward_expectancy_bt,2022.2.4,Win32,58.79586077,Chrome,1500,1000,,,,,0,648,,,,,,,,,,,,,,,,,174,H,triangle,1,0,,,,,,,,,,,,,,,,repeat,number,numRpt,f,1.6811,noRew,,,,,,0,51,0,51,0,1,,,,,,,,,,,,,,,,,
295399,2022-12-06_17h36.24.160,vts_reward_expectancy_bt,2022.2.4,Win32,58.79586077,Chrome,1500,1000,,,,,0,648,,,,,,,,,,,,,,,,,167,F,circle,1,0,,,,,,,,,,,,,,,,repeat,number,numRpt,f,1.0473,noRew,,,,,,0,52,0,52,0,1,,,,,,,,,,,,,,,,,
295399,2022-12-06_17h36.24.160,vts_reward_expectancy_bt,2022.2.4,Win32,58.79586077,Chrome,1500,1000,,,,,0,648,,,,,,,,,,,,,,,,,174,U,hexagon,1,0,,,,,,,,,,,,,,,,repeat,number,numRpt,f,0.6322,noRew,,,,,,0,53,0,53,0,1,,,,,,,,,,,,,,,,,
295399,2022-12-06_17h36.24.160,vts_reward_expectancy_bt,2022.2.4,Win32,58.79586077,Chrome,1500,1000,,,,,0,648,,,,,,,,,,,,,,,,,132,H,star,1,0,,,,,,,,,,,,,,,,repeat,number,numRpt,d,0.9316,noRew,,,,,,0,54,0,54,0,1,,,,,,,,,,,,,,,,,
295399,2022-12-06_17h36.24.160,vts_reward_expectancy_bt,2022.2.4,Win32,58.79586077,Chrome,1500,1000,,,,,0,648,,,,,,,,,,,,,,,,,181,Y,hexagon,1,0,,,,,,,,,,,,,,,,repeat,number,numRpt,f,0.8127,noRew,,,,,,0,55,0,55,0,1,,,,,,,,,,,,,,,,,
295399,2022-12-06_17h36.24.160,vts_reward_expectancy_bt,2022.2.4,Win32,58.79586077,Chrome,1500,1000,,,,,0,648,,,,,,,,,,,,,,,,,181,Y,star,1,0,,,,,,,,,,,,,,,,switch,letter,lettSwt,k,0.9511,noRew,,,,,,0,56,0,56,0,1,,,,,,,,,,,,,,,,,
295399,2022-12-06_17h36.24.160,vts_reward_expectancy_bt,2022.2.4,Win32,58.79586077,Chrome,1500,1000,,,,,0,648,,,,,,,,,,,,,,,,,174,S,circle,1,0,,,,,,,,,,,,,,,,repeat,letter,lettRpt,k,0.7842,noRew,,,,,,0,57,0,57,0,1,,,,,,,,,,,,,,,,,
295399,2022-12-06_17h36.24.160,vts_reward_expectancy_bt,2022.2.4,Win32,58.79586077,Chrome,1500,1000,,,,,0,648,,,,,,,,,,,,,,,,,167,F,hexagon,0,0,,,,,,,,,,,,,,,,repeat,letter,NA,k,0.8661,noRew,,,,,,0,58,0,58,0,1,,,,,,,,,,,,,,,,,
295399,2022-12-06_17h36.24.160,vts_reward_expectancy_bt,2022.2.4,Win32,58.79586077,Chrome,1500,1000,,,,,0,648,,,,,,,,,,,,,,,,,160,B,circle,1,1,,,,,,,,,,,,,,,,repeat,letter,lettRpt,j,1.1791,noRew,,,,,,0,59,0,59,0,1,,,,,,,,,,,,,,,,,
295399,2022-12-06_17h36.24.160,vts_reward_expectancy_bt,2022.2.4,Win32,58.79586077,Chrome,1500,1000,,,,,0,648,,,,,,,,,,,,,,,,,174,H,circle,1,0,,,,,,,,,,,,,,,,repeat,letter,lettRpt,j,1.3987,noRew,,,,,,0,60,0,60,0,1,,,,,,,,,,,,,,,,,
295399,2022-12-06_17h36.24.160,vts_reward_expectancy_bt,2022.2.4,Win32,58.79586077,Chrome,1500,1000,,,,,0,648,,,,,,,,,,,,,,,,,132,S,triangle,1,0,,,,,,,,,,,,,,,,repeat,letter,lettRpt,k,1.2636,noRew,,,,,,0,61,0,61,0,1,,,,,,,,,,,,,,,,,
295399,2022-12-06_17h36.24.160,vts_reward_expectancy_bt,2022.2.4,Win32,58.79586077,Chrome,1500,1000,,,,,0,648,,,,,,,,,,,,,,,,,146,F,circle,1,0,,,,,,,,,,,,,,,,switch,number,numSwt,d,1.4141,noRew,,,,,,0,62,0,62,0,1,,,,,,,,,,,,,,,,,
295399,2022-12-06_17h36.24.160,vts_reward_expectancy_bt,2022.2.4,Win32,58.79586077,Chrome,1500,1000,,,,,0,648,,,,,,,,,,,,,,,,,160,W,triangle,1,0,,,,,,,,,,,,,,,,switch,letter,lettSwt,k,1.7519,noRew,,,,,,0,63,0,63,0,1,,,,,,,,,,,,,,,,,
295399,2022-12-06_17h36.24.160,vts_reward_expectancy_bt,2022.2.4,Win32,58.79586077,Chrome,1500,1000,,,,,,,,,,,,,,,,,,,,,,,,,,,,,,,,,,,,,,,,,,,,,,,,,,,,,,,,,,,,,,,,,,,,,,,,,,,,
295399,2022-12-06_17h36.24.160,vts_reward_expectancy_bt,2022.2.4,Win32,58.79586077,Chrome,1500,1000,,,,,0,648,,,,,,,,,,,,,,,,,167,H,circle,1,0,,,,,,,,,,,,,,,,repeat,letter,lettRpt,j,1.1623,Hi,,,,,,0,,,,,,space,23.1704,high,0,0,0,0,1,,,,,,,,,
295399,2022-12-06_17h36.24.160,vts_reward_expectancy_bt,2022.2.4,Win32,58.79586077,Chrome,1500,1000,,,,,10,658,,,,,,,,,,,,,,,,,146,F,hexagon,1,0,,,,,,,,,,,,,,,,repeat,letter,lettRpt,j,0.6315,Hi,,,,,,0,,,,,,,,high,1,0,1,0,1,,,,,,,,,
295399,2022-12-06_17h36.24.160,vts_reward_expectancy_bt,2022.2.4,Win32,58.79586077,Chrome,1500,1000,,,,,0,658,,,,,,,,,,,,,,,,,160,D,star,0,0,,,,,,,,,,,,,,,,switch,number,NA,d,0.8822,Hi,,,,,,0,,,,,,,,high,2,0,2,0,1,,,,,,,,,
295399,2022-12-06_17h36.24.160,vts_reward_expectancy_bt,2022.2.4,Win32,58.79586077,Chrome,1500,1000,,,,,1,659,,,,,,,,,,,,,,,,,132,U,triangle,1,1,,,,,,,,,,,,,,,,switch,letter,lettSwt,k,0.8978,Lo,,,,,,0,,,,,,,,high,3,0,3,0,1,,,,,,,,,
295399,2022-12-06_17h36.24.160,vts_reward_expectancy_bt,2022.2.4,Win32,58.79586077,Chrome,1500,1000,,,,,10,669,,,,,,,,,,,,,,,,,125,S,circle,1,0,,,,,,,,,,,,,,,,repeat,letter,lettRpt,k,0.6962,Hi,,,,,,0,,,,,,,,high,4,0,4,0,1,,,,,,,,,
295399,2022-12-06_17h36.24.160,vts_reward_expectancy_bt,2022.2.4,Win32,58.79586077,Chrome,1500,1000,,,,,10,679,,,,,,,,,,,,,,,,,181,W,hexagon,1,0,,,,,,,,,,,,,,,,repeat,letter,lettRpt,k,0.6994,Hi,,,,,,0,,,,,,,,high,5,0,5,0,1,,,,,,,,,
295399,2022-12-06_17h36.24.160,vts_reward_expectancy_bt,2022.2.4,Win32,58.79586077,Chrome,1500,1000,,,,,1,680,,,,,,,,,,,,,,,,,174,B,star,1,0,,,,,,,,,,,,,,,,switch,number,numSwt,f,0.6144,Lo,,,,,,0,,,,,,,,high,6,0,6,0,1,,,,,,,,,
295399,2022-12-06_17h36.24.160,vts_reward_expectancy_bt,2022.2.4,Win32,58.79586077,Chrome,1500,1000,,,,,1,681,,,,,,,,,,,,,,,,,139,Y,triangle,1,0,,,,,,,,,,,,,,,,switch,letter,lettSwt,k,1.3158,Lo,,,,,,0,,,,,,,,high,7,0,7,0,1,,,,,,,,,
295399,2022-12-06_17h36.24.160,vts_reward_expectancy_bt,2022.2.4,Win32,58.79586077,Chrome,1500,1000,,,,,0,681,,,,,,,,,,,,,,,,,167,H,circle,0,0,,,,,,,,,,,,,,,,repeat,letter,NA,k,1.1772,Lo,,,,,,0,,,,,,,,high,8,0,8,0,1,,,,,,,,,
295399,2022-12-06_17h36.24.160,vts_reward_expectancy_bt,2022.2.4,Win32,58.79586077,Chrome,1500,1000,,,,,10,691,,,,,,,,,,,,,,,,,146,F,triangle,1,1,,,,,,,,,,,,,,,,repeat,letter,lettRpt,j,0.9664,Lo,,,,,,0,,,,,,,,high,9,0,9,0,1,,,,,,,,,
295399,2022-12-06_17h36.24.160,vts_reward_expectancy_bt,2022.2.4,Win32,58.79586077,Chrome,1500,1000,,,,,1,692,,,,,,,,,,,,,,,,,160,D,star,1,0,,,,,,,,,,,,,,,,switch,number,numSwt,f,0.7805,Lo,,,,,,0,,,,,,,,high,10,0,10,0,1,,,,,,,,,
295399,2022-12-06_17h36.24.160,vts_reward_expectancy_bt,2022.2.4,Win32,58.79586077,Chrome,1500,1000,,,,,10,702,,,,,,,,,,,,,,,,,132,U,hexagon,1,0,,,,,,,,,,,,,,,,switch,letter,lettSwt,k,0.5821,Hi,,,,,,0,,,,,,,,high,11,0,11,0,1,,,,,,,,,
295399,2022-12-06_17h36.24.160,vts_reward_expectancy_bt,2022.2.4,Win32,58.79586077,Chrome,1500,1000,,,,,10,712,,,,,,,,,,,,,,,,,125,S,circle,1,0,,,,,,,,,,,,,,,,repeat,letter,lettRpt,k,0.7806,Hi,,,,,,0,,,,,,,,high,12,0,12,0,1,,,,,,,,,
295399,2022-12-06_17h36.24.160,vts_reward_expectancy_bt,2022.2.4,Win32,58.79586077,Chrome,1500,1000,,,,,1,713,,,,,,,,,,,,,,,,,181,W,triangle,1,0,,,,,,,,,,,,,,,,repeat,letter,lettRpt,k,0.6431,Lo,,,,,,0,,,,,,,,high,13,0,13,0,1,,,,,,,,,
295399,2022-12-06_17h36.24.160,vts_reward_expectancy_bt,2022.2.4,Win32,58.79586077,Chrome,1500,1000,,,,,1,714,,,,,,,,,,,,,,,,,174,B,star,1,0,,,,,,,,,,,,,,,,repeat,letter,lettRpt,j,1.785,Lo,,,,,,0,,,,,,,,high,14,0,14,0,1,,,,,,,,,
295399,2022-12-06_17h36.24.160,vts_reward_expectancy_bt,2022.2.4,Win32,58.79586077,Chrome,1500,1000,,,,,0,714,,,,,,,,,,,,,,,,,139,Y,hexagon,1,0,,,,,,,,,,,,,,,,repeat,letter,lettRpt,k,1.9675,Hi,,,,,,0,,,,,,,,high,15,0,15,0,1,,,,,,,,,
295399,2022-12-06_17h36.24.160,vts_reward_expectancy_bt,2022.2.4,Win32,58.79586077,Chrome,1500,1000,,,,,0,714,,,,,,,,,,,,,,,,,125,F,circle,1,0,,,,,,,,,,,,,,,,repeat,letter,lettRpt,j,0.82,Hi,,,,,,0,,,,,,,,high,16,0,16,0,1,,,,,,,,,
295399,2022-12-06_17h36.24.160,vts_reward_expectancy_bt,2022.2.4,Win32,58.79586077,Chrome,1500,1000,,,,,1,715,,,,,,,,,,,,,,,,,181,Y,triangle,1,0,,,,,,,,,,,,,,,,repeat,letter,lettRpt,k,0.8804,Lo,,,,,,0,,,,,,,,high,17,0,17,0,1,,,,,,,,,
295399,2022-12-06_17h36.24.160,vts_reward_expectancy_bt,2022.2.4,Win32,58.79586077,Chrome,1500,1000,,,,,10,725,,,,,,,,,,,,,,,,,174,U,hexagon,1,0,,,,,,,,,,,,,,,,repeat,letter,lettRpt,k,0.7689,Hi,,,,,,0,,,,,,,,high,18,0,18,0,1,,,,,,,,,
295399,2022-12-06_17h36.24.160,vts_reward_expectancy_bt,2022.2.4,Win32,58.79586077,Chrome,1500,1000,,,,,1,726,,,,,,,,,,,,,,,,,160,W,star,1,0,,,,,,,,,,,,,,,,repeat,letter,lettRpt,k,0.5716,Lo,,,,,,0,,,,,,,,high,19,0,19,0,1,,,,,,,,,
295399,2022-12-06_17h36.24.160,vts_reward_expectancy_bt,2022.2.4,Win32,58.79586077,Chrome,1500,1000,,,,,0,726,,,,,,,,,,,,,,,,,146,D,star,0,0,,,,,,,,,,,,,,,,repeat,letter,NA,k,0.6975,Lo,,,,,,0,,,,,,,,high,20,0,20,0,1,,,,,,,,,
295399,2022-12-06_17h36.24.160,vts_reward_expectancy_bt,2022.2.4,Win32,58.79586077,Chrome,1500,1000,,,,,0,726,,,,,,,,,,,,,,,,,139,H,circle,1,1,,,,,,,,,,,,,,,,repeat,letter,lettRpt,j,0.847,Hi,,,,,,0,,,,,,,,high,21,0,21,0,1,,,,,,,,,
295399,2022-12-06_17h36.24.160,vts_reward_expectancy_bt,2022.2.4,Win32,58.79586077,Chrome,1500,1000,,,,,0,726,,,,,,,,,,,,,,,,,167,B,hexagon,1,0,,,,,,,,,,,,,,,,switch,number,numSwt,f,0.9367,Hi,,,,,,0,,,,,,,,high,22,0,22,0,1,,,,,,,,,
295399,2022-12-06_17h36.24.160,vts_reward_expectancy_bt,2022.2.4,Win32,58.79586077,Chrome,1500,1000,,,,,1,727,,,,,,,,,,,,,,,,,132,S,triangle,1,0,,,,,,,,,,,,,,,,switch,letter,lettSwt,k,0.7849,Lo,,,,,,0,,,,,,,,high,23,0,23,0,1,,,,,,,,,
295399,2022-12-06_17h36.24.160,vts_reward_expectancy_bt,2022.2.4,Win32,58.79586077,Chrome,1500,1000,,,,,0,727,,,,,,,,,,,,,,,,,160,W,hexagon,1,0,,,,,,,,,,,,,,,,switch,number,numSwt,f,0.8661,Hi,,,,,,0,,,,,,,,high,24,0,24,0,1,,,,,,,,,
295399,2022-12-06_17h36.24.160,vts_reward_expectancy_bt,2022.2.4,Win32,58.79586077,Chrome,1500,1000,,,,,10,737,,,,,,,,,,,,,,,,,146,F,triangle,1,0,,,,,,,,,,,,,,,,switch,letter,lettSwt,j,0.813,Lo,,,,,,0,,,,,,,,high,25,0,25,0,1,,,,,,,,,
295399,2022-12-06_17h36.24.160,vts_reward_expectancy_bt,2022.2.4,Win32,58.79586077,Chrome,1500,1000,,,,,10,747,,,,,,,,,,,,,,,,,174,S,star,1,0,,,,,,,,,,,,,,,,repeat,letter,lettRpt,k,0.5795,Lo,,,,,,0,,,,,,,,high,26,0,26,0,1,,,,,,,,,
295399,2022-12-06_17h36.24.160,vts_reward_expectancy_bt,2022.2.4,Win32,58.79586077,Chrome,1500,1000,,,,,0,747,,,,,,,,,,,,,,,,,167,B,circle,1,0,,,,,,,,,,,,,,,,switch,number,numSwt,f,1.0011,Hi,,,,,,0,,,,,,,,high,27,0,27,0,1,,,,,,,,,
295399,2022-12-06_17h36.24.160,vts_reward_expectancy_bt,2022.2.4,Win32,58.79586077,Chrome,1500,1000,,,,,1,748,,,,,,,,,,,,,,,,,181,U,star,1,0,,,,,,,,,,,,,,,,switch,letter,lettSwt,k,0.9022,Lo,,,,,,0,,,,,,,,high,28,0,28,0,1,,,,,,,,,
295399,2022-12-06_17h36.24.160,vts_reward_expectancy_bt,2022.2.4,Win32,58.79586077,Chrome,1500,1000,,,,,1,749,,,,,,,,,,,,,,,,,132,H,triangle,1,0,,,,,,,,,,,,,,,,repeat,letter,lettRpt,j,1.0142,Lo,,,,,,0,,,,,,,,high,29,0,29,0,1,,,,,,,,,
295399,2022-12-06_17h36.24.160,vts_reward_expectancy_bt,2022.2.4,Win32,58.79586077,Chrome,1500,1000,,,,,10,759,,,,,,,,,,,,,,,,,139,D,hexagon,1,0,,,,,,,,,,,,,,,,repeat,letter,lettRpt,j,0.6632,Hi,,,,,,0,,,,,,,,high,30,0,30,0,1,,,,,,,,,
295399,2022-12-06_17h36.24.160,vts_reward_expectancy_bt,2022.2.4,Win32,58.79586077,Chrome,1500,1000,,,,,10,769,,,,,,,,,,,,,,,,,125,Y,circle,1,0,,,,,,,,,,,,,,,,repeat,letter,lettRpt,k,0.5686,Hi,,,,,,0,,,,,,,,high,31,0,31,0,1,,,,,,,,,
295399,2022-12-06_17h36.24.160,vts_reward_expectancy_bt,2022.2.4,Win32,58.79586077,Chrome,1500,1000,,,,,10,779,,,,,,,,,,,,,,,,,139,F,hexagon,1,0,,,,,,,,,,,,,,,,repeat,letter,lettRpt,j,0.5643,Hi,,,,,,1,,,,,,space,4.054,high,0,0,0,0,1,,,,,,,,,
295399,2022-12-06_17h36.24.160,vts_reward_expectancy_bt,2022.2.4,Win32,58.79586077,Chrome,1500,1000,,,,,1,780,,,,,,,,,,,,,,,,,132,U,triangle,1,0,,,,,,,,,,,,,,,,repeat,letter,lettRpt,k,0.5683,Lo,,,,,,1,,,,,,,,high,1,0,1,0,1,,,,,,,,,
295399,2022-12-06_17h36.24.160,vts_reward_expectancy_bt,2022.2.4,Win32,58.79586077,Chrome,1500,1000,,,,,10,790,,,,,,,,,,,,,,,,,160,W,star,1,0,,,,,,,,,,,,,,,,switch,number,numSwt,f,0.4976,Lo,,,,,,1,,,,,,,,high,2,0,2,0,1,,,,,,,,,
295399,2022-12-06_17h36.24.160,vts_reward_expectancy_bt,2022.2.4,Win32,58.79586077,Chrome,1500,1000,,,,,10,800,,,,,,,,,,,,,,,,,167,Y,circle,1,0,,,,,,,,,,,,,,,,repeat,number,numRpt,f,0.4959,Hi,,,,,,1,,,,,,,,high,3,0,3,0,1,,,,,,,,,
295399,2022-12-06_17h36.24.160,vts_reward_expectancy_bt,2022.2.4,Win32,58.79586077,Chrome,1500,1000,,,,,10,810,,,,,,,,,,,,,,,,,146,D,hexagon,1,0,,,,,,,,,,,,,,,,switch,letter,lettSwt,j,0.6151,Hi,,,,,,1,,,,,,,,high,4,0,4,0,1,,,,,,,,,
295399,2022-12-06_17h36.24.160,vts_reward_expectancy_bt,2022.2.4,Win32,58.79586077,Chrome,1500,1000,,,,,1,811,,,,,,,,,,,,,,,,,174,B,triangle,1,0,,,,,,,,,,,,,,,,switch,number,numSwt,f,0.7999,Lo,,,,,,1,,,,,,,,high,5,0,5,0,1,,,,,,,,,
295399,2022-12-06_17h36.24.160,vts_reward_expectancy_bt,2022.2.4,Win32,58.79586077,Chrome,1500,1000,,,,,1,812,,,,,,,,,,,,,,,,,181,S,star,1,0,,,,,,,,,,,,,,,,repeat,number,numRpt,f,0.7159,Lo,,,,,,1,,,,,,,,high,6,0,6,0,1,,,,,,,,,
295399,2022-12-06_17h36.24.160,vts_reward_expectancy_bt,2022.2.4,Win32,58.79586077,Chrome,1500,1000,,,,,0,812,,,,,,,,,,,,,,,,,125,H,circle,0,0,,,,,,,,,,,,,,,,repeat,number,NA,f,0.6968,Lo,,,,,,1,,,,,,,,high,7,0,7,0,1,,,,,,,,,
295399,2022-12-06_17h36.24.160,vts_reward_expectancy_bt,2022.2.4,Win32,58.79586077,Chrome,1500,1000,,,,,1,813,,,,,,,,,,,,,,,,,139,F,triangle,1,1,,,,,,,,,,,,,,,,repeat,number,numRpt,d,0.7477,Lo,,,,,,1,,,,,,,,high,8,0,8,0,1,,,,,,,,,
295399,2022-12-06_17h36.24.160,vts_reward_expectancy_bt,2022.2.4,Win32,58.79586077,Chrome,1500,1000,,,,,10,823,,,,,,,,,,,,,,,,,132,U,hexagon,1,0,,,,,,,,,,,,,,,,switch,letter,lettSwt,k,0.6512,Hi,,,,,,1,,,,,,,,high,9,0,9,0,1,,,,,,,,,
295399,2022-12-06_17h36.24.160,vts_reward_expectancy_bt,2022.2.4,Win32,58.79586077,Chrome,1500,1000,,,,,1,824,,,,,,,,,,,,,,,,,160,W,star,1,0,,,,,,,,,,,,,,,,switch,number,numSwt,f,0.7634,Lo,,,,,,1,,,,,,,,high,10,0,10,0,1,,,,,,,,,
295399,2022-12-06_17h36.24.160,vts_reward_expectancy_bt,2022.2.4,Win32,58.79586077,Chrome,1500,1000,,,,,1,825,,,,,,,,,,,,,,,,,167,Y,circle,1,0,,,,,,,,,,,,,,,,switch,letter,lettSwt,k,0.6454,Hi,,,,,,1,,,,,,,,high,11,0,11,0,1,,,,,,,,,
295399,2022-12-06_17h36.24.160,vts_reward_expectancy_bt,2022.2.4,Win32,58.79586077,Chrome,1500,1000,,,,,0,825,,,,,,,,,,,,,,,,,146,D,triangle,0,0,,,,,,,,,,,,,,,,repeat,letter,NA,k,0.6962,Hi,,,,,,1,,,,,,,,high,12,0,12,0,1,,,,,,,,,
295399,2022-12-06_17h36.24.160,vts_reward_expectancy_bt,2022.2.4,Win32,58.79586077,Chrome,1500,1000,,,,,1,826,,,,,,,,,,,,,,,,,174,B,hexagon,1,1,,,,,,,,,,,,,,,,repeat,letter,lettRpt,j,0.5965,Hi,,,,,,1,,,,,,,,high,13,0,13,0,1,,,,,,,,,
295399,2022-12-06_17h36.24.160,vts_reward_expectancy_bt,2022.2.4,Win32,58.79586077,Chrome,1500,1000,,,,,10,836,,,,,,,,,,,,,,,,,181,S,circle,1,0,,,,,,,,,,,,,,,,repeat,letter,lettRpt,k,0.5476,Hi,,,,,,1,,,,,,,,high,14,0,14,0,1,,,,,,,,,
295399,2022-12-06_17h36.24.160,vts_reward_expectancy_bt,2022.2.4,Win32,58.79586077,Chrome,1500,1000,,,,,1,837,,,,,,,,,,,,,,,,,125,H,star,1,0,,,,,,,,,,,,,,,,repeat,letter,lettRpt,j,0.6321,Lo,,,,,,1,,,,,,,,high,15,0,15,0,1,,,,,,,,,
295399,2022-12-06_17h36.24.160,vts_reward_expectancy_bt,2022.2.4,Win32,58.79586077,Chrome,1500,1000,,,,,1,838,,,,,,,,,,,,,,,,,139,D,triangle,1,0,,,,,,,,,,,,,,,,repeat,letter,lettRpt,j,0.646,Lo,,,,,,1,,,,,,,,high,16,0,16,0,1,,,,,,,,,
295399,2022-12-06_17h36.24.160,vts_reward_expectancy_bt,2022.2.4,Win32,58.79586077,Chrome,1500,1000,,,,,0,838,,,,,,,,,,,,,,,,,125,U,circle,1,0,,,,,,,,,,,,,,,,repeat,letter,lettRpt,k,0.713,Hi,,,,,,1,,,,,,,,high,17,0,17,0,1,,,,,,,,,
295399,2022-12-06_17h36.24.160,vts_reward_expectancy_bt,2022.2.4,Win32,58.79586077,Chrome,1500,1000,,,,,0,838,,,,,,,,,,,,,,,,,132,H,hexagon,1,0,,,,,,,,,,,,,,,,switch,number,numSwt,d,0.8307,Hi,,,,,,1,,,,,,,,high,18,0,18,0,1,,,,,,,,,
295399,2022-12-06_17h36.24.160,vts_reward_expectancy_bt,2022.2.4,Win32,58.79586077,Chrome,1500,1000,,,,,1,839,,,,,,,,,,,,,,,,,146,S,star,1,0,,,,,,,,,,,,,,,,repeat,number,numRpt,d,0.6555,Lo,,,,,,1,,,,,,,,high,19,0,19,0,1,,,,,,,,,
295399,2022-12-06_17h36.24.160,vts_reward_expectancy_bt,2022.2.4,Win32,58.79586077,Chrome,1500,1000,,,,,10,849,,,,,,,,,,,,,,,,,181,F,circle,1,0,,,,,,,,,,,,,,,,switch,letter,lettSwt,j,0.7989,Hi,,,,,,1,,,,,,,,high,20,0,20,0,1,,,,,,,,,
295399,2022-12-06_17h36.24.160,vts_reward_expectancy_bt,2022.2.4,Win32,58.79586077,Chrome,1500,1000,,,,,1,850,,,,,,,,,,,,,,,,,167,Y,triangle,1,0,,,,,,,,,,,,,,,,repeat,letter,lettRpt,k,0.6521,Lo,,,,,,1,,,,,,,,high,21,0,21,0,1,,,,,,,,,
295399,2022-12-06_17h36.24.160,vts_reward_expectancy_bt,2022.2.4,Win32,58.79586077,Chrome,1500,1000,,,,,0,850,,,,,,,,,,,,,,,,,160,B,hexagon,0,0,,,,,,,,,,,,,,,,repeat,letter,NA,k,0.4853,Lo,,,,,,1,,,,,,,,high,22,0,22,0,1,,,,,,,,,
295399,2022-12-06_17h36.24.160,vts_reward_expectancy_bt,2022.2.4,Win32,58.79586077,Chrome,1500,1000,,,,,1,851,,,,,,,,,,,,,,,,,174,W,star,1,1,,,,,,,,,,,,,,,,repeat,letter,lettRpt,k,0.6151,Lo,,,,,,1,,,,,,,,high,23,0,23,0,1,,,,,,,,,
295399,2022-12-06_17h36.24.160,vts_reward_expectancy_bt,2022.2.4,Win32,58.79586077,Chrome,1500,1000,,,,,1,852,,,,,,,,,,,,,,,,,160,S,star,1,0,,,,,,,,,,,,,,,,repeat,letter,lettRpt,k,0.6647,Lo,,,,,,1,,,,,,,,high,24,0,24,0,1,,,,,,,,,
295399,2022-12-06_17h36.24.160,vts_reward_expectancy_bt,2022.2.4,Win32,58.79586077,Chrome,1500,1000,,,,,1,853,,,,,,,,,,,,,,,,,146,W,triangle,1,0,,,,,,,,,,,,,,,,repeat,letter,lettRpt,k,0.6645,Lo,,,,,,1,,,,,,,,high,25,0,25,0,1,,,,,,,,,
295399,2022-12-06_17h36.24.160,vts_reward_expectancy_bt,2022.2.4,Win32,58.79586077,Chrome,1500,1000,,,,,10,863,,,,,,,,,,,,,,,,,132,B,hexagon,1,0,,,,,,,,,,,,,,,,repeat,letter,lettRpt,j,0.6463,Hi,,,,,,1,,,,,,,,high,26,0,26,0,1,,,,,,,,,
295399,2022-12-06_17h36.24.160,vts_reward_expectancy_bt,2022.2.4,Win32,58.79586077,Chrome,1500,1000,,,,,0,863,,,,,,,,,,,,,,,,,139,F,circle,1,0,,,,,,,,,,,,,,,,switch,number,numSwt,d,1.2799,Hi,,,,,,1,,,,,,,,high,27,0,27,0,1,,,,,,,,,
295399,2022-12-06_17h36.24.160,vts_reward_expectancy_bt,2022.2.4,Win32,58.79586077,Chrome,1500,1000,,,,,10,873,,,,,,,,,,,,,,,,,125,U,hexagon,1,0,,,,,,,,,,,,,,,,switch,letter,lettSwt,k,0.7361,Hi,,,,,,1,,,,,,,,high,28,0,28,0,1,,,,,,,,,
295399,2022-12-06_17h36.24.160,vts_reward_expectancy_bt,2022.2.4,Win32,58.79586077,Chrome,1500,1000,,,,,1,874,,,,,,,,,,,,,,,,,174,H,star,1,0,,,,,,,,,,,,,,,,repeat,letter,lettRpt,j,1.0996,Lo,,,,,,1,,,,,,,,high,29,0,29,0,1,,,,,,,,,
295399,2022-12-06_17h36.24.160,vts_reward_expectancy_bt,2022.2.4,Win32,58.79586077,Chrome,1500,1000,,,,,10,884,,,,,,,,,,,,,,,,,181,Y,circle,1,0,,,,,,,,,,,,,,,,repeat,letter,lettRpt,k,0.5643,Hi,,,,,,1,,,,,,,,high,30,0,30,0,1,,,,,,,,,
295399,2022-12-06_17h36.24.160,vts_reward_expectancy_bt,2022.2.4,Win32,58.79586077,Chrome,1500,1000,,,,,1,885,,,,,,,,,,,,,,,,,167,D,triangle,1,0,,,,,,,,,,,,,,,,switch,number,numSwt,f,0.6978,Lo,,,,,,1,,,,,,,,high,31,0,31,0,1,,,,,,,,,
295399,2022-12-06_17h36.24.160,vts_reward_expectancy_bt,2022.2.4,Win32,58.79586077,Chrome,1500,1000,,,,,1,886,,,,,,,,,,,,,,,,,167,S,triangle,1,0,,,,,,,,,,,,,,,,switch,letter,lettSwt,k,0.6832,Lo,,,,,,2,,,,,,space,2.2055,high,0,0,0,0,1,,,,,,,,,
295399,2022-12-06_17h36.24.160,vts_reward_expectancy_bt,2022.2.4,Win32,58.79586077,Chrome,1500,1000,,,,,10,896,,,,,,,,,,,,,,,,,174,B,star,1,0,,,,,,,,,,,,,,,,repeat,letter,lettRpt,j,0.6296,Lo,,,,,,2,,,,,,,,high,1,0,1,0,1,,,,,,,,,
295399,2022-12-06_17h36.24.160,vts_reward_expectancy_bt,2022.2.4,Win32,58.79586077,Chrome,1500,1000,,,,,0,896,,,,,,,,,,,,,,,,,139,H,circle,0,0,,,,,,,,,,,,,,,,repeat,letter,NA,k,0.5309,Lo,,,,,,2,,,,,,,,high,2,0,2,0,1,,,,,,,,,
295399,2022-12-06_17h36.24.160,vts_reward_expectancy_bt,2022.2.4,Win32,58.79586077,Chrome,1500,1000,,,,,10,906,,,,,,,,,,,,,,,,,132,W,hexagon,1,1,,,,,,,,,,,,,,,,repeat,letter,lettRpt,k,0.5826,Hi,,,,,,2,,,,,,,,high,3,0,3,0,1,,,,,,,,,
295399,2022-12-06_17h36.24.160,vts_reward_expectancy_bt,2022.2.4,Win32,58.79586077,Chrome,1500,1000,,,,,1,907,,,,,,,,,,,,,,,,,125,F,triangle,1,0,,,,,,,,,,,,,,,,switch,number,numSwt,d,0.7167,Lo,,,,,,2,,,,,,,,high,4,0,4,0,1,,,,,,,,,
295399,2022-12-06_17h36.24.160,vts_reward_expectancy_bt,2022.2.4,Win32,58.79586077,Chrome,1500,1000,,,,,1,908,,,,,,,,,,,,,,,,,181,U,star,1,0,,,,,,,,,,,,,,,,repeat,number,numRpt,f,0.8135,Lo,,,,,,2,,,,,,,,high,5,0,5,0,1,,,,,,,,,
295399,2022-12-06_17h36.24.160,vts_reward_expectancy_bt,2022.2.4,Win32,58.79586077,Chrome,1500,1000,,,,,10,918,,,,,,,,,,,,,,,,,146,Y,circle,1,0,,,,,,,,,,,,,,,,repeat,number,numRpt,d,0.6361,Hi,,,,,,2,,,,,,,,high,6,0,6,0,1,,,,,,,,,
295399,2022-12-06_17h36.24.160,vts_reward_expectancy_bt,2022.2.4,Win32,58.79586077,Chrome,1500,1000,,,,,0,918,,,,,,,,,,,,,,,,,160,D,hexagon,1,0,,,,,,,,,,,,,,,,switch,letter,lettSwt,j,0.6616,Hi,,,,,,2,,,,,,,,high,7,0,7,0,1,,,,,,,,,
295399,2022-12-06_17h36.24.160,vts_reward_expectancy_bt,2022.2.4,Win32,58.79586077,Chrome,1500,1000,,,,,10,928,,,,,,,,,,,,,,,,,167,S,hexagon,1,0,,,,,,,,,,,,,,,,repeat,letter,lettRpt,k,0.5661,Hi,,,,,,2,,,,,,,,high,8,0,8,0,1,,,,,,,,,
295399,2022-12-06_17h36.24.160,vts_reward_expectancy_bt,2022.2.4,Win32,58.79586077,Chrome,1500,1000,,,,,0,928,,,,,,,,,,,,,,,,,174,B,circle,1,0,,,,,,,,,,,,,,,,repeat,letter,lettRpt,j,0.6491,Hi,,,,,,2,,,,,,,,high,9,0,9,0,1,,,,,,,,,
295399,2022-12-06_17h36.24.160,vts_reward_expectancy_bt,2022.2.4,Win32,58.79586077,Chrome,1500,1000,,,,,1,929,,,,,,,,,,,,,,,,,139,H,star,1,0,,,,,,,,,,,,,,,,repeat,letter,lettRpt,j,0.947,Lo,,,,,,2,,,,,,,,high,10,0,10,0,1,,,,,,,,,
295399,2022-12-06_17h36.24.160,vts_reward_expectancy_bt,2022.2.4,Win32,58.79586077,Chrome,1500,1000,,,,,1,930,,,,,,,,,,,,,,,,,132,W,triangle,1,0,,,,,,,,,,,,,,,,repeat,letter,lettRpt,k,0.6636,Lo,,,,,,2,,,,,,,,high,11,0,11,0,1,,,,,,,,,
295399,2022-12-06_17h36.24.160,vts_reward_expectancy_bt,2022.2.4,Win32,58.79586077,Chrome,1500,1000,,,,,1,931,,,,,,,,,,,,,,,,,125,F,triangle,1,0,,,,,,,,,,,,,,,,repeat,letter,lettRpt,j,0.6667,Lo,,,,,,2,,,,,,,,high,12,0,12,0,1,,,,,,,,,
295399,2022-12-06_17h36.24.160,vts_reward_expectancy_bt,2022.2.4,Win32,58.79586077,Chrome,1500,1000,,,,,1,932,,,,,,,,,,,,,,,,,181,U,hexagon,1,0,,,,,,,,,,,,,,,,switch,number,numSwt,f,0.7295,Hi,,,,,,2,,,,,,,,high,13,0,13,0,1,,,,,,,,,
295399,2022-12-06_17h36.24.160,vts_reward_expectancy_bt,2022.2.4,Win32,58.79586077,Chrome,1500,1000,,,,,10,942,,,,,,,,,,,,,,,,,146,Y,star,1,0,,,,,,,,,,,,,,,,repeat,number,numRpt,d,0.6521,Lo,,,,,,2,,,,,,,,high,14,0,14,0,1,,,,,,,,,
295399,2022-12-06_17h36.24.160,vts_reward_expectancy_bt,2022.2.4,Win32,58.79586077,Chrome,1500,1000,,,,,10,952,,,,,,,,,,,,,,,,,160,D,circle,1,0,,,,,,,,,,,,,,,,repeat,number,numRpt,f,0.5523,Hi,,,,,,2,,,,,,,,high,15,0,15,0,1,,,,,,,,,
295399,2022-12-06_17h36.24.160,vts_reward_expectancy_bt,2022.2.4,Win32,58.79586077,Chrome,1500,1000,,,,,10,962,,,,,,,,,,,,,,,,,181,U,circle,1,0,,,,,,,,,,,,,,,,repeat,number,numRpt,f,0.5275,Hi,,,,,,2,,,,,,,,high,16,0,16,0,1,,,,,,,,,
295399,2022-12-06_17h36.24.160,vts_reward_expectancy_bt,2022.2.4,Win32,58.79586077,Chrome,1500,1000,,,,,0,962,,,,,,,,,,,,,,,,,132,B,star,0,0,,,,,,,,,,,,,,,,repeat,number,NA,f,0.5505,Hi,,,,,,2,,,,,,,,high,17,0,17,0,1,,,,,,,,,
295399,2022-12-06_17h36.24.160,vts_reward_expectancy_bt,2022.2.4,Win32,58.79586077,Chrome,1500,1000,,,,,1,963,,,,,,,,,,,,,,,,,167,W,triangle,1,1,,,,,,,,,,,,,,,,switch,letter,lettSwt,k,0.6342,Lo,,,,,,2,,,,,,,,high,18,0,18,0,1,,,,,,,,,
295399,2022-12-06_17h36.24.160,vts_reward_expectancy_bt,2022.2.4,Win32,58.79586077,Chrome,1500,1000,,,,,0,963,,,,,,,,,,,,,,,,,139,Y,hexagon,1,0,,,,,,,,,,,,,,,,repeat,letter,lettRpt,k,0.6786,Hi,,,,,,2,,,,,,,,high,19,0,19,0,1,,,,,,,,,
295399,2022-12-06_17h36.24.160,vts_reward_expectancy_bt,2022.2.4,Win32,58.79586077,Chrome,1500,1000,,,,,1,964,,,,,,,,,,,,,,,,,174,D,triangle,1,0,,,,,,,,,,,,,,,,repeat,letter,lettRpt,j,0.695,Lo,,,,,,2,,,,,,,,high,20,0,20,0,1,,,,,,,,,
295399,2022-12-06_17h36.24.160,vts_reward_expectancy_bt,2022.2.4,Win32,58.79586077,Chrome,1500,1000,,,,,0,964,,,,,,,,,,,,,,,,,160,H,hexagon,1,0,,,,,,,,,,,,,,,,repeat,letter,lettRpt,j,0.6653,Hi,,,,,,2,,,,,,,,high,21,0,21,0,1,,,,,,,,,
295399,2022-12-06_17h36.24.160,vts_reward_expectancy_bt,2022.2.4,Win32,58.79586077,Chrome,1500,1000,,,,,1,965,,,,,,,,,,,,,,,,,125,S,star,1,0,,,,,,,,,,,,,,,,repeat,letter,lettRpt,k,0.7808,Lo,,,,,,2,,,,,,,,high,22,0,22,0,1,,,,,,,,,
295399,2022-12-06_17h36.24.160,vts_reward_expectancy_bt,2022.2.4,Win32,58.79586077,Chrome,1500,1000,,,,,0,965,,,,,,,,,,,,,,,,,146,F,circle,0,0,,,,,,,,,,,,,,,,repeat,letter,NA,k,0.6976,Lo,,,,,,2,,,,,,,,high,23,0,23,0,1,,,,,,,,,
295399,2022-12-06_17h36.24.160,vts_reward_expectancy_bt,2022.2.4,Win32,58.79586077,Chrome,1500,1000,,,,,0,965,,,,,,,,,,,,,,,,,181,W,hexagon,1,1,,,,,,,,,,,,,,,,repeat,letter,lettRpt,k,0.6807,Hi,,,,,,2,,,,,,,,high,24,0,24,0,1,,,,,,,,,
295399,2022-12-06_17h36.24.160,vts_reward_expectancy_bt,2022.2.4,Win32,58.79586077,Chrome,1500,1000,,,,,1,966,,,,,,,,,,,,,,,,,167,D,star,1,0,,,,,,,,,,,,,,,,repeat,letter,lettRpt,j,0.6642,Lo,,,,,,2,,,,,,,,high,25,0,25,0,1,,,,,,,,,
295399,2022-12-06_17h36.24.160,vts_reward_expectancy_bt,2022.2.4,Win32,58.79586077,Chrome,1500,1000,,,,,0,966,,,,,,,,,,,,,,,,,125,Y,circle,1,0,,,,,,,,,,,,,,,,repeat,letter,lettRpt,k,0.6978,Hi,,,,,,2,,,,,,,,high,26,0,26,0,1,,,,,,,,,
295399,2022-12-06_17h36.24.160,vts_reward_expectancy_bt,2022.2.4,Win32,58.79586077,Chrome,1500,1000,,,,,10,976,,,,,,,,,,,,,,,,,132,H,triangle,1,0,,,,,,,,,,,,,,,,repeat,letter,lettRpt,j,0.6655,Lo,,,,,,2,,,,,,,,high,27,0,27,0,1,,,,,,,,,
295399,2022-12-06_17h36.24.160,vts_reward_expectancy_bt,2022.2.4,Win32,58.79586077,Chrome,1500,1000,,,,,10,986,,,,,,,,,,,,,,,,,146,B,hexagon,1,0,,,,,,,,,,,,,,,,switch,number,numSwt,d,0.7123,Hi,,,,,,2,,,,,,,,high,28,0,28,0,1,,,,,,,,,
295399,2022-12-06_17h36.24.160,vts_reward_expectancy_bt,2022.2.4,Win32,58.79586077,Chrome,1500,1000,,,,,1,987,,,,,,,,,,,,,,,,,174,U,triangle,1,0,,,,,,,,,,,,,,,,repeat,number,numRpt,f,0.614,Lo,,,,,,2,,,,,,,,high,29,0,29,0,1,,,,,,,,,
295399,2022-12-06_17h36.24.160,vts_reward_expectancy_bt,2022.2.4,Win32,58.79586077,Chrome,1500,1000,,,,,10,997,,,,,,,,,,,,,,,,,160,S,circle,1,0,,,,,,,,,,,,,,,,repeat,number,numRpt,f,0.5015,Hi,,,,,,2,,,,,,,,high,30,0,30,0,1,,,,,,,,,
295399,2022-12-06_17h36.24.160,vts_reward_expectancy_bt,2022.2.4,Win32,58.79586077,Chrome,1500,1000,,,,,10,1007,,,,,,,,,,,,,,,,,139,F,star,1,0,,,,,,,,,,,,,,,,repeat,number,numRpt,d,0.7002,Lo,,,,,,2,,,,,,,,high,31,0,31,0,1,,,,,,,,,
295399,2022-12-06_17h36.24.160,vts_reward_expectancy_bt,2022.2.4,Win32,58.79586077,Chrome,1500,1000,,,,,10,1017,,,,,,,,,,,,,,,,,146,H,star,1,0,,,,,,,,,,,,,,,,switch,letter,lettSwt,j,1.4745,Lo,,,,,,3,,,,,,space,1.5208,high,0,0,0,0,1,,,,,,,,,
295399,2022-12-06_17h36.24.160,vts_reward_expectancy_bt,2022.2.4,Win32,58.79586077,Chrome,1500,1000,,,,,0,1017,,,,,,,,,,,,,,,,,139,Y,hexagon,1,0,,,,,,,,,,,,,,,,switch,number,numSwt,d,1.1741,Hi,,,,,,3,,,,,,,,high,1,0,1,0,1,,,,,,,,,
295399,2022-12-06_17h36.24.160,vts_reward_expectancy_bt,2022.2.4,Win32,58.79586077,Chrome,1500,1000,,,,,1,1018,,,,,,,,,,,,,,,,,132,B,triangle,1,0,,,,,,,,,,,,,,,,repeat,number,numRpt,d,0.7835,Lo,,,,,,3,,,,,,,,high,2,0,2,0,1,,,,,,,,,
295399,2022-12-06_17h36.24.160,vts_reward_expectancy_bt,2022.2.4,Win32,58.79586077,Chrome,1500,1000,,,,,0,1018,,,,,,,,,,,,,,,,,174,F,circle,1,0,,,,,,,,,,,,,,,,repeat,number,numRpt,f,1.7703,Hi,,,,,,3,,,,,,,,high,3,0,3,0,1,,,,,,,,,
295399,2022-12-06_17h36.24.160,vts_reward_expectancy_bt,2022.2.4,Win32,58.79586077,Chrome,1500,1000,,,,,1,1019,,,,,,,,,,,,,,,,,125,U,star,1,0,,,,,,,,,,,,,,,,repeat,number,numRpt,d,1.8022,Lo,,,,,,3,,,,,,,,high,4,0,4,0,1,,,,,,,,,
295399,2022-12-06_17h36.24.160,vts_reward_expectancy_bt,2022.2.4,Win32,58.79586077,Chrome,1500,1000,,,,,0,1019,,,,,,,,,,,,,,,,,181,D,hexagon,1,0,,,,,,,,,,,,,,,,repeat,number,numRpt,f,0.8357,Hi,,,,,,3,,,,,,,,high,5,0,5,0,1,,,,,,,,,
295399,2022-12-06_17h36.24.160,vts_reward_expectancy_bt,2022.2.4,Win32,58.79586077,Chrome,1500,1000,,,,,10,1029,,,,,,,,,,,,,,,,,167,S,triangle,1,0,,,,,,,,,,,,,,,,repeat,number,numRpt,f,1.2782,Lo,,,,,,3,,,,,,,,high,6,0,6,0,1,,,,,,,,,
295399,2022-12-06_17h36.24.160,vts_reward_expectancy_bt,2022.2.4,Win32,58.79586077,Chrome,1500,1000,,,,,0,1029,,,,,,,,,,,,,,,,,160,W,circle,1,0,,,,,,,,,,,,,,,,repeat,number,numRpt,f,0.8517,Hi,,,,,,3,,,,,,,,high,7,0,7,0,1,,,,,,,,,
295399,2022-12-06_17h36.24.160,vts_reward_expectancy_bt,2022.2.4,Win32,58.79586077,Chrome,1500,1000,,,,,1,1030,,,,,,,,,,,,,,,,,146,H,star,1,0,,,,,,,,,,,,,,,,repeat,number,numRpt,d,0.9172,Lo,,,,,,3,,,,,,,,high,8,0,8,0,1,,,,,,,,,
295399,2022-12-06_17h36.24.160,vts_reward_expectancy_bt,2022.2.4,Win32,58.79586077,Chrome,1500,1000,,,,,1,1031,,,,,,,,,,,,,,,,,139,Y,triangle,1,0,,,,,,,,,,,,,,,,repeat,number,numRpt,d,0.7505,Lo,,,,,,3,,,,,,,,high,9,0,9,0,1,,,,,,,,,
295399,2022-12-06_17h36.24.160,vts_reward_expectancy_bt,2022.2.4,Win32,58.79586077,Chrome,1500,1000,,,,,0,1031,,,,,,,,,,,,,,,,,132,B,circle,1,0,,,,,,,,,,,,,,,,repeat,number,numRpt,d,0.7861,Hi,,,,,,3,,,,,,,,high,10,0,10,0,1,,,,,,,,,
295399,2022-12-06_17h36.24.160,vts_reward_expectancy_bt,2022.2.4,Win32,58.79586077,Chrome,1500,1000,,,,,0,1031,,,,,,,,,,,,,,,,,174,F,hexagon,1,0,,,,,,,,,,,,,,,,repeat,number,numRpt,f,0.801,Hi,,,,,,3,,,,,,,,high,11,0,11,0,1,,,,,,,,,
295399,2022-12-06_17h36.24.160,vts_reward_expectancy_bt,2022.2.4,Win32,58.79586077,Chrome,1500,1000,,,,,10,1041,,,,,,,,,,,,,,,,,125,U,star,1,0,,,,,,,,,,,,,,,,repeat,number,numRpt,d,0.7842,Lo,,,,,,3,,,,,,,,high,12,0,12,0,1,,,,,,,,,
295399,2022-12-06_17h36.24.160,vts_reward_expectancy_bt,2022.2.4,Win32,58.79586077,Chrome,1500,1000,,,,,0,1041,,,,,,,,,,,,,,,,,181,D,triangle,0,0,,,,,,,,,,,,,,,,repeat,number,NA,d,0.6036,Lo,,,,,,3,,,,,,,,high,13,0,13,0,1,,,,,,,,,
295399,2022-12-06_17h36.24.160,vts_reward_expectancy_bt,2022.2.4,Win32,58.79586077,Chrome,1500,1000,,,,,0,1041,,,,,,,,,,,,,,,,,167,S,circle,0,1,,,,,,,,,,,,,,,,repeat,number,NA,d,0.7901,Lo,,,,,,3,,,,,,,,high,14,0,14,0,1,,,,,,,,,
295399,2022-12-06_17h36.24.160,vts_reward_expectancy_bt,2022.2.4,Win32,58.79586077,Chrome,1500,1000,,,,,0,1041,,,,,,,,,,,,,,,,,160,W,hexagon,1,1,,,,,,,,,,,,,,,,repeat,number,numRpt,f,0.7692,Hi,,,,,,3,,,,,,,,high,15,0,15,0,1,,,,,,,,,
295399,2022-12-06_17h36.24.160,vts_reward_expectancy_bt,2022.2.4,Win32,58.79586077,Chrome,1500,1000,,,,,10,1051,,,,,,,,,,,,,,,,,174,D,triangle,1,0,,,,,,,,,,,,,,,,switch,letter,lettSwt,j,0.973,Lo,,,,,,3,,,,,,,,high,16,0,16,0,1,,,,,,,,,
295399,2022-12-06_17h36.24.160,vts_reward_expectancy_bt,2022.2.4,Win32,58.79586077,Chrome,1500,1000,,,,,1,1052,,,,,,,,,,,,,,,,,132,Y,star,1,0,,,,,,,,,,,,,,,,repeat,letter,lettRpt,k,0.6723,Lo,,,,,,3,,,,,,,,high,17,0,17,0,1,,,,,,,,,
295399,2022-12-06_17h36.24.160,vts_reward_expectancy_bt,2022.2.4,Win32,58.79586077,Chrome,1500,1000,,,,,0,1052,,,,,,,,,,,,,,,,,125,H,hexagon,1,0,,,,,,,,,,,,,,,,repeat,letter,lettRpt,j,0.7202,Hi,,,,,,3,,,,,,,,high,18,0,18,0,1,,,,,,,,,
295399,2022-12-06_17h36.24.160,vts_reward_expectancy_bt,2022.2.4,Win32,58.79586077,Chrome,1500,1000,,,,,0,1052,,,,,,,,,,,,,,,,,181,F,circle,1,0,,,,,,,,,,,,,,,,switch,number,numSwt,f,0.7339,Hi,,,,,,3,,,,,,,,high,19,0,19,0,1,,,,,,,,,
295399,2022-12-06_17h36.24.160,vts_reward_expectancy_bt,2022.2.4,Win32,58.79586077,Chrome,1500,1000,,,,,0,1052,,,,,,,,,,,,,,,,,139,B,circle,1,0,,,,,,,,,,,,,,,,repeat,number,numRpt,d,0.786,Hi,,,,,,3,,,,,,,,high,20,0,20,0,1,,,,,,,,,
295399,2022-12-06_17h36.24.160,vts_reward_expectancy_bt,2022.2.4,Win32,58.79586077,Chrome,1500,1000,,,,,1,1053,,,,,,,,,,,,,,,,,167,S,star,1,0,,,,,,,,,,,,,,,,switch,letter,lettSwt,k,0.5505,Lo,,,,,,3,,,,,,,,high,21,0,21,0,1,,,,,,,,,
295399,2022-12-06_17h36.24.160,vts_reward_expectancy_bt,2022.2.4,Win32,58.79586077,Chrome,1500,1000,,,,,10,1063,,,,,,,,,,,,,,,,,146,U,hexagon,1,0,,,,,,,,,,,,,,,,repeat,letter,lettRpt,k,0.5184,Hi,,,,,,3,,,,,,,,high,22,0,22,0,1,,,,,,,,,
295399,2022-12-06_17h36.24.160,vts_reward_expectancy_bt,2022.2.4,Win32,58.79586077,Chrome,1500,1000,,,,,1,1064,,,,,,,,,,,,,,,,,160,W,triangle,1,0,,,,,,,,,,,,,,,,repeat,letter,lettRpt,k,0.6294,Lo,,,,,,3,,,,,,,,high,23,0,23,0,1,,,,,,,,,
295399,2022-12-06_17h36.24.160,vts_reward_expectancy_bt,2022.2.4,Win32,58.79586077,Chrome,1500,1000,,,,,0,1064,,,,,,,,,,,,,,,,,174,U,circle,0,0,,,,,,,,,,,,,,,,repeat,letter,NA,j,0.6165,Lo,,,,,,3,,,,,,,,high,24,0,24,0,1,,,,,,,,,
295399,2022-12-06_17h36.24.160,vts_reward_expectancy_bt,2022.2.4,Win32,58.79586077,Chrome,1500,1000,,,,,10,1074,,,,,,,,,,,,,,,,,167,Y,hexagon,1,1,,,,,,,,,,,,,,,,repeat,letter,lettRpt,k,0.6414,Hi,,,,,,3,,,,,,,,high,25,0,25,0,1,,,,,,,,,
295399,2022-12-06_17h36.24.160,vts_reward_expectancy_bt,2022.2.4,Win32,58.79586077,Chrome,1500,1000,,,,,1,1075,,,,,,,,,,,,,,,,,125,W,star,1,0,,,,,,,,,,,,,,,,repeat,letter,lettRpt,k,0.5178,Lo,,,,,,3,,,,,,,,high,26,0,26,0,1,,,,,,,,,
295399,2022-12-06_17h36.24.160,vts_reward_expectancy_bt,2022.2.4,Win32,58.79586077,Chrome,1500,1000,,,,,1,1076,,,,,,,,,,,,,,,,,146,B,triangle,1,0,,,,,,,,,,,,,,,,repeat,letter,lettRpt,j,0.4841,Lo,,,,,,3,,,,,,,,high,27,0,27,0,1,,,,,,,,,
295399,2022-12-06_17h36.24.160,vts_reward_expectancy_bt,2022.2.4,Win32,58.79586077,Chrome,1500,1000,,,,,1,1077,,,,,,,,,,,,,,,,,139,D,triangle,1,0,,,,,,,,,,,,,,,,switch,number,numSwt,d,1.8849,Lo,,,,,,3,,,,,,,,high,28,0,28,0,1,,,,,,,,,
295399,2022-12-06_17h36.24.160,vts_reward_expectancy_bt,2022.2.4,Win32,58.79586077,Chrome,1500,1000,,,,,0,1077,,,,,,,,,,,,,,,,,181,S,circle,1,0,,,,,,,,,,,,,,,,repeat,number,numRpt,f,0.8564,Hi,,,,,,3,,,,,,,,high,29,0,29,0,1,,,,,,,,,
295399,2022-12-06_17h36.24.160,vts_reward_expectancy_bt,2022.2.4,Win32,58.79586077,Chrome,1500,1000,,,,,1,1078,,,,,,,,,,,,,,,,,160,F,star,1,0,,,,,,,,,,,,,,,,repeat,number,numRpt,f,1.1681,Lo,,,,,,3,,,,,,,,high,30,0,30,0,1,,,,,,,,,
295399,2022-12-06_17h36.24.160,vts_reward_expectancy_bt,2022.2.4,Win32,58.79586077,Chrome,1500,1000,,,,,0,1078,,,,,,,,,,,,,,,,,132,H,hexagon,1,0,,,,,,,,,,,,,,,,repeat,number,numRpt,d,0.7398,Hi,,,,,,3,,,,,,,,high,31,0,31,0,1,,,,,,,,,
295399,2022-12-06_17h36.24.160,vts_reward_expectancy_bt,2022.2.4,Win32,58.79586077,Chrome,1500,1000,,,,,1,1079,,,,,,,,,,,,,,,,,139,Y,star,1,0,,,,,,,,,,,,,,,,switch,letter,lettSwt,k,0.5677,Lo,,,,,,4,,,,,,space,12.0653,high,0,0,0,0,1,,,,,,,,,
295399,2022-12-06_17h36.24.160,vts_reward_expectancy_bt,2022.2.4,Win32,58.79586077,Chrome,1500,1000,,,,,10,1089,,,,,,,,,,,,,,,,,167,F,hexagon,1,0,,,,,,,,,,,,,,,,repeat,letter,lettRpt,j,0.4209,Hi,,,,,,4,,,,,,,,high,1,0,1,0,1,,,,,,,,,
295399,2022-12-06_17h36.24.160,vts_reward_expectancy_bt,2022.2.4,Win32,58.79586077,Chrome,1500,1000,,,,,0,1089,,,,,,,,,,,,,,,,,181,B,circle,1,0,,,,,,,,,,,,,,,,repeat,letter,lettRpt,j,0.5192,Hi,,,,,,4,,,,,,,,high,2,0,2,0,1,,,,,,,,,
295399,2022-12-06_17h36.24.160,vts_reward_expectancy_bt,2022.2.4,Win32,58.79586077,Chrome,1500,1000,,,,,1,1090,,,,,,,,,,,,,,,,,174,S,triangle,1,0,,,,,,,,,,,,,,,,repeat,letter,lettRpt,k,1.1869,Lo,,,,,,4,,,,,,,,high,3,0,3,0,1,,,,,,,,,
295399,2022-12-06_17h36.24.160,vts_reward_expectancy_bt,2022.2.4,Win32,58.79586077,Chrome,1500,1000,,,,,1,1091,,,,,,,,,,,,,,,,,132,W,star,1,0,,,,,,,,,,,,,,,,repeat,letter,lettRpt,k,0.7584,Lo,,,,,,4,,,,,,,,high,4,0,4,0,1,,,,,,,,,
295399,2022-12-06_17h36.24.160,vts_reward_expectancy_bt,2022.2.4,Win32,58.79586077,Chrome,1500,1000,,,,,10,1101,,,,,,,,,,,,,,,,,125,U,hexagon,1,0,,,,,,,,,,,,,,,,repeat,letter,lettRpt,k,0.4891,Hi,,,,,,4,,,,,,,,high,5,0,5,0,1,,,,,,,,,
295399,2022-12-06_17h36.24.160,vts_reward_expectancy_bt,2022.2.4,Win32,58.79586077,Chrome,1500,1000,,,,,0,1101,,,,,,,,,,,,,,,,,146,H,circle,1,0,,,,,,,,,,,,,,,,repeat,letter,lettRpt,j,0.553,Hi,,,,,,4,,,,,,,,high,6,0,6,0,1,,,,,,,,,
295399,2022-12-06_17h36.24.160,vts_reward_expectancy_bt,2022.2.4,Win32,58.79586077,Chrome,1500,1000,,,,,0,1101,,,,,,,,,,,,,,,,,160,D,triangle,0,0,,,,,,,,,,,,,,,,switch,number,NA,d,0.6692,Hi,,,,,,4,,,,,,,,high,7,0,7,0,1,,,,,,,,,
295399,2022-12-06_17h36.24.160,vts_reward_expectancy_bt,2022.2.4,Win32,58.79586077,Chrome,1500,1000,,,,,10,1111,,,,,,,,,,,,,,,,,139,Y,circle,1,1,,,,,,,,,,,,,,,,repeat,number,numRpt,d,0.7523,Hi,,,,,,4,,,,,,,,high,8,0,8,0,1,,,,,,,,,
295399,2022-12-06_17h36.24.160,vts_reward_expectancy_bt,2022.2.4,Win32,58.79586077,Chrome,1500,1000,,,,,1,1112,,,,,,,,,,,,,,,,,167,F,triangle,1,0,,,,,,,,,,,,,,,,repeat,number,numRpt,f,0.5859,Lo,,,,,,4,,,,,,,,high,9,0,9,0,1,,,,,,,,,
295399,2022-12-06_17h36.24.160,vts_reward_expectancy_bt,2022.2.4,Win32,58.79586077,Chrome,1500,1000,,,,,1,1113,,,,,,,,,,,,,,,,,181,B,star,1,0,,,,,,,,,,,,,,,,repeat,number,numRpt,f,0.587,Lo,,,,,,4,,,,,,,,high,10,0,10,0,1,,,,,,,,,
295399,2022-12-06_17h36.24.160,vts_reward_expectancy_bt,2022.2.4,Win32,58.79586077,Chrome,1500,1000,,,,,0,1113,,,,,,,,,,,,,,,,,174,S,hexagon,0,0,,,,,,,,,,,,,,,,switch,letter,NA,j,0.6257,Lo,,,,,,4,,,,,,,,high,11,0,11,0,1,,,,,,,,,
295399,2022-12-06_17h36.24.160,vts_reward_expectancy_bt,2022.2.4,Win32,58.79586077,Chrome,1500,1000,,,,,0,1113,,,,,,,,,,,,,,,,,132,W,hexagon,1,1,,,,,,,,,,,,,,,,repeat,letter,lettRpt,k,0.59,Hi,,,,,,4,,,,,,,,high,12,0,12,0,1,,,,,,,,,
295399,2022-12-06_17h36.24.160,vts_reward_expectancy_bt,2022.2.4,Win32,58.79586077,Chrome,1500,1000,,,,,0,1113,,,,,,,,,,,,,,,,,125,U,circle,1,0,,,,,,,,,,,,,,,,repeat,letter,lettRpt,k,0.6505,Hi,,,,,,4,,,,,,,,high,13,0,13,0,1,,,,,,,,,
295399,2022-12-06_17h36.24.160,vts_reward_expectancy_bt,2022.2.4,Win32,58.79586077,Chrome,1500,1000,,,,,1,1114,,,,,,,,,,,,,,,,,146,H,triangle,1,0,,,,,,,,,,,,,,,,repeat,letter,lettRpt,j,0.5677,Lo,,,,,,4,,,,,,,,high,14,0,14,0,1,,,,,,,,,
295399,2022-12-06_17h36.24.160,vts_reward_expectancy_bt,2022.2.4,Win32,58.79586077,Chrome,1500,1000,,,,,1,1115,,,,,,,,,,,,,,,,,160,D,star,1,0,,,,,,,,,,,,,,,,switch,number,numSwt,f,0.4344,Lo,,,,,,4,,,,,,,,high,15,0,15,0,1,,,,,,,,,
295399,2022-12-06_17h36.24.160,vts_reward_expectancy_bt,2022.2.4,Win32,58.79586077,Chrome,1500,1000,,,,,10,1125,,,,,,,,,,,,,,,,,146,U,triangle,1,0,,,,,,,,,,,,,,,,repeat,number,numRpt,d,0.673,Lo,,,,,,4,,,,,,,,high,16,0,16,0,1,,,,,,,,,
295399,2022-12-06_17h36.24.160,vts_reward_expectancy_bt,2022.2.4,Win32,58.79586077,Chrome,1500,1000,,,,,1,1126,,,,,,,,,,,,,,,,,160,D,star,1,0,,,,,,,,,,,,,,,,repeat,number,numRpt,f,0.6675,Lo,,,,,,4,,,,,,,,high,17,0,17,0,1,,,,,,,,,
295399,2022-12-06_17h36.24.160,vts_reward_expectancy_bt,2022.2.4,Win32,58.79586077,Chrome,1500,1000,,,,,10,1136,,,,,,,,,,,,,,,,,139,F,circle,1,0,,,,,,,,,,,,,,,,switch,letter,lettSwt,j,0.6342,Hi,,,,,,4,,,,,,,,high,18,0,18,0,1,,,,,,,,,
295399,2022-12-06_17h36.24.160,vts_reward_expectancy_bt,2022.2.4,Win32,58.79586077,Chrome,1500,1000,,,,,0,1136,,,,,,,,,,,,,,,,,174,S,hexagon,1,0,,,,,,,,,,,,,,,,repeat,letter,lettRpt,k,0.5838,Hi,,,,,,4,,,,,,,,high,19,0,19,0,1,,,,,,,,,
295399,2022-12-06_17h36.24.160,vts_reward_expectancy_bt,2022.2.4,Win32,58.79586077,Chrome,1500,1000,,,,,1,1137,,,,,,,,,,,,,,,,,132,B,triangle,1,0,,,,,,,,,,,,,,,,repeat,letter,lettRpt,j,0.5572,Lo,,,,,,4,,,,,,,,high,20,0,20,0,1,,,,,,,,,
295399,2022-12-06_17h36.24.160,vts_reward_expectancy_bt,2022.2.4,Win32,58.79586077,Chrome,1500,1000,,,,,0,1137,,,,,,,,,,,,,,,,,181,H,circle,1,0,,,,,,,,,,,,,,,,repeat,letter,lettRpt,j,0.7211,Hi,,,,,,4,,,,,,,,high,21,0,21,0,1,,,,,,,,,
295399,2022-12-06_17h36.24.160,vts_reward_expectancy_bt,2022.2.4,Win32,58.79586077,Chrome,1500,1000,,,,,1,1138,,,,,,,,,,,,,,,,,167,Y,star,1,0,,,,,,,,,,,,,,,,repeat,letter,lettRpt,k,0.7854,Lo,,,,,,4,,,,,,,,high,22,0,22,0,1,,,,,,,,,
295399,2022-12-06_17h36.24.160,vts_reward_expectancy_bt,2022.2.4,Win32,58.79586077,Chrome,1500,1000,,,,,0,1138,,,,,,,,,,,,,,,,,125,W,hexagon,1,0,,,,,,,,,,,,,,,,repeat,letter,lettRpt,k,0.6176,Hi,,,,,,4,,,,,,,,high,23,0,23,0,1,,,,,,,,,
295399,2022-12-06_17h36.24.160,vts_reward_expectancy_bt,2022.2.4,Win32,58.79586077,Chrome,1500,1000,,,,,0,1138,,,,,,,,,,,,,,,,,167,W,hexagon,1,0,,,,,,,,,,,,,,,,repeat,letter,lettRpt,k,0.8015,Hi,,,,,,4,,,,,,,,high,24,0,24,0,1,,,,,,,,,
295399,2022-12-06_17h36.24.160,vts_reward_expectancy_bt,2022.2.4,Win32,58.79586077,Chrome,1500,1000,,,,,1,1139,,,,,,,,,,,,,,,,,146,S,star,1,0,,,,,,,,,,,,,,,,repeat,letter,lettRpt,k,0.5738,Lo,,,,,,4,,,,,,,,high,25,0,25,0,1,,,,,,,,,
295399,2022-12-06_17h36.24.160,vts_reward_expectancy_bt,2022.2.4,Win32,58.79586077,Chrome,1500,1000,,,,,1,1140,,,,,,,,,,,,,,,,,160,D,triangle,1,0,,,,,,,,,,,,,,,,switch,number,numSwt,f,0.5518,Lo,,,,,,4,,,,,,,,high,26,0,26,0,1,,,,,,,,,
295399,2022-12-06_17h36.24.160,vts_reward_expectancy_bt,2022.2.4,Win32,58.79586077,Chrome,1500,1000,,,,,10,1150,,,,,,,,,,,,,,,,,174,H,circle,1,0,,,,,,,,,,,,,,,,repeat,number,numRpt,f,0.4849,Hi,,,,,,4,,,,,,,,high,27,0,27,0,1,,,,,,,,,
295399,2022-12-06_17h36.24.160,vts_reward_expectancy_bt,2022.2.4,Win32,58.79586077,Chrome,1500,1000,,,,,0,1150,,,,,,,,,,,,,,,,,132,F,star,0,0,,,,,,,,,,,,,,,,repeat,number,NA,f,0.5241,Hi,,,,,,4,,,,,,,,high,28,0,28,0,1,,,,,,,,,
295399,2022-12-06_17h36.24.160,vts_reward_expectancy_bt,2022.2.4,Win32,58.79586077,Chrome,1500,1000,,,,,1,1151,,,,,,,,,,,,,,,,,139,U,triangle,1,1,,,,,,,,,,,,,,,,repeat,number,numRpt,d,0.8338,Lo,,,,,,4,,,,,,,,high,29,0,29,0,1,,,,,,,,,
295399,2022-12-06_17h36.24.160,vts_reward_expectancy_bt,2022.2.4,Win32,58.79586077,Chrome,1500,1000,,,,,10,1161,,,,,,,,,,,,,,,,,181,Y,hexagon,1,0,,,,,,,,,,,,,,,,repeat,number,numRpt,f,0.6252,Hi,,,,,,4,,,,,,,,high,30,0,30,0,1,,,,,,,,,
295399,2022-12-06_17h36.24.160,vts_reward_expectancy_bt,2022.2.4,Win32,58.79586077,Chrome,1500,1000,,,,,10,1171,,,,,,,,,,,,,,,,,125,B,circle,1,0,,,,,,,,,,,,,,,,repeat,number,numRpt,d,0.6002,Hi,,,,,,4,,,,,,,,high,31,0,31,0,1,,,,,,,,,
295399,2022-12-06_17h36.24.160,vts_reward_expectancy_bt,2022.2.4,Win32,58.79586077,Chrome,1500,1000,,,,,1,1172,,,,,,,,,,,,,,,,,132,B,triangle,1,0,,,,,,,,,,,,,,,,repeat,number,numRpt,d,1.5171,Lo,,,,,,5,,,,,,space,0.9826,high,0,0,0,0,1,,,,,,,,,
295399,2022-12-06_17h36.24.160,vts_reward_expectancy_bt,2022.2.4,Win32,58.79586077,Chrome,1500,1000,,,,,1,1173,,,,,,,,,,,,,,,,,125,W,circle,1,0,,,,,,,,,,,,,,,,switch,letter,lettSwt,k,0.5247,Hi,,,,,,5,,,,,,,,high,1,0,1,0,1,,,,,,,,,
295399,2022-12-06_17h36.24.160,vts_reward_expectancy_bt,2022.2.4,Win32,58.79586077,Chrome,1500,1000,,,,,1,1174,,,,,,,,,,,,,,,,,146,H,star,1,0,,,,,,,,,,,,,,,,repeat,letter,lettRpt,j,0.5526,Lo,,,,,,5,,,,,,,,high,2,0,2,0,1,,,,,,,,,
295399,2022-12-06_17h36.24.160,vts_reward_expectancy_bt,2022.2.4,Win32,58.79586077,Chrome,1500,1000,,,,,0,1174,,,,,,,,,,,,,,,,,167,F,hexagon,1,0,,,,,,,,,,,,,,,,repeat,letter,lettRpt,j,0.5852,Hi,,,,,,5,,,,,,,,high,3,0,3,0,1,,,,,,,,,
295399,2022-12-06_17h36.24.160,vts_reward_expectancy_bt,2022.2.4,Win32,58.79586077,Chrome,1500,1000,,,,,1,1175,,,,,,,,,,,,,,,,,174,D,triangle,1,0,,,,,,,,,,,,,,,,repeat,letter,lettRpt,j,0.5117,Lo,,,,,,5,,,,,,,,high,4,0,4,0,1,,,,,,,,,
295399,2022-12-06_17h36.24.160,vts_reward_expectancy_bt,2022.2.4,Win32,58.79586077,Chrome,1500,1000,,,,,1,1176,,,,,,,,,,,,,,,,,139,Y,circle,1,0,,,,,,,,,,,,,,,,repeat,letter,lettRpt,k,0.5505,Hi,,,,,,5,,,,,,,,high,5,0,5,0,1,,,,,,,,,
295399,2022-12-06_17h36.24.160,vts_reward_expectancy_bt,2022.2.4,Win32,58.79586077,Chrome,1500,1000,,,,,10,1186,,,,,,,,,,,,,,,,,181,S,star,1,0,,,,,,,,,,,,,,,,switch,number,numSwt,f,0.5281,Lo,,,,,,5,,,,,,,,high,6,0,6,0,1,,,,,,,,,
295399,2022-12-06_17h36.24.160,vts_reward_expectancy_bt,2022.2.4,Win32,58.79586077,Chrome,1500,1000,,,,,0,1186,,,,,,,,,,,,,,,,,160,U,hexagon,0,0,,,,,,,,,,,,,,,,repeat,number,NA,d,0.5022,Lo,,,,,,5,,,,,,,,high,7,0,7,0,1,,,,,,,,,
295399,2022-12-06_17h36.24.160,vts_reward_expectancy_bt,2022.2.4,Win32,58.79586077,Chrome,1500,1000,,,,,10,1196,,,,,,,,,,,,,,,,,132,B,circle,1,1,,,,,,,,,,,,,,,,repeat,number,numRpt,d,0.5349,Hi,,,,,,5,,,,,,,,high,8,0,8,0,1,,,,,,,,,
295399,2022-12-06_17h36.24.160,vts_reward_expectancy_bt,2022.2.4,Win32,58.79586077,Chrome,1500,1000,,,,,1,1197,,,,,,,,,,,,,,,,,125,W,triangle,1,0,,,,,,,,,,,,,,,,repeat,number,numRpt,d,0.4995,Lo,,,,,,5,,,,,,,,high,9,0,9,0,1,,,,,,,,,
295399,2022-12-06_17h36.24.160,vts_reward_expectancy_bt,2022.2.4,Win32,58.79586077,Chrome,1500,1000,,,,,10,1207,,,,,,,,,,,,,,,,,146,H,hexagon,1,0,,,,,,,,,,,,,,,,repeat,number,numRpt,d,0.5249,Hi,,,,,,5,,,,,,,,high,10,0,10,0,1,,,,,,,,,
295399,2022-12-06_17h36.24.160,vts_reward_expectancy_bt,2022.2.4,Win32,58.79586077,Chrome,1500,1000,,,,,1,1208,,,,,,,,,,,,,,,,,167,F,star,1,0,,,,,,,,,,,,,,,,switch,letter,lettSwt,j,0.7674,Lo,,,,,,5,,,,,,,,high,11,0,11,0,1,,,,,,,,,
295399,2022-12-06_17h36.24.160,vts_reward_expectancy_bt,2022.2.4,Win32,58.79586077,Chrome,1500,1000,,,,,1,1209,,,,,,,,,,,,,,,,,174,D,star,1,0,,,,,,,,,,,,,,,,repeat,letter,lettRpt,j,0.5352,Lo,,,,,,5,,,,,,,,high,12,0,12,0,1,,,,,,,,,
295399,2022-12-06_17h36.24.160,vts_reward_expectancy_bt,2022.2.4,Win32,58.79586077,Chrome,1500,1000,,,,,10,1219,,,,,,,,,,,,,,,,,139,Y,hexagon,1,0,,,,,,,,,,,,,,,,repeat,letter,lettRpt,k,0.435,Hi,,,,,,5,,,,,,,,high,13,0,13,0,1,,,,,,,,,
295399,2022-12-06_17h36.24.160,vts_reward_expectancy_bt,2022.2.4,Win32,58.79586077,Chrome,1500,1000,,,,,10,1229,,,,,,,,,,,,,,,,,181,S,triangle,1,0,,,,,,,,,,,,,,,,switch,number,numSwt,f,0.5187,Lo,,,,,,5,,,,,,,,high,14,0,14,0,1,,,,,,,,,
295399,2022-12-06_17h36.24.160,vts_reward_expectancy_bt,2022.2.4,Win32,58.79586077,Chrome,1500,1000,,,,,0,1229,,,,,,,,,,,,,,,,,160,U,circle,0,0,,,,,,,,,,,,,,,,repeat,number,NA,d,0.5021,Lo,,,,,,5,,,,,,,,high,15,0,15,0,1,,,,,,,,,
295399,2022-12-06_17h36.24.160,vts_reward_expectancy_bt,2022.2.4,Win32,58.79586077,Chrome,1500,1000,,,,,10,1239,,,,,,,,,,,,,,,,,174,W,circle,1,1,,,,,,,,,,,,,,,,repeat,number,numRpt,f,0.5943,Hi,,,,,,5,,,,,,,,high,16,0,16,0,1,,,,,,,,,
295399,2022-12-06_17h36.24.160,vts_reward_expectancy_bt,2022.2.4,Win32,58.79586077,Chrome,1500,1000,,,,,1,1240,,,,,,,,,,,,,,,,,181,F,hexagon,1,0,,,,,,,,,,,,,,,,repeat,number,numRpt,f,0.5198,Hi,,,,,,5,,,,,,,,high,17,0,17,0,1,,,,,,,,,
295399,2022-12-06_17h36.24.160,vts_reward_expectancy_bt,2022.2.4,Win32,58.79586077,Chrome,1500,1000,,,,,1,1241,,,,,,,,,,,,,,,,,146,B,star,1,0,,,,,,,,,,,,,,,,repeat,number,numRpt,d,0.7015,Lo,,,,,,5,,,,,,,,high,18,0,18,0,1,,,,,,,,,
295399,2022-12-06_17h36.24.160,vts_reward_expectancy_bt,2022.2.4,Win32,58.79586077,Chrome,1500,1000,,,,,1,1242,,,,,,,,,,,,,,,,,160,U,triangle,1,0,,,,,,,,,,,,,,,,repeat,number,numRpt,f,0.6597,Lo,,,,,,5,,,,,,,,high,19,0,19,0,1,,,,,,,,,
295399,2022-12-06_17h36.24.160,vts_reward_expectancy_bt,2022.2.4,Win32,58.79586077,Chrome,1500,1000,,,,,1,1243,,,,,,,,,,,,,,,,,132,Y,triangle,1,0,,,,,,,,,,,,,,,,repeat,number,numRpt,d,0.6553,Lo,,,,,,5,,,,,,,,high,20,0,20,0,1,,,,,,,,,
295399,2022-12-06_17h36.24.160,vts_reward_expectancy_bt,2022.2.4,Win32,58.79586077,Chrome,1500,1000,,,,,10,1253,,,,,,,,,,,,,,,,,139,H,star,1,0,,,,,,,,,,,,,,,,repeat,number,numRpt,d,0.9222,Lo,,,,,,5,,,,,,,,high,21,0,21,0,1,,,,,,,,,
295399,2022-12-06_17h36.24.160,vts_reward_expectancy_bt,2022.2.4,Win32,58.79586077,Chrome,1500,1000,,,,,0,1253,,,,,,,,,,,,,,,,,167,S,hexagon,1,0,,,,,,,,,,,,,,,,repeat,number,numRpt,f,0.6575,Hi,,,,,,5,,,,,,,,high,22,0,22,0,1,,,,,,,,,
295399,2022-12-06_17h36.24.160,vts_reward_expectancy_bt,2022.2.4,Win32,58.79586077,Chrome,1500,1000,,,,,0,1253,,,,,,,,,,,,,,,,,125,D,circle,1,0,,,,,,,,,,,,,,,,switch,letter,lettSwt,j,2.8014,Hi,,,,,,5,,,,,,,,high,23,0,23,0,1,,,,,,,,,
295399,2022-12-06_17h36.24.160,vts_reward_expectancy_bt,2022.2.4,Win32,58.79586077,Chrome,1500,1000,,,,,10,1263,,,,,,,,,,,,,,,,,125,W,hexagon,1,0,,,,,,,,,,,,,,,,repeat,letter,lettRpt,k,0.5065,Hi,,,,,,5,,,,,,,,high,24,0,24,0,1,,,,,,,,,
295399,2022-12-06_17h36.24.160,vts_reward_expectancy_bt,2022.2.4,Win32,58.79586077,Chrome,1500,1000,,,,,1,1264,,,,,,,,,,,,,,,,,132,B,circle,1,0,,,,,,,,,,,,,,,,repeat,letter,lettRpt,j,0.5578,Hi,,,,,,5,,,,,,,,high,25,0,25,0,1,,,,,,,,,
295399,2022-12-06_17h36.24.160,vts_reward_expectancy_bt,2022.2.4,Win32,58.79586077,Chrome,1500,1000,,,,,10,1274,,,,,,,,,,,,,,,,,174,D,star,1,0,,,,,,,,,,,,,,,,repeat,letter,lettRpt,j,0.6679,Lo,,,,,,5,,,,,,,,high,26,0,26,0,1,,,,,,,,,
295399,2022-12-06_17h36.24.160,vts_reward_expectancy_bt,2022.2.4,Win32,58.79586077,Chrome,1500,1000,,,,,1,1275,,,,,,,,,,,,,,,,,181,U,triangle,1,0,,,,,,,,,,,,,,,,repeat,letter,lettRpt,k,0.61,Lo,,,,,,5,,,,,,,,high,27,0,27,0,1,,,,,,,,,
295399,2022-12-06_17h36.24.160,vts_reward_expectancy_bt,2022.2.4,Win32,58.79586077,Chrome,1500,1000,,,,,0,1275,,,,,,,,,,,,,,,,,139,H,circle,1,0,,,,,,,,,,,,,,,,switch,number,numSwt,d,0.6172,Hi,,,,,,5,,,,,,,,high,28,0,28,0,1,,,,,,,,,
295399,2022-12-06_17h36.24.160,vts_reward_expectancy_bt,2022.2.4,Win32,58.79586077,Chrome,1500,1000,,,,,1,1276,,,,,,,,,,,,,,,,,160,S,star,1,0,,,,,,,,,,,,,,,,repeat,number,numRpt,f,0.823,Lo,,,,,,5,,,,,,,,high,29,0,29,0,1,,,,,,,,,
295399,2022-12-06_17h36.24.160,vts_reward_expectancy_bt,2022.2.4,Win32,58.79586077,Chrome,1500,1000,,,,,0,1276,,,,,,,,,,,,,,,,,167,F,hexagon,1,0,,,,,,,,,,,,,,,,repeat,number,numRpt,f,0.6362,Hi,,,,,,5,,,,,,,,high,30,0,30,0,1,,,,,,,,,
295399,2022-12-06_17h36.24.160,vts_reward_expectancy_bt,2022.2.4,Win32,58.79586077,Chrome,1500,1000,,,,,1,1277,,,,,,,,,,,,,,,,,146,Y,triangle,1,0,,,,,,,,,,,,,,,,repeat,number,numRpt,d,0.6522,Lo,,,,,,5,,,,,,,,high,31,0,31,0,1,,,,,,,,,
295399,2022-12-06_17h36.24.160,vts_reward_expectancy_bt,2022.2.4,Win32,58.79586077,Chrome,1500,1000,,,,,10,1287,,,,,,,,,,,,,,,,,181,F,triangle,1,0,,,,,,,,,,,,,,,,repeat,number,numRpt,f,0.8277,Lo,,,,,,6,,,,,,space,21.4035,high,0,0,0,0,1,,,,,,,,,
295399,2022-12-06_17h36.24.160,vts_reward_expectancy_bt,2022.2.4,Win32,58.79586077,Chrome,1500,1000,,,,,0,1287,,,,,,,,,,,,,,,,,139,Y,circle,1,0,,,,,,,,,,,,,,,,switch,letter,lettSwt,k,0.7366,Hi,,,,,,6,,,,,,,,high,1,0,1,0,1,,,,,,,,,
295399,2022-12-06_17h36.24.160,vts_reward_expectancy_bt,2022.2.4,Win32,58.79586077,Chrome,1500,1000,,,,,1,1288,,,,,,,,,,,,,,,,,146,W,star,1,0,,,,,,,,,,,,,,,,switch,number,numSwt,d,0.668,Lo,,,,,,6,,,,,,,,high,2,0,2,0,1,,,,,,,,,
295399,2022-12-06_17h36.24.160,vts_reward_expectancy_bt,2022.2.4,Win32,58.79586077,Chrome,1500,1000,,,,,0,1288,,,,,,,,,,,,,,,,,174,D,hexagon,1,0,,,,,,,,,,,,,,,,switch,letter,lettSwt,j,0.7167,Hi,,,,,,6,,,,,,,,high,3,0,3,0,1,,,,,,,,,
295399,2022-12-06_17h36.24.160,vts_reward_expectancy_bt,2022.2.4,Win32,58.79586077,Chrome,1500,1000,,,,,1,1289,,,,,,,,,,,,,,,,,167,S,triangle,1,0,,,,,,,,,,,,,,,,repeat,letter,lettRpt,k,0.5226,Lo,,,,,,6,,,,,,,,high,4,0,4,0,1,,,,,,,,,
295399,2022-12-06_17h36.24.160,vts_reward_expectancy_bt,2022.2.4,Win32,58.79586077,Chrome,1500,1000,,,,,0,1289,,,,,,,,,,,,,,,,,125,B,circle,1,0,,,,,,,,,,,,,,,,repeat,letter,lettRpt,j,0.5759,Hi,,,,,,6,,,,,,,,high,5,0,5,0,1,,,,,,,,,
295399,2022-12-06_17h36.24.160,vts_reward_expectancy_bt,2022.2.4,Win32,58.79586077,Chrome,1500,1000,,,,,1,1290,,,,,,,,,,,,,,,,,132,H,star,1,0,,,,,,,,,,,,,,,,switch,number,numSwt,d,0.6673,Lo,,,,,,6,,,,,,,,high,6,0,6,0,1,,,,,,,,,
295399,2022-12-06_17h36.24.160,vts_reward_expectancy_bt,2022.2.4,Win32,58.79586077,Chrome,1500,1000,,,,,10,1300,,,,,,,,,,,,,,,,,160,U,hexagon,1,0,,,,,,,,,,,,,,,,repeat,number,numRpt,f,0.574,Hi,,,,,,6,,,,,,,,high,7,0,7,0,1,,,,,,,,,
295399,2022-12-06_17h36.24.160,vts_reward_expectancy_bt,2022.2.4,Win32,58.79586077,Chrome,1500,1000,,,,,10,1310,,,,,,,,,,,,,,,,,181,F,circle,1,0,,,,,,,,,,,,,,,,repeat,number,numRpt,f,0.5177,Hi,,,,,,6,,,,,,,,high,8,0,8,0,1,,,,,,,,,
295399,2022-12-06_17h36.24.160,vts_reward_expectancy_bt,2022.2.4,Win32,58.79586077,Chrome,1500,1000,,,,,1,1311,,,,,,,,,,,,,,,,,139,Y,star,1,0,,,,,,,,,,,,,,,,repeat,number,numRpt,d,0.635,Lo,,,,,,6,,,,,,,,high,9,0,9,0,1,,,,,,,,,
295399,2022-12-06_17h36.24.160,vts_reward_expectancy_bt,2022.2.4,Win32,58.79586077,Chrome,1500,1000,,,,,10,1321,,,,,,,,,,,,,,,,,146,W,triangle,1,0,,,,,,,,,,,,,,,,repeat,number,numRpt,d,0.6167,Lo,,,,,,6,,,,,,,,high,10,0,10,0,1,,,,,,,,,
295399,2022-12-06_17h36.24.160,vts_reward_expectancy_bt,2022.2.4,Win32,58.79586077,Chrome,1500,1000,,,,,10,1331,,,,,,,,,,,,,,,,,174,D,hexagon,1,0,,,,,,,,,,,,,,,,repeat,number,numRpt,f,0.5695,Hi,,,,,,6,,,,,,,,high,11,0,11,0,1,,,,,,,,,
295399,2022-12-06_17h36.24.160,vts_reward_expectancy_bt,2022.2.4,Win32,58.79586077,Chrome,1500,1000,,,,,10,1341,,,,,,,,,,,,,,,,,167,S,hexagon,1,0,,,,,,,,,,,,,,,,repeat,number,numRpt,f,0.5672,Hi,,,,,,6,,,,,,,,high,12,0,12,0,1,,,,,,,,,
295399,2022-12-06_17h36.24.160,vts_reward_expectancy_bt,2022.2.4,Win32,58.79586077,Chrome,1500,1000,,,,,1,1342,,,,,,,,,,,,,,,,,125,B,triangle,1,0,,,,,,,,,,,,,,,,switch,letter,lettSwt,j,0.5719,Lo,,,,,,6,,,,,,,,high,13,0,13,0,1,,,,,,,,,
