participant,date,expName,psychopyVersion,OS,frameRate,browser,xResolution,yResolution,key_resp.keys,key_resp.rt,training_resp.keys,training_resp.rt,points_trial,points_cumul,trainBlock,training.thisRepN,training.thisTrialN,training.thisN,training.thisIndex,training.ran,LTriangleOpac,LCircleOpac,LHexagonOpac,LStarOpac,RTriangleOpac,RCircleOpac,RHexagonOpac,RStarOpac,LShape_ID,RShape_ID,curr_topStim,curr_bottStim,curr_shape,acc,E1,target_resp_prac1.keys,pracBlock,task1_prac_trials.thisRepN,task1_prac_trials.thisTrialN,task1_prac_trials.thisN,task1_prac_trials.thisIndex,task1_prac_trials.ran,target_resp_prac1.rt,target_resp_prac2.keys,target_resp_prac2.rt,task2_praac_trials.thisRepN,task2_praac_trials.thisTrialN,task2_praac_trials.thisN,task2_praac_trials.thisIndex,task2_praac_trials.ran,alt,task,condition,target_resp.keys,target_resp.rt,rewCond,vts_practice_trials.thisRepN,vts_practice_trials.thisTrialN,vts_practice_trials.thisN,vts_practice_trials.thisIndex,vts_practice_trials.ran,blockNum,trials_norew.thisRepN,trials_norew.thisTrialN,trials_norew.thisN,trials_norew.thisIndex,trials_norew.ran,key_resp_2.keys,key_resp_2.rt,rewExpectancy,trials_rew.thisRepN,trials_rew.thisTrialN,trials_rew.thisN,trials_rew.thisIndex,trials_rew.ran,Q1,Q2,Q2_text,Q3,Q4,Q5_text,Q5,xRes,yRes
295363,2022-12-05_22h41.00.486,vts_reward_expectancy_bt,2022.2.4,MacIntel,60.0024001,Chrome,1440,900,,,,,,,,,,,,,,,,,,,,,,,,,,,,,,,,,,,,,,,,,,,,,,,,,,,,,,,,,,,,,,,,,,,,,,,,,,,,
295363,2022-12-05_22h41.00.486,vts_reward_expectancy_bt,2022.2.4,MacIntel,60.0024001,Chrome,1440,900,space,13.4159,,,,,,,,,,,,,,,,,,,,,,,,,,,,,,,,,,,,,,,,,,,,,,,,,,,,,,,,,,,,,,,,,,,,,,,,,,
295363,2022-12-05_22h41.00.486,vts_reward_expectancy_bt,2022.2.4,MacIntel,60.0024001,Chrome,1440,900,,,,,,,,,,,,,,,,,,,,,,,,,,,,,,,,,,,,,,,,,,,,,,,,,,,,,,,,,,,,,,,,,,,,,,,,,,,,
295363,2022-12-05_22h41.00.486,vts_reward_expectancy_bt,2022.2.4,MacIntel,60.0024001,Chrome,1440,900,,,l,4.4767,1,1,0,0,0,0,4,1,0,1,0,0,0,0,1,0,circle,hexagon,,,,,,,,,,,,,,,,,,,,,,,,,,,,,,,,,,,,,,,,,,,,,,,,,,,,,,
295363,2022-12-05_22h41.00.486,vts_reward_expectancy_bt,2022.2.4,MacIntel,60.0024001,Chrome,1440,900,,,l,3.104,10,11,0,0,1,1,1,1,1,0,0,0,0,0,1,0,triangle,hexagon,,,,,,,,,,,,,,,,,,,,,,,,,,,,,,,,,,,,,,,,,,,,,,,,,,,,,,
295363,2022-12-05_22h41.00.486,vts_reward_expectancy_bt,2022.2.4,MacIntel,60.0024001,Chrome,1440,900,,,a,1.7007,10,21,0,0,2,2,0,1,1,0,0,0,0,1,0,0,triangle,circle,,,,,,,,,,,,,,,,,,,,,,,,,,,,,,,,,,,,,,,,,,,,,,,,,,,,,,
295363,2022-12-05_22h41.00.486,vts_reward_expectancy_bt,2022.2.4,MacIntel,60.0024001,Chrome,1440,900,,,l,1.9355,10,31,0,0,3,3,9,1,0,0,0,1,1,0,0,0,star,triangle,,,,,,,,,,,,,,,,,,,,,,,,,,,,,,,,,,,,,,,,,,,,,,,,,,,,,,
295363,2022-12-05_22h41.00.486,vts_reward_expectancy_bt,2022.2.4,MacIntel,60.0024001,Chrome,1440,900,,,a,1.0367,10,41,0,0,4,4,11,1,0,0,0,1,0,0,1,0,star,hexagon,,,,,,,,,,,,,,,,,,,,,,,,,,,,,,,,,,,,,,,,,,,,,,,,,,,,,,
295363,2022-12-05_22h41.00.486,vts_reward_expectancy_bt,2022.2.4,MacIntel,60.0024001,Chrome,1440,900,,,l,0.8026,1,42,0,0,5,5,7,1,0,0,1,0,0,1,0,0,hexagon,circle,,,,,,,,,,,,,,,,,,,,,,,,,,,,,,,,,,,,,,,,,,,,,,,,,,,,,,
295363,2022-12-05_22h41.00.486,vts_reward_expectancy_bt,2022.2.4,MacIntel,60.0024001,Chrome,1440,900,,,l,1.5683,1,43,0,0,6,6,10,1,0,0,0,1,0,1,0,0,star ,circle,,,,,,,,,,,,,,,,,,,,,,,,,,,,,,,,,,,,,,,,,,,,,,,,,,,,,,
295363,2022-12-05_22h41.00.486,vts_reward_expectancy_bt,2022.2.4,MacIntel,60.0024001,Chrome,1440,900,,,l,1.0547,1,44,0,0,7,7,8,1,0,0,1,0,0,0,0,1,hexagon,star,,,,,,,,,,,,,,,,,,,,,,,,,,,,,,,,,,,,,,,,,,,,,,,,,,,,,,
295363,2022-12-05_22h41.00.486,vts_reward_expectancy_bt,2022.2.4,MacIntel,60.0024001,Chrome,1440,900,,,a,0.4382,10,54,0,0,8,8,2,1,1,0,0,0,0,0,0,1,triangle,star,,,,,,,,,,,,,,,,,,,,,,,,,,,,,,,,,,,,,,,,,,,,,,,,,,,,,,
295363,2022-12-05_22h41.00.486,vts_reward_expectancy_bt,2022.2.4,MacIntel,60.0024001,Chrome,1440,900,,,a,0.7205,10,64,0,0,9,9,5,1,0,1,0,0,0,0,0,1,circle,star,,,,,,,,,,,,,,,,,,,,,,,,,,,,,,,,,,,,,,,,,,,,,,,,,,,,,,
295363,2022-12-05_22h41.00.486,vts_reward_expectancy_bt,2022.2.4,MacIntel,60.0024001,Chrome,1440,900,,,a,0.599,1,65,0,0,10,10,3,1,0,1,0,0,1,0,0,0,circle,triangle,,,,,,,,,,,,,,,,,,,,,,,,,,,,,,,,,,,,,,,,,,,,,,,,,,,,,,
295363,2022-12-05_22h41.00.486,vts_reward_expectancy_bt,2022.2.4,MacIntel,60.0024001,Chrome,1440,900,,,l,0.348,10,75,0,0,11,11,6,1,0,0,1,0,1,0,0,0,hexagon,triangle,,,,,,,,,,,,,,,,,,,,,,,,,,,,,,,,,,,,,,,,,,,,,,,,,,,,,,
295363,2022-12-05_22h41.00.486,vts_reward_expectancy_bt,2022.2.4,MacIntel,60.0024001,Chrome,1440,900,,,l,0.354,10,85,0,1,0,12,9,1,0,0,0,1,1,0,0,0,star,triangle,,,,,,,,,,,,,,,,,,,,,,,,,,,,,,,,,,,,,,,,,,,,,,,,,,,,,,
295363,2022-12-05_22h41.00.486,vts_reward_expectancy_bt,2022.2.4,MacIntel,60.0024001,Chrome,1440,900,,,l,1.2185,1,86,0,1,1,13,4,1,0,1,0,0,0,0,1,0,circle,hexagon,,,,,,,,,,,,,,,,,,,,,,,,,,,,,,,,,,,,,,,,,,,,,,,,,,,,,,
295363,2022-12-05_22h41.00.486,vts_reward_expectancy_bt,2022.2.4,MacIntel,60.0024001,Chrome,1440,900,,,a,1.2645,1,87,0,1,2,14,5,1,0,1,0,0,0,0,0,1,circle,star,,,,,,,,,,,,,,,,,,,,,,,,,,,,,,,,,,,,,,,,,,,,,,,,,,,,,,
295363,2022-12-05_22h41.00.486,vts_reward_expectancy_bt,2022.2.4,MacIntel,60.0024001,Chrome,1440,900,,,l,1.9714,1,88,0,1,3,15,7,1,0,0,1,0,0,1,0,0,hexagon,circle,,,,,,,,,,,,,,,,,,,,,,,,,,,,,,,,,,,,,,,,,,,,,,,,,,,,,,
295363,2022-12-05_22h41.00.486,vts_reward_expectancy_bt,2022.2.4,MacIntel,60.0024001,Chrome,1440,900,,,a,2.2395,10,98,0,1,4,16,0,1,1,0,0,0,0,1,0,0,triangle,circle,,,,,,,,,,,,,,,,,,,,,,,,,,,,,,,,,,,,,,,,,,,,,,,,,,,,,,
295363,2022-12-05_22h41.00.486,vts_reward_expectancy_bt,2022.2.4,MacIntel,60.0024001,Chrome,1440,900,,,l,1.3364,10,108,0,1,5,17,3,1,0,1,0,0,1,0,0,0,circle,triangle,,,,,,,,,,,,,,,,,,,,,,,,,,,,,,,,,,,,,,,,,,,,,,,,,,,,,,
295363,2022-12-05_22h41.00.486,vts_reward_expectancy_bt,2022.2.4,MacIntel,60.0024001,Chrome,1440,900,,,l,1.3598,1,109,0,1,6,18,6,1,0,0,1,0,1,0,0,0,hexagon,triangle,,,,,,,,,,,,,,,,,,,,,,,,,,,,,,,,,,,,,,,,,,,,,,,,,,,,,,
295363,2022-12-05_22h41.00.486,vts_reward_expectancy_bt,2022.2.4,MacIntel,60.0024001,Chrome,1440,900,,,l,3.3419,1,110,0,1,7,19,11,1,0,0,0,1,0,0,1,0,star,hexagon,,,,,,,,,,,,,,,,,,,,,,,,,,,,,,,,,,,,,,,,,,,,,,,,,,,,,,
295363,2022-12-05_22h41.00.486,vts_reward_expectancy_bt,2022.2.4,MacIntel,60.0024001,Chrome,1440,900,,,a,8.1369,1,111,0,1,8,20,1,1,1,0,0,0,0,0,1,0,triangle,hexagon,,,,,,,,,,,,,,,,,,,,,,,,,,,,,,,,,,,,,,,,,,,,,,,,,,,,,,
295363,2022-12-05_22h41.00.486,vts_reward_expectancy_bt,2022.2.4,MacIntel,60.0024001,Chrome,1440,900,,,l,1.3242,10,121,0,1,9,21,10,1,0,0,0,1,0,1,0,0,star ,circle,,,,,,,,,,,,,,,,,,,,,,,,,,,,,,,,,,,,,,,,,,,,,,,,,,,,,,
295363,2022-12-05_22h41.00.486,vts_reward_expectancy_bt,2022.2.4,MacIntel,60.0024001,Chrome,1440,900,,,a,1.1073,1,122,0,1,10,22,8,1,0,0,1,0,0,0,0,1,hexagon,star,,,,,,,,,,,,,,,,,,,,,,,,,,,,,,,,,,,,,,,,,,,,,,,,,,,,,,
295363,2022-12-05_22h41.00.486,vts_reward_expectancy_bt,2022.2.4,MacIntel,60.0024001,Chrome,1440,900,,,l,0.5035,1,123,0,1,11,23,2,1,1,0,0,0,0,0,0,1,triangle,star,,,,,,,,,,,,,,,,,,,,,,,,,,,,,,,,,,,,,,,,,,,,,,,,,,,,,,
295363,2022-12-05_22h41.00.486,vts_reward_expectancy_bt,2022.2.4,MacIntel,60.0024001,Chrome,1440,900,,,a,2.3982,1,124,0,2,0,24,1,1,1,0,0,0,0,0,1,0,triangle,hexagon,,,,,,,,,,,,,,,,,,,,,,,,,,,,,,,,,,,,,,,,,,,,,,,,,,,,,,
295363,2022-12-05_22h41.00.486,vts_reward_expectancy_bt,2022.2.4,MacIntel,60.0024001,Chrome,1440,900,,,a,1.5569,1,125,0,2,1,25,10,1,0,0,0,1,0,1,0,0,star ,circle,,,,,,,,,,,,,,,,,,,,,,,,,,,,,,,,,,,,,,,,,,,,,,,,,,,,,,
295363,2022-12-05_22h41.00.486,vts_reward_expectancy_bt,2022.2.4,MacIntel,60.0024001,Chrome,1440,900,,,l,0.4368,10,135,0,2,2,26,4,1,0,1,0,0,0,0,1,0,circle,hexagon,,,,,,,,,,,,,,,,,,,,,,,,,,,,,,,,,,,,,,,,,,,,,,,,,,,,,,
295363,2022-12-05_22h41.00.486,vts_reward_expectancy_bt,2022.2.4,MacIntel,60.0024001,Chrome,1440,900,,,l,0.3493,1,136,0,2,3,27,8,1,0,0,1,0,0,0,0,1,hexagon,star,,,,,,,,,,,,,,,,,,,,,,,,,,,,,,,,,,,,,,,,,,,,,,,,,,,,,,
295363,2022-12-05_22h41.00.486,vts_reward_expectancy_bt,2022.2.4,MacIntel,60.0024001,Chrome,1440,900,,,a,0.5632,1,137,0,2,4,28,0,1,1,0,0,0,0,1,0,0,triangle,circle,,,,,,,,,,,,,,,,,,,,,,,,,,,,,,,,,,,,,,,,,,,,,,,,,,,,,,
295363,2022-12-05_22h41.00.486,vts_reward_expectancy_bt,2022.2.4,MacIntel,60.0024001,Chrome,1440,900,,,l,0.3402,1,138,0,2,5,29,6,1,0,0,1,0,1,0,0,0,hexagon,triangle,,,,,,,,,,,,,,,,,,,,,,,,,,,,,,,,,,,,,,,,,,,,,,,,,,,,,,
295363,2022-12-05_22h41.00.486,vts_reward_expectancy_bt,2022.2.4,MacIntel,60.0024001,Chrome,1440,900,,,l,0.3845,1,139,0,2,6,30,2,1,1,0,0,0,0,0,0,1,triangle,star,,,,,,,,,,,,,,,,,,,,,,,,,,,,,,,,,,,,,,,,,,,,,,,,,,,,,,
295363,2022-12-05_22h41.00.486,vts_reward_expectancy_bt,2022.2.4,MacIntel,60.0024001,Chrome,1440,900,,,a,1.0316,10,149,0,2,7,31,5,1,0,1,0,0,0,0,0,1,circle,star,,,,,,,,,,,,,,,,,,,,,,,,,,,,,,,,,,,,,,,,,,,,,,,,,,,,,,
295363,2022-12-05_22h41.00.486,vts_reward_expectancy_bt,2022.2.4,MacIntel,60.0024001,Chrome,1440,900,,,l,0.9415,1,150,0,2,8,32,7,1,0,0,1,0,0,1,0,0,hexagon,circle,,,,,,,,,,,,,,,,,,,,,,,,,,,,,,,,,,,,,,,,,,,,,,,,,,,,,,
295363,2022-12-05_22h41.00.486,vts_reward_expectancy_bt,2022.2.4,MacIntel,60.0024001,Chrome,1440,900,,,a,0.6156,1,151,0,2,9,33,3,1,0,1,0,0,1,0,0,0,circle,triangle,,,,,,,,,,,,,,,,,,,,,,,,,,,,,,,,,,,,,,,,,,,,,,,,,,,,,,
295363,2022-12-05_22h41.00.486,vts_reward_expectancy_bt,2022.2.4,MacIntel,60.0024001,Chrome,1440,900,,,a,0.617,10,161,0,2,10,34,11,1,0,0,0,1,0,0,1,0,star,hexagon,,,,,,,,,,,,,,,,,,,,,,,,,,,,,,,,,,,,,,,,,,,,,,,,,,,,,,
295363,2022-12-05_22h41.00.486,vts_reward_expectancy_bt,2022.2.4,MacIntel,60.0024001,Chrome,1440,900,,,a,0.7726,1,162,0,2,11,35,9,1,0,0,0,1,1,0,0,0,star,triangle,,,,,,,,,,,,,,,,,,,,,,,,,,,,,,,,,,,,,,,,,,,,,,,,,,,,,,
295363,2022-12-05_22h41.00.486,vts_reward_expectancy_bt,2022.2.4,MacIntel,60.0024001,Chrome,1440,900,,,a,2.651,1,163,1,0,0,0,4,1,0,1,0,0,0,0,1,0,circle,hexagon,,,,,,,,,,,,,,,,,,,,,,,,,,,,,,,,,,,,,,,,,,,,,,,,,,,,,,
295363,2022-12-05_22h41.00.486,vts_reward_expectancy_bt,2022.2.4,MacIntel,60.0024001,Chrome,1440,900,,,l,0.791,10,173,1,0,1,1,2,1,1,0,0,0,0,0,0,1,triangle,star,,,,,,,,,,,,,,,,,,,,,,,,,,,,,,,,,,,,,,,,,,,,,,,,,,,,,,
295363,2022-12-05_22h41.00.486,vts_reward_expectancy_bt,2022.2.4,MacIntel,60.0024001,Chrome,1440,900,,,a,1.2273,10,183,1,0,2,2,0,1,1,0,0,0,0,1,0,0,triangle,circle,,,,,,,,,,,,,,,,,,,,,,,,,,,,,,,,,,,,,,,,,,,,,,,,,,,,,,
295363,2022-12-05_22h41.00.486,vts_reward_expectancy_bt,2022.2.4,MacIntel,60.0024001,Chrome,1440,900,,,a,0.431,1,184,1,0,3,3,3,1,0,1,0,0,1,0,0,0,circle,triangle,,,,,,,,,,,,,,,,,,,,,,,,,,,,,,,,,,,,,,,,,,,,,,,,,,,,,,
295363,2022-12-05_22h41.00.486,vts_reward_expectancy_bt,2022.2.4,MacIntel,60.0024001,Chrome,1440,900,,,l,0.3617,1,185,1,0,4,4,7,1,0,0,1,0,0,1,0,0,hexagon,circle,,,,,,,,,,,,,,,,,,,,,,,,,,,,,,,,,,,,,,,,,,,,,,,,,,,,,,
295363,2022-12-05_22h41.00.486,vts_reward_expectancy_bt,2022.2.4,MacIntel,60.0024001,Chrome,1440,900,,,l,0.9682,1,186,1,0,5,5,10,1,0,0,0,1,0,1,0,0,star ,circle,,,,,,,,,,,,,,,,,,,,,,,,,,,,,,,,,,,,,,,,,,,,,,,,,,,,,,
295363,2022-12-05_22h41.00.486,vts_reward_expectancy_bt,2022.2.4,MacIntel,60.0024001,Chrome,1440,900,,,a,0.621,10,196,1,0,6,6,1,1,1,0,0,0,0,0,1,0,triangle,hexagon,,,,,,,,,,,,,,,,,,,,,,,,,,,,,,,,,,,,,,,,,,,,,,,,,,,,,,
295363,2022-12-05_22h41.00.486,vts_reward_expectancy_bt,2022.2.4,MacIntel,60.0024001,Chrome,1440,900,,,a,0.6083,1,197,1,0,7,7,11,1,0,0,0,1,0,0,1,0,star,hexagon,,,,,,,,,,,,,,,,,,,,,,,,,,,,,,,,,,,,,,,,,,,,,,,,,,,,,,
295363,2022-12-05_22h41.00.486,vts_reward_expectancy_bt,2022.2.4,MacIntel,60.0024001,Chrome,1440,900,,,l,1.3497,10,207,1,0,8,8,9,1,0,0,0,1,1,0,0,0,star,triangle,,,,,,,,,,,,,,,,,,,,,,,,,,,,,,,,,,,,,,,,,,,,,,,,,,,,,,
295363,2022-12-05_22h41.00.486,vts_reward_expectancy_bt,2022.2.4,MacIntel,60.0024001,Chrome,1440,900,,,a,0.2899,10,217,1,0,9,9,6,1,0,0,1,0,1,0,0,0,hexagon,triangle,,,,,,,,,,,,,,,,,,,,,,,,,,,,,,,,,,,,,,,,,,,,,,,,,,,,,,
295363,2022-12-05_22h41.00.486,vts_reward_expectancy_bt,2022.2.4,MacIntel,60.0024001,Chrome,1440,900,,,l,0.6524,1,218,1,0,10,10,8,1,0,0,1,0,0,0,0,1,hexagon,star,,,,,,,,,,,,,,,,,,,,,,,,,,,,,,,,,,,,,,,,,,,,,,,,,,,,,,
295363,2022-12-05_22h41.00.486,vts_reward_expectancy_bt,2022.2.4,MacIntel,60.0024001,Chrome,1440,900,,,a,2.3582,1,219,1,0,11,11,5,1,0,1,0,0,0,0,0,1,circle,star,,,,,,,,,,,,,,,,,,,,,,,,,,,,,,,,,,,,,,,,,,,,,,,,,,,,,,
295363,2022-12-05_22h41.00.486,vts_reward_expectancy_bt,2022.2.4,MacIntel,60.0024001,Chrome,1440,900,,,l,0.5255,10,229,1,1,0,12,9,1,0,0,0,1,1,0,0,0,star,triangle,,,,,,,,,,,,,,,,,,,,,,,,,,,,,,,,,,,,,,,,,,,,,,,,,,,,,,
295363,2022-12-05_22h41.00.486,vts_reward_expectancy_bt,2022.2.4,MacIntel,60.0024001,Chrome,1440,900,,,l,0.3689,10,239,1,1,1,13,0,1,1,0,0,0,0,1,0,0,triangle,circle,,,,,,,,,,,,,,,,,,,,,,,,,,,,,,,,,,,,,,,,,,,,,,,,,,,,,,
295363,2022-12-05_22h41.00.486,vts_reward_expectancy_bt,2022.2.4,MacIntel,60.0024001,Chrome,1440,900,,,a,0.4201,1,240,1,1,2,14,11,1,0,0,0,1,0,0,1,0,star,hexagon,,,,,,,,,,,,,,,,,,,,,,,,,,,,,,,,,,,,,,,,,,,,,,,,,,,,,,
295363,2022-12-05_22h41.00.486,vts_reward_expectancy_bt,2022.2.4,MacIntel,60.0024001,Chrome,1440,900,,,l,0.3646,1,241,1,1,3,15,4,1,0,1,0,0,0,0,1,0,circle,hexagon,,,,,,,,,,,,,,,,,,,,,,,,,,,,,,,,,,,,,,,,,,,,,,,,,,,,,,
295363,2022-12-05_22h41.00.486,vts_reward_expectancy_bt,2022.2.4,MacIntel,60.0024001,Chrome,1440,900,,,a,0.6189,10,251,1,1,4,16,7,1,0,0,1,0,0,1,0,0,hexagon,circle,,,,,,,,,,,,,,,,,,,,,,,,,,,,,,,,,,,,,,,,,,,,,,,,,,,,,,
295363,2022-12-05_22h41.00.486,vts_reward_expectancy_bt,2022.2.4,MacIntel,60.0024001,Chrome,1440,900,,,a,0.8344,1,252,1,1,5,17,5,1,0,1,0,0,0,0,0,1,circle,star,,,,,,,,,,,,,,,,,,,,,,,,,,,,,,,,,,,,,,,,,,,,,,,,,,,,,,
295363,2022-12-05_22h41.00.486,vts_reward_expectancy_bt,2022.2.4,MacIntel,60.0024001,Chrome,1440,900,,,l,0.377,10,262,1,1,6,18,6,1,0,0,1,0,1,0,0,0,hexagon,triangle,,,,,,,,,,,,,,,,,,,,,,,,,,,,,,,,,,,,,,,,,,,,,,,,,,,,,,
295363,2022-12-05_22h41.00.486,vts_reward_expectancy_bt,2022.2.4,MacIntel,60.0024001,Chrome,1440,900,,,l,0.565,1,263,1,1,7,19,10,1,0,0,0,1,0,1,0,0,star ,circle,,,,,,,,,,,,,,,,,,,,,,,,,,,,,,,,,,,,,,,,,,,,,,,,,,,,,,
295363,2022-12-05_22h41.00.486,vts_reward_expectancy_bt,2022.2.4,MacIntel,60.0024001,Chrome,1440,900,,,l,1.5221,10,273,1,1,8,20,3,1,0,1,0,0,1,0,0,0,circle,triangle,,,,,,,,,,,,,,,,,,,,,,,,,,,,,,,,,,,,,,,,,,,,,,,,,,,,,,
295363,2022-12-05_22h41.00.486,vts_reward_expectancy_bt,2022.2.4,MacIntel,60.0024001,Chrome,1440,900,,,a,1.4796,10,283,1,1,9,21,8,1,0,0,1,0,0,0,0,1,hexagon,star,,,,,,,,,,,,,,,,,,,,,,,,,,,,,,,,,,,,,,,,,,,,,,,,,,,,,,
295363,2022-12-05_22h41.00.486,vts_reward_expectancy_bt,2022.2.4,MacIntel,60.0024001,Chrome,1440,900,,,l,0.8278,10,293,1,1,10,22,1,1,1,0,0,0,0,0,1,0,triangle,hexagon,,,,,,,,,,,,,,,,,,,,,,,,,,,,,,,,,,,,,,,,,,,,,,,,,,,,,,
295363,2022-12-05_22h41.00.486,vts_reward_expectancy_bt,2022.2.4,MacIntel,60.0024001,Chrome,1440,900,,,a,0.8153,10,303,1,1,11,23,2,1,1,0,0,0,0,0,0,1,triangle,star,,,,,,,,,,,,,,,,,,,,,,,,,,,,,,,,,,,,,,,,,,,,,,,,,,,,,,
295363,2022-12-05_22h41.00.486,vts_reward_expectancy_bt,2022.2.4,MacIntel,60.0024001,Chrome,1440,900,,,a,0.7962,10,313,1,2,0,24,8,1,0,0,1,0,0,0,0,1,hexagon,star,,,,,,,,,,,,,,,,,,,,,,,,,,,,,,,,,,,,,,,,,,,,,,,,,,,,,,
295363,2022-12-05_22h41.00.486,vts_reward_expectancy_bt,2022.2.4,MacIntel,60.0024001,Chrome,1440,900,,,l,1.0197,10,323,1,2,1,25,9,1,0,0,0,1,1,0,0,0,star,triangle,,,,,,,,,,,,,,,,,,,,,,,,,,,,,,,,,,,,,,,,,,,,,,,,,,,,,,
295363,2022-12-05_22h41.00.486,vts_reward_expectancy_bt,2022.2.4,MacIntel,60.0024001,Chrome,1440,900,,,l,1.1243,1,324,1,2,2,26,11,1,0,0,0,1,0,0,1,0,star,hexagon,,,,,,,,,,,,,,,,,,,,,,,,,,,,,,,,,,,,,,,,,,,,,,,,,,,,,,
295363,2022-12-05_22h41.00.486,vts_reward_expectancy_bt,2022.2.4,MacIntel,60.0024001,Chrome,1440,900,,,a,1.1144,1,325,1,2,3,27,10,1,0,0,0,1,0,1,0,0,star ,circle,,,,,,,,,,,,,,,,,,,,,,,,,,,,,,,,,,,,,,,,,,,,,,,,,,,,,,
295363,2022-12-05_22h41.00.486,vts_reward_expectancy_bt,2022.2.4,MacIntel,60.0024001,Chrome,1440,900,,,l,2.2612,10,335,1,2,4,28,4,1,0,1,0,0,0,0,1,0,circle,hexagon,,,,,,,,,,,,,,,,,,,,,,,,,,,,,,,,,,,,,,,,,,,,,,,,,,,,,,
295363,2022-12-05_22h41.00.486,vts_reward_expectancy_bt,2022.2.4,MacIntel,60.0024001,Chrome,1440,900,,,a,0.7756,1,336,1,2,5,29,7,1,0,0,1,0,0,1,0,0,hexagon,circle,,,,,,,,,,,,,,,,,,,,,,,,,,,,,,,,,,,,,,,,,,,,,,,,,,,,,,
295363,2022-12-05_22h41.00.486,vts_reward_expectancy_bt,2022.2.4,MacIntel,60.0024001,Chrome,1440,900,,,a,1.0304,10,346,1,2,6,30,6,1,0,0,1,0,1,0,0,0,hexagon,triangle,,,,,,,,,,,,,,,,,,,,,,,,,,,,,,,,,,,,,,,,,,,,,,,,,,,,,,
295363,2022-12-05_22h41.00.486,vts_reward_expectancy_bt,2022.2.4,MacIntel,60.0024001,Chrome,1440,900,,,a,1.9015,1,347,1,2,7,31,0,1,1,0,0,0,0,1,0,0,triangle,circle,,,,,,,,,,,,,,,,,,,,,,,,,,,,,,,,,,,,,,,,,,,,,,,,,,,,,,
295363,2022-12-05_22h41.00.486,vts_reward_expectancy_bt,2022.2.4,MacIntel,60.0024001,Chrome,1440,900,,,l,1.1755,1,348,1,2,8,32,2,1,1,0,0,0,0,0,0,1,triangle,star,,,,,,,,,,,,,,,,,,,,,,,,,,,,,,,,,,,,,,,,,,,,,,,,,,,,,,
295363,2022-12-05_22h41.00.486,vts_reward_expectancy_bt,2022.2.4,MacIntel,60.0024001,Chrome,1440,900,,,l,1.072,10,358,1,2,9,33,3,1,0,1,0,0,1,0,0,0,circle,triangle,,,,,,,,,,,,,,,,,,,,,,,,,,,,,,,,,,,,,,,,,,,,,,,,,,,,,,
295363,2022-12-05_22h41.00.486,vts_reward_expectancy_bt,2022.2.4,MacIntel,60.0024001,Chrome,1440,900,,,l,2.308,10,368,1,2,10,34,1,1,1,0,0,0,0,0,1,0,triangle,hexagon,,,,,,,,,,,,,,,,,,,,,,,,,,,,,,,,,,,,,,,,,,,,,,,,,,,,,,
295363,2022-12-05_22h41.00.486,vts_reward_expectancy_bt,2022.2.4,MacIntel,60.0024001,Chrome,1440,900,,,a,0.6707,10,378,1,2,11,35,5,1,0,1,0,0,0,0,0,1,circle,star,,,,,,,,,,,,,,,,,,,,,,,,,,,,,,,,,,,,,,,,,,,,,,,,,,,,,,
295363,2022-12-05_22h41.00.486,vts_reward_expectancy_bt,2022.2.4,MacIntel,60.0024001,Chrome,1440,900,,,l,1.9569,1,379,2,0,0,0,10,1,0,0,0,1,0,1,0,0,star ,circle,,,,,,,,,,,,,,,,,,,,,,,,,,,,,,,,,,,,,,,,,,,,,,,,,,,,,,
295363,2022-12-05_22h41.00.486,vts_reward_expectancy_bt,2022.2.4,MacIntel,60.0024001,Chrome,1440,900,,,a,2.6066,1,380,2,0,1,1,7,1,0,0,1,0,0,1,0,0,hexagon,circle,,,,,,,,,,,,,,,,,,,,,,,,,,,,,,,,,,,,,,,,,,,,,,,,,,,,,,
295363,2022-12-05_22h41.00.486,vts_reward_expectancy_bt,2022.2.4,MacIntel,60.0024001,Chrome,1440,900,,,a,0.8242,10,390,2,0,2,2,6,1,0,0,1,0,1,0,0,0,hexagon,triangle,,,,,,,,,,,,,,,,,,,,,,,,,,,,,,,,,,,,,,,,,,,,,,,,,,,,,,
295363,2022-12-05_22h41.00.486,vts_reward_expectancy_bt,2022.2.4,MacIntel,60.0024001,Chrome,1440,900,,,l,0.8893,10,400,2,0,3,3,11,1,0,0,0,1,0,0,1,0,star,hexagon,,,,,,,,,,,,,,,,,,,,,,,,,,,,,,,,,,,,,,,,,,,,,,,,,,,,,,
295363,2022-12-05_22h41.00.486,vts_reward_expectancy_bt,2022.2.4,MacIntel,60.0024001,Chrome,1440,900,,,a,0.7893,10,410,2,0,4,4,8,1,0,0,1,0,0,0,0,1,hexagon,star,,,,,,,,,,,,,,,,,,,,,,,,,,,,,,,,,,,,,,,,,,,,,,,,,,,,,,
295363,2022-12-05_22h41.00.486,vts_reward_expectancy_bt,2022.2.4,MacIntel,60.0024001,Chrome,1440,900,,,a,1.6139,10,420,2,0,5,5,2,1,1,0,0,0,0,0,0,1,triangle,star,,,,,,,,,,,,,,,,,,,,,,,,,,,,,,,,,,,,,,,,,,,,,,,,,,,,,,
295363,2022-12-05_22h41.00.486,vts_reward_expectancy_bt,2022.2.4,MacIntel,60.0024001,Chrome,1440,900,,,l,0.8262,10,430,2,0,6,6,4,1,0,1,0,0,0,0,1,0,circle,hexagon,,,,,,,,,,,,,,,,,,,,,,,,,,,,,,,,,,,,,,,,,,,,,,,,,,,,,,
295363,2022-12-05_22h41.00.486,vts_reward_expectancy_bt,2022.2.4,MacIntel,60.0024001,Chrome,1440,900,,,l,0.9195,1,431,2,0,7,7,9,1,0,0,0,1,1,0,0,0,star,triangle,,,,,,,,,,,,,,,,,,,,,,,,,,,,,,,,,,,,,,,,,,,,,,,,,,,,,,
295363,2022-12-05_22h41.00.486,vts_reward_expectancy_bt,2022.2.4,MacIntel,60.0024001,Chrome,1440,900,,,l,0.8382,10,441,2,0,8,8,1,1,1,0,0,0,0,0,1,0,triangle,hexagon,,,,,,,,,,,,,,,,,,,,,,,,,,,,,,,,,,,,,,,,,,,,,,,,,,,,,,
295363,2022-12-05_22h41.00.486,vts_reward_expectancy_bt,2022.2.4,MacIntel,60.0024001,Chrome,1440,900,,,a,0.6683,10,451,2,0,9,9,5,1,0,1,0,0,0,0,0,1,circle,star,,,,,,,,,,,,,,,,,,,,,,,,,,,,,,,,,,,,,,,,,,,,,,,,,,,,,,
295363,2022-12-05_22h41.00.486,vts_reward_expectancy_bt,2022.2.4,MacIntel,60.0024001,Chrome,1440,900,,,l,0.7272,1,452,2,0,10,10,0,1,1,0,0,0,0,1,0,0,triangle,circle,,,,,,,,,,,,,,,,,,,,,,,,,,,,,,,,,,,,,,,,,,,,,,,,,,,,,,
295363,2022-12-05_22h41.00.486,vts_reward_expectancy_bt,2022.2.4,MacIntel,60.0024001,Chrome,1440,900,,,l,1.9561,10,462,2,0,11,11,3,1,0,1,0,0,1,0,0,0,circle,triangle,,,,,,,,,,,,,,,,,,,,,,,,,,,,,,,,,,,,,,,,,,,,,,,,,,,,,,
295363,2022-12-05_22h41.00.486,vts_reward_expectancy_bt,2022.2.4,MacIntel,60.0024001,Chrome,1440,900,,,l,0.6036,10,472,2,1,0,12,9,1,0,0,0,1,1,0,0,0,star,triangle,,,,,,,,,,,,,,,,,,,,,,,,,,,,,,,,,,,,,,,,,,,,,,,,,,,,,,
295363,2022-12-05_22h41.00.486,vts_reward_expectancy_bt,2022.2.4,MacIntel,60.0024001,Chrome,1440,900,,,l,0.6975,10,482,2,1,1,13,11,1,0,0,0,1,0,0,1,0,star,hexagon,,,,,,,,,,,,,,,,,,,,,,,,,,,,,,,,,,,,,,,,,,,,,,,,,,,,,,
295363,2022-12-05_22h41.00.486,vts_reward_expectancy_bt,2022.2.4,MacIntel,60.0024001,Chrome,1440,900,,,l,1.9885,10,492,2,1,2,14,6,1,0,0,1,0,1,0,0,0,hexagon,triangle,,,,,,,,,,,,,,,,,,,,,,,,,,,,,,,,,,,,,,,,,,,,,,,,,,,,,,
295363,2022-12-05_22h41.00.486,vts_reward_expectancy_bt,2022.2.4,MacIntel,60.0024001,Chrome,1440,900,,,l,1.2346,1,493,2,1,3,15,10,1,0,0,0,1,0,1,0,0,star ,circle,,,,,,,,,,,,,,,,,,,,,,,,,,,,,,,,,,,,,,,,,,,,,,,,,,,,,,
295363,2022-12-05_22h41.00.486,vts_reward_expectancy_bt,2022.2.4,MacIntel,60.0024001,Chrome,1440,900,,,a,1.4585,10,503,2,1,4,16,1,1,1,0,0,0,0,0,1,0,triangle,hexagon,,,,,,,,,,,,,,,,,,,,,,,,,,,,,,,,,,,,,,,,,,,,,,,,,,,,,,
295363,2022-12-05_22h41.00.486,vts_reward_expectancy_bt,2022.2.4,MacIntel,60.0024001,Chrome,1440,900,,,l,0.9056,10,513,2,1,5,17,4,1,0,1,0,0,0,0,1,0,circle,hexagon,,,,,,,,,,,,,,,,,,,,,,,,,,,,,,,,,,,,,,,,,,,,,,,,,,,,,,
295363,2022-12-05_22h41.00.486,vts_reward_expectancy_bt,2022.2.4,MacIntel,60.0024001,Chrome,1440,900,,,a,0.7852,10,523,2,1,6,18,8,1,0,0,1,0,0,0,0,1,hexagon,star,,,,,,,,,,,,,,,,,,,,,,,,,,,,,,,,,,,,,,,,,,,,,,,,,,,,,,
295363,2022-12-05_22h41.00.486,vts_reward_expectancy_bt,2022.2.4,MacIntel,60.0024001,Chrome,1440,900,,,l,1.0705,10,533,2,1,7,19,3,1,0,1,0,0,1,0,0,0,circle,triangle,,,,,,,,,,,,,,,,,,,,,,,,,,,,,,,,,,,,,,,,,,,,,,,,,,,,,,
295363,2022-12-05_22h41.00.486,vts_reward_expectancy_bt,2022.2.4,MacIntel,60.0024001,Chrome,1440,900,,,a,0.7584,10,543,2,1,8,20,2,1,1,0,0,0,0,0,0,1,triangle,star,,,,,,,,,,,,,,,,,,,,,,,,,,,,,,,,,,,,,,,,,,,,,,,,,,,,,,
295363,2022-12-05_22h41.00.486,vts_reward_expectancy_bt,2022.2.4,MacIntel,60.0024001,Chrome,1440,900,,,l,1.8711,1,544,2,1,9,21,0,1,1,0,0,0,0,1,0,0,triangle,circle,,,,,,,,,,,,,,,,,,,,,,,,,,,,,,,,,,,,,,,,,,,,,,,,,,,,,,
295363,2022-12-05_22h41.00.486,vts_reward_expectancy_bt,2022.2.4,MacIntel,60.0024001,Chrome,1440,900,,,a,1.5548,10,554,2,1,10,22,7,1,0,0,1,0,0,1,0,0,hexagon,circle,,,,,,,,,,,,,,,,,,,,,,,,,,,,,,,,,,,,,,,,,,,,,,,,,,,,,,
295363,2022-12-05_22h41.00.486,vts_reward_expectancy_bt,2022.2.4,MacIntel,60.0024001,Chrome,1440,900,,,a,1.2855,1,555,2,1,11,23,5,1,0,1,0,0,0,0,0,1,circle,star,,,,,,,,,,,,,,,,,,,,,,,,,,,,,,,,,,,,,,,,,,,,,,,,,,,,,,
295363,2022-12-05_22h41.00.486,vts_reward_expectancy_bt,2022.2.4,MacIntel,60.0024001,Chrome,1440,900,,,a,1.7654,1,556,2,2,0,24,10,1,0,0,0,1,0,1,0,0,star ,circle,,,,,,,,,,,,,,,,,,,,,,,,,,,,,,,,,,,,,,,,,,,,,,,,,,,,,,
295363,2022-12-05_22h41.00.486,vts_reward_expectancy_bt,2022.2.4,MacIntel,60.0024001,Chrome,1440,900,,,l,1.204,10,566,2,2,1,25,11,1,0,0,0,1,0,0,1,0,star,hexagon,,,,,,,,,,,,,,,,,,,,,,,,,,,,,,,,,,,,,,,,,,,,,,,,,,,,,,
295363,2022-12-05_22h41.00.486,vts_reward_expectancy_bt,2022.2.4,MacIntel,60.0024001,Chrome,1440,900,,,a,1.2742,1,567,2,2,2,26,6,1,0,0,1,0,1,0,0,0,hexagon,triangle,,,,,,,,,,,,,,,,,,,,,,,,,,,,,,,,,,,,,,,,,,,,,,,,,,,,,,
295363,2022-12-05_22h41.00.486,vts_reward_expectancy_bt,2022.2.4,MacIntel,60.0024001,Chrome,1440,900,,,a,1.7629,1,568,2,2,3,27,5,1,0,1,0,0,0,0,0,1,circle,star,,,,,,,,,,,,,,,,,,,,,,,,,,,,,,,,,,,,,,,,,,,,,,,,,,,,,,
295363,2022-12-05_22h41.00.486,vts_reward_expectancy_bt,2022.2.4,MacIntel,60.0024001,Chrome,1440,900,,,l,1.4896,10,578,2,2,4,28,8,1,0,0,1,0,0,0,0,1,hexagon,star,,,,,,,,,,,,,,,,,,,,,,,,,,,,,,,,,,,,,,,,,,,,,,,,,,,,,,
295363,2022-12-05_22h41.00.486,vts_reward_expectancy_bt,2022.2.4,MacIntel,60.0024001,Chrome,1440,900,,,l,0.5688,1,579,2,2,5,29,2,1,1,0,0,0,0,0,0,1,triangle,star,,,,,,,,,,,,,,,,,,,,,,,,,,,,,,,,,,,,,,,,,,,,,,,,,,,,,,
295363,2022-12-05_22h41.00.486,vts_reward_expectancy_bt,2022.2.4,MacIntel,60.0024001,Chrome,1440,900,,,l,0.7352,10,589,2,2,6,30,1,1,1,0,0,0,0,0,1,0,triangle,hexagon,,,,,,,,,,,,,,,,,,,,,,,,,,,,,,,,,,,,,,,,,,,,,,,,,,,,,,
295363,2022-12-05_22h41.00.486,vts_reward_expectancy_bt,2022.2.4,MacIntel,60.0024001,Chrome,1440,900,,,l,3.1091,1,590,2,2,7,31,4,1,0,1,0,0,0,0,1,0,circle,hexagon,,,,,,,,,,,,,,,,,,,,,,,,,,,,,,,,,,,,,,,,,,,,,,,,,,,,,,
295363,2022-12-05_22h41.00.486,vts_reward_expectancy_bt,2022.2.4,MacIntel,60.0024001,Chrome,1440,900,,,a,0.8326,1,591,2,2,8,32,0,1,1,0,0,0,0,1,0,0,triangle,circle,,,,,,,,,,,,,,,,,,,,,,,,,,,,,,,,,,,,,,,,,,,,,,,,,,,,,,
295363,2022-12-05_22h41.00.486,vts_reward_expectancy_bt,2022.2.4,MacIntel,60.0024001,Chrome,1440,900,,,l,1.2738,10,601,2,2,9,33,3,1,0,1,0,0,1,0,0,0,circle,triangle,,,,,,,,,,,,,,,,,,,,,,,,,,,,,,,,,,,,,,,,,,,,,,,,,,,,,,
295363,2022-12-05_22h41.00.486,vts_reward_expectancy_bt,2022.2.4,MacIntel,60.0024001,Chrome,1440,900,,,a,0.7027,1,602,2,2,10,34,7,1,0,0,1,0,0,1,0,0,hexagon,circle,,,,,,,,,,,,,,,,,,,,,,,,,,,,,,,,,,,,,,,,,,,,,,,,,,,,,,
295363,2022-12-05_22h41.00.486,vts_reward_expectancy_bt,2022.2.4,MacIntel,60.0024001,Chrome,1440,900,,,a,0.9799,1,603,2,2,11,35,9,1,0,0,0,1,1,0,0,0,star,triangle,,,,,,,,,,,,,,,,,,,,,,,,,,,,,,,,,,,,,,,,,,,,,,,,,,,,,,
295363,2022-12-05_22h41.00.486,vts_reward_expectancy_bt,2022.2.4,MacIntel,60.0024001,Chrome,1440,900,,,,,,,,,,,,,,,,,,,,,,,174,D,circle,0,0,,0,0,0,0,0,1,,,,,,,,,,,,,,,,,,,,,,,,,,,,,,,,,,,,,,,,,,
295363,2022-12-05_22h41.00.486,vts_reward_expectancy_bt,2022.2.4,MacIntel,60.0024001,Chrome,1440,900,,,,,,,,,,,,,,,,,,,,,,,160,S,triangle,1,1,f,0,1,0,1,0,1,1.9613,,,,,,,,,,,,,,,,,,,,,,,,,,,,,,,,,,,,,,,,,
295363,2022-12-05_22h41.00.486,vts_reward_expectancy_bt,2022.2.4,MacIntel,60.0024001,Chrome,1440,900,,,,,,,,,,,,,,,,,,,,,,,146,B,hexagon,1,0,d,0,2,0,2,0,1,0.7879,,,,,,,,,,,,,,,,,,,,,,,,,,,,,,,,,,,,,,,,,
295363,2022-12-05_22h41.00.486,vts_reward_expectancy_bt,2022.2.4,MacIntel,60.0024001,Chrome,1440,900,,,,,,,,,,,,,,,,,,,,,,,132,H,star,1,0,d,0,3,0,3,0,1,0.8133,,,,,,,,,,,,,,,,,,,,,,,,,,,,,,,,,,,,,,,,,
295363,2022-12-05_22h41.00.486,vts_reward_expectancy_bt,2022.2.4,MacIntel,60.0024001,Chrome,1440,900,,,,,,,,,,,,,,,,,,,,,,,181,W,circle,1,0,f,0,4,0,4,0,1,0.7642,,,,,,,,,,,,,,,,,,,,,,,,,,,,,,,,,,,,,,,,,
295363,2022-12-05_22h41.00.486,vts_reward_expectancy_bt,2022.2.4,MacIntel,60.0024001,Chrome,1440,900,,,,,,,,,,,,,,,,,,,,,,,167,U,triangle,1,0,f,0,5,0,5,0,1,1.2279,,,,,,,,,,,,,,,,,,,,,,,,,,,,,,,,,,,,,,,,,
295363,2022-12-05_22h41.00.486,vts_reward_expectancy_bt,2022.2.4,MacIntel,60.0024001,Chrome,1440,900,,,,,,,,,,,,,,,,,,,,,,,139,F,hexagon,1,0,d,0,6,0,6,0,1,0.8984,,,,,,,,,,,,,,,,,,,,,,,,,,,,,,,,,,,,,,,,,
295363,2022-12-05_22h41.00.486,vts_reward_expectancy_bt,2022.2.4,MacIntel,60.0024001,Chrome,1440,900,,,,,,,,,,,,,,,,,,,,,,,125,Y,star,1,0,d,0,7,0,7,0,1,0.8953,,,,,,,,,,,,,,,,,,,,,,,,,,,,,,,,,,,,,,,,,
295363,2022-12-05_22h41.00.486,vts_reward_expectancy_bt,2022.2.4,MacIntel,60.0024001,Chrome,1440,900,,,,,,,,,,,,,,,,,,,,,,,174,D,circle,1,0,f,0,8,0,8,0,1,1.2668,,,,,,,,,,,,,,,,,,,,,,,,,,,,,,,,,,,,,,,,,
295363,2022-12-05_22h41.00.486,vts_reward_expectancy_bt,2022.2.4,MacIntel,60.0024001,Chrome,1440,900,,,,,,,,,,,,,,,,,,,,,,,160,S,hexagon,1,0,f,0,9,0,9,0,1,0.6946,,,,,,,,,,,,,,,,,,,,,,,,,,,,,,,,,,,,,,,,,
295363,2022-12-05_22h41.00.486,vts_reward_expectancy_bt,2022.2.4,MacIntel,60.0024001,Chrome,1440,900,,,,,,,,,,,,,,,,,,,,,,,174,S,circle,1,0,,1,,,,,,,k,1.6773,0,0,0,0,1,,,,,,,,,,,,,,,,,,,,,,,,,,,,,,,,,,
295363,2022-12-05_22h41.00.486,vts_reward_expectancy_bt,2022.2.4,MacIntel,60.0024001,Chrome,1440,900,,,,,,,,,,,,,,,,,,,,,,,139,Y,star,1,0,,1,,,,,,,k,0.8634,1,0,1,0,1,,,,,,,,,,,,,,,,,,,,,,,,,,,,,,,,,,
295363,2022-12-05_22h41.00.486,vts_reward_expectancy_bt,2022.2.4,MacIntel,60.0024001,Chrome,1440,900,,,,,,,,,,,,,,,,,,,,,,,125,B,hexagon,1,0,,1,,,,,,,j,0.549,2,0,2,0,1,,,,,,,,,,,,,,,,,,,,,,,,,,,,,,,,,,
295363,2022-12-05_22h41.00.486,vts_reward_expectancy_bt,2022.2.4,MacIntel,60.0024001,Chrome,1440,900,,,,,,,,,,,,,,,,,,,,,,,132,F,triangle,1,0,,1,,,,,,,j,0.6214,3,0,3,0,1,,,,,,,,,,,,,,,,,,,,,,,,,,,,,,,,,,
295363,2022-12-05_22h41.00.486,vts_reward_expectancy_bt,2022.2.4,MacIntel,60.0024001,Chrome,1440,900,,,,,,,,,,,,,,,,,,,,,,,146,D,circle,1,0,,1,,,,,,,j,1.1192,4,0,4,0,1,,,,,,,,,,,,,,,,,,,,,,,,,,,,,,,,,,
295363,2022-12-05_22h41.00.486,vts_reward_expectancy_bt,2022.2.4,MacIntel,60.0024001,Chrome,1440,900,,,,,,,,,,,,,,,,,,,,,,,181,U,star,1,0,,1,,,,,,,k,0.7141,5,0,5,0,1,,,,,,,,,,,,,,,,,,,,,,,,,,,,,,,,,,
295363,2022-12-05_22h41.00.486,vts_reward_expectancy_bt,2022.2.4,MacIntel,60.0024001,Chrome,1440,900,,,,,,,,,,,,,,,,,,,,,,,160,W,hexagon,1,0,,1,,,,,,,k,1.0514,6,0,6,0,1,,,,,,,,,,,,,,,,,,,,,,,,,,,,,,,,,,
295363,2022-12-05_22h41.00.486,vts_reward_expectancy_bt,2022.2.4,MacIntel,60.0024001,Chrome,1440,900,,,,,,,,,,,,,,,,,,,,,,,167,H,triangle,1,0,,1,,,,,,,j,0.9792,7,0,7,0,1,,,,,,,,,,,,,,,,,,,,,,,,,,,,,,,,,,
295363,2022-12-05_22h41.00.486,vts_reward_expectancy_bt,2022.2.4,MacIntel,60.0024001,Chrome,1440,900,,,,,,,,,,,,,,,,,,,,,,,174,S,circle,1,0,,1,,,,,,,k,0.6873,8,0,8,0,1,,,,,,,,,,,,,,,,,,,,,,,,,,,,,,,,,,
295363,2022-12-05_22h41.00.486,vts_reward_expectancy_bt,2022.2.4,MacIntel,60.0024001,Chrome,1440,900,,,,,,,,,,,,,,,,,,,,,,,139,Y,triangle,1,0,,1,,,,,,,k,0.57,9,0,9,0,1,,,,,,,,,,,,,,,,,,,,,,,,,,,,,,,,,,
295363,2022-12-05_22h41.00.486,vts_reward_expectancy_bt,2022.2.4,MacIntel,60.0024001,Chrome,1440,900,,,,,0,603,,,,,,,,,,,,,,,,,139,W,circle,1,0,,2,,,,,,,,,,,,,,-1,number,NA,d,2.1231,vtsPrac,0,0,0,0,1,,,,,,,,,,,,,,,,,,,,,,,
295363,2022-12-05_22h41.00.486,vts_reward_expectancy_bt,2022.2.4,MacIntel,60.0024001,Chrome,1440,900,,,,,0,603,,,,,,,,,,,,,,,,,174,Y,star,1,0,,2,,,,,,,,,,,,,,repeat,number,numRpt,f,1.6049,vtsPrac,1,0,1,0,1,,,,,,,,,,,,,,,,,,,,,,,
295363,2022-12-05_22h41.00.486,vts_reward_expectancy_bt,2022.2.4,MacIntel,60.0024001,Chrome,1440,900,,,,,0,603,,,,,,,,,,,,,,,,,160,D,circle,1,0,,2,,,,,,,,,,,,,,repeat,number,numRpt,f,1.5146,vtsPrac,2,0,2,0,1,,,,,,,,,,,,,,,,,,,,,,,
295363,2022-12-05_22h41.00.486,vts_reward_expectancy_bt,2022.2.4,MacIntel,60.0024001,Chrome,1440,900,,,,,0,603,,,,,,,,,,,,,,,,,167,U,star,1,0,,2,,,,,,,,,,,,,,repeat,number,numRpt,f,1.2326,vtsPrac,3,0,3,0,1,,,,,,,,,,,,,,,,,,,,,,,
295363,2022-12-05_22h41.00.486,vts_reward_expectancy_bt,2022.2.4,MacIntel,60.0024001,Chrome,1440,900,,,,,0,603,,,,,,,,,,,,,,,,,139,W,circle,1,0,,2,,,,,,,,,,,,,,repeat,number,numRpt,d,0.946,vtsPrac,4,0,4,0,1,,,,,,,,,,,,,,,,,,,,,,,
295363,2022-12-05_22h41.00.486,vts_reward_expectancy_bt,2022.2.4,MacIntel,60.0024001,Chrome,1440,900,,,,,0,603,,,,,,,,,,,,,,,,,174,Y,star,1,0,,2,,,,,,,,,,,,,,repeat,number,numRpt,f,1.4836,vtsPrac,5,0,5,0,1,,,,,,,,,,,,,,,,,,,,,,,
295363,2022-12-05_22h41.00.486,vts_reward_expectancy_bt,2022.2.4,MacIntel,60.0024001,Chrome,1440,900,,,,,0,603,,,,,,,,,,,,,,,,,160,D,star,1,0,,2,,,,,,,,,,,,,,repeat,number,numRpt,f,0.9095,vtsPrac,6,0,6,0,1,,,,,,,,,,,,,,,,,,,,,,,
295363,2022-12-05_22h41.00.486,vts_reward_expectancy_bt,2022.2.4,MacIntel,60.0024001,Chrome,1440,900,,,,,0,603,,,,,,,,,,,,,,,,,167,U,circle,1,0,,2,,,,,,,,,,,,,,repeat,number,numRpt,f,0.8033,vtsPrac,7,0,7,0,1,,,,,,,,,,,,,,,,,,,,,,,
295363,2022-12-05_22h41.00.486,vts_reward_expectancy_bt,2022.2.4,MacIntel,60.0024001,Chrome,1440,900,,,,,0,603,,,,,,,,,,,,,,,,,139,B,circle,1,0,,2,,,,,,,,,,,,,,repeat,number,numRpt,d,0.8596,vtsPrac,8,0,8,0,1,,,,,,,,,,,,,,,,,,,,,,,
295363,2022-12-05_22h41.00.486,vts_reward_expectancy_bt,2022.2.4,MacIntel,60.0024001,Chrome,1440,900,,,,,0,603,,,,,,,,,,,,,,,,,125,W,triangle,1,0,,2,,,,,,,,,,,,,,repeat,number,numRpt,d,1.0491,vtsPrac,9,0,9,0,1,,,,,,,,,,,,,,,,,,,,,,,
295363,2022-12-05_22h41.00.486,vts_reward_expectancy_bt,2022.2.4,MacIntel,60.0024001,Chrome,1440,900,,,,,0,603,,,,,,,,,,,,,,,,,174,F,triangle,1,0,,2,,,,,,,,,,,,,,repeat,number,numRpt,f,0.8777,vtsPrac,10,0,10,0,1,,,,,,,,,,,,,,,,,,,,,,,
295363,2022-12-05_22h41.00.486,vts_reward_expectancy_bt,2022.2.4,MacIntel,60.0024001,Chrome,1440,900,,,,,0,603,,,,,,,,,,,,,,,,,146,D,star,1,0,,2,,,,,,,,,,,,,,repeat,number,numRpt,d,1.5294,vtsPrac,11,0,11,0,1,,,,,,,,,,,,,,,,,,,,,,,
295363,2022-12-05_22h41.00.486,vts_reward_expectancy_bt,2022.2.4,MacIntel,60.0024001,Chrome,1440,900,,,,,0,603,,,,,,,,,,,,,,,,,174,S,star,1,0,,2,,,,,,,,,,,,,,repeat,number,numRpt,f,0.8816,vtsPrac,12,0,12,0,1,,,,,,,,,,,,,,,,,,,,,,,
295363,2022-12-05_22h41.00.486,vts_reward_expectancy_bt,2022.2.4,MacIntel,60.0024001,Chrome,1440,900,,,,,0,603,,,,,,,,,,,,,,,,,160,Y,hexagon,1,0,,2,,,,,,,,,,,,,,switch,letter,lettSwt,k,1.2444,vtsPrac,13,0,13,0,1,,,,,,,,,,,,,,,,,,,,,,,
295363,2022-12-05_22h41.00.486,vts_reward_expectancy_bt,2022.2.4,MacIntel,60.0024001,Chrome,1440,900,,,,,0,603,,,,,,,,,,,,,,,,,181,D,circle,1,0,,2,,,,,,,,,,,,,,repeat,letter,lettRpt,j,0.914,vtsPrac,14,0,14,0,1,,,,,,,,,,,,,,,,,,,,,,,
295363,2022-12-05_22h41.00.486,vts_reward_expectancy_bt,2022.2.4,MacIntel,60.0024001,Chrome,1440,900,,,,,0,603,,,,,,,,,,,,,,,,,146,B,hexagon,1,0,,2,,,,,,,,,,,,,,repeat,letter,lettRpt,j,0.8026,vtsPrac,15,0,15,0,1,,,,,,,,,,,,,,,,,,,,,,,
295363,2022-12-05_22h41.00.486,vts_reward_expectancy_bt,2022.2.4,MacIntel,60.0024001,Chrome,1440,900,,,,,0,603,,,,,,,,,,,,,,,,,132,B,hexagon,1,0,,2,,,,,,,,,,,,,,repeat,letter,lettRpt,j,0.5737,vtsPrac,16,0,16,0,1,,,,,,,,,,,,,,,,,,,,,,,
295363,2022-12-05_22h41.00.486,vts_reward_expectancy_bt,2022.2.4,MacIntel,60.0024001,Chrome,1440,900,,,,,0,603,,,,,,,,,,,,,,,,,181,W,star,1,0,,2,,,,,,,,,,,,,,repeat,letter,lettRpt,k,0.649,vtsPrac,17,0,17,0,1,,,,,,,,,,,,,,,,,,,,,,,
295363,2022-12-05_22h41.00.486,vts_reward_expectancy_bt,2022.2.4,MacIntel,60.0024001,Chrome,1440,900,,,,,0,603,,,,,,,,,,,,,,,,,125,U,hexagon,1,0,,2,,,,,,,,,,,,,,repeat,letter,lettRpt,k,0.7755,vtsPrac,18,0,18,0,1,,,,,,,,,,,,,,,,,,,,,,,
295363,2022-12-05_22h41.00.486,vts_reward_expectancy_bt,2022.2.4,MacIntel,60.0024001,Chrome,1440,900,,,,,0,603,,,,,,,,,,,,,,,,,160,S,star,1,0,,2,,,,,,,,,,,,,,repeat,letter,lettRpt,k,0.7645,vtsPrac,19,0,19,0,1,,,,,,,,,,,,,,,,,,,,,,,
295363,2022-12-05_22h41.00.486,vts_reward_expectancy_bt,2022.2.4,MacIntel,60.0024001,Chrome,1440,900,,,,,0,603,,,,,,,,,,,,,,,,,160,S,hexagon,1,0,,2,,,,,,,,,,,,,,repeat,letter,lettRpt,k,0.7366,vtsPrac,20,0,20,0,1,,,,,,,,,,,,,,,,,,,,,,,
295363,2022-12-05_22h41.00.486,vts_reward_expectancy_bt,2022.2.4,MacIntel,60.0024001,Chrome,1440,900,,,,,0,603,,,,,,,,,,,,,,,,,174,W,star,1,0,,2,,,,,,,,,,,,,,repeat,letter,lettRpt,k,0.6006,vtsPrac,21,0,21,0,1,,,,,,,,,,,,,,,,,,,,,,,
295363,2022-12-05_22h41.00.486,vts_reward_expectancy_bt,2022.2.4,MacIntel,60.0024001,Chrome,1440,900,,,,,0,603,,,,,,,,,,,,,,,,,181,H,triangle,1,0,,2,,,,,,,,,,,,,,repeat,letter,lettRpt,j,0.8447,vtsPrac,22,0,22,0,1,,,,,,,,,,,,,,,,,,,,,,,
295363,2022-12-05_22h41.00.486,vts_reward_expectancy_bt,2022.2.4,MacIntel,60.0024001,Chrome,1440,900,,,,,0,603,,,,,,,,,,,,,,,,,132,U,circle,1,0,,2,,,,,,,,,,,,,,repeat,letter,lettRpt,k,0.9323,vtsPrac,23,0,23,0,1,,,,,,,,,,,,,,,,,,,,,,,
295363,2022-12-05_22h41.00.486,vts_reward_expectancy_bt,2022.2.4,MacIntel,60.0024001,Chrome,1440,900,,,,,0,603,,,,,,,,,,,,,,,,,160,W,triangle,1,0,,2,,,,,,,,,,,,,,repeat,letter,lettRpt,k,0.6007,vtsPrac,24,0,24,0,1,,,,,,,,,,,,,,,,,,,,,,,
295363,2022-12-05_22h41.00.486,vts_reward_expectancy_bt,2022.2.4,MacIntel,60.0024001,Chrome,1440,900,,,,,0,603,,,,,,,,,,,,,,,,,146,B,hexagon,1,0,,2,,,,,,,,,,,,,,repeat,letter,lettRpt,j,0.7995,vtsPrac,25,0,25,0,1,,,,,,,,,,,,,,,,,,,,,,,
295363,2022-12-05_22h41.00.486,vts_reward_expectancy_bt,2022.2.4,MacIntel,60.0024001,Chrome,1440,900,,,,,0,603,,,,,,,,,,,,,,,,,167,F,triangle,1,0,,2,,,,,,,,,,,,,,repeat,letter,lettRpt,j,1.0957,vtsPrac,26,0,26,0,1,,,,,,,,,,,,,,,,,,,,,,,
295363,2022-12-05_22h41.00.486,vts_reward_expectancy_bt,2022.2.4,MacIntel,60.0024001,Chrome,1440,900,,,,,0,603,,,,,,,,,,,,,,,,,174,D,star,1,0,,2,,,,,,,,,,,,,,switch,number,numSwt,f,0.7029,vtsPrac,27,0,27,0,1,,,,,,,,,,,,,,,,,,,,,,,
295363,2022-12-05_22h41.00.486,vts_reward_expectancy_bt,2022.2.4,MacIntel,60.0024001,Chrome,1440,900,,,,,0,603,,,,,,,,,,,,,,,,,167,F,hexagon,1,0,,2,,,,,,,,,,,,,,repeat,number,numRpt,f,0.782,vtsPrac,28,0,28,0,1,,,,,,,,,,,,,,,,,,,,,,,
295363,2022-12-05_22h41.00.486,vts_reward_expectancy_bt,2022.2.4,MacIntel,60.0024001,Chrome,1440,900,,,,,0,603,,,,,,,,,,,,,,,,,139,D,star,1,0,,2,,,,,,,,,,,,,,repeat,number,numRpt,d,0.5095,vtsPrac,29,0,29,0,1,,,,,,,,,,,,,,,,,,,,,,,
295363,2022-12-05_22h41.00.486,vts_reward_expectancy_bt,2022.2.4,MacIntel,60.0024001,Chrome,1440,900,,,,,0,603,,,,,,,,,,,,,,,,,132,U,circle,1,0,,2,,,,,,,,,,,,,,repeat,number,numRpt,d,1.1099,vtsPrac,30,0,30,0,1,,,,,,,,,,,,,,,,,,,,,,,
295363,2022-12-05_22h41.00.486,vts_reward_expectancy_bt,2022.2.4,MacIntel,60.0024001,Chrome,1440,900,,,,,0,603,,,,,,,,,,,,,,,,,181,S,star,1,0,,2,,,,,,,,,,,,,,repeat,number,numRpt,f,0.7879,vtsPrac,31,0,31,0,1,,,,,,,,,,,,,,,,,,,,,,,
295363,2022-12-05_22h41.00.486,vts_reward_expectancy_bt,2022.2.4,MacIntel,60.0024001,Chrome,1440,900,,,,,0,603,,,,,,,,,,,,,,,,,146,B,circle,1,0,,3,,,,,,,,,,,,,,repeat,number,numRpt,d,1.2562,vtsPrac,0,0,0,0,1,,,,,,,,,,,,,,,,,,,,,,,
295363,2022-12-05_22h41.00.486,vts_reward_expectancy_bt,2022.2.4,MacIntel,60.0024001,Chrome,1440,900,,,,,0,603,,,,,,,,,,,,,,,,,181,U,hexagon,1,0,,3,,,,,,,,,,,,,,repeat,number,numRpt,f,1.3091,vtsPrac,1,0,1,0,1,,,,,,,,,,,,,,,,,,,,,,,
295363,2022-12-05_22h41.00.486,vts_reward_expectancy_bt,2022.2.4,MacIntel,60.0024001,Chrome,1440,900,,,,,0,603,,,,,,,,,,,,,,,,,125,S,circle,1,0,,3,,,,,,,,,,,,,,repeat,number,numRpt,d,1.1124,vtsPrac,2,0,2,0,1,,,,,,,,,,,,,,,,,,,,,,,
295363,2022-12-05_22h41.00.486,vts_reward_expectancy_bt,2022.2.4,MacIntel,60.0024001,Chrome,1440,900,,,,,0,603,,,,,,,,,,,,,,,,,167,W,hexagon,1,0,,3,,,,,,,,,,,,,,switch,letter,lettSwt,k,0.8206,vtsPrac,3,0,3,0,1,,,,,,,,,,,,,,,,,,,,,,,
295363,2022-12-05_22h41.00.486,vts_reward_expectancy_bt,2022.2.4,MacIntel,60.0024001,Chrome,1440,900,,,,,0,603,,,,,,,,,,,,,,,,,146,B,triangle,1,0,,3,,,,,,,,,,,,,,repeat,letter,lettRpt,j,0.8005,vtsPrac,4,0,4,0,1,,,,,,,,,,,,,,,,,,,,,,,
295363,2022-12-05_22h41.00.486,vts_reward_expectancy_bt,2022.2.4,MacIntel,60.0024001,Chrome,1440,900,,,,,0,603,,,,,,,,,,,,,,,,,181,U,hexagon,1,0,,3,,,,,,,,,,,,,,repeat,letter,lettRpt,k,0.8982,vtsPrac,5,0,5,0,1,,,,,,,,,,,,,,,,,,,,,,,
295363,2022-12-05_22h41.00.486,vts_reward_expectancy_bt,2022.2.4,MacIntel,60.0024001,Chrome,1440,900,,,,,0,603,,,,,,,,,,,,,,,,,125,S,triangle,1,0,,3,,,,,,,,,,,,,,repeat,letter,lettRpt,k,1.3645,vtsPrac,6,0,6,0,1,,,,,,,,,,,,,,,,,,,,,,,
295363,2022-12-05_22h41.00.486,vts_reward_expectancy_bt,2022.2.4,MacIntel,60.0024001,Chrome,1440,900,,,,,0,603,,,,,,,,,,,,,,,,,167,W,hexagon,1,0,,3,,,,,,,,,,,,,,repeat,letter,lettRpt,k,0.9794,vtsPrac,7,0,7,0,1,,,,,,,,,,,,,,,,,,,,,,,
295363,2022-12-05_22h41.00.486,vts_reward_expectancy_bt,2022.2.4,MacIntel,60.0024001,Chrome,1440,900,,,,,0,603,,,,,,,,,,,,,,,,,181,S,hexagon,1,0,,3,,,,,,,,,,,,,,repeat,letter,lettRpt,k,0.846,vtsPrac,8,0,8,0,1,,,,,,,,,,,,,,,,,,,,,,,
295363,2022-12-05_22h41.00.486,vts_reward_expectancy_bt,2022.2.4,MacIntel,60.0024001,Chrome,1440,900,,,,,0,603,,,,,,,,,,,,,,,,,132,Y,circle,1,0,,3,,,,,,,,,,,,,,repeat,letter,lettRpt,k,0.7685,vtsPrac,9,0,9,0,1,,,,,,,,,,,,,,,,,,,,,,,
295363,2022-12-05_22h41.00.486,vts_reward_expectancy_bt,2022.2.4,MacIntel,60.0024001,Chrome,1440,900,,,,,0,603,,,,,,,,,,,,,,,,,167,W,star,1,0,,3,,,,,,,,,,,,,,repeat,letter,lettRpt,k,0.7933,vtsPrac,10,0,10,0,1,,,,,,,,,,,,,,,,,,,,,,,
295363,2022-12-05_22h41.00.486,vts_reward_expectancy_bt,2022.2.4,MacIntel,60.0024001,Chrome,1440,900,,,,,0,603,,,,,,,,,,,,,,,,,146,H,hexagon,1,0,,3,,,,,,,,,,,,,,repeat,letter,lettRpt,j,0.8649,vtsPrac,11,0,11,0,1,,,,,,,,,,,,,,,,,,,,,,,
295363,2022-12-05_22h41.00.486,vts_reward_expectancy_bt,2022.2.4,MacIntel,60.0024001,Chrome,1440,900,,,,,0,603,,,,,,,,,,,,,,,,,139,H,circle,1,0,,3,,,,,,,,,,,,,,repeat,letter,lettRpt,j,0.765,vtsPrac,12,0,12,0,1,,,,,,,,,,,,,,,,,,,,,,,
295363,2022-12-05_22h41.00.486,vts_reward_expectancy_bt,2022.2.4,MacIntel,60.0024001,Chrome,1440,900,,,,,0,603,,,,,,,,,,,,,,,,,174,S,hexagon,1,0,,3,,,,,,,,,,,,,,repeat,letter,lettRpt,k,1.0188,vtsPrac,13,0,13,0,1,,,,,,,,,,,,,,,,,,,,,,,
295363,2022-12-05_22h41.00.486,vts_reward_expectancy_bt,2022.2.4,MacIntel,60.0024001,Chrome,1440,900,,,,,0,603,,,,,,,,,,,,,,,,,181,Y,star,1,0,,3,,,,,,,,,,,,,,repeat,letter,lettRpt,k,0.5824,vtsPrac,14,0,14,0,1,,,,,,,,,,,,,,,,,,,,,,,
295363,2022-12-05_22h41.00.486,vts_reward_expectancy_bt,2022.2.4,MacIntel,60.0024001,Chrome,1440,900,,,,,0,603,,,,,,,,,,,,,,,,,132,W,hexagon,1,0,,3,,,,,,,,,,,,,,switch,number,numSwt,d,1.5344,vtsPrac,15,0,15,0,1,,,,,,,,,,,,,,,,,,,,,,,
295363,2022-12-05_22h41.00.486,vts_reward_expectancy_bt,2022.2.4,MacIntel,60.0024001,Chrome,1440,900,,,,,0,603,,,,,,,,,,,,,,,,,125,B,triangle,1,0,,3,,,,,,,,,,,,,,repeat,number,numRpt,d,1.4539,vtsPrac,16,0,16,0,1,,,,,,,,,,,,,,,,,,,,,,,
295363,2022-12-05_22h41.00.486,vts_reward_expectancy_bt,2022.2.4,MacIntel,60.0024001,Chrome,1440,900,,,,,0,603,,,,,,,,,,,,,,,,,139,F,circle,1,0,,3,,,,,,,,,,,,,,repeat,number,numRpt,d,0.5793,vtsPrac,17,0,17,0,1,,,,,,,,,,,,,,,,,,,,,,,
295363,2022-12-05_22h41.00.486,vts_reward_expectancy_bt,2022.2.4,MacIntel,60.0024001,Chrome,1440,900,,,,,0,603,,,,,,,,,,,,,,,,,132,W,triangle,1,0,,3,,,,,,,,,,,,,,repeat,number,numRpt,d,0.6354,vtsPrac,18,0,18,0,1,,,,,,,,,,,,,,,,,,,,,,,
295363,2022-12-05_22h41.00.486,vts_reward_expectancy_bt,2022.2.4,MacIntel,60.0024001,Chrome,1440,900,,,,,0,603,,,,,,,,,,,,,,,,,146,H,star,1,0,,3,,,,,,,,,,,,,,repeat,number,numRpt,d,0.7946,vtsPrac,19,0,19,0,1,,,,,,,,,,,,,,,,,,,,,,,
295363,2022-12-05_22h41.00.486,vts_reward_expectancy_bt,2022.2.4,MacIntel,60.0024001,Chrome,1440,900,,,,,0,603,,,,,,,,,,,,,,,,,139,Y,hexagon,1,0,,3,,,,,,,,,,,,,,repeat,number,numRpt,d,0.6165,vtsPrac,20,0,20,0,1,,,,,,,,,,,,,,,,,,,,,,,
295363,2022-12-05_22h41.00.486,vts_reward_expectancy_bt,2022.2.4,MacIntel,60.0024001,Chrome,1440,900,,,,,0,603,,,,,,,,,,,,,,,,,125,W,triangle,1,0,,3,,,,,,,,,,,,,,repeat,number,numRpt,d,0.6656,vtsPrac,21,0,21,0,1,,,,,,,,,,,,,,,,,,,,,,,
295363,2022-12-05_22h41.00.486,vts_reward_expectancy_bt,2022.2.4,MacIntel,60.0024001,Chrome,1440,900,,,,,0,603,,,,,,,,,,,,,,,,,167,H,hexagon,1,0,,3,,,,,,,,,,,,,,repeat,number,numRpt,f,0.6634,vtsPrac,22,0,22,0,1,,,,,,,,,,,,,,,,,,,,,,,
295363,2022-12-05_22h41.00.486,vts_reward_expectancy_bt,2022.2.4,MacIntel,60.0024001,Chrome,1440,900,,,,,0,603,,,,,,,,,,,,,,,,,160,D,star,1,0,,3,,,,,,,,,,,,,,switch,letter,lettSwt,j,1.0653,vtsPrac,23,0,23,0,1,,,,,,,,,,,,,,,,,,,,,,,
295363,2022-12-05_22h41.00.486,vts_reward_expectancy_bt,2022.2.4,MacIntel,60.0024001,Chrome,1440,900,,,,,0,603,,,,,,,,,,,,,,,,,125,S,hexagon,1,0,,3,,,,,,,,,,,,,,repeat,letter,lettRpt,k,0.7154,vtsPrac,24,0,24,0,1,,,,,,,,,,,,,,,,,,,,,,,
295363,2022-12-05_22h41.00.486,vts_reward_expectancy_bt,2022.2.4,MacIntel,60.0024001,Chrome,1440,900,,,,,0,603,,,,,,,,,,,,,,,,,160,D,star,1,0,,3,,,,,,,,,,,,,,switch,number,numSwt,f,1.0473,vtsPrac,25,0,25,0,1,,,,,,,,,,,,,,,,,,,,,,,
295363,2022-12-05_22h41.00.486,vts_reward_expectancy_bt,2022.2.4,MacIntel,60.0024001,Chrome,1440,900,,,,,0,603,,,,,,,,,,,,,,,,,181,H,star,1,0,,3,,,,,,,,,,,,,,repeat,number,numRpt,f,0.8954,vtsPrac,26,0,26,0,1,,,,,,,,,,,,,,,,,,,,,,,
295363,2022-12-05_22h41.00.486,vts_reward_expectancy_bt,2022.2.4,MacIntel,60.0024001,Chrome,1440,900,,,,,0,603,,,,,,,,,,,,,,,,,146,F,hexagon,1,0,,3,,,,,,,,,,,,,,repeat,number,numRpt,d,0.978,vtsPrac,27,0,27,0,1,,,,,,,,,,,,,,,,,,,,,,,
295363,2022-12-05_22h41.00.486,vts_reward_expectancy_bt,2022.2.4,MacIntel,60.0024001,Chrome,1440,900,,,,,0,603,,,,,,,,,,,,,,,,,160,H,circle,1,0,,3,,,,,,,,,,,,,,repeat,number,numRpt,f,1.3311,vtsPrac,28,0,28,0,1,,,,,,,,,,,,,,,,,,,,,,,
295363,2022-12-05_22h41.00.486,vts_reward_expectancy_bt,2022.2.4,MacIntel,60.0024001,Chrome,1440,900,,,,,0,603,,,,,,,,,,,,,,,,,174,Y,star,1,0,,3,,,,,,,,,,,,,,repeat,number,numRpt,f,0.8292,vtsPrac,29,0,29,0,1,,,,,,,,,,,,,,,,,,,,,,,
295363,2022-12-05_22h41.00.486,vts_reward_expectancy_bt,2022.2.4,MacIntel,60.0024001,Chrome,1440,900,,,,,0,603,,,,,,,,,,,,,,,,,139,U,triangle,1,0,,3,,,,,,,,,,,,,,repeat,number,numRpt,d,1.0015,vtsPrac,30,0,30,0,1,,,,,,,,,,,,,,,,,,,,,,,
295363,2022-12-05_22h41.00.486,vts_reward_expectancy_bt,2022.2.4,MacIntel,60.0024001,Chrome,1440,900,,,,,0,603,,,,,,,,,,,,,,,,,146,D,hexagon,1,0,,3,,,,,,,,,,,,,,repeat,number,numRpt,d,0.8816,vtsPrac,31,0,31,0,1,,,,,,,,,,,,,,,,,,,,,,,
295363,2022-12-05_22h41.00.486,vts_reward_expectancy_bt,2022.2.4,MacIntel,60.0024001,Chrome,1440,900,,,,,0,603,,,,,,,,,,,,,,,,,174,H,circle,1,0,,4,,,,,,,,,,,,,,repeat,number,numRpt,f,1.1108,vtsPrac,0,0,0,0,1,,,,,,,,,,,,,,,,,,,,,,,
295363,2022-12-05_22h41.00.486,vts_reward_expectancy_bt,2022.2.4,MacIntel,60.0024001,Chrome,1440,900,,,,,0,603,,,,,,,,,,,,,,,,,167,U,triangle,1,0,,4,,,,,,,,,,,,,,switch,letter,lettSwt,k,1.2094,vtsPrac,1,0,1,0,1,,,,,,,,,,,,,,,,,,,,,,,
295363,2022-12-05_22h41.00.486,vts_reward_expectancy_bt,2022.2.4,MacIntel,60.0024001,Chrome,1440,900,,,,,0,603,,,,,,,,,,,,,,,,,132,B,circle,1,0,,4,,,,,,,,,,,,,,switch,number,numSwt,d,0.9987,vtsPrac,2,0,2,0,1,,,,,,,,,,,,,,,,,,,,,,,
295363,2022-12-05_22h41.00.486,vts_reward_expectancy_bt,2022.2.4,MacIntel,60.0024001,Chrome,1440,900,,,,,0,603,,,,,,,,,,,,,,,,,160,D,triangle,1,0,,4,,,,,,,,,,,,,,switch,letter,lettSwt,j,0.9925,vtsPrac,3,0,3,0,1,,,,,,,,,,,,,,,,,,,,,,,
295363,2022-12-05_22h41.00.486,vts_reward_expectancy_bt,2022.2.4,MacIntel,60.0024001,Chrome,1440,900,,,,,0,603,,,,,,,,,,,,,,,,,174,H,triangle,1,0,,4,,,,,,,,,,,,,,switch,number,numSwt,f,0.8137,vtsPrac,4,0,4,0,1,,,,,,,,,,,,,,,,,,,,,,,
295363,2022-12-05_22h41.00.486,vts_reward_expectancy_bt,2022.2.4,MacIntel,60.0024001,Chrome,1440,900,,,,,0,603,,,,,,,,,,,,,,,,,167,U,circle,1,0,,4,,,,,,,,,,,,,,switch,letter,lettSwt,k,0.671,vtsPrac,5,0,5,0,1,,,,,,,,,,,,,,,,,,,,,,,
295363,2022-12-05_22h41.00.486,vts_reward_expectancy_bt,2022.2.4,MacIntel,60.0024001,Chrome,1440,900,,,,,0,603,,,,,,,,,,,,,,,,,132,B,circle,1,0,,4,,,,,,,,,,,,,,switch,number,numSwt,d,0.9263,vtsPrac,6,0,6,0,1,,,,,,,,,,,,,,,,,,,,,,,
295363,2022-12-05_22h41.00.486,vts_reward_expectancy_bt,2022.2.4,MacIntel,60.0024001,Chrome,1440,900,,,,,0,603,,,,,,,,,,,,,,,,,160,D,triangle,1,0,,4,,,,,,,,,,,,,,switch,letter,lettSwt,j,0.8506,vtsPrac,7,0,7,0,1,,,,,,,,,,,,,,,,,,,,,,,
295363,2022-12-05_22h41.00.486,vts_reward_expectancy_bt,2022.2.4,MacIntel,60.0024001,Chrome,1440,900,,,,,0,603,,,,,,,,,,,,,,,,,181,F,hexagon,1,0,,4,,,,,,,,,,,,,,switch,number,numSwt,f,0.8644,vtsPrac,8,0,8,0,1,,,,,,,,,,,,,,,,,,,,,,,
295363,2022-12-05_22h41.00.486,vts_reward_expectancy_bt,2022.2.4,MacIntel,60.0024001,Chrome,1440,900,,,,,0,603,,,,,,,,,,,,,,,,,160,B,triangle,1,0,,4,,,,,,,,,,,,,,switch,letter,lettSwt,j,0.6283,vtsPrac,9,0,9,0,1,,,,,,,,,,,,,,,,,,,,,,,
295363,2022-12-05_22h41.00.486,vts_reward_expectancy_bt,2022.2.4,MacIntel,60.0024001,Chrome,1440,900,,,,,0,603,,,,,,,,,,,,,,,,,139,D,triangle,1,0,,4,,,,,,,,,,,,,,switch,number,numSwt,d,0.8269,vtsPrac,10,0,10,0,1,,,,,,,,,,,,,,,,,,,,,,,
295363,2022-12-05_22h41.00.486,vts_reward_expectancy_bt,2022.2.4,MacIntel,60.0024001,Chrome,1440,900,,,,,0,603,,,,,,,,,,,,,,,,,174,H,hexagon,0,0,,4,,,,,,,,,,,,,,switch,letter,NA,k,1.2624,vtsPrac,11,0,11,0,1,,,,,,,,,,,,,,,,,,,,,,,
295363,2022-12-05_22h41.00.486,vts_reward_expectancy_bt,2022.2.4,MacIntel,60.0024001,Chrome,1440,900,,,,,0,603,,,,,,,,,,,,,,,,,181,W,circle,1,1,,4,,,,,,,,,,,,,,switch,number,numSwt,f,1.4508,vtsPrac,12,0,12,0,1,,,,,,,,,,,,,,,,,,,,,,,
295363,2022-12-05_22h41.00.486,vts_reward_expectancy_bt,2022.2.4,MacIntel,60.0024001,Chrome,1440,900,,,,,0,603,,,,,,,,,,,,,,,,,146,F,star,1,0,,4,,,,,,,,,,,,,,switch,letter,lettSwt,j,0.8213,vtsPrac,13,0,13,0,1,,,,,,,,,,,,,,,,,,,,,,,
295363,2022-12-05_22h41.00.486,vts_reward_expectancy_bt,2022.2.4,MacIntel,60.0024001,Chrome,1440,900,,,,,0,603,,,,,,,,,,,,,,,,,139,Y,hexagon,1,0,,4,,,,,,,,,,,,,,switch,number,numSwt,d,1.0163,vtsPrac,14,0,14,0,1,,,,,,,,,,,,,,,,,,,,,,,
295363,2022-12-05_22h41.00.486,vts_reward_expectancy_bt,2022.2.4,MacIntel,60.0024001,Chrome,1440,900,,,,,0,603,,,,,,,,,,,,,,,,,167,D,triangle,1,0,,4,,,,,,,,,,,,,,switch,letter,lettSwt,j,0.8376,vtsPrac,15,0,15,0,1,,,,,,,,,,,,,,,,,,,,,,,
295363,2022-12-05_22h41.00.486,vts_reward_expectancy_bt,2022.2.4,MacIntel,60.0024001,Chrome,1440,900,,,,,0,603,,,,,,,,,,,,,,,,,160,Y,circle,1,0,,4,,,,,,,,,,,,,,switch,number,numSwt,f,1.042,vtsPrac,16,0,16,0,1,,,,,,,,,,,,,,,,,,,,,,,
295363,2022-12-05_22h41.00.486,vts_reward_expectancy_bt,2022.2.4,MacIntel,60.0024001,Chrome,1440,900,,,,,0,603,,,,,,,,,,,,,,,,,132,F,triangle,1,0,,4,,,,,,,,,,,,,,switch,letter,lettSwt,j,1.0303,vtsPrac,17,0,17,0,1,,,,,,,,,,,,,,,,,,,,,,,
295363,2022-12-05_22h41.00.486,vts_reward_expectancy_bt,2022.2.4,MacIntel,60.0024001,Chrome,1440,900,,,,,0,603,,,,,,,,,,,,,,,,,174,H,star,1,0,,4,,,,,,,,,,,,,,switch,number,numSwt,f,0.9524,vtsPrac,18,0,18,0,1,,,,,,,,,,,,,,,,,,,,,,,
295363,2022-12-05_22h41.00.486,vts_reward_expectancy_bt,2022.2.4,MacIntel,60.0024001,Chrome,1440,900,,,,,0,603,,,,,,,,,,,,,,,,,125,U,circle,1,0,,4,,,,,,,,,,,,,,switch,letter,lettSwt,k,0.7387,vtsPrac,19,0,19,0,1,,,,,,,,,,,,,,,,,,,,,,,
295363,2022-12-05_22h41.00.486,vts_reward_expectancy_bt,2022.2.4,MacIntel,60.0024001,Chrome,1440,900,,,,,0,603,,,,,,,,,,,,,,,,,125,H,circle,1,0,,4,,,,,,,,,,,,,,switch,number,numSwt,d,1.0656,vtsPrac,20,0,20,0,1,,,,,,,,,,,,,,,,,,,,,,,
295363,2022-12-05_22h41.00.486,vts_reward_expectancy_bt,2022.2.4,MacIntel,60.0024001,Chrome,1440,900,,,,,0,603,,,,,,,,,,,,,,,,,139,D,triangle,1,0,,4,,,,,,,,,,,,,,switch,letter,lettSwt,j,0.8511,vtsPrac,21,0,21,0,1,,,,,,,,,,,,,,,,,,,,,,,
295363,2022-12-05_22h41.00.486,vts_reward_expectancy_bt,2022.2.4,MacIntel,60.0024001,Chrome,1440,900,,,,,0,603,,,,,,,,,,,,,,,,,146,F,star,1,0,,4,,,,,,,,,,,,,,repeat,letter,lettRpt,j,1.2814,vtsPrac,22,0,22,0,1,,,,,,,,,,,,,,,,,,,,,,,
295363,2022-12-05_22h41.00.486,vts_reward_expectancy_bt,2022.2.4,MacIntel,60.0024001,Chrome,1440,900,,,,,0,603,,,,,,,,,,,,,,,,,181,U,circle,1,0,,4,,,,,,,,,,,,,,switch,number,numSwt,f,0.8433,vtsPrac,23,0,23,0,1,,,,,,,,,,,,,,,,,,,,,,,
295363,2022-12-05_22h41.00.486,vts_reward_expectancy_bt,2022.2.4,MacIntel,60.0024001,Chrome,1440,900,,,,,0,603,,,,,,,,,,,,,,,,,174,Y,triangle,1,0,,4,,,,,,,,,,,,,,repeat,number,numRpt,f,1.1328,vtsPrac,24,0,24,0,1,,,,,,,,,,,,,,,,,,,,,,,
295363,2022-12-05_22h41.00.486,vts_reward_expectancy_bt,2022.2.4,MacIntel,60.0024001,Chrome,1440,900,,,,,0,603,,,,,,,,,,,,,,,,,125,U,hexagon,1,0,,4,,,,,,,,,,,,,,switch,letter,lettSwt,k,0.9994,vtsPrac,25,0,25,0,1,,,,,,,,,,,,,,,,,,,,,,,
295363,2022-12-05_22h41.00.486,vts_reward_expectancy_bt,2022.2.4,MacIntel,60.0024001,Chrome,1440,900,,,,,0,603,,,,,,,,,,,,,,,,,167,B,circle,1,0,,4,,,,,,,,,,,,,,repeat,letter,lettRpt,j,0.7293,vtsPrac,26,0,26,0,1,,,,,,,,,,,,,,,,,,,,,,,
295363,2022-12-05_22h41.00.486,vts_reward_expectancy_bt,2022.2.4,MacIntel,60.0024001,Chrome,1440,900,,,,,0,603,,,,,,,,,,,,,,,,,160,W,hexagon,1,0,,4,,,,,,,,,,,,,,switch,number,numSwt,f,1.2191,vtsPrac,27,0,27,0,1,,,,,,,,,,,,,,,,,,,,,,,
295363,2022-12-05_22h41.00.486,vts_reward_expectancy_bt,2022.2.4,MacIntel,60.0024001,Chrome,1440,900,,,,,0,603,,,,,,,,,,,,,,,,,167,Y,star,1,0,,4,,,,,,,,,,,,,,repeat,number,numRpt,f,0.9953,vtsPrac,28,0,28,0,1,,,,,,,,,,,,,,,,,,,,,,,
295363,2022-12-05_22h41.00.486,vts_reward_expectancy_bt,2022.2.4,MacIntel,60.0024001,Chrome,1440,900,,,,,0,603,,,,,,,,,,,,,,,,,160,W,triangle,1,0,,4,,,,,,,,,,,,,,switch,letter,lettSwt,k,0.861,vtsPrac,29,0,29,0,1,,,,,,,,,,,,,,,,,,,,,,,
295363,2022-12-05_22h41.00.486,vts_reward_expectancy_bt,2022.2.4,MacIntel,60.0024001,Chrome,1440,900,,,,,0,603,,,,,,,,,,,,,,,,,174,D,circle,1,0,,4,,,,,,,,,,,,,,switch,number,numSwt,f,0.8349,vtsPrac,30,0,30,0,1,,,,,,,,,,,,,,,,,,,,,,,
295363,2022-12-05_22h41.00.486,vts_reward_expectancy_bt,2022.2.4,MacIntel,60.0024001,Chrome,1440,900,,,,,0,603,,,,,,,,,,,,,,,,,139,H,hexagon,1,0,,4,,,,,,,,,,,,,,switch,letter,lettSwt,j,0.8491,vtsPrac,31,0,31,0,1,,,,,,,,,,,,,,,,,,,,,,,
295363,2022-12-05_22h41.00.486,vts_reward_expectancy_bt,2022.2.4,MacIntel,60.0024001,Chrome,1440,900,,,,,,,,,,,,,,,,,,,,,,,,,,,,,,,,,,,,,,,,,,,,,,,,,,,,,,,,,,,,,,,,,,,,,,,,,,,,
295363,2022-12-05_22h41.00.486,vts_reward_expectancy_bt,2022.2.4,MacIntel,60.0024001,Chrome,1440,900,,,,,,,,,,,,,,,,,,,,,,,,,,,,,,,,,,,,,,,,,,,,,,,,,,,,,,,,,,,,,,,,,,,,,,,,,,,,
295363,2022-12-05_22h41.00.486,vts_reward_expectancy_bt,2022.2.4,MacIntel,60.0024001,Chrome,1440,900,,,,,0,603,,,,,,,,,,,,,,,,,181,S,hexagon,-1,0,,,,,,,,,,,,,,,,switch,no_choice,NA,,,noRew,,,,,,0,0,0,0,0,1,,,,,,,,,,,,,,,,,
295363,2022-12-05_22h41.00.486,vts_reward_expectancy_bt,2022.2.4,MacIntel,60.0024001,Chrome,1440,900,,,,,0,603,,,,,,,,,,,,,,,,,174,Y,star,1,0,,,,,,,,,,,,,,,,switch,number,numSwt,f,0.8966,noRew,,,,,,0,1,0,1,0,1,,,,,,,,,,,,,,,,,
295363,2022-12-05_22h41.00.486,vts_reward_expectancy_bt,2022.2.4,MacIntel,60.0024001,Chrome,1440,900,,,,,0,603,,,,,,,,,,,,,,,,,160,F,hexagon,1,0,,,,,,,,,,,,,,,,repeat,number,numRpt,f,1.1324,noRew,,,,,,0,2,0,2,0,1,,,,,,,,,,,,,,,,,
295363,2022-12-05_22h41.00.486,vts_reward_expectancy_bt,2022.2.4,MacIntel,60.0024001,Chrome,1440,900,,,,,0,603,,,,,,,,,,,,,,,,,132,D,star,1,0,,,,,,,,,,,,,,,,repeat,number,numRpt,d,0.9116,noRew,,,,,,0,3,0,3,0,1,,,,,,,,,,,,,,,,,
295363,2022-12-05_22h41.00.486,vts_reward_expectancy_bt,2022.2.4,MacIntel,60.0024001,Chrome,1440,900,,,,,0,603,,,,,,,,,,,,,,,,,181,S,triangle,1,0,,,,,,,,,,,,,,,,repeat,number,numRpt,f,0.6514,noRew,,,,,,0,4,0,4,0,1,,,,,,,,,,,,,,,,,
295363,2022-12-05_22h41.00.486,vts_reward_expectancy_bt,2022.2.4,MacIntel,60.0024001,Chrome,1440,900,,,,,0,603,,,,,,,,,,,,,,,,,174,Y,circle,1,0,,,,,,,,,,,,,,,,repeat,number,numRpt,f,0.8605,noRew,,,,,,0,5,0,5,0,1,,,,,,,,,,,,,,,,,
295363,2022-12-05_22h41.00.486,vts_reward_expectancy_bt,2022.2.4,MacIntel,60.0024001,Chrome,1440,900,,,,,0,603,,,,,,,,,,,,,,,,,160,F,star,1,0,,,,,,,,,,,,,,,,repeat,number,numRpt,f,0.9099,noRew,,,,,,0,6,0,6,0,1,,,,,,,,,,,,,,,,,
295363,2022-12-05_22h41.00.486,vts_reward_expectancy_bt,2022.2.4,MacIntel,60.0024001,Chrome,1440,900,,,,,0,603,,,,,,,,,,,,,,,,,132,D,triangle,1,0,,,,,,,,,,,,,,,,switch,letter,lettSwt,j,0.6767,noRew,,,,,,0,7,0,7,0,1,,,,,,,,,,,,,,,,,
295363,2022-12-05_22h41.00.486,vts_reward_expectancy_bt,2022.2.4,MacIntel,60.0024001,Chrome,1440,900,,,,,0,603,,,,,,,,,,,,,,,,,146,H,circle,1,0,,,,,,,,,,,,,,,,repeat,letter,lettRpt,j,0.6856,noRew,,,,,,0,8,0,8,0,1,,,,,,,,,,,,,,,,,
295363,2022-12-05_22h41.00.486,vts_reward_expectancy_bt,2022.2.4,MacIntel,60.0024001,Chrome,1440,900,,,,,0,603,,,,,,,,,,,,,,,,,132,F,hexagon,1,0,,,,,,,,,,,,,,,,switch,number,numSwt,d,0.7631,noRew,,,,,,0,9,0,9,0,1,,,,,,,,,,,,,,,,,
295363,2022-12-05_22h41.00.486,vts_reward_expectancy_bt,2022.2.4,MacIntel,60.0024001,Chrome,1440,900,,,,,0,603,,,,,,,,,,,,,,,,,125,Y,hexagon,1,0,,,,,,,,,,,,,,,,repeat,number,numRpt,d,1.0106,noRew,,,,,,0,10,0,10,0,1,,,,,,,,,,,,,,,,,
295363,2022-12-05_22h41.00.486,vts_reward_expectancy_bt,2022.2.4,MacIntel,60.0024001,Chrome,1440,900,,,,,0,603,,,,,,,,,,,,,,,,,139,B,triangle,1,0,,,,,,,,,,,,,,,,repeat,number,numRpt,d,0.5686,noRew,,,,,,0,11,0,11,0,1,,,,,,,,,,,,,,,,,
295363,2022-12-05_22h41.00.486,vts_reward_expectancy_bt,2022.2.4,MacIntel,60.0024001,Chrome,1440,900,,,,,0,603,,,,,,,,,,,,,,,,,181,H,star,1,0,,,,,,,,,,,,,,,,switch,letter,lettSwt,j,0.6615,noRew,,,,,,0,12,0,12,0,1,,,,,,,,,,,,,,,,,
295363,2022-12-05_22h41.00.486,vts_reward_expectancy_bt,2022.2.4,MacIntel,60.0024001,Chrome,1440,900,,,,,0,603,,,,,,,,,,,,,,,,,125,D,hexagon,1,0,,,,,,,,,,,,,,,,repeat,letter,lettRpt,j,0.5609,noRew,,,,,,0,13,0,13,0,1,,,,,,,,,,,,,,,,,
295363,2022-12-05_22h41.00.486,vts_reward_expectancy_bt,2022.2.4,MacIntel,60.0024001,Chrome,1440,900,,,,,0,603,,,,,,,,,,,,,,,,,146,S,circle,1,0,,,,,,,,,,,,,,,,repeat,letter,lettRpt,k,0.4546,noRew,,,,,,0,14,0,14,0,1,,,,,,,,,,,,,,,,,
295363,2022-12-05_22h41.00.486,vts_reward_expectancy_bt,2022.2.4,MacIntel,60.0024001,Chrome,1440,900,,,,,0,603,,,,,,,,,,,,,,,,,160,F,star,1,0,,,,,,,,,,,,,,,,repeat,letter,lettRpt,j,0.6313,noRew,,,,,,0,15,0,15,0,1,,,,,,,,,,,,,,,,,
295363,2022-12-05_22h41.00.486,vts_reward_expectancy_bt,2022.2.4,MacIntel,60.0024001,Chrome,1440,900,,,,,0,603,,,,,,,,,,,,,,,,,146,U,star,1,0,,,,,,,,,,,,,,,,repeat,letter,lettRpt,k,0.7646,noRew,,,,,,0,16,0,16,0,1,,,,,,,,,,,,,,,,,
295363,2022-12-05_22h41.00.486,vts_reward_expectancy_bt,2022.2.4,MacIntel,60.0024001,Chrome,1440,900,,,,,0,603,,,,,,,,,,,,,,,,,167,Y,hexagon,1,0,,,,,,,,,,,,,,,,repeat,letter,lettRpt,k,0.712,noRew,,,,,,0,17,0,17,0,1,,,,,,,,,,,,,,,,,
295363,2022-12-05_22h41.00.486,vts_reward_expectancy_bt,2022.2.4,MacIntel,60.0024001,Chrome,1440,900,,,,,0,603,,,,,,,,,,,,,,,,,181,S,star,1,0,,,,,,,,,,,,,,,,repeat,letter,lettRpt,k,0.9152,noRew,,,,,,0,18,0,18,0,1,,,,,,,,,,,,,,,,,
295363,2022-12-05_22h41.00.486,vts_reward_expectancy_bt,2022.2.4,MacIntel,60.0024001,Chrome,1440,900,,,,,0,603,,,,,,,,,,,,,,,,,160,D,triangle,1,0,,,,,,,,,,,,,,,,switch,number,numSwt,f,0.7628,noRew,,,,,,0,19,0,19,0,1,,,,,,,,,,,,,,,,,
295363,2022-12-05_22h41.00.486,vts_reward_expectancy_bt,2022.2.4,MacIntel,60.0024001,Chrome,1440,900,,,,,0,603,,,,,,,,,,,,,,,,,174,U,triangle,1,0,,,,,,,,,,,,,,,,repeat,number,numRpt,f,0.8687,noRew,,,,,,0,20,0,20,0,1,,,,,,,,,,,,,,,,,
295363,2022-12-05_22h41.00.486,vts_reward_expectancy_bt,2022.2.4,MacIntel,60.0024001,Chrome,1440,900,,,,,0,603,,,,,,,,,,,,,,,,,181,B,star,1,0,,,,,,,,,,,,,,,,repeat,number,numRpt,f,0.988,noRew,,,,,,0,21,0,21,0,1,,,,,,,,,,,,,,,,,
295363,2022-12-05_22h41.00.486,vts_reward_expectancy_bt,2022.2.4,MacIntel,60.0024001,Chrome,1440,900,,,,,0,603,,,,,,,,,,,,,,,,,160,S,circle,1,0,,,,,,,,,,,,,,,,repeat,number,numRpt,f,0.8466,noRew,,,,,,0,22,0,22,0,1,,,,,,,,,,,,,,,,,
295363,2022-12-05_22h41.00.486,vts_reward_expectancy_bt,2022.2.4,MacIntel,60.0024001,Chrome,1440,900,,,,,0,603,,,,,,,,,,,,,,,,,146,H,triangle,1,0,,,,,,,,,,,,,,,,repeat,number,numRpt,d,0.8622,noRew,,,,,,0,23,0,23,0,1,,,,,,,,,,,,,,,,,
295363,2022-12-05_22h41.00.486,vts_reward_expectancy_bt,2022.2.4,MacIntel,60.0024001,Chrome,1440,900,,,,,0,603,,,,,,,,,,,,,,,,,125,D,star,1,0,,,,,,,,,,,,,,,,repeat,number,numRpt,d,0.8496,noRew,,,,,,0,24,0,24,0,1,,,,,,,,,,,,,,,,,
295363,2022-12-05_22h41.00.486,vts_reward_expectancy_bt,2022.2.4,MacIntel,60.0024001,Chrome,1440,900,,,,,0,603,,,,,,,,,,,,,,,,,174,W,circle,1,0,,,,,,,,,,,,,,,,repeat,number,numRpt,f,0.9439,noRew,,,,,,0,25,0,25,0,1,,,,,,,,,,,,,,,,,
295363,2022-12-05_22h41.00.486,vts_reward_expectancy_bt,2022.2.4,MacIntel,60.0024001,Chrome,1440,900,,,,,0,603,,,,,,,,,,,,,,,,,160,S,star,1,0,,,,,,,,,,,,,,,,switch,letter,lettSwt,k,0.6195,noRew,,,,,,0,26,0,26,0,1,,,,,,,,,,,,,,,,,
295363,2022-12-05_22h41.00.486,vts_reward_expectancy_bt,2022.2.4,MacIntel,60.0024001,Chrome,1440,900,,,,,0,603,,,,,,,,,,,,,,,,,139,Y,circle,1,0,,,,,,,,,,,,,,,,switch,number,numSwt,d,1.2193,noRew,,,,,,0,27,0,27,0,1,,,,,,,,,,,,,,,,,
295363,2022-12-05_22h41.00.486,vts_reward_expectancy_bt,2022.2.4,MacIntel,60.0024001,Chrome,1440,900,,,,,0,603,,,,,,,,,,,,,,,,,146,H,star,1,0,,,,,,,,,,,,,,,,repeat,number,numRpt,d,1.4172,noRew,,,,,,0,28,0,28,0,1,,,,,,,,,,,,,,,,,
295363,2022-12-05_22h41.00.486,vts_reward_expectancy_bt,2022.2.4,MacIntel,60.0024001,Chrome,1440,900,,,,,0,603,,,,,,,,,,,,,,,,,132,S,triangle,1,0,,,,,,,,,,,,,,,,repeat,number,numRpt,d,1.0721,noRew,,,,,,0,29,0,29,0,1,,,,,,,,,,,,,,,,,
295363,2022-12-05_22h41.00.486,vts_reward_expectancy_bt,2022.2.4,MacIntel,60.0024001,Chrome,1440,900,,,,,0,603,,,,,,,,,,,,,,,,,160,U,hexagon,1,0,,,,,,,,,,,,,,,,switch,letter,lettSwt,k,0.8757,noRew,,,,,,0,30,0,30,0,1,,,,,,,,,,,,,,,,,
295363,2022-12-05_22h41.00.486,vts_reward_expectancy_bt,2022.2.4,MacIntel,60.0024001,Chrome,1440,900,,,,,0,603,,,,,,,,,,,,,,,,,125,D,star,1,0,,,,,,,,,,,,,,,,repeat,letter,lettRpt,j,1.4142,noRew,,,,,,0,31,0,31,0,1,,,,,,,,,,,,,,,,,
295363,2022-12-05_22h41.00.486,vts_reward_expectancy_bt,2022.2.4,MacIntel,60.0024001,Chrome,1440,900,,,,,0,603,,,,,,,,,,,,,,,,,139,B,circle,1,0,,,,,,,,,,,,,,,,repeat,letter,lettRpt,j,0.6466,noRew,,,,,,0,32,0,32,0,1,,,,,,,,,,,,,,,,,
295363,2022-12-05_22h41.00.486,vts_reward_expectancy_bt,2022.2.4,MacIntel,60.0024001,Chrome,1440,900,,,,,0,603,,,,,,,,,,,,,,,,,160,H,triangle,1,0,,,,,,,,,,,,,,,,repeat,letter,lettRpt,j,0.8511,noRew,,,,,,0,33,0,33,0,1,,,,,,,,,,,,,,,,,
295363,2022-12-05_22h41.00.486,vts_reward_expectancy_bt,2022.2.4,MacIntel,60.0024001,Chrome,1440,900,,,,,0,603,,,,,,,,,,,,,,,,,146,S,circle,1,0,,,,,,,,,,,,,,,,repeat,letter,lettRpt,k,0.7286,noRew,,,,,,0,34,0,34,0,1,,,,,,,,,,,,,,,,,
295363,2022-12-05_22h41.00.486,vts_reward_expectancy_bt,2022.2.4,MacIntel,60.0024001,Chrome,1440,900,,,,,0,603,,,,,,,,,,,,,,,,,174,F,hexagon,1,0,,,,,,,,,,,,,,,,repeat,letter,lettRpt,j,1.0118,noRew,,,,,,0,35,0,35,0,1,,,,,,,,,,,,,,,,,
295363,2022-12-05_22h41.00.486,vts_reward_expectancy_bt,2022.2.4,MacIntel,60.0024001,Chrome,1440,900,,,,,0,603,,,,,,,,,,,,,,,,,160,B,hexagon,1,0,,,,,,,,,,,,,,,,repeat,letter,lettRpt,j,0.7802,noRew,,,,,,0,36,0,36,0,1,,,,,,,,,,,,,,,,,
295363,2022-12-05_22h41.00.486,vts_reward_expectancy_bt,2022.2.4,MacIntel,60.0024001,Chrome,1440,900,,,,,0,603,,,,,,,,,,,,,,,,,139,F,star,1,0,,,,,,,,,,,,,,,,repeat,letter,lettRpt,j,0.6623,noRew,,,,,,0,37,0,37,0,1,,,,,,,,,,,,,,,,,
295363,2022-12-05_22h41.00.486,vts_reward_expectancy_bt,2022.2.4,MacIntel,60.0024001,Chrome,1440,900,,,,,0,603,,,,,,,,,,,,,,,,,174,H,triangle,1,0,,,,,,,,,,,,,,,,repeat,letter,lettRpt,j,1.5459,noRew,,,,,,0,38,0,38,0,1,,,,,,,,,,,,,,,,,
295363,2022-12-05_22h41.00.486,vts_reward_expectancy_bt,2022.2.4,MacIntel,60.0024001,Chrome,1440,900,,,,,0,603,,,,,,,,,,,,,,,,,125,D,star,1,0,,,,,,,,,,,,,,,,switch,number,numSwt,d,0.6308,noRew,,,,,,0,39,0,39,0,1,,,,,,,,,,,,,,,,,
295363,2022-12-05_22h41.00.486,vts_reward_expectancy_bt,2022.2.4,MacIntel,60.0024001,Chrome,1440,900,,,,,0,603,,,,,,,,,,,,,,,,,139,B,triangle,1,0,,,,,,,,,,,,,,,,repeat,number,numRpt,d,0.9055,noRew,,,,,,0,40,0,40,0,1,,,,,,,,,,,,,,,,,
295363,2022-12-05_22h41.00.486,vts_reward_expectancy_bt,2022.2.4,MacIntel,60.0024001,Chrome,1440,900,,,,,0,603,,,,,,,,,,,,,,,,,174,F,star,1,0,,,,,,,,,,,,,,,,repeat,number,numRpt,f,0.9815,noRew,,,,,,0,41,0,41,0,1,,,,,,,,,,,,,,,,,
295363,2022-12-05_22h41.00.486,vts_reward_expectancy_bt,2022.2.4,MacIntel,60.0024001,Chrome,1440,900,,,,,0,603,,,,,,,,,,,,,,,,,132,S,triangle,1,0,,,,,,,,,,,,,,,,repeat,number,numRpt,d,0.7096,noRew,,,,,,0,42,0,42,0,1,,,,,,,,,,,,,,,,,
295363,2022-12-05_22h41.00.486,vts_reward_expectancy_bt,2022.2.4,MacIntel,60.0024001,Chrome,1440,900,,,,,0,603,,,,,,,,,,,,,,,,,146,W,star,1,0,,,,,,,,,,,,,,,,repeat,number,numRpt,d,0.8659,noRew,,,,,,0,43,0,43,0,1,,,,,,,,,,,,,,,,,
295363,2022-12-05_22h41.00.486,vts_reward_expectancy_bt,2022.2.4,MacIntel,60.0024001,Chrome,1440,900,,,,,0,603,,,,,,,,,,,,,,,,,125,Y,hexagon,1,0,,,,,,,,,,,,,,,,repeat,number,numRpt,d,0.7765,noRew,,,,,,0,44,0,44,0,1,,,,,,,,,,,,,,,,,
295363,2022-12-05_22h41.00.486,vts_reward_expectancy_bt,2022.2.4,MacIntel,60.0024001,Chrome,1440,900,,,,,0,603,,,,,,,,,,,,,,,,,139,H,star,1,0,,,,,,,,,,,,,,,,repeat,number,numRpt,d,0.7549,noRew,,,,,,0,45,0,45,0,1,,,,,,,,,,,,,,,,,
295363,2022-12-05_22h41.00.486,vts_reward_expectancy_bt,2022.2.4,MacIntel,60.0024001,Chrome,1440,900,,,,,0,603,,,,,,,,,,,,,,,,,174,U,circle,1,0,,,,,,,,,,,,,,,,switch,letter,lettSwt,k,1.0213,noRew,,,,,,0,46,0,46,0,1,,,,,,,,,,,,,,,,,
295363,2022-12-05_22h41.00.486,vts_reward_expectancy_bt,2022.2.4,MacIntel,60.0024001,Chrome,1440,900,,,,,0,603,,,,,,,,,,,,,,,,,181,D,star,1,0,,,,,,,,,,,,,,,,repeat,letter,lettRpt,j,1.68,noRew,,,,,,0,47,0,47,0,1,,,,,,,,,,,,,,,,,
295363,2022-12-05_22h41.00.486,vts_reward_expectancy_bt,2022.2.4,MacIntel,60.0024001,Chrome,1440,900,,,,,0,603,,,,,,,,,,,,,,,,,174,S,triangle,1,0,,,,,,,,,,,,,,,,repeat,letter,lettRpt,k,0.7137,noRew,,,,,,0,48,0,48,0,1,,,,,,,,,,,,,,,,,
295363,2022-12-05_22h41.00.486,vts_reward_expectancy_bt,2022.2.4,MacIntel,60.0024001,Chrome,1440,900,,,,,0,603,,,,,,,,,,,,,,,,,146,D,star,1,0,,,,,,,,,,,,,,,,repeat,letter,lettRpt,j,0.9288,noRew,,,,,,0,49,0,49,0,1,,,,,,,,,,,,,,,,,
295363,2022-12-05_22h41.00.486,vts_reward_expectancy_bt,2022.2.4,MacIntel,60.0024001,Chrome,1440,900,,,,,0,603,,,,,,,,,,,,,,,,,167,U,circle,1,0,,,,,,,,,,,,,,,,repeat,letter,lettRpt,k,0.6655,noRew,,,,,,0,50,0,50,0,1,,,,,,,,,,,,,,,,,
295363,2022-12-05_22h41.00.486,vts_reward_expectancy_bt,2022.2.4,MacIntel,60.0024001,Chrome,1440,900,,,,,0,603,,,,,,,,,,,,,,,,,125,W,star,1,0,,,,,,,,,,,,,,,,repeat,letter,lettRpt,k,0.7652,noRew,,,,,,0,51,0,51,0,1,,,,,,,,,,,,,,,,,
295363,2022-12-05_22h41.00.486,vts_reward_expectancy_bt,2022.2.4,MacIntel,60.0024001,Chrome,1440,900,,,,,0,603,,,,,,,,,,,,,,,,,174,D,circle,1,0,,,,,,,,,,,,,,,,repeat,letter,lettRpt,j,1.1352,noRew,,,,,,0,52,0,52,0,1,,,,,,,,,,,,,,,,,
295363,2022-12-05_22h41.00.486,vts_reward_expectancy_bt,2022.2.4,MacIntel,60.0024001,Chrome,1440,900,,,,,0,603,,,,,,,,,,,,,,,,,167,B,star,1,0,,,,,,,,,,,,,,,,repeat,letter,lettRpt,j,0.8138,noRew,,,,,,0,53,0,53,0,1,,,,,,,,,,,,,,,,,
295363,2022-12-05_22h41.00.486,vts_reward_expectancy_bt,2022.2.4,MacIntel,60.0024001,Chrome,1440,900,,,,,0,603,,,,,,,,,,,,,,,,,125,U,hexagon,1,0,,,,,,,,,,,,,,,,repeat,letter,lettRpt,k,1.2023,noRew,,,,,,0,54,0,54,0,1,,,,,,,,,,,,,,,,,
295363,2022-12-05_22h41.00.486,vts_reward_expectancy_bt,2022.2.4,MacIntel,60.0024001,Chrome,1440,900,,,,,0,603,,,,,,,,,,,,,,,,,132,F,star,1,0,,,,,,,,,,,,,,,,repeat,letter,lettRpt,j,0.7149,noRew,,,,,,0,55,0,55,0,1,,,,,,,,,,,,,,,,,
295363,2022-12-05_22h41.00.486,vts_reward_expectancy_bt,2022.2.4,MacIntel,60.0024001,Chrome,1440,900,,,,,0,603,,,,,,,,,,,,,,,,,132,Y,circle,1,0,,,,,,,,,,,,,,,,repeat,letter,lettRpt,k,0.7493,noRew,,,,,,0,56,0,56,0,1,,,,,,,,,,,,,,,,,
295363,2022-12-05_22h41.00.486,vts_reward_expectancy_bt,2022.2.4,MacIntel,60.0024001,Chrome,1440,900,,,,,0,603,,,,,,,,,,,,,,,,,181,B,triangle,1,0,,,,,,,,,,,,,,,,repeat,letter,lettRpt,j,0.7929,noRew,,,,,,0,57,0,57,0,1,,,,,,,,,,,,,,,,,
295363,2022-12-05_22h41.00.486,vts_reward_expectancy_bt,2022.2.4,MacIntel,60.0024001,Chrome,1440,900,,,,,0,603,,,,,,,,,,,,,,,,,139,H,triangle,1,0,,,,,,,,,,,,,,,,switch,number,numSwt,d,1.1215,noRew,,,,,,0,58,0,58,0,1,,,,,,,,,,,,,,,,,
295363,2022-12-05_22h41.00.486,vts_reward_expectancy_bt,2022.2.4,MacIntel,60.0024001,Chrome,1440,900,,,,,0,603,,,,,,,,,,,,,,,,,146,U,circle,1,0,,,,,,,,,,,,,,,,repeat,number,numRpt,d,2.2273,noRew,,,,,,0,59,0,59,0,1,,,,,,,,,,,,,,,,,
295363,2022-12-05_22h41.00.486,vts_reward_expectancy_bt,2022.2.4,MacIntel,60.0024001,Chrome,1440,900,,,,,0,603,,,,,,,,,,,,,,,,,139,F,hexagon,1,0,,,,,,,,,,,,,,,,repeat,number,numRpt,d,0.8459,noRew,,,,,,0,60,0,60,0,1,,,,,,,,,,,,,,,,,
295363,2022-12-05_22h41.00.486,vts_reward_expectancy_bt,2022.2.4,MacIntel,60.0024001,Chrome,1440,900,,,,,0,603,,,,,,,,,,,,,,,,,132,D,circle,1,0,,,,,,,,,,,,,,,,repeat,number,numRpt,d,0.8986,noRew,,,,,,0,61,0,61,0,1,,,,,,,,,,,,,,,,,
295363,2022-12-05_22h41.00.486,vts_reward_expectancy_bt,2022.2.4,MacIntel,60.0024001,Chrome,1440,900,,,,,0,603,,,,,,,,,,,,,,,,,125,H,triangle,1,0,,,,,,,,,,,,,,,,repeat,number,numRpt,d,0.6456,noRew,,,,,,0,62,0,62,0,1,,,,,,,,,,,,,,,,,
295363,2022-12-05_22h41.00.486,vts_reward_expectancy_bt,2022.2.4,MacIntel,60.0024001,Chrome,1440,900,,,,,0,603,,,,,,,,,,,,,,,,,181,Y,star,1,0,,,,,,,,,,,,,,,,repeat,number,numRpt,f,1.1964,noRew,,,,,,0,63,0,63,0,1,,,,,,,,,,,,,,,,,
295363,2022-12-05_22h41.00.486,vts_reward_expectancy_bt,2022.2.4,MacIntel,60.0024001,Chrome,1440,900,,,,,,,,,,,,,,,,,,,,,,,,,,,,,,,,,,,,,,,,,,,,,,,,,,,,,,,,,,,,,,,,,,,,,,,,,,,,
295363,2022-12-05_22h41.00.486,vts_reward_expectancy_bt,2022.2.4,MacIntel,60.0024001,Chrome,1440,900,,,,,1,604,,,,,,,,,,,,,,,,,125,F,star,1,0,,,,,,,,,,,,,,,,repeat,number,numRpt,d,1.6654,Lo,,,,,,0,,,,,,space,11.7153,high,0,0,0,0,1,,,,,,,,,
295363,2022-12-05_22h41.00.486,vts_reward_expectancy_bt,2022.2.4,MacIntel,60.0024001,Chrome,1440,900,,,,,0,604,,,,,,,,,,,,,,,,,146,S,triangle,1,0,,,,,,,,,,,,,,,,repeat,number,numRpt,d,1.3104,Hi,,,,,,0,,,,,,,,high,1,0,1,0,1,,,,,,,,,
295363,2022-12-05_22h41.00.486,vts_reward_expectancy_bt,2022.2.4,MacIntel,60.0024001,Chrome,1440,900,,,,,1,605,,,,,,,,,,,,,,,,,167,U,hexagon,1,0,,,,,,,,,,,,,,,,repeat,number,numRpt,f,0.7956,Hi,,,,,,0,,,,,,,,high,2,0,2,0,1,,,,,,,,,
295363,2022-12-05_22h41.00.486,vts_reward_expectancy_bt,2022.2.4,MacIntel,60.0024001,Chrome,1440,900,,,,,1,606,,,,,,,,,,,,,,,,,174,H,circle,1,0,,,,,,,,,,,,,,,,switch,letter,lettSwt,j,0.7711,Lo,,,,,,0,,,,,,,,high,3,0,3,0,1,,,,,,,,,
295363,2022-12-05_22h41.00.486,vts_reward_expectancy_bt,2022.2.4,MacIntel,60.0024001,Chrome,1440,900,,,,,1,607,,,,,,,,,,,,,,,,,132,Y,star,1,0,,,,,,,,,,,,,,,,switch,number,numSwt,d,0.8946,Lo,,,,,,0,,,,,,,,high,4,0,4,0,1,,,,,,,,,
295363,2022-12-05_22h41.00.486,vts_reward_expectancy_bt,2022.2.4,MacIntel,60.0024001,Chrome,1440,900,,,,,10,617,,,,,,,,,,,,,,,,,139,B,triangle,1,0,,,,,,,,,,,,,,,,repeat,number,numRpt,d,0.6136,Hi,,,,,,0,,,,,,,,high,5,0,5,0,1,,,,,,,,,
295363,2022-12-05_22h41.00.486,vts_reward_expectancy_bt,2022.2.4,MacIntel,60.0024001,Chrome,1440,900,,,,,0,617,,,,,,,,,,,,,,,,,160,W,hexagon,1,0,,,,,,,,,,,,,,,,switch,letter,lettSwt,k,1.0647,Hi,,,,,,0,,,,,,,,high,6,0,6,0,1,,,,,,,,,
295363,2022-12-05_22h41.00.486,vts_reward_expectancy_bt,2022.2.4,MacIntel,60.0024001,Chrome,1440,900,,,,,1,618,,,,,,,,,,,,,,,,,181,D,circle,1,0,,,,,,,,,,,,,,,,repeat,letter,lettRpt,j,0.9166,Lo,,,,,,0,,,,,,,,high,7,0,7,0,1,,,,,,,,,
295363,2022-12-05_22h41.00.486,vts_reward_expectancy_bt,2022.2.4,MacIntel,60.0024001,Chrome,1440,900,,,,,10,628,,,,,,,,,,,,,,,,,125,F,triangle,1,0,,,,,,,,,,,,,,,,repeat,letter,lettRpt,j,0.5937,Hi,,,,,,0,,,,,,,,high,8,0,8,0,1,,,,,,,,,
295363,2022-12-05_22h41.00.486,vts_reward_expectancy_bt,2022.2.4,MacIntel,60.0024001,Chrome,1440,900,,,,,1,629,,,,,,,,,,,,,,,,,146,S,circle,1,0,,,,,,,,,,,,,,,,repeat,letter,lettRpt,k,0.6804,Lo,,,,,,0,,,,,,,,high,9,0,9,0,1,,,,,,,,,
295363,2022-12-05_22h41.00.486,vts_reward_expectancy_bt,2022.2.4,MacIntel,60.0024001,Chrome,1440,900,,,,,1,630,,,,,,,,,,,,,,,,,167,U,star,1,0,,,,,,,,,,,,,,,,repeat,letter,lettRpt,k,0.8185,Lo,,,,,,0,,,,,,,,high,10,0,10,0,1,,,,,,,,,
295363,2022-12-05_22h41.00.486,vts_reward_expectancy_bt,2022.2.4,MacIntel,60.0024001,Chrome,1440,900,,,,,10,640,,,,,,,,,,,,,,,,,174,H,hexagon,1,0,,,,,,,,,,,,,,,,switch,number,numSwt,f,0.6283,Hi,,,,,,0,,,,,,,,high,11,0,11,0,1,,,,,,,,,
295363,2022-12-05_22h41.00.486,vts_reward_expectancy_bt,2022.2.4,MacIntel,60.0024001,Chrome,1440,900,,,,,1,641,,,,,,,,,,,,,,,,,132,Y,star,1,0,,,,,,,,,,,,,,,,repeat,number,numRpt,d,0.8371,Lo,,,,,,0,,,,,,,,high,12,0,12,0,1,,,,,,,,,
295363,2022-12-05_22h41.00.486,vts_reward_expectancy_bt,2022.2.4,MacIntel,60.0024001,Chrome,1440,900,,,,,0,641,,,,,,,,,,,,,,,,,139,B,triangle,1,0,,,,,,,,,,,,,,,,switch,letter,lettSwt,j,0.8116,Hi,,,,,,0,,,,,,,,high,13,0,13,0,1,,,,,,,,,
295363,2022-12-05_22h41.00.486,vts_reward_expectancy_bt,2022.2.4,MacIntel,60.0024001,Chrome,1440,900,,,,,10,651,,,,,,,,,,,,,,,,,160,W,hexagon,1,0,,,,,,,,,,,,,,,,switch,number,numSwt,f,0.7271,Hi,,,,,,0,,,,,,,,high,14,0,14,0,1,,,,,,,,,
295363,2022-12-05_22h41.00.486,vts_reward_expectancy_bt,2022.2.4,MacIntel,60.0024001,Chrome,1440,900,,,,,1,652,,,,,,,,,,,,,,,,,181,D,circle,1,0,,,,,,,,,,,,,,,,switch,letter,lettSwt,j,0.695,Lo,,,,,,0,,,,,,,,high,15,0,15,0,1,,,,,,,,,
295363,2022-12-05_22h41.00.486,vts_reward_expectancy_bt,2022.2.4,MacIntel,60.0024001,Chrome,1440,900,,,,,0,652,,,,,,,,,,,,,,,,,181,B,triangle,1,0,,,,,,,,,,,,,,,,switch,number,numSwt,f,0.8128,Hi,,,,,,0,,,,,,,,high,16,0,16,0,1,,,,,,,,,
295363,2022-12-05_22h41.00.486,vts_reward_expectancy_bt,2022.2.4,MacIntel,60.0024001,Chrome,1440,900,,,,,1,653,,,,,,,,,,,,,,,,,139,S,circle,1,0,,,,,,,,,,,,,,,,repeat,number,numRpt,d,0.7153,Lo,,,,,,0,,,,,,,,high,17,0,17,0,1,,,,,,,,,
295363,2022-12-05_22h41.00.486,vts_reward_expectancy_bt,2022.2.4,MacIntel,60.0024001,Chrome,1440,900,,,,,1,654,,,,,,,,,,,,,,,,,146,U,hexagon,1,0,,,,,,,,,,,,,,,,switch,letter,lettSwt,k,0.5967,Hi,,,,,,0,,,,,,,,high,18,0,18,0,1,,,,,,,,,
295363,2022-12-05_22h41.00.486,vts_reward_expectancy_bt,2022.2.4,MacIntel,60.0024001,Chrome,1440,900,,,,,1,655,,,,,,,,,,,,,,,,,125,Y,star,1,0,,,,,,,,,,,,,,,,switch,number,numSwt,d,0.7668,Lo,,,,,,0,,,,,,,,high,19,0,19,0,1,,,,,,,,,
295363,2022-12-05_22h41.00.486,vts_reward_expectancy_bt,2022.2.4,MacIntel,60.0024001,Chrome,1440,900,,,,,10,665,,,,,,,,,,,,,,,,,132,F,triangle,1,0,,,,,,,,,,,,,,,,repeat,number,numRpt,d,0.715,Hi,,,,,,0,,,,,,,,high,20,0,20,0,1,,,,,,,,,
295363,2022-12-05_22h41.00.486,vts_reward_expectancy_bt,2022.2.4,MacIntel,60.0024001,Chrome,1440,900,,,,,0,665,,,,,,,,,,,,,,,,,160,H,circle,0,0,,,,,,,,,,,,,,,,switch,letter,NA,k,0.8829,Hi,,,,,,0,,,,,,,,high,21,0,21,0,1,,,,,,,,,
295363,2022-12-05_22h41.00.486,vts_reward_expectancy_bt,2022.2.4,MacIntel,60.0024001,Chrome,1440,900,,,,,0,665,,,,,,,,,,,,,,,,,167,W,hexagon,1,1,,,,,,,,,,,,,,,,switch,number,numSwt,f,0.8046,Hi,,,,,,0,,,,,,,,high,22,0,22,0,1,,,,,,,,,
295363,2022-12-05_22h41.00.486,vts_reward_expectancy_bt,2022.2.4,MacIntel,60.0024001,Chrome,1440,900,,,,,1,666,,,,,,,,,,,,,,,,,174,D,star,1,0,,,,,,,,,,,,,,,,repeat,number,numRpt,f,1.1434,Lo,,,,,,0,,,,,,,,high,23,0,23,0,1,,,,,,,,,
295363,2022-12-05_22h41.00.486,vts_reward_expectancy_bt,2022.2.4,MacIntel,60.0024001,Chrome,1440,900,,,,,10,676,,,,,,,,,,,,,,,,,146,B,circle,1,0,,,,,,,,,,,,,,,,switch,letter,lettSwt,j,1.0819,Lo,,,,,,0,,,,,,,,high,24,0,24,0,1,,,,,,,,,
295363,2022-12-05_22h41.00.486,vts_reward_expectancy_bt,2022.2.4,MacIntel,60.0024001,Chrome,1440,900,,,,,10,686,,,,,,,,,,,,,,,,,174,Y,triangle,1,0,,,,,,,,,,,,,,,,repeat,letter,lettRpt,k,0.5646,Hi,,,,,,0,,,,,,,,high,25,0,25,0,1,,,,,,,,,
295363,2022-12-05_22h41.00.486,vts_reward_expectancy_bt,2022.2.4,MacIntel,60.0024001,Chrome,1440,900,,,,,1,687,,,,,,,,,,,,,,,,,132,S,star,1,0,,,,,,,,,,,,,,,,repeat,letter,lettRpt,k,1.262,Lo,,,,,,0,,,,,,,,high,26,0,26,0,1,,,,,,,,,
295363,2022-12-05_22h41.00.486,vts_reward_expectancy_bt,2022.2.4,MacIntel,60.0024001,Chrome,1440,900,,,,,0,687,,,,,,,,,,,,,,,,,167,F,hexagon,1,0,,,,,,,,,,,,,,,,switch,number,numSwt,f,0.8827,Hi,,,,,,0,,,,,,,,high,27,0,27,0,1,,,,,,,,,
295363,2022-12-05_22h41.00.486,vts_reward_expectancy_bt,2022.2.4,MacIntel,60.0024001,Chrome,1440,900,,,,,1,688,,,,,,,,,,,,,,,,,125,U,circle,1,0,,,,,,,,,,,,,,,,repeat,number,numRpt,d,0.6508,Lo,,,,,,0,,,,,,,,high,28,0,28,0,1,,,,,,,,,
295363,2022-12-05_22h41.00.486,vts_reward_expectancy_bt,2022.2.4,MacIntel,60.0024001,Chrome,1440,900,,,,,10,698,,,,,,,,,,,,,,,,,160,D,hexagon,1,0,,,,,,,,,,,,,,,,repeat,number,numRpt,f,0.6766,Hi,,,,,,0,,,,,,,,high,29,0,29,0,1,,,,,,,,,
295363,2022-12-05_22h41.00.486,vts_reward_expectancy_bt,2022.2.4,MacIntel,60.0024001,Chrome,1440,900,,,,,1,699,,,,,,,,,,,,,,,,,181,H,triangle,1,0,,,,,,,,,,,,,,,,switch,letter,lettSwt,j,0.6158,Hi,,,,,,0,,,,,,,,high,30,0,30,0,1,,,,,,,,,
295363,2022-12-05_22h41.00.486,vts_reward_expectancy_bt,2022.2.4,MacIntel,60.0024001,Chrome,1440,900,,,,,1,700,,,,,,,,,,,,,,,,,139,W,star,1,0,,,,,,,,,,,,,,,,repeat,letter,lettRpt,k,0.6159,Lo,,,,,,0,,,,,,,,high,31,0,31,0,1,,,,,,,,,
295363,2022-12-05_22h41.00.486,vts_reward_expectancy_bt,2022.2.4,MacIntel,60.0024001,Chrome,1440,900,,,,,0,700,,,,,,,,,,,,,,,,,174,H,hexagon,1,0,,,,,,,,,,,,,,,,switch,number,numSwt,f,0.8164,Hi,,,,,,1,,,,,,space,1.2097,high,0,0,0,0,1,,,,,,,,,
295363,2022-12-05_22h41.00.486,vts_reward_expectancy_bt,2022.2.4,MacIntel,60.0024001,Chrome,1440,900,,,,,1,701,,,,,,,,,,,,,,,,,139,D,triangle,1,0,,,,,,,,,,,,,,,,repeat,number,numRpt,d,0.6312,Hi,,,,,,1,,,,,,,,high,1,0,1,0,1,,,,,,,,,
295363,2022-12-05_22h41.00.486,vts_reward_expectancy_bt,2022.2.4,MacIntel,60.0024001,Chrome,1440,900,,,,,0,701,,,,,,,,,,,,,,,,,132,W,star,0,0,,,,,,,,,,,,,,,,repeat,number,NA,f,0.8012,Hi,,,,,,1,,,,,,,,high,2,0,2,0,1,,,,,,,,,
295363,2022-12-05_22h41.00.486,vts_reward_expectancy_bt,2022.2.4,MacIntel,60.0024001,Chrome,1440,900,,,,,1,702,,,,,,,,,,,,,,,,,146,F,circle,1,1,,,,,,,,,,,,,,,,repeat,number,numRpt,d,1.1825,Lo,,,,,,1,,,,,,,,high,3,0,3,0,1,,,,,,,,,
295363,2022-12-05_22h41.00.486,vts_reward_expectancy_bt,2022.2.4,MacIntel,60.0024001,Chrome,1440,900,,,,,0,702,,,,,,,,,,,,,,,,,181,S,hexagon,1,0,,,,,,,,,,,,,,,,switch,letter,lettSwt,k,0.9701,Hi,,,,,,1,,,,,,,,high,4,0,4,0,1,,,,,,,,,
295363,2022-12-05_22h41.00.486,vts_reward_expectancy_bt,2022.2.4,MacIntel,60.0024001,Chrome,1440,900,,,,,0,702,,,,,,,,,,,,,,,,,125,Y,triangle,1,0,,,,,,,,,,,,,,,,repeat,letter,lettRpt,k,1.1127,Hi,,,,,,1,,,,,,,,high,5,0,5,0,1,,,,,,,,,
295363,2022-12-05_22h41.00.486,vts_reward_expectancy_bt,2022.2.4,MacIntel,60.0024001,Chrome,1440,900,,,,,1,703,,,,,,,,,,,,,,,,,167,B,star,1,0,,,,,,,,,,,,,,,,repeat,letter,lettRpt,j,0.6968,Lo,,,,,,1,,,,,,,,high,6,0,6,0,1,,,,,,,,,
295363,2022-12-05_22h41.00.486,vts_reward_expectancy_bt,2022.2.4,MacIntel,60.0024001,Chrome,1440,900,,,,,1,704,,,,,,,,,,,,,,,,,160,U,circle,1,0,,,,,,,,,,,,,,,,repeat,letter,lettRpt,k,0.6817,Lo,,,,,,1,,,,,,,,high,7,0,7,0,1,,,,,,,,,
295363,2022-12-05_22h41.00.486,vts_reward_expectancy_bt,2022.2.4,MacIntel,60.0024001,Chrome,1440,900,,,,,10,714,,,,,,,,,,,,,,,,,174,H,triangle,1,0,,,,,,,,,,,,,,,,repeat,letter,lettRpt,j,0.5672,Hi,,,,,,1,,,,,,,,high,8,0,8,0,1,,,,,,,,,
295363,2022-12-05_22h41.00.486,vts_reward_expectancy_bt,2022.2.4,MacIntel,60.0024001,Chrome,1440,900,,,,,10,724,,,,,,,,,,,,,,,,,139,D,circle,1,0,,,,,,,,,,,,,,,,switch,number,numSwt,d,0.5206,Lo,,,,,,1,,,,,,,,high,9,0,9,0,1,,,,,,,,,
295363,2022-12-05_22h41.00.486,vts_reward_expectancy_bt,2022.2.4,MacIntel,60.0024001,Chrome,1440,900,,,,,1,725,,,,,,,,,,,,,,,,,132,W,star,1,0,,,,,,,,,,,,,,,,switch,letter,lettSwt,k,0.586,Lo,,,,,,1,,,,,,,,high,10,0,10,0,1,,,,,,,,,
295363,2022-12-05_22h41.00.486,vts_reward_expectancy_bt,2022.2.4,MacIntel,60.0024001,Chrome,1440,900,,,,,0,725,,,,,,,,,,,,,,,,,146,F,hexagon,1,0,,,,,,,,,,,,,,,,switch,number,numSwt,d,0.8885,Hi,,,,,,1,,,,,,,,high,11,0,11,0,1,,,,,,,,,
295363,2022-12-05_22h41.00.486,vts_reward_expectancy_bt,2022.2.4,MacIntel,60.0024001,Chrome,1440,900,,,,,0,725,,,,,,,,,,,,,,,,,181,S,hexagon,1,0,,,,,,,,,,,,,,,,repeat,number,numRpt,f,0.8968,Hi,,,,,,1,,,,,,,,high,12,0,12,0,1,,,,,,,,,
295363,2022-12-05_22h41.00.486,vts_reward_expectancy_bt,2022.2.4,MacIntel,60.0024001,Chrome,1440,900,,,,,1,726,,,,,,,,,,,,,,,,,125,Y,star,1,0,,,,,,,,,,,,,,,,repeat,number,numRpt,d,0.8634,Lo,,,,,,1,,,,,,,,high,13,0,13,0,1,,,,,,,,,
295363,2022-12-05_22h41.00.486,vts_reward_expectancy_bt,2022.2.4,MacIntel,60.0024001,Chrome,1440,900,,,,,0,726,,,,,,,,,,,,,,,,,167,B,triangle,1,0,,,,,,,,,,,,,,,,switch,letter,lettSwt,j,0.7309,Hi,,,,,,1,,,,,,,,high,14,0,14,0,1,,,,,,,,,
295363,2022-12-05_22h41.00.486,vts_reward_expectancy_bt,2022.2.4,MacIntel,60.0024001,Chrome,1440,900,,,,,10,736,,,,,,,,,,,,,,,,,160,U,circle,1,0,,,,,,,,,,,,,,,,repeat,letter,lettRpt,k,0.8356,Lo,,,,,,1,,,,,,,,high,15,0,15,0,1,,,,,,,,,
295363,2022-12-05_22h41.00.486,vts_reward_expectancy_bt,2022.2.4,MacIntel,60.0024001,Chrome,1440,900,,,,,10,746,,,,,,,,,,,,,,,,,132,U,triangle,1,0,,,,,,,,,,,,,,,,repeat,letter,lettRpt,k,0.5833,Hi,,,,,,1,,,,,,,,high,16,0,16,0,1,,,,,,,,,
295363,2022-12-05_22h41.00.486,vts_reward_expectancy_bt,2022.2.4,MacIntel,60.0024001,Chrome,1440,900,,,,,1,747,,,,,,,,,,,,,,,,,174,D,circle,1,0,,,,,,,,,,,,,,,,repeat,letter,lettRpt,j,0.6795,Lo,,,,,,1,,,,,,,,high,17,0,17,0,1,,,,,,,,,
295363,2022-12-05_22h41.00.486,vts_reward_expectancy_bt,2022.2.4,MacIntel,60.0024001,Chrome,1440,900,,,,,0,747,,,,,,,,,,,,,,,,,139,H,hexagon,0,0,,,,,,,,,,,,,,,,repeat,letter,NA,k,0.9376,Lo,,,,,,1,,,,,,,,high,18,0,18,0,1,,,,,,,,,
295363,2022-12-05_22h41.00.486,vts_reward_expectancy_bt,2022.2.4,MacIntel,60.0024001,Chrome,1440,900,,,,,1,748,,,,,,,,,,,,,,,,,167,W,star,1,1,,,,,,,,,,,,,,,,repeat,letter,lettRpt,k,0.6194,Lo,,,,,,1,,,,,,,,high,19,0,19,0,1,,,,,,,,,
295363,2022-12-05_22h41.00.486,vts_reward_expectancy_bt,2022.2.4,MacIntel,60.0024001,Chrome,1440,900,,,,,0,748,,,,,,,,,,,,,,,,,125,F,triangle,1,0,,,,,,,,,,,,,,,,repeat,letter,lettRpt,j,0.8981,Hi,,,,,,1,,,,,,,,high,20,0,20,0,1,,,,,,,,,
295363,2022-12-05_22h41.00.486,vts_reward_expectancy_bt,2022.2.4,MacIntel,60.0024001,Chrome,1440,900,,,,,1,749,,,,,,,,,,,,,,,,,160,B,star,1,0,,,,,,,,,,,,,,,,switch,number,numSwt,f,0.8721,Lo,,,,,,1,,,,,,,,high,21,0,21,0,1,,,,,,,,,
295363,2022-12-05_22h41.00.486,vts_reward_expectancy_bt,2022.2.4,MacIntel,60.0024001,Chrome,1440,900,,,,,0,749,,,,,,,,,,,,,,,,,146,Y,hexagon,1,0,,,,,,,,,,,,,,,,switch,letter,lettSwt,k,0.8654,Hi,,,,,,1,,,,,,,,high,22,0,22,0,1,,,,,,,,,
295363,2022-12-05_22h41.00.486,vts_reward_expectancy_bt,2022.2.4,MacIntel,60.0024001,Chrome,1440,900,,,,,1,750,,,,,,,,,,,,,,,,,181,S,circle,1,0,,,,,,,,,,,,,,,,switch,number,numSwt,f,0.6459,Lo,,,,,,1,,,,,,,,high,23,0,23,0,1,,,,,,,,,
295363,2022-12-05_22h41.00.486,vts_reward_expectancy_bt,2022.2.4,MacIntel,60.0024001,Chrome,1440,900,,,,,0,750,,,,,,,,,,,,,,,,,125,F,hexagon,1,0,,,,,,,,,,,,,,,,switch,letter,lettSwt,j,0.7326,Hi,,,,,,1,,,,,,,,high,24,0,24,0,1,,,,,,,,,
295363,2022-12-05_22h41.00.486,vts_reward_expectancy_bt,2022.2.4,MacIntel,60.0024001,Chrome,1440,900,,,,,1,751,,,,,,,,,,,,,,,,,181,W,circle,1,0,,,,,,,,,,,,,,,,repeat,letter,lettRpt,k,0.785,Lo,,,,,,1,,,,,,,,high,25,0,25,0,1,,,,,,,,,
295363,2022-12-05_22h41.00.486,vts_reward_expectancy_bt,2022.2.4,MacIntel,60.0024001,Chrome,1440,900,,,,,10,761,,,,,,,,,,,,,,,,,174,S,triangle,1,0,,,,,,,,,,,,,,,,switch,number,numSwt,f,0.5107,Hi,,,,,,1,,,,,,,,high,26,0,26,0,1,,,,,,,,,
295363,2022-12-05_22h41.00.486,vts_reward_expectancy_bt,2022.2.4,MacIntel,60.0024001,Chrome,1440,900,,,,,0,761,,,,,,,,,,,,,,,,,160,U,star,0,0,,,,,,,,,,,,,,,,switch,letter,NA,j,1.1948,Hi,,,,,,1,,,,,,,,high,27,0,27,0,1,,,,,,,,,
295363,2022-12-05_22h41.00.486,vts_reward_expectancy_bt,2022.2.4,MacIntel,60.0024001,Chrome,1440,900,,,,,0,761,,,,,,,,,,,,,,,,,132,D,hexagon,1,1,,,,,,,,,,,,,,,,repeat,letter,lettRpt,j,1.1714,Hi,,,,,,1,,,,,,,,high,28,0,28,0,1,,,,,,,,,
295363,2022-12-05_22h41.00.486,vts_reward_expectancy_bt,2022.2.4,MacIntel,60.0024001,Chrome,1440,900,,,,,1,762,,,,,,,,,,,,,,,,,167,B,circle,1,0,,,,,,,,,,,,,,,,switch,number,numSwt,f,1.1184,Lo,,,,,,1,,,,,,,,high,29,0,29,0,1,,,,,,,,,
295363,2022-12-05_22h41.00.486,vts_reward_expectancy_bt,2022.2.4,MacIntel,60.0024001,Chrome,1440,900,,,,,0,762,,,,,,,,,,,,,,,,,139,H,triangle,1,0,,,,,,,,,,,,,,,,switch,letter,lettSwt,j,1.3299,Hi,,,,,,1,,,,,,,,high,30,0,30,0,1,,,,,,,,,
295363,2022-12-05_22h41.00.486,vts_reward_expectancy_bt,2022.2.4,MacIntel,60.0024001,Chrome,1440,900,,,,,1,763,,,,,,,,,,,,,,,,,146,Y,star,1,0,,,,,,,,,,,,,,,,repeat,letter,lettRpt,k,1.0021,Lo,,,,,,1,,,,,,,,high,31,0,31,0,1,,,,,,,,,
295363,2022-12-05_22h41.00.486,vts_reward_expectancy_bt,2022.2.4,MacIntel,60.0024001,Chrome,1440,900,,,,,0,763,,,,,,,,,,,,,,,,,132,Y,triangle,1,0,,,,,,,,,,,,,,,,repeat,letter,lettRpt,k,0.9911,Hi,,,,,,2,,,,,,space,0.9746,high,0,0,0,0,1,,,,,,,,,
295363,2022-12-05_22h41.00.486,vts_reward_expectancy_bt,2022.2.4,MacIntel,60.0024001,Chrome,1440,900,,,,,0,763,,,,,,,,,,,,,,,,,125,H,hexagon,1,0,,,,,,,,,,,,,,,,repeat,letter,lettRpt,j,0.7022,Hi,,,,,,2,,,,,,,,high,1,0,1,0,1,,,,,,,,,
295363,2022-12-05_22h41.00.486,vts_reward_expectancy_bt,2022.2.4,MacIntel,60.0024001,Chrome,1440,900,,,,,1,764,,,,,,,,,,,,,,,,,167,D,circle,1,0,,,,,,,,,,,,,,,,switch,number,numSwt,f,1.5604,Lo,,,,,,2,,,,,,,,high,2,0,2,0,1,,,,,,,,,
295363,2022-12-05_22h41.00.486,vts_reward_expectancy_bt,2022.2.4,MacIntel,60.0024001,Chrome,1440,900,,,,,1,765,,,,,,,,,,,,,,,,,139,U,star,1,0,,,,,,,,,,,,,,,,repeat,number,numRpt,d,0.7645,Lo,,,,,,2,,,,,,,,high,3,0,3,0,1,,,,,,,,,
295363,2022-12-05_22h41.00.486,vts_reward_expectancy_bt,2022.2.4,MacIntel,60.0024001,Chrome,1440,900,,,,,0,765,,,,,,,,,,,,,,,,,174,F,triangle,1,0,,,,,,,,,,,,,,,,repeat,number,numRpt,f,1.1707,Hi,,,,,,2,,,,,,,,high,4,0,4,0,1,,,,,,,,,
295363,2022-12-05_22h41.00.486,vts_reward_expectancy_bt,2022.2.4,MacIntel,60.0024001,Chrome,1440,900,,,,,0,765,,,,,,,,,,,,,,,,,160,W,hexagon,1,0,,,,,,,,,,,,,,,,repeat,number,numRpt,f,0.9103,Hi,,,,,,2,,,,,,,,high,5,0,5,0,1,,,,,,,,,
295363,2022-12-05_22h41.00.486,vts_reward_expectancy_bt,2022.2.4,MacIntel,60.0024001,Chrome,1440,900,,,,,1,766,,,,,,,,,,,,,,,,,181,S,circle,1,0,,,,,,,,,,,,,,,,switch,letter,lettSwt,k,1.1453,Lo,,,,,,2,,,,,,,,high,6,0,6,0,1,,,,,,,,,
295363,2022-12-05_22h41.00.486,vts_reward_expectancy_bt,2022.2.4,MacIntel,60.0024001,Chrome,1440,900,,,,,1,767,,,,,,,,,,,,,,,,,146,B,star,1,0,,,,,,,,,,,,,,,,switch,number,numSwt,d,0.664,Lo,,,,,,2,,,,,,,,high,7,0,7,0,1,,,,,,,,,
295363,2022-12-05_22h41.00.486,vts_reward_expectancy_bt,2022.2.4,MacIntel,60.0024001,Chrome,1440,900,,,,,1,768,,,,,,,,,,,,,,,,,132,Y,hexagon,1,0,,,,,,,,,,,,,,,,switch,letter,lettSwt,k,0.6049,Hi,,,,,,2,,,,,,,,high,8,0,8,0,1,,,,,,,,,
295363,2022-12-05_22h41.00.486,vts_reward_expectancy_bt,2022.2.4,MacIntel,60.0024001,Chrome,1440,900,,,,,10,778,,,,,,,,,,,,,,,,,125,H,triangle,1,0,,,,,,,,,,,,,,,,repeat,letter,lettRpt,j,0.5522,Hi,,,,,,2,,,,,,,,high,9,0,9,0,1,,,,,,,,,
295363,2022-12-05_22h41.00.486,vts_reward_expectancy_bt,2022.2.4,MacIntel,60.0024001,Chrome,1440,900,,,,,1,779,,,,,,,,,,,,,,,,,167,D,circle,1,0,,,,,,,,,,,,,,,,repeat,letter,lettRpt,j,0.6103,Lo,,,,,,2,,,,,,,,high,10,0,10,0,1,,,,,,,,,
295363,2022-12-05_22h41.00.486,vts_reward_expectancy_bt,2022.2.4,MacIntel,60.0024001,Chrome,1440,900,,,,,1,780,,,,,,,,,,,,,,,,,139,U,star,1,0,,,,,,,,,,,,,,,,switch,number,numSwt,d,0.6053,Lo,,,,,,2,,,,,,,,high,11,0,11,0,1,,,,,,,,,
295363,2022-12-05_22h41.00.486,vts_reward_expectancy_bt,2022.2.4,MacIntel,60.0024001,Chrome,1440,900,,,,,1,781,,,,,,,,,,,,,,,,,174,F,star,1,0,,,,,,,,,,,,,,,,repeat,number,numRpt,f,0.5293,Lo,,,,,,2,,,,,,,,high,12,0,12,0,1,,,,,,,,,
295363,2022-12-05_22h41.00.486,vts_reward_expectancy_bt,2022.2.4,MacIntel,60.0024001,Chrome,1440,900,,,,,1,782,,,,,,,,,,,,,,,,,160,W,hexagon,1,0,,,,,,,,,,,,,,,,repeat,number,numRpt,f,0.6948,Hi,,,,,,2,,,,,,,,high,13,0,13,0,1,,,,,,,,,
295363,2022-12-05_22h41.00.486,vts_reward_expectancy_bt,2022.2.4,MacIntel,60.0024001,Chrome,1440,900,,,,,10,792,,,,,,,,,,,,,,,,,181,S,triangle,1,0,,,,,,,,,,,,,,,,repeat,number,numRpt,f,0.5873,Hi,,,,,,2,,,,,,,,high,14,0,14,0,1,,,,,,,,,
295363,2022-12-05_22h41.00.486,vts_reward_expectancy_bt,2022.2.4,MacIntel,60.0024001,Chrome,1440,900,,,,,10,802,,,,,,,,,,,,,,,,,146,B,circle,1,0,,,,,,,,,,,,,,,,repeat,number,numRpt,d,0.6145,Lo,,,,,,2,,,,,,,,high,15,0,15,0,1,,,,,,,,,
295363,2022-12-05_22h41.00.486,vts_reward_expectancy_bt,2022.2.4,MacIntel,60.0024001,Chrome,1440,900,,,,,10,812,,,,,,,,,,,,,,,,,139,F,triangle,1,0,,,,,,,,,,,,,,,,switch,letter,lettSwt,j,0.647,Hi,,,,,,2,,,,,,,,high,16,0,16,0,1,,,,,,,,,
295363,2022-12-05_22h41.00.486,vts_reward_expectancy_bt,2022.2.4,MacIntel,60.0024001,Chrome,1440,900,,,,,10,822,,,,,,,,,,,,,,,,,146,Y,hexagon,1,0,,,,,,,,,,,,,,,,repeat,letter,lettRpt,k,0.5944,Hi,,,,,,2,,,,,,,,high,17,0,17,0,1,,,,,,,,,
295363,2022-12-05_22h41.00.486,vts_reward_expectancy_bt,2022.2.4,MacIntel,60.0024001,Chrome,1440,900,,,,,10,832,,,,,,,,,,,,,,,,,132,D,star,1,0,,,,,,,,,,,,,,,,repeat,letter,lettRpt,j,0.619,Lo,,,,,,2,,,,,,,,high,18,0,18,0,1,,,,,,,,,
295363,2022-12-05_22h41.00.486,vts_reward_expectancy_bt,2022.2.4,MacIntel,60.0024001,Chrome,1440,900,,,,,1,833,,,,,,,,,,,,,,,,,160,W,circle,1,0,,,,,,,,,,,,,,,,repeat,letter,lettRpt,k,0.5558,Lo,,,,,,2,,,,,,,,high,19,0,19,0,1,,,,,,,,,
295363,2022-12-05_22h41.00.486,vts_reward_expectancy_bt,2022.2.4,MacIntel,60.0024001,Chrome,1440,900,,,,,1,834,,,,,,,,,,,,,,,,,181,H,star,1,0,,,,,,,,,,,,,,,,repeat,letter,lettRpt,j,0.7206,Lo,,,,,,2,,,,,,,,high,20,0,20,0,1,,,,,,,,,
295363,2022-12-05_22h41.00.486,vts_reward_expectancy_bt,2022.2.4,MacIntel,60.0024001,Chrome,1440,900,,,,,0,834,,,,,,,,,,,,,,,,,167,U,triangle,1,0,,,,,,,,,,,,,,,,switch,number,numSwt,f,0.8989,Hi,,,,,,2,,,,,,,,high,21,0,21,0,1,,,,,,,,,
295363,2022-12-05_22h41.00.486,vts_reward_expectancy_bt,2022.2.4,MacIntel,60.0024001,Chrome,1440,900,,,,,10,844,,,,,,,,,,,,,,,,,174,B,circle,1,0,,,,,,,,,,,,,,,,repeat,number,numRpt,f,0.5892,Lo,,,,,,2,,,,,,,,high,22,0,22,0,1,,,,,,,,,
295363,2022-12-05_22h41.00.486,vts_reward_expectancy_bt,2022.2.4,MacIntel,60.0024001,Chrome,1440,900,,,,,10,854,,,,,,,,,,,,,,,,,125,S,hexagon,1,0,,,,,,,,,,,,,,,,repeat,number,numRpt,d,0.6449,Hi,,,,,,2,,,,,,,,high,23,0,23,0,1,,,,,,,,,
295363,2022-12-05_22h41.00.486,vts_reward_expectancy_bt,2022.2.4,MacIntel,60.0024001,Chrome,1440,900,,,,,1,855,,,,,,,,,,,,,,,,,125,U,circle,1,0,,,,,,,,,,,,,,,,repeat,number,numRpt,d,1.0181,Lo,,,,,,2,,,,,,,,high,24,0,24,0,1,,,,,,,,,
295363,2022-12-05_22h41.00.486,vts_reward_expectancy_bt,2022.2.4,MacIntel,60.0024001,Chrome,1440,900,,,,,10,865,,,,,,,,,,,,,,,,,174,H,hexagon,1,0,,,,,,,,,,,,,,,,repeat,number,numRpt,f,0.646,Hi,,,,,,2,,,,,,,,high,25,0,25,0,1,,,,,,,,,
295363,2022-12-05_22h41.00.486,vts_reward_expectancy_bt,2022.2.4,MacIntel,60.0024001,Chrome,1440,900,,,,,1,866,,,,,,,,,,,,,,,,,132,S,star,1,0,,,,,,,,,,,,,,,,repeat,number,numRpt,d,0.5787,Lo,,,,,,2,,,,,,,,high,26,0,26,0,1,,,,,,,,,
295363,2022-12-05_22h41.00.486,vts_reward_expectancy_bt,2022.2.4,MacIntel,60.0024001,Chrome,1440,900,,,,,10,876,,,,,,,,,,,,,,,,,160,B,triangle,1,0,,,,,,,,,,,,,,,,switch,letter,lettSwt,j,0.57,Hi,,,,,,2,,,,,,,,high,27,0,27,0,1,,,,,,,,,
295363,2022-12-05_22h41.00.486,vts_reward_expectancy_bt,2022.2.4,MacIntel,60.0024001,Chrome,1440,900,,,,,1,877,,,,,,,,,,,,,,,,,181,W,star,1,0,,,,,,,,,,,,,,,,repeat,letter,lettRpt,k,0.6618,Lo,,,,,,2,,,,,,,,high,28,0,28,0,1,,,,,,,,,
295363,2022-12-05_22h41.00.486,vts_reward_expectancy_bt,2022.2.4,MacIntel,60.0024001,Chrome,1440,900,,,,,1,878,,,,,,,,,,,,,,,,,146,F,triangle,1,0,,,,,,,,,,,,,,,,repeat,letter,lettRpt,j,0.5868,Hi,,,,,,2,,,,,,,,high,29,0,29,0,1,,,,,,,,,
295363,2022-12-05_22h41.00.486,vts_reward_expectancy_bt,2022.2.4,MacIntel,60.0024001,Chrome,1440,900,,,,,10,888,,,,,,,,,,,,,,,,,139,Y,circle,1,0,,,,,,,,,,,,,,,,repeat,letter,lettRpt,k,0.705,Lo,,,,,,2,,,,,,,,high,30,0,30,0,1,,,,,,,,,
295363,2022-12-05_22h41.00.486,vts_reward_expectancy_bt,2022.2.4,MacIntel,60.0024001,Chrome,1440,900,,,,,10,898,,,,,,,,,,,,,,,,,167,D,hexagon,1,0,,,,,,,,,,,,,,,,repeat,letter,lettRpt,j,0.6644,Hi,,,,,,2,,,,,,,,high,31,0,31,0,1,,,,,,,,,
295363,2022-12-05_22h41.00.486,vts_reward_expectancy_bt,2022.2.4,MacIntel,60.0024001,Chrome,1440,900,,,,,1,899,,,,,,,,,,,,,,,,,146,D,circle,1,0,,,,,,,,,,,,,,,,repeat,letter,lettRpt,j,0.8328,Lo,,,,,,3,,,,,,space,3.6608,high,0,0,0,0,1,,,,,,,,,
295363,2022-12-05_22h41.00.486,vts_reward_expectancy_bt,2022.2.4,MacIntel,60.0024001,Chrome,1440,900,,,,,0,899,,,,,,,,,,,,,,,,,139,U,hexagon,1,0,,,,,,,,,,,,,,,,repeat,letter,lettRpt,k,0.8304,Hi,,,,,,3,,,,,,,,high,1,0,1,0,1,,,,,,,,,
295363,2022-12-05_22h41.00.486,vts_reward_expectancy_bt,2022.2.4,MacIntel,60.0024001,Chrome,1440,900,,,,,1,900,,,,,,,,,,,,,,,,,132,S,triangle,1,0,,,,,,,,,,,,,,,,repeat,letter,lettRpt,k,0.5787,Hi,,,,,,3,,,,,,,,high,2,0,2,0,1,,,,,,,,,
295363,2022-12-05_22h41.00.486,vts_reward_expectancy_bt,2022.2.4,MacIntel,60.0024001,Chrome,1440,900,,,,,10,910,,,,,,,,,,,,,,,,,181,B,star,1,0,,,,,,,,,,,,,,,,repeat,letter,lettRpt,j,0.5452,Lo,,,,,,3,,,,,,,,high,3,0,3,0,1,,,,,,,,,
295363,2022-12-05_22h41.00.486,vts_reward_expectancy_bt,2022.2.4,MacIntel,60.0024001,Chrome,1440,900,,,,,1,911,,,,,,,,,,,,,,,,,167,F,circle,1,0,,,,,,,,,,,,,,,,switch,number,numSwt,f,0.4986,Lo,,,,,,3,,,,,,,,high,4,0,4,0,1,,,,,,,,,
295363,2022-12-05_22h41.00.486,vts_reward_expectancy_bt,2022.2.4,MacIntel,60.0024001,Chrome,1440,900,,,,,0,911,,,,,,,,,,,,,,,,,125,H,hexagon,1,0,,,,,,,,,,,,,,,,repeat,number,numRpt,d,0.6653,Hi,,,,,,3,,,,,,,,high,5,0,5,0,1,,,,,,,,,
295363,2022-12-05_22h41.00.486,vts_reward_expectancy_bt,2022.2.4,MacIntel,60.0024001,Chrome,1440,900,,,,,10,921,,,,,,,,,,,,,,,,,174,W,triangle,1,0,,,,,,,,,,,,,,,,repeat,number,numRpt,f,0.4817,Hi,,,,,,3,,,,,,,,high,6,0,6,0,1,,,,,,,,,
295363,2022-12-05_22h41.00.486,vts_reward_expectancy_bt,2022.2.4,MacIntel,60.0024001,Chrome,1440,900,,,,,10,931,,,,,,,,,,,,,,,,,160,Y,star,1,0,,,,,,,,,,,,,,,,switch,letter,lettSwt,k,0.6296,Lo,,,,,,3,,,,,,,,high,7,0,7,0,1,,,,,,,,,
295363,2022-12-05_22h41.00.486,vts_reward_expectancy_bt,2022.2.4,MacIntel,60.0024001,Chrome,1440,900,,,,,1,932,,,,,,,,,,,,,,,,,146,D,star,1,0,,,,,,,,,,,,,,,,switch,number,numSwt,d,0.7432,Lo,,,,,,3,,,,,,,,high,8,0,8,0,1,,,,,,,,,
295363,2022-12-05_22h41.00.486,vts_reward_expectancy_bt,2022.2.4,MacIntel,60.0024001,Chrome,1440,900,,,,,10,942,,,,,,,,,,,,,,,,,139,U,circle,1,0,,,,,,,,,,,,,,,,repeat,number,numRpt,d,0.6202,Lo,,,,,,3,,,,,,,,high,9,0,9,0,1,,,,,,,,,
295363,2022-12-05_22h41.00.486,vts_reward_expectancy_bt,2022.2.4,MacIntel,60.0024001,Chrome,1440,900,,,,,0,942,,,,,,,,,,,,,,,,,132,S,triangle,1,0,,,,,,,,,,,,,,,,switch,letter,lettSwt,k,0.6351,Hi,,,,,,3,,,,,,,,high,10,0,10,0,1,,,,,,,,,
295363,2022-12-05_22h41.00.486,vts_reward_expectancy_bt,2022.2.4,MacIntel,60.0024001,Chrome,1440,900,,,,,0,942,,,,,,,,,,,,,,,,,181,B,hexagon,1,0,,,,,,,,,,,,,,,,repeat,letter,lettRpt,j,1.0835,Hi,,,,,,3,,,,,,,,high,11,0,11,0,1,,,,,,,,,
295363,2022-12-05_22h41.00.486,vts_reward_expectancy_bt,2022.2.4,MacIntel,60.0024001,Chrome,1440,900,,,,,0,942,,,,,,,,,,,,,,,,,167,F,hexagon,1,0,,,,,,,,,,,,,,,,repeat,letter,lettRpt,j,0.6088,Hi,,,,,,3,,,,,,,,high,12,0,12,0,1,,,,,,,,,
295363,2022-12-05_22h41.00.486,vts_reward_expectancy_bt,2022.2.4,MacIntel,60.0024001,Chrome,1440,900,,,,,1,943,,,,,,,,,,,,,,,,,125,H,star,1,0,,,,,,,,,,,,,,,,repeat,letter,lettRpt,j,0.7017,Lo,,,,,,3,,,,,,,,high,13,0,13,0,1,,,,,,,,,
295363,2022-12-05_22h41.00.486,vts_reward_expectancy_bt,2022.2.4,MacIntel,60.0024001,Chrome,1440,900,,,,,1,944,,,,,,,,,,,,,,,,,174,W,circle,1,0,,,,,,,,,,,,,,,,repeat,letter,lettRpt,k,0.7476,Lo,,,,,,3,,,,,,,,high,14,0,14,0,1,,,,,,,,,
295363,2022-12-05_22h41.00.486,vts_reward_expectancy_bt,2022.2.4,MacIntel,60.0024001,Chrome,1440,900,,,,,0,944,,,,,,,,,,,,,,,,,160,Y,triangle,1,0,,,,,,,,,,,,,,,,repeat,letter,lettRpt,k,0.6149,Hi,,,,,,3,,,,,,,,high,15,0,15,0,1,,,,,,,,,
295363,2022-12-05_22h41.00.486,vts_reward_expectancy_bt,2022.2.4,MacIntel,60.0024001,Chrome,1440,900,,,,,0,944,,,,,,,,,,,,,,,,,146,F,triangle,1,0,,,,,,,,,,,,,,,,switch,number,numSwt,d,0.8155,Hi,,,,,,3,,,,,,,,high,16,0,16,0,1,,,,,,,,,
295363,2022-12-05_22h41.00.486,vts_reward_expectancy_bt,2022.2.4,MacIntel,60.0024001,Chrome,1440,900,,,,,0,944,,,,,,,,,,,,,,,,,125,B,hexagon,1,0,,,,,,,,,,,,,,,,repeat,number,numRpt,d,0.7484,Hi,,,,,,3,,,,,,,,high,17,0,17,0,1,,,,,,,,,
295363,2022-12-05_22h41.00.486,vts_reward_expectancy_bt,2022.2.4,MacIntel,60.0024001,Chrome,1440,900,,,,,1,945,,,,,,,,,,,,,,,,,167,U,star,1,0,,,,,,,,,,,,,,,,repeat,number,numRpt,f,0.5288,Lo,,,,,,3,,,,,,,,high,18,0,18,0,1,,,,,,,,,
295363,2022-12-05_22h41.00.486,vts_reward_expectancy_bt,2022.2.4,MacIntel,60.0024001,Chrome,1440,900,,,,,10,955,,,,,,,,,,,,,,,,,139,W,circle,1,0,,,,,,,,,,,,,,,,repeat,number,numRpt,d,0.5871,Lo,,,,,,3,,,,,,,,high,19,0,19,0,1,,,,,,,,,
295363,2022-12-05_22h41.00.486,vts_reward_expectancy_bt,2022.2.4,MacIntel,60.0024001,Chrome,1440,900,,,,,1,956,,,,,,,,,,,,,,,,,132,D,star,1,0,,,,,,,,,,,,,,,,repeat,number,numRpt,d,0.5809,Lo,,,,,,3,,,,,,,,high,20,0,20,0,1,,,,,,,,,
295363,2022-12-05_22h41.00.486,vts_reward_expectancy_bt,2022.2.4,MacIntel,60.0024001,Chrome,1440,900,,,,,0,956,,,,,,,,,,,,,,,,,174,Y,triangle,1,0,,,,,,,,,,,,,,,,repeat,number,numRpt,f,1.1156,Hi,,,,,,3,,,,,,,,high,21,0,21,0,1,,,,,,,,,
295363,2022-12-05_22h41.00.486,vts_reward_expectancy_bt,2022.2.4,MacIntel,60.0024001,Chrome,1440,900,,,,,1,957,,,,,,,,,,,,,,,,,181,S,circle,1,0,,,,,,,,,,,,,,,,repeat,number,numRpt,f,0.6454,Lo,,,,,,3,,,,,,,,high,22,0,22,0,1,,,,,,,,,
295363,2022-12-05_22h41.00.486,vts_reward_expectancy_bt,2022.2.4,MacIntel,60.0024001,Chrome,1440,900,,,,,0,957,,,,,,,,,,,,,,,,,160,H,hexagon,1,0,,,,,,,,,,,,,,,,switch,letter,lettSwt,j,0.6438,Hi,,,,,,3,,,,,,,,high,23,0,23,0,1,,,,,,,,,
295363,2022-12-05_22h41.00.486,vts_reward_expectancy_bt,2022.2.4,MacIntel,60.0024001,Chrome,1440,900,,,,,1,958,,,,,,,,,,,,,,,,,146,W,star,1,0,,,,,,,,,,,,,,,,repeat,letter,lettRpt,k,0.6695,Lo,,,,,,3,,,,,,,,high,24,0,24,0,1,,,,,,,,,
295363,2022-12-05_22h41.00.486,vts_reward_expectancy_bt,2022.2.4,MacIntel,60.0024001,Chrome,1440,900,,,,,0,958,,,,,,,,,,,,,,,,,132,D,triangle,1,0,,,,,,,,,,,,,,,,repeat,letter,lettRpt,j,0.9279,Hi,,,,,,3,,,,,,,,high,25,0,25,0,1,,,,,,,,,
295363,2022-12-05_22h41.00.486,vts_reward_expectancy_bt,2022.2.4,MacIntel,60.0024001,Chrome,1440,900,,,,,10,968,,,,,,,,,,,,,,,,,181,B,circle,1,0,,,,,,,,,,,,,,,,repeat,letter,lettRpt,j,0.9213,Lo,,,,,,3,,,,,,,,high,26,0,26,0,1,,,,,,,,,
295363,2022-12-05_22h41.00.486,vts_reward_expectancy_bt,2022.2.4,MacIntel,60.0024001,Chrome,1440,900,,,,,0,968,,,,,,,,,,,,,,,,,139,U,hexagon,0,0,,,,,,,,,,,,,,,,repeat,letter,NA,j,0.7819,Lo,,,,,,3,,,,,,,,high,27,0,27,0,1,,,,,,,,,
295363,2022-12-05_22h41.00.486,vts_reward_expectancy_bt,2022.2.4,MacIntel,60.0024001,Chrome,1440,900,,,,,0,968,,,,,,,,,,,,,,,,,160,Y,hexagon,1,1,,,,,,,,,,,,,,,,repeat,letter,lettRpt,k,0.7838,Hi,,,,,,3,,,,,,,,high,28,0,28,0,1,,,,,,,,,
295363,2022-12-05_22h41.00.486,vts_reward_expectancy_bt,2022.2.4,MacIntel,60.0024001,Chrome,1440,900,,,,,1,969,,,,,,,,,,,,,,,,,174,F,star,1,0,,,,,,,,,,,,,,,,repeat,letter,lettRpt,j,0.6979,Lo,,,,,,3,,,,,,,,high,29,0,29,0,1,,,,,,,,,
295363,2022-12-05_22h41.00.486,vts_reward_expectancy_bt,2022.2.4,MacIntel,60.0024001,Chrome,1440,900,,,,,10,979,,,,,,,,,,,,,,,,,125,S,triangle,1,0,,,,,,,,,,,,,,,,repeat,letter,lettRpt,k,0.571,Hi,,,,,,3,,,,,,,,high,30,0,30,0,1,,,,,,,,,
295363,2022-12-05_22h41.00.486,vts_reward_expectancy_bt,2022.2.4,MacIntel,60.0024001,Chrome,1440,900,,,,,10,989,,,,,,,,,,,,,,,,,167,H,circle,1,0,,,,,,,,,,,,,,,,repeat,letter,lettRpt,j,0.8461,Lo,,,,,,3,,,,,,,,high,31,0,31,0,1,,,,,,,,,
295363,2022-12-05_22h41.00.486,vts_reward_expectancy_bt,2022.2.4,MacIntel,60.0024001,Chrome,1440,900,,,,,0,989,,,,,,,,,,,,,,,,,139,D,hexagon,1,0,,,,,,,,,,,,,,,,switch,number,numSwt,d,1.0218,Hi,,,,,,4,,,,,,space,1.2763,high,0,0,0,0,1,,,,,,,,,
295363,2022-12-05_22h41.00.486,vts_reward_expectancy_bt,2022.2.4,MacIntel,60.0024001,Chrome,1440,900,,,,,1,990,,,,,,,,,,,,,,,,,174,F,circle,1,0,,,,,,,,,,,,,,,,repeat,number,numRpt,f,0.5917,Lo,,,,,,4,,,,,,,,high,1,0,1,0,1,,,,,,,,,
295363,2022-12-05_22h41.00.486,vts_reward_expectancy_bt,2022.2.4,MacIntel,60.0024001,Chrome,1440,900,,,,,1,991,,,,,,,,,,,,,,,,,125,W,star,1,0,,,,,,,,,,,,,,,,switch,letter,lettSwt,k,2.8793,Lo,,,,,,4,,,,,,,,high,2,0,2,0,1,,,,,,,,,
295363,2022-12-05_22h41.00.486,vts_reward_expectancy_bt,2022.2.4,MacIntel,60.0024001,Chrome,1440,900,,,,,0,991,,,,,,,,,,,,,,,,,132,H,triangle,1,0,,,,,,,,,,,,,,,,switch,number,numSwt,d,0.6955,Hi,,,,,,4,,,,,,,,high,3,0,3,0,1,,,,,,,,,
295363,2022-12-05_22h41.00.486,vts_reward_expectancy_bt,2022.2.4,MacIntel,60.0024001,Chrome,1440,900,,,,,10,1001,,,,,,,,,,,,,,,,,146,U,hexagon,1,0,,,,,,,,,,,,,,,,repeat,number,numRpt,d,0.4704,Hi,,,,,,4,,,,,,,,high,4,0,4,0,1,,,,,,,,,
295363,2022-12-05_22h41.00.486,vts_reward_expectancy_bt,2022.2.4,MacIntel,60.0024001,Chrome,1440,900,,,,,1,1002,,,,,,,,,,,,,,,,,167,Y,circle,1,0,,,,,,,,,,,,,,,,repeat,number,numRpt,f,0.5312,Lo,,,,,,4,,,,,,,,high,5,0,5,0,1,,,,,,,,,
295363,2022-12-05_22h41.00.486,vts_reward_expectancy_bt,2022.2.4,MacIntel,60.0024001,Chrome,1440,900,,,,,1,1003,,,,,,,,,,,,,,,,,160,B,star,1,0,,,,,,,,,,,,,,,,repeat,number,numRpt,f,0.645,Lo,,,,,,4,,,,,,,,high,6,0,6,0,1,,,,,,,,,
295363,2022-12-05_22h41.00.486,vts_reward_expectancy_bt,2022.2.4,MacIntel,60.0024001,Chrome,1440,900,,,,,10,1013,,,,,,,,,,,,,,,,,181,S,triangle,1,0,,,,,,,,,,,,,,,,repeat,number,numRpt,f,0.4997,Hi,,,,,,4,,,,,,,,high,7,0,7,0,1,,,,,,,,,
295363,2022-12-05_22h41.00.486,vts_reward_expectancy_bt,2022.2.4,MacIntel,60.0024001,Chrome,1440,900,,,,,10,1023,,,,,,,,,,,,,,,,,139,D,star,1,0,,,,,,,,,,,,,,,,switch,letter,lettSwt,j,0.6376,Lo,,,,,,4,,,,,,,,high,8,0,8,0,1,,,,,,,,,
295363,2022-12-05_22h41.00.486,vts_reward_expectancy_bt,2022.2.4,MacIntel,60.0024001,Chrome,1440,900,,,,,1,1024,,,,,,,,,,,,,,,,,174,F,circle,1,0,,,,,,,,,,,,,,,,switch,number,numSwt,f,0.6455,Lo,,,,,,4,,,,,,,,high,9,0,9,0,1,,,,,,,,,
295363,2022-12-05_22h41.00.486,vts_reward_expectancy_bt,2022.2.4,MacIntel,60.0024001,Chrome,1440,900,,,,,10,1034,,,,,,,,,,,,,,,,,125,W,hexagon,1,0,,,,,,,,,,,,,,,,repeat,number,numRpt,d,0.5296,Hi,,,,,,4,,,,,,,,high,10,0,10,0,1,,,,,,,,,
295363,2022-12-05_22h41.00.486,vts_reward_expectancy_bt,2022.2.4,MacIntel,60.0024001,Chrome,1440,900,,,,,1,1035,,,,,,,,,,,,,,,,,132,H,triangle,1,0,,,,,,,,,,,,,,,,switch,letter,lettSwt,j,0.6174,Hi,,,,,,4,,,,,,,,high,11,0,11,0,1,,,,,,,,,
