participant,date,expName,psychopyVersion,OS,frameRate,browser,xResolution,yResolution,key_resp.keys,key_resp.rt,training_resp.keys,training_resp.rt,points_trial,points_cumul,trainBlock,training.thisRepN,training.thisTrialN,training.thisN,training.thisIndex,training.ran,LTriangleOpac,LCircleOpac,LHexagonOpac,LStarOpac,RTriangleOpac,RCircleOpac,RHexagonOpac,RStarOpac,LShape_ID,RShape_ID,curr_topStim,curr_bottStim,curr_shape,acc,E1,target_resp_prac1.keys,pracBlock,task1_prac_trials.thisRepN,task1_prac_trials.thisTrialN,task1_prac_trials.thisN,task1_prac_trials.thisIndex,task1_prac_trials.ran,target_resp_prac1.rt,target_resp_prac2.keys,target_resp_prac2.rt,task2_praac_trials.thisRepN,task2_praac_trials.thisTrialN,task2_praac_trials.thisN,task2_praac_trials.thisIndex,task2_praac_trials.ran,alt,task,condition,target_resp.keys,rewCond,vts_practice_trials.thisRepN,vts_practice_trials.thisTrialN,vts_practice_trials.thisN,vts_practice_trials.thisIndex,vts_practice_trials.ran,target_resp.rt,blockNum,trials_norew.thisRepN,trials_norew.thisTrialN,trials_norew.thisN,trials_norew.thisIndex,trials_norew.ran,key_resp_2.keys,key_resp_2.rt,rewExpectancy,trials_rew.thisRepN,trials_rew.thisTrialN,trials_rew.thisN,trials_rew.thisIndex,trials_rew.ran,Q1,Q2,Q2_text,Q3,Q4,Q5_text,Q5,xRes,yRes
295405,2022-12-06_19h50.10.542,vts_reward_expectancy_bt,2022.2.4,Win32,29.92399306,Chrome,1280,720,,,,,,,,,,,,,,,,,,,,,,,,,,,,,,,,,,,,,,,,,,,,,,,,,,,,,,,,,,,,,,,,,,,,,,,,,,,,
295405,2022-12-06_19h50.10.542,vts_reward_expectancy_bt,2022.2.4,Win32,29.92399306,Chrome,1280,720,space,17.4254,,,,,,,,,,,,,,,,,,,,,,,,,,,,,,,,,,,,,,,,,,,,,,,,,,,,,,,,,,,,,,,,,,,,,,,,,,
295405,2022-12-06_19h50.10.542,vts_reward_expectancy_bt,2022.2.4,Win32,29.92399306,Chrome,1280,720,,,,,,,,,,,,,,,,,,,,,,,,,,,,,,,,,,,,,,,,,,,,,,,,,,,,,,,,,,,,,,,,,,,,,,,,,,,,
295405,2022-12-06_19h50.10.542,vts_reward_expectancy_bt,2022.2.4,Win32,29.92399306,Chrome,1280,720,,,l,2.7071,1,1,0,0,0,0,9,1,0,0,0,1,1,0,0,0,star,triangle,,,,,,,,,,,,,,,,,,,,,,,,,,,,,,,,,,,,,,,,,,,,,,,,,,,,,,
295405,2022-12-06_19h50.10.542,vts_reward_expectancy_bt,2022.2.4,Win32,29.92399306,Chrome,1280,720,,,l,3.0173,1,2,0,0,1,1,1,1,1,0,0,0,0,0,1,0,triangle,hexagon,,,,,,,,,,,,,,,,,,,,,,,,,,,,,,,,,,,,,,,,,,,,,,,,,,,,,,
295405,2022-12-06_19h50.10.542,vts_reward_expectancy_bt,2022.2.4,Win32,29.92399306,Chrome,1280,720,,,a,1.4168,1,3,0,0,2,2,10,1,0,0,0,1,0,1,0,0,star ,circle,,,,,,,,,,,,,,,,,,,,,,,,,,,,,,,,,,,,,,,,,,,,,,,,,,,,,,
295405,2022-12-06_19h50.10.542,vts_reward_expectancy_bt,2022.2.4,Win32,29.92399306,Chrome,1280,720,,,l,0.8525,1,4,0,0,3,3,3,1,0,1,0,0,1,0,0,0,circle,triangle,,,,,,,,,,,,,,,,,,,,,,,,,,,,,,,,,,,,,,,,,,,,,,,,,,,,,,
295405,2022-12-06_19h50.10.542,vts_reward_expectancy_bt,2022.2.4,Win32,29.92399306,Chrome,1280,720,,,l,2.0039,10,14,0,0,4,4,2,1,1,0,0,0,0,0,0,1,triangle,star,,,,,,,,,,,,,,,,,,,,,,,,,,,,,,,,,,,,,,,,,,,,,,,,,,,,,,
295405,2022-12-06_19h50.10.542,vts_reward_expectancy_bt,2022.2.4,Win32,29.92399306,Chrome,1280,720,,,l,1.8048,1,15,0,0,5,5,11,1,0,0,0,1,0,0,1,0,star,hexagon,,,,,,,,,,,,,,,,,,,,,,,,,,,,,,,,,,,,,,,,,,,,,,,,,,,,,,
295405,2022-12-06_19h50.10.542,vts_reward_expectancy_bt,2022.2.4,Win32,29.92399306,Chrome,1280,720,,,a,1.4481,1,16,0,0,6,6,8,1,0,0,1,0,0,0,0,1,hexagon,star,,,,,,,,,,,,,,,,,,,,,,,,,,,,,,,,,,,,,,,,,,,,,,,,,,,,,,
295405,2022-12-06_19h50.10.542,vts_reward_expectancy_bt,2022.2.4,Win32,29.92399306,Chrome,1280,720,,,a,2.4357,1,17,0,0,7,7,4,1,0,1,0,0,0,0,1,0,circle,hexagon,,,,,,,,,,,,,,,,,,,,,,,,,,,,,,,,,,,,,,,,,,,,,,,,,,,,,,
295405,2022-12-06_19h50.10.542,vts_reward_expectancy_bt,2022.2.4,Win32,29.92399306,Chrome,1280,720,,,l,1.9342,10,27,0,0,8,8,7,1,0,0,1,0,0,1,0,0,hexagon,circle,,,,,,,,,,,,,,,,,,,,,,,,,,,,,,,,,,,,,,,,,,,,,,,,,,,,,,
295405,2022-12-06_19h50.10.542,vts_reward_expectancy_bt,2022.2.4,Win32,29.92399306,Chrome,1280,720,,,a,1.1835,10,37,0,0,9,9,5,1,0,1,0,0,0,0,0,1,circle,star,,,,,,,,,,,,,,,,,,,,,,,,,,,,,,,,,,,,,,,,,,,,,,,,,,,,,,
295405,2022-12-06_19h50.10.542,vts_reward_expectancy_bt,2022.2.4,Win32,29.92399306,Chrome,1280,720,,,l,1.0679,10,47,0,0,10,10,0,1,1,0,0,0,0,1,0,0,triangle,circle,,,,,,,,,,,,,,,,,,,,,,,,,,,,,,,,,,,,,,,,,,,,,,,,,,,,,,
295405,2022-12-06_19h50.10.542,vts_reward_expectancy_bt,2022.2.4,Win32,29.92399306,Chrome,1280,720,,,l,1.6206,1,48,0,0,11,11,6,1,0,0,1,0,1,0,0,0,hexagon,triangle,,,,,,,,,,,,,,,,,,,,,,,,,,,,,,,,,,,,,,,,,,,,,,,,,,,,,,
295405,2022-12-06_19h50.10.542,vts_reward_expectancy_bt,2022.2.4,Win32,29.92399306,Chrome,1280,720,,,l,2.9968,1,49,0,1,0,12,11,1,0,0,0,1,0,0,1,0,star,hexagon,,,,,,,,,,,,,,,,,,,,,,,,,,,,,,,,,,,,,,,,,,,,,,,,,,,,,,
295405,2022-12-06_19h50.10.542,vts_reward_expectancy_bt,2022.2.4,Win32,29.92399306,Chrome,1280,720,,,a,1.1679,10,59,0,1,1,13,6,1,0,0,1,0,1,0,0,0,hexagon,triangle,,,,,,,,,,,,,,,,,,,,,,,,,,,,,,,,,,,,,,,,,,,,,,,,,,,,,,
295405,2022-12-06_19h50.10.542,vts_reward_expectancy_bt,2022.2.4,Win32,29.92399306,Chrome,1280,720,,,l,6.6836,1,60,0,1,2,14,3,1,0,1,0,0,1,0,0,0,circle,triangle,,,,,,,,,,,,,,,,,,,,,,,,,,,,,,,,,,,,,,,,,,,,,,,,,,,,,,
295405,2022-12-06_19h50.10.542,vts_reward_expectancy_bt,2022.2.4,Win32,29.92399306,Chrome,1280,720,,,a,1.0706,10,70,0,1,3,15,5,1,0,1,0,0,0,0,0,1,circle,star,,,,,,,,,,,,,,,,,,,,,,,,,,,,,,,,,,,,,,,,,,,,,,,,,,,,,,
295405,2022-12-06_19h50.10.542,vts_reward_expectancy_bt,2022.2.4,Win32,29.92399306,Chrome,1280,720,,,a,2.8505,1,71,0,1,4,16,8,1,0,0,1,0,0,0,0,1,hexagon,star,,,,,,,,,,,,,,,,,,,,,,,,,,,,,,,,,,,,,,,,,,,,,,,,,,,,,,
295405,2022-12-06_19h50.10.542,vts_reward_expectancy_bt,2022.2.4,Win32,29.92399306,Chrome,1280,720,,,l,2.3668,1,72,0,1,5,17,1,1,1,0,0,0,0,0,1,0,triangle,hexagon,,,,,,,,,,,,,,,,,,,,,,,,,,,,,,,,,,,,,,,,,,,,,,,,,,,,,,
295405,2022-12-06_19h50.10.542,vts_reward_expectancy_bt,2022.2.4,Win32,29.92399306,Chrome,1280,720,,,a,1.8337,10,82,0,1,6,18,4,1,0,1,0,0,0,0,1,0,circle,hexagon,,,,,,,,,,,,,,,,,,,,,,,,,,,,,,,,,,,,,,,,,,,,,,,,,,,,,,
295405,2022-12-06_19h50.10.542,vts_reward_expectancy_bt,2022.2.4,Win32,29.92399306,Chrome,1280,720,,,l,1.4716,10,92,0,1,7,19,0,1,1,0,0,0,0,1,0,0,triangle,circle,,,,,,,,,,,,,,,,,,,,,,,,,,,,,,,,,,,,,,,,,,,,,,,,,,,,,,
295405,2022-12-06_19h50.10.542,vts_reward_expectancy_bt,2022.2.4,Win32,29.92399306,Chrome,1280,720,,,l,1.0504,1,93,0,1,8,20,7,1,0,0,1,0,0,1,0,0,hexagon,circle,,,,,,,,,,,,,,,,,,,,,,,,,,,,,,,,,,,,,,,,,,,,,,,,,,,,,,
295405,2022-12-06_19h50.10.542,vts_reward_expectancy_bt,2022.2.4,Win32,29.92399306,Chrome,1280,720,,,l,1.2219,10,103,0,1,9,21,10,1,0,0,0,1,0,1,0,0,star ,circle,,,,,,,,,,,,,,,,,,,,,,,,,,,,,,,,,,,,,,,,,,,,,,,,,,,,,,
295405,2022-12-06_19h50.10.542,vts_reward_expectancy_bt,2022.2.4,Win32,29.92399306,Chrome,1280,720,,,a,1.7449,1,104,0,1,10,22,2,1,1,0,0,0,0,0,0,1,triangle,star,,,,,,,,,,,,,,,,,,,,,,,,,,,,,,,,,,,,,,,,,,,,,,,,,,,,,,
295405,2022-12-06_19h50.10.542,vts_reward_expectancy_bt,2022.2.4,Win32,29.92399306,Chrome,1280,720,,,l,1.2889,1,105,0,1,11,23,9,1,0,0,0,1,1,0,0,0,star,triangle,,,,,,,,,,,,,,,,,,,,,,,,,,,,,,,,,,,,,,,,,,,,,,,,,,,,,,
295405,2022-12-06_19h50.10.542,vts_reward_expectancy_bt,2022.2.4,Win32,29.92399306,Chrome,1280,720,,,a,2.3619,10,115,0,2,0,24,4,1,0,1,0,0,0,0,1,0,circle,hexagon,,,,,,,,,,,,,,,,,,,,,,,,,,,,,,,,,,,,,,,,,,,,,,,,,,,,,,
295405,2022-12-06_19h50.10.542,vts_reward_expectancy_bt,2022.2.4,Win32,29.92399306,Chrome,1280,720,,,l,1.1168,1,116,0,2,1,25,7,1,0,0,1,0,0,1,0,0,hexagon,circle,,,,,,,,,,,,,,,,,,,,,,,,,,,,,,,,,,,,,,,,,,,,,,,,,,,,,,
295405,2022-12-06_19h50.10.542,vts_reward_expectancy_bt,2022.2.4,Win32,29.92399306,Chrome,1280,720,,,a,6.954,1,117,0,2,2,26,1,1,1,0,0,0,0,0,1,0,triangle,hexagon,,,,,,,,,,,,,,,,,,,,,,,,,,,,,,,,,,,,,,,,,,,,,,,,,,,,,,
295405,2022-12-06_19h50.10.542,vts_reward_expectancy_bt,2022.2.4,Win32,29.92399306,Chrome,1280,720,,,l,3.0532,10,127,0,2,3,27,8,1,0,0,1,0,0,0,0,1,hexagon,star,,,,,,,,,,,,,,,,,,,,,,,,,,,,,,,,,,,,,,,,,,,,,,,,,,,,,,
295405,2022-12-06_19h50.10.542,vts_reward_expectancy_bt,2022.2.4,Win32,29.92399306,Chrome,1280,720,,,l,2.2223,10,137,0,2,4,28,10,1,0,0,0,1,0,1,0,0,star ,circle,,,,,,,,,,,,,,,,,,,,,,,,,,,,,,,,,,,,,,,,,,,,,,,,,,,,,,
295405,2022-12-06_19h50.10.542,vts_reward_expectancy_bt,2022.2.4,Win32,29.92399306,Chrome,1280,720,,,a,1.5718,10,147,0,2,5,29,9,1,0,0,0,1,1,0,0,0,star,triangle,,,,,,,,,,,,,,,,,,,,,,,,,,,,,,,,,,,,,,,,,,,,,,,,,,,,,,
295405,2022-12-06_19h50.10.542,vts_reward_expectancy_bt,2022.2.4,Win32,29.92399306,Chrome,1280,720,,,a,1.2228,10,157,0,2,6,30,11,1,0,0,0,1,0,0,1,0,star,hexagon,,,,,,,,,,,,,,,,,,,,,,,,,,,,,,,,,,,,,,,,,,,,,,,,,,,,,,
295405,2022-12-06_19h50.10.542,vts_reward_expectancy_bt,2022.2.4,Win32,29.92399306,Chrome,1280,720,,,l,1.1335,10,167,0,2,7,31,2,1,1,0,0,0,0,0,0,1,triangle,star,,,,,,,,,,,,,,,,,,,,,,,,,,,,,,,,,,,,,,,,,,,,,,,,,,,,,,
295405,2022-12-06_19h50.10.542,vts_reward_expectancy_bt,2022.2.4,Win32,29.92399306,Chrome,1280,720,,,l,0.7719,10,177,0,2,8,32,0,1,1,0,0,0,0,1,0,0,triangle,circle,,,,,,,,,,,,,,,,,,,,,,,,,,,,,,,,,,,,,,,,,,,,,,,,,,,,,,
295405,2022-12-06_19h50.10.542,vts_reward_expectancy_bt,2022.2.4,Win32,29.92399306,Chrome,1280,720,,,a,2.7174,1,178,0,2,9,33,6,1,0,0,1,0,1,0,0,0,hexagon,triangle,,,,,,,,,,,,,,,,,,,,,,,,,,,,,,,,,,,,,,,,,,,,,,,,,,,,,,
295405,2022-12-06_19h50.10.542,vts_reward_expectancy_bt,2022.2.4,Win32,29.92399306,Chrome,1280,720,,,a,2.7038,10,188,0,2,10,34,5,1,0,1,0,0,0,0,0,1,circle,star,,,,,,,,,,,,,,,,,,,,,,,,,,,,,,,,,,,,,,,,,,,,,,,,,,,,,,
295405,2022-12-06_19h50.10.542,vts_reward_expectancy_bt,2022.2.4,Win32,29.92399306,Chrome,1280,720,,,a,0.9065,10,198,0,2,11,35,3,1,0,1,0,0,1,0,0,0,circle,triangle,,,,,,,,,,,,,,,,,,,,,,,,,,,,,,,,,,,,,,,,,,,,,,,,,,,,,,
295405,2022-12-06_19h50.10.542,vts_reward_expectancy_bt,2022.2.4,Win32,29.92399306,Chrome,1280,720,,,l,1.8723,10,208,1,0,0,0,0,1,1,0,0,0,0,1,0,0,triangle,circle,,,,,,,,,,,,,,,,,,,,,,,,,,,,,,,,,,,,,,,,,,,,,,,,,,,,,,
295405,2022-12-06_19h50.10.542,vts_reward_expectancy_bt,2022.2.4,Win32,29.92399306,Chrome,1280,720,,,a,0.7933,10,218,1,0,1,1,3,1,0,1,0,0,1,0,0,0,circle,triangle,,,,,,,,,,,,,,,,,,,,,,,,,,,,,,,,,,,,,,,,,,,,,,,,,,,,,,
295405,2022-12-06_19h50.10.542,vts_reward_expectancy_bt,2022.2.4,Win32,29.92399306,Chrome,1280,720,,,a,1.2217,10,228,1,0,2,2,5,1,0,1,0,0,0,0,0,1,circle,star,,,,,,,,,,,,,,,,,,,,,,,,,,,,,,,,,,,,,,,,,,,,,,,,,,,,,,
295405,2022-12-06_19h50.10.542,vts_reward_expectancy_bt,2022.2.4,Win32,29.92399306,Chrome,1280,720,,,a,0.8127,10,238,1,0,3,3,9,1,0,0,0,1,1,0,0,0,star,triangle,,,,,,,,,,,,,,,,,,,,,,,,,,,,,,,,,,,,,,,,,,,,,,,,,,,,,,
295405,2022-12-06_19h50.10.542,vts_reward_expectancy_bt,2022.2.4,Win32,29.92399306,Chrome,1280,720,,,a,3.7728,1,239,1,0,4,4,6,1,0,0,1,0,1,0,0,0,hexagon,triangle,,,,,,,,,,,,,,,,,,,,,,,,,,,,,,,,,,,,,,,,,,,,,,,,,,,,,,
295405,2022-12-06_19h50.10.542,vts_reward_expectancy_bt,2022.2.4,Win32,29.92399306,Chrome,1280,720,,,l,1.6004,10,249,1,0,5,5,10,1,0,0,0,1,0,1,0,0,star ,circle,,,,,,,,,,,,,,,,,,,,,,,,,,,,,,,,,,,,,,,,,,,,,,,,,,,,,,
295405,2022-12-06_19h50.10.542,vts_reward_expectancy_bt,2022.2.4,Win32,29.92399306,Chrome,1280,720,,,a,1.0024,10,259,1,0,6,6,4,1,0,1,0,0,0,0,1,0,circle,hexagon,,,,,,,,,,,,,,,,,,,,,,,,,,,,,,,,,,,,,,,,,,,,,,,,,,,,,,
295405,2022-12-06_19h50.10.542,vts_reward_expectancy_bt,2022.2.4,Win32,29.92399306,Chrome,1280,720,,,l,1.0176,10,269,1,0,7,7,7,1,0,0,1,0,0,1,0,0,hexagon,circle,,,,,,,,,,,,,,,,,,,,,,,,,,,,,,,,,,,,,,,,,,,,,,,,,,,,,,
295405,2022-12-06_19h50.10.542,vts_reward_expectancy_bt,2022.2.4,Win32,29.92399306,Chrome,1280,720,,,a,2.9975,1,270,1,0,8,8,1,1,1,0,0,0,0,0,1,0,triangle,hexagon,,,,,,,,,,,,,,,,,,,,,,,,,,,,,,,,,,,,,,,,,,,,,,,,,,,,,,
295405,2022-12-06_19h50.10.542,vts_reward_expectancy_bt,2022.2.4,Win32,29.92399306,Chrome,1280,720,,,a,1.6727,1,271,1,0,9,9,11,1,0,0,0,1,0,0,1,0,star,hexagon,,,,,,,,,,,,,,,,,,,,,,,,,,,,,,,,,,,,,,,,,,,,,,,,,,,,,,
295405,2022-12-06_19h50.10.542,vts_reward_expectancy_bt,2022.2.4,Win32,29.92399306,Chrome,1280,720,,,l,1.5709,10,281,1,0,10,10,8,1,0,0,1,0,0,0,0,1,hexagon,star,,,,,,,,,,,,,,,,,,,,,,,,,,,,,,,,,,,,,,,,,,,,,,,,,,,,,,
295405,2022-12-06_19h50.10.542,vts_reward_expectancy_bt,2022.2.4,Win32,29.92399306,Chrome,1280,720,,,l,1.8367,10,291,1,0,11,11,2,1,1,0,0,0,0,0,0,1,triangle,star,,,,,,,,,,,,,,,,,,,,,,,,,,,,,,,,,,,,,,,,,,,,,,,,,,,,,,
295405,2022-12-06_19h50.10.542,vts_reward_expectancy_bt,2022.2.4,Win32,29.92399306,Chrome,1280,720,,,l,1.3884,10,301,1,1,0,12,0,1,1,0,0,0,0,1,0,0,triangle,circle,,,,,,,,,,,,,,,,,,,,,,,,,,,,,,,,,,,,,,,,,,,,,,,,,,,,,,
295405,2022-12-06_19h50.10.542,vts_reward_expectancy_bt,2022.2.4,Win32,29.92399306,Chrome,1280,720,,,l,7.3526,10,311,1,1,1,13,2,1,1,0,0,0,0,0,0,1,triangle,star,,,,,,,,,,,,,,,,,,,,,,,,,,,,,,,,,,,,,,,,,,,,,,,,,,,,,,
295405,2022-12-06_19h50.10.542,vts_reward_expectancy_bt,2022.2.4,Win32,29.92399306,Chrome,1280,720,,,a,1.5456,1,312,1,1,2,14,5,1,0,1,0,0,0,0,0,1,circle,star,,,,,,,,,,,,,,,,,,,,,,,,,,,,,,,,,,,,,,,,,,,,,,,,,,,,,,
295405,2022-12-06_19h50.10.542,vts_reward_expectancy_bt,2022.2.4,Win32,29.92399306,Chrome,1280,720,,,a,3.3839,1,313,1,1,3,15,4,1,0,1,0,0,0,0,1,0,circle,hexagon,,,,,,,,,,,,,,,,,,,,,,,,,,,,,,,,,,,,,,,,,,,,,,,,,,,,,,
295405,2022-12-06_19h50.10.542,vts_reward_expectancy_bt,2022.2.4,Win32,29.92399306,Chrome,1280,720,,,l,2.7726,10,323,1,1,4,16,6,1,0,0,1,0,1,0,0,0,hexagon,triangle,,,,,,,,,,,,,,,,,,,,,,,,,,,,,,,,,,,,,,,,,,,,,,,,,,,,,,
295405,2022-12-06_19h50.10.542,vts_reward_expectancy_bt,2022.2.4,Win32,29.92399306,Chrome,1280,720,,,a,1.904,10,333,1,1,5,17,10,1,0,0,0,1,0,1,0,0,star ,circle,,,,,,,,,,,,,,,,,,,,,,,,,,,,,,,,,,,,,,,,,,,,,,,,,,,,,,
295405,2022-12-06_19h50.10.542,vts_reward_expectancy_bt,2022.2.4,Win32,29.92399306,Chrome,1280,720,,,l,1.7887,1,334,1,1,6,18,3,1,0,1,0,0,1,0,0,0,circle,triangle,,,,,,,,,,,,,,,,,,,,,,,,,,,,,,,,,,,,,,,,,,,,,,,,,,,,,,
295405,2022-12-06_19h50.10.542,vts_reward_expectancy_bt,2022.2.4,Win32,29.92399306,Chrome,1280,720,,,l,2.2539,1,335,1,1,7,19,9,1,0,0,0,1,1,0,0,0,star,triangle,,,,,,,,,,,,,,,,,,,,,,,,,,,,,,,,,,,,,,,,,,,,,,,,,,,,,,
295405,2022-12-06_19h50.10.542,vts_reward_expectancy_bt,2022.2.4,Win32,29.92399306,Chrome,1280,720,,,l,3.1179,10,345,1,1,8,20,7,1,0,0,1,0,0,1,0,0,hexagon,circle,,,,,,,,,,,,,,,,,,,,,,,,,,,,,,,,,,,,,,,,,,,,,,,,,,,,,,
295405,2022-12-06_19h50.10.542,vts_reward_expectancy_bt,2022.2.4,Win32,29.92399306,Chrome,1280,720,,,l,2.3747,10,355,1,1,9,21,8,1,0,0,1,0,0,0,0,1,hexagon,star,,,,,,,,,,,,,,,,,,,,,,,,,,,,,,,,,,,,,,,,,,,,,,,,,,,,,,
295405,2022-12-06_19h50.10.542,vts_reward_expectancy_bt,2022.2.4,Win32,29.92399306,Chrome,1280,720,,,a,1.5375,10,365,1,1,10,22,11,1,0,0,0,1,0,0,1,0,star,hexagon,,,,,,,,,,,,,,,,,,,,,,,,,,,,,,,,,,,,,,,,,,,,,,,,,,,,,,
295405,2022-12-06_19h50.10.542,vts_reward_expectancy_bt,2022.2.4,Win32,29.92399306,Chrome,1280,720,,,a,3.9722,1,366,1,1,11,23,1,1,1,0,0,0,0,0,1,0,triangle,hexagon,,,,,,,,,,,,,,,,,,,,,,,,,,,,,,,,,,,,,,,,,,,,,,,,,,,,,,
295405,2022-12-06_19h50.10.542,vts_reward_expectancy_bt,2022.2.4,Win32,29.92399306,Chrome,1280,720,,,a,2.8113,1,367,1,2,0,24,6,1,0,0,1,0,1,0,0,0,hexagon,triangle,,,,,,,,,,,,,,,,,,,,,,,,,,,,,,,,,,,,,,,,,,,,,,,,,,,,,,
295405,2022-12-06_19h50.10.542,vts_reward_expectancy_bt,2022.2.4,Win32,29.92399306,Chrome,1280,720,,,l,1.2734,1,368,1,2,1,25,7,1,0,0,1,0,0,1,0,0,hexagon,circle,,,,,,,,,,,,,,,,,,,,,,,,,,,,,,,,,,,,,,,,,,,,,,,,,,,,,,
295405,2022-12-06_19h50.10.542,vts_reward_expectancy_bt,2022.2.4,Win32,29.92399306,Chrome,1280,720,,,l,1.7202,10,378,1,2,2,26,5,1,0,1,0,0,0,0,0,1,circle,star,,,,,,,,,,,,,,,,,,,,,,,,,,,,,,,,,,,,,,,,,,,,,,,,,,,,,,
295405,2022-12-06_19h50.10.542,vts_reward_expectancy_bt,2022.2.4,Win32,29.92399306,Chrome,1280,720,,,l,2.055,1,379,1,2,3,27,1,1,1,0,0,0,0,0,1,0,triangle,hexagon,,,,,,,,,,,,,,,,,,,,,,,,,,,,,,,,,,,,,,,,,,,,,,,,,,,,,,
295405,2022-12-06_19h50.10.542,vts_reward_expectancy_bt,2022.2.4,Win32,29.92399306,Chrome,1280,720,,,a,3.387,10,389,1,2,4,28,9,1,0,0,0,1,1,0,0,0,star,triangle,,,,,,,,,,,,,,,,,,,,,,,,,,,,,,,,,,,,,,,,,,,,,,,,,,,,,,
295405,2022-12-06_19h50.10.542,vts_reward_expectancy_bt,2022.2.4,Win32,29.92399306,Chrome,1280,720,,,l,1.7209,10,399,1,2,5,29,8,1,0,0,1,0,0,0,0,1,hexagon,star,,,,,,,,,,,,,,,,,,,,,,,,,,,,,,,,,,,,,,,,,,,,,,,,,,,,,,
295405,2022-12-06_19h50.10.542,vts_reward_expectancy_bt,2022.2.4,Win32,29.92399306,Chrome,1280,720,,,l,1.8373,10,409,1,2,6,30,0,1,1,0,0,0,0,1,0,0,triangle,circle,,,,,,,,,,,,,,,,,,,,,,,,,,,,,,,,,,,,,,,,,,,,,,,,,,,,,,
295405,2022-12-06_19h50.10.542,vts_reward_expectancy_bt,2022.2.4,Win32,29.92399306,Chrome,1280,720,,,a,1.0877,10,419,1,2,7,31,3,1,0,1,0,0,1,0,0,0,circle,triangle,,,,,,,,,,,,,,,,,,,,,,,,,,,,,,,,,,,,,,,,,,,,,,,,,,,,,,
295405,2022-12-06_19h50.10.542,vts_reward_expectancy_bt,2022.2.4,Win32,29.92399306,Chrome,1280,720,,,a,1.4059,10,429,1,2,8,32,11,1,0,0,0,1,0,0,1,0,star,hexagon,,,,,,,,,,,,,,,,,,,,,,,,,,,,,,,,,,,,,,,,,,,,,,,,,,,,,,
295405,2022-12-06_19h50.10.542,vts_reward_expectancy_bt,2022.2.4,Win32,29.92399306,Chrome,1280,720,,,l,1.4331,10,439,1,2,9,33,2,1,1,0,0,0,0,0,0,1,triangle,star,,,,,,,,,,,,,,,,,,,,,,,,,,,,,,,,,,,,,,,,,,,,,,,,,,,,,,
295405,2022-12-06_19h50.10.542,vts_reward_expectancy_bt,2022.2.4,Win32,29.92399306,Chrome,1280,720,,,l,5.7537,10,449,1,2,10,34,10,1,0,0,0,1,0,1,0,0,star ,circle,,,,,,,,,,,,,,,,,,,,,,,,,,,,,,,,,,,,,,,,,,,,,,,,,,,,,,
295405,2022-12-06_19h50.10.542,vts_reward_expectancy_bt,2022.2.4,Win32,29.92399306,Chrome,1280,720,,,a,3.7537,10,459,1,2,11,35,4,1,0,1,0,0,0,0,1,0,circle,hexagon,,,,,,,,,,,,,,,,,,,,,,,,,,,,,,,,,,,,,,,,,,,,,,,,,,,,,,
295405,2022-12-06_19h50.10.542,vts_reward_expectancy_bt,2022.2.4,Win32,29.92399306,Chrome,1280,720,,,l,1.8017,10,469,2,0,0,0,7,1,0,0,1,0,0,1,0,0,hexagon,circle,,,,,,,,,,,,,,,,,,,,,,,,,,,,,,,,,,,,,,,,,,,,,,,,,,,,,,
295405,2022-12-06_19h50.10.542,vts_reward_expectancy_bt,2022.2.4,Win32,29.92399306,Chrome,1280,720,,,a,2.0172,1,470,2,0,1,1,1,1,1,0,0,0,0,0,1,0,triangle,hexagon,,,,,,,,,,,,,,,,,,,,,,,,,,,,,,,,,,,,,,,,,,,,,,,,,,,,,,
295405,2022-12-06_19h50.10.542,vts_reward_expectancy_bt,2022.2.4,Win32,29.92399306,Chrome,1280,720,,,a,2.0871,10,480,2,0,2,2,9,1,0,0,0,1,1,0,0,0,star,triangle,,,,,,,,,,,,,,,,,,,,,,,,,,,,,,,,,,,,,,,,,,,,,,,,,,,,,,
295405,2022-12-06_19h50.10.542,vts_reward_expectancy_bt,2022.2.4,Win32,29.92399306,Chrome,1280,720,,,a,1.673,1,481,2,0,3,3,6,1,0,0,1,0,1,0,0,0,hexagon,triangle,,,,,,,,,,,,,,,,,,,,,,,,,,,,,,,,,,,,,,,,,,,,,,,,,,,,,,
295405,2022-12-06_19h50.10.542,vts_reward_expectancy_bt,2022.2.4,Win32,29.92399306,Chrome,1280,720,,,a,1.6394,10,491,2,0,4,4,11,1,0,0,0,1,0,0,1,0,star,hexagon,,,,,,,,,,,,,,,,,,,,,,,,,,,,,,,,,,,,,,,,,,,,,,,,,,,,,,
295405,2022-12-06_19h50.10.542,vts_reward_expectancy_bt,2022.2.4,Win32,29.92399306,Chrome,1280,720,,,l,4.6566,10,501,2,0,5,5,8,1,0,0,1,0,0,0,0,1,hexagon,star,,,,,,,,,,,,,,,,,,,,,,,,,,,,,,,,,,,,,,,,,,,,,,,,,,,,,,
295405,2022-12-06_19h50.10.542,vts_reward_expectancy_bt,2022.2.4,Win32,29.92399306,Chrome,1280,720,,,l,1.539,10,511,2,0,6,6,2,1,1,0,0,0,0,0,0,1,triangle,star,,,,,,,,,,,,,,,,,,,,,,,,,,,,,,,,,,,,,,,,,,,,,,,,,,,,,,
295405,2022-12-06_19h50.10.542,vts_reward_expectancy_bt,2022.2.4,Win32,29.92399306,Chrome,1280,720,,,a,1.0457,1,512,2,0,7,7,5,1,0,1,0,0,0,0,0,1,circle,star,,,,,,,,,,,,,,,,,,,,,,,,,,,,,,,,,,,,,,,,,,,,,,,,,,,,,,
295405,2022-12-06_19h50.10.542,vts_reward_expectancy_bt,2022.2.4,Win32,29.92399306,Chrome,1280,720,,,a,0.7704,10,522,2,0,8,8,3,1,0,1,0,0,1,0,0,0,circle,triangle,,,,,,,,,,,,,,,,,,,,,,,,,,,,,,,,,,,,,,,,,,,,,,,,,,,,,,
295405,2022-12-06_19h50.10.542,vts_reward_expectancy_bt,2022.2.4,Win32,29.92399306,Chrome,1280,720,,,a,2.0167,10,532,2,0,9,9,4,1,0,1,0,0,0,0,1,0,circle,hexagon,,,,,,,,,,,,,,,,,,,,,,,,,,,,,,,,,,,,,,,,,,,,,,,,,,,,,,
295405,2022-12-06_19h50.10.542,vts_reward_expectancy_bt,2022.2.4,Win32,29.92399306,Chrome,1280,720,,,l,1.4048,10,542,2,0,10,10,0,1,1,0,0,0,0,1,0,0,triangle,circle,,,,,,,,,,,,,,,,,,,,,,,,,,,,,,,,,,,,,,,,,,,,,,,,,,,,,,
295405,2022-12-06_19h50.10.542,vts_reward_expectancy_bt,2022.2.4,Win32,29.92399306,Chrome,1280,720,,,a,2.9023,10,552,2,0,11,11,10,1,0,0,0,1,0,1,0,0,star ,circle,,,,,,,,,,,,,,,,,,,,,,,,,,,,,,,,,,,,,,,,,,,,,,,,,,,,,,
295405,2022-12-06_19h50.10.542,vts_reward_expectancy_bt,2022.2.4,Win32,29.92399306,Chrome,1280,720,,,l,7.1709,10,562,2,1,0,12,7,1,0,0,1,0,0,1,0,0,hexagon,circle,,,,,,,,,,,,,,,,,,,,,,,,,,,,,,,,,,,,,,,,,,,,,,,,,,,,,,
295405,2022-12-06_19h50.10.542,vts_reward_expectancy_bt,2022.2.4,Win32,29.92399306,Chrome,1280,720,,,a,9.6606,1,563,2,1,1,13,3,1,0,1,0,0,1,0,0,0,circle,triangle,,,,,,,,,,,,,,,,,,,,,,,,,,,,,,,,,,,,,,,,,,,,,,,,,,,,,,
295405,2022-12-06_19h50.10.542,vts_reward_expectancy_bt,2022.2.4,Win32,29.92399306,Chrome,1280,720,,,l,10.8677,10,573,2,1,2,14,0,1,1,0,0,0,0,1,0,0,triangle,circle,,,,,,,,,,,,,,,,,,,,,,,,,,,,,,,,,,,,,,,,,,,,,,,,,,,,,,
295405,2022-12-06_19h50.10.542,vts_reward_expectancy_bt,2022.2.4,Win32,29.92399306,Chrome,1280,720,,,l,8.3194,10,583,2,1,3,15,5,1,0,1,0,0,0,0,0,1,circle,star,,,,,,,,,,,,,,,,,,,,,,,,,,,,,,,,,,,,,,,,,,,,,,,,,,,,,,
295405,2022-12-06_19h50.10.542,vts_reward_expectancy_bt,2022.2.4,Win32,29.92399306,Chrome,1280,720,,,a,1.8317,10,593,2,1,4,16,11,1,0,0,0,1,0,0,1,0,star,hexagon,,,,,,,,,,,,,,,,,,,,,,,,,,,,,,,,,,,,,,,,,,,,,,,,,,,,,,
295405,2022-12-06_19h50.10.542,vts_reward_expectancy_bt,2022.2.4,Win32,29.92399306,Chrome,1280,720,,,a,3.084,1,594,2,1,5,17,4,1,0,1,0,0,0,0,1,0,circle,hexagon,,,,,,,,,,,,,,,,,,,,,,,,,,,,,,,,,,,,,,,,,,,,,,,,,,,,,,
295405,2022-12-06_19h50.10.542,vts_reward_expectancy_bt,2022.2.4,Win32,29.92399306,Chrome,1280,720,,,a,4.1562,1,595,2,1,6,18,6,1,0,0,1,0,1,0,0,0,hexagon,triangle,,,,,,,,,,,,,,,,,,,,,,,,,,,,,,,,,,,,,,,,,,,,,,,,,,,,,,
295405,2022-12-06_19h50.10.542,vts_reward_expectancy_bt,2022.2.4,Win32,29.92399306,Chrome,1280,720,,,a,1.1629,1,596,2,1,7,19,10,1,0,0,0,1,0,1,0,0,star ,circle,,,,,,,,,,,,,,,,,,,,,,,,,,,,,,,,,,,,,,,,,,,,,,,,,,,,,,
295405,2022-12-06_19h50.10.542,vts_reward_expectancy_bt,2022.2.4,Win32,29.92399306,Chrome,1280,720,,,l,2.2502,10,606,2,1,8,20,8,1,0,0,1,0,0,0,0,1,hexagon,star,,,,,,,,,,,,,,,,,,,,,,,,,,,,,,,,,,,,,,,,,,,,,,,,,,,,,,
295405,2022-12-06_19h50.10.542,vts_reward_expectancy_bt,2022.2.4,Win32,29.92399306,Chrome,1280,720,,,l,1.1064,10,616,2,1,9,21,2,1,1,0,0,0,0,0,0,1,triangle,star,,,,,,,,,,,,,,,,,,,,,,,,,,,,,,,,,,,,,,,,,,,,,,,,,,,,,,
295405,2022-12-06_19h50.10.542,vts_reward_expectancy_bt,2022.2.4,Win32,29.92399306,Chrome,1280,720,,,a,0.9098,10,626,2,1,10,22,9,1,0,0,0,1,1,0,0,0,star,triangle,,,,,,,,,,,,,,,,,,,,,,,,,,,,,,,,,,,,,,,,,,,,,,,,,,,,,,
295405,2022-12-06_19h50.10.542,vts_reward_expectancy_bt,2022.2.4,Win32,29.92399306,Chrome,1280,720,,,l,3.7903,1,627,2,1,11,23,1,1,1,0,0,0,0,0,1,0,triangle,hexagon,,,,,,,,,,,,,,,,,,,,,,,,,,,,,,,,,,,,,,,,,,,,,,,,,,,,,,
295405,2022-12-06_19h50.10.542,vts_reward_expectancy_bt,2022.2.4,Win32,29.92399306,Chrome,1280,720,,,l,2.0235,10,637,2,2,0,24,10,1,0,0,0,1,0,1,0,0,star ,circle,,,,,,,,,,,,,,,,,,,,,,,,,,,,,,,,,,,,,,,,,,,,,,,,,,,,,,
295405,2022-12-06_19h50.10.542,vts_reward_expectancy_bt,2022.2.4,Win32,29.92399306,Chrome,1280,720,,,l,1.4548,10,647,2,2,1,25,0,1,1,0,0,0,0,1,0,0,triangle,circle,,,,,,,,,,,,,,,,,,,,,,,,,,,,,,,,,,,,,,,,,,,,,,,,,,,,,,
295405,2022-12-06_19h50.10.542,vts_reward_expectancy_bt,2022.2.4,Win32,29.92399306,Chrome,1280,720,,,l,1.1499,10,657,2,2,2,26,7,1,0,0,1,0,0,1,0,0,hexagon,circle,,,,,,,,,,,,,,,,,,,,,,,,,,,,,,,,,,,,,,,,,,,,,,,,,,,,,,
295405,2022-12-06_19h50.10.542,vts_reward_expectancy_bt,2022.2.4,Win32,29.92399306,Chrome,1280,720,,,a,0.9555,1,658,2,2,3,27,9,1,0,0,0,1,1,0,0,0,star,triangle,,,,,,,,,,,,,,,,,,,,,,,,,,,,,,,,,,,,,,,,,,,,,,,,,,,,,,
295405,2022-12-06_19h50.10.542,vts_reward_expectancy_bt,2022.2.4,Win32,29.92399306,Chrome,1280,720,,,a,0.9019,10,668,2,2,4,28,11,1,0,0,0,1,0,0,1,0,star,hexagon,,,,,,,,,,,,,,,,,,,,,,,,,,,,,,,,,,,,,,,,,,,,,,,,,,,,,,
295405,2022-12-06_19h50.10.542,vts_reward_expectancy_bt,2022.2.4,Win32,29.92399306,Chrome,1280,720,,,a,1.2876,10,678,2,2,5,29,4,1,0,1,0,0,0,0,1,0,circle,hexagon,,,,,,,,,,,,,,,,,,,,,,,,,,,,,,,,,,,,,,,,,,,,,,,,,,,,,,
295405,2022-12-06_19h50.10.542,vts_reward_expectancy_bt,2022.2.4,Win32,29.92399306,Chrome,1280,720,,,l,1.5056,10,688,2,2,6,30,5,1,0,1,0,0,0,0,0,1,circle,star,,,,,,,,,,,,,,,,,,,,,,,,,,,,,,,,,,,,,,,,,,,,,,,,,,,,,,
295405,2022-12-06_19h50.10.542,vts_reward_expectancy_bt,2022.2.4,Win32,29.92399306,Chrome,1280,720,,,l,7.3258,10,698,2,2,7,31,2,1,1,0,0,0,0,0,0,1,triangle,star,,,,,,,,,,,,,,,,,,,,,,,,,,,,,,,,,,,,,,,,,,,,,,,,,,,,,,
295405,2022-12-06_19h50.10.542,vts_reward_expectancy_bt,2022.2.4,Win32,29.92399306,Chrome,1280,720,,,a,6.5369,1,699,2,2,8,32,1,1,1,0,0,0,0,0,1,0,triangle,hexagon,,,,,,,,,,,,,,,,,,,,,,,,,,,,,,,,,,,,,,,,,,,,,,,,,,,,,,
295405,2022-12-06_19h50.10.542,vts_reward_expectancy_bt,2022.2.4,Win32,29.92399306,Chrome,1280,720,,,a,1.0198,10,709,2,2,9,33,3,1,0,1,0,0,1,0,0,0,circle,triangle,,,,,,,,,,,,,,,,,,,,,,,,,,,,,,,,,,,,,,,,,,,,,,,,,,,,,,
295405,2022-12-06_19h50.10.542,vts_reward_expectancy_bt,2022.2.4,Win32,29.92399306,Chrome,1280,720,,,l,16.1492,1,710,2,2,10,34,6,1,0,0,1,0,1,0,0,0,hexagon,triangle,,,,,,,,,,,,,,,,,,,,,,,,,,,,,,,,,,,,,,,,,,,,,,,,,,,,,,
295405,2022-12-06_19h50.10.542,vts_reward_expectancy_bt,2022.2.4,Win32,29.92399306,Chrome,1280,720,,,l,4.4352,10,720,2,2,11,35,8,1,0,0,1,0,0,0,0,1,hexagon,star,,,,,,,,,,,,,,,,,,,,,,,,,,,,,,,,,,,,,,,,,,,,,,,,,,,,,,
295405,2022-12-06_19h50.10.542,vts_reward_expectancy_bt,2022.2.4,Win32,29.92399306,Chrome,1280,720,,,,,,,,,,,,,,,,,,,,,,,W,132,hexagon,0,0,,0,0,0,0,0,1,,,,,,,,,,,,,,,,,,,,,,,,,,,,,,,,,,,,,,,,,,
295405,2022-12-06_19h50.10.542,vts_reward_expectancy_bt,2022.2.4,Win32,29.92399306,Chrome,1280,720,,,,,,,,,,,,,,,,,,,,,,,S,174,circle,1,1,f,0,1,0,1,0,1,1.0843,,,,,,,,,,,,,,,,,,,,,,,,,,,,,,,,,,,,,,,,,
295405,2022-12-06_19h50.10.542,vts_reward_expectancy_bt,2022.2.4,Win32,29.92399306,Chrome,1280,720,,,,,,,,,,,,,,,,,,,,,,,F,146,star,1,0,d,0,2,0,2,0,1,1.2607,,,,,,,,,,,,,,,,,,,,,,,,,,,,,,,,,,,,,,,,,
295405,2022-12-06_19h50.10.542,vts_reward_expectancy_bt,2022.2.4,Win32,29.92399306,Chrome,1280,720,,,,,,,,,,,,,,,,,,,,,,,B,181,triangle,1,0,d,0,3,0,3,0,1,0.8683,,,,,,,,,,,,,,,,,,,,,,,,,,,,,,,,,,,,,,,,,
295405,2022-12-06_19h50.10.542,vts_reward_expectancy_bt,2022.2.4,Win32,29.92399306,Chrome,1280,720,,,,,,,,,,,,,,,,,,,,,,,H,167,hexagon,1,0,d,0,4,0,4,0,1,1.2677,,,,,,,,,,,,,,,,,,,,,,,,,,,,,,,,,,,,,,,,,
295405,2022-12-06_19h50.10.542,vts_reward_expectancy_bt,2022.2.4,Win32,29.92399306,Chrome,1280,720,,,,,,,,,,,,,,,,,,,,,,,D,160,circle,1,0,d,0,5,0,5,0,1,1.2287,,,,,,,,,,,,,,,,,,,,,,,,,,,,,,,,,,,,,,,,,
295405,2022-12-06_19h50.10.542,vts_reward_expectancy_bt,2022.2.4,Win32,29.92399306,Chrome,1280,720,,,,,,,,,,,,,,,,,,,,,,,U,139,star,1,0,f,0,6,0,6,0,1,1.3839,,,,,,,,,,,,,,,,,,,,,,,,,,,,,,,,,,,,,,,,,
295405,2022-12-06_19h50.10.542,vts_reward_expectancy_bt,2022.2.4,Win32,29.92399306,Chrome,1280,720,,,,,,,,,,,,,,,,,,,,,,,Y,125,triangle,1,0,f,0,7,0,7,0,1,0.9674,,,,,,,,,,,,,,,,,,,,,,,,,,,,,,,,,,,,,,,,,
295405,2022-12-06_19h50.10.542,vts_reward_expectancy_bt,2022.2.4,Win32,29.92399306,Chrome,1280,720,,,,,,,,,,,,,,,,,,,,,,,W,132,star,1,0,f,0,8,0,8,0,1,1.1674,,,,,,,,,,,,,,,,,,,,,,,,,,,,,,,,,,,,,,,,,
295405,2022-12-06_19h50.10.542,vts_reward_expectancy_bt,2022.2.4,Win32,29.92399306,Chrome,1280,720,,,,,,,,,,,,,,,,,,,,,,,S,174,triangle,0,0,,0,9,0,9,0,1,,,,,,,,,,,,,,,,,,,,,,,,,,,,,,,,,,,,,,,,,,
295405,2022-12-06_19h50.10.542,vts_reward_expectancy_bt,2022.2.4,Win32,29.92399306,Chrome,1280,720,,,,,,,,,,,,,,,,,,,,,,,U,132,hexagon,1,1,f,1,0,0,0,0,1,2.5505,,,,,,,,,,,,,,,,,,,,,,,,,,,,,,,,,,,,,,,,,
295405,2022-12-06_19h50.10.542,vts_reward_expectancy_bt,2022.2.4,Win32,29.92399306,Chrome,1280,720,,,,,,,,,,,,,,,,,,,,,,,F,146,triangle,0,0,,1,1,0,1,0,1,,,,,,,,,,,,,,,,,,,,,,,,,,,,,,,,,,,,,,,,,,
295405,2022-12-06_19h50.10.542,vts_reward_expectancy_bt,2022.2.4,Win32,29.92399306,Chrome,1280,720,,,,,,,,,,,,,,,,,,,,,,,D,181,circle,1,1,d,1,2,0,2,0,1,0.6343,,,,,,,,,,,,,,,,,,,,,,,,,,,,,,,,,,,,,,,,,
295405,2022-12-06_19h50.10.542,vts_reward_expectancy_bt,2022.2.4,Win32,29.92399306,Chrome,1280,720,,,,,,,,,,,,,,,,,,,,,,,W,139,star,1,0,f,1,3,0,3,0,1,0.6676,,,,,,,,,,,,,,,,,,,,,,,,,,,,,,,,,,,,,,,,,
295405,2022-12-06_19h50.10.542,vts_reward_expectancy_bt,2022.2.4,Win32,29.92399306,Chrome,1280,720,,,,,,,,,,,,,,,,,,,,,,,S,160,hexagon,1,0,f,1,4,0,4,0,1,1.0845,,,,,,,,,,,,,,,,,,,,,,,,,,,,,,,,,,,,,,,,,
295405,2022-12-06_19h50.10.542,vts_reward_expectancy_bt,2022.2.4,Win32,29.92399306,Chrome,1280,720,,,,,,,,,,,,,,,,,,,,,,,B,174,triangle,1,0,d,1,5,0,5,0,1,1.1507,,,,,,,,,,,,,,,,,,,,,,,,,,,,,,,,,,,,,,,,,
295405,2022-12-06_19h50.10.542,vts_reward_expectancy_bt,2022.2.4,Win32,29.92399306,Chrome,1280,720,,,,,,,,,,,,,,,,,,,,,,,H,167,circle,1,0,d,1,6,0,6,0,1,1.0339,,,,,,,,,,,,,,,,,,,,,,,,,,,,,,,,,,,,,,,,,
295405,2022-12-06_19h50.10.542,vts_reward_expectancy_bt,2022.2.4,Win32,29.92399306,Chrome,1280,720,,,,,,,,,,,,,,,,,,,,,,,Y,125,star,1,0,f,1,7,0,7,0,1,1.0459,,,,,,,,,,,,,,,,,,,,,,,,,,,,,,,,,,,,,,,,,
295405,2022-12-06_19h50.10.542,vts_reward_expectancy_bt,2022.2.4,Win32,29.92399306,Chrome,1280,720,,,,,,,,,,,,,,,,,,,,,,,U,132,circle,1,0,f,1,8,0,8,0,1,0.7172,,,,,,,,,,,,,,,,,,,,,,,,,,,,,,,,,,,,,,,,,
295405,2022-12-06_19h50.10.542,vts_reward_expectancy_bt,2022.2.4,Win32,29.92399306,Chrome,1280,720,,,,,,,,,,,,,,,,,,,,,,,F,146,hexagon,1,0,d,1,9,0,9,0,1,1.1483,,,,,,,,,,,,,,,,,,,,,,,,,,,,,,,,,,,,,,,,,
295405,2022-12-06_19h50.10.542,vts_reward_expectancy_bt,2022.2.4,Win32,29.92399306,Chrome,1280,720,,,,,,,,,,,,,,,,,,,,,,,B,125,triangle,1,0,,2,,,,,,,j,0.8841,0,0,0,0,1,,,,,,,,,,,,,,,,,,,,,,,,,,,,,,,,,,
295405,2022-12-06_19h50.10.542,vts_reward_expectancy_bt,2022.2.4,Win32,29.92399306,Chrome,1280,720,,,,,,,,,,,,,,,,,,,,,,,S,167,circle,1,0,,2,,,,,,,k,0.7673,1,0,1,0,1,,,,,,,,,,,,,,,,,,,,,,,,,,,,,,,,,,
295405,2022-12-06_19h50.10.542,vts_reward_expectancy_bt,2022.2.4,Win32,29.92399306,Chrome,1280,720,,,,,,,,,,,,,,,,,,,,,,,Y,181,star,1,0,,2,,,,,,,k,0.7173,2,0,2,0,1,,,,,,,,,,,,,,,,,,,,,,,,,,,,,,,,,,
295405,2022-12-06_19h50.10.542,vts_reward_expectancy_bt,2022.2.4,Win32,29.92399306,Chrome,1280,720,,,,,,,,,,,,,,,,,,,,,,,D,174,hexagon,1,0,,2,,,,,,,k,0.6683,3,0,3,0,1,,,,,,,,,,,,,,,,,,,,,,,,,,,,,,,,,,
295405,2022-12-06_19h50.10.542,vts_reward_expectancy_bt,2022.2.4,Win32,29.92399306,Chrome,1280,720,,,,,,,,,,,,,,,,,,,,,,,U,160,triangle,1,0,,2,,,,,,,k,0.7841,4,0,4,0,1,,,,,,,,,,,,,,,,,,,,,,,,,,,,,,,,,,
295405,2022-12-06_19h50.10.542,vts_reward_expectancy_bt,2022.2.4,Win32,29.92399306,Chrome,1280,720,,,,,,,,,,,,,,,,,,,,,,,W,132,circle,1,0,,2,,,,,,,j,0.8178,5,0,5,0,1,,,,,,,,,,,,,,,,,,,,,,,,,,,,,,,,,,
295405,2022-12-06_19h50.10.542,vts_reward_expectancy_bt,2022.2.4,Win32,29.92399306,Chrome,1280,720,,,,,,,,,,,,,,,,,,,,,,,F,146,star,1,0,,2,,,,,,,j,1.6841,6,0,6,0,1,,,,,,,,,,,,,,,,,,,,,,,,,,,,,,,,,,
295405,2022-12-06_19h50.10.542,vts_reward_expectancy_bt,2022.2.4,Win32,29.92399306,Chrome,1280,720,,,,,,,,,,,,,,,,,,,,,,,H,139,hexagon,1,0,,2,,,,,,,j,2.5674,7,0,7,0,1,,,,,,,,,,,,,,,,,,,,,,,,,,,,,,,,,,
295405,2022-12-06_19h50.10.542,vts_reward_expectancy_bt,2022.2.4,Win32,29.92399306,Chrome,1280,720,,,,,,,,,,,,,,,,,,,,,,,B,125,circle,1,0,,2,,,,,,,j,1.3386,8,0,8,0,1,,,,,,,,,,,,,,,,,,,,,,,,,,,,,,,,,,
295405,2022-12-06_19h50.10.542,vts_reward_expectancy_bt,2022.2.4,Win32,29.92399306,Chrome,1280,720,,,,,,,,,,,,,,,,,,,,,,,S,167,triangle,1,0,,2,,,,,,,k,1.7837,9,0,9,0,1,,,,,,,,,,,,,,,,,,,,,,,,,,,,,,,,,,
295405,2022-12-06_19h50.10.542,vts_reward_expectancy_bt,2022.2.4,Win32,29.92399306,Chrome,1280,720,,,,,0,720,,,,,,,,,,,,,,,,,B,167,triangle,-1,0,,3,,,,,,,,,,,,,,-1,no_choice,NA,,vtsPrac,0,0,0,0,1,,,,,,,,,,,,,,,,,,,,,,,,
295405,2022-12-06_19h50.10.542,vts_reward_expectancy_bt,2022.2.4,Win32,29.92399306,Chrome,1280,720,,,,,0,720,,,,,,,,,,,,,,,,,D,132,hexagon,-1,0,,3,,,,,,,,,,,,,,repeat,no_choice,NA,,vtsPrac,1,0,1,0,1,,,,,,,,,,,,,,,,,,,,,,,,
295405,2022-12-06_19h50.10.542,vts_reward_expectancy_bt,2022.2.4,Win32,29.92399306,Chrome,1280,720,,,,,0,720,,,,,,,,,,,,,,,,,W,174,triangle,1,0,,3,,,,,,,,,,,,,,switch,number,numSwt,k,vtsPrac,2,0,2,0,1,0.8697,,,,,,,,,,,,,,,,,,,,,,,
295405,2022-12-06_19h50.10.542,vts_reward_expectancy_bt,2022.2.4,Win32,29.92399306,Chrome,1280,720,,,,,0,720,,,,,,,,,,,,,,,,,Y,139,hexagon,1,0,,3,,,,,,,,,,,,,,switch,letter,lettSwt,f,vtsPrac,3,0,3,0,1,1.1676,,,,,,,,,,,,,,,,,,,,,,,
295405,2022-12-06_19h50.10.542,vts_reward_expectancy_bt,2022.2.4,Win32,29.92399306,Chrome,1280,720,,,,,0,720,,,,,,,,,,,,,,,,,B,167,triangle,0,0,,3,,,,,,,,,,,,,,switch,number,NA,j,vtsPrac,4,0,4,0,1,2.2478,,,,,,,,,,,,,,,,,,,,,,,
295405,2022-12-06_19h50.10.542,vts_reward_expectancy_bt,2022.2.4,Win32,29.92399306,Chrome,1280,720,,,,,0,720,,,,,,,,,,,,,,,,,D,132,star,1,1,,3,,,,,,,,,,,,,,switch,letter,lettSwt,d,vtsPrac,5,0,5,0,1,1.3779,,,,,,,,,,,,,,,,,,,,,,,
295405,2022-12-06_19h50.10.542,vts_reward_expectancy_bt,2022.2.4,Win32,29.92399306,Chrome,1280,720,,,,,0,720,,,,,,,,,,,,,,,,,W,174,triangle,1,0,,3,,,,,,,,,,,,,,repeat,letter,lettRpt,f,vtsPrac,6,0,6,0,1,0.6966,,,,,,,,,,,,,,,,,,,,,,,
295405,2022-12-06_19h50.10.542,vts_reward_expectancy_bt,2022.2.4,Win32,29.92399306,Chrome,1280,720,,,,,0,720,,,,,,,,,,,,,,,,,Y,139,star,1,0,,3,,,,,,,,,,,,,,repeat,letter,lettRpt,f,vtsPrac,7,0,7,0,1,0.9172,,,,,,,,,,,,,,,,,,,,,,,
295405,2022-12-06_19h50.10.542,vts_reward_expectancy_bt,2022.2.4,Win32,29.92399306,Chrome,1280,720,,,,,0,720,,,,,,,,,,,,,,,,,Y,125,triangle,1,0,,3,,,,,,,,,,,,,,switch,number,numSwt,j,vtsPrac,8,0,8,0,1,0.6676,,,,,,,,,,,,,,,,,,,,,,,
295405,2022-12-06_19h50.10.542,vts_reward_expectancy_bt,2022.2.4,Win32,29.92399306,Chrome,1280,720,,,,,0,720,,,,,,,,,,,,,,,,,S,167,star,1,0,,3,,,,,,,,,,,,,,repeat,number,numRpt,k,vtsPrac,9,0,9,0,1,1.0845,,,,,,,,,,,,,,,,,,,,,,,
295405,2022-12-06_19h50.10.542,vts_reward_expectancy_bt,2022.2.4,Win32,29.92399306,Chrome,1280,720,,,,,0,720,,,,,,,,,,,,,,,,,H,174,triangle,1,0,,3,,,,,,,,,,,,,,switch,letter,lettSwt,d,vtsPrac,10,0,10,0,1,2.3712,,,,,,,,,,,,,,,,,,,,,,,
295405,2022-12-06_19h50.10.542,vts_reward_expectancy_bt,2022.2.4,Win32,29.92399306,Chrome,1280,720,,,,,0,720,,,,,,,,,,,,,,,,,B,160,star,1,0,,3,,,,,,,,,,,,,,repeat,letter,lettRpt,d,vtsPrac,11,0,11,0,1,1.0852,,,,,,,,,,,,,,,,,,,,,,,
295405,2022-12-06_19h50.10.542,vts_reward_expectancy_bt,2022.2.4,Win32,29.92399306,Chrome,1280,720,,,,,0,720,,,,,,,,,,,,,,,,,S,167,circle,1,0,,3,,,,,,,,,,,,,,repeat,letter,lettRpt,f,vtsPrac,12,0,12,0,1,1.4176,,,,,,,,,,,,,,,,,,,,,,,
295405,2022-12-06_19h50.10.542,vts_reward_expectancy_bt,2022.2.4,Win32,29.92399306,Chrome,1280,720,,,,,0,720,,,,,,,,,,,,,,,,,F,174,triangle,1,0,,3,,,,,,,,,,,,,,switch,number,numSwt,k,vtsPrac,13,0,13,0,1,0.8507,,,,,,,,,,,,,,,,,,,,,,,
295405,2022-12-06_19h50.10.542,vts_reward_expectancy_bt,2022.2.4,Win32,29.92399306,Chrome,1280,720,,,,,0,720,,,,,,,,,,,,,,,,,Y,139,circle,1,0,,3,,,,,,,,,,,,,,switch,letter,lettSwt,f,vtsPrac,14,0,14,0,1,1.0174,,,,,,,,,,,,,,,,,,,,,,,
295405,2022-12-06_19h50.10.542,vts_reward_expectancy_bt,2022.2.4,Win32,29.92399306,Chrome,1280,720,,,,,0,720,,,,,,,,,,,,,,,,,B,125,hexagon,1,0,,3,,,,,,,,,,,,,,switch,number,numSwt,j,vtsPrac,15,0,15,0,1,0.568,,,,,,,,,,,,,,,,,,,,,,,
295405,2022-12-06_19h50.10.542,vts_reward_expectancy_bt,2022.2.4,Win32,29.92399306,Chrome,1280,720,,,,,0,720,,,,,,,,,,,,,,,,,U,181,triangle,1,0,,3,,,,,,,,,,,,,,repeat,number,numRpt,k,vtsPrac,16,0,16,0,1,1.0031,,,,,,,,,,,,,,,,,,,,,,,
295405,2022-12-06_19h50.10.542,vts_reward_expectancy_bt,2022.2.4,Win32,29.92399306,Chrome,1280,720,,,,,0,720,,,,,,,,,,,,,,,,,F,146,hexagon,1,0,,3,,,,,,,,,,,,,,switch,letter,lettSwt,d,vtsPrac,17,0,17,0,1,0.9284,,,,,,,,,,,,,,,,,,,,,,,
295405,2022-12-06_19h50.10.542,vts_reward_expectancy_bt,2022.2.4,Win32,29.92399306,Chrome,1280,720,,,,,0,720,,,,,,,,,,,,,,,,,D,167,triangle,1,0,,3,,,,,,,,,,,,,,switch,number,numSwt,k,vtsPrac,18,0,18,0,1,1.4509,,,,,,,,,,,,,,,,,,,,,,,
295405,2022-12-06_19h50.10.542,vts_reward_expectancy_bt,2022.2.4,Win32,29.92399306,Chrome,1280,720,,,,,0,720,,,,,,,,,,,,,,,,,Y,174,hexagon,1,0,,3,,,,,,,,,,,,,,switch,letter,lettSwt,f,vtsPrac,19,0,19,0,1,1.9174,,,,,,,,,,,,,,,,,,,,,,,
295405,2022-12-06_19h50.10.542,vts_reward_expectancy_bt,2022.2.4,Win32,29.92399306,Chrome,1280,720,,,,,0,720,,,,,,,,,,,,,,,,,Y,146,triangle,1,0,,3,,,,,,,,,,,,,,switch,number,numSwt,j,vtsPrac,20,0,20,0,1,1.7496,,,,,,,,,,,,,,,,,,,,,,,
295405,2022-12-06_19h50.10.542,vts_reward_expectancy_bt,2022.2.4,Win32,29.92399306,Chrome,1280,720,,,,,0,720,,,,,,,,,,,,,,,,,B,167,circle,1,0,,3,,,,,,,,,,,,,,repeat,number,numRpt,k,vtsPrac,21,0,21,0,1,1.0175,,,,,,,,,,,,,,,,,,,,,,,
295405,2022-12-06_19h50.10.542,vts_reward_expectancy_bt,2022.2.4,Win32,29.92399306,Chrome,1280,720,,,,,0,720,,,,,,,,,,,,,,,,,F,139,hexagon,1,0,,3,,,,,,,,,,,,,,repeat,number,numRpt,j,vtsPrac,22,0,22,0,1,1.7168,,,,,,,,,,,,,,,,,,,,,,,
295405,2022-12-06_19h50.10.542,vts_reward_expectancy_bt,2022.2.4,Win32,29.92399306,Chrome,1280,720,,,,,0,720,,,,,,,,,,,,,,,,,U,160,triangle,1,0,,3,,,,,,,,,,,,,,switch,letter,lettSwt,f,vtsPrac,23,0,23,0,1,1.4946,,,,,,,,,,,,,,,,,,,,,,,
295405,2022-12-06_19h50.10.542,vts_reward_expectancy_bt,2022.2.4,Win32,29.92399306,Chrome,1280,720,,,,,0,720,,,,,,,,,,,,,,,,,H,167,star,1,0,,3,,,,,,,,,,,,,,repeat,letter,lettRpt,d,vtsPrac,24,0,24,0,1,2.0013,,,,,,,,,,,,,,,,,,,,,,,
295405,2022-12-06_19h50.10.542,vts_reward_expectancy_bt,2022.2.4,Win32,29.92399306,Chrome,1280,720,,,,,0,720,,,,,,,,,,,,,,,,,W,132,circle,1,0,,3,,,,,,,,,,,,,,switch,number,numSwt,j,vtsPrac,25,0,25,0,1,0.8178,,,,,,,,,,,,,,,,,,,,,,,
295405,2022-12-06_19h50.10.542,vts_reward_expectancy_bt,2022.2.4,Win32,29.92399306,Chrome,1280,720,,,,,0,720,,,,,,,,,,,,,,,,,F,174,hexagon,1,0,,3,,,,,,,,,,,,,,repeat,number,numRpt,k,vtsPrac,26,0,26,0,1,0.8387,,,,,,,,,,,,,,,,,,,,,,,
295405,2022-12-06_19h50.10.542,vts_reward_expectancy_bt,2022.2.4,Win32,29.92399306,Chrome,1280,720,,,,,0,720,,,,,,,,,,,,,,,,,Y,139,star,1,0,,3,,,,,,,,,,,,,,switch,letter,lettSwt,f,vtsPrac,27,0,27,0,1,1.4507,,,,,,,,,,,,,,,,,,,,,,,
295405,2022-12-06_19h50.10.542,vts_reward_expectancy_bt,2022.2.4,Win32,29.92399306,Chrome,1280,720,,,,,0,720,,,,,,,,,,,,,,,,,F,132,triangle,1,0,,3,,,,,,,,,,,,,,switch,number,numSwt,j,vtsPrac,28,0,28,0,1,0.9175,,,,,,,,,,,,,,,,,,,,,,,
295405,2022-12-06_19h50.10.542,vts_reward_expectancy_bt,2022.2.4,Win32,29.92399306,Chrome,1280,720,,,,,0,720,,,,,,,,,,,,,,,,,W,160,circle,1,0,,3,,,,,,,,,,,,,,repeat,number,numRpt,k,vtsPrac,29,0,29,0,1,1.0008,,,,,,,,,,,,,,,,,,,,,,,
295405,2022-12-06_19h50.10.542,vts_reward_expectancy_bt,2022.2.4,Win32,29.92399306,Chrome,1280,720,,,,,0,720,,,,,,,,,,,,,,,,,U,181,star,1,0,,3,,,,,,,,,,,,,,switch,letter,lettSwt,f,vtsPrac,30,0,30,0,1,0.9922,,,,,,,,,,,,,,,,,,,,,,,
295405,2022-12-06_19h50.10.542,vts_reward_expectancy_bt,2022.2.4,Win32,29.92399306,Chrome,1280,720,,,,,0,720,,,,,,,,,,,,,,,,,Y,174,triangle,1,0,,3,,,,,,,,,,,,,,repeat,letter,lettRpt,f,vtsPrac,31,0,31,0,1,0.6341,,,,,,,,,,,,,,,,,,,,,,,
295405,2022-12-06_19h50.10.542,vts_reward_expectancy_bt,2022.2.4,Win32,29.92399306,Chrome,1280,720,,,,,,,,,,,,,,,,,,,,,,,,,,,,,,,,,,,,,,,,,,,,,,,,,,,,,,,,,,,,,,,,,,,,,,,,,,,,
295405,2022-12-06_19h50.10.542,vts_reward_expectancy_bt,2022.2.4,Win32,29.92399306,Chrome,1280,720,,,,,,,,,,,,,,,,,,,,,,,,,,,,,,,,,,,,,,,,,,,,,,,,,,,,,,,,,,,,,,,,,,,,,,,,,,,,
295405,2022-12-06_19h50.10.542,vts_reward_expectancy_bt,2022.2.4,Win32,29.92399306,Chrome,1280,720,,,,,0,720,,,,,,,,,,,,,,,,,H,146,hexagon,1,0,,,,,,,,,,,,,,,,repeat,letter,lettRpt,d,noRew,,,,,,1.5174,0,0,0,0,0,1,,,,,,,,,,,,,,,,,
295405,2022-12-06_19h50.10.542,vts_reward_expectancy_bt,2022.2.4,Win32,29.92399306,Chrome,1280,720,,,,,0,720,,,,,,,,,,,,,,,,,S,139,triangle,1,0,,,,,,,,,,,,,,,,repeat,letter,lettRpt,f,noRew,,,,,,1.0016,0,1,0,1,0,1,,,,,,,,,,,,,,,,,
295405,2022-12-06_19h50.10.542,vts_reward_expectancy_bt,2022.2.4,Win32,29.92399306,Chrome,1280,720,,,,,0,720,,,,,,,,,,,,,,,,,Y,174,hexagon,1,0,,,,,,,,,,,,,,,,repeat,letter,lettRpt,f,noRew,,,,,,1.7677,0,2,0,2,0,1,,,,,,,,,,,,,,,,,
295405,2022-12-06_19h50.10.542,vts_reward_expectancy_bt,2022.2.4,Win32,29.92399306,Chrome,1280,720,,,,,0,720,,,,,,,,,,,,,,,,,U,125,triangle,1,0,,,,,,,,,,,,,,,,switch,number,numSwt,j,noRew,,,,,,1.8179,0,3,0,3,0,1,,,,,,,,,,,,,,,,,
295405,2022-12-06_19h50.10.542,vts_reward_expectancy_bt,2022.2.4,Win32,29.92399306,Chrome,1280,720,,,,,0,720,,,,,,,,,,,,,,,,,H,146,triangle,1,0,,,,,,,,,,,,,,,,repeat,number,numRpt,j,noRew,,,,,,1.3008,0,4,0,4,0,1,,,,,,,,,,,,,,,,,
295405,2022-12-06_19h50.10.542,vts_reward_expectancy_bt,2022.2.4,Win32,29.92399306,Chrome,1280,720,,,,,0,720,,,,,,,,,,,,,,,,,S,139,hexagon,1,0,,,,,,,,,,,,,,,,switch,letter,lettSwt,f,noRew,,,,,,1.2675,0,5,0,5,0,1,,,,,,,,,,,,,,,,,
295405,2022-12-06_19h50.10.542,vts_reward_expectancy_bt,2022.2.4,Win32,29.92399306,Chrome,1280,720,,,,,0,720,,,,,,,,,,,,,,,,,Y,174,star,1,0,,,,,,,,,,,,,,,,switch,number,numSwt,k,noRew,,,,,,1.2863,0,6,0,6,0,1,,,,,,,,,,,,,,,,,
295405,2022-12-06_19h50.10.542,vts_reward_expectancy_bt,2022.2.4,Win32,29.92399306,Chrome,1280,720,,,,,0,720,,,,,,,,,,,,,,,,,U,125,triangle,1,0,,,,,,,,,,,,,,,,repeat,number,numRpt,j,noRew,,,,,,1.1194,0,7,0,7,0,1,,,,,,,,,,,,,,,,,
295405,2022-12-06_19h50.10.542,vts_reward_expectancy_bt,2022.2.4,Win32,29.92399306,Chrome,1280,720,,,,,0,720,,,,,,,,,,,,,,,,,Y,146,circle,1,0,,,,,,,,,,,,,,,,repeat,number,numRpt,j,noRew,,,,,,1.284,0,8,0,8,0,1,,,,,,,,,,,,,,,,,
295405,2022-12-06_19h50.10.542,vts_reward_expectancy_bt,2022.2.4,Win32,29.92399306,Chrome,1280,720,,,,,0,720,,,,,,,,,,,,,,,,,U,181,triangle,-1,0,,,,,,,,,,,,,,,,switch,no_choice,NA,,noRew,,,,,,,0,9,0,9,0,1,,,,,,,,,,,,,,,,,
295405,2022-12-06_19h50.10.542,vts_reward_expectancy_bt,2022.2.4,Win32,29.92399306,Chrome,1280,720,,,,,0,720,,,,,,,,,,,,,,,,,W,174,circle,1,0,,,,,,,,,,,,,,,,switch,letter,lettSwt,f,noRew,,,,,,0.7674,0,10,0,10,0,1,,,,,,,,,,,,,,,,,
295405,2022-12-06_19h50.10.542,vts_reward_expectancy_bt,2022.2.4,Win32,29.92399306,Chrome,1280,720,,,,,0,720,,,,,,,,,,,,,,,,,H,125,triangle,1,0,,,,,,,,,,,,,,,,repeat,letter,lettRpt,d,noRew,,,,,,0.8008,0,11,0,11,0,1,,,,,,,,,,,,,,,,,
295405,2022-12-06_19h50.10.542,vts_reward_expectancy_bt,2022.2.4,Win32,29.92399306,Chrome,1280,720,,,,,0,720,,,,,,,,,,,,,,,,,U,139,hexagon,1,0,,,,,,,,,,,,,,,,repeat,letter,lettRpt,f,noRew,,,,,,0.7595,0,12,0,12,0,1,,,,,,,,,,,,,,,,,
295405,2022-12-06_19h50.10.542,vts_reward_expectancy_bt,2022.2.4,Win32,29.92399306,Chrome,1280,720,,,,,0,720,,,,,,,,,,,,,,,,,H,167,triangle,-1,0,,,,,,,,,,,,,,,,switch,no_choice,NA,,noRew,,,,,,,0,13,0,13,0,1,,,,,,,,,,,,,,,,,
295405,2022-12-06_19h50.10.542,vts_reward_expectancy_bt,2022.2.4,Win32,29.92399306,Chrome,1280,720,,,,,0,720,,,,,,,,,,,,,,,,,S,125,triangle,1,0,,,,,,,,,,,,,,,,switch,number,numSwt,j,noRew,,,,,,1.3339,0,14,0,14,0,1,,,,,,,,,,,,,,,,,
295405,2022-12-06_19h50.10.542,vts_reward_expectancy_bt,2022.2.4,Win32,29.92399306,Chrome,1280,720,,,,,0,720,,,,,,,,,,,,,,,,,B,174,circle,1,0,,,,,,,,,,,,,,,,repeat,number,numRpt,k,noRew,,,,,,1.1208,0,15,0,15,0,1,,,,,,,,,,,,,,,,,
295405,2022-12-06_19h50.10.542,vts_reward_expectancy_bt,2022.2.4,Win32,29.92399306,Chrome,1280,720,,,,,0,720,,,,,,,,,,,,,,,,,F,125,triangle,1,0,,,,,,,,,,,,,,,,switch,letter,lettSwt,d,noRew,,,,,,0.7676,0,16,0,16,0,1,,,,,,,,,,,,,,,,,
295405,2022-12-06_19h50.10.542,vts_reward_expectancy_bt,2022.2.4,Win32,29.92399306,Chrome,1280,720,,,,,0,720,,,,,,,,,,,,,,,,,S,146,star,1,0,,,,,,,,,,,,,,,,repeat,letter,lettRpt,f,noRew,,,,,,1.3365,0,17,0,17,0,1,,,,,,,,,,,,,,,,,
295405,2022-12-06_19h50.10.542,vts_reward_expectancy_bt,2022.2.4,Win32,29.92399306,Chrome,1280,720,,,,,0,720,,,,,,,,,,,,,,,,,W,139,hexagon,1,0,,,,,,,,,,,,,,,,switch,number,numSwt,j,noRew,,,,,,0.8076,0,18,0,18,0,1,,,,,,,,,,,,,,,,,
295405,2022-12-06_19h50.10.542,vts_reward_expectancy_bt,2022.2.4,Win32,29.92399306,Chrome,1280,720,,,,,0,720,,,,,,,,,,,,,,,,,Y,181,star,1,0,,,,,,,,,,,,,,,,switch,letter,lettSwt,f,noRew,,,,,,1.5196,0,19,0,19,0,1,,,,,,,,,,,,,,,,,
295405,2022-12-06_19h50.10.542,vts_reward_expectancy_bt,2022.2.4,Win32,29.92399306,Chrome,1280,720,,,,,0,720,,,,,,,,,,,,,,,,,U,167,hexagon,1,0,,,,,,,,,,,,,,,,repeat,letter,lettRpt,f,noRew,,,,,,1.1459,0,20,0,20,0,1,,,,,,,,,,,,,,,,,
295405,2022-12-06_19h50.10.542,vts_reward_expectancy_bt,2022.2.4,Win32,29.92399306,Chrome,1280,720,,,,,0,720,,,,,,,,,,,,,,,,,W,181,circle,1,0,,,,,,,,,,,,,,,,switch,number,numSwt,k,noRew,,,,,,1.2845,0,21,0,21,0,1,,,,,,,,,,,,,,,,,
295405,2022-12-06_19h50.10.542,vts_reward_expectancy_bt,2022.2.4,Win32,29.92399306,Chrome,1280,720,,,,,0,720,,,,,,,,,,,,,,,,,D,174,triangle,1,0,,,,,,,,,,,,,,,,switch,letter,lettSwt,d,noRew,,,,,,1.1276,0,22,0,22,0,1,,,,,,,,,,,,,,,,,
295405,2022-12-06_19h50.10.542,vts_reward_expectancy_bt,2022.2.4,Win32,29.92399306,Chrome,1280,720,,,,,0,720,,,,,,,,,,,,,,,,,Y,139,circle,1,0,,,,,,,,,,,,,,,,switch,number,numSwt,j,noRew,,,,,,1.0719,0,23,0,23,0,1,,,,,,,,,,,,,,,,,
295405,2022-12-06_19h50.10.542,vts_reward_expectancy_bt,2022.2.4,Win32,29.92399306,Chrome,1280,720,,,,,0,720,,,,,,,,,,,,,,,,,H,181,star,1,0,,,,,,,,,,,,,,,,repeat,number,numRpt,k,noRew,,,,,,1.2674,0,24,0,24,0,1,,,,,,,,,,,,,,,,,
295405,2022-12-06_19h50.10.542,vts_reward_expectancy_bt,2022.2.4,Win32,29.92399306,Chrome,1280,720,,,,,0,720,,,,,,,,,,,,,,,,,Y,174,triangle,1,0,,,,,,,,,,,,,,,,switch,letter,lettSwt,f,noRew,,,,,,1.3007,0,25,0,25,0,1,,,,,,,,,,,,,,,,,
295405,2022-12-06_19h50.10.542,vts_reward_expectancy_bt,2022.2.4,Win32,29.92399306,Chrome,1280,720,,,,,0,720,,,,,,,,,,,,,,,,,D,125,hexagon,1,0,,,,,,,,,,,,,,,,repeat,letter,lettRpt,d,noRew,,,,,,1.5174,0,26,0,26,0,1,,,,,,,,,,,,,,,,,
295405,2022-12-06_19h50.10.542,vts_reward_expectancy_bt,2022.2.4,Win32,29.92399306,Chrome,1280,720,,,,,0,720,,,,,,,,,,,,,,,,,S,160,star,1,0,,,,,,,,,,,,,,,,switch,number,numSwt,k,noRew,,,,,,1.9007,0,27,0,27,0,1,,,,,,,,,,,,,,,,,
295405,2022-12-06_19h50.10.542,vts_reward_expectancy_bt,2022.2.4,Win32,29.92399306,Chrome,1280,720,,,,,0,720,,,,,,,,,,,,,,,,,U,146,triangle,1,0,,,,,,,,,,,,,,,,switch,letter,lettSwt,f,noRew,,,,,,2.0215,0,28,0,28,0,1,,,,,,,,,,,,,,,,,
295405,2022-12-06_19h50.10.542,vts_reward_expectancy_bt,2022.2.4,Win32,29.92399306,Chrome,1280,720,,,,,0,720,,,,,,,,,,,,,,,,,W,167,circle,1,0,,,,,,,,,,,,,,,,repeat,letter,lettRpt,f,noRew,,,,,,1.315,0,29,0,29,0,1,,,,,,,,,,,,,,,,,
295405,2022-12-06_19h50.10.542,vts_reward_expectancy_bt,2022.2.4,Win32,29.92399306,Chrome,1280,720,,,,,0,720,,,,,,,,,,,,,,,,,D,160,hexagon,1,0,,,,,,,,,,,,,,,,repeat,letter,lettRpt,d,noRew,,,,,,0.8176,0,30,0,30,0,1,,,,,,,,,,,,,,,,,
295405,2022-12-06_19h50.10.542,vts_reward_expectancy_bt,2022.2.4,Win32,29.92399306,Chrome,1280,720,,,,,0,720,,,,,,,,,,,,,,,,,H,125,circle,1,0,,,,,,,,,,,,,,,,switch,number,numSwt,j,noRew,,,,,,0.6012,0,31,0,31,0,1,,,,,,,,,,,,,,,,,
295405,2022-12-06_19h50.10.542,vts_reward_expectancy_bt,2022.2.4,Win32,29.92399306,Chrome,1280,720,,,,,0,720,,,,,,,,,,,,,,,,,S,132,hexagon,1,0,,,,,,,,,,,,,,,,repeat,number,numRpt,j,noRew,,,,,,0.7672,0,32,0,32,0,1,,,,,,,,,,,,,,,,,
295405,2022-12-06_19h50.10.542,vts_reward_expectancy_bt,2022.2.4,Win32,29.92399306,Chrome,1280,720,,,,,0,720,,,,,,,,,,,,,,,,,Y,146,triangle,1,0,,,,,,,,,,,,,,,,switch,letter,lettSwt,f,noRew,,,,,,0.9341,0,33,0,33,0,1,,,,,,,,,,,,,,,,,
295405,2022-12-06_19h50.10.542,vts_reward_expectancy_bt,2022.2.4,Win32,29.92399306,Chrome,1280,720,,,,,0,720,,,,,,,,,,,,,,,,,B,174,triangle,1,0,,,,,,,,,,,,,,,,repeat,letter,lettRpt,d,noRew,,,,,,1.9841,0,34,0,34,0,1,,,,,,,,,,,,,,,,,
295405,2022-12-06_19h50.10.542,vts_reward_expectancy_bt,2022.2.4,Win32,29.92399306,Chrome,1280,720,,,,,0,720,,,,,,,,,,,,,,,,,U,167,circle,1,0,,,,,,,,,,,,,,,,switch,number,numSwt,k,noRew,,,,,,1.0175,0,35,0,35,0,1,,,,,,,,,,,,,,,,,
295405,2022-12-06_19h50.10.542,vts_reward_expectancy_bt,2022.2.4,Win32,29.92399306,Chrome,1280,720,,,,,0,720,,,,,,,,,,,,,,,,,H,160,circle,1,0,,,,,,,,,,,,,,,,repeat,number,numRpt,k,noRew,,,,,,1.0509,0,36,0,36,0,1,,,,,,,,,,,,,,,,,
295405,2022-12-06_19h50.10.542,vts_reward_expectancy_bt,2022.2.4,Win32,29.92399306,Chrome,1280,720,,,,,0,720,,,,,,,,,,,,,,,,,Y,125,hexagon,1,0,,,,,,,,,,,,,,,,switch,letter,lettSwt,f,noRew,,,,,,0.7787,0,37,0,37,0,1,,,,,,,,,,,,,,,,,
295405,2022-12-06_19h50.10.542,vts_reward_expectancy_bt,2022.2.4,Win32,29.92399306,Chrome,1280,720,,,,,0,720,,,,,,,,,,,,,,,,,D,139,triangle,0,0,,,,,,,,,,,,,,,,repeat,letter,NA,f,noRew,,,,,,0.7672,0,38,0,38,0,1,,,,,,,,,,,,,,,,,
295405,2022-12-06_19h50.10.542,vts_reward_expectancy_bt,2022.2.4,Win32,29.92399306,Chrome,1280,720,,,,,0,720,,,,,,,,,,,,,,,,,S,181,hexagon,1,1,,,,,,,,,,,,,,,,repeat,letter,lettRpt,f,noRew,,,,,,1.9508,0,39,0,39,0,1,,,,,,,,,,,,,,,,,
295405,2022-12-06_19h50.10.542,vts_reward_expectancy_bt,2022.2.4,Win32,29.92399306,Chrome,1280,720,,,,,0,720,,,,,,,,,,,,,,,,,D,160,circle,1,0,,,,,,,,,,,,,,,,repeat,letter,lettRpt,d,noRew,,,,,,0.9509,0,40,0,40,0,1,,,,,,,,,,,,,,,,,
295405,2022-12-06_19h50.10.542,vts_reward_expectancy_bt,2022.2.4,Win32,29.92399306,Chrome,1280,720,,,,,0,720,,,,,,,,,,,,,,,,,U,146,triangle,1,0,,,,,,,,,,,,,,,,switch,number,numSwt,j,noRew,,,,,,1.4707,0,41,0,41,0,1,,,,,,,,,,,,,,,,,
295405,2022-12-06_19h50.10.542,vts_reward_expectancy_bt,2022.2.4,Win32,29.92399306,Chrome,1280,720,,,,,0,720,,,,,,,,,,,,,,,,,B,181,hexagon,1,0,,,,,,,,,,,,,,,,repeat,number,numRpt,k,noRew,,,,,,1.3531,0,42,0,42,0,1,,,,,,,,,,,,,,,,,
295405,2022-12-06_19h50.10.542,vts_reward_expectancy_bt,2022.2.4,Win32,29.92399306,Chrome,1280,720,,,,,0,720,,,,,,,,,,,,,,,,,F,139,triangle,1,0,,,,,,,,,,,,,,,,repeat,number,numRpt,j,noRew,,,,,,1.1507,0,43,0,43,0,1,,,,,,,,,,,,,,,,,
295405,2022-12-06_19h50.10.542,vts_reward_expectancy_bt,2022.2.4,Win32,29.92399306,Chrome,1280,720,,,,,0,720,,,,,,,,,,,,,,,,,F,132,star,1,0,,,,,,,,,,,,,,,,repeat,number,numRpt,j,noRew,,,,,,2.1508,0,44,0,44,0,1,,,,,,,,,,,,,,,,,
295405,2022-12-06_19h50.10.542,vts_reward_expectancy_bt,2022.2.4,Win32,29.92399306,Chrome,1280,720,,,,,0,720,,,,,,,,,,,,,,,,,U,146,circle,1,0,,,,,,,,,,,,,,,,switch,letter,lettSwt,f,noRew,,,,,,1.5878,0,45,0,45,0,1,,,,,,,,,,,,,,,,,
295405,2022-12-06_19h50.10.542,vts_reward_expectancy_bt,2022.2.4,Win32,29.92399306,Chrome,1280,720,,,,,0,720,,,,,,,,,,,,,,,,,S,181,star,1,0,,,,,,,,,,,,,,,,repeat,letter,lettRpt,f,noRew,,,,,,1.537,0,46,0,46,0,1,,,,,,,,,,,,,,,,,
295405,2022-12-06_19h50.10.542,vts_reward_expectancy_bt,2022.2.4,Win32,29.92399306,Chrome,1280,720,,,,,0,720,,,,,,,,,,,,,,,,,H,160,triangle,1,0,,,,,,,,,,,,,,,,repeat,letter,lettRpt,d,noRew,,,,,,1.4387,0,47,0,47,0,1,,,,,,,,,,,,,,,,,
295405,2022-12-06_19h50.10.542,vts_reward_expectancy_bt,2022.2.4,Win32,29.92399306,Chrome,1280,720,,,,,0,720,,,,,,,,,,,,,,,,,S,146,circle,1,0,,,,,,,,,,,,,,,,switch,number,numSwt,j,noRew,,,,,,0.8012,0,48,0,48,0,1,,,,,,,,,,,,,,,,,
295405,2022-12-06_19h50.10.542,vts_reward_expectancy_bt,2022.2.4,Win32,29.92399306,Chrome,1280,720,,,,,0,720,,,,,,,,,,,,,,,,,F,174,star,1,0,,,,,,,,,,,,,,,,repeat,number,numRpt,k,noRew,,,,,,1.6811,0,49,0,49,0,1,,,,,,,,,,,,,,,,,
295405,2022-12-06_19h50.10.542,vts_reward_expectancy_bt,2022.2.4,Win32,29.92399306,Chrome,1280,720,,,,,0,720,,,,,,,,,,,,,,,,,H,132,star,1,0,,,,,,,,,,,,,,,,repeat,number,numRpt,j,noRew,,,,,,1.4258,0,50,0,50,0,1,,,,,,,,,,,,,,,,,
295405,2022-12-06_19h50.10.542,vts_reward_expectancy_bt,2022.2.4,Win32,29.92399306,Chrome,1280,720,,,,,0,720,,,,,,,,,,,,,,,,,D,181,hexagon,1,0,,,,,,,,,,,,,,,,switch,letter,lettSwt,d,noRew,,,,,,1.2686,0,51,0,51,0,1,,,,,,,,,,,,,,,,,
295405,2022-12-06_19h50.10.542,vts_reward_expectancy_bt,2022.2.4,Win32,29.92399306,Chrome,1280,720,,,,,0,720,,,,,,,,,,,,,,,,,B,181,circle,1,0,,,,,,,,,,,,,,,,repeat,letter,lettRpt,d,noRew,,,,,,1.1493,0,52,0,52,0,1,,,,,,,,,,,,,,,,,
295405,2022-12-06_19h50.10.542,vts_reward_expectancy_bt,2022.2.4,Win32,29.92399306,Chrome,1280,720,,,,,0,720,,,,,,,,,,,,,,,,,D,167,hexagon,1,0,,,,,,,,,,,,,,,,switch,number,numSwt,k,noRew,,,,,,1.1341,0,53,0,53,0,1,,,,,,,,,,,,,,,,,
295405,2022-12-06_19h50.10.542,vts_reward_expectancy_bt,2022.2.4,Win32,29.92399306,Chrome,1280,720,,,,,0,720,,,,,,,,,,,,,,,,,F,132,star,1,0,,,,,,,,,,,,,,,,switch,letter,lettSwt,d,noRew,,,,,,1.8841,0,54,0,54,0,1,,,,,,,,,,,,,,,,,
295405,2022-12-06_19h50.10.542,vts_reward_expectancy_bt,2022.2.4,Win32,29.92399306,Chrome,1280,720,,,,,0,720,,,,,,,,,,,,,,,,,S,174,triangle,1,0,,,,,,,,,,,,,,,,switch,number,numSwt,k,noRew,,,,,,1.4173,0,55,0,55,0,1,,,,,,,,,,,,,,,,,
295405,2022-12-06_19h50.10.542,vts_reward_expectancy_bt,2022.2.4,Win32,29.92399306,Chrome,1280,720,,,,,0,720,,,,,,,,,,,,,,,,,H,139,star,1,0,,,,,,,,,,,,,,,,switch,letter,lettSwt,d,noRew,,,,,,0.7844,0,56,0,56,0,1,,,,,,,,,,,,,,,,,
295405,2022-12-06_19h50.10.542,vts_reward_expectancy_bt,2022.2.4,Win32,29.92399306,Chrome,1280,720,,,,,0,720,,,,,,,,,,,,,,,,,W,181,triangle,1,0,,,,,,,,,,,,,,,,switch,number,numSwt,k,noRew,,,,,,0.9115,0,57,0,57,0,1,,,,,,,,,,,,,,,,,
295405,2022-12-06_19h50.10.542,vts_reward_expectancy_bt,2022.2.4,Win32,29.92399306,Chrome,1280,720,,,,,0,720,,,,,,,,,,,,,,,,,F,146,star,1,0,,,,,,,,,,,,,,,,switch,letter,lettSwt,d,noRew,,,,,,0.9677,0,58,0,58,0,1,,,,,,,,,,,,,,,,,
295405,2022-12-06_19h50.10.542,vts_reward_expectancy_bt,2022.2.4,Win32,29.92399306,Chrome,1280,720,,,,,0,720,,,,,,,,,,,,,,,,,B,160,circle,1,0,,,,,,,,,,,,,,,,switch,number,numSwt,k,noRew,,,,,,0.9017,0,59,0,59,0,1,,,,,,,,,,,,,,,,,
295405,2022-12-06_19h50.10.542,vts_reward_expectancy_bt,2022.2.4,Win32,29.92399306,Chrome,1280,720,,,,,0,720,,,,,,,,,,,,,,,,,F,132,star,1,0,,,,,,,,,,,,,,,,switch,letter,lettSwt,d,noRew,,,,,,2.6403,0,60,0,60,0,1,,,,,,,,,,,,,,,,,
295405,2022-12-06_19h50.10.542,vts_reward_expectancy_bt,2022.2.4,Win32,29.92399306,Chrome,1280,720,,,,,0,720,,,,,,,,,,,,,,,,,B,139,triangle,1,0,,,,,,,,,,,,,,,,repeat,letter,lettRpt,d,noRew,,,,,,1.2006,0,61,0,61,0,1,,,,,,,,,,,,,,,,,
295405,2022-12-06_19h50.10.542,vts_reward_expectancy_bt,2022.2.4,Win32,29.92399306,Chrome,1280,720,,,,,0,720,,,,,,,,,,,,,,,,,U,167,star,1,0,,,,,,,,,,,,,,,,switch,number,numSwt,k,noRew,,,,,,1.4341,0,62,0,62,0,1,,,,,,,,,,,,,,,,,
295405,2022-12-06_19h50.10.542,vts_reward_expectancy_bt,2022.2.4,Win32,29.92399306,Chrome,1280,720,,,,,0,720,,,,,,,,,,,,,,,,,H,181,triangle,1,0,,,,,,,,,,,,,,,,switch,letter,lettSwt,d,noRew,,,,,,0.9013,0,63,0,63,0,1,,,,,,,,,,,,,,,,,
295405,2022-12-06_19h50.10.542,vts_reward_expectancy_bt,2022.2.4,Win32,29.92399306,Chrome,1280,720,,,,,,,,,,,,,,,,,,,,,,,,,,,,,,,,,,,,,,,,,,,,,,,,,,,,,,,,,,,,,,,,,,,,,,,,,,,,
295405,2022-12-06_19h50.10.542,vts_reward_expectancy_bt,2022.2.4,Win32,29.92399306,Chrome,1280,720,,,,,10,730,,,,,,,,,,,,,,,,,D,132,circle,1,0,,,,,,,,,,,,,,,,repeat,letter,lettRpt,d,Hi,,,,,,0.6348,0,,,,,,space,12.3743,high,0,0,0,0,1,,,,,,,,,
295405,2022-12-06_19h50.10.542,vts_reward_expectancy_bt,2022.2.4,Win32,29.92399306,Chrome,1280,720,,,,,1,731,,,,,,,,,,,,,,,,,W,167,hexagon,1,0,,,,,,,,,,,,,,,,repeat,letter,lettRpt,f,Lo,,,,,,0.7092,0,,,,,,,,high,1,0,1,0,1,,,,,,,,,
295405,2022-12-06_19h50.10.542,vts_reward_expectancy_bt,2022.2.4,Win32,29.92399306,Chrome,1280,720,,,,,1,732,,,,,,,,,,,,,,,,,H,139,triangle,1,0,,,,,,,,,,,,,,,,repeat,letter,lettRpt,d,Lo,,,,,,0.7676,0,,,,,,,,high,2,0,2,0,1,,,,,,,,,
295405,2022-12-06_19h50.10.542,vts_reward_expectancy_bt,2022.2.4,Win32,29.92399306,Chrome,1280,720,,,,,1,733,,,,,,,,,,,,,,,,,F,181,star,1,0,,,,,,,,,,,,,,,,repeat,letter,lettRpt,d,Hi,,,,,,0.6673,0,,,,,,,,high,3,0,3,0,1,,,,,,,,,
295405,2022-12-06_19h50.10.542,vts_reward_expectancy_bt,2022.2.4,Win32,29.92399306,Chrome,1280,720,,,,,10,743,,,,,,,,,,,,,,,,,U,160,circle,1,0,,,,,,,,,,,,,,,,switch,number,numSwt,k,Hi,,,,,,0.9175,0,,,,,,,,high,4,0,4,0,1,,,,,,,,,
295405,2022-12-06_19h50.10.542,vts_reward_expectancy_bt,2022.2.4,Win32,29.92399306,Chrome,1280,720,,,,,1,744,,,,,,,,,,,,,,,,,S,125,hexagon,1,0,,,,,,,,,,,,,,,,repeat,number,numRpt,j,Lo,,,,,,1.627,0,,,,,,,,high,5,0,5,0,1,,,,,,,,,
295405,2022-12-06_19h50.10.542,vts_reward_expectancy_bt,2022.2.4,Win32,29.92399306,Chrome,1280,720,,,,,1,745,,,,,,,,,,,,,,,,,Y,174,triangle,1,0,,,,,,,,,,,,,,,,repeat,number,numRpt,k,Lo,,,,,,0.9853,0,,,,,,,,high,6,0,6,0,1,,,,,,,,,
295405,2022-12-06_19h50.10.542,vts_reward_expectancy_bt,2022.2.4,Win32,29.92399306,Chrome,1280,720,,,,,0,745,,,,,,,,,,,,,,,,,B,146,star,1,0,,,,,,,,,,,,,,,,switch,letter,lettSwt,d,Hi,,,,,,2.798,0,,,,,,,,high,7,0,7,0,1,,,,,,,,,
295405,2022-12-06_19h50.10.542,vts_reward_expectancy_bt,2022.2.4,Win32,29.92399306,Chrome,1280,720,,,,,1,746,,,,,,,,,,,,,,,,,D,132,hexagon,1,0,,,,,,,,,,,,,,,,repeat,letter,lettRpt,d,Lo,,,,,,0.601,0,,,,,,,,high,8,0,8,0,1,,,,,,,,,
295405,2022-12-06_19h50.10.542,vts_reward_expectancy_bt,2022.2.4,Win32,29.92399306,Chrome,1280,720,,,,,0,746,,,,,,,,,,,,,,,,,W,167,star,1,0,,,,,,,,,,,,,,,,switch,number,numSwt,k,Hi,,,,,,1.0675,0,,,,,,,,high,9,0,9,0,1,,,,,,,,,
295405,2022-12-06_19h50.10.542,vts_reward_expectancy_bt,2022.2.4,Win32,29.92399306,Chrome,1280,720,,,,,1,747,,,,,,,,,,,,,,,,,H,139,triangle,1,0,,,,,,,,,,,,,,,,switch,letter,lettSwt,d,Lo,,,,,,0.6678,0,,,,,,,,high,10,0,10,0,1,,,,,,,,,
295405,2022-12-06_19h50.10.542,vts_reward_expectancy_bt,2022.2.4,Win32,29.92399306,Chrome,1280,720,,,,,10,757,,,,,,,,,,,,,,,,,F,181,circle,1,0,,,,,,,,,,,,,,,,switch,number,numSwt,k,Hi,,,,,,0.801,0,,,,,,,,high,11,0,11,0,1,,,,,,,,,
295405,2022-12-06_19h50.10.542,vts_reward_expectancy_bt,2022.2.4,Win32,29.92399306,Chrome,1280,720,,,,,10,767,,,,,,,,,,,,,,,,,U,160,circle,1,0,,,,,,,,,,,,,,,,repeat,number,numRpt,k,Hi,,,,,,0.8174,0,,,,,,,,high,12,0,12,0,1,,,,,,,,,
295405,2022-12-06_19h50.10.542,vts_reward_expectancy_bt,2022.2.4,Win32,29.92399306,Chrome,1280,720,,,,,0,767,,,,,,,,,,,,,,,,,S,125,hexagon,0,0,,,,,,,,,,,,,,,,switch,letter,NA,d,Hi,,,,,,2.1673,0,,,,,,,,high,13,0,13,0,1,,,,,,,,,
295405,2022-12-06_19h50.10.542,vts_reward_expectancy_bt,2022.2.4,Win32,29.92399306,Chrome,1280,720,,,,,10,777,,,,,,,,,,,,,,,,,Y,174,star,1,1,,,,,,,,,,,,,,,,repeat,letter,lettRpt,f,Hi,,,,,,1.1025,0,,,,,,,,high,14,0,14,0,1,,,,,,,,,
295405,2022-12-06_19h50.10.542,vts_reward_expectancy_bt,2022.2.4,Win32,29.92399306,Chrome,1280,720,,,,,1,778,,,,,,,,,,,,,,,,,B,146,triangle,1,0,,,,,,,,,,,,,,,,switch,number,numSwt,j,Lo,,,,,,0.884,0,,,,,,,,high,15,0,15,0,1,,,,,,,,,
295405,2022-12-06_19h50.10.542,vts_reward_expectancy_bt,2022.2.4,Win32,29.92399306,Chrome,1280,720,,,,,1,779,,,,,,,,,,,,,,,,,F,174,circle,1,0,,,,,,,,,,,,,,,,repeat,number,numRpt,k,Hi,,,,,,0.7177,0,,,,,,,,high,16,0,16,0,1,,,,,,,,,
295405,2022-12-06_19h50.10.542,vts_reward_expectancy_bt,2022.2.4,Win32,29.92399306,Chrome,1280,720,,,,,1,780,,,,,,,,,,,,,,,,,B,132,triangle,1,0,,,,,,,,,,,,,,,,switch,letter,lettSwt,d,Lo,,,,,,0.4008,0,,,,,,,,high,17,0,17,0,1,,,,,,,,,
295405,2022-12-06_19h50.10.542,vts_reward_expectancy_bt,2022.2.4,Win32,29.92399306,Chrome,1280,720,,,,,1,781,,,,,,,,,,,,,,,,,D,181,hexagon,1,0,,,,,,,,,,,,,,,,switch,number,numSwt,k,Lo,,,,,,0.516,0,,,,,,,,high,18,0,18,0,1,,,,,,,,,
295405,2022-12-06_19h50.10.542,vts_reward_expectancy_bt,2022.2.4,Win32,29.92399306,Chrome,1280,720,,,,,0,781,,,,,,,,,,,,,,,,,W,160,star,1,0,,,,,,,,,,,,,,,,repeat,number,numRpt,k,Hi,,,,,,1.1507,0,,,,,,,,high,19,0,19,0,1,,,,,,,,,
295405,2022-12-06_19h50.10.542,vts_reward_expectancy_bt,2022.2.4,Win32,29.92399306,Chrome,1280,720,,,,,0,781,,,,,,,,,,,,,,,,,Y,139,hexagon,0,0,,,,,,,,,,,,,,,,switch,letter,NA,d,Hi,,,,,,0.7807,0,,,,,,,,high,20,0,20,0,1,,,,,,,,,
295405,2022-12-06_19h50.10.542,vts_reward_expectancy_bt,2022.2.4,Win32,29.92399306,Chrome,1280,720,,,,,1,782,,,,,,,,,,,,,,,,,U,125,triangle,1,1,,,,,,,,,,,,,,,,switch,number,numSwt,j,Lo,,,,,,0.815,0,,,,,,,,high,21,0,21,0,1,,,,,,,,,
295405,2022-12-06_19h50.10.542,vts_reward_expectancy_bt,2022.2.4,Win32,29.92399306,Chrome,1280,720,,,,,0,782,,,,,,,,,,,,,,,,,H,146,star,1,0,,,,,,,,,,,,,,,,switch,letter,lettSwt,d,Hi,,,,,,1.4827,0,,,,,,,,high,22,0,22,0,1,,,,,,,,,
295405,2022-12-06_19h50.10.542,vts_reward_expectancy_bt,2022.2.4,Win32,29.92399306,Chrome,1280,720,,,,,1,783,,,,,,,,,,,,,,,,,S,167,circle,1,0,,,,,,,,,,,,,,,,switch,number,numSwt,k,Hi,,,,,,0.585,0,,,,,,,,high,23,0,23,0,1,,,,,,,,,
295405,2022-12-06_19h50.10.542,vts_reward_expectancy_bt,2022.2.4,Win32,29.92399306,Chrome,1280,720,,,,,0,783,,,,,,,,,,,,,,,,,S,125,circle,1,0,,,,,,,,,,,,,,,,switch,letter,lettSwt,f,Hi,,,,,,1.0508,0,,,,,,,,high,24,0,24,0,1,,,,,,,,,
295405,2022-12-06_19h50.10.542,vts_reward_expectancy_bt,2022.2.4,Win32,29.92399306,Chrome,1280,720,,,,,10,793,,,,,,,,,,,,,,,,,D,167,hexagon,1,0,,,,,,,,,,,,,,,,repeat,letter,lettRpt,d,Lo,,,,,,0.6009,0,,,,,,,,high,25,0,25,0,1,,,,,,,,,
295405,2022-12-06_19h50.10.542,vts_reward_expectancy_bt,2022.2.4,Win32,29.92399306,Chrome,1280,720,,,,,1,794,,,,,,,,,,,,,,,,,F,139,triangle,1,0,,,,,,,,,,,,,,,,repeat,letter,lettRpt,d,Lo,,,,,,0.5675,0,,,,,,,,high,26,0,26,0,1,,,,,,,,,
295405,2022-12-06_19h50.10.542,vts_reward_expectancy_bt,2022.2.4,Win32,29.92399306,Chrome,1280,720,,,,,10,804,,,,,,,,,,,,,,,,,Y,160,star,1,0,,,,,,,,,,,,,,,,switch,number,numSwt,k,Hi,,,,,,0.5344,0,,,,,,,,high,27,0,27,0,1,,,,,,,,,
295405,2022-12-06_19h50.10.542,vts_reward_expectancy_bt,2022.2.4,Win32,29.92399306,Chrome,1280,720,,,,,1,805,,,,,,,,,,,,,,,,,U,174,triangle,1,0,,,,,,,,,,,,,,,,repeat,number,numRpt,k,Lo,,,,,,0.5011,0,,,,,,,,high,28,0,28,0,1,,,,,,,,,
295405,2022-12-06_19h50.10.542,vts_reward_expectancy_bt,2022.2.4,Win32,29.92399306,Chrome,1280,720,,,,,1,806,,,,,,,,,,,,,,,,,H,181,star,1,0,,,,,,,,,,,,,,,,repeat,number,numRpt,k,Hi,,,,,,0.5798,0,,,,,,,,high,29,0,29,0,1,,,,,,,,,
295405,2022-12-06_19h50.10.542,vts_reward_expectancy_bt,2022.2.4,Win32,29.92399306,Chrome,1280,720,,,,,1,807,,,,,,,,,,,,,,,,,W,146,hexagon,1,0,,,,,,,,,,,,,,,,repeat,number,numRpt,j,Lo,,,,,,0.6605,0,,,,,,,,high,30,0,30,0,1,,,,,,,,,
295405,2022-12-06_19h50.10.542,vts_reward_expectancy_bt,2022.2.4,Win32,29.92399306,Chrome,1280,720,,,,,0,807,,,,,,,,,,,,,,,,,B,132,circle,1,0,,,,,,,,,,,,,,,,repeat,number,numRpt,j,Hi,,,,,,1.2344,0,,,,,,,,high,31,0,31,0,1,,,,,,,,,
295405,2022-12-06_19h50.10.542,vts_reward_expectancy_bt,2022.2.4,Win32,29.92399306,Chrome,1280,720,,,,,0,807,,,,,,,,,,,,,,,,,D,132,star,1,0,,,,,,,,,,,,,,,,repeat,number,numRpt,j,Hi,,,,,,0.7674,1,,,,,,space,4.5798,high,0,0,0,0,1,,,,,,,,,
295405,2022-12-06_19h50.10.542,vts_reward_expectancy_bt,2022.2.4,Win32,29.92399306,Chrome,1280,720,,,,,1,808,,,,,,,,,,,,,,,,,B,174,hexagon,1,0,,,,,,,,,,,,,,,,repeat,number,numRpt,k,Lo,,,,,,0.5178,1,,,,,,,,high,1,0,1,0,1,,,,,,,,,
295405,2022-12-06_19h50.10.542,vts_reward_expectancy_bt,2022.2.4,Win32,29.92399306,Chrome,1280,720,,,,,0,808,,,,,,,,,,,,,,,,,Y,146,circle,1,0,,,,,,,,,,,,,,,,switch,letter,lettSwt,f,Hi,,,,,,0.8015,1,,,,,,,,high,2,0,2,0,1,,,,,,,,,
295405,2022-12-06_19h50.10.542,vts_reward_expectancy_bt,2022.2.4,Win32,29.92399306,Chrome,1280,720,,,,,1,809,,,,,,,,,,,,,,,,,U,167,triangle,1,0,,,,,,,,,,,,,,,,repeat,letter,lettRpt,f,Lo,,,,,,0.5518,1,,,,,,,,high,3,0,3,0,1,,,,,,,,,
295405,2022-12-06_19h50.10.542,vts_reward_expectancy_bt,2022.2.4,Win32,29.92399306,Chrome,1280,720,,,,,0,809,,,,,,,,,,,,,,,,,F,139,star,1,0,,,,,,,,,,,,,,,,repeat,letter,lettRpt,d,Hi,,,,,,0.6624,1,,,,,,,,high,4,0,4,0,1,,,,,,,,,
295405,2022-12-06_19h50.10.542,vts_reward_expectancy_bt,2022.2.4,Win32,29.92399306,Chrome,1280,720,,,,,1,810,,,,,,,,,,,,,,,,,S,160,hexagon,1,0,,,,,,,,,,,,,,,,repeat,letter,lettRpt,f,Lo,,,,,,0.5436,1,,,,,,,,high,5,0,5,0,1,,,,,,,,,
295405,2022-12-06_19h50.10.542,vts_reward_expectancy_bt,2022.2.4,Win32,29.92399306,Chrome,1280,720,,,,,0,810,,,,,,,,,,,,,,,,,W,125,circle,1,0,,,,,,,,,,,,,,,,repeat,letter,lettRpt,f,Hi,,,,,,0.6141,1,,,,,,,,high,6,0,6,0,1,,,,,,,,,
295405,2022-12-06_19h50.10.542,vts_reward_expectancy_bt,2022.2.4,Win32,29.92399306,Chrome,1280,720,,,,,1,811,,,,,,,,,,,,,,,,,H,181,triangle,1,0,,,,,,,,,,,,,,,,switch,number,numSwt,k,Lo,,,,,,0.4153,1,,,,,,,,high,7,0,7,0,1,,,,,,,,,
295405,2022-12-06_19h50.10.542,vts_reward_expectancy_bt,2022.2.4,Win32,29.92399306,Chrome,1280,720,,,,,1,812,,,,,,,,,,,,,,,,,D,132,triangle,1,0,,,,,,,,,,,,,,,,repeat,number,numRpt,j,Lo,,,,,,0.4973,1,,,,,,,,high,8,0,8,0,1,,,,,,,,,
295405,2022-12-06_19h50.10.542,vts_reward_expectancy_bt,2022.2.4,Win32,29.92399306,Chrome,1280,720,,,,,1,813,,,,,,,,,,,,,,,,,B,174,hexagon,1,0,,,,,,,,,,,,,,,,switch,letter,lettSwt,d,Lo,,,,,,0.4613,1,,,,,,,,high,9,0,9,0,1,,,,,,,,,
295405,2022-12-06_19h50.10.542,vts_reward_expectancy_bt,2022.2.4,Win32,29.92399306,Chrome,1280,720,,,,,0,813,,,,,,,,,,,,,,,,,Y,146,star,1,0,,,,,,,,,,,,,,,,repeat,letter,lettRpt,f,Hi,,,,,,0.7342,1,,,,,,,,high,10,0,10,0,1,,,,,,,,,
295405,2022-12-06_19h50.10.542,vts_reward_expectancy_bt,2022.2.4,Win32,29.92399306,Chrome,1280,720,,,,,10,823,,,,,,,,,,,,,,,,,U,167,circle,1,0,,,,,,,,,,,,,,,,repeat,letter,lettRpt,f,Hi,,,,,,0.5341,1,,,,,,,,high,11,0,11,0,1,,,,,,,,,
295405,2022-12-06_19h50.10.542,vts_reward_expectancy_bt,2022.2.4,Win32,29.92399306,Chrome,1280,720,,,,,1,824,,,,,,,,,,,,,,,,,F,139,triangle,1,0,,,,,,,,,,,,,,,,switch,number,numSwt,j,Lo,,,,,,0.6693,1,,,,,,,,high,12,0,12,0,1,,,,,,,,,
295405,2022-12-06_19h50.10.542,vts_reward_expectancy_bt,2022.2.4,Win32,29.92399306,Chrome,1280,720,,,,,1,825,,,,,,,,,,,,,,,,,S,160,hexagon,1,0,,,,,,,,,,,,,,,,repeat,number,numRpt,k,Lo,,,,,,0.4854,1,,,,,,,,high,13,0,13,0,1,,,,,,,,,
295405,2022-12-06_19h50.10.542,vts_reward_expectancy_bt,2022.2.4,Win32,29.92399306,Chrome,1280,720,,,,,10,835,,,,,,,,,,,,,,,,,W,125,circle,1,0,,,,,,,,,,,,,,,,repeat,number,numRpt,j,Hi,,,,,,0.6509,1,,,,,,,,high,14,0,14,0,1,,,,,,,,,
295405,2022-12-06_19h50.10.542,vts_reward_expectancy_bt,2022.2.4,Win32,29.92399306,Chrome,1280,720,,,,,10,845,,,,,,,,,,,,,,,,,H,181,star,1,0,,,,,,,,,,,,,,,,repeat,number,numRpt,k,Hi,,,,,,0.5841,1,,,,,,,,high,15,0,15,0,1,,,,,,,,,
295405,2022-12-06_19h50.10.542,vts_reward_expectancy_bt,2022.2.4,Win32,29.92399306,Chrome,1280,720,,,,,0,845,,,,,,,,,,,,,,,,,W,174,star,1,0,,,,,,,,,,,,,,,,repeat,number,numRpt,k,Hi,,,,,,0.8176,1,,,,,,,,high,16,0,16,0,1,,,,,,,,,
295405,2022-12-06_19h50.10.542,vts_reward_expectancy_bt,2022.2.4,Win32,29.92399306,Chrome,1280,720,,,,,1,846,,,,,,,,,,,,,,,,,H,160,triangle,1,0,,,,,,,,,,,,,,,,repeat,number,numRpt,k,Lo,,,,,,0.567,1,,,,,,,,high,17,0,17,0,1,,,,,,,,,
295405,2022-12-06_19h50.10.542,vts_reward_expectancy_bt,2022.2.4,Win32,29.92399306,Chrome,1280,720,,,,,10,856,,,,,,,,,,,,,,,,,D,125,circle,1,0,,,,,,,,,,,,,,,,repeat,number,numRpt,j,Hi,,,,,,0.6702,1,,,,,,,,high,18,0,18,0,1,,,,,,,,,
295405,2022-12-06_19h50.10.542,vts_reward_expectancy_bt,2022.2.4,Win32,29.92399306,Chrome,1280,720,,,,,1,857,,,,,,,,,,,,,,,,,F,132,hexagon,1,0,,,,,,,,,,,,,,,,repeat,number,numRpt,j,Lo,,,,,,0.9673,1,,,,,,,,high,19,0,19,0,1,,,,,,,,,
295405,2022-12-06_19h50.10.542,vts_reward_expectancy_bt,2022.2.4,Win32,29.92399306,Chrome,1280,720,,,,,1,858,,,,,,,,,,,,,,,,,S,167,hexagon,1,0,,,,,,,,,,,,,,,,switch,letter,lettSwt,f,Lo,,,,,,0.4174,1,,,,,,,,high,20,0,20,0,1,,,,,,,,,
295405,2022-12-06_19h50.10.542,vts_reward_expectancy_bt,2022.2.4,Win32,29.92399306,Chrome,1280,720,,,,,1,859,,,,,,,,,,,,,,,,,B,139,triangle,1,0,,,,,,,,,,,,,,,,repeat,letter,lettRpt,d,Lo,,,,,,0.4344,1,,,,,,,,high,21,0,21,0,1,,,,,,,,,
295405,2022-12-06_19h50.10.542,vts_reward_expectancy_bt,2022.2.4,Win32,29.92399306,Chrome,1280,720,,,,,0,859,,,,,,,,,,,,,,,,,U,146,star,1,0,,,,,,,,,,,,,,,,repeat,letter,lettRpt,f,Hi,,,,,,0.8339,1,,,,,,,,high,22,0,22,0,1,,,,,,,,,
295405,2022-12-06_19h50.10.542,vts_reward_expectancy_bt,2022.2.4,Win32,29.92399306,Chrome,1280,720,,,,,1,860,,,,,,,,,,,,,,,,,Y,181,circle,1,0,,,,,,,,,,,,,,,,switch,number,numSwt,k,Hi,,,,,,0.5788,1,,,,,,,,high,23,0,23,0,1,,,,,,,,,
295405,2022-12-06_19h50.10.542,vts_reward_expectancy_bt,2022.2.4,Win32,29.92399306,Chrome,1280,720,,,,,1,861,,,,,,,,,,,,,,,,,U,174,hexagon,1,0,,,,,,,,,,,,,,,,repeat,number,numRpt,k,Lo,,,,,,0.7951,1,,,,,,,,high,24,0,24,0,1,,,,,,,,,
295405,2022-12-06_19h50.10.542,vts_reward_expectancy_bt,2022.2.4,Win32,29.92399306,Chrome,1280,720,,,,,10,871,,,,,,,,,,,,,,,,,Y,132,triangle,1,0,,,,,,,,,,,,,,,,repeat,number,numRpt,j,Lo,,,,,,0.6846,1,,,,,,,,high,25,0,25,0,1,,,,,,,,,
295405,2022-12-06_19h50.10.542,vts_reward_expectancy_bt,2022.2.4,Win32,29.92399306,Chrome,1280,720,,,,,0,871,,,,,,,,,,,,,,,,,B,139,star,0,0,,,,,,,,,,,,,,,,switch,letter,NA,f,Lo,,,,,,0.6882,1,,,,,,,,high,26,0,26,0,1,,,,,,,,,
295405,2022-12-06_19h50.10.542,vts_reward_expectancy_bt,2022.2.4,Win32,29.92399306,Chrome,1280,720,,,,,0,871,,,,,,,,,,,,,,,,,F,160,circle,1,1,,,,,,,,,,,,,,,,repeat,letter,lettRpt,d,Hi,,,,,,0.6174,1,,,,,,,,high,27,0,27,0,1,,,,,,,,,
295405,2022-12-06_19h50.10.542,vts_reward_expectancy_bt,2022.2.4,Win32,29.92399306,Chrome,1280,720,,,,,0,871,,,,,,,,,,,,,,,,,W,125,circle,0,0,,,,,,,,,,,,,,,,repeat,letter,NA,d,Hi,,,,,,0.3341,1,,,,,,,,high,28,0,28,0,1,,,,,,,,,
295405,2022-12-06_19h50.10.542,vts_reward_expectancy_bt,2022.2.4,Win32,29.92399306,Chrome,1280,720,,,,,10,881,,,,,,,,,,,,,,,,,S,167,triangle,1,1,,,,,,,,,,,,,,,,switch,number,numSwt,k,Lo,,,,,,0.5626,1,,,,,,,,high,29,0,29,0,1,,,,,,,,,
295405,2022-12-06_19h50.10.542,vts_reward_expectancy_bt,2022.2.4,Win32,29.92399306,Chrome,1280,720,,,,,1,882,,,,,,,,,,,,,,,,,D,146,hexagon,1,0,,,,,,,,,,,,,,,,repeat,number,numRpt,j,Lo,,,,,,0.9613,1,,,,,,,,high,30,0,30,0,1,,,,,,,,,
295405,2022-12-06_19h50.10.542,vts_reward_expectancy_bt,2022.2.4,Win32,29.92399306,Chrome,1280,720,,,,,0,882,,,,,,,,,,,,,,,,,H,181,star,1,0,,,,,,,,,,,,,,,,switch,letter,lettSwt,d,Hi,,,,,,0.8507,1,,,,,,,,high,31,0,31,0,1,,,,,,,,,
295405,2022-12-06_19h50.10.542,vts_reward_expectancy_bt,2022.2.4,Win32,29.92399306,Chrome,1280,720,,,,,0,882,,,,,,,,,,,,,,,,,H,146,circle,1,0,,,,,,,,,,,,,,,,switch,number,numSwt,j,Hi,,,,,,0.6874,2,,,,,,space,1.0678,high,0,0,0,0,1,,,,,,,,,
295405,2022-12-06_19h50.10.542,vts_reward_expectancy_bt,2022.2.4,Win32,29.92399306,Chrome,1280,720,,,,,1,883,,,,,,,,,,,,,,,,,W,160,star,1,0,,,,,,,,,,,,,,,,repeat,number,numRpt,k,Hi,,,,,,0.3789,2,,,,,,,,high,1,0,1,0,1,,,,,,,,,
295405,2022-12-06_19h50.10.542,vts_reward_expectancy_bt,2022.2.4,Win32,29.92399306,Chrome,1280,720,,,,,10,893,,,,,,,,,,,,,,,,,S,181,hexagon,1,0,,,,,,,,,,,,,,,,repeat,number,numRpt,k,Lo,,,,,,0.5843,2,,,,,,,,high,2,0,2,0,1,,,,,,,,,
295405,2022-12-06_19h50.10.542,vts_reward_expectancy_bt,2022.2.4,Win32,29.92399306,Chrome,1280,720,,,,,10,903,,,,,,,,,,,,,,,,,F,139,triangle,1,0,,,,,,,,,,,,,,,,repeat,number,numRpt,j,Lo,,,,,,0.5346,2,,,,,,,,high,3,0,3,0,1,,,,,,,,,
295405,2022-12-06_19h50.10.542,vts_reward_expectancy_bt,2022.2.4,Win32,29.92399306,Chrome,1280,720,,,,,0,903,,,,,,,,,,,,,,,,,Y,174,circle,1,0,,,,,,,,,,,,,,,,switch,letter,lettSwt,f,Hi,,,,,,0.7342,2,,,,,,,,high,4,0,4,0,1,,,,,,,,,
295405,2022-12-06_19h50.10.542,vts_reward_expectancy_bt,2022.2.4,Win32,29.92399306,Chrome,1280,720,,,,,10,913,,,,,,,,,,,,,,,,,B,132,star,1,0,,,,,,,,,,,,,,,,repeat,letter,lettRpt,d,Hi,,,,,,0.5167,2,,,,,,,,high,5,0,5,0,1,,,,,,,,,
295405,2022-12-06_19h50.10.542,vts_reward_expectancy_bt,2022.2.4,Win32,29.92399306,Chrome,1280,720,,,,,0,913,,,,,,,,,,,,,,,,,D,125,hexagon,0,0,,,,,,,,,,,,,,,,repeat,letter,NA,f,Hi,,,,,,0.5448,2,,,,,,,,high,6,0,6,0,1,,,,,,,,,
295405,2022-12-06_19h50.10.542,vts_reward_expectancy_bt,2022.2.4,Win32,29.92399306,Chrome,1280,720,,,,,1,914,,,,,,,,,,,,,,,,,U,167,triangle,1,1,,,,,,,,,,,,,,,,repeat,letter,lettRpt,f,Lo,,,,,,0.5711,2,,,,,,,,high,7,0,7,0,1,,,,,,,,,
295405,2022-12-06_19h50.10.542,vts_reward_expectancy_bt,2022.2.4,Win32,29.92399306,Chrome,1280,720,,,,,1,915,,,,,,,,,,,,,,,,,H,146,triangle,1,0,,,,,,,,,,,,,,,,repeat,letter,lettRpt,d,Lo,,,,,,0.6194,2,,,,,,,,high,8,0,8,0,1,,,,,,,,,
295405,2022-12-06_19h50.10.542,vts_reward_expectancy_bt,2022.2.4,Win32,29.92399306,Chrome,1280,720,,,,,1,916,,,,,,,,,,,,,,,,,W,160,hexagon,1,0,,,,,,,,,,,,,,,,switch,number,numSwt,k,Lo,,,,,,0.7156,2,,,,,,,,high,9,0,9,0,1,,,,,,,,,
295405,2022-12-06_19h50.10.542,vts_reward_expectancy_bt,2022.2.4,Win32,29.92399306,Chrome,1280,720,,,,,0,916,,,,,,,,,,,,,,,,,S,181,star,1,0,,,,,,,,,,,,,,,,repeat,number,numRpt,k,Hi,,,,,,0.6699,2,,,,,,,,high,10,0,10,0,1,,,,,,,,,
295405,2022-12-06_19h50.10.542,vts_reward_expectancy_bt,2022.2.4,Win32,29.92399306,Chrome,1280,720,,,,,1,917,,,,,,,,,,,,,,,,,F,139,circle,1,0,,,,,,,,,,,,,,,,repeat,number,numRpt,j,Hi,,,,,,0.5669,2,,,,,,,,high,11,0,11,0,1,,,,,,,,,
295405,2022-12-06_19h50.10.542,vts_reward_expectancy_bt,2022.2.4,Win32,29.92399306,Chrome,1280,720,,,,,1,918,,,,,,,,,,,,,,,,,Y,174,triangle,1,0,,,,,,,,,,,,,,,,repeat,number,numRpt,k,Lo,,,,,,0.5981,2,,,,,,,,high,12,0,12,0,1,,,,,,,,,
295405,2022-12-06_19h50.10.542,vts_reward_expectancy_bt,2022.2.4,Win32,29.92399306,Chrome,1280,720,,,,,0,918,,,,,,,,,,,,,,,,,B,132,star,0,0,,,,,,,,,,,,,,,,switch,letter,NA,f,Lo,,,,,,0.7008,2,,,,,,,,high,13,0,13,0,1,,,,,,,,,
295405,2022-12-06_19h50.10.542,vts_reward_expectancy_bt,2022.2.4,Win32,29.92399306,Chrome,1280,720,,,,,0,918,,,,,,,,,,,,,,,,,D,125,circle,1,1,,,,,,,,,,,,,,,,repeat,letter,lettRpt,d,Hi,,,,,,0.553,2,,,,,,,,high,14,0,14,0,1,,,,,,,,,
295405,2022-12-06_19h50.10.542,vts_reward_expectancy_bt,2022.2.4,Win32,29.92399306,Chrome,1280,720,,,,,0,918,,,,,,,,,,,,,,,,,U,167,hexagon,0,0,,,,,,,,,,,,,,,,repeat,letter,NA,d,Hi,,,,,,0.7522,2,,,,,,,,high,15,0,15,0,1,,,,,,,,,
295405,2022-12-06_19h50.10.542,vts_reward_expectancy_bt,2022.2.4,Win32,29.92399306,Chrome,1280,720,,,,,0,918,,,,,,,,,,,,,,,,,B,125,circle,1,1,,,,,,,,,,,,,,,,repeat,letter,lettRpt,d,Hi,,,,,,0.618,2,,,,,,,,high,16,0,16,0,1,,,,,,,,,
295405,2022-12-06_19h50.10.542,vts_reward_expectancy_bt,2022.2.4,Win32,29.92399306,Chrome,1280,720,,,,,10,928,,,,,,,,,,,,,,,,,H,167,star,1,0,,,,,,,,,,,,,,,,switch,number,numSwt,k,Hi,,,,,,0.4561,2,,,,,,,,high,17,0,17,0,1,,,,,,,,,
295405,2022-12-06_19h50.10.542,vts_reward_expectancy_bt,2022.2.4,Win32,29.92399306,Chrome,1280,720,,,,,1,929,,,,,,,,,,,,,,,,,F,139,triangle,1,0,,,,,,,,,,,,,,,,repeat,number,numRpt,j,Lo,,,,,,0.5348,2,,,,,,,,high,18,0,18,0,1,,,,,,,,,
295405,2022-12-06_19h50.10.542,vts_reward_expectancy_bt,2022.2.4,Win32,29.92399306,Chrome,1280,720,,,,,1,930,,,,,,,,,,,,,,,,,S,181,hexagon,1,0,,,,,,,,,,,,,,,,switch,letter,lettSwt,f,Lo,,,,,,0.698,2,,,,,,,,high,19,0,19,0,1,,,,,,,,,
295405,2022-12-06_19h50.10.542,vts_reward_expectancy_bt,2022.2.4,Win32,29.92399306,Chrome,1280,720,,,,,0,930,,,,,,,,,,,,,,,,,W,132,circle,1,0,,,,,,,,,,,,,,,,repeat,letter,lettRpt,f,Hi,,,,,,0.6674,2,,,,,,,,high,20,0,20,0,1,,,,,,,,,
295405,2022-12-06_19h50.10.542,vts_reward_expectancy_bt,2022.2.4,Win32,29.92399306,Chrome,1280,720,,,,,10,940,,,,,,,,,,,,,,,,,D,174,triangle,1,0,,,,,,,,,,,,,,,,repeat,letter,lettRpt,d,Lo,,,,,,0.6178,2,,,,,,,,high,21,0,21,0,1,,,,,,,,,
295405,2022-12-06_19h50.10.542,vts_reward_expectancy_bt,2022.2.4,Win32,29.92399306,Chrome,1280,720,,,,,1,941,,,,,,,,,,,,,,,,,Y,146,hexagon,1,0,,,,,,,,,,,,,,,,switch,number,numSwt,j,Lo,,,,,,0.4349,2,,,,,,,,high,22,0,22,0,1,,,,,,,,,
295405,2022-12-06_19h50.10.542,vts_reward_expectancy_bt,2022.2.4,Win32,29.92399306,Chrome,1280,720,,,,,0,941,,,,,,,,,,,,,,,,,U,160,star,1,0,,,,,,,,,,,,,,,,switch,letter,lettSwt,f,Hi,,,,,,0.6342,2,,,,,,,,high,23,0,23,0,1,,,,,,,,,
295405,2022-12-06_19h50.10.542,vts_reward_expectancy_bt,2022.2.4,Win32,29.92399306,Chrome,1280,720,,,,,10,951,,,,,,,,,,,,,,,,,U,146,star,1,0,,,,,,,,,,,,,,,,repeat,letter,lettRpt,f,Hi,,,,,,0.501,2,,,,,,,,high,24,0,24,0,1,,,,,,,,,
295405,2022-12-06_19h50.10.542,vts_reward_expectancy_bt,2022.2.4,Win32,29.92399306,Chrome,1280,720,,,,,0,951,,,,,,,,,,,,,,,,,F,132,triangle,0,0,,,,,,,,,,,,,,,,switch,number,NA,k,Hi,,,,,,0.484,2,,,,,,,,high,25,0,25,0,1,,,,,,,,,
295405,2022-12-06_19h50.10.542,vts_reward_expectancy_bt,2022.2.4,Win32,29.92399306,Chrome,1280,720,,,,,0,951,,,,,,,,,,,,,,,,,B,181,circle,1,1,,,,,,,,,,,,,,,,repeat,number,numRpt,k,Hi,,,,,,0.6199,2,,,,,,,,high,26,0,26,0,1,,,,,,,,,
295405,2022-12-06_19h50.10.542,vts_reward_expectancy_bt,2022.2.4,Win32,29.92399306,Chrome,1280,720,,,,,1,952,,,,,,,,,,,,,,,,,H,139,hexagon,1,0,,,,,,,,,,,,,,,,repeat,number,numRpt,j,Lo,,,,,,0.5344,2,,,,,,,,high,27,0,27,0,1,,,,,,,,,
295405,2022-12-06_19h50.10.542,vts_reward_expectancy_bt,2022.2.4,Win32,29.92399306,Chrome,1280,720,,,,,1,953,,,,,,,,,,,,,,,,,W,174,triangle,1,0,,,,,,,,,,,,,,,,repeat,number,numRpt,k,Lo,,,,,,0.5674,2,,,,,,,,high,28,0,28,0,1,,,,,,,,,
295405,2022-12-06_19h50.10.542,vts_reward_expectancy_bt,2022.2.4,Win32,29.92399306,Chrome,1280,720,,,,,1,954,,,,,,,,,,,,,,,,,Y,160,hexagon,1,0,,,,,,,,,,,,,,,,repeat,number,numRpt,k,Lo,,,,,,0.5185,2,,,,,,,,high,29,0,29,0,1,,,,,,,,,
295405,2022-12-06_19h50.10.542,vts_reward_expectancy_bt,2022.2.4,Win32,29.92399306,Chrome,1280,720,,,,,0,954,,,,,,,,,,,,,,,,,D,167,circle,1,0,,,,,,,,,,,,,,,,switch,letter,lettSwt,d,Hi,,,,,,0.5179,2,,,,,,,,high,30,0,30,0,1,,,,,,,,,
295405,2022-12-06_19h50.10.542,vts_reward_expectancy_bt,2022.2.4,Win32,29.92399306,Chrome,1280,720,,,,,10,964,,,,,,,,,,,,,,,,,S,125,star,1,0,,,,,,,,,,,,,,,,repeat,letter,lettRpt,f,Hi,,,,,,0.4845,2,,,,,,,,high,31,0,31,0,1,,,,,,,,,
295405,2022-12-06_19h50.10.542,vts_reward_expectancy_bt,2022.2.4,Win32,29.92399306,Chrome,1280,720,,,,,0,964,,,,,,,,,,,,,,,,,D,132,hexagon,0,0,,,,,,,,,,,,,,,,switch,number,NA,k,Hi,,,,,,0.6675,3,,,,,,space,0.6031,high,0,0,0,0,1,,,,,,,,,
295405,2022-12-06_19h50.10.542,vts_reward_expectancy_bt,2022.2.4,Win32,29.92399306,Chrome,1280,720,,,,,0,964,,,,,,,,,,,,,,,,,U,139,triangle,0,1,,,,,,,,,,,,,,,,repeat,number,NA,k,Hi,,,,,,0.6672,3,,,,,,,,high,1,0,1,0,1,,,,,,,,,
295405,2022-12-06_19h50.10.542,vts_reward_expectancy_bt,2022.2.4,Win32,29.92399306,Chrome,1280,720,,,,,0,964,,,,,,,,,,,,,,,,,B,146,star,1,1,,,,,,,,,,,,,,,,repeat,number,numRpt,j,Hi,,,,,,0.784,3,,,,,,,,high,2,0,2,0,1,,,,,,,,,
295405,2022-12-06_19h50.10.542,vts_reward_expectancy_bt,2022.2.4,Win32,29.92399306,Chrome,1280,720,,,,,0,964,,,,,,,,,,,,,,,,,S,125,circle,1,0,,,,,,,,,,,,,,,,repeat,number,numRpt,j,Hi,,,,,,0.5678,3,,,,,,,,high,3,0,3,0,1,,,,,,,,,
295405,2022-12-06_19h50.10.542,vts_reward_expectancy_bt,2022.2.4,Win32,29.92399306,Chrome,1280,720,,,,,10,974,,,,,,,,,,,,,,,,,Y,181,hexagon,1,0,,,,,,,,,,,,,,,,repeat,number,numRpt,k,Lo,,,,,,0.6008,3,,,,,,,,high,4,0,4,0,1,,,,,,,,,
295405,2022-12-06_19h50.10.542,vts_reward_expectancy_bt,2022.2.4,Win32,29.92399306,Chrome,1280,720,,,,,1,975,,,,,,,,,,,,,,,,,W,174,triangle,1,0,,,,,,,,,,,,,,,,repeat,number,numRpt,k,Lo,,,,,,0.6511,3,,,,,,,,high,5,0,5,0,1,,,,,,,,,
295405,2022-12-06_19h50.10.542,vts_reward_expectancy_bt,2022.2.4,Win32,29.92399306,Chrome,1280,720,,,,,1,976,,,,,,,,,,,,,,,,,H,167,star,1,0,,,,,,,,,,,,,,,,switch,letter,lettSwt,d,Hi,,,,,,0.6134,3,,,,,,,,high,6,0,6,0,1,,,,,,,,,
295405,2022-12-06_19h50.10.542,vts_reward_expectancy_bt,2022.2.4,Win32,29.92399306,Chrome,1280,720,,,,,0,976,,,,,,,,,,,,,,,,,F,160,circle,1,0,,,,,,,,,,,,,,,,switch,number,numSwt,k,Hi,,,,,,0.8495,3,,,,,,,,high,7,0,7,0,1,,,,,,,,,
295405,2022-12-06_19h50.10.542,vts_reward_expectancy_bt,2022.2.4,Win32,29.92399306,Chrome,1280,720,,,,,1,977,,,,,,,,,,,,,,,,,D,132,hexagon,1,0,,,,,,,,,,,,,,,,repeat,number,numRpt,j,Lo,,,,,,0.4327,3,,,,,,,,high,8,0,8,0,1,,,,,,,,,
295405,2022-12-06_19h50.10.542,vts_reward_expectancy_bt,2022.2.4,Win32,29.92399306,Chrome,1280,720,,,,,0,977,,,,,,,,,,,,,,,,,U,139,star,1,0,,,,,,,,,,,,,,,,repeat,number,numRpt,j,Hi,,,,,,0.6507,3,,,,,,,,high,9,0,9,0,1,,,,,,,,,
295405,2022-12-06_19h50.10.542,vts_reward_expectancy_bt,2022.2.4,Win32,29.92399306,Chrome,1280,720,,,,,10,987,,,,,,,,,,,,,,,,,B,146,circle,1,0,,,,,,,,,,,,,,,,repeat,number,numRpt,j,Hi,,,,,,0.4507,3,,,,,,,,high,10,0,10,0,1,,,,,,,,,
295405,2022-12-06_19h50.10.542,vts_reward_expectancy_bt,2022.2.4,Win32,29.92399306,Chrome,1280,720,,,,,1,988,,,,,,,,,,,,,,,,,S,125,triangle,1,0,,,,,,,,,,,,,,,,switch,letter,lettSwt,f,Lo,,,,,,0.5343,3,,,,,,,,high,11,0,11,0,1,,,,,,,,,
295405,2022-12-06_19h50.10.542,vts_reward_expectancy_bt,2022.2.4,Win32,29.92399306,Chrome,1280,720,,,,,0,988,,,,,,,,,,,,,,,,,Y,181,star,1,0,,,,,,,,,,,,,,,,repeat,letter,lettRpt,f,Hi,,,,,,0.6509,3,,,,,,,,high,12,0,12,0,1,,,,,,,,,
295405,2022-12-06_19h50.10.542,vts_reward_expectancy_bt,2022.2.4,Win32,29.92399306,Chrome,1280,720,,,,,1,989,,,,,,,,,,,,,,,,,W,174,triangle,1,0,,,,,,,,,,,,,,,,repeat,letter,lettRpt,f,Lo,,,,,,0.4839,3,,,,,,,,high,13,0,13,0,1,,,,,,,,,
295405,2022-12-06_19h50.10.542,vts_reward_expectancy_bt,2022.2.4,Win32,29.92399306,Chrome,1280,720,,,,,0,989,,,,,,,,,,,,,,,,,H,167,circle,1,0,,,,,,,,,,,,,,,,switch,number,numSwt,k,Hi,,,,,,0.4673,3,,,,,,,,high,14,0,14,0,1,,,,,,,,,
295405,2022-12-06_19h50.10.542,vts_reward_expectancy_bt,2022.2.4,Win32,29.92399306,Chrome,1280,720,,,,,1,990,,,,,,,,,,,,,,,,,F,160,hexagon,1,0,,,,,,,,,,,,,,,,repeat,number,numRpt,k,Lo,,,,,,0.5623,3,,,,,,,,high,15,0,15,0,1,,,,,,,,,
295405,2022-12-06_19h50.10.542,vts_reward_expectancy_bt,2022.2.4,Win32,29.92399306,Chrome,1280,720,,,,,10,1000,,,,,,,,,,,,,,,,,S,181,triangle,1,0,,,,,,,,,,,,,,,,switch,letter,lettSwt,f,Lo,,,,,,0.8629,3,,,,,,,,high,16,0,16,0,1,,,,,,,,,
295405,2022-12-06_19h50.10.542,vts_reward_expectancy_bt,2022.2.4,Win32,29.92399306,Chrome,1280,720,,,,,0,1000,,,,,,,,,,,,,,,,,H,174,star,1,0,,,,,,,,,,,,,,,,repeat,letter,lettRpt,d,Hi,,,,,,0.7159,3,,,,,,,,high,17,0,17,0,1,,,,,,,,,
295405,2022-12-06_19h50.10.542,vts_reward_expectancy_bt,2022.2.4,Win32,29.92399306,Chrome,1280,720,,,,,0,1000,,,,,,,,,,,,,,,,,W,146,circle,1,0,,,,,,,,,,,,,,,,switch,number,numSwt,j,Hi,,,,,,0.7747,3,,,,,,,,high,18,0,18,0,1,,,,,,,,,
295405,2022-12-06_19h50.10.542,vts_reward_expectancy_bt,2022.2.4,Win32,29.92399306,Chrome,1280,720,,,,,1,1001,,,,,,,,,,,,,,,,,Y,167,hexagon,1,0,,,,,,,,,,,,,,,,repeat,number,numRpt,k,Lo,,,,,,0.9282,3,,,,,,,,high,19,0,19,0,1,,,,,,,,,
295405,2022-12-06_19h50.10.542,vts_reward_expectancy_bt,2022.2.4,Win32,29.92399306,Chrome,1280,720,,,,,1,1002,,,,,,,,,,,,,,,,,F,132,hexagon,1,0,,,,,,,,,,,,,,,,switch,letter,lettSwt,d,Lo,,,,,,2.029,3,,,,,,,,high,20,0,20,0,1,,,,,,,,,
295405,2022-12-06_19h50.10.542,vts_reward_expectancy_bt,2022.2.4,Win32,29.92399306,Chrome,1280,720,,,,,0,1002,,,,,,,,,,,,,,,,,D,160,circle,1,0,,,,,,,,,,,,,,,,switch,number,numSwt,k,Hi,,,,,,0.9341,3,,,,,,,,high,21,0,21,0,1,,,,,,,,,
295405,2022-12-06_19h50.10.542,vts_reward_expectancy_bt,2022.2.4,Win32,29.92399306,Chrome,1280,720,,,,,0,1002,,,,,,,,,,,,,,,,,U,125,star,0,0,,,,,,,,,,,,,,,,switch,letter,NA,d,Hi,,,,,,0.9281,3,,,,,,,,high,22,0,22,0,1,,,,,,,,,
295405,2022-12-06_19h50.10.542,vts_reward_expectancy_bt,2022.2.4,Win32,29.92399306,Chrome,1280,720,,,,,1,1003,,,,,,,,,,,,,,,,,B,139,triangle,1,1,,,,,,,,,,,,,,,,repeat,letter,lettRpt,d,Lo,,,,,,0.6508,3,,,,,,,,high,23,0,23,0,1,,,,,,,,,
295405,2022-12-06_19h50.10.542,vts_reward_expectancy_bt,2022.2.4,Win32,29.92399306,Chrome,1280,720,,,,,0,1003,,,,,,,,,,,,,,,,,H,174,circle,1,0,,,,,,,,,,,,,,,,repeat,letter,lettRpt,d,Hi,,,,,,0.6075,3,,,,,,,,high,24,0,24,0,1,,,,,,,,,
295405,2022-12-06_19h50.10.542,vts_reward_expectancy_bt,2022.2.4,Win32,29.92399306,Chrome,1280,720,,,,,0,1003,,,,,,,,,,,,,,,,,D,139,star,1,0,,,,,,,,,,,,,,,,switch,number,numSwt,j,Hi,,,,,,0.6186,3,,,,,,,,high,25,0,25,0,1,,,,,,,,,
295405,2022-12-06_19h50.10.542,vts_reward_expectancy_bt,2022.2.4,Win32,29.92399306,Chrome,1280,720,,,,,1,1004,,,,,,,,,,,,,,,,,S,125,triangle,1,0,,,,,,,,,,,,,,,,repeat,number,numRpt,j,Lo,,,,,,0.4834,3,,,,,,,,high,26,0,26,0,1,,,,,,,,,
295405,2022-12-06_19h50.10.542,vts_reward_expectancy_bt,2022.2.4,Win32,29.92399306,Chrome,1280,720,,,,,1,1005,,,,,,,,,,,,,,,,,W,167,hexagon,1,0,,,,,,,,,,,,,,,,switch,letter,lettSwt,f,Lo,,,,,,0.6469,3,,,,,,,,high,27,0,27,0,1,,,,,,,,,
295405,2022-12-06_19h50.10.542,vts_reward_expectancy_bt,2022.2.4,Win32,29.92399306,Chrome,1280,720,,,,,0,1005,,,,,,,,,,,,,,,,,F,181,circle,1,0,,,,,,,,,,,,,,,,repeat,letter,lettRpt,d,Hi,,,,,,0.6009,3,,,,,,,,high,28,0,28,0,1,,,,,,,,,
295405,2022-12-06_19h50.10.542,vts_reward_expectancy_bt,2022.2.4,Win32,29.92399306,Chrome,1280,720,,,,,1,1006,,,,,,,,,,,,,,,,,Y,146,triangle,1,0,,,,,,,,,,,,,,,,repeat,letter,lettRpt,f,Lo,,,,,,0.7038,3,,,,,,,,high,29,0,29,0,1,,,,,,,,,
295405,2022-12-06_19h50.10.542,vts_reward_expectancy_bt,2022.2.4,Win32,29.92399306,Chrome,1280,720,,,,,1,1007,,,,,,,,,,,,,,,,,B,160,hexagon,1,0,,,,,,,,,,,,,,,,repeat,letter,lettRpt,d,Lo,,,,,,0.979,3,,,,,,,,high,30,0,30,0,1,,,,,,,,,
295405,2022-12-06_19h50.10.542,vts_reward_expectancy_bt,2022.2.4,Win32,29.92399306,Chrome,1280,720,,,,,0,1007,,,,,,,,,,,,,,,,,U,132,star,1,0,,,,,,,,,,,,,,,,switch,number,numSwt,j,Hi,,,,,,0.7887,3,,,,,,,,high,31,0,31,0,1,,,,,,,,,
295405,2022-12-06_19h50.10.542,vts_reward_expectancy_bt,2022.2.4,Win32,29.92399306,Chrome,1280,720,,,,,1,1008,,,,,,,,,,,,,,,,,Y,132,circle,1,0,,,,,,,,,,,,,,,,repeat,number,numRpt,j,Hi,,,,,,0.4527,4,,,,,,space,2.0482,high,0,0,0,0,1,,,,,,,,,
295405,2022-12-06_19h50.10.542,vts_reward_expectancy_bt,2022.2.4,Win32,29.92399306,Chrome,1280,720,,,,,1,1009,,,,,,,,,,,,,,,,,U,167,triangle,1,0,,,,,,,,,,,,,,,,repeat,number,numRpt,k,Lo,,,,,,0.534,4,,,,,,,,high,1,0,1,0,1,,,,,,,,,
295405,2022-12-06_19h50.10.542,vts_reward_expectancy_bt,2022.2.4,Win32,29.92399306,Chrome,1280,720,,,,,1,1010,,,,,,,,,,,,,,,,,S,146,hexagon,1,0,,,,,,,,,,,,,,,,repeat,number,numRpt,j,Lo,,,,,,0.4828,4,,,,,,,,high,2,0,2,0,1,,,,,,,,,
295405,2022-12-06_19h50.10.542,vts_reward_expectancy_bt,2022.2.4,Win32,29.92399306,Chrome,1280,720,,,,,10,1020,,,,,,,,,,,,,,,,,D,125,star,1,0,,,,,,,,,,,,,,,,repeat,number,numRpt,j,Hi,,,,,,0.5339,4,,,,,,,,high,3,0,3,0,1,,,,,,,,,
295405,2022-12-06_19h50.10.542,vts_reward_expectancy_bt,2022.2.4,Win32,29.92399306,Chrome,1280,720,,,,,10,1030,,,,,,,,,,,,,,,,,W,174,circle,1,0,,,,,,,,,,,,,,,,switch,letter,lettSwt,f,Hi,,,,,,0.5148,4,,,,,,,,high,4,0,4,0,1,,,,,,,,,
295405,2022-12-06_19h50.10.542,vts_reward_expectancy_bt,2022.2.4,Win32,29.92399306,Chrome,1280,720,,,,,10,1040,,,,,,,,,,,,,,,,,H,139,triangle,1,0,,,,,,,,,,,,,,,,repeat,letter,lettRpt,d,Lo,,,,,,0.4643,4,,,,,,,,high,5,0,5,0,1,,,,,,,,,
295405,2022-12-06_19h50.10.542,vts_reward_expectancy_bt,2022.2.4,Win32,29.92399306,Chrome,1280,720,,,,,1,1041,,,,,,,,,,,,,,,,,B,160,hexagon,1,0,,,,,,,,,,,,,,,,switch,number,numSwt,k,Lo,,,,,,0.8806,4,,,,,,,,high,6,0,6,0,1,,,,,,,,,
295405,2022-12-06_19h50.10.542,vts_reward_expectancy_bt,2022.2.4,Win32,29.92399306,Chrome,1280,720,,,,,0,1041,,,,,,,,,,,,,,,,,F,181,star,1,0,,,,,,,,,,,,,,,,repeat,number,numRpt,k,Hi,,,,,,0.5814,4,,,,,,,,high,7,0,7,0,1,,,,,,,,,
295405,2022-12-06_19h50.10.542,vts_reward_expectancy_bt,2022.2.4,Win32,29.92399306,Chrome,1280,720,,,,,0,1041,,,,,,,,,,,,,,,,,Y,132,circle,0,0,,,,,,,,,,,,,,,,switch,letter,NA,d,Hi,,,,,,0.534,4,,,,,,,,high,8,0,8,0,1,,,,,,,,,
295405,2022-12-06_19h50.10.542,vts_reward_expectancy_bt,2022.2.4,Win32,29.92399306,Chrome,1280,720,,,,,1,1042,,,,,,,,,,,,,,,,,U,167,hexagon,1,1,,,,,,,,,,,,,,,,repeat,letter,lettRpt,f,Lo,,,,,,0.6187,4,,,,,,,,high,9,0,9,0,1,,,,,,,,,
295405,2022-12-06_19h50.10.542,vts_reward_expectancy_bt,2022.2.4,Win32,29.92399306,Chrome,1280,720,,,,,0,1042,,,,,,,,,,,,,,,,,S,146,star,1,0,,,,,,,,,,,,,,,,switch,number,numSwt,j,Hi,,,,,,0.7509,4,,,,,,,,high,10,0,10,0,1,,,,,,,,,
295405,2022-12-06_19h50.10.542,vts_reward_expectancy_bt,2022.2.4,Win32,29.92399306,Chrome,1280,720,,,,,0,1042,,,,,,,,,,,,,,,,,D,125,triangle,0,0,,,,,,,,,,,,,,,,repeat,number,NA,k,Hi,,,,,,0.434,4,,,,,,,,high,11,0,11,0,1,,,,,,,,,
295405,2022-12-06_19h50.10.542,vts_reward_expectancy_bt,2022.2.4,Win32,29.92399306,Chrome,1280,720,,,,,0,1042,,,,,,,,,,,,,,,,,W,174,circle,1,1,,,,,,,,,,,,,,,,repeat,number,numRpt,k,Hi,,,,,,0.6008,4,,,,,,,,high,12,0,12,0,1,,,,,,,,,
295405,2022-12-06_19h50.10.542,vts_reward_expectancy_bt,2022.2.4,Win32,29.92399306,Chrome,1280,720,,,,,10,1052,,,,,,,,,,,,,,,,,H,139,star,1,0,,,,,,,,,,,,,,,,repeat,number,numRpt,j,Hi,,,,,,0.4675,4,,,,,,,,high,13,0,13,0,1,,,,,,,,,
295405,2022-12-06_19h50.10.542,vts_reward_expectancy_bt,2022.2.4,Win32,29.92399306,Chrome,1280,720,,,,,1,1053,,,,,,,,,,,,,,,,,B,160,triangle,1,0,,,,,,,,,,,,,,,,repeat,number,numRpt,k,Lo,,,,,,0.7389,4,,,,,,,,high,14,0,14,0,1,,,,,,,,,
295405,2022-12-06_19h50.10.542,vts_reward_expectancy_bt,2022.2.4,Win32,29.92399306,Chrome,1280,720,,,,,1,1054,,,,,,,,,,,,,,,,,F,181,hexagon,1,0,,,,,,,,,,,,,,,,repeat,number,numRpt,k,Lo,,,,,,0.5174,4,,,,,,,,high,15,0,15,0,1,,,,,,,,,
295405,2022-12-06_19h50.10.542,vts_reward_expectancy_bt,2022.2.4,Win32,29.92399306,Chrome,1280,720,,,,,1,1055,,,,,,,,,,,,,,,,,D,132,circle,1,0,,,,,,,,,,,,,,,,repeat,number,numRpt,j,Hi,,,,,,0.5174,4,,,,,,,,high,16,0,16,0,1,,,,,,,,,
295405,2022-12-06_19h50.10.542,vts_reward_expectancy_bt,2022.2.4,Win32,29.92399306,Chrome,1280,720,,,,,1,1056,,,,,,,,,,,,,,,,,W,167,hexagon,1,0,,,,,,,,,,,,,,,,switch,letter,lettSwt,f,Lo,,,,,,0.5173,4,,,,,,,,high,17,0,17,0,1,,,,,,,,,
295405,2022-12-06_19h50.10.542,vts_reward_expectancy_bt,2022.2.4,Win32,29.92399306,Chrome,1280,720,,,,,0,1056,,,,,,,,,,,,,,,,,Y,125,star,0,0,,,,,,,,,,,,,,,,repeat,letter,NA,d,Lo,,,,,,0.4617,4,,,,,,,,high,18,0,18,0,1,,,,,,,,,
295405,2022-12-06_19h50.10.542,vts_reward_expectancy_bt,2022.2.4,Win32,29.92399306,Chrome,1280,720,,,,,1,1057,,,,,,,,,,,,,,,,,B,139,triangle,1,1,,,,,,,,,,,,,,,,repeat,letter,lettRpt,d,Lo,,,,,,0.7344,4,,,,,,,,high,19,0,19,0,1,,,,,,,,,
295405,2022-12-06_19h50.10.542,vts_reward_expectancy_bt,2022.2.4,Win32,29.92399306,Chrome,1280,720,,,,,10,1067,,,,,,,,,,,,,,,,,H,174,star,1,0,,,,,,,,,,,,,,,,switch,number,numSwt,k,Hi,,,,,,0.5625,4,,,,,,,,high,20,0,20,0,1,,,,,,,,,
295405,2022-12-06_19h50.10.542,vts_reward_expectancy_bt,2022.2.4,Win32,29.92399306,Chrome,1280,720,,,,,1,1068,,,,,,,,,,,,,,,,,F,181,triangle,1,0,,,,,,,,,,,,,,,,repeat,number,numRpt,k,Lo,,,,,,0.505,4,,,,,,,,high,21,0,21,0,1,,,,,,,,,
295405,2022-12-06_19h50.10.542,vts_reward_expectancy_bt,2022.2.4,Win32,29.92399306,Chrome,1280,720,,,,,1,1069,,,,,,,,,,,,,,,,,S,146,hexagon,1,0,,,,,,,,,,,,,,,,switch,letter,lettSwt,f,Lo,,,,,,0.4604,4,,,,,,,,high,22,0,22,0,1,,,,,,,,,
295405,2022-12-06_19h50.10.542,vts_reward_expectancy_bt,2022.2.4,Win32,29.92399306,Chrome,1280,720,,,,,10,1079,,,,,,,,,,,,,,,,,U,160,circle,1,0,,,,,,,,,,,,,,,,switch,number,numSwt,k,Hi,,,,,,0.4658,4,,,,,,,,high,23,0,23,0,1,,,,,,,,,
295405,2022-12-06_19h50.10.542,vts_reward_expectancy_bt,2022.2.4,Win32,29.92399306,Chrome,1280,720,,,,,10,1089,,,,,,,,,,,,,,,,,Y,160,star,1,0,,,,,,,,,,,,,,,,repeat,number,numRpt,k,Hi,,,,,,0.4143,4,,,,,,,,high,24,0,24,0,1,,,,,,,,,
295405,2022-12-06_19h50.10.542,vts_reward_expectancy_bt,2022.2.4,Win32,29.92399306,Chrome,1280,720,,,,,0,1089,,,,,,,,,,,,,,,,,F,132,hexagon,0,0,,,,,,,,,,,,,,,,switch,letter,NA,f,Hi,,,,,,0.717,4,,,,,,,,high,25,0,25,0,1,,,,,,,,,
295405,2022-12-06_19h50.10.542,vts_reward_expectancy_bt,2022.2.4,Win32,29.92399306,Chrome,1280,720,,,,,10,1099,,,,,,,,,,,,,,,,,W,181,triangle,1,1,,,,,,,,,,,,,,,,repeat,letter,lettRpt,f,Lo,,,,,,0.7342,4,,,,,,,,high,26,0,26,0,1,,,,,,,,,
295405,2022-12-06_19h50.10.542,vts_reward_expectancy_bt,2022.2.4,Win32,29.92399306,Chrome,1280,720,,,,,1,1100,,,,,,,,,,,,,,,,,S,167,circle,1,0,,,,,,,,,,,,,,,,switch,number,numSwt,k,Hi,,,,,,0.5675,4,,,,,,,,high,27,0,27,0,1,,,,,,,,,
295405,2022-12-06_19h50.10.542,vts_reward_expectancy_bt,2022.2.4,Win32,29.92399306,Chrome,1280,720,,,,,1,1101,,,,,,,,,,,,,,,,,D,139,hexagon,1,0,,,,,,,,,,,,,,,,switch,letter,lettSwt,d,Lo,,,,,,0.6008,4,,,,,,,,high,28,0,28,0,1,,,,,,,,,
295405,2022-12-06_19h50.10.542,vts_reward_expectancy_bt,2022.2.4,Win32,29.92399306,Chrome,1280,720,,,,,0,1101,,,,,,,,,,,,,,,,,U,125,triangle,0,0,,,,,,,,,,,,,,,,repeat,letter,NA,d,Lo,,,,,,0.6006,4,,,,,,,,high,29,0,29,0,1,,,,,,,,,
295405,2022-12-06_19h50.10.542,vts_reward_expectancy_bt,2022.2.4,Win32,29.92399306,Chrome,1280,720,,,,,10,1111,,,,,,,,,,,,,,,,,H,174,circle,1,1,,,,,,,,,,,,,,,,switch,number,numSwt,k,Hi,,,,,,0.4754,4,,,,,,,,high,30,0,30,0,1,,,,,,,,,
295405,2022-12-06_19h50.10.542,vts_reward_expectancy_bt,2022.2.4,Win32,29.92399306,Chrome,1280,720,,,,,10,1121,,,,,,,,,,,,,,,,,B,146,star,1,0,,,,,,,,,,,,,,,,repeat,number,numRpt,j,Hi,,,,,,0.4516,4,,,,,,,,high,31,0,31,0,1,,,,,,,,,
295405,2022-12-06_19h50.10.542,vts_reward_expectancy_bt,2022.2.4,Win32,29.92399306,Chrome,1280,720,,,,,0,1121,,,,,,,,,,,,,,,,,F,146,star,1,0,,,,,,,,,,,,,,,,repeat,number,numRpt,j,Hi,,,,,,0.7844,5,,,,,,space,0.5397,high,0,0,0,0,1,,,,,,,,,
295405,2022-12-06_19h50.10.542,vts_reward_expectancy_bt,2022.2.4,Win32,29.92399306,Chrome,1280,720,,,,,1,1122,,,,,,,,,,,,,,,,,H,132,hexagon,1,0,,,,,,,,,,,,,,,,repeat,number,numRpt,j,Lo,,,,,,0.5018,5,,,,,,,,high,1,0,1,0,1,,,,,,,,,
295405,2022-12-06_19h50.10.542,vts_reward_expectancy_bt,2022.2.4,Win32,29.92399306,Chrome,1280,720,,,,,0,1122,,,,,,,,,,,,,,,,,U,139,circle,1,0,,,,,,,,,,,,,,,,repeat,number,numRpt,j,Hi,,,,,,0.4822,5,,,,,,,,high,2,0,2,0,1,,,,,,,,,
295405,2022-12-06_19h50.10.542,vts_reward_expectancy_bt,2022.2.4,Win32,29.92399306,Chrome,1280,720,,,,,0,1122,,,,,,,,,,,,,,,,,Y,167,triangle,0,0,,,,,,,,,,,,,,,,switch,letter,NA,d,Hi,,,,,,0.7281,5,,,,,,,,high,3,0,3,0,1,,,,,,,,,
295405,2022-12-06_19h50.10.542,vts_reward_expectancy_bt,2022.2.4,Win32,29.92399306,Chrome,1280,720,,,,,0,1122,,,,,,,,,,,,,,,,,B,125,star,1,1,,,,,,,,,,,,,,,,switch,number,numSwt,j,Hi,,,,,,1.5674,5,,,,,,,,high,4,0,4,0,1,,,,,,,,,
295405,2022-12-06_19h50.10.542,vts_reward_expectancy_bt,2022.2.4,Win32,29.92399306,Chrome,1280,720,,,,,1,1123,,,,,,,,,,,,,,,,,W,181,hexagon,1,0,,,,,,,,,,,,,,,,repeat,number,numRpt,k,Lo,,,,,,0.6344,5,,,,,,,,high,5,0,5,0,1,,,,,,,,,
295405,2022-12-06_19h50.10.542,vts_reward_expectancy_bt,2022.2.4,Win32,29.92399306,Chrome,1280,720,,,,,10,1133,,,,,,,,,,,,,,,,,S,160,circle,1,0,,,,,,,,,,,,,,,,repeat,number,numRpt,k,Hi,,,,,,0.4669,5,,,,,,,,high,6,0,6,0,1,,,,,,,,,
295405,2022-12-06_19h50.10.542,vts_reward_expectancy_bt,2022.2.4,Win32,29.92399306,Chrome,1280,720,,,,,1,1134,,,,,,,,,,,,,,,,,D,174,triangle,1,0,,,,,,,,,,,,,,,,switch,letter,lettSwt,d,Lo,,,,,,0.6591,5,,,,,,,,high,7,0,7,0,1,,,,,,,,,
295405,2022-12-06_19h50.10.542,vts_reward_expectancy_bt,2022.2.4,Win32,29.92399306,Chrome,1280,720,,,,,0,1134,,,,,,,,,,,,,,,,,F,146,star,1,0,,,,,,,,,,,,,,,,switch,number,numSwt,j,Hi,,,,,,0.5652,5,,,,,,,,high,8,0,8,0,1,,,,,,,,,
295405,2022-12-06_19h50.10.542,vts_reward_expectancy_bt,2022.2.4,Win32,29.92399306,Chrome,1280,720,,,,,1,1135,,,,,,,,,,,,,,,,,H,132,hexagon,1,0,,,,,,,,,,,,,,,,switch,letter,lettSwt,d,Lo,,,,,,1.3284,5,,,,,,,,high,9,0,9,0,1,,,,,,,,,
295405,2022-12-06_19h50.10.542,vts_reward_expectancy_bt,2022.2.4,Win32,29.92399306,Chrome,1280,720,,,,,1,1136,,,,,,,,,,,,,,,,,U,139,triangle,1,0,,,,,,,,,,,,,,,,repeat,letter,lettRpt,f,Lo,,,,,,0.6607,5,,,,,,,,high,10,0,10,0,1,,,,,,,,,
295405,2022-12-06_19h50.10.542,vts_reward_expectancy_bt,2022.2.4,Win32,29.92399306,Chrome,1280,720,,,,,0,1136,,,,,,,,,,,,,,,,,Y,167,circle,1,0,,,,,,,,,,,,,,,,switch,number,numSwt,k,Hi,,,,,,0.7511,5,,,,,,,,high,11,0,11,0,1,,,,,,,,,
295405,2022-12-06_19h50.10.542,vts_reward_expectancy_bt,2022.2.4,Win32,29.92399306,Chrome,1280,720,,,,,1,1137,,,,,,,,,,,,,,,,,B,125,triangle,1,0,,,,,,,,,,,,,,,,switch,letter,lettSwt,d,Lo,,,,,,0.8853,5,,,,,,,,high,12,0,12,0,1,,,,,,,,,
295405,2022-12-06_19h50.10.542,vts_reward_expectancy_bt,2022.2.4,Win32,29.92399306,Chrome,1280,720,,,,,0,1137,,,,,,,,,,,,,,,,,W,181,star,1,0,,,,,,,,,,,,,,,,switch,number,numSwt,k,Hi,,,,,,1.0009,5,,,,,,,,high,13,0,13,0,1,,,,,,,,,
295405,2022-12-06_19h50.10.542,vts_reward_expectancy_bt,2022.2.4,Win32,29.92399306,Chrome,1280,720,,,,,1,1138,,,,,,,,,,,,,,,,,S,160,hexagon,1,0,,,,,,,,,,,,,,,,repeat,number,numRpt,k,Lo,,,,,,0.6998,5,,,,,,,,high,14,0,14,0,1,,,,,,,,,
295405,2022-12-06_19h50.10.542,vts_reward_expectancy_bt,2022.2.4,Win32,29.92399306,Chrome,1280,720,,,,,0,1138,,,,,,,,,,,,,,,,,D,174,circle,1,0,,,,,,,,,,,,,,,,repeat,number,numRpt,k,Hi,,,,,,0.5449,5,,,,,,,,high,15,0,15,0,1,,,,,,,,,
295405,2022-12-06_19h50.10.542,vts_reward_expectancy_bt,2022.2.4,Win32,29.92399306,Chrome,1280,720,,,,,1,1139,,,,,,,,,,,,,,,,,Y,125,triangle,1,0,,,,,,,,,,,,,,,,repeat,number,numRpt,j,Lo,,,,,,1.1675,5,,,,,,,,high,16,0,16,0,1,,,,,,,,,
295405,2022-12-06_19h50.10.542,vts_reward_expectancy_bt,2022.2.4,Win32,29.92399306,Chrome,1280,720,,,,,0,1139,,,,,,,,,,,,,,,,,U,146,circle,0,0,,,,,,,,,,,,,,,,switch,letter,NA,d,Lo,,,,,,0.634,5,,,,,,,,high,17,0,17,0,1,,,,,,,,,
295405,2022-12-06_19h50.10.542,vts_reward_expectancy_bt,2022.2.4,Win32,29.92399306,Chrome,1280,720,,,,,10,1149,,,,,,,,,,,,,,,,,D,160,hexagon,1,1,,,,,,,,,,,,,,,,repeat,letter,lettRpt,d,Lo,,,,,,0.7675,5,,,,,,,,high,18,0,18,0,1,,,,,,,,,
295405,2022-12-06_19h50.10.542,vts_reward_expectancy_bt,2022.2.4,Win32,29.92399306,Chrome,1280,720,,,,,10,1159,,,,,,,,,,,,,,,,,S,139,star,1,0,,,,,,,,,,,,,,,,repeat,letter,lettRpt,f,Hi,,,,,,0.5675,5,,,,,,,,high,19,0,19,0,1,,,,,,,,,
295405,2022-12-06_19h50.10.542,vts_reward_expectancy_bt,2022.2.4,Win32,29.92399306,Chrome,1280,720,,,,,10,1169,,,,,,,,,,,,,,,,,F,174,circle,1,0,,,,,,,,,,,,,,,,repeat,letter,lettRpt,d,Hi,,,,,,0.6158,5,,,,,,,,high,20,0,20,0,1,,,,,,,,,
295405,2022-12-06_19h50.10.542,vts_reward_expectancy_bt,2022.2.4,Win32,29.92399306,Chrome,1280,720,,,,,1,1170,,,,,,,,,,,,,,,,,B,132,hexagon,1,0,,,,,,,,,,,,,,,,switch,number,numSwt,j,Lo,,,,,,0.5993,5,,,,,,,,high,21,0,21,0,1,,,,,,,,,
295405,2022-12-06_19h50.10.542,vts_reward_expectancy_bt,2022.2.4,Win32,29.92399306,Chrome,1280,720,,,,,0,1170,,,,,,,,,,,,,,,,,H,167,star,1,0,,,,,,,,,,,,,,,,switch,letter,lettSwt,d,Hi,,,,,,1.2509,5,,,,,,,,high,22,0,22,0,1,,,,,,,,,
295405,2022-12-06_19h50.10.542,vts_reward_expectancy_bt,2022.2.4,Win32,29.92399306,Chrome,1280,720,,,,,1,1171,,,,,,,,,,,,,,,,,W,181,triangle,1,0,,,,,,,,,,,,,,,,switch,number,numSwt,k,Lo,,,,,,0.5849,5,,,,,,,,high,23,0,23,0,1,,,,,,,,,
295405,2022-12-06_19h50.10.542,vts_reward_expectancy_bt,2022.2.4,Win32,29.92399306,Chrome,1280,720,,,,,1,1172,,,,,,,,,,,,,,,,,D,181,hexagon,1,0,,,,,,,,,,,,,,,,switch,letter,lettSwt,d,Lo,,,,,,1.0367,5,,,,,,,,high,24,0,24,0,1,,,,,,,,,
295405,2022-12-06_19h50.10.542,vts_reward_expectancy_bt,2022.2.4,Win32,29.92399306,Chrome,1280,720,,,,,10,1182,,,,,,,,,,,,,,,,,F,132,circle,1,0,,,,,,,,,,,,,,,,repeat,letter,lettRpt,d,Hi,,,,,,0.501,5,,,,,,,,high,25,0,25,0,1,,,,,,,,,
295405,2022-12-06_19h50.10.542,vts_reward_expectancy_bt,2022.2.4,Win32,29.92399306,Chrome,1280,720,,,,,1,1183,,,,,,,,,,,,,,,,,Y,167,triangle,1,0,,,,,,,,,,,,,,,,switch,number,numSwt,k,Lo,,,,,,0.5673,5,,,,,,,,high,26,0,26,0,1,,,,,,,,,
295405,2022-12-06_19h50.10.542,vts_reward_expectancy_bt,2022.2.4,Win32,29.92399306,Chrome,1280,720,,,,,0,1183,,,,,,,,,,,,,,,,,S,139,star,1,0,,,,,,,,,,,,,,,,repeat,number,numRpt,j,Hi,,,,,,0.6472,5,,,,,,,,high,27,0,27,0,1,,,,,,,,,
295405,2022-12-06_19h50.10.542,vts_reward_expectancy_bt,2022.2.4,Win32,29.92399306,Chrome,1280,720,,,,,0,1183,,,,,,,,,,,,,,,,,U,125,circle,1,0,,,,,,,,,,,,,,,,switch,letter,lettSwt,f,Hi,,,,,,0.6672,5,,,,,,,,high,28,0,28,0,1,,,,,,,,,
295405,2022-12-06_19h50.10.542,vts_reward_expectancy_bt,2022.2.4,Win32,29.92399306,Chrome,1280,720,,,,,0,1183,,,,,,,,,,,,,,,,,W,160,star,1,0,,,,,,,,,,,,,,,,repeat,letter,lettRpt,f,Hi,,,,,,0.733,5,,,,,,,,high,29,0,29,0,1,,,,,,,,,
295405,2022-12-06_19h50.10.542,vts_reward_expectancy_bt,2022.2.4,Win32,29.92399306,Chrome,1280,720,,,,,10,1193,,,,,,,,,,,,,,,,,B,174,triangle,1,0,,,,,,,,,,,,,,,,switch,number,numSwt,k,Lo,,,,,,0.6915,5,,,,,,,,high,30,0,30,0,1,,,,,,,,,
295405,2022-12-06_19h50.10.542,vts_reward_expectancy_bt,2022.2.4,Win32,29.92399306,Chrome,1280,720,,,,,0,1193,,,,,,,,,,,,,,,,,H,146,hexagon,0,0,,,,,,,,,,,,,,,,repeat,number,NA,k,Lo,,,,,,0.4112,5,,,,,,,,high,31,0,31,0,1,,,,,,,,,
295405,2022-12-06_19h50.10.542,vts_reward_expectancy_bt,2022.2.4,Win32,29.92399306,Chrome,1280,720,,,,,1,1194,,,,,,,,,,,,,,,,,H,132,triangle,1,1,,,,,,,,,,,,,,,,repeat,number,numRpt,j,Lo,,,,,,0.4864,6,,,,,,space,3.1018,high,0,0,0,0,1,,,,,,,,,
295405,2022-12-06_19h50.10.542,vts_reward_expectancy_bt,2022.2.4,Win32,29.92399306,Chrome,1280,720,,,,,0,1194,,,,,,,,,,,,,,,,,S,125,star,1,0,,,,,,,,,,,,,,,,repeat,number,numRpt,j,Hi,,,,,,0.6304,6,,,,,,,,high,1,0,1,0,1,,,,,,,,,
295405,2022-12-06_19h50.10.542,vts_reward_expectancy_bt,2022.2.4,Win32,29.92399306,Chrome,1280,720,,,,,0,1194,,,,,,,,,,,,,,,,,Y,174,circle,1,0,,,,,,,,,,,,,,,,switch,letter,lettSwt,f,Hi,,,,,,0.8106,6,,,,,,,,high,2,0,2,0,1,,,,,,,,,
295405,2022-12-06_19h50.10.542,vts_reward_expectancy_bt,2022.2.4,Win32,29.92399306,Chrome,1280,720,,,,,1,1195,,,,,,,,,,,,,,,,,U,181,hexagon,1,0,,,,,,,,,,,,,,,,repeat,letter,lettRpt,f,Lo,,,,,,0.6675,6,,,,,,,,high,3,0,3,0,1,,,,,,,,,
295405,2022-12-06_19h50.10.542,vts_reward_expectancy_bt,2022.2.4,Win32,29.92399306,Chrome,1280,720,,,,,1,1196,,,,,,,,,,,,,,,,,W,146,triangle,1,0,,,,,,,,,,,,,,,,switch,number,numSwt,j,Lo,,,,,,0.5343,6,,,,,,,,high,4,0,4,0,1,,,,,,,,,
295405,2022-12-06_19h50.10.542,vts_reward_expectancy_bt,2022.2.4,Win32,29.92399306,Chrome,1280,720,,,,,10,1206,,,,,,,,,,,,,,,,,B,167,star,1,0,,,,,,,,,,,,,,,,repeat,number,numRpt,k,Hi,,,,,,0.4008,6,,,,,,,,high,5,0,5,0,1,,,,,,,,,
295405,2022-12-06_19h50.10.542,vts_reward_expectancy_bt,2022.2.4,Win32,29.92399306,Chrome,1280,720,,,,,10,1216,,,,,,,,,,,,,,,,,F,160,circle,1,0,,,,,,,,,,,,,,,,repeat,number,numRpt,k,Hi,,,,,,0.4374,6,,,,,,,,high,6,0,6,0,1,,,,,,,,,
