participant,date,expName,psychopyVersion,OS,frameRate,browser,xResolution,yResolution,key_resp.keys,key_resp.rt,training_resp.keys,training_resp.rt,points_trial,points_cumul,trainBlock,training.thisRepN,training.thisTrialN,training.thisN,training.thisIndex,training.ran,LTriangleOpac,LCircleOpac,LHexagonOpac,LStarOpac,RTriangleOpac,RCircleOpac,RHexagonOpac,RStarOpac,LShape_ID,RShape_ID,curr_topStim,curr_bottStim,curr_shape,acc,E1,target_resp_prac1.keys,pracBlock,task1_prac_trials.thisRepN,task1_prac_trials.thisTrialN,task1_prac_trials.thisN,task1_prac_trials.thisIndex,task1_prac_trials.ran,target_resp_prac1.rt,target_resp_prac2.keys,target_resp_prac2.rt,task2_praac_trials.thisRepN,task2_praac_trials.thisTrialN,task2_praac_trials.thisN,task2_praac_trials.thisIndex,task2_praac_trials.ran,alt,task,condition,target_resp.keys,target_resp.rt,rewCond,vts_practice_trials.thisRepN,vts_practice_trials.thisTrialN,vts_practice_trials.thisN,vts_practice_trials.thisIndex,vts_practice_trials.ran,blockNum,trials_norew.thisRepN,trials_norew.thisTrialN,trials_norew.thisN,trials_norew.thisIndex,trials_norew.ran,key_resp_2.keys,key_resp_2.rt,rewExpectancy,trials_rew.thisRepN,trials_rew.thisTrialN,trials_rew.thisN,trials_rew.thisIndex,trials_rew.ran,Q1,Q2,Q2_text,Q3,Q4,Q5_text,Q5,xRes,yRes
295483,2022-12-06_18h16.34.389,vts_reward_expectancy_bt,2022.2.4,Win32,60.06727535,Chrome,1368,912,,,,,,,,,,,,,,,,,,,,,,,,,,,,,,,,,,,,,,,,,,,,,,,,,,,,,,,,,,,,,,,,,,,,,,,,,,,,
295483,2022-12-06_18h16.34.389,vts_reward_expectancy_bt,2022.2.4,Win32,60.06727535,Chrome,1368,912,space,9.845,,,,,,,,,,,,,,,,,,,,,,,,,,,,,,,,,,,,,,,,,,,,,,,,,,,,,,,,,,,,,,,,,,,,,,,,,,
295483,2022-12-06_18h16.34.389,vts_reward_expectancy_bt,2022.2.4,Win32,60.06727535,Chrome,1368,912,,,,,,,,,,,,,,,,,,,,,,,,,,,,,,,,,,,,,,,,,,,,,,,,,,,,,,,,,,,,,,,,,,,,,,,,,,,,
295483,2022-12-06_18h16.34.389,vts_reward_expectancy_bt,2022.2.4,Win32,60.06727535,Chrome,1368,912,,,a,2.5973,10,10,0,0,0,0,0,1,1,0,0,0,0,1,0,0,triangle,circle,,,,,,,,,,,,,,,,,,,,,,,,,,,,,,,,,,,,,,,,,,,,,,,,,,,,,,
295483,2022-12-06_18h16.34.389,vts_reward_expectancy_bt,2022.2.4,Win32,60.06727535,Chrome,1368,912,,,a,2.4518,10,20,0,0,1,1,9,1,0,0,0,1,1,0,0,0,star,triangle,,,,,,,,,,,,,,,,,,,,,,,,,,,,,,,,,,,,,,,,,,,,,,,,,,,,,,
295483,2022-12-06_18h16.34.389,vts_reward_expectancy_bt,2022.2.4,Win32,60.06727535,Chrome,1368,912,,,a,1.4826,1,21,0,0,2,2,4,1,0,1,0,0,0,0,1,0,circle,hexagon,,,,,,,,,,,,,,,,,,,,,,,,,,,,,,,,,,,,,,,,,,,,,,,,,,,,,,
295483,2022-12-06_18h16.34.389,vts_reward_expectancy_bt,2022.2.4,Win32,60.06727535,Chrome,1368,912,,,l,1.4835,10,31,0,0,3,3,3,1,0,1,0,0,1,0,0,0,circle,triangle,,,,,,,,,,,,,,,,,,,,,,,,,,,,,,,,,,,,,,,,,,,,,,,,,,,,,,
295483,2022-12-06_18h16.34.389,vts_reward_expectancy_bt,2022.2.4,Win32,60.06727535,Chrome,1368,912,,,l,0.8306,10,41,0,0,4,4,2,1,1,0,0,0,0,0,0,1,triangle,star,,,,,,,,,,,,,,,,,,,,,,,,,,,,,,,,,,,,,,,,,,,,,,,,,,,,,,
295483,2022-12-06_18h16.34.389,vts_reward_expectancy_bt,2022.2.4,Win32,60.06727535,Chrome,1368,912,,,a,1.0517,1,42,0,0,5,5,6,1,0,0,1,0,1,0,0,0,hexagon,triangle,,,,,,,,,,,,,,,,,,,,,,,,,,,,,,,,,,,,,,,,,,,,,,,,,,,,,,
295483,2022-12-06_18h16.34.389,vts_reward_expectancy_bt,2022.2.4,Win32,60.06727535,Chrome,1368,912,,,l,0.6865,10,52,0,0,6,6,5,1,0,1,0,0,0,0,0,1,circle,star,,,,,,,,,,,,,,,,,,,,,,,,,,,,,,,,,,,,,,,,,,,,,,,,,,,,,,
295483,2022-12-06_18h16.34.389,vts_reward_expectancy_bt,2022.2.4,Win32,60.06727535,Chrome,1368,912,,,a,0.9849,10,62,0,0,7,7,10,1,0,0,0,1,0,1,0,0,star ,circle,,,,,,,,,,,,,,,,,,,,,,,,,,,,,,,,,,,,,,,,,,,,,,,,,,,,,,
295483,2022-12-06_18h16.34.389,vts_reward_expectancy_bt,2022.2.4,Win32,60.06727535,Chrome,1368,912,,,l,0.9345,1,63,0,0,8,8,1,1,1,0,0,0,0,0,1,0,triangle,hexagon,,,,,,,,,,,,,,,,,,,,,,,,,,,,,,,,,,,,,,,,,,,,,,,,,,,,,,
295483,2022-12-06_18h16.34.389,vts_reward_expectancy_bt,2022.2.4,Win32,60.06727535,Chrome,1368,912,,,l,0.868,10,73,0,0,9,9,8,1,0,0,1,0,0,0,0,1,hexagon,star,,,,,,,,,,,,,,,,,,,,,,,,,,,,,,,,,,,,,,,,,,,,,,,,,,,,,,
295483,2022-12-06_18h16.34.389,vts_reward_expectancy_bt,2022.2.4,Win32,60.06727535,Chrome,1368,912,,,a,0.7013,10,83,0,0,10,10,11,1,0,0,0,1,0,0,1,0,star,hexagon,,,,,,,,,,,,,,,,,,,,,,,,,,,,,,,,,,,,,,,,,,,,,,,,,,,,,,
295483,2022-12-06_18h16.34.389,vts_reward_expectancy_bt,2022.2.4,Win32,60.06727535,Chrome,1368,912,,,a,1.0324,1,84,0,0,11,11,7,1,0,0,1,0,0,1,0,0,hexagon,circle,,,,,,,,,,,,,,,,,,,,,,,,,,,,,,,,,,,,,,,,,,,,,,,,,,,,,,
295483,2022-12-06_18h16.34.389,vts_reward_expectancy_bt,2022.2.4,Win32,60.06727535,Chrome,1368,912,,,a,0.6292,10,94,0,1,0,12,11,1,0,0,0,1,0,0,1,0,star,hexagon,,,,,,,,,,,,,,,,,,,,,,,,,,,,,,,,,,,,,,,,,,,,,,,,,,,,,,
295483,2022-12-06_18h16.34.389,vts_reward_expectancy_bt,2022.2.4,Win32,60.06727535,Chrome,1368,912,,,l,1.0476,1,95,0,1,1,13,5,1,0,1,0,0,0,0,0,1,circle,star,,,,,,,,,,,,,,,,,,,,,,,,,,,,,,,,,,,,,,,,,,,,,,,,,,,,,,
295483,2022-12-06_18h16.34.389,vts_reward_expectancy_bt,2022.2.4,Win32,60.06727535,Chrome,1368,912,,,a,1.014,10,105,0,1,2,14,1,1,1,0,0,0,0,0,1,0,triangle,hexagon,,,,,,,,,,,,,,,,,,,,,,,,,,,,,,,,,,,,,,,,,,,,,,,,,,,,,,
295483,2022-12-06_18h16.34.389,vts_reward_expectancy_bt,2022.2.4,Win32,60.06727535,Chrome,1368,912,,,l,1.9506,10,115,0,1,3,15,6,1,0,0,1,0,1,0,0,0,hexagon,triangle,,,,,,,,,,,,,,,,,,,,,,,,,,,,,,,,,,,,,,,,,,,,,,,,,,,,,,
295483,2022-12-06_18h16.34.389,vts_reward_expectancy_bt,2022.2.4,Win32,60.06727535,Chrome,1368,912,,,a,1.5182,1,116,0,1,4,16,8,1,0,0,1,0,0,0,0,1,hexagon,star,,,,,,,,,,,,,,,,,,,,,,,,,,,,,,,,,,,,,,,,,,,,,,,,,,,,,,
295483,2022-12-06_18h16.34.389,vts_reward_expectancy_bt,2022.2.4,Win32,60.06727535,Chrome,1368,912,,,l,0.6252,10,126,0,1,5,17,2,1,1,0,0,0,0,0,0,1,triangle,star,,,,,,,,,,,,,,,,,,,,,,,,,,,,,,,,,,,,,,,,,,,,,,,,,,,,,,
295483,2022-12-06_18h16.34.389,vts_reward_expectancy_bt,2022.2.4,Win32,60.06727535,Chrome,1368,912,,,a,0.6329,10,136,0,1,6,18,9,1,0,0,0,1,1,0,0,0,star,triangle,,,,,,,,,,,,,,,,,,,,,,,,,,,,,,,,,,,,,,,,,,,,,,,,,,,,,,
295483,2022-12-06_18h16.34.389,vts_reward_expectancy_bt,2022.2.4,Win32,60.06727535,Chrome,1368,912,,,a,1.2516,1,137,0,1,7,19,0,1,1,0,0,0,0,1,0,0,triangle,circle,,,,,,,,,,,,,,,,,,,,,,,,,,,,,,,,,,,,,,,,,,,,,,,,,,,,,,
295483,2022-12-06_18h16.34.389,vts_reward_expectancy_bt,2022.2.4,Win32,60.06727535,Chrome,1368,912,,,l,1.0698,1,138,0,1,8,20,4,1,0,1,0,0,0,0,1,0,circle,hexagon,,,,,,,,,,,,,,,,,,,,,,,,,,,,,,,,,,,,,,,,,,,,,,,,,,,,,,
295483,2022-12-06_18h16.34.389,vts_reward_expectancy_bt,2022.2.4,Win32,60.06727535,Chrome,1368,912,,,a,1.3397,1,139,0,1,9,21,3,1,0,1,0,0,1,0,0,0,circle,triangle,,,,,,,,,,,,,,,,,,,,,,,,,,,,,,,,,,,,,,,,,,,,,,,,,,,,,,
295483,2022-12-06_18h16.34.389,vts_reward_expectancy_bt,2022.2.4,Win32,60.06727535,Chrome,1368,912,,,a,0.8334,1,140,0,1,10,22,7,1,0,0,1,0,0,1,0,0,hexagon,circle,,,,,,,,,,,,,,,,,,,,,,,,,,,,,,,,,,,,,,,,,,,,,,,,,,,,,,
295483,2022-12-06_18h16.34.389,vts_reward_expectancy_bt,2022.2.4,Win32,60.06727535,Chrome,1368,912,,,a,0.8517,1,141,0,1,11,23,10,1,0,0,0,1,0,1,0,0,star ,circle,,,,,,,,,,,,,,,,,,,,,,,,,,,,,,,,,,,,,,,,,,,,,,,,,,,,,,
295483,2022-12-06_18h16.34.389,vts_reward_expectancy_bt,2022.2.4,Win32,60.06727535,Chrome,1368,912,,,a,1.3169,1,142,0,2,0,24,6,1,0,0,1,0,1,0,0,0,hexagon,triangle,,,,,,,,,,,,,,,,,,,,,,,,,,,,,,,,,,,,,,,,,,,,,,,,,,,,,,
295483,2022-12-06_18h16.34.389,vts_reward_expectancy_bt,2022.2.4,Win32,60.06727535,Chrome,1368,912,,,l,0.6493,10,152,0,2,1,25,8,1,0,0,1,0,0,0,0,1,hexagon,star,,,,,,,,,,,,,,,,,,,,,,,,,,,,,,,,,,,,,,,,,,,,,,,,,,,,,,
295483,2022-12-06_18h16.34.389,vts_reward_expectancy_bt,2022.2.4,Win32,60.06727535,Chrome,1368,912,,,a,0.5684,1,153,0,2,2,26,9,1,0,0,0,1,1,0,0,0,star,triangle,,,,,,,,,,,,,,,,,,,,,,,,,,,,,,,,,,,,,,,,,,,,,,,,,,,,,,
295483,2022-12-06_18h16.34.389,vts_reward_expectancy_bt,2022.2.4,Win32,60.06727535,Chrome,1368,912,,,a,1.1707,10,163,0,2,3,27,11,1,0,0,0,1,0,0,1,0,star,hexagon,,,,,,,,,,,,,,,,,,,,,,,,,,,,,,,,,,,,,,,,,,,,,,,,,,,,,,
295483,2022-12-06_18h16.34.389,vts_reward_expectancy_bt,2022.2.4,Win32,60.06727535,Chrome,1368,912,,,l,0.9498,1,164,0,2,4,28,0,1,1,0,0,0,0,1,0,0,triangle,circle,,,,,,,,,,,,,,,,,,,,,,,,,,,,,,,,,,,,,,,,,,,,,,,,,,,,,,
295483,2022-12-06_18h16.34.389,vts_reward_expectancy_bt,2022.2.4,Win32,60.06727535,Chrome,1368,912,,,l,0.8006,10,174,0,2,5,29,2,1,1,0,0,0,0,0,0,1,triangle,star,,,,,,,,,,,,,,,,,,,,,,,,,,,,,,,,,,,,,,,,,,,,,,,,,,,,,,
295483,2022-12-06_18h16.34.389,vts_reward_expectancy_bt,2022.2.4,Win32,60.06727535,Chrome,1368,912,,,a,0.5682,10,184,0,2,6,30,10,1,0,0,0,1,0,1,0,0,star ,circle,,,,,,,,,,,,,,,,,,,,,,,,,,,,,,,,,,,,,,,,,,,,,,,,,,,,,,
295483,2022-12-06_18h16.34.389,vts_reward_expectancy_bt,2022.2.4,Win32,60.06727535,Chrome,1368,912,,,a,1.183,10,194,0,2,7,31,3,1,0,1,0,0,1,0,0,0,circle,triangle,,,,,,,,,,,,,,,,,,,,,,,,,,,,,,,,,,,,,,,,,,,,,,,,,,,,,,
295483,2022-12-06_18h16.34.389,vts_reward_expectancy_bt,2022.2.4,Win32,60.06727535,Chrome,1368,912,,,a,1.3678,10,204,0,2,8,32,1,1,1,0,0,0,0,0,1,0,triangle,hexagon,,,,,,,,,,,,,,,,,,,,,,,,,,,,,,,,,,,,,,,,,,,,,,,,,,,,,,
295483,2022-12-06_18h16.34.389,vts_reward_expectancy_bt,2022.2.4,Win32,60.06727535,Chrome,1368,912,,,l,1.0697,10,214,0,2,9,33,4,1,0,1,0,0,0,0,1,0,circle,hexagon,,,,,,,,,,,,,,,,,,,,,,,,,,,,,,,,,,,,,,,,,,,,,,,,,,,,,,
295483,2022-12-06_18h16.34.389,vts_reward_expectancy_bt,2022.2.4,Win32,60.06727535,Chrome,1368,912,,,l,0.8992,10,224,0,2,10,34,5,1,0,1,0,0,0,0,0,1,circle,star,,,,,,,,,,,,,,,,,,,,,,,,,,,,,,,,,,,,,,,,,,,,,,,,,,,,,,
295483,2022-12-06_18h16.34.389,vts_reward_expectancy_bt,2022.2.4,Win32,60.06727535,Chrome,1368,912,,,a,1.204,1,225,0,2,11,35,7,1,0,0,1,0,0,1,0,0,hexagon,circle,,,,,,,,,,,,,,,,,,,,,,,,,,,,,,,,,,,,,,,,,,,,,,,,,,,,,,
295483,2022-12-06_18h16.34.389,vts_reward_expectancy_bt,2022.2.4,Win32,60.06727535,Chrome,1368,912,,,l,1.5751,10,235,1,0,0,0,5,1,0,1,0,0,0,0,0,1,circle,star,,,,,,,,,,,,,,,,,,,,,,,,,,,,,,,,,,,,,,,,,,,,,,,,,,,,,,
295483,2022-12-06_18h16.34.389,vts_reward_expectancy_bt,2022.2.4,Win32,60.06727535,Chrome,1368,912,,,a,0.6704,10,245,1,0,1,1,11,1,0,0,0,1,0,0,1,0,star,hexagon,,,,,,,,,,,,,,,,,,,,,,,,,,,,,,,,,,,,,,,,,,,,,,,,,,,,,,
295483,2022-12-06_18h16.34.389,vts_reward_expectancy_bt,2022.2.4,Win32,60.06727535,Chrome,1368,912,,,l,1.4502,10,255,1,0,2,2,8,1,0,0,1,0,0,0,0,1,hexagon,star,,,,,,,,,,,,,,,,,,,,,,,,,,,,,,,,,,,,,,,,,,,,,,,,,,,,,,
295483,2022-12-06_18h16.34.389,vts_reward_expectancy_bt,2022.2.4,Win32,60.06727535,Chrome,1368,912,,,a,0.7415,10,265,1,0,3,3,10,1,0,0,0,1,0,1,0,0,star ,circle,,,,,,,,,,,,,,,,,,,,,,,,,,,,,,,,,,,,,,,,,,,,,,,,,,,,,,
295483,2022-12-06_18h16.34.389,vts_reward_expectancy_bt,2022.2.4,Win32,60.06727535,Chrome,1368,912,,,l,2.7609,10,275,1,0,4,4,6,1,0,0,1,0,1,0,0,0,hexagon,triangle,,,,,,,,,,,,,,,,,,,,,,,,,,,,,,,,,,,,,,,,,,,,,,,,,,,,,,
295483,2022-12-06_18h16.34.389,vts_reward_expectancy_bt,2022.2.4,Win32,60.06727535,Chrome,1368,912,,,a,1.2862,1,276,1,0,5,5,3,1,0,1,0,0,1,0,0,0,circle,triangle,,,,,,,,,,,,,,,,,,,,,,,,,,,,,,,,,,,,,,,,,,,,,,,,,,,,,,
295483,2022-12-06_18h16.34.389,vts_reward_expectancy_bt,2022.2.4,Win32,60.06727535,Chrome,1368,912,,,l,1.2213,10,286,1,0,6,6,0,1,1,0,0,0,0,1,0,0,triangle,circle,,,,,,,,,,,,,,,,,,,,,,,,,,,,,,,,,,,,,,,,,,,,,,,,,,,,,,
295483,2022-12-06_18h16.34.389,vts_reward_expectancy_bt,2022.2.4,Win32,60.06727535,Chrome,1368,912,,,a,0.7184,1,287,1,0,7,7,9,1,0,0,0,1,1,0,0,0,star,triangle,,,,,,,,,,,,,,,,,,,,,,,,,,,,,,,,,,,,,,,,,,,,,,,,,,,,,,
295483,2022-12-06_18h16.34.389,vts_reward_expectancy_bt,2022.2.4,Win32,60.06727535,Chrome,1368,912,,,l,1.7503,1,288,1,0,8,8,1,1,1,0,0,0,0,0,1,0,triangle,hexagon,,,,,,,,,,,,,,,,,,,,,,,,,,,,,,,,,,,,,,,,,,,,,,,,,,,,,,
295483,2022-12-06_18h16.34.389,vts_reward_expectancy_bt,2022.2.4,Win32,60.06727535,Chrome,1368,912,,,l,1.4863,1,289,1,0,9,9,4,1,0,1,0,0,0,0,1,0,circle,hexagon,,,,,,,,,,,,,,,,,,,,,,,,,,,,,,,,,,,,,,,,,,,,,,,,,,,,,,
295483,2022-12-06_18h16.34.389,vts_reward_expectancy_bt,2022.2.4,Win32,60.06727535,Chrome,1368,912,,,a,1.4017,1,290,1,0,10,10,7,1,0,0,1,0,0,1,0,0,hexagon,circle,,,,,,,,,,,,,,,,,,,,,,,,,,,,,,,,,,,,,,,,,,,,,,,,,,,,,,
295483,2022-12-06_18h16.34.389,vts_reward_expectancy_bt,2022.2.4,Win32,60.06727535,Chrome,1368,912,,,l,0.9486,1,291,1,0,11,11,2,1,1,0,0,0,0,0,0,1,triangle,star,,,,,,,,,,,,,,,,,,,,,,,,,,,,,,,,,,,,,,,,,,,,,,,,,,,,,,
295483,2022-12-06_18h16.34.389,vts_reward_expectancy_bt,2022.2.4,Win32,60.06727535,Chrome,1368,912,,,a,2.9217,1,292,1,1,0,12,10,1,0,0,0,1,0,1,0,0,star ,circle,,,,,,,,,,,,,,,,,,,,,,,,,,,,,,,,,,,,,,,,,,,,,,,,,,,,,,
295483,2022-12-06_18h16.34.389,vts_reward_expectancy_bt,2022.2.4,Win32,60.06727535,Chrome,1368,912,,,l,1.7921,10,302,1,1,1,13,6,1,0,0,1,0,1,0,0,0,hexagon,triangle,,,,,,,,,,,,,,,,,,,,,,,,,,,,,,,,,,,,,,,,,,,,,,,,,,,,,,
295483,2022-12-06_18h16.34.389,vts_reward_expectancy_bt,2022.2.4,Win32,60.06727535,Chrome,1368,912,,,l,1.4683,10,312,1,1,2,14,8,1,0,0,1,0,0,0,0,1,hexagon,star,,,,,,,,,,,,,,,,,,,,,,,,,,,,,,,,,,,,,,,,,,,,,,,,,,,,,,
295483,2022-12-06_18h16.34.389,vts_reward_expectancy_bt,2022.2.4,Win32,60.06727535,Chrome,1368,912,,,a,2.3163,10,322,1,1,3,15,11,1,0,0,0,1,0,0,1,0,star,hexagon,,,,,,,,,,,,,,,,,,,,,,,,,,,,,,,,,,,,,,,,,,,,,,,,,,,,,,
295483,2022-12-06_18h16.34.389,vts_reward_expectancy_bt,2022.2.4,Win32,60.06727535,Chrome,1368,912,,,a,1.7728,1,323,1,1,4,16,3,1,0,1,0,0,1,0,0,0,circle,triangle,,,,,,,,,,,,,,,,,,,,,,,,,,,,,,,,,,,,,,,,,,,,,,,,,,,,,,
295483,2022-12-06_18h16.34.389,vts_reward_expectancy_bt,2022.2.4,Win32,60.06727535,Chrome,1368,912,,,l,0.9063,10,333,1,1,5,17,4,1,0,1,0,0,0,0,1,0,circle,hexagon,,,,,,,,,,,,,,,,,,,,,,,,,,,,,,,,,,,,,,,,,,,,,,,,,,,,,,
295483,2022-12-06_18h16.34.389,vts_reward_expectancy_bt,2022.2.4,Win32,60.06727535,Chrome,1368,912,,,a,1.535,1,334,1,1,6,18,7,1,0,0,1,0,0,1,0,0,hexagon,circle,,,,,,,,,,,,,,,,,,,,,,,,,,,,,,,,,,,,,,,,,,,,,,,,,,,,,,
295483,2022-12-06_18h16.34.389,vts_reward_expectancy_bt,2022.2.4,Win32,60.06727535,Chrome,1368,912,,,a,0.8069,10,344,1,1,7,19,9,1,0,0,0,1,1,0,0,0,star,triangle,,,,,,,,,,,,,,,,,,,,,,,,,,,,,,,,,,,,,,,,,,,,,,,,,,,,,,
295483,2022-12-06_18h16.34.389,vts_reward_expectancy_bt,2022.2.4,Win32,60.06727535,Chrome,1368,912,,,l,0.9057,10,354,1,1,8,20,1,1,1,0,0,0,0,0,1,0,triangle,hexagon,,,,,,,,,,,,,,,,,,,,,,,,,,,,,,,,,,,,,,,,,,,,,,,,,,,,,,
295483,2022-12-06_18h16.34.389,vts_reward_expectancy_bt,2022.2.4,Win32,60.06727535,Chrome,1368,912,,,l,0.9498,10,364,1,1,9,21,2,1,1,0,0,0,0,0,0,1,triangle,star,,,,,,,,,,,,,,,,,,,,,,,,,,,,,,,,,,,,,,,,,,,,,,,,,,,,,,
295483,2022-12-06_18h16.34.389,vts_reward_expectancy_bt,2022.2.4,Win32,60.06727535,Chrome,1368,912,,,a,2.3357,10,374,1,1,10,22,0,1,1,0,0,0,0,1,0,0,triangle,circle,,,,,,,,,,,,,,,,,,,,,,,,,,,,,,,,,,,,,,,,,,,,,,,,,,,,,,
295483,2022-12-06_18h16.34.389,vts_reward_expectancy_bt,2022.2.4,Win32,60.06727535,Chrome,1368,912,,,l,0.84,10,384,1,1,11,23,5,1,0,1,0,0,0,0,0,1,circle,star,,,,,,,,,,,,,,,,,,,,,,,,,,,,,,,,,,,,,,,,,,,,,,,,,,,,,,
295483,2022-12-06_18h16.34.389,vts_reward_expectancy_bt,2022.2.4,Win32,60.06727535,Chrome,1368,912,,,l,1.3509,10,394,1,2,0,24,0,1,1,0,0,0,0,1,0,0,triangle,circle,,,,,,,,,,,,,,,,,,,,,,,,,,,,,,,,,,,,,,,,,,,,,,,,,,,,,,
295483,2022-12-06_18h16.34.389,vts_reward_expectancy_bt,2022.2.4,Win32,60.06727535,Chrome,1368,912,,,l,0.8684,10,404,1,2,1,25,8,1,0,0,1,0,0,0,0,1,hexagon,star,,,,,,,,,,,,,,,,,,,,,,,,,,,,,,,,,,,,,,,,,,,,,,,,,,,,,,
295483,2022-12-06_18h16.34.389,vts_reward_expectancy_bt,2022.2.4,Win32,60.06727535,Chrome,1368,912,,,a,0.8007,10,414,1,2,2,26,6,1,0,0,1,0,1,0,0,0,hexagon,triangle,,,,,,,,,,,,,,,,,,,,,,,,,,,,,,,,,,,,,,,,,,,,,,,,,,,,,,
295483,2022-12-06_18h16.34.389,vts_reward_expectancy_bt,2022.2.4,Win32,60.06727535,Chrome,1368,912,,,a,0.7337,10,424,1,2,3,27,11,1,0,0,0,1,0,0,1,0,star,hexagon,,,,,,,,,,,,,,,,,,,,,,,,,,,,,,,,,,,,,,,,,,,,,,,,,,,,,,
295483,2022-12-06_18h16.34.389,vts_reward_expectancy_bt,2022.2.4,Win32,60.06727535,Chrome,1368,912,,,a,0.8827,1,425,1,2,4,28,7,1,0,0,1,0,0,1,0,0,hexagon,circle,,,,,,,,,,,,,,,,,,,,,,,,,,,,,,,,,,,,,,,,,,,,,,,,,,,,,,
295483,2022-12-06_18h16.34.389,vts_reward_expectancy_bt,2022.2.4,Win32,60.06727535,Chrome,1368,912,,,l,1.5522,1,426,1,2,5,29,1,1,1,0,0,0,0,0,1,0,triangle,hexagon,,,,,,,,,,,,,,,,,,,,,,,,,,,,,,,,,,,,,,,,,,,,,,,,,,,,,,
295483,2022-12-06_18h16.34.389,vts_reward_expectancy_bt,2022.2.4,Win32,60.06727535,Chrome,1368,912,,,a,2.3105,1,427,1,2,6,30,3,1,0,1,0,0,1,0,0,0,circle,triangle,,,,,,,,,,,,,,,,,,,,,,,,,,,,,,,,,,,,,,,,,,,,,,,,,,,,,,
295483,2022-12-06_18h16.34.389,vts_reward_expectancy_bt,2022.2.4,Win32,60.06727535,Chrome,1368,912,,,l,0.5506,10,437,1,2,7,31,5,1,0,1,0,0,0,0,0,1,circle,star,,,,,,,,,,,,,,,,,,,,,,,,,,,,,,,,,,,,,,,,,,,,,,,,,,,,,,
295483,2022-12-06_18h16.34.389,vts_reward_expectancy_bt,2022.2.4,Win32,60.06727535,Chrome,1368,912,,,a,0.5558,10,447,1,2,8,32,10,1,0,0,0,1,0,1,0,0,star ,circle,,,,,,,,,,,,,,,,,,,,,,,,,,,,,,,,,,,,,,,,,,,,,,,,,,,,,,
295483,2022-12-06_18h16.34.389,vts_reward_expectancy_bt,2022.2.4,Win32,60.06727535,Chrome,1368,912,,,l,0.5341,1,448,1,2,9,33,2,1,1,0,0,0,0,0,0,1,triangle,star,,,,,,,,,,,,,,,,,,,,,,,,,,,,,,,,,,,,,,,,,,,,,,,,,,,,,,
295483,2022-12-06_18h16.34.389,vts_reward_expectancy_bt,2022.2.4,Win32,60.06727535,Chrome,1368,912,,,l,0.8403,1,449,1,2,10,34,4,1,0,1,0,0,0,0,1,0,circle,hexagon,,,,,,,,,,,,,,,,,,,,,,,,,,,,,,,,,,,,,,,,,,,,,,,,,,,,,,
295483,2022-12-06_18h16.34.389,vts_reward_expectancy_bt,2022.2.4,Win32,60.06727535,Chrome,1368,912,,,a,0.5154,10,459,1,2,11,35,9,1,0,0,0,1,1,0,0,0,star,triangle,,,,,,,,,,,,,,,,,,,,,,,,,,,,,,,,,,,,,,,,,,,,,,,,,,,,,,
295483,2022-12-06_18h16.34.389,vts_reward_expectancy_bt,2022.2.4,Win32,60.06727535,Chrome,1368,912,,,a,1.2574,10,469,2,0,0,0,10,1,0,0,0,1,0,1,0,0,star ,circle,,,,,,,,,,,,,,,,,,,,,,,,,,,,,,,,,,,,,,,,,,,,,,,,,,,,,,
295483,2022-12-06_18h16.34.389,vts_reward_expectancy_bt,2022.2.4,Win32,60.06727535,Chrome,1368,912,,,a,0.9205,1,470,2,0,1,1,6,1,0,0,1,0,1,0,0,0,hexagon,triangle,,,,,,,,,,,,,,,,,,,,,,,,,,,,,,,,,,,,,,,,,,,,,,,,,,,,,,
295483,2022-12-06_18h16.34.389,vts_reward_expectancy_bt,2022.2.4,Win32,60.06727535,Chrome,1368,912,,,l,1.4497,1,471,2,0,2,2,0,1,1,0,0,0,0,1,0,0,triangle,circle,,,,,,,,,,,,,,,,,,,,,,,,,,,,,,,,,,,,,,,,,,,,,,,,,,,,,,
295483,2022-12-06_18h16.34.389,vts_reward_expectancy_bt,2022.2.4,Win32,60.06727535,Chrome,1368,912,,,l,0.6366,10,481,2,0,3,3,8,1,0,0,1,0,0,0,0,1,hexagon,star,,,,,,,,,,,,,,,,,,,,,,,,,,,,,,,,,,,,,,,,,,,,,,,,,,,,,,
295483,2022-12-06_18h16.34.389,vts_reward_expectancy_bt,2022.2.4,Win32,60.06727535,Chrome,1368,912,,,a,0.6016,1,482,2,0,4,4,7,1,0,0,1,0,0,1,0,0,hexagon,circle,,,,,,,,,,,,,,,,,,,,,,,,,,,,,,,,,,,,,,,,,,,,,,,,,,,,,,
295483,2022-12-06_18h16.34.389,vts_reward_expectancy_bt,2022.2.4,Win32,60.06727535,Chrome,1368,912,,,l,0.8517,1,483,2,0,5,5,1,1,1,0,0,0,0,0,1,0,triangle,hexagon,,,,,,,,,,,,,,,,,,,,,,,,,,,,,,,,,,,,,,,,,,,,,,,,,,,,,,
295483,2022-12-06_18h16.34.389,vts_reward_expectancy_bt,2022.2.4,Win32,60.06727535,Chrome,1368,912,,,a,1.001,1,484,2,0,6,6,4,1,0,1,0,0,0,0,1,0,circle,hexagon,,,,,,,,,,,,,,,,,,,,,,,,,,,,,,,,,,,,,,,,,,,,,,,,,,,,,,
295483,2022-12-06_18h16.34.389,vts_reward_expectancy_bt,2022.2.4,Win32,60.06727535,Chrome,1368,912,,,l,1.3184,10,494,2,0,7,7,3,1,0,1,0,0,1,0,0,0,circle,triangle,,,,,,,,,,,,,,,,,,,,,,,,,,,,,,,,,,,,,,,,,,,,,,,,,,,,,,
295483,2022-12-06_18h16.34.389,vts_reward_expectancy_bt,2022.2.4,Win32,60.06727535,Chrome,1368,912,,,a,0.9018,10,504,2,0,8,8,9,1,0,0,0,1,1,0,0,0,star,triangle,,,,,,,,,,,,,,,,,,,,,,,,,,,,,,,,,,,,,,,,,,,,,,,,,,,,,,
295483,2022-12-06_18h16.34.389,vts_reward_expectancy_bt,2022.2.4,Win32,60.06727535,Chrome,1368,912,,,l,0.701,10,514,2,0,9,9,5,1,0,1,0,0,0,0,0,1,circle,star,,,,,,,,,,,,,,,,,,,,,,,,,,,,,,,,,,,,,,,,,,,,,,,,,,,,,,
295483,2022-12-06_18h16.34.389,vts_reward_expectancy_bt,2022.2.4,Win32,60.06727535,Chrome,1368,912,,,l,0.6364,1,515,2,0,10,10,2,1,1,0,0,0,0,0,0,1,triangle,star,,,,,,,,,,,,,,,,,,,,,,,,,,,,,,,,,,,,,,,,,,,,,,,,,,,,,,
295483,2022-12-06_18h16.34.389,vts_reward_expectancy_bt,2022.2.4,Win32,60.06727535,Chrome,1368,912,,,a,0.6343,1,516,2,0,11,11,11,1,0,0,0,1,0,0,1,0,star,hexagon,,,,,,,,,,,,,,,,,,,,,,,,,,,,,,,,,,,,,,,,,,,,,,,,,,,,,,
295483,2022-12-06_18h16.34.389,vts_reward_expectancy_bt,2022.2.4,Win32,60.06727535,Chrome,1368,912,,,a,1.9557,10,526,2,1,0,12,7,1,0,0,1,0,0,1,0,0,hexagon,circle,,,,,,,,,,,,,,,,,,,,,,,,,,,,,,,,,,,,,,,,,,,,,,,,,,,,,,
295483,2022-12-06_18h16.34.389,vts_reward_expectancy_bt,2022.2.4,Win32,60.06727535,Chrome,1368,912,,,l,6.1043,10,536,2,1,1,13,8,1,0,0,1,0,0,0,0,1,hexagon,star,,,,,,,,,,,,,,,,,,,,,,,,,,,,,,,,,,,,,,,,,,,,,,,,,,,,,,
295483,2022-12-06_18h16.34.389,vts_reward_expectancy_bt,2022.2.4,Win32,60.06727535,Chrome,1368,912,,,a,1.6682,10,546,2,1,2,14,11,1,0,0,0,1,0,0,1,0,star,hexagon,,,,,,,,,,,,,,,,,,,,,,,,,,,,,,,,,,,,,,,,,,,,,,,,,,,,,,
295483,2022-12-06_18h16.34.389,vts_reward_expectancy_bt,2022.2.4,Win32,60.06727535,Chrome,1368,912,,,l,1.984,10,556,2,1,3,15,6,1,0,0,1,0,1,0,0,0,hexagon,triangle,,,,,,,,,,,,,,,,,,,,,,,,,,,,,,,,,,,,,,,,,,,,,,,,,,,,,,
295483,2022-12-06_18h16.34.389,vts_reward_expectancy_bt,2022.2.4,Win32,60.06727535,Chrome,1368,912,,,l,1.7013,1,557,2,1,4,16,3,1,0,1,0,0,1,0,0,0,circle,triangle,,,,,,,,,,,,,,,,,,,,,,,,,,,,,,,,,,,,,,,,,,,,,,,,,,,,,,
295483,2022-12-06_18h16.34.389,vts_reward_expectancy_bt,2022.2.4,Win32,60.06727535,Chrome,1368,912,,,l,1.084,1,558,2,1,5,17,1,1,1,0,0,0,0,0,1,0,triangle,hexagon,,,,,,,,,,,,,,,,,,,,,,,,,,,,,,,,,,,,,,,,,,,,,,,,,,,,,,
295483,2022-12-06_18h16.34.389,vts_reward_expectancy_bt,2022.2.4,Win32,60.06727535,Chrome,1368,912,,,a,1.0519,1,559,2,1,6,18,9,1,0,0,0,1,1,0,0,0,star,triangle,,,,,,,,,,,,,,,,,,,,,,,,,,,,,,,,,,,,,,,,,,,,,,,,,,,,,,
295483,2022-12-06_18h16.34.389,vts_reward_expectancy_bt,2022.2.4,Win32,60.06727535,Chrome,1368,912,,,a,1.4341,10,569,2,1,7,19,0,1,1,0,0,0,0,1,0,0,triangle,circle,,,,,,,,,,,,,,,,,,,,,,,,,,,,,,,,,,,,,,,,,,,,,,,,,,,,,,
295483,2022-12-06_18h16.34.389,vts_reward_expectancy_bt,2022.2.4,Win32,60.06727535,Chrome,1368,912,,,l,0.6671,10,579,2,1,8,20,2,1,1,0,0,0,0,0,0,1,triangle,star,,,,,,,,,,,,,,,,,,,,,,,,,,,,,,,,,,,,,,,,,,,,,,,,,,,,,,
295483,2022-12-06_18h16.34.389,vts_reward_expectancy_bt,2022.2.4,Win32,60.06727535,Chrome,1368,912,,,l,0.6003,10,589,2,1,9,21,5,1,0,1,0,0,0,0,0,1,circle,star,,,,,,,,,,,,,,,,,,,,,,,,,,,,,,,,,,,,,,,,,,,,,,,,,,,,,,
295483,2022-12-06_18h16.34.389,vts_reward_expectancy_bt,2022.2.4,Win32,60.06727535,Chrome,1368,912,,,l,1.2352,1,590,2,1,10,22,4,1,0,1,0,0,0,0,1,0,circle,hexagon,,,,,,,,,,,,,,,,,,,,,,,,,,,,,,,,,,,,,,,,,,,,,,,,,,,,,,
295483,2022-12-06_18h16.34.389,vts_reward_expectancy_bt,2022.2.4,Win32,60.06727535,Chrome,1368,912,,,a,0.4995,1,591,2,1,11,23,10,1,0,0,0,1,0,1,0,0,star ,circle,,,,,,,,,,,,,,,,,,,,,,,,,,,,,,,,,,,,,,,,,,,,,,,,,,,,,,
295483,2022-12-06_18h16.34.389,vts_reward_expectancy_bt,2022.2.4,Win32,60.06727535,Chrome,1368,912,,,l,0.9347,1,592,2,2,0,24,4,1,0,1,0,0,0,0,1,0,circle,hexagon,,,,,,,,,,,,,,,,,,,,,,,,,,,,,,,,,,,,,,,,,,,,,,,,,,,,,,
295483,2022-12-06_18h16.34.389,vts_reward_expectancy_bt,2022.2.4,Win32,60.06727535,Chrome,1368,912,,,a,0.6006,10,602,2,2,1,25,1,1,1,0,0,0,0,0,1,0,triangle,hexagon,,,,,,,,,,,,,,,,,,,,,,,,,,,,,,,,,,,,,,,,,,,,,,,,,,,,,,
295483,2022-12-06_18h16.34.389,vts_reward_expectancy_bt,2022.2.4,Win32,60.06727535,Chrome,1368,912,,,a,0.585,10,612,2,2,2,26,10,1,0,0,0,1,0,1,0,0,star ,circle,,,,,,,,,,,,,,,,,,,,,,,,,,,,,,,,,,,,,,,,,,,,,,,,,,,,,,
295483,2022-12-06_18h16.34.389,vts_reward_expectancy_bt,2022.2.4,Win32,60.06727535,Chrome,1368,912,,,a,0.6017,10,622,2,2,3,27,9,1,0,0,0,1,1,0,0,0,star,triangle,,,,,,,,,,,,,,,,,,,,,,,,,,,,,,,,,,,,,,,,,,,,,,,,,,,,,,
295483,2022-12-06_18h16.34.389,vts_reward_expectancy_bt,2022.2.4,Win32,60.06727535,Chrome,1368,912,,,l,0.9008,1,623,2,2,4,28,0,1,1,0,0,0,0,1,0,0,triangle,circle,,,,,,,,,,,,,,,,,,,,,,,,,,,,,,,,,,,,,,,,,,,,,,,,,,,,,,
295483,2022-12-06_18h16.34.389,vts_reward_expectancy_bt,2022.2.4,Win32,60.06727535,Chrome,1368,912,,,l,2.1531,10,633,2,2,5,29,3,1,0,1,0,0,1,0,0,0,circle,triangle,,,,,,,,,,,,,,,,,,,,,,,,,,,,,,,,,,,,,,,,,,,,,,,,,,,,,,
295483,2022-12-06_18h16.34.389,vts_reward_expectancy_bt,2022.2.4,Win32,60.06727535,Chrome,1368,912,,,l,1.5343,1,634,2,2,6,30,8,1,0,0,1,0,0,0,0,1,hexagon,star,,,,,,,,,,,,,,,,,,,,,,,,,,,,,,,,,,,,,,,,,,,,,,,,,,,,,,
295483,2022-12-06_18h16.34.389,vts_reward_expectancy_bt,2022.2.4,Win32,60.06727535,Chrome,1368,912,,,l,0.6676,1,635,2,2,7,31,2,1,1,0,0,0,0,0,0,1,triangle,star,,,,,,,,,,,,,,,,,,,,,,,,,,,,,,,,,,,,,,,,,,,,,,,,,,,,,,
295483,2022-12-06_18h16.34.389,vts_reward_expectancy_bt,2022.2.4,Win32,60.06727535,Chrome,1368,912,,,a,0.4174,10,645,2,2,8,32,11,1,0,0,0,1,0,0,1,0,star,hexagon,,,,,,,,,,,,,,,,,,,,,,,,,,,,,,,,,,,,,,,,,,,,,,,,,,,,,,
295483,2022-12-06_18h16.34.389,vts_reward_expectancy_bt,2022.2.4,Win32,60.06727535,Chrome,1368,912,,,l,0.4507,10,655,2,2,9,33,5,1,0,1,0,0,0,0,0,1,circle,star,,,,,,,,,,,,,,,,,,,,,,,,,,,,,,,,,,,,,,,,,,,,,,,,,,,,,,
295483,2022-12-06_18h16.34.389,vts_reward_expectancy_bt,2022.2.4,Win32,60.06727535,Chrome,1368,912,,,a,0.6351,1,656,2,2,10,34,7,1,0,0,1,0,0,1,0,0,hexagon,circle,,,,,,,,,,,,,,,,,,,,,,,,,,,,,,,,,,,,,,,,,,,,,,,,,,,,,,
295483,2022-12-06_18h16.34.389,vts_reward_expectancy_bt,2022.2.4,Win32,60.06727535,Chrome,1368,912,,,l,0.6015,1,657,2,2,11,35,6,1,0,0,1,0,1,0,0,0,hexagon,triangle,,,,,,,,,,,,,,,,,,,,,,,,,,,,,,,,,,,,,,,,,,,,,,,,,,,,,,
295483,2022-12-06_18h16.34.389,vts_reward_expectancy_bt,2022.2.4,Win32,60.06727535,Chrome,1368,912,,,,,,,,,,,,,,,,,,,,,,,U,125,circle,0,0,,0,0,0,0,0,1,,,,,,,,,,,,,,,,,,,,,,,,,,,,,,,,,,,,,,,,,,
295483,2022-12-06_18h16.34.389,vts_reward_expectancy_bt,2022.2.4,Win32,60.06727535,Chrome,1368,912,,,,,,,,,,,,,,,,,,,,,,,H,181,hexagon,1,1,d,0,1,0,1,0,1,0.6884,,,,,,,,,,,,,,,,,,,,,,,,,,,,,,,,,,,,,,,,,
295483,2022-12-06_18h16.34.389,vts_reward_expectancy_bt,2022.2.4,Win32,60.06727535,Chrome,1368,912,,,,,,,,,,,,,,,,,,,,,,,Y,132,triangle,1,0,f,0,2,0,2,0,1,0.6682,,,,,,,,,,,,,,,,,,,,,,,,,,,,,,,,,,,,,,,,,
295483,2022-12-06_18h16.34.389,vts_reward_expectancy_bt,2022.2.4,Win32,60.06727535,Chrome,1368,912,,,,,,,,,,,,,,,,,,,,,,,D,174,star,1,0,d,0,3,0,3,0,1,0.5341,,,,,,,,,,,,,,,,,,,,,,,,,,,,,,,,,,,,,,,,,
295483,2022-12-06_18h16.34.389,vts_reward_expectancy_bt,2022.2.4,Win32,60.06727535,Chrome,1368,912,,,,,,,,,,,,,,,,,,,,,,,S,139,circle,1,0,f,0,4,0,4,0,1,0.6678,,,,,,,,,,,,,,,,,,,,,,,,,,,,,,,,,,,,,,,,,
295483,2022-12-06_18h16.34.389,vts_reward_expectancy_bt,2022.2.4,Win32,60.06727535,Chrome,1368,912,,,,,,,,,,,,,,,,,,,,,,,W,160,hexagon,1,0,f,0,5,0,5,0,1,0.6509,,,,,,,,,,,,,,,,,,,,,,,,,,,,,,,,,,,,,,,,,
295483,2022-12-06_18h16.34.389,vts_reward_expectancy_bt,2022.2.4,Win32,60.06727535,Chrome,1368,912,,,,,,,,,,,,,,,,,,,,,,,F,167,triangle,1,0,d,0,6,0,6,0,1,0.7511,,,,,,,,,,,,,,,,,,,,,,,,,,,,,,,,,,,,,,,,,
295483,2022-12-06_18h16.34.389,vts_reward_expectancy_bt,2022.2.4,Win32,60.06727535,Chrome,1368,912,,,,,,,,,,,,,,,,,,,,,,,B,146,star,1,0,d,0,7,0,7,0,1,0.8179,,,,,,,,,,,,,,,,,,,,,,,,,,,,,,,,,,,,,,,,,
295483,2022-12-06_18h16.34.389,vts_reward_expectancy_bt,2022.2.4,Win32,60.06727535,Chrome,1368,912,,,,,,,,,,,,,,,,,,,,,,,U,125,hexagon,1,0,f,0,8,0,8,0,1,0.6185,,,,,,,,,,,,,,,,,,,,,,,,,,,,,,,,,,,,,,,,,
295483,2022-12-06_18h16.34.389,vts_reward_expectancy_bt,2022.2.4,Win32,60.06727535,Chrome,1368,912,,,,,,,,,,,,,,,,,,,,,,,H,181,star,1,0,d,0,9,0,9,0,1,0.5677,,,,,,,,,,,,,,,,,,,,,,,,,,,,,,,,,,,,,,,,,
295483,2022-12-06_18h16.34.389,vts_reward_expectancy_bt,2022.2.4,Win32,60.06727535,Chrome,1368,912,,,,,,,,,,,,,,,,,,,,,,,W,174,hexagon,1,0,,1,,,,,,,k,0.6196,0,0,0,0,1,,,,,,,,,,,,,,,,,,,,,,,,,,,,,,,,,,
295483,2022-12-06_18h16.34.389,vts_reward_expectancy_bt,2022.2.4,Win32,60.06727535,Chrome,1368,912,,,,,,,,,,,,,,,,,,,,,,,Y,160,triangle,1,0,,1,,,,,,,k,0.6189,1,0,1,0,1,,,,,,,,,,,,,,,,,,,,,,,,,,,,,,,,,,
295483,2022-12-06_18h16.34.389,vts_reward_expectancy_bt,2022.2.4,Win32,60.06727535,Chrome,1368,912,,,,,,,,,,,,,,,,,,,,,,,F,167,star,1,0,,1,,,,,,,k,0.5836,2,0,2,0,1,,,,,,,,,,,,,,,,,,,,,,,,,,,,,,,,,,
295483,2022-12-06_18h16.34.389,vts_reward_expectancy_bt,2022.2.4,Win32,60.06727535,Chrome,1368,912,,,,,,,,,,,,,,,,,,,,,,,B,139,circle,1,0,,1,,,,,,,j,0.8023,3,0,3,0,1,,,,,,,,,,,,,,,,,,,,,,,,,,,,,,,,,,
295483,2022-12-06_18h16.34.389,vts_reward_expectancy_bt,2022.2.4,Win32,60.06727535,Chrome,1368,912,,,,,,,,,,,,,,,,,,,,,,,H,132,hexagon,1,0,,1,,,,,,,j,0.6504,4,0,4,0,1,,,,,,,,,,,,,,,,,,,,,,,,,,,,,,,,,,
295483,2022-12-06_18h16.34.389,vts_reward_expectancy_bt,2022.2.4,Win32,60.06727535,Chrome,1368,912,,,,,,,,,,,,,,,,,,,,,,,S,125,triangle,1,0,,1,,,,,,,j,0.8008,5,0,5,0,1,,,,,,,,,,,,,,,,,,,,,,,,,,,,,,,,,,
295483,2022-12-06_18h16.34.389,vts_reward_expectancy_bt,2022.2.4,Win32,60.06727535,Chrome,1368,912,,,,,,,,,,,,,,,,,,,,,,,D,146,star,1,0,,1,,,,,,,j,0.9341,6,0,6,0,1,,,,,,,,,,,,,,,,,,,,,,,,,,,,,,,,,,
295483,2022-12-06_18h16.34.389,vts_reward_expectancy_bt,2022.2.4,Win32,60.06727535,Chrome,1368,912,,,,,,,,,,,,,,,,,,,,,,,U,181,circle,1,0,,1,,,,,,,k,0.5221,7,0,7,0,1,,,,,,,,,,,,,,,,,,,,,,,,,,,,,,,,,,
295483,2022-12-06_18h16.34.389,vts_reward_expectancy_bt,2022.2.4,Win32,60.06727535,Chrome,1368,912,,,,,,,,,,,,,,,,,,,,,,,W,174,star,1,0,,1,,,,,,,k,0.6378,8,0,8,0,1,,,,,,,,,,,,,,,,,,,,,,,,,,,,,,,,,,
295483,2022-12-06_18h16.34.389,vts_reward_expectancy_bt,2022.2.4,Win32,60.06727535,Chrome,1368,912,,,,,,,,,,,,,,,,,,,,,,,Y,160,triangle,0,0,,1,,,,,,,j,0.5845,9,0,9,0,1,,,,,,,,,,,,,,,,,,,,,,,,,,,,,,,,,,
295483,2022-12-06_18h16.34.389,vts_reward_expectancy_bt,2022.2.4,Win32,60.06727535,Chrome,1368,912,,,,,0,657,,,,,,,,,,,,,,,,,W,174,star,1,1,,2,,,,,,,,,,,,,,-1,letter,NA,f,0.0523,vtsPrac,0,0,0,0,1,,,,,,,,,,,,,,,,,,,,,,,
295483,2022-12-06_18h16.34.389,vts_reward_expectancy_bt,2022.2.4,Win32,60.06727535,Chrome,1368,912,,,,,0,657,,,,,,,,,,,,,,,,,S,167,hexagon,1,0,,2,,,,,,,,,,,,,,repeat,letter,lettRpt,f,0.4858,vtsPrac,1,0,1,0,1,,,,,,,,,,,,,,,,,,,,,,,
295483,2022-12-06_18h16.34.389,vts_reward_expectancy_bt,2022.2.4,Win32,60.06727535,Chrome,1368,912,,,,,0,657,,,,,,,,,,,,,,,,,H,125,star,1,0,,2,,,,,,,,,,,,,,repeat,letter,lettRpt,d,0.6548,vtsPrac,2,0,2,0,1,,,,,,,,,,,,,,,,,,,,,,,
295483,2022-12-06_18h16.34.389,vts_reward_expectancy_bt,2022.2.4,Win32,60.06727535,Chrome,1368,912,,,,,0,657,,,,,,,,,,,,,,,,,B,146,hexagon,0,0,,2,,,,,,,,,,,,,,switch,number,NA,k,0.6009,vtsPrac,3,0,3,0,1,,,,,,,,,,,,,,,,,,,,,,,
295483,2022-12-06_18h16.34.389,vts_reward_expectancy_bt,2022.2.4,Win32,60.06727535,Chrome,1368,912,,,,,0,657,,,,,,,,,,,,,,,,,W,174,circle,1,1,,2,,,,,,,,,,,,,,repeat,number,numRpt,k,0.7513,vtsPrac,4,0,4,0,1,,,,,,,,,,,,,,,,,,,,,,,
295483,2022-12-06_18h16.34.389,vts_reward_expectancy_bt,2022.2.4,Win32,60.06727535,Chrome,1368,912,,,,,0,657,,,,,,,,,,,,,,,,,S,167,triangle,1,0,,2,,,,,,,,,,,,,,repeat,number,numRpt,k,0.5178,vtsPrac,5,0,5,0,1,,,,,,,,,,,,,,,,,,,,,,,
295483,2022-12-06_18h16.34.389,vts_reward_expectancy_bt,2022.2.4,Win32,60.06727535,Chrome,1368,912,,,,,0,657,,,,,,,,,,,,,,,,,H,125,star,1,0,,2,,,,,,,,,,,,,,switch,letter,lettSwt,d,0.6181,vtsPrac,6,0,6,0,1,,,,,,,,,,,,,,,,,,,,,,,
295483,2022-12-06_18h16.34.389,vts_reward_expectancy_bt,2022.2.4,Win32,60.06727535,Chrome,1368,912,,,,,0,657,,,,,,,,,,,,,,,,,B,146,circle,1,0,,2,,,,,,,,,,,,,,switch,number,numSwt,j,1.1169,vtsPrac,7,0,7,0,1,,,,,,,,,,,,,,,,,,,,,,,
295483,2022-12-06_18h16.34.389,vts_reward_expectancy_bt,2022.2.4,Win32,60.06727535,Chrome,1368,912,,,,,0,657,,,,,,,,,,,,,,,,,H,139,triangle,1,0,,2,,,,,,,,,,,,,,switch,letter,lettSwt,d,0.7503,vtsPrac,8,0,8,0,1,,,,,,,,,,,,,,,,,,,,,,,
295483,2022-12-06_18h16.34.389,vts_reward_expectancy_bt,2022.2.4,Win32,60.06727535,Chrome,1368,912,,,,,0,657,,,,,,,,,,,,,,,,,U,160,circle,1,0,,2,,,,,,,,,,,,,,repeat,letter,lettRpt,f,0.801,vtsPrac,9,0,9,0,1,,,,,,,,,,,,,,,,,,,,,,,
295483,2022-12-06_18h16.34.389,vts_reward_expectancy_bt,2022.2.4,Win32,60.06727535,Chrome,1368,912,,,,,0,657,,,,,,,,,,,,,,,,,D,181,circle,1,0,,2,,,,,,,,,,,,,,switch,number,numSwt,k,0.5845,vtsPrac,10,0,10,0,1,,,,,,,,,,,,,,,,,,,,,,,
295483,2022-12-06_18h16.34.389,vts_reward_expectancy_bt,2022.2.4,Win32,60.06727535,Chrome,1368,912,,,,,0,657,,,,,,,,,,,,,,,,,Y,167,hexagon,1,0,,2,,,,,,,,,,,,,,repeat,number,numRpt,k,0.7842,vtsPrac,11,0,11,0,1,,,,,,,,,,,,,,,,,,,,,,,
295483,2022-12-06_18h16.34.389,vts_reward_expectancy_bt,2022.2.4,Win32,60.06727535,Chrome,1368,912,,,,,0,657,,,,,,,,,,,,,,,,,S,132,hexagon,1,0,,2,,,,,,,,,,,,,,repeat,number,numRpt,j,0.935,vtsPrac,12,0,12,0,1,,,,,,,,,,,,,,,,,,,,,,,
295483,2022-12-06_18h16.34.389,vts_reward_expectancy_bt,2022.2.4,Win32,60.06727535,Chrome,1368,912,,,,,0,657,,,,,,,,,,,,,,,,,H,167,star,1,0,,2,,,,,,,,,,,,,,switch,letter,lettSwt,d,0.9508,vtsPrac,13,0,13,0,1,,,,,,,,,,,,,,,,,,,,,,,
295483,2022-12-06_18h16.34.389,vts_reward_expectancy_bt,2022.2.4,Win32,60.06727535,Chrome,1368,912,,,,,0,657,,,,,,,,,,,,,,,,,D,146,hexagon,0,0,,2,,,,,,,,,,,,,,switch,number,NA,k,1.0847,vtsPrac,14,0,14,0,1,,,,,,,,,,,,,,,,,,,,,,,
295483,2022-12-06_18h16.34.389,vts_reward_expectancy_bt,2022.2.4,Win32,60.06727535,Chrome,1368,912,,,,,0,657,,,,,,,,,,,,,,,,,W,160,star,1,1,,2,,,,,,,,,,,,,,repeat,number,numRpt,k,0.9178,vtsPrac,15,0,15,0,1,,,,,,,,,,,,,,,,,,,,,,,
295483,2022-12-06_18h16.34.389,vts_reward_expectancy_bt,2022.2.4,Win32,60.06727535,Chrome,1368,912,,,,,0,657,,,,,,,,,,,,,,,,,S,181,circle,1,0,,2,,,,,,,,,,,,,,switch,letter,lettSwt,f,1.6179,vtsPrac,16,0,16,0,1,,,,,,,,,,,,,,,,,,,,,,,
295483,2022-12-06_18h16.34.389,vts_reward_expectancy_bt,2022.2.4,Win32,60.06727535,Chrome,1368,912,,,,,0,657,,,,,,,,,,,,,,,,,Y,167,triangle,1,0,,2,,,,,,,,,,,,,,repeat,letter,lettRpt,f,1.4182,vtsPrac,17,0,17,0,1,,,,,,,,,,,,,,,,,,,,,,,
295483,2022-12-06_18h16.34.389,vts_reward_expectancy_bt,2022.2.4,Win32,60.06727535,Chrome,1368,912,,,,,0,657,,,,,,,,,,,,,,,,,B,160,triangle,1,0,,2,,,,,,,,,,,,,,repeat,letter,lettRpt,d,1.2015,vtsPrac,18,0,18,0,1,,,,,,,,,,,,,,,,,,,,,,,
295483,2022-12-06_18h16.34.389,vts_reward_expectancy_bt,2022.2.4,Win32,60.06727535,Chrome,1368,912,,,,,0,657,,,,,,,,,,,,,,,,,W,139,circle,1,0,,2,,,,,,,,,,,,,,repeat,letter,lettRpt,f,1.1182,vtsPrac,19,0,19,0,1,,,,,,,,,,,,,,,,,,,,,,,
295483,2022-12-06_18h16.34.389,vts_reward_expectancy_bt,2022.2.4,Win32,60.06727535,Chrome,1368,912,,,,,0,657,,,,,,,,,,,,,,,,,W,160,circle,1,0,,2,,,,,,,,,,,,,,switch,number,numSwt,k,1.3206,vtsPrac,20,0,20,0,1,,,,,,,,,,,,,,,,,,,,,,,
295483,2022-12-06_18h16.34.389,vts_reward_expectancy_bt,2022.2.4,Win32,60.06727535,Chrome,1368,912,,,,,0,657,,,,,,,,,,,,,,,,,F,139,triangle,1,0,,2,,,,,,,,,,,,,,repeat,number,numRpt,j,1.0185,vtsPrac,21,0,21,0,1,,,,,,,,,,,,,,,,,,,,,,,
295483,2022-12-06_18h16.34.389,vts_reward_expectancy_bt,2022.2.4,Win32,60.06727535,Chrome,1368,912,,,,,0,657,,,,,,,,,,,,,,,,,Y,181,hexagon,1,0,,2,,,,,,,,,,,,,,switch,letter,lettSwt,f,0.5264,vtsPrac,22,0,22,0,1,,,,,,,,,,,,,,,,,,,,,,,
295483,2022-12-06_18h16.34.389,vts_reward_expectancy_bt,2022.2.4,Win32,60.06727535,Chrome,1368,912,,,,,0,657,,,,,,,,,,,,,,,,,U,146,circle,0,0,,2,,,,,,,,,,,,,,switch,number,NA,k,1.2229,vtsPrac,23,0,23,0,1,,,,,,,,,,,,,,,,,,,,,,,
295483,2022-12-06_18h16.34.389,vts_reward_expectancy_bt,2022.2.4,Win32,60.06727535,Chrome,1368,912,,,,,0,657,,,,,,,,,,,,,,,,,S,125,hexagon,1,1,,2,,,,,,,,,,,,,,repeat,number,numRpt,j,0.7131,vtsPrac,24,0,24,0,1,,,,,,,,,,,,,,,,,,,,,,,
295483,2022-12-06_18h16.34.389,vts_reward_expectancy_bt,2022.2.4,Win32,60.06727535,Chrome,1368,912,,,,,0,657,,,,,,,,,,,,,,,,,H,132,star,1,0,,2,,,,,,,,,,,,,,repeat,number,numRpt,j,0.8343,vtsPrac,25,0,25,0,1,,,,,,,,,,,,,,,,,,,,,,,
295483,2022-12-06_18h16.34.389,vts_reward_expectancy_bt,2022.2.4,Win32,60.06727535,Chrome,1368,912,,,,,0,657,,,,,,,,,,,,,,,,,Y,146,circle,1,0,,2,,,,,,,,,,,,,,repeat,number,numRpt,j,0.8683,vtsPrac,26,0,26,0,1,,,,,,,,,,,,,,,,,,,,,,,
295483,2022-12-06_18h16.34.389,vts_reward_expectancy_bt,2022.2.4,Win32,60.06727535,Chrome,1368,912,,,,,0,657,,,,,,,,,,,,,,,,,F,181,triangle,1,0,,2,,,,,,,,,,,,,,repeat,number,numRpt,k,0.5698,vtsPrac,27,0,27,0,1,,,,,,,,,,,,,,,,,,,,,,,
295483,2022-12-06_18h16.34.389,vts_reward_expectancy_bt,2022.2.4,Win32,60.06727535,Chrome,1368,912,,,,,0,657,,,,,,,,,,,,,,,,,Y,167,hexagon,1,0,,2,,,,,,,,,,,,,,switch,letter,lettSwt,f,1.0847,vtsPrac,28,0,28,0,1,,,,,,,,,,,,,,,,,,,,,,,
295483,2022-12-06_18h16.34.389,vts_reward_expectancy_bt,2022.2.4,Win32,60.06727535,Chrome,1368,912,,,,,0,657,,,,,,,,,,,,,,,,,D,132,circle,1,0,,2,,,,,,,,,,,,,,repeat,letter,lettRpt,d,0.7861,vtsPrac,29,0,29,0,1,,,,,,,,,,,,,,,,,,,,,,,
295483,2022-12-06_18h16.34.389,vts_reward_expectancy_bt,2022.2.4,Win32,60.06727535,Chrome,1368,912,,,,,0,657,,,,,,,,,,,,,,,,,B,181,hexagon,1,0,,2,,,,,,,,,,,,,,switch,number,numSwt,k,0.6758,vtsPrac,30,0,30,0,1,,,,,,,,,,,,,,,,,,,,,,,
295483,2022-12-06_18h16.34.389,vts_reward_expectancy_bt,2022.2.4,Win32,60.06727535,Chrome,1368,912,,,,,0,657,,,,,,,,,,,,,,,,,S,139,triangle,1,0,,2,,,,,,,,,,,,,,repeat,number,numRpt,j,0.5369,vtsPrac,31,0,31,0,1,,,,,,,,,,,,,,,,,,,,,,,
295483,2022-12-06_18h16.34.389,vts_reward_expectancy_bt,2022.2.4,Win32,60.06727535,Chrome,1368,912,,,,,,,,,,,,,,,,,,,,,,,,,,,,,,,,,,,,,,,,,,,,,,,,,,,,,,,,,,,,,,,,,,,,,,,,,,,,
295483,2022-12-06_18h16.34.389,vts_reward_expectancy_bt,2022.2.4,Win32,60.06727535,Chrome,1368,912,,,,,,,,,,,,,,,,,,,,,,,,,,,,,,,,,,,,,,,,,,,,,,,,,,,,,,,,,,,,,,,,,,,,,,,,,,,,
295483,2022-12-06_18h16.34.389,vts_reward_expectancy_bt,2022.2.4,Win32,60.06727535,Chrome,1368,912,,,,,0,657,,,,,,,,,,,,,,,,,S,181,hexagon,0,0,,,,,,,,,,,,,,,,switch,letter,NA,d,1.0681,noRew,,,,,,0,0,0,0,0,1,,,,,,,,,,,,,,,,,
295483,2022-12-06_18h16.34.389,vts_reward_expectancy_bt,2022.2.4,Win32,60.06727535,Chrome,1368,912,,,,,0,657,,,,,,,,,,,,,,,,,F,167,triangle,-1,1,,,,,,,,,,,,,,,,switch,no_choice,NA,,,noRew,,,,,,0,1,0,1,0,1,,,,,,,,,,,,,,,,,
295483,2022-12-06_18h16.34.389,vts_reward_expectancy_bt,2022.2.4,Win32,60.06727535,Chrome,1368,912,,,,,0,657,,,,,,,,,,,,,,,,,D,139,hexagon,1,0,,,,,,,,,,,,,,,,switch,letter,lettSwt,d,0.6516,noRew,,,,,,0,2,0,2,0,1,,,,,,,,,,,,,,,,,
295483,2022-12-06_18h16.34.389,vts_reward_expectancy_bt,2022.2.4,Win32,60.06727535,Chrome,1368,912,,,,,0,657,,,,,,,,,,,,,,,,,U,146,triangle,1,0,,,,,,,,,,,,,,,,switch,number,numSwt,j,0.7845,noRew,,,,,,0,3,0,3,0,1,,,,,,,,,,,,,,,,,
295483,2022-12-06_18h16.34.389,vts_reward_expectancy_bt,2022.2.4,Win32,60.06727535,Chrome,1368,912,,,,,0,657,,,,,,,,,,,,,,,,,S,181,triangle,1,0,,,,,,,,,,,,,,,,switch,letter,lettSwt,f,1.0014,noRew,,,,,,0,4,0,4,0,1,,,,,,,,,,,,,,,,,
295483,2022-12-06_18h16.34.389,vts_reward_expectancy_bt,2022.2.4,Win32,60.06727535,Chrome,1368,912,,,,,0,657,,,,,,,,,,,,,,,,,F,167,circle,1,0,,,,,,,,,,,,,,,,repeat,letter,lettRpt,d,0.788,noRew,,,,,,0,5,0,5,0,1,,,,,,,,,,,,,,,,,
295483,2022-12-06_18h16.34.389,vts_reward_expectancy_bt,2022.2.4,Win32,60.06727535,Chrome,1368,912,,,,,0,657,,,,,,,,,,,,,,,,,D,139,circle,1,0,,,,,,,,,,,,,,,,repeat,letter,lettRpt,d,0.5872,noRew,,,,,,0,6,0,6,0,1,,,,,,,,,,,,,,,,,
295483,2022-12-06_18h16.34.389,vts_reward_expectancy_bt,2022.2.4,Win32,60.06727535,Chrome,1368,912,,,,,0,657,,,,,,,,,,,,,,,,,U,146,star,0,0,,,,,,,,,,,,,,,,switch,number,NA,k,0.9346,noRew,,,,,,0,7,0,7,0,1,,,,,,,,,,,,,,,,,
295483,2022-12-06_18h16.34.389,vts_reward_expectancy_bt,2022.2.4,Win32,60.06727535,Chrome,1368,912,,,,,0,657,,,,,,,,,,,,,,,,,H,125,hexagon,1,1,,,,,,,,,,,,,,,,repeat,number,numRpt,j,0.5683,noRew,,,,,,0,8,0,8,0,1,,,,,,,,,,,,,,,,,
295483,2022-12-06_18h16.34.389,vts_reward_expectancy_bt,2022.2.4,Win32,60.06727535,Chrome,1368,912,,,,,0,657,,,,,,,,,,,,,,,,,D,146,circle,1,0,,,,,,,,,,,,,,,,switch,letter,lettSwt,d,0.5842,noRew,,,,,,0,9,0,9,0,1,,,,,,,,,,,,,,,,,
295483,2022-12-06_18h16.34.389,vts_reward_expectancy_bt,2022.2.4,Win32,60.06727535,Chrome,1368,912,,,,,0,657,,,,,,,,,,,,,,,,,B,167,hexagon,1,0,,,,,,,,,,,,,,,,switch,number,numSwt,k,0.9516,noRew,,,,,,0,10,0,10,0,1,,,,,,,,,,,,,,,,,
295483,2022-12-06_18h16.34.389,vts_reward_expectancy_bt,2022.2.4,Win32,60.06727535,Chrome,1368,912,,,,,0,657,,,,,,,,,,,,,,,,,W,132,circle,1,0,,,,,,,,,,,,,,,,switch,letter,lettSwt,f,1.584,noRew,,,,,,0,11,0,11,0,1,,,,,,,,,,,,,,,,,
295483,2022-12-06_18h16.34.389,vts_reward_expectancy_bt,2022.2.4,Win32,60.06727535,Chrome,1368,912,,,,,0,657,,,,,,,,,,,,,,,,,F,139,star,1,0,,,,,,,,,,,,,,,,repeat,letter,lettRpt,d,0.868,noRew,,,,,,0,12,0,12,0,1,,,,,,,,,,,,,,,,,
295483,2022-12-06_18h16.34.389,vts_reward_expectancy_bt,2022.2.4,Win32,60.06727535,Chrome,1368,912,,,,,0,657,,,,,,,,,,,,,,,,,H,167,triangle,1,0,,,,,,,,,,,,,,,,switch,number,numSwt,k,1.5355,noRew,,,,,,0,13,0,13,0,1,,,,,,,,,,,,,,,,,
295483,2022-12-06_18h16.34.389,vts_reward_expectancy_bt,2022.2.4,Win32,60.06727535,Chrome,1368,912,,,,,0,657,,,,,,,,,,,,,,,,,D,181,triangle,1,0,,,,,,,,,,,,,,,,switch,letter,lettSwt,d,0.7674,noRew,,,,,,0,14,0,14,0,1,,,,,,,,,,,,,,,,,
295483,2022-12-06_18h16.34.389,vts_reward_expectancy_bt,2022.2.4,Win32,60.06727535,Chrome,1368,912,,,,,0,657,,,,,,,,,,,,,,,,,Y,125,star,1,0,,,,,,,,,,,,,,,,repeat,letter,lettRpt,f,1.4819,noRew,,,,,,0,15,0,15,0,1,,,,,,,,,,,,,,,,,
295483,2022-12-06_18h16.34.389,vts_reward_expectancy_bt,2022.2.4,Win32,60.06727535,Chrome,1368,912,,,,,0,657,,,,,,,,,,,,,,,,,U,167,hexagon,1,0,,,,,,,,,,,,,,,,switch,number,numSwt,k,1.2503,noRew,,,,,,0,16,0,16,0,1,,,,,,,,,,,,,,,,,
295483,2022-12-06_18h16.34.389,vts_reward_expectancy_bt,2022.2.4,Win32,60.06727535,Chrome,1368,912,,,,,0,657,,,,,,,,,,,,,,,,,S,146,star,1,0,,,,,,,,,,,,,,,,repeat,number,numRpt,j,0.6682,noRew,,,,,,0,17,0,17,0,1,,,,,,,,,,,,,,,,,
295483,2022-12-06_18h16.34.389,vts_reward_expectancy_bt,2022.2.4,Win32,60.06727535,Chrome,1368,912,,,,,0,657,,,,,,,,,,,,,,,,,H,139,hexagon,1,0,,,,,,,,,,,,,,,,switch,letter,lettSwt,d,1.2382,noRew,,,,,,0,18,0,18,0,1,,,,,,,,,,,,,,,,,
295483,2022-12-06_18h16.34.389,vts_reward_expectancy_bt,2022.2.4,Win32,60.06727535,Chrome,1368,912,,,,,0,657,,,,,,,,,,,,,,,,,B,174,circle,1,0,,,,,,,,,,,,,,,,switch,number,numSwt,k,0.5504,noRew,,,,,,0,19,0,19,0,1,,,,,,,,,,,,,,,,,
295483,2022-12-06_18h16.34.389,vts_reward_expectancy_bt,2022.2.4,Win32,60.06727535,Chrome,1368,912,,,,,0,657,,,,,,,,,,,,,,,,,W,132,triangle,1,0,,,,,,,,,,,,,,,,repeat,number,numRpt,j,1.3512,noRew,,,,,,0,20,0,20,0,1,,,,,,,,,,,,,,,,,
295483,2022-12-06_18h16.34.389,vts_reward_expectancy_bt,2022.2.4,Win32,60.06727535,Chrome,1368,912,,,,,0,657,,,,,,,,,,,,,,,,,F,181,hexagon,1,0,,,,,,,,,,,,,,,,repeat,number,numRpt,k,0.6841,noRew,,,,,,0,21,0,21,0,1,,,,,,,,,,,,,,,,,
295483,2022-12-06_18h16.34.389,vts_reward_expectancy_bt,2022.2.4,Win32,60.06727535,Chrome,1368,912,,,,,0,657,,,,,,,,,,,,,,,,,U,146,triangle,1,0,,,,,,,,,,,,,,,,switch,letter,lettSwt,f,0.8745,noRew,,,,,,0,22,0,22,0,1,,,,,,,,,,,,,,,,,
295483,2022-12-06_18h16.34.389,vts_reward_expectancy_bt,2022.2.4,Win32,60.06727535,Chrome,1368,912,,,,,0,657,,,,,,,,,,,,,,,,,H,139,star,1,0,,,,,,,,,,,,,,,,repeat,letter,lettRpt,d,1.0179,noRew,,,,,,0,23,0,23,0,1,,,,,,,,,,,,,,,,,
295483,2022-12-06_18h16.34.389,vts_reward_expectancy_bt,2022.2.4,Win32,60.06727535,Chrome,1368,912,,,,,0,657,,,,,,,,,,,,,,,,,D,181,circle,1,0,,,,,,,,,,,,,,,,repeat,letter,lettRpt,d,0.6343,noRew,,,,,,0,24,0,24,0,1,,,,,,,,,,,,,,,,,
295483,2022-12-06_18h16.34.389,vts_reward_expectancy_bt,2022.2.4,Win32,60.06727535,Chrome,1368,912,,,,,0,657,,,,,,,,,,,,,,,,,B,174,star,1,0,,,,,,,,,,,,,,,,repeat,letter,lettRpt,d,0.7079,noRew,,,,,,0,25,0,25,0,1,,,,,,,,,,,,,,,,,
295483,2022-12-06_18h16.34.389,vts_reward_expectancy_bt,2022.2.4,Win32,60.06727535,Chrome,1368,912,,,,,0,657,,,,,,,,,,,,,,,,,Y,125,triangle,1,0,,,,,,,,,,,,,,,,repeat,letter,lettRpt,f,1.2855,noRew,,,,,,0,26,0,26,0,1,,,,,,,,,,,,,,,,,
295483,2022-12-06_18h16.34.389,vts_reward_expectancy_bt,2022.2.4,Win32,60.06727535,Chrome,1368,912,,,,,0,657,,,,,,,,,,,,,,,,,H,167,hexagon,1,0,,,,,,,,,,,,,,,,switch,number,numSwt,k,1.0676,noRew,,,,,,0,27,0,27,0,1,,,,,,,,,,,,,,,,,
295483,2022-12-06_18h16.34.389,vts_reward_expectancy_bt,2022.2.4,Win32,60.06727535,Chrome,1368,912,,,,,0,657,,,,,,,,,,,,,,,,,B,139,hexagon,1,0,,,,,,,,,,,,,,,,repeat,number,numRpt,j,0.9848,noRew,,,,,,0,28,0,28,0,1,,,,,,,,,,,,,,,,,
295483,2022-12-06_18h16.34.389,vts_reward_expectancy_bt,2022.2.4,Win32,60.06727535,Chrome,1368,912,,,,,0,657,,,,,,,,,,,,,,,,,D,181,star,1,0,,,,,,,,,,,,,,,,repeat,number,numRpt,k,1.4179,noRew,,,,,,0,29,0,29,0,1,,,,,,,,,,,,,,,,,
295483,2022-12-06_18h16.34.389,vts_reward_expectancy_bt,2022.2.4,Win32,60.06727535,Chrome,1368,912,,,,,0,657,,,,,,,,,,,,,,,,,S,125,hexagon,1,0,,,,,,,,,,,,,,,,switch,letter,lettSwt,f,1.135,noRew,,,,,,0,30,0,30,0,1,,,,,,,,,,,,,,,,,
295483,2022-12-06_18h16.34.389,vts_reward_expectancy_bt,2022.2.4,Win32,60.06727535,Chrome,1368,912,,,,,0,657,,,,,,,,,,,,,,,,,U,167,triangle,1,0,,,,,,,,,,,,,,,,switch,number,numSwt,k,1.9868,noRew,,,,,,0,31,0,31,0,1,,,,,,,,,,,,,,,,,
295483,2022-12-06_18h16.34.389,vts_reward_expectancy_bt,2022.2.4,Win32,60.06727535,Chrome,1368,912,,,,,0,657,,,,,,,,,,,,,,,,,W,167,hexagon,1,0,,,,,,,,,,,,,,,,switch,letter,lettSwt,f,1.0363,noRew,,,,,,0,32,0,32,0,1,,,,,,,,,,,,,,,,,
295483,2022-12-06_18h16.34.389,vts_reward_expectancy_bt,2022.2.4,Win32,60.06727535,Chrome,1368,912,,,,,0,657,,,,,,,,,,,,,,,,,D,181,triangle,1,0,,,,,,,,,,,,,,,,repeat,letter,lettRpt,d,1.4686,noRew,,,,,,0,33,0,33,0,1,,,,,,,,,,,,,,,,,
295483,2022-12-06_18h16.34.389,vts_reward_expectancy_bt,2022.2.4,Win32,60.06727535,Chrome,1368,912,,,,,0,657,,,,,,,,,,,,,,,,,S,139,triangle,1,0,,,,,,,,,,,,,,,,repeat,letter,lettRpt,f,1.3155,noRew,,,,,,0,34,0,34,0,1,,,,,,,,,,,,,,,,,
295483,2022-12-06_18h16.34.389,vts_reward_expectancy_bt,2022.2.4,Win32,60.06727535,Chrome,1368,912,,,,,0,657,,,,,,,,,,,,,,,,,H,146,star,1,0,,,,,,,,,,,,,,,,repeat,letter,lettRpt,d,1.3643,noRew,,,,,,0,35,0,35,0,1,,,,,,,,,,,,,,,,,
295483,2022-12-06_18h16.34.389,vts_reward_expectancy_bt,2022.2.4,Win32,60.06727535,Chrome,1368,912,,,,,0,657,,,,,,,,,,,,,,,,,B,174,hexagon,1,0,,,,,,,,,,,,,,,,repeat,letter,lettRpt,d,0.8676,noRew,,,,,,0,36,0,36,0,1,,,,,,,,,,,,,,,,,
295483,2022-12-06_18h16.34.389,vts_reward_expectancy_bt,2022.2.4,Win32,60.06727535,Chrome,1368,912,,,,,0,657,,,,,,,,,,,,,,,,,Y,160,star,1,0,,,,,,,,,,,,,,,,switch,number,numSwt,k,0.718,noRew,,,,,,0,37,0,37,0,1,,,,,,,,,,,,,,,,,
295483,2022-12-06_18h16.34.389,vts_reward_expectancy_bt,2022.2.4,Win32,60.06727535,Chrome,1368,912,,,,,0,657,,,,,,,,,,,,,,,,,H,139,star,0,0,,,,,,,,,,,,,,,,repeat,number,NA,k,1.2055,noRew,,,,,,0,38,0,38,0,1,,,,,,,,,,,,,,,,,
295483,2022-12-06_18h16.34.389,vts_reward_expectancy_bt,2022.2.4,Win32,60.06727535,Chrome,1368,912,,,,,0,657,,,,,,,,,,,,,,,,,S,167,hexagon,1,1,,,,,,,,,,,,,,,,repeat,number,numRpt,k,0.8756,noRew,,,,,,0,39,0,39,0,1,,,,,,,,,,,,,,,,,
295483,2022-12-06_18h16.34.389,vts_reward_expectancy_bt,2022.2.4,Win32,60.06727535,Chrome,1368,912,,,,,0,657,,,,,,,,,,,,,,,,,W,181,hexagon,1,0,,,,,,,,,,,,,,,,switch,letter,lettSwt,f,1.1203,noRew,,,,,,0,40,0,40,0,1,,,,,,,,,,,,,,,,,
295483,2022-12-06_18h16.34.389,vts_reward_expectancy_bt,2022.2.4,Win32,60.06727535,Chrome,1368,912,,,,,0,657,,,,,,,,,,,,,,,,,S,132,circle,1,0,,,,,,,,,,,,,,,,repeat,letter,lettRpt,f,0.9366,noRew,,,,,,0,41,0,41,0,1,,,,,,,,,,,,,,,,,
295483,2022-12-06_18h16.34.389,vts_reward_expectancy_bt,2022.2.4,Win32,60.06727535,Chrome,1368,912,,,,,0,657,,,,,,,,,,,,,,,,,Y,139,triangle,1,0,,,,,,,,,,,,,,,,switch,number,numSwt,j,1.0181,noRew,,,,,,0,42,0,42,0,1,,,,,,,,,,,,,,,,,
295483,2022-12-06_18h16.34.389,vts_reward_expectancy_bt,2022.2.4,Win32,60.06727535,Chrome,1368,912,,,,,0,657,,,,,,,,,,,,,,,,,D,125,star,1,0,,,,,,,,,,,,,,,,repeat,number,numRpt,j,1.0525,noRew,,,,,,0,43,0,43,0,1,,,,,,,,,,,,,,,,,
295483,2022-12-06_18h16.34.389,vts_reward_expectancy_bt,2022.2.4,Win32,60.06727535,Chrome,1368,912,,,,,0,657,,,,,,,,,,,,,,,,,Y,174,circle,1,0,,,,,,,,,,,,,,,,repeat,number,numRpt,k,0.7374,noRew,,,,,,0,44,0,44,0,1,,,,,,,,,,,,,,,,,
295483,2022-12-06_18h16.34.389,vts_reward_expectancy_bt,2022.2.4,Win32,60.06727535,Chrome,1368,912,,,,,0,657,,,,,,,,,,,,,,,,,H,132,star,1,0,,,,,,,,,,,,,,,,switch,letter,lettSwt,d,0.9344,noRew,,,,,,0,45,0,45,0,1,,,,,,,,,,,,,,,,,
295483,2022-12-06_18h16.34.389,vts_reward_expectancy_bt,2022.2.4,Win32,60.06727535,Chrome,1368,912,,,,,0,657,,,,,,,,,,,,,,,,,F,125,circle,1,0,,,,,,,,,,,,,,,,repeat,letter,lettRpt,d,0.8672,noRew,,,,,,0,46,0,46,0,1,,,,,,,,,,,,,,,,,
295483,2022-12-06_18h16.34.389,vts_reward_expectancy_bt,2022.2.4,Win32,60.06727535,Chrome,1368,912,,,,,0,657,,,,,,,,,,,,,,,,,U,181,triangle,1,0,,,,,,,,,,,,,,,,repeat,letter,lettRpt,f,0.8176,noRew,,,,,,0,47,0,47,0,1,,,,,,,,,,,,,,,,,
295483,2022-12-06_18h16.34.389,vts_reward_expectancy_bt,2022.2.4,Win32,60.06727535,Chrome,1368,912,,,,,0,657,,,,,,,,,,,,,,,,,F,146,hexagon,1,0,,,,,,,,,,,,,,,,repeat,letter,lettRpt,d,0.8702,noRew,,,,,,0,48,0,48,0,1,,,,,,,,,,,,,,,,,
295483,2022-12-06_18h16.34.389,vts_reward_expectancy_bt,2022.2.4,Win32,60.06727535,Chrome,1368,912,,,,,0,657,,,,,,,,,,,,,,,,,U,167,circle,1,0,,,,,,,,,,,,,,,,repeat,letter,lettRpt,f,0.7845,noRew,,,,,,0,49,0,49,0,1,,,,,,,,,,,,,,,,,
295483,2022-12-06_18h16.34.389,vts_reward_expectancy_bt,2022.2.4,Win32,60.06727535,Chrome,1368,912,,,,,0,657,,,,,,,,,,,,,,,,,S,125,circle,1,0,,,,,,,,,,,,,,,,switch,number,numSwt,j,0.8182,noRew,,,,,,0,50,0,50,0,1,,,,,,,,,,,,,,,,,
295483,2022-12-06_18h16.34.389,vts_reward_expectancy_bt,2022.2.4,Win32,60.06727535,Chrome,1368,912,,,,,0,657,,,,,,,,,,,,,,,,,D,181,triangle,1,0,,,,,,,,,,,,,,,,repeat,number,numRpt,k,1.1179,noRew,,,,,,0,51,0,51,0,1,,,,,,,,,,,,,,,,,
295483,2022-12-06_18h16.34.389,vts_reward_expectancy_bt,2022.2.4,Win32,60.06727535,Chrome,1368,912,,,,,0,657,,,,,,,,,,,,,,,,,F,146,star,1,0,,,,,,,,,,,,,,,,switch,letter,lettSwt,d,0.836,noRew,,,,,,0,52,0,52,0,1,,,,,,,,,,,,,,,,,
295483,2022-12-06_18h16.34.389,vts_reward_expectancy_bt,2022.2.4,Win32,60.06727535,Chrome,1368,912,,,,,0,657,,,,,,,,,,,,,,,,,D,132,triangle,1,0,,,,,,,,,,,,,,,,switch,number,numSwt,j,0.8648,noRew,,,,,,0,53,0,53,0,1,,,,,,,,,,,,,,,,,
295483,2022-12-06_18h16.34.389,vts_reward_expectancy_bt,2022.2.4,Win32,60.06727535,Chrome,1368,912,,,,,0,657,,,,,,,,,,,,,,,,,B,139,triangle,1,0,,,,,,,,,,,,,,,,switch,letter,lettSwt,d,0.7055,noRew,,,,,,0,54,0,54,0,1,,,,,,,,,,,,,,,,,
295483,2022-12-06_18h16.34.389,vts_reward_expectancy_bt,2022.2.4,Win32,60.06727535,Chrome,1368,912,,,,,0,657,,,,,,,,,,,,,,,,,H,181,hexagon,1,0,,,,,,,,,,,,,,,,repeat,letter,lettRpt,d,0.6506,noRew,,,,,,0,55,0,55,0,1,,,,,,,,,,,,,,,,,
295483,2022-12-06_18h16.34.389,vts_reward_expectancy_bt,2022.2.4,Win32,60.06727535,Chrome,1368,912,,,,,0,657,,,,,,,,,,,,,,,,,D,146,hexagon,1,0,,,,,,,,,,,,,,,,switch,number,numSwt,j,0.9358,noRew,,,,,,0,56,0,56,0,1,,,,,,,,,,,,,,,,,
295483,2022-12-06_18h16.34.389,vts_reward_expectancy_bt,2022.2.4,Win32,60.06727535,Chrome,1368,912,,,,,0,657,,,,,,,,,,,,,,,,,W,139,triangle,1,0,,,,,,,,,,,,,,,,switch,letter,lettSwt,f,0.885,noRew,,,,,,0,57,0,57,0,1,,,,,,,,,,,,,,,,,
295483,2022-12-06_18h16.34.389,vts_reward_expectancy_bt,2022.2.4,Win32,60.06727535,Chrome,1368,912,,,,,0,657,,,,,,,,,,,,,,,,,H,160,triangle,1,0,,,,,,,,,,,,,,,,repeat,letter,lettRpt,d,1.1483,noRew,,,,,,0,58,0,58,0,1,,,,,,,,,,,,,,,,,
295483,2022-12-06_18h16.34.389,vts_reward_expectancy_bt,2022.2.4,Win32,60.06727535,Chrome,1368,912,,,,,0,657,,,,,,,,,,,,,,,,,S,174,star,1,0,,,,,,,,,,,,,,,,repeat,letter,lettRpt,f,0.8178,noRew,,,,,,0,59,0,59,0,1,,,,,,,,,,,,,,,,,
295483,2022-12-06_18h16.34.389,vts_reward_expectancy_bt,2022.2.4,Win32,60.06727535,Chrome,1368,912,,,,,0,657,,,,,,,,,,,,,,,,,S,174,triangle,1,0,,,,,,,,,,,,,,,,repeat,letter,lettRpt,f,0.8848,noRew,,,,,,0,60,0,60,0,1,,,,,,,,,,,,,,,,,
295483,2022-12-06_18h16.34.389,vts_reward_expectancy_bt,2022.2.4,Win32,60.06727535,Chrome,1368,912,,,,,0,657,,,,,,,,,,,,,,,,,Y,146,circle,1,0,,,,,,,,,,,,,,,,repeat,letter,lettRpt,f,0.7511,noRew,,,,,,0,61,0,61,0,1,,,,,,,,,,,,,,,,,
295483,2022-12-06_18h16.34.389,vts_reward_expectancy_bt,2022.2.4,Win32,60.06727535,Chrome,1368,912,,,,,0,657,,,,,,,,,,,,,,,,,F,181,circle,1,0,,,,,,,,,,,,,,,,repeat,letter,lettRpt,d,1.07,noRew,,,,,,0,62,0,62,0,1,,,,,,,,,,,,,,,,,
295483,2022-12-06_18h16.34.389,vts_reward_expectancy_bt,2022.2.4,Win32,60.06727535,Chrome,1368,912,,,,,0,657,,,,,,,,,,,,,,,,,H,167,star,1,0,,,,,,,,,,,,,,,,repeat,letter,lettRpt,d,0.7222,noRew,,,,,,0,63,0,63,0,1,,,,,,,,,,,,,,,,,
295483,2022-12-06_18h16.34.389,vts_reward_expectancy_bt,2022.2.4,Win32,60.06727535,Chrome,1368,912,,,,,,,,,,,,,,,,,,,,,,,,,,,,,,,,,,,,,,,,,,,,,,,,,,,,,,,,,,,,,,,,,,,,,,,,,,,,
295483,2022-12-06_18h16.34.389,vts_reward_expectancy_bt,2022.2.4,Win32,60.06727535,Chrome,1368,912,,,,,1,658,,,,,,,,,,,,,,,,,Y,167,circle,1,0,,,,,,,,,,,,,,,,repeat,letter,lettRpt,f,1.0688,Lo,,,,,,0,,,,,,space,7.8808,high,0,0,0,0,1,,,,,,,,,
295483,2022-12-06_18h16.34.389,vts_reward_expectancy_bt,2022.2.4,Win32,60.06727535,Chrome,1368,912,,,,,0,658,,,,,,,,,,,,,,,,,S,160,hexagon,0,0,,,,,,,,,,,,,,,,repeat,letter,NA,d,0.7264,Lo,,,,,,0,,,,,,,,high,1,0,1,0,1,,,,,,,,,
295483,2022-12-06_18h16.34.389,vts_reward_expectancy_bt,2022.2.4,Win32,60.06727535,Chrome,1368,912,,,,,0,658,,,,,,,,,,,,,,,,,W,125,star,1,1,,,,,,,,,,,,,,,,switch,number,numSwt,j,1.4938,Hi,,,,,,0,,,,,,,,high,2,0,2,0,1,,,,,,,,,
295483,2022-12-06_18h16.34.389,vts_reward_expectancy_bt,2022.2.4,Win32,60.06727535,Chrome,1368,912,,,,,10,668,,,,,,,,,,,,,,,,,F,132,triangle,1,0,,,,,,,,,,,,,,,,repeat,number,numRpt,j,0.6679,Hi,,,,,,0,,,,,,,,high,3,0,3,0,1,,,,,,,,,
295483,2022-12-06_18h16.34.389,vts_reward_expectancy_bt,2022.2.4,Win32,60.06727535,Chrome,1368,912,,,,,1,669,,,,,,,,,,,,,,,,,U,139,circle,1,0,,,,,,,,,,,,,,,,switch,letter,lettSwt,f,0.7006,Lo,,,,,,0,,,,,,,,high,4,0,4,0,1,,,,,,,,,
295483,2022-12-06_18h16.34.389,vts_reward_expectancy_bt,2022.2.4,Win32,60.06727535,Chrome,1368,912,,,,,0,669,,,,,,,,,,,,,,,,,B,146,hexagon,0,0,,,,,,,,,,,,,,,,switch,number,NA,k,0.6099,Lo,,,,,,0,,,,,,,,high,5,0,5,0,1,,,,,,,,,
295483,2022-12-06_18h16.34.389,vts_reward_expectancy_bt,2022.2.4,Win32,60.06727535,Chrome,1368,912,,,,,10,679,,,,,,,,,,,,,,,,,D,181,star,1,1,,,,,,,,,,,,,,,,repeat,number,numRpt,k,0.6181,Hi,,,,,,0,,,,,,,,high,6,0,6,0,1,,,,,,,,,
295483,2022-12-06_18h16.34.389,vts_reward_expectancy_bt,2022.2.4,Win32,60.06727535,Chrome,1368,912,,,,,1,680,,,,,,,,,,,,,,,,,H,174,triangle,1,0,,,,,,,,,,,,,,,,switch,letter,lettSwt,d,0.6268,Hi,,,,,,0,,,,,,,,high,7,0,7,0,1,,,,,,,,,
295483,2022-12-06_18h16.34.389,vts_reward_expectancy_bt,2022.2.4,Win32,60.06727535,Chrome,1368,912,,,,,1,681,,,,,,,,,,,,,,,,,Y,167,circle,1,0,,,,,,,,,,,,,,,,switch,number,numSwt,k,0.85,Lo,,,,,,0,,,,,,,,high,8,0,8,0,1,,,,,,,,,
295483,2022-12-06_18h16.34.389,vts_reward_expectancy_bt,2022.2.4,Win32,60.06727535,Chrome,1368,912,,,,,1,682,,,,,,,,,,,,,,,,,S,160,hexagon,1,0,,,,,,,,,,,,,,,,repeat,number,numRpt,k,0.7497,Lo,,,,,,0,,,,,,,,high,9,0,9,0,1,,,,,,,,,
295483,2022-12-06_18h16.34.389,vts_reward_expectancy_bt,2022.2.4,Win32,60.06727535,Chrome,1368,912,,,,,10,692,,,,,,,,,,,,,,,,,W,125,triangle,1,0,,,,,,,,,,,,,,,,switch,letter,lettSwt,f,0.6179,Hi,,,,,,0,,,,,,,,high,10,0,10,0,1,,,,,,,,,
295483,2022-12-06_18h16.34.389,vts_reward_expectancy_bt,2022.2.4,Win32,60.06727535,Chrome,1368,912,,,,,10,702,,,,,,,,,,,,,,,,,F,132,star,1,0,,,,,,,,,,,,,,,,switch,number,numSwt,j,0.6666,Hi,,,,,,0,,,,,,,,high,11,0,11,0,1,,,,,,,,,
295483,2022-12-06_18h16.34.389,vts_reward_expectancy_bt,2022.2.4,Win32,60.06727535,Chrome,1368,912,,,,,10,712,,,,,,,,,,,,,,,,,U,139,triangle,1,0,,,,,,,,,,,,,,,,switch,letter,lettSwt,f,0.7859,Hi,,,,,,0,,,,,,,,high,12,0,12,0,1,,,,,,,,,
295483,2022-12-06_18h16.34.389,vts_reward_expectancy_bt,2022.2.4,Win32,60.06727535,Chrome,1368,912,,,,,1,713,,,,,,,,,,,,,,,,,B,146,hexagon,1,0,,,,,,,,,,,,,,,,switch,number,numSwt,j,0.8524,Lo,,,,,,0,,,,,,,,high,13,0,13,0,1,,,,,,,,,
295483,2022-12-06_18h16.34.389,vts_reward_expectancy_bt,2022.2.4,Win32,60.06727535,Chrome,1368,912,,,,,10,723,,,,,,,,,,,,,,,,,D,181,star,1,0,,,,,,,,,,,,,,,,repeat,number,numRpt,k,0.6164,Hi,,,,,,0,,,,,,,,high,14,0,14,0,1,,,,,,,,,
295483,2022-12-06_18h16.34.389,vts_reward_expectancy_bt,2022.2.4,Win32,60.06727535,Chrome,1368,912,,,,,1,724,,,,,,,,,,,,,,,,,H,174,circle,1,0,,,,,,,,,,,,,,,,switch,letter,lettSwt,d,1.1505,Lo,,,,,,0,,,,,,,,high,15,0,15,0,1,,,,,,,,,
295483,2022-12-06_18h16.34.389,vts_reward_expectancy_bt,2022.2.4,Win32,60.06727535,Chrome,1368,912,,,,,1,725,,,,,,,,,,,,,,,,,S,125,star,1,0,,,,,,,,,,,,,,,,switch,number,numSwt,j,0.6426,Hi,,,,,,0,,,,,,,,high,16,0,16,0,1,,,,,,,,,
295483,2022-12-06_18h16.34.389,vts_reward_expectancy_bt,2022.2.4,Win32,60.06727535,Chrome,1368,912,,,,,0,725,,,,,,,,,,,,,,,,,U,160,triangle,1,0,,,,,,,,,,,,,,,,repeat,number,numRpt,k,1.5358,Hi,,,,,,0,,,,,,,,high,17,0,17,0,1,,,,,,,,,
295483,2022-12-06_18h16.34.389,vts_reward_expectancy_bt,2022.2.4,Win32,60.06727535,Chrome,1368,912,,,,,10,735,,,,,,,,,,,,,,,,,H,132,hexagon,1,0,,,,,,,,,,,,,,,,repeat,number,numRpt,j,0.9016,Lo,,,,,,0,,,,,,,,high,18,0,18,0,1,,,,,,,,,
295483,2022-12-06_18h16.34.389,vts_reward_expectancy_bt,2022.2.4,Win32,60.06727535,Chrome,1368,912,,,,,1,736,,,,,,,,,,,,,,,,,B,146,circle,1,0,,,,,,,,,,,,,,,,switch,letter,lettSwt,d,0.7597,Lo,,,,,,0,,,,,,,,high,19,0,19,0,1,,,,,,,,,
295483,2022-12-06_18h16.34.389,vts_reward_expectancy_bt,2022.2.4,Win32,60.06727535,Chrome,1368,912,,,,,1,737,,,,,,,,,,,,,,,,,D,167,hexagon,1,0,,,,,,,,,,,,,,,,switch,number,numSwt,k,0.6162,Lo,,,,,,0,,,,,,,,high,20,0,20,0,1,,,,,,,,,
295483,2022-12-06_18h16.34.389,vts_reward_expectancy_bt,2022.2.4,Win32,60.06727535,Chrome,1368,912,,,,,10,747,,,,,,,,,,,,,,,,,Y,181,star,1,0,,,,,,,,,,,,,,,,repeat,number,numRpt,k,0.4429,Hi,,,,,,0,,,,,,,,high,21,0,21,0,1,,,,,,,,,
295483,2022-12-06_18h16.34.389,vts_reward_expectancy_bt,2022.2.4,Win32,60.06727535,Chrome,1368,912,,,,,0,747,,,,,,,,,,,,,,,,,W,139,triangle,1,0,,,,,,,,,,,,,,,,repeat,number,numRpt,j,1.0608,Hi,,,,,,0,,,,,,,,high,22,0,22,0,1,,,,,,,,,
295483,2022-12-06_18h16.34.389,vts_reward_expectancy_bt,2022.2.4,Win32,60.06727535,Chrome,1368,912,,,,,1,748,,,,,,,,,,,,,,,,,F,174,circle,1,0,,,,,,,,,,,,,,,,switch,letter,lettSwt,d,0.8499,Lo,,,,,,0,,,,,,,,high,23,0,23,0,1,,,,,,,,,
295483,2022-12-06_18h16.34.389,vts_reward_expectancy_bt,2022.2.4,Win32,60.06727535,Chrome,1368,912,,,,,0,748,,,,,,,,,,,,,,,,,S,132,triangle,0,0,,,,,,,,,,,,,,,,switch,number,NA,k,0.6317,Lo,,,,,,0,,,,,,,,high,24,0,24,0,1,,,,,,,,,
295483,2022-12-06_18h16.34.389,vts_reward_expectancy_bt,2022.2.4,Win32,60.06727535,Chrome,1368,912,,,,,1,749,,,,,,,,,,,,,,,,,D,160,hexagon,1,1,,,,,,,,,,,,,,,,repeat,number,numRpt,k,0.9325,Lo,,,,,,0,,,,,,,,high,25,0,25,0,1,,,,,,,,,
295483,2022-12-06_18h16.34.389,vts_reward_expectancy_bt,2022.2.4,Win32,60.06727535,Chrome,1368,912,,,,,1,750,,,,,,,,,,,,,,,,,H,146,circle,1,0,,,,,,,,,,,,,,,,switch,letter,lettSwt,d,0.5961,Lo,,,,,,0,,,,,,,,high,26,0,26,0,1,,,,,,,,,
295483,2022-12-06_18h16.34.389,vts_reward_expectancy_bt,2022.2.4,Win32,60.06727535,Chrome,1368,912,,,,,0,750,,,,,,,,,,,,,,,,,F,139,star,0,0,,,,,,,,,,,,,,,,repeat,letter,NA,f,1.1347,Lo,,,,,,0,,,,,,,,high,27,0,27,0,1,,,,,,,,,
295483,2022-12-06_18h16.34.389,vts_reward_expectancy_bt,2022.2.4,Win32,60.06727535,Chrome,1368,912,,,,,1,751,,,,,,,,,,,,,,,,,W,167,circle,1,1,,,,,,,,,,,,,,,,repeat,letter,lettRpt,f,0.7013,Lo,,,,,,0,,,,,,,,high,28,0,28,0,1,,,,,,,,,
295483,2022-12-06_18h16.34.389,vts_reward_expectancy_bt,2022.2.4,Win32,60.06727535,Chrome,1368,912,,,,,1,752,,,,,,,,,,,,,,,,,B,174,hexagon,1,0,,,,,,,,,,,,,,,,switch,number,numSwt,k,0.7757,Lo,,,,,,0,,,,,,,,high,29,0,29,0,1,,,,,,,,,
295483,2022-12-06_18h16.34.389,vts_reward_expectancy_bt,2022.2.4,Win32,60.06727535,Chrome,1368,912,,,,,0,752,,,,,,,,,,,,,,,,,Y,125,triangle,1,0,,,,,,,,,,,,,,,,repeat,number,numRpt,j,1.227,Hi,,,,,,0,,,,,,,,high,30,0,30,0,1,,,,,,,,,
295483,2022-12-06_18h16.34.389,vts_reward_expectancy_bt,2022.2.4,Win32,60.06727535,Chrome,1368,912,,,,,10,762,,,,,,,,,,,,,,,,,U,181,star,1,0,,,,,,,,,,,,,,,,repeat,number,numRpt,k,0.6602,Hi,,,,,,0,,,,,,,,high,31,0,31,0,1,,,,,,,,,
295483,2022-12-06_18h16.34.389,vts_reward_expectancy_bt,2022.2.4,Win32,60.06727535,Chrome,1368,912,,,,,10,772,,,,,,,,,,,,,,,,,S,146,hexagon,1,0,,,,,,,,,,,,,,,,repeat,number,numRpt,j,0.8015,Lo,,,,,,1,,,,,,space,1.8504,high,0,0,0,0,1,,,,,,,,,
295483,2022-12-06_18h16.34.389,vts_reward_expectancy_bt,2022.2.4,Win32,60.06727535,Chrome,1368,912,,,,,10,782,,,,,,,,,,,,,,,,,D,167,triangle,1,0,,,,,,,,,,,,,,,,switch,letter,lettSwt,d,0.6343,Hi,,,,,,1,,,,,,,,high,1,0,1,0,1,,,,,,,,,
295483,2022-12-06_18h16.34.389,vts_reward_expectancy_bt,2022.2.4,Win32,60.06727535,Chrome,1368,912,,,,,0,782,,,,,,,,,,,,,,,,,B,132,star,1,0,,,,,,,,,,,,,,,,repeat,letter,lettRpt,d,1.2343,Hi,,,,,,1,,,,,,,,high,2,0,2,0,1,,,,,,,,,
295483,2022-12-06_18h16.34.389,vts_reward_expectancy_bt,2022.2.4,Win32,60.06727535,Chrome,1368,912,,,,,10,792,,,,,,,,,,,,,,,,,Y,160,circle,1,0,,,,,,,,,,,,,,,,repeat,letter,lettRpt,f,0.8771,Lo,,,,,,1,,,,,,,,high,3,0,3,0,1,,,,,,,,,
295483,2022-12-06_18h16.34.389,vts_reward_expectancy_bt,2022.2.4,Win32,60.06727535,Chrome,1368,912,,,,,1,793,,,,,,,,,,,,,,,,,H,139,hexagon,1,0,,,,,,,,,,,,,,,,switch,number,numSwt,j,0.9188,Lo,,,,,,1,,,,,,,,high,4,0,4,0,1,,,,,,,,,
295483,2022-12-06_18h16.34.389,vts_reward_expectancy_bt,2022.2.4,Win32,60.06727535,Chrome,1368,912,,,,,0,793,,,,,,,,,,,,,,,,,W,181,triangle,1,0,,,,,,,,,,,,,,,,switch,letter,lettSwt,f,0.9345,Hi,,,,,,1,,,,,,,,high,5,0,5,0,1,,,,,,,,,
295483,2022-12-06_18h16.34.389,vts_reward_expectancy_bt,2022.2.4,Win32,60.06727535,Chrome,1368,912,,,,,10,803,,,,,,,,,,,,,,,,,U,174,star,1,0,,,,,,,,,,,,,,,,switch,number,numSwt,k,0.5016,Hi,,,,,,1,,,,,,,,high,6,0,6,0,1,,,,,,,,,
295483,2022-12-06_18h16.34.389,vts_reward_expectancy_bt,2022.2.4,Win32,60.06727535,Chrome,1368,912,,,,,1,804,,,,,,,,,,,,,,,,,F,125,circle,1,0,,,,,,,,,,,,,,,,switch,letter,lettSwt,d,0.6693,Lo,,,,,,1,,,,,,,,high,7,0,7,0,1,,,,,,,,,
295483,2022-12-06_18h16.34.389,vts_reward_expectancy_bt,2022.2.4,Win32,60.06727535,Chrome,1368,912,,,,,1,805,,,,,,,,,,,,,,,,,S,146,circle,1,0,,,,,,,,,,,,,,,,repeat,letter,lettRpt,f,1.0177,Lo,,,,,,1,,,,,,,,high,8,0,8,0,1,,,,,,,,,
295483,2022-12-06_18h16.34.389,vts_reward_expectancy_bt,2022.2.4,Win32,60.06727535,Chrome,1368,912,,,,,10,815,,,,,,,,,,,,,,,,,D,167,triangle,1,0,,,,,,,,,,,,,,,,repeat,letter,lettRpt,d,0.8931,Hi,,,,,,1,,,,,,,,high,9,0,9,0,1,,,,,,,,,
295483,2022-12-06_18h16.34.389,vts_reward_expectancy_bt,2022.2.4,Win32,60.06727535,Chrome,1368,912,,,,,0,815,,,,,,,,,,,,,,,,,B,132,star,1,0,,,,,,,,,,,,,,,,switch,number,numSwt,j,1.0497,Hi,,,,,,1,,,,,,,,high,10,0,10,0,1,,,,,,,,,
295483,2022-12-06_18h16.34.389,vts_reward_expectancy_bt,2022.2.4,Win32,60.06727535,Chrome,1368,912,,,,,1,816,,,,,,,,,,,,,,,,,Y,160,hexagon,1,0,,,,,,,,,,,,,,,,switch,letter,lettSwt,f,1.0651,Lo,,,,,,1,,,,,,,,high,11,0,11,0,1,,,,,,,,,
295483,2022-12-06_18h16.34.389,vts_reward_expectancy_bt,2022.2.4,Win32,60.06727535,Chrome,1368,912,,,,,0,816,,,,,,,,,,,,,,,,,H,139,star,1,0,,,,,,,,,,,,,,,,switch,number,numSwt,j,0.7928,Hi,,,,,,1,,,,,,,,high,12,0,12,0,1,,,,,,,,,
295483,2022-12-06_18h16.34.389,vts_reward_expectancy_bt,2022.2.4,Win32,60.06727535,Chrome,1368,912,,,,,1,817,,,,,,,,,,,,,,,,,W,181,circle,1,0,,,,,,,,,,,,,,,,repeat,number,numRpt,k,0.8309,Lo,,,,,,1,,,,,,,,high,13,0,13,0,1,,,,,,,,,
295483,2022-12-06_18h16.34.389,vts_reward_expectancy_bt,2022.2.4,Win32,60.06727535,Chrome,1368,912,,,,,1,818,,,,,,,,,,,,,,,,,U,174,hexagon,1,0,,,,,,,,,,,,,,,,switch,letter,lettSwt,f,0.8952,Lo,,,,,,1,,,,,,,,high,14,0,14,0,1,,,,,,,,,
295483,2022-12-06_18h16.34.389,vts_reward_expectancy_bt,2022.2.4,Win32,60.06727535,Chrome,1368,912,,,,,10,828,,,,,,,,,,,,,,,,,F,125,triangle,1,0,,,,,,,,,,,,,,,,repeat,letter,lettRpt,d,0.5856,Hi,,,,,,1,,,,,,,,high,15,0,15,0,1,,,,,,,,,
295483,2022-12-06_18h16.34.389,vts_reward_expectancy_bt,2022.2.4,Win32,60.06727535,Chrome,1368,912,,,,,1,829,,,,,,,,,,,,,,,,,S,132,hexagon,1,0,,,,,,,,,,,,,,,,switch,number,numSwt,j,0.5445,Lo,,,,,,1,,,,,,,,high,16,0,16,0,1,,,,,,,,,
295483,2022-12-06_18h16.34.389,vts_reward_expectancy_bt,2022.2.4,Win32,60.06727535,Chrome,1368,912,,,,,0,829,,,,,,,,,,,,,,,,,H,160,star,1,0,,,,,,,,,,,,,,,,repeat,number,numRpt,k,0.832,Hi,,,,,,1,,,,,,,,high,17,0,17,0,1,,,,,,,,,
295483,2022-12-06_18h16.34.389,vts_reward_expectancy_bt,2022.2.4,Win32,60.06727535,Chrome,1368,912,,,,,0,829,,,,,,,,,,,,,,,,,D,146,circle,0,0,,,,,,,,,,,,,,,,switch,letter,NA,f,1.1335,Hi,,,,,,1,,,,,,,,high,18,0,18,0,1,,,,,,,,,
295483,2022-12-06_18h16.34.389,vts_reward_expectancy_bt,2022.2.4,Win32,60.06727535,Chrome,1368,912,,,,,10,839,,,,,,,,,,,,,,,,,Y,167,triangle,1,1,,,,,,,,,,,,,,,,switch,number,numSwt,k,0.5593,Hi,,,,,,1,,,,,,,,high,19,0,19,0,1,,,,,,,,,
295483,2022-12-06_18h16.34.389,vts_reward_expectancy_bt,2022.2.4,Win32,60.06727535,Chrome,1368,912,,,,,0,839,,,,,,,,,,,,,,,,,W,181,star,1,0,,,,,,,,,,,,,,,,repeat,number,numRpt,k,0.7501,Hi,,,,,,1,,,,,,,,high,20,0,20,0,1,,,,,,,,,
295483,2022-12-06_18h16.34.389,vts_reward_expectancy_bt,2022.2.4,Win32,60.06727535,Chrome,1368,912,,,,,1,840,,,,,,,,,,,,,,,,,U,125,hexagon,1,0,,,,,,,,,,,,,,,,repeat,number,numRpt,j,0.8011,Lo,,,,,,1,,,,,,,,high,21,0,21,0,1,,,,,,,,,
295483,2022-12-06_18h16.34.389,vts_reward_expectancy_bt,2022.2.4,Win32,60.06727535,Chrome,1368,912,,,,,1,841,,,,,,,,,,,,,,,,,B,174,circle,1,0,,,,,,,,,,,,,,,,switch,letter,lettSwt,d,0.5494,Lo,,,,,,1,,,,,,,,high,22,0,22,0,1,,,,,,,,,
295483,2022-12-06_18h16.34.389,vts_reward_expectancy_bt,2022.2.4,Win32,60.06727535,Chrome,1368,912,,,,,0,841,,,,,,,,,,,,,,,,,F,139,triangle,1,0,,,,,,,,,,,,,,,,switch,number,numSwt,j,0.7156,Hi,,,,,,1,,,,,,,,high,23,0,23,0,1,,,,,,,,,
295483,2022-12-06_18h16.34.389,vts_reward_expectancy_bt,2022.2.4,Win32,60.06727535,Chrome,1368,912,,,,,1,842,,,,,,,,,,,,,,,,,D,125,hexagon,1,0,,,,,,,,,,,,,,,,repeat,number,numRpt,j,0.6162,Lo,,,,,,1,,,,,,,,high,24,0,24,0,1,,,,,,,,,
295483,2022-12-06_18h16.34.389,vts_reward_expectancy_bt,2022.2.4,Win32,60.06727535,Chrome,1368,912,,,,,10,852,,,,,,,,,,,,,,,,,H,146,circle,1,0,,,,,,,,,,,,,,,,repeat,number,numRpt,j,0.6974,Lo,,,,,,1,,,,,,,,high,25,0,25,0,1,,,,,,,,,
295483,2022-12-06_18h16.34.389,vts_reward_expectancy_bt,2022.2.4,Win32,60.06727535,Chrome,1368,912,,,,,1,853,,,,,,,,,,,,,,,,,B,139,triangle,1,0,,,,,,,,,,,,,,,,switch,letter,lettSwt,d,0.5193,Hi,,,,,,1,,,,,,,,high,26,0,26,0,1,,,,,,,,,
295483,2022-12-06_18h16.34.389,vts_reward_expectancy_bt,2022.2.4,Win32,60.06727535,Chrome,1368,912,,,,,10,863,,,,,,,,,,,,,,,,,F,160,star,1,0,,,,,,,,,,,,,,,,switch,number,numSwt,k,0.4514,Hi,,,,,,1,,,,,,,,high,27,0,27,0,1,,,,,,,,,
295483,2022-12-06_18h16.34.389,vts_reward_expectancy_bt,2022.2.4,Win32,60.06727535,Chrome,1368,912,,,,,0,863,,,,,,,,,,,,,,,,,S,167,hexagon,0,0,,,,,,,,,,,,,,,,switch,letter,NA,d,0.583,Hi,,,,,,1,,,,,,,,high,28,0,28,0,1,,,,,,,,,
295483,2022-12-06_18h16.34.389,vts_reward_expectancy_bt,2022.2.4,Win32,60.06727535,Chrome,1368,912,,,,,10,873,,,,,,,,,,,,,,,,,U,174,star,1,1,,,,,,,,,,,,,,,,switch,number,numSwt,k,0.5155,Hi,,,,,,1,,,,,,,,high,29,0,29,0,1,,,,,,,,,
295483,2022-12-06_18h16.34.389,vts_reward_expectancy_bt,2022.2.4,Win32,60.06727535,Chrome,1368,912,,,,,1,874,,,,,,,,,,,,,,,,,W,181,circle,1,0,,,,,,,,,,,,,,,,switch,letter,lettSwt,f,0.9334,Lo,,,,,,1,,,,,,,,high,30,0,30,0,1,,,,,,,,,
295483,2022-12-06_18h16.34.389,vts_reward_expectancy_bt,2022.2.4,Win32,60.06727535,Chrome,1368,912,,,,,0,874,,,,,,,,,,,,,,,,,Y,132,triangle,1,0,,,,,,,,,,,,,,,,switch,number,numSwt,j,0.6693,Hi,,,,,,1,,,,,,,,high,31,0,31,0,1,,,,,,,,,
295483,2022-12-06_18h16.34.389,vts_reward_expectancy_bt,2022.2.4,Win32,60.06727535,Chrome,1368,912,,,,,0,874,,,,,,,,,,,,,,,,,B,132,star,1,0,,,,,,,,,,,,,,,,repeat,number,numRpt,j,0.9206,Hi,,,,,,2,,,,,,space,1.523,high,0,0,0,0,1,,,,,,,,,
295483,2022-12-06_18h16.34.389,vts_reward_expectancy_bt,2022.2.4,Win32,60.06727535,Chrome,1368,912,,,,,10,884,,,,,,,,,,,,,,,,,Y,125,circle,1,0,,,,,,,,,,,,,,,,switch,letter,lettSwt,f,0.8676,Lo,,,,,,2,,,,,,,,high,1,0,1,0,1,,,,,,,,,
295483,2022-12-06_18h16.34.389,vts_reward_expectancy_bt,2022.2.4,Win32,60.06727535,Chrome,1368,912,,,,,10,894,,,,,,,,,,,,,,,,,U,181,triangle,1,0,,,,,,,,,,,,,,,,repeat,letter,lettRpt,f,0.6853,Hi,,,,,,2,,,,,,,,high,2,0,2,0,1,,,,,,,,,
295483,2022-12-06_18h16.34.389,vts_reward_expectancy_bt,2022.2.4,Win32,60.06727535,Chrome,1368,912,,,,,0,894,,,,,,,,,,,,,,,,,F,146,hexagon,0,0,,,,,,,,,,,,,,,,switch,number,NA,k,0.5836,Hi,,,,,,2,,,,,,,,high,3,0,3,0,1,,,,,,,,,
295483,2022-12-06_18h16.34.389,vts_reward_expectancy_bt,2022.2.4,Win32,60.06727535,Chrome,1368,912,,,,,1,895,,,,,,,,,,,,,,,,,W,160,star,1,1,,,,,,,,,,,,,,,,repeat,number,numRpt,k,0.5173,Hi,,,,,,2,,,,,,,,high,4,0,4,0,1,,,,,,,,,
295483,2022-12-06_18h16.34.389,vts_reward_expectancy_bt,2022.2.4,Win32,60.06727535,Chrome,1368,912,,,,,1,896,,,,,,,,,,,,,,,,,S,139,circle,1,0,,,,,,,,,,,,,,,,switch,letter,lettSwt,f,0.8031,Lo,,,,,,2,,,,,,,,high,5,0,5,0,1,,,,,,,,,
295483,2022-12-06_18h16.34.389,vts_reward_expectancy_bt,2022.2.4,Win32,60.06727535,Chrome,1368,912,,,,,0,896,,,,,,,,,,,,,,,,,H,174,triangle,0,0,,,,,,,,,,,,,,,,repeat,letter,NA,f,1.2415,Lo,,,,,,2,,,,,,,,high,6,0,6,0,1,,,,,,,,,
295483,2022-12-06_18h16.34.389,vts_reward_expectancy_bt,2022.2.4,Win32,60.06727535,Chrome,1368,912,,,,,0,896,,,,,,,,,,,,,,,,,D,167,hexagon,0,1,,,,,,,,,,,,,,,,repeat,letter,NA,f,1.6516,Lo,,,,,,2,,,,,,,,high,7,0,7,0,1,,,,,,,,,
295483,2022-12-06_18h16.34.389,vts_reward_expectancy_bt,2022.2.4,Win32,60.06727535,Chrome,1368,912,,,,,10,906,,,,,,,,,,,,,,,,,B,132,hexagon,1,1,,,,,,,,,,,,,,,,repeat,letter,lettRpt,d,0.7533,Lo,,,,,,2,,,,,,,,high,8,0,8,0,1,,,,,,,,,
295483,2022-12-06_18h16.34.389,vts_reward_expectancy_bt,2022.2.4,Win32,60.06727535,Chrome,1368,912,,,,,0,906,,,,,,,,,,,,,,,,,Y,125,triangle,1,0,,,,,,,,,,,,,,,,switch,number,numSwt,j,0.6346,Hi,,,,,,2,,,,,,,,high,9,0,9,0,1,,,,,,,,,
295483,2022-12-06_18h16.34.389,vts_reward_expectancy_bt,2022.2.4,Win32,60.06727535,Chrome,1368,912,,,,,1,907,,,,,,,,,,,,,,,,,U,181,circle,1,0,,,,,,,,,,,,,,,,repeat,number,numRpt,k,0.5637,Lo,,,,,,2,,,,,,,,high,10,0,10,0,1,,,,,,,,,
295483,2022-12-06_18h16.34.389,vts_reward_expectancy_bt,2022.2.4,Win32,60.06727535,Chrome,1368,912,,,,,10,917,,,,,,,,,,,,,,,,,F,146,star,1,0,,,,,,,,,,,,,,,,repeat,number,numRpt,j,0.5244,Hi,,,,,,2,,,,,,,,high,11,0,11,0,1,,,,,,,,,
295483,2022-12-06_18h16.34.389,vts_reward_expectancy_bt,2022.2.4,Win32,60.06727535,Chrome,1368,912,,,,,1,918,,,,,,,,,,,,,,,,,W,160,circle,1,0,,,,,,,,,,,,,,,,switch,letter,lettSwt,f,0.7574,Lo,,,,,,2,,,,,,,,high,12,0,12,0,1,,,,,,,,,
295483,2022-12-06_18h16.34.389,vts_reward_expectancy_bt,2022.2.4,Win32,60.06727535,Chrome,1368,912,,,,,0,918,,,,,,,,,,,,,,,,,S,139,star,1,0,,,,,,,,,,,,,,,,switch,number,numSwt,j,0.6427,Hi,,,,,,2,,,,,,,,high,13,0,13,0,1,,,,,,,,,
295483,2022-12-06_18h16.34.389,vts_reward_expectancy_bt,2022.2.4,Win32,60.06727535,Chrome,1368,912,,,,,1,919,,,,,,,,,,,,,,,,,H,174,triangle,1,0,,,,,,,,,,,,,,,,switch,letter,lettSwt,d,0.6274,Hi,,,,,,2,,,,,,,,high,14,0,14,0,1,,,,,,,,,
295483,2022-12-06_18h16.34.389,vts_reward_expectancy_bt,2022.2.4,Win32,60.06727535,Chrome,1368,912,,,,,10,929,,,,,,,,,,,,,,,,,D,167,hexagon,1,0,,,,,,,,,,,,,,,,repeat,letter,lettRpt,d,0.7174,Lo,,,,,,2,,,,,,,,high,15,0,15,0,1,,,,,,,,,
295483,2022-12-06_18h16.34.389,vts_reward_expectancy_bt,2022.2.4,Win32,60.06727535,Chrome,1368,912,,,,,0,929,,,,,,,,,,,,,,,,,H,132,triangle,0,0,,,,,,,,,,,,,,,,switch,number,NA,k,0.6654,Lo,,,,,,2,,,,,,,,high,16,0,16,0,1,,,,,,,,,
295483,2022-12-06_18h16.34.389,vts_reward_expectancy_bt,2022.2.4,Win32,60.06727535,Chrome,1368,912,,,,,1,930,,,,,,,,,,,,,,,,,S,167,circle,1,1,,,,,,,,,,,,,,,,switch,letter,lettSwt,f,0.8269,Lo,,,,,,2,,,,,,,,high,17,0,17,0,1,,,,,,,,,
295483,2022-12-06_18h16.34.389,vts_reward_expectancy_bt,2022.2.4,Win32,60.06727535,Chrome,1368,912,,,,,0,930,,,,,,,,,,,,,,,,,Y,146,star,0,0,,,,,,,,,,,,,,,,switch,number,NA,k,1.1991,Lo,,,,,,2,,,,,,,,high,18,0,18,0,1,,,,,,,,,
295483,2022-12-06_18h16.34.389,vts_reward_expectancy_bt,2022.2.4,Win32,60.06727535,Chrome,1368,912,,,,,1,931,,,,,,,,,,,,,,,,,W,181,hexagon,1,1,,,,,,,,,,,,,,,,switch,letter,lettSwt,f,0.6104,Lo,,,,,,2,,,,,,,,high,19,0,19,0,1,,,,,,,,,
295483,2022-12-06_18h16.34.389,vts_reward_expectancy_bt,2022.2.4,Win32,60.06727535,Chrome,1368,912,,,,,10,941,,,,,,,,,,,,,,,,,U,160,circle,1,0,,,,,,,,,,,,,,,,switch,number,numSwt,k,0.6418,Lo,,,,,,2,,,,,,,,high,20,0,20,0,1,,,,,,,,,
295483,2022-12-06_18h16.34.389,vts_reward_expectancy_bt,2022.2.4,Win32,60.06727535,Chrome,1368,912,,,,,0,941,,,,,,,,,,,,,,,,,D,125,star,1,0,,,,,,,,,,,,,,,,switch,letter,lettSwt,d,0.9522,Hi,,,,,,2,,,,,,,,high,21,0,21,0,1,,,,,,,,,
295483,2022-12-06_18h16.34.389,vts_reward_expectancy_bt,2022.2.4,Win32,60.06727535,Chrome,1368,912,,,,,10,951,,,,,,,,,,,,,,,,,F,139,triangle,1,0,,,,,,,,,,,,,,,,repeat,letter,lettRpt,d,0.8661,Hi,,,,,,2,,,,,,,,high,22,0,22,0,1,,,,,,,,,
295483,2022-12-06_18h16.34.389,vts_reward_expectancy_bt,2022.2.4,Win32,60.06727535,Chrome,1368,912,,,,,1,952,,,,,,,,,,,,,,,,,B,174,hexagon,1,0,,,,,,,,,,,,,,,,repeat,letter,lettRpt,d,0.7665,Lo,,,,,,2,,,,,,,,high,23,0,23,0,1,,,,,,,,,
295483,2022-12-06_18h16.34.389,vts_reward_expectancy_bt,2022.2.4,Win32,60.06727535,Chrome,1368,912,,,,,0,952,,,,,,,,,,,,,,,,,S,132,triangle,1,0,,,,,,,,,,,,,,,,switch,number,numSwt,j,0.9003,Hi,,,,,,2,,,,,,,,high,24,0,24,0,1,,,,,,,,,
295483,2022-12-06_18h16.34.389,vts_reward_expectancy_bt,2022.2.4,Win32,60.06727535,Chrome,1368,912,,,,,1,953,,,,,,,,,,,,,,,,,H,174,hexagon,1,0,,,,,,,,,,,,,,,,switch,letter,lettSwt,d,0.8489,Lo,,,,,,2,,,,,,,,high,25,0,25,0,1,,,,,,,,,
295483,2022-12-06_18h16.34.389,vts_reward_expectancy_bt,2022.2.4,Win32,60.06727535,Chrome,1368,912,,,,,0,953,,,,,,,,,,,,,,,,,U,167,star,1,0,,,,,,,,,,,,,,,,repeat,letter,lettRpt,f,1.0787,Hi,,,,,,2,,,,,,,,high,26,0,26,0,1,,,,,,,,,
295483,2022-12-06_18h16.34.389,vts_reward_expectancy_bt,2022.2.4,Win32,60.06727535,Chrome,1368,912,,,,,1,954,,,,,,,,,,,,,,,,,Y,139,circle,1,0,,,,,,,,,,,,,,,,repeat,letter,lettRpt,f,0.6443,Lo,,,,,,2,,,,,,,,high,27,0,27,0,1,,,,,,,,,
295483,2022-12-06_18h16.34.389,vts_reward_expectancy_bt,2022.2.4,Win32,60.06727535,Chrome,1368,912,,,,,0,954,,,,,,,,,,,,,,,,,W,146,triangle,1,0,,,,,,,,,,,,,,,,repeat,letter,lettRpt,f,1.4836,Hi,,,,,,2,,,,,,,,high,28,0,28,0,1,,,,,,,,,
295483,2022-12-06_18h16.34.389,vts_reward_expectancy_bt,2022.2.4,Win32,60.06727535,Chrome,1368,912,,,,,1,955,,,,,,,,,,,,,,,,,D,160,circle,1,0,,,,,,,,,,,,,,,,switch,number,numSwt,k,0.8839,Lo,,,,,,2,,,,,,,,high,29,0,29,0,1,,,,,,,,,
295483,2022-12-06_18h16.34.389,vts_reward_expectancy_bt,2022.2.4,Win32,60.06727535,Chrome,1368,912,,,,,10,965,,,,,,,,,,,,,,,,,B,181,hexagon,1,0,,,,,,,,,,,,,,,,switch,letter,lettSwt,d,0.6973,Lo,,,,,,2,,,,,,,,high,30,0,30,0,1,,,,,,,,,
295483,2022-12-06_18h16.34.389,vts_reward_expectancy_bt,2022.2.4,Win32,60.06727535,Chrome,1368,912,,,,,0,965,,,,,,,,,,,,,,,,,F,125,star,1,0,,,,,,,,,,,,,,,,repeat,letter,lettRpt,d,1.1667,Hi,,,,,,2,,,,,,,,high,31,0,31,0,1,,,,,,,,,
295483,2022-12-06_18h16.34.389,vts_reward_expectancy_bt,2022.2.4,Win32,60.06727535,Chrome,1368,912,,,,,1,966,,,,,,,,,,,,,,,,,B,125,hexagon,1,0,,,,,,,,,,,,,,,,repeat,letter,lettRpt,d,0.7019,Lo,,,,,,3,,,,,,space,5.0458,high,0,0,0,0,1,,,,,,,,,
295483,2022-12-06_18h16.34.389,vts_reward_expectancy_bt,2022.2.4,Win32,60.06727535,Chrome,1368,912,,,,,1,967,,,,,,,,,,,,,,,,,Y,146,circle,1,0,,,,,,,,,,,,,,,,switch,number,numSwt,j,0.9179,Lo,,,,,,3,,,,,,,,high,1,0,1,0,1,,,,,,,,,
295483,2022-12-06_18h16.34.389,vts_reward_expectancy_bt,2022.2.4,Win32,60.06727535,Chrome,1368,912,,,,,0,967,,,,,,,,,,,,,,,,,W,181,star,1,0,,,,,,,,,,,,,,,,repeat,number,numRpt,k,0.7013,Hi,,,,,,3,,,,,,,,high,2,0,2,0,1,,,,,,,,,
295483,2022-12-06_18h16.34.389,vts_reward_expectancy_bt,2022.2.4,Win32,60.06727535,Chrome,1368,912,,,,,0,967,,,,,,,,,,,,,,,,,S,139,triangle,1,0,,,,,,,,,,,,,,,,switch,letter,lettSwt,f,0.8503,Hi,,,,,,3,,,,,,,,high,3,0,3,0,1,,,,,,,,,
295483,2022-12-06_18h16.34.389,vts_reward_expectancy_bt,2022.2.4,Win32,60.06727535,Chrome,1368,912,,,,,1,968,,,,,,,,,,,,,,,,,D,160,hexagon,1,0,,,,,,,,,,,,,,,,repeat,letter,lettRpt,d,0.7463,Lo,,,,,,3,,,,,,,,high,4,0,4,0,1,,,,,,,,,
295483,2022-12-06_18h16.34.389,vts_reward_expectancy_bt,2022.2.4,Win32,60.06727535,Chrome,1368,912,,,,,1,969,,,,,,,,,,,,,,,,,F,174,circle,1,0,,,,,,,,,,,,,,,,repeat,letter,lettRpt,d,0.7777,Lo,,,,,,3,,,,,,,,high,5,0,5,0,1,,,,,,,,,
295483,2022-12-06_18h16.34.389,vts_reward_expectancy_bt,2022.2.4,Win32,60.06727535,Chrome,1368,912,,,,,10,979,,,,,,,,,,,,,,,,,U,132,star,1,0,,,,,,,,,,,,,,,,switch,number,numSwt,j,0.4588,Hi,,,,,,3,,,,,,,,high,6,0,6,0,1,,,,,,,,,
295483,2022-12-06_18h16.34.389,vts_reward_expectancy_bt,2022.2.4,Win32,60.06727535,Chrome,1368,912,,,,,1,980,,,,,,,,,,,,,,,,,H,167,triangle,1,0,,,,,,,,,,,,,,,,switch,letter,lettSwt,d,0.6682,Hi,,,,,,3,,,,,,,,high,7,0,7,0,1,,,,,,,,,
295483,2022-12-06_18h16.34.389,vts_reward_expectancy_bt,2022.2.4,Win32,60.06727535,Chrome,1368,912,,,,,10,990,,,,,,,,,,,,,,,,,B,125,circle,1,0,,,,,,,,,,,,,,,,repeat,letter,lettRpt,d,0.7256,Lo,,,,,,3,,,,,,,,high,8,0,8,0,1,,,,,,,,,
295483,2022-12-06_18h16.34.389,vts_reward_expectancy_bt,2022.2.4,Win32,60.06727535,Chrome,1368,912,,,,,10,1000,,,,,,,,,,,,,,,,,Y,146,triangle,1,0,,,,,,,,,,,,,,,,repeat,letter,lettRpt,f,0.6776,Hi,,,,,,3,,,,,,,,high,9,0,9,0,1,,,,,,,,,
295483,2022-12-06_18h16.34.389,vts_reward_expectancy_bt,2022.2.4,Win32,60.06727535,Chrome,1368,912,,,,,10,1010,,,,,,,,,,,,,,,,,W,181,star,1,0,,,,,,,,,,,,,,,,switch,number,numSwt,k,0.5015,Hi,,,,,,3,,,,,,,,high,10,0,10,0,1,,,,,,,,,
295483,2022-12-06_18h16.34.389,vts_reward_expectancy_bt,2022.2.4,Win32,60.06727535,Chrome,1368,912,,,,,0,1010,,,,,,,,,,,,,,,,,S,139,hexagon,0,0,,,,,,,,,,,,,,,,switch,letter,NA,d,0.8189,Hi,,,,,,3,,,,,,,,high,11,0,11,0,1,,,,,,,,,
295483,2022-12-06_18h16.34.389,vts_reward_expectancy_bt,2022.2.4,Win32,60.06727535,Chrome,1368,912,,,,,10,1020,,,,,,,,,,,,,,,,,D,160,triangle,1,1,,,,,,,,,,,,,,,,repeat,letter,lettRpt,d,0.7178,Hi,,,,,,3,,,,,,,,high,12,0,12,0,1,,,,,,,,,
295483,2022-12-06_18h16.34.389,vts_reward_expectancy_bt,2022.2.4,Win32,60.06727535,Chrome,1368,912,,,,,10,1030,,,,,,,,,,,,,,,,,F,174,star,1,0,,,,,,,,,,,,,,,,repeat,letter,lettRpt,d,0.7372,Hi,,,,,,3,,,,,,,,high,13,0,13,0,1,,,,,,,,,
295483,2022-12-06_18h16.34.389,vts_reward_expectancy_bt,2022.2.4,Win32,60.06727535,Chrome,1368,912,,,,,1,1031,,,,,,,,,,,,,,,,,U,132,circle,1,0,,,,,,,,,,,,,,,,repeat,letter,lettRpt,f,0.7508,Lo,,,,,,3,,,,,,,,high,14,0,14,0,1,,,,,,,,,
295483,2022-12-06_18h16.34.389,vts_reward_expectancy_bt,2022.2.4,Win32,60.06727535,Chrome,1368,912,,,,,1,1032,,,,,,,,,,,,,,,,,H,167,hexagon,1,0,,,,,,,,,,,,,,,,repeat,letter,lettRpt,d,1.0417,Lo,,,,,,3,,,,,,,,high,15,0,15,0,1,,,,,,,,,
295483,2022-12-06_18h16.34.389,vts_reward_expectancy_bt,2022.2.4,Win32,60.06727535,Chrome,1368,912,,,,,0,1032,,,,,,,,,,,,,,,,,D,132,triangle,1,0,,,,,,,,,,,,,,,,repeat,letter,lettRpt,d,1.0507,Hi,,,,,,3,,,,,,,,high,16,0,16,0,1,,,,,,,,,
295483,2022-12-06_18h16.34.389,vts_reward_expectancy_bt,2022.2.4,Win32,60.06727535,Chrome,1368,912,,,,,1,1033,,,,,,,,,,,,,,,,,S,181,circle,1,0,,,,,,,,,,,,,,,,repeat,letter,lettRpt,f,0.8855,Lo,,,,,,3,,,,,,,,high,17,0,17,0,1,,,,,,,,,
295483,2022-12-06_18h16.34.389,vts_reward_expectancy_bt,2022.2.4,Win32,60.06727535,Chrome,1368,912,,,,,10,1043,,,,,,,,,,,,,,,,,W,160,hexagon,1,0,,,,,,,,,,,,,,,,repeat,letter,lettRpt,f,0.784,Lo,,,,,,3,,,,,,,,high,18,0,18,0,1,,,,,,,,,
295483,2022-12-06_18h16.34.389,vts_reward_expectancy_bt,2022.2.4,Win32,60.06727535,Chrome,1368,912,,,,,0,1043,,,,,,,,,,,,,,,,,Y,139,star,1,0,,,,,,,,,,,,,,,,repeat,letter,lettRpt,f,1.5189,Hi,,,,,,3,,,,,,,,high,19,0,19,0,1,,,,,,,,,
295483,2022-12-06_18h16.34.389,vts_reward_expectancy_bt,2022.2.4,Win32,60.06727535,Chrome,1368,912,,,,,0,1043,,,,,,,,,,,,,,,,,F,125,star,1,0,,,,,,,,,,,,,,,,repeat,letter,lettRpt,d,0.95,Hi,,,,,,3,,,,,,,,high,20,0,20,0,1,,,,,,,,,
295483,2022-12-06_18h16.34.389,vts_reward_expectancy_bt,2022.2.4,Win32,60.06727535,Chrome,1368,912,,,,,10,1053,,,,,,,,,,,,,,,,,H,167,circle,1,0,,,,,,,,,,,,,,,,repeat,letter,lettRpt,d,0.735,Lo,,,,,,3,,,,,,,,high,21,0,21,0,1,,,,,,,,,
295483,2022-12-06_18h16.34.389,vts_reward_expectancy_bt,2022.2.4,Win32,60.06727535,Chrome,1368,912,,,,,1,1054,,,,,,,,,,,,,,,,,B,146,hexagon,1,0,,,,,,,,,,,,,,,,switch,number,numSwt,j,0.8509,Lo,,,,,,3,,,,,,,,high,22,0,22,0,1,,,,,,,,,
295483,2022-12-06_18h16.34.389,vts_reward_expectancy_bt,2022.2.4,Win32,60.06727535,Chrome,1368,912,,,,,0,1054,,,,,,,,,,,,,,,,,U,174,triangle,1,0,,,,,,,,,,,,,,,,switch,letter,lettSwt,f,0.9198,Hi,,,,,,3,,,,,,,,high,23,0,23,0,1,,,,,,,,,
295483,2022-12-06_18h16.34.389,vts_reward_expectancy_bt,2022.2.4,Win32,60.06727535,Chrome,1368,912,,,,,1,1055,,,,,,,,,,,,,,,,,U,132,hexagon,1,0,,,,,,,,,,,,,,,,repeat,letter,lettRpt,f,0.6675,Lo,,,,,,3,,,,,,,,high,24,0,24,0,1,,,,,,,,,
295483,2022-12-06_18h16.34.389,vts_reward_expectancy_bt,2022.2.4,Win32,60.06727535,Chrome,1368,912,,,,,0,1055,,,,,,,,,,,,,,,,,H,174,circle,0,0,,,,,,,,,,,,,,,,switch,number,NA,j,0.8962,Lo,,,,,,3,,,,,,,,high,25,0,25,0,1,,,,,,,,,
295483,2022-12-06_18h16.34.389,vts_reward_expectancy_bt,2022.2.4,Win32,60.06727535,Chrome,1368,912,,,,,0,1055,,,,,,,,,,,,,,,,,Y,125,star,1,1,,,,,,,,,,,,,,,,repeat,number,numRpt,j,0.7505,Hi,,,,,,3,,,,,,,,high,26,0,26,0,1,,,,,,,,,
295483,2022-12-06_18h16.34.389,vts_reward_expectancy_bt,2022.2.4,Win32,60.06727535,Chrome,1368,912,,,,,0,1055,,,,,,,,,,,,,,,,,S,160,triangle,1,0,,,,,,,,,,,,,,,,repeat,number,numRpt,k,0.7002,Hi,,,,,,3,,,,,,,,high,27,0,27,0,1,,,,,,,,,
295483,2022-12-06_18h16.34.389,vts_reward_expectancy_bt,2022.2.4,Win32,60.06727535,Chrome,1368,912,,,,,1,1056,,,,,,,,,,,,,,,,,D,146,hexagon,1,0,,,,,,,,,,,,,,,,repeat,number,numRpt,j,0.9699,Lo,,,,,,3,,,,,,,,high,28,0,28,0,1,,,,,,,,,
295483,2022-12-06_18h16.34.389,vts_reward_expectancy_bt,2022.2.4,Win32,60.06727535,Chrome,1368,912,,,,,1,1057,,,,,,,,,,,,,,,,,F,181,circle,1,0,,,,,,,,,,,,,,,,switch,letter,lettSwt,d,0.7497,Lo,,,,,,3,,,,,,,,high,29,0,29,0,1,,,,,,,,,
295483,2022-12-06_18h16.34.389,vts_reward_expectancy_bt,2022.2.4,Win32,60.06727535,Chrome,1368,912,,,,,0,1057,,,,,,,,,,,,,,,,,B,167,triangle,1,0,,,,,,,,,,,,,,,,switch,number,numSwt,k,0.699,Hi,,,,,,3,,,,,,,,high,30,0,30,0,1,,,,,,,,,
295483,2022-12-06_18h16.34.389,vts_reward_expectancy_bt,2022.2.4,Win32,60.06727535,Chrome,1368,912,,,,,0,1057,,,,,,,,,,,,,,,,,W,139,star,1,0,,,,,,,,,,,,,,,,repeat,number,numRpt,j,0.6778,Hi,,,,,,3,,,,,,,,high,31,0,31,0,1,,,,,,,,,
295483,2022-12-06_18h16.34.389,vts_reward_expectancy_bt,2022.2.4,Win32,60.06727535,Chrome,1368,912,,,,,1,1058,,,,,,,,,,,,,,,,,F,181,circle,1,0,,,,,,,,,,,,,,,,switch,letter,lettSwt,d,0.7148,Lo,,,,,,4,,,,,,space,0.9998,high,0,0,0,0,1,,,,,,,,,
295483,2022-12-06_18h16.34.389,vts_reward_expectancy_bt,2022.2.4,Win32,60.06727535,Chrome,1368,912,,,,,0,1058,,,,,,,,,,,,,,,,,D,125,star,0,0,,,,,,,,,,,,,,,,switch,number,NA,k,0.498,Lo,,,,,,4,,,,,,,,high,1,0,1,0,1,,,,,,,,,
295483,2022-12-06_18h16.34.389,vts_reward_expectancy_bt,2022.2.4,Win32,60.06727535,Chrome,1368,912,,,,,0,1058,,,,,,,,,,,,,,,,,S,167,triangle,1,1,,,,,,,,,,,,,,,,switch,letter,lettSwt,f,0.7824,Hi,,,,,,4,,,,,,,,high,2,0,2,0,1,,,,,,,,,
295483,2022-12-06_18h16.34.389,vts_reward_expectancy_bt,2022.2.4,Win32,60.06727535,Chrome,1368,912,,,,,1,1059,,,,,,,,,,,,,,,,,H,139,hexagon,1,0,,,,,,,,,,,,,,,,repeat,letter,lettRpt,d,0.5994,Lo,,,,,,4,,,,,,,,high,3,0,3,0,1,,,,,,,,,
295483,2022-12-06_18h16.34.389,vts_reward_expectancy_bt,2022.2.4,Win32,60.06727535,Chrome,1368,912,,,,,1,1060,,,,,,,,,,,,,,,,,Y,146,circle,1,0,,,,,,,,,,,,,,,,repeat,letter,lettRpt,f,0.9801,Lo,,,,,,4,,,,,,,,high,4,0,4,0,1,,,,,,,,,
295483,2022-12-06_18h16.34.389,vts_reward_expectancy_bt,2022.2.4,Win32,60.06727535,Chrome,1368,912,,,,,0,1060,,,,,,,,,,,,,,,,,U,160,star,1,0,,,,,,,,,,,,,,,,switch,number,numSwt,k,0.601,Hi,,,,,,4,,,,,,,,high,5,0,5,0,1,,,,,,,,,
295483,2022-12-06_18h16.34.389,vts_reward_expectancy_bt,2022.2.4,Win32,60.06727535,Chrome,1368,912,,,,,10,1070,,,,,,,,,,,,,,,,,W,174,triangle,1,0,,,,,,,,,,,,,,,,repeat,number,numRpt,k,0.4702,Hi,,,,,,4,,,,,,,,high,6,0,6,0,1,,,,,,,,,
295483,2022-12-06_18h16.34.389,vts_reward_expectancy_bt,2022.2.4,Win32,60.06727535,Chrome,1368,912,,,,,1,1071,,,,,,,,,,,,,,,,,B,132,hexagon,1,0,,,,,,,,,,,,,,,,switch,letter,lettSwt,d,0.5174,Lo,,,,,,4,,,,,,,,high,7,0,7,0,1,,,,,,,,,
295483,2022-12-06_18h16.34.389,vts_reward_expectancy_bt,2022.2.4,Win32,60.06727535,Chrome,1368,912,,,,,10,1081,,,,,,,,,,,,,,,,,F,181,circle,1,0,,,,,,,,,,,,,,,,switch,number,numSwt,k,0.5492,Lo,,,,,,4,,,,,,,,high,8,0,8,0,1,,,,,,,,,
295483,2022-12-06_18h16.34.389,vts_reward_expectancy_bt,2022.2.4,Win32,60.06727535,Chrome,1368,912,,,,,0,1081,,,,,,,,,,,,,,,,,D,125,triangle,1,0,,,,,,,,,,,,,,,,repeat,number,numRpt,j,0.7698,Hi,,,,,,4,,,,,,,,high,9,0,9,0,1,,,,,,,,,
295483,2022-12-06_18h16.34.389,vts_reward_expectancy_bt,2022.2.4,Win32,60.06727535,Chrome,1368,912,,,,,1,1082,,,,,,,,,,,,,,,,,S,167,star,1,0,,,,,,,,,,,,,,,,repeat,number,numRpt,k,0.4594,Hi,,,,,,4,,,,,,,,high,10,0,10,0,1,,,,,,,,,
295483,2022-12-06_18h16.34.389,vts_reward_expectancy_bt,2022.2.4,Win32,60.06727535,Chrome,1368,912,,,,,1,1083,,,,,,,,,,,,,,,,,H,139,hexagon,1,0,,,,,,,,,,,,,,,,switch,letter,lettSwt,d,0.6188,Lo,,,,,,4,,,,,,,,high,11,0,11,0,1,,,,,,,,,
295483,2022-12-06_18h16.34.389,vts_reward_expectancy_bt,2022.2.4,Win32,60.06727535,Chrome,1368,912,,,,,1,1084,,,,,,,,,,,,,,,,,Y,146,hexagon,1,0,,,,,,,,,,,,,,,,repeat,letter,lettRpt,f,0.7333,Lo,,,,,,4,,,,,,,,high,12,0,12,0,1,,,,,,,,,
295483,2022-12-06_18h16.34.389,vts_reward_expectancy_bt,2022.2.4,Win32,60.06727535,Chrome,1368,912,,,,,0,1084,,,,,,,,,,,,,,,,,U,160,circle,0,0,,,,,,,,,,,,,,,,repeat,letter,NA,d,0.6145,Lo,,,,,,4,,,,,,,,high,13,0,13,0,1,,,,,,,,,
295483,2022-12-06_18h16.34.389,vts_reward_expectancy_bt,2022.2.4,Win32,60.06727535,Chrome,1368,912,,,,,10,1094,,,,,,,,,,,,,,,,,W,174,star,1,1,,,,,,,,,,,,,,,,switch,number,numSwt,k,0.3765,Hi,,,,,,4,,,,,,,,high,14,0,14,0,1,,,,,,,,,
295483,2022-12-06_18h16.34.389,vts_reward_expectancy_bt,2022.2.4,Win32,60.06727535,Chrome,1368,912,,,,,0,1094,,,,,,,,,,,,,,,,,B,132,triangle,1,0,,,,,,,,,,,,,,,,switch,letter,lettSwt,d,1.0178,Hi,,,,,,4,,,,,,,,high,15,0,15,0,1,,,,,,,,,
295483,2022-12-06_18h16.34.389,vts_reward_expectancy_bt,2022.2.4,Win32,60.06727535,Chrome,1368,912,,,,,10,1104,,,,,,,,,,,,,,,,,D,160,hexagon,1,0,,,,,,,,,,,,,,,,switch,number,numSwt,k,0.5339,Lo,,,,,,4,,,,,,,,high,16,0,16,0,1,,,,,,,,,
295483,2022-12-06_18h16.34.389,vts_reward_expectancy_bt,2022.2.4,Win32,60.06727535,Chrome,1368,912,,,,,10,1114,,,,,,,,,,,,,,,,,F,139,circle,1,0,,,,,,,,,,,,,,,,switch,letter,lettSwt,d,0.8934,Lo,,,,,,4,,,,,,,,high,17,0,17,0,1,,,,,,,,,
295483,2022-12-06_18h16.34.389,vts_reward_expectancy_bt,2022.2.4,Win32,60.06727535,Chrome,1368,912,,,,,0,1114,,,,,,,,,,,,,,,,,U,181,triangle,1,0,,,,,,,,,,,,,,,,switch,number,numSwt,k,0.6175,Hi,,,,,,4,,,,,,,,high,18,0,18,0,1,,,,,,,,,
295483,2022-12-06_18h16.34.389,vts_reward_expectancy_bt,2022.2.4,Win32,60.06727535,Chrome,1368,912,,,,,10,1124,,,,,,,,,,,,,,,,,Y,174,star,1,0,,,,,,,,,,,,,,,,repeat,number,numRpt,k,0.395,Hi,,,,,,4,,,,,,,,high,19,0,19,0,1,,,,,,,,,
295483,2022-12-06_18h16.34.389,vts_reward_expectancy_bt,2022.2.4,Win32,60.06727535,Chrome,1368,912,,,,,10,1134,,,,,,,,,,,,,,,,,B,132,triangle,1,0,,,,,,,,,,,,,,,,repeat,number,numRpt,j,0.7005,Hi,,,,,,4,,,,,,,,high,20,0,20,0,1,,,,,,,,,
295483,2022-12-06_18h16.34.389,vts_reward_expectancy_bt,2022.2.4,Win32,60.06727535,Chrome,1368,912,,,,,10,1144,,,,,,,,,,,,,,,,,W,125,hexagon,1,0,,,,,,,,,,,,,,,,switch,letter,lettSwt,f,0.544,Lo,,,,,,4,,,,,,,,high,21,0,21,0,1,,,,,,,,,
295483,2022-12-06_18h16.34.389,vts_reward_expectancy_bt,2022.2.4,Win32,60.06727535,Chrome,1368,912,,,,,0,1144,,,,,,,,,,,,,,,,,S,146,circle,0,0,,,,,,,,,,,,,,,,repeat,letter,NA,d,0.6775,Lo,,,,,,4,,,,,,,,high,22,0,22,0,1,,,,,,,,,
295483,2022-12-06_18h16.34.389,vts_reward_expectancy_bt,2022.2.4,Win32,60.06727535,Chrome,1368,912,,,,,0,1144,,,,,,,,,,,,,,,,,H,167,star,0,1,,,,,,,,,,,,,,,,repeat,letter,NA,f,0.6985,Lo,,,,,,4,,,,,,,,high,23,0,23,0,1,,,,,,,,,
295483,2022-12-06_18h16.34.389,vts_reward_expectancy_bt,2022.2.4,Win32,60.06727535,Chrome,1368,912,,,,,10,1154,,,,,,,,,,,,,,,,,S,125,star,1,1,,,,,,,,,,,,,,,,switch,number,numSwt,j,0.5327,Hi,,,,,,4,,,,,,,,high,24,0,24,0,1,,,,,,,,,
295483,2022-12-06_18h16.34.389,vts_reward_expectancy_bt,2022.2.4,Win32,60.06727535,Chrome,1368,912,,,,,0,1154,,,,,,,,,,,,,,,,,D,167,triangle,0,0,,,,,,,,,,,,,,,,switch,letter,NA,f,0.7671,Hi,,,,,,4,,,,,,,,high,25,0,25,0,1,,,,,,,,,
295483,2022-12-06_18h16.34.389,vts_reward_expectancy_bt,2022.2.4,Win32,60.06727535,Chrome,1368,912,,,,,1,1155,,,,,,,,,,,,,,,,,F,146,circle,1,1,,,,,,,,,,,,,,,,switch,number,numSwt,j,0.8496,Lo,,,,,,4,,,,,,,,high,26,0,26,0,1,,,,,,,,,
295483,2022-12-06_18h16.34.389,vts_reward_expectancy_bt,2022.2.4,Win32,60.06727535,Chrome,1368,912,,,,,0,1155,,,,,,,,,,,,,,,,,W,132,hexagon,0,0,,,,,,,,,,,,,,,,repeat,number,NA,k,0.4984,Lo,,,,,,4,,,,,,,,high,27,0,27,0,1,,,,,,,,,
295483,2022-12-06_18h16.34.389,vts_reward_expectancy_bt,2022.2.4,Win32,60.06727535,Chrome,1368,912,,,,,0,1155,,,,,,,,,,,,,,,,,B,181,triangle,1,1,,,,,,,,,,,,,,,,switch,letter,lettSwt,d,0.8323,Hi,,,,,,4,,,,,,,,high,28,0,28,0,1,,,,,,,,,
295483,2022-12-06_18h16.34.389,vts_reward_expectancy_bt,2022.2.4,Win32,60.06727535,Chrome,1368,912,,,,,1,1156,,,,,,,,,,,,,,,,,Y,160,hexagon,1,0,,,,,,,,,,,,,,,,repeat,letter,lettRpt,f,0.7117,Lo,,,,,,4,,,,,,,,high,29,0,29,0,1,,,,,,,,,
295483,2022-12-06_18h16.34.389,vts_reward_expectancy_bt,2022.2.4,Win32,60.06727535,Chrome,1368,912,,,,,1,1157,,,,,,,,,,,,,,,,,U,139,circle,1,0,,,,,,,,,,,,,,,,switch,number,numSwt,j,0.4513,Lo,,,,,,4,,,,,,,,high,30,0,30,0,1,,,,,,,,,
295483,2022-12-06_18h16.34.389,vts_reward_expectancy_bt,2022.2.4,Win32,60.06727535,Chrome,1368,912,,,,,10,1167,,,,,,,,,,,,,,,,,H,174,star,1,0,,,,,,,,,,,,,,,,repeat,number,numRpt,k,0.5348,Hi,,,,,,4,,,,,,,,high,31,0,31,0,1,,,,,,,,,
295483,2022-12-06_18h16.34.389,vts_reward_expectancy_bt,2022.2.4,Win32,60.06727535,Chrome,1368,912,,,,,1,1168,,,,,,,,,,,,,,,,,S,132,circle,1,0,,,,,,,,,,,,,,,,repeat,number,numRpt,j,0.9656,Lo,,,,,,5,,,,,,space,0.5835,high,0,0,0,0,1,,,,,,,,,
295483,2022-12-06_18h16.34.389,vts_reward_expectancy_bt,2022.2.4,Win32,60.06727535,Chrome,1368,912,,,,,0,1168,,,,,,,,,,,,,,,,,H,167,triangle,1,0,,,,,,,,,,,,,,,,switch,letter,lettSwt,d,0.6489,Hi,,,,,,5,,,,,,,,high,1,0,1,0,1,,,,,,,,,
295483,2022-12-06_18h16.34.389,vts_reward_expectancy_bt,2022.2.4,Win32,60.06727535,Chrome,1368,912,,,,,10,1178,,,,,,,,,,,,,,,,,Y,146,star,1,0,,,,,,,,,,,,,,,,repeat,letter,lettRpt,f,0.709,Hi,,,,,,5,,,,,,,,high,2,0,2,0,1,,,,,,,,,
295483,2022-12-06_18h16.34.389,vts_reward_expectancy_bt,2022.2.4,Win32,60.06727535,Chrome,1368,912,,,,,10,1188,,,,,,,,,,,,,,,,,D,174,hexagon,1,0,,,,,,,,,,,,,,,,switch,number,numSwt,k,0.5095,Lo,,,,,,5,,,,,,,,high,3,0,3,0,1,,,,,,,,,
295483,2022-12-06_18h16.34.389,vts_reward_expectancy_bt,2022.2.4,Win32,60.06727535,Chrome,1368,912,,,,,1,1189,,,,,,,,,,,,,,,,,U,181,circle,1,0,,,,,,,,,,,,,,,,switch,letter,lettSwt,f,0.5932,Lo,,,,,,5,,,,,,,,high,4,0,4,0,1,,,,,,,,,
295483,2022-12-06_18h16.34.389,vts_reward_expectancy_bt,2022.2.4,Win32,60.06727535,Chrome,1368,912,,,,,0,1189,,,,,,,,,,,,,,,,,B,125,triangle,1,0,,,,,,,,,,,,,,,,repeat,letter,lettRpt,d,0.9257,Hi,,,,,,5,,,,,,,,high,5,0,5,0,1,,,,,,,,,
295483,2022-12-06_18h16.34.389,vts_reward_expectancy_bt,2022.2.4,Win32,60.06727535,Chrome,1368,912,,,,,10,1199,,,,,,,,,,,,,,,,,W,160,star,1,0,,,,,,,,,,,,,,,,repeat,letter,lettRpt,f,0.6919,Hi,,,,,,5,,,,,,,,high,6,0,6,0,1,,,,,,,,,
295483,2022-12-06_18h16.34.389,vts_reward_expectancy_bt,2022.2.4,Win32,60.06727535,Chrome,1368,912,,,,,10,1209,,,,,,,,,,,,,,,,,F,139,hexagon,1,0,,,,,,,,,,,,,,,,repeat,letter,lettRpt,d,0.7614,Lo,,,,,,5,,,,,,,,high,7,0,7,0,1,,,,,,,,,
295483,2022-12-06_18h16.34.389,vts_reward_expectancy_bt,2022.2.4,Win32,60.06727535,Chrome,1368,912,,,,,1,1210,,,,,,,,,,,,,,,,,S,132,circle,1,0,,,,,,,,,,,,,,,,switch,number,numSwt,j,0.5676,Lo,,,,,,5,,,,,,,,high,8,0,8,0,1,,,,,,,,,
295483,2022-12-06_18h16.34.389,vts_reward_expectancy_bt,2022.2.4,Win32,60.06727535,Chrome,1368,912,,,,,1,1211,,,,,,,,,,,,,,,,,H,167,hexagon,1,0,,,,,,,,,,,,,,,,repeat,number,numRpt,k,0.4517,Lo,,,,,,5,,,,,,,,high,9,0,9,0,1,,,,,,,,,
295483,2022-12-06_18h16.34.389,vts_reward_expectancy_bt,2022.2.4,Win32,60.06727535,Chrome,1368,912,,,,,0,1211,,,,,,,,,,,,,,,,,Y,146,triangle,1,0,,,,,,,,,,,,,,,,switch,letter,lettSwt,f,0.855,Hi,,,,,,5,,,,,,,,high,10,0,10,0,1,,,,,,,,,
295483,2022-12-06_18h16.34.389,vts_reward_expectancy_bt,2022.2.4,Win32,60.06727535,Chrome,1368,912,,,,,1,1212,,,,,,,,,,,,,,,,,D,174,star,1,0,,,,,,,,,,,,,,,,repeat,letter,lettRpt,d,0.6852,Hi,,,,,,5,,,,,,,,high,11,0,11,0,1,,,,,,,,,
295483,2022-12-06_18h16.34.389,vts_reward_expectancy_bt,2022.2.4,Win32,60.06727535,Chrome,1368,912,,,,,1,1213,,,,,,,,,,,,,,,,,U,181,hexagon,1,0,,,,,,,,,,,,,,,,repeat,letter,lettRpt,f,0.7982,Lo,,,,,,5,,,,,,,,high,12,0,12,0,1,,,,,,,,,
295483,2022-12-06_18h16.34.389,vts_reward_expectancy_bt,2022.2.4,Win32,60.06727535,Chrome,1368,912,,,,,10,1223,,,,,,,,,,,,,,,,,B,125,star,1,0,,,,,,,,,,,,,,,,switch,number,numSwt,j,0.433,Hi,,,,,,5,,,,,,,,high,13,0,13,0,1,,,,,,,,,
295483,2022-12-06_18h16.34.389,vts_reward_expectancy_bt,2022.2.4,Win32,60.06727535,Chrome,1368,912,,,,,0,1223,,,,,,,,,,,,,,,,,W,160,triangle,1,0,,,,,,,,,,,,,,,,repeat,number,numRpt,k,0.6682,Hi,,,,,,5,,,,,,,,high,14,0,14,0,1,,,,,,,,,
295483,2022-12-06_18h16.34.389,vts_reward_expectancy_bt,2022.2.4,Win32,60.06727535,Chrome,1368,912,,,,,1,1224,,,,,,,,,,,,,,,,,F,139,circle,1,0,,,,,,,,,,,,,,,,repeat,number,numRpt,j,0.799,Lo,,,,,,5,,,,,,,,high,15,0,15,0,1,,,,,,,,,
295483,2022-12-06_18h16.34.389,vts_reward_expectancy_bt,2022.2.4,Win32,60.06727535,Chrome,1368,912,,,,,1,1225,,,,,,,,,,,,,,,,,S,132,hexagon,1,0,,,,,,,,,,,,,,,,repeat,number,numRpt,j,0.6685,Lo,,,,,,5,,,,,,,,high,16,0,16,0,1,,,,,,,,,
295483,2022-12-06_18h16.34.389,vts_reward_expectancy_bt,2022.2.4,Win32,60.06727535,Chrome,1368,912,,,,,1,1226,,,,,,,,,,,,,,,,,U,139,circle,1,0,,,,,,,,,,,,,,,,switch,letter,lettSwt,f,0.6036,Lo,,,,,,5,,,,,,,,high,17,0,17,0,1,,,,,,,,,
295483,2022-12-06_18h16.34.389,vts_reward_expectancy_bt,2022.2.4,Win32,60.06727535,Chrome,1368,912,,,,,0,1226,,,,,,,,,,,,,,,,,B,160,triangle,0,0,,,,,,,,,,,,,,,,repeat,letter,NA,f,0.6005,Lo,,,,,,5,,,,,,,,high,18,0,18,0,1,,,,,,,,,
295483,2022-12-06_18h16.34.389,vts_reward_expectancy_bt,2022.2.4,Win32,60.06727535,Chrome,1368,912,,,,,0,1226,,,,,,,,,,,,,,,,,H,167,star,1,1,,,,,,,,,,,,,,,,repeat,letter,lettRpt,d,0.9843,Hi,,,,,,5,,,,,,,,high,19,0,19,0,1,,,,,,,,,
295483,2022-12-06_18h16.34.389,vts_reward_expectancy_bt,2022.2.4,Win32,60.06727535,Chrome,1368,912,,,,,0,1226,,,,,,,,,,,,,,,,,D,181,star,0,0,,,,,,,,,,,,,,,,repeat,letter,NA,f,0.5928,Hi,,,,,,5,,,,,,,,high,20,0,20,0,1,,,,,,,,,
295483,2022-12-06_18h16.34.389,vts_reward_expectancy_bt,2022.2.4,Win32,60.06727535,Chrome,1368,912,,,,,1,1227,,,,,,,,,,,,,,,,,F,174,circle,1,1,,,,,,,,,,,,,,,,repeat,letter,lettRpt,d,0.6605,Lo,,,,,,5,,,,,,,,high,21,0,21,0,1,,,,,,,,,
295483,2022-12-06_18h16.34.389,vts_reward_expectancy_bt,2022.2.4,Win32,60.06727535,Chrome,1368,912,,,,,10,1237,,,,,,,,,,,,,,,,,Y,146,hexagon,1,0,,,,,,,,,,,,,,,,repeat,letter,lettRpt,f,0.6663,Lo,,,,,,5,,,,,,,,high,22,0,22,0,1,,,,,,,,,
295483,2022-12-06_18h16.34.389,vts_reward_expectancy_bt,2022.2.4,Win32,60.06727535,Chrome,1368,912,,,,,10,1247,,,,,,,,,,,,,,,,,W,125,triangle,1,0,,,,,,,,,,,,,,,,repeat,letter,lettRpt,f,0.6471,Hi,,,,,,5,,,,,,,,high,23,0,23,0,1,,,,,,,,,
295483,2022-12-06_18h16.34.389,vts_reward_expectancy_bt,2022.2.4,Win32,60.06727535,Chrome,1368,912,,,,,1,1248,,,,,,,,,,,,,,,,,S,125,circle,1,0,,,,,,,,,,,,,,,,repeat,letter,lettRpt,f,0.7114,Lo,,,,,,5,,,,,,,,high,24,0,24,0,1,,,,,,,,,
295483,2022-12-06_18h16.34.389,vts_reward_expectancy_bt,2022.2.4,Win32,60.06727535,Chrome,1368,912,,,,,1,1249,,,,,,,,,,,,,,,,,H,139,hexagon,1,0,,,,,,,,,,,,,,,,repeat,letter,lettRpt,d,0.5509,Lo,,,,,,5,,,,,,,,high,25,0,25,0,1,,,,,,,,,
295483,2022-12-06_18h16.34.389,vts_reward_expectancy_bt,2022.2.4,Win32,60.06727535,Chrome,1368,912,,,,,0,1249,,,,,,,,,,,,,,,,,U,174,triangle,1,0,,,,,,,,,,,,,,,,switch,number,numSwt,k,1.0805,Hi,,,,,,5,,,,,,,,high,26,0,26,0,1,,,,,,,,,
295483,2022-12-06_18h16.34.389,vts_reward_expectancy_bt,2022.2.4,Win32,60.06727535,Chrome,1368,912,,,,,0,1249,,,,,,,,,,,,,,,,,F,160,star,1,0,,,,,,,,,,,,,,,,repeat,number,numRpt,k,0.9768,Hi,,,,,,5,,,,,,,,high,27,0,27,0,1,,,,,,,,,
295483,2022-12-06_18h16.34.389,vts_reward_expectancy_bt,2022.2.4,Win32,60.06727535,Chrome,1368,912,,,,,10,1259,,,,,,,,,,,,,,,,,B,146,circle,1,0,,,,,,,,,,,,,,,,switch,letter,lettSwt,d,0.7845,Lo,,,,,,5,,,,,,,,high,28,0,28,0,1,,,,,,,,,
295483,2022-12-06_18h16.34.389,vts_reward_expectancy_bt,2022.2.4,Win32,60.06727535,Chrome,1368,912,,,,,0,1259,,,,,,,,,,,,,,,,,Y,132,star,1,0,,,,,,,,,,,,,,,,repeat,letter,lettRpt,f,0.904,Hi,,,,,,5,,,,,,,,high,29,0,29,0,1,,,,,,,,,
295483,2022-12-06_18h16.34.389,vts_reward_expectancy_bt,2022.2.4,Win32,60.06727535,Chrome,1368,912,,,,,10,1269,,,,,,,,,,,,,,,,,W,181,hexagon,1,0,,,,,,,,,,,,,,,,repeat,letter,lettRpt,f,0.6503,Lo,,,,,,5,,,,,,,,high,30,0,30,0,1,,,,,,,,,
295483,2022-12-06_18h16.34.389,vts_reward_expectancy_bt,2022.2.4,Win32,60.06727535,Chrome,1368,912,,,,,0,1269,,,,,,,,,,,,,,,,,D,167,triangle,1,0,,,,,,,,,,,,,,,,switch,number,numSwt,k,0.7328,Hi,,,,,,5,,,,,,,,high,31,0,31,0,1,,,,,,,,,
295483,2022-12-06_18h16.34.389,vts_reward_expectancy_bt,2022.2.4,Win32,60.06727535,Chrome,1368,912,,,,,10,1279,,,,,,,,,,,,,,,,,S,160,hexagon,1,0,,,,,,,,,,,,,,,,repeat,number,numRpt,k,1.3185,Lo,,,,,,6,,,,,,space,0.7649,high,0,0,0,0,1,,,,,,,,,
295483,2022-12-06_18h16.34.389,vts_reward_expectancy_bt,2022.2.4,Win32,60.06727535,Chrome,1368,912,,,,,1,1280,,,,,,,,,,,,,,,,,D,167,triangle,1,0,,,,,,,,,,,,,,,,repeat,number,numRpt,k,0.5412,Hi,,,,,,6,,,,,,,,high,1,0,1,0,1,,,,,,,,,
295483,2022-12-06_18h16.34.389,vts_reward_expectancy_bt,2022.2.4,Win32,60.06727535,Chrome,1368,912,,,,,1,1281,,,,,,,,,,,,,,,,,Y,174,circle,1,0,,,,,,,,,,,,,,,,switch,letter,lettSwt,f,0.7513,Lo,,,,,,6,,,,,,,,high,2,0,2,0,1,,,,,,,,,
295483,2022-12-06_18h16.34.389,vts_reward_expectancy_bt,2022.2.4,Win32,60.06727535,Chrome,1368,912,,,,,0,1281,,,,,,,,,,,,,,,,,W,125,star,0,0,,,,,,,,,,,,,,,,switch,number,NA,k,0.5839,Lo,,,,,,6,,,,,,,,high,3,0,3,0,1,,,,,,,,,
295483,2022-12-06_18h16.34.389,vts_reward_expectancy_bt,2022.2.4,Win32,60.06727535,Chrome,1368,912,,,,,1,1282,,,,,,,,,,,,,,,,,U,181,hexagon,1,1,,,,,,,,,,,,,,,,repeat,number,numRpt,k,0.5681,Lo,,,,,,6,,,,,,,,high,4,0,4,0,1,,,,,,,,,
295483,2022-12-06_18h16.34.389,vts_reward_expectancy_bt,2022.2.4,Win32,60.06727535,Chrome,1368,912,,,,,0,1282,,,,,,,,,,,,,,,,,F,146,triangle,1,0,,,,,,,,,,,,,,,,switch,letter,lettSwt,d,0.6438,Hi,,,,,,6,,,,,,,,high,5,0,5,0,1,,,,,,,,,
295483,2022-12-06_18h16.34.389,vts_reward_expectancy_bt,2022.2.4,Win32,60.06727535,Chrome,1368,912,,,,,1,1283,,,,,,,,,,,,,,,,,B,132,circle,1,0,,,,,,,,,,,,,,,,repeat,letter,lettRpt,d,0.7615,Lo,,,,,,6,,,,,,,,high,6,0,6,0,1,,,,,,,,,
295483,2022-12-06_18h16.34.389,vts_reward_expectancy_bt,2022.2.4,Win32,60.06727535,Chrome,1368,912,,,,,1,1284,,,,,,,,,,,,,,,,,H,139,star,1,0,,,,,,,,,,,,,,,,repeat,letter,lettRpt,d,0.5772,Hi,,,,,,6,,,,,,,,high,7,0,7,0,1,,,,,,,,,
295483,2022-12-06_18h16.34.389,vts_reward_expectancy_bt,2022.2.4,Win32,60.06727535,Chrome,1368,912,,,,,0,1284,,,,,,,,,,,,,,,,,S,160,star,1,0,,,,,,,,,,,,,,,,switch,number,numSwt,k,0.702,Hi,,,,,,6,,,,,,,,high,8,0,8,0,1,,,,,,,,,
295483,2022-12-06_18h16.34.389,vts_reward_expectancy_bt,2022.2.4,Win32,60.06727535,Chrome,1368,912,,,,,0,1284,,,,,,,,,,,,,,,,,D,167,triangle,1,0,,,,,,,,,,,,,,,,switch,letter,lettSwt,d,0.7873,Hi,,,,,,6,,,,,,,,high,9,0,9,0,1,,,,,,,,,
295483,2022-12-06_18h16.34.389,vts_reward_expectancy_bt,2022.2.4,Win32,60.06727535,Chrome,1368,912,,,,,1,1285,,,,,,,,,,,,,,,,,Y,174,hexagon,1,0,,,,,,,,,,,,,,,,repeat,letter,lettRpt,f,0.6347,Lo,,,,,,6,,,,,,,,high,10,0,10,0,1,,,,,,,,,
295483,2022-12-06_18h16.34.389,vts_reward_expectancy_bt,2022.2.4,Win32,60.06727535,Chrome,1368,912,,,,,1,1286,,,,,,,,,,,,,,,,,W,125,circle,1,0,,,,,,,,,,,,,,,,repeat,letter,lettRpt,f,0.6845,Lo,,,,,,6,,,,,,,,high,11,0,11,0,1,,,,,,,,,
295483,2022-12-06_18h16.34.389,vts_reward_expectancy_bt,2022.2.4,Win32,60.06727535,Chrome,1368,912,,,,,1,1287,,,,,,,,,,,,,,,,,U,181,hexagon,1,0,,,,,,,,,,,,,,,,repeat,letter,lettRpt,f,0.7578,Lo,,,,,,6,,,,,,,,high,12,0,12,0,1,,,,,,,,,
295483,2022-12-06_18h16.34.389,vts_reward_expectancy_bt,2022.2.4,Win32,60.06727535,Chrome,1368,912,,,,,1,1288,,,,,,,,,,,,,,,,,F,146,circle,1,0,,,,,,,,,,,,,,,,repeat,letter,lettRpt,d,0.9345,Lo,,,,,,6,,,,,,,,high,13,0,13,0,1,,,,,,,,,
295483,2022-12-06_18h16.34.389,vts_reward_expectancy_bt,2022.2.4,Win32,60.06727535,Chrome,1368,912,,,,,10,1298,,,,,,,,,,,,,,,,,B,132,star,1,0,,,,,,,,,,,,,,,,repeat,letter,lettRpt,d,0.6168,Hi,,,,,,6,,,,,,,,high,14,0,14,0,1,,,,,,,,,
295483,2022-12-06_18h16.34.389,vts_reward_expectancy_bt,2022.2.4,Win32,60.06727535,Chrome,1368,912,,,,,0,1298,,,,,,,,,,,,,,,,,H,139,triangle,1,0,,,,,,,,,,,,,,,,repeat,letter,lettRpt,d,0.8241,Hi,,,,,,6,,,,,,,,high,15,0,15,0,1,,,,,,,,,
