participant,date,expName,psychopyVersion,OS,frameRate,browser,xResolution,yResolution,key_resp.keys,key_resp.rt,training_resp.keys,training_resp.rt,points_trial,points_cumul,trainBlock,training.thisRepN,training.thisTrialN,training.thisN,training.thisIndex,training.ran,LTriangleOpac,LCircleOpac,LHexagonOpac,LStarOpac,RTriangleOpac,RCircleOpac,RHexagonOpac,RStarOpac,LShape_ID,RShape_ID,curr_topStim,curr_bottStim,curr_shape,acc,E1,target_resp_prac1.keys,target_resp_prac1.rt,pracBlock,task1_prac_trials.thisRepN,task1_prac_trials.thisTrialN,task1_prac_trials.thisN,task1_prac_trials.thisIndex,task1_prac_trials.ran,target_resp_prac2.keys,target_resp_prac2.rt,task2_praac_trials.thisRepN,task2_praac_trials.thisTrialN,task2_praac_trials.thisN,task2_praac_trials.thisIndex,task2_praac_trials.ran,alt,task,condition,target_resp.keys,target_resp.rt,rewCond,vts_practice_trials.thisRepN,vts_practice_trials.thisTrialN,vts_practice_trials.thisN,vts_practice_trials.thisIndex,vts_practice_trials.ran,blockNum,trials_norew.thisRepN,trials_norew.thisTrialN,trials_norew.thisN,trials_norew.thisIndex,trials_norew.ran,key_resp_2.keys,key_resp_2.rt,rewExpectancy,trials_rew.thisRepN,trials_rew.thisTrialN,trials_rew.thisN,trials_rew.thisIndex,trials_rew.ran,Q1,Q2,Q2_text,Q3,Q4,Q5_text,Q5,xRes,yRes
295444,2022-11-30_15h04.52.694,vts_reward_expectancy_bt,2022.2.4,Win32,59.9268892,Chrome,1536,864,,,,,,,,,,,,,,,,,,,,,,,,,,,,,,,,,,,,,,,,,,,,,,,,,,,,,,,,,,,,,,,,,,,,,,,,,,,,
295444,2022-11-30_15h04.52.694,vts_reward_expectancy_bt,2022.2.4,Win32,59.9268892,Chrome,1536,864,space,6.5712,,,,,,,,,,,,,,,,,,,,,,,,,,,,,,,,,,,,,,,,,,,,,,,,,,,,,,,,,,,,,,,,,,,,,,,,,,
295444,2022-11-30_15h04.52.694,vts_reward_expectancy_bt,2022.2.4,Win32,59.9268892,Chrome,1536,864,,,,,,,,,,,,,,,,,,,,,,,,,,,,,,,,,,,,,,,,,,,,,,,,,,,,,,,,,,,,,,,,,,,,,,,,,,,,
295444,2022-11-30_15h04.52.694,vts_reward_expectancy_bt,2022.2.4,Win32,59.9268892,Chrome,1536,864,,,l,1.0454,10,10,0,0,0,0,1,1,1,0,0,0,0,0,1,0,triangle,hexagon,,,,,,,,,,,,,,,,,,,,,,,,,,,,,,,,,,,,,,,,,,,,,,,,,,,,,,
295444,2022-11-30_15h04.52.694,vts_reward_expectancy_bt,2022.2.4,Win32,59.9268892,Chrome,1536,864,,,l,1.3355,10,20,0,0,1,1,2,1,1,0,0,0,0,0,0,1,triangle,star,,,,,,,,,,,,,,,,,,,,,,,,,,,,,,,,,,,,,,,,,,,,,,,,,,,,,,
295444,2022-11-30_15h04.52.694,vts_reward_expectancy_bt,2022.2.4,Win32,59.9268892,Chrome,1536,864,,,a,0.7249,1,21,0,0,2,2,9,1,0,0,0,1,1,0,0,0,star,triangle,,,,,,,,,,,,,,,,,,,,,,,,,,,,,,,,,,,,,,,,,,,,,,,,,,,,,,
295444,2022-11-30_15h04.52.694,vts_reward_expectancy_bt,2022.2.4,Win32,59.9268892,Chrome,1536,864,,,a,0.922,10,31,0,0,3,3,7,1,0,0,1,0,0,1,0,0,hexagon,circle,,,,,,,,,,,,,,,,,,,,,,,,,,,,,,,,,,,,,,,,,,,,,,,,,,,,,,
295444,2022-11-30_15h04.52.694,vts_reward_expectancy_bt,2022.2.4,Win32,59.9268892,Chrome,1536,864,,,a,1.4704,1,32,0,0,4,4,5,1,0,1,0,0,0,0,0,1,circle,star,,,,,,,,,,,,,,,,,,,,,,,,,,,,,,,,,,,,,,,,,,,,,,,,,,,,,,
295444,2022-11-30_15h04.52.694,vts_reward_expectancy_bt,2022.2.4,Win32,59.9268892,Chrome,1536,864,,,a,0.802,10,42,0,0,5,5,6,1,0,0,1,0,1,0,0,0,hexagon,triangle,,,,,,,,,,,,,,,,,,,,,,,,,,,,,,,,,,,,,,,,,,,,,,,,,,,,,,
295444,2022-11-30_15h04.52.694,vts_reward_expectancy_bt,2022.2.4,Win32,59.9268892,Chrome,1536,864,,,l,0.9851,1,43,0,0,6,6,0,1,1,0,0,0,0,1,0,0,triangle,circle,,,,,,,,,,,,,,,,,,,,,,,,,,,,,,,,,,,,,,,,,,,,,,,,,,,,,,
295444,2022-11-30_15h04.52.694,vts_reward_expectancy_bt,2022.2.4,Win32,59.9268892,Chrome,1536,864,,,l,0.8667,10,53,0,0,7,7,8,1,0,0,1,0,0,0,0,1,hexagon,star,,,,,,,,,,,,,,,,,,,,,,,,,,,,,,,,,,,,,,,,,,,,,,,,,,,,,,
295444,2022-11-30_15h04.52.694,vts_reward_expectancy_bt,2022.2.4,Win32,59.9268892,Chrome,1536,864,,,a,1.5112,1,54,0,0,8,8,3,1,0,1,0,0,1,0,0,0,circle,triangle,,,,,,,,,,,,,,,,,,,,,,,,,,,,,,,,,,,,,,,,,,,,,,,,,,,,,,
295444,2022-11-30_15h04.52.694,vts_reward_expectancy_bt,2022.2.4,Win32,59.9268892,Chrome,1536,864,,,l,0.7159,1,55,0,0,9,9,4,1,0,1,0,0,0,0,1,0,circle,hexagon,,,,,,,,,,,,,,,,,,,,,,,,,,,,,,,,,,,,,,,,,,,,,,,,,,,,,,
295444,2022-11-30_15h04.52.694,vts_reward_expectancy_bt,2022.2.4,Win32,59.9268892,Chrome,1536,864,,,l,2.4495,10,65,0,0,10,10,11,1,0,0,0,1,0,0,1,0,star,hexagon,,,,,,,,,,,,,,,,,,,,,,,,,,,,,,,,,,,,,,,,,,,,,,,,,,,,,,
295444,2022-11-30_15h04.52.694,vts_reward_expectancy_bt,2022.2.4,Win32,59.9268892,Chrome,1536,864,,,a,0.9451,10,75,0,0,11,11,10,1,0,0,0,1,0,1,0,0,star ,circle,,,,,,,,,,,,,,,,,,,,,,,,,,,,,,,,,,,,,,,,,,,,,,,,,,,,,,
295444,2022-11-30_15h04.52.694,vts_reward_expectancy_bt,2022.2.4,Win32,59.9268892,Chrome,1536,864,,,l,1.1994,10,85,0,1,0,12,3,1,0,1,0,0,1,0,0,0,circle,triangle,,,,,,,,,,,,,,,,,,,,,,,,,,,,,,,,,,,,,,,,,,,,,,,,,,,,,,
295444,2022-11-30_15h04.52.694,vts_reward_expectancy_bt,2022.2.4,Win32,59.9268892,Chrome,1536,864,,,a,1.0804,10,95,0,1,1,13,9,1,0,0,0,1,1,0,0,0,star,triangle,,,,,,,,,,,,,,,,,,,,,,,,,,,,,,,,,,,,,,,,,,,,,,,,,,,,,,
295444,2022-11-30_15h04.52.694,vts_reward_expectancy_bt,2022.2.4,Win32,59.9268892,Chrome,1536,864,,,l,0.7651,1,96,0,1,2,14,4,1,0,1,0,0,0,0,1,0,circle,hexagon,,,,,,,,,,,,,,,,,,,,,,,,,,,,,,,,,,,,,,,,,,,,,,,,,,,,,,
295444,2022-11-30_15h04.52.694,vts_reward_expectancy_bt,2022.2.4,Win32,59.9268892,Chrome,1536,864,,,a,1.233,10,106,0,1,3,15,0,1,1,0,0,0,0,1,0,0,triangle,circle,,,,,,,,,,,,,,,,,,,,,,,,,,,,,,,,,,,,,,,,,,,,,,,,,,,,,,
295444,2022-11-30_15h04.52.694,vts_reward_expectancy_bt,2022.2.4,Win32,59.9268892,Chrome,1536,864,,,l,1.1132,1,107,0,1,4,16,5,1,0,1,0,0,0,0,0,1,circle,star,,,,,,,,,,,,,,,,,,,,,,,,,,,,,,,,,,,,,,,,,,,,,,,,,,,,,,
295444,2022-11-30_15h04.52.694,vts_reward_expectancy_bt,2022.2.4,Win32,59.9268892,Chrome,1536,864,,,l,2.0746,1,108,0,1,5,17,1,1,1,0,0,0,0,0,1,0,triangle,hexagon,,,,,,,,,,,,,,,,,,,,,,,,,,,,,,,,,,,,,,,,,,,,,,,,,,,,,,
295444,2022-11-30_15h04.52.694,vts_reward_expectancy_bt,2022.2.4,Win32,59.9268892,Chrome,1536,864,,,a,1.134,1,109,0,1,6,18,10,1,0,0,0,1,0,1,0,0,star ,circle,,,,,,,,,,,,,,,,,,,,,,,,,,,,,,,,,,,,,,,,,,,,,,,,,,,,,,
295444,2022-11-30_15h04.52.694,vts_reward_expectancy_bt,2022.2.4,Win32,59.9268892,Chrome,1536,864,,,a,0.9139,1,110,0,1,7,19,7,1,0,0,1,0,0,1,0,0,hexagon,circle,,,,,,,,,,,,,,,,,,,,,,,,,,,,,,,,,,,,,,,,,,,,,,,,,,,,,,
295444,2022-11-30_15h04.52.694,vts_reward_expectancy_bt,2022.2.4,Win32,59.9268892,Chrome,1536,864,,,l,0.9947,1,111,0,1,8,20,2,1,1,0,0,0,0,0,0,1,triangle,star,,,,,,,,,,,,,,,,,,,,,,,,,,,,,,,,,,,,,,,,,,,,,,,,,,,,,,
295444,2022-11-30_15h04.52.694,vts_reward_expectancy_bt,2022.2.4,Win32,59.9268892,Chrome,1536,864,,,a,0.9184,10,121,0,1,9,21,6,1,0,0,1,0,1,0,0,0,hexagon,triangle,,,,,,,,,,,,,,,,,,,,,,,,,,,,,,,,,,,,,,,,,,,,,,,,,,,,,,
295444,2022-11-30_15h04.52.694,vts_reward_expectancy_bt,2022.2.4,Win32,59.9268892,Chrome,1536,864,,,l,0.5367,1,122,0,1,10,22,8,1,0,0,1,0,0,0,0,1,hexagon,star,,,,,,,,,,,,,,,,,,,,,,,,,,,,,,,,,,,,,,,,,,,,,,,,,,,,,,
295444,2022-11-30_15h04.52.694,vts_reward_expectancy_bt,2022.2.4,Win32,59.9268892,Chrome,1536,864,,,a,0.9717,10,132,0,1,11,23,11,1,0,0,0,1,0,0,1,0,star,hexagon,,,,,,,,,,,,,,,,,,,,,,,,,,,,,,,,,,,,,,,,,,,,,,,,,,,,,,
295444,2022-11-30_15h04.52.694,vts_reward_expectancy_bt,2022.2.4,Win32,59.9268892,Chrome,1536,864,,,l,2.2123,1,133,0,2,0,24,6,1,0,0,1,0,1,0,0,0,hexagon,triangle,,,,,,,,,,,,,,,,,,,,,,,,,,,,,,,,,,,,,,,,,,,,,,,,,,,,,,
295444,2022-11-30_15h04.52.694,vts_reward_expectancy_bt,2022.2.4,Win32,59.9268892,Chrome,1536,864,,,l,1.2113,1,134,0,2,1,25,11,1,0,0,0,1,0,0,1,0,star,hexagon,,,,,,,,,,,,,,,,,,,,,,,,,,,,,,,,,,,,,,,,,,,,,,,,,,,,,,
295444,2022-11-30_15h04.52.694,vts_reward_expectancy_bt,2022.2.4,Win32,59.9268892,Chrome,1536,864,,,a,0.9261,10,144,0,2,2,26,7,1,0,0,1,0,0,1,0,0,hexagon,circle,,,,,,,,,,,,,,,,,,,,,,,,,,,,,,,,,,,,,,,,,,,,,,,,,,,,,,
295444,2022-11-30_15h04.52.694,vts_reward_expectancy_bt,2022.2.4,Win32,59.9268892,Chrome,1536,864,,,l,1.0065,10,154,0,2,3,27,2,1,1,0,0,0,0,0,0,1,triangle,star,,,,,,,,,,,,,,,,,,,,,,,,,,,,,,,,,,,,,,,,,,,,,,,,,,,,,,
295444,2022-11-30_15h04.52.694,vts_reward_expectancy_bt,2022.2.4,Win32,59.9268892,Chrome,1536,864,,,l,1.8596,10,164,0,2,4,28,8,1,0,0,1,0,0,0,0,1,hexagon,star,,,,,,,,,,,,,,,,,,,,,,,,,,,,,,,,,,,,,,,,,,,,,,,,,,,,,,
295444,2022-11-30_15h04.52.694,vts_reward_expectancy_bt,2022.2.4,Win32,59.9268892,Chrome,1536,864,,,a,1.5134,10,174,0,2,5,29,1,1,1,0,0,0,0,0,1,0,triangle,hexagon,,,,,,,,,,,,,,,,,,,,,,,,,,,,,,,,,,,,,,,,,,,,,,,,,,,,,,
295444,2022-11-30_15h04.52.694,vts_reward_expectancy_bt,2022.2.4,Win32,59.9268892,Chrome,1536,864,,,a,1.267,1,175,0,2,6,30,9,1,0,0,0,1,1,0,0,0,star,triangle,,,,,,,,,,,,,,,,,,,,,,,,,,,,,,,,,,,,,,,,,,,,,,,,,,,,,,
295444,2022-11-30_15h04.52.694,vts_reward_expectancy_bt,2022.2.4,Win32,59.9268892,Chrome,1536,864,,,l,1.0327,1,176,0,2,7,31,3,1,0,1,0,0,1,0,0,0,circle,triangle,,,,,,,,,,,,,,,,,,,,,,,,,,,,,,,,,,,,,,,,,,,,,,,,,,,,,,
295444,2022-11-30_15h04.52.694,vts_reward_expectancy_bt,2022.2.4,Win32,59.9268892,Chrome,1536,864,,,a,0.9593,1,177,0,2,8,32,10,1,0,0,0,1,0,1,0,0,star ,circle,,,,,,,,,,,,,,,,,,,,,,,,,,,,,,,,,,,,,,,,,,,,,,,,,,,,,,
295444,2022-11-30_15h04.52.694,vts_reward_expectancy_bt,2022.2.4,Win32,59.9268892,Chrome,1536,864,,,a,1.1819,10,187,0,2,9,33,0,1,1,0,0,0,0,1,0,0,triangle,circle,,,,,,,,,,,,,,,,,,,,,,,,,,,,,,,,,,,,,,,,,,,,,,,,,,,,,,
295444,2022-11-30_15h04.52.694,vts_reward_expectancy_bt,2022.2.4,Win32,59.9268892,Chrome,1536,864,,,l,1.1502,1,188,0,2,10,34,4,1,0,1,0,0,0,0,1,0,circle,hexagon,,,,,,,,,,,,,,,,,,,,,,,,,,,,,,,,,,,,,,,,,,,,,,,,,,,,,,
295444,2022-11-30_15h04.52.694,vts_reward_expectancy_bt,2022.2.4,Win32,59.9268892,Chrome,1536,864,,,l,0.802,10,198,0,2,11,35,5,1,0,1,0,0,0,0,0,1,circle,star,,,,,,,,,,,,,,,,,,,,,,,,,,,,,,,,,,,,,,,,,,,,,,,,,,,,,,
295444,2022-11-30_15h04.52.694,vts_reward_expectancy_bt,2022.2.4,Win32,59.9268892,Chrome,1536,864,,,l,0.7026,10,208,1,0,0,0,5,1,0,1,0,0,0,0,0,1,circle,star,,,,,,,,,,,,,,,,,,,,,,,,,,,,,,,,,,,,,,,,,,,,,,,,,,,,,,
295444,2022-11-30_15h04.52.694,vts_reward_expectancy_bt,2022.2.4,Win32,59.9268892,Chrome,1536,864,,,a,0.8594,1,209,1,0,1,1,0,1,1,0,0,0,0,1,0,0,triangle,circle,,,,,,,,,,,,,,,,,,,,,,,,,,,,,,,,,,,,,,,,,,,,,,,,,,,,,,
295444,2022-11-30_15h04.52.694,vts_reward_expectancy_bt,2022.2.4,Win32,59.9268892,Chrome,1536,864,,,l,0.5489,10,219,1,0,2,2,2,1,1,0,0,0,0,0,0,1,triangle,star,,,,,,,,,,,,,,,,,,,,,,,,,,,,,,,,,,,,,,,,,,,,,,,,,,,,,,
295444,2022-11-30_15h04.52.694,vts_reward_expectancy_bt,2022.2.4,Win32,59.9268892,Chrome,1536,864,,,a,0.774,10,229,1,0,3,3,7,1,0,0,1,0,0,1,0,0,hexagon,circle,,,,,,,,,,,,,,,,,,,,,,,,,,,,,,,,,,,,,,,,,,,,,,,,,,,,,,
295444,2022-11-30_15h04.52.694,vts_reward_expectancy_bt,2022.2.4,Win32,59.9268892,Chrome,1536,864,,,l,0.7888,1,230,1,0,4,4,3,1,0,1,0,0,1,0,0,0,circle,triangle,,,,,,,,,,,,,,,,,,,,,,,,,,,,,,,,,,,,,,,,,,,,,,,,,,,,,,
295444,2022-11-30_15h04.52.694,vts_reward_expectancy_bt,2022.2.4,Win32,59.9268892,Chrome,1536,864,,,a,1.0042,1,231,1,0,5,5,8,1,0,0,1,0,0,0,0,1,hexagon,star,,,,,,,,,,,,,,,,,,,,,,,,,,,,,,,,,,,,,,,,,,,,,,,,,,,,,,
295444,2022-11-30_15h04.52.694,vts_reward_expectancy_bt,2022.2.4,Win32,59.9268892,Chrome,1536,864,,,a,0.5817,10,241,1,0,6,6,9,1,0,0,0,1,1,0,0,0,star,triangle,,,,,,,,,,,,,,,,,,,,,,,,,,,,,,,,,,,,,,,,,,,,,,,,,,,,,,
295444,2022-11-30_15h04.52.694,vts_reward_expectancy_bt,2022.2.4,Win32,59.9268892,Chrome,1536,864,,,l,1.1931,1,242,1,0,7,7,4,1,0,1,0,0,0,0,1,0,circle,hexagon,,,,,,,,,,,,,,,,,,,,,,,,,,,,,,,,,,,,,,,,,,,,,,,,,,,,,,
295444,2022-11-30_15h04.52.694,vts_reward_expectancy_bt,2022.2.4,Win32,59.9268892,Chrome,1536,864,,,a,1.2902,1,243,1,0,8,8,6,1,0,0,1,0,1,0,0,0,hexagon,triangle,,,,,,,,,,,,,,,,,,,,,,,,,,,,,,,,,,,,,,,,,,,,,,,,,,,,,,
295444,2022-11-30_15h04.52.694,vts_reward_expectancy_bt,2022.2.4,Win32,59.9268892,Chrome,1536,864,,,a,0.6434,1,244,1,0,9,9,11,1,0,0,0,1,0,0,1,0,star,hexagon,,,,,,,,,,,,,,,,,,,,,,,,,,,,,,,,,,,,,,,,,,,,,,,,,,,,,,
295444,2022-11-30_15h04.52.694,vts_reward_expectancy_bt,2022.2.4,Win32,59.9268892,Chrome,1536,864,,,a,0.8486,1,245,1,0,10,10,10,1,0,0,0,1,0,1,0,0,star ,circle,,,,,,,,,,,,,,,,,,,,,,,,,,,,,,,,,,,,,,,,,,,,,,,,,,,,,,
295444,2022-11-30_15h04.52.694,vts_reward_expectancy_bt,2022.2.4,Win32,59.9268892,Chrome,1536,864,,,l,0.7615,1,246,1,0,11,11,1,1,1,0,0,0,0,0,1,0,triangle,hexagon,,,,,,,,,,,,,,,,,,,,,,,,,,,,,,,,,,,,,,,,,,,,,,,,,,,,,,
295444,2022-11-30_15h04.52.694,vts_reward_expectancy_bt,2022.2.4,Win32,59.9268892,Chrome,1536,864,,,l,0.6456,10,256,1,1,0,12,4,1,0,1,0,0,0,0,1,0,circle,hexagon,,,,,,,,,,,,,,,,,,,,,,,,,,,,,,,,,,,,,,,,,,,,,,,,,,,,,,
295444,2022-11-30_15h04.52.694,vts_reward_expectancy_bt,2022.2.4,Win32,59.9268892,Chrome,1536,864,,,l,1.2047,1,257,1,1,1,13,11,1,0,0,0,1,0,0,1,0,star,hexagon,,,,,,,,,,,,,,,,,,,,,,,,,,,,,,,,,,,,,,,,,,,,,,,,,,,,,,
295444,2022-11-30_15h04.52.694,vts_reward_expectancy_bt,2022.2.4,Win32,59.9268892,Chrome,1536,864,,,a,1.0148,10,267,1,1,2,14,0,1,1,0,0,0,0,1,0,0,triangle,circle,,,,,,,,,,,,,,,,,,,,,,,,,,,,,,,,,,,,,,,,,,,,,,,,,,,,,,
295444,2022-11-30_15h04.52.694,vts_reward_expectancy_bt,2022.2.4,Win32,59.9268892,Chrome,1536,864,,,l,0.7442,10,277,1,1,3,15,2,1,1,0,0,0,0,0,0,1,triangle,star,,,,,,,,,,,,,,,,,,,,,,,,,,,,,,,,,,,,,,,,,,,,,,,,,,,,,,
295444,2022-11-30_15h04.52.694,vts_reward_expectancy_bt,2022.2.4,Win32,59.9268892,Chrome,1536,864,,,l,0.5711,1,278,1,1,4,16,5,1,0,1,0,0,0,0,0,1,circle,star,,,,,,,,,,,,,,,,,,,,,,,,,,,,,,,,,,,,,,,,,,,,,,,,,,,,,,
295444,2022-11-30_15h04.52.694,vts_reward_expectancy_bt,2022.2.4,Win32,59.9268892,Chrome,1536,864,,,a,0.6899,1,279,1,1,5,17,6,1,0,0,1,0,1,0,0,0,hexagon,triangle,,,,,,,,,,,,,,,,,,,,,,,,,,,,,,,,,,,,,,,,,,,,,,,,,,,,,,
295444,2022-11-30_15h04.52.694,vts_reward_expectancy_bt,2022.2.4,Win32,59.9268892,Chrome,1536,864,,,a,0.777,10,289,1,1,6,18,9,1,0,0,0,1,1,0,0,0,star,triangle,,,,,,,,,,,,,,,,,,,,,,,,,,,,,,,,,,,,,,,,,,,,,,,,,,,,,,
295444,2022-11-30_15h04.52.694,vts_reward_expectancy_bt,2022.2.4,Win32,59.9268892,Chrome,1536,864,,,a,1.2414,1,290,1,1,7,19,8,1,0,0,1,0,0,0,0,1,hexagon,star,,,,,,,,,,,,,,,,,,,,,,,,,,,,,,,,,,,,,,,,,,,,,,,,,,,,,,
295444,2022-11-30_15h04.52.694,vts_reward_expectancy_bt,2022.2.4,Win32,59.9268892,Chrome,1536,864,,,l,0.6925,1,291,1,1,8,20,1,1,1,0,0,0,0,0,1,0,triangle,hexagon,,,,,,,,,,,,,,,,,,,,,,,,,,,,,,,,,,,,,,,,,,,,,,,,,,,,,,
295444,2022-11-30_15h04.52.694,vts_reward_expectancy_bt,2022.2.4,Win32,59.9268892,Chrome,1536,864,,,a,1.2575,1,292,1,1,9,21,3,1,0,1,0,0,1,0,0,0,circle,triangle,,,,,,,,,,,,,,,,,,,,,,,,,,,,,,,,,,,,,,,,,,,,,,,,,,,,,,
295444,2022-11-30_15h04.52.694,vts_reward_expectancy_bt,2022.2.4,Win32,59.9268892,Chrome,1536,864,,,a,0.7458,1,293,1,1,10,22,10,1,0,0,0,1,0,1,0,0,star ,circle,,,,,,,,,,,,,,,,,,,,,,,,,,,,,,,,,,,,,,,,,,,,,,,,,,,,,,
295444,2022-11-30_15h04.52.694,vts_reward_expectancy_bt,2022.2.4,Win32,59.9268892,Chrome,1536,864,,,a,1.0282,1,294,1,1,11,23,7,1,0,0,1,0,0,1,0,0,hexagon,circle,,,,,,,,,,,,,,,,,,,,,,,,,,,,,,,,,,,,,,,,,,,,,,,,,,,,,,
295444,2022-11-30_15h04.52.694,vts_reward_expectancy_bt,2022.2.4,Win32,59.9268892,Chrome,1536,864,,,l,0.8839,1,295,1,2,0,24,2,1,1,0,0,0,0,0,0,1,triangle,star,,,,,,,,,,,,,,,,,,,,,,,,,,,,,,,,,,,,,,,,,,,,,,,,,,,,,,
295444,2022-11-30_15h04.52.694,vts_reward_expectancy_bt,2022.2.4,Win32,59.9268892,Chrome,1536,864,,,a,0.574,1,296,1,2,1,25,6,1,0,0,1,0,1,0,0,0,hexagon,triangle,,,,,,,,,,,,,,,,,,,,,,,,,,,,,,,,,,,,,,,,,,,,,,,,,,,,,,
295444,2022-11-30_15h04.52.694,vts_reward_expectancy_bt,2022.2.4,Win32,59.9268892,Chrome,1536,864,,,a,0.92,1,297,1,2,2,26,10,1,0,0,0,1,0,1,0,0,star ,circle,,,,,,,,,,,,,,,,,,,,,,,,,,,,,,,,,,,,,,,,,,,,,,,,,,,,,,
295444,2022-11-30_15h04.52.694,vts_reward_expectancy_bt,2022.2.4,Win32,59.9268892,Chrome,1536,864,,,l,1.1297,1,298,1,2,3,27,4,1,0,1,0,0,0,0,1,0,circle,hexagon,,,,,,,,,,,,,,,,,,,,,,,,,,,,,,,,,,,,,,,,,,,,,,,,,,,,,,
295444,2022-11-30_15h04.52.694,vts_reward_expectancy_bt,2022.2.4,Win32,59.9268892,Chrome,1536,864,,,a,0.8918,10,308,1,2,4,28,11,1,0,0,0,1,0,0,1,0,star,hexagon,,,,,,,,,,,,,,,,,,,,,,,,,,,,,,,,,,,,,,,,,,,,,,,,,,,,,,
295444,2022-11-30_15h04.52.694,vts_reward_expectancy_bt,2022.2.4,Win32,59.9268892,Chrome,1536,864,,,a,0.5935,10,318,1,2,5,29,9,1,0,0,0,1,1,0,0,0,star,triangle,,,,,,,,,,,,,,,,,,,,,,,,,,,,,,,,,,,,,,,,,,,,,,,,,,,,,,
295444,2022-11-30_15h04.52.694,vts_reward_expectancy_bt,2022.2.4,Win32,59.9268892,Chrome,1536,864,,,l,0.5499,10,328,1,2,6,30,8,1,0,0,1,0,0,0,0,1,hexagon,star,,,,,,,,,,,,,,,,,,,,,,,,,,,,,,,,,,,,,,,,,,,,,,,,,,,,,,
295444,2022-11-30_15h04.52.694,vts_reward_expectancy_bt,2022.2.4,Win32,59.9268892,Chrome,1536,864,,,a,1.5396,1,329,1,2,7,31,3,1,0,1,0,0,1,0,0,0,circle,triangle,,,,,,,,,,,,,,,,,,,,,,,,,,,,,,,,,,,,,,,,,,,,,,,,,,,,,,
295444,2022-11-30_15h04.52.694,vts_reward_expectancy_bt,2022.2.4,Win32,59.9268892,Chrome,1536,864,,,l,1.0005,1,330,1,2,8,32,1,1,1,0,0,0,0,0,1,0,triangle,hexagon,,,,,,,,,,,,,,,,,,,,,,,,,,,,,,,,,,,,,,,,,,,,,,,,,,,,,,
295444,2022-11-30_15h04.52.694,vts_reward_expectancy_bt,2022.2.4,Win32,59.9268892,Chrome,1536,864,,,l,0.9944,10,340,1,2,9,33,5,1,0,1,0,0,0,0,0,1,circle,star,,,,,,,,,,,,,,,,,,,,,,,,,,,,,,,,,,,,,,,,,,,,,,,,,,,,,,
295444,2022-11-30_15h04.52.694,vts_reward_expectancy_bt,2022.2.4,Win32,59.9268892,Chrome,1536,864,,,a,0.6768,10,350,1,2,10,34,0,1,1,0,0,0,0,1,0,0,triangle,circle,,,,,,,,,,,,,,,,,,,,,,,,,,,,,,,,,,,,,,,,,,,,,,,,,,,,,,
295444,2022-11-30_15h04.52.694,vts_reward_expectancy_bt,2022.2.4,Win32,59.9268892,Chrome,1536,864,,,a,1.2804,1,351,1,2,11,35,7,1,0,0,1,0,0,1,0,0,hexagon,circle,,,,,,,,,,,,,,,,,,,,,,,,,,,,,,,,,,,,,,,,,,,,,,,,,,,,,,
295444,2022-11-30_15h04.52.694,vts_reward_expectancy_bt,2022.2.4,Win32,59.9268892,Chrome,1536,864,,,a,1.0533,1,352,2,0,0,0,6,1,0,0,1,0,1,0,0,0,hexagon,triangle,,,,,,,,,,,,,,,,,,,,,,,,,,,,,,,,,,,,,,,,,,,,,,,,,,,,,,
295444,2022-11-30_15h04.52.694,vts_reward_expectancy_bt,2022.2.4,Win32,59.9268892,Chrome,1536,864,,,a,0.5839,10,362,2,0,1,1,11,1,0,0,0,1,0,0,1,0,star,hexagon,,,,,,,,,,,,,,,,,,,,,,,,,,,,,,,,,,,,,,,,,,,,,,,,,,,,,,
295444,2022-11-30_15h04.52.694,vts_reward_expectancy_bt,2022.2.4,Win32,59.9268892,Chrome,1536,864,,,l,0.6371,10,372,2,0,2,2,5,1,0,1,0,0,0,0,0,1,circle,star,,,,,,,,,,,,,,,,,,,,,,,,,,,,,,,,,,,,,,,,,,,,,,,,,,,,,,
295444,2022-11-30_15h04.52.694,vts_reward_expectancy_bt,2022.2.4,Win32,59.9268892,Chrome,1536,864,,,a,1.3043,10,382,2,0,3,3,8,1,0,0,1,0,0,0,0,1,hexagon,star,,,,,,,,,,,,,,,,,,,,,,,,,,,,,,,,,,,,,,,,,,,,,,,,,,,,,,
295444,2022-11-30_15h04.52.694,vts_reward_expectancy_bt,2022.2.4,Win32,59.9268892,Chrome,1536,864,,,a,0.9495,10,392,2,0,4,4,10,1,0,0,0,1,0,1,0,0,star ,circle,,,,,,,,,,,,,,,,,,,,,,,,,,,,,,,,,,,,,,,,,,,,,,,,,,,,,,
295444,2022-11-30_15h04.52.694,vts_reward_expectancy_bt,2022.2.4,Win32,59.9268892,Chrome,1536,864,,,l,1.2508,1,393,2,0,5,5,4,1,0,1,0,0,0,0,1,0,circle,hexagon,,,,,,,,,,,,,,,,,,,,,,,,,,,,,,,,,,,,,,,,,,,,,,,,,,,,,,
295444,2022-11-30_15h04.52.694,vts_reward_expectancy_bt,2022.2.4,Win32,59.9268892,Chrome,1536,864,,,a,0.7617,10,403,2,0,6,6,0,1,1,0,0,0,0,1,0,0,triangle,circle,,,,,,,,,,,,,,,,,,,,,,,,,,,,,,,,,,,,,,,,,,,,,,,,,,,,,,
295444,2022-11-30_15h04.52.694,vts_reward_expectancy_bt,2022.2.4,Win32,59.9268892,Chrome,1536,864,,,a,0.9986,1,404,2,0,7,7,9,1,0,0,0,1,1,0,0,0,star,triangle,,,,,,,,,,,,,,,,,,,,,,,,,,,,,,,,,,,,,,,,,,,,,,,,,,,,,,
295444,2022-11-30_15h04.52.694,vts_reward_expectancy_bt,2022.2.4,Win32,59.9268892,Chrome,1536,864,,,a,0.9772,1,405,2,0,8,8,7,1,0,0,1,0,0,1,0,0,hexagon,circle,,,,,,,,,,,,,,,,,,,,,,,,,,,,,,,,,,,,,,,,,,,,,,,,,,,,,,
295444,2022-11-30_15h04.52.694,vts_reward_expectancy_bt,2022.2.4,Win32,59.9268892,Chrome,1536,864,,,l,1.412,1,406,2,0,9,9,1,1,1,0,0,0,0,0,1,0,triangle,hexagon,,,,,,,,,,,,,,,,,,,,,,,,,,,,,,,,,,,,,,,,,,,,,,,,,,,,,,
295444,2022-11-30_15h04.52.694,vts_reward_expectancy_bt,2022.2.4,Win32,59.9268892,Chrome,1536,864,,,l,1.2122,10,416,2,0,10,10,3,1,0,1,0,0,1,0,0,0,circle,triangle,,,,,,,,,,,,,,,,,,,,,,,,,,,,,,,,,,,,,,,,,,,,,,,,,,,,,,
295444,2022-11-30_15h04.52.694,vts_reward_expectancy_bt,2022.2.4,Win32,59.9268892,Chrome,1536,864,,,l,2.3037,1,417,2,0,11,11,2,1,1,0,0,0,0,0,0,1,triangle,star,,,,,,,,,,,,,,,,,,,,,,,,,,,,,,,,,,,,,,,,,,,,,,,,,,,,,,
295444,2022-11-30_15h04.52.694,vts_reward_expectancy_bt,2022.2.4,Win32,59.9268892,Chrome,1536,864,,,a,0.9512,1,418,2,1,0,12,10,1,0,0,0,1,0,1,0,0,star ,circle,,,,,,,,,,,,,,,,,,,,,,,,,,,,,,,,,,,,,,,,,,,,,,,,,,,,,,
295444,2022-11-30_15h04.52.694,vts_reward_expectancy_bt,2022.2.4,Win32,59.9268892,Chrome,1536,864,,,a,0.8674,1,419,2,1,1,13,11,1,0,0,0,1,0,0,1,0,star,hexagon,,,,,,,,,,,,,,,,,,,,,,,,,,,,,,,,,,,,,,,,,,,,,,,,,,,,,,
295444,2022-11-30_15h04.52.694,vts_reward_expectancy_bt,2022.2.4,Win32,59.9268892,Chrome,1536,864,,,l,1.3544,10,429,2,1,2,14,9,1,0,0,0,1,1,0,0,0,star,triangle,,,,,,,,,,,,,,,,,,,,,,,,,,,,,,,,,,,,,,,,,,,,,,,,,,,,,,
295444,2022-11-30_15h04.52.694,vts_reward_expectancy_bt,2022.2.4,Win32,59.9268892,Chrome,1536,864,,,l,0.7132,1,430,2,1,3,15,3,1,0,1,0,0,1,0,0,0,circle,triangle,,,,,,,,,,,,,,,,,,,,,,,,,,,,,,,,,,,,,,,,,,,,,,,,,,,,,,
295444,2022-11-30_15h04.52.694,vts_reward_expectancy_bt,2022.2.4,Win32,59.9268892,Chrome,1536,864,,,a,0.968,10,440,2,1,4,16,7,1,0,0,1,0,0,1,0,0,hexagon,circle,,,,,,,,,,,,,,,,,,,,,,,,,,,,,,,,,,,,,,,,,,,,,,,,,,,,,,
295444,2022-11-30_15h04.52.694,vts_reward_expectancy_bt,2022.2.4,Win32,59.9268892,Chrome,1536,864,,,a,1.5712,1,441,2,1,5,17,2,1,1,0,0,0,0,0,0,1,triangle,star,,,,,,,,,,,,,,,,,,,,,,,,,,,,,,,,,,,,,,,,,,,,,,,,,,,,,,
295444,2022-11-30_15h04.52.694,vts_reward_expectancy_bt,2022.2.4,Win32,59.9268892,Chrome,1536,864,,,a,2.1313,10,451,2,1,6,18,6,1,0,0,1,0,1,0,0,0,hexagon,triangle,,,,,,,,,,,,,,,,,,,,,,,,,,,,,,,,,,,,,,,,,,,,,,,,,,,,,,
295444,2022-11-30_15h04.52.694,vts_reward_expectancy_bt,2022.2.4,Win32,59.9268892,Chrome,1536,864,,,l,0.7401,1,452,2,1,7,19,4,1,0,1,0,0,0,0,1,0,circle,hexagon,,,,,,,,,,,,,,,,,,,,,,,,,,,,,,,,,,,,,,,,,,,,,,,,,,,,,,
295444,2022-11-30_15h04.52.694,vts_reward_expectancy_bt,2022.2.4,Win32,59.9268892,Chrome,1536,864,,,l,0.9342,1,453,2,1,8,20,8,1,0,0,1,0,0,0,0,1,hexagon,star,,,,,,,,,,,,,,,,,,,,,,,,,,,,,,,,,,,,,,,,,,,,,,,,,,,,,,
295444,2022-11-30_15h04.52.694,vts_reward_expectancy_bt,2022.2.4,Win32,59.9268892,Chrome,1536,864,,,l,0.7471,1,454,2,1,9,21,1,1,1,0,0,0,0,0,1,0,triangle,hexagon,,,,,,,,,,,,,,,,,,,,,,,,,,,,,,,,,,,,,,,,,,,,,,,,,,,,,,
295444,2022-11-30_15h04.52.694,vts_reward_expectancy_bt,2022.2.4,Win32,59.9268892,Chrome,1536,864,,,a,0.682,10,464,2,1,10,22,0,1,1,0,0,0,0,1,0,0,triangle,circle,,,,,,,,,,,,,,,,,,,,,,,,,,,,,,,,,,,,,,,,,,,,,,,,,,,,,,
295444,2022-11-30_15h04.52.694,vts_reward_expectancy_bt,2022.2.4,Win32,59.9268892,Chrome,1536,864,,,l,0.7268,10,474,2,1,11,23,5,1,0,1,0,0,0,0,0,1,circle,star,,,,,,,,,,,,,,,,,,,,,,,,,,,,,,,,,,,,,,,,,,,,,,,,,,,,,,
295444,2022-11-30_15h04.52.694,vts_reward_expectancy_bt,2022.2.4,Win32,59.9268892,Chrome,1536,864,,,a,0.5714,1,475,2,2,0,24,11,1,0,0,0,1,0,0,1,0,star,hexagon,,,,,,,,,,,,,,,,,,,,,,,,,,,,,,,,,,,,,,,,,,,,,,,,,,,,,,
295444,2022-11-30_15h04.52.694,vts_reward_expectancy_bt,2022.2.4,Win32,59.9268892,Chrome,1536,864,,,a,0.6766,1,476,2,2,1,25,10,1,0,0,0,1,0,1,0,0,star ,circle,,,,,,,,,,,,,,,,,,,,,,,,,,,,,,,,,,,,,,,,,,,,,,,,,,,,,,
295444,2022-11-30_15h04.52.694,vts_reward_expectancy_bt,2022.2.4,Win32,59.9268892,Chrome,1536,864,,,l,0.4657,1,477,2,2,2,26,5,1,0,1,0,0,0,0,0,1,circle,star,,,,,,,,,,,,,,,,,,,,,,,,,,,,,,,,,,,,,,,,,,,,,,,,,,,,,,
295444,2022-11-30_15h04.52.694,vts_reward_expectancy_bt,2022.2.4,Win32,59.9268892,Chrome,1536,864,,,a,0.5593,10,487,2,2,3,27,7,1,0,0,1,0,0,1,0,0,hexagon,circle,,,,,,,,,,,,,,,,,,,,,,,,,,,,,,,,,,,,,,,,,,,,,,,,,,,,,,
295444,2022-11-30_15h04.52.694,vts_reward_expectancy_bt,2022.2.4,Win32,59.9268892,Chrome,1536,864,,,l,0.8369,1,488,2,2,4,28,2,1,1,0,0,0,0,0,0,1,triangle,star,,,,,,,,,,,,,,,,,,,,,,,,,,,,,,,,,,,,,,,,,,,,,,,,,,,,,,
295444,2022-11-30_15h04.52.694,vts_reward_expectancy_bt,2022.2.4,Win32,59.9268892,Chrome,1536,864,,,a,0.7189,1,489,2,2,5,29,4,1,0,1,0,0,0,0,1,0,circle,hexagon,,,,,,,,,,,,,,,,,,,,,,,,,,,,,,,,,,,,,,,,,,,,,,,,,,,,,,
295444,2022-11-30_15h04.52.694,vts_reward_expectancy_bt,2022.2.4,Win32,59.9268892,Chrome,1536,864,,,a,0.7594,10,499,2,2,6,30,9,1,0,0,0,1,1,0,0,0,star,triangle,,,,,,,,,,,,,,,,,,,,,,,,,,,,,,,,,,,,,,,,,,,,,,,,,,,,,,
295444,2022-11-30_15h04.52.694,vts_reward_expectancy_bt,2022.2.4,Win32,59.9268892,Chrome,1536,864,,,l,0.5867,1,500,2,2,7,31,3,1,0,1,0,0,1,0,0,0,circle,triangle,,,,,,,,,,,,,,,,,,,,,,,,,,,,,,,,,,,,,,,,,,,,,,,,,,,,,,
295444,2022-11-30_15h04.52.694,vts_reward_expectancy_bt,2022.2.4,Win32,59.9268892,Chrome,1536,864,,,a,0.9826,1,501,2,2,8,32,6,1,0,0,1,0,1,0,0,0,hexagon,triangle,,,,,,,,,,,,,,,,,,,,,,,,,,,,,,,,,,,,,,,,,,,,,,,,,,,,,,
295444,2022-11-30_15h04.52.694,vts_reward_expectancy_bt,2022.2.4,Win32,59.9268892,Chrome,1536,864,,,l,1.0068,1,502,2,2,9,33,1,1,1,0,0,0,0,0,1,0,triangle,hexagon,,,,,,,,,,,,,,,,,,,,,,,,,,,,,,,,,,,,,,,,,,,,,,,,,,,,,,
295444,2022-11-30_15h04.52.694,vts_reward_expectancy_bt,2022.2.4,Win32,59.9268892,Chrome,1536,864,,,a,0.8459,10,512,2,2,10,34,0,1,1,0,0,0,0,1,0,0,triangle,circle,,,,,,,,,,,,,,,,,,,,,,,,,,,,,,,,,,,,,,,,,,,,,,,,,,,,,,
295444,2022-11-30_15h04.52.694,vts_reward_expectancy_bt,2022.2.4,Win32,59.9268892,Chrome,1536,864,,,l,0.7666,1,513,2,2,11,35,8,1,0,0,1,0,0,0,0,1,hexagon,star,,,,,,,,,,,,,,,,,,,,,,,,,,,,,,,,,,,,,,,,,,,,,,,,,,,,,,
295444,2022-11-30_15h04.52.694,vts_reward_expectancy_bt,2022.2.4,Win32,59.9268892,Chrome,1536,864,,,,,,,,,,,,,,,,,,,,,,,U,139,triangle,1,0,f,1.6797,0,0,0,0,0,1,,,,,,,,,,,,,,,,,,,,,,,,,,,,,,,,,,,,,,,,,
295444,2022-11-30_15h04.52.694,vts_reward_expectancy_bt,2022.2.4,Win32,59.9268892,Chrome,1536,864,,,,,,,,,,,,,,,,,,,,,,,Y,181,star,1,0,f,0.6856,0,1,0,1,0,1,,,,,,,,,,,,,,,,,,,,,,,,,,,,,,,,,,,,,,,,,
295444,2022-11-30_15h04.52.694,vts_reward_expectancy_bt,2022.2.4,Win32,59.9268892,Chrome,1536,864,,,,,,,,,,,,,,,,,,,,,,,W,125,hexagon,1,0,f,0.6,0,2,0,2,0,1,,,,,,,,,,,,,,,,,,,,,,,,,,,,,,,,,,,,,,,,,
295444,2022-11-30_15h04.52.694,vts_reward_expectancy_bt,2022.2.4,Win32,59.9268892,Chrome,1536,864,,,,,,,,,,,,,,,,,,,,,,,F,167,circle,1,0,d,0.9069,0,3,0,3,0,1,,,,,,,,,,,,,,,,,,,,,,,,,,,,,,,,,,,,,,,,,
295444,2022-11-30_15h04.52.694,vts_reward_expectancy_bt,2022.2.4,Win32,59.9268892,Chrome,1536,864,,,,,,,,,,,,,,,,,,,,,,,B,132,triangle,1,0,d,0.5432,0,4,0,4,0,1,,,,,,,,,,,,,,,,,,,,,,,,,,,,,,,,,,,,,,,,,
295444,2022-11-30_15h04.52.694,vts_reward_expectancy_bt,2022.2.4,Win32,59.9268892,Chrome,1536,864,,,,,,,,,,,,,,,,,,,,,,,S,174,star,1,0,f,0.6638,0,5,0,5,0,1,,,,,,,,,,,,,,,,,,,,,,,,,,,,,,,,,,,,,,,,,
295444,2022-11-30_15h04.52.694,vts_reward_expectancy_bt,2022.2.4,Win32,59.9268892,Chrome,1536,864,,,,,,,,,,,,,,,,,,,,,,,H,160,hexagon,1,0,d,0.4967,0,6,0,6,0,1,,,,,,,,,,,,,,,,,,,,,,,,,,,,,,,,,,,,,,,,,
295444,2022-11-30_15h04.52.694,vts_reward_expectancy_bt,2022.2.4,Win32,59.9268892,Chrome,1536,864,,,,,,,,,,,,,,,,,,,,,,,D,146,circle,1,0,d,0.6588,0,7,0,7,0,1,,,,,,,,,,,,,,,,,,,,,,,,,,,,,,,,,,,,,,,,,
295444,2022-11-30_15h04.52.694,vts_reward_expectancy_bt,2022.2.4,Win32,59.9268892,Chrome,1536,864,,,,,,,,,,,,,,,,,,,,,,,U,139,circle,1,0,f,0.7396,0,8,0,8,0,1,,,,,,,,,,,,,,,,,,,,,,,,,,,,,,,,,,,,,,,,,
295444,2022-11-30_15h04.52.694,vts_reward_expectancy_bt,2022.2.4,Win32,59.9268892,Chrome,1536,864,,,,,,,,,,,,,,,,,,,,,,,Y,181,triangle,1,0,f,0.6974,0,9,0,9,0,1,,,,,,,,,,,,,,,,,,,,,,,,,,,,,,,,,,,,,,,,,
295444,2022-11-30_15h04.52.694,vts_reward_expectancy_bt,2022.2.4,Win32,59.9268892,Chrome,1536,864,,,,,,,,,,,,,,,,,,,,,,,F,167,star,1,0,,,1,,,,,,k,0.6905,0,0,0,0,1,,,,,,,,,,,,,,,,,,,,,,,,,,,,,,,,,,
295444,2022-11-30_15h04.52.694,vts_reward_expectancy_bt,2022.2.4,Win32,59.9268892,Chrome,1536,864,,,,,,,,,,,,,,,,,,,,,,,H,146,triangle,1,0,,,1,,,,,,j,0.5746,1,0,1,0,1,,,,,,,,,,,,,,,,,,,,,,,,,,,,,,,,,,
295444,2022-11-30_15h04.52.694,vts_reward_expectancy_bt,2022.2.4,Win32,59.9268892,Chrome,1536,864,,,,,,,,,,,,,,,,,,,,,,,B,139,circle,1,0,,,1,,,,,,j,0.6818,2,0,2,0,1,,,,,,,,,,,,,,,,,,,,,,,,,,,,,,,,,,
295444,2022-11-30_15h04.52.694,vts_reward_expectancy_bt,2022.2.4,Win32,59.9268892,Chrome,1536,864,,,,,,,,,,,,,,,,,,,,,,,Y,174,hexagon,1,0,,,1,,,,,,k,0.6484,3,0,3,0,1,,,,,,,,,,,,,,,,,,,,,,,,,,,,,,,,,,
295444,2022-11-30_15h04.52.694,vts_reward_expectancy_bt,2022.2.4,Win32,59.9268892,Chrome,1536,864,,,,,,,,,,,,,,,,,,,,,,,U,181,star,1,0,,,1,,,,,,k,0.6748,4,0,4,0,1,,,,,,,,,,,,,,,,,,,,,,,,,,,,,,,,,,
295444,2022-11-30_15h04.52.694,vts_reward_expectancy_bt,2022.2.4,Win32,59.9268892,Chrome,1536,864,,,,,,,,,,,,,,,,,,,,,,,W,132,triangle,1,0,,,1,,,,,,j,0.6394,5,0,5,0,1,,,,,,,,,,,,,,,,,,,,,,,,,,,,,,,,,,
295444,2022-11-30_15h04.52.694,vts_reward_expectancy_bt,2022.2.4,Win32,59.9268892,Chrome,1536,864,,,,,,,,,,,,,,,,,,,,,,,D,160,circle,1,0,,,1,,,,,,k,0.8416,6,0,6,0,1,,,,,,,,,,,,,,,,,,,,,,,,,,,,,,,,,,
295444,2022-11-30_15h04.52.694,vts_reward_expectancy_bt,2022.2.4,Win32,59.9268892,Chrome,1536,864,,,,,,,,,,,,,,,,,,,,,,,S,125,hexagon,1,0,,,1,,,,,,j,0.5812,7,0,7,0,1,,,,,,,,,,,,,,,,,,,,,,,,,,,,,,,,,,
295444,2022-11-30_15h04.52.694,vts_reward_expectancy_bt,2022.2.4,Win32,59.9268892,Chrome,1536,864,,,,,,,,,,,,,,,,,,,,,,,F,167,star,1,0,,,1,,,,,,k,1.1727,8,0,8,0,1,,,,,,,,,,,,,,,,,,,,,,,,,,,,,,,,,,
295444,2022-11-30_15h04.52.694,vts_reward_expectancy_bt,2022.2.4,Win32,59.9268892,Chrome,1536,864,,,,,,,,,,,,,,,,,,,,,,,H,146,hexagon,1,0,,,1,,,,,,j,0.5698,9,0,9,0,1,,,,,,,,,,,,,,,,,,,,,,,,,,,,,,,,,,
295444,2022-11-30_15h04.52.694,vts_reward_expectancy_bt,2022.2.4,Win32,59.9268892,Chrome,1536,864,,,,,0,513,,,,,,,,,,,,,,,,,F,132,hexagon,1,0,,,2,,,,,,,,,,,,,-1,letter,NA,d,1.1995,vtsPrac,0,0,0,0,1,,,,,,,,,,,,,,,,,,,,,,,
295444,2022-11-30_15h04.52.694,vts_reward_expectancy_bt,2022.2.4,Win32,59.9268892,Chrome,1536,864,,,,,0,513,,,,,,,,,,,,,,,,,Y,160,triangle,1,0,,,2,,,,,,,,,,,,,repeat,letter,lettRpt,f,0.9356,vtsPrac,1,0,1,0,1,,,,,,,,,,,,,,,,,,,,,,,
295444,2022-11-30_15h04.52.694,vts_reward_expectancy_bt,2022.2.4,Win32,59.9268892,Chrome,1536,864,,,,,0,513,,,,,,,,,,,,,,,,,U,146,hexagon,1,0,,,2,,,,,,,,,,,,,switch,number,numSwt,j,0.6389,vtsPrac,2,0,2,0,1,,,,,,,,,,,,,,,,,,,,,,,
295444,2022-11-30_15h04.52.694,vts_reward_expectancy_bt,2022.2.4,Win32,59.9268892,Chrome,1536,864,,,,,0,513,,,,,,,,,,,,,,,,,W,139,triangle,1,0,,,2,,,,,,,,,,,,,switch,letter,lettSwt,f,0.6133,vtsPrac,3,0,3,0,1,,,,,,,,,,,,,,,,,,,,,,,
295444,2022-11-30_15h04.52.694,vts_reward_expectancy_bt,2022.2.4,Win32,59.9268892,Chrome,1536,864,,,,,0,513,,,,,,,,,,,,,,,,,F,132,hexagon,1,0,,,2,,,,,,,,,,,,,switch,number,numSwt,j,0.6492,vtsPrac,4,0,4,0,1,,,,,,,,,,,,,,,,,,,,,,,
295444,2022-11-30_15h04.52.694,vts_reward_expectancy_bt,2022.2.4,Win32,59.9268892,Chrome,1536,864,,,,,0,513,,,,,,,,,,,,,,,,,Y,160,circle,1,0,,,2,,,,,,,,,,,,,repeat,number,numRpt,k,0.6525,vtsPrac,5,0,5,0,1,,,,,,,,,,,,,,,,,,,,,,,
295444,2022-11-30_15h04.52.694,vts_reward_expectancy_bt,2022.2.4,Win32,59.9268892,Chrome,1536,864,,,,,0,513,,,,,,,,,,,,,,,,,U,146,hexagon,1,0,,,2,,,,,,,,,,,,,repeat,number,numRpt,j,0.6664,vtsPrac,6,0,6,0,1,,,,,,,,,,,,,,,,,,,,,,,
295444,2022-11-30_15h04.52.694,vts_reward_expectancy_bt,2022.2.4,Win32,59.9268892,Chrome,1536,864,,,,,0,513,,,,,,,,,,,,,,,,,W,139,circle,1,0,,,2,,,,,,,,,,,,,switch,letter,lettSwt,f,0.4986,vtsPrac,7,0,7,0,1,,,,,,,,,,,,,,,,,,,,,,,
295444,2022-11-30_15h04.52.694,vts_reward_expectancy_bt,2022.2.4,Win32,59.9268892,Chrome,1536,864,,,,,0,513,,,,,,,,,,,,,,,,,H,167,hexagon,1,0,,,2,,,,,,,,,,,,,repeat,letter,lettRpt,d,0.6878,vtsPrac,8,0,8,0,1,,,,,,,,,,,,,,,,,,,,,,,
295444,2022-11-30_15h04.52.694,vts_reward_expectancy_bt,2022.2.4,Win32,59.9268892,Chrome,1536,864,,,,,0,513,,,,,,,,,,,,,,,,,B,160,circle,1,0,,,2,,,,,,,,,,,,,switch,number,numSwt,k,0.5897,vtsPrac,9,0,9,0,1,,,,,,,,,,,,,,,,,,,,,,,
295444,2022-11-30_15h04.52.694,vts_reward_expectancy_bt,2022.2.4,Win32,59.9268892,Chrome,1536,864,,,,,0,513,,,,,,,,,,,,,,,,,Y,139,hexagon,1,0,,,2,,,,,,,,,,,,,switch,letter,lettSwt,f,0.6518,vtsPrac,10,0,10,0,1,,,,,,,,,,,,,,,,,,,,,,,
295444,2022-11-30_15h04.52.694,vts_reward_expectancy_bt,2022.2.4,Win32,59.9268892,Chrome,1536,864,,,,,0,513,,,,,,,,,,,,,,,,,F,181,circle,1,0,,,2,,,,,,,,,,,,,switch,number,numSwt,k,0.6866,vtsPrac,11,0,11,0,1,,,,,,,,,,,,,,,,,,,,,,,
295444,2022-11-30_15h04.52.694,vts_reward_expectancy_bt,2022.2.4,Win32,59.9268892,Chrome,1536,864,,,,,0,513,,,,,,,,,,,,,,,,,Y,132,star,1,0,,,2,,,,,,,,,,,,,repeat,number,numRpt,j,0.8845,vtsPrac,12,0,12,0,1,,,,,,,,,,,,,,,,,,,,,,,
295444,2022-11-30_15h04.52.694,vts_reward_expectancy_bt,2022.2.4,Win32,59.9268892,Chrome,1536,864,,,,,0,513,,,,,,,,,,,,,,,,,B,125,hexagon,1,0,,,2,,,,,,,,,,,,,switch,letter,lettSwt,d,0.7308,vtsPrac,13,0,13,0,1,,,,,,,,,,,,,,,,,,,,,,,
295444,2022-11-30_15h04.52.694,vts_reward_expectancy_bt,2022.2.4,Win32,59.9268892,Chrome,1536,864,,,,,0,513,,,,,,,,,,,,,,,,,U,146,star,1,0,,,2,,,,,,,,,,,,,switch,number,numSwt,j,0.7742,vtsPrac,14,0,14,0,1,,,,,,,,,,,,,,,,,,,,,,,
295444,2022-11-30_15h04.52.694,vts_reward_expectancy_bt,2022.2.4,Win32,59.9268892,Chrome,1536,864,,,,,0,513,,,,,,,,,,,,,,,,,S,160,circle,1,0,,,2,,,,,,,,,,,,,repeat,number,numRpt,k,0.7475,vtsPrac,15,0,15,0,1,,,,,,,,,,,,,,,,,,,,,,,
295444,2022-11-30_15h04.52.694,vts_reward_expectancy_bt,2022.2.4,Win32,59.9268892,Chrome,1536,864,,,,,0,513,,,,,,,,,,,,,,,,,W,146,triangle,1,0,,,2,,,,,,,,,,,,,switch,letter,lettSwt,f,0.7661,vtsPrac,16,0,16,0,1,,,,,,,,,,,,,,,,,,,,,,,
295444,2022-11-30_15h04.52.694,vts_reward_expectancy_bt,2022.2.4,Win32,59.9268892,Chrome,1536,864,,,,,0,513,,,,,,,,,,,,,,,,,S,139,hexagon,1,0,,,2,,,,,,,,,,,,,repeat,letter,lettRpt,f,0.6426,vtsPrac,17,0,17,0,1,,,,,,,,,,,,,,,,,,,,,,,
295444,2022-11-30_15h04.52.694,vts_reward_expectancy_bt,2022.2.4,Win32,59.9268892,Chrome,1536,864,,,,,0,513,,,,,,,,,,,,,,,,,H,160,hexagon,1,0,,,2,,,,,,,,,,,,,switch,number,numSwt,k,0.7157,vtsPrac,18,0,18,0,1,,,,,,,,,,,,,,,,,,,,,,,
295444,2022-11-30_15h04.52.694,vts_reward_expectancy_bt,2022.2.4,Win32,59.9268892,Chrome,1536,864,,,,,0,513,,,,,,,,,,,,,,,,,B,132,triangle,1,0,,,2,,,,,,,,,,,,,switch,letter,lettSwt,d,0.7601,vtsPrac,19,0,19,0,1,,,,,,,,,,,,,,,,,,,,,,,
295444,2022-11-30_15h04.52.694,vts_reward_expectancy_bt,2022.2.4,Win32,59.9268892,Chrome,1536,864,,,,,0,513,,,,,,,,,,,,,,,,,H,139,hexagon,1,0,,,2,,,,,,,,,,,,,switch,number,numSwt,j,0.9244,vtsPrac,20,0,20,0,1,,,,,,,,,,,,,,,,,,,,,,,
295444,2022-11-30_15h04.52.694,vts_reward_expectancy_bt,2022.2.4,Win32,59.9268892,Chrome,1536,864,,,,,0,513,,,,,,,,,,,,,,,,,B,181,circle,1,0,,,2,,,,,,,,,,,,,repeat,number,numRpt,k,0.4968,vtsPrac,21,0,21,0,1,,,,,,,,,,,,,,,,,,,,,,,
295444,2022-11-30_15h04.52.694,vts_reward_expectancy_bt,2022.2.4,Win32,59.9268892,Chrome,1536,864,,,,,0,513,,,,,,,,,,,,,,,,,F,160,triangle,1,0,,,2,,,,,,,,,,,,,repeat,number,numRpt,k,0.9038,vtsPrac,22,0,22,0,1,,,,,,,,,,,,,,,,,,,,,,,
295444,2022-11-30_15h04.52.694,vts_reward_expectancy_bt,2022.2.4,Win32,59.9268892,Chrome,1536,864,,,,,0,513,,,,,,,,,,,,,,,,,W,146,hexagon,1,0,,,2,,,,,,,,,,,,,switch,letter,lettSwt,f,0.6095,vtsPrac,23,0,23,0,1,,,,,,,,,,,,,,,,,,,,,,,
295444,2022-11-30_15h04.52.694,vts_reward_expectancy_bt,2022.2.4,Win32,59.9268892,Chrome,1536,864,,,,,0,513,,,,,,,,,,,,,,,,,D,167,star,1,0,,,2,,,,,,,,,,,,,repeat,letter,lettRpt,d,0.6434,vtsPrac,24,0,24,0,1,,,,,,,,,,,,,,,,,,,,,,,
295444,2022-11-30_15h04.52.694,vts_reward_expectancy_bt,2022.2.4,Win32,59.9268892,Chrome,1536,864,,,,,0,513,,,,,,,,,,,,,,,,,W,139,hexagon,1,0,,,2,,,,,,,,,,,,,switch,number,numSwt,j,0.5229,vtsPrac,25,0,25,0,1,,,,,,,,,,,,,,,,,,,,,,,
295444,2022-11-30_15h04.52.694,vts_reward_expectancy_bt,2022.2.4,Win32,59.9268892,Chrome,1536,864,,,,,0,513,,,,,,,,,,,,,,,,,S,146,hexagon,1,0,,,2,,,,,,,,,,,,,switch,letter,lettSwt,f,0.7611,vtsPrac,26,0,26,0,1,,,,,,,,,,,,,,,,,,,,,,,
295444,2022-11-30_15h04.52.694,vts_reward_expectancy_bt,2022.2.4,Win32,59.9268892,Chrome,1536,864,,,,,0,513,,,,,,,,,,,,,,,,,Y,174,triangle,1,0,,,2,,,,,,,,,,,,,switch,number,numSwt,k,0.6436,vtsPrac,27,0,27,0,1,,,,,,,,,,,,,,,,,,,,,,,
295444,2022-11-30_15h04.52.694,vts_reward_expectancy_bt,2022.2.4,Win32,59.9268892,Chrome,1536,864,,,,,0,513,,,,,,,,,,,,,,,,,W,174,hexagon,1,0,,,2,,,,,,,,,,,,,repeat,number,numRpt,k,0.7076,vtsPrac,28,0,28,0,1,,,,,,,,,,,,,,,,,,,,,,,
295444,2022-11-30_15h04.52.694,vts_reward_expectancy_bt,2022.2.4,Win32,59.9268892,Chrome,1536,864,,,,,0,513,,,,,,,,,,,,,,,,,U,125,triangle,1,0,,,2,,,,,,,,,,,,,switch,letter,lettSwt,f,0.776,vtsPrac,29,0,29,0,1,,,,,,,,,,,,,,,,,,,,,,,
295444,2022-11-30_15h04.52.694,vts_reward_expectancy_bt,2022.2.4,Win32,59.9268892,Chrome,1536,864,,,,,0,513,,,,,,,,,,,,,,,,,D,160,hexagon,1,0,,,2,,,,,,,,,,,,,switch,number,numSwt,k,0.5178,vtsPrac,30,0,30,0,1,,,,,,,,,,,,,,,,,,,,,,,
295444,2022-11-30_15h04.52.694,vts_reward_expectancy_bt,2022.2.4,Win32,59.9268892,Chrome,1536,864,,,,,0,513,,,,,,,,,,,,,,,,,F,181,star,1,0,,,2,,,,,,,,,,,,,switch,letter,lettSwt,d,0.6192,vtsPrac,31,0,31,0,1,,,,,,,,,,,,,,,,,,,,,,,
295444,2022-11-30_15h04.52.694,vts_reward_expectancy_bt,2022.2.4,Win32,59.9268892,Chrome,1536,864,,,,,,,,,,,,,,,,,,,,,,,,,,,,,,,,,,,,,,,,,,,,,,,,,,,,,,,,,,,,,,,,,,,,,,,,,,,,
295444,2022-11-30_15h04.52.694,vts_reward_expectancy_bt,2022.2.4,Win32,59.9268892,Chrome,1536,864,,,,,,,,,,,,,,,,,,,,,,,,,,,,,,,,,,,,,,,,,,,,,,,,,,,,,,,,,,,,,,,,,,,,,,,,,,,,
295444,2022-11-30_15h04.52.694,vts_reward_expectancy_bt,2022.2.4,Win32,59.9268892,Chrome,1536,864,,,,,0,513,,,,,,,,,,,,,,,,,U,125,hexagon,1,0,,,,,,,,,,,,,,,,repeat,letter,lettRpt,f,0.7586,noRew,,,,,,0,0,0,0,0,1,,,,,,,,,,,,,,,,,
295444,2022-11-30_15h04.52.694,vts_reward_expectancy_bt,2022.2.4,Win32,59.9268892,Chrome,1536,864,,,,,0,513,,,,,,,,,,,,,,,,,H,132,star,1,0,,,,,,,,,,,,,,,,switch,number,numSwt,j,0.8413,noRew,,,,,,0,1,0,1,0,1,,,,,,,,,,,,,,,,,
295444,2022-11-30_15h04.52.694,vts_reward_expectancy_bt,2022.2.4,Win32,59.9268892,Chrome,1536,864,,,,,0,513,,,,,,,,,,,,,,,,,D,139,hexagon,1,0,,,,,,,,,,,,,,,,switch,letter,lettSwt,d,0.5698,noRew,,,,,,0,2,0,2,0,1,,,,,,,,,,,,,,,,,
295444,2022-11-30_15h04.52.694,vts_reward_expectancy_bt,2022.2.4,Win32,59.9268892,Chrome,1536,864,,,,,0,513,,,,,,,,,,,,,,,,,W,146,star,1,0,,,,,,,,,,,,,,,,repeat,letter,lettRpt,f,0.5936,noRew,,,,,,0,3,0,3,0,1,,,,,,,,,,,,,,,,,
295444,2022-11-30_15h04.52.694,vts_reward_expectancy_bt,2022.2.4,Win32,59.9268892,Chrome,1536,864,,,,,0,513,,,,,,,,,,,,,,,,,U,125,star,1,0,,,,,,,,,,,,,,,,repeat,letter,lettRpt,f,0.6155,noRew,,,,,,0,4,0,4,0,1,,,,,,,,,,,,,,,,,
295444,2022-11-30_15h04.52.694,vts_reward_expectancy_bt,2022.2.4,Win32,59.9268892,Chrome,1536,864,,,,,0,513,,,,,,,,,,,,,,,,,H,132,circle,1,0,,,,,,,,,,,,,,,,switch,number,numSwt,j,0.5495,noRew,,,,,,0,5,0,5,0,1,,,,,,,,,,,,,,,,,
295444,2022-11-30_15h04.52.694,vts_reward_expectancy_bt,2022.2.4,Win32,59.9268892,Chrome,1536,864,,,,,0,513,,,,,,,,,,,,,,,,,D,139,triangle,1,0,,,,,,,,,,,,,,,,repeat,number,numRpt,j,0.6405,noRew,,,,,,0,6,0,6,0,1,,,,,,,,,,,,,,,,,
295444,2022-11-30_15h04.52.694,vts_reward_expectancy_bt,2022.2.4,Win32,59.9268892,Chrome,1536,864,,,,,0,513,,,,,,,,,,,,,,,,,W,146,hexagon,1,0,,,,,,,,,,,,,,,,repeat,number,numRpt,j,0.5927,noRew,,,,,,0,7,0,7,0,1,,,,,,,,,,,,,,,,,
295444,2022-11-30_15h04.52.694,vts_reward_expectancy_bt,2022.2.4,Win32,59.9268892,Chrome,1536,864,,,,,0,513,,,,,,,,,,,,,,,,,H,167,hexagon,1,0,,,,,,,,,,,,,,,,switch,letter,lettSwt,d,0.825,noRew,,,,,,0,8,0,8,0,1,,,,,,,,,,,,,,,,,
295444,2022-11-30_15h04.52.694,vts_reward_expectancy_bt,2022.2.4,Win32,59.9268892,Chrome,1536,864,,,,,0,513,,,,,,,,,,,,,,,,,D,146,circle,1,0,,,,,,,,,,,,,,,,repeat,letter,lettRpt,d,0.7482,noRew,,,,,,0,9,0,9,0,1,,,,,,,,,,,,,,,,,
295444,2022-11-30_15h04.52.694,vts_reward_expectancy_bt,2022.2.4,Win32,59.9268892,Chrome,1536,864,,,,,0,513,,,,,,,,,,,,,,,,,B,132,star,1,0,,,,,,,,,,,,,,,,switch,number,numSwt,j,0.7311,noRew,,,,,,0,10,0,10,0,1,,,,,,,,,,,,,,,,,
295444,2022-11-30_15h04.52.694,vts_reward_expectancy_bt,2022.2.4,Win32,59.9268892,Chrome,1536,864,,,,,0,513,,,,,,,,,,,,,,,,,W,160,circle,1,0,,,,,,,,,,,,,,,,repeat,number,numRpt,k,0.5414,noRew,,,,,,0,11,0,11,0,1,,,,,,,,,,,,,,,,,
295444,2022-11-30_15h04.52.694,vts_reward_expectancy_bt,2022.2.4,Win32,59.9268892,Chrome,1536,864,,,,,0,513,,,,,,,,,,,,,,,,,U,160,star,1,0,,,,,,,,,,,,,,,,switch,letter,lettSwt,f,0.6672,noRew,,,,,,0,12,0,12,0,1,,,,,,,,,,,,,,,,,
295444,2022-11-30_15h04.52.694,vts_reward_expectancy_bt,2022.2.4,Win32,59.9268892,Chrome,1536,864,,,,,0,513,,,,,,,,,,,,,,,,,H,181,circle,1,0,,,,,,,,,,,,,,,,switch,number,numSwt,k,0.7859,noRew,,,,,,0,13,0,13,0,1,,,,,,,,,,,,,,,,,
295444,2022-11-30_15h04.52.694,vts_reward_expectancy_bt,2022.2.4,Win32,59.9268892,Chrome,1536,864,,,,,0,513,,,,,,,,,,,,,,,,,W,167,star,1,0,,,,,,,,,,,,,,,,repeat,number,numRpt,k,0.8478,noRew,,,,,,0,14,0,14,0,1,,,,,,,,,,,,,,,,,
295444,2022-11-30_15h04.52.694,vts_reward_expectancy_bt,2022.2.4,Win32,59.9268892,Chrome,1536,864,,,,,0,513,,,,,,,,,,,,,,,,,Y,146,hexagon,1,0,,,,,,,,,,,,,,,,switch,letter,lettSwt,f,0.7215,noRew,,,,,,0,15,0,15,0,1,,,,,,,,,,,,,,,,,
295444,2022-11-30_15h04.52.694,vts_reward_expectancy_bt,2022.2.4,Win32,59.9268892,Chrome,1536,864,,,,,0,513,,,,,,,,,,,,,,,,,D,181,circle,1,0,,,,,,,,,,,,,,,,repeat,letter,lettRpt,d,0.5953,noRew,,,,,,0,16,0,16,0,1,,,,,,,,,,,,,,,,,
295444,2022-11-30_15h04.52.694,vts_reward_expectancy_bt,2022.2.4,Win32,59.9268892,Chrome,1536,864,,,,,0,513,,,,,,,,,,,,,,,,,W,139,hexagon,1,0,,,,,,,,,,,,,,,,repeat,letter,lettRpt,f,0.8871,noRew,,,,,,0,17,0,17,0,1,,,,,,,,,,,,,,,,,
295444,2022-11-30_15h04.52.694,vts_reward_expectancy_bt,2022.2.4,Win32,59.9268892,Chrome,1536,864,,,,,0,513,,,,,,,,,,,,,,,,,H,160,hexagon,1,0,,,,,,,,,,,,,,,,switch,number,numSwt,k,0.6976,noRew,,,,,,0,18,0,18,0,1,,,,,,,,,,,,,,,,,
295444,2022-11-30_15h04.52.694,vts_reward_expectancy_bt,2022.2.4,Win32,59.9268892,Chrome,1536,864,,,,,0,513,,,,,,,,,,,,,,,,,B,146,circle,1,0,,,,,,,,,,,,,,,,switch,letter,lettSwt,d,0.5982,noRew,,,,,,0,19,0,19,0,1,,,,,,,,,,,,,,,,,
295444,2022-11-30_15h04.52.694,vts_reward_expectancy_bt,2022.2.4,Win32,59.9268892,Chrome,1536,864,,,,,0,513,,,,,,,,,,,,,,,,,Y,174,star,1,0,,,,,,,,,,,,,,,,switch,number,numSwt,k,0.5014,noRew,,,,,,0,20,0,20,0,1,,,,,,,,,,,,,,,,,
295444,2022-11-30_15h04.52.694,vts_reward_expectancy_bt,2022.2.4,Win32,59.9268892,Chrome,1536,864,,,,,0,513,,,,,,,,,,,,,,,,,W,160,hexagon,1,0,,,,,,,,,,,,,,,,repeat,number,numRpt,k,0.6808,noRew,,,,,,0,21,0,21,0,1,,,,,,,,,,,,,,,,,
295444,2022-11-30_15h04.52.694,vts_reward_expectancy_bt,2022.2.4,Win32,59.9268892,Chrome,1536,864,,,,,0,513,,,,,,,,,,,,,,,,,H,181,triangle,1,0,,,,,,,,,,,,,,,,switch,letter,lettSwt,d,1.132,noRew,,,,,,0,22,0,22,0,1,,,,,,,,,,,,,,,,,
295444,2022-11-30_15h04.52.694,vts_reward_expectancy_bt,2022.2.4,Win32,59.9268892,Chrome,1536,864,,,,,0,513,,,,,,,,,,,,,,,,,B,146,circle,1,0,,,,,,,,,,,,,,,,repeat,letter,lettRpt,d,0.5917,noRew,,,,,,0,23,0,23,0,1,,,,,,,,,,,,,,,,,
295444,2022-11-30_15h04.52.694,vts_reward_expectancy_bt,2022.2.4,Win32,59.9268892,Chrome,1536,864,,,,,0,513,,,,,,,,,,,,,,,,,S,125,hexagon,1,0,,,,,,,,,,,,,,,,switch,number,numSwt,j,0.669,noRew,,,,,,0,24,0,24,0,1,,,,,,,,,,,,,,,,,
295444,2022-11-30_15h04.52.694,vts_reward_expectancy_bt,2022.2.4,Win32,59.9268892,Chrome,1536,864,,,,,0,513,,,,,,,,,,,,,,,,,F,139,star,1,0,,,,,,,,,,,,,,,,repeat,number,numRpt,j,0.6392,noRew,,,,,,0,25,0,25,0,1,,,,,,,,,,,,,,,,,
295444,2022-11-30_15h04.52.694,vts_reward_expectancy_bt,2022.2.4,Win32,59.9268892,Chrome,1536,864,,,,,0,513,,,,,,,,,,,,,,,,,U,132,circle,1,0,,,,,,,,,,,,,,,,repeat,number,numRpt,j,0.8308,noRew,,,,,,0,26,0,26,0,1,,,,,,,,,,,,,,,,,
295444,2022-11-30_15h04.52.694,vts_reward_expectancy_bt,2022.2.4,Win32,59.9268892,Chrome,1536,864,,,,,0,513,,,,,,,,,,,,,,,,,B,160,hexagon,1,0,,,,,,,,,,,,,,,,switch,letter,lettSwt,d,0.5766,noRew,,,,,,0,27,0,27,0,1,,,,,,,,,,,,,,,,,
295444,2022-11-30_15h04.52.694,vts_reward_expectancy_bt,2022.2.4,Win32,59.9268892,Chrome,1536,864,,,,,0,513,,,,,,,,,,,,,,,,,Y,160,star,1,0,,,,,,,,,,,,,,,,repeat,letter,lettRpt,f,0.6698,noRew,,,,,,0,28,0,28,0,1,,,,,,,,,,,,,,,,,
295444,2022-11-30_15h04.52.694,vts_reward_expectancy_bt,2022.2.4,Win32,59.9268892,Chrome,1536,864,,,,,0,513,,,,,,,,,,,,,,,,,H,125,hexagon,1,0,,,,,,,,,,,,,,,,repeat,letter,lettRpt,d,0.592,noRew,,,,,,0,29,0,29,0,1,,,,,,,,,,,,,,,,,
295444,2022-11-30_15h04.52.694,vts_reward_expectancy_bt,2022.2.4,Win32,59.9268892,Chrome,1536,864,,,,,0,513,,,,,,,,,,,,,,,,,W,132,hexagon,1,0,,,,,,,,,,,,,,,,switch,number,numSwt,j,0.5553,noRew,,,,,,0,30,0,30,0,1,,,,,,,,,,,,,,,,,
295444,2022-11-30_15h04.52.694,vts_reward_expectancy_bt,2022.2.4,Win32,59.9268892,Chrome,1536,864,,,,,0,513,,,,,,,,,,,,,,,,,U,174,circle,1,0,,,,,,,,,,,,,,,,switch,letter,lettSwt,f,0.7208,noRew,,,,,,0,31,0,31,0,1,,,,,,,,,,,,,,,,,
295444,2022-11-30_15h04.52.694,vts_reward_expectancy_bt,2022.2.4,Win32,59.9268892,Chrome,1536,864,,,,,0,513,,,,,,,,,,,,,,,,,W,167,circle,1,0,,,,,,,,,,,,,,,,switch,number,numSwt,k,0.5684,noRew,,,,,,0,32,0,32,0,1,,,,,,,,,,,,,,,,,
295444,2022-11-30_15h04.52.694,vts_reward_expectancy_bt,2022.2.4,Win32,59.9268892,Chrome,1536,864,,,,,0,513,,,,,,,,,,,,,,,,,D,174,triangle,1,0,,,,,,,,,,,,,,,,repeat,number,numRpt,k,0.6407,noRew,,,,,,0,33,0,33,0,1,,,,,,,,,,,,,,,,,
295444,2022-11-30_15h04.52.694,vts_reward_expectancy_bt,2022.2.4,Win32,59.9268892,Chrome,1536,864,,,,,0,513,,,,,,,,,,,,,,,,,S,139,star,1,0,,,,,,,,,,,,,,,,repeat,number,numRpt,j,0.9344,noRew,,,,,,0,34,0,34,0,1,,,,,,,,,,,,,,,,,
295444,2022-11-30_15h04.52.694,vts_reward_expectancy_bt,2022.2.4,Win32,59.9268892,Chrome,1536,864,,,,,0,513,,,,,,,,,,,,,,,,,Y,160,hexagon,1,0,,,,,,,,,,,,,,,,switch,letter,lettSwt,f,0.5426,noRew,,,,,,0,35,0,35,0,1,,,,,,,,,,,,,,,,,
295444,2022-11-30_15h04.52.694,vts_reward_expectancy_bt,2022.2.4,Win32,59.9268892,Chrome,1536,864,,,,,0,513,,,,,,,,,,,,,,,,,D,132,triangle,1,0,,,,,,,,,,,,,,,,repeat,letter,lettRpt,d,0.5991,noRew,,,,,,0,36,0,36,0,1,,,,,,,,,,,,,,,,,
295444,2022-11-30_15h04.52.694,vts_reward_expectancy_bt,2022.2.4,Win32,59.9268892,Chrome,1536,864,,,,,0,513,,,,,,,,,,,,,,,,,W,139,star,1,0,,,,,,,,,,,,,,,,switch,number,numSwt,j,0.5076,noRew,,,,,,0,37,0,37,0,1,,,,,,,,,,,,,,,,,
295444,2022-11-30_15h04.52.694,vts_reward_expectancy_bt,2022.2.4,Win32,59.9268892,Chrome,1536,864,,,,,0,513,,,,,,,,,,,,,,,,,U,146,circle,1,0,,,,,,,,,,,,,,,,switch,letter,lettSwt,f,0.7686,noRew,,,,,,0,38,0,38,0,1,,,,,,,,,,,,,,,,,
295444,2022-11-30_15h04.52.694,vts_reward_expectancy_bt,2022.2.4,Win32,59.9268892,Chrome,1536,864,,,,,0,513,,,,,,,,,,,,,,,,,F,167,star,1,0,,,,,,,,,,,,,,,,repeat,letter,lettRpt,d,0.8835,noRew,,,,,,0,39,0,39,0,1,,,,,,,,,,,,,,,,,
295444,2022-11-30_15h04.52.694,vts_reward_expectancy_bt,2022.2.4,Win32,59.9268892,Chrome,1536,864,,,,,0,513,,,,,,,,,,,,,,,,,S,146,star,1,0,,,,,,,,,,,,,,,,switch,number,numSwt,j,0.6532,noRew,,,,,,0,40,0,40,0,1,,,,,,,,,,,,,,,,,
295444,2022-11-30_15h04.52.694,vts_reward_expectancy_bt,2022.2.4,Win32,59.9268892,Chrome,1536,864,,,,,0,513,,,,,,,,,,,,,,,,,B,160,circle,0,0,,,,,,,,,,,,,,,,repeat,number,NA,j,0.7872,noRew,,,,,,0,41,0,41,0,1,,,,,,,,,,,,,,,,,
295444,2022-11-30_15h04.52.694,vts_reward_expectancy_bt,2022.2.4,Win32,59.9268892,Chrome,1536,864,,,,,0,513,,,,,,,,,,,,,,,,,Y,139,star,1,1,,,,,,,,,,,,,,,,switch,letter,lettSwt,f,1.31,noRew,,,,,,0,42,0,42,0,1,,,,,,,,,,,,,,,,,
295444,2022-11-30_15h04.52.694,vts_reward_expectancy_bt,2022.2.4,Win32,59.9268892,Chrome,1536,864,,,,,0,513,,,,,,,,,,,,,,,,,U,167,circle,1,0,,,,,,,,,,,,,,,,repeat,letter,lettRpt,f,0.9356,noRew,,,,,,0,43,0,43,0,1,,,,,,,,,,,,,,,,,
295444,2022-11-30_15h04.52.694,vts_reward_expectancy_bt,2022.2.4,Win32,59.9268892,Chrome,1536,864,,,,,0,513,,,,,,,,,,,,,,,,,S,160,circle,1,0,,,,,,,,,,,,,,,,switch,number,numSwt,k,0.8095,noRew,,,,,,0,44,0,44,0,1,,,,,,,,,,,,,,,,,
295444,2022-11-30_15h04.52.694,vts_reward_expectancy_bt,2022.2.4,Win32,59.9268892,Chrome,1536,864,,,,,0,513,,,,,,,,,,,,,,,,,U,132,triangle,1,0,,,,,,,,,,,,,,,,repeat,number,numRpt,j,0.8815,noRew,,,,,,0,45,0,45,0,1,,,,,,,,,,,,,,,,,
295444,2022-11-30_15h04.52.694,vts_reward_expectancy_bt,2022.2.4,Win32,59.9268892,Chrome,1536,864,,,,,0,513,,,,,,,,,,,,,,,,,B,125,circle,1,0,,,,,,,,,,,,,,,,switch,letter,lettSwt,d,0.7319,noRew,,,,,,0,46,0,46,0,1,,,,,,,,,,,,,,,,,
295444,2022-11-30_15h04.52.694,vts_reward_expectancy_bt,2022.2.4,Win32,59.9268892,Chrome,1536,864,,,,,0,513,,,,,,,,,,,,,,,,,D,146,hexagon,1,0,,,,,,,,,,,,,,,,repeat,letter,lettRpt,d,0.6448,noRew,,,,,,0,47,0,47,0,1,,,,,,,,,,,,,,,,,
295444,2022-11-30_15h04.52.694,vts_reward_expectancy_bt,2022.2.4,Win32,59.9268892,Chrome,1536,864,,,,,0,513,,,,,,,,,,,,,,,,,H,125,hexagon,1,0,,,,,,,,,,,,,,,,switch,number,numSwt,j,0.7704,noRew,,,,,,0,48,0,48,0,1,,,,,,,,,,,,,,,,,
295444,2022-11-30_15h04.52.694,vts_reward_expectancy_bt,2022.2.4,Win32,59.9268892,Chrome,1536,864,,,,,0,513,,,,,,,,,,,,,,,,,B,139,triangle,1,0,,,,,,,,,,,,,,,,repeat,number,numRpt,j,0.6454,noRew,,,,,,0,49,0,49,0,1,,,,,,,,,,,,,,,,,
295444,2022-11-30_15h04.52.694,vts_reward_expectancy_bt,2022.2.4,Win32,59.9268892,Chrome,1536,864,,,,,0,513,,,,,,,,,,,,,,,,,U,160,circle,1,0,,,,,,,,,,,,,,,,repeat,number,numRpt,k,0.5586,noRew,,,,,,0,50,0,50,0,1,,,,,,,,,,,,,,,,,
295444,2022-11-30_15h04.52.694,vts_reward_expectancy_bt,2022.2.4,Win32,59.9268892,Chrome,1536,864,,,,,0,513,,,,,,,,,,,,,,,,,S,146,star,1,0,,,,,,,,,,,,,,,,switch,letter,lettSwt,f,0.6566,noRew,,,,,,0,51,0,51,0,1,,,,,,,,,,,,,,,,,
295444,2022-11-30_15h04.52.694,vts_reward_expectancy_bt,2022.2.4,Win32,59.9268892,Chrome,1536,864,,,,,0,513,,,,,,,,,,,,,,,,,S,160,hexagon,1,0,,,,,,,,,,,,,,,,switch,number,numSwt,k,0.5658,noRew,,,,,,0,52,0,52,0,1,,,,,,,,,,,,,,,,,
295444,2022-11-30_15h04.52.694,vts_reward_expectancy_bt,2022.2.4,Win32,59.9268892,Chrome,1536,864,,,,,0,513,,,,,,,,,,,,,,,,,Y,139,circle,1,0,,,,,,,,,,,,,,,,repeat,number,numRpt,j,0.5651,noRew,,,,,,0,53,0,53,0,1,,,,,,,,,,,,,,,,,
295444,2022-11-30_15h04.52.694,vts_reward_expectancy_bt,2022.2.4,Win32,59.9268892,Chrome,1536,864,,,,,0,513,,,,,,,,,,,,,,,,,D,181,hexagon,1,0,,,,,,,,,,,,,,,,switch,letter,lettSwt,d,0.8764,noRew,,,,,,0,54,0,54,0,1,,,,,,,,,,,,,,,,,
295444,2022-11-30_15h04.52.694,vts_reward_expectancy_bt,2022.2.4,Win32,59.9268892,Chrome,1536,864,,,,,0,513,,,,,,,,,,,,,,,,,F,125,triangle,1,0,,,,,,,,,,,,,,,,repeat,letter,lettRpt,d,0.6264,noRew,,,,,,0,55,0,55,0,1,,,,,,,,,,,,,,,,,
295444,2022-11-30_15h04.52.694,vts_reward_expectancy_bt,2022.2.4,Win32,59.9268892,Chrome,1536,864,,,,,0,513,,,,,,,,,,,,,,,,,D,146,circle,0,0,,,,,,,,,,,,,,,,repeat,letter,NA,f,0.6727,noRew,,,,,,0,56,0,56,0,1,,,,,,,,,,,,,,,,,
295444,2022-11-30_15h04.52.694,vts_reward_expectancy_bt,2022.2.4,Win32,59.9268892,Chrome,1536,864,,,,,0,513,,,,,,,,,,,,,,,,,S,132,star,1,1,,,,,,,,,,,,,,,,repeat,letter,lettRpt,f,0.6993,noRew,,,,,,0,57,0,57,0,1,,,,,,,,,,,,,,,,,
295444,2022-11-30_15h04.52.694,vts_reward_expectancy_bt,2022.2.4,Win32,59.9268892,Chrome,1536,864,,,,,0,513,,,,,,,,,,,,,,,,,U,139,hexagon,1,0,,,,,,,,,,,,,,,,switch,number,numSwt,j,0.6197,noRew,,,,,,0,58,0,58,0,1,,,,,,,,,,,,,,,,,
295444,2022-11-30_15h04.52.694,vts_reward_expectancy_bt,2022.2.4,Win32,59.9268892,Chrome,1536,864,,,,,0,513,,,,,,,,,,,,,,,,,Y,160,triangle,1,0,,,,,,,,,,,,,,,,repeat,number,numRpt,k,0.7307,noRew,,,,,,0,59,0,59,0,1,,,,,,,,,,,,,,,,,
295444,2022-11-30_15h04.52.694,vts_reward_expectancy_bt,2022.2.4,Win32,59.9268892,Chrome,1536,864,,,,,0,513,,,,,,,,,,,,,,,,,H,146,triangle,1,0,,,,,,,,,,,,,,,,repeat,number,numRpt,j,0.891,noRew,,,,,,0,60,0,60,0,1,,,,,,,,,,,,,,,,,
295444,2022-11-30_15h04.52.694,vts_reward_expectancy_bt,2022.2.4,Win32,59.9268892,Chrome,1536,864,,,,,0,513,,,,,,,,,,,,,,,,,S,167,circle,1,0,,,,,,,,,,,,,,,,repeat,number,numRpt,k,0.9263,noRew,,,,,,0,61,0,61,0,1,,,,,,,,,,,,,,,,,
295444,2022-11-30_15h04.52.694,vts_reward_expectancy_bt,2022.2.4,Win32,59.9268892,Chrome,1536,864,,,,,0,513,,,,,,,,,,,,,,,,,B,132,triangle,1,0,,,,,,,,,,,,,,,,repeat,number,numRpt,j,0.582,noRew,,,,,,0,62,0,62,0,1,,,,,,,,,,,,,,,,,
295444,2022-11-30_15h04.52.694,vts_reward_expectancy_bt,2022.2.4,Win32,59.9268892,Chrome,1536,864,,,,,0,513,,,,,,,,,,,,,,,,,D,181,hexagon,1,0,,,,,,,,,,,,,,,,switch,letter,lettSwt,d,0.7377,noRew,,,,,,0,63,0,63,0,1,,,,,,,,,,,,,,,,,
295444,2022-11-30_15h04.52.694,vts_reward_expectancy_bt,2022.2.4,Win32,59.9268892,Chrome,1536,864,,,,,,,,,,,,,,,,,,,,,,,,,,,,,,,,,,,,,,,,,,,,,,,,,,,,,,,,,,,,,,,,,,,,,,,,,,,,
295444,2022-11-30_15h04.52.694,vts_reward_expectancy_bt,2022.2.4,Win32,59.9268892,Chrome,1536,864,,,,,0,513,,,,,,,,,,,,,,,,,H,139,star,1,0,,,,,,,,,,,,,,,,repeat,letter,lettRpt,d,0.6553,Hi,,,,,,0,,,,,,space,11.0313,low,0,0,0,0,1,,,,,,,,,
295444,2022-11-30_15h04.52.694,vts_reward_expectancy_bt,2022.2.4,Win32,59.9268892,Chrome,1536,864,,,,,1,514,,,,,,,,,,,,,,,,,F,181,circle,1,0,,,,,,,,,,,,,,,,switch,number,numSwt,k,0.555,Lo,,,,,,0,,,,,,,,low,1,0,1,0,1,,,,,,,,,
295444,2022-11-30_15h04.52.694,vts_reward_expectancy_bt,2022.2.4,Win32,59.9268892,Chrome,1536,864,,,,,1,515,,,,,,,,,,,,,,,,,B,125,hexagon,1,0,,,,,,,,,,,,,,,,repeat,number,numRpt,j,0.5635,Lo,,,,,,0,,,,,,,,low,2,0,2,0,1,,,,,,,,,
295444,2022-11-30_15h04.52.694,vts_reward_expectancy_bt,2022.2.4,Win32,59.9268892,Chrome,1536,864,,,,,10,525,,,,,,,,,,,,,,,,,W,132,triangle,1,0,,,,,,,,,,,,,,,,repeat,number,numRpt,j,0.4608,Hi,,,,,,0,,,,,,,,low,3,0,3,0,1,,,,,,,,,
295444,2022-11-30_15h04.52.694,vts_reward_expectancy_bt,2022.2.4,Win32,59.9268892,Chrome,1536,864,,,,,10,535,,,,,,,,,,,,,,,,,S,167,star,1,0,,,,,,,,,,,,,,,,switch,letter,lettSwt,f,0.4819,Hi,,,,,,0,,,,,,,,low,4,0,4,0,1,,,,,,,,,
295444,2022-11-30_15h04.52.694,vts_reward_expectancy_bt,2022.2.4,Win32,59.9268892,Chrome,1536,864,,,,,1,536,,,,,,,,,,,,,,,,,U,160,circle,1,0,,,,,,,,,,,,,,,,switch,number,numSwt,k,0.4529,Lo,,,,,,0,,,,,,,,low,5,0,5,0,1,,,,,,,,,
295444,2022-11-30_15h04.52.694,vts_reward_expectancy_bt,2022.2.4,Win32,59.9268892,Chrome,1536,864,,,,,1,537,,,,,,,,,,,,,,,,,Y,146,hexagon,1,0,,,,,,,,,,,,,,,,repeat,number,numRpt,j,0.8081,Lo,,,,,,0,,,,,,,,low,6,0,6,0,1,,,,,,,,,
295444,2022-11-30_15h04.52.694,vts_reward_expectancy_bt,2022.2.4,Win32,59.9268892,Chrome,1536,864,,,,,1,538,,,,,,,,,,,,,,,,,D,174,triangle,1,0,,,,,,,,,,,,,,,,repeat,number,numRpt,k,0.564,Hi,,,,,,0,,,,,,,,low,7,0,7,0,1,,,,,,,,,
295444,2022-11-30_15h04.52.694,vts_reward_expectancy_bt,2022.2.4,Win32,59.9268892,Chrome,1536,864,,,,,1,539,,,,,,,,,,,,,,,,,H,139,hexagon,1,0,,,,,,,,,,,,,,,,switch,letter,lettSwt,d,0.7069,Lo,,,,,,0,,,,,,,,low,8,0,8,0,1,,,,,,,,,
295444,2022-11-30_15h04.52.694,vts_reward_expectancy_bt,2022.2.4,Win32,59.9268892,Chrome,1536,864,,,,,1,540,,,,,,,,,,,,,,,,,F,181,circle,1,0,,,,,,,,,,,,,,,,repeat,letter,lettRpt,d,0.6279,Lo,,,,,,0,,,,,,,,low,9,0,9,0,1,,,,,,,,,
295444,2022-11-30_15h04.52.694,vts_reward_expectancy_bt,2022.2.4,Win32,59.9268892,Chrome,1536,864,,,,,1,541,,,,,,,,,,,,,,,,,B,125,triangle,1,0,,,,,,,,,,,,,,,,repeat,letter,lettRpt,d,0.5968,Hi,,,,,,0,,,,,,,,low,10,0,10,0,1,,,,,,,,,
295444,2022-11-30_15h04.52.694,vts_reward_expectancy_bt,2022.2.4,Win32,59.9268892,Chrome,1536,864,,,,,10,551,,,,,,,,,,,,,,,,,W,132,star,1,0,,,,,,,,,,,,,,,,repeat,letter,lettRpt,f,0.5185,Hi,,,,,,0,,,,,,,,low,11,0,11,0,1,,,,,,,,,
295444,2022-11-30_15h04.52.694,vts_reward_expectancy_bt,2022.2.4,Win32,59.9268892,Chrome,1536,864,,,,,10,561,,,,,,,,,,,,,,,,,S,167,star,1,0,,,,,,,,,,,,,,,,switch,number,numSwt,k,0.555,Hi,,,,,,0,,,,,,,,low,12,0,12,0,1,,,,,,,,,
295444,2022-11-30_15h04.52.694,vts_reward_expectancy_bt,2022.2.4,Win32,59.9268892,Chrome,1536,864,,,,,10,571,,,,,,,,,,,,,,,,,U,160,triangle,1,0,,,,,,,,,,,,,,,,repeat,number,numRpt,k,0.5002,Hi,,,,,,0,,,,,,,,low,13,0,13,0,1,,,,,,,,,
295444,2022-11-30_15h04.52.694,vts_reward_expectancy_bt,2022.2.4,Win32,59.9268892,Chrome,1536,864,,,,,10,581,,,,,,,,,,,,,,,,,Y,146,circle,1,0,,,,,,,,,,,,,,,,switch,letter,lettSwt,f,0.4856,Lo,,,,,,0,,,,,,,,low,14,0,14,0,1,,,,,,,,,
295444,2022-11-30_15h04.52.694,vts_reward_expectancy_bt,2022.2.4,Win32,59.9268892,Chrome,1536,864,,,,,1,582,,,,,,,,,,,,,,,,,D,174,hexagon,1,0,,,,,,,,,,,,,,,,repeat,letter,lettRpt,d,0.7615,Lo,,,,,,0,,,,,,,,low,15,0,15,0,1,,,,,,,,,
295444,2022-11-30_15h04.52.694,vts_reward_expectancy_bt,2022.2.4,Win32,59.9268892,Chrome,1536,864,,,,,1,583,,,,,,,,,,,,,,,,,W,167,circle,1,0,,,,,,,,,,,,,,,,switch,number,numSwt,k,0.6586,Lo,,,,,,0,,,,,,,,low,16,0,16,0,1,,,,,,,,,
295444,2022-11-30_15h04.52.694,vts_reward_expectancy_bt,2022.2.4,Win32,59.9268892,Chrome,1536,864,,,,,10,593,,,,,,,,,,,,,,,,,F,160,star,1,0,,,,,,,,,,,,,,,,switch,letter,lettSwt,d,0.6001,Hi,,,,,,0,,,,,,,,low,17,0,17,0,1,,,,,,,,,
295444,2022-11-30_15h04.52.694,vts_reward_expectancy_bt,2022.2.4,Win32,59.9268892,Chrome,1536,864,,,,,0,593,,,,,,,,,,,,,,,,,U,132,triangle,1,0,,,,,,,,,,,,,,,,switch,number,numSwt,j,0.8857,Hi,,,,,,0,,,,,,,,low,18,0,18,0,1,,,,,,,,,
295444,2022-11-30_15h04.52.694,vts_reward_expectancy_bt,2022.2.4,Win32,59.9268892,Chrome,1536,864,,,,,10,603,,,,,,,,,,,,,,,,,Y,174,hexagon,1,0,,,,,,,,,,,,,,,,switch,letter,lettSwt,f,0.5871,Lo,,,,,,0,,,,,,,,low,19,0,19,0,1,,,,,,,,,
295444,2022-11-30_15h04.52.694,vts_reward_expectancy_bt,2022.2.4,Win32,59.9268892,Chrome,1536,864,,,,,10,613,,,,,,,,,,,,,,,,,S,146,star,1,0,,,,,,,,,,,,,,,,switch,number,numSwt,j,0.4765,Hi,,,,,,0,,,,,,,,low,20,0,20,0,1,,,,,,,,,
295444,2022-11-30_15h04.52.694,vts_reward_expectancy_bt,2022.2.4,Win32,59.9268892,Chrome,1536,864,,,,,1,614,,,,,,,,,,,,,,,,,B,139,hexagon,1,0,,,,,,,,,,,,,,,,switch,letter,lettSwt,d,0.4405,Lo,,,,,,0,,,,,,,,low,21,0,21,0,1,,,,,,,,,
295444,2022-11-30_15h04.52.694,vts_reward_expectancy_bt,2022.2.4,Win32,59.9268892,Chrome,1536,864,,,,,1,615,,,,,,,,,,,,,,,,,D,125,circle,1,0,,,,,,,,,,,,,,,,switch,number,numSwt,j,0.4092,Lo,,,,,,0,,,,,,,,low,22,0,22,0,1,,,,,,,,,
295444,2022-11-30_15h04.52.694,vts_reward_expectancy_bt,2022.2.4,Win32,59.9268892,Chrome,1536,864,,,,,1,616,,,,,,,,,,,,,,,,,H,181,triangle,1,0,,,,,,,,,,,,,,,,repeat,number,numRpt,k,0.5534,Hi,,,,,,0,,,,,,,,low,23,0,23,0,1,,,,,,,,,
295444,2022-11-30_15h04.52.694,vts_reward_expectancy_bt,2022.2.4,Win32,59.9268892,Chrome,1536,864,,,,,1,617,,,,,,,,,,,,,,,,,S,132,circle,1,0,,,,,,,,,,,,,,,,switch,letter,lettSwt,f,0.6653,Lo,,,,,,0,,,,,,,,low,24,0,24,0,1,,,,,,,,,
295444,2022-11-30_15h04.52.694,vts_reward_expectancy_bt,2022.2.4,Win32,59.9268892,Chrome,1536,864,,,,,10,627,,,,,,,,,,,,,,,,,F,160,triangle,1,0,,,,,,,,,,,,,,,,repeat,letter,lettRpt,d,0.3446,Hi,,,,,,0,,,,,,,,low,25,0,25,0,1,,,,,,,,,
295444,2022-11-30_15h04.52.694,vts_reward_expectancy_bt,2022.2.4,Win32,59.9268892,Chrome,1536,864,,,,,1,628,,,,,,,,,,,,,,,,,D,174,star,1,0,,,,,,,,,,,,,,,,switch,number,numSwt,k,0.4904,Hi,,,,,,0,,,,,,,,low,26,0,26,0,1,,,,,,,,,
295444,2022-11-30_15h04.52.694,vts_reward_expectancy_bt,2022.2.4,Win32,59.9268892,Chrome,1536,864,,,,,10,638,,,,,,,,,,,,,,,,,H,139,hexagon,1,0,,,,,,,,,,,,,,,,repeat,number,numRpt,j,0.4681,Lo,,,,,,0,,,,,,,,low,27,0,27,0,1,,,,,,,,,
295444,2022-11-30_15h04.52.694,vts_reward_expectancy_bt,2022.2.4,Win32,59.9268892,Chrome,1536,864,,,,,1,639,,,,,,,,,,,,,,,,,Y,181,hexagon,1,0,,,,,,,,,,,,,,,,switch,letter,lettSwt,f,0.608,Lo,,,,,,0,,,,,,,,low,28,0,28,0,1,,,,,,,,,
295444,2022-11-30_15h04.52.694,vts_reward_expectancy_bt,2022.2.4,Win32,59.9268892,Chrome,1536,864,,,,,1,640,,,,,,,,,,,,,,,,,W,125,circle,1,0,,,,,,,,,,,,,,,,repeat,letter,lettRpt,f,0.6982,Lo,,,,,,0,,,,,,,,low,29,0,29,0,1,,,,,,,,,
295444,2022-11-30_15h04.52.694,vts_reward_expectancy_bt,2022.2.4,Win32,59.9268892,Chrome,1536,864,,,,,10,650,,,,,,,,,,,,,,,,,B,146,triangle,1,0,,,,,,,,,,,,,,,,switch,number,numSwt,j,0.4943,Hi,,,,,,0,,,,,,,,low,30,0,30,0,1,,,,,,,,,
295444,2022-11-30_15h04.52.694,vts_reward_expectancy_bt,2022.2.4,Win32,59.9268892,Chrome,1536,864,,,,,0,650,,,,,,,,,,,,,,,,,U,167,star,1,0,,,,,,,,,,,,,,,,switch,letter,lettSwt,f,0.699,Hi,,,,,,0,,,,,,,,low,31,0,31,0,1,,,,,,,,,
295444,2022-11-30_15h04.52.694,vts_reward_expectancy_bt,2022.2.4,Win32,59.9268892,Chrome,1536,864,,,,,0,650,,,,,,,,,,,,,,,,,F,160,triangle,1,0,,,,,,,,,,,,,,,,switch,number,numSwt,k,0.8343,Hi,,,,,,1,,,,,,space,4.5169,low,0,0,0,0,1,,,,,,,,,
295444,2022-11-30_15h04.52.694,vts_reward_expectancy_bt,2022.2.4,Win32,59.9268892,Chrome,1536,864,,,,,10,660,,,,,,,,,,,,,,,,,Y,125,star,1,0,,,,,,,,,,,,,,,,repeat,number,numRpt,j,0.3887,Hi,,,,,,1,,,,,,,,low,1,0,1,0,1,,,,,,,,,
295444,2022-11-30_15h04.52.694,vts_reward_expectancy_bt,2022.2.4,Win32,59.9268892,Chrome,1536,864,,,,,10,670,,,,,,,,,,,,,,,,,W,139,circle,1,0,,,,,,,,,,,,,,,,repeat,number,numRpt,j,0.5671,Lo,,,,,,1,,,,,,,,low,2,0,2,0,1,,,,,,,,,
295444,2022-11-30_15h04.52.694,vts_reward_expectancy_bt,2022.2.4,Win32,59.9268892,Chrome,1536,864,,,,,1,671,,,,,,,,,,,,,,,,,B,167,hexagon,1,0,,,,,,,,,,,,,,,,repeat,number,numRpt,k,0.5711,Lo,,,,,,1,,,,,,,,low,3,0,3,0,1,,,,,,,,,
295444,2022-11-30_15h04.52.694,vts_reward_expectancy_bt,2022.2.4,Win32,59.9268892,Chrome,1536,864,,,,,0,671,,,,,,,,,,,,,,,,,D,181,triangle,1,0,,,,,,,,,,,,,,,,repeat,number,numRpt,k,0.6003,Hi,,,,,,1,,,,,,,,low,4,0,4,0,1,,,,,,,,,
295444,2022-11-30_15h04.52.694,vts_reward_expectancy_bt,2022.2.4,Win32,59.9268892,Chrome,1536,864,,,,,0,671,,,,,,,,,,,,,,,,,U,146,star,1,0,,,,,,,,,,,,,,,,repeat,number,numRpt,j,0.5257,Hi,,,,,,1,,,,,,,,low,5,0,5,0,1,,,,,,,,,
295444,2022-11-30_15h04.52.694,vts_reward_expectancy_bt,2022.2.4,Win32,59.9268892,Chrome,1536,864,,,,,0,671,,,,,,,,,,,,,,,,,H,174,circle,0,0,,,,,,,,,,,,,,,,switch,letter,NA,f,0.4901,Hi,,,,,,1,,,,,,,,low,6,0,6,0,1,,,,,,,,,
295444,2022-11-30_15h04.52.694,vts_reward_expectancy_bt,2022.2.4,Win32,59.9268892,Chrome,1536,864,,,,,0,671,,,,,,,,,,,,,,,,,S,132,hexagon,0,1,,,,,,,,,,,,,,,,repeat,letter,NA,d,0.3149,Hi,,,,,,1,,,,,,,,low,7,0,7,0,1,,,,,,,,,
295444,2022-11-30_15h04.52.694,vts_reward_expectancy_bt,2022.2.4,Win32,59.9268892,Chrome,1536,864,,,,,1,672,,,,,,,,,,,,,,,,,F,160,hexagon,1,1,,,,,,,,,,,,,,,,repeat,letter,lettRpt,d,0.6258,Lo,,,,,,1,,,,,,,,low,8,0,8,0,1,,,,,,,,,
295444,2022-11-30_15h04.52.694,vts_reward_expectancy_bt,2022.2.4,Win32,59.9268892,Chrome,1536,864,,,,,1,673,,,,,,,,,,,,,,,,,Y,125,circle,1,0,,,,,,,,,,,,,,,,switch,number,numSwt,j,0.3693,Lo,,,,,,1,,,,,,,,low,9,0,9,0,1,,,,,,,,,
295444,2022-11-30_15h04.52.694,vts_reward_expectancy_bt,2022.2.4,Win32,59.9268892,Chrome,1536,864,,,,,1,674,,,,,,,,,,,,,,,,,W,139,triangle,1,0,,,,,,,,,,,,,,,,switch,letter,lettSwt,f,0.4242,Hi,,,,,,1,,,,,,,,low,10,0,10,0,1,,,,,,,,,
295444,2022-11-30_15h04.52.694,vts_reward_expectancy_bt,2022.2.4,Win32,59.9268892,Chrome,1536,864,,,,,1,675,,,,,,,,,,,,,,,,,B,167,star,1,0,,,,,,,,,,,,,,,,switch,number,numSwt,k,0.4507,Hi,,,,,,1,,,,,,,,low,11,0,11,0,1,,,,,,,,,
295444,2022-11-30_15h04.52.694,vts_reward_expectancy_bt,2022.2.4,Win32,59.9268892,Chrome,1536,864,,,,,1,676,,,,,,,,,,,,,,,,,D,181,circle,1,0,,,,,,,,,,,,,,,,repeat,number,numRpt,k,0.5889,Lo,,,,,,1,,,,,,,,low,12,0,12,0,1,,,,,,,,,
295444,2022-11-30_15h04.52.694,vts_reward_expectancy_bt,2022.2.4,Win32,59.9268892,Chrome,1536,864,,,,,1,677,,,,,,,,,,,,,,,,,U,146,hexagon,1,0,,,,,,,,,,,,,,,,repeat,number,numRpt,j,0.465,Lo,,,,,,1,,,,,,,,low,13,0,13,0,1,,,,,,,,,
295444,2022-11-30_15h04.52.694,vts_reward_expectancy_bt,2022.2.4,Win32,59.9268892,Chrome,1536,864,,,,,0,677,,,,,,,,,,,,,,,,,H,174,triangle,1,0,,,,,,,,,,,,,,,,repeat,number,numRpt,k,0.639,Hi,,,,,,1,,,,,,,,low,14,0,14,0,1,,,,,,,,,
295444,2022-11-30_15h04.52.694,vts_reward_expectancy_bt,2022.2.4,Win32,59.9268892,Chrome,1536,864,,,,,0,677,,,,,,,,,,,,,,,,,S,132,star,1,0,,,,,,,,,,,,,,,,switch,letter,lettSwt,f,0.6085,Hi,,,,,,1,,,,,,,,low,15,0,15,0,1,,,,,,,,,
295444,2022-11-30_15h04.52.694,vts_reward_expectancy_bt,2022.2.4,Win32,59.9268892,Chrome,1536,864,,,,,10,687,,,,,,,,,,,,,,,,,H,146,hexagon,1,0,,,,,,,,,,,,,,,,repeat,letter,lettRpt,d,0.5515,Lo,,,,,,1,,,,,,,,low,16,0,16,0,1,,,,,,,,,
295444,2022-11-30_15h04.52.694,vts_reward_expectancy_bt,2022.2.4,Win32,59.9268892,Chrome,1536,864,,,,,10,697,,,,,,,,,,,,,,,,,S,174,circle,1,0,,,,,,,,,,,,,,,,repeat,letter,lettRpt,f,0.5666,Lo,,,,,,1,,,,,,,,low,17,0,17,0,1,,,,,,,,,
295444,2022-11-30_15h04.52.694,vts_reward_expectancy_bt,2022.2.4,Win32,59.9268892,Chrome,1536,864,,,,,0,697,,,,,,,,,,,,,,,,,F,167,star,1,0,,,,,,,,,,,,,,,,switch,number,numSwt,k,0.5134,Hi,,,,,,1,,,,,,,,low,18,0,18,0,1,,,,,,,,,
295444,2022-11-30_15h04.52.694,vts_reward_expectancy_bt,2022.2.4,Win32,59.9268892,Chrome,1536,864,,,,,0,697,,,,,,,,,,,,,,,,,B,181,triangle,1,0,,,,,,,,,,,,,,,,repeat,number,numRpt,k,0.5504,Hi,,,,,,1,,,,,,,,low,19,0,19,0,1,,,,,,,,,
295444,2022-11-30_15h04.52.694,vts_reward_expectancy_bt,2022.2.4,Win32,59.9268892,Chrome,1536,864,,,,,1,698,,,,,,,,,,,,,,,,,Y,139,circle,1,0,,,,,,,,,,,,,,,,repeat,number,numRpt,j,0.4223,Lo,,,,,,1,,,,,,,,low,20,0,20,0,1,,,,,,,,,
295444,2022-11-30_15h04.52.694,vts_reward_expectancy_bt,2022.2.4,Win32,59.9268892,Chrome,1536,864,,,,,10,708,,,,,,,,,,,,,,,,,D,125,star,1,0,,,,,,,,,,,,,,,,switch,letter,lettSwt,d,0.3936,Hi,,,,,,1,,,,,,,,low,21,0,21,0,1,,,,,,,,,
295444,2022-11-30_15h04.52.694,vts_reward_expectancy_bt,2022.2.4,Win32,59.9268892,Chrome,1536,864,,,,,10,718,,,,,,,,,,,,,,,,,W,160,triangle,1,0,,,,,,,,,,,,,,,,repeat,letter,lettRpt,f,0.4245,Hi,,,,,,1,,,,,,,,low,22,0,22,0,1,,,,,,,,,
295444,2022-11-30_15h04.52.694,vts_reward_expectancy_bt,2022.2.4,Win32,59.9268892,Chrome,1536,864,,,,,1,719,,,,,,,,,,,,,,,,,U,132,hexagon,1,0,,,,,,,,,,,,,,,,repeat,letter,lettRpt,f,0.5606,Lo,,,,,,1,,,,,,,,low,23,0,23,0,1,,,,,,,,,
295444,2022-11-30_15h04.52.694,vts_reward_expectancy_bt,2022.2.4,Win32,59.9268892,Chrome,1536,864,,,,,0,719,,,,,,,,,,,,,,,,,F,146,star,0,0,,,,,,,,,,,,,,,,switch,number,NA,k,0.4258,Lo,,,,,,1,,,,,,,,low,24,0,24,0,1,,,,,,,,,
295444,2022-11-30_15h04.52.694,vts_reward_expectancy_bt,2022.2.4,Win32,59.9268892,Chrome,1536,864,,,,,0,719,,,,,,,,,,,,,,,,,Y,167,hexagon,0,1,,,,,,,,,,,,,,,,repeat,number,NA,j,0.6426,Lo,,,,,,1,,,,,,,,low,25,0,25,0,1,,,,,,,,,
295444,2022-11-30_15h04.52.694,vts_reward_expectancy_bt,2022.2.4,Win32,59.9268892,Chrome,1536,864,,,,,1,720,,,,,,,,,,,,,,,,,W,181,circle,1,1,,,,,,,,,,,,,,,,repeat,number,numRpt,k,0.6997,Lo,,,,,,1,,,,,,,,low,26,0,26,0,1,,,,,,,,,
295444,2022-11-30_15h04.52.694,vts_reward_expectancy_bt,2022.2.4,Win32,59.9268892,Chrome,1536,864,,,,,0,720,,,,,,,,,,,,,,,,,S,160,triangle,0,0,,,,,,,,,,,,,,,,repeat,number,NA,j,0.5973,Lo,,,,,,1,,,,,,,,low,27,0,27,0,1,,,,,,,,,
295444,2022-11-30_15h04.52.694,vts_reward_expectancy_bt,2022.2.4,Win32,59.9268892,Chrome,1536,864,,,,,1,721,,,,,,,,,,,,,,,,,D,132,triangle,1,1,,,,,,,,,,,,,,,,switch,letter,lettSwt,d,0.5206,Hi,,,,,,1,,,,,,,,low,28,0,28,0,1,,,,,,,,,
295444,2022-11-30_15h04.52.694,vts_reward_expectancy_bt,2022.2.4,Win32,59.9268892,Chrome,1536,864,,,,,10,731,,,,,,,,,,,,,,,,,U,174,star,1,0,,,,,,,,,,,,,,,,repeat,letter,lettRpt,f,0.4504,Hi,,,,,,1,,,,,,,,low,29,0,29,0,1,,,,,,,,,
295444,2022-11-30_15h04.52.694,vts_reward_expectancy_bt,2022.2.4,Win32,59.9268892,Chrome,1536,864,,,,,1,732,,,,,,,,,,,,,,,,,H,125,hexagon,1,0,,,,,,,,,,,,,,,,repeat,letter,lettRpt,d,0.6159,Lo,,,,,,1,,,,,,,,low,30,0,30,0,1,,,,,,,,,
295444,2022-11-30_15h04.52.694,vts_reward_expectancy_bt,2022.2.4,Win32,59.9268892,Chrome,1536,864,,,,,1,733,,,,,,,,,,,,,,,,,B,139,circle,1,0,,,,,,,,,,,,,,,,switch,number,numSwt,j,0.754,Lo,,,,,,1,,,,,,,,low,31,0,31,0,1,,,,,,,,,
295444,2022-11-30_15h04.52.694,vts_reward_expectancy_bt,2022.2.4,Win32,59.9268892,Chrome,1536,864,,,,,1,734,,,,,,,,,,,,,,,,,F,174,circle,1,0,,,,,,,,,,,,,,,,switch,letter,lettSwt,d,0.5159,Lo,,,,,,2,,,,,,space,1.0824,low,0,0,0,0,1,,,,,,,,,
295444,2022-11-30_15h04.52.694,vts_reward_expectancy_bt,2022.2.4,Win32,59.9268892,Chrome,1536,864,,,,,1,735,,,,,,,,,,,,,,,,,H,160,triangle,1,0,,,,,,,,,,,,,,,,repeat,letter,lettRpt,d,0.4766,Hi,,,,,,2,,,,,,,,low,1,0,1,0,1,,,,,,,,,
295444,2022-11-30_15h04.52.694,vts_reward_expectancy_bt,2022.2.4,Win32,59.9268892,Chrome,1536,864,,,,,0,735,,,,,,,,,,,,,,,,,U,139,hexagon,0,0,,,,,,,,,,,,,,,,repeat,letter,NA,d,0.4222,Hi,,,,,,2,,,,,,,,low,2,0,2,0,1,,,,,,,,,
295444,2022-11-30_15h04.52.694,vts_reward_expectancy_bt,2022.2.4,Win32,59.9268892,Chrome,1536,864,,,,,1,736,,,,,,,,,,,,,,,,,W,125,star,1,1,,,,,,,,,,,,,,,,repeat,letter,lettRpt,f,0.4829,Hi,,,,,,2,,,,,,,,low,3,0,3,0,1,,,,,,,,,
295444,2022-11-30_15h04.52.694,vts_reward_expectancy_bt,2022.2.4,Win32,59.9268892,Chrome,1536,864,,,,,1,737,,,,,,,,,,,,,,,,,D,167,circle,1,0,,,,,,,,,,,,,,,,repeat,letter,lettRpt,d,0.5588,Lo,,,,,,2,,,,,,,,low,4,0,4,0,1,,,,,,,,,
295444,2022-11-30_15h04.52.694,vts_reward_expectancy_bt,2022.2.4,Win32,59.9268892,Chrome,1536,864,,,,,0,737,,,,,,,,,,,,,,,,,Y,146,triangle,1,0,,,,,,,,,,,,,,,,switch,number,numSwt,j,0.5161,Hi,,,,,,2,,,,,,,,low,5,0,5,0,1,,,,,,,,,
295444,2022-11-30_15h04.52.694,vts_reward_expectancy_bt,2022.2.4,Win32,59.9268892,Chrome,1536,864,,,,,10,747,,,,,,,,,,,,,,,,,B,132,hexagon,1,0,,,,,,,,,,,,,,,,switch,letter,lettSwt,d,0.4323,Lo,,,,,,2,,,,,,,,low,6,0,6,0,1,,,,,,,,,
295444,2022-11-30_15h04.52.694,vts_reward_expectancy_bt,2022.2.4,Win32,59.9268892,Chrome,1536,864,,,,,10,757,,,,,,,,,,,,,,,,,S,181,star,1,0,,,,,,,,,,,,,,,,repeat,letter,lettRpt,f,0.3444,Hi,,,,,,2,,,,,,,,low,7,0,7,0,1,,,,,,,,,
295444,2022-11-30_15h04.52.694,vts_reward_expectancy_bt,2022.2.4,Win32,59.9268892,Chrome,1536,864,,,,,10,767,,,,,,,,,,,,,,,,,F,174,circle,1,0,,,,,,,,,,,,,,,,switch,number,numSwt,k,0.4608,Lo,,,,,,2,,,,,,,,low,8,0,8,0,1,,,,,,,,,
295444,2022-11-30_15h04.52.694,vts_reward_expectancy_bt,2022.2.4,Win32,59.9268892,Chrome,1536,864,,,,,10,777,,,,,,,,,,,,,,,,,H,160,triangle,1,0,,,,,,,,,,,,,,,,repeat,number,numRpt,k,0.4824,Hi,,,,,,2,,,,,,,,low,9,0,9,0,1,,,,,,,,,
295444,2022-11-30_15h04.52.694,vts_reward_expectancy_bt,2022.2.4,Win32,59.9268892,Chrome,1536,864,,,,,0,777,,,,,,,,,,,,,,,,,U,139,star,1,0,,,,,,,,,,,,,,,,switch,letter,lettSwt,f,0.5338,Hi,,,,,,2,,,,,,,,low,10,0,10,0,1,,,,,,,,,
295444,2022-11-30_15h04.52.694,vts_reward_expectancy_bt,2022.2.4,Win32,59.9268892,Chrome,1536,864,,,,,0,777,,,,,,,,,,,,,,,,,W,125,hexagon,0,0,,,,,,,,,,,,,,,,repeat,letter,NA,d,0.4645,Hi,,,,,,2,,,,,,,,low,11,0,11,0,1,,,,,,,,,
295444,2022-11-30_15h04.52.694,vts_reward_expectancy_bt,2022.2.4,Win32,59.9268892,Chrome,1536,864,,,,,10,787,,,,,,,,,,,,,,,,,D,167,circle,1,1,,,,,,,,,,,,,,,,repeat,letter,lettRpt,d,0.5841,Lo,,,,,,2,,,,,,,,low,12,0,12,0,1,,,,,,,,,
295444,2022-11-30_15h04.52.694,vts_reward_expectancy_bt,2022.2.4,Win32,59.9268892,Chrome,1536,864,,,,,10,797,,,,,,,,,,,,,,,,,Y,146,star,1,0,,,,,,,,,,,,,,,,repeat,letter,lettRpt,f,0.5155,Hi,,,,,,2,,,,,,,,low,13,0,13,0,1,,,,,,,,,
295444,2022-11-30_15h04.52.694,vts_reward_expectancy_bt,2022.2.4,Win32,59.9268892,Chrome,1536,864,,,,,10,807,,,,,,,,,,,,,,,,,B,132,triangle,1,0,,,,,,,,,,,,,,,,switch,number,numSwt,j,0.4096,Hi,,,,,,2,,,,,,,,low,14,0,14,0,1,,,,,,,,,
295444,2022-11-30_15h04.52.694,vts_reward_expectancy_bt,2022.2.4,Win32,59.9268892,Chrome,1536,864,,,,,10,817,,,,,,,,,,,,,,,,,S,181,hexagon,1,0,,,,,,,,,,,,,,,,switch,letter,lettSwt,f,0.5028,Lo,,,,,,2,,,,,,,,low,15,0,15,0,1,,,,,,,,,
295444,2022-11-30_15h04.52.694,vts_reward_expectancy_bt,2022.2.4,Win32,59.9268892,Chrome,1536,864,,,,,10,827,,,,,,,,,,,,,,,,,F,174,circle,1,0,,,,,,,,,,,,,,,,switch,number,numSwt,k,0.6037,Lo,,,,,,2,,,,,,,,low,16,0,16,0,1,,,,,,,,,
295444,2022-11-30_15h04.52.694,vts_reward_expectancy_bt,2022.2.4,Win32,59.9268892,Chrome,1536,864,,,,,1,828,,,,,,,,,,,,,,,,,H,167,hexagon,1,0,,,,,,,,,,,,,,,,repeat,number,numRpt,k,0.7212,Lo,,,,,,2,,,,,,,,low,17,0,17,0,1,,,,,,,,,
295444,2022-11-30_15h04.52.694,vts_reward_expectancy_bt,2022.2.4,Win32,59.9268892,Chrome,1536,864,,,,,0,828,,,,,,,,,,,,,,,,,U,181,star,1,0,,,,,,,,,,,,,,,,switch,letter,lettSwt,f,0.4672,Hi,,,,,,2,,,,,,,,low,18,0,18,0,1,,,,,,,,,
295444,2022-11-30_15h04.52.694,vts_reward_expectancy_bt,2022.2.4,Win32,59.9268892,Chrome,1536,864,,,,,0,828,,,,,,,,,,,,,,,,,D,146,triangle,1,0,,,,,,,,,,,,,,,,repeat,letter,lettRpt,d,0.6143,Hi,,,,,,2,,,,,,,,low,19,0,19,0,1,,,,,,,,,
295444,2022-11-30_15h04.52.694,vts_reward_expectancy_bt,2022.2.4,Win32,59.9268892,Chrome,1536,864,,,,,0,828,,,,,,,,,,,,,,,,,S,125,triangle,1,0,,,,,,,,,,,,,,,,repeat,letter,lettRpt,f,0.611,Hi,,,,,,2,,,,,,,,low,20,0,20,0,1,,,,,,,,,
295444,2022-11-30_15h04.52.694,vts_reward_expectancy_bt,2022.2.4,Win32,59.9268892,Chrome,1536,864,,,,,0,828,,,,,,,,,,,,,,,,,W,160,star,1,0,,,,,,,,,,,,,,,,repeat,letter,lettRpt,f,0.6442,Hi,,,,,,2,,,,,,,,low,21,0,21,0,1,,,,,,,,,
295444,2022-11-30_15h04.52.694,vts_reward_expectancy_bt,2022.2.4,Win32,59.9268892,Chrome,1536,864,,,,,10,838,,,,,,,,,,,,,,,,,B,132,hexagon,1,0,,,,,,,,,,,,,,,,repeat,letter,lettRpt,d,0.4774,Lo,,,,,,2,,,,,,,,low,22,0,22,0,1,,,,,,,,,
295444,2022-11-30_15h04.52.694,vts_reward_expectancy_bt,2022.2.4,Win32,59.9268892,Chrome,1536,864,,,,,10,848,,,,,,,,,,,,,,,,,Y,139,circle,1,0,,,,,,,,,,,,,,,,repeat,letter,lettRpt,f,0.5662,Lo,,,,,,2,,,,,,,,low,23,0,23,0,1,,,,,,,,,
295444,2022-11-30_15h04.52.694,vts_reward_expectancy_bt,2022.2.4,Win32,59.9268892,Chrome,1536,864,,,,,1,849,,,,,,,,,,,,,,,,,D,160,circle,1,0,,,,,,,,,,,,,,,,repeat,letter,lettRpt,d,0.4743,Lo,,,,,,2,,,,,,,,low,24,0,24,0,1,,,,,,,,,
295444,2022-11-30_15h04.52.694,vts_reward_expectancy_bt,2022.2.4,Win32,59.9268892,Chrome,1536,864,,,,,0,849,,,,,,,,,,,,,,,,,F,167,star,0,0,,,,,,,,,,,,,,,,switch,number,NA,j,0.546,Lo,,,,,,2,,,,,,,,low,25,0,25,0,1,,,,,,,,,
295444,2022-11-30_15h04.52.694,vts_reward_expectancy_bt,2022.2.4,Win32,59.9268892,Chrome,1536,864,,,,,0,849,,,,,,,,,,,,,,,,,S,146,triangle,1,1,,,,,,,,,,,,,,,,switch,letter,lettSwt,f,0.4373,Hi,,,,,,2,,,,,,,,low,26,0,26,0,1,,,,,,,,,
295444,2022-11-30_15h04.52.694,vts_reward_expectancy_bt,2022.2.4,Win32,59.9268892,Chrome,1536,864,,,,,1,850,,,,,,,,,,,,,,,,,B,132,hexagon,1,0,,,,,,,,,,,,,,,,switch,number,numSwt,j,0.4473,Lo,,,,,,2,,,,,,,,low,27,0,27,0,1,,,,,,,,,
295444,2022-11-30_15h04.52.694,vts_reward_expectancy_bt,2022.2.4,Win32,59.9268892,Chrome,1536,864,,,,,10,860,,,,,,,,,,,,,,,,,Y,181,circle,1,0,,,,,,,,,,,,,,,,switch,letter,lettSwt,f,0.3876,Lo,,,,,,2,,,,,,,,low,28,0,28,0,1,,,,,,,,,
295444,2022-11-30_15h04.52.694,vts_reward_expectancy_bt,2022.2.4,Win32,59.9268892,Chrome,1536,864,,,,,10,870,,,,,,,,,,,,,,,,,U,125,hexagon,1,0,,,,,,,,,,,,,,,,repeat,letter,lettRpt,f,0.3698,Lo,,,,,,2,,,,,,,,low,29,0,29,0,1,,,,,,,,,
295444,2022-11-30_15h04.52.694,vts_reward_expectancy_bt,2022.2.4,Win32,59.9268892,Chrome,1536,864,,,,,0,870,,,,,,,,,,,,,,,,,H,174,star,0,0,,,,,,,,,,,,,,,,switch,number,NA,j,0.6674,Lo,,,,,,2,,,,,,,,low,30,0,30,0,1,,,,,,,,,
295444,2022-11-30_15h04.52.694,vts_reward_expectancy_bt,2022.2.4,Win32,59.9268892,Chrome,1536,864,,,,,0,870,,,,,,,,,,,,,,,,,W,139,triangle,1,1,,,,,,,,,,,,,,,,switch,letter,lettSwt,f,0.6548,Hi,,,,,,2,,,,,,,,low,31,0,31,0,1,,,,,,,,,
295444,2022-11-30_15h04.52.694,vts_reward_expectancy_bt,2022.2.4,Win32,59.9268892,Chrome,1536,864,,,,,1,871,,,,,,,,,,,,,,,,,S,160,hexagon,1,0,,,,,,,,,,,,,,,,switch,number,numSwt,k,0.5508,Lo,,,,,,3,,,,,,space,0.4583,low,0,0,0,0,1,,,,,,,,,
295444,2022-11-30_15h04.52.694,vts_reward_expectancy_bt,2022.2.4,Win32,59.9268892,Chrome,1536,864,,,,,0,871,,,,,,,,,,,,,,,,,W,181,star,1,0,,,,,,,,,,,,,,,,repeat,number,numRpt,k,0.4996,Hi,,,,,,3,,,,,,,,low,1,0,1,0,1,,,,,,,,,
295444,2022-11-30_15h04.52.694,vts_reward_expectancy_bt,2022.2.4,Win32,59.9268892,Chrome,1536,864,,,,,10,881,,,,,,,,,,,,,,,,,D,174,circle,1,0,,,,,,,,,,,,,,,,repeat,number,numRpt,k,0.4077,Lo,,,,,,3,,,,,,,,low,2,0,2,0,1,,,,,,,,,
295444,2022-11-30_15h04.52.694,vts_reward_expectancy_bt,2022.2.4,Win32,59.9268892,Chrome,1536,864,,,,,1,882,,,,,,,,,,,,,,,,,Y,146,triangle,1,0,,,,,,,,,,,,,,,,repeat,number,numRpt,j,0.3395,Hi,,,,,,3,,,,,,,,low,3,0,3,0,1,,,,,,,,,
295444,2022-11-30_15h04.52.694,vts_reward_expectancy_bt,2022.2.4,Win32,59.9268892,Chrome,1536,864,,,,,10,892,,,,,,,,,,,,,,,,,H,139,hexagon,1,0,,,,,,,,,,,,,,,,switch,letter,lettSwt,d,0.3267,Lo,,,,,,3,,,,,,,,low,4,0,4,0,1,,,,,,,,,
295444,2022-11-30_15h04.52.694,vts_reward_expectancy_bt,2022.2.4,Win32,59.9268892,Chrome,1536,864,,,,,10,902,,,,,,,,,,,,,,,,,B,132,star,1,0,,,,,,,,,,,,,,,,repeat,letter,lettRpt,d,0.3744,Hi,,,,,,3,,,,,,,,low,5,0,5,0,1,,,,,,,,,
295444,2022-11-30_15h04.52.694,vts_reward_expectancy_bt,2022.2.4,Win32,59.9268892,Chrome,1536,864,,,,,10,912,,,,,,,,,,,,,,,,,F,167,circle,1,0,,,,,,,,,,,,,,,,switch,number,numSwt,k,0.4877,Lo,,,,,,3,,,,,,,,low,6,0,6,0,1,,,,,,,,,
295444,2022-11-30_15h04.52.694,vts_reward_expectancy_bt,2022.2.4,Win32,59.9268892,Chrome,1536,864,,,,,10,922,,,,,,,,,,,,,,,,,U,125,triangle,1,0,,,,,,,,,,,,,,,,repeat,number,numRpt,j,0.4175,Hi,,,,,,3,,,,,,,,low,7,0,7,0,1,,,,,,,,,
295444,2022-11-30_15h04.52.694,vts_reward_expectancy_bt,2022.2.4,Win32,59.9268892,Chrome,1536,864,,,,,10,932,,,,,,,,,,,,,,,,,S,160,circle,1,0,,,,,,,,,,,,,,,,repeat,number,numRpt,k,0.4982,Lo,,,,,,3,,,,,,,,low,8,0,8,0,1,,,,,,,,,
295444,2022-11-30_15h04.52.694,vts_reward_expectancy_bt,2022.2.4,Win32,59.9268892,Chrome,1536,864,,,,,10,942,,,,,,,,,,,,,,,,,W,181,star,1,0,,,,,,,,,,,,,,,,switch,letter,lettSwt,f,0.3854,Hi,,,,,,3,,,,,,,,low,9,0,9,0,1,,,,,,,,,
295444,2022-11-30_15h04.52.694,vts_reward_expectancy_bt,2022.2.4,Win32,59.9268892,Chrome,1536,864,,,,,1,943,,,,,,,,,,,,,,,,,D,174,triangle,1,0,,,,,,,,,,,,,,,,repeat,letter,lettRpt,d,0.3391,Hi,,,,,,3,,,,,,,,low,10,0,10,0,1,,,,,,,,,
295444,2022-11-30_15h04.52.694,vts_reward_expectancy_bt,2022.2.4,Win32,59.9268892,Chrome,1536,864,,,,,10,953,,,,,,,,,,,,,,,,,Y,146,hexagon,1,0,,,,,,,,,,,,,,,,switch,number,numSwt,j,0.4383,Lo,,,,,,3,,,,,,,,low,11,0,11,0,1,,,,,,,,,
295444,2022-11-30_15h04.52.694,vts_reward_expectancy_bt,2022.2.4,Win32,59.9268892,Chrome,1536,864,,,,,1,954,,,,,,,,,,,,,,,,,H,139,circle,1,0,,,,,,,,,,,,,,,,repeat,number,numRpt,j,0.4046,Lo,,,,,,3,,,,,,,,low,12,0,12,0,1,,,,,,,,,
295444,2022-11-30_15h04.52.694,vts_reward_expectancy_bt,2022.2.4,Win32,59.9268892,Chrome,1536,864,,,,,0,954,,,,,,,,,,,,,,,,,B,132,star,1,0,,,,,,,,,,,,,,,,repeat,number,numRpt,j,0.5695,Hi,,,,,,3,,,,,,,,low,13,0,13,0,1,,,,,,,,,
295444,2022-11-30_15h04.52.694,vts_reward_expectancy_bt,2022.2.4,Win32,59.9268892,Chrome,1536,864,,,,,1,955,,,,,,,,,,,,,,,,,F,167,hexagon,1,0,,,,,,,,,,,,,,,,switch,letter,lettSwt,d,0.5487,Lo,,,,,,3,,,,,,,,low,14,0,14,0,1,,,,,,,,,
295444,2022-11-30_15h04.52.694,vts_reward_expectancy_bt,2022.2.4,Win32,59.9268892,Chrome,1536,864,,,,,0,955,,,,,,,,,,,,,,,,,U,125,triangle,1,0,,,,,,,,,,,,,,,,switch,number,numSwt,j,0.4818,Hi,,,,,,3,,,,,,,,low,15,0,15,0,1,,,,,,,,,
295444,2022-11-30_15h04.52.694,vts_reward_expectancy_bt,2022.2.4,Win32,59.9268892,Chrome,1536,864,,,,,10,965,,,,,,,,,,,,,,,,,F,125,circle,1,0,,,,,,,,,,,,,,,,switch,letter,lettSwt,d,0.5289,Lo,,,,,,3,,,,,,,,low,16,0,16,0,1,,,,,,,,,
295444,2022-11-30_15h04.52.694,vts_reward_expectancy_bt,2022.2.4,Win32,59.9268892,Chrome,1536,864,,,,,1,966,,,,,,,,,,,,,,,,,W,167,triangle,1,0,,,,,,,,,,,,,,,,switch,number,numSwt,k,0.4011,Hi,,,,,,3,,,,,,,,low,17,0,17,0,1,,,,,,,,,
295444,2022-11-30_15h04.52.694,vts_reward_expectancy_bt,2022.2.4,Win32,59.9268892,Chrome,1536,864,,,,,0,966,,,,,,,,,,,,,,,,,D,132,star,1,0,,,,,,,,,,,,,,,,switch,letter,lettSwt,d,0.6306,Hi,,,,,,3,,,,,,,,low,18,0,18,0,1,,,,,,,,,
295444,2022-11-30_15h04.52.694,vts_reward_expectancy_bt,2022.2.4,Win32,59.9268892,Chrome,1536,864,,,,,1,967,,,,,,,,,,,,,,,,,B,139,hexagon,1,0,,,,,,,,,,,,,,,,repeat,letter,lettRpt,d,0.4122,Lo,,,,,,3,,,,,,,,low,19,0,19,0,1,,,,,,,,,
295444,2022-11-30_15h04.52.694,vts_reward_expectancy_bt,2022.2.4,Win32,59.9268892,Chrome,1536,864,,,,,10,977,,,,,,,,,,,,,,,,,S,181,triangle,1,0,,,,,,,,,,,,,,,,repeat,letter,lettRpt,f,0.3641,Hi,,,,,,3,,,,,,,,low,20,0,20,0,1,,,,,,,,,
295444,2022-11-30_15h04.52.694,vts_reward_expectancy_bt,2022.2.4,Win32,59.9268892,Chrome,1536,864,,,,,0,977,,,,,,,,,,,,,,,,,H,174,circle,0,0,,,,,,,,,,,,,,,,switch,number,NA,j,0.3816,Hi,,,,,,3,,,,,,,,low,21,0,21,0,1,,,,,,,,,
295444,2022-11-30_15h04.52.694,vts_reward_expectancy_bt,2022.2.4,Win32,59.9268892,Chrome,1536,864,,,,,0,977,,,,,,,,,,,,,,,,,U,160,star,0,1,,,,,,,,,,,,,,,,switch,letter,NA,d,0.5106,Hi,,,,,,3,,,,,,,,low,22,0,22,0,1,,,,,,,,,
295444,2022-11-30_15h04.52.694,vts_reward_expectancy_bt,2022.2.4,Win32,59.9268892,Chrome,1536,864,,,,,1,978,,,,,,,,,,,,,,,,,Y,146,hexagon,1,1,,,,,,,,,,,,,,,,repeat,letter,lettRpt,f,0.3637,Lo,,,,,,3,,,,,,,,low,23,0,23,0,1,,,,,,,,,
295444,2022-11-30_15h04.52.694,vts_reward_expectancy_bt,2022.2.4,Win32,59.9268892,Chrome,1536,864,,,,,1,979,,,,,,,,,,,,,,,,,S,160,circle,1,0,,,,,,,,,,,,,,,,switch,number,numSwt,k,0.6223,Lo,,,,,,3,,,,,,,,low,24,0,24,0,1,,,,,,,,,
295444,2022-11-30_15h04.52.694,vts_reward_expectancy_bt,2022.2.4,Win32,59.9268892,Chrome,1536,864,,,,,10,989,,,,,,,,,,,,,,,,,U,146,star,1,0,,,,,,,,,,,,,,,,repeat,number,numRpt,j,0.468,Hi,,,,,,3,,,,,,,,low,25,0,25,0,1,,,,,,,,,
295444,2022-11-30_15h04.52.694,vts_reward_expectancy_bt,2022.2.4,Win32,59.9268892,Chrome,1536,864,,,,,10,999,,,,,,,,,,,,,,,,,F,139,hexagon,1,0,,,,,,,,,,,,,,,,repeat,number,numRpt,j,0.5218,Lo,,,,,,3,,,,,,,,low,26,0,26,0,1,,,,,,,,,
295444,2022-11-30_15h04.52.694,vts_reward_expectancy_bt,2022.2.4,Win32,59.9268892,Chrome,1536,864,,,,,0,999,,,,,,,,,,,,,,,,,B,132,triangle,1,0,,,,,,,,,,,,,,,,switch,letter,lettSwt,d,0.4666,Hi,,,,,,3,,,,,,,,low,27,0,27,0,1,,,,,,,,,
295444,2022-11-30_15h04.52.694,vts_reward_expectancy_bt,2022.2.4,Win32,59.9268892,Chrome,1536,864,,,,,1,1000,,,,,,,,,,,,,,,,,H,181,circle,1,0,,,,,,,,,,,,,,,,repeat,letter,lettRpt,d,0.4416,Lo,,,,,,3,,,,,,,,low,28,0,28,0,1,,,,,,,,,
295444,2022-11-30_15h04.52.694,vts_reward_expectancy_bt,2022.2.4,Win32,59.9268892,Chrome,1536,864,,,,,0,1000,,,,,,,,,,,,,,,,,D,167,star,0,0,,,,,,,,,,,,,,,,repeat,letter,NA,f,0.3341,Lo,,,,,,3,,,,,,,,low,29,0,29,0,1,,,,,,,,,
295444,2022-11-30_15h04.52.694,vts_reward_expectancy_bt,2022.2.4,Win32,59.9268892,Chrome,1536,864,,,,,1,1001,,,,,,,,,,,,,,,,,W,125,hexagon,1,1,,,,,,,,,,,,,,,,repeat,letter,lettRpt,f,0.3173,Lo,,,,,,3,,,,,,,,low,30,0,30,0,1,,,,,,,,,
295444,2022-11-30_15h04.52.694,vts_reward_expectancy_bt,2022.2.4,Win32,59.9268892,Chrome,1536,864,,,,,0,1001,,,,,,,,,,,,,,,,,Y,174,triangle,0,0,,,,,,,,,,,,,,,,switch,number,NA,j,0.6523,Lo,,,,,,3,,,,,,,,low,31,0,31,0,1,,,,,,,,,
295444,2022-11-30_15h04.52.694,vts_reward_expectancy_bt,2022.2.4,Win32,59.9268892,Chrome,1536,864,,,,,0,1001,,,,,,,,,,,,,,,,,S,125,triangle,1,1,,,,,,,,,,,,,,,,switch,letter,lettSwt,f,0.5466,Hi,,,,,,4,,,,,,space,0.8368,low,0,0,0,0,1,,,,,,,,,
295444,2022-11-30_15h04.52.694,vts_reward_expectancy_bt,2022.2.4,Win32,59.9268892,Chrome,1536,864,,,,,10,1011,,,,,,,,,,,,,,,,,H,160,hexagon,1,0,,,,,,,,,,,,,,,,repeat,letter,lettRpt,d,0.3171,Lo,,,,,,4,,,,,,,,low,1,0,1,0,1,,,,,,,,,
295444,2022-11-30_15h04.52.694,vts_reward_expectancy_bt,2022.2.4,Win32,59.9268892,Chrome,1536,864,,,,,0,1011,,,,,,,,,,,,,,,,,B,181,star,1,0,,,,,,,,,,,,,,,,repeat,letter,lettRpt,d,0.3642,Hi,,,,,,4,,,,,,,,low,2,0,2,0,1,,,,,,,,,
295444,2022-11-30_15h04.52.694,vts_reward_expectancy_bt,2022.2.4,Win32,59.9268892,Chrome,1536,864,,,,,10,1021,,,,,,,,,,,,,,,,,U,132,circle,1,0,,,,,,,,,,,,,,,,repeat,letter,lettRpt,f,0.4346,Lo,,,,,,4,,,,,,,,low,3,0,3,0,1,,,,,,,,,
295444,2022-11-30_15h04.52.694,vts_reward_expectancy_bt,2022.2.4,Win32,59.9268892,Chrome,1536,864,,,,,0,1021,,,,,,,,,,,,,,,,,F,167,triangle,1,0,,,,,,,,,,,,,,,,repeat,letter,lettRpt,d,0.4047,Hi,,,,,,4,,,,,,,,low,4,0,4,0,1,,,,,,,,,
295444,2022-11-30_15h04.52.694,vts_reward_expectancy_bt,2022.2.4,Win32,59.9268892,Chrome,1536,864,,,,,10,1031,,,,,,,,,,,,,,,,,Y,146,hexagon,1,0,,,,,,,,,,,,,,,,switch,number,numSwt,j,0.3998,Lo,,,,,,4,,,,,,,,low,5,0,5,0,1,,,,,,,,,
295444,2022-11-30_15h04.52.694,vts_reward_expectancy_bt,2022.2.4,Win32,59.9268892,Chrome,1536,864,,,,,0,1031,,,,,,,,,,,,,,,,,W,139,star,0,0,,,,,,,,,,,,,,,,repeat,number,NA,k,0.4217,Lo,,,,,,4,,,,,,,,low,6,0,6,0,1,,,,,,,,,
295444,2022-11-30_15h04.52.694,vts_reward_expectancy_bt,2022.2.4,Win32,59.9268892,Chrome,1536,864,,,,,1,1032,,,,,,,,,,,,,,,,,D,174,circle,1,1,,,,,,,,,,,,,,,,repeat,number,numRpt,k,0.3381,Lo,,,,,,4,,,,,,,,low,7,0,7,0,1,,,,,,,,,
295444,2022-11-30_15h04.52.694,vts_reward_expectancy_bt,2022.2.4,Win32,59.9268892,Chrome,1536,864,,,,,10,1042,,,,,,,,,,,,,,,,,S,125,star,1,0,,,,,,,,,,,,,,,,repeat,number,numRpt,j,0.3869,Hi,,,,,,4,,,,,,,,low,8,0,8,0,1,,,,,,,,,
295444,2022-11-30_15h04.52.694,vts_reward_expectancy_bt,2022.2.4,Win32,59.9268892,Chrome,1536,864,,,,,0,1042,,,,,,,,,,,,,,,,,H,160,triangle,0,0,,,,,,,,,,,,,,,,repeat,number,NA,j,0.3931,Hi,,,,,,4,,,,,,,,low,9,0,9,0,1,,,,,,,,,
295444,2022-11-30_15h04.52.694,vts_reward_expectancy_bt,2022.2.4,Win32,59.9268892,Chrome,1536,864,,,,,10,1052,,,,,,,,,,,,,,,,,B,181,circle,1,1,,,,,,,,,,,,,,,,repeat,number,numRpt,k,0.3601,Lo,,,,,,4,,,,,,,,low,10,0,10,0,1,,,,,,,,,
295444,2022-11-30_15h04.52.694,vts_reward_expectancy_bt,2022.2.4,Win32,59.9268892,Chrome,1536,864,,,,,0,1052,,,,,,,,,,,,,,,,,U,132,hexagon,0,0,,,,,,,,,,,,,,,,switch,letter,NA,d,0.3169,Lo,,,,,,4,,,,,,,,low,11,0,11,0,1,,,,,,,,,
295444,2022-11-30_15h04.52.694,vts_reward_expectancy_bt,2022.2.4,Win32,59.9268892,Chrome,1536,864,,,,,10,1062,,,,,,,,,,,,,,,,,F,167,circle,1,1,,,,,,,,,,,,,,,,repeat,letter,lettRpt,d,0.4054,Lo,,,,,,4,,,,,,,,low,12,0,12,0,1,,,,,,,,,
295444,2022-11-30_15h04.52.694,vts_reward_expectancy_bt,2022.2.4,Win32,59.9268892,Chrome,1536,864,,,,,1,1063,,,,,,,,,,,,,,,,,Y,146,hexagon,1,0,,,,,,,,,,,,,,,,repeat,letter,lettRpt,f,0.431,Lo,,,,,,4,,,,,,,,low,13,0,13,0,1,,,,,,,,,
295444,2022-11-30_15h04.52.694,vts_reward_expectancy_bt,2022.2.4,Win32,59.9268892,Chrome,1536,864,,,,,0,1063,,,,,,,,,,,,,,,,,W,139,triangle,0,0,,,,,,,,,,,,,,,,repeat,letter,NA,d,0.4654,Lo,,,,,,4,,,,,,,,low,14,0,14,0,1,,,,,,,,,
295444,2022-11-30_15h04.52.694,vts_reward_expectancy_bt,2022.2.4,Win32,59.9268892,Chrome,1536,864,,,,,0,1063,,,,,,,,,,,,,,,,,D,174,star,1,1,,,,,,,,,,,,,,,,repeat,letter,lettRpt,d,0.4665,Hi,,,,,,4,,,,,,,,low,15,0,15,0,1,,,,,,,,,
295444,2022-11-30_15h04.52.694,vts_reward_expectancy_bt,2022.2.4,Win32,59.9268892,Chrome,1536,864,,,,,10,1073,,,,,,,,,,,,,,,,,D,146,circle,1,0,,,,,,,,,,,,,,,,switch,number,numSwt,j,0.4483,Lo,,,,,,4,,,,,,,,low,16,0,16,0,1,,,,,,,,,
295444,2022-11-30_15h04.52.694,vts_reward_expectancy_bt,2022.2.4,Win32,59.9268892,Chrome,1536,864,,,,,1,1074,,,,,,,,,,,,,,,,,W,167,hexagon,1,0,,,,,,,,,,,,,,,,repeat,number,numRpt,k,0.3593,Lo,,,,,,4,,,,,,,,low,17,0,17,0,1,,,,,,,,,
295444,2022-11-30_15h04.52.694,vts_reward_expectancy_bt,2022.2.4,Win32,59.9268892,Chrome,1536,864,,,,,0,1074,,,,,,,,,,,,,,,,,F,181,star,1,0,,,,,,,,,,,,,,,,repeat,number,numRpt,k,0.4862,Hi,,,,,,4,,,,,,,,low,18,0,18,0,1,,,,,,,,,
295444,2022-11-30_15h04.52.694,vts_reward_expectancy_bt,2022.2.4,Win32,59.9268892,Chrome,1536,864,,,,,0,1074,,,,,,,,,,,,,,,,,B,139,triangle,1,0,,,,,,,,,,,,,,,,repeat,number,numRpt,j,0.4992,Hi,,,,,,4,,,,,,,,low,19,0,19,0,1,,,,,,,,,
295444,2022-11-30_15h04.52.694,vts_reward_expectancy_bt,2022.2.4,Win32,59.9268892,Chrome,1536,864,,,,,1,1075,,,,,,,,,,,,,,,,,Y,174,hexagon,1,0,,,,,,,,,,,,,,,,switch,letter,lettSwt,f,0.356,Lo,,,,,,4,,,,,,,,low,20,0,20,0,1,,,,,,,,,
295444,2022-11-30_15h04.52.694,vts_reward_expectancy_bt,2022.2.4,Win32,59.9268892,Chrome,1536,864,,,,,0,1075,,,,,,,,,,,,,,,,,S,132,triangle,1,0,,,,,,,,,,,,,,,,repeat,letter,lettRpt,f,0.4295,Hi,,,,,,4,,,,,,,,low,21,0,21,0,1,,,,,,,,,
295444,2022-11-30_15h04.52.694,vts_reward_expectancy_bt,2022.2.4,Win32,59.9268892,Chrome,1536,864,,,,,0,1075,,,,,,,,,,,,,,,,,U,160,star,1,0,,,,,,,,,,,,,,,,repeat,letter,lettRpt,f,0.4495,Hi,,,,,,4,,,,,,,,low,22,0,22,0,1,,,,,,,,,
295444,2022-11-30_15h04.52.694,vts_reward_expectancy_bt,2022.2.4,Win32,59.9268892,Chrome,1536,864,,,,,0,1075,,,,,,,,,,,,,,,,,H,125,circle,0,0,,,,,,,,,,,,,,,,repeat,letter,NA,f,0.3582,Hi,,,,,,4,,,,,,,,low,23,0,23,0,1,,,,,,,,,
295444,2022-11-30_15h04.52.694,vts_reward_expectancy_bt,2022.2.4,Win32,59.9268892,Chrome,1536,864,,,,,0,1075,,,,,,,,,,,,,,,,,F,125,circle,0,1,,,,,,,,,,,,,,,,repeat,letter,NA,f,0.4563,Hi,,,,,,4,,,,,,,,low,24,0,24,0,1,,,,,,,,,
295444,2022-11-30_15h04.52.694,vts_reward_expectancy_bt,2022.2.4,Win32,59.9268892,Chrome,1536,864,,,,,0,1075,,,,,,,,,,,,,,,,,D,160,star,1,1,,,,,,,,,,,,,,,,repeat,letter,lettRpt,d,0.4821,Hi,,,,,,4,,,,,,,,low,25,0,25,0,1,,,,,,,,,
295444,2022-11-30_15h04.52.694,vts_reward_expectancy_bt,2022.2.4,Win32,59.9268892,Chrome,1536,864,,,,,10,1085,,,,,,,,,,,,,,,,,Y,167,hexagon,1,0,,,,,,,,,,,,,,,,repeat,letter,lettRpt,f,0.4408,Lo,,,,,,4,,,,,,,,low,26,0,26,0,1,,,,,,,,,
295444,2022-11-30_15h04.52.694,vts_reward_expectancy_bt,2022.2.4,Win32,59.9268892,Chrome,1536,864,,,,,0,1085,,,,,,,,,,,,,,,,,S,146,triangle,0,0,,,,,,,,,,,,,,,,repeat,letter,NA,d,0.4697,Lo,,,,,,4,,,,,,,,low,27,0,27,0,1,,,,,,,,,
295444,2022-11-30_15h04.52.694,vts_reward_expectancy_bt,2022.2.4,Win32,59.9268892,Chrome,1536,864,,,,,0,1085,,,,,,,,,,,,,,,,,W,174,triangle,1,1,,,,,,,,,,,,,,,,repeat,letter,lettRpt,f,0.5185,Hi,,,,,,4,,,,,,,,low,28,0,28,0,1,,,,,,,,,
295444,2022-11-30_15h04.52.694,vts_reward_expectancy_bt,2022.2.4,Win32,59.9268892,Chrome,1536,864,,,,,10,1095,,,,,,,,,,,,,,,,,H,139,hexagon,1,0,,,,,,,,,,,,,,,,switch,number,numSwt,j,0.6652,Lo,,,,,,4,,,,,,,,low,29,0,29,0,1,,,,,,,,,
295444,2022-11-30_15h04.52.694,vts_reward_expectancy_bt,2022.2.4,Win32,59.9268892,Chrome,1536,864,,,,,1,1096,,,,,,,,,,,,,,,,,B,132,circle,1,0,,,,,,,,,,,,,,,,repeat,number,numRpt,j,0.3573,Lo,,,,,,4,,,,,,,,low,30,0,30,0,1,,,,,,,,,
295444,2022-11-30_15h04.52.694,vts_reward_expectancy_bt,2022.2.4,Win32,59.9268892,Chrome,1536,864,,,,,0,1096,,,,,,,,,,,,,,,,,U,181,star,1,0,,,,,,,,,,,,,,,,repeat,number,numRpt,k,0.4475,Hi,,,,,,4,,,,,,,,low,31,0,31,0,1,,,,,,,,,
295444,2022-11-30_15h04.52.694,vts_reward_expectancy_bt,2022.2.4,Win32,59.9268892,Chrome,1536,864,,,,,10,1106,,,,,,,,,,,,,,,,,D,181,hexagon,1,0,,,,,,,,,,,,,,,,switch,letter,lettSwt,d,0.5655,Lo,,,,,,5,,,,,,space,0.8685,low,0,0,0,0,1,,,,,,,,,
295444,2022-11-30_15h04.52.694,vts_reward_expectancy_bt,2022.2.4,Win32,59.9268892,Chrome,1536,864,,,,,1,1107,,,,,,,,,,,,,,,,,S,125,circle,1,0,,,,,,,,,,,,,,,,repeat,letter,lettRpt,f,0.4821,Lo,,,,,,5,,,,,,,,low,1,0,1,0,1,,,,,,,,,
295444,2022-11-30_15h04.52.694,vts_reward_expectancy_bt,2022.2.4,Win32,59.9268892,Chrome,1536,864,,,,,0,1107,,,,,,,,,,,,,,,,,H,132,triangle,0,0,,,,,,,,,,,,,,,,switch,number,NA,k,0.5723,Lo,,,,,,5,,,,,,,,low,2,0,2,0,1,,,,,,,,,
295444,2022-11-30_15h04.52.694,vts_reward_expectancy_bt,2022.2.4,Win32,59.9268892,Chrome,1536,864,,,,,0,1107,,,,,,,,,,,,,,,,,B,146,star,0,1,,,,,,,,,,,,,,,,switch,letter,NA,f,0.6186,Lo,,,,,,5,,,,,,,,low,3,0,3,0,1,,,,,,,,,
295444,2022-11-30_15h04.52.694,vts_reward_expectancy_bt,2022.2.4,Win32,59.9268892,Chrome,1536,864,,,,,1,1108,,,,,,,,,,,,,,,,,Y,167,hexagon,1,1,,,,,,,,,,,,,,,,repeat,letter,lettRpt,f,0.4329,Lo,,,,,,5,,,,,,,,low,4,0,4,0,1,,,,,,,,,
295444,2022-11-30_15h04.52.694,vts_reward_expectancy_bt,2022.2.4,Win32,59.9268892,Chrome,1536,864,,,,,0,1108,,,,,,,,,,,,,,,,,W,174,circle,0,0,,,,,,,,,,,,,,,,switch,number,NA,j,0.4869,Lo,,,,,,5,,,,,,,,low,5,0,5,0,1,,,,,,,,,
295444,2022-11-30_15h04.52.694,vts_reward_expectancy_bt,2022.2.4,Win32,59.9268892,Chrome,1536,864,,,,,0,1108,,,,,,,,,,,,,,,,,F,160,triangle,1,1,,,,,,,,,,,,,,,,switch,letter,lettSwt,d,0.5493,Hi,,,,,,5,,,,,,,,low,6,0,6,0,1,,,,,,,,,
295444,2022-11-30_15h04.52.694,vts_reward_expectancy_bt,2022.2.4,Win32,59.9268892,Chrome,1536,864,,,,,0,1108,,,,,,,,,,,,,,,,,U,139,star,1,0,,,,,,,,,,,,,,,,repeat,letter,lettRpt,f,0.4986,Hi,,,,,,5,,,,,,,,low,7,0,7,0,1,,,,,,,,,
295444,2022-11-30_15h04.52.694,vts_reward_expectancy_bt,2022.2.4,Win32,59.9268892,Chrome,1536,864,,,,,0,1108,,,,,,,,,,,,,,,,,D,181,triangle,1,0,,,,,,,,,,,,,,,,switch,number,numSwt,k,0.8313,Hi,,,,,,5,,,,,,,,low,8,0,8,0,1,,,,,,,,,
295444,2022-11-30_15h04.52.694,vts_reward_expectancy_bt,2022.2.4,Win32,59.9268892,Chrome,1536,864,,,,,1,1109,,,,,,,,,,,,,,,,,S,125,circle,1,0,,,,,,,,,,,,,,,,repeat,number,numRpt,j,0.4086,Lo,,,,,,5,,,,,,,,low,9,0,9,0,1,,,,,,,,,
295444,2022-11-30_15h04.52.694,vts_reward_expectancy_bt,2022.2.4,Win32,59.9268892,Chrome,1536,864,,,,,0,1109,,,,,,,,,,,,,,,,,H,132,star,0,0,,,,,,,,,,,,,,,,repeat,number,NA,k,0.3396,Lo,,,,,,5,,,,,,,,low,10,0,10,0,1,,,,,,,,,
295444,2022-11-30_15h04.52.694,vts_reward_expectancy_bt,2022.2.4,Win32,59.9268892,Chrome,1536,864,,,,,1,1110,,,,,,,,,,,,,,,,,B,146,hexagon,1,1,,,,,,,,,,,,,,,,repeat,number,numRpt,j,0.4772,Lo,,,,,,5,,,,,,,,low,11,0,11,0,1,,,,,,,,,
295444,2022-11-30_15h04.52.694,vts_reward_expectancy_bt,2022.2.4,Win32,59.9268892,Chrome,1536,864,,,,,1,1111,,,,,,,,,,,,,,,,,Y,167,hexagon,1,0,,,,,,,,,,,,,,,,repeat,number,numRpt,k,0.4382,Lo,,,,,,5,,,,,,,,low,12,0,12,0,1,,,,,,,,,
295444,2022-11-30_15h04.52.694,vts_reward_expectancy_bt,2022.2.4,Win32,59.9268892,Chrome,1536,864,,,,,0,1111,,,,,,,,,,,,,,,,,W,174,star,1,0,,,,,,,,,,,,,,,,repeat,number,numRpt,k,0.4743,Hi,,,,,,5,,,,,,,,low,13,0,13,0,1,,,,,,,,,
295444,2022-11-30_15h04.52.694,vts_reward_expectancy_bt,2022.2.4,Win32,59.9268892,Chrome,1536,864,,,,,10,1121,,,,,,,,,,,,,,,,,F,160,circle,1,0,,,,,,,,,,,,,,,,switch,letter,lettSwt,d,0.7029,Lo,,,,,,5,,,,,,,,low,14,0,14,0,1,,,,,,,,,
295444,2022-11-30_15h04.52.694,vts_reward_expectancy_bt,2022.2.4,Win32,59.9268892,Chrome,1536,864,,,,,0,1121,,,,,,,,,,,,,,,,,U,139,triangle,1,0,,,,,,,,,,,,,,,,repeat,letter,lettRpt,f,0.4678,Hi,,,,,,5,,,,,,,,low,15,0,15,0,1,,,,,,,,,
295444,2022-11-30_15h04.52.694,vts_reward_expectancy_bt,2022.2.4,Win32,59.9268892,Chrome,1536,864,,,,,10,1131,,,,,,,,,,,,,,,,,U,146,circle,1,0,,,,,,,,,,,,,,,,switch,number,numSwt,j,0.4565,Lo,,,,,,5,,,,,,,,low,16,0,16,0,1,,,,,,,,,
295444,2022-11-30_15h04.52.694,vts_reward_expectancy_bt,2022.2.4,Win32,59.9268892,Chrome,1536,864,,,,,10,1141,,,,,,,,,,,,,,,,,D,132,triangle,1,0,,,,,,,,,,,,,,,,switch,letter,lettSwt,d,0.4473,Hi,,,,,,5,,,,,,,,low,17,0,17,0,1,,,,,,,,,
295444,2022-11-30_15h04.52.694,vts_reward_expectancy_bt,2022.2.4,Win32,59.9268892,Chrome,1536,864,,,,,1,1142,,,,,,,,,,,,,,,,,F,160,hexagon,1,0,,,,,,,,,,,,,,,,repeat,letter,lettRpt,d,0.6155,Lo,,,,,,5,,,,,,,,low,18,0,18,0,1,,,,,,,,,
295444,2022-11-30_15h04.52.694,vts_reward_expectancy_bt,2022.2.4,Win32,59.9268892,Chrome,1536,864,,,,,0,1142,,,,,,,,,,,,,,,,,W,174,star,0,0,,,,,,,,,,,,,,,,switch,number,NA,j,0.4447,Lo,,,,,,5,,,,,,,,low,19,0,19,0,1,,,,,,,,,
295444,2022-11-30_15h04.52.694,vts_reward_expectancy_bt,2022.2.4,Win32,59.9268892,Chrome,1536,864,,,,,0,1142,,,,,,,,,,,,,,,,,S,181,star,1,1,,,,,,,,,,,,,,,,switch,letter,lettSwt,f,1.0675,Hi,,,,,,5,,,,,,,,low,20,0,20,0,1,,,,,,,,,
295444,2022-11-30_15h04.52.694,vts_reward_expectancy_bt,2022.2.4,Win32,59.9268892,Chrome,1536,864,,,,,0,1142,,,,,,,,,,,,,,,,,H,167,triangle,1,0,,,,,,,,,,,,,,,,repeat,letter,lettRpt,d,0.8743,Hi,,,,,,5,,,,,,,,low,21,0,21,0,1,,,,,,,,,
295444,2022-11-30_15h04.52.694,vts_reward_expectancy_bt,2022.2.4,Win32,59.9268892,Chrome,1536,864,,,,,1,1143,,,,,,,,,,,,,,,,,Y,125,circle,1,0,,,,,,,,,,,,,,,,switch,number,numSwt,j,0.6648,Lo,,,,,,5,,,,,,,,low,22,0,22,0,1,,,,,,,,,
295444,2022-11-30_15h04.52.694,vts_reward_expectancy_bt,2022.2.4,Win32,59.9268892,Chrome,1536,864,,,,,10,1153,,,,,,,,,,,,,,,,,B,139,hexagon,1,0,,,,,,,,,,,,,,,,repeat,number,numRpt,j,0.5866,Lo,,,,,,5,,,,,,,,low,23,0,23,0,1,,,,,,,,,
295444,2022-11-30_15h04.52.694,vts_reward_expectancy_bt,2022.2.4,Win32,59.9268892,Chrome,1536,864,,,,,0,1153,,,,,,,,,,,,,,,,,H,160,hexagon,0,0,,,,,,,,,,,,,,,,repeat,number,NA,j,0.7336,Lo,,,,,,5,,,,,,,,low,24,0,24,0,1,,,,,,,,,
295444,2022-11-30_15h04.52.694,vts_reward_expectancy_bt,2022.2.4,Win32,59.9268892,Chrome,1536,864,,,,,0,1153,,,,,,,,,,,,,,,,,S,167,star,1,1,,,,,,,,,,,,,,,,repeat,number,numRpt,k,0.6399,Hi,,,,,,5,,,,,,,,low,25,0,25,0,1,,,,,,,,,
295444,2022-11-30_15h04.52.694,vts_reward_expectancy_bt,2022.2.4,Win32,59.9268892,Chrome,1536,864,,,,,1,1154,,,,,,,,,,,,,,,,,Y,174,circle,1,0,,,,,,,,,,,,,,,,repeat,number,numRpt,k,0.5058,Lo,,,,,,5,,,,,,,,low,26,0,26,0,1,,,,,,,,,
295444,2022-11-30_15h04.52.694,vts_reward_expectancy_bt,2022.2.4,Win32,59.9268892,Chrome,1536,864,,,,,0,1154,,,,,,,,,,,,,,,,,W,132,triangle,0,0,,,,,,,,,,,,,,,,switch,letter,NA,d,0.6635,Lo,,,,,,5,,,,,,,,low,27,0,27,0,1,,,,,,,,,
295444,2022-11-30_15h04.52.694,vts_reward_expectancy_bt,2022.2.4,Win32,59.9268892,Chrome,1536,864,,,,,1,1155,,,,,,,,,,,,,,,,,U,146,hexagon,1,1,,,,,,,,,,,,,,,,repeat,letter,lettRpt,f,0.4276,Lo,,,,,,5,,,,,,,,low,28,0,28,0,1,,,,,,,,,
295444,2022-11-30_15h04.52.694,vts_reward_expectancy_bt,2022.2.4,Win32,59.9268892,Chrome,1536,864,,,,,0,1155,,,,,,,,,,,,,,,,,D,125,triangle,1,0,,,,,,,,,,,,,,,,repeat,letter,lettRpt,d,0.5167,Hi,,,,,,5,,,,,,,,low,29,0,29,0,1,,,,,,,,,
295444,2022-11-30_15h04.52.694,vts_reward_expectancy_bt,2022.2.4,Win32,59.9268892,Chrome,1536,864,,,,,10,1165,,,,,,,,,,,,,,,,,B,181,circle,1,0,,,,,,,,,,,,,,,,repeat,letter,lettRpt,d,0.8979,Lo,,,,,,5,,,,,,,,low,30,0,30,0,1,,,,,,,,,
295444,2022-11-30_15h04.52.694,vts_reward_expectancy_bt,2022.2.4,Win32,59.9268892,Chrome,1536,864,,,,,0,1165,,,,,,,,,,,,,,,,,F,139,star,0,0,,,,,,,,,,,,,,,,switch,number,NA,k,0.4214,Lo,,,,,,5,,,,,,,,low,31,0,31,0,1,,,,,,,,,
295444,2022-11-30_15h04.52.694,vts_reward_expectancy_bt,2022.2.4,Win32,59.9268892,Chrome,1536,864,,,,,1,1166,,,,,,,,,,,,,,,,,S,125,circle,1,1,,,,,,,,,,,,,,,,switch,letter,lettSwt,f,0.5397,Lo,,,,,,6,,,,,,space,1.5961,low,0,0,0,0,1,,,,,,,,,
295444,2022-11-30_15h04.52.694,vts_reward_expectancy_bt,2022.2.4,Win32,59.9268892,Chrome,1536,864,,,,,1,1167,,,,,,,,,,,,,,,,,Y,132,hexagon,1,0,,,,,,,,,,,,,,,,repeat,letter,lettRpt,f,0.4499,Lo,,,,,,6,,,,,,,,low,1,0,1,0,1,,,,,,,,,
295444,2022-11-30_15h04.52.694,vts_reward_expectancy_bt,2022.2.4,Win32,59.9268892,Chrome,1536,864,,,,,10,1177,,,,,,,,,,,,,,,,,W,167,triangle,1,0,,,,,,,,,,,,,,,,repeat,letter,lettRpt,f,0.4252,Hi,,,,,,6,,,,,,,,low,2,0,2,0,1,,,,,,,,,
295444,2022-11-30_15h04.52.694,vts_reward_expectancy_bt,2022.2.4,Win32,59.9268892,Chrome,1536,864,,,,,10,1187,,,,,,,,,,,,,,,,,B,160,star,1,0,,,,,,,,,,,,,,,,repeat,letter,lettRpt,d,0.4418,Hi,,,,,,6,,,,,,,,low,3,0,3,0,1,,,,,,,,,
295444,2022-11-30_15h04.52.694,vts_reward_expectancy_bt,2022.2.4,Win32,59.9268892,Chrome,1536,864,,,,,1,1188,,,,,,,,,,,,,,,,,F,181,circle,1,0,,,,,,,,,,,,,,,,switch,number,numSwt,k,0.4408,Lo,,,,,,6,,,,,,,,low,4,0,4,0,1,,,,,,,,,
295444,2022-11-30_15h04.52.694,vts_reward_expectancy_bt,2022.2.4,Win32,59.9268892,Chrome,1536,864,,,,,10,1198,,,,,,,,,,,,,,,,,D,139,hexagon,1,0,,,,,,,,,,,,,,,,repeat,number,numRpt,j,0.3688,Lo,,,,,,6,,,,,,,,low,5,0,5,0,1,,,,,,,,,
295444,2022-11-30_15h04.52.694,vts_reward_expectancy_bt,2022.2.4,Win32,59.9268892,Chrome,1536,864,,,,,0,1198,,,,,,,,,,,,,,,,,H,146,triangle,0,0,,,,,,,,,,,,,,,,switch,letter,NA,f,0.4751,Lo,,,,,,6,,,,,,,,low,6,0,6,0,1,,,,,,,,,
295444,2022-11-30_15h04.52.694,vts_reward_expectancy_bt,2022.2.4,Win32,59.9268892,Chrome,1536,864,,,,,0,1198,,,,,,,,,,,,,,,,,U,174,star,0,1,,,,,,,,,,,,,,,,repeat,letter,NA,d,0.4815,Lo,,,,,,6,,,,,,,,low,7,0,7,0,1,,,,,,,,,
295444,2022-11-30_15h04.52.694,vts_reward_expectancy_bt,2022.2.4,Win32,59.9268892,Chrome,1536,864,,,,,10,1208,,,,,,,,,,,,,,,,,S,125,circle,1,1,,,,,,,,,,,,,,,,switch,number,numSwt,j,0.4565,Lo,,,,,,6,,,,,,,,low,8,0,8,0,1,,,,,,,,,
295444,2022-11-30_15h04.52.694,vts_reward_expectancy_bt,2022.2.4,Win32,59.9268892,Chrome,1536,864,,,,,10,1218,,,,,,,,,,,,,,,,,Y,132,star,1,0,,,,,,,,,,,,,,,,switch,letter,lettSwt,f,0.5148,Hi,,,,,,6,,,,,,,,low,9,0,9,0,1,,,,,,,,,
295444,2022-11-30_15h04.52.694,vts_reward_expectancy_bt,2022.2.4,Win32,59.9268892,Chrome,1536,864,,,,,1,1219,,,,,,,,,,,,,,,,,W,167,hexagon,1,0,,,,,,,,,,,,,,,,repeat,letter,lettRpt,f,0.5671,Lo,,,,,,6,,,,,,,,low,10,0,10,0,1,,,,,,,,,
295444,2022-11-30_15h04.52.694,vts_reward_expectancy_bt,2022.2.4,Win32,59.9268892,Chrome,1536,864,,,,,10,1229,,,,,,,,,,,,,,,,,B,160,triangle,1,0,,,,,,,,,,,,,,,,switch,number,numSwt,k,0.4162,Hi,,,,,,6,,,,,,,,low,11,0,11,0,1,,,,,,,,,
295444,2022-11-30_15h04.52.694,vts_reward_expectancy_bt,2022.2.4,Win32,59.9268892,Chrome,1536,864,,,,,10,1239,,,,,,,,,,,,,,,,,F,181,hexagon,1,0,,,,,,,,,,,,,,,,switch,letter,lettSwt,d,0.6434,Lo,,,,,,6,,,,,,,,low,12,0,12,0,1,,,,,,,,,
295444,2022-11-30_15h04.52.694,vts_reward_expectancy_bt,2022.2.4,Win32,59.9268892,Chrome,1536,864,,,,,0,1239,,,,,,,,,,,,,,,,,D,139,star,1,0,,,,,,,,,,,,,,,,repeat,letter,lettRpt,d,0.6558,Hi,,,,,,6,,,,,,,,low,13,0,13,0,1,,,,,,,,,
295444,2022-11-30_15h04.52.694,vts_reward_expectancy_bt,2022.2.4,Win32,59.9268892,Chrome,1536,864,,,,,10,1249,,,,,,,,,,,,,,,,,H,146,circle,1,0,,,,,,,,,,,,,,,,repeat,letter,lettRpt,d,0.6703,Lo,,,,,,6,,,,,,,,low,14,0,14,0,1,,,,,,,,,
295444,2022-11-30_15h04.52.694,vts_reward_expectancy_bt,2022.2.4,Win32,59.9268892,Chrome,1536,864,,,,,0,1249,,,,,,,,,,,,,,,,,U,174,triangle,1,0,,,,,,,,,,,,,,,,repeat,letter,lettRpt,f,0.6541,Hi,,,,,,6,,,,,,,,low,15,0,15,0,1,,,,,,,,,
295444,2022-11-30_15h04.52.694,vts_reward_expectancy_bt,2022.2.4,Win32,59.9268892,Chrome,1536,864,,,,,10,1259,,,,,,,,,,,,,,,,,H,181,star,1,0,,,,,,,,,,,,,,,,switch,number,numSwt,k,0.4438,Hi,,,,,,6,,,,,,,,low,16,0,16,0,1,,,,,,,,,
295444,2022-11-30_15h04.52.694,vts_reward_expectancy_bt,2022.2.4,Win32,59.9268892,Chrome,1536,864,,,,,0,1259,,,,,,,,,,,,,,,,,D,167,circle,0,0,,,,,,,,,,,,,,,,switch,letter,NA,f,0.7551,Hi,,,,,,6,,,,,,,,low,17,0,17,0,1,,,,,,,,,
295444,2022-11-30_15h04.52.694,vts_reward_expectancy_bt,2022.2.4,Win32,59.9268892,Chrome,1536,864,,,,,10,1269,,,,,,,,,,,,,,,,,F,174,hexagon,1,1,,,,,,,,,,,,,,,,repeat,letter,lettRpt,d,0.5604,Lo,,,,,,6,,,,,,,,low,18,0,18,0,1,,,,,,,,,
