participant,date,expName,psychopyVersion,OS,frameRate,browser,xResolution,yResolution,key_resp.keys,key_resp.rt,training_resp.keys,training_resp.rt,points_trial,points_cumul,trainBlock,training.thisRepN,training.thisTrialN,training.thisN,training.thisIndex,training.ran,LTriangleOpac,LCircleOpac,LHexagonOpac,LStarOpac,RTriangleOpac,RCircleOpac,RHexagonOpac,RStarOpac,LShape_ID,RShape_ID,curr_topStim,curr_bottStim,curr_shape,acc,E1,target_resp_prac1.keys,target_resp_prac1.rt,pracBlock,task1_prac_trials.thisRepN,task1_prac_trials.thisTrialN,task1_prac_trials.thisN,task1_prac_trials.thisIndex,task1_prac_trials.ran,target_resp_prac2.keys,target_resp_prac2.rt,task2_praac_trials.thisRepN,task2_praac_trials.thisTrialN,task2_praac_trials.thisN,task2_praac_trials.thisIndex,task2_praac_trials.ran,alt,task,condition,target_resp.keys,target_resp.rt,rewCond,vts_practice_trials.thisRepN,vts_practice_trials.thisTrialN,vts_practice_trials.thisN,vts_practice_trials.thisIndex,vts_practice_trials.ran,blockNum,trials_norew.thisRepN,trials_norew.thisTrialN,trials_norew.thisN,trials_norew.thisIndex,trials_norew.ran,key_resp_2.keys,key_resp_2.rt,rewExpectancy,trials_rew.thisRepN,trials_rew.thisTrialN,trials_rew.thisN,trials_rew.thisIndex,trials_rew.ran,Q1,Q2,Q2_text,Q3,Q4,Q5_text,Q5,xRes,yRes
295477,2022-11-14_19h51.55.154,vts_reward_expectancy_bt,2022.2.4,Win32,59.75143403,Chrome,1536,864,,,,,,,,,,,,,,,,,,,,,,,,,,,,,,,,,,,,,,,,,,,,,,,,,,,,,,,,,,,,,,,,,,,,,,,,,,,,
295477,2022-11-14_19h51.55.154,vts_reward_expectancy_bt,2022.2.4,Win32,59.75143403,Chrome,1536,864,space,16.5591,,,,,,,,,,,,,,,,,,,,,,,,,,,,,,,,,,,,,,,,,,,,,,,,,,,,,,,,,,,,,,,,,,,,,,,,,,
295477,2022-11-14_19h51.55.154,vts_reward_expectancy_bt,2022.2.4,Win32,59.75143403,Chrome,1536,864,,,,,,,,,,,,,,,,,,,,,,,,,,,,,,,,,,,,,,,,,,,,,,,,,,,,,,,,,,,,,,,,,,,,,,,,,,,,
295477,2022-11-14_19h51.55.154,vts_reward_expectancy_bt,2022.2.4,Win32,59.75143403,Chrome,1536,864,,,a,2.2716,0,0,0,0,0,0,10,1,0,0,0,1,0,1,0,0,star ,circle,,,,,,,,,,,,,,,,,,,,,,,,,,,,,,,,,,,,,,,,,,,,,,,,,,,,,,
295477,2022-11-14_19h51.55.154,vts_reward_expectancy_bt,2022.2.4,Win32,59.75143403,Chrome,1536,864,,,l,6.4792,10,10,0,0,1,1,6,1,0,0,1,0,1,0,0,0,hexagon,triangle,,,,,,,,,,,,,,,,,,,,,,,,,,,,,,,,,,,,,,,,,,,,,,,,,,,,,,
295477,2022-11-14_19h51.55.154,vts_reward_expectancy_bt,2022.2.4,Win32,59.75143403,Chrome,1536,864,,,l,3.596,1,11,0,0,2,2,11,1,0,0,0,1,0,0,1,0,star,hexagon,,,,,,,,,,,,,,,,,,,,,,,,,,,,,,,,,,,,,,,,,,,,,,,,,,,,,,
295477,2022-11-14_19h51.55.154,vts_reward_expectancy_bt,2022.2.4,Win32,59.75143403,Chrome,1536,864,,,a,3.0654,10,21,0,0,3,3,4,1,0,1,0,0,0,0,1,0,circle,hexagon,,,,,,,,,,,,,,,,,,,,,,,,,,,,,,,,,,,,,,,,,,,,,,,,,,,,,,
295477,2022-11-14_19h51.55.154,vts_reward_expectancy_bt,2022.2.4,Win32,59.75143403,Chrome,1536,864,,,a,1.9154,1,22,0,0,4,4,2,1,1,0,0,0,0,0,0,1,triangle,star,,,,,,,,,,,,,,,,,,,,,,,,,,,,,,,,,,,,,,,,,,,,,,,,,,,,,,
295477,2022-11-14_19h51.55.154,vts_reward_expectancy_bt,2022.2.4,Win32,59.75143403,Chrome,1536,864,,,l,2.7651,10,32,0,0,5,5,8,1,0,0,1,0,0,0,0,1,hexagon,star,,,,,,,,,,,,,,,,,,,,,,,,,,,,,,,,,,,,,,,,,,,,,,,,,,,,,,
295477,2022-11-14_19h51.55.154,vts_reward_expectancy_bt,2022.2.4,Win32,59.75143403,Chrome,1536,864,,,a,2.9494,1,33,0,0,6,6,1,1,1,0,0,0,0,0,1,0,triangle,hexagon,,,,,,,,,,,,,,,,,,,,,,,,,,,,,,,,,,,,,,,,,,,,,,,,,,,,,,
295477,2022-11-14_19h51.55.154,vts_reward_expectancy_bt,2022.2.4,Win32,59.75143403,Chrome,1536,864,,,l,1.2925,10,43,0,0,7,7,5,1,0,1,0,0,0,0,0,1,circle,star,,,,,,,,,,,,,,,,,,,,,,,,,,,,,,,,,,,,,,,,,,,,,,,,,,,,,,
295477,2022-11-14_19h51.55.154,vts_reward_expectancy_bt,2022.2.4,Win32,59.75143403,Chrome,1536,864,,,l,1.7579,10,53,0,0,8,8,7,1,0,0,1,0,0,1,0,0,hexagon,circle,,,,,,,,,,,,,,,,,,,,,,,,,,,,,,,,,,,,,,,,,,,,,,,,,,,,,,
295477,2022-11-14_19h51.55.154,vts_reward_expectancy_bt,2022.2.4,Win32,59.75143403,Chrome,1536,864,,,l,2.185,1,54,0,0,9,9,9,1,0,0,0,1,1,0,0,0,star,triangle,,,,,,,,,,,,,,,,,,,,,,,,,,,,,,,,,,,,,,,,,,,,,,,,,,,,,,
295477,2022-11-14_19h51.55.154,vts_reward_expectancy_bt,2022.2.4,Win32,59.75143403,Chrome,1536,864,,,a,3.6517,10,64,0,0,10,10,3,1,0,1,0,0,1,0,0,0,circle,triangle,,,,,,,,,,,,,,,,,,,,,,,,,,,,,,,,,,,,,,,,,,,,,,,,,,,,,,
295477,2022-11-14_19h51.55.154,vts_reward_expectancy_bt,2022.2.4,Win32,59.75143403,Chrome,1536,864,,,l,1.2081,10,74,0,0,11,11,0,1,1,0,0,0,0,1,0,0,triangle,circle,,,,,,,,,,,,,,,,,,,,,,,,,,,,,,,,,,,,,,,,,,,,,,,,,,,,,,
295477,2022-11-14_19h51.55.154,vts_reward_expectancy_bt,2022.2.4,Win32,59.75143403,Chrome,1536,864,,,a,1.2148,10,84,0,1,0,12,5,1,0,1,0,0,0,0,0,1,circle,star,,,,,,,,,,,,,,,,,,,,,,,,,,,,,,,,,,,,,,,,,,,,,,,,,,,,,,
295477,2022-11-14_19h51.55.154,vts_reward_expectancy_bt,2022.2.4,Win32,59.75143403,Chrome,1536,864,,,a,2.1659,10,94,0,1,1,13,1,1,1,0,0,0,0,0,1,0,triangle,hexagon,,,,,,,,,,,,,,,,,,,,,,,,,,,,,,,,,,,,,,,,,,,,,,,,,,,,,,
295477,2022-11-14_19h51.55.154,vts_reward_expectancy_bt,2022.2.4,Win32,59.75143403,Chrome,1536,864,,,l,1.8494,10,104,0,1,2,14,8,1,0,0,1,0,0,0,0,1,hexagon,star,,,,,,,,,,,,,,,,,,,,,,,,,,,,,,,,,,,,,,,,,,,,,,,,,,,,,,
295477,2022-11-14_19h51.55.154,vts_reward_expectancy_bt,2022.2.4,Win32,59.75143403,Chrome,1536,864,,,a,1.3164,1,105,0,1,3,15,3,1,0,1,0,0,1,0,0,0,circle,triangle,,,,,,,,,,,,,,,,,,,,,,,,,,,,,,,,,,,,,,,,,,,,,,,,,,,,,,
295477,2022-11-14_19h51.55.154,vts_reward_expectancy_bt,2022.2.4,Win32,59.75143403,Chrome,1536,864,,,l,0.9503,10,115,0,1,4,16,7,1,0,0,1,0,0,1,0,0,hexagon,circle,,,,,,,,,,,,,,,,,,,,,,,,,,,,,,,,,,,,,,,,,,,,,,,,,,,,,,
295477,2022-11-14_19h51.55.154,vts_reward_expectancy_bt,2022.2.4,Win32,59.75143403,Chrome,1536,864,,,a,2.166,10,125,0,1,5,17,4,1,0,1,0,0,0,0,1,0,circle,hexagon,,,,,,,,,,,,,,,,,,,,,,,,,,,,,,,,,,,,,,,,,,,,,,,,,,,,,,
295477,2022-11-14_19h51.55.154,vts_reward_expectancy_bt,2022.2.4,Win32,59.75143403,Chrome,1536,864,,,l,2.6821,1,126,0,1,6,18,9,1,0,0,0,1,1,0,0,0,star,triangle,,,,,,,,,,,,,,,,,,,,,,,,,,,,,,,,,,,,,,,,,,,,,,,,,,,,,,
295477,2022-11-14_19h51.55.154,vts_reward_expectancy_bt,2022.2.4,Win32,59.75143403,Chrome,1536,864,,,l,3.0014,1,127,0,1,7,19,6,1,0,0,1,0,1,0,0,0,hexagon,triangle,,,,,,,,,,,,,,,,,,,,,,,,,,,,,,,,,,,,,,,,,,,,,,,,,,,,,,
295477,2022-11-14_19h51.55.154,vts_reward_expectancy_bt,2022.2.4,Win32,59.75143403,Chrome,1536,864,,,l,1.8662,10,137,0,1,8,20,10,1,0,0,0,1,0,1,0,0,star ,circle,,,,,,,,,,,,,,,,,,,,,,,,,,,,,,,,,,,,,,,,,,,,,,,,,,,,,,
295477,2022-11-14_19h51.55.154,vts_reward_expectancy_bt,2022.2.4,Win32,59.75143403,Chrome,1536,864,,,a,2.7051,10,147,0,1,9,21,11,1,0,0,0,1,0,0,1,0,star,hexagon,,,,,,,,,,,,,,,,,,,,,,,,,,,,,,,,,,,,,,,,,,,,,,,,,,,,,,
295477,2022-11-14_19h51.55.154,vts_reward_expectancy_bt,2022.2.4,Win32,59.75143403,Chrome,1536,864,,,l,1.0822,1,148,0,1,10,22,0,1,1,0,0,0,0,1,0,0,triangle,circle,,,,,,,,,,,,,,,,,,,,,,,,,,,,,,,,,,,,,,,,,,,,,,,,,,,,,,
295477,2022-11-14_19h51.55.154,vts_reward_expectancy_bt,2022.2.4,Win32,59.75143403,Chrome,1536,864,,,a,1.6333,1,149,0,1,11,23,2,1,1,0,0,0,0,0,0,1,triangle,star,,,,,,,,,,,,,,,,,,,,,,,,,,,,,,,,,,,,,,,,,,,,,,,,,,,,,,
295477,2022-11-14_19h51.55.154,vts_reward_expectancy_bt,2022.2.4,Win32,59.75143403,Chrome,1536,864,,,a,1.9553,10,159,0,2,0,24,4,1,0,1,0,0,0,0,1,0,circle,hexagon,,,,,,,,,,,,,,,,,,,,,,,,,,,,,,,,,,,,,,,,,,,,,,,,,,,,,,
295477,2022-11-14_19h51.55.154,vts_reward_expectancy_bt,2022.2.4,Win32,59.75143403,Chrome,1536,864,,,l,1.2167,10,169,0,2,1,25,0,1,1,0,0,0,0,1,0,0,triangle,circle,,,,,,,,,,,,,,,,,,,,,,,,,,,,,,,,,,,,,,,,,,,,,,,,,,,,,,
295477,2022-11-14_19h51.55.154,vts_reward_expectancy_bt,2022.2.4,Win32,59.75143403,Chrome,1536,864,,,l,0.9168,10,179,0,2,2,26,7,1,0,0,1,0,0,1,0,0,hexagon,circle,,,,,,,,,,,,,,,,,,,,,,,,,,,,,,,,,,,,,,,,,,,,,,,,,,,,,,
295477,2022-11-14_19h51.55.154,vts_reward_expectancy_bt,2022.2.4,Win32,59.75143403,Chrome,1536,864,,,l,2.1308,1,180,0,2,3,27,5,1,0,1,0,0,0,0,0,1,circle,star,,,,,,,,,,,,,,,,,,,,,,,,,,,,,,,,,,,,,,,,,,,,,,,,,,,,,,
295477,2022-11-14_19h51.55.154,vts_reward_expectancy_bt,2022.2.4,Win32,59.75143403,Chrome,1536,864,,,l,2.1055,10,190,0,2,4,28,2,1,1,0,0,0,0,0,0,1,triangle,star,,,,,,,,,,,,,,,,,,,,,,,,,,,,,,,,,,,,,,,,,,,,,,,,,,,,,,
295477,2022-11-14_19h51.55.154,vts_reward_expectancy_bt,2022.2.4,Win32,59.75143403,Chrome,1536,864,,,a,1.8491,1,191,0,2,5,29,8,1,0,0,1,0,0,0,0,1,hexagon,star,,,,,,,,,,,,,,,,,,,,,,,,,,,,,,,,,,,,,,,,,,,,,,,,,,,,,,
295477,2022-11-14_19h51.55.154,vts_reward_expectancy_bt,2022.2.4,Win32,59.75143403,Chrome,1536,864,,,l,1.1589,10,201,0,2,6,30,10,1,0,0,0,1,0,1,0,0,star ,circle,,,,,,,,,,,,,,,,,,,,,,,,,,,,,,,,,,,,,,,,,,,,,,,,,,,,,,
295477,2022-11-14_19h51.55.154,vts_reward_expectancy_bt,2022.2.4,Win32,59.75143403,Chrome,1536,864,,,a,2.4349,1,202,0,2,7,31,6,1,0,0,1,0,1,0,0,0,hexagon,triangle,,,,,,,,,,,,,,,,,,,,,,,,,,,,,,,,,,,,,,,,,,,,,,,,,,,,,,
295477,2022-11-14_19h51.55.154,vts_reward_expectancy_bt,2022.2.4,Win32,59.75143403,Chrome,1536,864,,,a,1.519,1,203,0,2,8,32,1,1,1,0,0,0,0,0,1,0,triangle,hexagon,,,,,,,,,,,,,,,,,,,,,,,,,,,,,,,,,,,,,,,,,,,,,,,,,,,,,,
295477,2022-11-14_19h51.55.154,vts_reward_expectancy_bt,2022.2.4,Win32,59.75143403,Chrome,1536,864,,,a,2.3221,10,213,0,2,9,33,9,1,0,0,0,1,1,0,0,0,star,triangle,,,,,,,,,,,,,,,,,,,,,,,,,,,,,,,,,,,,,,,,,,,,,,,,,,,,,,
295477,2022-11-14_19h51.55.154,vts_reward_expectancy_bt,2022.2.4,Win32,59.75143403,Chrome,1536,864,,,a,2.3539,10,223,0,2,10,34,3,1,0,1,0,0,1,0,0,0,circle,triangle,,,,,,,,,,,,,,,,,,,,,,,,,,,,,,,,,,,,,,,,,,,,,,,,,,,,,,
295477,2022-11-14_19h51.55.154,vts_reward_expectancy_bt,2022.2.4,Win32,59.75143403,Chrome,1536,864,,,a,2.9274,10,233,0,2,11,35,11,1,0,0,0,1,0,0,1,0,star,hexagon,,,,,,,,,,,,,,,,,,,,,,,,,,,,,,,,,,,,,,,,,,,,,,,,,,,,,,
295477,2022-11-14_19h51.55.154,vts_reward_expectancy_bt,2022.2.4,Win32,59.75143403,Chrome,1536,864,,,a,1.1499,10,243,1,0,0,0,9,1,0,0,0,1,1,0,0,0,star,triangle,,,,,,,,,,,,,,,,,,,,,,,,,,,,,,,,,,,,,,,,,,,,,,,,,,,,,,
295477,2022-11-14_19h51.55.154,vts_reward_expectancy_bt,2022.2.4,Win32,59.75143403,Chrome,1536,864,,,l,1.9163,1,244,1,0,1,1,6,1,0,0,1,0,1,0,0,0,hexagon,triangle,,,,,,,,,,,,,,,,,,,,,,,,,,,,,,,,,,,,,,,,,,,,,,,,,,,,,,
295477,2022-11-14_19h51.55.154,vts_reward_expectancy_bt,2022.2.4,Win32,59.75143403,Chrome,1536,864,,,a,1.3991,10,254,1,0,2,2,5,1,0,1,0,0,0,0,0,1,circle,star,,,,,,,,,,,,,,,,,,,,,,,,,,,,,,,,,,,,,,,,,,,,,,,,,,,,,,
295477,2022-11-14_19h51.55.154,vts_reward_expectancy_bt,2022.2.4,Win32,59.75143403,Chrome,1536,864,,,a,2.1381,1,255,1,0,3,3,3,1,0,1,0,0,1,0,0,0,circle,triangle,,,,,,,,,,,,,,,,,,,,,,,,,,,,,,,,,,,,,,,,,,,,,,,,,,,,,,
295477,2022-11-14_19h51.55.154,vts_reward_expectancy_bt,2022.2.4,Win32,59.75143403,Chrome,1536,864,,,a,2.7832,10,265,1,0,4,4,4,1,0,1,0,0,0,0,1,0,circle,hexagon,,,,,,,,,,,,,,,,,,,,,,,,,,,,,,,,,,,,,,,,,,,,,,,,,,,,,,
295477,2022-11-14_19h51.55.154,vts_reward_expectancy_bt,2022.2.4,Win32,59.75143403,Chrome,1536,864,,,l,3.3989,1,266,1,0,5,5,1,1,1,0,0,0,0,0,1,0,triangle,hexagon,,,,,,,,,,,,,,,,,,,,,,,,,,,,,,,,,,,,,,,,,,,,,,,,,,,,,,
295477,2022-11-14_19h51.55.154,vts_reward_expectancy_bt,2022.2.4,Win32,59.75143403,Chrome,1536,864,,,l,1.4659,10,276,1,0,6,6,7,1,0,0,1,0,0,1,0,0,hexagon,circle,,,,,,,,,,,,,,,,,,,,,,,,,,,,,,,,,,,,,,,,,,,,,,,,,,,,,,
295477,2022-11-14_19h51.55.154,vts_reward_expectancy_bt,2022.2.4,Win32,59.75143403,Chrome,1536,864,,,l,1.6993,10,286,1,0,7,7,2,1,1,0,0,0,0,0,0,1,triangle,star,,,,,,,,,,,,,,,,,,,,,,,,,,,,,,,,,,,,,,,,,,,,,,,,,,,,,,
295477,2022-11-14_19h51.55.154,vts_reward_expectancy_bt,2022.2.4,Win32,59.75143403,Chrome,1536,864,,,a,3.2651,1,287,1,0,8,8,0,1,1,0,0,0,0,1,0,0,triangle,circle,,,,,,,,,,,,,,,,,,,,,,,,,,,,,,,,,,,,,,,,,,,,,,,,,,,,,,
295477,2022-11-14_19h51.55.154,vts_reward_expectancy_bt,2022.2.4,Win32,59.75143403,Chrome,1536,864,,,l,1.3128,1,288,1,0,9,9,10,1,0,0,0,1,0,1,0,0,star ,circle,,,,,,,,,,,,,,,,,,,,,,,,,,,,,,,,,,,,,,,,,,,,,,,,,,,,,,
295477,2022-11-14_19h51.55.154,vts_reward_expectancy_bt,2022.2.4,Win32,59.75143403,Chrome,1536,864,,,l,1.6658,10,298,1,0,10,10,8,1,0,0,1,0,0,0,0,1,hexagon,star,,,,,,,,,,,,,,,,,,,,,,,,,,,,,,,,,,,,,,,,,,,,,,,,,,,,,,
295477,2022-11-14_19h51.55.154,vts_reward_expectancy_bt,2022.2.4,Win32,59.75143403,Chrome,1536,864,,,a,2.0531,10,308,1,0,11,11,11,1,0,0,0,1,0,0,1,0,star,hexagon,,,,,,,,,,,,,,,,,,,,,,,,,,,,,,,,,,,,,,,,,,,,,,,,,,,,,,
295477,2022-11-14_19h51.55.154,vts_reward_expectancy_bt,2022.2.4,Win32,59.75143403,Chrome,1536,864,,,l,2.5211,10,318,1,1,0,12,5,1,0,1,0,0,0,0,0,1,circle,star,,,,,,,,,,,,,,,,,,,,,,,,,,,,,,,,,,,,,,,,,,,,,,,,,,,,,,
295477,2022-11-14_19h51.55.154,vts_reward_expectancy_bt,2022.2.4,Win32,59.75143403,Chrome,1536,864,,,a,0.9999,10,328,1,1,1,13,4,1,0,1,0,0,0,0,1,0,circle,hexagon,,,,,,,,,,,,,,,,,,,,,,,,,,,,,,,,,,,,,,,,,,,,,,,,,,,,,,
295477,2022-11-14_19h51.55.154,vts_reward_expectancy_bt,2022.2.4,Win32,59.75143403,Chrome,1536,864,,,l,7.3779,1,329,1,1,2,14,1,1,1,0,0,0,0,0,1,0,triangle,hexagon,,,,,,,,,,,,,,,,,,,,,,,,,,,,,,,,,,,,,,,,,,,,,,,,,,,,,,
295477,2022-11-14_19h51.55.154,vts_reward_expectancy_bt,2022.2.4,Win32,59.75143403,Chrome,1536,864,,,a,2.3671,1,330,1,1,3,15,10,1,0,0,0,1,0,1,0,0,star ,circle,,,,,,,,,,,,,,,,,,,,,,,,,,,,,,,,,,,,,,,,,,,,,,,,,,,,,,
295477,2022-11-14_19h51.55.154,vts_reward_expectancy_bt,2022.2.4,Win32,59.75143403,Chrome,1536,864,,,l,1.4241,10,340,1,1,4,16,7,1,0,0,1,0,0,1,0,0,hexagon,circle,,,,,,,,,,,,,,,,,,,,,,,,,,,,,,,,,,,,,,,,,,,,,,,,,,,,,,
295477,2022-11-14_19h51.55.154,vts_reward_expectancy_bt,2022.2.4,Win32,59.75143403,Chrome,1536,864,,,a,6.1163,10,350,1,1,5,17,3,1,0,1,0,0,1,0,0,0,circle,triangle,,,,,,,,,,,,,,,,,,,,,,,,,,,,,,,,,,,,,,,,,,,,,,,,,,,,,,
295477,2022-11-14_19h51.55.154,vts_reward_expectancy_bt,2022.2.4,Win32,59.75143403,Chrome,1536,864,,,l,1.9827,1,351,1,1,6,18,0,1,1,0,0,0,0,1,0,0,triangle,circle,,,,,,,,,,,,,,,,,,,,,,,,,,,,,,,,,,,,,,,,,,,,,,,,,,,,,,
295477,2022-11-14_19h51.55.154,vts_reward_expectancy_bt,2022.2.4,Win32,59.75143403,Chrome,1536,864,,,a,9.0936,10,361,1,1,7,19,9,1,0,0,0,1,1,0,0,0,star,triangle,,,,,,,,,,,,,,,,,,,,,,,,,,,,,,,,,,,,,,,,,,,,,,,,,,,,,,
295477,2022-11-14_19h51.55.154,vts_reward_expectancy_bt,2022.2.4,Win32,59.75143403,Chrome,1536,864,,,l,4.8131,1,362,1,1,8,20,6,1,0,0,1,0,1,0,0,0,hexagon,triangle,,,,,,,,,,,,,,,,,,,,,,,,,,,,,,,,,,,,,,,,,,,,,,,,,,,,,,
295477,2022-11-14_19h51.55.154,vts_reward_expectancy_bt,2022.2.4,Win32,59.75143403,Chrome,1536,864,,,a,1.5719,1,363,1,1,9,21,11,1,0,0,0,1,0,0,1,0,star,hexagon,,,,,,,,,,,,,,,,,,,,,,,,,,,,,,,,,,,,,,,,,,,,,,,,,,,,,,
295477,2022-11-14_19h51.55.154,vts_reward_expectancy_bt,2022.2.4,Win32,59.75143403,Chrome,1536,864,,,l,1.2997,10,373,1,1,10,22,8,1,0,0,1,0,0,0,0,1,hexagon,star,,,,,,,,,,,,,,,,,,,,,,,,,,,,,,,,,,,,,,,,,,,,,,,,,,,,,,
295477,2022-11-14_19h51.55.154,vts_reward_expectancy_bt,2022.2.4,Win32,59.75143403,Chrome,1536,864,,,l,2.484,10,383,1,1,11,23,2,1,1,0,0,0,0,0,0,1,triangle,star,,,,,,,,,,,,,,,,,,,,,,,,,,,,,,,,,,,,,,,,,,,,,,,,,,,,,,
295477,2022-11-14_19h51.55.154,vts_reward_expectancy_bt,2022.2.4,Win32,59.75143403,Chrome,1536,864,,,l,1.7,1,384,1,2,0,24,5,1,0,1,0,0,0,0,0,1,circle,star,,,,,,,,,,,,,,,,,,,,,,,,,,,,,,,,,,,,,,,,,,,,,,,,,,,,,,
295477,2022-11-14_19h51.55.154,vts_reward_expectancy_bt,2022.2.4,Win32,59.75143403,Chrome,1536,864,,,a,1.2994,10,394,1,2,1,25,9,1,0,0,0,1,1,0,0,0,star,triangle,,,,,,,,,,,,,,,,,,,,,,,,,,,,,,,,,,,,,,,,,,,,,,,,,,,,,,
295477,2022-11-14_19h51.55.154,vts_reward_expectancy_bt,2022.2.4,Win32,59.75143403,Chrome,1536,864,,,a,1.3382,10,404,1,2,2,26,3,1,0,1,0,0,1,0,0,0,circle,triangle,,,,,,,,,,,,,,,,,,,,,,,,,,,,,,,,,,,,,,,,,,,,,,,,,,,,,,
295477,2022-11-14_19h51.55.154,vts_reward_expectancy_bt,2022.2.4,Win32,59.75143403,Chrome,1536,864,,,a,1.0171,10,414,1,2,3,27,4,1,0,1,0,0,0,0,1,0,circle,hexagon,,,,,,,,,,,,,,,,,,,,,,,,,,,,,,,,,,,,,,,,,,,,,,,,,,,,,,
295477,2022-11-14_19h51.55.154,vts_reward_expectancy_bt,2022.2.4,Win32,59.75143403,Chrome,1536,864,,,l,0.8062,10,424,1,2,4,28,7,1,0,0,1,0,0,1,0,0,hexagon,circle,,,,,,,,,,,,,,,,,,,,,,,,,,,,,,,,,,,,,,,,,,,,,,,,,,,,,,
295477,2022-11-14_19h51.55.154,vts_reward_expectancy_bt,2022.2.4,Win32,59.75143403,Chrome,1536,864,,,l,1.8161,1,425,1,2,5,29,2,1,1,0,0,0,0,0,0,1,triangle,star,,,,,,,,,,,,,,,,,,,,,,,,,,,,,,,,,,,,,,,,,,,,,,,,,,,,,,
295477,2022-11-14_19h51.55.154,vts_reward_expectancy_bt,2022.2.4,Win32,59.75143403,Chrome,1536,864,,,a,4.8764,1,426,1,2,6,30,1,1,1,0,0,0,0,0,1,0,triangle,hexagon,,,,,,,,,,,,,,,,,,,,,,,,,,,,,,,,,,,,,,,,,,,,,,,,,,,,,,
295477,2022-11-14_19h51.55.154,vts_reward_expectancy_bt,2022.2.4,Win32,59.75143403,Chrome,1536,864,,,l,3.218,1,427,1,2,7,31,11,1,0,0,0,1,0,0,1,0,star,hexagon,,,,,,,,,,,,,,,,,,,,,,,,,,,,,,,,,,,,,,,,,,,,,,,,,,,,,,
295477,2022-11-14_19h51.55.154,vts_reward_expectancy_bt,2022.2.4,Win32,59.75143403,Chrome,1536,864,,,l,1.0172,10,437,1,2,8,32,10,1,0,0,0,1,0,1,0,0,star ,circle,,,,,,,,,,,,,,,,,,,,,,,,,,,,,,,,,,,,,,,,,,,,,,,,,,,,,,
295477,2022-11-14_19h51.55.154,vts_reward_expectancy_bt,2022.2.4,Win32,59.75143403,Chrome,1536,864,,,l,0.9996,10,447,1,2,9,33,0,1,1,0,0,0,0,1,0,0,triangle,circle,,,,,,,,,,,,,,,,,,,,,,,,,,,,,,,,,,,,,,,,,,,,,,,,,,,,,,
295477,2022-11-14_19h51.55.154,vts_reward_expectancy_bt,2022.2.4,Win32,59.75143403,Chrome,1536,864,,,l,4.3811,10,457,1,2,10,34,8,1,0,0,1,0,0,0,0,1,hexagon,star,,,,,,,,,,,,,,,,,,,,,,,,,,,,,,,,,,,,,,,,,,,,,,,,,,,,,,
295477,2022-11-14_19h51.55.154,vts_reward_expectancy_bt,2022.2.4,Win32,59.75143403,Chrome,1536,864,,,a,5.5129,1,458,1,2,11,35,6,1,0,0,1,0,1,0,0,0,hexagon,triangle,,,,,,,,,,,,,,,,,,,,,,,,,,,,,,,,,,,,,,,,,,,,,,,,,,,,,,
295477,2022-11-14_19h51.55.154,vts_reward_expectancy_bt,2022.2.4,Win32,59.75143403,Chrome,1536,864,,,a,1.0667,10,468,2,0,0,0,4,1,0,1,0,0,0,0,1,0,circle,hexagon,,,,,,,,,,,,,,,,,,,,,,,,,,,,,,,,,,,,,,,,,,,,,,,,,,,,,,
295477,2022-11-14_19h51.55.154,vts_reward_expectancy_bt,2022.2.4,Win32,59.75143403,Chrome,1536,864,,,l,1.7659,10,478,2,0,1,1,0,1,1,0,0,0,0,1,0,0,triangle,circle,,,,,,,,,,,,,,,,,,,,,,,,,,,,,,,,,,,,,,,,,,,,,,,,,,,,,,
295477,2022-11-14_19h51.55.154,vts_reward_expectancy_bt,2022.2.4,Win32,59.75143403,Chrome,1536,864,,,a,1.3684,10,488,2,0,2,2,5,1,0,1,0,0,0,0,0,1,circle,star,,,,,,,,,,,,,,,,,,,,,,,,,,,,,,,,,,,,,,,,,,,,,,,,,,,,,,
295477,2022-11-14_19h51.55.154,vts_reward_expectancy_bt,2022.2.4,Win32,59.75143403,Chrome,1536,864,,,a,0.8425,10,498,2,0,3,3,3,1,0,1,0,0,1,0,0,0,circle,triangle,,,,,,,,,,,,,,,,,,,,,,,,,,,,,,,,,,,,,,,,,,,,,,,,,,,,,,
295477,2022-11-14_19h51.55.154,vts_reward_expectancy_bt,2022.2.4,Win32,59.75143403,Chrome,1536,864,,,l,2.0508,10,508,2,0,4,4,2,1,1,0,0,0,0,0,0,1,triangle,star,,,,,,,,,,,,,,,,,,,,,,,,,,,,,,,,,,,,,,,,,,,,,,,,,,,,,,
295477,2022-11-14_19h51.55.154,vts_reward_expectancy_bt,2022.2.4,Win32,59.75143403,Chrome,1536,864,,,l,2.0518,10,518,2,0,5,5,8,1,0,0,1,0,0,0,0,1,hexagon,star,,,,,,,,,,,,,,,,,,,,,,,,,,,,,,,,,,,,,,,,,,,,,,,,,,,,,,
295477,2022-11-14_19h51.55.154,vts_reward_expectancy_bt,2022.2.4,Win32,59.75143403,Chrome,1536,864,,,a,0.8859,10,528,2,0,6,6,9,1,0,0,0,1,1,0,0,0,star,triangle,,,,,,,,,,,,,,,,,,,,,,,,,,,,,,,,,,,,,,,,,,,,,,,,,,,,,,
295477,2022-11-14_19h51.55.154,vts_reward_expectancy_bt,2022.2.4,Win32,59.75143403,Chrome,1536,864,,,a,3.0648,10,538,2,0,7,7,10,1,0,0,0,1,0,1,0,0,star ,circle,,,,,,,,,,,,,,,,,,,,,,,,,,,,,,,,,,,,,,,,,,,,,,,,,,,,,,
295477,2022-11-14_19h51.55.154,vts_reward_expectancy_bt,2022.2.4,Win32,59.75143403,Chrome,1536,864,,,l,1.3466,10,548,2,0,8,8,7,1,0,0,1,0,0,1,0,0,hexagon,circle,,,,,,,,,,,,,,,,,,,,,,,,,,,,,,,,,,,,,,,,,,,,,,,,,,,,,,
295477,2022-11-14_19h51.55.154,vts_reward_expectancy_bt,2022.2.4,Win32,59.75143403,Chrome,1536,864,,,l,2.0397,1,549,2,0,9,9,1,1,1,0,0,0,0,0,1,0,triangle,hexagon,,,,,,,,,,,,,,,,,,,,,,,,,,,,,,,,,,,,,,,,,,,,,,,,,,,,,,
295477,2022-11-14_19h51.55.154,vts_reward_expectancy_bt,2022.2.4,Win32,59.75143403,Chrome,1536,864,,,l,3.6174,1,550,2,0,10,10,6,1,0,0,1,0,1,0,0,0,hexagon,triangle,,,,,,,,,,,,,,,,,,,,,,,,,,,,,,,,,,,,,,,,,,,,,,,,,,,,,,
295477,2022-11-14_19h51.55.154,vts_reward_expectancy_bt,2022.2.4,Win32,59.75143403,Chrome,1536,864,,,a,2.0492,10,560,2,0,11,11,11,1,0,0,0,1,0,0,1,0,star,hexagon,,,,,,,,,,,,,,,,,,,,,,,,,,,,,,,,,,,,,,,,,,,,,,,,,,,,,,
295477,2022-11-14_19h51.55.154,vts_reward_expectancy_bt,2022.2.4,Win32,59.75143403,Chrome,1536,864,,,l,2.3215,1,561,2,1,0,12,2,1,1,0,0,0,0,0,0,1,triangle,star,,,,,,,,,,,,,,,,,,,,,,,,,,,,,,,,,,,,,,,,,,,,,,,,,,,,,,
295477,2022-11-14_19h51.55.154,vts_reward_expectancy_bt,2022.2.4,Win32,59.75143403,Chrome,1536,864,,,l,2.4319,1,562,2,1,1,13,1,1,1,0,0,0,0,0,1,0,triangle,hexagon,,,,,,,,,,,,,,,,,,,,,,,,,,,,,,,,,,,,,,,,,,,,,,,,,,,,,,
295477,2022-11-14_19h51.55.154,vts_reward_expectancy_bt,2022.2.4,Win32,59.75143403,Chrome,1536,864,,,a,2.5028,10,572,2,1,2,14,9,1,0,0,0,1,1,0,0,0,star,triangle,,,,,,,,,,,,,,,,,,,,,,,,,,,,,,,,,,,,,,,,,,,,,,,,,,,,,,
295477,2022-11-14_19h51.55.154,vts_reward_expectancy_bt,2022.2.4,Win32,59.75143403,Chrome,1536,864,,,a,6.1786,10,582,2,1,3,15,5,1,0,1,0,0,0,0,0,1,circle,star,,,,,,,,,,,,,,,,,,,,,,,,,,,,,,,,,,,,,,,,,,,,,,,,,,,,,,
295477,2022-11-14_19h51.55.154,vts_reward_expectancy_bt,2022.2.4,Win32,59.75143403,Chrome,1536,864,,,a,10.7934,1,583,2,1,4,16,6,1,0,0,1,0,1,0,0,0,hexagon,triangle,,,,,,,,,,,,,,,,,,,,,,,,,,,,,,,,,,,,,,,,,,,,,,,,,,,,,,
295477,2022-11-14_19h51.55.154,vts_reward_expectancy_bt,2022.2.4,Win32,59.75143403,Chrome,1536,864,,,l,7.1806,1,584,2,1,5,17,11,1,0,0,0,1,0,0,1,0,star,hexagon,,,,,,,,,,,,,,,,,,,,,,,,,,,,,,,,,,,,,,,,,,,,,,,,,,,,,,
295477,2022-11-14_19h51.55.154,vts_reward_expectancy_bt,2022.2.4,Win32,59.75143403,Chrome,1536,864,,,l,1.2709,10,594,2,1,6,18,7,1,0,0,1,0,0,1,0,0,hexagon,circle,,,,,,,,,,,,,,,,,,,,,,,,,,,,,,,,,,,,,,,,,,,,,,,,,,,,,,
295477,2022-11-14_19h51.55.154,vts_reward_expectancy_bt,2022.2.4,Win32,59.75143403,Chrome,1536,864,,,a,2.2997,10,604,2,1,7,19,10,1,0,0,0,1,0,1,0,0,star ,circle,,,,,,,,,,,,,,,,,,,,,,,,,,,,,,,,,,,,,,,,,,,,,,,,,,,,,,
295477,2022-11-14_19h51.55.154,vts_reward_expectancy_bt,2022.2.4,Win32,59.75143403,Chrome,1536,864,,,a,1.4164,1,605,2,1,8,20,3,1,0,1,0,0,1,0,0,0,circle,triangle,,,,,,,,,,,,,,,,,,,,,,,,,,,,,,,,,,,,,,,,,,,,,,,,,,,,,,
295477,2022-11-14_19h51.55.154,vts_reward_expectancy_bt,2022.2.4,Win32,59.75143403,Chrome,1536,864,,,a,1.5663,10,615,2,1,9,21,4,1,0,1,0,0,0,0,1,0,circle,hexagon,,,,,,,,,,,,,,,,,,,,,,,,,,,,,,,,,,,,,,,,,,,,,,,,,,,,,,
295477,2022-11-14_19h51.55.154,vts_reward_expectancy_bt,2022.2.4,Win32,59.75143403,Chrome,1536,864,,,l,1.7493,1,616,2,1,10,22,0,1,1,0,0,0,0,1,0,0,triangle,circle,,,,,,,,,,,,,,,,,,,,,,,,,,,,,,,,,,,,,,,,,,,,,,,,,,,,,,
295477,2022-11-14_19h51.55.154,vts_reward_expectancy_bt,2022.2.4,Win32,59.75143403,Chrome,1536,864,,,l,1.9473,10,626,2,1,11,23,8,1,0,0,1,0,0,0,0,1,hexagon,star,,,,,,,,,,,,,,,,,,,,,,,,,,,,,,,,,,,,,,,,,,,,,,,,,,,,,,
295477,2022-11-14_19h51.55.154,vts_reward_expectancy_bt,2022.2.4,Win32,59.75143403,Chrome,1536,864,,,a,0.7902,1,627,2,2,0,24,2,1,1,0,0,0,0,0,0,1,triangle,star,,,,,,,,,,,,,,,,,,,,,,,,,,,,,,,,,,,,,,,,,,,,,,,,,,,,,,
295477,2022-11-14_19h51.55.154,vts_reward_expectancy_bt,2022.2.4,Win32,59.75143403,Chrome,1536,864,,,a,1.6176,10,637,2,2,1,25,3,1,0,1,0,0,1,0,0,0,circle,triangle,,,,,,,,,,,,,,,,,,,,,,,,,,,,,,,,,,,,,,,,,,,,,,,,,,,,,,
295477,2022-11-14_19h51.55.154,vts_reward_expectancy_bt,2022.2.4,Win32,59.75143403,Chrome,1536,864,,,l,3.2028,10,647,2,2,2,26,8,1,0,0,1,0,0,0,0,1,hexagon,star,,,,,,,,,,,,,,,,,,,,,,,,,,,,,,,,,,,,,,,,,,,,,,,,,,,,,,
295477,2022-11-14_19h51.55.154,vts_reward_expectancy_bt,2022.2.4,Win32,59.75143403,Chrome,1536,864,,,a,5.0297,10,657,2,2,3,27,4,1,0,1,0,0,0,0,1,0,circle,hexagon,,,,,,,,,,,,,,,,,,,,,,,,,,,,,,,,,,,,,,,,,,,,,,,,,,,,,,
295477,2022-11-14_19h51.55.154,vts_reward_expectancy_bt,2022.2.4,Win32,59.75143403,Chrome,1536,864,,,a,6.4966,1,658,2,2,4,28,6,1,0,0,1,0,1,0,0,0,hexagon,triangle,,,,,,,,,,,,,,,,,,,,,,,,,,,,,,,,,,,,,,,,,,,,,,,,,,,,,,
295477,2022-11-14_19h51.55.154,vts_reward_expectancy_bt,2022.2.4,Win32,59.75143403,Chrome,1536,864,,,a,2.1711,1,659,2,2,5,29,10,1,0,0,0,1,0,1,0,0,star ,circle,,,,,,,,,,,,,,,,,,,,,,,,,,,,,,,,,,,,,,,,,,,,,,,,,,,,,,
295477,2022-11-14_19h51.55.154,vts_reward_expectancy_bt,2022.2.4,Win32,59.75143403,Chrome,1536,864,,,a,5.3056,1,660,2,2,6,30,5,1,0,1,0,0,0,0,0,1,circle,star,,,,,,,,,,,,,,,,,,,,,,,,,,,,,,,,,,,,,,,,,,,,,,,,,,,,,,
295477,2022-11-14_19h51.55.154,vts_reward_expectancy_bt,2022.2.4,Win32,59.75143403,Chrome,1536,864,,,l,1.1078,1,661,2,2,7,31,0,1,1,0,0,0,0,1,0,0,triangle,circle,,,,,,,,,,,,,,,,,,,,,,,,,,,,,,,,,,,,,,,,,,,,,,,,,,,,,,
295477,2022-11-14_19h51.55.154,vts_reward_expectancy_bt,2022.2.4,Win32,59.75143403,Chrome,1536,864,,,l,1.7669,1,662,2,2,8,32,1,1,1,0,0,0,0,0,1,0,triangle,hexagon,,,,,,,,,,,,,,,,,,,,,,,,,,,,,,,,,,,,,,,,,,,,,,,,,,,,,,
295477,2022-11-14_19h51.55.154,vts_reward_expectancy_bt,2022.2.4,Win32,59.75143403,Chrome,1536,864,,,a,1.3996,10,672,2,2,9,33,9,1,0,0,0,1,1,0,0,0,star,triangle,,,,,,,,,,,,,,,,,,,,,,,,,,,,,,,,,,,,,,,,,,,,,,,,,,,,,,
295477,2022-11-14_19h51.55.154,vts_reward_expectancy_bt,2022.2.4,Win32,59.75143403,Chrome,1536,864,,,l,1.0172,10,682,2,2,10,34,7,1,0,0,1,0,0,1,0,0,hexagon,circle,,,,,,,,,,,,,,,,,,,,,,,,,,,,,,,,,,,,,,,,,,,,,,,,,,,,,,
295477,2022-11-14_19h51.55.154,vts_reward_expectancy_bt,2022.2.4,Win32,59.75143403,Chrome,1536,864,,,a,5.1,10,692,2,2,11,35,11,1,0,0,0,1,0,0,1,0,star,hexagon,,,,,,,,,,,,,,,,,,,,,,,,,,,,,,,,,,,,,,,,,,,,,,,,,,,,,,
295477,2022-11-14_19h51.55.154,vts_reward_expectancy_bt,2022.2.4,Win32,59.75143403,Chrome,1536,864,,,,,,,,,,,,,,,,,,,,,,,H,125,triangle,1,0,d,1.0566,0,0,0,0,0,1,,,,,,,,,,,,,,,,,,,,,,,,,,,,,,,,,,,,,,,,,
295477,2022-11-14_19h51.55.154,vts_reward_expectancy_bt,2022.2.4,Win32,59.75143403,Chrome,1536,864,,,,,,,,,,,,,,,,,,,,,,,W,160,hexagon,1,0,f,0.5842,0,1,0,1,0,1,,,,,,,,,,,,,,,,,,,,,,,,,,,,,,,,,,,,,,,,,
295477,2022-11-14_19h51.55.154,vts_reward_expectancy_bt,2022.2.4,Win32,59.75143403,Chrome,1536,864,,,,,,,,,,,,,,,,,,,,,,,B,139,circle,1,0,d,0.7004,0,2,0,2,0,1,,,,,,,,,,,,,,,,,,,,,,,,,,,,,,,,,,,,,,,,,
295477,2022-11-14_19h51.55.154,vts_reward_expectancy_bt,2022.2.4,Win32,59.75143403,Chrome,1536,864,,,,,,,,,,,,,,,,,,,,,,,D,174,star,1,0,d,0.5342,0,3,0,3,0,1,,,,,,,,,,,,,,,,,,,,,,,,,,,,,,,,,,,,,,,,,
295477,2022-11-14_19h51.55.154,vts_reward_expectancy_bt,2022.2.4,Win32,59.75143403,Chrome,1536,864,,,,,,,,,,,,,,,,,,,,,,,F,132,triangle,1,0,d,0.6422,0,4,0,4,0,1,,,,,,,,,,,,,,,,,,,,,,,,,,,,,,,,,,,,,,,,,
295477,2022-11-14_19h51.55.154,vts_reward_expectancy_bt,2022.2.4,Win32,59.75143403,Chrome,1536,864,,,,,,,,,,,,,,,,,,,,,,,Y,146,hexagon,1,0,f,0.4678,0,5,0,5,0,1,,,,,,,,,,,,,,,,,,,,,,,,,,,,,,,,,,,,,,,,,
295477,2022-11-14_19h51.55.154,vts_reward_expectancy_bt,2022.2.4,Win32,59.75143403,Chrome,1536,864,,,,,,,,,,,,,,,,,,,,,,,U,167,circle,1,0,f,0.6006,0,6,0,6,0,1,,,,,,,,,,,,,,,,,,,,,,,,,,,,,,,,,,,,,,,,,
295477,2022-11-14_19h51.55.154,vts_reward_expectancy_bt,2022.2.4,Win32,59.75143403,Chrome,1536,864,,,,,,,,,,,,,,,,,,,,,,,S,181,star,1,0,f,0.7172,0,7,0,7,0,1,,,,,,,,,,,,,,,,,,,,,,,,,,,,,,,,,,,,,,,,,
295477,2022-11-14_19h51.55.154,vts_reward_expectancy_bt,2022.2.4,Win32,59.75143403,Chrome,1536,864,,,,,,,,,,,,,,,,,,,,,,,H,125,triangle,1,0,d,0.8673,0,8,0,8,0,1,,,,,,,,,,,,,,,,,,,,,,,,,,,,,,,,,,,,,,,,,
295477,2022-11-14_19h51.55.154,vts_reward_expectancy_bt,2022.2.4,Win32,59.75143403,Chrome,1536,864,,,,,,,,,,,,,,,,,,,,,,,W,160,hexagon,1,0,f,0.4839,0,9,0,9,0,1,,,,,,,,,,,,,,,,,,,,,,,,,,,,,,,,,,,,,,,,,
295477,2022-11-14_19h51.55.154,vts_reward_expectancy_bt,2022.2.4,Win32,59.75143403,Chrome,1536,864,,,,,,,,,,,,,,,,,,,,,,,S,167,star,2,0,,,1,,,,,,f,0.675,0,0,0,0,1,,,,,,,,,,,,,,,,,,,,,,,,,,,,,,,,,,
295477,2022-11-14_19h51.55.154,vts_reward_expectancy_bt,2022.2.4,Win32,59.75143403,Chrome,1536,864,,,,,,,,,,,,,,,,,,,,,,,Y,139,triangle,1,0,,,1,,,,,,j,1.1339,1,0,1,0,1,,,,,,,,,,,,,,,,,,,,,,,,,,,,,,,,,,
295477,2022-11-14_19h51.55.154,vts_reward_expectancy_bt,2022.2.4,Win32,59.75143403,Chrome,1536,864,,,,,,,,,,,,,,,,,,,,,,,F,160,circle,1,0,,,1,,,,,,k,0.7927,2,0,2,0,1,,,,,,,,,,,,,,,,,,,,,,,,,,,,,,,,,,
295477,2022-11-14_19h51.55.154,vts_reward_expectancy_bt,2022.2.4,Win32,59.75143403,Chrome,1536,864,,,,,,,,,,,,,,,,,,,,,,,B,181,hexagon,1,0,,,1,,,,,,k,0.5334,3,0,3,0,1,,,,,,,,,,,,,,,,,,,,,,,,,,,,,,,,,,
295477,2022-11-14_19h51.55.154,vts_reward_expectancy_bt,2022.2.4,Win32,59.75143403,Chrome,1536,864,,,,,,,,,,,,,,,,,,,,,,,U,125,star,1,0,,,1,,,,,,j,0.4165,4,0,4,0,1,,,,,,,,,,,,,,,,,,,,,,,,,,,,,,,,,,
295477,2022-11-14_19h51.55.154,vts_reward_expectancy_bt,2022.2.4,Win32,59.75143403,Chrome,1536,864,,,,,,,,,,,,,,,,,,,,,,,D,146,triangle,1,0,,,1,,,,,,j,1.4915,5,0,5,0,1,,,,,,,,,,,,,,,,,,,,,,,,,,,,,,,,,,
295477,2022-11-14_19h51.55.154,vts_reward_expectancy_bt,2022.2.4,Win32,59.75143403,Chrome,1536,864,,,,,,,,,,,,,,,,,,,,,,,H,174,circle,1,0,,,1,,,,,,k,0.9845,6,0,6,0,1,,,,,,,,,,,,,,,,,,,,,,,,,,,,,,,,,,
295477,2022-11-14_19h51.55.154,vts_reward_expectancy_bt,2022.2.4,Win32,59.75143403,Chrome,1536,864,,,,,,,,,,,,,,,,,,,,,,,W,132,hexagon,1,0,,,1,,,,,,j,0.9901,7,0,7,0,1,,,,,,,,,,,,,,,,,,,,,,,,,,,,,,,,,,
295477,2022-11-14_19h51.55.154,vts_reward_expectancy_bt,2022.2.4,Win32,59.75143403,Chrome,1536,864,,,,,,,,,,,,,,,,,,,,,,,S,167,circle,1,0,,,1,,,,,,k,0.6001,8,0,8,0,1,,,,,,,,,,,,,,,,,,,,,,,,,,,,,,,,,,
295477,2022-11-14_19h51.55.154,vts_reward_expectancy_bt,2022.2.4,Win32,59.75143403,Chrome,1536,864,,,,,,,,,,,,,,,,,,,,,,,Y,139,hexagon,1,0,,,1,,,,,,j,0.6999,9,0,9,0,1,,,,,,,,,,,,,,,,,,,,,,,,,,,,,,,,,,
295477,2022-11-14_19h51.55.154,vts_reward_expectancy_bt,2022.2.4,Win32,59.75143403,Chrome,1536,864,,,,,0,692,,,,,,,,,,,,,,,,,W,174,star,0,0,,,2,,,,,,,,,,,,,-1,letter,NA,d,1.1613,vtsPrac,0,0,0,0,1,,,,,,,,,,,,,,,,,,,,,,,
295477,2022-11-14_19h51.55.154,vts_reward_expectancy_bt,2022.2.4,Win32,59.75143403,Chrome,1536,864,,,,,0,692,,,,,,,,,,,,,,,,,U,125,triangle,1,1,,,2,,,,,,,,,,,,,repeat,letter,lettRpt,f,0.8836,vtsPrac,1,0,1,0,1,,,,,,,,,,,,,,,,,,,,,,,
295477,2022-11-14_19h51.55.154,vts_reward_expectancy_bt,2022.2.4,Win32,59.75143403,Chrome,1536,864,,,,,0,692,,,,,,,,,,,,,,,,,Y,181,star,1,0,,,2,,,,,,,,,,,,,repeat,letter,lettRpt,f,0.7903,vtsPrac,2,0,2,0,1,,,,,,,,,,,,,,,,,,,,,,,
295477,2022-11-14_19h51.55.154,vts_reward_expectancy_bt,2022.2.4,Win32,59.75143403,Chrome,1536,864,,,,,0,692,,,,,,,,,,,,,,,,,H,132,triangle,1,0,,,2,,,,,,,,,,,,,switch,number,numSwt,j,0.519,vtsPrac,3,0,3,0,1,,,,,,,,,,,,,,,,,,,,,,,
295477,2022-11-14_19h51.55.154,vts_reward_expectancy_bt,2022.2.4,Win32,59.75143403,Chrome,1536,864,,,,,0,692,,,,,,,,,,,,,,,,,W,174,star,1,0,,,2,,,,,,,,,,,,,switch,letter,lettSwt,f,0.8,vtsPrac,4,0,4,0,1,,,,,,,,,,,,,,,,,,,,,,,
295477,2022-11-14_19h51.55.154,vts_reward_expectancy_bt,2022.2.4,Win32,59.75143403,Chrome,1536,864,,,,,0,692,,,,,,,,,,,,,,,,,U,125,triangle,1,0,,,2,,,,,,,,,,,,,switch,number,numSwt,j,0.5056,vtsPrac,5,0,5,0,1,,,,,,,,,,,,,,,,,,,,,,,
295477,2022-11-14_19h51.55.154,vts_reward_expectancy_bt,2022.2.4,Win32,59.75143403,Chrome,1536,864,,,,,0,692,,,,,,,,,,,,,,,,,Y,181,circle,1,0,,,2,,,,,,,,,,,,,repeat,number,numRpt,k,0.7337,vtsPrac,6,0,6,0,1,,,,,,,,,,,,,,,,,,,,,,,
295477,2022-11-14_19h51.55.154,vts_reward_expectancy_bt,2022.2.4,Win32,59.75143403,Chrome,1536,864,,,,,0,692,,,,,,,,,,,,,,,,,H,132,triangle,1,0,,,2,,,,,,,,,,,,,repeat,number,numRpt,j,1.0836,vtsPrac,7,0,7,0,1,,,,,,,,,,,,,,,,,,,,,,,
295477,2022-11-14_19h51.55.154,vts_reward_expectancy_bt,2022.2.4,Win32,59.75143403,Chrome,1536,864,,,,,0,692,,,,,,,,,,,,,,,,,W,174,star,1,0,,,2,,,,,,,,,,,,,switch,letter,lettSwt,f,0.8835,vtsPrac,8,0,8,0,1,,,,,,,,,,,,,,,,,,,,,,,
295477,2022-11-14_19h51.55.154,vts_reward_expectancy_bt,2022.2.4,Win32,59.75143403,Chrome,1536,864,,,,,0,692,,,,,,,,,,,,,,,,,B,167,triangle,1,0,,,2,,,,,,,,,,,,,switch,number,numSwt,k,0.9001,vtsPrac,9,0,9,0,1,,,,,,,,,,,,,,,,,,,,,,,
295477,2022-11-14_19h51.55.154,vts_reward_expectancy_bt,2022.2.4,Win32,59.75143403,Chrome,1536,864,,,,,0,692,,,,,,,,,,,,,,,,,S,139,circle,1,0,,,2,,,,,,,,,,,,,switch,letter,lettSwt,f,0.7875,vtsPrac,10,0,10,0,1,,,,,,,,,,,,,,,,,,,,,,,
295477,2022-11-14_19h51.55.154,vts_reward_expectancy_bt,2022.2.4,Win32,59.75143403,Chrome,1536,864,,,,,0,692,,,,,,,,,,,,,,,,,F,132,triangle,1,0,,,2,,,,,,,,,,,,,repeat,letter,lettRpt,d,0.9224,vtsPrac,11,0,11,0,1,,,,,,,,,,,,,,,,,,,,,,,
295477,2022-11-14_19h51.55.154,vts_reward_expectancy_bt,2022.2.4,Win32,59.75143403,Chrome,1536,864,,,,,0,692,,,,,,,,,,,,,,,,,F,139,triangle,1,0,,,2,,,,,,,,,,,,,repeat,letter,lettRpt,d,0.6832,vtsPrac,12,0,12,0,1,,,,,,,,,,,,,,,,,,,,,,,
295477,2022-11-14_19h51.55.154,vts_reward_expectancy_bt,2022.2.4,Win32,59.75143403,Chrome,1536,864,,,,,0,692,,,,,,,,,,,,,,,,,B,146,star,1,0,,,2,,,,,,,,,,,,,repeat,letter,lettRpt,d,0.8054,vtsPrac,13,0,13,0,1,,,,,,,,,,,,,,,,,,,,,,,
295477,2022-11-14_19h51.55.154,vts_reward_expectancy_bt,2022.2.4,Win32,59.75143403,Chrome,1536,864,,,,,0,692,,,,,,,,,,,,,,,,,Y,174,hexagon,1,0,,,2,,,,,,,,,,,,,repeat,letter,lettRpt,f,0.5577,vtsPrac,14,0,14,0,1,,,,,,,,,,,,,,,,,,,,,,,
295477,2022-11-14_19h51.55.154,vts_reward_expectancy_bt,2022.2.4,Win32,59.75143403,Chrome,1536,864,,,,,0,692,,,,,,,,,,,,,,,,,D,132,circle,1,0,,,2,,,,,,,,,,,,,repeat,letter,lettRpt,d,1.1496,vtsPrac,15,0,15,0,1,,,,,,,,,,,,,,,,,,,,,,,
295477,2022-11-14_19h51.55.154,vts_reward_expectancy_bt,2022.2.4,Win32,59.75143403,Chrome,1536,864,,,,,0,692,,,,,,,,,,,,,,,,,U,167,hexagon,0,0,,,2,,,,,,,,,,,,,switch,number,NA,j,0.9222,vtsPrac,16,0,16,0,1,,,,,,,,,,,,,,,,,,,,,,,
295477,2022-11-14_19h51.55.154,vts_reward_expectancy_bt,2022.2.4,Win32,59.75143403,Chrome,1536,864,,,,,0,692,,,,,,,,,,,,,,,,,D,181,triangle,1,1,,,2,,,,,,,,,,,,,repeat,number,numRpt,k,0.691,vtsPrac,17,0,17,0,1,,,,,,,,,,,,,,,,,,,,,,,
295477,2022-11-14_19h51.55.154,vts_reward_expectancy_bt,2022.2.4,Win32,59.75143403,Chrome,1536,864,,,,,0,692,,,,,,,,,,,,,,,,,W,139,circle,1,0,,,2,,,,,,,,,,,,,switch,letter,lettSwt,f,1.0513,vtsPrac,18,0,18,0,1,,,,,,,,,,,,,,,,,,,,,,,
295477,2022-11-14_19h51.55.154,vts_reward_expectancy_bt,2022.2.4,Win32,59.75143403,Chrome,1536,864,,,,,0,692,,,,,,,,,,,,,,,,,B,125,hexagon,1,0,,,2,,,,,,,,,,,,,switch,number,numSwt,j,0.6,vtsPrac,19,0,19,0,1,,,,,,,,,,,,,,,,,,,,,,,
295477,2022-11-14_19h51.55.154,vts_reward_expectancy_bt,2022.2.4,Win32,59.75143403,Chrome,1536,864,,,,,0,692,,,,,,,,,,,,,,,,,U,132,triangle,1,0,,,2,,,,,,,,,,,,,switch,letter,lettSwt,f,1.118,vtsPrac,20,0,20,0,1,,,,,,,,,,,,,,,,,,,,,,,
295477,2022-11-14_19h51.55.154,vts_reward_expectancy_bt,2022.2.4,Win32,59.75143403,Chrome,1536,864,,,,,0,692,,,,,,,,,,,,,,,,,D,174,star,1,0,,,2,,,,,,,,,,,,,switch,number,numSwt,k,1.1664,vtsPrac,21,0,21,0,1,,,,,,,,,,,,,,,,,,,,,,,
295477,2022-11-14_19h51.55.154,vts_reward_expectancy_bt,2022.2.4,Win32,59.75143403,Chrome,1536,864,,,,,0,692,,,,,,,,,,,,,,,,,S,146,circle,1,0,,,2,,,,,,,,,,,,,repeat,number,numRpt,j,0.6336,vtsPrac,22,0,22,0,1,,,,,,,,,,,,,,,,,,,,,,,
295477,2022-11-14_19h51.55.154,vts_reward_expectancy_bt,2022.2.4,Win32,59.75143403,Chrome,1536,864,,,,,0,692,,,,,,,,,,,,,,,,,W,167,triangle,1,0,,,2,,,,,,,,,,,,,switch,letter,lettSwt,f,0.7888,vtsPrac,23,0,23,0,1,,,,,,,,,,,,,,,,,,,,,,,
295477,2022-11-14_19h51.55.154,vts_reward_expectancy_bt,2022.2.4,Win32,59.75143403,Chrome,1536,864,,,,,0,692,,,,,,,,,,,,,,,,,F,174,triangle,1,0,,,2,,,,,,,,,,,,,repeat,letter,lettRpt,d,0.7499,vtsPrac,24,0,24,0,1,,,,,,,,,,,,,,,,,,,,,,,
295477,2022-11-14_19h51.55.154,vts_reward_expectancy_bt,2022.2.4,Win32,59.75143403,Chrome,1536,864,,,,,0,692,,,,,,,,,,,,,,,,,D,167,star,1,0,,,2,,,,,,,,,,,,,switch,number,numSwt,k,0.7669,vtsPrac,25,0,25,0,1,,,,,,,,,,,,,,,,,,,,,,,
295477,2022-11-14_19h51.55.154,vts_reward_expectancy_bt,2022.2.4,Win32,59.75143403,Chrome,1536,864,,,,,0,692,,,,,,,,,,,,,,,,,U,132,star,1,0,,,2,,,,,,,,,,,,,switch,letter,lettSwt,f,1.049,vtsPrac,26,0,26,0,1,,,,,,,,,,,,,,,,,,,,,,,
295477,2022-11-14_19h51.55.154,vts_reward_expectancy_bt,2022.2.4,Win32,59.75143403,Chrome,1536,864,,,,,0,692,,,,,,,,,,,,,,,,,Y,146,circle,1,0,,,2,,,,,,,,,,,,,repeat,letter,lettRpt,f,0.6062,vtsPrac,27,0,27,0,1,,,,,,,,,,,,,,,,,,,,,,,
295477,2022-11-14_19h51.55.154,vts_reward_expectancy_bt,2022.2.4,Win32,59.75143403,Chrome,1536,864,,,,,0,692,,,,,,,,,,,,,,,,,B,146,star,1,0,,,2,,,,,,,,,,,,,repeat,letter,lettRpt,d,0.6254,vtsPrac,28,0,28,0,1,,,,,,,,,,,,,,,,,,,,,,,
295477,2022-11-14_19h51.55.154,vts_reward_expectancy_bt,2022.2.4,Win32,59.75143403,Chrome,1536,864,,,,,0,692,,,,,,,,,,,,,,,,,D,139,circle,1,0,,,2,,,,,,,,,,,,,switch,number,numSwt,j,1.216,vtsPrac,29,0,29,0,1,,,,,,,,,,,,,,,,,,,,,,,
295477,2022-11-14_19h51.55.154,vts_reward_expectancy_bt,2022.2.4,Win32,59.75143403,Chrome,1536,864,,,,,0,692,,,,,,,,,,,,,,,,,F,174,circle,1,0,,,2,,,,,,,,,,,,,switch,letter,lettSwt,d,0.9586,vtsPrac,30,0,30,0,1,,,,,,,,,,,,,,,,,,,,,,,
295477,2022-11-14_19h51.55.154,vts_reward_expectancy_bt,2022.2.4,Win32,59.75143403,Chrome,1536,864,,,,,0,692,,,,,,,,,,,,,,,,,S,181,star,1,0,,,2,,,,,,,,,,,,,switch,number,numSwt,k,1.1827,vtsPrac,31,0,31,0,1,,,,,,,,,,,,,,,,,,,,,,,
295477,2022-11-14_19h51.55.154,vts_reward_expectancy_bt,2022.2.4,Win32,59.75143403,Chrome,1536,864,,,,,,,,,,,,,,,,,,,,,,,,,,,,,,,,,,,,,,,,,,,,,,,,,,,,,,,,,,,,,,,,,,,,,,,,,,,,
295477,2022-11-14_19h51.55.154,vts_reward_expectancy_bt,2022.2.4,Win32,59.75143403,Chrome,1536,864,,,,,,,,,,,,,,,,,,,,,,,,,,,,,,,,,,,,,,,,,,,,,,,,,,,,,,,,,,,,,,,,,,,,,,,,,,,,
295477,2022-11-14_19h51.55.154,vts_reward_expectancy_bt,2022.2.4,Win32,59.75143403,Chrome,1536,864,,,,,0,692,,,,,,,,,,,,,,,,,Y,125,circle,1,0,,,,,,,,,,,,,,,,switch,letter,lettSwt,f,0.6195,noRew,,,,,,0,0,0,0,0,1,,,,,,,,,,,,,,,,,
295477,2022-11-14_19h51.55.154,vts_reward_expectancy_bt,2022.2.4,Win32,59.75143403,Chrome,1536,864,,,,,0,692,,,,,,,,,,,,,,,,,W,139,triangle,1,0,,,,,,,,,,,,,,,,repeat,letter,lettRpt,f,0.5865,noRew,,,,,,0,1,0,1,0,1,,,,,,,,,,,,,,,,,
295477,2022-11-14_19h51.55.154,vts_reward_expectancy_bt,2022.2.4,Win32,59.75143403,Chrome,1536,864,,,,,0,692,,,,,,,,,,,,,,,,,D,167,circle,1,0,,,,,,,,,,,,,,,,switch,number,numSwt,k,0.5999,noRew,,,,,,0,2,0,2,0,1,,,,,,,,,,,,,,,,,
295477,2022-11-14_19h51.55.154,vts_reward_expectancy_bt,2022.2.4,Win32,59.75143403,Chrome,1536,864,,,,,0,692,,,,,,,,,,,,,,,,,U,174,triangle,1,0,,,,,,,,,,,,,,,,switch,letter,lettSwt,f,0.6714,noRew,,,,,,0,3,0,3,0,1,,,,,,,,,,,,,,,,,
295477,2022-11-14_19h51.55.154,vts_reward_expectancy_bt,2022.2.4,Win32,59.75143403,Chrome,1536,864,,,,,0,692,,,,,,,,,,,,,,,,,Y,125,circle,1,0,,,,,,,,,,,,,,,,switch,number,numSwt,j,0.9172,noRew,,,,,,0,4,0,4,0,1,,,,,,,,,,,,,,,,,
295477,2022-11-14_19h51.55.154,vts_reward_expectancy_bt,2022.2.4,Win32,59.75143403,Chrome,1536,864,,,,,0,692,,,,,,,,,,,,,,,,,W,139,star,1,0,,,,,,,,,,,,,,,,repeat,number,numRpt,j,1.1713,noRew,,,,,,0,5,0,5,0,1,,,,,,,,,,,,,,,,,
295477,2022-11-14_19h51.55.154,vts_reward_expectancy_bt,2022.2.4,Win32,59.75143403,Chrome,1536,864,,,,,0,692,,,,,,,,,,,,,,,,,D,167,triangle,1,0,,,,,,,,,,,,,,,,switch,letter,lettSwt,d,0.5009,noRew,,,,,,0,6,0,6,0,1,,,,,,,,,,,,,,,,,
295477,2022-11-14_19h51.55.154,vts_reward_expectancy_bt,2022.2.4,Win32,59.75143403,Chrome,1536,864,,,,,0,692,,,,,,,,,,,,,,,,,U,174,hexagon,1,0,,,,,,,,,,,,,,,,switch,number,numSwt,k,0.5712,noRew,,,,,,0,7,0,7,0,1,,,,,,,,,,,,,,,,,
295477,2022-11-14_19h51.55.154,vts_reward_expectancy_bt,2022.2.4,Win32,59.75143403,Chrome,1536,864,,,,,0,692,,,,,,,,,,,,,,,,,B,146,hexagon,1,0,,,,,,,,,,,,,,,,repeat,number,numRpt,j,0.5238,noRew,,,,,,0,8,0,8,0,1,,,,,,,,,,,,,,,,,
295477,2022-11-14_19h51.55.154,vts_reward_expectancy_bt,2022.2.4,Win32,59.75143403,Chrome,1536,864,,,,,0,692,,,,,,,,,,,,,,,,,F,174,star,1,0,,,,,,,,,,,,,,,,repeat,number,numRpt,k,0.8502,noRew,,,,,,0,9,0,9,0,1,,,,,,,,,,,,,,,,,
295477,2022-11-14_19h51.55.154,vts_reward_expectancy_bt,2022.2.4,Win32,59.75143403,Chrome,1536,864,,,,,0,692,,,,,,,,,,,,,,,,,W,181,triangle,1,0,,,,,,,,,,,,,,,,repeat,number,numRpt,k,0.4336,noRew,,,,,,0,10,0,10,0,1,,,,,,,,,,,,,,,,,
295477,2022-11-14_19h51.55.154,vts_reward_expectancy_bt,2022.2.4,Win32,59.75143403,Chrome,1536,864,,,,,0,692,,,,,,,,,,,,,,,,,D,139,circle,1,0,,,,,,,,,,,,,,,,switch,letter,lettSwt,d,0.7744,noRew,,,,,,0,11,0,11,0,1,,,,,,,,,,,,,,,,,
295477,2022-11-14_19h51.55.154,vts_reward_expectancy_bt,2022.2.4,Win32,59.75143403,Chrome,1536,864,,,,,0,692,,,,,,,,,,,,,,,,,Y,174,hexagon,1,0,,,,,,,,,,,,,,,,switch,number,numSwt,k,0.8373,noRew,,,,,,0,12,0,12,0,1,,,,,,,,,,,,,,,,,
295477,2022-11-14_19h51.55.154,vts_reward_expectancy_bt,2022.2.4,Win32,59.75143403,Chrome,1536,864,,,,,0,692,,,,,,,,,,,,,,,,,U,181,triangle,1,0,,,,,,,,,,,,,,,,repeat,number,numRpt,k,0.9029,noRew,,,,,,0,13,0,13,0,1,,,,,,,,,,,,,,,,,
295477,2022-11-14_19h51.55.154,vts_reward_expectancy_bt,2022.2.4,Win32,59.75143403,Chrome,1536,864,,,,,0,692,,,,,,,,,,,,,,,,,W,167,hexagon,1,0,,,,,,,,,,,,,,,,switch,letter,lettSwt,f,0.9564,noRew,,,,,,0,14,0,14,0,1,,,,,,,,,,,,,,,,,
295477,2022-11-14_19h51.55.154,vts_reward_expectancy_bt,2022.2.4,Win32,59.75143403,Chrome,1536,864,,,,,0,692,,,,,,,,,,,,,,,,,F,132,star,1,0,,,,,,,,,,,,,,,,repeat,letter,lettRpt,d,0.517,noRew,,,,,,0,15,0,15,0,1,,,,,,,,,,,,,,,,,
295477,2022-11-14_19h51.55.154,vts_reward_expectancy_bt,2022.2.4,Win32,59.75143403,Chrome,1536,864,,,,,0,692,,,,,,,,,,,,,,,,,U,174,circle,1,0,,,,,,,,,,,,,,,,repeat,letter,lettRpt,f,0.8834,noRew,,,,,,0,16,0,16,0,1,,,,,,,,,,,,,,,,,
295477,2022-11-14_19h51.55.154,vts_reward_expectancy_bt,2022.2.4,Win32,59.75143403,Chrome,1536,864,,,,,0,692,,,,,,,,,,,,,,,,,H,146,hexagon,1,0,,,,,,,,,,,,,,,,repeat,letter,lettRpt,d,0.6005,noRew,,,,,,0,17,0,17,0,1,,,,,,,,,,,,,,,,,
295477,2022-11-14_19h51.55.154,vts_reward_expectancy_bt,2022.2.4,Win32,59.75143403,Chrome,1536,864,,,,,0,692,,,,,,,,,,,,,,,,,D,125,triangle,1,0,,,,,,,,,,,,,,,,repeat,letter,lettRpt,d,0.7004,noRew,,,,,,0,18,0,18,0,1,,,,,,,,,,,,,,,,,
295477,2022-11-14_19h51.55.154,vts_reward_expectancy_bt,2022.2.4,Win32,59.75143403,Chrome,1536,864,,,,,0,692,,,,,,,,,,,,,,,,,F,132,star,1,0,,,,,,,,,,,,,,,,switch,number,numSwt,j,0.6736,noRew,,,,,,0,19,0,19,0,1,,,,,,,,,,,,,,,,,
295477,2022-11-14_19h51.55.154,vts_reward_expectancy_bt,2022.2.4,Win32,59.75143403,Chrome,1536,864,,,,,0,692,,,,,,,,,,,,,,,,,S,132,circle,1,0,,,,,,,,,,,,,,,,repeat,number,numRpt,j,0.5505,noRew,,,,,,0,20,0,20,0,1,,,,,,,,,,,,,,,,,
295477,2022-11-14_19h51.55.154,vts_reward_expectancy_bt,2022.2.4,Win32,59.75143403,Chrome,1536,864,,,,,0,692,,,,,,,,,,,,,,,,,D,160,hexagon,1,0,,,,,,,,,,,,,,,,repeat,number,numRpt,k,1.3648,noRew,,,,,,0,21,0,21,0,1,,,,,,,,,,,,,,,,,
295477,2022-11-14_19h51.55.154,vts_reward_expectancy_bt,2022.2.4,Win32,59.75143403,Chrome,1536,864,,,,,0,692,,,,,,,,,,,,,,,,,Y,139,triangle,1,0,,,,,,,,,,,,,,,,switch,letter,lettSwt,f,0.9747,noRew,,,,,,0,22,0,22,0,1,,,,,,,,,,,,,,,,,
295477,2022-11-14_19h51.55.154,vts_reward_expectancy_bt,2022.2.4,Win32,59.75143403,Chrome,1536,864,,,,,0,692,,,,,,,,,,,,,,,,,W,174,star,1,0,,,,,,,,,,,,,,,,repeat,letter,lettRpt,f,1.3167,noRew,,,,,,0,23,0,23,0,1,,,,,,,,,,,,,,,,,
295477,2022-11-14_19h51.55.154,vts_reward_expectancy_bt,2022.2.4,Win32,59.75143403,Chrome,1536,864,,,,,0,692,,,,,,,,,,,,,,,,,H,167,triangle,1,0,,,,,,,,,,,,,,,,switch,number,numSwt,k,0.7173,noRew,,,,,,0,24,0,24,0,1,,,,,,,,,,,,,,,,,
295477,2022-11-14_19h51.55.154,vts_reward_expectancy_bt,2022.2.4,Win32,59.75143403,Chrome,1536,864,,,,,0,692,,,,,,,,,,,,,,,,,W,160,hexagon,1,0,,,,,,,,,,,,,,,,switch,letter,lettSwt,f,1.3331,noRew,,,,,,0,25,0,25,0,1,,,,,,,,,,,,,,,,,
295477,2022-11-14_19h51.55.154,vts_reward_expectancy_bt,2022.2.4,Win32,59.75143403,Chrome,1536,864,,,,,0,692,,,,,,,,,,,,,,,,,D,139,hexagon,1,0,,,,,,,,,,,,,,,,switch,number,numSwt,j,0.97,noRew,,,,,,0,26,0,26,0,1,,,,,,,,,,,,,,,,,
295477,2022-11-14_19h51.55.154,vts_reward_expectancy_bt,2022.2.4,Win32,59.75143403,Chrome,1536,864,,,,,0,692,,,,,,,,,,,,,,,,,S,125,circle,1,0,,,,,,,,,,,,,,,,repeat,number,numRpt,j,0.9,noRew,,,,,,0,27,0,27,0,1,,,,,,,,,,,,,,,,,
295477,2022-11-14_19h51.55.154,vts_reward_expectancy_bt,2022.2.4,Win32,59.75143403,Chrome,1536,864,,,,,0,692,,,,,,,,,,,,,,,,,H,167,circle,0,0,,,,,,,,,,,,,,,,switch,letter,NA,f,0.8001,noRew,,,,,,0,28,0,28,0,1,,,,,,,,,,,,,,,,,
295477,2022-11-14_19h51.55.154,vts_reward_expectancy_bt,2022.2.4,Win32,59.75143403,Chrome,1536,864,,,,,0,692,,,,,,,,,,,,,,,,,B,139,triangle,1,1,,,,,,,,,,,,,,,,repeat,letter,lettRpt,d,0.9496,noRew,,,,,,0,29,0,29,0,1,,,,,,,,,,,,,,,,,
295477,2022-11-14_19h51.55.154,vts_reward_expectancy_bt,2022.2.4,Win32,59.75143403,Chrome,1536,864,,,,,0,692,,,,,,,,,,,,,,,,,F,174,circle,1,0,,,,,,,,,,,,,,,,repeat,letter,lettRpt,d,0.9501,noRew,,,,,,0,30,0,30,0,1,,,,,,,,,,,,,,,,,
295477,2022-11-14_19h51.55.154,vts_reward_expectancy_bt,2022.2.4,Win32,59.75143403,Chrome,1536,864,,,,,0,692,,,,,,,,,,,,,,,,,Y,125,hexagon,1,0,,,,,,,,,,,,,,,,switch,number,numSwt,j,0.5009,noRew,,,,,,0,31,0,31,0,1,,,,,,,,,,,,,,,,,
295477,2022-11-14_19h51.55.154,vts_reward_expectancy_bt,2022.2.4,Win32,59.75143403,Chrome,1536,864,,,,,0,692,,,,,,,,,,,,,,,,,Y,125,star,1,0,,,,,,,,,,,,,,,,repeat,number,numRpt,j,0.772,noRew,,,,,,0,32,0,32,0,1,,,,,,,,,,,,,,,,,
295477,2022-11-14_19h51.55.154,vts_reward_expectancy_bt,2022.2.4,Win32,59.75143403,Chrome,1536,864,,,,,0,692,,,,,,,,,,,,,,,,,D,139,circle,1,0,,,,,,,,,,,,,,,,switch,letter,lettSwt,d,0.9332,noRew,,,,,,0,33,0,33,0,1,,,,,,,,,,,,,,,,,
295477,2022-11-14_19h51.55.154,vts_reward_expectancy_bt,2022.2.4,Win32,59.75143403,Chrome,1536,864,,,,,0,692,,,,,,,,,,,,,,,,,H,132,triangle,1,0,,,,,,,,,,,,,,,,repeat,letter,lettRpt,d,1.0854,noRew,,,,,,0,34,0,34,0,1,,,,,,,,,,,,,,,,,
295477,2022-11-14_19h51.55.154,vts_reward_expectancy_bt,2022.2.4,Win32,59.75143403,Chrome,1536,864,,,,,0,692,,,,,,,,,,,,,,,,,U,174,hexagon,1,0,,,,,,,,,,,,,,,,switch,number,numSwt,k,0.4679,noRew,,,,,,0,35,0,35,0,1,,,,,,,,,,,,,,,,,
295477,2022-11-14_19h51.55.154,vts_reward_expectancy_bt,2022.2.4,Win32,59.75143403,Chrome,1536,864,,,,,0,692,,,,,,,,,,,,,,,,,D,160,hexagon,1,0,,,,,,,,,,,,,,,,switch,letter,lettSwt,d,0.584,noRew,,,,,,0,36,0,36,0,1,,,,,,,,,,,,,,,,,
295477,2022-11-14_19h51.55.154,vts_reward_expectancy_bt,2022.2.4,Win32,59.75143403,Chrome,1536,864,,,,,0,692,,,,,,,,,,,,,,,,,W,132,triangle,1,0,,,,,,,,,,,,,,,,repeat,letter,lettRpt,f,0.4342,noRew,,,,,,0,37,0,37,0,1,,,,,,,,,,,,,,,,,
295477,2022-11-14_19h51.55.154,vts_reward_expectancy_bt,2022.2.4,Win32,59.75143403,Chrome,1536,864,,,,,0,692,,,,,,,,,,,,,,,,,F,146,triangle,1,0,,,,,,,,,,,,,,,,switch,number,numSwt,j,0.7005,noRew,,,,,,0,38,0,38,0,1,,,,,,,,,,,,,,,,,
295477,2022-11-14_19h51.55.154,vts_reward_expectancy_bt,2022.2.4,Win32,59.75143403,Chrome,1536,864,,,,,0,692,,,,,,,,,,,,,,,,,H,125,star,1,0,,,,,,,,,,,,,,,,repeat,number,numRpt,j,0.8168,noRew,,,,,,0,39,0,39,0,1,,,,,,,,,,,,,,,,,
295477,2022-11-14_19h51.55.154,vts_reward_expectancy_bt,2022.2.4,Win32,59.75143403,Chrome,1536,864,,,,,0,692,,,,,,,,,,,,,,,,,F,139,circle,1,0,,,,,,,,,,,,,,,,repeat,number,numRpt,j,1.0497,noRew,,,,,,0,40,0,40,0,1,,,,,,,,,,,,,,,,,
295477,2022-11-14_19h51.55.154,vts_reward_expectancy_bt,2022.2.4,Win32,59.75143403,Chrome,1536,864,,,,,0,692,,,,,,,,,,,,,,,,,H,181,hexagon,1,0,,,,,,,,,,,,,,,,repeat,number,numRpt,k,0.8341,noRew,,,,,,0,41,0,41,0,1,,,,,,,,,,,,,,,,,
295477,2022-11-14_19h51.55.154,vts_reward_expectancy_bt,2022.2.4,Win32,59.75143403,Chrome,1536,864,,,,,0,692,,,,,,,,,,,,,,,,,Y,125,circle,1,0,,,,,,,,,,,,,,,,switch,letter,lettSwt,f,0.5505,noRew,,,,,,0,42,0,42,0,1,,,,,,,,,,,,,,,,,
295477,2022-11-14_19h51.55.154,vts_reward_expectancy_bt,2022.2.4,Win32,59.75143403,Chrome,1536,864,,,,,0,692,,,,,,,,,,,,,,,,,D,132,star,1,0,,,,,,,,,,,,,,,,repeat,letter,lettRpt,d,0.7182,noRew,,,,,,0,43,0,43,0,1,,,,,,,,,,,,,,,,,
295477,2022-11-14_19h51.55.154,vts_reward_expectancy_bt,2022.2.4,Win32,59.75143403,Chrome,1536,864,,,,,0,692,,,,,,,,,,,,,,,,,Y,174,star,1,0,,,,,,,,,,,,,,,,repeat,letter,lettRpt,f,0.6255,noRew,,,,,,0,44,0,44,0,1,,,,,,,,,,,,,,,,,
295477,2022-11-14_19h51.55.154,vts_reward_expectancy_bt,2022.2.4,Win32,59.75143403,Chrome,1536,864,,,,,0,692,,,,,,,,,,,,,,,,,D,132,hexagon,1,0,,,,,,,,,,,,,,,,repeat,letter,lettRpt,d,0.7668,noRew,,,,,,0,45,0,45,0,1,,,,,,,,,,,,,,,,,
295477,2022-11-14_19h51.55.154,vts_reward_expectancy_bt,2022.2.4,Win32,59.75143403,Chrome,1536,864,,,,,0,692,,,,,,,,,,,,,,,,,B,139,triangle,1,0,,,,,,,,,,,,,,,,repeat,letter,lettRpt,d,0.7182,noRew,,,,,,0,46,0,46,0,1,,,,,,,,,,,,,,,,,
295477,2022-11-14_19h51.55.154,vts_reward_expectancy_bt,2022.2.4,Win32,59.75143403,Chrome,1536,864,,,,,0,692,,,,,,,,,,,,,,,,,W,146,circle,1,0,,,,,,,,,,,,,,,,switch,number,numSwt,j,0.6358,noRew,,,,,,0,47,0,47,0,1,,,,,,,,,,,,,,,,,
295477,2022-11-14_19h51.55.154,vts_reward_expectancy_bt,2022.2.4,Win32,59.75143403,Chrome,1536,864,,,,,0,692,,,,,,,,,,,,,,,,,Y,181,hexagon,1,0,,,,,,,,,,,,,,,,repeat,number,numRpt,k,0.4666,noRew,,,,,,0,48,0,48,0,1,,,,,,,,,,,,,,,,,
295477,2022-11-14_19h51.55.154,vts_reward_expectancy_bt,2022.2.4,Win32,59.75143403,Chrome,1536,864,,,,,0,692,,,,,,,,,,,,,,,,,S,132,star,1,0,,,,,,,,,,,,,,,,repeat,number,numRpt,j,0.7342,noRew,,,,,,0,49,0,49,0,1,,,,,,,,,,,,,,,,,
295477,2022-11-14_19h51.55.154,vts_reward_expectancy_bt,2022.2.4,Win32,59.75143403,Chrome,1536,864,,,,,0,692,,,,,,,,,,,,,,,,,B,125,triangle,1,0,,,,,,,,,,,,,,,,repeat,number,numRpt,j,0.4852,noRew,,,,,,0,50,0,50,0,1,,,,,,,,,,,,,,,,,
295477,2022-11-14_19h51.55.154,vts_reward_expectancy_bt,2022.2.4,Win32,59.75143403,Chrome,1536,864,,,,,0,692,,,,,,,,,,,,,,,,,H,146,hexagon,1,0,,,,,,,,,,,,,,,,repeat,number,numRpt,j,1.006,noRew,,,,,,0,51,0,51,0,1,,,,,,,,,,,,,,,,,
295477,2022-11-14_19h51.55.154,vts_reward_expectancy_bt,2022.2.4,Win32,59.75143403,Chrome,1536,864,,,,,0,692,,,,,,,,,,,,,,,,,D,160,circle,1,0,,,,,,,,,,,,,,,,switch,letter,lettSwt,d,0.7504,noRew,,,,,,0,52,0,52,0,1,,,,,,,,,,,,,,,,,
295477,2022-11-14_19h51.55.154,vts_reward_expectancy_bt,2022.2.4,Win32,59.75143403,Chrome,1536,864,,,,,0,692,,,,,,,,,,,,,,,,,F,125,star,1,0,,,,,,,,,,,,,,,,repeat,letter,lettRpt,d,0.7583,noRew,,,,,,0,53,0,53,0,1,,,,,,,,,,,,,,,,,
295477,2022-11-14_19h51.55.154,vts_reward_expectancy_bt,2022.2.4,Win32,59.75143403,Chrome,1536,864,,,,,0,692,,,,,,,,,,,,,,,,,Y,181,hexagon,1,0,,,,,,,,,,,,,,,,repeat,letter,lettRpt,f,1.2833,noRew,,,,,,0,54,0,54,0,1,,,,,,,,,,,,,,,,,
295477,2022-11-14_19h51.55.154,vts_reward_expectancy_bt,2022.2.4,Win32,59.75143403,Chrome,1536,864,,,,,0,692,,,,,,,,,,,,,,,,,H,139,star,1,0,,,,,,,,,,,,,,,,repeat,letter,lettRpt,d,0.7027,noRew,,,,,,0,55,0,55,0,1,,,,,,,,,,,,,,,,,
295477,2022-11-14_19h51.55.154,vts_reward_expectancy_bt,2022.2.4,Win32,59.75143403,Chrome,1536,864,,,,,0,692,,,,,,,,,,,,,,,,,B,139,star,1,0,,,,,,,,,,,,,,,,switch,number,numSwt,j,0.5221,noRew,,,,,,0,56,0,56,0,1,,,,,,,,,,,,,,,,,
295477,2022-11-14_19h51.55.154,vts_reward_expectancy_bt,2022.2.4,Win32,59.75143403,Chrome,1536,864,,,,,0,692,,,,,,,,,,,,,,,,,U,181,hexagon,1,0,,,,,,,,,,,,,,,,repeat,number,numRpt,k,1.7246,noRew,,,,,,0,57,0,57,0,1,,,,,,,,,,,,,,,,,
295477,2022-11-14_19h51.55.154,vts_reward_expectancy_bt,2022.2.4,Win32,59.75143403,Chrome,1536,864,,,,,0,692,,,,,,,,,,,,,,,,,D,132,star,1,0,,,,,,,,,,,,,,,,repeat,number,numRpt,j,0.7727,noRew,,,,,,0,58,0,58,0,1,,,,,,,,,,,,,,,,,
295477,2022-11-14_19h51.55.154,vts_reward_expectancy_bt,2022.2.4,Win32,59.75143403,Chrome,1536,864,,,,,0,692,,,,,,,,,,,,,,,,,H,174,circle,0,0,,,,,,,,,,,,,,,,repeat,number,NA,j,0.7342,noRew,,,,,,0,59,0,59,0,1,,,,,,,,,,,,,,,,,
295477,2022-11-14_19h51.55.154,vts_reward_expectancy_bt,2022.2.4,Win32,59.75143403,Chrome,1536,864,,,,,0,692,,,,,,,,,,,,,,,,,H,174,hexagon,1,1,,,,,,,,,,,,,,,,switch,letter,lettSwt,d,0.6342,noRew,,,,,,0,60,0,60,0,1,,,,,,,,,,,,,,,,,
295477,2022-11-14_19h51.55.154,vts_reward_expectancy_bt,2022.2.4,Win32,59.75143403,Chrome,1536,864,,,,,0,692,,,,,,,,,,,,,,,,,D,132,circle,1,0,,,,,,,,,,,,,,,,repeat,letter,lettRpt,d,1.5391,noRew,,,,,,0,61,0,61,0,1,,,,,,,,,,,,,,,,,
295477,2022-11-14_19h51.55.154,vts_reward_expectancy_bt,2022.2.4,Win32,59.75143403,Chrome,1536,864,,,,,0,692,,,,,,,,,,,,,,,,,S,146,circle,1,0,,,,,,,,,,,,,,,,switch,number,numSwt,j,1.9161,noRew,,,,,,0,62,0,62,0,1,,,,,,,,,,,,,,,,,
295477,2022-11-14_19h51.55.154,vts_reward_expectancy_bt,2022.2.4,Win32,59.75143403,Chrome,1536,864,,,,,0,692,,,,,,,,,,,,,,,,,W,139,star,1,0,,,,,,,,,,,,,,,,repeat,number,numRpt,j,1.1032,noRew,,,,,,0,63,0,63,0,1,,,,,,,,,,,,,,,,,
295477,2022-11-14_19h51.55.154,vts_reward_expectancy_bt,2022.2.4,Win32,59.75143403,Chrome,1536,864,,,,,,,,,,,,,,,,,,,,,,,,,,,,,,,,,,,,,,,,,,,,,,,,,,,,,,,,,,,,,,,,,,,,,,,,,,,,
295477,2022-11-14_19h51.55.154,vts_reward_expectancy_bt,2022.2.4,Win32,59.75143403,Chrome,1536,864,,,,,0,692,,,,,,,,,,,,,,,,,W,132,hexagon,0,0,,,,,,,,,,,,,,,,switch,letter,NA,d,0.8087,noRew,,,,,,0,,,,,,space,7.2784,high,0,0,0,0,1,,,,,,,,,
295477,2022-11-14_19h51.55.154,vts_reward_expectancy_bt,2022.2.4,Win32,59.75143403,Chrome,1536,864,,,,,10,702,,,,,,,,,,,,,,,,,S,167,circle,1,1,,,,,,,,,,,,,,,,repeat,letter,lettRpt,f,0.5537,Hi,,,,,,0,,,,,,,,high,1,0,1,0,1,,,,,,,,,
295477,2022-11-14_19h51.55.154,vts_reward_expectancy_bt,2022.2.4,Win32,59.75143403,Chrome,1536,864,,,,,10,712,,,,,,,,,,,,,,,,,D,139,triangle,1,0,,,,,,,,,,,,,,,,repeat,letter,lettRpt,d,0.5082,Lo,,,,,,0,,,,,,,,high,2,0,2,0,1,,,,,,,,,
295477,2022-11-14_19h51.55.154,vts_reward_expectancy_bt,2022.2.4,Win32,59.75143403,Chrome,1536,864,,,,,10,722,,,,,,,,,,,,,,,,,H,146,star,1,0,,,,,,,,,,,,,,,,repeat,letter,lettRpt,d,0.6179,Hi,,,,,,0,,,,,,,,high,3,0,3,0,1,,,,,,,,,
295477,2022-11-14_19h51.55.154,vts_reward_expectancy_bt,2022.2.4,Win32,59.75143403,Chrome,1536,864,,,,,1,723,,,,,,,,,,,,,,,,,U,125,hexagon,1,0,,,,,,,,,,,,,,,,switch,number,numSwt,j,0.5501,Lo,,,,,,0,,,,,,,,high,4,0,4,0,1,,,,,,,,,
295477,2022-11-14_19h51.55.154,vts_reward_expectancy_bt,2022.2.4,Win32,59.75143403,Chrome,1536,864,,,,,10,733,,,,,,,,,,,,,,,,,Y,174,circle,1,0,,,,,,,,,,,,,,,,switch,letter,lettSwt,f,0.5866,Hi,,,,,,0,,,,,,,,high,5,0,5,0,1,,,,,,,,,
295477,2022-11-14_19h51.55.154,vts_reward_expectancy_bt,2022.2.4,Win32,59.75143403,Chrome,1536,864,,,,,1,734,,,,,,,,,,,,,,,,,F,160,triangle,1,0,,,,,,,,,,,,,,,,switch,number,numSwt,k,0.743,Lo,,,,,,0,,,,,,,,high,6,0,6,0,1,,,,,,,,,
295477,2022-11-14_19h51.55.154,vts_reward_expectancy_bt,2022.2.4,Win32,59.75143403,Chrome,1536,864,,,,,10,744,,,,,,,,,,,,,,,,,B,181,star,1,0,,,,,,,,,,,,,,,,repeat,number,numRpt,k,0.6672,Hi,,,,,,0,,,,,,,,high,7,0,7,0,1,,,,,,,,,
295477,2022-11-14_19h51.55.154,vts_reward_expectancy_bt,2022.2.4,Win32,59.75143403,Chrome,1536,864,,,,,1,745,,,,,,,,,,,,,,,,,W,132,star,1,0,,,,,,,,,,,,,,,,repeat,number,numRpt,j,0.475,Hi,,,,,,0,,,,,,,,high,8,0,8,0,1,,,,,,,,,
295477,2022-11-14_19h51.55.154,vts_reward_expectancy_bt,2022.2.4,Win32,59.75143403,Chrome,1536,864,,,,,0,745,,,,,,,,,,,,,,,,,S,167,circle,1,0,,,,,,,,,,,,,,,,switch,letter,lettSwt,f,0.7763,Hi,,,,,,0,,,,,,,,high,9,0,9,0,1,,,,,,,,,
295477,2022-11-14_19h51.55.154,vts_reward_expectancy_bt,2022.2.4,Win32,59.75143403,Chrome,1536,864,,,,,0,745,,,,,,,,,,,,,,,,,D,139,hexagon,0,0,,,,,,,,,,,,,,,,repeat,letter,NA,f,0.601,Hi,,,,,,0,,,,,,,,high,10,0,10,0,1,,,,,,,,,
295477,2022-11-14_19h51.55.154,vts_reward_expectancy_bt,2022.2.4,Win32,59.75143403,Chrome,1536,864,,,,,1,746,,,,,,,,,,,,,,,,,H,146,triangle,1,1,,,,,,,,,,,,,,,,repeat,letter,lettRpt,d,0.5539,Lo,,,,,,0,,,,,,,,high,11,0,11,0,1,,,,,,,,,
295477,2022-11-14_19h51.55.154,vts_reward_expectancy_bt,2022.2.4,Win32,59.75143403,Chrome,1536,864,,,,,1,747,,,,,,,,,,,,,,,,,U,125,hexagon,1,0,,,,,,,,,,,,,,,,switch,number,numSwt,j,0.7,Lo,,,,,,0,,,,,,,,high,12,0,12,0,1,,,,,,,,,
295477,2022-11-14_19h51.55.154,vts_reward_expectancy_bt,2022.2.4,Win32,59.75143403,Chrome,1536,864,,,,,10,757,,,,,,,,,,,,,,,,,Y,174,triangle,1,0,,,,,,,,,,,,,,,,switch,letter,lettSwt,f,0.5336,Lo,,,,,,0,,,,,,,,high,13,0,13,0,1,,,,,,,,,
295477,2022-11-14_19h51.55.154,vts_reward_expectancy_bt,2022.2.4,Win32,59.75143403,Chrome,1536,864,,,,,1,758,,,,,,,,,,,,,,,,,F,160,circle,1,0,,,,,,,,,,,,,,,,repeat,letter,lettRpt,d,0.4046,Hi,,,,,,0,,,,,,,,high,14,0,14,0,1,,,,,,,,,
295477,2022-11-14_19h51.55.154,vts_reward_expectancy_bt,2022.2.4,Win32,59.75143403,Chrome,1536,864,,,,,1,759,,,,,,,,,,,,,,,,,B,181,star,1,0,,,,,,,,,,,,,,,,switch,number,numSwt,k,0.3998,Hi,,,,,,0,,,,,,,,high,15,0,15,0,1,,,,,,,,,
295477,2022-11-14_19h51.55.154,vts_reward_expectancy_bt,2022.2.4,Win32,59.75143403,Chrome,1536,864,,,,,0,759,,,,,,,,,,,,,,,,,S,132,triangle,0,0,,,,,,,,,,,,,,,,switch,letter,NA,d,0.6674,Hi,,,,,,0,,,,,,,,high,16,0,16,0,1,,,,,,,,,
295477,2022-11-14_19h51.55.154,vts_reward_expectancy_bt,2022.2.4,Win32,59.75143403,Chrome,1536,864,,,,,1,760,,,,,,,,,,,,,,,,,U,146,hexagon,1,1,,,,,,,,,,,,,,,,repeat,letter,lettRpt,f,0.6161,Lo,,,,,,0,,,,,,,,high,17,0,17,0,1,,,,,,,,,
295477,2022-11-14_19h51.55.154,vts_reward_expectancy_bt,2022.2.4,Win32,59.75143403,Chrome,1536,864,,,,,10,770,,,,,,,,,,,,,,,,,B,181,circle,1,0,,,,,,,,,,,,,,,,repeat,letter,lettRpt,d,0.5247,Hi,,,,,,0,,,,,,,,high,18,0,18,0,1,,,,,,,,,
295477,2022-11-14_19h51.55.154,vts_reward_expectancy_bt,2022.2.4,Win32,59.75143403,Chrome,1536,864,,,,,10,780,,,,,,,,,,,,,,,,,Y,160,star,1,0,,,,,,,,,,,,,,,,switch,number,numSwt,k,0.4341,Hi,,,,,,0,,,,,,,,high,19,0,19,0,1,,,,,,,,,
295477,2022-11-14_19h51.55.154,vts_reward_expectancy_bt,2022.2.4,Win32,59.75143403,Chrome,1536,864,,,,,10,790,,,,,,,,,,,,,,,,,W,167,star,1,0,,,,,,,,,,,,,,,,repeat,number,numRpt,k,0.5713,Hi,,,,,,0,,,,,,,,high,20,0,20,0,1,,,,,,,,,
295477,2022-11-14_19h51.55.154,vts_reward_expectancy_bt,2022.2.4,Win32,59.75143403,Chrome,1536,864,,,,,1,791,,,,,,,,,,,,,,,,,H,174,triangle,1,0,,,,,,,,,,,,,,,,switch,letter,lettSwt,d,0.7672,Lo,,,,,,0,,,,,,,,high,21,0,21,0,1,,,,,,,,,
295477,2022-11-14_19h51.55.154,vts_reward_expectancy_bt,2022.2.4,Win32,59.75143403,Chrome,1536,864,,,,,1,792,,,,,,,,,,,,,,,,,F,139,hexagon,1,0,,,,,,,,,,,,,,,,switch,number,numSwt,j,0.9421,Lo,,,,,,0,,,,,,,,high,22,0,22,0,1,,,,,,,,,
295477,2022-11-14_19h51.55.154,vts_reward_expectancy_bt,2022.2.4,Win32,59.75143403,Chrome,1536,864,,,,,0,792,,,,,,,,,,,,,,,,,D,125,circle,1,0,,,,,,,,,,,,,,,,switch,letter,lettSwt,d,0.6354,Hi,,,,,,0,,,,,,,,high,23,0,23,0,1,,,,,,,,,
295477,2022-11-14_19h51.55.154,vts_reward_expectancy_bt,2022.2.4,Win32,59.75143403,Chrome,1536,864,,,,,0,792,,,,,,,,,,,,,,,,,H,174,star,1,0,,,,,,,,,,,,,,,,switch,number,numSwt,k,0.7052,Hi,,,,,,0,,,,,,,,high,24,0,24,0,1,,,,,,,,,
295477,2022-11-14_19h51.55.154,vts_reward_expectancy_bt,2022.2.4,Win32,59.75143403,Chrome,1536,864,,,,,1,793,,,,,,,,,,,,,,,,,D,181,circle,1,0,,,,,,,,,,,,,,,,switch,letter,lettSwt,d,0.4183,Hi,,,,,,0,,,,,,,,high,25,0,25,0,1,,,,,,,,,
295477,2022-11-14_19h51.55.154,vts_reward_expectancy_bt,2022.2.4,Win32,59.75143403,Chrome,1536,864,,,,,1,794,,,,,,,,,,,,,,,,,W,125,triangle,1,0,,,,,,,,,,,,,,,,switch,number,numSwt,j,0.5719,Lo,,,,,,0,,,,,,,,high,26,0,26,0,1,,,,,,,,,
295477,2022-11-14_19h51.55.154,vts_reward_expectancy_bt,2022.2.4,Win32,59.75143403,Chrome,1536,864,,,,,10,804,,,,,,,,,,,,,,,,,F,139,hexagon,1,0,,,,,,,,,,,,,,,,repeat,number,numRpt,j,0.5846,Lo,,,,,,0,,,,,,,,high,27,0,27,0,1,,,,,,,,,
295477,2022-11-14_19h51.55.154,vts_reward_expectancy_bt,2022.2.4,Win32,59.75143403,Chrome,1536,864,,,,,10,814,,,,,,,,,,,,,,,,,S,132,triangle,1,0,,,,,,,,,,,,,,,,switch,letter,lettSwt,f,0.4675,Lo,,,,,,0,,,,,,,,high,28,0,28,0,1,,,,,,,,,
295477,2022-11-14_19h51.55.154,vts_reward_expectancy_bt,2022.2.4,Win32,59.75143403,Chrome,1536,864,,,,,10,824,,,,,,,,,,,,,,,,,B,146,hexagon,1,0,,,,,,,,,,,,,,,,switch,number,numSwt,j,0.4838,Lo,,,,,,0,,,,,,,,high,29,0,29,0,1,,,,,,,,,
295477,2022-11-14_19h51.55.154,vts_reward_expectancy_bt,2022.2.4,Win32,59.75143403,Chrome,1536,864,,,,,0,824,,,,,,,,,,,,,,,,,U,160,circle,1,0,,,,,,,,,,,,,,,,switch,letter,lettSwt,f,0.734,Hi,,,,,,0,,,,,,,,high,30,0,30,0,1,,,,,,,,,
295477,2022-11-14_19h51.55.154,vts_reward_expectancy_bt,2022.2.4,Win32,59.75143403,Chrome,1536,864,,,,,10,834,,,,,,,,,,,,,,,,,Y,167,star,1,0,,,,,,,,,,,,,,,,switch,number,numSwt,k,0.4217,Hi,,,,,,0,,,,,,,,high,31,0,31,0,1,,,,,,,,,
295477,2022-11-14_19h51.55.154,vts_reward_expectancy_bt,2022.2.4,Win32,59.75143403,Chrome,1536,864,,,,,10,844,,,,,,,,,,,,,,,,,F,160,star,1,0,,,,,,,,,,,,,,,,switch,letter,lettSwt,d,0.5355,Hi,,,,,,1,,,,,,space,11.5077,high,0,0,0,0,1,,,,,,,,,
295477,2022-11-14_19h51.55.154,vts_reward_expectancy_bt,2022.2.4,Win32,59.75143403,Chrome,1536,864,,,,,1,845,,,,,,,,,,,,,,,,,W,125,hexagon,1,0,,,,,,,,,,,,,,,,switch,number,numSwt,j,0.3367,Lo,,,,,,1,,,,,,,,high,1,0,1,0,1,,,,,,,,,
295477,2022-11-14_19h51.55.154,vts_reward_expectancy_bt,2022.2.4,Win32,59.75143403,Chrome,1536,864,,,,,0,845,,,,,,,,,,,,,,,,,H,174,circle,0,0,,,,,,,,,,,,,,,,switch,letter,NA,f,0.3689,Lo,,,,,,1,,,,,,,,high,2,0,2,0,1,,,,,,,,,
295477,2022-11-14_19h51.55.154,vts_reward_expectancy_bt,2022.2.4,Win32,59.75143403,Chrome,1536,864,,,,,1,846,,,,,,,,,,,,,,,,,U,139,triangle,1,1,,,,,,,,,,,,,,,,repeat,letter,lettRpt,f,0.4004,Lo,,,,,,1,,,,,,,,high,3,0,3,0,1,,,,,,,,,
295477,2022-11-14_19h51.55.154,vts_reward_expectancy_bt,2022.2.4,Win32,59.75143403,Chrome,1536,864,,,,,0,846,,,,,,,,,,,,,,,,,Y,132,star,0,0,,,,,,,,,,,,,,,,switch,number,NA,k,0.4504,Lo,,,,,,1,,,,,,,,high,4,0,4,0,1,,,,,,,,,
295477,2022-11-14_19h51.55.154,vts_reward_expectancy_bt,2022.2.4,Win32,59.75143403,Chrome,1536,864,,,,,1,847,,,,,,,,,,,,,,,,,S,181,hexagon,1,1,,,,,,,,,,,,,,,,repeat,number,numRpt,k,0.5008,Lo,,,,,,1,,,,,,,,high,5,0,5,0,1,,,,,,,,,
295477,2022-11-14_19h51.55.154,vts_reward_expectancy_bt,2022.2.4,Win32,59.75143403,Chrome,1536,864,,,,,10,857,,,,,,,,,,,,,,,,,B,167,circle,1,0,,,,,,,,,,,,,,,,repeat,number,numRpt,k,0.4579,Hi,,,,,,1,,,,,,,,high,6,0,6,0,1,,,,,,,,,
295477,2022-11-14_19h51.55.154,vts_reward_expectancy_bt,2022.2.4,Win32,59.75143403,Chrome,1536,864,,,,,1,858,,,,,,,,,,,,,,,,,D,146,triangle,1,0,,,,,,,,,,,,,,,,switch,letter,lettSwt,d,0.567,Lo,,,,,,1,,,,,,,,high,7,0,7,0,1,,,,,,,,,
295477,2022-11-14_19h51.55.154,vts_reward_expectancy_bt,2022.2.4,Win32,59.75143403,Chrome,1536,864,,,,,10,868,,,,,,,,,,,,,,,,,F,160,hexagon,1,0,,,,,,,,,,,,,,,,switch,number,numSwt,k,0.5341,Lo,,,,,,1,,,,,,,,high,8,0,8,0,1,,,,,,,,,
295477,2022-11-14_19h51.55.154,vts_reward_expectancy_bt,2022.2.4,Win32,59.75143403,Chrome,1536,864,,,,,0,868,,,,,,,,,,,,,,,,,W,125,star,0,0,,,,,,,,,,,,,,,,repeat,number,NA,k,0.817,Lo,,,,,,1,,,,,,,,high,9,0,9,0,1,,,,,,,,,
295477,2022-11-14_19h51.55.154,vts_reward_expectancy_bt,2022.2.4,Win32,59.75143403,Chrome,1536,864,,,,,1,869,,,,,,,,,,,,,,,,,H,174,triangle,1,1,,,,,,,,,,,,,,,,switch,letter,lettSwt,d,0.6583,Lo,,,,,,1,,,,,,,,high,10,0,10,0,1,,,,,,,,,
295477,2022-11-14_19h51.55.154,vts_reward_expectancy_bt,2022.2.4,Win32,59.75143403,Chrome,1536,864,,,,,10,879,,,,,,,,,,,,,,,,,U,139,circle,1,0,,,,,,,,,,,,,,,,switch,number,numSwt,j,0.4338,Hi,,,,,,1,,,,,,,,high,11,0,11,0,1,,,,,,,,,
295477,2022-11-14_19h51.55.154,vts_reward_expectancy_bt,2022.2.4,Win32,59.75143403,Chrome,1536,864,,,,,10,889,,,,,,,,,,,,,,,,,Y,132,star,1,0,,,,,,,,,,,,,,,,switch,letter,lettSwt,f,0.4411,Hi,,,,,,1,,,,,,,,high,12,0,12,0,1,,,,,,,,,
295477,2022-11-14_19h51.55.154,vts_reward_expectancy_bt,2022.2.4,Win32,59.75143403,Chrome,1536,864,,,,,1,890,,,,,,,,,,,,,,,,,S,181,hexagon,1,0,,,,,,,,,,,,,,,,switch,number,numSwt,k,0.5176,Lo,,,,,,1,,,,,,,,high,13,0,13,0,1,,,,,,,,,
295477,2022-11-14_19h51.55.154,vts_reward_expectancy_bt,2022.2.4,Win32,59.75143403,Chrome,1536,864,,,,,0,890,,,,,,,,,,,,,,,,,B,167,circle,0,0,,,,,,,,,,,,,,,,repeat,number,NA,j,0.4506,Lo,,,,,,1,,,,,,,,high,14,0,14,0,1,,,,,,,,,
295477,2022-11-14_19h51.55.154,vts_reward_expectancy_bt,2022.2.4,Win32,59.75143403,Chrome,1536,864,,,,,1,891,,,,,,,,,,,,,,,,,D,146,triangle,1,1,,,,,,,,,,,,,,,,repeat,number,numRpt,j,0.4672,Lo,,,,,,1,,,,,,,,high,15,0,15,0,1,,,,,,,,,
295477,2022-11-14_19h51.55.154,vts_reward_expectancy_bt,2022.2.4,Win32,59.75143403,Chrome,1536,864,,,,,10,901,,,,,,,,,,,,,,,,,U,125,star,1,0,,,,,,,,,,,,,,,,switch,letter,lettSwt,f,0.5497,Hi,,,,,,1,,,,,,,,high,16,0,16,0,1,,,,,,,,,
295477,2022-11-14_19h51.55.154,vts_reward_expectancy_bt,2022.2.4,Win32,59.75143403,Chrome,1536,864,,,,,0,901,,,,,,,,,,,,,,,,,W,132,circle,0,0,,,,,,,,,,,,,,,,repeat,letter,NA,d,0.6827,Hi,,,,,,1,,,,,,,,high,17,0,17,0,1,,,,,,,,,
295477,2022-11-14_19h51.55.154,vts_reward_expectancy_bt,2022.2.4,Win32,59.75143403,Chrome,1536,864,,,,,1,902,,,,,,,,,,,,,,,,,S,181,hexagon,1,1,,,,,,,,,,,,,,,,repeat,letter,lettRpt,f,0.5172,Lo,,,,,,1,,,,,,,,high,18,0,18,0,1,,,,,,,,,
295477,2022-11-14_19h51.55.154,vts_reward_expectancy_bt,2022.2.4,Win32,59.75143403,Chrome,1536,864,,,,,1,903,,,,,,,,,,,,,,,,,Y,174,triangle,1,0,,,,,,,,,,,,,,,,switch,number,numSwt,k,0.4838,Lo,,,,,,1,,,,,,,,high,19,0,19,0,1,,,,,,,,,
295477,2022-11-14_19h51.55.154,vts_reward_expectancy_bt,2022.2.4,Win32,59.75143403,Chrome,1536,864,,,,,0,903,,,,,,,,,,,,,,,,,B,146,circle,1,0,,,,,,,,,,,,,,,,repeat,number,numRpt,j,2.9381,Hi,,,,,,1,,,,,,,,high,20,0,20,0,1,,,,,,,,,
295477,2022-11-14_19h51.55.154,vts_reward_expectancy_bt,2022.2.4,Win32,59.75143403,Chrome,1536,864,,,,,10,913,,,,,,,,,,,,,,,,,D,139,hexagon,1,0,,,,,,,,,,,,,,,,repeat,number,numRpt,j,0.85,Lo,,,,,,1,,,,,,,,high,21,0,21,0,1,,,,,,,,,
295477,2022-11-14_19h51.55.154,vts_reward_expectancy_bt,2022.2.4,Win32,59.75143403,Chrome,1536,864,,,,,0,913,,,,,,,,,,,,,,,,,H,160,star,1,0,,,,,,,,,,,,,,,,repeat,number,numRpt,k,0.7172,Hi,,,,,,1,,,,,,,,high,22,0,22,0,1,,,,,,,,,
295477,2022-11-14_19h51.55.154,vts_reward_expectancy_bt,2022.2.4,Win32,59.75143403,Chrome,1536,864,,,,,1,914,,,,,,,,,,,,,,,,,F,167,triangle,1,0,,,,,,,,,,,,,,,,switch,letter,lettSwt,d,0.6016,Lo,,,,,,1,,,,,,,,high,23,0,23,0,1,,,,,,,,,
295477,2022-11-14_19h51.55.154,vts_reward_expectancy_bt,2022.2.4,Win32,59.75143403,Chrome,1536,864,,,,,10,924,,,,,,,,,,,,,,,,,F,167,triangle,1,0,,,,,,,,,,,,,,,,repeat,letter,lettRpt,d,0.7197,Lo,,,,,,1,,,,,,,,high,24,0,24,0,1,,,,,,,,,
295477,2022-11-14_19h51.55.154,vts_reward_expectancy_bt,2022.2.4,Win32,59.75143403,Chrome,1536,864,,,,,0,924,,,,,,,,,,,,,,,,,W,160,hexagon,0,0,,,,,,,,,,,,,,,,repeat,letter,NA,d,0.8074,Lo,,,,,,1,,,,,,,,high,25,0,25,0,1,,,,,,,,,
295477,2022-11-14_19h51.55.154,vts_reward_expectancy_bt,2022.2.4,Win32,59.75143403,Chrome,1536,864,,,,,0,924,,,,,,,,,,,,,,,,,U,125,circle,1,1,,,,,,,,,,,,,,,,repeat,letter,lettRpt,f,0.6228,Hi,,,,,,1,,,,,,,,high,26,0,26,0,1,,,,,,,,,
295477,2022-11-14_19h51.55.154,vts_reward_expectancy_bt,2022.2.4,Win32,59.75143403,Chrome,1536,864,,,,,0,924,,,,,,,,,,,,,,,,,B,139,star,0,0,,,,,,,,,,,,,,,,repeat,letter,NA,f,0.5894,Hi,,,,,,1,,,,,,,,high,27,0,27,0,1,,,,,,,,,
295477,2022-11-14_19h51.55.154,vts_reward_expectancy_bt,2022.2.4,Win32,59.75143403,Chrome,1536,864,,,,,1,925,,,,,,,,,,,,,,,,,D,181,hexagon,1,1,,,,,,,,,,,,,,,,repeat,letter,lettRpt,d,0.4839,Lo,,,,,,1,,,,,,,,high,28,0,28,0,1,,,,,,,,,
295477,2022-11-14_19h51.55.154,vts_reward_expectancy_bt,2022.2.4,Win32,59.75143403,Chrome,1536,864,,,,,1,926,,,,,,,,,,,,,,,,,H,174,star,1,0,,,,,,,,,,,,,,,,repeat,letter,lettRpt,d,0.3571,Hi,,,,,,1,,,,,,,,high,29,0,29,0,1,,,,,,,,,
295477,2022-11-14_19h51.55.154,vts_reward_expectancy_bt,2022.2.4,Win32,59.75143403,Chrome,1536,864,,,,,0,926,,,,,,,,,,,,,,,,,S,132,circle,1,0,,,,,,,,,,,,,,,,repeat,letter,lettRpt,f,0.5588,Hi,,,,,,1,,,,,,,,high,30,0,30,0,1,,,,,,,,,
295477,2022-11-14_19h51.55.154,vts_reward_expectancy_bt,2022.2.4,Win32,59.75143403,Chrome,1536,864,,,,,1,927,,,,,,,,,,,,,,,,,Y,146,triangle,1,0,,,,,,,,,,,,,,,,switch,number,numSwt,j,0.4169,Lo,,,,,,1,,,,,,,,high,31,0,31,0,1,,,,,,,,,
295477,2022-11-14_19h51.55.154,vts_reward_expectancy_bt,2022.2.4,Win32,59.75143403,Chrome,1536,864,,,,,0,927,,,,,,,,,,,,,,,,,D,167,star,1,0,,,,,,,,,,,,,,,,switch,letter,lettSwt,d,0.573,Hi,,,,,,2,,,,,,space,0.7998,high,0,0,0,0,1,,,,,,,,,
295477,2022-11-14_19h51.55.154,vts_reward_expectancy_bt,2022.2.4,Win32,59.75143403,Chrome,1536,864,,,,,0,927,,,,,,,,,,,,,,,,,U,146,circle,1,0,,,,,,,,,,,,,,,,switch,number,numSwt,j,0.4929,Hi,,,,,,2,,,,,,,,high,1,0,1,0,1,,,,,,,,,
295477,2022-11-14_19h51.55.154,vts_reward_expectancy_bt,2022.2.4,Win32,59.75143403,Chrome,1536,864,,,,,1,928,,,,,,,,,,,,,,,,,Y,139,hexagon,1,0,,,,,,,,,,,,,,,,repeat,number,numRpt,j,0.4171,Lo,,,,,,2,,,,,,,,high,2,0,2,0,1,,,,,,,,,
295477,2022-11-14_19h51.55.154,vts_reward_expectancy_bt,2022.2.4,Win32,59.75143403,Chrome,1536,864,,,,,0,928,,,,,,,,,,,,,,,,,H,174,triangle,0,0,,,,,,,,,,,,,,,,switch,letter,NA,f,0.5368,Lo,,,,,,2,,,,,,,,high,3,0,3,0,1,,,,,,,,,
295477,2022-11-14_19h51.55.154,vts_reward_expectancy_bt,2022.2.4,Win32,59.75143403,Chrome,1536,864,,,,,0,928,,,,,,,,,,,,,,,,,F,132,star,1,1,,,,,,,,,,,,,,,,repeat,letter,lettRpt,d,0.657,Hi,,,,,,2,,,,,,,,high,4,0,4,0,1,,,,,,,,,
295477,2022-11-14_19h51.55.154,vts_reward_expectancy_bt,2022.2.4,Win32,59.75143403,Chrome,1536,864,,,,,0,928,,,,,,,,,,,,,,,,,S,125,circle,1,0,,,,,,,,,,,,,,,,repeat,letter,lettRpt,f,0.484,Hi,,,,,,2,,,,,,,,high,5,0,5,0,1,,,,,,,,,
295477,2022-11-14_19h51.55.154,vts_reward_expectancy_bt,2022.2.4,Win32,59.75143403,Chrome,1536,864,,,,,1,929,,,,,,,,,,,,,,,,,B,160,hexagon,1,0,,,,,,,,,,,,,,,,switch,number,numSwt,k,0.5342,Lo,,,,,,2,,,,,,,,high,6,0,6,0,1,,,,,,,,,
295477,2022-11-14_19h51.55.154,vts_reward_expectancy_bt,2022.2.4,Win32,59.75143403,Chrome,1536,864,,,,,1,930,,,,,,,,,,,,,,,,,W,181,triangle,1,0,,,,,,,,,,,,,,,,repeat,number,numRpt,k,0.4872,Lo,,,,,,2,,,,,,,,high,7,0,7,0,1,,,,,,,,,
295477,2022-11-14_19h51.55.154,vts_reward_expectancy_bt,2022.2.4,Win32,59.75143403,Chrome,1536,864,,,,,0,930,,,,,,,,,,,,,,,,,D,167,triangle,0,0,,,,,,,,,,,,,,,,repeat,number,NA,j,0.4527,Lo,,,,,,2,,,,,,,,high,8,0,8,0,1,,,,,,,,,
295477,2022-11-14_19h51.55.154,vts_reward_expectancy_bt,2022.2.4,Win32,59.75143403,Chrome,1536,864,,,,,1,931,,,,,,,,,,,,,,,,,U,146,hexagon,1,1,,,,,,,,,,,,,,,,repeat,number,numRpt,j,0.6003,Lo,,,,,,2,,,,,,,,high,9,0,9,0,1,,,,,,,,,
295477,2022-11-14_19h51.55.154,vts_reward_expectancy_bt,2022.2.4,Win32,59.75143403,Chrome,1536,864,,,,,10,941,,,,,,,,,,,,,,,,,Y,139,circle,1,0,,,,,,,,,,,,,,,,switch,letter,lettSwt,f,0.4834,Hi,,,,,,2,,,,,,,,high,10,0,10,0,1,,,,,,,,,
295477,2022-11-14_19h51.55.154,vts_reward_expectancy_bt,2022.2.4,Win32,59.75143403,Chrome,1536,864,,,,,0,941,,,,,,,,,,,,,,,,,H,174,star,1,0,,,,,,,,,,,,,,,,repeat,letter,lettRpt,d,0.6166,Hi,,,,,,2,,,,,,,,high,11,0,11,0,1,,,,,,,,,
295477,2022-11-14_19h51.55.154,vts_reward_expectancy_bt,2022.2.4,Win32,59.75143403,Chrome,1536,864,,,,,1,942,,,,,,,,,,,,,,,,,F,132,hexagon,1,0,,,,,,,,,,,,,,,,repeat,letter,lettRpt,d,0.4533,Lo,,,,,,2,,,,,,,,high,12,0,12,0,1,,,,,,,,,
295477,2022-11-14_19h51.55.154,vts_reward_expectancy_bt,2022.2.4,Win32,59.75143403,Chrome,1536,864,,,,,10,952,,,,,,,,,,,,,,,,,S,125,circle,1,0,,,,,,,,,,,,,,,,repeat,letter,lettRpt,f,0.4171,Hi,,,,,,2,,,,,,,,high,13,0,13,0,1,,,,,,,,,
295477,2022-11-14_19h51.55.154,vts_reward_expectancy_bt,2022.2.4,Win32,59.75143403,Chrome,1536,864,,,,,0,952,,,,,,,,,,,,,,,,,B,160,star,1,0,,,,,,,,,,,,,,,,repeat,letter,lettRpt,d,0.5501,Hi,,,,,,2,,,,,,,,high,14,0,14,0,1,,,,,,,,,
295477,2022-11-14_19h51.55.154,vts_reward_expectancy_bt,2022.2.4,Win32,59.75143403,Chrome,1536,864,,,,,1,953,,,,,,,,,,,,,,,,,W,181,triangle,1,0,,,,,,,,,,,,,,,,repeat,letter,lettRpt,f,0.5403,Lo,,,,,,2,,,,,,,,high,15,0,15,0,1,,,,,,,,,
295477,2022-11-14_19h51.55.154,vts_reward_expectancy_bt,2022.2.4,Win32,59.75143403,Chrome,1536,864,,,,,1,954,,,,,,,,,,,,,,,,,S,174,triangle,1,0,,,,,,,,,,,,,,,,repeat,letter,lettRpt,f,0.4835,Lo,,,,,,2,,,,,,,,high,16,0,16,0,1,,,,,,,,,
295477,2022-11-14_19h51.55.154,vts_reward_expectancy_bt,2022.2.4,Win32,59.75143403,Chrome,1536,864,,,,,1,955,,,,,,,,,,,,,,,,,F,125,hexagon,1,0,,,,,,,,,,,,,,,,repeat,letter,lettRpt,d,0.5073,Lo,,,,,,2,,,,,,,,high,17,0,17,0,1,,,,,,,,,
295477,2022-11-14_19h51.55.154,vts_reward_expectancy_bt,2022.2.4,Win32,59.75143403,Chrome,1536,864,,,,,10,965,,,,,,,,,,,,,,,,,D,160,star,1,0,,,,,,,,,,,,,,,,switch,number,numSwt,k,0.3863,Hi,,,,,,2,,,,,,,,high,18,0,18,0,1,,,,,,,,,
295477,2022-11-14_19h51.55.154,vts_reward_expectancy_bt,2022.2.4,Win32,59.75143403,Chrome,1536,864,,,,,10,975,,,,,,,,,,,,,,,,,B,139,circle,1,0,,,,,,,,,,,,,,,,repeat,number,numRpt,j,0.4333,Hi,,,,,,2,,,,,,,,high,19,0,19,0,1,,,,,,,,,
295477,2022-11-14_19h51.55.154,vts_reward_expectancy_bt,2022.2.4,Win32,59.75143403,Chrome,1536,864,,,,,10,985,,,,,,,,,,,,,,,,,Y,146,triangle,1,0,,,,,,,,,,,,,,,,repeat,number,numRpt,j,0.5025,Lo,,,,,,2,,,,,,,,high,20,0,20,0,1,,,,,,,,,
295477,2022-11-14_19h51.55.154,vts_reward_expectancy_bt,2022.2.4,Win32,59.75143403,Chrome,1536,864,,,,,0,985,,,,,,,,,,,,,,,,,W,132,star,0,0,,,,,,,,,,,,,,,,switch,letter,NA,d,0.3846,Lo,,,,,,2,,,,,,,,high,21,0,21,0,1,,,,,,,,,
295477,2022-11-14_19h51.55.154,vts_reward_expectancy_bt,2022.2.4,Win32,59.75143403,Chrome,1536,864,,,,,1,986,,,,,,,,,,,,,,,,,H,181,circle,1,1,,,,,,,,,,,,,,,,switch,number,numSwt,k,0.3924,Hi,,,,,,2,,,,,,,,high,22,0,22,0,1,,,,,,,,,
295477,2022-11-14_19h51.55.154,vts_reward_expectancy_bt,2022.2.4,Win32,59.75143403,Chrome,1536,864,,,,,0,986,,,,,,,,,,,,,,,,,U,167,hexagon,0,0,,,,,,,,,,,,,,,,repeat,number,NA,j,0.5401,Hi,,,,,,2,,,,,,,,high,23,0,23,0,1,,,,,,,,,
295477,2022-11-14_19h51.55.154,vts_reward_expectancy_bt,2022.2.4,Win32,59.75143403,Chrome,1536,864,,,,,1,987,,,,,,,,,,,,,,,,,H,174,triangle,1,1,,,,,,,,,,,,,,,,repeat,number,numRpt,k,0.4343,Lo,,,,,,2,,,,,,,,high,24,0,24,0,1,,,,,,,,,
295477,2022-11-14_19h51.55.154,vts_reward_expectancy_bt,2022.2.4,Win32,59.75143403,Chrome,1536,864,,,,,1,988,,,,,,,,,,,,,,,,,Y,167,hexagon,1,0,,,,,,,,,,,,,,,,repeat,number,numRpt,k,0.5809,Lo,,,,,,2,,,,,,,,high,25,0,25,0,1,,,,,,,,,
295477,2022-11-14_19h51.55.154,vts_reward_expectancy_bt,2022.2.4,Win32,59.75143403,Chrome,1536,864,,,,,10,998,,,,,,,,,,,,,,,,,D,132,circle,1,0,,,,,,,,,,,,,,,,repeat,number,numRpt,j,0.3673,Hi,,,,,,2,,,,,,,,high,26,0,26,0,1,,,,,,,,,
295477,2022-11-14_19h51.55.154,vts_reward_expectancy_bt,2022.2.4,Win32,59.75143403,Chrome,1536,864,,,,,10,1008,,,,,,,,,,,,,,,,,B,125,star,1,0,,,,,,,,,,,,,,,,switch,letter,lettSwt,d,0.5375,Hi,,,,,,2,,,,,,,,high,27,0,27,0,1,,,,,,,,,
295477,2022-11-14_19h51.55.154,vts_reward_expectancy_bt,2022.2.4,Win32,59.75143403,Chrome,1536,864,,,,,1,1009,,,,,,,,,,,,,,,,,S,181,triangle,1,0,,,,,,,,,,,,,,,,switch,number,numSwt,k,0.5223,Lo,,,,,,2,,,,,,,,high,28,0,28,0,1,,,,,,,,,
295477,2022-11-14_19h51.55.154,vts_reward_expectancy_bt,2022.2.4,Win32,59.75143403,Chrome,1536,864,,,,,0,1009,,,,,,,,,,,,,,,,,U,160,circle,1,0,,,,,,,,,,,,,,,,switch,letter,lettSwt,f,0.5495,Hi,,,,,,2,,,,,,,,high,29,0,29,0,1,,,,,,,,,
295477,2022-11-14_19h51.55.154,vts_reward_expectancy_bt,2022.2.4,Win32,59.75143403,Chrome,1536,864,,,,,0,1009,,,,,,,,,,,,,,,,,W,146,star,0,0,,,,,,,,,,,,,,,,switch,number,NA,k,0.5654,Hi,,,,,,2,,,,,,,,high,30,0,30,0,1,,,,,,,,,
295477,2022-11-14_19h51.55.154,vts_reward_expectancy_bt,2022.2.4,Win32,59.75143403,Chrome,1536,864,,,,,10,1019,,,,,,,,,,,,,,,,,F,139,hexagon,1,1,,,,,,,,,,,,,,,,repeat,number,numRpt,j,0.4587,Lo,,,,,,2,,,,,,,,high,31,0,31,0,1,,,,,,,,,
295477,2022-11-14_19h51.55.154,vts_reward_expectancy_bt,2022.2.4,Win32,59.75143403,Chrome,1536,864,,,,,0,1019,,,,,,,,,,,,,,,,,U,139,circle,1,0,,,,,,,,,,,,,,,,switch,letter,lettSwt,f,0.755,Hi,,,,,,3,,,,,,space,1.266,high,0,0,0,0,1,,,,,,,,,
295477,2022-11-14_19h51.55.154,vts_reward_expectancy_bt,2022.2.4,Win32,59.75143403,Chrome,1536,864,,,,,10,1029,,,,,,,,,,,,,,,,,Y,160,star,1,0,,,,,,,,,,,,,,,,repeat,letter,lettRpt,f,0.4195,Hi,,,,,,3,,,,,,,,high,1,0,1,0,1,,,,,,,,,
295477,2022-11-14_19h51.55.154,vts_reward_expectancy_bt,2022.2.4,Win32,59.75143403,Chrome,1536,864,,,,,1,1030,,,,,,,,,,,,,,,,,W,181,hexagon,1,0,,,,,,,,,,,,,,,,switch,number,numSwt,k,0.3723,Lo,,,,,,3,,,,,,,,high,2,0,2,0,1,,,,,,,,,
295477,2022-11-14_19h51.55.154,vts_reward_expectancy_bt,2022.2.4,Win32,59.75143403,Chrome,1536,864,,,,,1,1031,,,,,,,,,,,,,,,,,F,132,triangle,1,0,,,,,,,,,,,,,,,,switch,letter,lettSwt,d,0.5172,Lo,,,,,,3,,,,,,,,high,3,0,3,0,1,,,,,,,,,
295477,2022-11-14_19h51.55.154,vts_reward_expectancy_bt,2022.2.4,Win32,59.75143403,Chrome,1536,864,,,,,0,1031,,,,,,,,,,,,,,,,,H,125,circle,1,0,,,,,,,,,,,,,,,,switch,number,numSwt,j,0.4673,Hi,,,,,,3,,,,,,,,high,4,0,4,0,1,,,,,,,,,
295477,2022-11-14_19h51.55.154,vts_reward_expectancy_bt,2022.2.4,Win32,59.75143403,Chrome,1536,864,,,,,0,1031,,,,,,,,,,,,,,,,,B,146,star,1,0,,,,,,,,,,,,,,,,repeat,number,numRpt,j,0.5033,Hi,,,,,,3,,,,,,,,high,5,0,5,0,1,,,,,,,,,
295477,2022-11-14_19h51.55.154,vts_reward_expectancy_bt,2022.2.4,Win32,59.75143403,Chrome,1536,864,,,,,1,1032,,,,,,,,,,,,,,,,,D,167,hexagon,1,0,,,,,,,,,,,,,,,,repeat,number,numRpt,k,0.3337,Lo,,,,,,3,,,,,,,,high,6,0,6,0,1,,,,,,,,,
295477,2022-11-14_19h51.55.154,vts_reward_expectancy_bt,2022.2.4,Win32,59.75143403,Chrome,1536,864,,,,,1,1033,,,,,,,,,,,,,,,,,S,174,triangle,1,0,,,,,,,,,,,,,,,,switch,letter,lettSwt,f,0.5012,Lo,,,,,,3,,,,,,,,high,7,0,7,0,1,,,,,,,,,
295477,2022-11-14_19h51.55.154,vts_reward_expectancy_bt,2022.2.4,Win32,59.75143403,Chrome,1536,864,,,,,1,1034,,,,,,,,,,,,,,,,,U,139,hexagon,1,0,,,,,,,,,,,,,,,,repeat,letter,lettRpt,f,0.4015,Lo,,,,,,3,,,,,,,,high,8,0,8,0,1,,,,,,,,,
295477,2022-11-14_19h51.55.154,vts_reward_expectancy_bt,2022.2.4,Win32,59.75143403,Chrome,1536,864,,,,,10,1044,,,,,,,,,,,,,,,,,Y,160,star,1,0,,,,,,,,,,,,,,,,repeat,letter,lettRpt,f,0.422,Hi,,,,,,3,,,,,,,,high,9,0,9,0,1,,,,,,,,,
295477,2022-11-14_19h51.55.154,vts_reward_expectancy_bt,2022.2.4,Win32,59.75143403,Chrome,1536,864,,,,,1,1045,,,,,,,,,,,,,,,,,W,181,triangle,1,0,,,,,,,,,,,,,,,,repeat,letter,lettRpt,f,0.4502,Lo,,,,,,3,,,,,,,,high,10,0,10,0,1,,,,,,,,,
295477,2022-11-14_19h51.55.154,vts_reward_expectancy_bt,2022.2.4,Win32,59.75143403,Chrome,1536,864,,,,,10,1055,,,,,,,,,,,,,,,,,F,132,circle,1,0,,,,,,,,,,,,,,,,switch,number,numSwt,j,0.3512,Hi,,,,,,3,,,,,,,,high,11,0,11,0,1,,,,,,,,,
295477,2022-11-14_19h51.55.154,vts_reward_expectancy_bt,2022.2.4,Win32,59.75143403,Chrome,1536,864,,,,,0,1055,,,,,,,,,,,,,,,,,H,125,star,1,0,,,,,,,,,,,,,,,,repeat,number,numRpt,j,0.4682,Hi,,,,,,3,,,,,,,,high,12,0,12,0,1,,,,,,,,,
295477,2022-11-14_19h51.55.154,vts_reward_expectancy_bt,2022.2.4,Win32,59.75143403,Chrome,1536,864,,,,,1,1056,,,,,,,,,,,,,,,,,B,146,hexagon,1,0,,,,,,,,,,,,,,,,switch,letter,lettSwt,d,0.4179,Lo,,,,,,3,,,,,,,,high,13,0,13,0,1,,,,,,,,,
295477,2022-11-14_19h51.55.154,vts_reward_expectancy_bt,2022.2.4,Win32,59.75143403,Chrome,1536,864,,,,,0,1056,,,,,,,,,,,,,,,,,D,167,circle,0,0,,,,,,,,,,,,,,,,switch,number,NA,j,0.368,Lo,,,,,,3,,,,,,,,high,14,0,14,0,1,,,,,,,,,
295477,2022-11-14_19h51.55.154,vts_reward_expectancy_bt,2022.2.4,Win32,59.75143403,Chrome,1536,864,,,,,0,1056,,,,,,,,,,,,,,,,,S,174,triangle,0,1,,,,,,,,,,,,,,,,switch,letter,NA,d,0.3841,Lo,,,,,,3,,,,,,,,high,15,0,15,0,1,,,,,,,,,
295477,2022-11-14_19h51.55.154,vts_reward_expectancy_bt,2022.2.4,Win32,59.75143403,Chrome,1536,864,,,,,1,1057,,,,,,,,,,,,,,,,,S,139,triangle,1,1,,,,,,,,,,,,,,,,repeat,letter,lettRpt,f,0.5006,Lo,,,,,,3,,,,,,,,high,16,0,16,0,1,,,,,,,,,
295477,2022-11-14_19h51.55.154,vts_reward_expectancy_bt,2022.2.4,Win32,59.75143403,Chrome,1536,864,,,,,1,1058,,,,,,,,,,,,,,,,,B,132,circle,1,0,,,,,,,,,,,,,,,,repeat,letter,lettRpt,d,0.4067,Hi,,,,,,3,,,,,,,,high,17,0,17,0,1,,,,,,,,,
295477,2022-11-14_19h51.55.154,vts_reward_expectancy_bt,2022.2.4,Win32,59.75143403,Chrome,1536,864,,,,,1,1059,,,,,,,,,,,,,,,,,U,160,hexagon,1,0,,,,,,,,,,,,,,,,repeat,letter,lettRpt,f,0.374,Lo,,,,,,3,,,,,,,,high,18,0,18,0,1,,,,,,,,,
295477,2022-11-14_19h51.55.154,vts_reward_expectancy_bt,2022.2.4,Win32,59.75143403,Chrome,1536,864,,,,,0,1059,,,,,,,,,,,,,,,,,F,174,star,1,0,,,,,,,,,,,,,,,,switch,number,numSwt,k,0.4509,Hi,,,,,,3,,,,,,,,high,19,0,19,0,1,,,,,,,,,
295477,2022-11-14_19h51.55.154,vts_reward_expectancy_bt,2022.2.4,Win32,59.75143403,Chrome,1536,864,,,,,0,1059,,,,,,,,,,,,,,,,,H,125,star,1,0,,,,,,,,,,,,,,,,repeat,number,numRpt,j,0.6379,Hi,,,,,,3,,,,,,,,high,20,0,20,0,1,,,,,,,,,
295477,2022-11-14_19h51.55.154,vts_reward_expectancy_bt,2022.2.4,Win32,59.75143403,Chrome,1536,864,,,,,1,1060,,,,,,,,,,,,,,,,,D,181,circle,1,0,,,,,,,,,,,,,,,,repeat,number,numRpt,k,0.4236,Hi,,,,,,3,,,,,,,,high,21,0,21,0,1,,,,,,,,,
295477,2022-11-14_19h51.55.154,vts_reward_expectancy_bt,2022.2.4,Win32,59.75143403,Chrome,1536,864,,,,,1,1061,,,,,,,,,,,,,,,,,Y,167,hexagon,1,0,,,,,,,,,,,,,,,,switch,letter,lettSwt,f,0.4009,Lo,,,,,,3,,,,,,,,high,22,0,22,0,1,,,,,,,,,
295477,2022-11-14_19h51.55.154,vts_reward_expectancy_bt,2022.2.4,Win32,59.75143403,Chrome,1536,864,,,,,1,1062,,,,,,,,,,,,,,,,,W,146,triangle,1,0,,,,,,,,,,,,,,,,repeat,letter,lettRpt,f,0.5088,Lo,,,,,,3,,,,,,,,high,23,0,23,0,1,,,,,,,,,
295477,2022-11-14_19h51.55.154,vts_reward_expectancy_bt,2022.2.4,Win32,59.75143403,Chrome,1536,864,,,,,1,1063,,,,,,,,,,,,,,,,,H,139,hexagon,1,0,,,,,,,,,,,,,,,,repeat,letter,lettRpt,d,0.4037,Lo,,,,,,3,,,,,,,,high,24,0,24,0,1,,,,,,,,,
295477,2022-11-14_19h51.55.154,vts_reward_expectancy_bt,2022.2.4,Win32,59.75143403,Chrome,1536,864,,,,,10,1073,,,,,,,,,,,,,,,,,W,181,circle,1,0,,,,,,,,,,,,,,,,repeat,letter,lettRpt,f,0.3839,Hi,,,,,,3,,,,,,,,high,25,0,25,0,1,,,,,,,,,
295477,2022-11-14_19h51.55.154,vts_reward_expectancy_bt,2022.2.4,Win32,59.75143403,Chrome,1536,864,,,,,1,1074,,,,,,,,,,,,,,,,,S,160,triangle,1,0,,,,,,,,,,,,,,,,switch,number,numSwt,k,0.3338,Lo,,,,,,3,,,,,,,,high,26,0,26,0,1,,,,,,,,,
295477,2022-11-14_19h51.55.154,vts_reward_expectancy_bt,2022.2.4,Win32,59.75143403,Chrome,1536,864,,,,,10,1084,,,,,,,,,,,,,,,,,F,125,star,1,0,,,,,,,,,,,,,,,,repeat,number,numRpt,j,0.3718,Hi,,,,,,3,,,,,,,,high,27,0,27,0,1,,,,,,,,,
295477,2022-11-14_19h51.55.154,vts_reward_expectancy_bt,2022.2.4,Win32,59.75143403,Chrome,1536,864,,,,,10,1094,,,,,,,,,,,,,,,,,Y,174,triangle,1,0,,,,,,,,,,,,,,,,repeat,number,numRpt,k,0.4242,Lo,,,,,,3,,,,,,,,high,28,0,28,0,1,,,,,,,,,
295477,2022-11-14_19h51.55.154,vts_reward_expectancy_bt,2022.2.4,Win32,59.75143403,Chrome,1536,864,,,,,0,1094,,,,,,,,,,,,,,,,,D,146,star,0,0,,,,,,,,,,,,,,,,switch,letter,NA,f,0.4497,Lo,,,,,,3,,,,,,,,high,29,0,29,0,1,,,,,,,,,
295477,2022-11-14_19h51.55.154,vts_reward_expectancy_bt,2022.2.4,Win32,59.75143403,Chrome,1536,864,,,,,10,1104,,,,,,,,,,,,,,,,,B,132,circle,1,1,,,,,,,,,,,,,,,,repeat,letter,lettRpt,d,0.4338,Hi,,,,,,3,,,,,,,,high,30,0,30,0,1,,,,,,,,,
295477,2022-11-14_19h51.55.154,vts_reward_expectancy_bt,2022.2.4,Win32,59.75143403,Chrome,1536,864,,,,,1,1105,,,,,,,,,,,,,,,,,U,167,hexagon,1,0,,,,,,,,,,,,,,,,switch,number,numSwt,k,0.5345,Lo,,,,,,3,,,,,,,,high,31,0,31,0,1,,,,,,,,,
295477,2022-11-14_19h51.55.154,vts_reward_expectancy_bt,2022.2.4,Win32,59.75143403,Chrome,1536,864,,,,,10,1115,,,,,,,,,,,,,,,,,W,132,star,1,0,,,,,,,,,,,,,,,,repeat,number,numRpt,j,0.4004,Hi,,,,,,4,,,,,,space,0.8014,high,0,0,0,0,1,,,,,,,,,
295477,2022-11-14_19h51.55.154,vts_reward_expectancy_bt,2022.2.4,Win32,59.75143403,Chrome,1536,864,,,,,1,1116,,,,,,,,,,,,,,,,,B,167,hexagon,1,0,,,,,,,,,,,,,,,,switch,letter,lettSwt,d,0.4393,Lo,,,,,,4,,,,,,,,high,1,0,1,0,1,,,,,,,,,
295477,2022-11-14_19h51.55.154,vts_reward_expectancy_bt,2022.2.4,Win32,59.75143403,Chrome,1536,864,,,,,1,1117,,,,,,,,,,,,,,,,,Y,174,triangle,1,0,,,,,,,,,,,,,,,,switch,number,numSwt,k,0.4017,Lo,,,,,,4,,,,,,,,high,2,0,2,0,1,,,,,,,,,
295477,2022-11-14_19h51.55.154,vts_reward_expectancy_bt,2022.2.4,Win32,59.75143403,Chrome,1536,864,,,,,10,1127,,,,,,,,,,,,,,,,,H,125,circle,1,0,,,,,,,,,,,,,,,,repeat,number,numRpt,j,0.3714,Hi,,,,,,4,,,,,,,,high,3,0,3,0,1,,,,,,,,,
295477,2022-11-14_19h51.55.154,vts_reward_expectancy_bt,2022.2.4,Win32,59.75143403,Chrome,1536,864,,,,,10,1137,,,,,,,,,,,,,,,,,S,181,star,1,0,,,,,,,,,,,,,,,,switch,letter,lettSwt,f,0.3837,Hi,,,,,,4,,,,,,,,high,4,0,4,0,1,,,,,,,,,
295477,2022-11-14_19h51.55.154,vts_reward_expectancy_bt,2022.2.4,Win32,59.75143403,Chrome,1536,864,,,,,1,1138,,,,,,,,,,,,,,,,,U,139,hexagon,1,0,,,,,,,,,,,,,,,,switch,number,numSwt,j,0.3676,Lo,,,,,,4,,,,,,,,high,5,0,5,0,1,,,,,,,,,
295477,2022-11-14_19h51.55.154,vts_reward_expectancy_bt,2022.2.4,Win32,59.75143403,Chrome,1536,864,,,,,1,1139,,,,,,,,,,,,,,,,,F,146,triangle,1,0,,,,,,,,,,,,,,,,switch,letter,lettSwt,d,0.535,Lo,,,,,,4,,,,,,,,high,6,0,6,0,1,,,,,,,,,
295477,2022-11-14_19h51.55.154,vts_reward_expectancy_bt,2022.2.4,Win32,59.75143403,Chrome,1536,864,,,,,0,1139,,,,,,,,,,,,,,,,,D,160,circle,0,0,,,,,,,,,,,,,,,,repeat,letter,NA,f,0.3841,Lo,,,,,,4,,,,,,,,high,7,0,7,0,1,,,,,,,,,
295477,2022-11-14_19h51.55.154,vts_reward_expectancy_bt,2022.2.4,Win32,59.75143403,Chrome,1536,864,,,,,0,1139,,,,,,,,,,,,,,,,,W,132,star,1,1,,,,,,,,,,,,,,,,switch,number,numSwt,j,0.3695,Hi,,,,,,4,,,,,,,,high,8,0,8,0,1,,,,,,,,,
295477,2022-11-14_19h51.55.154,vts_reward_expectancy_bt,2022.2.4,Win32,59.75143403,Chrome,1536,864,,,,,0,1139,,,,,,,,,,,,,,,,,B,167,circle,1,0,,,,,,,,,,,,,,,,switch,letter,lettSwt,d,0.4836,Hi,,,,,,4,,,,,,,,high,9,0,9,0,1,,,,,,,,,
295477,2022-11-14_19h51.55.154,vts_reward_expectancy_bt,2022.2.4,Win32,59.75143403,Chrome,1536,864,,,,,10,1149,,,,,,,,,,,,,,,,,Y,174,triangle,1,0,,,,,,,,,,,,,,,,repeat,letter,lettRpt,f,0.4177,Lo,,,,,,4,,,,,,,,high,10,0,10,0,1,,,,,,,,,
295477,2022-11-14_19h51.55.154,vts_reward_expectancy_bt,2022.2.4,Win32,59.75143403,Chrome,1536,864,,,,,1,1150,,,,,,,,,,,,,,,,,H,125,hexagon,1,0,,,,,,,,,,,,,,,,switch,number,numSwt,j,0.3232,Lo,,,,,,4,,,,,,,,high,11,0,11,0,1,,,,,,,,,
295477,2022-11-14_19h51.55.154,vts_reward_expectancy_bt,2022.2.4,Win32,59.75143403,Chrome,1536,864,,,,,10,1160,,,,,,,,,,,,,,,,,S,181,star,1,0,,,,,,,,,,,,,,,,repeat,number,numRpt,k,0.3391,Hi,,,,,,4,,,,,,,,high,12,0,12,0,1,,,,,,,,,
295477,2022-11-14_19h51.55.154,vts_reward_expectancy_bt,2022.2.4,Win32,59.75143403,Chrome,1536,864,,,,,0,1160,,,,,,,,,,,,,,,,,U,139,triangle,0,0,,,,,,,,,,,,,,,,switch,letter,NA,d,0.371,Hi,,,,,,4,,,,,,,,high,13,0,13,0,1,,,,,,,,,
295477,2022-11-14_19h51.55.154,vts_reward_expectancy_bt,2022.2.4,Win32,59.75143403,Chrome,1536,864,,,,,1,1161,,,,,,,,,,,,,,,,,F,146,circle,1,1,,,,,,,,,,,,,,,,repeat,letter,lettRpt,d,0.3839,Hi,,,,,,4,,,,,,,,high,14,0,14,0,1,,,,,,,,,
295477,2022-11-14_19h51.55.154,vts_reward_expectancy_bt,2022.2.4,Win32,59.75143403,Chrome,1536,864,,,,,0,1161,,,,,,,,,,,,,,,,,D,160,hexagon,0,0,,,,,,,,,,,,,,,,switch,number,NA,j,0.3548,Hi,,,,,,4,,,,,,,,high,15,0,15,0,1,,,,,,,,,
295477,2022-11-14_19h51.55.154,vts_reward_expectancy_bt,2022.2.4,Win32,59.75143403,Chrome,1536,864,,,,,10,1171,,,,,,,,,,,,,,,,,F,174,circle,1,1,,,,,,,,,,,,,,,,switch,letter,lettSwt,d,0.4344,Hi,,,,,,4,,,,,,,,high,16,0,16,0,1,,,,,,,,,
295477,2022-11-14_19h51.55.154,vts_reward_expectancy_bt,2022.2.4,Win32,59.75143403,Chrome,1536,864,,,,,1,1172,,,,,,,,,,,,,,,,,B,181,hexagon,1,0,,,,,,,,,,,,,,,,switch,number,numSwt,k,0.3862,Lo,,,,,,4,,,,,,,,high,17,0,17,0,1,,,,,,,,,
295477,2022-11-14_19h51.55.154,vts_reward_expectancy_bt,2022.2.4,Win32,59.75143403,Chrome,1536,864,,,,,0,1172,,,,,,,,,,,,,,,,,D,160,triangle,0,0,,,,,,,,,,,,,,,,switch,letter,NA,f,0.583,Lo,,,,,,4,,,,,,,,high,18,0,18,0,1,,,,,,,,,
295477,2022-11-14_19h51.55.154,vts_reward_expectancy_bt,2022.2.4,Win32,59.75143403,Chrome,1536,864,,,,,0,1172,,,,,,,,,,,,,,,,,U,132,star,0,1,,,,,,,,,,,,,,,,repeat,letter,NA,d,0.4171,Lo,,,,,,4,,,,,,,,high,19,0,19,0,1,,,,,,,,,
295477,2022-11-14_19h51.55.154,vts_reward_expectancy_bt,2022.2.4,Win32,59.75143403,Chrome,1536,864,,,,,1,1173,,,,,,,,,,,,,,,,,Y,146,triangle,1,1,,,,,,,,,,,,,,,,switch,number,numSwt,j,0.3905,Lo,,,,,,4,,,,,,,,high,20,0,20,0,1,,,,,,,,,
295477,2022-11-14_19h51.55.154,vts_reward_expectancy_bt,2022.2.4,Win32,59.75143403,Chrome,1536,864,,,,,1,1174,,,,,,,,,,,,,,,,,W,139,hexagon,1,0,,,,,,,,,,,,,,,,repeat,number,numRpt,j,0.4509,Lo,,,,,,4,,,,,,,,high,21,0,21,0,1,,,,,,,,,
295477,2022-11-14_19h51.55.154,vts_reward_expectancy_bt,2022.2.4,Win32,59.75143403,Chrome,1536,864,,,,,0,1174,,,,,,,,,,,,,,,,,H,125,circle,1,0,,,,,,,,,,,,,,,,repeat,number,numRpt,j,0.4765,Hi,,,,,,4,,,,,,,,high,22,0,22,0,1,,,,,,,,,
295477,2022-11-14_19h51.55.154,vts_reward_expectancy_bt,2022.2.4,Win32,59.75143403,Chrome,1536,864,,,,,0,1174,,,,,,,,,,,,,,,,,S,167,star,1,0,,,,,,,,,,,,,,,,switch,letter,lettSwt,f,0.5537,Hi,,,,,,4,,,,,,,,high,23,0,23,0,1,,,,,,,,,
295477,2022-11-14_19h51.55.154,vts_reward_expectancy_bt,2022.2.4,Win32,59.75143403,Chrome,1536,864,,,,,0,1174,,,,,,,,,,,,,,,,,F,160,triangle,0,0,,,,,,,,,,,,,,,,repeat,letter,NA,f,0.3839,Hi,,,,,,4,,,,,,,,high,24,0,24,0,1,,,,,,,,,
295477,2022-11-14_19h51.55.154,vts_reward_expectancy_bt,2022.2.4,Win32,59.75143403,Chrome,1536,864,,,,,0,1174,,,,,,,,,,,,,,,,,S,139,star,1,1,,,,,,,,,,,,,,,,switch,number,numSwt,j,0.4172,Hi,,,,,,4,,,,,,,,high,25,0,25,0,1,,,,,,,,,
295477,2022-11-14_19h51.55.154,vts_reward_expectancy_bt,2022.2.4,Win32,59.75143403,Chrome,1536,864,,,,,1,1175,,,,,,,,,,,,,,,,,H,146,hexagon,1,0,,,,,,,,,,,,,,,,repeat,number,numRpt,j,0.3508,Lo,,,,,,4,,,,,,,,high,26,0,26,0,1,,,,,,,,,
295477,2022-11-14_19h51.55.154,vts_reward_expectancy_bt,2022.2.4,Win32,59.75143403,Chrome,1536,864,,,,,10,1185,,,,,,,,,,,,,,,,,W,181,circle,1,0,,,,,,,,,,,,,,,,repeat,number,numRpt,k,0.3538,Hi,,,,,,4,,,,,,,,high,27,0,27,0,1,,,,,,,,,
295477,2022-11-14_19h51.55.154,vts_reward_expectancy_bt,2022.2.4,Win32,59.75143403,Chrome,1536,864,,,,,0,1185,,,,,,,,,,,,,,,,,B,167,circle,1,0,,,,,,,,,,,,,,,,switch,letter,lettSwt,d,0.4683,Hi,,,,,,4,,,,,,,,high,28,0,28,0,1,,,,,,,,,
295477,2022-11-14_19h51.55.154,vts_reward_expectancy_bt,2022.2.4,Win32,59.75143403,Chrome,1536,864,,,,,1,1186,,,,,,,,,,,,,,,,,D,132,triangle,1,0,,,,,,,,,,,,,,,,switch,number,numSwt,j,0.4051,Lo,,,,,,4,,,,,,,,high,29,0,29,0,1,,,,,,,,,
295477,2022-11-14_19h51.55.154,vts_reward_expectancy_bt,2022.2.4,Win32,59.75143403,Chrome,1536,864,,,,,1,1187,,,,,,,,,,,,,,,,,Y,174,hexagon,1,0,,,,,,,,,,,,,,,,switch,letter,lettSwt,f,0.3576,Lo,,,,,,4,,,,,,,,high,30,0,30,0,1,,,,,,,,,
295477,2022-11-14_19h51.55.154,vts_reward_expectancy_bt,2022.2.4,Win32,59.75143403,Chrome,1536,864,,,,,0,1187,,,,,,,,,,,,,,,,,U,125,star,0,0,,,,,,,,,,,,,,,,repeat,letter,NA,d,0.4074,Lo,,,,,,4,,,,,,,,high,31,0,31,0,1,,,,,,,,,
295477,2022-11-14_19h51.55.154,vts_reward_expectancy_bt,2022.2.4,Win32,59.75143403,Chrome,1536,864,,,,,1,1188,,,,,,,,,,,,,,,,,F,181,star,1,1,,,,,,,,,,,,,,,,repeat,letter,lettRpt,d,0.3843,Hi,,,,,,5,,,,,,space,126.457,high,0,0,0,0,1,,,,,,,,,
295477,2022-11-14_19h51.55.154,vts_reward_expectancy_bt,2022.2.4,Win32,59.75143403,Chrome,1536,864,,,,,1,1189,,,,,,,,,,,,,,,,,Y,139,hexagon,1,0,,,,,,,,,,,,,,,,repeat,letter,lettRpt,f,0.4841,Lo,,,,,,5,,,,,,,,high,1,0,1,0,1,,,,,,,,,
295477,2022-11-14_19h51.55.154,vts_reward_expectancy_bt,2022.2.4,Win32,59.75143403,Chrome,1536,864,,,,,0,1189,,,,,,,,,,,,,,,,,H,167,triangle,0,0,,,,,,,,,,,,,,,,switch,number,NA,j,0.3672,Lo,,,,,,5,,,,,,,,high,2,0,2,0,1,,,,,,,,,
295477,2022-11-14_19h51.55.154,vts_reward_expectancy_bt,2022.2.4,Win32,59.75143403,Chrome,1536,864,,,,,0,1189,,,,,,,,,,,,,,,,,S,132,circle,1,1,,,,,,,,,,,,,,,,repeat,number,numRpt,j,0.4047,Hi,,,,,,5,,,,,,,,high,3,0,3,0,1,,,,,,,,,
295477,2022-11-14_19h51.55.154,vts_reward_expectancy_bt,2022.2.4,Win32,59.75143403,Chrome,1536,864,,,,,0,1189,,,,,,,,,,,,,,,,,U,146,star,1,0,,,,,,,,,,,,,,,,repeat,number,numRpt,j,0.4002,Hi,,,,,,5,,,,,,,,high,4,0,4,0,1,,,,,,,,,
295477,2022-11-14_19h51.55.154,vts_reward_expectancy_bt,2022.2.4,Win32,59.75143403,Chrome,1536,864,,,,,1,1190,,,,,,,,,,,,,,,,,B,160,hexagon,1,0,,,,,,,,,,,,,,,,switch,letter,lettSwt,d,0.3664,Lo,,,,,,5,,,,,,,,high,5,0,5,0,1,,,,,,,,,
295477,2022-11-14_19h51.55.154,vts_reward_expectancy_bt,2022.2.4,Win32,59.75143403,Chrome,1536,864,,,,,0,1190,,,,,,,,,,,,,,,,,W,174,triangle,0,0,,,,,,,,,,,,,,,,switch,number,NA,j,0.5009,Lo,,,,,,5,,,,,,,,high,6,0,6,0,1,,,,,,,,,
295477,2022-11-14_19h51.55.154,vts_reward_expectancy_bt,2022.2.4,Win32,59.75143403,Chrome,1536,864,,,,,0,1190,,,,,,,,,,,,,,,,,D,125,circle,1,1,,,,,,,,,,,,,,,,repeat,number,numRpt,j,0.5053,Hi,,,,,,5,,,,,,,,high,7,0,7,0,1,,,,,,,,,
295477,2022-11-14_19h51.55.154,vts_reward_expectancy_bt,2022.2.4,Win32,59.75143403,Chrome,1536,864,,,,,0,1190,,,,,,,,,,,,,,,,,F,181,star,1,0,,,,,,,,,,,,,,,,repeat,number,numRpt,k,0.4081,Hi,,,,,,5,,,,,,,,high,8,0,8,0,1,,,,,,,,,
295477,2022-11-14_19h51.55.154,vts_reward_expectancy_bt,2022.2.4,Win32,59.75143403,Chrome,1536,864,,,,,1,1191,,,,,,,,,,,,,,,,,Y,139,hexagon,1,0,,,,,,,,,,,,,,,,switch,letter,lettSwt,f,0.4013,Lo,,,,,,5,,,,,,,,high,9,0,9,0,1,,,,,,,,,
295477,2022-11-14_19h51.55.154,vts_reward_expectancy_bt,2022.2.4,Win32,59.75143403,Chrome,1536,864,,,,,0,1191,,,,,,,,,,,,,,,,,H,167,triangle,0,0,,,,,,,,,,,,,,,,repeat,letter,NA,f,0.359,Lo,,,,,,5,,,,,,,,high,10,0,10,0,1,,,,,,,,,
295477,2022-11-14_19h51.55.154,vts_reward_expectancy_bt,2022.2.4,Win32,59.75143403,Chrome,1536,864,,,,,0,1191,,,,,,,,,,,,,,,,,S,132,circle,1,1,,,,,,,,,,,,,,,,repeat,letter,lettRpt,f,0.5907,Hi,,,,,,5,,,,,,,,high,11,0,11,0,1,,,,,,,,,
295477,2022-11-14_19h51.55.154,vts_reward_expectancy_bt,2022.2.4,Win32,59.75143403,Chrome,1536,864,,,,,0,1191,,,,,,,,,,,,,,,,,U,146,circle,0,0,,,,,,,,,,,,,,,,repeat,letter,NA,d,0.4015,Hi,,,,,,5,,,,,,,,high,12,0,12,0,1,,,,,,,,,
295477,2022-11-14_19h51.55.154,vts_reward_expectancy_bt,2022.2.4,Win32,59.75143403,Chrome,1536,864,,,,,1,1192,,,,,,,,,,,,,,,,,B,160,triangle,1,1,,,,,,,,,,,,,,,,repeat,letter,lettRpt,d,0.3672,Lo,,,,,,5,,,,,,,,high,13,0,13,0,1,,,,,,,,,
295477,2022-11-14_19h51.55.154,vts_reward_expectancy_bt,2022.2.4,Win32,59.75143403,Chrome,1536,864,,,,,0,1192,,,,,,,,,,,,,,,,,W,174,hexagon,0,0,,,,,,,,,,,,,,,,switch,number,NA,j,0.3404,Lo,,,,,,5,,,,,,,,high,14,0,14,0,1,,,,,,,,,
295477,2022-11-14_19h51.55.154,vts_reward_expectancy_bt,2022.2.4,Win32,59.75143403,Chrome,1536,864,,,,,10,1202,,,,,,,,,,,,,,,,,D,125,star,1,1,,,,,,,,,,,,,,,,repeat,number,numRpt,j,0.3175,Hi,,,,,,5,,,,,,,,high,15,0,15,0,1,,,,,,,,,
295477,2022-11-14_19h51.55.154,vts_reward_expectancy_bt,2022.2.4,Win32,59.75143403,Chrome,1536,864,,,,,0,1202,,,,,,,,,,,,,,,,,B,125,circle,1,0,,,,,,,,,,,,,,,,repeat,number,numRpt,j,0.3806,Hi,,,,,,5,,,,,,,,high,16,0,16,0,1,,,,,,,,,
295477,2022-11-14_19h51.55.154,vts_reward_expectancy_bt,2022.2.4,Win32,59.75143403,Chrome,1536,864,,,,,10,1212,,,,,,,,,,,,,,,,,W,146,hexagon,1,0,,,,,,,,,,,,,,,,switch,letter,lettSwt,f,0.3751,Lo,,,,,,5,,,,,,,,high,17,0,17,0,1,,,,,,,,,
295477,2022-11-14_19h51.55.154,vts_reward_expectancy_bt,2022.2.4,Win32,59.75143403,Chrome,1536,864,,,,,10,1222,,,,,,,,,,,,,,,,,Y,160,triangle,1,0,,,,,,,,,,,,,,,,switch,number,numSwt,k,0.3639,Lo,,,,,,5,,,,,,,,high,18,0,18,0,1,,,,,,,,,
295477,2022-11-14_19h51.55.154,vts_reward_expectancy_bt,2022.2.4,Win32,59.75143403,Chrome,1536,864,,,,,10,1232,,,,,,,,,,,,,,,,,H,139,star,1,0,,,,,,,,,,,,,,,,switch,letter,lettSwt,d,0.3385,Hi,,,,,,5,,,,,,,,high,19,0,19,0,1,,,,,,,,,
295477,2022-11-14_19h51.55.154,vts_reward_expectancy_bt,2022.2.4,Win32,59.75143403,Chrome,1536,864,,,,,1,1233,,,,,,,,,,,,,,,,,S,167,hexagon,1,0,,,,,,,,,,,,,,,,switch,number,numSwt,k,0.3737,Lo,,,,,,5,,,,,,,,high,20,0,20,0,1,,,,,,,,,
295477,2022-11-14_19h51.55.154,vts_reward_expectancy_bt,2022.2.4,Win32,59.75143403,Chrome,1536,864,,,,,0,1233,,,,,,,,,,,,,,,,,D,174,triangle,0,0,,,,,,,,,,,,,,,,repeat,number,NA,j,0.3836,Lo,,,,,,5,,,,,,,,high,21,0,21,0,1,,,,,,,,,
295477,2022-11-14_19h51.55.154,vts_reward_expectancy_bt,2022.2.4,Win32,59.75143403,Chrome,1536,864,,,,,10,1243,,,,,,,,,,,,,,,,,U,181,circle,1,1,,,,,,,,,,,,,,,,switch,letter,lettSwt,f,0.368,Hi,,,,,,5,,,,,,,,high,22,0,22,0,1,,,,,,,,,
295477,2022-11-14_19h51.55.154,vts_reward_expectancy_bt,2022.2.4,Win32,59.75143403,Chrome,1536,864,,,,,10,1253,,,,,,,,,,,,,,,,,F,132,star,1,0,,,,,,,,,,,,,,,,repeat,letter,lettRpt,d,0.3215,Hi,,,,,,5,,,,,,,,high,23,0,23,0,1,,,,,,,,,
295477,2022-11-14_19h51.55.154,vts_reward_expectancy_bt,2022.2.4,Win32,59.75143403,Chrome,1536,864,,,,,10,1263,,,,,,,,,,,,,,,,,U,167,circle,1,0,,,,,,,,,,,,,,,,switch,number,numSwt,k,0.3251,Hi,,,,,,5,,,,,,,,high,24,0,24,0,1,,,,,,,,,
295477,2022-11-14_19h51.55.154,vts_reward_expectancy_bt,2022.2.4,Win32,59.75143403,Chrome,1536,864,,,,,1,1264,,,,,,,,,,,,,,,,,S,174,triangle,1,0,,,,,,,,,,,,,,,,switch,letter,lettSwt,f,0.384,Lo,,,,,,5,,,,,,,,high,25,0,25,0,1,,,,,,,,,
295477,2022-11-14_19h51.55.154,vts_reward_expectancy_bt,2022.2.4,Win32,59.75143403,Chrome,1536,864,,,,,0,1264,,,,,,,,,,,,,,,,,Y,160,star,1,0,,,,,,,,,,,,,,,,switch,number,numSwt,k,0.4578,Hi,,,,,,5,,,,,,,,high,26,0,26,0,1,,,,,,,,,
295477,2022-11-14_19h51.55.154,vts_reward_expectancy_bt,2022.2.4,Win32,59.75143403,Chrome,1536,864,,,,,10,1274,,,,,,,,,,,,,,,,,D,125,hexagon,1,0,,,,,,,,,,,,,,,,repeat,number,numRpt,j,0.3668,Lo,,,,,,5,,,,,,,,high,27,0,27,0,1,,,,,,,,,
295477,2022-11-14_19h51.55.154,vts_reward_expectancy_bt,2022.2.4,Win32,59.75143403,Chrome,1536,864,,,,,10,1284,,,,,,,,,,,,,,,,,W,139,star,1,0,,,,,,,,,,,,,,,,switch,letter,lettSwt,f,0.4004,Hi,,,,,,5,,,,,,,,high,28,0,28,0,1,,,,,,,,,
295477,2022-11-14_19h51.55.154,vts_reward_expectancy_bt,2022.2.4,Win32,59.75143403,Chrome,1536,864,,,,,1,1285,,,,,,,,,,,,,,,,,F,146,hexagon,1,0,,,,,,,,,,,,,,,,repeat,letter,lettRpt,d,0.2856,Lo,,,,,,5,,,,,,,,high,29,0,29,0,1,,,,,,,,,
295477,2022-11-14_19h51.55.154,vts_reward_expectancy_bt,2022.2.4,Win32,59.75143403,Chrome,1536,864,,,,,0,1285,,,,,,,,,,,,,,,,,B,132,circle,0,0,,,,,,,,,,,,,,,,switch,number,NA,k,0.304,Lo,,,,,,5,,,,,,,,high,30,0,30,0,1,,,,,,,,,
295477,2022-11-14_19h51.55.154,vts_reward_expectancy_bt,2022.2.4,Win32,59.75143403,Chrome,1536,864,,,,,1,1286,,,,,,,,,,,,,,,,,H,181,triangle,1,1,,,,,,,,,,,,,,,,repeat,number,numRpt,k,0.5671,Lo,,,,,,5,,,,,,,,high,31,0,31,0,1,,,,,,,,,
295477,2022-11-14_19h51.55.154,vts_reward_expectancy_bt,2022.2.4,Win32,59.75143403,Chrome,1536,864,,,,,0,1286,,,,,,,,,,,,,,,,,W,174,star,1,0,,,,,,,,,,,,,,,,switch,letter,lettSwt,f,0.647,Hi,,,,,,6,,,,,,space,1.6556,high,0,0,0,0,1,,,,,,,,,
295477,2022-11-14_19h51.55.154,vts_reward_expectancy_bt,2022.2.4,Win32,59.75143403,Chrome,1536,864,,,,,1,1287,,,,,,,,,,,,,,,,,U,125,hexagon,1,0,,,,,,,,,,,,,,,,repeat,letter,lettRpt,f,0.365,Lo,,,,,,6,,,,,,,,high,1,0,1,0,1,,,,,,,,,
295477,2022-11-14_19h51.55.154,vts_reward_expectancy_bt,2022.2.4,Win32,59.75143403,Chrome,1536,864,,,,,0,1287,,,,,,,,,,,,,,,,,D,146,triangle,0,0,,,,,,,,,,,,,,,,switch,number,NA,k,0.5113,Lo,,,,,,6,,,,,,,,high,2,0,2,0,1,,,,,,,,,
295477,2022-11-14_19h51.55.154,vts_reward_expectancy_bt,2022.2.4,Win32,59.75143403,Chrome,1536,864,,,,,0,1287,,,,,,,,,,,,,,,,,H,139,circle,1,1,,,,,,,,,,,,,,,,repeat,number,numRpt,j,0.4469,Hi,,,,,,6,,,,,,,,high,3,0,3,0,1,,,,,,,,,
295477,2022-11-14_19h51.55.154,vts_reward_expectancy_bt,2022.2.4,Win32,59.75143403,Chrome,1536,864,,,,,10,1297,,,,,,,,,,,,,,,,,S,160,star,1,0,,,,,,,,,,,,,,,,repeat,number,numRpt,k,0.3053,Hi,,,,,,6,,,,,,,,high,4,0,4,0,1,,,,,,,,,
295477,2022-11-14_19h51.55.154,vts_reward_expectancy_bt,2022.2.4,Win32,59.75143403,Chrome,1536,864,,,,,0,1297,,,,,,,,,,,,,,,,,B,167,hexagon,0,0,,,,,,,,,,,,,,,,switch,letter,NA,f,0.3842,Hi,,,,,,6,,,,,,,,high,5,0,5,0,1,,,,,,,,,
295477,2022-11-14_19h51.55.154,vts_reward_expectancy_bt,2022.2.4,Win32,59.75143403,Chrome,1536,864,,,,,1,1298,,,,,,,,,,,,,,,,,Y,132,triangle,1,1,,,,,,,,,,,,,,,,repeat,letter,lettRpt,f,0.3288,Lo,,,,,,6,,,,,,,,high,6,0,6,0,1,,,,,,,,,
295477,2022-11-14_19h51.55.154,vts_reward_expectancy_bt,2022.2.4,Win32,59.75143403,Chrome,1536,864,,,,,0,1298,,,,,,,,,,,,,,,,,F,181,circle,1,0,,,,,,,,,,,,,,,,repeat,letter,lettRpt,d,0.381,Hi,,,,,,6,,,,,,,,high,7,0,7,0,1,,,,,,,,,
295477,2022-11-14_19h51.55.154,vts_reward_expectancy_bt,2022.2.4,Win32,59.75143403,Chrome,1536,864,,,,,10,1308,,,,,,,,,,,,,,,,,W,174,circle,1,0,,,,,,,,,,,,,,,,switch,number,numSwt,k,0.3224,Hi,,,,,,6,,,,,,,,high,8,0,8,0,1,,,,,,,,,
295477,2022-11-14_19h51.55.154,vts_reward_expectancy_bt,2022.2.4,Win32,59.75143403,Chrome,1536,864,,,,,1,1309,,,,,,,,,,,,,,,,,U,125,hexagon,1,0,,,,,,,,,,,,,,,,repeat,number,numRpt,j,0.3972,Lo,,,,,,6,,,,,,,,high,9,0,9,0,1,,,,,,,,,
295477,2022-11-14_19h51.55.154,vts_reward_expectancy_bt,2022.2.4,Win32,59.75143403,Chrome,1536,864,,,,,0,1309,,,,,,,,,,,,,,,,,D,146,triangle,0,0,,,,,,,,,,,,,,,,switch,letter,NA,f,0.3115,Lo,,,,,,6,,,,,,,,high,10,0,10,0,1,,,,,,,,,
295477,2022-11-14_19h51.55.154,vts_reward_expectancy_bt,2022.2.4,Win32,59.75143403,Chrome,1536,864,,,,,0,1309,,,,,,,,,,,,,,,,,H,139,star,1,1,,,,,,,,,,,,,,,,repeat,letter,lettRpt,d,0.3703,Hi,,,,,,6,,,,,,,,high,11,0,11,0,1,,,,,,,,,
295477,2022-11-14_19h51.55.154,vts_reward_expectancy_bt,2022.2.4,Win32,59.75143403,Chrome,1536,864,,,,,1,1310,,,,,,,,,,,,,,,,,S,160,triangle,1,0,,,,,,,,,,,,,,,,switch,number,numSwt,k,0.3372,Lo,,,,,,6,,,,,,,,high,12,0,12,0,1,,,,,,,,,
295477,2022-11-14_19h51.55.154,vts_reward_expectancy_bt,2022.2.4,Win32,59.75143403,Chrome,1536,864,,,,,0,1310,,,,,,,,,,,,,,,,,B,167,circle,1,0,,,,,,,,,,,,,,,,repeat,number,numRpt,k,0.4045,Hi,,,,,,6,,,,,,,,high,13,0,13,0,1,,,,,,,,,
295477,2022-11-14_19h51.55.154,vts_reward_expectancy_bt,2022.2.4,Win32,59.75143403,Chrome,1536,864,,,,,10,1320,,,,,,,,,,,,,,,,,Y,132,star,1,0,,,,,,,,,,,,,,,,repeat,number,numRpt,j,0.3034,Hi,,,,,,6,,,,,,,,high,14,0,14,0,1,,,,,,,,,
295477,2022-11-14_19h51.55.154,vts_reward_expectancy_bt,2022.2.4,Win32,59.75143403,Chrome,1536,864,,,,,1,1321,,,,,,,,,,,,,,,,,F,181,hexagon,1,0,,,,,,,,,,,,,,,,switch,letter,lettSwt,d,0.3336,Lo,,,,,,6,,,,,,,,high,15,0,15,0,1,,,,,,,,,
