participant,date,expName,psychopyVersion,OS,frameRate,browser,xResolution,yResolution,key_resp.keys,key_resp.rt,training_resp.keys,training_resp.rt,points_trial,points_cumul,trainBlock,training.thisRepN,training.thisTrialN,training.thisN,training.thisIndex,training.ran,LTriangleOpac,LCircleOpac,LHexagonOpac,LStarOpac,RTriangleOpac,RCircleOpac,RHexagonOpac,RStarOpac,LShape_ID,RShape_ID,curr_topStim,curr_bottStim,curr_shape,acc,E1,target_resp_prac1.keys,target_resp_prac1.rt,pracBlock,task1_prac_trials.thisRepN,task1_prac_trials.thisTrialN,task1_prac_trials.thisN,task1_prac_trials.thisIndex,task1_prac_trials.ran,target_resp_prac2.keys,target_resp_prac2.rt,task2_praac_trials.thisRepN,task2_praac_trials.thisTrialN,task2_praac_trials.thisN,task2_praac_trials.thisIndex,task2_praac_trials.ran,alt,task,condition,target_resp.keys,rewCond,vts_practice_trials.thisRepN,vts_practice_trials.thisTrialN,vts_practice_trials.thisN,vts_practice_trials.thisIndex,vts_practice_trials.ran,target_resp.rt,blockNum,trials_norew.thisRepN,trials_norew.thisTrialN,trials_norew.thisN,trials_norew.thisIndex,trials_norew.ran,key_resp_2.keys,key_resp_2.rt,rewExpectancy,trials_rew.thisRepN,trials_rew.thisTrialN,trials_rew.thisN,trials_rew.thisIndex,trials_rew.ran,Q1,Q2,Q2_text,Q3,Q4,Q5,Q5_text,xRes,yRes
295543,2022-11-29_10h49.34.360,vts_reward_expectancy_bt,2022.2.4,Win32,59.95922773,Chrome,1440,810,,,,,,,,,,,,,,,,,,,,,,,,,,,,,,,,,,,,,,,,,,,,,,,,,,,,,,,,,,,,,,,,,,,,,,,,,,,,
295543,2022-11-29_10h49.34.360,vts_reward_expectancy_bt,2022.2.4,Win32,59.95922773,Chrome,1440,810,space,5.8292,,,,,,,,,,,,,,,,,,,,,,,,,,,,,,,,,,,,,,,,,,,,,,,,,,,,,,,,,,,,,,,,,,,,,,,,,,
295543,2022-11-29_10h49.34.360,vts_reward_expectancy_bt,2022.2.4,Win32,59.95922773,Chrome,1440,810,,,,,,,,,,,,,,,,,,,,,,,,,,,,,,,,,,,,,,,,,,,,,,,,,,,,,,,,,,,,,,,,,,,,,,,,,,,,
295543,2022-11-29_10h49.34.360,vts_reward_expectancy_bt,2022.2.4,Win32,59.95922773,Chrome,1440,810,,,l,1.8599,10,10,0,0,0,0,5,1,0,1,0,0,0,0,0,1,circle,star,,,,,,,,,,,,,,,,,,,,,,,,,,,,,,,,,,,,,,,,,,,,,,,,,,,,,,
295543,2022-11-29_10h49.34.360,vts_reward_expectancy_bt,2022.2.4,Win32,59.95922773,Chrome,1440,810,,,a,1.7443,1,11,0,0,1,1,7,1,0,0,1,0,0,1,0,0,hexagon,circle,,,,,,,,,,,,,,,,,,,,,,,,,,,,,,,,,,,,,,,,,,,,,,,,,,,,,,
295543,2022-11-29_10h49.34.360,vts_reward_expectancy_bt,2022.2.4,Win32,59.95922773,Chrome,1440,810,,,a,0.9106,1,12,0,0,2,2,0,1,1,0,0,0,0,1,0,0,triangle,circle,,,,,,,,,,,,,,,,,,,,,,,,,,,,,,,,,,,,,,,,,,,,,,,,,,,,,,
295543,2022-11-29_10h49.34.360,vts_reward_expectancy_bt,2022.2.4,Win32,59.95922773,Chrome,1440,810,,,l,0.5111,1,13,0,0,3,3,4,1,0,1,0,0,0,0,1,0,circle,hexagon,,,,,,,,,,,,,,,,,,,,,,,,,,,,,,,,,,,,,,,,,,,,,,,,,,,,,,
295543,2022-11-29_10h49.34.360,vts_reward_expectancy_bt,2022.2.4,Win32,59.95922773,Chrome,1440,810,,,a,1.2879,1,14,0,0,4,4,10,1,0,0,0,1,0,1,0,0,star ,circle,,,,,,,,,,,,,,,,,,,,,,,,,,,,,,,,,,,,,,,,,,,,,,,,,,,,,,
295543,2022-11-29_10h49.34.360,vts_reward_expectancy_bt,2022.2.4,Win32,59.95922773,Chrome,1440,810,,,a,0.9142,10,24,0,0,5,5,11,1,0,0,0,1,0,0,1,0,star,hexagon,,,,,,,,,,,,,,,,,,,,,,,,,,,,,,,,,,,,,,,,,,,,,,,,,,,,,,
295543,2022-11-29_10h49.34.360,vts_reward_expectancy_bt,2022.2.4,Win32,59.95922773,Chrome,1440,810,,,l,3.4739,1,25,0,0,6,6,3,1,0,1,0,0,1,0,0,0,circle,triangle,,,,,,,,,,,,,,,,,,,,,,,,,,,,,,,,,,,,,,,,,,,,,,,,,,,,,,
295543,2022-11-29_10h49.34.360,vts_reward_expectancy_bt,2022.2.4,Win32,59.95922773,Chrome,1440,810,,,a,2.7654,1,26,0,0,7,7,8,1,0,0,1,0,0,0,0,1,hexagon,star,,,,,,,,,,,,,,,,,,,,,,,,,,,,,,,,,,,,,,,,,,,,,,,,,,,,,,
295543,2022-11-29_10h49.34.360,vts_reward_expectancy_bt,2022.2.4,Win32,59.95922773,Chrome,1440,810,,,a,1.7878,10,36,0,0,8,8,9,1,0,0,0,1,1,0,0,0,star,triangle,,,,,,,,,,,,,,,,,,,,,,,,,,,,,,,,,,,,,,,,,,,,,,,,,,,,,,
295543,2022-11-29_10h49.34.360,vts_reward_expectancy_bt,2022.2.4,Win32,59.95922773,Chrome,1440,810,,,a,2.1045,1,37,0,0,9,9,1,1,1,0,0,0,0,0,1,0,triangle,hexagon,,,,,,,,,,,,,,,,,,,,,,,,,,,,,,,,,,,,,,,,,,,,,,,,,,,,,,
295543,2022-11-29_10h49.34.360,vts_reward_expectancy_bt,2022.2.4,Win32,59.95922773,Chrome,1440,810,,,l,3.2126,10,47,0,0,10,10,2,1,1,0,0,0,0,0,0,1,triangle,star,,,,,,,,,,,,,,,,,,,,,,,,,,,,,,,,,,,,,,,,,,,,,,,,,,,,,,
295543,2022-11-29_10h49.34.360,vts_reward_expectancy_bt,2022.2.4,Win32,59.95922773,Chrome,1440,810,,,a,2.3097,1,48,0,0,11,11,6,1,0,0,1,0,1,0,0,0,hexagon,triangle,,,,,,,,,,,,,,,,,,,,,,,,,,,,,,,,,,,,,,,,,,,,,,,,,,,,,,
295543,2022-11-29_10h49.34.360,vts_reward_expectancy_bt,2022.2.4,Win32,59.95922773,Chrome,1440,810,,,a,1.9171,10,58,0,1,0,12,9,1,0,0,0,1,1,0,0,0,star,triangle,,,,,,,,,,,,,,,,,,,,,,,,,,,,,,,,,,,,,,,,,,,,,,,,,,,,,,
295543,2022-11-29_10h49.34.360,vts_reward_expectancy_bt,2022.2.4,Win32,59.95922773,Chrome,1440,810,,,l,0.9615,10,68,0,1,1,13,5,1,0,1,0,0,0,0,0,1,circle,star,,,,,,,,,,,,,,,,,,,,,,,,,,,,,,,,,,,,,,,,,,,,,,,,,,,,,,
295543,2022-11-29_10h49.34.360,vts_reward_expectancy_bt,2022.2.4,Win32,59.95922773,Chrome,1440,810,,,a,2.651,1,69,0,1,2,14,0,1,1,0,0,0,0,1,0,0,triangle,circle,,,,,,,,,,,,,,,,,,,,,,,,,,,,,,,,,,,,,,,,,,,,,,,,,,,,,,
295543,2022-11-29_10h49.34.360,vts_reward_expectancy_bt,2022.2.4,Win32,59.95922773,Chrome,1440,810,,,l,1.1852,1,70,0,1,3,15,1,1,1,0,0,0,0,0,1,0,triangle,hexagon,,,,,,,,,,,,,,,,,,,,,,,,,,,,,,,,,,,,,,,,,,,,,,,,,,,,,,
295543,2022-11-29_10h49.34.360,vts_reward_expectancy_bt,2022.2.4,Win32,59.95922773,Chrome,1440,810,,,l,1.4511,10,80,0,1,4,16,8,1,0,0,1,0,0,0,0,1,hexagon,star,,,,,,,,,,,,,,,,,,,,,,,,,,,,,,,,,,,,,,,,,,,,,,,,,,,,,,
295543,2022-11-29_10h49.34.360,vts_reward_expectancy_bt,2022.2.4,Win32,59.95922773,Chrome,1440,810,,,a,0.7059,10,90,0,1,5,17,11,1,0,0,0,1,0,0,1,0,star,hexagon,,,,,,,,,,,,,,,,,,,,,,,,,,,,,,,,,,,,,,,,,,,,,,,,,,,,,,
295543,2022-11-29_10h49.34.360,vts_reward_expectancy_bt,2022.2.4,Win32,59.95922773,Chrome,1440,810,,,a,1.5049,1,91,0,1,6,18,6,1,0,0,1,0,1,0,0,0,hexagon,triangle,,,,,,,,,,,,,,,,,,,,,,,,,,,,,,,,,,,,,,,,,,,,,,,,,,,,,,
295543,2022-11-29_10h49.34.360,vts_reward_expectancy_bt,2022.2.4,Win32,59.95922773,Chrome,1440,810,,,a,0.8229,1,92,0,1,7,19,10,1,0,0,0,1,0,1,0,0,star ,circle,,,,,,,,,,,,,,,,,,,,,,,,,,,,,,,,,,,,,,,,,,,,,,,,,,,,,,
295543,2022-11-29_10h49.34.360,vts_reward_expectancy_bt,2022.2.4,Win32,59.95922773,Chrome,1440,810,,,l,2.0457,10,102,0,1,8,20,7,1,0,0,1,0,0,1,0,0,hexagon,circle,,,,,,,,,,,,,,,,,,,,,,,,,,,,,,,,,,,,,,,,,,,,,,,,,,,,,,
295543,2022-11-29_10h49.34.360,vts_reward_expectancy_bt,2022.2.4,Win32,59.95922773,Chrome,1440,810,,,a,1.4175,10,112,0,1,9,21,3,1,0,1,0,0,1,0,0,0,circle,triangle,,,,,,,,,,,,,,,,,,,,,,,,,,,,,,,,,,,,,,,,,,,,,,,,,,,,,,
295543,2022-11-29_10h49.34.360,vts_reward_expectancy_bt,2022.2.4,Win32,59.95922773,Chrome,1440,810,,,a,0.8181,10,122,0,1,10,22,4,1,0,1,0,0,0,0,1,0,circle,hexagon,,,,,,,,,,,,,,,,,,,,,,,,,,,,,,,,,,,,,,,,,,,,,,,,,,,,,,
295543,2022-11-29_10h49.34.360,vts_reward_expectancy_bt,2022.2.4,Win32,59.95922773,Chrome,1440,810,,,l,1.1962,10,132,0,1,11,23,2,1,1,0,0,0,0,0,0,1,triangle,star,,,,,,,,,,,,,,,,,,,,,,,,,,,,,,,,,,,,,,,,,,,,,,,,,,,,,,
295543,2022-11-29_10h49.34.360,vts_reward_expectancy_bt,2022.2.4,Win32,59.95922773,Chrome,1440,810,,,l,1.2676,10,142,0,2,0,24,2,1,1,0,0,0,0,0,0,1,triangle,star,,,,,,,,,,,,,,,,,,,,,,,,,,,,,,,,,,,,,,,,,,,,,,,,,,,,,,
295543,2022-11-29_10h49.34.360,vts_reward_expectancy_bt,2022.2.4,Win32,59.95922773,Chrome,1440,810,,,a,0.8261,10,152,0,2,1,25,11,1,0,0,0,1,0,0,1,0,star,hexagon,,,,,,,,,,,,,,,,,,,,,,,,,,,,,,,,,,,,,,,,,,,,,,,,,,,,,,
295543,2022-11-29_10h49.34.360,vts_reward_expectancy_bt,2022.2.4,Win32,59.95922773,Chrome,1440,810,,,a,2.1119,10,162,0,2,2,26,3,1,0,1,0,0,1,0,0,0,circle,triangle,,,,,,,,,,,,,,,,,,,,,,,,,,,,,,,,,,,,,,,,,,,,,,,,,,,,,,
295543,2022-11-29_10h49.34.360,vts_reward_expectancy_bt,2022.2.4,Win32,59.95922773,Chrome,1440,810,,,l,0.7507,10,172,0,2,3,27,0,1,1,0,0,0,0,1,0,0,triangle,circle,,,,,,,,,,,,,,,,,,,,,,,,,,,,,,,,,,,,,,,,,,,,,,,,,,,,,,
295543,2022-11-29_10h49.34.360,vts_reward_expectancy_bt,2022.2.4,Win32,59.95922773,Chrome,1440,810,,,l,0.9678,10,182,0,2,4,28,7,1,0,0,1,0,0,1,0,0,hexagon,circle,,,,,,,,,,,,,,,,,,,,,,,,,,,,,,,,,,,,,,,,,,,,,,,,,,,,,,
295543,2022-11-29_10h49.34.360,vts_reward_expectancy_bt,2022.2.4,Win32,59.95922773,Chrome,1440,810,,,a,1.2167,1,183,0,2,5,29,4,1,0,1,0,0,0,0,1,0,circle,hexagon,,,,,,,,,,,,,,,,,,,,,,,,,,,,,,,,,,,,,,,,,,,,,,,,,,,,,,
295543,2022-11-29_10h49.34.360,vts_reward_expectancy_bt,2022.2.4,Win32,59.95922773,Chrome,1440,810,,,l,0.7846,1,184,0,2,6,30,8,1,0,0,1,0,0,0,0,1,hexagon,star,,,,,,,,,,,,,,,,,,,,,,,,,,,,,,,,,,,,,,,,,,,,,,,,,,,,,,
295543,2022-11-29_10h49.34.360,vts_reward_expectancy_bt,2022.2.4,Win32,59.95922773,Chrome,1440,810,,,a,1.8278,10,194,0,2,7,31,5,1,0,1,0,0,0,0,0,1,circle,star,,,,,,,,,,,,,,,,,,,,,,,,,,,,,,,,,,,,,,,,,,,,,,,,,,,,,,
295543,2022-11-29_10h49.34.360,vts_reward_expectancy_bt,2022.2.4,Win32,59.95922773,Chrome,1440,810,,,a,1.4848,1,195,0,2,8,32,6,1,0,0,1,0,1,0,0,0,hexagon,triangle,,,,,,,,,,,,,,,,,,,,,,,,,,,,,,,,,,,,,,,,,,,,,,,,,,,,,,
295543,2022-11-29_10h49.34.360,vts_reward_expectancy_bt,2022.2.4,Win32,59.95922773,Chrome,1440,810,,,l,1.0105,10,205,0,2,9,33,10,1,0,0,0,1,0,1,0,0,star ,circle,,,,,,,,,,,,,,,,,,,,,,,,,,,,,,,,,,,,,,,,,,,,,,,,,,,,,,
295543,2022-11-29_10h49.34.360,vts_reward_expectancy_bt,2022.2.4,Win32,59.95922773,Chrome,1440,810,,,a,0.7068,10,215,0,2,10,34,9,1,0,0,0,1,1,0,0,0,star,triangle,,,,,,,,,,,,,,,,,,,,,,,,,,,,,,,,,,,,,,,,,,,,,,,,,,,,,,
295543,2022-11-29_10h49.34.360,vts_reward_expectancy_bt,2022.2.4,Win32,59.95922773,Chrome,1440,810,,,a,0.8166,1,216,0,2,11,35,1,1,1,0,0,0,0,0,1,0,triangle,hexagon,,,,,,,,,,,,,,,,,,,,,,,,,,,,,,,,,,,,,,,,,,,,,,,,,,,,,,
295543,2022-11-29_10h49.34.360,vts_reward_expectancy_bt,2022.2.4,Win32,59.95922773,Chrome,1440,810,,,l,0.8638,10,226,1,0,0,0,7,1,0,0,1,0,0,1,0,0,hexagon,circle,,,,,,,,,,,,,,,,,,,,,,,,,,,,,,,,,,,,,,,,,,,,,,,,,,,,,,
295543,2022-11-29_10h49.34.360,vts_reward_expectancy_bt,2022.2.4,Win32,59.95922773,Chrome,1440,810,,,a,0.6187,10,236,1,0,1,1,11,1,0,0,0,1,0,0,1,0,star,hexagon,,,,,,,,,,,,,,,,,,,,,,,,,,,,,,,,,,,,,,,,,,,,,,,,,,,,,,
295543,2022-11-29_10h49.34.360,vts_reward_expectancy_bt,2022.2.4,Win32,59.95922773,Chrome,1440,810,,,a,0.7338,10,246,1,0,2,2,3,1,0,1,0,0,1,0,0,0,circle,triangle,,,,,,,,,,,,,,,,,,,,,,,,,,,,,,,,,,,,,,,,,,,,,,,,,,,,,,
295543,2022-11-29_10h49.34.360,vts_reward_expectancy_bt,2022.2.4,Win32,59.95922773,Chrome,1440,810,,,a,0.6011,10,256,1,0,3,3,5,1,0,1,0,0,0,0,0,1,circle,star,,,,,,,,,,,,,,,,,,,,,,,,,,,,,,,,,,,,,,,,,,,,,,,,,,,,,,
295543,2022-11-29_10h49.34.360,vts_reward_expectancy_bt,2022.2.4,Win32,59.95922773,Chrome,1440,810,,,l,2.1925,10,266,1,0,4,4,1,1,1,0,0,0,0,0,1,0,triangle,hexagon,,,,,,,,,,,,,,,,,,,,,,,,,,,,,,,,,,,,,,,,,,,,,,,,,,,,,,
295543,2022-11-29_10h49.34.360,vts_reward_expectancy_bt,2022.2.4,Win32,59.95922773,Chrome,1440,810,,,a,1.2509,1,267,1,0,5,5,6,1,0,0,1,0,1,0,0,0,hexagon,triangle,,,,,,,,,,,,,,,,,,,,,,,,,,,,,,,,,,,,,,,,,,,,,,,,,,,,,,
295543,2022-11-29_10h49.34.360,vts_reward_expectancy_bt,2022.2.4,Win32,59.95922773,Chrome,1440,810,,,l,1.9325,10,277,1,0,6,6,8,1,0,0,1,0,0,0,0,1,hexagon,star,,,,,,,,,,,,,,,,,,,,,,,,,,,,,,,,,,,,,,,,,,,,,,,,,,,,,,
295543,2022-11-29_10h49.34.360,vts_reward_expectancy_bt,2022.2.4,Win32,59.95922773,Chrome,1440,810,,,l,1.2021,10,287,1,0,7,7,10,1,0,0,0,1,0,1,0,0,star ,circle,,,,,,,,,,,,,,,,,,,,,,,,,,,,,,,,,,,,,,,,,,,,,,,,,,,,,,
295543,2022-11-29_10h49.34.360,vts_reward_expectancy_bt,2022.2.4,Win32,59.95922773,Chrome,1440,810,,,l,4.2331,1,288,1,0,8,8,0,1,1,0,0,0,0,1,0,0,triangle,circle,,,,,,,,,,,,,,,,,,,,,,,,,,,,,,,,,,,,,,,,,,,,,,,,,,,,,,
295543,2022-11-29_10h49.34.360,vts_reward_expectancy_bt,2022.2.4,Win32,59.95922773,Chrome,1440,810,,,l,1.301,1,289,1,0,9,9,2,1,1,0,0,0,0,0,0,1,triangle,star,,,,,,,,,,,,,,,,,,,,,,,,,,,,,,,,,,,,,,,,,,,,,,,,,,,,,,
295543,2022-11-29_10h49.34.360,vts_reward_expectancy_bt,2022.2.4,Win32,59.95922773,Chrome,1440,810,,,a,0.8514,10,299,1,0,10,10,4,1,0,1,0,0,0,0,1,0,circle,hexagon,,,,,,,,,,,,,,,,,,,,,,,,,,,,,,,,,,,,,,,,,,,,,,,,,,,,,,
295543,2022-11-29_10h49.34.360,vts_reward_expectancy_bt,2022.2.4,Win32,59.95922773,Chrome,1440,810,,,a,0.7274,10,309,1,0,11,11,9,1,0,0,0,1,1,0,0,0,star,triangle,,,,,,,,,,,,,,,,,,,,,,,,,,,,,,,,,,,,,,,,,,,,,,,,,,,,,,
295543,2022-11-29_10h49.34.360,vts_reward_expectancy_bt,2022.2.4,Win32,59.95922773,Chrome,1440,810,,,l,0.7256,10,319,1,1,0,12,7,1,0,0,1,0,0,1,0,0,hexagon,circle,,,,,,,,,,,,,,,,,,,,,,,,,,,,,,,,,,,,,,,,,,,,,,,,,,,,,,
295543,2022-11-29_10h49.34.360,vts_reward_expectancy_bt,2022.2.4,Win32,59.95922773,Chrome,1440,810,,,l,0.839,10,329,1,1,1,13,8,1,0,0,1,0,0,0,0,1,hexagon,star,,,,,,,,,,,,,,,,,,,,,,,,,,,,,,,,,,,,,,,,,,,,,,,,,,,,,,
295543,2022-11-29_10h49.34.360,vts_reward_expectancy_bt,2022.2.4,Win32,59.95922773,Chrome,1440,810,,,a,0.7244,10,339,1,1,2,14,3,1,0,1,0,0,1,0,0,0,circle,triangle,,,,,,,,,,,,,,,,,,,,,,,,,,,,,,,,,,,,,,,,,,,,,,,,,,,,,,
295543,2022-11-29_10h49.34.360,vts_reward_expectancy_bt,2022.2.4,Win32,59.95922773,Chrome,1440,810,,,a,1.1189,1,340,1,1,3,15,11,1,0,0,0,1,0,0,1,0,star,hexagon,,,,,,,,,,,,,,,,,,,,,,,,,,,,,,,,,,,,,,,,,,,,,,,,,,,,,,
295543,2022-11-29_10h49.34.360,vts_reward_expectancy_bt,2022.2.4,Win32,59.95922773,Chrome,1440,810,,,l,0.9836,1,341,1,1,4,16,2,1,1,0,0,0,0,0,0,1,triangle,star,,,,,,,,,,,,,,,,,,,,,,,,,,,,,,,,,,,,,,,,,,,,,,,,,,,,,,
295543,2022-11-29_10h49.34.360,vts_reward_expectancy_bt,2022.2.4,Win32,59.95922773,Chrome,1440,810,,,a,0.6259,10,351,1,1,5,17,9,1,0,0,0,1,1,0,0,0,star,triangle,,,,,,,,,,,,,,,,,,,,,,,,,,,,,,,,,,,,,,,,,,,,,,,,,,,,,,
295543,2022-11-29_10h49.34.360,vts_reward_expectancy_bt,2022.2.4,Win32,59.95922773,Chrome,1440,810,,,a,0.6008,10,361,1,1,6,18,10,1,0,0,0,1,0,1,0,0,star ,circle,,,,,,,,,,,,,,,,,,,,,,,,,,,,,,,,,,,,,,,,,,,,,,,,,,,,,,
295543,2022-11-29_10h49.34.360,vts_reward_expectancy_bt,2022.2.4,Win32,59.95922773,Chrome,1440,810,,,a,0.7008,1,362,1,1,7,19,4,1,0,1,0,0,0,0,1,0,circle,hexagon,,,,,,,,,,,,,,,,,,,,,,,,,,,,,,,,,,,,,,,,,,,,,,,,,,,,,,
295543,2022-11-29_10h49.34.360,vts_reward_expectancy_bt,2022.2.4,Win32,59.95922773,Chrome,1440,810,,,l,0.8006,10,372,1,1,8,20,0,1,1,0,0,0,0,1,0,0,triangle,circle,,,,,,,,,,,,,,,,,,,,,,,,,,,,,,,,,,,,,,,,,,,,,,,,,,,,,,
295543,2022-11-29_10h49.34.360,vts_reward_expectancy_bt,2022.2.4,Win32,59.95922773,Chrome,1440,810,,,a,2.3106,1,373,1,1,9,21,1,1,1,0,0,0,0,0,1,0,triangle,hexagon,,,,,,,,,,,,,,,,,,,,,,,,,,,,,,,,,,,,,,,,,,,,,,,,,,,,,,
295543,2022-11-29_10h49.34.360,vts_reward_expectancy_bt,2022.2.4,Win32,59.95922773,Chrome,1440,810,,,l,1.3403,1,374,1,1,10,22,6,1,0,0,1,0,1,0,0,0,hexagon,triangle,,,,,,,,,,,,,,,,,,,,,,,,,,,,,,,,,,,,,,,,,,,,,,,,,,,,,,
295543,2022-11-29_10h49.34.360,vts_reward_expectancy_bt,2022.2.4,Win32,59.95922773,Chrome,1440,810,,,a,1.7666,10,384,1,1,11,23,5,1,0,1,0,0,0,0,0,1,circle,star,,,,,,,,,,,,,,,,,,,,,,,,,,,,,,,,,,,,,,,,,,,,,,,,,,,,,,
295543,2022-11-29_10h49.34.360,vts_reward_expectancy_bt,2022.2.4,Win32,59.95922773,Chrome,1440,810,,,a,1.4342,10,394,1,2,0,24,9,1,0,0,0,1,1,0,0,0,star,triangle,,,,,,,,,,,,,,,,,,,,,,,,,,,,,,,,,,,,,,,,,,,,,,,,,,,,,,
295543,2022-11-29_10h49.34.360,vts_reward_expectancy_bt,2022.2.4,Win32,59.95922773,Chrome,1440,810,,,a,1.3165,10,404,1,2,1,25,3,1,0,1,0,0,1,0,0,0,circle,triangle,,,,,,,,,,,,,,,,,,,,,,,,,,,,,,,,,,,,,,,,,,,,,,,,,,,,,,
295543,2022-11-29_10h49.34.360,vts_reward_expectancy_bt,2022.2.4,Win32,59.95922773,Chrome,1440,810,,,a,1.5205,10,414,1,2,2,26,5,1,0,1,0,0,0,0,0,1,circle,star,,,,,,,,,,,,,,,,,,,,,,,,,,,,,,,,,,,,,,,,,,,,,,,,,,,,,,
295543,2022-11-29_10h49.34.360,vts_reward_expectancy_bt,2022.2.4,Win32,59.95922773,Chrome,1440,810,,,l,0.7601,10,424,1,2,3,27,7,1,0,0,1,0,0,1,0,0,hexagon,circle,,,,,,,,,,,,,,,,,,,,,,,,,,,,,,,,,,,,,,,,,,,,,,,,,,,,,,
295543,2022-11-29_10h49.34.360,vts_reward_expectancy_bt,2022.2.4,Win32,59.95922773,Chrome,1440,810,,,a,0.8108,10,434,1,2,4,28,4,1,0,1,0,0,0,0,1,0,circle,hexagon,,,,,,,,,,,,,,,,,,,,,,,,,,,,,,,,,,,,,,,,,,,,,,,,,,,,,,
295543,2022-11-29_10h49.34.360,vts_reward_expectancy_bt,2022.2.4,Win32,59.95922773,Chrome,1440,810,,,l,0.9844,10,444,1,2,5,29,8,1,0,0,1,0,0,0,0,1,hexagon,star,,,,,,,,,,,,,,,,,,,,,,,,,,,,,,,,,,,,,,,,,,,,,,,,,,,,,,
295543,2022-11-29_10h49.34.360,vts_reward_expectancy_bt,2022.2.4,Win32,59.95922773,Chrome,1440,810,,,l,3.5366,1,445,1,2,6,30,0,1,1,0,0,0,0,1,0,0,triangle,circle,,,,,,,,,,,,,,,,,,,,,,,,,,,,,,,,,,,,,,,,,,,,,,,,,,,,,,
295543,2022-11-29_10h49.34.360,vts_reward_expectancy_bt,2022.2.4,Win32,59.95922773,Chrome,1440,810,,,a,3.2034,1,446,1,2,7,31,6,1,0,0,1,0,1,0,0,0,hexagon,triangle,,,,,,,,,,,,,,,,,,,,,,,,,,,,,,,,,,,,,,,,,,,,,,,,,,,,,,
295543,2022-11-29_10h49.34.360,vts_reward_expectancy_bt,2022.2.4,Win32,59.95922773,Chrome,1440,810,,,l,1.9012,10,456,1,2,8,32,10,1,0,0,0,1,0,1,0,0,star ,circle,,,,,,,,,,,,,,,,,,,,,,,,,,,,,,,,,,,,,,,,,,,,,,,,,,,,,,
295543,2022-11-29_10h49.34.360,vts_reward_expectancy_bt,2022.2.4,Win32,59.95922773,Chrome,1440,810,,,l,0.7013,10,466,1,2,9,33,2,1,1,0,0,0,0,0,0,1,triangle,star,,,,,,,,,,,,,,,,,,,,,,,,,,,,,,,,,,,,,,,,,,,,,,,,,,,,,,
295543,2022-11-29_10h49.34.360,vts_reward_expectancy_bt,2022.2.4,Win32,59.95922773,Chrome,1440,810,,,l,2.3205,1,467,1,2,10,34,1,1,1,0,0,0,0,0,1,0,triangle,hexagon,,,,,,,,,,,,,,,,,,,,,,,,,,,,,,,,,,,,,,,,,,,,,,,,,,,,,,
295543,2022-11-29_10h49.34.360,vts_reward_expectancy_bt,2022.2.4,Win32,59.95922773,Chrome,1440,810,,,a,0.8953,10,477,1,2,11,35,11,1,0,0,0,1,0,0,1,0,star,hexagon,,,,,,,,,,,,,,,,,,,,,,,,,,,,,,,,,,,,,,,,,,,,,,,,,,,,,,
295543,2022-11-29_10h49.34.360,vts_reward_expectancy_bt,2022.2.4,Win32,59.95922773,Chrome,1440,810,,,l,3.1748,10,487,2,0,0,0,10,1,0,0,0,1,0,1,0,0,star ,circle,,,,,,,,,,,,,,,,,,,,,,,,,,,,,,,,,,,,,,,,,,,,,,,,,,,,,,
295543,2022-11-29_10h49.34.360,vts_reward_expectancy_bt,2022.2.4,Win32,59.95922773,Chrome,1440,810,,,a,1.3213,10,497,2,0,1,1,11,1,0,0,0,1,0,0,1,0,star,hexagon,,,,,,,,,,,,,,,,,,,,,,,,,,,,,,,,,,,,,,,,,,,,,,,,,,,,,,
295543,2022-11-29_10h49.34.360,vts_reward_expectancy_bt,2022.2.4,Win32,59.95922773,Chrome,1440,810,,,a,2.2002,1,498,2,0,2,2,6,1,0,0,1,0,1,0,0,0,hexagon,triangle,,,,,,,,,,,,,,,,,,,,,,,,,,,,,,,,,,,,,,,,,,,,,,,,,,,,,,
295543,2022-11-29_10h49.34.360,vts_reward_expectancy_bt,2022.2.4,Win32,59.95922773,Chrome,1440,810,,,a,0.7689,1,499,2,0,3,3,9,1,0,0,0,1,1,0,0,0,star,triangle,,,,,,,,,,,,,,,,,,,,,,,,,,,,,,,,,,,,,,,,,,,,,,,,,,,,,,
295543,2022-11-29_10h49.34.360,vts_reward_expectancy_bt,2022.2.4,Win32,59.95922773,Chrome,1440,810,,,l,0.984,10,509,2,0,4,4,8,1,0,0,1,0,0,0,0,1,hexagon,star,,,,,,,,,,,,,,,,,,,,,,,,,,,,,,,,,,,,,,,,,,,,,,,,,,,,,,
295543,2022-11-29_10h49.34.360,vts_reward_expectancy_bt,2022.2.4,Win32,59.95922773,Chrome,1440,810,,,a,1.5421,1,510,2,0,5,5,1,1,1,0,0,0,0,0,1,0,triangle,hexagon,,,,,,,,,,,,,,,,,,,,,,,,,,,,,,,,,,,,,,,,,,,,,,,,,,,,,,
295543,2022-11-29_10h49.34.360,vts_reward_expectancy_bt,2022.2.4,Win32,59.95922773,Chrome,1440,810,,,a,0.8924,10,520,2,0,6,6,4,1,0,1,0,0,0,0,1,0,circle,hexagon,,,,,,,,,,,,,,,,,,,,,,,,,,,,,,,,,,,,,,,,,,,,,,,,,,,,,,
295543,2022-11-29_10h49.34.360,vts_reward_expectancy_bt,2022.2.4,Win32,59.95922773,Chrome,1440,810,,,l,1.2667,10,530,2,0,7,7,0,1,1,0,0,0,0,1,0,0,triangle,circle,,,,,,,,,,,,,,,,,,,,,,,,,,,,,,,,,,,,,,,,,,,,,,,,,,,,,,
295543,2022-11-29_10h49.34.360,vts_reward_expectancy_bt,2022.2.4,Win32,59.95922773,Chrome,1440,810,,,l,0.8581,10,540,2,0,8,8,7,1,0,0,1,0,0,1,0,0,hexagon,circle,,,,,,,,,,,,,,,,,,,,,,,,,,,,,,,,,,,,,,,,,,,,,,,,,,,,,,
295543,2022-11-29_10h49.34.360,vts_reward_expectancy_bt,2022.2.4,Win32,59.95922773,Chrome,1440,810,,,a,0.6191,10,550,2,0,9,9,3,1,0,1,0,0,1,0,0,0,circle,triangle,,,,,,,,,,,,,,,,,,,,,,,,,,,,,,,,,,,,,,,,,,,,,,,,,,,,,,
295543,2022-11-29_10h49.34.360,vts_reward_expectancy_bt,2022.2.4,Win32,59.95922773,Chrome,1440,810,,,a,1.1383,10,560,2,0,10,10,5,1,0,1,0,0,0,0,0,1,circle,star,,,,,,,,,,,,,,,,,,,,,,,,,,,,,,,,,,,,,,,,,,,,,,,,,,,,,,
295543,2022-11-29_10h49.34.360,vts_reward_expectancy_bt,2022.2.4,Win32,59.95922773,Chrome,1440,810,,,l,0.8914,10,570,2,0,11,11,2,1,1,0,0,0,0,0,0,1,triangle,star,,,,,,,,,,,,,,,,,,,,,,,,,,,,,,,,,,,,,,,,,,,,,,,,,,,,,,
295543,2022-11-29_10h49.34.360,vts_reward_expectancy_bt,2022.2.4,Win32,59.95922773,Chrome,1440,810,,,l,1.3518,1,571,2,1,0,12,1,1,1,0,0,0,0,0,1,0,triangle,hexagon,,,,,,,,,,,,,,,,,,,,,,,,,,,,,,,,,,,,,,,,,,,,,,,,,,,,,,
295543,2022-11-29_10h49.34.360,vts_reward_expectancy_bt,2022.2.4,Win32,59.95922773,Chrome,1440,810,,,l,1.0151,1,572,2,1,1,13,4,1,0,1,0,0,0,0,1,0,circle,hexagon,,,,,,,,,,,,,,,,,,,,,,,,,,,,,,,,,,,,,,,,,,,,,,,,,,,,,,
295543,2022-11-29_10h49.34.360,vts_reward_expectancy_bt,2022.2.4,Win32,59.95922773,Chrome,1440,810,,,l,1.2355,10,582,2,1,2,14,10,1,0,0,0,1,0,1,0,0,star ,circle,,,,,,,,,,,,,,,,,,,,,,,,,,,,,,,,,,,,,,,,,,,,,,,,,,,,,,
295543,2022-11-29_10h49.34.360,vts_reward_expectancy_bt,2022.2.4,Win32,59.95922773,Chrome,1440,810,,,a,0.7178,10,592,2,1,3,15,9,1,0,0,0,1,1,0,0,0,star,triangle,,,,,,,,,,,,,,,,,,,,,,,,,,,,,,,,,,,,,,,,,,,,,,,,,,,,,,
295543,2022-11-29_10h49.34.360,vts_reward_expectancy_bt,2022.2.4,Win32,59.95922773,Chrome,1440,810,,,a,0.7557,10,602,2,1,4,16,3,1,0,1,0,0,1,0,0,0,circle,triangle,,,,,,,,,,,,,,,,,,,,,,,,,,,,,,,,,,,,,,,,,,,,,,,,,,,,,,
295543,2022-11-29_10h49.34.360,vts_reward_expectancy_bt,2022.2.4,Win32,59.95922773,Chrome,1440,810,,,a,0.9848,10,612,2,1,5,17,5,1,0,1,0,0,0,0,0,1,circle,star,,,,,,,,,,,,,,,,,,,,,,,,,,,,,,,,,,,,,,,,,,,,,,,,,,,,,,
295543,2022-11-29_10h49.34.360,vts_reward_expectancy_bt,2022.2.4,Win32,59.95922773,Chrome,1440,810,,,a,0.8014,10,622,2,1,6,18,11,1,0,0,0,1,0,0,1,0,star,hexagon,,,,,,,,,,,,,,,,,,,,,,,,,,,,,,,,,,,,,,,,,,,,,,,,,,,,,,
295543,2022-11-29_10h49.34.360,vts_reward_expectancy_bt,2022.2.4,Win32,59.95922773,Chrome,1440,810,,,l,0.8342,10,632,2,1,7,19,7,1,0,0,1,0,0,1,0,0,hexagon,circle,,,,,,,,,,,,,,,,,,,,,,,,,,,,,,,,,,,,,,,,,,,,,,,,,,,,,,
295543,2022-11-29_10h49.34.360,vts_reward_expectancy_bt,2022.2.4,Win32,59.95922773,Chrome,1440,810,,,l,0.7695,10,642,2,1,8,20,2,1,1,0,0,0,0,0,0,1,triangle,star,,,,,,,,,,,,,,,,,,,,,,,,,,,,,,,,,,,,,,,,,,,,,,,,,,,,,,
295543,2022-11-29_10h49.34.360,vts_reward_expectancy_bt,2022.2.4,Win32,59.95922773,Chrome,1440,810,,,a,1.8017,1,643,2,1,9,21,6,1,0,0,1,0,1,0,0,0,hexagon,triangle,,,,,,,,,,,,,,,,,,,,,,,,,,,,,,,,,,,,,,,,,,,,,,,,,,,,,,
295543,2022-11-29_10h49.34.360,vts_reward_expectancy_bt,2022.2.4,Win32,59.95922773,Chrome,1440,810,,,l,1.0133,1,644,2,1,10,22,0,1,1,0,0,0,0,1,0,0,triangle,circle,,,,,,,,,,,,,,,,,,,,,,,,,,,,,,,,,,,,,,,,,,,,,,,,,,,,,,
295543,2022-11-29_10h49.34.360,vts_reward_expectancy_bt,2022.2.4,Win32,59.95922773,Chrome,1440,810,,,l,1.1001,10,654,2,1,11,23,8,1,0,0,1,0,0,0,0,1,hexagon,star,,,,,,,,,,,,,,,,,,,,,,,,,,,,,,,,,,,,,,,,,,,,,,,,,,,,,,
295543,2022-11-29_10h49.34.360,vts_reward_expectancy_bt,2022.2.4,Win32,59.95922773,Chrome,1440,810,,,a,1.8184,1,655,2,2,0,24,6,1,0,0,1,0,1,0,0,0,hexagon,triangle,,,,,,,,,,,,,,,,,,,,,,,,,,,,,,,,,,,,,,,,,,,,,,,,,,,,,,
295543,2022-11-29_10h49.34.360,vts_reward_expectancy_bt,2022.2.4,Win32,59.95922773,Chrome,1440,810,,,a,1.3409,10,665,2,2,1,25,11,1,0,0,0,1,0,0,1,0,star,hexagon,,,,,,,,,,,,,,,,,,,,,,,,,,,,,,,,,,,,,,,,,,,,,,,,,,,,,,
295543,2022-11-29_10h49.34.360,vts_reward_expectancy_bt,2022.2.4,Win32,59.95922773,Chrome,1440,810,,,l,1.1927,10,675,2,2,2,26,8,1,0,0,1,0,0,0,0,1,hexagon,star,,,,,,,,,,,,,,,,,,,,,,,,,,,,,,,,,,,,,,,,,,,,,,,,,,,,,,
295543,2022-11-29_10h49.34.360,vts_reward_expectancy_bt,2022.2.4,Win32,59.95922773,Chrome,1440,810,,,l,1.5973,1,676,2,2,3,27,0,1,1,0,0,0,0,1,0,0,triangle,circle,,,,,,,,,,,,,,,,,,,,,,,,,,,,,,,,,,,,,,,,,,,,,,,,,,,,,,
295543,2022-11-29_10h49.34.360,vts_reward_expectancy_bt,2022.2.4,Win32,59.95922773,Chrome,1440,810,,,l,1.0171,10,686,2,2,4,28,2,1,1,0,0,0,0,0,0,1,triangle,star,,,,,,,,,,,,,,,,,,,,,,,,,,,,,,,,,,,,,,,,,,,,,,,,,,,,,,
295543,2022-11-29_10h49.34.360,vts_reward_expectancy_bt,2022.2.4,Win32,59.95922773,Chrome,1440,810,,,l,0.7277,10,696,2,2,5,29,7,1,0,0,1,0,0,1,0,0,hexagon,circle,,,,,,,,,,,,,,,,,,,,,,,,,,,,,,,,,,,,,,,,,,,,,,,,,,,,,,
295543,2022-11-29_10h49.34.360,vts_reward_expectancy_bt,2022.2.4,Win32,59.95922773,Chrome,1440,810,,,l,0.8993,1,697,2,2,6,30,10,1,0,0,0,1,0,1,0,0,star ,circle,,,,,,,,,,,,,,,,,,,,,,,,,,,,,,,,,,,,,,,,,,,,,,,,,,,,,,
295543,2022-11-29_10h49.34.360,vts_reward_expectancy_bt,2022.2.4,Win32,59.95922773,Chrome,1440,810,,,a,1.8512,10,707,2,2,7,31,3,1,0,1,0,0,1,0,0,0,circle,triangle,,,,,,,,,,,,,,,,,,,,,,,,,,,,,,,,,,,,,,,,,,,,,,,,,,,,,,
295543,2022-11-29_10h49.34.360,vts_reward_expectancy_bt,2022.2.4,Win32,59.95922773,Chrome,1440,810,,,a,0.8908,10,717,2,2,8,32,5,1,0,1,0,0,0,0,0,1,circle,star,,,,,,,,,,,,,,,,,,,,,,,,,,,,,,,,,,,,,,,,,,,,,,,,,,,,,,
295543,2022-11-29_10h49.34.360,vts_reward_expectancy_bt,2022.2.4,Win32,59.95922773,Chrome,1440,810,,,a,1.1733,10,727,2,2,9,33,9,1,0,0,0,1,1,0,0,0,star,triangle,,,,,,,,,,,,,,,,,,,,,,,,,,,,,,,,,,,,,,,,,,,,,,,,,,,,,,
295543,2022-11-29_10h49.34.360,vts_reward_expectancy_bt,2022.2.4,Win32,59.95922773,Chrome,1440,810,,,a,0.8501,10,737,2,2,10,34,4,1,0,1,0,0,0,0,1,0,circle,hexagon,,,,,,,,,,,,,,,,,,,,,,,,,,,,,,,,,,,,,,,,,,,,,,,,,,,,,,
295543,2022-11-29_10h49.34.360,vts_reward_expectancy_bt,2022.2.4,Win32,59.95922773,Chrome,1440,810,,,l,4.3738,1,738,2,2,11,35,1,1,1,0,0,0,0,0,1,0,triangle,hexagon,,,,,,,,,,,,,,,,,,,,,,,,,,,,,,,,,,,,,,,,,,,,,,,,,,,,,,
295543,2022-11-29_10h49.34.360,vts_reward_expectancy_bt,2022.2.4,Win32,59.95922773,Chrome,1440,810,,,,,,,,,,,,,,,,,,,,,,,S,167,circle,1,0,f,2.7667,0,0,0,0,0,1,,,,,,,,,,,,,,,,,,,,,,,,,,,,,,,,,,,,,,,,,
295543,2022-11-29_10h49.34.360,vts_reward_expectancy_bt,2022.2.4,Win32,59.95922773,Chrome,1440,810,,,,,,,,,,,,,,,,,,,,,,,Y,125,star,1,0,f,0.7106,0,1,0,1,0,1,,,,,,,,,,,,,,,,,,,,,,,,,,,,,,,,,,,,,,,,,
295543,2022-11-29_10h49.34.360,vts_reward_expectancy_bt,2022.2.4,Win32,59.95922773,Chrome,1440,810,,,,,,,,,,,,,,,,,,,,,,,D,146,hexagon,1,0,d,0.9086,0,2,0,2,0,1,,,,,,,,,,,,,,,,,,,,,,,,,,,,,,,,,,,,,,,,,
295543,2022-11-29_10h49.34.360,vts_reward_expectancy_bt,2022.2.4,Win32,59.95922773,Chrome,1440,810,,,,,,,,,,,,,,,,,,,,,,,H,181,triangle,1,0,d,1.2242,0,3,0,3,0,1,,,,,,,,,,,,,,,,,,,,,,,,,,,,,,,,,,,,,,,,,
295543,2022-11-29_10h49.34.360,vts_reward_expectancy_bt,2022.2.4,Win32,59.95922773,Chrome,1440,810,,,,,,,,,,,,,,,,,,,,,,,F,132,circle,1,0,d,0.7015,0,4,0,4,0,1,,,,,,,,,,,,,,,,,,,,,,,,,,,,,,,,,,,,,,,,,
295543,2022-11-29_10h49.34.360,vts_reward_expectancy_bt,2022.2.4,Win32,59.95922773,Chrome,1440,810,,,,,,,,,,,,,,,,,,,,,,,W,160,star,1,0,f,1.058,0,5,0,5,0,1,,,,,,,,,,,,,,,,,,,,,,,,,,,,,,,,,,,,,,,,,
295543,2022-11-29_10h49.34.360,vts_reward_expectancy_bt,2022.2.4,Win32,59.95922773,Chrome,1440,810,,,,,,,,,,,,,,,,,,,,,,,U,139,hexagon,1,0,f,1.1763,0,6,0,6,0,1,,,,,,,,,,,,,,,,,,,,,,,,,,,,,,,,,,,,,,,,,
295543,2022-11-29_10h49.34.360,vts_reward_expectancy_bt,2022.2.4,Win32,59.95922773,Chrome,1440,810,,,,,,,,,,,,,,,,,,,,,,,B,174,triangle,1,0,d,0.6762,0,7,0,7,0,1,,,,,,,,,,,,,,,,,,,,,,,,,,,,,,,,,,,,,,,,,
295543,2022-11-29_10h49.34.360,vts_reward_expectancy_bt,2022.2.4,Win32,59.95922773,Chrome,1440,810,,,,,,,,,,,,,,,,,,,,,,,S,167,circle,1,0,f,1.0857,0,8,0,8,0,1,,,,,,,,,,,,,,,,,,,,,,,,,,,,,,,,,,,,,,,,,
295543,2022-11-29_10h49.34.360,vts_reward_expectancy_bt,2022.2.4,Win32,59.95922773,Chrome,1440,810,,,,,,,,,,,,,,,,,,,,,,,Y,125,hexagon,1,0,f,0.8852,0,9,0,9,0,1,,,,,,,,,,,,,,,,,,,,,,,,,,,,,,,,,,,,,,,,,
295543,2022-11-29_10h49.34.360,vts_reward_expectancy_bt,2022.2.4,Win32,59.95922773,Chrome,1440,810,,,,,,,,,,,,,,,,,,,,,,,U,146,triangle,1,0,,,1,,,,,,j,1.6346,0,0,0,0,1,,,,,,,,,,,,,,,,,,,,,,,,,,,,,,,,,,
295543,2022-11-29_10h49.34.360,vts_reward_expectancy_bt,2022.2.4,Win32,59.95922773,Chrome,1440,810,,,,,,,,,,,,,,,,,,,,,,,S,167,circle,1,0,,,1,,,,,,k,1.3637,1,0,1,0,1,,,,,,,,,,,,,,,,,,,,,,,,,,,,,,,,,,
295543,2022-11-29_10h49.34.360,vts_reward_expectancy_bt,2022.2.4,Win32,59.95922773,Chrome,1440,810,,,,,,,,,,,,,,,,,,,,,,,Y,174,star,1,0,,,1,,,,,,k,2.4952,2,0,2,0,1,,,,,,,,,,,,,,,,,,,,,,,,,,,,,,,,,,
295543,2022-11-29_10h49.34.360,vts_reward_expectancy_bt,2022.2.4,Win32,59.95922773,Chrome,1440,810,,,,,,,,,,,,,,,,,,,,,,,H,160,hexagon,1,0,,,1,,,,,,k,0.6643,3,0,3,0,1,,,,,,,,,,,,,,,,,,,,,,,,,,,,,,,,,,
295543,2022-11-29_10h49.34.360,vts_reward_expectancy_bt,2022.2.4,Win32,59.95922773,Chrome,1440,810,,,,,,,,,,,,,,,,,,,,,,,B,181,triangle,1,0,,,1,,,,,,k,0.6984,4,0,4,0,1,,,,,,,,,,,,,,,,,,,,,,,,,,,,,,,,,,
295543,2022-11-29_10h49.34.360,vts_reward_expectancy_bt,2022.2.4,Win32,59.95922773,Chrome,1440,810,,,,,,,,,,,,,,,,,,,,,,,F,132,circle,1,0,,,1,,,,,,j,0.7897,5,0,5,0,1,,,,,,,,,,,,,,,,,,,,,,,,,,,,,,,,,,
295543,2022-11-29_10h49.34.360,vts_reward_expectancy_bt,2022.2.4,Win32,59.95922773,Chrome,1440,810,,,,,,,,,,,,,,,,,,,,,,,D,139,star,1,0,,,1,,,,,,j,0.9659,6,0,6,0,1,,,,,,,,,,,,,,,,,,,,,,,,,,,,,,,,,,
295543,2022-11-29_10h49.34.360,vts_reward_expectancy_bt,2022.2.4,Win32,59.95922773,Chrome,1440,810,,,,,,,,,,,,,,,,,,,,,,,W,125,hexagon,1,0,,,1,,,,,,j,1.4644,7,0,7,0,1,,,,,,,,,,,,,,,,,,,,,,,,,,,,,,,,,,
295543,2022-11-29_10h49.34.360,vts_reward_expectancy_bt,2022.2.4,Win32,59.95922773,Chrome,1440,810,,,,,,,,,,,,,,,,,,,,,,,U,146,hexagon,1,0,,,1,,,,,,j,0.9058,8,0,8,0,1,,,,,,,,,,,,,,,,,,,,,,,,,,,,,,,,,,
295543,2022-11-29_10h49.34.360,vts_reward_expectancy_bt,2022.2.4,Win32,59.95922773,Chrome,1440,810,,,,,,,,,,,,,,,,,,,,,,,S,167,triangle,1,0,,,1,,,,,,k,1.1062,9,0,9,0,1,,,,,,,,,,,,,,,,,,,,,,,,,,,,,,,,,,
295543,2022-11-29_10h49.34.360,vts_reward_expectancy_bt,2022.2.4,Win32,59.95922773,Chrome,1440,810,,,,,0,738,,,,,,,,,,,,,,,,,W,167,hexagon,-1,0,,,2,,,,,,,,,,,,,-1,no_choice,NA,,vtsPrac,0,0,0,0,1,,,,,,,,,,,,,,,,,,,,,,,,
295543,2022-11-29_10h49.34.360,vts_reward_expectancy_bt,2022.2.4,Win32,59.95922773,Chrome,1440,810,,,,,0,738,,,,,,,,,,,,,,,,,U,181,star,1,0,,,2,,,,,,,,,,,,,switch,number,numSwt,k,vtsPrac,1,0,1,0,1,1.1124,,,,,,,,,,,,,,,,,,,,,,,
295543,2022-11-29_10h49.34.360,vts_reward_expectancy_bt,2022.2.4,Win32,59.95922773,Chrome,1440,810,,,,,0,738,,,,,,,,,,,,,,,,,Y,160,hexagon,1,0,,,2,,,,,,,,,,,,,repeat,number,numRpt,k,vtsPrac,2,0,2,0,1,1.0552,,,,,,,,,,,,,,,,,,,,,,,
295543,2022-11-29_10h49.34.360,vts_reward_expectancy_bt,2022.2.4,Win32,59.95922773,Chrome,1440,810,,,,,0,738,,,,,,,,,,,,,,,,,H,139,star,1,0,,,2,,,,,,,,,,,,,switch,letter,lettSwt,d,vtsPrac,3,0,3,0,1,0.822,,,,,,,,,,,,,,,,,,,,,,,
295543,2022-11-29_10h49.34.360,vts_reward_expectancy_bt,2022.2.4,Win32,59.95922773,Chrome,1440,810,,,,,0,738,,,,,,,,,,,,,,,,,W,167,circle,1,0,,,2,,,,,,,,,,,,,repeat,letter,lettRpt,f,vtsPrac,4,0,4,0,1,1.0546,,,,,,,,,,,,,,,,,,,,,,,
295543,2022-11-29_10h49.34.360,vts_reward_expectancy_bt,2022.2.4,Win32,59.95922773,Chrome,1440,810,,,,,0,738,,,,,,,,,,,,,,,,,U,181,hexagon,1,0,,,2,,,,,,,,,,,,,switch,number,numSwt,k,vtsPrac,5,0,5,0,1,1.1182,,,,,,,,,,,,,,,,,,,,,,,
295543,2022-11-29_10h49.34.360,vts_reward_expectancy_bt,2022.2.4,Win32,59.95922773,Chrome,1440,810,,,,,0,738,,,,,,,,,,,,,,,,,Y,160,star,1,0,,,2,,,,,,,,,,,,,switch,letter,lettSwt,f,vtsPrac,6,0,6,0,1,2.064,,,,,,,,,,,,,,,,,,,,,,,
295543,2022-11-29_10h49.34.360,vts_reward_expectancy_bt,2022.2.4,Win32,59.95922773,Chrome,1440,810,,,,,0,738,,,,,,,,,,,,,,,,,H,139,triangle,1,0,,,2,,,,,,,,,,,,,switch,number,numSwt,j,vtsPrac,7,0,7,0,1,1.4221,,,,,,,,,,,,,,,,,,,,,,,
295543,2022-11-29_10h49.34.360,vts_reward_expectancy_bt,2022.2.4,Win32,59.95922773,Chrome,1440,810,,,,,0,738,,,,,,,,,,,,,,,,,F,146,hexagon,1,0,,,2,,,,,,,,,,,,,switch,letter,lettSwt,d,vtsPrac,8,0,8,0,1,1.431,,,,,,,,,,,,,,,,,,,,,,,
295543,2022-11-29_10h49.34.360,vts_reward_expectancy_bt,2022.2.4,Win32,59.95922773,Chrome,1440,810,,,,,0,738,,,,,,,,,,,,,,,,,Y,132,triangle,0,0,,,2,,,,,,,,,,,,,switch,number,NA,k,vtsPrac,9,0,9,0,1,1.9737,,,,,,,,,,,,,,,,,,,,,,,
295543,2022-11-29_10h49.34.360,vts_reward_expectancy_bt,2022.2.4,Win32,59.95922773,Chrome,1440,810,,,,,0,738,,,,,,,,,,,,,,,,,B,167,star,1,1,,,2,,,,,,,,,,,,,switch,letter,lettSwt,d,vtsPrac,10,0,10,0,1,2.0976,,,,,,,,,,,,,,,,,,,,,,,
295543,2022-11-29_10h49.34.360,vts_reward_expectancy_bt,2022.2.4,Win32,59.95922773,Chrome,1440,810,,,,,0,738,,,,,,,,,,,,,,,,,H,125,triangle,1,0,,,2,,,,,,,,,,,,,repeat,letter,lettRpt,d,vtsPrac,11,0,11,0,1,2.0814,,,,,,,,,,,,,,,,,,,,,,,
295543,2022-11-29_10h49.34.360,vts_reward_expectancy_bt,2022.2.4,Win32,59.95922773,Chrome,1440,810,,,,,0,738,,,,,,,,,,,,,,,,,S,139,triangle,1,0,,,2,,,,,,,,,,,,,switch,number,numSwt,j,vtsPrac,12,0,12,0,1,1.1708,,,,,,,,,,,,,,,,,,,,,,,
295543,2022-11-29_10h49.34.360,vts_reward_expectancy_bt,2022.2.4,Win32,59.95922773,Chrome,1440,810,,,,,0,738,,,,,,,,,,,,,,,,,U,174,star,1,0,,,2,,,,,,,,,,,,,switch,letter,lettSwt,f,vtsPrac,13,0,13,0,1,1.9903,,,,,,,,,,,,,,,,,,,,,,,
295543,2022-11-29_10h49.34.360,vts_reward_expectancy_bt,2022.2.4,Win32,59.95922773,Chrome,1440,810,,,,,0,738,,,,,,,,,,,,,,,,,W,146,circle,1,0,,,2,,,,,,,,,,,,,switch,number,numSwt,j,vtsPrac,14,0,14,0,1,2.3304,,,,,,,,,,,,,,,,,,,,,,,
295543,2022-11-29_10h49.34.360,vts_reward_expectancy_bt,2022.2.4,Win32,59.95922773,Chrome,1440,810,,,,,0,738,,,,,,,,,,,,,,,,,Y,125,star,1,0,,,2,,,,,,,,,,,,,repeat,number,numRpt,j,vtsPrac,15,0,15,0,1,0.803,,,,,,,,,,,,,,,,,,,,,,,
295543,2022-11-29_10h49.34.360,vts_reward_expectancy_bt,2022.2.4,Win32,59.95922773,Chrome,1440,810,,,,,0,738,,,,,,,,,,,,,,,,,D,139,circle,1,0,,,2,,,,,,,,,,,,,switch,letter,lettSwt,d,vtsPrac,16,0,16,0,1,1.4301,,,,,,,,,,,,,,,,,,,,,,,
295543,2022-11-29_10h49.34.360,vts_reward_expectancy_bt,2022.2.4,Win32,59.95922773,Chrome,1440,810,,,,,0,738,,,,,,,,,,,,,,,,,B,174,star,1,0,,,2,,,,,,,,,,,,,switch,number,numSwt,k,vtsPrac,17,0,17,0,1,1.0383,,,,,,,,,,,,,,,,,,,,,,,
295543,2022-11-29_10h49.34.360,vts_reward_expectancy_bt,2022.2.4,Win32,59.95922773,Chrome,1440,810,,,,,0,738,,,,,,,,,,,,,,,,,W,125,hexagon,1,0,,,2,,,,,,,,,,,,,repeat,number,numRpt,j,vtsPrac,18,0,18,0,1,1.5155,,,,,,,,,,,,,,,,,,,,,,,
295543,2022-11-29_10h49.34.360,vts_reward_expectancy_bt,2022.2.4,Win32,59.95922773,Chrome,1440,810,,,,,0,738,,,,,,,,,,,,,,,,,S,160,circle,0,0,,,2,,,,,,,,,,,,,switch,letter,NA,d,vtsPrac,19,0,19,0,1,1.7864,,,,,,,,,,,,,,,,,,,,,,,
295543,2022-11-29_10h49.34.360,vts_reward_expectancy_bt,2022.2.4,Win32,59.95922773,Chrome,1440,810,,,,,0,738,,,,,,,,,,,,,,,,,Y,181,triangle,1,1,,,2,,,,,,,,,,,,,switch,number,numSwt,k,vtsPrac,20,0,20,0,1,1.7309,,,,,,,,,,,,,,,,,,,,,,,
295543,2022-11-29_10h49.34.360,vts_reward_expectancy_bt,2022.2.4,Win32,59.95922773,Chrome,1440,810,,,,,0,738,,,,,,,,,,,,,,,,,B,146,star,1,0,,,2,,,,,,,,,,,,,switch,letter,lettSwt,d,vtsPrac,21,0,21,0,1,0.819,,,,,,,,,,,,,,,,,,,,,,,
295543,2022-11-29_10h49.34.360,vts_reward_expectancy_bt,2022.2.4,Win32,59.95922773,Chrome,1440,810,,,,,0,738,,,,,,,,,,,,,,,,,H,167,hexagon,1,0,,,2,,,,,,,,,,,,,repeat,letter,lettRpt,d,vtsPrac,22,0,22,0,1,2.2526,,,,,,,,,,,,,,,,,,,,,,,
295543,2022-11-29_10h49.34.360,vts_reward_expectancy_bt,2022.2.4,Win32,59.95922773,Chrome,1440,810,,,,,0,738,,,,,,,,,,,,,,,,,F,125,triangle,1,0,,,2,,,,,,,,,,,,,switch,number,numSwt,j,vtsPrac,23,0,23,0,1,2.0002,,,,,,,,,,,,,,,,,,,,,,,
295543,2022-11-29_10h49.34.360,vts_reward_expectancy_bt,2022.2.4,Win32,59.95922773,Chrome,1440,810,,,,,0,738,,,,,,,,,,,,,,,,,S,125,circle,1,0,,,2,,,,,,,,,,,,,switch,letter,lettSwt,f,vtsPrac,24,0,24,0,1,1.2325,,,,,,,,,,,,,,,,,,,,,,,
295543,2022-11-29_10h49.34.360,vts_reward_expectancy_bt,2022.2.4,Win32,59.95922773,Chrome,1440,810,,,,,0,738,,,,,,,,,,,,,,,,,F,160,star,1,0,,,2,,,,,,,,,,,,,repeat,letter,lettRpt,d,vtsPrac,25,0,25,0,1,0.9833,,,,,,,,,,,,,,,,,,,,,,,
295543,2022-11-29_10h49.34.360,vts_reward_expectancy_bt,2022.2.4,Win32,59.95922773,Chrome,1440,810,,,,,0,738,,,,,,,,,,,,,,,,,H,146,hexagon,1,0,,,2,,,,,,,,,,,,,switch,number,numSwt,j,vtsPrac,26,0,26,0,1,0.8853,,,,,,,,,,,,,,,,,,,,,,,
295543,2022-11-29_10h49.34.360,vts_reward_expectancy_bt,2022.2.4,Win32,59.95922773,Chrome,1440,810,,,,,0,738,,,,,,,,,,,,,,,,,Y,174,triangle,1,0,,,2,,,,,,,,,,,,,repeat,number,numRpt,k,vtsPrac,27,0,27,0,1,0.7641,,,,,,,,,,,,,,,,,,,,,,,
295543,2022-11-29_10h49.34.360,vts_reward_expectancy_bt,2022.2.4,Win32,59.95922773,Chrome,1440,810,,,,,0,738,,,,,,,,,,,,,,,,,F,174,hexagon,1,0,,,2,,,,,,,,,,,,,repeat,number,numRpt,k,vtsPrac,28,0,28,0,1,0.7582,,,,,,,,,,,,,,,,,,,,,,,
295543,2022-11-29_10h49.34.360,vts_reward_expectancy_bt,2022.2.4,Win32,59.95922773,Chrome,1440,810,,,,,0,738,,,,,,,,,,,,,,,,,H,167,star,1,0,,,2,,,,,,,,,,,,,switch,letter,lettSwt,d,vtsPrac,29,0,29,0,1,1.9144,,,,,,,,,,,,,,,,,,,,,,,
295543,2022-11-29_10h49.34.360,vts_reward_expectancy_bt,2022.2.4,Win32,59.95922773,Chrome,1440,810,,,,,0,738,,,,,,,,,,,,,,,,,D,125,circle,1,0,,,2,,,,,,,,,,,,,repeat,letter,lettRpt,d,vtsPrac,30,0,30,0,1,1.909,,,,,,,,,,,,,,,,,,,,,,,
295543,2022-11-29_10h49.34.360,vts_reward_expectancy_bt,2022.2.4,Win32,59.95922773,Chrome,1440,810,,,,,0,738,,,,,,,,,,,,,,,,,W,139,triangle,1,0,,,2,,,,,,,,,,,,,switch,number,numSwt,j,vtsPrac,31,0,31,0,1,0.6479,,,,,,,,,,,,,,,,,,,,,,,
295543,2022-11-29_10h49.34.360,vts_reward_expectancy_bt,2022.2.4,Win32,59.95922773,Chrome,1440,810,,,,,,,,,,,,,,,,,,,,,,,,,,,,,,,,,,,,,,,,,,,,,,,,,,,,,,,,,,,,,,,,,,,,,,,,,,,,
295543,2022-11-29_10h49.34.360,vts_reward_expectancy_bt,2022.2.4,Win32,59.95922773,Chrome,1440,810,,,,,,,,,,,,,,,,,,,,,,,,,,,,,,,,,,,,,,,,,,,,,,,,,,,,,,,,,,,,,,,,,,,,,,,,,,,,
295543,2022-11-29_10h49.34.360,vts_reward_expectancy_bt,2022.2.4,Win32,59.95922773,Chrome,1440,810,,,,,0,738,,,,,,,,,,,,,,,,,S,132,circle,-1,0,,,,,,,,,,,,,,,,switch,no_choice,NA,,noRew,,,,,,,0,0,0,0,0,1,,,,,,,,,,,,,,,,,
295543,2022-11-29_10h49.34.360,vts_reward_expectancy_bt,2022.2.4,Win32,59.95922773,Chrome,1440,810,,,,,0,738,,,,,,,,,,,,,,,,,B,139,hexagon,0,0,,,,,,,,,,,,,,,,switch,number,NA,k,noRew,,,,,,0.9152,0,1,0,1,0,1,,,,,,,,,,,,,,,,,
295543,2022-11-29_10h49.34.360,vts_reward_expectancy_bt,2022.2.4,Win32,59.95922773,Chrome,1440,810,,,,,0,738,,,,,,,,,,,,,,,,,D,160,circle,1,1,,,,,,,,,,,,,,,,switch,letter,lettSwt,d,noRew,,,,,,2.1839,0,2,0,2,0,1,,,,,,,,,,,,,,,,,
295543,2022-11-29_10h49.34.360,vts_reward_expectancy_bt,2022.2.4,Win32,59.95922773,Chrome,1440,810,,,,,0,738,,,,,,,,,,,,,,,,,W,125,hexagon,1,0,,,,,,,,,,,,,,,,repeat,letter,lettRpt,f,noRew,,,,,,2.4133,0,3,0,3,0,1,,,,,,,,,,,,,,,,,
295543,2022-11-29_10h49.34.360,vts_reward_expectancy_bt,2022.2.4,Win32,59.95922773,Chrome,1440,810,,,,,0,738,,,,,,,,,,,,,,,,,S,132,triangle,0,0,,,,,,,,,,,,,,,,switch,number,NA,k,noRew,,,,,,1.3481,0,4,0,4,0,1,,,,,,,,,,,,,,,,,
295543,2022-11-29_10h49.34.360,vts_reward_expectancy_bt,2022.2.4,Win32,59.95922773,Chrome,1440,810,,,,,0,738,,,,,,,,,,,,,,,,,B,139,star,1,1,,,,,,,,,,,,,,,,repeat,number,numRpt,j,noRew,,,,,,1.781,0,5,0,5,0,1,,,,,,,,,,,,,,,,,
295543,2022-11-29_10h49.34.360,vts_reward_expectancy_bt,2022.2.4,Win32,59.95922773,Chrome,1440,810,,,,,0,738,,,,,,,,,,,,,,,,,D,160,circle,1,0,,,,,,,,,,,,,,,,repeat,number,numRpt,k,noRew,,,,,,1.0974,0,6,0,6,0,1,,,,,,,,,,,,,,,,,
295543,2022-11-29_10h49.34.360,vts_reward_expectancy_bt,2022.2.4,Win32,59.95922773,Chrome,1440,810,,,,,0,738,,,,,,,,,,,,,,,,,W,125,star,1,0,,,,,,,,,,,,,,,,switch,letter,lettSwt,f,noRew,,,,,,2.8564,0,7,0,7,0,1,,,,,,,,,,,,,,,,,
295543,2022-11-29_10h49.34.360,vts_reward_expectancy_bt,2022.2.4,Win32,59.95922773,Chrome,1440,810,,,,,0,738,,,,,,,,,,,,,,,,,D,146,triangle,-1,0,,,,,,,,,,,,,,,,switch,no_choice,NA,,noRew,,,,,,,0,8,0,8,0,1,,,,,,,,,,,,,,,,,
295543,2022-11-29_10h49.34.360,vts_reward_expectancy_bt,2022.2.4,Win32,59.95922773,Chrome,1440,810,,,,,0,738,,,,,,,,,,,,,,,,,Y,181,star,1,0,,,,,,,,,,,,,,,,switch,letter,lettSwt,f,noRew,,,,,,1.479,0,9,0,9,0,1,,,,,,,,,,,,,,,,,
295543,2022-11-29_10h49.34.360,vts_reward_expectancy_bt,2022.2.4,Win32,59.95922773,Chrome,1440,810,,,,,0,738,,,,,,,,,,,,,,,,,B,160,circle,1,0,,,,,,,,,,,,,,,,switch,number,numSwt,k,noRew,,,,,,1.3994,0,10,0,10,0,1,,,,,,,,,,,,,,,,,
295543,2022-11-29_10h49.34.360,vts_reward_expectancy_bt,2022.2.4,Win32,59.95922773,Chrome,1440,810,,,,,0,738,,,,,,,,,,,,,,,,,H,174,triangle,1,0,,,,,,,,,,,,,,,,switch,letter,lettSwt,d,noRew,,,,,,1.3149,0,11,0,11,0,1,,,,,,,,,,,,,,,,,
295543,2022-11-29_10h49.34.360,vts_reward_expectancy_bt,2022.2.4,Win32,59.95922773,Chrome,1440,810,,,,,0,738,,,,,,,,,,,,,,,,,B,167,circle,1,0,,,,,,,,,,,,,,,,repeat,letter,lettRpt,d,noRew,,,,,,2.1224,0,12,0,12,0,1,,,,,,,,,,,,,,,,,
295543,2022-11-29_10h49.34.360,vts_reward_expectancy_bt,2022.2.4,Win32,59.95922773,Chrome,1440,810,,,,,0,738,,,,,,,,,,,,,,,,,U,146,triangle,0,0,,,,,,,,,,,,,,,,switch,number,NA,k,noRew,,,,,,2.7972,0,13,0,13,0,1,,,,,,,,,,,,,,,,,
295543,2022-11-29_10h49.34.360,vts_reward_expectancy_bt,2022.2.4,Win32,59.95922773,Chrome,1440,810,,,,,0,738,,,,,,,,,,,,,,,,,Y,174,hexagon,-1,1,,,,,,,,,,,,,,,,switch,no_choice,NA,,noRew,,,,,,,0,14,0,14,0,1,,,,,,,,,,,,,,,,,
295543,2022-11-29_10h49.34.360,vts_reward_expectancy_bt,2022.2.4,Win32,59.95922773,Chrome,1440,810,,,,,0,738,,,,,,,,,,,,,,,,,H,160,star,0,0,,,,,,,,,,,,,,,,switch,number,NA,j,noRew,,,,,,0.9665,0,15,0,15,0,1,,,,,,,,,,,,,,,,,
295543,2022-11-29_10h49.34.360,vts_reward_expectancy_bt,2022.2.4,Win32,59.95922773,Chrome,1440,810,,,,,0,738,,,,,,,,,,,,,,,,,W,174,circle,1,1,,,,,,,,,,,,,,,,repeat,number,numRpt,k,noRew,,,,,,1.0388,0,16,0,16,0,1,,,,,,,,,,,,,,,,,
295543,2022-11-29_10h49.34.360,vts_reward_expectancy_bt,2022.2.4,Win32,59.95922773,Chrome,1440,810,,,,,0,738,,,,,,,,,,,,,,,,,B,132,star,1,0,,,,,,,,,,,,,,,,repeat,number,numRpt,j,noRew,,,,,,1.4561,0,17,0,17,0,1,,,,,,,,,,,,,,,,,
295543,2022-11-29_10h49.34.360,vts_reward_expectancy_bt,2022.2.4,Win32,59.95922773,Chrome,1440,810,,,,,0,738,,,,,,,,,,,,,,,,,F,167,star,0,0,,,,,,,,,,,,,,,,switch,letter,NA,f,noRew,,,,,,1.0652,0,18,0,18,0,1,,,,,,,,,,,,,,,,,
295543,2022-11-29_10h49.34.360,vts_reward_expectancy_bt,2022.2.4,Win32,59.95922773,Chrome,1440,810,,,,,0,738,,,,,,,,,,,,,,,,,D,181,hexagon,1,1,,,,,,,,,,,,,,,,switch,number,numSwt,k,noRew,,,,,,1.3297,0,19,0,19,0,1,,,,,,,,,,,,,,,,,
295543,2022-11-29_10h49.34.360,vts_reward_expectancy_bt,2022.2.4,Win32,59.95922773,Chrome,1440,810,,,,,0,738,,,,,,,,,,,,,,,,,U,146,star,1,0,,,,,,,,,,,,,,,,repeat,number,numRpt,j,noRew,,,,,,0.8669,0,20,0,20,0,1,,,,,,,,,,,,,,,,,
295543,2022-11-29_10h49.34.360,vts_reward_expectancy_bt,2022.2.4,Win32,59.95922773,Chrome,1440,810,,,,,0,738,,,,,,,,,,,,,,,,,Y,132,hexagon,1,0,,,,,,,,,,,,,,,,switch,letter,lettSwt,f,noRew,,,,,,0.8478,0,21,0,21,0,1,,,,,,,,,,,,,,,,,
295543,2022-11-29_10h49.34.360,vts_reward_expectancy_bt,2022.2.4,Win32,59.95922773,Chrome,1440,810,,,,,0,738,,,,,,,,,,,,,,,,,W,167,star,1,0,,,,,,,,,,,,,,,,switch,number,numSwt,k,noRew,,,,,,1.0063,0,22,0,22,0,1,,,,,,,,,,,,,,,,,
295543,2022-11-29_10h49.34.360,vts_reward_expectancy_bt,2022.2.4,Win32,59.95922773,Chrome,1440,810,,,,,0,738,,,,,,,,,,,,,,,,,S,181,hexagon,1,0,,,,,,,,,,,,,,,,repeat,number,numRpt,k,noRew,,,,,,0.8303,0,23,0,23,0,1,,,,,,,,,,,,,,,,,
295543,2022-11-29_10h49.34.360,vts_reward_expectancy_bt,2022.2.4,Win32,59.95922773,Chrome,1440,810,,,,,0,738,,,,,,,,,,,,,,,,,D,132,circle,1,0,,,,,,,,,,,,,,,,switch,letter,lettSwt,d,noRew,,,,,,0.6346,0,24,0,24,0,1,,,,,,,,,,,,,,,,,
295543,2022-11-29_10h49.34.360,vts_reward_expectancy_bt,2022.2.4,Win32,59.95922773,Chrome,1440,810,,,,,0,738,,,,,,,,,,,,,,,,,S,160,triangle,1,0,,,,,,,,,,,,,,,,repeat,letter,lettRpt,f,noRew,,,,,,0.9539,0,25,0,25,0,1,,,,,,,,,,,,,,,,,
295543,2022-11-29_10h49.34.360,vts_reward_expectancy_bt,2022.2.4,Win32,59.95922773,Chrome,1440,810,,,,,0,738,,,,,,,,,,,,,,,,,B,181,triangle,1,0,,,,,,,,,,,,,,,,switch,number,numSwt,k,noRew,,,,,,0.8972,0,26,0,26,0,1,,,,,,,,,,,,,,,,,
295543,2022-11-29_10h49.34.360,vts_reward_expectancy_bt,2022.2.4,Win32,59.95922773,Chrome,1440,810,,,,,0,738,,,,,,,,,,,,,,,,,W,167,star,1,0,,,,,,,,,,,,,,,,switch,letter,lettSwt,f,noRew,,,,,,0.8009,0,27,0,27,0,1,,,,,,,,,,,,,,,,,
295543,2022-11-29_10h49.34.360,vts_reward_expectancy_bt,2022.2.4,Win32,59.95922773,Chrome,1440,810,,,,,0,738,,,,,,,,,,,,,,,,,Y,167,hexagon,1,0,,,,,,,,,,,,,,,,switch,number,numSwt,k,noRew,,,,,,1.3316,0,28,0,28,0,1,,,,,,,,,,,,,,,,,
295543,2022-11-29_10h49.34.360,vts_reward_expectancy_bt,2022.2.4,Win32,59.95922773,Chrome,1440,810,,,,,0,738,,,,,,,,,,,,,,,,,D,139,star,1,0,,,,,,,,,,,,,,,,repeat,number,numRpt,j,noRew,,,,,,1.2311,0,29,0,29,0,1,,,,,,,,,,,,,,,,,
295543,2022-11-29_10h49.34.360,vts_reward_expectancy_bt,2022.2.4,Win32,59.95922773,Chrome,1440,810,,,,,0,738,,,,,,,,,,,,,,,,,W,146,star,1,0,,,,,,,,,,,,,,,,repeat,number,numRpt,j,noRew,,,,,,0.8977,0,30,0,30,0,1,,,,,,,,,,,,,,,,,
295543,2022-11-29_10h49.34.360,vts_reward_expectancy_bt,2022.2.4,Win32,59.95922773,Chrome,1440,810,,,,,0,738,,,,,,,,,,,,,,,,,H,181,triangle,1,0,,,,,,,,,,,,,,,,switch,letter,lettSwt,d,noRew,,,,,,1.2737,0,31,0,31,0,1,,,,,,,,,,,,,,,,,
295543,2022-11-29_10h49.34.360,vts_reward_expectancy_bt,2022.2.4,Win32,59.95922773,Chrome,1440,810,,,,,0,738,,,,,,,,,,,,,,,,,S,167,star,0,0,,,,,,,,,,,,,,,,switch,number,NA,j,noRew,,,,,,1.2644,0,32,0,32,0,1,,,,,,,,,,,,,,,,,
295543,2022-11-29_10h49.34.360,vts_reward_expectancy_bt,2022.2.4,Win32,59.95922773,Chrome,1440,810,,,,,0,738,,,,,,,,,,,,,,,,,F,146,hexagon,1,1,,,,,,,,,,,,,,,,switch,letter,lettSwt,d,noRew,,,,,,0.8812,0,33,0,33,0,1,,,,,,,,,,,,,,,,,
295543,2022-11-29_10h49.34.360,vts_reward_expectancy_bt,2022.2.4,Win32,59.95922773,Chrome,1440,810,,,,,0,738,,,,,,,,,,,,,,,,,Y,174,star,1,0,,,,,,,,,,,,,,,,repeat,letter,lettRpt,f,noRew,,,,,,1.3414,0,34,0,34,0,1,,,,,,,,,,,,,,,,,
295543,2022-11-29_10h49.34.360,vts_reward_expectancy_bt,2022.2.4,Win32,59.95922773,Chrome,1440,810,,,,,0,738,,,,,,,,,,,,,,,,,D,181,circle,1,0,,,,,,,,,,,,,,,,switch,number,numSwt,k,noRew,,,,,,1.5692,0,35,0,35,0,1,,,,,,,,,,,,,,,,,
295543,2022-11-29_10h49.34.360,vts_reward_expectancy_bt,2022.2.4,Win32,59.95922773,Chrome,1440,810,,,,,0,738,,,,,,,,,,,,,,,,,D,167,circle,1,0,,,,,,,,,,,,,,,,repeat,number,numRpt,k,noRew,,,,,,2.2906,0,36,0,36,0,1,,,,,,,,,,,,,,,,,
295543,2022-11-29_10h49.34.360,vts_reward_expectancy_bt,2022.2.4,Win32,59.95922773,Chrome,1440,810,,,,,0,738,,,,,,,,,,,,,,,,,Y,125,star,1,0,,,,,,,,,,,,,,,,repeat,number,numRpt,j,noRew,,,,,,1.7152,0,37,0,37,0,1,,,,,,,,,,,,,,,,,
295543,2022-11-29_10h49.34.360,vts_reward_expectancy_bt,2022.2.4,Win32,59.95922773,Chrome,1440,810,,,,,0,738,,,,,,,,,,,,,,,,,F,132,star,1,0,,,,,,,,,,,,,,,,repeat,number,numRpt,j,noRew,,,,,,2.6635,0,38,0,38,0,1,,,,,,,,,,,,,,,,,
295543,2022-11-29_10h49.34.360,vts_reward_expectancy_bt,2022.2.4,Win32,59.95922773,Chrome,1440,810,,,,,0,738,,,,,,,,,,,,,,,,,B,174,triangle,1,0,,,,,,,,,,,,,,,,switch,letter,lettSwt,d,noRew,,,,,,0.9473,0,39,0,39,0,1,,,,,,,,,,,,,,,,,
295543,2022-11-29_10h49.34.360,vts_reward_expectancy_bt,2022.2.4,Win32,59.95922773,Chrome,1440,810,,,,,0,738,,,,,,,,,,,,,,,,,U,125,triangle,1,0,,,,,,,,,,,,,,,,repeat,letter,lettRpt,f,noRew,,,,,,1.7311,0,40,0,40,0,1,,,,,,,,,,,,,,,,,
295543,2022-11-29_10h49.34.360,vts_reward_expectancy_bt,2022.2.4,Win32,59.95922773,Chrome,1440,810,,,,,0,738,,,,,,,,,,,,,,,,,W,146,star,1,0,,,,,,,,,,,,,,,,switch,number,numSwt,j,noRew,,,,,,1.3972,0,41,0,41,0,1,,,,,,,,,,,,,,,,,
295543,2022-11-29_10h49.34.360,vts_reward_expectancy_bt,2022.2.4,Win32,59.95922773,Chrome,1440,810,,,,,0,738,,,,,,,,,,,,,,,,,S,174,star,1,0,,,,,,,,,,,,,,,,repeat,number,numRpt,k,noRew,,,,,,1.7989,0,42,0,42,0,1,,,,,,,,,,,,,,,,,
295543,2022-11-29_10h49.34.360,vts_reward_expectancy_bt,2022.2.4,Win32,59.95922773,Chrome,1440,810,,,,,0,738,,,,,,,,,,,,,,,,,B,160,triangle,1,0,,,,,,,,,,,,,,,,switch,letter,lettSwt,d,noRew,,,,,,1.0302,0,43,0,43,0,1,,,,,,,,,,,,,,,,,
295543,2022-11-29_10h49.34.360,vts_reward_expectancy_bt,2022.2.4,Win32,59.95922773,Chrome,1440,810,,,,,0,738,,,,,,,,,,,,,,,,,U,167,circle,1,0,,,,,,,,,,,,,,,,switch,number,numSwt,k,noRew,,,,,,2.1845,0,44,0,44,0,1,,,,,,,,,,,,,,,,,
295543,2022-11-29_10h49.34.360,vts_reward_expectancy_bt,2022.2.4,Win32,59.95922773,Chrome,1440,810,,,,,0,738,,,,,,,,,,,,,,,,,H,125,star,1,0,,,,,,,,,,,,,,,,switch,letter,lettSwt,d,noRew,,,,,,2.3805,0,45,0,45,0,1,,,,,,,,,,,,,,,,,
295543,2022-11-29_10h49.34.360,vts_reward_expectancy_bt,2022.2.4,Win32,59.95922773,Chrome,1440,810,,,,,0,738,,,,,,,,,,,,,,,,,Y,146,triangle,1,0,,,,,,,,,,,,,,,,repeat,letter,lettRpt,f,noRew,,,,,,2.203,0,46,0,46,0,1,,,,,,,,,,,,,,,,,
295543,2022-11-29_10h49.34.360,vts_reward_expectancy_bt,2022.2.4,Win32,59.95922773,Chrome,1440,810,,,,,0,738,,,,,,,,,,,,,,,,,S,139,star,1,0,,,,,,,,,,,,,,,,repeat,letter,lettRpt,f,noRew,,,,,,0.9147,0,47,0,47,0,1,,,,,,,,,,,,,,,,,
295543,2022-11-29_10h49.34.360,vts_reward_expectancy_bt,2022.2.4,Win32,59.95922773,Chrome,1440,810,,,,,0,738,,,,,,,,,,,,,,,,,Y,181,star,1,0,,,,,,,,,,,,,,,,switch,number,numSwt,k,noRew,,,,,,0.9586,0,48,0,48,0,1,,,,,,,,,,,,,,,,,
295543,2022-11-29_10h49.34.360,vts_reward_expectancy_bt,2022.2.4,Win32,59.95922773,Chrome,1440,810,,,,,0,738,,,,,,,,,,,,,,,,,D,160,circle,0,0,,,,,,,,,,,,,,,,switch,letter,NA,f,noRew,,,,,,1.6373,0,49,0,49,0,1,,,,,,,,,,,,,,,,,
295543,2022-11-29_10h49.34.360,vts_reward_expectancy_bt,2022.2.4,Win32,59.95922773,Chrome,1440,810,,,,,0,738,,,,,,,,,,,,,,,,,W,132,circle,1,1,,,,,,,,,,,,,,,,switch,number,numSwt,j,noRew,,,,,,2.2239,0,50,0,50,0,1,,,,,,,,,,,,,,,,,
295543,2022-11-29_10h49.34.360,vts_reward_expectancy_bt,2022.2.4,Win32,59.95922773,Chrome,1440,810,,,,,0,738,,,,,,,,,,,,,,,,,F,167,hexagon,1,0,,,,,,,,,,,,,,,,repeat,number,numRpt,k,noRew,,,,,,1.729,0,51,0,51,0,1,,,,,,,,,,,,,,,,,
295543,2022-11-29_10h49.34.360,vts_reward_expectancy_bt,2022.2.4,Win32,59.95922773,Chrome,1440,810,,,,,0,738,,,,,,,,,,,,,,,,,B,181,circle,1,0,,,,,,,,,,,,,,,,switch,letter,lettSwt,d,noRew,,,,,,1.6652,0,52,0,52,0,1,,,,,,,,,,,,,,,,,
295543,2022-11-29_10h49.34.360,vts_reward_expectancy_bt,2022.2.4,Win32,59.95922773,Chrome,1440,810,,,,,0,738,,,,,,,,,,,,,,,,,S,160,star,1,0,,,,,,,,,,,,,,,,switch,number,numSwt,k,noRew,,,,,,2.1637,0,53,0,53,0,1,,,,,,,,,,,,,,,,,
295543,2022-11-29_10h49.34.360,vts_reward_expectancy_bt,2022.2.4,Win32,59.95922773,Chrome,1440,810,,,,,0,738,,,,,,,,,,,,,,,,,U,125,triangle,0,0,,,,,,,,,,,,,,,,switch,letter,NA,d,noRew,,,,,,1.9888,0,54,0,54,0,1,,,,,,,,,,,,,,,,,
295543,2022-11-29_10h49.34.360,vts_reward_expectancy_bt,2022.2.4,Win32,59.95922773,Chrome,1440,810,,,,,0,738,,,,,,,,,,,,,,,,,W,167,star,1,1,,,,,,,,,,,,,,,,repeat,letter,lettRpt,f,noRew,,,,,,1.7151,0,55,0,55,0,1,,,,,,,,,,,,,,,,,
295543,2022-11-29_10h49.34.360,vts_reward_expectancy_bt,2022.2.4,Win32,59.95922773,Chrome,1440,810,,,,,0,738,,,,,,,,,,,,,,,,,W,160,triangle,1,0,,,,,,,,,,,,,,,,switch,number,numSwt,k,noRew,,,,,,1.5923,0,56,0,56,0,1,,,,,,,,,,,,,,,,,
295543,2022-11-29_10h49.34.360,vts_reward_expectancy_bt,2022.2.4,Win32,59.95922773,Chrome,1440,810,,,,,0,738,,,,,,,,,,,,,,,,,U,132,star,0,0,,,,,,,,,,,,,,,,switch,letter,NA,d,noRew,,,,,,1.8047,0,57,0,57,0,1,,,,,,,,,,,,,,,,,
295543,2022-11-29_10h49.34.360,vts_reward_expectancy_bt,2022.2.4,Win32,59.95922773,Chrome,1440,810,,,,,0,738,,,,,,,,,,,,,,,,,S,139,circle,1,1,,,,,,,,,,,,,,,,switch,number,numSwt,j,noRew,,,,,,1.1835,0,58,0,58,0,1,,,,,,,,,,,,,,,,,
295543,2022-11-29_10h49.34.360,vts_reward_expectancy_bt,2022.2.4,Win32,59.95922773,Chrome,1440,810,,,,,0,738,,,,,,,,,,,,,,,,,H,125,hexagon,0,0,,,,,,,,,,,,,,,,repeat,number,NA,k,noRew,,,,,,0.8381,0,59,0,59,0,1,,,,,,,,,,,,,,,,,
295543,2022-11-29_10h49.34.360,vts_reward_expectancy_bt,2022.2.4,Win32,59.95922773,Chrome,1440,810,,,,,0,738,,,,,,,,,,,,,,,,,W,167,circle,1,1,,,,,,,,,,,,,,,,switch,letter,lettSwt,f,noRew,,,,,,2.0075,0,60,0,60,0,1,,,,,,,,,,,,,,,,,
295543,2022-11-29_10h49.34.360,vts_reward_expectancy_bt,2022.2.4,Win32,59.95922773,Chrome,1440,810,,,,,0,738,,,,,,,,,,,,,,,,,F,160,star,1,0,,,,,,,,,,,,,,,,switch,number,numSwt,k,noRew,,,,,,1.4469,0,61,0,61,0,1,,,,,,,,,,,,,,,,,
295543,2022-11-29_10h49.34.360,vts_reward_expectancy_bt,2022.2.4,Win32,59.95922773,Chrome,1440,810,,,,,0,738,,,,,,,,,,,,,,,,,D,139,circle,1,0,,,,,,,,,,,,,,,,repeat,number,numRpt,j,noRew,,,,,,0.9314,0,62,0,62,0,1,,,,,,,,,,,,,,,,,
295543,2022-11-29_10h49.34.360,vts_reward_expectancy_bt,2022.2.4,Win32,59.95922773,Chrome,1440,810,,,,,0,738,,,,,,,,,,,,,,,,,H,125,triangle,1,0,,,,,,,,,,,,,,,,repeat,number,numRpt,j,noRew,,,,,,1.1569,0,63,0,63,0,1,,,,,,,,,,,,,,,,,
295543,2022-11-29_10h49.34.360,vts_reward_expectancy_bt,2022.2.4,Win32,59.95922773,Chrome,1440,810,,,,,,,,,,,,,,,,,,,,,,,,,,,,,,,,,,,,,,,,,,,,,,,,,,,,,,,,,,,,,,,,,,,,,,,,,,,,
295543,2022-11-29_10h49.34.360,vts_reward_expectancy_bt,2022.2.4,Win32,59.95922773,Chrome,1440,810,,,,,0,738,,,,,,,,,,,,,,,,,F,132,circle,1,0,,,,,,,,,,,,,,,,repeat,number,numRpt,j,Hi,,,,,,1.9728,0,,,,,,space,8.7675,high,0,0,0,0,1,,,,,,,,,
295543,2022-11-29_10h49.34.360,vts_reward_expectancy_bt,2022.2.4,Win32,59.95922773,Chrome,1440,810,,,,,0,738,,,,,,,,,,,,,,,,,W,174,star,1,0,,,,,,,,,,,,,,,,repeat,number,numRpt,k,Hi,,,,,,1.4663,0,,,,,,,,high,1,0,1,0,1,,,,,,,,,
295543,2022-11-29_10h49.34.360,vts_reward_expectancy_bt,2022.2.4,Win32,59.95922773,Chrome,1440,810,,,,,1,739,,,,,,,,,,,,,,,,,U,160,triangle,1,0,,,,,,,,,,,,,,,,repeat,number,numRpt,k,Lo,,,,,,1.1476,0,,,,,,,,high,2,0,2,0,1,,,,,,,,,
295543,2022-11-29_10h49.34.360,vts_reward_expectancy_bt,2022.2.4,Win32,59.95922773,Chrome,1440,810,,,,,10,749,,,,,,,,,,,,,,,,,D,146,hexagon,1,0,,,,,,,,,,,,,,,,switch,letter,lettSwt,d,Lo,,,,,,2.347,0,,,,,,,,high,3,0,3,0,1,,,,,,,,,
295543,2022-11-29_10h49.34.360,vts_reward_expectancy_bt,2022.2.4,Win32,59.95922773,Chrome,1440,810,,,,,1,750,,,,,,,,,,,,,,,,,B,181,circle,1,0,,,,,,,,,,,,,,,,repeat,letter,lettRpt,d,Hi,,,,,,1.1004,0,,,,,,,,high,4,0,4,0,1,,,,,,,,,
295543,2022-11-29_10h49.34.360,vts_reward_expectancy_bt,2022.2.4,Win32,59.95922773,Chrome,1440,810,,,,,10,760,,,,,,,,,,,,,,,,,Y,139,star,1,0,,,,,,,,,,,,,,,,switch,number,numSwt,j,Hi,,,,,,0.9638,0,,,,,,,,high,5,0,5,0,1,,,,,,,,,
295543,2022-11-29_10h49.34.360,vts_reward_expectancy_bt,2022.2.4,Win32,59.95922773,Chrome,1440,810,,,,,10,770,,,,,,,,,,,,,,,,,S,167,triangle,1,0,,,,,,,,,,,,,,,,switch,letter,lettSwt,f,Lo,,,,,,1.4476,0,,,,,,,,high,6,0,6,0,1,,,,,,,,,
295543,2022-11-29_10h49.34.360,vts_reward_expectancy_bt,2022.2.4,Win32,59.95922773,Chrome,1440,810,,,,,1,771,,,,,,,,,,,,,,,,,H,125,hexagon,1,0,,,,,,,,,,,,,,,,repeat,letter,lettRpt,d,Lo,,,,,,1.4307,0,,,,,,,,high,7,0,7,0,1,,,,,,,,,
295543,2022-11-29_10h49.34.360,vts_reward_expectancy_bt,2022.2.4,Win32,59.95922773,Chrome,1440,810,,,,,10,781,,,,,,,,,,,,,,,,,F,132,star,1,0,,,,,,,,,,,,,,,,switch,number,numSwt,j,Hi,,,,,,0.7647,0,,,,,,,,high,8,0,8,0,1,,,,,,,,,
295543,2022-11-29_10h49.34.360,vts_reward_expectancy_bt,2022.2.4,Win32,59.95922773,Chrome,1440,810,,,,,1,782,,,,,,,,,,,,,,,,,W,174,hexagon,1,0,,,,,,,,,,,,,,,,repeat,number,numRpt,k,Lo,,,,,,1.2193,0,,,,,,,,high,9,0,9,0,1,,,,,,,,,
295543,2022-11-29_10h49.34.360,vts_reward_expectancy_bt,2022.2.4,Win32,59.95922773,Chrome,1440,810,,,,,1,783,,,,,,,,,,,,,,,,,U,160,circle,1,0,,,,,,,,,,,,,,,,repeat,number,numRpt,k,Hi,,,,,,0.8312,0,,,,,,,,high,10,0,10,0,1,,,,,,,,,
295543,2022-11-29_10h49.34.360,vts_reward_expectancy_bt,2022.2.4,Win32,59.95922773,Chrome,1440,810,,,,,1,784,,,,,,,,,,,,,,,,,D,146,triangle,1,0,,,,,,,,,,,,,,,,repeat,number,numRpt,j,Lo,,,,,,1.117,0,,,,,,,,high,11,0,11,0,1,,,,,,,,,
295543,2022-11-29_10h49.34.360,vts_reward_expectancy_bt,2022.2.4,Win32,59.95922773,Chrome,1440,810,,,,,0,784,,,,,,,,,,,,,,,,,B,181,circle,1,0,,,,,,,,,,,,,,,,switch,letter,lettSwt,d,Hi,,,,,,1.3308,0,,,,,,,,high,12,0,12,0,1,,,,,,,,,
295543,2022-11-29_10h49.34.360,vts_reward_expectancy_bt,2022.2.4,Win32,59.95922773,Chrome,1440,810,,,,,1,785,,,,,,,,,,,,,,,,,Y,139,star,1,0,,,,,,,,,,,,,,,,repeat,letter,lettRpt,f,Hi,,,,,,0.9865,0,,,,,,,,high,13,0,13,0,1,,,,,,,,,
295543,2022-11-29_10h49.34.360,vts_reward_expectancy_bt,2022.2.4,Win32,59.95922773,Chrome,1440,810,,,,,1,786,,,,,,,,,,,,,,,,,S,167,hexagon,1,0,,,,,,,,,,,,,,,,switch,number,numSwt,k,Lo,,,,,,1.3053,0,,,,,,,,high,14,0,14,0,1,,,,,,,,,
295543,2022-11-29_10h49.34.360,vts_reward_expectancy_bt,2022.2.4,Win32,59.95922773,Chrome,1440,810,,,,,1,787,,,,,,,,,,,,,,,,,H,125,triangle,1,0,,,,,,,,,,,,,,,,switch,letter,lettSwt,d,Lo,,,,,,1.0645,0,,,,,,,,high,15,0,15,0,1,,,,,,,,,
295543,2022-11-29_10h49.34.360,vts_reward_expectancy_bt,2022.2.4,Win32,59.95922773,Chrome,1440,810,,,,,1,788,,,,,,,,,,,,,,,,,D,174,triangle,1,0,,,,,,,,,,,,,,,,switch,number,numSwt,k,Lo,,,,,,1.4519,0,,,,,,,,high,16,0,16,0,1,,,,,,,,,
295543,2022-11-29_10h49.34.360,vts_reward_expectancy_bt,2022.2.4,Win32,59.95922773,Chrome,1440,810,,,,,0,788,,,,,,,,,,,,,,,,,F,181,star,1,0,,,,,,,,,,,,,,,,switch,letter,lettSwt,d,Hi,,,,,,1.4805,0,,,,,,,,high,17,0,17,0,1,,,,,,,,,
295543,2022-11-29_10h49.34.360,vts_reward_expectancy_bt,2022.2.4,Win32,59.95922773,Chrome,1440,810,,,,,0,788,,,,,,,,,,,,,,,,,U,125,circle,0,0,,,,,,,,,,,,,,,,repeat,letter,NA,d,Hi,,,,,,1.6236,0,,,,,,,,high,18,0,18,0,1,,,,,,,,,
295543,2022-11-29_10h49.34.360,vts_reward_expectancy_bt,2022.2.4,Win32,59.95922773,Chrome,1440,810,,,,,1,789,,,,,,,,,,,,,,,,,Y,160,hexagon,1,1,,,,,,,,,,,,,,,,switch,number,numSwt,k,Lo,,,,,,2.2983,0,,,,,,,,high,19,0,19,0,1,,,,,,,,,
295543,2022-11-29_10h49.34.360,vts_reward_expectancy_bt,2022.2.4,Win32,59.95922773,Chrome,1440,810,,,,,0,789,,,,,,,,,,,,,,,,,S,146,circle,1,0,,,,,,,,,,,,,,,,repeat,number,numRpt,j,Hi,,,,,,1.4194,0,,,,,,,,high,20,0,20,0,1,,,,,,,,,
295543,2022-11-29_10h49.34.360,vts_reward_expectancy_bt,2022.2.4,Win32,59.95922773,Chrome,1440,810,,,,,1,790,,,,,,,,,,,,,,,,,B,167,hexagon,1,0,,,,,,,,,,,,,,,,switch,letter,lettSwt,d,Lo,,,,,,0.9411,0,,,,,,,,high,21,0,21,0,1,,,,,,,,,
295543,2022-11-29_10h49.34.360,vts_reward_expectancy_bt,2022.2.4,Win32,59.95922773,Chrome,1440,810,,,,,10,800,,,,,,,,,,,,,,,,,W,132,triangle,1,0,,,,,,,,,,,,,,,,switch,number,numSwt,j,Lo,,,,,,0.6654,0,,,,,,,,high,22,0,22,0,1,,,,,,,,,
295543,2022-11-29_10h49.34.360,vts_reward_expectancy_bt,2022.2.4,Win32,59.95922773,Chrome,1440,810,,,,,1,801,,,,,,,,,,,,,,,,,H,139,star,1,0,,,,,,,,,,,,,,,,repeat,number,numRpt,j,Hi,,,,,,0.8024,0,,,,,,,,high,23,0,23,0,1,,,,,,,,,
295543,2022-11-29_10h49.34.360,vts_reward_expectancy_bt,2022.2.4,Win32,59.95922773,Chrome,1440,810,,,,,0,801,,,,,,,,,,,,,,,,,S,167,hexagon,0,0,,,,,,,,,,,,,,,,switch,letter,NA,d,Hi,,,,,,0.6639,0,,,,,,,,high,24,0,24,0,1,,,,,,,,,
295543,2022-11-29_10h49.34.360,vts_reward_expectancy_bt,2022.2.4,Win32,59.95922773,Chrome,1440,810,,,,,10,811,,,,,,,,,,,,,,,,,U,174,circle,1,1,,,,,,,,,,,,,,,,repeat,letter,lettRpt,f,Hi,,,,,,0.9978,0,,,,,,,,high,25,0,25,0,1,,,,,,,,,
295543,2022-11-29_10h49.34.360,vts_reward_expectancy_bt,2022.2.4,Win32,59.95922773,Chrome,1440,810,,,,,1,812,,,,,,,,,,,,,,,,,D,139,triangle,1,0,,,,,,,,,,,,,,,,repeat,letter,lettRpt,d,Lo,,,,,,0.829,0,,,,,,,,high,26,0,26,0,1,,,,,,,,,
295543,2022-11-29_10h49.34.360,vts_reward_expectancy_bt,2022.2.4,Win32,59.95922773,Chrome,1440,810,,,,,10,822,,,,,,,,,,,,,,,,,H,125,star,1,0,,,,,,,,,,,,,,,,switch,number,numSwt,j,Hi,,,,,,0.9876,0,,,,,,,,high,27,0,27,0,1,,,,,,,,,
295543,2022-11-29_10h49.34.360,vts_reward_expectancy_bt,2022.2.4,Win32,59.95922773,Chrome,1440,810,,,,,1,823,,,,,,,,,,,,,,,,,Y,146,hexagon,1,0,,,,,,,,,,,,,,,,switch,letter,lettSwt,f,Lo,,,,,,1.3371,0,,,,,,,,high,28,0,28,0,1,,,,,,,,,
295543,2022-11-29_10h49.34.360,vts_reward_expectancy_bt,2022.2.4,Win32,59.95922773,Chrome,1440,810,,,,,1,824,,,,,,,,,,,,,,,,,W,181,triangle,1,0,,,,,,,,,,,,,,,,repeat,letter,lettRpt,f,Lo,,,,,,1.3886,0,,,,,,,,high,29,0,29,0,1,,,,,,,,,
295543,2022-11-29_10h49.34.360,vts_reward_expectancy_bt,2022.2.4,Win32,59.95922773,Chrome,1440,810,,,,,10,834,,,,,,,,,,,,,,,,,F,160,circle,1,0,,,,,,,,,,,,,,,,switch,number,numSwt,k,Hi,,,,,,0.9748,0,,,,,,,,high,30,0,30,0,1,,,,,,,,,
295543,2022-11-29_10h49.34.360,vts_reward_expectancy_bt,2022.2.4,Win32,59.95922773,Chrome,1440,810,,,,,0,834,,,,,,,,,,,,,,,,,B,132,star,1,0,,,,,,,,,,,,,,,,switch,letter,lettSwt,d,Hi,,,,,,1.4983,0,,,,,,,,high,31,0,31,0,1,,,,,,,,,
295543,2022-11-29_10h49.34.360,vts_reward_expectancy_bt,2022.2.4,Win32,59.95922773,Chrome,1440,810,,,,,10,844,,,,,,,,,,,,,,,,,D,132,hexagon,1,0,,,,,,,,,,,,,,,,repeat,letter,lettRpt,d,Lo,,,,,,1.6223,1,,,,,,space,1.748,high,0,0,0,0,1,,,,,,,,,
295543,2022-11-29_10h49.34.360,vts_reward_expectancy_bt,2022.2.4,Win32,59.95922773,Chrome,1440,810,,,,,1,845,,,,,,,,,,,,,,,,,S,160,star,1,0,,,,,,,,,,,,,,,,switch,number,numSwt,k,Hi,,,,,,0.9147,1,,,,,,,,high,1,0,1,0,1,,,,,,,,,
295543,2022-11-29_10h49.34.360,vts_reward_expectancy_bt,2022.2.4,Win32,59.95922773,Chrome,1440,810,,,,,0,845,,,,,,,,,,,,,,,,,W,167,circle,1,0,,,,,,,,,,,,,,,,repeat,number,numRpt,k,Hi,,,,,,1.6313,1,,,,,,,,high,2,0,2,0,1,,,,,,,,,
295543,2022-11-29_10h49.34.360,vts_reward_expectancy_bt,2022.2.4,Win32,59.95922773,Chrome,1440,810,,,,,0,845,,,,,,,,,,,,,,,,,B,181,triangle,-1,0,,,,,,,,,,,,,,,,switch,no_choice,NA,,Hi,,,,,,,1,,,,,,,,high,3,0,3,0,1,,,,,,,,,
295543,2022-11-29_10h49.34.360,vts_reward_expectancy_bt,2022.2.4,Win32,59.95922773,Chrome,1440,810,,,,,1,846,,,,,,,,,,,,,,,,,Y,139,hexagon,1,0,,,,,,,,,,,,,,,,switch,letter,lettSwt,f,Lo,,,,,,1.6062,1,,,,,,,,high,4,0,4,0,1,,,,,,,,,
295543,2022-11-29_10h49.34.360,vts_reward_expectancy_bt,2022.2.4,Win32,59.95922773,Chrome,1440,810,,,,,0,846,,,,,,,,,,,,,,,,,U,125,star,0,0,,,,,,,,,,,,,,,,repeat,letter,NA,d,Lo,,,,,,1.0807,1,,,,,,,,high,5,0,5,0,1,,,,,,,,,
295543,2022-11-29_10h49.34.360,vts_reward_expectancy_bt,2022.2.4,Win32,59.95922773,Chrome,1440,810,,,,,0,846,,,,,,,,,,,,,,,,,F,174,circle,1,1,,,,,,,,,,,,,,,,switch,number,numSwt,k,Hi,,,,,,2.0976,1,,,,,,,,high,6,0,6,0,1,,,,,,,,,
295543,2022-11-29_10h49.34.360,vts_reward_expectancy_bt,2022.2.4,Win32,59.95922773,Chrome,1440,810,,,,,0,846,,,,,,,,,,,,,,,,,H,146,triangle,0,0,,,,,,,,,,,,,,,,switch,letter,NA,f,Hi,,,,,,1.3652,1,,,,,,,,high,7,0,7,0,1,,,,,,,,,
295543,2022-11-29_10h49.34.360,vts_reward_expectancy_bt,2022.2.4,Win32,59.95922773,Chrome,1440,810,,,,,1,847,,,,,,,,,,,,,,,,,D,132,hexagon,1,1,,,,,,,,,,,,,,,,repeat,letter,lettRpt,d,Lo,,,,,,1.3525,1,,,,,,,,high,8,0,8,0,1,,,,,,,,,
295543,2022-11-29_10h49.34.360,vts_reward_expectancy_bt,2022.2.4,Win32,59.95922773,Chrome,1440,810,,,,,0,847,,,,,,,,,,,,,,,,,S,160,circle,1,0,,,,,,,,,,,,,,,,repeat,letter,lettRpt,f,Hi,,,,,,1.7866,1,,,,,,,,high,9,0,9,0,1,,,,,,,,,
295543,2022-11-29_10h49.34.360,vts_reward_expectancy_bt,2022.2.4,Win32,59.95922773,Chrome,1440,810,,,,,1,848,,,,,,,,,,,,,,,,,W,167,triangle,1,0,,,,,,,,,,,,,,,,switch,number,numSwt,k,Lo,,,,,,1.0134,1,,,,,,,,high,10,0,10,0,1,,,,,,,,,
295543,2022-11-29_10h49.34.360,vts_reward_expectancy_bt,2022.2.4,Win32,59.95922773,Chrome,1440,810,,,,,0,848,,,,,,,,,,,,,,,,,B,181,star,1,0,,,,,,,,,,,,,,,,repeat,number,numRpt,k,Hi,,,,,,2.0487,1,,,,,,,,high,11,0,11,0,1,,,,,,,,,
295543,2022-11-29_10h49.34.360,vts_reward_expectancy_bt,2022.2.4,Win32,59.95922773,Chrome,1440,810,,,,,1,849,,,,,,,,,,,,,,,,,Y,139,hexagon,1,0,,,,,,,,,,,,,,,,repeat,number,numRpt,j,Lo,,,,,,1.2805,1,,,,,,,,high,12,0,12,0,1,,,,,,,,,
295543,2022-11-29_10h49.34.360,vts_reward_expectancy_bt,2022.2.4,Win32,59.95922773,Chrome,1440,810,,,,,0,849,,,,,,,,,,,,,,,,,U,125,circle,1,0,,,,,,,,,,,,,,,,repeat,number,numRpt,j,Hi,,,,,,1.7633,1,,,,,,,,high,13,0,13,0,1,,,,,,,,,
295543,2022-11-29_10h49.34.360,vts_reward_expectancy_bt,2022.2.4,Win32,59.95922773,Chrome,1440,810,,,,,1,850,,,,,,,,,,,,,,,,,F,174,triangle,1,0,,,,,,,,,,,,,,,,repeat,number,numRpt,k,Lo,,,,,,1.5989,1,,,,,,,,high,14,0,14,0,1,,,,,,,,,
295543,2022-11-29_10h49.34.360,vts_reward_expectancy_bt,2022.2.4,Win32,59.95922773,Chrome,1440,810,,,,,0,850,,,,,,,,,,,,,,,,,H,146,star,1,0,,,,,,,,,,,,,,,,repeat,number,numRpt,j,Hi,,,,,,1.3523,1,,,,,,,,high,15,0,15,0,1,,,,,,,,,
295543,2022-11-29_10h49.34.360,vts_reward_expectancy_bt,2022.2.4,Win32,59.95922773,Chrome,1440,810,,,,,1,851,,,,,,,,,,,,,,,,,Y,181,triangle,1,0,,,,,,,,,,,,,,,,repeat,number,numRpt,k,Lo,,,,,,1.608,1,,,,,,,,high,16,0,16,0,1,,,,,,,,,
295543,2022-11-29_10h49.34.360,vts_reward_expectancy_bt,2022.2.4,Win32,59.95922773,Chrome,1440,810,,,,,0,851,,,,,,,,,,,,,,,,,F,132,circle,1,0,,,,,,,,,,,,,,,,repeat,number,numRpt,j,Hi,,,,,,1.4484,1,,,,,,,,high,17,0,17,0,1,,,,,,,,,
295543,2022-11-29_10h49.34.360,vts_reward_expectancy_bt,2022.2.4,Win32,59.95922773,Chrome,1440,810,,,,,1,852,,,,,,,,,,,,,,,,,U,139,hexagon,1,0,,,,,,,,,,,,,,,,switch,letter,lettSwt,f,Lo,,,,,,1.1808,1,,,,,,,,high,18,0,18,0,1,,,,,,,,,
295543,2022-11-29_10h49.34.360,vts_reward_expectancy_bt,2022.2.4,Win32,59.95922773,Chrome,1440,810,,,,,0,852,,,,,,,,,,,,,,,,,H,146,star,1,0,,,,,,,,,,,,,,,,switch,number,numSwt,j,Hi,,,,,,2.2532,1,,,,,,,,high,19,0,19,0,1,,,,,,,,,
295543,2022-11-29_10h49.34.360,vts_reward_expectancy_bt,2022.2.4,Win32,59.95922773,Chrome,1440,810,,,,,0,852,,,,,,,,,,,,,,,,,W,125,hexagon,0,0,,,,,,,,,,,,,,,,switch,letter,NA,d,Hi,,,,,,0.8326,1,,,,,,,,high,20,0,20,0,1,,,,,,,,,
295543,2022-11-29_10h49.34.360,vts_reward_expectancy_bt,2022.2.4,Win32,59.95922773,Chrome,1440,810,,,,,0,852,,,,,,,,,,,,,,,,,S,174,star,1,1,,,,,,,,,,,,,,,,repeat,letter,lettRpt,f,Hi,,,,,,1.3204,1,,,,,,,,high,21,0,21,0,1,,,,,,,,,
295543,2022-11-29_10h49.34.360,vts_reward_expectancy_bt,2022.2.4,Win32,59.95922773,Chrome,1440,810,,,,,0,852,,,,,,,,,,,,,,,,,B,167,triangle,0,0,,,,,,,,,,,,,,,,repeat,letter,NA,f,Hi,,,,,,0.7985,1,,,,,,,,high,22,0,22,0,1,,,,,,,,,
295543,2022-11-29_10h49.34.360,vts_reward_expectancy_bt,2022.2.4,Win32,59.95922773,Chrome,1440,810,,,,,0,852,,,,,,,,,,,,,,,,,D,160,circle,1,1,,,,,,,,,,,,,,,,repeat,letter,lettRpt,d,Hi,,,,,,1.2017,1,,,,,,,,high,23,0,23,0,1,,,,,,,,,
295543,2022-11-29_10h49.34.360,vts_reward_expectancy_bt,2022.2.4,Win32,59.95922773,Chrome,1440,810,,,,,0,852,,,,,,,,,,,,,,,,,S,146,circle,1,0,,,,,,,,,,,,,,,,switch,number,numSwt,j,Hi,,,,,,1.1058,1,,,,,,,,high,24,0,24,0,1,,,,,,,,,
295543,2022-11-29_10h49.34.360,vts_reward_expectancy_bt,2022.2.4,Win32,59.95922773,Chrome,1440,810,,,,,0,852,,,,,,,,,,,,,,,,,Y,181,triangle,0,0,,,,,,,,,,,,,,,,repeat,number,NA,j,Hi,,,,,,0.3311,1,,,,,,,,high,25,0,25,0,1,,,,,,,,,
295543,2022-11-29_10h49.34.360,vts_reward_expectancy_bt,2022.2.4,Win32,59.95922773,Chrome,1440,810,,,,,1,853,,,,,,,,,,,,,,,,,F,139,star,1,1,,,,,,,,,,,,,,,,switch,letter,lettSwt,d,Hi,,,,,,0.2815,1,,,,,,,,high,26,0,26,0,1,,,,,,,,,
295543,2022-11-29_10h49.34.360,vts_reward_expectancy_bt,2022.2.4,Win32,59.95922773,Chrome,1440,810,,,,,0,853,,,,,,,,,,,,,,,,,U,160,hexagon,0,0,,,,,,,,,,,,,,,,repeat,letter,NA,d,Hi,,,,,,0.3637,1,,,,,,,,high,27,0,27,0,1,,,,,,,,,
295543,2022-11-29_10h49.34.360,vts_reward_expectancy_bt,2022.2.4,Win32,59.95922773,Chrome,1440,810,,,,,0,853,,,,,,,,,,,,,,,,,W,174,circle,0,1,,,,,,,,,,,,,,,,repeat,letter,NA,d,Hi,,,,,,0.2813,1,,,,,,,,high,28,0,28,0,1,,,,,,,,,
295543,2022-11-29_10h49.34.360,vts_reward_expectancy_bt,2022.2.4,Win32,59.95922773,Chrome,1440,810,,,,,10,863,,,,,,,,,,,,,,,,,H,132,star,1,1,,,,,,,,,,,,,,,,repeat,letter,lettRpt,d,Hi,,,,,,0.6407,1,,,,,,,,high,29,0,29,0,1,,,,,,,,,
295543,2022-11-29_10h49.34.360,vts_reward_expectancy_bt,2022.2.4,Win32,59.95922773,Chrome,1440,810,,,,,10,873,,,,,,,,,,,,,,,,,B,167,triangle,1,0,,,,,,,,,,,,,,,,switch,number,numSwt,k,Lo,,,,,,0.6643,1,,,,,,,,high,30,0,30,0,1,,,,,,,,,
295543,2022-11-29_10h49.34.360,vts_reward_expectancy_bt,2022.2.4,Win32,59.95922773,Chrome,1440,810,,,,,1,874,,,,,,,,,,,,,,,,,D,125,hexagon,1,0,,,,,,,,,,,,,,,,repeat,number,numRpt,j,Lo,,,,,,0.7651,1,,,,,,,,high,31,0,31,0,1,,,,,,,,,
295543,2022-11-29_10h49.34.360,vts_reward_expectancy_bt,2022.2.4,Win32,59.95922773,Chrome,1440,810,,,,,1,875,,,,,,,,,,,,,,,,,Y,167,star,1,0,,,,,,,,,,,,,,,,repeat,number,numRpt,k,Hi,,,,,,0.4809,2,,,,,,space,0.7764,high,0,0,0,0,1,,,,,,,,,
295543,2022-11-29_10h49.34.360,vts_reward_expectancy_bt,2022.2.4,Win32,59.95922773,Chrome,1440,810,,,,,10,885,,,,,,,,,,,,,,,,,H,160,hexagon,1,0,,,,,,,,,,,,,,,,switch,letter,lettSwt,d,Lo,,,,,,0.7973,2,,,,,,,,high,1,0,1,0,1,,,,,,,,,
295543,2022-11-29_10h49.34.360,vts_reward_expectancy_bt,2022.2.4,Win32,59.95922773,Chrome,1440,810,,,,,10,895,,,,,,,,,,,,,,,,,D,125,circle,1,0,,,,,,,,,,,,,,,,switch,number,numSwt,j,Hi,,,,,,0.7873,2,,,,,,,,high,2,0,2,0,1,,,,,,,,,
295543,2022-11-29_10h49.34.360,vts_reward_expectancy_bt,2022.2.4,Win32,59.95922773,Chrome,1440,810,,,,,1,896,,,,,,,,,,,,,,,,,F,174,triangle,1,0,,,,,,,,,,,,,,,,repeat,number,numRpt,k,Lo,,,,,,0.9475,2,,,,,,,,high,3,0,3,0,1,,,,,,,,,
295543,2022-11-29_10h49.34.360,vts_reward_expectancy_bt,2022.2.4,Win32,59.95922773,Chrome,1440,810,,,,,10,906,,,,,,,,,,,,,,,,,U,181,star,1,0,,,,,,,,,,,,,,,,repeat,number,numRpt,k,Hi,,,,,,0.7479,2,,,,,,,,high,4,0,4,0,1,,,,,,,,,
295543,2022-11-29_10h49.34.360,vts_reward_expectancy_bt,2022.2.4,Win32,59.95922773,Chrome,1440,810,,,,,1,907,,,,,,,,,,,,,,,,,W,146,hexagon,1,0,,,,,,,,,,,,,,,,repeat,number,numRpt,j,Lo,,,,,,0.6209,2,,,,,,,,high,5,0,5,0,1,,,,,,,,,
295543,2022-11-29_10h49.34.360,vts_reward_expectancy_bt,2022.2.4,Win32,59.95922773,Chrome,1440,810,,,,,10,917,,,,,,,,,,,,,,,,,S,139,circle,1,0,,,,,,,,,,,,,,,,switch,letter,lettSwt,f,Hi,,,,,,0.8645,2,,,,,,,,high,6,0,6,0,1,,,,,,,,,
295543,2022-11-29_10h49.34.360,vts_reward_expectancy_bt,2022.2.4,Win32,59.95922773,Chrome,1440,810,,,,,1,918,,,,,,,,,,,,,,,,,B,132,triangle,1,0,,,,,,,,,,,,,,,,repeat,letter,lettRpt,d,Lo,,,,,,0.9564,2,,,,,,,,high,7,0,7,0,1,,,,,,,,,
295543,2022-11-29_10h49.34.360,vts_reward_expectancy_bt,2022.2.4,Win32,59.95922773,Chrome,1440,810,,,,,10,928,,,,,,,,,,,,,,,,,Y,167,circle,1,0,,,,,,,,,,,,,,,,repeat,letter,lettRpt,f,Hi,,,,,,0.9642,2,,,,,,,,high,8,0,8,0,1,,,,,,,,,
295543,2022-11-29_10h49.34.360,vts_reward_expectancy_bt,2022.2.4,Win32,59.95922773,Chrome,1440,810,,,,,1,929,,,,,,,,,,,,,,,,,H,160,star,1,0,,,,,,,,,,,,,,,,repeat,letter,lettRpt,d,Hi,,,,,,0.8006,2,,,,,,,,high,9,0,9,0,1,,,,,,,,,
295543,2022-11-29_10h49.34.360,vts_reward_expectancy_bt,2022.2.4,Win32,59.95922773,Chrome,1440,810,,,,,10,939,,,,,,,,,,,,,,,,,D,125,triangle,1,0,,,,,,,,,,,,,,,,repeat,letter,lettRpt,d,Lo,,,,,,1.2705,2,,,,,,,,high,10,0,10,0,1,,,,,,,,,
295543,2022-11-29_10h49.34.360,vts_reward_expectancy_bt,2022.2.4,Win32,59.95922773,Chrome,1440,810,,,,,1,940,,,,,,,,,,,,,,,,,F,174,hexagon,1,0,,,,,,,,,,,,,,,,repeat,letter,lettRpt,d,Lo,,,,,,0.9468,2,,,,,,,,high,11,0,11,0,1,,,,,,,,,
295543,2022-11-29_10h49.34.360,vts_reward_expectancy_bt,2022.2.4,Win32,59.95922773,Chrome,1440,810,,,,,1,941,,,,,,,,,,,,,,,,,U,181,star,1,0,,,,,,,,,,,,,,,,repeat,letter,lettRpt,f,Hi,,,,,,0.9143,2,,,,,,,,high,12,0,12,0,1,,,,,,,,,
295543,2022-11-29_10h49.34.360,vts_reward_expectancy_bt,2022.2.4,Win32,59.95922773,Chrome,1440,810,,,,,0,941,,,,,,,,,,,,,,,,,W,146,circle,1,0,,,,,,,,,,,,,,,,switch,number,numSwt,j,Hi,,,,,,1.5219,2,,,,,,,,high,13,0,13,0,1,,,,,,,,,
295543,2022-11-29_10h49.34.360,vts_reward_expectancy_bt,2022.2.4,Win32,59.95922773,Chrome,1440,810,,,,,1,942,,,,,,,,,,,,,,,,,S,139,triangle,1,0,,,,,,,,,,,,,,,,repeat,number,numRpt,j,Lo,,,,,,0.9625,2,,,,,,,,high,14,0,14,0,1,,,,,,,,,
295543,2022-11-29_10h49.34.360,vts_reward_expectancy_bt,2022.2.4,Win32,59.95922773,Chrome,1440,810,,,,,0,942,,,,,,,,,,,,,,,,,B,132,hexagon,0,0,,,,,,,,,,,,,,,,repeat,number,NA,k,Lo,,,,,,0.8981,2,,,,,,,,high,15,0,15,0,1,,,,,,,,,
295543,2022-11-29_10h49.34.360,vts_reward_expectancy_bt,2022.2.4,Win32,59.95922773,Chrome,1440,810,,,,,1,943,,,,,,,,,,,,,,,,,D,160,hexagon,1,1,,,,,,,,,,,,,,,,repeat,number,numRpt,k,Lo,,,,,,1.3,2,,,,,,,,high,16,0,16,0,1,,,,,,,,,
295543,2022-11-29_10h49.34.360,vts_reward_expectancy_bt,2022.2.4,Win32,59.95922773,Chrome,1440,810,,,,,0,943,,,,,,,,,,,,,,,,,H,174,triangle,0,0,,,,,,,,,,,,,,,,switch,letter,NA,f,Lo,,,,,,0.297,2,,,,,,,,high,17,0,17,0,1,,,,,,,,,
295543,2022-11-29_10h49.34.360,vts_reward_expectancy_bt,2022.2.4,Win32,59.95922773,Chrome,1440,810,,,,,10,953,,,,,,,,,,,,,,,,,B,132,star,1,1,,,,,,,,,,,,,,,,repeat,letter,lettRpt,d,Hi,,,,,,0.4323,2,,,,,,,,high,18,0,18,0,1,,,,,,,,,
295543,2022-11-29_10h49.34.360,vts_reward_expectancy_bt,2022.2.4,Win32,59.95922773,Chrome,1440,810,,,,,10,963,,,,,,,,,,,,,,,,,F,181,circle,1,0,,,,,,,,,,,,,,,,switch,number,numSwt,k,Hi,,,,,,0.9327,2,,,,,,,,high,19,0,19,0,1,,,,,,,,,
295543,2022-11-29_10h49.34.360,vts_reward_expectancy_bt,2022.2.4,Win32,59.95922773,Chrome,1440,810,,,,,0,963,,,,,,,,,,,,,,,,,S,139,circle,0,0,,,,,,,,,,,,,,,,switch,letter,NA,d,Hi,,,,,,0.8474,2,,,,,,,,high,20,0,20,0,1,,,,,,,,,
295543,2022-11-29_10h49.34.360,vts_reward_expectancy_bt,2022.2.4,Win32,59.95922773,Chrome,1440,810,,,,,10,973,,,,,,,,,,,,,,,,,W,146,star,1,1,,,,,,,,,,,,,,,,repeat,letter,lettRpt,f,Hi,,,,,,1.1379,2,,,,,,,,high,21,0,21,0,1,,,,,,,,,
295543,2022-11-29_10h49.34.360,vts_reward_expectancy_bt,2022.2.4,Win32,59.95922773,Chrome,1440,810,,,,,1,974,,,,,,,,,,,,,,,,,Y,125,triangle,1,0,,,,,,,,,,,,,,,,repeat,letter,lettRpt,f,Lo,,,,,,1.2029,2,,,,,,,,high,22,0,22,0,1,,,,,,,,,
295543,2022-11-29_10h49.34.360,vts_reward_expectancy_bt,2022.2.4,Win32,59.95922773,Chrome,1440,810,,,,,1,975,,,,,,,,,,,,,,,,,U,167,hexagon,1,0,,,,,,,,,,,,,,,,switch,number,numSwt,k,Lo,,,,,,0.7807,2,,,,,,,,high,23,0,23,0,1,,,,,,,,,
295543,2022-11-29_10h49.34.360,vts_reward_expectancy_bt,2022.2.4,Win32,59.95922773,Chrome,1440,810,,,,,10,985,,,,,,,,,,,,,,,,,S,132,circle,1,0,,,,,,,,,,,,,,,,repeat,number,numRpt,j,Hi,,,,,,1.181,2,,,,,,,,high,24,0,24,0,1,,,,,,,,,
295543,2022-11-29_10h49.34.360,vts_reward_expectancy_bt,2022.2.4,Win32,59.95922773,Chrome,1440,810,,,,,1,986,,,,,,,,,,,,,,,,,Y,125,triangle,1,0,,,,,,,,,,,,,,,,repeat,number,numRpt,j,Lo,,,,,,0.752,2,,,,,,,,high,25,0,25,0,1,,,,,,,,,
295543,2022-11-29_10h49.34.360,vts_reward_expectancy_bt,2022.2.4,Win32,59.95922773,Chrome,1440,810,,,,,0,986,,,,,,,,,,,,,,,,,U,146,star,1,0,,,,,,,,,,,,,,,,switch,letter,lettSwt,f,Hi,,,,,,1.6972,2,,,,,,,,high,26,0,26,0,1,,,,,,,,,
295543,2022-11-29_10h49.34.360,vts_reward_expectancy_bt,2022.2.4,Win32,59.95922773,Chrome,1440,810,,,,,1,987,,,,,,,,,,,,,,,,,D,181,hexagon,1,0,,,,,,,,,,,,,,,,switch,number,numSwt,k,Lo,,,,,,0.9219,2,,,,,,,,high,27,0,27,0,1,,,,,,,,,
295543,2022-11-29_10h49.34.360,vts_reward_expectancy_bt,2022.2.4,Win32,59.95922773,Chrome,1440,810,,,,,10,997,,,,,,,,,,,,,,,,,W,160,circle,1,0,,,,,,,,,,,,,,,,switch,letter,lettSwt,f,Hi,,,,,,0.6977,2,,,,,,,,high,28,0,28,0,1,,,,,,,,,
295543,2022-11-29_10h49.34.360,vts_reward_expectancy_bt,2022.2.4,Win32,59.95922773,Chrome,1440,810,,,,,10,1007,,,,,,,,,,,,,,,,,B,174,star,1,0,,,,,,,,,,,,,,,,repeat,letter,lettRpt,d,Hi,,,,,,0.5665,2,,,,,,,,high,29,0,29,0,1,,,,,,,,,
295543,2022-11-29_10h49.34.360,vts_reward_expectancy_bt,2022.2.4,Win32,59.95922773,Chrome,1440,810,,,,,1,1008,,,,,,,,,,,,,,,,,H,167,triangle,1,0,,,,,,,,,,,,,,,,repeat,letter,lettRpt,d,Lo,,,,,,0.8328,2,,,,,,,,high,30,0,30,0,1,,,,,,,,,
295543,2022-11-29_10h49.34.360,vts_reward_expectancy_bt,2022.2.4,Win32,59.95922773,Chrome,1440,810,,,,,1,1009,,,,,,,,,,,,,,,,,F,139,hexagon,1,0,,,,,,,,,,,,,,,,switch,number,numSwt,j,Lo,,,,,,0.999,2,,,,,,,,high,31,0,31,0,1,,,,,,,,,
295543,2022-11-29_10h49.34.360,vts_reward_expectancy_bt,2022.2.4,Win32,59.95922773,Chrome,1440,810,,,,,1,1010,,,,,,,,,,,,,,,,,F,181,triangle,1,0,,,,,,,,,,,,,,,,repeat,number,numRpt,k,Lo,,,,,,0.8054,3,,,,,,space,0.6165,high,0,0,0,0,1,,,,,,,,,
295543,2022-11-29_10h49.34.360,vts_reward_expectancy_bt,2022.2.4,Win32,59.95922773,Chrome,1440,810,,,,,0,1010,,,,,,,,,,,,,,,,,D,146,star,1,0,,,,,,,,,,,,,,,,repeat,number,numRpt,j,Hi,,,,,,0.8141,3,,,,,,,,high,1,0,1,0,1,,,,,,,,,
295543,2022-11-29_10h49.34.360,vts_reward_expectancy_bt,2022.2.4,Win32,59.95922773,Chrome,1440,810,,,,,0,1010,,,,,,,,,,,,,,,,,U,160,hexagon,-1,0,,,,,,,,,,,,,,,,switch,no_choice,NA,,Hi,,,,,,,3,,,,,,,,high,2,0,2,0,1,,,,,,,,,
295543,2022-11-29_10h49.34.360,vts_reward_expectancy_bt,2022.2.4,Win32,59.95922773,Chrome,1440,810,,,,,0,1010,,,,,,,,,,,,,,,,,S,125,circle,1,0,,,,,,,,,,,,,,,,switch,letter,lettSwt,f,Hi,,,,,,0.9151,3,,,,,,,,high,3,0,3,0,1,,,,,,,,,
295543,2022-11-29_10h49.34.360,vts_reward_expectancy_bt,2022.2.4,Win32,59.95922773,Chrome,1440,810,,,,,1,1011,,,,,,,,,,,,,,,,,H,174,triangle,1,0,,,,,,,,,,,,,,,,repeat,letter,lettRpt,d,Lo,,,,,,0.4166,3,,,,,,,,high,4,0,4,0,1,,,,,,,,,
295543,2022-11-29_10h49.34.360,vts_reward_expectancy_bt,2022.2.4,Win32,59.95922773,Chrome,1440,810,,,,,0,1011,,,,,,,,,,,,,,,,,B,132,star,0,0,,,,,,,,,,,,,,,,switch,number,NA,k,Lo,,,,,,1.5982,3,,,,,,,,high,5,0,5,0,1,,,,,,,,,
295543,2022-11-29_10h49.34.360,vts_reward_expectancy_bt,2022.2.4,Win32,59.95922773,Chrome,1440,810,,,,,1,1012,,,,,,,,,,,,,,,,,Y,167,hexagon,1,1,,,,,,,,,,,,,,,,switch,letter,lettSwt,f,Lo,,,,,,0.6483,3,,,,,,,,high,6,0,6,0,1,,,,,,,,,
295543,2022-11-29_10h49.34.360,vts_reward_expectancy_bt,2022.2.4,Win32,59.95922773,Chrome,1440,810,,,,,0,1012,,,,,,,,,,,,,,,,,W,139,circle,0,0,,,,,,,,,,,,,,,,repeat,letter,NA,d,Lo,,,,,,0.5545,3,,,,,,,,high,7,0,7,0,1,,,,,,,,,
295543,2022-11-29_10h49.34.360,vts_reward_expectancy_bt,2022.2.4,Win32,59.95922773,Chrome,1440,810,,,,,10,1022,,,,,,,,,,,,,,,,,F,181,circle,1,1,,,,,,,,,,,,,,,,switch,number,numSwt,k,Hi,,,,,,0.7974,3,,,,,,,,high,8,0,8,0,1,,,,,,,,,
295543,2022-11-29_10h49.34.360,vts_reward_expectancy_bt,2022.2.4,Win32,59.95922773,Chrome,1440,810,,,,,0,1022,,,,,,,,,,,,,,,,,D,146,hexagon,0,0,,,,,,,,,,,,,,,,repeat,number,NA,k,Hi,,,,,,0.6716,3,,,,,,,,high,9,0,9,0,1,,,,,,,,,
295543,2022-11-29_10h49.34.360,vts_reward_expectancy_bt,2022.2.4,Win32,59.95922773,Chrome,1440,810,,,,,0,1022,,,,,,,,,,,,,,,,,U,160,star,0,1,,,,,,,,,,,,,,,,repeat,number,NA,j,Hi,,,,,,0.2553,3,,,,,,,,high,10,0,10,0,1,,,,,,,,,
295543,2022-11-29_10h49.34.360,vts_reward_expectancy_bt,2022.2.4,Win32,59.95922773,Chrome,1440,810,,,,,10,1032,,,,,,,,,,,,,,,,,S,125,triangle,1,1,,,,,,,,,,,,,,,,repeat,number,numRpt,j,Lo,,,,,,0.0715,3,,,,,,,,high,11,0,11,0,1,,,,,,,,,
295543,2022-11-29_10h49.34.360,vts_reward_expectancy_bt,2022.2.4,Win32,59.95922773,Chrome,1440,810,,,,,0,1032,,,,,,,,,,,,,,,,,H,174,circle,1,0,,,,,,,,,,,,,,,,repeat,number,numRpt,k,Hi,,,,,,0.8394,3,,,,,,,,high,12,0,12,0,1,,,,,,,,,
295543,2022-11-29_10h49.34.360,vts_reward_expectancy_bt,2022.2.4,Win32,59.95922773,Chrome,1440,810,,,,,0,1032,,,,,,,,,,,,,,,,,B,132,hexagon,0,0,,,,,,,,,,,,,,,,repeat,number,NA,k,Hi,,,,,,0.531,3,,,,,,,,high,13,0,13,0,1,,,,,,,,,
295543,2022-11-29_10h49.34.360,vts_reward_expectancy_bt,2022.2.4,Win32,59.95922773,Chrome,1440,810,,,,,10,1042,,,,,,,,,,,,,,,,,Y,167,star,1,1,,,,,,,,,,,,,,,,switch,letter,lettSwt,f,Hi,,,,,,0.063,3,,,,,,,,high,14,0,14,0,1,,,,,,,,,
295543,2022-11-29_10h49.34.360,vts_reward_expectancy_bt,2022.2.4,Win32,59.95922773,Chrome,1440,810,,,,,1,1043,,,,,,,,,,,,,,,,,W,139,triangle,1,0,,,,,,,,,,,,,,,,switch,number,numSwt,j,Lo,,,,,,0.2382,3,,,,,,,,high,15,0,15,0,1,,,,,,,,,
295543,2022-11-29_10h49.34.360,vts_reward_expectancy_bt,2022.2.4,Win32,59.95922773,Chrome,1440,810,,,,,0,1043,,,,,,,,,,,,,,,,,D,139,circle,0,0,,,,,,,,,,,,,,,,switch,letter,NA,f,Lo,,,,,,0.0039,3,,,,,,,,high,16,0,16,0,1,,,,,,,,,
295543,2022-11-29_10h49.34.360,vts_reward_expectancy_bt,2022.2.4,Win32,59.95922773,Chrome,1440,810,,,,,0,1043,,,,,,,,,,,,,,,,,B,174,star,0,1,,,,,,,,,,,,,,,,switch,number,NA,j,Lo,,,,,,0.4825,3,,,,,,,,high,17,0,17,0,1,,,,,,,,,
295543,2022-11-29_10h49.34.360,vts_reward_expectancy_bt,2022.2.4,Win32,59.95922773,Chrome,1440,810,,,,,0,1043,,,,,,,,,,,,,,,,,S,160,hexagon,0,1,,,,,,,,,,,,,,,,switch,letter,NA,d,Lo,,,,,,0.6978,3,,,,,,,,high,18,0,18,0,1,,,,,,,,,
295543,2022-11-29_10h49.34.360,vts_reward_expectancy_bt,2022.2.4,Win32,59.95922773,Chrome,1440,810,,,,,1,1044,,,,,,,,,,,,,,,,,H,167,triangle,1,1,,,,,,,,,,,,,,,,repeat,letter,lettRpt,d,Lo,,,,,,1.164,3,,,,,,,,high,19,0,19,0,1,,,,,,,,,
295543,2022-11-29_10h49.34.360,vts_reward_expectancy_bt,2022.2.4,Win32,59.95922773,Chrome,1440,810,,,,,1,1045,,,,,,,,,,,,,,,,,W,181,triangle,1,0,,,,,,,,,,,,,,,,repeat,letter,lettRpt,f,Lo,,,,,,1.5197,3,,,,,,,,high,20,0,20,0,1,,,,,,,,,
295543,2022-11-29_10h49.34.360,vts_reward_expectancy_bt,2022.2.4,Win32,59.95922773,Chrome,1440,810,,,,,0,1045,,,,,,,,,,,,,,,,,U,125,hexagon,0,0,,,,,,,,,,,,,,,,repeat,letter,NA,d,Lo,,,,,,1.2481,3,,,,,,,,high,21,0,21,0,1,,,,,,,,,
295543,2022-11-29_10h49.34.360,vts_reward_expectancy_bt,2022.2.4,Win32,59.95922773,Chrome,1440,810,,,,,0,1045,,,,,,,,,,,,,,,,,Y,146,star,1,1,,,,,,,,,,,,,,,,switch,number,numSwt,j,Hi,,,,,,1.0519,3,,,,,,,,high,22,0,22,0,1,,,,,,,,,
295543,2022-11-29_10h49.34.360,vts_reward_expectancy_bt,2022.2.4,Win32,59.95922773,Chrome,1440,810,,,,,0,1045,,,,,,,,,,,,,,,,,F,132,circle,1,0,,,,,,,,,,,,,,,,repeat,number,numRpt,j,Hi,,,,,,0.7997,3,,,,,,,,high,23,0,23,0,1,,,,,,,,,
295543,2022-11-29_10h49.34.360,vts_reward_expectancy_bt,2022.2.4,Win32,59.95922773,Chrome,1440,810,,,,,1,1046,,,,,,,,,,,,,,,,,S,174,triangle,1,0,,,,,,,,,,,,,,,,repeat,number,numRpt,k,Lo,,,,,,0.8146,3,,,,,,,,high,24,0,24,0,1,,,,,,,,,
295543,2022-11-29_10h49.34.360,vts_reward_expectancy_bt,2022.2.4,Win32,59.95922773,Chrome,1440,810,,,,,1,1047,,,,,,,,,,,,,,,,,Y,139,hexagon,1,0,,,,,,,,,,,,,,,,repeat,number,numRpt,j,Lo,,,,,,1.0478,3,,,,,,,,high,25,0,25,0,1,,,,,,,,,
295543,2022-11-29_10h49.34.360,vts_reward_expectancy_bt,2022.2.4,Win32,59.95922773,Chrome,1440,810,,,,,0,1047,,,,,,,,,,,,,,,,,B,125,star,1,0,,,,,,,,,,,,,,,,repeat,number,numRpt,j,Hi,,,,,,1.0512,3,,,,,,,,high,26,0,26,0,1,,,,,,,,,
295543,2022-11-29_10h49.34.360,vts_reward_expectancy_bt,2022.2.4,Win32,59.95922773,Chrome,1440,810,,,,,0,1047,,,,,,,,,,,,,,,,,U,132,circle,1,0,,,,,,,,,,,,,,,,repeat,number,numRpt,j,Hi,,,,,,0.931,3,,,,,,,,high,27,0,27,0,1,,,,,,,,,
295543,2022-11-29_10h49.34.360,vts_reward_expectancy_bt,2022.2.4,Win32,59.95922773,Chrome,1440,810,,,,,0,1047,,,,,,,,,,,,,,,,,D,160,triangle,0,0,,,,,,,,,,,,,,,,repeat,number,NA,j,Hi,,,,,,0.3639,3,,,,,,,,high,28,0,28,0,1,,,,,,,,,
295543,2022-11-29_10h49.34.360,vts_reward_expectancy_bt,2022.2.4,Win32,59.95922773,Chrome,1440,810,,,,,0,1047,,,,,,,,,,,,,,,,,H,167,star,0,1,,,,,,,,,,,,,,,,switch,letter,NA,f,Hi,,,,,,0.3645,3,,,,,,,,high,29,0,29,0,1,,,,,,,,,
295543,2022-11-29_10h49.34.360,vts_reward_expectancy_bt,2022.2.4,Win32,59.95922773,Chrome,1440,810,,,,,0,1047,,,,,,,,,,,,,,,,,W,181,hexagon,0,1,,,,,,,,,,,,,,,,switch,number,NA,j,Hi,,,,,,0.9797,3,,,,,,,,high,30,0,30,0,1,,,,,,,,,
295543,2022-11-29_10h49.34.360,vts_reward_expectancy_bt,2022.2.4,Win32,59.95922773,Chrome,1440,810,,,,,0,1047,,,,,,,,,,,,,,,,,F,146,circle,1,1,,,,,,,,,,,,,,,,repeat,number,numRpt,j,Hi,,,,,,0.9242,3,,,,,,,,high,31,0,31,0,1,,,,,,,,,
295543,2022-11-29_10h49.34.360,vts_reward_expectancy_bt,2022.2.4,Win32,59.95922773,Chrome,1440,810,,,,,0,1047,,,,,,,,,,,,,,,,,S,139,circle,0,0,,,,,,,,,,,,,,,,switch,letter,NA,d,Hi,,,,,,0.5157,4,,,,,,space,0.887,high,0,0,0,0,1,,,,,,,,,
295543,2022-11-29_10h49.34.360,vts_reward_expectancy_bt,2022.2.4,Win32,59.95922773,Chrome,1440,810,,,,,0,1047,,,,,,,,,,,,,,,,,H,174,hexagon,0,1,,,,,,,,,,,,,,,,repeat,letter,NA,f,Hi,,,,,,1.204,4,,,,,,,,high,1,0,1,0,1,,,,,,,,,
295543,2022-11-29_10h49.34.360,vts_reward_expectancy_bt,2022.2.4,Win32,59.95922773,Chrome,1440,810,,,,,1,1048,,,,,,,,,,,,,,,,,F,132,triangle,1,1,,,,,,,,,,,,,,,,switch,number,numSwt,j,Lo,,,,,,1.2822,4,,,,,,,,high,2,0,2,0,1,,,,,,,,,
295543,2022-11-29_10h49.34.360,vts_reward_expectancy_bt,2022.2.4,Win32,59.95922773,Chrome,1440,810,,,,,0,1048,,,,,,,,,,,,,,,,,W,146,star,1,0,,,,,,,,,,,,,,,,repeat,number,numRpt,j,Hi,,,,,,1.0909,4,,,,,,,,high,3,0,3,0,1,,,,,,,,,
295543,2022-11-29_10h49.34.360,vts_reward_expectancy_bt,2022.2.4,Win32,59.95922773,Chrome,1440,810,,,,,0,1048,,,,,,,,,,,,,,,,,B,181,circle,1,0,,,,,,,,,,,,,,,,repeat,number,numRpt,k,Hi,,,,,,1.0814,4,,,,,,,,high,4,0,4,0,1,,,,,,,,,
295543,2022-11-29_10h49.34.360,vts_reward_expectancy_bt,2022.2.4,Win32,59.95922773,Chrome,1440,810,,,,,1,1049,,,,,,,,,,,,,,,,,U,160,hexagon,1,0,,,,,,,,,,,,,,,,repeat,number,numRpt,k,Lo,,,,,,0.6748,4,,,,,,,,high,5,0,5,0,1,,,,,,,,,
295543,2022-11-29_10h49.34.360,vts_reward_expectancy_bt,2022.2.4,Win32,59.95922773,Chrome,1440,810,,,,,1,1050,,,,,,,,,,,,,,,,,Y,125,triangle,1,0,,,,,,,,,,,,,,,,repeat,number,numRpt,j,Lo,,,,,,1.0332,4,,,,,,,,high,6,0,6,0,1,,,,,,,,,
295543,2022-11-29_10h49.34.360,vts_reward_expectancy_bt,2022.2.4,Win32,59.95922773,Chrome,1440,810,,,,,0,1050,,,,,,,,,,,,,,,,,D,167,star,1,0,,,,,,,,,,,,,,,,repeat,number,numRpt,k,Hi,,,,,,1.281,4,,,,,,,,high,7,0,7,0,1,,,,,,,,,
295543,2022-11-29_10h49.34.360,vts_reward_expectancy_bt,2022.2.4,Win32,59.95922773,Chrome,1440,810,,,,,0,1050,,,,,,,,,,,,,,,,,S,139,star,0,0,,,,,,,,,,,,,,,,switch,letter,NA,d,Hi,,,,,,1.5563,4,,,,,,,,high,8,0,8,0,1,,,,,,,,,
295543,2022-11-29_10h49.34.360,vts_reward_expectancy_bt,2022.2.4,Win32,59.95922773,Chrome,1440,810,,,,,0,1050,,,,,,,,,,,,,,,,,H,174,circle,1,1,,,,,,,,,,,,,,,,repeat,letter,lettRpt,d,Hi,,,,,,1.3313,4,,,,,,,,high,9,0,9,0,1,,,,,,,,,
295543,2022-11-29_10h49.34.360,vts_reward_expectancy_bt,2022.2.4,Win32,59.95922773,Chrome,1440,810,,,,,1,1051,,,,,,,,,,,,,,,,,F,132,triangle,1,0,,,,,,,,,,,,,,,,switch,number,numSwt,j,Lo,,,,,,1.2723,4,,,,,,,,high,10,0,10,0,1,,,,,,,,,
295543,2022-11-29_10h49.34.360,vts_reward_expectancy_bt,2022.2.4,Win32,59.95922773,Chrome,1440,810,,,,,1,1052,,,,,,,,,,,,,,,,,W,146,hexagon,1,0,,,,,,,,,,,,,,,,switch,letter,lettSwt,f,Lo,,,,,,1.0041,4,,,,,,,,high,11,0,11,0,1,,,,,,,,,
295543,2022-11-29_10h49.34.360,vts_reward_expectancy_bt,2022.2.4,Win32,59.95922773,Chrome,1440,810,,,,,10,1062,,,,,,,,,,,,,,,,,B,181,hexagon,1,0,,,,,,,,,,,,,,,,switch,number,numSwt,k,Lo,,,,,,1.0677,4,,,,,,,,high,12,0,12,0,1,,,,,,,,,
295543,2022-11-29_10h49.34.360,vts_reward_expectancy_bt,2022.2.4,Win32,59.95922773,Chrome,1440,810,,,,,0,1062,,,,,,,,,,,,,,,,,U,160,circle,1,0,,,,,,,,,,,,,,,,switch,letter,lettSwt,f,Hi,,,,,,1.7392,4,,,,,,,,high,13,0,13,0,1,,,,,,,,,
295543,2022-11-29_10h49.34.360,vts_reward_expectancy_bt,2022.2.4,Win32,59.95922773,Chrome,1440,810,,,,,0,1062,,,,,,,,,,,,,,,,,Y,125,star,1,0,,,,,,,,,,,,,,,,repeat,letter,lettRpt,f,Hi,,,,,,1.2141,4,,,,,,,,high,14,0,14,0,1,,,,,,,,,
295543,2022-11-29_10h49.34.360,vts_reward_expectancy_bt,2022.2.4,Win32,59.95922773,Chrome,1440,810,,,,,1,1063,,,,,,,,,,,,,,,,,D,167,triangle,1,0,,,,,,,,,,,,,,,,repeat,letter,lettRpt,d,Lo,,,,,,0.8479,4,,,,,,,,high,15,0,15,0,1,,,,,,,,,
295543,2022-11-29_10h49.34.360,vts_reward_expectancy_bt,2022.2.4,Win32,59.95922773,Chrome,1440,810,,,,,0,1063,,,,,,,,,,,,,,,,,D,125,hexagon,0,0,,,,,,,,,,,,,,,,switch,number,NA,k,Lo,,,,,,1.3819,4,,,,,,,,high,16,0,16,0,1,,,,,,,,,
295543,2022-11-29_10h49.34.360,vts_reward_expectancy_bt,2022.2.4,Win32,59.95922773,Chrome,1440,810,,,,,0,1063,,,,,,,,,,,,,,,,,F,167,circle,0,1,,,,,,,,,,,,,,,,repeat,number,NA,j,Lo,,,,,,2.8492,4,,,,,,,,high,17,0,17,0,1,,,,,,,,,
295543,2022-11-29_10h49.34.360,vts_reward_expectancy_bt,2022.2.4,Win32,59.95922773,Chrome,1440,810,,,,,1,1064,,,,,,,,,,,,,,,,,B,181,triangle,1,1,,,,,,,,,,,,,,,,repeat,number,numRpt,k,Lo,,,,,,1.7316,4,,,,,,,,high,18,0,18,0,1,,,,,,,,,
295543,2022-11-29_10h49.34.360,vts_reward_expectancy_bt,2022.2.4,Win32,59.95922773,Chrome,1440,810,,,,,0,1064,,,,,,,,,,,,,,,,,S,160,star,0,0,,,,,,,,,,,,,,,,switch,letter,NA,d,Lo,,,,,,0.8712,4,,,,,,,,high,19,0,19,0,1,,,,,,,,,
295543,2022-11-29_10h49.34.360,vts_reward_expectancy_bt,2022.2.4,Win32,59.95922773,Chrome,1440,810,,,,,0,1064,,,,,,,,,,,,,,,,,U,139,circle,1,1,,,,,,,,,,,,,,,,repeat,letter,lettRpt,f,Hi,,,,,,2.4881,4,,,,,,,,high,20,0,20,0,1,,,,,,,,,
295543,2022-11-29_10h49.34.360,vts_reward_expectancy_bt,2022.2.4,Win32,59.95922773,Chrome,1440,810,,,,,10,1074,,,,,,,,,,,,,,,,,Y,146,star,1,0,,,,,,,,,,,,,,,,repeat,letter,lettRpt,f,Hi,,,,,,0.2849,4,,,,,,,,high,21,0,21,0,1,,,,,,,,,
295543,2022-11-29_10h49.34.360,vts_reward_expectancy_bt,2022.2.4,Win32,59.95922773,Chrome,1440,810,,,,,0,1074,,,,,,,,,,,,,,,,,W,174,triangle,0,0,,,,,,,,,,,,,,,,switch,number,NA,j,Hi,,,,,,0.3307,4,,,,,,,,high,22,0,22,0,1,,,,,,,,,
295543,2022-11-29_10h49.34.360,vts_reward_expectancy_bt,2022.2.4,Win32,59.95922773,Chrome,1440,810,,,,,1,1075,,,,,,,,,,,,,,,,,H,132,hexagon,1,1,,,,,,,,,,,,,,,,repeat,number,numRpt,j,Lo,,,,,,0.3413,4,,,,,,,,high,23,0,23,0,1,,,,,,,,,
295543,2022-11-29_10h49.34.360,vts_reward_expectancy_bt,2022.2.4,Win32,59.95922773,Chrome,1440,810,,,,,0,1075,,,,,,,,,,,,,,,,,F,167,triangle,0,0,,,,,,,,,,,,,,,,switch,letter,NA,f,Lo,,,,,,0.3317,4,,,,,,,,high,24,0,24,0,1,,,,,,,,,
295543,2022-11-29_10h49.34.360,vts_reward_expectancy_bt,2022.2.4,Win32,59.95922773,Chrome,1440,810,,,,,0,1075,,,,,,,,,,,,,,,,,U,174,star,1,1,,,,,,,,,,,,,,,,repeat,letter,lettRpt,f,Hi,,,,,,1.1147,4,,,,,,,,high,25,0,25,0,1,,,,,,,,,
295543,2022-11-29_10h49.34.360,vts_reward_expectancy_bt,2022.2.4,Win32,59.95922773,Chrome,1440,810,,,,,1,1076,,,,,,,,,,,,,,,,,D,160,hexagon,1,0,,,,,,,,,,,,,,,,switch,number,numSwt,k,Lo,,,,,,1.1325,4,,,,,,,,high,26,0,26,0,1,,,,,,,,,
295543,2022-11-29_10h49.34.360,vts_reward_expectancy_bt,2022.2.4,Win32,59.95922773,Chrome,1440,810,,,,,1,1077,,,,,,,,,,,,,,,,,B,125,circle,1,0,,,,,,,,,,,,,,,,repeat,number,numRpt,j,Hi,,,,,,0.697,4,,,,,,,,high,27,0,27,0,1,,,,,,,,,
295543,2022-11-29_10h49.34.360,vts_reward_expectancy_bt,2022.2.4,Win32,59.95922773,Chrome,1440,810,,,,,0,1077,,,,,,,,,,,,,,,,,S,132,star,1,0,,,,,,,,,,,,,,,,repeat,number,numRpt,j,Hi,,,,,,0.9015,4,,,,,,,,high,28,0,28,0,1,,,,,,,,,
295543,2022-11-29_10h49.34.360,vts_reward_expectancy_bt,2022.2.4,Win32,59.95922773,Chrome,1440,810,,,,,0,1077,,,,,,,,,,,,,,,,,Y,181,circle,1,0,,,,,,,,,,,,,,,,repeat,number,numRpt,k,Hi,,,,,,0.9908,4,,,,,,,,high,29,0,29,0,1,,,,,,,,,
295543,2022-11-29_10h49.34.360,vts_reward_expectancy_bt,2022.2.4,Win32,59.95922773,Chrome,1440,810,,,,,1,1078,,,,,,,,,,,,,,,,,H,139,hexagon,1,0,,,,,,,,,,,,,,,,switch,letter,lettSwt,d,Lo,,,,,,0.4539,4,,,,,,,,high,30,0,30,0,1,,,,,,,,,
295543,2022-11-29_10h49.34.360,vts_reward_expectancy_bt,2022.2.4,Win32,59.95922773,Chrome,1440,810,,,,,1,1079,,,,,,,,,,,,,,,,,W,146,triangle,1,0,,,,,,,,,,,,,,,,repeat,letter,lettRpt,f,Lo,,,,,,0.765,4,,,,,,,,high,31,0,31,0,1,,,,,,,,,
295543,2022-11-29_10h49.34.360,vts_reward_expectancy_bt,2022.2.4,Win32,59.95922773,Chrome,1440,810,,,,,0,1079,,,,,,,,,,,,,,,,,F,160,star,1,0,,,,,,,,,,,,,,,,switch,number,numSwt,k,Hi,,,,,,2.6472,5,,,,,,space,11.6722,high,0,0,0,0,1,,,,,,,,,
295543,2022-11-29_10h49.34.360,vts_reward_expectancy_bt,2022.2.4,Win32,59.95922773,Chrome,1440,810,,,,,1,1080,,,,,,,,,,,,,,,,,W,125,triangle,1,0,,,,,,,,,,,,,,,,repeat,number,numRpt,j,Lo,,,,,,1.0645,5,,,,,,,,high,1,0,1,0,1,,,,,,,,,
295543,2022-11-29_10h49.34.360,vts_reward_expectancy_bt,2022.2.4,Win32,59.95922773,Chrome,1440,810,,,,,0,1080,,,,,,,,,,,,,,,,,H,181,circle,1,0,,,,,,,,,,,,,,,,repeat,number,numRpt,k,Hi,,,,,,1.1175,5,,,,,,,,high,2,0,2,0,1,,,,,,,,,
295543,2022-11-29_10h49.34.360,vts_reward_expectancy_bt,2022.2.4,Win32,59.95922773,Chrome,1440,810,,,,,1,1081,,,,,,,,,,,,,,,,,Y,174,hexagon,1,0,,,,,,,,,,,,,,,,switch,letter,lettSwt,f,Lo,,,,,,0.6304,5,,,,,,,,high,3,0,3,0,1,,,,,,,,,
295543,2022-11-29_10h49.34.360,vts_reward_expectancy_bt,2022.2.4,Win32,59.95922773,Chrome,1440,810,,,,,10,1091,,,,,,,,,,,,,,,,,U,139,star,1,0,,,,,,,,,,,,,,,,repeat,letter,lettRpt,f,Hi,,,,,,0.6026,5,,,,,,,,high,4,0,4,0,1,,,,,,,,,
295543,2022-11-29_10h49.34.360,vts_reward_expectancy_bt,2022.2.4,Win32,59.95922773,Chrome,1440,810,,,,,1,1092,,,,,,,,,,,,,,,,,S,146,triangle,1,0,,,,,,,,,,,,,,,,switch,number,numSwt,j,Lo,,,,,,0.8695,5,,,,,,,,high,5,0,5,0,1,,,,,,,,,
295543,2022-11-29_10h49.34.360,vts_reward_expectancy_bt,2022.2.4,Win32,59.95922773,Chrome,1440,810,,,,,0,1092,,,,,,,,,,,,,,,,,B,167,circle,1,0,,,,,,,,,,,,,,,,repeat,number,numRpt,k,Hi,,,,,,0.9157,5,,,,,,,,high,6,0,6,0,1,,,,,,,,,
295543,2022-11-29_10h49.34.360,vts_reward_expectancy_bt,2022.2.4,Win32,59.95922773,Chrome,1440,810,,,,,0,1092,,,,,,,,,,,,,,,,,D,132,hexagon,0,0,,,,,,,,,,,,,,,,repeat,number,NA,k,Hi,,,,,,1.164,5,,,,,,,,high,7,0,7,0,1,,,,,,,,,
295543,2022-11-29_10h49.34.360,vts_reward_expectancy_bt,2022.2.4,Win32,59.95922773,Chrome,1440,810,,,,,0,1092,,,,,,,,,,,,,,,,,F,160,circle,0,1,,,,,,,,,,,,,,,,repeat,number,NA,j,Hi,,,,,,0.654,5,,,,,,,,high,8,0,8,0,1,,,,,,,,,
295543,2022-11-29_10h49.34.360,vts_reward_expectancy_bt,2022.2.4,Win32,59.95922773,Chrome,1440,810,,,,,1,1093,,,,,,,,,,,,,,,,,W,125,hexagon,1,1,,,,,,,,,,,,,,,,repeat,number,numRpt,j,Lo,,,,,,1.3476,5,,,,,,,,high,9,0,9,0,1,,,,,,,,,
295543,2022-11-29_10h49.34.360,vts_reward_expectancy_bt,2022.2.4,Win32,59.95922773,Chrome,1440,810,,,,,0,1093,,,,,,,,,,,,,,,,,H,181,triangle,0,0,,,,,,,,,,,,,,,,repeat,number,NA,j,Lo,,,,,,0.0323,5,,,,,,,,high,10,0,10,0,1,,,,,,,,,
295543,2022-11-29_10h49.34.360,vts_reward_expectancy_bt,2022.2.4,Win32,59.95922773,Chrome,1440,810,,,,,0,1093,,,,,,,,,,,,,,,,,Y,174,star,0,1,,,,,,,,,,,,,,,,switch,letter,NA,d,Lo,,,,,,0.5981,5,,,,,,,,high,11,0,11,0,1,,,,,,,,,
295543,2022-11-29_10h49.34.360,vts_reward_expectancy_bt,2022.2.4,Win32,59.95922773,Chrome,1440,810,,,,,0,1093,,,,,,,,,,,,,,,,,U,139,hexagon,0,1,,,,,,,,,,,,,,,,switch,number,NA,k,Lo,,,,,,0.547,5,,,,,,,,high,12,0,12,0,1,,,,,,,,,
295543,2022-11-29_10h49.34.360,vts_reward_expectancy_bt,2022.2.4,Win32,59.95922773,Chrome,1440,810,,,,,10,1103,,,,,,,,,,,,,,,,,S,146,circle,1,1,,,,,,,,,,,,,,,,repeat,number,numRpt,j,Hi,,,,,,0.5897,5,,,,,,,,high,13,0,13,0,1,,,,,,,,,
295543,2022-11-29_10h49.34.360,vts_reward_expectancy_bt,2022.2.4,Win32,59.95922773,Chrome,1440,810,,,,,0,1103,,,,,,,,,,,,,,,,,B,167,star,-1,0,,,,,,,,,,,,,,,,switch,no_choice,NA,,Hi,,,,,,,5,,,,,,,,high,14,0,14,0,1,,,,,,,,,
295543,2022-11-29_10h49.34.360,vts_reward_expectancy_bt,2022.2.4,Win32,59.95922773,Chrome,1440,810,,,,,10,1113,,,,,,,,,,,,,,,,,D,132,triangle,1,0,,,,,,,,,,,,,,,,switch,letter,lettSwt,d,Lo,,,,,,0.4341,5,,,,,,,,high,15,0,15,0,1,,,,,,,,,
295543,2022-11-29_10h49.34.360,vts_reward_expectancy_bt,2022.2.4,Win32,59.95922773,Chrome,1440,810,,,,,10,1123,,,,,,,,,,,,,,,,,U,125,circle,1,0,,,,,,,,,,,,,,,,switch,number,numSwt,j,Hi,,,,,,1.1195,5,,,,,,,,high,16,0,16,0,1,,,,,,,,,
295543,2022-11-29_10h49.34.360,vts_reward_expectancy_bt,2022.2.4,Win32,59.95922773,Chrome,1440,810,,,,,1,1124,,,,,,,,,,,,,,,,,B,132,triangle,1,0,,,,,,,,,,,,,,,,repeat,number,numRpt,j,Lo,,,,,,0.9567,5,,,,,,,,high,17,0,17,0,1,,,,,,,,,
295543,2022-11-29_10h49.34.360,vts_reward_expectancy_bt,2022.2.4,Win32,59.95922773,Chrome,1440,810,,,,,0,1124,,,,,,,,,,,,,,,,,D,174,star,1,0,,,,,,,,,,,,,,,,repeat,number,numRpt,k,Hi,,,,,,0.9015,5,,,,,,,,high,18,0,18,0,1,,,,,,,,,
295543,2022-11-29_10h49.34.360,vts_reward_expectancy_bt,2022.2.4,Win32,59.95922773,Chrome,1440,810,,,,,1,1125,,,,,,,,,,,,,,,,,Y,146,hexagon,1,0,,,,,,,,,,,,,,,,switch,letter,lettSwt,f,Lo,,,,,,0.7718,5,,,,,,,,high,19,0,19,0,1,,,,,,,,,
295543,2022-11-29_10h49.34.360,vts_reward_expectancy_bt,2022.2.4,Win32,59.95922773,Chrome,1440,810,,,,,1,1126,,,,,,,,,,,,,,,,,S,160,triangle,1,0,,,,,,,,,,,,,,,,switch,number,numSwt,k,Lo,,,,,,1.0645,5,,,,,,,,high,20,0,20,0,1,,,,,,,,,
295543,2022-11-29_10h49.34.360,vts_reward_expectancy_bt,2022.2.4,Win32,59.95922773,Chrome,1440,810,,,,,0,1126,,,,,,,,,,,,,,,,,W,181,star,1,0,,,,,,,,,,,,,,,,repeat,number,numRpt,k,Hi,,,,,,1.2572,5,,,,,,,,high,21,0,21,0,1,,,,,,,,,
295543,2022-11-29_10h49.34.360,vts_reward_expectancy_bt,2022.2.4,Win32,59.95922773,Chrome,1440,810,,,,,10,1136,,,,,,,,,,,,,,,,,H,139,hexagon,1,0,,,,,,,,,,,,,,,,switch,letter,lettSwt,d,Lo,,,,,,0.7641,5,,,,,,,,high,22,0,22,0,1,,,,,,,,,
295543,2022-11-29_10h49.34.360,vts_reward_expectancy_bt,2022.2.4,Win32,59.95922773,Chrome,1440,810,,,,,10,1146,,,,,,,,,,,,,,,,,F,167,circle,1,0,,,,,,,,,,,,,,,,switch,number,numSwt,k,Hi,,,,,,0.948,5,,,,,,,,high,23,0,23,0,1,,,,,,,,,
295543,2022-11-29_10h49.34.360,vts_reward_expectancy_bt,2022.2.4,Win32,59.95922773,Chrome,1440,810,,,,,0,1146,,,,,,,,,,,,,,,,,B,139,star,1,0,,,,,,,,,,,,,,,,repeat,number,numRpt,j,Hi,,,,,,1.0077,5,,,,,,,,high,24,0,24,0,1,,,,,,,,,
295543,2022-11-29_10h49.34.360,vts_reward_expectancy_bt,2022.2.4,Win32,59.95922773,Chrome,1440,810,,,,,0,1146,,,,,,,,,,,,,,,,,D,174,circle,0,0,,,,,,,,,,,,,,,,repeat,number,NA,j,Hi,,,,,,0.6354,5,,,,,,,,high,25,0,25,0,1,,,,,,,,,
295543,2022-11-29_10h49.34.360,vts_reward_expectancy_bt,2022.2.4,Win32,59.95922773,Chrome,1440,810,,,,,0,1146,,,,,,,,,,,,,,,,,H,146,triangle,0,1,,,,,,,,,,,,,,,,repeat,number,NA,k,Hi,,,,,,0.9907,5,,,,,,,,high,26,0,26,0,1,,,,,,,,,
295543,2022-11-29_10h49.34.360,vts_reward_expectancy_bt,2022.2.4,Win32,59.95922773,Chrome,1440,810,,,,,0,1146,,,,,,,,,,,,,,,,,W,181,hexagon,0,1,,,,,,,,,,,,,,,,repeat,number,NA,j,Hi,,,,,,1.2302,5,,,,,,,,high,27,0,27,0,1,,,,,,,,,
295543,2022-11-29_10h49.34.360,vts_reward_expectancy_bt,2022.2.4,Win32,59.95922773,Chrome,1440,810,,,,,0,1146,,,,,,,,,,,,,,,,,F,167,star,1,1,,,,,,,,,,,,,,,,repeat,number,numRpt,k,Hi,,,,,,1.2861,5,,,,,,,,high,28,0,28,0,1,,,,,,,,,
295543,2022-11-29_10h49.34.360,vts_reward_expectancy_bt,2022.2.4,Win32,59.95922773,Chrome,1440,810,,,,,0,1146,,,,,,,,,,,,,,,,,U,160,circle,0,0,,,,,,,,,,,,,,,,repeat,number,NA,j,Hi,,,,,,0.8894,5,,,,,,,,high,29,0,29,0,1,,,,,,,,,
295543,2022-11-29_10h49.34.360,vts_reward_expectancy_bt,2022.2.4,Win32,59.95922773,Chrome,1440,810,,,,,1,1147,,,,,,,,,,,,,,,,,Y,132,hexagon,1,1,,,,,,,,,,,,,,,,switch,letter,lettSwt,f,Lo,,,,,,0.8241,5,,,,,,,,high,30,0,30,0,1,,,,,,,,,
295543,2022-11-29_10h49.34.360,vts_reward_expectancy_bt,2022.2.4,Win32,59.95922773,Chrome,1440,810,,,,,1,1148,,,,,,,,,,,,,,,,,S,125,triangle,1,0,,,,,,,,,,,,,,,,switch,number,numSwt,j,Lo,,,,,,0.998,5,,,,,,,,high,31,0,31,0,1,,,,,,,,,
295543,2022-11-29_10h49.34.360,vts_reward_expectancy_bt,2022.2.4,Win32,59.95922773,Chrome,1440,810,,,,,0,1148,,,,,,,,,,,,,,,,,D,132,star,1,0,,,,,,,,,,,,,,,,switch,letter,lettSwt,d,Hi,,,,,,0.7521,6,,,,,,space,0.9373,high,0,0,0,0,1,,,,,,,,,
295543,2022-11-29_10h49.34.360,vts_reward_expectancy_bt,2022.2.4,Win32,59.95922773,Chrome,1440,810,,,,,0,1148,,,,,,,,,,,,,,,,,H,125,circle,0,0,,,,,,,,,,,,,,,,switch,number,NA,k,Hi,,,,,,1.0024,6,,,,,,,,high,1,0,1,0,1,,,,,,,,,
295543,2022-11-29_10h49.34.360,vts_reward_expectancy_bt,2022.2.4,Win32,59.95922773,Chrome,1440,810,,,,,1,1149,,,,,,,,,,,,,,,,,U,167,triangle,1,1,,,,,,,,,,,,,,,,repeat,number,numRpt,k,Lo,,,,,,1.0519,6,,,,,,,,high,2,0,2,0,1,,,,,,,,,
295543,2022-11-29_10h49.34.360,vts_reward_expectancy_bt,2022.2.4,Win32,59.95922773,Chrome,1440,810,,,,,10,1159,,,,,,,,,,,,,,,,,S,160,hexagon,1,0,,,,,,,,,,,,,,,,repeat,number,numRpt,k,Lo,,,,,,0.9875,6,,,,,,,,high,3,0,3,0,1,,,,,,,,,
295543,2022-11-29_10h49.34.360,vts_reward_expectancy_bt,2022.2.4,Win32,59.95922773,Chrome,1440,810,,,,,0,1159,,,,,,,,,,,,,,,,,Y,174,star,1,0,,,,,,,,,,,,,,,,repeat,number,numRpt,k,Hi,,,,,,1.2816,6,,,,,,,,high,4,0,4,0,1,,,,,,,,,
295543,2022-11-29_10h49.34.360,vts_reward_expectancy_bt,2022.2.4,Win32,59.95922773,Chrome,1440,810,,,,,0,1159,,,,,,,,,,,,,,,,,B,139,circle,0,0,,,,,,,,,,,,,,,,repeat,number,NA,k,Hi,,,,,,1.3482,6,,,,,,,,high,5,0,5,0,1,,,,,,,,,
295543,2022-11-29_10h49.34.360,vts_reward_expectancy_bt,2022.2.4,Win32,59.95922773,Chrome,1440,810,,,,,0,1159,,,,,,,,,,,,,,,,,F,181,triangle,-1,1,,,,,,,,,,,,,,,,switch,no_choice,NA,,Hi,,,,,,,6,,,,,,,,high,6,0,6,0,1,,,,,,,,,
295543,2022-11-29_10h49.34.360,vts_reward_expectancy_bt,2022.2.4,Win32,59.95922773,Chrome,1440,810,,,,,0,1159,,,,,,,,,,,,,,,,,W,146,hexagon,0,0,,,,,,,,,,,,,,,,switch,letter,NA,d,Hi,,,,,,0.4154,6,,,,,,,,high,7,0,7,0,1,,,,,,,,,
295543,2022-11-29_10h49.34.360,vts_reward_expectancy_bt,2022.2.4,Win32,59.95922773,Chrome,1440,810,,,,,1,1160,,,,,,,,,,,,,,,,,D,132,triangle,1,1,,,,,,,,,,,,,,,,repeat,letter,lettRpt,d,Lo,,,,,,1.5916,6,,,,,,,,high,8,0,8,0,1,,,,,,,,,
295543,2022-11-29_10h49.34.360,vts_reward_expectancy_bt,2022.2.4,Win32,59.95922773,Chrome,1440,810,,,,,0,1160,,,,,,,,,,,,,,,,,H,125,star,1,0,,,,,,,,,,,,,,,,switch,number,numSwt,j,Hi,,,,,,1.2474,6,,,,,,,,high,9,0,9,0,1,,,,,,,,,
295543,2022-11-29_10h49.34.360,vts_reward_expectancy_bt,2022.2.4,Win32,59.95922773,Chrome,1440,810,,,,,10,1170,,,,,,,,,,,,,,,,,U,167,hexagon,1,0,,,,,,,,,,,,,,,,repeat,number,numRpt,k,Lo,,,,,,1.1645,6,,,,,,,,high,10,0,10,0,1,,,,,,,,,
295543,2022-11-29_10h49.34.360,vts_reward_expectancy_bt,2022.2.4,Win32,59.95922773,Chrome,1440,810,,,,,0,1170,,,,,,,,,,,,,,,,,S,160,circle,0,0,,,,,,,,,,,,,,,,repeat,number,NA,j,Lo,,,,,,1.6815,6,,,,,,,,high,11,0,11,0,1,,,,,,,,,
295543,2022-11-29_10h49.34.360,vts_reward_expectancy_bt,2022.2.4,Win32,59.95922773,Chrome,1440,810,,,,,1,1171,,,,,,,,,,,,,,,,,Y,174,hexagon,1,1,,,,,,,,,,,,,,,,repeat,number,numRpt,k,Lo,,,,,,0.9552,6,,,,,,,,high,12,0,12,0,1,,,,,,,,,
295543,2022-11-29_10h49.34.360,vts_reward_expectancy_bt,2022.2.4,Win32,59.95922773,Chrome,1440,810,,,,,10,1181,,,,,,,,,,,,,,,,,B,139,circle,1,0,,,,,,,,,,,,,,,,repeat,number,numRpt,j,Hi,,,,,,0.9389,6,,,,,,,,high,13,0,13,0,1,,,,,,,,,
295543,2022-11-29_10h49.34.360,vts_reward_expectancy_bt,2022.2.4,Win32,59.95922773,Chrome,1440,810,,,,,0,1181,,,,,,,,,,,,,,,,,F,181,triangle,0,0,,,,,,,,,,,,,,,,repeat,number,NA,j,Hi,,,,,,0.9015,6,,,,,,,,high,14,0,14,0,1,,,,,,,,,
295543,2022-11-29_10h49.34.360,vts_reward_expectancy_bt,2022.2.4,Win32,59.95922773,Chrome,1440,810,,,,,0,1181,,,,,,,,,,,,,,,,,W,146,star,1,1,,,,,,,,,,,,,,,,repeat,number,numRpt,j,Hi,,,,,,1.7306,6,,,,,,,,high,15,0,15,0,1,,,,,,,,,
295543,2022-11-29_10h49.34.360,vts_reward_expectancy_bt,2022.2.4,Win32,59.95922773,Chrome,1440,810,,,,,0,1181,,,,,,,,,,,,,,,,,D,132,circle,1,0,,,,,,,,,,,,,,,,repeat,number,numRpt,j,Hi,,,,,,1.4348,6,,,,,,,,high,16,0,16,0,1,,,,,,,,,
