participant,date,expName,psychopyVersion,OS,frameRate,browser,xResolution,yResolution,key_resp.keys,key_resp.rt,training_resp.keys,training_resp.rt,points_trial,points_cumul,trainBlock,training.thisRepN,training.thisTrialN,training.thisN,training.thisIndex,training.ran,LTriangleOpac,LCircleOpac,LHexagonOpac,LStarOpac,RTriangleOpac,RCircleOpac,RHexagonOpac,RStarOpac,LShape_ID,RShape_ID,curr_topStim,curr_bottStim,curr_shape,acc,E1,target_resp_prac1.keys,target_resp_prac1.rt,pracBlock,task1_prac_trials.thisRepN,task1_prac_trials.thisTrialN,task1_prac_trials.thisN,task1_prac_trials.thisIndex,task1_prac_trials.ran,target_resp_prac2.keys,target_resp_prac2.rt,task2_praac_trials.thisRepN,task2_praac_trials.thisTrialN,task2_praac_trials.thisN,task2_praac_trials.thisIndex,task2_praac_trials.ran,alt,task,condition,target_resp.keys,target_resp.rt,rewCond,vts_practice_trials.thisRepN,vts_practice_trials.thisTrialN,vts_practice_trials.thisN,vts_practice_trials.thisIndex,vts_practice_trials.ran,blockNum,trials_norew.thisRepN,trials_norew.thisTrialN,trials_norew.thisN,trials_norew.thisIndex,trials_norew.ran,key_resp_2.keys,key_resp_2.rt,rewExpectancy,trials_rew.thisRepN,trials_rew.thisTrialN,trials_rew.thisN,trials_rew.thisIndex,trials_rew.ran,Q1,Q2,Q2_text,Q3,Q4,Q5_text,Q5,xRes,yRes
295552,2022-12-06_15h10.06.638,vts_reward_expectancy_bt,2022.2.4,Win32,164.7446458,Chrome,1536,864,,,,,,,,,,,,,,,,,,,,,,,,,,,,,,,,,,,,,,,,,,,,,,,,,,,,,,,,,,,,,,,,,,,,,,,,,,,,
295552,2022-12-06_15h10.06.638,vts_reward_expectancy_bt,2022.2.4,Win32,164.7446458,Chrome,1536,864,space,4.1605,,,,,,,,,,,,,,,,,,,,,,,,,,,,,,,,,,,,,,,,,,,,,,,,,,,,,,,,,,,,,,,,,,,,,,,,,,
295552,2022-12-06_15h10.06.638,vts_reward_expectancy_bt,2022.2.4,Win32,164.7446458,Chrome,1536,864,,,,,,,,,,,,,,,,,,,,,,,,,,,,,,,,,,,,,,,,,,,,,,,,,,,,,,,,,,,,,,,,,,,,,,,,,,,,
295552,2022-12-06_15h10.06.638,vts_reward_expectancy_bt,2022.2.4,Win32,164.7446458,Chrome,1536,864,,,a,0.8529,1,1,0,0,0,0,9,1,0,0,0,1,1,0,0,0,star,triangle,,,,,,,,,,,,,,,,,,,,,,,,,,,,,,,,,,,,,,,,,,,,,,,,,,,,,,
295552,2022-12-06_15h10.06.638,vts_reward_expectancy_bt,2022.2.4,Win32,164.7446458,Chrome,1536,864,,,l,0.4734,10,11,0,0,1,1,7,1,0,0,1,0,0,1,0,0,hexagon,circle,,,,,,,,,,,,,,,,,,,,,,,,,,,,,,,,,,,,,,,,,,,,,,,,,,,,,,
295552,2022-12-06_15h10.06.638,vts_reward_expectancy_bt,2022.2.4,Win32,164.7446458,Chrome,1536,864,,,a,0.2435,10,21,0,0,2,2,10,1,0,0,0,1,0,1,0,0,star ,circle,,,,,,,,,,,,,,,,,,,,,,,,,,,,,,,,,,,,,,,,,,,,,,,,,,,,,,
295552,2022-12-06_15h10.06.638,vts_reward_expectancy_bt,2022.2.4,Win32,164.7446458,Chrome,1536,864,,,a,2.2174,10,31,0,0,3,3,6,1,0,0,1,0,1,0,0,0,hexagon,triangle,,,,,,,,,,,,,,,,,,,,,,,,,,,,,,,,,,,,,,,,,,,,,,,,,,,,,,
295552,2022-12-06_15h10.06.638,vts_reward_expectancy_bt,2022.2.4,Win32,164.7446458,Chrome,1536,864,,,a,0.0612,1,32,0,0,4,4,8,1,0,0,1,0,0,0,0,1,hexagon,star,,,,,,,,,,,,,,,,,,,,,,,,,,,,,,,,,,,,,,,,,,,,,,,,,,,,,,
295552,2022-12-06_15h10.06.638,vts_reward_expectancy_bt,2022.2.4,Win32,164.7446458,Chrome,1536,864,,,l,0.0255,10,42,0,0,5,5,5,1,0,1,0,0,0,0,0,1,circle,star,,,,,,,,,,,,,,,,,,,,,,,,,,,,,,,,,,,,,,,,,,,,,,,,,,,,,,
295552,2022-12-06_15h10.06.638,vts_reward_expectancy_bt,2022.2.4,Win32,164.7446458,Chrome,1536,864,,,a,0.0255,10,52,0,0,6,6,1,1,1,0,0,0,0,0,1,0,triangle,hexagon,,,,,,,,,,,,,,,,,,,,,,,,,,,,,,,,,,,,,,,,,,,,,,,,,,,,,,
295552,2022-12-06_15h10.06.638,vts_reward_expectancy_bt,2022.2.4,Win32,164.7446458,Chrome,1536,864,,,a,0.4331,10,62,0,0,7,7,11,1,0,0,0,1,0,0,1,0,star,hexagon,,,,,,,,,,,,,,,,,,,,,,,,,,,,,,,,,,,,,,,,,,,,,,,,,,,,,,
295552,2022-12-06_15h10.06.638,vts_reward_expectancy_bt,2022.2.4,Win32,164.7446458,Chrome,1536,864,,,l,0.0485,1,63,0,0,8,8,3,1,0,1,0,0,1,0,0,0,circle,triangle,,,,,,,,,,,,,,,,,,,,,,,,,,,,,,,,,,,,,,,,,,,,,,,,,,,,,,
295552,2022-12-06_15h10.06.638,vts_reward_expectancy_bt,2022.2.4,Win32,164.7446458,Chrome,1536,864,,,a,0.4731,10,73,0,0,9,9,4,1,0,1,0,0,0,0,1,0,circle,hexagon,,,,,,,,,,,,,,,,,,,,,,,,,,,,,,,,,,,,,,,,,,,,,,,,,,,,,,
295552,2022-12-06_15h10.06.638,vts_reward_expectancy_bt,2022.2.4,Win32,164.7446458,Chrome,1536,864,,,l,0.2644,10,83,0,0,10,10,0,1,1,0,0,0,0,1,0,0,triangle,circle,,,,,,,,,,,,,,,,,,,,,,,,,,,,,,,,,,,,,,,,,,,,,,,,,,,,,,
295552,2022-12-06_15h10.06.638,vts_reward_expectancy_bt,2022.2.4,Win32,164.7446458,Chrome,1536,864,,,a,0.162,1,84,0,0,11,11,2,1,1,0,0,0,0,0,0,1,triangle,star,,,,,,,,,,,,,,,,,,,,,,,,,,,,,,,,,,,,,,,,,,,,,,,,,,,,,,
295552,2022-12-06_15h10.06.638,vts_reward_expectancy_bt,2022.2.4,Win32,164.7446458,Chrome,1536,864,,,l,0.0712,10,94,0,1,0,12,8,1,0,0,1,0,0,0,0,1,hexagon,star,,,,,,,,,,,,,,,,,,,,,,,,,,,,,,,,,,,,,,,,,,,,,,,,,,,,,,
295552,2022-12-06_15h10.06.638,vts_reward_expectancy_bt,2022.2.4,Win32,164.7446458,Chrome,1536,864,,,a,0.31,1,95,0,1,1,13,1,1,1,0,0,0,0,0,1,0,triangle,hexagon,,,,,,,,,,,,,,,,,,,,,,,,,,,,,,,,,,,,,,,,,,,,,,,,,,,,,,
295552,2022-12-06_15h10.06.638,vts_reward_expectancy_bt,2022.2.4,Win32,164.7446458,Chrome,1536,864,,,l,0.0953,1,96,0,1,2,14,3,1,0,1,0,0,1,0,0,0,circle,triangle,,,,,,,,,,,,,,,,,,,,,,,,,,,,,,,,,,,,,,,,,,,,,,,,,,,,,,
295552,2022-12-06_15h10.06.638,vts_reward_expectancy_bt,2022.2.4,Win32,164.7446458,Chrome,1536,864,,,a,0.1416,10,106,0,1,3,15,6,1,0,0,1,0,1,0,0,0,hexagon,triangle,,,,,,,,,,,,,,,,,,,,,,,,,,,,,,,,,,,,,,,,,,,,,,,,,,,,,,
295552,2022-12-06_15h10.06.638,vts_reward_expectancy_bt,2022.2.4,Win32,164.7446458,Chrome,1536,864,,,l,0.1496,1,107,0,1,4,16,4,1,0,1,0,0,0,0,1,0,circle,hexagon,,,,,,,,,,,,,,,,,,,,,,,,,,,,,,,,,,,,,,,,,,,,,,,,,,,,,,
295552,2022-12-06_15h10.06.638,vts_reward_expectancy_bt,2022.2.4,Win32,164.7446458,Chrome,1536,864,,,a,0.2456,1,108,0,1,5,17,10,1,0,0,0,1,0,1,0,0,star ,circle,,,,,,,,,,,,,,,,,,,,,,,,,,,,,,,,,,,,,,,,,,,,,,,,,,,,,,
295552,2022-12-06_15h10.06.638,vts_reward_expectancy_bt,2022.2.4,Win32,164.7446458,Chrome,1536,864,,,l,0.0675,10,118,0,1,6,18,11,1,0,0,0,1,0,0,1,0,star,hexagon,,,,,,,,,,,,,,,,,,,,,,,,,,,,,,,,,,,,,,,,,,,,,,,,,,,,,,
295552,2022-12-06_15h10.06.638,vts_reward_expectancy_bt,2022.2.4,Win32,164.7446458,Chrome,1536,864,,,a,0.3278,10,128,0,1,7,19,7,1,0,0,1,0,0,1,0,0,hexagon,circle,,,,,,,,,,,,,,,,,,,,,,,,,,,,,,,,,,,,,,,,,,,,,,,,,,,,,,
295552,2022-12-06_15h10.06.638,vts_reward_expectancy_bt,2022.2.4,Win32,164.7446458,Chrome,1536,864,,,l,0.3033,10,138,0,1,8,20,5,1,0,1,0,0,0,0,0,1,circle,star,,,,,,,,,,,,,,,,,,,,,,,,,,,,,,,,,,,,,,,,,,,,,,,,,,,,,,
295552,2022-12-06_15h10.06.638,vts_reward_expectancy_bt,2022.2.4,Win32,164.7446458,Chrome,1536,864,,,a,0.194,10,148,0,1,9,21,2,1,1,0,0,0,0,0,0,1,triangle,star,,,,,,,,,,,,,,,,,,,,,,,,,,,,,,,,,,,,,,,,,,,,,,,,,,,,,,
295552,2022-12-06_15h10.06.638,vts_reward_expectancy_bt,2022.2.4,Win32,164.7446458,Chrome,1536,864,,,l,0.3218,10,158,0,1,10,22,0,1,1,0,0,0,0,1,0,0,triangle,circle,,,,,,,,,,,,,,,,,,,,,,,,,,,,,,,,,,,,,,,,,,,,,,,,,,,,,,
295552,2022-12-06_15h10.06.638,vts_reward_expectancy_bt,2022.2.4,Win32,164.7446458,Chrome,1536,864,,,a,0.1338,1,159,0,1,11,23,9,1,0,0,0,1,1,0,0,0,star,triangle,,,,,,,,,,,,,,,,,,,,,,,,,,,,,,,,,,,,,,,,,,,,,,,,,,,,,,
295552,2022-12-06_15h10.06.638,vts_reward_expectancy_bt,2022.2.4,Win32,164.7446458,Chrome,1536,864,,,l,0.0981,1,160,0,2,0,24,8,1,0,0,1,0,0,0,0,1,hexagon,star,,,,,,,,,,,,,,,,,,,,,,,,,,,,,,,,,,,,,,,,,,,,,,,,,,,,,,
295552,2022-12-06_15h10.06.638,vts_reward_expectancy_bt,2022.2.4,Win32,164.7446458,Chrome,1536,864,,,a,0.1607,10,170,0,2,1,25,4,1,0,1,0,0,0,0,1,0,circle,hexagon,,,,,,,,,,,,,,,,,,,,,,,,,,,,,,,,,,,,,,,,,,,,,,,,,,,,,,
295552,2022-12-06_15h10.06.638,vts_reward_expectancy_bt,2022.2.4,Win32,164.7446458,Chrome,1536,864,,,l,0.1279,10,180,0,2,2,26,2,1,1,0,0,0,0,0,0,1,triangle,star,,,,,,,,,,,,,,,,,,,,,,,,,,,,,,,,,,,,,,,,,,,,,,,,,,,,,,
295552,2022-12-06_15h10.06.638,vts_reward_expectancy_bt,2022.2.4,Win32,164.7446458,Chrome,1536,864,,,a,0.1271,10,190,0,2,3,27,11,1,0,0,0,1,0,0,1,0,star,hexagon,,,,,,,,,,,,,,,,,,,,,,,,,,,,,,,,,,,,,,,,,,,,,,,,,,,,,,
295552,2022-12-06_15h10.06.638,vts_reward_expectancy_bt,2022.2.4,Win32,164.7446458,Chrome,1536,864,,,a,0.0567,1,191,0,2,4,28,9,1,0,0,0,1,1,0,0,0,star,triangle,,,,,,,,,,,,,,,,,,,,,,,,,,,,,,,,,,,,,,,,,,,,,,,,,,,,,,
295552,2022-12-06_15h10.06.638,vts_reward_expectancy_bt,2022.2.4,Win32,164.7446458,Chrome,1536,864,,,a,0.2014,1,192,0,2,5,29,6,1,0,0,1,0,1,0,0,0,hexagon,triangle,,,,,,,,,,,,,,,,,,,,,,,,,,,,,,,,,,,,,,,,,,,,,,,,,,,,,,
295552,2022-12-06_15h10.06.638,vts_reward_expectancy_bt,2022.2.4,Win32,164.7446458,Chrome,1536,864,,,l,0.0906,1,193,0,2,6,30,0,1,1,0,0,0,0,1,0,0,triangle,circle,,,,,,,,,,,,,,,,,,,,,,,,,,,,,,,,,,,,,,,,,,,,,,,,,,,,,,
295552,2022-12-06_15h10.06.638,vts_reward_expectancy_bt,2022.2.4,Win32,164.7446458,Chrome,1536,864,,,l,0.2186,1,194,0,2,7,31,7,1,0,0,1,0,0,1,0,0,hexagon,circle,,,,,,,,,,,,,,,,,,,,,,,,,,,,,,,,,,,,,,,,,,,,,,,,,,,,,,
295552,2022-12-06_15h10.06.638,vts_reward_expectancy_bt,2022.2.4,Win32,164.7446458,Chrome,1536,864,,,a,0.1101,1,195,0,2,8,32,3,1,0,1,0,0,1,0,0,0,circle,triangle,,,,,,,,,,,,,,,,,,,,,,,,,,,,,,,,,,,,,,,,,,,,,,,,,,,,,,
295552,2022-12-06_15h10.06.638,vts_reward_expectancy_bt,2022.2.4,Win32,164.7446458,Chrome,1536,864,,,l,0.2741,1,196,0,2,9,33,5,1,0,1,0,0,0,0,0,1,circle,star,,,,,,,,,,,,,,,,,,,,,,,,,,,,,,,,,,,,,,,,,,,,,,,,,,,,,,
295552,2022-12-06_15h10.06.638,vts_reward_expectancy_bt,2022.2.4,Win32,164.7446458,Chrome,1536,864,,,a,0.1337,1,197,0,2,10,34,1,1,1,0,0,0,0,0,1,0,triangle,hexagon,,,,,,,,,,,,,,,,,,,,,,,,,,,,,,,,,,,,,,,,,,,,,,,,,,,,,,
295552,2022-12-06_15h10.06.638,vts_reward_expectancy_bt,2022.2.4,Win32,164.7446458,Chrome,1536,864,,,l,0.8301,10,207,0,2,11,35,10,1,0,0,0,1,0,1,0,0,star ,circle,,,,,,,,,,,,,,,,,,,,,,,,,,,,,,,,,,,,,,,,,,,,,,,,,,,,,,
295552,2022-12-06_15h10.06.638,vts_reward_expectancy_bt,2022.2.4,Win32,164.7446458,Chrome,1536,864,,,l,0.8419,10,217,1,0,0,0,8,1,0,0,1,0,0,0,0,1,hexagon,star,,,,,,,,,,,,,,,,,,,,,,,,,,,,,,,,,,,,,,,,,,,,,,,,,,,,,,
295552,2022-12-06_15h10.06.638,vts_reward_expectancy_bt,2022.2.4,Win32,164.7446458,Chrome,1536,864,,,a,0.0372,1,218,1,0,1,1,6,1,0,0,1,0,1,0,0,0,hexagon,triangle,,,,,,,,,,,,,,,,,,,,,,,,,,,,,,,,,,,,,,,,,,,,,,,,,,,,,,
295552,2022-12-06_15h10.06.638,vts_reward_expectancy_bt,2022.2.4,Win32,164.7446458,Chrome,1536,864,,,l,0.0317,10,228,1,0,2,2,3,1,0,1,0,0,1,0,0,0,circle,triangle,,,,,,,,,,,,,,,,,,,,,,,,,,,,,,,,,,,,,,,,,,,,,,,,,,,,,,
295552,2022-12-06_15h10.06.638,vts_reward_expectancy_bt,2022.2.4,Win32,164.7446458,Chrome,1536,864,,,l,0.3942,1,229,1,0,3,3,7,1,0,0,1,0,0,1,0,0,hexagon,circle,,,,,,,,,,,,,,,,,,,,,,,,,,,,,,,,,,,,,,,,,,,,,,,,,,,,,,
295552,2022-12-06_15h10.06.638,vts_reward_expectancy_bt,2022.2.4,Win32,164.7446458,Chrome,1536,864,,,l,0.1405,10,239,1,0,4,4,5,1,0,1,0,0,0,0,0,1,circle,star,,,,,,,,,,,,,,,,,,,,,,,,,,,,,,,,,,,,,,,,,,,,,,,,,,,,,,
295552,2022-12-06_15h10.06.638,vts_reward_expectancy_bt,2022.2.4,Win32,164.7446458,Chrome,1536,864,,,a,0.3935,10,249,1,0,5,5,0,1,1,0,0,0,0,1,0,0,triangle,circle,,,,,,,,,,,,,,,,,,,,,,,,,,,,,,,,,,,,,,,,,,,,,,,,,,,,,,
295552,2022-12-06_15h10.06.638,vts_reward_expectancy_bt,2022.2.4,Win32,164.7446458,Chrome,1536,864,,,l,0.0613,1,250,1,0,6,6,1,1,1,0,0,0,0,0,1,0,triangle,hexagon,,,,,,,,,,,,,,,,,,,,,,,,,,,,,,,,,,,,,,,,,,,,,,,,,,,,,,
295552,2022-12-06_15h10.06.638,vts_reward_expectancy_bt,2022.2.4,Win32,164.7446458,Chrome,1536,864,,,a,0.3663,1,251,1,0,7,7,10,1,0,0,0,1,0,1,0,0,star ,circle,,,,,,,,,,,,,,,,,,,,,,,,,,,,,,,,,,,,,,,,,,,,,,,,,,,,,,
295552,2022-12-06_15h10.06.638,vts_reward_expectancy_bt,2022.2.4,Win32,164.7446458,Chrome,1536,864,,,l,0.4065,10,261,1,0,8,8,4,1,0,1,0,0,0,0,1,0,circle,hexagon,,,,,,,,,,,,,,,,,,,,,,,,,,,,,,,,,,,,,,,,,,,,,,,,,,,,,,
295552,2022-12-06_15h10.06.638,vts_reward_expectancy_bt,2022.2.4,Win32,164.7446458,Chrome,1536,864,,,a,3.5527,1,262,1,0,9,9,2,1,1,0,0,0,0,0,0,1,triangle,star,,,,,,,,,,,,,,,,,,,,,,,,,,,,,,,,,,,,,,,,,,,,,,,,,,,,,,
295552,2022-12-06_15h10.06.638,vts_reward_expectancy_bt,2022.2.4,Win32,164.7446458,Chrome,1536,864,,,l,0.128,10,272,1,0,10,10,11,1,0,0,0,1,0,0,1,0,star,hexagon,,,,,,,,,,,,,,,,,,,,,,,,,,,,,,,,,,,,,,,,,,,,,,,,,,,,,,
295552,2022-12-06_15h10.06.638,vts_reward_expectancy_bt,2022.2.4,Win32,164.7446458,Chrome,1536,864,,,l,0.1502,1,273,1,0,11,11,9,1,0,0,0,1,1,0,0,0,star,triangle,,,,,,,,,,,,,,,,,,,,,,,,,,,,,,,,,,,,,,,,,,,,,,,,,,,,,,
295552,2022-12-06_15h10.06.638,vts_reward_expectancy_bt,2022.2.4,Win32,164.7446458,Chrome,1536,864,,,a,1.3347,10,283,1,1,0,12,3,1,0,1,0,0,1,0,0,0,circle,triangle,,,,,,,,,,,,,,,,,,,,,,,,,,,,,,,,,,,,,,,,,,,,,,,,,,,,,,
295552,2022-12-06_15h10.06.638,vts_reward_expectancy_bt,2022.2.4,Win32,164.7446458,Chrome,1536,864,,,a,0.5645,10,293,1,1,1,13,11,1,0,0,0,1,0,0,1,0,star,hexagon,,,,,,,,,,,,,,,,,,,,,,,,,,,,,,,,,,,,,,,,,,,,,,,,,,,,,,
295552,2022-12-06_15h10.06.638,vts_reward_expectancy_bt,2022.2.4,Win32,164.7446458,Chrome,1536,864,,,l,0.1216,10,303,1,1,2,14,8,1,0,0,1,0,0,0,0,1,hexagon,star,,,,,,,,,,,,,,,,,,,,,,,,,,,,,,,,,,,,,,,,,,,,,,,,,,,,,,
295552,2022-12-06_15h10.06.638,vts_reward_expectancy_bt,2022.2.4,Win32,164.7446458,Chrome,1536,864,,,a,1.8129,10,313,1,1,3,15,7,1,0,0,1,0,0,1,0,0,hexagon,circle,,,,,,,,,,,,,,,,,,,,,,,,,,,,,,,,,,,,,,,,,,,,,,,,,,,,,,
295552,2022-12-06_15h10.06.638,vts_reward_expectancy_bt,2022.2.4,Win32,164.7446458,Chrome,1536,864,,,a,3.4907,10,323,1,1,4,16,10,1,0,0,0,1,0,1,0,0,star ,circle,,,,,,,,,,,,,,,,,,,,,,,,,,,,,,,,,,,,,,,,,,,,,,,,,,,,,,
295552,2022-12-06_15h10.06.638,vts_reward_expectancy_bt,2022.2.4,Win32,164.7446458,Chrome,1536,864,,,l,0.6958,1,324,1,1,5,17,2,1,1,0,0,0,0,0,0,1,triangle,star,,,,,,,,,,,,,,,,,,,,,,,,,,,,,,,,,,,,,,,,,,,,,,,,,,,,,,
295552,2022-12-06_15h10.06.638,vts_reward_expectancy_bt,2022.2.4,Win32,164.7446458,Chrome,1536,864,,,a,0.5432,10,334,1,1,6,18,9,1,0,0,0,1,1,0,0,0,star,triangle,,,,,,,,,,,,,,,,,,,,,,,,,,,,,,,,,,,,,,,,,,,,,,,,,,,,,,
295552,2022-12-06_15h10.06.638,vts_reward_expectancy_bt,2022.2.4,Win32,164.7446458,Chrome,1536,864,,,l,0.4325,10,344,1,1,7,19,0,1,1,0,0,0,0,1,0,0,triangle,circle,,,,,,,,,,,,,,,,,,,,,,,,,,,,,,,,,,,,,,,,,,,,,,,,,,,,,,
295552,2022-12-06_15h10.06.638,vts_reward_expectancy_bt,2022.2.4,Win32,164.7446458,Chrome,1536,864,,,l,0.4196,1,345,1,1,8,20,4,1,0,1,0,0,0,0,1,0,circle,hexagon,,,,,,,,,,,,,,,,,,,,,,,,,,,,,,,,,,,,,,,,,,,,,,,,,,,,,,
295552,2022-12-06_15h10.06.638,vts_reward_expectancy_bt,2022.2.4,Win32,164.7446458,Chrome,1536,864,,,a,0.3175,1,346,1,1,9,21,1,1,1,0,0,0,0,0,1,0,triangle,hexagon,,,,,,,,,,,,,,,,,,,,,,,,,,,,,,,,,,,,,,,,,,,,,,,,,,,,,,
295552,2022-12-06_15h10.06.638,vts_reward_expectancy_bt,2022.2.4,Win32,164.7446458,Chrome,1536,864,,,l,0.2609,10,356,1,1,10,22,6,1,0,0,1,0,1,0,0,0,hexagon,triangle,,,,,,,,,,,,,,,,,,,,,,,,,,,,,,,,,,,,,,,,,,,,,,,,,,,,,,
295552,2022-12-06_15h10.06.638,vts_reward_expectancy_bt,2022.2.4,Win32,164.7446458,Chrome,1536,864,,,a,0.5432,10,366,1,1,11,23,5,1,0,1,0,0,0,0,0,1,circle,star,,,,,,,,,,,,,,,,,,,,,,,,,,,,,,,,,,,,,,,,,,,,,,,,,,,,,,
295552,2022-12-06_15h10.06.638,vts_reward_expectancy_bt,2022.2.4,Win32,164.7446458,Chrome,1536,864,,,a,0.3835,10,376,1,2,0,24,6,1,0,0,1,0,1,0,0,0,hexagon,triangle,,,,,,,,,,,,,,,,,,,,,,,,,,,,,,,,,,,,,,,,,,,,,,,,,,,,,,
295552,2022-12-06_15h10.06.638,vts_reward_expectancy_bt,2022.2.4,Win32,164.7446458,Chrome,1536,864,,,l,0.5764,1,377,1,2,1,25,0,1,1,0,0,0,0,1,0,0,triangle,circle,,,,,,,,,,,,,,,,,,,,,,,,,,,,,,,,,,,,,,,,,,,,,,,,,,,,,,
295552,2022-12-06_15h10.06.638,vts_reward_expectancy_bt,2022.2.4,Win32,164.7446458,Chrome,1536,864,,,a,0.3153,10,387,1,2,2,26,5,1,0,1,0,0,0,0,0,1,circle,star,,,,,,,,,,,,,,,,,,,,,,,,,,,,,,,,,,,,,,,,,,,,,,,,,,,,,,
295552,2022-12-06_15h10.06.638,vts_reward_expectancy_bt,2022.2.4,Win32,164.7446458,Chrome,1536,864,,,l,0.1884,10,397,1,2,3,27,1,1,1,0,0,0,0,0,1,0,triangle,hexagon,,,,,,,,,,,,,,,,,,,,,,,,,,,,,,,,,,,,,,,,,,,,,,,,,,,,,,
295552,2022-12-06_15h10.06.638,vts_reward_expectancy_bt,2022.2.4,Win32,164.7446458,Chrome,1536,864,,,a,0.1763,1,398,1,2,4,28,11,1,0,0,0,1,0,0,1,0,star,hexagon,,,,,,,,,,,,,,,,,,,,,,,,,,,,,,,,,,,,,,,,,,,,,,,,,,,,,,
295552,2022-12-06_15h10.06.638,vts_reward_expectancy_bt,2022.2.4,Win32,164.7446458,Chrome,1536,864,,,l,0.0791,10,408,1,2,5,29,8,1,0,0,1,0,0,0,0,1,hexagon,star,,,,,,,,,,,,,,,,,,,,,,,,,,,,,,,,,,,,,,,,,,,,,,,,,,,,,,
295552,2022-12-06_15h10.06.638,vts_reward_expectancy_bt,2022.2.4,Win32,164.7446458,Chrome,1536,864,,,l,0.103,1,409,1,2,6,30,10,1,0,0,0,1,0,1,0,0,star ,circle,,,,,,,,,,,,,,,,,,,,,,,,,,,,,,,,,,,,,,,,,,,,,,,,,,,,,,
295552,2022-12-06_15h10.06.638,vts_reward_expectancy_bt,2022.2.4,Win32,164.7446458,Chrome,1536,864,,,a,0.1456,1,410,1,2,7,31,2,1,1,0,0,0,0,0,0,1,triangle,star,,,,,,,,,,,,,,,,,,,,,,,,,,,,,,,,,,,,,,,,,,,,,,,,,,,,,,
295552,2022-12-06_15h10.06.638,vts_reward_expectancy_bt,2022.2.4,Win32,164.7446458,Chrome,1536,864,,,l,0.0614,10,420,1,2,8,32,3,1,0,1,0,0,1,0,0,0,circle,triangle,,,,,,,,,,,,,,,,,,,,,,,,,,,,,,,,,,,,,,,,,,,,,,,,,,,,,,
295552,2022-12-06_15h10.06.638,vts_reward_expectancy_bt,2022.2.4,Win32,164.7446458,Chrome,1536,864,,,l,0.0429,10,430,1,2,9,33,7,1,0,0,1,0,0,1,0,0,hexagon,circle,,,,,,,,,,,,,,,,,,,,,,,,,,,,,,,,,,,,,,,,,,,,,,,,,,,,,,
295552,2022-12-06_15h10.06.638,vts_reward_expectancy_bt,2022.2.4,Win32,164.7446458,Chrome,1536,864,,,l,0.1096,1,431,1,2,10,34,9,1,0,0,0,1,1,0,0,0,star,triangle,,,,,,,,,,,,,,,,,,,,,,,,,,,,,,,,,,,,,,,,,,,,,,,,,,,,,,
295552,2022-12-06_15h10.06.638,vts_reward_expectancy_bt,2022.2.4,Win32,164.7446458,Chrome,1536,864,,,a,0.0612,10,441,1,2,11,35,4,1,0,1,0,0,0,0,1,0,circle,hexagon,,,,,,,,,,,,,,,,,,,,,,,,,,,,,,,,,,,,,,,,,,,,,,,,,,,,,,
295552,2022-12-06_15h10.06.638,vts_reward_expectancy_bt,2022.2.4,Win32,164.7446458,Chrome,1536,864,,,a,0.531,10,451,2,0,0,0,5,1,0,1,0,0,0,0,0,1,circle,star,,,,,,,,,,,,,,,,,,,,,,,,,,,,,,,,,,,,,,,,,,,,,,,,,,,,,,
295552,2022-12-06_15h10.06.638,vts_reward_expectancy_bt,2022.2.4,Win32,164.7446458,Chrome,1536,864,,,l,0.082,1,452,2,0,1,1,3,1,0,1,0,0,1,0,0,0,circle,triangle,,,,,,,,,,,,,,,,,,,,,,,,,,,,,,,,,,,,,,,,,,,,,,,,,,,,,,
295552,2022-12-06_15h10.06.638,vts_reward_expectancy_bt,2022.2.4,Win32,164.7446458,Chrome,1536,864,,,a,3.3941,10,462,2,0,2,2,0,1,1,0,0,0,0,1,0,0,triangle,circle,,,,,,,,,,,,,,,,,,,,,,,,,,,,,,,,,,,,,,,,,,,,,,,,,,,,,,
295552,2022-12-06_15h10.06.638,vts_reward_expectancy_bt,2022.2.4,Win32,164.7446458,Chrome,1536,864,,,a,0.1378,10,472,2,0,3,3,8,1,0,0,1,0,0,0,0,1,hexagon,star,,,,,,,,,,,,,,,,,,,,,,,,,,,,,,,,,,,,,,,,,,,,,,,,,,,,,,
295552,2022-12-06_15h10.06.638,vts_reward_expectancy_bt,2022.2.4,Win32,164.7446458,Chrome,1536,864,,,a,0.0176,1,473,2,0,4,4,7,1,0,0,1,0,0,1,0,0,hexagon,circle,,,,,,,,,,,,,,,,,,,,,,,,,,,,,,,,,,,,,,,,,,,,,,,,,,,,,,
295552,2022-12-06_15h10.06.638,vts_reward_expectancy_bt,2022.2.4,Win32,164.7446458,Chrome,1536,864,,,l,0.1091,1,474,2,0,5,5,1,1,1,0,0,0,0,0,1,0,triangle,hexagon,,,,,,,,,,,,,,,,,,,,,,,,,,,,,,,,,,,,,,,,,,,,,,,,,,,,,,
295552,2022-12-06_15h10.06.638,vts_reward_expectancy_bt,2022.2.4,Win32,164.7446458,Chrome,1536,864,,,l,0.3158,1,475,2,0,6,6,2,1,1,0,0,0,0,0,0,1,triangle,star,,,,,,,,,,,,,,,,,,,,,,,,,,,,,,,,,,,,,,,,,,,,,,,,,,,,,,
295552,2022-12-06_15h10.06.638,vts_reward_expectancy_bt,2022.2.4,Win32,164.7446458,Chrome,1536,864,,,l,0.0126,10,485,2,0,7,7,10,1,0,0,0,1,0,1,0,0,star ,circle,,,,,,,,,,,,,,,,,,,,,,,,,,,,,,,,,,,,,,,,,,,,,,,,,,,,,,
295552,2022-12-06_15h10.06.638,vts_reward_expectancy_bt,2022.2.4,Win32,164.7446458,Chrome,1536,864,,,a,0.0973,1,486,2,0,8,8,4,1,0,1,0,0,0,0,1,0,circle,hexagon,,,,,,,,,,,,,,,,,,,,,,,,,,,,,,,,,,,,,,,,,,,,,,,,,,,,,,
295552,2022-12-06_15h10.06.638,vts_reward_expectancy_bt,2022.2.4,Win32,164.7446458,Chrome,1536,864,,,l,0.1151,1,487,2,0,9,9,9,1,0,0,0,1,1,0,0,0,star,triangle,,,,,,,,,,,,,,,,,,,,,,,,,,,,,,,,,,,,,,,,,,,,,,,,,,,,,,
295552,2022-12-06_15h10.06.638,vts_reward_expectancy_bt,2022.2.4,Win32,164.7446458,Chrome,1536,864,,,l,0.4146,10,497,2,0,10,10,11,1,0,0,0,1,0,0,1,0,star,hexagon,,,,,,,,,,,,,,,,,,,,,,,,,,,,,,,,,,,,,,,,,,,,,,,,,,,,,,
295552,2022-12-06_15h10.06.638,vts_reward_expectancy_bt,2022.2.4,Win32,164.7446458,Chrome,1536,864,,,l,0.1882,1,498,2,0,11,11,6,1,0,0,1,0,1,0,0,0,hexagon,triangle,,,,,,,,,,,,,,,,,,,,,,,,,,,,,,,,,,,,,,,,,,,,,,,,,,,,,,
295552,2022-12-06_15h10.06.638,vts_reward_expectancy_bt,2022.2.4,Win32,164.7446458,Chrome,1536,864,,,a,0.1924,10,508,2,1,0,12,5,1,0,1,0,0,0,0,0,1,circle,star,,,,,,,,,,,,,,,,,,,,,,,,,,,,,,,,,,,,,,,,,,,,,,,,,,,,,,
295552,2022-12-06_15h10.06.638,vts_reward_expectancy_bt,2022.2.4,Win32,164.7446458,Chrome,1536,864,,,l,0.1648,1,509,2,1,1,13,7,1,0,0,1,0,0,1,0,0,hexagon,circle,,,,,,,,,,,,,,,,,,,,,,,,,,,,,,,,,,,,,,,,,,,,,,,,,,,,,,
295552,2022-12-06_15h10.06.638,vts_reward_expectancy_bt,2022.2.4,Win32,164.7446458,Chrome,1536,864,,,a,0.0132,1,510,2,1,2,14,0,1,1,0,0,0,0,1,0,0,triangle,circle,,,,,,,,,,,,,,,,,,,,,,,,,,,,,,,,,,,,,,,,,,,,,,,,,,,,,,
295552,2022-12-06_15h10.06.638,vts_reward_expectancy_bt,2022.2.4,Win32,164.7446458,Chrome,1536,864,,,a,0.0016,1,511,2,1,3,15,2,1,1,0,0,0,0,0,0,1,triangle,star,,,,,,,,,,,,,,,,,,,,,,,,,,,,,,,,,,,,,,,,,,,,,,,,,,,,,,
295552,2022-12-06_15h10.06.638,vts_reward_expectancy_bt,2022.2.4,Win32,164.7446458,Chrome,1536,864,,,l,0.1087,1,512,2,1,4,16,1,1,1,0,0,0,0,0,1,0,triangle,hexagon,,,,,,,,,,,,,,,,,,,,,,,,,,,,,,,,,,,,,,,,,,,,,,,,,,,,,,
295552,2022-12-06_15h10.06.638,vts_reward_expectancy_bt,2022.2.4,Win32,164.7446458,Chrome,1536,864,,,a,0.0751,1,513,2,1,5,17,10,1,0,0,0,1,0,1,0,0,star ,circle,,,,,,,,,,,,,,,,,,,,,,,,,,,,,,,,,,,,,,,,,,,,,,,,,,,,,,
295552,2022-12-06_15h10.06.638,vts_reward_expectancy_bt,2022.2.4,Win32,164.7446458,Chrome,1536,864,,,a,0.1214,10,523,2,1,6,18,8,1,0,0,1,0,0,0,0,1,hexagon,star,,,,,,,,,,,,,,,,,,,,,,,,,,,,,,,,,,,,,,,,,,,,,,,,,,,,,,
295552,2022-12-06_15h10.06.638,vts_reward_expectancy_bt,2022.2.4,Win32,164.7446458,Chrome,1536,864,,,a,0.3214,10,533,2,1,7,19,3,1,0,1,0,0,1,0,0,0,circle,triangle,,,,,,,,,,,,,,,,,,,,,,,,,,,,,,,,,,,,,,,,,,,,,,,,,,,,,,
295552,2022-12-06_15h10.06.638,vts_reward_expectancy_bt,2022.2.4,Win32,164.7446458,Chrome,1536,864,,,l,0.1035,1,534,2,1,8,20,9,1,0,0,0,1,1,0,0,0,star,triangle,,,,,,,,,,,,,,,,,,,,,,,,,,,,,,,,,,,,,,,,,,,,,,,,,,,,,,
295552,2022-12-06_15h10.06.638,vts_reward_expectancy_bt,2022.2.4,Win32,164.7446458,Chrome,1536,864,,,l,0.1038,10,544,2,1,9,21,6,1,0,0,1,0,1,0,0,0,hexagon,triangle,,,,,,,,,,,,,,,,,,,,,,,,,,,,,,,,,,,,,,,,,,,,,,,,,,,,,,
295552,2022-12-06_15h10.06.638,vts_reward_expectancy_bt,2022.2.4,Win32,164.7446458,Chrome,1536,864,,,a,0.0856,1,545,2,1,10,22,4,1,0,1,0,0,0,0,1,0,circle,hexagon,,,,,,,,,,,,,,,,,,,,,,,,,,,,,,,,,,,,,,,,,,,,,,,,,,,,,,
295552,2022-12-06_15h10.06.638,vts_reward_expectancy_bt,2022.2.4,Win32,164.7446458,Chrome,1536,864,,,l,0.1336,10,555,2,1,11,23,11,1,0,0,0,1,0,0,1,0,star,hexagon,,,,,,,,,,,,,,,,,,,,,,,,,,,,,,,,,,,,,,,,,,,,,,,,,,,,,,
295552,2022-12-06_15h10.06.638,vts_reward_expectancy_bt,2022.2.4,Win32,164.7446458,Chrome,1536,864,,,l,0.3146,1,556,2,2,0,24,7,1,0,0,1,0,0,1,0,0,hexagon,circle,,,,,,,,,,,,,,,,,,,,,,,,,,,,,,,,,,,,,,,,,,,,,,,,,,,,,,
295552,2022-12-06_15h10.06.638,vts_reward_expectancy_bt,2022.2.4,Win32,164.7446458,Chrome,1536,864,,,l,0.6552,10,566,2,2,1,25,0,1,1,0,0,0,0,1,0,0,triangle,circle,,,,,,,,,,,,,,,,,,,,,,,,,,,,,,,,,,,,,,,,,,,,,,,,,,,,,,
295552,2022-12-06_15h10.06.638,vts_reward_expectancy_bt,2022.2.4,Win32,164.7446458,Chrome,1536,864,,,l,0.5105,1,567,2,2,2,26,10,1,0,0,0,1,0,1,0,0,star ,circle,,,,,,,,,,,,,,,,,,,,,,,,,,,,,,,,,,,,,,,,,,,,,,,,,,,,,,
295552,2022-12-06_15h10.06.638,vts_reward_expectancy_bt,2022.2.4,Win32,164.7446458,Chrome,1536,864,,,a,0.1215,10,577,2,2,3,27,1,1,1,0,0,0,0,0,1,0,triangle,hexagon,,,,,,,,,,,,,,,,,,,,,,,,,,,,,,,,,,,,,,,,,,,,,,,,,,,,,,
295552,2022-12-06_15h10.06.638,vts_reward_expectancy_bt,2022.2.4,Win32,164.7446458,Chrome,1536,864,,,a,0.1218,10,587,2,2,4,28,6,1,0,0,1,0,1,0,0,0,hexagon,triangle,,,,,,,,,,,,,,,,,,,,,,,,,,,,,,,,,,,,,,,,,,,,,,,,,,,,,,
295552,2022-12-06_15h10.06.638,vts_reward_expectancy_bt,2022.2.4,Win32,164.7446458,Chrome,1536,864,,,l,0.3881,10,597,2,2,5,29,4,1,0,1,0,0,0,0,1,0,circle,hexagon,,,,,,,,,,,,,,,,,,,,,,,,,,,,,,,,,,,,,,,,,,,,,,,,,,,,,,
295552,2022-12-06_15h10.06.638,vts_reward_expectancy_bt,2022.2.4,Win32,164.7446458,Chrome,1536,864,,,l,0.0734,1,598,2,2,6,30,8,1,0,0,1,0,0,0,0,1,hexagon,star,,,,,,,,,,,,,,,,,,,,,,,,,,,,,,,,,,,,,,,,,,,,,,,,,,,,,,
295552,2022-12-06_15h10.06.638,vts_reward_expectancy_bt,2022.2.4,Win32,164.7446458,Chrome,1536,864,,,a,0.2121,10,608,2,2,7,31,5,1,0,1,0,0,0,0,0,1,circle,star,,,,,,,,,,,,,,,,,,,,,,,,,,,,,,,,,,,,,,,,,,,,,,,,,,,,,,
295552,2022-12-06_15h10.06.638,vts_reward_expectancy_bt,2022.2.4,Win32,164.7446458,Chrome,1536,864,,,l,0.3638,1,609,2,2,8,32,11,1,0,0,0,1,0,0,1,0,star,hexagon,,,,,,,,,,,,,,,,,,,,,,,,,,,,,,,,,,,,,,,,,,,,,,,,,,,,,,
295552,2022-12-06_15h10.06.638,vts_reward_expectancy_bt,2022.2.4,Win32,164.7446458,Chrome,1536,864,,,a,0.1272,1,610,2,2,9,33,2,1,1,0,0,0,0,0,0,1,triangle,star,,,,,,,,,,,,,,,,,,,,,,,,,,,,,,,,,,,,,,,,,,,,,,,,,,,,,,
295552,2022-12-06_15h10.06.638,vts_reward_expectancy_bt,2022.2.4,Win32,164.7446458,Chrome,1536,864,,,l,0.0554,10,620,2,2,10,34,3,1,0,1,0,0,1,0,0,0,circle,triangle,,,,,,,,,,,,,,,,,,,,,,,,,,,,,,,,,,,,,,,,,,,,,,,,,,,,,,
295552,2022-12-06_15h10.06.638,vts_reward_expectancy_bt,2022.2.4,Win32,164.7446458,Chrome,1536,864,,,a,0.182,10,630,2,2,11,35,9,1,0,0,0,1,1,0,0,0,star,triangle,,,,,,,,,,,,,,,,,,,,,,,,,,,,,,,,,,,,,,,,,,,,,,,,,,,,,,
295552,2022-12-06_15h10.06.638,vts_reward_expectancy_bt,2022.2.4,Win32,164.7446458,Chrome,1536,864,,,,,,,,,,,,,,,,,,,,,,,U,167,circle,0,0,d,0.4011,0,0,0,0,0,1,,,,,,,,,,,,,,,,,,,,,,,,,,,,,,,,,,,,,,,,,
295552,2022-12-06_15h10.06.638,vts_reward_expectancy_bt,2022.2.4,Win32,164.7446458,Chrome,1536,864,,,,,,,,,,,,,,,,,,,,,,,S,125,hexagon,1,1,f,0.2064,0,1,0,1,0,1,,,,,,,,,,,,,,,,,,,,,,,,,,,,,,,,,,,,,,,,,
295552,2022-12-06_15h10.06.638,vts_reward_expectancy_bt,2022.2.4,Win32,164.7446458,Chrome,1536,864,,,,,,,,,,,,,,,,,,,,,,,H,139,star,1,0,d,0.0793,0,2,0,2,0,1,,,,,,,,,,,,,,,,,,,,,,,,,,,,,,,,,,,,,,,,,
295552,2022-12-06_15h10.06.638,vts_reward_expectancy_bt,2022.2.4,Win32,164.7446458,Chrome,1536,864,,,,,,,,,,,,,,,,,,,,,,,B,132,triangle,0,0,f,0.2153,0,3,0,3,0,1,,,,,,,,,,,,,,,,,,,,,,,,,,,,,,,,,,,,,,,,,
295552,2022-12-06_15h10.06.638,vts_reward_expectancy_bt,2022.2.4,Win32,164.7446458,Chrome,1536,864,,,,,,,,,,,,,,,,,,,,,,,Y,160,circle,0,1,d,0.334,0,4,0,4,0,1,,,,,,,,,,,,,,,,,,,,,,,,,,,,,,,,,,,,,,,,,
295552,2022-12-06_15h10.06.638,vts_reward_expectancy_bt,2022.2.4,Win32,164.7446458,Chrome,1536,864,,,,,,,,,,,,,,,,,,,,,,,D,174,hexagon,1,1,d,2.7244,0,5,0,5,0,1,,,,,,,,,,,,,,,,,,,,,,,,,,,,,,,,,,,,,,,,,
295552,2022-12-06_15h10.06.638,vts_reward_expectancy_bt,2022.2.4,Win32,164.7446458,Chrome,1536,864,,,,,,,,,,,,,,,,,,,,,,,W,181,star,1,0,f,0.2974,0,6,0,6,0,1,,,,,,,,,,,,,,,,,,,,,,,,,,,,,,,,,,,,,,,,,
295552,2022-12-06_15h10.06.638,vts_reward_expectancy_bt,2022.2.4,Win32,164.7446458,Chrome,1536,864,,,,,,,,,,,,,,,,,,,,,,,F,146,triangle,0,0,f,2.4321,0,7,0,7,0,1,,,,,,,,,,,,,,,,,,,,,,,,,,,,,,,,,,,,,,,,,
295552,2022-12-06_15h10.06.638,vts_reward_expectancy_bt,2022.2.4,Win32,164.7446458,Chrome,1536,864,,,,,,,,,,,,,,,,,,,,,,,U,167,circle,1,1,f,0.14,0,8,0,8,0,1,,,,,,,,,,,,,,,,,,,,,,,,,,,,,,,,,,,,,,,,,
295552,2022-12-06_15h10.06.638,vts_reward_expectancy_bt,2022.2.4,Win32,164.7446458,Chrome,1536,864,,,,,,,,,,,,,,,,,,,,,,,S,125,hexagon,0,0,d,0.5065,0,9,0,9,0,1,,,,,,,,,,,,,,,,,,,,,,,,,,,,,,,,,,,,,,,,,
295552,2022-12-06_15h10.06.638,vts_reward_expectancy_bt,2022.2.4,Win32,164.7446458,Chrome,1536,864,,,,,,,,,,,,,,,,,,,,,,,F,174,star,1,1,d,0.4303,1,0,0,0,0,1,,,,,,,,,,,,,,,,,,,,,,,,,,,,,,,,,,,,,,,,,
295552,2022-12-06_15h10.06.638,vts_reward_expectancy_bt,2022.2.4,Win32,164.7446458,Chrome,1536,864,,,,,,,,,,,,,,,,,,,,,,,Y,139,circle,1,0,f,0.4421,1,1,0,1,0,1,,,,,,,,,,,,,,,,,,,,,,,,,,,,,,,,,,,,,,,,,
295552,2022-12-06_15h10.06.638,vts_reward_expectancy_bt,2022.2.4,Win32,164.7446458,Chrome,1536,864,,,,,,,,,,,,,,,,,,,,,,,S,132,hexagon,1,0,f,0.6476,1,2,0,2,0,1,,,,,,,,,,,,,,,,,,,,,,,,,,,,,,,,,,,,,,,,,
295552,2022-12-06_15h10.06.638,vts_reward_expectancy_bt,2022.2.4,Win32,164.7446458,Chrome,1536,864,,,,,,,,,,,,,,,,,,,,,,,W,181,triangle,0,0,d,0.3315,1,3,0,3,0,1,,,,,,,,,,,,,,,,,,,,,,,,,,,,,,,,,,,,,,,,,
295552,2022-12-06_15h10.06.638,vts_reward_expectancy_bt,2022.2.4,Win32,164.7446458,Chrome,1536,864,,,,,,,,,,,,,,,,,,,,,,,H,146,star,0,1,f,0.1729,1,4,0,4,0,1,,,,,,,,,,,,,,,,,,,,,,,,,,,,,,,,,,,,,,,,,
295552,2022-12-06_15h10.06.638,vts_reward_expectancy_bt,2022.2.4,Win32,164.7446458,Chrome,1536,864,,,,,,,,,,,,,,,,,,,,,,,B,125,circle,1,1,d,0.1987,1,5,0,5,0,1,,,,,,,,,,,,,,,,,,,,,,,,,,,,,,,,,,,,,,,,,
295552,2022-12-06_15h10.06.638,vts_reward_expectancy_bt,2022.2.4,Win32,164.7446458,Chrome,1536,864,,,,,,,,,,,,,,,,,,,,,,,U,167,hexagon,0,0,d,0.2703,1,6,0,6,0,1,,,,,,,,,,,,,,,,,,,,,,,,,,,,,,,,,,,,,,,,,
295552,2022-12-06_15h10.06.638,vts_reward_expectancy_bt,2022.2.4,Win32,164.7446458,Chrome,1536,864,,,,,,,,,,,,,,,,,,,,,,,D,160,triangle,0,1,f,0.2607,1,7,0,7,0,1,,,,,,,,,,,,,,,,,,,,,,,,,,,,,,,,,,,,,,,,,
295552,2022-12-06_15h10.06.638,vts_reward_expectancy_bt,2022.2.4,Win32,164.7446458,Chrome,1536,864,,,,,,,,,,,,,,,,,,,,,,,F,174,circle,0,1,f,0.2366,1,8,0,8,0,1,,,,,,,,,,,,,,,,,,,,,,,,,,,,,,,,,,,,,,,,,
295552,2022-12-06_15h10.06.638,vts_reward_expectancy_bt,2022.2.4,Win32,164.7446458,Chrome,1536,864,,,,,,,,,,,,,,,,,,,,,,,Y,139,star,0,1,d,0.2299,1,9,0,9,0,1,,,,,,,,,,,,,,,,,,,,,,,,,,,,,,,,,,,,,,,,,
295552,2022-12-06_15h10.06.638,vts_reward_expectancy_bt,2022.2.4,Win32,164.7446458,Chrome,1536,864,,,,,,,,,,,,,,,,,,,,,,,F,167,star,1,1,d,0.4829,2,0,0,0,0,1,,,,,,,,,,,,,,,,,,,,,,,,,,,,,,,,,,,,,,,,,
295552,2022-12-06_15h10.06.638,vts_reward_expectancy_bt,2022.2.4,Win32,164.7446458,Chrome,1536,864,,,,,,,,,,,,,,,,,,,,,,,W,160,hexagon,1,0,f,0.5282,2,1,0,1,0,1,,,,,,,,,,,,,,,,,,,,,,,,,,,,,,,,,,,,,,,,,
295552,2022-12-06_15h10.06.638,vts_reward_expectancy_bt,2022.2.4,Win32,164.7446458,Chrome,1536,864,,,,,,,,,,,,,,,,,,,,,,,D,139,circle,1,0,d,0.4612,2,2,0,2,0,1,,,,,,,,,,,,,,,,,,,,,,,,,,,,,,,,,,,,,,,,,
295552,2022-12-06_15h10.06.638,vts_reward_expectancy_bt,2022.2.4,Win32,164.7446458,Chrome,1536,864,,,,,,,,,,,,,,,,,,,,,,,S,174,triangle,1,0,f,0.4679,2,3,0,3,0,1,,,,,,,,,,,,,,,,,,,,,,,,,,,,,,,,,,,,,,,,,
295552,2022-12-06_15h10.06.638,vts_reward_expectancy_bt,2022.2.4,Win32,164.7446458,Chrome,1536,864,,,,,,,,,,,,,,,,,,,,,,,Y,125,star,1,0,f,0.5703,2,4,0,4,0,1,,,,,,,,,,,,,,,,,,,,,,,,,,,,,,,,,,,,,,,,,
295552,2022-12-06_15h10.06.638,vts_reward_expectancy_bt,2022.2.4,Win32,164.7446458,Chrome,1536,864,,,,,,,,,,,,,,,,,,,,,,,B,181,hexagon,0,0,f,0.3662,2,5,0,5,0,1,,,,,,,,,,,,,,,,,,,,,,,,,,,,,,,,,,,,,,,,,
295552,2022-12-06_15h10.06.638,vts_reward_expectancy_bt,2022.2.4,Win32,164.7446458,Chrome,1536,864,,,,,,,,,,,,,,,,,,,,,,,H,132,circle,1,1,d,0.6066,2,6,0,6,0,1,,,,,,,,,,,,,,,,,,,,,,,,,,,,,,,,,,,,,,,,,
295552,2022-12-06_15h10.06.638,vts_reward_expectancy_bt,2022.2.4,Win32,164.7446458,Chrome,1536,864,,,,,,,,,,,,,,,,,,,,,,,U,146,triangle,1,0,f,0.6157,2,7,0,7,0,1,,,,,,,,,,,,,,,,,,,,,,,,,,,,,,,,,,,,,,,,,
295552,2022-12-06_15h10.06.638,vts_reward_expectancy_bt,2022.2.4,Win32,164.7446458,Chrome,1536,864,,,,,,,,,,,,,,,,,,,,,,,F,167,circle,1,0,d,0.5766,2,8,0,8,0,1,,,,,,,,,,,,,,,,,,,,,,,,,,,,,,,,,,,,,,,,,
295552,2022-12-06_15h10.06.638,vts_reward_expectancy_bt,2022.2.4,Win32,164.7446458,Chrome,1536,864,,,,,,,,,,,,,,,,,,,,,,,W,160,hexagon,1,0,f,0.5697,2,9,0,9,0,1,,,,,,,,,,,,,,,,,,,,,,,,,,,,,,,,,,,,,,,,,
295552,2022-12-06_15h10.06.638,vts_reward_expectancy_bt,2022.2.4,Win32,164.7446458,Chrome,1536,864,,,,,,,,,,,,,,,,,,,,,,,D,132,hexagon,2,0,,,3,,,,,,f,1.0856,0,0,0,0,1,,,,,,,,,,,,,,,,,,,,,,,,,,,,,,,,,,
295552,2022-12-06_15h10.06.638,vts_reward_expectancy_bt,2022.2.4,Win32,164.7446458,Chrome,1536,864,,,,,,,,,,,,,,,,,,,,,,,Y,181,triangle,0,0,,,3,,,,,,j,0.4647,1,0,1,0,1,,,,,,,,,,,,,,,,,,,,,,,,,,,,,,,,,,
295552,2022-12-06_15h10.06.638,vts_reward_expectancy_bt,2022.2.4,Win32,164.7446458,Chrome,1536,864,,,,,,,,,,,,,,,,,,,,,,,W,146,star,2,1,,,3,,,,,,d,0.1979,2,0,2,0,1,,,,,,,,,,,,,,,,,,,,,,,,,,,,,,,,,,
295552,2022-12-06_15h10.06.638,vts_reward_expectancy_bt,2022.2.4,Win32,164.7446458,Chrome,1536,864,,,,,,,,,,,,,,,,,,,,,,,U,174,circle,2,0,,,3,,,,,,d,0.593,3,0,3,0,1,,,,,,,,,,,,,,,,,,,,,,,,,,,,,,,,,,
295552,2022-12-06_15h10.06.638,vts_reward_expectancy_bt,2022.2.4,Win32,164.7446458,Chrome,1536,864,,,,,,,,,,,,,,,,,,,,,,,H,160,hexagon,0,0,,,3,,,,,,j,0.22,4,0,4,0,1,,,,,,,,,,,,,,,,,,,,,,,,,,,,,,,,,,
295552,2022-12-06_15h10.06.638,vts_reward_expectancy_bt,2022.2.4,Win32,164.7446458,Chrome,1536,864,,,,,,,,,,,,,,,,,,,,,,,S,139,triangle,2,1,,,3,,,,,,f,1.4041,5,0,5,0,1,,,,,,,,,,,,,,,,,,,,,,,,,,,,,,,,,,
295552,2022-12-06_15h10.06.638,vts_reward_expectancy_bt,2022.2.4,Win32,164.7446458,Chrome,1536,864,,,,,,,,,,,,,,,,,,,,,,,B,167,star,0,0,,,3,,,,,,j,0.3585,6,0,6,0,1,,,,,,,,,,,,,,,,,,,,,,,,,,,,,,,,,,
295552,2022-12-06_15h10.06.638,vts_reward_expectancy_bt,2022.2.4,Win32,164.7446458,Chrome,1536,864,,,,,,,,,,,,,,,,,,,,,,,F,125,circle,2,1,,,3,,,,,,d,0.3146,7,0,7,0,1,,,,,,,,,,,,,,,,,,,,,,,,,,,,,,,,,,
295552,2022-12-06_15h10.06.638,vts_reward_expectancy_bt,2022.2.4,Win32,164.7446458,Chrome,1536,864,,,,,,,,,,,,,,,,,,,,,,,D,132,hexagon,1,0,,,3,,,,,,j,0.2616,8,0,8,0,1,,,,,,,,,,,,,,,,,,,,,,,,,,,,,,,,,,
295552,2022-12-06_15h10.06.638,vts_reward_expectancy_bt,2022.2.4,Win32,164.7446458,Chrome,1536,864,,,,,,,,,,,,,,,,,,,,,,,Y,181,circle,2,0,,,3,,,,,,d,2.0197,9,0,9,0,1,,,,,,,,,,,,,,,,,,,,,,,,,,,,,,,,,,
295552,2022-12-06_15h10.06.638,vts_reward_expectancy_bt,2022.2.4,Win32,164.7446458,Chrome,1536,864,,,,,,,,,,,,,,,,,,,,,,,B,132,star,0,0,,,4,,,,,,k,0.7397,0,0,0,0,1,,,,,,,,,,,,,,,,,,,,,,,,,,,,,,,,,,
295552,2022-12-06_15h10.06.638,vts_reward_expectancy_bt,2022.2.4,Win32,164.7446458,Chrome,1536,864,,,,,,,,,,,,,,,,,,,,,,,W,181,hexagon,1,1,,,4,,,,,,k,0.3945,1,0,1,0,1,,,,,,,,,,,,,,,,,,,,,,,,,,,,,,,,,,
295552,2022-12-06_15h10.06.638,vts_reward_expectancy_bt,2022.2.4,Win32,164.7446458,Chrome,1536,864,,,,,,,,,,,,,,,,,,,,,,,D,167,triangle,1,0,,,4,,,,,,k,0.6789,2,0,2,0,1,,,,,,,,,,,,,,,,,,,,,,,,,,,,,,,,,,
295552,2022-12-06_15h10.06.638,vts_reward_expectancy_bt,2022.2.4,Win32,164.7446458,Chrome,1536,864,,,,,,,,,,,,,,,,,,,,,,,U,125,circle,1,0,,,4,,,,,,j,0.6011,3,0,3,0,1,,,,,,,,,,,,,,,,,,,,,,,,,,,,,,,,,,
295552,2022-12-06_15h10.06.638,vts_reward_expectancy_bt,2022.2.4,Win32,164.7446458,Chrome,1536,864,,,,,,,,,,,,,,,,,,,,,,,S,160,star,1,0,,,4,,,,,,k,0.6791,4,0,4,0,1,,,,,,,,,,,,,,,,,,,,,,,,,,,,,,,,,,
295552,2022-12-06_15h10.06.638,vts_reward_expectancy_bt,2022.2.4,Win32,164.7446458,Chrome,1536,864,,,,,,,,,,,,,,,,,,,,,,,Y,146,hexagon,1,0,,,4,,,,,,j,1.2971,5,0,5,0,1,,,,,,,,,,,,,,,,,,,,,,,,,,,,,,,,,,
295552,2022-12-06_15h10.06.638,vts_reward_expectancy_bt,2022.2.4,Win32,164.7446458,Chrome,1536,864,,,,,,,,,,,,,,,,,,,,,,,H,139,triangle,1,0,,,4,,,,,,j,0.9211,6,0,6,0,1,,,,,,,,,,,,,,,,,,,,,,,,,,,,,,,,,,
295552,2022-12-06_15h10.06.638,vts_reward_expectancy_bt,2022.2.4,Win32,164.7446458,Chrome,1536,864,,,,,,,,,,,,,,,,,,,,,,,F,174,circle,1,0,,,4,,,,,,k,1.7583,7,0,7,0,1,,,,,,,,,,,,,,,,,,,,,,,,,,,,,,,,,,
295552,2022-12-06_15h10.06.638,vts_reward_expectancy_bt,2022.2.4,Win32,164.7446458,Chrome,1536,864,,,,,,,,,,,,,,,,,,,,,,,B,132,circle,1,0,,,4,,,,,,j,0.801,8,0,8,0,1,,,,,,,,,,,,,,,,,,,,,,,,,,,,,,,,,,
295552,2022-12-06_15h10.06.638,vts_reward_expectancy_bt,2022.2.4,Win32,164.7446458,Chrome,1536,864,,,,,,,,,,,,,,,,,,,,,,,W,181,star,1,0,,,4,,,,,,k,0.486,9,0,9,0,1,,,,,,,,,,,,,,,,,,,,,,,,,,,,,,,,,,
295552,2022-12-06_15h10.06.638,vts_reward_expectancy_bt,2022.2.4,Win32,164.7446458,Chrome,1536,864,,,,,0,630,,,,,,,,,,,,,,,,,U,132,hexagon,1,0,,,5,,,,,,,,,,,,,-1,number,NA,j,0.9756,vtsPrac,0,0,0,0,1,,,,,,,,,,,,,,,,,,,,,,,
295552,2022-12-06_15h10.06.638,vts_reward_expectancy_bt,2022.2.4,Win32,164.7446458,Chrome,1536,864,,,,,0,630,,,,,,,,,,,,,,,,,B,167,star,1,0,,,5,,,,,,,,,,,,,repeat,number,numRpt,k,0.5137,vtsPrac,1,0,1,0,1,,,,,,,,,,,,,,,,,,,,,,,
295552,2022-12-06_15h10.06.638,vts_reward_expectancy_bt,2022.2.4,Win32,164.7446458,Chrome,1536,864,,,,,0,630,,,,,,,,,,,,,,,,,S,160,hexagon,0,0,,,5,,,,,,,,,,,,,repeat,number,NA,j,0.4978,vtsPrac,2,0,2,0,1,,,,,,,,,,,,,,,,,,,,,,,
295552,2022-12-06_15h10.06.638,vts_reward_expectancy_bt,2022.2.4,Win32,164.7446458,Chrome,1536,864,,,,,0,630,,,,,,,,,,,,,,,,,W,139,star,0,1,,,5,,,,,,,,,,,,,switch,letter,NA,d,1.2041,vtsPrac,3,0,3,0,1,,,,,,,,,,,,,,,,,,,,,,,
295552,2022-12-06_15h10.06.638,vts_reward_expectancy_bt,2022.2.4,Win32,164.7446458,Chrome,1536,864,,,,,0,630,,,,,,,,,,,,,,,,,U,132,triangle,0,1,,,5,,,,,,,,,,,,,repeat,letter,NA,d,0.455,vtsPrac,4,0,4,0,1,,,,,,,,,,,,,,,,,,,,,,,
295552,2022-12-06_15h10.06.638,vts_reward_expectancy_bt,2022.2.4,Win32,164.7446458,Chrome,1536,864,,,,,0,630,,,,,,,,,,,,,,,,,B,167,circle,0,1,,,5,,,,,,,,,,,,,repeat,letter,NA,f,0.4172,vtsPrac,5,0,5,0,1,,,,,,,,,,,,,,,,,,,,,,,
295552,2022-12-06_15h10.06.638,vts_reward_expectancy_bt,2022.2.4,Win32,164.7446458,Chrome,1536,864,,,,,0,630,,,,,,,,,,,,,,,,,S,160,triangle,1,1,,,5,,,,,,,,,,,,,switch,number,numSwt,k,0.5576,vtsPrac,6,0,6,0,1,,,,,,,,,,,,,,,,,,,,,,,
295552,2022-12-06_15h10.06.638,vts_reward_expectancy_bt,2022.2.4,Win32,164.7446458,Chrome,1536,864,,,,,0,630,,,,,,,,,,,,,,,,,W,139,hexagon,1,0,,,5,,,,,,,,,,,,,repeat,number,numRpt,j,0.6734,vtsPrac,7,0,7,0,1,,,,,,,,,,,,,,,,,,,,,,,
295552,2022-12-06_15h10.06.638,vts_reward_expectancy_bt,2022.2.4,Win32,164.7446458,Chrome,1536,864,,,,,0,630,,,,,,,,,,,,,,,,,B,181,circle,1,0,,,5,,,,,,,,,,,,,repeat,number,numRpt,k,0.6581,vtsPrac,8,0,8,0,1,,,,,,,,,,,,,,,,,,,,,,,
295552,2022-12-06_15h10.06.638,vts_reward_expectancy_bt,2022.2.4,Win32,164.7446458,Chrome,1536,864,,,,,0,630,,,,,,,,,,,,,,,,,F,139,triangle,1,0,,,5,,,,,,,,,,,,,repeat,number,numRpt,j,0.6181,vtsPrac,9,0,9,0,1,,,,,,,,,,,,,,,,,,,,,,,
295552,2022-12-06_15h10.06.638,vts_reward_expectancy_bt,2022.2.4,Win32,164.7446458,Chrome,1536,864,,,,,0,630,,,,,,,,,,,,,,,,,D,125,triangle,0,0,,,5,,,,,,,,,,,,,repeat,number,NA,k,1.3177,vtsPrac,10,0,10,0,1,,,,,,,,,,,,,,,,,,,,,,,
295552,2022-12-06_15h10.06.638,vts_reward_expectancy_bt,2022.2.4,Win32,164.7446458,Chrome,1536,864,,,,,0,630,,,,,,,,,,,,,,,,,S,132,hexagon,1,1,,,5,,,,,,,,,,,,,switch,letter,lettSwt,f,1.5218,vtsPrac,11,0,11,0,1,,,,,,,,,,,,,,,,,,,,,,,
295552,2022-12-06_15h10.06.638,vts_reward_expectancy_bt,2022.2.4,Win32,164.7446458,Chrome,1536,864,,,,,0,630,,,,,,,,,,,,,,,,,D,132,hexagon,1,0,,,5,,,,,,,,,,,,,repeat,letter,lettRpt,d,0.5517,vtsPrac,12,0,12,0,1,,,,,,,,,,,,,,,,,,,,,,,
295552,2022-12-06_15h10.06.638,vts_reward_expectancy_bt,2022.2.4,Win32,164.7446458,Chrome,1536,864,,,,,0,630,,,,,,,,,,,,,,,,,B,160,star,1,0,,,5,,,,,,,,,,,,,switch,number,numSwt,k,2.7037,vtsPrac,13,0,13,0,1,,,,,,,,,,,,,,,,,,,,,,,
295552,2022-12-06_15h10.06.638,vts_reward_expectancy_bt,2022.2.4,Win32,164.7446458,Chrome,1536,864,,,,,0,630,,,,,,,,,,,,,,,,,W,167,hexagon,1,0,,,5,,,,,,,,,,,,,repeat,number,numRpt,k,1.4466,vtsPrac,14,0,14,0,1,,,,,,,,,,,,,,,,,,,,,,,
295552,2022-12-06_15h10.06.638,vts_reward_expectancy_bt,2022.2.4,Win32,164.7446458,Chrome,1536,864,,,,,0,630,,,,,,,,,,,,,,,,,F,139,triangle,1,0,,,5,,,,,,,,,,,,,repeat,number,numRpt,j,1.1846,vtsPrac,15,0,15,0,1,,,,,,,,,,,,,,,,,,,,,,,
295552,2022-12-06_15h10.06.638,vts_reward_expectancy_bt,2022.2.4,Win32,164.7446458,Chrome,1536,864,,,,,0,630,,,,,,,,,,,,,,,,,F,167,star,-1,0,,,5,,,,,,,,,,,,,switch,no_choice,NA,,,vtsPrac,16,0,16,0,1,,,,,,,,,,,,,,,,,,,,,,,
295552,2022-12-06_15h10.06.638,vts_reward_expectancy_bt,2022.2.4,Win32,164.7446458,Chrome,1536,864,,,,,0,630,,,,,,,,,,,,,,,,,W,174,circle,1,0,,,5,,,,,,,,,,,,,switch,number,numSwt,k,0.8072,vtsPrac,17,0,17,0,1,,,,,,,,,,,,,,,,,,,,,,,
295552,2022-12-06_15h10.06.638,vts_reward_expectancy_bt,2022.2.4,Win32,164.7446458,Chrome,1536,864,,,,,0,630,,,,,,,,,,,,,,,,,U,181,triangle,1,0,,,5,,,,,,,,,,,,,repeat,number,numRpt,k,0.7398,vtsPrac,18,0,18,0,1,,,,,,,,,,,,,,,,,,,,,,,
295552,2022-12-06_15h10.06.638,vts_reward_expectancy_bt,2022.2.4,Win32,164.7446458,Chrome,1536,864,,,,,0,630,,,,,,,,,,,,,,,,,Y,139,circle,0,0,,,5,,,,,,,,,,,,,repeat,number,NA,k,1.3699,vtsPrac,19,0,19,0,1,,,,,,,,,,,,,,,,,,,,,,,
295552,2022-12-06_15h10.06.638,vts_reward_expectancy_bt,2022.2.4,Win32,164.7446458,Chrome,1536,864,,,,,0,630,,,,,,,,,,,,,,,,,S,181,circle,1,1,,,5,,,,,,,,,,,,,switch,letter,lettSwt,f,0.7155,vtsPrac,20,0,20,0,1,,,,,,,,,,,,,,,,,,,,,,,
295552,2022-12-06_15h10.06.638,vts_reward_expectancy_bt,2022.2.4,Win32,164.7446458,Chrome,1536,864,,,,,0,630,,,,,,,,,,,,,,,,,U,139,star,1,0,,,5,,,,,,,,,,,,,switch,number,numSwt,j,2.6125,vtsPrac,21,0,21,0,1,,,,,,,,,,,,,,,,,,,,,,,
295552,2022-12-06_15h10.06.638,vts_reward_expectancy_bt,2022.2.4,Win32,164.7446458,Chrome,1536,864,,,,,0,630,,,,,,,,,,,,,,,,,B,132,triangle,1,0,,,5,,,,,,,,,,,,,switch,letter,lettSwt,d,1.0494,vtsPrac,22,0,22,0,1,,,,,,,,,,,,,,,,,,,,,,,
295552,2022-12-06_15h10.06.638,vts_reward_expectancy_bt,2022.2.4,Win32,164.7446458,Chrome,1536,864,,,,,0,630,,,,,,,,,,,,,,,,,D,160,hexagon,1,0,,,5,,,,,,,,,,,,,switch,number,numSwt,k,2.0004,vtsPrac,23,0,23,0,1,,,,,,,,,,,,,,,,,,,,,,,
295552,2022-12-06_15h10.06.638,vts_reward_expectancy_bt,2022.2.4,Win32,164.7446458,Chrome,1536,864,,,,,0,630,,,,,,,,,,,,,,,,,Y,125,star,0,0,,,5,,,,,,,,,,,,,switch,letter,NA,d,1.4653,vtsPrac,24,0,24,0,1,,,,,,,,,,,,,,,,,,,,,,,
295552,2022-12-06_15h10.06.638,vts_reward_expectancy_bt,2022.2.4,Win32,164.7446458,Chrome,1536,864,,,,,0,630,,,,,,,,,,,,,,,,,D,146,hexagon,1,1,,,5,,,,,,,,,,,,,repeat,letter,lettRpt,d,1.1275,vtsPrac,25,0,25,0,1,,,,,,,,,,,,,,,,,,,,,,,
295552,2022-12-06_15h10.06.638,vts_reward_expectancy_bt,2022.2.4,Win32,164.7446458,Chrome,1536,864,,,,,0,630,,,,,,,,,,,,,,,,,B,139,star,1,0,,,5,,,,,,,,,,,,,switch,number,numSwt,j,0.7461,vtsPrac,26,0,26,0,1,,,,,,,,,,,,,,,,,,,,,,,
295552,2022-12-06_15h10.06.638,vts_reward_expectancy_bt,2022.2.4,Win32,164.7446458,Chrome,1536,864,,,,,0,630,,,,,,,,,,,,,,,,,H,132,triangle,1,0,,,5,,,,,,,,,,,,,repeat,number,numRpt,j,0.8577,vtsPrac,27,0,27,0,1,,,,,,,,,,,,,,,,,,,,,,,
295552,2022-12-06_15h10.06.638,vts_reward_expectancy_bt,2022.2.4,Win32,164.7446458,Chrome,1536,864,,,,,0,630,,,,,,,,,,,,,,,,,H,139,hexagon,1,0,,,5,,,,,,,,,,,,,switch,letter,lettSwt,d,0.5887,vtsPrac,28,0,28,0,1,,,,,,,,,,,,,,,,,,,,,,,
295552,2022-12-06_15h10.06.638,vts_reward_expectancy_bt,2022.2.4,Win32,164.7446458,Chrome,1536,864,,,,,0,630,,,,,,,,,,,,,,,,,W,160,star,1,0,,,5,,,,,,,,,,,,,switch,number,numSwt,k,1.3273,vtsPrac,29,0,29,0,1,,,,,,,,,,,,,,,,,,,,,,,
295552,2022-12-06_15h10.06.638,vts_reward_expectancy_bt,2022.2.4,Win32,164.7446458,Chrome,1536,864,,,,,0,630,,,,,,,,,,,,,,,,,B,125,circle,1,0,,,5,,,,,,,,,,,,,repeat,number,numRpt,j,0.6343,vtsPrac,30,0,30,0,1,,,,,,,,,,,,,,,,,,,,,,,
295552,2022-12-06_15h10.06.638,vts_reward_expectancy_bt,2022.2.4,Win32,164.7446458,Chrome,1536,864,,,,,0,630,,,,,,,,,,,,,,,,,D,167,hexagon,1,0,,,5,,,,,,,,,,,,,repeat,number,numRpt,k,1.0915,vtsPrac,31,0,31,0,1,,,,,,,,,,,,,,,,,,,,,,,
295552,2022-12-06_15h10.06.638,vts_reward_expectancy_bt,2022.2.4,Win32,164.7446458,Chrome,1536,864,,,,,0,630,,,,,,,,,,,,,,,,,W,125,star,1,0,,,6,,,,,,,,,,,,,switch,letter,lettSwt,f,0.6943,vtsPrac,0,0,0,0,1,,,,,,,,,,,,,,,,,,,,,,,
295552,2022-12-06_15h10.06.638,vts_reward_expectancy_bt,2022.2.4,Win32,164.7446458,Chrome,1536,864,,,,,0,630,,,,,,,,,,,,,,,,,S,160,hexagon,1,0,,,6,,,,,,,,,,,,,switch,number,numSwt,k,0.716,vtsPrac,1,0,1,0,1,,,,,,,,,,,,,,,,,,,,,,,
295552,2022-12-06_15h10.06.638,vts_reward_expectancy_bt,2022.2.4,Win32,164.7446458,Chrome,1536,864,,,,,0,630,,,,,,,,,,,,,,,,,B,174,star,1,0,,,6,,,,,,,,,,,,,switch,letter,lettSwt,d,0.8737,vtsPrac,2,0,2,0,1,,,,,,,,,,,,,,,,,,,,,,,
295552,2022-12-06_15h10.06.638,vts_reward_expectancy_bt,2022.2.4,Win32,164.7446458,Chrome,1536,864,,,,,0,630,,,,,,,,,,,,,,,,,D,132,hexagon,1,0,,,6,,,,,,,,,,,,,switch,number,numSwt,j,0.7121,vtsPrac,3,0,3,0,1,,,,,,,,,,,,,,,,,,,,,,,
295552,2022-12-06_15h10.06.638,vts_reward_expectancy_bt,2022.2.4,Win32,164.7446458,Chrome,1536,864,,,,,0,630,,,,,,,,,,,,,,,,,W,125,circle,1,0,,,6,,,,,,,,,,,,,switch,letter,lettSwt,f,0.6607,vtsPrac,4,0,4,0,1,,,,,,,,,,,,,,,,,,,,,,,
295552,2022-12-06_15h10.06.638,vts_reward_expectancy_bt,2022.2.4,Win32,164.7446458,Chrome,1536,864,,,,,0,630,,,,,,,,,,,,,,,,,S,160,star,1,0,,,6,,,,,,,,,,,,,switch,number,numSwt,k,0.8972,vtsPrac,5,0,5,0,1,,,,,,,,,,,,,,,,,,,,,,,
295552,2022-12-06_15h10.06.638,vts_reward_expectancy_bt,2022.2.4,Win32,164.7446458,Chrome,1536,864,,,,,0,630,,,,,,,,,,,,,,,,,B,174,hexagon,1,0,,,6,,,,,,,,,,,,,switch,letter,lettSwt,d,0.5491,vtsPrac,6,0,6,0,1,,,,,,,,,,,,,,,,,,,,,,,
295552,2022-12-06_15h10.06.638,vts_reward_expectancy_bt,2022.2.4,Win32,164.7446458,Chrome,1536,864,,,,,0,630,,,,,,,,,,,,,,,,,D,132,star,1,0,,,6,,,,,,,,,,,,,switch,number,numSwt,j,0.6371,vtsPrac,7,0,7,0,1,,,,,,,,,,,,,,,,,,,,,,,
295552,2022-12-06_15h10.06.638,vts_reward_expectancy_bt,2022.2.4,Win32,164.7446458,Chrome,1536,864,,,,,0,630,,,,,,,,,,,,,,,,,S,132,star,1,0,,,6,,,,,,,,,,,,,switch,letter,lettSwt,f,0.6471,vtsPrac,8,0,8,0,1,,,,,,,,,,,,,,,,,,,,,,,
295552,2022-12-06_15h10.06.638,vts_reward_expectancy_bt,2022.2.4,Win32,164.7446458,Chrome,1536,864,,,,,0,630,,,,,,,,,,,,,,,,,W,146,circle,1,0,,,6,,,,,,,,,,,,,switch,number,numSwt,j,0.7452,vtsPrac,9,0,9,0,1,,,,,,,,,,,,,,,,,,,,,,,
295552,2022-12-06_15h10.06.638,vts_reward_expectancy_bt,2022.2.4,Win32,164.7446458,Chrome,1536,864,,,,,0,630,,,,,,,,,,,,,,,,,H,174,star,1,0,,,6,,,,,,,,,,,,,switch,letter,lettSwt,d,1.4461,vtsPrac,10,0,10,0,1,,,,,,,,,,,,,,,,,,,,,,,
295552,2022-12-06_15h10.06.638,vts_reward_expectancy_bt,2022.2.4,Win32,164.7446458,Chrome,1536,864,,,,,0,630,,,,,,,,,,,,,,,,,U,181,triangle,1,0,,,6,,,,,,,,,,,,,switch,number,numSwt,k,1.6791,vtsPrac,11,0,11,0,1,,,,,,,,,,,,,,,,,,,,,,,
295552,2022-12-06_15h10.06.638,vts_reward_expectancy_bt,2022.2.4,Win32,164.7446458,Chrome,1536,864,,,,,0,630,,,,,,,,,,,,,,,,,D,139,hexagon,1,0,,,6,,,,,,,,,,,,,repeat,number,numRpt,j,1.0554,vtsPrac,12,0,12,0,1,,,,,,,,,,,,,,,,,,,,,,,
295552,2022-12-06_15h10.06.638,vts_reward_expectancy_bt,2022.2.4,Win32,164.7446458,Chrome,1536,864,,,,,0,630,,,,,,,,,,,,,,,,,U,181,triangle,1,0,,,6,,,,,,,,,,,,,switch,letter,lettSwt,f,0.6282,vtsPrac,13,0,13,0,1,,,,,,,,,,,,,,,,,,,,,,,
295552,2022-12-06_15h10.06.638,vts_reward_expectancy_bt,2022.2.4,Win32,164.7446458,Chrome,1536,864,,,,,0,630,,,,,,,,,,,,,,,,,F,132,hexagon,1,0,,,6,,,,,,,,,,,,,repeat,letter,lettRpt,d,0.973,vtsPrac,14,0,14,0,1,,,,,,,,,,,,,,,,,,,,,,,
295552,2022-12-06_15h10.06.638,vts_reward_expectancy_bt,2022.2.4,Win32,164.7446458,Chrome,1536,864,,,,,0,630,,,,,,,,,,,,,,,,,B,125,star,1,0,,,6,,,,,,,,,,,,,switch,number,numSwt,j,1.7093,vtsPrac,15,0,15,0,1,,,,,,,,,,,,,,,,,,,,,,,
295552,2022-12-06_15h10.06.638,vts_reward_expectancy_bt,2022.2.4,Win32,164.7446458,Chrome,1536,864,,,,,0,630,,,,,,,,,,,,,,,,,U,181,hexagon,1,0,,,6,,,,,,,,,,,,,switch,letter,lettSwt,f,1.7524,vtsPrac,16,0,16,0,1,,,,,,,,,,,,,,,,,,,,,,,
295552,2022-12-06_15h10.06.638,vts_reward_expectancy_bt,2022.2.4,Win32,164.7446458,Chrome,1536,864,,,,,0,630,,,,,,,,,,,,,,,,,W,132,star,1,0,,,6,,,,,,,,,,,,,switch,number,numSwt,j,0.6548,vtsPrac,17,0,17,0,1,,,,,,,,,,,,,,,,,,,,,,,
295552,2022-12-06_15h10.06.638,vts_reward_expectancy_bt,2022.2.4,Win32,164.7446458,Chrome,1536,864,,,,,0,630,,,,,,,,,,,,,,,,,D,125,star,1,0,,,6,,,,,,,,,,,,,switch,letter,lettSwt,d,1.0646,vtsPrac,18,0,18,0,1,,,,,,,,,,,,,,,,,,,,,,,
295552,2022-12-06_15h10.06.638,vts_reward_expectancy_bt,2022.2.4,Win32,164.7446458,Chrome,1536,864,,,,,0,630,,,,,,,,,,,,,,,,,B,139,triangle,1,0,,,6,,,,,,,,,,,,,switch,number,numSwt,j,0.7039,vtsPrac,19,0,19,0,1,,,,,,,,,,,,,,,,,,,,,,,
295552,2022-12-06_15h10.06.638,vts_reward_expectancy_bt,2022.2.4,Win32,164.7446458,Chrome,1536,864,,,,,0,630,,,,,,,,,,,,,,,,,W,139,circle,0,0,,,6,,,,,,,,,,,,,switch,letter,NA,d,2.8848,vtsPrac,20,0,20,0,1,,,,,,,,,,,,,,,,,,,,,,,
295552,2022-12-06_15h10.06.638,vts_reward_expectancy_bt,2022.2.4,Win32,164.7446458,Chrome,1536,864,,,,,0,630,,,,,,,,,,,,,,,,,D,167,star,1,1,,,6,,,,,,,,,,,,,repeat,letter,lettRpt,d,0.8917,vtsPrac,21,0,21,0,1,,,,,,,,,,,,,,,,,,,,,,,
295552,2022-12-06_15h10.06.638,vts_reward_expectancy_bt,2022.2.4,Win32,164.7446458,Chrome,1536,864,,,,,0,630,,,,,,,,,,,,,,,,,B,125,star,1,0,,,6,,,,,,,,,,,,,switch,number,numSwt,j,0.4352,vtsPrac,22,0,22,0,1,,,,,,,,,,,,,,,,,,,,,,,
295552,2022-12-06_15h10.06.638,vts_reward_expectancy_bt,2022.2.4,Win32,164.7446458,Chrome,1536,864,,,,,0,630,,,,,,,,,,,,,,,,,H,132,hexagon,1,0,,,6,,,,,,,,,,,,,switch,letter,lettSwt,d,1.0909,vtsPrac,23,0,23,0,1,,,,,,,,,,,,,,,,,,,,,,,
295552,2022-12-06_15h10.06.638,vts_reward_expectancy_bt,2022.2.4,Win32,164.7446458,Chrome,1536,864,,,,,0,630,,,,,,,,,,,,,,,,,D,125,hexagon,1,0,,,6,,,,,,,,,,,,,switch,number,numSwt,j,0.8825,vtsPrac,24,0,24,0,1,,,,,,,,,,,,,,,,,,,,,,,
295552,2022-12-06_15h10.06.638,vts_reward_expectancy_bt,2022.2.4,Win32,164.7446458,Chrome,1536,864,,,,,0,630,,,,,,,,,,,,,,,,,F,146,triangle,1,0,,,6,,,,,,,,,,,,,switch,letter,lettSwt,d,0.7884,vtsPrac,25,0,25,0,1,,,,,,,,,,,,,,,,,,,,,,,
295552,2022-12-06_15h10.06.638,vts_reward_expectancy_bt,2022.2.4,Win32,164.7446458,Chrome,1536,864,,,,,0,630,,,,,,,,,,,,,,,,,H,139,star,1,0,,,6,,,,,,,,,,,,,switch,number,numSwt,j,0.6972,vtsPrac,26,0,26,0,1,,,,,,,,,,,,,,,,,,,,,,,
295552,2022-12-06_15h10.06.638,vts_reward_expectancy_bt,2022.2.4,Win32,164.7446458,Chrome,1536,864,,,,,0,630,,,,,,,,,,,,,,,,,S,167,triangle,1,0,,,6,,,,,,,,,,,,,switch,letter,lettSwt,f,1.3218,vtsPrac,27,0,27,0,1,,,,,,,,,,,,,,,,,,,,,,,
295552,2022-12-06_15h10.06.638,vts_reward_expectancy_bt,2022.2.4,Win32,164.7446458,Chrome,1536,864,,,,,0,630,,,,,,,,,,,,,,,,,F,132,hexagon,1,0,,,6,,,,,,,,,,,,,switch,number,numSwt,j,0.7508,vtsPrac,28,0,28,0,1,,,,,,,,,,,,,,,,,,,,,,,
295552,2022-12-06_15h10.06.638,vts_reward_expectancy_bt,2022.2.4,Win32,164.7446458,Chrome,1536,864,,,,,0,630,,,,,,,,,,,,,,,,,S,146,circle,1,0,,,6,,,,,,,,,,,,,switch,letter,lettSwt,f,2.1698,vtsPrac,29,0,29,0,1,,,,,,,,,,,,,,,,,,,,,,,
295552,2022-12-06_15h10.06.638,vts_reward_expectancy_bt,2022.2.4,Win32,164.7446458,Chrome,1536,864,,,,,0,630,,,,,,,,,,,,,,,,,Y,174,star,1,0,,,6,,,,,,,,,,,,,switch,number,numSwt,k,1.313,vtsPrac,30,0,30,0,1,,,,,,,,,,,,,,,,,,,,,,,
295552,2022-12-06_15h10.06.638,vts_reward_expectancy_bt,2022.2.4,Win32,164.7446458,Chrome,1536,864,,,,,0,630,,,,,,,,,,,,,,,,,W,181,hexagon,1,0,,,6,,,,,,,,,,,,,switch,letter,lettSwt,f,1.1476,vtsPrac,31,0,31,0,1,,,,,,,,,,,,,,,,,,,,,,,
295552,2022-12-06_15h10.06.638,vts_reward_expectancy_bt,2022.2.4,Win32,164.7446458,Chrome,1536,864,,,,,0,630,,,,,,,,,,,,,,,,,D,160,triangle,1,0,,,7,,,,,,,,,,,,,repeat,letter,lettRpt,d,1.1455,vtsPrac,0,0,0,0,1,,,,,,,,,,,,,,,,,,,,,,,
295552,2022-12-06_15h10.06.638,vts_reward_expectancy_bt,2022.2.4,Win32,164.7446458,Chrome,1536,864,,,,,0,630,,,,,,,,,,,,,,,,,B,132,hexagon,1,0,,,7,,,,,,,,,,,,,repeat,letter,lettRpt,d,0.8643,vtsPrac,1,0,1,0,1,,,,,,,,,,,,,,,,,,,,,,,
295552,2022-12-06_15h10.06.638,vts_reward_expectancy_bt,2022.2.4,Win32,164.7446458,Chrome,1536,864,,,,,0,630,,,,,,,,,,,,,,,,,U,174,triangle,1,0,,,7,,,,,,,,,,,,,repeat,letter,lettRpt,f,2.0635,vtsPrac,2,0,2,0,1,,,,,,,,,,,,,,,,,,,,,,,
295552,2022-12-06_15h10.06.638,vts_reward_expectancy_bt,2022.2.4,Win32,164.7446458,Chrome,1536,864,,,,,0,630,,,,,,,,,,,,,,,,,W,167,hexagon,1,0,,,7,,,,,,,,,,,,,repeat,letter,lettRpt,f,0.9356,vtsPrac,3,0,3,0,1,,,,,,,,,,,,,,,,,,,,,,,
295552,2022-12-06_15h10.06.638,vts_reward_expectancy_bt,2022.2.4,Win32,164.7446458,Chrome,1536,864,,,,,0,630,,,,,,,,,,,,,,,,,D,160,triangle,1,0,,,7,,,,,,,,,,,,,switch,number,numSwt,k,1.0036,vtsPrac,4,0,4,0,1,,,,,,,,,,,,,,,,,,,,,,,
295552,2022-12-06_15h10.06.638,vts_reward_expectancy_bt,2022.2.4,Win32,164.7446458,Chrome,1536,864,,,,,0,630,,,,,,,,,,,,,,,,,B,132,hexagon,1,0,,,7,,,,,,,,,,,,,repeat,number,numRpt,j,0.633,vtsPrac,5,0,5,0,1,,,,,,,,,,,,,,,,,,,,,,,
295552,2022-12-06_15h10.06.638,vts_reward_expectancy_bt,2022.2.4,Win32,164.7446458,Chrome,1536,864,,,,,0,630,,,,,,,,,,,,,,,,,U,174,triangle,1,0,,,7,,,,,,,,,,,,,repeat,number,numRpt,k,0.6826,vtsPrac,6,0,6,0,1,,,,,,,,,,,,,,,,,,,,,,,
295552,2022-12-06_15h10.06.638,vts_reward_expectancy_bt,2022.2.4,Win32,164.7446458,Chrome,1536,864,,,,,0,630,,,,,,,,,,,,,,,,,W,167,circle,1,0,,,7,,,,,,,,,,,,,repeat,number,numRpt,k,0.8845,vtsPrac,7,0,7,0,1,,,,,,,,,,,,,,,,,,,,,,,
295552,2022-12-06_15h10.06.638,vts_reward_expectancy_bt,2022.2.4,Win32,164.7446458,Chrome,1536,864,,,,,0,630,,,,,,,,,,,,,,,,,S,125,triangle,1,0,,,7,,,,,,,,,,,,,switch,letter,lettSwt,f,1.6126,vtsPrac,8,0,8,0,1,,,,,,,,,,,,,,,,,,,,,,,
295552,2022-12-06_15h10.06.638,vts_reward_expectancy_bt,2022.2.4,Win32,164.7446458,Chrome,1536,864,,,,,0,630,,,,,,,,,,,,,,,,,B,181,star,1,0,,,7,,,,,,,,,,,,,repeat,letter,lettRpt,d,0.4915,vtsPrac,9,0,9,0,1,,,,,,,,,,,,,,,,,,,,,,,
295552,2022-12-06_15h10.06.638,vts_reward_expectancy_bt,2022.2.4,Win32,164.7446458,Chrome,1536,864,,,,,0,630,,,,,,,,,,,,,,,,,U,146,circle,1,0,,,7,,,,,,,,,,,,,repeat,letter,lettRpt,f,0.6757,vtsPrac,10,0,10,0,1,,,,,,,,,,,,,,,,,,,,,,,
295552,2022-12-06_15h10.06.638,vts_reward_expectancy_bt,2022.2.4,Win32,164.7446458,Chrome,1536,864,,,,,0,630,,,,,,,,,,,,,,,,,H,167,triangle,1,0,,,7,,,,,,,,,,,,,repeat,letter,lettRpt,d,0.6743,vtsPrac,11,0,11,0,1,,,,,,,,,,,,,,,,,,,,,,,
295552,2022-12-06_15h10.06.638,vts_reward_expectancy_bt,2022.2.4,Win32,164.7446458,Chrome,1536,864,,,,,0,630,,,,,,,,,,,,,,,,,H,174,circle,1,0,,,7,,,,,,,,,,,,,switch,number,numSwt,k,1.6974,vtsPrac,12,0,12,0,1,,,,,,,,,,,,,,,,,,,,,,,
295552,2022-12-06_15h10.06.638,vts_reward_expectancy_bt,2022.2.4,Win32,164.7446458,Chrome,1536,864,,,,,0,630,,,,,,,,,,,,,,,,,Y,125,star,1,0,,,7,,,,,,,,,,,,,repeat,number,numRpt,j,0.6685,vtsPrac,13,0,13,0,1,,,,,,,,,,,,,,,,,,,,,,,
295552,2022-12-06_15h10.06.638,vts_reward_expectancy_bt,2022.2.4,Win32,164.7446458,Chrome,1536,864,,,,,0,630,,,,,,,,,,,,,,,,,B,139,star,1,0,,,7,,,,,,,,,,,,,repeat,number,numRpt,j,0.6488,vtsPrac,14,0,14,0,1,,,,,,,,,,,,,,,,,,,,,,,
295552,2022-12-06_15h10.06.638,vts_reward_expectancy_bt,2022.2.4,Win32,164.7446458,Chrome,1536,864,,,,,0,630,,,,,,,,,,,,,,,,,D,132,circle,1,0,,,7,,,,,,,,,,,,,repeat,number,numRpt,j,0.8377,vtsPrac,15,0,15,0,1,,,,,,,,,,,,,,,,,,,,,,,
295552,2022-12-06_15h10.06.638,vts_reward_expectancy_bt,2022.2.4,Win32,164.7446458,Chrome,1536,864,,,,,0,630,,,,,,,,,,,,,,,,,H,181,star,1,0,,,7,,,,,,,,,,,,,repeat,number,numRpt,k,1.4662,vtsPrac,16,0,16,0,1,,,,,,,,,,,,,,,,,,,,,,,
295552,2022-12-06_15h10.06.638,vts_reward_expectancy_bt,2022.2.4,Win32,164.7446458,Chrome,1536,864,,,,,0,630,,,,,,,,,,,,,,,,,F,132,circle,1,0,,,7,,,,,,,,,,,,,switch,letter,lettSwt,d,1.4447,vtsPrac,17,0,17,0,1,,,,,,,,,,,,,,,,,,,,,,,
295552,2022-12-06_15h10.06.638,vts_reward_expectancy_bt,2022.2.4,Win32,164.7446458,Chrome,1536,864,,,,,0,630,,,,,,,,,,,,,,,,,D,160,triangle,1,0,,,7,,,,,,,,,,,,,repeat,letter,lettRpt,d,2.116,vtsPrac,18,0,18,0,1,,,,,,,,,,,,,,,,,,,,,,,
295552,2022-12-06_15h10.06.638,vts_reward_expectancy_bt,2022.2.4,Win32,164.7446458,Chrome,1536,864,,,,,0,630,,,,,,,,,,,,,,,,,Y,125,circle,1,0,,,7,,,,,,,,,,,,,repeat,letter,lettRpt,f,0.976,vtsPrac,19,0,19,0,1,,,,,,,,,,,,,,,,,,,,,,,
295552,2022-12-06_15h10.06.638,vts_reward_expectancy_bt,2022.2.4,Win32,164.7446458,Chrome,1536,864,,,,,0,630,,,,,,,,,,,,,,,,,D,132,hexagon,1,0,,,7,,,,,,,,,,,,,repeat,letter,lettRpt,d,2.4849,vtsPrac,20,0,20,0,1,,,,,,,,,,,,,,,,,,,,,,,
295552,2022-12-06_15h10.06.638,vts_reward_expectancy_bt,2022.2.4,Win32,164.7446458,Chrome,1536,864,,,,,0,630,,,,,,,,,,,,,,,,,W,167,star,1,0,,,7,,,,,,,,,,,,,switch,number,numSwt,k,0.9321,vtsPrac,21,0,21,0,1,,,,,,,,,,,,,,,,,,,,,,,
295552,2022-12-06_15h10.06.638,vts_reward_expectancy_bt,2022.2.4,Win32,164.7446458,Chrome,1536,864,,,,,0,630,,,,,,,,,,,,,,,,,F,181,hexagon,-1,0,,,7,,,,,,,,,,,,,switch,no_choice,NA,,,vtsPrac,22,0,22,0,1,,,,,,,,,,,,,,,,,,,,,,,
295552,2022-12-06_15h10.06.638,vts_reward_expectancy_bt,2022.2.4,Win32,164.7446458,Chrome,1536,864,,,,,0,630,,,,,,,,,,,,,,,,,U,139,triangle,1,0,,,7,,,,,,,,,,,,,switch,letter,lettSwt,f,1.306,vtsPrac,23,0,23,0,1,,,,,,,,,,,,,,,,,,,,,,,
295552,2022-12-06_15h10.06.638,vts_reward_expectancy_bt,2022.2.4,Win32,164.7446458,Chrome,1536,864,,,,,0,630,,,,,,,,,,,,,,,,,Y,160,triangle,1,0,,,7,,,,,,,,,,,,,switch,number,numSwt,k,1.6131,vtsPrac,24,0,24,0,1,,,,,,,,,,,,,,,,,,,,,,,
295552,2022-12-06_15h10.06.638,vts_reward_expectancy_bt,2022.2.4,Win32,164.7446458,Chrome,1536,864,,,,,0,630,,,,,,,,,,,,,,,,,U,181,circle,1,0,,,7,,,,,,,,,,,,,repeat,number,numRpt,k,0.7101,vtsPrac,25,0,25,0,1,,,,,,,,,,,,,,,,,,,,,,,
295552,2022-12-06_15h10.06.638,vts_reward_expectancy_bt,2022.2.4,Win32,164.7446458,Chrome,1536,864,,,,,0,630,,,,,,,,,,,,,,,,,D,139,triangle,1,0,,,7,,,,,,,,,,,,,repeat,number,numRpt,j,0.8952,vtsPrac,26,0,26,0,1,,,,,,,,,,,,,,,,,,,,,,,
295552,2022-12-06_15h10.06.638,vts_reward_expectancy_bt,2022.2.4,Win32,164.7446458,Chrome,1536,864,,,,,0,630,,,,,,,,,,,,,,,,,S,132,hexagon,1,0,,,7,,,,,,,,,,,,,repeat,number,numRpt,j,0.6426,vtsPrac,27,0,27,0,1,,,,,,,,,,,,,,,,,,,,,,,
295552,2022-12-06_15h10.06.638,vts_reward_expectancy_bt,2022.2.4,Win32,164.7446458,Chrome,1536,864,,,,,0,630,,,,,,,,,,,,,,,,,H,139,circle,1,0,,,7,,,,,,,,,,,,,switch,letter,lettSwt,d,0.7175,vtsPrac,28,0,28,0,1,,,,,,,,,,,,,,,,,,,,,,,
295552,2022-12-06_15h10.06.638,vts_reward_expectancy_bt,2022.2.4,Win32,164.7446458,Chrome,1536,864,,,,,0,630,,,,,,,,,,,,,,,,,F,174,triangle,1,0,,,7,,,,,,,,,,,,,repeat,letter,lettRpt,d,0.6191,vtsPrac,29,0,29,0,1,,,,,,,,,,,,,,,,,,,,,,,
295552,2022-12-06_15h10.06.638,vts_reward_expectancy_bt,2022.2.4,Win32,164.7446458,Chrome,1536,864,,,,,0,630,,,,,,,,,,,,,,,,,B,160,triangle,1,0,,,7,,,,,,,,,,,,,repeat,letter,lettRpt,d,0.6431,vtsPrac,30,0,30,0,1,,,,,,,,,,,,,,,,,,,,,,,
295552,2022-12-06_15h10.06.638,vts_reward_expectancy_bt,2022.2.4,Win32,164.7446458,Chrome,1536,864,,,,,0,630,,,,,,,,,,,,,,,,,U,125,hexagon,1,0,,,7,,,,,,,,,,,,,repeat,letter,lettRpt,f,0.6486,vtsPrac,31,0,31,0,1,,,,,,,,,,,,,,,,,,,,,,,
295552,2022-12-06_15h10.06.638,vts_reward_expectancy_bt,2022.2.4,Win32,164.7446458,Chrome,1536,864,,,,,,,,,,,,,,,,,,,,,,,,,,,,,,,,,,,,,,,,,,,,,,,,,,,,,,,,,,,,,,,,,,,,,,,,,,,,
295552,2022-12-06_15h10.06.638,vts_reward_expectancy_bt,2022.2.4,Win32,164.7446458,Chrome,1536,864,,,,,,,,,,,,,,,,,,,,,,,,,,,,,,,,,,,,,,,,,,,,,,,,,,,,,,,,,,,,,,,,,,,,,,,,,,,,
295552,2022-12-06_15h10.06.638,vts_reward_expectancy_bt,2022.2.4,Win32,164.7446458,Chrome,1536,864,,,,,0,630,,,,,,,,,,,,,,,,,S,125,star,1,0,,,,,,,,,,,,,,,,repeat,letter,lettRpt,f,1.5825,noRew,,,,,,0,0,0,0,0,1,,,,,,,,,,,,,,,,,
295552,2022-12-06_15h10.06.638,vts_reward_expectancy_bt,2022.2.4,Win32,164.7446458,Chrome,1536,864,,,,,0,630,,,,,,,,,,,,,,,,,F,181,hexagon,1,0,,,,,,,,,,,,,,,,repeat,letter,lettRpt,d,1.4062,noRew,,,,,,0,1,0,1,0,1,,,,,,,,,,,,,,,,,
295552,2022-12-06_15h10.06.638,vts_reward_expectancy_bt,2022.2.4,Win32,164.7446458,Chrome,1536,864,,,,,0,630,,,,,,,,,,,,,,,,,B,132,star,1,0,,,,,,,,,,,,,,,,repeat,letter,lettRpt,d,0.9663,noRew,,,,,,0,2,0,2,0,1,,,,,,,,,,,,,,,,,
295552,2022-12-06_15h10.06.638,vts_reward_expectancy_bt,2022.2.4,Win32,164.7446458,Chrome,1536,864,,,,,0,630,,,,,,,,,,,,,,,,,U,167,hexagon,-1,0,,,,,,,,,,,,,,,,switch,no_choice,NA,,,noRew,,,,,,0,3,0,3,0,1,,,,,,,,,,,,,,,,,
295552,2022-12-06_15h10.06.638,vts_reward_expectancy_bt,2022.2.4,Win32,164.7446458,Chrome,1536,864,,,,,0,630,,,,,,,,,,,,,,,,,S,125,star,1,0,,,,,,,,,,,,,,,,switch,number,numSwt,j,0.863,noRew,,,,,,0,4,0,4,0,1,,,,,,,,,,,,,,,,,
295552,2022-12-06_15h10.06.638,vts_reward_expectancy_bt,2022.2.4,Win32,164.7446458,Chrome,1536,864,,,,,0,630,,,,,,,,,,,,,,,,,F,181,triangle,1,0,,,,,,,,,,,,,,,,repeat,number,numRpt,k,0.6238,noRew,,,,,,0,5,0,5,0,1,,,,,,,,,,,,,,,,,
295552,2022-12-06_15h10.06.638,vts_reward_expectancy_bt,2022.2.4,Win32,164.7446458,Chrome,1536,864,,,,,0,630,,,,,,,,,,,,,,,,,B,132,hexagon,1,0,,,,,,,,,,,,,,,,repeat,number,numRpt,j,0.6495,noRew,,,,,,0,6,0,6,0,1,,,,,,,,,,,,,,,,,
295552,2022-12-06_15h10.06.638,vts_reward_expectancy_bt,2022.2.4,Win32,164.7446458,Chrome,1536,864,,,,,0,630,,,,,,,,,,,,,,,,,U,167,star,1,0,,,,,,,,,,,,,,,,repeat,number,numRpt,k,0.5468,noRew,,,,,,0,7,0,7,0,1,,,,,,,,,,,,,,,,,
295552,2022-12-06_15h10.06.638,vts_reward_expectancy_bt,2022.2.4,Win32,164.7446458,Chrome,1536,864,,,,,0,630,,,,,,,,,,,,,,,,,W,139,star,1,0,,,,,,,,,,,,,,,,repeat,number,numRpt,j,0.7101,noRew,,,,,,0,8,0,8,0,1,,,,,,,,,,,,,,,,,
295552,2022-12-06_15h10.06.638,vts_reward_expectancy_bt,2022.2.4,Win32,164.7446458,Chrome,1536,864,,,,,0,630,,,,,,,,,,,,,,,,,S,125,circle,1,0,,,,,,,,,,,,,,,,switch,letter,lettSwt,f,1.3964,noRew,,,,,,0,9,0,9,0,1,,,,,,,,,,,,,,,,,
295552,2022-12-06_15h10.06.638,vts_reward_expectancy_bt,2022.2.4,Win32,164.7446458,Chrome,1536,864,,,,,0,630,,,,,,,,,,,,,,,,,F,167,star,1,0,,,,,,,,,,,,,,,,repeat,letter,lettRpt,d,1.2128,noRew,,,,,,0,10,0,10,0,1,,,,,,,,,,,,,,,,,
295552,2022-12-06_15h10.06.638,vts_reward_expectancy_bt,2022.2.4,Win32,164.7446458,Chrome,1536,864,,,,,0,630,,,,,,,,,,,,,,,,,B,160,hexagon,1,0,,,,,,,,,,,,,,,,repeat,letter,lettRpt,d,0.6121,noRew,,,,,,0,11,0,11,0,1,,,,,,,,,,,,,,,,,
295552,2022-12-06_15h10.06.638,vts_reward_expectancy_bt,2022.2.4,Win32,164.7446458,Chrome,1536,864,,,,,0,630,,,,,,,,,,,,,,,,,U,146,triangle,1,0,,,,,,,,,,,,,,,,repeat,letter,lettRpt,f,0.8789,noRew,,,,,,0,12,0,12,0,1,,,,,,,,,,,,,,,,,
295552,2022-12-06_15h10.06.638,vts_reward_expectancy_bt,2022.2.4,Win32,164.7446458,Chrome,1536,864,,,,,0,630,,,,,,,,,,,,,,,,,Y,181,circle,1,0,,,,,,,,,,,,,,,,switch,number,numSwt,k,0.9553,noRew,,,,,,0,13,0,13,0,1,,,,,,,,,,,,,,,,,
295552,2022-12-06_15h10.06.638,vts_reward_expectancy_bt,2022.2.4,Win32,164.7446458,Chrome,1536,864,,,,,0,630,,,,,,,,,,,,,,,,,S,125,circle,1,0,,,,,,,,,,,,,,,,repeat,number,numRpt,j,1.3602,noRew,,,,,,0,14,0,14,0,1,,,,,,,,,,,,,,,,,
295552,2022-12-06_15h10.06.638,vts_reward_expectancy_bt,2022.2.4,Win32,164.7446458,Chrome,1536,864,,,,,0,630,,,,,,,,,,,,,,,,,D,139,hexagon,1,0,,,,,,,,,,,,,,,,repeat,number,numRpt,j,1.8123,noRew,,,,,,0,15,0,15,0,1,,,,,,,,,,,,,,,,,
295552,2022-12-06_15h10.06.638,vts_reward_expectancy_bt,2022.2.4,Win32,164.7446458,Chrome,1536,864,,,,,0,630,,,,,,,,,,,,,,,,,B,132,circle,1,0,,,,,,,,,,,,,,,,repeat,number,numRpt,j,1.4064,noRew,,,,,,0,16,0,16,0,1,,,,,,,,,,,,,,,,,
295552,2022-12-06_15h10.06.638,vts_reward_expectancy_bt,2022.2.4,Win32,164.7446458,Chrome,1536,864,,,,,0,630,,,,,,,,,,,,,,,,,D,181,triangle,0,0,,,,,,,,,,,,,,,,switch,letter,NA,f,2.5404,noRew,,,,,,0,17,0,17,0,1,,,,,,,,,,,,,,,,,
295552,2022-12-06_15h10.06.638,vts_reward_expectancy_bt,2022.2.4,Win32,164.7446458,Chrome,1536,864,,,,,0,630,,,,,,,,,,,,,,,,,H,125,hexagon,1,1,,,,,,,,,,,,,,,,repeat,letter,lettRpt,d,1.4182,noRew,,,,,,0,18,0,18,0,1,,,,,,,,,,,,,,,,,
295552,2022-12-06_15h10.06.638,vts_reward_expectancy_bt,2022.2.4,Win32,164.7446458,Chrome,1536,864,,,,,0,630,,,,,,,,,,,,,,,,,W,174,circle,1,0,,,,,,,,,,,,,,,,repeat,letter,lettRpt,f,1.2533,noRew,,,,,,0,19,0,19,0,1,,,,,,,,,,,,,,,,,
295552,2022-12-06_15h10.06.638,vts_reward_expectancy_bt,2022.2.4,Win32,164.7446458,Chrome,1536,864,,,,,0,630,,,,,,,,,,,,,,,,,Y,132,triangle,1,0,,,,,,,,,,,,,,,,repeat,letter,lettRpt,f,1.6402,noRew,,,,,,0,20,0,20,0,1,,,,,,,,,,,,,,,,,
295552,2022-12-06_15h10.06.638,vts_reward_expectancy_bt,2022.2.4,Win32,164.7446458,Chrome,1536,864,,,,,0,630,,,,,,,,,,,,,,,,,U,139,hexagon,1,0,,,,,,,,,,,,,,,,repeat,letter,lettRpt,f,1.8532,noRew,,,,,,0,21,0,21,0,1,,,,,,,,,,,,,,,,,
295552,2022-12-06_15h10.06.638,vts_reward_expectancy_bt,2022.2.4,Win32,164.7446458,Chrome,1536,864,,,,,0,630,,,,,,,,,,,,,,,,,B,125,hexagon,1,0,,,,,,,,,,,,,,,,switch,number,numSwt,j,1.1688,noRew,,,,,,0,22,0,22,0,1,,,,,,,,,,,,,,,,,
295552,2022-12-06_15h10.06.638,vts_reward_expectancy_bt,2022.2.4,Win32,164.7446458,Chrome,1536,864,,,,,0,630,,,,,,,,,,,,,,,,,H,181,circle,1,0,,,,,,,,,,,,,,,,repeat,number,numRpt,k,0.5769,noRew,,,,,,0,23,0,23,0,1,,,,,,,,,,,,,,,,,
295552,2022-12-06_15h10.06.638,vts_reward_expectancy_bt,2022.2.4,Win32,164.7446458,Chrome,1536,864,,,,,0,630,,,,,,,,,,,,,,,,,B,174,triangle,1,0,,,,,,,,,,,,,,,,repeat,number,numRpt,k,2.6846,noRew,,,,,,0,24,0,24,0,1,,,,,,,,,,,,,,,,,
295552,2022-12-06_15h10.06.638,vts_reward_expectancy_bt,2022.2.4,Win32,164.7446458,Chrome,1536,864,,,,,0,630,,,,,,,,,,,,,,,,,D,132,star,1,0,,,,,,,,,,,,,,,,repeat,number,numRpt,j,1.3218,noRew,,,,,,0,25,0,25,0,1,,,,,,,,,,,,,,,,,
295552,2022-12-06_15h10.06.638,vts_reward_expectancy_bt,2022.2.4,Win32,164.7446458,Chrome,1536,864,,,,,0,630,,,,,,,,,,,,,,,,,Y,181,circle,1,0,,,,,,,,,,,,,,,,switch,letter,lettSwt,f,0.88,noRew,,,,,,0,26,0,26,0,1,,,,,,,,,,,,,,,,,
295552,2022-12-06_15h10.06.638,vts_reward_expectancy_bt,2022.2.4,Win32,164.7446458,Chrome,1536,864,,,,,0,630,,,,,,,,,,,,,,,,,U,146,star,1,0,,,,,,,,,,,,,,,,repeat,letter,lettRpt,f,2.9403,noRew,,,,,,0,27,0,27,0,1,,,,,,,,,,,,,,,,,
295552,2022-12-06_15h10.06.638,vts_reward_expectancy_bt,2022.2.4,Win32,164.7446458,Chrome,1536,864,,,,,0,630,,,,,,,,,,,,,,,,,F,139,triangle,1,0,,,,,,,,,,,,,,,,repeat,letter,lettRpt,d,0.9463,noRew,,,,,,0,28,0,28,0,1,,,,,,,,,,,,,,,,,
295552,2022-12-06_15h10.06.638,vts_reward_expectancy_bt,2022.2.4,Win32,164.7446458,Chrome,1536,864,,,,,0,630,,,,,,,,,,,,,,,,,W,160,circle,1,0,,,,,,,,,,,,,,,,repeat,letter,lettRpt,f,1.4002,noRew,,,,,,0,29,0,29,0,1,,,,,,,,,,,,,,,,,
295552,2022-12-06_15h10.06.638,vts_reward_expectancy_bt,2022.2.4,Win32,164.7446458,Chrome,1536,864,,,,,0,630,,,,,,,,,,,,,,,,,H,174,hexagon,1,0,,,,,,,,,,,,,,,,switch,number,numSwt,k,1.4227,noRew,,,,,,0,30,0,30,0,1,,,,,,,,,,,,,,,,,
295552,2022-12-06_15h10.06.638,vts_reward_expectancy_bt,2022.2.4,Win32,164.7446458,Chrome,1536,864,,,,,0,630,,,,,,,,,,,,,,,,,B,181,circle,1,0,,,,,,,,,,,,,,,,repeat,number,numRpt,k,2.5731,noRew,,,,,,0,31,0,31,0,1,,,,,,,,,,,,,,,,,
295552,2022-12-06_15h10.06.638,vts_reward_expectancy_bt,2022.2.4,Win32,164.7446458,Chrome,1536,864,,,,,0,630,,,,,,,,,,,,,,,,,S,146,circle,1,0,,,,,,,,,,,,,,,,repeat,number,numRpt,j,1.1636,noRew,,,,,,0,32,0,32,0,1,,,,,,,,,,,,,,,,,
295552,2022-12-06_15h10.06.638,vts_reward_expectancy_bt,2022.2.4,Win32,164.7446458,Chrome,1536,864,,,,,0,630,,,,,,,,,,,,,,,,,U,132,hexagon,-1,0,,,,,,,,,,,,,,,,switch,no_choice,NA,,,noRew,,,,,,0,33,0,33,0,1,,,,,,,,,,,,,,,,,
295552,2022-12-06_15h10.06.638,vts_reward_expectancy_bt,2022.2.4,Win32,164.7446458,Chrome,1536,864,,,,,0,630,,,,,,,,,,,,,,,,,H,167,circle,0,0,,,,,,,,,,,,,,,,switch,letter,NA,f,2.1431,noRew,,,,,,0,34,0,34,0,1,,,,,,,,,,,,,,,,,
295552,2022-12-06_15h10.06.638,vts_reward_expectancy_bt,2022.2.4,Win32,164.7446458,Chrome,1536,864,,,,,0,630,,,,,,,,,,,,,,,,,B,174,triangle,1,1,,,,,,,,,,,,,,,,repeat,letter,lettRpt,d,0.828,noRew,,,,,,0,35,0,35,0,1,,,,,,,,,,,,,,,,,
295552,2022-12-06_15h10.06.638,vts_reward_expectancy_bt,2022.2.4,Win32,164.7446458,Chrome,1536,864,,,,,0,630,,,,,,,,,,,,,,,,,U,181,star,1,0,,,,,,,,,,,,,,,,repeat,letter,lettRpt,f,1.1547,noRew,,,,,,0,36,0,36,0,1,,,,,,,,,,,,,,,,,
295552,2022-12-06_15h10.06.638,vts_reward_expectancy_bt,2022.2.4,Win32,164.7446458,Chrome,1536,864,,,,,0,630,,,,,,,,,,,,,,,,,F,160,circle,1,0,,,,,,,,,,,,,,,,repeat,letter,lettRpt,d,0.9766,noRew,,,,,,0,37,0,37,0,1,,,,,,,,,,,,,,,,,
295552,2022-12-06_15h10.06.638,vts_reward_expectancy_bt,2022.2.4,Win32,164.7446458,Chrome,1536,864,,,,,0,630,,,,,,,,,,,,,,,,,W,139,circle,1,0,,,,,,,,,,,,,,,,repeat,letter,lettRpt,f,0.765,noRew,,,,,,0,38,0,38,0,1,,,,,,,,,,,,,,,,,
295552,2022-12-06_15h10.06.638,vts_reward_expectancy_bt,2022.2.4,Win32,164.7446458,Chrome,1536,864,,,,,0,630,,,,,,,,,,,,,,,,,S,125,hexagon,1,0,,,,,,,,,,,,,,,,switch,number,numSwt,j,1.2157,noRew,,,,,,0,39,0,39,0,1,,,,,,,,,,,,,,,,,
295552,2022-12-06_15h10.06.638,vts_reward_expectancy_bt,2022.2.4,Win32,164.7446458,Chrome,1536,864,,,,,0,630,,,,,,,,,,,,,,,,,Y,125,circle,1,0,,,,,,,,,,,,,,,,repeat,number,numRpt,j,0.9824,noRew,,,,,,0,40,0,40,0,1,,,,,,,,,,,,,,,,,
295552,2022-12-06_15h10.06.638,vts_reward_expectancy_bt,2022.2.4,Win32,164.7446458,Chrome,1536,864,,,,,0,630,,,,,,,,,,,,,,,,,S,139,star,1,0,,,,,,,,,,,,,,,,repeat,number,numRpt,j,1.4887,noRew,,,,,,0,41,0,41,0,1,,,,,,,,,,,,,,,,,
295552,2022-12-06_15h10.06.638,vts_reward_expectancy_bt,2022.2.4,Win32,164.7446458,Chrome,1536,864,,,,,0,630,,,,,,,,,,,,,,,,,D,132,star,1,0,,,,,,,,,,,,,,,,repeat,number,numRpt,j,1.2548,noRew,,,,,,0,42,0,42,0,1,,,,,,,,,,,,,,,,,
295552,2022-12-06_15h10.06.638,vts_reward_expectancy_bt,2022.2.4,Win32,164.7446458,Chrome,1536,864,,,,,0,630,,,,,,,,,,,,,,,,,B,174,hexagon,1,0,,,,,,,,,,,,,,,,repeat,number,numRpt,k,0.776,noRew,,,,,,0,43,0,43,0,1,,,,,,,,,,,,,,,,,
295552,2022-12-06_15h10.06.638,vts_reward_expectancy_bt,2022.2.4,Win32,164.7446458,Chrome,1536,864,,,,,0,630,,,,,,,,,,,,,,,,,B,167,circle,1,0,,,,,,,,,,,,,,,,repeat,number,numRpt,k,0.9399,noRew,,,,,,0,44,0,44,0,1,,,,,,,,,,,,,,,,,
295552,2022-12-06_15h10.06.638,vts_reward_expectancy_bt,2022.2.4,Win32,164.7446458,Chrome,1536,864,,,,,0,630,,,,,,,,,,,,,,,,,U,132,hexagon,1,0,,,,,,,,,,,,,,,,repeat,number,numRpt,j,1.4551,noRew,,,,,,0,45,0,45,0,1,,,,,,,,,,,,,,,,,
295552,2022-12-06_15h10.06.638,vts_reward_expectancy_bt,2022.2.4,Win32,164.7446458,Chrome,1536,864,,,,,0,630,,,,,,,,,,,,,,,,,S,174,hexagon,1,0,,,,,,,,,,,,,,,,repeat,number,numRpt,k,0.7418,noRew,,,,,,0,46,0,46,0,1,,,,,,,,,,,,,,,,,
295552,2022-12-06_15h10.06.638,vts_reward_expectancy_bt,2022.2.4,Win32,164.7446458,Chrome,1536,864,,,,,0,630,,,,,,,,,,,,,,,,,Y,146,star,1,0,,,,,,,,,,,,,,,,repeat,number,numRpt,j,0.9319,noRew,,,,,,0,47,0,47,0,1,,,,,,,,,,,,,,,,,
295552,2022-12-06_15h10.06.638,vts_reward_expectancy_bt,2022.2.4,Win32,164.7446458,Chrome,1536,864,,,,,0,630,,,,,,,,,,,,,,,,,B,139,star,1,0,,,,,,,,,,,,,,,,switch,letter,lettSwt,d,1.079,noRew,,,,,,0,48,0,48,0,1,,,,,,,,,,,,,,,,,
295552,2022-12-06_15h10.06.638,vts_reward_expectancy_bt,2022.2.4,Win32,164.7446458,Chrome,1536,864,,,,,0,630,,,,,,,,,,,,,,,,,W,160,triangle,1,0,,,,,,,,,,,,,,,,repeat,letter,lettRpt,f,2.2606,noRew,,,,,,0,49,0,49,0,1,,,,,,,,,,,,,,,,,
295552,2022-12-06_15h10.06.638,vts_reward_expectancy_bt,2022.2.4,Win32,164.7446458,Chrome,1536,864,,,,,0,630,,,,,,,,,,,,,,,,,S,181,star,1,0,,,,,,,,,,,,,,,,repeat,letter,lettRpt,f,1.7516,noRew,,,,,,0,50,0,50,0,1,,,,,,,,,,,,,,,,,
295552,2022-12-06_15h10.06.638,vts_reward_expectancy_bt,2022.2.4,Win32,164.7446458,Chrome,1536,864,,,,,0,630,,,,,,,,,,,,,,,,,H,146,circle,1,0,,,,,,,,,,,,,,,,repeat,letter,lettRpt,d,1.9942,noRew,,,,,,0,51,0,51,0,1,,,,,,,,,,,,,,,,,
295552,2022-12-06_15h10.06.638,vts_reward_expectancy_bt,2022.2.4,Win32,164.7446458,Chrome,1536,864,,,,,0,630,,,,,,,,,,,,,,,,,U,146,hexagon,1,0,,,,,,,,,,,,,,,,repeat,letter,lettRpt,f,0.7217,noRew,,,,,,0,52,0,52,0,1,,,,,,,,,,,,,,,,,
295552,2022-12-06_15h10.06.638,vts_reward_expectancy_bt,2022.2.4,Win32,164.7446458,Chrome,1536,864,,,,,0,630,,,,,,,,,,,,,,,,,Y,160,star,1,0,,,,,,,,,,,,,,,,repeat,letter,lettRpt,f,1.1006,noRew,,,,,,0,53,0,53,0,1,,,,,,,,,,,,,,,,,
295552,2022-12-06_15h10.06.638,vts_reward_expectancy_bt,2022.2.4,Win32,164.7446458,Chrome,1536,864,,,,,0,630,,,,,,,,,,,,,,,,,B,174,triangle,1,0,,,,,,,,,,,,,,,,switch,number,numSwt,k,1.3317,noRew,,,,,,0,54,0,54,0,1,,,,,,,,,,,,,,,,,
295552,2022-12-06_15h10.06.638,vts_reward_expectancy_bt,2022.2.4,Win32,164.7446458,Chrome,1536,864,,,,,0,630,,,,,,,,,,,,,,,,,F,167,hexagon,1,0,,,,,,,,,,,,,,,,repeat,number,numRpt,k,2.3782,noRew,,,,,,0,55,0,55,0,1,,,,,,,,,,,,,,,,,
295552,2022-12-06_15h10.06.638,vts_reward_expectancy_bt,2022.2.4,Win32,164.7446458,Chrome,1536,864,,,,,0,630,,,,,,,,,,,,,,,,,D,181,triangle,1,0,,,,,,,,,,,,,,,,repeat,number,numRpt,k,0.7075,noRew,,,,,,0,56,0,56,0,1,,,,,,,,,,,,,,,,,
295552,2022-12-06_15h10.06.638,vts_reward_expectancy_bt,2022.2.4,Win32,164.7446458,Chrome,1536,864,,,,,0,630,,,,,,,,,,,,,,,,,S,174,circle,1,0,,,,,,,,,,,,,,,,repeat,number,numRpt,k,0.5573,noRew,,,,,,0,57,0,57,0,1,,,,,,,,,,,,,,,,,
295552,2022-12-06_15h10.06.638,vts_reward_expectancy_bt,2022.2.4,Win32,164.7446458,Chrome,1536,864,,,,,0,630,,,,,,,,,,,,,,,,,W,125,circle,1,0,,,,,,,,,,,,,,,,repeat,number,numRpt,j,0.1221,noRew,,,,,,0,58,0,58,0,1,,,,,,,,,,,,,,,,,
295552,2022-12-06_15h10.06.638,vts_reward_expectancy_bt,2022.2.4,Win32,164.7446458,Chrome,1536,864,,,,,0,630,,,,,,,,,,,,,,,,,F,167,hexagon,1,0,,,,,,,,,,,,,,,,repeat,number,numRpt,k,1.0181,noRew,,,,,,0,59,0,59,0,1,,,,,,,,,,,,,,,,,
295552,2022-12-06_15h10.06.638,vts_reward_expectancy_bt,2022.2.4,Win32,164.7446458,Chrome,1536,864,,,,,0,630,,,,,,,,,,,,,,,,,U,139,hexagon,1,0,,,,,,,,,,,,,,,,repeat,number,numRpt,j,0.5339,noRew,,,,,,0,60,0,60,0,1,,,,,,,,,,,,,,,,,
295552,2022-12-06_15h10.06.638,vts_reward_expectancy_bt,2022.2.4,Win32,164.7446458,Chrome,1536,864,,,,,0,630,,,,,,,,,,,,,,,,,W,181,triangle,1,0,,,,,,,,,,,,,,,,switch,letter,lettSwt,f,1.731,noRew,,,,,,0,61,0,61,0,1,,,,,,,,,,,,,,,,,
295552,2022-12-06_15h10.06.638,vts_reward_expectancy_bt,2022.2.4,Win32,164.7446458,Chrome,1536,864,,,,,0,630,,,,,,,,,,,,,,,,,H,160,triangle,1,0,,,,,,,,,,,,,,,,repeat,letter,lettRpt,d,1.0184,noRew,,,,,,0,62,0,62,0,1,,,,,,,,,,,,,,,,,
295552,2022-12-06_15h10.06.638,vts_reward_expectancy_bt,2022.2.4,Win32,164.7446458,Chrome,1536,864,,,,,0,630,,,,,,,,,,,,,,,,,F,174,star,1,0,,,,,,,,,,,,,,,,repeat,letter,lettRpt,d,1.6364,noRew,,,,,,0,63,0,63,0,1,,,,,,,,,,,,,,,,,
295552,2022-12-06_15h10.06.638,vts_reward_expectancy_bt,2022.2.4,Win32,164.7446458,Chrome,1536,864,,,,,,,,,,,,,,,,,,,,,,,,,,,,,,,,,,,,,,,,,,,,,,,,,,,,,,,,,,,,,,,,,,,,,,,,,,,,
295552,2022-12-06_15h10.06.638,vts_reward_expectancy_bt,2022.2.4,Win32,164.7446458,Chrome,1536,864,,,,,1,631,,,,,,,,,,,,,,,,,W,132,hexagon,1,0,,,,,,,,,,,,,,,,repeat,letter,lettRpt,f,0.9545,Lo,,,,,,0,,,,,,space,6.9027,low,0,0,0,0,1,,,,,,,,,
295552,2022-12-06_15h10.06.638,vts_reward_expectancy_bt,2022.2.4,Win32,164.7446458,Chrome,1536,864,,,,,1,632,,,,,,,,,,,,,,,,,U,146,star,1,0,,,,,,,,,,,,,,,,repeat,letter,lettRpt,f,0.5835,Hi,,,,,,0,,,,,,,,low,1,0,1,0,1,,,,,,,,,
295552,2022-12-06_15h10.06.638,vts_reward_expectancy_bt,2022.2.4,Win32,164.7446458,Chrome,1536,864,,,,,1,633,,,,,,,,,,,,,,,,,F,160,circle,1,0,,,,,,,,,,,,,,,,repeat,letter,lettRpt,d,0.4995,Hi,,,,,,0,,,,,,,,low,2,0,2,0,1,,,,,,,,,
295552,2022-12-06_15h10.06.638,vts_reward_expectancy_bt,2022.2.4,Win32,164.7446458,Chrome,1536,864,,,,,1,634,,,,,,,,,,,,,,,,,Y,181,triangle,1,0,,,,,,,,,,,,,,,,repeat,letter,lettRpt,f,0.5217,Lo,,,,,,0,,,,,,,,low,3,0,3,0,1,,,,,,,,,
295552,2022-12-06_15h10.06.638,vts_reward_expectancy_bt,2022.2.4,Win32,164.7446458,Chrome,1536,864,,,,,1,635,,,,,,,,,,,,,,,,,D,167,hexagon,1,0,,,,,,,,,,,,,,,,switch,number,numSwt,k,0.5099,Lo,,,,,,0,,,,,,,,low,4,0,4,0,1,,,,,,,,,
295552,2022-12-06_15h10.06.638,vts_reward_expectancy_bt,2022.2.4,Win32,164.7446458,Chrome,1536,864,,,,,10,645,,,,,,,,,,,,,,,,,S,139,star,1,0,,,,,,,,,,,,,,,,repeat,number,numRpt,j,0.6367,Hi,,,,,,0,,,,,,,,low,5,0,5,0,1,,,,,,,,,
295552,2022-12-06_15h10.06.638,vts_reward_expectancy_bt,2022.2.4,Win32,164.7446458,Chrome,1536,864,,,,,10,655,,,,,,,,,,,,,,,,,H,125,circle,1,0,,,,,,,,,,,,,,,,repeat,number,numRpt,j,0.4977,Hi,,,,,,0,,,,,,,,low,6,0,6,0,1,,,,,,,,,
295552,2022-12-06_15h10.06.638,vts_reward_expectancy_bt,2022.2.4,Win32,164.7446458,Chrome,1536,864,,,,,1,656,,,,,,,,,,,,,,,,,B,174,triangle,1,0,,,,,,,,,,,,,,,,repeat,number,numRpt,k,0.9159,Lo,,,,,,0,,,,,,,,low,7,0,7,0,1,,,,,,,,,
295552,2022-12-06_15h10.06.638,vts_reward_expectancy_bt,2022.2.4,Win32,164.7446458,Chrome,1536,864,,,,,1,657,,,,,,,,,,,,,,,,,W,132,hexagon,1,0,,,,,,,,,,,,,,,,switch,letter,lettSwt,f,1.0365,Lo,,,,,,0,,,,,,,,low,8,0,8,0,1,,,,,,,,,
295552,2022-12-06_15h10.06.638,vts_reward_expectancy_bt,2022.2.4,Win32,164.7446458,Chrome,1536,864,,,,,10,667,,,,,,,,,,,,,,,,,U,146,circle,1,0,,,,,,,,,,,,,,,,repeat,letter,lettRpt,f,0.5699,Hi,,,,,,0,,,,,,,,low,9,0,9,0,1,,,,,,,,,
295552,2022-12-06_15h10.06.638,vts_reward_expectancy_bt,2022.2.4,Win32,164.7446458,Chrome,1536,864,,,,,1,668,,,,,,,,,,,,,,,,,F,160,triangle,1,0,,,,,,,,,,,,,,,,repeat,letter,lettRpt,d,1.376,Lo,,,,,,0,,,,,,,,low,10,0,10,0,1,,,,,,,,,
295552,2022-12-06_15h10.06.638,vts_reward_expectancy_bt,2022.2.4,Win32,164.7446458,Chrome,1536,864,,,,,1,669,,,,,,,,,,,,,,,,,Y,181,star,1,0,,,,,,,,,,,,,,,,repeat,letter,lettRpt,f,0.6913,Hi,,,,,,0,,,,,,,,low,11,0,11,0,1,,,,,,,,,
295552,2022-12-06_15h10.06.638,vts_reward_expectancy_bt,2022.2.4,Win32,164.7446458,Chrome,1536,864,,,,,0,669,,,,,,,,,,,,,,,,,D,167,star,1,0,,,,,,,,,,,,,,,,repeat,letter,lettRpt,d,1.1036,Hi,,,,,,0,,,,,,,,low,12,0,12,0,1,,,,,,,,,
295552,2022-12-06_15h10.06.638,vts_reward_expectancy_bt,2022.2.4,Win32,164.7446458,Chrome,1536,864,,,,,10,679,,,,,,,,,,,,,,,,,S,139,triangle,1,0,,,,,,,,,,,,,,,,repeat,letter,lettRpt,f,0.5668,Lo,,,,,,0,,,,,,,,low,13,0,13,0,1,,,,,,,,,
295552,2022-12-06_15h10.06.638,vts_reward_expectancy_bt,2022.2.4,Win32,164.7446458,Chrome,1536,864,,,,,10,689,,,,,,,,,,,,,,,,,H,125,circle,1,0,,,,,,,,,,,,,,,,repeat,letter,lettRpt,d,0.6433,Hi,,,,,,0,,,,,,,,low,14,0,14,0,1,,,,,,,,,
295552,2022-12-06_15h10.06.638,vts_reward_expectancy_bt,2022.2.4,Win32,164.7446458,Chrome,1536,864,,,,,1,690,,,,,,,,,,,,,,,,,B,174,hexagon,1,0,,,,,,,,,,,,,,,,switch,number,numSwt,k,0.546,Lo,,,,,,0,,,,,,,,low,15,0,15,0,1,,,,,,,,,
295552,2022-12-06_15h10.06.638,vts_reward_expectancy_bt,2022.2.4,Win32,164.7446458,Chrome,1536,864,,,,,1,691,,,,,,,,,,,,,,,,,Y,174,circle,1,0,,,,,,,,,,,,,,,,repeat,number,numRpt,k,0.4489,Hi,,,,,,0,,,,,,,,low,16,0,16,0,1,,,,,,,,,
295552,2022-12-06_15h10.06.638,vts_reward_expectancy_bt,2022.2.4,Win32,164.7446458,Chrome,1536,864,,,,,10,701,,,,,,,,,,,,,,,,,B,160,hexagon,1,0,,,,,,,,,,,,,,,,repeat,number,numRpt,k,0.5169,Lo,,,,,,0,,,,,,,,low,17,0,17,0,1,,,,,,,,,
295552,2022-12-06_15h10.06.638,vts_reward_expectancy_bt,2022.2.4,Win32,164.7446458,Chrome,1536,864,,,,,10,711,,,,,,,,,,,,,,,,,F,125,star,1,0,,,,,,,,,,,,,,,,repeat,number,numRpt,j,0.5764,Hi,,,,,,0,,,,,,,,low,18,0,18,0,1,,,,,,,,,
295552,2022-12-06_15h10.06.638,vts_reward_expectancy_bt,2022.2.4,Win32,164.7446458,Chrome,1536,864,,,,,10,721,,,,,,,,,,,,,,,,,D,146,triangle,1,0,,,,,,,,,,,,,,,,switch,letter,lettSwt,d,0.5001,Lo,,,,,,0,,,,,,,,low,19,0,19,0,1,,,,,,,,,
295552,2022-12-06_15h10.06.638,vts_reward_expectancy_bt,2022.2.4,Win32,164.7446458,Chrome,1536,864,,,,,1,722,,,,,,,,,,,,,,,,,U,139,hexagon,1,0,,,,,,,,,,,,,,,,repeat,letter,lettRpt,f,0.5455,Lo,,,,,,0,,,,,,,,low,20,0,20,0,1,,,,,,,,,
295552,2022-12-06_15h10.06.638,vts_reward_expectancy_bt,2022.2.4,Win32,164.7446458,Chrome,1536,864,,,,,10,732,,,,,,,,,,,,,,,,,W,167,circle,1,0,,,,,,,,,,,,,,,,repeat,letter,lettRpt,f,0.5334,Hi,,,,,,0,,,,,,,,low,21,0,21,0,1,,,,,,,,,
295552,2022-12-06_15h10.06.638,vts_reward_expectancy_bt,2022.2.4,Win32,164.7446458,Chrome,1536,864,,,,,10,742,,,,,,,,,,,,,,,,,S,181,triangle,1,0,,,,,,,,,,,,,,,,repeat,letter,lettRpt,f,0.6063,Lo,,,,,,0,,,,,,,,low,22,0,22,0,1,,,,,,,,,
295552,2022-12-06_15h10.06.638,vts_reward_expectancy_bt,2022.2.4,Win32,164.7446458,Chrome,1536,864,,,,,10,752,,,,,,,,,,,,,,,,,H,132,star,1,0,,,,,,,,,,,,,,,,switch,number,numSwt,j,0.6952,Hi,,,,,,0,,,,,,,,low,23,0,23,0,1,,,,,,,,,
295552,2022-12-06_15h10.06.638,vts_reward_expectancy_bt,2022.2.4,Win32,164.7446458,Chrome,1536,864,,,,,1,753,,,,,,,,,,,,,,,,,S,139,circle,1,0,,,,,,,,,,,,,,,,repeat,number,numRpt,j,0.5431,Hi,,,,,,0,,,,,,,,low,24,0,24,0,1,,,,,,,,,
295552,2022-12-06_15h10.06.638,vts_reward_expectancy_bt,2022.2.4,Win32,164.7446458,Chrome,1536,864,,,,,1,754,,,,,,,,,,,,,,,,,D,181,triangle,1,0,,,,,,,,,,,,,,,,repeat,number,numRpt,k,0.4524,Lo,,,,,,0,,,,,,,,low,25,0,25,0,1,,,,,,,,,
295552,2022-12-06_15h10.06.638,vts_reward_expectancy_bt,2022.2.4,Win32,164.7446458,Chrome,1536,864,,,,,10,764,,,,,,,,,,,,,,,,,B,132,hexagon,1,0,,,,,,,,,,,,,,,,repeat,number,numRpt,j,0.7036,Lo,,,,,,0,,,,,,,,low,26,0,26,0,1,,,,,,,,,
295552,2022-12-06_15h10.06.638,vts_reward_expectancy_bt,2022.2.4,Win32,164.7446458,Chrome,1536,864,,,,,10,774,,,,,,,,,,,,,,,,,Y,174,star,1,0,,,,,,,,,,,,,,,,switch,letter,lettSwt,f,0.6887,Hi,,,,,,0,,,,,,,,low,27,0,27,0,1,,,,,,,,,
295552,2022-12-06_15h10.06.638,vts_reward_expectancy_bt,2022.2.4,Win32,164.7446458,Chrome,1536,864,,,,,0,774,,,,,,,,,,,,,,,,,F,160,star,1,0,,,,,,,,,,,,,,,,repeat,letter,lettRpt,d,1.1827,Hi,,,,,,0,,,,,,,,low,28,0,28,0,1,,,,,,,,,
295552,2022-12-06_15h10.06.638,vts_reward_expectancy_bt,2022.2.4,Win32,164.7446458,Chrome,1536,864,,,,,10,784,,,,,,,,,,,,,,,,,H,167,circle,1,0,,,,,,,,,,,,,,,,repeat,letter,lettRpt,d,0.5701,Hi,,,,,,0,,,,,,,,low,29,0,29,0,1,,,,,,,,,
295552,2022-12-06_15h10.06.638,vts_reward_expectancy_bt,2022.2.4,Win32,164.7446458,Chrome,1536,864,,,,,10,794,,,,,,,,,,,,,,,,,W,146,triangle,1,0,,,,,,,,,,,,,,,,repeat,letter,lettRpt,f,0.4674,Lo,,,,,,0,,,,,,,,low,30,0,30,0,1,,,,,,,,,
295552,2022-12-06_15h10.06.638,vts_reward_expectancy_bt,2022.2.4,Win32,164.7446458,Chrome,1536,864,,,,,1,795,,,,,,,,,,,,,,,,,U,125,hexagon,1,0,,,,,,,,,,,,,,,,repeat,letter,lettRpt,f,0.5751,Lo,,,,,,0,,,,,,,,low,31,0,31,0,1,,,,,,,,,
295552,2022-12-06_15h10.06.638,vts_reward_expectancy_bt,2022.2.4,Win32,164.7446458,Chrome,1536,864,,,,,0,795,,,,,,,,,,,,,,,,,W,174,triangle,0,0,,,,,,,,,,,,,,,,switch,number,NA,j,1.4531,Lo,,,,,,1,,,,,,space,0.029,low,0,0,0,0,1,,,,,,,,,
295552,2022-12-06_15h10.06.638,vts_reward_expectancy_bt,2022.2.4,Win32,164.7446458,Chrome,1536,864,,,,,1,796,,,,,,,,,,,,,,,,,S,132,hexagon,1,1,,,,,,,,,,,,,,,,repeat,number,numRpt,j,0.3904,Lo,,,,,,1,,,,,,,,low,1,0,1,0,1,,,,,,,,,
295552,2022-12-06_15h10.06.638,vts_reward_expectancy_bt,2022.2.4,Win32,164.7446458,Chrome,1536,864,,,,,0,796,,,,,,,,,,,,,,,,,F,167,star,1,0,,,,,,,,,,,,,,,,switch,letter,lettSwt,d,0.7623,Hi,,,,,,1,,,,,,,,low,2,0,2,0,1,,,,,,,,,
295552,2022-12-06_15h10.06.638,vts_reward_expectancy_bt,2022.2.4,Win32,164.7446458,Chrome,1536,864,,,,,10,806,,,,,,,,,,,,,,,,,Y,146,circle,1,0,,,,,,,,,,,,,,,,repeat,letter,lettRpt,f,0.5197,Hi,,,,,,1,,,,,,,,low,3,0,3,0,1,,,,,,,,,
295552,2022-12-06_15h10.06.638,vts_reward_expectancy_bt,2022.2.4,Win32,164.7446458,Chrome,1536,864,,,,,0,806,,,,,,,,,,,,,,,,,D,181,triangle,0,0,,,,,,,,,,,,,,,,repeat,letter,NA,f,0.5508,Hi,,,,,,1,,,,,,,,low,4,0,4,0,1,,,,,,,,,
295552,2022-12-06_15h10.06.638,vts_reward_expectancy_bt,2022.2.4,Win32,164.7446458,Chrome,1536,864,,,,,10,816,,,,,,,,,,,,,,,,,U,125,hexagon,1,1,,,,,,,,,,,,,,,,repeat,letter,lettRpt,f,0.6813,Lo,,,,,,1,,,,,,,,low,5,0,5,0,1,,,,,,,,,
295552,2022-12-06_15h10.06.638,vts_reward_expectancy_bt,2022.2.4,Win32,164.7446458,Chrome,1536,864,,,,,10,826,,,,,,,,,,,,,,,,,H,160,star,1,0,,,,,,,,,,,,,,,,repeat,letter,lettRpt,d,0.518,Hi,,,,,,1,,,,,,,,low,6,0,6,0,1,,,,,,,,,
295552,2022-12-06_15h10.06.638,vts_reward_expectancy_bt,2022.2.4,Win32,164.7446458,Chrome,1536,864,,,,,0,826,,,,,,,,,,,,,,,,,B,139,circle,1,0,,,,,,,,,,,,,,,,switch,number,numSwt,j,0.6172,Hi,,,,,,1,,,,,,,,low,7,0,7,0,1,,,,,,,,,
295552,2022-12-06_15h10.06.638,vts_reward_expectancy_bt,2022.2.4,Win32,164.7446458,Chrome,1536,864,,,,,0,826,,,,,,,,,,,,,,,,,W,174,star,1,0,,,,,,,,,,,,,,,,repeat,number,numRpt,k,0.6093,Hi,,,,,,1,,,,,,,,low,8,0,8,0,1,,,,,,,,,
295552,2022-12-06_15h10.06.638,vts_reward_expectancy_bt,2022.2.4,Win32,164.7446458,Chrome,1536,864,,,,,0,826,,,,,,,,,,,,,,,,,S,132,circle,1,0,,,,,,,,,,,,,,,,repeat,number,numRpt,j,0.5265,Hi,,,,,,1,,,,,,,,low,9,0,9,0,1,,,,,,,,,
295552,2022-12-06_15h10.06.638,vts_reward_expectancy_bt,2022.2.4,Win32,164.7446458,Chrome,1536,864,,,,,10,836,,,,,,,,,,,,,,,,,F,167,triangle,1,0,,,,,,,,,,,,,,,,repeat,number,numRpt,k,0.3939,Lo,,,,,,1,,,,,,,,low,10,0,10,0,1,,,,,,,,,
295552,2022-12-06_15h10.06.638,vts_reward_expectancy_bt,2022.2.4,Win32,164.7446458,Chrome,1536,864,,,,,1,837,,,,,,,,,,,,,,,,,Y,146,hexagon,1,0,,,,,,,,,,,,,,,,repeat,number,numRpt,j,0.4546,Lo,,,,,,1,,,,,,,,low,11,0,11,0,1,,,,,,,,,
295552,2022-12-06_15h10.06.638,vts_reward_expectancy_bt,2022.2.4,Win32,164.7446458,Chrome,1536,864,,,,,0,837,,,,,,,,,,,,,,,,,D,181,hexagon,0,0,,,,,,,,,,,,,,,,repeat,number,NA,j,0.3399,Lo,,,,,,1,,,,,,,,low,12,0,12,0,1,,,,,,,,,
295552,2022-12-06_15h10.06.638,vts_reward_expectancy_bt,2022.2.4,Win32,164.7446458,Chrome,1536,864,,,,,0,837,,,,,,,,,,,,,,,,,U,125,circle,1,1,,,,,,,,,,,,,,,,repeat,number,numRpt,j,1.491,Hi,,,,,,1,,,,,,,,low,13,0,13,0,1,,,,,,,,,
295552,2022-12-06_15h10.06.638,vts_reward_expectancy_bt,2022.2.4,Win32,164.7446458,Chrome,1536,864,,,,,1,838,,,,,,,,,,,,,,,,,H,160,triangle,1,0,,,,,,,,,,,,,,,,repeat,number,numRpt,k,0.4251,Lo,,,,,,1,,,,,,,,low,14,0,14,0,1,,,,,,,,,
295552,2022-12-06_15h10.06.638,vts_reward_expectancy_bt,2022.2.4,Win32,164.7446458,Chrome,1536,864,,,,,0,838,,,,,,,,,,,,,,,,,B,139,star,1,0,,,,,,,,,,,,,,,,repeat,number,numRpt,j,0.6734,Hi,,,,,,1,,,,,,,,low,15,0,15,0,1,,,,,,,,,
295552,2022-12-06_15h10.06.638,vts_reward_expectancy_bt,2022.2.4,Win32,164.7446458,Chrome,1536,864,,,,,10,848,,,,,,,,,,,,,,,,,W,146,hexagon,1,0,,,,,,,,,,,,,,,,switch,letter,lettSwt,f,0.6002,Lo,,,,,,1,,,,,,,,low,16,0,16,0,1,,,,,,,,,
295552,2022-12-06_15h10.06.638,vts_reward_expectancy_bt,2022.2.4,Win32,164.7446458,Chrome,1536,864,,,,,0,848,,,,,,,,,,,,,,,,,Y,167,circle,1,0,,,,,,,,,,,,,,,,repeat,letter,lettRpt,f,0.5762,Hi,,,,,,1,,,,,,,,low,17,0,17,0,1,,,,,,,,,
295552,2022-12-06_15h10.06.638,vts_reward_expectancy_bt,2022.2.4,Win32,164.7446458,Chrome,1536,864,,,,,0,848,,,,,,,,,,,,,,,,,U,125,star,1,0,,,,,,,,,,,,,,,,repeat,letter,lettRpt,f,0.7332,Hi,,,,,,1,,,,,,,,low,18,0,18,0,1,,,,,,,,,
295552,2022-12-06_15h10.06.638,vts_reward_expectancy_bt,2022.2.4,Win32,164.7446458,Chrome,1536,864,,,,,1,849,,,,,,,,,,,,,,,,,D,174,triangle,1,0,,,,,,,,,,,,,,,,repeat,letter,lettRpt,d,0.4369,Lo,,,,,,1,,,,,,,,low,19,0,19,0,1,,,,,,,,,
295552,2022-12-06_15h10.06.638,vts_reward_expectancy_bt,2022.2.4,Win32,164.7446458,Chrome,1536,864,,,,,0,849,,,,,,,,,,,,,,,,,F,181,circle,0,0,,,,,,,,,,,,,,,,repeat,letter,NA,f,0.5089,Lo,,,,,,1,,,,,,,,low,20,0,20,0,1,,,,,,,,,
295552,2022-12-06_15h10.06.638,vts_reward_expectancy_bt,2022.2.4,Win32,164.7446458,Chrome,1536,864,,,,,1,850,,,,,,,,,,,,,,,,,H,160,hexagon,1,1,,,,,,,,,,,,,,,,repeat,letter,lettRpt,d,0.4229,Lo,,,,,,1,,,,,,,,low,21,0,21,0,1,,,,,,,,,
295552,2022-12-06_15h10.06.638,vts_reward_expectancy_bt,2022.2.4,Win32,164.7446458,Chrome,1536,864,,,,,0,850,,,,,,,,,,,,,,,,,B,132,star,0,0,,,,,,,,,,,,,,,,repeat,letter,NA,f,0.4776,Lo,,,,,,1,,,,,,,,low,22,0,22,0,1,,,,,,,,,
295552,2022-12-06_15h10.06.638,vts_reward_expectancy_bt,2022.2.4,Win32,164.7446458,Chrome,1536,864,,,,,0,850,,,,,,,,,,,,,,,,,S,139,triangle,0,1,,,,,,,,,,,,,,,,repeat,letter,NA,d,0.5037,Lo,,,,,,1,,,,,,,,low,23,0,23,0,1,,,,,,,,,
295552,2022-12-06_15h10.06.638,vts_reward_expectancy_bt,2022.2.4,Win32,164.7446458,Chrome,1536,864,,,,,1,851,,,,,,,,,,,,,,,,,W,139,hexagon,1,1,,,,,,,,,,,,,,,,repeat,letter,lettRpt,f,0.5647,Lo,,,,,,1,,,,,,,,low,24,0,24,0,1,,,,,,,,,
295552,2022-12-06_15h10.06.638,vts_reward_expectancy_bt,2022.2.4,Win32,164.7446458,Chrome,1536,864,,,,,10,861,,,,,,,,,,,,,,,,,B,125,triangle,1,0,,,,,,,,,,,,,,,,switch,number,numSwt,j,0.4987,Lo,,,,,,1,,,,,,,,low,25,0,25,0,1,,,,,,,,,
295552,2022-12-06_15h10.06.638,vts_reward_expectancy_bt,2022.2.4,Win32,164.7446458,Chrome,1536,864,,,,,0,861,,,,,,,,,,,,,,,,,U,167,circle,1,0,,,,,,,,,,,,,,,,repeat,number,numRpt,k,0.6503,Hi,,,,,,1,,,,,,,,low,26,0,26,0,1,,,,,,,,,
295552,2022-12-06_15h10.06.638,vts_reward_expectancy_bt,2022.2.4,Win32,164.7446458,Chrome,1536,864,,,,,10,871,,,,,,,,,,,,,,,,,S,146,star,1,0,,,,,,,,,,,,,,,,repeat,number,numRpt,j,0.474,Hi,,,,,,1,,,,,,,,low,27,0,27,0,1,,,,,,,,,
295552,2022-12-06_15h10.06.638,vts_reward_expectancy_bt,2022.2.4,Win32,164.7446458,Chrome,1536,864,,,,,0,871,,,,,,,,,,,,,,,,,H,174,star,1,0,,,,,,,,,,,,,,,,repeat,number,numRpt,k,0.51,Hi,,,,,,1,,,,,,,,low,28,0,28,0,1,,,,,,,,,
295552,2022-12-06_15h10.06.638,vts_reward_expectancy_bt,2022.2.4,Win32,164.7446458,Chrome,1536,864,,,,,0,871,,,,,,,,,,,,,,,,,D,181,circle,1,0,,,,,,,,,,,,,,,,repeat,number,numRpt,k,0.6252,Hi,,,,,,1,,,,,,,,low,29,0,29,0,1,,,,,,,,,
295552,2022-12-06_15h10.06.638,vts_reward_expectancy_bt,2022.2.4,Win32,164.7446458,Chrome,1536,864,,,,,10,881,,,,,,,,,,,,,,,,,F,160,triangle,1,0,,,,,,,,,,,,,,,,switch,letter,lettSwt,d,0.7467,Lo,,,,,,1,,,,,,,,low,30,0,30,0,1,,,,,,,,,
295552,2022-12-06_15h10.06.638,vts_reward_expectancy_bt,2022.2.4,Win32,164.7446458,Chrome,1536,864,,,,,1,882,,,,,,,,,,,,,,,,,Y,132,hexagon,1,0,,,,,,,,,,,,,,,,repeat,letter,lettRpt,f,0.6169,Lo,,,,,,1,,,,,,,,low,31,0,31,0,1,,,,,,,,,
295552,2022-12-06_15h10.06.638,vts_reward_expectancy_bt,2022.2.4,Win32,164.7446458,Chrome,1536,864,,,,,0,882,,,,,,,,,,,,,,,,,Y,146,hexagon,0,0,,,,,,,,,,,,,,,,switch,number,NA,k,0.6777,Lo,,,,,,2,,,,,,space,5.2056,low,0,0,0,0,1,,,,,,,,,
295552,2022-12-06_15h10.06.638,vts_reward_expectancy_bt,2022.2.4,Win32,164.7446458,Chrome,1536,864,,,,,0,882,,,,,,,,,,,,,,,,,D,160,circle,0,1,,,,,,,,,,,,,,,,switch,letter,NA,f,0.6462,Lo,,,,,,2,,,,,,,,low,1,0,1,0,1,,,,,,,,,
295552,2022-12-06_15h10.06.638,vts_reward_expectancy_bt,2022.2.4,Win32,164.7446458,Chrome,1536,864,,,,,1,883,,,,,,,,,,,,,,,,,B,125,triangle,1,1,,,,,,,,,,,,,,,,repeat,letter,lettRpt,d,0.5506,Lo,,,,,,2,,,,,,,,low,2,0,2,0,1,,,,,,,,,
295552,2022-12-06_15h10.06.638,vts_reward_expectancy_bt,2022.2.4,Win32,164.7446458,Chrome,1536,864,,,,,0,883,,,,,,,,,,,,,,,,,W,167,star,1,0,,,,,,,,,,,,,,,,repeat,letter,lettRpt,f,0.6255,Hi,,,,,,2,,,,,,,,low,3,0,3,0,1,,,,,,,,,
295552,2022-12-06_15h10.06.638,vts_reward_expectancy_bt,2022.2.4,Win32,164.7446458,Chrome,1536,864,,,,,1,884,,,,,,,,,,,,,,,,,H,181,hexagon,1,0,,,,,,,,,,,,,,,,repeat,letter,lettRpt,d,0.3646,Lo,,,,,,2,,,,,,,,low,4,0,4,0,1,,,,,,,,,
295552,2022-12-06_15h10.06.638,vts_reward_expectancy_bt,2022.2.4,Win32,164.7446458,Chrome,1536,864,,,,,1,885,,,,,,,,,,,,,,,,,F,139,circle,1,0,,,,,,,,,,,,,,,,switch,number,numSwt,j,0.3688,Hi,,,,,,2,,,,,,,,low,5,0,5,0,1,,,,,,,,,
295552,2022-12-06_15h10.06.638,vts_reward_expectancy_bt,2022.2.4,Win32,164.7446458,Chrome,1536,864,,,,,1,886,,,,,,,,,,,,,,,,,S,174,triangle,1,0,,,,,,,,,,,,,,,,repeat,number,numRpt,k,0.4563,Lo,,,,,,2,,,,,,,,low,6,0,6,0,1,,,,,,,,,
295552,2022-12-06_15h10.06.638,vts_reward_expectancy_bt,2022.2.4,Win32,164.7446458,Chrome,1536,864,,,,,10,896,,,,,,,,,,,,,,,,,U,132,star,1,0,,,,,,,,,,,,,,,,repeat,number,numRpt,j,0.3637,Hi,,,,,,2,,,,,,,,low,7,0,7,0,1,,,,,,,,,
295552,2022-12-06_15h10.06.638,vts_reward_expectancy_bt,2022.2.4,Win32,164.7446458,Chrome,1536,864,,,,,0,896,,,,,,,,,,,,,,,,,Y,146,star,1,0,,,,,,,,,,,,,,,,repeat,number,numRpt,j,0.4793,Hi,,,,,,2,,,,,,,,low,8,0,8,0,1,,,,,,,,,
295552,2022-12-06_15h10.06.638,vts_reward_expectancy_bt,2022.2.4,Win32,164.7446458,Chrome,1536,864,,,,,10,906,,,,,,,,,,,,,,,,,D,160,circle,1,0,,,,,,,,,,,,,,,,switch,letter,lettSwt,d,0.4377,Hi,,,,,,2,,,,,,,,low,9,0,9,0,1,,,,,,,,,
295552,2022-12-06_15h10.06.638,vts_reward_expectancy_bt,2022.2.4,Win32,164.7446458,Chrome,1536,864,,,,,10,916,,,,,,,,,,,,,,,,,B,125,hexagon,1,0,,,,,,,,,,,,,,,,repeat,letter,lettRpt,d,0.4242,Lo,,,,,,2,,,,,,,,low,10,0,10,0,1,,,,,,,,,
295552,2022-12-06_15h10.06.638,vts_reward_expectancy_bt,2022.2.4,Win32,164.7446458,Chrome,1536,864,,,,,0,916,,,,,,,,,,,,,,,,,W,167,triangle,0,0,,,,,,,,,,,,,,,,repeat,letter,NA,d,0.4316,Lo,,,,,,2,,,,,,,,low,11,0,11,0,1,,,,,,,,,
295552,2022-12-06_15h10.06.638,vts_reward_expectancy_bt,2022.2.4,Win32,164.7446458,Chrome,1536,864,,,,,0,916,,,,,,,,,,,,,,,,,H,181,circle,1,1,,,,,,,,,,,,,,,,repeat,letter,lettRpt,d,0.6091,Hi,,,,,,2,,,,,,,,low,12,0,12,0,1,,,,,,,,,
295552,2022-12-06_15h10.06.638,vts_reward_expectancy_bt,2022.2.4,Win32,164.7446458,Chrome,1536,864,,,,,0,916,,,,,,,,,,,,,,,,,F,139,star,1,0,,,,,,,,,,,,,,,,repeat,letter,lettRpt,d,0.5768,Hi,,,,,,2,,,,,,,,low,13,0,13,0,1,,,,,,,,,
295552,2022-12-06_15h10.06.638,vts_reward_expectancy_bt,2022.2.4,Win32,164.7446458,Chrome,1536,864,,,,,0,916,,,,,,,,,,,,,,,,,S,174,triangle,0,0,,,,,,,,,,,,,,,,repeat,letter,NA,d,0.5192,Hi,,,,,,2,,,,,,,,low,14,0,14,0,1,,,,,,,,,
295552,2022-12-06_15h10.06.638,vts_reward_expectancy_bt,2022.2.4,Win32,164.7446458,Chrome,1536,864,,,,,1,917,,,,,,,,,,,,,,,,,U,132,hexagon,1,1,,,,,,,,,,,,,,,,switch,number,numSwt,j,0.4604,Lo,,,,,,2,,,,,,,,low,15,0,15,0,1,,,,,,,,,
295552,2022-12-06_15h10.06.638,vts_reward_expectancy_bt,2022.2.4,Win32,164.7446458,Chrome,1536,864,,,,,10,927,,,,,,,,,,,,,,,,,D,146,triangle,1,0,,,,,,,,,,,,,,,,repeat,number,numRpt,j,0.558,Lo,,,,,,2,,,,,,,,low,16,0,16,0,1,,,,,,,,,
295552,2022-12-06_15h10.06.638,vts_reward_expectancy_bt,2022.2.4,Win32,164.7446458,Chrome,1536,864,,,,,10,937,,,,,,,,,,,,,,,,,S,132,hexagon,1,0,,,,,,,,,,,,,,,,repeat,number,numRpt,j,0.5275,Lo,,,,,,2,,,,,,,,low,17,0,17,0,1,,,,,,,,,
295552,2022-12-06_15h10.06.638,vts_reward_expectancy_bt,2022.2.4,Win32,164.7446458,Chrome,1536,864,,,,,10,947,,,,,,,,,,,,,,,,,W,160,circle,1,0,,,,,,,,,,,,,,,,repeat,number,numRpt,k,0.322,Hi,,,,,,2,,,,,,,,low,18,0,18,0,1,,,,,,,,,
295552,2022-12-06_15h10.06.638,vts_reward_expectancy_bt,2022.2.4,Win32,164.7446458,Chrome,1536,864,,,,,0,947,,,,,,,,,,,,,,,,,F,181,star,1,0,,,,,,,,,,,,,,,,repeat,number,numRpt,k,0.4728,Hi,,,,,,2,,,,,,,,low,19,0,19,0,1,,,,,,,,,
295552,2022-12-06_15h10.06.638,vts_reward_expectancy_bt,2022.2.4,Win32,164.7446458,Chrome,1536,864,,,,,10,957,,,,,,,,,,,,,,,,,B,167,circle,1,0,,,,,,,,,,,,,,,,switch,letter,lettSwt,d,0.5458,Hi,,,,,,2,,,,,,,,low,20,0,20,0,1,,,,,,,,,
295552,2022-12-06_15h10.06.638,vts_reward_expectancy_bt,2022.2.4,Win32,164.7446458,Chrome,1536,864,,,,,1,958,,,,,,,,,,,,,,,,,U,125,hexagon,1,0,,,,,,,,,,,,,,,,repeat,letter,lettRpt,f,0.4127,Lo,,,,,,2,,,,,,,,low,21,0,21,0,1,,,,,,,,,
295552,2022-12-06_15h10.06.638,vts_reward_expectancy_bt,2022.2.4,Win32,164.7446458,Chrome,1536,864,,,,,0,958,,,,,,,,,,,,,,,,,H,174,triangle,0,0,,,,,,,,,,,,,,,,repeat,letter,NA,f,0.5333,Lo,,,,,,2,,,,,,,,low,22,0,22,0,1,,,,,,,,,
295552,2022-12-06_15h10.06.638,vts_reward_expectancy_bt,2022.2.4,Win32,164.7446458,Chrome,1536,864,,,,,10,968,,,,,,,,,,,,,,,,,Y,139,star,1,1,,,,,,,,,,,,,,,,repeat,letter,lettRpt,f,0.4664,Hi,,,,,,2,,,,,,,,low,23,0,23,0,1,,,,,,,,,
295552,2022-12-06_15h10.06.638,vts_reward_expectancy_bt,2022.2.4,Win32,164.7446458,Chrome,1536,864,,,,,1,969,,,,,,,,,,,,,,,,,B,146,hexagon,1,0,,,,,,,,,,,,,,,,switch,number,numSwt,j,0.5038,Lo,,,,,,2,,,,,,,,low,24,0,24,0,1,,,,,,,,,
295552,2022-12-06_15h10.06.638,vts_reward_expectancy_bt,2022.2.4,Win32,164.7446458,Chrome,1536,864,,,,,10,979,,,,,,,,,,,,,,,,,D,160,triangle,1,0,,,,,,,,,,,,,,,,repeat,number,numRpt,k,0.5998,Lo,,,,,,2,,,,,,,,low,25,0,25,0,1,,,,,,,,,
295552,2022-12-06_15h10.06.638,vts_reward_expectancy_bt,2022.2.4,Win32,164.7446458,Chrome,1536,864,,,,,0,979,,,,,,,,,,,,,,,,,F,181,star,1,0,,,,,,,,,,,,,,,,repeat,number,numRpt,k,0.5603,Hi,,,,,,2,,,,,,,,low,26,0,26,0,1,,,,,,,,,
295552,2022-12-06_15h10.06.638,vts_reward_expectancy_bt,2022.2.4,Win32,164.7446458,Chrome,1536,864,,,,,0,979,,,,,,,,,,,,,,,,,H,125,circle,0,0,,,,,,,,,,,,,,,,switch,letter,NA,f,0.5401,Hi,,,,,,2,,,,,,,,low,27,0,27,0,1,,,,,,,,,
295552,2022-12-06_15h10.06.638,vts_reward_expectancy_bt,2022.2.4,Win32,164.7446458,Chrome,1536,864,,,,,0,979,,,,,,,,,,,,,,,,,S,139,star,1,1,,,,,,,,,,,,,,,,repeat,letter,lettRpt,f,0.6977,Hi,,,,,,2,,,,,,,,low,28,0,28,0,1,,,,,,,,,
295552,2022-12-06_15h10.06.638,vts_reward_expectancy_bt,2022.2.4,Win32,164.7446458,Chrome,1536,864,,,,,10,989,,,,,,,,,,,,,,,,,W,174,hexagon,1,0,,,,,,,,,,,,,,,,switch,number,numSwt,k,0.5161,Lo,,,,,,2,,,,,,,,low,29,0,29,0,1,,,,,,,,,
295552,2022-12-06_15h10.06.638,vts_reward_expectancy_bt,2022.2.4,Win32,164.7446458,Chrome,1536,864,,,,,0,989,,,,,,,,,,,,,,,,,Y,167,circle,1,0,,,,,,,,,,,,,,,,repeat,number,numRpt,k,0.6751,Hi,,,,,,2,,,,,,,,low,30,0,30,0,1,,,,,,,,,
295552,2022-12-06_15h10.06.638,vts_reward_expectancy_bt,2022.2.4,Win32,164.7446458,Chrome,1536,864,,,,,1,990,,,,,,,,,,,,,,,,,U,132,triangle,1,0,,,,,,,,,,,,,,,,repeat,number,numRpt,j,0.5097,Lo,,,,,,2,,,,,,,,low,31,0,31,0,1,,,,,,,,,
295552,2022-12-06_15h10.06.638,vts_reward_expectancy_bt,2022.2.4,Win32,164.7446458,Chrome,1536,864,,,,,0,990,,,,,,,,,,,,,,,,,D,167,circle,0,0,,,,,,,,,,,,,,,,switch,letter,NA,f,0.5555,Lo,,,,,,3,,,,,,space,36.9206,low,0,0,0,0,1,,,,,,,,,
295552,2022-12-06_15h10.06.638,vts_reward_expectancy_bt,2022.2.4,Win32,164.7446458,Chrome,1536,864,,,,,0,990,,,,,,,,,,,,,,,,,S,174,hexagon,0,1,,,,,,,,,,,,,,,,repeat,letter,NA,d,0.4427,Lo,,,,,,3,,,,,,,,low,1,0,1,0,1,,,,,,,,,
295552,2022-12-06_15h10.06.638,vts_reward_expectancy_bt,2022.2.4,Win32,164.7446458,Chrome,1536,864,,,,,0,990,,,,,,,,,,,,,,,,,Y,139,star,1,1,,,,,,,,,,,,,,,,repeat,letter,lettRpt,f,0.485,Hi,,,,,,3,,,,,,,,low,2,0,2,0,1,,,,,,,,,
295552,2022-12-06_15h10.06.638,vts_reward_expectancy_bt,2022.2.4,Win32,164.7446458,Chrome,1536,864,,,,,1,991,,,,,,,,,,,,,,,,,B,125,triangle,1,0,,,,,,,,,,,,,,,,repeat,letter,lettRpt,d,0.3884,Lo,,,,,,3,,,,,,,,low,3,0,3,0,1,,,,,,,,,
295552,2022-12-06_15h10.06.638,vts_reward_expectancy_bt,2022.2.4,Win32,164.7446458,Chrome,1536,864,,,,,1,992,,,,,,,,,,,,,,,,,W,181,circle,1,0,,,,,,,,,,,,,,,,repeat,letter,lettRpt,f,0.3656,Hi,,,,,,3,,,,,,,,low,4,0,4,0,1,,,,,,,,,
295552,2022-12-06_15h10.06.638,vts_reward_expectancy_bt,2022.2.4,Win32,164.7446458,Chrome,1536,864,,,,,10,1002,,,,,,,,,,,,,,,,,F,146,hexagon,1,0,,,,,,,,,,,,,,,,switch,number,numSwt,j,0.6847,Lo,,,,,,3,,,,,,,,low,5,0,5,0,1,,,,,,,,,
295552,2022-12-06_15h10.06.638,vts_reward_expectancy_bt,2022.2.4,Win32,164.7446458,Chrome,1536,864,,,,,0,1002,,,,,,,,,,,,,,,,,H,160,star,1,0,,,,,,,,,,,,,,,,repeat,number,numRpt,k,0.5033,Hi,,,,,,3,,,,,,,,low,6,0,6,0,1,,,,,,,,,
295552,2022-12-06_15h10.06.638,vts_reward_expectancy_bt,2022.2.4,Win32,164.7446458,Chrome,1536,864,,,,,1,1003,,,,,,,,,,,,,,,,,U,132,triangle,1,0,,,,,,,,,,,,,,,,repeat,number,numRpt,j,0.4645,Lo,,,,,,3,,,,,,,,low,7,0,7,0,1,,,,,,,,,
295552,2022-12-06_15h10.06.638,vts_reward_expectancy_bt,2022.2.4,Win32,164.7446458,Chrome,1536,864,,,,,1,1004,,,,,,,,,,,,,,,,,D,167,triangle,1,0,,,,,,,,,,,,,,,,repeat,number,numRpt,k,0.5625,Lo,,,,,,3,,,,,,,,low,8,0,8,0,1,,,,,,,,,
295552,2022-12-06_15h10.06.638,vts_reward_expectancy_bt,2022.2.4,Win32,164.7446458,Chrome,1536,864,,,,,1,1005,,,,,,,,,,,,,,,,,S,174,hexagon,1,0,,,,,,,,,,,,,,,,repeat,number,numRpt,k,0.5458,Lo,,,,,,3,,,,,,,,low,9,0,9,0,1,,,,,,,,,
295552,2022-12-06_15h10.06.638,vts_reward_expectancy_bt,2022.2.4,Win32,164.7446458,Chrome,1536,864,,,,,0,1005,,,,,,,,,,,,,,,,,Y,139,circle,1,0,,,,,,,,,,,,,,,,repeat,number,numRpt,j,0.588,Hi,,,,,,3,,,,,,,,low,10,0,10,0,1,,,,,,,,,
295552,2022-12-06_15h10.06.638,vts_reward_expectancy_bt,2022.2.4,Win32,164.7446458,Chrome,1536,864,,,,,0,1005,,,,,,,,,,,,,,,,,B,125,star,1,0,,,,,,,,,,,,,,,,repeat,number,numRpt,j,0.5218,Hi,,,,,,3,,,,,,,,low,11,0,11,0,1,,,,,,,,,
295552,2022-12-06_15h10.06.638,vts_reward_expectancy_bt,2022.2.4,Win32,164.7446458,Chrome,1536,864,,,,,0,1005,,,,,,,,,,,,,,,,,W,181,star,1,0,,,,,,,,,,,,,,,,switch,letter,lettSwt,f,0.5393,Hi,,,,,,3,,,,,,,,low,12,0,12,0,1,,,,,,,,,
295552,2022-12-06_15h10.06.638,vts_reward_expectancy_bt,2022.2.4,Win32,164.7446458,Chrome,1536,864,,,,,1,1006,,,,,,,,,,,,,,,,,F,146,triangle,1,0,,,,,,,,,,,,,,,,repeat,letter,lettRpt,d,0.5649,Lo,,,,,,3,,,,,,,,low,13,0,13,0,1,,,,,,,,,
295552,2022-12-06_15h10.06.638,vts_reward_expectancy_bt,2022.2.4,Win32,164.7446458,Chrome,1536,864,,,,,0,1006,,,,,,,,,,,,,,,,,H,160,circle,1,0,,,,,,,,,,,,,,,,repeat,letter,lettRpt,d,0.5198,Hi,,,,,,3,,,,,,,,low,14,0,14,0,1,,,,,,,,,
295552,2022-12-06_15h10.06.638,vts_reward_expectancy_bt,2022.2.4,Win32,164.7446458,Chrome,1536,864,,,,,10,1016,,,,,,,,,,,,,,,,,U,132,hexagon,1,0,,,,,,,,,,,,,,,,repeat,letter,lettRpt,f,0.4551,Lo,,,,,,3,,,,,,,,low,15,0,15,0,1,,,,,,,,,
295552,2022-12-06_15h10.06.638,vts_reward_expectancy_bt,2022.2.4,Win32,164.7446458,Chrome,1536,864,,,,,0,1016,,,,,,,,,,,,,,,,,D,125,star,1,0,,,,,,,,,,,,,,,,repeat,letter,lettRpt,d,0.623,Hi,,,,,,3,,,,,,,,low,16,0,16,0,1,,,,,,,,,
295552,2022-12-06_15h10.06.638,vts_reward_expectancy_bt,2022.2.4,Win32,164.7446458,Chrome,1536,864,,,,,0,1016,,,,,,,,,,,,,,,,,H,167,triangle,0,0,,,,,,,,,,,,,,,,switch,number,NA,j,0.463,Hi,,,,,,3,,,,,,,,low,17,0,17,0,1,,,,,,,,,
295552,2022-12-06_15h10.06.638,vts_reward_expectancy_bt,2022.2.4,Win32,164.7446458,Chrome,1536,864,,,,,1,1017,,,,,,,,,,,,,,,,,S,181,hexagon,1,1,,,,,,,,,,,,,,,,repeat,number,numRpt,k,0.6201,Lo,,,,,,3,,,,,,,,low,18,0,18,0,1,,,,,,,,,
295552,2022-12-06_15h10.06.638,vts_reward_expectancy_bt,2022.2.4,Win32,164.7446458,Chrome,1536,864,,,,,0,1017,,,,,,,,,,,,,,,,,B,160,circle,0,0,,,,,,,,,,,,,,,,repeat,number,NA,j,0.6903,Lo,,,,,,3,,,,,,,,low,19,0,19,0,1,,,,,,,,,
295552,2022-12-06_15h10.06.638,vts_reward_expectancy_bt,2022.2.4,Win32,164.7446458,Chrome,1536,864,,,,,1,1018,,,,,,,,,,,,,,,,,W,139,hexagon,1,1,,,,,,,,,,,,,,,,repeat,number,numRpt,j,0.5885,Lo,,,,,,3,,,,,,,,low,20,0,20,0,1,,,,,,,,,
295552,2022-12-06_15h10.06.638,vts_reward_expectancy_bt,2022.2.4,Win32,164.7446458,Chrome,1536,864,,,,,10,1028,,,,,,,,,,,,,,,,,U,174,triangle,1,0,,,,,,,,,,,,,,,,switch,letter,lettSwt,f,0.5593,Lo,,,,,,3,,,,,,,,low,21,0,21,0,1,,,,,,,,,
295552,2022-12-06_15h10.06.638,vts_reward_expectancy_bt,2022.2.4,Win32,164.7446458,Chrome,1536,864,,,,,0,1028,,,,,,,,,,,,,,,,,Y,146,circle,1,0,,,,,,,,,,,,,,,,repeat,letter,lettRpt,f,0.8359,Hi,,,,,,3,,,,,,,,low,22,0,22,0,1,,,,,,,,,
