participant,date,expName,psychopyVersion,OS,frameRate,browser,xResolution,yResolution,key_resp.keys,key_resp.rt,training_resp.keys,training_resp.rt,points_trial,points_cumul,trainBlock,training.thisRepN,training.thisTrialN,training.thisN,training.thisIndex,training.ran,LTriangleOpac,LCircleOpac,LHexagonOpac,LStarOpac,RTriangleOpac,RCircleOpac,RHexagonOpac,RStarOpac,LShape_ID,RShape_ID,curr_topStim,curr_bottStim,curr_shape,acc,E1,target_resp_prac1.keys,pracBlock,task1_prac_trials.thisRepN,task1_prac_trials.thisTrialN,task1_prac_trials.thisN,task1_prac_trials.thisIndex,task1_prac_trials.ran,target_resp_prac1.rt,target_resp_prac2.keys,target_resp_prac2.rt,task2_praac_trials.thisRepN,task2_praac_trials.thisTrialN,task2_praac_trials.thisN,task2_praac_trials.thisIndex,task2_praac_trials.ran,alt,task,condition,target_resp.keys,target_resp.rt,rewCond,vts_practice_trials.thisRepN,vts_practice_trials.thisTrialN,vts_practice_trials.thisN,vts_practice_trials.thisIndex,vts_practice_trials.ran,blockNum,trials_norew.thisRepN,trials_norew.thisTrialN,trials_norew.thisN,trials_norew.thisIndex,trials_norew.ran,key_resp_2.keys,key_resp_2.rt,rewExpectancy,trials_rew.thisRepN,trials_rew.thisTrialN,trials_rew.thisN,trials_rew.thisIndex,trials_rew.ran,Q1,Q2_text,Q5_text,xRes,yRes
295570,2022-12-03_00h22.44.931,vts_reward_expectancy_bt,2022.2.4,MacIntel,66.66666667,Safari,820,1180,,,,,,,,,,,,,,,,,,,,,,,,,,,,,,,,,,,,,,,,,,,,,,,,,,,,,,,,,,,,,,,,,,,,,,,,
295570,2022-12-03_00h22.44.931,vts_reward_expectancy_bt,2022.2.4,MacIntel,66.66666667,Safari,820,1180,space,10.623,,,,,,,,,,,,,,,,,,,,,,,,,,,,,,,,,,,,,,,,,,,,,,,,,,,,,,,,,,,,,,,,,,,,,,
295570,2022-12-03_00h22.44.931,vts_reward_expectancy_bt,2022.2.4,MacIntel,66.66666667,Safari,820,1180,,,,,,,,,,,,,,,,,,,,,,,,,,,,,,,,,,,,,,,,,,,,,,,,,,,,,,,,,,,,,,,,,,,,,,,,
295570,2022-12-03_00h22.44.931,vts_reward_expectancy_bt,2022.2.4,MacIntel,66.66666667,Safari,820,1180,,,l,25.393,10,10,0,0,0,0,6,1,0,0,1,0,1,0,0,0,hexagon,triangle,,,,,,,,,,,,,,,,,,,,,,,,,,,,,,,,,,,,,,,,,,,,,,,,,,
295570,2022-12-03_00h22.44.931,vts_reward_expectancy_bt,2022.2.4,MacIntel,66.66666667,Safari,820,1180,,,a,1.375,1,11,0,0,1,1,5,1,0,1,0,0,0,0,0,1,circle,star,,,,,,,,,,,,,,,,,,,,,,,,,,,,,,,,,,,,,,,,,,,,,,,,,,
295570,2022-12-03_00h22.44.931,vts_reward_expectancy_bt,2022.2.4,MacIntel,66.66666667,Safari,820,1180,,,l,0.99,10,21,0,0,2,2,9,1,0,0,0,1,1,0,0,0,star,triangle,,,,,,,,,,,,,,,,,,,,,,,,,,,,,,,,,,,,,,,,,,,,,,,,,,
295570,2022-12-03_00h22.44.931,vts_reward_expectancy_bt,2022.2.4,MacIntel,66.66666667,Safari,820,1180,,,a,1.679,10,31,0,0,3,3,2,1,1,0,0,0,0,0,0,1,triangle,star,,,,,,,,,,,,,,,,,,,,,,,,,,,,,,,,,,,,,,,,,,,,,,,,,,
295570,2022-12-03_00h22.44.931,vts_reward_expectancy_bt,2022.2.4,MacIntel,66.66666667,Safari,820,1180,,,l,0.73,10,41,0,0,4,4,10,1,0,0,0,1,0,1,0,0,star ,circle,,,,,,,,,,,,,,,,,,,,,,,,,,,,,,,,,,,,,,,,,,,,,,,,,,
295570,2022-12-03_00h22.44.931,vts_reward_expectancy_bt,2022.2.4,MacIntel,66.66666667,Safari,820,1180,,,a,0.806,10,51,0,0,5,5,11,1,0,0,0,1,0,0,1,0,star,hexagon,,,,,,,,,,,,,,,,,,,,,,,,,,,,,,,,,,,,,,,,,,,,,,,,,,
295570,2022-12-03_00h22.44.931,vts_reward_expectancy_bt,2022.2.4,MacIntel,66.66666667,Safari,820,1180,,,a,0.725,10,61,0,0,6,6,4,1,0,1,0,0,0,0,1,0,circle,hexagon,,,,,,,,,,,,,,,,,,,,,,,,,,,,,,,,,,,,,,,,,,,,,,,,,,
295570,2022-12-03_00h22.44.931,vts_reward_expectancy_bt,2022.2.4,MacIntel,66.66666667,Safari,820,1180,,,l,0.632,10,71,0,0,7,7,3,1,0,1,0,0,1,0,0,0,circle,triangle,,,,,,,,,,,,,,,,,,,,,,,,,,,,,,,,,,,,,,,,,,,,,,,,,,
295570,2022-12-03_00h22.44.931,vts_reward_expectancy_bt,2022.2.4,MacIntel,66.66666667,Safari,820,1180,,,a,0.531,10,81,0,0,8,8,0,1,1,0,0,0,0,1,0,0,triangle,circle,,,,,,,,,,,,,,,,,,,,,,,,,,,,,,,,,,,,,,,,,,,,,,,,,,
295570,2022-12-03_00h22.44.931,vts_reward_expectancy_bt,2022.2.4,MacIntel,66.66666667,Safari,820,1180,,,l,1.007,10,91,0,0,9,9,8,1,0,0,1,0,0,0,0,1,hexagon,star,,,,,,,,,,,,,,,,,,,,,,,,,,,,,,,,,,,,,,,,,,,,,,,,,,
295570,2022-12-03_00h22.44.931,vts_reward_expectancy_bt,2022.2.4,MacIntel,66.66666667,Safari,820,1180,,,a,0.59,10,101,0,0,10,10,1,1,1,0,0,0,0,0,1,0,triangle,hexagon,,,,,,,,,,,,,,,,,,,,,,,,,,,,,,,,,,,,,,,,,,,,,,,,,,
295570,2022-12-03_00h22.44.931,vts_reward_expectancy_bt,2022.2.4,MacIntel,66.66666667,Safari,820,1180,,,l,0.899,10,111,0,0,11,11,7,1,0,0,1,0,0,1,0,0,hexagon,circle,,,,,,,,,,,,,,,,,,,,,,,,,,,,,,,,,,,,,,,,,,,,,,,,,,
295570,2022-12-03_00h22.44.931,vts_reward_expectancy_bt,2022.2.4,MacIntel,66.66666667,Safari,820,1180,,,l,1.501,10,121,0,1,0,12,6,1,0,0,1,0,1,0,0,0,hexagon,triangle,,,,,,,,,,,,,,,,,,,,,,,,,,,,,,,,,,,,,,,,,,,,,,,,,,
295570,2022-12-03_00h22.44.931,vts_reward_expectancy_bt,2022.2.4,MacIntel,66.66666667,Safari,820,1180,,,l,1.438,10,131,0,1,1,13,2,1,1,0,0,0,0,0,0,1,triangle,star,,,,,,,,,,,,,,,,,,,,,,,,,,,,,,,,,,,,,,,,,,,,,,,,,,
295570,2022-12-03_00h22.44.931,vts_reward_expectancy_bt,2022.2.4,MacIntel,66.66666667,Safari,820,1180,,,l,1.015,1,132,0,1,2,14,0,1,1,0,0,0,0,1,0,0,triangle,circle,,,,,,,,,,,,,,,,,,,,,,,,,,,,,,,,,,,,,,,,,,,,,,,,,,
295570,2022-12-03_00h22.44.931,vts_reward_expectancy_bt,2022.2.4,MacIntel,66.66666667,Safari,820,1180,,,a,1.024,10,142,0,1,3,15,11,1,0,0,0,1,0,0,1,0,star,hexagon,,,,,,,,,,,,,,,,,,,,,,,,,,,,,,,,,,,,,,,,,,,,,,,,,,
295570,2022-12-03_00h22.44.931,vts_reward_expectancy_bt,2022.2.4,MacIntel,66.66666667,Safari,820,1180,,,a,1.188,10,152,0,1,4,16,10,1,0,0,0,1,0,1,0,0,star ,circle,,,,,,,,,,,,,,,,,,,,,,,,,,,,,,,,,,,,,,,,,,,,,,,,,,
295570,2022-12-03_00h22.44.931,vts_reward_expectancy_bt,2022.2.4,MacIntel,66.66666667,Safari,820,1180,,,l,0.981,10,162,0,1,5,17,5,1,0,1,0,0,0,0,0,1,circle,star,,,,,,,,,,,,,,,,,,,,,,,,,,,,,,,,,,,,,,,,,,,,,,,,,,
295570,2022-12-03_00h22.44.931,vts_reward_expectancy_bt,2022.2.4,MacIntel,66.66666667,Safari,820,1180,,,l,0.768,1,163,0,1,6,18,8,1,0,0,1,0,0,0,0,1,hexagon,star,,,,,,,,,,,,,,,,,,,,,,,,,,,,,,,,,,,,,,,,,,,,,,,,,,
295570,2022-12-03_00h22.44.931,vts_reward_expectancy_bt,2022.2.4,MacIntel,66.66666667,Safari,820,1180,,,a,0.553,1,164,0,1,7,19,7,1,0,0,1,0,0,1,0,0,hexagon,circle,,,,,,,,,,,,,,,,,,,,,,,,,,,,,,,,,,,,,,,,,,,,,,,,,,
295570,2022-12-03_00h22.44.931,vts_reward_expectancy_bt,2022.2.4,MacIntel,66.66666667,Safari,820,1180,,,a,0.656,10,174,0,1,8,20,9,1,0,0,0,1,1,0,0,0,star,triangle,,,,,,,,,,,,,,,,,,,,,,,,,,,,,,,,,,,,,,,,,,,,,,,,,,
295570,2022-12-03_00h22.44.931,vts_reward_expectancy_bt,2022.2.4,MacIntel,66.66666667,Safari,820,1180,,,a,0.864,10,184,0,1,9,21,1,1,1,0,0,0,0,0,1,0,triangle,hexagon,,,,,,,,,,,,,,,,,,,,,,,,,,,,,,,,,,,,,,,,,,,,,,,,,,
295570,2022-12-03_00h22.44.931,vts_reward_expectancy_bt,2022.2.4,MacIntel,66.66666667,Safari,820,1180,,,l,0.938,1,185,0,1,10,22,4,1,0,1,0,0,0,0,1,0,circle,hexagon,,,,,,,,,,,,,,,,,,,,,,,,,,,,,,,,,,,,,,,,,,,,,,,,,,
295570,2022-12-03_00h22.44.931,vts_reward_expectancy_bt,2022.2.4,MacIntel,66.66666667,Safari,820,1180,,,l,0.589,1,186,0,1,11,23,3,1,0,1,0,0,1,0,0,0,circle,triangle,,,,,,,,,,,,,,,,,,,,,,,,,,,,,,,,,,,,,,,,,,,,,,,,,,
295570,2022-12-03_00h22.44.931,vts_reward_expectancy_bt,2022.2.4,MacIntel,66.66666667,Safari,820,1180,,,l,0.814,10,196,0,2,0,24,10,1,0,0,0,1,0,1,0,0,star ,circle,,,,,,,,,,,,,,,,,,,,,,,,,,,,,,,,,,,,,,,,,,,,,,,,,,
295570,2022-12-03_00h22.44.931,vts_reward_expectancy_bt,2022.2.4,MacIntel,66.66666667,Safari,820,1180,,,l,1.121,10,206,0,2,1,25,5,1,0,1,0,0,0,0,0,1,circle,star,,,,,,,,,,,,,,,,,,,,,,,,,,,,,,,,,,,,,,,,,,,,,,,,,,
295570,2022-12-03_00h22.44.931,vts_reward_expectancy_bt,2022.2.4,MacIntel,66.66666667,Safari,820,1180,,,a,0.66,10,216,0,2,2,26,3,1,0,1,0,0,1,0,0,0,circle,triangle,,,,,,,,,,,,,,,,,,,,,,,,,,,,,,,,,,,,,,,,,,,,,,,,,,
295570,2022-12-03_00h22.44.931,vts_reward_expectancy_bt,2022.2.4,MacIntel,66.66666667,Safari,820,1180,,,a,1.375,10,226,0,2,3,27,1,1,1,0,0,0,0,0,1,0,triangle,hexagon,,,,,,,,,,,,,,,,,,,,,,,,,,,,,,,,,,,,,,,,,,,,,,,,,,
295570,2022-12-03_00h22.44.931,vts_reward_expectancy_bt,2022.2.4,MacIntel,66.66666667,Safari,820,1180,,,l,1.137,10,236,0,2,4,28,6,1,0,0,1,0,1,0,0,0,hexagon,triangle,,,,,,,,,,,,,,,,,,,,,,,,,,,,,,,,,,,,,,,,,,,,,,,,,,
295570,2022-12-03_00h22.44.931,vts_reward_expectancy_bt,2022.2.4,MacIntel,66.66666667,Safari,820,1180,,,l,0.81,10,246,0,2,5,29,2,1,1,0,0,0,0,0,0,1,triangle,star,,,,,,,,,,,,,,,,,,,,,,,,,,,,,,,,,,,,,,,,,,,,,,,,,,
295570,2022-12-03_00h22.44.931,vts_reward_expectancy_bt,2022.2.4,MacIntel,66.66666667,Safari,820,1180,,,l,0.916,1,247,0,2,6,30,8,1,0,0,1,0,0,0,0,1,hexagon,star,,,,,,,,,,,,,,,,,,,,,,,,,,,,,,,,,,,,,,,,,,,,,,,,,,
295570,2022-12-03_00h22.44.931,vts_reward_expectancy_bt,2022.2.4,MacIntel,66.66666667,Safari,820,1180,,,l,2.318,1,248,0,2,7,31,4,1,0,1,0,0,0,0,1,0,circle,hexagon,,,,,,,,,,,,,,,,,,,,,,,,,,,,,,,,,,,,,,,,,,,,,,,,,,
295570,2022-12-03_00h22.44.931,vts_reward_expectancy_bt,2022.2.4,MacIntel,66.66666667,Safari,820,1180,,,a,0.739,1,249,0,2,8,32,7,1,0,0,1,0,0,1,0,0,hexagon,circle,,,,,,,,,,,,,,,,,,,,,,,,,,,,,,,,,,,,,,,,,,,,,,,,,,
295570,2022-12-03_00h22.44.931,vts_reward_expectancy_bt,2022.2.4,MacIntel,66.66666667,Safari,820,1180,,,a,1.048,10,259,0,2,9,33,9,1,0,0,0,1,1,0,0,0,star,triangle,,,,,,,,,,,,,,,,,,,,,,,,,,,,,,,,,,,,,,,,,,,,,,,,,,
295570,2022-12-03_00h22.44.931,vts_reward_expectancy_bt,2022.2.4,MacIntel,66.66666667,Safari,820,1180,,,a,1.125,1,260,0,2,10,34,11,1,0,0,0,1,0,0,1,0,star,hexagon,,,,,,,,,,,,,,,,,,,,,,,,,,,,,,,,,,,,,,,,,,,,,,,,,,
295570,2022-12-03_00h22.44.931,vts_reward_expectancy_bt,2022.2.4,MacIntel,66.66666667,Safari,820,1180,,,a,2.832,10,270,0,2,11,35,0,1,1,0,0,0,0,1,0,0,triangle,circle,,,,,,,,,,,,,,,,,,,,,,,,,,,,,,,,,,,,,,,,,,,,,,,,,,
295570,2022-12-03_00h22.44.931,vts_reward_expectancy_bt,2022.2.4,MacIntel,66.66666667,Safari,820,1180,,,a,1.31,1,271,1,0,0,0,1,1,1,0,0,0,0,0,1,0,triangle,hexagon,,,,,,,,,,,,,,,,,,,,,,,,,,,,,,,,,,,,,,,,,,,,,,,,,,
295570,2022-12-03_00h22.44.931,vts_reward_expectancy_bt,2022.2.4,MacIntel,66.66666667,Safari,820,1180,,,l,0.752,1,272,1,0,1,1,4,1,0,1,0,0,0,0,1,0,circle,hexagon,,,,,,,,,,,,,,,,,,,,,,,,,,,,,,,,,,,,,,,,,,,,,,,,,,
295570,2022-12-03_00h22.44.931,vts_reward_expectancy_bt,2022.2.4,MacIntel,66.66666667,Safari,820,1180,,,l,0.891,10,282,1,0,2,2,0,1,1,0,0,0,0,1,0,0,triangle,circle,,,,,,,,,,,,,,,,,,,,,,,,,,,,,,,,,,,,,,,,,,,,,,,,,,
295570,2022-12-03_00h22.44.931,vts_reward_expectancy_bt,2022.2.4,MacIntel,66.66666667,Safari,820,1180,,,a,1.103,10,292,1,0,3,3,7,1,0,0,1,0,0,1,0,0,hexagon,circle,,,,,,,,,,,,,,,,,,,,,,,,,,,,,,,,,,,,,,,,,,,,,,,,,,
295570,2022-12-03_00h22.44.931,vts_reward_expectancy_bt,2022.2.4,MacIntel,66.66666667,Safari,820,1180,,,a,0.638,1,293,1,0,4,4,6,1,0,0,1,0,1,0,0,0,hexagon,triangle,,,,,,,,,,,,,,,,,,,,,,,,,,,,,,,,,,,,,,,,,,,,,,,,,,
295570,2022-12-03_00h22.44.931,vts_reward_expectancy_bt,2022.2.4,MacIntel,66.66666667,Safari,820,1180,,,a,1.473,1,294,1,0,5,5,9,1,0,0,0,1,1,0,0,0,star,triangle,,,,,,,,,,,,,,,,,,,,,,,,,,,,,,,,,,,,,,,,,,,,,,,,,,
295570,2022-12-03_00h22.44.931,vts_reward_expectancy_bt,2022.2.4,MacIntel,66.66666667,Safari,820,1180,,,a,0.726,10,304,1,0,6,6,8,1,0,0,1,0,0,0,0,1,hexagon,star,,,,,,,,,,,,,,,,,,,,,,,,,,,,,,,,,,,,,,,,,,,,,,,,,,
295570,2022-12-03_00h22.44.931,vts_reward_expectancy_bt,2022.2.4,MacIntel,66.66666667,Safari,820,1180,,,l,1.089,10,314,1,0,7,7,2,1,1,0,0,0,0,0,0,1,triangle,star,,,,,,,,,,,,,,,,,,,,,,,,,,,,,,,,,,,,,,,,,,,,,,,,,,
295570,2022-12-03_00h22.44.931,vts_reward_expectancy_bt,2022.2.4,MacIntel,66.66666667,Safari,820,1180,,,a,0.997,10,324,1,0,8,8,11,1,0,0,0,1,0,0,1,0,star,hexagon,,,,,,,,,,,,,,,,,,,,,,,,,,,,,,,,,,,,,,,,,,,,,,,,,,
295570,2022-12-03_00h22.44.931,vts_reward_expectancy_bt,2022.2.4,MacIntel,66.66666667,Safari,820,1180,,,a,0.82,10,334,1,0,9,9,10,1,0,0,0,1,0,1,0,0,star ,circle,,,,,,,,,,,,,,,,,,,,,,,,,,,,,,,,,,,,,,,,,,,,,,,,,,
295570,2022-12-03_00h22.44.931,vts_reward_expectancy_bt,2022.2.4,MacIntel,66.66666667,Safari,820,1180,,,l,0.605,10,344,1,0,10,10,5,1,0,1,0,0,0,0,0,1,circle,star,,,,,,,,,,,,,,,,,,,,,,,,,,,,,,,,,,,,,,,,,,,,,,,,,,
295570,2022-12-03_00h22.44.931,vts_reward_expectancy_bt,2022.2.4,MacIntel,66.66666667,Safari,820,1180,,,a,1.39,10,354,1,0,11,11,3,1,0,1,0,0,1,0,0,0,circle,triangle,,,,,,,,,,,,,,,,,,,,,,,,,,,,,,,,,,,,,,,,,,,,,,,,,,
295570,2022-12-03_00h22.44.931,vts_reward_expectancy_bt,2022.2.4,MacIntel,66.66666667,Safari,820,1180,,,l,1.474,10,364,1,1,0,12,4,1,0,1,0,0,0,0,1,0,circle,hexagon,,,,,,,,,,,,,,,,,,,,,,,,,,,,,,,,,,,,,,,,,,,,,,,,,,
295570,2022-12-03_00h22.44.931,vts_reward_expectancy_bt,2022.2.4,MacIntel,66.66666667,Safari,820,1180,,,a,0.865,10,374,1,1,1,13,10,1,0,0,0,1,0,1,0,0,star ,circle,,,,,,,,,,,,,,,,,,,,,,,,,,,,,,,,,,,,,,,,,,,,,,,,,,
295570,2022-12-03_00h22.44.931,vts_reward_expectancy_bt,2022.2.4,MacIntel,66.66666667,Safari,820,1180,,,l,0.768,1,375,1,1,2,14,2,1,1,0,0,0,0,0,0,1,triangle,star,,,,,,,,,,,,,,,,,,,,,,,,,,,,,,,,,,,,,,,,,,,,,,,,,,
295570,2022-12-03_00h22.44.931,vts_reward_expectancy_bt,2022.2.4,MacIntel,66.66666667,Safari,820,1180,,,l,0.756,1,376,1,1,3,15,8,1,0,0,1,0,0,0,0,1,hexagon,star,,,,,,,,,,,,,,,,,,,,,,,,,,,,,,,,,,,,,,,,,,,,,,,,,,
295570,2022-12-03_00h22.44.931,vts_reward_expectancy_bt,2022.2.4,MacIntel,66.66666667,Safari,820,1180,,,l,0.709,1,377,1,1,4,16,11,1,0,0,0,1,0,0,1,0,star,hexagon,,,,,,,,,,,,,,,,,,,,,,,,,,,,,,,,,,,,,,,,,,,,,,,,,,
295570,2022-12-03_00h22.44.931,vts_reward_expectancy_bt,2022.2.4,MacIntel,66.66666667,Safari,820,1180,,,a,0.559,1,378,1,1,5,17,7,1,0,0,1,0,0,1,0,0,hexagon,circle,,,,,,,,,,,,,,,,,,,,,,,,,,,,,,,,,,,,,,,,,,,,,,,,,,
295570,2022-12-03_00h22.44.931,vts_reward_expectancy_bt,2022.2.4,MacIntel,66.66666667,Safari,820,1180,,,a,1.086,10,388,1,1,6,18,1,1,1,0,0,0,0,0,1,0,triangle,hexagon,,,,,,,,,,,,,,,,,,,,,,,,,,,,,,,,,,,,,,,,,,,,,,,,,,
295570,2022-12-03_00h22.44.931,vts_reward_expectancy_bt,2022.2.4,MacIntel,66.66666667,Safari,820,1180,,,l,0.706,10,398,1,1,7,19,3,1,0,1,0,0,1,0,0,0,circle,triangle,,,,,,,,,,,,,,,,,,,,,,,,,,,,,,,,,,,,,,,,,,,,,,,,,,
295570,2022-12-03_00h22.44.931,vts_reward_expectancy_bt,2022.2.4,MacIntel,66.66666667,Safari,820,1180,,,l,0.812,10,408,1,1,8,20,9,1,0,0,0,1,1,0,0,0,star,triangle,,,,,,,,,,,,,,,,,,,,,,,,,,,,,,,,,,,,,,,,,,,,,,,,,,
295570,2022-12-03_00h22.44.931,vts_reward_expectancy_bt,2022.2.4,MacIntel,66.66666667,Safari,820,1180,,,a,0.731,1,409,1,1,9,21,0,1,1,0,0,0,0,1,0,0,triangle,circle,,,,,,,,,,,,,,,,,,,,,,,,,,,,,,,,,,,,,,,,,,,,,,,,,,
295570,2022-12-03_00h22.44.931,vts_reward_expectancy_bt,2022.2.4,MacIntel,66.66666667,Safari,820,1180,,,a,0.413,1,410,1,1,10,22,5,1,0,1,0,0,0,0,0,1,circle,star,,,,,,,,,,,,,,,,,,,,,,,,,,,,,,,,,,,,,,,,,,,,,,,,,,
295570,2022-12-03_00h22.44.931,vts_reward_expectancy_bt,2022.2.4,MacIntel,66.66666667,Safari,820,1180,,,a,1.021,10,420,1,1,11,23,6,1,0,0,1,0,1,0,0,0,hexagon,triangle,,,,,,,,,,,,,,,,,,,,,,,,,,,,,,,,,,,,,,,,,,,,,,,,,,
295570,2022-12-03_00h22.44.931,vts_reward_expectancy_bt,2022.2.4,MacIntel,66.66666667,Safari,820,1180,,,l,0.553,10,430,1,2,0,24,4,1,0,1,0,0,0,0,1,0,circle,hexagon,,,,,,,,,,,,,,,,,,,,,,,,,,,,,,,,,,,,,,,,,,,,,,,,,,
295570,2022-12-03_00h22.44.931,vts_reward_expectancy_bt,2022.2.4,MacIntel,66.66666667,Safari,820,1180,,,a,0.589,1,431,1,2,1,25,6,1,0,0,1,0,1,0,0,0,hexagon,triangle,,,,,,,,,,,,,,,,,,,,,,,,,,,,,,,,,,,,,,,,,,,,,,,,,,
295570,2022-12-03_00h22.44.931,vts_reward_expectancy_bt,2022.2.4,MacIntel,66.66666667,Safari,820,1180,,,l,0.675,10,441,1,2,2,26,2,1,1,0,0,0,0,0,0,1,triangle,star,,,,,,,,,,,,,,,,,,,,,,,,,,,,,,,,,,,,,,,,,,,,,,,,,,
295570,2022-12-03_00h22.44.931,vts_reward_expectancy_bt,2022.2.4,MacIntel,66.66666667,Safari,820,1180,,,l,1.034,1,442,1,2,3,27,7,1,0,0,1,0,0,1,0,0,hexagon,circle,,,,,,,,,,,,,,,,,,,,,,,,,,,,,,,,,,,,,,,,,,,,,,,,,,
295570,2022-12-03_00h22.44.931,vts_reward_expectancy_bt,2022.2.4,MacIntel,66.66666667,Safari,820,1180,,,a,0.618,1,443,1,2,4,28,3,1,0,1,0,0,1,0,0,0,circle,triangle,,,,,,,,,,,,,,,,,,,,,,,,,,,,,,,,,,,,,,,,,,,,,,,,,,
295570,2022-12-03_00h22.44.931,vts_reward_expectancy_bt,2022.2.4,MacIntel,66.66666667,Safari,820,1180,,,a,0.74,10,453,1,2,5,29,11,1,0,0,0,1,0,0,1,0,star,hexagon,,,,,,,,,,,,,,,,,,,,,,,,,,,,,,,,,,,,,,,,,,,,,,,,,,
295570,2022-12-03_00h22.44.931,vts_reward_expectancy_bt,2022.2.4,MacIntel,66.66666667,Safari,820,1180,,,l,0.591,10,463,1,2,6,30,5,1,0,1,0,0,0,0,0,1,circle,star,,,,,,,,,,,,,,,,,,,,,,,,,,,,,,,,,,,,,,,,,,,,,,,,,,
295570,2022-12-03_00h22.44.931,vts_reward_expectancy_bt,2022.2.4,MacIntel,66.66666667,Safari,820,1180,,,a,1.068,1,464,1,2,7,31,8,1,0,0,1,0,0,0,0,1,hexagon,star,,,,,,,,,,,,,,,,,,,,,,,,,,,,,,,,,,,,,,,,,,,,,,,,,,
295570,2022-12-03_00h22.44.931,vts_reward_expectancy_bt,2022.2.4,MacIntel,66.66666667,Safari,820,1180,,,l,0.517,1,465,1,2,8,32,0,1,1,0,0,0,0,1,0,0,triangle,circle,,,,,,,,,,,,,,,,,,,,,,,,,,,,,,,,,,,,,,,,,,,,,,,,,,
295570,2022-12-03_00h22.44.931,vts_reward_expectancy_bt,2022.2.4,MacIntel,66.66666667,Safari,820,1180,,,l,1.673,1,466,1,2,9,33,1,1,1,0,0,0,0,0,1,0,triangle,hexagon,,,,,,,,,,,,,,,,,,,,,,,,,,,,,,,,,,,,,,,,,,,,,,,,,,
295570,2022-12-03_00h22.44.931,vts_reward_expectancy_bt,2022.2.4,MacIntel,66.66666667,Safari,820,1180,,,a,0.66,10,476,1,2,10,34,9,1,0,0,0,1,1,0,0,0,star,triangle,,,,,,,,,,,,,,,,,,,,,,,,,,,,,,,,,,,,,,,,,,,,,,,,,,
295570,2022-12-03_00h22.44.931,vts_reward_expectancy_bt,2022.2.4,MacIntel,66.66666667,Safari,820,1180,,,a,0.491,10,486,1,2,11,35,10,1,0,0,0,1,0,1,0,0,star ,circle,,,,,,,,,,,,,,,,,,,,,,,,,,,,,,,,,,,,,,,,,,,,,,,,,,
295570,2022-12-03_00h22.44.931,vts_reward_expectancy_bt,2022.2.4,MacIntel,66.66666667,Safari,820,1180,,,a,1.218,10,496,2,0,0,0,3,1,0,1,0,0,1,0,0,0,circle,triangle,,,,,,,,,,,,,,,,,,,,,,,,,,,,,,,,,,,,,,,,,,,,,,,,,,
295570,2022-12-03_00h22.44.931,vts_reward_expectancy_bt,2022.2.4,MacIntel,66.66666667,Safari,820,1180,,,l,0.831,1,497,2,0,1,1,6,1,0,0,1,0,1,0,0,0,hexagon,triangle,,,,,,,,,,,,,,,,,,,,,,,,,,,,,,,,,,,,,,,,,,,,,,,,,,
295570,2022-12-03_00h22.44.931,vts_reward_expectancy_bt,2022.2.4,MacIntel,66.66666667,Safari,820,1180,,,a,0.661,1,498,2,0,2,2,4,1,0,1,0,0,0,0,1,0,circle,hexagon,,,,,,,,,,,,,,,,,,,,,,,,,,,,,,,,,,,,,,,,,,,,,,,,,,
295570,2022-12-03_00h22.44.931,vts_reward_expectancy_bt,2022.2.4,MacIntel,66.66666667,Safari,820,1180,,,l,0.667,10,508,2,0,3,3,5,1,0,1,0,0,0,0,0,1,circle,star,,,,,,,,,,,,,,,,,,,,,,,,,,,,,,,,,,,,,,,,,,,,,,,,,,
295570,2022-12-03_00h22.44.931,vts_reward_expectancy_bt,2022.2.4,MacIntel,66.66666667,Safari,820,1180,,,a,0.584,10,518,2,0,4,4,9,1,0,0,0,1,1,0,0,0,star,triangle,,,,,,,,,,,,,,,,,,,,,,,,,,,,,,,,,,,,,,,,,,,,,,,,,,
295570,2022-12-03_00h22.44.931,vts_reward_expectancy_bt,2022.2.4,MacIntel,66.66666667,Safari,820,1180,,,l,0.754,1,519,2,0,5,5,0,1,1,0,0,0,0,1,0,0,triangle,circle,,,,,,,,,,,,,,,,,,,,,,,,,,,,,,,,,,,,,,,,,,,,,,,,,,
295570,2022-12-03_00h22.44.931,vts_reward_expectancy_bt,2022.2.4,MacIntel,66.66666667,Safari,820,1180,,,l,1.183,1,520,2,0,6,6,11,1,0,0,0,1,0,0,1,0,star,hexagon,,,,,,,,,,,,,,,,,,,,,,,,,,,,,,,,,,,,,,,,,,,,,,,,,,
295570,2022-12-03_00h22.44.931,vts_reward_expectancy_bt,2022.2.4,MacIntel,66.66666667,Safari,820,1180,,,a,0.515,1,521,2,0,7,7,10,1,0,0,0,1,0,1,0,0,star ,circle,,,,,,,,,,,,,,,,,,,,,,,,,,,,,,,,,,,,,,,,,,,,,,,,,,
295570,2022-12-03_00h22.44.931,vts_reward_expectancy_bt,2022.2.4,MacIntel,66.66666667,Safari,820,1180,,,a,0.615,1,522,2,0,8,8,1,1,1,0,0,0,0,0,1,0,triangle,hexagon,,,,,,,,,,,,,,,,,,,,,,,,,,,,,,,,,,,,,,,,,,,,,,,,,,
295570,2022-12-03_00h22.44.931,vts_reward_expectancy_bt,2022.2.4,MacIntel,66.66666667,Safari,820,1180,,,l,0.498,1,523,2,0,9,9,7,1,0,0,1,0,0,1,0,0,hexagon,circle,,,,,,,,,,,,,,,,,,,,,,,,,,,,,,,,,,,,,,,,,,,,,,,,,,
295570,2022-12-03_00h22.44.931,vts_reward_expectancy_bt,2022.2.4,MacIntel,66.66666667,Safari,820,1180,,,a,0.531,1,524,2,0,10,10,8,1,0,0,1,0,0,0,0,1,hexagon,star,,,,,,,,,,,,,,,,,,,,,,,,,,,,,,,,,,,,,,,,,,,,,,,,,,
295570,2022-12-03_00h22.44.931,vts_reward_expectancy_bt,2022.2.4,MacIntel,66.66666667,Safari,820,1180,,,l,0.516,10,534,2,0,11,11,2,1,1,0,0,0,0,0,0,1,triangle,star,,,,,,,,,,,,,,,,,,,,,,,,,,,,,,,,,,,,,,,,,,,,,,,,,,
295570,2022-12-03_00h22.44.931,vts_reward_expectancy_bt,2022.2.4,MacIntel,66.66666667,Safari,820,1180,,,a,0.7,1,535,2,1,0,12,6,1,0,0,1,0,1,0,0,0,hexagon,triangle,,,,,,,,,,,,,,,,,,,,,,,,,,,,,,,,,,,,,,,,,,,,,,,,,,
295570,2022-12-03_00h22.44.931,vts_reward_expectancy_bt,2022.2.4,MacIntel,66.66666667,Safari,820,1180,,,l,0.314,1,536,2,1,1,13,1,1,1,0,0,0,0,0,1,0,triangle,hexagon,,,,,,,,,,,,,,,,,,,,,,,,,,,,,,,,,,,,,,,,,,,,,,,,,,
295570,2022-12-03_00h22.44.931,vts_reward_expectancy_bt,2022.2.4,MacIntel,66.66666667,Safari,820,1180,,,a,0.358,10,546,2,1,2,14,0,1,1,0,0,0,0,1,0,0,triangle,circle,,,,,,,,,,,,,,,,,,,,,,,,,,,,,,,,,,,,,,,,,,,,,,,,,,
295570,2022-12-03_00h22.44.931,vts_reward_expectancy_bt,2022.2.4,MacIntel,66.66666667,Safari,820,1180,,,a,0.731,10,556,2,1,3,15,7,1,0,0,1,0,0,1,0,0,hexagon,circle,,,,,,,,,,,,,,,,,,,,,,,,,,,,,,,,,,,,,,,,,,,,,,,,,,
295570,2022-12-03_00h22.44.931,vts_reward_expectancy_bt,2022.2.4,MacIntel,66.66666667,Safari,820,1180,,,a,0.682,10,566,2,1,4,16,9,1,0,0,0,1,1,0,0,0,star,triangle,,,,,,,,,,,,,,,,,,,,,,,,,,,,,,,,,,,,,,,,,,,,,,,,,,
295570,2022-12-03_00h22.44.931,vts_reward_expectancy_bt,2022.2.4,MacIntel,66.66666667,Safari,820,1180,,,a,0.566,1,567,2,1,5,17,11,1,0,0,0,1,0,0,1,0,star,hexagon,,,,,,,,,,,,,,,,,,,,,,,,,,,,,,,,,,,,,,,,,,,,,,,,,,
295570,2022-12-03_00h22.44.931,vts_reward_expectancy_bt,2022.2.4,MacIntel,66.66666667,Safari,820,1180,,,l,0.549,1,568,2,1,6,18,4,1,0,1,0,0,0,0,1,0,circle,hexagon,,,,,,,,,,,,,,,,,,,,,,,,,,,,,,,,,,,,,,,,,,,,,,,,,,
295570,2022-12-03_00h22.44.931,vts_reward_expectancy_bt,2022.2.4,MacIntel,66.66666667,Safari,820,1180,,,l,0.838,1,569,2,1,7,19,10,1,0,0,0,1,0,1,0,0,star ,circle,,,,,,,,,,,,,,,,,,,,,,,,,,,,,,,,,,,,,,,,,,,,,,,,,,
295570,2022-12-03_00h22.44.931,vts_reward_expectancy_bt,2022.2.4,MacIntel,66.66666667,Safari,820,1180,,,a,0.47,10,579,2,1,8,20,2,1,1,0,0,0,0,0,0,1,triangle,star,,,,,,,,,,,,,,,,,,,,,,,,,,,,,,,,,,,,,,,,,,,,,,,,,,
295570,2022-12-03_00h22.44.931,vts_reward_expectancy_bt,2022.2.4,MacIntel,66.66666667,Safari,820,1180,,,l,1.267,10,589,2,1,9,21,3,1,0,1,0,0,1,0,0,0,circle,triangle,,,,,,,,,,,,,,,,,,,,,,,,,,,,,,,,,,,,,,,,,,,,,,,,,,
295570,2022-12-03_00h22.44.931,vts_reward_expectancy_bt,2022.2.4,MacIntel,66.66666667,Safari,820,1180,,,a,0.618,1,590,2,1,10,22,8,1,0,0,1,0,0,0,0,1,hexagon,star,,,,,,,,,,,,,,,,,,,,,,,,,,,,,,,,,,,,,,,,,,,,,,,,,,
295570,2022-12-03_00h22.44.931,vts_reward_expectancy_bt,2022.2.4,MacIntel,66.66666667,Safari,820,1180,,,l,0.567,10,600,2,1,11,23,5,1,0,1,0,0,0,0,0,1,circle,star,,,,,,,,,,,,,,,,,,,,,,,,,,,,,,,,,,,,,,,,,,,,,,,,,,
295570,2022-12-03_00h22.44.931,vts_reward_expectancy_bt,2022.2.4,MacIntel,66.66666667,Safari,820,1180,,,a,1.131,10,610,2,2,0,24,9,1,0,0,0,1,1,0,0,0,star,triangle,,,,,,,,,,,,,,,,,,,,,,,,,,,,,,,,,,,,,,,,,,,,,,,,,,
295570,2022-12-03_00h22.44.931,vts_reward_expectancy_bt,2022.2.4,MacIntel,66.66666667,Safari,820,1180,,,l,0.631,10,620,2,2,1,25,8,1,0,0,1,0,0,0,0,1,hexagon,star,,,,,,,,,,,,,,,,,,,,,,,,,,,,,,,,,,,,,,,,,,,,,,,,,,
295570,2022-12-03_00h22.44.931,vts_reward_expectancy_bt,2022.2.4,MacIntel,66.66666667,Safari,820,1180,,,a,0.532,10,630,2,2,2,26,7,1,0,0,1,0,0,1,0,0,hexagon,circle,,,,,,,,,,,,,,,,,,,,,,,,,,,,,,,,,,,,,,,,,,,,,,,,,,
295570,2022-12-03_00h22.44.931,vts_reward_expectancy_bt,2022.2.4,MacIntel,66.66666667,Safari,820,1180,,,l,0.682,1,631,2,2,3,27,11,1,0,0,0,1,0,0,1,0,star,hexagon,,,,,,,,,,,,,,,,,,,,,,,,,,,,,,,,,,,,,,,,,,,,,,,,,,
295570,2022-12-03_00h22.44.931,vts_reward_expectancy_bt,2022.2.4,MacIntel,66.66666667,Safari,820,1180,,,l,0.601,10,641,2,2,4,28,2,1,1,0,0,0,0,0,0,1,triangle,star,,,,,,,,,,,,,,,,,,,,,,,,,,,,,,,,,,,,,,,,,,,,,,,,,,
295570,2022-12-03_00h22.44.931,vts_reward_expectancy_bt,2022.2.4,MacIntel,66.66666667,Safari,820,1180,,,l,0.515,1,642,2,2,5,29,5,1,0,1,0,0,0,0,0,1,circle,star,,,,,,,,,,,,,,,,,,,,,,,,,,,,,,,,,,,,,,,,,,,,,,,,,,
295570,2022-12-03_00h22.44.931,vts_reward_expectancy_bt,2022.2.4,MacIntel,66.66666667,Safari,820,1180,,,a,0.481,10,652,2,2,6,30,0,1,1,0,0,0,0,1,0,0,triangle,circle,,,,,,,,,,,,,,,,,,,,,,,,,,,,,,,,,,,,,,,,,,,,,,,,,,
295570,2022-12-03_00h22.44.931,vts_reward_expectancy_bt,2022.2.4,MacIntel,66.66666667,Safari,820,1180,,,l,0.786,1,653,2,2,7,31,1,1,1,0,0,0,0,0,1,0,triangle,hexagon,,,,,,,,,,,,,,,,,,,,,,,,,,,,,,,,,,,,,,,,,,,,,,,,,,
295570,2022-12-03_00h22.44.931,vts_reward_expectancy_bt,2022.2.4,MacIntel,66.66666667,Safari,820,1180,,,a,0.518,1,654,2,2,8,32,3,1,0,1,0,0,1,0,0,0,circle,triangle,,,,,,,,,,,,,,,,,,,,,,,,,,,,,,,,,,,,,,,,,,,,,,,,,,
295570,2022-12-03_00h22.44.931,vts_reward_expectancy_bt,2022.2.4,MacIntel,66.66666667,Safari,820,1180,,,l,0.502,10,664,2,2,9,33,6,1,0,0,1,0,1,0,0,0,hexagon,triangle,,,,,,,,,,,,,,,,,,,,,,,,,,,,,,,,,,,,,,,,,,,,,,,,,,
295570,2022-12-03_00h22.44.931,vts_reward_expectancy_bt,2022.2.4,MacIntel,66.66666667,Safari,820,1180,,,a,0.411,1,665,2,2,10,34,4,1,0,1,0,0,0,0,1,0,circle,hexagon,,,,,,,,,,,,,,,,,,,,,,,,,,,,,,,,,,,,,,,,,,,,,,,,,,
295570,2022-12-03_00h22.44.931,vts_reward_expectancy_bt,2022.2.4,MacIntel,66.66666667,Safari,820,1180,,,l,0.585,1,666,2,2,11,35,10,1,0,0,0,1,0,1,0,0,star ,circle,,,,,,,,,,,,,,,,,,,,,,,,,,,,,,,,,,,,,,,,,,,,,,,,,,
295570,2022-12-03_00h22.44.931,vts_reward_expectancy_bt,2022.2.4,MacIntel,66.66666667,Safari,820,1180,,,,,,,,,,,,,,,,,,,,,,,U,139,star,0,0,,0,0,0,0,0,1,,,,,,,,,,,,,,,,,,,,,,,,,,,,,,,,,,,,,,
295570,2022-12-03_00h22.44.931,vts_reward_expectancy_bt,2022.2.4,MacIntel,66.66666667,Safari,820,1180,,,,,,,,,,,,,,,,,,,,,,,F,167,hexagon,1,1,d,0,1,0,1,0,1,1.23,,,,,,,,,,,,,,,,,,,,,,,,,,,,,,,,,,,,,
295570,2022-12-03_00h22.44.931,vts_reward_expectancy_bt,2022.2.4,MacIntel,66.66666667,Safari,820,1180,,,,,,,,,,,,,,,,,,,,,,,H,174,triangle,1,0,d,0,2,0,2,0,1,0.571,,,,,,,,,,,,,,,,,,,,,,,,,,,,,,,,,,,,,
295570,2022-12-03_00h22.44.931,vts_reward_expectancy_bt,2022.2.4,MacIntel,66.66666667,Safari,820,1180,,,,,,,,,,,,,,,,,,,,,,,W,132,circle,0,0,d,0,3,0,3,0,1,0.641,,,,,,,,,,,,,,,,,,,,,,,,,,,,,,,,,,,,,
295570,2022-12-03_00h22.44.931,vts_reward_expectancy_bt,2022.2.4,MacIntel,66.66666667,Safari,820,1180,,,,,,,,,,,,,,,,,,,,,,,Y,160,star,1,1,f,0,4,0,4,0,1,1.594,,,,,,,,,,,,,,,,,,,,,,,,,,,,,,,,,,,,,
295570,2022-12-03_00h22.44.931,vts_reward_expectancy_bt,2022.2.4,MacIntel,66.66666667,Safari,820,1180,,,,,,,,,,,,,,,,,,,,,,,B,125,hexagon,1,0,d,0,5,0,5,0,1,0.672,,,,,,,,,,,,,,,,,,,,,,,,,,,,,,,,,,,,,
295570,2022-12-03_00h22.44.931,vts_reward_expectancy_bt,2022.2.4,MacIntel,66.66666667,Safari,820,1180,,,,,,,,,,,,,,,,,,,,,,,D,146,triangle,1,0,d,0,6,0,6,0,1,1.073,,,,,,,,,,,,,,,,,,,,,,,,,,,,,,,,,,,,,
295570,2022-12-03_00h22.44.931,vts_reward_expectancy_bt,2022.2.4,MacIntel,66.66666667,Safari,820,1180,,,,,,,,,,,,,,,,,,,,,,,S,181,circle,0,0,d,0,7,0,7,0,1,0.689,,,,,,,,,,,,,,,,,,,,,,,,,,,,,,,,,,,,,
295570,2022-12-03_00h22.44.931,vts_reward_expectancy_bt,2022.2.4,MacIntel,66.66666667,Safari,820,1180,,,,,,,,,,,,,,,,,,,,,,,U,139,hexagon,0,1,d,0,8,0,8,0,1,0.681,,,,,,,,,,,,,,,,,,,,,,,,,,,,,,,,,,,,,
295570,2022-12-03_00h22.44.931,vts_reward_expectancy_bt,2022.2.4,MacIntel,66.66666667,Safari,820,1180,,,,,,,,,,,,,,,,,,,,,,,F,167,star,1,1,d,0,9,0,9,0,1,0.645,,,,,,,,,,,,,,,,,,,,,,,,,,,,,,,,,,,,,
295570,2022-12-03_00h22.44.931,vts_reward_expectancy_bt,2022.2.4,MacIntel,66.66666667,Safari,820,1180,,,,,,,,,,,,,,,,,,,,,,,S,181,hexagon,0,0,,1,0,0,0,0,1,,,,,,,,,,,,,,,,,,,,,,,,,,,,,,,,,,,,,,
295570,2022-12-03_00h22.44.931,vts_reward_expectancy_bt,2022.2.4,MacIntel,66.66666667,Safari,820,1180,,,,,,,,,,,,,,,,,,,,,,,H,146,circle,0,1,,1,1,0,1,0,1,,,,,,,,,,,,,,,,,,,,,,,,,,,,,,,,,,,,,,
295570,2022-12-03_00h22.44.931,vts_reward_expectancy_bt,2022.2.4,MacIntel,66.66666667,Safari,820,1180,,,,,,,,,,,,,,,,,,,,,,,U,174,star,0,1,d,1,2,0,2,0,1,2.013,,,,,,,,,,,,,,,,,,,,,,,,,,,,,,,,,,,,,
295570,2022-12-03_00h22.44.931,vts_reward_expectancy_bt,2022.2.4,MacIntel,66.66666667,Safari,820,1180,,,,,,,,,,,,,,,,,,,,,,,W,132,triangle,0,1,,1,3,0,3,0,1,,,,,,,,,,,,,,,,,,,,,,,,,,,,,,,,,,,,,,
295570,2022-12-03_00h22.44.931,vts_reward_expectancy_bt,2022.2.4,MacIntel,66.66666667,Safari,820,1180,,,,,,,,,,,,,,,,,,,,,,,D,160,hexagon,1,1,d,1,4,0,4,0,1,2.832,,,,,,,,,,,,,,,,,,,,,,,,,,,,,,,,,,,,,
295570,2022-12-03_00h22.44.931,vts_reward_expectancy_bt,2022.2.4,MacIntel,66.66666667,Safari,820,1180,,,,,,,,,,,,,,,,,,,,,,,Y,125,circle,0,0,d,1,5,0,5,0,1,0.721,,,,,,,,,,,,,,,,,,,,,,,,,,,,,,,,,,,,,
295570,2022-12-03_00h22.44.931,vts_reward_expectancy_bt,2022.2.4,MacIntel,66.66666667,Safari,820,1180,,,,,,,,,,,,,,,,,,,,,,,B,167,star,1,1,d,1,6,0,6,0,1,1.345,,,,,,,,,,,,,,,,,,,,,,,,,,,,,,,,,,,,,
295570,2022-12-03_00h22.44.931,vts_reward_expectancy_bt,2022.2.4,MacIntel,66.66666667,Safari,820,1180,,,,,,,,,,,,,,,,,,,,,,,F,139,triangle,1,0,d,1,7,0,7,0,1,1.299,,,,,,,,,,,,,,,,,,,,,,,,,,,,,,,,,,,,,
295570,2022-12-03_00h22.44.931,vts_reward_expectancy_bt,2022.2.4,MacIntel,66.66666667,Safari,820,1180,,,,,,,,,,,,,,,,,,,,,,,S,181,circle,0,0,d,1,8,0,8,0,1,0.644,,,,,,,,,,,,,,,,,,,,,,,,,,,,,,,,,,,,,
295570,2022-12-03_00h22.44.931,vts_reward_expectancy_bt,2022.2.4,MacIntel,66.66666667,Safari,820,1180,,,,,,,,,,,,,,,,,,,,,,,H,146,hexagon,1,1,d,1,9,0,9,0,1,0.707,,,,,,,,,,,,,,,,,,,,,,,,,,,,,,,,,,,,,
295570,2022-12-03_00h22.44.931,vts_reward_expectancy_bt,2022.2.4,MacIntel,66.66666667,Safari,820,1180,,,,,,,,,,,,,,,,,,,,,,,D,139,triangle,1,0,d,2,0,0,0,0,1,2.447,,,,,,,,,,,,,,,,,,,,,,,,,,,,,,,,,,,,,
295570,2022-12-03_00h22.44.931,vts_reward_expectancy_bt,2022.2.4,MacIntel,66.66666667,Safari,820,1180,,,,,,,,,,,,,,,,,,,,,,,Y,174,hexagon,0,0,d,2,1,0,1,0,1,2.916,,,,,,,,,,,,,,,,,,,,,,,,,,,,,,,,,,,,,
295570,2022-12-03_00h22.44.931,vts_reward_expectancy_bt,2022.2.4,MacIntel,66.66666667,Safari,820,1180,,,,,,,,,,,,,,,,,,,,,,,W,146,star,0,1,,2,2,0,2,0,1,,,,,,,,,,,,,,,,,,,,,,,,,,,,,,,,,,,,,,
295570,2022-12-03_00h22.44.931,vts_reward_expectancy_bt,2022.2.4,MacIntel,66.66666667,Safari,820,1180,,,,,,,,,,,,,,,,,,,,,,,U,160,circle,1,1,f,2,3,0,3,0,1,2.823,,,,,,,,,,,,,,,,,,,,,,,,,,,,,,,,,,,,,
295570,2022-12-03_00h22.44.931,vts_reward_expectancy_bt,2022.2.4,MacIntel,66.66666667,Safari,820,1180,,,,,,,,,,,,,,,,,,,,,,,H,167,triangle,0,0,f,2,4,0,4,0,1,2.196,,,,,,,,,,,,,,,,,,,,,,,,,,,,,,,,,,,,,
295570,2022-12-03_00h22.44.931,vts_reward_expectancy_bt,2022.2.4,MacIntel,66.66666667,Safari,820,1180,,,,,,,,,,,,,,,,,,,,,,,B,132,hexagon,1,1,d,2,5,0,5,0,1,1.167,,,,,,,,,,,,,,,,,,,,,,,,,,,,,,,,,,,,,
295570,2022-12-03_00h22.44.931,vts_reward_expectancy_bt,2022.2.4,MacIntel,66.66666667,Safari,820,1180,,,,,,,,,,,,,,,,,,,,,,,S,181,star,0,0,d,2,6,0,6,0,1,1.339,,,,,,,,,,,,,,,,,,,,,,,,,,,,,,,,,,,,,
295570,2022-12-03_00h22.44.931,vts_reward_expectancy_bt,2022.2.4,MacIntel,66.66666667,Safari,820,1180,,,,,,,,,,,,,,,,,,,,,,,F,125,circle,1,1,d,2,7,0,7,0,1,1.601,,,,,,,,,,,,,,,,,,,,,,,,,,,,,,,,,,,,,
295570,2022-12-03_00h22.44.931,vts_reward_expectancy_bt,2022.2.4,MacIntel,66.66666667,Safari,820,1180,,,,,,,,,,,,,,,,,,,,,,,D,139,star,1,0,d,2,8,0,8,0,1,0.675,,,,,,,,,,,,,,,,,,,,,,,,,,,,,,,,,,,,,
295570,2022-12-03_00h22.44.931,vts_reward_expectancy_bt,2022.2.4,MacIntel,66.66666667,Safari,820,1180,,,,,,,,,,,,,,,,,,,,,,,Y,174,triangle,1,0,f,2,9,0,9,0,1,1.093,,,,,,,,,,,,,,,,,,,,,,,,,,,,,,,,,,,,,
295570,2022-12-03_00h22.44.931,vts_reward_expectancy_bt,2022.2.4,MacIntel,66.66666667,Safari,820,1180,,,,,,,,,,,,,,,,,,,,,,,Y,160,triangle,2,0,,3,,,,,,,f,0.602,0,0,0,0,1,,,,,,,,,,,,,,,,,,,,,,,,,,,,,,
295570,2022-12-03_00h22.44.931,vts_reward_expectancy_bt,2022.2.4,MacIntel,66.66666667,Safari,820,1180,,,,,,,,,,,,,,,,,,,,,,,F,125,hexagon,2,0,,3,,,,,,,d,0.999,1,0,1,0,1,,,,,,,,,,,,,,,,,,,,,,,,,,,,,,
295570,2022-12-03_00h22.44.931,vts_reward_expectancy_bt,2022.2.4,MacIntel,66.66666667,Safari,820,1180,,,,,,,,,,,,,,,,,,,,,,,S,174,circle,0,0,,3,,,,,,,j,1.865,2,0,2,0,1,,,,,,,,,,,,,,,,,,,,,,,,,,,,,,
295570,2022-12-03_00h22.44.931,vts_reward_expectancy_bt,2022.2.4,MacIntel,66.66666667,Safari,820,1180,,,,,,,,,,,,,,,,,,,,,,,U,181,star,0,1,,3,,,,,,,j,2.596,3,0,3,0,1,,,,,,,,,,,,,,,,,,,,,,,,,,,,,,
295570,2022-12-03_00h22.44.931,vts_reward_expectancy_bt,2022.2.4,MacIntel,66.66666667,Safari,820,1180,,,,,,,,,,,,,,,,,,,,,,,B,146,triangle,1,1,,3,,,,,,,j,0.84,4,0,4,0,1,,,,,,,,,,,,,,,,,,,,,,,,,,,,,,
295570,2022-12-03_00h22.44.931,vts_reward_expectancy_bt,2022.2.4,MacIntel,66.66666667,Safari,820,1180,,,,,,,,,,,,,,,,,,,,,,,D,167,hexagon,0,0,,3,,,,,,,j,1.14,5,0,5,0,1,,,,,,,,,,,,,,,,,,,,,,,,,,,,,,
295570,2022-12-03_00h22.44.931,vts_reward_expectancy_bt,2022.2.4,MacIntel,66.66666667,Safari,820,1180,,,,,,,,,,,,,,,,,,,,,,,W,139,circle,1,1,,3,,,,,,,j,1.311,6,0,6,0,1,,,,,,,,,,,,,,,,,,,,,,,,,,,,,,
295570,2022-12-03_00h22.44.931,vts_reward_expectancy_bt,2022.2.4,MacIntel,66.66666667,Safari,820,1180,,,,,,,,,,,,,,,,,,,,,,,H,132,star,2,0,,3,,,,,,,d,2.436,7,0,7,0,1,,,,,,,,,,,,,,,,,,,,,,,,,,,,,,
295570,2022-12-03_00h22.44.931,vts_reward_expectancy_bt,2022.2.4,MacIntel,66.66666667,Safari,820,1180,,,,,,,,,,,,,,,,,,,,,,,Y,160,circle,0,0,,3,,,,,,,,,8,0,8,0,1,,,,,,,,,,,,,,,,,,,,,,,,,,,,,,
295570,2022-12-03_00h22.44.931,vts_reward_expectancy_bt,2022.2.4,MacIntel,66.66666667,Safari,820,1180,,,,,,,,,,,,,,,,,,,,,,,F,125,triangle,1,1,,3,,,,,,,j,1.714,9,0,9,0,1,,,,,,,,,,,,,,,,,,,,,,,,,,,,,,
295570,2022-12-03_00h22.44.931,vts_reward_expectancy_bt,2022.2.4,MacIntel,66.66666667,Safari,820,1180,,,,,,,,,,,,,,,,,,,,,,,Y,139,circle,1,0,,4,,,,,,,j,0.822,0,0,0,0,1,,,,,,,,,,,,,,,,,,,,,,,,,,,,,,
295570,2022-12-03_00h22.44.931,vts_reward_expectancy_bt,2022.2.4,MacIntel,66.66666667,Safari,820,1180,,,,,,,,,,,,,,,,,,,,,,,S,174,hexagon,1,0,,4,,,,,,,k,0.746,1,0,1,0,1,,,,,,,,,,,,,,,,,,,,,,,,,,,,,,
295570,2022-12-03_00h22.44.931,vts_reward_expectancy_bt,2022.2.4,MacIntel,66.66666667,Safari,820,1180,,,,,,,,,,,,,,,,,,,,,,,U,167,triangle,1,0,,4,,,,,,,k,0.707,2,0,2,0,1,,,,,,,,,,,,,,,,,,,,,,,,,,,,,,
295570,2022-12-03_00h22.44.931,vts_reward_expectancy_bt,2022.2.4,MacIntel,66.66666667,Safari,820,1180,,,,,,,,,,,,,,,,,,,,,,,D,132,star,1,0,,4,,,,,,,j,0.716,3,0,3,0,1,,,,,,,,,,,,,,,,,,,,,,,,,,,,,,
295570,2022-12-03_00h22.44.931,vts_reward_expectancy_bt,2022.2.4,MacIntel,66.66666667,Safari,820,1180,,,,,,,,,,,,,,,,,,,,,,,B,160,circle,1,0,,4,,,,,,,k,0.984,4,0,4,0,1,,,,,,,,,,,,,,,,,,,,,,,,,,,,,,
295570,2022-12-03_00h22.44.931,vts_reward_expectancy_bt,2022.2.4,MacIntel,66.66666667,Safari,820,1180,,,,,,,,,,,,,,,,,,,,,,,H,146,hexagon,1,0,,4,,,,,,,j,1.148,5,0,5,0,1,,,,,,,,,,,,,,,,,,,,,,,,,,,,,,
295570,2022-12-03_00h22.44.931,vts_reward_expectancy_bt,2022.2.4,MacIntel,66.66666667,Safari,820,1180,,,,,,,,,,,,,,,,,,,,,,,F,181,triangle,1,0,,4,,,,,,,k,0.804,6,0,6,0,1,,,,,,,,,,,,,,,,,,,,,,,,,,,,,,
295570,2022-12-03_00h22.44.931,vts_reward_expectancy_bt,2022.2.4,MacIntel,66.66666667,Safari,820,1180,,,,,,,,,,,,,,,,,,,,,,,W,125,star,1,0,,4,,,,,,,j,1.208,7,0,7,0,1,,,,,,,,,,,,,,,,,,,,,,,,,,,,,,
295570,2022-12-03_00h22.44.931,vts_reward_expectancy_bt,2022.2.4,MacIntel,66.66666667,Safari,820,1180,,,,,,,,,,,,,,,,,,,,,,,Y,139,circle,1,0,,4,,,,,,,j,1.142,8,0,8,0,1,,,,,,,,,,,,,,,,,,,,,,,,,,,,,,
295570,2022-12-03_00h22.44.931,vts_reward_expectancy_bt,2022.2.4,MacIntel,66.66666667,Safari,820,1180,,,,,,,,,,,,,,,,,,,,,,,S,174,star,1,0,,4,,,,,,,k,1.177,9,0,9,0,1,,,,,,,,,,,,,,,,,,,,,,,,,,,,,,
295570,2022-12-03_00h22.44.931,vts_reward_expectancy_bt,2022.2.4,MacIntel,66.66666667,Safari,820,1180,,,,,0,666,,,,,,,,,,,,,,,,,W,139,triangle,1,0,,5,,,,,,,,,,,,,,-1,number,NA,j,1.67,vtsPrac,0,0,0,0,1,,,,,,,,,,,,,,,,,,,
295570,2022-12-03_00h22.44.931,vts_reward_expectancy_bt,2022.2.4,MacIntel,66.66666667,Safari,820,1180,,,,,0,666,,,,,,,,,,,,,,,,,F,167,hexagon,1,0,,5,,,,,,,,,,,,,,repeat,number,numRpt,k,0.679,vtsPrac,1,0,1,0,1,,,,,,,,,,,,,,,,,,,
295570,2022-12-03_00h22.44.931,vts_reward_expectancy_bt,2022.2.4,MacIntel,66.66666667,Safari,820,1180,,,,,0,666,,,,,,,,,,,,,,,,,D,146,triangle,1,0,,5,,,,,,,,,,,,,,switch,letter,lettSwt,d,0.738,vtsPrac,2,0,2,0,1,,,,,,,,,,,,,,,,,,,
295570,2022-12-03_00h22.44.931,vts_reward_expectancy_bt,2022.2.4,MacIntel,66.66666667,Safari,820,1180,,,,,0,666,,,,,,,,,,,,,,,,,B,181,hexagon,1,0,,5,,,,,,,,,,,,,,switch,number,numSwt,k,1.067,vtsPrac,3,0,3,0,1,,,,,,,,,,,,,,,,,,,
295570,2022-12-03_00h22.44.931,vts_reward_expectancy_bt,2022.2.4,MacIntel,66.66666667,Safari,820,1180,,,,,0,666,,,,,,,,,,,,,,,,,W,139,hexagon,1,0,,5,,,,,,,,,,,,,,repeat,number,numRpt,j,1.089,vtsPrac,4,0,4,0,1,,,,,,,,,,,,,,,,,,,
295570,2022-12-03_00h22.44.931,vts_reward_expectancy_bt,2022.2.4,MacIntel,66.66666667,Safari,820,1180,,,,,0,666,,,,,,,,,,,,,,,,,F,167,triangle,1,0,,5,,,,,,,,,,,,,,switch,letter,lettSwt,d,1.101,vtsPrac,5,0,5,0,1,,,,,,,,,,,,,,,,,,,
295570,2022-12-03_00h22.44.931,vts_reward_expectancy_bt,2022.2.4,MacIntel,66.66666667,Safari,820,1180,,,,,0,666,,,,,,,,,,,,,,,,,D,146,circle,1,0,,5,,,,,,,,,,,,,,repeat,letter,lettRpt,d,0.657,vtsPrac,6,0,6,0,1,,,,,,,,,,,,,,,,,,,
295570,2022-12-03_00h22.44.931,vts_reward_expectancy_bt,2022.2.4,MacIntel,66.66666667,Safari,820,1180,,,,,0,666,,,,,,,,,,,,,,,,,B,181,hexagon,1,0,,5,,,,,,,,,,,,,,repeat,letter,lettRpt,d,0.665,vtsPrac,7,0,7,0,1,,,,,,,,,,,,,,,,,,,
295570,2022-12-03_00h22.44.931,vts_reward_expectancy_bt,2022.2.4,MacIntel,66.66666667,Safari,820,1180,,,,,0,666,,,,,,,,,,,,,,,,,W,139,star,1,0,,5,,,,,,,,,,,,,,repeat,letter,lettRpt,f,0.894,vtsPrac,8,0,8,0,1,,,,,,,,,,,,,,,,,,,
295570,2022-12-03_00h22.44.931,vts_reward_expectancy_bt,2022.2.4,MacIntel,66.66666667,Safari,820,1180,,,,,0,666,,,,,,,,,,,,,,,,,D,125,triangle,1,0,,5,,,,,,,,,,,,,,repeat,letter,lettRpt,d,0.871,vtsPrac,9,0,9,0,1,,,,,,,,,,,,,,,,,,,
295570,2022-12-03_00h22.44.931,vts_reward_expectancy_bt,2022.2.4,MacIntel,66.66666667,Safari,820,1180,,,,,0,666,,,,,,,,,,,,,,,,,H,167,triangle,1,0,,5,,,,,,,,,,,,,,switch,number,numSwt,k,1.415,vtsPrac,10,0,10,0,1,,,,,,,,,,,,,,,,,,,
295570,2022-12-03_00h22.44.931,vts_reward_expectancy_bt,2022.2.4,MacIntel,66.66666667,Safari,820,1180,,,,,0,666,,,,,,,,,,,,,,,,,U,181,hexagon,1,0,,5,,,,,,,,,,,,,,repeat,number,numRpt,k,0.97,vtsPrac,11,0,11,0,1,,,,,,,,,,,,,,,,,,,
295570,2022-12-03_00h22.44.931,vts_reward_expectancy_bt,2022.2.4,MacIntel,66.66666667,Safari,820,1180,,,,,0,666,,,,,,,,,,,,,,,,,S,146,circle,1,0,,5,,,,,,,,,,,,,,switch,letter,lettSwt,f,1.788,vtsPrac,12,0,12,0,1,,,,,,,,,,,,,,,,,,,
295570,2022-12-03_00h22.44.931,vts_reward_expectancy_bt,2022.2.4,MacIntel,66.66666667,Safari,820,1180,,,,,0,666,,,,,,,,,,,,,,,,,D,132,hexagon,1,0,,5,,,,,,,,,,,,,,switch,number,numSwt,j,0.833,vtsPrac,13,0,13,0,1,,,,,,,,,,,,,,,,,,,
295570,2022-12-03_00h22.44.931,vts_reward_expectancy_bt,2022.2.4,MacIntel,66.66666667,Safari,820,1180,,,,,0,666,,,,,,,,,,,,,,,,,F,139,circle,1,0,,5,,,,,,,,,,,,,,switch,letter,lettSwt,d,1.013,vtsPrac,14,0,14,0,1,,,,,,,,,,,,,,,,,,,
295570,2022-12-03_00h22.44.931,vts_reward_expectancy_bt,2022.2.4,MacIntel,66.66666667,Safari,820,1180,,,,,0,666,,,,,,,,,,,,,,,,,H,181,hexagon,1,0,,5,,,,,,,,,,,,,,repeat,letter,lettRpt,d,1.351,vtsPrac,15,0,15,0,1,,,,,,,,,,,,,,,,,,,
295570,2022-12-03_00h22.44.931,vts_reward_expectancy_bt,2022.2.4,MacIntel,66.66666667,Safari,820,1180,,,,,0,666,,,,,,,,,,,,,,,,,S,125,star,1,0,,5,,,,,,,,,,,,,,switch,number,numSwt,j,0.941,vtsPrac,16,0,16,0,1,,,,,,,,,,,,,,,,,,,
295570,2022-12-03_00h22.44.931,vts_reward_expectancy_bt,2022.2.4,MacIntel,66.66666667,Safari,820,1180,,,,,0,666,,,,,,,,,,,,,,,,,U,160,triangle,1,0,,5,,,,,,,,,,,,,,repeat,number,numRpt,k,0.755,vtsPrac,17,0,17,0,1,,,,,,,,,,,,,,,,,,,
295570,2022-12-03_00h22.44.931,vts_reward_expectancy_bt,2022.2.4,MacIntel,66.66666667,Safari,820,1180,,,,,0,666,,,,,,,,,,,,,,,,,H,139,triangle,1,0,,5,,,,,,,,,,,,,,repeat,number,numRpt,j,1.922,vtsPrac,18,0,18,0,1,,,,,,,,,,,,,,,,,,,
295570,2022-12-03_00h22.44.931,vts_reward_expectancy_bt,2022.2.4,MacIntel,66.66666667,Safari,820,1180,,,,,0,666,,,,,,,,,,,,,,,,,Y,167,circle,1,0,,5,,,,,,,,,,,,,,repeat,number,numRpt,k,1.002,vtsPrac,19,0,19,0,1,,,,,,,,,,,,,,,,,,,
295570,2022-12-03_00h22.44.931,vts_reward_expectancy_bt,2022.2.4,MacIntel,66.66666667,Safari,820,1180,,,,,0,666,,,,,,,,,,,,,,,,,B,125,triangle,1,0,,5,,,,,,,,,,,,,,switch,letter,lettSwt,d,1.099,vtsPrac,20,0,20,0,1,,,,,,,,,,,,,,,,,,,
295570,2022-12-03_00h22.44.931,vts_reward_expectancy_bt,2022.2.4,MacIntel,66.66666667,Safari,820,1180,,,,,0,666,,,,,,,,,,,,,,,,,Y,174,circle,1,0,,5,,,,,,,,,,,,,,repeat,letter,lettRpt,f,0.826,vtsPrac,21,0,21,0,1,,,,,,,,,,,,,,,,,,,
295570,2022-12-03_00h22.44.931,vts_reward_expectancy_bt,2022.2.4,MacIntel,66.66666667,Safari,820,1180,,,,,0,666,,,,,,,,,,,,,,,,,S,181,hexagon,1,0,,5,,,,,,,,,,,,,,repeat,letter,lettRpt,f,1.345,vtsPrac,22,0,22,0,1,,,,,,,,,,,,,,,,,,,
295570,2022-12-03_00h22.44.931,vts_reward_expectancy_bt,2022.2.4,MacIntel,66.66666667,Safari,820,1180,,,,,0,666,,,,,,,,,,,,,,,,,U,167,star,1,0,,5,,,,,,,,,,,,,,switch,number,numSwt,k,1.212,vtsPrac,23,0,23,0,1,,,,,,,,,,,,,,,,,,,
295570,2022-12-03_00h22.44.931,vts_reward_expectancy_bt,2022.2.4,MacIntel,66.66666667,Safari,820,1180,,,,,0,666,,,,,,,,,,,,,,,,,F,174,circle,1,0,,5,,,,,,,,,,,,,,repeat,number,numRpt,k,1.228,vtsPrac,24,0,24,0,1,,,,,,,,,,,,,,,,,,,
295570,2022-12-03_00h22.44.931,vts_reward_expectancy_bt,2022.2.4,MacIntel,66.66666667,Safari,820,1180,,,,,0,666,,,,,,,,,,,,,,,,,H,181,hexagon,1,0,,5,,,,,,,,,,,,,,repeat,number,numRpt,k,0.972,vtsPrac,25,0,25,0,1,,,,,,,,,,,,,,,,,,,
295570,2022-12-03_00h22.44.931,vts_reward_expectancy_bt,2022.2.4,MacIntel,66.66666667,Safari,820,1180,,,,,0,666,,,,,,,,,,,,,,,,,B,146,triangle,1,0,,5,,,,,,,,,,,,,,switch,letter,lettSwt,d,0.716,vtsPrac,26,0,26,0,1,,,,,,,,,,,,,,,,,,,
295570,2022-12-03_00h22.44.931,vts_reward_expectancy_bt,2022.2.4,MacIntel,66.66666667,Safari,820,1180,,,,,0,666,,,,,,,,,,,,,,,,,S,167,hexagon,1,0,,5,,,,,,,,,,,,,,repeat,letter,lettRpt,f,0.656,vtsPrac,27,0,27,0,1,,,,,,,,,,,,,,,,,,,
295570,2022-12-03_00h22.44.931,vts_reward_expectancy_bt,2022.2.4,MacIntel,66.66666667,Safari,820,1180,,,,,0,666,,,,,,,,,,,,,,,,,W,167,circle,1,0,,5,,,,,,,,,,,,,,repeat,letter,lettRpt,f,0.787,vtsPrac,28,0,28,0,1,,,,,,,,,,,,,,,,,,,
295570,2022-12-03_00h22.44.931,vts_reward_expectancy_bt,2022.2.4,MacIntel,66.66666667,Safari,820,1180,,,,,0,666,,,,,,,,,,,,,,,,,F,181,hexagon,1,0,,5,,,,,,,,,,,,,,switch,number,numSwt,k,1.335,vtsPrac,29,0,29,0,1,,,,,,,,,,,,,,,,,,,
295570,2022-12-03_00h22.44.931,vts_reward_expectancy_bt,2022.2.4,MacIntel,66.66666667,Safari,820,1180,,,,,0,666,,,,,,,,,,,,,,,,,Y,174,triangle,1,0,,5,,,,,,,,,,,,,,switch,letter,lettSwt,f,0.897,vtsPrac,30,0,30,0,1,,,,,,,,,,,,,,,,,,,
295570,2022-12-03_00h22.44.931,vts_reward_expectancy_bt,2022.2.4,MacIntel,66.66666667,Safari,820,1180,,,,,0,666,,,,,,,,,,,,,,,,,U,125,star,1,0,,5,,,,,,,,,,,,,,repeat,letter,lettRpt,f,0.841,vtsPrac,31,0,31,0,1,,,,,,,,,,,,,,,,,,,
295570,2022-12-03_00h22.44.931,vts_reward_expectancy_bt,2022.2.4,MacIntel,66.66666667,Safari,820,1180,,,,,,,,,,,,,,,,,,,,,,,,,,,,,,,,,,,,,,,,,,,,,,,,,,,,,,,,,,,,,,,,,,,,,,,,
295570,2022-12-03_00h22.44.931,vts_reward_expectancy_bt,2022.2.4,MacIntel,66.66666667,Safari,820,1180,,,,,,,,,,,,,,,,,,,,,,,,,,,,,,,,,,,,,,,,,,,,,,,,,,,,,,,,,,,,,,,,,,,,,,,,
295570,2022-12-03_00h22.44.931,vts_reward_expectancy_bt,2022.2.4,MacIntel,66.66666667,Safari,820,1180,,,,,0,666,,,,,,,,,,,,,,,,,U,174,triangle,1,0,,,,,,,,,,,,,,,,repeat,letter,lettRpt,f,1.159,noRew,,,,,,0,0,0,0,0,1,,,,,,,,,,,,,
295570,2022-12-03_00h22.44.931,vts_reward_expectancy_bt,2022.2.4,MacIntel,66.66666667,Safari,820,1180,,,,,0,666,,,,,,,,,,,,,,,,,S,167,star,1,0,,,,,,,,,,,,,,,,repeat,letter,lettRpt,f,0.645,noRew,,,,,,0,1,0,1,0,1,,,,,,,,,,,,,
295570,2022-12-03_00h22.44.931,vts_reward_expectancy_bt,2022.2.4,MacIntel,66.66666667,Safari,820,1180,,,,,0,666,,,,,,,,,,,,,,,,,F,181,triangle,1,0,,,,,,,,,,,,,,,,repeat,letter,lettRpt,d,0.923,noRew,,,,,,0,2,0,2,0,1,,,,,,,,,,,,,
295570,2022-12-03_00h22.44.931,vts_reward_expectancy_bt,2022.2.4,MacIntel,66.66666667,Safari,820,1180,,,,,0,666,,,,,,,,,,,,,,,,,D,139,star,1,0,,,,,,,,,,,,,,,,switch,number,numSwt,j,1.069,noRew,,,,,,0,3,0,3,0,1,,,,,,,,,,,,,
295570,2022-12-03_00h22.44.931,vts_reward_expectancy_bt,2022.2.4,MacIntel,66.66666667,Safari,820,1180,,,,,0,666,,,,,,,,,,,,,,,,,U,174,circle,1,0,,,,,,,,,,,,,,,,repeat,number,numRpt,k,1.015,noRew,,,,,,0,4,0,4,0,1,,,,,,,,,,,,,
295570,2022-12-03_00h22.44.931,vts_reward_expectancy_bt,2022.2.4,MacIntel,66.66666667,Safari,820,1180,,,,,0,666,,,,,,,,,,,,,,,,,S,167,triangle,0,0,,,,,,,,,,,,,,,,repeat,number,NA,j,0.809,noRew,,,,,,0,5,0,5,0,1,,,,,,,,,,,,,
295570,2022-12-03_00h22.44.931,vts_reward_expectancy_bt,2022.2.4,MacIntel,66.66666667,Safari,820,1180,,,,,0,666,,,,,,,,,,,,,,,,,F,181,triangle,1,1,,,,,,,,,,,,,,,,repeat,number,numRpt,k,1.256,noRew,,,,,,0,6,0,6,0,1,,,,,,,,,,,,,
295570,2022-12-03_00h22.44.931,vts_reward_expectancy_bt,2022.2.4,MacIntel,66.66666667,Safari,820,1180,,,,,0,666,,,,,,,,,,,,,,,,,D,139,star,1,0,,,,,,,,,,,,,,,,repeat,number,numRpt,j,0.713,noRew,,,,,,0,7,0,7,0,1,,,,,,,,,,,,,
295570,2022-12-03_00h22.44.931,vts_reward_expectancy_bt,2022.2.4,MacIntel,66.66666667,Safari,820,1180,,,,,0,666,,,,,,,,,,,,,,,,,H,174,triangle,1,0,,,,,,,,,,,,,,,,repeat,number,numRpt,k,0.924,noRew,,,,,,0,8,0,8,0,1,,,,,,,,,,,,,
295570,2022-12-03_00h22.44.931,vts_reward_expectancy_bt,2022.2.4,MacIntel,66.66666667,Safari,820,1180,,,,,0,666,,,,,,,,,,,,,,,,,F,160,star,1,0,,,,,,,,,,,,,,,,repeat,number,numRpt,k,0.78,noRew,,,,,,0,9,0,9,0,1,,,,,,,,,,,,,
295570,2022-12-03_00h22.44.931,vts_reward_expectancy_bt,2022.2.4,MacIntel,66.66666667,Safari,820,1180,,,,,0,666,,,,,,,,,,,,,,,,,Y,181,hexagon,1,0,,,,,,,,,,,,,,,,switch,letter,lettSwt,f,1.774,noRew,,,,,,0,10,0,10,0,1,,,,,,,,,,,,,
295570,2022-12-03_00h22.44.931,vts_reward_expectancy_bt,2022.2.4,MacIntel,66.66666667,Safari,820,1180,,,,,0,666,,,,,,,,,,,,,,,,,S,146,triangle,1,0,,,,,,,,,,,,,,,,repeat,letter,lettRpt,f,1.483,noRew,,,,,,0,11,0,11,0,1,,,,,,,,,,,,,
295570,2022-12-03_00h22.44.931,vts_reward_expectancy_bt,2022.2.4,MacIntel,66.66666667,Safari,820,1180,,,,,0,666,,,,,,,,,,,,,,,,,F,167,star,1,0,,,,,,,,,,,,,,,,repeat,letter,lettRpt,d,1.087,noRew,,,,,,0,12,0,12,0,1,,,,,,,,,,,,,
295570,2022-12-03_00h22.44.931,vts_reward_expectancy_bt,2022.2.4,MacIntel,66.66666667,Safari,820,1180,,,,,0,666,,,,,,,,,,,,,,,,,U,174,hexagon,1,0,,,,,,,,,,,,,,,,switch,number,numSwt,k,1.002,noRew,,,,,,0,13,0,13,0,1,,,,,,,,,,,,,
295570,2022-12-03_00h22.44.931,vts_reward_expectancy_bt,2022.2.4,MacIntel,66.66666667,Safari,820,1180,,,,,0,666,,,,,,,,,,,,,,,,,B,132,hexagon,1,0,,,,,,,,,,,,,,,,switch,letter,lettSwt,d,1.133,noRew,,,,,,0,14,0,14,0,1,,,,,,,,,,,,,
295570,2022-12-03_00h22.44.931,vts_reward_expectancy_bt,2022.2.4,MacIntel,66.66666667,Safari,820,1180,,,,,0,666,,,,,,,,,,,,,,,,,S,146,circle,1,0,,,,,,,,,,,,,,,,repeat,letter,lettRpt,f,1.384,noRew,,,,,,0,15,0,15,0,1,,,,,,,,,,,,,
295570,2022-12-03_00h22.44.931,vts_reward_expectancy_bt,2022.2.4,MacIntel,66.66666667,Safari,820,1180,,,,,0,666,,,,,,,,,,,,,,,,,B,160,hexagon,1,0,,,,,,,,,,,,,,,,repeat,letter,lettRpt,d,0.892,noRew,,,,,,0,16,0,16,0,1,,,,,,,,,,,,,
295570,2022-12-03_00h22.44.931,vts_reward_expectancy_bt,2022.2.4,MacIntel,66.66666667,Safari,820,1180,,,,,0,666,,,,,,,,,,,,,,,,,S,167,star,1,0,,,,,,,,,,,,,,,,repeat,letter,lettRpt,f,0.989,noRew,,,,,,0,17,0,17,0,1,,,,,,,,,,,,,
295570,2022-12-03_00h22.44.931,vts_reward_expectancy_bt,2022.2.4,MacIntel,66.66666667,Safari,820,1180,,,,,0,666,,,,,,,,,,,,,,,,,U,132,triangle,1,0,,,,,,,,,,,,,,,,switch,number,numSwt,j,1.156,noRew,,,,,,0,18,0,18,0,1,,,,,,,,,,,,,
295570,2022-12-03_00h22.44.931,vts_reward_expectancy_bt,2022.2.4,MacIntel,66.66666667,Safari,820,1180,,,,,0,666,,,,,,,,,,,,,,,,,F,139,star,1,0,,,,,,,,,,,,,,,,repeat,number,numRpt,j,0.725,noRew,,,,,,0,19,0,19,0,1,,,,,,,,,,,,,
295570,2022-12-03_00h22.44.931,vts_reward_expectancy_bt,2022.2.4,MacIntel,66.66666667,Safari,820,1180,,,,,0,666,,,,,,,,,,,,,,,,,D,125,circle,1,0,,,,,,,,,,,,,,,,repeat,number,numRpt,j,1.159,noRew,,,,,,0,20,0,20,0,1,,,,,,,,,,,,,
295570,2022-12-03_00h22.44.931,vts_reward_expectancy_bt,2022.2.4,MacIntel,66.66666667,Safari,820,1180,,,,,0,666,,,,,,,,,,,,,,,,,U,146,triangle,1,0,,,,,,,,,,,,,,,,repeat,number,numRpt,j,0.889,noRew,,,,,,0,21,0,21,0,1,,,,,,,,,,,,,
295570,2022-12-03_00h22.44.931,vts_reward_expectancy_bt,2022.2.4,MacIntel,66.66666667,Safari,820,1180,,,,,0,666,,,,,,,,,,,,,,,,,B,181,hexagon,1,0,,,,,,,,,,,,,,,,switch,letter,lettSwt,d,0.676,noRew,,,,,,0,22,0,22,0,1,,,,,,,,,,,,,
295570,2022-12-03_00h22.44.931,vts_reward_expectancy_bt,2022.2.4,MacIntel,66.66666667,Safari,820,1180,,,,,0,666,,,,,,,,,,,,,,,,,F,139,triangle,1,0,,,,,,,,,,,,,,,,repeat,letter,lettRpt,d,1.008,noRew,,,,,,0,23,0,23,0,1,,,,,,,,,,,,,
295570,2022-12-03_00h22.44.931,vts_reward_expectancy_bt,2022.2.4,MacIntel,66.66666667,Safari,820,1180,,,,,0,666,,,,,,,,,,,,,,,,,S,132,triangle,1,0,,,,,,,,,,,,,,,,repeat,letter,lettRpt,f,0.833,noRew,,,,,,0,24,0,24,0,1,,,,,,,,,,,,,
295570,2022-12-03_00h22.44.931,vts_reward_expectancy_bt,2022.2.4,MacIntel,66.66666667,Safari,820,1180,,,,,0,666,,,,,,,,,,,,,,,,,U,174,star,1,0,,,,,,,,,,,,,,,,repeat,letter,lettRpt,f,0.98,noRew,,,,,,0,25,0,25,0,1,,,,,,,,,,,,,
295570,2022-12-03_00h22.44.931,vts_reward_expectancy_bt,2022.2.4,MacIntel,66.66666667,Safari,820,1180,,,,,0,666,,,,,,,,,,,,,,,,,F,167,triangle,1,0,,,,,,,,,,,,,,,,switch,number,numSwt,k,0.89,noRew,,,,,,0,26,0,26,0,1,,,,,,,,,,,,,
295570,2022-12-03_00h22.44.931,vts_reward_expectancy_bt,2022.2.4,MacIntel,66.66666667,Safari,820,1180,,,,,0,666,,,,,,,,,,,,,,,,,H,125,star,1,0,,,,,,,,,,,,,,,,repeat,number,numRpt,j,1.666,noRew,,,,,,0,27,0,27,0,1,,,,,,,,,,,,,
295570,2022-12-03_00h22.44.931,vts_reward_expectancy_bt,2022.2.4,MacIntel,66.66666667,Safari,820,1180,,,,,0,666,,,,,,,,,,,,,,,,,D,174,triangle,1,0,,,,,,,,,,,,,,,,repeat,number,numRpt,k,0.875,noRew,,,,,,0,28,0,28,0,1,,,,,,,,,,,,,
295570,2022-12-03_00h22.44.931,vts_reward_expectancy_bt,2022.2.4,MacIntel,66.66666667,Safari,820,1180,,,,,0,666,,,,,,,,,,,,,,,,,H,125,hexagon,1,0,,,,,,,,,,,,,,,,switch,letter,lettSwt,d,1.856,noRew,,,,,,0,29,0,29,0,1,,,,,,,,,,,,,
295570,2022-12-03_00h22.44.931,vts_reward_expectancy_bt,2022.2.4,MacIntel,66.66666667,Safari,820,1180,,,,,0,666,,,,,,,,,,,,,,,,,U,139,triangle,1,0,,,,,,,,,,,,,,,,repeat,letter,lettRpt,f,1.023,noRew,,,,,,0,30,0,30,0,1,,,,,,,,,,,,,
295570,2022-12-03_00h22.44.931,vts_reward_expectancy_bt,2022.2.4,MacIntel,66.66666667,Safari,820,1180,,,,,0,666,,,,,,,,,,,,,,,,,F,181,hexagon,1,0,,,,,,,,,,,,,,,,switch,number,numSwt,k,1.389,noRew,,,,,,0,31,0,31,0,1,,,,,,,,,,,,,
295570,2022-12-03_00h22.44.931,vts_reward_expectancy_bt,2022.2.4,MacIntel,66.66666667,Safari,820,1180,,,,,0,666,,,,,,,,,,,,,,,,,F,174,hexagon,1,0,,,,,,,,,,,,,,,,switch,letter,lettSwt,d,1.225,noRew,,,,,,0,32,0,32,0,1,,,,,,,,,,,,,
295570,2022-12-03_00h22.44.931,vts_reward_expectancy_bt,2022.2.4,MacIntel,66.66666667,Safari,820,1180,,,,,0,666,,,,,,,,,,,,,,,,,B,146,triangle,1,0,,,,,,,,,,,,,,,,repeat,letter,lettRpt,d,1.205,noRew,,,,,,0,33,0,33,0,1,,,,,,,,,,,,,
295570,2022-12-03_00h22.44.931,vts_reward_expectancy_bt,2022.2.4,MacIntel,66.66666667,Safari,820,1180,,,,,0,666,,,,,,,,,,,,,,,,,S,181,circle,1,0,,,,,,,,,,,,,,,,repeat,letter,lettRpt,f,1.406,noRew,,,,,,0,34,0,34,0,1,,,,,,,,,,,,,
295570,2022-12-03_00h22.44.931,vts_reward_expectancy_bt,2022.2.4,MacIntel,66.66666667,Safari,820,1180,,,,,0,666,,,,,,,,,,,,,,,,,W,125,star,1,0,,,,,,,,,,,,,,,,switch,number,numSwt,j,0.939,noRew,,,,,,0,35,0,35,0,1,,,,,,,,,,,,,
295570,2022-12-03_00h22.44.931,vts_reward_expectancy_bt,2022.2.4,MacIntel,66.66666667,Safari,820,1180,,,,,0,666,,,,,,,,,,,,,,,,,S,181,triangle,1,0,,,,,,,,,,,,,,,,switch,letter,lettSwt,f,2.022,noRew,,,,,,0,36,0,36,0,1,,,,,,,,,,,,,
295570,2022-12-03_00h22.44.931,vts_reward_expectancy_bt,2022.2.4,MacIntel,66.66666667,Safari,820,1180,,,,,0,666,,,,,,,,,,,,,,,,,D,132,star,1,0,,,,,,,,,,,,,,,,switch,number,numSwt,j,0.862,noRew,,,,,,0,37,0,37,0,1,,,,,,,,,,,,,
295570,2022-12-03_00h22.44.931,vts_reward_expectancy_bt,2022.2.4,MacIntel,66.66666667,Safari,820,1180,,,,,0,666,,,,,,,,,,,,,,,,,W,160,star,1,0,,,,,,,,,,,,,,,,repeat,number,numRpt,k,0.909,noRew,,,,,,0,38,0,38,0,1,,,,,,,,,,,,,
295570,2022-12-03_00h22.44.931,vts_reward_expectancy_bt,2022.2.4,MacIntel,66.66666667,Safari,820,1180,,,,,0,666,,,,,,,,,,,,,,,,,Y,125,hexagon,1,0,,,,,,,,,,,,,,,,switch,letter,lettSwt,f,1.895,noRew,,,,,,0,39,0,39,0,1,,,,,,,,,,,,,
295570,2022-12-03_00h22.44.931,vts_reward_expectancy_bt,2022.2.4,MacIntel,66.66666667,Safari,820,1180,,,,,0,666,,,,,,,,,,,,,,,,,U,181,star,1,0,,,,,,,,,,,,,,,,repeat,letter,lettRpt,f,1.587,noRew,,,,,,0,40,0,40,0,1,,,,,,,,,,,,,
295570,2022-12-03_00h22.44.931,vts_reward_expectancy_bt,2022.2.4,MacIntel,66.66666667,Safari,820,1180,,,,,0,666,,,,,,,,,,,,,,,,,D,174,hexagon,1,0,,,,,,,,,,,,,,,,repeat,letter,lettRpt,d,1.456,noRew,,,,,,0,41,0,41,0,1,,,,,,,,,,,,,
295570,2022-12-03_00h22.44.931,vts_reward_expectancy_bt,2022.2.4,MacIntel,66.66666667,Safari,820,1180,,,,,0,666,,,,,,,,,,,,,,,,,H,167,star,1,0,,,,,,,,,,,,,,,,repeat,letter,lettRpt,d,1.545,noRew,,,,,,0,42,0,42,0,1,,,,,,,,,,,,,
295570,2022-12-03_00h22.44.931,vts_reward_expectancy_bt,2022.2.4,MacIntel,66.66666667,Safari,820,1180,,,,,0,666,,,,,,,,,,,,,,,,,B,132,triangle,1,0,,,,,,,,,,,,,,,,repeat,letter,lettRpt,d,0.719,noRew,,,,,,0,43,0,43,0,1,,,,,,,,,,,,,
295570,2022-12-03_00h22.44.931,vts_reward_expectancy_bt,2022.2.4,MacIntel,66.66666667,Safari,820,1180,,,,,0,666,,,,,,,,,,,,,,,,,W,146,triangle,1,0,,,,,,,,,,,,,,,,switch,number,numSwt,j,1.622,noRew,,,,,,0,44,0,44,0,1,,,,,,,,,,,,,
295570,2022-12-03_00h22.44.931,vts_reward_expectancy_bt,2022.2.4,MacIntel,66.66666667,Safari,820,1180,,,,,0,666,,,,,,,,,,,,,,,,,U,167,hexagon,1,0,,,,,,,,,,,,,,,,switch,letter,lettSwt,f,1.558,noRew,,,,,,0,45,0,45,0,1,,,,,,,,,,,,,
295570,2022-12-03_00h22.44.931,vts_reward_expectancy_bt,2022.2.4,MacIntel,66.66666667,Safari,820,1180,,,,,0,666,,,,,,,,,,,,,,,,,S,125,star,1,0,,,,,,,,,,,,,,,,switch,number,numSwt,j,1.414,noRew,,,,,,0,46,0,46,0,1,,,,,,,,,,,,,
295570,2022-12-03_00h22.44.931,vts_reward_expectancy_bt,2022.2.4,MacIntel,66.66666667,Safari,820,1180,,,,,0,666,,,,,,,,,,,,,,,,,Y,174,circle,1,0,,,,,,,,,,,,,,,,switch,letter,lettSwt,f,1.369,noRew,,,,,,0,47,0,47,0,1,,,,,,,,,,,,,
295570,2022-12-03_00h22.44.931,vts_reward_expectancy_bt,2022.2.4,MacIntel,66.66666667,Safari,820,1180,,,,,0,666,,,,,,,,,,,,,,,,,S,146,triangle,1,0,,,,,,,,,,,,,,,,switch,number,numSwt,j,1.728,noRew,,,,,,0,48,0,48,0,1,,,,,,,,,,,,,
295570,2022-12-03_00h22.44.931,vts_reward_expectancy_bt,2022.2.4,MacIntel,66.66666667,Safari,820,1180,,,,,0,666,,,,,,,,,,,,,,,,,B,125,circle,1,0,,,,,,,,,,,,,,,,switch,letter,lettSwt,d,0.989,noRew,,,,,,0,49,0,49,0,1,,,,,,,,,,,,,
295570,2022-12-03_00h22.44.931,vts_reward_expectancy_bt,2022.2.4,MacIntel,66.66666667,Safari,820,1180,,,,,0,666,,,,,,,,,,,,,,,,,W,132,circle,1,0,,,,,,,,,,,,,,,,switch,number,numSwt,j,1.068,noRew,,,,,,0,50,0,50,0,1,,,,,,,,,,,,,
295570,2022-12-03_00h22.44.931,vts_reward_expectancy_bt,2022.2.4,MacIntel,66.66666667,Safari,820,1180,,,,,0,666,,,,,,,,,,,,,,,,,H,139,triangle,1,0,,,,,,,,,,,,,,,,repeat,number,numRpt,j,0.913,noRew,,,,,,0,51,0,51,0,1,,,,,,,,,,,,,
295570,2022-12-03_00h22.44.931,vts_reward_expectancy_bt,2022.2.4,MacIntel,66.66666667,Safari,820,1180,,,,,0,666,,,,,,,,,,,,,,,,,S,125,star,1,0,,,,,,,,,,,,,,,,switch,letter,lettSwt,f,0.939,noRew,,,,,,0,52,0,52,0,1,,,,,,,,,,,,,
295570,2022-12-03_00h22.44.931,vts_reward_expectancy_bt,2022.2.4,MacIntel,66.66666667,Safari,820,1180,,,,,0,666,,,,,,,,,,,,,,,,,D,174,circle,1,0,,,,,,,,,,,,,,,,repeat,letter,lettRpt,d,0.779,noRew,,,,,,0,53,0,53,0,1,,,,,,,,,,,,,
295570,2022-12-03_00h22.44.931,vts_reward_expectancy_bt,2022.2.4,MacIntel,66.66666667,Safari,820,1180,,,,,0,666,,,,,,,,,,,,,,,,,W,160,circle,-1,0,,,,,,,,,,,,,,,,switch,no_choice,NA,,,noRew,,,,,,0,54,0,54,0,1,,,,,,,,,,,,,
295570,2022-12-03_00h22.44.931,vts_reward_expectancy_bt,2022.2.4,MacIntel,66.66666667,Safari,820,1180,,,,,0,666,,,,,,,,,,,,,,,,,F,167,star,1,0,,,,,,,,,,,,,,,,switch,letter,lettSwt,d,2.447,noRew,,,,,,0,55,0,55,0,1,,,,,,,,,,,,,
295570,2022-12-03_00h22.44.931,vts_reward_expectancy_bt,2022.2.4,MacIntel,66.66666667,Safari,820,1180,,,,,0,666,,,,,,,,,,,,,,,,,S,160,hexagon,0,0,,,,,,,,,,,,,,,,repeat,letter,NA,d,0.769,noRew,,,,,,0,56,0,56,0,1,,,,,,,,,,,,,
295570,2022-12-03_00h22.44.931,vts_reward_expectancy_bt,2022.2.4,MacIntel,66.66666667,Safari,820,1180,,,,,0,666,,,,,,,,,,,,,,,,,D,167,star,-1,1,,,,,,,,,,,,,,,,switch,no_choice,NA,,,noRew,,,,,,0,57,0,57,0,1,,,,,,,,,,,,,
295570,2022-12-03_00h22.44.931,vts_reward_expectancy_bt,2022.2.4,MacIntel,66.66666667,Safari,820,1180,,,,,0,666,,,,,,,,,,,,,,,,,Y,139,circle,1,0,,,,,,,,,,,,,,,,switch,letter,lettSwt,f,0.856,noRew,,,,,,0,58,0,58,0,1,,,,,,,,,,,,,
295570,2022-12-03_00h22.44.931,vts_reward_expectancy_bt,2022.2.4,MacIntel,66.66666667,Safari,820,1180,,,,,0,666,,,,,,,,,,,,,,,,,H,146,star,1,0,,,,,,,,,,,,,,,,repeat,letter,lettRpt,d,0.815,noRew,,,,,,0,59,0,59,0,1,,,,,,,,,,,,,
295570,2022-12-03_00h22.44.931,vts_reward_expectancy_bt,2022.2.4,MacIntel,66.66666667,Safari,820,1180,,,,,0,666,,,,,,,,,,,,,,,,,U,146,triangle,1,0,,,,,,,,,,,,,,,,switch,number,numSwt,j,1.131,noRew,,,,,,0,60,0,60,0,1,,,,,,,,,,,,,
295570,2022-12-03_00h22.44.931,vts_reward_expectancy_bt,2022.2.4,MacIntel,66.66666667,Safari,820,1180,,,,,0,666,,,,,,,,,,,,,,,,,F,174,hexagon,1,0,,,,,,,,,,,,,,,,switch,letter,lettSwt,d,1.332,noRew,,,,,,0,61,0,61,0,1,,,,,,,,,,,,,
295570,2022-12-03_00h22.44.931,vts_reward_expectancy_bt,2022.2.4,MacIntel,66.66666667,Safari,820,1180,,,,,0,666,,,,,,,,,,,,,,,,,Y,125,triangle,1,0,,,,,,,,,,,,,,,,repeat,letter,lettRpt,f,0.802,noRew,,,,,,0,62,0,62,0,1,,,,,,,,,,,,,
295570,2022-12-03_00h22.44.931,vts_reward_expectancy_bt,2022.2.4,MacIntel,66.66666667,Safari,820,1180,,,,,0,666,,,,,,,,,,,,,,,,,B,181,star,1,0,,,,,,,,,,,,,,,,repeat,letter,lettRpt,d,1.013,noRew,,,,,,0,63,0,63,0,1,,,,,,,,,,,,,
295570,2022-12-03_00h22.44.931,vts_reward_expectancy_bt,2022.2.4,MacIntel,66.66666667,Safari,820,1180,,,,,,,,,,,,,,,,,,,,,,,,,,,,,,,,,,,,,,,,,,,,,,,,,,,,,,,,,,,,,,,,,,,,,,,,
295570,2022-12-03_00h22.44.931,vts_reward_expectancy_bt,2022.2.4,MacIntel,66.66666667,Safari,820,1180,,,,,10,676,,,,,,,,,,,,,,,,,B,125,star,1,0,,,,,,,,,,,,,,,,repeat,letter,lettRpt,d,0.878,Hi,,,,,,0,,,,,,space,13.305,low,0,0,0,0,1,,,,,
295570,2022-12-03_00h22.44.931,vts_reward_expectancy_bt,2022.2.4,MacIntel,66.66666667,Safari,820,1180,,,,,0,676,,,,,,,,,,,,,,,,,F,139,triangle,1,0,,,,,,,,,,,,,,,,repeat,letter,lettRpt,d,1.122,Hi,,,,,,0,,,,,,,,low,1,0,1,0,1,,,,,
295570,2022-12-03_00h22.44.931,vts_reward_expectancy_bt,2022.2.4,MacIntel,66.66666667,Safari,820,1180,,,,,10,686,,,,,,,,,,,,,,,,,W,181,circle,1,0,,,,,,,,,,,,,,,,repeat,letter,lettRpt,f,0.675,Lo,,,,,,0,,,,,,,,low,2,0,2,0,1,,,,,
295570,2022-12-03_00h22.44.931,vts_reward_expectancy_bt,2022.2.4,MacIntel,66.66666667,Safari,820,1180,,,,,1,687,,,,,,,,,,,,,,,,,U,174,hexagon,1,0,,,,,,,,,,,,,,,,switch,number,numSwt,k,0.875,Lo,,,,,,0,,,,,,,,low,3,0,3,0,1,,,,,
295570,2022-12-03_00h22.44.931,vts_reward_expectancy_bt,2022.2.4,MacIntel,66.66666667,Safari,820,1180,,,,,10,697,,,,,,,,,,,,,,,,,Y,167,star,1,0,,,,,,,,,,,,,,,,repeat,number,numRpt,k,0.635,Hi,,,,,,0,,,,,,,,low,4,0,4,0,1,,,,,
295570,2022-12-03_00h22.44.931,vts_reward_expectancy_bt,2022.2.4,MacIntel,66.66666667,Safari,820,1180,,,,,10,707,,,,,,,,,,,,,,,,,S,160,triangle,1,0,,,,,,,,,,,,,,,,repeat,number,numRpt,k,0.723,Hi,,,,,,0,,,,,,,,low,5,0,5,0,1,,,,,
295570,2022-12-03_00h22.44.931,vts_reward_expectancy_bt,2022.2.4,MacIntel,66.66666667,Safari,820,1180,,,,,1,708,,,,,,,,,,,,,,,,,D,146,circle,1,0,,,,,,,,,,,,,,,,switch,letter,lettSwt,d,0.445,Lo,,,,,,0,,,,,,,,low,6,0,6,0,1,,,,,
295570,2022-12-03_00h22.44.931,vts_reward_expectancy_bt,2022.2.4,MacIntel,66.66666667,Safari,820,1180,,,,,1,709,,,,,,,,,,,,,,,,,H,132,hexagon,1,0,,,,,,,,,,,,,,,,repeat,letter,lettRpt,d,1.221,Lo,,,,,,0,,,,,,,,low,7,0,7,0,1,,,,,
295570,2022-12-03_00h22.44.931,vts_reward_expectancy_bt,2022.2.4,MacIntel,66.66666667,Safari,820,1180,,,,,1,710,,,,,,,,,,,,,,,,,B,125,triangle,1,0,,,,,,,,,,,,,,,,switch,number,numSwt,j,0.498,Hi,,,,,,0,,,,,,,,low,8,0,8,0,1,,,,,
295570,2022-12-03_00h22.44.931,vts_reward_expectancy_bt,2022.2.4,MacIntel,66.66666667,Safari,820,1180,,,,,10,720,,,,,,,,,,,,,,,,,F,139,star,1,0,,,,,,,,,,,,,,,,switch,letter,lettSwt,d,1.157,Hi,,,,,,0,,,,,,,,low,9,0,9,0,1,,,,,
295570,2022-12-03_00h22.44.931,vts_reward_expectancy_bt,2022.2.4,MacIntel,66.66666667,Safari,820,1180,,,,,1,721,,,,,,,,,,,,,,,,,W,181,hexagon,1,0,,,,,,,,,,,,,,,,repeat,letter,lettRpt,f,0.846,Lo,,,,,,0,,,,,,,,low,10,0,10,0,1,,,,,
295570,2022-12-03_00h22.44.931,vts_reward_expectancy_bt,2022.2.4,MacIntel,66.66666667,Safari,820,1180,,,,,1,722,,,,,,,,,,,,,,,,,U,174,circle,1,0,,,,,,,,,,,,,,,,repeat,letter,lettRpt,f,1.108,Lo,,,,,,0,,,,,,,,low,11,0,11,0,1,,,,,
295570,2022-12-03_00h22.44.931,vts_reward_expectancy_bt,2022.2.4,MacIntel,66.66666667,Safari,820,1180,,,,,1,723,,,,,,,,,,,,,,,,,Y,167,circle,1,0,,,,,,,,,,,,,,,,repeat,letter,lettRpt,f,1.072,Lo,,,,,,0,,,,,,,,low,12,0,12,0,1,,,,,
295570,2022-12-03_00h22.44.931,vts_reward_expectancy_bt,2022.2.4,MacIntel,66.66666667,Safari,820,1180,,,,,10,733,,,,,,,,,,,,,,,,,S,160,hexagon,1,0,,,,,,,,,,,,,,,,switch,number,numSwt,k,1.096,Lo,,,,,,0,,,,,,,,low,13,0,13,0,1,,,,,
295570,2022-12-03_00h22.44.931,vts_reward_expectancy_bt,2022.2.4,MacIntel,66.66666667,Safari,820,1180,,,,,1,734,,,,,,,,,,,,,,,,,D,146,triangle,1,0,,,,,,,,,,,,,,,,repeat,number,numRpt,j,0.825,Hi,,,,,,0,,,,,,,,low,14,0,14,0,1,,,,,
295570,2022-12-03_00h22.44.931,vts_reward_expectancy_bt,2022.2.4,MacIntel,66.66666667,Safari,820,1180,,,,,0,734,,,,,,,,,,,,,,,,,H,132,star,1,0,,,,,,,,,,,,,,,,repeat,number,numRpt,j,0.918,Hi,,,,,,0,,,,,,,,low,15,0,15,0,1,,,,,
295570,2022-12-03_00h22.44.931,vts_reward_expectancy_bt,2022.2.4,MacIntel,66.66666667,Safari,820,1180,,,,,1,735,,,,,,,,,,,,,,,,,U,125,hexagon,1,0,,,,,,,,,,,,,,,,repeat,number,numRpt,j,0.537,Lo,,,,,,0,,,,,,,,low,16,0,16,0,1,,,,,
295570,2022-12-03_00h22.44.931,vts_reward_expectancy_bt,2022.2.4,MacIntel,66.66666667,Safari,820,1180,,,,,10,745,,,,,,,,,,,,,,,,,Y,167,triangle,1,0,,,,,,,,,,,,,,,,repeat,number,numRpt,k,0.608,Hi,,,,,,0,,,,,,,,low,17,0,17,0,1,,,,,
295570,2022-12-03_00h22.44.931,vts_reward_expectancy_bt,2022.2.4,MacIntel,66.66666667,Safari,820,1180,,,,,10,755,,,,,,,,,,,,,,,,,H,174,circle,1,0,,,,,,,,,,,,,,,,switch,letter,lettSwt,d,0.833,Lo,,,,,,0,,,,,,,,low,18,0,18,0,1,,,,,
295570,2022-12-03_00h22.44.931,vts_reward_expectancy_bt,2022.2.4,MacIntel,66.66666667,Safari,820,1180,,,,,10,765,,,,,,,,,,,,,,,,,W,181,star,1,0,,,,,,,,,,,,,,,,repeat,letter,lettRpt,f,0.555,Hi,,,,,,0,,,,,,,,low,19,0,19,0,1,,,,,
295570,2022-12-03_00h22.44.931,vts_reward_expectancy_bt,2022.2.4,MacIntel,66.66666667,Safari,820,1180,,,,,1,766,,,,,,,,,,,,,,,,,F,160,triangle,1,0,,,,,,,,,,,,,,,,switch,number,numSwt,k,0.694,Hi,,,,,,0,,,,,,,,low,20,0,20,0,1,,,,,
295570,2022-12-03_00h22.44.931,vts_reward_expectancy_bt,2022.2.4,MacIntel,66.66666667,Safari,820,1180,,,,,10,776,,,,,,,,,,,,,,,,,S,132,star,1,0,,,,,,,,,,,,,,,,switch,letter,lettSwt,f,0.804,Hi,,,,,,0,,,,,,,,low,21,0,21,0,1,,,,,
295570,2022-12-03_00h22.44.931,vts_reward_expectancy_bt,2022.2.4,MacIntel,66.66666667,Safari,820,1180,,,,,10,786,,,,,,,,,,,,,,,,,D,139,hexagon,1,0,,,,,,,,,,,,,,,,repeat,letter,lettRpt,d,0.824,Lo,,,,,,0,,,,,,,,low,22,0,22,0,1,,,,,
295570,2022-12-03_00h22.44.931,vts_reward_expectancy_bt,2022.2.4,MacIntel,66.66666667,Safari,820,1180,,,,,1,787,,,,,,,,,,,,,,,,,B,146,circle,1,0,,,,,,,,,,,,,,,,switch,number,numSwt,j,1.515,Lo,,,,,,0,,,,,,,,low,23,0,23,0,1,,,,,
295570,2022-12-03_00h22.44.931,vts_reward_expectancy_bt,2022.2.4,MacIntel,66.66666667,Safari,820,1180,,,,,1,788,,,,,,,,,,,,,,,,,H,146,triangle,1,0,,,,,,,,,,,,,,,,switch,letter,lettSwt,d,0.964,Hi,,,,,,0,,,,,,,,low,24,0,24,0,1,,,,,
295570,2022-12-03_00h22.44.931,vts_reward_expectancy_bt,2022.2.4,MacIntel,66.66666667,Safari,820,1180,,,,,1,789,,,,,,,,,,,,,,,,,W,181,circle,1,0,,,,,,,,,,,,,,,,switch,number,numSwt,k,0.733,Lo,,,,,,0,,,,,,,,low,25,0,25,0,1,,,,,
295570,2022-12-03_00h22.44.931,vts_reward_expectancy_bt,2022.2.4,MacIntel,66.66666667,Safari,820,1180,,,,,10,799,,,,,,,,,,,,,,,,,D,132,star,1,0,,,,,,,,,,,,,,,,repeat,number,numRpt,j,0.841,Hi,,,,,,0,,,,,,,,low,26,0,26,0,1,,,,,
295570,2022-12-03_00h22.44.931,vts_reward_expectancy_bt,2022.2.4,MacIntel,66.66666667,Safari,820,1180,,,,,10,809,,,,,,,,,,,,,,,,,F,125,hexagon,1,0,,,,,,,,,,,,,,,,switch,letter,lettSwt,d,1.736,Lo,,,,,,0,,,,,,,,low,27,0,27,0,1,,,,,
295570,2022-12-03_00h22.44.931,vts_reward_expectancy_bt,2022.2.4,MacIntel,66.66666667,Safari,820,1180,,,,,10,819,,,,,,,,,,,,,,,,,B,174,star,1,0,,,,,,,,,,,,,,,,repeat,letter,lettRpt,d,0.744,Hi,,,,,,0,,,,,,,,low,28,0,28,0,1,,,,,
295570,2022-12-03_00h22.44.931,vts_reward_expectancy_bt,2022.2.4,MacIntel,66.66666667,Safari,820,1180,,,,,1,820,,,,,,,,,,,,,,,,,S,160,hexagon,1,0,,,,,,,,,,,,,,,,switch,number,numSwt,k,0.716,Lo,,,,,,0,,,,,,,,low,29,0,29,0,1,,,,,
295570,2022-12-03_00h22.44.931,vts_reward_expectancy_bt,2022.2.4,MacIntel,66.66666667,Safari,820,1180,,,,,1,821,,,,,,,,,,,,,,,,,U,139,triangle,1,0,,,,,,,,,,,,,,,,switch,letter,lettSwt,f,0.858,Hi,,,,,,0,,,,,,,,low,30,0,30,0,1,,,,,
295570,2022-12-03_00h22.44.931,vts_reward_expectancy_bt,2022.2.4,MacIntel,66.66666667,Safari,820,1180,,,,,10,831,,,,,,,,,,,,,,,,,Y,167,circle,1,0,,,,,,,,,,,,,,,,repeat,letter,lettRpt,f,0.766,Lo,,,,,,0,,,,,,,,low,31,0,31,0,1,,,,,
295570,2022-12-03_00h22.44.931,vts_reward_expectancy_bt,2022.2.4,MacIntel,66.66666667,Safari,820,1180,,,,,1,832,,,,,,,,,,,,,,,,,U,160,hexagon,1,0,,,,,,,,,,,,,,,,repeat,letter,lettRpt,f,2.068,Lo,,,,,,1,,,,,,space,3.731,low,0,0,0,0,1,,,,,
295570,2022-12-03_00h22.44.931,vts_reward_expectancy_bt,2022.2.4,MacIntel,66.66666667,Safari,820,1180,,,,,0,832,,,,,,,,,,,,,,,,,H,146,star,1,0,,,,,,,,,,,,,,,,repeat,letter,lettRpt,d,0.896,Hi,,,,,,1,,,,,,,,low,1,0,1,0,1,,,,,
295570,2022-12-03_00h22.44.931,vts_reward_expectancy_bt,2022.2.4,MacIntel,66.66666667,Safari,820,1180,,,,,0,832,,,,,,,,,,,,,,,,,F,174,triangle,0,0,,,,,,,,,,,,,,,,repeat,letter,NA,f,0.771,Hi,,,,,,1,,,,,,,,low,2,0,2,0,1,,,,,
295570,2022-12-03_00h22.44.931,vts_reward_expectancy_bt,2022.2.4,MacIntel,66.66666667,Safari,820,1180,,,,,1,833,,,,,,,,,,,,,,,,,S,181,circle,1,1,,,,,,,,,,,,,,,,repeat,letter,lettRpt,f,0.881,Lo,,,,,,1,,,,,,,,low,3,0,3,0,1,,,,,
295570,2022-12-03_00h22.44.931,vts_reward_expectancy_bt,2022.2.4,MacIntel,66.66666667,Safari,820,1180,,,,,1,834,,,,,,,,,,,,,,,,,B,132,hexagon,1,0,,,,,,,,,,,,,,,,switch,number,numSwt,j,0.804,Lo,,,,,,1,,,,,,,,low,4,0,4,0,1,,,,,
295570,2022-12-03_00h22.44.931,vts_reward_expectancy_bt,2022.2.4,MacIntel,66.66666667,Safari,820,1180,,,,,0,834,,,,,,,,,,,,,,,,,W,167,star,1,0,,,,,,,,,,,,,,,,repeat,number,numRpt,k,0.861,Hi,,,,,,1,,,,,,,,low,5,0,5,0,1,,,,,
295570,2022-12-03_00h22.44.931,vts_reward_expectancy_bt,2022.2.4,MacIntel,66.66666667,Safari,820,1180,,,,,0,834,,,,,,,,,,,,,,,,,D,125,triangle,1,0,,,,,,,,,,,,,,,,repeat,number,numRpt,j,0.683,Hi,,,,,,1,,,,,,,,low,6,0,6,0,1,,,,,
295570,2022-12-03_00h22.44.931,vts_reward_expectancy_bt,2022.2.4,MacIntel,66.66666667,Safari,820,1180,,,,,10,844,,,,,,,,,,,,,,,,,Y,139,circle,1,0,,,,,,,,,,,,,,,,switch,letter,lettSwt,f,0.877,Lo,,,,,,1,,,,,,,,low,7,0,7,0,1,,,,,
295570,2022-12-03_00h22.44.931,vts_reward_expectancy_bt,2022.2.4,MacIntel,66.66666667,Safari,820,1180,,,,,10,854,,,,,,,,,,,,,,,,,U,160,star,1,0,,,,,,,,,,,,,,,,repeat,letter,lettRpt,f,0.719,Hi,,,,,,1,,,,,,,,low,8,0,8,0,1,,,,,
295570,2022-12-03_00h22.44.931,vts_reward_expectancy_bt,2022.2.4,MacIntel,66.66666667,Safari,820,1180,,,,,1,855,,,,,,,,,,,,,,,,,H,146,circle,1,0,,,,,,,,,,,,,,,,switch,number,numSwt,j,0.489,Lo,,,,,,1,,,,,,,,low,9,0,9,0,1,,,,,
295570,2022-12-03_00h22.44.931,vts_reward_expectancy_bt,2022.2.4,MacIntel,66.66666667,Safari,820,1180,,,,,10,865,,,,,,,,,,,,,,,,,F,174,hexagon,1,0,,,,,,,,,,,,,,,,repeat,number,numRpt,k,0.61,Lo,,,,,,1,,,,,,,,low,10,0,10,0,1,,,,,
295570,2022-12-03_00h22.44.931,vts_reward_expectancy_bt,2022.2.4,MacIntel,66.66666667,Safari,820,1180,,,,,0,865,,,,,,,,,,,,,,,,,S,181,triangle,1,0,,,,,,,,,,,,,,,,repeat,number,numRpt,k,0.65,Hi,,,,,,1,,,,,,,,low,11,0,11,0,1,,,,,
295570,2022-12-03_00h22.44.931,vts_reward_expectancy_bt,2022.2.4,MacIntel,66.66666667,Safari,820,1180,,,,,0,865,,,,,,,,,,,,,,,,,B,132,triangle,1,0,,,,,,,,,,,,,,,,repeat,number,numRpt,j,0.656,Hi,,,,,,1,,,,,,,,low,12,0,12,0,1,,,,,
295570,2022-12-03_00h22.44.931,vts_reward_expectancy_bt,2022.2.4,MacIntel,66.66666667,Safari,820,1180,,,,,1,866,,,,,,,,,,,,,,,,,W,167,hexagon,1,0,,,,,,,,,,,,,,,,switch,letter,lettSwt,f,0.766,Lo,,,,,,1,,,,,,,,low,13,0,13,0,1,,,,,
295570,2022-12-03_00h22.44.931,vts_reward_expectancy_bt,2022.2.4,MacIntel,66.66666667,Safari,820,1180,,,,,0,866,,,,,,,,,,,,,,,,,D,125,circle,0,0,,,,,,,,,,,,,,,,repeat,letter,NA,f,0.604,Lo,,,,,,1,,,,,,,,low,14,0,14,0,1,,,,,
295570,2022-12-03_00h22.44.931,vts_reward_expectancy_bt,2022.2.4,MacIntel,66.66666667,Safari,820,1180,,,,,10,876,,,,,,,,,,,,,,,,,Y,139,star,1,1,,,,,,,,,,,,,,,,repeat,letter,lettRpt,f,0.697,Hi,,,,,,1,,,,,,,,low,15,0,15,0,1,,,,,
295570,2022-12-03_00h22.44.931,vts_reward_expectancy_bt,2022.2.4,MacIntel,66.66666667,Safari,820,1180,,,,,0,876,,,,,,,,,,,,,,,,,S,139,star,1,0,,,,,,,,,,,,,,,,repeat,letter,lettRpt,f,0.81,Hi,,,,,,1,,,,,,,,low,16,0,16,0,1,,,,,
295570,2022-12-03_00h22.44.931,vts_reward_expectancy_bt,2022.2.4,MacIntel,66.66666667,Safari,820,1180,,,,,1,877,,,,,,,,,,,,,,,,,B,125,circle,1,0,,,,,,,,,,,,,,,,repeat,letter,lettRpt,d,0.682,Lo,,,,,,1,,,,,,,,low,17,0,17,0,1,,,,,
295570,2022-12-03_00h22.44.931,vts_reward_expectancy_bt,2022.2.4,MacIntel,66.66666667,Safari,820,1180,,,,,0,877,,,,,,,,,,,,,,,,,U,146,triangle,1,0,,,,,,,,,,,,,,,,repeat,letter,lettRpt,f,0.859,Hi,,,,,,1,,,,,,,,low,18,0,18,0,1,,,,,
295570,2022-12-03_00h22.44.931,vts_reward_expectancy_bt,2022.2.4,MacIntel,66.66666667,Safari,820,1180,,,,,1,878,,,,,,,,,,,,,,,,,Y,174,hexagon,1,0,,,,,,,,,,,,,,,,repeat,letter,lettRpt,f,0.701,Lo,,,,,,1,,,,,,,,low,19,0,19,0,1,,,,,
295570,2022-12-03_00h22.44.931,vts_reward_expectancy_bt,2022.2.4,MacIntel,66.66666667,Safari,820,1180,,,,,1,879,,,,,,,,,,,,,,,,,W,181,star,1,0,,,,,,,,,,,,,,,,repeat,letter,lettRpt,f,0.69,Hi,,,,,,1,,,,,,,,low,20,0,20,0,1,,,,,
295570,2022-12-03_00h22.44.931,vts_reward_expectancy_bt,2022.2.4,MacIntel,66.66666667,Safari,820,1180,,,,,1,880,,,,,,,,,,,,,,,,,D,132,hexagon,1,0,,,,,,,,,,,,,,,,switch,number,numSwt,j,0.768,Lo,,,,,,1,,,,,,,,low,21,0,21,0,1,,,,,
295570,2022-12-03_00h22.44.931,vts_reward_expectancy_bt,2022.2.4,MacIntel,66.66666667,Safari,820,1180,,,,,0,880,,,,,,,,,,,,,,,,,H,160,triangle,1,0,,,,,,,,,,,,,,,,repeat,number,numRpt,k,0.658,Hi,,,,,,1,,,,,,,,low,22,0,22,0,1,,,,,
295570,2022-12-03_00h22.44.931,vts_reward_expectancy_bt,2022.2.4,MacIntel,66.66666667,Safari,820,1180,,,,,10,890,,,,,,,,,,,,,,,,,F,167,circle,1,0,,,,,,,,,,,,,,,,repeat,number,numRpt,k,0.734,Lo,,,,,,1,,,,,,,,low,23,0,23,0,1,,,,,
295570,2022-12-03_00h22.44.931,vts_reward_expectancy_bt,2022.2.4,MacIntel,66.66666667,Safari,820,1180,,,,,1,891,,,,,,,,,,,,,,,,,H,125,hexagon,1,0,,,,,,,,,,,,,,,,repeat,number,numRpt,j,0.607,Lo,,,,,,1,,,,,,,,low,24,0,24,0,1,,,,,
295570,2022-12-03_00h22.44.931,vts_reward_expectancy_bt,2022.2.4,MacIntel,66.66666667,Safari,820,1180,,,,,10,901,,,,,,,,,,,,,,,,,B,139,circle,1,0,,,,,,,,,,,,,,,,switch,letter,lettSwt,d,0.924,Lo,,,,,,1,,,,,,,,low,25,0,25,0,1,,,,,
295570,2022-12-03_00h22.44.931,vts_reward_expectancy_bt,2022.2.4,MacIntel,66.66666667,Safari,820,1180,,,,,10,911,,,,,,,,,,,,,,,,,U,146,triangle,1,0,,,,,,,,,,,,,,,,repeat,letter,lettRpt,f,0.727,Hi,,,,,,1,,,,,,,,low,26,0,26,0,1,,,,,
295570,2022-12-03_00h22.44.931,vts_reward_expectancy_bt,2022.2.4,MacIntel,66.66666667,Safari,820,1180,,,,,10,921,,,,,,,,,,,,,,,,,W,181,star,1,0,,,,,,,,,,,,,,,,repeat,letter,lettRpt,f,0.566,Hi,,,,,,1,,,,,,,,low,27,0,27,0,1,,,,,
295570,2022-12-03_00h22.44.931,vts_reward_expectancy_bt,2022.2.4,MacIntel,66.66666667,Safari,820,1180,,,,,0,921,,,,,,,,,,,,,,,,,D,174,hexagon,0,0,,,,,,,,,,,,,,,,repeat,letter,NA,f,0.707,Hi,,,,,,1,,,,,,,,low,28,0,28,0,1,,,,,
295570,2022-12-03_00h22.44.931,vts_reward_expectancy_bt,2022.2.4,MacIntel,66.66666667,Safari,820,1180,,,,,10,931,,,,,,,,,,,,,,,,,Y,167,star,1,1,,,,,,,,,,,,,,,,switch,number,numSwt,k,0.711,Hi,,,,,,1,,,,,,,,low,29,0,29,0,1,,,,,
295570,2022-12-03_00h22.44.931,vts_reward_expectancy_bt,2022.2.4,MacIntel,66.66666667,Safari,820,1180,,,,,0,931,,,,,,,,,,,,,,,,,F,160,triangle,1,0,,,,,,,,,,,,,,,,repeat,number,numRpt,k,0.701,Hi,,,,,,1,,,,,,,,low,30,0,30,0,1,,,,,
295570,2022-12-03_00h22.44.931,vts_reward_expectancy_bt,2022.2.4,MacIntel,66.66666667,Safari,820,1180,,,,,1,932,,,,,,,,,,,,,,,,,S,132,circle,1,0,,,,,,,,,,,,,,,,switch,letter,lettSwt,f,0.774,Lo,,,,,,1,,,,,,,,low,31,0,31,0,1,,,,,
295570,2022-12-03_00h22.44.931,vts_reward_expectancy_bt,2022.2.4,MacIntel,66.66666667,Safari,820,1180,,,,,1,933,,,,,,,,,,,,,,,,,Y,181,hexagon,1,0,,,,,,,,,,,,,,,,repeat,letter,lettRpt,f,0.884,Lo,,,,,,2,,,,,,space,1.41,low,0,0,0,0,1,,,,,
295570,2022-12-03_00h22.44.931,vts_reward_expectancy_bt,2022.2.4,MacIntel,66.66666667,Safari,820,1180,,,,,0,933,,,,,,,,,,,,,,,,,S,132,star,0,0,,,,,,,,,,,,,,,,repeat,letter,NA,d,0.937,Lo,,,,,,2,,,,,,,,low,1,0,1,0,1,,,,,
295570,2022-12-03_00h22.44.931,vts_reward_expectancy_bt,2022.2.4,MacIntel,66.66666667,Safari,820,1180,,,,,1,934,,,,,,,,,,,,,,,,,W,174,circle,1,1,,,,,,,,,,,,,,,,switch,number,numSwt,k,0.577,Lo,,,,,,2,,,,,,,,low,2,0,2,0,1,,,,,
295570,2022-12-03_00h22.44.931,vts_reward_expectancy_bt,2022.2.4,MacIntel,66.66666667,Safari,820,1180,,,,,1,935,,,,,,,,,,,,,,,,,U,160,triangle,1,0,,,,,,,,,,,,,,,,switch,letter,lettSwt,f,0.483,Hi,,,,,,2,,,,,,,,low,3,0,3,0,1,,,,,
295570,2022-12-03_00h22.44.931,vts_reward_expectancy_bt,2022.2.4,MacIntel,66.66666667,Safari,820,1180,,,,,10,945,,,,,,,,,,,,,,,,,B,139,hexagon,1,0,,,,,,,,,,,,,,,,switch,number,numSwt,j,0.753,Lo,,,,,,2,,,,,,,,low,4,0,4,0,1,,,,,
295570,2022-12-03_00h22.44.931,vts_reward_expectancy_bt,2022.2.4,MacIntel,66.66666667,Safari,820,1180,,,,,0,945,,,,,,,,,,,,,,,,,F,125,star,1,0,,,,,,,,,,,,,,,,repeat,number,numRpt,j,0.73,Hi,,,,,,2,,,,,,,,low,5,0,5,0,1,,,,,
295570,2022-12-03_00h22.44.931,vts_reward_expectancy_bt,2022.2.4,MacIntel,66.66666667,Safari,820,1180,,,,,0,945,,,,,,,,,,,,,,,,,D,146,circle,0,0,,,,,,,,,,,,,,,,switch,letter,NA,f,0.587,Hi,,,,,,2,,,,,,,,low,6,0,6,0,1,,,,,
295570,2022-12-03_00h22.44.931,vts_reward_expectancy_bt,2022.2.4,MacIntel,66.66666667,Safari,820,1180,,,,,0,945,,,,,,,,,,,,,,,,,H,167,triangle,1,1,,,,,,,,,,,,,,,,switch,number,numSwt,k,0.969,Hi,,,,,,2,,,,,,,,low,7,0,7,0,1,,,,,
295570,2022-12-03_00h22.44.931,vts_reward_expectancy_bt,2022.2.4,MacIntel,66.66666667,Safari,820,1180,,,,,10,955,,,,,,,,,,,,,,,,,Y,181,star,1,0,,,,,,,,,,,,,,,,repeat,number,numRpt,k,0.557,Hi,,,,,,2,,,,,,,,low,8,0,8,0,1,,,,,
295570,2022-12-03_00h22.44.931,vts_reward_expectancy_bt,2022.2.4,MacIntel,66.66666667,Safari,820,1180,,,,,10,965,,,,,,,,,,,,,,,,,S,132,circle,1,0,,,,,,,,,,,,,,,,repeat,number,numRpt,j,0.58,Lo,,,,,,2,,,,,,,,low,9,0,9,0,1,,,,,
295570,2022-12-03_00h22.44.931,vts_reward_expectancy_bt,2022.2.4,MacIntel,66.66666667,Safari,820,1180,,,,,1,966,,,,,,,,,,,,,,,,,W,174,hexagon,1,0,,,,,,,,,,,,,,,,repeat,number,numRpt,k,0.671,Lo,,,,,,2,,,,,,,,low,10,0,10,0,1,,,,,
295570,2022-12-03_00h22.44.931,vts_reward_expectancy_bt,2022.2.4,MacIntel,66.66666667,Safari,820,1180,,,,,10,976,,,,,,,,,,,,,,,,,U,160,triangle,1,0,,,,,,,,,,,,,,,,switch,letter,lettSwt,f,0.66,Hi,,,,,,2,,,,,,,,low,11,0,11,0,1,,,,,
295570,2022-12-03_00h22.44.931,vts_reward_expectancy_bt,2022.2.4,MacIntel,66.66666667,Safari,820,1180,,,,,10,986,,,,,,,,,,,,,,,,,B,139,triangle,1,0,,,,,,,,,,,,,,,,repeat,letter,lettRpt,d,0.566,Hi,,,,,,2,,,,,,,,low,12,0,12,0,1,,,,,
295570,2022-12-03_00h22.44.931,vts_reward_expectancy_bt,2022.2.4,MacIntel,66.66666667,Safari,820,1180,,,,,0,986,,,,,,,,,,,,,,,,,F,125,hexagon,0,0,,,,,,,,,,,,,,,,repeat,letter,NA,f,0.554,Hi,,,,,,2,,,,,,,,low,13,0,13,0,1,,,,,
295570,2022-12-03_00h22.44.931,vts_reward_expectancy_bt,2022.2.4,MacIntel,66.66666667,Safari,820,1180,,,,,0,986,,,,,,,,,,,,,,,,,D,146,star,1,1,,,,,,,,,,,,,,,,switch,number,numSwt,j,0.966,Hi,,,,,,2,,,,,,,,low,14,0,14,0,1,,,,,
295570,2022-12-03_00h22.44.931,vts_reward_expectancy_bt,2022.2.4,MacIntel,66.66666667,Safari,820,1180,,,,,1,987,,,,,,,,,,,,,,,,,H,167,circle,1,0,,,,,,,,,,,,,,,,switch,letter,lettSwt,d,0.878,Lo,,,,,,2,,,,,,,,low,15,0,15,0,1,,,,,
295570,2022-12-03_00h22.44.931,vts_reward_expectancy_bt,2022.2.4,MacIntel,66.66666667,Safari,820,1180,,,,,10,997,,,,,,,,,,,,,,,,,W,125,circle,1,0,,,,,,,,,,,,,,,,repeat,letter,lettRpt,f,0.889,Lo,,,,,,2,,,,,,,,low,16,0,16,0,1,,,,,
295570,2022-12-03_00h22.44.931,vts_reward_expectancy_bt,2022.2.4,MacIntel,66.66666667,Safari,820,1180,,,,,10,1007,,,,,,,,,,,,,,,,,U,181,hexagon,1,0,,,,,,,,,,,,,,,,repeat,letter,lettRpt,f,0.862,Lo,,,,,,2,,,,,,,,low,17,0,17,0,1,,,,,
295570,2022-12-03_00h22.44.931,vts_reward_expectancy_bt,2022.2.4,MacIntel,66.66666667,Safari,820,1180,,,,,0,1007,,,,,,,,,,,,,,,,,H,167,triangle,1,0,,,,,,,,,,,,,,,,repeat,letter,lettRpt,d,0.792,Hi,,,,,,2,,,,,,,,low,18,0,18,0,1,,,,,
295570,2022-12-03_00h22.44.931,vts_reward_expectancy_bt,2022.2.4,MacIntel,66.66666667,Safari,820,1180,,,,,10,1017,,,,,,,,,,,,,,,,,F,174,star,1,0,,,,,,,,,,,,,,,,switch,number,numSwt,k,0.668,Hi,,,,,,2,,,,,,,,low,19,0,19,0,1,,,,,
295570,2022-12-03_00h22.44.931,vts_reward_expectancy_bt,2022.2.4,MacIntel,66.66666667,Safari,820,1180,,,,,10,1027,,,,,,,,,,,,,,,,,S,146,hexagon,1,0,,,,,,,,,,,,,,,,repeat,number,numRpt,j,0.673,Lo,,,,,,2,,,,,,,,low,20,0,20,0,1,,,,,
295570,2022-12-03_00h22.44.931,vts_reward_expectancy_bt,2022.2.4,MacIntel,66.66666667,Safari,820,1180,,,,,10,1037,,,,,,,,,,,,,,,,,B,160,star,1,0,,,,,,,,,,,,,,,,repeat,number,numRpt,k,0.58,Hi,,,,,,2,,,,,,,,low,21,0,21,0,1,,,,,
295570,2022-12-03_00h22.44.931,vts_reward_expectancy_bt,2022.2.4,MacIntel,66.66666667,Safari,820,1180,,,,,1,1038,,,,,,,,,,,,,,,,,Y,139,circle,1,0,,,,,,,,,,,,,,,,repeat,number,numRpt,j,0.448,Lo,,,,,,2,,,,,,,,low,22,0,22,0,1,,,,,
295570,2022-12-03_00h22.44.931,vts_reward_expectancy_bt,2022.2.4,MacIntel,66.66666667,Safari,820,1180,,,,,0,1038,,,,,,,,,,,,,,,,,D,132,triangle,1,0,,,,,,,,,,,,,,,,repeat,number,numRpt,j,0.91,Hi,,,,,,2,,,,,,,,low,23,0,23,0,1,,,,,
295570,2022-12-03_00h22.44.931,vts_reward_expectancy_bt,2022.2.4,MacIntel,66.66666667,Safari,820,1180,,,,,0,1038,,,,,,,,,,,,,,,,,F,167,triangle,1,0,,,,,,,,,,,,,,,,switch,letter,lettSwt,d,0.824,Hi,,,,,,2,,,,,,,,low,24,0,24,0,1,,,,,
295570,2022-12-03_00h22.44.931,vts_reward_expectancy_bt,2022.2.4,MacIntel,66.66666667,Safari,820,1180,,,,,10,1048,,,,,,,,,,,,,,,,,H,160,hexagon,1,0,,,,,,,,,,,,,,,,repeat,letter,lettRpt,d,0.725,Lo,,,,,,2,,,,,,,,low,25,0,25,0,1,,,,,
295570,2022-12-03_00h22.44.931,vts_reward_expectancy_bt,2022.2.4,MacIntel,66.66666667,Safari,820,1180,,,,,10,1058,,,,,,,,,,,,,,,,,D,132,star,1,0,,,,,,,,,,,,,,,,repeat,letter,lettRpt,d,0.648,Hi,,,,,,2,,,,,,,,low,26,0,26,0,1,,,,,
295570,2022-12-03_00h22.44.931,vts_reward_expectancy_bt,2022.2.4,MacIntel,66.66666667,Safari,820,1180,,,,,1,1059,,,,,,,,,,,,,,,,,W,181,circle,1,0,,,,,,,,,,,,,,,,repeat,letter,lettRpt,f,0.722,Lo,,,,,,2,,,,,,,,low,27,0,27,0,1,,,,,
295570,2022-12-03_00h22.44.931,vts_reward_expectancy_bt,2022.2.4,MacIntel,66.66666667,Safari,820,1180,,,,,0,1059,,,,,,,,,,,,,,,,,B,146,hexagon,0,0,,,,,,,,,,,,,,,,switch,number,NA,k,0.609,Lo,,,,,,2,,,,,,,,low,28,0,28,0,1,,,,,
295570,2022-12-03_00h22.44.931,vts_reward_expectancy_bt,2022.2.4,MacIntel,66.66666667,Safari,820,1180,,,,,0,1059,,,,,,,,,,,,,,,,,U,174,star,1,1,,,,,,,,,,,,,,,,repeat,number,numRpt,k,0.664,Hi,,,,,,2,,,,,,,,low,29,0,29,0,1,,,,,
295570,2022-12-03_00h22.44.931,vts_reward_expectancy_bt,2022.2.4,MacIntel,66.66666667,Safari,820,1180,,,,,1,1060,,,,,,,,,,,,,,,,,Y,139,circle,1,0,,,,,,,,,,,,,,,,repeat,number,numRpt,j,0.691,Lo,,,,,,2,,,,,,,,low,30,0,30,0,1,,,,,
295570,2022-12-03_00h22.44.931,vts_reward_expectancy_bt,2022.2.4,MacIntel,66.66666667,Safari,820,1180,,,,,10,1070,,,,,,,,,,,,,,,,,S,125,triangle,1,0,,,,,,,,,,,,,,,,repeat,number,numRpt,j,0.612,Hi,,,,,,2,,,,,,,,low,31,0,31,0,1,,,,,
295570,2022-12-03_00h22.44.931,vts_reward_expectancy_bt,2022.2.4,MacIntel,66.66666667,Safari,820,1180,,,,,0,1070,,,,,,,,,,,,,,,,,Y,125,hexagon,0,0,,,,,,,,,,,,,,,,repeat,number,NA,k,2.083,Hi,,,,,,3,,,,,,space,2.287,low,0,0,0,0,1,,,,,
295570,2022-12-03_00h22.44.931,vts_reward_expectancy_bt,2022.2.4,MacIntel,66.66666667,Safari,820,1180,,,,,10,1080,,,,,,,,,,,,,,,,,U,167,circle,1,1,,,,,,,,,,,,,,,,switch,letter,lettSwt,f,0.769,Lo,,,,,,3,,,,,,,,low,1,0,1,0,1,,,,,
295570,2022-12-03_00h22.44.931,vts_reward_expectancy_bt,2022.2.4,MacIntel,66.66666667,Safari,820,1180,,,,,0,1080,,,,,,,,,,,,,,,,,D,132,triangle,1,0,,,,,,,,,,,,,,,,repeat,letter,lettRpt,d,0.728,Hi,,,,,,3,,,,,,,,low,2,0,2,0,1,,,,,
295570,2022-12-03_00h22.44.931,vts_reward_expectancy_bt,2022.2.4,MacIntel,66.66666667,Safari,820,1180,,,,,10,1090,,,,,,,,,,,,,,,,,W,139,star,1,0,,,,,,,,,,,,,,,,repeat,letter,lettRpt,f,0.44,Hi,,,,,,3,,,,,,,,low,3,0,3,0,1,,,,,
295570,2022-12-03_00h22.44.931,vts_reward_expectancy_bt,2022.2.4,MacIntel,66.66666667,Safari,820,1180,,,,,0,1090,,,,,,,,,,,,,,,,,S,146,hexagon,0,0,,,,,,,,,,,,,,,,switch,number,NA,k,0.966,Hi,,,,,,3,,,,,,,,low,4,0,4,0,1,,,,,
295570,2022-12-03_00h22.44.931,vts_reward_expectancy_bt,2022.2.4,MacIntel,66.66666667,Safari,820,1180,,,,,1,1091,,,,,,,,,,,,,,,,,F,160,circle,1,1,,,,,,,,,,,,,,,,repeat,number,numRpt,k,0.64,Lo,,,,,,3,,,,,,,,low,5,0,5,0,1,,,,,
295570,2022-12-03_00h22.44.931,vts_reward_expectancy_bt,2022.2.4,MacIntel,66.66666667,Safari,820,1180,,,,,0,1091,,,,,,,,,,,,,,,,,B,181,triangle,1,0,,,,,,,,,,,,,,,,repeat,number,numRpt,k,0.597,Hi,,,,,,3,,,,,,,,low,6,0,6,0,1,,,,,
295570,2022-12-03_00h22.44.931,vts_reward_expectancy_bt,2022.2.4,MacIntel,66.66666667,Safari,820,1180,,,,,0,1091,,,,,,,,,,,,,,,,,H,174,star,1,0,,,,,,,,,,,,,,,,switch,letter,lettSwt,d,0.942,Hi,,,,,,3,,,,,,,,low,7,0,7,0,1,,,,,
295570,2022-12-03_00h22.44.931,vts_reward_expectancy_bt,2022.2.4,MacIntel,66.66666667,Safari,820,1180,,,,,1,1092,,,,,,,,,,,,,,,,,Y,125,circle,1,0,,,,,,,,,,,,,,,,repeat,letter,lettRpt,f,0.595,Lo,,,,,,3,,,,,,,,low,8,0,8,0,1,,,,,
295570,2022-12-03_00h22.44.931,vts_reward_expectancy_bt,2022.2.4,MacIntel,66.66666667,Safari,820,1180,,,,,1,1093,,,,,,,,,,,,,,,,,U,167,hexagon,1,0,,,,,,,,,,,,,,,,repeat,letter,lettRpt,f,0.838,Lo,,,,,,3,,,,,,,,low,9,0,9,0,1,,,,,
295570,2022-12-03_00h22.44.931,vts_reward_expectancy_bt,2022.2.4,MacIntel,66.66666667,Safari,820,1180,,,,,0,1093,,,,,,,,,,,,,,,,,D,132,star,1,0,,,,,,,,,,,,,,,,switch,number,numSwt,j,0.732,Hi,,,,,,3,,,,,,,,low,10,0,10,0,1,,,,,
295570,2022-12-03_00h22.44.931,vts_reward_expectancy_bt,2022.2.4,MacIntel,66.66666667,Safari,820,1180,,,,,1,1094,,,,,,,,,,,,,,,,,W,139,triangle,1,0,,,,,,,,,,,,,,,,repeat,number,numRpt,j,0.556,Hi,,,,,,3,,,,,,,,low,11,0,11,0,1,,,,,
295570,2022-12-03_00h22.44.931,vts_reward_expectancy_bt,2022.2.4,MacIntel,66.66666667,Safari,820,1180,,,,,10,1104,,,,,,,,,,,,,,,,,S,146,star,1,0,,,,,,,,,,,,,,,,repeat,number,numRpt,j,0.455,Hi,,,,,,3,,,,,,,,low,12,0,12,0,1,,,,,
295570,2022-12-03_00h22.44.931,vts_reward_expectancy_bt,2022.2.4,MacIntel,66.66666667,Safari,820,1180,,,,,1,1105,,,,,,,,,,,,,,,,,F,160,hexagon,1,0,,,,,,,,,,,,,,,,repeat,number,numRpt,k,0.561,Lo,,,,,,3,,,,,,,,low,13,0,13,0,1,,,,,
295570,2022-12-03_00h22.44.931,vts_reward_expectancy_bt,2022.2.4,MacIntel,66.66666667,Safari,820,1180,,,,,0,1105,,,,,,,,,,,,,,,,,B,181,circle,0,0,,,,,,,,,,,,,,,,repeat,number,NA,j,0.617,Lo,,,,,,3,,,,,,,,low,14,0,14,0,1,,,,,
295570,2022-12-03_00h22.44.931,vts_reward_expectancy_bt,2022.2.4,MacIntel,66.66666667,Safari,820,1180,,,,,0,1105,,,,,,,,,,,,,,,,,H,174,triangle,0,1,,,,,,,,,,,,,,,,switch,letter,NA,f,0.859,Lo,,,,,,3,,,,,,,,low,15,0,15,0,1,,,,,
295570,2022-12-03_00h22.44.931,vts_reward_expectancy_bt,2022.2.4,MacIntel,66.66666667,Safari,820,1180,,,,,10,1115,,,,,,,,,,,,,,,,,B,181,circle,1,1,,,,,,,,,,,,,,,,repeat,letter,lettRpt,d,0.785,Lo,,,,,,3,,,,,,,,low,16,0,16,0,1,,,,,
295570,2022-12-03_00h22.44.931,vts_reward_expectancy_bt,2022.2.4,MacIntel,66.66666667,Safari,820,1180,,,,,1,1116,,,,,,,,,,,,,,,,,D,160,triangle,1,0,,,,,,,,,,,,,,,,repeat,letter,lettRpt,d,0.491,Hi,,,,,,3,,,,,,,,low,17,0,17,0,1,,,,,
295570,2022-12-03_00h22.44.931,vts_reward_expectancy_bt,2022.2.4,MacIntel,66.66666667,Safari,820,1180,,,,,1,1117,,,,,,,,,,,,,,,,,Y,139,hexagon,1,0,,,,,,,,,,,,,,,,repeat,letter,lettRpt,f,0.752,Lo,,,,,,3,,,,,,,,low,18,0,18,0,1,,,,,
295570,2022-12-03_00h22.44.931,vts_reward_expectancy_bt,2022.2.4,MacIntel,66.66666667,Safari,820,1180,,,,,0,1117,,,,,,,,,,,,,,,,,F,132,star,0,0,,,,,,,,,,,,,,,,repeat,letter,NA,f,0.642,Lo,,,,,,3,,,,,,,,low,19,0,19,0,1,,,,,
295570,2022-12-03_00h22.44.931,vts_reward_expectancy_bt,2022.2.4,MacIntel,66.66666667,Safari,820,1180,,,,,10,1127,,,,,,,,,,,,,,,,,W,125,triangle,1,1,,,,,,,,,,,,,,,,switch,number,numSwt,j,0.689,Hi,,,,,,3,,,,,,,,low,20,0,20,0,1,,,,,
295570,2022-12-03_00h22.44.931,vts_reward_expectancy_bt,2022.2.4,MacIntel,66.66666667,Safari,820,1180,,,,,10,1137,,,,,,,,,,,,,,,,,S,174,hexagon,1,0,,,,,,,,,,,,,,,,repeat,number,numRpt,k,0.849,Lo,,,,,,3,,,,,,,,low,21,0,21,0,1,,,,,
295570,2022-12-03_00h22.44.931,vts_reward_expectancy_bt,2022.2.4,MacIntel,66.66666667,Safari,820,1180,,,,,10,1147,,,,,,,,,,,,,,,,,U,146,star,1,0,,,,,,,,,,,,,,,,repeat,number,numRpt,j,0.505,Hi,,,,,,3,,,,,,,,low,22,0,22,0,1,,,,,
295570,2022-12-03_00h22.44.931,vts_reward_expectancy_bt,2022.2.4,MacIntel,66.66666667,Safari,820,1180,,,,,1,1148,,,,,,,,,,,,,,,,,H,167,circle,1,0,,,,,,,,,,,,,,,,repeat,number,numRpt,k,0.562,Lo,,,,,,3,,,,,,,,low,23,0,23,0,1,,,,,
295570,2022-12-03_00h22.44.931,vts_reward_expectancy_bt,2022.2.4,MacIntel,66.66666667,Safari,820,1180,,,,,10,1158,,,,,,,,,,,,,,,,,F,174,hexagon,1,0,,,,,,,,,,,,,,,,repeat,number,numRpt,k,0.856,Lo,,,,,,3,,,,,,,,low,24,0,24,0,1,,,,,
295570,2022-12-03_00h22.44.931,vts_reward_expectancy_bt,2022.2.4,MacIntel,66.66666667,Safari,820,1180,,,,,10,1168,,,,,,,,,,,,,,,,,B,146,triangle,1,0,,,,,,,,,,,,,,,,repeat,number,numRpt,j,0.548,Hi,,,,,,3,,,,,,,,low,25,0,25,0,1,,,,,
295570,2022-12-03_00h22.44.931,vts_reward_expectancy_bt,2022.2.4,MacIntel,66.66666667,Safari,820,1180,,,,,10,1178,,,,,,,,,,,,,,,,,U,125,circle,1,0,,,,,,,,,,,,,,,,switch,letter,lettSwt,f,0.61,Lo,,,,,,3,,,,,,,,low,26,0,26,0,1,,,,,
295570,2022-12-03_00h22.44.931,vts_reward_expectancy_bt,2022.2.4,MacIntel,66.66666667,Safari,820,1180,,,,,1,1179,,,,,,,,,,,,,,,,,Y,167,star,1,0,,,,,,,,,,,,,,,,repeat,letter,lettRpt,f,0.551,Hi,,,,,,3,,,,,,,,low,27,0,27,0,1,,,,,
295570,2022-12-03_00h22.44.931,vts_reward_expectancy_bt,2022.2.4,MacIntel,66.66666667,Safari,820,1180,,,,,0,1179,,,,,,,,,,,,,,,,,W,181,triangle,1,0,,,,,,,,,,,,,,,,repeat,letter,lettRpt,f,0.799,Hi,,,,,,3,,,,,,,,low,28,0,28,0,1,,,,,
295570,2022-12-03_00h22.44.931,vts_reward_expectancy_bt,2022.2.4,MacIntel,66.66666667,Safari,820,1180,,,,,10,1189,,,,,,,,,,,,,,,,,S,132,circle,1,0,,,,,,,,,,,,,,,,repeat,letter,lettRpt,f,0.759,Lo,,,,,,3,,,,,,,,low,29,0,29,0,1,,,,,
295570,2022-12-03_00h22.44.931,vts_reward_expectancy_bt,2022.2.4,MacIntel,66.66666667,Safari,820,1180,,,,,1,1190,,,,,,,,,,,,,,,,,D,139,hexagon,1,0,,,,,,,,,,,,,,,,repeat,letter,lettRpt,d,0.635,Lo,,,,,,3,,,,,,,,low,30,0,30,0,1,,,,,
295570,2022-12-03_00h22.44.931,vts_reward_expectancy_bt,2022.2.4,MacIntel,66.66666667,Safari,820,1180,,,,,0,1190,,,,,,,,,,,,,,,,,H,160,star,0,0,,,,,,,,,,,,,,,,repeat,letter,NA,f,0.591,Lo,,,,,,3,,,,,,,,low,31,0,31,0,1,,,,,
295570,2022-12-03_00h22.44.931,vts_reward_expectancy_bt,2022.2.4,MacIntel,66.66666667,Safari,820,1180,,,,,0,1190,,,,,,,,,,,,,,,,,D,146,triangle,1,1,,,,,,,,,,,,,,,,repeat,letter,lettRpt,d,1.05,Hi,,,,,,4,,,,,,space,2.167,low,0,0,0,0,1,,,,,
295570,2022-12-03_00h22.44.931,vts_reward_expectancy_bt,2022.2.4,MacIntel,66.66666667,Safari,820,1180,,,,,0,1190,,,,,,,,,,,,,,,,,U,167,star,1,0,,,,,,,,,,,,,,,,repeat,letter,lettRpt,f,0.63,Hi,,,,,,4,,,,,,,,low,1,0,1,0,1,,,,,
295570,2022-12-03_00h22.44.931,vts_reward_expectancy_bt,2022.2.4,MacIntel,66.66666667,Safari,820,1180,,,,,1,1191,,,,,,,,,,,,,,,,,B,139,hexagon,1,0,,,,,,,,,,,,,,,,switch,number,numSwt,j,0.587,Lo,,,,,,4,,,,,,,,low,2,0,2,0,1,,,,,
295570,2022-12-03_00h22.44.931,vts_reward_expectancy_bt,2022.2.4,MacIntel,66.66666667,Safari,820,1180,,,,,1,1192,,,,,,,,,,,,,,,,,Y,160,circle,1,0,,,,,,,,,,,,,,,,repeat,number,numRpt,k,0.628,Lo,,,,,,4,,,,,,,,low,3,0,3,0,1,,,,,
295570,2022-12-03_00h22.44.931,vts_reward_expectancy_bt,2022.2.4,MacIntel,66.66666667,Safari,820,1180,,,,,0,1192,,,,,,,,,,,,,,,,,S,181,triangle,1,0,,,,,,,,,,,,,,,,repeat,number,numRpt,k,0.687,Hi,,,,,,4,,,,,,,,low,4,0,4,0,1,,,,,
295570,2022-12-03_00h22.44.931,vts_reward_expectancy_bt,2022.2.4,MacIntel,66.66666667,Safari,820,1180,,,,,10,1202,,,,,,,,,,,,,,,,,F,132,star,1,0,,,,,,,,,,,,,,,,repeat,number,numRpt,j,0.54,Hi,,,,,,4,,,,,,,,low,5,0,5,0,1,,,,,
295570,2022-12-03_00h22.44.931,vts_reward_expectancy_bt,2022.2.4,MacIntel,66.66666667,Safari,820,1180,,,,,1,1203,,,,,,,,,,,,,,,,,H,174,hexagon,1,0,,,,,,,,,,,,,,,,repeat,number,numRpt,k,0.835,Lo,,,,,,4,,,,,,,,low,6,0,6,0,1,,,,,
295570,2022-12-03_00h22.44.931,vts_reward_expectancy_bt,2022.2.4,MacIntel,66.66666667,Safari,820,1180,,,,,1,1204,,,,,,,,,,,,,,,,,W,125,circle,1,0,,,,,,,,,,,,,,,,repeat,number,numRpt,j,0.595,Lo,,,,,,4,,,,,,,,low,7,0,7,0,1,,,,,
295570,2022-12-03_00h22.44.931,vts_reward_expectancy_bt,2022.2.4,MacIntel,66.66666667,Safari,820,1180,,,,,10,1214,,,,,,,,,,,,,,,,,D,146,circle,1,0,,,,,,,,,,,,,,,,repeat,number,numRpt,j,0.722,Lo,,,,,,4,,,,,,,,low,8,0,8,0,1,,,,,
295570,2022-12-03_00h22.44.931,vts_reward_expectancy_bt,2022.2.4,MacIntel,66.66666667,Safari,820,1180,,,,,1,1215,,,,,,,,,,,,,,,,,U,167,hexagon,1,0,,,,,,,,,,,,,,,,repeat,number,numRpt,k,0.661,Lo,,,,,,4,,,,,,,,low,9,0,9,0,1,,,,,
295570,2022-12-03_00h22.44.931,vts_reward_expectancy_bt,2022.2.4,MacIntel,66.66666667,Safari,820,1180,,,,,0,1215,,,,,,,,,,,,,,,,,B,139,triangle,1,0,,,,,,,,,,,,,,,,repeat,number,numRpt,j,0.874,Hi,,,,,,4,,,,,,,,low,10,0,10,0,1,,,,,
295570,2022-12-03_00h22.44.931,vts_reward_expectancy_bt,2022.2.4,MacIntel,66.66666667,Safari,820,1180,,,,,0,1215,,,,,,,,,,,,,,,,,Y,160,star,1,0,,,,,,,,,,,,,,,,switch,letter,lettSwt,f,0.835,Hi,,,,,,4,,,,,,,,low,11,0,11,0,1,,,,,
295570,2022-12-03_00h22.44.931,vts_reward_expectancy_bt,2022.2.4,MacIntel,66.66666667,Safari,820,1180,,,,,0,1215,,,,,,,,,,,,,,,,,S,181,triangle,0,0,,,,,,,,,,,,,,,,repeat,letter,NA,d,0.642,Hi,,,,,,4,,,,,,,,low,12,0,12,0,1,,,,,
295570,2022-12-03_00h22.44.931,vts_reward_expectancy_bt,2022.2.4,MacIntel,66.66666667,Safari,820,1180,,,,,10,1225,,,,,,,,,,,,,,,,,F,132,circle,1,1,,,,,,,,,,,,,,,,repeat,letter,lettRpt,d,0.621,Lo,,,,,,4,,,,,,,,low,13,0,13,0,1,,,,,
295570,2022-12-03_00h22.44.931,vts_reward_expectancy_bt,2022.2.4,MacIntel,66.66666667,Safari,820,1180,,,,,0,1225,,,,,,,,,,,,,,,,,H,174,star,1,0,,,,,,,,,,,,,,,,repeat,letter,lettRpt,d,0.73,Hi,,,,,,4,,,,,,,,low,14,0,14,0,1,,,,,
295570,2022-12-03_00h22.44.931,vts_reward_expectancy_bt,2022.2.4,MacIntel,66.66666667,Safari,820,1180,,,,,1,1226,,,,,,,,,,,,,,,,,W,125,hexagon,1,0,,,,,,,,,,,,,,,,repeat,letter,lettRpt,f,0.689,Lo,,,,,,4,,,,,,,,low,15,0,15,0,1,,,,,
295570,2022-12-03_00h22.44.931,vts_reward_expectancy_bt,2022.2.4,MacIntel,66.66666667,Safari,820,1180,,,,,10,1236,,,,,,,,,,,,,,,,,Y,174,hexagon,1,0,,,,,,,,,,,,,,,,repeat,letter,lettRpt,f,0.784,Lo,,,,,,4,,,,,,,,low,16,0,16,0,1,,,,,
295570,2022-12-03_00h22.44.931,vts_reward_expectancy_bt,2022.2.4,MacIntel,66.66666667,Safari,820,1180,,,,,1,1237,,,,,,,,,,,,,,,,,W,139,circle,1,0,,,,,,,,,,,,,,,,switch,number,numSwt,j,0.682,Lo,,,,,,4,,,,,,,,low,17,0,17,0,1,,,,,
295570,2022-12-03_00h22.44.931,vts_reward_expectancy_bt,2022.2.4,MacIntel,66.66666667,Safari,820,1180,,,,,0,1237,,,,,,,,,,,,,,,,,D,167,triangle,0,0,,,,,,,,,,,,,,,,repeat,number,NA,j,0.418,Lo,,,,,,4,,,,,,,,low,18,0,18,0,1,,,,,
295570,2022-12-03_00h22.44.931,vts_reward_expectancy_bt,2022.2.4,MacIntel,66.66666667,Safari,820,1180,,,,,0,1237,,,,,,,,,,,,,,,,,F,146,star,1,1,,,,,,,,,,,,,,,,repeat,number,numRpt,j,0.625,Hi,,,,,,4,,,,,,,,low,19,0,19,0,1,,,,,
295570,2022-12-03_00h22.44.931,vts_reward_expectancy_bt,2022.2.4,MacIntel,66.66666667,Safari,820,1180,,,,,1,1238,,,,,,,,,,,,,,,,,B,181,circle,1,0,,,,,,,,,,,,,,,,repeat,number,numRpt,k,0.583,Lo,,,,,,4,,,,,,,,low,20,0,20,0,1,,,,,
295570,2022-12-03_00h22.44.931,vts_reward_expectancy_bt,2022.2.4,MacIntel,66.66666667,Safari,820,1180,,,,,1,1239,,,,,,,,,,,,,,,,,H,125,hexagon,1,0,,,,,,,,,,,,,,,,repeat,number,numRpt,j,0.623,Lo,,,,,,4,,,,,,,,low,21,0,21,0,1,,,,,
295570,2022-12-03_00h22.44.931,vts_reward_expectancy_bt,2022.2.4,MacIntel,66.66666667,Safari,820,1180,,,,,0,1239,,,,,,,,,,,,,,,,,U,132,triangle,1,0,,,,,,,,,,,,,,,,repeat,number,numRpt,j,0.615,Hi,,,,,,4,,,,,,,,low,22,0,22,0,1,,,,,
295570,2022-12-03_00h22.44.931,vts_reward_expectancy_bt,2022.2.4,MacIntel,66.66666667,Safari,820,1180,,,,,0,1239,,,,,,,,,,,,,,,,,S,160,star,1,0,,,,,,,,,,,,,,,,repeat,number,numRpt,k,0.636,Hi,,,,,,4,,,,,,,,low,23,0,23,0,1,,,,,
295570,2022-12-03_00h22.44.931,vts_reward_expectancy_bt,2022.2.4,MacIntel,66.66666667,Safari,820,1180,,,,,10,1249,,,,,,,,,,,,,,,,,S,146,triangle,1,0,,,,,,,,,,,,,,,,switch,letter,lettSwt,f,0.597,Hi,,,,,,4,,,,,,,,low,24,0,24,0,1,,,,,
295570,2022-12-03_00h22.44.931,vts_reward_expectancy_bt,2022.2.4,MacIntel,66.66666667,Safari,820,1180,,,,,0,1249,,,,,,,,,,,,,,,,,W,125,star,1,0,,,,,,,,,,,,,,,,repeat,letter,lettRpt,f,0.656,Hi,,,,,,4,,,,,,,,low,25,0,25,0,1,,,,,
295570,2022-12-03_00h22.44.931,vts_reward_expectancy_bt,2022.2.4,MacIntel,66.66666667,Safari,820,1180,,,,,1,1250,,,,,,,,,,,,,,,,,H,174,circle,1,0,,,,,,,,,,,,,,,,repeat,letter,lettRpt,d,0.526,Lo,,,,,,4,,,,,,,,low,26,0,26,0,1,,,,,
295570,2022-12-03_00h22.44.931,vts_reward_expectancy_bt,2022.2.4,MacIntel,66.66666667,Safari,820,1180,,,,,10,1260,,,,,,,,,,,,,,,,,B,160,hexagon,1,0,,,,,,,,,,,,,,,,switch,number,numSwt,k,0.5,Lo,,,,,,4,,,,,,,,low,27,0,27,0,1,,,,,
295570,2022-12-03_00h22.44.931,vts_reward_expectancy_bt,2022.2.4,MacIntel,66.66666667,Safari,820,1180,,,,,0,1260,,,,,,,,,,,,,,,,,U,181,triangle,1,0,,,,,,,,,,,,,,,,repeat,number,numRpt,k,0.691,Hi,,,,,,4,,,,,,,,low,28,0,28,0,1,,,,,
295570,2022-12-03_00h22.44.931,vts_reward_expectancy_bt,2022.2.4,MacIntel,66.66666667,Safari,820,1180,,,,,0,1260,,,,,,,,,,,,,,,,,D,139,star,1,0,,,,,,,,,,,,,,,,repeat,number,numRpt,j,0.787,Hi,,,,,,4,,,,,,,,low,29,0,29,0,1,,,,,
295570,2022-12-03_00h22.44.931,vts_reward_expectancy_bt,2022.2.4,MacIntel,66.66666667,Safari,820,1180,,,,,1,1261,,,,,,,,,,,,,,,,,F,167,circle,1,0,,,,,,,,,,,,,,,,repeat,number,numRpt,k,1.122,Lo,,,,,,4,,,,,,,,low,30,0,30,0,1,,,,,
295570,2022-12-03_00h22.44.931,vts_reward_expectancy_bt,2022.2.4,MacIntel,66.66666667,Safari,820,1180,,,,,1,1262,,,,,,,,,,,,,,,,,Y,132,hexagon,1,0,,,,,,,,,,,,,,,,switch,letter,lettSwt,f,0.544,Lo,,,,,,4,,,,,,,,low,31,0,31,0,1,,,,,
295570,2022-12-03_00h22.44.931,vts_reward_expectancy_bt,2022.2.4,MacIntel,66.66666667,Safari,820,1180,,,,,1,1263,,,,,,,,,,,,,,,,,U,146,hexagon,1,0,,,,,,,,,,,,,,,,repeat,letter,lettRpt,f,0.972,Lo,,,,,,5,,,,,,space,1.615,low,0,0,0,0,1,,,,,
295570,2022-12-03_00h22.44.931,vts_reward_expectancy_bt,2022.2.4,MacIntel,66.66666667,Safari,820,1180,,,,,10,1273,,,,,,,,,,,,,,,,,B,174,star,1,0,,,,,,,,,,,,,,,,repeat,letter,lettRpt,d,0.561,Hi,,,,,,5,,,,,,,,low,1,0,1,0,1,,,,,
295570,2022-12-03_00h22.44.931,vts_reward_expectancy_bt,2022.2.4,MacIntel,66.66666667,Safari,820,1180,,,,,0,1273,,,,,,,,,,,,,,,,,D,132,circle,0,0,,,,,,,,,,,,,,,,repeat,letter,NA,f,0.567,Hi,,,,,,5,,,,,,,,low,2,0,2,0,1,,,,,
295570,2022-12-03_00h22.44.931,vts_reward_expectancy_bt,2022.2.4,MacIntel,66.66666667,Safari,820,1180,,,,,0,1273,,,,,,,,,,,,,,,,,Y,125,triangle,0,1,,,,,,,,,,,,,,,,switch,number,NA,k,0.639,Hi,,,,,,5,,,,,,,,low,3,0,3,0,1,,,,,
295570,2022-12-03_00h22.44.931,vts_reward_expectancy_bt,2022.2.4,MacIntel,66.66666667,Safari,820,1180,,,,,1,1274,,,,,,,,,,,,,,,,,W,181,hexagon,1,1,,,,,,,,,,,,,,,,repeat,number,numRpt,k,0.565,Lo,,,,,,5,,,,,,,,low,4,0,4,0,1,,,,,
295570,2022-12-03_00h22.44.931,vts_reward_expectancy_bt,2022.2.4,MacIntel,66.66666667,Safari,820,1180,,,,,0,1274,,,,,,,,,,,,,,,,,F,139,star,1,0,,,,,,,,,,,,,,,,repeat,number,numRpt,j,0.808,Hi,,,,,,5,,,,,,,,low,5,0,5,0,1,,,,,
295570,2022-12-03_00h22.44.931,vts_reward_expectancy_bt,2022.2.4,MacIntel,66.66666667,Safari,820,1180,,,,,0,1274,,,,,,,,,,,,,,,,,H,160,circle,0,0,,,,,,,,,,,,,,,,repeat,number,NA,j,0.745,Hi,,,,,,5,,,,,,,,low,6,0,6,0,1,,,,,
295570,2022-12-03_00h22.44.931,vts_reward_expectancy_bt,2022.2.4,MacIntel,66.66666667,Safari,820,1180,,,,,0,1274,,,,,,,,,,,,,,,,,S,167,triangle,1,1,,,,,,,,,,,,,,,,repeat,number,numRpt,k,0.755,Hi,,,,,,5,,,,,,,,low,7,0,7,0,1,,,,,
295570,2022-12-03_00h22.44.931,vts_reward_expectancy_bt,2022.2.4,MacIntel,66.66666667,Safari,820,1180,,,,,10,1284,,,,,,,,,,,,,,,,,U,146,circle,1,0,,,,,,,,,,,,,,,,switch,letter,lettSwt,f,0.579,Lo,,,,,,5,,,,,,,,low,8,0,8,0,1,,,,,
295570,2022-12-03_00h22.44.931,vts_reward_expectancy_bt,2022.2.4,MacIntel,66.66666667,Safari,820,1180,,,,,10,1294,,,,,,,,,,,,,,,,,B,174,triangle,1,0,,,,,,,,,,,,,,,,repeat,letter,lettRpt,d,0.466,Hi,,,,,,5,,,,,,,,low,9,0,9,0,1,,,,,
295570,2022-12-03_00h22.44.931,vts_reward_expectancy_bt,2022.2.4,MacIntel,66.66666667,Safari,820,1180,,,,,0,1294,,,,,,,,,,,,,,,,,D,132,star,1,0,,,,,,,,,,,,,,,,repeat,letter,lettRpt,d,0.86,Hi,,,,,,5,,,,,,,,low,10,0,10,0,1,,,,,
295570,2022-12-03_00h22.44.931,vts_reward_expectancy_bt,2022.2.4,MacIntel,66.66666667,Safari,820,1180,,,,,10,1304,,,,,,,,,,,,,,,,,Y,125,hexagon,1,0,,,,,,,,,,,,,,,,repeat,letter,lettRpt,f,0.889,Lo,,,,,,5,,,,,,,,low,11,0,11,0,1,,,,,
295570,2022-12-03_00h22.44.931,vts_reward_expectancy_bt,2022.2.4,MacIntel,66.66666667,Safari,820,1180,,,,,0,1304,,,,,,,,,,,,,,,,,W,181,triangle,0,0,,,,,,,,,,,,,,,,switch,number,NA,j,0.627,Lo,,,,,,5,,,,,,,,low,12,0,12,0,1,,,,,
295570,2022-12-03_00h22.44.931,vts_reward_expectancy_bt,2022.2.4,MacIntel,66.66666667,Safari,820,1180,,,,,1,1305,,,,,,,,,,,,,,,,,F,139,star,1,1,,,,,,,,,,,,,,,,repeat,number,numRpt,j,0.048,Hi,,,,,,5,,,,,,,,low,13,0,13,0,1,,,,,
295570,2022-12-03_00h22.44.931,vts_reward_expectancy_bt,2022.2.4,MacIntel,66.66666667,Safari,820,1180,,,,,10,1315,,,,,,,,,,,,,,,,,H,160,circle,1,0,,,,,,,,,,,,,,,,repeat,number,numRpt,k,0.455,Lo,,,,,,5,,,,,,,,low,14,0,14,0,1,,,,,
295570,2022-12-03_00h22.44.931,vts_reward_expectancy_bt,2022.2.4,MacIntel,66.66666667,Safari,820,1180,,,,,1,1316,,,,,,,,,,,,,,,,,S,167,hexagon,1,0,,,,,,,,,,,,,,,,repeat,number,numRpt,k,0.628,Lo,,,,,,5,,,,,,,,low,15,0,15,0,1,,,,,
295570,2022-12-03_00h22.44.931,vts_reward_expectancy_bt,2022.2.4,MacIntel,66.66666667,Safari,820,1180,,,,,0,1316,,,,,,,,,,,,,,,,,U,160,triangle,1,0,,,,,,,,,,,,,,,,switch,letter,lettSwt,f,0.579,Hi,,,,,,5,,,,,,,,low,16,0,16,0,1,,,,,
295570,2022-12-03_00h22.44.931,vts_reward_expectancy_bt,2022.2.4,MacIntel,66.66666667,Safari,820,1180,,,,,1,1317,,,,,,,,,,,,,,,,,Y,139,star,1,0,,,,,,,,,,,,,,,,repeat,letter,lettRpt,f,0.601,Hi,,,,,,5,,,,,,,,low,17,0,17,0,1,,,,,
295570,2022-12-03_00h22.44.931,vts_reward_expectancy_bt,2022.2.4,MacIntel,66.66666667,Safari,820,1180,,,,,0,1317,,,,,,,,,,,,,,,,,D,167,circle,0,0,,,,,,,,,,,,,,,,repeat,letter,NA,f,0.534,Hi,,,,,,5,,,,,,,,low,18,0,18,0,1,,,,,
295570,2022-12-03_00h22.44.931,vts_reward_expectancy_bt,2022.2.4,MacIntel,66.66666667,Safari,820,1180,,,,,1,1318,,,,,,,,,,,,,,,,,B,181,hexagon,1,1,,,,,,,,,,,,,,,,repeat,letter,lettRpt,d,0.626,Lo,,,,,,5,,,,,,,,low,19,0,19,0,1,,,,,
295570,2022-12-03_00h22.44.931,vts_reward_expectancy_bt,2022.2.4,MacIntel,66.66666667,Safari,820,1180,,,,,0,1318,,,,,,,,,,,,,,,,,F,132,triangle,1,0,,,,,,,,,,,,,,,,repeat,letter,lettRpt,d,0.831,Hi,,,,,,5,,,,,,,,low,20,0,20,0,1,,,,,
295570,2022-12-03_00h22.44.931,vts_reward_expectancy_bt,2022.2.4,MacIntel,66.66666667,Safari,820,1180,,,,,10,1328,,,,,,,,,,,,,,,,,S,146,hexagon,1,0,,,,,,,,,,,,,,,,switch,number,numSwt,j,0.567,Lo,,,,,,5,,,,,,,,low,21,0,21,0,1,,,,,
295570,2022-12-03_00h22.44.931,vts_reward_expectancy_bt,2022.2.4,MacIntel,66.66666667,Safari,820,1180,,,,,1,1329,,,,,,,,,,,,,,,,,W,174,circle,1,0,,,,,,,,,,,,,,,,repeat,number,numRpt,k,0.606,Lo,,,,,,5,,,,,,,,low,22,0,22,0,1,,,,,
295570,2022-12-03_00h22.44.931,vts_reward_expectancy_bt,2022.2.4,MacIntel,66.66666667,Safari,820,1180,,,,,0,1329,,,,,,,,,,,,,,,,,H,125,star,1,0,,,,,,,,,,,,,,,,repeat,number,numRpt,j,0.645,Hi,,,,,,5,,,,,,,,low,23,0,23,0,1,,,,,
295570,2022-12-03_00h22.44.931,vts_reward_expectancy_bt,2022.2.4,MacIntel,66.66666667,Safari,820,1180,,,,,10,1339,,,,,,,,,,,,,,,,,Y,132,hexagon,1,0,,,,,,,,,,,,,,,,repeat,number,numRpt,j,0.99,Lo,,,,,,5,,,,,,,,low,24,0,24,0,1,,,,,
295570,2022-12-03_00h22.44.931,vts_reward_expectancy_bt,2022.2.4,MacIntel,66.66666667,Safari,820,1180,,,,,0,1339,,,,,,,,,,,,,,,,,S,160,star,1,0,,,,,,,,,,,,,,,,repeat,number,numRpt,k,0.663,Hi,,,,,,5,,,,,,,,low,25,0,25,0,1,,,,,
