participant,date,expName,psychopyVersion,OS,frameRate,browser,xResolution,yResolution,key_resp.keys,key_resp.rt,training_resp.keys,training_resp.rt,points_trial,points_cumul,trainBlock,training.thisRepN,training.thisTrialN,training.thisN,training.thisIndex,training.ran,LTriangleOpac,LCircleOpac,LHexagonOpac,LStarOpac,RTriangleOpac,RCircleOpac,RHexagonOpac,RStarOpac,LShape_ID,RShape_ID,curr_topStim,curr_bottStim,curr_shape,acc,E1,target_resp_prac1.keys,pracBlock,task1_prac_trials.thisRepN,task1_prac_trials.thisTrialN,task1_prac_trials.thisN,task1_prac_trials.thisIndex,task1_prac_trials.ran,target_resp_prac1.rt,target_resp_prac2.keys,target_resp_prac2.rt,task2_praac_trials.thisRepN,task2_praac_trials.thisTrialN,task2_praac_trials.thisN,task2_praac_trials.thisIndex,task2_praac_trials.ran,alt,task,condition,target_resp.keys,target_resp.rt,rewCond,vts_practice_trials.thisRepN,vts_practice_trials.thisTrialN,vts_practice_trials.thisN,vts_practice_trials.thisIndex,vts_practice_trials.ran,blockNum,trials_norew.thisRepN,trials_norew.thisTrialN,trials_norew.thisN,trials_norew.thisIndex,trials_norew.ran,key_resp_2.keys,key_resp_2.rt,rewExpectancy,trials_rew.thisRepN,trials_rew.thisTrialN,trials_rew.thisN,trials_rew.thisIndex,trials_rew.ran,Q1,Q2,Q2_text,Q3,Q4,Q5_text,Q5,xRes,yRes
295603,2022-11-15_12h47.28.395,vts_reward_expectancy_bt,2022.2.4,MacIntel,59.99880002,Chrome,1440,900,,,,,,,,,,,,,,,,,,,,,,,,,,,,,,,,,,,,,,,,,,,,,,,,,,,,,,,,,,,,,,,,,,,,,,,,,,,,
295603,2022-11-15_12h47.28.395,vts_reward_expectancy_bt,2022.2.4,MacIntel,59.99880002,Chrome,1440,900,space,46.9174,,,,,,,,,,,,,,,,,,,,,,,,,,,,,,,,,,,,,,,,,,,,,,,,,,,,,,,,,,,,,,,,,,,,,,,,,,
295603,2022-11-15_12h47.28.395,vts_reward_expectancy_bt,2022.2.4,MacIntel,59.99880002,Chrome,1440,900,,,,,,,,,,,,,,,,,,,,,,,,,,,,,,,,,,,,,,,,,,,,,,,,,,,,,,,,,,,,,,,,,,,,,,,,,,,,
295603,2022-11-15_12h47.28.395,vts_reward_expectancy_bt,2022.2.4,MacIntel,59.99880002,Chrome,1440,900,,,a,1.8874,1,1,0,0,0,0,9,1,0,0,0,1,1,0,0,0,star,triangle,,,,,,,,,,,,,,,,,,,,,,,,,,,,,,,,,,,,,,,,,,,,,,,,,,,,,,
295603,2022-11-15_12h47.28.395,vts_reward_expectancy_bt,2022.2.4,MacIntel,59.99880002,Chrome,1440,900,,,a,1.9835,1,2,0,0,1,1,2,1,1,0,0,0,0,0,0,1,triangle,star,,,,,,,,,,,,,,,,,,,,,,,,,,,,,,,,,,,,,,,,,,,,,,,,,,,,,,
295603,2022-11-15_12h47.28.395,vts_reward_expectancy_bt,2022.2.4,MacIntel,59.99880002,Chrome,1440,900,,,l,1.3193,1,3,0,0,2,2,3,1,0,1,0,0,1,0,0,0,circle,triangle,,,,,,,,,,,,,,,,,,,,,,,,,,,,,,,,,,,,,,,,,,,,,,,,,,,,,,
295603,2022-11-15_12h47.28.395,vts_reward_expectancy_bt,2022.2.4,MacIntel,59.99880002,Chrome,1440,900,,,l,1.4507,10,13,0,0,3,3,10,1,0,0,0,1,0,1,0,0,star ,circle,,,,,,,,,,,,,,,,,,,,,,,,,,,,,,,,,,,,,,,,,,,,,,,,,,,,,,
295603,2022-11-15_12h47.28.395,vts_reward_expectancy_bt,2022.2.4,MacIntel,59.99880002,Chrome,1440,900,,,a,2.6026,1,14,0,0,4,4,1,1,1,0,0,0,0,0,1,0,triangle,hexagon,,,,,,,,,,,,,,,,,,,,,,,,,,,,,,,,,,,,,,,,,,,,,,,,,,,,,,
295603,2022-11-15_12h47.28.395,vts_reward_expectancy_bt,2022.2.4,MacIntel,59.99880002,Chrome,1440,900,,,l,0.8029,10,24,0,0,5,5,5,1,0,1,0,0,0,0,0,1,circle,star,,,,,,,,,,,,,,,,,,,,,,,,,,,,,,,,,,,,,,,,,,,,,,,,,,,,,,
295603,2022-11-15_12h47.28.395,vts_reward_expectancy_bt,2022.2.4,MacIntel,59.99880002,Chrome,1440,900,,,a,14.389,1,25,0,0,6,6,4,1,0,1,0,0,0,0,1,0,circle,hexagon,,,,,,,,,,,,,,,,,,,,,,,,,,,,,,,,,,,,,,,,,,,,,,,,,,,,,,
295603,2022-11-15_12h47.28.395,vts_reward_expectancy_bt,2022.2.4,MacIntel,59.99880002,Chrome,1440,900,,,a,5.0958,1,26,0,0,7,7,6,1,0,0,1,0,1,0,0,0,hexagon,triangle,,,,,,,,,,,,,,,,,,,,,,,,,,,,,,,,,,,,,,,,,,,,,,,,,,,,,,
295603,2022-11-15_12h47.28.395,vts_reward_expectancy_bt,2022.2.4,MacIntel,59.99880002,Chrome,1440,900,,,a,0.4044,1,27,0,0,8,8,11,1,0,0,0,1,0,0,1,0,star,hexagon,,,,,,,,,,,,,,,,,,,,,,,,,,,,,,,,,,,,,,,,,,,,,,,,,,,,,,
295603,2022-11-15_12h47.28.395,vts_reward_expectancy_bt,2022.2.4,MacIntel,59.99880002,Chrome,1440,900,,,l,0.2983,10,37,0,0,9,9,0,1,1,0,0,0,0,1,0,0,triangle,circle,,,,,,,,,,,,,,,,,,,,,,,,,,,,,,,,,,,,,,,,,,,,,,,,,,,,,,
295603,2022-11-15_12h47.28.395,vts_reward_expectancy_bt,2022.2.4,MacIntel,59.99880002,Chrome,1440,900,,,l,0.3048,10,47,0,0,10,10,8,1,0,0,1,0,0,0,0,1,hexagon,star,,,,,,,,,,,,,,,,,,,,,,,,,,,,,,,,,,,,,,,,,,,,,,,,,,,,,,
295603,2022-11-15_12h47.28.395,vts_reward_expectancy_bt,2022.2.4,MacIntel,59.99880002,Chrome,1440,900,,,l,0.3177,10,57,0,0,11,11,7,1,0,0,1,0,0,1,0,0,hexagon,circle,,,,,,,,,,,,,,,,,,,,,,,,,,,,,,,,,,,,,,,,,,,,,,,,,,,,,,
295603,2022-11-15_12h47.28.395,vts_reward_expectancy_bt,2022.2.4,MacIntel,59.99880002,Chrome,1440,900,,,a,0.9997,1,58,0,1,0,12,8,1,0,0,1,0,0,0,0,1,hexagon,star,,,,,,,,,,,,,,,,,,,,,,,,,,,,,,,,,,,,,,,,,,,,,,,,,,,,,,
295603,2022-11-15_12h47.28.395,vts_reward_expectancy_bt,2022.2.4,MacIntel,59.99880002,Chrome,1440,900,,,l,0.3002,10,68,0,1,1,13,10,1,0,0,0,1,0,1,0,0,star ,circle,,,,,,,,,,,,,,,,,,,,,,,,,,,,,,,,,,,,,,,,,,,,,,,,,,,,,,
295603,2022-11-15_12h47.28.395,vts_reward_expectancy_bt,2022.2.4,MacIntel,59.99880002,Chrome,1440,900,,,l,0.27,1,69,0,1,2,14,3,1,0,1,0,0,1,0,0,0,circle,triangle,,,,,,,,,,,,,,,,,,,,,,,,,,,,,,,,,,,,,,,,,,,,,,,,,,,,,,
295603,2022-11-15_12h47.28.395,vts_reward_expectancy_bt,2022.2.4,MacIntel,59.99880002,Chrome,1440,900,,,a,1.2204,1,70,0,1,3,15,0,1,1,0,0,0,0,1,0,0,triangle,circle,,,,,,,,,,,,,,,,,,,,,,,,,,,,,,,,,,,,,,,,,,,,,,,,,,,,,,
295603,2022-11-15_12h47.28.395,vts_reward_expectancy_bt,2022.2.4,MacIntel,59.99880002,Chrome,1440,900,,,a,0.2338,10,80,0,1,4,16,11,1,0,0,0,1,0,0,1,0,star,hexagon,,,,,,,,,,,,,,,,,,,,,,,,,,,,,,,,,,,,,,,,,,,,,,,,,,,,,,
295603,2022-11-15_12h47.28.395,vts_reward_expectancy_bt,2022.2.4,MacIntel,59.99880002,Chrome,1440,900,,,a,0.6071,10,90,0,1,5,17,5,1,0,1,0,0,0,0,0,1,circle,star,,,,,,,,,,,,,,,,,,,,,,,,,,,,,,,,,,,,,,,,,,,,,,,,,,,,,,
295603,2022-11-15_12h47.28.395,vts_reward_expectancy_bt,2022.2.4,MacIntel,59.99880002,Chrome,1440,900,,,a,0.6023,10,100,0,1,6,18,4,1,0,1,0,0,0,0,1,0,circle,hexagon,,,,,,,,,,,,,,,,,,,,,,,,,,,,,,,,,,,,,,,,,,,,,,,,,,,,,,
295603,2022-11-15_12h47.28.395,vts_reward_expectancy_bt,2022.2.4,MacIntel,59.99880002,Chrome,1440,900,,,l,0.2323,1,101,0,1,7,19,2,1,1,0,0,0,0,0,0,1,triangle,star,,,,,,,,,,,,,,,,,,,,,,,,,,,,,,,,,,,,,,,,,,,,,,,,,,,,,,
295603,2022-11-15_12h47.28.395,vts_reward_expectancy_bt,2022.2.4,MacIntel,59.99880002,Chrome,1440,900,,,l,0.3831,1,102,0,1,8,20,9,1,0,0,0,1,1,0,0,0,star,triangle,,,,,,,,,,,,,,,,,,,,,,,,,,,,,,,,,,,,,,,,,,,,,,,,,,,,,,
295603,2022-11-15_12h47.28.395,vts_reward_expectancy_bt,2022.2.4,MacIntel,59.99880002,Chrome,1440,900,,,a,1.8173,1,103,0,1,9,21,6,1,0,0,1,0,1,0,0,0,hexagon,triangle,,,,,,,,,,,,,,,,,,,,,,,,,,,,,,,,,,,,,,,,,,,,,,,,,,,,,,
295603,2022-11-15_12h47.28.395,vts_reward_expectancy_bt,2022.2.4,MacIntel,59.99880002,Chrome,1440,900,,,a,0.4515,1,104,0,1,10,22,7,1,0,0,1,0,0,1,0,0,hexagon,circle,,,,,,,,,,,,,,,,,,,,,,,,,,,,,,,,,,,,,,,,,,,,,,,,,,,,,,
295603,2022-11-15_12h47.28.395,vts_reward_expectancy_bt,2022.2.4,MacIntel,59.99880002,Chrome,1440,900,,,l,1.7335,1,105,0,1,11,23,1,1,1,0,0,0,0,0,1,0,triangle,hexagon,,,,,,,,,,,,,,,,,,,,,,,,,,,,,,,,,,,,,,,,,,,,,,,,,,,,,,
295603,2022-11-15_12h47.28.395,vts_reward_expectancy_bt,2022.2.4,MacIntel,59.99880002,Chrome,1440,900,,,l,0.3173,1,106,0,2,0,24,3,1,0,1,0,0,1,0,0,0,circle,triangle,,,,,,,,,,,,,,,,,,,,,,,,,,,,,,,,,,,,,,,,,,,,,,,,,,,,,,
295603,2022-11-15_12h47.28.395,vts_reward_expectancy_bt,2022.2.4,MacIntel,59.99880002,Chrome,1440,900,,,l,0.2211,10,116,0,2,1,25,10,1,0,0,0,1,0,1,0,0,star ,circle,,,,,,,,,,,,,,,,,,,,,,,,,,,,,,,,,,,,,,,,,,,,,,,,,,,,,,
295603,2022-11-15_12h47.28.395,vts_reward_expectancy_bt,2022.2.4,MacIntel,59.99880002,Chrome,1440,900,,,l,0.3353,1,117,0,2,2,26,11,1,0,0,0,1,0,0,1,0,star,hexagon,,,,,,,,,,,,,,,,,,,,,,,,,,,,,,,,,,,,,,,,,,,,,,,,,,,,,,
295603,2022-11-15_12h47.28.395,vts_reward_expectancy_bt,2022.2.4,MacIntel,59.99880002,Chrome,1440,900,,,a,0.2994,10,127,0,2,3,27,5,1,0,1,0,0,0,0,0,1,circle,star,,,,,,,,,,,,,,,,,,,,,,,,,,,,,,,,,,,,,,,,,,,,,,,,,,,,,,
295603,2022-11-15_12h47.28.395,vts_reward_expectancy_bt,2022.2.4,MacIntel,59.99880002,Chrome,1440,900,,,a,1.572,10,137,0,2,4,28,4,1,0,1,0,0,0,0,1,0,circle,hexagon,,,,,,,,,,,,,,,,,,,,,,,,,,,,,,,,,,,,,,,,,,,,,,,,,,,,,,
295603,2022-11-15_12h47.28.395,vts_reward_expectancy_bt,2022.2.4,MacIntel,59.99880002,Chrome,1440,900,,,a,0.388,1,138,0,2,5,29,6,1,0,0,1,0,1,0,0,0,hexagon,triangle,,,,,,,,,,,,,,,,,,,,,,,,,,,,,,,,,,,,,,,,,,,,,,,,,,,,,,
295603,2022-11-15_12h47.28.395,vts_reward_expectancy_bt,2022.2.4,MacIntel,59.99880002,Chrome,1440,900,,,l,0.5503,10,148,0,2,6,30,9,1,0,0,0,1,1,0,0,0,star,triangle,,,,,,,,,,,,,,,,,,,,,,,,,,,,,,,,,,,,,,,,,,,,,,,,,,,,,,
295603,2022-11-15_12h47.28.395,vts_reward_expectancy_bt,2022.2.4,MacIntel,59.99880002,Chrome,1440,900,,,l,0.4855,10,158,0,2,7,31,7,1,0,0,1,0,0,1,0,0,hexagon,circle,,,,,,,,,,,,,,,,,,,,,,,,,,,,,,,,,,,,,,,,,,,,,,,,,,,,,,
295603,2022-11-15_12h47.28.395,vts_reward_expectancy_bt,2022.2.4,MacIntel,59.99880002,Chrome,1440,900,,,a,1.2327,1,159,0,2,8,32,1,1,1,0,0,0,0,0,1,0,triangle,hexagon,,,,,,,,,,,,,,,,,,,,,,,,,,,,,,,,,,,,,,,,,,,,,,,,,,,,,,
295603,2022-11-15_12h47.28.395,vts_reward_expectancy_bt,2022.2.4,MacIntel,59.99880002,Chrome,1440,900,,,l,0.3356,1,160,0,2,9,33,2,1,1,0,0,0,0,0,0,1,triangle,star,,,,,,,,,,,,,,,,,,,,,,,,,,,,,,,,,,,,,,,,,,,,,,,,,,,,,,
295603,2022-11-15_12h47.28.395,vts_reward_expectancy_bt,2022.2.4,MacIntel,59.99880002,Chrome,1440,900,,,l,0.2503,10,170,0,2,10,34,8,1,0,0,1,0,0,0,0,1,hexagon,star,,,,,,,,,,,,,,,,,,,,,,,,,,,,,,,,,,,,,,,,,,,,,,,,,,,,,,
295603,2022-11-15_12h47.28.395,vts_reward_expectancy_bt,2022.2.4,MacIntel,59.99880002,Chrome,1440,900,,,l,0.5158,10,180,0,2,11,35,0,1,1,0,0,0,0,1,0,0,triangle,circle,,,,,,,,,,,,,,,,,,,,,,,,,,,,,,,,,,,,,,,,,,,,,,,,,,,,,,
295603,2022-11-15_12h47.28.395,vts_reward_expectancy_bt,2022.2.4,MacIntel,59.99880002,Chrome,1440,900,,,l,1.217,10,190,1,0,0,0,0,1,1,0,0,0,0,1,0,0,triangle,circle,,,,,,,,,,,,,,,,,,,,,,,,,,,,,,,,,,,,,,,,,,,,,,,,,,,,,,
295603,2022-11-15_12h47.28.395,vts_reward_expectancy_bt,2022.2.4,MacIntel,59.99880002,Chrome,1440,900,,,l,0.7172,1,191,1,0,1,1,2,1,1,0,0,0,0,0,0,1,triangle,star,,,,,,,,,,,,,,,,,,,,,,,,,,,,,,,,,,,,,,,,,,,,,,,,,,,,,,
295603,2022-11-15_12h47.28.395,vts_reward_expectancy_bt,2022.2.4,MacIntel,59.99880002,Chrome,1440,900,,,a,0.4325,1,192,1,0,2,2,6,1,0,0,1,0,1,0,0,0,hexagon,triangle,,,,,,,,,,,,,,,,,,,,,,,,,,,,,,,,,,,,,,,,,,,,,,,,,,,,,,
295603,2022-11-15_12h47.28.395,vts_reward_expectancy_bt,2022.2.4,MacIntel,59.99880002,Chrome,1440,900,,,a,0.354,1,193,1,0,3,3,10,1,0,0,0,1,0,1,0,0,star ,circle,,,,,,,,,,,,,,,,,,,,,,,,,,,,,,,,,,,,,,,,,,,,,,,,,,,,,,
295603,2022-11-15_12h47.28.395,vts_reward_expectancy_bt,2022.2.4,MacIntel,59.99880002,Chrome,1440,900,,,a,0.2338,1,194,1,0,4,4,8,1,0,0,1,0,0,0,0,1,hexagon,star,,,,,,,,,,,,,,,,,,,,,,,,,,,,,,,,,,,,,,,,,,,,,,,,,,,,,,
295603,2022-11-15_12h47.28.395,vts_reward_expectancy_bt,2022.2.4,MacIntel,59.99880002,Chrome,1440,900,,,a,0.3313,10,204,1,0,5,5,1,1,1,0,0,0,0,0,1,0,triangle,hexagon,,,,,,,,,,,,,,,,,,,,,,,,,,,,,,,,,,,,,,,,,,,,,,,,,,,,,,
295603,2022-11-15_12h47.28.395,vts_reward_expectancy_bt,2022.2.4,MacIntel,59.99880002,Chrome,1440,900,,,l,1.5649,1,205,1,0,6,6,3,1,0,1,0,0,1,0,0,0,circle,triangle,,,,,,,,,,,,,,,,,,,,,,,,,,,,,,,,,,,,,,,,,,,,,,,,,,,,,,
295603,2022-11-15_12h47.28.395,vts_reward_expectancy_bt,2022.2.4,MacIntel,59.99880002,Chrome,1440,900,,,a,0.3698,1,206,1,0,7,7,7,1,0,0,1,0,0,1,0,0,hexagon,circle,,,,,,,,,,,,,,,,,,,,,,,,,,,,,,,,,,,,,,,,,,,,,,,,,,,,,,
295603,2022-11-15_12h47.28.395,vts_reward_expectancy_bt,2022.2.4,MacIntel,59.99880002,Chrome,1440,900,,,a,0.3818,10,216,1,0,8,8,9,1,0,0,0,1,1,0,0,0,star,triangle,,,,,,,,,,,,,,,,,,,,,,,,,,,,,,,,,,,,,,,,,,,,,,,,,,,,,,
295603,2022-11-15_12h47.28.395,vts_reward_expectancy_bt,2022.2.4,MacIntel,59.99880002,Chrome,1440,900,,,a,0.3005,10,226,1,0,9,9,4,1,0,1,0,0,0,0,1,0,circle,hexagon,,,,,,,,,,,,,,,,,,,,,,,,,,,,,,,,,,,,,,,,,,,,,,,,,,,,,,
295603,2022-11-15_12h47.28.395,vts_reward_expectancy_bt,2022.2.4,MacIntel,59.99880002,Chrome,1440,900,,,a,0.282,10,236,1,0,10,10,11,1,0,0,0,1,0,0,1,0,star,hexagon,,,,,,,,,,,,,,,,,,,,,,,,,,,,,,,,,,,,,,,,,,,,,,,,,,,,,,
295603,2022-11-15_12h47.28.395,vts_reward_expectancy_bt,2022.2.4,MacIntel,59.99880002,Chrome,1440,900,,,l,0.2983,10,246,1,0,11,11,5,1,0,1,0,0,0,0,0,1,circle,star,,,,,,,,,,,,,,,,,,,,,,,,,,,,,,,,,,,,,,,,,,,,,,,,,,,,,,
295603,2022-11-15_12h47.28.395,vts_reward_expectancy_bt,2022.2.4,MacIntel,59.99880002,Chrome,1440,900,,,l,0.3015,1,247,1,1,0,12,1,1,1,0,0,0,0,0,1,0,triangle,hexagon,,,,,,,,,,,,,,,,,,,,,,,,,,,,,,,,,,,,,,,,,,,,,,,,,,,,,,
295603,2022-11-15_12h47.28.395,vts_reward_expectancy_bt,2022.2.4,MacIntel,59.99880002,Chrome,1440,900,,,a,0.3166,1,248,1,1,1,13,3,1,0,1,0,0,1,0,0,0,circle,triangle,,,,,,,,,,,,,,,,,,,,,,,,,,,,,,,,,,,,,,,,,,,,,,,,,,,,,,
295603,2022-11-15_12h47.28.395,vts_reward_expectancy_bt,2022.2.4,MacIntel,59.99880002,Chrome,1440,900,,,a,0.2662,1,249,1,1,2,14,2,1,1,0,0,0,0,0,0,1,triangle,star,,,,,,,,,,,,,,,,,,,,,,,,,,,,,,,,,,,,,,,,,,,,,,,,,,,,,,
295603,2022-11-15_12h47.28.395,vts_reward_expectancy_bt,2022.2.4,MacIntel,59.99880002,Chrome,1440,900,,,l,0.2814,10,259,1,1,3,15,8,1,0,0,1,0,0,0,0,1,hexagon,star,,,,,,,,,,,,,,,,,,,,,,,,,,,,,,,,,,,,,,,,,,,,,,,,,,,,,,
295603,2022-11-15_12h47.28.395,vts_reward_expectancy_bt,2022.2.4,MacIntel,59.99880002,Chrome,1440,900,,,l,0.423,10,269,1,1,4,16,9,1,0,0,0,1,1,0,0,0,star,triangle,,,,,,,,,,,,,,,,,,,,,,,,,,,,,,,,,,,,,,,,,,,,,,,,,,,,,,
295603,2022-11-15_12h47.28.395,vts_reward_expectancy_bt,2022.2.4,MacIntel,59.99880002,Chrome,1440,900,,,l,0.5663,10,279,1,1,5,17,10,1,0,0,0,1,0,1,0,0,star ,circle,,,,,,,,,,,,,,,,,,,,,,,,,,,,,,,,,,,,,,,,,,,,,,,,,,,,,,
295603,2022-11-15_12h47.28.395,vts_reward_expectancy_bt,2022.2.4,MacIntel,59.99880002,Chrome,1440,900,,,a,0.3896,1,280,1,1,6,18,11,1,0,0,0,1,0,0,1,0,star,hexagon,,,,,,,,,,,,,,,,,,,,,,,,,,,,,,,,,,,,,,,,,,,,,,,,,,,,,,
295603,2022-11-15_12h47.28.395,vts_reward_expectancy_bt,2022.2.4,MacIntel,59.99880002,Chrome,1440,900,,,a,0.2482,10,290,1,1,7,19,5,1,0,1,0,0,0,0,0,1,circle,star,,,,,,,,,,,,,,,,,,,,,,,,,,,,,,,,,,,,,,,,,,,,,,,,,,,,,,
295603,2022-11-15_12h47.28.395,vts_reward_expectancy_bt,2022.2.4,MacIntel,59.99880002,Chrome,1440,900,,,a,0.3146,1,291,1,1,8,20,0,1,1,0,0,0,0,1,0,0,triangle,circle,,,,,,,,,,,,,,,,,,,,,,,,,,,,,,,,,,,,,,,,,,,,,,,,,,,,,,
295603,2022-11-15_12h47.28.395,vts_reward_expectancy_bt,2022.2.4,MacIntel,59.99880002,Chrome,1440,900,,,l,0.4068,1,292,1,1,9,21,6,1,0,0,1,0,1,0,0,0,hexagon,triangle,,,,,,,,,,,,,,,,,,,,,,,,,,,,,,,,,,,,,,,,,,,,,,,,,,,,,,
295603,2022-11-15_12h47.28.395,vts_reward_expectancy_bt,2022.2.4,MacIntel,59.99880002,Chrome,1440,900,,,a,0.621,10,302,1,1,10,22,4,1,0,1,0,0,0,0,1,0,circle,hexagon,,,,,,,,,,,,,,,,,,,,,,,,,,,,,,,,,,,,,,,,,,,,,,,,,,,,,,
295603,2022-11-15_12h47.28.395,vts_reward_expectancy_bt,2022.2.4,MacIntel,59.99880002,Chrome,1440,900,,,a,0.435,10,312,1,1,11,23,7,1,0,0,1,0,0,1,0,0,hexagon,circle,,,,,,,,,,,,,,,,,,,,,,,,,,,,,,,,,,,,,,,,,,,,,,,,,,,,,,
295603,2022-11-15_12h47.28.395,vts_reward_expectancy_bt,2022.2.4,MacIntel,59.99880002,Chrome,1440,900,,,a,2.5039,1,313,1,2,0,24,8,1,0,0,1,0,0,0,0,1,hexagon,star,,,,,,,,,,,,,,,,,,,,,,,,,,,,,,,,,,,,,,,,,,,,,,,,,,,,,,
295603,2022-11-15_12h47.28.395,vts_reward_expectancy_bt,2022.2.4,MacIntel,59.99880002,Chrome,1440,900,,,a,0.4033,1,314,1,2,1,25,0,1,1,0,0,0,0,1,0,0,triangle,circle,,,,,,,,,,,,,,,,,,,,,,,,,,,,,,,,,,,,,,,,,,,,,,,,,,,,,,
295603,2022-11-15_12h47.28.395,vts_reward_expectancy_bt,2022.2.4,MacIntel,59.99880002,Chrome,1440,900,,,a,0.3331,10,324,1,2,2,26,9,1,0,0,0,1,1,0,0,0,star,triangle,,,,,,,,,,,,,,,,,,,,,,,,,,,,,,,,,,,,,,,,,,,,,,,,,,,,,,
295603,2022-11-15_12h47.28.395,vts_reward_expectancy_bt,2022.2.4,MacIntel,59.99880002,Chrome,1440,900,,,a,0.5672,10,334,1,2,3,27,10,1,0,0,0,1,0,1,0,0,star ,circle,,,,,,,,,,,,,,,,,,,,,,,,,,,,,,,,,,,,,,,,,,,,,,,,,,,,,,
295603,2022-11-15_12h47.28.395,vts_reward_expectancy_bt,2022.2.4,MacIntel,59.99880002,Chrome,1440,900,,,l,0.4989,1,335,1,2,4,28,6,1,0,0,1,0,1,0,0,0,hexagon,triangle,,,,,,,,,,,,,,,,,,,,,,,,,,,,,,,,,,,,,,,,,,,,,,,,,,,,,,
295603,2022-11-15_12h47.28.395,vts_reward_expectancy_bt,2022.2.4,MacIntel,59.99880002,Chrome,1440,900,,,l,0.3194,1,336,1,2,5,29,4,1,0,1,0,0,0,0,1,0,circle,hexagon,,,,,,,,,,,,,,,,,,,,,,,,,,,,,,,,,,,,,,,,,,,,,,,,,,,,,,
295603,2022-11-15_12h47.28.395,vts_reward_expectancy_bt,2022.2.4,MacIntel,59.99880002,Chrome,1440,900,,,a,0.3664,1,337,1,2,6,30,2,1,1,0,0,0,0,0,0,1,triangle,star,,,,,,,,,,,,,,,,,,,,,,,,,,,,,,,,,,,,,,,,,,,,,,,,,,,,,,
295603,2022-11-15_12h47.28.395,vts_reward_expectancy_bt,2022.2.4,MacIntel,59.99880002,Chrome,1440,900,,,l,0.3926,10,347,1,2,7,31,7,1,0,0,1,0,0,1,0,0,hexagon,circle,,,,,,,,,,,,,,,,,,,,,,,,,,,,,,,,,,,,,,,,,,,,,,,,,,,,,,
295603,2022-11-15_12h47.28.395,vts_reward_expectancy_bt,2022.2.4,MacIntel,59.99880002,Chrome,1440,900,,,l,0.4664,1,348,1,2,8,32,1,1,1,0,0,0,0,0,1,0,triangle,hexagon,,,,,,,,,,,,,,,,,,,,,,,,,,,,,,,,,,,,,,,,,,,,,,,,,,,,,,
295603,2022-11-15_12h47.28.395,vts_reward_expectancy_bt,2022.2.4,MacIntel,59.99880002,Chrome,1440,900,,,l,0.4829,1,349,1,2,9,33,3,1,0,1,0,0,1,0,0,0,circle,triangle,,,,,,,,,,,,,,,,,,,,,,,,,,,,,,,,,,,,,,,,,,,,,,,,,,,,,,
295603,2022-11-15_12h47.28.395,vts_reward_expectancy_bt,2022.2.4,MacIntel,59.99880002,Chrome,1440,900,,,a,0.4005,10,359,1,2,10,34,5,1,0,1,0,0,0,0,0,1,circle,star,,,,,,,,,,,,,,,,,,,,,,,,,,,,,,,,,,,,,,,,,,,,,,,,,,,,,,
295603,2022-11-15_12h47.28.395,vts_reward_expectancy_bt,2022.2.4,MacIntel,59.99880002,Chrome,1440,900,,,a,0.4826,1,360,1,2,11,35,11,1,0,0,0,1,0,0,1,0,star,hexagon,,,,,,,,,,,,,,,,,,,,,,,,,,,,,,,,,,,,,,,,,,,,,,,,,,,,,,
295603,2022-11-15_12h47.28.395,vts_reward_expectancy_bt,2022.2.4,MacIntel,59.99880002,Chrome,1440,900,,,a,0.7019,1,361,2,0,0,0,10,1,0,0,0,1,0,1,0,0,star ,circle,,,,,,,,,,,,,,,,,,,,,,,,,,,,,,,,,,,,,,,,,,,,,,,,,,,,,,
295603,2022-11-15_12h47.28.395,vts_reward_expectancy_bt,2022.2.4,MacIntel,59.99880002,Chrome,1440,900,,,a,0.4034,10,371,2,0,1,1,11,1,0,0,0,1,0,0,1,0,star,hexagon,,,,,,,,,,,,,,,,,,,,,,,,,,,,,,,,,,,,,,,,,,,,,,,,,,,,,,
295603,2022-11-15_12h47.28.395,vts_reward_expectancy_bt,2022.2.4,MacIntel,59.99880002,Chrome,1440,900,,,l,1.4334,10,381,2,0,2,2,5,1,0,1,0,0,0,0,0,1,circle,star,,,,,,,,,,,,,,,,,,,,,,,,,,,,,,,,,,,,,,,,,,,,,,,,,,,,,,
295603,2022-11-15_12h47.28.395,vts_reward_expectancy_bt,2022.2.4,MacIntel,59.99880002,Chrome,1440,900,,,l,1.1508,1,382,2,0,3,3,1,1,1,0,0,0,0,0,1,0,triangle,hexagon,,,,,,,,,,,,,,,,,,,,,,,,,,,,,,,,,,,,,,,,,,,,,,,,,,,,,,
295603,2022-11-15_12h47.28.395,vts_reward_expectancy_bt,2022.2.4,MacIntel,59.99880002,Chrome,1440,900,,,a,0.3317,1,383,2,0,4,4,8,1,0,0,1,0,0,0,0,1,hexagon,star,,,,,,,,,,,,,,,,,,,,,,,,,,,,,,,,,,,,,,,,,,,,,,,,,,,,,,
295603,2022-11-15_12h47.28.395,vts_reward_expectancy_bt,2022.2.4,MacIntel,59.99880002,Chrome,1440,900,,,a,0.3693,1,384,2,0,5,5,6,1,0,0,1,0,1,0,0,0,hexagon,triangle,,,,,,,,,,,,,,,,,,,,,,,,,,,,,,,,,,,,,,,,,,,,,,,,,,,,,,
295603,2022-11-15_12h47.28.395,vts_reward_expectancy_bt,2022.2.4,MacIntel,59.99880002,Chrome,1440,900,,,a,0.4,1,385,2,0,6,6,7,1,0,0,1,0,0,1,0,0,hexagon,circle,,,,,,,,,,,,,,,,,,,,,,,,,,,,,,,,,,,,,,,,,,,,,,,,,,,,,,
295603,2022-11-15_12h47.28.395,vts_reward_expectancy_bt,2022.2.4,MacIntel,59.99880002,Chrome,1440,900,,,a,0.2157,1,386,2,0,7,7,0,1,1,0,0,0,0,1,0,0,triangle,circle,,,,,,,,,,,,,,,,,,,,,,,,,,,,,,,,,,,,,,,,,,,,,,,,,,,,,,
295603,2022-11-15_12h47.28.395,vts_reward_expectancy_bt,2022.2.4,MacIntel,59.99880002,Chrome,1440,900,,,l,0.2017,1,387,2,0,8,8,3,1,0,1,0,0,1,0,0,0,circle,triangle,,,,,,,,,,,,,,,,,,,,,,,,,,,,,,,,,,,,,,,,,,,,,,,,,,,,,,
295603,2022-11-15_12h47.28.395,vts_reward_expectancy_bt,2022.2.4,MacIntel,59.99880002,Chrome,1440,900,,,l,0.2997,1,388,2,0,9,9,4,1,0,1,0,0,0,0,1,0,circle,hexagon,,,,,,,,,,,,,,,,,,,,,,,,,,,,,,,,,,,,,,,,,,,,,,,,,,,,,,
295603,2022-11-15_12h47.28.395,vts_reward_expectancy_bt,2022.2.4,MacIntel,59.99880002,Chrome,1440,900,,,a,0.2322,10,398,2,0,10,10,9,1,0,0,0,1,1,0,0,0,star,triangle,,,,,,,,,,,,,,,,,,,,,,,,,,,,,,,,,,,,,,,,,,,,,,,,,,,,,,
295603,2022-11-15_12h47.28.395,vts_reward_expectancy_bt,2022.2.4,MacIntel,59.99880002,Chrome,1440,900,,,l,0.8323,10,408,2,0,11,11,2,1,1,0,0,0,0,0,0,1,triangle,star,,,,,,,,,,,,,,,,,,,,,,,,,,,,,,,,,,,,,,,,,,,,,,,,,,,,,,
295603,2022-11-15_12h47.28.395,vts_reward_expectancy_bt,2022.2.4,MacIntel,59.99880002,Chrome,1440,900,,,a,0.3199,10,418,2,1,0,12,9,1,0,0,0,1,1,0,0,0,star,triangle,,,,,,,,,,,,,,,,,,,,,,,,,,,,,,,,,,,,,,,,,,,,,,,,,,,,,,
295603,2022-11-15_12h47.28.395,vts_reward_expectancy_bt,2022.2.4,MacIntel,59.99880002,Chrome,1440,900,,,l,0.3509,10,428,2,1,1,13,2,1,1,0,0,0,0,0,0,1,triangle,star,,,,,,,,,,,,,,,,,,,,,,,,,,,,,,,,,,,,,,,,,,,,,,,,,,,,,,
295603,2022-11-15_12h47.28.395,vts_reward_expectancy_bt,2022.2.4,MacIntel,59.99880002,Chrome,1440,900,,,a,0.2995,10,438,2,1,2,14,5,1,0,1,0,0,0,0,0,1,circle,star,,,,,,,,,,,,,,,,,,,,,,,,,,,,,,,,,,,,,,,,,,,,,,,,,,,,,,
295603,2022-11-15_12h47.28.395,vts_reward_expectancy_bt,2022.2.4,MacIntel,59.99880002,Chrome,1440,900,,,l,0.3018,1,439,2,1,3,15,3,1,0,1,0,0,1,0,0,0,circle,triangle,,,,,,,,,,,,,,,,,,,,,,,,,,,,,,,,,,,,,,,,,,,,,,,,,,,,,,
295603,2022-11-15_12h47.28.395,vts_reward_expectancy_bt,2022.2.4,MacIntel,59.99880002,Chrome,1440,900,,,a,0.4258,1,440,2,1,4,16,6,1,0,0,1,0,1,0,0,0,hexagon,triangle,,,,,,,,,,,,,,,,,,,,,,,,,,,,,,,,,,,,,,,,,,,,,,,,,,,,,,
295603,2022-11-15_12h47.28.395,vts_reward_expectancy_bt,2022.2.4,MacIntel,59.99880002,Chrome,1440,900,,,a,0.3995,1,441,2,1,5,17,10,1,0,0,0,1,0,1,0,0,star ,circle,,,,,,,,,,,,,,,,,,,,,,,,,,,,,,,,,,,,,,,,,,,,,,,,,,,,,,
295603,2022-11-15_12h47.28.395,vts_reward_expectancy_bt,2022.2.4,MacIntel,59.99880002,Chrome,1440,900,,,a,1.0203,1,442,2,1,6,18,7,1,0,0,1,0,0,1,0,0,hexagon,circle,,,,,,,,,,,,,,,,,,,,,,,,,,,,,,,,,,,,,,,,,,,,,,,,,,,,,,
295603,2022-11-15_12h47.28.395,vts_reward_expectancy_bt,2022.2.4,MacIntel,59.99880002,Chrome,1440,900,,,l,0.2197,1,443,2,1,7,19,4,1,0,1,0,0,0,0,1,0,circle,hexagon,,,,,,,,,,,,,,,,,,,,,,,,,,,,,,,,,,,,,,,,,,,,,,,,,,,,,,
295603,2022-11-15_12h47.28.395,vts_reward_expectancy_bt,2022.2.4,MacIntel,59.99880002,Chrome,1440,900,,,l,0.1088,1,444,2,1,8,20,1,1,1,0,0,0,0,0,1,0,triangle,hexagon,,,,,,,,,,,,,,,,,,,,,,,,,,,,,,,,,,,,,,,,,,,,,,,,,,,,,,
295603,2022-11-15_12h47.28.395,vts_reward_expectancy_bt,2022.2.4,MacIntel,59.99880002,Chrome,1440,900,,,a,0.4498,10,454,2,1,9,21,11,1,0,0,0,1,0,0,1,0,star,hexagon,,,,,,,,,,,,,,,,,,,,,,,,,,,,,,,,,,,,,,,,,,,,,,,,,,,,,,
295603,2022-11-15_12h47.28.395,vts_reward_expectancy_bt,2022.2.4,MacIntel,59.99880002,Chrome,1440,900,,,a,0.4343,1,455,2,1,10,22,8,1,0,0,1,0,0,0,0,1,hexagon,star,,,,,,,,,,,,,,,,,,,,,,,,,,,,,,,,,,,,,,,,,,,,,,,,,,,,,,
295603,2022-11-15_12h47.28.395,vts_reward_expectancy_bt,2022.2.4,MacIntel,59.99880002,Chrome,1440,900,,,l,3.4376,10,465,2,1,11,23,0,1,1,0,0,0,0,1,0,0,triangle,circle,,,,,,,,,,,,,,,,,,,,,,,,,,,,,,,,,,,,,,,,,,,,,,,,,,,,,,
295603,2022-11-15_12h47.28.395,vts_reward_expectancy_bt,2022.2.4,MacIntel,59.99880002,Chrome,1440,900,,,l,0.6857,10,475,2,2,0,24,10,1,0,0,0,1,0,1,0,0,star ,circle,,,,,,,,,,,,,,,,,,,,,,,,,,,,,,,,,,,,,,,,,,,,,,,,,,,,,,
295603,2022-11-15_12h47.28.395,vts_reward_expectancy_bt,2022.2.4,MacIntel,59.99880002,Chrome,1440,900,,,a,0.5206,10,485,2,2,1,25,5,1,0,1,0,0,0,0,0,1,circle,star,,,,,,,,,,,,,,,,,,,,,,,,,,,,,,,,,,,,,,,,,,,,,,,,,,,,,,
295603,2022-11-15_12h47.28.395,vts_reward_expectancy_bt,2022.2.4,MacIntel,59.99880002,Chrome,1440,900,,,l,1.5834,1,486,2,2,2,26,9,1,0,0,0,1,1,0,0,0,star,triangle,,,,,,,,,,,,,,,,,,,,,,,,,,,,,,,,,,,,,,,,,,,,,,,,,,,,,,
295603,2022-11-15_12h47.28.395,vts_reward_expectancy_bt,2022.2.4,MacIntel,59.99880002,Chrome,1440,900,,,a,0.5395,10,496,2,2,3,27,3,1,0,1,0,0,1,0,0,0,circle,triangle,,,,,,,,,,,,,,,,,,,,,,,,,,,,,,,,,,,,,,,,,,,,,,,,,,,,,,
295603,2022-11-15_12h47.28.395,vts_reward_expectancy_bt,2022.2.4,MacIntel,59.99880002,Chrome,1440,900,,,l,0.9352,10,506,2,2,4,28,0,1,1,0,0,0,0,1,0,0,triangle,circle,,,,,,,,,,,,,,,,,,,,,,,,,,,,,,,,,,,,,,,,,,,,,,,,,,,,,,
295603,2022-11-15_12h47.28.395,vts_reward_expectancy_bt,2022.2.4,MacIntel,59.99880002,Chrome,1440,900,,,a,1.2995,10,516,2,2,5,29,11,1,0,0,0,1,0,0,1,0,star,hexagon,,,,,,,,,,,,,,,,,,,,,,,,,,,,,,,,,,,,,,,,,,,,,,,,,,,,,,
295603,2022-11-15_12h47.28.395,vts_reward_expectancy_bt,2022.2.4,MacIntel,59.99880002,Chrome,1440,900,,,a,0.7016,10,526,2,2,6,30,4,1,0,1,0,0,0,0,1,0,circle,hexagon,,,,,,,,,,,,,,,,,,,,,,,,,,,,,,,,,,,,,,,,,,,,,,,,,,,,,,
295603,2022-11-15_12h47.28.395,vts_reward_expectancy_bt,2022.2.4,MacIntel,59.99880002,Chrome,1440,900,,,a,1.3209,10,536,2,2,7,31,1,1,1,0,0,0,0,0,1,0,triangle,hexagon,,,,,,,,,,,,,,,,,,,,,,,,,,,,,,,,,,,,,,,,,,,,,,,,,,,,,,
295603,2022-11-15_12h47.28.395,vts_reward_expectancy_bt,2022.2.4,MacIntel,59.99880002,Chrome,1440,900,,,l,0.7689,10,546,2,2,8,32,7,1,0,0,1,0,0,1,0,0,hexagon,circle,,,,,,,,,,,,,,,,,,,,,,,,,,,,,,,,,,,,,,,,,,,,,,,,,,,,,,
295603,2022-11-15_12h47.28.395,vts_reward_expectancy_bt,2022.2.4,MacIntel,59.99880002,Chrome,1440,900,,,l,1.0666,1,547,2,2,9,33,6,1,0,0,1,0,1,0,0,0,hexagon,triangle,,,,,,,,,,,,,,,,,,,,,,,,,,,,,,,,,,,,,,,,,,,,,,,,,,,,,,
295603,2022-11-15_12h47.28.395,vts_reward_expectancy_bt,2022.2.4,MacIntel,59.99880002,Chrome,1440,900,,,l,1.0712,10,557,2,2,10,34,2,1,1,0,0,0,0,0,0,1,triangle,star,,,,,,,,,,,,,,,,,,,,,,,,,,,,,,,,,,,,,,,,,,,,,,,,,,,,,,
295603,2022-11-15_12h47.28.395,vts_reward_expectancy_bt,2022.2.4,MacIntel,59.99880002,Chrome,1440,900,,,l,2.4415,10,567,2,2,11,35,8,1,0,0,1,0,0,0,0,1,hexagon,star,,,,,,,,,,,,,,,,,,,,,,,,,,,,,,,,,,,,,,,,,,,,,,,,,,,,,,
295603,2022-11-15_12h47.28.395,vts_reward_expectancy_bt,2022.2.4,MacIntel,59.99880002,Chrome,1440,900,,,,,,,,,,,,,,,,,,,,,,,W,174,circle,0,0,,0,0,0,0,0,1,,,,,,,,,,,,,,,,,,,,,,,,,,,,,,,,,,,,,,,,,,
295603,2022-11-15_12h47.28.395,vts_reward_expectancy_bt,2022.2.4,MacIntel,59.99880002,Chrome,1440,900,,,,,,,,,,,,,,,,,,,,,,,U,125,hexagon,0,1,d,0,1,0,1,0,1,1.0138,,,,,,,,,,,,,,,,,,,,,,,,,,,,,,,,,,,,,,,,,
295603,2022-11-15_12h47.28.395,vts_reward_expectancy_bt,2022.2.4,MacIntel,59.99880002,Chrome,1440,900,,,,,,,,,,,,,,,,,,,,,,,D,139,triangle,0,1,f,0,2,0,2,0,1,0.7468,,,,,,,,,,,,,,,,,,,,,,,,,,,,,,,,,,,,,,,,,
295603,2022-11-15_12h47.28.395,vts_reward_expectancy_bt,2022.2.4,MacIntel,59.99880002,Chrome,1440,900,,,,,,,,,,,,,,,,,,,,,,,Y,132,star,1,1,f,0,3,0,3,0,1,0.3628,,,,,,,,,,,,,,,,,,,,,,,,,,,,,,,,,,,,,,,,,
295603,2022-11-15_12h47.28.395,vts_reward_expectancy_bt,2022.2.4,MacIntel,59.99880002,Chrome,1440,900,,,,,,,,,,,,,,,,,,,,,,,S,181,circle,0,0,,0,4,0,4,0,1,,,,,,,,,,,,,,,,,,,,,,,,,,,,,,,,,,,,,,,,,,
295603,2022-11-15_12h47.28.395,vts_reward_expectancy_bt,2022.2.4,MacIntel,59.99880002,Chrome,1440,900,,,,,,,,,,,,,,,,,,,,,,,B,167,hexagon,1,1,d,0,5,0,5,0,1,1.38,,,,,,,,,,,,,,,,,,,,,,,,,,,,,,,,,,,,,,,,,
295603,2022-11-15_12h47.28.395,vts_reward_expectancy_bt,2022.2.4,MacIntel,59.99880002,Chrome,1440,900,,,,,,,,,,,,,,,,,,,,,,,H,160,triangle,0,0,f,0,6,0,6,0,1,1.2303,,,,,,,,,,,,,,,,,,,,,,,,,,,,,,,,,,,,,,,,,
295603,2022-11-15_12h47.28.395,vts_reward_expectancy_bt,2022.2.4,MacIntel,59.99880002,Chrome,1440,900,,,,,,,,,,,,,,,,,,,,,,,F,146,star,1,1,d,0,7,0,7,0,1,1.0136,,,,,,,,,,,,,,,,,,,,,,,,,,,,,,,,,,,,,,,,,
295603,2022-11-15_12h47.28.395,vts_reward_expectancy_bt,2022.2.4,MacIntel,59.99880002,Chrome,1440,900,,,,,,,,,,,,,,,,,,,,,,,W,174,triangle,1,0,f,0,8,0,8,0,1,0.8685,,,,,,,,,,,,,,,,,,,,,,,,,,,,,,,,,,,,,,,,,
295603,2022-11-15_12h47.28.395,vts_reward_expectancy_bt,2022.2.4,MacIntel,59.99880002,Chrome,1440,900,,,,,,,,,,,,,,,,,,,,,,,U,125,star,0,0,d,0,9,0,9,0,1,1.3474,,,,,,,,,,,,,,,,,,,,,,,,,,,,,,,,,,,,,,,,,
295603,2022-11-15_12h47.28.395,vts_reward_expectancy_bt,2022.2.4,MacIntel,59.99880002,Chrome,1440,900,,,,,,,,,,,,,,,,,,,,,,,D,181,circle,1,1,d,1,0,0,0,0,1,1.1326,,,,,,,,,,,,,,,,,,,,,,,,,,,,,,,,,,,,,,,,,
295603,2022-11-15_12h47.28.395,vts_reward_expectancy_bt,2022.2.4,MacIntel,59.99880002,Chrome,1440,900,,,,,,,,,,,,,,,,,,,,,,,F,146,triangle,1,0,d,1,1,0,1,0,1,1.3137,,,,,,,,,,,,,,,,,,,,,,,,,,,,,,,,,,,,,,,,,
295603,2022-11-15_12h47.28.395,vts_reward_expectancy_bt,2022.2.4,MacIntel,59.99880002,Chrome,1440,900,,,,,,,,,,,,,,,,,,,,,,,S,132,hexagon,1,0,f,1,2,0,2,0,1,1.2647,,,,,,,,,,,,,,,,,,,,,,,,,,,,,,,,,,,,,,,,,
295603,2022-11-15_12h47.28.395,vts_reward_expectancy_bt,2022.2.4,MacIntel,59.99880002,Chrome,1440,900,,,,,,,,,,,,,,,,,,,,,,,Y,139,star,1,0,f,1,3,0,3,0,1,0.8301,,,,,,,,,,,,,,,,,,,,,,,,,,,,,,,,,,,,,,,,,
295603,2022-11-15_12h47.28.395,vts_reward_expectancy_bt,2022.2.4,MacIntel,59.99880002,Chrome,1440,900,,,,,,,,,,,,,,,,,,,,,,,B,160,circle,1,0,d,1,4,0,4,0,1,0.5321,,,,,,,,,,,,,,,,,,,,,,,,,,,,,,,,,,,,,,,,,
295603,2022-11-15_12h47.28.395,vts_reward_expectancy_bt,2022.2.4,MacIntel,59.99880002,Chrome,1440,900,,,,,,,,,,,,,,,,,,,,,,,H,174,triangle,1,0,d,1,5,0,5,0,1,1.6624,,,,,,,,,,,,,,,,,,,,,,,,,,,,,,,,,,,,,,,,,
295603,2022-11-15_12h47.28.395,vts_reward_expectancy_bt,2022.2.4,MacIntel,59.99880002,Chrome,1440,900,,,,,,,,,,,,,,,,,,,,,,,W,167,hexagon,1,0,f,1,6,0,6,0,1,0.7967,,,,,,,,,,,,,,,,,,,,,,,,,,,,,,,,,,,,,,,,,
295603,2022-11-15_12h47.28.395,vts_reward_expectancy_bt,2022.2.4,MacIntel,59.99880002,Chrome,1440,900,,,,,,,,,,,,,,,,,,,,,,,U,125,star,1,0,f,1,7,0,7,0,1,1.6642,,,,,,,,,,,,,,,,,,,,,,,,,,,,,,,,,,,,,,,,,
295603,2022-11-15_12h47.28.395,vts_reward_expectancy_bt,2022.2.4,MacIntel,59.99880002,Chrome,1440,900,,,,,,,,,,,,,,,,,,,,,,,D,181,star,1,0,d,1,8,0,8,0,1,0.53,,,,,,,,,,,,,,,,,,,,,,,,,,,,,,,,,,,,,,,,,
295603,2022-11-15_12h47.28.395,vts_reward_expectancy_bt,2022.2.4,MacIntel,59.99880002,Chrome,1440,900,,,,,,,,,,,,,,,,,,,,,,,F,146,triangle,1,0,d,1,9,0,9,0,1,0.7811,,,,,,,,,,,,,,,,,,,,,,,,,,,,,,,,,,,,,,,,,
295603,2022-11-15_12h47.28.395,vts_reward_expectancy_bt,2022.2.4,MacIntel,59.99880002,Chrome,1440,900,,,,,,,,,,,,,,,,,,,,,,,S,167,star,1,0,,2,,,,,,,k,1.4531,0,0,0,0,1,,,,,,,,,,,,,,,,,,,,,,,,,,,,,,,,,,
295603,2022-11-15_12h47.28.395,vts_reward_expectancy_bt,2022.2.4,MacIntel,59.99880002,Chrome,1440,900,,,,,,,,,,,,,,,,,,,,,,,D,139,hexagon,1,0,,2,,,,,,,j,0.6306,1,0,1,0,1,,,,,,,,,,,,,,,,,,,,,,,,,,,,,,,,,,
295603,2022-11-15_12h47.28.395,vts_reward_expectancy_bt,2022.2.4,MacIntel,59.99880002,Chrome,1440,900,,,,,,,,,,,,,,,,,,,,,,,U,125,triangle,1,0,,2,,,,,,,j,0.8978,2,0,2,0,1,,,,,,,,,,,,,,,,,,,,,,,,,,,,,,,,,,
295603,2022-11-15_12h47.28.395,vts_reward_expectancy_bt,2022.2.4,MacIntel,59.99880002,Chrome,1440,900,,,,,,,,,,,,,,,,,,,,,,,Y,160,circle,1,0,,2,,,,,,,k,0.5826,3,0,3,0,1,,,,,,,,,,,,,,,,,,,,,,,,,,,,,,,,,,
295603,2022-11-15_12h47.28.395,vts_reward_expectancy_bt,2022.2.4,MacIntel,59.99880002,Chrome,1440,900,,,,,,,,,,,,,,,,,,,,,,,F,174,star,1,0,,2,,,,,,,k,0.6317,4,0,4,0,1,,,,,,,,,,,,,,,,,,,,,,,,,,,,,,,,,,
295603,2022-11-15_12h47.28.395,vts_reward_expectancy_bt,2022.2.4,MacIntel,59.99880002,Chrome,1440,900,,,,,,,,,,,,,,,,,,,,,,,H,132,hexagon,1,0,,2,,,,,,,j,0.5816,5,0,5,0,1,,,,,,,,,,,,,,,,,,,,,,,,,,,,,,,,,,
295603,2022-11-15_12h47.28.395,vts_reward_expectancy_bt,2022.2.4,MacIntel,59.99880002,Chrome,1440,900,,,,,,,,,,,,,,,,,,,,,,,B,181,triangle,1,0,,2,,,,,,,k,0.797,6,0,6,0,1,,,,,,,,,,,,,,,,,,,,,,,,,,,,,,,,,,
295603,2022-11-15_12h47.28.395,vts_reward_expectancy_bt,2022.2.4,MacIntel,59.99880002,Chrome,1440,900,,,,,,,,,,,,,,,,,,,,,,,W,146,circle,1,0,,2,,,,,,,j,0.7674,7,0,7,0,1,,,,,,,,,,,,,,,,,,,,,,,,,,,,,,,,,,
295603,2022-11-15_12h47.28.395,vts_reward_expectancy_bt,2022.2.4,MacIntel,59.99880002,Chrome,1440,900,,,,,,,,,,,,,,,,,,,,,,,S,167,hexagon,0,0,,2,,,,,,,j,0.8669,8,0,8,0,1,,,,,,,,,,,,,,,,,,,,,,,,,,,,,,,,,,
295603,2022-11-15_12h47.28.395,vts_reward_expectancy_bt,2022.2.4,MacIntel,59.99880002,Chrome,1440,900,,,,,,,,,,,,,,,,,,,,,,,D,139,circle,1,1,,2,,,,,,,j,0.647,9,0,9,0,1,,,,,,,,,,,,,,,,,,,,,,,,,,,,,,,,,,
295603,2022-11-15_12h47.28.395,vts_reward_expectancy_bt,2022.2.4,MacIntel,59.99880002,Chrome,1440,900,,,,,0,567,,,,,,,,,,,,,,,,,W,146,circle,1,0,,3,,,,,,,,,,,,,,-1,letter,NA,f,1.9364,vtsPrac,0,0,0,0,1,,,,,,,,,,,,,,,,,,,,,,,
295603,2022-11-15_12h47.28.395,vts_reward_expectancy_bt,2022.2.4,MacIntel,59.99880002,Chrome,1440,900,,,,,0,567,,,,,,,,,,,,,,,,,S,139,star,1,0,,3,,,,,,,,,,,,,,switch,number,numSwt,j,0.9287,vtsPrac,1,0,1,0,1,,,,,,,,,,,,,,,,,,,,,,,
295603,2022-11-15_12h47.28.395,vts_reward_expectancy_bt,2022.2.4,MacIntel,59.99880002,Chrome,1440,900,,,,,0,567,,,,,,,,,,,,,,,,,D,167,circle,1,0,,3,,,,,,,,,,,,,,switch,letter,lettSwt,d,0.8824,vtsPrac,2,0,2,0,1,,,,,,,,,,,,,,,,,,,,,,,
295603,2022-11-15_12h47.28.395,vts_reward_expectancy_bt,2022.2.4,MacIntel,59.99880002,Chrome,1440,900,,,,,0,567,,,,,,,,,,,,,,,,,F,174,star,1,0,,3,,,,,,,,,,,,,,switch,number,numSwt,k,0.6499,vtsPrac,3,0,3,0,1,,,,,,,,,,,,,,,,,,,,,,,
295603,2022-11-15_12h47.28.395,vts_reward_expectancy_bt,2022.2.4,MacIntel,59.99880002,Chrome,1440,900,,,,,0,567,,,,,,,,,,,,,,,,,W,146,hexagon,1,0,,3,,,,,,,,,,,,,,switch,letter,lettSwt,f,0.9641,vtsPrac,4,0,4,0,1,,,,,,,,,,,,,,,,,,,,,,,
295603,2022-11-15_12h47.28.395,vts_reward_expectancy_bt,2022.2.4,MacIntel,59.99880002,Chrome,1440,900,,,,,0,567,,,,,,,,,,,,,,,,,S,139,star,1,0,,3,,,,,,,,,,,,,,switch,number,numSwt,j,0.6964,vtsPrac,5,0,5,0,1,,,,,,,,,,,,,,,,,,,,,,,
295603,2022-11-15_12h47.28.395,vts_reward_expectancy_bt,2022.2.4,MacIntel,59.99880002,Chrome,1440,900,,,,,0,567,,,,,,,,,,,,,,,,,D,167,circle,1,0,,3,,,,,,,,,,,,,,switch,letter,lettSwt,d,0.5636,vtsPrac,6,0,6,0,1,,,,,,,,,,,,,,,,,,,,,,,
295603,2022-11-15_12h47.28.395,vts_reward_expectancy_bt,2022.2.4,MacIntel,59.99880002,Chrome,1440,900,,,,,0,567,,,,,,,,,,,,,,,,,F,174,hexagon,1,0,,3,,,,,,,,,,,,,,repeat,letter,lettRpt,d,1.0311,vtsPrac,7,0,7,0,1,,,,,,,,,,,,,,,,,,,,,,,
295603,2022-11-15_12h47.28.395,vts_reward_expectancy_bt,2022.2.4,MacIntel,59.99880002,Chrome,1440,900,,,,,0,567,,,,,,,,,,,,,,,,,U,167,star,0,0,,3,,,,,,,,,,,,,,switch,number,NA,j,1.0812,vtsPrac,8,0,8,0,1,,,,,,,,,,,,,,,,,,,,,,,
295603,2022-11-15_12h47.28.395,vts_reward_expectancy_bt,2022.2.4,MacIntel,59.99880002,Chrome,1440,900,,,,,0,567,,,,,,,,,,,,,,,,,S,181,circle,1,1,,3,,,,,,,,,,,,,,repeat,number,numRpt,k,0.8805,vtsPrac,9,0,9,0,1,,,,,,,,,,,,,,,,,,,,,,,
295603,2022-11-15_12h47.28.395,vts_reward_expectancy_bt,2022.2.4,MacIntel,59.99880002,Chrome,1440,900,,,,,0,567,,,,,,,,,,,,,,,,,B,174,hexagon,1,0,,3,,,,,,,,,,,,,,switch,letter,lettSwt,d,0.6464,vtsPrac,10,0,10,0,1,,,,,,,,,,,,,,,,,,,,,,,
295603,2022-11-15_12h47.28.395,vts_reward_expectancy_bt,2022.2.4,MacIntel,59.99880002,Chrome,1440,900,,,,,0,567,,,,,,,,,,,,,,,,,F,139,triangle,1,0,,3,,,,,,,,,,,,,,switch,number,numSwt,j,0.7494,vtsPrac,11,0,11,0,1,,,,,,,,,,,,,,,,,,,,,,,
295603,2022-11-15_12h47.28.395,vts_reward_expectancy_bt,2022.2.4,MacIntel,59.99880002,Chrome,1440,900,,,,,0,567,,,,,,,,,,,,,,,,,W,174,triangle,1,0,,3,,,,,,,,,,,,,,switch,letter,lettSwt,f,0.9654,vtsPrac,12,0,12,0,1,,,,,,,,,,,,,,,,,,,,,,,
295603,2022-11-15_12h47.28.395,vts_reward_expectancy_bt,2022.2.4,MacIntel,59.99880002,Chrome,1440,900,,,,,0,567,,,,,,,,,,,,,,,,,U,146,star,1,0,,3,,,,,,,,,,,,,,switch,number,numSwt,j,1.3799,vtsPrac,13,0,13,0,1,,,,,,,,,,,,,,,,,,,,,,,
295603,2022-11-15_12h47.28.395,vts_reward_expectancy_bt,2022.2.4,MacIntel,59.99880002,Chrome,1440,900,,,,,0,567,,,,,,,,,,,,,,,,,S,125,hexagon,1,0,,3,,,,,,,,,,,,,,switch,letter,lettSwt,f,1.53,vtsPrac,14,0,14,0,1,,,,,,,,,,,,,,,,,,,,,,,
295603,2022-11-15_12h47.28.395,vts_reward_expectancy_bt,2022.2.4,MacIntel,59.99880002,Chrome,1440,900,,,,,0,567,,,,,,,,,,,,,,,,,H,132,circle,1,0,,3,,,,,,,,,,,,,,repeat,letter,lettRpt,d,1.0319,vtsPrac,15,0,15,0,1,,,,,,,,,,,,,,,,,,,,,,,
295603,2022-11-15_12h47.28.395,vts_reward_expectancy_bt,2022.2.4,MacIntel,59.99880002,Chrome,1440,900,,,,,0,567,,,,,,,,,,,,,,,,,S,139,circle,1,0,,3,,,,,,,,,,,,,,switch,number,numSwt,j,0.6043,vtsPrac,16,0,16,0,1,,,,,,,,,,,,,,,,,,,,,,,
295603,2022-11-15_12h47.28.395,vts_reward_expectancy_bt,2022.2.4,MacIntel,59.99880002,Chrome,1440,900,,,,,0,567,,,,,,,,,,,,,,,,,B,181,hexagon,1,0,,3,,,,,,,,,,,,,,switch,letter,lettSwt,d,0.6337,vtsPrac,17,0,17,0,1,,,,,,,,,,,,,,,,,,,,,,,
295603,2022-11-15_12h47.28.395,vts_reward_expectancy_bt,2022.2.4,MacIntel,59.99880002,Chrome,1440,900,,,,,0,567,,,,,,,,,,,,,,,,,H,167,circle,1,0,,3,,,,,,,,,,,,,,switch,number,numSwt,k,0.9463,vtsPrac,18,0,18,0,1,,,,,,,,,,,,,,,,,,,,,,,
295603,2022-11-15_12h47.28.395,vts_reward_expectancy_bt,2022.2.4,MacIntel,59.99880002,Chrome,1440,900,,,,,0,567,,,,,,,,,,,,,,,,,F,174,triangle,1,0,,3,,,,,,,,,,,,,,repeat,number,numRpt,k,0.8456,vtsPrac,19,0,19,0,1,,,,,,,,,,,,,,,,,,,,,,,
295603,2022-11-15_12h47.28.395,vts_reward_expectancy_bt,2022.2.4,MacIntel,59.99880002,Chrome,1440,900,,,,,0,567,,,,,,,,,,,,,,,,,H,174,circle,1,0,,3,,,,,,,,,,,,,,repeat,number,numRpt,k,0.5983,vtsPrac,20,0,20,0,1,,,,,,,,,,,,,,,,,,,,,,,
295603,2022-11-15_12h47.28.395,vts_reward_expectancy_bt,2022.2.4,MacIntel,59.99880002,Chrome,1440,900,,,,,0,567,,,,,,,,,,,,,,,,,D,160,triangle,1,0,,3,,,,,,,,,,,,,,switch,letter,lettSwt,d,0.5898,vtsPrac,21,0,21,0,1,,,,,,,,,,,,,,,,,,,,,,,
295603,2022-11-15_12h47.28.395,vts_reward_expectancy_bt,2022.2.4,MacIntel,59.99880002,Chrome,1440,900,,,,,0,567,,,,,,,,,,,,,,,,,W,125,circle,1,0,,3,,,,,,,,,,,,,,repeat,letter,lettRpt,f,0.6673,vtsPrac,22,0,22,0,1,,,,,,,,,,,,,,,,,,,,,,,
295603,2022-11-15_12h47.28.395,vts_reward_expectancy_bt,2022.2.4,MacIntel,59.99880002,Chrome,1440,900,,,,,0,567,,,,,,,,,,,,,,,,,Y,167,triangle,1,0,,3,,,,,,,,,,,,,,switch,number,numSwt,k,0.8308,vtsPrac,23,0,23,0,1,,,,,,,,,,,,,,,,,,,,,,,
295603,2022-11-15_12h47.28.395,vts_reward_expectancy_bt,2022.2.4,MacIntel,59.99880002,Chrome,1440,900,,,,,0,567,,,,,,,,,,,,,,,,,D,139,star,1,0,,3,,,,,,,,,,,,,,repeat,number,numRpt,j,0.6985,vtsPrac,24,0,24,0,1,,,,,,,,,,,,,,,,,,,,,,,
295603,2022-11-15_12h47.28.395,vts_reward_expectancy_bt,2022.2.4,MacIntel,59.99880002,Chrome,1440,900,,,,,0,567,,,,,,,,,,,,,,,,,S,174,circle,1,0,,3,,,,,,,,,,,,,,repeat,number,numRpt,k,0.8478,vtsPrac,25,0,25,0,1,,,,,,,,,,,,,,,,,,,,,,,
295603,2022-11-15_12h47.28.395,vts_reward_expectancy_bt,2022.2.4,MacIntel,59.99880002,Chrome,1440,900,,,,,0,567,,,,,,,,,,,,,,,,,Y,125,triangle,1,0,,3,,,,,,,,,,,,,,switch,letter,lettSwt,f,0.6994,vtsPrac,26,0,26,0,1,,,,,,,,,,,,,,,,,,,,,,,
295603,2022-11-15_12h47.28.395,vts_reward_expectancy_bt,2022.2.4,MacIntel,59.99880002,Chrome,1440,900,,,,,0,567,,,,,,,,,,,,,,,,,H,181,star,1,0,,3,,,,,,,,,,,,,,repeat,letter,lettRpt,d,1.2475,vtsPrac,27,0,27,0,1,,,,,,,,,,,,,,,,,,,,,,,
295603,2022-11-15_12h47.28.395,vts_reward_expectancy_bt,2022.2.4,MacIntel,59.99880002,Chrome,1440,900,,,,,0,567,,,,,,,,,,,,,,,,,H,132,hexagon,1,0,,3,,,,,,,,,,,,,,repeat,letter,lettRpt,d,0.9492,vtsPrac,28,0,28,0,1,,,,,,,,,,,,,,,,,,,,,,,
295603,2022-11-15_12h47.28.395,vts_reward_expectancy_bt,2022.2.4,MacIntel,59.99880002,Chrome,1440,900,,,,,0,567,,,,,,,,,,,,,,,,,U,139,triangle,1,0,,3,,,,,,,,,,,,,,switch,number,numSwt,j,0.549,vtsPrac,29,0,29,0,1,,,,,,,,,,,,,,,,,,,,,,,
295603,2022-11-15_12h47.28.395,vts_reward_expectancy_bt,2022.2.4,MacIntel,59.99880002,Chrome,1440,900,,,,,0,567,,,,,,,,,,,,,,,,,W,125,star,1,0,,3,,,,,,,,,,,,,,repeat,number,numRpt,j,0.8704,vtsPrac,30,0,30,0,1,,,,,,,,,,,,,,,,,,,,,,,
295603,2022-11-15_12h47.28.395,vts_reward_expectancy_bt,2022.2.4,MacIntel,59.99880002,Chrome,1440,900,,,,,0,567,,,,,,,,,,,,,,,,,D,160,hexagon,1,0,,3,,,,,,,,,,,,,,switch,letter,lettSwt,d,0.8654,vtsPrac,31,0,31,0,1,,,,,,,,,,,,,,,,,,,,,,,
295603,2022-11-15_12h47.28.395,vts_reward_expectancy_bt,2022.2.4,MacIntel,59.99880002,Chrome,1440,900,,,,,,,,,,,,,,,,,,,,,,,,,,,,,,,,,,,,,,,,,,,,,,,,,,,,,,,,,,,,,,,,,,,,,,,,,,,,
295603,2022-11-15_12h47.28.395,vts_reward_expectancy_bt,2022.2.4,MacIntel,59.99880002,Chrome,1440,900,,,,,,,,,,,,,,,,,,,,,,,,,,,,,,,,,,,,,,,,,,,,,,,,,,,,,,,,,,,,,,,,,,,,,,,,,,,,
295603,2022-11-15_12h47.28.395,vts_reward_expectancy_bt,2022.2.4,MacIntel,59.99880002,Chrome,1440,900,,,,,0,567,,,,,,,,,,,,,,,,,Y,132,star,1,0,,,,,,,,,,,,,,,,switch,number,numSwt,j,0.9642,noRew,,,,,,0,0,0,0,0,1,,,,,,,,,,,,,,,,,
295603,2022-11-15_12h47.28.395,vts_reward_expectancy_bt,2022.2.4,MacIntel,59.99880002,Chrome,1440,900,,,,,0,567,,,,,,,,,,,,,,,,,U,181,triangle,1,0,,,,,,,,,,,,,,,,repeat,number,numRpt,k,0.8461,noRew,,,,,,0,1,0,1,0,1,,,,,,,,,,,,,,,,,
295603,2022-11-15_12h47.28.395,vts_reward_expectancy_bt,2022.2.4,MacIntel,59.99880002,Chrome,1440,900,,,,,0,567,,,,,,,,,,,,,,,,,F,160,star,1,0,,,,,,,,,,,,,,,,switch,letter,lettSwt,d,1.0472,noRew,,,,,,0,2,0,2,0,1,,,,,,,,,,,,,,,,,
295603,2022-11-15_12h47.28.395,vts_reward_expectancy_bt,2022.2.4,MacIntel,59.99880002,Chrome,1440,900,,,,,0,567,,,,,,,,,,,,,,,,,D,146,triangle,1,0,,,,,,,,,,,,,,,,repeat,letter,lettRpt,d,0.6025,noRew,,,,,,0,3,0,3,0,1,,,,,,,,,,,,,,,,,
295603,2022-11-15_12h47.28.395,vts_reward_expectancy_bt,2022.2.4,MacIntel,59.99880002,Chrome,1440,900,,,,,0,567,,,,,,,,,,,,,,,,,Y,132,star,1,0,,,,,,,,,,,,,,,,switch,number,numSwt,j,0.8684,noRew,,,,,,0,4,0,4,0,1,,,,,,,,,,,,,,,,,
295603,2022-11-15_12h47.28.395,vts_reward_expectancy_bt,2022.2.4,MacIntel,59.99880002,Chrome,1440,900,,,,,0,567,,,,,,,,,,,,,,,,,U,181,hexagon,1,0,,,,,,,,,,,,,,,,repeat,number,numRpt,k,0.9462,noRew,,,,,,0,5,0,5,0,1,,,,,,,,,,,,,,,,,
295603,2022-11-15_12h47.28.395,vts_reward_expectancy_bt,2022.2.4,MacIntel,59.99880002,Chrome,1440,900,,,,,0,567,,,,,,,,,,,,,,,,,F,160,triangle,1,0,,,,,,,,,,,,,,,,switch,letter,lettSwt,d,0.7631,noRew,,,,,,0,6,0,6,0,1,,,,,,,,,,,,,,,,,
295603,2022-11-15_12h47.28.395,vts_reward_expectancy_bt,2022.2.4,MacIntel,59.99880002,Chrome,1440,900,,,,,0,567,,,,,,,,,,,,,,,,,D,146,circle,1,0,,,,,,,,,,,,,,,,repeat,letter,lettRpt,d,0.8499,noRew,,,,,,0,7,0,7,0,1,,,,,,,,,,,,,,,,,
295603,2022-11-15_12h47.28.395,vts_reward_expectancy_bt,2022.2.4,MacIntel,59.99880002,Chrome,1440,900,,,,,0,567,,,,,,,,,,,,,,,,,Y,167,circle,1,0,,,,,,,,,,,,,,,,switch,number,numSwt,k,0.6485,noRew,,,,,,0,8,0,8,0,1,,,,,,,,,,,,,,,,,
295603,2022-11-15_12h47.28.395,vts_reward_expectancy_bt,2022.2.4,MacIntel,59.99880002,Chrome,1440,900,,,,,0,567,,,,,,,,,,,,,,,,,B,146,hexagon,1,0,,,,,,,,,,,,,,,,repeat,number,numRpt,j,0.8547,noRew,,,,,,0,9,0,9,0,1,,,,,,,,,,,,,,,,,
295603,2022-11-15_12h47.28.395,vts_reward_expectancy_bt,2022.2.4,MacIntel,59.99880002,Chrome,1440,900,,,,,0,567,,,,,,,,,,,,,,,,,S,132,triangle,1,0,,,,,,,,,,,,,,,,repeat,number,numRpt,j,0.6964,noRew,,,,,,0,10,0,10,0,1,,,,,,,,,,,,,,,,,
295603,2022-11-15_12h47.28.395,vts_reward_expectancy_bt,2022.2.4,MacIntel,59.99880002,Chrome,1440,900,,,,,0,567,,,,,,,,,,,,,,,,,W,139,circle,1,0,,,,,,,,,,,,,,,,switch,letter,lettSwt,f,0.7807,noRew,,,,,,0,11,0,11,0,1,,,,,,,,,,,,,,,,,
295603,2022-11-15_12h47.28.395,vts_reward_expectancy_bt,2022.2.4,MacIntel,59.99880002,Chrome,1440,900,,,,,0,567,,,,,,,,,,,,,,,,,B,146,circle,1,0,,,,,,,,,,,,,,,,repeat,letter,lettRpt,d,0.5657,noRew,,,,,,0,12,0,12,0,1,,,,,,,,,,,,,,,,,
295603,2022-11-15_12h47.28.395,vts_reward_expectancy_bt,2022.2.4,MacIntel,59.99880002,Chrome,1440,900,,,,,0,567,,,,,,,,,,,,,,,,,Y,167,star,1,0,,,,,,,,,,,,,,,,repeat,letter,lettRpt,f,0.6636,noRew,,,,,,0,13,0,13,0,1,,,,,,,,,,,,,,,,,
295603,2022-11-15_12h47.28.395,vts_reward_expectancy_bt,2022.2.4,MacIntel,59.99880002,Chrome,1440,900,,,,,0,567,,,,,,,,,,,,,,,,,H,132,circle,1,0,,,,,,,,,,,,,,,,switch,number,numSwt,j,0.7819,noRew,,,,,,0,14,0,14,0,1,,,,,,,,,,,,,,,,,
295603,2022-11-15_12h47.28.395,vts_reward_expectancy_bt,2022.2.4,MacIntel,59.99880002,Chrome,1440,900,,,,,0,567,,,,,,,,,,,,,,,,,S,174,star,1,0,,,,,,,,,,,,,,,,repeat,number,numRpt,k,0.6975,noRew,,,,,,0,15,0,15,0,1,,,,,,,,,,,,,,,,,
295603,2022-11-15_12h47.28.395,vts_reward_expectancy_bt,2022.2.4,MacIntel,59.99880002,Chrome,1440,900,,,,,0,567,,,,,,,,,,,,,,,,,U,125,triangle,1,0,,,,,,,,,,,,,,,,switch,letter,lettSwt,f,0.913,noRew,,,,,,0,16,0,16,0,1,,,,,,,,,,,,,,,,,
295603,2022-11-15_12h47.28.395,vts_reward_expectancy_bt,2022.2.4,MacIntel,59.99880002,Chrome,1440,900,,,,,0,567,,,,,,,,,,,,,,,,,F,132,circle,1,0,,,,,,,,,,,,,,,,repeat,letter,lettRpt,d,0.6806,noRew,,,,,,0,17,0,17,0,1,,,,,,,,,,,,,,,,,
295603,2022-11-15_12h47.28.395,vts_reward_expectancy_bt,2022.2.4,MacIntel,59.99880002,Chrome,1440,900,,,,,0,567,,,,,,,,,,,,,,,,,B,146,hexagon,1,0,,,,,,,,,,,,,,,,switch,number,numSwt,j,1.0318,noRew,,,,,,0,18,0,18,0,1,,,,,,,,,,,,,,,,,
295603,2022-11-15_12h47.28.395,vts_reward_expectancy_bt,2022.2.4,MacIntel,59.99880002,Chrome,1440,900,,,,,0,567,,,,,,,,,,,,,,,,,Y,167,circle,1,0,,,,,,,,,,,,,,,,repeat,number,numRpt,k,0.7301,noRew,,,,,,0,19,0,19,0,1,,,,,,,,,,,,,,,,,
295603,2022-11-15_12h47.28.395,vts_reward_expectancy_bt,2022.2.4,MacIntel,59.99880002,Chrome,1440,900,,,,,0,567,,,,,,,,,,,,,,,,,F,160,triangle,1,0,,,,,,,,,,,,,,,,switch,letter,lettSwt,d,1.4354,noRew,,,,,,0,20,0,20,0,1,,,,,,,,,,,,,,,,,
295603,2022-11-15_12h47.28.395,vts_reward_expectancy_bt,2022.2.4,MacIntel,59.99880002,Chrome,1440,900,,,,,0,567,,,,,,,,,,,,,,,,,B,146,circle,1,0,,,,,,,,,,,,,,,,repeat,letter,lettRpt,d,0.6301,noRew,,,,,,0,21,0,21,0,1,,,,,,,,,,,,,,,,,
295603,2022-11-15_12h47.28.395,vts_reward_expectancy_bt,2022.2.4,MacIntel,59.99880002,Chrome,1440,900,,,,,0,567,,,,,,,,,,,,,,,,,Y,139,star,1,0,,,,,,,,,,,,,,,,switch,number,numSwt,j,0.7125,noRew,,,,,,0,22,0,22,0,1,,,,,,,,,,,,,,,,,
295603,2022-11-15_12h47.28.395,vts_reward_expectancy_bt,2022.2.4,MacIntel,59.99880002,Chrome,1440,900,,,,,0,567,,,,,,,,,,,,,,,,,H,125,hexagon,1,0,,,,,,,,,,,,,,,,repeat,number,numRpt,j,0.8814,noRew,,,,,,0,23,0,23,0,1,,,,,,,,,,,,,,,,,
295603,2022-11-15_12h47.28.395,vts_reward_expectancy_bt,2022.2.4,MacIntel,59.99880002,Chrome,1440,900,,,,,0,567,,,,,,,,,,,,,,,,,D,174,circle,1,0,,,,,,,,,,,,,,,,switch,letter,lettSwt,d,0.897,noRew,,,,,,0,24,0,24,0,1,,,,,,,,,,,,,,,,,
295603,2022-11-15_12h47.28.395,vts_reward_expectancy_bt,2022.2.4,MacIntel,59.99880002,Chrome,1440,900,,,,,0,567,,,,,,,,,,,,,,,,,W,146,triangle,1,0,,,,,,,,,,,,,,,,repeat,letter,lettRpt,f,0.7644,noRew,,,,,,0,25,0,25,0,1,,,,,,,,,,,,,,,,,
295603,2022-11-15_12h47.28.395,vts_reward_expectancy_bt,2022.2.4,MacIntel,59.99880002,Chrome,1440,900,,,,,0,567,,,,,,,,,,,,,,,,,S,160,star,1,0,,,,,,,,,,,,,,,,switch,number,numSwt,k,0.9639,noRew,,,,,,0,26,0,26,0,1,,,,,,,,,,,,,,,,,
295603,2022-11-15_12h47.28.395,vts_reward_expectancy_bt,2022.2.4,MacIntel,59.99880002,Chrome,1440,900,,,,,0,567,,,,,,,,,,,,,,,,,B,132,hexagon,1,0,,,,,,,,,,,,,,,,repeat,number,numRpt,j,0.5791,noRew,,,,,,0,27,0,27,0,1,,,,,,,,,,,,,,,,,
295603,2022-11-15_12h47.28.395,vts_reward_expectancy_bt,2022.2.4,MacIntel,59.99880002,Chrome,1440,900,,,,,0,567,,,,,,,,,,,,,,,,,W,146,triangle,1,0,,,,,,,,,,,,,,,,switch,letter,lettSwt,f,0.6146,noRew,,,,,,0,28,0,28,0,1,,,,,,,,,,,,,,,,,
295603,2022-11-15_12h47.28.395,vts_reward_expectancy_bt,2022.2.4,MacIntel,59.99880002,Chrome,1440,900,,,,,0,567,,,,,,,,,,,,,,,,,H,132,circle,1,0,,,,,,,,,,,,,,,,repeat,letter,lettRpt,d,1.0633,noRew,,,,,,0,29,0,29,0,1,,,,,,,,,,,,,,,,,
295603,2022-11-15_12h47.28.395,vts_reward_expectancy_bt,2022.2.4,MacIntel,59.99880002,Chrome,1440,900,,,,,0,567,,,,,,,,,,,,,,,,,S,139,star,1,0,,,,,,,,,,,,,,,,switch,number,numSwt,j,0.5624,noRew,,,,,,0,30,0,30,0,1,,,,,,,,,,,,,,,,,
295603,2022-11-15_12h47.28.395,vts_reward_expectancy_bt,2022.2.4,MacIntel,59.99880002,Chrome,1440,900,,,,,0,567,,,,,,,,,,,,,,,,,F,174,triangle,1,0,,,,,,,,,,,,,,,,repeat,number,numRpt,k,0.8188,noRew,,,,,,0,31,0,31,0,1,,,,,,,,,,,,,,,,,
295603,2022-11-15_12h47.28.395,vts_reward_expectancy_bt,2022.2.4,MacIntel,59.99880002,Chrome,1440,900,,,,,0,567,,,,,,,,,,,,,,,,,W,132,circle,1,0,,,,,,,,,,,,,,,,repeat,number,numRpt,j,0.8128,noRew,,,,,,0,32,0,32,0,1,,,,,,,,,,,,,,,,,
295603,2022-11-15_12h47.28.395,vts_reward_expectancy_bt,2022.2.4,MacIntel,59.99880002,Chrome,1440,900,,,,,0,567,,,,,,,,,,,,,,,,,F,167,hexagon,1,0,,,,,,,,,,,,,,,,repeat,number,numRpt,k,0.7531,noRew,,,,,,0,33,0,33,0,1,,,,,,,,,,,,,,,,,
295603,2022-11-15_12h47.28.395,vts_reward_expectancy_bt,2022.2.4,MacIntel,59.99880002,Chrome,1440,900,,,,,0,567,,,,,,,,,,,,,,,,,D,139,triangle,1,0,,,,,,,,,,,,,,,,switch,letter,lettSwt,d,0.5328,noRew,,,,,,0,34,0,34,0,1,,,,,,,,,,,,,,,,,
295603,2022-11-15_12h47.28.395,vts_reward_expectancy_bt,2022.2.4,MacIntel,59.99880002,Chrome,1440,900,,,,,0,567,,,,,,,,,,,,,,,,,B,125,circle,1,0,,,,,,,,,,,,,,,,repeat,letter,lettRpt,d,0.6178,noRew,,,,,,0,35,0,35,0,1,,,,,,,,,,,,,,,,,
295603,2022-11-15_12h47.28.395,vts_reward_expectancy_bt,2022.2.4,MacIntel,59.99880002,Chrome,1440,900,,,,,0,567,,,,,,,,,,,,,,,,,U,139,circle,1,0,,,,,,,,,,,,,,,,repeat,letter,lettRpt,f,1.5288,noRew,,,,,,0,36,0,36,0,1,,,,,,,,,,,,,,,,,
295603,2022-11-15_12h47.28.395,vts_reward_expectancy_bt,2022.2.4,MacIntel,59.99880002,Chrome,1440,900,,,,,0,567,,,,,,,,,,,,,,,,,Y,160,triangle,1,0,,,,,,,,,,,,,,,,repeat,letter,lettRpt,f,0.7474,noRew,,,,,,0,37,0,37,0,1,,,,,,,,,,,,,,,,,
295603,2022-11-15_12h47.28.395,vts_reward_expectancy_bt,2022.2.4,MacIntel,59.99880002,Chrome,1440,900,,,,,0,567,,,,,,,,,,,,,,,,,S,174,hexagon,1,0,,,,,,,,,,,,,,,,switch,number,numSwt,k,0.6457,noRew,,,,,,0,38,0,38,0,1,,,,,,,,,,,,,,,,,
295603,2022-11-15_12h47.28.395,vts_reward_expectancy_bt,2022.2.4,MacIntel,59.99880002,Chrome,1440,900,,,,,0,567,,,,,,,,,,,,,,,,,D,125,triangle,1,0,,,,,,,,,,,,,,,,repeat,number,numRpt,j,0.5498,noRew,,,,,,0,39,0,39,0,1,,,,,,,,,,,,,,,,,
295603,2022-11-15_12h47.28.395,vts_reward_expectancy_bt,2022.2.4,MacIntel,59.99880002,Chrome,1440,900,,,,,0,567,,,,,,,,,,,,,,,,,Y,160,circle,1,0,,,,,,,,,,,,,,,,repeat,number,numRpt,k,1.047,noRew,,,,,,0,40,0,40,0,1,,,,,,,,,,,,,,,,,
295603,2022-11-15_12h47.28.395,vts_reward_expectancy_bt,2022.2.4,MacIntel,59.99880002,Chrome,1440,900,,,,,0,567,,,,,,,,,,,,,,,,,D,181,hexagon,1,0,,,,,,,,,,,,,,,,repeat,number,numRpt,k,0.5682,noRew,,,,,,0,41,0,41,0,1,,,,,,,,,,,,,,,,,
295603,2022-11-15_12h47.28.395,vts_reward_expectancy_bt,2022.2.4,MacIntel,59.99880002,Chrome,1440,900,,,,,0,567,,,,,,,,,,,,,,,,,B,146,star,1,0,,,,,,,,,,,,,,,,switch,letter,lettSwt,d,1.5296,noRew,,,,,,0,42,0,42,0,1,,,,,,,,,,,,,,,,,
295603,2022-11-15_12h47.28.395,vts_reward_expectancy_bt,2022.2.4,MacIntel,59.99880002,Chrome,1440,900,,,,,0,567,,,,,,,,,,,,,,,,,W,167,circle,1,0,,,,,,,,,,,,,,,,repeat,letter,lettRpt,f,0.5679,noRew,,,,,,0,43,0,43,0,1,,,,,,,,,,,,,,,,,
295603,2022-11-15_12h47.28.395,vts_reward_expectancy_bt,2022.2.4,MacIntel,59.99880002,Chrome,1440,900,,,,,0,567,,,,,,,,,,,,,,,,,Y,167,triangle,1,0,,,,,,,,,,,,,,,,switch,number,numSwt,k,1.0331,noRew,,,,,,0,44,0,44,0,1,,,,,,,,,,,,,,,,,
295603,2022-11-15_12h47.28.395,vts_reward_expectancy_bt,2022.2.4,MacIntel,59.99880002,Chrome,1440,900,,,,,0,567,,,,,,,,,,,,,,,,,U,125,star,1,0,,,,,,,,,,,,,,,,repeat,number,numRpt,j,0.681,noRew,,,,,,0,45,0,45,0,1,,,,,,,,,,,,,,,,,
295603,2022-11-15_12h47.28.395,vts_reward_expectancy_bt,2022.2.4,MacIntel,59.99880002,Chrome,1440,900,,,,,0,567,,,,,,,,,,,,,,,,,D,146,hexagon,1,0,,,,,,,,,,,,,,,,switch,letter,lettSwt,d,0.6469,noRew,,,,,,0,46,0,46,0,1,,,,,,,,,,,,,,,,,
295603,2022-11-15_12h47.28.395,vts_reward_expectancy_bt,2022.2.4,MacIntel,59.99880002,Chrome,1440,900,,,,,0,567,,,,,,,,,,,,,,,,,H,181,triangle,1,0,,,,,,,,,,,,,,,,repeat,letter,lettRpt,d,1.3393,noRew,,,,,,0,47,0,47,0,1,,,,,,,,,,,,,,,,,
295603,2022-11-15_12h47.28.395,vts_reward_expectancy_bt,2022.2.4,MacIntel,59.99880002,Chrome,1440,900,,,,,0,567,,,,,,,,,,,,,,,,,B,146,hexagon,1,0,,,,,,,,,,,,,,,,switch,number,numSwt,j,0.8461,noRew,,,,,,0,48,0,48,0,1,,,,,,,,,,,,,,,,,
295603,2022-11-15_12h47.28.395,vts_reward_expectancy_bt,2022.2.4,MacIntel,59.99880002,Chrome,1440,900,,,,,0,567,,,,,,,,,,,,,,,,,F,174,triangle,1,0,,,,,,,,,,,,,,,,repeat,number,numRpt,k,0.7807,noRew,,,,,,0,49,0,49,0,1,,,,,,,,,,,,,,,,,
295603,2022-11-15_12h47.28.395,vts_reward_expectancy_bt,2022.2.4,MacIntel,59.99880002,Chrome,1440,900,,,,,0,567,,,,,,,,,,,,,,,,,W,167,triangle,1,0,,,,,,,,,,,,,,,,switch,letter,lettSwt,f,1.0645,noRew,,,,,,0,50,0,50,0,1,,,,,,,,,,,,,,,,,
295603,2022-11-15_12h47.28.395,vts_reward_expectancy_bt,2022.2.4,MacIntel,59.99880002,Chrome,1440,900,,,,,0,567,,,,,,,,,,,,,,,,,U,139,circle,1,0,,,,,,,,,,,,,,,,repeat,letter,lettRpt,f,0.8513,noRew,,,,,,0,51,0,51,0,1,,,,,,,,,,,,,,,,,
295603,2022-11-15_12h47.28.395,vts_reward_expectancy_bt,2022.2.4,MacIntel,59.99880002,Chrome,1440,900,,,,,0,567,,,,,,,,,,,,,,,,,W,125,circle,1,0,,,,,,,,,,,,,,,,switch,number,numSwt,j,0.6041,noRew,,,,,,0,52,0,52,0,1,,,,,,,,,,,,,,,,,
295603,2022-11-15_12h47.28.395,vts_reward_expectancy_bt,2022.2.4,MacIntel,59.99880002,Chrome,1440,900,,,,,0,567,,,,,,,,,,,,,,,,,H,132,star,1,0,,,,,,,,,,,,,,,,repeat,number,numRpt,j,1.4677,noRew,,,,,,0,53,0,53,0,1,,,,,,,,,,,,,,,,,
295603,2022-11-15_12h47.28.395,vts_reward_expectancy_bt,2022.2.4,MacIntel,59.99880002,Chrome,1440,900,,,,,0,567,,,,,,,,,,,,,,,,,F,174,circle,1,0,,,,,,,,,,,,,,,,repeat,number,numRpt,k,0.8827,noRew,,,,,,0,54,0,54,0,1,,,,,,,,,,,,,,,,,
295603,2022-11-15_12h47.28.395,vts_reward_expectancy_bt,2022.2.4,MacIntel,59.99880002,Chrome,1440,900,,,,,0,567,,,,,,,,,,,,,,,,,S,167,triangle,1,0,,,,,,,,,,,,,,,,repeat,number,numRpt,k,0.8313,noRew,,,,,,0,55,0,55,0,1,,,,,,,,,,,,,,,,,
295603,2022-11-15_12h47.28.395,vts_reward_expectancy_bt,2022.2.4,MacIntel,59.99880002,Chrome,1440,900,,,,,0,567,,,,,,,,,,,,,,,,,F,174,star,1,0,,,,,,,,,,,,,,,,switch,letter,lettSwt,d,0.8807,noRew,,,,,,0,56,0,56,0,1,,,,,,,,,,,,,,,,,
295603,2022-11-15_12h47.28.395,vts_reward_expectancy_bt,2022.2.4,MacIntel,59.99880002,Chrome,1440,900,,,,,0,567,,,,,,,,,,,,,,,,,S,167,hexagon,1,0,,,,,,,,,,,,,,,,repeat,letter,lettRpt,f,1.6181,noRew,,,,,,0,57,0,57,0,1,,,,,,,,,,,,,,,,,
295603,2022-11-15_12h47.28.395,vts_reward_expectancy_bt,2022.2.4,MacIntel,59.99880002,Chrome,1440,900,,,,,0,567,,,,,,,,,,,,,,,,,H,181,star,1,0,,,,,,,,,,,,,,,,switch,number,numSwt,k,0.6872,noRew,,,,,,0,58,0,58,0,1,,,,,,,,,,,,,,,,,
295603,2022-11-15_12h47.28.395,vts_reward_expectancy_bt,2022.2.4,MacIntel,59.99880002,Chrome,1440,900,,,,,0,567,,,,,,,,,,,,,,,,,B,139,circle,1,0,,,,,,,,,,,,,,,,repeat,number,numRpt,j,0.929,noRew,,,,,,0,59,0,59,0,1,,,,,,,,,,,,,,,,,
295603,2022-11-15_12h47.28.395,vts_reward_expectancy_bt,2022.2.4,MacIntel,59.99880002,Chrome,1440,900,,,,,0,567,,,,,,,,,,,,,,,,,U,160,triangle,1,0,,,,,,,,,,,,,,,,repeat,number,numRpt,k,1.3019,noRew,,,,,,0,60,0,60,0,1,,,,,,,,,,,,,,,,,
295603,2022-11-15_12h47.28.395,vts_reward_expectancy_bt,2022.2.4,MacIntel,59.99880002,Chrome,1440,900,,,,,0,567,,,,,,,,,,,,,,,,,B,132,circle,1,0,,,,,,,,,,,,,,,,repeat,number,numRpt,j,0.8953,noRew,,,,,,0,61,0,61,0,1,,,,,,,,,,,,,,,,,
295603,2022-11-15_12h47.28.395,vts_reward_expectancy_bt,2022.2.4,MacIntel,59.99880002,Chrome,1440,900,,,,,0,567,,,,,,,,,,,,,,,,,S,139,star,1,0,,,,,,,,,,,,,,,,switch,letter,lettSwt,f,1.2307,noRew,,,,,,0,62,0,62,0,1,,,,,,,,,,,,,,,,,
295603,2022-11-15_12h47.28.395,vts_reward_expectancy_bt,2022.2.4,MacIntel,59.99880002,Chrome,1440,900,,,,,0,567,,,,,,,,,,,,,,,,,H,146,circle,1,0,,,,,,,,,,,,,,,,repeat,letter,lettRpt,d,1.3976,noRew,,,,,,0,63,0,63,0,1,,,,,,,,,,,,,,,,,
295603,2022-11-15_12h47.28.395,vts_reward_expectancy_bt,2022.2.4,MacIntel,59.99880002,Chrome,1440,900,,,,,,,,,,,,,,,,,,,,,,,,,,,,,,,,,,,,,,,,,,,,,,,,,,,,,,,,,,,,,,,,,,,,,,,,,,,,
295603,2022-11-15_12h47.28.395,vts_reward_expectancy_bt,2022.2.4,MacIntel,59.99880002,Chrome,1440,900,,,,,0,567,,,,,,,,,,,,,,,,,Y,167,star,1,0,,,,,,,,,,,,,,,,repeat,letter,lettRpt,f,0.9678,Hi,,,,,,0,,,,,,space,16.5025,high,0,0,0,0,1,,,,,,,,,
295603,2022-11-15_12h47.28.395,vts_reward_expectancy_bt,2022.2.4,MacIntel,59.99880002,Chrome,1440,900,,,,,1,568,,,,,,,,,,,,,,,,,U,146,hexagon,1,0,,,,,,,,,,,,,,,,repeat,letter,lettRpt,f,0.9309,Lo,,,,,,0,,,,,,,,high,1,0,1,0,1,,,,,,,,,
295603,2022-11-15_12h47.28.395,vts_reward_expectancy_bt,2022.2.4,MacIntel,59.99880002,Chrome,1440,900,,,,,10,578,,,,,,,,,,,,,,,,,D,139,circle,1,0,,,,,,,,,,,,,,,,switch,number,numSwt,j,0.5164,Hi,,,,,,0,,,,,,,,high,2,0,2,0,1,,,,,,,,,
295603,2022-11-15_12h47.28.395,vts_reward_expectancy_bt,2022.2.4,MacIntel,59.99880002,Chrome,1440,900,,,,,1,579,,,,,,,,,,,,,,,,,F,174,triangle,1,0,,,,,,,,,,,,,,,,repeat,number,numRpt,k,0.6794,Lo,,,,,,0,,,,,,,,high,3,0,3,0,1,,,,,,,,,
295603,2022-11-15_12h47.28.395,vts_reward_expectancy_bt,2022.2.4,MacIntel,59.99880002,Chrome,1440,900,,,,,10,589,,,,,,,,,,,,,,,,,B,125,star,1,0,,,,,,,,,,,,,,,,repeat,number,numRpt,j,0.6638,Hi,,,,,,0,,,,,,,,high,4,0,4,0,1,,,,,,,,,
295603,2022-11-15_12h47.28.395,vts_reward_expectancy_bt,2022.2.4,MacIntel,59.99880002,Chrome,1440,900,,,,,10,599,,,,,,,,,,,,,,,,,H,181,hexagon,1,0,,,,,,,,,,,,,,,,switch,letter,lettSwt,d,0.764,Lo,,,,,,0,,,,,,,,high,5,0,5,0,1,,,,,,,,,
295603,2022-11-15_12h47.28.395,vts_reward_expectancy_bt,2022.2.4,MacIntel,59.99880002,Chrome,1440,900,,,,,10,609,,,,,,,,,,,,,,,,,W,132,circle,1,0,,,,,,,,,,,,,,,,repeat,letter,lettRpt,f,0.5356,Hi,,,,,,0,,,,,,,,high,6,0,6,0,1,,,,,,,,,
295603,2022-11-15_12h47.28.395,vts_reward_expectancy_bt,2022.2.4,MacIntel,59.99880002,Chrome,1440,900,,,,,1,610,,,,,,,,,,,,,,,,,S,160,triangle,1,0,,,,,,,,,,,,,,,,repeat,letter,lettRpt,f,0.6375,Lo,,,,,,0,,,,,,,,high,7,0,7,0,1,,,,,,,,,
295603,2022-11-15_12h47.28.395,vts_reward_expectancy_bt,2022.2.4,MacIntel,59.99880002,Chrome,1440,900,,,,,1,611,,,,,,,,,,,,,,,,,Y,167,star,1,0,,,,,,,,,,,,,,,,switch,number,numSwt,k,0.514,Hi,,,,,,0,,,,,,,,high,8,0,8,0,1,,,,,,,,,
295603,2022-11-15_12h47.28.395,vts_reward_expectancy_bt,2022.2.4,MacIntel,59.99880002,Chrome,1440,900,,,,,1,612,,,,,,,,,,,,,,,,,U,146,triangle,1,0,,,,,,,,,,,,,,,,repeat,number,numRpt,j,0.5807,Lo,,,,,,0,,,,,,,,high,9,0,9,0,1,,,,,,,,,
295603,2022-11-15_12h47.28.395,vts_reward_expectancy_bt,2022.2.4,MacIntel,59.99880002,Chrome,1440,900,,,,,0,612,,,,,,,,,,,,,,,,,D,139,circle,1,0,,,,,,,,,,,,,,,,repeat,number,numRpt,j,2.1488,Hi,,,,,,0,,,,,,,,high,10,0,10,0,1,,,,,,,,,
295603,2022-11-15_12h47.28.395,vts_reward_expectancy_bt,2022.2.4,MacIntel,59.99880002,Chrome,1440,900,,,,,1,613,,,,,,,,,,,,,,,,,F,174,hexagon,1,0,,,,,,,,,,,,,,,,switch,letter,lettSwt,d,0.5629,Lo,,,,,,0,,,,,,,,high,11,0,11,0,1,,,,,,,,,
295603,2022-11-15_12h47.28.395,vts_reward_expectancy_bt,2022.2.4,MacIntel,59.99880002,Chrome,1440,900,,,,,10,623,,,,,,,,,,,,,,,,,B,125,circle,1,0,,,,,,,,,,,,,,,,switch,number,numSwt,j,0.6387,Hi,,,,,,0,,,,,,,,high,12,0,12,0,1,,,,,,,,,
295603,2022-11-15_12h47.28.395,vts_reward_expectancy_bt,2022.2.4,MacIntel,59.99880002,Chrome,1440,900,,,,,0,623,,,,,,,,,,,,,,,,,H,181,triangle,0,0,,,,,,,,,,,,,,,,repeat,number,NA,j,0.6645,Hi,,,,,,0,,,,,,,,high,13,0,13,0,1,,,,,,,,,
295603,2022-11-15_12h47.28.395,vts_reward_expectancy_bt,2022.2.4,MacIntel,59.99880002,Chrome,1440,900,,,,,0,623,,,,,,,,,,,,,,,,,W,132,star,1,1,,,,,,,,,,,,,,,,repeat,number,numRpt,j,0.8798,Hi,,,,,,0,,,,,,,,high,14,0,14,0,1,,,,,,,,,
295603,2022-11-15_12h47.28.395,vts_reward_expectancy_bt,2022.2.4,MacIntel,59.99880002,Chrome,1440,900,,,,,10,633,,,,,,,,,,,,,,,,,S,160,hexagon,1,0,,,,,,,,,,,,,,,,repeat,number,numRpt,k,0.5638,Lo,,,,,,0,,,,,,,,high,15,0,15,0,1,,,,,,,,,
295603,2022-11-15_12h47.28.395,vts_reward_expectancy_bt,2022.2.4,MacIntel,59.99880002,Chrome,1440,900,,,,,10,643,,,,,,,,,,,,,,,,,D,167,circle,1,0,,,,,,,,,,,,,,,,repeat,number,numRpt,k,0.6166,Hi,,,,,,0,,,,,,,,high,16,0,16,0,1,,,,,,,,,
295603,2022-11-15_12h47.28.395,vts_reward_expectancy_bt,2022.2.4,MacIntel,59.99880002,Chrome,1440,900,,,,,1,644,,,,,,,,,,,,,,,,,B,160,hexagon,1,0,,,,,,,,,,,,,,,,repeat,number,numRpt,k,0.4633,Lo,,,,,,0,,,,,,,,high,17,0,17,0,1,,,,,,,,,
295603,2022-11-15_12h47.28.395,vts_reward_expectancy_bt,2022.2.4,MacIntel,59.99880002,Chrome,1440,900,,,,,1,645,,,,,,,,,,,,,,,,,F,125,star,1,0,,,,,,,,,,,,,,,,switch,letter,lettSwt,d,0.5647,Hi,,,,,,0,,,,,,,,high,18,0,18,0,1,,,,,,,,,
295603,2022-11-15_12h47.28.395,vts_reward_expectancy_bt,2022.2.4,MacIntel,59.99880002,Chrome,1440,900,,,,,1,646,,,,,,,,,,,,,,,,,H,174,triangle,1,0,,,,,,,,,,,,,,,,repeat,letter,lettRpt,d,0.6143,Lo,,,,,,0,,,,,,,,high,19,0,19,0,1,,,,,,,,,
295603,2022-11-15_12h47.28.395,vts_reward_expectancy_bt,2022.2.4,MacIntel,59.99880002,Chrome,1440,900,,,,,10,656,,,,,,,,,,,,,,,,,W,139,circle,1,0,,,,,,,,,,,,,,,,repeat,letter,lettRpt,f,0.5689,Hi,,,,,,0,,,,,,,,high,20,0,20,0,1,,,,,,,,,
295603,2022-11-15_12h47.28.395,vts_reward_expectancy_bt,2022.2.4,MacIntel,59.99880002,Chrome,1440,900,,,,,1,657,,,,,,,,,,,,,,,,,Y,132,hexagon,1,0,,,,,,,,,,,,,,,,repeat,letter,lettRpt,f,0.5802,Lo,,,,,,0,,,,,,,,high,21,0,21,0,1,,,,,,,,,
295603,2022-11-15_12h47.28.395,vts_reward_expectancy_bt,2022.2.4,MacIntel,59.99880002,Chrome,1440,900,,,,,1,658,,,,,,,,,,,,,,,,,S,181,triangle,1,0,,,,,,,,,,,,,,,,switch,number,numSwt,k,0.5308,Lo,,,,,,0,,,,,,,,high,22,0,22,0,1,,,,,,,,,
295603,2022-11-15_12h47.28.395,vts_reward_expectancy_bt,2022.2.4,MacIntel,59.99880002,Chrome,1440,900,,,,,0,658,,,,,,,,,,,,,,,,,U,146,star,1,0,,,,,,,,,,,,,,,,repeat,number,numRpt,j,0.9959,Hi,,,,,,0,,,,,,,,high,23,0,23,0,1,,,,,,,,,
295603,2022-11-15_12h47.28.395,vts_reward_expectancy_bt,2022.2.4,MacIntel,59.99880002,Chrome,1440,900,,,,,10,668,,,,,,,,,,,,,,,,,S,174,star,1,0,,,,,,,,,,,,,,,,repeat,number,numRpt,k,0.5639,Hi,,,,,,0,,,,,,,,high,24,0,24,0,1,,,,,,,,,
295603,2022-11-15_12h47.28.395,vts_reward_expectancy_bt,2022.2.4,MacIntel,59.99880002,Chrome,1440,900,,,,,1,669,,,,,,,,,,,,,,,,,Y,132,triangle,1,0,,,,,,,,,,,,,,,,repeat,number,numRpt,j,0.5812,Lo,,,,,,0,,,,,,,,high,25,0,25,0,1,,,,,,,,,
295603,2022-11-15_12h47.28.395,vts_reward_expectancy_bt,2022.2.4,MacIntel,59.99880002,Chrome,1440,900,,,,,1,670,,,,,,,,,,,,,,,,,D,181,hexagon,1,0,,,,,,,,,,,,,,,,switch,letter,lettSwt,d,0.63,Lo,,,,,,0,,,,,,,,high,26,0,26,0,1,,,,,,,,,
295603,2022-11-15_12h47.28.395,vts_reward_expectancy_bt,2022.2.4,MacIntel,59.99880002,Chrome,1440,900,,,,,10,680,,,,,,,,,,,,,,,,,H,125,circle,1,0,,,,,,,,,,,,,,,,repeat,letter,lettRpt,d,0.6477,Hi,,,,,,0,,,,,,,,high,27,0,27,0,1,,,,,,,,,
295603,2022-11-15_12h47.28.395,vts_reward_expectancy_bt,2022.2.4,MacIntel,59.99880002,Chrome,1440,900,,,,,0,680,,,,,,,,,,,,,,,,,B,160,circle,1,0,,,,,,,,,,,,,,,,repeat,letter,lettRpt,d,0.7309,Hi,,,,,,0,,,,,,,,high,28,0,28,0,1,,,,,,,,,
295603,2022-11-15_12h47.28.395,vts_reward_expectancy_bt,2022.2.4,MacIntel,59.99880002,Chrome,1440,900,,,,,1,681,,,,,,,,,,,,,,,,,U,139,triangle,1,0,,,,,,,,,,,,,,,,repeat,letter,lettRpt,f,0.6804,Lo,,,,,,0,,,,,,,,high,29,0,29,0,1,,,,,,,,,
295603,2022-11-15_12h47.28.395,vts_reward_expectancy_bt,2022.2.4,MacIntel,59.99880002,Chrome,1440,900,,,,,1,682,,,,,,,,,,,,,,,,,W,146,hexagon,1,0,,,,,,,,,,,,,,,,switch,number,numSwt,j,0.6138,Lo,,,,,,0,,,,,,,,high,30,0,30,0,1,,,,,,,,,
295603,2022-11-15_12h47.28.395,vts_reward_expectancy_bt,2022.2.4,MacIntel,59.99880002,Chrome,1440,900,,,,,1,683,,,,,,,,,,,,,,,,,F,167,star,1,0,,,,,,,,,,,,,,,,repeat,number,numRpt,k,0.5336,Hi,,,,,,0,,,,,,,,high,31,0,31,0,1,,,,,,,,,
295603,2022-11-15_12h47.28.395,vts_reward_expectancy_bt,2022.2.4,MacIntel,59.99880002,Chrome,1440,900,,,,,10,693,,,,,,,,,,,,,,,,,H,125,hexagon,1,0,,,,,,,,,,,,,,,,repeat,number,numRpt,j,0.7122,Lo,,,,,,1,,,,,,space,6.4742,high,0,0,0,0,1,,,,,,,,,
295603,2022-11-15_12h47.28.395,vts_reward_expectancy_bt,2022.2.4,MacIntel,59.99880002,Chrome,1440,900,,,,,0,693,,,,,,,,,,,,,,,,,B,167,star,1,0,,,,,,,,,,,,,,,,repeat,number,numRpt,k,0.7128,Hi,,,,,,1,,,,,,,,high,1,0,1,0,1,,,,,,,,,
295603,2022-11-15_12h47.28.395,vts_reward_expectancy_bt,2022.2.4,MacIntel,59.99880002,Chrome,1440,900,,,,,1,694,,,,,,,,,,,,,,,,,U,146,triangle,1,0,,,,,,,,,,,,,,,,repeat,number,numRpt,j,0.5971,Lo,,,,,,1,,,,,,,,high,2,0,2,0,1,,,,,,,,,
295603,2022-11-15_12h47.28.395,vts_reward_expectancy_bt,2022.2.4,MacIntel,59.99880002,Chrome,1440,900,,,,,10,704,,,,,,,,,,,,,,,,,D,181,circle,1,0,,,,,,,,,,,,,,,,repeat,number,numRpt,k,0.5671,Hi,,,,,,1,,,,,,,,high,3,0,3,0,1,,,,,,,,,
295603,2022-11-15_12h47.28.395,vts_reward_expectancy_bt,2022.2.4,MacIntel,59.99880002,Chrome,1440,900,,,,,1,705,,,,,,,,,,,,,,,,,Y,174,hexagon,1,0,,,,,,,,,,,,,,,,switch,letter,lettSwt,f,0.5801,Lo,,,,,,1,,,,,,,,high,4,0,4,0,1,,,,,,,,,
295603,2022-11-15_12h47.28.395,vts_reward_expectancy_bt,2022.2.4,MacIntel,59.99880002,Chrome,1440,900,,,,,10,715,,,,,,,,,,,,,,,,,W,160,star,1,0,,,,,,,,,,,,,,,,repeat,letter,lettRpt,f,0.5614,Hi,,,,,,1,,,,,,,,high,5,0,5,0,1,,,,,,,,,
295603,2022-11-15_12h47.28.395,vts_reward_expectancy_bt,2022.2.4,MacIntel,59.99880002,Chrome,1440,900,,,,,1,716,,,,,,,,,,,,,,,,,F,132,triangle,1,0,,,,,,,,,,,,,,,,switch,number,numSwt,j,0.5288,Lo,,,,,,1,,,,,,,,high,6,0,6,0,1,,,,,,,,,
295603,2022-11-15_12h47.28.395,vts_reward_expectancy_bt,2022.2.4,MacIntel,59.99880002,Chrome,1440,900,,,,,10,726,,,,,,,,,,,,,,,,,S,139,circle,1,0,,,,,,,,,,,,,,,,repeat,number,numRpt,j,0.5317,Hi,,,,,,1,,,,,,,,high,7,0,7,0,1,,,,,,,,,
295603,2022-11-15_12h47.28.395,vts_reward_expectancy_bt,2022.2.4,MacIntel,59.99880002,Chrome,1440,900,,,,,10,736,,,,,,,,,,,,,,,,,H,125,circle,1,0,,,,,,,,,,,,,,,,repeat,number,numRpt,j,0.5357,Hi,,,,,,1,,,,,,,,high,8,0,8,0,1,,,,,,,,,
295603,2022-11-15_12h47.28.395,vts_reward_expectancy_bt,2022.2.4,MacIntel,59.99880002,Chrome,1440,900,,,,,10,746,,,,,,,,,,,,,,,,,B,167,star,1,0,,,,,,,,,,,,,,,,switch,letter,lettSwt,d,0.5139,Hi,,,,,,1,,,,,,,,high,9,0,9,0,1,,,,,,,,,
295603,2022-11-15_12h47.28.395,vts_reward_expectancy_bt,2022.2.4,MacIntel,59.99880002,Chrome,1440,900,,,,,0,746,,,,,,,,,,,,,,,,,U,146,hexagon,0,0,,,,,,,,,,,,,,,,switch,number,NA,k,0.4161,Hi,,,,,,1,,,,,,,,high,10,0,10,0,1,,,,,,,,,
295603,2022-11-15_12h47.28.395,vts_reward_expectancy_bt,2022.2.4,MacIntel,59.99880002,Chrome,1440,900,,,,,1,747,,,,,,,,,,,,,,,,,D,181,triangle,1,1,,,,,,,,,,,,,,,,switch,letter,lettSwt,d,0.5806,Lo,,,,,,1,,,,,,,,high,11,0,11,0,1,,,,,,,,,
295603,2022-11-15_12h47.28.395,vts_reward_expectancy_bt,2022.2.4,MacIntel,59.99880002,Chrome,1440,900,,,,,10,757,,,,,,,,,,,,,,,,,Y,174,triangle,1,0,,,,,,,,,,,,,,,,switch,number,numSwt,k,0.6314,Lo,,,,,,1,,,,,,,,high,12,0,12,0,1,,,,,,,,,
295603,2022-11-15_12h47.28.395,vts_reward_expectancy_bt,2022.2.4,MacIntel,59.99880002,Chrome,1440,900,,,,,1,758,,,,,,,,,,,,,,,,,W,160,hexagon,1,0,,,,,,,,,,,,,,,,repeat,number,numRpt,k,0.6131,Lo,,,,,,1,,,,,,,,high,13,0,13,0,1,,,,,,,,,
295603,2022-11-15_12h47.28.395,vts_reward_expectancy_bt,2022.2.4,MacIntel,59.99880002,Chrome,1440,900,,,,,0,758,,,,,,,,,,,,,,,,,F,132,star,1,0,,,,,,,,,,,,,,,,switch,letter,lettSwt,d,0.6972,Hi,,,,,,1,,,,,,,,high,14,0,14,0,1,,,,,,,,,
295603,2022-11-15_12h47.28.395,vts_reward_expectancy_bt,2022.2.4,MacIntel,59.99880002,Chrome,1440,900,,,,,0,758,,,,,,,,,,,,,,,,,S,139,circle,1,0,,,,,,,,,,,,,,,,repeat,letter,lettRpt,f,0.7483,Hi,,,,,,1,,,,,,,,high,15,0,15,0,1,,,,,,,,,
295603,2022-11-15_12h47.28.395,vts_reward_expectancy_bt,2022.2.4,MacIntel,59.99880002,Chrome,1440,900,,,,,10,768,,,,,,,,,,,,,,,,,S,139,star,1,0,,,,,,,,,,,,,,,,repeat,letter,lettRpt,f,0.6072,Hi,,,,,,1,,,,,,,,high,16,0,16,0,1,,,,,,,,,
295603,2022-11-15_12h47.28.395,vts_reward_expectancy_bt,2022.2.4,MacIntel,59.99880002,Chrome,1440,900,,,,,10,778,,,,,,,,,,,,,,,,,F,160,hexagon,1,0,,,,,,,,,,,,,,,,repeat,letter,lettRpt,d,0.4651,Lo,,,,,,1,,,,,,,,high,17,0,17,0,1,,,,,,,,,
295603,2022-11-15_12h47.28.395,vts_reward_expectancy_bt,2022.2.4,MacIntel,59.99880002,Chrome,1440,900,,,,,0,778,,,,,,,,,,,,,,,,,U,132,circle,1,0,,,,,,,,,,,,,,,,repeat,letter,lettRpt,f,0.832,Hi,,,,,,1,,,,,,,,high,18,0,18,0,1,,,,,,,,,
295603,2022-11-15_12h47.28.395,vts_reward_expectancy_bt,2022.2.4,MacIntel,59.99880002,Chrome,1440,900,,,,,1,779,,,,,,,,,,,,,,,,,B,125,triangle,1,0,,,,,,,,,,,,,,,,switch,number,numSwt,j,0.5306,Lo,,,,,,1,,,,,,,,high,19,0,19,0,1,,,,,,,,,
295603,2022-11-15_12h47.28.395,vts_reward_expectancy_bt,2022.2.4,MacIntel,59.99880002,Chrome,1440,900,,,,,0,779,,,,,,,,,,,,,,,,,Y,174,hexagon,0,0,,,,,,,,,,,,,,,,repeat,number,NA,j,0.7159,Lo,,,,,,1,,,,,,,,high,20,0,20,0,1,,,,,,,,,
295603,2022-11-15_12h47.28.395,vts_reward_expectancy_bt,2022.2.4,MacIntel,59.99880002,Chrome,1440,900,,,,,1,780,,,,,,,,,,,,,,,,,D,181,triangle,1,1,,,,,,,,,,,,,,,,repeat,number,numRpt,k,0.5702,Lo,,,,,,1,,,,,,,,high,21,0,21,0,1,,,,,,,,,
295603,2022-11-15_12h47.28.395,vts_reward_expectancy_bt,2022.2.4,MacIntel,59.99880002,Chrome,1440,900,,,,,0,780,,,,,,,,,,,,,,,,,H,167,circle,1,0,,,,,,,,,,,,,,,,repeat,number,numRpt,k,0.7127,Hi,,,,,,1,,,,,,,,high,22,0,22,0,1,,,,,,,,,
295603,2022-11-15_12h47.28.395,vts_reward_expectancy_bt,2022.2.4,MacIntel,59.99880002,Chrome,1440,900,,,,,0,780,,,,,,,,,,,,,,,,,W,146,star,1,0,,,,,,,,,,,,,,,,repeat,number,numRpt,j,0.6465,Hi,,,,,,1,,,,,,,,high,23,0,23,0,1,,,,,,,,,
295603,2022-11-15_12h47.28.395,vts_reward_expectancy_bt,2022.2.4,MacIntel,59.99880002,Chrome,1440,900,,,,,1,781,,,,,,,,,,,,,,,,,U,174,triangle,1,0,,,,,,,,,,,,,,,,repeat,number,numRpt,k,0.6138,Lo,,,,,,1,,,,,,,,high,24,0,24,0,1,,,,,,,,,
295603,2022-11-15_12h47.28.395,vts_reward_expectancy_bt,2022.2.4,MacIntel,59.99880002,Chrome,1440,900,,,,,1,782,,,,,,,,,,,,,,,,,F,146,hexagon,1,0,,,,,,,,,,,,,,,,repeat,number,numRpt,j,0.5809,Lo,,,,,,1,,,,,,,,high,25,0,25,0,1,,,,,,,,,
295603,2022-11-15_12h47.28.395,vts_reward_expectancy_bt,2022.2.4,MacIntel,59.99880002,Chrome,1440,900,,,,,10,792,,,,,,,,,,,,,,,,,H,160,circle,1,0,,,,,,,,,,,,,,,,repeat,number,numRpt,k,0.5558,Hi,,,,,,1,,,,,,,,high,26,0,26,0,1,,,,,,,,,
295603,2022-11-15_12h47.28.395,vts_reward_expectancy_bt,2022.2.4,MacIntel,59.99880002,Chrome,1440,900,,,,,10,802,,,,,,,,,,,,,,,,,D,125,star,1,0,,,,,,,,,,,,,,,,repeat,number,numRpt,j,0.4522,Hi,,,,,,1,,,,,,,,high,27,0,27,0,1,,,,,,,,,
295603,2022-11-15_12h47.28.395,vts_reward_expectancy_bt,2022.2.4,MacIntel,59.99880002,Chrome,1440,900,,,,,10,812,,,,,,,,,,,,,,,,,B,181,hexagon,1,0,,,,,,,,,,,,,,,,repeat,number,numRpt,k,0.581,Lo,,,,,,1,,,,,,,,high,28,0,28,0,1,,,,,,,,,
295603,2022-11-15_12h47.28.395,vts_reward_expectancy_bt,2022.2.4,MacIntel,59.99880002,Chrome,1440,900,,,,,1,813,,,,,,,,,,,,,,,,,W,167,triangle,1,0,,,,,,,,,,,,,,,,repeat,number,numRpt,k,0.5542,Lo,,,,,,1,,,,,,,,high,29,0,29,0,1,,,,,,,,,
295603,2022-11-15_12h47.28.395,vts_reward_expectancy_bt,2022.2.4,MacIntel,59.99880002,Chrome,1440,900,,,,,0,813,,,,,,,,,,,,,,,,,Y,132,star,1,0,,,,,,,,,,,,,,,,repeat,number,numRpt,j,0.6298,Hi,,,,,,1,,,,,,,,high,30,0,30,0,1,,,,,,,,,
295603,2022-11-15_12h47.28.395,vts_reward_expectancy_bt,2022.2.4,MacIntel,59.99880002,Chrome,1440,900,,,,,1,814,,,,,,,,,,,,,,,,,S,139,circle,1,0,,,,,,,,,,,,,,,,repeat,number,numRpt,j,0.5634,Hi,,,,,,1,,,,,,,,high,31,0,31,0,1,,,,,,,,,
295603,2022-11-15_12h47.28.395,vts_reward_expectancy_bt,2022.2.4,MacIntel,59.99880002,Chrome,1440,900,,,,,0,814,,,,,,,,,,,,,,,,,Y,146,circle,1,0,,,,,,,,,,,,,,,,repeat,number,numRpt,j,0.6136,Hi,,,,,,2,,,,,,space,3.2338,high,0,0,0,0,1,,,,,,,,,
295603,2022-11-15_12h47.28.395,vts_reward_expectancy_bt,2022.2.4,MacIntel,59.99880002,Chrome,1440,900,,,,,1,815,,,,,,,,,,,,,,,,,H,139,triangle,1,0,,,,,,,,,,,,,,,,repeat,number,numRpt,j,0.4968,Lo,,,,,,2,,,,,,,,high,1,0,1,0,1,,,,,,,,,
295603,2022-11-15_12h47.28.395,vts_reward_expectancy_bt,2022.2.4,MacIntel,59.99880002,Chrome,1440,900,,,,,1,816,,,,,,,,,,,,,,,,,W,167,hexagon,1,0,,,,,,,,,,,,,,,,repeat,number,numRpt,k,0.4291,Lo,,,,,,2,,,,,,,,high,2,0,2,0,1,,,,,,,,,
295603,2022-11-15_12h47.28.395,vts_reward_expectancy_bt,2022.2.4,MacIntel,59.99880002,Chrome,1440,900,,,,,10,826,,,,,,,,,,,,,,,,,D,132,star,1,0,,,,,,,,,,,,,,,,repeat,number,numRpt,j,0.493,Hi,,,,,,2,,,,,,,,high,3,0,3,0,1,,,,,,,,,
295603,2022-11-15_12h47.28.395,vts_reward_expectancy_bt,2022.2.4,MacIntel,59.99880002,Chrome,1440,900,,,,,0,826,,,,,,,,,,,,,,,,,B,181,circle,1,0,,,,,,,,,,,,,,,,repeat,number,numRpt,k,0.7208,Hi,,,,,,2,,,,,,,,high,4,0,4,0,1,,,,,,,,,
295603,2022-11-15_12h47.28.395,vts_reward_expectancy_bt,2022.2.4,MacIntel,59.99880002,Chrome,1440,900,,,,,10,836,,,,,,,,,,,,,,,,,F,160,triangle,1,0,,,,,,,,,,,,,,,,switch,letter,lettSwt,d,0.5042,Lo,,,,,,2,,,,,,,,high,5,0,5,0,1,,,,,,,,,
295603,2022-11-15_12h47.28.395,vts_reward_expectancy_bt,2022.2.4,MacIntel,59.99880002,Chrome,1440,900,,,,,1,837,,,,,,,,,,,,,,,,,U,125,hexagon,1,0,,,,,,,,,,,,,,,,repeat,letter,lettRpt,f,0.5664,Lo,,,,,,2,,,,,,,,high,6,0,6,0,1,,,,,,,,,
295603,2022-11-15_12h47.28.395,vts_reward_expectancy_bt,2022.2.4,MacIntel,59.99880002,Chrome,1440,900,,,,,10,847,,,,,,,,,,,,,,,,,S,174,star,1,0,,,,,,,,,,,,,,,,switch,number,numSwt,k,0.4804,Hi,,,,,,2,,,,,,,,high,7,0,7,0,1,,,,,,,,,
295603,2022-11-15_12h47.28.395,vts_reward_expectancy_bt,2022.2.4,MacIntel,59.99880002,Chrome,1440,900,,,,,10,857,,,,,,,,,,,,,,,,,Y,146,triangle,1,0,,,,,,,,,,,,,,,,repeat,number,numRpt,j,0.7972,Lo,,,,,,2,,,,,,,,high,8,0,8,0,1,,,,,,,,,
295603,2022-11-15_12h47.28.395,vts_reward_expectancy_bt,2022.2.4,MacIntel,59.99880002,Chrome,1440,900,,,,,1,858,,,,,,,,,,,,,,,,,H,139,hexagon,1,0,,,,,,,,,,,,,,,,repeat,number,numRpt,j,0.9631,Lo,,,,,,2,,,,,,,,high,9,0,9,0,1,,,,,,,,,
295603,2022-11-15_12h47.28.395,vts_reward_expectancy_bt,2022.2.4,MacIntel,59.99880002,Chrome,1440,900,,,,,10,868,,,,,,,,,,,,,,,,,W,167,star,1,0,,,,,,,,,,,,,,,,repeat,number,numRpt,k,0.5459,Hi,,,,,,2,,,,,,,,high,10,0,10,0,1,,,,,,,,,
295603,2022-11-15_12h47.28.395,vts_reward_expectancy_bt,2022.2.4,MacIntel,59.99880002,Chrome,1440,900,,,,,0,868,,,,,,,,,,,,,,,,,D,132,circle,1,0,,,,,,,,,,,,,,,,repeat,number,numRpt,j,0.829,Hi,,,,,,2,,,,,,,,high,11,0,11,0,1,,,,,,,,,
295603,2022-11-15_12h47.28.395,vts_reward_expectancy_bt,2022.2.4,MacIntel,59.99880002,Chrome,1440,900,,,,,0,868,,,,,,,,,,,,,,,,,B,181,circle,1,0,,,,,,,,,,,,,,,,switch,letter,lettSwt,d,0.6868,Hi,,,,,,2,,,,,,,,high,12,0,12,0,1,,,,,,,,,
295603,2022-11-15_12h47.28.395,vts_reward_expectancy_bt,2022.2.4,MacIntel,59.99880002,Chrome,1440,900,,,,,1,869,,,,,,,,,,,,,,,,,F,160,triangle,1,0,,,,,,,,,,,,,,,,repeat,letter,lettRpt,d,0.6671,Lo,,,,,,2,,,,,,,,high,13,0,13,0,1,,,,,,,,,
295603,2022-11-15_12h47.28.395,vts_reward_expectancy_bt,2022.2.4,MacIntel,59.99880002,Chrome,1440,900,,,,,1,870,,,,,,,,,,,,,,,,,U,125,hexagon,1,0,,,,,,,,,,,,,,,,repeat,letter,lettRpt,f,0.5978,Lo,,,,,,2,,,,,,,,high,14,0,14,0,1,,,,,,,,,
295603,2022-11-15_12h47.28.395,vts_reward_expectancy_bt,2022.2.4,MacIntel,59.99880002,Chrome,1440,900,,,,,0,870,,,,,,,,,,,,,,,,,S,174,star,1,0,,,,,,,,,,,,,,,,repeat,letter,lettRpt,f,0.5799,Hi,,,,,,2,,,,,,,,high,15,0,15,0,1,,,,,,,,,
295603,2022-11-15_12h47.28.395,vts_reward_expectancy_bt,2022.2.4,MacIntel,59.99880002,Chrome,1440,900,,,,,1,871,,,,,,,,,,,,,,,,,F,167,triangle,1,0,,,,,,,,,,,,,,,,repeat,letter,lettRpt,d,0.4372,Lo,,,,,,2,,,,,,,,high,16,0,16,0,1,,,,,,,,,
295603,2022-11-15_12h47.28.395,vts_reward_expectancy_bt,2022.2.4,MacIntel,59.99880002,Chrome,1440,900,,,,,1,872,,,,,,,,,,,,,,,,,Y,132,star,1,0,,,,,,,,,,,,,,,,repeat,letter,lettRpt,f,0.5159,Hi,,,,,,2,,,,,,,,high,17,0,17,0,1,,,,,,,,,
295603,2022-11-15_12h47.28.395,vts_reward_expectancy_bt,2022.2.4,MacIntel,59.99880002,Chrome,1440,900,,,,,1,873,,,,,,,,,,,,,,,,,H,146,hexagon,1,0,,,,,,,,,,,,,,,,switch,number,numSwt,j,0.6305,Lo,,,,,,2,,,,,,,,high,18,0,18,0,1,,,,,,,,,
295603,2022-11-15_12h47.28.395,vts_reward_expectancy_bt,2022.2.4,MacIntel,59.99880002,Chrome,1440,900,,,,,0,873,,,,,,,,,,,,,,,,,U,181,circle,0,0,,,,,,,,,,,,,,,,repeat,number,NA,j,0.4977,Lo,,,,,,2,,,,,,,,high,19,0,19,0,1,,,,,,,,,
295603,2022-11-15_12h47.28.395,vts_reward_expectancy_bt,2022.2.4,MacIntel,59.99880002,Chrome,1440,900,,,,,10,883,,,,,,,,,,,,,,,,,D,125,star,1,1,,,,,,,,,,,,,,,,repeat,number,numRpt,j,0.5315,Hi,,,,,,2,,,,,,,,high,20,0,20,0,1,,,,,,,,,
295603,2022-11-15_12h47.28.395,vts_reward_expectancy_bt,2022.2.4,MacIntel,59.99880002,Chrome,1440,900,,,,,1,884,,,,,,,,,,,,,,,,,B,174,triangle,1,0,,,,,,,,,,,,,,,,repeat,number,numRpt,k,0.5959,Lo,,,,,,2,,,,,,,,high,21,0,21,0,1,,,,,,,,,
295603,2022-11-15_12h47.28.395,vts_reward_expectancy_bt,2022.2.4,MacIntel,59.99880002,Chrome,1440,900,,,,,10,894,,,,,,,,,,,,,,,,,W,160,circle,1,0,,,,,,,,,,,,,,,,repeat,number,numRpt,k,0.5537,Hi,,,,,,2,,,,,,,,high,22,0,22,0,1,,,,,,,,,
295603,2022-11-15_12h47.28.395,vts_reward_expectancy_bt,2022.2.4,MacIntel,59.99880002,Chrome,1440,900,,,,,1,895,,,,,,,,,,,,,,,,,S,139,hexagon,1,0,,,,,,,,,,,,,,,,repeat,number,numRpt,j,0.653,Lo,,,,,,2,,,,,,,,high,23,0,23,0,1,,,,,,,,,
295603,2022-11-15_12h47.28.395,vts_reward_expectancy_bt,2022.2.4,MacIntel,59.99880002,Chrome,1440,900,,,,,1,896,,,,,,,,,,,,,,,,,F,139,triangle,1,0,,,,,,,,,,,,,,,,repeat,number,numRpt,j,0.5661,Lo,,,,,,2,,,,,,,,high,24,0,24,0,1,,,,,,,,,
295603,2022-11-15_12h47.28.395,vts_reward_expectancy_bt,2022.2.4,MacIntel,59.99880002,Chrome,1440,900,,,,,1,897,,,,,,,,,,,,,,,,,H,167,hexagon,1,0,,,,,,,,,,,,,,,,repeat,number,numRpt,k,0.8978,Lo,,,,,,2,,,,,,,,high,25,0,25,0,1,,,,,,,,,
295603,2022-11-15_12h47.28.395,vts_reward_expectancy_bt,2022.2.4,MacIntel,59.99880002,Chrome,1440,900,,,,,10,907,,,,,,,,,,,,,,,,,U,181,star,1,0,,,,,,,,,,,,,,,,repeat,number,numRpt,k,0.5642,Hi,,,,,,2,,,,,,,,high,26,0,26,0,1,,,,,,,,,
295603,2022-11-15_12h47.28.395,vts_reward_expectancy_bt,2022.2.4,MacIntel,59.99880002,Chrome,1440,900,,,,,0,907,,,,,,,,,,,,,,,,,D,160,circle,1,0,,,,,,,,,,,,,,,,repeat,number,numRpt,k,0.6625,Hi,,,,,,2,,,,,,,,high,27,0,27,0,1,,,,,,,,,
295603,2022-11-15_12h47.28.395,vts_reward_expectancy_bt,2022.2.4,MacIntel,59.99880002,Chrome,1440,900,,,,,10,917,,,,,,,,,,,,,,,,,W,146,hexagon,1,0,,,,,,,,,,,,,,,,repeat,number,numRpt,j,0.6718,Lo,,,,,,2,,,,,,,,high,28,0,28,0,1,,,,,,,,,
295603,2022-11-15_12h47.28.395,vts_reward_expectancy_bt,2022.2.4,MacIntel,59.99880002,Chrome,1440,900,,,,,10,927,,,,,,,,,,,,,,,,,S,174,circle,1,0,,,,,,,,,,,,,,,,switch,letter,lettSwt,f,0.5686,Hi,,,,,,2,,,,,,,,high,29,0,29,0,1,,,,,,,,,
295603,2022-11-15_12h47.28.395,vts_reward_expectancy_bt,2022.2.4,MacIntel,59.99880002,Chrome,1440,900,,,,,1,928,,,,,,,,,,,,,,,,,Y,132,star,1,0,,,,,,,,,,,,,,,,repeat,letter,lettRpt,f,0.5292,Hi,,,,,,2,,,,,,,,high,30,0,30,0,1,,,,,,,,,
295603,2022-11-15_12h47.28.395,vts_reward_expectancy_bt,2022.2.4,MacIntel,59.99880002,Chrome,1440,900,,,,,1,929,,,,,,,,,,,,,,,,,B,125,triangle,1,0,,,,,,,,,,,,,,,,switch,number,numSwt,j,0.6144,Lo,,,,,,2,,,,,,,,high,31,0,31,0,1,,,,,,,,,
295603,2022-11-15_12h47.28.395,vts_reward_expectancy_bt,2022.2.4,MacIntel,59.99880002,Chrome,1440,900,,,,,0,929,,,,,,,,,,,,,,,,,D,132,star,1,0,,,,,,,,,,,,,,,,switch,letter,lettSwt,d,0.6316,Hi,,,,,,3,,,,,,space,0.8693,high,0,0,0,0,1,,,,,,,,,
295603,2022-11-15_12h47.28.395,vts_reward_expectancy_bt,2022.2.4,MacIntel,59.99880002,Chrome,1440,900,,,,,1,930,,,,,,,,,,,,,,,,,F,146,hexagon,1,0,,,,,,,,,,,,,,,,repeat,letter,lettRpt,d,0.4971,Lo,,,,,,3,,,,,,,,high,1,0,1,0,1,,,,,,,,,
295603,2022-11-15_12h47.28.395,vts_reward_expectancy_bt,2022.2.4,MacIntel,59.99880002,Chrome,1440,900,,,,,1,931,,,,,,,,,,,,,,,,,B,125,triangle,1,0,,,,,,,,,,,,,,,,repeat,letter,lettRpt,d,0.5487,Lo,,,,,,3,,,,,,,,high,2,0,2,0,1,,,,,,,,,
295603,2022-11-15_12h47.28.395,vts_reward_expectancy_bt,2022.2.4,MacIntel,59.99880002,Chrome,1440,900,,,,,10,941,,,,,,,,,,,,,,,,,H,181,circle,1,0,,,,,,,,,,,,,,,,switch,number,numSwt,k,0.5306,Hi,,,,,,3,,,,,,,,high,3,0,3,0,1,,,,,,,,,
295603,2022-11-15_12h47.28.395,vts_reward_expectancy_bt,2022.2.4,MacIntel,59.99880002,Chrome,1440,900,,,,,0,941,,,,,,,,,,,,,,,,,U,167,star,1,0,,,,,,,,,,,,,,,,repeat,number,numRpt,k,0.5633,Hi,,,,,,3,,,,,,,,high,4,0,4,0,1,,,,,,,,,
295603,2022-11-15_12h47.28.395,vts_reward_expectancy_bt,2022.2.4,MacIntel,59.99880002,Chrome,1440,900,,,,,1,942,,,,,,,,,,,,,,,,,S,139,hexagon,1,0,,,,,,,,,,,,,,,,repeat,number,numRpt,j,0.5371,Lo,,,,,,3,,,,,,,,high,5,0,5,0,1,,,,,,,,,
295603,2022-11-15_12h47.28.395,vts_reward_expectancy_bt,2022.2.4,MacIntel,59.99880002,Chrome,1440,900,,,,,0,942,,,,,,,,,,,,,,,,,W,160,triangle,0,0,,,,,,,,,,,,,,,,repeat,number,NA,j,0.5144,Lo,,,,,,3,,,,,,,,high,6,0,6,0,1,,,,,,,,,
295603,2022-11-15_12h47.28.395,vts_reward_expectancy_bt,2022.2.4,MacIntel,59.99880002,Chrome,1440,900,,,,,0,942,,,,,,,,,,,,,,,,,Y,174,circle,1,1,,,,,,,,,,,,,,,,repeat,number,numRpt,k,0.5965,Hi,,,,,,3,,,,,,,,high,7,0,7,0,1,,,,,,,,,
295603,2022-11-15_12h47.28.395,vts_reward_expectancy_bt,2022.2.4,MacIntel,59.99880002,Chrome,1440,900,,,,,1,943,,,,,,,,,,,,,,,,,D,132,hexagon,1,0,,,,,,,,,,,,,,,,repeat,number,numRpt,j,0.5833,Lo,,,,,,3,,,,,,,,high,8,0,8,0,1,,,,,,,,,
295603,2022-11-15_12h47.28.395,vts_reward_expectancy_bt,2022.2.4,MacIntel,59.99880002,Chrome,1440,900,,,,,0,943,,,,,,,,,,,,,,,,,F,146,star,1,0,,,,,,,,,,,,,,,,repeat,number,numRpt,j,0.7465,Hi,,,,,,3,,,,,,,,high,9,0,9,0,1,,,,,,,,,
295603,2022-11-15_12h47.28.395,vts_reward_expectancy_bt,2022.2.4,MacIntel,59.99880002,Chrome,1440,900,,,,,1,944,,,,,,,,,,,,,,,,,B,125,triangle,1,0,,,,,,,,,,,,,,,,repeat,number,numRpt,j,0.6818,Lo,,,,,,3,,,,,,,,high,10,0,10,0,1,,,,,,,,,
295603,2022-11-15_12h47.28.395,vts_reward_expectancy_bt,2022.2.4,MacIntel,59.99880002,Chrome,1440,900,,,,,0,944,,,,,,,,,,,,,,,,,H,181,circle,1,0,,,,,,,,,,,,,,,,repeat,number,numRpt,k,0.8542,Hi,,,,,,3,,,,,,,,high,11,0,11,0,1,,,,,,,,,
295603,2022-11-15_12h47.28.395,vts_reward_expectancy_bt,2022.2.4,MacIntel,59.99880002,Chrome,1440,900,,,,,10,954,,,,,,,,,,,,,,,,,U,167,hexagon,1,0,,,,,,,,,,,,,,,,repeat,number,numRpt,k,0.696,Lo,,,,,,3,,,,,,,,high,12,0,12,0,1,,,,,,,,,
295603,2022-11-15_12h47.28.395,vts_reward_expectancy_bt,2022.2.4,MacIntel,59.99880002,Chrome,1440,900,,,,,0,954,,,,,,,,,,,,,,,,,S,139,circle,1,0,,,,,,,,,,,,,,,,repeat,number,numRpt,j,0.6479,Hi,,,,,,3,,,,,,,,high,13,0,13,0,1,,,,,,,,,
295603,2022-11-15_12h47.28.395,vts_reward_expectancy_bt,2022.2.4,MacIntel,59.99880002,Chrome,1440,900,,,,,1,955,,,,,,,,,,,,,,,,,W,160,triangle,1,0,,,,,,,,,,,,,,,,repeat,number,numRpt,k,0.6629,Lo,,,,,,3,,,,,,,,high,14,0,14,0,1,,,,,,,,,
295603,2022-11-15_12h47.28.395,vts_reward_expectancy_bt,2022.2.4,MacIntel,59.99880002,Chrome,1440,900,,,,,0,955,,,,,,,,,,,,,,,,,Y,174,star,1,0,,,,,,,,,,,,,,,,switch,letter,lettSwt,f,0.6307,Hi,,,,,,3,,,,,,,,high,15,0,15,0,1,,,,,,,,,
295603,2022-11-15_12h47.28.395,vts_reward_expectancy_bt,2022.2.4,MacIntel,59.99880002,Chrome,1440,900,,,,,1,956,,,,,,,,,,,,,,,,,D,181,star,1,0,,,,,,,,,,,,,,,,repeat,letter,lettRpt,d,0.5003,Hi,,,,,,3,,,,,,,,high,16,0,16,0,1,,,,,,,,,
295603,2022-11-15_12h47.28.395,vts_reward_expectancy_bt,2022.2.4,MacIntel,59.99880002,Chrome,1440,900,,,,,10,966,,,,,,,,,,,,,,,,,W,167,circle,1,0,,,,,,,,,,,,,,,,repeat,letter,lettRpt,f,0.5169,Hi,,,,,,3,,,,,,,,high,17,0,17,0,1,,,,,,,,,
295603,2022-11-15_12h47.28.395,vts_reward_expectancy_bt,2022.2.4,MacIntel,59.99880002,Chrome,1440,900,,,,,1,967,,,,,,,,,,,,,,,,,H,174,hexagon,1,0,,,,,,,,,,,,,,,,repeat,letter,lettRpt,d,0.7536,Lo,,,,,,3,,,,,,,,high,18,0,18,0,1,,,,,,,,,
295603,2022-11-15_12h47.28.395,vts_reward_expectancy_bt,2022.2.4,MacIntel,59.99880002,Chrome,1440,900,,,,,1,968,,,,,,,,,,,,,,,,,B,125,triangle,1,0,,,,,,,,,,,,,,,,repeat,letter,lettRpt,d,0.5307,Lo,,,,,,3,,,,,,,,high,19,0,19,0,1,,,,,,,,,
295603,2022-11-15_12h47.28.395,vts_reward_expectancy_bt,2022.2.4,MacIntel,59.99880002,Chrome,1440,900,,,,,1,969,,,,,,,,,,,,,,,,,Y,132,circle,1,0,,,,,,,,,,,,,,,,repeat,letter,lettRpt,f,0.447,Hi,,,,,,3,,,,,,,,high,20,0,20,0,1,,,,,,,,,
295603,2022-11-15_12h47.28.395,vts_reward_expectancy_bt,2022.2.4,MacIntel,59.99880002,Chrome,1440,900,,,,,1,970,,,,,,,,,,,,,,,,,S,146,triangle,1,0,,,,,,,,,,,,,,,,repeat,letter,lettRpt,f,0.878,Lo,,,,,,3,,,,,,,,high,21,0,21,0,1,,,,,,,,,
295603,2022-11-15_12h47.28.395,vts_reward_expectancy_bt,2022.2.4,MacIntel,59.99880002,Chrome,1440,900,,,,,1,971,,,,,,,,,,,,,,,,,U,160,hexagon,1,0,,,,,,,,,,,,,,,,repeat,letter,lettRpt,f,0.6819,Lo,,,,,,3,,,,,,,,high,22,0,22,0,1,,,,,,,,,
295603,2022-11-15_12h47.28.395,vts_reward_expectancy_bt,2022.2.4,MacIntel,59.99880002,Chrome,1440,900,,,,,0,971,,,,,,,,,,,,,,,,,F,139,star,1,0,,,,,,,,,,,,,,,,repeat,letter,lettRpt,d,0.7487,Hi,,,,,,3,,,,,,,,high,23,0,23,0,1,,,,,,,,,
295603,2022-11-15_12h47.28.395,vts_reward_expectancy_bt,2022.2.4,MacIntel,59.99880002,Chrome,1440,900,,,,,0,971,,,,,,,,,,,,,,,,,D,146,star,1,0,,,,,,,,,,,,,,,,repeat,letter,lettRpt,d,0.5393,Hi,,,,,,3,,,,,,,,high,24,0,24,0,1,,,,,,,,,
295603,2022-11-15_12h47.28.395,vts_reward_expectancy_bt,2022.2.4,MacIntel,59.99880002,Chrome,1440,900,,,,,0,971,,,,,,,,,,,,,,,,,F,167,circle,1,0,,,,,,,,,,,,,,,,repeat,letter,lettRpt,d,0.6003,Hi,,,,,,3,,,,,,,,high,25,0,25,0,1,,,,,,,,,
295603,2022-11-15_12h47.28.395,vts_reward_expectancy_bt,2022.2.4,MacIntel,59.99880002,Chrome,1440,900,,,,,10,981,,,,,,,,,,,,,,,,,S,160,triangle,1,0,,,,,,,,,,,,,,,,repeat,letter,lettRpt,f,0.5821,Lo,,,,,,3,,,,,,,,high,26,0,26,0,1,,,,,,,,,
295603,2022-11-15_12h47.28.395,vts_reward_expectancy_bt,2022.2.4,MacIntel,59.99880002,Chrome,1440,900,,,,,1,982,,,,,,,,,,,,,,,,,H,132,hexagon,1,0,,,,,,,,,,,,,,,,repeat,letter,lettRpt,d,0.5795,Lo,,,,,,3,,,,,,,,high,27,0,27,0,1,,,,,,,,,
295603,2022-11-15_12h47.28.395,vts_reward_expectancy_bt,2022.2.4,MacIntel,59.99880002,Chrome,1440,900,,,,,0,982,,,,,,,,,,,,,,,,,W,139,circle,1,0,,,,,,,,,,,,,,,,repeat,letter,lettRpt,f,0.5481,Hi,,,,,,3,,,,,,,,high,28,0,28,0,1,,,,,,,,,
295603,2022-11-15_12h47.28.395,vts_reward_expectancy_bt,2022.2.4,MacIntel,59.99880002,Chrome,1440,900,,,,,1,983,,,,,,,,,,,,,,,,,B,181,triangle,1,0,,,,,,,,,,,,,,,,repeat,letter,lettRpt,d,0.4331,Lo,,,,,,3,,,,,,,,high,29,0,29,0,1,,,,,,,,,
295603,2022-11-15_12h47.28.395,vts_reward_expectancy_bt,2022.2.4,MacIntel,59.99880002,Chrome,1440,900,,,,,10,993,,,,,,,,,,,,,,,,,Y,174,star,1,0,,,,,,,,,,,,,,,,repeat,letter,lettRpt,f,0.4436,Hi,,,,,,3,,,,,,,,high,30,0,30,0,1,,,,,,,,,
295603,2022-11-15_12h47.28.395,vts_reward_expectancy_bt,2022.2.4,MacIntel,59.99880002,Chrome,1440,900,,,,,1,994,,,,,,,,,,,,,,,,,U,125,hexagon,1,0,,,,,,,,,,,,,,,,repeat,letter,lettRpt,f,0.563,Lo,,,,,,3,,,,,,,,high,31,0,31,0,1,,,,,,,,,
295603,2022-11-15_12h47.28.395,vts_reward_expectancy_bt,2022.2.4,MacIntel,59.99880002,Chrome,1440,900,,,,,10,1004,,,,,,,,,,,,,,,,,H,139,hexagon,1,0,,,,,,,,,,,,,,,,repeat,letter,lettRpt,d,0.5266,Lo,,,,,,4,,,,,,space,15.3865,high,0,0,0,0,1,,,,,,,,,
295603,2022-11-15_12h47.28.395,vts_reward_expectancy_bt,2022.2.4,MacIntel,59.99880002,Chrome,1440,900,,,,,10,1014,,,,,,,,,,,,,,,,,D,132,star,1,0,,,,,,,,,,,,,,,,repeat,letter,lettRpt,d,0.4804,Hi,,,,,,4,,,,,,,,high,1,0,1,0,1,,,,,,,,,
295603,2022-11-15_12h47.28.395,vts_reward_expectancy_bt,2022.2.4,MacIntel,59.99880002,Chrome,1440,900,,,,,1,1015,,,,,,,,,,,,,,,,,S,125,circle,1,0,,,,,,,,,,,,,,,,repeat,letter,lettRpt,f,0.4136,Hi,,,,,,4,,,,,,,,high,2,0,2,0,1,,,,,,,,,
295603,2022-11-15_12h47.28.395,vts_reward_expectancy_bt,2022.2.4,MacIntel,59.99880002,Chrome,1440,900,,,,,1,1016,,,,,,,,,,,,,,,,,U,146,triangle,1,0,,,,,,,,,,,,,,,,repeat,letter,lettRpt,f,0.5794,Lo,,,,,,4,,,,,,,,high,3,0,3,0,1,,,,,,,,,
295603,2022-11-15_12h47.28.395,vts_reward_expectancy_bt,2022.2.4,MacIntel,59.99880002,Chrome,1440,900,,,,,1,1017,,,,,,,,,,,,,,,,,W,174,hexagon,1,0,,,,,,,,,,,,,,,,repeat,letter,lettRpt,f,0.564,Lo,,,,,,4,,,,,,,,high,4,0,4,0,1,,,,,,,,,
295603,2022-11-15_12h47.28.395,vts_reward_expectancy_bt,2022.2.4,MacIntel,59.99880002,Chrome,1440,900,,,,,10,1027,,,,,,,,,,,,,,,,,B,167,star,1,0,,,,,,,,,,,,,,,,repeat,letter,lettRpt,d,0.4136,Hi,,,,,,4,,,,,,,,high,5,0,5,0,1,,,,,,,,,
295603,2022-11-15_12h47.28.395,vts_reward_expectancy_bt,2022.2.4,MacIntel,59.99880002,Chrome,1440,900,,,,,0,1027,,,,,,,,,,,,,,,,,F,181,circle,0,0,,,,,,,,,,,,,,,,repeat,letter,NA,f,0.447,Hi,,,,,,4,,,,,,,,high,6,0,6,0,1,,,,,,,,,
295603,2022-11-15_12h47.28.395,vts_reward_expectancy_bt,2022.2.4,MacIntel,59.99880002,Chrome,1440,900,,,,,1,1028,,,,,,,,,,,,,,,,,Y,160,triangle,1,1,,,,,,,,,,,,,,,,repeat,letter,lettRpt,f,0.5797,Lo,,,,,,4,,,,,,,,high,7,0,7,0,1,,,,,,,,,
295603,2022-11-15_12h47.28.395,vts_reward_expectancy_bt,2022.2.4,MacIntel,59.99880002,Chrome,1440,900,,,,,1,1029,,,,,,,,,,,,,,,,,H,139,hexagon,1,0,,,,,,,,,,,,,,,,repeat,letter,lettRpt,d,0.6179,Lo,,,,,,4,,,,,,,,high,8,0,8,0,1,,,,,,,,,
295603,2022-11-15_12h47.28.395,vts_reward_expectancy_bt,2022.2.4,MacIntel,59.99880002,Chrome,1440,900,,,,,10,1039,,,,,,,,,,,,,,,,,D,132,star,1,0,,,,,,,,,,,,,,,,repeat,letter,lettRpt,d,0.4993,Hi,,,,,,4,,,,,,,,high,9,0,9,0,1,,,,,,,,,
295603,2022-11-15_12h47.28.395,vts_reward_expectancy_bt,2022.2.4,MacIntel,59.99880002,Chrome,1440,900,,,,,1,1040,,,,,,,,,,,,,,,,,S,125,triangle,1,0,,,,,,,,,,,,,,,,repeat,letter,lettRpt,f,0.6629,Lo,,,,,,4,,,,,,,,high,10,0,10,0,1,,,,,,,,,
295603,2022-11-15_12h47.28.395,vts_reward_expectancy_bt,2022.2.4,MacIntel,59.99880002,Chrome,1440,900,,,,,0,1040,,,,,,,,,,,,,,,,,U,146,circle,1,0,,,,,,,,,,,,,,,,repeat,letter,lettRpt,f,0.5806,Hi,,,,,,4,,,,,,,,high,11,0,11,0,1,,,,,,,,,
295603,2022-11-15_12h47.28.395,vts_reward_expectancy_bt,2022.2.4,MacIntel,59.99880002,Chrome,1440,900,,,,,1,1041,,,,,,,,,,,,,,,,,W,174,hexagon,1,0,,,,,,,,,,,,,,,,repeat,letter,lettRpt,f,0.5585,Lo,,,,,,4,,,,,,,,high,12,0,12,0,1,,,,,,,,,
295603,2022-11-15_12h47.28.395,vts_reward_expectancy_bt,2022.2.4,MacIntel,59.99880002,Chrome,1440,900,,,,,1,1042,,,,,,,,,,,,,,,,,B,167,triangle,1,0,,,,,,,,,,,,,,,,repeat,letter,lettRpt,d,0.547,Lo,,,,,,4,,,,,,,,high,13,0,13,0,1,,,,,,,,,
295603,2022-11-15_12h47.28.395,vts_reward_expectancy_bt,2022.2.4,MacIntel,59.99880002,Chrome,1440,900,,,,,0,1042,,,,,,,,,,,,,,,,,F,181,circle,1,0,,,,,,,,,,,,,,,,repeat,letter,lettRpt,d,0.5466,Hi,,,,,,4,,,,,,,,high,14,0,14,0,1,,,,,,,,,
295603,2022-11-15_12h47.28.395,vts_reward_expectancy_bt,2022.2.4,MacIntel,59.99880002,Chrome,1440,900,,,,,0,1042,,,,,,,,,,,,,,,,,Y,160,star,1,0,,,,,,,,,,,,,,,,repeat,letter,lettRpt,f,0.5306,Hi,,,,,,4,,,,,,,,high,15,0,15,0,1,,,,,,,,,
295603,2022-11-15_12h47.28.395,vts_reward_expectancy_bt,2022.2.4,MacIntel,59.99880002,Chrome,1440,900,,,,,1,1043,,,,,,,,,,,,,,,,,Y,132,triangle,1,0,,,,,,,,,,,,,,,,repeat,letter,lettRpt,f,0.5809,Lo,,,,,,4,,,,,,,,high,16,0,16,0,1,,,,,,,,,
295603,2022-11-15_12h47.28.395,vts_reward_expectancy_bt,2022.2.4,MacIntel,59.99880002,Chrome,1440,900,,,,,10,1053,,,,,,,,,,,,,,,,,F,167,circle,1,0,,,,,,,,,,,,,,,,repeat,letter,lettRpt,d,0.4319,Hi,,,,,,4,,,,,,,,high,17,0,17,0,1,,,,,,,,,
295603,2022-11-15_12h47.28.395,vts_reward_expectancy_bt,2022.2.4,MacIntel,59.99880002,Chrome,1440,900,,,,,1,1054,,,,,,,,,,,,,,,,,U,181,star,1,0,,,,,,,,,,,,,,,,repeat,letter,lettRpt,f,0.4812,Hi,,,,,,4,,,,,,,,high,18,0,18,0,1,,,,,,,,,
295603,2022-11-15_12h47.28.395,vts_reward_expectancy_bt,2022.2.4,MacIntel,59.99880002,Chrome,1440,900,,,,,1,1055,,,,,,,,,,,,,,,,,W,125,hexagon,1,0,,,,,,,,,,,,,,,,repeat,letter,lettRpt,f,0.6181,Lo,,,,,,4,,,,,,,,high,19,0,19,0,1,,,,,,,,,
295603,2022-11-15_12h47.28.395,vts_reward_expectancy_bt,2022.2.4,MacIntel,59.99880002,Chrome,1440,900,,,,,0,1055,,,,,,,,,,,,,,,,,S,146,circle,1,0,,,,,,,,,,,,,,,,repeat,letter,lettRpt,f,0.6655,Hi,,,,,,4,,,,,,,,high,20,0,20,0,1,,,,,,,,,
295603,2022-11-15_12h47.28.395,vts_reward_expectancy_bt,2022.2.4,MacIntel,59.99880002,Chrome,1440,900,,,,,0,1055,,,,,,,,,,,,,,,,,H,174,star,1,0,,,,,,,,,,,,,,,,repeat,letter,lettRpt,d,0.9533,Hi,,,,,,4,,,,,,,,high,21,0,21,0,1,,,,,,,,,
295603,2022-11-15_12h47.28.395,vts_reward_expectancy_bt,2022.2.4,MacIntel,59.99880002,Chrome,1440,900,,,,,1,1056,,,,,,,,,,,,,,,,,D,160,triangle,1,0,,,,,,,,,,,,,,,,repeat,letter,lettRpt,d,0.4633,Lo,,,,,,4,,,,,,,,high,22,0,22,0,1,,,,,,,,,
295603,2022-11-15_12h47.28.395,vts_reward_expectancy_bt,2022.2.4,MacIntel,59.99880002,Chrome,1440,900,,,,,1,1057,,,,,,,,,,,,,,,,,B,139,hexagon,1,0,,,,,,,,,,,,,,,,repeat,letter,lettRpt,d,0.581,Lo,,,,,,4,,,,,,,,high,23,0,23,0,1,,,,,,,,,
295603,2022-11-15_12h47.28.395,vts_reward_expectancy_bt,2022.2.4,MacIntel,59.99880002,Chrome,1440,900,,,,,1,1058,,,,,,,,,,,,,,,,,D,125,triangle,1,0,,,,,,,,,,,,,,,,repeat,letter,lettRpt,d,0.4308,Lo,,,,,,4,,,,,,,,high,24,0,24,0,1,,,,,,,,,
295603,2022-11-15_12h47.28.395,vts_reward_expectancy_bt,2022.2.4,MacIntel,59.99880002,Chrome,1440,900,,,,,1,1059,,,,,,,,,,,,,,,,,F,167,hexagon,1,0,,,,,,,,,,,,,,,,repeat,letter,lettRpt,d,0.4976,Lo,,,,,,4,,,,,,,,high,25,0,25,0,1,,,,,,,,,
295603,2022-11-15_12h47.28.395,vts_reward_expectancy_bt,2022.2.4,MacIntel,59.99880002,Chrome,1440,900,,,,,1,1060,,,,,,,,,,,,,,,,,Y,160,circle,1,0,,,,,,,,,,,,,,,,repeat,letter,lettRpt,f,0.5147,Hi,,,,,,4,,,,,,,,high,26,0,26,0,1,,,,,,,,,
295603,2022-11-15_12h47.28.395,vts_reward_expectancy_bt,2022.2.4,MacIntel,59.99880002,Chrome,1440,900,,,,,0,1060,,,,,,,,,,,,,,,,,H,181,star,1,0,,,,,,,,,,,,,,,,repeat,letter,lettRpt,d,0.5679,Hi,,,,,,4,,,,,,,,high,27,0,27,0,1,,,,,,,,,
295603,2022-11-15_12h47.28.395,vts_reward_expectancy_bt,2022.2.4,MacIntel,59.99880002,Chrome,1440,900,,,,,1,1061,,,,,,,,,,,,,,,,,S,146,triangle,1,0,,,,,,,,,,,,,,,,switch,number,numSwt,j,1.0639,Lo,,,,,,4,,,,,,,,high,28,0,28,0,1,,,,,,,,,
295603,2022-11-15_12h47.28.395,vts_reward_expectancy_bt,2022.2.4,MacIntel,59.99880002,Chrome,1440,900,,,,,0,1061,,,,,,,,,,,,,,,,,B,132,star,1,0,,,,,,,,,,,,,,,,repeat,number,numRpt,j,0.5994,Hi,,,,,,4,,,,,,,,high,29,0,29,0,1,,,,,,,,,
295603,2022-11-15_12h47.28.395,vts_reward_expectancy_bt,2022.2.4,MacIntel,59.99880002,Chrome,1440,900,,,,,10,1071,,,,,,,,,,,,,,,,,U,139,circle,1,0,,,,,,,,,,,,,,,,repeat,number,numRpt,j,0.447,Hi,,,,,,4,,,,,,,,high,30,0,30,0,1,,,,,,,,,
295603,2022-11-15_12h47.28.395,vts_reward_expectancy_bt,2022.2.4,MacIntel,59.99880002,Chrome,1440,900,,,,,1,1072,,,,,,,,,,,,,,,,,W,174,hexagon,1,0,,,,,,,,,,,,,,,,repeat,number,numRpt,k,0.4972,Lo,,,,,,4,,,,,,,,high,31,0,31,0,1,,,,,,,,,
295603,2022-11-15_12h47.28.395,vts_reward_expectancy_bt,2022.2.4,MacIntel,59.99880002,Chrome,1440,900,,,,,10,1082,,,,,,,,,,,,,,,,,S,139,hexagon,1,0,,,,,,,,,,,,,,,,repeat,number,numRpt,j,1.4958,Lo,,,,,,5,,,,,,space,1.5733,high,0,0,0,0,1,,,,,,,,,
295603,2022-11-15_12h47.28.395,vts_reward_expectancy_bt,2022.2.4,MacIntel,59.99880002,Chrome,1440,900,,,,,0,1082,,,,,,,,,,,,,,,,,H,160,star,1,0,,,,,,,,,,,,,,,,repeat,number,numRpt,k,0.5146,Hi,,,,,,5,,,,,,,,high,1,0,1,0,1,,,,,,,,,
295603,2022-11-15_12h47.28.395,vts_reward_expectancy_bt,2022.2.4,MacIntel,59.99880002,Chrome,1440,900,,,,,0,1082,,,,,,,,,,,,,,,,,U,174,circle,1,0,,,,,,,,,,,,,,,,repeat,number,numRpt,k,0.5357,Hi,,,,,,5,,,,,,,,high,2,0,2,0,1,,,,,,,,,
295603,2022-11-15_12h47.28.395,vts_reward_expectancy_bt,2022.2.4,MacIntel,59.99880002,Chrome,1440,900,,,,,1,1083,,,,,,,,,,,,,,,,,W,167,triangle,1,0,,,,,,,,,,,,,,,,repeat,number,numRpt,k,0.4968,Lo,,,,,,5,,,,,,,,high,3,0,3,0,1,,,,,,,,,
295603,2022-11-15_12h47.28.395,vts_reward_expectancy_bt,2022.2.4,MacIntel,59.99880002,Chrome,1440,900,,,,,1,1084,,,,,,,,,,,,,,,,,D,132,hexagon,1,0,,,,,,,,,,,,,,,,repeat,number,numRpt,j,0.5309,Lo,,,,,,5,,,,,,,,high,4,0,4,0,1,,,,,,,,,
295603,2022-11-15_12h47.28.395,vts_reward_expectancy_bt,2022.2.4,MacIntel,59.99880002,Chrome,1440,900,,,,,0,1084,,,,,,,,,,,,,,,,,B,181,star,1,0,,,,,,,,,,,,,,,,repeat,number,numRpt,k,0.5286,Hi,,,,,,5,,,,,,,,high,5,0,5,0,1,,,,,,,,,
295603,2022-11-15_12h47.28.395,vts_reward_expectancy_bt,2022.2.4,MacIntel,59.99880002,Chrome,1440,900,,,,,0,1084,,,,,,,,,,,,,,,,,F,146,circle,1,0,,,,,,,,,,,,,,,,repeat,number,numRpt,j,0.5351,Hi,,,,,,5,,,,,,,,high,6,0,6,0,1,,,,,,,,,
295603,2022-11-15_12h47.28.395,vts_reward_expectancy_bt,2022.2.4,MacIntel,59.99880002,Chrome,1440,900,,,,,1,1085,,,,,,,,,,,,,,,,,Y,125,triangle,1,0,,,,,,,,,,,,,,,,repeat,number,numRpt,j,0.4656,Lo,,,,,,5,,,,,,,,high,7,0,7,0,1,,,,,,,,,
295603,2022-11-15_12h47.28.395,vts_reward_expectancy_bt,2022.2.4,MacIntel,59.99880002,Chrome,1440,900,,,,,0,1085,,,,,,,,,,,,,,,,,S,139,star,1,0,,,,,,,,,,,,,,,,repeat,number,numRpt,j,0.5597,Hi,,,,,,5,,,,,,,,high,8,0,8,0,1,,,,,,,,,
295603,2022-11-15_12h47.28.395,vts_reward_expectancy_bt,2022.2.4,MacIntel,59.99880002,Chrome,1440,900,,,,,0,1085,,,,,,,,,,,,,,,,,H,160,circle,1,0,,,,,,,,,,,,,,,,repeat,number,numRpt,k,0.5143,Hi,,,,,,5,,,,,,,,high,9,0,9,0,1,,,,,,,,,
295603,2022-11-15_12h47.28.395,vts_reward_expectancy_bt,2022.2.4,MacIntel,59.99880002,Chrome,1440,900,,,,,1,1086,,,,,,,,,,,,,,,,,U,174,triangle,1,0,,,,,,,,,,,,,,,,repeat,number,numRpt,k,0.5143,Lo,,,,,,5,,,,,,,,high,10,0,10,0,1,,,,,,,,,
295603,2022-11-15_12h47.28.395,vts_reward_expectancy_bt,2022.2.4,MacIntel,59.99880002,Chrome,1440,900,,,,,1,1087,,,,,,,,,,,,,,,,,W,167,hexagon,1,0,,,,,,,,,,,,,,,,repeat,number,numRpt,k,0.835,Lo,,,,,,5,,,,,,,,high,11,0,11,0,1,,,,,,,,,
295603,2022-11-15_12h47.28.395,vts_reward_expectancy_bt,2022.2.4,MacIntel,59.99880002,Chrome,1440,900,,,,,10,1097,,,,,,,,,,,,,,,,,D,132,circle,1,0,,,,,,,,,,,,,,,,repeat,number,numRpt,j,0.4697,Hi,,,,,,5,,,,,,,,high,12,0,12,0,1,,,,,,,,,
295603,2022-11-15_12h47.28.395,vts_reward_expectancy_bt,2022.2.4,MacIntel,59.99880002,Chrome,1440,900,,,,,1,1098,,,,,,,,,,,,,,,,,B,181,triangle,1,0,,,,,,,,,,,,,,,,repeat,number,numRpt,k,0.5299,Lo,,,,,,5,,,,,,,,high,13,0,13,0,1,,,,,,,,,
295603,2022-11-15_12h47.28.395,vts_reward_expectancy_bt,2022.2.4,MacIntel,59.99880002,Chrome,1440,900,,,,,0,1098,,,,,,,,,,,,,,,,,F,146,star,1,0,,,,,,,,,,,,,,,,repeat,number,numRpt,j,0.5818,Hi,,,,,,5,,,,,,,,high,14,0,14,0,1,,,,,,,,,
295603,2022-11-15_12h47.28.395,vts_reward_expectancy_bt,2022.2.4,MacIntel,59.99880002,Chrome,1440,900,,,,,1,1099,,,,,,,,,,,,,,,,,Y,125,hexagon,1,0,,,,,,,,,,,,,,,,repeat,number,numRpt,j,0.5057,Lo,,,,,,5,,,,,,,,high,15,0,15,0,1,,,,,,,,,
295603,2022-11-15_12h47.28.395,vts_reward_expectancy_bt,2022.2.4,MacIntel,59.99880002,Chrome,1440,900,,,,,0,1099,,,,,,,,,,,,,,,,,B,167,star,0,0,,,,,,,,,,,,,,,,repeat,number,NA,j,0.7203,Lo,,,,,,5,,,,,,,,high,16,0,16,0,1,,,,,,,,,
295603,2022-11-15_12h47.28.395,vts_reward_expectancy_bt,2022.2.4,MacIntel,59.99880002,Chrome,1440,900,,,,,1,1100,,,,,,,,,,,,,,,,,H,132,triangle,1,1,,,,,,,,,,,,,,,,repeat,number,numRpt,j,0.5474,Lo,,,,,,5,,,,,,,,high,17,0,17,0,1,,,,,,,,,
295603,2022-11-15_12h47.28.395,vts_reward_expectancy_bt,2022.2.4,MacIntel,59.99880002,Chrome,1440,900,,,,,0,1100,,,,,,,,,,,,,,,,,S,125,circle,1,0,,,,,,,,,,,,,,,,repeat,number,numRpt,j,0.5214,Hi,,,,,,5,,,,,,,,high,18,0,18,0,1,,,,,,,,,
295603,2022-11-15_12h47.28.395,vts_reward_expectancy_bt,2022.2.4,MacIntel,59.99880002,Chrome,1440,900,,,,,1,1101,,,,,,,,,,,,,,,,,W,160,hexagon,1,0,,,,,,,,,,,,,,,,repeat,number,numRpt,k,0.4852,Lo,,,,,,5,,,,,,,,high,19,0,19,0,1,,,,,,,,,
295603,2022-11-15_12h47.28.395,vts_reward_expectancy_bt,2022.2.4,MacIntel,59.99880002,Chrome,1440,900,,,,,1,1102,,,,,,,,,,,,,,,,,F,181,hexagon,1,0,,,,,,,,,,,,,,,,repeat,number,numRpt,k,0.5142,Lo,,,,,,5,,,,,,,,high,20,0,20,0,1,,,,,,,,,
295603,2022-11-15_12h47.28.395,vts_reward_expectancy_bt,2022.2.4,MacIntel,59.99880002,Chrome,1440,900,,,,,1,1103,,,,,,,,,,,,,,,,,D,139,triangle,1,0,,,,,,,,,,,,,,,,repeat,number,numRpt,j,0.5304,Lo,,,,,,5,,,,,,,,high,21,0,21,0,1,,,,,,,,,
295603,2022-11-15_12h47.28.395,vts_reward_expectancy_bt,2022.2.4,MacIntel,59.99880002,Chrome,1440,900,,,,,0,1103,,,,,,,,,,,,,,,,,U,146,circle,1,0,,,,,,,,,,,,,,,,repeat,number,numRpt,j,0.6644,Hi,,,,,,5,,,,,,,,high,22,0,22,0,1,,,,,,,,,
295603,2022-11-15_12h47.28.395,vts_reward_expectancy_bt,2022.2.4,MacIntel,59.99880002,Chrome,1440,900,,,,,0,1103,,,,,,,,,,,,,,,,,Y,174,star,1,0,,,,,,,,,,,,,,,,repeat,number,numRpt,k,0.5301,Hi,,,,,,5,,,,,,,,high,23,0,23,0,1,,,,,,,,,
295603,2022-11-15_12h47.28.395,vts_reward_expectancy_bt,2022.2.4,MacIntel,59.99880002,Chrome,1440,900,,,,,0,1103,,,,,,,,,,,,,,,,,S,160,star,1,0,,,,,,,,,,,,,,,,repeat,number,numRpt,k,0.6828,Hi,,,,,,5,,,,,,,,high,24,0,24,0,1,,,,,,,,,
295603,2022-11-15_12h47.28.395,vts_reward_expectancy_bt,2022.2.4,MacIntel,59.99880002,Chrome,1440,900,,,,,0,1103,,,,,,,,,,,,,,,,,W,146,triangle,0,0,,,,,,,,,,,,,,,,repeat,number,NA,k,0.6187,Hi,,,,,,5,,,,,,,,high,25,0,25,0,1,,,,,,,,,
295603,2022-11-15_12h47.28.395,vts_reward_expectancy_bt,2022.2.4,MacIntel,59.99880002,Chrome,1440,900,,,,,0,1103,,,,,,,,,,,,,,,,,B,174,circle,1,1,,,,,,,,,,,,,,,,repeat,number,numRpt,k,0.5973,Hi,,,,,,5,,,,,,,,high,26,0,26,0,1,,,,,,,,,
295603,2022-11-15_12h47.28.395,vts_reward_expectancy_bt,2022.2.4,MacIntel,59.99880002,Chrome,1440,900,,,,,1,1104,,,,,,,,,,,,,,,,,Y,125,hexagon,1,0,,,,,,,,,,,,,,,,repeat,number,numRpt,j,0.5129,Lo,,,,,,5,,,,,,,,high,27,0,27,0,1,,,,,,,,,
295603,2022-11-15_12h47.28.395,vts_reward_expectancy_bt,2022.2.4,MacIntel,59.99880002,Chrome,1440,900,,,,,0,1104,,,,,,,,,,,,,,,,,F,167,circle,1,0,,,,,,,,,,,,,,,,repeat,number,numRpt,k,0.563,Hi,,,,,,5,,,,,,,,high,28,0,28,0,1,,,,,,,,,
295603,2022-11-15_12h47.28.395,vts_reward_expectancy_bt,2022.2.4,MacIntel,59.99880002,Chrome,1440,900,,,,,0,1104,,,,,,,,,,,,,,,,,D,139,star,1,0,,,,,,,,,,,,,,,,repeat,number,numRpt,j,0.547,Hi,,,,,,5,,,,,,,,high,29,0,29,0,1,,,,,,,,,
295603,2022-11-15_12h47.28.395,vts_reward_expectancy_bt,2022.2.4,MacIntel,59.99880002,Chrome,1440,900,,,,,10,1114,,,,,,,,,,,,,,,,,U,181,hexagon,1,0,,,,,,,,,,,,,,,,repeat,number,numRpt,k,0.5151,Lo,,,,,,5,,,,,,,,high,30,0,30,0,1,,,,,,,,,
295603,2022-11-15_12h47.28.395,vts_reward_expectancy_bt,2022.2.4,MacIntel,59.99880002,Chrome,1440,900,,,,,1,1115,,,,,,,,,,,,,,,,,H,132,triangle,1,0,,,,,,,,,,,,,,,,repeat,number,numRpt,j,0.4635,Lo,,,,,,5,,,,,,,,high,31,0,31,0,1,,,,,,,,,
295603,2022-11-15_12h47.28.395,vts_reward_expectancy_bt,2022.2.4,MacIntel,59.99880002,Chrome,1440,900,,,,,10,1125,,,,,,,,,,,,,,,,,S,174,circle,1,0,,,,,,,,,,,,,,,,switch,letter,lettSwt,f,0.8179,Hi,,,,,,6,,,,,,space,1.601,high,0,0,0,0,1,,,,,,,,,
295603,2022-11-15_12h47.28.395,vts_reward_expectancy_bt,2022.2.4,MacIntel,59.99880002,Chrome,1440,900,,,,,1,1126,,,,,,,,,,,,,,,,,Y,125,triangle,1,0,,,,,,,,,,,,,,,,repeat,letter,lettRpt,f,0.5145,Lo,,,,,,6,,,,,,,,high,1,0,1,0,1,,,,,,,,,
