participant,date,expName,psychopyVersion,OS,frameRate,browser,xResolution,yResolution,key_resp.keys,key_resp.rt,training_resp.keys,training_resp.rt,points_trial,points_cumul,trainBlock,training.thisRepN,training.thisTrialN,training.thisN,training.thisIndex,training.ran,LTriangleOpac,LCircleOpac,LHexagonOpac,LStarOpac,RTriangleOpac,RCircleOpac,RHexagonOpac,RStarOpac,LShape_ID,RShape_ID,curr_topStim,curr_bottStim,curr_shape,acc,E1,target_resp_prac1.keys,pracBlock,task1_prac_trials.thisRepN,task1_prac_trials.thisTrialN,task1_prac_trials.thisN,task1_prac_trials.thisIndex,task1_prac_trials.ran,target_resp_prac1.rt,target_resp_prac2.keys,target_resp_prac2.rt,task2_praac_trials.thisRepN,task2_praac_trials.thisTrialN,task2_praac_trials.thisN,task2_praac_trials.thisIndex,task2_praac_trials.ran,alt,task,condition,target_resp.keys,rewCond,vts_practice_trials.thisRepN,vts_practice_trials.thisTrialN,vts_practice_trials.thisN,vts_practice_trials.thisIndex,vts_practice_trials.ran,target_resp.rt,blockNum,trials_norew.thisRepN,trials_norew.thisTrialN,trials_norew.thisN,trials_norew.thisIndex,trials_norew.ran,key_resp_2.keys,key_resp_2.rt,rewExpectancy,trials_rew.thisRepN,trials_rew.thisTrialN,trials_rew.thisN,trials_rew.thisIndex,trials_rew.ran,Q1,Q2,Q2_text,Q3,Q4,Q5_text,Q5,xRes,yRes
295657,2022-11-21_15h08.03.096,vts_reward_expectancy_bt,2022.2.4,MacIntel,60.0024001,Chrome,1470,956,,,,,,,,,,,,,,,,,,,,,,,,,,,,,,,,,,,,,,,,,,,,,,,,,,,,,,,,,,,,,,,,,,,,,,,,,,,,
295657,2022-11-21_15h08.03.096,vts_reward_expectancy_bt,2022.2.4,MacIntel,60.0024001,Chrome,1470,956,space,26.3251,,,,,,,,,,,,,,,,,,,,,,,,,,,,,,,,,,,,,,,,,,,,,,,,,,,,,,,,,,,,,,,,,,,,,,,,,,
295657,2022-11-21_15h08.03.096,vts_reward_expectancy_bt,2022.2.4,MacIntel,60.0024001,Chrome,1470,956,,,,,,,,,,,,,,,,,,,,,,,,,,,,,,,,,,,,,,,,,,,,,,,,,,,,,,,,,,,,,,,,,,,,,,,,,,,,
295657,2022-11-21_15h08.03.096,vts_reward_expectancy_bt,2022.2.4,MacIntel,60.0024001,Chrome,1470,956,,,l,3.9299,1,1,0,0,0,0,5,1,0,1,0,0,0,0,0,1,circle,star,,,,,,,,,,,,,,,,,,,,,,,,,,,,,,,,,,,,,,,,,,,,,,,,,,,,,,
295657,2022-11-21_15h08.03.096,vts_reward_expectancy_bt,2022.2.4,MacIntel,60.0024001,Chrome,1470,956,,,l,4.7635,10,11,0,0,1,1,7,1,0,0,1,0,0,1,0,0,hexagon,circle,,,,,,,,,,,,,,,,,,,,,,,,,,,,,,,,,,,,,,,,,,,,,,,,,,,,,,
295657,2022-11-21_15h08.03.096,vts_reward_expectancy_bt,2022.2.4,MacIntel,60.0024001,Chrome,1470,956,,,l,1.065,10,21,0,0,2,2,0,1,1,0,0,0,0,1,0,0,triangle,circle,,,,,,,,,,,,,,,,,,,,,,,,,,,,,,,,,,,,,,,,,,,,,,,,,,,,,,
295657,2022-11-21_15h08.03.096,vts_reward_expectancy_bt,2022.2.4,MacIntel,60.0024001,Chrome,1470,956,,,a,0.5659,10,31,0,0,3,3,3,1,0,1,0,0,1,0,0,0,circle,triangle,,,,,,,,,,,,,,,,,,,,,,,,,,,,,,,,,,,,,,,,,,,,,,,,,,,,,,
295657,2022-11-21_15h08.03.096,vts_reward_expectancy_bt,2022.2.4,MacIntel,60.0024001,Chrome,1470,956,,,l,1.1427,10,41,0,0,4,4,9,1,0,0,0,1,1,0,0,0,star,triangle,,,,,,,,,,,,,,,,,,,,,,,,,,,,,,,,,,,,,,,,,,,,,,,,,,,,,,
295657,2022-11-21_15h08.03.096,vts_reward_expectancy_bt,2022.2.4,MacIntel,60.0024001,Chrome,1470,956,,,a,0.8374,10,51,0,0,5,5,1,1,1,0,0,0,0,0,1,0,triangle,hexagon,,,,,,,,,,,,,,,,,,,,,,,,,,,,,,,,,,,,,,,,,,,,,,,,,,,,,,
295657,2022-11-21_15h08.03.096,vts_reward_expectancy_bt,2022.2.4,MacIntel,60.0024001,Chrome,1470,956,,,l,0.6655,10,61,0,0,6,6,10,1,0,0,0,1,0,1,0,0,star ,circle,,,,,,,,,,,,,,,,,,,,,,,,,,,,,,,,,,,,,,,,,,,,,,,,,,,,,,
295657,2022-11-21_15h08.03.096,vts_reward_expectancy_bt,2022.2.4,MacIntel,60.0024001,Chrome,1470,956,,,l,1.0659,10,71,0,0,7,7,6,1,0,0,1,0,1,0,0,0,hexagon,triangle,,,,,,,,,,,,,,,,,,,,,,,,,,,,,,,,,,,,,,,,,,,,,,,,,,,,,,
295657,2022-11-21_15h08.03.096,vts_reward_expectancy_bt,2022.2.4,MacIntel,60.0024001,Chrome,1470,956,,,a,0.8394,10,81,0,0,8,8,4,1,0,1,0,0,0,0,1,0,circle,hexagon,,,,,,,,,,,,,,,,,,,,,,,,,,,,,,,,,,,,,,,,,,,,,,,,,,,,,,
295657,2022-11-21_15h08.03.096,vts_reward_expectancy_bt,2022.2.4,MacIntel,60.0024001,Chrome,1470,956,,,a,0.3987,1,82,0,0,9,9,2,1,1,0,0,0,0,0,0,1,triangle,star,,,,,,,,,,,,,,,,,,,,,,,,,,,,,,,,,,,,,,,,,,,,,,,,,,,,,,
295657,2022-11-21_15h08.03.096,vts_reward_expectancy_bt,2022.2.4,MacIntel,60.0024001,Chrome,1470,956,,,a,1.0171,10,92,0,0,10,10,8,1,0,0,1,0,0,0,0,1,hexagon,star,,,,,,,,,,,,,,,,,,,,,,,,,,,,,,,,,,,,,,,,,,,,,,,,,,,,,,
295657,2022-11-21_15h08.03.096,vts_reward_expectancy_bt,2022.2.4,MacIntel,60.0024001,Chrome,1470,956,,,l,0.6667,10,102,0,0,11,11,11,1,0,0,0,1,0,0,1,0,star,hexagon,,,,,,,,,,,,,,,,,,,,,,,,,,,,,,,,,,,,,,,,,,,,,,,,,,,,,,
295657,2022-11-21_15h08.03.096,vts_reward_expectancy_bt,2022.2.4,MacIntel,60.0024001,Chrome,1470,956,,,l,1.1849,10,112,0,1,0,12,4,1,0,1,0,0,0,0,1,0,circle,hexagon,,,,,,,,,,,,,,,,,,,,,,,,,,,,,,,,,,,,,,,,,,,,,,,,,,,,,,
295657,2022-11-21_15h08.03.096,vts_reward_expectancy_bt,2022.2.4,MacIntel,60.0024001,Chrome,1470,956,,,a,0.4115,1,113,0,1,1,13,7,1,0,0,1,0,0,1,0,0,hexagon,circle,,,,,,,,,,,,,,,,,,,,,,,,,,,,,,,,,,,,,,,,,,,,,,,,,,,,,,
295657,2022-11-21_15h08.03.096,vts_reward_expectancy_bt,2022.2.4,MacIntel,60.0024001,Chrome,1470,956,,,l,0.6583,10,123,0,1,2,14,3,1,0,1,0,0,1,0,0,0,circle,triangle,,,,,,,,,,,,,,,,,,,,,,,,,,,,,,,,,,,,,,,,,,,,,,,,,,,,,,
295657,2022-11-21_15h08.03.096,vts_reward_expectancy_bt,2022.2.4,MacIntel,60.0024001,Chrome,1470,956,,,a,0.6666,10,133,0,1,3,15,1,1,1,0,0,0,0,0,1,0,triangle,hexagon,,,,,,,,,,,,,,,,,,,,,,,,,,,,,,,,,,,,,,,,,,,,,,,,,,,,,,
295657,2022-11-21_15h08.03.096,vts_reward_expectancy_bt,2022.2.4,MacIntel,60.0024001,Chrome,1470,956,,,a,0.6253,10,143,0,1,4,16,6,1,0,0,1,0,1,0,0,0,hexagon,triangle,,,,,,,,,,,,,,,,,,,,,,,,,,,,,,,,,,,,,,,,,,,,,,,,,,,,,,
295657,2022-11-21_15h08.03.096,vts_reward_expectancy_bt,2022.2.4,MacIntel,60.0024001,Chrome,1470,956,,,a,0.5997,10,153,0,1,5,17,0,1,1,0,0,0,0,1,0,0,triangle,circle,,,,,,,,,,,,,,,,,,,,,,,,,,,,,,,,,,,,,,,,,,,,,,,,,,,,,,
295657,2022-11-21_15h08.03.096,vts_reward_expectancy_bt,2022.2.4,MacIntel,60.0024001,Chrome,1470,956,,,l,0.5655,10,163,0,1,6,18,10,1,0,0,0,1,0,1,0,0,star ,circle,,,,,,,,,,,,,,,,,,,,,,,,,,,,,,,,,,,,,,,,,,,,,,,,,,,,,,
295657,2022-11-21_15h08.03.096,vts_reward_expectancy_bt,2022.2.4,MacIntel,60.0024001,Chrome,1470,956,,,a,0.7657,10,173,0,1,7,19,5,1,0,1,0,0,0,0,0,1,circle,star,,,,,,,,,,,,,,,,,,,,,,,,,,,,,,,,,,,,,,,,,,,,,,,,,,,,,,
295657,2022-11-21_15h08.03.096,vts_reward_expectancy_bt,2022.2.4,MacIntel,60.0024001,Chrome,1470,956,,,a,1.0924,10,183,0,1,8,20,11,1,0,0,0,1,0,0,1,0,star,hexagon,,,,,,,,,,,,,,,,,,,,,,,,,,,,,,,,,,,,,,,,,,,,,,,,,,,,,,
295657,2022-11-21_15h08.03.096,vts_reward_expectancy_bt,2022.2.4,MacIntel,60.0024001,Chrome,1470,956,,,l,0.5663,1,184,0,1,9,21,2,1,1,0,0,0,0,0,0,1,triangle,star,,,,,,,,,,,,,,,,,,,,,,,,,,,,,,,,,,,,,,,,,,,,,,,,,,,,,,
295657,2022-11-21_15h08.03.096,vts_reward_expectancy_bt,2022.2.4,MacIntel,60.0024001,Chrome,1470,956,,,l,0.5693,10,194,0,1,10,22,9,1,0,0,0,1,1,0,0,0,star,triangle,,,,,,,,,,,,,,,,,,,,,,,,,,,,,,,,,,,,,,,,,,,,,,,,,,,,,,
295657,2022-11-21_15h08.03.096,vts_reward_expectancy_bt,2022.2.4,MacIntel,60.0024001,Chrome,1470,956,,,a,0.5499,1,195,0,1,11,23,8,1,0,0,1,0,0,0,0,1,hexagon,star,,,,,,,,,,,,,,,,,,,,,,,,,,,,,,,,,,,,,,,,,,,,,,,,,,,,,,
295657,2022-11-21_15h08.03.096,vts_reward_expectancy_bt,2022.2.4,MacIntel,60.0024001,Chrome,1470,956,,,l,1.3411,1,196,0,2,0,24,6,1,0,0,1,0,1,0,0,0,hexagon,triangle,,,,,,,,,,,,,,,,,,,,,,,,,,,,,,,,,,,,,,,,,,,,,,,,,,,,,,
295657,2022-11-21_15h08.03.096,vts_reward_expectancy_bt,2022.2.4,MacIntel,60.0024001,Chrome,1470,956,,,a,0.613,1,197,0,2,1,25,2,1,1,0,0,0,0,0,0,1,triangle,star,,,,,,,,,,,,,,,,,,,,,,,,,,,,,,,,,,,,,,,,,,,,,,,,,,,,,,
295657,2022-11-21_15h08.03.096,vts_reward_expectancy_bt,2022.2.4,MacIntel,60.0024001,Chrome,1470,956,,,a,0.9158,10,207,0,2,2,26,1,1,1,0,0,0,0,0,1,0,triangle,hexagon,,,,,,,,,,,,,,,,,,,,,,,,,,,,,,,,,,,,,,,,,,,,,,,,,,,,,,
295657,2022-11-21_15h08.03.096,vts_reward_expectancy_bt,2022.2.4,MacIntel,60.0024001,Chrome,1470,956,,,a,0.699,1,208,0,2,3,27,7,1,0,0,1,0,0,1,0,0,hexagon,circle,,,,,,,,,,,,,,,,,,,,,,,,,,,,,,,,,,,,,,,,,,,,,,,,,,,,,,
295657,2022-11-21_15h08.03.096,vts_reward_expectancy_bt,2022.2.4,MacIntel,60.0024001,Chrome,1470,956,,,a,0.5497,10,218,0,2,4,28,4,1,0,1,0,0,0,0,1,0,circle,hexagon,,,,,,,,,,,,,,,,,,,,,,,,,,,,,,,,,,,,,,,,,,,,,,,,,,,,,,
295657,2022-11-21_15h08.03.096,vts_reward_expectancy_bt,2022.2.4,MacIntel,60.0024001,Chrome,1470,956,,,a,1.2688,1,219,0,2,5,29,9,1,0,0,0,1,1,0,0,0,star,triangle,,,,,,,,,,,,,,,,,,,,,,,,,,,,,,,,,,,,,,,,,,,,,,,,,,,,,,
295657,2022-11-21_15h08.03.096,vts_reward_expectancy_bt,2022.2.4,MacIntel,60.0024001,Chrome,1470,956,,,a,1.5437,1,220,0,2,6,30,8,1,0,0,1,0,0,0,0,1,hexagon,star,,,,,,,,,,,,,,,,,,,,,,,,,,,,,,,,,,,,,,,,,,,,,,,,,,,,,,
295657,2022-11-21_15h08.03.096,vts_reward_expectancy_bt,2022.2.4,MacIntel,60.0024001,Chrome,1470,956,,,l,1.2106,10,230,0,2,7,31,5,1,0,1,0,0,0,0,0,1,circle,star,,,,,,,,,,,,,,,,,,,,,,,,,,,,,,,,,,,,,,,,,,,,,,,,,,,,,,
295657,2022-11-21_15h08.03.096,vts_reward_expectancy_bt,2022.2.4,MacIntel,60.0024001,Chrome,1470,956,,,l,2.0661,10,240,0,2,8,32,0,1,1,0,0,0,0,1,0,0,triangle,circle,,,,,,,,,,,,,,,,,,,,,,,,,,,,,,,,,,,,,,,,,,,,,,,,,,,,,,
295657,2022-11-21_15h08.03.096,vts_reward_expectancy_bt,2022.2.4,MacIntel,60.0024001,Chrome,1470,956,,,l,0.9101,1,241,0,2,9,33,10,1,0,0,0,1,0,1,0,0,star ,circle,,,,,,,,,,,,,,,,,,,,,,,,,,,,,,,,,,,,,,,,,,,,,,,,,,,,,,
295657,2022-11-21_15h08.03.096,vts_reward_expectancy_bt,2022.2.4,MacIntel,60.0024001,Chrome,1470,956,,,l,0.7596,10,251,0,2,10,34,3,1,0,1,0,0,1,0,0,0,circle,triangle,,,,,,,,,,,,,,,,,,,,,,,,,,,,,,,,,,,,,,,,,,,,,,,,,,,,,,
295657,2022-11-21_15h08.03.096,vts_reward_expectancy_bt,2022.2.4,MacIntel,60.0024001,Chrome,1470,956,,,a,1.1172,10,261,0,2,11,35,11,1,0,0,0,1,0,0,1,0,star,hexagon,,,,,,,,,,,,,,,,,,,,,,,,,,,,,,,,,,,,,,,,,,,,,,,,,,,,,,
295657,2022-11-21_15h08.03.096,vts_reward_expectancy_bt,2022.2.4,MacIntel,60.0024001,Chrome,1470,956,,,a,0.852,10,271,1,0,0,0,4,1,0,1,0,0,0,0,1,0,circle,hexagon,,,,,,,,,,,,,,,,,,,,,,,,,,,,,,,,,,,,,,,,,,,,,,,,,,,,,,
295657,2022-11-21_15h08.03.096,vts_reward_expectancy_bt,2022.2.4,MacIntel,60.0024001,Chrome,1470,956,,,l,0.5887,1,272,1,0,1,1,5,1,0,1,0,0,0,0,0,1,circle,star,,,,,,,,,,,,,,,,,,,,,,,,,,,,,,,,,,,,,,,,,,,,,,,,,,,,,,
295657,2022-11-21_15h08.03.096,vts_reward_expectancy_bt,2022.2.4,MacIntel,60.0024001,Chrome,1470,956,,,a,0.4827,10,282,1,0,2,2,0,1,1,0,0,0,0,1,0,0,triangle,circle,,,,,,,,,,,,,,,,,,,,,,,,,,,,,,,,,,,,,,,,,,,,,,,,,,,,,,
295657,2022-11-21_15h08.03.096,vts_reward_expectancy_bt,2022.2.4,MacIntel,60.0024001,Chrome,1470,956,,,a,0.1488,10,292,1,0,3,3,1,1,1,0,0,0,0,0,1,0,triangle,hexagon,,,,,,,,,,,,,,,,,,,,,,,,,,,,,,,,,,,,,,,,,,,,,,,,,,,,,,
295657,2022-11-21_15h08.03.096,vts_reward_expectancy_bt,2022.2.4,MacIntel,60.0024001,Chrome,1470,956,,,a,0.117,1,293,1,0,4,4,7,1,0,0,1,0,0,1,0,0,hexagon,circle,,,,,,,,,,,,,,,,,,,,,,,,,,,,,,,,,,,,,,,,,,,,,,,,,,,,,,
295657,2022-11-21_15h08.03.096,vts_reward_expectancy_bt,2022.2.4,MacIntel,60.0024001,Chrome,1470,956,,,a,0.6158,1,294,1,0,5,5,9,1,0,0,0,1,1,0,0,0,star,triangle,,,,,,,,,,,,,,,,,,,,,,,,,,,,,,,,,,,,,,,,,,,,,,,,,,,,,,
295657,2022-11-21_15h08.03.096,vts_reward_expectancy_bt,2022.2.4,MacIntel,60.0024001,Chrome,1470,956,,,a,0.4182,1,295,1,0,6,6,6,1,0,0,1,0,1,0,0,0,hexagon,triangle,,,,,,,,,,,,,,,,,,,,,,,,,,,,,,,,,,,,,,,,,,,,,,,,,,,,,,
295657,2022-11-21_15h08.03.096,vts_reward_expectancy_bt,2022.2.4,MacIntel,60.0024001,Chrome,1470,956,,,a,1.1078,1,296,1,0,7,7,8,1,0,0,1,0,0,0,0,1,hexagon,star,,,,,,,,,,,,,,,,,,,,,,,,,,,,,,,,,,,,,,,,,,,,,,,,,,,,,,
295657,2022-11-21_15h08.03.096,vts_reward_expectancy_bt,2022.2.4,MacIntel,60.0024001,Chrome,1470,956,,,a,0.8982,10,306,1,0,8,8,3,1,0,1,0,0,1,0,0,0,circle,triangle,,,,,,,,,,,,,,,,,,,,,,,,,,,,,,,,,,,,,,,,,,,,,,,,,,,,,,
295657,2022-11-21_15h08.03.096,vts_reward_expectancy_bt,2022.2.4,MacIntel,60.0024001,Chrome,1470,956,,,l,0.4498,10,316,1,0,9,9,10,1,0,0,0,1,0,1,0,0,star ,circle,,,,,,,,,,,,,,,,,,,,,,,,,,,,,,,,,,,,,,,,,,,,,,,,,,,,,,
295657,2022-11-21_15h08.03.096,vts_reward_expectancy_bt,2022.2.4,MacIntel,60.0024001,Chrome,1470,956,,,l,0.7912,1,317,1,0,10,10,11,1,0,0,0,1,0,0,1,0,star,hexagon,,,,,,,,,,,,,,,,,,,,,,,,,,,,,,,,,,,,,,,,,,,,,,,,,,,,,,
295657,2022-11-21_15h08.03.096,vts_reward_expectancy_bt,2022.2.4,MacIntel,60.0024001,Chrome,1470,956,,,l,2.1251,1,318,1,0,11,11,2,1,1,0,0,0,0,0,0,1,triangle,star,,,,,,,,,,,,,,,,,,,,,,,,,,,,,,,,,,,,,,,,,,,,,,,,,,,,,,
295657,2022-11-21_15h08.03.096,vts_reward_expectancy_bt,2022.2.4,MacIntel,60.0024001,Chrome,1470,956,,,a,0.7604,10,328,1,1,0,12,3,1,0,1,0,0,1,0,0,0,circle,triangle,,,,,,,,,,,,,,,,,,,,,,,,,,,,,,,,,,,,,,,,,,,,,,,,,,,,,,
295657,2022-11-21_15h08.03.096,vts_reward_expectancy_bt,2022.2.4,MacIntel,60.0024001,Chrome,1470,956,,,a,1.4985,10,338,1,1,1,13,8,1,0,0,1,0,0,0,0,1,hexagon,star,,,,,,,,,,,,,,,,,,,,,,,,,,,,,,,,,,,,,,,,,,,,,,,,,,,,,,
295657,2022-11-21_15h08.03.096,vts_reward_expectancy_bt,2022.2.4,MacIntel,60.0024001,Chrome,1470,956,,,l,1.7092,10,348,1,1,2,14,7,1,0,0,1,0,0,1,0,0,hexagon,circle,,,,,,,,,,,,,,,,,,,,,,,,,,,,,,,,,,,,,,,,,,,,,,,,,,,,,,
295657,2022-11-21_15h08.03.096,vts_reward_expectancy_bt,2022.2.4,MacIntel,60.0024001,Chrome,1470,956,,,a,1.2162,10,358,1,1,3,15,2,1,1,0,0,0,0,0,0,1,triangle,star,,,,,,,,,,,,,,,,,,,,,,,,,,,,,,,,,,,,,,,,,,,,,,,,,,,,,,
295657,2022-11-21_15h08.03.096,vts_reward_expectancy_bt,2022.2.4,MacIntel,60.0024001,Chrome,1470,956,,,l,2.1105,10,368,1,1,4,16,0,1,1,0,0,0,0,1,0,0,triangle,circle,,,,,,,,,,,,,,,,,,,,,,,,,,,,,,,,,,,,,,,,,,,,,,,,,,,,,,
295657,2022-11-21_15h08.03.096,vts_reward_expectancy_bt,2022.2.4,MacIntel,60.0024001,Chrome,1470,956,,,l,9.6798,1,369,1,1,5,17,11,1,0,0,0,1,0,0,1,0,star,hexagon,,,,,,,,,,,,,,,,,,,,,,,,,,,,,,,,,,,,,,,,,,,,,,,,,,,,,,
295657,2022-11-21_15h08.03.096,vts_reward_expectancy_bt,2022.2.4,MacIntel,60.0024001,Chrome,1470,956,,,a,3.9923,10,379,1,1,6,18,1,1,1,0,0,0,0,0,1,0,triangle,hexagon,,,,,,,,,,,,,,,,,,,,,,,,,,,,,,,,,,,,,,,,,,,,,,,,,,,,,,
295657,2022-11-21_15h08.03.096,vts_reward_expectancy_bt,2022.2.4,MacIntel,60.0024001,Chrome,1470,956,,,l,3.6427,1,380,1,1,7,19,10,1,0,0,0,1,0,1,0,0,star ,circle,,,,,,,,,,,,,,,,,,,,,,,,,,,,,,,,,,,,,,,,,,,,,,,,,,,,,,
295657,2022-11-21_15h08.03.096,vts_reward_expectancy_bt,2022.2.4,MacIntel,60.0024001,Chrome,1470,956,,,l,1.4979,10,390,1,1,8,20,5,1,0,1,0,0,0,0,0,1,circle,star,,,,,,,,,,,,,,,,,,,,,,,,,,,,,,,,,,,,,,,,,,,,,,,,,,,,,,
295657,2022-11-21_15h08.03.096,vts_reward_expectancy_bt,2022.2.4,MacIntel,60.0024001,Chrome,1470,956,,,a,2.0622,1,391,1,1,9,21,9,1,0,0,0,1,1,0,0,0,star,triangle,,,,,,,,,,,,,,,,,,,,,,,,,,,,,,,,,,,,,,,,,,,,,,,,,,,,,,
295657,2022-11-21_15h08.03.096,vts_reward_expectancy_bt,2022.2.4,MacIntel,60.0024001,Chrome,1470,956,,,l,4.2097,1,392,1,1,10,22,6,1,0,0,1,0,1,0,0,0,hexagon,triangle,,,,,,,,,,,,,,,,,,,,,,,,,,,,,,,,,,,,,,,,,,,,,,,,,,,,,,
295657,2022-11-21_15h08.03.096,vts_reward_expectancy_bt,2022.2.4,MacIntel,60.0024001,Chrome,1470,956,,,l,1.5759,1,393,1,1,11,23,4,1,0,1,0,0,0,0,1,0,circle,hexagon,,,,,,,,,,,,,,,,,,,,,,,,,,,,,,,,,,,,,,,,,,,,,,,,,,,,,,
295657,2022-11-21_15h08.03.096,vts_reward_expectancy_bt,2022.2.4,MacIntel,60.0024001,Chrome,1470,956,,,l,0.9298,1,394,1,2,0,24,7,1,0,0,1,0,0,1,0,0,hexagon,circle,,,,,,,,,,,,,,,,,,,,,,,,,,,,,,,,,,,,,,,,,,,,,,,,,,,,,,
295657,2022-11-21_15h08.03.096,vts_reward_expectancy_bt,2022.2.4,MacIntel,60.0024001,Chrome,1470,956,,,l,3.4159,10,404,1,2,1,25,0,1,1,0,0,0,0,1,0,0,triangle,circle,,,,,,,,,,,,,,,,,,,,,,,,,,,,,,,,,,,,,,,,,,,,,,,,,,,,,,
295657,2022-11-21_15h08.03.096,vts_reward_expectancy_bt,2022.2.4,MacIntel,60.0024001,Chrome,1470,956,,,l,1.0743,10,414,1,2,2,26,4,1,0,1,0,0,0,0,1,0,circle,hexagon,,,,,,,,,,,,,,,,,,,,,,,,,,,,,,,,,,,,,,,,,,,,,,,,,,,,,,
295657,2022-11-21_15h08.03.096,vts_reward_expectancy_bt,2022.2.4,MacIntel,60.0024001,Chrome,1470,956,,,l,1.5679,1,415,1,2,3,27,1,1,1,0,0,0,0,0,1,0,triangle,hexagon,,,,,,,,,,,,,,,,,,,,,,,,,,,,,,,,,,,,,,,,,,,,,,,,,,,,,,
295657,2022-11-21_15h08.03.096,vts_reward_expectancy_bt,2022.2.4,MacIntel,60.0024001,Chrome,1470,956,,,a,2.5268,10,425,1,2,4,28,3,1,0,1,0,0,1,0,0,0,circle,triangle,,,,,,,,,,,,,,,,,,,,,,,,,,,,,,,,,,,,,,,,,,,,,,,,,,,,,,
295657,2022-11-21_15h08.03.096,vts_reward_expectancy_bt,2022.2.4,MacIntel,60.0024001,Chrome,1470,956,,,l,1.7145,10,435,1,2,5,29,9,1,0,0,0,1,1,0,0,0,star,triangle,,,,,,,,,,,,,,,,,,,,,,,,,,,,,,,,,,,,,,,,,,,,,,,,,,,,,,
295657,2022-11-21_15h08.03.096,vts_reward_expectancy_bt,2022.2.4,MacIntel,60.0024001,Chrome,1470,956,,,a,5.282,1,436,1,2,6,30,6,1,0,0,1,0,1,0,0,0,hexagon,triangle,,,,,,,,,,,,,,,,,,,,,,,,,,,,,,,,,,,,,,,,,,,,,,,,,,,,,,
295657,2022-11-21_15h08.03.096,vts_reward_expectancy_bt,2022.2.4,MacIntel,60.0024001,Chrome,1470,956,,,l,2.4308,1,437,1,2,7,31,8,1,0,0,1,0,0,0,0,1,hexagon,star,,,,,,,,,,,,,,,,,,,,,,,,,,,,,,,,,,,,,,,,,,,,,,,,,,,,,,
295657,2022-11-21_15h08.03.096,vts_reward_expectancy_bt,2022.2.4,MacIntel,60.0024001,Chrome,1470,956,,,l,0.2104,10,447,1,2,8,32,10,1,0,0,0,1,0,1,0,0,star ,circle,,,,,,,,,,,,,,,,,,,,,,,,,,,,,,,,,,,,,,,,,,,,,,,,,,,,,,
295657,2022-11-21_15h08.03.096,vts_reward_expectancy_bt,2022.2.4,MacIntel,60.0024001,Chrome,1470,956,,,a,0.4996,10,457,1,2,9,33,5,1,0,1,0,0,0,0,0,1,circle,star,,,,,,,,,,,,,,,,,,,,,,,,,,,,,,,,,,,,,,,,,,,,,,,,,,,,,,
295657,2022-11-21_15h08.03.096,vts_reward_expectancy_bt,2022.2.4,MacIntel,60.0024001,Chrome,1470,956,,,a,1.0323,1,458,1,2,10,34,11,1,0,0,0,1,0,0,1,0,star,hexagon,,,,,,,,,,,,,,,,,,,,,,,,,,,,,,,,,,,,,,,,,,,,,,,,,,,,,,
295657,2022-11-21_15h08.03.096,vts_reward_expectancy_bt,2022.2.4,MacIntel,60.0024001,Chrome,1470,956,,,a,1.0017,10,468,1,2,11,35,2,1,1,0,0,0,0,0,0,1,triangle,star,,,,,,,,,,,,,,,,,,,,,,,,,,,,,,,,,,,,,,,,,,,,,,,,,,,,,,
295657,2022-11-21_15h08.03.096,vts_reward_expectancy_bt,2022.2.4,MacIntel,60.0024001,Chrome,1470,956,,,a,0.6519,1,469,2,0,0,0,8,1,0,0,1,0,0,0,0,1,hexagon,star,,,,,,,,,,,,,,,,,,,,,,,,,,,,,,,,,,,,,,,,,,,,,,,,,,,,,,
295657,2022-11-21_15h08.03.096,vts_reward_expectancy_bt,2022.2.4,MacIntel,60.0024001,Chrome,1470,956,,,a,0.3151,10,479,2,0,1,1,4,1,0,1,0,0,0,0,1,0,circle,hexagon,,,,,,,,,,,,,,,,,,,,,,,,,,,,,,,,,,,,,,,,,,,,,,,,,,,,,,
295657,2022-11-21_15h08.03.096,vts_reward_expectancy_bt,2022.2.4,MacIntel,60.0024001,Chrome,1470,956,,,a,0.8086,1,480,2,0,2,2,1,1,1,0,0,0,0,0,1,0,triangle,hexagon,,,,,,,,,,,,,,,,,,,,,,,,,,,,,,,,,,,,,,,,,,,,,,,,,,,,,,
295657,2022-11-21_15h08.03.096,vts_reward_expectancy_bt,2022.2.4,MacIntel,60.0024001,Chrome,1470,956,,,l,0.5508,10,490,2,0,3,3,11,1,0,0,0,1,0,0,1,0,star,hexagon,,,,,,,,,,,,,,,,,,,,,,,,,,,,,,,,,,,,,,,,,,,,,,,,,,,,,,
295657,2022-11-21_15h08.03.096,vts_reward_expectancy_bt,2022.2.4,MacIntel,60.0024001,Chrome,1470,956,,,a,0.8494,10,500,2,0,4,4,5,1,0,1,0,0,0,0,0,1,circle,star,,,,,,,,,,,,,,,,,,,,,,,,,,,,,,,,,,,,,,,,,,,,,,,,,,,,,,
295657,2022-11-21_15h08.03.096,vts_reward_expectancy_bt,2022.2.4,MacIntel,60.0024001,Chrome,1470,956,,,l,0.5919,10,510,2,0,5,5,7,1,0,0,1,0,0,1,0,0,hexagon,circle,,,,,,,,,,,,,,,,,,,,,,,,,,,,,,,,,,,,,,,,,,,,,,,,,,,,,,
295657,2022-11-21_15h08.03.096,vts_reward_expectancy_bt,2022.2.4,MacIntel,60.0024001,Chrome,1470,956,,,a,0.4369,10,520,2,0,6,6,3,1,0,1,0,0,1,0,0,0,circle,triangle,,,,,,,,,,,,,,,,,,,,,,,,,,,,,,,,,,,,,,,,,,,,,,,,,,,,,,
295657,2022-11-21_15h08.03.096,vts_reward_expectancy_bt,2022.2.4,MacIntel,60.0024001,Chrome,1470,956,,,a,0.9668,10,530,2,0,7,7,9,1,0,0,0,1,1,0,0,0,star,triangle,,,,,,,,,,,,,,,,,,,,,,,,,,,,,,,,,,,,,,,,,,,,,,,,,,,,,,
295657,2022-11-21_15h08.03.096,vts_reward_expectancy_bt,2022.2.4,MacIntel,60.0024001,Chrome,1470,956,,,a,1.3911,10,540,2,0,8,8,2,1,1,0,0,0,0,0,0,1,triangle,star,,,,,,,,,,,,,,,,,,,,,,,,,,,,,,,,,,,,,,,,,,,,,,,,,,,,,,
295657,2022-11-21_15h08.03.096,vts_reward_expectancy_bt,2022.2.4,MacIntel,60.0024001,Chrome,1470,956,,,a,0.6581,1,541,2,0,9,9,6,1,0,0,1,0,1,0,0,0,hexagon,triangle,,,,,,,,,,,,,,,,,,,,,,,,,,,,,,,,,,,,,,,,,,,,,,,,,,,,,,
295657,2022-11-21_15h08.03.096,vts_reward_expectancy_bt,2022.2.4,MacIntel,60.0024001,Chrome,1470,956,,,l,0.4345,10,551,2,0,10,10,10,1,0,0,0,1,0,1,0,0,star ,circle,,,,,,,,,,,,,,,,,,,,,,,,,,,,,,,,,,,,,,,,,,,,,,,,,,,,,,
295657,2022-11-21_15h08.03.096,vts_reward_expectancy_bt,2022.2.4,MacIntel,60.0024001,Chrome,1470,956,,,l,0.4491,10,561,2,0,11,11,0,1,1,0,0,0,0,1,0,0,triangle,circle,,,,,,,,,,,,,,,,,,,,,,,,,,,,,,,,,,,,,,,,,,,,,,,,,,,,,,
295657,2022-11-21_15h08.03.096,vts_reward_expectancy_bt,2022.2.4,MacIntel,60.0024001,Chrome,1470,956,,,l,0.4854,10,571,2,1,0,12,7,1,0,0,1,0,0,1,0,0,hexagon,circle,,,,,,,,,,,,,,,,,,,,,,,,,,,,,,,,,,,,,,,,,,,,,,,,,,,,,,
295657,2022-11-21_15h08.03.096,vts_reward_expectancy_bt,2022.2.4,MacIntel,60.0024001,Chrome,1470,956,,,a,1.9854,1,572,2,1,1,13,11,1,0,0,0,1,0,0,1,0,star,hexagon,,,,,,,,,,,,,,,,,,,,,,,,,,,,,,,,,,,,,,,,,,,,,,,,,,,,,,
295657,2022-11-21_15h08.03.096,vts_reward_expectancy_bt,2022.2.4,MacIntel,60.0024001,Chrome,1470,956,,,l,1.418,1,573,2,1,2,14,1,1,1,0,0,0,0,0,1,0,triangle,hexagon,,,,,,,,,,,,,,,,,,,,,,,,,,,,,,,,,,,,,,,,,,,,,,,,,,,,,,
295657,2022-11-21_15h08.03.096,vts_reward_expectancy_bt,2022.2.4,MacIntel,60.0024001,Chrome,1470,956,,,a,0.5585,10,583,2,1,3,15,3,1,0,1,0,0,1,0,0,0,circle,triangle,,,,,,,,,,,,,,,,,,,,,,,,,,,,,,,,,,,,,,,,,,,,,,,,,,,,,,
295657,2022-11-21_15h08.03.096,vts_reward_expectancy_bt,2022.2.4,MacIntel,60.0024001,Chrome,1470,956,,,a,0.599,1,584,2,1,4,16,8,1,0,0,1,0,0,0,0,1,hexagon,star,,,,,,,,,,,,,,,,,,,,,,,,,,,,,,,,,,,,,,,,,,,,,,,,,,,,,,
295657,2022-11-21_15h08.03.096,vts_reward_expectancy_bt,2022.2.4,MacIntel,60.0024001,Chrome,1470,956,,,a,0.593,1,585,2,1,5,17,9,1,0,0,0,1,1,0,0,0,star,triangle,,,,,,,,,,,,,,,,,,,,,,,,,,,,,,,,,,,,,,,,,,,,,,,,,,,,,,
295657,2022-11-21_15h08.03.096,vts_reward_expectancy_bt,2022.2.4,MacIntel,60.0024001,Chrome,1470,956,,,l,0.4666,10,595,2,1,6,18,10,1,0,0,0,1,0,1,0,0,star ,circle,,,,,,,,,,,,,,,,,,,,,,,,,,,,,,,,,,,,,,,,,,,,,,,,,,,,,,
295657,2022-11-21_15h08.03.096,vts_reward_expectancy_bt,2022.2.4,MacIntel,60.0024001,Chrome,1470,956,,,l,0.5051,10,605,2,1,7,19,6,1,0,0,1,0,1,0,0,0,hexagon,triangle,,,,,,,,,,,,,,,,,,,,,,,,,,,,,,,,,,,,,,,,,,,,,,,,,,,,,,
295657,2022-11-21_15h08.03.096,vts_reward_expectancy_bt,2022.2.4,MacIntel,60.0024001,Chrome,1470,956,,,l,0.9302,1,606,2,1,8,20,2,1,1,0,0,0,0,0,0,1,triangle,star,,,,,,,,,,,,,,,,,,,,,,,,,,,,,,,,,,,,,,,,,,,,,,,,,,,,,,
295657,2022-11-21_15h08.03.096,vts_reward_expectancy_bt,2022.2.4,MacIntel,60.0024001,Chrome,1470,956,,,l,0.6031,10,616,2,1,9,21,0,1,1,0,0,0,0,1,0,0,triangle,circle,,,,,,,,,,,,,,,,,,,,,,,,,,,,,,,,,,,,,,,,,,,,,,,,,,,,,,
295657,2022-11-21_15h08.03.096,vts_reward_expectancy_bt,2022.2.4,MacIntel,60.0024001,Chrome,1470,956,,,a,0.6835,1,617,2,1,10,22,4,1,0,1,0,0,0,0,1,0,circle,hexagon,,,,,,,,,,,,,,,,,,,,,,,,,,,,,,,,,,,,,,,,,,,,,,,,,,,,,,
295657,2022-11-21_15h08.03.096,vts_reward_expectancy_bt,2022.2.4,MacIntel,60.0024001,Chrome,1470,956,,,a,0.4187,10,627,2,1,11,23,5,1,0,1,0,0,0,0,0,1,circle,star,,,,,,,,,,,,,,,,,,,,,,,,,,,,,,,,,,,,,,,,,,,,,,,,,,,,,,
295657,2022-11-21_15h08.03.096,vts_reward_expectancy_bt,2022.2.4,MacIntel,60.0024001,Chrome,1470,956,,,a,0.4149,10,637,2,2,0,24,3,1,0,1,0,0,1,0,0,0,circle,triangle,,,,,,,,,,,,,,,,,,,,,,,,,,,,,,,,,,,,,,,,,,,,,,,,,,,,,,
295657,2022-11-21_15h08.03.096,vts_reward_expectancy_bt,2022.2.4,MacIntel,60.0024001,Chrome,1470,956,,,l,0.3907,10,647,2,2,1,25,0,1,1,0,0,0,0,1,0,0,triangle,circle,,,,,,,,,,,,,,,,,,,,,,,,,,,,,,,,,,,,,,,,,,,,,,,,,,,,,,
295657,2022-11-21_15h08.03.096,vts_reward_expectancy_bt,2022.2.4,MacIntel,60.0024001,Chrome,1470,956,,,a,0.8402,10,657,2,2,2,26,1,1,1,0,0,0,0,0,1,0,triangle,hexagon,,,,,,,,,,,,,,,,,,,,,,,,,,,,,,,,,,,,,,,,,,,,,,,,,,,,,,
295657,2022-11-21_15h08.03.096,vts_reward_expectancy_bt,2022.2.4,MacIntel,60.0024001,Chrome,1470,956,,,a,0.9141,10,667,2,2,3,27,2,1,1,0,0,0,0,0,0,1,triangle,star,,,,,,,,,,,,,,,,,,,,,,,,,,,,,,,,,,,,,,,,,,,,,,,,,,,,,,
295657,2022-11-21_15h08.03.096,vts_reward_expectancy_bt,2022.2.4,MacIntel,60.0024001,Chrome,1470,956,,,l,0.5151,1,668,2,2,4,28,6,1,0,0,1,0,1,0,0,0,hexagon,triangle,,,,,,,,,,,,,,,,,,,,,,,,,,,,,,,,,,,,,,,,,,,,,,,,,,,,,,
295657,2022-11-21_15h08.03.096,vts_reward_expectancy_bt,2022.2.4,MacIntel,60.0024001,Chrome,1470,956,,,l,0.7237,10,678,2,2,5,29,9,1,0,0,0,1,1,0,0,0,star,triangle,,,,,,,,,,,,,,,,,,,,,,,,,,,,,,,,,,,,,,,,,,,,,,,,,,,,,,
295657,2022-11-21_15h08.03.096,vts_reward_expectancy_bt,2022.2.4,MacIntel,60.0024001,Chrome,1470,956,,,l,0.6594,10,688,2,2,6,30,7,1,0,0,1,0,0,1,0,0,hexagon,circle,,,,,,,,,,,,,,,,,,,,,,,,,,,,,,,,,,,,,,,,,,,,,,,,,,,,,,
295657,2022-11-21_15h08.03.096,vts_reward_expectancy_bt,2022.2.4,MacIntel,60.0024001,Chrome,1470,956,,,a,2.0997,1,689,2,2,7,31,8,1,0,0,1,0,0,0,0,1,hexagon,star,,,,,,,,,,,,,,,,,,,,,,,,,,,,,,,,,,,,,,,,,,,,,,,,,,,,,,
295657,2022-11-21_15h08.03.096,vts_reward_expectancy_bt,2022.2.4,MacIntel,60.0024001,Chrome,1470,956,,,a,0.4258,10,699,2,2,8,32,4,1,0,1,0,0,0,0,1,0,circle,hexagon,,,,,,,,,,,,,,,,,,,,,,,,,,,,,,,,,,,,,,,,,,,,,,,,,,,,,,
295657,2022-11-21_15h08.03.096,vts_reward_expectancy_bt,2022.2.4,MacIntel,60.0024001,Chrome,1470,956,,,a,0.3007,10,709,2,2,9,33,5,1,0,1,0,0,0,0,0,1,circle,star,,,,,,,,,,,,,,,,,,,,,,,,,,,,,,,,,,,,,,,,,,,,,,,,,,,,,,
295657,2022-11-21_15h08.03.096,vts_reward_expectancy_bt,2022.2.4,MacIntel,60.0024001,Chrome,1470,956,,,a,0.7945,1,710,2,2,10,34,11,1,0,0,0,1,0,0,1,0,star,hexagon,,,,,,,,,,,,,,,,,,,,,,,,,,,,,,,,,,,,,,,,,,,,,,,,,,,,,,
295657,2022-11-21_15h08.03.096,vts_reward_expectancy_bt,2022.2.4,MacIntel,60.0024001,Chrome,1470,956,,,l,0.5492,10,720,2,2,11,35,10,1,0,0,0,1,0,1,0,0,star ,circle,,,,,,,,,,,,,,,,,,,,,,,,,,,,,,,,,,,,,,,,,,,,,,,,,,,,,,
295657,2022-11-21_15h08.03.096,vts_reward_expectancy_bt,2022.2.4,MacIntel,60.0024001,Chrome,1470,956,,,,,,,,,,,,,,,,,,,,,,,D,160,hexagon,0,0,,0,0,0,0,0,1,,,,,,,,,,,,,,,,,,,,,,,,,,,,,,,,,,,,,,,,,,
295657,2022-11-21_15h08.03.096,vts_reward_expectancy_bt,2022.2.4,MacIntel,60.0024001,Chrome,1470,956,,,,,,,,,,,,,,,,,,,,,,,F,181,triangle,0,1,f,0,1,0,1,0,1,1.652,,,,,,,,,,,,,,,,,,,,,,,,,,,,,,,,,,,,,,,,,
295657,2022-11-21_15h08.03.096,vts_reward_expectancy_bt,2022.2.4,MacIntel,60.0024001,Chrome,1470,956,,,,,,,,,,,,,,,,,,,,,,,W,132,star,0,1,d,0,2,0,2,0,1,0.514,,,,,,,,,,,,,,,,,,,,,,,,,,,,,,,,,,,,,,,,,
295657,2022-11-21_15h08.03.096,vts_reward_expectancy_bt,2022.2.4,MacIntel,60.0024001,Chrome,1470,956,,,,,,,,,,,,,,,,,,,,,,,Y,125,circle,1,1,f,0,3,0,3,0,1,0.4141,,,,,,,,,,,,,,,,,,,,,,,,,,,,,,,,,,,,,,,,,
295657,2022-11-21_15h08.03.096,vts_reward_expectancy_bt,2022.2.4,MacIntel,60.0024001,Chrome,1470,956,,,,,,,,,,,,,,,,,,,,,,,H,146,hexagon,1,0,d,0,4,0,4,0,1,1.3691,,,,,,,,,,,,,,,,,,,,,,,,,,,,,,,,,,,,,,,,,
295657,2022-11-21_15h08.03.096,vts_reward_expectancy_bt,2022.2.4,MacIntel,60.0024001,Chrome,1470,956,,,,,,,,,,,,,,,,,,,,,,,U,167,triangle,1,0,f,0,5,0,5,0,1,0.8621,,,,,,,,,,,,,,,,,,,,,,,,,,,,,,,,,,,,,,,,,
295657,2022-11-21_15h08.03.096,vts_reward_expectancy_bt,2022.2.4,MacIntel,60.0024001,Chrome,1470,956,,,,,,,,,,,,,,,,,,,,,,,S,139,star,1,0,f,0,6,0,6,0,1,1.8296,,,,,,,,,,,,,,,,,,,,,,,,,,,,,,,,,,,,,,,,,
295657,2022-11-21_15h08.03.096,vts_reward_expectancy_bt,2022.2.4,MacIntel,60.0024001,Chrome,1470,956,,,,,,,,,,,,,,,,,,,,,,,B,174,circle,1,0,d,0,7,0,7,0,1,1.196,,,,,,,,,,,,,,,,,,,,,,,,,,,,,,,,,,,,,,,,,
295657,2022-11-21_15h08.03.096,vts_reward_expectancy_bt,2022.2.4,MacIntel,60.0024001,Chrome,1470,956,,,,,,,,,,,,,,,,,,,,,,,D,160,star,1,0,d,0,8,0,8,0,1,0.5147,,,,,,,,,,,,,,,,,,,,,,,,,,,,,,,,,,,,,,,,,
295657,2022-11-21_15h08.03.096,vts_reward_expectancy_bt,2022.2.4,MacIntel,60.0024001,Chrome,1470,956,,,,,,,,,,,,,,,,,,,,,,,F,181,hexagon,0,0,f,0,9,0,9,0,1,0.6151,,,,,,,,,,,,,,,,,,,,,,,,,,,,,,,,,,,,,,,,,
295657,2022-11-21_15h08.03.096,vts_reward_expectancy_bt,2022.2.4,MacIntel,60.0024001,Chrome,1470,956,,,,,,,,,,,,,,,,,,,,,,,B,139,star,1,1,d,1,0,0,0,0,1,0.6394,,,,,,,,,,,,,,,,,,,,,,,,,,,,,,,,,,,,,,,,,
295657,2022-11-21_15h08.03.096,vts_reward_expectancy_bt,2022.2.4,MacIntel,60.0024001,Chrome,1470,956,,,,,,,,,,,,,,,,,,,,,,,W,125,triangle,1,0,f,1,1,0,1,0,1,0.7311,,,,,,,,,,,,,,,,,,,,,,,,,,,,,,,,,,,,,,,,,
295657,2022-11-21_15h08.03.096,vts_reward_expectancy_bt,2022.2.4,MacIntel,60.0024001,Chrome,1470,956,,,,,,,,,,,,,,,,,,,,,,,D,160,hexagon,1,0,d,1,2,0,2,0,1,0.5855,,,,,,,,,,,,,,,,,,,,,,,,,,,,,,,,,,,,,,,,,
295657,2022-11-21_15h08.03.096,vts_reward_expectancy_bt,2022.2.4,MacIntel,60.0024001,Chrome,1470,956,,,,,,,,,,,,,,,,,,,,,,,S,167,circle,1,0,f,1,3,0,3,0,1,1.0824,,,,,,,,,,,,,,,,,,,,,,,,,,,,,,,,,,,,,,,,,
295657,2022-11-21_15h08.03.096,vts_reward_expectancy_bt,2022.2.4,MacIntel,60.0024001,Chrome,1470,956,,,,,,,,,,,,,,,,,,,,,,,H,132,star,1,0,d,1,4,0,4,0,1,1.6849,,,,,,,,,,,,,,,,,,,,,,,,,,,,,,,,,,,,,,,,,
295657,2022-11-21_15h08.03.096,vts_reward_expectancy_bt,2022.2.4,MacIntel,60.0024001,Chrome,1470,956,,,,,,,,,,,,,,,,,,,,,,,Y,174,triangle,1,0,f,1,5,0,5,0,1,0.916,,,,,,,,,,,,,,,,,,,,,,,,,,,,,,,,,,,,,,,,,
295657,2022-11-21_15h08.03.096,vts_reward_expectancy_bt,2022.2.4,MacIntel,60.0024001,Chrome,1470,956,,,,,,,,,,,,,,,,,,,,,,,U,146,hexagon,1,0,f,1,6,0,6,0,1,1.5299,,,,,,,,,,,,,,,,,,,,,,,,,,,,,,,,,,,,,,,,,
295657,2022-11-21_15h08.03.096,vts_reward_expectancy_bt,2022.2.4,MacIntel,60.0024001,Chrome,1470,956,,,,,,,,,,,,,,,,,,,,,,,F,181,circle,1,0,d,1,7,0,7,0,1,1.1644,,,,,,,,,,,,,,,,,,,,,,,,,,,,,,,,,,,,,,,,,
295657,2022-11-21_15h08.03.096,vts_reward_expectancy_bt,2022.2.4,MacIntel,60.0024001,Chrome,1470,956,,,,,,,,,,,,,,,,,,,,,,,B,139,triangle,1,0,d,1,8,0,8,0,1,1.0465,,,,,,,,,,,,,,,,,,,,,,,,,,,,,,,,,,,,,,,,,
295657,2022-11-21_15h08.03.096,vts_reward_expectancy_bt,2022.2.4,MacIntel,60.0024001,Chrome,1470,956,,,,,,,,,,,,,,,,,,,,,,,W,125,star,1,0,f,1,9,0,9,0,1,1.4644,,,,,,,,,,,,,,,,,,,,,,,,,,,,,,,,,,,,,,,,,
295657,2022-11-21_15h08.03.096,vts_reward_expectancy_bt,2022.2.4,MacIntel,60.0024001,Chrome,1470,956,,,,,,,,,,,,,,,,,,,,,,,D,146,circle,1,0,,2,,,,,,,j,0.9797,0,0,0,0,1,,,,,,,,,,,,,,,,,,,,,,,,,,,,,,,,,,
295657,2022-11-21_15h08.03.096,vts_reward_expectancy_bt,2022.2.4,MacIntel,60.0024001,Chrome,1470,956,,,,,,,,,,,,,,,,,,,,,,,Y,181,hexagon,1,0,,2,,,,,,,k,0.7318,1,0,1,0,1,,,,,,,,,,,,,,,,,,,,,,,,,,,,,,,,,,
295657,2022-11-21_15h08.03.096,vts_reward_expectancy_bt,2022.2.4,MacIntel,60.0024001,Chrome,1470,956,,,,,,,,,,,,,,,,,,,,,,,F,167,triangle,1,0,,2,,,,,,,k,0.8527,2,0,2,0,1,,,,,,,,,,,,,,,,,,,,,,,,,,,,,,,,,,
295657,2022-11-21_15h08.03.096,vts_reward_expectancy_bt,2022.2.4,MacIntel,60.0024001,Chrome,1470,956,,,,,,,,,,,,,,,,,,,,,,,W,132,star,1,0,,2,,,,,,,j,0.6146,3,0,3,0,1,,,,,,,,,,,,,,,,,,,,,,,,,,,,,,,,,,
295657,2022-11-21_15h08.03.096,vts_reward_expectancy_bt,2022.2.4,MacIntel,60.0024001,Chrome,1470,956,,,,,,,,,,,,,,,,,,,,,,,S,139,circle,1,0,,2,,,,,,,j,0.649,4,0,4,0,1,,,,,,,,,,,,,,,,,,,,,,,,,,,,,,,,,,
295657,2022-11-21_15h08.03.096,vts_reward_expectancy_bt,2022.2.4,MacIntel,60.0024001,Chrome,1470,956,,,,,,,,,,,,,,,,,,,,,,,H,174,hexagon,1,0,,2,,,,,,,k,0.6653,5,0,5,0,1,,,,,,,,,,,,,,,,,,,,,,,,,,,,,,,,,,
295657,2022-11-21_15h08.03.096,vts_reward_expectancy_bt,2022.2.4,MacIntel,60.0024001,Chrome,1470,956,,,,,,,,,,,,,,,,,,,,,,,U,125,triangle,1,0,,2,,,,,,,j,0.5453,6,0,6,0,1,,,,,,,,,,,,,,,,,,,,,,,,,,,,,,,,,,
295657,2022-11-21_15h08.03.096,vts_reward_expectancy_bt,2022.2.4,MacIntel,60.0024001,Chrome,1470,956,,,,,,,,,,,,,,,,,,,,,,,B,160,star,1,0,,2,,,,,,,k,0.5331,7,0,7,0,1,,,,,,,,,,,,,,,,,,,,,,,,,,,,,,,,,,
295657,2022-11-21_15h08.03.096,vts_reward_expectancy_bt,2022.2.4,MacIntel,60.0024001,Chrome,1470,956,,,,,,,,,,,,,,,,,,,,,,,D,146,star,1,0,,2,,,,,,,j,0.504,8,0,8,0,1,,,,,,,,,,,,,,,,,,,,,,,,,,,,,,,,,,
295657,2022-11-21_15h08.03.096,vts_reward_expectancy_bt,2022.2.4,MacIntel,60.0024001,Chrome,1470,956,,,,,,,,,,,,,,,,,,,,,,,Y,181,hexagon,1,0,,2,,,,,,,k,0.5169,9,0,9,0,1,,,,,,,,,,,,,,,,,,,,,,,,,,,,,,,,,,
295657,2022-11-21_15h08.03.096,vts_reward_expectancy_bt,2022.2.4,MacIntel,60.0024001,Chrome,1470,956,,,,,0,720,,,,,,,,,,,,,,,,,U,167,triangle,-1,0,,3,,,,,,,,,,,,,,-1,no_choice,NA,,vtsPrac,0,0,0,0,1,,,,,,,,,,,,,,,,,,,,,,,,
295657,2022-11-21_15h08.03.096,vts_reward_expectancy_bt,2022.2.4,MacIntel,60.0024001,Chrome,1470,956,,,,,0,720,,,,,,,,,,,,,,,,,B,160,star,1,0,,3,,,,,,,,,,,,,,switch,letter,lettSwt,d,vtsPrac,1,0,1,0,1,1.049,,,,,,,,,,,,,,,,,,,,,,,
295657,2022-11-21_15h08.03.096,vts_reward_expectancy_bt,2022.2.4,MacIntel,60.0024001,Chrome,1470,956,,,,,0,720,,,,,,,,,,,,,,,,,Y,132,triangle,0,0,,3,,,,,,,,,,,,,,switch,number,NA,k,vtsPrac,2,0,2,0,1,0.7294,,,,,,,,,,,,,,,,,,,,,,,
295657,2022-11-21_15h08.03.096,vts_reward_expectancy_bt,2022.2.4,MacIntel,60.0024001,Chrome,1470,956,,,,,0,720,,,,,,,,,,,,,,,,,H,146,star,1,1,,3,,,,,,,,,,,,,,repeat,number,numRpt,j,vtsPrac,3,0,3,0,1,0.9972,,,,,,,,,,,,,,,,,,,,,,,
295657,2022-11-21_15h08.03.096,vts_reward_expectancy_bt,2022.2.4,MacIntel,60.0024001,Chrome,1470,956,,,,,0,720,,,,,,,,,,,,,,,,,U,167,star,1,0,,3,,,,,,,,,,,,,,repeat,number,numRpt,k,vtsPrac,4,0,4,0,1,0.7191,,,,,,,,,,,,,,,,,,,,,,,
295657,2022-11-21_15h08.03.096,vts_reward_expectancy_bt,2022.2.4,MacIntel,60.0024001,Chrome,1470,956,,,,,0,720,,,,,,,,,,,,,,,,,B,160,hexagon,1,0,,3,,,,,,,,,,,,,,switch,letter,lettSwt,d,vtsPrac,5,0,5,0,1,0.5986,,,,,,,,,,,,,,,,,,,,,,,
295657,2022-11-21_15h08.03.096,vts_reward_expectancy_bt,2022.2.4,MacIntel,60.0024001,Chrome,1470,956,,,,,0,720,,,,,,,,,,,,,,,,,Y,132,star,1,0,,3,,,,,,,,,,,,,,switch,number,numSwt,j,vtsPrac,6,0,6,0,1,0.4796,,,,,,,,,,,,,,,,,,,,,,,
295657,2022-11-21_15h08.03.096,vts_reward_expectancy_bt,2022.2.4,MacIntel,60.0024001,Chrome,1470,956,,,,,0,720,,,,,,,,,,,,,,,,,H,146,triangle,1,0,,3,,,,,,,,,,,,,,repeat,number,numRpt,j,vtsPrac,7,0,7,0,1,0.5809,,,,,,,,,,,,,,,,,,,,,,,
295657,2022-11-21_15h08.03.096,vts_reward_expectancy_bt,2022.2.4,MacIntel,60.0024001,Chrome,1470,956,,,,,0,720,,,,,,,,,,,,,,,,,H,167,circle,1,0,,3,,,,,,,,,,,,,,switch,letter,lettSwt,d,vtsPrac,8,0,8,0,1,1.2832,,,,,,,,,,,,,,,,,,,,,,,
295657,2022-11-21_15h08.03.096,vts_reward_expectancy_bt,2022.2.4,MacIntel,60.0024001,Chrome,1470,956,,,,,0,720,,,,,,,,,,,,,,,,,Y,132,hexagon,1,0,,3,,,,,,,,,,,,,,repeat,letter,lettRpt,f,vtsPrac,9,0,9,0,1,0.6993,,,,,,,,,,,,,,,,,,,,,,,
295657,2022-11-21_15h08.03.096,vts_reward_expectancy_bt,2022.2.4,MacIntel,60.0024001,Chrome,1470,956,,,,,0,720,,,,,,,,,,,,,,,,,F,125,star,1,0,,3,,,,,,,,,,,,,,repeat,letter,lettRpt,d,vtsPrac,10,0,10,0,1,1.2641,,,,,,,,,,,,,,,,,,,,,,,
295657,2022-11-21_15h08.03.096,vts_reward_expectancy_bt,2022.2.4,MacIntel,60.0024001,Chrome,1470,956,,,,,0,720,,,,,,,,,,,,,,,,,U,160,hexagon,1,0,,3,,,,,,,,,,,,,,switch,number,numSwt,k,vtsPrac,11,0,11,0,1,0.7226,,,,,,,,,,,,,,,,,,,,,,,
295657,2022-11-21_15h08.03.096,vts_reward_expectancy_bt,2022.2.4,MacIntel,60.0024001,Chrome,1470,956,,,,,0,720,,,,,,,,,,,,,,,,,U,146,circle,1,0,,3,,,,,,,,,,,,,,repeat,number,numRpt,j,vtsPrac,12,0,12,0,1,1.1165,,,,,,,,,,,,,,,,,,,,,,,
295657,2022-11-21_15h08.03.096,vts_reward_expectancy_bt,2022.2.4,MacIntel,60.0024001,Chrome,1470,956,,,,,0,720,,,,,,,,,,,,,,,,,F,181,triangle,1,0,,3,,,,,,,,,,,,,,switch,letter,lettSwt,d,vtsPrac,13,0,13,0,1,0.9494,,,,,,,,,,,,,,,,,,,,,,,
295657,2022-11-21_15h08.03.096,vts_reward_expectancy_bt,2022.2.4,MacIntel,60.0024001,Chrome,1470,956,,,,,0,720,,,,,,,,,,,,,,,,,D,125,triangle,1,0,,3,,,,,,,,,,,,,,switch,number,numSwt,j,vtsPrac,14,0,14,0,1,0.8164,,,,,,,,,,,,,,,,,,,,,,,
295657,2022-11-21_15h08.03.096,vts_reward_expectancy_bt,2022.2.4,MacIntel,60.0024001,Chrome,1470,956,,,,,0,720,,,,,,,,,,,,,,,,,B,167,circle,1,0,,3,,,,,,,,,,,,,,switch,letter,lettSwt,d,vtsPrac,15,0,15,0,1,0.6316,,,,,,,,,,,,,,,,,,,,,,,
295657,2022-11-21_15h08.03.096,vts_reward_expectancy_bt,2022.2.4,MacIntel,60.0024001,Chrome,1470,956,,,,,0,720,,,,,,,,,,,,,,,,,Y,167,circle,1,0,,3,,,,,,,,,,,,,,repeat,letter,lettRpt,f,vtsPrac,16,0,16,0,1,1.0155,,,,,,,,,,,,,,,,,,,,,,,
295657,2022-11-21_15h08.03.096,vts_reward_expectancy_bt,2022.2.4,MacIntel,60.0024001,Chrome,1470,956,,,,,0,720,,,,,,,,,,,,,,,,,U,181,star,1,0,,3,,,,,,,,,,,,,,switch,number,numSwt,k,vtsPrac,17,0,17,0,1,0.5142,,,,,,,,,,,,,,,,,,,,,,,
295657,2022-11-21_15h08.03.096,vts_reward_expectancy_bt,2022.2.4,MacIntel,60.0024001,Chrome,1470,956,,,,,0,720,,,,,,,,,,,,,,,,,D,146,hexagon,1,0,,3,,,,,,,,,,,,,,repeat,number,numRpt,j,vtsPrac,18,0,18,0,1,0.7298,,,,,,,,,,,,,,,,,,,,,,,
295657,2022-11-21_15h08.03.096,vts_reward_expectancy_bt,2022.2.4,MacIntel,60.0024001,Chrome,1470,956,,,,,0,720,,,,,,,,,,,,,,,,,S,139,circle,1,0,,3,,,,,,,,,,,,,,repeat,number,numRpt,j,vtsPrac,19,0,19,0,1,0.9485,,,,,,,,,,,,,,,,,,,,,,,
295657,2022-11-21_15h08.03.096,vts_reward_expectancy_bt,2022.2.4,MacIntel,60.0024001,Chrome,1470,956,,,,,0,720,,,,,,,,,,,,,,,,,H,167,star,1,0,,3,,,,,,,,,,,,,,repeat,number,numRpt,k,vtsPrac,20,0,20,0,1,0.6529,,,,,,,,,,,,,,,,,,,,,,,
295657,2022-11-21_15h08.03.096,vts_reward_expectancy_bt,2022.2.4,MacIntel,60.0024001,Chrome,1470,956,,,,,0,720,,,,,,,,,,,,,,,,,D,125,circle,1,0,,3,,,,,,,,,,,,,,switch,letter,lettSwt,d,vtsPrac,21,0,21,0,1,0.7977,,,,,,,,,,,,,,,,,,,,,,,
295657,2022-11-21_15h08.03.096,vts_reward_expectancy_bt,2022.2.4,MacIntel,60.0024001,Chrome,1470,956,,,,,0,720,,,,,,,,,,,,,,,,,S,132,hexagon,1,0,,3,,,,,,,,,,,,,,repeat,letter,lettRpt,f,vtsPrac,22,0,22,0,1,0.615,,,,,,,,,,,,,,,,,,,,,,,
295657,2022-11-21_15h08.03.096,vts_reward_expectancy_bt,2022.2.4,MacIntel,60.0024001,Chrome,1470,956,,,,,0,720,,,,,,,,,,,,,,,,,W,174,triangle,1,0,,3,,,,,,,,,,,,,,repeat,letter,lettRpt,f,vtsPrac,23,0,23,0,1,0.7946,,,,,,,,,,,,,,,,,,,,,,,
295657,2022-11-21_15h08.03.096,vts_reward_expectancy_bt,2022.2.4,MacIntel,60.0024001,Chrome,1470,956,,,,,0,720,,,,,,,,,,,,,,,,,D,125,triangle,1,0,,3,,,,,,,,,,,,,,switch,number,numSwt,j,vtsPrac,24,0,24,0,1,0.5047,,,,,,,,,,,,,,,,,,,,,,,
295657,2022-11-21_15h08.03.096,vts_reward_expectancy_bt,2022.2.4,MacIntel,60.0024001,Chrome,1470,956,,,,,0,720,,,,,,,,,,,,,,,,,Y,132,star,1,0,,3,,,,,,,,,,,,,,switch,letter,lettSwt,f,vtsPrac,25,0,25,0,1,0.7153,,,,,,,,,,,,,,,,,,,,,,,
295657,2022-11-21_15h08.03.096,vts_reward_expectancy_bt,2022.2.4,MacIntel,60.0024001,Chrome,1470,956,,,,,0,720,,,,,,,,,,,,,,,,,F,174,hexagon,1,0,,3,,,,,,,,,,,,,,repeat,letter,lettRpt,d,vtsPrac,26,0,26,0,1,1.1657,,,,,,,,,,,,,,,,,,,,,,,
295657,2022-11-21_15h08.03.096,vts_reward_expectancy_bt,2022.2.4,MacIntel,60.0024001,Chrome,1470,956,,,,,0,720,,,,,,,,,,,,,,,,,S,146,circle,1,0,,3,,,,,,,,,,,,,,repeat,letter,lettRpt,f,vtsPrac,27,0,27,0,1,1.3811,,,,,,,,,,,,,,,,,,,,,,,
295657,2022-11-21_15h08.03.096,vts_reward_expectancy_bt,2022.2.4,MacIntel,60.0024001,Chrome,1470,956,,,,,0,720,,,,,,,,,,,,,,,,,F,174,circle,1,0,,3,,,,,,,,,,,,,,repeat,letter,lettRpt,d,vtsPrac,28,0,28,0,1,0.8642,,,,,,,,,,,,,,,,,,,,,,,
295657,2022-11-21_15h08.03.096,vts_reward_expectancy_bt,2022.2.4,MacIntel,60.0024001,Chrome,1470,956,,,,,0,720,,,,,,,,,,,,,,,,,B,139,star,1,0,,3,,,,,,,,,,,,,,switch,number,numSwt,j,vtsPrac,29,0,29,0,1,0.9508,,,,,,,,,,,,,,,,,,,,,,,
295657,2022-11-21_15h08.03.096,vts_reward_expectancy_bt,2022.2.4,MacIntel,60.0024001,Chrome,1470,956,,,,,0,720,,,,,,,,,,,,,,,,,H,167,circle,1,0,,3,,,,,,,,,,,,,,repeat,number,numRpt,k,vtsPrac,30,0,30,0,1,0.5648,,,,,,,,,,,,,,,,,,,,,,,
295657,2022-11-21_15h08.03.096,vts_reward_expectancy_bt,2022.2.4,MacIntel,60.0024001,Chrome,1470,956,,,,,0,720,,,,,,,,,,,,,,,,,W,125,star,1,0,,3,,,,,,,,,,,,,,repeat,number,numRpt,j,vtsPrac,31,0,31,0,1,0.6122,,,,,,,,,,,,,,,,,,,,,,,
295657,2022-11-21_15h08.03.096,vts_reward_expectancy_bt,2022.2.4,MacIntel,60.0024001,Chrome,1470,956,,,,,,,,,,,,,,,,,,,,,,,,,,,,,,,,,,,,,,,,,,,,,,,,,,,,,,,,,,,,,,,,,,,,,,,,,,,,
295657,2022-11-21_15h08.03.096,vts_reward_expectancy_bt,2022.2.4,MacIntel,60.0024001,Chrome,1470,956,,,,,,,,,,,,,,,,,,,,,,,,,,,,,,,,,,,,,,,,,,,,,,,,,,,,,,,,,,,,,,,,,,,,,,,,,,,,
295657,2022-11-21_15h08.03.096,vts_reward_expectancy_bt,2022.2.4,MacIntel,60.0024001,Chrome,1470,956,,,,,0,720,,,,,,,,,,,,,,,,,D,125,triangle,1,0,,,,,,,,,,,,,,,,switch,letter,lettSwt,d,noRew,,,,,,1.1497,0,0,0,0,0,1,,,,,,,,,,,,,,,,,
295657,2022-11-21_15h08.03.096,vts_reward_expectancy_bt,2022.2.4,MacIntel,60.0024001,Chrome,1470,956,,,,,0,720,,,,,,,,,,,,,,,,,U,139,star,1,0,,,,,,,,,,,,,,,,switch,number,numSwt,j,noRew,,,,,,1.0545,0,1,0,1,0,1,,,,,,,,,,,,,,,,,
295657,2022-11-21_15h08.03.096,vts_reward_expectancy_bt,2022.2.4,MacIntel,60.0024001,Chrome,1470,956,,,,,0,720,,,,,,,,,,,,,,,,,H,132,triangle,1,0,,,,,,,,,,,,,,,,switch,letter,lettSwt,d,noRew,,,,,,1.1301,0,2,0,2,0,1,,,,,,,,,,,,,,,,,
295657,2022-11-21_15h08.03.096,vts_reward_expectancy_bt,2022.2.4,MacIntel,60.0024001,Chrome,1470,956,,,,,0,720,,,,,,,,,,,,,,,,,S,174,star,1,0,,,,,,,,,,,,,,,,repeat,letter,lettRpt,f,noRew,,,,,,1.3662,0,3,0,3,0,1,,,,,,,,,,,,,,,,,
295657,2022-11-21_15h08.03.096,vts_reward_expectancy_bt,2022.2.4,MacIntel,60.0024001,Chrome,1470,956,,,,,0,720,,,,,,,,,,,,,,,,,D,125,star,1,0,,,,,,,,,,,,,,,,repeat,letter,lettRpt,d,noRew,,,,,,0.914,0,4,0,4,0,1,,,,,,,,,,,,,,,,,
295657,2022-11-21_15h08.03.096,vts_reward_expectancy_bt,2022.2.4,MacIntel,60.0024001,Chrome,1470,956,,,,,0,720,,,,,,,,,,,,,,,,,U,139,triangle,1,0,,,,,,,,,,,,,,,,switch,number,numSwt,j,noRew,,,,,,0.9819,0,5,0,5,0,1,,,,,,,,,,,,,,,,,
295657,2022-11-21_15h08.03.096,vts_reward_expectancy_bt,2022.2.4,MacIntel,60.0024001,Chrome,1470,956,,,,,0,720,,,,,,,,,,,,,,,,,H,132,hexagon,1,0,,,,,,,,,,,,,,,,switch,letter,lettSwt,d,noRew,,,,,,0.7973,0,6,0,6,0,1,,,,,,,,,,,,,,,,,
295657,2022-11-21_15h08.03.096,vts_reward_expectancy_bt,2022.2.4,MacIntel,60.0024001,Chrome,1470,956,,,,,0,720,,,,,,,,,,,,,,,,,S,174,triangle,1,0,,,,,,,,,,,,,,,,repeat,letter,lettRpt,f,noRew,,,,,,1.0332,0,7,0,7,0,1,,,,,,,,,,,,,,,,,
295657,2022-11-21_15h08.03.096,vts_reward_expectancy_bt,2022.2.4,MacIntel,60.0024001,Chrome,1470,956,,,,,0,720,,,,,,,,,,,,,,,,,Y,181,circle,1,0,,,,,,,,,,,,,,,,switch,number,numSwt,k,noRew,,,,,,0.7466,0,8,0,8,0,1,,,,,,,,,,,,,,,,,
295657,2022-11-21_15h08.03.096,vts_reward_expectancy_bt,2022.2.4,MacIntel,60.0024001,Chrome,1470,956,,,,,0,720,,,,,,,,,,,,,,,,,H,132,star,1,0,,,,,,,,,,,,,,,,switch,letter,lettSwt,d,noRew,,,,,,1.8807,0,9,0,9,0,1,,,,,,,,,,,,,,,,,
295657,2022-11-21_15h08.03.096,vts_reward_expectancy_bt,2022.2.4,MacIntel,60.0024001,Chrome,1470,956,,,,,0,720,,,,,,,,,,,,,,,,,B,146,hexagon,0,0,,,,,,,,,,,,,,,,switch,number,NA,k,noRew,,,,,,1.1485,0,10,0,10,0,1,,,,,,,,,,,,,,,,,
295657,2022-11-21_15h08.03.096,vts_reward_expectancy_bt,2022.2.4,MacIntel,60.0024001,Chrome,1470,956,,,,,0,720,,,,,,,,,,,,,,,,,F,167,triangle,1,1,,,,,,,,,,,,,,,,repeat,number,numRpt,k,noRew,,,,,,1.1646,0,11,0,11,0,1,,,,,,,,,,,,,,,,,
295657,2022-11-21_15h08.03.096,vts_reward_expectancy_bt,2022.2.4,MacIntel,60.0024001,Chrome,1470,956,,,,,0,720,,,,,,,,,,,,,,,,,Y,181,triangle,1,0,,,,,,,,,,,,,,,,switch,letter,lettSwt,f,noRew,,,,,,0.9467,0,12,0,12,0,1,,,,,,,,,,,,,,,,,
295657,2022-11-21_15h08.03.096,vts_reward_expectancy_bt,2022.2.4,MacIntel,60.0024001,Chrome,1470,956,,,,,0,720,,,,,,,,,,,,,,,,,H,167,circle,1,0,,,,,,,,,,,,,,,,repeat,letter,lettRpt,d,noRew,,,,,,2.9314,0,13,0,13,0,1,,,,,,,,,,,,,,,,,
295657,2022-11-21_15h08.03.096,vts_reward_expectancy_bt,2022.2.4,MacIntel,60.0024001,Chrome,1470,956,,,,,0,720,,,,,,,,,,,,,,,,,B,125,circle,1,0,,,,,,,,,,,,,,,,repeat,letter,lettRpt,d,noRew,,,,,,0.871,0,14,0,14,0,1,,,,,,,,,,,,,,,,,
295657,2022-11-21_15h08.03.096,vts_reward_expectancy_bt,2022.2.4,MacIntel,60.0024001,Chrome,1470,956,,,,,0,720,,,,,,,,,,,,,,,,,W,132,triangle,1,0,,,,,,,,,,,,,,,,repeat,letter,lettRpt,f,noRew,,,,,,0.75,0,15,0,15,0,1,,,,,,,,,,,,,,,,,
295657,2022-11-21_15h08.03.096,vts_reward_expectancy_bt,2022.2.4,MacIntel,60.0024001,Chrome,1470,956,,,,,0,720,,,,,,,,,,,,,,,,,D,146,triangle,1,0,,,,,,,,,,,,,,,,switch,number,numSwt,j,noRew,,,,,,1.2456,0,16,0,16,0,1,,,,,,,,,,,,,,,,,
295657,2022-11-21_15h08.03.096,vts_reward_expectancy_bt,2022.2.4,MacIntel,60.0024001,Chrome,1470,956,,,,,0,720,,,,,,,,,,,,,,,,,B,181,hexagon,1,0,,,,,,,,,,,,,,,,repeat,number,numRpt,k,noRew,,,,,,0.7049,0,17,0,17,0,1,,,,,,,,,,,,,,,,,
295657,2022-11-21_15h08.03.096,vts_reward_expectancy_bt,2022.2.4,MacIntel,60.0024001,Chrome,1470,956,,,,,0,720,,,,,,,,,,,,,,,,,Y,132,circle,1,0,,,,,,,,,,,,,,,,repeat,number,numRpt,j,noRew,,,,,,0.5048,0,18,0,18,0,1,,,,,,,,,,,,,,,,,
295657,2022-11-21_15h08.03.096,vts_reward_expectancy_bt,2022.2.4,MacIntel,60.0024001,Chrome,1470,956,,,,,0,720,,,,,,,,,,,,,,,,,W,125,hexagon,1,0,,,,,,,,,,,,,,,,switch,letter,lettSwt,f,noRew,,,,,,0.9519,0,19,0,19,0,1,,,,,,,,,,,,,,,,,
295657,2022-11-21_15h08.03.096,vts_reward_expectancy_bt,2022.2.4,MacIntel,60.0024001,Chrome,1470,956,,,,,0,720,,,,,,,,,,,,,,,,,D,132,circle,1,0,,,,,,,,,,,,,,,,repeat,letter,lettRpt,d,noRew,,,,,,0.6147,0,20,0,20,0,1,,,,,,,,,,,,,,,,,
295657,2022-11-21_15h08.03.096,vts_reward_expectancy_bt,2022.2.4,MacIntel,60.0024001,Chrome,1470,956,,,,,0,720,,,,,,,,,,,,,,,,,Y,160,triangle,1,0,,,,,,,,,,,,,,,,repeat,letter,lettRpt,f,noRew,,,,,,0.7313,0,21,0,21,0,1,,,,,,,,,,,,,,,,,
295657,2022-11-21_15h08.03.096,vts_reward_expectancy_bt,2022.2.4,MacIntel,60.0024001,Chrome,1470,956,,,,,0,720,,,,,,,,,,,,,,,,,B,125,triangle,1,0,,,,,,,,,,,,,,,,switch,number,numSwt,j,noRew,,,,,,0.6138,0,22,0,22,0,1,,,,,,,,,,,,,,,,,
295657,2022-11-21_15h08.03.096,vts_reward_expectancy_bt,2022.2.4,MacIntel,60.0024001,Chrome,1470,956,,,,,0,720,,,,,,,,,,,,,,,,,S,174,circle,1,0,,,,,,,,,,,,,,,,repeat,number,numRpt,k,noRew,,,,,,1.1649,0,23,0,23,0,1,,,,,,,,,,,,,,,,,
295657,2022-11-21_15h08.03.096,vts_reward_expectancy_bt,2022.2.4,MacIntel,60.0024001,Chrome,1470,956,,,,,0,720,,,,,,,,,,,,,,,,,Y,132,triangle,1,0,,,,,,,,,,,,,,,,switch,letter,lettSwt,f,noRew,,,,,,0.9659,0,24,0,24,0,1,,,,,,,,,,,,,,,,,
295657,2022-11-21_15h08.03.096,vts_reward_expectancy_bt,2022.2.4,MacIntel,60.0024001,Chrome,1470,956,,,,,0,720,,,,,,,,,,,,,,,,,F,139,hexagon,1,0,,,,,,,,,,,,,,,,switch,number,numSwt,j,noRew,,,,,,0.7646,0,25,0,25,0,1,,,,,,,,,,,,,,,,,
295657,2022-11-21_15h08.03.096,vts_reward_expectancy_bt,2022.2.4,MacIntel,60.0024001,Chrome,1470,956,,,,,0,720,,,,,,,,,,,,,,,,,H,125,triangle,1,0,,,,,,,,,,,,,,,,repeat,number,numRpt,j,noRew,,,,,,1.0459,0,26,0,26,0,1,,,,,,,,,,,,,,,,,
295657,2022-11-21_15h08.03.096,vts_reward_expectancy_bt,2022.2.4,MacIntel,60.0024001,Chrome,1470,956,,,,,0,720,,,,,,,,,,,,,,,,,B,174,hexagon,1,0,,,,,,,,,,,,,,,,switch,letter,lettSwt,d,noRew,,,,,,0.9131,0,27,0,27,0,1,,,,,,,,,,,,,,,,,
295657,2022-11-21_15h08.03.096,vts_reward_expectancy_bt,2022.2.4,MacIntel,60.0024001,Chrome,1470,956,,,,,0,720,,,,,,,,,,,,,,,,,S,181,triangle,1,0,,,,,,,,,,,,,,,,repeat,letter,lettRpt,f,noRew,,,,,,1.0155,0,28,0,28,0,1,,,,,,,,,,,,,,,,,
295657,2022-11-21_15h08.03.096,vts_reward_expectancy_bt,2022.2.4,MacIntel,60.0024001,Chrome,1470,956,,,,,0,720,,,,,,,,,,,,,,,,,H,139,circle,1,0,,,,,,,,,,,,,,,,switch,number,numSwt,j,noRew,,,,,,0.7182,0,29,0,29,0,1,,,,,,,,,,,,,,,,,
295657,2022-11-21_15h08.03.096,vts_reward_expectancy_bt,2022.2.4,MacIntel,60.0024001,Chrome,1470,956,,,,,0,720,,,,,,,,,,,,,,,,,F,146,hexagon,1,0,,,,,,,,,,,,,,,,repeat,number,numRpt,j,noRew,,,,,,0.7641,0,30,0,30,0,1,,,,,,,,,,,,,,,,,
295657,2022-11-21_15h08.03.096,vts_reward_expectancy_bt,2022.2.4,MacIntel,60.0024001,Chrome,1470,956,,,,,0,720,,,,,,,,,,,,,,,,,B,132,circle,1,0,,,,,,,,,,,,,,,,repeat,number,numRpt,j,noRew,,,,,,0.8197,0,31,0,31,0,1,,,,,,,,,,,,,,,,,
295657,2022-11-21_15h08.03.096,vts_reward_expectancy_bt,2022.2.4,MacIntel,60.0024001,Chrome,1470,956,,,,,0,720,,,,,,,,,,,,,,,,,H,167,star,1,0,,,,,,,,,,,,,,,,repeat,number,numRpt,k,noRew,,,,,,1.4623,0,32,0,32,0,1,,,,,,,,,,,,,,,,,
295657,2022-11-21_15h08.03.096,vts_reward_expectancy_bt,2022.2.4,MacIntel,60.0024001,Chrome,1470,956,,,,,0,720,,,,,,,,,,,,,,,,,Y,139,triangle,1,0,,,,,,,,,,,,,,,,switch,letter,lettSwt,f,noRew,,,,,,0.7312,0,33,0,33,0,1,,,,,,,,,,,,,,,,,
295657,2022-11-21_15h08.03.096,vts_reward_expectancy_bt,2022.2.4,MacIntel,60.0024001,Chrome,1470,956,,,,,0,720,,,,,,,,,,,,,,,,,B,174,hexagon,1,0,,,,,,,,,,,,,,,,repeat,letter,lettRpt,d,noRew,,,,,,0.748,0,34,0,34,0,1,,,,,,,,,,,,,,,,,
295657,2022-11-21_15h08.03.096,vts_reward_expectancy_bt,2022.2.4,MacIntel,60.0024001,Chrome,1470,956,,,,,0,720,,,,,,,,,,,,,,,,,D,132,circle,1,0,,,,,,,,,,,,,,,,repeat,letter,lettRpt,d,noRew,,,,,,1.0469,0,35,0,35,0,1,,,,,,,,,,,,,,,,,
295657,2022-11-21_15h08.03.096,vts_reward_expectancy_bt,2022.2.4,MacIntel,60.0024001,Chrome,1470,956,,,,,0,720,,,,,,,,,,,,,,,,,Y,181,circle,1,0,,,,,,,,,,,,,,,,repeat,letter,lettRpt,f,noRew,,,,,,0.6819,0,36,0,36,0,1,,,,,,,,,,,,,,,,,
295657,2022-11-21_15h08.03.096,vts_reward_expectancy_bt,2022.2.4,MacIntel,60.0024001,Chrome,1470,956,,,,,0,720,,,,,,,,,,,,,,,,,H,139,star,1,0,,,,,,,,,,,,,,,,switch,number,numSwt,j,noRew,,,,,,0.5143,0,37,0,37,0,1,,,,,,,,,,,,,,,,,
295657,2022-11-21_15h08.03.096,vts_reward_expectancy_bt,2022.2.4,MacIntel,60.0024001,Chrome,1470,956,,,,,0,720,,,,,,,,,,,,,,,,,F,125,star,1,0,,,,,,,,,,,,,,,,switch,letter,lettSwt,d,noRew,,,,,,0.532,0,38,0,38,0,1,,,,,,,,,,,,,,,,,
295657,2022-11-21_15h08.03.096,vts_reward_expectancy_bt,2022.2.4,MacIntel,60.0024001,Chrome,1470,956,,,,,0,720,,,,,,,,,,,,,,,,,B,146,circle,1,0,,,,,,,,,,,,,,,,switch,number,numSwt,j,noRew,,,,,,0.8382,0,39,0,39,0,1,,,,,,,,,,,,,,,,,
295657,2022-11-21_15h08.03.096,vts_reward_expectancy_bt,2022.2.4,MacIntel,60.0024001,Chrome,1470,956,,,,,0,720,,,,,,,,,,,,,,,,,Y,146,star,1,0,,,,,,,,,,,,,,,,repeat,number,numRpt,j,noRew,,,,,,0.6737,0,40,0,40,0,1,,,,,,,,,,,,,,,,,
295657,2022-11-21_15h08.03.096,vts_reward_expectancy_bt,2022.2.4,MacIntel,60.0024001,Chrome,1470,956,,,,,0,720,,,,,,,,,,,,,,,,,F,167,circle,1,0,,,,,,,,,,,,,,,,switch,letter,lettSwt,d,noRew,,,,,,1.5485,0,41,0,41,0,1,,,,,,,,,,,,,,,,,
295657,2022-11-21_15h08.03.096,vts_reward_expectancy_bt,2022.2.4,MacIntel,60.0024001,Chrome,1470,956,,,,,0,720,,,,,,,,,,,,,,,,,W,160,star,1,0,,,,,,,,,,,,,,,,repeat,letter,lettRpt,f,noRew,,,,,,1.2202,0,42,0,42,0,1,,,,,,,,,,,,,,,,,
295657,2022-11-21_15h08.03.096,vts_reward_expectancy_bt,2022.2.4,MacIntel,60.0024001,Chrome,1470,956,,,,,0,720,,,,,,,,,,,,,,,,,B,174,circle,1,0,,,,,,,,,,,,,,,,repeat,letter,lettRpt,d,noRew,,,,,,0.6981,0,43,0,43,0,1,,,,,,,,,,,,,,,,,
295657,2022-11-21_15h08.03.096,vts_reward_expectancy_bt,2022.2.4,MacIntel,60.0024001,Chrome,1470,956,,,,,0,720,,,,,,,,,,,,,,,,,D,167,circle,1,0,,,,,,,,,,,,,,,,switch,number,numSwt,k,noRew,,,,,,1.3803,0,44,0,44,0,1,,,,,,,,,,,,,,,,,
295657,2022-11-21_15h08.03.096,vts_reward_expectancy_bt,2022.2.4,MacIntel,60.0024001,Chrome,1470,956,,,,,0,720,,,,,,,,,,,,,,,,,S,146,hexagon,1,0,,,,,,,,,,,,,,,,switch,letter,lettSwt,f,noRew,,,,,,1.1978,0,45,0,45,0,1,,,,,,,,,,,,,,,,,
295657,2022-11-21_15h08.03.096,vts_reward_expectancy_bt,2022.2.4,MacIntel,60.0024001,Chrome,1470,956,,,,,0,720,,,,,,,,,,,,,,,,,U,174,hexagon,1,0,,,,,,,,,,,,,,,,switch,number,numSwt,k,noRew,,,,,,0.7038,0,46,0,46,0,1,,,,,,,,,,,,,,,,,
295657,2022-11-21_15h08.03.096,vts_reward_expectancy_bt,2022.2.4,MacIntel,60.0024001,Chrome,1470,956,,,,,0,720,,,,,,,,,,,,,,,,,H,139,circle,1,0,,,,,,,,,,,,,,,,repeat,number,numRpt,j,noRew,,,,,,0.6996,0,47,0,47,0,1,,,,,,,,,,,,,,,,,
295657,2022-11-21_15h08.03.096,vts_reward_expectancy_bt,2022.2.4,MacIntel,60.0024001,Chrome,1470,956,,,,,0,720,,,,,,,,,,,,,,,,,B,139,triangle,1,0,,,,,,,,,,,,,,,,repeat,number,numRpt,j,noRew,,,,,,0.6519,0,48,0,48,0,1,,,,,,,,,,,,,,,,,
295657,2022-11-21_15h08.03.096,vts_reward_expectancy_bt,2022.2.4,MacIntel,60.0024001,Chrome,1470,956,,,,,0,720,,,,,,,,,,,,,,,,,U,167,hexagon,1,0,,,,,,,,,,,,,,,,switch,letter,lettSwt,f,noRew,,,,,,1.181,0,49,0,49,0,1,,,,,,,,,,,,,,,,,
295657,2022-11-21_15h08.03.096,vts_reward_expectancy_bt,2022.2.4,MacIntel,60.0024001,Chrome,1470,956,,,,,0,720,,,,,,,,,,,,,,,,,H,146,triangle,1,0,,,,,,,,,,,,,,,,repeat,letter,lettRpt,d,noRew,,,,,,1.6551,0,50,0,50,0,1,,,,,,,,,,,,,,,,,
295657,2022-11-21_15h08.03.096,vts_reward_expectancy_bt,2022.2.4,MacIntel,60.0024001,Chrome,1470,956,,,,,0,720,,,,,,,,,,,,,,,,,Y,181,circle,1,0,,,,,,,,,,,,,,,,repeat,letter,lettRpt,f,noRew,,,,,,0.8665,0,51,0,51,0,1,,,,,,,,,,,,,,,,,
295657,2022-11-21_15h08.03.096,vts_reward_expectancy_bt,2022.2.4,MacIntel,60.0024001,Chrome,1470,956,,,,,0,720,,,,,,,,,,,,,,,,,S,167,hexagon,1,0,,,,,,,,,,,,,,,,switch,number,numSwt,k,noRew,,,,,,1.0142,0,52,0,52,0,1,,,,,,,,,,,,,,,,,
295657,2022-11-21_15h08.03.096,vts_reward_expectancy_bt,2022.2.4,MacIntel,60.0024001,Chrome,1470,956,,,,,0,720,,,,,,,,,,,,,,,,,B,174,circle,1,0,,,,,,,,,,,,,,,,switch,letter,lettSwt,d,noRew,,,,,,0.6819,0,53,0,53,0,1,,,,,,,,,,,,,,,,,
295657,2022-11-21_15h08.03.096,vts_reward_expectancy_bt,2022.2.4,MacIntel,60.0024001,Chrome,1470,956,,,,,0,720,,,,,,,,,,,,,,,,,Y,132,star,1,0,,,,,,,,,,,,,,,,repeat,letter,lettRpt,f,noRew,,,,,,1.2139,0,54,0,54,0,1,,,,,,,,,,,,,,,,,
295657,2022-11-21_15h08.03.096,vts_reward_expectancy_bt,2022.2.4,MacIntel,60.0024001,Chrome,1470,956,,,,,0,720,,,,,,,,,,,,,,,,,W,146,hexagon,1,0,,,,,,,,,,,,,,,,repeat,letter,lettRpt,f,noRew,,,,,,0.9802,0,55,0,55,0,1,,,,,,,,,,,,,,,,,
295657,2022-11-21_15h08.03.096,vts_reward_expectancy_bt,2022.2.4,MacIntel,60.0024001,Chrome,1470,956,,,,,0,720,,,,,,,,,,,,,,,,,F,146,hexagon,1,0,,,,,,,,,,,,,,,,switch,number,numSwt,j,noRew,,,,,,0.9163,0,56,0,56,0,1,,,,,,,,,,,,,,,,,
295657,2022-11-21_15h08.03.096,vts_reward_expectancy_bt,2022.2.4,MacIntel,60.0024001,Chrome,1470,956,,,,,0,720,,,,,,,,,,,,,,,,,S,125,triangle,1,0,,,,,,,,,,,,,,,,switch,letter,lettSwt,f,noRew,,,,,,1.9626,0,57,0,57,0,1,,,,,,,,,,,,,,,,,
295657,2022-11-21_15h08.03.096,vts_reward_expectancy_bt,2022.2.4,MacIntel,60.0024001,Chrome,1470,956,,,,,0,720,,,,,,,,,,,,,,,,,H,160,circle,1,0,,,,,,,,,,,,,,,,switch,number,numSwt,k,noRew,,,,,,0.6643,0,58,0,58,0,1,,,,,,,,,,,,,,,,,
295657,2022-11-21_15h08.03.096,vts_reward_expectancy_bt,2022.2.4,MacIntel,60.0024001,Chrome,1470,956,,,,,0,720,,,,,,,,,,,,,,,,,U,167,hexagon,1,0,,,,,,,,,,,,,,,,repeat,number,numRpt,k,noRew,,,,,,0.6805,0,59,0,59,0,1,,,,,,,,,,,,,,,,,
295657,2022-11-21_15h08.03.096,vts_reward_expectancy_bt,2022.2.4,MacIntel,60.0024001,Chrome,1470,956,,,,,0,720,,,,,,,,,,,,,,,,,B,132,star,1,0,,,,,,,,,,,,,,,,repeat,number,numRpt,j,noRew,,,,,,0.463,0,60,0,60,0,1,,,,,,,,,,,,,,,,,
295657,2022-11-21_15h08.03.096,vts_reward_expectancy_bt,2022.2.4,MacIntel,60.0024001,Chrome,1470,956,,,,,0,720,,,,,,,,,,,,,,,,,F,167,hexagon,1,0,,,,,,,,,,,,,,,,repeat,number,numRpt,k,noRew,,,,,,0.6223,0,61,0,61,0,1,,,,,,,,,,,,,,,,,
295657,2022-11-21_15h08.03.096,vts_reward_expectancy_bt,2022.2.4,MacIntel,60.0024001,Chrome,1470,956,,,,,0,720,,,,,,,,,,,,,,,,,U,181,circle,1,0,,,,,,,,,,,,,,,,repeat,number,numRpt,k,noRew,,,,,,0.647,0,62,0,62,0,1,,,,,,,,,,,,,,,,,
295657,2022-11-21_15h08.03.096,vts_reward_expectancy_bt,2022.2.4,MacIntel,60.0024001,Chrome,1470,956,,,,,0,720,,,,,,,,,,,,,,,,,D,160,triangle,1,0,,,,,,,,,,,,,,,,switch,letter,lettSwt,d,noRew,,,,,,0.8632,0,63,0,63,0,1,,,,,,,,,,,,,,,,,
295657,2022-11-21_15h08.03.096,vts_reward_expectancy_bt,2022.2.4,MacIntel,60.0024001,Chrome,1470,956,,,,,,,,,,,,,,,,,,,,,,,,,,,,,,,,,,,,,,,,,,,,,,,,,,,,,,,,,,,,,,,,,,,,,,,,,,,,
295657,2022-11-21_15h08.03.096,vts_reward_expectancy_bt,2022.2.4,MacIntel,60.0024001,Chrome,1470,956,,,,,0,720,,,,,,,,,,,,,,,,,U,146,triangle,-1,0,,,,,,,,,,,,,,,,switch,no_choice,NA,,noRew,,,,,,,0,,,,,,space,13.2507,high,0,0,0,0,1,,,,,,,,,
295657,2022-11-21_15h08.03.096,vts_reward_expectancy_bt,2022.2.4,MacIntel,60.0024001,Chrome,1470,956,,,,,0,720,,,,,,,,,,,,,,,,,D,160,circle,1,0,,,,,,,,,,,,,,,,switch,letter,lettSwt,d,Hi,,,,,,0.9306,0,,,,,,,,high,1,0,1,0,1,,,,,,,,,
295657,2022-11-21_15h08.03.096,vts_reward_expectancy_bt,2022.2.4,MacIntel,60.0024001,Chrome,1470,956,,,,,1,721,,,,,,,,,,,,,,,,,B,181,hexagon,1,0,,,,,,,,,,,,,,,,repeat,letter,lettRpt,d,Lo,,,,,,1.4479,0,,,,,,,,high,2,0,2,0,1,,,,,,,,,
295657,2022-11-21_15h08.03.096,vts_reward_expectancy_bt,2022.2.4,MacIntel,60.0024001,Chrome,1470,956,,,,,1,722,,,,,,,,,,,,,,,,,W,139,star,1,0,,,,,,,,,,,,,,,,switch,number,numSwt,j,Lo,,,,,,0.6317,0,,,,,,,,high,3,0,3,0,1,,,,,,,,,
295657,2022-11-21_15h08.03.096,vts_reward_expectancy_bt,2022.2.4,MacIntel,60.0024001,Chrome,1470,956,,,,,0,722,,,,,,,,,,,,,,,,,S,125,triangle,1,0,,,,,,,,,,,,,,,,switch,letter,lettSwt,f,Hi,,,,,,1.1477,0,,,,,,,,high,4,0,4,0,1,,,,,,,,,
295657,2022-11-21_15h08.03.096,vts_reward_expectancy_bt,2022.2.4,MacIntel,60.0024001,Chrome,1470,956,,,,,0,722,,,,,,,,,,,,,,,,,F,132,circle,1,0,,,,,,,,,,,,,,,,switch,number,numSwt,j,Hi,,,,,,0.8134,0,,,,,,,,high,5,0,5,0,1,,,,,,,,,
295657,2022-11-21_15h08.03.096,vts_reward_expectancy_bt,2022.2.4,MacIntel,60.0024001,Chrome,1470,956,,,,,1,723,,,,,,,,,,,,,,,,,Y,174,hexagon,1,0,,,,,,,,,,,,,,,,repeat,number,numRpt,k,Lo,,,,,,0.6323,0,,,,,,,,high,6,0,6,0,1,,,,,,,,,
295657,2022-11-21_15h08.03.096,vts_reward_expectancy_bt,2022.2.4,MacIntel,60.0024001,Chrome,1470,956,,,,,0,723,,,,,,,,,,,,,,,,,H,167,star,0,0,,,,,,,,,,,,,,,,switch,letter,NA,f,Lo,,,,,,0.8122,0,,,,,,,,high,7,0,7,0,1,,,,,,,,,
295657,2022-11-21_15h08.03.096,vts_reward_expectancy_bt,2022.2.4,MacIntel,60.0024001,Chrome,1470,956,,,,,0,723,,,,,,,,,,,,,,,,,U,146,circle,1,1,,,,,,,,,,,,,,,,repeat,letter,lettRpt,f,Hi,,,,,,1.0692,0,,,,,,,,high,8,0,8,0,1,,,,,,,,,
295657,2022-11-21_15h08.03.096,vts_reward_expectancy_bt,2022.2.4,MacIntel,60.0024001,Chrome,1470,956,,,,,1,724,,,,,,,,,,,,,,,,,D,160,star,1,0,,,,,,,,,,,,,,,,repeat,letter,lettRpt,d,Lo,,,,,,0.4142,0,,,,,,,,high,9,0,9,0,1,,,,,,,,,
295657,2022-11-21_15h08.03.096,vts_reward_expectancy_bt,2022.2.4,MacIntel,60.0024001,Chrome,1470,956,,,,,1,725,,,,,,,,,,,,,,,,,B,181,hexagon,1,0,,,,,,,,,,,,,,,,repeat,letter,lettRpt,d,Lo,,,,,,0.4973,0,,,,,,,,high,10,0,10,0,1,,,,,,,,,
295657,2022-11-21_15h08.03.096,vts_reward_expectancy_bt,2022.2.4,MacIntel,60.0024001,Chrome,1470,956,,,,,0,725,,,,,,,,,,,,,,,,,W,139,triangle,0,0,,,,,,,,,,,,,,,,switch,number,NA,k,Lo,,,,,,0.6633,0,,,,,,,,high,11,0,11,0,1,,,,,,,,,
295657,2022-11-21_15h08.03.096,vts_reward_expectancy_bt,2022.2.4,MacIntel,60.0024001,Chrome,1470,956,,,,,0,725,,,,,,,,,,,,,,,,,S,125,circle,1,1,,,,,,,,,,,,,,,,repeat,number,numRpt,j,Hi,,,,,,1.2699,0,,,,,,,,high,12,0,12,0,1,,,,,,,,,
295657,2022-11-21_15h08.03.096,vts_reward_expectancy_bt,2022.2.4,MacIntel,60.0024001,Chrome,1470,956,,,,,10,735,,,,,,,,,,,,,,,,,F,132,triangle,1,0,,,,,,,,,,,,,,,,repeat,number,numRpt,j,Hi,,,,,,0.5809,0,,,,,,,,high,13,0,13,0,1,,,,,,,,,
295657,2022-11-21_15h08.03.096,vts_reward_expectancy_bt,2022.2.4,MacIntel,60.0024001,Chrome,1470,956,,,,,1,736,,,,,,,,,,,,,,,,,Y,174,hexagon,1,0,,,,,,,,,,,,,,,,repeat,number,numRpt,k,Lo,,,,,,0.6141,0,,,,,,,,high,14,0,14,0,1,,,,,,,,,
295657,2022-11-21_15h08.03.096,vts_reward_expectancy_bt,2022.2.4,MacIntel,60.0024001,Chrome,1470,956,,,,,1,737,,,,,,,,,,,,,,,,,H,167,star,1,0,,,,,,,,,,,,,,,,repeat,number,numRpt,k,Lo,,,,,,0.4807,0,,,,,,,,high,15,0,15,0,1,,,,,,,,,
295657,2022-11-21_15h08.03.096,vts_reward_expectancy_bt,2022.2.4,MacIntel,60.0024001,Chrome,1470,956,,,,,1,738,,,,,,,,,,,,,,,,,S,139,hexagon,1,0,,,,,,,,,,,,,,,,repeat,number,numRpt,j,Lo,,,,,,0.5804,0,,,,,,,,high,16,0,16,0,1,,,,,,,,,
295657,2022-11-21_15h08.03.096,vts_reward_expectancy_bt,2022.2.4,MacIntel,60.0024001,Chrome,1470,956,,,,,10,748,,,,,,,,,,,,,,,,,Y,174,star,1,0,,,,,,,,,,,,,,,,switch,letter,lettSwt,f,Lo,,,,,,0.6642,0,,,,,,,,high,17,0,17,0,1,,,,,,,,,
295657,2022-11-21_15h08.03.096,vts_reward_expectancy_bt,2022.2.4,MacIntel,60.0024001,Chrome,1470,956,,,,,10,758,,,,,,,,,,,,,,,,,W,125,triangle,1,0,,,,,,,,,,,,,,,,repeat,letter,lettRpt,f,Hi,,,,,,0.813,0,,,,,,,,high,18,0,18,0,1,,,,,,,,,
295657,2022-11-21_15h08.03.096,vts_reward_expectancy_bt,2022.2.4,MacIntel,60.0024001,Chrome,1470,956,,,,,10,768,,,,,,,,,,,,,,,,,H,167,circle,1,0,,,,,,,,,,,,,,,,repeat,letter,lettRpt,d,Hi,,,,,,0.5639,0,,,,,,,,high,19,0,19,0,1,,,,,,,,,
295657,2022-11-21_15h08.03.096,vts_reward_expectancy_bt,2022.2.4,MacIntel,60.0024001,Chrome,1470,956,,,,,1,769,,,,,,,,,,,,,,,,,D,160,hexagon,1,0,,,,,,,,,,,,,,,,switch,number,numSwt,k,Lo,,,,,,0.5341,0,,,,,,,,high,20,0,20,0,1,,,,,,,,,
295657,2022-11-21_15h08.03.096,vts_reward_expectancy_bt,2022.2.4,MacIntel,60.0024001,Chrome,1470,956,,,,,0,769,,,,,,,,,,,,,,,,,F,146,star,0,0,,,,,,,,,,,,,,,,repeat,number,NA,k,Lo,,,,,,0.7885,0,,,,,,,,high,21,0,21,0,1,,,,,,,,,
295657,2022-11-21_15h08.03.096,vts_reward_expectancy_bt,2022.2.4,MacIntel,60.0024001,Chrome,1470,956,,,,,0,769,,,,,,,,,,,,,,,,,U,132,triangle,1,1,,,,,,,,,,,,,,,,switch,letter,lettSwt,f,Hi,,,,,,1.082,0,,,,,,,,high,22,0,22,0,1,,,,,,,,,
295657,2022-11-21_15h08.03.096,vts_reward_expectancy_bt,2022.2.4,MacIntel,60.0024001,Chrome,1470,956,,,,,10,779,,,,,,,,,,,,,,,,,B,181,circle,1,0,,,,,,,,,,,,,,,,repeat,letter,lettRpt,d,Hi,,,,,,0.5152,0,,,,,,,,high,23,0,23,0,1,,,,,,,,,
295657,2022-11-21_15h08.03.096,vts_reward_expectancy_bt,2022.2.4,MacIntel,60.0024001,Chrome,1470,956,,,,,1,780,,,,,,,,,,,,,,,,,S,146,star,1,0,,,,,,,,,,,,,,,,repeat,letter,lettRpt,f,Lo,,,,,,0.8978,0,,,,,,,,high,24,0,24,0,1,,,,,,,,,
295657,2022-11-21_15h08.03.096,vts_reward_expectancy_bt,2022.2.4,MacIntel,60.0024001,Chrome,1470,956,,,,,10,790,,,,,,,,,,,,,,,,,B,160,triangle,1,0,,,,,,,,,,,,,,,,repeat,letter,lettRpt,d,Hi,,,,,,0.7155,0,,,,,,,,high,25,0,25,0,1,,,,,,,,,
295657,2022-11-21_15h08.03.096,vts_reward_expectancy_bt,2022.2.4,MacIntel,60.0024001,Chrome,1470,956,,,,,10,800,,,,,,,,,,,,,,,,,F,125,circle,1,0,,,,,,,,,,,,,,,,switch,number,numSwt,j,Hi,,,,,,0.5322,0,,,,,,,,high,26,0,26,0,1,,,,,,,,,
295657,2022-11-21_15h08.03.096,vts_reward_expectancy_bt,2022.2.4,MacIntel,60.0024001,Chrome,1470,956,,,,,1,801,,,,,,,,,,,,,,,,,U,139,hexagon,1,0,,,,,,,,,,,,,,,,switch,letter,lettSwt,f,Lo,,,,,,1.3394,0,,,,,,,,high,27,0,27,0,1,,,,,,,,,
295657,2022-11-21_15h08.03.096,vts_reward_expectancy_bt,2022.2.4,MacIntel,60.0024001,Chrome,1470,956,,,,,0,801,,,,,,,,,,,,,,,,,H,181,triangle,1,0,,,,,,,,,,,,,,,,switch,number,numSwt,k,Hi,,,,,,1.9209,0,,,,,,,,high,28,0,28,0,1,,,,,,,,,
295657,2022-11-21_15h08.03.096,vts_reward_expectancy_bt,2022.2.4,MacIntel,60.0024001,Chrome,1470,956,,,,,1,802,,,,,,,,,,,,,,,,,D,174,hexagon,1,0,,,,,,,,,,,,,,,,repeat,number,numRpt,k,Lo,,,,,,0.5821,0,,,,,,,,high,29,0,29,0,1,,,,,,,,,
295657,2022-11-21_15h08.03.096,vts_reward_expectancy_bt,2022.2.4,MacIntel,60.0024001,Chrome,1470,956,,,,,0,802,,,,,,,,,,,,,,,,,W,167,circle,1,0,,,,,,,,,,,,,,,,switch,letter,lettSwt,f,Hi,,,,,,1.1997,0,,,,,,,,high,30,0,30,0,1,,,,,,,,,
295657,2022-11-21_15h08.03.096,vts_reward_expectancy_bt,2022.2.4,MacIntel,60.0024001,Chrome,1470,956,,,,,1,803,,,,,,,,,,,,,,,,,Y,132,star,1,0,,,,,,,,,,,,,,,,switch,number,numSwt,j,Lo,,,,,,0.6146,0,,,,,,,,high,31,0,31,0,1,,,,,,,,,
295657,2022-11-21_15h08.03.096,vts_reward_expectancy_bt,2022.2.4,MacIntel,60.0024001,Chrome,1470,956,,,,,1,804,,,,,,,,,,,,,,,,,H,174,hexagon,1,0,,,,,,,,,,,,,,,,repeat,number,numRpt,k,Lo,,,,,,0.5283,1,,,,,,space,10.0385,high,0,0,0,0,1,,,,,,,,,
295657,2022-11-21_15h08.03.096,vts_reward_expectancy_bt,2022.2.4,MacIntel,60.0024001,Chrome,1470,956,,,,,0,804,,,,,,,,,,,,,,,,,U,132,star,0,0,,,,,,,,,,,,,,,,switch,letter,NA,d,Lo,,,,,,0.6678,1,,,,,,,,high,1,0,1,0,1,,,,,,,,,
295657,2022-11-21_15h08.03.096,vts_reward_expectancy_bt,2022.2.4,MacIntel,60.0024001,Chrome,1470,956,,,,,0,804,,,,,,,,,,,,,,,,,F,146,circle,0,1,,,,,,,,,,,,,,,,switch,number,NA,k,Lo,,,,,,0.6237,1,,,,,,,,high,2,0,2,0,1,,,,,,,,,
295657,2022-11-21_15h08.03.096,vts_reward_expectancy_bt,2022.2.4,MacIntel,60.0024001,Chrome,1470,956,,,,,10,814,,,,,,,,,,,,,,,,,B,181,triangle,1,1,,,,,,,,,,,,,,,,repeat,number,numRpt,k,Hi,,,,,,0.5118,1,,,,,,,,high,3,0,3,0,1,,,,,,,,,
295657,2022-11-21_15h08.03.096,vts_reward_expectancy_bt,2022.2.4,MacIntel,60.0024001,Chrome,1470,956,,,,,1,815,,,,,,,,,,,,,,,,,S,167,hexagon,1,0,,,,,,,,,,,,,,,,repeat,number,numRpt,k,Lo,,,,,,0.5439,1,,,,,,,,high,4,0,4,0,1,,,,,,,,,
295657,2022-11-21_15h08.03.096,vts_reward_expectancy_bt,2022.2.4,MacIntel,60.0024001,Chrome,1470,956,,,,,1,816,,,,,,,,,,,,,,,,,D,125,star,1,0,,,,,,,,,,,,,,,,repeat,number,numRpt,j,Lo,,,,,,0.4986,1,,,,,,,,high,5,0,5,0,1,,,,,,,,,
295657,2022-11-21_15h08.03.096,vts_reward_expectancy_bt,2022.2.4,MacIntel,60.0024001,Chrome,1470,956,,,,,0,816,,,,,,,,,,,,,,,,,Y,160,circle,1,0,,,,,,,,,,,,,,,,repeat,number,numRpt,k,Hi,,,,,,0.5892,1,,,,,,,,high,6,0,6,0,1,,,,,,,,,
295657,2022-11-21_15h08.03.096,vts_reward_expectancy_bt,2022.2.4,MacIntel,60.0024001,Chrome,1470,956,,,,,10,826,,,,,,,,,,,,,,,,,W,139,triangle,1,0,,,,,,,,,,,,,,,,repeat,number,numRpt,j,Hi,,,,,,0.455,1,,,,,,,,high,7,0,7,0,1,,,,,,,,,
295657,2022-11-21_15h08.03.096,vts_reward_expectancy_bt,2022.2.4,MacIntel,60.0024001,Chrome,1470,956,,,,,10,836,,,,,,,,,,,,,,,,,H,174,hexagon,1,0,,,,,,,,,,,,,,,,repeat,number,numRpt,k,Lo,,,,,,0.7533,1,,,,,,,,high,8,0,8,0,1,,,,,,,,,
295657,2022-11-21_15h08.03.096,vts_reward_expectancy_bt,2022.2.4,MacIntel,60.0024001,Chrome,1470,956,,,,,1,837,,,,,,,,,,,,,,,,,U,132,star,1,0,,,,,,,,,,,,,,,,repeat,number,numRpt,j,Lo,,,,,,0.5634,1,,,,,,,,high,9,0,9,0,1,,,,,,,,,
295657,2022-11-21_15h08.03.096,vts_reward_expectancy_bt,2022.2.4,MacIntel,60.0024001,Chrome,1470,956,,,,,0,837,,,,,,,,,,,,,,,,,F,146,circle,1,0,,,,,,,,,,,,,,,,switch,letter,lettSwt,d,Hi,,,,,,1.2533,1,,,,,,,,high,10,0,10,0,1,,,,,,,,,
295657,2022-11-21_15h08.03.096,vts_reward_expectancy_bt,2022.2.4,MacIntel,60.0024001,Chrome,1470,956,,,,,10,847,,,,,,,,,,,,,,,,,B,181,triangle,1,0,,,,,,,,,,,,,,,,repeat,letter,lettRpt,d,Hi,,,,,,0.5451,1,,,,,,,,high,11,0,11,0,1,,,,,,,,,
295657,2022-11-21_15h08.03.096,vts_reward_expectancy_bt,2022.2.4,MacIntel,60.0024001,Chrome,1470,956,,,,,1,848,,,,,,,,,,,,,,,,,S,167,star,1,0,,,,,,,,,,,,,,,,repeat,letter,lettRpt,f,Lo,,,,,,0.7981,1,,,,,,,,high,12,0,12,0,1,,,,,,,,,
295657,2022-11-21_15h08.03.096,vts_reward_expectancy_bt,2022.2.4,MacIntel,60.0024001,Chrome,1470,956,,,,,1,849,,,,,,,,,,,,,,,,,D,125,hexagon,1,0,,,,,,,,,,,,,,,,repeat,letter,lettRpt,d,Lo,,,,,,0.682,1,,,,,,,,high,13,0,13,0,1,,,,,,,,,
295657,2022-11-21_15h08.03.096,vts_reward_expectancy_bt,2022.2.4,MacIntel,60.0024001,Chrome,1470,956,,,,,0,849,,,,,,,,,,,,,,,,,Y,160,triangle,0,0,,,,,,,,,,,,,,,,repeat,letter,NA,d,Lo,,,,,,1.0235,1,,,,,,,,high,14,0,14,0,1,,,,,,,,,
295657,2022-11-21_15h08.03.096,vts_reward_expectancy_bt,2022.2.4,MacIntel,60.0024001,Chrome,1470,956,,,,,0,849,,,,,,,,,,,,,,,,,W,139,circle,1,1,,,,,,,,,,,,,,,,repeat,letter,lettRpt,f,Hi,,,,,,0.8479,1,,,,,,,,high,15,0,15,0,1,,,,,,,,,
295657,2022-11-21_15h08.03.096,vts_reward_expectancy_bt,2022.2.4,MacIntel,60.0024001,Chrome,1470,956,,,,,0,849,,,,,,,,,,,,,,,,,U,181,triangle,1,0,,,,,,,,,,,,,,,,repeat,letter,lettRpt,f,Hi,,,,,,0.7123,1,,,,,,,,high,16,0,16,0,1,,,,,,,,,
295657,2022-11-21_15h08.03.096,vts_reward_expectancy_bt,2022.2.4,MacIntel,60.0024001,Chrome,1470,956,,,,,1,850,,,,,,,,,,,,,,,,,H,167,star,1,0,,,,,,,,,,,,,,,,repeat,letter,lettRpt,d,Lo,,,,,,0.844,1,,,,,,,,high,17,0,17,0,1,,,,,,,,,
295657,2022-11-21_15h08.03.096,vts_reward_expectancy_bt,2022.2.4,MacIntel,60.0024001,Chrome,1470,956,,,,,0,850,,,,,,,,,,,,,,,,,S,160,circle,1,0,,,,,,,,,,,,,,,,switch,number,numSwt,k,Hi,,,,,,0.5954,1,,,,,,,,high,18,0,18,0,1,,,,,,,,,
295657,2022-11-21_15h08.03.096,vts_reward_expectancy_bt,2022.2.4,MacIntel,60.0024001,Chrome,1470,956,,,,,0,850,,,,,,,,,,,,,,,,,Y,146,hexagon,0,0,,,,,,,,,,,,,,,,switch,letter,NA,d,Hi,,,,,,0.3846,1,,,,,,,,high,19,0,19,0,1,,,,,,,,,
295657,2022-11-21_15h08.03.096,vts_reward_expectancy_bt,2022.2.4,MacIntel,60.0024001,Chrome,1470,956,,,,,0,850,,,,,,,,,,,,,,,,,F,174,circle,1,1,,,,,,,,,,,,,,,,repeat,letter,lettRpt,d,Hi,,,,,,0.6121,1,,,,,,,,high,20,0,20,0,1,,,,,,,,,
295657,2022-11-21_15h08.03.096,vts_reward_expectancy_bt,2022.2.4,MacIntel,60.0024001,Chrome,1470,956,,,,,1,851,,,,,,,,,,,,,,,,,D,132,hexagon,1,0,,,,,,,,,,,,,,,,switch,number,numSwt,j,Lo,,,,,,0.6318,1,,,,,,,,high,21,0,21,0,1,,,,,,,,,
295657,2022-11-21_15h08.03.096,vts_reward_expectancy_bt,2022.2.4,MacIntel,60.0024001,Chrome,1470,956,,,,,1,852,,,,,,,,,,,,,,,,,B,139,star,1,0,,,,,,,,,,,,,,,,repeat,number,numRpt,j,Lo,,,,,,0.9321,1,,,,,,,,high,22,0,22,0,1,,,,,,,,,
295657,2022-11-21_15h08.03.096,vts_reward_expectancy_bt,2022.2.4,MacIntel,60.0024001,Chrome,1470,956,,,,,0,852,,,,,,,,,,,,,,,,,W,125,triangle,1,0,,,,,,,,,,,,,,,,repeat,number,numRpt,j,Hi,,,,,,0.7463,1,,,,,,,,high,23,0,23,0,1,,,,,,,,,
295657,2022-11-21_15h08.03.096,vts_reward_expectancy_bt,2022.2.4,MacIntel,60.0024001,Chrome,1470,956,,,,,10,862,,,,,,,,,,,,,,,,,H,160,star,1,0,,,,,,,,,,,,,,,,repeat,number,numRpt,k,Lo,,,,,,0.664,1,,,,,,,,high,24,0,24,0,1,,,,,,,,,
295657,2022-11-21_15h08.03.096,vts_reward_expectancy_bt,2022.2.4,MacIntel,60.0024001,Chrome,1470,956,,,,,10,872,,,,,,,,,,,,,,,,,W,139,triangle,1,0,,,,,,,,,,,,,,,,switch,letter,lettSwt,f,Hi,,,,,,0.7868,1,,,,,,,,high,25,0,25,0,1,,,,,,,,,
295657,2022-11-21_15h08.03.096,vts_reward_expectancy_bt,2022.2.4,MacIntel,60.0024001,Chrome,1470,956,,,,,1,873,,,,,,,,,,,,,,,,,D,125,hexagon,1,0,,,,,,,,,,,,,,,,switch,number,numSwt,j,Lo,,,,,,0.581,1,,,,,,,,high,26,0,26,0,1,,,,,,,,,
295657,2022-11-21_15h08.03.096,vts_reward_expectancy_bt,2022.2.4,MacIntel,60.0024001,Chrome,1470,956,,,,,10,883,,,,,,,,,,,,,,,,,B,174,circle,1,0,,,,,,,,,,,,,,,,switch,letter,lettSwt,d,Hi,,,,,,0.6438,1,,,,,,,,high,27,0,27,0,1,,,,,,,,,
295657,2022-11-21_15h08.03.096,vts_reward_expectancy_bt,2022.2.4,MacIntel,60.0024001,Chrome,1470,956,,,,,1,884,,,,,,,,,,,,,,,,,Y,181,star,1,0,,,,,,,,,,,,,,,,repeat,letter,lettRpt,f,Lo,,,,,,0.5992,1,,,,,,,,high,28,0,28,0,1,,,,,,,,,
295657,2022-11-21_15h08.03.096,vts_reward_expectancy_bt,2022.2.4,MacIntel,60.0024001,Chrome,1470,956,,,,,1,885,,,,,,,,,,,,,,,,,S,132,hexagon,1,0,,,,,,,,,,,,,,,,switch,number,numSwt,j,Lo,,,,,,0.5122,1,,,,,,,,high,29,0,29,0,1,,,,,,,,,
295657,2022-11-21_15h08.03.096,vts_reward_expectancy_bt,2022.2.4,MacIntel,60.0024001,Chrome,1470,956,,,,,0,885,,,,,,,,,,,,,,,,,F,146,triangle,1,0,,,,,,,,,,,,,,,,repeat,number,numRpt,j,Hi,,,,,,0.7283,1,,,,,,,,high,30,0,30,0,1,,,,,,,,,
295657,2022-11-21_15h08.03.096,vts_reward_expectancy_bt,2022.2.4,MacIntel,60.0024001,Chrome,1470,956,,,,,0,885,,,,,,,,,,,,,,,,,U,167,circle,1,0,,,,,,,,,,,,,,,,repeat,number,numRpt,k,Hi,,,,,,0.627,1,,,,,,,,high,31,0,31,0,1,,,,,,,,,
295657,2022-11-21_15h08.03.096,vts_reward_expectancy_bt,2022.2.4,MacIntel,60.0024001,Chrome,1470,956,,,,,10,895,,,,,,,,,,,,,,,,,F,146,triangle,1,0,,,,,,,,,,,,,,,,switch,letter,lettSwt,d,Hi,,,,,,0.7214,2,,,,,,space,0.8491,high,0,0,0,0,1,,,,,,,,,
295657,2022-11-21_15h08.03.096,vts_reward_expectancy_bt,2022.2.4,MacIntel,60.0024001,Chrome,1470,956,,,,,0,895,,,,,,,,,,,,,,,,,D,132,circle,1,0,,,,,,,,,,,,,,,,repeat,letter,lettRpt,d,Hi,,,,,,0.7764,2,,,,,,,,high,1,0,1,0,1,,,,,,,,,
295657,2022-11-21_15h08.03.096,vts_reward_expectancy_bt,2022.2.4,MacIntel,60.0024001,Chrome,1470,956,,,,,1,896,,,,,,,,,,,,,,,,,B,139,star,1,0,,,,,,,,,,,,,,,,repeat,letter,lettRpt,d,Lo,,,,,,0.2954,2,,,,,,,,high,2,0,2,0,1,,,,,,,,,
295657,2022-11-21_15h08.03.096,vts_reward_expectancy_bt,2022.2.4,MacIntel,60.0024001,Chrome,1470,956,,,,,0,896,,,,,,,,,,,,,,,,,S,167,hexagon,0,0,,,,,,,,,,,,,,,,switch,number,NA,j,Lo,,,,,,0.1812,2,,,,,,,,high,3,0,3,0,1,,,,,,,,,
295657,2022-11-21_15h08.03.096,vts_reward_expectancy_bt,2022.2.4,MacIntel,60.0024001,Chrome,1470,956,,,,,0,896,,,,,,,,,,,,,,,,,W,174,triangle,1,1,,,,,,,,,,,,,,,,repeat,number,numRpt,k,Hi,,,,,,0.5766,2,,,,,,,,high,4,0,4,0,1,,,,,,,,,
295657,2022-11-21_15h08.03.096,vts_reward_expectancy_bt,2022.2.4,MacIntel,60.0024001,Chrome,1470,956,,,,,0,896,,,,,,,,,,,,,,,,,Y,125,circle,0,0,,,,,,,,,,,,,,,,repeat,number,NA,k,Hi,,,,,,0.4516,2,,,,,,,,high,5,0,5,0,1,,,,,,,,,
295657,2022-11-21_15h08.03.096,vts_reward_expectancy_bt,2022.2.4,MacIntel,60.0024001,Chrome,1470,956,,,,,1,897,,,,,,,,,,,,,,,,,H,160,star,1,1,,,,,,,,,,,,,,,,repeat,number,numRpt,k,Lo,,,,,,0.5431,2,,,,,,,,high,6,0,6,0,1,,,,,,,,,
295657,2022-11-21_15h08.03.096,vts_reward_expectancy_bt,2022.2.4,MacIntel,60.0024001,Chrome,1470,956,,,,,10,907,,,,,,,,,,,,,,,,,U,181,hexagon,1,0,,,,,,,,,,,,,,,,repeat,number,numRpt,k,Lo,,,,,,0.5761,2,,,,,,,,high,7,0,7,0,1,,,,,,,,,
295657,2022-11-21_15h08.03.096,vts_reward_expectancy_bt,2022.2.4,MacIntel,60.0024001,Chrome,1470,956,,,,,0,907,,,,,,,,,,,,,,,,,F,146,triangle,1,0,,,,,,,,,,,,,,,,switch,letter,lettSwt,d,Hi,,,,,,0.8695,2,,,,,,,,high,8,0,8,0,1,,,,,,,,,
295657,2022-11-21_15h08.03.096,vts_reward_expectancy_bt,2022.2.4,MacIntel,60.0024001,Chrome,1470,956,,,,,0,907,,,,,,,,,,,,,,,,,D,132,circle,1,0,,,,,,,,,,,,,,,,repeat,letter,lettRpt,d,Hi,,,,,,0.6664,2,,,,,,,,high,9,0,9,0,1,,,,,,,,,
295657,2022-11-21_15h08.03.096,vts_reward_expectancy_bt,2022.2.4,MacIntel,60.0024001,Chrome,1470,956,,,,,1,908,,,,,,,,,,,,,,,,,B,139,star,1,0,,,,,,,,,,,,,,,,repeat,letter,lettRpt,d,Lo,,,,,,0.3812,2,,,,,,,,high,10,0,10,0,1,,,,,,,,,
295657,2022-11-21_15h08.03.096,vts_reward_expectancy_bt,2022.2.4,MacIntel,60.0024001,Chrome,1470,956,,,,,1,909,,,,,,,,,,,,,,,,,S,167,hexagon,1,0,,,,,,,,,,,,,,,,switch,number,numSwt,k,Lo,,,,,,0.6603,2,,,,,,,,high,11,0,11,0,1,,,,,,,,,
295657,2022-11-21_15h08.03.096,vts_reward_expectancy_bt,2022.2.4,MacIntel,60.0024001,Chrome,1470,956,,,,,10,919,,,,,,,,,,,,,,,,,W,174,triangle,1,0,,,,,,,,,,,,,,,,repeat,number,numRpt,k,Hi,,,,,,0.5031,2,,,,,,,,high,12,0,12,0,1,,,,,,,,,
295657,2022-11-21_15h08.03.096,vts_reward_expectancy_bt,2022.2.4,MacIntel,60.0024001,Chrome,1470,956,,,,,0,919,,,,,,,,,,,,,,,,,Y,125,star,0,0,,,,,,,,,,,,,,,,switch,letter,NA,d,Hi,,,,,,0.5197,2,,,,,,,,high,13,0,13,0,1,,,,,,,,,
295657,2022-11-21_15h08.03.096,vts_reward_expectancy_bt,2022.2.4,MacIntel,60.0024001,Chrome,1470,956,,,,,1,920,,,,,,,,,,,,,,,,,H,160,hexagon,1,1,,,,,,,,,,,,,,,,repeat,letter,lettRpt,d,Lo,,,,,,0.727,2,,,,,,,,high,14,0,14,0,1,,,,,,,,,
295657,2022-11-21_15h08.03.096,vts_reward_expectancy_bt,2022.2.4,MacIntel,60.0024001,Chrome,1470,956,,,,,0,920,,,,,,,,,,,,,,,,,U,181,circle,0,0,,,,,,,,,,,,,,,,repeat,letter,NA,d,Lo,,,,,,0.5061,2,,,,,,,,high,15,0,15,0,1,,,,,,,,,
295657,2022-11-21_15h08.03.096,vts_reward_expectancy_bt,2022.2.4,MacIntel,60.0024001,Chrome,1470,956,,,,,1,921,,,,,,,,,,,,,,,,,F,160,circle,1,1,,,,,,,,,,,,,,,,switch,number,numSwt,k,Hi,,,,,,0.3782,2,,,,,,,,high,16,0,16,0,1,,,,,,,,,
295657,2022-11-21_15h08.03.096,vts_reward_expectancy_bt,2022.2.4,MacIntel,60.0024001,Chrome,1470,956,,,,,0,921,,,,,,,,,,,,,,,,,Y,132,triangle,1,0,,,,,,,,,,,,,,,,repeat,number,numRpt,j,Hi,,,,,,0.6603,2,,,,,,,,high,17,0,17,0,1,,,,,,,,,
295657,2022-11-21_15h08.03.096,vts_reward_expectancy_bt,2022.2.4,MacIntel,60.0024001,Chrome,1470,956,,,,,0,921,,,,,,,,,,,,,,,,,S,167,hexagon,0,0,,,,,,,,,,,,,,,,repeat,number,NA,j,Hi,,,,,,0.0125,2,,,,,,,,high,18,0,18,0,1,,,,,,,,,
295657,2022-11-21_15h08.03.096,vts_reward_expectancy_bt,2022.2.4,MacIntel,60.0024001,Chrome,1470,956,,,,,1,922,,,,,,,,,,,,,,,,,H,139,star,1,1,,,,,,,,,,,,,,,,repeat,number,numRpt,j,Lo,,,,,,0.5322,2,,,,,,,,high,19,0,19,0,1,,,,,,,,,
295657,2022-11-21_15h08.03.096,vts_reward_expectancy_bt,2022.2.4,MacIntel,60.0024001,Chrome,1470,956,,,,,1,923,,,,,,,,,,,,,,,,,D,181,star,1,0,,,,,,,,,,,,,,,,switch,letter,lettSwt,d,Lo,,,,,,0.7471,2,,,,,,,,high,20,0,20,0,1,,,,,,,,,
295657,2022-11-21_15h08.03.096,vts_reward_expectancy_bt,2022.2.4,MacIntel,60.0024001,Chrome,1470,956,,,,,10,933,,,,,,,,,,,,,,,,,B,174,hexagon,1,0,,,,,,,,,,,,,,,,repeat,letter,lettRpt,d,Lo,,,,,,0.1354,2,,,,,,,,high,21,0,21,0,1,,,,,,,,,
295657,2022-11-21_15h08.03.096,vts_reward_expectancy_bt,2022.2.4,MacIntel,60.0024001,Chrome,1470,956,,,,,10,943,,,,,,,,,,,,,,,,,W,125,triangle,1,0,,,,,,,,,,,,,,,,repeat,letter,lettRpt,f,Hi,,,,,,0.6056,2,,,,,,,,high,22,0,22,0,1,,,,,,,,,
295657,2022-11-21_15h08.03.096,vts_reward_expectancy_bt,2022.2.4,MacIntel,60.0024001,Chrome,1470,956,,,,,0,943,,,,,,,,,,,,,,,,,U,146,circle,0,0,,,,,,,,,,,,,,,,repeat,letter,NA,d,Hi,,,,,,0.5666,2,,,,,,,,high,23,0,23,0,1,,,,,,,,,
295657,2022-11-21_15h08.03.096,vts_reward_expectancy_bt,2022.2.4,MacIntel,60.0024001,Chrome,1470,956,,,,,0,943,,,,,,,,,,,,,,,,,H,167,circle,0,1,,,,,,,,,,,,,,,,switch,number,NA,j,Hi,,,,,,0.3882,2,,,,,,,,high,24,0,24,0,1,,,,,,,,,
295657,2022-11-21_15h08.03.096,vts_reward_expectancy_bt,2022.2.4,MacIntel,60.0024001,Chrome,1470,956,,,,,1,944,,,,,,,,,,,,,,,,,W,146,hexagon,1,1,,,,,,,,,,,,,,,,repeat,number,numRpt,j,Lo,,,,,,0.6261,2,,,,,,,,high,25,0,25,0,1,,,,,,,,,
295657,2022-11-21_15h08.03.096,vts_reward_expectancy_bt,2022.2.4,MacIntel,60.0024001,Chrome,1470,956,,,,,1,945,,,,,,,,,,,,,,,,,Y,181,star,1,0,,,,,,,,,,,,,,,,repeat,number,numRpt,k,Lo,,,,,,0.482,2,,,,,,,,high,26,0,26,0,1,,,,,,,,,
295657,2022-11-21_15h08.03.096,vts_reward_expectancy_bt,2022.2.4,MacIntel,60.0024001,Chrome,1470,956,,,,,1,946,,,,,,,,,,,,,,,,,F,174,triangle,1,0,,,,,,,,,,,,,,,,repeat,number,numRpt,k,Hi,,,,,,0.5148,2,,,,,,,,high,27,0,27,0,1,,,,,,,,,
295657,2022-11-21_15h08.03.096,vts_reward_expectancy_bt,2022.2.4,MacIntel,60.0024001,Chrome,1470,956,,,,,1,947,,,,,,,,,,,,,,,,,D,160,star,1,0,,,,,,,,,,,,,,,,switch,letter,lettSwt,d,Lo,,,,,,0.5484,2,,,,,,,,high,28,0,28,0,1,,,,,,,,,
295657,2022-11-21_15h08.03.096,vts_reward_expectancy_bt,2022.2.4,MacIntel,60.0024001,Chrome,1470,956,,,,,10,957,,,,,,,,,,,,,,,,,S,132,circle,1,0,,,,,,,,,,,,,,,,repeat,letter,lettRpt,f,Hi,,,,,,0.5964,2,,,,,,,,high,29,0,29,0,1,,,,,,,,,
295657,2022-11-21_15h08.03.096,vts_reward_expectancy_bt,2022.2.4,MacIntel,60.0024001,Chrome,1470,956,,,,,0,957,,,,,,,,,,,,,,,,,U,139,hexagon,0,0,,,,,,,,,,,,,,,,repeat,letter,NA,d,Hi,,,,,,0.5523,2,,,,,,,,high,30,0,30,0,1,,,,,,,,,
295657,2022-11-21_15h08.03.096,vts_reward_expectancy_bt,2022.2.4,MacIntel,60.0024001,Chrome,1470,956,,,,,10,967,,,,,,,,,,,,,,,,,B,125,triangle,1,1,,,,,,,,,,,,,,,,repeat,letter,lettRpt,d,Hi,,,,,,0.5986,2,,,,,,,,high,31,0,31,0,1,,,,,,,,,
295657,2022-11-21_15h08.03.096,vts_reward_expectancy_bt,2022.2.4,MacIntel,60.0024001,Chrome,1470,956,,,,,0,967,,,,,,,,,,,,,,,,,S,139,star,0,0,,,,,,,,,,,,,,,,repeat,letter,NA,d,Hi,,,,,,0.9664,3,,,,,,space,2.1483,high,0,0,0,0,1,,,,,,,,,
295657,2022-11-21_15h08.03.096,vts_reward_expectancy_bt,2022.2.4,MacIntel,60.0024001,Chrome,1470,956,,,,,1,968,,,,,,,,,,,,,,,,,D,160,hexagon,1,1,,,,,,,,,,,,,,,,repeat,letter,lettRpt,d,Lo,,,,,,0.5157,3,,,,,,,,high,1,0,1,0,1,,,,,,,,,
295657,2022-11-21_15h08.03.096,vts_reward_expectancy_bt,2022.2.4,MacIntel,60.0024001,Chrome,1470,956,,,,,0,968,,,,,,,,,,,,,,,,,Y,181,triangle,1,0,,,,,,,,,,,,,,,,repeat,letter,lettRpt,f,Hi,,,,,,0.5715,3,,,,,,,,high,2,0,2,0,1,,,,,,,,,
295657,2022-11-21_15h08.03.096,vts_reward_expectancy_bt,2022.2.4,MacIntel,60.0024001,Chrome,1470,956,,,,,10,978,,,,,,,,,,,,,,,,,U,132,circle,1,0,,,,,,,,,,,,,,,,switch,number,numSwt,j,Hi,,,,,,0.4981,3,,,,,,,,high,3,0,3,0,1,,,,,,,,,
295657,2022-11-21_15h08.03.096,vts_reward_expectancy_bt,2022.2.4,MacIntel,60.0024001,Chrome,1470,956,,,,,1,979,,,,,,,,,,,,,,,,,B,125,star,1,0,,,,,,,,,,,,,,,,repeat,number,numRpt,j,Lo,,,,,,0.6438,3,,,,,,,,high,4,0,4,0,1,,,,,,,,,
295657,2022-11-21_15h08.03.096,vts_reward_expectancy_bt,2022.2.4,MacIntel,60.0024001,Chrome,1470,956,,,,,1,980,,,,,,,,,,,,,,,,,F,167,hexagon,1,0,,,,,,,,,,,,,,,,repeat,number,numRpt,k,Lo,,,,,,0.1169,3,,,,,,,,high,5,0,5,0,1,,,,,,,,,
295657,2022-11-21_15h08.03.096,vts_reward_expectancy_bt,2022.2.4,MacIntel,60.0024001,Chrome,1470,956,,,,,0,980,,,,,,,,,,,,,,,,,H,174,triangle,1,0,,,,,,,,,,,,,,,,repeat,number,numRpt,k,Hi,,,,,,0.621,3,,,,,,,,high,6,0,6,0,1,,,,,,,,,
295657,2022-11-21_15h08.03.096,vts_reward_expectancy_bt,2022.2.4,MacIntel,60.0024001,Chrome,1470,956,,,,,0,980,,,,,,,,,,,,,,,,,W,146,circle,0,0,,,,,,,,,,,,,,,,switch,letter,NA,d,Hi,,,,,,0.4943,3,,,,,,,,high,7,0,7,0,1,,,,,,,,,
295657,2022-11-21_15h08.03.096,vts_reward_expectancy_bt,2022.2.4,MacIntel,60.0024001,Chrome,1470,956,,,,,1,981,,,,,,,,,,,,,,,,,S,139,hexagon,1,1,,,,,,,,,,,,,,,,switch,number,numSwt,j,Lo,,,,,,0.5493,3,,,,,,,,high,8,0,8,0,1,,,,,,,,,
295657,2022-11-21_15h08.03.096,vts_reward_expectancy_bt,2022.2.4,MacIntel,60.0024001,Chrome,1470,956,,,,,1,982,,,,,,,,,,,,,,,,,D,160,star,1,0,,,,,,,,,,,,,,,,repeat,number,numRpt,k,Lo,,,,,,0.6102,3,,,,,,,,high,9,0,9,0,1,,,,,,,,,
295657,2022-11-21_15h08.03.096,vts_reward_expectancy_bt,2022.2.4,MacIntel,60.0024001,Chrome,1470,956,,,,,10,992,,,,,,,,,,,,,,,,,Y,181,circle,1,0,,,,,,,,,,,,,,,,switch,letter,lettSwt,f,Hi,,,,,,0.6969,3,,,,,,,,high,10,0,10,0,1,,,,,,,,,
295657,2022-11-21_15h08.03.096,vts_reward_expectancy_bt,2022.2.4,MacIntel,60.0024001,Chrome,1470,956,,,,,10,1002,,,,,,,,,,,,,,,,,U,132,triangle,1,0,,,,,,,,,,,,,,,,switch,number,numSwt,j,Hi,,,,,,0.4965,3,,,,,,,,high,11,0,11,0,1,,,,,,,,,
295657,2022-11-21_15h08.03.096,vts_reward_expectancy_bt,2022.2.4,MacIntel,60.0024001,Chrome,1470,956,,,,,0,1002,,,,,,,,,,,,,,,,,B,125,circle,1,0,,,,,,,,,,,,,,,,repeat,number,numRpt,j,Hi,,,,,,0.6156,3,,,,,,,,high,12,0,12,0,1,,,,,,,,,
295657,2022-11-21_15h08.03.096,vts_reward_expectancy_bt,2022.2.4,MacIntel,60.0024001,Chrome,1470,956,,,,,1,1003,,,,,,,,,,,,,,,,,F,167,hexagon,1,0,,,,,,,,,,,,,,,,repeat,number,numRpt,k,Lo,,,,,,0.4767,3,,,,,,,,high,13,0,13,0,1,,,,,,,,,
295657,2022-11-21_15h08.03.096,vts_reward_expectancy_bt,2022.2.4,MacIntel,60.0024001,Chrome,1470,956,,,,,10,1013,,,,,,,,,,,,,,,,,H,174,star,1,0,,,,,,,,,,,,,,,,repeat,number,numRpt,k,Lo,,,,,,0.4763,3,,,,,,,,high,14,0,14,0,1,,,,,,,,,
295657,2022-11-21_15h08.03.096,vts_reward_expectancy_bt,2022.2.4,MacIntel,60.0024001,Chrome,1470,956,,,,,10,1023,,,,,,,,,,,,,,,,,W,146,triangle,1,0,,,,,,,,,,,,,,,,repeat,number,numRpt,j,Hi,,,,,,0.5029,3,,,,,,,,high,15,0,15,0,1,,,,,,,,,
295657,2022-11-21_15h08.03.096,vts_reward_expectancy_bt,2022.2.4,MacIntel,60.0024001,Chrome,1470,956,,,,,1,1024,,,,,,,,,,,,,,,,,D,181,hexagon,1,0,,,,,,,,,,,,,,,,switch,letter,lettSwt,d,Lo,,,,,,0.644,3,,,,,,,,high,16,0,16,0,1,,,,,,,,,
295657,2022-11-21_15h08.03.096,vts_reward_expectancy_bt,2022.2.4,MacIntel,60.0024001,Chrome,1470,956,,,,,1,1025,,,,,,,,,,,,,,,,,F,139,star,1,0,,,,,,,,,,,,,,,,repeat,letter,lettRpt,d,Lo,,,,,,0.7674,3,,,,,,,,high,17,0,17,0,1,,,,,,,,,
295657,2022-11-21_15h08.03.096,vts_reward_expectancy_bt,2022.2.4,MacIntel,60.0024001,Chrome,1470,956,,,,,0,1025,,,,,,,,,,,,,,,,,S,132,circle,1,0,,,,,,,,,,,,,,,,repeat,letter,lettRpt,f,Hi,,,,,,0.5828,3,,,,,,,,high,18,0,18,0,1,,,,,,,,,
295657,2022-11-21_15h08.03.096,vts_reward_expectancy_bt,2022.2.4,MacIntel,60.0024001,Chrome,1470,956,,,,,0,1025,,,,,,,,,,,,,,,,,B,160,triangle,1,0,,,,,,,,,,,,,,,,repeat,letter,lettRpt,d,Hi,,,,,,0.5286,3,,,,,,,,high,19,0,19,0,1,,,,,,,,,
295657,2022-11-21_15h08.03.096,vts_reward_expectancy_bt,2022.2.4,MacIntel,60.0024001,Chrome,1470,956,,,,,1,1026,,,,,,,,,,,,,,,,,Y,167,star,1,0,,,,,,,,,,,,,,,,repeat,letter,lettRpt,f,Lo,,,,,,0.6852,3,,,,,,,,high,20,0,20,0,1,,,,,,,,,
295657,2022-11-21_15h08.03.096,vts_reward_expectancy_bt,2022.2.4,MacIntel,60.0024001,Chrome,1470,956,,,,,0,1026,,,,,,,,,,,,,,,,,W,125,hexagon,0,0,,,,,,,,,,,,,,,,repeat,letter,NA,d,Lo,,,,,,0.6368,3,,,,,,,,high,21,0,21,0,1,,,,,,,,,
295657,2022-11-21_15h08.03.096,vts_reward_expectancy_bt,2022.2.4,MacIntel,60.0024001,Chrome,1470,956,,,,,0,1026,,,,,,,,,,,,,,,,,H,146,triangle,1,1,,,,,,,,,,,,,,,,repeat,letter,lettRpt,d,Hi,,,,,,0.7964,3,,,,,,,,high,22,0,22,0,1,,,,,,,,,
295657,2022-11-21_15h08.03.096,vts_reward_expectancy_bt,2022.2.4,MacIntel,60.0024001,Chrome,1470,956,,,,,0,1026,,,,,,,,,,,,,,,,,U,174,circle,1,0,,,,,,,,,,,,,,,,repeat,letter,lettRpt,f,Hi,,,,,,0.7282,3,,,,,,,,high,23,0,23,0,1,,,,,,,,,
295657,2022-11-21_15h08.03.096,vts_reward_expectancy_bt,2022.2.4,MacIntel,60.0024001,Chrome,1470,956,,,,,0,1026,,,,,,,,,,,,,,,,,W,167,triangle,1,0,,,,,,,,,,,,,,,,switch,number,numSwt,k,Hi,,,,,,0.6987,3,,,,,,,,high,24,0,24,0,1,,,,,,,,,
295657,2022-11-21_15h08.03.096,vts_reward_expectancy_bt,2022.2.4,MacIntel,60.0024001,Chrome,1470,956,,,,,0,1026,,,,,,,,,,,,,,,,,S,174,circle,1,0,,,,,,,,,,,,,,,,repeat,number,numRpt,k,Hi,,,,,,0.5303,3,,,,,,,,high,25,0,25,0,1,,,,,,,,,
295657,2022-11-21_15h08.03.096,vts_reward_expectancy_bt,2022.2.4,MacIntel,60.0024001,Chrome,1470,956,,,,,0,1026,,,,,,,,,,,,,,,,,D,139,hexagon,0,0,,,,,,,,,,,,,,,,repeat,number,NA,k,Hi,,,,,,0.4635,3,,,,,,,,high,26,0,26,0,1,,,,,,,,,
295657,2022-11-21_15h08.03.096,vts_reward_expectancy_bt,2022.2.4,MacIntel,60.0024001,Chrome,1470,956,,,,,1,1027,,,,,,,,,,,,,,,,,F,132,star,1,1,,,,,,,,,,,,,,,,repeat,number,numRpt,j,Lo,,,,,,0.593,3,,,,,,,,high,27,0,27,0,1,,,,,,,,,
295657,2022-11-21_15h08.03.096,vts_reward_expectancy_bt,2022.2.4,MacIntel,60.0024001,Chrome,1470,956,,,,,0,1027,,,,,,,,,,,,,,,,,Y,125,circle,1,0,,,,,,,,,,,,,,,,repeat,number,numRpt,j,Hi,,,,,,0.6761,3,,,,,,,,high,28,0,28,0,1,,,,,,,,,
295657,2022-11-21_15h08.03.096,vts_reward_expectancy_bt,2022.2.4,MacIntel,60.0024001,Chrome,1470,956,,,,,0,1027,,,,,,,,,,,,,,,,,H,160,star,0,0,,,,,,,,,,,,,,,,switch,letter,NA,f,Hi,,,,,,0.6761,3,,,,,,,,high,29,0,29,0,1,,,,,,,,,
295657,2022-11-21_15h08.03.096,vts_reward_expectancy_bt,2022.2.4,MacIntel,60.0024001,Chrome,1470,956,,,,,1,1028,,,,,,,,,,,,,,,,,U,181,hexagon,1,1,,,,,,,,,,,,,,,,switch,number,numSwt,k,Lo,,,,,,0.4294,3,,,,,,,,high,30,0,30,0,1,,,,,,,,,
295657,2022-11-21_15h08.03.096,vts_reward_expectancy_bt,2022.2.4,MacIntel,60.0024001,Chrome,1470,956,,,,,0,1028,,,,,,,,,,,,,,,,,B,146,triangle,0,0,,,,,,,,,,,,,,,,repeat,number,NA,k,Lo,,,,,,0.0137,3,,,,,,,,high,31,0,31,0,1,,,,,,,,,
295657,2022-11-21_15h08.03.096,vts_reward_expectancy_bt,2022.2.4,MacIntel,60.0024001,Chrome,1470,956,,,,,10,1038,,,,,,,,,,,,,,,,,U,139,star,1,1,,,,,,,,,,,,,,,,repeat,number,numRpt,j,Lo,,,,,,0.6259,4,,,,,,space,1.6307,high,0,0,0,0,1,,,,,,,,,
295657,2022-11-21_15h08.03.096,vts_reward_expectancy_bt,2022.2.4,MacIntel,60.0024001,Chrome,1470,956,,,,,0,1038,,,,,,,,,,,,,,,,,Y,146,triangle,0,0,,,,,,,,,,,,,,,,repeat,number,NA,k,Lo,,,,,,0.5558,4,,,,,,,,high,1,0,1,0,1,,,,,,,,,
295657,2022-11-21_15h08.03.096,vts_reward_expectancy_bt,2022.2.4,MacIntel,60.0024001,Chrome,1470,956,,,,,1,1039,,,,,,,,,,,,,,,,,B,174,hexagon,1,1,,,,,,,,,,,,,,,,repeat,number,numRpt,k,Lo,,,,,,0.5645,4,,,,,,,,high,2,0,2,0,1,,,,,,,,,
295657,2022-11-21_15h08.03.096,vts_reward_expectancy_bt,2022.2.4,MacIntel,60.0024001,Chrome,1470,956,,,,,0,1039,,,,,,,,,,,,,,,,,H,160,circle,1,0,,,,,,,,,,,,,,,,repeat,number,numRpt,k,Hi,,,,,,0.6181,4,,,,,,,,high,3,0,3,0,1,,,,,,,,,
295657,2022-11-21_15h08.03.096,vts_reward_expectancy_bt,2022.2.4,MacIntel,60.0024001,Chrome,1470,956,,,,,1,1040,,,,,,,,,,,,,,,,,W,132,star,1,0,,,,,,,,,,,,,,,,repeat,number,numRpt,j,Lo,,,,,,0.7445,4,,,,,,,,high,4,0,4,0,1,,,,,,,,,
295657,2022-11-21_15h08.03.096,vts_reward_expectancy_bt,2022.2.4,MacIntel,60.0024001,Chrome,1470,956,,,,,0,1040,,,,,,,,,,,,,,,,,D,167,triangle,0,0,,,,,,,,,,,,,,,,repeat,number,NA,j,Lo,,,,,,0.5554,4,,,,,,,,high,5,0,5,0,1,,,,,,,,,
295657,2022-11-21_15h08.03.096,vts_reward_expectancy_bt,2022.2.4,MacIntel,60.0024001,Chrome,1470,956,,,,,0,1040,,,,,,,,,,,,,,,,,S,181,hexagon,0,1,,,,,,,,,,,,,,,,repeat,number,NA,j,Lo,,,,,,0.438,4,,,,,,,,high,6,0,6,0,1,,,,,,,,,
295657,2022-11-21_15h08.03.096,vts_reward_expectancy_bt,2022.2.4,MacIntel,60.0024001,Chrome,1470,956,,,,,0,1040,,,,,,,,,,,,,,,,,F,125,circle,1,1,,,,,,,,,,,,,,,,repeat,number,numRpt,j,Hi,,,,,,0.6844,4,,,,,,,,high,7,0,7,0,1,,,,,,,,,
295657,2022-11-21_15h08.03.096,vts_reward_expectancy_bt,2022.2.4,MacIntel,60.0024001,Chrome,1470,956,,,,,0,1040,,,,,,,,,,,,,,,,,U,139,triangle,0,0,,,,,,,,,,,,,,,,repeat,number,NA,k,Hi,,,,,,0.7482,4,,,,,,,,high,8,0,8,0,1,,,,,,,,,
295657,2022-11-21_15h08.03.096,vts_reward_expectancy_bt,2022.2.4,MacIntel,60.0024001,Chrome,1470,956,,,,,0,1040,,,,,,,,,,,,,,,,,Y,146,circle,1,1,,,,,,,,,,,,,,,,repeat,number,numRpt,j,Hi,,,,,,0.7969,4,,,,,,,,high,9,0,9,0,1,,,,,,,,,
295657,2022-11-21_15h08.03.096,vts_reward_expectancy_bt,2022.2.4,MacIntel,60.0024001,Chrome,1470,956,,,,,1,1041,,,,,,,,,,,,,,,,,B,174,star,1,0,,,,,,,,,,,,,,,,repeat,number,numRpt,k,Lo,,,,,,0.5269,4,,,,,,,,high,10,0,10,0,1,,,,,,,,,
295657,2022-11-21_15h08.03.096,vts_reward_expectancy_bt,2022.2.4,MacIntel,60.0024001,Chrome,1470,956,,,,,1,1042,,,,,,,,,,,,,,,,,H,160,hexagon,1,0,,,,,,,,,,,,,,,,repeat,number,numRpt,k,Lo,,,,,,0.6785,4,,,,,,,,high,11,0,11,0,1,,,,,,,,,
295657,2022-11-21_15h08.03.096,vts_reward_expectancy_bt,2022.2.4,MacIntel,60.0024001,Chrome,1470,956,,,,,0,1042,,,,,,,,,,,,,,,,,W,132,triangle,1,0,,,,,,,,,,,,,,,,repeat,number,numRpt,j,Hi,,,,,,0.63,4,,,,,,,,high,12,0,12,0,1,,,,,,,,,
295657,2022-11-21_15h08.03.096,vts_reward_expectancy_bt,2022.2.4,MacIntel,60.0024001,Chrome,1470,956,,,,,1,1043,,,,,,,,,,,,,,,,,D,167,star,1,0,,,,,,,,,,,,,,,,repeat,number,numRpt,k,Lo,,,,,,0.6123,4,,,,,,,,high,13,0,13,0,1,,,,,,,,,
295657,2022-11-21_15h08.03.096,vts_reward_expectancy_bt,2022.2.4,MacIntel,60.0024001,Chrome,1470,956,,,,,1,1044,,,,,,,,,,,,,,,,,S,181,hexagon,1,0,,,,,,,,,,,,,,,,switch,letter,lettSwt,f,Lo,,,,,,0.6806,4,,,,,,,,high,14,0,14,0,1,,,,,,,,,
295657,2022-11-21_15h08.03.096,vts_reward_expectancy_bt,2022.2.4,MacIntel,60.0024001,Chrome,1470,956,,,,,0,1044,,,,,,,,,,,,,,,,,F,125,circle,0,0,,,,,,,,,,,,,,,,repeat,letter,NA,f,Lo,,,,,,0.6777,4,,,,,,,,high,15,0,15,0,1,,,,,,,,,
295657,2022-11-21_15h08.03.096,vts_reward_expectancy_bt,2022.2.4,MacIntel,60.0024001,Chrome,1470,956,,,,,0,1044,,,,,,,,,,,,,,,,,S,181,circle,1,1,,,,,,,,,,,,,,,,repeat,letter,lettRpt,f,Hi,,,,,,0.6785,4,,,,,,,,high,16,0,16,0,1,,,,,,,,,
295657,2022-11-21_15h08.03.096,vts_reward_expectancy_bt,2022.2.4,MacIntel,60.0024001,Chrome,1470,956,,,,,0,1044,,,,,,,,,,,,,,,,,W,139,star,0,0,,,,,,,,,,,,,,,,repeat,letter,NA,d,Hi,,,,,,0.7635,4,,,,,,,,high,17,0,17,0,1,,,,,,,,,
295657,2022-11-21_15h08.03.096,vts_reward_expectancy_bt,2022.2.4,MacIntel,60.0024001,Chrome,1470,956,,,,,0,1044,,,,,,,,,,,,,,,,,U,146,triangle,1,1,,,,,,,,,,,,,,,,repeat,letter,lettRpt,f,Hi,,,,,,0.7953,4,,,,,,,,high,18,0,18,0,1,,,,,,,,,
295657,2022-11-21_15h08.03.096,vts_reward_expectancy_bt,2022.2.4,MacIntel,60.0024001,Chrome,1470,956,,,,,1,1045,,,,,,,,,,,,,,,,,B,174,hexagon,1,0,,,,,,,,,,,,,,,,repeat,letter,lettRpt,d,Lo,,,,,,0.3934,4,,,,,,,,high,19,0,19,0,1,,,,,,,,,
295657,2022-11-21_15h08.03.096,vts_reward_expectancy_bt,2022.2.4,MacIntel,60.0024001,Chrome,1470,956,,,,,0,1045,,,,,,,,,,,,,,,,,F,167,triangle,0,0,,,,,,,,,,,,,,,,repeat,letter,NA,f,Lo,,,,,,0.7644,4,,,,,,,,high,20,0,20,0,1,,,,,,,,,
295657,2022-11-21_15h08.03.096,vts_reward_expectancy_bt,2022.2.4,MacIntel,60.0024001,Chrome,1470,956,,,,,1,1046,,,,,,,,,,,,,,,,,Y,125,hexagon,1,1,,,,,,,,,,,,,,,,repeat,letter,lettRpt,f,Lo,,,,,,0.8826,4,,,,,,,,high,21,0,21,0,1,,,,,,,,,
295657,2022-11-21_15h08.03.096,vts_reward_expectancy_bt,2022.2.4,MacIntel,60.0024001,Chrome,1470,956,,,,,0,1046,,,,,,,,,,,,,,,,,H,160,circle,1,0,,,,,,,,,,,,,,,,repeat,letter,lettRpt,d,Hi,,,,,,0.9125,4,,,,,,,,high,22,0,22,0,1,,,,,,,,,
295657,2022-11-21_15h08.03.096,vts_reward_expectancy_bt,2022.2.4,MacIntel,60.0024001,Chrome,1470,956,,,,,1,1047,,,,,,,,,,,,,,,,,D,132,star,1,0,,,,,,,,,,,,,,,,repeat,letter,lettRpt,d,Lo,,,,,,0.6463,4,,,,,,,,high,23,0,23,0,1,,,,,,,,,
295657,2022-11-21_15h08.03.096,vts_reward_expectancy_bt,2022.2.4,MacIntel,60.0024001,Chrome,1470,956,,,,,0,1047,,,,,,,,,,,,,,,,,W,146,hexagon,0,0,,,,,,,,,,,,,,,,repeat,letter,NA,d,Lo,,,,,,0.577,4,,,,,,,,high,24,0,24,0,1,,,,,,,,,
295657,2022-11-21_15h08.03.096,vts_reward_expectancy_bt,2022.2.4,MacIntel,60.0024001,Chrome,1470,956,,,,,0,1047,,,,,,,,,,,,,,,,,F,181,triangle,1,1,,,,,,,,,,,,,,,,switch,number,numSwt,k,Hi,,,,,,0.7467,4,,,,,,,,high,25,0,25,0,1,,,,,,,,,
295657,2022-11-21_15h08.03.096,vts_reward_expectancy_bt,2022.2.4,MacIntel,60.0024001,Chrome,1470,956,,,,,10,1057,,,,,,,,,,,,,,,,,S,160,star,1,0,,,,,,,,,,,,,,,,repeat,number,numRpt,k,Lo,,,,,,0.7359,4,,,,,,,,high,26,0,26,0,1,,,,,,,,,
295657,2022-11-21_15h08.03.096,vts_reward_expectancy_bt,2022.2.4,MacIntel,60.0024001,Chrome,1470,956,,,,,0,1057,,,,,,,,,,,,,,,,,U,174,circle,1,0,,,,,,,,,,,,,,,,repeat,number,numRpt,k,Hi,,,,,,0.5803,4,,,,,,,,high,27,0,27,0,1,,,,,,,,,
295657,2022-11-21_15h08.03.096,vts_reward_expectancy_bt,2022.2.4,MacIntel,60.0024001,Chrome,1470,956,,,,,0,1057,,,,,,,,,,,,,,,,,D,139,triangle,1,0,,,,,,,,,,,,,,,,repeat,number,numRpt,j,Hi,,,,,,0.5432,4,,,,,,,,high,28,0,28,0,1,,,,,,,,,
295657,2022-11-21_15h08.03.096,vts_reward_expectancy_bt,2022.2.4,MacIntel,60.0024001,Chrome,1470,956,,,,,1,1058,,,,,,,,,,,,,,,,,Y,132,hexagon,1,0,,,,,,,,,,,,,,,,repeat,number,numRpt,j,Lo,,,,,,0.5441,4,,,,,,,,high,29,0,29,0,1,,,,,,,,,
295657,2022-11-21_15h08.03.096,vts_reward_expectancy_bt,2022.2.4,MacIntel,60.0024001,Chrome,1470,956,,,,,0,1058,,,,,,,,,,,,,,,,,B,125,circle,0,0,,,,,,,,,,,,,,,,repeat,number,NA,k,Lo,,,,,,0.0004,4,,,,,,,,high,30,0,30,0,1,,,,,,,,,
295657,2022-11-21_15h08.03.096,vts_reward_expectancy_bt,2022.2.4,MacIntel,60.0024001,Chrome,1470,956,,,,,1,1059,,,,,,,,,,,,,,,,,H,167,star,1,1,,,,,,,,,,,,,,,,switch,letter,lettSwt,d,Lo,,,,,,0.2295,4,,,,,,,,high,31,0,31,0,1,,,,,,,,,
295657,2022-11-21_15h08.03.096,vts_reward_expectancy_bt,2022.2.4,MacIntel,60.0024001,Chrome,1470,956,,,,,1,1060,,,,,,,,,,,,,,,,,S,139,hexagon,1,0,,,,,,,,,,,,,,,,switch,number,numSwt,j,Lo,,,,,,0.6126,5,,,,,,space,0.6966,high,0,0,0,0,1,,,,,,,,,
295657,2022-11-21_15h08.03.096,vts_reward_expectancy_bt,2022.2.4,MacIntel,60.0024001,Chrome,1470,956,,,,,1,1061,,,,,,,,,,,,,,,,,F,181,star,1,0,,,,,,,,,,,,,,,,repeat,number,numRpt,k,Lo,,,,,,0.004,5,,,,,,,,high,1,0,1,0,1,,,,,,,,,
295657,2022-11-21_15h08.03.096,vts_reward_expectancy_bt,2022.2.4,MacIntel,60.0024001,Chrome,1470,956,,,,,0,1061,,,,,,,,,,,,,,,,,U,174,circle,0,0,,,,,,,,,,,,,,,,repeat,number,NA,j,Lo,,,,,,0.7143,5,,,,,,,,high,2,0,2,0,1,,,,,,,,,
295657,2022-11-21_15h08.03.096,vts_reward_expectancy_bt,2022.2.4,MacIntel,60.0024001,Chrome,1470,956,,,,,0,1061,,,,,,,,,,,,,,,,,W,160,triangle,0,1,,,,,,,,,,,,,,,,switch,letter,NA,d,Lo,,,,,,0.0614,5,,,,,,,,high,3,0,3,0,1,,,,,,,,,
295657,2022-11-21_15h08.03.096,vts_reward_expectancy_bt,2022.2.4,MacIntel,60.0024001,Chrome,1470,956,,,,,10,1071,,,,,,,,,,,,,,,,,D,125,hexagon,1,1,,,,,,,,,,,,,,,,repeat,letter,lettRpt,d,Lo,,,,,,0.9719,5,,,,,,,,high,4,0,4,0,1,,,,,,,,,
295657,2022-11-21_15h08.03.096,vts_reward_expectancy_bt,2022.2.4,MacIntel,60.0024001,Chrome,1470,956,,,,,1,1072,,,,,,,,,,,,,,,,,Y,167,star,1,0,,,,,,,,,,,,,,,,repeat,letter,lettRpt,f,Lo,,,,,,0.6128,5,,,,,,,,high,5,0,5,0,1,,,,,,,,,
295657,2022-11-21_15h08.03.096,vts_reward_expectancy_bt,2022.2.4,MacIntel,60.0024001,Chrome,1470,956,,,,,10,1082,,,,,,,,,,,,,,,,,H,146,circle,1,0,,,,,,,,,,,,,,,,repeat,letter,lettRpt,d,Hi,,,,,,0.5567,5,,,,,,,,high,6,0,6,0,1,,,,,,,,,
295657,2022-11-21_15h08.03.096,vts_reward_expectancy_bt,2022.2.4,MacIntel,60.0024001,Chrome,1470,956,,,,,10,1092,,,,,,,,,,,,,,,,,B,132,triangle,1,0,,,,,,,,,,,,,,,,repeat,letter,lettRpt,d,Hi,,,,,,0.6657,5,,,,,,,,high,7,0,7,0,1,,,,,,,,,
295657,2022-11-21_15h08.03.096,vts_reward_expectancy_bt,2022.2.4,MacIntel,60.0024001,Chrome,1470,956,,,,,1,1093,,,,,,,,,,,,,,,,,S,139,star,1,0,,,,,,,,,,,,,,,,repeat,letter,lettRpt,f,Lo,,,,,,0.6038,5,,,,,,,,high,8,0,8,0,1,,,,,,,,,
295657,2022-11-21_15h08.03.096,vts_reward_expectancy_bt,2022.2.4,MacIntel,60.0024001,Chrome,1470,956,,,,,10,1103,,,,,,,,,,,,,,,,,F,181,circle,1,0,,,,,,,,,,,,,,,,repeat,letter,lettRpt,d,Hi,,,,,,0.5608,5,,,,,,,,high,9,0,9,0,1,,,,,,,,,
295657,2022-11-21_15h08.03.096,vts_reward_expectancy_bt,2022.2.4,MacIntel,60.0024001,Chrome,1470,956,,,,,1,1104,,,,,,,,,,,,,,,,,U,174,hexagon,1,0,,,,,,,,,,,,,,,,repeat,letter,lettRpt,f,Lo,,,,,,0.7317,5,,,,,,,,high,10,0,10,0,1,,,,,,,,,
295657,2022-11-21_15h08.03.096,vts_reward_expectancy_bt,2022.2.4,MacIntel,60.0024001,Chrome,1470,956,,,,,1,1105,,,,,,,,,,,,,,,,,W,160,triangle,1,0,,,,,,,,,,,,,,,,switch,number,numSwt,k,Hi,,,,,,0.5451,5,,,,,,,,high,11,0,11,0,1,,,,,,,,,
295657,2022-11-21_15h08.03.096,vts_reward_expectancy_bt,2022.2.4,MacIntel,60.0024001,Chrome,1470,956,,,,,1,1106,,,,,,,,,,,,,,,,,D,125,triangle,1,0,,,,,,,,,,,,,,,,repeat,number,numRpt,j,Hi,,,,,,0.5866,5,,,,,,,,high,12,0,12,0,1,,,,,,,,,
295657,2022-11-21_15h08.03.096,vts_reward_expectancy_bt,2022.2.4,MacIntel,60.0024001,Chrome,1470,956,,,,,1,1107,,,,,,,,,,,,,,,,,Y,167,star,1,0,,,,,,,,,,,,,,,,repeat,number,numRpt,k,Lo,,,,,,0.5651,5,,,,,,,,high,13,0,13,0,1,,,,,,,,,
295657,2022-11-21_15h08.03.096,vts_reward_expectancy_bt,2022.2.4,MacIntel,60.0024001,Chrome,1470,956,,,,,0,1107,,,,,,,,,,,,,,,,,H,146,circle,0,0,,,,,,,,,,,,,,,,repeat,number,NA,k,Lo,,,,,,0.6153,5,,,,,,,,high,14,0,14,0,1,,,,,,,,,
295657,2022-11-21_15h08.03.096,vts_reward_expectancy_bt,2022.2.4,MacIntel,60.0024001,Chrome,1470,956,,,,,0,1107,,,,,,,,,,,,,,,,,B,132,hexagon,0,1,,,,,,,,,,,,,,,,repeat,number,NA,k,Lo,,,,,,0.6372,5,,,,,,,,high,15,0,15,0,1,,,,,,,,,
295657,2022-11-21_15h08.03.096,vts_reward_expectancy_bt,2022.2.4,MacIntel,60.0024001,Chrome,1470,956,,,,,0,1107,,,,,,,,,,,,,,,,,U,146,star,0,1,,,,,,,,,,,,,,,,repeat,number,NA,k,Lo,,,,,,0.5786,5,,,,,,,,high,16,0,16,0,1,,,,,,,,,
295657,2022-11-21_15h08.03.096,vts_reward_expectancy_bt,2022.2.4,MacIntel,60.0024001,Chrome,1470,956,,,,,0,1107,,,,,,,,,,,,,,,,,W,167,circle,1,1,,,,,,,,,,,,,,,,repeat,number,numRpt,k,Hi,,,,,,0.732,5,,,,,,,,high,17,0,17,0,1,,,,,,,,,
295657,2022-11-21_15h08.03.096,vts_reward_expectancy_bt,2022.2.4,MacIntel,60.0024001,Chrome,1470,956,,,,,1,1108,,,,,,,,,,,,,,,,,H,125,hexagon,1,0,,,,,,,,,,,,,,,,repeat,number,numRpt,j,Lo,,,,,,0.5267,5,,,,,,,,high,18,0,18,0,1,,,,,,,,,
295657,2022-11-21_15h08.03.096,vts_reward_expectancy_bt,2022.2.4,MacIntel,60.0024001,Chrome,1470,956,,,,,10,1118,,,,,,,,,,,,,,,,,B,132,triangle,1,0,,,,,,,,,,,,,,,,switch,letter,lettSwt,d,Hi,,,,,,0.6495,5,,,,,,,,high,19,0,19,0,1,,,,,,,,,
295657,2022-11-21_15h08.03.096,vts_reward_expectancy_bt,2022.2.4,MacIntel,60.0024001,Chrome,1470,956,,,,,0,1118,,,,,,,,,,,,,,,,,F,174,star,0,0,,,,,,,,,,,,,,,,repeat,letter,NA,f,Hi,,,,,,0.6153,5,,,,,,,,high,20,0,20,0,1,,,,,,,,,
295657,2022-11-21_15h08.03.096,vts_reward_expectancy_bt,2022.2.4,MacIntel,60.0024001,Chrome,1470,956,,,,,1,1119,,,,,,,,,,,,,,,,,D,181,hexagon,1,1,,,,,,,,,,,,,,,,repeat,letter,lettRpt,d,Lo,,,,,,0.7123,5,,,,,,,,high,21,0,21,0,1,,,,,,,,,
295657,2022-11-21_15h08.03.096,vts_reward_expectancy_bt,2022.2.4,MacIntel,60.0024001,Chrome,1470,956,,,,,1,1120,,,,,,,,,,,,,,,,,Y,139,circle,1,0,,,,,,,,,,,,,,,,repeat,letter,lettRpt,f,Hi,,,,,,0.6281,5,,,,,,,,high,22,0,22,0,1,,,,,,,,,
295657,2022-11-21_15h08.03.096,vts_reward_expectancy_bt,2022.2.4,MacIntel,60.0024001,Chrome,1470,956,,,,,0,1120,,,,,,,,,,,,,,,,,S,160,triangle,0,0,,,,,,,,,,,,,,,,repeat,letter,NA,d,Hi,,,,,,0.8296,5,,,,,,,,high,23,0,23,0,1,,,,,,,,,
295657,2022-11-21_15h08.03.096,vts_reward_expectancy_bt,2022.2.4,MacIntel,60.0024001,Chrome,1470,956,,,,,1,1121,,,,,,,,,,,,,,,,,D,139,star,1,1,,,,,,,,,,,,,,,,repeat,letter,lettRpt,d,Lo,,,,,,0.627,5,,,,,,,,high,24,0,24,0,1,,,,,,,,,
295657,2022-11-21_15h08.03.096,vts_reward_expectancy_bt,2022.2.4,MacIntel,60.0024001,Chrome,1470,956,,,,,0,1121,,,,,,,,,,,,,,,,,U,174,hexagon,0,0,,,,,,,,,,,,,,,,repeat,letter,NA,d,Lo,,,,,,0.5488,5,,,,,,,,high,25,0,25,0,1,,,,,,,,,
295657,2022-11-21_15h08.03.096,vts_reward_expectancy_bt,2022.2.4,MacIntel,60.0024001,Chrome,1470,956,,,,,10,1131,,,,,,,,,,,,,,,,,B,160,triangle,1,1,,,,,,,,,,,,,,,,repeat,letter,lettRpt,d,Hi,,,,,,0.6656,5,,,,,,,,high,26,0,26,0,1,,,,,,,,,
295657,2022-11-21_15h08.03.096,vts_reward_expectancy_bt,2022.2.4,MacIntel,60.0024001,Chrome,1470,956,,,,,0,1131,,,,,,,,,,,,,,,,,F,146,circle,1,0,,,,,,,,,,,,,,,,switch,number,numSwt,j,Hi,,,,,,0.7527,5,,,,,,,,high,27,0,27,0,1,,,,,,,,,
295657,2022-11-21_15h08.03.096,vts_reward_expectancy_bt,2022.2.4,MacIntel,60.0024001,Chrome,1470,956,,,,,1,1132,,,,,,,,,,,,,,,,,S,132,star,1,0,,,,,,,,,,,,,,,,repeat,number,numRpt,j,Lo,,,,,,0.7763,5,,,,,,,,high,28,0,28,0,1,,,,,,,,,
295657,2022-11-21_15h08.03.096,vts_reward_expectancy_bt,2022.2.4,MacIntel,60.0024001,Chrome,1470,956,,,,,1,1133,,,,,,,,,,,,,,,,,W,167,hexagon,1,0,,,,,,,,,,,,,,,,repeat,number,numRpt,k,Lo,,,,,,0.8166,5,,,,,,,,high,29,0,29,0,1,,,,,,,,,
295657,2022-11-21_15h08.03.096,vts_reward_expectancy_bt,2022.2.4,MacIntel,60.0024001,Chrome,1470,956,,,,,0,1133,,,,,,,,,,,,,,,,,Y,181,circle,1,0,,,,,,,,,,,,,,,,repeat,number,numRpt,k,Hi,,,,,,0.6135,5,,,,,,,,high,30,0,30,0,1,,,,,,,,,
295657,2022-11-21_15h08.03.096,vts_reward_expectancy_bt,2022.2.4,MacIntel,60.0024001,Chrome,1470,956,,,,,10,1143,,,,,,,,,,,,,,,,,H,125,triangle,1,0,,,,,,,,,,,,,,,,repeat,number,numRpt,j,Hi,,,,,,0.582,5,,,,,,,,high,31,0,31,0,1,,,,,,,,,
295657,2022-11-21_15h08.03.096,vts_reward_expectancy_bt,2022.2.4,MacIntel,60.0024001,Chrome,1470,956,,,,,1,1144,,,,,,,,,,,,,,,,,H,160,hexagon,1,0,,,,,,,,,,,,,,,,repeat,number,numRpt,k,Lo,,,,,,0.6113,6,,,,,,space,0.5584,high,0,0,0,0,1,,,,,,,,,
295657,2022-11-21_15h08.03.096,vts_reward_expectancy_bt,2022.2.4,MacIntel,60.0024001,Chrome,1470,956,,,,,0,1144,,,,,,,,,,,,,,,,,U,167,circle,1,0,,,,,,,,,,,,,,,,repeat,number,numRpt,k,Hi,,,,,,0.6209,6,,,,,,,,high,1,0,1,0,1,,,,,,,,,
295657,2022-11-21_15h08.03.096,vts_reward_expectancy_bt,2022.2.4,MacIntel,60.0024001,Chrome,1470,956,,,,,0,1144,,,,,,,,,,,,,,,,,Y,139,triangle,1,0,,,,,,,,,,,,,,,,repeat,number,numRpt,j,Hi,,,,,,0.6358,6,,,,,,,,high,2,0,2,0,1,,,,,,,,,
295657,2022-11-21_15h08.03.096,vts_reward_expectancy_bt,2022.2.4,MacIntel,60.0024001,Chrome,1470,956,,,,,1,1145,,,,,,,,,,,,,,,,,S,125,star,1,0,,,,,,,,,,,,,,,,repeat,number,numRpt,j,Lo,,,,,,0.6039,6,,,,,,,,high,3,0,3,0,1,,,,,,,,,
