participant,date,expName,psychopyVersion,OS,frameRate,browser,xResolution,yResolution,key_resp.keys,key_resp.rt,training_resp.keys,training_resp.rt,points_trial,points_cumul,trainBlock,training.thisRepN,training.thisTrialN,training.thisN,training.thisIndex,training.ran,LTriangleOpac,LCircleOpac,LHexagonOpac,LStarOpac,RTriangleOpac,RCircleOpac,RHexagonOpac,RStarOpac,LShape_ID,RShape_ID,curr_topStim,curr_bottStim,curr_shape,acc,E1,target_resp_prac1.keys,pracBlock,task1_prac_trials.thisRepN,task1_prac_trials.thisTrialN,task1_prac_trials.thisN,task1_prac_trials.thisIndex,task1_prac_trials.ran,target_resp_prac1.rt,target_resp_prac2.keys,target_resp_prac2.rt,task2_praac_trials.thisRepN,task2_praac_trials.thisTrialN,task2_praac_trials.thisN,task2_praac_trials.thisIndex,task2_praac_trials.ran,alt,task,condition,target_resp.keys,rewCond,vts_practice_trials.thisRepN,vts_practice_trials.thisTrialN,vts_practice_trials.thisN,vts_practice_trials.thisIndex,vts_practice_trials.ran,target_resp.rt,blockNum,trials_norew.thisRepN,trials_norew.thisTrialN,trials_norew.thisN,trials_norew.thisIndex,trials_norew.ran,key_resp_2.keys,key_resp_2.rt,rewExpectancy,trials_rew.thisRepN,trials_rew.thisTrialN,trials_rew.thisN,trials_rew.thisIndex,trials_rew.ran,Q1,Q2,Q2_text,Q3,Q4,Q5_text,Q5,xRes,yRes
295630,2022-11-27_21h17.37.094,vts_reward_expectancy_bt,2022.2.4,Win32,59.62673663,Chrome,1920,1080,,,,,,,,,,,,,,,,,,,,,,,,,,,,,,,,,,,,,,,,,,,,,,,,,,,,,,,,,,,,,,,,,,,,,,,,,,,,
295630,2022-11-27_21h17.37.094,vts_reward_expectancy_bt,2022.2.4,Win32,59.62673663,Chrome,1920,1080,space,159.6817,,,,,,,,,,,,,,,,,,,,,,,,,,,,,,,,,,,,,,,,,,,,,,,,,,,,,,,,,,,,,,,,,,,,,,,,,,
295630,2022-11-27_21h17.37.094,vts_reward_expectancy_bt,2022.2.4,Win32,59.62673663,Chrome,1920,1080,,,,,,,,,,,,,,,,,,,,,,,,,,,,,,,,,,,,,,,,,,,,,,,,,,,,,,,,,,,,,,,,,,,,,,,,,,,,
295630,2022-11-27_21h17.37.094,vts_reward_expectancy_bt,2022.2.4,Win32,59.62673663,Chrome,1920,1080,,,a,2.2328,10,10,0,0,0,0,8,1,0,0,1,0,0,0,0,1,hexagon,star,,,,,,,,,,,,,,,,,,,,,,,,,,,,,,,,,,,,,,,,,,,,,,,,,,,,,,
295630,2022-11-27_21h17.37.094,vts_reward_expectancy_bt,2022.2.4,Win32,59.62673663,Chrome,1920,1080,,,l,0.8348,1,11,0,0,1,1,11,1,0,0,0,1,0,0,1,0,star,hexagon,,,,,,,,,,,,,,,,,,,,,,,,,,,,,,,,,,,,,,,,,,,,,,,,,,,,,,
295630,2022-11-27_21h17.37.094,vts_reward_expectancy_bt,2022.2.4,Win32,59.62673663,Chrome,1920,1080,,,a,0.8194,1,12,0,0,2,2,2,1,1,0,0,0,0,0,0,1,triangle,star,,,,,,,,,,,,,,,,,,,,,,,,,,,,,,,,,,,,,,,,,,,,,,,,,,,,,,
295630,2022-11-27_21h17.37.094,vts_reward_expectancy_bt,2022.2.4,Win32,59.62673663,Chrome,1920,1080,,,l,0.5683,10,22,0,0,3,3,10,1,0,0,0,1,0,1,0,0,star ,circle,,,,,,,,,,,,,,,,,,,,,,,,,,,,,,,,,,,,,,,,,,,,,,,,,,,,,,
295630,2022-11-27_21h17.37.094,vts_reward_expectancy_bt,2022.2.4,Win32,59.62673663,Chrome,1920,1080,,,l,0.5182,10,32,0,0,4,4,9,1,0,0,0,1,1,0,0,0,star,triangle,,,,,,,,,,,,,,,,,,,,,,,,,,,,,,,,,,,,,,,,,,,,,,,,,,,,,,
295630,2022-11-27_21h17.37.094,vts_reward_expectancy_bt,2022.2.4,Win32,59.62673663,Chrome,1920,1080,,,l,0.4093,10,42,0,0,5,5,6,1,0,0,1,0,1,0,0,0,hexagon,triangle,,,,,,,,,,,,,,,,,,,,,,,,,,,,,,,,,,,,,,,,,,,,,,,,,,,,,,
295630,2022-11-27_21h17.37.094,vts_reward_expectancy_bt,2022.2.4,Win32,59.62673663,Chrome,1920,1080,,,l,0.8696,1,43,0,0,6,6,7,1,0,0,1,0,0,1,0,0,hexagon,circle,,,,,,,,,,,,,,,,,,,,,,,,,,,,,,,,,,,,,,,,,,,,,,,,,,,,,,
295630,2022-11-27_21h17.37.094,vts_reward_expectancy_bt,2022.2.4,Win32,59.62673663,Chrome,1920,1080,,,a,0.4914,10,53,0,0,7,7,1,1,1,0,0,0,0,0,1,0,triangle,hexagon,,,,,,,,,,,,,,,,,,,,,,,,,,,,,,,,,,,,,,,,,,,,,,,,,,,,,,
295630,2022-11-27_21h17.37.094,vts_reward_expectancy_bt,2022.2.4,Win32,59.62673663,Chrome,1920,1080,,,a,0.5696,1,54,0,0,8,8,5,1,0,1,0,0,0,0,0,1,circle,star,,,,,,,,,,,,,,,,,,,,,,,,,,,,,,,,,,,,,,,,,,,,,,,,,,,,,,
295630,2022-11-27_21h17.37.094,vts_reward_expectancy_bt,2022.2.4,Win32,59.62673663,Chrome,1920,1080,,,l,0.4529,1,55,0,0,9,9,0,1,1,0,0,0,0,1,0,0,triangle,circle,,,,,,,,,,,,,,,,,,,,,,,,,,,,,,,,,,,,,,,,,,,,,,,,,,,,,,
295630,2022-11-27_21h17.37.094,vts_reward_expectancy_bt,2022.2.4,Win32,59.62673663,Chrome,1920,1080,,,a,0.9434,10,65,0,0,10,10,3,1,0,1,0,0,1,0,0,0,circle,triangle,,,,,,,,,,,,,,,,,,,,,,,,,,,,,,,,,,,,,,,,,,,,,,,,,,,,,,
295630,2022-11-27_21h17.37.094,vts_reward_expectancy_bt,2022.2.4,Win32,59.62673663,Chrome,1920,1080,,,a,0.5917,10,75,0,0,11,11,4,1,0,1,0,0,0,0,1,0,circle,hexagon,,,,,,,,,,,,,,,,,,,,,,,,,,,,,,,,,,,,,,,,,,,,,,,,,,,,,,
295630,2022-11-27_21h17.37.094,vts_reward_expectancy_bt,2022.2.4,Win32,59.62673663,Chrome,1920,1080,,,a,0.4506,10,85,0,1,0,12,10,1,0,0,0,1,0,1,0,0,star ,circle,,,,,,,,,,,,,,,,,,,,,,,,,,,,,,,,,,,,,,,,,,,,,,,,,,,,,,
295630,2022-11-27_21h17.37.094,vts_reward_expectancy_bt,2022.2.4,Win32,59.62673663,Chrome,1920,1080,,,a,0.5028,1,86,0,1,1,13,1,1,1,0,0,0,0,0,1,0,triangle,hexagon,,,,,,,,,,,,,,,,,,,,,,,,,,,,,,,,,,,,,,,,,,,,,,,,,,,,,,
295630,2022-11-27_21h17.37.094,vts_reward_expectancy_bt,2022.2.4,Win32,59.62673663,Chrome,1920,1080,,,l,0.5181,10,96,0,1,2,14,4,1,0,1,0,0,0,0,1,0,circle,hexagon,,,,,,,,,,,,,,,,,,,,,,,,,,,,,,,,,,,,,,,,,,,,,,,,,,,,,,
295630,2022-11-27_21h17.37.094,vts_reward_expectancy_bt,2022.2.4,Win32,59.62673663,Chrome,1920,1080,,,a,0.5018,10,106,0,1,3,15,11,1,0,0,0,1,0,0,1,0,star,hexagon,,,,,,,,,,,,,,,,,,,,,,,,,,,,,,,,,,,,,,,,,,,,,,,,,,,,,,
295630,2022-11-27_21h17.37.094,vts_reward_expectancy_bt,2022.2.4,Win32,59.62673663,Chrome,1920,1080,,,l,0.4943,10,116,0,1,4,16,5,1,0,1,0,0,0,0,0,1,circle,star,,,,,,,,,,,,,,,,,,,,,,,,,,,,,,,,,,,,,,,,,,,,,,,,,,,,,,
295630,2022-11-27_21h17.37.094,vts_reward_expectancy_bt,2022.2.4,Win32,59.62673663,Chrome,1920,1080,,,a,0.638,10,126,0,1,5,17,0,1,1,0,0,0,0,1,0,0,triangle,circle,,,,,,,,,,,,,,,,,,,,,,,,,,,,,,,,,,,,,,,,,,,,,,,,,,,,,,
295630,2022-11-27_21h17.37.094,vts_reward_expectancy_bt,2022.2.4,Win32,59.62673663,Chrome,1920,1080,,,a,0.7844,10,136,0,1,6,18,6,1,0,0,1,0,1,0,0,0,hexagon,triangle,,,,,,,,,,,,,,,,,,,,,,,,,,,,,,,,,,,,,,,,,,,,,,,,,,,,,,
295630,2022-11-27_21h17.37.094,vts_reward_expectancy_bt,2022.2.4,Win32,59.62673663,Chrome,1920,1080,,,l,0.5514,1,137,0,1,7,19,2,1,1,0,0,0,0,0,0,1,triangle,star,,,,,,,,,,,,,,,,,,,,,,,,,,,,,,,,,,,,,,,,,,,,,,,,,,,,,,
295630,2022-11-27_21h17.37.094,vts_reward_expectancy_bt,2022.2.4,Win32,59.62673663,Chrome,1920,1080,,,l,0.4668,10,147,0,1,8,20,8,1,0,0,1,0,0,0,0,1,hexagon,star,,,,,,,,,,,,,,,,,,,,,,,,,,,,,,,,,,,,,,,,,,,,,,,,,,,,,,
295630,2022-11-27_21h17.37.094,vts_reward_expectancy_bt,2022.2.4,Win32,59.62673663,Chrome,1920,1080,,,l,0.4339,1,148,0,1,9,21,3,1,0,1,0,0,1,0,0,0,circle,triangle,,,,,,,,,,,,,,,,,,,,,,,,,,,,,,,,,,,,,,,,,,,,,,,,,,,,,,
295630,2022-11-27_21h17.37.094,vts_reward_expectancy_bt,2022.2.4,Win32,59.62673663,Chrome,1920,1080,,,a,0.6351,10,158,0,1,10,22,9,1,0,0,0,1,1,0,0,0,star,triangle,,,,,,,,,,,,,,,,,,,,,,,,,,,,,,,,,,,,,,,,,,,,,,,,,,,,,,
295630,2022-11-27_21h17.37.094,vts_reward_expectancy_bt,2022.2.4,Win32,59.62673663,Chrome,1920,1080,,,a,0.6509,10,168,0,1,11,23,7,1,0,0,1,0,0,1,0,0,hexagon,circle,,,,,,,,,,,,,,,,,,,,,,,,,,,,,,,,,,,,,,,,,,,,,,,,,,,,,,
295630,2022-11-27_21h17.37.094,vts_reward_expectancy_bt,2022.2.4,Win32,59.62673663,Chrome,1920,1080,,,l,0.9184,10,178,0,2,0,24,1,1,1,0,0,0,0,0,1,0,triangle,hexagon,,,,,,,,,,,,,,,,,,,,,,,,,,,,,,,,,,,,,,,,,,,,,,,,,,,,,,
295630,2022-11-27_21h17.37.094,vts_reward_expectancy_bt,2022.2.4,Win32,59.62673663,Chrome,1920,1080,,,l,0.5649,10,188,0,2,1,25,2,1,1,0,0,0,0,0,0,1,triangle,star,,,,,,,,,,,,,,,,,,,,,,,,,,,,,,,,,,,,,,,,,,,,,,,,,,,,,,
295630,2022-11-27_21h17.37.094,vts_reward_expectancy_bt,2022.2.4,Win32,59.62673663,Chrome,1920,1080,,,a,4.5782,1,189,0,2,2,26,0,1,1,0,0,0,0,1,0,0,triangle,circle,,,,,,,,,,,,,,,,,,,,,,,,,,,,,,,,,,,,,,,,,,,,,,,,,,,,,,
295630,2022-11-27_21h17.37.094,vts_reward_expectancy_bt,2022.2.4,Win32,59.62673663,Chrome,1920,1080,,,a,0.6853,10,199,0,2,3,27,6,1,0,0,1,0,1,0,0,0,hexagon,triangle,,,,,,,,,,,,,,,,,,,,,,,,,,,,,,,,,,,,,,,,,,,,,,,,,,,,,,
295630,2022-11-27_21h17.37.094,vts_reward_expectancy_bt,2022.2.4,Win32,59.62673663,Chrome,1920,1080,,,l,0.7348,1,200,0,2,4,28,4,1,0,1,0,0,0,0,1,0,circle,hexagon,,,,,,,,,,,,,,,,,,,,,,,,,,,,,,,,,,,,,,,,,,,,,,,,,,,,,,
295630,2022-11-27_21h17.37.094,vts_reward_expectancy_bt,2022.2.4,Win32,59.62673663,Chrome,1920,1080,,,a,0.6522,1,201,0,2,5,29,9,1,0,0,0,1,1,0,0,0,star,triangle,,,,,,,,,,,,,,,,,,,,,,,,,,,,,,,,,,,,,,,,,,,,,,,,,,,,,,
295630,2022-11-27_21h17.37.094,vts_reward_expectancy_bt,2022.2.4,Win32,59.62673663,Chrome,1920,1080,,,l,0.6696,10,211,0,2,6,30,5,1,0,1,0,0,0,0,0,1,circle,star,,,,,,,,,,,,,,,,,,,,,,,,,,,,,,,,,,,,,,,,,,,,,,,,,,,,,,
295630,2022-11-27_21h17.37.094,vts_reward_expectancy_bt,2022.2.4,Win32,59.62673663,Chrome,1920,1080,,,l,0.8333,1,212,0,2,7,31,8,1,0,0,1,0,0,0,0,1,hexagon,star,,,,,,,,,,,,,,,,,,,,,,,,,,,,,,,,,,,,,,,,,,,,,,,,,,,,,,
295630,2022-11-27_21h17.37.094,vts_reward_expectancy_bt,2022.2.4,Win32,59.62673663,Chrome,1920,1080,,,a,0.6367,1,213,0,2,8,32,7,1,0,0,1,0,0,1,0,0,hexagon,circle,,,,,,,,,,,,,,,,,,,,,,,,,,,,,,,,,,,,,,,,,,,,,,,,,,,,,,
295630,2022-11-27_21h17.37.094,vts_reward_expectancy_bt,2022.2.4,Win32,59.62673663,Chrome,1920,1080,,,a,0.5505,1,214,0,2,9,33,10,1,0,0,0,1,0,1,0,0,star ,circle,,,,,,,,,,,,,,,,,,,,,,,,,,,,,,,,,,,,,,,,,,,,,,,,,,,,,,
295630,2022-11-27_21h17.37.094,vts_reward_expectancy_bt,2022.2.4,Win32,59.62673663,Chrome,1920,1080,,,l,0.7181,1,215,0,2,10,34,3,1,0,1,0,0,1,0,0,0,circle,triangle,,,,,,,,,,,,,,,,,,,,,,,,,,,,,,,,,,,,,,,,,,,,,,,,,,,,,,
295630,2022-11-27_21h17.37.094,vts_reward_expectancy_bt,2022.2.4,Win32,59.62673663,Chrome,1920,1080,,,a,0.5179,1,216,0,2,11,35,11,1,0,0,0,1,0,0,1,0,star,hexagon,,,,,,,,,,,,,,,,,,,,,,,,,,,,,,,,,,,,,,,,,,,,,,,,,,,,,,
295630,2022-11-27_21h17.37.094,vts_reward_expectancy_bt,2022.2.4,Win32,59.62673663,Chrome,1920,1080,,,a,0.7522,10,226,1,0,0,0,6,1,0,0,1,0,1,0,0,0,hexagon,triangle,,,,,,,,,,,,,,,,,,,,,,,,,,,,,,,,,,,,,,,,,,,,,,,,,,,,,,
295630,2022-11-27_21h17.37.094,vts_reward_expectancy_bt,2022.2.4,Win32,59.62673663,Chrome,1920,1080,,,a,0.434,10,236,1,0,1,1,7,1,0,0,1,0,0,1,0,0,hexagon,circle,,,,,,,,,,,,,,,,,,,,,,,,,,,,,,,,,,,,,,,,,,,,,,,,,,,,,,
295630,2022-11-27_21h17.37.094,vts_reward_expectancy_bt,2022.2.4,Win32,59.62673663,Chrome,1920,1080,,,a,0.4346,1,237,1,0,2,2,0,1,1,0,0,0,0,1,0,0,triangle,circle,,,,,,,,,,,,,,,,,,,,,,,,,,,,,,,,,,,,,,,,,,,,,,,,,,,,,,
295630,2022-11-27_21h17.37.094,vts_reward_expectancy_bt,2022.2.4,Win32,59.62673663,Chrome,1920,1080,,,l,0.5011,10,247,1,0,3,3,3,1,0,1,0,0,1,0,0,0,circle,triangle,,,,,,,,,,,,,,,,,,,,,,,,,,,,,,,,,,,,,,,,,,,,,,,,,,,,,,
295630,2022-11-27_21h17.37.094,vts_reward_expectancy_bt,2022.2.4,Win32,59.62673663,Chrome,1920,1080,,,a,1.2354,1,248,1,0,4,4,9,1,0,0,0,1,1,0,0,0,star,triangle,,,,,,,,,,,,,,,,,,,,,,,,,,,,,,,,,,,,,,,,,,,,,,,,,,,,,,
295630,2022-11-27_21h17.37.094,vts_reward_expectancy_bt,2022.2.4,Win32,59.62673663,Chrome,1920,1080,,,l,0.6191,10,258,1,0,5,5,4,1,0,1,0,0,0,0,1,0,circle,hexagon,,,,,,,,,,,,,,,,,,,,,,,,,,,,,,,,,,,,,,,,,,,,,,,,,,,,,,
295630,2022-11-27_21h17.37.094,vts_reward_expectancy_bt,2022.2.4,Win32,59.62673663,Chrome,1920,1080,,,l,1.8378,1,259,1,0,6,6,2,1,1,0,0,0,0,0,0,1,triangle,star,,,,,,,,,,,,,,,,,,,,,,,,,,,,,,,,,,,,,,,,,,,,,,,,,,,,,,
295630,2022-11-27_21h17.37.094,vts_reward_expectancy_bt,2022.2.4,Win32,59.62673663,Chrome,1920,1080,,,l,0.4178,1,260,1,0,7,7,5,1,0,1,0,0,0,0,0,1,circle,star,,,,,,,,,,,,,,,,,,,,,,,,,,,,,,,,,,,,,,,,,,,,,,,,,,,,,,
295630,2022-11-27_21h17.37.094,vts_reward_expectancy_bt,2022.2.4,Win32,59.62673663,Chrome,1920,1080,,,a,0.4175,1,261,1,0,8,8,10,1,0,0,0,1,0,1,0,0,star ,circle,,,,,,,,,,,,,,,,,,,,,,,,,,,,,,,,,,,,,,,,,,,,,,,,,,,,,,
295630,2022-11-27_21h17.37.094,vts_reward_expectancy_bt,2022.2.4,Win32,59.62673663,Chrome,1920,1080,,,l,0.3507,1,262,1,0,9,9,8,1,0,0,1,0,0,0,0,1,hexagon,star,,,,,,,,,,,,,,,,,,,,,,,,,,,,,,,,,,,,,,,,,,,,,,,,,,,,,,
295630,2022-11-27_21h17.37.094,vts_reward_expectancy_bt,2022.2.4,Win32,59.62673663,Chrome,1920,1080,,,a,0.3872,10,272,1,0,10,10,11,1,0,0,0,1,0,0,1,0,star,hexagon,,,,,,,,,,,,,,,,,,,,,,,,,,,,,,,,,,,,,,,,,,,,,,,,,,,,,,
295630,2022-11-27_21h17.37.094,vts_reward_expectancy_bt,2022.2.4,Win32,59.62673663,Chrome,1920,1080,,,l,0.65,1,273,1,0,11,11,1,1,1,0,0,0,0,0,1,0,triangle,hexagon,,,,,,,,,,,,,,,,,,,,,,,,,,,,,,,,,,,,,,,,,,,,,,,,,,,,,,
295630,2022-11-27_21h17.37.094,vts_reward_expectancy_bt,2022.2.4,Win32,59.62673663,Chrome,1920,1080,,,a,0.4182,10,283,1,1,0,12,0,1,1,0,0,0,0,1,0,0,triangle,circle,,,,,,,,,,,,,,,,,,,,,,,,,,,,,,,,,,,,,,,,,,,,,,,,,,,,,,
295630,2022-11-27_21h17.37.094,vts_reward_expectancy_bt,2022.2.4,Win32,59.62673663,Chrome,1920,1080,,,l,0.4844,10,293,1,1,1,13,5,1,0,1,0,0,0,0,0,1,circle,star,,,,,,,,,,,,,,,,,,,,,,,,,,,,,,,,,,,,,,,,,,,,,,,,,,,,,,
295630,2022-11-27_21h17.37.094,vts_reward_expectancy_bt,2022.2.4,Win32,59.62673663,Chrome,1920,1080,,,l,0.4839,1,294,1,1,2,14,8,1,0,0,1,0,0,0,0,1,hexagon,star,,,,,,,,,,,,,,,,,,,,,,,,,,,,,,,,,,,,,,,,,,,,,,,,,,,,,,
295630,2022-11-27_21h17.37.094,vts_reward_expectancy_bt,2022.2.4,Win32,59.62673663,Chrome,1920,1080,,,a,0.4098,10,304,1,1,3,15,1,1,1,0,0,0,0,0,1,0,triangle,hexagon,,,,,,,,,,,,,,,,,,,,,,,,,,,,,,,,,,,,,,,,,,,,,,,,,,,,,,
295630,2022-11-27_21h17.37.094,vts_reward_expectancy_bt,2022.2.4,Win32,59.62673663,Chrome,1920,1080,,,l,0.7502,1,305,1,1,4,16,4,1,0,1,0,0,0,0,1,0,circle,hexagon,,,,,,,,,,,,,,,,,,,,,,,,,,,,,,,,,,,,,,,,,,,,,,,,,,,,,,
295630,2022-11-27_21h17.37.094,vts_reward_expectancy_bt,2022.2.4,Win32,59.62673663,Chrome,1920,1080,,,a,0.3187,10,315,1,1,5,17,9,1,0,0,0,1,1,0,0,0,star,triangle,,,,,,,,,,,,,,,,,,,,,,,,,,,,,,,,,,,,,,,,,,,,,,,,,,,,,,
295630,2022-11-27_21h17.37.094,vts_reward_expectancy_bt,2022.2.4,Win32,59.62673663,Chrome,1920,1080,,,a,0.3333,1,316,1,1,6,18,2,1,1,0,0,0,0,0,0,1,triangle,star,,,,,,,,,,,,,,,,,,,,,,,,,,,,,,,,,,,,,,,,,,,,,,,,,,,,,,
295630,2022-11-27_21h17.37.094,vts_reward_expectancy_bt,2022.2.4,Win32,59.62673663,Chrome,1920,1080,,,a,0.4509,1,317,1,1,7,19,11,1,0,0,0,1,0,0,1,0,star,hexagon,,,,,,,,,,,,,,,,,,,,,,,,,,,,,,,,,,,,,,,,,,,,,,,,,,,,,,
295630,2022-11-27_21h17.37.094,vts_reward_expectancy_bt,2022.2.4,Win32,59.62673663,Chrome,1920,1080,,,l,0.7517,1,318,1,1,8,20,6,1,0,0,1,0,1,0,0,0,hexagon,triangle,,,,,,,,,,,,,,,,,,,,,,,,,,,,,,,,,,,,,,,,,,,,,,,,,,,,,,
295630,2022-11-27_21h17.37.094,vts_reward_expectancy_bt,2022.2.4,Win32,59.62673663,Chrome,1920,1080,,,a,0.4669,1,319,1,1,9,21,7,1,0,0,1,0,0,1,0,0,hexagon,circle,,,,,,,,,,,,,,,,,,,,,,,,,,,,,,,,,,,,,,,,,,,,,,,,,,,,,,
295630,2022-11-27_21h17.37.094,vts_reward_expectancy_bt,2022.2.4,Win32,59.62673663,Chrome,1920,1080,,,a,0.4174,1,320,1,1,10,22,10,1,0,0,0,1,0,1,0,0,star ,circle,,,,,,,,,,,,,,,,,,,,,,,,,,,,,,,,,,,,,,,,,,,,,,,,,,,,,,
295630,2022-11-27_21h17.37.094,vts_reward_expectancy_bt,2022.2.4,Win32,59.62673663,Chrome,1920,1080,,,l,0.5347,1,321,1,1,11,23,3,1,0,1,0,0,1,0,0,0,circle,triangle,,,,,,,,,,,,,,,,,,,,,,,,,,,,,,,,,,,,,,,,,,,,,,,,,,,,,,
295630,2022-11-27_21h17.37.094,vts_reward_expectancy_bt,2022.2.4,Win32,59.62673663,Chrome,1920,1080,,,a,0.6179,1,322,1,2,0,24,6,1,0,0,1,0,1,0,0,0,hexagon,triangle,,,,,,,,,,,,,,,,,,,,,,,,,,,,,,,,,,,,,,,,,,,,,,,,,,,,,,
295630,2022-11-27_21h17.37.094,vts_reward_expectancy_bt,2022.2.4,Win32,59.62673663,Chrome,1920,1080,,,l,0.5173,1,323,1,2,1,25,3,1,0,1,0,0,1,0,0,0,circle,triangle,,,,,,,,,,,,,,,,,,,,,,,,,,,,,,,,,,,,,,,,,,,,,,,,,,,,,,
295630,2022-11-27_21h17.37.094,vts_reward_expectancy_bt,2022.2.4,Win32,59.62673663,Chrome,1920,1080,,,l,0.5554,10,333,1,2,2,26,5,1,0,1,0,0,0,0,0,1,circle,star,,,,,,,,,,,,,,,,,,,,,,,,,,,,,,,,,,,,,,,,,,,,,,,,,,,,,,
295630,2022-11-27_21h17.37.094,vts_reward_expectancy_bt,2022.2.4,Win32,59.62673663,Chrome,1920,1080,,,a,0.5103,10,343,1,2,3,27,10,1,0,0,0,1,0,1,0,0,star ,circle,,,,,,,,,,,,,,,,,,,,,,,,,,,,,,,,,,,,,,,,,,,,,,,,,,,,,,
295630,2022-11-27_21h17.37.094,vts_reward_expectancy_bt,2022.2.4,Win32,59.62673663,Chrome,1920,1080,,,a,0.4517,10,353,1,2,4,28,0,1,1,0,0,0,0,1,0,0,triangle,circle,,,,,,,,,,,,,,,,,,,,,,,,,,,,,,,,,,,,,,,,,,,,,,,,,,,,,,
295630,2022-11-27_21h17.37.094,vts_reward_expectancy_bt,2022.2.4,Win32,59.62673663,Chrome,1920,1080,,,l,0.619,10,363,1,2,5,29,2,1,1,0,0,0,0,0,0,1,triangle,star,,,,,,,,,,,,,,,,,,,,,,,,,,,,,,,,,,,,,,,,,,,,,,,,,,,,,,
295630,2022-11-27_21h17.37.094,vts_reward_expectancy_bt,2022.2.4,Win32,59.62673663,Chrome,1920,1080,,,a,0.5351,1,364,1,2,6,30,9,1,0,0,0,1,1,0,0,0,star,triangle,,,,,,,,,,,,,,,,,,,,,,,,,,,,,,,,,,,,,,,,,,,,,,,,,,,,,,
295630,2022-11-27_21h17.37.094,vts_reward_expectancy_bt,2022.2.4,Win32,59.62673663,Chrome,1920,1080,,,a,0.4509,1,365,1,2,7,31,11,1,0,0,0,1,0,0,1,0,star,hexagon,,,,,,,,,,,,,,,,,,,,,,,,,,,,,,,,,,,,,,,,,,,,,,,,,,,,,,
295630,2022-11-27_21h17.37.094,vts_reward_expectancy_bt,2022.2.4,Win32,59.62673663,Chrome,1920,1080,,,a,0.421,1,366,1,2,8,32,7,1,0,0,1,0,0,1,0,0,hexagon,circle,,,,,,,,,,,,,,,,,,,,,,,,,,,,,,,,,,,,,,,,,,,,,,,,,,,,,,
295630,2022-11-27_21h17.37.094,vts_reward_expectancy_bt,2022.2.4,Win32,59.62673663,Chrome,1920,1080,,,a,0.7188,1,367,1,2,9,33,1,1,1,0,0,0,0,0,1,0,triangle,hexagon,,,,,,,,,,,,,,,,,,,,,,,,,,,,,,,,,,,,,,,,,,,,,,,,,,,,,,
295630,2022-11-27_21h17.37.094,vts_reward_expectancy_bt,2022.2.4,Win32,59.62673663,Chrome,1920,1080,,,l,0.5009,1,368,1,2,10,34,8,1,0,0,1,0,0,0,0,1,hexagon,star,,,,,,,,,,,,,,,,,,,,,,,,,,,,,,,,,,,,,,,,,,,,,,,,,,,,,,
295630,2022-11-27_21h17.37.094,vts_reward_expectancy_bt,2022.2.4,Win32,59.62673663,Chrome,1920,1080,,,l,0.51,10,378,1,2,11,35,4,1,0,1,0,0,0,0,1,0,circle,hexagon,,,,,,,,,,,,,,,,,,,,,,,,,,,,,,,,,,,,,,,,,,,,,,,,,,,,,,
295630,2022-11-27_21h17.37.094,vts_reward_expectancy_bt,2022.2.4,Win32,59.62673663,Chrome,1920,1080,,,a,1.1854,1,379,2,0,0,0,0,1,1,0,0,0,0,1,0,0,triangle,circle,,,,,,,,,,,,,,,,,,,,,,,,,,,,,,,,,,,,,,,,,,,,,,,,,,,,,,
295630,2022-11-27_21h17.37.094,vts_reward_expectancy_bt,2022.2.4,Win32,59.62673663,Chrome,1920,1080,,,l,0.5848,10,389,2,0,1,1,6,1,0,0,1,0,1,0,0,0,hexagon,triangle,,,,,,,,,,,,,,,,,,,,,,,,,,,,,,,,,,,,,,,,,,,,,,,,,,,,,,
295630,2022-11-27_21h17.37.094,vts_reward_expectancy_bt,2022.2.4,Win32,59.62673663,Chrome,1920,1080,,,l,0.5526,1,390,2,0,2,2,3,1,0,1,0,0,1,0,0,0,circle,triangle,,,,,,,,,,,,,,,,,,,,,,,,,,,,,,,,,,,,,,,,,,,,,,,,,,,,,,
295630,2022-11-27_21h17.37.094,vts_reward_expectancy_bt,2022.2.4,Win32,59.62673663,Chrome,1920,1080,,,l,0.4684,10,400,2,0,3,3,8,1,0,0,1,0,0,0,0,1,hexagon,star,,,,,,,,,,,,,,,,,,,,,,,,,,,,,,,,,,,,,,,,,,,,,,,,,,,,,,
295630,2022-11-27_21h17.37.094,vts_reward_expectancy_bt,2022.2.4,Win32,59.62673663,Chrome,1920,1080,,,l,0.5347,1,401,2,0,4,4,2,1,1,0,0,0,0,0,0,1,triangle,star,,,,,,,,,,,,,,,,,,,,,,,,,,,,,,,,,,,,,,,,,,,,,,,,,,,,,,
295630,2022-11-27_21h17.37.094,vts_reward_expectancy_bt,2022.2.4,Win32,59.62673663,Chrome,1920,1080,,,l,0.4349,10,411,2,0,5,5,5,1,0,1,0,0,0,0,0,1,circle,star,,,,,,,,,,,,,,,,,,,,,,,,,,,,,,,,,,,,,,,,,,,,,,,,,,,,,,
295630,2022-11-27_21h17.37.094,vts_reward_expectancy_bt,2022.2.4,Win32,59.62673663,Chrome,1920,1080,,,l,0.9942,1,412,2,0,6,6,1,1,1,0,0,0,0,0,1,0,triangle,hexagon,,,,,,,,,,,,,,,,,,,,,,,,,,,,,,,,,,,,,,,,,,,,,,,,,,,,,,
295630,2022-11-27_21h17.37.094,vts_reward_expectancy_bt,2022.2.4,Win32,59.62673663,Chrome,1920,1080,,,l,0.5882,1,413,2,0,7,7,9,1,0,0,0,1,1,0,0,0,star,triangle,,,,,,,,,,,,,,,,,,,,,,,,,,,,,,,,,,,,,,,,,,,,,,,,,,,,,,
295630,2022-11-27_21h17.37.094,vts_reward_expectancy_bt,2022.2.4,Win32,59.62673663,Chrome,1920,1080,,,a,0.3841,1,414,2,0,8,8,10,1,0,0,0,1,0,1,0,0,star ,circle,,,,,,,,,,,,,,,,,,,,,,,,,,,,,,,,,,,,,,,,,,,,,,,,,,,,,,
295630,2022-11-27_21h17.37.094,vts_reward_expectancy_bt,2022.2.4,Win32,59.62673663,Chrome,1920,1080,,,a,1.242,1,415,2,0,9,9,7,1,0,0,1,0,0,1,0,0,hexagon,circle,,,,,,,,,,,,,,,,,,,,,,,,,,,,,,,,,,,,,,,,,,,,,,,,,,,,,,
295630,2022-11-27_21h17.37.094,vts_reward_expectancy_bt,2022.2.4,Win32,59.62673663,Chrome,1920,1080,,,a,0.5684,10,425,2,0,10,10,11,1,0,0,0,1,0,0,1,0,star,hexagon,,,,,,,,,,,,,,,,,,,,,,,,,,,,,,,,,,,,,,,,,,,,,,,,,,,,,,
295630,2022-11-27_21h17.37.094,vts_reward_expectancy_bt,2022.2.4,Win32,59.62673663,Chrome,1920,1080,,,l,0.5502,1,426,2,0,11,11,4,1,0,1,0,0,0,0,1,0,circle,hexagon,,,,,,,,,,,,,,,,,,,,,,,,,,,,,,,,,,,,,,,,,,,,,,,,,,,,,,
295630,2022-11-27_21h17.37.094,vts_reward_expectancy_bt,2022.2.4,Win32,59.62673663,Chrome,1920,1080,,,a,0.4825,1,427,2,1,0,12,11,1,0,0,0,1,0,0,1,0,star,hexagon,,,,,,,,,,,,,,,,,,,,,,,,,,,,,,,,,,,,,,,,,,,,,,,,,,,,,,
295630,2022-11-27_21h17.37.094,vts_reward_expectancy_bt,2022.2.4,Win32,59.62673663,Chrome,1920,1080,,,l,0.3846,10,437,2,1,1,13,5,1,0,1,0,0,0,0,0,1,circle,star,,,,,,,,,,,,,,,,,,,,,,,,,,,,,,,,,,,,,,,,,,,,,,,,,,,,,,
295630,2022-11-27_21h17.37.094,vts_reward_expectancy_bt,2022.2.4,Win32,59.62673663,Chrome,1920,1080,,,a,0.5987,1,438,2,1,2,14,9,1,0,0,0,1,1,0,0,0,star,triangle,,,,,,,,,,,,,,,,,,,,,,,,,,,,,,,,,,,,,,,,,,,,,,,,,,,,,,
295630,2022-11-27_21h17.37.094,vts_reward_expectancy_bt,2022.2.4,Win32,59.62673663,Chrome,1920,1080,,,a,0.3673,1,439,2,1,3,15,0,1,1,0,0,0,0,1,0,0,triangle,circle,,,,,,,,,,,,,,,,,,,,,,,,,,,,,,,,,,,,,,,,,,,,,,,,,,,,,,
295630,2022-11-27_21h17.37.094,vts_reward_expectancy_bt,2022.2.4,Win32,59.62673663,Chrome,1920,1080,,,l,0.3832,10,449,2,1,4,16,8,1,0,0,1,0,0,0,0,1,hexagon,star,,,,,,,,,,,,,,,,,,,,,,,,,,,,,,,,,,,,,,,,,,,,,,,,,,,,,,
295630,2022-11-27_21h17.37.094,vts_reward_expectancy_bt,2022.2.4,Win32,59.62673663,Chrome,1920,1080,,,a,0.5009,10,459,2,1,5,17,10,1,0,0,0,1,0,1,0,0,star ,circle,,,,,,,,,,,,,,,,,,,,,,,,,,,,,,,,,,,,,,,,,,,,,,,,,,,,,,
295630,2022-11-27_21h17.37.094,vts_reward_expectancy_bt,2022.2.4,Win32,59.62673663,Chrome,1920,1080,,,l,0.5347,1,460,2,1,6,18,4,1,0,1,0,0,0,0,1,0,circle,hexagon,,,,,,,,,,,,,,,,,,,,,,,,,,,,,,,,,,,,,,,,,,,,,,,,,,,,,,
295630,2022-11-27_21h17.37.094,vts_reward_expectancy_bt,2022.2.4,Win32,59.62673663,Chrome,1920,1080,,,a,1.0026,1,461,2,1,7,19,6,1,0,0,1,0,1,0,0,0,hexagon,triangle,,,,,,,,,,,,,,,,,,,,,,,,,,,,,,,,,,,,,,,,,,,,,,,,,,,,,,
295630,2022-11-27_21h17.37.094,vts_reward_expectancy_bt,2022.2.4,Win32,59.62673663,Chrome,1920,1080,,,l,0.4837,10,471,2,1,8,20,3,1,0,1,0,0,1,0,0,0,circle,triangle,,,,,,,,,,,,,,,,,,,,,,,,,,,,,,,,,,,,,,,,,,,,,,,,,,,,,,
295630,2022-11-27_21h17.37.094,vts_reward_expectancy_bt,2022.2.4,Win32,59.62673663,Chrome,1920,1080,,,a,0.8017,1,472,2,1,9,21,7,1,0,0,1,0,0,1,0,0,hexagon,circle,,,,,,,,,,,,,,,,,,,,,,,,,,,,,,,,,,,,,,,,,,,,,,,,,,,,,,
295630,2022-11-27_21h17.37.094,vts_reward_expectancy_bt,2022.2.4,Win32,59.62673663,Chrome,1920,1080,,,l,0.4518,1,473,2,1,10,22,2,1,1,0,0,0,0,0,0,1,triangle,star,,,,,,,,,,,,,,,,,,,,,,,,,,,,,,,,,,,,,,,,,,,,,,,,,,,,,,
295630,2022-11-27_21h17.37.094,vts_reward_expectancy_bt,2022.2.4,Win32,59.62673663,Chrome,1920,1080,,,l,1.2525,1,474,2,1,11,23,1,1,1,0,0,0,0,0,1,0,triangle,hexagon,,,,,,,,,,,,,,,,,,,,,,,,,,,,,,,,,,,,,,,,,,,,,,,,,,,,,,
295630,2022-11-27_21h17.37.094,vts_reward_expectancy_bt,2022.2.4,Win32,59.62673663,Chrome,1920,1080,,,a,0.5873,1,475,2,2,0,24,10,1,0,0,0,1,0,1,0,0,star ,circle,,,,,,,,,,,,,,,,,,,,,,,,,,,,,,,,,,,,,,,,,,,,,,,,,,,,,,
295630,2022-11-27_21h17.37.094,vts_reward_expectancy_bt,2022.2.4,Win32,59.62673663,Chrome,1920,1080,,,a,0.5541,10,485,2,2,1,25,7,1,0,0,1,0,0,1,0,0,hexagon,circle,,,,,,,,,,,,,,,,,,,,,,,,,,,,,,,,,,,,,,,,,,,,,,,,,,,,,,
295630,2022-11-27_21h17.37.094,vts_reward_expectancy_bt,2022.2.4,Win32,59.62673663,Chrome,1920,1080,,,l,0.7524,10,495,2,2,2,26,8,1,0,0,1,0,0,0,0,1,hexagon,star,,,,,,,,,,,,,,,,,,,,,,,,,,,,,,,,,,,,,,,,,,,,,,,,,,,,,,
295630,2022-11-27_21h17.37.094,vts_reward_expectancy_bt,2022.2.4,Win32,59.62673663,Chrome,1920,1080,,,a,0.6501,1,496,2,2,3,27,11,1,0,0,0,1,0,0,1,0,star,hexagon,,,,,,,,,,,,,,,,,,,,,,,,,,,,,,,,,,,,,,,,,,,,,,,,,,,,,,
295630,2022-11-27_21h17.37.094,vts_reward_expectancy_bt,2022.2.4,Win32,59.62673663,Chrome,1920,1080,,,l,0.6958,1,497,2,2,4,28,3,1,0,1,0,0,1,0,0,0,circle,triangle,,,,,,,,,,,,,,,,,,,,,,,,,,,,,,,,,,,,,,,,,,,,,,,,,,,,,,
295630,2022-11-27_21h17.37.094,vts_reward_expectancy_bt,2022.2.4,Win32,59.62673663,Chrome,1920,1080,,,l,0.9033,10,507,2,2,5,29,1,1,1,0,0,0,0,0,1,0,triangle,hexagon,,,,,,,,,,,,,,,,,,,,,,,,,,,,,,,,,,,,,,,,,,,,,,,,,,,,,,
295630,2022-11-27_21h17.37.094,vts_reward_expectancy_bt,2022.2.4,Win32,59.62673663,Chrome,1920,1080,,,l,0.7674,1,508,2,2,6,30,5,1,0,1,0,0,0,0,0,1,circle,star,,,,,,,,,,,,,,,,,,,,,,,,,,,,,,,,,,,,,,,,,,,,,,,,,,,,,,
295630,2022-11-27_21h17.37.094,vts_reward_expectancy_bt,2022.2.4,Win32,59.62673663,Chrome,1920,1080,,,l,1.9222,1,509,2,2,7,31,4,1,0,1,0,0,0,0,1,0,circle,hexagon,,,,,,,,,,,,,,,,,,,,,,,,,,,,,,,,,,,,,,,,,,,,,,,,,,,,,,
295630,2022-11-27_21h17.37.094,vts_reward_expectancy_bt,2022.2.4,Win32,59.62673663,Chrome,1920,1080,,,l,0.6174,1,510,2,2,8,32,2,1,1,0,0,0,0,0,0,1,triangle,star,,,,,,,,,,,,,,,,,,,,,,,,,,,,,,,,,,,,,,,,,,,,,,,,,,,,,,
295630,2022-11-27_21h17.37.094,vts_reward_expectancy_bt,2022.2.4,Win32,59.62673663,Chrome,1920,1080,,,a,0.6202,10,520,2,2,9,33,0,1,1,0,0,0,0,1,0,0,triangle,circle,,,,,,,,,,,,,,,,,,,,,,,,,,,,,,,,,,,,,,,,,,,,,,,,,,,,,,
295630,2022-11-27_21h17.37.094,vts_reward_expectancy_bt,2022.2.4,Win32,59.62673663,Chrome,1920,1080,,,a,0.5852,10,530,2,2,10,34,9,1,0,0,0,1,1,0,0,0,star,triangle,,,,,,,,,,,,,,,,,,,,,,,,,,,,,,,,,,,,,,,,,,,,,,,,,,,,,,
295630,2022-11-27_21h17.37.094,vts_reward_expectancy_bt,2022.2.4,Win32,59.62673663,Chrome,1920,1080,,,a,0.8742,1,531,2,2,11,35,6,1,0,0,1,0,1,0,0,0,hexagon,triangle,,,,,,,,,,,,,,,,,,,,,,,,,,,,,,,,,,,,,,,,,,,,,,,,,,,,,,
295630,2022-11-27_21h17.37.094,vts_reward_expectancy_bt,2022.2.4,Win32,59.62673663,Chrome,1920,1080,,,,,,,,,,,,,,,,,,,,,,,H,139,hexagon,0,0,,0,0,0,0,0,1,,,,,,,,,,,,,,,,,,,,,,,,,,,,,,,,,,,,,,,,,,
295630,2022-11-27_21h17.37.094,vts_reward_expectancy_bt,2022.2.4,Win32,59.62673663,Chrome,1920,1080,,,,,,,,,,,,,,,,,,,,,,,U,167,star,1,1,f,0,1,0,1,0,1,1.052,,,,,,,,,,,,,,,,,,,,,,,,,,,,,,,,,,,,,,,,,
295630,2022-11-27_21h17.37.094,vts_reward_expectancy_bt,2022.2.4,Win32,59.62673663,Chrome,1920,1080,,,,,,,,,,,,,,,,,,,,,,,D,181,triangle,1,0,d,0,2,0,2,0,1,0.7515,,,,,,,,,,,,,,,,,,,,,,,,,,,,,,,,,,,,,,,,,
295630,2022-11-27_21h17.37.094,vts_reward_expectancy_bt,2022.2.4,Win32,59.62673663,Chrome,1920,1080,,,,,,,,,,,,,,,,,,,,,,,B,146,circle,1,0,d,0,3,0,3,0,1,0.6009,,,,,,,,,,,,,,,,,,,,,,,,,,,,,,,,,,,,,,,,,
295630,2022-11-27_21h17.37.094,vts_reward_expectancy_bt,2022.2.4,Win32,59.62673663,Chrome,1920,1080,,,,,,,,,,,,,,,,,,,,,,,S,125,hexagon,1,0,f,0,4,0,4,0,1,0.722,,,,,,,,,,,,,,,,,,,,,,,,,,,,,,,,,,,,,,,,,
295630,2022-11-27_21h17.37.094,vts_reward_expectancy_bt,2022.2.4,Win32,59.62673663,Chrome,1920,1080,,,,,,,,,,,,,,,,,,,,,,,Y,160,star,1,0,f,0,5,0,5,0,1,0.6699,,,,,,,,,,,,,,,,,,,,,,,,,,,,,,,,,,,,,,,,,
295630,2022-11-27_21h17.37.094,vts_reward_expectancy_bt,2022.2.4,Win32,59.62673663,Chrome,1920,1080,,,,,,,,,,,,,,,,,,,,,,,W,132,triangle,1,0,f,0,6,0,6,0,1,0.5011,,,,,,,,,,,,,,,,,,,,,,,,,,,,,,,,,,,,,,,,,
295630,2022-11-27_21h17.37.094,vts_reward_expectancy_bt,2022.2.4,Win32,59.62673663,Chrome,1920,1080,,,,,,,,,,,,,,,,,,,,,,,F,174,circle,1,0,d,0,7,0,7,0,1,0.4593,,,,,,,,,,,,,,,,,,,,,,,,,,,,,,,,,,,,,,,,,
295630,2022-11-27_21h17.37.094,vts_reward_expectancy_bt,2022.2.4,Win32,59.62673663,Chrome,1920,1080,,,,,,,,,,,,,,,,,,,,,,,H,139,circle,1,0,d,0,8,0,8,0,1,0.5462,,,,,,,,,,,,,,,,,,,,,,,,,,,,,,,,,,,,,,,,,
295630,2022-11-27_21h17.37.094,vts_reward_expectancy_bt,2022.2.4,Win32,59.62673663,Chrome,1920,1080,,,,,,,,,,,,,,,,,,,,,,,U,167,triangle,1,0,f,0,9,0,9,0,1,0.6196,,,,,,,,,,,,,,,,,,,,,,,,,,,,,,,,,,,,,,,,,
295630,2022-11-27_21h17.37.094,vts_reward_expectancy_bt,2022.2.4,Win32,59.62673663,Chrome,1920,1080,,,,,,,,,,,,,,,,,,,,,,,W,132,triangle,1,0,,1,,,,,,,j,1.921,0,0,0,0,1,,,,,,,,,,,,,,,,,,,,,,,,,,,,,,,,,,
295630,2022-11-27_21h17.37.094,vts_reward_expectancy_bt,2022.2.4,Win32,59.62673663,Chrome,1920,1080,,,,,,,,,,,,,,,,,,,,,,,D,139,star,1,0,,1,,,,,,,j,0.6521,1,0,1,0,1,,,,,,,,,,,,,,,,,,,,,,,,,,,,,,,,,,
295630,2022-11-27_21h17.37.094,vts_reward_expectancy_bt,2022.2.4,Win32,59.62673663,Chrome,1920,1080,,,,,,,,,,,,,,,,,,,,,,,B,167,circle,1,0,,1,,,,,,,k,0.5509,2,0,2,0,1,,,,,,,,,,,,,,,,,,,,,,,,,,,,,,,,,,
295630,2022-11-27_21h17.37.094,vts_reward_expectancy_bt,2022.2.4,Win32,59.62673663,Chrome,1920,1080,,,,,,,,,,,,,,,,,,,,,,,S,160,hexagon,1,0,,1,,,,,,,k,0.5347,3,0,3,0,1,,,,,,,,,,,,,,,,,,,,,,,,,,,,,,,,,,
295630,2022-11-27_21h17.37.094,vts_reward_expectancy_bt,2022.2.4,Win32,59.62673663,Chrome,1920,1080,,,,,,,,,,,,,,,,,,,,,,,Y,174,triangle,1,0,,1,,,,,,,k,0.702,4,0,4,0,1,,,,,,,,,,,,,,,,,,,,,,,,,,,,,,,,,,
295630,2022-11-27_21h17.37.094,vts_reward_expectancy_bt,2022.2.4,Win32,59.62673663,Chrome,1920,1080,,,,,,,,,,,,,,,,,,,,,,,F,146,star,1,0,,1,,,,,,,j,1.1697,5,0,5,0,1,,,,,,,,,,,,,,,,,,,,,,,,,,,,,,,,,,
295630,2022-11-27_21h17.37.094,vts_reward_expectancy_bt,2022.2.4,Win32,59.62673663,Chrome,1920,1080,,,,,,,,,,,,,,,,,,,,,,,H,125,circle,1,0,,1,,,,,,,j,0.8732,6,0,6,0,1,,,,,,,,,,,,,,,,,,,,,,,,,,,,,,,,,,
295630,2022-11-27_21h17.37.094,vts_reward_expectancy_bt,2022.2.4,Win32,59.62673663,Chrome,1920,1080,,,,,,,,,,,,,,,,,,,,,,,U,181,hexagon,1,0,,1,,,,,,,k,0.5577,7,0,7,0,1,,,,,,,,,,,,,,,,,,,,,,,,,,,,,,,,,,
295630,2022-11-27_21h17.37.094,vts_reward_expectancy_bt,2022.2.4,Win32,59.62673663,Chrome,1920,1080,,,,,,,,,,,,,,,,,,,,,,,W,132,star,1,0,,1,,,,,,,j,0.7357,8,0,8,0,1,,,,,,,,,,,,,,,,,,,,,,,,,,,,,,,,,,
295630,2022-11-27_21h17.37.094,vts_reward_expectancy_bt,2022.2.4,Win32,59.62673663,Chrome,1920,1080,,,,,,,,,,,,,,,,,,,,,,,D,139,triangle,1,0,,1,,,,,,,j,0.9206,9,0,9,0,1,,,,,,,,,,,,,,,,,,,,,,,,,,,,,,,,,,
295630,2022-11-27_21h17.37.094,vts_reward_expectancy_bt,2022.2.4,Win32,59.62673663,Chrome,1920,1080,,,,,0,531,,,,,,,,,,,,,,,,,D,181,triangle,-1,0,,2,,,,,,,,,,,,,,-1,no_choice,NA,,vtsPrac,0,0,0,0,1,,,,,,,,,,,,,,,,,,,,,,,,
295630,2022-11-27_21h17.37.094,vts_reward_expectancy_bt,2022.2.4,Win32,59.62673663,Chrome,1920,1080,,,,,0,531,,,,,,,,,,,,,,,,,W,139,hexagon,0,0,,2,,,,,,,,,,,,,,switch,number,NA,k,vtsPrac,1,0,1,0,1,1.4579,,,,,,,,,,,,,,,,,,,,,,,
295630,2022-11-27_21h17.37.094,vts_reward_expectancy_bt,2022.2.4,Win32,59.62673663,Chrome,1920,1080,,,,,0,531,,,,,,,,,,,,,,,,,H,160,triangle,0,1,,2,,,,,,,,,,,,,,repeat,number,NA,j,vtsPrac,2,0,2,0,1,1.1685,,,,,,,,,,,,,,,,,,,,,,,
295630,2022-11-27_21h17.37.094,vts_reward_expectancy_bt,2022.2.4,Win32,59.62673663,Chrome,1920,1080,,,,,0,531,,,,,,,,,,,,,,,,,B,174,hexagon,1,1,,2,,,,,,,,,,,,,,repeat,number,numRpt,k,vtsPrac,3,0,3,0,1,0.8688,,,,,,,,,,,,,,,,,,,,,,,
295630,2022-11-27_21h17.37.094,vts_reward_expectancy_bt,2022.2.4,Win32,59.62673663,Chrome,1920,1080,,,,,0,531,,,,,,,,,,,,,,,,,D,181,triangle,1,0,,2,,,,,,,,,,,,,,repeat,number,numRpt,k,vtsPrac,4,0,4,0,1,0.869,,,,,,,,,,,,,,,,,,,,,,,
295630,2022-11-27_21h17.37.094,vts_reward_expectancy_bt,2022.2.4,Win32,59.62673663,Chrome,1920,1080,,,,,0,531,,,,,,,,,,,,,,,,,W,139,hexagon,0,0,,2,,,,,,,,,,,,,,repeat,number,NA,k,vtsPrac,5,0,5,0,1,0.3842,,,,,,,,,,,,,,,,,,,,,,,
295630,2022-11-27_21h17.37.094,vts_reward_expectancy_bt,2022.2.4,Win32,59.62673663,Chrome,1920,1080,,,,,0,531,,,,,,,,,,,,,,,,,H,160,triangle,1,1,,2,,,,,,,,,,,,,,repeat,number,numRpt,k,vtsPrac,6,0,6,0,1,0.5517,,,,,,,,,,,,,,,,,,,,,,,
295630,2022-11-27_21h17.37.094,vts_reward_expectancy_bt,2022.2.4,Win32,59.62673663,Chrome,1920,1080,,,,,0,531,,,,,,,,,,,,,,,,,B,174,hexagon,1,0,,2,,,,,,,,,,,,,,repeat,number,numRpt,k,vtsPrac,7,0,7,0,1,0.8189,,,,,,,,,,,,,,,,,,,,,,,
295630,2022-11-27_21h17.37.094,vts_reward_expectancy_bt,2022.2.4,Win32,59.62673663,Chrome,1920,1080,,,,,0,531,,,,,,,,,,,,,,,,,S,132,hexagon,0,0,,2,,,,,,,,,,,,,,repeat,number,NA,k,vtsPrac,8,0,8,0,1,0.735,,,,,,,,,,,,,,,,,,,,,,,
295630,2022-11-27_21h17.37.094,vts_reward_expectancy_bt,2022.2.4,Win32,59.62673663,Chrome,1920,1080,,,,,0,531,,,,,,,,,,,,,,,,,B,125,circle,1,1,,2,,,,,,,,,,,,,,repeat,number,numRpt,j,vtsPrac,9,0,9,0,1,0.3013,,,,,,,,,,,,,,,,,,,,,,,
295630,2022-11-27_21h17.37.094,vts_reward_expectancy_bt,2022.2.4,Win32,59.62673663,Chrome,1920,1080,,,,,0,531,,,,,,,,,,,,,,,,,F,174,triangle,1,0,,2,,,,,,,,,,,,,,repeat,number,numRpt,k,vtsPrac,10,0,10,0,1,1.0237,,,,,,,,,,,,,,,,,,,,,,,
295630,2022-11-27_21h17.37.094,vts_reward_expectancy_bt,2022.2.4,Win32,59.62673663,Chrome,1920,1080,,,,,0,531,,,,,,,,,,,,,,,,,D,167,hexagon,1,0,,2,,,,,,,,,,,,,,repeat,number,numRpt,k,vtsPrac,11,0,11,0,1,0.6534,,,,,,,,,,,,,,,,,,,,,,,
295630,2022-11-27_21h17.37.094,vts_reward_expectancy_bt,2022.2.4,Win32,59.62673663,Chrome,1920,1080,,,,,0,531,,,,,,,,,,,,,,,,,H,160,circle,1,0,,2,,,,,,,,,,,,,,repeat,number,numRpt,k,vtsPrac,12,0,12,0,1,1.0372,,,,,,,,,,,,,,,,,,,,,,,
295630,2022-11-27_21h17.37.094,vts_reward_expectancy_bt,2022.2.4,Win32,59.62673663,Chrome,1920,1080,,,,,0,531,,,,,,,,,,,,,,,,,F,174,hexagon,1,0,,2,,,,,,,,,,,,,,repeat,number,numRpt,k,vtsPrac,13,0,13,0,1,0.474,,,,,,,,,,,,,,,,,,,,,,,
295630,2022-11-27_21h17.37.094,vts_reward_expectancy_bt,2022.2.4,Win32,59.62673663,Chrome,1920,1080,,,,,0,531,,,,,,,,,,,,,,,,,S,167,hexagon,1,0,,2,,,,,,,,,,,,,,repeat,number,numRpt,k,vtsPrac,14,0,14,0,1,0.7019,,,,,,,,,,,,,,,,,,,,,,,
295630,2022-11-27_21h17.37.094,vts_reward_expectancy_bt,2022.2.4,Win32,59.62673663,Chrome,1920,1080,,,,,0,531,,,,,,,,,,,,,,,,,U,181,triangle,0,0,,2,,,,,,,,,,,,,,switch,letter,NA,d,vtsPrac,15,0,15,0,1,0.7355,,,,,,,,,,,,,,,,,,,,,,,
295630,2022-11-27_21h17.37.094,vts_reward_expectancy_bt,2022.2.4,Win32,59.62673663,Chrome,1920,1080,,,,,0,531,,,,,,,,,,,,,,,,,S,160,star,0,1,,2,,,,,,,,,,,,,,repeat,letter,NA,d,vtsPrac,16,0,16,0,1,0.6689,,,,,,,,,,,,,,,,,,,,,,,
295630,2022-11-27_21h17.37.094,vts_reward_expectancy_bt,2022.2.4,Win32,59.62673663,Chrome,1920,1080,,,,,0,531,,,,,,,,,,,,,,,,,F,146,hexagon,1,1,,2,,,,,,,,,,,,,,repeat,letter,lettRpt,d,vtsPrac,17,0,17,0,1,1.0055,,,,,,,,,,,,,,,,,,,,,,,
295630,2022-11-27_21h17.37.094,vts_reward_expectancy_bt,2022.2.4,Win32,59.62673663,Chrome,1920,1080,,,,,0,531,,,,,,,,,,,,,,,,,W,139,triangle,1,0,,2,,,,,,,,,,,,,,repeat,letter,lettRpt,f,vtsPrac,18,0,18,0,1,0.8185,,,,,,,,,,,,,,,,,,,,,,,
295630,2022-11-27_21h17.37.094,vts_reward_expectancy_bt,2022.2.4,Win32,59.62673663,Chrome,1920,1080,,,,,0,531,,,,,,,,,,,,,,,,,Y,174,star,1,0,,2,,,,,,,,,,,,,,repeat,letter,lettRpt,f,vtsPrac,19,0,19,0,1,0.7518,,,,,,,,,,,,,,,,,,,,,,,
295630,2022-11-27_21h17.37.094,vts_reward_expectancy_bt,2022.2.4,Win32,59.62673663,Chrome,1920,1080,,,,,0,531,,,,,,,,,,,,,,,,,B,146,circle,1,0,,2,,,,,,,,,,,,,,repeat,letter,lettRpt,d,vtsPrac,20,0,20,0,1,0.5848,,,,,,,,,,,,,,,,,,,,,,,
295630,2022-11-27_21h17.37.094,vts_reward_expectancy_bt,2022.2.4,Win32,59.62673663,Chrome,1920,1080,,,,,0,531,,,,,,,,,,,,,,,,,W,139,star,1,0,,2,,,,,,,,,,,,,,repeat,letter,lettRpt,f,vtsPrac,21,0,21,0,1,0.8184,,,,,,,,,,,,,,,,,,,,,,,
295630,2022-11-27_21h17.37.094,vts_reward_expectancy_bt,2022.2.4,Win32,59.62673663,Chrome,1920,1080,,,,,0,531,,,,,,,,,,,,,,,,,D,174,circle,1,0,,2,,,,,,,,,,,,,,repeat,letter,lettRpt,d,vtsPrac,22,0,22,0,1,0.7516,,,,,,,,,,,,,,,,,,,,,,,
295630,2022-11-27_21h17.37.094,vts_reward_expectancy_bt,2022.2.4,Win32,59.62673663,Chrome,1920,1080,,,,,0,531,,,,,,,,,,,,,,,,,H,125,triangle,1,0,,2,,,,,,,,,,,,,,switch,number,numSwt,j,vtsPrac,23,0,23,0,1,0.5205,,,,,,,,,,,,,,,,,,,,,,,
295630,2022-11-27_21h17.37.094,vts_reward_expectancy_bt,2022.2.4,Win32,59.62673663,Chrome,1920,1080,,,,,0,531,,,,,,,,,,,,,,,,,S,146,triangle,1,0,,2,,,,,,,,,,,,,,repeat,number,numRpt,j,vtsPrac,24,0,24,0,1,0.8185,,,,,,,,,,,,,,,,,,,,,,,
295630,2022-11-27_21h17.37.094,vts_reward_expectancy_bt,2022.2.4,Win32,59.62673663,Chrome,1920,1080,,,,,0,531,,,,,,,,,,,,,,,,,D,125,circle,1,0,,2,,,,,,,,,,,,,,switch,letter,lettSwt,d,vtsPrac,25,0,25,0,1,0.5671,,,,,,,,,,,,,,,,,,,,,,,
295630,2022-11-27_21h17.37.094,vts_reward_expectancy_bt,2022.2.4,Win32,59.62673663,Chrome,1920,1080,,,,,0,531,,,,,,,,,,,,,,,,,F,167,triangle,1,0,,2,,,,,,,,,,,,,,repeat,letter,lettRpt,d,vtsPrac,26,0,26,0,1,0.9518,,,,,,,,,,,,,,,,,,,,,,,
295630,2022-11-27_21h17.37.094,vts_reward_expectancy_bt,2022.2.4,Win32,59.62673663,Chrome,1920,1080,,,,,0,531,,,,,,,,,,,,,,,,,H,132,hexagon,1,0,,2,,,,,,,,,,,,,,repeat,letter,lettRpt,d,vtsPrac,27,0,27,0,1,0.7346,,,,,,,,,,,,,,,,,,,,,,,
295630,2022-11-27_21h17.37.094,vts_reward_expectancy_bt,2022.2.4,Win32,59.62673663,Chrome,1920,1080,,,,,0,531,,,,,,,,,,,,,,,,,F,132,star,1,0,,2,,,,,,,,,,,,,,repeat,letter,lettRpt,d,vtsPrac,28,0,28,0,1,0.5722,,,,,,,,,,,,,,,,,,,,,,,
295630,2022-11-27_21h17.37.094,vts_reward_expectancy_bt,2022.2.4,Win32,59.62673663,Chrome,1920,1080,,,,,0,531,,,,,,,,,,,,,,,,,U,139,circle,1,0,,2,,,,,,,,,,,,,,repeat,letter,lettRpt,f,vtsPrac,29,0,29,0,1,1.4023,,,,,,,,,,,,,,,,,,,,,,,
295630,2022-11-27_21h17.37.094,vts_reward_expectancy_bt,2022.2.4,Win32,59.62673663,Chrome,1920,1080,,,,,0,531,,,,,,,,,,,,,,,,,Y,174,triangle,1,0,,2,,,,,,,,,,,,,,switch,number,numSwt,k,vtsPrac,30,0,30,0,1,0.6338,,,,,,,,,,,,,,,,,,,,,,,
295630,2022-11-27_21h17.37.094,vts_reward_expectancy_bt,2022.2.4,Win32,59.62673663,Chrome,1920,1080,,,,,0,531,,,,,,,,,,,,,,,,,S,160,hexagon,1,0,,2,,,,,,,,,,,,,,repeat,number,numRpt,k,vtsPrac,31,0,31,0,1,1.0028,,,,,,,,,,,,,,,,,,,,,,,
295630,2022-11-27_21h17.37.094,vts_reward_expectancy_bt,2022.2.4,Win32,59.62673663,Chrome,1920,1080,,,,,0,531,,,,,,,,,,,,,,,,,B,167,hexagon,1,0,,3,,,,,,,,,,,,,,repeat,number,numRpt,k,vtsPrac,0,0,0,0,1,0.9458,,,,,,,,,,,,,,,,,,,,,,,
295630,2022-11-27_21h17.37.094,vts_reward_expectancy_bt,2022.2.4,Win32,59.62673663,Chrome,1920,1080,,,,,0,531,,,,,,,,,,,,,,,,,F,139,circle,1,0,,3,,,,,,,,,,,,,,switch,letter,lettSwt,d,vtsPrac,1,0,1,0,1,1.8041,,,,,,,,,,,,,,,,,,,,,,,
295630,2022-11-27_21h17.37.094,vts_reward_expectancy_bt,2022.2.4,Win32,59.62673663,Chrome,1920,1080,,,,,0,531,,,,,,,,,,,,,,,,,Y,125,hexagon,1,0,,3,,,,,,,,,,,,,,switch,number,numSwt,j,vtsPrac,2,0,2,0,1,0.8864,,,,,,,,,,,,,,,,,,,,,,,
295630,2022-11-27_21h17.37.094,vts_reward_expectancy_bt,2022.2.4,Win32,59.62673663,Chrome,1920,1080,,,,,0,531,,,,,,,,,,,,,,,,,U,132,circle,1,0,,3,,,,,,,,,,,,,,switch,letter,lettSwt,f,vtsPrac,3,0,3,0,1,1.0014,,,,,,,,,,,,,,,,,,,,,,,
295630,2022-11-27_21h17.37.094,vts_reward_expectancy_bt,2022.2.4,Win32,59.62673663,Chrome,1920,1080,,,,,0,531,,,,,,,,,,,,,,,,,B,167,triangle,1,0,,3,,,,,,,,,,,,,,switch,number,numSwt,k,vtsPrac,4,0,4,0,1,1.3868,,,,,,,,,,,,,,,,,,,,,,,
295630,2022-11-27_21h17.37.094,vts_reward_expectancy_bt,2022.2.4,Win32,59.62673663,Chrome,1920,1080,,,,,0,531,,,,,,,,,,,,,,,,,F,139,star,1,0,,3,,,,,,,,,,,,,,switch,letter,lettSwt,d,vtsPrac,5,0,5,0,1,0.5854,,,,,,,,,,,,,,,,,,,,,,,
295630,2022-11-27_21h17.37.094,vts_reward_expectancy_bt,2022.2.4,Win32,59.62673663,Chrome,1920,1080,,,,,0,531,,,,,,,,,,,,,,,,,Y,125,circle,1,0,,3,,,,,,,,,,,,,,switch,number,numSwt,j,vtsPrac,6,0,6,0,1,0.9254,,,,,,,,,,,,,,,,,,,,,,,
295630,2022-11-27_21h17.37.094,vts_reward_expectancy_bt,2022.2.4,Win32,59.62673663,Chrome,1920,1080,,,,,0,531,,,,,,,,,,,,,,,,,U,132,triangle,1,0,,3,,,,,,,,,,,,,,switch,letter,lettSwt,f,vtsPrac,7,0,7,0,1,0.9529,,,,,,,,,,,,,,,,,,,,,,,
295630,2022-11-27_21h17.37.094,vts_reward_expectancy_bt,2022.2.4,Win32,59.62673663,Chrome,1920,1080,,,,,0,531,,,,,,,,,,,,,,,,,F,132,hexagon,1,0,,3,,,,,,,,,,,,,,switch,number,numSwt,j,vtsPrac,8,0,8,0,1,0.5506,,,,,,,,,,,,,,,,,,,,,,,
295630,2022-11-27_21h17.37.094,vts_reward_expectancy_bt,2022.2.4,Win32,59.62673663,Chrome,1920,1080,,,,,0,531,,,,,,,,,,,,,,,,,Y,125,star,1,0,,3,,,,,,,,,,,,,,switch,letter,lettSwt,f,vtsPrac,9,0,9,0,1,0.5324,,,,,,,,,,,,,,,,,,,,,,,
295630,2022-11-27_21h17.37.094,vts_reward_expectancy_bt,2022.2.4,Win32,59.62673663,Chrome,1920,1080,,,,,0,531,,,,,,,,,,,,,,,,,B,181,hexagon,1,0,,3,,,,,,,,,,,,,,switch,number,numSwt,k,vtsPrac,10,0,10,0,1,0.9886,,,,,,,,,,,,,,,,,,,,,,,
295630,2022-11-27_21h17.37.094,vts_reward_expectancy_bt,2022.2.4,Win32,59.62673663,Chrome,1920,1080,,,,,0,531,,,,,,,,,,,,,,,,,D,174,circle,1,0,,3,,,,,,,,,,,,,,switch,letter,lettSwt,d,vtsPrac,11,0,11,0,1,0.7345,,,,,,,,,,,,,,,,,,,,,,,
295630,2022-11-27_21h17.37.094,vts_reward_expectancy_bt,2022.2.4,Win32,59.62673663,Chrome,1920,1080,,,,,0,531,,,,,,,,,,,,,,,,,S,139,hexagon,1,0,,3,,,,,,,,,,,,,,switch,number,numSwt,j,vtsPrac,12,0,12,0,1,1.2225,,,,,,,,,,,,,,,,,,,,,,,
295630,2022-11-27_21h17.37.094,vts_reward_expectancy_bt,2022.2.4,Win32,59.62673663,Chrome,1920,1080,,,,,0,531,,,,,,,,,,,,,,,,,D,160,star,1,0,,3,,,,,,,,,,,,,,switch,letter,lettSwt,d,vtsPrac,13,0,13,0,1,1.1953,,,,,,,,,,,,,,,,,,,,,,,
295630,2022-11-27_21h17.37.094,vts_reward_expectancy_bt,2022.2.4,Win32,59.62673663,Chrome,1920,1080,,,,,0,531,,,,,,,,,,,,,,,,,U,146,triangle,1,0,,3,,,,,,,,,,,,,,switch,number,numSwt,j,vtsPrac,14,0,14,0,1,1.07,,,,,,,,,,,,,,,,,,,,,,,
295630,2022-11-27_21h17.37.094,vts_reward_expectancy_bt,2022.2.4,Win32,59.62673663,Chrome,1920,1080,,,,,0,531,,,,,,,,,,,,,,,,,Y,132,circle,1,0,,3,,,,,,,,,,,,,,switch,letter,lettSwt,f,vtsPrac,15,0,15,0,1,1.187,,,,,,,,,,,,,,,,,,,,,,,
295630,2022-11-27_21h17.37.094,vts_reward_expectancy_bt,2022.2.4,Win32,59.62673663,Chrome,1920,1080,,,,,0,531,,,,,,,,,,,,,,,,,B,160,hexagon,1,0,,3,,,,,,,,,,,,,,switch,number,numSwt,k,vtsPrac,16,0,16,0,1,0.7516,,,,,,,,,,,,,,,,,,,,,,,
295630,2022-11-27_21h17.37.094,vts_reward_expectancy_bt,2022.2.4,Win32,59.62673663,Chrome,1920,1080,,,,,0,531,,,,,,,,,,,,,,,,,W,132,triangle,1,0,,3,,,,,,,,,,,,,,switch,letter,lettSwt,f,vtsPrac,17,0,17,0,1,0.9368,,,,,,,,,,,,,,,,,,,,,,,
295630,2022-11-27_21h17.37.094,vts_reward_expectancy_bt,2022.2.4,Win32,59.62673663,Chrome,1920,1080,,,,,0,531,,,,,,,,,,,,,,,,,Y,174,hexagon,1,0,,3,,,,,,,,,,,,,,switch,number,numSwt,k,vtsPrac,18,0,18,0,1,0.786,,,,,,,,,,,,,,,,,,,,,,,
295630,2022-11-27_21h17.37.094,vts_reward_expectancy_bt,2022.2.4,Win32,59.62673663,Chrome,1920,1080,,,,,0,531,,,,,,,,,,,,,,,,,U,146,circle,1,0,,3,,,,,,,,,,,,,,switch,letter,lettSwt,f,vtsPrac,19,0,19,0,1,0.8405,,,,,,,,,,,,,,,,,,,,,,,
295630,2022-11-27_21h17.37.094,vts_reward_expectancy_bt,2022.2.4,Win32,59.62673663,Chrome,1920,1080,,,,,0,531,,,,,,,,,,,,,,,,,H,181,star,1,0,,3,,,,,,,,,,,,,,switch,number,numSwt,k,vtsPrac,20,0,20,0,1,0.5835,,,,,,,,,,,,,,,,,,,,,,,
295630,2022-11-27_21h17.37.094,vts_reward_expectancy_bt,2022.2.4,Win32,59.62673663,Chrome,1920,1080,,,,,0,531,,,,,,,,,,,,,,,,,S,160,circle,1,0,,3,,,,,,,,,,,,,,switch,letter,lettSwt,f,vtsPrac,21,0,21,0,1,0.7697,,,,,,,,,,,,,,,,,,,,,,,
295630,2022-11-27_21h17.37.094,vts_reward_expectancy_bt,2022.2.4,Win32,59.62673663,Chrome,1920,1080,,,,,0,531,,,,,,,,,,,,,,,,,F,174,circle,1,0,,3,,,,,,,,,,,,,,switch,number,numSwt,k,vtsPrac,22,0,22,0,1,0.5674,,,,,,,,,,,,,,,,,,,,,,,
295630,2022-11-27_21h17.37.094,vts_reward_expectancy_bt,2022.2.4,Win32,59.62673663,Chrome,1920,1080,,,,,0,531,,,,,,,,,,,,,,,,,D,132,star,1,0,,3,,,,,,,,,,,,,,switch,letter,lettSwt,d,vtsPrac,23,0,23,0,1,0.7364,,,,,,,,,,,,,,,,,,,,,,,
295630,2022-11-27_21h17.37.094,vts_reward_expectancy_bt,2022.2.4,Win32,59.62673663,Chrome,1920,1080,,,,,0,531,,,,,,,,,,,,,,,,,B,132,star,1,0,,3,,,,,,,,,,,,,,switch,number,numSwt,j,vtsPrac,24,0,24,0,1,0.8535,,,,,,,,,,,,,,,,,,,,,,,
295630,2022-11-27_21h17.37.094,vts_reward_expectancy_bt,2022.2.4,Win32,59.62673663,Chrome,1920,1080,,,,,0,531,,,,,,,,,,,,,,,,,D,181,triangle,1,0,,3,,,,,,,,,,,,,,switch,letter,lettSwt,d,vtsPrac,25,0,25,0,1,1.287,,,,,,,,,,,,,,,,,,,,,,,
295630,2022-11-27_21h17.37.094,vts_reward_expectancy_bt,2022.2.4,Win32,59.62673663,Chrome,1920,1080,,,,,0,531,,,,,,,,,,,,,,,,,F,146,triangle,0,0,,3,,,,,,,,,,,,,,switch,number,NA,k,vtsPrac,26,0,26,0,1,0.7861,,,,,,,,,,,,,,,,,,,,,,,
295630,2022-11-27_21h17.37.094,vts_reward_expectancy_bt,2022.2.4,Win32,59.62673663,Chrome,1920,1080,,,,,0,531,,,,,,,,,,,,,,,,,U,139,star,1,1,,3,,,,,,,,,,,,,,switch,letter,lettSwt,f,vtsPrac,27,0,27,0,1,1.2028,,,,,,,,,,,,,,,,,,,,,,,
295630,2022-11-27_21h17.37.094,vts_reward_expectancy_bt,2022.2.4,Win32,59.62673663,Chrome,1920,1080,,,,,0,531,,,,,,,,,,,,,,,,,F,132,star,1,0,,3,,,,,,,,,,,,,,switch,number,numSwt,j,vtsPrac,28,0,28,0,1,1.5533,,,,,,,,,,,,,,,,,,,,,,,
295630,2022-11-27_21h17.37.094,vts_reward_expectancy_bt,2022.2.4,Win32,59.62673663,Chrome,1920,1080,,,,,0,531,,,,,,,,,,,,,,,,,S,160,triangle,1,0,,3,,,,,,,,,,,,,,switch,letter,lettSwt,f,vtsPrac,29,0,29,0,1,0.8189,,,,,,,,,,,,,,,,,,,,,,,
295630,2022-11-27_21h17.37.094,vts_reward_expectancy_bt,2022.2.4,Win32,59.62673663,Chrome,1920,1080,,,,,0,531,,,,,,,,,,,,,,,,,B,139,triangle,1,0,,3,,,,,,,,,,,,,,switch,number,numSwt,j,vtsPrac,30,0,30,0,1,0.8531,,,,,,,,,,,,,,,,,,,,,,,
295630,2022-11-27_21h17.37.094,vts_reward_expectancy_bt,2022.2.4,Win32,59.62673663,Chrome,1920,1080,,,,,0,531,,,,,,,,,,,,,,,,,D,181,hexagon,1,0,,3,,,,,,,,,,,,,,switch,letter,lettSwt,d,vtsPrac,31,0,31,0,1,1.3359,,,,,,,,,,,,,,,,,,,,,,,
295630,2022-11-27_21h17.37.094,vts_reward_expectancy_bt,2022.2.4,Win32,59.62673663,Chrome,1920,1080,,,,,0,531,,,,,,,,,,,,,,,,,D,167,star,1,0,,4,,,,,,,,,,,,,,repeat,letter,lettRpt,d,vtsPrac,0,0,0,0,1,1.3533,,,,,,,,,,,,,,,,,,,,,,,
295630,2022-11-27_21h17.37.094,vts_reward_expectancy_bt,2022.2.4,Win32,59.62673663,Chrome,1920,1080,,,,,0,531,,,,,,,,,,,,,,,,,B,132,circle,1,0,,4,,,,,,,,,,,,,,repeat,letter,lettRpt,d,vtsPrac,1,0,1,0,1,0.674,,,,,,,,,,,,,,,,,,,,,,,
295630,2022-11-27_21h17.37.094,vts_reward_expectancy_bt,2022.2.4,Win32,59.62673663,Chrome,1920,1080,,,,,0,531,,,,,,,,,,,,,,,,,H,139,star,0,0,,4,,,,,,,,,,,,,,switch,number,NA,k,vtsPrac,2,0,2,0,1,1.0184,,,,,,,,,,,,,,,,,,,,,,,
295630,2022-11-27_21h17.37.094,vts_reward_expectancy_bt,2022.2.4,Win32,59.62673663,Chrome,1920,1080,,,,,0,531,,,,,,,,,,,,,,,,,Y,160,circle,1,1,,4,,,,,,,,,,,,,,repeat,number,numRpt,k,vtsPrac,3,0,3,0,1,1.3192,,,,,,,,,,,,,,,,,,,,,,,
295630,2022-11-27_21h17.37.094,vts_reward_expectancy_bt,2022.2.4,Win32,59.62673663,Chrome,1920,1080,,,,,0,531,,,,,,,,,,,,,,,,,D,167,star,1,0,,4,,,,,,,,,,,,,,repeat,number,numRpt,k,vtsPrac,4,0,4,0,1,0.8841,,,,,,,,,,,,,,,,,,,,,,,
295630,2022-11-27_21h17.37.094,vts_reward_expectancy_bt,2022.2.4,Win32,59.62673663,Chrome,1920,1080,,,,,0,531,,,,,,,,,,,,,,,,,B,132,circle,0,0,,4,,,,,,,,,,,,,,repeat,number,NA,k,vtsPrac,5,0,5,0,1,0.6518,,,,,,,,,,,,,,,,,,,,,,,
295630,2022-11-27_21h17.37.094,vts_reward_expectancy_bt,2022.2.4,Win32,59.62673663,Chrome,1920,1080,,,,,0,531,,,,,,,,,,,,,,,,,H,139,hexagon,1,1,,4,,,,,,,,,,,,,,switch,letter,lettSwt,d,vtsPrac,6,0,6,0,1,0.6353,,,,,,,,,,,,,,,,,,,,,,,
295630,2022-11-27_21h17.37.094,vts_reward_expectancy_bt,2022.2.4,Win32,59.62673663,Chrome,1920,1080,,,,,0,531,,,,,,,,,,,,,,,,,Y,160,circle,1,0,,4,,,,,,,,,,,,,,switch,number,numSwt,k,vtsPrac,7,0,7,0,1,0.7348,,,,,,,,,,,,,,,,,,,,,,,
295630,2022-11-27_21h17.37.094,vts_reward_expectancy_bt,2022.2.4,Win32,59.62673663,Chrome,1920,1080,,,,,0,531,,,,,,,,,,,,,,,,,B,146,triangle,1,0,,4,,,,,,,,,,,,,,repeat,number,numRpt,j,vtsPrac,8,0,8,0,1,1.5698,,,,,,,,,,,,,,,,,,,,,,,
295630,2022-11-27_21h17.37.094,vts_reward_expectancy_bt,2022.2.4,Win32,59.62673663,Chrome,1920,1080,,,,,0,531,,,,,,,,,,,,,,,,,W,139,hexagon,1,0,,4,,,,,,,,,,,,,,switch,letter,lettSwt,f,vtsPrac,9,0,9,0,1,1.1351,,,,,,,,,,,,,,,,,,,,,,,
295630,2022-11-27_21h17.37.094,vts_reward_expectancy_bt,2022.2.4,Win32,59.62673663,Chrome,1920,1080,,,,,0,531,,,,,,,,,,,,,,,,,D,167,hexagon,1,0,,4,,,,,,,,,,,,,,repeat,letter,lettRpt,d,vtsPrac,10,0,10,0,1,1.1876,,,,,,,,,,,,,,,,,,,,,,,
295630,2022-11-27_21h17.37.094,vts_reward_expectancy_bt,2022.2.4,Win32,59.62673663,Chrome,1920,1080,,,,,0,531,,,,,,,,,,,,,,,,,H,160,triangle,1,0,,4,,,,,,,,,,,,,,repeat,letter,lettRpt,d,vtsPrac,11,0,11,0,1,0.9852,,,,,,,,,,,,,,,,,,,,,,,
295630,2022-11-27_21h17.37.094,vts_reward_expectancy_bt,2022.2.4,Win32,59.62673663,Chrome,1920,1080,,,,,0,531,,,,,,,,,,,,,,,,,F,181,circle,1,0,,4,,,,,,,,,,,,,,repeat,letter,lettRpt,d,vtsPrac,12,0,12,0,1,0.9417,,,,,,,,,,,,,,,,,,,,,,,
295630,2022-11-27_21h17.37.094,vts_reward_expectancy_bt,2022.2.4,Win32,59.62673663,Chrome,1920,1080,,,,,0,531,,,,,,,,,,,,,,,,,D,146,triangle,1,0,,4,,,,,,,,,,,,,,repeat,letter,lettRpt,d,vtsPrac,13,0,13,0,1,0.6015,,,,,,,,,,,,,,,,,,,,,,,
295630,2022-11-27_21h17.37.094,vts_reward_expectancy_bt,2022.2.4,Win32,59.62673663,Chrome,1920,1080,,,,,0,531,,,,,,,,,,,,,,,,,S,174,hexagon,1,0,,4,,,,,,,,,,,,,,repeat,letter,lettRpt,f,vtsPrac,14,0,14,0,1,0.8084,,,,,,,,,,,,,,,,,,,,,,,
295630,2022-11-27_21h17.37.094,vts_reward_expectancy_bt,2022.2.4,Win32,59.62673663,Chrome,1920,1080,,,,,0,531,,,,,,,,,,,,,,,,,Y,139,star,1,0,,4,,,,,,,,,,,,,,switch,number,numSwt,j,vtsPrac,15,0,15,0,1,0.9736,,,,,,,,,,,,,,,,,,,,,,,
295630,2022-11-27_21h17.37.094,vts_reward_expectancy_bt,2022.2.4,Win32,59.62673663,Chrome,1920,1080,,,,,0,531,,,,,,,,,,,,,,,,,B,146,hexagon,0,0,,4,,,,,,,,,,,,,,repeat,number,NA,k,vtsPrac,16,0,16,0,1,1.0509,,,,,,,,,,,,,,,,,,,,,,,
295630,2022-11-27_21h17.37.094,vts_reward_expectancy_bt,2022.2.4,Win32,59.62673663,Chrome,1920,1080,,,,,0,531,,,,,,,,,,,,,,,,,D,160,triangle,1,1,,4,,,,,,,,,,,,,,repeat,number,numRpt,k,vtsPrac,17,0,17,0,1,0.8188,,,,,,,,,,,,,,,,,,,,,,,
295630,2022-11-27_21h17.37.094,vts_reward_expectancy_bt,2022.2.4,Win32,59.62673663,Chrome,1920,1080,,,,,0,531,,,,,,,,,,,,,,,,,F,167,circle,1,0,,4,,,,,,,,,,,,,,repeat,number,numRpt,k,vtsPrac,18,0,18,0,1,0.7022,,,,,,,,,,,,,,,,,,,,,,,
295630,2022-11-27_21h17.37.094,vts_reward_expectancy_bt,2022.2.4,Win32,59.62673663,Chrome,1920,1080,,,,,0,531,,,,,,,,,,,,,,,,,W,132,triangle,1,0,,4,,,,,,,,,,,,,,repeat,number,numRpt,j,vtsPrac,19,0,19,0,1,1.2853,,,,,,,,,,,,,,,,,,,,,,,
295630,2022-11-27_21h17.37.094,vts_reward_expectancy_bt,2022.2.4,Win32,59.62673663,Chrome,1920,1080,,,,,0,531,,,,,,,,,,,,,,,,,U,174,hexagon,1,0,,4,,,,,,,,,,,,,,repeat,number,numRpt,k,vtsPrac,20,0,20,0,1,1.1373,,,,,,,,,,,,,,,,,,,,,,,
295630,2022-11-27_21h17.37.094,vts_reward_expectancy_bt,2022.2.4,Win32,59.62673663,Chrome,1920,1080,,,,,0,531,,,,,,,,,,,,,,,,,S,132,triangle,1,0,,4,,,,,,,,,,,,,,repeat,number,numRpt,j,vtsPrac,21,0,21,0,1,1.0689,,,,,,,,,,,,,,,,,,,,,,,
295630,2022-11-27_21h17.37.094,vts_reward_expectancy_bt,2022.2.4,Win32,59.62673663,Chrome,1920,1080,,,,,0,531,,,,,,,,,,,,,,,,,B,139,star,1,0,,4,,,,,,,,,,,,,,repeat,number,numRpt,j,vtsPrac,22,0,22,0,1,0.8682,,,,,,,,,,,,,,,,,,,,,,,
295630,2022-11-27_21h17.37.094,vts_reward_expectancy_bt,2022.2.4,Win32,59.62673663,Chrome,1920,1080,,,,,0,531,,,,,,,,,,,,,,,,,Y,125,triangle,1,0,,4,,,,,,,,,,,,,,repeat,number,numRpt,j,vtsPrac,23,0,23,0,1,0.7033,,,,,,,,,,,,,,,,,,,,,,,
295630,2022-11-27_21h17.37.094,vts_reward_expectancy_bt,2022.2.4,Win32,59.62673663,Chrome,1920,1080,,,,,0,531,,,,,,,,,,,,,,,,,W,139,triangle,1,0,,4,,,,,,,,,,,,,,repeat,number,numRpt,j,vtsPrac,24,0,24,0,1,0.6849,,,,,,,,,,,,,,,,,,,,,,,
295630,2022-11-27_21h17.37.094,vts_reward_expectancy_bt,2022.2.4,Win32,59.62673663,Chrome,1920,1080,,,,,0,531,,,,,,,,,,,,,,,,,H,167,circle,1,0,,4,,,,,,,,,,,,,,switch,letter,lettSwt,d,vtsPrac,25,0,25,0,1,1.0362,,,,,,,,,,,,,,,,,,,,,,,
295630,2022-11-27_21h17.37.094,vts_reward_expectancy_bt,2022.2.4,Win32,59.62673663,Chrome,1920,1080,,,,,0,531,,,,,,,,,,,,,,,,,Y,181,circle,0,0,,4,,,,,,,,,,,,,,repeat,letter,NA,d,vtsPrac,26,0,26,0,1,0.9523,,,,,,,,,,,,,,,,,,,,,,,
295630,2022-11-27_21h17.37.094,vts_reward_expectancy_bt,2022.2.4,Win32,59.62673663,Chrome,1920,1080,,,,,0,531,,,,,,,,,,,,,,,,,S,146,triangle,0,1,,4,,,,,,,,,,,,,,switch,number,NA,k,vtsPrac,27,0,27,0,1,1.4408,,,,,,,,,,,,,,,,,,,,,,,
295630,2022-11-27_21h17.37.094,vts_reward_expectancy_bt,2022.2.4,Win32,59.62673663,Chrome,1920,1080,,,,,0,531,,,,,,,,,,,,,,,,,S,167,hexagon,1,1,,4,,,,,,,,,,,,,,switch,letter,lettSwt,f,vtsPrac,28,0,28,0,1,1.3681,,,,,,,,,,,,,,,,,,,,,,,
295630,2022-11-27_21h17.37.094,vts_reward_expectancy_bt,2022.2.4,Win32,59.62673663,Chrome,1920,1080,,,,,0,531,,,,,,,,,,,,,,,,,D,146,circle,1,0,,4,,,,,,,,,,,,,,switch,number,numSwt,j,vtsPrac,29,0,29,0,1,0.9698,,,,,,,,,,,,,,,,,,,,,,,
295630,2022-11-27_21h17.37.094,vts_reward_expectancy_bt,2022.2.4,Win32,59.62673663,Chrome,1920,1080,,,,,0,531,,,,,,,,,,,,,,,,,W,125,hexagon,1,0,,4,,,,,,,,,,,,,,switch,letter,lettSwt,f,vtsPrac,30,0,30,0,1,1.5547,,,,,,,,,,,,,,,,,,,,,,,
295630,2022-11-27_21h17.37.094,vts_reward_expectancy_bt,2022.2.4,Win32,59.62673663,Chrome,1920,1080,,,,,0,531,,,,,,,,,,,,,,,,,H,160,star,1,0,,4,,,,,,,,,,,,,,repeat,letter,lettRpt,d,vtsPrac,31,0,31,0,1,1.5522,,,,,,,,,,,,,,,,,,,,,,,
295630,2022-11-27_21h17.37.094,vts_reward_expectancy_bt,2022.2.4,Win32,59.62673663,Chrome,1920,1080,,,,,,,,,,,,,,,,,,,,,,,,,,,,,,,,,,,,,,,,,,,,,,,,,,,,,,,,,,,,,,,,,,,,,,,,,,,,
295630,2022-11-27_21h17.37.094,vts_reward_expectancy_bt,2022.2.4,Win32,59.62673663,Chrome,1920,1080,,,,,,,,,,,,,,,,,,,,,,,,,,,,,,,,,,,,,,,,,,,,,,,,,,,,,,,,,,,,,,,,,,,,,,,,,,,,
295630,2022-11-27_21h17.37.094,vts_reward_expectancy_bt,2022.2.4,Win32,59.62673663,Chrome,1920,1080,,,,,0,531,,,,,,,,,,,,,,,,,W,174,circle,1,0,,,,,,,,,,,,,,,,repeat,letter,lettRpt,f,noRew,,,,,,0.9024,0,0,0,0,0,1,,,,,,,,,,,,,,,,,
295630,2022-11-27_21h17.37.094,vts_reward_expectancy_bt,2022.2.4,Win32,59.62673663,Chrome,1920,1080,,,,,0,531,,,,,,,,,,,,,,,,,B,125,triangle,1,0,,,,,,,,,,,,,,,,repeat,letter,lettRpt,d,noRew,,,,,,0.6674,0,1,0,1,0,1,,,,,,,,,,,,,,,,,
295630,2022-11-27_21h17.37.094,vts_reward_expectancy_bt,2022.2.4,Win32,59.62673663,Chrome,1920,1080,,,,,0,531,,,,,,,,,,,,,,,,,U,132,circle,1,0,,,,,,,,,,,,,,,,switch,number,numSwt,j,noRew,,,,,,0.9886,0,2,0,2,0,1,,,,,,,,,,,,,,,,,
295630,2022-11-27_21h17.37.094,vts_reward_expectancy_bt,2022.2.4,Win32,59.62673663,Chrome,1920,1080,,,,,0,531,,,,,,,,,,,,,,,,,F,160,triangle,1,0,,,,,,,,,,,,,,,,repeat,number,numRpt,k,noRew,,,,,,0.8177,0,3,0,3,0,1,,,,,,,,,,,,,,,,,
295630,2022-11-27_21h17.37.094,vts_reward_expectancy_bt,2022.2.4,Win32,59.62673663,Chrome,1920,1080,,,,,0,531,,,,,,,,,,,,,,,,,W,174,circle,1,0,,,,,,,,,,,,,,,,switch,letter,lettSwt,f,noRew,,,,,,0.8183,0,4,0,4,0,1,,,,,,,,,,,,,,,,,
295630,2022-11-27_21h17.37.094,vts_reward_expectancy_bt,2022.2.4,Win32,59.62673663,Chrome,1920,1080,,,,,0,531,,,,,,,,,,,,,,,,,B,125,hexagon,1,0,,,,,,,,,,,,,,,,switch,number,numSwt,j,noRew,,,,,,0.8844,0,5,0,5,0,1,,,,,,,,,,,,,,,,,
295630,2022-11-27_21h17.37.094,vts_reward_expectancy_bt,2022.2.4,Win32,59.62673663,Chrome,1920,1080,,,,,0,531,,,,,,,,,,,,,,,,,U,132,circle,1,0,,,,,,,,,,,,,,,,switch,letter,lettSwt,f,noRew,,,,,,0.9183,0,6,0,6,0,1,,,,,,,,,,,,,,,,,
295630,2022-11-27_21h17.37.094,vts_reward_expectancy_bt,2022.2.4,Win32,59.62673663,Chrome,1920,1080,,,,,0,531,,,,,,,,,,,,,,,,,F,160,star,1,0,,,,,,,,,,,,,,,,repeat,letter,lettRpt,d,noRew,,,,,,1.1717,0,7,0,7,0,1,,,,,,,,,,,,,,,,,
295630,2022-11-27_21h17.37.094,vts_reward_expectancy_bt,2022.2.4,Win32,59.62673663,Chrome,1920,1080,,,,,0,531,,,,,,,,,,,,,,,,,W,132,hexagon,1,0,,,,,,,,,,,,,,,,repeat,letter,lettRpt,f,noRew,,,,,,0.6347,0,8,0,8,0,1,,,,,,,,,,,,,,,,,
295630,2022-11-27_21h17.37.094,vts_reward_expectancy_bt,2022.2.4,Win32,59.62673663,Chrome,1920,1080,,,,,0,531,,,,,,,,,,,,,,,,,F,125,star,1,0,,,,,,,,,,,,,,,,repeat,letter,lettRpt,d,noRew,,,,,,0.9027,0,9,0,9,0,1,,,,,,,,,,,,,,,,,
295630,2022-11-27_21h17.37.094,vts_reward_expectancy_bt,2022.2.4,Win32,59.62673663,Chrome,1920,1080,,,,,0,531,,,,,,,,,,,,,,,,,H,167,hexagon,1,0,,,,,,,,,,,,,,,,repeat,letter,lettRpt,d,noRew,,,,,,0.7541,0,10,0,10,0,1,,,,,,,,,,,,,,,,,
295630,2022-11-27_21h17.37.094,vts_reward_expectancy_bt,2022.2.4,Win32,59.62673663,Chrome,1920,1080,,,,,0,531,,,,,,,,,,,,,,,,,Y,160,circle,1,0,,,,,,,,,,,,,,,,switch,number,numSwt,k,noRew,,,,,,0.937,0,11,0,11,0,1,,,,,,,,,,,,,,,,,
295630,2022-11-27_21h17.37.094,vts_reward_expectancy_bt,2022.2.4,Win32,59.62673663,Chrome,1920,1080,,,,,0,531,,,,,,,,,,,,,,,,,Y,125,circle,1,0,,,,,,,,,,,,,,,,repeat,number,numRpt,j,noRew,,,,,,1.0023,0,12,0,12,0,1,,,,,,,,,,,,,,,,,
295630,2022-11-27_21h17.37.094,vts_reward_expectancy_bt,2022.2.4,Win32,59.62673663,Chrome,1920,1080,,,,,0,531,,,,,,,,,,,,,,,,,B,181,triangle,1,0,,,,,,,,,,,,,,,,repeat,number,numRpt,k,noRew,,,,,,0.8365,0,13,0,13,0,1,,,,,,,,,,,,,,,,,
295630,2022-11-27_21h17.37.094,vts_reward_expectancy_bt,2022.2.4,Win32,59.62673663,Chrome,1920,1080,,,,,0,531,,,,,,,,,,,,,,,,,H,139,star,0,0,,,,,,,,,,,,,,,,repeat,number,NA,k,noRew,,,,,,0.7248,0,14,0,14,0,1,,,,,,,,,,,,,,,,,
295630,2022-11-27_21h17.37.094,vts_reward_expectancy_bt,2022.2.4,Win32,59.62673663,Chrome,1920,1080,,,,,0,531,,,,,,,,,,,,,,,,,F,160,circle,1,1,,,,,,,,,,,,,,,,repeat,number,numRpt,k,noRew,,,,,,0.8891,0,15,0,15,0,1,,,,,,,,,,,,,,,,,
295630,2022-11-27_21h17.37.094,vts_reward_expectancy_bt,2022.2.4,Win32,59.62673663,Chrome,1920,1080,,,,,0,531,,,,,,,,,,,,,,,,,W,132,triangle,1,0,,,,,,,,,,,,,,,,repeat,number,numRpt,j,noRew,,,,,,0.8052,0,16,0,16,0,1,,,,,,,,,,,,,,,,,
295630,2022-11-27_21h17.37.094,vts_reward_expectancy_bt,2022.2.4,Win32,59.62673663,Chrome,1920,1080,,,,,0,531,,,,,,,,,,,,,,,,,B,174,star,1,0,,,,,,,,,,,,,,,,repeat,number,numRpt,k,noRew,,,,,,1.4373,0,17,0,17,0,1,,,,,,,,,,,,,,,,,
295630,2022-11-27_21h17.37.094,vts_reward_expectancy_bt,2022.2.4,Win32,59.62673663,Chrome,1920,1080,,,,,0,531,,,,,,,,,,,,,,,,,U,181,triangle,1,0,,,,,,,,,,,,,,,,repeat,number,numRpt,k,noRew,,,,,,1.1693,0,18,0,18,0,1,,,,,,,,,,,,,,,,,
295630,2022-11-27_21h17.37.094,vts_reward_expectancy_bt,2022.2.4,Win32,59.62673663,Chrome,1920,1080,,,,,0,531,,,,,,,,,,,,,,,,,H,139,star,1,0,,,,,,,,,,,,,,,,repeat,number,numRpt,j,noRew,,,,,,1.538,0,19,0,19,0,1,,,,,,,,,,,,,,,,,
295630,2022-11-27_21h17.37.094,vts_reward_expectancy_bt,2022.2.4,Win32,59.62673663,Chrome,1920,1080,,,,,0,531,,,,,,,,,,,,,,,,,S,146,triangle,1,0,,,,,,,,,,,,,,,,repeat,number,numRpt,j,noRew,,,,,,0.8565,0,20,0,20,0,1,,,,,,,,,,,,,,,,,
295630,2022-11-27_21h17.37.094,vts_reward_expectancy_bt,2022.2.4,Win32,59.62673663,Chrome,1920,1080,,,,,0,531,,,,,,,,,,,,,,,,,U,160,hexagon,1,0,,,,,,,,,,,,,,,,repeat,number,numRpt,k,noRew,,,,,,0.7363,0,21,0,21,0,1,,,,,,,,,,,,,,,,,
295630,2022-11-27_21h17.37.094,vts_reward_expectancy_bt,2022.2.4,Win32,59.62673663,Chrome,1920,1080,,,,,0,531,,,,,,,,,,,,,,,,,Y,139,triangle,1,0,,,,,,,,,,,,,,,,switch,letter,lettSwt,f,noRew,,,,,,0.7179,0,22,0,22,0,1,,,,,,,,,,,,,,,,,
295630,2022-11-27_21h17.37.094,vts_reward_expectancy_bt,2022.2.4,Win32,59.62673663,Chrome,1920,1080,,,,,0,531,,,,,,,,,,,,,,,,,F,125,star,1,0,,,,,,,,,,,,,,,,repeat,letter,lettRpt,d,noRew,,,,,,0.854,0,23,0,23,0,1,,,,,,,,,,,,,,,,,
295630,2022-11-27_21h17.37.094,vts_reward_expectancy_bt,2022.2.4,Win32,59.62673663,Chrome,1920,1080,,,,,0,531,,,,,,,,,,,,,,,,,D,125,circle,1,0,,,,,,,,,,,,,,,,repeat,letter,lettRpt,d,noRew,,,,,,1.1197,0,24,0,24,0,1,,,,,,,,,,,,,,,,,
295630,2022-11-27_21h17.37.094,vts_reward_expectancy_bt,2022.2.4,Win32,59.62673663,Chrome,1920,1080,,,,,0,531,,,,,,,,,,,,,,,,,U,139,hexagon,1,0,,,,,,,,,,,,,,,,repeat,letter,lettRpt,f,noRew,,,,,,1.2712,0,25,0,25,0,1,,,,,,,,,,,,,,,,,
295630,2022-11-27_21h17.37.094,vts_reward_expectancy_bt,2022.2.4,Win32,59.62673663,Chrome,1920,1080,,,,,0,531,,,,,,,,,,,,,,,,,B,132,triangle,1,0,,,,,,,,,,,,,,,,repeat,letter,lettRpt,d,noRew,,,,,,0.7021,0,26,0,26,0,1,,,,,,,,,,,,,,,,,
295630,2022-11-27_21h17.37.094,vts_reward_expectancy_bt,2022.2.4,Win32,59.62673663,Chrome,1920,1080,,,,,0,531,,,,,,,,,,,,,,,,,H,181,hexagon,1,0,,,,,,,,,,,,,,,,repeat,letter,lettRpt,d,noRew,,,,,,1.3359,0,27,0,27,0,1,,,,,,,,,,,,,,,,,
295630,2022-11-27_21h17.37.094,vts_reward_expectancy_bt,2022.2.4,Win32,59.62673663,Chrome,1920,1080,,,,,0,531,,,,,,,,,,,,,,,,,F,160,triangle,1,0,,,,,,,,,,,,,,,,repeat,letter,lettRpt,d,noRew,,,,,,1.5935,0,28,0,28,0,1,,,,,,,,,,,,,,,,,
295630,2022-11-27_21h17.37.094,vts_reward_expectancy_bt,2022.2.4,Win32,59.62673663,Chrome,1920,1080,,,,,0,531,,,,,,,,,,,,,,,,,U,132,circle,1,0,,,,,,,,,,,,,,,,repeat,letter,lettRpt,f,noRew,,,,,,0.9688,0,29,0,29,0,1,,,,,,,,,,,,,,,,,
295630,2022-11-27_21h17.37.094,vts_reward_expectancy_bt,2022.2.4,Win32,59.62673663,Chrome,1920,1080,,,,,0,531,,,,,,,,,,,,,,,,,D,181,triangle,0,0,,,,,,,,,,,,,,,,repeat,letter,NA,f,noRew,,,,,,0.8522,0,30,0,30,0,1,,,,,,,,,,,,,,,,,
295630,2022-11-27_21h17.37.094,vts_reward_expectancy_bt,2022.2.4,Win32,59.62673663,Chrome,1920,1080,,,,,0,531,,,,,,,,,,,,,,,,,Y,146,circle,1,1,,,,,,,,,,,,,,,,repeat,letter,lettRpt,f,noRew,,,,,,0.8728,0,31,0,31,0,1,,,,,,,,,,,,,,,,,
295630,2022-11-27_21h17.37.094,vts_reward_expectancy_bt,2022.2.4,Win32,59.62673663,Chrome,1920,1080,,,,,0,531,,,,,,,,,,,,,,,,,D,132,circle,1,0,,,,,,,,,,,,,,,,repeat,letter,lettRpt,d,noRew,,,,,,1.0685,0,32,0,32,0,1,,,,,,,,,,,,,,,,,
295630,2022-11-27_21h17.37.094,vts_reward_expectancy_bt,2022.2.4,Win32,59.62673663,Chrome,1920,1080,,,,,0,531,,,,,,,,,,,,,,,,,Y,146,star,1,0,,,,,,,,,,,,,,,,repeat,letter,lettRpt,f,noRew,,,,,,1.2733,0,33,0,33,0,1,,,,,,,,,,,,,,,,,
295630,2022-11-27_21h17.37.094,vts_reward_expectancy_bt,2022.2.4,Win32,59.62673663,Chrome,1920,1080,,,,,0,531,,,,,,,,,,,,,,,,,W,167,circle,1,0,,,,,,,,,,,,,,,,repeat,letter,lettRpt,f,noRew,,,,,,0.7355,0,34,0,34,0,1,,,,,,,,,,,,,,,,,
295630,2022-11-27_21h17.37.094,vts_reward_expectancy_bt,2022.2.4,Win32,59.62673663,Chrome,1920,1080,,,,,0,531,,,,,,,,,,,,,,,,,S,125,star,1,0,,,,,,,,,,,,,,,,switch,number,numSwt,j,noRew,,,,,,0.6699,0,35,0,35,0,1,,,,,,,,,,,,,,,,,
295630,2022-11-27_21h17.37.094,vts_reward_expectancy_bt,2022.2.4,Win32,59.62673663,Chrome,1920,1080,,,,,0,531,,,,,,,,,,,,,,,,,Y,139,triangle,1,0,,,,,,,,,,,,,,,,repeat,number,numRpt,j,noRew,,,,,,0.8872,0,36,0,36,0,1,,,,,,,,,,,,,,,,,
295630,2022-11-27_21h17.37.094,vts_reward_expectancy_bt,2022.2.4,Win32,59.62673663,Chrome,1920,1080,,,,,0,531,,,,,,,,,,,,,,,,,S,160,circle,1,0,,,,,,,,,,,,,,,,repeat,number,numRpt,k,noRew,,,,,,0.8693,0,37,0,37,0,1,,,,,,,,,,,,,,,,,
295630,2022-11-27_21h17.37.094,vts_reward_expectancy_bt,2022.2.4,Win32,59.62673663,Chrome,1920,1080,,,,,0,531,,,,,,,,,,,,,,,,,D,132,circle,1,0,,,,,,,,,,,,,,,,repeat,number,numRpt,j,noRew,,,,,,1.6207,0,38,0,38,0,1,,,,,,,,,,,,,,,,,
295630,2022-11-27_21h17.37.094,vts_reward_expectancy_bt,2022.2.4,Win32,59.62673663,Chrome,1920,1080,,,,,0,531,,,,,,,,,,,,,,,,,F,167,star,1,0,,,,,,,,,,,,,,,,repeat,number,numRpt,k,noRew,,,,,,0.936,0,39,0,39,0,1,,,,,,,,,,,,,,,,,
295630,2022-11-27_21h17.37.094,vts_reward_expectancy_bt,2022.2.4,Win32,59.62673663,Chrome,1920,1080,,,,,0,531,,,,,,,,,,,,,,,,,W,125,circle,1,0,,,,,,,,,,,,,,,,repeat,number,numRpt,j,noRew,,,,,,0.6191,0,40,0,40,0,1,,,,,,,,,,,,,,,,,
295630,2022-11-27_21h17.37.094,vts_reward_expectancy_bt,2022.2.4,Win32,59.62673663,Chrome,1920,1080,,,,,0,531,,,,,,,,,,,,,,,,,Y,174,hexagon,1,0,,,,,,,,,,,,,,,,repeat,number,numRpt,k,noRew,,,,,,0.7038,0,41,0,41,0,1,,,,,,,,,,,,,,,,,
295630,2022-11-27_21h17.37.094,vts_reward_expectancy_bt,2022.2.4,Win32,59.62673663,Chrome,1920,1080,,,,,0,531,,,,,,,,,,,,,,,,,B,167,circle,1,0,,,,,,,,,,,,,,,,repeat,number,numRpt,k,noRew,,,,,,1.0354,0,42,0,42,0,1,,,,,,,,,,,,,,,,,
295630,2022-11-27_21h17.37.094,vts_reward_expectancy_bt,2022.2.4,Win32,59.62673663,Chrome,1920,1080,,,,,0,531,,,,,,,,,,,,,,,,,D,181,star,1,0,,,,,,,,,,,,,,,,repeat,number,numRpt,k,noRew,,,,,,1.3216,0,43,0,43,0,1,,,,,,,,,,,,,,,,,
295630,2022-11-27_21h17.37.094,vts_reward_expectancy_bt,2022.2.4,Win32,59.62673663,Chrome,1920,1080,,,,,0,531,,,,,,,,,,,,,,,,,F,125,star,1,0,,,,,,,,,,,,,,,,repeat,number,numRpt,j,noRew,,,,,,0.7188,0,44,0,44,0,1,,,,,,,,,,,,,,,,,
295630,2022-11-27_21h17.37.094,vts_reward_expectancy_bt,2022.2.4,Win32,59.62673663,Chrome,1920,1080,,,,,0,531,,,,,,,,,,,,,,,,,D,146,circle,1,0,,,,,,,,,,,,,,,,repeat,number,numRpt,j,noRew,,,,,,1.5203,0,45,0,45,0,1,,,,,,,,,,,,,,,,,
295630,2022-11-27_21h17.37.094,vts_reward_expectancy_bt,2022.2.4,Win32,59.62673663,Chrome,1920,1080,,,,,0,531,,,,,,,,,,,,,,,,,S,174,hexagon,1,0,,,,,,,,,,,,,,,,switch,letter,lettSwt,f,noRew,,,,,,0.9184,0,46,0,46,0,1,,,,,,,,,,,,,,,,,
295630,2022-11-27_21h17.37.094,vts_reward_expectancy_bt,2022.2.4,Win32,59.62673663,Chrome,1920,1080,,,,,0,531,,,,,,,,,,,,,,,,,W,160,circle,1,0,,,,,,,,,,,,,,,,repeat,letter,lettRpt,f,noRew,,,,,,0.6461,0,47,0,47,0,1,,,,,,,,,,,,,,,,,
295630,2022-11-27_21h17.37.094,vts_reward_expectancy_bt,2022.2.4,Win32,59.62673663,Chrome,1920,1080,,,,,0,531,,,,,,,,,,,,,,,,,H,139,circle,1,0,,,,,,,,,,,,,,,,repeat,letter,lettRpt,d,noRew,,,,,,0.804,0,48,0,48,0,1,,,,,,,,,,,,,,,,,
295630,2022-11-27_21h17.37.094,vts_reward_expectancy_bt,2022.2.4,Win32,59.62673663,Chrome,1920,1080,,,,,0,531,,,,,,,,,,,,,,,,,Y,146,star,1,0,,,,,,,,,,,,,,,,repeat,letter,lettRpt,f,noRew,,,,,,0.7382,0,49,0,49,0,1,,,,,,,,,,,,,,,,,
295630,2022-11-27_21h17.37.094,vts_reward_expectancy_bt,2022.2.4,Win32,59.62673663,Chrome,1920,1080,,,,,0,531,,,,,,,,,,,,,,,,,F,181,triangle,1,0,,,,,,,,,,,,,,,,repeat,letter,lettRpt,d,noRew,,,,,,0.9022,0,50,0,50,0,1,,,,,,,,,,,,,,,,,
295630,2022-11-27_21h17.37.094,vts_reward_expectancy_bt,2022.2.4,Win32,59.62673663,Chrome,1920,1080,,,,,0,531,,,,,,,,,,,,,,,,,W,125,circle,1,0,,,,,,,,,,,,,,,,repeat,letter,lettRpt,f,noRew,,,,,,1.0523,0,51,0,51,0,1,,,,,,,,,,,,,,,,,
295630,2022-11-27_21h17.37.094,vts_reward_expectancy_bt,2022.2.4,Win32,59.62673663,Chrome,1920,1080,,,,,0,531,,,,,,,,,,,,,,,,,F,139,triangle,1,0,,,,,,,,,,,,,,,,repeat,letter,lettRpt,d,noRew,,,,,,1.2534,0,52,0,52,0,1,,,,,,,,,,,,,,,,,
295630,2022-11-27_21h17.37.094,vts_reward_expectancy_bt,2022.2.4,Win32,59.62673663,Chrome,1920,1080,,,,,0,531,,,,,,,,,,,,,,,,,D,125,hexagon,1,0,,,,,,,,,,,,,,,,repeat,letter,lettRpt,d,noRew,,,,,,0.8534,0,53,0,53,0,1,,,,,,,,,,,,,,,,,
295630,2022-11-27_21h17.37.094,vts_reward_expectancy_bt,2022.2.4,Win32,59.62673663,Chrome,1920,1080,,,,,0,531,,,,,,,,,,,,,,,,,U,160,circle,1,0,,,,,,,,,,,,,,,,repeat,letter,lettRpt,f,noRew,,,,,,1.2702,0,54,0,54,0,1,,,,,,,,,,,,,,,,,
295630,2022-11-27_21h17.37.094,vts_reward_expectancy_bt,2022.2.4,Win32,59.62673663,Chrome,1920,1080,,,,,0,531,,,,,,,,,,,,,,,,,Y,181,star,1,0,,,,,,,,,,,,,,,,repeat,letter,lettRpt,f,noRew,,,,,,1.6199,0,55,0,55,0,1,,,,,,,,,,,,,,,,,
295630,2022-11-27_21h17.37.094,vts_reward_expectancy_bt,2022.2.4,Win32,59.62673663,Chrome,1920,1080,,,,,0,531,,,,,,,,,,,,,,,,,H,139,hexagon,1,0,,,,,,,,,,,,,,,,repeat,letter,lettRpt,d,noRew,,,,,,0.8176,0,56,0,56,0,1,,,,,,,,,,,,,,,,,
295630,2022-11-27_21h17.37.094,vts_reward_expectancy_bt,2022.2.4,Win32,59.62673663,Chrome,1920,1080,,,,,0,531,,,,,,,,,,,,,,,,,Y,132,circle,1,0,,,,,,,,,,,,,,,,repeat,letter,lettRpt,f,noRew,,,,,,0.6524,0,57,0,57,0,1,,,,,,,,,,,,,,,,,
295630,2022-11-27_21h17.37.094,vts_reward_expectancy_bt,2022.2.4,Win32,59.62673663,Chrome,1920,1080,,,,,0,531,,,,,,,,,,,,,,,,,D,167,circle,1,0,,,,,,,,,,,,,,,,repeat,letter,lettRpt,d,noRew,,,,,,0.702,0,58,0,58,0,1,,,,,,,,,,,,,,,,,
295630,2022-11-27_21h17.37.094,vts_reward_expectancy_bt,2022.2.4,Win32,59.62673663,Chrome,1920,1080,,,,,0,531,,,,,,,,,,,,,,,,,S,160,triangle,0,0,,,,,,,,,,,,,,,,repeat,letter,NA,d,noRew,,,,,,1.8205,0,59,0,59,0,1,,,,,,,,,,,,,,,,,
295630,2022-11-27_21h17.37.094,vts_reward_expectancy_bt,2022.2.4,Win32,59.62673663,Chrome,1920,1080,,,,,0,531,,,,,,,,,,,,,,,,,S,125,hexagon,1,1,,,,,,,,,,,,,,,,repeat,letter,lettRpt,f,noRew,,,,,,0.67,0,60,0,60,0,1,,,,,,,,,,,,,,,,,
295630,2022-11-27_21h17.37.094,vts_reward_expectancy_bt,2022.2.4,Win32,59.62673663,Chrome,1920,1080,,,,,0,531,,,,,,,,,,,,,,,,,Y,160,star,1,0,,,,,,,,,,,,,,,,repeat,letter,lettRpt,f,noRew,,,,,,1.5695,0,61,0,61,0,1,,,,,,,,,,,,,,,,,
295630,2022-11-27_21h17.37.094,vts_reward_expectancy_bt,2022.2.4,Win32,59.62673663,Chrome,1920,1080,,,,,0,531,,,,,,,,,,,,,,,,,H,146,star,1,0,,,,,,,,,,,,,,,,switch,number,numSwt,j,noRew,,,,,,1.1535,0,62,0,62,0,1,,,,,,,,,,,,,,,,,
295630,2022-11-27_21h17.37.094,vts_reward_expectancy_bt,2022.2.4,Win32,59.62673663,Chrome,1920,1080,,,,,0,531,,,,,,,,,,,,,,,,,F,132,circle,1,0,,,,,,,,,,,,,,,,repeat,number,numRpt,j,noRew,,,,,,1.1526,0,63,0,63,0,1,,,,,,,,,,,,,,,,,
295630,2022-11-27_21h17.37.094,vts_reward_expectancy_bt,2022.2.4,Win32,59.62673663,Chrome,1920,1080,,,,,,,,,,,,,,,,,,,,,,,,,,,,,,,,,,,,,,,,,,,,,,,,,,,,,,,,,,,,,,,,,,,,,,,,,,,,
295630,2022-11-27_21h17.37.094,vts_reward_expectancy_bt,2022.2.4,Win32,59.62673663,Chrome,1920,1080,,,,,10,541,,,,,,,,,,,,,,,,,B,125,triangle,1,0,,,,,,,,,,,,,,,,switch,letter,lettSwt,d,Lo,,,,,,1.1851,0,,,,,,space,9.356,low,0,0,0,0,1,,,,,,,,,
295630,2022-11-27_21h17.37.094,vts_reward_expectancy_bt,2022.2.4,Win32,59.62673663,Chrome,1920,1080,,,,,1,542,,,,,,,,,,,,,,,,,D,181,hexagon,1,0,,,,,,,,,,,,,,,,switch,number,numSwt,k,Lo,,,,,,0.7532,0,,,,,,,,low,1,0,1,0,1,,,,,,,,,
295630,2022-11-27_21h17.37.094,vts_reward_expectancy_bt,2022.2.4,Win32,59.62673663,Chrome,1920,1080,,,,,10,552,,,,,,,,,,,,,,,,,S,167,star,1,0,,,,,,,,,,,,,,,,switch,letter,lettSwt,f,Hi,,,,,,0.6844,0,,,,,,,,low,2,0,2,0,1,,,,,,,,,
295630,2022-11-27_21h17.37.094,vts_reward_expectancy_bt,2022.2.4,Win32,59.62673663,Chrome,1920,1080,,,,,0,552,,,,,,,,,,,,,,,,,Y,146,circle,1,0,,,,,,,,,,,,,,,,repeat,letter,lettRpt,f,Hi,,,,,,1.3362,0,,,,,,,,low,3,0,3,0,1,,,,,,,,,
295630,2022-11-27_21h17.37.094,vts_reward_expectancy_bt,2022.2.4,Win32,59.62673663,Chrome,1920,1080,,,,,1,553,,,,,,,,,,,,,,,,,H,139,triangle,1,0,,,,,,,,,,,,,,,,repeat,letter,lettRpt,d,Lo,,,,,,0.585,0,,,,,,,,low,4,0,4,0,1,,,,,,,,,
295630,2022-11-27_21h17.37.094,vts_reward_expectancy_bt,2022.2.4,Win32,59.62673663,Chrome,1920,1080,,,,,10,563,,,,,,,,,,,,,,,,,W,174,hexagon,1,0,,,,,,,,,,,,,,,,switch,number,numSwt,k,Lo,,,,,,0.7689,0,,,,,,,,low,5,0,5,0,1,,,,,,,,,
295630,2022-11-27_21h17.37.094,vts_reward_expectancy_bt,2022.2.4,Win32,59.62673663,Chrome,1920,1080,,,,,10,573,,,,,,,,,,,,,,,,,F,160,star,1,0,,,,,,,,,,,,,,,,repeat,number,numRpt,k,Hi,,,,,,0.702,0,,,,,,,,low,6,0,6,0,1,,,,,,,,,
295630,2022-11-27_21h17.37.094,vts_reward_expectancy_bt,2022.2.4,Win32,59.62673663,Chrome,1920,1080,,,,,10,583,,,,,,,,,,,,,,,,,U,132,circle,1,0,,,,,,,,,,,,,,,,repeat,number,numRpt,j,Hi,,,,,,0.6556,0,,,,,,,,low,7,0,7,0,1,,,,,,,,,
295630,2022-11-27_21h17.37.094,vts_reward_expectancy_bt,2022.2.4,Win32,59.62673663,Chrome,1920,1080,,,,,1,584,,,,,,,,,,,,,,,,,B,125,triangle,1,0,,,,,,,,,,,,,,,,repeat,number,numRpt,j,Lo,,,,,,0.8066,0,,,,,,,,low,8,0,8,0,1,,,,,,,,,
295630,2022-11-27_21h17.37.094,vts_reward_expectancy_bt,2022.2.4,Win32,59.62673663,Chrome,1920,1080,,,,,10,594,,,,,,,,,,,,,,,,,D,181,circle,1,0,,,,,,,,,,,,,,,,repeat,number,numRpt,k,Hi,,,,,,0.701,0,,,,,,,,low,9,0,9,0,1,,,,,,,,,
295630,2022-11-27_21h17.37.094,vts_reward_expectancy_bt,2022.2.4,Win32,59.62673663,Chrome,1920,1080,,,,,1,595,,,,,,,,,,,,,,,,,S,167,hexagon,1,0,,,,,,,,,,,,,,,,switch,letter,lettSwt,f,Lo,,,,,,0.6027,0,,,,,,,,low,10,0,10,0,1,,,,,,,,,
295630,2022-11-27_21h17.37.094,vts_reward_expectancy_bt,2022.2.4,Win32,59.62673663,Chrome,1920,1080,,,,,0,595,,,,,,,,,,,,,,,,,Y,146,star,0,0,,,,,,,,,,,,,,,,repeat,letter,NA,d,Lo,,,,,,1.4705,0,,,,,,,,low,11,0,11,0,1,,,,,,,,,
295630,2022-11-27_21h17.37.094,vts_reward_expectancy_bt,2022.2.4,Win32,59.62673663,Chrome,1920,1080,,,,,1,596,,,,,,,,,,,,,,,,,H,139,hexagon,1,1,,,,,,,,,,,,,,,,repeat,letter,lettRpt,d,Lo,,,,,,0.7344,0,,,,,,,,low,12,0,12,0,1,,,,,,,,,
295630,2022-11-27_21h17.37.094,vts_reward_expectancy_bt,2022.2.4,Win32,59.62673663,Chrome,1920,1080,,,,,0,596,,,,,,,,,,,,,,,,,W,174,circle,1,0,,,,,,,,,,,,,,,,repeat,letter,lettRpt,f,Hi,,,,,,1.0356,0,,,,,,,,low,13,0,13,0,1,,,,,,,,,
295630,2022-11-27_21h17.37.094,vts_reward_expectancy_bt,2022.2.4,Win32,59.62673663,Chrome,1920,1080,,,,,0,596,,,,,,,,,,,,,,,,,F,160,star,0,0,,,,,,,,,,,,,,,,repeat,letter,NA,f,Hi,,,,,,1.0719,0,,,,,,,,low,14,0,14,0,1,,,,,,,,,
295630,2022-11-27_21h17.37.094,vts_reward_expectancy_bt,2022.2.4,Win32,59.62673663,Chrome,1920,1080,,,,,10,606,,,,,,,,,,,,,,,,,U,132,triangle,1,1,,,,,,,,,,,,,,,,repeat,letter,lettRpt,f,Lo,,,,,,0.7705,0,,,,,,,,low,15,0,15,0,1,,,,,,,,,
295630,2022-11-27_21h17.37.094,vts_reward_expectancy_bt,2022.2.4,Win32,59.62673663,Chrome,1920,1080,,,,,10,616,,,,,,,,,,,,,,,,,Y,139,star,1,0,,,,,,,,,,,,,,,,repeat,letter,lettRpt,f,Hi,,,,,,0.6684,0,,,,,,,,low,16,0,16,0,1,,,,,,,,,
295630,2022-11-27_21h17.37.094,vts_reward_expectancy_bt,2022.2.4,Win32,59.62673663,Chrome,1920,1080,,,,,0,616,,,,,,,,,,,,,,,,,S,125,circle,1,0,,,,,,,,,,,,,,,,repeat,letter,lettRpt,f,Hi,,,,,,1.235,0,,,,,,,,low,17,0,17,0,1,,,,,,,,,
295630,2022-11-27_21h17.37.094,vts_reward_expectancy_bt,2022.2.4,Win32,59.62673663,Chrome,1920,1080,,,,,10,626,,,,,,,,,,,,,,,,,H,167,hexagon,1,0,,,,,,,,,,,,,,,,switch,number,numSwt,k,Lo,,,,,,0.8358,0,,,,,,,,low,18,0,18,0,1,,,,,,,,,
295630,2022-11-27_21h17.37.094,vts_reward_expectancy_bt,2022.2.4,Win32,59.62673663,Chrome,1920,1080,,,,,1,627,,,,,,,,,,,,,,,,,U,160,triangle,1,0,,,,,,,,,,,,,,,,repeat,number,numRpt,k,Lo,,,,,,0.5516,0,,,,,,,,low,19,0,19,0,1,,,,,,,,,
295630,2022-11-27_21h17.37.094,vts_reward_expectancy_bt,2022.2.4,Win32,59.62673663,Chrome,1920,1080,,,,,10,637,,,,,,,,,,,,,,,,,D,132,triangle,1,0,,,,,,,,,,,,,,,,repeat,number,numRpt,j,Lo,,,,,,0.7504,0,,,,,,,,low,20,0,20,0,1,,,,,,,,,
295630,2022-11-27_21h17.37.094,vts_reward_expectancy_bt,2022.2.4,Win32,59.62673663,Chrome,1920,1080,,,,,10,647,,,,,,,,,,,,,,,,,F,146,hexagon,1,0,,,,,,,,,,,,,,,,repeat,number,numRpt,j,Lo,,,,,,0.8861,0,,,,,,,,low,21,0,21,0,1,,,,,,,,,
295630,2022-11-27_21h17.37.094,vts_reward_expectancy_bt,2022.2.4,Win32,59.62673663,Chrome,1920,1080,,,,,10,657,,,,,,,,,,,,,,,,,W,181,star,1,0,,,,,,,,,,,,,,,,repeat,number,numRpt,k,Hi,,,,,,0.8363,0,,,,,,,,low,22,0,22,0,1,,,,,,,,,
295630,2022-11-27_21h17.37.094,vts_reward_expectancy_bt,2022.2.4,Win32,59.62673663,Chrome,1920,1080,,,,,0,657,,,,,,,,,,,,,,,,,B,174,circle,0,0,,,,,,,,,,,,,,,,repeat,number,NA,j,Hi,,,,,,1.1026,0,,,,,,,,low,23,0,23,0,1,,,,,,,,,
295630,2022-11-27_21h17.37.094,vts_reward_expectancy_bt,2022.2.4,Win32,59.62673663,Chrome,1920,1080,,,,,1,658,,,,,,,,,,,,,,,,,F,174,star,1,1,,,,,,,,,,,,,,,,repeat,number,numRpt,k,Hi,,,,,,0.8034,0,,,,,,,,low,24,0,24,0,1,,,,,,,,,
295630,2022-11-27_21h17.37.094,vts_reward_expectancy_bt,2022.2.4,Win32,59.62673663,Chrome,1920,1080,,,,,10,668,,,,,,,,,,,,,,,,,U,146,triangle,1,0,,,,,,,,,,,,,,,,repeat,number,numRpt,j,Lo,,,,,,1.4703,0,,,,,,,,low,25,0,25,0,1,,,,,,,,,
295630,2022-11-27_21h17.37.094,vts_reward_expectancy_bt,2022.2.4,Win32,59.62673663,Chrome,1920,1080,,,,,1,669,,,,,,,,,,,,,,,,,H,181,circle,1,0,,,,,,,,,,,,,,,,repeat,number,numRpt,k,Hi,,,,,,0.7856,0,,,,,,,,low,26,0,26,0,1,,,,,,,,,
295630,2022-11-27_21h17.37.094,vts_reward_expectancy_bt,2022.2.4,Win32,59.62673663,Chrome,1920,1080,,,,,1,670,,,,,,,,,,,,,,,,,W,139,hexagon,1,0,,,,,,,,,,,,,,,,repeat,number,numRpt,j,Lo,,,,,,0.7052,0,,,,,,,,low,27,0,27,0,1,,,,,,,,,
295630,2022-11-27_21h17.37.094,vts_reward_expectancy_bt,2022.2.4,Win32,59.62673663,Chrome,1920,1080,,,,,0,670,,,,,,,,,,,,,,,,,B,167,circle,1,0,,,,,,,,,,,,,,,,repeat,number,numRpt,k,Hi,,,,,,2.0876,0,,,,,,,,low,28,0,28,0,1,,,,,,,,,
295630,2022-11-27_21h17.37.094,vts_reward_expectancy_bt,2022.2.4,Win32,59.62673663,Chrome,1920,1080,,,,,1,671,,,,,,,,,,,,,,,,,Y,160,star,1,0,,,,,,,,,,,,,,,,repeat,number,numRpt,k,Hi,,,,,,0.5355,0,,,,,,,,low,29,0,29,0,1,,,,,,,,,
295630,2022-11-27_21h17.37.094,vts_reward_expectancy_bt,2022.2.4,Win32,59.62673663,Chrome,1920,1080,,,,,1,672,,,,,,,,,,,,,,,,,D,132,hexagon,1,0,,,,,,,,,,,,,,,,switch,letter,lettSwt,d,Lo,,,,,,0.8354,0,,,,,,,,low,30,0,30,0,1,,,,,,,,,
295630,2022-11-27_21h17.37.094,vts_reward_expectancy_bt,2022.2.4,Win32,59.62673663,Chrome,1920,1080,,,,,10,682,,,,,,,,,,,,,,,,,S,125,triangle,1,0,,,,,,,,,,,,,,,,repeat,letter,lettRpt,f,Lo,,,,,,0.7518,0,,,,,,,,low,31,0,31,0,1,,,,,,,,,
295630,2022-11-27_21h17.37.094,vts_reward_expectancy_bt,2022.2.4,Win32,59.62673663,Chrome,1920,1080,,,,,10,692,,,,,,,,,,,,,,,,,S,181,star,1,0,,,,,,,,,,,,,,,,repeat,letter,lettRpt,f,Hi,,,,,,0.7252,1,,,,,,space,7.6083,low,0,0,0,0,1,,,,,,,,,
295630,2022-11-27_21h17.37.094,vts_reward_expectancy_bt,2022.2.4,Win32,59.62673663,Chrome,1920,1080,,,,,10,702,,,,,,,,,,,,,,,,,B,160,circle,1,0,,,,,,,,,,,,,,,,repeat,letter,lettRpt,d,Hi,,,,,,0.7021,1,,,,,,,,low,1,0,1,0,1,,,,,,,,,
295630,2022-11-27_21h17.37.094,vts_reward_expectancy_bt,2022.2.4,Win32,59.62673663,Chrome,1920,1080,,,,,10,712,,,,,,,,,,,,,,,,,D,167,hexagon,1,0,,,,,,,,,,,,,,,,repeat,letter,lettRpt,d,Lo,,,,,,0.568,1,,,,,,,,low,2,0,2,0,1,,,,,,,,,
295630,2022-11-27_21h17.37.094,vts_reward_expectancy_bt,2022.2.4,Win32,59.62673663,Chrome,1920,1080,,,,,1,713,,,,,,,,,,,,,,,,,W,146,triangle,1,0,,,,,,,,,,,,,,,,repeat,letter,lettRpt,f,Lo,,,,,,0.501,1,,,,,,,,low,3,0,3,0,1,,,,,,,,,
295630,2022-11-27_21h17.37.094,vts_reward_expectancy_bt,2022.2.4,Win32,59.62673663,Chrome,1920,1080,,,,,1,714,,,,,,,,,,,,,,,,,Y,132,star,1,0,,,,,,,,,,,,,,,,repeat,letter,lettRpt,f,Hi,,,,,,0.4364,1,,,,,,,,low,4,0,4,0,1,,,,,,,,,
295630,2022-11-27_21h17.37.094,vts_reward_expectancy_bt,2022.2.4,Win32,59.62673663,Chrome,1920,1080,,,,,1,715,,,,,,,,,,,,,,,,,H,174,circle,1,0,,,,,,,,,,,,,,,,switch,number,numSwt,k,Hi,,,,,,0.7474,1,,,,,,,,low,5,0,5,0,1,,,,,,,,,
295630,2022-11-27_21h17.37.094,vts_reward_expectancy_bt,2022.2.4,Win32,59.62673663,Chrome,1920,1080,,,,,10,725,,,,,,,,,,,,,,,,,F,139,hexagon,1,0,,,,,,,,,,,,,,,,repeat,number,numRpt,j,Lo,,,,,,1.6696,1,,,,,,,,low,6,0,6,0,1,,,,,,,,,
295630,2022-11-27_21h17.37.094,vts_reward_expectancy_bt,2022.2.4,Win32,59.62673663,Chrome,1920,1080,,,,,1,726,,,,,,,,,,,,,,,,,U,125,triangle,1,0,,,,,,,,,,,,,,,,repeat,number,numRpt,j,Lo,,,,,,0.7501,1,,,,,,,,low,7,0,7,0,1,,,,,,,,,
295630,2022-11-27_21h17.37.094,vts_reward_expectancy_bt,2022.2.4,Win32,59.62673663,Chrome,1920,1080,,,,,10,736,,,,,,,,,,,,,,,,,S,181,circle,1,0,,,,,,,,,,,,,,,,repeat,number,numRpt,k,Hi,,,,,,0.668,1,,,,,,,,low,8,0,8,0,1,,,,,,,,,
295630,2022-11-27_21h17.37.094,vts_reward_expectancy_bt,2022.2.4,Win32,59.62673663,Chrome,1920,1080,,,,,0,736,,,,,,,,,,,,,,,,,B,160,star,0,0,,,,,,,,,,,,,,,,repeat,number,NA,j,Hi,,,,,,0.9023,1,,,,,,,,low,9,0,9,0,1,,,,,,,,,
295630,2022-11-27_21h17.37.094,vts_reward_expectancy_bt,2022.2.4,Win32,59.62673663,Chrome,1920,1080,,,,,1,737,,,,,,,,,,,,,,,,,D,167,hexagon,1,1,,,,,,,,,,,,,,,,repeat,number,numRpt,k,Lo,,,,,,0.4709,1,,,,,,,,low,10,0,10,0,1,,,,,,,,,
295630,2022-11-27_21h17.37.094,vts_reward_expectancy_bt,2022.2.4,Win32,59.62673663,Chrome,1920,1080,,,,,0,737,,,,,,,,,,,,,,,,,W,146,triangle,0,0,,,,,,,,,,,,,,,,repeat,number,NA,k,Lo,,,,,,0.7906,1,,,,,,,,low,11,0,11,0,1,,,,,,,,,
295630,2022-11-27_21h17.37.094,vts_reward_expectancy_bt,2022.2.4,Win32,59.62673663,Chrome,1920,1080,,,,,1,738,,,,,,,,,,,,,,,,,Y,132,hexagon,1,1,,,,,,,,,,,,,,,,repeat,number,numRpt,j,Lo,,,,,,0.6671,1,,,,,,,,low,12,0,12,0,1,,,,,,,,,
295630,2022-11-27_21h17.37.094,vts_reward_expectancy_bt,2022.2.4,Win32,59.62673663,Chrome,1920,1080,,,,,1,739,,,,,,,,,,,,,,,,,H,174,star,1,0,,,,,,,,,,,,,,,,repeat,number,numRpt,k,Hi,,,,,,0.5341,1,,,,,,,,low,13,0,13,0,1,,,,,,,,,
295630,2022-11-27_21h17.37.094,vts_reward_expectancy_bt,2022.2.4,Win32,59.62673663,Chrome,1920,1080,,,,,0,739,,,,,,,,,,,,,,,,,F,139,circle,1,0,,,,,,,,,,,,,,,,repeat,number,numRpt,j,Hi,,,,,,0.8863,1,,,,,,,,low,14,0,14,0,1,,,,,,,,,
295630,2022-11-27_21h17.37.094,vts_reward_expectancy_bt,2022.2.4,Win32,59.62673663,Chrome,1920,1080,,,,,10,749,,,,,,,,,,,,,,,,,U,125,triangle,1,0,,,,,,,,,,,,,,,,switch,letter,lettSwt,f,Lo,,,,,,0.7019,1,,,,,,,,low,15,0,15,0,1,,,,,,,,,
295630,2022-11-27_21h17.37.094,vts_reward_expectancy_bt,2022.2.4,Win32,59.62673663,Chrome,1920,1080,,,,,0,749,,,,,,,,,,,,,,,,,S,181,star,1,0,,,,,,,,,,,,,,,,repeat,letter,lettRpt,f,Hi,,,,,,0.7854,1,,,,,,,,low,16,0,16,0,1,,,,,,,,,
295630,2022-11-27_21h17.37.094,vts_reward_expectancy_bt,2022.2.4,Win32,59.62673663,Chrome,1920,1080,,,,,1,750,,,,,,,,,,,,,,,,,W,132,triangle,1,0,,,,,,,,,,,,,,,,repeat,letter,lettRpt,f,Lo,,,,,,0.604,1,,,,,,,,low,17,0,17,0,1,,,,,,,,,
295630,2022-11-27_21h17.37.094,vts_reward_expectancy_bt,2022.2.4,Win32,59.62673663,Chrome,1920,1080,,,,,0,750,,,,,,,,,,,,,,,,,H,167,circle,0,0,,,,,,,,,,,,,,,,repeat,letter,NA,f,Lo,,,,,,0.6725,1,,,,,,,,low,18,0,18,0,1,,,,,,,,,
295630,2022-11-27_21h17.37.094,vts_reward_expectancy_bt,2022.2.4,Win32,59.62673663,Chrome,1920,1080,,,,,10,760,,,,,,,,,,,,,,,,,B,174,hexagon,1,1,,,,,,,,,,,,,,,,repeat,letter,lettRpt,d,Lo,,,,,,0.4947,1,,,,,,,,low,19,0,19,0,1,,,,,,,,,
295630,2022-11-27_21h17.37.094,vts_reward_expectancy_bt,2022.2.4,Win32,59.62673663,Chrome,1920,1080,,,,,10,770,,,,,,,,,,,,,,,,,Y,125,triangle,1,0,,,,,,,,,,,,,,,,repeat,letter,lettRpt,f,Lo,,,,,,0.5025,1,,,,,,,,low,20,0,20,0,1,,,,,,,,,
295630,2022-11-27_21h17.37.094,vts_reward_expectancy_bt,2022.2.4,Win32,59.62673663,Chrome,1920,1080,,,,,0,770,,,,,,,,,,,,,,,,,U,139,star,0,0,,,,,,,,,,,,,,,,repeat,letter,NA,d,Lo,,,,,,0.4679,1,,,,,,,,low,21,0,21,0,1,,,,,,,,,
295630,2022-11-27_21h17.37.094,vts_reward_expectancy_bt,2022.2.4,Win32,59.62673663,Chrome,1920,1080,,,,,0,770,,,,,,,,,,,,,,,,,D,160,circle,0,1,,,,,,,,,,,,,,,,repeat,letter,NA,f,Lo,,,,,,0.5519,1,,,,,,,,low,22,0,22,0,1,,,,,,,,,
295630,2022-11-27_21h17.37.094,vts_reward_expectancy_bt,2022.2.4,Win32,59.62673663,Chrome,1920,1080,,,,,1,771,,,,,,,,,,,,,,,,,F,146,hexagon,1,1,,,,,,,,,,,,,,,,repeat,letter,lettRpt,d,Lo,,,,,,0.8356,1,,,,,,,,low,23,0,23,0,1,,,,,,,,,
295630,2022-11-27_21h17.37.094,vts_reward_expectancy_bt,2022.2.4,Win32,59.62673663,Chrome,1920,1080,,,,,1,772,,,,,,,,,,,,,,,,,B,132,hexagon,1,0,,,,,,,,,,,,,,,,repeat,letter,lettRpt,d,Lo,,,,,,1.1664,1,,,,,,,,low,24,0,24,0,1,,,,,,,,,
295630,2022-11-27_21h17.37.094,vts_reward_expectancy_bt,2022.2.4,Win32,59.62673663,Chrome,1920,1080,,,,,10,782,,,,,,,,,,,,,,,,,S,146,triangle,1,0,,,,,,,,,,,,,,,,repeat,letter,lettRpt,f,Lo,,,,,,1.3366,1,,,,,,,,low,25,0,25,0,1,,,,,,,,,
295630,2022-11-27_21h17.37.094,vts_reward_expectancy_bt,2022.2.4,Win32,59.62673663,Chrome,1920,1080,,,,,0,782,,,,,,,,,,,,,,,,,W,160,circle,1,0,,,,,,,,,,,,,,,,repeat,letter,lettRpt,f,Hi,,,,,,2.0546,1,,,,,,,,low,26,0,26,0,1,,,,,,,,,
295630,2022-11-27_21h17.37.094,vts_reward_expectancy_bt,2022.2.4,Win32,59.62673663,Chrome,1920,1080,,,,,10,792,,,,,,,,,,,,,,,,,D,181,star,1,0,,,,,,,,,,,,,,,,switch,number,numSwt,k,Hi,,,,,,0.6866,1,,,,,,,,low,27,0,27,0,1,,,,,,,,,
295630,2022-11-27_21h17.37.094,vts_reward_expectancy_bt,2022.2.4,Win32,59.62673663,Chrome,1920,1080,,,,,0,792,,,,,,,,,,,,,,,,,U,139,circle,1,0,,,,,,,,,,,,,,,,repeat,number,numRpt,j,Hi,,,,,,1.12,1,,,,,,,,low,28,0,28,0,1,,,,,,,,,
295630,2022-11-27_21h17.37.094,vts_reward_expectancy_bt,2022.2.4,Win32,59.62673663,Chrome,1920,1080,,,,,10,802,,,,,,,,,,,,,,,,,F,174,hexagon,1,0,,,,,,,,,,,,,,,,repeat,number,numRpt,k,Lo,,,,,,0.7366,1,,,,,,,,low,29,0,29,0,1,,,,,,,,,
295630,2022-11-27_21h17.37.094,vts_reward_expectancy_bt,2022.2.4,Win32,59.62673663,Chrome,1920,1080,,,,,10,812,,,,,,,,,,,,,,,,,H,125,star,1,0,,,,,,,,,,,,,,,,repeat,number,numRpt,j,Hi,,,,,,0.6845,1,,,,,,,,low,30,0,30,0,1,,,,,,,,,
295630,2022-11-27_21h17.37.094,vts_reward_expectancy_bt,2022.2.4,Win32,59.62673663,Chrome,1920,1080,,,,,10,822,,,,,,,,,,,,,,,,,Y,167,triangle,1,0,,,,,,,,,,,,,,,,repeat,number,numRpt,k,Lo,,,,,,1.102,1,,,,,,,,low,31,0,31,0,1,,,,,,,,,
295630,2022-11-27_21h17.37.094,vts_reward_expectancy_bt,2022.2.4,Win32,59.62673663,Chrome,1920,1080,,,,,0,822,,,,,,,,,,,,,,,,,Y,132,star,1,0,,,,,,,,,,,,,,,,switch,letter,lettSwt,f,Hi,,,,,,1.0693,2,,,,,,space,0.3187,low,0,0,0,0,1,,,,,,,,,
295630,2022-11-27_21h17.37.094,vts_reward_expectancy_bt,2022.2.4,Win32,59.62673663,Chrome,1920,1080,,,,,10,832,,,,,,,,,,,,,,,,,W,174,triangle,1,0,,,,,,,,,,,,,,,,repeat,letter,lettRpt,f,Lo,,,,,,0.8178,2,,,,,,,,low,1,0,1,0,1,,,,,,,,,
295630,2022-11-27_21h17.37.094,vts_reward_expectancy_bt,2022.2.4,Win32,59.62673663,Chrome,1920,1080,,,,,0,832,,,,,,,,,,,,,,,,,B,125,circle,1,0,,,,,,,,,,,,,,,,repeat,letter,lettRpt,d,Hi,,,,,,0.5686,2,,,,,,,,low,2,0,2,0,1,,,,,,,,,
295630,2022-11-27_21h17.37.094,vts_reward_expectancy_bt,2022.2.4,Win32,59.62673663,Chrome,1920,1080,,,,,10,842,,,,,,,,,,,,,,,,,S,160,hexagon,1,0,,,,,,,,,,,,,,,,repeat,letter,lettRpt,f,Lo,,,,,,0.9019,2,,,,,,,,low,3,0,3,0,1,,,,,,,,,
295630,2022-11-27_21h17.37.094,vts_reward_expectancy_bt,2022.2.4,Win32,59.62673663,Chrome,1920,1080,,,,,0,842,,,,,,,,,,,,,,,,,D,167,star,1,0,,,,,,,,,,,,,,,,repeat,letter,lettRpt,d,Hi,,,,,,0.9181,2,,,,,,,,low,4,0,4,0,1,,,,,,,,,
295630,2022-11-27_21h17.37.094,vts_reward_expectancy_bt,2022.2.4,Win32,59.62673663,Chrome,1920,1080,,,,,1,843,,,,,,,,,,,,,,,,,F,146,triangle,1,0,,,,,,,,,,,,,,,,repeat,letter,lettRpt,d,Lo,,,,,,0.7514,2,,,,,,,,low,5,0,5,0,1,,,,,,,,,
295630,2022-11-27_21h17.37.094,vts_reward_expectancy_bt,2022.2.4,Win32,59.62673663,Chrome,1920,1080,,,,,10,853,,,,,,,,,,,,,,,,,H,181,circle,1,0,,,,,,,,,,,,,,,,switch,number,numSwt,k,Hi,,,,,,0.669,2,,,,,,,,low,6,0,6,0,1,,,,,,,,,
295630,2022-11-27_21h17.37.094,vts_reward_expectancy_bt,2022.2.4,Win32,59.62673663,Chrome,1920,1080,,,,,1,854,,,,,,,,,,,,,,,,,U,139,hexagon,1,0,,,,,,,,,,,,,,,,switch,letter,lettSwt,f,Lo,,,,,,0.8089,2,,,,,,,,low,7,0,7,0,1,,,,,,,,,
295630,2022-11-27_21h17.37.094,vts_reward_expectancy_bt,2022.2.4,Win32,59.62673663,Chrome,1920,1080,,,,,0,854,,,,,,,,,,,,,,,,,Y,132,circle,1,0,,,,,,,,,,,,,,,,repeat,letter,lettRpt,f,Hi,,,,,,1.3226,2,,,,,,,,low,8,0,8,0,1,,,,,,,,,
295630,2022-11-27_21h17.37.094,vts_reward_expectancy_bt,2022.2.4,Win32,59.62673663,Chrome,1920,1080,,,,,10,864,,,,,,,,,,,,,,,,,W,174,triangle,1,0,,,,,,,,,,,,,,,,switch,number,numSwt,k,Lo,,,,,,0.6693,2,,,,,,,,low,9,0,9,0,1,,,,,,,,,
295630,2022-11-27_21h17.37.094,vts_reward_expectancy_bt,2022.2.4,Win32,59.62673663,Chrome,1920,1080,,,,,0,864,,,,,,,,,,,,,,,,,B,125,star,0,0,,,,,,,,,,,,,,,,repeat,number,NA,k,Lo,,,,,,1.0397,2,,,,,,,,low,10,0,10,0,1,,,,,,,,,
295630,2022-11-27_21h17.37.094,vts_reward_expectancy_bt,2022.2.4,Win32,59.62673663,Chrome,1920,1080,,,,,10,874,,,,,,,,,,,,,,,,,S,160,hexagon,1,1,,,,,,,,,,,,,,,,repeat,number,numRpt,k,Lo,,,,,,1.134,2,,,,,,,,low,11,0,11,0,1,,,,,,,,,
295630,2022-11-27_21h17.37.094,vts_reward_expectancy_bt,2022.2.4,Win32,59.62673663,Chrome,1920,1080,,,,,1,875,,,,,,,,,,,,,,,,,D,167,star,1,0,,,,,,,,,,,,,,,,repeat,number,numRpt,k,Hi,,,,,,0.5193,2,,,,,,,,low,12,0,12,0,1,,,,,,,,,
295630,2022-11-27_21h17.37.094,vts_reward_expectancy_bt,2022.2.4,Win32,59.62673663,Chrome,1920,1080,,,,,0,875,,,,,,,,,,,,,,,,,F,146,circle,0,0,,,,,,,,,,,,,,,,repeat,number,NA,k,Hi,,,,,,0.8039,2,,,,,,,,low,13,0,13,0,1,,,,,,,,,
295630,2022-11-27_21h17.37.094,vts_reward_expectancy_bt,2022.2.4,Win32,59.62673663,Chrome,1920,1080,,,,,1,876,,,,,,,,,,,,,,,,,H,181,hexagon,1,1,,,,,,,,,,,,,,,,repeat,number,numRpt,k,Lo,,,,,,0.5682,2,,,,,,,,low,14,0,14,0,1,,,,,,,,,
295630,2022-11-27_21h17.37.094,vts_reward_expectancy_bt,2022.2.4,Win32,59.62673663,Chrome,1920,1080,,,,,1,877,,,,,,,,,,,,,,,,,U,139,triangle,1,0,,,,,,,,,,,,,,,,repeat,number,numRpt,j,Lo,,,,,,0.8356,2,,,,,,,,low,15,0,15,0,1,,,,,,,,,
295630,2022-11-27_21h17.37.094,vts_reward_expectancy_bt,2022.2.4,Win32,59.62673663,Chrome,1920,1080,,,,,10,887,,,,,,,,,,,,,,,,,B,146,hexagon,1,0,,,,,,,,,,,,,,,,repeat,number,numRpt,j,Lo,,,,,,1.0464,2,,,,,,,,low,16,0,16,0,1,,,,,,,,,
295630,2022-11-27_21h17.37.094,vts_reward_expectancy_bt,2022.2.4,Win32,59.62673663,Chrome,1920,1080,,,,,10,897,,,,,,,,,,,,,,,,,S,160,triangle,1,0,,,,,,,,,,,,,,,,repeat,number,numRpt,k,Lo,,,,,,1.1361,2,,,,,,,,low,17,0,17,0,1,,,,,,,,,
295630,2022-11-27_21h17.37.094,vts_reward_expectancy_bt,2022.2.4,Win32,59.62673663,Chrome,1920,1080,,,,,10,907,,,,,,,,,,,,,,,,,U,125,circle,1,0,,,,,,,,,,,,,,,,repeat,number,numRpt,j,Hi,,,,,,0.6182,2,,,,,,,,low,18,0,18,0,1,,,,,,,,,
295630,2022-11-27_21h17.37.094,vts_reward_expectancy_bt,2022.2.4,Win32,59.62673663,Chrome,1920,1080,,,,,0,907,,,,,,,,,,,,,,,,,W,132,star,1,0,,,,,,,,,,,,,,,,repeat,number,numRpt,j,Hi,,,,,,1.1358,2,,,,,,,,low,19,0,19,0,1,,,,,,,,,
295630,2022-11-27_21h17.37.094,vts_reward_expectancy_bt,2022.2.4,Win32,59.62673663,Chrome,1920,1080,,,,,0,907,,,,,,,,,,,,,,,,,H,174,star,1,0,,,,,,,,,,,,,,,,repeat,number,numRpt,k,Hi,,,,,,1.0354,2,,,,,,,,low,20,0,20,0,1,,,,,,,,,
295630,2022-11-27_21h17.37.094,vts_reward_expectancy_bt,2022.2.4,Win32,59.62673663,Chrome,1920,1080,,,,,1,908,,,,,,,,,,,,,,,,,D,139,triangle,1,0,,,,,,,,,,,,,,,,repeat,number,numRpt,j,Lo,,,,,,0.6397,2,,,,,,,,low,21,0,21,0,1,,,,,,,,,
295630,2022-11-27_21h17.37.094,vts_reward_expectancy_bt,2022.2.4,Win32,59.62673663,Chrome,1920,1080,,,,,0,908,,,,,,,,,,,,,,,,,F,167,circle,1,0,,,,,,,,,,,,,,,,switch,letter,lettSwt,d,Hi,,,,,,0.9775,2,,,,,,,,low,22,0,22,0,1,,,,,,,,,
295630,2022-11-27_21h17.37.094,vts_reward_expectancy_bt,2022.2.4,Win32,59.62673663,Chrome,1920,1080,,,,,10,918,,,,,,,,,,,,,,,,,Y,181,hexagon,1,0,,,,,,,,,,,,,,,,repeat,letter,lettRpt,f,Lo,,,,,,0.6531,2,,,,,,,,low,23,0,23,0,1,,,,,,,,,
295630,2022-11-27_21h17.37.094,vts_reward_expectancy_bt,2022.2.4,Win32,59.62673663,Chrome,1920,1080,,,,,1,919,,,,,,,,,,,,,,,,,W,160,hexagon,1,0,,,,,,,,,,,,,,,,repeat,letter,lettRpt,f,Lo,,,,,,0.8017,2,,,,,,,,low,24,0,24,0,1,,,,,,,,,
295630,2022-11-27_21h17.37.094,vts_reward_expectancy_bt,2022.2.4,Win32,59.62673663,Chrome,1920,1080,,,,,0,919,,,,,,,,,,,,,,,,,D,146,star,0,0,,,,,,,,,,,,,,,,repeat,letter,NA,f,Lo,,,,,,0.6396,2,,,,,,,,low,25,0,25,0,1,,,,,,,,,
295630,2022-11-27_21h17.37.094,vts_reward_expectancy_bt,2022.2.4,Win32,59.62673663,Chrome,1920,1080,,,,,0,919,,,,,,,,,,,,,,,,,U,139,circle,1,1,,,,,,,,,,,,,,,,repeat,letter,lettRpt,f,Hi,,,,,,0.7443,2,,,,,,,,low,26,0,26,0,1,,,,,,,,,
295630,2022-11-27_21h17.37.094,vts_reward_expectancy_bt,2022.2.4,Win32,59.62673663,Chrome,1920,1080,,,,,0,919,,,,,,,,,,,,,,,,,S,132,triangle,0,0,,,,,,,,,,,,,,,,repeat,letter,NA,d,Hi,,,,,,0.9048,2,,,,,,,,low,27,0,27,0,1,,,,,,,,,
295630,2022-11-27_21h17.37.094,vts_reward_expectancy_bt,2022.2.4,Win32,59.62673663,Chrome,1920,1080,,,,,1,920,,,,,,,,,,,,,,,,,B,174,triangle,1,1,,,,,,,,,,,,,,,,repeat,letter,lettRpt,d,Lo,,,,,,0.6188,2,,,,,,,,low,28,0,28,0,1,,,,,,,,,
295630,2022-11-27_21h17.37.094,vts_reward_expectancy_bt,2022.2.4,Win32,59.62673663,Chrome,1920,1080,,,,,0,920,,,,,,,,,,,,,,,,,F,181,star,1,0,,,,,,,,,,,,,,,,repeat,letter,lettRpt,d,Hi,,,,,,1.0011,2,,,,,,,,low,29,0,29,0,1,,,,,,,,,
295630,2022-11-27_21h17.37.094,vts_reward_expectancy_bt,2022.2.4,Win32,59.62673663,Chrome,1920,1080,,,,,1,921,,,,,,,,,,,,,,,,,Y,167,hexagon,1,0,,,,,,,,,,,,,,,,repeat,letter,lettRpt,f,Lo,,,,,,0.5177,2,,,,,,,,low,30,0,30,0,1,,,,,,,,,
295630,2022-11-27_21h17.37.094,vts_reward_expectancy_bt,2022.2.4,Win32,59.62673663,Chrome,1920,1080,,,,,0,921,,,,,,,,,,,,,,,,,H,125,circle,0,0,,,,,,,,,,,,,,,,repeat,letter,NA,f,Lo,,,,,,0.7519,2,,,,,,,,low,31,0,31,0,1,,,,,,,,,
295630,2022-11-27_21h17.37.094,vts_reward_expectancy_bt,2022.2.4,Win32,59.62673663,Chrome,1920,1080,,,,,0,921,,,,,,,,,,,,,,,,,D,167,star,1,1,,,,,,,,,,,,,,,,repeat,letter,lettRpt,d,Hi,,,,,,0.9853,3,,,,,,space,1.1855,low,0,0,0,0,1,,,,,,,,,
295630,2022-11-27_21h17.37.094,vts_reward_expectancy_bt,2022.2.4,Win32,59.62673663,Chrome,1920,1080,,,,,0,921,,,,,,,,,,,,,,,,,F,132,triangle,0,0,,,,,,,,,,,,,,,,repeat,letter,NA,f,Hi,,,,,,0.7618,3,,,,,,,,low,1,0,1,0,1,,,,,,,,,
295630,2022-11-27_21h17.37.094,vts_reward_expectancy_bt,2022.2.4,Win32,59.62673663,Chrome,1920,1080,,,,,10,931,,,,,,,,,,,,,,,,,B,139,circle,1,1,,,,,,,,,,,,,,,,repeat,letter,lettRpt,d,Hi,,,,,,0.5516,3,,,,,,,,low,2,0,2,0,1,,,,,,,,,
295630,2022-11-27_21h17.37.094,vts_reward_expectancy_bt,2022.2.4,Win32,59.62673663,Chrome,1920,1080,,,,,10,941,,,,,,,,,,,,,,,,,S,160,hexagon,1,0,,,,,,,,,,,,,,,,repeat,letter,lettRpt,f,Lo,,,,,,0.7515,3,,,,,,,,low,3,0,3,0,1,,,,,,,,,
295630,2022-11-27_21h17.37.094,vts_reward_expectancy_bt,2022.2.4,Win32,59.62673663,Chrome,1920,1080,,,,,0,941,,,,,,,,,,,,,,,,,H,146,star,1,0,,,,,,,,,,,,,,,,repeat,letter,lettRpt,d,Hi,,,,,,0.9682,3,,,,,,,,low,4,0,4,0,1,,,,,,,,,
295630,2022-11-27_21h17.37.094,vts_reward_expectancy_bt,2022.2.4,Win32,59.62673663,Chrome,1920,1080,,,,,10,951,,,,,,,,,,,,,,,,,Y,125,triangle,1,0,,,,,,,,,,,,,,,,repeat,letter,lettRpt,f,Lo,,,,,,1.0177,3,,,,,,,,low,5,0,5,0,1,,,,,,,,,
295630,2022-11-27_21h17.37.094,vts_reward_expectancy_bt,2022.2.4,Win32,59.62673663,Chrome,1920,1080,,,,,0,951,,,,,,,,,,,,,,,,,U,181,circle,1,0,,,,,,,,,,,,,,,,repeat,letter,lettRpt,f,Hi,,,,,,0.7993,3,,,,,,,,low,6,0,6,0,1,,,,,,,,,
295630,2022-11-27_21h17.37.094,vts_reward_expectancy_bt,2022.2.4,Win32,59.62673663,Chrome,1920,1080,,,,,10,961,,,,,,,,,,,,,,,,,W,174,hexagon,1,0,,,,,,,,,,,,,,,,switch,number,numSwt,k,Lo,,,,,,0.7182,3,,,,,,,,low,7,0,7,0,1,,,,,,,,,
295630,2022-11-27_21h17.37.094,vts_reward_expectancy_bt,2022.2.4,Win32,59.62673663,Chrome,1920,1080,,,,,0,961,,,,,,,,,,,,,,,,,D,167,star,1,0,,,,,,,,,,,,,,,,repeat,number,numRpt,k,Hi,,,,,,0.7851,3,,,,,,,,low,8,0,8,0,1,,,,,,,,,
295630,2022-11-27_21h17.37.094,vts_reward_expectancy_bt,2022.2.4,Win32,59.62673663,Chrome,1920,1080,,,,,0,961,,,,,,,,,,,,,,,,,F,132,circle,1,0,,,,,,,,,,,,,,,,repeat,number,numRpt,j,Hi,,,,,,0.9029,3,,,,,,,,low,9,0,9,0,1,,,,,,,,,
295630,2022-11-27_21h17.37.094,vts_reward_expectancy_bt,2022.2.4,Win32,59.62673663,Chrome,1920,1080,,,,,1,962,,,,,,,,,,,,,,,,,B,139,triangle,1,0,,,,,,,,,,,,,,,,repeat,number,numRpt,j,Lo,,,,,,1.1527,3,,,,,,,,low,10,0,10,0,1,,,,,,,,,
295630,2022-11-27_21h17.37.094,vts_reward_expectancy_bt,2022.2.4,Win32,59.62673663,Chrome,1920,1080,,,,,10,972,,,,,,,,,,,,,,,,,S,160,hexagon,1,0,,,,,,,,,,,,,,,,repeat,number,numRpt,k,Lo,,,,,,0.9189,3,,,,,,,,low,11,0,11,0,1,,,,,,,,,
295630,2022-11-27_21h17.37.094,vts_reward_expectancy_bt,2022.2.4,Win32,59.62673663,Chrome,1920,1080,,,,,0,972,,,,,,,,,,,,,,,,,H,146,circle,1,0,,,,,,,,,,,,,,,,repeat,number,numRpt,j,Hi,,,,,,1.5043,3,,,,,,,,low,12,0,12,0,1,,,,,,,,,
295630,2022-11-27_21h17.37.094,vts_reward_expectancy_bt,2022.2.4,Win32,59.62673663,Chrome,1920,1080,,,,,1,973,,,,,,,,,,,,,,,,,Y,125,triangle,1,0,,,,,,,,,,,,,,,,repeat,number,numRpt,j,Lo,,,,,,0.9468,3,,,,,,,,low,13,0,13,0,1,,,,,,,,,
295630,2022-11-27_21h17.37.094,vts_reward_expectancy_bt,2022.2.4,Win32,59.62673663,Chrome,1920,1080,,,,,10,983,,,,,,,,,,,,,,,,,U,181,hexagon,1,0,,,,,,,,,,,,,,,,repeat,number,numRpt,k,Lo,,,,,,0.8351,3,,,,,,,,low,14,0,14,0,1,,,,,,,,,
295630,2022-11-27_21h17.37.094,vts_reward_expectancy_bt,2022.2.4,Win32,59.62673663,Chrome,1920,1080,,,,,0,983,,,,,,,,,,,,,,,,,W,174,star,0,0,,,,,,,,,,,,,,,,repeat,number,NA,j,Lo,,,,,,1.1363,3,,,,,,,,low,15,0,15,0,1,,,,,,,,,
295630,2022-11-27_21h17.37.094,vts_reward_expectancy_bt,2022.2.4,Win32,59.62673663,Chrome,1920,1080,,,,,0,983,,,,,,,,,,,,,,,,,Y,139,triangle,0,1,,,,,,,,,,,,,,,,repeat,number,NA,k,Lo,,,,,,1.4032,3,,,,,,,,low,16,0,16,0,1,,,,,,,,,
295630,2022-11-27_21h17.37.094,vts_reward_expectancy_bt,2022.2.4,Win32,59.62673663,Chrome,1920,1080,,,,,0,983,,,,,,,,,,,,,,,,,B,132,circle,1,1,,,,,,,,,,,,,,,,repeat,number,numRpt,j,Hi,,,,,,0.6518,3,,,,,,,,low,17,0,17,0,1,,,,,,,,,
295630,2022-11-27_21h17.37.094,vts_reward_expectancy_bt,2022.2.4,Win32,59.62673663,Chrome,1920,1080,,,,,0,983,,,,,,,,,,,,,,,,,F,146,star,1,0,,,,,,,,,,,,,,,,repeat,number,numRpt,j,Hi,,,,,,0.8913,3,,,,,,,,low,18,0,18,0,1,,,,,,,,,
295630,2022-11-27_21h17.37.094,vts_reward_expectancy_bt,2022.2.4,Win32,59.62673663,Chrome,1920,1080,,,,,1,984,,,,,,,,,,,,,,,,,U,125,hexagon,1,0,,,,,,,,,,,,,,,,repeat,number,numRpt,j,Lo,,,,,,0.5006,3,,,,,,,,low,19,0,19,0,1,,,,,,,,,
295630,2022-11-27_21h17.37.094,vts_reward_expectancy_bt,2022.2.4,Win32,59.62673663,Chrome,1920,1080,,,,,1,985,,,,,,,,,,,,,,,,,W,181,hexagon,1,0,,,,,,,,,,,,,,,,repeat,number,numRpt,k,Lo,,,,,,0.8386,3,,,,,,,,low,20,0,20,0,1,,,,,,,,,
295630,2022-11-27_21h17.37.094,vts_reward_expectancy_bt,2022.2.4,Win32,59.62673663,Chrome,1920,1080,,,,,0,985,,,,,,,,,,,,,,,,,S,160,star,0,0,,,,,,,,,,,,,,,,repeat,number,NA,j,Lo,,,,,,1.0287,3,,,,,,,,low,21,0,21,0,1,,,,,,,,,
295630,2022-11-27_21h17.37.094,vts_reward_expectancy_bt,2022.2.4,Win32,59.62673663,Chrome,1920,1080,,,,,10,995,,,,,,,,,,,,,,,,,D,174,triangle,1,1,,,,,,,,,,,,,,,,repeat,number,numRpt,k,Lo,,,,,,1.2872,3,,,,,,,,low,22,0,22,0,1,,,,,,,,,
295630,2022-11-27_21h17.37.094,vts_reward_expectancy_bt,2022.2.4,Win32,59.62673663,Chrome,1920,1080,,,,,0,995,,,,,,,,,,,,,,,,,H,167,circle,1,0,,,,,,,,,,,,,,,,repeat,number,numRpt,k,Hi,,,,,,0.8359,3,,,,,,,,low,23,0,23,0,1,,,,,,,,,
295630,2022-11-27_21h17.37.094,vts_reward_expectancy_bt,2022.2.4,Win32,59.62673663,Chrome,1920,1080,,,,,10,1005,,,,,,,,,,,,,,,,,Y,146,triangle,1,0,,,,,,,,,,,,,,,,repeat,number,numRpt,j,Lo,,,,,,1.3722,3,,,,,,,,low,24,0,24,0,1,,,,,,,,,
295630,2022-11-27_21h17.37.094,vts_reward_expectancy_bt,2022.2.4,Win32,59.62673663,Chrome,1920,1080,,,,,10,1015,,,,,,,,,,,,,,,,,B,181,hexagon,1,0,,,,,,,,,,,,,,,,repeat,number,numRpt,k,Lo,,,,,,0.6864,3,,,,,,,,low,25,0,25,0,1,,,,,,,,,
295630,2022-11-27_21h17.37.094,vts_reward_expectancy_bt,2022.2.4,Win32,59.62673663,Chrome,1920,1080,,,,,10,1025,,,,,,,,,,,,,,,,,H,174,circle,1,0,,,,,,,,,,,,,,,,repeat,number,numRpt,k,Hi,,,,,,0.5512,3,,,,,,,,low,26,0,26,0,1,,,,,,,,,
295630,2022-11-27_21h17.37.094,vts_reward_expectancy_bt,2022.2.4,Win32,59.62673663,Chrome,1920,1080,,,,,0,1025,,,,,,,,,,,,,,,,,W,167,star,1,0,,,,,,,,,,,,,,,,repeat,number,numRpt,k,Hi,,,,,,0.7354,3,,,,,,,,low,27,0,27,0,1,,,,,,,,,
295630,2022-11-27_21h17.37.094,vts_reward_expectancy_bt,2022.2.4,Win32,59.62673663,Chrome,1920,1080,,,,,10,1035,,,,,,,,,,,,,,,,,S,139,hexagon,1,0,,,,,,,,,,,,,,,,switch,letter,lettSwt,f,Lo,,,,,,0.6672,3,,,,,,,,low,28,0,28,0,1,,,,,,,,,
295630,2022-11-27_21h17.37.094,vts_reward_expectancy_bt,2022.2.4,Win32,59.62673663,Chrome,1920,1080,,,,,0,1035,,,,,,,,,,,,,,,,,U,132,star,1,0,,,,,,,,,,,,,,,,repeat,letter,lettRpt,f,Hi,,,,,,0.7525,3,,,,,,,,low,29,0,29,0,1,,,,,,,,,
295630,2022-11-27_21h17.37.094,vts_reward_expectancy_bt,2022.2.4,Win32,59.62673663,Chrome,1920,1080,,,,,1,1036,,,,,,,,,,,,,,,,,F,125,triangle,1,0,,,,,,,,,,,,,,,,repeat,letter,lettRpt,d,Lo,,,,,,0.8919,3,,,,,,,,low,30,0,30,0,1,,,,,,,,,
295630,2022-11-27_21h17.37.094,vts_reward_expectancy_bt,2022.2.4,Win32,59.62673663,Chrome,1920,1080,,,,,0,1036,,,,,,,,,,,,,,,,,D,160,circle,1,0,,,,,,,,,,,,,,,,repeat,letter,lettRpt,d,Hi,,,,,,0.8705,3,,,,,,,,low,31,0,31,0,1,,,,,,,,,
295630,2022-11-27_21h17.37.094,vts_reward_expectancy_bt,2022.2.4,Win32,59.62673663,Chrome,1920,1080,,,,,10,1046,,,,,,,,,,,,,,,,,Y,139,hexagon,1,0,,,,,,,,,,,,,,,,repeat,letter,lettRpt,f,Lo,,,,,,1.1196,4,,,,,,space,0.9205,low,0,0,0,0,1,,,,,,,,,
295630,2022-11-27_21h17.37.094,vts_reward_expectancy_bt,2022.2.4,Win32,59.62673663,Chrome,1920,1080,,,,,0,1046,,,,,,,,,,,,,,,,,H,167,star,0,0,,,,,,,,,,,,,,,,repeat,letter,NA,f,Lo,,,,,,0.6701,4,,,,,,,,low,1,0,1,0,1,,,,,,,,,
295630,2022-11-27_21h17.37.094,vts_reward_expectancy_bt,2022.2.4,Win32,59.62673663,Chrome,1920,1080,,,,,10,1056,,,,,,,,,,,,,,,,,F,174,circle,1,1,,,,,,,,,,,,,,,,repeat,letter,lettRpt,d,Hi,,,,,,0.6681,4,,,,,,,,low,2,0,2,0,1,,,,,,,,,
295630,2022-11-27_21h17.37.094,vts_reward_expectancy_bt,2022.2.4,Win32,59.62673663,Chrome,1920,1080,,,,,0,1056,,,,,,,,,,,,,,,,,S,146,triangle,0,0,,,,,,,,,,,,,,,,repeat,letter,NA,d,Hi,,,,,,0.5181,4,,,,,,,,low,3,0,3,0,1,,,,,,,,,
295630,2022-11-27_21h17.37.094,vts_reward_expectancy_bt,2022.2.4,Win32,59.62673663,Chrome,1920,1080,,,,,0,1056,,,,,,,,,,,,,,,,,B,125,hexagon,0,1,,,,,,,,,,,,,,,,repeat,letter,NA,f,Hi,,,,,,0.3743,4,,,,,,,,low,4,0,4,0,1,,,,,,,,,
295630,2022-11-27_21h17.37.094,vts_reward_expectancy_bt,2022.2.4,Win32,59.62673663,Chrome,1920,1080,,,,,1,1057,,,,,,,,,,,,,,,,,D,132,star,1,1,,,,,,,,,,,,,,,,repeat,letter,lettRpt,d,Hi,,,,,,0.3504,4,,,,,,,,low,5,0,5,0,1,,,,,,,,,
295630,2022-11-27_21h17.37.094,vts_reward_expectancy_bt,2022.2.4,Win32,59.62673663,Chrome,1920,1080,,,,,0,1057,,,,,,,,,,,,,,,,,W,160,circle,1,0,,,,,,,,,,,,,,,,repeat,letter,lettRpt,f,Hi,,,,,,1.4087,4,,,,,,,,low,6,0,6,0,1,,,,,,,,,
295630,2022-11-27_21h17.37.094,vts_reward_expectancy_bt,2022.2.4,Win32,59.62673663,Chrome,1920,1080,,,,,1,1058,,,,,,,,,,,,,,,,,U,181,triangle,1,0,,,,,,,,,,,,,,,,repeat,letter,lettRpt,f,Lo,,,,,,0.9071,4,,,,,,,,low,7,0,7,0,1,,,,,,,,,
295630,2022-11-27_21h17.37.094,vts_reward_expectancy_bt,2022.2.4,Win32,59.62673663,Chrome,1920,1080,,,,,10,1068,,,,,,,,,,,,,,,,,Y,139,triangle,1,0,,,,,,,,,,,,,,,,repeat,letter,lettRpt,f,Lo,,,,,,1.1636,4,,,,,,,,low,8,0,8,0,1,,,,,,,,,
295630,2022-11-27_21h17.37.094,vts_reward_expectancy_bt,2022.2.4,Win32,59.62673663,Chrome,1920,1080,,,,,0,1068,,,,,,,,,,,,,,,,,H,167,circle,0,0,,,,,,,,,,,,,,,,repeat,letter,NA,f,Lo,,,,,,1.1547,4,,,,,,,,low,9,0,9,0,1,,,,,,,,,
295630,2022-11-27_21h17.37.094,vts_reward_expectancy_bt,2022.2.4,Win32,59.62673663,Chrome,1920,1080,,,,,1,1069,,,,,,,,,,,,,,,,,F,174,hexagon,1,1,,,,,,,,,,,,,,,,repeat,letter,lettRpt,d,Lo,,,,,,1.173,4,,,,,,,,low,10,0,10,0,1,,,,,,,,,
295630,2022-11-27_21h17.37.094,vts_reward_expectancy_bt,2022.2.4,Win32,59.62673663,Chrome,1920,1080,,,,,0,1069,,,,,,,,,,,,,,,,,S,146,star,1,0,,,,,,,,,,,,,,,,repeat,letter,lettRpt,f,Hi,,,,,,0.9705,4,,,,,,,,low,11,0,11,0,1,,,,,,,,,
295630,2022-11-27_21h17.37.094,vts_reward_expectancy_bt,2022.2.4,Win32,59.62673663,Chrome,1920,1080,,,,,0,1069,,,,,,,,,,,,,,,,,B,125,star,1,0,,,,,,,,,,,,,,,,repeat,letter,lettRpt,d,Hi,,,,,,0.838,4,,,,,,,,low,12,0,12,0,1,,,,,,,,,
295630,2022-11-27_21h17.37.094,vts_reward_expectancy_bt,2022.2.4,Win32,59.62673663,Chrome,1920,1080,,,,,10,1079,,,,,,,,,,,,,,,,,D,132,triangle,1,0,,,,,,,,,,,,,,,,repeat,letter,lettRpt,d,Lo,,,,,,0.9036,4,,,,,,,,low,13,0,13,0,1,,,,,,,,,
295630,2022-11-27_21h17.37.094,vts_reward_expectancy_bt,2022.2.4,Win32,59.62673663,Chrome,1920,1080,,,,,0,1079,,,,,,,,,,,,,,,,,W,160,circle,1,0,,,,,,,,,,,,,,,,repeat,letter,lettRpt,f,Hi,,,,,,1.0775,4,,,,,,,,low,14,0,14,0,1,,,,,,,,,
