participant,date,expName,psychopyVersion,OS,frameRate,browser,xResolution,yResolution,key_resp.keys,key_resp.rt,training_resp.keys,training_resp.rt,points_trial,points_cumul,trainBlock,training.thisRepN,training.thisTrialN,training.thisN,training.thisIndex,training.ran,LTriangleOpac,LCircleOpac,LHexagonOpac,LStarOpac,RTriangleOpac,RCircleOpac,RHexagonOpac,RStarOpac,LShape_ID,RShape_ID,curr_topStim,curr_bottStim,curr_shape,acc,E1,target_resp_prac1.keys,pracBlock,task1_prac_trials.thisRepN,task1_prac_trials.thisTrialN,task1_prac_trials.thisN,task1_prac_trials.thisIndex,task1_prac_trials.ran,target_resp_prac1.rt,target_resp_prac2.keys,target_resp_prac2.rt,task2_praac_trials.thisRepN,task2_praac_trials.thisTrialN,task2_praac_trials.thisN,task2_praac_trials.thisIndex,task2_praac_trials.ran,alt,task,condition,target_resp.keys,target_resp.rt,rewCond,vts_practice_trials.thisRepN,vts_practice_trials.thisTrialN,vts_practice_trials.thisN,vts_practice_trials.thisIndex,vts_practice_trials.ran,blockNum,trials_norew.thisRepN,trials_norew.thisTrialN,trials_norew.thisN,trials_norew.thisIndex,trials_norew.ran,key_resp_2.keys,key_resp_2.rt,rewExpectancy,trials_rew.thisRepN,trials_rew.thisTrialN,trials_rew.thisN,trials_rew.thisIndex,trials_rew.ran,Q1,Q2,Q2_text,Q3,Q4,Q5_text,Q5,xRes,yRes
295675,2022-11-14_11h30.05.878,vts_reward_expectancy_bt,2022.2.4,MacIntel,60.0024001,Chrome,1440,900,,,,,,,,,,,,,,,,,,,,,,,,,,,,,,,,,,,,,,,,,,,,,,,,,,,,,,,,,,,,,,,,,,,,,,,,,,,,
295675,2022-11-14_11h30.05.878,vts_reward_expectancy_bt,2022.2.4,MacIntel,60.0024001,Chrome,1440,900,space,9.5422,,,,,,,,,,,,,,,,,,,,,,,,,,,,,,,,,,,,,,,,,,,,,,,,,,,,,,,,,,,,,,,,,,,,,,,,,,
295675,2022-11-14_11h30.05.878,vts_reward_expectancy_bt,2022.2.4,MacIntel,60.0024001,Chrome,1440,900,,,,,,,,,,,,,,,,,,,,,,,,,,,,,,,,,,,,,,,,,,,,,,,,,,,,,,,,,,,,,,,,,,,,,,,,,,,,
295675,2022-11-14_11h30.05.878,vts_reward_expectancy_bt,2022.2.4,MacIntel,60.0024001,Chrome,1440,900,,,l,3.7194,10,10,0,0,0,0,1,1,1,0,0,0,0,0,1,0,triangle,hexagon,,,,,,,,,,,,,,,,,,,,,,,,,,,,,,,,,,,,,,,,,,,,,,,,,,,,,,
295675,2022-11-14_11h30.05.878,vts_reward_expectancy_bt,2022.2.4,MacIntel,60.0024001,Chrome,1440,900,,,a,1.8138,10,20,0,0,1,1,4,1,0,1,0,0,0,0,1,0,circle,hexagon,,,,,,,,,,,,,,,,,,,,,,,,,,,,,,,,,,,,,,,,,,,,,,,,,,,,,,
295675,2022-11-14_11h30.05.878,vts_reward_expectancy_bt,2022.2.4,MacIntel,60.0024001,Chrome,1440,900,,,a,0.967,1,21,0,0,2,2,0,1,1,0,0,0,0,1,0,0,triangle,circle,,,,,,,,,,,,,,,,,,,,,,,,,,,,,,,,,,,,,,,,,,,,,,,,,,,,,,
295675,2022-11-14_11h30.05.878,vts_reward_expectancy_bt,2022.2.4,MacIntel,60.0024001,Chrome,1440,900,,,l,1.6026,10,31,0,0,3,3,3,1,0,1,0,0,1,0,0,0,circle,triangle,,,,,,,,,,,,,,,,,,,,,,,,,,,,,,,,,,,,,,,,,,,,,,,,,,,,,,
295675,2022-11-14_11h30.05.878,vts_reward_expectancy_bt,2022.2.4,MacIntel,60.0024001,Chrome,1440,900,,,a,1.6565,1,32,0,0,4,4,11,1,0,0,0,1,0,0,1,0,star,hexagon,,,,,,,,,,,,,,,,,,,,,,,,,,,,,,,,,,,,,,,,,,,,,,,,,,,,,,
295675,2022-11-14_11h30.05.878,vts_reward_expectancy_bt,2022.2.4,MacIntel,60.0024001,Chrome,1440,900,,,a,2.1862,10,42,0,0,5,5,5,1,0,1,0,0,0,0,0,1,circle,star,,,,,,,,,,,,,,,,,,,,,,,,,,,,,,,,,,,,,,,,,,,,,,,,,,,,,,
295675,2022-11-14_11h30.05.878,vts_reward_expectancy_bt,2022.2.4,MacIntel,60.0024001,Chrome,1440,900,,,a,2.353,1,43,0,0,6,6,7,1,0,0,1,0,0,1,0,0,hexagon,circle,,,,,,,,,,,,,,,,,,,,,,,,,,,,,,,,,,,,,,,,,,,,,,,,,,,,,,
295675,2022-11-14_11h30.05.878,vts_reward_expectancy_bt,2022.2.4,MacIntel,60.0024001,Chrome,1440,900,,,a,1.6197,1,44,0,0,7,7,9,1,0,0,0,1,1,0,0,0,star,triangle,,,,,,,,,,,,,,,,,,,,,,,,,,,,,,,,,,,,,,,,,,,,,,,,,,,,,,
295675,2022-11-14_11h30.05.878,vts_reward_expectancy_bt,2022.2.4,MacIntel,60.0024001,Chrome,1440,900,,,a,1.894,1,45,0,0,8,8,8,1,0,0,1,0,0,0,0,1,hexagon,star,,,,,,,,,,,,,,,,,,,,,,,,,,,,,,,,,,,,,,,,,,,,,,,,,,,,,,
295675,2022-11-14_11h30.05.878,vts_reward_expectancy_bt,2022.2.4,MacIntel,60.0024001,Chrome,1440,900,,,a,1.0776,1,46,0,0,9,9,10,1,0,0,0,1,0,1,0,0,star ,circle,,,,,,,,,,,,,,,,,,,,,,,,,,,,,,,,,,,,,,,,,,,,,,,,,,,,,,
295675,2022-11-14_11h30.05.878,vts_reward_expectancy_bt,2022.2.4,MacIntel,60.0024001,Chrome,1440,900,,,a,0.7233,1,47,0,0,10,10,6,1,0,0,1,0,1,0,0,0,hexagon,triangle,,,,,,,,,,,,,,,,,,,,,,,,,,,,,,,,,,,,,,,,,,,,,,,,,,,,,,
295675,2022-11-14_11h30.05.878,vts_reward_expectancy_bt,2022.2.4,MacIntel,60.0024001,Chrome,1440,900,,,l,0.6649,1,48,0,0,11,11,2,1,1,0,0,0,0,0,0,1,triangle,star,,,,,,,,,,,,,,,,,,,,,,,,,,,,,,,,,,,,,,,,,,,,,,,,,,,,,,
295675,2022-11-14_11h30.05.878,vts_reward_expectancy_bt,2022.2.4,MacIntel,60.0024001,Chrome,1440,900,,,l,0.5869,10,58,0,1,0,12,0,1,1,0,0,0,0,1,0,0,triangle,circle,,,,,,,,,,,,,,,,,,,,,,,,,,,,,,,,,,,,,,,,,,,,,,,,,,,,,,
295675,2022-11-14_11h30.05.878,vts_reward_expectancy_bt,2022.2.4,MacIntel,60.0024001,Chrome,1440,900,,,l,0.5715,10,68,0,1,1,13,10,1,0,0,0,1,0,1,0,0,star ,circle,,,,,,,,,,,,,,,,,,,,,,,,,,,,,,,,,,,,,,,,,,,,,,,,,,,,,,
295675,2022-11-14_11h30.05.878,vts_reward_expectancy_bt,2022.2.4,MacIntel,60.0024001,Chrome,1440,900,,,a,1.5284,10,78,0,1,2,14,3,1,0,1,0,0,1,0,0,0,circle,triangle,,,,,,,,,,,,,,,,,,,,,,,,,,,,,,,,,,,,,,,,,,,,,,,,,,,,,,
295675,2022-11-14_11h30.05.878,vts_reward_expectancy_bt,2022.2.4,MacIntel,60.0024001,Chrome,1440,900,,,l,0.9526,10,88,0,1,3,15,9,1,0,0,0,1,1,0,0,0,star,triangle,,,,,,,,,,,,,,,,,,,,,,,,,,,,,,,,,,,,,,,,,,,,,,,,,,,,,,
295675,2022-11-14_11h30.05.878,vts_reward_expectancy_bt,2022.2.4,MacIntel,60.0024001,Chrome,1440,900,,,l,2.3556,1,89,0,1,4,16,2,1,1,0,0,0,0,0,0,1,triangle,star,,,,,,,,,,,,,,,,,,,,,,,,,,,,,,,,,,,,,,,,,,,,,,,,,,,,,,
295675,2022-11-14_11h30.05.878,vts_reward_expectancy_bt,2022.2.4,MacIntel,60.0024001,Chrome,1440,900,,,l,1.9927,1,90,0,1,5,17,1,1,1,0,0,0,0,0,1,0,triangle,hexagon,,,,,,,,,,,,,,,,,,,,,,,,,,,,,,,,,,,,,,,,,,,,,,,,,,,,,,
295675,2022-11-14_11h30.05.878,vts_reward_expectancy_bt,2022.2.4,MacIntel,60.0024001,Chrome,1440,900,,,a,1.5347,1,91,0,1,6,18,11,1,0,0,0,1,0,0,1,0,star,hexagon,,,,,,,,,,,,,,,,,,,,,,,,,,,,,,,,,,,,,,,,,,,,,,,,,,,,,,
295675,2022-11-14_11h30.05.878,vts_reward_expectancy_bt,2022.2.4,MacIntel,60.0024001,Chrome,1440,900,,,a,1.4046,10,101,0,1,7,19,5,1,0,1,0,0,0,0,0,1,circle,star,,,,,,,,,,,,,,,,,,,,,,,,,,,,,,,,,,,,,,,,,,,,,,,,,,,,,,
295675,2022-11-14_11h30.05.878,vts_reward_expectancy_bt,2022.2.4,MacIntel,60.0024001,Chrome,1440,900,,,a,1.0201,10,111,0,1,8,20,8,1,0,0,1,0,0,0,0,1,hexagon,star,,,,,,,,,,,,,,,,,,,,,,,,,,,,,,,,,,,,,,,,,,,,,,,,,,,,,,
295675,2022-11-14_11h30.05.878,vts_reward_expectancy_bt,2022.2.4,MacIntel,60.0024001,Chrome,1440,900,,,l,1.4703,10,121,0,1,9,21,7,1,0,0,1,0,0,1,0,0,hexagon,circle,,,,,,,,,,,,,,,,,,,,,,,,,,,,,,,,,,,,,,,,,,,,,,,,,,,,,,
295675,2022-11-14_11h30.05.878,vts_reward_expectancy_bt,2022.2.4,MacIntel,60.0024001,Chrome,1440,900,,,a,1.0516,10,131,0,1,10,22,4,1,0,1,0,0,0,0,1,0,circle,hexagon,,,,,,,,,,,,,,,,,,,,,,,,,,,,,,,,,,,,,,,,,,,,,,,,,,,,,,
295675,2022-11-14_11h30.05.878,vts_reward_expectancy_bt,2022.2.4,MacIntel,60.0024001,Chrome,1440,900,,,l,1.7914,10,141,0,1,11,23,6,1,0,0,1,0,1,0,0,0,hexagon,triangle,,,,,,,,,,,,,,,,,,,,,,,,,,,,,,,,,,,,,,,,,,,,,,,,,,,,,,
295675,2022-11-14_11h30.05.878,vts_reward_expectancy_bt,2022.2.4,MacIntel,60.0024001,Chrome,1440,900,,,a,0.766,10,151,0,2,0,24,5,1,0,1,0,0,0,0,0,1,circle,star,,,,,,,,,,,,,,,,,,,,,,,,,,,,,,,,,,,,,,,,,,,,,,,,,,,,,,
295675,2022-11-14_11h30.05.878,vts_reward_expectancy_bt,2022.2.4,MacIntel,60.0024001,Chrome,1440,900,,,a,1.0498,10,161,0,2,1,25,4,1,0,1,0,0,0,0,1,0,circle,hexagon,,,,,,,,,,,,,,,,,,,,,,,,,,,,,,,,,,,,,,,,,,,,,,,,,,,,,,
295675,2022-11-14_11h30.05.878,vts_reward_expectancy_bt,2022.2.4,MacIntel,60.0024001,Chrome,1440,900,,,l,1.6322,10,171,0,2,2,26,6,1,0,0,1,0,1,0,0,0,hexagon,triangle,,,,,,,,,,,,,,,,,,,,,,,,,,,,,,,,,,,,,,,,,,,,,,,,,,,,,,
295675,2022-11-14_11h30.05.878,vts_reward_expectancy_bt,2022.2.4,MacIntel,60.0024001,Chrome,1440,900,,,a,1.299,10,181,0,2,3,27,1,1,1,0,0,0,0,0,1,0,triangle,hexagon,,,,,,,,,,,,,,,,,,,,,,,,,,,,,,,,,,,,,,,,,,,,,,,,,,,,,,
295675,2022-11-14_11h30.05.878,vts_reward_expectancy_bt,2022.2.4,MacIntel,60.0024001,Chrome,1440,900,,,l,1.6176,10,191,0,2,4,28,7,1,0,0,1,0,0,1,0,0,hexagon,circle,,,,,,,,,,,,,,,,,,,,,,,,,,,,,,,,,,,,,,,,,,,,,,,,,,,,,,
295675,2022-11-14_11h30.05.878,vts_reward_expectancy_bt,2022.2.4,MacIntel,60.0024001,Chrome,1440,900,,,a,1.9928,10,201,0,2,5,29,3,1,0,1,0,0,1,0,0,0,circle,triangle,,,,,,,,,,,,,,,,,,,,,,,,,,,,,,,,,,,,,,,,,,,,,,,,,,,,,,
295675,2022-11-14_11h30.05.878,vts_reward_expectancy_bt,2022.2.4,MacIntel,60.0024001,Chrome,1440,900,,,l,0.7571,10,211,0,2,6,30,10,1,0,0,0,1,0,1,0,0,star ,circle,,,,,,,,,,,,,,,,,,,,,,,,,,,,,,,,,,,,,,,,,,,,,,,,,,,,,,
295675,2022-11-14_11h30.05.878,vts_reward_expectancy_bt,2022.2.4,MacIntel,60.0024001,Chrome,1440,900,,,l,1.0728,1,212,0,2,7,31,11,1,0,0,0,1,0,0,1,0,star,hexagon,,,,,,,,,,,,,,,,,,,,,,,,,,,,,,,,,,,,,,,,,,,,,,,,,,,,,,
295675,2022-11-14_11h30.05.878,vts_reward_expectancy_bt,2022.2.4,MacIntel,60.0024001,Chrome,1440,900,,,l,1.0486,10,222,0,2,8,32,0,1,1,0,0,0,0,1,0,0,triangle,circle,,,,,,,,,,,,,,,,,,,,,,,,,,,,,,,,,,,,,,,,,,,,,,,,,,,,,,
295675,2022-11-14_11h30.05.878,vts_reward_expectancy_bt,2022.2.4,MacIntel,60.0024001,Chrome,1440,900,,,a,2.2707,10,232,0,2,9,33,2,1,1,0,0,0,0,0,0,1,triangle,star,,,,,,,,,,,,,,,,,,,,,,,,,,,,,,,,,,,,,,,,,,,,,,,,,,,,,,
295675,2022-11-14_11h30.05.878,vts_reward_expectancy_bt,2022.2.4,MacIntel,60.0024001,Chrome,1440,900,,,l,0.9535,10,242,0,2,10,34,9,1,0,0,0,1,1,0,0,0,star,triangle,,,,,,,,,,,,,,,,,,,,,,,,,,,,,,,,,,,,,,,,,,,,,,,,,,,,,,
295675,2022-11-14_11h30.05.878,vts_reward_expectancy_bt,2022.2.4,MacIntel,60.0024001,Chrome,1440,900,,,l,1.5521,1,243,0,2,11,35,8,1,0,0,1,0,0,0,0,1,hexagon,star,,,,,,,,,,,,,,,,,,,,,,,,,,,,,,,,,,,,,,,,,,,,,,,,,,,,,,
295675,2022-11-14_11h30.05.878,vts_reward_expectancy_bt,2022.2.4,MacIntel,60.0024001,Chrome,1440,900,,,a,1.0086,10,253,1,0,0,0,4,1,0,1,0,0,0,0,1,0,circle,hexagon,,,,,,,,,,,,,,,,,,,,,,,,,,,,,,,,,,,,,,,,,,,,,,,,,,,,,,
295675,2022-11-14_11h30.05.878,vts_reward_expectancy_bt,2022.2.4,MacIntel,60.0024001,Chrome,1440,900,,,a,0.6976,1,254,1,0,1,1,5,1,0,1,0,0,0,0,0,1,circle,star,,,,,,,,,,,,,,,,,,,,,,,,,,,,,,,,,,,,,,,,,,,,,,,,,,,,,,
295675,2022-11-14_11h30.05.878,vts_reward_expectancy_bt,2022.2.4,MacIntel,60.0024001,Chrome,1440,900,,,l,0.9856,10,264,1,0,2,2,7,1,0,0,1,0,0,1,0,0,hexagon,circle,,,,,,,,,,,,,,,,,,,,,,,,,,,,,,,,,,,,,,,,,,,,,,,,,,,,,,
295675,2022-11-14_11h30.05.878,vts_reward_expectancy_bt,2022.2.4,MacIntel,60.0024001,Chrome,1440,900,,,l,2.021,10,274,1,0,3,3,10,1,0,0,0,1,0,1,0,0,star ,circle,,,,,,,,,,,,,,,,,,,,,,,,,,,,,,,,,,,,,,,,,,,,,,,,,,,,,,
295675,2022-11-14_11h30.05.878,vts_reward_expectancy_bt,2022.2.4,MacIntel,60.0024001,Chrome,1440,900,,,a,1.0694,10,284,1,0,4,4,1,1,1,0,0,0,0,0,1,0,triangle,hexagon,,,,,,,,,,,,,,,,,,,,,,,,,,,,,,,,,,,,,,,,,,,,,,,,,,,,,,
295675,2022-11-14_11h30.05.878,vts_reward_expectancy_bt,2022.2.4,MacIntel,60.0024001,Chrome,1440,900,,,l,1.2508,10,294,1,0,5,5,6,1,0,0,1,0,1,0,0,0,hexagon,triangle,,,,,,,,,,,,,,,,,,,,,,,,,,,,,,,,,,,,,,,,,,,,,,,,,,,,,,
295675,2022-11-14_11h30.05.878,vts_reward_expectancy_bt,2022.2.4,MacIntel,60.0024001,Chrome,1440,900,,,l,1.2098,10,304,1,0,6,6,0,1,1,0,0,0,0,1,0,0,triangle,circle,,,,,,,,,,,,,,,,,,,,,,,,,,,,,,,,,,,,,,,,,,,,,,,,,,,,,,
295675,2022-11-14_11h30.05.878,vts_reward_expectancy_bt,2022.2.4,MacIntel,60.0024001,Chrome,1440,900,,,l,1.9852,1,305,1,0,7,7,8,1,0,0,1,0,0,0,0,1,hexagon,star,,,,,,,,,,,,,,,,,,,,,,,,,,,,,,,,,,,,,,,,,,,,,,,,,,,,,,
295675,2022-11-14_11h30.05.878,vts_reward_expectancy_bt,2022.2.4,MacIntel,60.0024001,Chrome,1440,900,,,l,1.2407,1,306,1,0,8,8,9,1,0,0,0,1,1,0,0,0,star,triangle,,,,,,,,,,,,,,,,,,,,,,,,,,,,,,,,,,,,,,,,,,,,,,,,,,,,,,
295675,2022-11-14_11h30.05.878,vts_reward_expectancy_bt,2022.2.4,MacIntel,60.0024001,Chrome,1440,900,,,a,2.401,1,307,1,0,9,9,11,1,0,0,0,1,0,0,1,0,star,hexagon,,,,,,,,,,,,,,,,,,,,,,,,,,,,,,,,,,,,,,,,,,,,,,,,,,,,,,
295675,2022-11-14_11h30.05.878,vts_reward_expectancy_bt,2022.2.4,MacIntel,60.0024001,Chrome,1440,900,,,a,0.9676,10,317,1,0,10,10,3,1,0,1,0,0,1,0,0,0,circle,triangle,,,,,,,,,,,,,,,,,,,,,,,,,,,,,,,,,,,,,,,,,,,,,,,,,,,,,,
295675,2022-11-14_11h30.05.878,vts_reward_expectancy_bt,2022.2.4,MacIntel,60.0024001,Chrome,1440,900,,,l,0.9225,1,318,1,0,11,11,2,1,1,0,0,0,0,0,0,1,triangle,star,,,,,,,,,,,,,,,,,,,,,,,,,,,,,,,,,,,,,,,,,,,,,,,,,,,,,,
295675,2022-11-14_11h30.05.878,vts_reward_expectancy_bt,2022.2.4,MacIntel,60.0024001,Chrome,1440,900,,,a,0.6318,10,328,1,1,0,12,1,1,1,0,0,0,0,0,1,0,triangle,hexagon,,,,,,,,,,,,,,,,,,,,,,,,,,,,,,,,,,,,,,,,,,,,,,,,,,,,,,
295675,2022-11-14_11h30.05.878,vts_reward_expectancy_bt,2022.2.4,MacIntel,60.0024001,Chrome,1440,900,,,a,0.4554,10,338,1,1,1,13,2,1,1,0,0,0,0,0,0,1,triangle,star,,,,,,,,,,,,,,,,,,,,,,,,,,,,,,,,,,,,,,,,,,,,,,,,,,,,,,
295675,2022-11-14_11h30.05.878,vts_reward_expectancy_bt,2022.2.4,MacIntel,60.0024001,Chrome,1440,900,,,a,0.6472,1,339,1,1,2,14,5,1,0,1,0,0,0,0,0,1,circle,star,,,,,,,,,,,,,,,,,,,,,,,,,,,,,,,,,,,,,,,,,,,,,,,,,,,,,,
295675,2022-11-14_11h30.05.878,vts_reward_expectancy_bt,2022.2.4,MacIntel,60.0024001,Chrome,1440,900,,,l,1.483,1,340,1,1,3,15,0,1,1,0,0,0,0,1,0,0,triangle,circle,,,,,,,,,,,,,,,,,,,,,,,,,,,,,,,,,,,,,,,,,,,,,,,,,,,,,,
295675,2022-11-14_11h30.05.878,vts_reward_expectancy_bt,2022.2.4,MacIntel,60.0024001,Chrome,1440,900,,,a,2.0744,1,341,1,1,4,16,11,1,0,0,0,1,0,0,1,0,star,hexagon,,,,,,,,,,,,,,,,,,,,,,,,,,,,,,,,,,,,,,,,,,,,,,,,,,,,,,
295675,2022-11-14_11h30.05.878,vts_reward_expectancy_bt,2022.2.4,MacIntel,60.0024001,Chrome,1440,900,,,l,1.5381,1,342,1,1,5,17,8,1,0,0,1,0,0,0,0,1,hexagon,star,,,,,,,,,,,,,,,,,,,,,,,,,,,,,,,,,,,,,,,,,,,,,,,,,,,,,,
295675,2022-11-14_11h30.05.878,vts_reward_expectancy_bt,2022.2.4,MacIntel,60.0024001,Chrome,1440,900,,,a,1.3658,1,343,1,1,6,18,6,1,0,0,1,0,1,0,0,0,hexagon,triangle,,,,,,,,,,,,,,,,,,,,,,,,,,,,,,,,,,,,,,,,,,,,,,,,,,,,,,
295675,2022-11-14_11h30.05.878,vts_reward_expectancy_bt,2022.2.4,MacIntel,60.0024001,Chrome,1440,900,,,a,0.8113,10,353,1,1,7,19,4,1,0,1,0,0,0,0,1,0,circle,hexagon,,,,,,,,,,,,,,,,,,,,,,,,,,,,,,,,,,,,,,,,,,,,,,,,,,,,,,
295675,2022-11-14_11h30.05.878,vts_reward_expectancy_bt,2022.2.4,MacIntel,60.0024001,Chrome,1440,900,,,l,1.1678,1,354,1,1,8,20,9,1,0,0,0,1,1,0,0,0,star,triangle,,,,,,,,,,,,,,,,,,,,,,,,,,,,,,,,,,,,,,,,,,,,,,,,,,,,,,
295675,2022-11-14_11h30.05.878,vts_reward_expectancy_bt,2022.2.4,MacIntel,60.0024001,Chrome,1440,900,,,l,0.895,1,355,1,1,9,21,7,1,0,0,1,0,0,1,0,0,hexagon,circle,,,,,,,,,,,,,,,,,,,,,,,,,,,,,,,,,,,,,,,,,,,,,,,,,,,,,,
295675,2022-11-14_11h30.05.878,vts_reward_expectancy_bt,2022.2.4,MacIntel,60.0024001,Chrome,1440,900,,,a,0.6228,10,365,1,1,10,22,3,1,0,1,0,0,1,0,0,0,circle,triangle,,,,,,,,,,,,,,,,,,,,,,,,,,,,,,,,,,,,,,,,,,,,,,,,,,,,,,
295675,2022-11-14_11h30.05.878,vts_reward_expectancy_bt,2022.2.4,MacIntel,60.0024001,Chrome,1440,900,,,a,3.6016,10,375,1,1,11,23,10,1,0,0,0,1,0,1,0,0,star ,circle,,,,,,,,,,,,,,,,,,,,,,,,,,,,,,,,,,,,,,,,,,,,,,,,,,,,,,
295675,2022-11-14_11h30.05.878,vts_reward_expectancy_bt,2022.2.4,MacIntel,60.0024001,Chrome,1440,900,,,a,1.8908,1,376,1,2,0,24,6,1,0,0,1,0,1,0,0,0,hexagon,triangle,,,,,,,,,,,,,,,,,,,,,,,,,,,,,,,,,,,,,,,,,,,,,,,,,,,,,,
295675,2022-11-14_11h30.05.878,vts_reward_expectancy_bt,2022.2.4,MacIntel,60.0024001,Chrome,1440,900,,,l,3.8186,10,386,1,2,1,25,0,1,1,0,0,0,0,1,0,0,triangle,circle,,,,,,,,,,,,,,,,,,,,,,,,,,,,,,,,,,,,,,,,,,,,,,,,,,,,,,
295675,2022-11-14_11h30.05.878,vts_reward_expectancy_bt,2022.2.4,MacIntel,60.0024001,Chrome,1440,900,,,a,1.2082,1,387,1,2,2,26,3,1,0,1,0,0,1,0,0,0,circle,triangle,,,,,,,,,,,,,,,,,,,,,,,,,,,,,,,,,,,,,,,,,,,,,,,,,,,,,,
295675,2022-11-14_11h30.05.878,vts_reward_expectancy_bt,2022.2.4,MacIntel,60.0024001,Chrome,1440,900,,,a,0.7413,10,397,1,2,3,27,2,1,1,0,0,0,0,0,0,1,triangle,star,,,,,,,,,,,,,,,,,,,,,,,,,,,,,,,,,,,,,,,,,,,,,,,,,,,,,,
295675,2022-11-14_11h30.05.878,vts_reward_expectancy_bt,2022.2.4,MacIntel,60.0024001,Chrome,1440,900,,,a,0.8482,1,398,1,2,4,28,4,1,0,1,0,0,0,0,1,0,circle,hexagon,,,,,,,,,,,,,,,,,,,,,,,,,,,,,,,,,,,,,,,,,,,,,,,,,,,,,,
295675,2022-11-14_11h30.05.878,vts_reward_expectancy_bt,2022.2.4,MacIntel,60.0024001,Chrome,1440,900,,,a,1.4048,1,399,1,2,5,29,9,1,0,0,0,1,1,0,0,0,star,triangle,,,,,,,,,,,,,,,,,,,,,,,,,,,,,,,,,,,,,,,,,,,,,,,,,,,,,,
295675,2022-11-14_11h30.05.878,vts_reward_expectancy_bt,2022.2.4,MacIntel,60.0024001,Chrome,1440,900,,,a,1.4657,10,409,1,2,6,30,5,1,0,1,0,0,0,0,0,1,circle,star,,,,,,,,,,,,,,,,,,,,,,,,,,,,,,,,,,,,,,,,,,,,,,,,,,,,,,
295675,2022-11-14_11h30.05.878,vts_reward_expectancy_bt,2022.2.4,MacIntel,60.0024001,Chrome,1440,900,,,l,0.7035,10,419,1,2,7,31,10,1,0,0,0,1,0,1,0,0,star ,circle,,,,,,,,,,,,,,,,,,,,,,,,,,,,,,,,,,,,,,,,,,,,,,,,,,,,,,
295675,2022-11-14_11h30.05.878,vts_reward_expectancy_bt,2022.2.4,MacIntel,60.0024001,Chrome,1440,900,,,a,0.6491,1,420,1,2,8,32,1,1,1,0,0,0,0,0,1,0,triangle,hexagon,,,,,,,,,,,,,,,,,,,,,,,,,,,,,,,,,,,,,,,,,,,,,,,,,,,,,,
295675,2022-11-14_11h30.05.878,vts_reward_expectancy_bt,2022.2.4,MacIntel,60.0024001,Chrome,1440,900,,,a,6.6064,1,421,1,2,9,33,11,1,0,0,0,1,0,0,1,0,star,hexagon,,,,,,,,,,,,,,,,,,,,,,,,,,,,,,,,,,,,,,,,,,,,,,,,,,,,,,
295675,2022-11-14_11h30.05.878,vts_reward_expectancy_bt,2022.2.4,MacIntel,60.0024001,Chrome,1440,900,,,l,1.159,10,431,1,2,10,34,8,1,0,0,1,0,0,0,0,1,hexagon,star,,,,,,,,,,,,,,,,,,,,,,,,,,,,,,,,,,,,,,,,,,,,,,,,,,,,,,
295675,2022-11-14_11h30.05.878,vts_reward_expectancy_bt,2022.2.4,MacIntel,60.0024001,Chrome,1440,900,,,l,24.0567,10,441,1,2,11,35,7,1,0,0,1,0,0,1,0,0,hexagon,circle,,,,,,,,,,,,,,,,,,,,,,,,,,,,,,,,,,,,,,,,,,,,,,,,,,,,,,
295675,2022-11-14_11h30.05.878,vts_reward_expectancy_bt,2022.2.4,MacIntel,60.0024001,Chrome,1440,900,,,a,1.1966,1,442,2,0,0,0,5,1,0,1,0,0,0,0,0,1,circle,star,,,,,,,,,,,,,,,,,,,,,,,,,,,,,,,,,,,,,,,,,,,,,,,,,,,,,,
295675,2022-11-14_11h30.05.878,vts_reward_expectancy_bt,2022.2.4,MacIntel,60.0024001,Chrome,1440,900,,,l,0.7483,1,443,2,0,1,1,4,1,0,1,0,0,0,0,1,0,circle,hexagon,,,,,,,,,,,,,,,,,,,,,,,,,,,,,,,,,,,,,,,,,,,,,,,,,,,,,,
295675,2022-11-14_11h30.05.878,vts_reward_expectancy_bt,2022.2.4,MacIntel,60.0024001,Chrome,1440,900,,,a,0.3648,1,444,2,0,2,2,3,1,0,1,0,0,1,0,0,0,circle,triangle,,,,,,,,,,,,,,,,,,,,,,,,,,,,,,,,,,,,,,,,,,,,,,,,,,,,,,
295675,2022-11-14_11h30.05.878,vts_reward_expectancy_bt,2022.2.4,MacIntel,60.0024001,Chrome,1440,900,,,a,1.3508,1,445,2,0,3,3,11,1,0,0,0,1,0,0,1,0,star,hexagon,,,,,,,,,,,,,,,,,,,,,,,,,,,,,,,,,,,,,,,,,,,,,,,,,,,,,,
295675,2022-11-14_11h30.05.878,vts_reward_expectancy_bt,2022.2.4,MacIntel,60.0024001,Chrome,1440,900,,,a,0.8024,10,455,2,0,4,4,1,1,1,0,0,0,0,0,1,0,triangle,hexagon,,,,,,,,,,,,,,,,,,,,,,,,,,,,,,,,,,,,,,,,,,,,,,,,,,,,,,
295675,2022-11-14_11h30.05.878,vts_reward_expectancy_bt,2022.2.4,MacIntel,60.0024001,Chrome,1440,900,,,l,0.8051,10,465,2,0,5,5,7,1,0,0,1,0,0,1,0,0,hexagon,circle,,,,,,,,,,,,,,,,,,,,,,,,,,,,,,,,,,,,,,,,,,,,,,,,,,,,,,
295675,2022-11-14_11h30.05.878,vts_reward_expectancy_bt,2022.2.4,MacIntel,60.0024001,Chrome,1440,900,,,l,1.2373,1,466,2,0,6,6,8,1,0,0,1,0,0,0,0,1,hexagon,star,,,,,,,,,,,,,,,,,,,,,,,,,,,,,,,,,,,,,,,,,,,,,,,,,,,,,,
295675,2022-11-14_11h30.05.878,vts_reward_expectancy_bt,2022.2.4,MacIntel,60.0024001,Chrome,1440,900,,,l,1.0197,10,476,2,0,7,7,0,1,1,0,0,0,0,1,0,0,triangle,circle,,,,,,,,,,,,,,,,,,,,,,,,,,,,,,,,,,,,,,,,,,,,,,,,,,,,,,
295675,2022-11-14_11h30.05.878,vts_reward_expectancy_bt,2022.2.4,MacIntel,60.0024001,Chrome,1440,900,,,a,1.8167,10,486,2,0,8,8,10,1,0,0,0,1,0,1,0,0,star ,circle,,,,,,,,,,,,,,,,,,,,,,,,,,,,,,,,,,,,,,,,,,,,,,,,,,,,,,
295675,2022-11-14_11h30.05.878,vts_reward_expectancy_bt,2022.2.4,MacIntel,60.0024001,Chrome,1440,900,,,l,7.3402,10,496,2,0,9,9,9,1,0,0,0,1,1,0,0,0,star,triangle,,,,,,,,,,,,,,,,,,,,,,,,,,,,,,,,,,,,,,,,,,,,,,,,,,,,,,
295675,2022-11-14_11h30.05.878,vts_reward_expectancy_bt,2022.2.4,MacIntel,60.0024001,Chrome,1440,900,,,l,1.3069,10,506,2,0,10,10,6,1,0,0,1,0,1,0,0,0,hexagon,triangle,,,,,,,,,,,,,,,,,,,,,,,,,,,,,,,,,,,,,,,,,,,,,,,,,,,,,,
295675,2022-11-14_11h30.05.878,vts_reward_expectancy_bt,2022.2.4,MacIntel,60.0024001,Chrome,1440,900,,,a,19.1329,10,516,2,0,11,11,2,1,1,0,0,0,0,0,0,1,triangle,star,,,,,,,,,,,,,,,,,,,,,,,,,,,,,,,,,,,,,,,,,,,,,,,,,,,,,,
295675,2022-11-14_11h30.05.878,vts_reward_expectancy_bt,2022.2.4,MacIntel,60.0024001,Chrome,1440,900,,,l,3.0048,1,517,2,1,0,12,2,1,1,0,0,0,0,0,0,1,triangle,star,,,,,,,,,,,,,,,,,,,,,,,,,,,,,,,,,,,,,,,,,,,,,,,,,,,,,,
295675,2022-11-14_11h30.05.878,vts_reward_expectancy_bt,2022.2.4,MacIntel,60.0024001,Chrome,1440,900,,,l,1.7356,10,527,2,1,1,13,4,1,0,1,0,0,0,0,1,0,circle,hexagon,,,,,,,,,,,,,,,,,,,,,,,,,,,,,,,,,,,,,,,,,,,,,,,,,,,,,,
295675,2022-11-14_11h30.05.878,vts_reward_expectancy_bt,2022.2.4,MacIntel,60.0024001,Chrome,1440,900,,,l,2.1895,1,528,2,1,2,14,11,1,0,0,0,1,0,0,1,0,star,hexagon,,,,,,,,,,,,,,,,,,,,,,,,,,,,,,,,,,,,,,,,,,,,,,,,,,,,,,
295675,2022-11-14_11h30.05.878,vts_reward_expectancy_bt,2022.2.4,MacIntel,60.0024001,Chrome,1440,900,,,a,1.4959,1,529,2,1,3,15,5,1,0,1,0,0,0,0,0,1,circle,star,,,,,,,,,,,,,,,,,,,,,,,,,,,,,,,,,,,,,,,,,,,,,,,,,,,,,,
295675,2022-11-14_11h30.05.878,vts_reward_expectancy_bt,2022.2.4,MacIntel,60.0024001,Chrome,1440,900,,,a,0.7069,10,539,2,1,4,16,9,1,0,0,0,1,1,0,0,0,star,triangle,,,,,,,,,,,,,,,,,,,,,,,,,,,,,,,,,,,,,,,,,,,,,,,,,,,,,,
295675,2022-11-14_11h30.05.878,vts_reward_expectancy_bt,2022.2.4,MacIntel,60.0024001,Chrome,1440,900,,,l,2.4309,10,549,2,1,5,17,6,1,0,0,1,0,1,0,0,0,hexagon,triangle,,,,,,,,,,,,,,,,,,,,,,,,,,,,,,,,,,,,,,,,,,,,,,,,,,,,,,
295675,2022-11-14_11h30.05.878,vts_reward_expectancy_bt,2022.2.4,MacIntel,60.0024001,Chrome,1440,900,,,a,3.1283,10,559,2,1,6,18,3,1,0,1,0,0,1,0,0,0,circle,triangle,,,,,,,,,,,,,,,,,,,,,,,,,,,,,,,,,,,,,,,,,,,,,,,,,,,,,,
295675,2022-11-14_11h30.05.878,vts_reward_expectancy_bt,2022.2.4,MacIntel,60.0024001,Chrome,1440,900,,,l,3.3649,1,560,2,1,7,19,8,1,0,0,1,0,0,0,0,1,hexagon,star,,,,,,,,,,,,,,,,,,,,,,,,,,,,,,,,,,,,,,,,,,,,,,,,,,,,,,
295675,2022-11-14_11h30.05.878,vts_reward_expectancy_bt,2022.2.4,MacIntel,60.0024001,Chrome,1440,900,,,l,3.3861,10,570,2,1,8,20,0,1,1,0,0,0,0,1,0,0,triangle,circle,,,,,,,,,,,,,,,,,,,,,,,,,,,,,,,,,,,,,,,,,,,,,,,,,,,,,,
295675,2022-11-14_11h30.05.878,vts_reward_expectancy_bt,2022.2.4,MacIntel,60.0024001,Chrome,1440,900,,,a,3.2712,1,571,2,1,9,21,1,1,1,0,0,0,0,0,1,0,triangle,hexagon,,,,,,,,,,,,,,,,,,,,,,,,,,,,,,,,,,,,,,,,,,,,,,,,,,,,,,
295675,2022-11-14_11h30.05.878,vts_reward_expectancy_bt,2022.2.4,MacIntel,60.0024001,Chrome,1440,900,,,l,0.5097,10,581,2,1,10,22,10,1,0,0,0,1,0,1,0,0,star ,circle,,,,,,,,,,,,,,,,,,,,,,,,,,,,,,,,,,,,,,,,,,,,,,,,,,,,,,
295675,2022-11-14_11h30.05.878,vts_reward_expectancy_bt,2022.2.4,MacIntel,60.0024001,Chrome,1440,900,,,l,0.6694,10,591,2,1,11,23,7,1,0,0,1,0,0,1,0,0,hexagon,circle,,,,,,,,,,,,,,,,,,,,,,,,,,,,,,,,,,,,,,,,,,,,,,,,,,,,,,
295675,2022-11-14_11h30.05.878,vts_reward_expectancy_bt,2022.2.4,MacIntel,60.0024001,Chrome,1440,900,,,a,1.3237,1,592,2,2,0,24,6,1,0,0,1,0,1,0,0,0,hexagon,triangle,,,,,,,,,,,,,,,,,,,,,,,,,,,,,,,,,,,,,,,,,,,,,,,,,,,,,,
295675,2022-11-14_11h30.05.878,vts_reward_expectancy_bt,2022.2.4,MacIntel,60.0024001,Chrome,1440,900,,,l,0.4428,10,602,2,2,1,25,8,1,0,0,1,0,0,0,0,1,hexagon,star,,,,,,,,,,,,,,,,,,,,,,,,,,,,,,,,,,,,,,,,,,,,,,,,,,,,,,
295675,2022-11-14_11h30.05.878,vts_reward_expectancy_bt,2022.2.4,MacIntel,60.0024001,Chrome,1440,900,,,a,1.1774,10,612,2,2,2,26,1,1,1,0,0,0,0,0,1,0,triangle,hexagon,,,,,,,,,,,,,,,,,,,,,,,,,,,,,,,,,,,,,,,,,,,,,,,,,,,,,,
295675,2022-11-14_11h30.05.878,vts_reward_expectancy_bt,2022.2.4,MacIntel,60.0024001,Chrome,1440,900,,,l,0.9723,10,622,2,2,3,27,9,1,0,0,0,1,1,0,0,0,star,triangle,,,,,,,,,,,,,,,,,,,,,,,,,,,,,,,,,,,,,,,,,,,,,,,,,,,,,,
295675,2022-11-14_11h30.05.878,vts_reward_expectancy_bt,2022.2.4,MacIntel,60.0024001,Chrome,1440,900,,,a,1.5702,10,632,2,2,4,28,2,1,1,0,0,0,0,0,0,1,triangle,star,,,,,,,,,,,,,,,,,,,,,,,,,,,,,,,,,,,,,,,,,,,,,,,,,,,,,,
295675,2022-11-14_11h30.05.878,vts_reward_expectancy_bt,2022.2.4,MacIntel,60.0024001,Chrome,1440,900,,,a,0.6819,1,633,2,2,5,29,3,1,0,1,0,0,1,0,0,0,circle,triangle,,,,,,,,,,,,,,,,,,,,,,,,,,,,,,,,,,,,,,,,,,,,,,,,,,,,,,
295675,2022-11-14_11h30.05.878,vts_reward_expectancy_bt,2022.2.4,MacIntel,60.0024001,Chrome,1440,900,,,l,193.2583,10,643,2,2,6,30,0,1,1,0,0,0,0,1,0,0,triangle,circle,,,,,,,,,,,,,,,,,,,,,,,,,,,,,,,,,,,,,,,,,,,,,,,,,,,,,,
295675,2022-11-14_11h30.05.878,vts_reward_expectancy_bt,2022.2.4,MacIntel,60.0024001,Chrome,1440,900,,,l,1.5337,1,644,2,2,7,31,11,1,0,0,0,1,0,0,1,0,star,hexagon,,,,,,,,,,,,,,,,,,,,,,,,,,,,,,,,,,,,,,,,,,,,,,,,,,,,,,
295675,2022-11-14_11h30.05.878,vts_reward_expectancy_bt,2022.2.4,MacIntel,60.0024001,Chrome,1440,900,,,l,0.9706,10,654,2,2,8,32,10,1,0,0,0,1,0,1,0,0,star ,circle,,,,,,,,,,,,,,,,,,,,,,,,,,,,,,,,,,,,,,,,,,,,,,,,,,,,,,
295675,2022-11-14_11h30.05.878,vts_reward_expectancy_bt,2022.2.4,MacIntel,60.0024001,Chrome,1440,900,,,a,1.0289,1,655,2,2,9,33,7,1,0,0,1,0,0,1,0,0,hexagon,circle,,,,,,,,,,,,,,,,,,,,,,,,,,,,,,,,,,,,,,,,,,,,,,,,,,,,,,
295675,2022-11-14_11h30.05.878,vts_reward_expectancy_bt,2022.2.4,MacIntel,60.0024001,Chrome,1440,900,,,l,1.2308,1,656,2,2,10,34,5,1,0,1,0,0,0,0,0,1,circle,star,,,,,,,,,,,,,,,,,,,,,,,,,,,,,,,,,,,,,,,,,,,,,,,,,,,,,,
295675,2022-11-14_11h30.05.878,vts_reward_expectancy_bt,2022.2.4,MacIntel,60.0024001,Chrome,1440,900,,,a,0.5569,10,666,2,2,11,35,4,1,0,1,0,0,0,0,1,0,circle,hexagon,,,,,,,,,,,,,,,,,,,,,,,,,,,,,,,,,,,,,,,,,,,,,,,,,,,,,,
295675,2022-11-14_11h30.05.878,vts_reward_expectancy_bt,2022.2.4,MacIntel,60.0024001,Chrome,1440,900,,,,,,,,,,,,,,,,,,,,,,,160,B,triangle,0,0,,0,0,0,0,0,1,,,,,,,,,,,,,,,,,,,,,,,,,,,,,,,,,,,,,,,,,,
295675,2022-11-14_11h30.05.878,vts_reward_expectancy_bt,2022.2.4,MacIntel,60.0024001,Chrome,1440,900,,,,,,,,,,,,,,,,,,,,,,,125,F,star,1,1,d,0,1,0,1,0,1,1.6203,,,,,,,,,,,,,,,,,,,,,,,,,,,,,,,,,,,,,,,,,
295675,2022-11-14_11h30.05.878,vts_reward_expectancy_bt,2022.2.4,MacIntel,60.0024001,Chrome,1440,900,,,,,,,,,,,,,,,,,,,,,,,174,D,hexagon,1,0,f,0,2,0,2,0,1,0.7689,,,,,,,,,,,,,,,,,,,,,,,,,,,,,,,,,,,,,,,,,
295675,2022-11-14_11h30.05.878,vts_reward_expectancy_bt,2022.2.4,MacIntel,60.0024001,Chrome,1440,900,,,,,,,,,,,,,,,,,,,,,,,181,Y,circle,1,0,f,0,3,0,3,0,1,1.7295,,,,,,,,,,,,,,,,,,,,,,,,,,,,,,,,,,,,,,,,,
295675,2022-11-14_11h30.05.878,vts_reward_expectancy_bt,2022.2.4,MacIntel,60.0024001,Chrome,1440,900,,,,,,,,,,,,,,,,,,,,,,,139,W,triangle,1,0,d,0,4,0,4,0,1,0.9978,,,,,,,,,,,,,,,,,,,,,,,,,,,,,,,,,,,,,,,,,
295675,2022-11-14_11h30.05.878,vts_reward_expectancy_bt,2022.2.4,MacIntel,60.0024001,Chrome,1440,900,,,,,,,,,,,,,,,,,,,,,,,132,U,star,1,0,d,0,5,0,5,0,1,1.7763,,,,,,,,,,,,,,,,,,,,,,,,,,,,,,,,,,,,,,,,,
295675,2022-11-14_11h30.05.878,vts_reward_expectancy_bt,2022.2.4,MacIntel,60.0024001,Chrome,1440,900,,,,,,,,,,,,,,,,,,,,,,,146,H,hexagon,1,0,d,0,6,0,6,0,1,1.4956,,,,,,,,,,,,,,,,,,,,,,,,,,,,,,,,,,,,,,,,,
295675,2022-11-14_11h30.05.878,vts_reward_expectancy_bt,2022.2.4,MacIntel,60.0024001,Chrome,1440,900,,,,,,,,,,,,,,,,,,,,,,,167,S,circle,1,0,f,0,7,0,7,0,1,0.8127,,,,,,,,,,,,,,,,,,,,,,,,,,,,,,,,,,,,,,,,,
295675,2022-11-14_11h30.05.878,vts_reward_expectancy_bt,2022.2.4,MacIntel,60.0024001,Chrome,1440,900,,,,,,,,,,,,,,,,,,,,,,,160,B,star,1,0,f,0,8,0,8,0,1,1.3141,,,,,,,,,,,,,,,,,,,,,,,,,,,,,,,,,,,,,,,,,
295675,2022-11-14_11h30.05.878,vts_reward_expectancy_bt,2022.2.4,MacIntel,60.0024001,Chrome,1440,900,,,,,,,,,,,,,,,,,,,,,,,125,F,triangle,1,0,d,0,9,0,9,0,1,0.7129,,,,,,,,,,,,,,,,,,,,,,,,,,,,,,,,,,,,,,,,,
295675,2022-11-14_11h30.05.878,vts_reward_expectancy_bt,2022.2.4,MacIntel,60.0024001,Chrome,1440,900,,,,,,,,,,,,,,,,,,,,,,,132,S,star,1,0,,1,,,,,,,k,2.0792,0,0,0,0,1,,,,,,,,,,,,,,,,,,,,,,,,,,,,,,,,,,
295675,2022-11-14_11h30.05.878,vts_reward_expectancy_bt,2022.2.4,MacIntel,60.0024001,Chrome,1440,900,,,,,,,,,,,,,,,,,,,,,,,160,D,circle,1,0,,1,,,,,,,j,1.02,1,0,1,0,1,,,,,,,,,,,,,,,,,,,,,,,,,,,,,,,,,,
295675,2022-11-14_11h30.05.878,vts_reward_expectancy_bt,2022.2.4,MacIntel,60.0024001,Chrome,1440,900,,,,,,,,,,,,,,,,,,,,,,,174,B,hexagon,1,0,,1,,,,,,,j,0.9122,2,0,2,0,1,,,,,,,,,,,,,,,,,,,,,,,,,,,,,,,,,,
295675,2022-11-14_11h30.05.878,vts_reward_expectancy_bt,2022.2.4,MacIntel,60.0024001,Chrome,1440,900,,,,,,,,,,,,,,,,,,,,,,,139,Y,triangle,1,0,,1,,,,,,,k,1.0632,3,0,3,0,1,,,,,,,,,,,,,,,,,,,,,,,,,,,,,,,,,,
295675,2022-11-14_11h30.05.878,vts_reward_expectancy_bt,2022.2.4,MacIntel,60.0024001,Chrome,1440,900,,,,,,,,,,,,,,,,,,,,,,,181,H,star,1,0,,1,,,,,,,j,1.2471,4,0,4,0,1,,,,,,,,,,,,,,,,,,,,,,,,,,,,,,,,,,
295675,2022-11-14_11h30.05.878,vts_reward_expectancy_bt,2022.2.4,MacIntel,60.0024001,Chrome,1440,900,,,,,,,,,,,,,,,,,,,,,,,146,U,circle,1,0,,1,,,,,,,k,0.9481,5,0,5,0,1,,,,,,,,,,,,,,,,,,,,,,,,,,,,,,,,,,
295675,2022-11-14_11h30.05.878,vts_reward_expectancy_bt,2022.2.4,MacIntel,60.0024001,Chrome,1440,900,,,,,,,,,,,,,,,,,,,,,,,167,F,hexagon,1,0,,1,,,,,,,j,1.3808,6,0,6,0,1,,,,,,,,,,,,,,,,,,,,,,,,,,,,,,,,,,
295675,2022-11-14_11h30.05.878,vts_reward_expectancy_bt,2022.2.4,MacIntel,60.0024001,Chrome,1440,900,,,,,,,,,,,,,,,,,,,,,,,125,W,triangle,1,0,,1,,,,,,,k,0.8801,7,0,7,0,1,,,,,,,,,,,,,,,,,,,,,,,,,,,,,,,,,,
295675,2022-11-14_11h30.05.878,vts_reward_expectancy_bt,2022.2.4,MacIntel,60.0024001,Chrome,1440,900,,,,,,,,,,,,,,,,,,,,,,,132,S,circle,1,0,,1,,,,,,,k,0.8974,8,0,8,0,1,,,,,,,,,,,,,,,,,,,,,,,,,,,,,,,,,,
295675,2022-11-14_11h30.05.878,vts_reward_expectancy_bt,2022.2.4,MacIntel,60.0024001,Chrome,1440,900,,,,,,,,,,,,,,,,,,,,,,,160,D,hexagon,1,0,,1,,,,,,,j,1.412,9,0,9,0,1,,,,,,,,,,,,,,,,,,,,,,,,,,,,,,,,,,
295675,2022-11-14_11h30.05.878,vts_reward_expectancy_bt,2022.2.4,MacIntel,60.0024001,Chrome,1440,900,,,,,0,666,,,,,,,,,,,,,,,,,167,Y,circle,0,0,,2,,,,,,,,,,,,,,-1,number,NA,d,2.5263,vtsPrac,0,0,0,0,1,,,,,,,,,,,,,,,,,,,,,,,
295675,2022-11-14_11h30.05.878,vts_reward_expectancy_bt,2022.2.4,MacIntel,60.0024001,Chrome,1440,900,,,,,0,666,,,,,,,,,,,,,,,,,160,D,hexagon,-1,1,,2,,,,,,,,,,,,,,switch,no_choice,NA,,,vtsPrac,1,0,1,0,1,,,,,,,,,,,,,,,,,,,,,,,
295675,2022-11-14_11h30.05.878,vts_reward_expectancy_bt,2022.2.4,MacIntel,60.0024001,Chrome,1440,900,,,,,0,666,,,,,,,,,,,,,,,,,181,S,circle,1,0,,2,,,,,,,,,,,,,,switch,number,numSwt,f,1.0457,vtsPrac,2,0,2,0,1,,,,,,,,,,,,,,,,,,,,,,,
295675,2022-11-14_11h30.05.878,vts_reward_expectancy_bt,2022.2.4,MacIntel,60.0024001,Chrome,1440,900,,,,,0,666,,,,,,,,,,,,,,,,,146,W,hexagon,1,0,,2,,,,,,,,,,,,,,repeat,number,numRpt,d,1.4118,vtsPrac,3,0,3,0,1,,,,,,,,,,,,,,,,,,,,,,,
295675,2022-11-14_11h30.05.878,vts_reward_expectancy_bt,2022.2.4,MacIntel,60.0024001,Chrome,1440,900,,,,,0,666,,,,,,,,,,,,,,,,,167,Y,triangle,1,0,,2,,,,,,,,,,,,,,switch,letter,lettSwt,k,1.2315,vtsPrac,4,0,4,0,1,,,,,,,,,,,,,,,,,,,,,,,
295675,2022-11-14_11h30.05.878,vts_reward_expectancy_bt,2022.2.4,MacIntel,60.0024001,Chrome,1440,900,,,,,0,666,,,,,,,,,,,,,,,,,160,D,circle,1,0,,2,,,,,,,,,,,,,,repeat,letter,lettRpt,j,0.6353,vtsPrac,5,0,5,0,1,,,,,,,,,,,,,,,,,,,,,,,
295675,2022-11-14_11h30.05.878,vts_reward_expectancy_bt,2022.2.4,MacIntel,60.0024001,Chrome,1440,900,,,,,0,666,,,,,,,,,,,,,,,,,181,S,circle,1,0,,2,,,,,,,,,,,,,,switch,number,numSwt,f,1.5134,vtsPrac,6,0,6,0,1,,,,,,,,,,,,,,,,,,,,,,,
295675,2022-11-14_11h30.05.878,vts_reward_expectancy_bt,2022.2.4,MacIntel,60.0024001,Chrome,1440,900,,,,,0,666,,,,,,,,,,,,,,,,,146,W,triangle,1,0,,2,,,,,,,,,,,,,,switch,letter,lettSwt,k,0.9288,vtsPrac,7,0,7,0,1,,,,,,,,,,,,,,,,,,,,,,,
295675,2022-11-14_11h30.05.878,vts_reward_expectancy_bt,2022.2.4,MacIntel,60.0024001,Chrome,1440,900,,,,,0,666,,,,,,,,,,,,,,,,,181,Y,hexagon,1,0,,2,,,,,,,,,,,,,,switch,number,numSwt,f,1.0611,vtsPrac,8,0,8,0,1,,,,,,,,,,,,,,,,,,,,,,,
295675,2022-11-14_11h30.05.878,vts_reward_expectancy_bt,2022.2.4,MacIntel,60.0024001,Chrome,1440,900,,,,,0,666,,,,,,,,,,,,,,,,,146,S,star,-1,0,,2,,,,,,,,,,,,,,switch,no_choice,NA,,,vtsPrac,9,0,9,0,1,,,,,,,,,,,,,,,,,,,,,,,
295675,2022-11-14_11h30.05.878,vts_reward_expectancy_bt,2022.2.4,MacIntel,60.0024001,Chrome,1440,900,,,,,0,666,,,,,,,,,,,,,,,,,174,H,star,1,0,,2,,,,,,,,,,,,,,switch,letter,lettSwt,j,0.9151,vtsPrac,10,0,10,0,1,,,,,,,,,,,,,,,,,,,,,,,
295675,2022-11-14_11h30.05.878,vts_reward_expectancy_bt,2022.2.4,MacIntel,60.0024001,Chrome,1440,900,,,,,0,666,,,,,,,,,,,,,,,,,167,F,triangle,1,0,,2,,,,,,,,,,,,,,switch,number,numSwt,f,1.0809,vtsPrac,11,0,11,0,1,,,,,,,,,,,,,,,,,,,,,,,
295675,2022-11-14_11h30.05.878,vts_reward_expectancy_bt,2022.2.4,MacIntel,60.0024001,Chrome,1440,900,,,,,0,666,,,,,,,,,,,,,,,,,160,S,hexagon,1,0,,2,,,,,,,,,,,,,,switch,letter,lettSwt,k,1.4183,vtsPrac,12,0,12,0,1,,,,,,,,,,,,,,,,,,,,,,,
295675,2022-11-14_11h30.05.878,vts_reward_expectancy_bt,2022.2.4,MacIntel,60.0024001,Chrome,1440,900,,,,,0,666,,,,,,,,,,,,,,,,,167,W,circle,1,0,,2,,,,,,,,,,,,,,repeat,letter,lettRpt,k,1.0019,vtsPrac,13,0,13,0,1,,,,,,,,,,,,,,,,,,,,,,,
295675,2022-11-14_11h30.05.878,vts_reward_expectancy_bt,2022.2.4,MacIntel,60.0024001,Chrome,1440,900,,,,,0,666,,,,,,,,,,,,,,,,,174,D,star,1,0,,2,,,,,,,,,,,,,,repeat,letter,lettRpt,j,1.0308,vtsPrac,14,0,14,0,1,,,,,,,,,,,,,,,,,,,,,,,
295675,2022-11-14_11h30.05.878,vts_reward_expectancy_bt,2022.2.4,MacIntel,60.0024001,Chrome,1440,900,,,,,0,666,,,,,,,,,,,,,,,,,132,U,triangle,1,0,,2,,,,,,,,,,,,,,switch,number,numSwt,d,0.9314,vtsPrac,15,0,15,0,1,,,,,,,,,,,,,,,,,,,,,,,
295675,2022-11-14_11h30.05.878,vts_reward_expectancy_bt,2022.2.4,MacIntel,60.0024001,Chrome,1440,900,,,,,0,666,,,,,,,,,,,,,,,,,160,Y,triangle,1,0,,2,,,,,,,,,,,,,,repeat,number,numRpt,f,1.597,vtsPrac,16,0,16,0,1,,,,,,,,,,,,,,,,,,,,,,,
295675,2022-11-14_11h30.05.878,vts_reward_expectancy_bt,2022.2.4,MacIntel,60.0024001,Chrome,1440,900,,,,,0,666,,,,,,,,,,,,,,,,,146,D,circle,1,0,,2,,,,,,,,,,,,,,switch,letter,lettSwt,j,0.7964,vtsPrac,17,0,17,0,1,,,,,,,,,,,,,,,,,,,,,,,
295675,2022-11-14_11h30.05.878,vts_reward_expectancy_bt,2022.2.4,MacIntel,60.0024001,Chrome,1440,900,,,,,0,666,,,,,,,,,,,,,,,,,167,F,star,1,0,,2,,,,,,,,,,,,,,switch,number,numSwt,f,1.1044,vtsPrac,18,0,18,0,1,,,,,,,,,,,,,,,,,,,,,,,
295675,2022-11-14_11h30.05.878,vts_reward_expectancy_bt,2022.2.4,MacIntel,60.0024001,Chrome,1440,900,,,,,0,666,,,,,,,,,,,,,,,,,181,H,circle,1,0,,2,,,,,,,,,,,,,,repeat,number,numRpt,f,1.0453,vtsPrac,19,0,19,0,1,,,,,,,,,,,,,,,,,,,,,,,
295675,2022-11-14_11h30.05.878,vts_reward_expectancy_bt,2022.2.4,MacIntel,60.0024001,Chrome,1440,900,,,,,0,666,,,,,,,,,,,,,,,,,125,S,star,1,0,,2,,,,,,,,,,,,,,switch,letter,lettSwt,k,1.5808,vtsPrac,20,0,20,0,1,,,,,,,,,,,,,,,,,,,,,,,
295675,2022-11-14_11h30.05.878,vts_reward_expectancy_bt,2022.2.4,MacIntel,60.0024001,Chrome,1440,900,,,,,0,666,,,,,,,,,,,,,,,,,167,Y,hexagon,1,0,,2,,,,,,,,,,,,,,repeat,letter,lettRpt,k,0.8807,vtsPrac,21,0,21,0,1,,,,,,,,,,,,,,,,,,,,,,,
295675,2022-11-14_11h30.05.878,vts_reward_expectancy_bt,2022.2.4,MacIntel,60.0024001,Chrome,1440,900,,,,,0,666,,,,,,,,,,,,,,,,,174,F,circle,1,0,,2,,,,,,,,,,,,,,switch,number,numSwt,f,1.5307,vtsPrac,22,0,22,0,1,,,,,,,,,,,,,,,,,,,,,,,
295675,2022-11-14_11h30.05.878,vts_reward_expectancy_bt,2022.2.4,MacIntel,60.0024001,Chrome,1440,900,,,,,0,666,,,,,,,,,,,,,,,,,181,B,triangle,1,0,,2,,,,,,,,,,,,,,switch,letter,lettSwt,j,1.9488,vtsPrac,23,0,23,0,1,,,,,,,,,,,,,,,,,,,,,,,
295675,2022-11-14_11h30.05.878,vts_reward_expectancy_bt,2022.2.4,MacIntel,60.0024001,Chrome,1440,900,,,,,0,666,,,,,,,,,,,,,,,,,160,D,star,0,0,,2,,,,,,,,,,,,,,repeat,letter,NA,k,1.1806,vtsPrac,24,0,24,0,1,,,,,,,,,,,,,,,,,,,,,,,
295675,2022-11-14_11h30.05.878,vts_reward_expectancy_bt,2022.2.4,MacIntel,60.0024001,Chrome,1440,900,,,,,0,666,,,,,,,,,,,,,,,,,139,H,circle,1,1,,2,,,,,,,,,,,,,,switch,number,numSwt,d,0.9311,vtsPrac,25,0,25,0,1,,,,,,,,,,,,,,,,,,,,,,,
295675,2022-11-14_11h30.05.878,vts_reward_expectancy_bt,2022.2.4,MacIntel,60.0024001,Chrome,1440,900,,,,,0,666,,,,,,,,,,,,,,,,,174,F,circle,1,0,,2,,,,,,,,,,,,,,repeat,number,numRpt,f,0.9809,vtsPrac,26,0,26,0,1,,,,,,,,,,,,,,,,,,,,,,,
295675,2022-11-14_11h30.05.878,vts_reward_expectancy_bt,2022.2.4,MacIntel,60.0024001,Chrome,1440,900,,,,,0,666,,,,,,,,,,,,,,,,,181,B,star,1,0,,2,,,,,,,,,,,,,,repeat,number,numRpt,f,1.0005,vtsPrac,27,0,27,0,1,,,,,,,,,,,,,,,,,,,,,,,
295675,2022-11-14_11h30.05.878,vts_reward_expectancy_bt,2022.2.4,MacIntel,60.0024001,Chrome,1440,900,,,,,0,666,,,,,,,,,,,,,,,,,167,U,triangle,1,0,,2,,,,,,,,,,,,,,switch,letter,lettSwt,k,0.6857,vtsPrac,28,0,28,0,1,,,,,,,,,,,,,,,,,,,,,,,
295675,2022-11-14_11h30.05.878,vts_reward_expectancy_bt,2022.2.4,MacIntel,60.0024001,Chrome,1440,900,,,,,0,666,,,,,,,,,,,,,,,,,132,F,hexagon,1,0,,2,,,,,,,,,,,,,,repeat,letter,lettRpt,j,0.7857,vtsPrac,29,0,29,0,1,,,,,,,,,,,,,,,,,,,,,,,
295675,2022-11-14_11h30.05.878,vts_reward_expectancy_bt,2022.2.4,MacIntel,60.0024001,Chrome,1440,900,,,,,0,666,,,,,,,,,,,,,,,,,160,W,triangle,1,0,,2,,,,,,,,,,,,,,switch,number,numSwt,f,1.0471,vtsPrac,30,0,30,0,1,,,,,,,,,,,,,,,,,,,,,,,
295675,2022-11-14_11h30.05.878,vts_reward_expectancy_bt,2022.2.4,MacIntel,60.0024001,Chrome,1440,900,,,,,0,666,,,,,,,,,,,,,,,,,146,Y,star,1,0,,2,,,,,,,,,,,,,,repeat,number,numRpt,d,1.2814,vtsPrac,31,0,31,0,1,,,,,,,,,,,,,,,,,,,,,,,
295675,2022-11-14_11h30.05.878,vts_reward_expectancy_bt,2022.2.4,MacIntel,60.0024001,Chrome,1440,900,,,,,,,,,,,,,,,,,,,,,,,,,,,,,,,,,,,,,,,,,,,,,,,,,,,,,,,,,,,,,,,,,,,,,,,,,,,,
295675,2022-11-14_11h30.05.878,vts_reward_expectancy_bt,2022.2.4,MacIntel,60.0024001,Chrome,1440,900,,,,,,,,,,,,,,,,,,,,,,,,,,,,,,,,,,,,,,,,,,,,,,,,,,,,,,,,,,,,,,,,,,,,,,,,,,,,
295675,2022-11-14_11h30.05.878,vts_reward_expectancy_bt,2022.2.4,MacIntel,60.0024001,Chrome,1440,900,,,,,0,666,,,,,,,,,,,,,,,,,132,S,hexagon,1,0,,,,,,,,,,,,,,,,repeat,number,numRpt,d,1.3677,noRew,,,,,,0,0,0,0,0,1,,,,,,,,,,,,,,,,,
295675,2022-11-14_11h30.05.878,vts_reward_expectancy_bt,2022.2.4,MacIntel,60.0024001,Chrome,1440,900,,,,,0,666,,,,,,,,,,,,,,,,,125,W,circle,1,0,,,,,,,,,,,,,,,,repeat,number,numRpt,d,1.0916,noRew,,,,,,0,1,0,1,0,1,,,,,,,,,,,,,,,,,
295675,2022-11-14_11h30.05.878,vts_reward_expectancy_bt,2022.2.4,MacIntel,60.0024001,Chrome,1440,900,,,,,0,666,,,,,,,,,,,,,,,,,174,B,hexagon,1,0,,,,,,,,,,,,,,,,repeat,number,numRpt,f,0.8658,noRew,,,,,,0,2,0,2,0,1,,,,,,,,,,,,,,,,,
295675,2022-11-14_11h30.05.878,vts_reward_expectancy_bt,2022.2.4,MacIntel,60.0024001,Chrome,1440,900,,,,,0,666,,,,,,,,,,,,,,,,,146,F,circle,1,0,,,,,,,,,,,,,,,,switch,letter,lettSwt,j,1.0317,noRew,,,,,,0,3,0,3,0,1,,,,,,,,,,,,,,,,,
295675,2022-11-14_11h30.05.878,vts_reward_expectancy_bt,2022.2.4,MacIntel,60.0024001,Chrome,1440,900,,,,,0,666,,,,,,,,,,,,,,,,,132,S,hexagon,1,0,,,,,,,,,,,,,,,,switch,number,numSwt,d,0.8515,noRew,,,,,,0,4,0,4,0,1,,,,,,,,,,,,,,,,,
295675,2022-11-14_11h30.05.878,vts_reward_expectancy_bt,2022.2.4,MacIntel,60.0024001,Chrome,1440,900,,,,,0,666,,,,,,,,,,,,,,,,,125,W,circle,1,0,,,,,,,,,,,,,,,,switch,letter,lettSwt,k,1.6807,noRew,,,,,,0,5,0,5,0,1,,,,,,,,,,,,,,,,,
295675,2022-11-14_11h30.05.878,vts_reward_expectancy_bt,2022.2.4,MacIntel,60.0024001,Chrome,1440,900,,,,,0,666,,,,,,,,,,,,,,,,,174,B,hexagon,1,0,,,,,,,,,,,,,,,,repeat,letter,lettRpt,j,0.8134,noRew,,,,,,0,6,0,6,0,1,,,,,,,,,,,,,,,,,
295675,2022-11-14_11h30.05.878,vts_reward_expectancy_bt,2022.2.4,MacIntel,60.0024001,Chrome,1440,900,,,,,0,666,,,,,,,,,,,,,,,,,146,F,star,1,0,,,,,,,,,,,,,,,,repeat,letter,lettRpt,j,1.0981,noRew,,,,,,0,7,0,7,0,1,,,,,,,,,,,,,,,,,
295675,2022-11-14_11h30.05.878,vts_reward_expectancy_bt,2022.2.4,MacIntel,60.0024001,Chrome,1440,900,,,,,0,666,,,,,,,,,,,,,,,,,125,D,circle,1,0,,,,,,,,,,,,,,,,switch,number,numSwt,d,1.0015,noRew,,,,,,0,8,0,8,0,1,,,,,,,,,,,,,,,,,
295675,2022-11-14_11h30.05.878,vts_reward_expectancy_bt,2022.2.4,MacIntel,60.0024001,Chrome,1440,900,,,,,0,666,,,,,,,,,,,,,,,,,181,H,triangle,1,0,,,,,,,,,,,,,,,,repeat,number,numRpt,f,0.9948,noRew,,,,,,0,9,0,9,0,1,,,,,,,,,,,,,,,,,
295675,2022-11-14_11h30.05.878,vts_reward_expectancy_bt,2022.2.4,MacIntel,60.0024001,Chrome,1440,900,,,,,0,666,,,,,,,,,,,,,,,,,174,S,hexagon,1,0,,,,,,,,,,,,,,,,switch,letter,lettSwt,k,1.0145,noRew,,,,,,0,10,0,10,0,1,,,,,,,,,,,,,,,,,
295675,2022-11-14_11h30.05.878,vts_reward_expectancy_bt,2022.2.4,MacIntel,60.0024001,Chrome,1440,900,,,,,0,666,,,,,,,,,,,,,,,,,146,B,circle,1,0,,,,,,,,,,,,,,,,repeat,letter,lettRpt,j,0.7781,noRew,,,,,,0,11,0,11,0,1,,,,,,,,,,,,,,,,,
295675,2022-11-14_11h30.05.878,vts_reward_expectancy_bt,2022.2.4,MacIntel,60.0024001,Chrome,1440,900,,,,,0,666,,,,,,,,,,,,,,,,,139,D,triangle,1,0,,,,,,,,,,,,,,,,repeat,letter,lettRpt,j,0.8972,noRew,,,,,,0,12,0,12,0,1,,,,,,,,,,,,,,,,,
295675,2022-11-14_11h30.05.878,vts_reward_expectancy_bt,2022.2.4,MacIntel,60.0024001,Chrome,1440,900,,,,,0,666,,,,,,,,,,,,,,,,,174,W,hexagon,1,0,,,,,,,,,,,,,,,,repeat,letter,lettRpt,k,1.2639,noRew,,,,,,0,13,0,13,0,1,,,,,,,,,,,,,,,,,
295675,2022-11-14_11h30.05.878,vts_reward_expectancy_bt,2022.2.4,MacIntel,60.0024001,Chrome,1440,900,,,,,0,666,,,,,,,,,,,,,,,,,167,U,triangle,1,0,,,,,,,,,,,,,,,,switch,number,numSwt,f,1.6041,noRew,,,,,,0,14,0,14,0,1,,,,,,,,,,,,,,,,,
295675,2022-11-14_11h30.05.878,vts_reward_expectancy_bt,2022.2.4,MacIntel,60.0024001,Chrome,1440,900,,,,,0,666,,,,,,,,,,,,,,,,,160,F,star,0,0,,,,,,,,,,,,,,,,repeat,number,NA,d,2.0137,noRew,,,,,,0,15,0,15,0,1,,,,,,,,,,,,,,,,,
295675,2022-11-14_11h30.05.878,vts_reward_expectancy_bt,2022.2.4,MacIntel,60.0024001,Chrome,1440,900,,,,,0,666,,,,,,,,,,,,,,,,,139,Y,triangle,1,1,,,,,,,,,,,,,,,,repeat,number,numRpt,d,2.594,noRew,,,,,,0,16,0,16,0,1,,,,,,,,,,,,,,,,,
295675,2022-11-14_11h30.05.878,vts_reward_expectancy_bt,2022.2.4,MacIntel,60.0024001,Chrome,1440,900,,,,,0,666,,,,,,,,,,,,,,,,,146,D,star,1,0,,,,,,,,,,,,,,,,repeat,number,numRpt,d,1.3334,noRew,,,,,,0,17,0,17,0,1,,,,,,,,,,,,,,,,,
295675,2022-11-14_11h30.05.878,vts_reward_expectancy_bt,2022.2.4,MacIntel,60.0024001,Chrome,1440,900,,,,,0,666,,,,,,,,,,,,,,,,,167,W,triangle,1,0,,,,,,,,,,,,,,,,switch,letter,lettSwt,k,0.959,noRew,,,,,,0,18,0,18,0,1,,,,,,,,,,,,,,,,,
295675,2022-11-14_11h30.05.878,vts_reward_expectancy_bt,2022.2.4,MacIntel,60.0024001,Chrome,1440,900,,,,,0,666,,,,,,,,,,,,,,,,,132,F,hexagon,1,0,,,,,,,,,,,,,,,,repeat,letter,lettRpt,j,1.1602,noRew,,,,,,0,19,0,19,0,1,,,,,,,,,,,,,,,,,
295675,2022-11-14_11h30.05.878,vts_reward_expectancy_bt,2022.2.4,MacIntel,60.0024001,Chrome,1440,900,,,,,0,666,,,,,,,,,,,,,,,,,146,H,hexagon,1,0,,,,,,,,,,,,,,,,repeat,letter,lettRpt,j,1.7143,noRew,,,,,,0,20,0,20,0,1,,,,,,,,,,,,,,,,,
295675,2022-11-14_11h30.05.878,vts_reward_expectancy_bt,2022.2.4,MacIntel,60.0024001,Chrome,1440,900,,,,,0,666,,,,,,,,,,,,,,,,,160,W,circle,1,0,,,,,,,,,,,,,,,,repeat,letter,lettRpt,k,0.9131,noRew,,,,,,0,21,0,21,0,1,,,,,,,,,,,,,,,,,
295675,2022-11-14_11h30.05.878,vts_reward_expectancy_bt,2022.2.4,MacIntel,60.0024001,Chrome,1440,900,,,,,0,666,,,,,,,,,,,,,,,,,167,F,triangle,1,0,,,,,,,,,,,,,,,,repeat,letter,lettRpt,j,1.2376,noRew,,,,,,0,22,0,22,0,1,,,,,,,,,,,,,,,,,
295675,2022-11-14_11h30.05.878,vts_reward_expectancy_bt,2022.2.4,MacIntel,60.0024001,Chrome,1440,900,,,,,0,666,,,,,,,,,,,,,,,,,181,D,star,1,0,,,,,,,,,,,,,,,,switch,number,numSwt,f,1.3458,noRew,,,,,,0,23,0,23,0,1,,,,,,,,,,,,,,,,,
295675,2022-11-14_11h30.05.878,vts_reward_expectancy_bt,2022.2.4,MacIntel,60.0024001,Chrome,1440,900,,,,,0,666,,,,,,,,,,,,,,,,,132,S,star,1,0,,,,,,,,,,,,,,,,repeat,number,numRpt,d,2.1386,noRew,,,,,,0,24,0,24,0,1,,,,,,,,,,,,,,,,,
295675,2022-11-14_11h30.05.878,vts_reward_expectancy_bt,2022.2.4,MacIntel,60.0024001,Chrome,1440,900,,,,,0,666,,,,,,,,,,,,,,,,,167,D,hexagon,1,0,,,,,,,,,,,,,,,,switch,letter,lettSwt,j,0.8962,noRew,,,,,,0,25,0,25,0,1,,,,,,,,,,,,,,,,,
295675,2022-11-14_11h30.05.878,vts_reward_expectancy_bt,2022.2.4,MacIntel,60.0024001,Chrome,1440,900,,,,,0,666,,,,,,,,,,,,,,,,,139,B,hexagon,1,0,,,,,,,,,,,,,,,,repeat,letter,lettRpt,j,1.4354,noRew,,,,,,0,26,0,26,0,1,,,,,,,,,,,,,,,,,
295675,2022-11-14_11h30.05.878,vts_reward_expectancy_bt,2022.2.4,MacIntel,60.0024001,Chrome,1440,900,,,,,0,666,,,,,,,,,,,,,,,,,125,U,star,1,0,,,,,,,,,,,,,,,,repeat,letter,lettRpt,k,0.8358,noRew,,,,,,0,27,0,27,0,1,,,,,,,,,,,,,,,,,
295675,2022-11-14_11h30.05.878,vts_reward_expectancy_bt,2022.2.4,MacIntel,60.0024001,Chrome,1440,900,,,,,0,666,,,,,,,,,,,,,,,,,160,F,hexagon,1,0,,,,,,,,,,,,,,,,switch,number,numSwt,f,1.0759,noRew,,,,,,0,28,0,28,0,1,,,,,,,,,,,,,,,,,
295675,2022-11-14_11h30.05.878,vts_reward_expectancy_bt,2022.2.4,MacIntel,60.0024001,Chrome,1440,900,,,,,0,666,,,,,,,,,,,,,,,,,146,S,star,1,0,,,,,,,,,,,,,,,,repeat,number,numRpt,d,0.9135,noRew,,,,,,0,29,0,29,0,1,,,,,,,,,,,,,,,,,
295675,2022-11-14_11h30.05.878,vts_reward_expectancy_bt,2022.2.4,MacIntel,60.0024001,Chrome,1440,900,,,,,0,666,,,,,,,,,,,,,,,,,125,Y,hexagon,1,0,,,,,,,,,,,,,,,,repeat,number,numRpt,d,0.8813,noRew,,,,,,0,30,0,30,0,1,,,,,,,,,,,,,,,,,
295675,2022-11-14_11h30.05.878,vts_reward_expectancy_bt,2022.2.4,MacIntel,60.0024001,Chrome,1440,900,,,,,0,666,,,,,,,,,,,,,,,,,139,W,triangle,1,0,,,,,,,,,,,,,,,,repeat,number,numRpt,d,0.8183,noRew,,,,,,0,31,0,31,0,1,,,,,,,,,,,,,,,,,
295675,2022-11-14_11h30.05.878,vts_reward_expectancy_bt,2022.2.4,MacIntel,60.0024001,Chrome,1440,900,,,,,0,666,,,,,,,,,,,,,,,,,174,S,hexagon,1,0,,,,,,,,,,,,,,,,switch,letter,lettSwt,k,1.9427,noRew,,,,,,0,32,0,32,0,1,,,,,,,,,,,,,,,,,
295675,2022-11-14_11h30.05.878,vts_reward_expectancy_bt,2022.2.4,MacIntel,60.0024001,Chrome,1440,900,,,,,0,666,,,,,,,,,,,,,,,,,132,F,triangle,1,0,,,,,,,,,,,,,,,,repeat,letter,lettRpt,j,1.1397,noRew,,,,,,0,33,0,33,0,1,,,,,,,,,,,,,,,,,
295675,2022-11-14_11h30.05.878,vts_reward_expectancy_bt,2022.2.4,MacIntel,60.0024001,Chrome,1440,900,,,,,0,666,,,,,,,,,,,,,,,,,167,B,circle,1,0,,,,,,,,,,,,,,,,switch,number,numSwt,f,1.0985,noRew,,,,,,0,34,0,34,0,1,,,,,,,,,,,,,,,,,
295675,2022-11-14_11h30.05.878,vts_reward_expectancy_bt,2022.2.4,MacIntel,60.0024001,Chrome,1440,900,,,,,0,666,,,,,,,,,,,,,,,,,146,H,star,1,0,,,,,,,,,,,,,,,,repeat,number,numRpt,d,1.2636,noRew,,,,,,0,35,0,35,0,1,,,,,,,,,,,,,,,,,
295675,2022-11-14_11h30.05.878,vts_reward_expectancy_bt,2022.2.4,MacIntel,60.0024001,Chrome,1440,900,,,,,0,666,,,,,,,,,,,,,,,,,125,Y,triangle,1,0,,,,,,,,,,,,,,,,repeat,number,numRpt,d,1.5624,noRew,,,,,,0,36,0,36,0,1,,,,,,,,,,,,,,,,,
295675,2022-11-14_11h30.05.878,vts_reward_expectancy_bt,2022.2.4,MacIntel,60.0024001,Chrome,1440,900,,,,,0,666,,,,,,,,,,,,,,,,,139,H,hexagon,1,0,,,,,,,,,,,,,,,,switch,letter,lettSwt,j,1.6865,noRew,,,,,,0,37,0,37,0,1,,,,,,,,,,,,,,,,,
295675,2022-11-14_11h30.05.878,vts_reward_expectancy_bt,2022.2.4,MacIntel,60.0024001,Chrome,1440,900,,,,,0,666,,,,,,,,,,,,,,,,,146,B,triangle,1,0,,,,,,,,,,,,,,,,repeat,letter,lettRpt,j,1.1832,noRew,,,,,,0,38,0,38,0,1,,,,,,,,,,,,,,,,,
295675,2022-11-14_11h30.05.878,vts_reward_expectancy_bt,2022.2.4,MacIntel,60.0024001,Chrome,1440,900,,,,,0,666,,,,,,,,,,,,,,,,,181,S,circle,1,0,,,,,,,,,,,,,,,,repeat,letter,lettRpt,k,1.9481,noRew,,,,,,0,39,0,39,0,1,,,,,,,,,,,,,,,,,
295675,2022-11-14_11h30.05.878,vts_reward_expectancy_bt,2022.2.4,MacIntel,60.0024001,Chrome,1440,900,,,,,0,666,,,,,,,,,,,,,,,,,139,F,triangle,1,0,,,,,,,,,,,,,,,,repeat,letter,lettRpt,j,1.1986,noRew,,,,,,0,40,0,40,0,1,,,,,,,,,,,,,,,,,
295675,2022-11-14_11h30.05.878,vts_reward_expectancy_bt,2022.2.4,MacIntel,60.0024001,Chrome,1440,900,,,,,0,666,,,,,,,,,,,,,,,,,132,D,star,0,0,,,,,,,,,,,,,,,,switch,number,NA,f,1.6316,noRew,,,,,,0,41,0,41,0,1,,,,,,,,,,,,,,,,,
295675,2022-11-14_11h30.05.878,vts_reward_expectancy_bt,2022.2.4,MacIntel,60.0024001,Chrome,1440,900,,,,,0,666,,,,,,,,,,,,,,,,,125,S,circle,1,1,,,,,,,,,,,,,,,,repeat,number,numRpt,d,0.8652,noRew,,,,,,0,42,0,42,0,1,,,,,,,,,,,,,,,,,
295675,2022-11-14_11h30.05.878,vts_reward_expectancy_bt,2022.2.4,MacIntel,60.0024001,Chrome,1440,900,,,,,0,666,,,,,,,,,,,,,,,,,146,U,triangle,1,0,,,,,,,,,,,,,,,,switch,letter,lettSwt,k,1.2109,noRew,,,,,,0,43,0,43,0,1,,,,,,,,,,,,,,,,,
295675,2022-11-14_11h30.05.878,vts_reward_expectancy_bt,2022.2.4,MacIntel,60.0024001,Chrome,1440,900,,,,,0,666,,,,,,,,,,,,,,,,,139,D,circle,1,0,,,,,,,,,,,,,,,,switch,number,numSwt,d,1.0201,noRew,,,,,,0,44,0,44,0,1,,,,,,,,,,,,,,,,,
295675,2022-11-14_11h30.05.878,vts_reward_expectancy_bt,2022.2.4,MacIntel,60.0024001,Chrome,1440,900,,,,,0,666,,,,,,,,,,,,,,,,,181,B,star,0,0,,,,,,,,,,,,,,,,switch,letter,NA,k,1.5326,noRew,,,,,,0,45,0,45,0,1,,,,,,,,,,,,,,,,,
295675,2022-11-14_11h30.05.878,vts_reward_expectancy_bt,2022.2.4,MacIntel,60.0024001,Chrome,1440,900,,,,,0,666,,,,,,,,,,,,,,,,,132,Y,triangle,1,1,,,,,,,,,,,,,,,,switch,number,numSwt,d,1.047,noRew,,,,,,0,46,0,46,0,1,,,,,,,,,,,,,,,,,
295675,2022-11-14_11h30.05.878,vts_reward_expectancy_bt,2022.2.4,MacIntel,60.0024001,Chrome,1440,900,,,,,0,666,,,,,,,,,,,,,,,,,174,U,star,1,0,,,,,,,,,,,,,,,,switch,letter,lettSwt,k,0.8327,noRew,,,,,,0,47,0,47,0,1,,,,,,,,,,,,,,,,,
295675,2022-11-14_11h30.05.878,vts_reward_expectancy_bt,2022.2.4,MacIntel,60.0024001,Chrome,1440,900,,,,,0,666,,,,,,,,,,,,,,,,,167,F,hexagon,1,0,,,,,,,,,,,,,,,,switch,number,numSwt,f,1.2608,noRew,,,,,,0,48,0,48,0,1,,,,,,,,,,,,,,,,,
295675,2022-11-14_11h30.05.878,vts_reward_expectancy_bt,2022.2.4,MacIntel,60.0024001,Chrome,1440,900,,,,,0,666,,,,,,,,,,,,,,,,,132,U,star,1,0,,,,,,,,,,,,,,,,switch,letter,lettSwt,k,0.5603,noRew,,,,,,0,49,0,49,0,1,,,,,,,,,,,,,,,,,
295675,2022-11-14_11h30.05.878,vts_reward_expectancy_bt,2022.2.4,MacIntel,60.0024001,Chrome,1440,900,,,,,0,666,,,,,,,,,,,,,,,,,174,B,triangle,1,0,,,,,,,,,,,,,,,,repeat,letter,lettRpt,j,1.1314,noRew,,,,,,0,50,0,50,0,1,,,,,,,,,,,,,,,,,
295675,2022-11-14_11h30.05.878,vts_reward_expectancy_bt,2022.2.4,MacIntel,60.0024001,Chrome,1440,900,,,,,0,666,,,,,,,,,,,,,,,,,139,Y,star,1,0,,,,,,,,,,,,,,,,repeat,letter,lettRpt,k,1.1791,noRew,,,,,,0,51,0,51,0,1,,,,,,,,,,,,,,,,,
295675,2022-11-14_11h30.05.878,vts_reward_expectancy_bt,2022.2.4,MacIntel,60.0024001,Chrome,1440,900,,,,,0,666,,,,,,,,,,,,,,,,,167,H,hexagon,1,0,,,,,,,,,,,,,,,,switch,number,numSwt,f,1.4615,noRew,,,,,,0,52,0,52,0,1,,,,,,,,,,,,,,,,,
295675,2022-11-14_11h30.05.878,vts_reward_expectancy_bt,2022.2.4,MacIntel,60.0024001,Chrome,1440,900,,,,,0,666,,,,,,,,,,,,,,,,,181,U,triangle,1,0,,,,,,,,,,,,,,,,repeat,number,numRpt,f,1.1958,noRew,,,,,,0,53,0,53,0,1,,,,,,,,,,,,,,,,,
295675,2022-11-14_11h30.05.878,vts_reward_expectancy_bt,2022.2.4,MacIntel,60.0024001,Chrome,1440,900,,,,,0,666,,,,,,,,,,,,,,,,,139,F,circle,1,0,,,,,,,,,,,,,,,,repeat,number,numRpt,d,0.9851,noRew,,,,,,0,54,0,54,0,1,,,,,,,,,,,,,,,,,
295675,2022-11-14_11h30.05.878,vts_reward_expectancy_bt,2022.2.4,MacIntel,60.0024001,Chrome,1440,900,,,,,0,666,,,,,,,,,,,,,,,,,125,D,hexagon,1,0,,,,,,,,,,,,,,,,switch,letter,lettSwt,j,1.396,noRew,,,,,,0,55,0,55,0,1,,,,,,,,,,,,,,,,,
295675,2022-11-14_11h30.05.878,vts_reward_expectancy_bt,2022.2.4,MacIntel,60.0024001,Chrome,1440,900,,,,,0,666,,,,,,,,,,,,,,,,,139,S,hexagon,1,0,,,,,,,,,,,,,,,,repeat,letter,lettRpt,k,1.313,noRew,,,,,,0,56,0,56,0,1,,,,,,,,,,,,,,,,,
295675,2022-11-14_11h30.05.878,vts_reward_expectancy_bt,2022.2.4,MacIntel,60.0024001,Chrome,1440,900,,,,,0,666,,,,,,,,,,,,,,,,,160,U,triangle,1,0,,,,,,,,,,,,,,,,repeat,letter,lettRpt,k,1.5135,noRew,,,,,,0,57,0,57,0,1,,,,,,,,,,,,,,,,,
295675,2022-11-14_11h30.05.878,vts_reward_expectancy_bt,2022.2.4,MacIntel,60.0024001,Chrome,1440,900,,,,,0,666,,,,,,,,,,,,,,,,,125,W,hexagon,1,0,,,,,,,,,,,,,,,,switch,number,numSwt,d,0.8675,noRew,,,,,,0,58,0,58,0,1,,,,,,,,,,,,,,,,,
295675,2022-11-14_11h30.05.878,vts_reward_expectancy_bt,2022.2.4,MacIntel,60.0024001,Chrome,1440,900,,,,,0,666,,,,,,,,,,,,,,,,,181,B,triangle,1,0,,,,,,,,,,,,,,,,switch,letter,lettSwt,j,1.6638,noRew,,,,,,0,59,0,59,0,1,,,,,,,,,,,,,,,,,
295675,2022-11-14_11h30.05.878,vts_reward_expectancy_bt,2022.2.4,MacIntel,60.0024001,Chrome,1440,900,,,,,0,666,,,,,,,,,,,,,,,,,174,F,hexagon,0,0,,,,,,,,,,,,,,,,repeat,letter,NA,k,1.7479,noRew,,,,,,0,60,0,60,0,1,,,,,,,,,,,,,,,,,
295675,2022-11-14_11h30.05.878,vts_reward_expectancy_bt,2022.2.4,MacIntel,60.0024001,Chrome,1440,900,,,,,0,666,,,,,,,,,,,,,,,,,181,U,star,1,1,,,,,,,,,,,,,,,,repeat,letter,lettRpt,k,1.2808,noRew,,,,,,0,61,0,61,0,1,,,,,,,,,,,,,,,,,
295675,2022-11-14_11h30.05.878,vts_reward_expectancy_bt,2022.2.4,MacIntel,60.0024001,Chrome,1440,900,,,,,0,666,,,,,,,,,,,,,,,,,146,W,hexagon,1,0,,,,,,,,,,,,,,,,switch,number,numSwt,d,1.2303,noRew,,,,,,0,62,0,62,0,1,,,,,,,,,,,,,,,,,
295675,2022-11-14_11h30.05.878,vts_reward_expectancy_bt,2022.2.4,MacIntel,60.0024001,Chrome,1440,900,,,,,0,666,,,,,,,,,,,,,,,,,125,D,circle,1,0,,,,,,,,,,,,,,,,repeat,number,numRpt,d,2.5804,noRew,,,,,,0,63,0,63,0,1,,,,,,,,,,,,,,,,,
295675,2022-11-14_11h30.05.878,vts_reward_expectancy_bt,2022.2.4,MacIntel,60.0024001,Chrome,1440,900,,,,,,,,,,,,,,,,,,,,,,,,,,,,,,,,,,,,,,,,,,,,,,,,,,,,,,,,,,,,,,,,,,,,,,,,,,,,
295675,2022-11-14_11h30.05.878,vts_reward_expectancy_bt,2022.2.4,MacIntel,60.0024001,Chrome,1440,900,,,,,0,666,,,,,,,,,,,,,,,,,174,H,circle,1,0,,,,,,,,,,,,,,,,repeat,number,numRpt,f,1.8476,Hi,,,,,,0,,,,,,space,10.9505,high,0,0,0,0,1,,,,,,,,,
295675,2022-11-14_11h30.05.878,vts_reward_expectancy_bt,2022.2.4,MacIntel,60.0024001,Chrome,1440,900,,,,,1,667,,,,,,,,,,,,,,,,,125,W,hexagon,1,0,,,,,,,,,,,,,,,,repeat,number,numRpt,d,0.8979,Lo,,,,,,0,,,,,,,,high,1,0,1,0,1,,,,,,,,,
295675,2022-11-14_11h30.05.878,vts_reward_expectancy_bt,2022.2.4,MacIntel,60.0024001,Chrome,1440,900,,,,,1,668,,,,,,,,,,,,,,,,,160,B,star,1,0,,,,,,,,,,,,,,,,repeat,number,numRpt,f,0.847,Lo,,,,,,0,,,,,,,,high,2,0,2,0,1,,,,,,,,,
295675,2022-11-14_11h30.05.878,vts_reward_expectancy_bt,2022.2.4,MacIntel,60.0024001,Chrome,1440,900,,,,,10,678,,,,,,,,,,,,,,,,,132,Y,triangle,1,0,,,,,,,,,,,,,,,,switch,letter,lettSwt,k,0.5869,Hi,,,,,,0,,,,,,,,high,3,0,3,0,1,,,,,,,,,
295675,2022-11-14_11h30.05.878,vts_reward_expectancy_bt,2022.2.4,MacIntel,60.0024001,Chrome,1440,900,,,,,10,688,,,,,,,,,,,,,,,,,146,D,circle,1,0,,,,,,,,,,,,,,,,switch,number,numSwt,d,0.9655,Hi,,,,,,0,,,,,,,,high,4,0,4,0,1,,,,,,,,,
295675,2022-11-14_11h30.05.878,vts_reward_expectancy_bt,2022.2.4,MacIntel,60.0024001,Chrome,1440,900,,,,,1,689,,,,,,,,,,,,,,,,,167,F,hexagon,1,0,,,,,,,,,,,,,,,,switch,letter,lettSwt,j,0.9176,Lo,,,,,,0,,,,,,,,high,5,0,5,0,1,,,,,,,,,
295675,2022-11-14_11h30.05.878,vts_reward_expectancy_bt,2022.2.4,MacIntel,60.0024001,Chrome,1440,900,,,,,1,690,,,,,,,,,,,,,,,,,139,S,star,1,0,,,,,,,,,,,,,,,,repeat,letter,lettRpt,k,0.6485,Lo,,,,,,0,,,,,,,,high,6,0,6,0,1,,,,,,,,,
295675,2022-11-14_11h30.05.878,vts_reward_expectancy_bt,2022.2.4,MacIntel,60.0024001,Chrome,1440,900,,,,,10,700,,,,,,,,,,,,,,,,,181,U,triangle,1,0,,,,,,,,,,,,,,,,switch,number,numSwt,f,0.8982,Hi,,,,,,0,,,,,,,,high,7,0,7,0,1,,,,,,,,,
295675,2022-11-14_11h30.05.878,vts_reward_expectancy_bt,2022.2.4,MacIntel,60.0024001,Chrome,1440,900,,,,,0,700,,,,,,,,,,,,,,,,,174,H,triangle,1,0,,,,,,,,,,,,,,,,repeat,number,numRpt,f,1.1315,Hi,,,,,,0,,,,,,,,high,8,0,8,0,1,,,,,,,,,
295675,2022-11-14_11h30.05.878,vts_reward_expectancy_bt,2022.2.4,MacIntel,60.0024001,Chrome,1440,900,,,,,1,701,,,,,,,,,,,,,,,,,125,W,hexagon,1,0,,,,,,,,,,,,,,,,repeat,number,numRpt,d,0.806,Lo,,,,,,0,,,,,,,,high,9,0,9,0,1,,,,,,,,,
295675,2022-11-14_11h30.05.878,vts_reward_expectancy_bt,2022.2.4,MacIntel,60.0024001,Chrome,1440,900,,,,,10,711,,,,,,,,,,,,,,,,,160,B,circle,1,0,,,,,,,,,,,,,,,,switch,letter,lettSwt,j,0.8682,Hi,,,,,,0,,,,,,,,high,10,0,10,0,1,,,,,,,,,
295675,2022-11-14_11h30.05.878,vts_reward_expectancy_bt,2022.2.4,MacIntel,60.0024001,Chrome,1440,900,,,,,1,712,,,,,,,,,,,,,,,,,132,Y,star,1,0,,,,,,,,,,,,,,,,switch,number,numSwt,d,0.8696,Lo,,,,,,0,,,,,,,,high,11,0,11,0,1,,,,,,,,,
295675,2022-11-14_11h30.05.878,vts_reward_expectancy_bt,2022.2.4,MacIntel,60.0024001,Chrome,1440,900,,,,,1,713,,,,,,,,,,,,,,,,,146,D,star,1,0,,,,,,,,,,,,,,,,repeat,number,numRpt,d,1.3152,Lo,,,,,,0,,,,,,,,high,12,0,12,0,1,,,,,,,,,
295675,2022-11-14_11h30.05.878,vts_reward_expectancy_bt,2022.2.4,MacIntel,60.0024001,Chrome,1440,900,,,,,10,723,,,,,,,,,,,,,,,,,167,F,hexagon,1,0,,,,,,,,,,,,,,,,switch,letter,lettSwt,j,0.8634,Lo,,,,,,0,,,,,,,,high,13,0,13,0,1,,,,,,,,,
295675,2022-11-14_11h30.05.878,vts_reward_expectancy_bt,2022.2.4,MacIntel,60.0024001,Chrome,1440,900,,,,,10,733,,,,,,,,,,,,,,,,,139,S,triangle,1,0,,,,,,,,,,,,,,,,repeat,letter,lettRpt,k,0.5652,Hi,,,,,,0,,,,,,,,high,14,0,14,0,1,,,,,,,,,
295675,2022-11-14_11h30.05.878,vts_reward_expectancy_bt,2022.2.4,MacIntel,60.0024001,Chrome,1440,900,,,,,10,743,,,,,,,,,,,,,,,,,181,U,circle,1,0,,,,,,,,,,,,,,,,switch,number,numSwt,f,0.9656,Hi,,,,,,0,,,,,,,,high,15,0,15,0,1,,,,,,,,,
295675,2022-11-14_11h30.05.878,vts_reward_expectancy_bt,2022.2.4,MacIntel,60.0024001,Chrome,1440,900,,,,,10,753,,,,,,,,,,,,,,,,,160,S,circle,1,0,,,,,,,,,,,,,,,,repeat,number,numRpt,f,0.8387,Hi,,,,,,0,,,,,,,,high,16,0,16,0,1,,,,,,,,,
295675,2022-11-14_11h30.05.878,vts_reward_expectancy_bt,2022.2.4,MacIntel,60.0024001,Chrome,1440,900,,,,,10,763,,,,,,,,,,,,,,,,,174,U,triangle,1,0,,,,,,,,,,,,,,,,repeat,number,numRpt,f,0.8998,Hi,,,,,,0,,,,,,,,high,17,0,17,0,1,,,,,,,,,
295675,2022-11-14_11h30.05.878,vts_reward_expectancy_bt,2022.2.4,MacIntel,60.0024001,Chrome,1440,900,,,,,1,764,,,,,,,,,,,,,,,,,181,H,hexagon,1,0,,,,,,,,,,,,,,,,switch,letter,lettSwt,j,0.6819,Lo,,,,,,0,,,,,,,,high,18,0,18,0,1,,,,,,,,,
295675,2022-11-14_11h30.05.878,vts_reward_expectancy_bt,2022.2.4,MacIntel,60.0024001,Chrome,1440,900,,,,,1,765,,,,,,,,,,,,,,,,,139,B,star,1,0,,,,,,,,,,,,,,,,repeat,letter,lettRpt,j,0.8021,Lo,,,,,,0,,,,,,,,high,19,0,19,0,1,,,,,,,,,
295675,2022-11-14_11h30.05.878,vts_reward_expectancy_bt,2022.2.4,MacIntel,60.0024001,Chrome,1440,900,,,,,1,766,,,,,,,,,,,,,,,,,167,W,hexagon,1,0,,,,,,,,,,,,,,,,switch,number,numSwt,f,1.154,Lo,,,,,,0,,,,,,,,high,20,0,20,0,1,,,,,,,,,
295675,2022-11-14_11h30.05.878,vts_reward_expectancy_bt,2022.2.4,MacIntel,60.0024001,Chrome,1440,900,,,,,10,776,,,,,,,,,,,,,,,,,132,F,triangle,1,0,,,,,,,,,,,,,,,,repeat,number,numRpt,d,0.4482,Hi,,,,,,0,,,,,,,,high,21,0,21,0,1,,,,,,,,,
295675,2022-11-14_11h30.05.878,vts_reward_expectancy_bt,2022.2.4,MacIntel,60.0024001,Chrome,1440,900,,,,,10,786,,,,,,,,,,,,,,,,,125,Y,circle,1,0,,,,,,,,,,,,,,,,repeat,number,numRpt,d,0.7836,Hi,,,,,,0,,,,,,,,high,22,0,22,0,1,,,,,,,,,
295675,2022-11-14_11h30.05.878,vts_reward_expectancy_bt,2022.2.4,MacIntel,60.0024001,Chrome,1440,900,,,,,1,787,,,,,,,,,,,,,,,,,146,D,star,1,0,,,,,,,,,,,,,,,,repeat,number,numRpt,d,1.3838,Lo,,,,,,0,,,,,,,,high,23,0,23,0,1,,,,,,,,,
295675,2022-11-14_11h30.05.878,vts_reward_expectancy_bt,2022.2.4,MacIntel,60.0024001,Chrome,1440,900,,,,,1,788,,,,,,,,,,,,,,,,,139,F,star,1,0,,,,,,,,,,,,,,,,switch,letter,lettSwt,j,0.7975,Lo,,,,,,0,,,,,,,,high,24,0,24,0,1,,,,,,,,,
295675,2022-11-14_11h30.05.878,vts_reward_expectancy_bt,2022.2.4,MacIntel,60.0024001,Chrome,1440,900,,,,,10,798,,,,,,,,,,,,,,,,,174,U,triangle,1,0,,,,,,,,,,,,,,,,repeat,letter,lettRpt,k,0.7802,Hi,,,,,,0,,,,,,,,high,25,0,25,0,1,,,,,,,,,
295675,2022-11-14_11h30.05.878,vts_reward_expectancy_bt,2022.2.4,MacIntel,60.0024001,Chrome,1440,900,,,,,10,808,,,,,,,,,,,,,,,,,167,B,circle,1,0,,,,,,,,,,,,,,,,repeat,letter,lettRpt,j,1.0818,Hi,,,,,,0,,,,,,,,high,26,0,26,0,1,,,,,,,,,
295675,2022-11-14_11h30.05.878,vts_reward_expectancy_bt,2022.2.4,MacIntel,60.0024001,Chrome,1440,900,,,,,10,818,,,,,,,,,,,,,,,,,125,Y,hexagon,1,0,,,,,,,,,,,,,,,,switch,number,numSwt,d,0.8519,Lo,,,,,,0,,,,,,,,high,27,0,27,0,1,,,,,,,,,
295675,2022-11-14_11h30.05.878,vts_reward_expectancy_bt,2022.2.4,MacIntel,60.0024001,Chrome,1440,900,,,,,1,819,,,,,,,,,,,,,,,,,181,S,hexagon,1,0,,,,,,,,,,,,,,,,switch,letter,lettSwt,k,0.8972,Lo,,,,,,0,,,,,,,,high,28,0,28,0,1,,,,,,,,,
295675,2022-11-14_11h30.05.878,vts_reward_expectancy_bt,2022.2.4,MacIntel,60.0024001,Chrome,1440,900,,,,,1,820,,,,,,,,,,,,,,,,,146,W,triangle,1,0,,,,,,,,,,,,,,,,switch,number,numSwt,d,0.8718,Hi,,,,,,0,,,,,,,,high,29,0,29,0,1,,,,,,,,,
295675,2022-11-14_11h30.05.878,vts_reward_expectancy_bt,2022.2.4,MacIntel,60.0024001,Chrome,1440,900,,,,,1,821,,,,,,,,,,,,,,,,,132,H,star,1,0,,,,,,,,,,,,,,,,switch,letter,lettSwt,j,1.1816,Lo,,,,,,0,,,,,,,,high,30,0,30,0,1,,,,,,,,,
295675,2022-11-14_11h30.05.878,vts_reward_expectancy_bt,2022.2.4,MacIntel,60.0024001,Chrome,1440,900,,,,,10,831,,,,,,,,,,,,,,,,,160,D,circle,1,0,,,,,,,,,,,,,,,,repeat,letter,lettRpt,j,1.1032,Hi,,,,,,0,,,,,,,,high,31,0,31,0,1,,,,,,,,,
295675,2022-11-14_11h30.05.878,vts_reward_expectancy_bt,2022.2.4,MacIntel,60.0024001,Chrome,1440,900,,,,,10,841,,,,,,,,,,,,,,,,,139,Y,triangle,1,0,,,,,,,,,,,,,,,,switch,number,numSwt,d,0.7798,Hi,,,,,,1,,,,,,space,7.5574,high,0,0,0,0,1,,,,,,,,,
295675,2022-11-14_11h30.05.878,vts_reward_expectancy_bt,2022.2.4,MacIntel,60.0024001,Chrome,1440,900,,,,,0,841,,,,,,,,,,,,,,,,,174,B,circle,1,0,,,,,,,,,,,,,,,,repeat,number,numRpt,f,0.9714,Hi,,,,,,1,,,,,,,,high,1,0,1,0,1,,,,,,,,,
295675,2022-11-14_11h30.05.878,vts_reward_expectancy_bt,2022.2.4,MacIntel,60.0024001,Chrome,1440,900,,,,,1,842,,,,,,,,,,,,,,,,,167,H,hexagon,1,0,,,,,,,,,,,,,,,,repeat,number,numRpt,f,0.7141,Lo,,,,,,1,,,,,,,,high,2,0,2,0,1,,,,,,,,,
295675,2022-11-14_11h30.05.878,vts_reward_expectancy_bt,2022.2.4,MacIntel,60.0024001,Chrome,1440,900,,,,,1,843,,,,,,,,,,,,,,,,,160,F,star,1,0,,,,,,,,,,,,,,,,repeat,number,numRpt,f,0.8166,Lo,,,,,,1,,,,,,,,high,3,0,3,0,1,,,,,,,,,
295675,2022-11-14_11h30.05.878,vts_reward_expectancy_bt,2022.2.4,MacIntel,60.0024001,Chrome,1440,900,,,,,0,843,,,,,,,,,,,,,,,,,132,W,triangle,1,0,,,,,,,,,,,,,,,,switch,letter,lettSwt,k,1.1649,Hi,,,,,,1,,,,,,,,high,4,0,4,0,1,,,,,,,,,
295675,2022-11-14_11h30.05.878,vts_reward_expectancy_bt,2022.2.4,MacIntel,60.0024001,Chrome,1440,900,,,,,0,843,,,,,,,,,,,,,,,,,146,U,circle,1,0,,,,,,,,,,,,,,,,repeat,letter,lettRpt,k,0.7886,Hi,,,,,,1,,,,,,,,high,5,0,5,0,1,,,,,,,,,
295675,2022-11-14_11h30.05.878,vts_reward_expectancy_bt,2022.2.4,MacIntel,60.0024001,Chrome,1440,900,,,,,10,853,,,,,,,,,,,,,,,,,125,S,hexagon,1,0,,,,,,,,,,,,,,,,repeat,letter,lettRpt,k,0.5672,Lo,,,,,,1,,,,,,,,high,6,0,6,0,1,,,,,,,,,
295675,2022-11-14_11h30.05.878,vts_reward_expectancy_bt,2022.2.4,MacIntel,60.0024001,Chrome,1440,900,,,,,1,854,,,,,,,,,,,,,,,,,181,D,star,1,0,,,,,,,,,,,,,,,,repeat,letter,lettRpt,j,0.369,Lo,,,,,,1,,,,,,,,high,7,0,7,0,1,,,,,,,,,
295675,2022-11-14_11h30.05.878,vts_reward_expectancy_bt,2022.2.4,MacIntel,60.0024001,Chrome,1440,900,,,,,10,864,,,,,,,,,,,,,,,,,139,Y,triangle,1,0,,,,,,,,,,,,,,,,switch,number,numSwt,d,0.6994,Hi,,,,,,1,,,,,,,,high,8,0,8,0,1,,,,,,,,,
295675,2022-11-14_11h30.05.878,vts_reward_expectancy_bt,2022.2.4,MacIntel,60.0024001,Chrome,1440,900,,,,,0,864,,,,,,,,,,,,,,,,,174,B,hexagon,0,0,,,,,,,,,,,,,,,,repeat,number,NA,d,0.6744,Hi,,,,,,1,,,,,,,,high,9,0,9,0,1,,,,,,,,,
295675,2022-11-14_11h30.05.878,vts_reward_expectancy_bt,2022.2.4,MacIntel,60.0024001,Chrome,1440,900,,,,,10,874,,,,,,,,,,,,,,,,,167,H,star,1,1,,,,,,,,,,,,,,,,switch,letter,lettSwt,j,0.6083,Lo,,,,,,1,,,,,,,,high,10,0,10,0,1,,,,,,,,,
295675,2022-11-14_11h30.05.878,vts_reward_expectancy_bt,2022.2.4,MacIntel,60.0024001,Chrome,1440,900,,,,,10,884,,,,,,,,,,,,,,,,,160,F,circle,1,0,,,,,,,,,,,,,,,,switch,number,numSwt,f,0.5144,Hi,,,,,,1,,,,,,,,high,11,0,11,0,1,,,,,,,,,
295675,2022-11-14_11h30.05.878,vts_reward_expectancy_bt,2022.2.4,MacIntel,60.0024001,Chrome,1440,900,,,,,1,885,,,,,,,,,,,,,,,,,132,W,star,1,0,,,,,,,,,,,,,,,,repeat,number,numRpt,d,0.6535,Lo,,,,,,1,,,,,,,,high,12,0,12,0,1,,,,,,,,,
295675,2022-11-14_11h30.05.878,vts_reward_expectancy_bt,2022.2.4,MacIntel,60.0024001,Chrome,1440,900,,,,,10,895,,,,,,,,,,,,,,,,,146,U,triangle,1,0,,,,,,,,,,,,,,,,switch,letter,lettSwt,k,0.6808,Hi,,,,,,1,,,,,,,,high,13,0,13,0,1,,,,,,,,,
295675,2022-11-14_11h30.05.878,vts_reward_expectancy_bt,2022.2.4,MacIntel,60.0024001,Chrome,1440,900,,,,,10,905,,,,,,,,,,,,,,,,,125,S,circle,1,0,,,,,,,,,,,,,,,,switch,number,numSwt,d,0.8255,Hi,,,,,,1,,,,,,,,high,14,0,14,0,1,,,,,,,,,
295675,2022-11-14_11h30.05.878,vts_reward_expectancy_bt,2022.2.4,MacIntel,60.0024001,Chrome,1440,900,,,,,1,906,,,,,,,,,,,,,,,,,181,D,hexagon,1,0,,,,,,,,,,,,,,,,repeat,number,numRpt,f,0.8164,Lo,,,,,,1,,,,,,,,high,15,0,15,0,1,,,,,,,,,
295675,2022-11-14_11h30.05.878,vts_reward_expectancy_bt,2022.2.4,MacIntel,60.0024001,Chrome,1440,900,,,,,10,916,,,,,,,,,,,,,,,,,160,H,star,1,0,,,,,,,,,,,,,,,,repeat,number,numRpt,f,0.5605,Lo,,,,,,1,,,,,,,,high,16,0,16,0,1,,,,,,,,,
295675,2022-11-14_11h30.05.878,vts_reward_expectancy_bt,2022.2.4,MacIntel,60.0024001,Chrome,1440,900,,,,,1,917,,,,,,,,,,,,,,,,,181,D,hexagon,1,0,,,,,,,,,,,,,,,,repeat,number,numRpt,f,0.7884,Lo,,,,,,1,,,,,,,,high,17,0,17,0,1,,,,,,,,,
295675,2022-11-14_11h30.05.878,vts_reward_expectancy_bt,2022.2.4,MacIntel,60.0024001,Chrome,1440,900,,,,,0,917,,,,,,,,,,,,,,,,,146,W,triangle,1,0,,,,,,,,,,,,,,,,switch,letter,lettSwt,k,2.2575,Hi,,,,,,1,,,,,,,,high,18,0,18,0,1,,,,,,,,,
295675,2022-11-14_11h30.05.878,vts_reward_expectancy_bt,2022.2.4,MacIntel,60.0024001,Chrome,1440,900,,,,,0,917,,,,,,,,,,,,,,,,,132,S,circle,1,0,,,,,,,,,,,,,,,,repeat,letter,lettRpt,k,1.1139,Hi,,,,,,1,,,,,,,,high,19,0,19,0,1,,,,,,,,,
295675,2022-11-14_11h30.05.878,vts_reward_expectancy_bt,2022.2.4,MacIntel,60.0024001,Chrome,1440,900,,,,,10,927,,,,,,,,,,,,,,,,,167,U,triangle,1,0,,,,,,,,,,,,,,,,repeat,letter,lettRpt,k,0.6776,Hi,,,,,,1,,,,,,,,high,20,0,20,0,1,,,,,,,,,
295675,2022-11-14_11h30.05.878,vts_reward_expectancy_bt,2022.2.4,MacIntel,60.0024001,Chrome,1440,900,,,,,1,928,,,,,,,,,,,,,,,,,139,F,hexagon,1,0,,,,,,,,,,,,,,,,repeat,letter,lettRpt,j,0.9631,Lo,,,,,,1,,,,,,,,high,21,0,21,0,1,,,,,,,,,
295675,2022-11-14_11h30.05.878,vts_reward_expectancy_bt,2022.2.4,MacIntel,60.0024001,Chrome,1440,900,,,,,1,929,,,,,,,,,,,,,,,,,125,Y,circle,1,0,,,,,,,,,,,,,,,,switch,number,numSwt,d,0.5781,Hi,,,,,,1,,,,,,,,high,22,0,22,0,1,,,,,,,,,
295675,2022-11-14_11h30.05.878,vts_reward_expectancy_bt,2022.2.4,MacIntel,60.0024001,Chrome,1440,900,,,,,1,930,,,,,,,,,,,,,,,,,174,B,star,1,0,,,,,,,,,,,,,,,,repeat,number,numRpt,f,0.8134,Lo,,,,,,1,,,,,,,,high,23,0,23,0,1,,,,,,,,,
295675,2022-11-14_11h30.05.878,vts_reward_expectancy_bt,2022.2.4,MacIntel,60.0024001,Chrome,1440,900,,,,,1,931,,,,,,,,,,,,,,,,,125,B,triangle,1,0,,,,,,,,,,,,,,,,repeat,number,numRpt,d,0.7986,Hi,,,,,,1,,,,,,,,high,24,0,24,0,1,,,,,,,,,
295675,2022-11-14_11h30.05.878,vts_reward_expectancy_bt,2022.2.4,MacIntel,60.0024001,Chrome,1440,900,,,,,1,932,,,,,,,,,,,,,,,,,181,U,circle,1,0,,,,,,,,,,,,,,,,repeat,number,numRpt,f,0.8263,Hi,,,,,,1,,,,,,,,high,25,0,25,0,1,,,,,,,,,
295675,2022-11-14_11h30.05.878,vts_reward_expectancy_bt,2022.2.4,MacIntel,60.0024001,Chrome,1440,900,,,,,1,933,,,,,,,,,,,,,,,,,160,D,hexagon,1,0,,,,,,,,,,,,,,,,repeat,number,numRpt,f,0.9288,Lo,,,,,,1,,,,,,,,high,26,0,26,0,1,,,,,,,,,
295675,2022-11-14_11h30.05.878,vts_reward_expectancy_bt,2022.2.4,MacIntel,60.0024001,Chrome,1440,900,,,,,1,934,,,,,,,,,,,,,,,,,146,S,star,1,0,,,,,,,,,,,,,,,,repeat,number,numRpt,d,0.8301,Lo,,,,,,1,,,,,,,,high,27,0,27,0,1,,,,,,,,,
295675,2022-11-14_11h30.05.878,vts_reward_expectancy_bt,2022.2.4,MacIntel,60.0024001,Chrome,1440,900,,,,,1,935,,,,,,,,,,,,,,,,,174,F,circle,1,0,,,,,,,,,,,,,,,,switch,letter,lettSwt,j,0.6631,Hi,,,,,,1,,,,,,,,high,28,0,28,0,1,,,,,,,,,
295675,2022-11-14_11h30.05.878,vts_reward_expectancy_bt,2022.2.4,MacIntel,60.0024001,Chrome,1440,900,,,,,1,936,,,,,,,,,,,,,,,,,132,Y,hexagon,1,0,,,,,,,,,,,,,,,,repeat,letter,lettRpt,k,0.5645,Lo,,,,,,1,,,,,,,,high,29,0,29,0,1,,,,,,,,,
295675,2022-11-14_11h30.05.878,vts_reward_expectancy_bt,2022.2.4,MacIntel,60.0024001,Chrome,1440,900,,,,,1,937,,,,,,,,,,,,,,,,,167,H,star,1,0,,,,,,,,,,,,,,,,repeat,letter,lettRpt,j,0.8625,Lo,,,,,,1,,,,,,,,high,30,0,30,0,1,,,,,,,,,
295675,2022-11-14_11h30.05.878,vts_reward_expectancy_bt,2022.2.4,MacIntel,60.0024001,Chrome,1440,900,,,,,10,947,,,,,,,,,,,,,,,,,139,W,triangle,1,0,,,,,,,,,,,,,,,,repeat,letter,lettRpt,k,0.662,Hi,,,,,,1,,,,,,,,high,31,0,31,0,1,,,,,,,,,
295675,2022-11-14_11h30.05.878,vts_reward_expectancy_bt,2022.2.4,MacIntel,60.0024001,Chrome,1440,900,,,,,0,947,,,,,,,,,,,,,,,,,132,S,triangle,1,0,,,,,,,,,,,,,,,,switch,number,numSwt,d,0.7094,Hi,,,,,,2,,,,,,space,1.0379,high,0,0,0,0,1,,,,,,,,,
295675,2022-11-14_11h30.05.878,vts_reward_expectancy_bt,2022.2.4,MacIntel,60.0024001,Chrome,1440,900,,,,,1,948,,,,,,,,,,,,,,,,,174,D,hexagon,1,0,,,,,,,,,,,,,,,,repeat,number,numRpt,f,0.5454,Lo,,,,,,2,,,,,,,,high,1,0,1,0,1,,,,,,,,,
295675,2022-11-14_11h30.05.878,vts_reward_expectancy_bt,2022.2.4,MacIntel,60.0024001,Chrome,1440,900,,,,,0,948,,,,,,,,,,,,,,,,,160,U,circle,1,0,,,,,,,,,,,,,,,,repeat,number,numRpt,f,0.9142,Hi,,,,,,2,,,,,,,,high,2,0,2,0,1,,,,,,,,,
295675,2022-11-14_11h30.05.878,vts_reward_expectancy_bt,2022.2.4,MacIntel,60.0024001,Chrome,1440,900,,,,,1,949,,,,,,,,,,,,,,,,,167,H,star,1,0,,,,,,,,,,,,,,,,repeat,number,numRpt,f,0.9982,Lo,,,,,,2,,,,,,,,high,3,0,3,0,1,,,,,,,,,
295675,2022-11-14_11h30.05.878,vts_reward_expectancy_bt,2022.2.4,MacIntel,60.0024001,Chrome,1440,900,,,,,0,949,,,,,,,,,,,,,,,,,125,F,triangle,1,0,,,,,,,,,,,,,,,,repeat,number,numRpt,d,0.797,Hi,,,,,,2,,,,,,,,high,4,0,4,0,1,,,,,,,,,
295675,2022-11-14_11h30.05.878,vts_reward_expectancy_bt,2022.2.4,MacIntel,60.0024001,Chrome,1440,900,,,,,1,950,,,,,,,,,,,,,,,,,139,Y,hexagon,1,0,,,,,,,,,,,,,,,,switch,letter,lettSwt,k,0.5808,Lo,,,,,,2,,,,,,,,high,5,0,5,0,1,,,,,,,,,
295675,2022-11-14_11h30.05.878,vts_reward_expectancy_bt,2022.2.4,MacIntel,60.0024001,Chrome,1440,900,,,,,10,960,,,,,,,,,,,,,,,,,181,B,circle,1,0,,,,,,,,,,,,,,,,repeat,letter,lettRpt,j,0.5456,Hi,,,,,,2,,,,,,,,high,6,0,6,0,1,,,,,,,,,
295675,2022-11-14_11h30.05.878,vts_reward_expectancy_bt,2022.2.4,MacIntel,60.0024001,Chrome,1440,900,,,,,10,970,,,,,,,,,,,,,,,,,146,W,star,1,0,,,,,,,,,,,,,,,,repeat,letter,lettRpt,k,0.9309,Lo,,,,,,2,,,,,,,,high,7,0,7,0,1,,,,,,,,,
295675,2022-11-14_11h30.05.878,vts_reward_expectancy_bt,2022.2.4,MacIntel,60.0024001,Chrome,1440,900,,,,,10,980,,,,,,,,,,,,,,,,,132,S,triangle,1,0,,,,,,,,,,,,,,,,repeat,letter,lettRpt,k,0.5652,Hi,,,,,,2,,,,,,,,high,8,0,8,0,1,,,,,,,,,
295675,2022-11-14_11h30.05.878,vts_reward_expectancy_bt,2022.2.4,MacIntel,60.0024001,Chrome,1440,900,,,,,1,981,,,,,,,,,,,,,,,,,174,D,hexagon,1,0,,,,,,,,,,,,,,,,switch,number,numSwt,f,0.845,Lo,,,,,,2,,,,,,,,high,9,0,9,0,1,,,,,,,,,
295675,2022-11-14_11h30.05.878,vts_reward_expectancy_bt,2022.2.4,MacIntel,60.0024001,Chrome,1440,900,,,,,10,991,,,,,,,,,,,,,,,,,160,U,circle,1,0,,,,,,,,,,,,,,,,repeat,number,numRpt,f,0.4493,Hi,,,,,,2,,,,,,,,high,10,0,10,0,1,,,,,,,,,
295675,2022-11-14_11h30.05.878,vts_reward_expectancy_bt,2022.2.4,MacIntel,60.0024001,Chrome,1440,900,,,,,10,1001,,,,,,,,,,,,,,,,,167,H,star,1,0,,,,,,,,,,,,,,,,repeat,number,numRpt,f,0.5322,Lo,,,,,,2,,,,,,,,high,11,0,11,0,1,,,,,,,,,
295675,2022-11-14_11h30.05.878,vts_reward_expectancy_bt,2022.2.4,MacIntel,60.0024001,Chrome,1440,900,,,,,1,1002,,,,,,,,,,,,,,,,,125,F,star,1,0,,,,,,,,,,,,,,,,switch,letter,lettSwt,j,0.9763,Lo,,,,,,2,,,,,,,,high,12,0,12,0,1,,,,,,,,,
295675,2022-11-14_11h30.05.878,vts_reward_expectancy_bt,2022.2.4,MacIntel,60.0024001,Chrome,1440,900,,,,,0,1002,,,,,,,,,,,,,,,,,139,Y,circle,1,0,,,,,,,,,,,,,,,,switch,number,numSwt,d,0.7491,Hi,,,,,,2,,,,,,,,high,13,0,13,0,1,,,,,,,,,
295675,2022-11-14_11h30.05.878,vts_reward_expectancy_bt,2022.2.4,MacIntel,60.0024001,Chrome,1440,900,,,,,1,1003,,,,,,,,,,,,,,,,,181,B,hexagon,1,0,,,,,,,,,,,,,,,,repeat,number,numRpt,f,0.9617,Lo,,,,,,2,,,,,,,,high,14,0,14,0,1,,,,,,,,,
295675,2022-11-14_11h30.05.878,vts_reward_expectancy_bt,2022.2.4,MacIntel,60.0024001,Chrome,1440,900,,,,,10,1013,,,,,,,,,,,,,,,,,146,W,triangle,1,0,,,,,,,,,,,,,,,,switch,letter,lettSwt,k,0.6327,Hi,,,,,,2,,,,,,,,high,15,0,15,0,1,,,,,,,,,
295675,2022-11-14_11h30.05.878,vts_reward_expectancy_bt,2022.2.4,MacIntel,60.0024001,Chrome,1440,900,,,,,1,1014,,,,,,,,,,,,,,,,,174,U,circle,1,0,,,,,,,,,,,,,,,,repeat,letter,lettRpt,k,0.6143,Hi,,,,,,2,,,,,,,,high,16,0,16,0,1,,,,,,,,,
295675,2022-11-14_11h30.05.878,vts_reward_expectancy_bt,2022.2.4,MacIntel,60.0024001,Chrome,1440,900,,,,,1,1015,,,,,,,,,,,,,,,,,181,B,star,1,0,,,,,,,,,,,,,,,,switch,number,numSwt,f,0.8465,Lo,,,,,,2,,,,,,,,high,17,0,17,0,1,,,,,,,,,
295675,2022-11-14_11h30.05.878,vts_reward_expectancy_bt,2022.2.4,MacIntel,60.0024001,Chrome,1440,900,,,,,1,1016,,,,,,,,,,,,,,,,,125,S,hexagon,1,0,,,,,,,,,,,,,,,,repeat,number,numRpt,d,0.5139,Lo,,,,,,2,,,,,,,,high,18,0,18,0,1,,,,,,,,,
295675,2022-11-14_11h30.05.878,vts_reward_expectancy_bt,2022.2.4,MacIntel,60.0024001,Chrome,1440,900,,,,,10,1026,,,,,,,,,,,,,,,,,132,H,triangle,1,0,,,,,,,,,,,,,,,,repeat,number,numRpt,d,0.6491,Hi,,,,,,2,,,,,,,,high,19,0,19,0,1,,,,,,,,,
295675,2022-11-14_11h30.05.878,vts_reward_expectancy_bt,2022.2.4,MacIntel,60.0024001,Chrome,1440,900,,,,,1,1027,,,,,,,,,,,,,,,,,146,W,star,1,0,,,,,,,,,,,,,,,,repeat,number,numRpt,d,0.8812,Lo,,,,,,2,,,,,,,,high,20,0,20,0,1,,,,,,,,,
295675,2022-11-14_11h30.05.878,vts_reward_expectancy_bt,2022.2.4,MacIntel,60.0024001,Chrome,1440,900,,,,,0,1027,,,,,,,,,,,,,,,,,139,D,circle,1,0,,,,,,,,,,,,,,,,switch,letter,lettSwt,j,0.696,Hi,,,,,,2,,,,,,,,high,21,0,21,0,1,,,,,,,,,
295675,2022-11-14_11h30.05.878,vts_reward_expectancy_bt,2022.2.4,MacIntel,60.0024001,Chrome,1440,900,,,,,1,1028,,,,,,,,,,,,,,,,,160,Y,hexagon,1,0,,,,,,,,,,,,,,,,repeat,letter,lettRpt,k,0.8152,Lo,,,,,,2,,,,,,,,high,22,0,22,0,1,,,,,,,,,
295675,2022-11-14_11h30.05.878,vts_reward_expectancy_bt,2022.2.4,MacIntel,60.0024001,Chrome,1440,900,,,,,0,1028,,,,,,,,,,,,,,,,,167,F,triangle,1,0,,,,,,,,,,,,,,,,repeat,letter,lettRpt,j,1.1725,Hi,,,,,,2,,,,,,,,high,23,0,23,0,1,,,,,,,,,
295675,2022-11-14_11h30.05.878,vts_reward_expectancy_bt,2022.2.4,MacIntel,60.0024001,Chrome,1440,900,,,,,10,1038,,,,,,,,,,,,,,,,,146,H,star,1,0,,,,,,,,,,,,,,,,repeat,letter,lettRpt,j,0.5998,Lo,,,,,,2,,,,,,,,high,24,0,24,0,1,,,,,,,,,
295675,2022-11-14_11h30.05.878,vts_reward_expectancy_bt,2022.2.4,MacIntel,60.0024001,Chrome,1440,900,,,,,0,1038,,,,,,,,,,,,,,,,,125,B,triangle,1,0,,,,,,,,,,,,,,,,repeat,letter,lettRpt,j,0.8174,Hi,,,,,,2,,,,,,,,high,25,0,25,0,1,,,,,,,,,
295675,2022-11-14_11h30.05.878,vts_reward_expectancy_bt,2022.2.4,MacIntel,60.0024001,Chrome,1440,900,,,,,0,1038,,,,,,,,,,,,,,,,,181,U,hexagon,0,0,,,,,,,,,,,,,,,,repeat,letter,NA,j,0.6795,Hi,,,,,,2,,,,,,,,high,26,0,26,0,1,,,,,,,,,
295675,2022-11-14_11h30.05.878,vts_reward_expectancy_bt,2022.2.4,MacIntel,60.0024001,Chrome,1440,900,,,,,0,1038,,,,,,,,,,,,,,,,,174,D,circle,1,1,,,,,,,,,,,,,,,,repeat,letter,lettRpt,j,0.8319,Hi,,,,,,2,,,,,,,,high,27,0,27,0,1,,,,,,,,,
295675,2022-11-14_11h30.05.878,vts_reward_expectancy_bt,2022.2.4,MacIntel,60.0024001,Chrome,1440,900,,,,,0,1038,,,,,,,,,,,,,,,,,139,W,triangle,1,0,,,,,,,,,,,,,,,,repeat,letter,lettRpt,k,0.7473,Hi,,,,,,2,,,,,,,,high,28,0,28,0,1,,,,,,,,,
295675,2022-11-14_11h30.05.878,vts_reward_expectancy_bt,2022.2.4,MacIntel,60.0024001,Chrome,1440,900,,,,,10,1048,,,,,,,,,,,,,,,,,132,F,hexagon,1,0,,,,,,,,,,,,,,,,repeat,letter,lettRpt,j,0.5295,Lo,,,,,,2,,,,,,,,high,29,0,29,0,1,,,,,,,,,
295675,2022-11-14_11h30.05.878,vts_reward_expectancy_bt,2022.2.4,MacIntel,60.0024001,Chrome,1440,900,,,,,0,1048,,,,,,,,,,,,,,,,,167,Y,star,0,0,,,,,,,,,,,,,,,,switch,number,NA,d,0.6313,Lo,,,,,,2,,,,,,,,high,30,0,30,0,1,,,,,,,,,
295675,2022-11-14_11h30.05.878,vts_reward_expectancy_bt,2022.2.4,MacIntel,60.0024001,Chrome,1440,900,,,,,0,1048,,,,,,,,,,,,,,,,,160,S,circle,1,1,,,,,,,,,,,,,,,,repeat,number,numRpt,f,1.1827,Hi,,,,,,2,,,,,,,,high,31,0,31,0,1,,,,,,,,,
295675,2022-11-14_11h30.05.878,vts_reward_expectancy_bt,2022.2.4,MacIntel,60.0024001,Chrome,1440,900,,,,,10,1058,,,,,,,,,,,,,,,,,181,U,triangle,1,0,,,,,,,,,,,,,,,,repeat,number,numRpt,f,0.5568,Hi,,,,,,3,,,,,,space,8.3674,high,0,0,0,0,1,,,,,,,,,
295675,2022-11-14_11h30.05.878,vts_reward_expectancy_bt,2022.2.4,MacIntel,60.0024001,Chrome,1440,900,,,,,0,1058,,,,,,,,,,,,,,,,,146,D,circle,0,0,,,,,,,,,,,,,,,,switch,letter,NA,k,0.6312,Hi,,,,,,3,,,,,,,,high,1,0,1,0,1,,,,,,,,,
295675,2022-11-14_11h30.05.878,vts_reward_expectancy_bt,2022.2.4,MacIntel,60.0024001,Chrome,1440,900,,,,,1,1059,,,,,,,,,,,,,,,,,174,H,star,1,1,,,,,,,,,,,,,,,,switch,number,numSwt,f,0.5802,Lo,,,,,,3,,,,,,,,high,2,0,2,0,1,,,,,,,,,
295675,2022-11-14_11h30.05.878,vts_reward_expectancy_bt,2022.2.4,MacIntel,60.0024001,Chrome,1440,900,,,,,1,1060,,,,,,,,,,,,,,,,,160,B,hexagon,1,0,,,,,,,,,,,,,,,,switch,letter,lettSwt,j,0.5481,Lo,,,,,,3,,,,,,,,high,3,0,3,0,1,,,,,,,,,
295675,2022-11-14_11h30.05.878,vts_reward_expectancy_bt,2022.2.4,MacIntel,60.0024001,Chrome,1440,900,,,,,0,1060,,,,,,,,,,,,,,,,,139,S,triangle,1,0,,,,,,,,,,,,,,,,repeat,letter,lettRpt,k,0.7803,Hi,,,,,,3,,,,,,,,high,4,0,4,0,1,,,,,,,,,
295675,2022-11-14_11h30.05.878,vts_reward_expectancy_bt,2022.2.4,MacIntel,60.0024001,Chrome,1440,900,,,,,10,1070,,,,,,,,,,,,,,,,,167,F,circle,1,0,,,,,,,,,,,,,,,,repeat,letter,lettRpt,j,0.5316,Hi,,,,,,3,,,,,,,,high,5,0,5,0,1,,,,,,,,,
295675,2022-11-14_11h30.05.878,vts_reward_expectancy_bt,2022.2.4,MacIntel,60.0024001,Chrome,1440,900,,,,,1,1071,,,,,,,,,,,,,,,,,125,W,star,1,0,,,,,,,,,,,,,,,,repeat,letter,lettRpt,k,0.4608,Lo,,,,,,3,,,,,,,,high,6,0,6,0,1,,,,,,,,,
295675,2022-11-14_11h30.05.878,vts_reward_expectancy_bt,2022.2.4,MacIntel,60.0024001,Chrome,1440,900,,,,,1,1072,,,,,,,,,,,,,,,,,132,Y,hexagon,1,0,,,,,,,,,,,,,,,,repeat,letter,lettRpt,k,0.7305,Lo,,,,,,3,,,,,,,,high,7,0,7,0,1,,,,,,,,,
295675,2022-11-14_11h30.05.878,vts_reward_expectancy_bt,2022.2.4,MacIntel,60.0024001,Chrome,1440,900,,,,,1,1073,,,,,,,,,,,,,,,,,181,U,hexagon,1,0,,,,,,,,,,,,,,,,switch,number,numSwt,f,0.4983,Lo,,,,,,3,,,,,,,,high,8,0,8,0,1,,,,,,,,,
295675,2022-11-14_11h30.05.878,vts_reward_expectancy_bt,2022.2.4,MacIntel,60.0024001,Chrome,1440,900,,,,,0,1073,,,,,,,,,,,,,,,,,146,D,star,0,0,,,,,,,,,,,,,,,,repeat,number,NA,f,0.6658,Lo,,,,,,3,,,,,,,,high,9,0,9,0,1,,,,,,,,,
295675,2022-11-14_11h30.05.878,vts_reward_expectancy_bt,2022.2.4,MacIntel,60.0024001,Chrome,1440,900,,,,,10,1083,,,,,,,,,,,,,,,,,174,H,circle,1,1,,,,,,,,,,,,,,,,repeat,number,numRpt,f,0.5686,Hi,,,,,,3,,,,,,,,high,10,0,10,0,1,,,,,,,,,
295675,2022-11-14_11h30.05.878,vts_reward_expectancy_bt,2022.2.4,MacIntel,60.0024001,Chrome,1440,900,,,,,10,1093,,,,,,,,,,,,,,,,,160,B,triangle,1,0,,,,,,,,,,,,,,,,repeat,number,numRpt,f,0.4808,Hi,,,,,,3,,,,,,,,high,11,0,11,0,1,,,,,,,,,
295675,2022-11-14_11h30.05.878,vts_reward_expectancy_bt,2022.2.4,MacIntel,60.0024001,Chrome,1440,900,,,,,1,1094,,,,,,,,,,,,,,,,,139,S,star,1,0,,,,,,,,,,,,,,,,switch,letter,lettSwt,k,0.6513,Lo,,,,,,3,,,,,,,,high,12,0,12,0,1,,,,,,,,,
295675,2022-11-14_11h30.05.878,vts_reward_expectancy_bt,2022.2.4,MacIntel,60.0024001,Chrome,1440,900,,,,,0,1094,,,,,,,,,,,,,,,,,167,F,triangle,1,0,,,,,,,,,,,,,,,,repeat,letter,lettRpt,j,0.7309,Hi,,,,,,3,,,,,,,,high,13,0,13,0,1,,,,,,,,,
295675,2022-11-14_11h30.05.878,vts_reward_expectancy_bt,2022.2.4,MacIntel,60.0024001,Chrome,1440,900,,,,,1,1095,,,,,,,,,,,,,,,,,125,W,hexagon,1,0,,,,,,,,,,,,,,,,repeat,letter,lettRpt,k,0.8663,Lo,,,,,,3,,,,,,,,high,14,0,14,0,1,,,,,,,,,
295675,2022-11-14_11h30.05.878,vts_reward_expectancy_bt,2022.2.4,MacIntel,60.0024001,Chrome,1440,900,,,,,0,1095,,,,,,,,,,,,,,,,,132,Y,circle,1,0,,,,,,,,,,,,,,,,repeat,letter,lettRpt,k,0.713,Hi,,,,,,3,,,,,,,,high,15,0,15,0,1,,,,,,,,,
295675,2022-11-14_11h30.05.878,vts_reward_expectancy_bt,2022.2.4,MacIntel,60.0024001,Chrome,1440,900,,,,,1,1096,,,,,,,,,,,,,,,,,167,H,star,1,0,,,,,,,,,,,,,,,,repeat,letter,lettRpt,j,0.7141,Lo,,,,,,3,,,,,,,,high,16,0,16,0,1,,,,,,,,,
295675,2022-11-14_11h30.05.878,vts_reward_expectancy_bt,2022.2.4,MacIntel,60.0024001,Chrome,1440,900,,,,,1,1097,,,,,,,,,,,,,,,,,160,D,hexagon,1,0,,,,,,,,,,,,,,,,switch,number,numSwt,f,0.568,Lo,,,,,,3,,,,,,,,high,17,0,17,0,1,,,,,,,,,
295675,2022-11-14_11h30.05.878,vts_reward_expectancy_bt,2022.2.4,MacIntel,60.0024001,Chrome,1440,900,,,,,10,1107,,,,,,,,,,,,,,,,,139,B,circle,1,0,,,,,,,,,,,,,,,,repeat,number,numRpt,d,0.5668,Hi,,,,,,3,,,,,,,,high,18,0,18,0,1,,,,,,,,,
295675,2022-11-14_11h30.05.878,vts_reward_expectancy_bt,2022.2.4,MacIntel,60.0024001,Chrome,1440,900,,,,,10,1117,,,,,,,,,,,,,,,,,132,Y,triangle,1,0,,,,,,,,,,,,,,,,repeat,number,numRpt,d,0.5456,Hi,,,,,,3,,,,,,,,high,19,0,19,0,1,,,,,,,,,
295675,2022-11-14_11h30.05.878,vts_reward_expectancy_bt,2022.2.4,MacIntel,60.0024001,Chrome,1440,900,,,,,1,1118,,,,,,,,,,,,,,,,,146,U,hexagon,1,0,,,,,,,,,,,,,,,,repeat,number,numRpt,d,0.4602,Lo,,,,,,3,,,,,,,,high,20,0,20,0,1,,,,,,,,,
295675,2022-11-14_11h30.05.878,vts_reward_expectancy_bt,2022.2.4,MacIntel,60.0024001,Chrome,1440,900,,,,,10,1128,,,,,,,,,,,,,,,,,181,W,circle,1,0,,,,,,,,,,,,,,,,switch,letter,lettSwt,k,0.563,Hi,,,,,,3,,,,,,,,high,21,0,21,0,1,,,,,,,,,
295675,2022-11-14_11h30.05.878,vts_reward_expectancy_bt,2022.2.4,MacIntel,60.0024001,Chrome,1440,900,,,,,1,1129,,,,,,,,,,,,,,,,,174,F,star,1,0,,,,,,,,,,,,,,,,repeat,letter,lettRpt,j,0.4161,Lo,,,,,,3,,,,,,,,high,22,0,22,0,1,,,,,,,,,
295675,2022-11-14_11h30.05.878,vts_reward_expectancy_bt,2022.2.4,MacIntel,60.0024001,Chrome,1440,900,,,,,10,1139,,,,,,,,,,,,,,,,,125,S,triangle,1,0,,,,,,,,,,,,,,,,switch,number,numSwt,d,0.664,Hi,,,,,,3,,,,,,,,high,23,0,23,0,1,,,,,,,,,
295675,2022-11-14_11h30.05.878,vts_reward_expectancy_bt,2022.2.4,MacIntel,60.0024001,Chrome,1440,900,,,,,1,1140,,,,,,,,,,,,,,,,,146,H,circle,1,0,,,,,,,,,,,,,,,,switch,letter,lettSwt,j,0.531,Hi,,,,,,3,,,,,,,,high,24,0,24,0,1,,,,,,,,,
295675,2022-11-14_11h30.05.878,vts_reward_expectancy_bt,2022.2.4,MacIntel,60.0024001,Chrome,1440,900,,,,,10,1150,,,,,,,,,,,,,,,,,125,Y,star,1,0,,,,,,,,,,,,,,,,repeat,letter,lettRpt,k,0.4439,Lo,,,,,,3,,,,,,,,high,25,0,25,0,1,,,,,,,,,
295675,2022-11-14_11h30.05.878,vts_reward_expectancy_bt,2022.2.4,MacIntel,60.0024001,Chrome,1440,900,,,,,1,1151,,,,,,,,,,,,,,,,,139,D,triangle,1,0,,,,,,,,,,,,,,,,repeat,letter,lettRpt,j,0.549,Hi,,,,,,3,,,,,,,,high,26,0,26,0,1,,,,,,,,,
295675,2022-11-14_11h30.05.878,vts_reward_expectancy_bt,2022.2.4,MacIntel,60.0024001,Chrome,1440,900,,,,,1,1152,,,,,,,,,,,,,,,,,132,F,hexagon,1,0,,,,,,,,,,,,,,,,repeat,letter,lettRpt,j,0.4275,Lo,,,,,,3,,,,,,,,high,27,0,27,0,1,,,,,,,,,
295675,2022-11-14_11h30.05.878,vts_reward_expectancy_bt,2022.2.4,MacIntel,60.0024001,Chrome,1440,900,,,,,1,1153,,,,,,,,,,,,,,,,,160,B,star,1,0,,,,,,,,,,,,,,,,switch,number,numSwt,f,0.6435,Lo,,,,,,3,,,,,,,,high,28,0,28,0,1,,,,,,,,,
295675,2022-11-14_11h30.05.878,vts_reward_expectancy_bt,2022.2.4,MacIntel,60.0024001,Chrome,1440,900,,,,,10,1163,,,,,,,,,,,,,,,,,174,U,hexagon,1,0,,,,,,,,,,,,,,,,repeat,number,numRpt,f,0.5653,Lo,,,,,,3,,,,,,,,high,29,0,29,0,1,,,,,,,,,
295675,2022-11-14_11h30.05.878,vts_reward_expectancy_bt,2022.2.4,MacIntel,60.0024001,Chrome,1440,900,,,,,10,1173,,,,,,,,,,,,,,,,,181,W,circle,1,0,,,,,,,,,,,,,,,,repeat,number,numRpt,f,0.4588,Hi,,,,,,3,,,,,,,,high,30,0,30,0,1,,,,,,,,,
295675,2022-11-14_11h30.05.878,vts_reward_expectancy_bt,2022.2.4,MacIntel,60.0024001,Chrome,1440,900,,,,,10,1183,,,,,,,,,,,,,,,,,167,S,triangle,1,0,,,,,,,,,,,,,,,,repeat,number,numRpt,f,0.5037,Hi,,,,,,3,,,,,,,,high,31,0,31,0,1,,,,,,,,,
295675,2022-11-14_11h30.05.878,vts_reward_expectancy_bt,2022.2.4,MacIntel,60.0024001,Chrome,1440,900,,,,,0,1183,,,,,,,,,,,,,,,,,167,S,circle,1,0,,,,,,,,,,,,,,,,repeat,number,numRpt,f,0.768,Hi,,,,,,4,,,,,,space,5.8869,high,0,0,0,0,1,,,,,,,,,
295675,2022-11-14_11h30.05.878,vts_reward_expectancy_bt,2022.2.4,MacIntel,60.0024001,Chrome,1440,900,,,,,1,1184,,,,,,,,,,,,,,,,,132,F,star,1,0,,,,,,,,,,,,,,,,repeat,number,numRpt,d,0.6724,Lo,,,,,,4,,,,,,,,high,1,0,1,0,1,,,,,,,,,
295675,2022-11-14_11h30.05.878,vts_reward_expectancy_bt,2022.2.4,MacIntel,60.0024001,Chrome,1440,900,,,,,0,1184,,,,,,,,,,,,,,,,,174,H,triangle,0,0,,,,,,,,,,,,,,,,switch,letter,NA,k,0.563,Lo,,,,,,4,,,,,,,,high,2,0,2,0,1,,,,,,,,,
295675,2022-11-14_11h30.05.878,vts_reward_expectancy_bt,2022.2.4,MacIntel,60.0024001,Chrome,1440,900,,,,,1,1185,,,,,,,,,,,,,,,,,125,W,hexagon,1,1,,,,,,,,,,,,,,,,repeat,letter,lettRpt,k,0.6689,Lo,,,,,,4,,,,,,,,high,3,0,3,0,1,,,,,,,,,
295675,2022-11-14_11h30.05.878,vts_reward_expectancy_bt,2022.2.4,MacIntel,60.0024001,Chrome,1440,900,,,,,1,1186,,,,,,,,,,,,,,,,,160,U,circle,1,0,,,,,,,,,,,,,,,,repeat,letter,lettRpt,k,0.4802,Hi,,,,,,4,,,,,,,,high,4,0,4,0,1,,,,,,,,,
295675,2022-11-14_11h30.05.878,vts_reward_expectancy_bt,2022.2.4,MacIntel,60.0024001,Chrome,1440,900,,,,,1,1187,,,,,,,,,,,,,,,,,139,B,star,1,0,,,,,,,,,,,,,,,,switch,number,numSwt,d,0.5318,Lo,,,,,,4,,,,,,,,high,5,0,5,0,1,,,,,,,,,
295675,2022-11-14_11h30.05.878,vts_reward_expectancy_bt,2022.2.4,MacIntel,60.0024001,Chrome,1440,900,,,,,0,1187,,,,,,,,,,,,,,,,,146,D,triangle,0,0,,,,,,,,,,,,,,,,repeat,number,NA,f,0.4787,Lo,,,,,,4,,,,,,,,high,6,0,6,0,1,,,,,,,,,
295675,2022-11-14_11h30.05.878,vts_reward_expectancy_bt,2022.2.4,MacIntel,60.0024001,Chrome,1440,900,,,,,1,1188,,,,,,,,,,,,,,,,,181,Y,hexagon,1,1,,,,,,,,,,,,,,,,repeat,number,numRpt,f,0.6019,Lo,,,,,,4,,,,,,,,high,7,0,7,0,1,,,,,,,,,
295675,2022-11-14_11h30.05.878,vts_reward_expectancy_bt,2022.2.4,MacIntel,60.0024001,Chrome,1440,900,,,,,0,1188,,,,,,,,,,,,,,,,,167,S,circle,1,0,,,,,,,,,,,,,,,,switch,letter,lettSwt,k,0.6971,Hi,,,,,,4,,,,,,,,high,8,0,8,0,1,,,,,,,,,
295675,2022-11-14_11h30.05.878,vts_reward_expectancy_bt,2022.2.4,MacIntel,60.0024001,Chrome,1440,900,,,,,1,1189,,,,,,,,,,,,,,,,,132,F,hexagon,1,0,,,,,,,,,,,,,,,,repeat,letter,lettRpt,j,0.5648,Lo,,,,,,4,,,,,,,,high,9,0,9,0,1,,,,,,,,,
295675,2022-11-14_11h30.05.878,vts_reward_expectancy_bt,2022.2.4,MacIntel,60.0024001,Chrome,1440,900,,,,,0,1189,,,,,,,,,,,,,,,,,174,H,triangle,0,0,,,,,,,,,,,,,,,,repeat,letter,NA,k,0.4141,Lo,,,,,,4,,,,,,,,high,10,0,10,0,1,,,,,,,,,
295675,2022-11-14_11h30.05.878,vts_reward_expectancy_bt,2022.2.4,MacIntel,60.0024001,Chrome,1440,900,,,,,1,1190,,,,,,,,,,,,,,,,,125,W,star,1,1,,,,,,,,,,,,,,,,switch,number,numSwt,d,0.6612,Lo,,,,,,4,,,,,,,,high,11,0,11,0,1,,,,,,,,,
295675,2022-11-14_11h30.05.878,vts_reward_expectancy_bt,2022.2.4,MacIntel,60.0024001,Chrome,1440,900,,,,,0,1190,,,,,,,,,,,,,,,,,160,U,triangle,1,0,,,,,,,,,,,,,,,,switch,letter,lettSwt,k,0.5646,Hi,,,,,,4,,,,,,,,high,12,0,12,0,1,,,,,,,,,
295675,2022-11-14_11h30.05.878,vts_reward_expectancy_bt,2022.2.4,MacIntel,60.0024001,Chrome,1440,900,,,,,0,1190,,,,,,,,,,,,,,,,,139,B,circle,1,0,,,,,,,,,,,,,,,,repeat,letter,lettRpt,j,0.7362,Hi,,,,,,4,,,,,,,,high,13,0,13,0,1,,,,,,,,,
295675,2022-11-14_11h30.05.878,vts_reward_expectancy_bt,2022.2.4,MacIntel,60.0024001,Chrome,1440,900,,,,,1,1191,,,,,,,,,,,,,,,,,146,D,hexagon,1,0,,,,,,,,,,,,,,,,repeat,letter,lettRpt,j,0.8304,Lo,,,,,,4,,,,,,,,high,14,0,14,0,1,,,,,,,,,
295675,2022-11-14_11h30.05.878,vts_reward_expectancy_bt,2022.2.4,MacIntel,60.0024001,Chrome,1440,900,,,,,1,1192,,,,,,,,,,,,,,,,,181,Y,star,1,0,,,,,,,,,,,,,,,,repeat,letter,lettRpt,k,0.6142,Lo,,,,,,4,,,,,,,,high,15,0,15,0,1,,,,,,,,,
295675,2022-11-14_11h30.05.878,vts_reward_expectancy_bt,2022.2.4,MacIntel,60.0024001,Chrome,1440,900,,,,,1,1193,,,,,,,,,,,,,,,,,160,U,star,1,0,,,,,,,,,,,,,,,,repeat,letter,lettRpt,k,0.7981,Lo,,,,,,4,,,,,,,,high,16,0,16,0,1,,,,,,,,,
295675,2022-11-14_11h30.05.878,vts_reward_expectancy_bt,2022.2.4,MacIntel,60.0024001,Chrome,1440,900,,,,,0,1193,,,,,,,,,,,,,,,,,125,S,circle,1,0,,,,,,,,,,,,,,,,switch,number,numSwt,d,0.7113,Hi,,,,,,4,,,,,,,,high,17,0,17,0,1,,,,,,,,,
295675,2022-11-14_11h30.05.878,vts_reward_expectancy_bt,2022.2.4,MacIntel,60.0024001,Chrome,1440,900,,,,,1,1194,,,,,,,,,,,,,,,,,181,H,hexagon,1,0,,,,,,,,,,,,,,,,repeat,number,numRpt,f,0.752,Lo,,,,,,4,,,,,,,,high,18,0,18,0,1,,,,,,,,,
295675,2022-11-14_11h30.05.878,vts_reward_expectancy_bt,2022.2.4,MacIntel,60.0024001,Chrome,1440,900,,,,,0,1194,,,,,,,,,,,,,,,,,139,D,triangle,1,0,,,,,,,,,,,,,,,,switch,letter,lettSwt,j,0.6312,Hi,,,,,,4,,,,,,,,high,19,0,19,0,1,,,,,,,,,
295675,2022-11-14_11h30.05.878,vts_reward_expectancy_bt,2022.2.4,MacIntel,60.0024001,Chrome,1440,900,,,,,1,1195,,,,,,,,,,,,,,,,,174,W,hexagon,1,0,,,,,,,,,,,,,,,,switch,number,numSwt,f,0.6649,Lo,,,,,,4,,,,,,,,high,20,0,20,0,1,,,,,,,,,
295675,2022-11-14_11h30.05.878,vts_reward_expectancy_bt,2022.2.4,MacIntel,60.0024001,Chrome,1440,900,,,,,0,1195,,,,,,,,,,,,,,,,,132,Y,triangle,1,0,,,,,,,,,,,,,,,,switch,letter,lettSwt,k,0.7979,Hi,,,,,,4,,,,,,,,high,21,0,21,0,1,,,,,,,,,
295675,2022-11-14_11h30.05.878,vts_reward_expectancy_bt,2022.2.4,MacIntel,60.0024001,Chrome,1440,900,,,,,1,1196,,,,,,,,,,,,,,,,,167,F,star,1,0,,,,,,,,,,,,,,,,repeat,letter,lettRpt,j,0.582,Lo,,,,,,4,,,,,,,,high,22,0,22,0,1,,,,,,,,,
295675,2022-11-14_11h30.05.878,vts_reward_expectancy_bt,2022.2.4,MacIntel,60.0024001,Chrome,1440,900,,,,,0,1196,,,,,,,,,,,,,,,,,146,B,circle,1,0,,,,,,,,,,,,,,,,repeat,letter,lettRpt,j,0.5796,Hi,,,,,,4,,,,,,,,high,23,0,23,0,1,,,,,,,,,
295675,2022-11-14_11h30.05.878,vts_reward_expectancy_bt,2022.2.4,MacIntel,60.0024001,Chrome,1440,900,,,,,10,1206,,,,,,,,,,,,,,,,,139,U,hexagon,1,0,,,,,,,,,,,,,,,,repeat,letter,lettRpt,k,0.467,Lo,,,,,,4,,,,,,,,high,24,0,24,0,1,,,,,,,,,
295675,2022-11-14_11h30.05.878,vts_reward_expectancy_bt,2022.2.4,MacIntel,60.0024001,Chrome,1440,900,,,,,1,1207,,,,,,,,,,,,,,,,,160,W,star,1,0,,,,,,,,,,,,,,,,repeat,letter,lettRpt,k,0.4863,Lo,,,,,,4,,,,,,,,high,25,0,25,0,1,,,,,,,,,
295675,2022-11-14_11h30.05.878,vts_reward_expectancy_bt,2022.2.4,MacIntel,60.0024001,Chrome,1440,900,,,,,0,1207,,,,,,,,,,,,,,,,,132,H,circle,0,0,,,,,,,,,,,,,,,,repeat,letter,NA,k,0.605,Lo,,,,,,4,,,,,,,,high,26,0,26,0,1,,,,,,,,,
295675,2022-11-14_11h30.05.878,vts_reward_expectancy_bt,2022.2.4,MacIntel,60.0024001,Chrome,1440,900,,,,,0,1207,,,,,,,,,,,,,,,,,167,D,triangle,0,1,,,,,,,,,,,,,,,,switch,number,NA,d,0.6145,Lo,,,,,,4,,,,,,,,high,27,0,27,0,1,,,,,,,,,
295675,2022-11-14_11h30.05.878,vts_reward_expectancy_bt,2022.2.4,MacIntel,60.0024001,Chrome,1440,900,,,,,1,1208,,,,,,,,,,,,,,,,,125,Y,star,1,1,,,,,,,,,,,,,,,,repeat,number,numRpt,d,0.7219,Lo,,,,,,4,,,,,,,,high,28,0,28,0,1,,,,,,,,,
295675,2022-11-14_11h30.05.878,vts_reward_expectancy_bt,2022.2.4,MacIntel,60.0024001,Chrome,1440,900,,,,,1,1209,,,,,,,,,,,,,,,,,181,F,hexagon,1,0,,,,,,,,,,,,,,,,repeat,number,numRpt,f,0.5298,Lo,,,,,,4,,,,,,,,high,29,0,29,0,1,,,,,,,,,
295675,2022-11-14_11h30.05.878,vts_reward_expectancy_bt,2022.2.4,MacIntel,60.0024001,Chrome,1440,900,,,,,10,1219,,,,,,,,,,,,,,,,,146,S,circle,1,0,,,,,,,,,,,,,,,,switch,letter,lettSwt,k,0.5134,Hi,,,,,,4,,,,,,,,high,30,0,30,0,1,,,,,,,,,
295675,2022-11-14_11h30.05.878,vts_reward_expectancy_bt,2022.2.4,MacIntel,60.0024001,Chrome,1440,900,,,,,0,1219,,,,,,,,,,,,,,,,,174,B,triangle,1,0,,,,,,,,,,,,,,,,repeat,letter,lettRpt,j,0.5142,Hi,,,,,,4,,,,,,,,high,31,0,31,0,1,,,,,,,,,
295675,2022-11-14_11h30.05.878,vts_reward_expectancy_bt,2022.2.4,MacIntel,60.0024001,Chrome,1440,900,,,,,0,1219,,,,,,,,,,,,,,,,,160,D,circle,0,0,,,,,,,,,,,,,,,,switch,number,NA,d,0.6164,Hi,,,,,,5,,,,,,space,2.4729,high,0,0,0,0,1,,,,,,,,,
295675,2022-11-14_11h30.05.878,vts_reward_expectancy_bt,2022.2.4,MacIntel,60.0024001,Chrome,1440,900,,,,,10,1229,,,,,,,,,,,,,,,,,174,U,triangle,1,1,,,,,,,,,,,,,,,,repeat,number,numRpt,f,0.6152,Hi,,,,,,5,,,,,,,,high,1,0,1,0,1,,,,,,,,,
295675,2022-11-14_11h30.05.878,vts_reward_expectancy_bt,2022.2.4,MacIntel,60.0024001,Chrome,1440,900,,,,,1,1230,,,,,,,,,,,,,,,,,167,B,star,1,0,,,,,,,,,,,,,,,,repeat,number,numRpt,f,0.5034,Lo,,,,,,5,,,,,,,,high,2,0,2,0,1,,,,,,,,,
295675,2022-11-14_11h30.05.878,vts_reward_expectancy_bt,2022.2.4,MacIntel,60.0024001,Chrome,1440,900,,,,,1,1231,,,,,,,,,,,,,,,,,146,S,hexagon,1,0,,,,,,,,,,,,,,,,repeat,number,numRpt,d,0.3816,Lo,,,,,,5,,,,,,,,high,3,0,3,0,1,,,,,,,,,
295675,2022-11-14_11h30.05.878,vts_reward_expectancy_bt,2022.2.4,MacIntel,60.0024001,Chrome,1440,900,,,,,0,1231,,,,,,,,,,,,,,,,,139,H,circle,1,0,,,,,,,,,,,,,,,,switch,letter,lettSwt,j,0.6222,Hi,,,,,,5,,,,,,,,high,4,0,4,0,1,,,,,,,,,
295675,2022-11-14_11h30.05.878,vts_reward_expectancy_bt,2022.2.4,MacIntel,60.0024001,Chrome,1440,900,,,,,10,1241,,,,,,,,,,,,,,,,,125,F,triangle,1,0,,,,,,,,,,,,,,,,repeat,letter,lettRpt,j,0.5306,Hi,,,,,,5,,,,,,,,high,5,0,5,0,1,,,,,,,,,
295675,2022-11-14_11h30.05.878,vts_reward_expectancy_bt,2022.2.4,MacIntel,60.0024001,Chrome,1440,900,,,,,1,1242,,,,,,,,,,,,,,,,,132,Y,star,1,0,,,,,,,,,,,,,,,,repeat,letter,lettRpt,k,0.5301,Lo,,,,,,5,,,,,,,,high,6,0,6,0,1,,,,,,,,,
295675,2022-11-14_11h30.05.878,vts_reward_expectancy_bt,2022.2.4,MacIntel,60.0024001,Chrome,1440,900,,,,,1,1243,,,,,,,,,,,,,,,,,181,W,hexagon,1,0,,,,,,,,,,,,,,,,repeat,letter,lettRpt,k,0.5668,Lo,,,,,,5,,,,,,,,high,7,0,7,0,1,,,,,,,,,
295675,2022-11-14_11h30.05.878,vts_reward_expectancy_bt,2022.2.4,MacIntel,60.0024001,Chrome,1440,900,,,,,0,1243,,,,,,,,,,,,,,,,,160,D,circle,1,0,,,,,,,,,,,,,,,,repeat,letter,lettRpt,j,0.7651,Hi,,,,,,5,,,,,,,,high,8,0,8,0,1,,,,,,,,,
295675,2022-11-14_11h30.05.878,vts_reward_expectancy_bt,2022.2.4,MacIntel,60.0024001,Chrome,1440,900,,,,,1,1244,,,,,,,,,,,,,,,,,174,U,star,1,0,,,,,,,,,,,,,,,,switch,number,numSwt,f,0.6142,Lo,,,,,,5,,,,,,,,high,9,0,9,0,1,,,,,,,,,
295675,2022-11-14_11h30.05.878,vts_reward_expectancy_bt,2022.2.4,MacIntel,60.0024001,Chrome,1440,900,,,,,1,1245,,,,,,,,,,,,,,,,,167,B,hexagon,1,0,,,,,,,,,,,,,,,,repeat,number,numRpt,f,0.5473,Lo,,,,,,5,,,,,,,,high,10,0,10,0,1,,,,,,,,,
295675,2022-11-14_11h30.05.878,vts_reward_expectancy_bt,2022.2.4,MacIntel,60.0024001,Chrome,1440,900,,,,,10,1255,,,,,,,,,,,,,,,,,146,S,triangle,1,0,,,,,,,,,,,,,,,,repeat,number,numRpt,d,0.5476,Hi,,,,,,5,,,,,,,,high,11,0,11,0,1,,,,,,,,,
295675,2022-11-14_11h30.05.878,vts_reward_expectancy_bt,2022.2.4,MacIntel,60.0024001,Chrome,1440,900,,,,,1,1256,,,,,,,,,,,,,,,,,139,H,hexagon,1,0,,,,,,,,,,,,,,,,repeat,number,numRpt,d,0.6161,Lo,,,,,,5,,,,,,,,high,12,0,12,0,1,,,,,,,,,
295675,2022-11-14_11h30.05.878,vts_reward_expectancy_bt,2022.2.4,MacIntel,60.0024001,Chrome,1440,900,,,,,1,1257,,,,,,,,,,,,,,,,,125,F,triangle,1,0,,,,,,,,,,,,,,,,repeat,number,numRpt,d,0.55,Hi,,,,,,5,,,,,,,,high,13,0,13,0,1,,,,,,,,,
295675,2022-11-14_11h30.05.878,vts_reward_expectancy_bt,2022.2.4,MacIntel,60.0024001,Chrome,1440,900,,,,,10,1267,,,,,,,,,,,,,,,,,132,Y,star,1,0,,,,,,,,,,,,,,,,switch,letter,lettSwt,k,0.5137,Lo,,,,,,5,,,,,,,,high,14,0,14,0,1,,,,,,,,,
295675,2022-11-14_11h30.05.878,vts_reward_expectancy_bt,2022.2.4,MacIntel,60.0024001,Chrome,1440,900,,,,,10,1277,,,,,,,,,,,,,,,,,181,W,circle,1,0,,,,,,,,,,,,,,,,repeat,letter,lettRpt,k,0.4818,Hi,,,,,,5,,,,,,,,high,15,0,15,0,1,,,,,,,,,
295675,2022-11-14_11h30.05.878,vts_reward_expectancy_bt,2022.2.4,MacIntel,60.0024001,Chrome,1440,900,,,,,10,1287,,,,,,,,,,,,,,,,,139,S,triangle,1,0,,,,,,,,,,,,,,,,repeat,letter,lettRpt,k,0.4636,Hi,,,,,,5,,,,,,,,high,16,0,16,0,1,,,,,,,,,
295675,2022-11-14_11h30.05.878,vts_reward_expectancy_bt,2022.2.4,MacIntel,60.0024001,Chrome,1440,900,,,,,1,1288,,,,,,,,,,,,,,,,,125,H,hexagon,1,0,,,,,,,,,,,,,,,,switch,number,numSwt,d,0.5534,Lo,,,,,,5,,,,,,,,high,17,0,17,0,1,,,,,,,,,
295675,2022-11-14_11h30.05.878,vts_reward_expectancy_bt,2022.2.4,MacIntel,60.0024001,Chrome,1440,900,,,,,10,1298,,,,,,,,,,,,,,,,,181,W,circle,1,0,,,,,,,,,,,,,,,,repeat,number,numRpt,f,0.5478,Hi,,,,,,5,,,,,,,,high,18,0,18,0,1,,,,,,,,,
295675,2022-11-14_11h30.05.878,vts_reward_expectancy_bt,2022.2.4,MacIntel,60.0024001,Chrome,1440,900,,,,,1,1299,,,,,,,,,,,,,,,,,167,F,star,1,0,,,,,,,,,,,,,,,,switch,letter,lettSwt,j,0.6277,Lo,,,,,,5,,,,,,,,high,19,0,19,0,1,,,,,,,,,
295675,2022-11-14_11h30.05.878,vts_reward_expectancy_bt,2022.2.4,MacIntel,60.0024001,Chrome,1440,900,,,,,0,1299,,,,,,,,,,,,,,,,,132,Y,circle,1,0,,,,,,,,,,,,,,,,repeat,letter,lettRpt,k,0.5517,Hi,,,,,,5,,,,,,,,high,20,0,20,0,1,,,,,,,,,
295675,2022-11-14_11h30.05.878,vts_reward_expectancy_bt,2022.2.4,MacIntel,60.0024001,Chrome,1440,900,,,,,0,1299,,,,,,,,,,,,,,,,,146,U,triangle,1,0,,,,,,,,,,,,,,,,repeat,letter,lettRpt,k,0.5888,Hi,,,,,,5,,,,,,,,high,21,0,21,0,1,,,,,,,,,
295675,2022-11-14_11h30.05.878,vts_reward_expectancy_bt,2022.2.4,MacIntel,60.0024001,Chrome,1440,900,,,,,1,1300,,,,,,,,,,,,,,,,,174,B,hexagon,1,0,,,,,,,,,,,,,,,,repeat,letter,lettRpt,j,0.7203,Lo,,,,,,5,,,,,,,,high,22,0,22,0,1,,,,,,,,,
295675,2022-11-14_11h30.05.878,vts_reward_expectancy_bt,2022.2.4,MacIntel,60.0024001,Chrome,1440,900,,,,,1,1301,,,,,,,,,,,,,,,,,160,D,star,1,0,,,,,,,,,,,,,,,,switch,number,numSwt,f,0.6475,Lo,,,,,,5,,,,,,,,high,23,0,23,0,1,,,,,,,,,
295675,2022-11-14_11h30.05.878,vts_reward_expectancy_bt,2022.2.4,MacIntel,60.0024001,Chrome,1440,900,,,,,1,1302,,,,,,,,,,,,,,,,,132,U,star,1,0,,,,,,,,,,,,,,,,repeat,number,numRpt,d,0.5428,Lo,,,,,,5,,,,,,,,high,24,0,24,0,1,,,,,,,,,
295675,2022-11-14_11h30.05.878,vts_reward_expectancy_bt,2022.2.4,MacIntel,60.0024001,Chrome,1440,900,,,,,0,1302,,,,,,,,,,,,,,,,,167,Y,triangle,0,0,,,,,,,,,,,,,,,,repeat,number,NA,d,0.7828,Lo,,,,,,5,,,,,,,,high,25,0,25,0,1,,,,,,,,,
295675,2022-11-14_11h30.05.878,vts_reward_expectancy_bt,2022.2.4,MacIntel,60.0024001,Chrome,1440,900,,,,,10,1312,,,,,,,,,,,,,,,,,125,S,circle,1,1,,,,,,,,,,,,,,,,repeat,number,numRpt,d,0.5455,Hi,,,,,,5,,,,,,,,high,26,0,26,0,1,,,,,,,,,
295675,2022-11-14_11h30.05.878,vts_reward_expectancy_bt,2022.2.4,MacIntel,60.0024001,Chrome,1440,900,,,,,0,1312,,,,,,,,,,,,,,,,,146,W,hexagon,0,0,,,,,,,,,,,,,,,,switch,letter,NA,j,0.5138,Hi,,,,,,5,,,,,,,,high,27,0,27,0,1,,,,,,,,,
295675,2022-11-14_11h30.05.878,vts_reward_expectancy_bt,2022.2.4,MacIntel,60.0024001,Chrome,1440,900,,,,,0,1312,,,,,,,,,,,,,,,,,139,H,circle,1,1,,,,,,,,,,,,,,,,repeat,letter,lettRpt,j,0.6117,Hi,,,,,,5,,,,,,,,high,28,0,28,0,1,,,,,,,,,
295675,2022-11-14_11h30.05.878,vts_reward_expectancy_bt,2022.2.4,MacIntel,60.0024001,Chrome,1440,900,,,,,1,1313,,,,,,,,,,,,,,,,,160,D,star,1,0,,,,,,,,,,,,,,,,repeat,letter,lettRpt,j,0.531,Lo,,,,,,5,,,,,,,,high,29,0,29,0,1,,,,,,,,,
295675,2022-11-14_11h30.05.878,vts_reward_expectancy_bt,2022.2.4,MacIntel,60.0024001,Chrome,1440,900,,,,,10,1323,,,,,,,,,,,,,,,,,181,F,triangle,1,0,,,,,,,,,,,,,,,,repeat,letter,lettRpt,j,0.4659,Hi,,,,,,5,,,,,,,,high,30,0,30,0,1,,,,,,,,,
295675,2022-11-14_11h30.05.878,vts_reward_expectancy_bt,2022.2.4,MacIntel,60.0024001,Chrome,1440,900,,,,,0,1323,,,,,,,,,,,,,,,,,174,B,hexagon,0,0,,,,,,,,,,,,,,,,switch,number,NA,d,0.5972,Hi,,,,,,5,,,,,,,,high,31,0,31,0,1,,,,,,,,,
295675,2022-11-14_11h30.05.878,vts_reward_expectancy_bt,2022.2.4,MacIntel,60.0024001,Chrome,1440,900,,,,,1,1324,,,,,,,,,,,,,,,,,146,D,hexagon,1,1,,,,,,,,,,,,,,,,repeat,number,numRpt,d,0.5976,Lo,,,,,,6,,,,,,space,6.3073,high,0,0,0,0,1,,,,,,,,,
295675,2022-11-14_11h30.05.878,vts_reward_expectancy_bt,2022.2.4,MacIntel,60.0024001,Chrome,1440,900,,,,,10,1334,,,,,,,,,,,,,,,,,181,U,triangle,1,0,,,,,,,,,,,,,,,,repeat,number,numRpt,f,0.4834,Hi,,,,,,6,,,,,,,,high,1,0,1,0,1,,,,,,,,,
295675,2022-11-14_11h30.05.878,vts_reward_expectancy_bt,2022.2.4,MacIntel,60.0024001,Chrome,1440,900,,,,,0,1334,,,,,,,,,,,,,,,,,174,H,star,0,0,,,,,,,,,,,,,,,,switch,letter,NA,k,0.4991,Hi,,,,,,6,,,,,,,,high,2,0,2,0,1,,,,,,,,,
295675,2022-11-14_11h30.05.878,vts_reward_expectancy_bt,2022.2.4,MacIntel,60.0024001,Chrome,1440,900,,,,,0,1334,,,,,,,,,,,,,,,,,139,F,circle,1,1,,,,,,,,,,,,,,,,repeat,letter,lettRpt,j,0.6474,Hi,,,,,,6,,,,,,,,high,3,0,3,0,1,,,,,,,,,
295675,2022-11-14_11h30.05.878,vts_reward_expectancy_bt,2022.2.4,MacIntel,60.0024001,Chrome,1440,900,,,,,1,1335,,,,,,,,,,,,,,,,,132,B,hexagon,1,0,,,,,,,,,,,,,,,,repeat,letter,lettRpt,j,0.6133,Lo,,,,,,6,,,,,,,,high,4,0,4,0,1,,,,,,,,,
295675,2022-11-14_11h30.05.878,vts_reward_expectancy_bt,2022.2.4,MacIntel,60.0024001,Chrome,1440,900,,,,,0,1335,,,,,,,,,,,,,,,,,160,S,triangle,1,0,,,,,,,,,,,,,,,,switch,number,numSwt,f,0.627,Hi,,,,,,6,,,,,,,,high,5,0,5,0,1,,,,,,,,,
295675,2022-11-14_11h30.05.878,vts_reward_expectancy_bt,2022.2.4,MacIntel,60.0024001,Chrome,1440,900,,,,,1,1336,,,,,,,,,,,,,,,,,125,W,star,1,0,,,,,,,,,,,,,,,,repeat,number,numRpt,d,0.6836,Lo,,,,,,6,,,,,,,,high,6,0,6,0,1,,,,,,,,,
295675,2022-11-14_11h30.05.878,vts_reward_expectancy_bt,2022.2.4,MacIntel,60.0024001,Chrome,1440,900,,,,,0,1336,,,,,,,,,,,,,,,,,167,Y,circle,0,0,,,,,,,,,,,,,,,,repeat,number,NA,d,0.6195,Lo,,,,,,6,,,,,,,,high,7,0,7,0,1,,,,,,,,,
295675,2022-11-14_11h30.05.878,vts_reward_expectancy_bt,2022.2.4,MacIntel,60.0024001,Chrome,1440,900,,,,,0,1336,,,,,,,,,,,,,,,,,146,D,triangle,1,1,,,,,,,,,,,,,,,,switch,letter,lettSwt,j,0.6777,Hi,,,,,,6,,,,,,,,high,8,0,8,0,1,,,,,,,,,
295675,2022-11-14_11h30.05.878,vts_reward_expectancy_bt,2022.2.4,MacIntel,60.0024001,Chrome,1440,900,,,,,0,1336,,,,,,,,,,,,,,,,,181,U,circle,1,0,,,,,,,,,,,,,,,,repeat,letter,lettRpt,k,0.6644,Hi,,,,,,6,,,,,,,,high,9,0,9,0,1,,,,,,,,,
295675,2022-11-14_11h30.05.878,vts_reward_expectancy_bt,2022.2.4,MacIntel,60.0024001,Chrome,1440,900,,,,,1,1337,,,,,,,,,,,,,,,,,174,H,star,1,0,,,,,,,,,,,,,,,,repeat,letter,lettRpt,j,0.6567,Lo,,,,,,6,,,,,,,,high,10,0,10,0,1,,,,,,,,,
295675,2022-11-14_11h30.05.878,vts_reward_expectancy_bt,2022.2.4,MacIntel,60.0024001,Chrome,1440,900,,,,,1,1338,,,,,,,,,,,,,,,,,139,F,hexagon,1,0,,,,,,,,,,,,,,,,repeat,letter,lettRpt,j,0.4208,Lo,,,,,,6,,,,,,,,high,11,0,11,0,1,,,,,,,,,
