participant,date,expName,psychopyVersion,OS,frameRate,browser,xResolution,yResolution,key_resp.keys,key_resp.rt,training_resp.keys,training_resp.rt,points_trial,points_cumul,trainBlock,training.thisRepN,training.thisTrialN,training.thisN,training.thisIndex,training.ran,LTriangleOpac,LCircleOpac,LHexagonOpac,LStarOpac,RTriangleOpac,RCircleOpac,RHexagonOpac,RStarOpac,LShape_ID,RShape_ID,curr_topStim,curr_bottStim,curr_shape,acc,E1,target_resp_prac1.keys,target_resp_prac1.rt,pracBlock,task1_prac_trials.thisRepN,task1_prac_trials.thisTrialN,task1_prac_trials.thisN,task1_prac_trials.thisIndex,task1_prac_trials.ran,target_resp_prac2.keys,target_resp_prac2.rt,task2_praac_trials.thisRepN,task2_praac_trials.thisTrialN,task2_praac_trials.thisN,task2_praac_trials.thisIndex,task2_praac_trials.ran,alt,task,condition,target_resp.keys,target_resp.rt,rewCond,vts_practice_trials.thisRepN,vts_practice_trials.thisTrialN,vts_practice_trials.thisN,vts_practice_trials.thisIndex,vts_practice_trials.ran,blockNum,trials_norew.thisRepN,trials_norew.thisTrialN,trials_norew.thisN,trials_norew.thisIndex,trials_norew.ran,key_resp_2.keys,key_resp_2.rt,rewExpectancy,trials_rew.thisRepN,trials_rew.thisTrialN,trials_rew.thisN,trials_rew.thisIndex,trials_rew.ran,Q1,Q2,Q2_text,Q3,Q4,Q5_text,Q5,xRes,yRes
295615,2022-11-28_16h04.37.034,vts_reward_expectancy_bt,2022.2.4,MacIntel,60.0024001,Chrome,1470,956,,,,,,,,,,,,,,,,,,,,,,,,,,,,,,,,,,,,,,,,,,,,,,,,,,,,,,,,,,,,,,,,,,,,,,,,,,,,
295615,2022-11-28_16h04.37.034,vts_reward_expectancy_bt,2022.2.4,MacIntel,60.0024001,Chrome,1470,956,space,19.9091,,,,,,,,,,,,,,,,,,,,,,,,,,,,,,,,,,,,,,,,,,,,,,,,,,,,,,,,,,,,,,,,,,,,,,,,,,
295615,2022-11-28_16h04.37.034,vts_reward_expectancy_bt,2022.2.4,MacIntel,60.0024001,Chrome,1470,956,,,,,,,,,,,,,,,,,,,,,,,,,,,,,,,,,,,,,,,,,,,,,,,,,,,,,,,,,,,,,,,,,,,,,,,,,,,,
295615,2022-11-28_16h04.37.034,vts_reward_expectancy_bt,2022.2.4,MacIntel,60.0024001,Chrome,1470,956,,,l,1.7943,1,1,0,0,0,0,2,1,1,0,0,0,0,0,0,1,triangle,star,,,,,,,,,,,,,,,,,,,,,,,,,,,,,,,,,,,,,,,,,,,,,,,,,,,,,,
295615,2022-11-28_16h04.37.034,vts_reward_expectancy_bt,2022.2.4,MacIntel,60.0024001,Chrome,1470,956,,,l,1.6655,10,11,0,0,1,1,11,1,0,0,0,1,0,0,1,0,star,hexagon,,,,,,,,,,,,,,,,,,,,,,,,,,,,,,,,,,,,,,,,,,,,,,,,,,,,,,
295615,2022-11-28_16h04.37.034,vts_reward_expectancy_bt,2022.2.4,MacIntel,60.0024001,Chrome,1470,956,,,a,1.5683,1,12,0,0,2,2,0,1,1,0,0,0,0,1,0,0,triangle,circle,,,,,,,,,,,,,,,,,,,,,,,,,,,,,,,,,,,,,,,,,,,,,,,,,,,,,,
295615,2022-11-28_16h04.37.034,vts_reward_expectancy_bt,2022.2.4,MacIntel,60.0024001,Chrome,1470,956,,,l,0.7748,10,22,0,0,3,3,10,1,0,0,0,1,0,1,0,0,star ,circle,,,,,,,,,,,,,,,,,,,,,,,,,,,,,,,,,,,,,,,,,,,,,,,,,,,,,,
295615,2022-11-28_16h04.37.034,vts_reward_expectancy_bt,2022.2.4,MacIntel,60.0024001,Chrome,1470,956,,,l,2.6164,10,32,0,0,4,4,1,1,1,0,0,0,0,0,1,0,triangle,hexagon,,,,,,,,,,,,,,,,,,,,,,,,,,,,,,,,,,,,,,,,,,,,,,,,,,,,,,
295615,2022-11-28_16h04.37.034,vts_reward_expectancy_bt,2022.2.4,MacIntel,60.0024001,Chrome,1470,956,,,a,1.2071,1,33,0,0,5,5,7,1,0,0,1,0,0,1,0,0,hexagon,circle,,,,,,,,,,,,,,,,,,,,,,,,,,,,,,,,,,,,,,,,,,,,,,,,,,,,,,
295615,2022-11-28_16h04.37.034,vts_reward_expectancy_bt,2022.2.4,MacIntel,60.0024001,Chrome,1470,956,,,a,0.9829,10,43,0,0,6,6,4,1,0,1,0,0,0,0,1,0,circle,hexagon,,,,,,,,,,,,,,,,,,,,,,,,,,,,,,,,,,,,,,,,,,,,,,,,,,,,,,
295615,2022-11-28_16h04.37.034,vts_reward_expectancy_bt,2022.2.4,MacIntel,60.0024001,Chrome,1470,956,,,a,0.9939,10,53,0,0,7,7,8,1,0,0,1,0,0,0,0,1,hexagon,star,,,,,,,,,,,,,,,,,,,,,,,,,,,,,,,,,,,,,,,,,,,,,,,,,,,,,,
295615,2022-11-28_16h04.37.034,vts_reward_expectancy_bt,2022.2.4,MacIntel,60.0024001,Chrome,1470,956,,,a,1.2653,10,63,0,0,8,8,3,1,0,1,0,0,1,0,0,0,circle,triangle,,,,,,,,,,,,,,,,,,,,,,,,,,,,,,,,,,,,,,,,,,,,,,,,,,,,,,
295615,2022-11-28_16h04.37.034,vts_reward_expectancy_bt,2022.2.4,MacIntel,60.0024001,Chrome,1470,956,,,a,1.3011,10,73,0,0,9,9,5,1,0,1,0,0,0,0,0,1,circle,star,,,,,,,,,,,,,,,,,,,,,,,,,,,,,,,,,,,,,,,,,,,,,,,,,,,,,,
295615,2022-11-28_16h04.37.034,vts_reward_expectancy_bt,2022.2.4,MacIntel,60.0024001,Chrome,1470,956,,,l,2.426,1,74,0,0,10,10,9,1,0,0,0,1,1,0,0,0,star,triangle,,,,,,,,,,,,,,,,,,,,,,,,,,,,,,,,,,,,,,,,,,,,,,,,,,,,,,
295615,2022-11-28_16h04.37.034,vts_reward_expectancy_bt,2022.2.4,MacIntel,60.0024001,Chrome,1470,956,,,a,6.1572,10,84,0,0,11,11,6,1,0,0,1,0,1,0,0,0,hexagon,triangle,,,,,,,,,,,,,,,,,,,,,,,,,,,,,,,,,,,,,,,,,,,,,,,,,,,,,,
295615,2022-11-28_16h04.37.034,vts_reward_expectancy_bt,2022.2.4,MacIntel,60.0024001,Chrome,1470,956,,,l,1.3116,10,94,0,1,0,12,10,1,0,0,0,1,0,1,0,0,star ,circle,,,,,,,,,,,,,,,,,,,,,,,,,,,,,,,,,,,,,,,,,,,,,,,,,,,,,,
295615,2022-11-28_16h04.37.034,vts_reward_expectancy_bt,2022.2.4,MacIntel,60.0024001,Chrome,1470,956,,,a,0.9327,1,95,0,1,1,13,8,1,0,0,1,0,0,0,0,1,hexagon,star,,,,,,,,,,,,,,,,,,,,,,,,,,,,,,,,,,,,,,,,,,,,,,,,,,,,,,
295615,2022-11-28_16h04.37.034,vts_reward_expectancy_bt,2022.2.4,MacIntel,60.0024001,Chrome,1470,956,,,a,1.4271,10,105,0,1,2,14,11,1,0,0,0,1,0,0,1,0,star,hexagon,,,,,,,,,,,,,,,,,,,,,,,,,,,,,,,,,,,,,,,,,,,,,,,,,,,,,,
295615,2022-11-28_16h04.37.034,vts_reward_expectancy_bt,2022.2.4,MacIntel,60.0024001,Chrome,1470,956,,,a,1.1743,1,106,0,1,3,15,2,1,1,0,0,0,0,0,0,1,triangle,star,,,,,,,,,,,,,,,,,,,,,,,,,,,,,,,,,,,,,,,,,,,,,,,,,,,,,,
295615,2022-11-28_16h04.37.034,vts_reward_expectancy_bt,2022.2.4,MacIntel,60.0024001,Chrome,1470,956,,,l,2.0447,1,107,0,1,4,16,6,1,0,0,1,0,1,0,0,0,hexagon,triangle,,,,,,,,,,,,,,,,,,,,,,,,,,,,,,,,,,,,,,,,,,,,,,,,,,,,,,
295615,2022-11-28_16h04.37.034,vts_reward_expectancy_bt,2022.2.4,MacIntel,60.0024001,Chrome,1470,956,,,a,1.2657,10,117,0,1,5,17,4,1,0,1,0,0,0,0,1,0,circle,hexagon,,,,,,,,,,,,,,,,,,,,,,,,,,,,,,,,,,,,,,,,,,,,,,,,,,,,,,
295615,2022-11-28_16h04.37.034,vts_reward_expectancy_bt,2022.2.4,MacIntel,60.0024001,Chrome,1470,956,,,l,6.0599,10,127,0,1,6,18,1,1,1,0,0,0,0,0,1,0,triangle,hexagon,,,,,,,,,,,,,,,,,,,,,,,,,,,,,,,,,,,,,,,,,,,,,,,,,,,,,,
295615,2022-11-28_16h04.37.034,vts_reward_expectancy_bt,2022.2.4,MacIntel,60.0024001,Chrome,1470,956,,,l,1.3572,10,137,0,1,7,19,0,1,1,0,0,0,0,1,0,0,triangle,circle,,,,,,,,,,,,,,,,,,,,,,,,,,,,,,,,,,,,,,,,,,,,,,,,,,,,,,
295615,2022-11-28_16h04.37.034,vts_reward_expectancy_bt,2022.2.4,MacIntel,60.0024001,Chrome,1470,956,,,a,1.117,10,147,0,1,8,20,3,1,0,1,0,0,1,0,0,0,circle,triangle,,,,,,,,,,,,,,,,,,,,,,,,,,,,,,,,,,,,,,,,,,,,,,,,,,,,,,
295615,2022-11-28_16h04.37.034,vts_reward_expectancy_bt,2022.2.4,MacIntel,60.0024001,Chrome,1470,956,,,l,2.6164,1,148,0,1,9,21,5,1,0,1,0,0,0,0,0,1,circle,star,,,,,,,,,,,,,,,,,,,,,,,,,,,,,,,,,,,,,,,,,,,,,,,,,,,,,,
295615,2022-11-28_16h04.37.034,vts_reward_expectancy_bt,2022.2.4,MacIntel,60.0024001,Chrome,1470,956,,,l,2.3488,10,158,0,1,10,22,7,1,0,0,1,0,0,1,0,0,hexagon,circle,,,,,,,,,,,,,,,,,,,,,,,,,,,,,,,,,,,,,,,,,,,,,,,,,,,,,,
295615,2022-11-28_16h04.37.034,vts_reward_expectancy_bt,2022.2.4,MacIntel,60.0024001,Chrome,1470,956,,,a,1.6583,1,159,0,1,11,23,9,1,0,0,0,1,1,0,0,0,star,triangle,,,,,,,,,,,,,,,,,,,,,,,,,,,,,,,,,,,,,,,,,,,,,,,,,,,,,,
295615,2022-11-28_16h04.37.034,vts_reward_expectancy_bt,2022.2.4,MacIntel,60.0024001,Chrome,1470,956,,,l,0.9084,1,160,0,2,0,24,9,1,0,0,0,1,1,0,0,0,star,triangle,,,,,,,,,,,,,,,,,,,,,,,,,,,,,,,,,,,,,,,,,,,,,,,,,,,,,,
295615,2022-11-28_16h04.37.034,vts_reward_expectancy_bt,2022.2.4,MacIntel,60.0024001,Chrome,1470,956,,,a,3.8077,1,161,0,2,1,25,11,1,0,0,0,1,0,0,1,0,star,hexagon,,,,,,,,,,,,,,,,,,,,,,,,,,,,,,,,,,,,,,,,,,,,,,,,,,,,,,
295615,2022-11-28_16h04.37.034,vts_reward_expectancy_bt,2022.2.4,MacIntel,60.0024001,Chrome,1470,956,,,l,1.0827,10,171,0,2,2,26,7,1,0,0,1,0,0,1,0,0,hexagon,circle,,,,,,,,,,,,,,,,,,,,,,,,,,,,,,,,,,,,,,,,,,,,,,,,,,,,,,
295615,2022-11-28_16h04.37.034,vts_reward_expectancy_bt,2022.2.4,MacIntel,60.0024001,Chrome,1470,956,,,a,2.3998,10,181,0,2,3,27,3,1,0,1,0,0,1,0,0,0,circle,triangle,,,,,,,,,,,,,,,,,,,,,,,,,,,,,,,,,,,,,,,,,,,,,,,,,,,,,,
295615,2022-11-28_16h04.37.034,vts_reward_expectancy_bt,2022.2.4,MacIntel,60.0024001,Chrome,1470,956,,,l,1.0949,1,182,0,2,4,28,0,1,1,0,0,0,0,1,0,0,triangle,circle,,,,,,,,,,,,,,,,,,,,,,,,,,,,,,,,,,,,,,,,,,,,,,,,,,,,,,
295615,2022-11-28_16h04.37.034,vts_reward_expectancy_bt,2022.2.4,MacIntel,60.0024001,Chrome,1470,956,,,a,0.8677,10,192,0,2,5,29,2,1,1,0,0,0,0,0,0,1,triangle,star,,,,,,,,,,,,,,,,,,,,,,,,,,,,,,,,,,,,,,,,,,,,,,,,,,,,,,
295615,2022-11-28_16h04.37.034,vts_reward_expectancy_bt,2022.2.4,MacIntel,60.0024001,Chrome,1470,956,,,a,3.516,10,202,0,2,6,30,4,1,0,1,0,0,0,0,1,0,circle,hexagon,,,,,,,,,,,,,,,,,,,,,,,,,,,,,,,,,,,,,,,,,,,,,,,,,,,,,,
295615,2022-11-28_16h04.37.034,vts_reward_expectancy_bt,2022.2.4,MacIntel,60.0024001,Chrome,1470,956,,,l,0.9261,10,212,0,2,7,31,10,1,0,0,0,1,0,1,0,0,star ,circle,,,,,,,,,,,,,,,,,,,,,,,,,,,,,,,,,,,,,,,,,,,,,,,,,,,,,,
295615,2022-11-28_16h04.37.034,vts_reward_expectancy_bt,2022.2.4,MacIntel,60.0024001,Chrome,1470,956,,,a,1.4062,1,213,0,2,8,32,1,1,1,0,0,0,0,0,1,0,triangle,hexagon,,,,,,,,,,,,,,,,,,,,,,,,,,,,,,,,,,,,,,,,,,,,,,,,,,,,,,
295615,2022-11-28_16h04.37.034,vts_reward_expectancy_bt,2022.2.4,MacIntel,60.0024001,Chrome,1470,956,,,a,2.4341,10,223,0,2,9,33,8,1,0,0,1,0,0,0,0,1,hexagon,star,,,,,,,,,,,,,,,,,,,,,,,,,,,,,,,,,,,,,,,,,,,,,,,,,,,,,,
295615,2022-11-28_16h04.37.034,vts_reward_expectancy_bt,2022.2.4,MacIntel,60.0024001,Chrome,1470,956,,,a,1.4835,10,233,0,2,10,34,6,1,0,0,1,0,1,0,0,0,hexagon,triangle,,,,,,,,,,,,,,,,,,,,,,,,,,,,,,,,,,,,,,,,,,,,,,,,,,,,,,
295615,2022-11-28_16h04.37.034,vts_reward_expectancy_bt,2022.2.4,MacIntel,60.0024001,Chrome,1470,956,,,a,0.8465,10,243,0,2,11,35,5,1,0,1,0,0,0,0,0,1,circle,star,,,,,,,,,,,,,,,,,,,,,,,,,,,,,,,,,,,,,,,,,,,,,,,,,,,,,,
295615,2022-11-28_16h04.37.034,vts_reward_expectancy_bt,2022.2.4,MacIntel,60.0024001,Chrome,1470,956,,,l,5.1972,10,253,1,0,0,0,0,1,1,0,0,0,0,1,0,0,triangle,circle,,,,,,,,,,,,,,,,,,,,,,,,,,,,,,,,,,,,,,,,,,,,,,,,,,,,,,
295615,2022-11-28_16h04.37.034,vts_reward_expectancy_bt,2022.2.4,MacIntel,60.0024001,Chrome,1470,956,,,l,1.4632,10,263,1,0,1,1,7,1,0,0,1,0,0,1,0,0,hexagon,circle,,,,,,,,,,,,,,,,,,,,,,,,,,,,,,,,,,,,,,,,,,,,,,,,,,,,,,
295615,2022-11-28_16h04.37.034,vts_reward_expectancy_bt,2022.2.4,MacIntel,60.0024001,Chrome,1470,956,,,a,1.1088,10,273,1,0,2,2,4,1,0,1,0,0,0,0,1,0,circle,hexagon,,,,,,,,,,,,,,,,,,,,,,,,,,,,,,,,,,,,,,,,,,,,,,,,,,,,,,
295615,2022-11-28_16h04.37.034,vts_reward_expectancy_bt,2022.2.4,MacIntel,60.0024001,Chrome,1470,956,,,l,2.4819,1,274,1,0,3,3,8,1,0,0,1,0,0,0,0,1,hexagon,star,,,,,,,,,,,,,,,,,,,,,,,,,,,,,,,,,,,,,,,,,,,,,,,,,,,,,,
295615,2022-11-28_16h04.37.034,vts_reward_expectancy_bt,2022.2.4,MacIntel,60.0024001,Chrome,1470,956,,,a,1.3247,1,275,1,0,4,4,9,1,0,0,0,1,1,0,0,0,star,triangle,,,,,,,,,,,,,,,,,,,,,,,,,,,,,,,,,,,,,,,,,,,,,,,,,,,,,,
295615,2022-11-28_16h04.37.034,vts_reward_expectancy_bt,2022.2.4,MacIntel,60.0024001,Chrome,1470,956,,,a,1.0078,10,285,1,0,5,5,3,1,0,1,0,0,1,0,0,0,circle,triangle,,,,,,,,,,,,,,,,,,,,,,,,,,,,,,,,,,,,,,,,,,,,,,,,,,,,,,
295615,2022-11-28_16h04.37.034,vts_reward_expectancy_bt,2022.2.4,MacIntel,60.0024001,Chrome,1470,956,,,a,1.2816,10,295,1,0,6,6,6,1,0,0,1,0,1,0,0,0,hexagon,triangle,,,,,,,,,,,,,,,,,,,,,,,,,,,,,,,,,,,,,,,,,,,,,,,,,,,,,,
295615,2022-11-28_16h04.37.034,vts_reward_expectancy_bt,2022.2.4,MacIntel,60.0024001,Chrome,1470,956,,,a,1.2004,10,305,1,0,7,7,5,1,0,1,0,0,0,0,0,1,circle,star,,,,,,,,,,,,,,,,,,,,,,,,,,,,,,,,,,,,,,,,,,,,,,,,,,,,,,
295615,2022-11-28_16h04.37.034,vts_reward_expectancy_bt,2022.2.4,MacIntel,60.0024001,Chrome,1470,956,,,l,0.9578,10,315,1,0,8,8,1,1,1,0,0,0,0,0,1,0,triangle,hexagon,,,,,,,,,,,,,,,,,,,,,,,,,,,,,,,,,,,,,,,,,,,,,,,,,,,,,,
295615,2022-11-28_16h04.37.034,vts_reward_expectancy_bt,2022.2.4,MacIntel,60.0024001,Chrome,1470,956,,,l,1.8003,1,316,1,0,9,9,2,1,1,0,0,0,0,0,0,1,triangle,star,,,,,,,,,,,,,,,,,,,,,,,,,,,,,,,,,,,,,,,,,,,,,,,,,,,,,,
295615,2022-11-28_16h04.37.034,vts_reward_expectancy_bt,2022.2.4,MacIntel,60.0024001,Chrome,1470,956,,,l,0.9012,10,326,1,0,10,10,10,1,0,0,0,1,0,1,0,0,star ,circle,,,,,,,,,,,,,,,,,,,,,,,,,,,,,,,,,,,,,,,,,,,,,,,,,,,,,,
295615,2022-11-28_16h04.37.034,vts_reward_expectancy_bt,2022.2.4,MacIntel,60.0024001,Chrome,1470,956,,,l,1.4915,1,327,1,0,11,11,11,1,0,0,0,1,0,0,1,0,star,hexagon,,,,,,,,,,,,,,,,,,,,,,,,,,,,,,,,,,,,,,,,,,,,,,,,,,,,,,
295615,2022-11-28_16h04.37.034,vts_reward_expectancy_bt,2022.2.4,MacIntel,60.0024001,Chrome,1470,956,,,l,1.1737,1,328,1,1,0,12,8,1,0,0,1,0,0,0,0,1,hexagon,star,,,,,,,,,,,,,,,,,,,,,,,,,,,,,,,,,,,,,,,,,,,,,,,,,,,,,,
295615,2022-11-28_16h04.37.034,vts_reward_expectancy_bt,2022.2.4,MacIntel,60.0024001,Chrome,1470,956,,,a,1.0508,10,338,1,1,1,13,6,1,0,0,1,0,1,0,0,0,hexagon,triangle,,,,,,,,,,,,,,,,,,,,,,,,,,,,,,,,,,,,,,,,,,,,,,,,,,,,,,
295615,2022-11-28_16h04.37.034,vts_reward_expectancy_bt,2022.2.4,MacIntel,60.0024001,Chrome,1470,956,,,a,1.1276,10,348,1,1,2,14,9,1,0,0,0,1,1,0,0,0,star,triangle,,,,,,,,,,,,,,,,,,,,,,,,,,,,,,,,,,,,,,,,,,,,,,,,,,,,,,
295615,2022-11-28_16h04.37.034,vts_reward_expectancy_bt,2022.2.4,MacIntel,60.0024001,Chrome,1470,956,,,l,2.0342,10,358,1,1,3,15,7,1,0,0,1,0,0,1,0,0,hexagon,circle,,,,,,,,,,,,,,,,,,,,,,,,,,,,,,,,,,,,,,,,,,,,,,,,,,,,,,
295615,2022-11-28_16h04.37.034,vts_reward_expectancy_bt,2022.2.4,MacIntel,60.0024001,Chrome,1470,956,,,a,1.1749,10,368,1,1,4,16,5,1,0,1,0,0,0,0,0,1,circle,star,,,,,,,,,,,,,,,,,,,,,,,,,,,,,,,,,,,,,,,,,,,,,,,,,,,,,,
295615,2022-11-28_16h04.37.034,vts_reward_expectancy_bt,2022.2.4,MacIntel,60.0024001,Chrome,1470,956,,,l,0.858,1,369,1,1,5,17,10,1,0,0,0,1,0,1,0,0,star ,circle,,,,,,,,,,,,,,,,,,,,,,,,,,,,,,,,,,,,,,,,,,,,,,,,,,,,,,
295615,2022-11-28_16h04.37.034,vts_reward_expectancy_bt,2022.2.4,MacIntel,60.0024001,Chrome,1470,956,,,l,2.5173,10,379,1,1,6,18,0,1,1,0,0,0,0,1,0,0,triangle,circle,,,,,,,,,,,,,,,,,,,,,,,,,,,,,,,,,,,,,,,,,,,,,,,,,,,,,,
295615,2022-11-28_16h04.37.034,vts_reward_expectancy_bt,2022.2.4,MacIntel,60.0024001,Chrome,1470,956,,,l,1.2756,10,389,1,1,7,19,1,1,1,0,0,0,0,0,1,0,triangle,hexagon,,,,,,,,,,,,,,,,,,,,,,,,,,,,,,,,,,,,,,,,,,,,,,,,,,,,,,
295615,2022-11-28_16h04.37.034,vts_reward_expectancy_bt,2022.2.4,MacIntel,60.0024001,Chrome,1470,956,,,l,2.4346,1,390,1,1,8,20,2,1,1,0,0,0,0,0,0,1,triangle,star,,,,,,,,,,,,,,,,,,,,,,,,,,,,,,,,,,,,,,,,,,,,,,,,,,,,,,
295615,2022-11-28_16h04.37.034,vts_reward_expectancy_bt,2022.2.4,MacIntel,60.0024001,Chrome,1470,956,,,a,1.893,10,400,1,1,9,21,11,1,0,0,0,1,0,0,1,0,star,hexagon,,,,,,,,,,,,,,,,,,,,,,,,,,,,,,,,,,,,,,,,,,,,,,,,,,,,,,
295615,2022-11-28_16h04.37.034,vts_reward_expectancy_bt,2022.2.4,MacIntel,60.0024001,Chrome,1470,956,,,a,1.4588,10,410,1,1,10,22,4,1,0,1,0,0,0,0,1,0,circle,hexagon,,,,,,,,,,,,,,,,,,,,,,,,,,,,,,,,,,,,,,,,,,,,,,,,,,,,,,
295615,2022-11-28_16h04.37.034,vts_reward_expectancy_bt,2022.2.4,MacIntel,60.0024001,Chrome,1470,956,,,a,1.1843,10,420,1,1,11,23,3,1,0,1,0,0,1,0,0,0,circle,triangle,,,,,,,,,,,,,,,,,,,,,,,,,,,,,,,,,,,,,,,,,,,,,,,,,,,,,,
295615,2022-11-28_16h04.37.034,vts_reward_expectancy_bt,2022.2.4,MacIntel,60.0024001,Chrome,1470,956,,,a,1.925,10,430,1,2,0,24,6,1,0,0,1,0,1,0,0,0,hexagon,triangle,,,,,,,,,,,,,,,,,,,,,,,,,,,,,,,,,,,,,,,,,,,,,,,,,,,,,,
295615,2022-11-28_16h04.37.034,vts_reward_expectancy_bt,2022.2.4,MacIntel,60.0024001,Chrome,1470,956,,,a,1.916,10,440,1,2,1,25,5,1,0,1,0,0,0,0,0,1,circle,star,,,,,,,,,,,,,,,,,,,,,,,,,,,,,,,,,,,,,,,,,,,,,,,,,,,,,,
295615,2022-11-28_16h04.37.034,vts_reward_expectancy_bt,2022.2.4,MacIntel,60.0024001,Chrome,1470,956,,,l,1.4956,10,450,1,2,2,26,8,1,0,0,1,0,0,0,0,1,hexagon,star,,,,,,,,,,,,,,,,,,,,,,,,,,,,,,,,,,,,,,,,,,,,,,,,,,,,,,
295615,2022-11-28_16h04.37.034,vts_reward_expectancy_bt,2022.2.4,MacIntel,60.0024001,Chrome,1470,956,,,l,0.9931,10,460,1,2,3,27,0,1,1,0,0,0,0,1,0,0,triangle,circle,,,,,,,,,,,,,,,,,,,,,,,,,,,,,,,,,,,,,,,,,,,,,,,,,,,,,,
295615,2022-11-28_16h04.37.034,vts_reward_expectancy_bt,2022.2.4,MacIntel,60.0024001,Chrome,1470,956,,,l,4.7545,10,470,1,2,4,28,10,1,0,0,0,1,0,1,0,0,star ,circle,,,,,,,,,,,,,,,,,,,,,,,,,,,,,,,,,,,,,,,,,,,,,,,,,,,,,,
295615,2022-11-28_16h04.37.034,vts_reward_expectancy_bt,2022.2.4,MacIntel,60.0024001,Chrome,1470,956,,,a,3.7416,10,480,1,2,5,29,3,1,0,1,0,0,1,0,0,0,circle,triangle,,,,,,,,,,,,,,,,,,,,,,,,,,,,,,,,,,,,,,,,,,,,,,,,,,,,,,
295615,2022-11-28_16h04.37.034,vts_reward_expectancy_bt,2022.2.4,MacIntel,60.0024001,Chrome,1470,956,,,a,15.36,1,481,1,2,6,30,4,1,0,1,0,0,0,0,1,0,circle,hexagon,,,,,,,,,,,,,,,,,,,,,,,,,,,,,,,,,,,,,,,,,,,,,,,,,,,,,,
295615,2022-11-28_16h04.37.034,vts_reward_expectancy_bt,2022.2.4,MacIntel,60.0024001,Chrome,1470,956,,,l,1.8992,1,482,1,2,7,31,2,1,1,0,0,0,0,0,0,1,triangle,star,,,,,,,,,,,,,,,,,,,,,,,,,,,,,,,,,,,,,,,,,,,,,,,,,,,,,,
295615,2022-11-28_16h04.37.034,vts_reward_expectancy_bt,2022.2.4,MacIntel,60.0024001,Chrome,1470,956,,,l,1.7829,1,483,1,2,8,32,11,1,0,0,0,1,0,0,1,0,star,hexagon,,,,,,,,,,,,,,,,,,,,,,,,,,,,,,,,,,,,,,,,,,,,,,,,,,,,,,
295615,2022-11-28_16h04.37.034,vts_reward_expectancy_bt,2022.2.4,MacIntel,60.0024001,Chrome,1470,956,,,l,23.4426,10,493,1,2,9,33,1,1,1,0,0,0,0,0,1,0,triangle,hexagon,,,,,,,,,,,,,,,,,,,,,,,,,,,,,,,,,,,,,,,,,,,,,,,,,,,,,,
295615,2022-11-28_16h04.37.034,vts_reward_expectancy_bt,2022.2.4,MacIntel,60.0024001,Chrome,1470,956,,,l,9.8601,1,494,1,2,10,34,9,1,0,0,0,1,1,0,0,0,star,triangle,,,,,,,,,,,,,,,,,,,,,,,,,,,,,,,,,,,,,,,,,,,,,,,,,,,,,,
295615,2022-11-28_16h04.37.034,vts_reward_expectancy_bt,2022.2.4,MacIntel,60.0024001,Chrome,1470,956,,,a,2.3084,10,504,1,2,11,35,7,1,0,0,1,0,0,1,0,0,hexagon,circle,,,,,,,,,,,,,,,,,,,,,,,,,,,,,,,,,,,,,,,,,,,,,,,,,,,,,,
295615,2022-11-28_16h04.37.034,vts_reward_expectancy_bt,2022.2.4,MacIntel,60.0024001,Chrome,1470,956,,,l,1.6686,10,514,2,0,0,0,0,1,1,0,0,0,0,1,0,0,triangle,circle,,,,,,,,,,,,,,,,,,,,,,,,,,,,,,,,,,,,,,,,,,,,,,,,,,,,,,
295615,2022-11-28_16h04.37.034,vts_reward_expectancy_bt,2022.2.4,MacIntel,60.0024001,Chrome,1470,956,,,a,1.3176,1,515,2,0,1,1,5,1,0,1,0,0,0,0,0,1,circle,star,,,,,,,,,,,,,,,,,,,,,,,,,,,,,,,,,,,,,,,,,,,,,,,,,,,,,,
295615,2022-11-28_16h04.37.034,vts_reward_expectancy_bt,2022.2.4,MacIntel,60.0024001,Chrome,1470,956,,,a,2.6498,1,516,2,0,2,2,11,1,0,0,0,1,0,0,1,0,star,hexagon,,,,,,,,,,,,,,,,,,,,,,,,,,,,,,,,,,,,,,,,,,,,,,,,,,,,,,
295615,2022-11-28_16h04.37.034,vts_reward_expectancy_bt,2022.2.4,MacIntel,60.0024001,Chrome,1470,956,,,a,1.1933,1,517,2,0,3,3,9,1,0,0,0,1,1,0,0,0,star,triangle,,,,,,,,,,,,,,,,,,,,,,,,,,,,,,,,,,,,,,,,,,,,,,,,,,,,,,
295615,2022-11-28_16h04.37.034,vts_reward_expectancy_bt,2022.2.4,MacIntel,60.0024001,Chrome,1470,956,,,a,2.3775,10,527,2,0,4,4,2,1,1,0,0,0,0,0,0,1,triangle,star,,,,,,,,,,,,,,,,,,,,,,,,,,,,,,,,,,,,,,,,,,,,,,,,,,,,,,
295615,2022-11-28_16h04.37.034,vts_reward_expectancy_bt,2022.2.4,MacIntel,60.0024001,Chrome,1470,956,,,a,1.329,1,528,2,0,5,5,3,1,0,1,0,0,1,0,0,0,circle,triangle,,,,,,,,,,,,,,,,,,,,,,,,,,,,,,,,,,,,,,,,,,,,,,,,,,,,,,
295615,2022-11-28_16h04.37.034,vts_reward_expectancy_bt,2022.2.4,MacIntel,60.0024001,Chrome,1470,956,,,l,4.124,10,538,2,0,6,6,10,1,0,0,0,1,0,1,0,0,star ,circle,,,,,,,,,,,,,,,,,,,,,,,,,,,,,,,,,,,,,,,,,,,,,,,,,,,,,,
295615,2022-11-28_16h04.37.034,vts_reward_expectancy_bt,2022.2.4,MacIntel,60.0024001,Chrome,1470,956,,,a,1.3572,10,548,2,0,7,7,4,1,0,1,0,0,0,0,1,0,circle,hexagon,,,,,,,,,,,,,,,,,,,,,,,,,,,,,,,,,,,,,,,,,,,,,,,,,,,,,,
295615,2022-11-28_16h04.37.034,vts_reward_expectancy_bt,2022.2.4,MacIntel,60.0024001,Chrome,1470,956,,,l,1.8103,1,549,2,0,8,8,1,1,1,0,0,0,0,0,1,0,triangle,hexagon,,,,,,,,,,,,,,,,,,,,,,,,,,,,,,,,,,,,,,,,,,,,,,,,,,,,,,
295615,2022-11-28_16h04.37.034,vts_reward_expectancy_bt,2022.2.4,MacIntel,60.0024001,Chrome,1470,956,,,l,1.3359,10,559,2,0,9,9,8,1,0,0,1,0,0,0,0,1,hexagon,star,,,,,,,,,,,,,,,,,,,,,,,,,,,,,,,,,,,,,,,,,,,,,,,,,,,,,,
295615,2022-11-28_16h04.37.034,vts_reward_expectancy_bt,2022.2.4,MacIntel,60.0024001,Chrome,1470,956,,,a,1.9093,1,560,2,0,10,10,6,1,0,0,1,0,1,0,0,0,hexagon,triangle,,,,,,,,,,,,,,,,,,,,,,,,,,,,,,,,,,,,,,,,,,,,,,,,,,,,,,
295615,2022-11-28_16h04.37.034,vts_reward_expectancy_bt,2022.2.4,MacIntel,60.0024001,Chrome,1470,956,,,l,1.194,10,570,2,0,11,11,7,1,0,0,1,0,0,1,0,0,hexagon,circle,,,,,,,,,,,,,,,,,,,,,,,,,,,,,,,,,,,,,,,,,,,,,,,,,,,,,,
295615,2022-11-28_16h04.37.034,vts_reward_expectancy_bt,2022.2.4,MacIntel,60.0024001,Chrome,1470,956,,,a,2.2092,10,580,2,1,0,12,5,1,0,1,0,0,0,0,0,1,circle,star,,,,,,,,,,,,,,,,,,,,,,,,,,,,,,,,,,,,,,,,,,,,,,,,,,,,,,
295615,2022-11-28_16h04.37.034,vts_reward_expectancy_bt,2022.2.4,MacIntel,60.0024001,Chrome,1470,956,,,a,2.0001,10,590,2,1,1,13,2,1,1,0,0,0,0,0,0,1,triangle,star,,,,,,,,,,,,,,,,,,,,,,,,,,,,,,,,,,,,,,,,,,,,,,,,,,,,,,
295615,2022-11-28_16h04.37.034,vts_reward_expectancy_bt,2022.2.4,MacIntel,60.0024001,Chrome,1470,956,,,l,2.5333,1,591,2,1,2,14,8,1,0,0,1,0,0,0,0,1,hexagon,star,,,,,,,,,,,,,,,,,,,,,,,,,,,,,,,,,,,,,,,,,,,,,,,,,,,,,,
295615,2022-11-28_16h04.37.034,vts_reward_expectancy_bt,2022.2.4,MacIntel,60.0024001,Chrome,1470,956,,,l,1.1074,1,592,2,1,3,15,11,1,0,0,0,1,0,0,1,0,star,hexagon,,,,,,,,,,,,,,,,,,,,,,,,,,,,,,,,,,,,,,,,,,,,,,,,,,,,,,
295615,2022-11-28_16h04.37.034,vts_reward_expectancy_bt,2022.2.4,MacIntel,60.0024001,Chrome,1470,956,,,a,3.4011,10,602,2,1,4,16,1,1,1,0,0,0,0,0,1,0,triangle,hexagon,,,,,,,,,,,,,,,,,,,,,,,,,,,,,,,,,,,,,,,,,,,,,,,,,,,,,,
295615,2022-11-28_16h04.37.034,vts_reward_expectancy_bt,2022.2.4,MacIntel,60.0024001,Chrome,1470,956,,,a,6.1307,10,612,2,1,5,17,6,1,0,0,1,0,1,0,0,0,hexagon,triangle,,,,,,,,,,,,,,,,,,,,,,,,,,,,,,,,,,,,,,,,,,,,,,,,,,,,,,
295615,2022-11-28_16h04.37.034,vts_reward_expectancy_bt,2022.2.4,MacIntel,60.0024001,Chrome,1470,956,,,l,1.7266,10,622,2,1,6,18,0,1,1,0,0,0,0,1,0,0,triangle,circle,,,,,,,,,,,,,,,,,,,,,,,,,,,,,,,,,,,,,,,,,,,,,,,,,,,,,,
295615,2022-11-28_16h04.37.034,vts_reward_expectancy_bt,2022.2.4,MacIntel,60.0024001,Chrome,1470,956,,,a,18.749,10,632,2,1,7,19,3,1,0,1,0,0,1,0,0,0,circle,triangle,,,,,,,,,,,,,,,,,,,,,,,,,,,,,,,,,,,,,,,,,,,,,,,,,,,,,,
295615,2022-11-28_16h04.37.034,vts_reward_expectancy_bt,2022.2.4,MacIntel,60.0024001,Chrome,1470,956,,,l,2.423,10,642,2,1,8,20,7,1,0,0,1,0,0,1,0,0,hexagon,circle,,,,,,,,,,,,,,,,,,,,,,,,,,,,,,,,,,,,,,,,,,,,,,,,,,,,,,
295615,2022-11-28_16h04.37.034,vts_reward_expectancy_bt,2022.2.4,MacIntel,60.0024001,Chrome,1470,956,,,l,2.1924,10,652,2,1,9,21,10,1,0,0,0,1,0,1,0,0,star ,circle,,,,,,,,,,,,,,,,,,,,,,,,,,,,,,,,,,,,,,,,,,,,,,,,,,,,,,
295615,2022-11-28_16h04.37.034,vts_reward_expectancy_bt,2022.2.4,MacIntel,60.0024001,Chrome,1470,956,,,l,2.8924,1,653,2,1,10,22,9,1,0,0,0,1,1,0,0,0,star,triangle,,,,,,,,,,,,,,,,,,,,,,,,,,,,,,,,,,,,,,,,,,,,,,,,,,,,,,
295615,2022-11-28_16h04.37.034,vts_reward_expectancy_bt,2022.2.4,MacIntel,60.0024001,Chrome,1470,956,,,a,1.7917,1,654,2,1,11,23,4,1,0,1,0,0,0,0,1,0,circle,hexagon,,,,,,,,,,,,,,,,,,,,,,,,,,,,,,,,,,,,,,,,,,,,,,,,,,,,,,
295615,2022-11-28_16h04.37.034,vts_reward_expectancy_bt,2022.2.4,MacIntel,60.0024001,Chrome,1470,956,,,a,2.5269,10,664,2,2,0,24,5,1,0,1,0,0,0,0,0,1,circle,star,,,,,,,,,,,,,,,,,,,,,,,,,,,,,,,,,,,,,,,,,,,,,,,,,,,,,,
295615,2022-11-28_16h04.37.034,vts_reward_expectancy_bt,2022.2.4,MacIntel,60.0024001,Chrome,1470,956,,,a,2.2814,10,674,2,2,1,25,6,1,0,0,1,0,1,0,0,0,hexagon,triangle,,,,,,,,,,,,,,,,,,,,,,,,,,,,,,,,,,,,,,,,,,,,,,,,,,,,,,
295615,2022-11-28_16h04.37.034,vts_reward_expectancy_bt,2022.2.4,MacIntel,60.0024001,Chrome,1470,956,,,l,31.8335,10,684,2,2,2,26,0,1,1,0,0,0,0,1,0,0,triangle,circle,,,,,,,,,,,,,,,,,,,,,,,,,,,,,,,,,,,,,,,,,,,,,,,,,,,,,,
295615,2022-11-28_16h04.37.034,vts_reward_expectancy_bt,2022.2.4,MacIntel,60.0024001,Chrome,1470,956,,,l,0.8745,1,685,2,2,3,27,8,1,0,0,1,0,0,0,0,1,hexagon,star,,,,,,,,,,,,,,,,,,,,,,,,,,,,,,,,,,,,,,,,,,,,,,,,,,,,,,
295615,2022-11-28_16h04.37.034,vts_reward_expectancy_bt,2022.2.4,MacIntel,60.0024001,Chrome,1470,956,,,a,3.1185,1,686,2,2,4,28,1,1,1,0,0,0,0,0,1,0,triangle,hexagon,,,,,,,,,,,,,,,,,,,,,,,,,,,,,,,,,,,,,,,,,,,,,,,,,,,,,,
295615,2022-11-28_16h04.37.034,vts_reward_expectancy_bt,2022.2.4,MacIntel,60.0024001,Chrome,1470,956,,,l,0.8935,10,696,2,2,5,29,10,1,0,0,0,1,0,1,0,0,star ,circle,,,,,,,,,,,,,,,,,,,,,,,,,,,,,,,,,,,,,,,,,,,,,,,,,,,,,,
295615,2022-11-28_16h04.37.034,vts_reward_expectancy_bt,2022.2.4,MacIntel,60.0024001,Chrome,1470,956,,,a,1.5997,10,706,2,2,6,30,4,1,0,1,0,0,0,0,1,0,circle,hexagon,,,,,,,,,,,,,,,,,,,,,,,,,,,,,,,,,,,,,,,,,,,,,,,,,,,,,,
295615,2022-11-28_16h04.37.034,vts_reward_expectancy_bt,2022.2.4,MacIntel,60.0024001,Chrome,1470,956,,,l,2.5185,1,707,2,2,7,31,9,1,0,0,0,1,1,0,0,0,star,triangle,,,,,,,,,,,,,,,,,,,,,,,,,,,,,,,,,,,,,,,,,,,,,,,,,,,,,,
295615,2022-11-28_16h04.37.034,vts_reward_expectancy_bt,2022.2.4,MacIntel,60.0024001,Chrome,1470,956,,,l,2.244,10,717,2,2,8,32,2,1,1,0,0,0,0,0,0,1,triangle,star,,,,,,,,,,,,,,,,,,,,,,,,,,,,,,,,,,,,,,,,,,,,,,,,,,,,,,
295615,2022-11-28_16h04.37.034,vts_reward_expectancy_bt,2022.2.4,MacIntel,60.0024001,Chrome,1470,956,,,l,2.1423,10,727,2,2,9,33,7,1,0,0,1,0,0,1,0,0,hexagon,circle,,,,,,,,,,,,,,,,,,,,,,,,,,,,,,,,,,,,,,,,,,,,,,,,,,,,,,
295615,2022-11-28_16h04.37.034,vts_reward_expectancy_bt,2022.2.4,MacIntel,60.0024001,Chrome,1470,956,,,a,2.7623,1,728,2,2,10,34,11,1,0,0,0,1,0,0,1,0,star,hexagon,,,,,,,,,,,,,,,,,,,,,,,,,,,,,,,,,,,,,,,,,,,,,,,,,,,,,,
295615,2022-11-28_16h04.37.034,vts_reward_expectancy_bt,2022.2.4,MacIntel,60.0024001,Chrome,1470,956,,,a,4.5263,10,738,2,2,11,35,3,1,0,1,0,0,1,0,0,0,circle,triangle,,,,,,,,,,,,,,,,,,,,,,,,,,,,,,,,,,,,,,,,,,,,,,,,,,,,,,
295615,2022-11-28_16h04.37.034,vts_reward_expectancy_bt,2022.2.4,MacIntel,60.0024001,Chrome,1470,956,,,,,,,,,,,,,,,,,,,,,,,D,132,circle,1,0,d,2.054,0,0,0,0,0,1,,,,,,,,,,,,,,,,,,,,,,,,,,,,,,,,,,,,,,,,,
295615,2022-11-28_16h04.37.034,vts_reward_expectancy_bt,2022.2.4,MacIntel,60.0024001,Chrome,1470,956,,,,,,,,,,,,,,,,,,,,,,,S,146,star,1,0,f,0.6054,0,1,0,1,0,1,,,,,,,,,,,,,,,,,,,,,,,,,,,,,,,,,,,,,,,,,
295615,2022-11-28_16h04.37.034,vts_reward_expectancy_bt,2022.2.4,MacIntel,60.0024001,Chrome,1470,956,,,,,,,,,,,,,,,,,,,,,,,Y,174,hexagon,1,0,f,0.552,0,2,0,2,0,1,,,,,,,,,,,,,,,,,,,,,,,,,,,,,,,,,,,,,,,,,
295615,2022-11-28_16h04.37.034,vts_reward_expectancy_bt,2022.2.4,MacIntel,60.0024001,Chrome,1470,956,,,,,,,,,,,,,,,,,,,,,,,U,167,triangle,1,0,f,0.57,0,3,0,3,0,1,,,,,,,,,,,,,,,,,,,,,,,,,,,,,,,,,,,,,,,,,
295615,2022-11-28_16h04.37.034,vts_reward_expectancy_bt,2022.2.4,MacIntel,60.0024001,Chrome,1470,956,,,,,,,,,,,,,,,,,,,,,,,W,139,circle,1,0,f,0.8979,0,4,0,4,0,1,,,,,,,,,,,,,,,,,,,,,,,,,,,,,,,,,,,,,,,,,
295615,2022-11-28_16h04.37.034,vts_reward_expectancy_bt,2022.2.4,MacIntel,60.0024001,Chrome,1470,956,,,,,,,,,,,,,,,,,,,,,,,H,160,star,1,0,d,0.5674,0,5,0,5,0,1,,,,,,,,,,,,,,,,,,,,,,,,,,,,,,,,,,,,,,,,,
295615,2022-11-28_16h04.37.034,vts_reward_expectancy_bt,2022.2.4,MacIntel,60.0024001,Chrome,1470,956,,,,,,,,,,,,,,,,,,,,,,,B,181,hexagon,1,0,d,0.9126,0,6,0,6,0,1,,,,,,,,,,,,,,,,,,,,,,,,,,,,,,,,,,,,,,,,,
295615,2022-11-28_16h04.37.034,vts_reward_expectancy_bt,2022.2.4,MacIntel,60.0024001,Chrome,1470,956,,,,,,,,,,,,,,,,,,,,,,,F,125,triangle,1,0,d,0.5351,0,7,0,7,0,1,,,,,,,,,,,,,,,,,,,,,,,,,,,,,,,,,,,,,,,,,
295615,2022-11-28_16h04.37.034,vts_reward_expectancy_bt,2022.2.4,MacIntel,60.0024001,Chrome,1470,956,,,,,,,,,,,,,,,,,,,,,,,D,132,star,1,0,d,0.5989,0,8,0,8,0,1,,,,,,,,,,,,,,,,,,,,,,,,,,,,,,,,,,,,,,,,,
295615,2022-11-28_16h04.37.034,vts_reward_expectancy_bt,2022.2.4,MacIntel,60.0024001,Chrome,1470,956,,,,,,,,,,,,,,,,,,,,,,,S,146,circle,1,0,f,0.532,0,9,0,9,0,1,,,,,,,,,,,,,,,,,,,,,,,,,,,,,,,,,,,,,,,,,
295615,2022-11-28_16h04.37.034,vts_reward_expectancy_bt,2022.2.4,MacIntel,60.0024001,Chrome,1470,956,,,,,,,,,,,,,,,,,,,,,,,B,174,hexagon,1,0,,,1,,,,,,k,0.6492,0,0,0,0,1,,,,,,,,,,,,,,,,,,,,,,,,,,,,,,,,,,
295615,2022-11-28_16h04.37.034,vts_reward_expectancy_bt,2022.2.4,MacIntel,60.0024001,Chrome,1470,956,,,,,,,,,,,,,,,,,,,,,,,S,139,triangle,1,0,,,1,,,,,,j,0.5468,1,0,1,0,1,,,,,,,,,,,,,,,,,,,,,,,,,,,,,,,,,,
295615,2022-11-28_16h04.37.034,vts_reward_expectancy_bt,2022.2.4,MacIntel,60.0024001,Chrome,1470,956,,,,,,,,,,,,,,,,,,,,,,,U,146,circle,1,0,,,1,,,,,,j,1.3464,2,0,2,0,1,,,,,,,,,,,,,,,,,,,,,,,,,,,,,,,,,,
295615,2022-11-28_16h04.37.034,vts_reward_expectancy_bt,2022.2.4,MacIntel,60.0024001,Chrome,1470,956,,,,,,,,,,,,,,,,,,,,,,,H,132,star,1,0,,,1,,,,,,j,0.5857,3,0,3,0,1,,,,,,,,,,,,,,,,,,,,,,,,,,,,,,,,,,
295615,2022-11-28_16h04.37.034,vts_reward_expectancy_bt,2022.2.4,MacIntel,60.0024001,Chrome,1470,956,,,,,,,,,,,,,,,,,,,,,,,W,125,hexagon,1,0,,,1,,,,,,j,0.5833,4,0,4,0,1,,,,,,,,,,,,,,,,,,,,,,,,,,,,,,,,,,
295615,2022-11-28_16h04.37.034,vts_reward_expectancy_bt,2022.2.4,MacIntel,60.0024001,Chrome,1470,956,,,,,,,,,,,,,,,,,,,,,,,D,181,triangle,1,0,,,1,,,,,,k,0.5728,5,0,5,0,1,,,,,,,,,,,,,,,,,,,,,,,,,,,,,,,,,,
295615,2022-11-28_16h04.37.034,vts_reward_expectancy_bt,2022.2.4,MacIntel,60.0024001,Chrome,1470,956,,,,,,,,,,,,,,,,,,,,,,,Y,160,circle,1,0,,,1,,,,,,k,0.5631,6,0,6,0,1,,,,,,,,,,,,,,,,,,,,,,,,,,,,,,,,,,
295615,2022-11-28_16h04.37.034,vts_reward_expectancy_bt,2022.2.4,MacIntel,60.0024001,Chrome,1470,956,,,,,,,,,,,,,,,,,,,,,,,F,167,star,1,0,,,1,,,,,,k,0.5962,7,0,7,0,1,,,,,,,,,,,,,,,,,,,,,,,,,,,,,,,,,,
295615,2022-11-28_16h04.37.034,vts_reward_expectancy_bt,2022.2.4,MacIntel,60.0024001,Chrome,1470,956,,,,,,,,,,,,,,,,,,,,,,,B,174,circle,1,0,,,1,,,,,,k,0.6812,8,0,8,0,1,,,,,,,,,,,,,,,,,,,,,,,,,,,,,,,,,,
295615,2022-11-28_16h04.37.034,vts_reward_expectancy_bt,2022.2.4,MacIntel,60.0024001,Chrome,1470,956,,,,,,,,,,,,,,,,,,,,,,,S,139,hexagon,1,0,,,1,,,,,,j,0.6715,9,0,9,0,1,,,,,,,,,,,,,,,,,,,,,,,,,,,,,,,,,,
295615,2022-11-28_16h04.37.034,vts_reward_expectancy_bt,2022.2.4,MacIntel,60.0024001,Chrome,1470,956,,,,,0,738,,,,,,,,,,,,,,,,,S,174,hexagon,1,0,,,2,,,,,,,,,,,,,-1,letter,NA,f,2.4005,vtsPrac,0,0,0,0,1,,,,,,,,,,,,,,,,,,,,,,,
295615,2022-11-28_16h04.37.034,vts_reward_expectancy_bt,2022.2.4,MacIntel,60.0024001,Chrome,1470,956,,,,,0,738,,,,,,,,,,,,,,,,,D,181,star,1,0,,,2,,,,,,,,,,,,,repeat,letter,lettRpt,d,1.0131,vtsPrac,1,0,1,0,1,,,,,,,,,,,,,,,,,,,,,,,
295615,2022-11-28_16h04.37.034,vts_reward_expectancy_bt,2022.2.4,MacIntel,60.0024001,Chrome,1470,956,,,,,0,738,,,,,,,,,,,,,,,,,W,139,hexagon,1,0,,,2,,,,,,,,,,,,,switch,number,numSwt,j,0.8122,vtsPrac,2,0,2,0,1,,,,,,,,,,,,,,,,,,,,,,,
295615,2022-11-28_16h04.37.034,vts_reward_expectancy_bt,2022.2.4,MacIntel,60.0024001,Chrome,1470,956,,,,,0,738,,,,,,,,,,,,,,,,,H,146,star,1,0,,,2,,,,,,,,,,,,,repeat,number,numRpt,j,1.013,vtsPrac,3,0,3,0,1,,,,,,,,,,,,,,,,,,,,,,,
295615,2022-11-28_16h04.37.034,vts_reward_expectancy_bt,2022.2.4,MacIntel,60.0024001,Chrome,1470,956,,,,,0,738,,,,,,,,,,,,,,,,,S,174,hexagon,1,0,,,2,,,,,,,,,,,,,switch,letter,lettSwt,f,0.7823,vtsPrac,4,0,4,0,1,,,,,,,,,,,,,,,,,,,,,,,
295615,2022-11-28_16h04.37.034,vts_reward_expectancy_bt,2022.2.4,MacIntel,60.0024001,Chrome,1470,956,,,,,0,738,,,,,,,,,,,,,,,,,D,181,star,1,0,,,2,,,,,,,,,,,,,repeat,letter,lettRpt,d,0.6209,vtsPrac,5,0,5,0,1,,,,,,,,,,,,,,,,,,,,,,,
295615,2022-11-28_16h04.37.034,vts_reward_expectancy_bt,2022.2.4,MacIntel,60.0024001,Chrome,1470,956,,,,,0,738,,,,,,,,,,,,,,,,,W,139,hexagon,1,0,,,2,,,,,,,,,,,,,switch,number,numSwt,j,0.8624,vtsPrac,6,0,6,0,1,,,,,,,,,,,,,,,,,,,,,,,
295615,2022-11-28_16h04.37.034,vts_reward_expectancy_bt,2022.2.4,MacIntel,60.0024001,Chrome,1470,956,,,,,0,738,,,,,,,,,,,,,,,,,H,146,triangle,1,0,,,2,,,,,,,,,,,,,repeat,number,numRpt,j,0.6734,vtsPrac,7,0,7,0,1,,,,,,,,,,,,,,,,,,,,,,,
295615,2022-11-28_16h04.37.034,vts_reward_expectancy_bt,2022.2.4,MacIntel,60.0024001,Chrome,1470,956,,,,,0,738,,,,,,,,,,,,,,,,,B,181,triangle,1,0,,,2,,,,,,,,,,,,,switch,letter,lettSwt,d,0.7445,vtsPrac,8,0,8,0,1,,,,,,,,,,,,,,,,,,,,,,,
295615,2022-11-28_16h04.37.034,vts_reward_expectancy_bt,2022.2.4,MacIntel,60.0024001,Chrome,1470,956,,,,,0,738,,,,,,,,,,,,,,,,,D,125,star,1,0,,,2,,,,,,,,,,,,,repeat,letter,lettRpt,d,0.6149,vtsPrac,9,0,9,0,1,,,,,,,,,,,,,,,,,,,,,,,
295615,2022-11-28_16h04.37.034,vts_reward_expectancy_bt,2022.2.4,MacIntel,60.0024001,Chrome,1470,956,,,,,0,738,,,,,,,,,,,,,,,,,H,139,hexagon,1,0,,,2,,,,,,,,,,,,,switch,number,numSwt,j,0.5693,vtsPrac,10,0,10,0,1,,,,,,,,,,,,,,,,,,,,,,,
295615,2022-11-28_16h04.37.034,vts_reward_expectancy_bt,2022.2.4,MacIntel,60.0024001,Chrome,1470,956,,,,,0,738,,,,,,,,,,,,,,,,,S,132,star,1,0,,,2,,,,,,,,,,,,,repeat,number,numRpt,j,0.6693,vtsPrac,11,0,11,0,1,,,,,,,,,,,,,,,,,,,,,,,
295615,2022-11-28_16h04.37.034,vts_reward_expectancy_bt,2022.2.4,MacIntel,60.0024001,Chrome,1470,956,,,,,0,738,,,,,,,,,,,,,,,,,S,167,star,1,0,,,2,,,,,,,,,,,,,switch,letter,lettSwt,f,0.5826,vtsPrac,12,0,12,0,1,,,,,,,,,,,,,,,,,,,,,,,
295615,2022-11-28_16h04.37.034,vts_reward_expectancy_bt,2022.2.4,MacIntel,60.0024001,Chrome,1470,956,,,,,0,738,,,,,,,,,,,,,,,,,F,139,hexagon,1,0,,,2,,,,,,,,,,,,,repeat,letter,lettRpt,d,0.5624,vtsPrac,13,0,13,0,1,,,,,,,,,,,,,,,,,,,,,,,
295615,2022-11-28_16h04.37.034,vts_reward_expectancy_bt,2022.2.4,MacIntel,60.0024001,Chrome,1470,956,,,,,0,738,,,,,,,,,,,,,,,,,W,125,triangle,1,0,,,2,,,,,,,,,,,,,switch,number,numSwt,j,0.5522,vtsPrac,14,0,14,0,1,,,,,,,,,,,,,,,,,,,,,,,
295615,2022-11-28_16h04.37.034,vts_reward_expectancy_bt,2022.2.4,MacIntel,60.0024001,Chrome,1470,956,,,,,0,738,,,,,,,,,,,,,,,,,U,181,hexagon,1,0,,,2,,,,,,,,,,,,,repeat,number,numRpt,k,0.9124,vtsPrac,15,0,15,0,1,,,,,,,,,,,,,,,,,,,,,,,
295615,2022-11-28_16h04.37.034,vts_reward_expectancy_bt,2022.2.4,MacIntel,60.0024001,Chrome,1470,956,,,,,0,738,,,,,,,,,,,,,,,,,F,160,triangle,1,0,,,2,,,,,,,,,,,,,switch,letter,lettSwt,d,0.5817,vtsPrac,16,0,16,0,1,,,,,,,,,,,,,,,,,,,,,,,
295615,2022-11-28_16h04.37.034,vts_reward_expectancy_bt,2022.2.4,MacIntel,60.0024001,Chrome,1470,956,,,,,0,738,,,,,,,,,,,,,,,,,U,132,hexagon,1,0,,,2,,,,,,,,,,,,,repeat,letter,lettRpt,f,0.5621,vtsPrac,17,0,17,0,1,,,,,,,,,,,,,,,,,,,,,,,
295615,2022-11-28_16h04.37.034,vts_reward_expectancy_bt,2022.2.4,MacIntel,60.0024001,Chrome,1470,956,,,,,0,738,,,,,,,,,,,,,,,,,S,181,star,1,0,,,2,,,,,,,,,,,,,switch,number,numSwt,k,1.7305,vtsPrac,18,0,18,0,1,,,,,,,,,,,,,,,,,,,,,,,
295615,2022-11-28_16h04.37.034,vts_reward_expectancy_bt,2022.2.4,MacIntel,60.0024001,Chrome,1470,956,,,,,0,738,,,,,,,,,,,,,,,,,Y,146,hexagon,1,0,,,2,,,,,,,,,,,,,repeat,number,numRpt,j,0.7291,vtsPrac,19,0,19,0,1,,,,,,,,,,,,,,,,,,,,,,,
295615,2022-11-28_16h04.37.034,vts_reward_expectancy_bt,2022.2.4,MacIntel,60.0024001,Chrome,1470,956,,,,,0,738,,,,,,,,,,,,,,,,,Y,125,circle,1,0,,,2,,,,,,,,,,,,,switch,letter,lettSwt,f,0.5919,vtsPrac,20,0,20,0,1,,,,,,,,,,,,,,,,,,,,,,,
295615,2022-11-28_16h04.37.034,vts_reward_expectancy_bt,2022.2.4,MacIntel,60.0024001,Chrome,1470,956,,,,,0,738,,,,,,,,,,,,,,,,,F,139,hexagon,1,0,,,2,,,,,,,,,,,,,repeat,letter,lettRpt,d,0.5841,vtsPrac,21,0,21,0,1,,,,,,,,,,,,,,,,,,,,,,,
295615,2022-11-28_16h04.37.034,vts_reward_expectancy_bt,2022.2.4,MacIntel,60.0024001,Chrome,1470,956,,,,,0,738,,,,,,,,,,,,,,,,,S,146,hexagon,1,0,,,2,,,,,,,,,,,,,switch,number,numSwt,j,0.7794,vtsPrac,22,0,22,0,1,,,,,,,,,,,,,,,,,,,,,,,
295615,2022-11-28_16h04.37.034,vts_reward_expectancy_bt,2022.2.4,MacIntel,60.0024001,Chrome,1470,956,,,,,0,738,,,,,,,,,,,,,,,,,B,181,star,1,0,,,2,,,,,,,,,,,,,repeat,number,numRpt,k,0.7515,vtsPrac,23,0,23,0,1,,,,,,,,,,,,,,,,,,,,,,,
295615,2022-11-28_16h04.37.034,vts_reward_expectancy_bt,2022.2.4,MacIntel,60.0024001,Chrome,1470,956,,,,,0,738,,,,,,,,,,,,,,,,,Y,167,star,1,0,,,2,,,,,,,,,,,,,switch,letter,lettSwt,f,0.6303,vtsPrac,24,0,24,0,1,,,,,,,,,,,,,,,,,,,,,,,
295615,2022-11-28_16h04.37.034,vts_reward_expectancy_bt,2022.2.4,MacIntel,60.0024001,Chrome,1470,956,,,,,0,738,,,,,,,,,,,,,,,,,B,132,hexagon,1,0,,,2,,,,,,,,,,,,,repeat,letter,lettRpt,d,0.5719,vtsPrac,25,0,25,0,1,,,,,,,,,,,,,,,,,,,,,,,
295615,2022-11-28_16h04.37.034,vts_reward_expectancy_bt,2022.2.4,MacIntel,60.0024001,Chrome,1470,956,,,,,0,738,,,,,,,,,,,,,,,,,D,146,hexagon,1,0,,,2,,,,,,,,,,,,,switch,number,numSwt,j,0.7311,vtsPrac,26,0,26,0,1,,,,,,,,,,,,,,,,,,,,,,,
295615,2022-11-28_16h04.37.034,vts_reward_expectancy_bt,2022.2.4,MacIntel,60.0024001,Chrome,1470,956,,,,,0,738,,,,,,,,,,,,,,,,,F,139,circle,1,0,,,2,,,,,,,,,,,,,repeat,number,numRpt,j,0.8122,vtsPrac,27,0,27,0,1,,,,,,,,,,,,,,,,,,,,,,,
295615,2022-11-28_16h04.37.034,vts_reward_expectancy_bt,2022.2.4,MacIntel,60.0024001,Chrome,1470,956,,,,,0,738,,,,,,,,,,,,,,,,,F,139,star,1,0,,,2,,,,,,,,,,,,,switch,letter,lettSwt,d,0.6851,vtsPrac,28,0,28,0,1,,,,,,,,,,,,,,,,,,,,,,,
295615,2022-11-28_16h04.37.034,vts_reward_expectancy_bt,2022.2.4,MacIntel,60.0024001,Chrome,1470,956,,,,,0,738,,,,,,,,,,,,,,,,,W,146,hexagon,1,0,,,2,,,,,,,,,,,,,repeat,letter,lettRpt,f,0.5449,vtsPrac,29,0,29,0,1,,,,,,,,,,,,,,,,,,,,,,,
295615,2022-11-28_16h04.37.034,vts_reward_expectancy_bt,2022.2.4,MacIntel,60.0024001,Chrome,1470,956,,,,,0,738,,,,,,,,,,,,,,,,,U,125,circle,1,0,,,2,,,,,,,,,,,,,switch,number,numSwt,j,0.5873,vtsPrac,30,0,30,0,1,,,,,,,,,,,,,,,,,,,,,,,
295615,2022-11-28_16h04.37.034,vts_reward_expectancy_bt,2022.2.4,MacIntel,60.0024001,Chrome,1470,956,,,,,0,738,,,,,,,,,,,,,,,,,Y,174,hexagon,1,0,,,2,,,,,,,,,,,,,repeat,number,numRpt,k,1.0135,vtsPrac,31,0,31,0,1,,,,,,,,,,,,,,,,,,,,,,,
295615,2022-11-28_16h04.37.034,vts_reward_expectancy_bt,2022.2.4,MacIntel,60.0024001,Chrome,1470,956,,,,,,,,,,,,,,,,,,,,,,,,,,,,,,,,,,,,,,,,,,,,,,,,,,,,,,,,,,,,,,,,,,,,,,,,,,,,
295615,2022-11-28_16h04.37.034,vts_reward_expectancy_bt,2022.2.4,MacIntel,60.0024001,Chrome,1470,956,,,,,,,,,,,,,,,,,,,,,,,,,,,,,,,,,,,,,,,,,,,,,,,,,,,,,,,,,,,,,,,,,,,,,,,,,,,,
295615,2022-11-28_16h04.37.034,vts_reward_expectancy_bt,2022.2.4,MacIntel,60.0024001,Chrome,1470,956,,,,,0,738,,,,,,,,,,,,,,,,,H,174,star,1,0,,,,,,,,,,,,,,,,switch,letter,lettSwt,d,1.4834,noRew,,,,,,0,0,0,0,0,1,,,,,,,,,,,,,,,,,
295615,2022-11-28_16h04.37.034,vts_reward_expectancy_bt,2022.2.4,MacIntel,60.0024001,Chrome,1470,956,,,,,0,738,,,,,,,,,,,,,,,,,S,146,triangle,1,0,,,,,,,,,,,,,,,,repeat,letter,lettRpt,f,0.8363,noRew,,,,,,0,1,0,1,0,1,,,,,,,,,,,,,,,,,
295615,2022-11-28_16h04.37.034,vts_reward_expectancy_bt,2022.2.4,MacIntel,60.0024001,Chrome,1470,956,,,,,0,738,,,,,,,,,,,,,,,,,Y,132,star,1,0,,,,,,,,,,,,,,,,switch,number,numSwt,j,0.9312,noRew,,,,,,0,2,0,2,0,1,,,,,,,,,,,,,,,,,
295615,2022-11-28_16h04.37.034,vts_reward_expectancy_bt,2022.2.4,MacIntel,60.0024001,Chrome,1470,956,,,,,0,738,,,,,,,,,,,,,,,,,U,167,triangle,1,0,,,,,,,,,,,,,,,,repeat,number,numRpt,k,0.8806,noRew,,,,,,0,3,0,3,0,1,,,,,,,,,,,,,,,,,
295615,2022-11-28_16h04.37.034,vts_reward_expectancy_bt,2022.2.4,MacIntel,60.0024001,Chrome,1470,956,,,,,0,738,,,,,,,,,,,,,,,,,H,174,hexagon,1,0,,,,,,,,,,,,,,,,switch,letter,lettSwt,d,0.9309,noRew,,,,,,0,4,0,4,0,1,,,,,,,,,,,,,,,,,
295615,2022-11-28_16h04.37.034,vts_reward_expectancy_bt,2022.2.4,MacIntel,60.0024001,Chrome,1470,956,,,,,0,738,,,,,,,,,,,,,,,,,S,146,star,1,0,,,,,,,,,,,,,,,,repeat,letter,lettRpt,f,0.6458,noRew,,,,,,0,5,0,5,0,1,,,,,,,,,,,,,,,,,
295615,2022-11-28_16h04.37.034,vts_reward_expectancy_bt,2022.2.4,MacIntel,60.0024001,Chrome,1470,956,,,,,0,738,,,,,,,,,,,,,,,,,Y,132,star,1,0,,,,,,,,,,,,,,,,switch,number,numSwt,j,0.7311,noRew,,,,,,0,6,0,6,0,1,,,,,,,,,,,,,,,,,
295615,2022-11-28_16h04.37.034,vts_reward_expectancy_bt,2022.2.4,MacIntel,60.0024001,Chrome,1470,956,,,,,0,738,,,,,,,,,,,,,,,,,U,167,triangle,1,0,,,,,,,,,,,,,,,,repeat,number,numRpt,k,0.6799,noRew,,,,,,0,7,0,7,0,1,,,,,,,,,,,,,,,,,
295615,2022-11-28_16h04.37.034,vts_reward_expectancy_bt,2022.2.4,MacIntel,60.0024001,Chrome,1470,956,,,,,0,738,,,,,,,,,,,,,,,,,D,181,circle,1,0,,,,,,,,,,,,,,,,switch,letter,lettSwt,d,2.8554,noRew,,,,,,0,8,0,8,0,1,,,,,,,,,,,,,,,,,
295615,2022-11-28_16h04.37.034,vts_reward_expectancy_bt,2022.2.4,MacIntel,60.0024001,Chrome,1470,956,,,,,0,738,,,,,,,,,,,,,,,,,F,160,triangle,1,0,,,,,,,,,,,,,,,,repeat,letter,lettRpt,d,0.7378,noRew,,,,,,0,9,0,9,0,1,,,,,,,,,,,,,,,,,
295615,2022-11-28_16h04.37.034,vts_reward_expectancy_bt,2022.2.4,MacIntel,60.0024001,Chrome,1470,956,,,,,0,738,,,,,,,,,,,,,,,,,Y,174,circle,1,0,,,,,,,,,,,,,,,,switch,number,numSwt,k,1.031,noRew,,,,,,0,10,0,10,0,1,,,,,,,,,,,,,,,,,
295615,2022-11-28_16h04.37.034,vts_reward_expectancy_bt,2022.2.4,MacIntel,60.0024001,Chrome,1470,956,,,,,0,738,,,,,,,,,,,,,,,,,H,139,hexagon,1,0,,,,,,,,,,,,,,,,repeat,number,numRpt,j,0.5818,noRew,,,,,,0,11,0,11,0,1,,,,,,,,,,,,,,,,,
295615,2022-11-28_16h04.37.034,vts_reward_expectancy_bt,2022.2.4,MacIntel,60.0024001,Chrome,1470,956,,,,,0,738,,,,,,,,,,,,,,,,,S,181,triangle,1,0,,,,,,,,,,,,,,,,switch,letter,lettSwt,f,0.865,noRew,,,,,,0,12,0,12,0,1,,,,,,,,,,,,,,,,,
295615,2022-11-28_16h04.37.034,vts_reward_expectancy_bt,2022.2.4,MacIntel,60.0024001,Chrome,1470,956,,,,,0,738,,,,,,,,,,,,,,,,,F,139,hexagon,1,0,,,,,,,,,,,,,,,,repeat,letter,lettRpt,d,0.6289,noRew,,,,,,0,13,0,13,0,1,,,,,,,,,,,,,,,,,
295615,2022-11-28_16h04.37.034,vts_reward_expectancy_bt,2022.2.4,MacIntel,60.0024001,Chrome,1470,956,,,,,0,738,,,,,,,,,,,,,,,,,H,132,triangle,1,0,,,,,,,,,,,,,,,,switch,number,numSwt,j,0.6957,noRew,,,,,,0,14,0,14,0,1,,,,,,,,,,,,,,,,,
295615,2022-11-28_16h04.37.034,vts_reward_expectancy_bt,2022.2.4,MacIntel,60.0024001,Chrome,1470,956,,,,,0,738,,,,,,,,,,,,,,,,,Y,174,hexagon,1,0,,,,,,,,,,,,,,,,repeat,number,numRpt,k,0.6979,noRew,,,,,,0,15,0,15,0,1,,,,,,,,,,,,,,,,,
295615,2022-11-28_16h04.37.034,vts_reward_expectancy_bt,2022.2.4,MacIntel,60.0024001,Chrome,1470,956,,,,,0,738,,,,,,,,,,,,,,,,,F,139,star,1,0,,,,,,,,,,,,,,,,switch,letter,lettSwt,d,0.581,noRew,,,,,,0,16,0,16,0,1,,,,,,,,,,,,,,,,,
295615,2022-11-28_16h04.37.034,vts_reward_expectancy_bt,2022.2.4,MacIntel,60.0024001,Chrome,1470,956,,,,,0,738,,,,,,,,,,,,,,,,,H,160,triangle,1,0,,,,,,,,,,,,,,,,repeat,letter,lettRpt,d,0.8796,noRew,,,,,,0,17,0,17,0,1,,,,,,,,,,,,,,,,,
295615,2022-11-28_16h04.37.034,vts_reward_expectancy_bt,2022.2.4,MacIntel,60.0024001,Chrome,1470,956,,,,,0,738,,,,,,,,,,,,,,,,,D,174,circle,1,0,,,,,,,,,,,,,,,,switch,number,numSwt,k,1.4965,noRew,,,,,,0,18,0,18,0,1,,,,,,,,,,,,,,,,,
295615,2022-11-28_16h04.37.034,vts_reward_expectancy_bt,2022.2.4,MacIntel,60.0024001,Chrome,1470,956,,,,,0,738,,,,,,,,,,,,,,,,,S,125,triangle,1,0,,,,,,,,,,,,,,,,repeat,number,numRpt,j,1.0445,noRew,,,,,,0,19,0,19,0,1,,,,,,,,,,,,,,,,,
295615,2022-11-28_16h04.37.034,vts_reward_expectancy_bt,2022.2.4,MacIntel,60.0024001,Chrome,1470,956,,,,,0,738,,,,,,,,,,,,,,,,,H,160,triangle,1,0,,,,,,,,,,,,,,,,switch,letter,lettSwt,d,0.7803,noRew,,,,,,0,20,0,20,0,1,,,,,,,,,,,,,,,,,
295615,2022-11-28_16h04.37.034,vts_reward_expectancy_bt,2022.2.4,MacIntel,60.0024001,Chrome,1470,956,,,,,0,738,,,,,,,,,,,,,,,,,B,132,star,1,0,,,,,,,,,,,,,,,,repeat,letter,lettRpt,d,0.6557,noRew,,,,,,0,21,0,21,0,1,,,,,,,,,,,,,,,,,
295615,2022-11-28_16h04.37.034,vts_reward_expectancy_bt,2022.2.4,MacIntel,60.0024001,Chrome,1470,956,,,,,0,738,,,,,,,,,,,,,,,,,S,167,circle,1,0,,,,,,,,,,,,,,,,switch,number,numSwt,k,0.7139,noRew,,,,,,0,22,0,22,0,1,,,,,,,,,,,,,,,,,
295615,2022-11-28_16h04.37.034,vts_reward_expectancy_bt,2022.2.4,MacIntel,60.0024001,Chrome,1470,956,,,,,0,738,,,,,,,,,,,,,,,,,W,125,hexagon,1,0,,,,,,,,,,,,,,,,repeat,number,numRpt,j,0.6519,noRew,,,,,,0,23,0,23,0,1,,,,,,,,,,,,,,,,,
295615,2022-11-28_16h04.37.034,vts_reward_expectancy_bt,2022.2.4,MacIntel,60.0024001,Chrome,1470,956,,,,,0,738,,,,,,,,,,,,,,,,,H,139,triangle,1,0,,,,,,,,,,,,,,,,switch,letter,lettSwt,d,1.2498,noRew,,,,,,0,24,0,24,0,1,,,,,,,,,,,,,,,,,
295615,2022-11-28_16h04.37.034,vts_reward_expectancy_bt,2022.2.4,MacIntel,60.0024001,Chrome,1470,956,,,,,0,738,,,,,,,,,,,,,,,,,Y,174,hexagon,1,0,,,,,,,,,,,,,,,,repeat,letter,lettRpt,f,1.1287,noRew,,,,,,0,25,0,25,0,1,,,,,,,,,,,,,,,,,
295615,2022-11-28_16h04.37.034,vts_reward_expectancy_bt,2022.2.4,MacIntel,60.0024001,Chrome,1470,956,,,,,0,738,,,,,,,,,,,,,,,,,U,160,hexagon,1,0,,,,,,,,,,,,,,,,switch,number,numSwt,k,1.7627,noRew,,,,,,0,26,0,26,0,1,,,,,,,,,,,,,,,,,
295615,2022-11-28_16h04.37.034,vts_reward_expectancy_bt,2022.2.4,MacIntel,60.0024001,Chrome,1470,956,,,,,0,738,,,,,,,,,,,,,,,,,S,146,circle,1,0,,,,,,,,,,,,,,,,repeat,number,numRpt,j,0.6484,noRew,,,,,,0,27,0,27,0,1,,,,,,,,,,,,,,,,,
295615,2022-11-28_16h04.37.034,vts_reward_expectancy_bt,2022.2.4,MacIntel,60.0024001,Chrome,1470,956,,,,,0,738,,,,,,,,,,,,,,,,,B,139,triangle,1,0,,,,,,,,,,,,,,,,switch,letter,lettSwt,d,1.1654,noRew,,,,,,0,28,0,28,0,1,,,,,,,,,,,,,,,,,
295615,2022-11-28_16h04.37.034,vts_reward_expectancy_bt,2022.2.4,MacIntel,60.0024001,Chrome,1470,956,,,,,0,738,,,,,,,,,,,,,,,,,W,181,hexagon,1,0,,,,,,,,,,,,,,,,repeat,letter,lettRpt,f,1.1204,noRew,,,,,,0,29,0,29,0,1,,,,,,,,,,,,,,,,,
295615,2022-11-28_16h04.37.034,vts_reward_expectancy_bt,2022.2.4,MacIntel,60.0024001,Chrome,1470,956,,,,,0,738,,,,,,,,,,,,,,,,,U,174,triangle,1,0,,,,,,,,,,,,,,,,switch,number,numSwt,k,0.9438,noRew,,,,,,0,30,0,30,0,1,,,,,,,,,,,,,,,,,
295615,2022-11-28_16h04.37.034,vts_reward_expectancy_bt,2022.2.4,MacIntel,60.0024001,Chrome,1470,956,,,,,0,738,,,,,,,,,,,,,,,,,Y,132,star,1,0,,,,,,,,,,,,,,,,repeat,number,numRpt,j,0.8531,noRew,,,,,,0,31,0,31,0,1,,,,,,,,,,,,,,,,,
295615,2022-11-28_16h04.37.034,vts_reward_expectancy_bt,2022.2.4,MacIntel,60.0024001,Chrome,1470,956,,,,,0,738,,,,,,,,,,,,,,,,,U,132,triangle,1,0,,,,,,,,,,,,,,,,switch,letter,lettSwt,f,1.0833,noRew,,,,,,0,32,0,32,0,1,,,,,,,,,,,,,,,,,
295615,2022-11-28_16h04.37.034,vts_reward_expectancy_bt,2022.2.4,MacIntel,60.0024001,Chrome,1470,956,,,,,0,738,,,,,,,,,,,,,,,,,F,181,hexagon,1,0,,,,,,,,,,,,,,,,repeat,letter,lettRpt,d,0.8642,noRew,,,,,,0,33,0,33,0,1,,,,,,,,,,,,,,,,,
295615,2022-11-28_16h04.37.034,vts_reward_expectancy_bt,2022.2.4,MacIntel,60.0024001,Chrome,1470,956,,,,,0,738,,,,,,,,,,,,,,,,,H,139,triangle,1,0,,,,,,,,,,,,,,,,switch,number,numSwt,j,0.8632,noRew,,,,,,0,34,0,34,0,1,,,,,,,,,,,,,,,,,
295615,2022-11-28_16h04.37.034,vts_reward_expectancy_bt,2022.2.4,MacIntel,60.0024001,Chrome,1470,956,,,,,0,738,,,,,,,,,,,,,,,,,W,160,circle,1,0,,,,,,,,,,,,,,,,repeat,number,numRpt,k,1.6118,noRew,,,,,,0,35,0,35,0,1,,,,,,,,,,,,,,,,,
295615,2022-11-28_16h04.37.034,vts_reward_expectancy_bt,2022.2.4,MacIntel,60.0024001,Chrome,1470,956,,,,,0,738,,,,,,,,,,,,,,,,,F,160,star,1,0,,,,,,,,,,,,,,,,switch,letter,lettSwt,d,1.9166,noRew,,,,,,0,36,0,36,0,1,,,,,,,,,,,,,,,,,
295615,2022-11-28_16h04.37.034,vts_reward_expectancy_bt,2022.2.4,MacIntel,60.0024001,Chrome,1470,956,,,,,0,738,,,,,,,,,,,,,,,,,Y,167,circle,1,0,,,,,,,,,,,,,,,,repeat,letter,lettRpt,f,0.7631,noRew,,,,,,0,37,0,37,0,1,,,,,,,,,,,,,,,,,
295615,2022-11-28_16h04.37.034,vts_reward_expectancy_bt,2022.2.4,MacIntel,60.0024001,Chrome,1470,956,,,,,0,738,,,,,,,,,,,,,,,,,W,132,hexagon,1,0,,,,,,,,,,,,,,,,switch,number,numSwt,j,0.9824,noRew,,,,,,0,38,0,38,0,1,,,,,,,,,,,,,,,,,
295615,2022-11-28_16h04.37.034,vts_reward_expectancy_bt,2022.2.4,MacIntel,60.0024001,Chrome,1470,956,,,,,0,738,,,,,,,,,,,,,,,,,D,146,circle,1,0,,,,,,,,,,,,,,,,repeat,number,numRpt,j,0.8969,noRew,,,,,,0,39,0,39,0,1,,,,,,,,,,,,,,,,,
295615,2022-11-28_16h04.37.034,vts_reward_expectancy_bt,2022.2.4,MacIntel,60.0024001,Chrome,1470,956,,,,,0,738,,,,,,,,,,,,,,,,,Y,139,hexagon,1,0,,,,,,,,,,,,,,,,switch,letter,lettSwt,f,0.7179,noRew,,,,,,0,40,0,40,0,1,,,,,,,,,,,,,,,,,
295615,2022-11-28_16h04.37.034,vts_reward_expectancy_bt,2022.2.4,MacIntel,60.0024001,Chrome,1470,956,,,,,0,738,,,,,,,,,,,,,,,,,H,181,circle,1,0,,,,,,,,,,,,,,,,repeat,letter,lettRpt,d,0.9133,noRew,,,,,,0,41,0,41,0,1,,,,,,,,,,,,,,,,,
295615,2022-11-28_16h04.37.034,vts_reward_expectancy_bt,2022.2.4,MacIntel,60.0024001,Chrome,1470,956,,,,,0,738,,,,,,,,,,,,,,,,,F,160,circle,1,0,,,,,,,,,,,,,,,,switch,number,numSwt,k,0.9796,noRew,,,,,,0,42,0,42,0,1,,,,,,,,,,,,,,,,,
295615,2022-11-28_16h04.37.034,vts_reward_expectancy_bt,2022.2.4,MacIntel,60.0024001,Chrome,1470,956,,,,,0,738,,,,,,,,,,,,,,,,,D,132,star,1,0,,,,,,,,,,,,,,,,repeat,number,numRpt,j,2.4037,noRew,,,,,,0,43,0,43,0,1,,,,,,,,,,,,,,,,,
295615,2022-11-28_16h04.37.034,vts_reward_expectancy_bt,2022.2.4,MacIntel,60.0024001,Chrome,1470,956,,,,,0,738,,,,,,,,,,,,,,,,,W,167,circle,1,0,,,,,,,,,,,,,,,,switch,letter,lettSwt,f,1.7707,noRew,,,,,,0,44,0,44,0,1,,,,,,,,,,,,,,,,,
295615,2022-11-28_16h04.37.034,vts_reward_expectancy_bt,2022.2.4,MacIntel,60.0024001,Chrome,1470,956,,,,,0,738,,,,,,,,,,,,,,,,,U,181,triangle,1,0,,,,,,,,,,,,,,,,repeat,letter,lettRpt,f,1.2794,noRew,,,,,,0,45,0,45,0,1,,,,,,,,,,,,,,,,,
295615,2022-11-28_16h04.37.034,vts_reward_expectancy_bt,2022.2.4,MacIntel,60.0024001,Chrome,1470,956,,,,,0,738,,,,,,,,,,,,,,,,,Y,160,star,1,0,,,,,,,,,,,,,,,,switch,number,numSwt,k,1.3739,noRew,,,,,,0,46,0,46,0,1,,,,,,,,,,,,,,,,,
295615,2022-11-28_16h04.37.034,vts_reward_expectancy_bt,2022.2.4,MacIntel,60.0024001,Chrome,1470,956,,,,,0,738,,,,,,,,,,,,,,,,,F,125,circle,1,0,,,,,,,,,,,,,,,,repeat,number,numRpt,j,0.949,noRew,,,,,,0,47,0,47,0,1,,,,,,,,,,,,,,,,,
295615,2022-11-28_16h04.37.034,vts_reward_expectancy_bt,2022.2.4,MacIntel,60.0024001,Chrome,1470,956,,,,,0,738,,,,,,,,,,,,,,,,,F,160,hexagon,1,0,,,,,,,,,,,,,,,,switch,letter,lettSwt,d,1.1651,noRew,,,,,,0,48,0,48,0,1,,,,,,,,,,,,,,,,,
295615,2022-11-28_16h04.37.034,vts_reward_expectancy_bt,2022.2.4,MacIntel,60.0024001,Chrome,1470,956,,,,,0,738,,,,,,,,,,,,,,,,,W,132,circle,1,0,,,,,,,,,,,,,,,,repeat,letter,lettRpt,f,1.3006,noRew,,,,,,0,49,0,49,0,1,,,,,,,,,,,,,,,,,
295615,2022-11-28_16h04.37.034,vts_reward_expectancy_bt,2022.2.4,MacIntel,60.0024001,Chrome,1470,956,,,,,0,738,,,,,,,,,,,,,,,,,D,146,circle,1,0,,,,,,,,,,,,,,,,switch,number,numSwt,j,1.3464,noRew,,,,,,0,50,0,50,0,1,,,,,,,,,,,,,,,,,
295615,2022-11-28_16h04.37.034,vts_reward_expectancy_bt,2022.2.4,MacIntel,60.0024001,Chrome,1470,956,,,,,0,738,,,,,,,,,,,,,,,,,S,167,triangle,1,0,,,,,,,,,,,,,,,,repeat,number,numRpt,k,0.6142,noRew,,,,,,0,51,0,51,0,1,,,,,,,,,,,,,,,,,
295615,2022-11-28_16h04.37.034,vts_reward_expectancy_bt,2022.2.4,MacIntel,60.0024001,Chrome,1470,956,,,,,0,738,,,,,,,,,,,,,,,,,U,160,star,1,0,,,,,,,,,,,,,,,,switch,letter,lettSwt,f,0.7304,noRew,,,,,,0,52,0,52,0,1,,,,,,,,,,,,,,,,,
295615,2022-11-28_16h04.37.034,vts_reward_expectancy_bt,2022.2.4,MacIntel,60.0024001,Chrome,1470,956,,,,,0,738,,,,,,,,,,,,,,,,,H,181,triangle,1,0,,,,,,,,,,,,,,,,repeat,letter,lettRpt,d,1.6316,noRew,,,,,,0,53,0,53,0,1,,,,,,,,,,,,,,,,,
295615,2022-11-28_16h04.37.034,vts_reward_expectancy_bt,2022.2.4,MacIntel,60.0024001,Chrome,1470,956,,,,,0,738,,,,,,,,,,,,,,,,,S,139,star,1,0,,,,,,,,,,,,,,,,switch,number,numSwt,j,0.9131,noRew,,,,,,0,54,0,54,0,1,,,,,,,,,,,,,,,,,
295615,2022-11-28_16h04.37.034,vts_reward_expectancy_bt,2022.2.4,MacIntel,60.0024001,Chrome,1470,956,,,,,0,738,,,,,,,,,,,,,,,,,B,125,hexagon,1,0,,,,,,,,,,,,,,,,repeat,number,numRpt,j,0.9318,noRew,,,,,,0,55,0,55,0,1,,,,,,,,,,,,,,,,,
295615,2022-11-28_16h04.37.034,vts_reward_expectancy_bt,2022.2.4,MacIntel,60.0024001,Chrome,1470,956,,,,,0,738,,,,,,,,,,,,,,,,,D,167,circle,1,0,,,,,,,,,,,,,,,,switch,letter,lettSwt,d,0.838,noRew,,,,,,0,56,0,56,0,1,,,,,,,,,,,,,,,,,
295615,2022-11-28_16h04.37.034,vts_reward_expectancy_bt,2022.2.4,MacIntel,60.0024001,Chrome,1470,956,,,,,0,738,,,,,,,,,,,,,,,,,H,125,hexagon,1,0,,,,,,,,,,,,,,,,repeat,letter,lettRpt,d,0.6466,noRew,,,,,,0,57,0,57,0,1,,,,,,,,,,,,,,,,,
295615,2022-11-28_16h04.37.034,vts_reward_expectancy_bt,2022.2.4,MacIntel,60.0024001,Chrome,1470,956,,,,,0,738,,,,,,,,,,,,,,,,,B,139,hexagon,1,0,,,,,,,,,,,,,,,,switch,number,numSwt,j,0.7715,noRew,,,,,,0,58,0,58,0,1,,,,,,,,,,,,,,,,,
295615,2022-11-28_16h04.37.034,vts_reward_expectancy_bt,2022.2.4,MacIntel,60.0024001,Chrome,1470,956,,,,,0,738,,,,,,,,,,,,,,,,,Y,146,circle,1,0,,,,,,,,,,,,,,,,repeat,number,numRpt,j,0.6969,noRew,,,,,,0,59,0,59,0,1,,,,,,,,,,,,,,,,,
295615,2022-11-28_16h04.37.034,vts_reward_expectancy_bt,2022.2.4,MacIntel,60.0024001,Chrome,1470,956,,,,,0,738,,,,,,,,,,,,,,,,,F,132,triangle,1,0,,,,,,,,,,,,,,,,switch,letter,lettSwt,d,0.9799,noRew,,,,,,0,60,0,60,0,1,,,,,,,,,,,,,,,,,
295615,2022-11-28_16h04.37.034,vts_reward_expectancy_bt,2022.2.4,MacIntel,60.0024001,Chrome,1470,956,,,,,0,738,,,,,,,,,,,,,,,,,B,160,hexagon,1,0,,,,,,,,,,,,,,,,repeat,letter,lettRpt,d,0.7049,noRew,,,,,,0,61,0,61,0,1,,,,,,,,,,,,,,,,,
295615,2022-11-28_16h04.37.034,vts_reward_expectancy_bt,2022.2.4,MacIntel,60.0024001,Chrome,1470,956,,,,,0,738,,,,,,,,,,,,,,,,,S,167,star,1,0,,,,,,,,,,,,,,,,switch,number,numSwt,k,1.7798,noRew,,,,,,0,62,0,62,0,1,,,,,,,,,,,,,,,,,
295615,2022-11-28_16h04.37.034,vts_reward_expectancy_bt,2022.2.4,MacIntel,60.0024001,Chrome,1470,956,,,,,0,738,,,,,,,,,,,,,,,,,Y,139,hexagon,1,0,,,,,,,,,,,,,,,,repeat,number,numRpt,j,0.7528,noRew,,,,,,0,63,0,63,0,1,,,,,,,,,,,,,,,,,
295615,2022-11-28_16h04.37.034,vts_reward_expectancy_bt,2022.2.4,MacIntel,60.0024001,Chrome,1470,956,,,,,,,,,,,,,,,,,,,,,,,,,,,,,,,,,,,,,,,,,,,,,,,,,,,,,,,,,,,,,,,,,,,,,,,,,,,,
295615,2022-11-28_16h04.37.034,vts_reward_expectancy_bt,2022.2.4,MacIntel,60.0024001,Chrome,1470,956,,,,,10,748,,,,,,,,,,,,,,,,,B,146,triangle,1,0,,,,,,,,,,,,,,,,switch,letter,lettSwt,d,2.5288,Lo,,,,,,0,,,,,,space,30.9564,high,0,0,0,0,1,,,,,,,,,
295615,2022-11-28_16h04.37.034,vts_reward_expectancy_bt,2022.2.4,MacIntel,60.0024001,Chrome,1470,956,,,,,1,749,,,,,,,,,,,,,,,,,S,132,star,1,0,,,,,,,,,,,,,,,,repeat,letter,lettRpt,f,1.5681,Lo,,,,,,0,,,,,,,,high,1,0,1,0,1,,,,,,,,,
295615,2022-11-28_16h04.37.034,vts_reward_expectancy_bt,2022.2.4,MacIntel,60.0024001,Chrome,1470,956,,,,,0,749,,,,,,,,,,,,,,,,,D,125,hexagon,1,0,,,,,,,,,,,,,,,,repeat,letter,lettRpt,d,1.0799,Hi,,,,,,0,,,,,,,,high,2,0,2,0,1,,,,,,,,,
295615,2022-11-28_16h04.37.034,vts_reward_expectancy_bt,2022.2.4,MacIntel,60.0024001,Chrome,1470,956,,,,,10,759,,,,,,,,,,,,,,,,,W,167,circle,1,0,,,,,,,,,,,,,,,,repeat,letter,lettRpt,f,0.5819,Hi,,,,,,0,,,,,,,,high,3,0,3,0,1,,,,,,,,,
295615,2022-11-28_16h04.37.034,vts_reward_expectancy_bt,2022.2.4,MacIntel,60.0024001,Chrome,1470,956,,,,,1,760,,,,,,,,,,,,,,,,,Y,139,triangle,1,0,,,,,,,,,,,,,,,,repeat,letter,lettRpt,f,0.6277,Lo,,,,,,0,,,,,,,,high,4,0,4,0,1,,,,,,,,,
295615,2022-11-28_16h04.37.034,vts_reward_expectancy_bt,2022.2.4,MacIntel,60.0024001,Chrome,1470,956,,,,,0,760,,,,,,,,,,,,,,,,,F,181,star,0,0,,,,,,,,,,,,,,,,repeat,letter,NA,f,0.6852,Lo,,,,,,0,,,,,,,,high,5,0,5,0,1,,,,,,,,,
295615,2022-11-28_16h04.37.034,vts_reward_expectancy_bt,2022.2.4,MacIntel,60.0024001,Chrome,1470,956,,,,,10,770,,,,,,,,,,,,,,,,,U,174,hexagon,1,1,,,,,,,,,,,,,,,,repeat,letter,lettRpt,f,0.5678,Hi,,,,,,0,,,,,,,,high,6,0,6,0,1,,,,,,,,,
295615,2022-11-28_16h04.37.034,vts_reward_expectancy_bt,2022.2.4,MacIntel,60.0024001,Chrome,1470,956,,,,,10,780,,,,,,,,,,,,,,,,,H,160,circle,1,0,,,,,,,,,,,,,,,,repeat,letter,lettRpt,d,0.6213,Hi,,,,,,0,,,,,,,,high,7,0,7,0,1,,,,,,,,,
295615,2022-11-28_16h04.37.034,vts_reward_expectancy_bt,2022.2.4,MacIntel,60.0024001,Chrome,1470,956,,,,,1,781,,,,,,,,,,,,,,,,,B,146,star,1,0,,,,,,,,,,,,,,,,repeat,letter,lettRpt,d,0.5182,Lo,,,,,,0,,,,,,,,high,8,0,8,0,1,,,,,,,,,
295615,2022-11-28_16h04.37.034,vts_reward_expectancy_bt,2022.2.4,MacIntel,60.0024001,Chrome,1470,956,,,,,10,791,,,,,,,,,,,,,,,,,S,132,circle,1,0,,,,,,,,,,,,,,,,repeat,letter,lettRpt,f,0.6062,Hi,,,,,,0,,,,,,,,high,9,0,9,0,1,,,,,,,,,
295615,2022-11-28_16h04.37.034,vts_reward_expectancy_bt,2022.2.4,MacIntel,60.0024001,Chrome,1470,956,,,,,10,801,,,,,,,,,,,,,,,,,D,125,hexagon,1,0,,,,,,,,,,,,,,,,switch,number,numSwt,j,0.5479,Hi,,,,,,0,,,,,,,,high,10,0,10,0,1,,,,,,,,,
295615,2022-11-28_16h04.37.034,vts_reward_expectancy_bt,2022.2.4,MacIntel,60.0024001,Chrome,1470,956,,,,,1,802,,,,,,,,,,,,,,,,,W,167,triangle,1,0,,,,,,,,,,,,,,,,repeat,number,numRpt,k,0.6526,Lo,,,,,,0,,,,,,,,high,11,0,11,0,1,,,,,,,,,
295615,2022-11-28_16h04.37.034,vts_reward_expectancy_bt,2022.2.4,MacIntel,60.0024001,Chrome,1470,956,,,,,10,812,,,,,,,,,,,,,,,,,Y,139,circle,1,0,,,,,,,,,,,,,,,,switch,letter,lettSwt,f,0.5661,Hi,,,,,,0,,,,,,,,high,12,0,12,0,1,,,,,,,,,
295615,2022-11-28_16h04.37.034,vts_reward_expectancy_bt,2022.2.4,MacIntel,60.0024001,Chrome,1470,956,,,,,10,822,,,,,,,,,,,,,,,,,F,181,hexagon,1,0,,,,,,,,,,,,,,,,switch,number,numSwt,k,0.5135,Hi,,,,,,0,,,,,,,,high,13,0,13,0,1,,,,,,,,,
295615,2022-11-28_16h04.37.034,vts_reward_expectancy_bt,2022.2.4,MacIntel,60.0024001,Chrome,1470,956,,,,,1,823,,,,,,,,,,,,,,,,,U,174,star,1,0,,,,,,,,,,,,,,,,switch,letter,lettSwt,f,0.6164,Lo,,,,,,0,,,,,,,,high,14,0,14,0,1,,,,,,,,,
295615,2022-11-28_16h04.37.034,vts_reward_expectancy_bt,2022.2.4,MacIntel,60.0024001,Chrome,1470,956,,,,,10,833,,,,,,,,,,,,,,,,,H,160,triangle,1,0,,,,,,,,,,,,,,,,repeat,letter,lettRpt,d,0.6381,Lo,,,,,,0,,,,,,,,high,15,0,15,0,1,,,,,,,,,
295615,2022-11-28_16h04.37.034,vts_reward_expectancy_bt,2022.2.4,MacIntel,60.0024001,Chrome,1470,956,,,,,10,843,,,,,,,,,,,,,,,,,U,181,circle,1,0,,,,,,,,,,,,,,,,repeat,letter,lettRpt,f,0.5709,Hi,,,,,,0,,,,,,,,high,16,0,16,0,1,,,,,,,,,
295615,2022-11-28_16h04.37.034,vts_reward_expectancy_bt,2022.2.4,MacIntel,60.0024001,Chrome,1470,956,,,,,1,844,,,,,,,,,,,,,,,,,Y,174,star,1,0,,,,,,,,,,,,,,,,switch,number,numSwt,k,0.6121,Lo,,,,,,0,,,,,,,,high,17,0,17,0,1,,,,,,,,,
295615,2022-11-28_16h04.37.034,vts_reward_expectancy_bt,2022.2.4,MacIntel,60.0024001,Chrome,1470,956,,,,,10,854,,,,,,,,,,,,,,,,,H,125,triangle,1,0,,,,,,,,,,,,,,,,switch,letter,lettSwt,d,0.6149,Lo,,,,,,0,,,,,,,,high,18,0,18,0,1,,,,,,,,,
295615,2022-11-28_16h04.37.034,vts_reward_expectancy_bt,2022.2.4,MacIntel,60.0024001,Chrome,1470,956,,,,,10,864,,,,,,,,,,,,,,,,,S,132,hexagon,1,0,,,,,,,,,,,,,,,,switch,number,numSwt,j,0.5652,Hi,,,,,,0,,,,,,,,high,19,0,19,0,1,,,,,,,,,
295615,2022-11-28_16h04.37.034,vts_reward_expectancy_bt,2022.2.4,MacIntel,60.0024001,Chrome,1470,956,,,,,1,865,,,,,,,,,,,,,,,,,D,160,triangle,1,0,,,,,,,,,,,,,,,,switch,letter,lettSwt,d,0.5276,Lo,,,,,,0,,,,,,,,high,20,0,20,0,1,,,,,,,,,
295615,2022-11-28_16h04.37.034,vts_reward_expectancy_bt,2022.2.4,MacIntel,60.0024001,Chrome,1470,956,,,,,1,866,,,,,,,,,,,,,,,,,B,146,star,1,0,,,,,,,,,,,,,,,,repeat,letter,lettRpt,d,0.4954,Lo,,,,,,0,,,,,,,,high,21,0,21,0,1,,,,,,,,,
295615,2022-11-28_16h04.37.034,vts_reward_expectancy_bt,2022.2.4,MacIntel,60.0024001,Chrome,1470,956,,,,,1,867,,,,,,,,,,,,,,,,,F,139,hexagon,1,0,,,,,,,,,,,,,,,,switch,number,numSwt,j,0.6491,Hi,,,,,,0,,,,,,,,high,22,0,22,0,1,,,,,,,,,
295615,2022-11-28_16h04.37.034,vts_reward_expectancy_bt,2022.2.4,MacIntel,60.0024001,Chrome,1470,956,,,,,10,877,,,,,,,,,,,,,,,,,W,167,circle,1,0,,,,,,,,,,,,,,,,switch,letter,lettSwt,f,0.5374,Hi,,,,,,0,,,,,,,,high,23,0,23,0,1,,,,,,,,,
295615,2022-11-28_16h04.37.034,vts_reward_expectancy_bt,2022.2.4,MacIntel,60.0024001,Chrome,1470,956,,,,,1,878,,,,,,,,,,,,,,,,,F,125,circle,1,0,,,,,,,,,,,,,,,,repeat,letter,lettRpt,d,0.6053,Hi,,,,,,0,,,,,,,,high,24,0,24,0,1,,,,,,,,,
295615,2022-11-28_16h04.37.034,vts_reward_expectancy_bt,2022.2.4,MacIntel,60.0024001,Chrome,1470,956,,,,,10,888,,,,,,,,,,,,,,,,,B,181,hexagon,1,0,,,,,,,,,,,,,,,,repeat,letter,lettRpt,d,0.6306,Hi,,,,,,0,,,,,,,,high,25,0,25,0,1,,,,,,,,,
295615,2022-11-28_16h04.37.034,vts_reward_expectancy_bt,2022.2.4,MacIntel,60.0024001,Chrome,1470,956,,,,,1,889,,,,,,,,,,,,,,,,,D,167,star,1,0,,,,,,,,,,,,,,,,repeat,letter,lettRpt,d,0.6311,Lo,,,,,,0,,,,,,,,high,26,0,26,0,1,,,,,,,,,
295615,2022-11-28_16h04.37.034,vts_reward_expectancy_bt,2022.2.4,MacIntel,60.0024001,Chrome,1470,956,,,,,1,890,,,,,,,,,,,,,,,,,U,132,triangle,1,0,,,,,,,,,,,,,,,,repeat,letter,lettRpt,f,0.618,Lo,,,,,,0,,,,,,,,high,27,0,27,0,1,,,,,,,,,
295615,2022-11-28_16h04.37.034,vts_reward_expectancy_bt,2022.2.4,MacIntel,60.0024001,Chrome,1470,956,,,,,1,891,,,,,,,,,,,,,,,,,Y,146,hexagon,1,0,,,,,,,,,,,,,,,,switch,number,numSwt,j,0.5983,Hi,,,,,,0,,,,,,,,high,28,0,28,0,1,,,,,,,,,
295615,2022-11-28_16h04.37.034,vts_reward_expectancy_bt,2022.2.4,MacIntel,60.0024001,Chrome,1470,956,,,,,1,892,,,,,,,,,,,,,,,,,H,160,star,1,0,,,,,,,,,,,,,,,,repeat,number,numRpt,k,0.7323,Lo,,,,,,0,,,,,,,,high,29,0,29,0,1,,,,,,,,,
295615,2022-11-28_16h04.37.034,vts_reward_expectancy_bt,2022.2.4,MacIntel,60.0024001,Chrome,1470,956,,,,,10,902,,,,,,,,,,,,,,,,,W,174,circle,1,0,,,,,,,,,,,,,,,,switch,letter,lettSwt,f,0.681,Hi,,,,,,0,,,,,,,,high,30,0,30,0,1,,,,,,,,,
295615,2022-11-28_16h04.37.034,vts_reward_expectancy_bt,2022.2.4,MacIntel,60.0024001,Chrome,1470,956,,,,,1,903,,,,,,,,,,,,,,,,,S,139,triangle,1,0,,,,,,,,,,,,,,,,repeat,letter,lettRpt,f,0.5077,Lo,,,,,,0,,,,,,,,high,31,0,31,0,1,,,,,,,,,
295615,2022-11-28_16h04.37.034,vts_reward_expectancy_bt,2022.2.4,MacIntel,60.0024001,Chrome,1470,956,,,,,0,903,,,,,,,,,,,,,,,,,U,139,circle,1,0,,,,,,,,,,,,,,,,repeat,letter,lettRpt,f,0.7006,Hi,,,,,,1,,,,,,space,1.5749,high,0,0,0,0,1,,,,,,,,,
295615,2022-11-28_16h04.37.034,vts_reward_expectancy_bt,2022.2.4,MacIntel,60.0024001,Chrome,1470,956,,,,,1,904,,,,,,,,,,,,,,,,,S,146,triangle,1,0,,,,,,,,,,,,,,,,repeat,letter,lettRpt,f,0.5664,Lo,,,,,,1,,,,,,,,high,1,0,1,0,1,,,,,,,,,
295615,2022-11-28_16h04.37.034,vts_reward_expectancy_bt,2022.2.4,MacIntel,60.0024001,Chrome,1470,956,,,,,0,904,,,,,,,,,,,,,,,,,D,132,hexagon,1,0,,,,,,,,,,,,,,,,repeat,letter,lettRpt,d,0.6337,Hi,,,,,,1,,,,,,,,high,2,0,2,0,1,,,,,,,,,
295615,2022-11-28_16h04.37.034,vts_reward_expectancy_bt,2022.2.4,MacIntel,60.0024001,Chrome,1470,956,,,,,10,914,,,,,,,,,,,,,,,,,F,174,star,1,0,,,,,,,,,,,,,,,,switch,number,numSwt,k,0.8295,Lo,,,,,,1,,,,,,,,high,3,0,3,0,1,,,,,,,,,
295615,2022-11-28_16h04.37.034,vts_reward_expectancy_bt,2022.2.4,MacIntel,60.0024001,Chrome,1470,956,,,,,0,914,,,,,,,,,,,,,,,,,Y,160,circle,1,0,,,,,,,,,,,,,,,,repeat,number,numRpt,k,0.7303,Hi,,,,,,1,,,,,,,,high,4,0,4,0,1,,,,,,,,,
295615,2022-11-28_16h04.37.034,vts_reward_expectancy_bt,2022.2.4,MacIntel,60.0024001,Chrome,1470,956,,,,,1,915,,,,,,,,,,,,,,,,,B,181,triangle,1,0,,,,,,,,,,,,,,,,repeat,number,numRpt,k,0.5242,Lo,,,,,,1,,,,,,,,high,5,0,5,0,1,,,,,,,,,
295615,2022-11-28_16h04.37.034,vts_reward_expectancy_bt,2022.2.4,MacIntel,60.0024001,Chrome,1470,956,,,,,0,915,,,,,,,,,,,,,,,,,H,125,hexagon,1,0,,,,,,,,,,,,,,,,switch,letter,lettSwt,d,0.6078,Hi,,,,,,1,,,,,,,,high,6,0,6,0,1,,,,,,,,,
295615,2022-11-28_16h04.37.034,vts_reward_expectancy_bt,2022.2.4,MacIntel,60.0024001,Chrome,1470,956,,,,,1,916,,,,,,,,,,,,,,,,,W,167,star,1,0,,,,,,,,,,,,,,,,switch,number,numSwt,k,0.5315,Lo,,,,,,1,,,,,,,,high,7,0,7,0,1,,,,,,,,,
295615,2022-11-28_16h04.37.034,vts_reward_expectancy_bt,2022.2.4,MacIntel,60.0024001,Chrome,1470,956,,,,,1,917,,,,,,,,,,,,,,,,,U,139,triangle,1,0,,,,,,,,,,,,,,,,switch,letter,lettSwt,f,0.3804,Lo,,,,,,1,,,,,,,,high,8,0,8,0,1,,,,,,,,,
295615,2022-11-28_16h04.37.034,vts_reward_expectancy_bt,2022.2.4,MacIntel,60.0024001,Chrome,1470,956,,,,,1,918,,,,,,,,,,,,,,,,,S,146,star,1,0,,,,,,,,,,,,,,,,switch,number,numSwt,j,0.413,Lo,,,,,,1,,,,,,,,high,9,0,9,0,1,,,,,,,,,
295615,2022-11-28_16h04.37.034,vts_reward_expectancy_bt,2022.2.4,MacIntel,60.0024001,Chrome,1470,956,,,,,10,928,,,,,,,,,,,,,,,,,D,132,circle,1,0,,,,,,,,,,,,,,,,switch,letter,lettSwt,d,0.4646,Hi,,,,,,1,,,,,,,,high,10,0,10,0,1,,,,,,,,,
295615,2022-11-28_16h04.37.034,vts_reward_expectancy_bt,2022.2.4,MacIntel,60.0024001,Chrome,1470,956,,,,,10,938,,,,,,,,,,,,,,,,,F,174,hexagon,1,0,,,,,,,,,,,,,,,,repeat,letter,lettRpt,d,0.5372,Hi,,,,,,1,,,,,,,,high,11,0,11,0,1,,,,,,,,,
295615,2022-11-28_16h04.37.034,vts_reward_expectancy_bt,2022.2.4,MacIntel,60.0024001,Chrome,1470,956,,,,,1,939,,,,,,,,,,,,,,,,,Y,160,star,1,0,,,,,,,,,,,,,,,,repeat,letter,lettRpt,f,0.5015,Lo,,,,,,1,,,,,,,,high,12,0,12,0,1,,,,,,,,,
295615,2022-11-28_16h04.37.034,vts_reward_expectancy_bt,2022.2.4,MacIntel,60.0024001,Chrome,1470,956,,,,,0,939,,,,,,,,,,,,,,,,,B,181,circle,1,0,,,,,,,,,,,,,,,,repeat,letter,lettRpt,d,0.632,Hi,,,,,,1,,,,,,,,high,13,0,13,0,1,,,,,,,,,
295615,2022-11-28_16h04.37.034,vts_reward_expectancy_bt,2022.2.4,MacIntel,60.0024001,Chrome,1470,956,,,,,0,939,,,,,,,,,,,,,,,,,H,125,hexagon,0,0,,,,,,,,,,,,,,,,repeat,letter,NA,f,0.3482,Hi,,,,,,1,,,,,,,,high,14,0,14,0,1,,,,,,,,,
295615,2022-11-28_16h04.37.034,vts_reward_expectancy_bt,2022.2.4,MacIntel,60.0024001,Chrome,1470,956,,,,,1,940,,,,,,,,,,,,,,,,,W,167,triangle,1,1,,,,,,,,,,,,,,,,repeat,letter,lettRpt,f,0.4661,Lo,,,,,,1,,,,,,,,high,15,0,15,0,1,,,,,,,,,
295615,2022-11-28_16h04.37.034,vts_reward_expectancy_bt,2022.2.4,MacIntel,60.0024001,Chrome,1470,956,,,,,10,950,,,,,,,,,,,,,,,,,U,181,circle,1,0,,,,,,,,,,,,,,,,repeat,letter,lettRpt,f,0.5807,Hi,,,,,,1,,,,,,,,high,16,0,16,0,1,,,,,,,,,
295615,2022-11-28_16h04.37.034,vts_reward_expectancy_bt,2022.2.4,MacIntel,60.0024001,Chrome,1470,956,,,,,1,951,,,,,,,,,,,,,,,,,Y,139,triangle,1,0,,,,,,,,,,,,,,,,switch,number,numSwt,j,0.5216,Lo,,,,,,1,,,,,,,,high,17,0,17,0,1,,,,,,,,,
295615,2022-11-28_16h04.37.034,vts_reward_expectancy_bt,2022.2.4,MacIntel,60.0024001,Chrome,1470,956,,,,,1,952,,,,,,,,,,,,,,,,,B,167,star,1,0,,,,,,,,,,,,,,,,switch,letter,lettSwt,d,0.517,Lo,,,,,,1,,,,,,,,high,18,0,18,0,1,,,,,,,,,
295615,2022-11-28_16h04.37.034,vts_reward_expectancy_bt,2022.2.4,MacIntel,60.0024001,Chrome,1470,956,,,,,10,962,,,,,,,,,,,,,,,,,D,125,hexagon,1,0,,,,,,,,,,,,,,,,repeat,letter,lettRpt,d,0.5631,Hi,,,,,,1,,,,,,,,high,19,0,19,0,1,,,,,,,,,
295615,2022-11-28_16h04.37.034,vts_reward_expectancy_bt,2022.2.4,MacIntel,60.0024001,Chrome,1470,956,,,,,1,963,,,,,,,,,,,,,,,,,W,174,star,1,0,,,,,,,,,,,,,,,,switch,number,numSwt,k,0.585,Lo,,,,,,1,,,,,,,,high,20,0,20,0,1,,,,,,,,,
295615,2022-11-28_16h04.37.034,vts_reward_expectancy_bt,2022.2.4,MacIntel,60.0024001,Chrome,1470,956,,,,,0,963,,,,,,,,,,,,,,,,,H,160,triangle,0,0,,,,,,,,,,,,,,,,repeat,number,NA,j,0.562,Lo,,,,,,1,,,,,,,,high,21,0,21,0,1,,,,,,,,,
295615,2022-11-28_16h04.37.034,vts_reward_expectancy_bt,2022.2.4,MacIntel,60.0024001,Chrome,1470,956,,,,,0,963,,,,,,,,,,,,,,,,,S,132,hexagon,1,1,,,,,,,,,,,,,,,,switch,letter,lettSwt,f,0.6645,Hi,,,,,,1,,,,,,,,high,22,0,22,0,1,,,,,,,,,
295615,2022-11-28_16h04.37.034,vts_reward_expectancy_bt,2022.2.4,MacIntel,60.0024001,Chrome,1470,956,,,,,1,964,,,,,,,,,,,,,,,,,F,146,circle,1,0,,,,,,,,,,,,,,,,repeat,letter,lettRpt,d,0.4705,Hi,,,,,,1,,,,,,,,high,23,0,23,0,1,,,,,,,,,
295615,2022-11-28_16h04.37.034,vts_reward_expectancy_bt,2022.2.4,MacIntel,60.0024001,Chrome,1470,956,,,,,0,964,,,,,,,,,,,,,,,,,H,139,circle,1,0,,,,,,,,,,,,,,,,switch,number,numSwt,j,0.6325,Hi,,,,,,1,,,,,,,,high,24,0,24,0,1,,,,,,,,,
295615,2022-11-28_16h04.37.034,vts_reward_expectancy_bt,2022.2.4,MacIntel,60.0024001,Chrome,1470,956,,,,,1,965,,,,,,,,,,,,,,,,,D,181,star,1,0,,,,,,,,,,,,,,,,repeat,number,numRpt,k,0.4632,Lo,,,,,,1,,,,,,,,high,25,0,25,0,1,,,,,,,,,
295615,2022-11-28_16h04.37.034,vts_reward_expectancy_bt,2022.2.4,MacIntel,60.0024001,Chrome,1470,956,,,,,1,966,,,,,,,,,,,,,,,,,U,167,triangle,1,0,,,,,,,,,,,,,,,,switch,letter,lettSwt,f,0.5714,Lo,,,,,,1,,,,,,,,high,26,0,26,0,1,,,,,,,,,
295615,2022-11-28_16h04.37.034,vts_reward_expectancy_bt,2022.2.4,MacIntel,60.0024001,Chrome,1470,956,,,,,10,976,,,,,,,,,,,,,,,,,B,132,hexagon,1,0,,,,,,,,,,,,,,,,switch,number,numSwt,j,0.5145,Hi,,,,,,1,,,,,,,,high,27,0,27,0,1,,,,,,,,,
295615,2022-11-28_16h04.37.034,vts_reward_expectancy_bt,2022.2.4,MacIntel,60.0024001,Chrome,1470,956,,,,,1,977,,,,,,,,,,,,,,,,,Y,146,triangle,1,0,,,,,,,,,,,,,,,,switch,letter,lettSwt,f,0.5977,Lo,,,,,,1,,,,,,,,high,28,0,28,0,1,,,,,,,,,
295615,2022-11-28_16h04.37.034,vts_reward_expectancy_bt,2022.2.4,MacIntel,60.0024001,Chrome,1470,956,,,,,10,987,,,,,,,,,,,,,,,,,F,160,hexagon,1,0,,,,,,,,,,,,,,,,switch,number,numSwt,k,0.4979,Hi,,,,,,1,,,,,,,,high,29,0,29,0,1,,,,,,,,,
295615,2022-11-28_16h04.37.034,vts_reward_expectancy_bt,2022.2.4,MacIntel,60.0024001,Chrome,1470,956,,,,,10,997,,,,,,,,,,,,,,,,,S,125,circle,1,0,,,,,,,,,,,,,,,,repeat,number,numRpt,j,0.5516,Hi,,,,,,1,,,,,,,,high,30,0,30,0,1,,,,,,,,,
295615,2022-11-28_16h04.37.034,vts_reward_expectancy_bt,2022.2.4,MacIntel,60.0024001,Chrome,1470,956,,,,,1,998,,,,,,,,,,,,,,,,,W,174,star,1,0,,,,,,,,,,,,,,,,switch,letter,lettSwt,f,0.355,Lo,,,,,,1,,,,,,,,high,31,0,31,0,1,,,,,,,,,
295615,2022-11-28_16h04.37.034,vts_reward_expectancy_bt,2022.2.4,MacIntel,60.0024001,Chrome,1470,956,,,,,10,1008,,,,,,,,,,,,,,,,,U,146,circle,1,0,,,,,,,,,,,,,,,,repeat,letter,lettRpt,f,0.5305,Hi,,,,,,2,,,,,,space,1.6464,high,0,0,0,0,1,,,,,,,,,
295615,2022-11-28_16h04.37.034,vts_reward_expectancy_bt,2022.2.4,MacIntel,60.0024001,Chrome,1470,956,,,,,0,1008,,,,,,,,,,,,,,,,,H,139,triangle,0,0,,,,,,,,,,,,,,,,repeat,letter,NA,f,0.4317,Hi,,,,,,2,,,,,,,,high,1,0,1,0,1,,,,,,,,,
295615,2022-11-28_16h04.37.034,vts_reward_expectancy_bt,2022.2.4,MacIntel,60.0024001,Chrome,1470,956,,,,,10,1018,,,,,,,,,,,,,,,,,W,167,hexagon,1,1,,,,,,,,,,,,,,,,switch,number,numSwt,k,0.433,Hi,,,,,,2,,,,,,,,high,2,0,2,0,1,,,,,,,,,
295615,2022-11-28_16h04.37.034,vts_reward_expectancy_bt,2022.2.4,MacIntel,60.0024001,Chrome,1470,956,,,,,1,1019,,,,,,,,,,,,,,,,,D,174,star,1,0,,,,,,,,,,,,,,,,repeat,number,numRpt,k,0.5959,Lo,,,,,,2,,,,,,,,high,3,0,3,0,1,,,,,,,,,
295615,2022-11-28_16h04.37.034,vts_reward_expectancy_bt,2022.2.4,MacIntel,60.0024001,Chrome,1470,956,,,,,0,1019,,,,,,,,,,,,,,,,,F,181,circle,1,0,,,,,,,,,,,,,,,,switch,letter,lettSwt,d,0.5978,Hi,,,,,,2,,,,,,,,high,4,0,4,0,1,,,,,,,,,
295615,2022-11-28_16h04.37.034,vts_reward_expectancy_bt,2022.2.4,MacIntel,60.0024001,Chrome,1470,956,,,,,1,1020,,,,,,,,,,,,,,,,,S,160,triangle,1,0,,,,,,,,,,,,,,,,repeat,letter,lettRpt,f,0.3862,Lo,,,,,,2,,,,,,,,high,5,0,5,0,1,,,,,,,,,
295615,2022-11-28_16h04.37.034,vts_reward_expectancy_bt,2022.2.4,MacIntel,60.0024001,Chrome,1470,956,,,,,0,1020,,,,,,,,,,,,,,,,,B,125,hexagon,1,0,,,,,,,,,,,,,,,,switch,number,numSwt,j,0.5739,Hi,,,,,,2,,,,,,,,high,6,0,6,0,1,,,,,,,,,
295615,2022-11-28_16h04.37.034,vts_reward_expectancy_bt,2022.2.4,MacIntel,60.0024001,Chrome,1470,956,,,,,1,1021,,,,,,,,,,,,,,,,,Y,132,star,1,0,,,,,,,,,,,,,,,,switch,letter,lettSwt,f,0.7491,Lo,,,,,,2,,,,,,,,high,7,0,7,0,1,,,,,,,,,
295615,2022-11-28_16h04.37.034,vts_reward_expectancy_bt,2022.2.4,MacIntel,60.0024001,Chrome,1470,956,,,,,1,1022,,,,,,,,,,,,,,,,,U,146,star,1,0,,,,,,,,,,,,,,,,switch,number,numSwt,j,1.4465,Lo,,,,,,2,,,,,,,,high,8,0,8,0,1,,,,,,,,,
295615,2022-11-28_16h04.37.034,vts_reward_expectancy_bt,2022.2.4,MacIntel,60.0024001,Chrome,1470,956,,,,,0,1022,,,,,,,,,,,,,,,,,H,139,circle,1,0,,,,,,,,,,,,,,,,switch,letter,lettSwt,d,0.9985,Hi,,,,,,2,,,,,,,,high,9,0,9,0,1,,,,,,,,,
295615,2022-11-28_16h04.37.034,vts_reward_expectancy_bt,2022.2.4,MacIntel,60.0024001,Chrome,1470,956,,,,,10,1032,,,,,,,,,,,,,,,,,W,167,triangle,1,0,,,,,,,,,,,,,,,,switch,number,numSwt,k,0.9141,Lo,,,,,,2,,,,,,,,high,10,0,10,0,1,,,,,,,,,
295615,2022-11-28_16h04.37.034,vts_reward_expectancy_bt,2022.2.4,MacIntel,60.0024001,Chrome,1470,956,,,,,0,1032,,,,,,,,,,,,,,,,,D,174,hexagon,1,0,,,,,,,,,,,,,,,,switch,letter,lettSwt,d,0.5454,Hi,,,,,,2,,,,,,,,high,11,0,11,0,1,,,,,,,,,
295615,2022-11-28_16h04.37.034,vts_reward_expectancy_bt,2022.2.4,MacIntel,60.0024001,Chrome,1470,956,,,,,1,1033,,,,,,,,,,,,,,,,,F,181,triangle,1,0,,,,,,,,,,,,,,,,switch,number,numSwt,k,0.6239,Lo,,,,,,2,,,,,,,,high,12,0,12,0,1,,,,,,,,,
295615,2022-11-28_16h04.37.034,vts_reward_expectancy_bt,2022.2.4,MacIntel,60.0024001,Chrome,1470,956,,,,,0,1033,,,,,,,,,,,,,,,,,S,160,circle,1,0,,,,,,,,,,,,,,,,switch,letter,lettSwt,f,0.7348,Hi,,,,,,2,,,,,,,,high,13,0,13,0,1,,,,,,,,,
295615,2022-11-28_16h04.37.034,vts_reward_expectancy_bt,2022.2.4,MacIntel,60.0024001,Chrome,1470,956,,,,,10,1043,,,,,,,,,,,,,,,,,B,125,star,1,0,,,,,,,,,,,,,,,,switch,number,numSwt,j,0.687,Lo,,,,,,2,,,,,,,,high,14,0,14,0,1,,,,,,,,,
295615,2022-11-28_16h04.37.034,vts_reward_expectancy_bt,2022.2.4,MacIntel,60.0024001,Chrome,1470,956,,,,,0,1043,,,,,,,,,,,,,,,,,Y,132,hexagon,1,0,,,,,,,,,,,,,,,,switch,letter,lettSwt,f,0.5956,Hi,,,,,,2,,,,,,,,high,15,0,15,0,1,,,,,,,,,
295615,2022-11-28_16h04.37.034,vts_reward_expectancy_bt,2022.2.4,MacIntel,60.0024001,Chrome,1470,956,,,,,1,1044,,,,,,,,,,,,,,,,,H,146,triangle,1,0,,,,,,,,,,,,,,,,repeat,letter,lettRpt,d,0.8146,Lo,,,,,,2,,,,,,,,high,16,0,16,0,1,,,,,,,,,
295615,2022-11-28_16h04.37.034,vts_reward_expectancy_bt,2022.2.4,MacIntel,60.0024001,Chrome,1470,956,,,,,0,1044,,,,,,,,,,,,,,,,,W,139,hexagon,1,0,,,,,,,,,,,,,,,,switch,number,numSwt,j,1.0663,Hi,,,,,,2,,,,,,,,high,17,0,17,0,1,,,,,,,,,
295615,2022-11-28_16h04.37.034,vts_reward_expectancy_bt,2022.2.4,MacIntel,60.0024001,Chrome,1470,956,,,,,0,1044,,,,,,,,,,,,,,,,,B,181,circle,1,0,,,,,,,,,,,,,,,,switch,letter,lettSwt,d,0.6323,Hi,,,,,,2,,,,,,,,high,18,0,18,0,1,,,,,,,,,
295615,2022-11-28_16h04.37.034,vts_reward_expectancy_bt,2022.2.4,MacIntel,60.0024001,Chrome,1470,956,,,,,1,1045,,,,,,,,,,,,,,,,,F,174,star,1,0,,,,,,,,,,,,,,,,switch,number,numSwt,k,0.7485,Lo,,,,,,2,,,,,,,,high,19,0,19,0,1,,,,,,,,,
295615,2022-11-28_16h04.37.034,vts_reward_expectancy_bt,2022.2.4,MacIntel,60.0024001,Chrome,1470,956,,,,,0,1045,,,,,,,,,,,,,,,,,D,132,hexagon,1,0,,,,,,,,,,,,,,,,repeat,number,numRpt,j,0.7113,Hi,,,,,,2,,,,,,,,high,20,0,20,0,1,,,,,,,,,
295615,2022-11-28_16h04.37.034,vts_reward_expectancy_bt,2022.2.4,MacIntel,60.0024001,Chrome,1470,956,,,,,1,1046,,,,,,,,,,,,,,,,,S,167,triangle,1,0,,,,,,,,,,,,,,,,repeat,number,numRpt,k,0.6647,Lo,,,,,,2,,,,,,,,high,21,0,21,0,1,,,,,,,,,
295615,2022-11-28_16h04.37.034,vts_reward_expectancy_bt,2022.2.4,MacIntel,60.0024001,Chrome,1470,956,,,,,0,1046,,,,,,,,,,,,,,,,,U,125,circle,1,0,,,,,,,,,,,,,,,,switch,letter,lettSwt,f,0.4852,Hi,,,,,,2,,,,,,,,high,22,0,22,0,1,,,,,,,,,
295615,2022-11-28_16h04.37.034,vts_reward_expectancy_bt,2022.2.4,MacIntel,60.0024001,Chrome,1470,956,,,,,10,1056,,,,,,,,,,,,,,,,,Y,160,star,1,0,,,,,,,,,,,,,,,,repeat,letter,lettRpt,f,0.7399,Lo,,,,,,2,,,,,,,,high,23,0,23,0,1,,,,,,,,,
295615,2022-11-28_16h04.37.034,vts_reward_expectancy_bt,2022.2.4,MacIntel,60.0024001,Chrome,1470,956,,,,,1,1057,,,,,,,,,,,,,,,,,F,139,triangle,1,0,,,,,,,,,,,,,,,,switch,number,numSwt,j,0.5145,Lo,,,,,,2,,,,,,,,high,24,0,24,0,1,,,,,,,,,
295615,2022-11-28_16h04.37.034,vts_reward_expectancy_bt,2022.2.4,MacIntel,60.0024001,Chrome,1470,956,,,,,0,1057,,,,,,,,,,,,,,,,,Y,132,circle,1,0,,,,,,,,,,,,,,,,switch,letter,lettSwt,f,0.5815,Hi,,,,,,2,,,,,,,,high,25,0,25,0,1,,,,,,,,,
295615,2022-11-28_16h04.37.034,vts_reward_expectancy_bt,2022.2.4,MacIntel,60.0024001,Chrome,1470,956,,,,,0,1057,,,,,,,,,,,,,,,,,U,146,star,0,0,,,,,,,,,,,,,,,,switch,number,NA,k,0.4628,Hi,,,,,,2,,,,,,,,high,26,0,26,0,1,,,,,,,,,
295615,2022-11-28_16h04.37.034,vts_reward_expectancy_bt,2022.2.4,MacIntel,60.0024001,Chrome,1470,956,,,,,10,1067,,,,,,,,,,,,,,,,,W,167,hexagon,1,1,,,,,,,,,,,,,,,,switch,letter,lettSwt,f,0.4521,Hi,,,,,,2,,,,,,,,high,27,0,27,0,1,,,,,,,,,
295615,2022-11-28_16h04.37.034,vts_reward_expectancy_bt,2022.2.4,MacIntel,60.0024001,Chrome,1470,956,,,,,1,1068,,,,,,,,,,,,,,,,,B,125,hexagon,1,0,,,,,,,,,,,,,,,,repeat,letter,lettRpt,d,0.3457,Hi,,,,,,2,,,,,,,,high,28,0,28,0,1,,,,,,,,,
295615,2022-11-28_16h04.37.034,vts_reward_expectancy_bt,2022.2.4,MacIntel,60.0024001,Chrome,1470,956,,,,,1,1069,,,,,,,,,,,,,,,,,H,174,star,1,0,,,,,,,,,,,,,,,,switch,number,numSwt,k,0.7483,Lo,,,,,,2,,,,,,,,high,29,0,29,0,1,,,,,,,,,
295615,2022-11-28_16h04.37.034,vts_reward_expectancy_bt,2022.2.4,MacIntel,60.0024001,Chrome,1470,956,,,,,1,1070,,,,,,,,,,,,,,,,,D,181,triangle,1,0,,,,,,,,,,,,,,,,switch,letter,lettSwt,d,0.4548,Lo,,,,,,2,,,,,,,,high,30,0,30,0,1,,,,,,,,,
295615,2022-11-28_16h04.37.034,vts_reward_expectancy_bt,2022.2.4,MacIntel,60.0024001,Chrome,1470,956,,,,,10,1080,,,,,,,,,,,,,,,,,S,160,circle,1,0,,,,,,,,,,,,,,,,repeat,letter,lettRpt,f,0.5212,Hi,,,,,,2,,,,,,,,high,31,0,31,0,1,,,,,,,,,
295615,2022-11-28_16h04.37.034,vts_reward_expectancy_bt,2022.2.4,MacIntel,60.0024001,Chrome,1470,956,,,,,0,1080,,,,,,,,,,,,,,,,,D,181,circle,1,0,,,,,,,,,,,,,,,,repeat,letter,lettRpt,d,0.6554,Hi,,,,,,3,,,,,,space,56.0755,high,0,0,0,0,1,,,,,,,,,
295615,2022-11-28_16h04.37.034,vts_reward_expectancy_bt,2022.2.4,MacIntel,60.0024001,Chrome,1470,956,,,,,1,1081,,,,,,,,,,,,,,,,,F,132,star,1,0,,,,,,,,,,,,,,,,switch,number,numSwt,j,0.6355,Lo,,,,,,3,,,,,,,,high,1,0,1,0,1,,,,,,,,,
295615,2022-11-28_16h04.37.034,vts_reward_expectancy_bt,2022.2.4,MacIntel,60.0024001,Chrome,1470,956,,,,,1,1082,,,,,,,,,,,,,,,,,U,139,triangle,1,0,,,,,,,,,,,,,,,,switch,letter,lettSwt,f,0.4659,Lo,,,,,,3,,,,,,,,high,2,0,2,0,1,,,,,,,,,
295615,2022-11-28_16h04.37.034,vts_reward_expectancy_bt,2022.2.4,MacIntel,60.0024001,Chrome,1470,956,,,,,10,1092,,,,,,,,,,,,,,,,,H,160,hexagon,1,0,,,,,,,,,,,,,,,,switch,number,numSwt,k,0.4777,Hi,,,,,,3,,,,,,,,high,3,0,3,0,1,,,,,,,,,
295615,2022-11-28_16h04.37.034,vts_reward_expectancy_bt,2022.2.4,MacIntel,60.0024001,Chrome,1470,956,,,,,1,1093,,,,,,,,,,,,,,,,,Y,174,circle,1,0,,,,,,,,,,,,,,,,switch,letter,lettSwt,f,0.4314,Hi,,,,,,3,,,,,,,,high,4,0,4,0,1,,,,,,,,,
295615,2022-11-28_16h04.37.034,vts_reward_expectancy_bt,2022.2.4,MacIntel,60.0024001,Chrome,1470,956,,,,,1,1094,,,,,,,,,,,,,,,,,S,167,star,1,0,,,,,,,,,,,,,,,,switch,number,numSwt,k,0.4984,Lo,,,,,,3,,,,,,,,high,5,0,5,0,1,,,,,,,,,
295615,2022-11-28_16h04.37.034,vts_reward_expectancy_bt,2022.2.4,MacIntel,60.0024001,Chrome,1470,956,,,,,1,1095,,,,,,,,,,,,,,,,,B,125,triangle,1,0,,,,,,,,,,,,,,,,switch,letter,lettSwt,d,0.5151,Lo,,,,,,3,,,,,,,,high,6,0,6,0,1,,,,,,,,,
295615,2022-11-28_16h04.37.034,vts_reward_expectancy_bt,2022.2.4,MacIntel,60.0024001,Chrome,1470,956,,,,,1,1096,,,,,,,,,,,,,,,,,W,146,hexagon,1,0,,,,,,,,,,,,,,,,repeat,letter,lettRpt,f,0.4654,Hi,,,,,,3,,,,,,,,high,7,0,7,0,1,,,,,,,,,
295615,2022-11-28_16h04.37.034,vts_reward_expectancy_bt,2022.2.4,MacIntel,60.0024001,Chrome,1470,956,,,,,0,1096,,,,,,,,,,,,,,,,,D,181,circle,0,0,,,,,,,,,,,,,,,,repeat,letter,NA,f,0.5305,Hi,,,,,,3,,,,,,,,high,8,0,8,0,1,,,,,,,,,
295615,2022-11-28_16h04.37.034,vts_reward_expectancy_bt,2022.2.4,MacIntel,60.0024001,Chrome,1470,956,,,,,1,1097,,,,,,,,,,,,,,,,,F,132,triangle,1,1,,,,,,,,,,,,,,,,repeat,letter,lettRpt,d,0.6964,Lo,,,,,,3,,,,,,,,high,9,0,9,0,1,,,,,,,,,
295615,2022-11-28_16h04.37.034,vts_reward_expectancy_bt,2022.2.4,MacIntel,60.0024001,Chrome,1470,956,,,,,1,1098,,,,,,,,,,,,,,,,,U,139,star,1,0,,,,,,,,,,,,,,,,switch,number,numSwt,j,0.6617,Lo,,,,,,3,,,,,,,,high,10,0,10,0,1,,,,,,,,,
295615,2022-11-28_16h04.37.034,vts_reward_expectancy_bt,2022.2.4,MacIntel,60.0024001,Chrome,1470,956,,,,,0,1098,,,,,,,,,,,,,,,,,H,160,hexagon,1,0,,,,,,,,,,,,,,,,switch,letter,lettSwt,d,0.581,Hi,,,,,,3,,,,,,,,high,11,0,11,0,1,,,,,,,,,
295615,2022-11-28_16h04.37.034,vts_reward_expectancy_bt,2022.2.4,MacIntel,60.0024001,Chrome,1470,956,,,,,1,1099,,,,,,,,,,,,,,,,,Y,174,triangle,1,0,,,,,,,,,,,,,,,,repeat,letter,lettRpt,f,0.4185,Lo,,,,,,3,,,,,,,,high,12,0,12,0,1,,,,,,,,,
295615,2022-11-28_16h04.37.034,vts_reward_expectancy_bt,2022.2.4,MacIntel,60.0024001,Chrome,1470,956,,,,,0,1099,,,,,,,,,,,,,,,,,S,167,circle,1,0,,,,,,,,,,,,,,,,repeat,letter,lettRpt,f,0.5812,Hi,,,,,,3,,,,,,,,high,13,0,13,0,1,,,,,,,,,
295615,2022-11-28_16h04.37.034,vts_reward_expectancy_bt,2022.2.4,MacIntel,60.0024001,Chrome,1470,956,,,,,10,1109,,,,,,,,,,,,,,,,,B,125,star,1,0,,,,,,,,,,,,,,,,switch,number,numSwt,j,0.4292,Lo,,,,,,3,,,,,,,,high,14,0,14,0,1,,,,,,,,,
295615,2022-11-28_16h04.37.034,vts_reward_expectancy_bt,2022.2.4,MacIntel,60.0024001,Chrome,1470,956,,,,,10,1119,,,,,,,,,,,,,,,,,W,146,hexagon,1,0,,,,,,,,,,,,,,,,switch,letter,lettSwt,f,0.4708,Hi,,,,,,3,,,,,,,,high,15,0,15,0,1,,,,,,,,,
295615,2022-11-28_16h04.37.034,vts_reward_expectancy_bt,2022.2.4,MacIntel,60.0024001,Chrome,1470,956,,,,,0,1119,,,,,,,,,,,,,,,,,S,139,hexagon,0,0,,,,,,,,,,,,,,,,switch,number,NA,k,0.6294,Hi,,,,,,3,,,,,,,,high,16,0,16,0,1,,,,,,,,,
295615,2022-11-28_16h04.37.034,vts_reward_expectancy_bt,2022.2.4,MacIntel,60.0024001,Chrome,1470,956,,,,,1,1120,,,,,,,,,,,,,,,,,U,167,triangle,1,1,,,,,,,,,,,,,,,,switch,letter,lettSwt,f,0.434,Lo,,,,,,3,,,,,,,,high,17,0,17,0,1,,,,,,,,,
295615,2022-11-28_16h04.37.034,vts_reward_expectancy_bt,2022.2.4,MacIntel,60.0024001,Chrome,1470,956,,,,,1,1121,,,,,,,,,,,,,,,,,H,174,circle,1,0,,,,,,,,,,,,,,,,switch,number,numSwt,k,0.5817,Hi,,,,,,3,,,,,,,,high,18,0,18,0,1,,,,,,,,,
295615,2022-11-28_16h04.37.034,vts_reward_expectancy_bt,2022.2.4,MacIntel,60.0024001,Chrome,1470,956,,,,,1,1122,,,,,,,,,,,,,,,,,Y,132,star,1,0,,,,,,,,,,,,,,,,repeat,number,numRpt,j,0.3464,Lo,,,,,,3,,,,,,,,high,19,0,19,0,1,,,,,,,,,
295615,2022-11-28_16h04.37.034,vts_reward_expectancy_bt,2022.2.4,MacIntel,60.0024001,Chrome,1470,956,,,,,1,1123,,,,,,,,,,,,,,,,,F,125,triangle,1,0,,,,,,,,,,,,,,,,switch,letter,lettSwt,d,0.4292,Lo,,,,,,3,,,,,,,,high,20,0,20,0,1,,,,,,,,,
295615,2022-11-28_16h04.37.034,vts_reward_expectancy_bt,2022.2.4,MacIntel,60.0024001,Chrome,1470,956,,,,,10,1133,,,,,,,,,,,,,,,,,W,146,circle,1,0,,,,,,,,,,,,,,,,repeat,letter,lettRpt,f,0.3694,Hi,,,,,,3,,,,,,,,high,21,0,21,0,1,,,,,,,,,
295615,2022-11-28_16h04.37.034,vts_reward_expectancy_bt,2022.2.4,MacIntel,60.0024001,Chrome,1470,956,,,,,0,1133,,,,,,,,,,,,,,,,,B,160,hexagon,1,0,,,,,,,,,,,,,,,,switch,number,numSwt,k,0.7153,Hi,,,,,,3,,,,,,,,high,22,0,22,0,1,,,,,,,,,
295615,2022-11-28_16h04.37.034,vts_reward_expectancy_bt,2022.2.4,MacIntel,60.0024001,Chrome,1470,956,,,,,10,1143,,,,,,,,,,,,,,,,,D,181,star,1,0,,,,,,,,,,,,,,,,switch,letter,lettSwt,d,0.5477,Lo,,,,,,3,,,,,,,,high,23,0,23,0,1,,,,,,,,,
295615,2022-11-28_16h04.37.034,vts_reward_expectancy_bt,2022.2.4,MacIntel,60.0024001,Chrome,1470,956,,,,,10,1153,,,,,,,,,,,,,,,,,U,160,hexagon,1,0,,,,,,,,,,,,,,,,switch,number,numSwt,k,0.5122,Hi,,,,,,3,,,,,,,,high,24,0,24,0,1,,,,,,,,,
295615,2022-11-28_16h04.37.034,vts_reward_expectancy_bt,2022.2.4,MacIntel,60.0024001,Chrome,1470,956,,,,,1,1154,,,,,,,,,,,,,,,,,S,125,star,1,0,,,,,,,,,,,,,,,,switch,letter,lettSwt,f,0.6164,Lo,,,,,,3,,,,,,,,high,25,0,25,0,1,,,,,,,,,
295615,2022-11-28_16h04.37.034,vts_reward_expectancy_bt,2022.2.4,MacIntel,60.0024001,Chrome,1470,956,,,,,0,1154,,,,,,,,,,,,,,,,,D,167,circle,1,0,,,,,,,,,,,,,,,,repeat,letter,lettRpt,d,0.4808,Hi,,,,,,3,,,,,,,,high,26,0,26,0,1,,,,,,,,,
295615,2022-11-28_16h04.37.034,vts_reward_expectancy_bt,2022.2.4,MacIntel,60.0024001,Chrome,1470,956,,,,,10,1164,,,,,,,,,,,,,,,,,H,146,triangle,1,0,,,,,,,,,,,,,,,,repeat,letter,lettRpt,d,0.5059,Lo,,,,,,3,,,,,,,,high,27,0,27,0,1,,,,,,,,,
295615,2022-11-28_16h04.37.034,vts_reward_expectancy_bt,2022.2.4,MacIntel,60.0024001,Chrome,1470,956,,,,,0,1164,,,,,,,,,,,,,,,,,F,139,circle,1,0,,,,,,,,,,,,,,,,switch,number,numSwt,j,0.6315,Hi,,,,,,3,,,,,,,,high,28,0,28,0,1,,,,,,,,,
295615,2022-11-28_16h04.37.034,vts_reward_expectancy_bt,2022.2.4,MacIntel,60.0024001,Chrome,1470,956,,,,,10,1174,,,,,,,,,,,,,,,,,W,181,triangle,1,0,,,,,,,,,,,,,,,,switch,letter,lettSwt,f,0.4709,Lo,,,,,,3,,,,,,,,high,29,0,29,0,1,,,,,,,,,
295615,2022-11-28_16h04.37.034,vts_reward_expectancy_bt,2022.2.4,MacIntel,60.0024001,Chrome,1470,956,,,,,0,1174,,,,,,,,,,,,,,,,,Y,174,hexagon,1,0,,,,,,,,,,,,,,,,switch,number,numSwt,k,1.1467,Hi,,,,,,3,,,,,,,,high,30,0,30,0,1,,,,,,,,,
295615,2022-11-28_16h04.37.034,vts_reward_expectancy_bt,2022.2.4,MacIntel,60.0024001,Chrome,1470,956,,,,,10,1184,,,,,,,,,,,,,,,,,B,132,star,1,0,,,,,,,,,,,,,,,,switch,letter,lettSwt,d,0.4634,Lo,,,,,,3,,,,,,,,high,31,0,31,0,1,,,,,,,,,
295615,2022-11-28_16h04.37.034,vts_reward_expectancy_bt,2022.2.4,MacIntel,60.0024001,Chrome,1470,956,,,,,1,1185,,,,,,,,,,,,,,,,,U,160,star,1,0,,,,,,,,,,,,,,,,repeat,letter,lettRpt,f,0.6317,Lo,,,,,,4,,,,,,space,3.8471,high,0,0,0,0,1,,,,,,,,,
295615,2022-11-28_16h04.37.034,vts_reward_expectancy_bt,2022.2.4,MacIntel,60.0024001,Chrome,1470,956,,,,,0,1185,,,,,,,,,,,,,,,,,B,139,circle,0,0,,,,,,,,,,,,,,,,repeat,letter,NA,f,0.3811,Lo,,,,,,4,,,,,,,,high,1,0,1,0,1,,,,,,,,,
295615,2022-11-28_16h04.37.034,vts_reward_expectancy_bt,2022.2.4,MacIntel,60.0024001,Chrome,1470,956,,,,,0,1185,,,,,,,,,,,,,,,,,Y,167,hexagon,1,1,,,,,,,,,,,,,,,,switch,number,numSwt,k,0.6203,Hi,,,,,,4,,,,,,,,high,2,0,2,0,1,,,,,,,,,
295615,2022-11-28_16h04.37.034,vts_reward_expectancy_bt,2022.2.4,MacIntel,60.0024001,Chrome,1470,956,,,,,1,1186,,,,,,,,,,,,,,,,,D,146,triangle,1,0,,,,,,,,,,,,,,,,repeat,number,numRpt,j,0.5031,Lo,,,,,,4,,,,,,,,high,3,0,3,0,1,,,,,,,,,
295615,2022-11-28_16h04.37.034,vts_reward_expectancy_bt,2022.2.4,MacIntel,60.0024001,Chrome,1470,956,,,,,1,1187,,,,,,,,,,,,,,,,,F,181,star,1,0,,,,,,,,,,,,,,,,repeat,number,numRpt,k,0.3812,Lo,,,,,,4,,,,,,,,high,4,0,4,0,1,,,,,,,,,
295615,2022-11-28_16h04.37.034,vts_reward_expectancy_bt,2022.2.4,MacIntel,60.0024001,Chrome,1470,956,,,,,10,1197,,,,,,,,,,,,,,,,,S,125,circle,1,0,,,,,,,,,,,,,,,,switch,letter,lettSwt,f,0.3711,Hi,,,,,,4,,,,,,,,high,5,0,5,0,1,,,,,,,,,
295615,2022-11-28_16h04.37.034,vts_reward_expectancy_bt,2022.2.4,MacIntel,60.0024001,Chrome,1470,956,,,,,10,1207,,,,,,,,,,,,,,,,,W,174,hexagon,1,0,,,,,,,,,,,,,,,,switch,number,numSwt,k,0.4962,Hi,,,,,,4,,,,,,,,high,6,0,6,0,1,,,,,,,,,
295615,2022-11-28_16h04.37.034,vts_reward_expectancy_bt,2022.2.4,MacIntel,60.0024001,Chrome,1470,956,,,,,1,1208,,,,,,,,,,,,,,,,,H,132,triangle,1,0,,,,,,,,,,,,,,,,repeat,number,numRpt,j,0.3288,Lo,,,,,,4,,,,,,,,high,7,0,7,0,1,,,,,,,,,
295615,2022-11-28_16h04.37.034,vts_reward_expectancy_bt,2022.2.4,MacIntel,60.0024001,Chrome,1470,956,,,,,0,1208,,,,,,,,,,,,,,,,,U,160,hexagon,1,0,,,,,,,,,,,,,,,,repeat,number,numRpt,k,0.4726,Hi,,,,,,4,,,,,,,,high,8,0,8,0,1,,,,,,,,,
295615,2022-11-28_16h04.37.034,vts_reward_expectancy_bt,2022.2.4,MacIntel,60.0024001,Chrome,1470,956,,,,,0,1208,,,,,,,,,,,,,,,,,B,139,triangle,0,0,,,,,,,,,,,,,,,,switch,letter,NA,f,0.4302,Hi,,,,,,4,,,,,,,,high,9,0,9,0,1,,,,,,,,,
295615,2022-11-28_16h04.37.034,vts_reward_expectancy_bt,2022.2.4,MacIntel,60.0024001,Chrome,1470,956,,,,,10,1218,,,,,,,,,,,,,,,,,Y,167,circle,1,1,,,,,,,,,,,,,,,,repeat,letter,lettRpt,f,0.4331,Hi,,,,,,4,,,,,,,,high,10,0,10,0,1,,,,,,,,,
295615,2022-11-28_16h04.37.034,vts_reward_expectancy_bt,2022.2.4,MacIntel,60.0024001,Chrome,1470,956,,,,,1,1219,,,,,,,,,,,,,,,,,D,146,star,1,0,,,,,,,,,,,,,,,,switch,number,numSwt,j,0.3628,Lo,,,,,,4,,,,,,,,high,11,0,11,0,1,,,,,,,,,
295615,2022-11-28_16h04.37.034,vts_reward_expectancy_bt,2022.2.4,MacIntel,60.0024001,Chrome,1470,956,,,,,10,1229,,,,,,,,,,,,,,,,,F,181,circle,1,0,,,,,,,,,,,,,,,,switch,letter,lettSwt,d,0.4557,Hi,,,,,,4,,,,,,,,high,12,0,12,0,1,,,,,,,,,
295615,2022-11-28_16h04.37.034,vts_reward_expectancy_bt,2022.2.4,MacIntel,60.0024001,Chrome,1470,956,,,,,10,1239,,,,,,,,,,,,,,,,,S,125,hexagon,1,0,,,,,,,,,,,,,,,,switch,number,numSwt,j,0.4024,Hi,,,,,,4,,,,,,,,high,13,0,13,0,1,,,,,,,,,
295615,2022-11-28_16h04.37.034,vts_reward_expectancy_bt,2022.2.4,MacIntel,60.0024001,Chrome,1470,956,,,,,1,1240,,,,,,,,,,,,,,,,,W,174,star,1,0,,,,,,,,,,,,,,,,repeat,number,numRpt,k,0.3186,Lo,,,,,,4,,,,,,,,high,14,0,14,0,1,,,,,,,,,
295615,2022-11-28_16h04.37.034,vts_reward_expectancy_bt,2022.2.4,MacIntel,60.0024001,Chrome,1470,956,,,,,1,1241,,,,,,,,,,,,,,,,,H,132,triangle,1,0,,,,,,,,,,,,,,,,switch,letter,lettSwt,d,0.3464,Lo,,,,,,4,,,,,,,,high,15,0,15,0,1,,,,,,,,,
295615,2022-11-28_16h04.37.034,vts_reward_expectancy_bt,2022.2.4,MacIntel,60.0024001,Chrome,1470,956,,,,,1,1242,,,,,,,,,,,,,,,,,B,181,triangle,1,0,,,,,,,,,,,,,,,,switch,number,numSwt,k,0.454,Lo,,,,,,4,,,,,,,,high,16,0,16,0,1,,,,,,,,,
295615,2022-11-28_16h04.37.034,vts_reward_expectancy_bt,2022.2.4,MacIntel,60.0024001,Chrome,1470,956,,,,,0,1242,,,,,,,,,,,,,,,,,H,160,circle,0,0,,,,,,,,,,,,,,,,switch,letter,NA,f,0.3146,Lo,,,,,,4,,,,,,,,high,17,0,17,0,1,,,,,,,,,
295615,2022-11-28_16h04.37.034,vts_reward_expectancy_bt,2022.2.4,MacIntel,60.0024001,Chrome,1470,956,,,,,1,1243,,,,,,,,,,,,,,,,,W,125,star,1,1,,,,,,,,,,,,,,,,switch,number,numSwt,j,0.2818,Lo,,,,,,4,,,,,,,,high,18,0,18,0,1,,,,,,,,,
295615,2022-11-28_16h04.37.034,vts_reward_expectancy_bt,2022.2.4,MacIntel,60.0024001,Chrome,1470,956,,,,,1,1244,,,,,,,,,,,,,,,,,D,132,hexagon,1,0,,,,,,,,,,,,,,,,switch,letter,lettSwt,d,0.4301,Hi,,,,,,4,,,,,,,,high,19,0,19,0,1,,,,,,,,,
295615,2022-11-28_16h04.37.034,vts_reward_expectancy_bt,2022.2.4,MacIntel,60.0024001,Chrome,1470,956,,,,,0,1244,,,,,,,,,,,,,,,,,F,139,hexagon,0,0,,,,,,,,,,,,,,,,repeat,letter,NA,f,0.6292,Hi,,,,,,4,,,,,,,,high,20,0,20,0,1,,,,,,,,,
295615,2022-11-28_16h04.37.034,vts_reward_expectancy_bt,2022.2.4,MacIntel,60.0024001,Chrome,1470,956,,,,,1,1245,,,,,,,,,,,,,,,,,U,174,star,1,1,,,,,,,,,,,,,,,,repeat,letter,lettRpt,f,0.4131,Lo,,,,,,4,,,,,,,,high,21,0,21,0,1,,,,,,,,,
295615,2022-11-28_16h04.37.034,vts_reward_expectancy_bt,2022.2.4,MacIntel,60.0024001,Chrome,1470,956,,,,,0,1245,,,,,,,,,,,,,,,,,S,146,circle,0,0,,,,,,,,,,,,,,,,repeat,letter,NA,d,0.3669,Lo,,,,,,4,,,,,,,,high,22,0,22,0,1,,,,,,,,,
295615,2022-11-28_16h04.37.034,vts_reward_expectancy_bt,2022.2.4,MacIntel,60.0024001,Chrome,1470,956,,,,,1,1246,,,,,,,,,,,,,,,,,Y,167,triangle,1,1,,,,,,,,,,,,,,,,repeat,letter,lettRpt,f,0.5054,Lo,,,,,,4,,,,,,,,high,23,0,23,0,1,,,,,,,,,
295615,2022-11-28_16h04.37.034,vts_reward_expectancy_bt,2022.2.4,MacIntel,60.0024001,Chrome,1470,956,,,,,0,1246,,,,,,,,,,,,,,,,,S,167,circle,1,0,,,,,,,,,,,,,,,,repeat,letter,lettRpt,f,0.5996,Hi,,,,,,4,,,,,,,,high,24,0,24,0,1,,,,,,,,,
295615,2022-11-28_16h04.37.034,vts_reward_expectancy_bt,2022.2.4,MacIntel,60.0024001,Chrome,1470,956,,,,,1,1247,,,,,,,,,,,,,,,,,Y,125,star,1,0,,,,,,,,,,,,,,,,switch,number,numSwt,j,0.4965,Lo,,,,,,4,,,,,,,,high,25,0,25,0,1,,,,,,,,,
295615,2022-11-28_16h04.37.034,vts_reward_expectancy_bt,2022.2.4,MacIntel,60.0024001,Chrome,1470,956,,,,,1,1248,,,,,,,,,,,,,,,,,D,160,triangle,1,0,,,,,,,,,,,,,,,,switch,letter,lettSwt,d,0.4804,Lo,,,,,,4,,,,,,,,high,26,0,26,0,1,,,,,,,,,
295615,2022-11-28_16h04.37.034,vts_reward_expectancy_bt,2022.2.4,MacIntel,60.0024001,Chrome,1470,956,,,,,1,1249,,,,,,,,,,,,,,,,,B,174,hexagon,1,0,,,,,,,,,,,,,,,,switch,number,numSwt,k,0.48,Hi,,,,,,4,,,,,,,,high,27,0,27,0,1,,,,,,,,,
295615,2022-11-28_16h04.37.034,vts_reward_expectancy_bt,2022.2.4,MacIntel,60.0024001,Chrome,1470,956,,,,,0,1249,,,,,,,,,,,,,,,,,U,139,circle,1,0,,,,,,,,,,,,,,,,switch,letter,lettSwt,f,0.4814,Hi,,,,,,4,,,,,,,,high,28,0,28,0,1,,,,,,,,,
295615,2022-11-28_16h04.37.034,vts_reward_expectancy_bt,2022.2.4,MacIntel,60.0024001,Chrome,1470,956,,,,,0,1249,,,,,,,,,,,,,,,,,W,132,hexagon,1,0,,,,,,,,,,,,,,,,repeat,letter,lettRpt,f,0.682,Hi,,,,,,4,,,,,,,,high,29,0,29,0,1,,,,,,,,,
295615,2022-11-28_16h04.37.034,vts_reward_expectancy_bt,2022.2.4,MacIntel,60.0024001,Chrome,1470,956,,,,,10,1259,,,,,,,,,,,,,,,,,H,181,triangle,1,0,,,,,,,,,,,,,,,,switch,number,numSwt,k,0.5132,Lo,,,,,,4,,,,,,,,high,30,0,30,0,1,,,,,,,,,
295615,2022-11-28_16h04.37.034,vts_reward_expectancy_bt,2022.2.4,MacIntel,60.0024001,Chrome,1470,956,,,,,0,1259,,,,,,,,,,,,,,,,,F,146,star,0,0,,,,,,,,,,,,,,,,switch,letter,NA,f,0.4492,Lo,,,,,,4,,,,,,,,high,31,0,31,0,1,,,,,,,,,
295615,2022-11-28_16h04.37.034,vts_reward_expectancy_bt,2022.2.4,MacIntel,60.0024001,Chrome,1470,956,,,,,1,1260,,,,,,,,,,,,,,,,,F,174,triangle,1,1,,,,,,,,,,,,,,,,repeat,letter,lettRpt,d,0.4549,Lo,,,,,,5,,,,,,space,1.0926,high,0,0,0,0,1,,,,,,,,,
295615,2022-11-28_16h04.37.034,vts_reward_expectancy_bt,2022.2.4,MacIntel,60.0024001,Chrome,1470,956,,,,,1,1261,,,,,,,,,,,,,,,,,U,181,star,1,0,,,,,,,,,,,,,,,,switch,number,numSwt,k,0.3808,Lo,,,,,,5,,,,,,,,high,1,0,1,0,1,,,,,,,,,
295615,2022-11-28_16h04.37.034,vts_reward_expectancy_bt,2022.2.4,MacIntel,60.0024001,Chrome,1470,956,,,,,0,1261,,,,,,,,,,,,,,,,,Y,146,circle,1,0,,,,,,,,,,,,,,,,switch,letter,lettSwt,f,0.4963,Hi,,,,,,5,,,,,,,,high,2,0,2,0,1,,,,,,,,,
295615,2022-11-28_16h04.37.034,vts_reward_expectancy_bt,2022.2.4,MacIntel,60.0024001,Chrome,1470,956,,,,,0,1261,,,,,,,,,,,,,,,,,W,139,hexagon,1,0,,,,,,,,,,,,,,,,repeat,letter,lettRpt,f,0.5637,Hi,,,,,,5,,,,,,,,high,3,0,3,0,1,,,,,,,,,
295615,2022-11-28_16h04.37.034,vts_reward_expectancy_bt,2022.2.4,MacIntel,60.0024001,Chrome,1470,956,,,,,1,1262,,,,,,,,,,,,,,,,,H,125,triangle,1,0,,,,,,,,,,,,,,,,switch,number,numSwt,j,0.3982,Lo,,,,,,5,,,,,,,,high,4,0,4,0,1,,,,,,,,,
295615,2022-11-28_16h04.37.034,vts_reward_expectancy_bt,2022.2.4,MacIntel,60.0024001,Chrome,1470,956,,,,,1,1263,,,,,,,,,,,,,,,,,B,167,star,1,0,,,,,,,,,,,,,,,,switch,letter,lettSwt,d,0.4171,Lo,,,,,,5,,,,,,,,high,5,0,5,0,1,,,,,,,,,
295615,2022-11-28_16h04.37.034,vts_reward_expectancy_bt,2022.2.4,MacIntel,60.0024001,Chrome,1470,956,,,,,10,1273,,,,,,,,,,,,,,,,,D,132,circle,1,0,,,,,,,,,,,,,,,,repeat,letter,lettRpt,d,0.4625,Hi,,,,,,5,,,,,,,,high,6,0,6,0,1,,,,,,,,,
295615,2022-11-28_16h04.37.034,vts_reward_expectancy_bt,2022.2.4,MacIntel,60.0024001,Chrome,1470,956,,,,,10,1283,,,,,,,,,,,,,,,,,S,160,hexagon,1,0,,,,,,,,,,,,,,,,switch,number,numSwt,k,0.4316,Hi,,,,,,5,,,,,,,,high,7,0,7,0,1,,,,,,,,,
295615,2022-11-28_16h04.37.034,vts_reward_expectancy_bt,2022.2.4,MacIntel,60.0024001,Chrome,1470,956,,,,,0,1283,,,,,,,,,,,,,,,,,F,174,circle,1,0,,,,,,,,,,,,,,,,switch,letter,lettSwt,d,0.6003,Hi,,,,,,5,,,,,,,,high,8,0,8,0,1,,,,,,,,,
295615,2022-11-28_16h04.37.034,vts_reward_expectancy_bt,2022.2.4,MacIntel,60.0024001,Chrome,1470,956,,,,,1,1284,,,,,,,,,,,,,,,,,U,181,triangle,1,0,,,,,,,,,,,,,,,,repeat,letter,lettRpt,f,0.6971,Lo,,,,,,5,,,,,,,,high,9,0,9,0,1,,,,,,,,,
295615,2022-11-28_16h04.37.034,vts_reward_expectancy_bt,2022.2.4,MacIntel,60.0024001,Chrome,1470,956,,,,,1,1285,,,,,,,,,,,,,,,,,Y,146,star,1,0,,,,,,,,,,,,,,,,switch,number,numSwt,j,0.5573,Lo,,,,,,5,,,,,,,,high,10,0,10,0,1,,,,,,,,,
295615,2022-11-28_16h04.37.034,vts_reward_expectancy_bt,2022.2.4,MacIntel,60.0024001,Chrome,1470,956,,,,,0,1285,,,,,,,,,,,,,,,,,W,139,hexagon,1,0,,,,,,,,,,,,,,,,switch,letter,lettSwt,f,0.496,Hi,,,,,,5,,,,,,,,high,11,0,11,0,1,,,,,,,,,
295615,2022-11-28_16h04.37.034,vts_reward_expectancy_bt,2022.2.4,MacIntel,60.0024001,Chrome,1470,956,,,,,10,1295,,,,,,,,,,,,,,,,,H,125,circle,1,0,,,,,,,,,,,,,,,,repeat,letter,lettRpt,d,0.3471,Hi,,,,,,5,,,,,,,,high,12,0,12,0,1,,,,,,,,,
295615,2022-11-28_16h04.37.034,vts_reward_expectancy_bt,2022.2.4,MacIntel,60.0024001,Chrome,1470,956,,,,,0,1295,,,,,,,,,,,,,,,,,B,167,hexagon,1,0,,,,,,,,,,,,,,,,switch,number,numSwt,k,0.4583,Hi,,,,,,5,,,,,,,,high,13,0,13,0,1,,,,,,,,,
295615,2022-11-28_16h04.37.034,vts_reward_expectancy_bt,2022.2.4,MacIntel,60.0024001,Chrome,1470,956,,,,,1,1296,,,,,,,,,,,,,,,,,D,132,star,1,0,,,,,,,,,,,,,,,,switch,letter,lettSwt,d,0.5495,Lo,,,,,,5,,,,,,,,high,14,0,14,0,1,,,,,,,,,
295615,2022-11-28_16h04.37.034,vts_reward_expectancy_bt,2022.2.4,MacIntel,60.0024001,Chrome,1470,956,,,,,10,1306,,,,,,,,,,,,,,,,,S,160,triangle,1,0,,,,,,,,,,,,,,,,switch,number,numSwt,k,0.5536,Lo,,,,,,5,,,,,,,,high,15,0,15,0,1,,,,,,,,,
295615,2022-11-28_16h04.37.034,vts_reward_expectancy_bt,2022.2.4,MacIntel,60.0024001,Chrome,1470,956,,,,,1,1307,,,,,,,,,,,,,,,,,H,132,star,1,0,,,,,,,,,,,,,,,,switch,letter,lettSwt,d,0.6227,Lo,,,,,,5,,,,,,,,high,16,0,16,0,1,,,,,,,,,
295615,2022-11-28_16h04.37.034,vts_reward_expectancy_bt,2022.2.4,MacIntel,60.0024001,Chrome,1470,956,,,,,10,1317,,,,,,,,,,,,,,,,,U,174,circle,1,0,,,,,,,,,,,,,,,,repeat,letter,lettRpt,f,0.3797,Hi,,,,,,5,,,,,,,,high,17,0,17,0,1,,,,,,,,,
295615,2022-11-28_16h04.37.034,vts_reward_expectancy_bt,2022.2.4,MacIntel,60.0024001,Chrome,1470,956,,,,,1,1318,,,,,,,,,,,,,,,,,D,146,triangle,1,0,,,,,,,,,,,,,,,,repeat,letter,lettRpt,d,0.6369,Lo,,,,,,5,,,,,,,,high,18,0,18,0,1,,,,,,,,,
295615,2022-11-28_16h04.37.034,vts_reward_expectancy_bt,2022.2.4,MacIntel,60.0024001,Chrome,1470,956,,,,,0,1318,,,,,,,,,,,,,,,,,S,167,hexagon,1,0,,,,,,,,,,,,,,,,switch,number,numSwt,k,0.6148,Hi,,,,,,5,,,,,,,,high,19,0,19,0,1,,,,,,,,,
295615,2022-11-28_16h04.37.034,vts_reward_expectancy_bt,2022.2.4,MacIntel,60.0024001,Chrome,1470,956,,,,,10,1328,,,,,,,,,,,,,,,,,Y,181,star,1,0,,,,,,,,,,,,,,,,switch,letter,lettSwt,f,0.5898,Lo,,,,,,5,,,,,,,,high,20,0,20,0,1,,,,,,,,,
295615,2022-11-28_16h04.37.034,vts_reward_expectancy_bt,2022.2.4,MacIntel,60.0024001,Chrome,1470,956,,,,,10,1338,,,,,,,,,,,,,,,,,B,125,circle,1,0,,,,,,,,,,,,,,,,repeat,letter,lettRpt,d,0.3393,Hi,,,,,,5,,,,,,,,high,21,0,21,0,1,,,,,,,,,
295615,2022-11-28_16h04.37.034,vts_reward_expectancy_bt,2022.2.4,MacIntel,60.0024001,Chrome,1470,956,,,,,0,1338,,,,,,,,,,,,,,,,,W,139,triangle,0,0,,,,,,,,,,,,,,,,switch,number,NA,k,0.4979,Hi,,,,,,5,,,,,,,,high,22,0,22,0,1,,,,,,,,,
295615,2022-11-28_16h04.37.034,vts_reward_expectancy_bt,2022.2.4,MacIntel,60.0024001,Chrome,1470,956,,,,,0,1338,,,,,,,,,,,,,,,,,F,160,hexagon,1,1,,,,,,,,,,,,,,,,repeat,number,numRpt,k,0.5139,Hi,,,,,,5,,,,,,,,high,23,0,23,0,1,,,,,,,,,
295615,2022-11-28_16h04.37.034,vts_reward_expectancy_bt,2022.2.4,MacIntel,60.0024001,Chrome,1470,956,,,,,0,1338,,,,,,,,,,,,,,,,,H,167,circle,0,0,,,,,,,,,,,,,,,,switch,letter,NA,f,0.3061,Hi,,,,,,5,,,,,,,,high,24,0,24,0,1,,,,,,,,,
295615,2022-11-28_16h04.37.034,vts_reward_expectancy_bt,2022.2.4,MacIntel,60.0024001,Chrome,1470,956,,,,,10,1348,,,,,,,,,,,,,,,,,Y,125,hexagon,1,1,,,,,,,,,,,,,,,,switch,number,numSwt,j,0.3328,Hi,,,,,,5,,,,,,,,high,25,0,25,0,1,,,,,,,,,
295615,2022-11-28_16h04.37.034,vts_reward_expectancy_bt,2022.2.4,MacIntel,60.0024001,Chrome,1470,956,,,,,1,1349,,,,,,,,,,,,,,,,,S,181,triangle,1,0,,,,,,,,,,,,,,,,repeat,number,numRpt,k,0.4304,Lo,,,,,,5,,,,,,,,high,26,0,26,0,1,,,,,,,,,
295615,2022-11-28_16h04.37.034,vts_reward_expectancy_bt,2022.2.4,MacIntel,60.0024001,Chrome,1470,956,,,,,1,1350,,,,,,,,,,,,,,,,,B,146,star,1,0,,,,,,,,,,,,,,,,switch,letter,lettSwt,d,0.4494,Lo,,,,,,5,,,,,,,,high,27,0,27,0,1,,,,,,,,,
295615,2022-11-28_16h04.37.034,vts_reward_expectancy_bt,2022.2.4,MacIntel,60.0024001,Chrome,1470,956,,,,,1,1351,,,,,,,,,,,,,,,,,D,160,triangle,1,0,,,,,,,,,,,,,,,,switch,number,numSwt,k,0.3956,Lo,,,,,,5,,,,,,,,high,28,0,28,0,1,,,,,,,,,
295615,2022-11-28_16h04.37.034,vts_reward_expectancy_bt,2022.2.4,MacIntel,60.0024001,Chrome,1470,956,,,,,10,1361,,,,,,,,,,,,,,,,,W,132,circle,1,0,,,,,,,,,,,,,,,,switch,letter,lettSwt,f,0.3308,Hi,,,,,,5,,,,,,,,high,29,0,29,0,1,,,,,,,,,
295615,2022-11-28_16h04.37.034,vts_reward_expectancy_bt,2022.2.4,MacIntel,60.0024001,Chrome,1470,956,,,,,1,1362,,,,,,,,,,,,,,,,,F,174,star,1,0,,,,,,,,,,,,,,,,switch,number,numSwt,k,0.4649,Lo,,,,,,5,,,,,,,,high,30,0,30,0,1,,,,,,,,,
295615,2022-11-28_16h04.37.034,vts_reward_expectancy_bt,2022.2.4,MacIntel,60.0024001,Chrome,1470,956,,,,,0,1362,,,,,,,,,,,,,,,,,U,139,hexagon,1,0,,,,,,,,,,,,,,,,switch,letter,lettSwt,f,0.4843,Hi,,,,,,5,,,,,,,,high,31,0,31,0,1,,,,,,,,,
295615,2022-11-28_16h04.37.034,vts_reward_expectancy_bt,2022.2.4,MacIntel,60.0024001,Chrome,1470,956,,,,,0,1362,,,,,,,,,,,,,,,,,H,139,circle,0,0,,,,,,,,,,,,,,,,repeat,letter,NA,f,0.4536,Hi,,,,,,6,,,,,,space,3.4307,high,0,0,0,0,1,,,,,,,,,
295615,2022-11-28_16h04.37.034,vts_reward_expectancy_bt,2022.2.4,MacIntel,60.0024001,Chrome,1470,956,,,,,1,1363,,,,,,,,,,,,,,,,,F,181,triangle,1,1,,,,,,,,,,,,,,,,switch,number,numSwt,k,0.4042,Lo,,,,,,6,,,,,,,,high,1,0,1,0,1,,,,,,,,,
295615,2022-11-28_16h04.37.034,vts_reward_expectancy_bt,2022.2.4,MacIntel,60.0024001,Chrome,1470,956,,,,,10,1373,,,,,,,,,,,,,,,,,S,167,hexagon,1,0,,,,,,,,,,,,,,,,repeat,number,numRpt,k,0.3629,Hi,,,,,,6,,,,,,,,high,2,0,2,0,1,,,,,,,,,
295615,2022-11-28_16h04.37.034,vts_reward_expectancy_bt,2022.2.4,MacIntel,60.0024001,Chrome,1470,956,,,,,0,1373,,,,,,,,,,,,,,,,,B,132,star,0,0,,,,,,,,,,,,,,,,repeat,number,NA,k,0.4644,Hi,,,,,,6,,,,,,,,high,3,0,3,0,1,,,,,,,,,
295615,2022-11-28_16h04.37.034,vts_reward_expectancy_bt,2022.2.4,MacIntel,60.0024001,Chrome,1470,956,,,,,0,1373,,,,,,,,,,,,,,,,,W,174,circle,0,1,,,,,,,,,,,,,,,,switch,letter,NA,d,0.798,Hi,,,,,,6,,,,,,,,high,4,0,4,0,1,,,,,,,,,
295615,2022-11-28_16h04.37.034,vts_reward_expectancy_bt,2022.2.4,MacIntel,60.0024001,Chrome,1470,956,,,,,10,1383,,,,,,,,,,,,,,,,,D,125,triangle,1,1,,,,,,,,,,,,,,,,repeat,letter,lettRpt,d,0.6135,Lo,,,,,,6,,,,,,,,high,5,0,5,0,1,,,,,,,,,
295615,2022-11-28_16h04.37.034,vts_reward_expectancy_bt,2022.2.4,MacIntel,60.0024001,Chrome,1470,956,,,,,0,1383,,,,,,,,,,,,,,,,,Y,146,hexagon,1,0,,,,,,,,,,,,,,,,repeat,letter,lettRpt,f,0.6833,Hi,,,,,,6,,,,,,,,high,6,0,6,0,1,,,,,,,,,
295615,2022-11-28_16h04.37.034,vts_reward_expectancy_bt,2022.2.4,MacIntel,60.0024001,Chrome,1470,956,,,,,1,1384,,,,,,,,,,,,,,,,,U,160,star,1,0,,,,,,,,,,,,,,,,switch,number,numSwt,k,0.732,Lo,,,,,,6,,,,,,,,high,7,0,7,0,1,,,,,,,,,
295615,2022-11-28_16h04.37.034,vts_reward_expectancy_bt,2022.2.4,MacIntel,60.0024001,Chrome,1470,956,,,,,1,1385,,,,,,,,,,,,,,,,,H,139,star,1,0,,,,,,,,,,,,,,,,switch,letter,lettSwt,d,0.6367,Lo,,,,,,6,,,,,,,,high,8,0,8,0,1,,,,,,,,,
295615,2022-11-28_16h04.37.034,vts_reward_expectancy_bt,2022.2.4,MacIntel,60.0024001,Chrome,1470,956,,,,,1,1386,,,,,,,,,,,,,,,,,F,181,triangle,1,0,,,,,,,,,,,,,,,,switch,number,numSwt,k,0.4161,Lo,,,,,,6,,,,,,,,high,9,0,9,0,1,,,,,,,,,
295615,2022-11-28_16h04.37.034,vts_reward_expectancy_bt,2022.2.4,MacIntel,60.0024001,Chrome,1470,956,,,,,10,1396,,,,,,,,,,,,,,,,,S,167,circle,1,0,,,,,,,,,,,,,,,,switch,letter,lettSwt,f,0.4217,Hi,,,,,,6,,,,,,,,high,10,0,10,0,1,,,,,,,,,
295615,2022-11-28_16h04.37.034,vts_reward_expectancy_bt,2022.2.4,MacIntel,60.0024001,Chrome,1470,956,,,,,0,1396,,,,,,,,,,,,,,,,,B,132,hexagon,1,0,,,,,,,,,,,,,,,,repeat,letter,lettRpt,d,0.4229,Hi,,,,,,6,,,,,,,,high,11,0,11,0,1,,,,,,,,,
