participant,date,expName,psychopyVersion,OS,frameRate,browser,xResolution,yResolution,key_resp.keys,key_resp.rt,training_resp.keys,training_resp.rt,points_trial,points_cumul,trainBlock,training.thisRepN,training.thisTrialN,training.thisN,training.thisIndex,training.ran,LTriangleOpac,LCircleOpac,LHexagonOpac,LStarOpac,RTriangleOpac,RCircleOpac,RHexagonOpac,RStarOpac,LShape_ID,RShape_ID,curr_topStim,curr_bottStim,curr_shape,acc,E1,target_resp_prac1.keys,target_resp_prac1.rt,pracBlock,task1_prac_trials.thisRepN,task1_prac_trials.thisTrialN,task1_prac_trials.thisN,task1_prac_trials.thisIndex,task1_prac_trials.ran,target_resp_prac2.keys,target_resp_prac2.rt,task2_praac_trials.thisRepN,task2_praac_trials.thisTrialN,task2_praac_trials.thisN,task2_praac_trials.thisIndex,task2_praac_trials.ran,alt,task,condition,target_resp.keys,target_resp.rt,rewCond,vts_practice_trials.thisRepN,vts_practice_trials.thisTrialN,vts_practice_trials.thisN,vts_practice_trials.thisIndex,vts_practice_trials.ran,blockNum,trials_norew.thisRepN,trials_norew.thisTrialN,trials_norew.thisN,trials_norew.thisIndex,trials_norew.ran,key_resp_2.keys,key_resp_2.rt,rewExpectancy,trials_rew.thisRepN,trials_rew.thisTrialN,trials_rew.thisN,trials_rew.thisIndex,trials_rew.ran,Q1,Q2_text,Q5_text,xRes,yRes
295660,2022-11-15_14h28.55.910,vts_reward_expectancy_bt,2022.2.4,Win32,60.0240096,Chrome,1920,1080,,,,,,,,,,,,,,,,,,,,,,,,,,,,,,,,,,,,,,,,,,,,,,,,,,,,,,,,,,,,,,,,,,,,,,,,
295660,2022-11-15_14h28.55.910,vts_reward_expectancy_bt,2022.2.4,Win32,60.0240096,Chrome,1920,1080,space,9.4044,,,,,,,,,,,,,,,,,,,,,,,,,,,,,,,,,,,,,,,,,,,,,,,,,,,,,,,,,,,,,,,,,,,,,,
295660,2022-11-15_14h28.55.910,vts_reward_expectancy_bt,2022.2.4,Win32,60.0240096,Chrome,1920,1080,,,,,,,,,,,,,,,,,,,,,,,,,,,,,,,,,,,,,,,,,,,,,,,,,,,,,,,,,,,,,,,,,,,,,,,,
295660,2022-11-15_14h28.55.910,vts_reward_expectancy_bt,2022.2.4,Win32,60.0240096,Chrome,1920,1080,,,l,2.1291,10,10,0,0,0,0,11,1,0,0,0,1,0,0,1,0,star,hexagon,,,,,,,,,,,,,,,,,,,,,,,,,,,,,,,,,,,,,,,,,,,,,,,,,,
295660,2022-11-15_14h28.55.910,vts_reward_expectancy_bt,2022.2.4,Win32,60.0240096,Chrome,1920,1080,,,a,0.8741,10,20,0,0,1,1,5,1,0,1,0,0,0,0,0,1,circle,star,,,,,,,,,,,,,,,,,,,,,,,,,,,,,,,,,,,,,,,,,,,,,,,,,,
295660,2022-11-15_14h28.55.910,vts_reward_expectancy_bt,2022.2.4,Win32,60.0240096,Chrome,1920,1080,,,a,1.0632,1,21,0,0,2,2,9,1,0,0,0,1,1,0,0,0,star,triangle,,,,,,,,,,,,,,,,,,,,,,,,,,,,,,,,,,,,,,,,,,,,,,,,,,
295660,2022-11-15_14h28.55.910,vts_reward_expectancy_bt,2022.2.4,Win32,60.0240096,Chrome,1920,1080,,,a,1.3281,1,22,0,0,3,3,3,1,0,1,0,0,1,0,0,0,circle,triangle,,,,,,,,,,,,,,,,,,,,,,,,,,,,,,,,,,,,,,,,,,,,,,,,,,
295660,2022-11-15_14h28.55.910,vts_reward_expectancy_bt,2022.2.4,Win32,60.0240096,Chrome,1920,1080,,,l,0.6065,10,32,0,0,4,4,8,1,0,0,1,0,0,0,0,1,hexagon,star,,,,,,,,,,,,,,,,,,,,,,,,,,,,,,,,,,,,,,,,,,,,,,,,,,
295660,2022-11-15_14h28.55.910,vts_reward_expectancy_bt,2022.2.4,Win32,60.0240096,Chrome,1920,1080,,,a,0.8785,10,42,0,0,5,5,7,1,0,0,1,0,0,1,0,0,hexagon,circle,,,,,,,,,,,,,,,,,,,,,,,,,,,,,,,,,,,,,,,,,,,,,,,,,,
295660,2022-11-15_14h28.55.910,vts_reward_expectancy_bt,2022.2.4,Win32,60.0240096,Chrome,1920,1080,,,a,0.6085,10,52,0,0,6,6,10,1,0,0,0,1,0,1,0,0,star ,circle,,,,,,,,,,,,,,,,,,,,,,,,,,,,,,,,,,,,,,,,,,,,,,,,,,
295660,2022-11-15_14h28.55.910,vts_reward_expectancy_bt,2022.2.4,Win32,60.0240096,Chrome,1920,1080,,,a,1.0258,10,62,0,0,7,7,6,1,0,0,1,0,1,0,0,0,hexagon,triangle,,,,,,,,,,,,,,,,,,,,,,,,,,,,,,,,,,,,,,,,,,,,,,,,,,
295660,2022-11-15_14h28.55.910,vts_reward_expectancy_bt,2022.2.4,Win32,60.0240096,Chrome,1920,1080,,,l,0.5996,10,72,0,0,8,8,4,1,0,1,0,0,0,0,1,0,circle,hexagon,,,,,,,,,,,,,,,,,,,,,,,,,,,,,,,,,,,,,,,,,,,,,,,,,,
295660,2022-11-15_14h28.55.910,vts_reward_expectancy_bt,2022.2.4,Win32,60.0240096,Chrome,1920,1080,,,a,0.4856,10,82,0,0,9,9,0,1,1,0,0,0,0,1,0,0,triangle,circle,,,,,,,,,,,,,,,,,,,,,,,,,,,,,,,,,,,,,,,,,,,,,,,,,,
295660,2022-11-15_14h28.55.910,vts_reward_expectancy_bt,2022.2.4,Win32,60.0240096,Chrome,1920,1080,,,l,1.2657,1,83,0,0,10,10,2,1,1,0,0,0,0,0,0,1,triangle,star,,,,,,,,,,,,,,,,,,,,,,,,,,,,,,,,,,,,,,,,,,,,,,,,,,
295660,2022-11-15_14h28.55.910,vts_reward_expectancy_bt,2022.2.4,Win32,60.0240096,Chrome,1920,1080,,,a,1.0348,1,84,0,0,11,11,1,1,1,0,0,0,0,0,1,0,triangle,hexagon,,,,,,,,,,,,,,,,,,,,,,,,,,,,,,,,,,,,,,,,,,,,,,,,,,
295660,2022-11-15_14h28.55.910,vts_reward_expectancy_bt,2022.2.4,Win32,60.0240096,Chrome,1920,1080,,,a,0.8893,1,85,0,1,0,12,8,1,0,0,1,0,0,0,0,1,hexagon,star,,,,,,,,,,,,,,,,,,,,,,,,,,,,,,,,,,,,,,,,,,,,,,,,,,
295660,2022-11-15_14h28.55.910,vts_reward_expectancy_bt,2022.2.4,Win32,60.0240096,Chrome,1920,1080,,,l,0.749,1,86,0,1,1,13,2,1,1,0,0,0,0,0,0,1,triangle,star,,,,,,,,,,,,,,,,,,,,,,,,,,,,,,,,,,,,,,,,,,,,,,,,,,
295660,2022-11-15_14h28.55.910,vts_reward_expectancy_bt,2022.2.4,Win32,60.0240096,Chrome,1920,1080,,,a,0.8032,1,87,0,1,2,14,9,1,0,0,0,1,1,0,0,0,star,triangle,,,,,,,,,,,,,,,,,,,,,,,,,,,,,,,,,,,,,,,,,,,,,,,,,,
295660,2022-11-15_14h28.55.910,vts_reward_expectancy_bt,2022.2.4,Win32,60.0240096,Chrome,1920,1080,,,l,1.3535,1,88,0,1,3,15,6,1,0,0,1,0,1,0,0,0,hexagon,triangle,,,,,,,,,,,,,,,,,,,,,,,,,,,,,,,,,,,,,,,,,,,,,,,,,,
295660,2022-11-15_14h28.55.910,vts_reward_expectancy_bt,2022.2.4,Win32,60.0240096,Chrome,1920,1080,,,a,0.5364,1,89,0,1,4,16,1,1,1,0,0,0,0,0,1,0,triangle,hexagon,,,,,,,,,,,,,,,,,,,,,,,,,,,,,,,,,,,,,,,,,,,,,,,,,,
295660,2022-11-15_14h28.55.910,vts_reward_expectancy_bt,2022.2.4,Win32,60.0240096,Chrome,1920,1080,,,a,0.9536,1,90,0,1,5,17,10,1,0,0,0,1,0,1,0,0,star ,circle,,,,,,,,,,,,,,,,,,,,,,,,,,,,,,,,,,,,,,,,,,,,,,,,,,
295660,2022-11-15_14h28.55.910,vts_reward_expectancy_bt,2022.2.4,Win32,60.0240096,Chrome,1920,1080,,,l,1.1909,10,100,0,1,6,18,7,1,0,0,1,0,0,1,0,0,hexagon,circle,,,,,,,,,,,,,,,,,,,,,,,,,,,,,,,,,,,,,,,,,,,,,,,,,,
295660,2022-11-15_14h28.55.910,vts_reward_expectancy_bt,2022.2.4,Win32,60.0240096,Chrome,1920,1080,,,a,0.505,1,101,0,1,7,19,4,1,0,1,0,0,0,0,1,0,circle,hexagon,,,,,,,,,,,,,,,,,,,,,,,,,,,,,,,,,,,,,,,,,,,,,,,,,,
295660,2022-11-15_14h28.55.910,vts_reward_expectancy_bt,2022.2.4,Win32,60.0240096,Chrome,1920,1080,,,a,0.6893,1,102,0,1,8,20,5,1,0,1,0,0,0,0,0,1,circle,star,,,,,,,,,,,,,,,,,,,,,,,,,,,,,,,,,,,,,,,,,,,,,,,,,,
295660,2022-11-15_14h28.55.910,vts_reward_expectancy_bt,2022.2.4,Win32,60.0240096,Chrome,1920,1080,,,l,0.79,1,103,0,1,9,21,3,1,0,1,0,0,1,0,0,0,circle,triangle,,,,,,,,,,,,,,,,,,,,,,,,,,,,,,,,,,,,,,,,,,,,,,,,,,
295660,2022-11-15_14h28.55.910,vts_reward_expectancy_bt,2022.2.4,Win32,60.0240096,Chrome,1920,1080,,,a,0.7149,1,104,0,1,10,22,11,1,0,0,0,1,0,0,1,0,star,hexagon,,,,,,,,,,,,,,,,,,,,,,,,,,,,,,,,,,,,,,,,,,,,,,,,,,
295660,2022-11-15_14h28.55.910,vts_reward_expectancy_bt,2022.2.4,Win32,60.0240096,Chrome,1920,1080,,,l,0.5759,1,105,0,1,11,23,0,1,1,0,0,0,0,1,0,0,triangle,circle,,,,,,,,,,,,,,,,,,,,,,,,,,,,,,,,,,,,,,,,,,,,,,,,,,
295660,2022-11-15_14h28.55.910,vts_reward_expectancy_bt,2022.2.4,Win32,60.0240096,Chrome,1920,1080,,,l,0.6052,1,106,0,2,0,24,5,1,0,1,0,0,0,0,0,1,circle,star,,,,,,,,,,,,,,,,,,,,,,,,,,,,,,,,,,,,,,,,,,,,,,,,,,
295660,2022-11-15_14h28.55.910,vts_reward_expectancy_bt,2022.2.4,Win32,60.0240096,Chrome,1920,1080,,,l,1.3572,10,116,0,2,1,25,6,1,0,0,1,0,1,0,0,0,hexagon,triangle,,,,,,,,,,,,,,,,,,,,,,,,,,,,,,,,,,,,,,,,,,,,,,,,,,
295660,2022-11-15_14h28.55.910,vts_reward_expectancy_bt,2022.2.4,Win32,60.0240096,Chrome,1920,1080,,,l,1.9728,10,126,0,2,2,26,10,1,0,0,0,1,0,1,0,0,star ,circle,,,,,,,,,,,,,,,,,,,,,,,,,,,,,,,,,,,,,,,,,,,,,,,,,,
295660,2022-11-15_14h28.55.910,vts_reward_expectancy_bt,2022.2.4,Win32,60.0240096,Chrome,1920,1080,,,l,1.1443,10,136,0,2,3,27,1,1,1,0,0,0,0,0,1,0,triangle,hexagon,,,,,,,,,,,,,,,,,,,,,,,,,,,,,,,,,,,,,,,,,,,,,,,,,,
295660,2022-11-15_14h28.55.910,vts_reward_expectancy_bt,2022.2.4,Win32,60.0240096,Chrome,1920,1080,,,l,3.1134,10,146,0,2,4,28,9,1,0,0,0,1,1,0,0,0,star,triangle,,,,,,,,,,,,,,,,,,,,,,,,,,,,,,,,,,,,,,,,,,,,,,,,,,
295660,2022-11-15_14h28.55.910,vts_reward_expectancy_bt,2022.2.4,Win32,60.0240096,Chrome,1920,1080,,,l,1.4203,10,156,0,2,5,29,3,1,0,1,0,0,1,0,0,0,circle,triangle,,,,,,,,,,,,,,,,,,,,,,,,,,,,,,,,,,,,,,,,,,,,,,,,,,
295660,2022-11-15_14h28.55.910,vts_reward_expectancy_bt,2022.2.4,Win32,60.0240096,Chrome,1920,1080,,,l,2.1115,10,166,0,2,6,30,11,1,0,0,0,1,0,0,1,0,star,hexagon,,,,,,,,,,,,,,,,,,,,,,,,,,,,,,,,,,,,,,,,,,,,,,,,,,
295660,2022-11-15_14h28.55.910,vts_reward_expectancy_bt,2022.2.4,Win32,60.0240096,Chrome,1920,1080,,,l,1.4559,10,176,0,2,7,31,0,1,1,0,0,0,0,1,0,0,triangle,circle,,,,,,,,,,,,,,,,,,,,,,,,,,,,,,,,,,,,,,,,,,,,,,,,,,
295660,2022-11-15_14h28.55.910,vts_reward_expectancy_bt,2022.2.4,Win32,60.0240096,Chrome,1920,1080,,,l,1.4536,1,177,0,2,8,32,2,1,1,0,0,0,0,0,0,1,triangle,star,,,,,,,,,,,,,,,,,,,,,,,,,,,,,,,,,,,,,,,,,,,,,,,,,,
295660,2022-11-15_14h28.55.910,vts_reward_expectancy_bt,2022.2.4,Win32,60.0240096,Chrome,1920,1080,,,a,1.99,1,178,0,2,9,33,8,1,0,0,1,0,0,0,0,1,hexagon,star,,,,,,,,,,,,,,,,,,,,,,,,,,,,,,,,,,,,,,,,,,,,,,,,,,
295660,2022-11-15_14h28.55.910,vts_reward_expectancy_bt,2022.2.4,Win32,60.0240096,Chrome,1920,1080,,,l,0.672,1,179,0,2,10,34,7,1,0,0,1,0,0,1,0,0,hexagon,circle,,,,,,,,,,,,,,,,,,,,,,,,,,,,,,,,,,,,,,,,,,,,,,,,,,
295660,2022-11-15_14h28.55.910,vts_reward_expectancy_bt,2022.2.4,Win32,60.0240096,Chrome,1920,1080,,,l,0.7714,1,180,0,2,11,35,4,1,0,1,0,0,0,0,1,0,circle,hexagon,,,,,,,,,,,,,,,,,,,,,,,,,,,,,,,,,,,,,,,,,,,,,,,,,,
295660,2022-11-15_14h28.55.910,vts_reward_expectancy_bt,2022.2.4,Win32,60.0240096,Chrome,1920,1080,,,a,2.1963,1,181,1,0,0,0,11,1,0,0,0,1,0,0,1,0,star,hexagon,,,,,,,,,,,,,,,,,,,,,,,,,,,,,,,,,,,,,,,,,,,,,,,,,,
295660,2022-11-15_14h28.55.910,vts_reward_expectancy_bt,2022.2.4,Win32,60.0240096,Chrome,1920,1080,,,a,1.4997,10,191,1,0,1,1,9,1,0,0,0,1,1,0,0,0,star,triangle,,,,,,,,,,,,,,,,,,,,,,,,,,,,,,,,,,,,,,,,,,,,,,,,,,
295660,2022-11-15_14h28.55.910,vts_reward_expectancy_bt,2022.2.4,Win32,60.0240096,Chrome,1920,1080,,,l,1.5449,10,201,1,0,2,2,4,1,0,1,0,0,0,0,1,0,circle,hexagon,,,,,,,,,,,,,,,,,,,,,,,,,,,,,,,,,,,,,,,,,,,,,,,,,,
295660,2022-11-15_14h28.55.910,vts_reward_expectancy_bt,2022.2.4,Win32,60.0240096,Chrome,1920,1080,,,l,0.8845,1,202,1,0,3,3,10,1,0,0,0,1,0,1,0,0,star ,circle,,,,,,,,,,,,,,,,,,,,,,,,,,,,,,,,,,,,,,,,,,,,,,,,,,
295660,2022-11-15_14h28.55.910,vts_reward_expectancy_bt,2022.2.4,Win32,60.0240096,Chrome,1920,1080,,,l,1.181,1,203,1,0,4,4,5,1,0,1,0,0,0,0,0,1,circle,star,,,,,,,,,,,,,,,,,,,,,,,,,,,,,,,,,,,,,,,,,,,,,,,,,,
295660,2022-11-15_14h28.55.910,vts_reward_expectancy_bt,2022.2.4,Win32,60.0240096,Chrome,1920,1080,,,l,1.1591,1,204,1,0,5,5,0,1,1,0,0,0,0,1,0,0,triangle,circle,,,,,,,,,,,,,,,,,,,,,,,,,,,,,,,,,,,,,,,,,,,,,,,,,,
295660,2022-11-15_14h28.55.910,vts_reward_expectancy_bt,2022.2.4,Win32,60.0240096,Chrome,1920,1080,,,l,1.0112,10,214,1,0,6,6,6,1,0,0,1,0,1,0,0,0,hexagon,triangle,,,,,,,,,,,,,,,,,,,,,,,,,,,,,,,,,,,,,,,,,,,,,,,,,,
295660,2022-11-15_14h28.55.910,vts_reward_expectancy_bt,2022.2.4,Win32,60.0240096,Chrome,1920,1080,,,a,2.5083,10,224,1,0,7,7,8,1,0,0,1,0,0,0,0,1,hexagon,star,,,,,,,,,,,,,,,,,,,,,,,,,,,,,,,,,,,,,,,,,,,,,,,,,,
295660,2022-11-15_14h28.55.910,vts_reward_expectancy_bt,2022.2.4,Win32,60.0240096,Chrome,1920,1080,,,l,3.572,10,234,1,0,8,8,3,1,0,1,0,0,1,0,0,0,circle,triangle,,,,,,,,,,,,,,,,,,,,,,,,,,,,,,,,,,,,,,,,,,,,,,,,,,
295660,2022-11-15_14h28.55.910,vts_reward_expectancy_bt,2022.2.4,Win32,60.0240096,Chrome,1920,1080,,,l,2.7285,10,244,1,0,9,9,2,1,1,0,0,0,0,0,0,1,triangle,star,,,,,,,,,,,,,,,,,,,,,,,,,,,,,,,,,,,,,,,,,,,,,,,,,,
295660,2022-11-15_14h28.55.910,vts_reward_expectancy_bt,2022.2.4,Win32,60.0240096,Chrome,1920,1080,,,l,1.9565,10,254,1,0,10,10,1,1,1,0,0,0,0,0,1,0,triangle,hexagon,,,,,,,,,,,,,,,,,,,,,,,,,,,,,,,,,,,,,,,,,,,,,,,,,,
295660,2022-11-15_14h28.55.910,vts_reward_expectancy_bt,2022.2.4,Win32,60.0240096,Chrome,1920,1080,,,l,1.2439,1,255,1,0,11,11,7,1,0,0,1,0,0,1,0,0,hexagon,circle,,,,,,,,,,,,,,,,,,,,,,,,,,,,,,,,,,,,,,,,,,,,,,,,,,
295660,2022-11-15_14h28.55.910,vts_reward_expectancy_bt,2022.2.4,Win32,60.0240096,Chrome,1920,1080,,,l,1.1216,10,265,1,1,0,12,9,1,0,0,0,1,1,0,0,0,star,triangle,,,,,,,,,,,,,,,,,,,,,,,,,,,,,,,,,,,,,,,,,,,,,,,,,,
295660,2022-11-15_14h28.55.910,vts_reward_expectancy_bt,2022.2.4,Win32,60.0240096,Chrome,1920,1080,,,a,2.4402,1,266,1,1,1,13,11,1,0,0,0,1,0,0,1,0,star,hexagon,,,,,,,,,,,,,,,,,,,,,,,,,,,,,,,,,,,,,,,,,,,,,,,,,,
295660,2022-11-15_14h28.55.910,vts_reward_expectancy_bt,2022.2.4,Win32,60.0240096,Chrome,1920,1080,,,l,1.0969,10,276,1,1,2,14,8,1,0,0,1,0,0,0,0,1,hexagon,star,,,,,,,,,,,,,,,,,,,,,,,,,,,,,,,,,,,,,,,,,,,,,,,,,,
295660,2022-11-15_14h28.55.910,vts_reward_expectancy_bt,2022.2.4,Win32,60.0240096,Chrome,1920,1080,,,l,3.6608,10,286,1,1,3,15,3,1,0,1,0,0,1,0,0,0,circle,triangle,,,,,,,,,,,,,,,,,,,,,,,,,,,,,,,,,,,,,,,,,,,,,,,,,,
295660,2022-11-15_14h28.55.910,vts_reward_expectancy_bt,2022.2.4,Win32,60.0240096,Chrome,1920,1080,,,l,1.488,10,296,1,1,4,16,0,1,1,0,0,0,0,1,0,0,triangle,circle,,,,,,,,,,,,,,,,,,,,,,,,,,,,,,,,,,,,,,,,,,,,,,,,,,
295660,2022-11-15_14h28.55.910,vts_reward_expectancy_bt,2022.2.4,Win32,60.0240096,Chrome,1920,1080,,,l,2.0966,10,306,1,1,5,17,1,1,1,0,0,0,0,0,1,0,triangle,hexagon,,,,,,,,,,,,,,,,,,,,,,,,,,,,,,,,,,,,,,,,,,,,,,,,,,
295660,2022-11-15_14h28.55.910,vts_reward_expectancy_bt,2022.2.4,Win32,60.0240096,Chrome,1920,1080,,,l,1.6787,1,307,1,1,6,18,5,1,0,1,0,0,0,0,0,1,circle,star,,,,,,,,,,,,,,,,,,,,,,,,,,,,,,,,,,,,,,,,,,,,,,,,,,
295660,2022-11-15_14h28.55.910,vts_reward_expectancy_bt,2022.2.4,Win32,60.0240096,Chrome,1920,1080,,,l,1.7704,1,308,1,1,7,19,10,1,0,0,0,1,0,1,0,0,star ,circle,,,,,,,,,,,,,,,,,,,,,,,,,,,,,,,,,,,,,,,,,,,,,,,,,,
295660,2022-11-15_14h28.55.910,vts_reward_expectancy_bt,2022.2.4,Win32,60.0240096,Chrome,1920,1080,,,a,1.2072,1,309,1,1,8,20,7,1,0,0,1,0,0,1,0,0,hexagon,circle,,,,,,,,,,,,,,,,,,,,,,,,,,,,,,,,,,,,,,,,,,,,,,,,,,
295660,2022-11-15_14h28.55.910,vts_reward_expectancy_bt,2022.2.4,Win32,60.0240096,Chrome,1920,1080,,,l,0.651,10,319,1,1,9,21,2,1,1,0,0,0,0,0,0,1,triangle,star,,,,,,,,,,,,,,,,,,,,,,,,,,,,,,,,,,,,,,,,,,,,,,,,,,
295660,2022-11-15_14h28.55.910,vts_reward_expectancy_bt,2022.2.4,Win32,60.0240096,Chrome,1920,1080,,,a,2.468,1,320,1,1,10,22,4,1,0,1,0,0,0,0,1,0,circle,hexagon,,,,,,,,,,,,,,,,,,,,,,,,,,,,,,,,,,,,,,,,,,,,,,,,,,
295660,2022-11-15_14h28.55.910,vts_reward_expectancy_bt,2022.2.4,Win32,60.0240096,Chrome,1920,1080,,,l,1.0608,1,321,1,1,11,23,6,1,0,0,1,0,1,0,0,0,hexagon,triangle,,,,,,,,,,,,,,,,,,,,,,,,,,,,,,,,,,,,,,,,,,,,,,,,,,
295660,2022-11-15_14h28.55.910,vts_reward_expectancy_bt,2022.2.4,Win32,60.0240096,Chrome,1920,1080,,,a,0.9059,10,331,1,2,0,24,2,1,1,0,0,0,0,0,0,1,triangle,star,,,,,,,,,,,,,,,,,,,,,,,,,,,,,,,,,,,,,,,,,,,,,,,,,,
295660,2022-11-15_14h28.55.910,vts_reward_expectancy_bt,2022.2.4,Win32,60.0240096,Chrome,1920,1080,,,l,0.992,1,332,1,2,1,25,10,1,0,0,0,1,0,1,0,0,star ,circle,,,,,,,,,,,,,,,,,,,,,,,,,,,,,,,,,,,,,,,,,,,,,,,,,,
295660,2022-11-15_14h28.55.910,vts_reward_expectancy_bt,2022.2.4,Win32,60.0240096,Chrome,1920,1080,,,l,5.1295,10,342,1,2,2,26,3,1,0,1,0,0,1,0,0,0,circle,triangle,,,,,,,,,,,,,,,,,,,,,,,,,,,,,,,,,,,,,,,,,,,,,,,,,,
295660,2022-11-15_14h28.55.910,vts_reward_expectancy_bt,2022.2.4,Win32,60.0240096,Chrome,1920,1080,,,l,1.2554,1,343,1,2,3,27,0,1,1,0,0,0,0,1,0,0,triangle,circle,,,,,,,,,,,,,,,,,,,,,,,,,,,,,,,,,,,,,,,,,,,,,,,,,,
295660,2022-11-15_14h28.55.910,vts_reward_expectancy_bt,2022.2.4,Win32,60.0240096,Chrome,1920,1080,,,a,1.4077,1,344,1,2,4,28,11,1,0,0,0,1,0,0,1,0,star,hexagon,,,,,,,,,,,,,,,,,,,,,,,,,,,,,,,,,,,,,,,,,,,,,,,,,,
295660,2022-11-15_14h28.55.910,vts_reward_expectancy_bt,2022.2.4,Win32,60.0240096,Chrome,1920,1080,,,l,2.0285,10,354,1,2,5,29,4,1,0,1,0,0,0,0,1,0,circle,hexagon,,,,,,,,,,,,,,,,,,,,,,,,,,,,,,,,,,,,,,,,,,,,,,,,,,
295660,2022-11-15_14h28.55.910,vts_reward_expectancy_bt,2022.2.4,Win32,60.0240096,Chrome,1920,1080,,,l,1.0132,10,364,1,2,6,30,7,1,0,0,1,0,0,1,0,0,hexagon,circle,,,,,,,,,,,,,,,,,,,,,,,,,,,,,,,,,,,,,,,,,,,,,,,,,,
295660,2022-11-15_14h28.55.910,vts_reward_expectancy_bt,2022.2.4,Win32,60.0240096,Chrome,1920,1080,,,a,2.0908,10,374,1,2,7,31,5,1,0,1,0,0,0,0,0,1,circle,star,,,,,,,,,,,,,,,,,,,,,,,,,,,,,,,,,,,,,,,,,,,,,,,,,,
295660,2022-11-15_14h28.55.910,vts_reward_expectancy_bt,2022.2.4,Win32,60.0240096,Chrome,1920,1080,,,l,3.913,1,375,1,2,8,32,6,1,0,0,1,0,1,0,0,0,hexagon,triangle,,,,,,,,,,,,,,,,,,,,,,,,,,,,,,,,,,,,,,,,,,,,,,,,,,
295660,2022-11-15_14h28.55.910,vts_reward_expectancy_bt,2022.2.4,Win32,60.0240096,Chrome,1920,1080,,,a,1.9252,1,376,1,2,9,33,1,1,1,0,0,0,0,0,1,0,triangle,hexagon,,,,,,,,,,,,,,,,,,,,,,,,,,,,,,,,,,,,,,,,,,,,,,,,,,
295660,2022-11-15_14h28.55.910,vts_reward_expectancy_bt,2022.2.4,Win32,60.0240096,Chrome,1920,1080,,,a,4.15,1,377,1,2,10,34,9,1,0,0,0,1,1,0,0,0,star,triangle,,,,,,,,,,,,,,,,,,,,,,,,,,,,,,,,,,,,,,,,,,,,,,,,,,
295660,2022-11-15_14h28.55.910,vts_reward_expectancy_bt,2022.2.4,Win32,60.0240096,Chrome,1920,1080,,,l,4.272,1,378,1,2,11,35,8,1,0,0,1,0,0,0,0,1,hexagon,star,,,,,,,,,,,,,,,,,,,,,,,,,,,,,,,,,,,,,,,,,,,,,,,,,,
295660,2022-11-15_14h28.55.910,vts_reward_expectancy_bt,2022.2.4,Win32,60.0240096,Chrome,1920,1080,,,a,2.9934,1,379,2,0,0,0,10,1,0,0,0,1,0,1,0,0,star ,circle,,,,,,,,,,,,,,,,,,,,,,,,,,,,,,,,,,,,,,,,,,,,,,,,,,
295660,2022-11-15_14h28.55.910,vts_reward_expectancy_bt,2022.2.4,Win32,60.0240096,Chrome,1920,1080,,,l,3.0336,1,380,2,0,1,1,6,1,0,0,1,0,1,0,0,0,hexagon,triangle,,,,,,,,,,,,,,,,,,,,,,,,,,,,,,,,,,,,,,,,,,,,,,,,,,
295660,2022-11-15_14h28.55.910,vts_reward_expectancy_bt,2022.2.4,Win32,60.0240096,Chrome,1920,1080,,,l,1.4013,10,390,2,0,2,2,4,1,0,1,0,0,0,0,1,0,circle,hexagon,,,,,,,,,,,,,,,,,,,,,,,,,,,,,,,,,,,,,,,,,,,,,,,,,,
295660,2022-11-15_14h28.55.910,vts_reward_expectancy_bt,2022.2.4,Win32,60.0240096,Chrome,1920,1080,,,l,1.3506,10,400,2,0,3,3,7,1,0,0,1,0,0,1,0,0,hexagon,circle,,,,,,,,,,,,,,,,,,,,,,,,,,,,,,,,,,,,,,,,,,,,,,,,,,
295660,2022-11-15_14h28.55.910,vts_reward_expectancy_bt,2022.2.4,Win32,60.0240096,Chrome,1920,1080,,,a,0.9327,1,401,2,0,4,4,2,1,1,0,0,0,0,0,0,1,triangle,star,,,,,,,,,,,,,,,,,,,,,,,,,,,,,,,,,,,,,,,,,,,,,,,,,,
295660,2022-11-15_14h28.55.910,vts_reward_expectancy_bt,2022.2.4,Win32,60.0240096,Chrome,1920,1080,,,l,0.6816,1,402,2,0,5,5,8,1,0,0,1,0,0,0,0,1,hexagon,star,,,,,,,,,,,,,,,,,,,,,,,,,,,,,,,,,,,,,,,,,,,,,,,,,,
295660,2022-11-15_14h28.55.910,vts_reward_expectancy_bt,2022.2.4,Win32,60.0240096,Chrome,1920,1080,,,l,1.5829,10,412,2,0,6,6,11,1,0,0,0,1,0,0,1,0,star,hexagon,,,,,,,,,,,,,,,,,,,,,,,,,,,,,,,,,,,,,,,,,,,,,,,,,,
295660,2022-11-15_14h28.55.910,vts_reward_expectancy_bt,2022.2.4,Win32,60.0240096,Chrome,1920,1080,,,a,1.0977,1,413,2,0,7,7,9,1,0,0,0,1,1,0,0,0,star,triangle,,,,,,,,,,,,,,,,,,,,,,,,,,,,,,,,,,,,,,,,,,,,,,,,,,
295660,2022-11-15_14h28.55.910,vts_reward_expectancy_bt,2022.2.4,Win32,60.0240096,Chrome,1920,1080,,,l,1.9054,10,423,2,0,8,8,0,1,1,0,0,0,0,1,0,0,triangle,circle,,,,,,,,,,,,,,,,,,,,,,,,,,,,,,,,,,,,,,,,,,,,,,,,,,
295660,2022-11-15_14h28.55.910,vts_reward_expectancy_bt,2022.2.4,Win32,60.0240096,Chrome,1920,1080,,,l,1.297,10,433,2,0,9,9,5,1,0,1,0,0,0,0,0,1,circle,star,,,,,,,,,,,,,,,,,,,,,,,,,,,,,,,,,,,,,,,,,,,,,,,,,,
295660,2022-11-15_14h28.55.910,vts_reward_expectancy_bt,2022.2.4,Win32,60.0240096,Chrome,1920,1080,,,a,0.6176,10,443,2,0,10,10,1,1,1,0,0,0,0,0,1,0,triangle,hexagon,,,,,,,,,,,,,,,,,,,,,,,,,,,,,,,,,,,,,,,,,,,,,,,,,,
295660,2022-11-15_14h28.55.910,vts_reward_expectancy_bt,2022.2.4,Win32,60.0240096,Chrome,1920,1080,,,l,0.5992,1,444,2,0,11,11,3,1,0,1,0,0,1,0,0,0,circle,triangle,,,,,,,,,,,,,,,,,,,,,,,,,,,,,,,,,,,,,,,,,,,,,,,,,,
295660,2022-11-15_14h28.55.910,vts_reward_expectancy_bt,2022.2.4,Win32,60.0240096,Chrome,1920,1080,,,l,1.5882,1,445,2,1,0,12,7,1,0,0,1,0,0,1,0,0,hexagon,circle,,,,,,,,,,,,,,,,,,,,,,,,,,,,,,,,,,,,,,,,,,,,,,,,,,
295660,2022-11-15_14h28.55.910,vts_reward_expectancy_bt,2022.2.4,Win32,60.0240096,Chrome,1920,1080,,,l,0.6913,1,446,2,1,1,13,4,1,0,1,0,0,0,0,1,0,circle,hexagon,,,,,,,,,,,,,,,,,,,,,,,,,,,,,,,,,,,,,,,,,,,,,,,,,,
295660,2022-11-15_14h28.55.910,vts_reward_expectancy_bt,2022.2.4,Win32,60.0240096,Chrome,1920,1080,,,l,0.2494,10,456,2,1,2,14,0,1,1,0,0,0,0,1,0,0,triangle,circle,,,,,,,,,,,,,,,,,,,,,,,,,,,,,,,,,,,,,,,,,,,,,,,,,,
295660,2022-11-15_14h28.55.910,vts_reward_expectancy_bt,2022.2.4,Win32,60.0240096,Chrome,1920,1080,,,a,0.9739,1,457,2,1,3,15,8,1,0,0,1,0,0,0,0,1,hexagon,star,,,,,,,,,,,,,,,,,,,,,,,,,,,,,,,,,,,,,,,,,,,,,,,,,,
295660,2022-11-15_14h28.55.910,vts_reward_expectancy_bt,2022.2.4,Win32,60.0240096,Chrome,1920,1080,,,a,1.2992,1,458,2,1,4,16,2,1,1,0,0,0,0,0,0,1,triangle,star,,,,,,,,,,,,,,,,,,,,,,,,,,,,,,,,,,,,,,,,,,,,,,,,,,
295660,2022-11-15_14h28.55.910,vts_reward_expectancy_bt,2022.2.4,Win32,60.0240096,Chrome,1920,1080,,,l,1.7452,10,468,2,1,5,17,1,1,1,0,0,0,0,0,1,0,triangle,hexagon,,,,,,,,,,,,,,,,,,,,,,,,,,,,,,,,,,,,,,,,,,,,,,,,,,
295660,2022-11-15_14h28.55.910,vts_reward_expectancy_bt,2022.2.4,Win32,60.0240096,Chrome,1920,1080,,,a,2.5519,10,478,2,1,6,18,11,1,0,0,0,1,0,0,1,0,star,hexagon,,,,,,,,,,,,,,,,,,,,,,,,,,,,,,,,,,,,,,,,,,,,,,,,,,
295660,2022-11-15_14h28.55.910,vts_reward_expectancy_bt,2022.2.4,Win32,60.0240096,Chrome,1920,1080,,,l,0.8442,1,479,2,1,7,19,5,1,0,1,0,0,0,0,0,1,circle,star,,,,,,,,,,,,,,,,,,,,,,,,,,,,,,,,,,,,,,,,,,,,,,,,,,
295660,2022-11-15_14h28.55.910,vts_reward_expectancy_bt,2022.2.4,Win32,60.0240096,Chrome,1920,1080,,,a,0.6057,1,480,2,1,8,20,9,1,0,0,0,1,1,0,0,0,star,triangle,,,,,,,,,,,,,,,,,,,,,,,,,,,,,,,,,,,,,,,,,,,,,,,,,,
295660,2022-11-15_14h28.55.910,vts_reward_expectancy_bt,2022.2.4,Win32,60.0240096,Chrome,1920,1080,,,l,2.0683,10,490,2,1,9,21,3,1,0,1,0,0,1,0,0,0,circle,triangle,,,,,,,,,,,,,,,,,,,,,,,,,,,,,,,,,,,,,,,,,,,,,,,,,,
295660,2022-11-15_14h28.55.910,vts_reward_expectancy_bt,2022.2.4,Win32,60.0240096,Chrome,1920,1080,,,l,1.2291,1,491,2,1,10,22,6,1,0,0,1,0,1,0,0,0,hexagon,triangle,,,,,,,,,,,,,,,,,,,,,,,,,,,,,,,,,,,,,,,,,,,,,,,,,,
295660,2022-11-15_14h28.55.910,vts_reward_expectancy_bt,2022.2.4,Win32,60.0240096,Chrome,1920,1080,,,l,1.1796,1,492,2,1,11,23,10,1,0,0,0,1,0,1,0,0,star ,circle,,,,,,,,,,,,,,,,,,,,,,,,,,,,,,,,,,,,,,,,,,,,,,,,,,
295660,2022-11-15_14h28.55.910,vts_reward_expectancy_bt,2022.2.4,Win32,60.0240096,Chrome,1920,1080,,,l,1.4799,1,493,2,2,0,24,8,1,0,0,1,0,0,0,0,1,hexagon,star,,,,,,,,,,,,,,,,,,,,,,,,,,,,,,,,,,,,,,,,,,,,,,,,,,
295660,2022-11-15_14h28.55.910,vts_reward_expectancy_bt,2022.2.4,Win32,60.0240096,Chrome,1920,1080,,,a,0.7674,1,494,2,2,1,25,5,1,0,1,0,0,0,0,0,1,circle,star,,,,,,,,,,,,,,,,,,,,,,,,,,,,,,,,,,,,,,,,,,,,,,,,,,
295660,2022-11-15_14h28.55.910,vts_reward_expectancy_bt,2022.2.4,Win32,60.0240096,Chrome,1920,1080,,,l,0.9883,1,495,2,2,2,26,6,1,0,0,1,0,1,0,0,0,hexagon,triangle,,,,,,,,,,,,,,,,,,,,,,,,,,,,,,,,,,,,,,,,,,,,,,,,,,
295660,2022-11-15_14h28.55.910,vts_reward_expectancy_bt,2022.2.4,Win32,60.0240096,Chrome,1920,1080,,,l,0.7192,10,505,2,2,3,27,1,1,1,0,0,0,0,0,1,0,triangle,hexagon,,,,,,,,,,,,,,,,,,,,,,,,,,,,,,,,,,,,,,,,,,,,,,,,,,
295660,2022-11-15_14h28.55.910,vts_reward_expectancy_bt,2022.2.4,Win32,60.0240096,Chrome,1920,1080,,,a,0.8405,1,506,2,2,4,28,3,1,0,1,0,0,1,0,0,0,circle,triangle,,,,,,,,,,,,,,,,,,,,,,,,,,,,,,,,,,,,,,,,,,,,,,,,,,
295660,2022-11-15_14h28.55.910,vts_reward_expectancy_bt,2022.2.4,Win32,60.0240096,Chrome,1920,1080,,,l,0.5155,1,507,2,2,5,29,10,1,0,0,0,1,0,1,0,0,star ,circle,,,,,,,,,,,,,,,,,,,,,,,,,,,,,,,,,,,,,,,,,,,,,,,,,,
295660,2022-11-15_14h28.55.910,vts_reward_expectancy_bt,2022.2.4,Win32,60.0240096,Chrome,1920,1080,,,l,0.6131,1,508,2,2,6,30,7,1,0,0,1,0,0,1,0,0,hexagon,circle,,,,,,,,,,,,,,,,,,,,,,,,,,,,,,,,,,,,,,,,,,,,,,,,,,
295660,2022-11-15_14h28.55.910,vts_reward_expectancy_bt,2022.2.4,Win32,60.0240096,Chrome,1920,1080,,,a,1.0876,1,509,2,2,7,31,0,1,1,0,0,0,0,1,0,0,triangle,circle,,,,,,,,,,,,,,,,,,,,,,,,,,,,,,,,,,,,,,,,,,,,,,,,,,
295660,2022-11-15_14h28.55.910,vts_reward_expectancy_bt,2022.2.4,Win32,60.0240096,Chrome,1920,1080,,,l,1.6994,1,510,2,2,8,32,2,1,1,0,0,0,0,0,0,1,triangle,star,,,,,,,,,,,,,,,,,,,,,,,,,,,,,,,,,,,,,,,,,,,,,,,,,,
295660,2022-11-15_14h28.55.910,vts_reward_expectancy_bt,2022.2.4,Win32,60.0240096,Chrome,1920,1080,,,a,1.3371,10,520,2,2,9,33,4,1,0,1,0,0,0,0,1,0,circle,hexagon,,,,,,,,,,,,,,,,,,,,,,,,,,,,,,,,,,,,,,,,,,,,,,,,,,
295660,2022-11-15_14h28.55.910,vts_reward_expectancy_bt,2022.2.4,Win32,60.0240096,Chrome,1920,1080,,,l,2.2115,1,521,2,2,10,34,9,1,0,0,0,1,1,0,0,0,star,triangle,,,,,,,,,,,,,,,,,,,,,,,,,,,,,,,,,,,,,,,,,,,,,,,,,,
295660,2022-11-15_14h28.55.910,vts_reward_expectancy_bt,2022.2.4,Win32,60.0240096,Chrome,1920,1080,,,a,0.6607,10,531,2,2,11,35,11,1,0,0,0,1,0,0,1,0,star,hexagon,,,,,,,,,,,,,,,,,,,,,,,,,,,,,,,,,,,,,,,,,,,,,,,,,,
295660,2022-11-15_14h28.55.910,vts_reward_expectancy_bt,2022.2.4,Win32,60.0240096,Chrome,1920,1080,,,,,,,,,,,,,,,,,,,,,,,174,U,star,1,0,f,1.2186,0,0,0,0,0,1,,,,,,,,,,,,,,,,,,,,,,,,,,,,,,,,,,,,,
295660,2022-11-15_14h28.55.910,vts_reward_expectancy_bt,2022.2.4,Win32,60.0240096,Chrome,1920,1080,,,,,,,,,,,,,,,,,,,,,,,167,H,circle,1,0,f,0.5653,0,1,0,1,0,1,,,,,,,,,,,,,,,,,,,,,,,,,,,,,,,,,,,,,
295660,2022-11-15_14h28.55.910,vts_reward_expectancy_bt,2022.2.4,Win32,60.0240096,Chrome,1920,1080,,,,,,,,,,,,,,,,,,,,,,,125,F,hexagon,1,0,d,0.5338,0,2,0,2,0,1,,,,,,,,,,,,,,,,,,,,,,,,,,,,,,,,,,,,,
295660,2022-11-15_14h28.55.910,vts_reward_expectancy_bt,2022.2.4,Win32,60.0240096,Chrome,1920,1080,,,,,,,,,,,,,,,,,,,,,,,139,S,triangle,1,0,d,1.188,0,3,0,3,0,1,,,,,,,,,,,,,,,,,,,,,,,,,,,,,,,,,,,,,
295660,2022-11-15_14h28.55.910,vts_reward_expectancy_bt,2022.2.4,Win32,60.0240096,Chrome,1920,1080,,,,,,,,,,,,,,,,,,,,,,,181,D,star,1,0,f,0.5494,0,4,0,4,0,1,,,,,,,,,,,,,,,,,,,,,,,,,,,,,,,,,,,,,
295660,2022-11-15_14h28.55.910,vts_reward_expectancy_bt,2022.2.4,Win32,60.0240096,Chrome,1920,1080,,,,,,,,,,,,,,,,,,,,,,,146,W,circle,1,0,d,0.7734,0,5,0,5,0,1,,,,,,,,,,,,,,,,,,,,,,,,,,,,,,,,,,,,,
295660,2022-11-15_14h28.55.910,vts_reward_expectancy_bt,2022.2.4,Win32,60.0240096,Chrome,1920,1080,,,,,,,,,,,,,,,,,,,,,,,132,B,hexagon,1,0,d,0.6121,0,6,0,6,0,1,,,,,,,,,,,,,,,,,,,,,,,,,,,,,,,,,,,,,
295660,2022-11-15_14h28.55.910,vts_reward_expectancy_bt,2022.2.4,Win32,60.0240096,Chrome,1920,1080,,,,,,,,,,,,,,,,,,,,,,,160,Y,triangle,1,0,f,0.518,0,7,0,7,0,1,,,,,,,,,,,,,,,,,,,,,,,,,,,,,,,,,,,,,
295660,2022-11-15_14h28.55.910,vts_reward_expectancy_bt,2022.2.4,Win32,60.0240096,Chrome,1920,1080,,,,,,,,,,,,,,,,,,,,,,,174,U,circle,1,0,f,0.4596,0,8,0,8,0,1,,,,,,,,,,,,,,,,,,,,,,,,,,,,,,,,,,,,,
295660,2022-11-15_14h28.55.910,vts_reward_expectancy_bt,2022.2.4,Win32,60.0240096,Chrome,1920,1080,,,,,,,,,,,,,,,,,,,,,,,167,H,triangle,1,0,f,0.6011,0,9,0,9,0,1,,,,,,,,,,,,,,,,,,,,,,,,,,,,,,,,,,,,,
295660,2022-11-15_14h28.55.910,vts_reward_expectancy_bt,2022.2.4,Win32,60.0240096,Chrome,1920,1080,,,,,,,,,,,,,,,,,,,,,,,146,D,triangle,1,0,,,1,,,,,,j,1.2483,0,0,0,0,1,,,,,,,,,,,,,,,,,,,,,,,,,,,,,,
295660,2022-11-15_14h28.55.910,vts_reward_expectancy_bt,2022.2.4,Win32,60.0240096,Chrome,1920,1080,,,,,,,,,,,,,,,,,,,,,,,139,F,hexagon,1,0,,,1,,,,,,j,1.3142,1,0,1,0,1,,,,,,,,,,,,,,,,,,,,,,,,,,,,,,
295660,2022-11-15_14h28.55.910,vts_reward_expectancy_bt,2022.2.4,Win32,60.0240096,Chrome,1920,1080,,,,,,,,,,,,,,,,,,,,,,,174,U,circle,1,0,,,1,,,,,,k,0.6948,2,0,2,0,1,,,,,,,,,,,,,,,,,,,,,,,,,,,,,,
295660,2022-11-15_14h28.55.910,vts_reward_expectancy_bt,2022.2.4,Win32,60.0240096,Chrome,1920,1080,,,,,,,,,,,,,,,,,,,,,,,181,Y,star,1,0,,,1,,,,,,k,0.7153,3,0,3,0,1,,,,,,,,,,,,,,,,,,,,,,,,,,,,,,
295660,2022-11-15_14h28.55.910,vts_reward_expectancy_bt,2022.2.4,Win32,60.0240096,Chrome,1920,1080,,,,,,,,,,,,,,,,,,,,,,,160,W,triangle,1,0,,,1,,,,,,k,0.7381,4,0,4,0,1,,,,,,,,,,,,,,,,,,,,,,,,,,,,,,
295660,2022-11-15_14h28.55.910,vts_reward_expectancy_bt,2022.2.4,Win32,60.0240096,Chrome,1920,1080,,,,,,,,,,,,,,,,,,,,,,,125,S,hexagon,0,0,,,1,,,,,,j,1.642,5,0,5,0,1,,,,,,,,,,,,,,,,,,,,,,,,,,,,,,
295660,2022-11-15_14h28.55.910,vts_reward_expectancy_bt,2022.2.4,Win32,60.0240096,Chrome,1920,1080,,,,,,,,,,,,,,,,,,,,,,,167,H,circle,1,1,,,1,,,,,,j,0.6154,6,0,6,0,1,,,,,,,,,,,,,,,,,,,,,,,,,,,,,,
295660,2022-11-15_14h28.55.910,vts_reward_expectancy_bt,2022.2.4,Win32,60.0240096,Chrome,1920,1080,,,,,,,,,,,,,,,,,,,,,,,132,B,star,1,0,,,1,,,,,,j,0.7376,7,0,7,0,1,,,,,,,,,,,,,,,,,,,,,,,,,,,,,,
295660,2022-11-15_14h28.55.910,vts_reward_expectancy_bt,2022.2.4,Win32,60.0240096,Chrome,1920,1080,,,,,,,,,,,,,,,,,,,,,,,146,D,circle,1,0,,,1,,,,,,j,0.7659,8,0,8,0,1,,,,,,,,,,,,,,,,,,,,,,,,,,,,,,
295660,2022-11-15_14h28.55.910,vts_reward_expectancy_bt,2022.2.4,Win32,60.0240096,Chrome,1920,1080,,,,,,,,,,,,,,,,,,,,,,,139,F,star,1,0,,,1,,,,,,j,0.8238,9,0,9,0,1,,,,,,,,,,,,,,,,,,,,,,,,,,,,,,
295660,2022-11-15_14h28.55.910,vts_reward_expectancy_bt,2022.2.4,Win32,60.0240096,Chrome,1920,1080,,,,,0,531,,,,,,,,,,,,,,,,,139,W,triangle,1,0,,,2,,,,,,,,,,,,,-1,number,NA,d,1.1372,vtsPrac,0,0,0,0,1,,,,,,,,,,,,,,,,,,,
295660,2022-11-15_14h28.55.910,vts_reward_expectancy_bt,2022.2.4,Win32,60.0240096,Chrome,1920,1080,,,,,0,531,,,,,,,,,,,,,,,,,181,H,hexagon,1,0,,,2,,,,,,,,,,,,,switch,letter,lettSwt,j,1.1417,vtsPrac,1,0,1,0,1,,,,,,,,,,,,,,,,,,,
295660,2022-11-15_14h28.55.910,vts_reward_expectancy_bt,2022.2.4,Win32,60.0240096,Chrome,1920,1080,,,,,0,531,,,,,,,,,,,,,,,,,132,Y,triangle,1,0,,,2,,,,,,,,,,,,,repeat,letter,lettRpt,k,0.8294,vtsPrac,2,0,2,0,1,,,,,,,,,,,,,,,,,,,
295660,2022-11-15_14h28.55.910,vts_reward_expectancy_bt,2022.2.4,Win32,60.0240096,Chrome,1920,1080,,,,,0,531,,,,,,,,,,,,,,,,,146,U,hexagon,1,0,,,2,,,,,,,,,,,,,repeat,letter,lettRpt,k,0.9607,vtsPrac,3,0,3,0,1,,,,,,,,,,,,,,,,,,,
295660,2022-11-15_14h28.55.910,vts_reward_expectancy_bt,2022.2.4,Win32,60.0240096,Chrome,1920,1080,,,,,0,531,,,,,,,,,,,,,,,,,139,W,triangle,1,0,,,2,,,,,,,,,,,,,repeat,letter,lettRpt,k,1.099,vtsPrac,4,0,4,0,1,,,,,,,,,,,,,,,,,,,
295660,2022-11-15_14h28.55.910,vts_reward_expectancy_bt,2022.2.4,Win32,60.0240096,Chrome,1920,1080,,,,,0,531,,,,,,,,,,,,,,,,,181,H,star,1,0,,,2,,,,,,,,,,,,,switch,number,numSwt,f,0.7427,vtsPrac,5,0,5,0,1,,,,,,,,,,,,,,,,,,,
295660,2022-11-15_14h28.55.910,vts_reward_expectancy_bt,2022.2.4,Win32,60.0240096,Chrome,1920,1080,,,,,0,531,,,,,,,,,,,,,,,,,132,Y,star,1,0,,,2,,,,,,,,,,,,,repeat,number,numRpt,d,0.7981,vtsPrac,6,0,6,0,1,,,,,,,,,,,,,,,,,,,
295660,2022-11-15_14h28.55.910,vts_reward_expectancy_bt,2022.2.4,Win32,60.0240096,Chrome,1920,1080,,,,,0,531,,,,,,,,,,,,,,,,,146,U,hexagon,1,0,,,2,,,,,,,,,,,,,repeat,number,numRpt,d,0.9878,vtsPrac,7,0,7,0,1,,,,,,,,,,,,,,,,,,,
295660,2022-11-15_14h28.55.910,vts_reward_expectancy_bt,2022.2.4,Win32,60.0240096,Chrome,1920,1080,,,,,0,531,,,,,,,,,,,,,,,,,125,H,hexagon,1,0,,,2,,,,,,,,,,,,,repeat,number,numRpt,d,0.831,vtsPrac,8,0,8,0,1,,,,,,,,,,,,,,,,,,,
295660,2022-11-15_14h28.55.910,vts_reward_expectancy_bt,2022.2.4,Win32,60.0240096,Chrome,1920,1080,,,,,0,531,,,,,,,,,,,,,,,,,160,W,star,1,0,,,2,,,,,,,,,,,,,switch,letter,lettSwt,k,0.6825,vtsPrac,9,0,9,0,1,,,,,,,,,,,,,,,,,,,
295660,2022-11-15_14h28.55.910,vts_reward_expectancy_bt,2022.2.4,Win32,60.0240096,Chrome,1920,1080,,,,,0,531,,,,,,,,,,,,,,,,,146,F,star,0,0,,,2,,,,,,,,,,,,,repeat,letter,NA,k,1.1157,vtsPrac,10,0,10,0,1,,,,,,,,,,,,,,,,,,,
295660,2022-11-15_14h28.55.910,vts_reward_expectancy_bt,2022.2.4,Win32,60.0240096,Chrome,1920,1080,,,,,0,531,,,,,,,,,,,,,,,,,132,Y,circle,1,1,,,2,,,,,,,,,,,,,repeat,letter,lettRpt,k,0.7226,vtsPrac,11,0,11,0,1,,,,,,,,,,,,,,,,,,,
295660,2022-11-15_14h28.55.910,vts_reward_expectancy_bt,2022.2.4,Win32,60.0240096,Chrome,1920,1080,,,,,0,531,,,,,,,,,,,,,,,,,181,B,circle,1,0,,,2,,,,,,,,,,,,,repeat,letter,lettRpt,j,0.8788,vtsPrac,12,0,12,0,1,,,,,,,,,,,,,,,,,,,
295660,2022-11-15_14h28.55.910,vts_reward_expectancy_bt,2022.2.4,Win32,60.0240096,Chrome,1920,1080,,,,,0,531,,,,,,,,,,,,,,,,,167,S,hexagon,1,0,,,2,,,,,,,,,,,,,switch,number,numSwt,f,0.8719,vtsPrac,13,0,13,0,1,,,,,,,,,,,,,,,,,,,
295660,2022-11-15_14h28.55.910,vts_reward_expectancy_bt,2022.2.4,Win32,60.0240096,Chrome,1920,1080,,,,,0,531,,,,,,,,,,,,,,,,,139,W,triangle,1,0,,,2,,,,,,,,,,,,,repeat,number,numRpt,d,0.6525,vtsPrac,14,0,14,0,1,,,,,,,,,,,,,,,,,,,
295660,2022-11-15_14h28.55.910,vts_reward_expectancy_bt,2022.2.4,Win32,60.0240096,Chrome,1920,1080,,,,,0,531,,,,,,,,,,,,,,,,,174,U,circle,1,0,,,2,,,,,,,,,,,,,repeat,number,numRpt,f,0.8242,vtsPrac,15,0,15,0,1,,,,,,,,,,,,,,,,,,,
295660,2022-11-15_14h28.55.910,vts_reward_expectancy_bt,2022.2.4,Win32,60.0240096,Chrome,1920,1080,,,,,0,531,,,,,,,,,,,,,,,,,181,S,hexagon,1,0,,,2,,,,,,,,,,,,,repeat,number,numRpt,f,0.6929,vtsPrac,16,0,16,0,1,,,,,,,,,,,,,,,,,,,
295660,2022-11-15_14h28.55.910,vts_reward_expectancy_bt,2022.2.4,Win32,60.0240096,Chrome,1920,1080,,,,,0,531,,,,,,,,,,,,,,,,,125,U,star,0,0,,,2,,,,,,,,,,,,,switch,letter,NA,j,1.1038,vtsPrac,17,0,17,0,1,,,,,,,,,,,,,,,,,,,
295660,2022-11-15_14h28.55.910,vts_reward_expectancy_bt,2022.2.4,Win32,60.0240096,Chrome,1920,1080,,,,,0,531,,,,,,,,,,,,,,,,,139,W,star,1,1,,,2,,,,,,,,,,,,,repeat,letter,lettRpt,k,0.6758,vtsPrac,18,0,18,0,1,,,,,,,,,,,,,,,,,,,
295660,2022-11-15_14h28.55.910,vts_reward_expectancy_bt,2022.2.4,Win32,60.0240096,Chrome,1920,1080,,,,,0,531,,,,,,,,,,,,,,,,,160,H,triangle,1,0,,,2,,,,,,,,,,,,,repeat,letter,lettRpt,j,0.999,vtsPrac,19,0,19,0,1,,,,,,,,,,,,,,,,,,,
295660,2022-11-15_14h28.55.910,vts_reward_expectancy_bt,2022.2.4,Win32,60.0240096,Chrome,1920,1080,,,,,0,531,,,,,,,,,,,,,,,,,132,U,hexagon,1,0,,,2,,,,,,,,,,,,,repeat,letter,lettRpt,k,2.1074,vtsPrac,20,0,20,0,1,,,,,,,,,,,,,,,,,,,
295660,2022-11-15_14h28.55.910,vts_reward_expectancy_bt,2022.2.4,Win32,60.0240096,Chrome,1920,1080,,,,,0,531,,,,,,,,,,,,,,,,,160,H,circle,1,0,,,2,,,,,,,,,,,,,switch,number,numSwt,f,2.0459,vtsPrac,21,0,21,0,1,,,,,,,,,,,,,,,,,,,
295660,2022-11-15_14h28.55.910,vts_reward_expectancy_bt,2022.2.4,Win32,60.0240096,Chrome,1920,1080,,,,,0,531,,,,,,,,,,,,,,,,,139,S,hexagon,1,0,,,2,,,,,,,,,,,,,repeat,number,numRpt,d,0.6456,vtsPrac,22,0,22,0,1,,,,,,,,,,,,,,,,,,,
295660,2022-11-15_14h28.55.910,vts_reward_expectancy_bt,2022.2.4,Win32,60.0240096,Chrome,1920,1080,,,,,0,531,,,,,,,,,,,,,,,,,146,D,triangle,1,0,,,2,,,,,,,,,,,,,repeat,number,numRpt,d,1.8175,vtsPrac,23,0,23,0,1,,,,,,,,,,,,,,,,,,,
295660,2022-11-15_14h28.55.910,vts_reward_expectancy_bt,2022.2.4,Win32,60.0240096,Chrome,1920,1080,,,,,0,531,,,,,,,,,,,,,,,,,174,W,circle,1,0,,,2,,,,,,,,,,,,,repeat,number,numRpt,f,0.6823,vtsPrac,24,0,24,0,1,,,,,,,,,,,,,,,,,,,
295660,2022-11-15_14h28.55.910,vts_reward_expectancy_bt,2022.2.4,Win32,60.0240096,Chrome,1920,1080,,,,,0,531,,,,,,,,,,,,,,,,,160,D,triangle,1,0,,,2,,,,,,,,,,,,,repeat,number,numRpt,f,0.7725,vtsPrac,25,0,25,0,1,,,,,,,,,,,,,,,,,,,
295660,2022-11-15_14h28.55.910,vts_reward_expectancy_bt,2022.2.4,Win32,60.0240096,Chrome,1920,1080,,,,,0,531,,,,,,,,,,,,,,,,,167,U,triangle,1,0,,,2,,,,,,,,,,,,,switch,letter,lettSwt,k,1.3337,vtsPrac,26,0,26,0,1,,,,,,,,,,,,,,,,,,,
295660,2022-11-15_14h28.55.910,vts_reward_expectancy_bt,2022.2.4,Win32,60.0240096,Chrome,1920,1080,,,,,0,531,,,,,,,,,,,,,,,,,132,B,star,1,0,,,2,,,,,,,,,,,,,repeat,letter,lettRpt,j,1.3525,vtsPrac,27,0,27,0,1,,,,,,,,,,,,,,,,,,,
295660,2022-11-15_14h28.55.910,vts_reward_expectancy_bt,2022.2.4,Win32,60.0240096,Chrome,1920,1080,,,,,0,531,,,,,,,,,,,,,,,,,132,H,triangle,1,0,,,2,,,,,,,,,,,,,repeat,letter,lettRpt,j,1.2888,vtsPrac,28,0,28,0,1,,,,,,,,,,,,,,,,,,,
295660,2022-11-15_14h28.55.910,vts_reward_expectancy_bt,2022.2.4,Win32,60.0240096,Chrome,1920,1080,,,,,0,531,,,,,,,,,,,,,,,,,174,F,star,0,0,,,2,,,,,,,,,,,,,repeat,letter,NA,k,1.2661,vtsPrac,29,0,29,0,1,,,,,,,,,,,,,,,,,,,
295660,2022-11-15_14h28.55.910,vts_reward_expectancy_bt,2022.2.4,Win32,60.0240096,Chrome,1920,1080,,,,,0,531,,,,,,,,,,,,,,,,,167,D,star,1,1,,,2,,,,,,,,,,,,,switch,number,numSwt,f,2.9578,vtsPrac,30,0,30,0,1,,,,,,,,,,,,,,,,,,,
295660,2022-11-15_14h28.55.910,vts_reward_expectancy_bt,2022.2.4,Win32,60.0240096,Chrome,1920,1080,,,,,0,531,,,,,,,,,,,,,,,,,181,W,hexagon,1,0,,,2,,,,,,,,,,,,,repeat,number,numRpt,f,0.6488,vtsPrac,31,0,31,0,1,,,,,,,,,,,,,,,,,,,
295660,2022-11-15_14h28.55.910,vts_reward_expectancy_bt,2022.2.4,Win32,60.0240096,Chrome,1920,1080,,,,,,,,,,,,,,,,,,,,,,,,,,,,,,,,,,,,,,,,,,,,,,,,,,,,,,,,,,,,,,,,,,,,,,,,
295660,2022-11-15_14h28.55.910,vts_reward_expectancy_bt,2022.2.4,Win32,60.0240096,Chrome,1920,1080,,,,,,,,,,,,,,,,,,,,,,,,,,,,,,,,,,,,,,,,,,,,,,,,,,,,,,,,,,,,,,,,,,,,,,,,
295660,2022-11-15_14h28.55.910,vts_reward_expectancy_bt,2022.2.4,Win32,60.0240096,Chrome,1920,1080,,,,,0,531,,,,,,,,,,,,,,,,,167,U,circle,1,0,,,,,,,,,,,,,,,,repeat,number,numRpt,f,0.9564,noRew,,,,,,0,0,0,0,0,1,,,,,,,,,,,,,
295660,2022-11-15_14h28.55.910,vts_reward_expectancy_bt,2022.2.4,Win32,60.0240096,Chrome,1920,1080,,,,,0,531,,,,,,,,,,,,,,,,,160,D,star,1,0,,,,,,,,,,,,,,,,switch,letter,lettSwt,j,1.1775,noRew,,,,,,0,1,0,1,0,1,,,,,,,,,,,,,
295660,2022-11-15_14h28.55.910,vts_reward_expectancy_bt,2022.2.4,Win32,60.0240096,Chrome,1920,1080,,,,,0,531,,,,,,,,,,,,,,,,,146,Y,circle,0,0,,,,,,,,,,,,,,,,switch,number,NA,f,1.823,noRew,,,,,,0,2,0,2,0,1,,,,,,,,,,,,,
295660,2022-11-15_14h28.55.910,vts_reward_expectancy_bt,2022.2.4,Win32,60.0240096,Chrome,1920,1080,,,,,0,531,,,,,,,,,,,,,,,,,174,H,star,1,1,,,,,,,,,,,,,,,,repeat,number,numRpt,f,1.0178,noRew,,,,,,0,3,0,3,0,1,,,,,,,,,,,,,
295660,2022-11-15_14h28.55.910,vts_reward_expectancy_bt,2022.2.4,Win32,60.0240096,Chrome,1920,1080,,,,,0,531,,,,,,,,,,,,,,,,,167,U,star,1,0,,,,,,,,,,,,,,,,switch,letter,lettSwt,k,1.1319,noRew,,,,,,0,4,0,4,0,1,,,,,,,,,,,,,
295660,2022-11-15_14h28.55.910,vts_reward_expectancy_bt,2022.2.4,Win32,60.0240096,Chrome,1920,1080,,,,,0,531,,,,,,,,,,,,,,,,,160,D,circle,1,0,,,,,,,,,,,,,,,,switch,number,numSwt,f,0.7003,noRew,,,,,,0,5,0,5,0,1,,,,,,,,,,,,,
295660,2022-11-15_14h28.55.910,vts_reward_expectancy_bt,2022.2.4,Win32,60.0240096,Chrome,1920,1080,,,,,0,531,,,,,,,,,,,,,,,,,146,Y,circle,1,0,,,,,,,,,,,,,,,,repeat,number,numRpt,d,2.0348,noRew,,,,,,0,6,0,6,0,1,,,,,,,,,,,,,
295660,2022-11-15_14h28.55.910,vts_reward_expectancy_bt,2022.2.4,Win32,60.0240096,Chrome,1920,1080,,,,,0,531,,,,,,,,,,,,,,,,,174,H,triangle,1,0,,,,,,,,,,,,,,,,switch,letter,lettSwt,j,0.9598,noRew,,,,,,0,7,0,7,0,1,,,,,,,,,,,,,
295660,2022-11-15_14h28.55.910,vts_reward_expectancy_bt,2022.2.4,Win32,60.0240096,Chrome,1920,1080,,,,,0,531,,,,,,,,,,,,,,,,,146,D,star,1,0,,,,,,,,,,,,,,,,repeat,letter,lettRpt,j,1.5663,noRew,,,,,,0,8,0,8,0,1,,,,,,,,,,,,,
295660,2022-11-15_14h28.55.910,vts_reward_expectancy_bt,2022.2.4,Win32,60.0240096,Chrome,1920,1080,,,,,0,531,,,,,,,,,,,,,,,,,160,H,circle,1,0,,,,,,,,,,,,,,,,switch,number,numSwt,f,0.9854,noRew,,,,,,0,9,0,9,0,1,,,,,,,,,,,,,
295660,2022-11-15_14h28.55.910,vts_reward_expectancy_bt,2022.2.4,Win32,60.0240096,Chrome,1920,1080,,,,,0,531,,,,,,,,,,,,,,,,,181,W,star,1,0,,,,,,,,,,,,,,,,repeat,number,numRpt,f,0.5495,noRew,,,,,,0,10,0,10,0,1,,,,,,,,,,,,,
295660,2022-11-15_14h28.55.910,vts_reward_expectancy_bt,2022.2.4,Win32,60.0240096,Chrome,1920,1080,,,,,0,531,,,,,,,,,,,,,,,,,174,F,hexagon,1,0,,,,,,,,,,,,,,,,switch,letter,lettSwt,j,1.237,noRew,,,,,,0,11,0,11,0,1,,,,,,,,,,,,,
295660,2022-11-15_14h28.55.910,vts_reward_expectancy_bt,2022.2.4,Win32,60.0240096,Chrome,1920,1080,,,,,0,531,,,,,,,,,,,,,,,,,139,W,triangle,1,0,,,,,,,,,,,,,,,,repeat,letter,lettRpt,k,1.1735,noRew,,,,,,0,12,0,12,0,1,,,,,,,,,,,,,
295660,2022-11-15_14h28.55.910,vts_reward_expectancy_bt,2022.2.4,Win32,60.0240096,Chrome,1920,1080,,,,,0,531,,,,,,,,,,,,,,,,,160,D,circle,1,0,,,,,,,,,,,,,,,,repeat,letter,lettRpt,j,0.7609,noRew,,,,,,0,13,0,13,0,1,,,,,,,,,,,,,
295660,2022-11-15_14h28.55.910,vts_reward_expectancy_bt,2022.2.4,Win32,60.0240096,Chrome,1920,1080,,,,,0,531,,,,,,,,,,,,,,,,,146,U,star,1,0,,,,,,,,,,,,,,,,switch,number,numSwt,d,1.5741,noRew,,,,,,0,14,0,14,0,1,,,,,,,,,,,,,
295660,2022-11-15_14h28.55.910,vts_reward_expectancy_bt,2022.2.4,Win32,60.0240096,Chrome,1920,1080,,,,,0,531,,,,,,,,,,,,,,,,,174,F,triangle,1,0,,,,,,,,,,,,,,,,repeat,number,numRpt,f,1.1481,noRew,,,,,,0,15,0,15,0,1,,,,,,,,,,,,,
295660,2022-11-15_14h28.55.910,vts_reward_expectancy_bt,2022.2.4,Win32,60.0240096,Chrome,1920,1080,,,,,0,531,,,,,,,,,,,,,,,,,132,F,circle,1,0,,,,,,,,,,,,,,,,switch,letter,lettSwt,j,1.0784,noRew,,,,,,0,16,0,16,0,1,,,,,,,,,,,,,
295660,2022-11-15_14h28.55.910,vts_reward_expectancy_bt,2022.2.4,Win32,60.0240096,Chrome,1920,1080,,,,,0,531,,,,,,,,,,,,,,,,,167,U,star,1,0,,,,,,,,,,,,,,,,switch,number,numSwt,f,0.8838,noRew,,,,,,0,17,0,17,0,1,,,,,,,,,,,,,
295660,2022-11-15_14h28.55.910,vts_reward_expectancy_bt,2022.2.4,Win32,60.0240096,Chrome,1920,1080,,,,,0,531,,,,,,,,,,,,,,,,,125,D,star,1,0,,,,,,,,,,,,,,,,repeat,number,numRpt,d,1.6653,noRew,,,,,,0,18,0,18,0,1,,,,,,,,,,,,,
295660,2022-11-15_14h28.55.910,vts_reward_expectancy_bt,2022.2.4,Win32,60.0240096,Chrome,1920,1080,,,,,0,531,,,,,,,,,,,,,,,,,181,H,triangle,1,0,,,,,,,,,,,,,,,,switch,letter,lettSwt,j,0.7158,noRew,,,,,,0,19,0,19,0,1,,,,,,,,,,,,,
295660,2022-11-15_14h28.55.910,vts_reward_expectancy_bt,2022.2.4,Win32,60.0240096,Chrome,1920,1080,,,,,0,531,,,,,,,,,,,,,,,,,146,B,circle,1,0,,,,,,,,,,,,,,,,repeat,letter,lettRpt,j,0.6815,noRew,,,,,,0,20,0,20,0,1,,,,,,,,,,,,,
295660,2022-11-15_14h28.55.910,vts_reward_expectancy_bt,2022.2.4,Win32,60.0240096,Chrome,1920,1080,,,,,0,531,,,,,,,,,,,,,,,,,181,F,hexagon,1,0,,,,,,,,,,,,,,,,switch,number,numSwt,f,0.5489,noRew,,,,,,0,21,0,21,0,1,,,,,,,,,,,,,
295660,2022-11-15_14h28.55.910,vts_reward_expectancy_bt,2022.2.4,Win32,60.0240096,Chrome,1920,1080,,,,,0,531,,,,,,,,,,,,,,,,,167,W,triangle,1,0,,,,,,,,,,,,,,,,switch,letter,lettSwt,k,0.8325,noRew,,,,,,0,22,0,22,0,1,,,,,,,,,,,,,
295660,2022-11-15_14h28.55.910,vts_reward_expectancy_bt,2022.2.4,Win32,60.0240096,Chrome,1920,1080,,,,,0,531,,,,,,,,,,,,,,,,,160,Y,star,1,0,,,,,,,,,,,,,,,,switch,number,numSwt,f,1.1991,noRew,,,,,,0,23,0,23,0,1,,,,,,,,,,,,,
295660,2022-11-15_14h28.55.910,vts_reward_expectancy_bt,2022.2.4,Win32,60.0240096,Chrome,1920,1080,,,,,0,531,,,,,,,,,,,,,,,,,167,U,triangle,1,0,,,,,,,,,,,,,,,,switch,letter,lettSwt,k,1.3488,noRew,,,,,,0,24,0,24,0,1,,,,,,,,,,,,,
295660,2022-11-15_14h28.55.910,vts_reward_expectancy_bt,2022.2.4,Win32,60.0240096,Chrome,1920,1080,,,,,0,531,,,,,,,,,,,,,,,,,181,W,circle,1,0,,,,,,,,,,,,,,,,switch,number,numSwt,f,0.6242,noRew,,,,,,0,25,0,25,0,1,,,,,,,,,,,,,
295660,2022-11-15_14h28.55.910,vts_reward_expectancy_bt,2022.2.4,Win32,60.0240096,Chrome,1920,1080,,,,,0,531,,,,,,,,,,,,,,,,,146,Y,hexagon,1,0,,,,,,,,,,,,,,,,switch,letter,lettSwt,k,0.835,noRew,,,,,,0,26,0,26,0,1,,,,,,,,,,,,,
295660,2022-11-15_14h28.55.910,vts_reward_expectancy_bt,2022.2.4,Win32,60.0240096,Chrome,1920,1080,,,,,0,531,,,,,,,,,,,,,,,,,174,H,star,0,0,,,,,,,,,,,,,,,,switch,number,NA,d,0.4316,noRew,,,,,,0,27,0,27,0,1,,,,,,,,,,,,,
295660,2022-11-15_14h28.55.910,vts_reward_expectancy_bt,2022.2.4,Win32,60.0240096,Chrome,1920,1080,,,,,0,531,,,,,,,,,,,,,,,,,139,B,hexagon,1,1,,,,,,,,,,,,,,,,repeat,number,numRpt,d,1.008,noRew,,,,,,0,28,0,28,0,1,,,,,,,,,,,,,
295660,2022-11-15_14h28.55.910,vts_reward_expectancy_bt,2022.2.4,Win32,60.0240096,Chrome,1920,1080,,,,,0,531,,,,,,,,,,,,,,,,,132,H,star,1,0,,,,,,,,,,,,,,,,switch,letter,lettSwt,j,1.8835,noRew,,,,,,0,29,0,29,0,1,,,,,,,,,,,,,
295660,2022-11-15_14h28.55.910,vts_reward_expectancy_bt,2022.2.4,Win32,60.0240096,Chrome,1920,1080,,,,,0,531,,,,,,,,,,,,,,,,,146,Y,circle,1,0,,,,,,,,,,,,,,,,repeat,letter,lettRpt,k,0.8504,noRew,,,,,,0,30,0,30,0,1,,,,,,,,,,,,,
295660,2022-11-15_14h28.55.910,vts_reward_expectancy_bt,2022.2.4,Win32,60.0240096,Chrome,1920,1080,,,,,0,531,,,,,,,,,,,,,,,,,181,S,hexagon,1,0,,,,,,,,,,,,,,,,switch,number,numSwt,f,1.0023,noRew,,,,,,0,31,0,31,0,1,,,,,,,,,,,,,
295660,2022-11-15_14h28.55.910,vts_reward_expectancy_bt,2022.2.4,Win32,60.0240096,Chrome,1920,1080,,,,,0,531,,,,,,,,,,,,,,,,,167,Y,star,1,0,,,,,,,,,,,,,,,,repeat,number,numRpt,f,0.7934,noRew,,,,,,0,32,0,32,0,1,,,,,,,,,,,,,
295660,2022-11-15_14h28.55.910,vts_reward_expectancy_bt,2022.2.4,Win32,60.0240096,Chrome,1920,1080,,,,,0,531,,,,,,,,,,,,,,,,,139,U,hexagon,1,0,,,,,,,,,,,,,,,,repeat,number,numRpt,d,0.691,noRew,,,,,,0,33,0,33,0,1,,,,,,,,,,,,,
295660,2022-11-15_14h28.55.910,vts_reward_expectancy_bt,2022.2.4,Win32,60.0240096,Chrome,1920,1080,,,,,0,531,,,,,,,,,,,,,,,,,146,S,hexagon,1,0,,,,,,,,,,,,,,,,switch,letter,lettSwt,k,0.8507,noRew,,,,,,0,34,0,34,0,1,,,,,,,,,,,,,
295660,2022-11-15_14h28.55.910,vts_reward_expectancy_bt,2022.2.4,Win32,60.0240096,Chrome,1920,1080,,,,,0,531,,,,,,,,,,,,,,,,,160,D,star,1,0,,,,,,,,,,,,,,,,switch,number,numSwt,f,0.5677,noRew,,,,,,0,35,0,35,0,1,,,,,,,,,,,,,
295660,2022-11-15_14h28.55.910,vts_reward_expectancy_bt,2022.2.4,Win32,60.0240096,Chrome,1920,1080,,,,,0,531,,,,,,,,,,,,,,,,,181,B,star,1,0,,,,,,,,,,,,,,,,repeat,number,numRpt,f,0.6747,noRew,,,,,,0,36,0,36,0,1,,,,,,,,,,,,,
295660,2022-11-15_14h28.55.910,vts_reward_expectancy_bt,2022.2.4,Win32,60.0240096,Chrome,1920,1080,,,,,0,531,,,,,,,,,,,,,,,,,139,D,triangle,1,0,,,,,,,,,,,,,,,,switch,letter,lettSwt,j,1.2006,noRew,,,,,,0,37,0,37,0,1,,,,,,,,,,,,,
295660,2022-11-15_14h28.55.910,vts_reward_expectancy_bt,2022.2.4,Win32,60.0240096,Chrome,1920,1080,,,,,0,531,,,,,,,,,,,,,,,,,146,U,star,1,0,,,,,,,,,,,,,,,,repeat,letter,lettRpt,k,1.1179,noRew,,,,,,0,38,0,38,0,1,,,,,,,,,,,,,
295660,2022-11-15_14h28.55.910,vts_reward_expectancy_bt,2022.2.4,Win32,60.0240096,Chrome,1920,1080,,,,,0,531,,,,,,,,,,,,,,,,,174,H,triangle,1,0,,,,,,,,,,,,,,,,switch,number,numSwt,f,0.702,noRew,,,,,,0,39,0,39,0,1,,,,,,,,,,,,,
295660,2022-11-15_14h28.55.910,vts_reward_expectancy_bt,2022.2.4,Win32,60.0240096,Chrome,1920,1080,,,,,0,531,,,,,,,,,,,,,,,,,160,U,circle,1,0,,,,,,,,,,,,,,,,repeat,number,numRpt,f,0.6988,noRew,,,,,,0,40,0,40,0,1,,,,,,,,,,,,,
295660,2022-11-15_14h28.55.910,vts_reward_expectancy_bt,2022.2.4,Win32,60.0240096,Chrome,1920,1080,,,,,0,531,,,,,,,,,,,,,,,,,139,W,triangle,1,0,,,,,,,,,,,,,,,,switch,letter,lettSwt,k,1.3322,noRew,,,,,,0,41,0,41,0,1,,,,,,,,,,,,,
295660,2022-11-15_14h28.55.910,vts_reward_expectancy_bt,2022.2.4,Win32,60.0240096,Chrome,1920,1080,,,,,0,531,,,,,,,,,,,,,,,,,125,B,star,1,0,,,,,,,,,,,,,,,,repeat,letter,lettRpt,j,1.1095,noRew,,,,,,0,42,0,42,0,1,,,,,,,,,,,,,
295660,2022-11-15_14h28.55.910,vts_reward_expectancy_bt,2022.2.4,Win32,60.0240096,Chrome,1920,1080,,,,,0,531,,,,,,,,,,,,,,,,,174,H,hexagon,1,0,,,,,,,,,,,,,,,,repeat,letter,lettRpt,j,1.1568,noRew,,,,,,0,43,0,43,0,1,,,,,,,,,,,,,
295660,2022-11-15_14h28.55.910,vts_reward_expectancy_bt,2022.2.4,Win32,60.0240096,Chrome,1920,1080,,,,,0,531,,,,,,,,,,,,,,,,,174,U,hexagon,-1,0,,,,,,,,,,,,,,,,switch,no_choice,NA,,,noRew,,,,,,0,44,0,44,0,1,,,,,,,,,,,,,
295660,2022-11-15_14h28.55.910,vts_reward_expectancy_bt,2022.2.4,Win32,60.0240096,Chrome,1920,1080,,,,,0,531,,,,,,,,,,,,,,,,,132,Y,star,1,0,,,,,,,,,,,,,,,,switch,number,numSwt,d,0.7356,noRew,,,,,,0,45,0,45,0,1,,,,,,,,,,,,,
295660,2022-11-15_14h28.55.910,vts_reward_expectancy_bt,2022.2.4,Win32,60.0240096,Chrome,1920,1080,,,,,0,531,,,,,,,,,,,,,,,,,160,F,star,0,0,,,,,,,,,,,,,,,,switch,letter,NA,k,0.6883,noRew,,,,,,0,46,0,46,0,1,,,,,,,,,,,,,
295660,2022-11-15_14h28.55.910,vts_reward_expectancy_bt,2022.2.4,Win32,60.0240096,Chrome,1920,1080,,,,,0,531,,,,,,,,,,,,,,,,,139,W,hexagon,1,1,,,,,,,,,,,,,,,,repeat,letter,lettRpt,k,0.7362,noRew,,,,,,0,47,0,47,0,1,,,,,,,,,,,,,
295660,2022-11-15_14h28.55.910,vts_reward_expectancy_bt,2022.2.4,Win32,60.0240096,Chrome,1920,1080,,,,,0,531,,,,,,,,,,,,,,,,,146,S,circle,1,0,,,,,,,,,,,,,,,,repeat,letter,lettRpt,k,0.6523,noRew,,,,,,0,48,0,48,0,1,,,,,,,,,,,,,
295660,2022-11-15_14h28.55.910,vts_reward_expectancy_bt,2022.2.4,Win32,60.0240096,Chrome,1920,1080,,,,,0,531,,,,,,,,,,,,,,,,,160,D,hexagon,0,0,,,,,,,,,,,,,,,,switch,number,NA,d,0.7227,noRew,,,,,,0,49,0,49,0,1,,,,,,,,,,,,,
295660,2022-11-15_14h28.55.910,vts_reward_expectancy_bt,2022.2.4,Win32,60.0240096,Chrome,1920,1080,,,,,0,531,,,,,,,,,,,,,,,,,125,H,hexagon,1,1,,,,,,,,,,,,,,,,repeat,number,numRpt,d,0.6658,noRew,,,,,,0,50,0,50,0,1,,,,,,,,,,,,,
295660,2022-11-15_14h28.55.910,vts_reward_expectancy_bt,2022.2.4,Win32,60.0240096,Chrome,1920,1080,,,,,0,531,,,,,,,,,,,,,,,,,181,U,star,1,0,,,,,,,,,,,,,,,,repeat,number,numRpt,f,0.7581,noRew,,,,,,0,51,0,51,0,1,,,,,,,,,,,,,
295660,2022-11-15_14h28.55.910,vts_reward_expectancy_bt,2022.2.4,Win32,60.0240096,Chrome,1920,1080,,,,,0,531,,,,,,,,,,,,,,,,,139,D,hexagon,1,0,,,,,,,,,,,,,,,,repeat,number,numRpt,d,0.7165,noRew,,,,,,0,52,0,52,0,1,,,,,,,,,,,,,
295660,2022-11-15_14h28.55.910,vts_reward_expectancy_bt,2022.2.4,Win32,60.0240096,Chrome,1920,1080,,,,,0,531,,,,,,,,,,,,,,,,,160,F,star,1,0,,,,,,,,,,,,,,,,switch,letter,lettSwt,j,1.8051,noRew,,,,,,0,53,0,53,0,1,,,,,,,,,,,,,
295660,2022-11-15_14h28.55.910,vts_reward_expectancy_bt,2022.2.4,Win32,60.0240096,Chrome,1920,1080,,,,,0,531,,,,,,,,,,,,,,,,,125,W,triangle,1,0,,,,,,,,,,,,,,,,switch,number,numSwt,d,1.339,noRew,,,,,,0,54,0,54,0,1,,,,,,,,,,,,,
295660,2022-11-15_14h28.55.910,vts_reward_expectancy_bt,2022.2.4,Win32,60.0240096,Chrome,1920,1080,,,,,0,531,,,,,,,,,,,,,,,,,174,U,hexagon,1,0,,,,,,,,,,,,,,,,repeat,number,numRpt,f,1.9758,noRew,,,,,,0,55,0,55,0,1,,,,,,,,,,,,,
295660,2022-11-15_14h28.55.910,vts_reward_expectancy_bt,2022.2.4,Win32,60.0240096,Chrome,1920,1080,,,,,0,531,,,,,,,,,,,,,,,,,167,Y,triangle,1,0,,,,,,,,,,,,,,,,switch,letter,lettSwt,k,1.0993,noRew,,,,,,0,56,0,56,0,1,,,,,,,,,,,,,
295660,2022-11-15_14h28.55.910,vts_reward_expectancy_bt,2022.2.4,Win32,60.0240096,Chrome,1920,1080,,,,,0,531,,,,,,,,,,,,,,,,,139,W,star,1,0,,,,,,,,,,,,,,,,switch,number,numSwt,d,1.534,noRew,,,,,,0,57,0,57,0,1,,,,,,,,,,,,,
295660,2022-11-15_14h28.55.910,vts_reward_expectancy_bt,2022.2.4,Win32,60.0240096,Chrome,1920,1080,,,,,0,531,,,,,,,,,,,,,,,,,174,U,triangle,1,0,,,,,,,,,,,,,,,,switch,letter,lettSwt,k,0.9728,noRew,,,,,,0,58,0,58,0,1,,,,,,,,,,,,,
295660,2022-11-15_14h28.55.910,vts_reward_expectancy_bt,2022.2.4,Win32,60.0240096,Chrome,1920,1080,,,,,0,531,,,,,,,,,,,,,,,,,132,F,hexagon,1,0,,,,,,,,,,,,,,,,switch,number,numSwt,d,0.628,noRew,,,,,,0,59,0,59,0,1,,,,,,,,,,,,,
295660,2022-11-15_14h28.55.910,vts_reward_expectancy_bt,2022.2.4,Win32,60.0240096,Chrome,1920,1080,,,,,0,531,,,,,,,,,,,,,,,,,174,F,triangle,1,0,,,,,,,,,,,,,,,,repeat,number,numRpt,f,2.0331,noRew,,,,,,0,60,0,60,0,1,,,,,,,,,,,,,
295660,2022-11-15_14h28.55.910,vts_reward_expectancy_bt,2022.2.4,Win32,60.0240096,Chrome,1920,1080,,,,,0,531,,,,,,,,,,,,,,,,,181,W,star,1,0,,,,,,,,,,,,,,,,switch,letter,lettSwt,k,1.9065,noRew,,,,,,0,61,0,61,0,1,,,,,,,,,,,,,
295660,2022-11-15_14h28.55.910,vts_reward_expectancy_bt,2022.2.4,Win32,60.0240096,Chrome,1920,1080,,,,,0,531,,,,,,,,,,,,,,,,,146,H,circle,1,0,,,,,,,,,,,,,,,,switch,number,numSwt,d,0.4893,noRew,,,,,,0,62,0,62,0,1,,,,,,,,,,,,,
295660,2022-11-15_14h28.55.910,vts_reward_expectancy_bt,2022.2.4,Win32,60.0240096,Chrome,1920,1080,,,,,0,531,,,,,,,,,,,,,,,,,125,B,hexagon,1,0,,,,,,,,,,,,,,,,switch,letter,lettSwt,j,0.8785,noRew,,,,,,0,63,0,63,0,1,,,,,,,,,,,,,
295660,2022-11-15_14h28.55.910,vts_reward_expectancy_bt,2022.2.4,Win32,60.0240096,Chrome,1920,1080,,,,,,,,,,,,,,,,,,,,,,,,,,,,,,,,,,,,,,,,,,,,,,,,,,,,,,,,,,,,,,,,,,,,,,,,
295660,2022-11-15_14h28.55.910,vts_reward_expectancy_bt,2022.2.4,Win32,60.0240096,Chrome,1920,1080,,,,,0,531,,,,,,,,,,,,,,,,,132,B,hexagon,1,0,,,,,,,,,,,,,,,,switch,number,numSwt,d,1.1276,Hi,,,,,,0,,,,,,space,34.929,low,0,0,0,0,1,,,,,
295660,2022-11-15_14h28.55.910,vts_reward_expectancy_bt,2022.2.4,Win32,60.0240096,Chrome,1920,1080,,,,,0,531,,,,,,,,,,,,,,,,,125,Y,star,0,0,,,,,,,,,,,,,,,,repeat,number,NA,f,0.9356,Hi,,,,,,0,,,,,,,,low,1,0,1,0,1,,,,,
295660,2022-11-15_14h28.55.910,vts_reward_expectancy_bt,2022.2.4,Win32,60.0240096,Chrome,1920,1080,,,,,10,541,,,,,,,,,,,,,,,,,181,S,triangle,1,1,,,,,,,,,,,,,,,,repeat,number,numRpt,f,0.5935,Hi,,,,,,0,,,,,,,,low,2,0,2,0,1,,,,,
295660,2022-11-15_14h28.55.910,vts_reward_expectancy_bt,2022.2.4,Win32,60.0240096,Chrome,1920,1080,,,,,1,542,,,,,,,,,,,,,,,,,160,D,circle,1,0,,,,,,,,,,,,,,,,repeat,number,numRpt,f,0.6405,Lo,,,,,,0,,,,,,,,low,3,0,3,0,1,,,,,
295660,2022-11-15_14h28.55.910,vts_reward_expectancy_bt,2022.2.4,Win32,60.0240096,Chrome,1920,1080,,,,,0,542,,,,,,,,,,,,,,,,,139,W,hexagon,1,0,,,,,,,,,,,,,,,,switch,letter,lettSwt,k,1.8162,Hi,,,,,,0,,,,,,,,low,4,0,4,0,1,,,,,
295660,2022-11-15_14h28.55.910,vts_reward_expectancy_bt,2022.2.4,Win32,60.0240096,Chrome,1920,1080,,,,,0,542,,,,,,,,,,,,,,,,,167,H,star,0,0,,,,,,,,,,,,,,,,switch,number,NA,d,1.4505,Hi,,,,,,0,,,,,,,,low,5,0,5,0,1,,,,,
295660,2022-11-15_14h28.55.910,vts_reward_expectancy_bt,2022.2.4,Win32,60.0240096,Chrome,1920,1080,,,,,0,542,,,,,,,,,,,,,,,,,174,F,triangle,1,1,,,,,,,,,,,,,,,,switch,letter,lettSwt,j,1.0161,Hi,,,,,,0,,,,,,,,low,6,0,6,0,1,,,,,
295660,2022-11-15_14h28.55.910,vts_reward_expectancy_bt,2022.2.4,Win32,60.0240096,Chrome,1920,1080,,,,,1,543,,,,,,,,,,,,,,,,,146,U,circle,1,0,,,,,,,,,,,,,,,,switch,number,numSwt,d,0.7861,Lo,,,,,,0,,,,,,,,low,7,0,7,0,1,,,,,
295660,2022-11-15_14h28.55.910,vts_reward_expectancy_bt,2022.2.4,Win32,60.0240096,Chrome,1920,1080,,,,,10,553,,,,,,,,,,,,,,,,,132,B,hexagon,1,0,,,,,,,,,,,,,,,,switch,letter,lettSwt,j,0.653,Hi,,,,,,0,,,,,,,,low,8,0,8,0,1,,,,,
295660,2022-11-15_14h28.55.910,vts_reward_expectancy_bt,2022.2.4,Win32,60.0240096,Chrome,1920,1080,,,,,0,553,,,,,,,,,,,,,,,,,125,Y,triangle,1,0,,,,,,,,,,,,,,,,switch,number,numSwt,d,0.7872,Hi,,,,,,0,,,,,,,,low,9,0,9,0,1,,,,,
295660,2022-11-15_14h28.55.910,vts_reward_expectancy_bt,2022.2.4,Win32,60.0240096,Chrome,1920,1080,,,,,10,563,,,,,,,,,,,,,,,,,181,S,circle,1,0,,,,,,,,,,,,,,,,repeat,number,numRpt,f,0.527,Lo,,,,,,0,,,,,,,,low,10,0,10,0,1,,,,,
295660,2022-11-15_14h28.55.910,vts_reward_expectancy_bt,2022.2.4,Win32,60.0240096,Chrome,1920,1080,,,,,10,573,,,,,,,,,,,,,,,,,160,D,star,1,0,,,,,,,,,,,,,,,,switch,letter,lettSwt,j,0.5669,Lo,,,,,,0,,,,,,,,low,11,0,11,0,1,,,,,
295660,2022-11-15_14h28.55.910,vts_reward_expectancy_bt,2022.2.4,Win32,60.0240096,Chrome,1920,1080,,,,,1,574,,,,,,,,,,,,,,,,,139,W,circle,1,0,,,,,,,,,,,,,,,,switch,number,numSwt,d,0.6382,Lo,,,,,,0,,,,,,,,low,12,0,12,0,1,,,,,
295660,2022-11-15_14h28.55.910,vts_reward_expectancy_bt,2022.2.4,Win32,60.0240096,Chrome,1920,1080,,,,,1,575,,,,,,,,,,,,,,,,,167,H,star,1,0,,,,,,,,,,,,,,,,repeat,number,numRpt,f,0.6423,Lo,,,,,,0,,,,,,,,low,13,0,13,0,1,,,,,
295660,2022-11-15_14h28.55.910,vts_reward_expectancy_bt,2022.2.4,Win32,60.0240096,Chrome,1920,1080,,,,,1,576,,,,,,,,,,,,,,,,,174,F,hexagon,1,0,,,,,,,,,,,,,,,,repeat,number,numRpt,f,0.632,Hi,,,,,,0,,,,,,,,low,14,0,14,0,1,,,,,
295660,2022-11-15_14h28.55.910,vts_reward_expectancy_bt,2022.2.4,Win32,60.0240096,Chrome,1920,1080,,,,,10,586,,,,,,,,,,,,,,,,,146,U,triangle,1,0,,,,,,,,,,,,,,,,switch,letter,lettSwt,k,0.6506,Hi,,,,,,0,,,,,,,,low,15,0,15,0,1,,,,,
295660,2022-11-15_14h28.55.910,vts_reward_expectancy_bt,2022.2.4,Win32,60.0240096,Chrome,1920,1080,,,,,0,586,,,,,,,,,,,,,,,,,139,B,triangle,1,0,,,,,,,,,,,,,,,,switch,number,numSwt,d,0.7843,Hi,,,,,,0,,,,,,,,low,16,0,16,0,1,,,,,
295660,2022-11-15_14h28.55.910,vts_reward_expectancy_bt,2022.2.4,Win32,60.0240096,Chrome,1920,1080,,,,,10,596,,,,,,,,,,,,,,,,,160,U,circle,1,0,,,,,,,,,,,,,,,,repeat,number,numRpt,f,0.4997,Lo,,,,,,0,,,,,,,,low,17,0,17,0,1,,,,,
295660,2022-11-15_14h28.55.910,vts_reward_expectancy_bt,2022.2.4,Win32,60.0240096,Chrome,1920,1080,,,,,1,597,,,,,,,,,,,,,,,,,174,F,hexagon,1,0,,,,,,,,,,,,,,,,repeat,number,numRpt,f,0.5401,Hi,,,,,,0,,,,,,,,low,18,0,18,0,1,,,,,
295660,2022-11-15_14h28.55.910,vts_reward_expectancy_bt,2022.2.4,Win32,60.0240096,Chrome,1920,1080,,,,,10,607,,,,,,,,,,,,,,,,,132,H,star,1,0,,,,,,,,,,,,,,,,switch,letter,lettSwt,j,0.9158,Lo,,,,,,0,,,,,,,,low,19,0,19,0,1,,,,,
295660,2022-11-15_14h28.55.910,vts_reward_expectancy_bt,2022.2.4,Win32,60.0240096,Chrome,1920,1080,,,,,0,607,,,,,,,,,,,,,,,,,181,W,triangle,1,0,,,,,,,,,,,,,,,,switch,number,numSwt,f,0.7293,Hi,,,,,,0,,,,,,,,low,20,0,20,0,1,,,,,
295660,2022-11-15_14h28.55.910,vts_reward_expectancy_bt,2022.2.4,Win32,60.0240096,Chrome,1920,1080,,,,,1,608,,,,,,,,,,,,,,,,,125,Y,star,1,0,,,,,,,,,,,,,,,,repeat,number,numRpt,d,0.599,Lo,,,,,,0,,,,,,,,low,21,0,21,0,1,,,,,
295660,2022-11-15_14h28.55.910,vts_reward_expectancy_bt,2022.2.4,Win32,60.0240096,Chrome,1920,1080,,,,,1,609,,,,,,,,,,,,,,,,,146,D,circle,1,0,,,,,,,,,,,,,,,,switch,letter,lettSwt,j,0.6011,Lo,,,,,,0,,,,,,,,low,22,0,22,0,1,,,,,
295660,2022-11-15_14h28.55.910,vts_reward_expectancy_bt,2022.2.4,Win32,60.0240096,Chrome,1920,1080,,,,,0,609,,,,,,,,,,,,,,,,,167,S,hexagon,0,0,,,,,,,,,,,,,,,,repeat,letter,NA,j,0.8871,Lo,,,,,,0,,,,,,,,low,23,0,23,0,1,,,,,
295660,2022-11-15_14h28.55.910,vts_reward_expectancy_bt,2022.2.4,Win32,60.0240096,Chrome,1920,1080,,,,,0,609,,,,,,,,,,,,,,,,,132,U,circle,0,1,,,,,,,,,,,,,,,,repeat,letter,NA,j,0.6894,Lo,,,,,,0,,,,,,,,low,24,0,24,0,1,,,,,
295660,2022-11-15_14h28.55.910,vts_reward_expectancy_bt,2022.2.4,Win32,60.0240096,Chrome,1920,1080,,,,,0,609,,,,,,,,,,,,,,,,,125,H,triangle,1,1,,,,,,,,,,,,,,,,repeat,letter,lettRpt,j,1.1351,Hi,,,,,,0,,,,,,,,low,25,0,25,0,1,,,,,
295660,2022-11-15_14h28.55.910,vts_reward_expectancy_bt,2022.2.4,Win32,60.0240096,Chrome,1920,1080,,,,,10,619,,,,,,,,,,,,,,,,,174,B,star,1,0,,,,,,,,,,,,,,,,switch,number,numSwt,f,0.5111,Lo,,,,,,0,,,,,,,,low,26,0,26,0,1,,,,,
295660,2022-11-15_14h28.55.910,vts_reward_expectancy_bt,2022.2.4,Win32,60.0240096,Chrome,1920,1080,,,,,10,629,,,,,,,,,,,,,,,,,181,F,hexagon,1,0,,,,,,,,,,,,,,,,switch,letter,lettSwt,j,0.7258,Hi,,,,,,0,,,,,,,,low,27,0,27,0,1,,,,,
295660,2022-11-15_14h28.55.910,vts_reward_expectancy_bt,2022.2.4,Win32,60.0240096,Chrome,1920,1080,,,,,0,629,,,,,,,,,,,,,,,,,139,Y,triangle,1,0,,,,,,,,,,,,,,,,repeat,letter,lettRpt,k,0.7762,Hi,,,,,,0,,,,,,,,low,28,0,28,0,1,,,,,
295660,2022-11-15_14h28.55.910,vts_reward_expectancy_bt,2022.2.4,Win32,60.0240096,Chrome,1920,1080,,,,,1,630,,,,,,,,,,,,,,,,,146,D,star,1,0,,,,,,,,,,,,,,,,switch,number,numSwt,d,0.5714,Lo,,,,,,0,,,,,,,,low,29,0,29,0,1,,,,,
295660,2022-11-15_14h28.55.910,vts_reward_expectancy_bt,2022.2.4,Win32,60.0240096,Chrome,1920,1080,,,,,1,631,,,,,,,,,,,,,,,,,167,S,hexagon,1,0,,,,,,,,,,,,,,,,switch,letter,lettSwt,k,0.5936,Hi,,,,,,0,,,,,,,,low,30,0,30,0,1,,,,,
295660,2022-11-15_14h28.55.910,vts_reward_expectancy_bt,2022.2.4,Win32,60.0240096,Chrome,1920,1080,,,,,0,631,,,,,,,,,,,,,,,,,160,W,circle,0,0,,,,,,,,,,,,,,,,repeat,letter,NA,j,0.6069,Hi,,,,,,0,,,,,,,,low,31,0,31,0,1,,,,,
295660,2022-11-15_14h28.55.910,vts_reward_expectancy_bt,2022.2.4,Win32,60.0240096,Chrome,1920,1080,,,,,1,632,,,,,,,,,,,,,,,,,160,S,star,1,1,,,,,,,,,,,,,,,,repeat,letter,lettRpt,k,0.5595,Lo,,,,,,1,,,,,,space,2.4632,low,0,0,0,0,1,,,,,
295660,2022-11-15_14h28.55.910,vts_reward_expectancy_bt,2022.2.4,Win32,60.0240096,Chrome,1920,1080,,,,,1,633,,,,,,,,,,,,,,,,,132,Y,circle,1,0,,,,,,,,,,,,,,,,switch,number,numSwt,d,0.4272,Lo,,,,,,1,,,,,,,,low,1,0,1,0,1,,,,,
295660,2022-11-15_14h28.55.910,vts_reward_expectancy_bt,2022.2.4,Win32,60.0240096,Chrome,1920,1080,,,,,1,634,,,,,,,,,,,,,,,,,167,B,triangle,1,0,,,,,,,,,,,,,,,,repeat,number,numRpt,f,0.5505,Hi,,,,,,1,,,,,,,,low,2,0,2,0,1,,,,,
295660,2022-11-15_14h28.55.910,vts_reward_expectancy_bt,2022.2.4,Win32,60.0240096,Chrome,1920,1080,,,,,10,644,,,,,,,,,,,,,,,,,174,D,hexagon,1,0,,,,,,,,,,,,,,,,repeat,number,numRpt,f,0.4066,Hi,,,,,,1,,,,,,,,low,3,0,3,0,1,,,,,
295660,2022-11-15_14h28.55.910,vts_reward_expectancy_bt,2022.2.4,Win32,60.0240096,Chrome,1920,1080,,,,,0,644,,,,,,,,,,,,,,,,,146,H,star,0,0,,,,,,,,,,,,,,,,switch,letter,NA,k,0.3956,Hi,,,,,,1,,,,,,,,low,4,0,4,0,1,,,,,
295660,2022-11-15_14h28.55.910,vts_reward_expectancy_bt,2022.2.4,Win32,60.0240096,Chrome,1920,1080,,,,,0,644,,,,,,,,,,,,,,,,,139,W,circle,0,1,,,,,,,,,,,,,,,,switch,number,NA,f,0.5684,Hi,,,,,,1,,,,,,,,low,5,0,5,0,1,,,,,
295660,2022-11-15_14h28.55.910,vts_reward_expectancy_bt,2022.2.4,Win32,60.0240096,Chrome,1920,1080,,,,,0,644,,,,,,,,,,,,,,,,,125,U,triangle,1,1,,,,,,,,,,,,,,,,repeat,number,numRpt,d,0.5936,Hi,,,,,,1,,,,,,,,low,6,0,6,0,1,,,,,
295660,2022-11-15_14h28.55.910,vts_reward_expectancy_bt,2022.2.4,Win32,60.0240096,Chrome,1920,1080,,,,,0,644,,,,,,,,,,,,,,,,,181,F,hexagon,0,0,,,,,,,,,,,,,,,,repeat,number,NA,d,0.5278,Hi,,,,,,1,,,,,,,,low,7,0,7,0,1,,,,,
295660,2022-11-15_14h28.55.910,vts_reward_expectancy_bt,2022.2.4,Win32,60.0240096,Chrome,1920,1080,,,,,0,644,,,,,,,,,,,,,,,,,160,S,hexagon,1,1,,,,,,,,,,,,,,,,repeat,number,numRpt,f,0.7024,Hi,,,,,,1,,,,,,,,low,8,0,8,0,1,,,,,
295660,2022-11-15_14h28.55.910,vts_reward_expectancy_bt,2022.2.4,Win32,60.0240096,Chrome,1920,1080,,,,,1,645,,,,,,,,,,,,,,,,,132,Y,circle,1,0,,,,,,,,,,,,,,,,repeat,number,numRpt,d,0.699,Lo,,,,,,1,,,,,,,,low,9,0,9,0,1,,,,,
295660,2022-11-15_14h28.55.910,vts_reward_expectancy_bt,2022.2.4,Win32,60.0240096,Chrome,1920,1080,,,,,1,646,,,,,,,,,,,,,,,,,167,B,triangle,1,0,,,,,,,,,,,,,,,,repeat,number,numRpt,f,0.4828,Hi,,,,,,1,,,,,,,,low,10,0,10,0,1,,,,,
295660,2022-11-15_14h28.55.910,vts_reward_expectancy_bt,2022.2.4,Win32,60.0240096,Chrome,1920,1080,,,,,1,647,,,,,,,,,,,,,,,,,174,D,star,1,0,,,,,,,,,,,,,,,,repeat,number,numRpt,f,0.5547,Lo,,,,,,1,,,,,,,,low,11,0,11,0,1,,,,,
295660,2022-11-15_14h28.55.910,vts_reward_expectancy_bt,2022.2.4,Win32,60.0240096,Chrome,1920,1080,,,,,1,648,,,,,,,,,,,,,,,,,146,H,circle,1,0,,,,,,,,,,,,,,,,repeat,number,numRpt,d,0.445,Lo,,,,,,1,,,,,,,,low,12,0,12,0,1,,,,,
295660,2022-11-15_14h28.55.910,vts_reward_expectancy_bt,2022.2.4,Win32,60.0240096,Chrome,1920,1080,,,,,0,648,,,,,,,,,,,,,,,,,139,W,triangle,1,0,,,,,,,,,,,,,,,,repeat,number,numRpt,d,0.5677,Hi,,,,,,1,,,,,,,,low,13,0,13,0,1,,,,,
295660,2022-11-15_14h28.55.910,vts_reward_expectancy_bt,2022.2.4,Win32,60.0240096,Chrome,1920,1080,,,,,10,658,,,,,,,,,,,,,,,,,125,U,hexagon,1,0,,,,,,,,,,,,,,,,repeat,number,numRpt,d,0.5072,Hi,,,,,,1,,,,,,,,low,14,0,14,0,1,,,,,
295660,2022-11-15_14h28.55.910,vts_reward_expectancy_bt,2022.2.4,Win32,60.0240096,Chrome,1920,1080,,,,,0,658,,,,,,,,,,,,,,,,,181,F,star,0,0,,,,,,,,,,,,,,,,switch,letter,NA,k,0.6048,Hi,,,,,,1,,,,,,,,low,15,0,15,0,1,,,,,
295660,2022-11-15_14h28.55.910,vts_reward_expectancy_bt,2022.2.4,Win32,60.0240096,Chrome,1920,1080,,,,,0,658,,,,,,,,,,,,,,,,,174,U,triangle,0,1,,,,,,,,,,,,,,,,switch,number,NA,d,0.4676,Hi,,,,,,1,,,,,,,,low,16,0,16,0,1,,,,,
295660,2022-11-15_14h28.55.910,vts_reward_expectancy_bt,2022.2.4,Win32,60.0240096,Chrome,1920,1080,,,,,10,668,,,,,,,,,,,,,,,,,146,Y,circle,1,1,,,,,,,,,,,,,,,,repeat,number,numRpt,d,0.7555,Lo,,,,,,1,,,,,,,,low,17,0,17,0,1,,,,,
295660,2022-11-15_14h28.55.910,vts_reward_expectancy_bt,2022.2.4,Win32,60.0240096,Chrome,1920,1080,,,,,0,668,,,,,,,,,,,,,,,,,181,B,hexagon,1,0,,,,,,,,,,,,,,,,switch,letter,lettSwt,j,0.9365,Hi,,,,,,1,,,,,,,,low,18,0,18,0,1,,,,,
295660,2022-11-15_14h28.55.910,vts_reward_expectancy_bt,2022.2.4,Win32,60.0240096,Chrome,1920,1080,,,,,1,669,,,,,,,,,,,,,,,,,139,F,star,1,0,,,,,,,,,,,,,,,,repeat,letter,lettRpt,j,0.499,Lo,,,,,,1,,,,,,,,low,19,0,19,0,1,,,,,
295660,2022-11-15_14h28.55.910,vts_reward_expectancy_bt,2022.2.4,Win32,60.0240096,Chrome,1920,1080,,,,,1,670,,,,,,,,,,,,,,,,,167,W,circle,1,0,,,,,,,,,,,,,,,,repeat,letter,lettRpt,k,0.6417,Lo,,,,,,1,,,,,,,,low,20,0,20,0,1,,,,,
295660,2022-11-15_14h28.55.910,vts_reward_expectancy_bt,2022.2.4,Win32,60.0240096,Chrome,1920,1080,,,,,10,680,,,,,,,,,,,,,,,,,125,H,hexagon,1,0,,,,,,,,,,,,,,,,repeat,letter,lettRpt,j,0.8017,Hi,,,,,,1,,,,,,,,low,21,0,21,0,1,,,,,
295660,2022-11-15_14h28.55.910,vts_reward_expectancy_bt,2022.2.4,Win32,60.0240096,Chrome,1920,1080,,,,,1,681,,,,,,,,,,,,,,,,,160,D,star,1,0,,,,,,,,,,,,,,,,repeat,letter,lettRpt,j,0.467,Lo,,,,,,1,,,,,,,,low,22,0,22,0,1,,,,,
295660,2022-11-15_14h28.55.910,vts_reward_expectancy_bt,2022.2.4,Win32,60.0240096,Chrome,1920,1080,,,,,0,681,,,,,,,,,,,,,,,,,132,S,triangle,0,0,,,,,,,,,,,,,,,,switch,number,NA,f,0.6155,Lo,,,,,,1,,,,,,,,low,23,0,23,0,1,,,,,
295660,2022-11-15_14h28.55.910,vts_reward_expectancy_bt,2022.2.4,Win32,60.0240096,Chrome,1920,1080,,,,,1,682,,,,,,,,,,,,,,,,,174,Y,circle,1,1,,,,,,,,,,,,,,,,repeat,number,numRpt,f,0.6156,Lo,,,,,,1,,,,,,,,low,24,0,24,0,1,,,,,
295660,2022-11-15_14h28.55.910,vts_reward_expectancy_bt,2022.2.4,Win32,60.0240096,Chrome,1920,1080,,,,,1,683,,,,,,,,,,,,,,,,,146,U,hexagon,1,0,,,,,,,,,,,,,,,,repeat,number,numRpt,d,0.4491,Hi,,,,,,1,,,,,,,,low,25,0,25,0,1,,,,,
295660,2022-11-15_14h28.55.910,vts_reward_expectancy_bt,2022.2.4,Win32,60.0240096,Chrome,1920,1080,,,,,0,683,,,,,,,,,,,,,,,,,160,S,triangle,1,0,,,,,,,,,,,,,,,,repeat,number,numRpt,f,0.5658,Hi,,,,,,1,,,,,,,,low,26,0,26,0,1,,,,,
295660,2022-11-15_14h28.55.910,vts_reward_expectancy_bt,2022.2.4,Win32,60.0240096,Chrome,1920,1080,,,,,1,684,,,,,,,,,,,,,,,,,125,H,star,1,0,,,,,,,,,,,,,,,,switch,letter,lettSwt,j,0.552,Lo,,,,,,1,,,,,,,,low,27,0,27,0,1,,,,,
295660,2022-11-15_14h28.55.910,vts_reward_expectancy_bt,2022.2.4,Win32,60.0240096,Chrome,1920,1080,,,,,10,694,,,,,,,,,,,,,,,,,139,W,circle,1,0,,,,,,,,,,,,,,,,switch,number,numSwt,d,0.5355,Lo,,,,,,1,,,,,,,,low,28,0,28,0,1,,,,,
295660,2022-11-15_14h28.55.910,vts_reward_expectancy_bt,2022.2.4,Win32,60.0240096,Chrome,1920,1080,,,,,0,694,,,,,,,,,,,,,,,,,181,F,hexagon,0,0,,,,,,,,,,,,,,,,switch,letter,NA,k,0.5782,Lo,,,,,,1,,,,,,,,low,29,0,29,0,1,,,,,
295660,2022-11-15_14h28.55.910,vts_reward_expectancy_bt,2022.2.4,Win32,60.0240096,Chrome,1920,1080,,,,,1,695,,,,,,,,,,,,,,,,,167,D,star,1,1,,,,,,,,,,,,,,,,switch,number,numSwt,f,0.5389,Lo,,,,,,1,,,,,,,,low,30,0,30,0,1,,,,,
295660,2022-11-15_14h28.55.910,vts_reward_expectancy_bt,2022.2.4,Win32,60.0240096,Chrome,1920,1080,,,,,1,696,,,,,,,,,,,,,,,,,132,B,triangle,1,0,,,,,,,,,,,,,,,,repeat,number,numRpt,d,0.5144,Hi,,,,,,1,,,,,,,,low,31,0,31,0,1,,,,,
295660,2022-11-15_14h28.55.910,vts_reward_expectancy_bt,2022.2.4,Win32,60.0240096,Chrome,1920,1080,,,,,0,696,,,,,,,,,,,,,,,,,174,B,hexagon,1,0,,,,,,,,,,,,,,,,repeat,number,numRpt,f,0.5818,Hi,,,,,,2,,,,,,space,23.6963,low,0,0,0,0,1,,,,,
295660,2022-11-15_14h28.55.910,vts_reward_expectancy_bt,2022.2.4,Win32,60.0240096,Chrome,1920,1080,,,,,0,696,,,,,,,,,,,,,,,,,146,S,circle,0,0,,,,,,,,,,,,,,,,switch,letter,NA,j,0.5729,Hi,,,,,,2,,,,,,,,low,1,0,1,0,1,,,,,
295660,2022-11-15_14h28.55.910,vts_reward_expectancy_bt,2022.2.4,Win32,60.0240096,Chrome,1920,1080,,,,,10,706,,,,,,,,,,,,,,,,,139,H,star,1,1,,,,,,,,,,,,,,,,switch,number,numSwt,d,0.5039,Lo,,,,,,2,,,,,,,,low,2,0,2,0,1,,,,,
295660,2022-11-15_14h28.55.910,vts_reward_expectancy_bt,2022.2.4,Win32,60.0240096,Chrome,1920,1080,,,,,1,707,,,,,,,,,,,,,,,,,125,F,triangle,1,0,,,,,,,,,,,,,,,,switch,letter,lettSwt,j,0.5625,Hi,,,,,,2,,,,,,,,low,3,0,3,0,1,,,,,
295660,2022-11-15_14h28.55.910,vts_reward_expectancy_bt,2022.2.4,Win32,60.0240096,Chrome,1920,1080,,,,,10,717,,,,,,,,,,,,,,,,,181,W,hexagon,1,0,,,,,,,,,,,,,,,,repeat,letter,lettRpt,k,0.4932,Hi,,,,,,2,,,,,,,,low,4,0,4,0,1,,,,,
295660,2022-11-15_14h28.55.910,vts_reward_expectancy_bt,2022.2.4,Win32,60.0240096,Chrome,1920,1080,,,,,0,717,,,,,,,,,,,,,,,,,132,D,circle,0,0,,,,,,,,,,,,,,,,switch,number,NA,f,0.699,Hi,,,,,,2,,,,,,,,low,5,0,5,0,1,,,,,
295660,2022-11-15_14h28.55.910,vts_reward_expectancy_bt,2022.2.4,Win32,60.0240096,Chrome,1920,1080,,,,,1,718,,,,,,,,,,,,,,,,,160,Y,star,1,1,,,,,,,,,,,,,,,,switch,letter,lettSwt,k,0.5835,Lo,,,,,,2,,,,,,,,low,6,0,6,0,1,,,,,
295660,2022-11-15_14h28.55.910,vts_reward_expectancy_bt,2022.2.4,Win32,60.0240096,Chrome,1920,1080,,,,,0,718,,,,,,,,,,,,,,,,,167,U,triangle,1,0,,,,,,,,,,,,,,,,switch,number,numSwt,f,0.5878,Hi,,,,,,2,,,,,,,,low,7,0,7,0,1,,,,,
295660,2022-11-15_14h28.55.910,vts_reward_expectancy_bt,2022.2.4,Win32,60.0240096,Chrome,1920,1080,,,,,1,719,,,,,,,,,,,,,,,,,174,B,triangle,1,0,,,,,,,,,,,,,,,,switch,letter,lettSwt,j,0.6369,Hi,,,,,,2,,,,,,,,low,8,0,8,0,1,,,,,
295660,2022-11-15_14h28.55.910,vts_reward_expectancy_bt,2022.2.4,Win32,60.0240096,Chrome,1920,1080,,,,,1,720,,,,,,,,,,,,,,,,,146,S,star,1,0,,,,,,,,,,,,,,,,switch,number,numSwt,d,0.466,Lo,,,,,,2,,,,,,,,low,9,0,9,0,1,,,,,
295660,2022-11-15_14h28.55.910,vts_reward_expectancy_bt,2022.2.4,Win32,60.0240096,Chrome,1920,1080,,,,,1,721,,,,,,,,,,,,,,,,,139,H,circle,1,0,,,,,,,,,,,,,,,,repeat,number,numRpt,d,0.4756,Lo,,,,,,2,,,,,,,,low,10,0,10,0,1,,,,,
295660,2022-11-15_14h28.55.910,vts_reward_expectancy_bt,2022.2.4,Win32,60.0240096,Chrome,1920,1080,,,,,0,721,,,,,,,,,,,,,,,,,125,F,hexagon,0,0,,,,,,,,,,,,,,,,switch,letter,NA,k,0.4097,Lo,,,,,,2,,,,,,,,low,11,0,11,0,1,,,,,
295660,2022-11-15_14h28.55.910,vts_reward_expectancy_bt,2022.2.4,Win32,60.0240096,Chrome,1920,1080,,,,,10,731,,,,,,,,,,,,,,,,,181,W,star,1,1,,,,,,,,,,,,,,,,repeat,letter,lettRpt,k,0.5664,Lo,,,,,,2,,,,,,,,low,12,0,12,0,1,,,,,
295660,2022-11-15_14h28.55.910,vts_reward_expectancy_bt,2022.2.4,Win32,60.0240096,Chrome,1920,1080,,,,,1,732,,,,,,,,,,,,,,,,,132,D,circle,1,0,,,,,,,,,,,,,,,,switch,number,numSwt,d,0.3343,Lo,,,,,,2,,,,,,,,low,13,0,13,0,1,,,,,
295660,2022-11-15_14h28.55.910,vts_reward_expectancy_bt,2022.2.4,Win32,60.0240096,Chrome,1920,1080,,,,,0,732,,,,,,,,,,,,,,,,,160,Y,hexagon,1,0,,,,,,,,,,,,,,,,repeat,number,numRpt,f,0.5227,Hi,,,,,,2,,,,,,,,low,14,0,14,0,1,,,,,
295660,2022-11-15_14h28.55.910,vts_reward_expectancy_bt,2022.2.4,Win32,60.0240096,Chrome,1920,1080,,,,,10,742,,,,,,,,,,,,,,,,,167,U,triangle,1,0,,,,,,,,,,,,,,,,repeat,number,numRpt,f,0.3715,Hi,,,,,,2,,,,,,,,low,15,0,15,0,1,,,,,
295660,2022-11-15_14h28.55.910,vts_reward_expectancy_bt,2022.2.4,Win32,60.0240096,Chrome,1920,1080,,,,,1,743,,,,,,,,,,,,,,,,,181,F,circle,1,0,,,,,,,,,,,,,,,,switch,letter,lettSwt,j,0.4084,Lo,,,,,,2,,,,,,,,low,16,0,16,0,1,,,,,
295660,2022-11-15_14h28.55.910,vts_reward_expectancy_bt,2022.2.4,Win32,60.0240096,Chrome,1920,1080,,,,,10,753,,,,,,,,,,,,,,,,,146,Y,triangle,1,0,,,,,,,,,,,,,,,,repeat,letter,lettRpt,k,0.4377,Hi,,,,,,2,,,,,,,,low,17,0,17,0,1,,,,,
295660,2022-11-15_14h28.55.910,vts_reward_expectancy_bt,2022.2.4,Win32,60.0240096,Chrome,1920,1080,,,,,10,763,,,,,,,,,,,,,,,,,132,S,star,1,0,,,,,,,,,,,,,,,,switch,number,numSwt,d,0.4432,Lo,,,,,,2,,,,,,,,low,18,0,18,0,1,,,,,
295660,2022-11-15_14h28.55.910,vts_reward_expectancy_bt,2022.2.4,Win32,60.0240096,Chrome,1920,1080,,,,,0,763,,,,,,,,,,,,,,,,,139,W,hexagon,1,0,,,,,,,,,,,,,,,,repeat,number,numRpt,d,0.5909,Hi,,,,,,2,,,,,,,,low,19,0,19,0,1,,,,,
295660,2022-11-15_14h28.55.910,vts_reward_expectancy_bt,2022.2.4,Win32,60.0240096,Chrome,1920,1080,,,,,0,763,,,,,,,,,,,,,,,,,160,B,circle,0,0,,,,,,,,,,,,,,,,switch,letter,NA,k,0.4433,Hi,,,,,,2,,,,,,,,low,20,0,20,0,1,,,,,
295660,2022-11-15_14h28.55.910,vts_reward_expectancy_bt,2022.2.4,Win32,60.0240096,Chrome,1920,1080,,,,,1,764,,,,,,,,,,,,,,,,,174,U,star,1,1,,,,,,,,,,,,,,,,repeat,letter,lettRpt,k,0.5621,Lo,,,,,,2,,,,,,,,low,21,0,21,0,1,,,,,
295660,2022-11-15_14h28.55.910,vts_reward_expectancy_bt,2022.2.4,Win32,60.0240096,Chrome,1920,1080,,,,,10,774,,,,,,,,,,,,,,,,,125,D,hexagon,1,0,,,,,,,,,,,,,,,,switch,number,numSwt,d,0.4058,Hi,,,,,,2,,,,,,,,low,22,0,22,0,1,,,,,
295660,2022-11-15_14h28.55.910,vts_reward_expectancy_bt,2022.2.4,Win32,60.0240096,Chrome,1920,1080,,,,,0,774,,,,,,,,,,,,,,,,,167,H,triangle,0,0,,,,,,,,,,,,,,,,repeat,number,NA,d,0.283,Hi,,,,,,2,,,,,,,,low,23,0,23,0,1,,,,,
295660,2022-11-15_14h28.55.910,vts_reward_expectancy_bt,2022.2.4,Win32,60.0240096,Chrome,1920,1080,,,,,1,775,,,,,,,,,,,,,,,,,132,S,circle,1,1,,,,,,,,,,,,,,,,repeat,number,numRpt,d,0.3612,Lo,,,,,,2,,,,,,,,low,24,0,24,0,1,,,,,
295660,2022-11-15_14h28.55.910,vts_reward_expectancy_bt,2022.2.4,Win32,60.0240096,Chrome,1920,1080,,,,,10,785,,,,,,,,,,,,,,,,,146,W,triangle,1,0,,,,,,,,,,,,,,,,switch,letter,lettSwt,k,0.5872,Hi,,,,,,2,,,,,,,,low,25,0,25,0,1,,,,,
295660,2022-11-15_14h28.55.910,vts_reward_expectancy_bt,2022.2.4,Win32,60.0240096,Chrome,1920,1080,,,,,10,795,,,,,,,,,,,,,,,,,139,U,star,1,0,,,,,,,,,,,,,,,,repeat,letter,lettRpt,k,0.4324,Lo,,,,,,2,,,,,,,,low,26,0,26,0,1,,,,,
295660,2022-11-15_14h28.55.910,vts_reward_expectancy_bt,2022.2.4,Win32,60.0240096,Chrome,1920,1080,,,,,10,805,,,,,,,,,,,,,,,,,125,B,hexagon,1,0,,,,,,,,,,,,,,,,switch,number,numSwt,d,0.4373,Hi,,,,,,2,,,,,,,,low,27,0,27,0,1,,,,,
295660,2022-11-15_14h28.55.910,vts_reward_expectancy_bt,2022.2.4,Win32,60.0240096,Chrome,1920,1080,,,,,10,815,,,,,,,,,,,,,,,,,160,D,triangle,1,0,,,,,,,,,,,,,,,,repeat,number,numRpt,f,0.3701,Hi,,,,,,2,,,,,,,,low,28,0,28,0,1,,,,,
295660,2022-11-15_14h28.55.910,vts_reward_expectancy_bt,2022.2.4,Win32,60.0240096,Chrome,1920,1080,,,,,0,815,,,,,,,,,,,,,,,,,181,H,hexagon,0,0,,,,,,,,,,,,,,,,switch,letter,NA,k,0.5929,Hi,,,,,,2,,,,,,,,low,29,0,29,0,1,,,,,
295660,2022-11-15_14h28.55.910,vts_reward_expectancy_bt,2022.2.4,Win32,60.0240096,Chrome,1920,1080,,,,,1,816,,,,,,,,,,,,,,,,,174,F,star,1,1,,,,,,,,,,,,,,,,repeat,letter,lettRpt,j,0.8055,Lo,,,,,,2,,,,,,,,low,30,0,30,0,1,,,,,
295660,2022-11-15_14h28.55.910,vts_reward_expectancy_bt,2022.2.4,Win32,60.0240096,Chrome,1920,1080,,,,,0,816,,,,,,,,,,,,,,,,,167,Y,circle,0,0,,,,,,,,,,,,,,,,switch,number,NA,d,0.5237,Lo,,,,,,2,,,,,,,,low,31,0,31,0,1,,,,,
295660,2022-11-15_14h28.55.910,vts_reward_expectancy_bt,2022.2.4,Win32,60.0240096,Chrome,1920,1080,,,,,10,826,,,,,,,,,,,,,,,,,139,F,hexagon,1,1,,,,,,,,,,,,,,,,switch,letter,lettSwt,j,0.5074,Hi,,,,,,3,,,,,,space,0.8308,low,0,0,0,0,1,,,,,
295660,2022-11-15_14h28.55.910,vts_reward_expectancy_bt,2022.2.4,Win32,60.0240096,Chrome,1920,1080,,,,,0,826,,,,,,,,,,,,,,,,,181,D,triangle,1,0,,,,,,,,,,,,,,,,repeat,letter,lettRpt,j,0.6401,Hi,,,,,,3,,,,,,,,low,1,0,1,0,1,,,,,
295660,2022-11-15_14h28.55.910,vts_reward_expectancy_bt,2022.2.4,Win32,60.0240096,Chrome,1920,1080,,,,,1,827,,,,,,,,,,,,,,,,,146,W,circle,1,0,,,,,,,,,,,,,,,,switch,number,numSwt,d,0.4947,Lo,,,,,,3,,,,,,,,low,2,0,2,0,1,,,,,
295660,2022-11-15_14h28.55.910,vts_reward_expectancy_bt,2022.2.4,Win32,60.0240096,Chrome,1920,1080,,,,,0,827,,,,,,,,,,,,,,,,,167,Y,star,0,0,,,,,,,,,,,,,,,,switch,letter,NA,j,0.6512,Lo,,,,,,3,,,,,,,,low,3,0,3,0,1,,,,,
295660,2022-11-15_14h28.55.910,vts_reward_expectancy_bt,2022.2.4,Win32,60.0240096,Chrome,1920,1080,,,,,0,827,,,,,,,,,,,,,,,,,174,U,hexagon,1,1,,,,,,,,,,,,,,,,repeat,letter,lettRpt,k,0.8396,Hi,,,,,,3,,,,,,,,low,4,0,4,0,1,,,,,
295660,2022-11-15_14h28.55.910,vts_reward_expectancy_bt,2022.2.4,Win32,60.0240096,Chrome,1920,1080,,,,,0,827,,,,,,,,,,,,,,,,,132,H,triangle,0,0,,,,,,,,,,,,,,,,switch,number,NA,f,0.6566,Hi,,,,,,3,,,,,,,,low,5,0,5,0,1,,,,,
295660,2022-11-15_14h28.55.910,vts_reward_expectancy_bt,2022.2.4,Win32,60.0240096,Chrome,1920,1080,,,,,1,828,,,,,,,,,,,,,,,,,160,S,circle,1,1,,,,,,,,,,,,,,,,repeat,number,numRpt,f,0.9899,Lo,,,,,,3,,,,,,,,low,6,0,6,0,1,,,,,
295660,2022-11-15_14h28.55.910,vts_reward_expectancy_bt,2022.2.4,Win32,60.0240096,Chrome,1920,1080,,,,,1,829,,,,,,,,,,,,,,,,,125,B,star,1,0,,,,,,,,,,,,,,,,repeat,number,numRpt,d,0.2942,Lo,,,,,,3,,,,,,,,low,7,0,7,0,1,,,,,
295660,2022-11-15_14h28.55.910,vts_reward_expectancy_bt,2022.2.4,Win32,60.0240096,Chrome,1920,1080,,,,,1,830,,,,,,,,,,,,,,,,,139,F,triangle,1,0,,,,,,,,,,,,,,,,repeat,number,numRpt,d,0.2997,Hi,,,,,,3,,,,,,,,low,8,0,8,0,1,,,,,
295660,2022-11-15_14h28.55.910,vts_reward_expectancy_bt,2022.2.4,Win32,60.0240096,Chrome,1920,1080,,,,,0,830,,,,,,,,,,,,,,,,,181,D,hexagon,0,0,,,,,,,,,,,,,,,,repeat,number,NA,d,0.0777,Hi,,,,,,3,,,,,,,,low,9,0,9,0,1,,,,,
295660,2022-11-15_14h28.55.910,vts_reward_expectancy_bt,2022.2.4,Win32,60.0240096,Chrome,1920,1080,,,,,10,840,,,,,,,,,,,,,,,,,146,W,circle,1,1,,,,,,,,,,,,,,,,repeat,number,numRpt,d,0.2658,Lo,,,,,,3,,,,,,,,low,10,0,10,0,1,,,,,
295660,2022-11-15_14h28.55.910,vts_reward_expectancy_bt,2022.2.4,Win32,60.0240096,Chrome,1920,1080,,,,,10,850,,,,,,,,,,,,,,,,,167,Y,star,1,0,,,,,,,,,,,,,,,,switch,letter,lettSwt,k,0.275,Lo,,,,,,3,,,,,,,,low,11,0,11,0,1,,,,,
295660,2022-11-15_14h28.55.910,vts_reward_expectancy_bt,2022.2.4,Win32,60.0240096,Chrome,1920,1080,,,,,0,850,,,,,,,,,,,,,,,,,174,U,star,0,0,,,,,,,,,,,,,,,,switch,number,NA,d,0.2739,Lo,,,,,,3,,,,,,,,low,12,0,12,0,1,,,,,
295660,2022-11-15_14h28.55.910,vts_reward_expectancy_bt,2022.2.4,Win32,60.0240096,Chrome,1920,1080,,,,,10,860,,,,,,,,,,,,,,,,,132,H,triangle,1,1,,,,,,,,,,,,,,,,repeat,number,numRpt,d,0.2324,Hi,,,,,,3,,,,,,,,low,13,0,13,0,1,,,,,
295660,2022-11-15_14h28.55.910,vts_reward_expectancy_bt,2022.2.4,Win32,60.0240096,Chrome,1920,1080,,,,,0,860,,,,,,,,,,,,,,,,,160,S,circle,0,0,,,,,,,,,,,,,,,,repeat,number,NA,d,0.2806,Hi,,,,,,3,,,,,,,,low,14,0,14,0,1,,,,,
295660,2022-11-15_14h28.55.910,vts_reward_expectancy_bt,2022.2.4,Win32,60.0240096,Chrome,1920,1080,,,,,0,860,,,,,,,,,,,,,,,,,125,B,hexagon,0,1,,,,,,,,,,,,,,,,switch,letter,NA,k,0.2598,Hi,,,,,,3,,,,,,,,low,15,0,15,0,1,,,,,
295660,2022-11-15_14h28.55.910,vts_reward_expectancy_bt,2022.2.4,Win32,60.0240096,Chrome,1920,1080,,,,,0,860,,,,,,,,,,,,,,,,,181,W,hexagon,0,1,,,,,,,,,,,,,,,,switch,number,NA,d,0.2927,Hi,,,,,,3,,,,,,,,low,16,0,16,0,1,,,,,
295660,2022-11-15_14h28.55.910,vts_reward_expectancy_bt,2022.2.4,Win32,60.0240096,Chrome,1920,1080,,,,,0,860,,,,,,,,,,,,,,,,,174,B,triangle,0,1,,,,,,,,,,,,,,,,switch,letter,NA,k,0.2672,Hi,,,,,,3,,,,,,,,low,17,0,17,0,1,,,,,
295660,2022-11-15_14h28.55.910,vts_reward_expectancy_bt,2022.2.4,Win32,60.0240096,Chrome,1920,1080,,,,,0,860,,,,,,,,,,,,,,,,,146,F,star,0,1,,,,,,,,,,,,,,,,repeat,letter,NA,k,0.5551,Hi,,,,,,3,,,,,,,,low,18,0,18,0,1,,,,,
295660,2022-11-15_14h28.55.910,vts_reward_expectancy_bt,2022.2.4,Win32,60.0240096,Chrome,1920,1080,,,,,10,870,,,,,,,,,,,,,,,,,132,U,circle,1,1,,,,,,,,,,,,,,,,repeat,letter,lettRpt,k,0.6059,Lo,,,,,,3,,,,,,,,low,19,0,19,0,1,,,,,
295660,2022-11-15_14h28.55.910,vts_reward_expectancy_bt,2022.2.4,Win32,60.0240096,Chrome,1920,1080,,,,,10,880,,,,,,,,,,,,,,,,,139,Y,star,1,0,,,,,,,,,,,,,,,,switch,number,numSwt,d,0.3935,Lo,,,,,,3,,,,,,,,low,20,0,20,0,1,,,,,
295660,2022-11-15_14h28.55.910,vts_reward_expectancy_bt,2022.2.4,Win32,60.0240096,Chrome,1920,1080,,,,,0,880,,,,,,,,,,,,,,,,,160,S,circle,0,0,,,,,,,,,,,,,,,,repeat,number,NA,d,0.3525,Lo,,,,,,3,,,,,,,,low,21,0,21,0,1,,,,,
295660,2022-11-15_14h28.55.910,vts_reward_expectancy_bt,2022.2.4,Win32,60.0240096,Chrome,1920,1080,,,,,0,880,,,,,,,,,,,,,,,,,125,H,triangle,0,1,,,,,,,,,,,,,,,,repeat,number,NA,f,0.461,Lo,,,,,,3,,,,,,,,low,22,0,22,0,1,,,,,
295660,2022-11-15_14h28.55.910,vts_reward_expectancy_bt,2022.2.4,Win32,60.0240096,Chrome,1920,1080,,,,,0,880,,,,,,,,,,,,,,,,,167,D,hexagon,0,1,,,,,,,,,,,,,,,,repeat,number,NA,d,0.4054,Lo,,,,,,3,,,,,,,,low,23,0,23,0,1,,,,,
295660,2022-11-15_14h28.55.910,vts_reward_expectancy_bt,2022.2.4,Win32,60.0240096,Chrome,1920,1080,,,,,0,880,,,,,,,,,,,,,,,,,167,B,triangle,1,1,,,,,,,,,,,,,,,,repeat,number,numRpt,f,0.4215,Hi,,,,,,3,,,,,,,,low,24,0,24,0,1,,,,,
295660,2022-11-15_14h28.55.910,vts_reward_expectancy_bt,2022.2.4,Win32,60.0240096,Chrome,1920,1080,,,,,1,881,,,,,,,,,,,,,,,,,132,D,hexagon,1,0,,,,,,,,,,,,,,,,switch,letter,lettSwt,j,0.4275,Hi,,,,,,3,,,,,,,,low,25,0,25,0,1,,,,,
295660,2022-11-15_14h28.55.910,vts_reward_expectancy_bt,2022.2.4,Win32,60.0240096,Chrome,1920,1080,,,,,0,881,,,,,,,,,,,,,,,,,181,F,star,0,0,,,,,,,,,,,,,,,,repeat,letter,NA,k,0.4388,Hi,,,,,,3,,,,,,,,low,26,0,26,0,1,,,,,
295660,2022-11-15_14h28.55.910,vts_reward_expectancy_bt,2022.2.4,Win32,60.0240096,Chrome,1920,1080,,,,,0,881,,,,,,,,,,,,,,,,,174,U,circle,0,1,,,,,,,,,,,,,,,,repeat,letter,NA,j,0.1168,Hi,,,,,,3,,,,,,,,low,27,0,27,0,1,,,,,
295660,2022-11-15_14h28.55.910,vts_reward_expectancy_bt,2022.2.4,Win32,60.0240096,Chrome,1920,1080,,,,,10,891,,,,,,,,,,,,,,,,,125,Y,hexagon,1,1,,,,,,,,,,,,,,,,switch,number,numSwt,d,0.2784,Hi,,,,,,3,,,,,,,,low,28,0,28,0,1,,,,,
295660,2022-11-15_14h28.55.910,vts_reward_expectancy_bt,2022.2.4,Win32,60.0240096,Chrome,1920,1080,,,,,0,891,,,,,,,,,,,,,,,,,160,W,triangle,0,0,,,,,,,,,,,,,,,,repeat,number,NA,d,0.3767,Hi,,,,,,3,,,,,,,,low,29,0,29,0,1,,,,,
295660,2022-11-15_14h28.55.910,vts_reward_expectancy_bt,2022.2.4,Win32,60.0240096,Chrome,1920,1080,,,,,1,892,,,,,,,,,,,,,,,,,146,H,circle,1,1,,,,,,,,,,,,,,,,repeat,number,numRpt,d,0.275,Lo,,,,,,3,,,,,,,,low,30,0,30,0,1,,,,,
295660,2022-11-15_14h28.55.910,vts_reward_expectancy_bt,2022.2.4,Win32,60.0240096,Chrome,1920,1080,,,,,0,892,,,,,,,,,,,,,,,,,139,S,star,0,0,,,,,,,,,,,,,,,,repeat,number,NA,f,0.2853,Lo,,,,,,3,,,,,,,,low,31,0,31,0,1,,,,,
295660,2022-11-15_14h28.55.910,vts_reward_expectancy_bt,2022.2.4,Win32,60.0240096,Chrome,1920,1080,,,,,0,892,,,,,,,,,,,,,,,,,160,F,triangle,0,1,,,,,,,,,,,,,,,,switch,letter,NA,k,1.1444,Lo,,,,,,4,,,,,,space,2.5772,low,0,0,0,0,1,,,,,
295660,2022-11-15_14h28.55.910,vts_reward_expectancy_bt,2022.2.4,Win32,60.0240096,Chrome,1920,1080,,,,,10,902,,,,,,,,,,,,,,,,,181,H,circle,1,1,,,,,,,,,,,,,,,,repeat,letter,lettRpt,j,0.3496,Lo,,,,,,4,,,,,,,,low,1,0,1,0,1,,,,,
295660,2022-11-15_14h28.55.910,vts_reward_expectancy_bt,2022.2.4,Win32,60.0240096,Chrome,1920,1080,,,,,0,902,,,,,,,,,,,,,,,,,125,W,star,0,0,,,,,,,,,,,,,,,,switch,number,NA,f,0.2724,Lo,,,,,,4,,,,,,,,low,2,0,2,0,1,,,,,
295660,2022-11-15_14h28.55.910,vts_reward_expectancy_bt,2022.2.4,Win32,60.0240096,Chrome,1920,1080,,,,,1,903,,,,,,,,,,,,,,,,,146,B,hexagon,1,1,,,,,,,,,,,,,,,,repeat,number,numRpt,d,0.2346,Hi,,,,,,4,,,,,,,,low,3,0,3,0,1,,,,,
295660,2022-11-15_14h28.55.910,vts_reward_expectancy_bt,2022.2.4,Win32,60.0240096,Chrome,1920,1080,,,,,0,903,,,,,,,,,,,,,,,,,132,Y,triangle,0,0,,,,,,,,,,,,,,,,switch,letter,NA,j,0.2394,Hi,,,,,,4,,,,,,,,low,4,0,4,0,1,,,,,
295660,2022-11-15_14h28.55.910,vts_reward_expectancy_bt,2022.2.4,Win32,60.0240096,Chrome,1920,1080,,,,,1,904,,,,,,,,,,,,,,,,,174,U,circle,1,1,,,,,,,,,,,,,,,,repeat,letter,lettRpt,k,0.1897,Lo,,,,,,4,,,,,,,,low,5,0,5,0,1,,,,,
295660,2022-11-15_14h28.55.910,vts_reward_expectancy_bt,2022.2.4,Win32,60.0240096,Chrome,1920,1080,,,,,0,904,,,,,,,,,,,,,,,,,167,S,star,0,0,,,,,,,,,,,,,,,,repeat,letter,NA,j,0.2318,Lo,,,,,,4,,,,,,,,low,6,0,6,0,1,,,,,
295660,2022-11-15_14h28.55.910,vts_reward_expectancy_bt,2022.2.4,Win32,60.0240096,Chrome,1920,1080,,,,,10,914,,,,,,,,,,,,,,,,,139,D,hexagon,1,1,,,,,,,,,,,,,,,,switch,number,numSwt,d,0.3393,Hi,,,,,,4,,,,,,,,low,7,0,7,0,1,,,,,
295660,2022-11-15_14h28.55.910,vts_reward_expectancy_bt,2022.2.4,Win32,60.0240096,Chrome,1920,1080,,,,,1,915,,,,,,,,,,,,,,,,,160,F,circle,1,0,,,,,,,,,,,,,,,,repeat,number,numRpt,f,0.4367,Lo,,,,,,4,,,,,,,,low,8,0,8,0,1,,,,,
295660,2022-11-15_14h28.55.910,vts_reward_expectancy_bt,2022.2.4,Win32,60.0240096,Chrome,1920,1080,,,,,0,915,,,,,,,,,,,,,,,,,181,H,hexagon,0,0,,,,,,,,,,,,,,,,repeat,number,NA,d,0.5158,Lo,,,,,,4,,,,,,,,low,9,0,9,0,1,,,,,
295660,2022-11-15_14h28.55.910,vts_reward_expectancy_bt,2022.2.4,Win32,60.0240096,Chrome,1920,1080,,,,,0,915,,,,,,,,,,,,,,,,,125,W,triangle,1,1,,,,,,,,,,,,,,,,switch,letter,lettSwt,k,0.6411,Hi,,,,,,4,,,,,,,,low,10,0,10,0,1,,,,,
295660,2022-11-15_14h28.55.910,vts_reward_expectancy_bt,2022.2.4,Win32,60.0240096,Chrome,1920,1080,,,,,1,916,,,,,,,,,,,,,,,,,146,B,star,1,0,,,,,,,,,,,,,,,,switch,number,numSwt,d,0.3158,Lo,,,,,,4,,,,,,,,low,11,0,11,0,1,,,,,
295660,2022-11-15_14h28.55.910,vts_reward_expectancy_bt,2022.2.4,Win32,60.0240096,Chrome,1920,1080,,,,,10,926,,,,,,,,,,,,,,,,,132,Y,star,1,0,,,,,,,,,,,,,,,,repeat,number,numRpt,d,0.3656,Lo,,,,,,4,,,,,,,,low,12,0,12,0,1,,,,,
295660,2022-11-15_14h28.55.910,vts_reward_expectancy_bt,2022.2.4,Win32,60.0240096,Chrome,1920,1080,,,,,0,926,,,,,,,,,,,,,,,,,174,U,triangle,0,0,,,,,,,,,,,,,,,,repeat,number,NA,d,0.3547,Lo,,,,,,4,,,,,,,,low,13,0,13,0,1,,,,,
295660,2022-11-15_14h28.55.910,vts_reward_expectancy_bt,2022.2.4,Win32,60.0240096,Chrome,1920,1080,,,,,0,926,,,,,,,,,,,,,,,,,167,S,circle,0,1,,,,,,,,,,,,,,,,switch,letter,NA,j,0.3334,Lo,,,,,,4,,,,,,,,low,14,0,14,0,1,,,,,
295660,2022-11-15_14h28.55.910,vts_reward_expectancy_bt,2022.2.4,Win32,60.0240096,Chrome,1920,1080,,,,,0,926,,,,,,,,,,,,,,,,,139,D,hexagon,1,1,,,,,,,,,,,,,,,,switch,number,numSwt,d,0.3711,Hi,,,,,,4,,,,,,,,low,15,0,15,0,1,,,,,
295660,2022-11-15_14h28.55.910,vts_reward_expectancy_bt,2022.2.4,Win32,60.0240096,Chrome,1920,1080,,,,,0,926,,,,,,,,,,,,,,,,,174,D,hexagon,0,0,,,,,,,,,,,,,,,,repeat,number,NA,d,0.4448,Hi,,,,,,4,,,,,,,,low,16,0,16,0,1,,,,,
295660,2022-11-15_14h28.55.910,vts_reward_expectancy_bt,2022.2.4,Win32,60.0240096,Chrome,1920,1080,,,,,0,926,,,,,,,,,,,,,,,,,167,S,circle,0,1,,,,,,,,,,,,,,,,repeat,number,NA,d,0.2622,Hi,,,,,,4,,,,,,,,low,17,0,17,0,1,,,,,
295660,2022-11-15_14h28.55.910,vts_reward_expectancy_bt,2022.2.4,Win32,60.0240096,Chrome,1920,1080,,,,,10,936,,,,,,,,,,,,,,,,,125,B,star,1,1,,,,,,,,,,,,,,,,repeat,number,numRpt,d,0.0884,Lo,,,,,,4,,,,,,,,low,18,0,18,0,1,,,,,
295660,2022-11-15_14h28.55.910,vts_reward_expectancy_bt,2022.2.4,Win32,60.0240096,Chrome,1920,1080,,,,,10,946,,,,,,,,,,,,,,,,,132,H,triangle,1,0,,,,,,,,,,,,,,,,switch,letter,lettSwt,j,0.0019,Hi,,,,,,4,,,,,,,,low,19,0,19,0,1,,,,,
295660,2022-11-15_14h28.55.910,vts_reward_expectancy_bt,2022.2.4,Win32,60.0240096,Chrome,1920,1080,,,,,10,956,,,,,,,,,,,,,,,,,160,F,triangle,1,0,,,,,,,,,,,,,,,,repeat,letter,lettRpt,j,0.1272,Hi,,,,,,4,,,,,,,,low,20,0,20,0,1,,,,,
295660,2022-11-15_14h28.55.910,vts_reward_expectancy_bt,2022.2.4,Win32,60.0240096,Chrome,1920,1080,,,,,1,957,,,,,,,,,,,,,,,,,146,U,star,1,0,,,,,,,,,,,,,,,,switch,number,numSwt,d,0.0816,Lo,,,,,,4,,,,,,,,low,21,0,21,0,1,,,,,
295660,2022-11-15_14h28.55.910,vts_reward_expectancy_bt,2022.2.4,Win32,60.0240096,Chrome,1920,1080,,,,,0,957,,,,,,,,,,,,,,,,,181,Y,hexagon,0,0,,,,,,,,,,,,,,,,switch,letter,NA,j,0.0958,Lo,,,,,,4,,,,,,,,low,22,0,22,0,1,,,,,
295660,2022-11-15_14h28.55.910,vts_reward_expectancy_bt,2022.2.4,Win32,60.0240096,Chrome,1920,1080,,,,,0,957,,,,,,,,,,,,,,,,,139,W,circle,0,1,,,,,,,,,,,,,,,,repeat,letter,NA,j,0.0325,Lo,,,,,,4,,,,,,,,low,23,0,23,0,1,,,,,
295660,2022-11-15_14h28.55.910,vts_reward_expectancy_bt,2022.2.4,Win32,60.0240096,Chrome,1920,1080,,,,,0,957,,,,,,,,,,,,,,,,,160,U,hexagon,0,1,,,,,,,,,,,,,,,,switch,number,NA,d,0.1655,Lo,,,,,,4,,,,,,,,low,24,0,24,0,1,,,,,
295660,2022-11-15_14h28.55.910,vts_reward_expectancy_bt,2022.2.4,Win32,60.0240096,Chrome,1920,1080,,,,,1,958,,,,,,,,,,,,,,,,,174,B,star,1,1,,,,,,,,,,,,,,,,repeat,number,numRpt,f,0.0188,Lo,,,,,,4,,,,,,,,low,25,0,25,0,1,,,,,
295660,2022-11-15_14h28.55.910,vts_reward_expectancy_bt,2022.2.4,Win32,60.0240096,Chrome,1920,1080,,,,,0,958,,,,,,,,,,,,,,,,,146,H,circle,0,0,,,,,,,,,,,,,,,,repeat,number,NA,f,0.0052,Lo,,,,,,4,,,,,,,,low,26,0,26,0,1,,,,,
295660,2022-11-15_14h28.55.910,vts_reward_expectancy_bt,2022.2.4,Win32,60.0240096,Chrome,1920,1080,,,,,0,958,,,,,,,,,,,,,,,,,181,D,triangle,1,1,,,,,,,,,,,,,,,,switch,letter,lettSwt,j,0.3941,Hi,,,,,,4,,,,,,,,low,27,0,27,0,1,,,,,
295660,2022-11-15_14h28.55.910,vts_reward_expectancy_bt,2022.2.4,Win32,60.0240096,Chrome,1920,1080,,,,,10,968,,,,,,,,,,,,,,,,,132,F,star,1,0,,,,,,,,,,,,,,,,repeat,letter,lettRpt,j,0.5992,Lo,,,,,,4,,,,,,,,low,28,0,28,0,1,,,,,
295660,2022-11-15_14h28.55.910,vts_reward_expectancy_bt,2022.2.4,Win32,60.0240096,Chrome,1920,1080,,,,,0,968,,,,,,,,,,,,,,,,,167,S,circle,0,0,,,,,,,,,,,,,,,,switch,number,NA,d,0.3486,Lo,,,,,,4,,,,,,,,low,29,0,29,0,1,,,,,
295660,2022-11-15_14h28.55.910,vts_reward_expectancy_bt,2022.2.4,Win32,60.0240096,Chrome,1920,1080,,,,,0,968,,,,,,,,,,,,,,,,,125,W,triangle,0,1,,,,,,,,,,,,,,,,repeat,number,NA,f,0.4006,Lo,,,,,,4,,,,,,,,low,30,0,30,0,1,,,,,
295660,2022-11-15_14h28.55.910,vts_reward_expectancy_bt,2022.2.4,Win32,60.0240096,Chrome,1920,1080,,,,,0,968,,,,,,,,,,,,,,,,,139,Y,hexagon,0,1,,,,,,,,,,,,,,,,repeat,number,NA,f,0.1674,Lo,,,,,,4,,,,,,,,low,31,0,31,0,1,,,,,
295660,2022-11-15_14h28.55.910,vts_reward_expectancy_bt,2022.2.4,Win32,60.0240096,Chrome,1920,1080,,,,,1,969,,,,,,,,,,,,,,,,,125,W,circle,1,1,,,,,,,,,,,,,,,,repeat,number,numRpt,d,0.0508,Lo,,,,,,5,,,,,,space,2.9277,low,0,0,0,0,1,,,,,
295660,2022-11-15_14h28.55.910,vts_reward_expectancy_bt,2022.2.4,Win32,60.0240096,Chrome,1920,1080,,,,,0,969,,,,,,,,,,,,,,,,,139,U,star,0,0,,,,,,,,,,,,,,,,switch,letter,NA,j,0.1253,Lo,,,,,,5,,,,,,,,low,1,0,1,0,1,,,,,
295660,2022-11-15_14h28.55.910,vts_reward_expectancy_bt,2022.2.4,Win32,60.0240096,Chrome,1920,1080,,,,,0,969,,,,,,,,,,,,,,,,,174,S,triangle,0,1,,,,,,,,,,,,,,,,switch,number,NA,d,0.2171,Lo,,,,,,5,,,,,,,,low,2,0,2,0,1,,,,,
295660,2022-11-15_14h28.55.910,vts_reward_expectancy_bt,2022.2.4,Win32,60.0240096,Chrome,1920,1080,,,,,1,970,,,,,,,,,,,,,,,,,132,H,hexagon,1,1,,,,,,,,,,,,,,,,switch,letter,lettSwt,j,0.1711,Hi,,,,,,5,,,,,,,,low,3,0,3,0,1,,,,,
295660,2022-11-15_14h28.55.910,vts_reward_expectancy_bt,2022.2.4,Win32,60.0240096,Chrome,1920,1080,,,,,1,971,,,,,,,,,,,,,,,,,181,B,circle,1,0,,,,,,,,,,,,,,,,repeat,letter,lettRpt,j,0.1867,Lo,,,,,,5,,,,,,,,low,4,0,4,0,1,,,,,
295660,2022-11-15_14h28.55.910,vts_reward_expectancy_bt,2022.2.4,Win32,60.0240096,Chrome,1920,1080,,,,,0,971,,,,,,,,,,,,,,,,,167,F,star,0,0,,,,,,,,,,,,,,,,switch,number,NA,d,0.1348,Lo,,,,,,5,,,,,,,,low,5,0,5,0,1,,,,,
295660,2022-11-15_14h28.55.910,vts_reward_expectancy_bt,2022.2.4,Win32,60.0240096,Chrome,1920,1080,,,,,10,981,,,,,,,,,,,,,,,,,160,D,triangle,1,1,,,,,,,,,,,,,,,,switch,letter,lettSwt,j,0.0003,Hi,,,,,,5,,,,,,,,low,6,0,6,0,1,,,,,
295660,2022-11-15_14h28.55.910,vts_reward_expectancy_bt,2022.2.4,Win32,60.0240096,Chrome,1920,1080,,,,,10,991,,,,,,,,,,,,,,,,,146,Y,hexagon,1,0,,,,,,,,,,,,,,,,switch,number,numSwt,d,0.0815,Hi,,,,,,5,,,,,,,,low,7,0,7,0,1,,,,,
295660,2022-11-15_14h28.55.910,vts_reward_expectancy_bt,2022.2.4,Win32,60.0240096,Chrome,1920,1080,,,,,10,1001,,,,,,,,,,,,,,,,,125,W,star,1,0,,,,,,,,,,,,,,,,repeat,number,numRpt,d,0.0177,Lo,,,,,,5,,,,,,,,low,8,0,8,0,1,,,,,
295660,2022-11-15_14h28.55.910,vts_reward_expectancy_bt,2022.2.4,Win32,60.0240096,Chrome,1920,1080,,,,,0,1001,,,,,,,,,,,,,,,,,139,U,circle,0,0,,,,,,,,,,,,,,,,switch,letter,NA,j,0.1101,Lo,,,,,,5,,,,,,,,low,9,0,9,0,1,,,,,
295660,2022-11-15_14h28.55.910,vts_reward_expectancy_bt,2022.2.4,Win32,60.0240096,Chrome,1920,1080,,,,,0,1001,,,,,,,,,,,,,,,,,174,S,triangle,0,1,,,,,,,,,,,,,,,,repeat,letter,NA,j,0.0287,Lo,,,,,,5,,,,,,,,low,10,0,10,0,1,,,,,
295660,2022-11-15_14h28.55.910,vts_reward_expectancy_bt,2022.2.4,Win32,60.0240096,Chrome,1920,1080,,,,,1,1002,,,,,,,,,,,,,,,,,132,H,hexagon,1,1,,,,,,,,,,,,,,,,repeat,letter,lettRpt,j,0.0669,Hi,,,,,,5,,,,,,,,low,11,0,11,0,1,,,,,
295660,2022-11-15_14h28.55.910,vts_reward_expectancy_bt,2022.2.4,Win32,60.0240096,Chrome,1920,1080,,,,,0,1002,,,,,,,,,,,,,,,,,181,B,star,0,0,,,,,,,,,,,,,,,,switch,number,NA,d,0.0551,Hi,,,,,,5,,,,,,,,low,12,0,12,0,1,,,,,
295660,2022-11-15_14h28.55.910,vts_reward_expectancy_bt,2022.2.4,Win32,60.0240096,Chrome,1920,1080,,,,,10,1012,,,,,,,,,,,,,,,,,167,F,hexagon,1,1,,,,,,,,,,,,,,,,switch,letter,lettSwt,j,0.1328,Hi,,,,,,5,,,,,,,,low,13,0,13,0,1,,,,,
295660,2022-11-15_14h28.55.910,vts_reward_expectancy_bt,2022.2.4,Win32,60.0240096,Chrome,1920,1080,,,,,0,1012,,,,,,,,,,,,,,,,,160,D,circle,0,0,,,,,,,,,,,,,,,,switch,number,NA,d,0.2586,Hi,,,,,,5,,,,,,,,low,14,0,14,0,1,,,,,
295660,2022-11-15_14h28.55.910,vts_reward_expectancy_bt,2022.2.4,Win32,60.0240096,Chrome,1920,1080,,,,,0,1012,,,,,,,,,,,,,,,,,146,Y,triangle,0,1,,,,,,,,,,,,,,,,switch,letter,NA,j,0.2561,Hi,,,,,,5,,,,,,,,low,15,0,15,0,1,,,,,
295660,2022-11-15_14h28.55.910,vts_reward_expectancy_bt,2022.2.4,Win32,60.0240096,Chrome,1920,1080,,,,,0,1012,,,,,,,,,,,,,,,,,132,B,triangle,1,1,,,,,,,,,,,,,,,,repeat,letter,lettRpt,j,0.6059,Hi,,,,,,5,,,,,,,,low,16,0,16,0,1,,,,,
295660,2022-11-15_14h28.55.910,vts_reward_expectancy_bt,2022.2.4,Win32,60.0240096,Chrome,1920,1080,,,,,10,1022,,,,,,,,,,,,,,,,,167,S,circle,1,0,,,,,,,,,,,,,,,,switch,number,numSwt,f,0.0003,Lo,,,,,,5,,,,,,,,low,17,0,17,0,1,,,,,
295660,2022-11-15_14h28.55.910,vts_reward_expectancy_bt,2022.2.4,Win32,60.0240096,Chrome,1920,1080,,,,,10,1032,,,,,,,,,,,,,,,,,139,F,star,1,0,,,,,,,,,,,,,,,,switch,letter,lettSwt,j,0.0537,Lo,,,,,,5,,,,,,,,low,18,0,18,0,1,,,,,
295660,2022-11-15_14h28.55.910,vts_reward_expectancy_bt,2022.2.4,Win32,60.0240096,Chrome,1920,1080,,,,,0,1032,,,,,,,,,,,,,,,,,160,Y,hexagon,0,0,,,,,,,,,,,,,,,,repeat,letter,NA,j,0.1487,Lo,,,,,,5,,,,,,,,low,19,0,19,0,1,,,,,
295660,2022-11-15_14h28.55.910,vts_reward_expectancy_bt,2022.2.4,Win32,60.0240096,Chrome,1920,1080,,,,,0,1032,,,,,,,,,,,,,,,,,181,U,star,0,1,,,,,,,,,,,,,,,,switch,number,NA,d,0.2408,Lo,,,,,,5,,,,,,,,low,20,0,20,0,1,,,,,
295660,2022-11-15_14h28.55.910,vts_reward_expectancy_bt,2022.2.4,Win32,60.0240096,Chrome,1920,1080,,,,,10,1042,,,,,,,,,,,,,,,,,146,D,circle,1,1,,,,,,,,,,,,,,,,switch,letter,lettSwt,j,0.184,Lo,,,,,,5,,,,,,,,low,21,0,21,0,1,,,,,
295660,2022-11-15_14h28.55.910,vts_reward_expectancy_bt,2022.2.4,Win32,60.0240096,Chrome,1920,1080,,,,,1,1043,,,,,,,,,,,,,,,,,174,H,hexagon,1,0,,,,,,,,,,,,,,,,switch,number,numSwt,f,0.0536,Hi,,,,,,5,,,,,,,,low,22,0,22,0,1,,,,,
295660,2022-11-15_14h28.55.910,vts_reward_expectancy_bt,2022.2.4,Win32,60.0240096,Chrome,1920,1080,,,,,1,1044,,,,,,,,,,,,,,,,,125,W,triangle,1,0,,,,,,,,,,,,,,,,repeat,number,numRpt,d,0.1284,Hi,,,,,,5,,,,,,,,low,23,0,23,0,1,,,,,
295660,2022-11-15_14h28.55.910,vts_reward_expectancy_bt,2022.2.4,Win32,60.0240096,Chrome,1920,1080,,,,,1,1045,,,,,,,,,,,,,,,,,174,B,star,1,0,,,,,,,,,,,,,,,,repeat,number,numRpt,f,0.0613,Lo,,,,,,5,,,,,,,,low,24,0,24,0,1,,,,,
295660,2022-11-15_14h28.55.910,vts_reward_expectancy_bt,2022.2.4,Win32,60.0240096,Chrome,1920,1080,,,,,1,1046,,,,,,,,,,,,,,,,,160,D,circle,1,0,,,,,,,,,,,,,,,,repeat,number,numRpt,f,0.2239,Lo,,,,,,5,,,,,,,,low,25,0,25,0,1,,,,,
295660,2022-11-15_14h28.55.910,vts_reward_expectancy_bt,2022.2.4,Win32,60.0240096,Chrome,1920,1080,,,,,10,1056,,,,,,,,,,,,,,,,,132,S,hexagon,1,0,,,,,,,,,,,,,,,,repeat,number,numRpt,d,0.065,Hi,,,,,,5,,,,,,,,low,26,0,26,0,1,,,,,
295660,2022-11-15_14h28.55.910,vts_reward_expectancy_bt,2022.2.4,Win32,60.0240096,Chrome,1920,1080,,,,,0,1056,,,,,,,,,,,,,,,,,139,W,triangle,0,0,,,,,,,,,,,,,,,,switch,letter,NA,j,0.1106,Hi,,,,,,5,,,,,,,,low,27,0,27,0,1,,,,,
295660,2022-11-15_14h28.55.910,vts_reward_expectancy_bt,2022.2.4,Win32,60.0240096,Chrome,1920,1080,,,,,10,1066,,,,,,,,,,,,,,,,,146,Y,circle,1,1,,,,,,,,,,,,,,,,switch,number,numSwt,d,0.0349,Lo,,,,,,5,,,,,,,,low,28,0,28,0,1,,,,,
295660,2022-11-15_14h28.55.910,vts_reward_expectancy_bt,2022.2.4,Win32,60.0240096,Chrome,1920,1080,,,,,10,1076,,,,,,,,,,,,,,,,,181,H,star,1,0,,,,,,,,,,,,,,,,switch,letter,lettSwt,j,0.0213,Lo,,,,,,5,,,,,,,,low,29,0,29,0,1,,,,,
295660,2022-11-15_14h28.55.910,vts_reward_expectancy_bt,2022.2.4,Win32,60.0240096,Chrome,1920,1080,,,,,0,1076,,,,,,,,,,,,,,,,,167,U,hexagon,0,0,,,,,,,,,,,,,,,,switch,number,NA,d,0.0151,Lo,,,,,,5,,,,,,,,low,30,0,30,0,1,,,,,
295660,2022-11-15_14h28.55.910,vts_reward_expectancy_bt,2022.2.4,Win32,60.0240096,Chrome,1920,1080,,,,,0,1076,,,,,,,,,,,,,,,,,125,F,triangle,0,1,,,,,,,,,,,,,,,,repeat,number,NA,f,0.0217,Lo,,,,,,5,,,,,,,,low,31,0,31,0,1,,,,,
295660,2022-11-15_14h28.55.910,vts_reward_expectancy_bt,2022.2.4,Win32,60.0240096,Chrome,1920,1080,,,,,0,1076,,,,,,,,,,,,,,,,,139,D,triangle,1,1,,,,,,,,,,,,,,,,switch,letter,lettSwt,j,0.1206,Hi,,,,,,6,,,,,,space,1.4404,low,0,0,0,0,1,,,,,
295660,2022-11-15_14h28.55.910,vts_reward_expectancy_bt,2022.2.4,Win32,60.0240096,Chrome,1920,1080,,,,,10,1086,,,,,,,,,,,,,,,,,146,F,star,1,0,,,,,,,,,,,,,,,,repeat,letter,lettRpt,j,0.1178,Lo,,,,,,6,,,,,,,,low,1,0,1,0,1,,,,,
295660,2022-11-15_14h28.55.910,vts_reward_expectancy_bt,2022.2.4,Win32,60.0240096,Chrome,1920,1080,,,,,0,1086,,,,,,,,,,,,,,,,,132,W,circle,0,0,,,,,,,,,,,,,,,,repeat,letter,NA,j,0.0737,Lo,,,,,,6,,,,,,,,low,2,0,2,0,1,,,,,
295660,2022-11-15_14h28.55.910,vts_reward_expectancy_bt,2022.2.4,Win32,60.0240096,Chrome,1920,1080,,,,,10,1096,,,,,,,,,,,,,,,,,125,S,hexagon,1,1,,,,,,,,,,,,,,,,switch,number,numSwt,d,0.0002,Hi,,,,,,6,,,,,,,,low,3,0,3,0,1,,,,,
295660,2022-11-15_14h28.55.910,vts_reward_expectancy_bt,2022.2.4,Win32,60.0240096,Chrome,1920,1080,,,,,0,1096,,,,,,,,,,,,,,,,,160,Y,triangle,1,0,,,,,,,,,,,,,,,,switch,letter,lettSwt,k,0.0748,Hi,,,,,,6,,,,,,,,low,4,0,4,0,1,,,,,
295660,2022-11-15_14h28.55.910,vts_reward_expectancy_bt,2022.2.4,Win32,60.0240096,Chrome,1920,1080,,,,,1,1097,,,,,,,,,,,,,,,,,167,H,star,1,0,,,,,,,,,,,,,,,,repeat,letter,lettRpt,j,0.1405,Lo,,,,,,6,,,,,,,,low,5,0,5,0,1,,,,,
295660,2022-11-15_14h28.55.910,vts_reward_expectancy_bt,2022.2.4,Win32,60.0240096,Chrome,1920,1080,,,,,10,1107,,,,,,,,,,,,,,,,,181,B,circle,1,0,,,,,,,,,,,,,,,,repeat,letter,lettRpt,j,0.132,Lo,,,,,,6,,,,,,,,low,6,0,6,0,1,,,,,
295660,2022-11-15_14h28.55.910,vts_reward_expectancy_bt,2022.2.4,Win32,60.0240096,Chrome,1920,1080,,,,,0,1107,,,,,,,,,,,,,,,,,174,U,hexagon,1,0,,,,,,,,,,,,,,,,switch,number,numSwt,f,0.1414,Hi,,,,,,6,,,,,,,,low,7,0,7,0,1,,,,,
295660,2022-11-15_14h28.55.910,vts_reward_expectancy_bt,2022.2.4,Win32,60.0240096,Chrome,1920,1080,,,,,1,1108,,,,,,,,,,,,,,,,,139,D,circle,1,0,,,,,,,,,,,,,,,,switch,letter,lettSwt,j,0.0939,Lo,,,,,,6,,,,,,,,low,8,0,8,0,1,,,,,
295660,2022-11-15_14h28.55.910,vts_reward_expectancy_bt,2022.2.4,Win32,60.0240096,Chrome,1920,1080,,,,,1,1109,,,,,,,,,,,,,,,,,146,F,star,1,0,,,,,,,,,,,,,,,,switch,number,numSwt,d,0.1361,Lo,,,,,,6,,,,,,,,low,9,0,9,0,1,,,,,
295660,2022-11-15_14h28.55.910,vts_reward_expectancy_bt,2022.2.4,Win32,60.0240096,Chrome,1920,1080,,,,,0,1109,,,,,,,,,,,,,,,,,132,W,hexagon,0,0,,,,,,,,,,,,,,,,switch,letter,NA,j,0.0622,Lo,,,,,,6,,,,,,,,low,10,0,10,0,1,,,,,
295660,2022-11-15_14h28.55.910,vts_reward_expectancy_bt,2022.2.4,Win32,60.0240096,Chrome,1920,1080,,,,,0,1109,,,,,,,,,,,,,,,,,125,S,triangle,0,1,,,,,,,,,,,,,,,,repeat,letter,NA,j,0.7663,Lo,,,,,,6,,,,,,,,low,11,0,11,0,1,,,,,
295660,2022-11-15_14h28.55.910,vts_reward_expectancy_bt,2022.2.4,Win32,60.0240096,Chrome,1920,1080,,,,,0,1109,,,,,,,,,,,,,,,,,160,Y,hexagon,0,1,,,,,,,,,,,,,,,,switch,number,NA,d,0.0272,Lo,,,,,,6,,,,,,,,low,12,0,12,0,1,,,,,
295660,2022-11-15_14h28.55.910,vts_reward_expectancy_bt,2022.2.4,Win32,60.0240096,Chrome,1920,1080,,,,,10,1119,,,,,,,,,,,,,,,,,167,H,circle,1,1,,,,,,,,,,,,,,,,switch,letter,lettSwt,j,0.1009,Lo,,,,,,6,,,,,,,,low,13,0,13,0,1,,,,,
295660,2022-11-15_14h28.55.910,vts_reward_expectancy_bt,2022.2.4,Win32,60.0240096,Chrome,1920,1080,,,,,1,1120,,,,,,,,,,,,,,,,,181,B,star,1,0,,,,,,,,,,,,,,,,repeat,letter,lettRpt,j,0.0156,Lo,,,,,,6,,,,,,,,low,14,0,14,0,1,,,,,
295660,2022-11-15_14h28.55.910,vts_reward_expectancy_bt,2022.2.4,Win32,60.0240096,Chrome,1920,1080,,,,,1,1121,,,,,,,,,,,,,,,,,174,U,triangle,1,0,,,,,,,,,,,,,,,,switch,number,numSwt,f,0.0054,Hi,,,,,,6,,,,,,,,low,15,0,15,0,1,,,,,
295660,2022-11-15_14h28.55.910,vts_reward_expectancy_bt,2022.2.4,Win32,60.0240096,Chrome,1920,1080,,,,,0,1121,,,,,,,,,,,,,,,,,146,Y,triangle,1,0,,,,,,,,,,,,,,,,repeat,number,numRpt,d,0.0868,Hi,,,,,,6,,,,,,,,low,16,0,16,0,1,,,,,
295660,2022-11-15_14h28.55.910,vts_reward_expectancy_bt,2022.2.4,Win32,60.0240096,Chrome,1920,1080,,,,,10,1131,,,,,,,,,,,,,,,,,167,H,circle,1,0,,,,,,,,,,,,,,,,switch,letter,lettSwt,j,0.3604,Lo,,,,,,6,,,,,,,,low,17,0,17,0,1,,,,,
295660,2022-11-15_14h28.55.910,vts_reward_expectancy_bt,2022.2.4,Win32,60.0240096,Chrome,1920,1080,,,,,0,1131,,,,,,,,,,,,,,,,,139,B,hexagon,1,0,,,,,,,,,,,,,,,,switch,number,numSwt,d,0.4155,Hi,,,,,,6,,,,,,,,low,18,0,18,0,1,,,,,
295660,2022-11-15_14h28.55.910,vts_reward_expectancy_bt,2022.2.4,Win32,60.0240096,Chrome,1920,1080,,,,,0,1131,,,,,,,,,,,,,,,,,174,U,star,0,0,,,,,,,,,,,,,,,,repeat,number,NA,d,0.003,Hi,,,,,,6,,,,,,,,low,19,0,19,0,1,,,,,
295660,2022-11-15_14h28.55.910,vts_reward_expectancy_bt,2022.2.4,Win32,60.0240096,Chrome,1920,1080,,,,,1,1132,,,,,,,,,,,,,,,,,160,D,circle,1,1,,,,,,,,,,,,,,,,repeat,number,numRpt,f,0.0002,Lo,,,,,,6,,,,,,,,low,20,0,20,0,1,,,,,
295660,2022-11-15_14h28.55.910,vts_reward_expectancy_bt,2022.2.4,Win32,60.0240096,Chrome,1920,1080,,,,,0,1132,,,,,,,,,,,,,,,,,132,F,triangle,1,0,,,,,,,,,,,,,,,,switch,letter,lettSwt,j,0.0451,Hi,,,,,,6,,,,,,,,low,21,0,21,0,1,,,,,
295660,2022-11-15_14h28.55.910,vts_reward_expectancy_bt,2022.2.4,Win32,60.0240096,Chrome,1920,1080,,,,,0,1132,,,,,,,,,,,,,,,,,125,W,star,0,0,,,,,,,,,,,,,,,,repeat,letter,NA,j,0.0085,Hi,,,,,,6,,,,,,,,low,22,0,22,0,1,,,,,
295660,2022-11-15_14h28.55.910,vts_reward_expectancy_bt,2022.2.4,Win32,60.0240096,Chrome,1920,1080,,,,,0,1132,,,,,,,,,,,,,,,,,181,S,hexagon,0,1,,,,,,,,,,,,,,,,switch,number,NA,d,0.1212,Hi,,,,,,6,,,,,,,,low,23,0,23,0,1,,,,,
295660,2022-11-15_14h28.55.910,vts_reward_expectancy_bt,2022.2.4,Win32,60.0240096,Chrome,1920,1080,,,,,0,1132,,,,,,,,,,,,,,,,,125,S,circle,0,1,,,,,,,,,,,,,,,,switch,letter,NA,j,0.1989,Hi,,,,,,6,,,,,,,,low,24,0,24,0,1,,,,,
295660,2022-11-15_14h28.55.910,vts_reward_expectancy_bt,2022.2.4,Win32,60.0240096,Chrome,1920,1080,,,,,0,1132,,,,,,,,,,,,,,,,,181,D,star,0,1,,,,,,,,,,,,,,,,switch,number,NA,d,0.0651,Hi,,,,,,6,,,,,,,,low,25,0,25,0,1,,,,,
