participant,date,expName,psychopyVersion,OS,frameRate,browser,xResolution,yResolution,key_resp.keys,key_resp.rt,training_resp.keys,training_resp.rt,points_trial,points_cumul,trainBlock,training.thisRepN,training.thisTrialN,training.thisN,training.thisIndex,training.ran,LTriangleOpac,LCircleOpac,LHexagonOpac,LStarOpac,RTriangleOpac,RCircleOpac,RHexagonOpac,RStarOpac,LShape_ID,RShape_ID,curr_topStim,curr_bottStim,curr_shape,acc,E1,target_resp_prac1.keys,target_resp_prac1.rt,pracBlock,task1_prac_trials.thisRepN,task1_prac_trials.thisTrialN,task1_prac_trials.thisN,task1_prac_trials.thisIndex,task1_prac_trials.ran,target_resp_prac2.keys,target_resp_prac2.rt,task2_praac_trials.thisRepN,task2_praac_trials.thisTrialN,task2_praac_trials.thisN,task2_praac_trials.thisIndex,task2_praac_trials.ran,alt,task,condition,target_resp.keys,target_resp.rt,rewCond,vts_practice_trials.thisRepN,vts_practice_trials.thisTrialN,vts_practice_trials.thisN,vts_practice_trials.thisIndex,vts_practice_trials.ran,blockNum,trials_norew.thisRepN,trials_norew.thisTrialN,trials_norew.thisN,trials_norew.thisIndex,trials_norew.ran,key_resp_2.keys,key_resp_2.rt,rewExpectancy,trials_rew.thisRepN,trials_rew.thisTrialN,trials_rew.thisN,trials_rew.thisIndex,trials_rew.ran,Q1,Q2,Q2_text,Q3,Q4,Q5_text,Q5,xRes,yRes
295756,2022-12-05_17h05.01.360,vts_reward_expectancy_bt,2022.2.4,Win32,351.4938489,Chrome,1536,864,,,,,,,,,,,,,,,,,,,,,,,,,,,,,,,,,,,,,,,,,,,,,,,,,,,,,,,,,,,,,,,,,,,,,,,,,,,,
295756,2022-12-05_17h05.01.360,vts_reward_expectancy_bt,2022.2.4,Win32,351.4938489,Chrome,1536,864,space,3.5168,,,,,,,,,,,,,,,,,,,,,,,,,,,,,,,,,,,,,,,,,,,,,,,,,,,,,,,,,,,,,,,,,,,,,,,,,,
295756,2022-12-05_17h05.01.360,vts_reward_expectancy_bt,2022.2.4,Win32,351.4938489,Chrome,1536,864,,,,,,,,,,,,,,,,,,,,,,,,,,,,,,,,,,,,,,,,,,,,,,,,,,,,,,,,,,,,,,,,,,,,,,,,,,,,
295756,2022-12-05_17h05.01.360,vts_reward_expectancy_bt,2022.2.4,Win32,351.4938489,Chrome,1536,864,,,a,1.8315,1,1,0,0,0,0,9,1,0,0,0,1,1,0,0,0,star,triangle,,,,,,,,,,,,,,,,,,,,,,,,,,,,,,,,,,,,,,,,,,,,,,,,,,,,,,
295756,2022-12-05_17h05.01.360,vts_reward_expectancy_bt,2022.2.4,Win32,351.4938489,Chrome,1536,864,,,l,0.8009,1,2,0,0,1,1,4,1,0,1,0,0,0,0,1,0,circle,hexagon,,,,,,,,,,,,,,,,,,,,,,,,,,,,,,,,,,,,,,,,,,,,,,,,,,,,,,
295756,2022-12-05_17h05.01.360,vts_reward_expectancy_bt,2022.2.4,Win32,351.4938489,Chrome,1536,864,,,a,1.1161,1,3,0,0,2,2,11,1,0,0,0,1,0,0,1,0,star,hexagon,,,,,,,,,,,,,,,,,,,,,,,,,,,,,,,,,,,,,,,,,,,,,,,,,,,,,,
295756,2022-12-05_17h05.01.360,vts_reward_expectancy_bt,2022.2.4,Win32,351.4938489,Chrome,1536,864,,,l,0.7665,1,4,0,0,3,3,8,1,0,0,1,0,0,0,0,1,hexagon,star,,,,,,,,,,,,,,,,,,,,,,,,,,,,,,,,,,,,,,,,,,,,,,,,,,,,,,
295756,2022-12-05_17h05.01.360,vts_reward_expectancy_bt,2022.2.4,Win32,351.4938489,Chrome,1536,864,,,l,0.848,1,5,0,0,4,4,1,1,1,0,0,0,0,0,1,0,triangle,hexagon,,,,,,,,,,,,,,,,,,,,,,,,,,,,,,,,,,,,,,,,,,,,,,,,,,,,,,
295756,2022-12-05_17h05.01.360,vts_reward_expectancy_bt,2022.2.4,Win32,351.4938489,Chrome,1536,864,,,l,0.7687,10,15,0,0,5,5,2,1,1,0,0,0,0,0,0,1,triangle,star,,,,,,,,,,,,,,,,,,,,,,,,,,,,,,,,,,,,,,,,,,,,,,,,,,,,,,
295756,2022-12-05_17h05.01.360,vts_reward_expectancy_bt,2022.2.4,Win32,351.4938489,Chrome,1536,864,,,l,0.9831,10,25,0,0,6,6,5,1,0,1,0,0,0,0,0,1,circle,star,,,,,,,,,,,,,,,,,,,,,,,,,,,,,,,,,,,,,,,,,,,,,,,,,,,,,,
295756,2022-12-05_17h05.01.360,vts_reward_expectancy_bt,2022.2.4,Win32,351.4938489,Chrome,1536,864,,,l,1.4276,1,26,0,0,7,7,3,1,0,1,0,0,1,0,0,0,circle,triangle,,,,,,,,,,,,,,,,,,,,,,,,,,,,,,,,,,,,,,,,,,,,,,,,,,,,,,
295756,2022-12-05_17h05.01.360,vts_reward_expectancy_bt,2022.2.4,Win32,351.4938489,Chrome,1536,864,,,a,0.8309,1,27,0,0,8,8,7,1,0,0,1,0,0,1,0,0,hexagon,circle,,,,,,,,,,,,,,,,,,,,,,,,,,,,,,,,,,,,,,,,,,,,,,,,,,,,,,
295756,2022-12-05_17h05.01.360,vts_reward_expectancy_bt,2022.2.4,Win32,351.4938489,Chrome,1536,864,,,a,0.5528,1,28,0,0,9,9,6,1,0,0,1,0,1,0,0,0,hexagon,triangle,,,,,,,,,,,,,,,,,,,,,,,,,,,,,,,,,,,,,,,,,,,,,,,,,,,,,,
295756,2022-12-05_17h05.01.360,vts_reward_expectancy_bt,2022.2.4,Win32,351.4938489,Chrome,1536,864,,,a,1.0293,1,29,0,0,10,10,0,1,1,0,0,0,0,1,0,0,triangle,circle,,,,,,,,,,,,,,,,,,,,,,,,,,,,,,,,,,,,,,,,,,,,,,,,,,,,,,
295756,2022-12-05_17h05.01.360,vts_reward_expectancy_bt,2022.2.4,Win32,351.4938489,Chrome,1536,864,,,a,0.559,1,30,0,0,11,11,10,1,0,0,0,1,0,1,0,0,star ,circle,,,,,,,,,,,,,,,,,,,,,,,,,,,,,,,,,,,,,,,,,,,,,,,,,,,,,,
295756,2022-12-05_17h05.01.360,vts_reward_expectancy_bt,2022.2.4,Win32,351.4938489,Chrome,1536,864,,,a,0.944,1,31,0,1,0,12,0,1,1,0,0,0,0,1,0,0,triangle,circle,,,,,,,,,,,,,,,,,,,,,,,,,,,,,,,,,,,,,,,,,,,,,,,,,,,,,,
295756,2022-12-05_17h05.01.360,vts_reward_expectancy_bt,2022.2.4,Win32,351.4938489,Chrome,1536,864,,,a,1.0275,10,41,0,1,1,13,9,1,0,0,0,1,1,0,0,0,star,triangle,,,,,,,,,,,,,,,,,,,,,,,,,,,,,,,,,,,,,,,,,,,,,,,,,,,,,,
295756,2022-12-05_17h05.01.360,vts_reward_expectancy_bt,2022.2.4,Win32,351.4938489,Chrome,1536,864,,,a,1.0942,1,42,0,1,2,14,11,1,0,0,0,1,0,0,1,0,star,hexagon,,,,,,,,,,,,,,,,,,,,,,,,,,,,,,,,,,,,,,,,,,,,,,,,,,,,,,
295756,2022-12-05_17h05.01.360,vts_reward_expectancy_bt,2022.2.4,Win32,351.4938489,Chrome,1536,864,,,l,0.7033,10,52,0,1,3,15,3,1,0,1,0,0,1,0,0,0,circle,triangle,,,,,,,,,,,,,,,,,,,,,,,,,,,,,,,,,,,,,,,,,,,,,,,,,,,,,,
295756,2022-12-05_17h05.01.360,vts_reward_expectancy_bt,2022.2.4,Win32,351.4938489,Chrome,1536,864,,,l,0.9942,10,62,0,1,4,16,1,1,1,0,0,0,0,0,1,0,triangle,hexagon,,,,,,,,,,,,,,,,,,,,,,,,,,,,,,,,,,,,,,,,,,,,,,,,,,,,,,
295756,2022-12-05_17h05.01.360,vts_reward_expectancy_bt,2022.2.4,Win32,351.4938489,Chrome,1536,864,,,l,1.4166,10,72,0,1,5,17,8,1,0,0,1,0,0,0,0,1,hexagon,star,,,,,,,,,,,,,,,,,,,,,,,,,,,,,,,,,,,,,,,,,,,,,,,,,,,,,,
295756,2022-12-05_17h05.01.360,vts_reward_expectancy_bt,2022.2.4,Win32,351.4938489,Chrome,1536,864,,,a,0.6702,10,82,0,1,6,18,10,1,0,0,0,1,0,1,0,0,star ,circle,,,,,,,,,,,,,,,,,,,,,,,,,,,,,,,,,,,,,,,,,,,,,,,,,,,,,,
295756,2022-12-05_17h05.01.360,vts_reward_expectancy_bt,2022.2.4,Win32,351.4938489,Chrome,1536,864,,,l,0.7577,10,92,0,1,7,19,5,1,0,1,0,0,0,0,0,1,circle,star,,,,,,,,,,,,,,,,,,,,,,,,,,,,,,,,,,,,,,,,,,,,,,,,,,,,,,
295756,2022-12-05_17h05.01.360,vts_reward_expectancy_bt,2022.2.4,Win32,351.4938489,Chrome,1536,864,,,a,0.7085,1,93,0,1,8,20,7,1,0,0,1,0,0,1,0,0,hexagon,circle,,,,,,,,,,,,,,,,,,,,,,,,,,,,,,,,,,,,,,,,,,,,,,,,,,,,,,
295756,2022-12-05_17h05.01.360,vts_reward_expectancy_bt,2022.2.4,Win32,351.4938489,Chrome,1536,864,,,l,1.1508,10,103,0,1,9,21,2,1,1,0,0,0,0,0,0,1,triangle,star,,,,,,,,,,,,,,,,,,,,,,,,,,,,,,,,,,,,,,,,,,,,,,,,,,,,,,
295756,2022-12-05_17h05.01.360,vts_reward_expectancy_bt,2022.2.4,Win32,351.4938489,Chrome,1536,864,,,a,0.4942,10,113,0,1,10,22,6,1,0,0,1,0,1,0,0,0,hexagon,triangle,,,,,,,,,,,,,,,,,,,,,,,,,,,,,,,,,,,,,,,,,,,,,,,,,,,,,,
295756,2022-12-05_17h05.01.360,vts_reward_expectancy_bt,2022.2.4,Win32,351.4938489,Chrome,1536,864,,,l,0.4695,1,114,0,1,11,23,4,1,0,1,0,0,0,0,1,0,circle,hexagon,,,,,,,,,,,,,,,,,,,,,,,,,,,,,,,,,,,,,,,,,,,,,,,,,,,,,,
295756,2022-12-05_17h05.01.360,vts_reward_expectancy_bt,2022.2.4,Win32,351.4938489,Chrome,1536,864,,,a,0.4727,10,124,0,2,0,24,6,1,0,0,1,0,1,0,0,0,hexagon,triangle,,,,,,,,,,,,,,,,,,,,,,,,,,,,,,,,,,,,,,,,,,,,,,,,,,,,,,
295756,2022-12-05_17h05.01.360,vts_reward_expectancy_bt,2022.2.4,Win32,351.4938489,Chrome,1536,864,,,l,0.4748,1,125,0,2,1,25,2,1,1,0,0,0,0,0,0,1,triangle,star,,,,,,,,,,,,,,,,,,,,,,,,,,,,,,,,,,,,,,,,,,,,,,,,,,,,,,
295756,2022-12-05_17h05.01.360,vts_reward_expectancy_bt,2022.2.4,Win32,351.4938489,Chrome,1536,864,,,a,0.5286,10,135,0,2,2,26,0,1,1,0,0,0,0,1,0,0,triangle,circle,,,,,,,,,,,,,,,,,,,,,,,,,,,,,,,,,,,,,,,,,,,,,,,,,,,,,,
295756,2022-12-05_17h05.01.360,vts_reward_expectancy_bt,2022.2.4,Win32,351.4938489,Chrome,1536,864,,,l,0.797,10,145,0,2,3,27,7,1,0,0,1,0,0,1,0,0,hexagon,circle,,,,,,,,,,,,,,,,,,,,,,,,,,,,,,,,,,,,,,,,,,,,,,,,,,,,,,
295756,2022-12-05_17h05.01.360,vts_reward_expectancy_bt,2022.2.4,Win32,351.4938489,Chrome,1536,864,,,a,0.7049,1,146,0,2,4,28,9,1,0,0,0,1,1,0,0,0,star,triangle,,,,,,,,,,,,,,,,,,,,,,,,,,,,,,,,,,,,,,,,,,,,,,,,,,,,,,
295756,2022-12-05_17h05.01.360,vts_reward_expectancy_bt,2022.2.4,Win32,351.4938489,Chrome,1536,864,,,l,0.9224,1,147,0,2,5,29,1,1,1,0,0,0,0,0,1,0,triangle,hexagon,,,,,,,,,,,,,,,,,,,,,,,,,,,,,,,,,,,,,,,,,,,,,,,,,,,,,,
295756,2022-12-05_17h05.01.360,vts_reward_expectancy_bt,2022.2.4,Win32,351.4938489,Chrome,1536,864,,,l,1.0521,1,148,0,2,6,30,4,1,0,1,0,0,0,0,1,0,circle,hexagon,,,,,,,,,,,,,,,,,,,,,,,,,,,,,,,,,,,,,,,,,,,,,,,,,,,,,,
295756,2022-12-05_17h05.01.360,vts_reward_expectancy_bt,2022.2.4,Win32,351.4938489,Chrome,1536,864,,,l,0.8462,10,158,0,2,7,31,5,1,0,1,0,0,0,0,0,1,circle,star,,,,,,,,,,,,,,,,,,,,,,,,,,,,,,,,,,,,,,,,,,,,,,,,,,,,,,
295756,2022-12-05_17h05.01.360,vts_reward_expectancy_bt,2022.2.4,Win32,351.4938489,Chrome,1536,864,,,l,1.8719,1,159,0,2,8,32,8,1,0,0,1,0,0,0,0,1,hexagon,star,,,,,,,,,,,,,,,,,,,,,,,,,,,,,,,,,,,,,,,,,,,,,,,,,,,,,,
295756,2022-12-05_17h05.01.360,vts_reward_expectancy_bt,2022.2.4,Win32,351.4938489,Chrome,1536,864,,,a,2.5754,10,169,0,2,9,33,3,1,0,1,0,0,1,0,0,0,circle,triangle,,,,,,,,,,,,,,,,,,,,,,,,,,,,,,,,,,,,,,,,,,,,,,,,,,,,,,
295756,2022-12-05_17h05.01.360,vts_reward_expectancy_bt,2022.2.4,Win32,351.4938489,Chrome,1536,864,,,a,1.6574,1,170,0,2,10,34,11,1,0,0,0,1,0,0,1,0,star,hexagon,,,,,,,,,,,,,,,,,,,,,,,,,,,,,,,,,,,,,,,,,,,,,,,,,,,,,,
295756,2022-12-05_17h05.01.360,vts_reward_expectancy_bt,2022.2.4,Win32,351.4938489,Chrome,1536,864,,,a,1.7678,1,171,0,2,11,35,10,1,0,0,0,1,0,1,0,0,star ,circle,,,,,,,,,,,,,,,,,,,,,,,,,,,,,,,,,,,,,,,,,,,,,,,,,,,,,,
295756,2022-12-05_17h05.01.360,vts_reward_expectancy_bt,2022.2.4,Win32,351.4938489,Chrome,1536,864,,,l,3.0768,10,181,1,0,0,0,3,1,0,1,0,0,1,0,0,0,circle,triangle,,,,,,,,,,,,,,,,,,,,,,,,,,,,,,,,,,,,,,,,,,,,,,,,,,,,,,
295756,2022-12-05_17h05.01.360,vts_reward_expectancy_bt,2022.2.4,Win32,351.4938489,Chrome,1536,864,,,l,1.5429,1,182,1,0,1,1,10,1,0,0,0,1,0,1,0,0,star ,circle,,,,,,,,,,,,,,,,,,,,,,,,,,,,,,,,,,,,,,,,,,,,,,,,,,,,,,
295756,2022-12-05_17h05.01.360,vts_reward_expectancy_bt,2022.2.4,Win32,351.4938489,Chrome,1536,864,,,a,1.6934,1,183,1,0,2,2,8,1,0,0,1,0,0,0,0,1,hexagon,star,,,,,,,,,,,,,,,,,,,,,,,,,,,,,,,,,,,,,,,,,,,,,,,,,,,,,,
295756,2022-12-05_17h05.01.360,vts_reward_expectancy_bt,2022.2.4,Win32,351.4938489,Chrome,1536,864,,,a,1.3518,10,193,1,0,3,3,5,1,0,1,0,0,0,0,0,1,circle,star,,,,,,,,,,,,,,,,,,,,,,,,,,,,,,,,,,,,,,,,,,,,,,,,,,,,,,
295756,2022-12-05_17h05.01.360,vts_reward_expectancy_bt,2022.2.4,Win32,351.4938489,Chrome,1536,864,,,a,1.5922,10,203,1,0,4,4,7,1,0,0,1,0,0,1,0,0,hexagon,circle,,,,,,,,,,,,,,,,,,,,,,,,,,,,,,,,,,,,,,,,,,,,,,,,,,,,,,
295756,2022-12-05_17h05.01.360,vts_reward_expectancy_bt,2022.2.4,Win32,351.4938489,Chrome,1536,864,,,l,1.6175,10,213,1,0,5,5,1,1,1,0,0,0,0,0,1,0,triangle,hexagon,,,,,,,,,,,,,,,,,,,,,,,,,,,,,,,,,,,,,,,,,,,,,,,,,,,,,,
295756,2022-12-05_17h05.01.360,vts_reward_expectancy_bt,2022.2.4,Win32,351.4938489,Chrome,1536,864,,,a,1.2492,1,214,1,0,6,6,6,1,0,0,1,0,1,0,0,0,hexagon,triangle,,,,,,,,,,,,,,,,,,,,,,,,,,,,,,,,,,,,,,,,,,,,,,,,,,,,,,
295756,2022-12-05_17h05.01.360,vts_reward_expectancy_bt,2022.2.4,Win32,351.4938489,Chrome,1536,864,,,l,1.2969,10,224,1,0,7,7,0,1,1,0,0,0,0,1,0,0,triangle,circle,,,,,,,,,,,,,,,,,,,,,,,,,,,,,,,,,,,,,,,,,,,,,,,,,,,,,,
295756,2022-12-05_17h05.01.360,vts_reward_expectancy_bt,2022.2.4,Win32,351.4938489,Chrome,1536,864,,,l,1.3698,1,225,1,0,8,8,2,1,1,0,0,0,0,0,0,1,triangle,star,,,,,,,,,,,,,,,,,,,,,,,,,,,,,,,,,,,,,,,,,,,,,,,,,,,,,,
295756,2022-12-05_17h05.01.360,vts_reward_expectancy_bt,2022.2.4,Win32,351.4938489,Chrome,1536,864,,,l,2.0588,1,226,1,0,9,9,4,1,0,1,0,0,0,0,1,0,circle,hexagon,,,,,,,,,,,,,,,,,,,,,,,,,,,,,,,,,,,,,,,,,,,,,,,,,,,,,,
295756,2022-12-05_17h05.01.360,vts_reward_expectancy_bt,2022.2.4,Win32,351.4938489,Chrome,1536,864,,,a,1.1908,1,227,1,0,10,10,11,1,0,0,0,1,0,0,1,0,star,hexagon,,,,,,,,,,,,,,,,,,,,,,,,,,,,,,,,,,,,,,,,,,,,,,,,,,,,,,
295756,2022-12-05_17h05.01.360,vts_reward_expectancy_bt,2022.2.4,Win32,351.4938489,Chrome,1536,864,,,a,1.2036,10,237,1,0,11,11,9,1,0,0,0,1,1,0,0,0,star,triangle,,,,,,,,,,,,,,,,,,,,,,,,,,,,,,,,,,,,,,,,,,,,,,,,,,,,,,
295756,2022-12-05_17h05.01.360,vts_reward_expectancy_bt,2022.2.4,Win32,351.4938489,Chrome,1536,864,,,a,1.5292,1,238,1,1,0,12,8,1,0,0,1,0,0,0,0,1,hexagon,star,,,,,,,,,,,,,,,,,,,,,,,,,,,,,,,,,,,,,,,,,,,,,,,,,,,,,,
295756,2022-12-05_17h05.01.360,vts_reward_expectancy_bt,2022.2.4,Win32,351.4938489,Chrome,1536,864,,,a,3.2445,10,248,1,1,1,13,1,1,1,0,0,0,0,0,1,0,triangle,hexagon,,,,,,,,,,,,,,,,,,,,,,,,,,,,,,,,,,,,,,,,,,,,,,,,,,,,,,
295756,2022-12-05_17h05.01.360,vts_reward_expectancy_bt,2022.2.4,Win32,351.4938489,Chrome,1536,864,,,a,1.2053,1,249,1,1,2,14,4,1,0,1,0,0,0,0,1,0,circle,hexagon,,,,,,,,,,,,,,,,,,,,,,,,,,,,,,,,,,,,,,,,,,,,,,,,,,,,,,
295756,2022-12-05_17h05.01.360,vts_reward_expectancy_bt,2022.2.4,Win32,351.4938489,Chrome,1536,864,,,l,0.9643,10,259,1,1,3,15,10,1,0,0,0,1,0,1,0,0,star ,circle,,,,,,,,,,,,,,,,,,,,,,,,,,,,,,,,,,,,,,,,,,,,,,,,,,,,,,
295756,2022-12-05_17h05.01.360,vts_reward_expectancy_bt,2022.2.4,Win32,351.4938489,Chrome,1536,864,,,l,2.0359,1,260,1,1,4,16,11,1,0,0,0,1,0,0,1,0,star,hexagon,,,,,,,,,,,,,,,,,,,,,,,,,,,,,,,,,,,,,,,,,,,,,,,,,,,,,,
295756,2022-12-05_17h05.01.360,vts_reward_expectancy_bt,2022.2.4,Win32,351.4938489,Chrome,1536,864,,,l,1.3811,1,261,1,1,5,17,9,1,0,0,0,1,1,0,0,0,star,triangle,,,,,,,,,,,,,,,,,,,,,,,,,,,,,,,,,,,,,,,,,,,,,,,,,,,,,,
295756,2022-12-05_17h05.01.360,vts_reward_expectancy_bt,2022.2.4,Win32,351.4938489,Chrome,1536,864,,,l,2.7407,10,271,1,1,6,18,3,1,0,1,0,0,1,0,0,0,circle,triangle,,,,,,,,,,,,,,,,,,,,,,,,,,,,,,,,,,,,,,,,,,,,,,,,,,,,,,
295756,2022-12-05_17h05.01.360,vts_reward_expectancy_bt,2022.2.4,Win32,351.4938489,Chrome,1536,864,,,l,1.529,10,281,1,1,7,19,2,1,1,0,0,0,0,0,0,1,triangle,star,,,,,,,,,,,,,,,,,,,,,,,,,,,,,,,,,,,,,,,,,,,,,,,,,,,,,,
295756,2022-12-05_17h05.01.360,vts_reward_expectancy_bt,2022.2.4,Win32,351.4938489,Chrome,1536,864,,,a,2.0674,10,291,1,1,8,20,6,1,0,0,1,0,1,0,0,0,hexagon,triangle,,,,,,,,,,,,,,,,,,,,,,,,,,,,,,,,,,,,,,,,,,,,,,,,,,,,,,
295756,2022-12-05_17h05.01.360,vts_reward_expectancy_bt,2022.2.4,Win32,351.4938489,Chrome,1536,864,,,l,3.8878,1,292,1,1,9,21,7,1,0,0,1,0,0,1,0,0,hexagon,circle,,,,,,,,,,,,,,,,,,,,,,,,,,,,,,,,,,,,,,,,,,,,,,,,,,,,,,
295756,2022-12-05_17h05.01.360,vts_reward_expectancy_bt,2022.2.4,Win32,351.4938489,Chrome,1536,864,,,a,1.4785,1,293,1,1,10,22,0,1,1,0,0,0,0,1,0,0,triangle,circle,,,,,,,,,,,,,,,,,,,,,,,,,,,,,,,,,,,,,,,,,,,,,,,,,,,,,,
295756,2022-12-05_17h05.01.360,vts_reward_expectancy_bt,2022.2.4,Win32,351.4938489,Chrome,1536,864,,,a,0.961,10,303,1,1,11,23,5,1,0,1,0,0,0,0,0,1,circle,star,,,,,,,,,,,,,,,,,,,,,,,,,,,,,,,,,,,,,,,,,,,,,,,,,,,,,,
295756,2022-12-05_17h05.01.360,vts_reward_expectancy_bt,2022.2.4,Win32,351.4938489,Chrome,1536,864,,,l,0.8974,10,313,1,2,0,24,3,1,0,1,0,0,1,0,0,0,circle,triangle,,,,,,,,,,,,,,,,,,,,,,,,,,,,,,,,,,,,,,,,,,,,,,,,,,,,,,
295756,2022-12-05_17h05.01.360,vts_reward_expectancy_bt,2022.2.4,Win32,351.4938489,Chrome,1536,864,,,a,1.1364,1,314,1,2,1,25,5,1,0,1,0,0,0,0,0,1,circle,star,,,,,,,,,,,,,,,,,,,,,,,,,,,,,,,,,,,,,,,,,,,,,,,,,,,,,,
295756,2022-12-05_17h05.01.360,vts_reward_expectancy_bt,2022.2.4,Win32,351.4938489,Chrome,1536,864,,,a,1.2363,10,324,1,2,2,26,6,1,0,0,1,0,1,0,0,0,hexagon,triangle,,,,,,,,,,,,,,,,,,,,,,,,,,,,,,,,,,,,,,,,,,,,,,,,,,,,,,
295756,2022-12-05_17h05.01.360,vts_reward_expectancy_bt,2022.2.4,Win32,351.4938489,Chrome,1536,864,,,l,2.5142,10,334,1,2,3,27,0,1,1,0,0,0,0,1,0,0,triangle,circle,,,,,,,,,,,,,,,,,,,,,,,,,,,,,,,,,,,,,,,,,,,,,,,,,,,,,,
295756,2022-12-05_17h05.01.360,vts_reward_expectancy_bt,2022.2.4,Win32,351.4938489,Chrome,1536,864,,,a,1.315,10,344,1,2,4,28,1,1,1,0,0,0,0,0,1,0,triangle,hexagon,,,,,,,,,,,,,,,,,,,,,,,,,,,,,,,,,,,,,,,,,,,,,,,,,,,,,,
295756,2022-12-05_17h05.01.360,vts_reward_expectancy_bt,2022.2.4,Win32,351.4938489,Chrome,1536,864,,,l,1.4777,1,345,1,2,5,29,7,1,0,0,1,0,0,1,0,0,hexagon,circle,,,,,,,,,,,,,,,,,,,,,,,,,,,,,,,,,,,,,,,,,,,,,,,,,,,,,,
295756,2022-12-05_17h05.01.360,vts_reward_expectancy_bt,2022.2.4,Win32,351.4938489,Chrome,1536,864,,,l,0.6695,10,355,1,2,6,30,8,1,0,0,1,0,0,0,0,1,hexagon,star,,,,,,,,,,,,,,,,,,,,,,,,,,,,,,,,,,,,,,,,,,,,,,,,,,,,,,
295756,2022-12-05_17h05.01.360,vts_reward_expectancy_bt,2022.2.4,Win32,351.4938489,Chrome,1536,864,,,a,0.8548,10,365,1,2,7,31,2,1,1,0,0,0,0,0,0,1,triangle,star,,,,,,,,,,,,,,,,,,,,,,,,,,,,,,,,,,,,,,,,,,,,,,,,,,,,,,
295756,2022-12-05_17h05.01.360,vts_reward_expectancy_bt,2022.2.4,Win32,351.4938489,Chrome,1536,864,,,l,0.9605,10,375,1,2,8,32,9,1,0,0,0,1,1,0,0,0,star,triangle,,,,,,,,,,,,,,,,,,,,,,,,,,,,,,,,,,,,,,,,,,,,,,,,,,,,,,
295756,2022-12-05_17h05.01.360,vts_reward_expectancy_bt,2022.2.4,Win32,351.4938489,Chrome,1536,864,,,a,1.1934,10,385,1,2,9,33,11,1,0,0,0,1,0,0,1,0,star,hexagon,,,,,,,,,,,,,,,,,,,,,,,,,,,,,,,,,,,,,,,,,,,,,,,,,,,,,,
295756,2022-12-05_17h05.01.360,vts_reward_expectancy_bt,2022.2.4,Win32,351.4938489,Chrome,1536,864,,,l,1.803,10,395,1,2,10,34,10,1,0,0,0,1,0,1,0,0,star ,circle,,,,,,,,,,,,,,,,,,,,,,,,,,,,,,,,,,,,,,,,,,,,,,,,,,,,,,
295756,2022-12-05_17h05.01.360,vts_reward_expectancy_bt,2022.2.4,Win32,351.4938489,Chrome,1536,864,,,l,1.4668,1,396,1,2,11,35,4,1,0,1,0,0,0,0,1,0,circle,hexagon,,,,,,,,,,,,,,,,,,,,,,,,,,,,,,,,,,,,,,,,,,,,,,,,,,,,,,
295756,2022-12-05_17h05.01.360,vts_reward_expectancy_bt,2022.2.4,Win32,351.4938489,Chrome,1536,864,,,a,1.1357,1,397,2,0,0,0,5,1,0,1,0,0,0,0,0,1,circle,star,,,,,,,,,,,,,,,,,,,,,,,,,,,,,,,,,,,,,,,,,,,,,,,,,,,,,,
295756,2022-12-05_17h05.01.360,vts_reward_expectancy_bt,2022.2.4,Win32,351.4938489,Chrome,1536,864,,,l,0.9418,10,407,2,0,1,1,10,1,0,0,0,1,0,1,0,0,star ,circle,,,,,,,,,,,,,,,,,,,,,,,,,,,,,,,,,,,,,,,,,,,,,,,,,,,,,,
295756,2022-12-05_17h05.01.360,vts_reward_expectancy_bt,2022.2.4,Win32,351.4938489,Chrome,1536,864,,,a,1.0878,10,417,2,0,2,2,11,1,0,0,0,1,0,0,1,0,star,hexagon,,,,,,,,,,,,,,,,,,,,,,,,,,,,,,,,,,,,,,,,,,,,,,,,,,,,,,
295756,2022-12-05_17h05.01.360,vts_reward_expectancy_bt,2022.2.4,Win32,351.4938489,Chrome,1536,864,,,a,1.9471,10,427,2,0,3,3,0,1,1,0,0,0,0,1,0,0,triangle,circle,,,,,,,,,,,,,,,,,,,,,,,,,,,,,,,,,,,,,,,,,,,,,,,,,,,,,,
295756,2022-12-05_17h05.01.360,vts_reward_expectancy_bt,2022.2.4,Win32,351.4938489,Chrome,1536,864,,,a,1.8185,1,428,2,0,4,4,6,1,0,0,1,0,1,0,0,0,hexagon,triangle,,,,,,,,,,,,,,,,,,,,,,,,,,,,,,,,,,,,,,,,,,,,,,,,,,,,,,
295756,2022-12-05_17h05.01.360,vts_reward_expectancy_bt,2022.2.4,Win32,351.4938489,Chrome,1536,864,,,l,1.2395,10,438,2,0,5,5,2,1,1,0,0,0,0,0,0,1,triangle,star,,,,,,,,,,,,,,,,,,,,,,,,,,,,,,,,,,,,,,,,,,,,,,,,,,,,,,
295756,2022-12-05_17h05.01.360,vts_reward_expectancy_bt,2022.2.4,Win32,351.4938489,Chrome,1536,864,,,a,1.967,10,448,2,0,6,6,4,1,0,1,0,0,0,0,1,0,circle,hexagon,,,,,,,,,,,,,,,,,,,,,,,,,,,,,,,,,,,,,,,,,,,,,,,,,,,,,,
295756,2022-12-05_17h05.01.360,vts_reward_expectancy_bt,2022.2.4,Win32,351.4938489,Chrome,1536,864,,,l,1.1486,10,458,2,0,7,7,8,1,0,0,1,0,0,0,0,1,hexagon,star,,,,,,,,,,,,,,,,,,,,,,,,,,,,,,,,,,,,,,,,,,,,,,,,,,,,,,
295756,2022-12-05_17h05.01.360,vts_reward_expectancy_bt,2022.2.4,Win32,351.4938489,Chrome,1536,864,,,a,2.4699,1,459,2,0,8,8,9,1,0,0,0,1,1,0,0,0,star,triangle,,,,,,,,,,,,,,,,,,,,,,,,,,,,,,,,,,,,,,,,,,,,,,,,,,,,,,
295756,2022-12-05_17h05.01.360,vts_reward_expectancy_bt,2022.2.4,Win32,351.4938489,Chrome,1536,864,,,l,1.2239,1,460,2,0,9,9,7,1,0,0,1,0,0,1,0,0,hexagon,circle,,,,,,,,,,,,,,,,,,,,,,,,,,,,,,,,,,,,,,,,,,,,,,,,,,,,,,
295756,2022-12-05_17h05.01.360,vts_reward_expectancy_bt,2022.2.4,Win32,351.4938489,Chrome,1536,864,,,a,2.0252,10,470,2,0,10,10,1,1,1,0,0,0,0,0,1,0,triangle,hexagon,,,,,,,,,,,,,,,,,,,,,,,,,,,,,,,,,,,,,,,,,,,,,,,,,,,,,,
295756,2022-12-05_17h05.01.360,vts_reward_expectancy_bt,2022.2.4,Win32,351.4938489,Chrome,1536,864,,,l,1.3307,10,480,2,0,11,11,3,1,0,1,0,0,1,0,0,0,circle,triangle,,,,,,,,,,,,,,,,,,,,,,,,,,,,,,,,,,,,,,,,,,,,,,,,,,,,,,
295756,2022-12-05_17h05.01.360,vts_reward_expectancy_bt,2022.2.4,Win32,351.4938489,Chrome,1536,864,,,l,0.7622,1,481,2,1,0,12,2,1,1,0,0,0,0,0,0,1,triangle,star,,,,,,,,,,,,,,,,,,,,,,,,,,,,,,,,,,,,,,,,,,,,,,,,,,,,,,
295756,2022-12-05_17h05.01.360,vts_reward_expectancy_bt,2022.2.4,Win32,351.4938489,Chrome,1536,864,,,a,0.9124,1,482,2,1,1,13,1,1,1,0,0,0,0,0,1,0,triangle,hexagon,,,,,,,,,,,,,,,,,,,,,,,,,,,,,,,,,,,,,,,,,,,,,,,,,,,,,,
295756,2022-12-05_17h05.01.360,vts_reward_expectancy_bt,2022.2.4,Win32,351.4938489,Chrome,1536,864,,,a,1.0641,1,483,2,1,2,14,7,1,0,0,1,0,0,1,0,0,hexagon,circle,,,,,,,,,,,,,,,,,,,,,,,,,,,,,,,,,,,,,,,,,,,,,,,,,,,,,,
295756,2022-12-05_17h05.01.360,vts_reward_expectancy_bt,2022.2.4,Win32,351.4938489,Chrome,1536,864,,,a,1.3861,1,484,2,1,3,15,11,1,0,0,0,1,0,0,1,0,star,hexagon,,,,,,,,,,,,,,,,,,,,,,,,,,,,,,,,,,,,,,,,,,,,,,,,,,,,,,
295756,2022-12-05_17h05.01.360,vts_reward_expectancy_bt,2022.2.4,Win32,351.4938489,Chrome,1536,864,,,a,0.9115,1,485,2,1,4,16,8,1,0,0,1,0,0,0,0,1,hexagon,star,,,,,,,,,,,,,,,,,,,,,,,,,,,,,,,,,,,,,,,,,,,,,,,,,,,,,,
295756,2022-12-05_17h05.01.360,vts_reward_expectancy_bt,2022.2.4,Win32,351.4938489,Chrome,1536,864,,,a,0.8527,10,495,2,1,5,17,5,1,0,1,0,0,0,0,0,1,circle,star,,,,,,,,,,,,,,,,,,,,,,,,,,,,,,,,,,,,,,,,,,,,,,,,,,,,,,
295756,2022-12-05_17h05.01.360,vts_reward_expectancy_bt,2022.2.4,Win32,351.4938489,Chrome,1536,864,,,l,0.6793,10,505,2,1,6,18,10,1,0,0,0,1,0,1,0,0,star ,circle,,,,,,,,,,,,,,,,,,,,,,,,,,,,,,,,,,,,,,,,,,,,,,,,,,,,,,
295756,2022-12-05_17h05.01.360,vts_reward_expectancy_bt,2022.2.4,Win32,351.4938489,Chrome,1536,864,,,l,0.9124,1,506,2,1,7,19,4,1,0,1,0,0,0,0,1,0,circle,hexagon,,,,,,,,,,,,,,,,,,,,,,,,,,,,,,,,,,,,,,,,,,,,,,,,,,,,,,
295756,2022-12-05_17h05.01.360,vts_reward_expectancy_bt,2022.2.4,Win32,351.4938489,Chrome,1536,864,,,a,1.2647,10,516,2,1,8,20,6,1,0,0,1,0,1,0,0,0,hexagon,triangle,,,,,,,,,,,,,,,,,,,,,,,,,,,,,,,,,,,,,,,,,,,,,,,,,,,,,,
295756,2022-12-05_17h05.01.360,vts_reward_expectancy_bt,2022.2.4,Win32,351.4938489,Chrome,1536,864,,,a,1.1012,1,517,2,1,9,21,9,1,0,0,0,1,1,0,0,0,star,triangle,,,,,,,,,,,,,,,,,,,,,,,,,,,,,,,,,,,,,,,,,,,,,,,,,,,,,,
295756,2022-12-05_17h05.01.360,vts_reward_expectancy_bt,2022.2.4,Win32,351.4938489,Chrome,1536,864,,,a,1.2981,1,518,2,1,10,22,0,1,1,0,0,0,0,1,0,0,triangle,circle,,,,,,,,,,,,,,,,,,,,,,,,,,,,,,,,,,,,,,,,,,,,,,,,,,,,,,
295756,2022-12-05_17h05.01.360,vts_reward_expectancy_bt,2022.2.4,Win32,351.4938489,Chrome,1536,864,,,a,0.7284,10,528,2,1,11,23,3,1,0,1,0,0,1,0,0,0,circle,triangle,,,,,,,,,,,,,,,,,,,,,,,,,,,,,,,,,,,,,,,,,,,,,,,,,,,,,,
295756,2022-12-05_17h05.01.360,vts_reward_expectancy_bt,2022.2.4,Win32,351.4938489,Chrome,1536,864,,,l,0.9782,1,529,2,2,0,24,4,1,0,1,0,0,0,0,1,0,circle,hexagon,,,,,,,,,,,,,,,,,,,,,,,,,,,,,,,,,,,,,,,,,,,,,,,,,,,,,,
295756,2022-12-05_17h05.01.360,vts_reward_expectancy_bt,2022.2.4,Win32,351.4938489,Chrome,1536,864,,,a,0.6224,1,530,2,2,1,25,6,1,0,0,1,0,1,0,0,0,hexagon,triangle,,,,,,,,,,,,,,,,,,,,,,,,,,,,,,,,,,,,,,,,,,,,,,,,,,,,,,
295756,2022-12-05_17h05.01.360,vts_reward_expectancy_bt,2022.2.4,Win32,351.4938489,Chrome,1536,864,,,l,1.1551,10,540,2,2,2,26,9,1,0,0,0,1,1,0,0,0,star,triangle,,,,,,,,,,,,,,,,,,,,,,,,,,,,,,,,,,,,,,,,,,,,,,,,,,,,,,
295756,2022-12-05_17h05.01.360,vts_reward_expectancy_bt,2022.2.4,Win32,351.4938489,Chrome,1536,864,,,l,0.889,1,541,2,2,3,27,7,1,0,0,1,0,0,1,0,0,hexagon,circle,,,,,,,,,,,,,,,,,,,,,,,,,,,,,,,,,,,,,,,,,,,,,,,,,,,,,,
295756,2022-12-05_17h05.01.360,vts_reward_expectancy_bt,2022.2.4,Win32,351.4938489,Chrome,1536,864,,,a,0.943,10,551,2,2,4,28,8,1,0,0,1,0,0,0,0,1,hexagon,star,,,,,,,,,,,,,,,,,,,,,,,,,,,,,,,,,,,,,,,,,,,,,,,,,,,,,,
295756,2022-12-05_17h05.01.360,vts_reward_expectancy_bt,2022.2.4,Win32,351.4938489,Chrome,1536,864,,,l,0.9942,1,552,2,2,5,29,1,1,1,0,0,0,0,0,1,0,triangle,hexagon,,,,,,,,,,,,,,,,,,,,,,,,,,,,,,,,,,,,,,,,,,,,,,,,,,,,,,
295756,2022-12-05_17h05.01.360,vts_reward_expectancy_bt,2022.2.4,Win32,351.4938489,Chrome,1536,864,,,a,0.9086,10,562,2,2,6,30,5,1,0,1,0,0,0,0,0,1,circle,star,,,,,,,,,,,,,,,,,,,,,,,,,,,,,,,,,,,,,,,,,,,,,,,,,,,,,,
295756,2022-12-05_17h05.01.360,vts_reward_expectancy_bt,2022.2.4,Win32,351.4938489,Chrome,1536,864,,,l,1.0774,10,572,2,2,7,31,11,1,0,0,0,1,0,0,1,0,star,hexagon,,,,,,,,,,,,,,,,,,,,,,,,,,,,,,,,,,,,,,,,,,,,,,,,,,,,,,
295756,2022-12-05_17h05.01.360,vts_reward_expectancy_bt,2022.2.4,Win32,351.4938489,Chrome,1536,864,,,a,0.8706,1,573,2,2,8,32,2,1,1,0,0,0,0,0,0,1,triangle,star,,,,,,,,,,,,,,,,,,,,,,,,,,,,,,,,,,,,,,,,,,,,,,,,,,,,,,
295756,2022-12-05_17h05.01.360,vts_reward_expectancy_bt,2022.2.4,Win32,351.4938489,Chrome,1536,864,,,a,0.8589,10,583,2,2,9,33,0,1,1,0,0,0,0,1,0,0,triangle,circle,,,,,,,,,,,,,,,,,,,,,,,,,,,,,,,,,,,,,,,,,,,,,,,,,,,,,,
295756,2022-12-05_17h05.01.360,vts_reward_expectancy_bt,2022.2.4,Win32,351.4938489,Chrome,1536,864,,,a,0.6155,1,584,2,2,10,34,3,1,0,1,0,0,1,0,0,0,circle,triangle,,,,,,,,,,,,,,,,,,,,,,,,,,,,,,,,,,,,,,,,,,,,,,,,,,,,,,
295756,2022-12-05_17h05.01.360,vts_reward_expectancy_bt,2022.2.4,Win32,351.4938489,Chrome,1536,864,,,a,0.4418,1,585,2,2,11,35,10,1,0,0,0,1,0,1,0,0,star ,circle,,,,,,,,,,,,,,,,,,,,,,,,,,,,,,,,,,,,,,,,,,,,,,,,,,,,,,
295756,2022-12-05_17h05.01.360,vts_reward_expectancy_bt,2022.2.4,Win32,351.4938489,Chrome,1536,864,,,,,,,,,,,,,,,,,,,,,,,S,132,triangle,0,0,d,1.1588,0,0,0,0,0,1,,,,,,,,,,,,,,,,,,,,,,,,,,,,,,,,,,,,,,,,,
295756,2022-12-05_17h05.01.360,vts_reward_expectancy_bt,2022.2.4,Win32,351.4938489,Chrome,1536,864,,,,,,,,,,,,,,,,,,,,,,,F,160,circle,0,1,f,0.6647,0,1,0,1,0,1,,,,,,,,,,,,,,,,,,,,,,,,,,,,,,,,,,,,,,,,,
295756,2022-12-05_17h05.01.360,vts_reward_expectancy_bt,2022.2.4,Win32,351.4938489,Chrome,1536,864,,,,,,,,,,,,,,,,,,,,,,,W,125,hexagon,0,1,,,0,2,0,2,0,1,,,,,,,,,,,,,,,,,,,,,,,,,,,,,,,,,,,,,,,,,
295756,2022-12-05_17h05.01.360,vts_reward_expectancy_bt,2022.2.4,Win32,351.4938489,Chrome,1536,864,,,,,,,,,,,,,,,,,,,,,,,B,167,star,1,1,d,0.5225,0,3,0,3,0,1,,,,,,,,,,,,,,,,,,,,,,,,,,,,,,,,,,,,,,,,,
295756,2022-12-05_17h05.01.360,vts_reward_expectancy_bt,2022.2.4,Win32,351.4938489,Chrome,1536,864,,,,,,,,,,,,,,,,,,,,,,,H,181,triangle,0,0,f,0.7369,0,4,0,4,0,1,,,,,,,,,,,,,,,,,,,,,,,,,,,,,,,,,,,,,,,,,
295756,2022-12-05_17h05.01.360,vts_reward_expectancy_bt,2022.2.4,Win32,351.4938489,Chrome,1536,864,,,,,,,,,,,,,,,,,,,,,,,D,174,circle,1,1,d,0.7486,0,5,0,5,0,1,,,,,,,,,,,,,,,,,,,,,,,,,,,,,,,,,,,,,,,,,
295756,2022-12-05_17h05.01.360,vts_reward_expectancy_bt,2022.2.4,Win32,351.4938489,Chrome,1536,864,,,,,,,,,,,,,,,,,,,,,,,U,139,hexagon,1,0,f,0.5887,0,6,0,6,0,1,,,,,,,,,,,,,,,,,,,,,,,,,,,,,,,,,,,,,,,,,
295756,2022-12-05_17h05.01.360,vts_reward_expectancy_bt,2022.2.4,Win32,351.4938489,Chrome,1536,864,,,,,,,,,,,,,,,,,,,,,,,Y,146,star,1,0,f,0.7355,0,7,0,7,0,1,,,,,,,,,,,,,,,,,,,,,,,,,,,,,,,,,,,,,,,,,
295756,2022-12-05_17h05.01.360,vts_reward_expectancy_bt,2022.2.4,Win32,351.4938489,Chrome,1536,864,,,,,,,,,,,,,,,,,,,,,,,S,132,circle,1,0,f,0.769,0,8,0,8,0,1,,,,,,,,,,,,,,,,,,,,,,,,,,,,,,,,,,,,,,,,,
295756,2022-12-05_17h05.01.360,vts_reward_expectancy_bt,2022.2.4,Win32,351.4938489,Chrome,1536,864,,,,,,,,,,,,,,,,,,,,,,,F,160,hexagon,1,0,d,0.8593,0,9,0,9,0,1,,,,,,,,,,,,,,,,,,,,,,,,,,,,,,,,,,,,,,,,,
295756,2022-12-05_17h05.01.360,vts_reward_expectancy_bt,2022.2.4,Win32,351.4938489,Chrome,1536,864,,,,,,,,,,,,,,,,,,,,,,,F,139,hexagon,1,0,d,0.9161,1,0,0,0,0,1,,,,,,,,,,,,,,,,,,,,,,,,,,,,,,,,,,,,,,,,,
295756,2022-12-05_17h05.01.360,vts_reward_expectancy_bt,2022.2.4,Win32,351.4938489,Chrome,1536,864,,,,,,,,,,,,,,,,,,,,,,,Y,146,circle,1,0,f,0.6831,1,1,0,1,0,1,,,,,,,,,,,,,,,,,,,,,,,,,,,,,,,,,,,,,,,,,
295756,2022-12-05_17h05.01.360,vts_reward_expectancy_bt,2022.2.4,Win32,351.4938489,Chrome,1536,864,,,,,,,,,,,,,,,,,,,,,,,S,174,star,1,0,f,0.6234,1,2,0,2,0,1,,,,,,,,,,,,,,,,,,,,,,,,,,,,,,,,,,,,,,,,,
295756,2022-12-05_17h05.01.360,vts_reward_expectancy_bt,2022.2.4,Win32,351.4938489,Chrome,1536,864,,,,,,,,,,,,,,,,,,,,,,,H,132,triangle,1,0,d,1.6136,1,3,0,3,0,1,,,,,,,,,,,,,,,,,,,,,,,,,,,,,,,,,,,,,,,,,
295756,2022-12-05_17h05.01.360,vts_reward_expectancy_bt,2022.2.4,Win32,351.4938489,Chrome,1536,864,,,,,,,,,,,,,,,,,,,,,,,W,181,hexagon,1,0,f,0.683,1,4,0,4,0,1,,,,,,,,,,,,,,,,,,,,,,,,,,,,,,,,,,,,,,,,,
295756,2022-12-05_17h05.01.360,vts_reward_expectancy_bt,2022.2.4,Win32,351.4938489,Chrome,1536,864,,,,,,,,,,,,,,,,,,,,,,,U,160,circle,1,0,f,1.9528,1,5,0,5,0,1,,,,,,,,,,,,,,,,,,,,,,,,,,,,,,,,,,,,,,,,,
295756,2022-12-05_17h05.01.360,vts_reward_expectancy_bt,2022.2.4,Win32,351.4938489,Chrome,1536,864,,,,,,,,,,,,,,,,,,,,,,,B,167,star,1,0,d,0.5889,1,6,0,6,0,1,,,,,,,,,,,,,,,,,,,,,,,,,,,,,,,,,,,,,,,,,
295756,2022-12-05_17h05.01.360,vts_reward_expectancy_bt,2022.2.4,Win32,351.4938489,Chrome,1536,864,,,,,,,,,,,,,,,,,,,,,,,D,125,triangle,1,0,d,0.7403,1,7,0,7,0,1,,,,,,,,,,,,,,,,,,,,,,,,,,,,,,,,,,,,,,,,,
295756,2022-12-05_17h05.01.360,vts_reward_expectancy_bt,2022.2.4,Win32,351.4938489,Chrome,1536,864,,,,,,,,,,,,,,,,,,,,,,,F,139,star,1,0,d,1.0035,1,8,0,8,0,1,,,,,,,,,,,,,,,,,,,,,,,,,,,,,,,,,,,,,,,,,
295756,2022-12-05_17h05.01.360,vts_reward_expectancy_bt,2022.2.4,Win32,351.4938489,Chrome,1536,864,,,,,,,,,,,,,,,,,,,,,,,Y,146,triangle,1,0,f,0.5387,1,9,0,9,0,1,,,,,,,,,,,,,,,,,,,,,,,,,,,,,,,,,,,,,,,,,
295756,2022-12-05_17h05.01.360,vts_reward_expectancy_bt,2022.2.4,Win32,351.4938489,Chrome,1536,864,,,,,,,,,,,,,,,,,,,,,,,S,139,circle,1,0,,,2,,,,,,j,1.3619,0,0,0,0,1,,,,,,,,,,,,,,,,,,,,,,,,,,,,,,,,,,
295756,2022-12-05_17h05.01.360,vts_reward_expectancy_bt,2022.2.4,Win32,351.4938489,Chrome,1536,864,,,,,,,,,,,,,,,,,,,,,,,Y,181,hexagon,1,0,,,2,,,,,,k,0.5915,1,0,1,0,1,,,,,,,,,,,,,,,,,,,,,,,,,,,,,,,,,,
295756,2022-12-05_17h05.01.360,vts_reward_expectancy_bt,2022.2.4,Win32,351.4938489,Chrome,1536,864,,,,,,,,,,,,,,,,,,,,,,,D,174,star,1,0,,,2,,,,,,k,0.8747,2,0,2,0,1,,,,,,,,,,,,,,,,,,,,,,,,,,,,,,,,,,
295756,2022-12-05_17h05.01.360,vts_reward_expectancy_bt,2022.2.4,Win32,351.4938489,Chrome,1536,864,,,,,,,,,,,,,,,,,,,,,,,F,160,triangle,1,0,,,2,,,,,,k,0.7719,3,0,3,0,1,,,,,,,,,,,,,,,,,,,,,,,,,,,,,,,,,,
295756,2022-12-05_17h05.01.360,vts_reward_expectancy_bt,2022.2.4,Win32,351.4938489,Chrome,1536,864,,,,,,,,,,,,,,,,,,,,,,,H,146,circle,1,0,,,2,,,,,,j,0.4522,4,0,4,0,1,,,,,,,,,,,,,,,,,,,,,,,,,,,,,,,,,,
295756,2022-12-05_17h05.01.360,vts_reward_expectancy_bt,2022.2.4,Win32,351.4938489,Chrome,1536,864,,,,,,,,,,,,,,,,,,,,,,,U,167,hexagon,1,0,,,2,,,,,,k,0.44,5,0,5,0,1,,,,,,,,,,,,,,,,,,,,,,,,,,,,,,,,,,
295756,2022-12-05_17h05.01.360,vts_reward_expectancy_bt,2022.2.4,Win32,351.4938489,Chrome,1536,864,,,,,,,,,,,,,,,,,,,,,,,B,132,star,1,0,,,2,,,,,,j,0.7334,6,0,6,0,1,,,,,,,,,,,,,,,,,,,,,,,,,,,,,,,,,,
295756,2022-12-05_17h05.01.360,vts_reward_expectancy_bt,2022.2.4,Win32,351.4938489,Chrome,1536,864,,,,,,,,,,,,,,,,,,,,,,,W,125,triangle,1,0,,,2,,,,,,j,0.6419,7,0,7,0,1,,,,,,,,,,,,,,,,,,,,,,,,,,,,,,,,,,
295756,2022-12-05_17h05.01.360,vts_reward_expectancy_bt,2022.2.4,Win32,351.4938489,Chrome,1536,864,,,,,,,,,,,,,,,,,,,,,,,S,139,triangle,1,0,,,2,,,,,,j,0.5174,8,0,8,0,1,,,,,,,,,,,,,,,,,,,,,,,,,,,,,,,,,,
295756,2022-12-05_17h05.01.360,vts_reward_expectancy_bt,2022.2.4,Win32,351.4938489,Chrome,1536,864,,,,,,,,,,,,,,,,,,,,,,,Y,181,star,1,0,,,2,,,,,,k,0.647,9,0,9,0,1,,,,,,,,,,,,,,,,,,,,,,,,,,,,,,,,,,
295756,2022-12-05_17h05.01.360,vts_reward_expectancy_bt,2022.2.4,Win32,351.4938489,Chrome,1536,864,,,,,0,585,,,,,,,,,,,,,,,,,B,146,hexagon,1,0,,,3,,,,,,,,,,,,,-1,number,NA,j,2.0244,vtsPrac,0,0,0,0,1,,,,,,,,,,,,,,,,,,,,,,,
295756,2022-12-05_17h05.01.360,vts_reward_expectancy_bt,2022.2.4,Win32,351.4938489,Chrome,1536,864,,,,,0,585,,,,,,,,,,,,,,,,,F,167,star,1,0,,,3,,,,,,,,,,,,,repeat,number,numRpt,k,1.0077,vtsPrac,1,0,1,0,1,,,,,,,,,,,,,,,,,,,,,,,
295756,2022-12-05_17h05.01.360,vts_reward_expectancy_bt,2022.2.4,Win32,351.4938489,Chrome,1536,864,,,,,0,585,,,,,,,,,,,,,,,,,U,139,hexagon,1,0,,,3,,,,,,,,,,,,,repeat,number,numRpt,j,0.8266,vtsPrac,2,0,2,0,1,,,,,,,,,,,,,,,,,,,,,,,
295756,2022-12-05_17h05.01.360,vts_reward_expectancy_bt,2022.2.4,Win32,351.4938489,Chrome,1536,864,,,,,0,585,,,,,,,,,,,,,,,,,D,174,star,1,0,,,3,,,,,,,,,,,,,repeat,number,numRpt,k,0.8223,vtsPrac,3,0,3,0,1,,,,,,,,,,,,,,,,,,,,,,,
295756,2022-12-05_17h05.01.360,vts_reward_expectancy_bt,2022.2.4,Win32,351.4938489,Chrome,1536,864,,,,,0,585,,,,,,,,,,,,,,,,,B,146,circle,1,0,,,3,,,,,,,,,,,,,repeat,number,numRpt,j,1.8139,vtsPrac,4,0,4,0,1,,,,,,,,,,,,,,,,,,,,,,,
295756,2022-12-05_17h05.01.360,vts_reward_expectancy_bt,2022.2.4,Win32,351.4938489,Chrome,1536,864,,,,,0,585,,,,,,,,,,,,,,,,,F,167,triangle,1,0,,,3,,,,,,,,,,,,,repeat,number,numRpt,k,0.7583,vtsPrac,5,0,5,0,1,,,,,,,,,,,,,,,,,,,,,,,
295756,2022-12-05_17h05.01.360,vts_reward_expectancy_bt,2022.2.4,Win32,351.4938489,Chrome,1536,864,,,,,0,585,,,,,,,,,,,,,,,,,U,139,star,1,0,,,3,,,,,,,,,,,,,repeat,number,numRpt,j,0.7693,vtsPrac,6,0,6,0,1,,,,,,,,,,,,,,,,,,,,,,,
295756,2022-12-05_17h05.01.360,vts_reward_expectancy_bt,2022.2.4,Win32,351.4938489,Chrome,1536,864,,,,,0,585,,,,,,,,,,,,,,,,,D,174,hexagon,1,0,,,3,,,,,,,,,,,,,repeat,number,numRpt,k,1.0355,vtsPrac,7,0,7,0,1,,,,,,,,,,,,,,,,,,,,,,,
295756,2022-12-05_17h05.01.360,vts_reward_expectancy_bt,2022.2.4,Win32,351.4938489,Chrome,1536,864,,,,,0,585,,,,,,,,,,,,,,,,,H,132,hexagon,1,0,,,3,,,,,,,,,,,,,repeat,number,numRpt,j,0.7468,vtsPrac,8,0,8,0,1,,,,,,,,,,,,,,,,,,,,,,,
295756,2022-12-05_17h05.01.360,vts_reward_expectancy_bt,2022.2.4,Win32,351.4938489,Chrome,1536,864,,,,,0,585,,,,,,,,,,,,,,,,,F,174,star,1,0,,,3,,,,,,,,,,,,,repeat,number,numRpt,k,0.6066,vtsPrac,9,0,9,0,1,,,,,,,,,,,,,,,,,,,,,,,
295756,2022-12-05_17h05.01.360,vts_reward_expectancy_bt,2022.2.4,Win32,351.4938489,Chrome,1536,864,,,,,0,585,,,,,,,,,,,,,,,,,D,125,star,1,0,,,3,,,,,,,,,,,,,repeat,number,numRpt,j,0.8034,vtsPrac,10,0,10,0,1,,,,,,,,,,,,,,,,,,,,,,,
295756,2022-12-05_17h05.01.360,vts_reward_expectancy_bt,2022.2.4,Win32,351.4938489,Chrome,1536,864,,,,,0,585,,,,,,,,,,,,,,,,,S,167,circle,1,0,,,3,,,,,,,,,,,,,repeat,number,numRpt,k,0.6671,vtsPrac,11,0,11,0,1,,,,,,,,,,,,,,,,,,,,,,,
295756,2022-12-05_17h05.01.360,vts_reward_expectancy_bt,2022.2.4,Win32,351.4938489,Chrome,1536,864,,,,,0,585,,,,,,,,,,,,,,,,,F,132,hexagon,1,0,,,3,,,,,,,,,,,,,repeat,number,numRpt,j,0.8547,vtsPrac,12,0,12,0,1,,,,,,,,,,,,,,,,,,,,,,,
295756,2022-12-05_17h05.01.360,vts_reward_expectancy_bt,2022.2.4,Win32,351.4938489,Chrome,1536,864,,,,,0,585,,,,,,,,,,,,,,,,,D,181,circle,1,0,,,3,,,,,,,,,,,,,repeat,number,numRpt,k,0.6863,vtsPrac,13,0,13,0,1,,,,,,,,,,,,,,,,,,,,,,,
295756,2022-12-05_17h05.01.360,vts_reward_expectancy_bt,2022.2.4,Win32,351.4938489,Chrome,1536,864,,,,,0,585,,,,,,,,,,,,,,,,,W,174,circle,1,0,,,3,,,,,,,,,,,,,repeat,number,numRpt,k,1.0016,vtsPrac,14,0,14,0,1,,,,,,,,,,,,,,,,,,,,,,,
295756,2022-12-05_17h05.01.360,vts_reward_expectancy_bt,2022.2.4,Win32,351.4938489,Chrome,1536,864,,,,,0,585,,,,,,,,,,,,,,,,,Y,160,star,1,0,,,3,,,,,,,,,,,,,repeat,number,numRpt,k,2.1556,vtsPrac,15,0,15,0,1,,,,,,,,,,,,,,,,,,,,,,,
295756,2022-12-05_17h05.01.360,vts_reward_expectancy_bt,2022.2.4,Win32,351.4938489,Chrome,1536,864,,,,,0,585,,,,,,,,,,,,,,,,,F,139,star,-1,0,,,3,,,,,,,,,,,,,switch,no_choice,NA,,,vtsPrac,16,0,16,0,1,,,,,,,,,,,,,,,,,,,,,,,
295756,2022-12-05_17h05.01.360,vts_reward_expectancy_bt,2022.2.4,Win32,351.4938489,Chrome,1536,864,,,,,0,585,,,,,,,,,,,,,,,,,S,174,triangle,1,0,,,3,,,,,,,,,,,,,switch,number,numSwt,k,0.7024,vtsPrac,17,0,17,0,1,,,,,,,,,,,,,,,,,,,,,,,
295756,2022-12-05_17h05.01.360,vts_reward_expectancy_bt,2022.2.4,Win32,351.4938489,Chrome,1536,864,,,,,0,585,,,,,,,,,,,,,,,,,W,160,hexagon,1,0,,,3,,,,,,,,,,,,,repeat,number,numRpt,k,1.097,vtsPrac,18,0,18,0,1,,,,,,,,,,,,,,,,,,,,,,,
295756,2022-12-05_17h05.01.360,vts_reward_expectancy_bt,2022.2.4,Win32,351.4938489,Chrome,1536,864,,,,,0,585,,,,,,,,,,,,,,,,,B,125,triangle,1,0,,,3,,,,,,,,,,,,,repeat,number,numRpt,j,0.7907,vtsPrac,19,0,19,0,1,,,,,,,,,,,,,,,,,,,,,,,
295756,2022-12-05_17h05.01.360,vts_reward_expectancy_bt,2022.2.4,Win32,351.4938489,Chrome,1536,864,,,,,0,585,,,,,,,,,,,,,,,,,Y,174,hexagon,1,0,,,3,,,,,,,,,,,,,repeat,number,numRpt,k,0.6481,vtsPrac,20,0,20,0,1,,,,,,,,,,,,,,,,,,,,,,,
295756,2022-12-05_17h05.01.360,vts_reward_expectancy_bt,2022.2.4,Win32,351.4938489,Chrome,1536,864,,,,,0,585,,,,,,,,,,,,,,,,,W,139,star,1,0,,,3,,,,,,,,,,,,,repeat,number,numRpt,j,0.6577,vtsPrac,21,0,21,0,1,,,,,,,,,,,,,,,,,,,,,,,
295756,2022-12-05_17h05.01.360,vts_reward_expectancy_bt,2022.2.4,Win32,351.4938489,Chrome,1536,864,,,,,0,585,,,,,,,,,,,,,,,,,F,160,triangle,1,0,,,3,,,,,,,,,,,,,repeat,number,numRpt,k,0.6824,vtsPrac,22,0,22,0,1,,,,,,,,,,,,,,,,,,,,,,,
295756,2022-12-05_17h05.01.360,vts_reward_expectancy_bt,2022.2.4,Win32,351.4938489,Chrome,1536,864,,,,,0,585,,,,,,,,,,,,,,,,,U,125,circle,1,0,,,3,,,,,,,,,,,,,repeat,number,numRpt,j,1.1163,vtsPrac,23,0,23,0,1,,,,,,,,,,,,,,,,,,,,,,,
295756,2022-12-05_17h05.01.360,vts_reward_expectancy_bt,2022.2.4,Win32,351.4938489,Chrome,1536,864,,,,,0,585,,,,,,,,,,,,,,,,,S,139,hexagon,1,0,,,3,,,,,,,,,,,,,repeat,number,numRpt,j,1.0068,vtsPrac,24,0,24,0,1,,,,,,,,,,,,,,,,,,,,,,,
295756,2022-12-05_17h05.01.360,vts_reward_expectancy_bt,2022.2.4,Win32,351.4938489,Chrome,1536,864,,,,,0,585,,,,,,,,,,,,,,,,,H,167,triangle,1,0,,,3,,,,,,,,,,,,,repeat,number,numRpt,k,0.8539,vtsPrac,25,0,25,0,1,,,,,,,,,,,,,,,,,,,,,,,
295756,2022-12-05_17h05.01.360,vts_reward_expectancy_bt,2022.2.4,Win32,351.4938489,Chrome,1536,864,,,,,0,585,,,,,,,,,,,,,,,,,F,181,circle,1,0,,,3,,,,,,,,,,,,,repeat,number,numRpt,k,1.7131,vtsPrac,26,0,26,0,1,,,,,,,,,,,,,,,,,,,,,,,
295756,2022-12-05_17h05.01.360,vts_reward_expectancy_bt,2022.2.4,Win32,351.4938489,Chrome,1536,864,,,,,0,585,,,,,,,,,,,,,,,,,Y,132,hexagon,1,0,,,3,,,,,,,,,,,,,repeat,number,numRpt,j,0.5882,vtsPrac,27,0,27,0,1,,,,,,,,,,,,,,,,,,,,,,,
295756,2022-12-05_17h05.01.360,vts_reward_expectancy_bt,2022.2.4,Win32,351.4938489,Chrome,1536,864,,,,,0,585,,,,,,,,,,,,,,,,,U,132,star,1,0,,,3,,,,,,,,,,,,,repeat,number,numRpt,j,0.7671,vtsPrac,28,0,28,0,1,,,,,,,,,,,,,,,,,,,,,,,
295756,2022-12-05_17h05.01.360,vts_reward_expectancy_bt,2022.2.4,Win32,351.4938489,Chrome,1536,864,,,,,0,585,,,,,,,,,,,,,,,,,S,160,hexagon,1,0,,,3,,,,,,,,,,,,,repeat,number,numRpt,k,1.2136,vtsPrac,29,0,29,0,1,,,,,,,,,,,,,,,,,,,,,,,
295756,2022-12-05_17h05.01.360,vts_reward_expectancy_bt,2022.2.4,Win32,351.4938489,Chrome,1536,864,,,,,0,585,,,,,,,,,,,,,,,,,H,167,circle,1,0,,,3,,,,,,,,,,,,,repeat,number,numRpt,k,1.4509,vtsPrac,30,0,30,0,1,,,,,,,,,,,,,,,,,,,,,,,
295756,2022-12-05_17h05.01.360,vts_reward_expectancy_bt,2022.2.4,Win32,351.4938489,Chrome,1536,864,,,,,0,585,,,,,,,,,,,,,,,,,Y,146,triangle,1,0,,,3,,,,,,,,,,,,,repeat,number,numRpt,j,1.7115,vtsPrac,31,0,31,0,1,,,,,,,,,,,,,,,,,,,,,,,
295756,2022-12-05_17h05.01.360,vts_reward_expectancy_bt,2022.2.4,Win32,351.4938489,Chrome,1536,864,,,,,0,585,,,,,,,,,,,,,,,,,D,139,circle,1,0,,,4,,,,,,,,,,,,,repeat,number,numRpt,j,1.5391,vtsPrac,0,0,0,0,1,,,,,,,,,,,,,,,,,,,,,,,
295756,2022-12-05_17h05.01.360,vts_reward_expectancy_bt,2022.2.4,Win32,351.4938489,Chrome,1536,864,,,,,0,585,,,,,,,,,,,,,,,,,W,167,hexagon,1,0,,,4,,,,,,,,,,,,,repeat,number,numRpt,k,0.9692,vtsPrac,1,0,1,0,1,,,,,,,,,,,,,,,,,,,,,,,
295756,2022-12-05_17h05.01.360,vts_reward_expectancy_bt,2022.2.4,Win32,351.4938489,Chrome,1536,864,,,,,0,585,,,,,,,,,,,,,,,,,S,181,circle,1,0,,,4,,,,,,,,,,,,,repeat,number,numRpt,k,1.2587,vtsPrac,2,0,2,0,1,,,,,,,,,,,,,,,,,,,,,,,
295756,2022-12-05_17h05.01.360,vts_reward_expectancy_bt,2022.2.4,Win32,351.4938489,Chrome,1536,864,,,,,0,585,,,,,,,,,,,,,,,,,Y,160,hexagon,1,0,,,4,,,,,,,,,,,,,repeat,number,numRpt,k,1.806,vtsPrac,3,0,3,0,1,,,,,,,,,,,,,,,,,,,,,,,
295756,2022-12-05_17h05.01.360,vts_reward_expectancy_bt,2022.2.4,Win32,351.4938489,Chrome,1536,864,,,,,0,585,,,,,,,,,,,,,,,,,D,139,circle,1,0,,,4,,,,,,,,,,,,,repeat,number,numRpt,j,0.7885,vtsPrac,4,0,4,0,1,,,,,,,,,,,,,,,,,,,,,,,
295756,2022-12-05_17h05.01.360,vts_reward_expectancy_bt,2022.2.4,Win32,351.4938489,Chrome,1536,864,,,,,0,585,,,,,,,,,,,,,,,,,W,167,triangle,1,0,,,4,,,,,,,,,,,,,repeat,number,numRpt,k,0.8635,vtsPrac,5,0,5,0,1,,,,,,,,,,,,,,,,,,,,,,,
295756,2022-12-05_17h05.01.360,vts_reward_expectancy_bt,2022.2.4,Win32,351.4938489,Chrome,1536,864,,,,,0,585,,,,,,,,,,,,,,,,,S,181,circle,1,0,,,4,,,,,,,,,,,,,repeat,number,numRpt,k,0.8917,vtsPrac,6,0,6,0,1,,,,,,,,,,,,,,,,,,,,,,,
295756,2022-12-05_17h05.01.360,vts_reward_expectancy_bt,2022.2.4,Win32,351.4938489,Chrome,1536,864,,,,,0,585,,,,,,,,,,,,,,,,,Y,160,triangle,1,0,,,4,,,,,,,,,,,,,repeat,number,numRpt,k,1.4357,vtsPrac,7,0,7,0,1,,,,,,,,,,,,,,,,,,,,,,,
295756,2022-12-05_17h05.01.360,vts_reward_expectancy_bt,2022.2.4,Win32,351.4938489,Chrome,1536,864,,,,,0,585,,,,,,,,,,,,,,,,,F,146,hexagon,1,0,,,4,,,,,,,,,,,,,repeat,number,numRpt,j,0.9452,vtsPrac,8,0,8,0,1,,,,,,,,,,,,,,,,,,,,,,,
295756,2022-12-05_17h05.01.360,vts_reward_expectancy_bt,2022.2.4,Win32,351.4938489,Chrome,1536,864,,,,,0,585,,,,,,,,,,,,,,,,,S,125,star,1,0,,,4,,,,,,,,,,,,,repeat,number,numRpt,j,1.2776,vtsPrac,9,0,9,0,1,,,,,,,,,,,,,,,,,,,,,,,
295756,2022-12-05_17h05.01.360,vts_reward_expectancy_bt,2022.2.4,Win32,351.4938489,Chrome,1536,864,,,,,0,585,,,,,,,,,,,,,,,,,W,181,star,1,0,,,4,,,,,,,,,,,,,repeat,number,numRpt,k,0.7052,vtsPrac,10,0,10,0,1,,,,,,,,,,,,,,,,,,,,,,,
295756,2022-12-05_17h05.01.360,vts_reward_expectancy_bt,2022.2.4,Win32,351.4938489,Chrome,1536,864,,,,,0,585,,,,,,,,,,,,,,,,,B,139,triangle,1,0,,,4,,,,,,,,,,,,,repeat,number,numRpt,j,1.5399,vtsPrac,11,0,11,0,1,,,,,,,,,,,,,,,,,,,,,,,
295756,2022-12-05_17h05.01.360,vts_reward_expectancy_bt,2022.2.4,Win32,351.4938489,Chrome,1536,864,,,,,0,585,,,,,,,,,,,,,,,,,S,125,star,1,0,,,4,,,,,,,,,,,,,repeat,number,numRpt,j,0.7974,vtsPrac,12,0,12,0,1,,,,,,,,,,,,,,,,,,,,,,,
295756,2022-12-05_17h05.01.360,vts_reward_expectancy_bt,2022.2.4,Win32,351.4938489,Chrome,1536,864,,,,,0,585,,,,,,,,,,,,,,,,,H,174,circle,1,0,,,4,,,,,,,,,,,,,repeat,number,numRpt,k,0.6748,vtsPrac,13,0,13,0,1,,,,,,,,,,,,,,,,,,,,,,,
295756,2022-12-05_17h05.01.360,vts_reward_expectancy_bt,2022.2.4,Win32,351.4938489,Chrome,1536,864,,,,,0,585,,,,,,,,,,,,,,,,,F,160,triangle,1,0,,,4,,,,,,,,,,,,,repeat,number,numRpt,k,0.6282,vtsPrac,14,0,14,0,1,,,,,,,,,,,,,,,,,,,,,,,
295756,2022-12-05_17h05.01.360,vts_reward_expectancy_bt,2022.2.4,Win32,351.4938489,Chrome,1536,864,,,,,0,585,,,,,,,,,,,,,,,,,Y,167,star,1,0,,,4,,,,,,,,,,,,,repeat,number,numRpt,k,0.8799,vtsPrac,15,0,15,0,1,,,,,,,,,,,,,,,,,,,,,,,
295756,2022-12-05_17h05.01.360,vts_reward_expectancy_bt,2022.2.4,Win32,351.4938489,Chrome,1536,864,,,,,0,585,,,,,,,,,,,,,,,,,D,139,triangle,1,0,,,4,,,,,,,,,,,,,repeat,number,numRpt,j,0.6507,vtsPrac,16,0,16,0,1,,,,,,,,,,,,,,,,,,,,,,,
295756,2022-12-05_17h05.01.360,vts_reward_expectancy_bt,2022.2.4,Win32,351.4938489,Chrome,1536,864,,,,,0,585,,,,,,,,,,,,,,,,,U,146,hexagon,1,0,,,4,,,,,,,,,,,,,repeat,number,numRpt,j,0.8943,vtsPrac,17,0,17,0,1,,,,,,,,,,,,,,,,,,,,,,,
295756,2022-12-05_17h05.01.360,vts_reward_expectancy_bt,2022.2.4,Win32,351.4938489,Chrome,1536,864,,,,,0,585,,,,,,,,,,,,,,,,,Y,132,triangle,1,0,,,4,,,,,,,,,,,,,repeat,number,numRpt,j,1.3619,vtsPrac,18,0,18,0,1,,,,,,,,,,,,,,,,,,,,,,,
295756,2022-12-05_17h05.01.360,vts_reward_expectancy_bt,2022.2.4,Win32,351.4938489,Chrome,1536,864,,,,,0,585,,,,,,,,,,,,,,,,,F,160,hexagon,1,0,,,4,,,,,,,,,,,,,repeat,number,numRpt,k,0.7353,vtsPrac,19,0,19,0,1,,,,,,,,,,,,,,,,,,,,,,,
295756,2022-12-05_17h05.01.360,vts_reward_expectancy_bt,2022.2.4,Win32,351.4938489,Chrome,1536,864,,,,,0,585,,,,,,,,,,,,,,,,,W,174,triangle,1,0,,,4,,,,,,,,,,,,,repeat,number,numRpt,k,0.7322,vtsPrac,20,0,20,0,1,,,,,,,,,,,,,,,,,,,,,,,
295756,2022-12-05_17h05.01.360,vts_reward_expectancy_bt,2022.2.4,Win32,351.4938489,Chrome,1536,864,,,,,0,585,,,,,,,,,,,,,,,,,U,125,hexagon,1,0,,,4,,,,,,,,,,,,,repeat,number,numRpt,j,0.7994,vtsPrac,21,0,21,0,1,,,,,,,,,,,,,,,,,,,,,,,
295756,2022-12-05_17h05.01.360,vts_reward_expectancy_bt,2022.2.4,Win32,351.4938489,Chrome,1536,864,,,,,0,585,,,,,,,,,,,,,,,,,H,160,star,1,0,,,4,,,,,,,,,,,,,repeat,number,numRpt,k,0.614,vtsPrac,22,0,22,0,1,,,,,,,,,,,,,,,,,,,,,,,
295756,2022-12-05_17h05.01.360,vts_reward_expectancy_bt,2022.2.4,Win32,351.4938489,Chrome,1536,864,,,,,0,585,,,,,,,,,,,,,,,,,S,181,circle,1,0,,,4,,,,,,,,,,,,,repeat,number,numRpt,k,0.8925,vtsPrac,23,0,23,0,1,,,,,,,,,,,,,,,,,,,,,,,
295756,2022-12-05_17h05.01.360,vts_reward_expectancy_bt,2022.2.4,Win32,351.4938489,Chrome,1536,864,,,,,0,585,,,,,,,,,,,,,,,,,W,146,circle,1,0,,,4,,,,,,,,,,,,,repeat,number,numRpt,j,1.0051,vtsPrac,24,0,24,0,1,,,,,,,,,,,,,,,,,,,,,,,
295756,2022-12-05_17h05.01.360,vts_reward_expectancy_bt,2022.2.4,Win32,351.4938489,Chrome,1536,864,,,,,0,585,,,,,,,,,,,,,,,,,D,174,star,1,0,,,4,,,,,,,,,,,,,repeat,number,numRpt,k,0.5888,vtsPrac,25,0,25,0,1,,,,,,,,,,,,,,,,,,,,,,,
295756,2022-12-05_17h05.01.360,vts_reward_expectancy_bt,2022.2.4,Win32,351.4938489,Chrome,1536,864,,,,,0,585,,,,,,,,,,,,,,,,,B,132,hexagon,1,0,,,4,,,,,,,,,,,,,repeat,number,numRpt,j,0.8221,vtsPrac,26,0,26,0,1,,,,,,,,,,,,,,,,,,,,,,,
295756,2022-12-05_17h05.01.360,vts_reward_expectancy_bt,2022.2.4,Win32,351.4938489,Chrome,1536,864,,,,,0,585,,,,,,,,,,,,,,,,,F,167,star,1,0,,,4,,,,,,,,,,,,,repeat,number,numRpt,k,0.6816,vtsPrac,27,0,27,0,1,,,,,,,,,,,,,,,,,,,,,,,
295756,2022-12-05_17h05.01.360,vts_reward_expectancy_bt,2022.2.4,Win32,351.4938489,Chrome,1536,864,,,,,0,585,,,,,,,,,,,,,,,,,D,132,triangle,1,0,,,4,,,,,,,,,,,,,repeat,number,numRpt,j,0.7028,vtsPrac,28,0,28,0,1,,,,,,,,,,,,,,,,,,,,,,,
295756,2022-12-05_17h05.01.360,vts_reward_expectancy_bt,2022.2.4,Win32,351.4938489,Chrome,1536,864,,,,,0,585,,,,,,,,,,,,,,,,,F,125,star,1,0,,,4,,,,,,,,,,,,,repeat,number,numRpt,j,0.7158,vtsPrac,29,0,29,0,1,,,,,,,,,,,,,,,,,,,,,,,
295756,2022-12-05_17h05.01.360,vts_reward_expectancy_bt,2022.2.4,Win32,351.4938489,Chrome,1536,864,,,,,0,585,,,,,,,,,,,,,,,,,U,167,star,1,0,,,4,,,,,,,,,,,,,repeat,number,numRpt,k,0.6804,vtsPrac,30,0,30,0,1,,,,,,,,,,,,,,,,,,,,,,,
295756,2022-12-05_17h05.01.360,vts_reward_expectancy_bt,2022.2.4,Win32,351.4938489,Chrome,1536,864,,,,,0,585,,,,,,,,,,,,,,,,,S,146,triangle,1,0,,,4,,,,,,,,,,,,,repeat,number,numRpt,j,0.8609,vtsPrac,31,0,31,0,1,,,,,,,,,,,,,,,,,,,,,,,
295756,2022-12-05_17h05.01.360,vts_reward_expectancy_bt,2022.2.4,Win32,351.4938489,Chrome,1536,864,,,,,0,585,,,,,,,,,,,,,,,,,D,132,hexagon,1,0,,,5,,,,,,,,,,,,,switch,letter,lettSwt,d,0.8276,vtsPrac,0,0,0,0,1,,,,,,,,,,,,,,,,,,,,,,,
295756,2022-12-05_17h05.01.360,vts_reward_expectancy_bt,2022.2.4,Win32,351.4938489,Chrome,1536,864,,,,,0,585,,,,,,,,,,,,,,,,,Y,167,star,1,0,,,5,,,,,,,,,,,,,repeat,letter,lettRpt,f,0.9109,vtsPrac,1,0,1,0,1,,,,,,,,,,,,,,,,,,,,,,,
295756,2022-12-05_17h05.01.360,vts_reward_expectancy_bt,2022.2.4,Win32,351.4938489,Chrome,1536,864,,,,,0,585,,,,,,,,,,,,,,,,,B,139,hexagon,1,0,,,5,,,,,,,,,,,,,switch,number,numSwt,j,0.911,vtsPrac,2,0,2,0,1,,,,,,,,,,,,,,,,,,,,,,,
295756,2022-12-05_17h05.01.360,vts_reward_expectancy_bt,2022.2.4,Win32,351.4938489,Chrome,1536,864,,,,,0,585,,,,,,,,,,,,,,,,,S,125,star,1,0,,,5,,,,,,,,,,,,,repeat,number,numRpt,j,0.8276,vtsPrac,3,0,3,0,1,,,,,,,,,,,,,,,,,,,,,,,
295756,2022-12-05_17h05.01.360,vts_reward_expectancy_bt,2022.2.4,Win32,351.4938489,Chrome,1536,864,,,,,0,585,,,,,,,,,,,,,,,,,D,132,star,1,0,,,5,,,,,,,,,,,,,switch,letter,lettSwt,d,0.7152,vtsPrac,4,0,4,0,1,,,,,,,,,,,,,,,,,,,,,,,
295756,2022-12-05_17h05.01.360,vts_reward_expectancy_bt,2022.2.4,Win32,351.4938489,Chrome,1536,864,,,,,0,585,,,,,,,,,,,,,,,,,Y,167,triangle,1,0,,,5,,,,,,,,,,,,,switch,number,numSwt,k,0.7914,vtsPrac,5,0,5,0,1,,,,,,,,,,,,,,,,,,,,,,,
295756,2022-12-05_17h05.01.360,vts_reward_expectancy_bt,2022.2.4,Win32,351.4938489,Chrome,1536,864,,,,,0,585,,,,,,,,,,,,,,,,,B,139,hexagon,1,0,,,5,,,,,,,,,,,,,switch,letter,lettSwt,d,0.565,vtsPrac,6,0,6,0,1,,,,,,,,,,,,,,,,,,,,,,,
295756,2022-12-05_17h05.01.360,vts_reward_expectancy_bt,2022.2.4,Win32,351.4938489,Chrome,1536,864,,,,,0,585,,,,,,,,,,,,,,,,,S,125,star,1,0,,,5,,,,,,,,,,,,,switch,number,numSwt,j,0.5566,vtsPrac,7,0,7,0,1,,,,,,,,,,,,,,,,,,,,,,,
295756,2022-12-05_17h05.01.360,vts_reward_expectancy_bt,2022.2.4,Win32,351.4938489,Chrome,1536,864,,,,,0,585,,,,,,,,,,,,,,,,,F,139,circle,0,0,,,5,,,,,,,,,,,,,switch,letter,NA,f,0.6798,vtsPrac,8,0,8,0,1,,,,,,,,,,,,,,,,,,,,,,,
295756,2022-12-05_17h05.01.360,vts_reward_expectancy_bt,2022.2.4,Win32,351.4938489,Chrome,1536,864,,,,,0,585,,,,,,,,,,,,,,,,,B,181,star,1,1,,,5,,,,,,,,,,,,,switch,number,numSwt,k,0.6749,vtsPrac,9,0,9,0,1,,,,,,,,,,,,,,,,,,,,,,,
295756,2022-12-05_17h05.01.360,vts_reward_expectancy_bt,2022.2.4,Win32,351.4938489,Chrome,1536,864,,,,,0,585,,,,,,,,,,,,,,,,,Y,174,circle,1,0,,,5,,,,,,,,,,,,,repeat,number,numRpt,k,0.8946,vtsPrac,10,0,10,0,1,,,,,,,,,,,,,,,,,,,,,,,
295756,2022-12-05_17h05.01.360,vts_reward_expectancy_bt,2022.2.4,Win32,351.4938489,Chrome,1536,864,,,,,0,585,,,,,,,,,,,,,,,,,D,167,hexagon,1,0,,,5,,,,,,,,,,,,,switch,letter,lettSwt,d,0.6674,vtsPrac,11,0,11,0,1,,,,,,,,,,,,,,,,,,,,,,,
295756,2022-12-05_17h05.01.360,vts_reward_expectancy_bt,2022.2.4,Win32,351.4938489,Chrome,1536,864,,,,,0,585,,,,,,,,,,,,,,,,,F,132,star,1,0,,,5,,,,,,,,,,,,,switch,number,numSwt,j,0.6799,vtsPrac,12,0,12,0,1,,,,,,,,,,,,,,,,,,,,,,,
295756,2022-12-05_17h05.01.360,vts_reward_expectancy_bt,2022.2.4,Win32,351.4938489,Chrome,1536,864,,,,,0,585,,,,,,,,,,,,,,,,,W,174,circle,1,0,,,5,,,,,,,,,,,,,switch,letter,lettSwt,f,1.128,vtsPrac,13,0,13,0,1,,,,,,,,,,,,,,,,,,,,,,,
295756,2022-12-05_17h05.01.360,vts_reward_expectancy_bt,2022.2.4,Win32,351.4938489,Chrome,1536,864,,,,,0,585,,,,,,,,,,,,,,,,,D,146,hexagon,1,0,,,5,,,,,,,,,,,,,switch,number,numSwt,j,0.7694,vtsPrac,14,0,14,0,1,,,,,,,,,,,,,,,,,,,,,,,
295756,2022-12-05_17h05.01.360,vts_reward_expectancy_bt,2022.2.4,Win32,351.4938489,Chrome,1536,864,,,,,0,585,,,,,,,,,,,,,,,,,B,167,circle,1,0,,,5,,,,,,,,,,,,,switch,letter,lettSwt,d,0.8219,vtsPrac,15,0,15,0,1,,,,,,,,,,,,,,,,,,,,,,,
295756,2022-12-05_17h05.01.360,vts_reward_expectancy_bt,2022.2.4,Win32,351.4938489,Chrome,1536,864,,,,,0,585,,,,,,,,,,,,,,,,,W,181,hexagon,1,0,,,5,,,,,,,,,,,,,switch,number,numSwt,k,1.3499,vtsPrac,16,0,16,0,1,,,,,,,,,,,,,,,,,,,,,,,
295756,2022-12-05_17h05.01.360,vts_reward_expectancy_bt,2022.2.4,Win32,351.4938489,Chrome,1536,864,,,,,0,585,,,,,,,,,,,,,,,,,Y,139,circle,1,0,,,5,,,,,,,,,,,,,switch,letter,lettSwt,f,0.8029,vtsPrac,17,0,17,0,1,,,,,,,,,,,,,,,,,,,,,,,
295756,2022-12-05_17h05.01.360,vts_reward_expectancy_bt,2022.2.4,Win32,351.4938489,Chrome,1536,864,,,,,0,585,,,,,,,,,,,,,,,,,D,160,hexagon,1,0,,,5,,,,,,,,,,,,,repeat,letter,lettRpt,d,0.7395,vtsPrac,18,0,18,0,1,,,,,,,,,,,,,,,,,,,,,,,
295756,2022-12-05_17h05.01.360,vts_reward_expectancy_bt,2022.2.4,Win32,351.4938489,Chrome,1536,864,,,,,0,585,,,,,,,,,,,,,,,,,B,167,triangle,1,0,,,5,,,,,,,,,,,,,switch,number,numSwt,k,1.1284,vtsPrac,19,0,19,0,1,,,,,,,,,,,,,,,,,,,,,,,
295756,2022-12-05_17h05.01.360,vts_reward_expectancy_bt,2022.2.4,Win32,351.4938489,Chrome,1536,864,,,,,0,585,,,,,,,,,,,,,,,,,F,174,star,1,0,,,5,,,,,,,,,,,,,switch,letter,lettSwt,d,1.2942,vtsPrac,20,0,20,0,1,,,,,,,,,,,,,,,,,,,,,,,
295756,2022-12-05_17h05.01.360,vts_reward_expectancy_bt,2022.2.4,Win32,351.4938489,Chrome,1536,864,,,,,0,585,,,,,,,,,,,,,,,,,H,132,hexagon,1,0,,,5,,,,,,,,,,,,,switch,number,numSwt,j,0.8599,vtsPrac,21,0,21,0,1,,,,,,,,,,,,,,,,,,,,,,,
295756,2022-12-05_17h05.01.360,vts_reward_expectancy_bt,2022.2.4,Win32,351.4938489,Chrome,1536,864,,,,,0,585,,,,,,,,,,,,,,,,,U,160,star,1,0,,,5,,,,,,,,,,,,,switch,letter,lettSwt,f,0.7345,vtsPrac,22,0,22,0,1,,,,,,,,,,,,,,,,,,,,,,,
295756,2022-12-05_17h05.01.360,vts_reward_expectancy_bt,2022.2.4,Win32,351.4938489,Chrome,1536,864,,,,,0,585,,,,,,,,,,,,,,,,,Y,181,triangle,1,0,,,5,,,,,,,,,,,,,repeat,letter,lettRpt,f,0.8275,vtsPrac,23,0,23,0,1,,,,,,,,,,,,,,,,,,,,,,,
295756,2022-12-05_17h05.01.360,vts_reward_expectancy_bt,2022.2.4,Win32,351.4938489,Chrome,1536,864,,,,,0,585,,,,,,,,,,,,,,,,,W,132,star,1,0,,,5,,,,,,,,,,,,,switch,number,numSwt,j,0.8024,vtsPrac,24,0,24,0,1,,,,,,,,,,,,,,,,,,,,,,,
295756,2022-12-05_17h05.01.360,vts_reward_expectancy_bt,2022.2.4,Win32,351.4938489,Chrome,1536,864,,,,,0,585,,,,,,,,,,,,,,,,,U,139,triangle,1,0,,,5,,,,,,,,,,,,,repeat,number,numRpt,j,1.7081,vtsPrac,25,0,25,0,1,,,,,,,,,,,,,,,,,,,,,,,
295756,2022-12-05_17h05.01.360,vts_reward_expectancy_bt,2022.2.4,Win32,351.4938489,Chrome,1536,864,,,,,0,585,,,,,,,,,,,,,,,,,Y,174,star,1,0,,,5,,,,,,,,,,,,,switch,letter,lettSwt,f,0.7137,vtsPrac,26,0,26,0,1,,,,,,,,,,,,,,,,,,,,,,,
295756,2022-12-05_17h05.01.360,vts_reward_expectancy_bt,2022.2.4,Win32,351.4938489,Chrome,1536,864,,,,,0,585,,,,,,,,,,,,,,,,,H,125,circle,1,0,,,5,,,,,,,,,,,,,switch,number,numSwt,j,1.0362,vtsPrac,27,0,27,0,1,,,,,,,,,,,,,,,,,,,,,,,
295756,2022-12-05_17h05.01.360,vts_reward_expectancy_bt,2022.2.4,Win32,351.4938489,Chrome,1536,864,,,,,0,585,,,,,,,,,,,,,,,,,D,174,hexagon,1,0,,,5,,,,,,,,,,,,,switch,letter,lettSwt,d,0.5779,vtsPrac,28,0,28,0,1,,,,,,,,,,,,,,,,,,,,,,,
295756,2022-12-05_17h05.01.360,vts_reward_expectancy_bt,2022.2.4,Win32,351.4938489,Chrome,1536,864,,,,,0,585,,,,,,,,,,,,,,,,,B,125,star,1,0,,,5,,,,,,,,,,,,,repeat,letter,lettRpt,d,1.3042,vtsPrac,29,0,29,0,1,,,,,,,,,,,,,,,,,,,,,,,
295756,2022-12-05_17h05.01.360,vts_reward_expectancy_bt,2022.2.4,Win32,351.4938489,Chrome,1536,864,,,,,0,585,,,,,,,,,,,,,,,,,F,181,circle,1,0,,,5,,,,,,,,,,,,,switch,number,numSwt,k,1.3599,vtsPrac,30,0,30,0,1,,,,,,,,,,,,,,,,,,,,,,,
295756,2022-12-05_17h05.01.360,vts_reward_expectancy_bt,2022.2.4,Win32,351.4938489,Chrome,1536,864,,,,,0,585,,,,,,,,,,,,,,,,,Y,167,hexagon,1,0,,,5,,,,,,,,,,,,,switch,letter,lettSwt,f,1.0609,vtsPrac,31,0,31,0,1,,,,,,,,,,,,,,,,,,,,,,,
295756,2022-12-05_17h05.01.360,vts_reward_expectancy_bt,2022.2.4,Win32,351.4938489,Chrome,1536,864,,,,,,,,,,,,,,,,,,,,,,,,,,,,,,,,,,,,,,,,,,,,,,,,,,,,,,,,,,,,,,,,,,,,,,,,,,,,
295756,2022-12-05_17h05.01.360,vts_reward_expectancy_bt,2022.2.4,Win32,351.4938489,Chrome,1536,864,,,,,,,,,,,,,,,,,,,,,,,,,,,,,,,,,,,,,,,,,,,,,,,,,,,,,,,,,,,,,,,,,,,,,,,,,,,,
295756,2022-12-05_17h05.01.360,vts_reward_expectancy_bt,2022.2.4,Win32,351.4938489,Chrome,1536,864,,,,,0,585,,,,,,,,,,,,,,,,,S,125,triangle,1,0,,,,,,,,,,,,,,,,repeat,letter,lettRpt,f,1.2037,noRew,,,,,,0,0,0,0,0,1,,,,,,,,,,,,,,,,,
295756,2022-12-05_17h05.01.360,vts_reward_expectancy_bt,2022.2.4,Win32,351.4938489,Chrome,1536,864,,,,,0,585,,,,,,,,,,,,,,,,,W,181,circle,1,0,,,,,,,,,,,,,,,,repeat,letter,lettRpt,f,0.8602,noRew,,,,,,0,1,0,1,0,1,,,,,,,,,,,,,,,,,
295756,2022-12-05_17h05.01.360,vts_reward_expectancy_bt,2022.2.4,Win32,351.4938489,Chrome,1536,864,,,,,0,585,,,,,,,,,,,,,,,,,Y,167,triangle,1,0,,,,,,,,,,,,,,,,repeat,letter,lettRpt,f,0.648,noRew,,,,,,0,2,0,2,0,1,,,,,,,,,,,,,,,,,
295756,2022-12-05_17h05.01.360,vts_reward_expectancy_bt,2022.2.4,Win32,351.4938489,Chrome,1536,864,,,,,0,585,,,,,,,,,,,,,,,,,B,146,circle,1,0,,,,,,,,,,,,,,,,switch,number,numSwt,j,0.8915,noRew,,,,,,0,3,0,3,0,1,,,,,,,,,,,,,,,,,
295756,2022-12-05_17h05.01.360,vts_reward_expectancy_bt,2022.2.4,Win32,351.4938489,Chrome,1536,864,,,,,0,585,,,,,,,,,,,,,,,,,S,125,triangle,1,0,,,,,,,,,,,,,,,,repeat,number,numRpt,j,1.0255,noRew,,,,,,0,4,0,4,0,1,,,,,,,,,,,,,,,,,
295756,2022-12-05_17h05.01.360,vts_reward_expectancy_bt,2022.2.4,Win32,351.4938489,Chrome,1536,864,,,,,0,585,,,,,,,,,,,,,,,,,W,181,star,1,0,,,,,,,,,,,,,,,,repeat,number,numRpt,k,0.9808,noRew,,,,,,0,5,0,5,0,1,,,,,,,,,,,,,,,,,
295756,2022-12-05_17h05.01.360,vts_reward_expectancy_bt,2022.2.4,Win32,351.4938489,Chrome,1536,864,,,,,0,585,,,,,,,,,,,,,,,,,Y,167,hexagon,1,0,,,,,,,,,,,,,,,,switch,letter,lettSwt,f,0.5914,noRew,,,,,,0,6,0,6,0,1,,,,,,,,,,,,,,,,,
295756,2022-12-05_17h05.01.360,vts_reward_expectancy_bt,2022.2.4,Win32,351.4938489,Chrome,1536,864,,,,,0,585,,,,,,,,,,,,,,,,,B,146,star,1,0,,,,,,,,,,,,,,,,repeat,letter,lettRpt,d,0.8277,noRew,,,,,,0,7,0,7,0,1,,,,,,,,,,,,,,,,,
295756,2022-12-05_17h05.01.360,vts_reward_expectancy_bt,2022.2.4,Win32,351.4938489,Chrome,1536,864,,,,,0,585,,,,,,,,,,,,,,,,,Y,139,hexagon,1,0,,,,,,,,,,,,,,,,switch,number,numSwt,j,1.5948,noRew,,,,,,0,8,0,8,0,1,,,,,,,,,,,,,,,,,
295756,2022-12-05_17h05.01.360,vts_reward_expectancy_bt,2022.2.4,Win32,351.4938489,Chrome,1536,864,,,,,0,585,,,,,,,,,,,,,,,,,U,181,star,1,0,,,,,,,,,,,,,,,,repeat,number,numRpt,k,0.9703,noRew,,,,,,0,9,0,9,0,1,,,,,,,,,,,,,,,,,
295756,2022-12-05_17h05.01.360,vts_reward_expectancy_bt,2022.2.4,Win32,351.4938489,Chrome,1536,864,,,,,0,585,,,,,,,,,,,,,,,,,H,132,star,1,0,,,,,,,,,,,,,,,,repeat,number,numRpt,j,1.8216,noRew,,,,,,0,10,0,10,0,1,,,,,,,,,,,,,,,,,
295756,2022-12-05_17h05.01.360,vts_reward_expectancy_bt,2022.2.4,Win32,351.4938489,Chrome,1536,864,,,,,0,585,,,,,,,,,,,,,,,,,B,167,circle,1,0,,,,,,,,,,,,,,,,repeat,number,numRpt,k,0.858,noRew,,,,,,0,11,0,11,0,1,,,,,,,,,,,,,,,,,
295756,2022-12-05_17h05.01.360,vts_reward_expectancy_bt,2022.2.4,Win32,351.4938489,Chrome,1536,864,,,,,0,585,,,,,,,,,,,,,,,,,F,132,circle,1,0,,,,,,,,,,,,,,,,switch,letter,lettSwt,d,0.8231,noRew,,,,,,0,12,0,12,0,1,,,,,,,,,,,,,,,,,
295756,2022-12-05_17h05.01.360,vts_reward_expectancy_bt,2022.2.4,Win32,351.4938489,Chrome,1536,864,,,,,0,585,,,,,,,,,,,,,,,,,W,167,hexagon,1,0,,,,,,,,,,,,,,,,switch,number,numSwt,k,0.9671,noRew,,,,,,0,13,0,13,0,1,,,,,,,,,,,,,,,,,
295756,2022-12-05_17h05.01.360,vts_reward_expectancy_bt,2022.2.4,Win32,351.4938489,Chrome,1536,864,,,,,0,585,,,,,,,,,,,,,,,,,S,160,hexagon,1,0,,,,,,,,,,,,,,,,repeat,number,numRpt,k,1.4382,noRew,,,,,,0,14,0,14,0,1,,,,,,,,,,,,,,,,,
295756,2022-12-05_17h05.01.360,vts_reward_expectancy_bt,2022.2.4,Win32,351.4938489,Chrome,1536,864,,,,,0,585,,,,,,,,,,,,,,,,,D,125,circle,1,0,,,,,,,,,,,,,,,,switch,letter,lettSwt,d,0.8803,noRew,,,,,,0,15,0,15,0,1,,,,,,,,,,,,,,,,,
295756,2022-12-05_17h05.01.360,vts_reward_expectancy_bt,2022.2.4,Win32,351.4938489,Chrome,1536,864,,,,,0,585,,,,,,,,,,,,,,,,,S,132,triangle,1,0,,,,,,,,,,,,,,,,switch,number,numSwt,j,1.8495,noRew,,,,,,0,16,0,16,0,1,,,,,,,,,,,,,,,,,
295756,2022-12-05_17h05.01.360,vts_reward_expectancy_bt,2022.2.4,Win32,351.4938489,Chrome,1536,864,,,,,0,585,,,,,,,,,,,,,,,,,B,174,circle,1,0,,,,,,,,,,,,,,,,switch,letter,lettSwt,d,0.6828,noRew,,,,,,0,17,0,17,0,1,,,,,,,,,,,,,,,,,
295756,2022-12-05_17h05.01.360,vts_reward_expectancy_bt,2022.2.4,Win32,351.4938489,Chrome,1536,864,,,,,0,585,,,,,,,,,,,,,,,,,U,125,circle,1,0,,,,,,,,,,,,,,,,repeat,letter,lettRpt,f,1.2777,noRew,,,,,,0,18,0,18,0,1,,,,,,,,,,,,,,,,,
295756,2022-12-05_17h05.01.360,vts_reward_expectancy_bt,2022.2.4,Win32,351.4938489,Chrome,1536,864,,,,,0,585,,,,,,,,,,,,,,,,,W,146,hexagon,1,0,,,,,,,,,,,,,,,,switch,number,numSwt,j,1.5619,noRew,,,,,,0,19,0,19,0,1,,,,,,,,,,,,,,,,,
295756,2022-12-05_17h05.01.360,vts_reward_expectancy_bt,2022.2.4,Win32,351.4938489,Chrome,1536,864,,,,,0,585,,,,,,,,,,,,,,,,,W,132,circle,1,0,,,,,,,,,,,,,,,,switch,letter,lettSwt,f,0.7691,noRew,,,,,,0,20,0,20,0,1,,,,,,,,,,,,,,,,,
295756,2022-12-05_17h05.01.360,vts_reward_expectancy_bt,2022.2.4,Win32,351.4938489,Chrome,1536,864,,,,,0,585,,,,,,,,,,,,,,,,,S,181,hexagon,0,0,,,,,,,,,,,,,,,,repeat,letter,NA,d,0.8234,noRew,,,,,,0,21,0,21,0,1,,,,,,,,,,,,,,,,,
295756,2022-12-05_17h05.01.360,vts_reward_expectancy_bt,2022.2.4,Win32,351.4938489,Chrome,1536,864,,,,,0,585,,,,,,,,,,,,,,,,,D,167,hexagon,1,1,,,,,,,,,,,,,,,,repeat,letter,lettRpt,d,1.3287,noRew,,,,,,0,22,0,22,0,1,,,,,,,,,,,,,,,,,
295756,2022-12-05_17h05.01.360,vts_reward_expectancy_bt,2022.2.4,Win32,351.4938489,Chrome,1536,864,,,,,0,585,,,,,,,,,,,,,,,,,H,174,circle,1,0,,,,,,,,,,,,,,,,switch,number,numSwt,k,1.183,noRew,,,,,,0,23,0,23,0,1,,,,,,,,,,,,,,,,,
295756,2022-12-05_17h05.01.360,vts_reward_expectancy_bt,2022.2.4,Win32,351.4938489,Chrome,1536,864,,,,,0,585,,,,,,,,,,,,,,,,,H,146,triangle,1,0,,,,,,,,,,,,,,,,repeat,number,numRpt,j,0.7669,noRew,,,,,,0,24,0,24,0,1,,,,,,,,,,,,,,,,,
295756,2022-12-05_17h05.01.360,vts_reward_expectancy_bt,2022.2.4,Win32,351.4938489,Chrome,1536,864,,,,,0,585,,,,,,,,,,,,,,,,,Y,132,circle,1,0,,,,,,,,,,,,,,,,repeat,number,numRpt,j,0.9192,noRew,,,,,,0,25,0,25,0,1,,,,,,,,,,,,,,,,,
295756,2022-12-05_17h05.01.360,vts_reward_expectancy_bt,2022.2.4,Win32,351.4938489,Chrome,1536,864,,,,,0,585,,,,,,,,,,,,,,,,,B,174,hexagon,1,0,,,,,,,,,,,,,,,,repeat,number,numRpt,k,0.8597,noRew,,,,,,0,26,0,26,0,1,,,,,,,,,,,,,,,,,
295756,2022-12-05_17h05.01.360,vts_reward_expectancy_bt,2022.2.4,Win32,351.4938489,Chrome,1536,864,,,,,0,585,,,,,,,,,,,,,,,,,U,181,star,1,0,,,,,,,,,,,,,,,,repeat,number,numRpt,k,0.8058,noRew,,,,,,0,27,0,27,0,1,,,,,,,,,,,,,,,,,
295756,2022-12-05_17h05.01.360,vts_reward_expectancy_bt,2022.2.4,Win32,351.4938489,Chrome,1536,864,,,,,0,585,,,,,,,,,,,,,,,,,W,174,circle,1,0,,,,,,,,,,,,,,,,switch,letter,lettSwt,f,0.9028,noRew,,,,,,0,28,0,28,0,1,,,,,,,,,,,,,,,,,
295756,2022-12-05_17h05.01.360,vts_reward_expectancy_bt,2022.2.4,Win32,351.4938489,Chrome,1536,864,,,,,0,585,,,,,,,,,,,,,,,,,Y,181,star,1,0,,,,,,,,,,,,,,,,repeat,letter,lettRpt,f,1.0927,noRew,,,,,,0,29,0,29,0,1,,,,,,,,,,,,,,,,,
295756,2022-12-05_17h05.01.360,vts_reward_expectancy_bt,2022.2.4,Win32,351.4938489,Chrome,1536,864,,,,,0,585,,,,,,,,,,,,,,,,,B,160,circle,1,0,,,,,,,,,,,,,,,,switch,number,numSwt,k,0.7999,noRew,,,,,,0,30,0,30,0,1,,,,,,,,,,,,,,,,,
295756,2022-12-05_17h05.01.360,vts_reward_expectancy_bt,2022.2.4,Win32,351.4938489,Chrome,1536,864,,,,,0,585,,,,,,,,,,,,,,,,,D,167,hexagon,1,0,,,,,,,,,,,,,,,,switch,letter,lettSwt,d,0.8737,noRew,,,,,,0,31,0,31,0,1,,,,,,,,,,,,,,,,,
295756,2022-12-05_17h05.01.360,vts_reward_expectancy_bt,2022.2.4,Win32,351.4938489,Chrome,1536,864,,,,,0,585,,,,,,,,,,,,,,,,,U,139,triangle,1,0,,,,,,,,,,,,,,,,repeat,letter,lettRpt,f,1.0609,noRew,,,,,,0,32,0,32,0,1,,,,,,,,,,,,,,,,,
295756,2022-12-05_17h05.01.360,vts_reward_expectancy_bt,2022.2.4,Win32,351.4938489,Chrome,1536,864,,,,,0,585,,,,,,,,,,,,,,,,,H,132,star,1,0,,,,,,,,,,,,,,,,switch,number,numSwt,j,0.9441,noRew,,,,,,0,33,0,33,0,1,,,,,,,,,,,,,,,,,
295756,2022-12-05_17h05.01.360,vts_reward_expectancy_bt,2022.2.4,Win32,351.4938489,Chrome,1536,864,,,,,0,585,,,,,,,,,,,,,,,,,F,146,star,1,0,,,,,,,,,,,,,,,,repeat,number,numRpt,j,1.4247,noRew,,,,,,0,34,0,34,0,1,,,,,,,,,,,,,,,,,
295756,2022-12-05_17h05.01.360,vts_reward_expectancy_bt,2022.2.4,Win32,351.4938489,Chrome,1536,864,,,,,0,585,,,,,,,,,,,,,,,,,W,167,hexagon,1,0,,,,,,,,,,,,,,,,switch,letter,lettSwt,f,0.7745,noRew,,,,,,0,35,0,35,0,1,,,,,,,,,,,,,,,,,
295756,2022-12-05_17h05.01.360,vts_reward_expectancy_bt,2022.2.4,Win32,351.4938489,Chrome,1536,864,,,,,0,585,,,,,,,,,,,,,,,,,W,174,star,1,0,,,,,,,,,,,,,,,,switch,number,numSwt,k,1.0063,noRew,,,,,,0,36,0,36,0,1,,,,,,,,,,,,,,,,,
295756,2022-12-05_17h05.01.360,vts_reward_expectancy_bt,2022.2.4,Win32,351.4938489,Chrome,1536,864,,,,,0,585,,,,,,,,,,,,,,,,,B,160,triangle,1,0,,,,,,,,,,,,,,,,repeat,number,numRpt,k,1.1523,noRew,,,,,,0,37,0,37,0,1,,,,,,,,,,,,,,,,,
295756,2022-12-05_17h05.01.360,vts_reward_expectancy_bt,2022.2.4,Win32,351.4938489,Chrome,1536,864,,,,,0,585,,,,,,,,,,,,,,,,,Y,167,circle,1,0,,,,,,,,,,,,,,,,switch,letter,lettSwt,f,0.8074,noRew,,,,,,0,38,0,38,0,1,,,,,,,,,,,,,,,,,
295756,2022-12-05_17h05.01.360,vts_reward_expectancy_bt,2022.2.4,Win32,351.4938489,Chrome,1536,864,,,,,0,585,,,,,,,,,,,,,,,,,H,146,triangle,1,0,,,,,,,,,,,,,,,,switch,number,numSwt,j,0.7356,noRew,,,,,,0,39,0,39,0,1,,,,,,,,,,,,,,,,,
295756,2022-12-05_17h05.01.360,vts_reward_expectancy_bt,2022.2.4,Win32,351.4938489,Chrome,1536,864,,,,,0,585,,,,,,,,,,,,,,,,,U,181,hexagon,1,0,,,,,,,,,,,,,,,,switch,letter,lettSwt,f,1.3837,noRew,,,,,,0,40,0,40,0,1,,,,,,,,,,,,,,,,,
295756,2022-12-05_17h05.01.360,vts_reward_expectancy_bt,2022.2.4,Win32,351.4938489,Chrome,1536,864,,,,,0,585,,,,,,,,,,,,,,,,,H,160,circle,1,0,,,,,,,,,,,,,,,,switch,number,numSwt,k,0.6199,noRew,,,,,,0,41,0,41,0,1,,,,,,,,,,,,,,,,,
295756,2022-12-05_17h05.01.360,vts_reward_expectancy_bt,2022.2.4,Win32,351.4938489,Chrome,1536,864,,,,,0,585,,,,,,,,,,,,,,,,,S,132,circle,1,0,,,,,,,,,,,,,,,,switch,letter,lettSwt,f,0.8622,noRew,,,,,,0,42,0,42,0,1,,,,,,,,,,,,,,,,,
295756,2022-12-05_17h05.01.360,vts_reward_expectancy_bt,2022.2.4,Win32,351.4938489,Chrome,1536,864,,,,,0,585,,,,,,,,,,,,,,,,,Y,167,hexagon,1,0,,,,,,,,,,,,,,,,repeat,letter,lettRpt,f,1.0938,noRew,,,,,,0,43,0,43,0,1,,,,,,,,,,,,,,,,,
295756,2022-12-05_17h05.01.360,vts_reward_expectancy_bt,2022.2.4,Win32,351.4938489,Chrome,1536,864,,,,,0,585,,,,,,,,,,,,,,,,,H,174,hexagon,1,0,,,,,,,,,,,,,,,,switch,number,numSwt,k,1.3607,noRew,,,,,,0,44,0,44,0,1,,,,,,,,,,,,,,,,,
295756,2022-12-05_17h05.01.360,vts_reward_expectancy_bt,2022.2.4,Win32,351.4938489,Chrome,1536,864,,,,,0,585,,,,,,,,,,,,,,,,,U,132,star,1,0,,,,,,,,,,,,,,,,switch,letter,lettSwt,f,0.8146,noRew,,,,,,0,45,0,45,0,1,,,,,,,,,,,,,,,,,
295756,2022-12-05_17h05.01.360,vts_reward_expectancy_bt,2022.2.4,Win32,351.4938489,Chrome,1536,864,,,,,0,585,,,,,,,,,,,,,,,,,D,167,star,1,0,,,,,,,,,,,,,,,,switch,number,numSwt,k,1.5442,noRew,,,,,,0,46,0,46,0,1,,,,,,,,,,,,,,,,,
295756,2022-12-05_17h05.01.360,vts_reward_expectancy_bt,2022.2.4,Win32,351.4938489,Chrome,1536,864,,,,,0,585,,,,,,,,,,,,,,,,,B,125,triangle,1,0,,,,,,,,,,,,,,,,repeat,number,numRpt,j,0.8537,noRew,,,,,,0,47,0,47,0,1,,,,,,,,,,,,,,,,,
295756,2022-12-05_17h05.01.360,vts_reward_expectancy_bt,2022.2.4,Win32,351.4938489,Chrome,1536,864,,,,,0,585,,,,,,,,,,,,,,,,,F,132,star,1,0,,,,,,,,,,,,,,,,repeat,number,numRpt,j,0.7666,noRew,,,,,,0,48,0,48,0,1,,,,,,,,,,,,,,,,,
295756,2022-12-05_17h05.01.360,vts_reward_expectancy_bt,2022.2.4,Win32,351.4938489,Chrome,1536,864,,,,,0,585,,,,,,,,,,,,,,,,,S,146,triangle,1,0,,,,,,,,,,,,,,,,repeat,number,numRpt,j,0.9691,noRew,,,,,,0,49,0,49,0,1,,,,,,,,,,,,,,,,,
295756,2022-12-05_17h05.01.360,vts_reward_expectancy_bt,2022.2.4,Win32,351.4938489,Chrome,1536,864,,,,,0,585,,,,,,,,,,,,,,,,,U,160,hexagon,1,0,,,,,,,,,,,,,,,,repeat,number,numRpt,k,0.86,noRew,,,,,,0,50,0,50,0,1,,,,,,,,,,,,,,,,,
295756,2022-12-05_17h05.01.360,vts_reward_expectancy_bt,2022.2.4,Win32,351.4938489,Chrome,1536,864,,,,,0,585,,,,,,,,,,,,,,,,,Y,125,star,1,0,,,,,,,,,,,,,,,,repeat,number,numRpt,j,1.0028,noRew,,,,,,0,51,0,51,0,1,,,,,,,,,,,,,,,,,
295756,2022-12-05_17h05.01.360,vts_reward_expectancy_bt,2022.2.4,Win32,351.4938489,Chrome,1536,864,,,,,0,585,,,,,,,,,,,,,,,,,S,167,star,1,0,,,,,,,,,,,,,,,,repeat,number,numRpt,k,0.7026,noRew,,,,,,0,52,0,52,0,1,,,,,,,,,,,,,,,,,
295756,2022-12-05_17h05.01.360,vts_reward_expectancy_bt,2022.2.4,Win32,351.4938489,Chrome,1536,864,,,,,0,585,,,,,,,,,,,,,,,,,B,139,triangle,1,0,,,,,,,,,,,,,,,,repeat,number,numRpt,j,0.8525,noRew,,,,,,0,53,0,53,0,1,,,,,,,,,,,,,,,,,
295756,2022-12-05_17h05.01.360,vts_reward_expectancy_bt,2022.2.4,Win32,351.4938489,Chrome,1536,864,,,,,0,585,,,,,,,,,,,,,,,,,D,174,triangle,1,0,,,,,,,,,,,,,,,,repeat,number,numRpt,k,1.0636,noRew,,,,,,0,54,0,54,0,1,,,,,,,,,,,,,,,,,
295756,2022-12-05_17h05.01.360,vts_reward_expectancy_bt,2022.2.4,Win32,351.4938489,Chrome,1536,864,,,,,0,585,,,,,,,,,,,,,,,,,F,181,star,1,0,,,,,,,,,,,,,,,,repeat,number,numRpt,k,0.9512,noRew,,,,,,0,55,0,55,0,1,,,,,,,,,,,,,,,,,
295756,2022-12-05_17h05.01.360,vts_reward_expectancy_bt,2022.2.4,Win32,351.4938489,Chrome,1536,864,,,,,0,585,,,,,,,,,,,,,,,,,F,132,triangle,1,0,,,,,,,,,,,,,,,,repeat,number,numRpt,j,1.8636,noRew,,,,,,0,56,0,56,0,1,,,,,,,,,,,,,,,,,
295756,2022-12-05_17h05.01.360,vts_reward_expectancy_bt,2022.2.4,Win32,351.4938489,Chrome,1536,864,,,,,0,585,,,,,,,,,,,,,,,,,B,160,hexagon,0,0,,,,,,,,,,,,,,,,switch,letter,NA,f,2.6217,noRew,,,,,,0,57,0,57,0,1,,,,,,,,,,,,,,,,,
295756,2022-12-05_17h05.01.360,vts_reward_expectancy_bt,2022.2.4,Win32,351.4938489,Chrome,1536,864,,,,,0,585,,,,,,,,,,,,,,,,,U,139,circle,1,1,,,,,,,,,,,,,,,,switch,number,numSwt,j,0.7686,noRew,,,,,,0,58,0,58,0,1,,,,,,,,,,,,,,,,,
295756,2022-12-05_17h05.01.360,vts_reward_expectancy_bt,2022.2.4,Win32,351.4938489,Chrome,1536,864,,,,,0,585,,,,,,,,,,,,,,,,,D,146,star,1,0,,,,,,,,,,,,,,,,switch,letter,lettSwt,d,1.3279,noRew,,,,,,0,59,0,59,0,1,,,,,,,,,,,,,,,,,
295756,2022-12-05_17h05.01.360,vts_reward_expectancy_bt,2022.2.4,Win32,351.4938489,Chrome,1536,864,,,,,0,585,,,,,,,,,,,,,,,,,H,139,triangle,1,0,,,,,,,,,,,,,,,,repeat,letter,lettRpt,d,2.5914,noRew,,,,,,0,60,0,60,0,1,,,,,,,,,,,,,,,,,
295756,2022-12-05_17h05.01.360,vts_reward_expectancy_bt,2022.2.4,Win32,351.4938489,Chrome,1536,864,,,,,0,585,,,,,,,,,,,,,,,,,B,181,star,1,0,,,,,,,,,,,,,,,,switch,number,numSwt,k,1.9856,noRew,,,,,,0,61,0,61,0,1,,,,,,,,,,,,,,,,,
295756,2022-12-05_17h05.01.360,vts_reward_expectancy_bt,2022.2.4,Win32,351.4938489,Chrome,1536,864,,,,,0,585,,,,,,,,,,,,,,,,,Y,125,hexagon,1,0,,,,,,,,,,,,,,,,repeat,number,numRpt,j,0.7915,noRew,,,,,,0,62,0,62,0,1,,,,,,,,,,,,,,,,,
295756,2022-12-05_17h05.01.360,vts_reward_expectancy_bt,2022.2.4,Win32,351.4938489,Chrome,1536,864,,,,,0,585,,,,,,,,,,,,,,,,,W,174,triangle,1,0,,,,,,,,,,,,,,,,switch,letter,lettSwt,f,1.1522,noRew,,,,,,0,63,0,63,0,1,,,,,,,,,,,,,,,,,
295756,2022-12-05_17h05.01.360,vts_reward_expectancy_bt,2022.2.4,Win32,351.4938489,Chrome,1536,864,,,,,,,,,,,,,,,,,,,,,,,,,,,,,,,,,,,,,,,,,,,,,,,,,,,,,,,,,,,,,,,,,,,,,,,,,,,,
295756,2022-12-05_17h05.01.360,vts_reward_expectancy_bt,2022.2.4,Win32,351.4938489,Chrome,1536,864,,,,,1,586,,,,,,,,,,,,,,,,,U,132,circle,1,0,,,,,,,,,,,,,,,,switch,number,numSwt,j,1.4109,Lo,,,,,,0,,,,,,space,6.1165,low,0,0,0,0,1,,,,,,,,,
295756,2022-12-05_17h05.01.360,vts_reward_expectancy_bt,2022.2.4,Win32,351.4938489,Chrome,1536,864,,,,,0,586,,,,,,,,,,,,,,,,,Y,181,hexagon,0,0,,,,,,,,,,,,,,,,switch,letter,NA,d,0.6803,Lo,,,,,,0,,,,,,,,low,1,0,1,0,1,,,,,,,,,
295756,2022-12-05_17h05.01.360,vts_reward_expectancy_bt,2022.2.4,Win32,351.4938489,Chrome,1536,864,,,,,0,586,,,,,,,,,,,,,,,,,H,160,triangle,1,1,,,,,,,,,,,,,,,,switch,number,numSwt,k,1.0968,Hi,,,,,,0,,,,,,,,low,2,0,2,0,1,,,,,,,,,
295756,2022-12-05_17h05.01.360,vts_reward_expectancy_bt,2022.2.4,Win32,351.4938489,Chrome,1536,864,,,,,0,586,,,,,,,,,,,,,,,,,S,139,star,1,0,,,,,,,,,,,,,,,,switch,letter,lettSwt,f,1.2089,Hi,,,,,,0,,,,,,,,low,3,0,3,0,1,,,,,,,,,
295756,2022-12-05_17h05.01.360,vts_reward_expectancy_bt,2022.2.4,Win32,351.4938489,Chrome,1536,864,,,,,1,587,,,,,,,,,,,,,,,,,D,174,circle,1,0,,,,,,,,,,,,,,,,repeat,letter,lettRpt,d,0.5368,Lo,,,,,,0,,,,,,,,low,4,0,4,0,1,,,,,,,,,
295756,2022-12-05_17h05.01.360,vts_reward_expectancy_bt,2022.2.4,Win32,351.4938489,Chrome,1536,864,,,,,1,588,,,,,,,,,,,,,,,,,F,125,hexagon,1,0,,,,,,,,,,,,,,,,switch,number,numSwt,j,0.4786,Lo,,,,,,0,,,,,,,,low,5,0,5,0,1,,,,,,,,,
295756,2022-12-05_17h05.01.360,vts_reward_expectancy_bt,2022.2.4,Win32,351.4938489,Chrome,1536,864,,,,,1,589,,,,,,,,,,,,,,,,,W,146,triangle,1,0,,,,,,,,,,,,,,,,switch,letter,lettSwt,f,0.5962,Hi,,,,,,0,,,,,,,,low,6,0,6,0,1,,,,,,,,,
295756,2022-12-05_17h05.01.360,vts_reward_expectancy_bt,2022.2.4,Win32,351.4938489,Chrome,1536,864,,,,,0,589,,,,,,,,,,,,,,,,,B,167,star,0,0,,,,,,,,,,,,,,,,repeat,letter,NA,f,1.3332,Hi,,,,,,0,,,,,,,,low,7,0,7,0,1,,,,,,,,,
295756,2022-12-05_17h05.01.360,vts_reward_expectancy_bt,2022.2.4,Win32,351.4938489,Chrome,1536,864,,,,,1,590,,,,,,,,,,,,,,,,,U,132,triangle,1,1,,,,,,,,,,,,,,,,switch,number,numSwt,j,0.8276,Hi,,,,,,0,,,,,,,,low,8,0,8,0,1,,,,,,,,,
295756,2022-12-05_17h05.01.360,vts_reward_expectancy_bt,2022.2.4,Win32,351.4938489,Chrome,1536,864,,,,,10,600,,,,,,,,,,,,,,,,,Y,181,circle,1,0,,,,,,,,,,,,,,,,repeat,number,numRpt,k,0.5358,Lo,,,,,,0,,,,,,,,low,9,0,9,0,1,,,,,,,,,
295756,2022-12-05_17h05.01.360,vts_reward_expectancy_bt,2022.2.4,Win32,351.4938489,Chrome,1536,864,,,,,0,600,,,,,,,,,,,,,,,,,H,160,star,1,0,,,,,,,,,,,,,,,,repeat,number,numRpt,k,0.9705,Hi,,,,,,0,,,,,,,,low,10,0,10,0,1,,,,,,,,,
295756,2022-12-05_17h05.01.360,vts_reward_expectancy_bt,2022.2.4,Win32,351.4938489,Chrome,1536,864,,,,,1,601,,,,,,,,,,,,,,,,,S,139,hexagon,1,0,,,,,,,,,,,,,,,,repeat,number,numRpt,j,0.6489,Lo,,,,,,0,,,,,,,,low,11,0,11,0,1,,,,,,,,,
295756,2022-12-05_17h05.01.360,vts_reward_expectancy_bt,2022.2.4,Win32,351.4938489,Chrome,1536,864,,,,,1,602,,,,,,,,,,,,,,,,,D,174,hexagon,1,0,,,,,,,,,,,,,,,,switch,letter,lettSwt,d,0.4474,Lo,,,,,,0,,,,,,,,low,12,0,12,0,1,,,,,,,,,
295756,2022-12-05_17h05.01.360,vts_reward_expectancy_bt,2022.2.4,Win32,351.4938489,Chrome,1536,864,,,,,10,612,,,,,,,,,,,,,,,,,F,125,circle,1,0,,,,,,,,,,,,,,,,repeat,letter,lettRpt,d,1.1338,Lo,,,,,,0,,,,,,,,low,13,0,13,0,1,,,,,,,,,
295756,2022-12-05_17h05.01.360,vts_reward_expectancy_bt,2022.2.4,Win32,351.4938489,Chrome,1536,864,,,,,1,613,,,,,,,,,,,,,,,,,W,146,triangle,1,0,,,,,,,,,,,,,,,,switch,number,numSwt,j,0.6476,Hi,,,,,,0,,,,,,,,low,14,0,14,0,1,,,,,,,,,
295756,2022-12-05_17h05.01.360,vts_reward_expectancy_bt,2022.2.4,Win32,351.4938489,Chrome,1536,864,,,,,1,614,,,,,,,,,,,,,,,,,B,167,star,1,0,,,,,,,,,,,,,,,,repeat,number,numRpt,k,0.4693,Hi,,,,,,0,,,,,,,,low,15,0,15,0,1,,,,,,,,,
295756,2022-12-05_17h05.01.360,vts_reward_expectancy_bt,2022.2.4,Win32,351.4938489,Chrome,1536,864,,,,,10,624,,,,,,,,,,,,,,,,,W,139,triangle,1,0,,,,,,,,,,,,,,,,repeat,number,numRpt,j,0.5887,Hi,,,,,,0,,,,,,,,low,16,0,16,0,1,,,,,,,,,
295756,2022-12-05_17h05.01.360,vts_reward_expectancy_bt,2022.2.4,Win32,351.4938489,Chrome,1536,864,,,,,10,634,,,,,,,,,,,,,,,,,F,174,circle,1,0,,,,,,,,,,,,,,,,switch,letter,lettSwt,d,0.5396,Lo,,,,,,0,,,,,,,,low,17,0,17,0,1,,,,,,,,,
295756,2022-12-05_17h05.01.360,vts_reward_expectancy_bt,2022.2.4,Win32,351.4938489,Chrome,1536,864,,,,,1,635,,,,,,,,,,,,,,,,,H,125,hexagon,1,0,,,,,,,,,,,,,,,,switch,number,numSwt,j,1.1778,Lo,,,,,,0,,,,,,,,low,18,0,18,0,1,,,,,,,,,
295756,2022-12-05_17h05.01.360,vts_reward_expectancy_bt,2022.2.4,Win32,351.4938489,Chrome,1536,864,,,,,10,645,,,,,,,,,,,,,,,,,B,160,star,1,0,,,,,,,,,,,,,,,,switch,letter,lettSwt,d,0.6302,Hi,,,,,,0,,,,,,,,low,19,0,19,0,1,,,,,,,,,
295756,2022-12-05_17h05.01.360,vts_reward_expectancy_bt,2022.2.4,Win32,351.4938489,Chrome,1536,864,,,,,1,646,,,,,,,,,,,,,,,,,D,167,circle,1,0,,,,,,,,,,,,,,,,repeat,letter,lettRpt,d,1.2968,Lo,,,,,,0,,,,,,,,low,20,0,20,0,1,,,,,,,,,
295756,2022-12-05_17h05.01.360,vts_reward_expectancy_bt,2022.2.4,Win32,351.4938489,Chrome,1536,864,,,,,10,656,,,,,,,,,,,,,,,,,U,132,triangle,1,0,,,,,,,,,,,,,,,,repeat,letter,lettRpt,f,0.7691,Hi,,,,,,0,,,,,,,,low,21,0,21,0,1,,,,,,,,,
295756,2022-12-05_17h05.01.360,vts_reward_expectancy_bt,2022.2.4,Win32,351.4938489,Chrome,1536,864,,,,,1,657,,,,,,,,,,,,,,,,,Y,181,star,1,0,,,,,,,,,,,,,,,,repeat,letter,lettRpt,f,0.7772,Hi,,,,,,0,,,,,,,,low,22,0,22,0,1,,,,,,,,,
295756,2022-12-05_17h05.01.360,vts_reward_expectancy_bt,2022.2.4,Win32,351.4938489,Chrome,1536,864,,,,,1,658,,,,,,,,,,,,,,,,,S,146,hexagon,1,0,,,,,,,,,,,,,,,,repeat,letter,lettRpt,f,0.6859,Lo,,,,,,0,,,,,,,,low,23,0,23,0,1,,,,,,,,,
295756,2022-12-05_17h05.01.360,vts_reward_expectancy_bt,2022.2.4,Win32,351.4938489,Chrome,1536,864,,,,,1,659,,,,,,,,,,,,,,,,,S,167,hexagon,1,0,,,,,,,,,,,,,,,,switch,number,numSwt,k,0.4699,Lo,,,,,,0,,,,,,,,low,24,0,24,0,1,,,,,,,,,
295756,2022-12-05_17h05.01.360,vts_reward_expectancy_bt,2022.2.4,Win32,351.4938489,Chrome,1536,864,,,,,0,659,,,,,,,,,,,,,,,,,F,160,star,1,0,,,,,,,,,,,,,,,,repeat,number,numRpt,k,1.4279,Hi,,,,,,0,,,,,,,,low,25,0,25,0,1,,,,,,,,,
295756,2022-12-05_17h05.01.360,vts_reward_expectancy_bt,2022.2.4,Win32,351.4938489,Chrome,1536,864,,,,,0,659,,,,,,,,,,,,,,,,,U,146,circle,0,0,,,,,,,,,,,,,,,,switch,letter,NA,d,0.8464,Hi,,,,,,0,,,,,,,,low,26,0,26,0,1,,,,,,,,,
295756,2022-12-05_17h05.01.360,vts_reward_expectancy_bt,2022.2.4,Win32,351.4938489,Chrome,1536,864,,,,,10,669,,,,,,,,,,,,,,,,,D,174,triangle,1,1,,,,,,,,,,,,,,,,repeat,letter,lettRpt,d,0.7163,Hi,,,,,,0,,,,,,,,low,27,0,27,0,1,,,,,,,,,
295756,2022-12-05_17h05.01.360,vts_reward_expectancy_bt,2022.2.4,Win32,351.4938489,Chrome,1536,864,,,,,1,670,,,,,,,,,,,,,,,,,B,139,star,1,0,,,,,,,,,,,,,,,,repeat,letter,lettRpt,d,0.5048,Hi,,,,,,0,,,,,,,,low,28,0,28,0,1,,,,,,,,,
295756,2022-12-05_17h05.01.360,vts_reward_expectancy_bt,2022.2.4,Win32,351.4938489,Chrome,1536,864,,,,,1,671,,,,,,,,,,,,,,,,,H,125,hexagon,1,0,,,,,,,,,,,,,,,,repeat,letter,lettRpt,d,0.9169,Lo,,,,,,0,,,,,,,,low,29,0,29,0,1,,,,,,,,,
295756,2022-12-05_17h05.01.360,vts_reward_expectancy_bt,2022.2.4,Win32,351.4938489,Chrome,1536,864,,,,,1,672,,,,,,,,,,,,,,,,,W,132,circle,1,0,,,,,,,,,,,,,,,,repeat,letter,lettRpt,f,0.7722,Lo,,,,,,0,,,,,,,,low,30,0,30,0,1,,,,,,,,,
295756,2022-12-05_17h05.01.360,vts_reward_expectancy_bt,2022.2.4,Win32,351.4938489,Chrome,1536,864,,,,,10,682,,,,,,,,,,,,,,,,,Y,181,triangle,1,0,,,,,,,,,,,,,,,,repeat,letter,lettRpt,f,0.6829,Hi,,,,,,0,,,,,,,,low,31,0,31,0,1,,,,,,,,,
295756,2022-12-05_17h05.01.360,vts_reward_expectancy_bt,2022.2.4,Win32,351.4938489,Chrome,1536,864,,,,,0,682,,,,,,,,,,,,,,,,,H,174,triangle,1,0,,,,,,,,,,,,,,,,repeat,letter,lettRpt,d,1.089,Hi,,,,,,1,,,,,,space,2.2582,low,0,0,0,0,1,,,,,,,,,
295756,2022-12-05_17h05.01.360,vts_reward_expectancy_bt,2022.2.4,Win32,351.4938489,Chrome,1536,864,,,,,0,682,,,,,,,,,,,,,,,,,W,125,star,1,0,,,,,,,,,,,,,,,,repeat,letter,lettRpt,f,0.83,Hi,,,,,,1,,,,,,,,low,1,0,1,0,1,,,,,,,,,
295756,2022-12-05_17h05.01.360,vts_reward_expectancy_bt,2022.2.4,Win32,351.4938489,Chrome,1536,864,,,,,1,683,,,,,,,,,,,,,,,,,Y,139,hexagon,1,0,,,,,,,,,,,,,,,,repeat,letter,lettRpt,f,0.802,Lo,,,,,,1,,,,,,,,low,2,0,2,0,1,,,,,,,,,
295756,2022-12-05_17h05.01.360,vts_reward_expectancy_bt,2022.2.4,Win32,351.4938489,Chrome,1536,864,,,,,10,693,,,,,,,,,,,,,,,,,U,167,circle,1,0,,,,,,,,,,,,,,,,switch,number,numSwt,k,0.9372,Lo,,,,,,1,,,,,,,,low,3,0,3,0,1,,,,,,,,,
295756,2022-12-05_17h05.01.360,vts_reward_expectancy_bt,2022.2.4,Win32,351.4938489,Chrome,1536,864,,,,,0,693,,,,,,,,,,,,,,,,,F,146,triangle,1,0,,,,,,,,,,,,,,,,repeat,number,numRpt,j,0.9508,Hi,,,,,,1,,,,,,,,low,4,0,4,0,1,,,,,,,,,
295756,2022-12-05_17h05.01.360,vts_reward_expectancy_bt,2022.2.4,Win32,351.4938489,Chrome,1536,864,,,,,0,693,,,,,,,,,,,,,,,,,S,132,star,1,0,,,,,,,,,,,,,,,,repeat,number,numRpt,j,0.7386,Hi,,,,,,1,,,,,,,,low,5,0,5,0,1,,,,,,,,,
295756,2022-12-05_17h05.01.360,vts_reward_expectancy_bt,2022.2.4,Win32,351.4938489,Chrome,1536,864,,,,,0,693,,,,,,,,,,,,,,,,,B,160,hexagon,0,0,,,,,,,,,,,,,,,,switch,letter,NA,f,0.0049,Hi,,,,,,1,,,,,,,,low,6,0,6,0,1,,,,,,,,,
295756,2022-12-05_17h05.01.360,vts_reward_expectancy_bt,2022.2.4,Win32,351.4938489,Chrome,1536,864,,,,,0,693,,,,,,,,,,,,,,,,,D,181,circle,0,1,,,,,,,,,,,,,,,,repeat,letter,NA,f,0.0299,Hi,,,,,,1,,,,,,,,low,7,0,7,0,1,,,,,,,,,
295756,2022-12-05_17h05.01.360,vts_reward_expectancy_bt,2022.2.4,Win32,351.4938489,Chrome,1536,864,,,,,1,694,,,,,,,,,,,,,,,,,H,174,hexagon,1,1,,,,,,,,,,,,,,,,repeat,letter,lettRpt,d,0.0418,Lo,,,,,,1,,,,,,,,low,8,0,8,0,1,,,,,,,,,
295756,2022-12-05_17h05.01.360,vts_reward_expectancy_bt,2022.2.4,Win32,351.4938489,Chrome,1536,864,,,,,1,695,,,,,,,,,,,,,,,,,W,125,star,1,0,,,,,,,,,,,,,,,,repeat,letter,lettRpt,f,0.5897,Hi,,,,,,1,,,,,,,,low,9,0,9,0,1,,,,,,,,,
295756,2022-12-05_17h05.01.360,vts_reward_expectancy_bt,2022.2.4,Win32,351.4938489,Chrome,1536,864,,,,,10,705,,,,,,,,,,,,,,,,,Y,139,circle,1,0,,,,,,,,,,,,,,,,repeat,letter,lettRpt,f,0.599,Lo,,,,,,1,,,,,,,,low,10,0,10,0,1,,,,,,,,,
295756,2022-12-05_17h05.01.360,vts_reward_expectancy_bt,2022.2.4,Win32,351.4938489,Chrome,1536,864,,,,,0,705,,,,,,,,,,,,,,,,,U,167,triangle,1,0,,,,,,,,,,,,,,,,switch,number,numSwt,k,2.0112,Hi,,,,,,1,,,,,,,,low,11,0,11,0,1,,,,,,,,,
295756,2022-12-05_17h05.01.360,vts_reward_expectancy_bt,2022.2.4,Win32,351.4938489,Chrome,1536,864,,,,,10,715,,,,,,,,,,,,,,,,,F,146,hexagon,1,0,,,,,,,,,,,,,,,,repeat,number,numRpt,j,1.2392,Lo,,,,,,1,,,,,,,,low,12,0,12,0,1,,,,,,,,,
295756,2022-12-05_17h05.01.360,vts_reward_expectancy_bt,2022.2.4,Win32,351.4938489,Chrome,1536,864,,,,,10,725,,,,,,,,,,,,,,,,,S,132,circle,1,0,,,,,,,,,,,,,,,,repeat,number,numRpt,j,0.6868,Lo,,,,,,1,,,,,,,,low,13,0,13,0,1,,,,,,,,,
295756,2022-12-05_17h05.01.360,vts_reward_expectancy_bt,2022.2.4,Win32,351.4938489,Chrome,1536,864,,,,,0,725,,,,,,,,,,,,,,,,,B,160,triangle,1,0,,,,,,,,,,,,,,,,switch,letter,lettSwt,d,0.889,Hi,,,,,,1,,,,,,,,low,14,0,14,0,1,,,,,,,,,
295756,2022-12-05_17h05.01.360,vts_reward_expectancy_bt,2022.2.4,Win32,351.4938489,Chrome,1536,864,,,,,0,725,,,,,,,,,,,,,,,,,D,181,star,1,0,,,,,,,,,,,,,,,,repeat,letter,lettRpt,d,0.7163,Hi,,,,,,1,,,,,,,,low,15,0,15,0,1,,,,,,,,,
295756,2022-12-05_17h05.01.360,vts_reward_expectancy_bt,2022.2.4,Win32,351.4938489,Chrome,1536,864,,,,,0,725,,,,,,,,,,,,,,,,,F,125,triangle,0,0,,,,,,,,,,,,,,,,repeat,letter,NA,f,0.0915,Hi,,,,,,1,,,,,,,,low,16,0,16,0,1,,,,,,,,,
295756,2022-12-05_17h05.01.360,vts_reward_expectancy_bt,2022.2.4,Win32,351.4938489,Chrome,1536,864,,,,,1,726,,,,,,,,,,,,,,,,,U,139,circle,1,1,,,,,,,,,,,,,,,,repeat,letter,lettRpt,f,0.0974,Lo,,,,,,1,,,,,,,,low,17,0,17,0,1,,,,,,,,,
295756,2022-12-05_17h05.01.360,vts_reward_expectancy_bt,2022.2.4,Win32,351.4938489,Chrome,1536,864,,,,,0,726,,,,,,,,,,,,,,,,,Y,181,star,0,0,,,,,,,,,,,,,,,,repeat,letter,NA,d,0.0679,Lo,,,,,,1,,,,,,,,low,18,0,18,0,1,,,,,,,,,
295756,2022-12-05_17h05.01.360,vts_reward_expectancy_bt,2022.2.4,Win32,351.4938489,Chrome,1536,864,,,,,0,726,,,,,,,,,,,,,,,,,S,160,hexagon,0,1,,,,,,,,,,,,,,,,repeat,letter,NA,d,0.8468,Lo,,,,,,1,,,,,,,,low,19,0,19,0,1,,,,,,,,,
295756,2022-12-05_17h05.01.360,vts_reward_expectancy_bt,2022.2.4,Win32,351.4938489,Chrome,1536,864,,,,,0,726,,,,,,,,,,,,,,,,,B,146,triangle,1,1,,,,,,,,,,,,,,,,repeat,letter,lettRpt,d,0.8497,Hi,,,,,,1,,,,,,,,low,20,0,20,0,1,,,,,,,,,
295756,2022-12-05_17h05.01.360,vts_reward_expectancy_bt,2022.2.4,Win32,351.4938489,Chrome,1536,864,,,,,0,726,,,,,,,,,,,,,,,,,W,174,circle,0,0,,,,,,,,,,,,,,,,repeat,letter,NA,d,0.6494,Hi,,,,,,1,,,,,,,,low,21,0,21,0,1,,,,,,,,,
295756,2022-12-05_17h05.01.360,vts_reward_expectancy_bt,2022.2.4,Win32,351.4938489,Chrome,1536,864,,,,,0,726,,,,,,,,,,,,,,,,,H,132,hexagon,0,1,,,,,,,,,,,,,,,,repeat,letter,NA,f,0.8308,Hi,,,,,,1,,,,,,,,low,22,0,22,0,1,,,,,,,,,
295756,2022-12-05_17h05.01.360,vts_reward_expectancy_bt,2022.2.4,Win32,351.4938489,Chrome,1536,864,,,,,0,726,,,,,,,,,,,,,,,,,D,167,star,1,1,,,,,,,,,,,,,,,,switch,number,numSwt,k,0.6521,Hi,,,,,,1,,,,,,,,low,23,0,23,0,1,,,,,,,,,
295756,2022-12-05_17h05.01.360,vts_reward_expectancy_bt,2022.2.4,Win32,351.4938489,Chrome,1536,864,,,,,1,727,,,,,,,,,,,,,,,,,B,174,circle,1,0,,,,,,,,,,,,,,,,switch,letter,lettSwt,d,0.4516,Lo,,,,,,1,,,,,,,,low,24,0,24,0,1,,,,,,,,,
295756,2022-12-05_17h05.01.360,vts_reward_expectancy_bt,2022.2.4,Win32,351.4938489,Chrome,1536,864,,,,,10,737,,,,,,,,,,,,,,,,,W,146,star,1,0,,,,,,,,,,,,,,,,repeat,letter,lettRpt,f,0.5362,Hi,,,,,,1,,,,,,,,low,25,0,25,0,1,,,,,,,,,
295756,2022-12-05_17h05.01.360,vts_reward_expectancy_bt,2022.2.4,Win32,351.4938489,Chrome,1536,864,,,,,10,747,,,,,,,,,,,,,,,,,U,132,triangle,1,0,,,,,,,,,,,,,,,,switch,number,numSwt,j,0.6246,Hi,,,,,,1,,,,,,,,low,26,0,26,0,1,,,,,,,,,
295756,2022-12-05_17h05.01.360,vts_reward_expectancy_bt,2022.2.4,Win32,351.4938489,Chrome,1536,864,,,,,1,748,,,,,,,,,,,,,,,,,Y,181,hexagon,1,0,,,,,,,,,,,,,,,,repeat,number,numRpt,k,0.6493,Lo,,,,,,1,,,,,,,,low,27,0,27,0,1,,,,,,,,,
295756,2022-12-05_17h05.01.360,vts_reward_expectancy_bt,2022.2.4,Win32,351.4938489,Chrome,1536,864,,,,,10,758,,,,,,,,,,,,,,,,,D,139,triangle,1,0,,,,,,,,,,,,,,,,switch,letter,lettSwt,d,0.5106,Hi,,,,,,1,,,,,,,,low,28,0,28,0,1,,,,,,,,,
295756,2022-12-05_17h05.01.360,vts_reward_expectancy_bt,2022.2.4,Win32,351.4938489,Chrome,1536,864,,,,,10,768,,,,,,,,,,,,,,,,,H,167,hexagon,1,0,,,,,,,,,,,,,,,,switch,number,numSwt,k,0.7188,Lo,,,,,,1,,,,,,,,low,29,0,29,0,1,,,,,,,,,
295756,2022-12-05_17h05.01.360,vts_reward_expectancy_bt,2022.2.4,Win32,351.4938489,Chrome,1536,864,,,,,0,768,,,,,,,,,,,,,,,,,S,160,star,1,0,,,,,,,,,,,,,,,,switch,letter,lettSwt,f,0.6185,Hi,,,,,,1,,,,,,,,low,30,0,30,0,1,,,,,,,,,
295756,2022-12-05_17h05.01.360,vts_reward_expectancy_bt,2022.2.4,Win32,351.4938489,Chrome,1536,864,,,,,1,769,,,,,,,,,,,,,,,,,F,125,circle,1,0,,,,,,,,,,,,,,,,repeat,letter,lettRpt,d,0.8079,Lo,,,,,,1,,,,,,,,low,31,0,31,0,1,,,,,,,,,
295756,2022-12-05_17h05.01.360,vts_reward_expectancy_bt,2022.2.4,Win32,351.4938489,Chrome,1536,864,,,,,0,769,,,,,,,,,,,,,,,,,U,132,star,1,0,,,,,,,,,,,,,,,,switch,number,numSwt,j,0.6845,Hi,,,,,,2,,,,,,space,0.9872,low,0,0,0,0,1,,,,,,,,,
295756,2022-12-05_17h05.01.360,vts_reward_expectancy_bt,2022.2.4,Win32,351.4938489,Chrome,1536,864,,,,,1,770,,,,,,,,,,,,,,,,,W,139,hexagon,1,0,,,,,,,,,,,,,,,,repeat,number,numRpt,j,0.7764,Lo,,,,,,2,,,,,,,,low,1,0,1,0,1,,,,,,,,,
295756,2022-12-05_17h05.01.360,vts_reward_expectancy_bt,2022.2.4,Win32,351.4938489,Chrome,1536,864,,,,,10,780,,,,,,,,,,,,,,,,,F,181,circle,1,0,,,,,,,,,,,,,,,,repeat,number,numRpt,k,0.6961,Lo,,,,,,2,,,,,,,,low,2,0,2,0,1,,,,,,,,,
295756,2022-12-05_17h05.01.360,vts_reward_expectancy_bt,2022.2.4,Win32,351.4938489,Chrome,1536,864,,,,,10,790,,,,,,,,,,,,,,,,,D,146,triangle,1,0,,,,,,,,,,,,,,,,repeat,number,numRpt,j,0.6486,Hi,,,,,,2,,,,,,,,low,3,0,3,0,1,,,,,,,,,
295756,2022-12-05_17h05.01.360,vts_reward_expectancy_bt,2022.2.4,Win32,351.4938489,Chrome,1536,864,,,,,1,791,,,,,,,,,,,,,,,,,S,174,star,1,0,,,,,,,,,,,,,,,,switch,letter,lettSwt,f,0.4346,Hi,,,,,,2,,,,,,,,low,4,0,4,0,1,,,,,,,,,
295756,2022-12-05_17h05.01.360,vts_reward_expectancy_bt,2022.2.4,Win32,351.4938489,Chrome,1536,864,,,,,1,792,,,,,,,,,,,,,,,,,H,160,hexagon,1,0,,,,,,,,,,,,,,,,repeat,letter,lettRpt,d,0.5722,Lo,,,,,,2,,,,,,,,low,5,0,5,0,1,,,,,,,,,
295756,2022-12-05_17h05.01.360,vts_reward_expectancy_bt,2022.2.4,Win32,351.4938489,Chrome,1536,864,,,,,1,793,,,,,,,,,,,,,,,,,Y,167,circle,1,0,,,,,,,,,,,,,,,,repeat,letter,lettRpt,f,0.5289,Lo,,,,,,2,,,,,,,,low,6,0,6,0,1,,,,,,,,,
295756,2022-12-05_17h05.01.360,vts_reward_expectancy_bt,2022.2.4,Win32,351.4938489,Chrome,1536,864,,,,,1,794,,,,,,,,,,,,,,,,,B,125,triangle,1,0,,,,,,,,,,,,,,,,repeat,letter,lettRpt,d,0.5176,Hi,,,,,,2,,,,,,,,low,7,0,7,0,1,,,,,,,,,
295756,2022-12-05_17h05.01.360,vts_reward_expectancy_bt,2022.2.4,Win32,351.4938489,Chrome,1536,864,,,,,10,804,,,,,,,,,,,,,,,,,U,132,circle,1,0,,,,,,,,,,,,,,,,switch,number,numSwt,j,0.5564,Lo,,,,,,2,,,,,,,,low,8,0,8,0,1,,,,,,,,,
295756,2022-12-05_17h05.01.360,vts_reward_expectancy_bt,2022.2.4,Win32,351.4938489,Chrome,1536,864,,,,,0,804,,,,,,,,,,,,,,,,,W,139,star,1,0,,,,,,,,,,,,,,,,switch,letter,lettSwt,f,0.6835,Hi,,,,,,2,,,,,,,,low,9,0,9,0,1,,,,,,,,,
295756,2022-12-05_17h05.01.360,vts_reward_expectancy_bt,2022.2.4,Win32,351.4938489,Chrome,1536,864,,,,,0,804,,,,,,,,,,,,,,,,,F,181,triangle,1,0,,,,,,,,,,,,,,,,switch,number,numSwt,k,0.9133,Hi,,,,,,2,,,,,,,,low,10,0,10,0,1,,,,,,,,,
295756,2022-12-05_17h05.01.360,vts_reward_expectancy_bt,2022.2.4,Win32,351.4938489,Chrome,1536,864,,,,,1,805,,,,,,,,,,,,,,,,,D,146,hexagon,1,0,,,,,,,,,,,,,,,,switch,letter,lettSwt,d,0.5026,Lo,,,,,,2,,,,,,,,low,11,0,11,0,1,,,,,,,,,
295756,2022-12-05_17h05.01.360,vts_reward_expectancy_bt,2022.2.4,Win32,351.4938489,Chrome,1536,864,,,,,1,806,,,,,,,,,,,,,,,,,S,174,circle,1,0,,,,,,,,,,,,,,,,switch,number,numSwt,k,0.5059,Lo,,,,,,2,,,,,,,,low,12,0,12,0,1,,,,,,,,,
295756,2022-12-05_17h05.01.360,vts_reward_expectancy_bt,2022.2.4,Win32,351.4938489,Chrome,1536,864,,,,,1,807,,,,,,,,,,,,,,,,,H,160,hexagon,1,0,,,,,,,,,,,,,,,,repeat,number,numRpt,k,0.6271,Lo,,,,,,2,,,,,,,,low,13,0,13,0,1,,,,,,,,,
295756,2022-12-05_17h05.01.360,vts_reward_expectancy_bt,2022.2.4,Win32,351.4938489,Chrome,1536,864,,,,,10,817,,,,,,,,,,,,,,,,,Y,167,star,1,0,,,,,,,,,,,,,,,,repeat,number,numRpt,k,0.6502,Hi,,,,,,2,,,,,,,,low,14,0,14,0,1,,,,,,,,,
295756,2022-12-05_17h05.01.360,vts_reward_expectancy_bt,2022.2.4,Win32,351.4938489,Chrome,1536,864,,,,,1,818,,,,,,,,,,,,,,,,,B,125,triangle,1,0,,,,,,,,,,,,,,,,repeat,number,numRpt,j,0.597,Hi,,,,,,2,,,,,,,,low,15,0,15,0,1,,,,,,,,,
295756,2022-12-05_17h05.01.360,vts_reward_expectancy_bt,2022.2.4,Win32,351.4938489,Chrome,1536,864,,,,,0,818,,,,,,,,,,,,,,,,,H,167,triangle,1,0,,,,,,,,,,,,,,,,switch,letter,lettSwt,d,0.676,Hi,,,,,,2,,,,,,,,low,16,0,16,0,1,,,,,,,,,
295756,2022-12-05_17h05.01.360,vts_reward_expectancy_bt,2022.2.4,Win32,351.4938489,Chrome,1536,864,,,,,10,828,,,,,,,,,,,,,,,,,Y,160,circle,1,0,,,,,,,,,,,,,,,,repeat,letter,lettRpt,f,0.6317,Lo,,,,,,2,,,,,,,,low,17,0,17,0,1,,,,,,,,,
295756,2022-12-05_17h05.01.360,vts_reward_expectancy_bt,2022.2.4,Win32,351.4938489,Chrome,1536,864,,,,,10,838,,,,,,,,,,,,,,,,,S,181,star,1,0,,,,,,,,,,,,,,,,switch,number,numSwt,k,0.6526,Hi,,,,,,2,,,,,,,,low,18,0,18,0,1,,,,,,,,,
295756,2022-12-05_17h05.01.360,vts_reward_expectancy_bt,2022.2.4,Win32,351.4938489,Chrome,1536,864,,,,,10,848,,,,,,,,,,,,,,,,,D,132,hexagon,1,0,,,,,,,,,,,,,,,,switch,letter,lettSwt,d,0.8563,Lo,,,,,,2,,,,,,,,low,19,0,19,0,1,,,,,,,,,
295756,2022-12-05_17h05.01.360,vts_reward_expectancy_bt,2022.2.4,Win32,351.4938489,Chrome,1536,864,,,,,10,858,,,,,,,,,,,,,,,,,F,146,hexagon,1,0,,,,,,,,,,,,,,,,repeat,letter,lettRpt,d,0.9578,Lo,,,,,,2,,,,,,,,low,20,0,20,0,1,,,,,,,,,
295756,2022-12-05_17h05.01.360,vts_reward_expectancy_bt,2022.2.4,Win32,351.4938489,Chrome,1536,864,,,,,10,868,,,,,,,,,,,,,,,,,W,139,triangle,1,0,,,,,,,,,,,,,,,,switch,number,numSwt,j,0.628,Hi,,,,,,2,,,,,,,,low,21,0,21,0,1,,,,,,,,,
295756,2022-12-05_17h05.01.360,vts_reward_expectancy_bt,2022.2.4,Win32,351.4938489,Chrome,1536,864,,,,,1,869,,,,,,,,,,,,,,,,,B,125,circle,1,0,,,,,,,,,,,,,,,,switch,letter,lettSwt,d,0.697,Lo,,,,,,2,,,,,,,,low,22,0,22,0,1,,,,,,,,,
295756,2022-12-05_17h05.01.360,vts_reward_expectancy_bt,2022.2.4,Win32,351.4938489,Chrome,1536,864,,,,,10,879,,,,,,,,,,,,,,,,,U,174,star,1,0,,,,,,,,,,,,,,,,repeat,letter,lettRpt,f,0.4498,Hi,,,,,,2,,,,,,,,low,23,0,23,0,1,,,,,,,,,
295756,2022-12-05_17h05.01.360,vts_reward_expectancy_bt,2022.2.4,Win32,351.4938489,Chrome,1536,864,,,,,10,889,,,,,,,,,,,,,,,,,Y,167,circle,1,0,,,,,,,,,,,,,,,,switch,number,numSwt,k,1.2001,Lo,,,,,,2,,,,,,,,low,24,0,24,0,1,,,,,,,,,
295756,2022-12-05_17h05.01.360,vts_reward_expectancy_bt,2022.2.4,Win32,351.4938489,Chrome,1536,864,,,,,10,899,,,,,,,,,,,,,,,,,U,174,hexagon,1,0,,,,,,,,,,,,,,,,switch,letter,lettSwt,f,0.7204,Lo,,,,,,2,,,,,,,,low,25,0,25,0,1,,,,,,,,,
295756,2022-12-05_17h05.01.360,vts_reward_expectancy_bt,2022.2.4,Win32,351.4938489,Chrome,1536,864,,,,,0,899,,,,,,,,,,,,,,,,,W,125,triangle,1,0,,,,,,,,,,,,,,,,repeat,letter,lettRpt,f,1.3284,Hi,,,,,,2,,,,,,,,low,26,0,26,0,1,,,,,,,,,
295756,2022-12-05_17h05.01.360,vts_reward_expectancy_bt,2022.2.4,Win32,351.4938489,Chrome,1536,864,,,,,0,899,,,,,,,,,,,,,,,,,D,181,star,1,0,,,,,,,,,,,,,,,,repeat,letter,lettRpt,d,0.5974,Hi,,,,,,2,,,,,,,,low,27,0,27,0,1,,,,,,,,,
295756,2022-12-05_17h05.01.360,vts_reward_expectancy_bt,2022.2.4,Win32,351.4938489,Chrome,1536,864,,,,,1,900,,,,,,,,,,,,,,,,,F,132,circle,1,0,,,,,,,,,,,,,,,,switch,number,numSwt,j,0.6475,Lo,,,,,,2,,,,,,,,low,28,0,28,0,1,,,,,,,,,
295756,2022-12-05_17h05.01.360,vts_reward_expectancy_bt,2022.2.4,Win32,351.4938489,Chrome,1536,864,,,,,0,900,,,,,,,,,,,,,,,,,S,139,star,1,0,,,,,,,,,,,,,,,,switch,letter,lettSwt,f,0.6832,Hi,,,,,,2,,,,,,,,low,29,0,29,0,1,,,,,,,,,
295756,2022-12-05_17h05.01.360,vts_reward_expectancy_bt,2022.2.4,Win32,351.4938489,Chrome,1536,864,,,,,0,900,,,,,,,,,,,,,,,,,H,160,triangle,1,0,,,,,,,,,,,,,,,,repeat,letter,lettRpt,d,0.77,Hi,,,,,,2,,,,,,,,low,30,0,30,0,1,,,,,,,,,
295756,2022-12-05_17h05.01.360,vts_reward_expectancy_bt,2022.2.4,Win32,351.4938489,Chrome,1536,864,,,,,10,910,,,,,,,,,,,,,,,,,B,146,hexagon,1,0,,,,,,,,,,,,,,,,repeat,letter,lettRpt,d,0.5387,Lo,,,,,,2,,,,,,,,low,31,0,31,0,1,,,,,,,,,
295756,2022-12-05_17h05.01.360,vts_reward_expectancy_bt,2022.2.4,Win32,351.4938489,Chrome,1536,864,,,,,0,910,,,,,,,,,,,,,,,,,W,160,circle,0,0,,,,,,,,,,,,,,,,repeat,letter,NA,d,0.2721,Lo,,,,,,3,,,,,,space,1.3735,low,0,0,0,0,1,,,,,,,,,
295756,2022-12-05_17h05.01.360,vts_reward_expectancy_bt,2022.2.4,Win32,351.4938489,Chrome,1536,864,,,,,0,910,,,,,,,,,,,,,,,,,D,181,star,0,1,,,,,,,,,,,,,,,,repeat,letter,NA,f,0.3245,Lo,,,,,,3,,,,,,,,low,1,0,1,0,1,,,,,,,,,
295756,2022-12-05_17h05.01.360,vts_reward_expectancy_bt,2022.2.4,Win32,351.4938489,Chrome,1536,864,,,,,0,910,,,,,,,,,,,,,,,,,H,132,triangle,1,1,,,,,,,,,,,,,,,,repeat,letter,lettRpt,d,0.7032,Hi,,,,,,3,,,,,,,,low,2,0,2,0,1,,,,,,,,,
295756,2022-12-05_17h05.01.360,vts_reward_expectancy_bt,2022.2.4,Win32,351.4938489,Chrome,1536,864,,,,,0,910,,,,,,,,,,,,,,,,,F,167,hexagon,0,0,,,,,,,,,,,,,,,,repeat,letter,NA,f,0.661,Hi,,,,,,3,,,,,,,,low,3,0,3,0,1,,,,,,,,,
295756,2022-12-05_17h05.01.360,vts_reward_expectancy_bt,2022.2.4,Win32,351.4938489,Chrome,1536,864,,,,,0,910,,,,,,,,,,,,,,,,,U,125,circle,0,1,,,,,,,,,,,,,,,,repeat,letter,NA,d,0.5509,Hi,,,,,,3,,,,,,,,low,4,0,4,0,1,,,,,,,,,
295756,2022-12-05_17h05.01.360,vts_reward_expectancy_bt,2022.2.4,Win32,351.4938489,Chrome,1536,864,,,,,0,910,,,,,,,,,,,,,,,,,Y,139,star,0,1,,,,,,,,,,,,,,,,switch,number,NA,k,1.004,Hi,,,,,,3,,,,,,,,low,5,0,5,0,1,,,,,,,,,
295756,2022-12-05_17h05.01.360,vts_reward_expectancy_bt,2022.2.4,Win32,351.4938489,Chrome,1536,864,,,,,10,920,,,,,,,,,,,,,,,,,B,174,triangle,1,1,,,,,,,,,,,,,,,,switch,letter,lettSwt,d,0.6523,Hi,,,,,,3,,,,,,,,low,6,0,6,0,1,,,,,,,,,
295756,2022-12-05_17h05.01.360,vts_reward_expectancy_bt,2022.2.4,Win32,351.4938489,Chrome,1536,864,,,,,1,921,,,,,,,,,,,,,,,,,S,146,hexagon,1,0,,,,,,,,,,,,,,,,switch,number,numSwt,j,1.2214,Lo,,,,,,3,,,,,,,,low,7,0,7,0,1,,,,,,,,,
295756,2022-12-05_17h05.01.360,vts_reward_expectancy_bt,2022.2.4,Win32,351.4938489,Chrome,1536,864,,,,,0,921,,,,,,,,,,,,,,,,,W,160,triangle,1,0,,,,,,,,,,,,,,,,repeat,number,numRpt,k,1.0398,Hi,,,,,,3,,,,,,,,low,8,0,8,0,1,,,,,,,,,
295756,2022-12-05_17h05.01.360,vts_reward_expectancy_bt,2022.2.4,Win32,351.4938489,Chrome,1536,864,,,,,10,931,,,,,,,,,,,,,,,,,D,181,hexagon,1,0,,,,,,,,,,,,,,,,repeat,number,numRpt,k,0.6972,Lo,,,,,,3,,,,,,,,low,9,0,9,0,1,,,,,,,,,
295756,2022-12-05_17h05.01.360,vts_reward_expectancy_bt,2022.2.4,Win32,351.4938489,Chrome,1536,864,,,,,10,941,,,,,,,,,,,,,,,,,H,132,circle,1,0,,,,,,,,,,,,,,,,repeat,number,numRpt,j,0.5947,Lo,,,,,,3,,,,,,,,low,10,0,10,0,1,,,,,,,,,
295756,2022-12-05_17h05.01.360,vts_reward_expectancy_bt,2022.2.4,Win32,351.4938489,Chrome,1536,864,,,,,0,941,,,,,,,,,,,,,,,,,F,167,star,1,0,,,,,,,,,,,,,,,,repeat,number,numRpt,k,1.3262,Hi,,,,,,3,,,,,,,,low,11,0,11,0,1,,,,,,,,,
295756,2022-12-05_17h05.01.360,vts_reward_expectancy_bt,2022.2.4,Win32,351.4938489,Chrome,1536,864,,,,,1,942,,,,,,,,,,,,,,,,,U,125,circle,1,0,,,,,,,,,,,,,,,,switch,letter,lettSwt,f,0.9193,Lo,,,,,,3,,,,,,,,low,12,0,12,0,1,,,,,,,,,
295756,2022-12-05_17h05.01.360,vts_reward_expectancy_bt,2022.2.4,Win32,351.4938489,Chrome,1536,864,,,,,10,952,,,,,,,,,,,,,,,,,Y,139,star,1,0,,,,,,,,,,,,,,,,switch,number,numSwt,j,0.6286,Hi,,,,,,3,,,,,,,,low,13,0,13,0,1,,,,,,,,,
295756,2022-12-05_17h05.01.360,vts_reward_expectancy_bt,2022.2.4,Win32,351.4938489,Chrome,1536,864,,,,,0,952,,,,,,,,,,,,,,,,,B,174,triangle,1,0,,,,,,,,,,,,,,,,switch,letter,lettSwt,d,0.7287,Hi,,,,,,3,,,,,,,,low,14,0,14,0,1,,,,,,,,,
295756,2022-12-05_17h05.01.360,vts_reward_expectancy_bt,2022.2.4,Win32,351.4938489,Chrome,1536,864,,,,,10,962,,,,,,,,,,,,,,,,,S,146,hexagon,1,0,,,,,,,,,,,,,,,,repeat,letter,lettRpt,f,1.1362,Lo,,,,,,3,,,,,,,,low,15,0,15,0,1,,,,,,,,,
295756,2022-12-05_17h05.01.360,vts_reward_expectancy_bt,2022.2.4,Win32,351.4938489,Chrome,1536,864,,,,,0,962,,,,,,,,,,,,,,,,,S,139,triangle,1,0,,,,,,,,,,,,,,,,repeat,letter,lettRpt,f,0.8472,Hi,,,,,,3,,,,,,,,low,16,0,16,0,1,,,,,,,,,
295756,2022-12-05_17h05.01.360,vts_reward_expectancy_bt,2022.2.4,Win32,351.4938489,Chrome,1536,864,,,,,1,963,,,,,,,,,,,,,,,,,W,132,hexagon,1,0,,,,,,,,,,,,,,,,repeat,letter,lettRpt,f,0.5695,Lo,,,,,,3,,,,,,,,low,17,0,17,0,1,,,,,,,,,
295756,2022-12-05_17h05.01.360,vts_reward_expectancy_bt,2022.2.4,Win32,351.4938489,Chrome,1536,864,,,,,0,963,,,,,,,,,,,,,,,,,U,181,star,1,0,,,,,,,,,,,,,,,,switch,number,numSwt,k,1.0348,Hi,,,,,,3,,,,,,,,low,18,0,18,0,1,,,,,,,,,
295756,2022-12-05_17h05.01.360,vts_reward_expectancy_bt,2022.2.4,Win32,351.4938489,Chrome,1536,864,,,,,0,963,,,,,,,,,,,,,,,,,Y,125,circle,-1,0,,,,,,,,,,,,,,,,switch,no_choice,NA,,,Hi,,,,,,3,,,,,,,,low,19,0,19,0,1,,,,,,,,,
295756,2022-12-05_17h05.01.360,vts_reward_expectancy_bt,2022.2.4,Win32,351.4938489,Chrome,1536,864,,,,,0,963,,,,,,,,,,,,,,,,,H,167,star,-1,0,,,,,,,,,,,,,,,,repeat,no_choice,NA,,,Hi,,,,,,3,,,,,,,,low,20,0,20,0,1,,,,,,,,,
295756,2022-12-05_17h05.01.360,vts_reward_expectancy_bt,2022.2.4,Win32,351.4938489,Chrome,1536,864,,,,,0,963,,,,,,,,,,,,,,,,,D,160,hexagon,-1,0,,,,,,,,,,,,,,,,repeat,no_choice,NA,,,Hi,,,,,,3,,,,,,,,low,21,0,21,0,1,,,,,,,,,
295756,2022-12-05_17h05.01.360,vts_reward_expectancy_bt,2022.2.4,Win32,351.4938489,Chrome,1536,864,,,,,0,963,,,,,,,,,,,,,,,,,B,174,triangle,-1,0,,,,,,,,,,,,,,,,repeat,no_choice,NA,,,Hi,,,,,,3,,,,,,,,low,22,0,22,0,1,,,,,,,,,
295756,2022-12-05_17h05.01.360,vts_reward_expectancy_bt,2022.2.4,Win32,351.4938489,Chrome,1536,864,,,,,0,963,,,,,,,,,,,,,,,,,F,146,circle,-1,0,,,,,,,,,,,,,,,,repeat,no_choice,NA,,,Hi,,,,,,3,,,,,,,,low,23,0,23,0,1,,,,,,,,,
295756,2022-12-05_17h05.01.360,vts_reward_expectancy_bt,2022.2.4,Win32,351.4938489,Chrome,1536,864,,,,,0,963,,,,,,,,,,,,,,,,,W,146,star,0,0,,,,,,,,,,,,,,,,switch,letter,NA,d,1.966,Hi,,,,,,3,,,,,,,,low,24,0,24,0,1,,,,,,,,,
295756,2022-12-05_17h05.01.360,vts_reward_expectancy_bt,2022.2.4,Win32,351.4938489,Chrome,1536,864,,,,,1,964,,,,,,,,,,,,,,,,,B,181,circle,1,1,,,,,,,,,,,,,,,,repeat,letter,lettRpt,d,0.0927,Lo,,,,,,3,,,,,,,,low,25,0,25,0,1,,,,,,,,,
295756,2022-12-05_17h05.01.360,vts_reward_expectancy_bt,2022.2.4,Win32,351.4938489,Chrome,1536,864,,,,,0,964,,,,,,,,,,,,,,,,,D,167,hexagon,0,0,,,,,,,,,,,,,,,,repeat,letter,NA,f,0.0586,Lo,,,,,,3,,,,,,,,low,26,0,26,0,1,,,,,,,,,
295756,2022-12-05_17h05.01.360,vts_reward_expectancy_bt,2022.2.4,Win32,351.4938489,Chrome,1536,864,,,,,10,974,,,,,,,,,,,,,,,,,Y,160,triangle,1,1,,,,,,,,,,,,,,,,switch,number,numSwt,k,0.2446,Hi,,,,,,3,,,,,,,,low,27,0,27,0,1,,,,,,,,,
295756,2022-12-05_17h05.01.360,vts_reward_expectancy_bt,2022.2.4,Win32,351.4938489,Chrome,1536,864,,,,,0,974,,,,,,,,,,,,,,,,,F,125,star,0,0,,,,,,,,,,,,,,,,switch,letter,NA,f,1E-04,Hi,,,,,,3,,,,,,,,low,28,0,28,0,1,,,,,,,,,
295756,2022-12-05_17h05.01.360,vts_reward_expectancy_bt,2022.2.4,Win32,351.4938489,Chrome,1536,864,,,,,1,975,,,,,,,,,,,,,,,,,S,139,hexagon,1,1,,,,,,,,,,,,,,,,repeat,letter,lettRpt,f,0.0895,Lo,,,,,,3,,,,,,,,low,29,0,29,0,1,,,,,,,,,
295756,2022-12-05_17h05.01.360,vts_reward_expectancy_bt,2022.2.4,Win32,351.4938489,Chrome,1536,864,,,,,0,975,,,,,,,,,,,,,,,,,U,132,circle,0,0,,,,,,,,,,,,,,,,switch,number,NA,k,0.1239,Lo,,,,,,3,,,,,,,,low,30,0,30,0,1,,,,,,,,,
295756,2022-12-05_17h05.01.360,vts_reward_expectancy_bt,2022.2.4,Win32,351.4938489,Chrome,1536,864,,,,,0,975,,,,,,,,,,,,,,,,,H,174,triangle,0,1,,,,,,,,,,,,,,,,repeat,number,NA,j,0.4667,Lo,,,,,,3,,,,,,,,low,31,0,31,0,1,,,,,,,,,
295756,2022-12-05_17h05.01.360,vts_reward_expectancy_bt,2022.2.4,Win32,351.4938489,Chrome,1536,864,,,,,10,985,,,,,,,,,,,,,,,,,F,146,circle,1,1,,,,,,,,,,,,,,,,repeat,number,numRpt,j,0.0883,Lo,,,,,,4,,,,,,space,0.7601,low,0,0,0,0,1,,,,,,,,,
295756,2022-12-05_17h05.01.360,vts_reward_expectancy_bt,2022.2.4,Win32,351.4938489,Chrome,1536,864,,,,,0,985,,,,,,,,,,,,,,,,,Y,160,triangle,0,0,,,,,,,,,,,,,,,,repeat,number,NA,j,0.1495,Lo,,,,,,4,,,,,,,,low,1,0,1,0,1,,,,,,,,,
295756,2022-12-05_17h05.01.360,vts_reward_expectancy_bt,2022.2.4,Win32,351.4938489,Chrome,1536,864,,,,,0,985,,,,,,,,,,,,,,,,,H,125,star,0,1,,,,,,,,,,,,,,,,switch,letter,NA,f,0.037,Lo,,,,,,4,,,,,,,,low,2,0,2,0,1,,,,,,,,,
295756,2022-12-05_17h05.01.360,vts_reward_expectancy_bt,2022.2.4,Win32,351.4938489,Chrome,1536,864,,,,,1,986,,,,,,,,,,,,,,,,,U,132,hexagon,1,1,,,,,,,,,,,,,,,,repeat,letter,lettRpt,f,0.0895,Lo,,,,,,4,,,,,,,,low,3,0,3,0,1,,,,,,,,,
295756,2022-12-05_17h05.01.360,vts_reward_expectancy_bt,2022.2.4,Win32,351.4938489,Chrome,1536,864,,,,,1,987,,,,,,,,,,,,,,,,,W,174,circle,1,0,,,,,,,,,,,,,,,,repeat,letter,lettRpt,f,0.2146,Lo,,,,,,4,,,,,,,,low,4,0,4,0,1,,,,,,,,,
295756,2022-12-05_17h05.01.360,vts_reward_expectancy_bt,2022.2.4,Win32,351.4938489,Chrome,1536,864,,,,,0,987,,,,,,,,,,,,,,,,,B,139,triangle,0,0,,,,,,,,,,,,,,,,switch,number,NA,k,0.3301,Lo,,,,,,4,,,,,,,,low,5,0,5,0,1,,,,,,,,,
295756,2022-12-05_17h05.01.360,vts_reward_expectancy_bt,2022.2.4,Win32,351.4938489,Chrome,1536,864,,,,,1,988,,,,,,,,,,,,,,,,,S,181,star,1,1,,,,,,,,,,,,,,,,switch,letter,lettSwt,f,0.0913,Hi,,,,,,4,,,,,,,,low,6,0,6,0,1,,,,,,,,,
295756,2022-12-05_17h05.01.360,vts_reward_expectancy_bt,2022.2.4,Win32,351.4938489,Chrome,1536,864,,,,,0,988,,,,,,,,,,,,,,,,,D,167,hexagon,0,0,,,,,,,,,,,,,,,,repeat,letter,NA,f,0.0915,Hi,,,,,,4,,,,,,,,low,7,0,7,0,1,,,,,,,,,
295756,2022-12-05_17h05.01.360,vts_reward_expectancy_bt,2022.2.4,Win32,351.4938489,Chrome,1536,864,,,,,0,988,,,,,,,,,,,,,,,,,F,146,star,0,1,,,,,,,,,,,,,,,,repeat,letter,NA,f,0.0391,Hi,,,,,,4,,,,,,,,low,8,0,8,0,1,,,,,,,,,
