participant,date,expName,psychopyVersion,OS,frameRate,browser,xResolution,yResolution,key_resp.keys,key_resp.rt,training_resp.keys,training_resp.rt,points_trial,points_cumul,trainBlock,training.thisRepN,training.thisTrialN,training.thisN,training.thisIndex,training.ran,LTriangleOpac,LCircleOpac,LHexagonOpac,LStarOpac,RTriangleOpac,RCircleOpac,RHexagonOpac,RStarOpac,LShape_ID,RShape_ID,curr_topStim,curr_bottStim,curr_shape,acc,E1,target_resp_prac1.keys,target_resp_prac1.rt,pracBlock,task1_prac_trials.thisRepN,task1_prac_trials.thisTrialN,task1_prac_trials.thisN,task1_prac_trials.thisIndex,task1_prac_trials.ran,target_resp_prac2.keys,task2_praac_trials.thisRepN,task2_praac_trials.thisTrialN,task2_praac_trials.thisN,task2_praac_trials.thisIndex,task2_praac_trials.ran,target_resp_prac2.rt,alt,task,condition,target_resp.keys,rewCond,vts_practice_trials.thisRepN,vts_practice_trials.thisTrialN,vts_practice_trials.thisN,vts_practice_trials.thisIndex,vts_practice_trials.ran,target_resp.rt,blockNum,trials_norew.thisRepN,trials_norew.thisTrialN,trials_norew.thisN,trials_norew.thisIndex,trials_norew.ran,key_resp_2.keys,key_resp_2.rt,rewExpectancy,trials_rew.thisRepN,trials_rew.thisTrialN,trials_rew.thisN,trials_rew.thisIndex,trials_rew.ran,Q1,Q2,Q2_text,Q3,Q4,Q5_text,Q5,xRes,yRes
295777,2022-11-14_11h46.25.897,vts_reward_expectancy_bt,2022.2.4,Win32,60.31363088,Chrome,1280,720,,,,,,,,,,,,,,,,,,,,,,,,,,,,,,,,,,,,,,,,,,,,,,,,,,,,,,,,,,,,,,,,,,,,,,,,,,,,
295777,2022-11-14_11h46.25.897,vts_reward_expectancy_bt,2022.2.4,Win32,60.31363088,Chrome,1280,720,space,13.3583,,,,,,,,,,,,,,,,,,,,,,,,,,,,,,,,,,,,,,,,,,,,,,,,,,,,,,,,,,,,,,,,,,,,,,,,,,
295777,2022-11-14_11h46.25.897,vts_reward_expectancy_bt,2022.2.4,Win32,60.31363088,Chrome,1280,720,,,,,,,,,,,,,,,,,,,,,,,,,,,,,,,,,,,,,,,,,,,,,,,,,,,,,,,,,,,,,,,,,,,,,,,,,,,,
295777,2022-11-14_11h46.25.897,vts_reward_expectancy_bt,2022.2.4,Win32,60.31363088,Chrome,1280,720,,,a,1.1339,10,10,0,0,0,0,11,1,0,0,0,1,0,0,1,0,star,hexagon,,,,,,,,,,,,,,,,,,,,,,,,,,,,,,,,,,,,,,,,,,,,,,,,,,,,,,
295777,2022-11-14_11h46.25.897,vts_reward_expectancy_bt,2022.2.4,Win32,60.31363088,Chrome,1280,720,,,a,0.9981,10,20,0,0,1,1,7,1,0,0,1,0,0,1,0,0,hexagon,circle,,,,,,,,,,,,,,,,,,,,,,,,,,,,,,,,,,,,,,,,,,,,,,,,,,,,,,
295777,2022-11-14_11h46.25.897,vts_reward_expectancy_bt,2022.2.4,Win32,60.31363088,Chrome,1280,720,,,a,0.8342,10,30,0,0,2,2,0,1,1,0,0,0,0,1,0,0,triangle,circle,,,,,,,,,,,,,,,,,,,,,,,,,,,,,,,,,,,,,,,,,,,,,,,,,,,,,,
295777,2022-11-14_11h46.25.897,vts_reward_expectancy_bt,2022.2.4,Win32,60.31363088,Chrome,1280,720,,,a,1.0312,1,31,0,0,3,3,6,1,0,0,1,0,1,0,0,0,hexagon,triangle,,,,,,,,,,,,,,,,,,,,,,,,,,,,,,,,,,,,,,,,,,,,,,,,,,,,,,
295777,2022-11-14_11h46.25.897,vts_reward_expectancy_bt,2022.2.4,Win32,60.31363088,Chrome,1280,720,,,a,1.7788,1,32,0,0,4,4,3,1,0,1,0,0,1,0,0,0,circle,triangle,,,,,,,,,,,,,,,,,,,,,,,,,,,,,,,,,,,,,,,,,,,,,,,,,,,,,,
295777,2022-11-14_11h46.25.897,vts_reward_expectancy_bt,2022.2.4,Win32,60.31363088,Chrome,1280,720,,,a,0.8506,1,33,0,0,5,5,9,1,0,0,0,1,1,0,0,0,star,triangle,,,,,,,,,,,,,,,,,,,,,,,,,,,,,,,,,,,,,,,,,,,,,,,,,,,,,,
295777,2022-11-14_11h46.25.897,vts_reward_expectancy_bt,2022.2.4,Win32,60.31363088,Chrome,1280,720,,,a,0.6937,10,43,0,0,6,6,1,1,1,0,0,0,0,0,1,0,triangle,hexagon,,,,,,,,,,,,,,,,,,,,,,,,,,,,,,,,,,,,,,,,,,,,,,,,,,,,,,
295777,2022-11-14_11h46.25.897,vts_reward_expectancy_bt,2022.2.4,Win32,60.31363088,Chrome,1280,720,,,a,0.8133,10,53,0,0,7,7,10,1,0,0,0,1,0,1,0,0,star ,circle,,,,,,,,,,,,,,,,,,,,,,,,,,,,,,,,,,,,,,,,,,,,,,,,,,,,,,
295777,2022-11-14_11h46.25.897,vts_reward_expectancy_bt,2022.2.4,Win32,60.31363088,Chrome,1280,720,,,l,0.8383,10,63,0,0,8,8,5,1,0,1,0,0,0,0,0,1,circle,star,,,,,,,,,,,,,,,,,,,,,,,,,,,,,,,,,,,,,,,,,,,,,,,,,,,,,,
295777,2022-11-14_11h46.25.897,vts_reward_expectancy_bt,2022.2.4,Win32,60.31363088,Chrome,1280,720,,,l,0.9495,1,64,0,0,9,9,4,1,0,1,0,0,0,0,1,0,circle,hexagon,,,,,,,,,,,,,,,,,,,,,,,,,,,,,,,,,,,,,,,,,,,,,,,,,,,,,,
295777,2022-11-14_11h46.25.897,vts_reward_expectancy_bt,2022.2.4,Win32,60.31363088,Chrome,1280,720,,,l,1.8241,10,74,0,0,10,10,8,1,0,0,1,0,0,0,0,1,hexagon,star,,,,,,,,,,,,,,,,,,,,,,,,,,,,,,,,,,,,,,,,,,,,,,,,,,,,,,
295777,2022-11-14_11h46.25.897,vts_reward_expectancy_bt,2022.2.4,Win32,60.31363088,Chrome,1280,720,,,a,0.9938,1,75,0,0,11,11,2,1,1,0,0,0,0,0,0,1,triangle,star,,,,,,,,,,,,,,,,,,,,,,,,,,,,,,,,,,,,,,,,,,,,,,,,,,,,,,
295777,2022-11-14_11h46.25.897,vts_reward_expectancy_bt,2022.2.4,Win32,60.31363088,Chrome,1280,720,,,l,1.0806,10,85,0,1,0,12,3,1,0,1,0,0,1,0,0,0,circle,triangle,,,,,,,,,,,,,,,,,,,,,,,,,,,,,,,,,,,,,,,,,,,,,,,,,,,,,,
295777,2022-11-14_11h46.25.897,vts_reward_expectancy_bt,2022.2.4,Win32,60.31363088,Chrome,1280,720,,,a,1.5501,10,95,0,1,1,13,2,1,1,0,0,0,0,0,0,1,triangle,star,,,,,,,,,,,,,,,,,,,,,,,,,,,,,,,,,,,,,,,,,,,,,,,,,,,,,,
295777,2022-11-14_11h46.25.897,vts_reward_expectancy_bt,2022.2.4,Win32,60.31363088,Chrome,1280,720,,,a,1.0311,1,96,0,1,2,14,4,1,0,1,0,0,0,0,1,0,circle,hexagon,,,,,,,,,,,,,,,,,,,,,,,,,,,,,,,,,,,,,,,,,,,,,,,,,,,,,,
295777,2022-11-14_11h46.25.897,vts_reward_expectancy_bt,2022.2.4,Win32,60.31363088,Chrome,1280,720,,,a,1.0431,10,106,0,1,3,15,1,1,1,0,0,0,0,0,1,0,triangle,hexagon,,,,,,,,,,,,,,,,,,,,,,,,,,,,,,,,,,,,,,,,,,,,,,,,,,,,,,
295777,2022-11-14_11h46.25.897,vts_reward_expectancy_bt,2022.2.4,Win32,60.31363088,Chrome,1280,720,,,l,1.9008,10,116,0,1,4,16,8,1,0,0,1,0,0,0,0,1,hexagon,star,,,,,,,,,,,,,,,,,,,,,,,,,,,,,,,,,,,,,,,,,,,,,,,,,,,,,,
295777,2022-11-14_11h46.25.897,vts_reward_expectancy_bt,2022.2.4,Win32,60.31363088,Chrome,1280,720,,,a,2.846,10,126,0,1,5,17,9,1,0,0,0,1,1,0,0,0,star,triangle,,,,,,,,,,,,,,,,,,,,,,,,,,,,,,,,,,,,,,,,,,,,,,,,,,,,,,
295777,2022-11-14_11h46.25.897,vts_reward_expectancy_bt,2022.2.4,Win32,60.31363088,Chrome,1280,720,,,l,4.4553,10,136,0,1,6,18,5,1,0,1,0,0,0,0,0,1,circle,star,,,,,,,,,,,,,,,,,,,,,,,,,,,,,,,,,,,,,,,,,,,,,,,,,,,,,,
295777,2022-11-14_11h46.25.897,vts_reward_expectancy_bt,2022.2.4,Win32,60.31363088,Chrome,1280,720,,,l,1.1868,1,137,0,1,7,19,7,1,0,0,1,0,0,1,0,0,hexagon,circle,,,,,,,,,,,,,,,,,,,,,,,,,,,,,,,,,,,,,,,,,,,,,,,,,,,,,,
295777,2022-11-14_11h46.25.897,vts_reward_expectancy_bt,2022.2.4,Win32,60.31363088,Chrome,1280,720,,,a,1.0484,10,147,0,1,8,20,11,1,0,0,0,1,0,0,1,0,star,hexagon,,,,,,,,,,,,,,,,,,,,,,,,,,,,,,,,,,,,,,,,,,,,,,,,,,,,,,
295777,2022-11-14_11h46.25.897,vts_reward_expectancy_bt,2022.2.4,Win32,60.31363088,Chrome,1280,720,,,a,2.383,10,157,0,1,9,21,10,1,0,0,0,1,0,1,0,0,star ,circle,,,,,,,,,,,,,,,,,,,,,,,,,,,,,,,,,,,,,,,,,,,,,,,,,,,,,,
295777,2022-11-14_11h46.25.897,vts_reward_expectancy_bt,2022.2.4,Win32,60.31363088,Chrome,1280,720,,,a,1.0992,10,167,0,1,10,22,0,1,1,0,0,0,0,1,0,0,triangle,circle,,,,,,,,,,,,,,,,,,,,,,,,,,,,,,,,,,,,,,,,,,,,,,,,,,,,,,
295777,2022-11-14_11h46.25.897,vts_reward_expectancy_bt,2022.2.4,Win32,60.31363088,Chrome,1280,720,,,l,1.1559,10,177,0,1,11,23,6,1,0,0,1,0,1,0,0,0,hexagon,triangle,,,,,,,,,,,,,,,,,,,,,,,,,,,,,,,,,,,,,,,,,,,,,,,,,,,,,,
295777,2022-11-14_11h46.25.897,vts_reward_expectancy_bt,2022.2.4,Win32,60.31363088,Chrome,1280,720,,,a,3.6968,10,187,0,2,0,24,10,1,0,0,0,1,0,1,0,0,star ,circle,,,,,,,,,,,,,,,,,,,,,,,,,,,,,,,,,,,,,,,,,,,,,,,,,,,,,,
295777,2022-11-14_11h46.25.897,vts_reward_expectancy_bt,2022.2.4,Win32,60.31363088,Chrome,1280,720,,,l,1.0624,10,197,0,2,1,25,8,1,0,0,1,0,0,0,0,1,hexagon,star,,,,,,,,,,,,,,,,,,,,,,,,,,,,,,,,,,,,,,,,,,,,,,,,,,,,,,
295777,2022-11-14_11h46.25.897,vts_reward_expectancy_bt,2022.2.4,Win32,60.31363088,Chrome,1280,720,,,a,1.3447,10,207,0,2,2,26,1,1,1,0,0,0,0,0,1,0,triangle,hexagon,,,,,,,,,,,,,,,,,,,,,,,,,,,,,,,,,,,,,,,,,,,,,,,,,,,,,,
295777,2022-11-14_11h46.25.897,vts_reward_expectancy_bt,2022.2.4,Win32,60.31363088,Chrome,1280,720,,,a,1.2484,1,208,0,2,3,27,4,1,0,1,0,0,0,0,1,0,circle,hexagon,,,,,,,,,,,,,,,,,,,,,,,,,,,,,,,,,,,,,,,,,,,,,,,,,,,,,,
295777,2022-11-14_11h46.25.897,vts_reward_expectancy_bt,2022.2.4,Win32,60.31363088,Chrome,1280,720,,,l,1.6679,10,218,0,2,4,28,3,1,0,1,0,0,1,0,0,0,circle,triangle,,,,,,,,,,,,,,,,,,,,,,,,,,,,,,,,,,,,,,,,,,,,,,,,,,,,,,
295777,2022-11-14_11h46.25.897,vts_reward_expectancy_bt,2022.2.4,Win32,60.31363088,Chrome,1280,720,,,l,1.4786,10,228,0,2,5,29,5,1,0,1,0,0,0,0,0,1,circle,star,,,,,,,,,,,,,,,,,,,,,,,,,,,,,,,,,,,,,,,,,,,,,,,,,,,,,,
295777,2022-11-14_11h46.25.897,vts_reward_expectancy_bt,2022.2.4,Win32,60.31363088,Chrome,1280,720,,,a,2.1575,10,238,0,2,6,30,7,1,0,0,1,0,0,1,0,0,hexagon,circle,,,,,,,,,,,,,,,,,,,,,,,,,,,,,,,,,,,,,,,,,,,,,,,,,,,,,,
295777,2022-11-14_11h46.25.897,vts_reward_expectancy_bt,2022.2.4,Win32,60.31363088,Chrome,1280,720,,,a,1.2575,10,248,0,2,7,31,11,1,0,0,0,1,0,0,1,0,star,hexagon,,,,,,,,,,,,,,,,,,,,,,,,,,,,,,,,,,,,,,,,,,,,,,,,,,,,,,
295777,2022-11-14_11h46.25.897,vts_reward_expectancy_bt,2022.2.4,Win32,60.31363088,Chrome,1280,720,,,a,2.0832,10,258,0,2,8,32,0,1,1,0,0,0,0,1,0,0,triangle,circle,,,,,,,,,,,,,,,,,,,,,,,,,,,,,,,,,,,,,,,,,,,,,,,,,,,,,,
295777,2022-11-14_11h46.25.897,vts_reward_expectancy_bt,2022.2.4,Win32,60.31363088,Chrome,1280,720,,,a,2.1932,1,259,0,2,9,33,6,1,0,0,1,0,1,0,0,0,hexagon,triangle,,,,,,,,,,,,,,,,,,,,,,,,,,,,,,,,,,,,,,,,,,,,,,,,,,,,,,
295777,2022-11-14_11h46.25.897,vts_reward_expectancy_bt,2022.2.4,Win32,60.31363088,Chrome,1280,720,,,l,2.0172,10,269,0,2,10,34,2,1,1,0,0,0,0,0,0,1,triangle,star,,,,,,,,,,,,,,,,,,,,,,,,,,,,,,,,,,,,,,,,,,,,,,,,,,,,,,
295777,2022-11-14_11h46.25.897,vts_reward_expectancy_bt,2022.2.4,Win32,60.31363088,Chrome,1280,720,,,a,1.7479,10,279,0,2,11,35,9,1,0,0,0,1,1,0,0,0,star,triangle,,,,,,,,,,,,,,,,,,,,,,,,,,,,,,,,,,,,,,,,,,,,,,,,,,,,,,
295777,2022-11-14_11h46.25.897,vts_reward_expectancy_bt,2022.2.4,Win32,60.31363088,Chrome,1280,720,,,l,1.9497,10,289,1,0,0,0,6,1,0,0,1,0,1,0,0,0,hexagon,triangle,,,,,,,,,,,,,,,,,,,,,,,,,,,,,,,,,,,,,,,,,,,,,,,,,,,,,,
295777,2022-11-14_11h46.25.897,vts_reward_expectancy_bt,2022.2.4,Win32,60.31363088,Chrome,1280,720,,,a,1.0328,10,299,1,0,1,1,9,1,0,0,0,1,1,0,0,0,star,triangle,,,,,,,,,,,,,,,,,,,,,,,,,,,,,,,,,,,,,,,,,,,,,,,,,,,,,,
295777,2022-11-14_11h46.25.897,vts_reward_expectancy_bt,2022.2.4,Win32,60.31363088,Chrome,1280,720,,,a,1.551,10,309,1,0,2,2,10,1,0,0,0,1,0,1,0,0,star ,circle,,,,,,,,,,,,,,,,,,,,,,,,,,,,,,,,,,,,,,,,,,,,,,,,,,,,,,
295777,2022-11-14_11h46.25.897,vts_reward_expectancy_bt,2022.2.4,Win32,60.31363088,Chrome,1280,720,,,a,1.7134,10,319,1,0,3,3,1,1,1,0,0,0,0,0,1,0,triangle,hexagon,,,,,,,,,,,,,,,,,,,,,,,,,,,,,,,,,,,,,,,,,,,,,,,,,,,,,,
295777,2022-11-14_11h46.25.897,vts_reward_expectancy_bt,2022.2.4,Win32,60.31363088,Chrome,1280,720,,,a,2.6302,10,329,1,0,4,4,0,1,1,0,0,0,0,1,0,0,triangle,circle,,,,,,,,,,,,,,,,,,,,,,,,,,,,,,,,,,,,,,,,,,,,,,,,,,,,,,
295777,2022-11-14_11h46.25.897,vts_reward_expectancy_bt,2022.2.4,Win32,60.31363088,Chrome,1280,720,,,a,0.8241,10,339,1,0,5,5,11,1,0,0,0,1,0,0,1,0,star,hexagon,,,,,,,,,,,,,,,,,,,,,,,,,,,,,,,,,,,,,,,,,,,,,,,,,,,,,,
295777,2022-11-14_11h46.25.897,vts_reward_expectancy_bt,2022.2.4,Win32,60.31363088,Chrome,1280,720,,,l,1.1494,10,349,1,0,6,6,2,1,1,0,0,0,0,0,0,1,triangle,star,,,,,,,,,,,,,,,,,,,,,,,,,,,,,,,,,,,,,,,,,,,,,,,,,,,,,,
295777,2022-11-14_11h46.25.897,vts_reward_expectancy_bt,2022.2.4,Win32,60.31363088,Chrome,1280,720,,,l,2.3197,10,359,1,0,7,7,5,1,0,1,0,0,0,0,0,1,circle,star,,,,,,,,,,,,,,,,,,,,,,,,,,,,,,,,,,,,,,,,,,,,,,,,,,,,,,
295777,2022-11-14_11h46.25.897,vts_reward_expectancy_bt,2022.2.4,Win32,60.31363088,Chrome,1280,720,,,l,2.2756,1,360,1,0,8,8,4,1,0,1,0,0,0,0,1,0,circle,hexagon,,,,,,,,,,,,,,,,,,,,,,,,,,,,,,,,,,,,,,,,,,,,,,,,,,,,,,
295777,2022-11-14_11h46.25.897,vts_reward_expectancy_bt,2022.2.4,Win32,60.31363088,Chrome,1280,720,,,l,1.1321,1,361,1,0,9,9,3,1,0,1,0,0,1,0,0,0,circle,triangle,,,,,,,,,,,,,,,,,,,,,,,,,,,,,,,,,,,,,,,,,,,,,,,,,,,,,,
295777,2022-11-14_11h46.25.897,vts_reward_expectancy_bt,2022.2.4,Win32,60.31363088,Chrome,1280,720,,,l,1.1722,10,371,1,0,10,10,8,1,0,0,1,0,0,0,0,1,hexagon,star,,,,,,,,,,,,,,,,,,,,,,,,,,,,,,,,,,,,,,,,,,,,,,,,,,,,,,
295777,2022-11-14_11h46.25.897,vts_reward_expectancy_bt,2022.2.4,Win32,60.31363088,Chrome,1280,720,,,a,1.5926,1,372,1,0,11,11,7,1,0,0,1,0,0,1,0,0,hexagon,circle,,,,,,,,,,,,,,,,,,,,,,,,,,,,,,,,,,,,,,,,,,,,,,,,,,,,,,
295777,2022-11-14_11h46.25.897,vts_reward_expectancy_bt,2022.2.4,Win32,60.31363088,Chrome,1280,720,,,a,0.7406,10,382,1,1,0,12,9,1,0,0,0,1,1,0,0,0,star,triangle,,,,,,,,,,,,,,,,,,,,,,,,,,,,,,,,,,,,,,,,,,,,,,,,,,,,,,
295777,2022-11-14_11h46.25.897,vts_reward_expectancy_bt,2022.2.4,Win32,60.31363088,Chrome,1280,720,,,l,0.9124,10,392,1,1,1,13,5,1,0,1,0,0,0,0,0,1,circle,star,,,,,,,,,,,,,,,,,,,,,,,,,,,,,,,,,,,,,,,,,,,,,,,,,,,,,,
295777,2022-11-14_11h46.25.897,vts_reward_expectancy_bt,2022.2.4,Win32,60.31363088,Chrome,1280,720,,,a,1.2523,10,402,1,1,2,14,0,1,1,0,0,0,0,1,0,0,triangle,circle,,,,,,,,,,,,,,,,,,,,,,,,,,,,,,,,,,,,,,,,,,,,,,,,,,,,,,
295777,2022-11-14_11h46.25.897,vts_reward_expectancy_bt,2022.2.4,Win32,60.31363088,Chrome,1280,720,,,a,1.2457,1,403,1,1,3,15,6,1,0,0,1,0,1,0,0,0,hexagon,triangle,,,,,,,,,,,,,,,,,,,,,,,,,,,,,,,,,,,,,,,,,,,,,,,,,,,,,,
295777,2022-11-14_11h46.25.897,vts_reward_expectancy_bt,2022.2.4,Win32,60.31363088,Chrome,1280,720,,,l,1.1155,1,404,1,1,4,16,2,1,1,0,0,0,0,0,0,1,triangle,star,,,,,,,,,,,,,,,,,,,,,,,,,,,,,,,,,,,,,,,,,,,,,,,,,,,,,,
295777,2022-11-14_11h46.25.897,vts_reward_expectancy_bt,2022.2.4,Win32,60.31363088,Chrome,1280,720,,,a,0.913,1,405,1,1,5,17,10,1,0,0,0,1,0,1,0,0,star ,circle,,,,,,,,,,,,,,,,,,,,,,,,,,,,,,,,,,,,,,,,,,,,,,,,,,,,,,
295777,2022-11-14_11h46.25.897,vts_reward_expectancy_bt,2022.2.4,Win32,60.31363088,Chrome,1280,720,,,l,1.8497,10,415,1,1,6,18,8,1,0,0,1,0,0,0,0,1,hexagon,star,,,,,,,,,,,,,,,,,,,,,,,,,,,,,,,,,,,,,,,,,,,,,,,,,,,,,,
295777,2022-11-14_11h46.25.897,vts_reward_expectancy_bt,2022.2.4,Win32,60.31363088,Chrome,1280,720,,,a,1.6723,1,416,1,1,7,19,1,1,1,0,0,0,0,0,1,0,triangle,hexagon,,,,,,,,,,,,,,,,,,,,,,,,,,,,,,,,,,,,,,,,,,,,,,,,,,,,,,
295777,2022-11-14_11h46.25.897,vts_reward_expectancy_bt,2022.2.4,Win32,60.31363088,Chrome,1280,720,,,l,4.3417,1,417,1,1,8,20,3,1,0,1,0,0,1,0,0,0,circle,triangle,,,,,,,,,,,,,,,,,,,,,,,,,,,,,,,,,,,,,,,,,,,,,,,,,,,,,,
295777,2022-11-14_11h46.25.897,vts_reward_expectancy_bt,2022.2.4,Win32,60.31363088,Chrome,1280,720,,,a,1.1992,1,418,1,1,9,21,4,1,0,1,0,0,0,0,1,0,circle,hexagon,,,,,,,,,,,,,,,,,,,,,,,,,,,,,,,,,,,,,,,,,,,,,,,,,,,,,,
295777,2022-11-14_11h46.25.897,vts_reward_expectancy_bt,2022.2.4,Win32,60.31363088,Chrome,1280,720,,,a,1.9433,10,428,1,1,10,22,11,1,0,0,0,1,0,0,1,0,star,hexagon,,,,,,,,,,,,,,,,,,,,,,,,,,,,,,,,,,,,,,,,,,,,,,,,,,,,,,
295777,2022-11-14_11h46.25.897,vts_reward_expectancy_bt,2022.2.4,Win32,60.31363088,Chrome,1280,720,,,a,1.3129,1,429,1,1,11,23,7,1,0,0,1,0,0,1,0,0,hexagon,circle,,,,,,,,,,,,,,,,,,,,,,,,,,,,,,,,,,,,,,,,,,,,,,,,,,,,,,
295777,2022-11-14_11h46.25.897,vts_reward_expectancy_bt,2022.2.4,Win32,60.31363088,Chrome,1280,720,,,a,4.5601,10,439,1,2,0,24,0,1,1,0,0,0,0,1,0,0,triangle,circle,,,,,,,,,,,,,,,,,,,,,,,,,,,,,,,,,,,,,,,,,,,,,,,,,,,,,,
295777,2022-11-14_11h46.25.897,vts_reward_expectancy_bt,2022.2.4,Win32,60.31363088,Chrome,1280,720,,,l,2.4999,1,440,1,2,1,25,6,1,0,0,1,0,1,0,0,0,hexagon,triangle,,,,,,,,,,,,,,,,,,,,,,,,,,,,,,,,,,,,,,,,,,,,,,,,,,,,,,
295777,2022-11-14_11h46.25.897,vts_reward_expectancy_bt,2022.2.4,Win32,60.31363088,Chrome,1280,720,,,l,1.6187,10,450,1,2,2,26,5,1,0,1,0,0,0,0,0,1,circle,star,,,,,,,,,,,,,,,,,,,,,,,,,,,,,,,,,,,,,,,,,,,,,,,,,,,,,,
295777,2022-11-14_11h46.25.897,vts_reward_expectancy_bt,2022.2.4,Win32,60.31363088,Chrome,1280,720,,,a,1.1729,1,451,1,2,3,27,4,1,0,1,0,0,0,0,1,0,circle,hexagon,,,,,,,,,,,,,,,,,,,,,,,,,,,,,,,,,,,,,,,,,,,,,,,,,,,,,,
295777,2022-11-14_11h46.25.897,vts_reward_expectancy_bt,2022.2.4,Win32,60.31363088,Chrome,1280,720,,,a,4.6997,1,452,1,2,4,28,1,1,1,0,0,0,0,0,1,0,triangle,hexagon,,,,,,,,,,,,,,,,,,,,,,,,,,,,,,,,,,,,,,,,,,,,,,,,,,,,,,
295777,2022-11-14_11h46.25.897,vts_reward_expectancy_bt,2022.2.4,Win32,60.31363088,Chrome,1280,720,,,l,1.1779,1,453,1,2,5,29,8,1,0,0,1,0,0,0,0,1,hexagon,star,,,,,,,,,,,,,,,,,,,,,,,,,,,,,,,,,,,,,,,,,,,,,,,,,,,,,,
295777,2022-11-14_11h46.25.897,vts_reward_expectancy_bt,2022.2.4,Win32,60.31363088,Chrome,1280,720,,,a,0.6158,10,463,1,2,6,30,9,1,0,0,0,1,1,0,0,0,star,triangle,,,,,,,,,,,,,,,,,,,,,,,,,,,,,,,,,,,,,,,,,,,,,,,,,,,,,,
295777,2022-11-14_11h46.25.897,vts_reward_expectancy_bt,2022.2.4,Win32,60.31363088,Chrome,1280,720,,,a,0.4526,10,473,1,2,7,31,11,1,0,0,0,1,0,0,1,0,star,hexagon,,,,,,,,,,,,,,,,,,,,,,,,,,,,,,,,,,,,,,,,,,,,,,,,,,,,,,
295777,2022-11-14_11h46.25.897,vts_reward_expectancy_bt,2022.2.4,Win32,60.31363088,Chrome,1280,720,,,l,0.8689,1,474,1,2,8,32,3,1,0,1,0,0,1,0,0,0,circle,triangle,,,,,,,,,,,,,,,,,,,,,,,,,,,,,,,,,,,,,,,,,,,,,,,,,,,,,,
295777,2022-11-14_11h46.25.897,vts_reward_expectancy_bt,2022.2.4,Win32,60.31363088,Chrome,1280,720,,,a,0.6321,1,475,1,2,9,33,7,1,0,0,1,0,0,1,0,0,hexagon,circle,,,,,,,,,,,,,,,,,,,,,,,,,,,,,,,,,,,,,,,,,,,,,,,,,,,,,,
295777,2022-11-14_11h46.25.897,vts_reward_expectancy_bt,2022.2.4,Win32,60.31363088,Chrome,1280,720,,,l,0.9935,10,485,1,2,10,34,2,1,1,0,0,0,0,0,0,1,triangle,star,,,,,,,,,,,,,,,,,,,,,,,,,,,,,,,,,,,,,,,,,,,,,,,,,,,,,,
295777,2022-11-14_11h46.25.897,vts_reward_expectancy_bt,2022.2.4,Win32,60.31363088,Chrome,1280,720,,,a,0.8302,10,495,1,2,11,35,10,1,0,0,0,1,0,1,0,0,star ,circle,,,,,,,,,,,,,,,,,,,,,,,,,,,,,,,,,,,,,,,,,,,,,,,,,,,,,,
295777,2022-11-14_11h46.25.897,vts_reward_expectancy_bt,2022.2.4,Win32,60.31363088,Chrome,1280,720,,,l,2.1037,10,505,2,0,0,0,2,1,1,0,0,0,0,0,0,1,triangle,star,,,,,,,,,,,,,,,,,,,,,,,,,,,,,,,,,,,,,,,,,,,,,,,,,,,,,,
295777,2022-11-14_11h46.25.897,vts_reward_expectancy_bt,2022.2.4,Win32,60.31363088,Chrome,1280,720,,,a,5.0626,10,515,2,0,1,1,1,1,1,0,0,0,0,0,1,0,triangle,hexagon,,,,,,,,,,,,,,,,,,,,,,,,,,,,,,,,,,,,,,,,,,,,,,,,,,,,,,
295777,2022-11-14_11h46.25.897,vts_reward_expectancy_bt,2022.2.4,Win32,60.31363088,Chrome,1280,720,,,l,1.1744,1,516,2,0,2,2,7,1,0,0,1,0,0,1,0,0,hexagon,circle,,,,,,,,,,,,,,,,,,,,,,,,,,,,,,,,,,,,,,,,,,,,,,,,,,,,,,
295777,2022-11-14_11h46.25.897,vts_reward_expectancy_bt,2022.2.4,Win32,60.31363088,Chrome,1280,720,,,a,1.7149,1,517,2,0,3,3,10,1,0,0,0,1,0,1,0,0,star ,circle,,,,,,,,,,,,,,,,,,,,,,,,,,,,,,,,,,,,,,,,,,,,,,,,,,,,,,
295777,2022-11-14_11h46.25.897,vts_reward_expectancy_bt,2022.2.4,Win32,60.31363088,Chrome,1280,720,,,a,0.8035,10,527,2,0,4,4,11,1,0,0,0,1,0,0,1,0,star,hexagon,,,,,,,,,,,,,,,,,,,,,,,,,,,,,,,,,,,,,,,,,,,,,,,,,,,,,,
295777,2022-11-14_11h46.25.897,vts_reward_expectancy_bt,2022.2.4,Win32,60.31363088,Chrome,1280,720,,,a,7.1664,10,537,2,0,5,5,0,1,1,0,0,0,0,1,0,0,triangle,circle,,,,,,,,,,,,,,,,,,,,,,,,,,,,,,,,,,,,,,,,,,,,,,,,,,,,,,
295777,2022-11-14_11h46.25.897,vts_reward_expectancy_bt,2022.2.4,Win32,60.31363088,Chrome,1280,720,,,l,1.0287,10,547,2,0,6,6,8,1,0,0,1,0,0,0,0,1,hexagon,star,,,,,,,,,,,,,,,,,,,,,,,,,,,,,,,,,,,,,,,,,,,,,,,,,,,,,,
295777,2022-11-14_11h46.25.897,vts_reward_expectancy_bt,2022.2.4,Win32,60.31363088,Chrome,1280,720,,,l,1.9222,10,557,2,0,7,7,3,1,0,1,0,0,1,0,0,0,circle,triangle,,,,,,,,,,,,,,,,,,,,,,,,,,,,,,,,,,,,,,,,,,,,,,,,,,,,,,
295777,2022-11-14_11h46.25.897,vts_reward_expectancy_bt,2022.2.4,Win32,60.31363088,Chrome,1280,720,,,l,3.1821,1,558,2,0,8,8,6,1,0,0,1,0,1,0,0,0,hexagon,triangle,,,,,,,,,,,,,,,,,,,,,,,,,,,,,,,,,,,,,,,,,,,,,,,,,,,,,,
295777,2022-11-14_11h46.25.897,vts_reward_expectancy_bt,2022.2.4,Win32,60.31363088,Chrome,1280,720,,,l,2.8666,10,568,2,0,9,9,5,1,0,1,0,0,0,0,0,1,circle,star,,,,,,,,,,,,,,,,,,,,,,,,,,,,,,,,,,,,,,,,,,,,,,,,,,,,,,
295777,2022-11-14_11h46.25.897,vts_reward_expectancy_bt,2022.2.4,Win32,60.31363088,Chrome,1280,720,,,l,3.3307,1,569,2,0,10,10,4,1,0,1,0,0,0,0,1,0,circle,hexagon,,,,,,,,,,,,,,,,,,,,,,,,,,,,,,,,,,,,,,,,,,,,,,,,,,,,,,
295777,2022-11-14_11h46.25.897,vts_reward_expectancy_bt,2022.2.4,Win32,60.31363088,Chrome,1280,720,,,a,2.4052,10,579,2,0,11,11,9,1,0,0,0,1,1,0,0,0,star,triangle,,,,,,,,,,,,,,,,,,,,,,,,,,,,,,,,,,,,,,,,,,,,,,,,,,,,,,
295777,2022-11-14_11h46.25.897,vts_reward_expectancy_bt,2022.2.4,Win32,60.31363088,Chrome,1280,720,,,a,4.6421,10,589,2,1,0,12,0,1,1,0,0,0,0,1,0,0,triangle,circle,,,,,,,,,,,,,,,,,,,,,,,,,,,,,,,,,,,,,,,,,,,,,,,,,,,,,,
295777,2022-11-14_11h46.25.897,vts_reward_expectancy_bt,2022.2.4,Win32,60.31363088,Chrome,1280,720,,,a,3.2276,10,599,2,1,1,13,10,1,0,0,0,1,0,1,0,0,star ,circle,,,,,,,,,,,,,,,,,,,,,,,,,,,,,,,,,,,,,,,,,,,,,,,,,,,,,,
295777,2022-11-14_11h46.25.897,vts_reward_expectancy_bt,2022.2.4,Win32,60.31363088,Chrome,1280,720,,,l,1.8321,1,600,2,1,2,14,4,1,0,1,0,0,0,0,1,0,circle,hexagon,,,,,,,,,,,,,,,,,,,,,,,,,,,,,,,,,,,,,,,,,,,,,,,,,,,,,,
295777,2022-11-14_11h46.25.897,vts_reward_expectancy_bt,2022.2.4,Win32,60.31363088,Chrome,1280,720,,,l,3.015,1,601,2,1,3,15,3,1,0,1,0,0,1,0,0,0,circle,triangle,,,,,,,,,,,,,,,,,,,,,,,,,,,,,,,,,,,,,,,,,,,,,,,,,,,,,,
295777,2022-11-14_11h46.25.897,vts_reward_expectancy_bt,2022.2.4,Win32,60.31363088,Chrome,1280,720,,,a,0.876,1,602,2,1,4,16,9,1,0,0,0,1,1,0,0,0,star,triangle,,,,,,,,,,,,,,,,,,,,,,,,,,,,,,,,,,,,,,,,,,,,,,,,,,,,,,
295777,2022-11-14_11h46.25.897,vts_reward_expectancy_bt,2022.2.4,Win32,60.31363088,Chrome,1280,720,,,a,0.8015,10,612,2,1,5,17,11,1,0,0,0,1,0,0,1,0,star,hexagon,,,,,,,,,,,,,,,,,,,,,,,,,,,,,,,,,,,,,,,,,,,,,,,,,,,,,,
295777,2022-11-14_11h46.25.897,vts_reward_expectancy_bt,2022.2.4,Win32,60.31363088,Chrome,1280,720,,,l,0.8672,10,622,2,1,6,18,5,1,0,1,0,0,0,0,0,1,circle,star,,,,,,,,,,,,,,,,,,,,,,,,,,,,,,,,,,,,,,,,,,,,,,,,,,,,,,
295777,2022-11-14_11h46.25.897,vts_reward_expectancy_bt,2022.2.4,Win32,60.31363088,Chrome,1280,720,,,l,1.5952,1,623,2,1,7,19,1,1,1,0,0,0,0,0,1,0,triangle,hexagon,,,,,,,,,,,,,,,,,,,,,,,,,,,,,,,,,,,,,,,,,,,,,,,,,,,,,,
295777,2022-11-14_11h46.25.897,vts_reward_expectancy_bt,2022.2.4,Win32,60.31363088,Chrome,1280,720,,,l,0.8973,10,633,2,1,8,20,2,1,1,0,0,0,0,0,0,1,triangle,star,,,,,,,,,,,,,,,,,,,,,,,,,,,,,,,,,,,,,,,,,,,,,,,,,,,,,,
295777,2022-11-14_11h46.25.897,vts_reward_expectancy_bt,2022.2.4,Win32,60.31363088,Chrome,1280,720,,,l,2.1123,1,634,2,1,9,21,6,1,0,0,1,0,1,0,0,0,hexagon,triangle,,,,,,,,,,,,,,,,,,,,,,,,,,,,,,,,,,,,,,,,,,,,,,,,,,,,,,
295777,2022-11-14_11h46.25.897,vts_reward_expectancy_bt,2022.2.4,Win32,60.31363088,Chrome,1280,720,,,a,2.5061,10,644,2,1,10,22,7,1,0,0,1,0,0,1,0,0,hexagon,circle,,,,,,,,,,,,,,,,,,,,,,,,,,,,,,,,,,,,,,,,,,,,,,,,,,,,,,
295777,2022-11-14_11h46.25.897,vts_reward_expectancy_bt,2022.2.4,Win32,60.31363088,Chrome,1280,720,,,l,5.6797,10,654,2,1,11,23,8,1,0,0,1,0,0,0,0,1,hexagon,star,,,,,,,,,,,,,,,,,,,,,,,,,,,,,,,,,,,,,,,,,,,,,,,,,,,,,,
295777,2022-11-14_11h46.25.897,vts_reward_expectancy_bt,2022.2.4,Win32,60.31363088,Chrome,1280,720,,,a,2.1028,1,655,2,2,0,24,0,1,1,0,0,0,0,1,0,0,triangle,circle,,,,,,,,,,,,,,,,,,,,,,,,,,,,,,,,,,,,,,,,,,,,,,,,,,,,,,
295777,2022-11-14_11h46.25.897,vts_reward_expectancy_bt,2022.2.4,Win32,60.31363088,Chrome,1280,720,,,a,2.1585,1,656,2,2,1,25,6,1,0,0,1,0,1,0,0,0,hexagon,triangle,,,,,,,,,,,,,,,,,,,,,,,,,,,,,,,,,,,,,,,,,,,,,,,,,,,,,,
295777,2022-11-14_11h46.25.897,vts_reward_expectancy_bt,2022.2.4,Win32,60.31363088,Chrome,1280,720,,,a,0.6651,1,657,2,2,2,26,10,1,0,0,0,1,0,1,0,0,star ,circle,,,,,,,,,,,,,,,,,,,,,,,,,,,,,,,,,,,,,,,,,,,,,,,,,,,,,,
295777,2022-11-14_11h46.25.897,vts_reward_expectancy_bt,2022.2.4,Win32,60.31363088,Chrome,1280,720,,,a,0.4019,10,667,2,2,3,27,9,1,0,0,0,1,1,0,0,0,star,triangle,,,,,,,,,,,,,,,,,,,,,,,,,,,,,,,,,,,,,,,,,,,,,,,,,,,,,,
295777,2022-11-14_11h46.25.897,vts_reward_expectancy_bt,2022.2.4,Win32,60.31363088,Chrome,1280,720,,,l,1.2417,10,677,2,2,4,28,8,1,0,0,1,0,0,0,0,1,hexagon,star,,,,,,,,,,,,,,,,,,,,,,,,,,,,,,,,,,,,,,,,,,,,,,,,,,,,,,
295777,2022-11-14_11h46.25.897,vts_reward_expectancy_bt,2022.2.4,Win32,60.31363088,Chrome,1280,720,,,l,1.297,10,687,2,2,5,29,5,1,0,1,0,0,0,0,0,1,circle,star,,,,,,,,,,,,,,,,,,,,,,,,,,,,,,,,,,,,,,,,,,,,,,,,,,,,,,
295777,2022-11-14_11h46.25.897,vts_reward_expectancy_bt,2022.2.4,Win32,60.31363088,Chrome,1280,720,,,a,8.8488,1,688,2,2,6,30,3,1,0,1,0,0,1,0,0,0,circle,triangle,,,,,,,,,,,,,,,,,,,,,,,,,,,,,,,,,,,,,,,,,,,,,,,,,,,,,,
295777,2022-11-14_11h46.25.897,vts_reward_expectancy_bt,2022.2.4,Win32,60.31363088,Chrome,1280,720,,,a,1.3911,1,689,2,2,7,31,4,1,0,1,0,0,0,0,1,0,circle,hexagon,,,,,,,,,,,,,,,,,,,,,,,,,,,,,,,,,,,,,,,,,,,,,,,,,,,,,,
295777,2022-11-14_11h46.25.897,vts_reward_expectancy_bt,2022.2.4,Win32,60.31363088,Chrome,1280,720,,,l,0.8767,10,699,2,2,8,32,2,1,1,0,0,0,0,0,0,1,triangle,star,,,,,,,,,,,,,,,,,,,,,,,,,,,,,,,,,,,,,,,,,,,,,,,,,,,,,,
295777,2022-11-14_11h46.25.897,vts_reward_expectancy_bt,2022.2.4,Win32,60.31363088,Chrome,1280,720,,,a,1.0619,1,700,2,2,9,33,11,1,0,0,0,1,0,0,1,0,star,hexagon,,,,,,,,,,,,,,,,,,,,,,,,,,,,,,,,,,,,,,,,,,,,,,,,,,,,,,
295777,2022-11-14_11h46.25.897,vts_reward_expectancy_bt,2022.2.4,Win32,60.31363088,Chrome,1280,720,,,a,1.5198,1,701,2,2,10,34,1,1,1,0,0,0,0,0,1,0,triangle,hexagon,,,,,,,,,,,,,,,,,,,,,,,,,,,,,,,,,,,,,,,,,,,,,,,,,,,,,,
295777,2022-11-14_11h46.25.897,vts_reward_expectancy_bt,2022.2.4,Win32,60.31363088,Chrome,1280,720,,,a,0.2743,1,702,2,2,11,35,7,1,0,0,1,0,0,1,0,0,hexagon,circle,,,,,,,,,,,,,,,,,,,,,,,,,,,,,,,,,,,,,,,,,,,,,,,,,,,,,,
295777,2022-11-14_11h46.25.897,vts_reward_expectancy_bt,2022.2.4,Win32,60.31363088,Chrome,1280,720,,,,,,,,,,,,,,,,,,,,,,,181,D,triangle,1,0,f,2.6395,0,0,0,0,0,1,,,,,,,,,,,,,,,,,,,,,,,,,,,,,,,,,,,,,,,,,
295777,2022-11-14_11h46.25.897,vts_reward_expectancy_bt,2022.2.4,Win32,60.31363088,Chrome,1280,720,,,,,,,,,,,,,,,,,,,,,,,160,S,hexagon,1,0,f,1.5004,0,1,0,1,0,1,,,,,,,,,,,,,,,,,,,,,,,,,,,,,,,,,,,,,,,,,
295777,2022-11-14_11h46.25.897,vts_reward_expectancy_bt,2022.2.4,Win32,60.31363088,Chrome,1280,720,,,,,,,,,,,,,,,,,,,,,,,174,W,star,1,0,f,0.7671,0,2,0,2,0,1,,,,,,,,,,,,,,,,,,,,,,,,,,,,,,,,,,,,,,,,,
295777,2022-11-14_11h46.25.897,vts_reward_expectancy_bt,2022.2.4,Win32,60.31363088,Chrome,1280,720,,,,,,,,,,,,,,,,,,,,,,,146,F,circle,1,0,d,0.9023,0,3,0,3,0,1,,,,,,,,,,,,,,,,,,,,,,,,,,,,,,,,,,,,,,,,,
295777,2022-11-14_11h46.25.897,vts_reward_expectancy_bt,2022.2.4,Win32,60.31363088,Chrome,1280,720,,,,,,,,,,,,,,,,,,,,,,,139,B,triangle,1,0,d,0.7363,0,4,0,4,0,1,,,,,,,,,,,,,,,,,,,,,,,,,,,,,,,,,,,,,,,,,
295777,2022-11-14_11h46.25.897,vts_reward_expectancy_bt,2022.2.4,Win32,60.31363088,Chrome,1280,720,,,,,,,,,,,,,,,,,,,,,,,132,H,hexagon,1,0,d,0.6474,0,5,0,5,0,1,,,,,,,,,,,,,,,,,,,,,,,,,,,,,,,,,,,,,,,,,
295777,2022-11-14_11h46.25.897,vts_reward_expectancy_bt,2022.2.4,Win32,60.31363088,Chrome,1280,720,,,,,,,,,,,,,,,,,,,,,,,167,Y,star,1,0,f,0.85,0,6,0,6,0,1,,,,,,,,,,,,,,,,,,,,,,,,,,,,,,,,,,,,,,,,,
295777,2022-11-14_11h46.25.897,vts_reward_expectancy_bt,2022.2.4,Win32,60.31363088,Chrome,1280,720,,,,,,,,,,,,,,,,,,,,,,,125,U,circle,1,0,d,0.8528,0,7,0,7,0,1,,,,,,,,,,,,,,,,,,,,,,,,,,,,,,,,,,,,,,,,,
295777,2022-11-14_11h46.25.897,vts_reward_expectancy_bt,2022.2.4,Win32,60.31363088,Chrome,1280,720,,,,,,,,,,,,,,,,,,,,,,,181,D,hexagon,1,0,f,0.7488,0,8,0,8,0,1,,,,,,,,,,,,,,,,,,,,,,,,,,,,,,,,,,,,,,,,,
295777,2022-11-14_11h46.25.897,vts_reward_expectancy_bt,2022.2.4,Win32,60.31363088,Chrome,1280,720,,,,,,,,,,,,,,,,,,,,,,,160,S,star,1,0,f,0.7292,0,9,0,9,0,1,,,,,,,,,,,,,,,,,,,,,,,,,,,,,,,,,,,,,,,,,
295777,2022-11-14_11h46.25.897,vts_reward_expectancy_bt,2022.2.4,Win32,60.31363088,Chrome,1280,720,,,,,,,,,,,,,,,,,,,,,,,181,D,circle,0,0,,,1,,,,,,,0,0,0,0,1,,,,,,,,,,,,,,,,,,,,,,,,,,,,,,,,,,,
295777,2022-11-14_11h46.25.897,vts_reward_expectancy_bt,2022.2.4,Win32,60.31363088,Chrome,1280,720,,,,,,,,,,,,,,,,,,,,,,,167,Y,triangle,2,1,,,1,,,,,,f,1,0,1,0,1,2.4616,,,,,,,,,,,,,,,,,,,,,,,,,,,,,,,,,,
295777,2022-11-14_11h46.25.897,vts_reward_expectancy_bt,2022.2.4,Win32,60.31363088,Chrome,1280,720,,,,,,,,,,,,,,,,,,,,,,,132,S,hexagon,0,0,,,1,,,,,,,2,0,2,0,1,,,,,,,,,,,,,,,,,,,,,,,,,,,,,,,,,,,
295777,2022-11-14_11h46.25.897,vts_reward_expectancy_bt,2022.2.4,Win32,60.31363088,Chrome,1280,720,,,,,,,,,,,,,,,,,,,,,,,146,W,star,0,1,,,1,,,,,,,3,0,3,0,1,,,,,,,,,,,,,,,,,,,,,,,,,,,,,,,,,,,
295777,2022-11-14_11h46.25.897,vts_reward_expectancy_bt,2022.2.4,Win32,60.31363088,Chrome,1280,720,,,,,,,,,,,,,,,,,,,,,,,160,F,circle,2,1,,,1,,,,,,d,4,0,4,0,1,1.7018,,,,,,,,,,,,,,,,,,,,,,,,,,,,,,,,,,
295777,2022-11-14_11h46.25.897,vts_reward_expectancy_bt,2022.2.4,Win32,60.31363088,Chrome,1280,720,,,,,,,,,,,,,,,,,,,,,,,139,H,triangle,2,0,,,1,,,,,,d,5,0,5,0,1,0.7833,,,,,,,,,,,,,,,,,,,,,,,,,,,,,,,,,,
295777,2022-11-14_11h46.25.897,vts_reward_expectancy_bt,2022.2.4,Win32,60.31363088,Chrome,1280,720,,,,,,,,,,,,,,,,,,,,,,,174,B,hexagon,2,0,,,1,,,,,,d,6,0,6,0,1,0.9505,,,,,,,,,,,,,,,,,,,,,,,,,,,,,,,,,,
295777,2022-11-14_11h46.25.897,vts_reward_expectancy_bt,2022.2.4,Win32,60.31363088,Chrome,1280,720,,,,,,,,,,,,,,,,,,,,,,,125,U,star,2,0,,,1,,,,,,f,7,0,7,0,1,0.9016,,,,,,,,,,,,,,,,,,,,,,,,,,,,,,,,,,
295777,2022-11-14_11h46.25.897,vts_reward_expectancy_bt,2022.2.4,Win32,60.31363088,Chrome,1280,720,,,,,,,,,,,,,,,,,,,,,,,181,D,hexagon,1,0,,,1,,,,,,j,8,0,8,0,1,1.3164,,,,,,,,,,,,,,,,,,,,,,,,,,,,,,,,,,
295777,2022-11-14_11h46.25.897,vts_reward_expectancy_bt,2022.2.4,Win32,60.31363088,Chrome,1280,720,,,,,,,,,,,,,,,,,,,,,,,167,Y,triangle,1,0,,,1,,,,,,k,9,0,9,0,1,0.8503,,,,,,,,,,,,,,,,,,,,,,,,,,,,,,,,,,
295777,2022-11-14_11h46.25.897,vts_reward_expectancy_bt,2022.2.4,Win32,60.31363088,Chrome,1280,720,,,,,,,,,,,,,,,,,,,,,,,125,D,star,1,0,,,2,,,,,,j,0,0,0,0,1,0.9373,,,,,,,,,,,,,,,,,,,,,,,,,,,,,,,,,,
295777,2022-11-14_11h46.25.897,vts_reward_expectancy_bt,2022.2.4,Win32,60.31363088,Chrome,1280,720,,,,,,,,,,,,,,,,,,,,,,,181,Y,triangle,1,0,,,2,,,,,,k,1,0,1,0,1,1.5558,,,,,,,,,,,,,,,,,,,,,,,,,,,,,,,,,,
295777,2022-11-14_11h46.25.897,vts_reward_expectancy_bt,2022.2.4,Win32,60.31363088,Chrome,1280,720,,,,,,,,,,,,,,,,,,,,,,,139,F,hexagon,1,0,,,2,,,,,,j,2,0,2,0,1,1.2338,,,,,,,,,,,,,,,,,,,,,,,,,,,,,,,,,,
295777,2022-11-14_11h46.25.897,vts_reward_expectancy_bt,2022.2.4,Win32,60.31363088,Chrome,1280,720,,,,,,,,,,,,,,,,,,,,,,,132,W,circle,1,0,,,2,,,,,,k,3,0,3,0,1,1.934,,,,,,,,,,,,,,,,,,,,,,,,,,,,,,,,,,
295777,2022-11-14_11h46.25.897,vts_reward_expectancy_bt,2022.2.4,Win32,60.31363088,Chrome,1280,720,,,,,,,,,,,,,,,,,,,,,,,146,H,star,1,0,,,2,,,,,,j,4,0,4,0,1,1.0026,,,,,,,,,,,,,,,,,,,,,,,,,,,,,,,,,,
295777,2022-11-14_11h46.25.897,vts_reward_expectancy_bt,2022.2.4,Win32,60.31363088,Chrome,1280,720,,,,,,,,,,,,,,,,,,,,,,,174,S,triangle,1,0,,,2,,,,,,k,5,0,5,0,1,2.086,,,,,,,,,,,,,,,,,,,,,,,,,,,,,,,,,,
295777,2022-11-14_11h46.25.897,vts_reward_expectancy_bt,2022.2.4,Win32,60.31363088,Chrome,1280,720,,,,,,,,,,,,,,,,,,,,,,,160,B,hexagon,1,0,,,2,,,,,,j,6,0,6,0,1,0.834,,,,,,,,,,,,,,,,,,,,,,,,,,,,,,,,,,
295777,2022-11-14_11h46.25.897,vts_reward_expectancy_bt,2022.2.4,Win32,60.31363088,Chrome,1280,720,,,,,,,,,,,,,,,,,,,,,,,167,U,circle,1,0,,,2,,,,,,k,7,0,7,0,1,1.3735,,,,,,,,,,,,,,,,,,,,,,,,,,,,,,,,,,
295777,2022-11-14_11h46.25.897,vts_reward_expectancy_bt,2022.2.4,Win32,60.31363088,Chrome,1280,720,,,,,,,,,,,,,,,,,,,,,,,125,D,circle,1,0,,,2,,,,,,j,8,0,8,0,1,0.818,,,,,,,,,,,,,,,,,,,,,,,,,,,,,,,,,,
295777,2022-11-14_11h46.25.897,vts_reward_expectancy_bt,2022.2.4,Win32,60.31363088,Chrome,1280,720,,,,,,,,,,,,,,,,,,,,,,,181,Y,star,1,0,,,2,,,,,,k,9,0,9,0,1,0.8065,,,,,,,,,,,,,,,,,,,,,,,,,,,,,,,,,,
295777,2022-11-14_11h46.25.897,vts_reward_expectancy_bt,2022.2.4,Win32,60.31363088,Chrome,1280,720,,,,,0,702,,,,,,,,,,,,,,,,,125,H,hexagon,-1,0,,,3,,,,,,,,,,,,,-1,no_choice,NA,,vtsPrac,0,0,0,0,1,,,,,,,,,,,,,,,,,,,,,,,,
295777,2022-11-14_11h46.25.897,vts_reward_expectancy_bt,2022.2.4,Win32,60.31363088,Chrome,1280,720,,,,,0,702,,,,,,,,,,,,,,,,,160,D,circle,1,0,,,3,,,,,,,,,,,,,switch,letter,lettSwt,j,vtsPrac,1,0,1,0,1,0.8513,,,,,,,,,,,,,,,,,,,,,,,
295777,2022-11-14_11h46.25.897,vts_reward_expectancy_bt,2022.2.4,Win32,60.31363088,Chrome,1280,720,,,,,0,702,,,,,,,,,,,,,,,,,132,U,hexagon,0,0,,,3,,,,,,,,,,,,,repeat,letter,NA,j,vtsPrac,2,0,2,0,1,1.5352,,,,,,,,,,,,,,,,,,,,,,,
295777,2022-11-14_11h46.25.897,vts_reward_expectancy_bt,2022.2.4,Win32,60.31363088,Chrome,1280,720,,,,,0,702,,,,,,,,,,,,,,,,,139,W,circle,1,1,,,3,,,,,,,,,,,,,repeat,letter,lettRpt,k,vtsPrac,3,0,3,0,1,1.6893,,,,,,,,,,,,,,,,,,,,,,,
295777,2022-11-14_11h46.25.897,vts_reward_expectancy_bt,2022.2.4,Win32,60.31363088,Chrome,1280,720,,,,,0,702,,,,,,,,,,,,,,,,,125,H,circle,1,0,,,3,,,,,,,,,,,,,switch,number,numSwt,d,vtsPrac,4,0,4,0,1,1.3347,,,,,,,,,,,,,,,,,,,,,,,
295777,2022-11-14_11h46.25.897,vts_reward_expectancy_bt,2022.2.4,Win32,60.31363088,Chrome,1280,720,,,,,0,702,,,,,,,,,,,,,,,,,160,D,hexagon,1,0,,,3,,,,,,,,,,,,,switch,letter,lettSwt,j,vtsPrac,5,0,5,0,1,1.5718,,,,,,,,,,,,,,,,,,,,,,,
295777,2022-11-14_11h46.25.897,vts_reward_expectancy_bt,2022.2.4,Win32,60.31363088,Chrome,1280,720,,,,,0,702,,,,,,,,,,,,,,,,,132,U,triangle,1,0,,,3,,,,,,,,,,,,,switch,number,numSwt,d,vtsPrac,6,0,6,0,1,1.9889,,,,,,,,,,,,,,,,,,,,,,,
295777,2022-11-14_11h46.25.897,vts_reward_expectancy_bt,2022.2.4,Win32,60.31363088,Chrome,1280,720,,,,,0,702,,,,,,,,,,,,,,,,,139,W,circle,1,0,,,3,,,,,,,,,,,,,repeat,number,numRpt,d,vtsPrac,7,0,7,0,1,1.0518,,,,,,,,,,,,,,,,,,,,,,,
295777,2022-11-14_11h46.25.897,vts_reward_expectancy_bt,2022.2.4,Win32,60.31363088,Chrome,1280,720,,,,,0,702,,,,,,,,,,,,,,,,,139,U,circle,1,0,,,3,,,,,,,,,,,,,switch,letter,lettSwt,k,vtsPrac,8,0,8,0,1,1.4448,,,,,,,,,,,,,,,,,,,,,,,
295777,2022-11-14_11h46.25.897,vts_reward_expectancy_bt,2022.2.4,Win32,60.31363088,Chrome,1280,720,,,,,0,702,,,,,,,,,,,,,,,,,167,W,star,1,0,,,3,,,,,,,,,,,,,repeat,letter,lettRpt,k,vtsPrac,9,0,9,0,1,0.9951,,,,,,,,,,,,,,,,,,,,,,,
295777,2022-11-14_11h46.25.897,vts_reward_expectancy_bt,2022.2.4,Win32,60.31363088,Chrome,1280,720,,,,,0,702,,,,,,,,,,,,,,,,,160,S,star,1,0,,,3,,,,,,,,,,,,,repeat,letter,lettRpt,k,vtsPrac,10,0,10,0,1,1.0339,,,,,,,,,,,,,,,,,,,,,,,
295777,2022-11-14_11h46.25.897,vts_reward_expectancy_bt,2022.2.4,Win32,60.31363088,Chrome,1280,720,,,,,0,702,,,,,,,,,,,,,,,,,174,F,triangle,1,0,,,3,,,,,,,,,,,,,switch,number,numSwt,f,vtsPrac,11,0,11,0,1,1.137,,,,,,,,,,,,,,,,,,,,,,,
295777,2022-11-14_11h46.25.897,vts_reward_expectancy_bt,2022.2.4,Win32,60.31363088,Chrome,1280,720,,,,,0,702,,,,,,,,,,,,,,,,,139,S,triangle,1,0,,,3,,,,,,,,,,,,,repeat,number,numRpt,d,vtsPrac,12,0,12,0,1,0.953,,,,,,,,,,,,,,,,,,,,,,,
295777,2022-11-14_11h46.25.897,vts_reward_expectancy_bt,2022.2.4,Win32,60.31363088,Chrome,1280,720,,,,,0,702,,,,,,,,,,,,,,,,,125,B,hexagon,1,0,,,3,,,,,,,,,,,,,switch,letter,lettSwt,j,vtsPrac,13,0,13,0,1,1.1104,,,,,,,,,,,,,,,,,,,,,,,
295777,2022-11-14_11h46.25.897,vts_reward_expectancy_bt,2022.2.4,Win32,60.31363088,Chrome,1280,720,,,,,0,702,,,,,,,,,,,,,,,,,174,Y,star,1,0,,,3,,,,,,,,,,,,,switch,number,numSwt,f,vtsPrac,14,0,14,0,1,0.8177,,,,,,,,,,,,,,,,,,,,,,,
295777,2022-11-14_11h46.25.897,vts_reward_expectancy_bt,2022.2.4,Win32,60.31363088,Chrome,1280,720,,,,,0,702,,,,,,,,,,,,,,,,,132,W,hexagon,1,0,,,3,,,,,,,,,,,,,repeat,number,numRpt,d,vtsPrac,15,0,15,0,1,0.7839,,,,,,,,,,,,,,,,,,,,,,,
295777,2022-11-14_11h46.25.897,vts_reward_expectancy_bt,2022.2.4,Win32,60.31363088,Chrome,1280,720,,,,,0,702,,,,,,,,,,,,,,,,,125,W,triangle,1,0,,,3,,,,,,,,,,,,,repeat,number,numRpt,d,vtsPrac,16,0,16,0,1,0.9341,,,,,,,,,,,,,,,,,,,,,,,
295777,2022-11-14_11h46.25.897,vts_reward_expectancy_bt,2022.2.4,Win32,60.31363088,Chrome,1280,720,,,,,0,702,,,,,,,,,,,,,,,,,167,Y,star,1,0,,,3,,,,,,,,,,,,,repeat,number,numRpt,f,vtsPrac,17,0,17,0,1,0.6091,,,,,,,,,,,,,,,,,,,,,,,
295777,2022-11-14_11h46.25.897,vts_reward_expectancy_bt,2022.2.4,Win32,60.31363088,Chrome,1280,720,,,,,0,702,,,,,,,,,,,,,,,,,139,F,triangle,1,0,,,3,,,,,,,,,,,,,switch,letter,lettSwt,j,vtsPrac,18,0,18,0,1,1.7433,,,,,,,,,,,,,,,,,,,,,,,
295777,2022-11-14_11h46.25.897,vts_reward_expectancy_bt,2022.2.4,Win32,60.31363088,Chrome,1280,720,,,,,0,702,,,,,,,,,,,,,,,,,174,H,hexagon,1,0,,,3,,,,,,,,,,,,,repeat,letter,lettRpt,j,vtsPrac,19,0,19,0,1,1.3674,,,,,,,,,,,,,,,,,,,,,,,
295777,2022-11-14_11h46.25.897,vts_reward_expectancy_bt,2022.2.4,Win32,60.31363088,Chrome,1280,720,,,,,0,702,,,,,,,,,,,,,,,,,132,D,hexagon,1,0,,,3,,,,,,,,,,,,,repeat,letter,lettRpt,j,vtsPrac,20,0,20,0,1,2.1905,,,,,,,,,,,,,,,,,,,,,,,
295777,2022-11-14_11h46.25.897,vts_reward_expectancy_bt,2022.2.4,Win32,60.31363088,Chrome,1280,720,,,,,0,702,,,,,,,,,,,,,,,,,167,Y,circle,1,0,,,3,,,,,,,,,,,,,repeat,letter,lettRpt,k,vtsPrac,21,0,21,0,1,0.9217,,,,,,,,,,,,,,,,,,,,,,,
295777,2022-11-14_11h46.25.897,vts_reward_expectancy_bt,2022.2.4,Win32,60.31363088,Chrome,1280,720,,,,,0,702,,,,,,,,,,,,,,,,,181,H,star,1,0,,,3,,,,,,,,,,,,,repeat,letter,lettRpt,j,vtsPrac,22,0,22,0,1,0.8782,,,,,,,,,,,,,,,,,,,,,,,
295777,2022-11-14_11h46.25.897,vts_reward_expectancy_bt,2022.2.4,Win32,60.31363088,Chrome,1280,720,,,,,0,702,,,,,,,,,,,,,,,,,146,F,circle,1,0,,,3,,,,,,,,,,,,,switch,number,numSwt,d,vtsPrac,23,0,23,0,1,1.5093,,,,,,,,,,,,,,,,,,,,,,,
295777,2022-11-14_11h46.25.897,vts_reward_expectancy_bt,2022.2.4,Win32,60.31363088,Chrome,1280,720,,,,,0,702,,,,,,,,,,,,,,,,,146,U,star,1,0,,,3,,,,,,,,,,,,,switch,letter,lettSwt,k,vtsPrac,24,0,24,0,1,1.3852,,,,,,,,,,,,,,,,,,,,,,,
295777,2022-11-14_11h46.25.897,vts_reward_expectancy_bt,2022.2.4,Win32,60.31363088,Chrome,1280,720,,,,,0,702,,,,,,,,,,,,,,,,,132,B,hexagon,1,0,,,3,,,,,,,,,,,,,switch,number,numSwt,d,vtsPrac,25,0,25,0,1,1.4384,,,,,,,,,,,,,,,,,,,,,,,
295777,2022-11-14_11h46.25.897,vts_reward_expectancy_bt,2022.2.4,Win32,60.31363088,Chrome,1280,720,,,,,0,702,,,,,,,,,,,,,,,,,181,W,triangle,1,0,,,3,,,,,,,,,,,,,repeat,number,numRpt,f,vtsPrac,26,0,26,0,1,0.8249,,,,,,,,,,,,,,,,,,,,,,,
295777,2022-11-14_11h46.25.897,vts_reward_expectancy_bt,2022.2.4,Win32,60.31363088,Chrome,1280,720,,,,,0,702,,,,,,,,,,,,,,,,,160,Y,hexagon,1,0,,,3,,,,,,,,,,,,,repeat,number,numRpt,f,vtsPrac,27,0,27,0,1,0.8383,,,,,,,,,,,,,,,,,,,,,,,
295777,2022-11-14_11h46.25.897,vts_reward_expectancy_bt,2022.2.4,Win32,60.31363088,Chrome,1280,720,,,,,0,702,,,,,,,,,,,,,,,,,167,H,hexagon,1,0,,,3,,,,,,,,,,,,,repeat,number,numRpt,f,vtsPrac,28,0,28,0,1,0.9068,,,,,,,,,,,,,,,,,,,,,,,
295777,2022-11-14_11h46.25.897,vts_reward_expectancy_bt,2022.2.4,Win32,60.31363088,Chrome,1280,720,,,,,0,702,,,,,,,,,,,,,,,,,125,Y,circle,1,0,,,3,,,,,,,,,,,,,switch,letter,lettSwt,k,vtsPrac,29,0,29,0,1,1.1914,,,,,,,,,,,,,,,,,,,,,,,
295777,2022-11-14_11h46.25.897,vts_reward_expectancy_bt,2022.2.4,Win32,60.31363088,Chrome,1280,720,,,,,0,702,,,,,,,,,,,,,,,,,132,W,triangle,1,0,,,3,,,,,,,,,,,,,switch,number,numSwt,d,vtsPrac,30,0,30,0,1,1.5672,,,,,,,,,,,,,,,,,,,,,,,
295777,2022-11-14_11h46.25.897,vts_reward_expectancy_bt,2022.2.4,Win32,60.31363088,Chrome,1280,720,,,,,0,702,,,,,,,,,,,,,,,,,174,B,star,1,0,,,3,,,,,,,,,,,,,switch,letter,lettSwt,j,vtsPrac,31,0,31,0,1,1.2893,,,,,,,,,,,,,,,,,,,,,,,
295777,2022-11-14_11h46.25.897,vts_reward_expectancy_bt,2022.2.4,Win32,60.31363088,Chrome,1280,720,,,,,,,,,,,,,,,,,,,,,,,,,,,,,,,,,,,,,,,,,,,,,,,,,,,,,,,,,,,,,,,,,,,,,,,,,,,,
295777,2022-11-14_11h46.25.897,vts_reward_expectancy_bt,2022.2.4,Win32,60.31363088,Chrome,1280,720,,,,,,,,,,,,,,,,,,,,,,,,,,,,,,,,,,,,,,,,,,,,,,,,,,,,,,,,,,,,,,,,,,,,,,,,,,,,
295777,2022-11-14_11h46.25.897,vts_reward_expectancy_bt,2022.2.4,Win32,60.31363088,Chrome,1280,720,,,,,0,702,,,,,,,,,,,,,,,,,174,F,hexagon,1,0,,,,,,,,,,,,,,,,repeat,letter,lettRpt,j,noRew,,,,,,1.6512,0,0,0,0,0,1,,,,,,,,,,,,,,,,,
295777,2022-11-14_11h46.25.897,vts_reward_expectancy_bt,2022.2.4,Win32,60.31363088,Chrome,1280,720,,,,,0,702,,,,,,,,,,,,,,,,,132,B,circle,1,0,,,,,,,,,,,,,,,,repeat,letter,lettRpt,j,noRew,,,,,,0.9055,0,1,0,1,0,1,,,,,,,,,,,,,,,,,
295777,2022-11-14_11h46.25.897,vts_reward_expectancy_bt,2022.2.4,Win32,60.31363088,Chrome,1280,720,,,,,0,702,,,,,,,,,,,,,,,,,160,H,hexagon,1,0,,,,,,,,,,,,,,,,switch,number,numSwt,f,noRew,,,,,,1.6679,0,2,0,2,0,1,,,,,,,,,,,,,,,,,
295777,2022-11-14_11h46.25.897,vts_reward_expectancy_bt,2022.2.4,Win32,60.31363088,Chrome,1280,720,,,,,0,702,,,,,,,,,,,,,,,,,146,S,circle,1,0,,,,,,,,,,,,,,,,repeat,number,numRpt,d,noRew,,,,,,1.4673,0,3,0,3,0,1,,,,,,,,,,,,,,,,,
295777,2022-11-14_11h46.25.897,vts_reward_expectancy_bt,2022.2.4,Win32,60.31363088,Chrome,1280,720,,,,,0,702,,,,,,,,,,,,,,,,,174,F,hexagon,1,0,,,,,,,,,,,,,,,,switch,letter,lettSwt,j,noRew,,,,,,0.8934,0,4,0,4,0,1,,,,,,,,,,,,,,,,,
295777,2022-11-14_11h46.25.897,vts_reward_expectancy_bt,2022.2.4,Win32,60.31363088,Chrome,1280,720,,,,,0,702,,,,,,,,,,,,,,,,,132,B,circle,1,0,,,,,,,,,,,,,,,,switch,number,numSwt,d,noRew,,,,,,1.0674,0,5,0,5,0,1,,,,,,,,,,,,,,,,,
295777,2022-11-14_11h46.25.897,vts_reward_expectancy_bt,2022.2.4,Win32,60.31363088,Chrome,1280,720,,,,,0,702,,,,,,,,,,,,,,,,,160,H,triangle,1,0,,,,,,,,,,,,,,,,repeat,number,numRpt,f,noRew,,,,,,0.9529,0,6,0,6,0,1,,,,,,,,,,,,,,,,,
295777,2022-11-14_11h46.25.897,vts_reward_expectancy_bt,2022.2.4,Win32,60.31363088,Chrome,1280,720,,,,,0,702,,,,,,,,,,,,,,,,,146,S,circle,1,0,,,,,,,,,,,,,,,,switch,letter,lettSwt,k,noRew,,,,,,1.8341,0,7,0,7,0,1,,,,,,,,,,,,,,,,,
295777,2022-11-14_11h46.25.897,vts_reward_expectancy_bt,2022.2.4,Win32,60.31363088,Chrome,1280,720,,,,,0,702,,,,,,,,,,,,,,,,,167,W,triangle,1,0,,,,,,,,,,,,,,,,repeat,letter,lettRpt,k,noRew,,,,,,0.7945,0,8,0,8,0,1,,,,,,,,,,,,,,,,,
295777,2022-11-14_11h46.25.897,vts_reward_expectancy_bt,2022.2.4,Win32,60.31363088,Chrome,1280,720,,,,,0,702,,,,,,,,,,,,,,,,,160,H,star,1,0,,,,,,,,,,,,,,,,switch,number,numSwt,f,noRew,,,,,,0.7012,0,9,0,9,0,1,,,,,,,,,,,,,,,,,
295777,2022-11-14_11h46.25.897,vts_reward_expectancy_bt,2022.2.4,Win32,60.31363088,Chrome,1280,720,,,,,0,702,,,,,,,,,,,,,,,,,174,D,triangle,1,0,,,,,,,,,,,,,,,,switch,letter,lettSwt,j,noRew,,,,,,1.0547,0,10,0,10,0,1,,,,,,,,,,,,,,,,,
295777,2022-11-14_11h46.25.897,vts_reward_expectancy_bt,2022.2.4,Win32,60.31363088,Chrome,1280,720,,,,,0,702,,,,,,,,,,,,,,,,,181,F,star,1,0,,,,,,,,,,,,,,,,switch,number,numSwt,f,noRew,,,,,,0.7068,0,11,0,11,0,1,,,,,,,,,,,,,,,,,
295777,2022-11-14_11h46.25.897,vts_reward_expectancy_bt,2022.2.4,Win32,60.31363088,Chrome,1280,720,,,,,0,702,,,,,,,,,,,,,,,,,125,U,hexagon,1,0,,,,,,,,,,,,,,,,switch,letter,lettSwt,k,noRew,,,,,,1.9706,0,12,0,12,0,1,,,,,,,,,,,,,,,,,
295777,2022-11-14_11h46.25.897,vts_reward_expectancy_bt,2022.2.4,Win32,60.31363088,Chrome,1280,720,,,,,0,702,,,,,,,,,,,,,,,,,146,S,star,1,0,,,,,,,,,,,,,,,,switch,number,numSwt,d,noRew,,,,,,1.3587,0,13,0,13,0,1,,,,,,,,,,,,,,,,,
295777,2022-11-14_11h46.25.897,vts_reward_expectancy_bt,2022.2.4,Win32,60.31363088,Chrome,1280,720,,,,,0,702,,,,,,,,,,,,,,,,,174,D,triangle,1,0,,,,,,,,,,,,,,,,repeat,number,numRpt,f,noRew,,,,,,0.6199,0,14,0,14,0,1,,,,,,,,,,,,,,,,,
295777,2022-11-14_11h46.25.897,vts_reward_expectancy_bt,2022.2.4,Win32,60.31363088,Chrome,1280,720,,,,,0,702,,,,,,,,,,,,,,,,,167,H,circle,1,0,,,,,,,,,,,,,,,,repeat,number,numRpt,f,noRew,,,,,,0.6097,0,15,0,15,0,1,,,,,,,,,,,,,,,,,
295777,2022-11-14_11h46.25.897,vts_reward_expectancy_bt,2022.2.4,Win32,60.31363088,Chrome,1280,720,,,,,0,702,,,,,,,,,,,,,,,,,181,Y,hexagon,1,0,,,,,,,,,,,,,,,,repeat,number,numRpt,f,noRew,,,,,,0.6665,0,16,0,16,0,1,,,,,,,,,,,,,,,,,
295777,2022-11-14_11h46.25.897,vts_reward_expectancy_bt,2022.2.4,Win32,60.31363088,Chrome,1280,720,,,,,0,702,,,,,,,,,,,,,,,,,146,B,star,1,0,,,,,,,,,,,,,,,,switch,letter,lettSwt,j,noRew,,,,,,0.7873,0,17,0,17,0,1,,,,,,,,,,,,,,,,,
295777,2022-11-14_11h46.25.897,vts_reward_expectancy_bt,2022.2.4,Win32,60.31363088,Chrome,1280,720,,,,,0,702,,,,,,,,,,,,,,,,,167,U,hexagon,1,0,,,,,,,,,,,,,,,,repeat,letter,lettRpt,k,noRew,,,,,,0.7755,0,18,0,18,0,1,,,,,,,,,,,,,,,,,
295777,2022-11-14_11h46.25.897,vts_reward_expectancy_bt,2022.2.4,Win32,60.31363088,Chrome,1280,720,,,,,0,702,,,,,,,,,,,,,,,,,139,W,circle,1,0,,,,,,,,,,,,,,,,switch,number,numSwt,d,noRew,,,,,,1.4594,0,19,0,19,0,1,,,,,,,,,,,,,,,,,
295777,2022-11-14_11h46.25.897,vts_reward_expectancy_bt,2022.2.4,Win32,60.31363088,Chrome,1280,720,,,,,0,702,,,,,,,,,,,,,,,,,146,F,triangle,1,0,,,,,,,,,,,,,,,,switch,letter,lettSwt,j,noRew,,,,,,0.7265,0,20,0,20,0,1,,,,,,,,,,,,,,,,,
295777,2022-11-14_11h46.25.897,vts_reward_expectancy_bt,2022.2.4,Win32,60.31363088,Chrome,1280,720,,,,,0,702,,,,,,,,,,,,,,,,,132,B,circle,1,0,,,,,,,,,,,,,,,,repeat,letter,lettRpt,j,noRew,,,,,,0.7888,0,21,0,21,0,1,,,,,,,,,,,,,,,,,
295777,2022-11-14_11h46.25.897,vts_reward_expectancy_bt,2022.2.4,Win32,60.31363088,Chrome,1280,720,,,,,0,702,,,,,,,,,,,,,,,,,181,Y,triangle,1,0,,,,,,,,,,,,,,,,switch,number,numSwt,f,noRew,,,,,,0.6238,0,22,0,22,0,1,,,,,,,,,,,,,,,,,
295777,2022-11-14_11h46.25.897,vts_reward_expectancy_bt,2022.2.4,Win32,60.31363088,Chrome,1280,720,,,,,0,702,,,,,,,,,,,,,,,,,167,W,star,1,0,,,,,,,,,,,,,,,,repeat,number,numRpt,f,noRew,,,,,,0.5839,0,23,0,23,0,1,,,,,,,,,,,,,,,,,
295777,2022-11-14_11h46.25.897,vts_reward_expectancy_bt,2022.2.4,Win32,60.31363088,Chrome,1280,720,,,,,0,702,,,,,,,,,,,,,,,,,167,F,triangle,1,0,,,,,,,,,,,,,,,,repeat,number,numRpt,f,noRew,,,,,,0.4881,0,24,0,24,0,1,,,,,,,,,,,,,,,,,
295777,2022-11-14_11h46.25.897,vts_reward_expectancy_bt,2022.2.4,Win32,60.31363088,Chrome,1280,720,,,,,0,702,,,,,,,,,,,,,,,,,146,U,circle,1,0,,,,,,,,,,,,,,,,switch,letter,lettSwt,k,noRew,,,,,,1.3171,0,25,0,25,0,1,,,,,,,,,,,,,,,,,
295777,2022-11-14_11h46.25.897,vts_reward_expectancy_bt,2022.2.4,Win32,60.31363088,Chrome,1280,720,,,,,0,702,,,,,,,,,,,,,,,,,174,H,star,-1,0,,,,,,,,,,,,,,,,switch,no_choice,NA,,noRew,,,,,,,0,26,0,26,0,1,,,,,,,,,,,,,,,,,
295777,2022-11-14_11h46.25.897,vts_reward_expectancy_bt,2022.2.4,Win32,60.31363088,Chrome,1280,720,,,,,0,702,,,,,,,,,,,,,,,,,125,S,circle,1,0,,,,,,,,,,,,,,,,switch,letter,lettSwt,k,noRew,,,,,,0.7873,0,27,0,27,0,1,,,,,,,,,,,,,,,,,
295777,2022-11-14_11h46.25.897,vts_reward_expectancy_bt,2022.2.4,Win32,60.31363088,Chrome,1280,720,,,,,0,702,,,,,,,,,,,,,,,,,167,B,star,1,0,,,,,,,,,,,,,,,,switch,number,numSwt,f,noRew,,,,,,0.7496,0,28,0,28,0,1,,,,,,,,,,,,,,,,,
295777,2022-11-14_11h46.25.897,vts_reward_expectancy_bt,2022.2.4,Win32,60.31363088,Chrome,1280,720,,,,,0,702,,,,,,,,,,,,,,,,,181,W,hexagon,1,0,,,,,,,,,,,,,,,,repeat,number,numRpt,f,noRew,,,,,,0.7695,0,29,0,29,0,1,,,,,,,,,,,,,,,,,
295777,2022-11-14_11h46.25.897,vts_reward_expectancy_bt,2022.2.4,Win32,60.31363088,Chrome,1280,720,,,,,0,702,,,,,,,,,,,,,,,,,146,Y,star,1,0,,,,,,,,,,,,,,,,switch,letter,lettSwt,k,noRew,,,,,,1.7857,0,30,0,30,0,1,,,,,,,,,,,,,,,,,
295777,2022-11-14_11h46.25.897,vts_reward_expectancy_bt,2022.2.4,Win32,60.31363088,Chrome,1280,720,,,,,0,702,,,,,,,,,,,,,,,,,125,H,triangle,1,0,,,,,,,,,,,,,,,,repeat,letter,lettRpt,j,noRew,,,,,,1.1684,0,31,0,31,0,1,,,,,,,,,,,,,,,,,
295777,2022-11-14_11h46.25.897,vts_reward_expectancy_bt,2022.2.4,Win32,60.31363088,Chrome,1280,720,,,,,0,702,,,,,,,,,,,,,,,,,160,B,triangle,1,0,,,,,,,,,,,,,,,,switch,number,numSwt,f,noRew,,,,,,1.4676,0,32,0,32,0,1,,,,,,,,,,,,,,,,,
295777,2022-11-14_11h46.25.897,vts_reward_expectancy_bt,2022.2.4,Win32,60.31363088,Chrome,1280,720,,,,,0,702,,,,,,,,,,,,,,,,,139,W,hexagon,1,0,,,,,,,,,,,,,,,,repeat,number,numRpt,d,noRew,,,,,,1.5712,0,33,0,33,0,1,,,,,,,,,,,,,,,,,
295777,2022-11-14_11h46.25.897,vts_reward_expectancy_bt,2022.2.4,Win32,60.31363088,Chrome,1280,720,,,,,0,702,,,,,,,,,,,,,,,,,174,S,hexagon,1,0,,,,,,,,,,,,,,,,repeat,number,numRpt,f,noRew,,,,,,1.3392,0,34,0,34,0,1,,,,,,,,,,,,,,,,,
295777,2022-11-14_11h46.25.897,vts_reward_expectancy_bt,2022.2.4,Win32,60.31363088,Chrome,1280,720,,,,,0,702,,,,,,,,,,,,,,,,,132,H,triangle,1,0,,,,,,,,,,,,,,,,switch,letter,lettSwt,j,noRew,,,,,,1.659,0,35,0,35,0,1,,,,,,,,,,,,,,,,,
295777,2022-11-14_11h46.25.897,vts_reward_expectancy_bt,2022.2.4,Win32,60.31363088,Chrome,1280,720,,,,,0,702,,,,,,,,,,,,,,,,,132,H,circle,1,0,,,,,,,,,,,,,,,,repeat,letter,lettRpt,j,noRew,,,,,,1.4027,0,36,0,36,0,1,,,,,,,,,,,,,,,,,
295777,2022-11-14_11h46.25.897,vts_reward_expectancy_bt,2022.2.4,Win32,60.31363088,Chrome,1280,720,,,,,0,702,,,,,,,,,,,,,,,,,160,B,triangle,1,0,,,,,,,,,,,,,,,,switch,number,numSwt,f,noRew,,,,,,1.4278,0,37,0,37,0,1,,,,,,,,,,,,,,,,,
295777,2022-11-14_11h46.25.897,vts_reward_expectancy_bt,2022.2.4,Win32,60.31363088,Chrome,1280,720,,,,,0,702,,,,,,,,,,,,,,,,,167,Y,circle,1,0,,,,,,,,,,,,,,,,repeat,number,numRpt,f,noRew,,,,,,1.4924,0,38,0,38,0,1,,,,,,,,,,,,,,,,,
295777,2022-11-14_11h46.25.897,vts_reward_expectancy_bt,2022.2.4,Win32,60.31363088,Chrome,1280,720,,,,,0,702,,,,,,,,,,,,,,,,,174,U,hexagon,1,0,,,,,,,,,,,,,,,,switch,letter,lettSwt,k,noRew,,,,,,1.251,0,39,0,39,0,1,,,,,,,,,,,,,,,,,
295777,2022-11-14_11h46.25.897,vts_reward_expectancy_bt,2022.2.4,Win32,60.31363088,Chrome,1280,720,,,,,0,702,,,,,,,,,,,,,,,,,181,W,triangle,1,0,,,,,,,,,,,,,,,,repeat,letter,lettRpt,k,noRew,,,,,,1.7427,0,40,0,40,0,1,,,,,,,,,,,,,,,,,
295777,2022-11-14_11h46.25.897,vts_reward_expectancy_bt,2022.2.4,Win32,60.31363088,Chrome,1280,720,,,,,0,702,,,,,,,,,,,,,,,,,160,D,hexagon,1,0,,,,,,,,,,,,,,,,switch,number,numSwt,f,noRew,,,,,,0.7012,0,41,0,41,0,1,,,,,,,,,,,,,,,,,
295777,2022-11-14_11h46.25.897,vts_reward_expectancy_bt,2022.2.4,Win32,60.31363088,Chrome,1280,720,,,,,0,702,,,,,,,,,,,,,,,,,146,U,circle,1,0,,,,,,,,,,,,,,,,repeat,number,numRpt,d,noRew,,,,,,1.5343,0,42,0,42,0,1,,,,,,,,,,,,,,,,,
295777,2022-11-14_11h46.25.897,vts_reward_expectancy_bt,2022.2.4,Win32,60.31363088,Chrome,1280,720,,,,,0,702,,,,,,,,,,,,,,,,,174,S,hexagon,1,0,,,,,,,,,,,,,,,,switch,letter,lettSwt,k,noRew,,,,,,2.3341,0,43,0,43,0,1,,,,,,,,,,,,,,,,,
295777,2022-11-14_11h46.25.897,vts_reward_expectancy_bt,2022.2.4,Win32,60.31363088,Chrome,1280,720,,,,,0,702,,,,,,,,,,,,,,,,,174,S,triangle,1,0,,,,,,,,,,,,,,,,switch,number,numSwt,f,noRew,,,,,,0.7016,0,44,0,44,0,1,,,,,,,,,,,,,,,,,
295777,2022-11-14_11h46.25.897,vts_reward_expectancy_bt,2022.2.4,Win32,60.31363088,Chrome,1280,720,,,,,0,702,,,,,,,,,,,,,,,,,146,W,circle,1,0,,,,,,,,,,,,,,,,repeat,number,numRpt,d,noRew,,,,,,0.6342,0,45,0,45,0,1,,,,,,,,,,,,,,,,,
295777,2022-11-14_11h46.25.897,vts_reward_expectancy_bt,2022.2.4,Win32,60.31363088,Chrome,1280,720,,,,,0,702,,,,,,,,,,,,,,,,,125,U,triangle,1,0,,,,,,,,,,,,,,,,switch,letter,lettSwt,k,noRew,,,,,,0.901,0,46,0,46,0,1,,,,,,,,,,,,,,,,,
295777,2022-11-14_11h46.25.897,vts_reward_expectancy_bt,2022.2.4,Win32,60.31363088,Chrome,1280,720,,,,,0,702,,,,,,,,,,,,,,,,,139,Y,hexagon,1,0,,,,,,,,,,,,,,,,repeat,letter,lettRpt,k,noRew,,,,,,0.7675,0,47,0,47,0,1,,,,,,,,,,,,,,,,,
295777,2022-11-14_11h46.25.897,vts_reward_expectancy_bt,2022.2.4,Win32,60.31363088,Chrome,1280,720,,,,,0,702,,,,,,,,,,,,,,,,,167,D,star,1,0,,,,,,,,,,,,,,,,switch,number,numSwt,f,noRew,,,,,,0.7364,0,48,0,48,0,1,,,,,,,,,,,,,,,,,
295777,2022-11-14_11h46.25.897,vts_reward_expectancy_bt,2022.2.4,Win32,60.31363088,Chrome,1280,720,,,,,0,702,,,,,,,,,,,,,,,,,181,B,hexagon,1,0,,,,,,,,,,,,,,,,repeat,number,numRpt,f,noRew,,,,,,0.7117,0,49,0,49,0,1,,,,,,,,,,,,,,,,,
295777,2022-11-14_11h46.25.897,vts_reward_expectancy_bt,2022.2.4,Win32,60.31363088,Chrome,1280,720,,,,,0,702,,,,,,,,,,,,,,,,,146,W,triangle,1,0,,,,,,,,,,,,,,,,switch,letter,lettSwt,k,noRew,,,,,,0.7215,0,50,0,50,0,1,,,,,,,,,,,,,,,,,
295777,2022-11-14_11h46.25.897,vts_reward_expectancy_bt,2022.2.4,Win32,60.31363088,Chrome,1280,720,,,,,0,702,,,,,,,,,,,,,,,,,139,Y,circle,1,0,,,,,,,,,,,,,,,,switch,number,numSwt,d,noRew,,,,,,1.3603,0,51,0,51,0,1,,,,,,,,,,,,,,,,,
295777,2022-11-14_11h46.25.897,vts_reward_expectancy_bt,2022.2.4,Win32,60.31363088,Chrome,1280,720,,,,,0,702,,,,,,,,,,,,,,,,,181,B,triangle,1,0,,,,,,,,,,,,,,,,switch,letter,lettSwt,j,noRew,,,,,,0.9504,0,52,0,52,0,1,,,,,,,,,,,,,,,,,
295777,2022-11-14_11h46.25.897,vts_reward_expectancy_bt,2022.2.4,Win32,60.31363088,Chrome,1280,720,,,,,0,702,,,,,,,,,,,,,,,,,132,Y,hexagon,1,0,,,,,,,,,,,,,,,,switch,number,numSwt,d,noRew,,,,,,0.7845,0,53,0,53,0,1,,,,,,,,,,,,,,,,,
295777,2022-11-14_11h46.25.897,vts_reward_expectancy_bt,2022.2.4,Win32,60.31363088,Chrome,1280,720,,,,,0,702,,,,,,,,,,,,,,,,,174,W,triangle,1,0,,,,,,,,,,,,,,,,repeat,number,numRpt,f,noRew,,,,,,0.5502,0,54,0,54,0,1,,,,,,,,,,,,,,,,,
295777,2022-11-14_11h46.25.897,vts_reward_expectancy_bt,2022.2.4,Win32,60.31363088,Chrome,1280,720,,,,,0,702,,,,,,,,,,,,,,,,,139,H,star,1,0,,,,,,,,,,,,,,,,switch,letter,lettSwt,j,noRew,,,,,,0.8184,0,55,0,55,0,1,,,,,,,,,,,,,,,,,
295777,2022-11-14_11h46.25.897,vts_reward_expectancy_bt,2022.2.4,Win32,60.31363088,Chrome,1280,720,,,,,0,702,,,,,,,,,,,,,,,,,132,Y,star,1,0,,,,,,,,,,,,,,,,switch,number,numSwt,d,noRew,,,,,,1.3758,0,56,0,56,0,1,,,,,,,,,,,,,,,,,
295777,2022-11-14_11h46.25.897,vts_reward_expectancy_bt,2022.2.4,Win32,60.31363088,Chrome,1280,720,,,,,0,702,,,,,,,,,,,,,,,,,139,U,triangle,1,0,,,,,,,,,,,,,,,,repeat,number,numRpt,d,noRew,,,,,,0.9002,0,57,0,57,0,1,,,,,,,,,,,,,,,,,
295777,2022-11-14_11h46.25.897,vts_reward_expectancy_bt,2022.2.4,Win32,60.31363088,Chrome,1280,720,,,,,0,702,,,,,,,,,,,,,,,,,146,S,circle,1,0,,,,,,,,,,,,,,,,switch,letter,lettSwt,k,noRew,,,,,,0.8847,0,58,0,58,0,1,,,,,,,,,,,,,,,,,
295777,2022-11-14_11h46.25.897,vts_reward_expectancy_bt,2022.2.4,Win32,60.31363088,Chrome,1280,720,,,,,0,702,,,,,,,,,,,,,,,,,167,B,star,1,0,,,,,,,,,,,,,,,,repeat,letter,lettRpt,j,noRew,,,,,,0.6335,0,59,0,59,0,1,,,,,,,,,,,,,,,,,
295777,2022-11-14_11h46.25.897,vts_reward_expectancy_bt,2022.2.4,Win32,60.31363088,Chrome,1280,720,,,,,0,702,,,,,,,,,,,,,,,,,125,S,hexagon,1,0,,,,,,,,,,,,,,,,repeat,letter,lettRpt,k,noRew,,,,,,1.468,0,60,0,60,0,1,,,,,,,,,,,,,,,,,
295777,2022-11-14_11h46.25.897,vts_reward_expectancy_bt,2022.2.4,Win32,60.31363088,Chrome,1280,720,,,,,0,702,,,,,,,,,,,,,,,,,174,H,circle,1,0,,,,,,,,,,,,,,,,repeat,letter,lettRpt,j,noRew,,,,,,0.967,0,61,0,61,0,1,,,,,,,,,,,,,,,,,
295777,2022-11-14_11h46.25.897,vts_reward_expectancy_bt,2022.2.4,Win32,60.31363088,Chrome,1280,720,,,,,0,702,,,,,,,,,,,,,,,,,181,U,star,1,0,,,,,,,,,,,,,,,,repeat,letter,lettRpt,k,noRew,,,,,,0.8091,0,62,0,62,0,1,,,,,,,,,,,,,,,,,
295777,2022-11-14_11h46.25.897,vts_reward_expectancy_bt,2022.2.4,Win32,60.31363088,Chrome,1280,720,,,,,0,702,,,,,,,,,,,,,,,,,160,Y,hexagon,1,0,,,,,,,,,,,,,,,,repeat,letter,lettRpt,k,noRew,,,,,,0.7426,0,63,0,63,0,1,,,,,,,,,,,,,,,,,
295777,2022-11-14_11h46.25.897,vts_reward_expectancy_bt,2022.2.4,Win32,60.31363088,Chrome,1280,720,,,,,,,,,,,,,,,,,,,,,,,,,,,,,,,,,,,,,,,,,,,,,,,,,,,,,,,,,,,,,,,,,,,,,,,,,,,,
295777,2022-11-14_11h46.25.897,vts_reward_expectancy_bt,2022.2.4,Win32,60.31363088,Chrome,1280,720,,,,,0,702,,,,,,,,,,,,,,,,,125,S,star,1,0,,,,,,,,,,,,,,,,switch,number,numSwt,d,Hi,,,,,,0.9343,0,,,,,,space,10.1708,high,0,0,0,0,1,,,,,,,,,
295777,2022-11-14_11h46.25.897,vts_reward_expectancy_bt,2022.2.4,Win32,60.31363088,Chrome,1280,720,,,,,0,702,,,,,,,,,,,,,,,,,146,H,hexagon,0,0,,,,,,,,,,,,,,,,repeat,number,NA,f,Hi,,,,,,0.54,0,,,,,,,,high,1,0,1,0,1,,,,,,,,,
295777,2022-11-14_11h46.25.897,vts_reward_expectancy_bt,2022.2.4,Win32,60.31363088,Chrome,1280,720,,,,,10,712,,,,,,,,,,,,,,,,,174,W,triangle,1,1,,,,,,,,,,,,,,,,repeat,number,numRpt,f,Hi,,,,,,0.4731,0,,,,,,,,high,2,0,2,0,1,,,,,,,,,
295777,2022-11-14_11h46.25.897,vts_reward_expectancy_bt,2022.2.4,Win32,60.31363088,Chrome,1280,720,,,,,1,713,,,,,,,,,,,,,,,,,139,Y,circle,1,0,,,,,,,,,,,,,,,,switch,letter,lettSwt,k,Lo,,,,,,0.5337,0,,,,,,,,high,3,0,3,0,1,,,,,,,,,
295777,2022-11-14_11h46.25.897,vts_reward_expectancy_bt,2022.2.4,Win32,60.31363088,Chrome,1280,720,,,,,10,723,,,,,,,,,,,,,,,,,167,F,star,1,0,,,,,,,,,,,,,,,,repeat,letter,lettRpt,j,Hi,,,,,,0.5094,0,,,,,,,,high,4,0,4,0,1,,,,,,,,,
295777,2022-11-14_11h46.25.897,vts_reward_expectancy_bt,2022.2.4,Win32,60.31363088,Chrome,1280,720,,,,,1,724,,,,,,,,,,,,,,,,,132,U,hexagon,1,0,,,,,,,,,,,,,,,,switch,number,numSwt,d,Lo,,,,,,0.4279,0,,,,,,,,high,5,0,5,0,1,,,,,,,,,
295777,2022-11-14_11h46.25.897,vts_reward_expectancy_bt,2022.2.4,Win32,60.31363088,Chrome,1280,720,,,,,1,725,,,,,,,,,,,,,,,,,181,B,triangle,1,0,,,,,,,,,,,,,,,,repeat,number,numRpt,f,Hi,,,,,,0.4845,0,,,,,,,,high,6,0,6,0,1,,,,,,,,,
295777,2022-11-14_11h46.25.897,vts_reward_expectancy_bt,2022.2.4,Win32,60.31363088,Chrome,1280,720,,,,,1,726,,,,,,,,,,,,,,,,,160,D,circle,1,0,,,,,,,,,,,,,,,,switch,letter,lettSwt,j,Lo,,,,,,0.7947,0,,,,,,,,high,7,0,7,0,1,,,,,,,,,
295777,2022-11-14_11h46.25.897,vts_reward_expectancy_bt,2022.2.4,Win32,60.31363088,Chrome,1280,720,,,,,10,736,,,,,,,,,,,,,,,,,125,S,triangle,1,0,,,,,,,,,,,,,,,,repeat,letter,lettRpt,k,Hi,,,,,,0.7007,0,,,,,,,,high,8,0,8,0,1,,,,,,,,,
295777,2022-11-14_11h46.25.897,vts_reward_expectancy_bt,2022.2.4,Win32,60.31363088,Chrome,1280,720,,,,,10,746,,,,,,,,,,,,,,,,,146,H,star,1,0,,,,,,,,,,,,,,,,repeat,letter,lettRpt,j,Hi,,,,,,0.5194,0,,,,,,,,high,9,0,9,0,1,,,,,,,,,
295777,2022-11-14_11h46.25.897,vts_reward_expectancy_bt,2022.2.4,Win32,60.31363088,Chrome,1280,720,,,,,1,747,,,,,,,,,,,,,,,,,174,W,circle,1,0,,,,,,,,,,,,,,,,switch,number,numSwt,f,Lo,,,,,,0.6037,0,,,,,,,,high,10,0,10,0,1,,,,,,,,,
295777,2022-11-14_11h46.25.897,vts_reward_expectancy_bt,2022.2.4,Win32,60.31363088,Chrome,1280,720,,,,,1,748,,,,,,,,,,,,,,,,,139,Y,hexagon,1,0,,,,,,,,,,,,,,,,repeat,number,numRpt,d,Lo,,,,,,0.525,0,,,,,,,,high,11,0,11,0,1,,,,,,,,,
295777,2022-11-14_11h46.25.897,vts_reward_expectancy_bt,2022.2.4,Win32,60.31363088,Chrome,1280,720,,,,,10,758,,,,,,,,,,,,,,,,,167,F,triangle,1,0,,,,,,,,,,,,,,,,switch,letter,lettSwt,j,Hi,,,,,,0.6401,0,,,,,,,,high,12,0,12,0,1,,,,,,,,,
295777,2022-11-14_11h46.25.897,vts_reward_expectancy_bt,2022.2.4,Win32,60.31363088,Chrome,1280,720,,,,,1,759,,,,,,,,,,,,,,,,,132,U,hexagon,1,0,,,,,,,,,,,,,,,,repeat,letter,lettRpt,k,Lo,,,,,,0.6606,0,,,,,,,,high,13,0,13,0,1,,,,,,,,,
295777,2022-11-14_11h46.25.897,vts_reward_expectancy_bt,2022.2.4,Win32,60.31363088,Chrome,1280,720,,,,,1,760,,,,,,,,,,,,,,,,,181,B,star,1,0,,,,,,,,,,,,,,,,repeat,letter,lettRpt,j,Hi,,,,,,0.5345,0,,,,,,,,high,14,0,14,0,1,,,,,,,,,
295777,2022-11-14_11h46.25.897,vts_reward_expectancy_bt,2022.2.4,Win32,60.31363088,Chrome,1280,720,,,,,1,761,,,,,,,,,,,,,,,,,160,D,circle,1,0,,,,,,,,,,,,,,,,switch,number,numSwt,f,Lo,,,,,,0.618,0,,,,,,,,high,15,0,15,0,1,,,,,,,,,
295777,2022-11-14_11h46.25.897,vts_reward_expectancy_bt,2022.2.4,Win32,60.31363088,Chrome,1280,720,,,,,1,762,,,,,,,,,,,,,,,,,174,D,hexagon,1,0,,,,,,,,,,,,,,,,repeat,number,numRpt,f,Lo,,,,,,0.7425,0,,,,,,,,high,16,0,16,0,1,,,,,,,,,
295777,2022-11-14_11h46.25.897,vts_reward_expectancy_bt,2022.2.4,Win32,60.31363088,Chrome,1280,720,,,,,10,772,,,,,,,,,,,,,,,,,139,S,triangle,1,0,,,,,,,,,,,,,,,,repeat,number,numRpt,d,Hi,,,,,,0.5502,0,,,,,,,,high,17,0,17,0,1,,,,,,,,,
295777,2022-11-14_11h46.25.897,vts_reward_expectancy_bt,2022.2.4,Win32,60.31363088,Chrome,1280,720,,,,,1,773,,,,,,,,,,,,,,,,,160,B,circle,1,0,,,,,,,,,,,,,,,,switch,letter,lettSwt,j,Lo,,,,,,0.619,0,,,,,,,,high,18,0,18,0,1,,,,,,,,,
295777,2022-11-14_11h46.25.897,vts_reward_expectancy_bt,2022.2.4,Win32,60.31363088,Chrome,1280,720,,,,,0,773,,,,,,,,,,,,,,,,,167,F,star,1,0,,,,,,,,,,,,,,,,repeat,letter,lettRpt,j,Hi,,,,,,1.0689,0,,,,,,,,high,19,0,19,0,1,,,,,,,,,
295777,2022-11-14_11h46.25.897,vts_reward_expectancy_bt,2022.2.4,Win32,60.31363088,Chrome,1280,720,,,,,10,783,,,,,,,,,,,,,,,,,125,W,star,1,0,,,,,,,,,,,,,,,,repeat,letter,lettRpt,k,Hi,,,,,,0.4541,0,,,,,,,,high,20,0,20,0,1,,,,,,,,,
295777,2022-11-14_11h46.25.897,vts_reward_expectancy_bt,2022.2.4,Win32,60.31363088,Chrome,1280,720,,,,,1,784,,,,,,,,,,,,,,,,,181,Y,hexagon,1,0,,,,,,,,,,,,,,,,repeat,letter,lettRpt,k,Lo,,,,,,0.5616,0,,,,,,,,high,21,0,21,0,1,,,,,,,,,
295777,2022-11-14_11h46.25.897,vts_reward_expectancy_bt,2022.2.4,Win32,60.31363088,Chrome,1280,720,,,,,1,785,,,,,,,,,,,,,,,,,146,U,circle,1,0,,,,,,,,,,,,,,,,switch,number,numSwt,d,Lo,,,,,,0.4673,0,,,,,,,,high,22,0,22,0,1,,,,,,,,,
295777,2022-11-14_11h46.25.897,vts_reward_expectancy_bt,2022.2.4,Win32,60.31363088,Chrome,1280,720,,,,,1,786,,,,,,,,,,,,,,,,,132,H,triangle,1,0,,,,,,,,,,,,,,,,repeat,number,numRpt,d,Hi,,,,,,0.4596,0,,,,,,,,high,23,0,23,0,1,,,,,,,,,
295777,2022-11-14_11h46.25.897,vts_reward_expectancy_bt,2022.2.4,Win32,60.31363088,Chrome,1280,720,,,,,1,787,,,,,,,,,,,,,,,,,181,Y,circle,1,0,,,,,,,,,,,,,,,,switch,letter,lettSwt,k,Lo,,,,,,0.6338,0,,,,,,,,high,24,0,24,0,1,,,,,,,,,
295777,2022-11-14_11h46.25.897,vts_reward_expectancy_bt,2022.2.4,Win32,60.31363088,Chrome,1280,720,,,,,10,797,,,,,,,,,,,,,,,,,167,F,star,1,0,,,,,,,,,,,,,,,,repeat,letter,lettRpt,j,Hi,,,,,,0.4872,0,,,,,,,,high,25,0,25,0,1,,,,,,,,,
295777,2022-11-14_11h46.25.897,vts_reward_expectancy_bt,2022.2.4,Win32,60.31363088,Chrome,1280,720,,,,,10,807,,,,,,,,,,,,,,,,,174,W,triangle,1,0,,,,,,,,,,,,,,,,switch,number,numSwt,f,Hi,,,,,,0.5854,0,,,,,,,,high,26,0,26,0,1,,,,,,,,,
295777,2022-11-14_11h46.25.897,vts_reward_expectancy_bt,2022.2.4,Win32,60.31363088,Chrome,1280,720,,,,,1,808,,,,,,,,,,,,,,,,,139,S,hexagon,1,0,,,,,,,,,,,,,,,,repeat,number,numRpt,d,Lo,,,,,,0.4601,0,,,,,,,,high,27,0,27,0,1,,,,,,,,,
295777,2022-11-14_11h46.25.897,vts_reward_expectancy_bt,2022.2.4,Win32,60.31363088,Chrome,1280,720,,,,,10,818,,,,,,,,,,,,,,,,,146,U,star,1,0,,,,,,,,,,,,,,,,repeat,number,numRpt,d,Hi,,,,,,0.5233,0,,,,,,,,high,28,0,28,0,1,,,,,,,,,
295777,2022-11-14_11h46.25.897,vts_reward_expectancy_bt,2022.2.4,Win32,60.31363088,Chrome,1280,720,,,,,10,828,,,,,,,,,,,,,,,,,132,H,triangle,1,0,,,,,,,,,,,,,,,,switch,letter,lettSwt,j,Hi,,,,,,0.7913,0,,,,,,,,high,29,0,29,0,1,,,,,,,,,
295777,2022-11-14_11h46.25.897,vts_reward_expectancy_bt,2022.2.4,Win32,60.31363088,Chrome,1280,720,,,,,1,829,,,,,,,,,,,,,,,,,125,D,circle,1,0,,,,,,,,,,,,,,,,repeat,letter,lettRpt,j,Lo,,,,,,0.5828,0,,,,,,,,high,30,0,30,0,1,,,,,,,,,
295777,2022-11-14_11h46.25.897,vts_reward_expectancy_bt,2022.2.4,Win32,60.31363088,Chrome,1280,720,,,,,1,830,,,,,,,,,,,,,,,,,160,B,hexagon,1,0,,,,,,,,,,,,,,,,switch,number,numSwt,f,Lo,,,,,,0.5835,0,,,,,,,,high,31,0,31,0,1,,,,,,,,,
295777,2022-11-14_11h46.25.897,vts_reward_expectancy_bt,2022.2.4,Win32,60.31363088,Chrome,1280,720,,,,,0,830,,,,,,,,,,,,,,,,,174,B,triangle,1,0,,,,,,,,,,,,,,,,repeat,number,numRpt,f,Hi,,,,,,1.1249,1,,,,,,space,12.1511,high,0,0,0,0,1,,,,,,,,,
295777,2022-11-14_11h46.25.897,vts_reward_expectancy_bt,2022.2.4,Win32,60.31363088,Chrome,1280,720,,,,,1,831,,,,,,,,,,,,,,,,,125,D,hexagon,1,0,,,,,,,,,,,,,,,,repeat,number,numRpt,d,Lo,,,,,,0.5003,1,,,,,,,,high,1,0,1,0,1,,,,,,,,,
295777,2022-11-14_11h46.25.897,vts_reward_expectancy_bt,2022.2.4,Win32,60.31363088,Chrome,1280,720,,,,,1,832,,,,,,,,,,,,,,,,,132,F,circle,1,0,,,,,,,,,,,,,,,,repeat,number,numRpt,d,Lo,,,,,,0.4513,1,,,,,,,,high,2,0,2,0,1,,,,,,,,,
295777,2022-11-14_11h46.25.897,vts_reward_expectancy_bt,2022.2.4,Win32,60.31363088,Chrome,1280,720,,,,,10,842,,,,,,,,,,,,,,,,,160,Y,star,1,0,,,,,,,,,,,,,,,,repeat,number,numRpt,f,Hi,,,,,,0.4398,1,,,,,,,,high,3,0,3,0,1,,,,,,,,,
295777,2022-11-14_11h46.25.897,vts_reward_expectancy_bt,2022.2.4,Win32,60.31363088,Chrome,1280,720,,,,,10,852,,,,,,,,,,,,,,,,,167,U,triangle,1,0,,,,,,,,,,,,,,,,repeat,number,numRpt,f,Hi,,,,,,0.4617,1,,,,,,,,high,4,0,4,0,1,,,,,,,,,
295777,2022-11-14_11h46.25.897,vts_reward_expectancy_bt,2022.2.4,Win32,60.31363088,Chrome,1280,720,,,,,1,853,,,,,,,,,,,,,,,,,139,W,hexagon,1,0,,,,,,,,,,,,,,,,switch,letter,lettSwt,k,Lo,,,,,,0.4979,1,,,,,,,,high,5,0,5,0,1,,,,,,,,,
295777,2022-11-14_11h46.25.897,vts_reward_expectancy_bt,2022.2.4,Win32,60.31363088,Chrome,1280,720,,,,,1,854,,,,,,,,,,,,,,,,,146,H,circle,1,0,,,,,,,,,,,,,,,,repeat,letter,lettRpt,j,Lo,,,,,,0.7514,1,,,,,,,,high,6,0,6,0,1,,,,,,,,,
295777,2022-11-14_11h46.25.897,vts_reward_expectancy_bt,2022.2.4,Win32,60.31363088,Chrome,1280,720,,,,,0,854,,,,,,,,,,,,,,,,,181,S,star,1,0,,,,,,,,,,,,,,,,repeat,letter,lettRpt,k,Hi,,,,,,1.0028,1,,,,,,,,high,7,0,7,0,1,,,,,,,,,
295777,2022-11-14_11h46.25.897,vts_reward_expectancy_bt,2022.2.4,Win32,60.31363088,Chrome,1280,720,,,,,1,855,,,,,,,,,,,,,,,,,174,B,star,1,0,,,,,,,,,,,,,,,,repeat,letter,lettRpt,j,Hi,,,,,,0.4615,1,,,,,,,,high,8,0,8,0,1,,,,,,,,,
295777,2022-11-14_11h46.25.897,vts_reward_expectancy_bt,2022.2.4,Win32,60.31363088,Chrome,1280,720,,,,,1,856,,,,,,,,,,,,,,,,,125,D,hexagon,1,0,,,,,,,,,,,,,,,,repeat,letter,lettRpt,j,Lo,,,,,,0.557,1,,,,,,,,high,9,0,9,0,1,,,,,,,,,
295777,2022-11-14_11h46.25.897,vts_reward_expectancy_bt,2022.2.4,Win32,60.31363088,Chrome,1280,720,,,,,0,856,,,,,,,,,,,,,,,,,132,F,triangle,1,0,,,,,,,,,,,,,,,,repeat,letter,lettRpt,j,Hi,,,,,,0.5387,1,,,,,,,,high,10,0,10,0,1,,,,,,,,,
295777,2022-11-14_11h46.25.897,vts_reward_expectancy_bt,2022.2.4,Win32,60.31363088,Chrome,1280,720,,,,,1,857,,,,,,,,,,,,,,,,,160,Y,circle,1,0,,,,,,,,,,,,,,,,repeat,letter,lettRpt,k,Lo,,,,,,0.4232,1,,,,,,,,high,11,0,11,0,1,,,,,,,,,
295777,2022-11-14_11h46.25.897,vts_reward_expectancy_bt,2022.2.4,Win32,60.31363088,Chrome,1280,720,,,,,0,857,,,,,,,,,,,,,,,,,167,U,triangle,1,0,,,,,,,,,,,,,,,,repeat,letter,lettRpt,k,Hi,,,,,,0.7701,1,,,,,,,,high,12,0,12,0,1,,,,,,,,,
295777,2022-11-14_11h46.25.897,vts_reward_expectancy_bt,2022.2.4,Win32,60.31363088,Chrome,1280,720,,,,,1,858,,,,,,,,,,,,,,,,,139,W,circle,1,0,,,,,,,,,,,,,,,,switch,number,numSwt,d,Lo,,,,,,0.5679,1,,,,,,,,high,13,0,13,0,1,,,,,,,,,
295777,2022-11-14_11h46.25.897,vts_reward_expectancy_bt,2022.2.4,Win32,60.31363088,Chrome,1280,720,,,,,1,859,,,,,,,,,,,,,,,,,146,H,hexagon,1,0,,,,,,,,,,,,,,,,repeat,number,numRpt,d,Lo,,,,,,0.4508,1,,,,,,,,high,14,0,14,0,1,,,,,,,,,
295777,2022-11-14_11h46.25.897,vts_reward_expectancy_bt,2022.2.4,Win32,60.31363088,Chrome,1280,720,,,,,10,869,,,,,,,,,,,,,,,,,181,S,star,1,0,,,,,,,,,,,,,,,,repeat,number,numRpt,f,Hi,,,,,,0.4538,1,,,,,,,,high,15,0,15,0,1,,,,,,,,,
295777,2022-11-14_11h46.25.897,vts_reward_expectancy_bt,2022.2.4,Win32,60.31363088,Chrome,1280,720,,,,,0,869,,,,,,,,,,,,,,,,,174,B,star,1,0,,,,,,,,,,,,,,,,repeat,number,numRpt,f,Hi,,,,,,0.6513,1,,,,,,,,high,16,0,16,0,1,,,,,,,,,
295777,2022-11-14_11h46.25.897,vts_reward_expectancy_bt,2022.2.4,Win32,60.31363088,Chrome,1280,720,,,,,1,870,,,,,,,,,,,,,,,,,167,W,hexagon,1,0,,,,,,,,,,,,,,,,repeat,number,numRpt,f,Lo,,,,,,0.4376,1,,,,,,,,high,17,0,17,0,1,,,,,,,,,
295777,2022-11-14_11h46.25.897,vts_reward_expectancy_bt,2022.2.4,Win32,60.31363088,Chrome,1280,720,,,,,10,880,,,,,,,,,,,,,,,,,181,F,triangle,1,0,,,,,,,,,,,,,,,,repeat,number,numRpt,f,Hi,,,,,,0.4673,1,,,,,,,,high,18,0,18,0,1,,,,,,,,,
295777,2022-11-14_11h46.25.897,vts_reward_expectancy_bt,2022.2.4,Win32,60.31363088,Chrome,1280,720,,,,,1,881,,,,,,,,,,,,,,,,,139,D,circle,1,0,,,,,,,,,,,,,,,,repeat,number,numRpt,d,Lo,,,,,,0.4225,1,,,,,,,,high,19,0,19,0,1,,,,,,,,,
295777,2022-11-14_11h46.25.897,vts_reward_expectancy_bt,2022.2.4,Win32,60.31363088,Chrome,1280,720,,,,,0,881,,,,,,,,,,,,,,,,,146,H,circle,0,0,,,,,,,,,,,,,,,,repeat,number,NA,f,Lo,,,,,,0.5349,1,,,,,,,,high,20,0,20,0,1,,,,,,,,,
295777,2022-11-14_11h46.25.897,vts_reward_expectancy_bt,2022.2.4,Win32,60.31363088,Chrome,1280,720,,,,,0,881,,,,,,,,,,,,,,,,,132,Y,triangle,1,1,,,,,,,,,,,,,,,,repeat,number,numRpt,d,Hi,,,,,,0.4786,1,,,,,,,,high,21,0,21,0,1,,,,,,,,,
295777,2022-11-14_11h46.25.897,vts_reward_expectancy_bt,2022.2.4,Win32,60.31363088,Chrome,1280,720,,,,,10,891,,,,,,,,,,,,,,,,,160,S,star,1,0,,,,,,,,,,,,,,,,repeat,number,numRpt,f,Hi,,,,,,0.4063,1,,,,,,,,high,22,0,22,0,1,,,,,,,,,
295777,2022-11-14_11h46.25.897,vts_reward_expectancy_bt,2022.2.4,Win32,60.31363088,Chrome,1280,720,,,,,10,901,,,,,,,,,,,,,,,,,125,U,hexagon,1,0,,,,,,,,,,,,,,,,repeat,number,numRpt,d,Lo,,,,,,0.5534,1,,,,,,,,high,23,0,23,0,1,,,,,,,,,
295777,2022-11-14_11h46.25.897,vts_reward_expectancy_bt,2022.2.4,Win32,60.31363088,Chrome,1280,720,,,,,1,902,,,,,,,,,,,,,,,,,181,U,star,1,0,,,,,,,,,,,,,,,,switch,letter,lettSwt,k,Hi,,,,,,0.5412,1,,,,,,,,high,24,0,24,0,1,,,,,,,,,
295777,2022-11-14_11h46.25.897,vts_reward_expectancy_bt,2022.2.4,Win32,60.31363088,Chrome,1280,720,,,,,1,903,,,,,,,,,,,,,,,,,139,S,hexagon,1,0,,,,,,,,,,,,,,,,repeat,letter,lettRpt,k,Lo,,,,,,0.5834,1,,,,,,,,high,25,0,25,0,1,,,,,,,,,
295777,2022-11-14_11h46.25.897,vts_reward_expectancy_bt,2022.2.4,Win32,60.31363088,Chrome,1280,720,,,,,10,913,,,,,,,,,,,,,,,,,125,W,triangle,1,0,,,,,,,,,,,,,,,,repeat,letter,lettRpt,k,Hi,,,,,,0.4682,1,,,,,,,,high,26,0,26,0,1,,,,,,,,,
295777,2022-11-14_11h46.25.897,vts_reward_expectancy_bt,2022.2.4,Win32,60.31363088,Chrome,1280,720,,,,,1,914,,,,,,,,,,,,,,,,,167,B,circle,1,0,,,,,,,,,,,,,,,,repeat,letter,lettRpt,j,Lo,,,,,,0.5146,1,,,,,,,,high,27,0,27,0,1,,,,,,,,,
295777,2022-11-14_11h46.25.897,vts_reward_expectancy_bt,2022.2.4,Win32,60.31363088,Chrome,1280,720,,,,,10,924,,,,,,,,,,,,,,,,,132,Y,triangle,1,0,,,,,,,,,,,,,,,,switch,number,numSwt,d,Hi,,,,,,0.3986,1,,,,,,,,high,28,0,28,0,1,,,,,,,,,
295777,2022-11-14_11h46.25.897,vts_reward_expectancy_bt,2022.2.4,Win32,60.31363088,Chrome,1280,720,,,,,0,924,,,,,,,,,,,,,,,,,174,H,star,0,0,,,,,,,,,,,,,,,,switch,letter,NA,k,Hi,,,,,,0.4342,1,,,,,,,,high,29,0,29,0,1,,,,,,,,,
295777,2022-11-14_11h46.25.897,vts_reward_expectancy_bt,2022.2.4,Win32,60.31363088,Chrome,1280,720,,,,,1,925,,,,,,,,,,,,,,,,,146,F,circle,1,1,,,,,,,,,,,,,,,,repeat,letter,lettRpt,j,Lo,,,,,,0.5514,1,,,,,,,,high,30,0,30,0,1,,,,,,,,,
295777,2022-11-14_11h46.25.897,vts_reward_expectancy_bt,2022.2.4,Win32,60.31363088,Chrome,1280,720,,,,,1,926,,,,,,,,,,,,,,,,,160,D,hexagon,1,0,,,,,,,,,,,,,,,,repeat,letter,lettRpt,j,Lo,,,,,,0.5078,1,,,,,,,,high,31,0,31,0,1,,,,,,,,,
295777,2022-11-14_11h46.25.897,vts_reward_expectancy_bt,2022.2.4,Win32,60.31363088,Chrome,1280,720,,,,,1,927,,,,,,,,,,,,,,,,,146,F,circle,1,0,,,,,,,,,,,,,,,,switch,number,numSwt,d,Lo,,,,,,1.1106,2,,,,,,space,1.0376,high,0,0,0,0,1,,,,,,,,,
295777,2022-11-14_11h46.25.897,vts_reward_expectancy_bt,2022.2.4,Win32,60.31363088,Chrome,1280,720,,,,,0,927,,,,,,,,,,,,,,,,,174,B,star,1,0,,,,,,,,,,,,,,,,repeat,number,numRpt,f,Hi,,,,,,0.534,2,,,,,,,,high,1,0,1,0,1,,,,,,,,,
295777,2022-11-14_11h46.25.897,vts_reward_expectancy_bt,2022.2.4,Win32,60.31363088,Chrome,1280,720,,,,,0,927,,,,,,,,,,,,,,,,,181,U,triangle,1,0,,,,,,,,,,,,,,,,repeat,number,numRpt,f,Hi,,,,,,0.4535,2,,,,,,,,high,2,0,2,0,1,,,,,,,,,
295777,2022-11-14_11h46.25.897,vts_reward_expectancy_bt,2022.2.4,Win32,60.31363088,Chrome,1280,720,,,,,1,928,,,,,,,,,,,,,,,,,132,H,hexagon,1,0,,,,,,,,,,,,,,,,repeat,number,numRpt,d,Lo,,,,,,0.3749,2,,,,,,,,high,3,0,3,0,1,,,,,,,,,
295777,2022-11-14_11h46.25.897,vts_reward_expectancy_bt,2022.2.4,Win32,60.31363088,Chrome,1280,720,,,,,1,929,,,,,,,,,,,,,,,,,139,W,circle,1,0,,,,,,,,,,,,,,,,switch,letter,lettSwt,k,Lo,,,,,,0.4839,2,,,,,,,,high,4,0,4,0,1,,,,,,,,,
295777,2022-11-14_11h46.25.897,vts_reward_expectancy_bt,2022.2.4,Win32,60.31363088,Chrome,1280,720,,,,,10,939,,,,,,,,,,,,,,,,,167,Y,star,1,0,,,,,,,,,,,,,,,,repeat,letter,lettRpt,k,Hi,,,,,,0.5009,2,,,,,,,,high,5,0,5,0,1,,,,,,,,,
295777,2022-11-14_11h46.25.897,vts_reward_expectancy_bt,2022.2.4,Win32,60.31363088,Chrome,1280,720,,,,,10,949,,,,,,,,,,,,,,,,,125,D,triangle,1,0,,,,,,,,,,,,,,,,switch,number,numSwt,d,Hi,,,,,,0.4675,2,,,,,,,,high,6,0,6,0,1,,,,,,,,,
295777,2022-11-14_11h46.25.897,vts_reward_expectancy_bt,2022.2.4,Win32,60.31363088,Chrome,1280,720,,,,,1,950,,,,,,,,,,,,,,,,,160,S,hexagon,1,0,,,,,,,,,,,,,,,,repeat,number,numRpt,f,Lo,,,,,,0.417,2,,,,,,,,high,7,0,7,0,1,,,,,,,,,
295777,2022-11-14_11h46.25.897,vts_reward_expectancy_bt,2022.2.4,Win32,60.31363088,Chrome,1280,720,,,,,1,951,,,,,,,,,,,,,,,,,146,F,circle,1,0,,,,,,,,,,,,,,,,switch,letter,lettSwt,j,Lo,,,,,,0.5346,2,,,,,,,,high,8,0,8,0,1,,,,,,,,,
295777,2022-11-14_11h46.25.897,vts_reward_expectancy_bt,2022.2.4,Win32,60.31363088,Chrome,1280,720,,,,,10,961,,,,,,,,,,,,,,,,,174,B,star,1,0,,,,,,,,,,,,,,,,repeat,letter,lettRpt,j,Hi,,,,,,0.4563,2,,,,,,,,high,9,0,9,0,1,,,,,,,,,
295777,2022-11-14_11h46.25.897,vts_reward_expectancy_bt,2022.2.4,Win32,60.31363088,Chrome,1280,720,,,,,1,962,,,,,,,,,,,,,,,,,181,U,hexagon,1,0,,,,,,,,,,,,,,,,repeat,letter,lettRpt,k,Lo,,,,,,0.4115,2,,,,,,,,high,10,0,10,0,1,,,,,,,,,
295777,2022-11-14_11h46.25.897,vts_reward_expectancy_bt,2022.2.4,Win32,60.31363088,Chrome,1280,720,,,,,1,963,,,,,,,,,,,,,,,,,132,H,triangle,1,0,,,,,,,,,,,,,,,,switch,number,numSwt,d,Hi,,,,,,0.46,2,,,,,,,,high,11,0,11,0,1,,,,,,,,,
295777,2022-11-14_11h46.25.897,vts_reward_expectancy_bt,2022.2.4,Win32,60.31363088,Chrome,1280,720,,,,,10,973,,,,,,,,,,,,,,,,,139,W,circle,1,0,,,,,,,,,,,,,,,,repeat,number,numRpt,d,Lo,,,,,,0.6345,2,,,,,,,,high,12,0,12,0,1,,,,,,,,,
295777,2022-11-14_11h46.25.897,vts_reward_expectancy_bt,2022.2.4,Win32,60.31363088,Chrome,1280,720,,,,,0,973,,,,,,,,,,,,,,,,,167,Y,star,1,0,,,,,,,,,,,,,,,,repeat,number,numRpt,f,Hi,,,,,,0.6239,2,,,,,,,,high,13,0,13,0,1,,,,,,,,,
295777,2022-11-14_11h46.25.897,vts_reward_expectancy_bt,2022.2.4,Win32,60.31363088,Chrome,1280,720,,,,,0,973,,,,,,,,,,,,,,,,,125,D,triangle,1,0,,,,,,,,,,,,,,,,repeat,number,numRpt,d,Hi,,,,,,0.4579,2,,,,,,,,high,14,0,14,0,1,,,,,,,,,
295777,2022-11-14_11h46.25.897,vts_reward_expectancy_bt,2022.2.4,Win32,60.31363088,Chrome,1280,720,,,,,1,974,,,,,,,,,,,,,,,,,160,S,hexagon,1,0,,,,,,,,,,,,,,,,repeat,number,numRpt,f,Lo,,,,,,0.4232,2,,,,,,,,high,15,0,15,0,1,,,,,,,,,
295777,2022-11-14_11h46.25.897,vts_reward_expectancy_bt,2022.2.4,Win32,60.31363088,Chrome,1280,720,,,,,1,975,,,,,,,,,,,,,,,,,181,W,hexagon,1,0,,,,,,,,,,,,,,,,repeat,number,numRpt,f,Lo,,,,,,0.4378,2,,,,,,,,high,16,0,16,0,1,,,,,,,,,
295777,2022-11-14_11h46.25.897,vts_reward_expectancy_bt,2022.2.4,Win32,60.31363088,Chrome,1280,720,,,,,1,976,,,,,,,,,,,,,,,,,167,B,circle,1,0,,,,,,,,,,,,,,,,repeat,number,numRpt,f,Lo,,,,,,0.5591,2,,,,,,,,high,17,0,17,0,1,,,,,,,,,
295777,2022-11-14_11h46.25.897,vts_reward_expectancy_bt,2022.2.4,Win32,60.31363088,Chrome,1280,720,,,,,1,977,,,,,,,,,,,,,,,,,146,D,star,1,0,,,,,,,,,,,,,,,,repeat,number,numRpt,d,Hi,,,,,,0.3684,2,,,,,,,,high,18,0,18,0,1,,,,,,,,,
295777,2022-11-14_11h46.25.897,vts_reward_expectancy_bt,2022.2.4,Win32,60.31363088,Chrome,1280,720,,,,,0,977,,,,,,,,,,,,,,,,,139,H,triangle,1,0,,,,,,,,,,,,,,,,repeat,number,numRpt,d,Hi,,,,,,0.478,2,,,,,,,,high,19,0,19,0,1,,,,,,,,,
295777,2022-11-14_11h46.25.897,vts_reward_expectancy_bt,2022.2.4,Win32,60.31363088,Chrome,1280,720,,,,,0,977,,,,,,,,,,,,,,,,,174,U,circle,0,0,,,,,,,,,,,,,,,,switch,letter,NA,j,Hi,,,,,,0.6024,2,,,,,,,,high,20,0,20,0,1,,,,,,,,,
295777,2022-11-14_11h46.25.897,vts_reward_expectancy_bt,2022.2.4,Win32,60.31363088,Chrome,1280,720,,,,,10,987,,,,,,,,,,,,,,,,,132,F,star,1,1,,,,,,,,,,,,,,,,switch,number,numSwt,d,Hi,,,,,,0.4508,2,,,,,,,,high,21,0,21,0,1,,,,,,,,,
295777,2022-11-14_11h46.25.897,vts_reward_expectancy_bt,2022.2.4,Win32,60.31363088,Chrome,1280,720,,,,,10,997,,,,,,,,,,,,,,,,,160,Y,hexagon,1,0,,,,,,,,,,,,,,,,switch,letter,lettSwt,k,Lo,,,,,,0.5024,2,,,,,,,,high,22,0,22,0,1,,,,,,,,,
295777,2022-11-14_11h46.25.897,vts_reward_expectancy_bt,2022.2.4,Win32,60.31363088,Chrome,1280,720,,,,,10,1007,,,,,,,,,,,,,,,,,125,S,triangle,1,0,,,,,,,,,,,,,,,,switch,number,numSwt,d,Hi,,,,,,0.4842,2,,,,,,,,high,23,0,23,0,1,,,,,,,,,
295777,2022-11-14_11h46.25.897,vts_reward_expectancy_bt,2022.2.4,Win32,60.31363088,Chrome,1280,720,,,,,0,1007,,,,,,,,,,,,,,,,,181,S,star,1,0,,,,,,,,,,,,,,,,switch,letter,lettSwt,k,Hi,,,,,,0.7192,2,,,,,,,,high,24,0,24,0,1,,,,,,,,,
295777,2022-11-14_11h46.25.897,vts_reward_expectancy_bt,2022.2.4,Win32,60.31363088,Chrome,1280,720,,,,,1,1008,,,,,,,,,,,,,,,,,125,H,circle,1,0,,,,,,,,,,,,,,,,switch,number,numSwt,d,Lo,,,,,,0.5685,2,,,,,,,,high,25,0,25,0,1,,,,,,,,,
295777,2022-11-14_11h46.25.897,vts_reward_expectancy_bt,2022.2.4,Win32,60.31363088,Chrome,1280,720,,,,,0,1008,,,,,,,,,,,,,,,,,139,F,triangle,1,0,,,,,,,,,,,,,,,,switch,letter,lettSwt,j,Hi,,,,,,0.6014,2,,,,,,,,high,26,0,26,0,1,,,,,,,,,
295777,2022-11-14_11h46.25.897,vts_reward_expectancy_bt,2022.2.4,Win32,60.31363088,Chrome,1280,720,,,,,1,1009,,,,,,,,,,,,,,,,,146,B,hexagon,1,0,,,,,,,,,,,,,,,,repeat,letter,lettRpt,j,Lo,,,,,,0.4683,2,,,,,,,,high,27,0,27,0,1,,,,,,,,,
295777,2022-11-14_11h46.25.897,vts_reward_expectancy_bt,2022.2.4,Win32,60.31363088,Chrome,1280,720,,,,,1,1010,,,,,,,,,,,,,,,,,174,U,circle,1,0,,,,,,,,,,,,,,,,repeat,letter,lettRpt,k,Lo,,,,,,0.5416,2,,,,,,,,high,28,0,28,0,1,,,,,,,,,
295777,2022-11-14_11h46.25.897,vts_reward_expectancy_bt,2022.2.4,Win32,60.31363088,Chrome,1280,720,,,,,10,1020,,,,,,,,,,,,,,,,,160,W,star,1,0,,,,,,,,,,,,,,,,switch,number,numSwt,f,Hi,,,,,,0.468,2,,,,,,,,high,29,0,29,0,1,,,,,,,,,
295777,2022-11-14_11h46.25.897,vts_reward_expectancy_bt,2022.2.4,Win32,60.31363088,Chrome,1280,720,,,,,1,1021,,,,,,,,,,,,,,,,,132,D,hexagon,1,0,,,,,,,,,,,,,,,,repeat,number,numRpt,d,Lo,,,,,,0.4172,2,,,,,,,,high,30,0,30,0,1,,,,,,,,,
295777,2022-11-14_11h46.25.897,vts_reward_expectancy_bt,2022.2.4,Win32,60.31363088,Chrome,1280,720,,,,,0,1021,,,,,,,,,,,,,,,,,167,Y,triangle,1,0,,,,,,,,,,,,,,,,repeat,number,numRpt,f,Hi,,,,,,0.4917,2,,,,,,,,high,31,0,31,0,1,,,,,,,,,
295777,2022-11-14_11h46.25.897,vts_reward_expectancy_bt,2022.2.4,Win32,60.31363088,Chrome,1280,720,,,,,10,1031,,,,,,,,,,,,,,,,,167,W,hexagon,1,0,,,,,,,,,,,,,,,,repeat,number,numRpt,f,Lo,,,,,,0.5217,3,,,,,,space,12.8444,high,0,0,0,0,1,,,,,,,,,
295777,2022-11-14_11h46.25.897,vts_reward_expectancy_bt,2022.2.4,Win32,60.31363088,Chrome,1280,720,,,,,0,1031,,,,,,,,,,,,,,,,,160,U,star,1,0,,,,,,,,,,,,,,,,repeat,number,numRpt,f,Hi,,,,,,0.4536,3,,,,,,,,high,1,0,1,0,1,,,,,,,,,
295777,2022-11-14_11h46.25.897,vts_reward_expectancy_bt,2022.2.4,Win32,60.31363088,Chrome,1280,720,,,,,0,1031,,,,,,,,,,,,,,,,,132,D,triangle,1,0,,,,,,,,,,,,,,,,switch,letter,lettSwt,j,Hi,,,,,,0.5596,3,,,,,,,,high,2,0,2,0,1,,,,,,,,,
295777,2022-11-14_11h46.25.897,vts_reward_expectancy_bt,2022.2.4,Win32,60.31363088,Chrome,1280,720,,,,,1,1032,,,,,,,,,,,,,,,,,181,B,circle,1,0,,,,,,,,,,,,,,,,repeat,letter,lettRpt,j,Lo,,,,,,0.4845,3,,,,,,,,high,3,0,3,0,1,,,,,,,,,
295777,2022-11-14_11h46.25.897,vts_reward_expectancy_bt,2022.2.4,Win32,60.31363088,Chrome,1280,720,,,,,1,1033,,,,,,,,,,,,,,,,,146,F,hexagon,1,0,,,,,,,,,,,,,,,,repeat,letter,lettRpt,j,Lo,,,,,,0.4186,3,,,,,,,,high,4,0,4,0,1,,,,,,,,,
295777,2022-11-14_11h46.25.897,vts_reward_expectancy_bt,2022.2.4,Win32,60.31363088,Chrome,1280,720,,,,,10,1043,,,,,,,,,,,,,,,,,174,Y,star,1,0,,,,,,,,,,,,,,,,switch,number,numSwt,f,Hi,,,,,,0.4386,3,,,,,,,,high,5,0,5,0,1,,,,,,,,,
295777,2022-11-14_11h46.25.897,vts_reward_expectancy_bt,2022.2.4,Win32,60.31363088,Chrome,1280,720,,,,,0,1043,,,,,,,,,,,,,,,,,139,H,triangle,1,0,,,,,,,,,,,,,,,,repeat,number,numRpt,d,Hi,,,,,,0.568,3,,,,,,,,high,6,0,6,0,1,,,,,,,,,
295777,2022-11-14_11h46.25.897,vts_reward_expectancy_bt,2022.2.4,Win32,60.31363088,Chrome,1280,720,,,,,1,1044,,,,,,,,,,,,,,,,,125,S,circle,1,0,,,,,,,,,,,,,,,,switch,letter,lettSwt,k,Lo,,,,,,0.5344,3,,,,,,,,high,7,0,7,0,1,,,,,,,,,
295777,2022-11-14_11h46.25.897,vts_reward_expectancy_bt,2022.2.4,Win32,60.31363088,Chrome,1280,720,,,,,0,1044,,,,,,,,,,,,,,,,,167,W,hexagon,0,0,,,,,,,,,,,,,,,,repeat,letter,NA,j,Lo,,,,,,0.4671,3,,,,,,,,high,8,0,8,0,1,,,,,,,,,
295777,2022-11-14_11h46.25.897,vts_reward_expectancy_bt,2022.2.4,Win32,60.31363088,Chrome,1280,720,,,,,10,1054,,,,,,,,,,,,,,,,,160,U,circle,1,1,,,,,,,,,,,,,,,,repeat,letter,lettRpt,k,Lo,,,,,,0.6168,3,,,,,,,,high,9,0,9,0,1,,,,,,,,,
295777,2022-11-14_11h46.25.897,vts_reward_expectancy_bt,2022.2.4,Win32,60.31363088,Chrome,1280,720,,,,,0,1054,,,,,,,,,,,,,,,,,132,D,triangle,1,0,,,,,,,,,,,,,,,,repeat,letter,lettRpt,j,Hi,,,,,,0.4847,3,,,,,,,,high,10,0,10,0,1,,,,,,,,,
295777,2022-11-14_11h46.25.897,vts_reward_expectancy_bt,2022.2.4,Win32,60.31363088,Chrome,1280,720,,,,,0,1054,,,,,,,,,,,,,,,,,181,B,star,1,0,,,,,,,,,,,,,,,,repeat,letter,lettRpt,j,Hi,,,,,,0.4671,3,,,,,,,,high,11,0,11,0,1,,,,,,,,,
295777,2022-11-14_11h46.25.897,vts_reward_expectancy_bt,2022.2.4,Win32,60.31363088,Chrome,1280,720,,,,,1,1055,,,,,,,,,,,,,,,,,146,F,hexagon,1,0,,,,,,,,,,,,,,,,repeat,letter,lettRpt,j,Lo,,,,,,0.4183,3,,,,,,,,high,12,0,12,0,1,,,,,,,,,
295777,2022-11-14_11h46.25.897,vts_reward_expectancy_bt,2022.2.4,Win32,60.31363088,Chrome,1280,720,,,,,10,1065,,,,,,,,,,,,,,,,,174,Y,circle,1,0,,,,,,,,,,,,,,,,switch,number,numSwt,f,Lo,,,,,,0.3906,3,,,,,,,,high,13,0,13,0,1,,,,,,,,,
295777,2022-11-14_11h46.25.897,vts_reward_expectancy_bt,2022.2.4,Win32,60.31363088,Chrome,1280,720,,,,,10,1075,,,,,,,,,,,,,,,,,139,H,triangle,1,0,,,,,,,,,,,,,,,,switch,letter,lettSwt,j,Hi,,,,,,0.4849,3,,,,,,,,high,14,0,14,0,1,,,,,,,,,
295777,2022-11-14_11h46.25.897,vts_reward_expectancy_bt,2022.2.4,Win32,60.31363088,Chrome,1280,720,,,,,0,1075,,,,,,,,,,,,,,,,,125,S,star,1,0,,,,,,,,,,,,,,,,repeat,letter,lettRpt,k,Hi,,,,,,0.4732,3,,,,,,,,high,15,0,15,0,1,,,,,,,,,
295777,2022-11-14_11h46.25.897,vts_reward_expectancy_bt,2022.2.4,Win32,60.31363088,Chrome,1280,720,,,,,1,1076,,,,,,,,,,,,,,,,,167,D,triangle,1,0,,,,,,,,,,,,,,,,repeat,letter,lettRpt,j,Hi,,,,,,0.3431,3,,,,,,,,high,16,0,16,0,1,,,,,,,,,
295777,2022-11-14_11h46.25.897,vts_reward_expectancy_bt,2022.2.4,Win32,60.31363088,Chrome,1280,720,,,,,0,1076,,,,,,,,,,,,,,,,,132,U,star,1,0,,,,,,,,,,,,,,,,repeat,letter,lettRpt,k,Hi,,,,,,0.5546,3,,,,,,,,high,17,0,17,0,1,,,,,,,,,
295777,2022-11-14_11h46.25.897,vts_reward_expectancy_bt,2022.2.4,Win32,60.31363088,Chrome,1280,720,,,,,10,1086,,,,,,,,,,,,,,,,,125,S,circle,1,0,,,,,,,,,,,,,,,,repeat,letter,lettRpt,k,Lo,,,,,,0.5948,3,,,,,,,,high,18,0,18,0,1,,,,,,,,,
295777,2022-11-14_11h46.25.897,vts_reward_expectancy_bt,2022.2.4,Win32,60.31363088,Chrome,1280,720,,,,,1,1087,,,,,,,,,,,,,,,,,146,W,hexagon,1,0,,,,,,,,,,,,,,,,switch,number,numSwt,d,Lo,,,,,,0.7515,3,,,,,,,,high,19,0,19,0,1,,,,,,,,,
295777,2022-11-14_11h46.25.897,vts_reward_expectancy_bt,2022.2.4,Win32,60.31363088,Chrome,1280,720,,,,,0,1087,,,,,,,,,,,,,,,,,181,Y,star,1,0,,,,,,,,,,,,,,,,repeat,number,numRpt,f,Hi,,,,,,0.4593,3,,,,,,,,high,20,0,20,0,1,,,,,,,,,
295777,2022-11-14_11h46.25.897,vts_reward_expectancy_bt,2022.2.4,Win32,60.31363088,Chrome,1280,720,,,,,1,1088,,,,,,,,,,,,,,,,,160,B,hexagon,1,0,,,,,,,,,,,,,,,,switch,letter,lettSwt,j,Lo,,,,,,0.46,3,,,,,,,,high,21,0,21,0,1,,,,,,,,,
295777,2022-11-14_11h46.25.897,vts_reward_expectancy_bt,2022.2.4,Win32,60.31363088,Chrome,1280,720,,,,,0,1088,,,,,,,,,,,,,,,,,139,H,triangle,1,0,,,,,,,,,,,,,,,,repeat,letter,lettRpt,j,Hi,,,,,,0.5519,3,,,,,,,,high,22,0,22,0,1,,,,,,,,,
295777,2022-11-14_11h46.25.897,vts_reward_expectancy_bt,2022.2.4,Win32,60.31363088,Chrome,1280,720,,,,,1,1089,,,,,,,,,,,,,,,,,174,F,circle,1,0,,,,,,,,,,,,,,,,repeat,letter,lettRpt,j,Lo,,,,,,0.4689,3,,,,,,,,high,23,0,23,0,1,,,,,,,,,
295777,2022-11-14_11h46.25.897,vts_reward_expectancy_bt,2022.2.4,Win32,60.31363088,Chrome,1280,720,,,,,0,1089,,,,,,,,,,,,,,,,,125,U,star,1,0,,,,,,,,,,,,,,,,repeat,letter,lettRpt,k,Hi,,,,,,0.9337,3,,,,,,,,high,24,0,24,0,1,,,,,,,,,
295777,2022-11-14_11h46.25.897,vts_reward_expectancy_bt,2022.2.4,Win32,60.31363088,Chrome,1280,720,,,,,1,1090,,,,,,,,,,,,,,,,,139,Y,circle,1,0,,,,,,,,,,,,,,,,switch,number,numSwt,d,Lo,,,,,,0.5503,3,,,,,,,,high,25,0,25,0,1,,,,,,,,,
295777,2022-11-14_11h46.25.897,vts_reward_expectancy_bt,2022.2.4,Win32,60.31363088,Chrome,1280,720,,,,,1,1091,,,,,,,,,,,,,,,,,167,F,hexagon,1,0,,,,,,,,,,,,,,,,repeat,number,numRpt,f,Lo,,,,,,0.4582,3,,,,,,,,high,26,0,26,0,1,,,,,,,,,
295777,2022-11-14_11h46.25.897,vts_reward_expectancy_bt,2022.2.4,Win32,60.31363088,Chrome,1280,720,,,,,0,1091,,,,,,,,,,,,,,,,,146,B,triangle,1,0,,,,,,,,,,,,,,,,switch,letter,lettSwt,j,Hi,,,,,,0.5253,3,,,,,,,,high,27,0,27,0,1,,,,,,,,,
295777,2022-11-14_11h46.25.897,vts_reward_expectancy_bt,2022.2.4,Win32,60.31363088,Chrome,1280,720,,,,,0,1091,,,,,,,,,,,,,,,,,132,S,triangle,1,0,,,,,,,,,,,,,,,,repeat,letter,lettRpt,k,Hi,,,,,,0.5013,3,,,,,,,,high,28,0,28,0,1,,,,,,,,,
295777,2022-11-14_11h46.25.897,vts_reward_expectancy_bt,2022.2.4,Win32,60.31363088,Chrome,1280,720,,,,,1,1092,,,,,,,,,,,,,,,,,174,D,hexagon,1,0,,,,,,,,,,,,,,,,repeat,letter,lettRpt,j,Lo,,,,,,0.4234,3,,,,,,,,high,29,0,29,0,1,,,,,,,,,
295777,2022-11-14_11h46.25.897,vts_reward_expectancy_bt,2022.2.4,Win32,60.31363088,Chrome,1280,720,,,,,0,1092,,,,,,,,,,,,,,,,,160,W,star,1,0,,,,,,,,,,,,,,,,repeat,letter,lettRpt,k,Hi,,,,,,0.4674,3,,,,,,,,high,30,0,30,0,1,,,,,,,,,
295777,2022-11-14_11h46.25.897,vts_reward_expectancy_bt,2022.2.4,Win32,60.31363088,Chrome,1280,720,,,,,1,1093,,,,,,,,,,,,,,,,,181,H,circle,1,0,,,,,,,,,,,,,,,,switch,number,numSwt,f,Lo,,,,,,0.3744,3,,,,,,,,high,31,0,31,0,1,,,,,,,,,
295777,2022-11-14_11h46.25.897,vts_reward_expectancy_bt,2022.2.4,Win32,60.31363088,Chrome,1280,720,,,,,0,1093,,,,,,,,,,,,,,,,,167,U,triangle,0,0,,,,,,,,,,,,,,,,switch,letter,NA,j,Lo,,,,,,0.4516,4,,,,,,space,0.7008,high,0,0,0,0,1,,,,,,,,,
295777,2022-11-14_11h46.25.897,vts_reward_expectancy_bt,2022.2.4,Win32,60.31363088,Chrome,1280,720,,,,,1,1094,,,,,,,,,,,,,,,,,132,S,hexagon,1,1,,,,,,,,,,,,,,,,repeat,letter,lettRpt,k,Lo,,,,,,0.5347,4,,,,,,,,high,1,0,1,0,1,,,,,,,,,
295777,2022-11-14_11h46.25.897,vts_reward_expectancy_bt,2022.2.4,Win32,60.31363088,Chrome,1280,720,,,,,1,1095,,,,,,,,,,,,,,,,,139,W,circle,1,0,,,,,,,,,,,,,,,,repeat,letter,lettRpt,k,Lo,,,,,,0.5391,4,,,,,,,,high,2,0,2,0,1,,,,,,,,,
295777,2022-11-14_11h46.25.897,vts_reward_expectancy_bt,2022.2.4,Win32,60.31363088,Chrome,1280,720,,,,,0,1095,,,,,,,,,,,,,,,,,181,H,star,1,0,,,,,,,,,,,,,,,,repeat,letter,lettRpt,j,Hi,,,,,,0.5993,4,,,,,,,,high,3,0,3,0,1,,,,,,,,,
295777,2022-11-14_11h46.25.897,vts_reward_expectancy_bt,2022.2.4,Win32,60.31363088,Chrome,1280,720,,,,,0,1095,,,,,,,,,,,,,,,,,160,B,triangle,1,0,,,,,,,,,,,,,,,,repeat,letter,lettRpt,j,Hi,,,,,,0.4674,4,,,,,,,,high,4,0,4,0,1,,,,,,,,,
295777,2022-11-14_11h46.25.897,vts_reward_expectancy_bt,2022.2.4,Win32,60.31363088,Chrome,1280,720,,,,,1,1096,,,,,,,,,,,,,,,,,174,Y,hexagon,1,0,,,,,,,,,,,,,,,,repeat,letter,lettRpt,k,Lo,,,,,,0.5686,4,,,,,,,,high,5,0,5,0,1,,,,,,,,,
295777,2022-11-14_11h46.25.897,vts_reward_expectancy_bt,2022.2.4,Win32,60.31363088,Chrome,1280,720,,,,,1,1097,,,,,,,,,,,,,,,,,146,F,circle,1,0,,,,,,,,,,,,,,,,repeat,letter,lettRpt,j,Lo,,,,,,0.8898,4,,,,,,,,high,6,0,6,0,1,,,,,,,,,
295777,2022-11-14_11h46.25.897,vts_reward_expectancy_bt,2022.2.4,Win32,60.31363088,Chrome,1280,720,,,,,0,1097,,,,,,,,,,,,,,,,,125,D,star,1,0,,,,,,,,,,,,,,,,switch,number,numSwt,d,Hi,,,,,,0.7425,4,,,,,,,,high,7,0,7,0,1,,,,,,,,,
295777,2022-11-14_11h46.25.897,vts_reward_expectancy_bt,2022.2.4,Win32,60.31363088,Chrome,1280,720,,,,,10,1107,,,,,,,,,,,,,,,,,167,U,triangle,1,0,,,,,,,,,,,,,,,,repeat,number,numRpt,f,Hi,,,,,,0.4372,4,,,,,,,,high,8,0,8,0,1,,,,,,,,,
295777,2022-11-14_11h46.25.897,vts_reward_expectancy_bt,2022.2.4,Win32,60.31363088,Chrome,1280,720,,,,,10,1117,,,,,,,,,,,,,,,,,132,S,circle,1,0,,,,,,,,,,,,,,,,repeat,number,numRpt,d,Lo,,,,,,0.3905,4,,,,,,,,high,9,0,9,0,1,,,,,,,,,
295777,2022-11-14_11h46.25.897,vts_reward_expectancy_bt,2022.2.4,Win32,60.31363088,Chrome,1280,720,,,,,0,1117,,,,,,,,,,,,,,,,,139,W,hexagon,0,0,,,,,,,,,,,,,,,,switch,letter,NA,j,Lo,,,,,,0.5559,4,,,,,,,,high,10,0,10,0,1,,,,,,,,,
295777,2022-11-14_11h46.25.897,vts_reward_expectancy_bt,2022.2.4,Win32,60.31363088,Chrome,1280,720,,,,,0,1117,,,,,,,,,,,,,,,,,181,H,star,1,1,,,,,,,,,,,,,,,,repeat,letter,lettRpt,j,Hi,,,,,,0.5401,4,,,,,,,,high,11,0,11,0,1,,,,,,,,,
295777,2022-11-14_11h46.25.897,vts_reward_expectancy_bt,2022.2.4,Win32,60.31363088,Chrome,1280,720,,,,,1,1118,,,,,,,,,,,,,,,,,160,B,hexagon,1,0,,,,,,,,,,,,,,,,repeat,letter,lettRpt,j,Lo,,,,,,0.4909,4,,,,,,,,high,12,0,12,0,1,,,,,,,,,
295777,2022-11-14_11h46.25.897,vts_reward_expectancy_bt,2022.2.4,Win32,60.31363088,Chrome,1280,720,,,,,10,1128,,,,,,,,,,,,,,,,,174,Y,star,1,0,,,,,,,,,,,,,,,,repeat,letter,lettRpt,k,Hi,,,,,,0.467,4,,,,,,,,high,13,0,13,0,1,,,,,,,,,
295777,2022-11-14_11h46.25.897,vts_reward_expectancy_bt,2022.2.4,Win32,60.31363088,Chrome,1280,720,,,,,0,1128,,,,,,,,,,,,,,,,,146,F,circle,0,0,,,,,,,,,,,,,,,,switch,number,NA,f,Hi,,,,,,0.4679,4,,,,,,,,high,14,0,14,0,1,,,,,,,,,
295777,2022-11-14_11h46.25.897,vts_reward_expectancy_bt,2022.2.4,Win32,60.31363088,Chrome,1280,720,,,,,1,1129,,,,,,,,,,,,,,,,,125,D,triangle,1,1,,,,,,,,,,,,,,,,repeat,number,numRpt,d,Hi,,,,,,0.4183,4,,,,,,,,high,15,0,15,0,1,,,,,,,,,
295777,2022-11-14_11h46.25.897,vts_reward_expectancy_bt,2022.2.4,Win32,60.31363088,Chrome,1280,720,,,,,10,1139,,,,,,,,,,,,,,,,,132,S,circle,1,0,,,,,,,,,,,,,,,,repeat,number,numRpt,d,Lo,,,,,,0.5443,4,,,,,,,,high,16,0,16,0,1,,,,,,,,,
295777,2022-11-14_11h46.25.897,vts_reward_expectancy_bt,2022.2.4,Win32,60.31363088,Chrome,1280,720,,,,,0,1139,,,,,,,,,,,,,,,,,181,B,triangle,1,0,,,,,,,,,,,,,,,,repeat,number,numRpt,f,Hi,,,,,,0.5017,4,,,,,,,,high,17,0,17,0,1,,,,,,,,,
295777,2022-11-14_11h46.25.897,vts_reward_expectancy_bt,2022.2.4,Win32,60.31363088,Chrome,1280,720,,,,,0,1139,,,,,,,,,,,,,,,,,125,W,star,0,0,,,,,,,,,,,,,,,,repeat,number,NA,f,Hi,,,,,,0.1327,4,,,,,,,,high,18,0,18,0,1,,,,,,,,,
295777,2022-11-14_11h46.25.897,vts_reward_expectancy_bt,2022.2.4,Win32,60.31363088,Chrome,1280,720,,,,,0,1139,,,,,,,,,,,,,,,,,139,U,hexagon,0,1,,,,,,,,,,,,,,,,repeat,number,NA,f,Hi,,,,,,0.1341,4,,,,,,,,high,19,0,19,0,1,,,,,,,,,
295777,2022-11-14_11h46.25.897,vts_reward_expectancy_bt,2022.2.4,Win32,60.31363088,Chrome,1280,720,,,,,10,1149,,,,,,,,,,,,,,,,,174,Y,hexagon,1,1,,,,,,,,,,,,,,,,repeat,number,numRpt,f,Lo,,,,,,0.168,4,,,,,,,,high,20,0,20,0,1,,,,,,,,,
295777,2022-11-14_11h46.25.897,vts_reward_expectancy_bt,2022.2.4,Win32,60.31363088,Chrome,1280,720,,,,,0,1149,,,,,,,,,,,,,,,,,160,H,star,1,0,,,,,,,,,,,,,,,,repeat,number,numRpt,f,Hi,,,,,,0.5069,4,,,,,,,,high,21,0,21,0,1,,,,,,,,,
295777,2022-11-14_11h46.25.897,vts_reward_expectancy_bt,2022.2.4,Win32,60.31363088,Chrome,1280,720,,,,,10,1159,,,,,,,,,,,,,,,,,146,F,triangle,1,0,,,,,,,,,,,,,,,,switch,letter,lettSwt,j,Hi,,,,,,0.4241,4,,,,,,,,high,22,0,22,0,1,,,,,,,,,
295777,2022-11-14_11h46.25.897,vts_reward_expectancy_bt,2022.2.4,Win32,60.31363088,Chrome,1280,720,,,,,1,1160,,,,,,,,,,,,,,,,,167,D,circle,1,0,,,,,,,,,,,,,,,,switch,number,numSwt,f,Lo,,,,,,0.498,4,,,,,,,,high,23,0,23,0,1,,,,,,,,,
295777,2022-11-14_11h46.25.897,vts_reward_expectancy_bt,2022.2.4,Win32,60.31363088,Chrome,1280,720,,,,,1,1161,,,,,,,,,,,,,,,,,139,F,hexagon,1,0,,,,,,,,,,,,,,,,repeat,number,numRpt,d,Lo,,,,,,0.4359,4,,,,,,,,high,24,0,24,0,1,,,,,,,,,
295777,2022-11-14_11h46.25.897,vts_reward_expectancy_bt,2022.2.4,Win32,60.31363088,Chrome,1280,720,,,,,1,1162,,,,,,,,,,,,,,,,,125,H,triangle,1,0,,,,,,,,,,,,,,,,switch,letter,lettSwt,j,Hi,,,,,,0.4062,4,,,,,,,,high,25,0,25,0,1,,,,,,,,,
295777,2022-11-14_11h46.25.897,vts_reward_expectancy_bt,2022.2.4,Win32,60.31363088,Chrome,1280,720,,,,,0,1162,,,,,,,,,,,,,,,,,181,B,star,0,0,,,,,,,,,,,,,,,,repeat,letter,NA,k,Hi,,,,,,0.4175,4,,,,,,,,high,26,0,26,0,1,,,,,,,,,
295777,2022-11-14_11h46.25.897,vts_reward_expectancy_bt,2022.2.4,Win32,60.31363088,Chrome,1280,720,,,,,0,1162,,,,,,,,,,,,,,,,,167,U,circle,0,1,,,,,,,,,,,,,,,,repeat,letter,NA,j,Hi,,,,,,0.4539,4,,,,,,,,high,27,0,27,0,1,,,,,,,,,
295777,2022-11-14_11h46.25.897,vts_reward_expectancy_bt,2022.2.4,Win32,60.31363088,Chrome,1280,720,,,,,0,1162,,,,,,,,,,,,,,,,,174,Y,triangle,1,1,,,,,,,,,,,,,,,,repeat,letter,lettRpt,k,Hi,,,,,,0.5352,4,,,,,,,,high,28,0,28,0,1,,,,,,,,,
295777,2022-11-14_11h46.25.897,vts_reward_expectancy_bt,2022.2.4,Win32,60.31363088,Chrome,1280,720,,,,,0,1162,,,,,,,,,,,,,,,,,146,D,star,1,0,,,,,,,,,,,,,,,,repeat,letter,lettRpt,j,Hi,,,,,,0.5688,4,,,,,,,,high,29,0,29,0,1,,,,,,,,,
295777,2022-11-14_11h46.25.897,vts_reward_expectancy_bt,2022.2.4,Win32,60.31363088,Chrome,1280,720,,,,,1,1163,,,,,,,,,,,,,,,,,160,W,circle,1,0,,,,,,,,,,,,,,,,repeat,letter,lettRpt,k,Lo,,,,,,0.6486,4,,,,,,,,high,30,0,30,0,1,,,,,,,,,
295777,2022-11-14_11h46.25.897,vts_reward_expectancy_bt,2022.2.4,Win32,60.31363088,Chrome,1280,720,,,,,1,1164,,,,,,,,,,,,,,,,,132,S,hexagon,1,0,,,,,,,,,,,,,,,,switch,number,numSwt,d,Lo,,,,,,0.4843,4,,,,,,,,high,31,0,31,0,1,,,,,,,,,
295777,2022-11-14_11h46.25.897,vts_reward_expectancy_bt,2022.2.4,Win32,60.31363088,Chrome,1280,720,,,,,1,1165,,,,,,,,,,,,,,,,,132,B,hexagon,1,0,,,,,,,,,,,,,,,,switch,letter,lettSwt,j,Lo,,,,,,0.4742,5,,,,,,space,0.3613,high,0,0,0,0,1,,,,,,,,,
295777,2022-11-14_11h46.25.897,vts_reward_expectancy_bt,2022.2.4,Win32,60.31363088,Chrome,1280,720,,,,,1,1166,,,,,,,,,,,,,,,,,181,Y,circle,1,0,,,,,,,,,,,,,,,,repeat,letter,lettRpt,k,Lo,,,,,,0.5134,5,,,,,,,,high,1,0,1,0,1,,,,,,,,,
295777,2022-11-14_11h46.25.897,vts_reward_expectancy_bt,2022.2.4,Win32,60.31363088,Chrome,1280,720,,,,,0,1166,,,,,,,,,,,,,,,,,160,F,triangle,1,0,,,,,,,,,,,,,,,,repeat,letter,lettRpt,j,Hi,,,,,,0.5514,5,,,,,,,,high,2,0,2,0,1,,,,,,,,,
295777,2022-11-14_11h46.25.897,vts_reward_expectancy_bt,2022.2.4,Win32,60.31363088,Chrome,1280,720,,,,,0,1166,,,,,,,,,,,,,,,,,174,W,star,1,0,,,,,,,,,,,,,,,,repeat,letter,lettRpt,k,Hi,,,,,,0.7773,5,,,,,,,,high,3,0,3,0,1,,,,,,,,,
295777,2022-11-14_11h46.25.897,vts_reward_expectancy_bt,2022.2.4,Win32,60.31363088,Chrome,1280,720,,,,,10,1176,,,,,,,,,,,,,,,,,125,U,hexagon,1,0,,,,,,,,,,,,,,,,repeat,letter,lettRpt,k,Lo,,,,,,0.7117,5,,,,,,,,high,4,0,4,0,1,,,,,,,,,
295777,2022-11-14_11h46.25.897,vts_reward_expectancy_bt,2022.2.4,Win32,60.31363088,Chrome,1280,720,,,,,1,1177,,,,,,,,,,,,,,,,,139,H,circle,1,0,,,,,,,,,,,,,,,,switch,number,numSwt,d,Lo,,,,,,0.4666,5,,,,,,,,high,5,0,5,0,1,,,,,,,,,
295777,2022-11-14_11h46.25.897,vts_reward_expectancy_bt,2022.2.4,Win32,60.31363088,Chrome,1280,720,,,,,0,1177,,,,,,,,,,,,,,,,,146,D,triangle,1,0,,,,,,,,,,,,,,,,repeat,number,numRpt,d,Hi,,,,,,0.5699,5,,,,,,,,high,6,0,6,0,1,,,,,,,,,
295777,2022-11-14_11h46.25.897,vts_reward_expectancy_bt,2022.2.4,Win32,60.31363088,Chrome,1280,720,,,,,0,1177,,,,,,,,,,,,,,,,,167,S,star,1,0,,,,,,,,,,,,,,,,repeat,number,numRpt,f,Hi,,,,,,0.4835,5,,,,,,,,high,7,0,7,0,1,,,,,,,,,
295777,2022-11-14_11h46.25.897,vts_reward_expectancy_bt,2022.2.4,Win32,60.31363088,Chrome,1280,720,,,,,0,1177,,,,,,,,,,,,,,,,,132,B,triangle,1,0,,,,,,,,,,,,,,,,repeat,number,numRpt,d,Hi,,,,,,0.4676,5,,,,,,,,high,8,0,8,0,1,,,,,,,,,
295777,2022-11-14_11h46.25.897,vts_reward_expectancy_bt,2022.2.4,Win32,60.31363088,Chrome,1280,720,,,,,1,1178,,,,,,,,,,,,,,,,,181,Y,circle,1,0,,,,,,,,,,,,,,,,repeat,number,numRpt,f,Lo,,,,,,0.4533,5,,,,,,,,high,9,0,9,0,1,,,,,,,,,
295777,2022-11-14_11h46.25.897,vts_reward_expectancy_bt,2022.2.4,Win32,60.31363088,Chrome,1280,720,,,,,10,1188,,,,,,,,,,,,,,,,,160,F,star,1,0,,,,,,,,,,,,,,,,repeat,number,numRpt,f,Hi,,,,,,0.3578,5,,,,,,,,high,10,0,10,0,1,,,,,,,,,
295777,2022-11-14_11h46.25.897,vts_reward_expectancy_bt,2022.2.4,Win32,60.31363088,Chrome,1280,720,,,,,1,1189,,,,,,,,,,,,,,,,,174,W,hexagon,1,0,,,,,,,,,,,,,,,,switch,letter,lettSwt,k,Lo,,,,,,0.6386,5,,,,,,,,high,11,0,11,0,1,,,,,,,,,
295777,2022-11-14_11h46.25.897,vts_reward_expectancy_bt,2022.2.4,Win32,60.31363088,Chrome,1280,720,,,,,1,1190,,,,,,,,,,,,,,,,,125,U,circle,1,0,,,,,,,,,,,,,,,,repeat,letter,lettRpt,k,Lo,,,,,,0.4868,5,,,,,,,,high,12,0,12,0,1,,,,,,,,,
295777,2022-11-14_11h46.25.897,vts_reward_expectancy_bt,2022.2.4,Win32,60.31363088,Chrome,1280,720,,,,,1,1191,,,,,,,,,,,,,,,,,139,H,hexagon,1,0,,,,,,,,,,,,,,,,switch,number,numSwt,d,Lo,,,,,,0.411,5,,,,,,,,high,13,0,13,0,1,,,,,,,,,
295777,2022-11-14_11h46.25.897,vts_reward_expectancy_bt,2022.2.4,Win32,60.31363088,Chrome,1280,720,,,,,0,1191,,,,,,,,,,,,,,,,,146,D,triangle,1,0,,,,,,,,,,,,,,,,repeat,number,numRpt,d,Hi,,,,,,0.8425,5,,,,,,,,high,14,0,14,0,1,,,,,,,,,
295777,2022-11-14_11h46.25.897,vts_reward_expectancy_bt,2022.2.4,Win32,60.31363088,Chrome,1280,720,,,,,0,1191,,,,,,,,,,,,,,,,,167,S,star,-1,0,,,,,,,,,,,,,,,,switch,no_choice,NA,,Hi,,,,,,,5,,,,,,,,high,15,0,15,0,1,,,,,,,,,
295777,2022-11-14_11h46.25.897,vts_reward_expectancy_bt,2022.2.4,Win32,60.31363088,Chrome,1280,720,,,,,10,1201,,,,,,,,,,,,,,,,,132,U,hexagon,1,0,,,,,,,,,,,,,,,,switch,number,numSwt,d,Lo,,,,,,0.5511,5,,,,,,,,high,16,0,16,0,1,,,,,,,,,
295777,2022-11-14_11h46.25.897,vts_reward_expectancy_bt,2022.2.4,Win32,60.31363088,Chrome,1280,720,,,,,10,1211,,,,,,,,,,,,,,,,,160,W,star,1,0,,,,,,,,,,,,,,,,repeat,number,numRpt,f,Hi,,,,,,0.4003,5,,,,,,,,high,17,0,17,0,1,,,,,,,,,
295777,2022-11-14_11h46.25.897,vts_reward_expectancy_bt,2022.2.4,Win32,60.31363088,Chrome,1280,720,,,,,1,1212,,,,,,,,,,,,,,,,,167,S,circle,1,0,,,,,,,,,,,,,,,,switch,letter,lettSwt,k,Lo,,,,,,0.5104,5,,,,,,,,high,18,0,18,0,1,,,,,,,,,
295777,2022-11-14_11h46.25.897,vts_reward_expectancy_bt,2022.2.4,Win32,60.31363088,Chrome,1280,720,,,,,10,1222,,,,,,,,,,,,,,,,,181,Y,triangle,1,0,,,,,,,,,,,,,,,,repeat,letter,lettRpt,k,Hi,,,,,,0.4725,5,,,,,,,,high,19,0,19,0,1,,,,,,,,,
295777,2022-11-14_11h46.25.897,vts_reward_expectancy_bt,2022.2.4,Win32,60.31363088,Chrome,1280,720,,,,,10,1232,,,,,,,,,,,,,,,,,139,F,star,1,0,,,,,,,,,,,,,,,,repeat,letter,lettRpt,j,Hi,,,,,,0.4078,5,,,,,,,,high,20,0,20,0,1,,,,,,,,,
295777,2022-11-14_11h46.25.897,vts_reward_expectancy_bt,2022.2.4,Win32,60.31363088,Chrome,1280,720,,,,,10,1242,,,,,,,,,,,,,,,,,174,D,hexagon,1,0,,,,,,,,,,,,,,,,switch,number,numSwt,f,Lo,,,,,,0.4336,5,,,,,,,,high,21,0,21,0,1,,,,,,,,,
295777,2022-11-14_11h46.25.897,vts_reward_expectancy_bt,2022.2.4,Win32,60.31363088,Chrome,1280,720,,,,,0,1242,,,,,,,,,,,,,,,,,125,B,circle,0,0,,,,,,,,,,,,,,,,repeat,number,NA,f,Lo,,,,,,0.4394,5,,,,,,,,high,22,0,22,0,1,,,,,,,,,
295777,2022-11-14_11h46.25.897,vts_reward_expectancy_bt,2022.2.4,Win32,60.31363088,Chrome,1280,720,,,,,0,1242,,,,,,,,,,,,,,,,,146,H,triangle,1,1,,,,,,,,,,,,,,,,repeat,number,numRpt,d,Hi,,,,,,0.7841,5,,,,,,,,high,23,0,23,0,1,,,,,,,,,
295777,2022-11-14_11h46.25.897,vts_reward_expectancy_bt,2022.2.4,Win32,60.31363088,Chrome,1280,720,,,,,0,1242,,,,,,,,,,,,,,,,,174,H,triangle,1,0,,,,,,,,,,,,,,,,repeat,number,numRpt,f,Hi,,,,,,0.4242,5,,,,,,,,high,24,0,24,0,1,,,,,,,,,
295777,2022-11-14_11h46.25.897,vts_reward_expectancy_bt,2022.2.4,Win32,60.31363088,Chrome,1280,720,,,,,1,1243,,,,,,,,,,,,,,,,,167,F,star,1,0,,,,,,,,,,,,,,,,repeat,number,numRpt,f,Hi,,,,,,0.0008,5,,,,,,,,high,25,0,25,0,1,,,,,,,,,
295777,2022-11-14_11h46.25.897,vts_reward_expectancy_bt,2022.2.4,Win32,60.31363088,Chrome,1280,720,,,,,0,1243,,,,,,,,,,,,,,,,,139,W,circle,0,0,,,,,,,,,,,,,,,,switch,letter,NA,j,Hi,,,,,,0.3407,5,,,,,,,,high,26,0,26,0,1,,,,,,,,,
295777,2022-11-14_11h46.25.897,vts_reward_expectancy_bt,2022.2.4,Win32,60.31363088,Chrome,1280,720,,,,,1,1244,,,,,,,,,,,,,,,,,125,B,hexagon,1,1,,,,,,,,,,,,,,,,repeat,letter,lettRpt,j,Lo,,,,,,0.4256,5,,,,,,,,high,27,0,27,0,1,,,,,,,,,
295777,2022-11-14_11h46.25.897,vts_reward_expectancy_bt,2022.2.4,Win32,60.31363088,Chrome,1280,720,,,,,0,1244,,,,,,,,,,,,,,,,,181,S,triangle,1,0,,,,,,,,,,,,,,,,repeat,letter,lettRpt,k,Hi,,,,,,0.6242,5,,,,,,,,high,28,0,28,0,1,,,,,,,,,
295777,2022-11-14_11h46.25.897,vts_reward_expectancy_bt,2022.2.4,Win32,60.31363088,Chrome,1280,720,,,,,1,1245,,,,,,,,,,,,,,,,,160,Y,circle,1,0,,,,,,,,,,,,,,,,repeat,letter,lettRpt,k,Lo,,,,,,0.5106,5,,,,,,,,high,29,0,29,0,1,,,,,,,,,
295777,2022-11-14_11h46.25.897,vts_reward_expectancy_bt,2022.2.4,Win32,60.31363088,Chrome,1280,720,,,,,1,1246,,,,,,,,,,,,,,,,,146,U,hexagon,1,0,,,,,,,,,,,,,,,,switch,number,numSwt,d,Lo,,,,,,0.4209,5,,,,,,,,high,30,0,30,0,1,,,,,,,,,
295777,2022-11-14_11h46.25.897,vts_reward_expectancy_bt,2022.2.4,Win32,60.31363088,Chrome,1280,720,,,,,0,1246,,,,,,,,,,,,,,,,,132,D,star,1,0,,,,,,,,,,,,,,,,switch,letter,lettSwt,j,Hi,,,,,,0.4334,5,,,,,,,,high,31,0,31,0,1,,,,,,,,,
295777,2022-11-14_11h46.25.897,vts_reward_expectancy_bt,2022.2.4,Win32,60.31363088,Chrome,1280,720,,,,,0,1246,,,,,,,,,,,,,,,,,160,W,triangle,1,0,,,,,,,,,,,,,,,,repeat,letter,lettRpt,k,Hi,,,,,,0.5258,6,,,,,,space,5.9348,high,0,0,0,0,1,,,,,,,,,
295777,2022-11-14_11h46.25.897,vts_reward_expectancy_bt,2022.2.4,Win32,60.31363088,Chrome,1280,720,,,,,1,1247,,,,,,,,,,,,,,,,,174,H,hexagon,1,0,,,,,,,,,,,,,,,,switch,number,numSwt,f,Lo,,,,,,0.4686,6,,,,,,,,high,1,0,1,0,1,,,,,,,,,
295777,2022-11-14_11h46.25.897,vts_reward_expectancy_bt,2022.2.4,Win32,60.31363088,Chrome,1280,720,,,,,1,1248,,,,,,,,,,,,,,,,,132,Y,circle,1,0,,,,,,,,,,,,,,,,repeat,number,numRpt,d,Lo,,,,,,0.4501,6,,,,,,,,high,2,0,2,0,1,,,,,,,,,
295777,2022-11-14_11h46.25.897,vts_reward_expectancy_bt,2022.2.4,Win32,60.31363088,Chrome,1280,720,,,,,10,1258,,,,,,,,,,,,,,,,,125,B,star,1,0,,,,,,,,,,,,,,,,switch,letter,lettSwt,j,Hi,,,,,,0.4008,6,,,,,,,,high,3,0,3,0,1,,,,,,,,,
295777,2022-11-14_11h46.25.897,vts_reward_expectancy_bt,2022.2.4,Win32,60.31363088,Chrome,1280,720,,,,,0,1258,,,,,,,,,,,,,,,,,139,D,triangle,0,0,,,,,,,,,,,,,,,,repeat,letter,NA,k,Hi,,,,,,0.5018,6,,,,,,,,high,4,0,4,0,1,,,,,,,,,
295777,2022-11-14_11h46.25.897,vts_reward_expectancy_bt,2022.2.4,Win32,60.31363088,Chrome,1280,720,,,,,0,1258,,,,,,,,,,,,,,,,,181,S,hexagon,0,1,,,,,,,,,,,,,,,,repeat,letter,NA,j,Hi,,,,,,0.5877,6,,,,,,,,high,5,0,5,0,1,,,,,,,,,
295777,2022-11-14_11h46.25.897,vts_reward_expectancy_bt,2022.2.4,Win32,60.31363088,Chrome,1280,720,,,,,10,1268,,,,,,,,,,,,,,,,,146,F,circle,1,1,,,,,,,,,,,,,,,,repeat,letter,lettRpt,j,Lo,,,,,,0.0844,6,,,,,,,,high,6,0,6,0,1,,,,,,,,,
