participant,date,expName,psychopyVersion,OS,frameRate,browser,xResolution,yResolution,key_resp.keys,key_resp.rt,training_resp.keys,training_resp.rt,points_trial,points_cumul,trainBlock,training.thisRepN,training.thisTrialN,training.thisN,training.thisIndex,training.ran,LTriangleOpac,LCircleOpac,LHexagonOpac,LStarOpac,RTriangleOpac,RCircleOpac,RHexagonOpac,RStarOpac,LShape_ID,RShape_ID,curr_topStim,curr_bottStim,curr_shape,acc,E1,target_resp_prac1.keys,pracBlock,task1_prac_trials.thisRepN,task1_prac_trials.thisTrialN,task1_prac_trials.thisN,task1_prac_trials.thisIndex,task1_prac_trials.ran,target_resp_prac1.rt,target_resp_prac2.keys,target_resp_prac2.rt,task2_praac_trials.thisRepN,task2_praac_trials.thisTrialN,task2_praac_trials.thisN,task2_praac_trials.thisIndex,task2_praac_trials.ran,alt,task,condition,target_resp.keys,rewCond,vts_practice_trials.thisRepN,vts_practice_trials.thisTrialN,vts_practice_trials.thisN,vts_practice_trials.thisIndex,vts_practice_trials.ran,target_resp.rt,blockNum,trials_norew.thisRepN,trials_norew.thisTrialN,trials_norew.thisN,trials_norew.thisIndex,trials_norew.ran,key_resp_2.keys,key_resp_2.rt,rewExpectancy,trials_rew.thisRepN,trials_rew.thisTrialN,trials_rew.thisN,trials_rew.thisIndex,trials_rew.ran,Q1,Q2,Q2_text,Q3,Q4,Q5,Q5_text,xRes,yRes
295765,2022-11-15_11h31.44.005,vts_reward_expectancy_bt,2022.2.4,MacIntel,60.0024001,Chrome,1440,900,,,,,,,,,,,,,,,,,,,,,,,,,,,,,,,,,,,,,,,,,,,,,,,,,,,,,,,,,,,,,,,,,,,,,,,,,,,,
295765,2022-11-15_11h31.44.005,vts_reward_expectancy_bt,2022.2.4,MacIntel,60.0024001,Chrome,1440,900,space,14.0844,,,,,,,,,,,,,,,,,,,,,,,,,,,,,,,,,,,,,,,,,,,,,,,,,,,,,,,,,,,,,,,,,,,,,,,,,,
295765,2022-11-15_11h31.44.005,vts_reward_expectancy_bt,2022.2.4,MacIntel,60.0024001,Chrome,1440,900,,,,,,,,,,,,,,,,,,,,,,,,,,,,,,,,,,,,,,,,,,,,,,,,,,,,,,,,,,,,,,,,,,,,,,,,,,,,
295765,2022-11-15_11h31.44.005,vts_reward_expectancy_bt,2022.2.4,MacIntel,60.0024001,Chrome,1440,900,,,a,1.6103,10,10,0,0,0,0,9,1,0,0,0,1,1,0,0,0,star,triangle,,,,,,,,,,,,,,,,,,,,,,,,,,,,,,,,,,,,,,,,,,,,,,,,,,,,,,
295765,2022-11-15_11h31.44.005,vts_reward_expectancy_bt,2022.2.4,MacIntel,60.0024001,Chrome,1440,900,,,a,1.0484,1,11,0,0,1,1,6,1,0,0,1,0,1,0,0,0,hexagon,triangle,,,,,,,,,,,,,,,,,,,,,,,,,,,,,,,,,,,,,,,,,,,,,,,,,,,,,,
295765,2022-11-15_11h31.44.005,vts_reward_expectancy_bt,2022.2.4,MacIntel,60.0024001,Chrome,1440,900,,,l,0.7894,1,12,0,0,2,2,3,1,0,1,0,0,1,0,0,0,circle,triangle,,,,,,,,,,,,,,,,,,,,,,,,,,,,,,,,,,,,,,,,,,,,,,,,,,,,,,
295765,2022-11-15_11h31.44.005,vts_reward_expectancy_bt,2022.2.4,MacIntel,60.0024001,Chrome,1440,900,,,l,0.6829,10,22,0,0,3,3,5,1,0,1,0,0,0,0,0,1,circle,star,,,,,,,,,,,,,,,,,,,,,,,,,,,,,,,,,,,,,,,,,,,,,,,,,,,,,,
295765,2022-11-15_11h31.44.005,vts_reward_expectancy_bt,2022.2.4,MacIntel,60.0024001,Chrome,1440,900,,,l,0.6227,10,32,0,0,4,4,11,1,0,0,0,1,0,0,1,0,star,hexagon,,,,,,,,,,,,,,,,,,,,,,,,,,,,,,,,,,,,,,,,,,,,,,,,,,,,,,
295765,2022-11-15_11h31.44.005,vts_reward_expectancy_bt,2022.2.4,MacIntel,60.0024001,Chrome,1440,900,,,l,0.817,10,42,0,0,5,5,2,1,1,0,0,0,0,0,0,1,triangle,star,,,,,,,,,,,,,,,,,,,,,,,,,,,,,,,,,,,,,,,,,,,,,,,,,,,,,,
295765,2022-11-15_11h31.44.005,vts_reward_expectancy_bt,2022.2.4,MacIntel,60.0024001,Chrome,1440,900,,,l,0.6329,10,52,0,0,6,6,8,1,0,0,1,0,0,0,0,1,hexagon,star,,,,,,,,,,,,,,,,,,,,,,,,,,,,,,,,,,,,,,,,,,,,,,,,,,,,,,
295765,2022-11-15_11h31.44.005,vts_reward_expectancy_bt,2022.2.4,MacIntel,60.0024001,Chrome,1440,900,,,a,0.5757,1,53,0,0,7,7,1,1,1,0,0,0,0,0,1,0,triangle,hexagon,,,,,,,,,,,,,,,,,,,,,,,,,,,,,,,,,,,,,,,,,,,,,,,,,,,,,,
295765,2022-11-15_11h31.44.005,vts_reward_expectancy_bt,2022.2.4,MacIntel,60.0024001,Chrome,1440,900,,,l,0.7693,10,63,0,0,8,8,0,1,1,0,0,0,0,1,0,0,triangle,circle,,,,,,,,,,,,,,,,,,,,,,,,,,,,,,,,,,,,,,,,,,,,,,,,,,,,,,
295765,2022-11-15_11h31.44.005,vts_reward_expectancy_bt,2022.2.4,MacIntel,60.0024001,Chrome,1440,900,,,a,0.6386,10,73,0,0,9,9,4,1,0,1,0,0,0,0,1,0,circle,hexagon,,,,,,,,,,,,,,,,,,,,,,,,,,,,,,,,,,,,,,,,,,,,,,,,,,,,,,
295765,2022-11-15_11h31.44.005,vts_reward_expectancy_bt,2022.2.4,MacIntel,60.0024001,Chrome,1440,900,,,a,0.8113,10,83,0,0,10,10,10,1,0,0,0,1,0,1,0,0,star ,circle,,,,,,,,,,,,,,,,,,,,,,,,,,,,,,,,,,,,,,,,,,,,,,,,,,,,,,
295765,2022-11-15_11h31.44.005,vts_reward_expectancy_bt,2022.2.4,MacIntel,60.0024001,Chrome,1440,900,,,a,1.2345,1,84,0,0,11,11,7,1,0,0,1,0,0,1,0,0,hexagon,circle,,,,,,,,,,,,,,,,,,,,,,,,,,,,,,,,,,,,,,,,,,,,,,,,,,,,,,
295765,2022-11-15_11h31.44.005,vts_reward_expectancy_bt,2022.2.4,MacIntel,60.0024001,Chrome,1440,900,,,l,0.7219,1,85,0,1,0,12,1,1,1,0,0,0,0,0,1,0,triangle,hexagon,,,,,,,,,,,,,,,,,,,,,,,,,,,,,,,,,,,,,,,,,,,,,,,,,,,,,,
295765,2022-11-15_11h31.44.005,vts_reward_expectancy_bt,2022.2.4,MacIntel,60.0024001,Chrome,1440,900,,,a,0.4825,10,95,0,1,1,13,3,1,0,1,0,0,1,0,0,0,circle,triangle,,,,,,,,,,,,,,,,,,,,,,,,,,,,,,,,,,,,,,,,,,,,,,,,,,,,,,
295765,2022-11-15_11h31.44.005,vts_reward_expectancy_bt,2022.2.4,MacIntel,60.0024001,Chrome,1440,900,,,a,0.5339,1,96,0,1,2,14,4,1,0,1,0,0,0,0,1,0,circle,hexagon,,,,,,,,,,,,,,,,,,,,,,,,,,,,,,,,,,,,,,,,,,,,,,,,,,,,,,
295765,2022-11-15_11h31.44.005,vts_reward_expectancy_bt,2022.2.4,MacIntel,60.0024001,Chrome,1440,900,,,a,0.7364,1,97,0,1,3,15,7,1,0,0,1,0,0,1,0,0,hexagon,circle,,,,,,,,,,,,,,,,,,,,,,,,,,,,,,,,,,,,,,,,,,,,,,,,,,,,,,
295765,2022-11-15_11h31.44.005,vts_reward_expectancy_bt,2022.2.4,MacIntel,60.0024001,Chrome,1440,900,,,l,0.5481,10,107,0,1,4,16,2,1,1,0,0,0,0,0,0,1,triangle,star,,,,,,,,,,,,,,,,,,,,,,,,,,,,,,,,,,,,,,,,,,,,,,,,,,,,,,
295765,2022-11-15_11h31.44.005,vts_reward_expectancy_bt,2022.2.4,MacIntel,60.0024001,Chrome,1440,900,,,l,0.4654,10,117,0,1,5,17,10,1,0,0,0,1,0,1,0,0,star ,circle,,,,,,,,,,,,,,,,,,,,,,,,,,,,,,,,,,,,,,,,,,,,,,,,,,,,,,
295765,2022-11-15_11h31.44.005,vts_reward_expectancy_bt,2022.2.4,MacIntel,60.0024001,Chrome,1440,900,,,a,0.6455,10,127,0,1,6,18,9,1,0,0,0,1,1,0,0,0,star,triangle,,,,,,,,,,,,,,,,,,,,,,,,,,,,,,,,,,,,,,,,,,,,,,,,,,,,,,
295765,2022-11-15_11h31.44.005,vts_reward_expectancy_bt,2022.2.4,MacIntel,60.0024001,Chrome,1440,900,,,l,0.532,1,128,0,1,7,19,11,1,0,0,0,1,0,0,1,0,star,hexagon,,,,,,,,,,,,,,,,,,,,,,,,,,,,,,,,,,,,,,,,,,,,,,,,,,,,,,
295765,2022-11-15_11h31.44.005,vts_reward_expectancy_bt,2022.2.4,MacIntel,60.0024001,Chrome,1440,900,,,a,0.3989,10,138,0,1,8,20,5,1,0,1,0,0,0,0,0,1,circle,star,,,,,,,,,,,,,,,,,,,,,,,,,,,,,,,,,,,,,,,,,,,,,,,,,,,,,,
295765,2022-11-15_11h31.44.005,vts_reward_expectancy_bt,2022.2.4,MacIntel,60.0024001,Chrome,1440,900,,,l,0.5487,1,139,0,1,9,21,8,1,0,0,1,0,0,0,0,1,hexagon,star,,,,,,,,,,,,,,,,,,,,,,,,,,,,,,,,,,,,,,,,,,,,,,,,,,,,,,
295765,2022-11-15_11h31.44.005,vts_reward_expectancy_bt,2022.2.4,MacIntel,60.0024001,Chrome,1440,900,,,a,0.3865,1,140,0,1,10,22,6,1,0,0,1,0,1,0,0,0,hexagon,triangle,,,,,,,,,,,,,,,,,,,,,,,,,,,,,,,,,,,,,,,,,,,,,,,,,,,,,,
295765,2022-11-15_11h31.44.005,vts_reward_expectancy_bt,2022.2.4,MacIntel,60.0024001,Chrome,1440,900,,,l,0.4566,10,150,0,1,11,23,0,1,1,0,0,0,0,1,0,0,triangle,circle,,,,,,,,,,,,,,,,,,,,,,,,,,,,,,,,,,,,,,,,,,,,,,,,,,,,,,
295765,2022-11-15_11h31.44.005,vts_reward_expectancy_bt,2022.2.4,MacIntel,60.0024001,Chrome,1440,900,,,l,0.4228,10,160,0,2,0,24,7,1,0,0,1,0,0,1,0,0,hexagon,circle,,,,,,,,,,,,,,,,,,,,,,,,,,,,,,,,,,,,,,,,,,,,,,,,,,,,,,
295765,2022-11-15_11h31.44.005,vts_reward_expectancy_bt,2022.2.4,MacIntel,60.0024001,Chrome,1440,900,,,l,0.6073,10,170,0,2,1,25,8,1,0,0,1,0,0,0,0,1,hexagon,star,,,,,,,,,,,,,,,,,,,,,,,,,,,,,,,,,,,,,,,,,,,,,,,,,,,,,,
295765,2022-11-15_11h31.44.005,vts_reward_expectancy_bt,2022.2.4,MacIntel,60.0024001,Chrome,1440,900,,,l,2.843,1,171,0,2,2,26,6,1,0,0,1,0,1,0,0,0,hexagon,triangle,,,,,,,,,,,,,,,,,,,,,,,,,,,,,,,,,,,,,,,,,,,,,,,,,,,,,,
295765,2022-11-15_11h31.44.005,vts_reward_expectancy_bt,2022.2.4,MacIntel,60.0024001,Chrome,1440,900,,,a,1.4344,1,172,0,2,3,27,10,1,0,0,0,1,0,1,0,0,star ,circle,,,,,,,,,,,,,,,,,,,,,,,,,,,,,,,,,,,,,,,,,,,,,,,,,,,,,,
295765,2022-11-15_11h31.44.005,vts_reward_expectancy_bt,2022.2.4,MacIntel,60.0024001,Chrome,1440,900,,,a,0.5771,1,173,0,2,4,28,0,1,1,0,0,0,0,1,0,0,triangle,circle,,,,,,,,,,,,,,,,,,,,,,,,,,,,,,,,,,,,,,,,,,,,,,,,,,,,,,
295765,2022-11-15_11h31.44.005,vts_reward_expectancy_bt,2022.2.4,MacIntel,60.0024001,Chrome,1440,900,,,l,1.2154,1,174,0,2,5,29,3,1,0,1,0,0,1,0,0,0,circle,triangle,,,,,,,,,,,,,,,,,,,,,,,,,,,,,,,,,,,,,,,,,,,,,,,,,,,,,,
295765,2022-11-15_11h31.44.005,vts_reward_expectancy_bt,2022.2.4,MacIntel,60.0024001,Chrome,1440,900,,,l,0.6236,1,175,0,2,6,30,1,1,1,0,0,0,0,0,1,0,triangle,hexagon,,,,,,,,,,,,,,,,,,,,,,,,,,,,,,,,,,,,,,,,,,,,,,,,,,,,,,
295765,2022-11-15_11h31.44.005,vts_reward_expectancy_bt,2022.2.4,MacIntel,60.0024001,Chrome,1440,900,,,l,1.2317,10,185,0,2,7,31,5,1,0,1,0,0,0,0,0,1,circle,star,,,,,,,,,,,,,,,,,,,,,,,,,,,,,,,,,,,,,,,,,,,,,,,,,,,,,,
295765,2022-11-15_11h31.44.005,vts_reward_expectancy_bt,2022.2.4,MacIntel,60.0024001,Chrome,1440,900,,,a,1.3879,10,195,0,2,8,32,11,1,0,0,0,1,0,0,1,0,star,hexagon,,,,,,,,,,,,,,,,,,,,,,,,,,,,,,,,,,,,,,,,,,,,,,,,,,,,,,
295765,2022-11-15_11h31.44.005,vts_reward_expectancy_bt,2022.2.4,MacIntel,60.0024001,Chrome,1440,900,,,a,1.1347,10,205,0,2,9,33,4,1,0,1,0,0,0,0,1,0,circle,hexagon,,,,,,,,,,,,,,,,,,,,,,,,,,,,,,,,,,,,,,,,,,,,,,,,,,,,,,
295765,2022-11-15_11h31.44.005,vts_reward_expectancy_bt,2022.2.4,MacIntel,60.0024001,Chrome,1440,900,,,a,1.3629,10,215,0,2,10,34,9,1,0,0,0,1,1,0,0,0,star,triangle,,,,,,,,,,,,,,,,,,,,,,,,,,,,,,,,,,,,,,,,,,,,,,,,,,,,,,
295765,2022-11-15_11h31.44.005,vts_reward_expectancy_bt,2022.2.4,MacIntel,60.0024001,Chrome,1440,900,,,a,1.626,1,216,0,2,11,35,2,1,1,0,0,0,0,0,0,1,triangle,star,,,,,,,,,,,,,,,,,,,,,,,,,,,,,,,,,,,,,,,,,,,,,,,,,,,,,,
295765,2022-11-15_11h31.44.005,vts_reward_expectancy_bt,2022.2.4,MacIntel,60.0024001,Chrome,1440,900,,,a,1.4479,1,217,1,0,0,0,9,1,0,0,0,1,1,0,0,0,star,triangle,,,,,,,,,,,,,,,,,,,,,,,,,,,,,,,,,,,,,,,,,,,,,,,,,,,,,,
295765,2022-11-15_11h31.44.005,vts_reward_expectancy_bt,2022.2.4,MacIntel,60.0024001,Chrome,1440,900,,,l,0.5201,10,227,1,0,1,1,11,1,0,0,0,1,0,0,1,0,star,hexagon,,,,,,,,,,,,,,,,,,,,,,,,,,,,,,,,,,,,,,,,,,,,,,,,,,,,,,
295765,2022-11-15_11h31.44.005,vts_reward_expectancy_bt,2022.2.4,MacIntel,60.0024001,Chrome,1440,900,,,a,0.591,10,237,1,0,2,2,4,1,0,1,0,0,0,0,1,0,circle,hexagon,,,,,,,,,,,,,,,,,,,,,,,,,,,,,,,,,,,,,,,,,,,,,,,,,,,,,,
295765,2022-11-15_11h31.44.005,vts_reward_expectancy_bt,2022.2.4,MacIntel,60.0024001,Chrome,1440,900,,,l,0.5329,10,247,1,0,3,3,8,1,0,0,1,0,0,0,0,1,hexagon,star,,,,,,,,,,,,,,,,,,,,,,,,,,,,,,,,,,,,,,,,,,,,,,,,,,,,,,
295765,2022-11-15_11h31.44.005,vts_reward_expectancy_bt,2022.2.4,MacIntel,60.0024001,Chrome,1440,900,,,a,0.6003,1,248,1,0,4,4,5,1,0,1,0,0,0,0,0,1,circle,star,,,,,,,,,,,,,,,,,,,,,,,,,,,,,,,,,,,,,,,,,,,,,,,,,,,,,,
295765,2022-11-15_11h31.44.005,vts_reward_expectancy_bt,2022.2.4,MacIntel,60.0024001,Chrome,1440,900,,,a,0.5735,1,249,1,0,5,5,3,1,0,1,0,0,1,0,0,0,circle,triangle,,,,,,,,,,,,,,,,,,,,,,,,,,,,,,,,,,,,,,,,,,,,,,,,,,,,,,
295765,2022-11-15_11h31.44.005,vts_reward_expectancy_bt,2022.2.4,MacIntel,60.0024001,Chrome,1440,900,,,l,0.2907,1,250,1,0,6,6,6,1,0,0,1,0,1,0,0,0,hexagon,triangle,,,,,,,,,,,,,,,,,,,,,,,,,,,,,,,,,,,,,,,,,,,,,,,,,,,,,,
295765,2022-11-15_11h31.44.005,vts_reward_expectancy_bt,2022.2.4,MacIntel,60.0024001,Chrome,1440,900,,,a,0.3324,1,251,1,0,7,7,2,1,1,0,0,0,0,0,0,1,triangle,star,,,,,,,,,,,,,,,,,,,,,,,,,,,,,,,,,,,,,,,,,,,,,,,,,,,,,,
295765,2022-11-15_11h31.44.005,vts_reward_expectancy_bt,2022.2.4,MacIntel,60.0024001,Chrome,1440,900,,,l,0.3827,1,252,1,0,8,8,1,1,1,0,0,0,0,0,1,0,triangle,hexagon,,,,,,,,,,,,,,,,,,,,,,,,,,,,,,,,,,,,,,,,,,,,,,,,,,,,,,
295765,2022-11-15_11h31.44.005,vts_reward_expectancy_bt,2022.2.4,MacIntel,60.0024001,Chrome,1440,900,,,a,0.4496,1,253,1,0,9,9,10,1,0,0,0,1,0,1,0,0,star ,circle,,,,,,,,,,,,,,,,,,,,,,,,,,,,,,,,,,,,,,,,,,,,,,,,,,,,,,
295765,2022-11-15_11h31.44.005,vts_reward_expectancy_bt,2022.2.4,MacIntel,60.0024001,Chrome,1440,900,,,l,0.6152,10,263,1,0,10,10,0,1,1,0,0,0,0,1,0,0,triangle,circle,,,,,,,,,,,,,,,,,,,,,,,,,,,,,,,,,,,,,,,,,,,,,,,,,,,,,,
295765,2022-11-15_11h31.44.005,vts_reward_expectancy_bt,2022.2.4,MacIntel,60.0024001,Chrome,1440,900,,,l,0.5631,10,273,1,0,11,11,7,1,0,0,1,0,0,1,0,0,hexagon,circle,,,,,,,,,,,,,,,,,,,,,,,,,,,,,,,,,,,,,,,,,,,,,,,,,,,,,,
295765,2022-11-15_11h31.44.005,vts_reward_expectancy_bt,2022.2.4,MacIntel,60.0024001,Chrome,1440,900,,,a,1.3345,1,274,1,1,0,12,2,1,1,0,0,0,0,0,0,1,triangle,star,,,,,,,,,,,,,,,,,,,,,,,,,,,,,,,,,,,,,,,,,,,,,,,,,,,,,,
295765,2022-11-15_11h31.44.005,vts_reward_expectancy_bt,2022.2.4,MacIntel,60.0024001,Chrome,1440,900,,,l,0.4974,1,275,1,1,1,13,4,1,0,1,0,0,0,0,1,0,circle,hexagon,,,,,,,,,,,,,,,,,,,,,,,,,,,,,,,,,,,,,,,,,,,,,,,,,,,,,,
295765,2022-11-15_11h31.44.005,vts_reward_expectancy_bt,2022.2.4,MacIntel,60.0024001,Chrome,1440,900,,,a,1.0327,1,276,1,1,2,14,9,1,0,0,0,1,1,0,0,0,star,triangle,,,,,,,,,,,,,,,,,,,,,,,,,,,,,,,,,,,,,,,,,,,,,,,,,,,,,,
295765,2022-11-15_11h31.44.005,vts_reward_expectancy_bt,2022.2.4,MacIntel,60.0024001,Chrome,1440,900,,,a,0.5997,1,277,1,1,3,15,10,1,0,0,0,1,0,1,0,0,star ,circle,,,,,,,,,,,,,,,,,,,,,,,,,,,,,,,,,,,,,,,,,,,,,,,,,,,,,,
295765,2022-11-15_11h31.44.005,vts_reward_expectancy_bt,2022.2.4,MacIntel,60.0024001,Chrome,1440,900,,,l,0.6903,1,278,1,1,4,16,6,1,0,0,1,0,1,0,0,0,hexagon,triangle,,,,,,,,,,,,,,,,,,,,,,,,,,,,,,,,,,,,,,,,,,,,,,,,,,,,,,
295765,2022-11-15_11h31.44.005,vts_reward_expectancy_bt,2022.2.4,MacIntel,60.0024001,Chrome,1440,900,,,l,1.5158,1,279,1,1,5,17,11,1,0,0,0,1,0,0,1,0,star,hexagon,,,,,,,,,,,,,,,,,,,,,,,,,,,,,,,,,,,,,,,,,,,,,,,,,,,,,,
295765,2022-11-15_11h31.44.005,vts_reward_expectancy_bt,2022.2.4,MacIntel,60.0024001,Chrome,1440,900,,,l,1.2907,10,289,1,1,6,18,0,1,1,0,0,0,0,1,0,0,triangle,circle,,,,,,,,,,,,,,,,,,,,,,,,,,,,,,,,,,,,,,,,,,,,,,,,,,,,,,
295765,2022-11-15_11h31.44.005,vts_reward_expectancy_bt,2022.2.4,MacIntel,60.0024001,Chrome,1440,900,,,l,1.3446,10,299,1,1,7,19,8,1,0,0,1,0,0,0,0,1,hexagon,star,,,,,,,,,,,,,,,,,,,,,,,,,,,,,,,,,,,,,,,,,,,,,,,,,,,,,,
295765,2022-11-15_11h31.44.005,vts_reward_expectancy_bt,2022.2.4,MacIntel,60.0024001,Chrome,1440,900,,,a,1.5325,1,300,1,1,8,20,3,1,0,1,0,0,1,0,0,0,circle,triangle,,,,,,,,,,,,,,,,,,,,,,,,,,,,,,,,,,,,,,,,,,,,,,,,,,,,,,
295765,2022-11-15_11h31.44.005,vts_reward_expectancy_bt,2022.2.4,MacIntel,60.0024001,Chrome,1440,900,,,l,2.344,10,310,1,1,9,21,5,1,0,1,0,0,0,0,0,1,circle,star,,,,,,,,,,,,,,,,,,,,,,,,,,,,,,,,,,,,,,,,,,,,,,,,,,,,,,
295765,2022-11-15_11h31.44.005,vts_reward_expectancy_bt,2022.2.4,MacIntel,60.0024001,Chrome,1440,900,,,a,0.7195,1,311,1,1,10,22,7,1,0,0,1,0,0,1,0,0,hexagon,circle,,,,,,,,,,,,,,,,,,,,,,,,,,,,,,,,,,,,,,,,,,,,,,,,,,,,,,
295765,2022-11-15_11h31.44.005,vts_reward_expectancy_bt,2022.2.4,MacIntel,60.0024001,Chrome,1440,900,,,a,1.0891,1,312,1,1,11,23,1,1,1,0,0,0,0,0,1,0,triangle,hexagon,,,,,,,,,,,,,,,,,,,,,,,,,,,,,,,,,,,,,,,,,,,,,,,,,,,,,,
295765,2022-11-15_11h31.44.005,vts_reward_expectancy_bt,2022.2.4,MacIntel,60.0024001,Chrome,1440,900,,,l,0.9999,10,322,1,2,0,24,8,1,0,0,1,0,0,0,0,1,hexagon,star,,,,,,,,,,,,,,,,,,,,,,,,,,,,,,,,,,,,,,,,,,,,,,,,,,,,,,
295765,2022-11-15_11h31.44.005,vts_reward_expectancy_bt,2022.2.4,MacIntel,60.0024001,Chrome,1440,900,,,l,0.8886,10,332,1,2,1,25,10,1,0,0,0,1,0,1,0,0,star ,circle,,,,,,,,,,,,,,,,,,,,,,,,,,,,,,,,,,,,,,,,,,,,,,,,,,,,,,
295765,2022-11-15_11h31.44.005,vts_reward_expectancy_bt,2022.2.4,MacIntel,60.0024001,Chrome,1440,900,,,a,1.5012,10,342,1,2,2,26,1,1,1,0,0,0,0,0,1,0,triangle,hexagon,,,,,,,,,,,,,,,,,,,,,,,,,,,,,,,,,,,,,,,,,,,,,,,,,,,,,,
295765,2022-11-15_11h31.44.005,vts_reward_expectancy_bt,2022.2.4,MacIntel,60.0024001,Chrome,1440,900,,,a,1.4239,10,352,1,2,3,27,4,1,0,1,0,0,0,0,1,0,circle,hexagon,,,,,,,,,,,,,,,,,,,,,,,,,,,,,,,,,,,,,,,,,,,,,,,,,,,,,,
295765,2022-11-15_11h31.44.005,vts_reward_expectancy_bt,2022.2.4,MacIntel,60.0024001,Chrome,1440,900,,,l,1.7197,1,353,1,2,4,28,11,1,0,0,0,1,0,0,1,0,star,hexagon,,,,,,,,,,,,,,,,,,,,,,,,,,,,,,,,,,,,,,,,,,,,,,,,,,,,,,
295765,2022-11-15_11h31.44.005,vts_reward_expectancy_bt,2022.2.4,MacIntel,60.0024001,Chrome,1440,900,,,l,1.1657,1,354,1,2,5,29,9,1,0,0,0,1,1,0,0,0,star,triangle,,,,,,,,,,,,,,,,,,,,,,,,,,,,,,,,,,,,,,,,,,,,,,,,,,,,,,
295765,2022-11-15_11h31.44.005,vts_reward_expectancy_bt,2022.2.4,MacIntel,60.0024001,Chrome,1440,900,,,l,1.2763,1,355,1,2,6,30,6,1,0,0,1,0,1,0,0,0,hexagon,triangle,,,,,,,,,,,,,,,,,,,,,,,,,,,,,,,,,,,,,,,,,,,,,,,,,,,,,,
295765,2022-11-15_11h31.44.005,vts_reward_expectancy_bt,2022.2.4,MacIntel,60.0024001,Chrome,1440,900,,,a,0.6074,10,365,1,2,7,31,3,1,0,1,0,0,1,0,0,0,circle,triangle,,,,,,,,,,,,,,,,,,,,,,,,,,,,,,,,,,,,,,,,,,,,,,,,,,,,,,
295765,2022-11-15_11h31.44.005,vts_reward_expectancy_bt,2022.2.4,MacIntel,60.0024001,Chrome,1440,900,,,l,1.1868,10,375,1,2,8,32,0,1,1,0,0,0,0,1,0,0,triangle,circle,,,,,,,,,,,,,,,,,,,,,,,,,,,,,,,,,,,,,,,,,,,,,,,,,,,,,,
295765,2022-11-15_11h31.44.005,vts_reward_expectancy_bt,2022.2.4,MacIntel,60.0024001,Chrome,1440,900,,,l,1.6753,10,385,1,2,9,33,7,1,0,0,1,0,0,1,0,0,hexagon,circle,,,,,,,,,,,,,,,,,,,,,,,,,,,,,,,,,,,,,,,,,,,,,,,,,,,,,,
295765,2022-11-15_11h31.44.005,vts_reward_expectancy_bt,2022.2.4,MacIntel,60.0024001,Chrome,1440,900,,,a,1.6161,1,386,1,2,10,34,2,1,1,0,0,0,0,0,0,1,triangle,star,,,,,,,,,,,,,,,,,,,,,,,,,,,,,,,,,,,,,,,,,,,,,,,,,,,,,,
295765,2022-11-15_11h31.44.005,vts_reward_expectancy_bt,2022.2.4,MacIntel,60.0024001,Chrome,1440,900,,,l,2.1284,10,396,1,2,11,35,5,1,0,1,0,0,0,0,0,1,circle,star,,,,,,,,,,,,,,,,,,,,,,,,,,,,,,,,,,,,,,,,,,,,,,,,,,,,,,
295765,2022-11-15_11h31.44.005,vts_reward_expectancy_bt,2022.2.4,MacIntel,60.0024001,Chrome,1440,900,,,l,1.6397,10,406,2,0,0,0,5,1,0,1,0,0,0,0,0,1,circle,star,,,,,,,,,,,,,,,,,,,,,,,,,,,,,,,,,,,,,,,,,,,,,,,,,,,,,,
295765,2022-11-15_11h31.44.005,vts_reward_expectancy_bt,2022.2.4,MacIntel,60.0024001,Chrome,1440,900,,,l,1.3711,10,416,2,0,1,1,7,1,0,0,1,0,0,1,0,0,hexagon,circle,,,,,,,,,,,,,,,,,,,,,,,,,,,,,,,,,,,,,,,,,,,,,,,,,,,,,,
295765,2022-11-15_11h31.44.005,vts_reward_expectancy_bt,2022.2.4,MacIntel,60.0024001,Chrome,1440,900,,,l,3.5224,10,426,2,0,2,2,8,1,0,0,1,0,0,0,0,1,hexagon,star,,,,,,,,,,,,,,,,,,,,,,,,,,,,,,,,,,,,,,,,,,,,,,,,,,,,,,
295765,2022-11-15_11h31.44.005,vts_reward_expectancy_bt,2022.2.4,MacIntel,60.0024001,Chrome,1440,900,,,l,1.358,1,427,2,0,3,3,1,1,1,0,0,0,0,0,1,0,triangle,hexagon,,,,,,,,,,,,,,,,,,,,,,,,,,,,,,,,,,,,,,,,,,,,,,,,,,,,,,
295765,2022-11-15_11h31.44.005,vts_reward_expectancy_bt,2022.2.4,MacIntel,60.0024001,Chrome,1440,900,,,a,1.417,1,428,2,0,4,4,11,1,0,0,0,1,0,0,1,0,star,hexagon,,,,,,,,,,,,,,,,,,,,,,,,,,,,,,,,,,,,,,,,,,,,,,,,,,,,,,
295765,2022-11-15_11h31.44.005,vts_reward_expectancy_bt,2022.2.4,MacIntel,60.0024001,Chrome,1440,900,,,a,1.0639,10,438,2,0,5,5,3,1,0,1,0,0,1,0,0,0,circle,triangle,,,,,,,,,,,,,,,,,,,,,,,,,,,,,,,,,,,,,,,,,,,,,,,,,,,,,,
295765,2022-11-15_11h31.44.005,vts_reward_expectancy_bt,2022.2.4,MacIntel,60.0024001,Chrome,1440,900,,,a,1.5556,10,448,2,0,6,6,6,1,0,0,1,0,1,0,0,0,hexagon,triangle,,,,,,,,,,,,,,,,,,,,,,,,,,,,,,,,,,,,,,,,,,,,,,,,,,,,,,
295765,2022-11-15_11h31.44.005,vts_reward_expectancy_bt,2022.2.4,MacIntel,60.0024001,Chrome,1440,900,,,l,1.8075,1,449,2,0,7,7,2,1,1,0,0,0,0,0,0,1,triangle,star,,,,,,,,,,,,,,,,,,,,,,,,,,,,,,,,,,,,,,,,,,,,,,,,,,,,,,
295765,2022-11-15_11h31.44.005,vts_reward_expectancy_bt,2022.2.4,MacIntel,60.0024001,Chrome,1440,900,,,l,0.7837,10,459,2,0,8,8,0,1,1,0,0,0,0,1,0,0,triangle,circle,,,,,,,,,,,,,,,,,,,,,,,,,,,,,,,,,,,,,,,,,,,,,,,,,,,,,,
295765,2022-11-15_11h31.44.005,vts_reward_expectancy_bt,2022.2.4,MacIntel,60.0024001,Chrome,1440,900,,,a,1.637,10,469,2,0,9,9,10,1,0,0,0,1,0,1,0,0,star ,circle,,,,,,,,,,,,,,,,,,,,,,,,,,,,,,,,,,,,,,,,,,,,,,,,,,,,,,
295765,2022-11-15_11h31.44.005,vts_reward_expectancy_bt,2022.2.4,MacIntel,60.0024001,Chrome,1440,900,,,a,1.308,10,479,2,0,10,10,9,1,0,0,0,1,1,0,0,0,star,triangle,,,,,,,,,,,,,,,,,,,,,,,,,,,,,,,,,,,,,,,,,,,,,,,,,,,,,,
295765,2022-11-15_11h31.44.005,vts_reward_expectancy_bt,2022.2.4,MacIntel,60.0024001,Chrome,1440,900,,,l,1.6399,10,489,2,0,11,11,4,1,0,1,0,0,0,0,1,0,circle,hexagon,,,,,,,,,,,,,,,,,,,,,,,,,,,,,,,,,,,,,,,,,,,,,,,,,,,,,,
295765,2022-11-15_11h31.44.005,vts_reward_expectancy_bt,2022.2.4,MacIntel,60.0024001,Chrome,1440,900,,,l,2.4606,1,490,2,1,0,12,5,1,0,1,0,0,0,0,0,1,circle,star,,,,,,,,,,,,,,,,,,,,,,,,,,,,,,,,,,,,,,,,,,,,,,,,,,,,,,
295765,2022-11-15_11h31.44.005,vts_reward_expectancy_bt,2022.2.4,MacIntel,60.0024001,Chrome,1440,900,,,a,0.9365,10,500,2,1,1,13,4,1,0,1,0,0,0,0,1,0,circle,hexagon,,,,,,,,,,,,,,,,,,,,,,,,,,,,,,,,,,,,,,,,,,,,,,,,,,,,,,
295765,2022-11-15_11h31.44.005,vts_reward_expectancy_bt,2022.2.4,MacIntel,60.0024001,Chrome,1440,900,,,l,0.6526,10,510,2,1,2,14,10,1,0,0,0,1,0,1,0,0,star ,circle,,,,,,,,,,,,,,,,,,,,,,,,,,,,,,,,,,,,,,,,,,,,,,,,,,,,,,
295765,2022-11-15_11h31.44.005,vts_reward_expectancy_bt,2022.2.4,MacIntel,60.0024001,Chrome,1440,900,,,a,0.7162,10,520,2,1,3,15,3,1,0,1,0,0,1,0,0,0,circle,triangle,,,,,,,,,,,,,,,,,,,,,,,,,,,,,,,,,,,,,,,,,,,,,,,,,,,,,,
295765,2022-11-15_11h31.44.005,vts_reward_expectancy_bt,2022.2.4,MacIntel,60.0024001,Chrome,1440,900,,,l,0.8261,10,530,2,1,4,16,0,1,1,0,0,0,0,1,0,0,triangle,circle,,,,,,,,,,,,,,,,,,,,,,,,,,,,,,,,,,,,,,,,,,,,,,,,,,,,,,
295765,2022-11-15_11h31.44.005,vts_reward_expectancy_bt,2022.2.4,MacIntel,60.0024001,Chrome,1440,900,,,a,1.2153,1,531,2,1,5,17,11,1,0,0,0,1,0,0,1,0,star,hexagon,,,,,,,,,,,,,,,,,,,,,,,,,,,,,,,,,,,,,,,,,,,,,,,,,,,,,,
295765,2022-11-15_11h31.44.005,vts_reward_expectancy_bt,2022.2.4,MacIntel,60.0024001,Chrome,1440,900,,,a,1.4764,1,532,2,1,6,18,8,1,0,0,1,0,0,0,0,1,hexagon,star,,,,,,,,,,,,,,,,,,,,,,,,,,,,,,,,,,,,,,,,,,,,,,,,,,,,,,
295765,2022-11-15_11h31.44.005,vts_reward_expectancy_bt,2022.2.4,MacIntel,60.0024001,Chrome,1440,900,,,l,1.4992,10,542,2,1,7,19,2,1,1,0,0,0,0,0,0,1,triangle,star,,,,,,,,,,,,,,,,,,,,,,,,,,,,,,,,,,,,,,,,,,,,,,,,,,,,,,
295765,2022-11-15_11h31.44.005,vts_reward_expectancy_bt,2022.2.4,MacIntel,60.0024001,Chrome,1440,900,,,a,0.8459,1,543,2,1,8,20,6,1,0,0,1,0,1,0,0,0,hexagon,triangle,,,,,,,,,,,,,,,,,,,,,,,,,,,,,,,,,,,,,,,,,,,,,,,,,,,,,,
295765,2022-11-15_11h31.44.005,vts_reward_expectancy_bt,2022.2.4,MacIntel,60.0024001,Chrome,1440,900,,,a,1.04,1,544,2,1,9,21,9,1,0,0,0,1,1,0,0,0,star,triangle,,,,,,,,,,,,,,,,,,,,,,,,,,,,,,,,,,,,,,,,,,,,,,,,,,,,,,
295765,2022-11-15_11h31.44.005,vts_reward_expectancy_bt,2022.2.4,MacIntel,60.0024001,Chrome,1440,900,,,a,1.6321,1,545,2,1,10,22,1,1,1,0,0,0,0,0,1,0,triangle,hexagon,,,,,,,,,,,,,,,,,,,,,,,,,,,,,,,,,,,,,,,,,,,,,,,,,,,,,,
295765,2022-11-15_11h31.44.005,vts_reward_expectancy_bt,2022.2.4,MacIntel,60.0024001,Chrome,1440,900,,,l,0.7071,10,555,2,1,11,23,7,1,0,0,1,0,0,1,0,0,hexagon,circle,,,,,,,,,,,,,,,,,,,,,,,,,,,,,,,,,,,,,,,,,,,,,,,,,,,,,,
295765,2022-11-15_11h31.44.005,vts_reward_expectancy_bt,2022.2.4,MacIntel,60.0024001,Chrome,1440,900,,,l,1.8353,1,556,2,2,0,24,1,1,1,0,0,0,0,0,1,0,triangle,hexagon,,,,,,,,,,,,,,,,,,,,,,,,,,,,,,,,,,,,,,,,,,,,,,,,,,,,,,
295765,2022-11-15_11h31.44.005,vts_reward_expectancy_bt,2022.2.4,MacIntel,60.0024001,Chrome,1440,900,,,a,0.7757,10,566,2,2,1,25,11,1,0,0,0,1,0,0,1,0,star,hexagon,,,,,,,,,,,,,,,,,,,,,,,,,,,,,,,,,,,,,,,,,,,,,,,,,,,,,,
295765,2022-11-15_11h31.44.005,vts_reward_expectancy_bt,2022.2.4,MacIntel,60.0024001,Chrome,1440,900,,,l,1.1135,10,576,2,2,2,26,10,1,0,0,0,1,0,1,0,0,star ,circle,,,,,,,,,,,,,,,,,,,,,,,,,,,,,,,,,,,,,,,,,,,,,,,,,,,,,,
295765,2022-11-15_11h31.44.005,vts_reward_expectancy_bt,2022.2.4,MacIntel,60.0024001,Chrome,1440,900,,,a,2.3168,1,577,2,2,3,27,6,1,0,0,1,0,1,0,0,0,hexagon,triangle,,,,,,,,,,,,,,,,,,,,,,,,,,,,,,,,,,,,,,,,,,,,,,,,,,,,,,
295765,2022-11-15_11h31.44.005,vts_reward_expectancy_bt,2022.2.4,MacIntel,60.0024001,Chrome,1440,900,,,l,1.3905,10,587,2,2,4,28,2,1,1,0,0,0,0,0,0,1,triangle,star,,,,,,,,,,,,,,,,,,,,,,,,,,,,,,,,,,,,,,,,,,,,,,,,,,,,,,
295765,2022-11-15_11h31.44.005,vts_reward_expectancy_bt,2022.2.4,MacIntel,60.0024001,Chrome,1440,900,,,l,2.035,10,597,2,2,5,29,9,1,0,0,0,1,1,0,0,0,star,triangle,,,,,,,,,,,,,,,,,,,,,,,,,,,,,,,,,,,,,,,,,,,,,,,,,,,,,,
295765,2022-11-15_11h31.44.005,vts_reward_expectancy_bt,2022.2.4,MacIntel,60.0024001,Chrome,1440,900,,,l,2.0098,1,598,2,2,6,30,0,1,1,0,0,0,0,1,0,0,triangle,circle,,,,,,,,,,,,,,,,,,,,,,,,,,,,,,,,,,,,,,,,,,,,,,,,,,,,,,
295765,2022-11-15_11h31.44.005,vts_reward_expectancy_bt,2022.2.4,MacIntel,60.0024001,Chrome,1440,900,,,a,1.2853,10,608,2,2,7,31,5,1,0,1,0,0,0,0,0,1,circle,star,,,,,,,,,,,,,,,,,,,,,,,,,,,,,,,,,,,,,,,,,,,,,,,,,,,,,,
295765,2022-11-15_11h31.44.005,vts_reward_expectancy_bt,2022.2.4,MacIntel,60.0024001,Chrome,1440,900,,,a,2.6469,10,618,2,2,8,32,8,1,0,0,1,0,0,0,0,1,hexagon,star,,,,,,,,,,,,,,,,,,,,,,,,,,,,,,,,,,,,,,,,,,,,,,,,,,,,,,
295765,2022-11-15_11h31.44.005,vts_reward_expectancy_bt,2022.2.4,MacIntel,60.0024001,Chrome,1440,900,,,l,1.5958,1,619,2,2,9,33,3,1,0,1,0,0,1,0,0,0,circle,triangle,,,,,,,,,,,,,,,,,,,,,,,,,,,,,,,,,,,,,,,,,,,,,,,,,,,,,,
295765,2022-11-15_11h31.44.005,vts_reward_expectancy_bt,2022.2.4,MacIntel,60.0024001,Chrome,1440,900,,,l,0.7728,10,629,2,2,10,34,7,1,0,0,1,0,0,1,0,0,hexagon,circle,,,,,,,,,,,,,,,,,,,,,,,,,,,,,,,,,,,,,,,,,,,,,,,,,,,,,,
295765,2022-11-15_11h31.44.005,vts_reward_expectancy_bt,2022.2.4,MacIntel,60.0024001,Chrome,1440,900,,,a,1.0819,10,639,2,2,11,35,4,1,0,1,0,0,0,0,1,0,circle,hexagon,,,,,,,,,,,,,,,,,,,,,,,,,,,,,,,,,,,,,,,,,,,,,,,,,,,,,,
295765,2022-11-15_11h31.44.005,vts_reward_expectancy_bt,2022.2.4,MacIntel,60.0024001,Chrome,1440,900,,,,,,,,,,,,,,,,,,,,,,,Y,167,star,0,0,,0,0,0,0,0,1,,,,,,,,,,,,,,,,,,,,,,,,,,,,,,,,,,,,,,,,,,
295765,2022-11-15_11h31.44.005,vts_reward_expectancy_bt,2022.2.4,MacIntel,60.0024001,Chrome,1440,900,,,,,,,,,,,,,,,,,,,,,,,D,174,hexagon,0,1,,0,1,0,1,0,1,,,,,,,,,,,,,,,,,,,,,,,,,,,,,,,,,,,,,,,,,,
295765,2022-11-15_11h31.44.005,vts_reward_expectancy_bt,2022.2.4,MacIntel,60.0024001,Chrome,1440,900,,,,,,,,,,,,,,,,,,,,,,,H,125,circle,0,1,,0,2,0,2,0,1,,,,,,,,,,,,,,,,,,,,,,,,,,,,,,,,,,,,,,,,,,
295765,2022-11-15_11h31.44.005,vts_reward_expectancy_bt,2022.2.4,MacIntel,60.0024001,Chrome,1440,900,,,,,,,,,,,,,,,,,,,,,,,B,146,triangle,0,1,,0,3,0,3,0,1,,,,,,,,,,,,,,,,,,,,,,,,,,,,,,,,,,,,,,,,,,
295765,2022-11-15_11h31.44.005,vts_reward_expectancy_bt,2022.2.4,MacIntel,60.0024001,Chrome,1440,900,,,,,,,,,,,,,,,,,,,,,,,W,139,star,0,1,,0,4,0,4,0,1,,,,,,,,,,,,,,,,,,,,,,,,,,,,,,,,,,,,,,,,,,
295765,2022-11-15_11h31.44.005,vts_reward_expectancy_bt,2022.2.4,MacIntel,60.0024001,Chrome,1440,900,,,,,,,,,,,,,,,,,,,,,,,F,181,hexagon,0,1,,0,5,0,5,0,1,,,,,,,,,,,,,,,,,,,,,,,,,,,,,,,,,,,,,,,,,,
295765,2022-11-15_11h31.44.005,vts_reward_expectancy_bt,2022.2.4,MacIntel,60.0024001,Chrome,1440,900,,,,,,,,,,,,,,,,,,,,,,,U,132,circle,0,1,,0,6,0,6,0,1,,,,,,,,,,,,,,,,,,,,,,,,,,,,,,,,,,,,,,,,,,
295765,2022-11-15_11h31.44.005,vts_reward_expectancy_bt,2022.2.4,MacIntel,60.0024001,Chrome,1440,900,,,,,,,,,,,,,,,,,,,,,,,S,160,triangle,0,1,,0,7,0,7,0,1,,,,,,,,,,,,,,,,,,,,,,,,,,,,,,,,,,,,,,,,,,
295765,2022-11-15_11h31.44.005,vts_reward_expectancy_bt,2022.2.4,MacIntel,60.0024001,Chrome,1440,900,,,,,,,,,,,,,,,,,,,,,,,Y,167,triangle,0,1,,0,8,0,8,0,1,,,,,,,,,,,,,,,,,,,,,,,,,,,,,,,,,,,,,,,,,,
295765,2022-11-15_11h31.44.005,vts_reward_expectancy_bt,2022.2.4,MacIntel,60.0024001,Chrome,1440,900,,,,,,,,,,,,,,,,,,,,,,,D,174,circle,0,1,,0,9,0,9,0,1,,,,,,,,,,,,,,,,,,,,,,,,,,,,,,,,,,,,,,,,,,
295765,2022-11-15_11h31.44.005,vts_reward_expectancy_bt,2022.2.4,MacIntel,60.0024001,Chrome,1440,900,,,,,,,,,,,,,,,,,,,,,,,H,167,hexagon,1,1,d,1,0,0,0,0,1,0.6304,,,,,,,,,,,,,,,,,,,,,,,,,,,,,,,,,,,,,,,,,
295765,2022-11-15_11h31.44.005,vts_reward_expectancy_bt,2022.2.4,MacIntel,60.0024001,Chrome,1440,900,,,,,,,,,,,,,,,,,,,,,,,S,139,circle,1,0,f,1,1,0,1,0,1,0.7176,,,,,,,,,,,,,,,,,,,,,,,,,,,,,,,,,,,,,,,,,
295765,2022-11-15_11h31.44.005,vts_reward_expectancy_bt,2022.2.4,MacIntel,60.0024001,Chrome,1440,900,,,,,,,,,,,,,,,,,,,,,,,W,160,star,1,0,f,1,2,0,2,0,1,1.6138,,,,,,,,,,,,,,,,,,,,,,,,,,,,,,,,,,,,,,,,,
295765,2022-11-15_11h31.44.005,vts_reward_expectancy_bt,2022.2.4,MacIntel,60.0024001,Chrome,1440,900,,,,,,,,,,,,,,,,,,,,,,,U,146,triangle,1,0,f,1,3,0,3,0,1,0.7885,,,,,,,,,,,,,,,,,,,,,,,,,,,,,,,,,,,,,,,,,
295765,2022-11-15_11h31.44.005,vts_reward_expectancy_bt,2022.2.4,MacIntel,60.0024001,Chrome,1440,900,,,,,,,,,,,,,,,,,,,,,,,Y,181,hexagon,1,0,f,1,4,0,4,0,1,0.647,,,,,,,,,,,,,,,,,,,,,,,,,,,,,,,,,,,,,,,,,
295765,2022-11-15_11h31.44.005,vts_reward_expectancy_bt,2022.2.4,MacIntel,60.0024001,Chrome,1440,900,,,,,,,,,,,,,,,,,,,,,,,D,174,circle,1,0,d,1,5,0,5,0,1,0.9313,,,,,,,,,,,,,,,,,,,,,,,,,,,,,,,,,,,,,,,,,
295765,2022-11-15_11h31.44.005,vts_reward_expectancy_bt,2022.2.4,MacIntel,60.0024001,Chrome,1440,900,,,,,,,,,,,,,,,,,,,,,,,F,132,star,1,0,d,1,6,0,6,0,1,0.7639,,,,,,,,,,,,,,,,,,,,,,,,,,,,,,,,,,,,,,,,,
295765,2022-11-15_11h31.44.005,vts_reward_expectancy_bt,2022.2.4,MacIntel,60.0024001,Chrome,1440,900,,,,,,,,,,,,,,,,,,,,,,,B,125,triangle,1,0,d,1,7,0,7,0,1,0.5806,,,,,,,,,,,,,,,,,,,,,,,,,,,,,,,,,,,,,,,,,
295765,2022-11-15_11h31.44.005,vts_reward_expectancy_bt,2022.2.4,MacIntel,60.0024001,Chrome,1440,900,,,,,,,,,,,,,,,,,,,,,,,H,167,circle,1,0,d,1,8,0,8,0,1,0.6307,,,,,,,,,,,,,,,,,,,,,,,,,,,,,,,,,,,,,,,,,
295765,2022-11-15_11h31.44.005,vts_reward_expectancy_bt,2022.2.4,MacIntel,60.0024001,Chrome,1440,900,,,,,,,,,,,,,,,,,,,,,,,S,139,star,1,0,f,1,9,0,9,0,1,0.6875,,,,,,,,,,,,,,,,,,,,,,,,,,,,,,,,,,,,,,,,,
295765,2022-11-15_11h31.44.005,vts_reward_expectancy_bt,2022.2.4,MacIntel,60.0024001,Chrome,1440,900,,,,,,,,,,,,,,,,,,,,,,,D,146,star,0,0,,2,,,,,,,k,1.3027,0,0,0,0,1,,,,,,,,,,,,,,,,,,,,,,,,,,,,,,,,,,
295765,2022-11-15_11h31.44.005,vts_reward_expectancy_bt,2022.2.4,MacIntel,60.0024001,Chrome,1440,900,,,,,,,,,,,,,,,,,,,,,,,S,174,circle,1,1,,2,,,,,,,k,1.0313,1,0,1,0,1,,,,,,,,,,,,,,,,,,,,,,,,,,,,,,,,,,
295765,2022-11-15_11h31.44.005,vts_reward_expectancy_bt,2022.2.4,MacIntel,60.0024001,Chrome,1440,900,,,,,,,,,,,,,,,,,,,,,,,H,167,hexagon,1,0,,2,,,,,,,k,1.1636,2,0,2,0,1,,,,,,,,,,,,,,,,,,,,,,,,,,,,,,,,,,
295765,2022-11-15_11h31.44.005,vts_reward_expectancy_bt,2022.2.4,MacIntel,60.0024001,Chrome,1440,900,,,,,,,,,,,,,,,,,,,,,,,F,181,triangle,1,0,,2,,,,,,,k,0.7642,3,0,3,0,1,,,,,,,,,,,,,,,,,,,,,,,,,,,,,,,,,,
295765,2022-11-15_11h31.44.005,vts_reward_expectancy_bt,2022.2.4,MacIntel,60.0024001,Chrome,1440,900,,,,,,,,,,,,,,,,,,,,,,,W,160,star,1,0,,2,,,,,,,k,1.398,4,0,4,0,1,,,,,,,,,,,,,,,,,,,,,,,,,,,,,,,,,,
295765,2022-11-15_11h31.44.005,vts_reward_expectancy_bt,2022.2.4,MacIntel,60.0024001,Chrome,1440,900,,,,,,,,,,,,,,,,,,,,,,,Y,139,circle,1,0,,2,,,,,,,j,0.9647,5,0,5,0,1,,,,,,,,,,,,,,,,,,,,,,,,,,,,,,,,,,
295765,2022-11-15_11h31.44.005,vts_reward_expectancy_bt,2022.2.4,MacIntel,60.0024001,Chrome,1440,900,,,,,,,,,,,,,,,,,,,,,,,U,125,hexagon,1,0,,2,,,,,,,j,1.9476,6,0,6,0,1,,,,,,,,,,,,,,,,,,,,,,,,,,,,,,,,,,
295765,2022-11-15_11h31.44.005,vts_reward_expectancy_bt,2022.2.4,MacIntel,60.0024001,Chrome,1440,900,,,,,,,,,,,,,,,,,,,,,,,B,132,triangle,1,0,,2,,,,,,,j,0.714,7,0,7,0,1,,,,,,,,,,,,,,,,,,,,,,,,,,,,,,,,,,
295765,2022-11-15_11h31.44.005,vts_reward_expectancy_bt,2022.2.4,MacIntel,60.0024001,Chrome,1440,900,,,,,,,,,,,,,,,,,,,,,,,D,146,star,1,0,,2,,,,,,,j,1.1523,8,0,8,0,1,,,,,,,,,,,,,,,,,,,,,,,,,,,,,,,,,,
295765,2022-11-15_11h31.44.005,vts_reward_expectancy_bt,2022.2.4,MacIntel,60.0024001,Chrome,1440,900,,,,,,,,,,,,,,,,,,,,,,,S,174,triangle,1,0,,2,,,,,,,k,0.7007,9,0,9,0,1,,,,,,,,,,,,,,,,,,,,,,,,,,,,,,,,,,
295765,2022-11-15_11h31.44.005,vts_reward_expectancy_bt,2022.2.4,MacIntel,60.0024001,Chrome,1440,900,,,,,0,639,,,,,,,,,,,,,,,,,U,174,triangle,-1,0,,3,,,,,,,,,,,,,,-1,no_choice,NA,,vtsPrac,0,0,0,0,1,,,,,,,,,,,,,,,,,,,,,,,,
295765,2022-11-15_11h31.44.005,vts_reward_expectancy_bt,2022.2.4,MacIntel,60.0024001,Chrome,1440,900,,,,,0,639,,,,,,,,,,,,,,,,,W,160,hexagon,1,0,,3,,,,,,,,,,,,,,switch,number,numSwt,k,vtsPrac,1,0,1,0,1,2.2132,,,,,,,,,,,,,,,,,,,,,,,
295765,2022-11-15_11h31.44.005,vts_reward_expectancy_bt,2022.2.4,MacIntel,60.0024001,Chrome,1440,900,,,,,0,639,,,,,,,,,,,,,,,,,D,167,triangle,0,0,,3,,,,,,,,,,,,,,switch,letter,NA,f,vtsPrac,2,0,2,0,1,0.0372,,,,,,,,,,,,,,,,,,,,,,,
295765,2022-11-15_11h31.44.005,vts_reward_expectancy_bt,2022.2.4,MacIntel,60.0024001,Chrome,1440,900,,,,,0,639,,,,,,,,,,,,,,,,,Y,132,hexagon,1,1,,3,,,,,,,,,,,,,,repeat,letter,lettRpt,f,vtsPrac,3,0,3,0,1,0.9529,,,,,,,,,,,,,,,,,,,,,,,
295765,2022-11-15_11h31.44.005,vts_reward_expectancy_bt,2022.2.4,MacIntel,60.0024001,Chrome,1440,900,,,,,0,639,,,,,,,,,,,,,,,,,U,174,star,0,0,,3,,,,,,,,,,,,,,repeat,letter,NA,d,vtsPrac,4,0,4,0,1,1.1654,,,,,,,,,,,,,,,,,,,,,,,
295765,2022-11-15_11h31.44.005,vts_reward_expectancy_bt,2022.2.4,MacIntel,60.0024001,Chrome,1440,900,,,,,0,639,,,,,,,,,,,,,,,,,W,160,hexagon,1,1,,3,,,,,,,,,,,,,,switch,number,numSwt,k,vtsPrac,5,0,5,0,1,1.9798,,,,,,,,,,,,,,,,,,,,,,,
295765,2022-11-15_11h31.44.005,vts_reward_expectancy_bt,2022.2.4,MacIntel,60.0024001,Chrome,1440,900,,,,,0,639,,,,,,,,,,,,,,,,,D,167,circle,1,0,,3,,,,,,,,,,,,,,switch,letter,lettSwt,d,vtsPrac,6,0,6,0,1,0.7313,,,,,,,,,,,,,,,,,,,,,,,
295765,2022-11-15_11h31.44.005,vts_reward_expectancy_bt,2022.2.4,MacIntel,60.0024001,Chrome,1440,900,,,,,0,639,,,,,,,,,,,,,,,,,Y,132,star,1,0,,3,,,,,,,,,,,,,,repeat,letter,lettRpt,f,vtsPrac,7,0,7,0,1,0.6647,,,,,,,,,,,,,,,,,,,,,,,
295765,2022-11-15_11h31.44.005,vts_reward_expectancy_bt,2022.2.4,MacIntel,60.0024001,Chrome,1440,900,,,,,0,639,,,,,,,,,,,,,,,,,S,146,hexagon,1,0,,3,,,,,,,,,,,,,,repeat,letter,lettRpt,f,vtsPrac,8,0,8,0,1,1.0138,,,,,,,,,,,,,,,,,,,,,,,
295765,2022-11-15_11h31.44.005,vts_reward_expectancy_bt,2022.2.4,MacIntel,60.0024001,Chrome,1440,900,,,,,0,639,,,,,,,,,,,,,,,,,W,132,star,1,0,,3,,,,,,,,,,,,,,switch,number,numSwt,j,vtsPrac,9,0,9,0,1,0.88,,,,,,,,,,,,,,,,,,,,,,,
295765,2022-11-15_11h31.44.005,vts_reward_expectancy_bt,2022.2.4,MacIntel,60.0024001,Chrome,1440,900,,,,,0,639,,,,,,,,,,,,,,,,,Y,174,triangle,1,0,,3,,,,,,,,,,,,,,repeat,number,numRpt,k,vtsPrac,10,0,10,0,1,1.2336,,,,,,,,,,,,,,,,,,,,,,,
295765,2022-11-15_11h31.44.005,vts_reward_expectancy_bt,2022.2.4,MacIntel,60.0024001,Chrome,1440,900,,,,,0,639,,,,,,,,,,,,,,,,,B,181,circle,1,0,,3,,,,,,,,,,,,,,switch,letter,lettSwt,d,vtsPrac,11,0,11,0,1,0.7475,,,,,,,,,,,,,,,,,,,,,,,
295765,2022-11-15_11h31.44.005,vts_reward_expectancy_bt,2022.2.4,MacIntel,60.0024001,Chrome,1440,900,,,,,0,639,,,,,,,,,,,,,,,,,U,174,star,1,0,,3,,,,,,,,,,,,,,repeat,letter,lettRpt,f,vtsPrac,12,0,12,0,1,0.7643,,,,,,,,,,,,,,,,,,,,,,,
295765,2022-11-15_11h31.44.005,vts_reward_expectancy_bt,2022.2.4,MacIntel,60.0024001,Chrome,1440,900,,,,,0,639,,,,,,,,,,,,,,,,,W,181,circle,1,0,,3,,,,,,,,,,,,,,repeat,letter,lettRpt,f,vtsPrac,13,0,13,0,1,0.7713,,,,,,,,,,,,,,,,,,,,,,,
295765,2022-11-15_11h31.44.005,vts_reward_expectancy_bt,2022.2.4,MacIntel,60.0024001,Chrome,1440,900,,,,,0,639,,,,,,,,,,,,,,,,,F,139,triangle,1,0,,3,,,,,,,,,,,,,,repeat,letter,lettRpt,d,vtsPrac,14,0,14,0,1,0.7391,,,,,,,,,,,,,,,,,,,,,,,
295765,2022-11-15_11h31.44.005,vts_reward_expectancy_bt,2022.2.4,MacIntel,60.0024001,Chrome,1440,900,,,,,0,639,,,,,,,,,,,,,,,,,Y,146,circle,1,0,,3,,,,,,,,,,,,,,switch,number,numSwt,j,vtsPrac,15,0,15,0,1,0.8644,,,,,,,,,,,,,,,,,,,,,,,
295765,2022-11-15_11h31.44.005,vts_reward_expectancy_bt,2022.2.4,MacIntel,60.0024001,Chrome,1440,900,,,,,0,639,,,,,,,,,,,,,,,,,H,181,triangle,1,0,,3,,,,,,,,,,,,,,repeat,number,numRpt,k,vtsPrac,16,0,16,0,1,0.9844,,,,,,,,,,,,,,,,,,,,,,,
295765,2022-11-15_11h31.44.005,vts_reward_expectancy_bt,2022.2.4,MacIntel,60.0024001,Chrome,1440,900,,,,,0,639,,,,,,,,,,,,,,,,,B,132,hexagon,1,0,,3,,,,,,,,,,,,,,repeat,number,numRpt,j,vtsPrac,17,0,17,0,1,1.0638,,,,,,,,,,,,,,,,,,,,,,,
295765,2022-11-15_11h31.44.005,vts_reward_expectancy_bt,2022.2.4,MacIntel,60.0024001,Chrome,1440,900,,,,,0,639,,,,,,,,,,,,,,,,,Y,174,hexagon,1,0,,3,,,,,,,,,,,,,,repeat,number,numRpt,k,vtsPrac,18,0,18,0,1,0.8972,,,,,,,,,,,,,,,,,,,,,,,
295765,2022-11-15_11h31.44.005,vts_reward_expectancy_bt,2022.2.4,MacIntel,60.0024001,Chrome,1440,900,,,,,0,639,,,,,,,,,,,,,,,,,S,146,circle,-1,0,,3,,,,,,,,,,,,,,switch,no_choice,NA,,vtsPrac,19,0,19,0,1,,,,,,,,,,,,,,,,,,,,,,,,
295765,2022-11-15_11h31.44.005,vts_reward_expectancy_bt,2022.2.4,MacIntel,60.0024001,Chrome,1440,900,,,,,0,639,,,,,,,,,,,,,,,,,U,174,triangle,1,0,,3,,,,,,,,,,,,,,switch,number,numSwt,k,vtsPrac,20,0,20,0,1,1.163,,,,,,,,,,,,,,,,,,,,,,,
295765,2022-11-15_11h31.44.005,vts_reward_expectancy_bt,2022.2.4,MacIntel,60.0024001,Chrome,1440,900,,,,,0,639,,,,,,,,,,,,,,,,,B,146,circle,1,0,,3,,,,,,,,,,,,,,switch,letter,lettSwt,d,vtsPrac,21,0,21,0,1,0.5984,,,,,,,,,,,,,,,,,,,,,,,
295765,2022-11-15_11h31.44.005,vts_reward_expectancy_bt,2022.2.4,MacIntel,60.0024001,Chrome,1440,900,,,,,0,639,,,,,,,,,,,,,,,,,S,132,star,1,0,,3,,,,,,,,,,,,,,repeat,letter,lettRpt,f,vtsPrac,22,0,22,0,1,1.0287,,,,,,,,,,,,,,,,,,,,,,,
295765,2022-11-15_11h31.44.005,vts_reward_expectancy_bt,2022.2.4,MacIntel,60.0024001,Chrome,1440,900,,,,,0,639,,,,,,,,,,,,,,,,,H,125,hexagon,1,0,,3,,,,,,,,,,,,,,switch,number,numSwt,j,vtsPrac,23,0,23,0,1,0.7714,,,,,,,,,,,,,,,,,,,,,,,
295765,2022-11-15_11h31.44.005,vts_reward_expectancy_bt,2022.2.4,MacIntel,60.0024001,Chrome,1440,900,,,,,0,639,,,,,,,,,,,,,,,,,F,132,circle,1,0,,3,,,,,,,,,,,,,,switch,letter,lettSwt,d,vtsPrac,24,0,24,0,1,1.2142,,,,,,,,,,,,,,,,,,,,,,,
295765,2022-11-15_11h31.44.005,vts_reward_expectancy_bt,2022.2.4,MacIntel,60.0024001,Chrome,1440,900,,,,,0,639,,,,,,,,,,,,,,,,,B,146,hexagon,1,0,,3,,,,,,,,,,,,,,switch,number,numSwt,j,vtsPrac,25,0,25,0,1,1.7464,,,,,,,,,,,,,,,,,,,,,,,
295765,2022-11-15_11h31.44.005,vts_reward_expectancy_bt,2022.2.4,MacIntel,60.0024001,Chrome,1440,900,,,,,0,639,,,,,,,,,,,,,,,,,D,139,circle,1,0,,3,,,,,,,,,,,,,,switch,letter,lettSwt,d,vtsPrac,26,0,26,0,1,1.0647,,,,,,,,,,,,,,,,,,,,,,,
295765,2022-11-15_11h31.44.005,vts_reward_expectancy_bt,2022.2.4,MacIntel,60.0024001,Chrome,1440,900,,,,,0,639,,,,,,,,,,,,,,,,,Y,125,triangle,1,0,,3,,,,,,,,,,,,,,repeat,letter,lettRpt,f,vtsPrac,27,0,27,0,1,1.1473,,,,,,,,,,,,,,,,,,,,,,,
295765,2022-11-15_11h31.44.005,vts_reward_expectancy_bt,2022.2.4,MacIntel,60.0024001,Chrome,1440,900,,,,,0,639,,,,,,,,,,,,,,,,,B,167,hexagon,1,0,,3,,,,,,,,,,,,,,repeat,letter,lettRpt,d,vtsPrac,28,0,28,0,1,0.5998,,,,,,,,,,,,,,,,,,,,,,,
295765,2022-11-15_11h31.44.005,vts_reward_expectancy_bt,2022.2.4,MacIntel,60.0024001,Chrome,1440,900,,,,,0,639,,,,,,,,,,,,,,,,,U,181,circle,1,0,,3,,,,,,,,,,,,,,repeat,letter,lettRpt,f,vtsPrac,29,0,29,0,1,0.8313,,,,,,,,,,,,,,,,,,,,,,,
295765,2022-11-15_11h31.44.005,vts_reward_expectancy_bt,2022.2.4,MacIntel,60.0024001,Chrome,1440,900,,,,,0,639,,,,,,,,,,,,,,,,,S,139,circle,1,0,,3,,,,,,,,,,,,,,switch,number,numSwt,j,vtsPrac,30,0,30,0,1,0.6503,,,,,,,,,,,,,,,,,,,,,,,
295765,2022-11-15_11h31.44.005,vts_reward_expectancy_bt,2022.2.4,MacIntel,60.0024001,Chrome,1440,900,,,,,0,639,,,,,,,,,,,,,,,,,H,146,star,1,0,,3,,,,,,,,,,,,,,repeat,number,numRpt,j,vtsPrac,31,0,31,0,1,0.8828,,,,,,,,,,,,,,,,,,,,,,,
295765,2022-11-15_11h31.44.005,vts_reward_expectancy_bt,2022.2.4,MacIntel,60.0024001,Chrome,1440,900,,,,,,,,,,,,,,,,,,,,,,,,,,,,,,,,,,,,,,,,,,,,,,,,,,,,,,,,,,,,,,,,,,,,,,,,,,,,
295765,2022-11-15_11h31.44.005,vts_reward_expectancy_bt,2022.2.4,MacIntel,60.0024001,Chrome,1440,900,,,,,,,,,,,,,,,,,,,,,,,,,,,,,,,,,,,,,,,,,,,,,,,,,,,,,,,,,,,,,,,,,,,,,,,,,,,,
295765,2022-11-15_11h31.44.005,vts_reward_expectancy_bt,2022.2.4,MacIntel,60.0024001,Chrome,1440,900,,,,,0,639,,,,,,,,,,,,,,,,,W,125,triangle,1,0,,,,,,,,,,,,,,,,switch,letter,lettSwt,f,noRew,,,,,,1.2315,0,0,0,0,0,1,,,,,,,,,,,,,,,,,
295765,2022-11-15_11h31.44.005,vts_reward_expectancy_bt,2022.2.4,MacIntel,60.0024001,Chrome,1440,900,,,,,0,639,,,,,,,,,,,,,,,,,S,139,hexagon,1,0,,,,,,,,,,,,,,,,switch,number,numSwt,j,noRew,,,,,,1.2348,0,1,0,1,0,1,,,,,,,,,,,,,,,,,
295765,2022-11-15_11h31.44.005,vts_reward_expectancy_bt,2022.2.4,MacIntel,60.0024001,Chrome,1440,900,,,,,0,639,,,,,,,,,,,,,,,,,D,160,triangle,1,0,,,,,,,,,,,,,,,,repeat,number,numRpt,k,noRew,,,,,,1.1152,0,2,0,2,0,1,,,,,,,,,,,,,,,,,
295765,2022-11-15_11h31.44.005,vts_reward_expectancy_bt,2022.2.4,MacIntel,60.0024001,Chrome,1440,900,,,,,0,639,,,,,,,,,,,,,,,,,B,132,hexagon,1,0,,,,,,,,,,,,,,,,repeat,number,numRpt,j,noRew,,,,,,1.348,0,3,0,3,0,1,,,,,,,,,,,,,,,,,
295765,2022-11-15_11h31.44.005,vts_reward_expectancy_bt,2022.2.4,MacIntel,60.0024001,Chrome,1440,900,,,,,0,639,,,,,,,,,,,,,,,,,W,125,hexagon,1,0,,,,,,,,,,,,,,,,switch,letter,lettSwt,f,noRew,,,,,,2.6142,0,4,0,4,0,1,,,,,,,,,,,,,,,,,
295765,2022-11-15_11h31.44.005,vts_reward_expectancy_bt,2022.2.4,MacIntel,60.0024001,Chrome,1440,900,,,,,0,639,,,,,,,,,,,,,,,,,S,139,triangle,1,0,,,,,,,,,,,,,,,,repeat,letter,lettRpt,f,noRew,,,,,,0.8653,0,5,0,5,0,1,,,,,,,,,,,,,,,,,
295765,2022-11-15_11h31.44.005,vts_reward_expectancy_bt,2022.2.4,MacIntel,60.0024001,Chrome,1440,900,,,,,0,639,,,,,,,,,,,,,,,,,D,160,triangle,1,0,,,,,,,,,,,,,,,,repeat,letter,lettRpt,d,noRew,,,,,,0.8365,0,6,0,6,0,1,,,,,,,,,,,,,,,,,
295765,2022-11-15_11h31.44.005,vts_reward_expectancy_bt,2022.2.4,MacIntel,60.0024001,Chrome,1440,900,,,,,0,639,,,,,,,,,,,,,,,,,B,132,circle,1,0,,,,,,,,,,,,,,,,repeat,letter,lettRpt,d,noRew,,,,,,0.6475,0,7,0,7,0,1,,,,,,,,,,,,,,,,,
295765,2022-11-15_11h31.44.005,vts_reward_expectancy_bt,2022.2.4,MacIntel,60.0024001,Chrome,1440,900,,,,,0,639,,,,,,,,,,,,,,,,,B,146,triangle,1,0,,,,,,,,,,,,,,,,switch,number,numSwt,j,noRew,,,,,,1.4651,0,8,0,8,0,1,,,,,,,,,,,,,,,,,
295765,2022-11-15_11h31.44.005,vts_reward_expectancy_bt,2022.2.4,MacIntel,60.0024001,Chrome,1440,900,,,,,0,639,,,,,,,,,,,,,,,,,Y,160,hexagon,1,0,,,,,,,,,,,,,,,,repeat,number,numRpt,k,noRew,,,,,,1.0303,0,9,0,9,0,1,,,,,,,,,,,,,,,,,
295765,2022-11-15_11h31.44.005,vts_reward_expectancy_bt,2022.2.4,MacIntel,60.0024001,Chrome,1440,900,,,,,0,639,,,,,,,,,,,,,,,,,W,139,triangle,1,0,,,,,,,,,,,,,,,,repeat,number,numRpt,j,noRew,,,,,,1.4815,0,10,0,10,0,1,,,,,,,,,,,,,,,,,
295765,2022-11-15_11h31.44.005,vts_reward_expectancy_bt,2022.2.4,MacIntel,60.0024001,Chrome,1440,900,,,,,0,639,,,,,,,,,,,,,,,,,H,132,circle,1,0,,,,,,,,,,,,,,,,repeat,number,numRpt,j,noRew,,,,,,0.5982,0,11,0,11,0,1,,,,,,,,,,,,,,,,,
295765,2022-11-15_11h31.44.005,vts_reward_expectancy_bt,2022.2.4,MacIntel,60.0024001,Chrome,1440,900,,,,,0,639,,,,,,,,,,,,,,,,,U,132,triangle,1,0,,,,,,,,,,,,,,,,switch,letter,lettSwt,f,noRew,,,,,,2.6153,0,12,0,12,0,1,,,,,,,,,,,,,,,,,
295765,2022-11-15_11h31.44.005,vts_reward_expectancy_bt,2022.2.4,MacIntel,60.0024001,Chrome,1440,900,,,,,0,639,,,,,,,,,,,,,,,,,H,139,circle,1,0,,,,,,,,,,,,,,,,repeat,letter,lettRpt,d,noRew,,,,,,1.7032,0,13,0,13,0,1,,,,,,,,,,,,,,,,,
295765,2022-11-15_11h31.44.005,vts_reward_expectancy_bt,2022.2.4,MacIntel,60.0024001,Chrome,1440,900,,,,,0,639,,,,,,,,,,,,,,,,,S,160,triangle,1,0,,,,,,,,,,,,,,,,switch,number,numSwt,k,noRew,,,,,,1.6133,0,14,0,14,0,1,,,,,,,,,,,,,,,,,
295765,2022-11-15_11h31.44.005,vts_reward_expectancy_bt,2022.2.4,MacIntel,60.0024001,Chrome,1440,900,,,,,0,639,,,,,,,,,,,,,,,,,W,167,star,1,0,,,,,,,,,,,,,,,,switch,letter,lettSwt,f,noRew,,,,,,0.9986,0,15,0,15,0,1,,,,,,,,,,,,,,,,,
295765,2022-11-15_11h31.44.005,vts_reward_expectancy_bt,2022.2.4,MacIntel,60.0024001,Chrome,1440,900,,,,,0,639,,,,,,,,,,,,,,,,,H,132,hexagon,1,0,,,,,,,,,,,,,,,,repeat,letter,lettRpt,d,noRew,,,,,,1.1313,0,16,0,16,0,1,,,,,,,,,,,,,,,,,
295765,2022-11-15_11h31.44.005,vts_reward_expectancy_bt,2022.2.4,MacIntel,60.0024001,Chrome,1440,900,,,,,0,639,,,,,,,,,,,,,,,,,S,146,triangle,1,0,,,,,,,,,,,,,,,,repeat,letter,lettRpt,f,noRew,,,,,,0.7971,0,17,0,17,0,1,,,,,,,,,,,,,,,,,
295765,2022-11-15_11h31.44.005,vts_reward_expectancy_bt,2022.2.4,MacIntel,60.0024001,Chrome,1440,900,,,,,0,639,,,,,,,,,,,,,,,,,D,181,star,1,0,,,,,,,,,,,,,,,,repeat,letter,lettRpt,d,noRew,,,,,,0.7693,0,18,0,18,0,1,,,,,,,,,,,,,,,,,
295765,2022-11-15_11h31.44.005,vts_reward_expectancy_bt,2022.2.4,MacIntel,60.0024001,Chrome,1440,900,,,,,0,639,,,,,,,,,,,,,,,,,W,160,hexagon,1,0,,,,,,,,,,,,,,,,switch,number,numSwt,k,noRew,,,,,,1.9214,0,19,0,19,0,1,,,,,,,,,,,,,,,,,
295765,2022-11-15_11h31.44.005,vts_reward_expectancy_bt,2022.2.4,MacIntel,60.0024001,Chrome,1440,900,,,,,0,639,,,,,,,,,,,,,,,,,F,181,circle,1,0,,,,,,,,,,,,,,,,repeat,number,numRpt,k,noRew,,,,,,1.0147,0,20,0,20,0,1,,,,,,,,,,,,,,,,,
295765,2022-11-15_11h31.44.005,vts_reward_expectancy_bt,2022.2.4,MacIntel,60.0024001,Chrome,1440,900,,,,,0,639,,,,,,,,,,,,,,,,,D,125,triangle,1,0,,,,,,,,,,,,,,,,repeat,number,numRpt,j,noRew,,,,,,0.785,0,21,0,21,0,1,,,,,,,,,,,,,,,,,
295765,2022-11-15_11h31.44.005,vts_reward_expectancy_bt,2022.2.4,MacIntel,60.0024001,Chrome,1440,900,,,,,0,639,,,,,,,,,,,,,,,,,U,160,hexagon,1,0,,,,,,,,,,,,,,,,switch,letter,lettSwt,f,noRew,,,,,,1.35,0,22,0,22,0,1,,,,,,,,,,,,,,,,,
295765,2022-11-15_11h31.44.005,vts_reward_expectancy_bt,2022.2.4,MacIntel,60.0024001,Chrome,1440,900,,,,,0,639,,,,,,,,,,,,,,,,,S,146,triangle,1,0,,,,,,,,,,,,,,,,repeat,letter,lettRpt,f,noRew,,,,,,1.0644,0,23,0,23,0,1,,,,,,,,,,,,,,,,,
295765,2022-11-15_11h31.44.005,vts_reward_expectancy_bt,2022.2.4,MacIntel,60.0024001,Chrome,1440,900,,,,,0,639,,,,,,,,,,,,,,,,,Y,132,hexagon,1,0,,,,,,,,,,,,,,,,repeat,letter,lettRpt,f,noRew,,,,,,1.048,0,24,0,24,0,1,,,,,,,,,,,,,,,,,
295765,2022-11-15_11h31.44.005,vts_reward_expectancy_bt,2022.2.4,MacIntel,60.0024001,Chrome,1440,900,,,,,0,639,,,,,,,,,,,,,,,,,F,174,circle,1,0,,,,,,,,,,,,,,,,repeat,letter,lettRpt,d,noRew,,,,,,1.8017,0,25,0,25,0,1,,,,,,,,,,,,,,,,,
295765,2022-11-15_11h31.44.005,vts_reward_expectancy_bt,2022.2.4,MacIntel,60.0024001,Chrome,1440,900,,,,,0,639,,,,,,,,,,,,,,,,,B,146,star,1,0,,,,,,,,,,,,,,,,switch,number,numSwt,j,noRew,,,,,,1.5477,0,26,0,26,0,1,,,,,,,,,,,,,,,,,
295765,2022-11-15_11h31.44.005,vts_reward_expectancy_bt,2022.2.4,MacIntel,60.0024001,Chrome,1440,900,,,,,0,639,,,,,,,,,,,,,,,,,U,181,circle,1,0,,,,,,,,,,,,,,,,repeat,number,numRpt,k,noRew,,,,,,1.2803,0,27,0,27,0,1,,,,,,,,,,,,,,,,,
295765,2022-11-15_11h31.44.005,vts_reward_expectancy_bt,2022.2.4,MacIntel,60.0024001,Chrome,1440,900,,,,,0,639,,,,,,,,,,,,,,,,,U,181,hexagon,1,0,,,,,,,,,,,,,,,,switch,letter,lettSwt,f,noRew,,,,,,1.6671,0,28,0,28,0,1,,,,,,,,,,,,,,,,,
295765,2022-11-15_11h31.44.005,vts_reward_expectancy_bt,2022.2.4,MacIntel,60.0024001,Chrome,1440,900,,,,,0,639,,,,,,,,,,,,,,,,,W,125,circle,1,0,,,,,,,,,,,,,,,,repeat,letter,lettRpt,f,noRew,,,,,,1.4996,0,29,0,29,0,1,,,,,,,,,,,,,,,,,
295765,2022-11-15_11h31.44.005,vts_reward_expectancy_bt,2022.2.4,MacIntel,60.0024001,Chrome,1440,900,,,,,0,639,,,,,,,,,,,,,,,,,Y,174,hexagon,1,0,,,,,,,,,,,,,,,,repeat,letter,lettRpt,f,noRew,,,,,,1.2512,0,30,0,30,0,1,,,,,,,,,,,,,,,,,
295765,2022-11-15_11h31.44.005,vts_reward_expectancy_bt,2022.2.4,MacIntel,60.0024001,Chrome,1440,900,,,,,0,639,,,,,,,,,,,,,,,,,H,146,circle,1,0,,,,,,,,,,,,,,,,switch,number,numSwt,j,noRew,,,,,,1.3328,0,31,0,31,0,1,,,,,,,,,,,,,,,,,
295765,2022-11-15_11h31.44.005,vts_reward_expectancy_bt,2022.2.4,MacIntel,60.0024001,Chrome,1440,900,,,,,0,639,,,,,,,,,,,,,,,,,H,146,hexagon,1,0,,,,,,,,,,,,,,,,repeat,number,numRpt,j,noRew,,,,,,1.0496,0,32,0,32,0,1,,,,,,,,,,,,,,,,,
295765,2022-11-15_11h31.44.005,vts_reward_expectancy_bt,2022.2.4,MacIntel,60.0024001,Chrome,1440,900,,,,,0,639,,,,,,,,,,,,,,,,,S,167,circle,-1,0,,,,,,,,,,,,,,,,switch,no_choice,NA,,noRew,,,,,,,0,33,0,33,0,1,,,,,,,,,,,,,,,,,
295765,2022-11-15_11h31.44.005,vts_reward_expectancy_bt,2022.2.4,MacIntel,60.0024001,Chrome,1440,900,,,,,0,639,,,,,,,,,,,,,,,,,F,125,hexagon,1,0,,,,,,,,,,,,,,,,switch,number,numSwt,j,noRew,,,,,,1.2161,0,34,0,34,0,1,,,,,,,,,,,,,,,,,
295765,2022-11-15_11h31.44.005,vts_reward_expectancy_bt,2022.2.4,MacIntel,60.0024001,Chrome,1440,900,,,,,0,639,,,,,,,,,,,,,,,,,U,160,circle,0,0,,,,,,,,,,,,,,,,repeat,number,NA,j,noRew,,,,,,1.5823,0,35,0,35,0,1,,,,,,,,,,,,,,,,,
295765,2022-11-15_11h31.44.005,vts_reward_expectancy_bt,2022.2.4,MacIntel,60.0024001,Chrome,1440,900,,,,,0,639,,,,,,,,,,,,,,,,,F,181,triangle,1,1,,,,,,,,,,,,,,,,switch,letter,lettSwt,d,noRew,,,,,,1.7319,0,36,0,36,0,1,,,,,,,,,,,,,,,,,
295765,2022-11-15_11h31.44.005,vts_reward_expectancy_bt,2022.2.4,MacIntel,60.0024001,Chrome,1440,900,,,,,0,639,,,,,,,,,,,,,,,,,U,132,circle,1,0,,,,,,,,,,,,,,,,repeat,letter,lettRpt,f,noRew,,,,,,1.1044,0,37,0,37,0,1,,,,,,,,,,,,,,,,,
295765,2022-11-15_11h31.44.005,vts_reward_expectancy_bt,2022.2.4,MacIntel,60.0024001,Chrome,1440,900,,,,,0,639,,,,,,,,,,,,,,,,,W,139,hexagon,1,0,,,,,,,,,,,,,,,,switch,number,numSwt,j,noRew,,,,,,1.0817,0,38,0,38,0,1,,,,,,,,,,,,,,,,,
295765,2022-11-15_11h31.44.005,vts_reward_expectancy_bt,2022.2.4,MacIntel,60.0024001,Chrome,1440,900,,,,,0,639,,,,,,,,,,,,,,,,,B,174,triangle,1,0,,,,,,,,,,,,,,,,repeat,number,numRpt,k,noRew,,,,,,0.9686,0,39,0,39,0,1,,,,,,,,,,,,,,,,,
295765,2022-11-15_11h31.44.005,vts_reward_expectancy_bt,2022.2.4,MacIntel,60.0024001,Chrome,1440,900,,,,,0,639,,,,,,,,,,,,,,,,,W,160,circle,1,0,,,,,,,,,,,,,,,,switch,letter,lettSwt,f,noRew,,,,,,1.1804,0,40,0,40,0,1,,,,,,,,,,,,,,,,,
295765,2022-11-15_11h31.44.005,vts_reward_expectancy_bt,2022.2.4,MacIntel,60.0024001,Chrome,1440,900,,,,,0,639,,,,,,,,,,,,,,,,,U,174,triangle,1,0,,,,,,,,,,,,,,,,repeat,letter,lettRpt,f,noRew,,,,,,1.3565,0,41,0,41,0,1,,,,,,,,,,,,,,,,,
295765,2022-11-15_11h31.44.005,vts_reward_expectancy_bt,2022.2.4,MacIntel,60.0024001,Chrome,1440,900,,,,,0,639,,,,,,,,,,,,,,,,,Y,167,star,1,0,,,,,,,,,,,,,,,,repeat,letter,lettRpt,f,noRew,,,,,,0.8651,0,42,0,42,0,1,,,,,,,,,,,,,,,,,
295765,2022-11-15_11h31.44.005,vts_reward_expectancy_bt,2022.2.4,MacIntel,60.0024001,Chrome,1440,900,,,,,0,639,,,,,,,,,,,,,,,,,F,181,circle,1,0,,,,,,,,,,,,,,,,switch,number,numSwt,k,noRew,,,,,,1.5018,0,43,0,43,0,1,,,,,,,,,,,,,,,,,
295765,2022-11-15_11h31.44.005,vts_reward_expectancy_bt,2022.2.4,MacIntel,60.0024001,Chrome,1440,900,,,,,0,639,,,,,,,,,,,,,,,,,S,181,circle,1,0,,,,,,,,,,,,,,,,repeat,number,numRpt,k,noRew,,,,,,2.1176,0,44,0,44,0,1,,,,,,,,,,,,,,,,,
295765,2022-11-15_11h31.44.005,vts_reward_expectancy_bt,2022.2.4,MacIntel,60.0024001,Chrome,1440,900,,,,,0,639,,,,,,,,,,,,,,,,,F,174,triangle,1,0,,,,,,,,,,,,,,,,switch,letter,lettSwt,d,noRew,,,,,,0.7829,0,45,0,45,0,1,,,,,,,,,,,,,,,,,
295765,2022-11-15_11h31.44.005,vts_reward_expectancy_bt,2022.2.4,MacIntel,60.0024001,Chrome,1440,900,,,,,0,639,,,,,,,,,,,,,,,,,U,167,hexagon,1,0,,,,,,,,,,,,,,,,repeat,letter,lettRpt,f,noRew,,,,,,0.8814,0,46,0,46,0,1,,,,,,,,,,,,,,,,,
295765,2022-11-15_11h31.44.005,vts_reward_expectancy_bt,2022.2.4,MacIntel,60.0024001,Chrome,1440,900,,,,,0,639,,,,,,,,,,,,,,,,,B,125,star,1,0,,,,,,,,,,,,,,,,repeat,letter,lettRpt,d,noRew,,,,,,0.6984,0,47,0,47,0,1,,,,,,,,,,,,,,,,,
295765,2022-11-15_11h31.44.005,vts_reward_expectancy_bt,2022.2.4,MacIntel,60.0024001,Chrome,1440,900,,,,,0,639,,,,,,,,,,,,,,,,,H,139,triangle,1,0,,,,,,,,,,,,,,,,repeat,letter,lettRpt,d,noRew,,,,,,0.7471,0,48,0,48,0,1,,,,,,,,,,,,,,,,,
295765,2022-11-15_11h31.44.005,vts_reward_expectancy_bt,2022.2.4,MacIntel,60.0024001,Chrome,1440,900,,,,,0,639,,,,,,,,,,,,,,,,,U,160,hexagon,1,0,,,,,,,,,,,,,,,,switch,number,numSwt,k,noRew,,,,,,1.7056,0,49,0,49,0,1,,,,,,,,,,,,,,,,,
295765,2022-11-15_11h31.44.005,vts_reward_expectancy_bt,2022.2.4,MacIntel,60.0024001,Chrome,1440,900,,,,,0,639,,,,,,,,,,,,,,,,,F,181,star,1,0,,,,,,,,,,,,,,,,repeat,number,numRpt,k,noRew,,,,,,0.671,0,50,0,50,0,1,,,,,,,,,,,,,,,,,
295765,2022-11-15_11h31.44.005,vts_reward_expectancy_bt,2022.2.4,MacIntel,60.0024001,Chrome,1440,900,,,,,0,639,,,,,,,,,,,,,,,,,Y,174,circle,1,0,,,,,,,,,,,,,,,,repeat,number,numRpt,k,noRew,,,,,,0.8791,0,51,0,51,0,1,,,,,,,,,,,,,,,,,
295765,2022-11-15_11h31.44.005,vts_reward_expectancy_bt,2022.2.4,MacIntel,60.0024001,Chrome,1440,900,,,,,0,639,,,,,,,,,,,,,,,,,H,181,triangle,1,0,,,,,,,,,,,,,,,,switch,letter,lettSwt,d,noRew,,,,,,1.0711,0,52,0,52,0,1,,,,,,,,,,,,,,,,,
295765,2022-11-15_11h31.44.005,vts_reward_expectancy_bt,2022.2.4,MacIntel,60.0024001,Chrome,1440,900,,,,,0,639,,,,,,,,,,,,,,,,,S,146,circle,1,0,,,,,,,,,,,,,,,,repeat,letter,lettRpt,f,noRew,,,,,,1.1967,0,53,0,53,0,1,,,,,,,,,,,,,,,,,
295765,2022-11-15_11h31.44.005,vts_reward_expectancy_bt,2022.2.4,MacIntel,60.0024001,Chrome,1440,900,,,,,0,639,,,,,,,,,,,,,,,,,Y,160,star,1,0,,,,,,,,,,,,,,,,repeat,letter,lettRpt,f,noRew,,,,,,0.7302,0,54,0,54,0,1,,,,,,,,,,,,,,,,,
295765,2022-11-15_11h31.44.005,vts_reward_expectancy_bt,2022.2.4,MacIntel,60.0024001,Chrome,1440,900,,,,,0,639,,,,,,,,,,,,,,,,,F,139,circle,1,0,,,,,,,,,,,,,,,,repeat,letter,lettRpt,d,noRew,,,,,,1.6803,0,55,0,55,0,1,,,,,,,,,,,,,,,,,
295765,2022-11-15_11h31.44.005,vts_reward_expectancy_bt,2022.2.4,MacIntel,60.0024001,Chrome,1440,900,,,,,0,639,,,,,,,,,,,,,,,,,W,139,circle,1,0,,,,,,,,,,,,,,,,switch,number,numSwt,j,noRew,,,,,,1.5233,0,56,0,56,0,1,,,,,,,,,,,,,,,,,
295765,2022-11-15_11h31.44.005,vts_reward_expectancy_bt,2022.2.4,MacIntel,60.0024001,Chrome,1440,900,,,,,0,639,,,,,,,,,,,,,,,,,F,125,star,1,0,,,,,,,,,,,,,,,,repeat,number,numRpt,j,noRew,,,,,,2.0987,0,57,0,57,0,1,,,,,,,,,,,,,,,,,
295765,2022-11-15_11h31.44.005,vts_reward_expectancy_bt,2022.2.4,MacIntel,60.0024001,Chrome,1440,900,,,,,0,639,,,,,,,,,,,,,,,,,H,132,triangle,1,0,,,,,,,,,,,,,,,,repeat,number,numRpt,j,noRew,,,,,,0.8314,0,58,0,58,0,1,,,,,,,,,,,,,,,,,
295765,2022-11-15_11h31.44.005,vts_reward_expectancy_bt,2022.2.4,MacIntel,60.0024001,Chrome,1440,900,,,,,0,639,,,,,,,,,,,,,,,,,S,181,star,1,0,,,,,,,,,,,,,,,,repeat,number,numRpt,k,noRew,,,,,,0.8629,0,59,0,59,0,1,,,,,,,,,,,,,,,,,
295765,2022-11-15_11h31.44.005,vts_reward_expectancy_bt,2022.2.4,MacIntel,60.0024001,Chrome,1440,900,,,,,0,639,,,,,,,,,,,,,,,,,D,132,triangle,1,0,,,,,,,,,,,,,,,,switch,letter,lettSwt,d,noRew,,,,,,0.5482,0,60,0,60,0,1,,,,,,,,,,,,,,,,,
295765,2022-11-15_11h31.44.005,vts_reward_expectancy_bt,2022.2.4,MacIntel,60.0024001,Chrome,1440,900,,,,,0,639,,,,,,,,,,,,,,,,,H,125,hexagon,1,0,,,,,,,,,,,,,,,,repeat,letter,lettRpt,d,noRew,,,,,,0.8165,0,61,0,61,0,1,,,,,,,,,,,,,,,,,
295765,2022-11-15_11h31.44.005,vts_reward_expectancy_bt,2022.2.4,MacIntel,60.0024001,Chrome,1440,900,,,,,0,639,,,,,,,,,,,,,,,,,F,167,hexagon,1,0,,,,,,,,,,,,,,,,repeat,letter,lettRpt,d,noRew,,,,,,0.7319,0,62,0,62,0,1,,,,,,,,,,,,,,,,,
295765,2022-11-15_11h31.44.005,vts_reward_expectancy_bt,2022.2.4,MacIntel,60.0024001,Chrome,1440,900,,,,,0,639,,,,,,,,,,,,,,,,,S,146,circle,0,0,,,,,,,,,,,,,,,,repeat,letter,NA,d,noRew,,,,,,0.6958,0,63,0,63,0,1,,,,,,,,,,,,,,,,,
295765,2022-11-15_11h31.44.005,vts_reward_expectancy_bt,2022.2.4,MacIntel,60.0024001,Chrome,1440,900,,,,,,,,,,,,,,,,,,,,,,,,,,,,,,,,,,,,,,,,,,,,,,,,,,,,,,,,,,,,,,,,,,,,,,,,,,,,
295765,2022-11-15_11h31.44.005,vts_reward_expectancy_bt,2022.2.4,MacIntel,60.0024001,Chrome,1440,900,,,,,0,639,,,,,,,,,,,,,,,,,S,181,hexagon,-1,1,,,,,,,,,,,,,,,,switch,no_choice,NA,,noRew,,,,,,,0,,,,,,space,8.9857,high,0,0,0,0,1,,,,,,,,,
295765,2022-11-15_11h31.44.005,vts_reward_expectancy_bt,2022.2.4,MacIntel,60.0024001,Chrome,1440,900,,,,,0,639,,,,,,,,,,,,,,,,,Y,125,triangle,0,0,,,,,,,,,,,,,,,,switch,letter,NA,d,noRew,,,,,,0.8528,0,,,,,,,,high,1,0,1,0,1,,,,,,,,,
295765,2022-11-15_11h31.44.005,vts_reward_expectancy_bt,2022.2.4,MacIntel,60.0024001,Chrome,1440,900,,,,,0,639,,,,,,,,,,,,,,,,,U,132,circle,0,1,,,,,,,,,,,,,,,,repeat,letter,NA,d,noRew,,,,,,1.5521,0,,,,,,,,high,2,0,2,0,1,,,,,,,,,
295765,2022-11-15_11h31.44.005,vts_reward_expectancy_bt,2022.2.4,MacIntel,60.0024001,Chrome,1440,900,,,,,0,639,,,,,,,,,,,,,,,,,D,146,star,1,1,,,,,,,,,,,,,,,,repeat,letter,lettRpt,d,Hi,,,,,,1.0303,0,,,,,,,,high,3,0,3,0,1,,,,,,,,,
295765,2022-11-15_11h31.44.005,vts_reward_expectancy_bt,2022.2.4,MacIntel,60.0024001,Chrome,1440,900,,,,,0,639,,,,,,,,,,,,,,,,,B,174,hexagon,0,0,,,,,,,,,,,,,,,,repeat,letter,NA,f,Hi,,,,,,0.8981,0,,,,,,,,high,4,0,4,0,1,,,,,,,,,
295765,2022-11-15_11h31.44.005,vts_reward_expectancy_bt,2022.2.4,MacIntel,60.0024001,Chrome,1440,900,,,,,1,640,,,,,,,,,,,,,,,,,W,139,triangle,1,1,,,,,,,,,,,,,,,,switch,number,numSwt,j,Lo,,,,,,1.2656,0,,,,,,,,high,5,0,5,0,1,,,,,,,,,
295765,2022-11-15_11h31.44.005,vts_reward_expectancy_bt,2022.2.4,MacIntel,60.0024001,Chrome,1440,900,,,,,0,640,,,,,,,,,,,,,,,,,F,160,circle,1,0,,,,,,,,,,,,,,,,switch,letter,lettSwt,d,Hi,,,,,,1.1138,0,,,,,,,,high,6,0,6,0,1,,,,,,,,,
295765,2022-11-15_11h31.44.005,vts_reward_expectancy_bt,2022.2.4,MacIntel,60.0024001,Chrome,1440,900,,,,,0,640,,,,,,,,,,,,,,,,,H,167,star,1,0,,,,,,,,,,,,,,,,repeat,letter,lettRpt,d,Hi,,,,,,1.1478,0,,,,,,,,high,7,0,7,0,1,,,,,,,,,
295765,2022-11-15_11h31.44.005,vts_reward_expectancy_bt,2022.2.4,MacIntel,60.0024001,Chrome,1440,900,,,,,0,640,,,,,,,,,,,,,,,,,S,181,hexagon,0,0,,,,,,,,,,,,,,,,switch,number,NA,j,Hi,,,,,,1.5301,0,,,,,,,,high,8,0,8,0,1,,,,,,,,,
295765,2022-11-15_11h31.44.005,vts_reward_expectancy_bt,2022.2.4,MacIntel,60.0024001,Chrome,1440,900,,,,,0,640,,,,,,,,,,,,,,,,,Y,125,star,1,1,,,,,,,,,,,,,,,,repeat,number,numRpt,j,Hi,,,,,,1.1486,0,,,,,,,,high,9,0,9,0,1,,,,,,,,,
295765,2022-11-15_11h31.44.005,vts_reward_expectancy_bt,2022.2.4,MacIntel,60.0024001,Chrome,1440,900,,,,,1,641,,,,,,,,,,,,,,,,,U,132,triangle,1,0,,,,,,,,,,,,,,,,switch,letter,lettSwt,f,Lo,,,,,,1.3168,0,,,,,,,,high,10,0,10,0,1,,,,,,,,,
295765,2022-11-15_11h31.44.005,vts_reward_expectancy_bt,2022.2.4,MacIntel,60.0024001,Chrome,1440,900,,,,,0,641,,,,,,,,,,,,,,,,,D,146,circle,1,0,,,,,,,,,,,,,,,,switch,number,numSwt,j,Hi,,,,,,1.4138,0,,,,,,,,high,11,0,11,0,1,,,,,,,,,
295765,2022-11-15_11h31.44.005,vts_reward_expectancy_bt,2022.2.4,MacIntel,60.0024001,Chrome,1440,900,,,,,0,641,,,,,,,,,,,,,,,,,B,174,star,0,0,,,,,,,,,,,,,,,,switch,letter,NA,f,Hi,,,,,,1.1305,0,,,,,,,,high,12,0,12,0,1,,,,,,,,,
295765,2022-11-15_11h31.44.005,vts_reward_expectancy_bt,2022.2.4,MacIntel,60.0024001,Chrome,1440,900,,,,,10,651,,,,,,,,,,,,,,,,,W,139,circle,1,1,,,,,,,,,,,,,,,,switch,number,numSwt,j,Hi,,,,,,1.3141,0,,,,,,,,high,13,0,13,0,1,,,,,,,,,
295765,2022-11-15_11h31.44.005,vts_reward_expectancy_bt,2022.2.4,MacIntel,60.0024001,Chrome,1440,900,,,,,1,652,,,,,,,,,,,,,,,,,F,160,hexagon,1,0,,,,,,,,,,,,,,,,repeat,number,numRpt,k,Lo,,,,,,1.6296,0,,,,,,,,high,14,0,14,0,1,,,,,,,,,
295765,2022-11-15_11h31.44.005,vts_reward_expectancy_bt,2022.2.4,MacIntel,60.0024001,Chrome,1440,900,,,,,1,653,,,,,,,,,,,,,,,,,H,167,triangle,1,0,,,,,,,,,,,,,,,,repeat,number,numRpt,k,Lo,,,,,,1.4308,0,,,,,,,,high,15,0,15,0,1,,,,,,,,,
295765,2022-11-15_11h31.44.005,vts_reward_expectancy_bt,2022.2.4,MacIntel,60.0024001,Chrome,1440,900,,,,,10,663,,,,,,,,,,,,,,,,,D,146,circle,1,0,,,,,,,,,,,,,,,,switch,letter,lettSwt,d,Hi,,,,,,1.0324,0,,,,,,,,high,16,0,16,0,1,,,,,,,,,
295765,2022-11-15_11h31.44.005,vts_reward_expectancy_bt,2022.2.4,MacIntel,60.0024001,Chrome,1440,900,,,,,1,664,,,,,,,,,,,,,,,,,H,181,triangle,1,0,,,,,,,,,,,,,,,,switch,number,numSwt,k,Lo,,,,,,1.3313,0,,,,,,,,high,17,0,17,0,1,,,,,,,,,
295765,2022-11-15_11h31.44.005,vts_reward_expectancy_bt,2022.2.4,MacIntel,60.0024001,Chrome,1440,900,,,,,0,664,,,,,,,,,,,,,,,,,W,167,star,0,0,,,,,,,,,,,,,,,,switch,letter,NA,d,Lo,,,,,,1.0484,0,,,,,,,,high,18,0,18,0,1,,,,,,,,,
295765,2022-11-15_11h31.44.005,vts_reward_expectancy_bt,2022.2.4,MacIntel,60.0024001,Chrome,1440,900,,,,,1,665,,,,,,,,,,,,,,,,,B,132,hexagon,1,1,,,,,,,,,,,,,,,,repeat,letter,lettRpt,d,Lo,,,,,,1.4487,0,,,,,,,,high,19,0,19,0,1,,,,,,,,,
295765,2022-11-15_11h31.44.005,vts_reward_expectancy_bt,2022.2.4,MacIntel,60.0024001,Chrome,1440,900,,,,,0,665,,,,,,,,,,,,,,,,,S,174,star,1,0,,,,,,,,,,,,,,,,repeat,letter,lettRpt,f,Hi,,,,,,1.3966,0,,,,,,,,high,20,0,20,0,1,,,,,,,,,
295765,2022-11-15_11h31.44.005,vts_reward_expectancy_bt,2022.2.4,MacIntel,60.0024001,Chrome,1440,900,,,,,1,666,,,,,,,,,,,,,,,,,U,139,hexagon,1,0,,,,,,,,,,,,,,,,repeat,letter,lettRpt,f,Lo,,,,,,0.7537,0,,,,,,,,high,21,0,21,0,1,,,,,,,,,
295765,2022-11-15_11h31.44.005,vts_reward_expectancy_bt,2022.2.4,MacIntel,60.0024001,Chrome,1440,900,,,,,1,667,,,,,,,,,,,,,,,,,F,160,triangle,1,0,,,,,,,,,,,,,,,,repeat,letter,lettRpt,d,Lo,,,,,,0.7017,0,,,,,,,,high,22,0,22,0,1,,,,,,,,,
295765,2022-11-15_11h31.44.005,vts_reward_expectancy_bt,2022.2.4,MacIntel,60.0024001,Chrome,1440,900,,,,,10,677,,,,,,,,,,,,,,,,,Y,125,circle,1,0,,,,,,,,,,,,,,,,switch,number,numSwt,j,Hi,,,,,,1.0636,0,,,,,,,,high,23,0,23,0,1,,,,,,,,,
295765,2022-11-15_11h31.44.005,vts_reward_expectancy_bt,2022.2.4,MacIntel,60.0024001,Chrome,1440,900,,,,,1,678,,,,,,,,,,,,,,,,,Y,125,triangle,1,0,,,,,,,,,,,,,,,,repeat,number,numRpt,j,Lo,,,,,,0.8713,0,,,,,,,,high,24,0,24,0,1,,,,,,,,,
295765,2022-11-15_11h31.44.005,vts_reward_expectancy_bt,2022.2.4,MacIntel,60.0024001,Chrome,1440,900,,,,,0,678,,,,,,,,,,,,,,,,,U,146,star,1,0,,,,,,,,,,,,,,,,switch,letter,lettSwt,f,Hi,,,,,,1.2638,0,,,,,,,,high,25,0,25,0,1,,,,,,,,,
295765,2022-11-15_11h31.44.005,vts_reward_expectancy_bt,2022.2.4,MacIntel,60.0024001,Chrome,1440,900,,,,,1,679,,,,,,,,,,,,,,,,,S,160,hexagon,1,0,,,,,,,,,,,,,,,,switch,number,numSwt,k,Lo,,,,,,1.231,0,,,,,,,,high,26,0,26,0,1,,,,,,,,,
295765,2022-11-15_11h31.44.005,vts_reward_expectancy_bt,2022.2.4,MacIntel,60.0024001,Chrome,1440,900,,,,,10,689,,,,,,,,,,,,,,,,,B,132,circle,1,0,,,,,,,,,,,,,,,,switch,letter,lettSwt,d,Hi,,,,,,0.7146,0,,,,,,,,high,27,0,27,0,1,,,,,,,,,
295765,2022-11-15_11h31.44.005,vts_reward_expectancy_bt,2022.2.4,MacIntel,60.0024001,Chrome,1440,900,,,,,0,689,,,,,,,,,,,,,,,,,D,174,star,0,0,,,,,,,,,,,,,,,,switch,number,NA,j,Hi,,,,,,0.7977,0,,,,,,,,high,28,0,28,0,1,,,,,,,,,
295765,2022-11-15_11h31.44.005,vts_reward_expectancy_bt,2022.2.4,MacIntel,60.0024001,Chrome,1440,900,,,,,10,699,,,,,,,,,,,,,,,,,W,139,circle,1,1,,,,,,,,,,,,,,,,switch,letter,lettSwt,f,Hi,,,,,,0.9805,0,,,,,,,,high,29,0,29,0,1,,,,,,,,,
295765,2022-11-15_11h31.44.005,vts_reward_expectancy_bt,2022.2.4,MacIntel,60.0024001,Chrome,1440,900,,,,,1,700,,,,,,,,,,,,,,,,,H,181,hexagon,1,0,,,,,,,,,,,,,,,,switch,number,numSwt,k,Lo,,,,,,1.0711,0,,,,,,,,high,30,0,30,0,1,,,,,,,,,
295765,2022-11-15_11h31.44.005,vts_reward_expectancy_bt,2022.2.4,MacIntel,60.0024001,Chrome,1440,900,,,,,1,701,,,,,,,,,,,,,,,,,F,167,triangle,1,0,,,,,,,,,,,,,,,,switch,letter,lettSwt,d,Lo,,,,,,0.7299,0,,,,,,,,high,31,0,31,0,1,,,,,,,,,
295765,2022-11-15_11h31.44.005,vts_reward_expectancy_bt,2022.2.4,MacIntel,60.0024001,Chrome,1440,900,,,,,10,711,,,,,,,,,,,,,,,,,D,174,star,1,0,,,,,,,,,,,,,,,,repeat,letter,lettRpt,d,Hi,,,,,,0.7814,1,,,,,,space,8.4568,high,0,0,0,0,1,,,,,,,,,
295765,2022-11-15_11h31.44.005,vts_reward_expectancy_bt,2022.2.4,MacIntel,60.0024001,Chrome,1440,900,,,,,1,712,,,,,,,,,,,,,,,,,W,125,hexagon,1,0,,,,,,,,,,,,,,,,switch,number,numSwt,j,Lo,,,,,,1.0475,1,,,,,,,,high,1,0,1,0,1,,,,,,,,,
295765,2022-11-15_11h31.44.005,vts_reward_expectancy_bt,2022.2.4,MacIntel,60.0024001,Chrome,1440,900,,,,,10,722,,,,,,,,,,,,,,,,,U,181,triangle,1,0,,,,,,,,,,,,,,,,switch,letter,lettSwt,f,Lo,,,,,,1.049,1,,,,,,,,high,2,0,2,0,1,,,,,,,,,
295765,2022-11-15_11h31.44.005,vts_reward_expectancy_bt,2022.2.4,MacIntel,60.0024001,Chrome,1440,900,,,,,10,732,,,,,,,,,,,,,,,,,Y,139,circle,1,0,,,,,,,,,,,,,,,,repeat,letter,lettRpt,f,Hi,,,,,,0.9132,1,,,,,,,,high,3,0,3,0,1,,,,,,,,,
295765,2022-11-15_11h31.44.005,vts_reward_expectancy_bt,2022.2.4,MacIntel,60.0024001,Chrome,1440,900,,,,,10,742,,,,,,,,,,,,,,,,,B,132,star,1,0,,,,,,,,,,,,,,,,repeat,letter,lettRpt,d,Hi,,,,,,0.8978,1,,,,,,,,high,4,0,4,0,1,,,,,,,,,
295765,2022-11-15_11h31.44.005,vts_reward_expectancy_bt,2022.2.4,MacIntel,60.0024001,Chrome,1440,900,,,,,1,743,,,,,,,,,,,,,,,,,S,146,hexagon,1,0,,,,,,,,,,,,,,,,repeat,letter,lettRpt,f,Lo,,,,,,0.9551,1,,,,,,,,high,5,0,5,0,1,,,,,,,,,
295765,2022-11-15_11h31.44.005,vts_reward_expectancy_bt,2022.2.4,MacIntel,60.0024001,Chrome,1440,900,,,,,1,744,,,,,,,,,,,,,,,,,H,160,triangle,1,0,,,,,,,,,,,,,,,,repeat,letter,lettRpt,d,Lo,,,,,,1.6506,1,,,,,,,,high,6,0,6,0,1,,,,,,,,,
295765,2022-11-15_11h31.44.005,vts_reward_expectancy_bt,2022.2.4,MacIntel,60.0024001,Chrome,1440,900,,,,,0,744,,,,,,,,,,,,,,,,,F,167,circle,1,0,,,,,,,,,,,,,,,,switch,number,numSwt,k,Hi,,,,,,1.6631,1,,,,,,,,high,7,0,7,0,1,,,,,,,,,
295765,2022-11-15_11h31.44.005,vts_reward_expectancy_bt,2022.2.4,MacIntel,60.0024001,Chrome,1440,900,,,,,1,745,,,,,,,,,,,,,,,,,D,174,hexagon,1,0,,,,,,,,,,,,,,,,repeat,number,numRpt,k,Lo,,,,,,1.1813,1,,,,,,,,high,8,0,8,0,1,,,,,,,,,
295765,2022-11-15_11h31.44.005,vts_reward_expectancy_bt,2022.2.4,MacIntel,60.0024001,Chrome,1440,900,,,,,1,746,,,,,,,,,,,,,,,,,W,125,triangle,1,0,,,,,,,,,,,,,,,,switch,letter,lettSwt,f,Lo,,,,,,0.7798,1,,,,,,,,high,9,0,9,0,1,,,,,,,,,
295765,2022-11-15_11h31.44.005,vts_reward_expectancy_bt,2022.2.4,MacIntel,60.0024001,Chrome,1440,900,,,,,10,756,,,,,,,,,,,,,,,,,U,181,circle,1,0,,,,,,,,,,,,,,,,switch,number,numSwt,k,Hi,,,,,,0.7305,1,,,,,,,,high,10,0,10,0,1,,,,,,,,,
295765,2022-11-15_11h31.44.005,vts_reward_expectancy_bt,2022.2.4,MacIntel,60.0024001,Chrome,1440,900,,,,,10,766,,,,,,,,,,,,,,,,,Y,139,star,1,0,,,,,,,,,,,,,,,,repeat,number,numRpt,j,Hi,,,,,,0.7387,1,,,,,,,,high,11,0,11,0,1,,,,,,,,,
295765,2022-11-15_11h31.44.005,vts_reward_expectancy_bt,2022.2.4,MacIntel,60.0024001,Chrome,1440,900,,,,,1,767,,,,,,,,,,,,,,,,,B,132,hexagon,1,0,,,,,,,,,,,,,,,,switch,letter,lettSwt,d,Lo,,,,,,0.5314,1,,,,,,,,high,12,0,12,0,1,,,,,,,,,
295765,2022-11-15_11h31.44.005,vts_reward_expectancy_bt,2022.2.4,MacIntel,60.0024001,Chrome,1440,900,,,,,1,768,,,,,,,,,,,,,,,,,S,146,triangle,1,0,,,,,,,,,,,,,,,,switch,number,numSwt,j,Lo,,,,,,1.2656,1,,,,,,,,high,13,0,13,0,1,,,,,,,,,
295765,2022-11-15_11h31.44.005,vts_reward_expectancy_bt,2022.2.4,MacIntel,60.0024001,Chrome,1440,900,,,,,10,778,,,,,,,,,,,,,,,,,H,160,circle,1,0,,,,,,,,,,,,,,,,switch,letter,lettSwt,d,Hi,,,,,,0.5987,1,,,,,,,,high,14,0,14,0,1,,,,,,,,,
295765,2022-11-15_11h31.44.005,vts_reward_expectancy_bt,2022.2.4,MacIntel,60.0024001,Chrome,1440,900,,,,,10,788,,,,,,,,,,,,,,,,,F,167,star,1,0,,,,,,,,,,,,,,,,switch,number,numSwt,k,Hi,,,,,,1.0378,1,,,,,,,,high,15,0,15,0,1,,,,,,,,,
295765,2022-11-15_11h31.44.005,vts_reward_expectancy_bt,2022.2.4,MacIntel,60.0024001,Chrome,1440,900,,,,,1,789,,,,,,,,,,,,,,,,,W,160,hexagon,1,0,,,,,,,,,,,,,,,,repeat,number,numRpt,k,Lo,,,,,,0.7719,1,,,,,,,,high,16,0,16,0,1,,,,,,,,,
295765,2022-11-15_11h31.44.005,vts_reward_expectancy_bt,2022.2.4,MacIntel,60.0024001,Chrome,1440,900,,,,,10,799,,,,,,,,,,,,,,,,,D,174,triangle,1,0,,,,,,,,,,,,,,,,repeat,number,numRpt,k,Lo,,,,,,0.9851,1,,,,,,,,high,17,0,17,0,1,,,,,,,,,
295765,2022-11-15_11h31.44.005,vts_reward_expectancy_bt,2022.2.4,MacIntel,60.0024001,Chrome,1440,900,,,,,10,809,,,,,,,,,,,,,,,,,Y,139,circle,1,0,,,,,,,,,,,,,,,,repeat,number,numRpt,j,Hi,,,,,,0.9836,1,,,,,,,,high,18,0,18,0,1,,,,,,,,,
295765,2022-11-15_11h31.44.005,vts_reward_expectancy_bt,2022.2.4,MacIntel,60.0024001,Chrome,1440,900,,,,,10,819,,,,,,,,,,,,,,,,,B,146,star,1,0,,,,,,,,,,,,,,,,switch,letter,lettSwt,d,Hi,,,,,,0.7309,1,,,,,,,,high,19,0,19,0,1,,,,,,,,,
295765,2022-11-15_11h31.44.005,vts_reward_expectancy_bt,2022.2.4,MacIntel,60.0024001,Chrome,1440,900,,,,,1,820,,,,,,,,,,,,,,,,,S,167,hexagon,1,0,,,,,,,,,,,,,,,,repeat,letter,lettRpt,f,Lo,,,,,,0.7979,1,,,,,,,,high,20,0,20,0,1,,,,,,,,,
295765,2022-11-15_11h31.44.005,vts_reward_expectancy_bt,2022.2.4,MacIntel,60.0024001,Chrome,1440,900,,,,,10,830,,,,,,,,,,,,,,,,,U,181,circle,1,0,,,,,,,,,,,,,,,,switch,number,numSwt,k,Hi,,,,,,0.8644,1,,,,,,,,high,21,0,21,0,1,,,,,,,,,
295765,2022-11-15_11h31.44.005,vts_reward_expectancy_bt,2022.2.4,MacIntel,60.0024001,Chrome,1440,900,,,,,1,831,,,,,,,,,,,,,,,,,H,125,triangle,1,0,,,,,,,,,,,,,,,,switch,letter,lettSwt,d,Lo,,,,,,0.6357,1,,,,,,,,high,22,0,22,0,1,,,,,,,,,
295765,2022-11-15_11h31.44.005,vts_reward_expectancy_bt,2022.2.4,MacIntel,60.0024001,Chrome,1440,900,,,,,0,831,,,,,,,,,,,,,,,,,F,132,star,1,0,,,,,,,,,,,,,,,,switch,number,numSwt,j,Hi,,,,,,1.8147,1,,,,,,,,high,23,0,23,0,1,,,,,,,,,
295765,2022-11-15_11h31.44.005,vts_reward_expectancy_bt,2022.2.4,MacIntel,60.0024001,Chrome,1440,900,,,,,1,832,,,,,,,,,,,,,,,,,H,132,triangle,1,0,,,,,,,,,,,,,,,,repeat,number,numRpt,j,Lo,,,,,,0.7831,1,,,,,,,,high,24,0,24,0,1,,,,,,,,,
295765,2022-11-15_11h31.44.005,vts_reward_expectancy_bt,2022.2.4,MacIntel,60.0024001,Chrome,1440,900,,,,,10,842,,,,,,,,,,,,,,,,,D,160,circle,1,0,,,,,,,,,,,,,,,,switch,letter,lettSwt,d,Hi,,,,,,0.731,1,,,,,,,,high,25,0,25,0,1,,,,,,,,,
295765,2022-11-15_11h31.44.005,vts_reward_expectancy_bt,2022.2.4,MacIntel,60.0024001,Chrome,1440,900,,,,,0,842,,,,,,,,,,,,,,,,,U,167,star,1,0,,,,,,,,,,,,,,,,switch,number,numSwt,k,Hi,,,,,,1.3972,1,,,,,,,,high,26,0,26,0,1,,,,,,,,,
295765,2022-11-15_11h31.44.005,vts_reward_expectancy_bt,2022.2.4,MacIntel,60.0024001,Chrome,1440,900,,,,,1,843,,,,,,,,,,,,,,,,,Y,146,hexagon,1,0,,,,,,,,,,,,,,,,repeat,number,numRpt,j,Lo,,,,,,0.8699,1,,,,,,,,high,27,0,27,0,1,,,,,,,,,
295765,2022-11-15_11h31.44.005,vts_reward_expectancy_bt,2022.2.4,MacIntel,60.0024001,Chrome,1440,900,,,,,0,843,,,,,,,,,,,,,,,,,B,174,star,1,0,,,,,,,,,,,,,,,,repeat,number,numRpt,k,Hi,,,,,,1.3506,1,,,,,,,,high,28,0,28,0,1,,,,,,,,,
295765,2022-11-15_11h31.44.005,vts_reward_expectancy_bt,2022.2.4,MacIntel,60.0024001,Chrome,1440,900,,,,,1,844,,,,,,,,,,,,,,,,,W,125,triangle,1,0,,,,,,,,,,,,,,,,repeat,number,numRpt,j,Lo,,,,,,0.7142,1,,,,,,,,high,29,0,29,0,1,,,,,,,,,
295765,2022-11-15_11h31.44.005,vts_reward_expectancy_bt,2022.2.4,MacIntel,60.0024001,Chrome,1440,900,,,,,1,845,,,,,,,,,,,,,,,,,S,139,hexagon,1,0,,,,,,,,,,,,,,,,switch,letter,lettSwt,f,Lo,,,,,,0.6137,1,,,,,,,,high,30,0,30,0,1,,,,,,,,,
295765,2022-11-15_11h31.44.005,vts_reward_expectancy_bt,2022.2.4,MacIntel,60.0024001,Chrome,1440,900,,,,,10,855,,,,,,,,,,,,,,,,,F,181,circle,1,0,,,,,,,,,,,,,,,,repeat,letter,lettRpt,d,Hi,,,,,,0.6483,1,,,,,,,,high,31,0,31,0,1,,,,,,,,,
295765,2022-11-15_11h31.44.005,vts_reward_expectancy_bt,2022.2.4,MacIntel,60.0024001,Chrome,1440,900,,,,,0,855,,,,,,,,,,,,,,,,,S,132,star,0,0,,,,,,,,,,,,,,,,repeat,letter,NA,d,Hi,,,,,,0.9694,2,,,,,,space,9.2252,high,0,0,0,0,1,,,,,,,,,
295765,2022-11-15_11h31.44.005,vts_reward_expectancy_bt,2022.2.4,MacIntel,60.0024001,Chrome,1440,900,,,,,1,856,,,,,,,,,,,,,,,,,D,174,triangle,1,1,,,,,,,,,,,,,,,,repeat,letter,lettRpt,d,Lo,,,,,,0.4956,2,,,,,,,,high,1,0,1,0,1,,,,,,,,,
295765,2022-11-15_11h31.44.005,vts_reward_expectancy_bt,2022.2.4,MacIntel,60.0024001,Chrome,1440,900,,,,,1,857,,,,,,,,,,,,,,,,,F,160,hexagon,1,0,,,,,,,,,,,,,,,,repeat,letter,lettRpt,d,Lo,,,,,,0.5981,2,,,,,,,,high,2,0,2,0,1,,,,,,,,,
295765,2022-11-15_11h31.44.005,vts_reward_expectancy_bt,2022.2.4,MacIntel,60.0024001,Chrome,1440,900,,,,,10,867,,,,,,,,,,,,,,,,,H,139,circle,1,0,,,,,,,,,,,,,,,,repeat,letter,lettRpt,d,Hi,,,,,,0.614,2,,,,,,,,high,3,0,3,0,1,,,,,,,,,
295765,2022-11-15_11h31.44.005,vts_reward_expectancy_bt,2022.2.4,MacIntel,60.0024001,Chrome,1440,900,,,,,10,877,,,,,,,,,,,,,,,,,Y,181,star,1,0,,,,,,,,,,,,,,,,switch,number,numSwt,k,Hi,,,,,,0.7641,2,,,,,,,,high,4,0,4,0,1,,,,,,,,,
295765,2022-11-15_11h31.44.005,vts_reward_expectancy_bt,2022.2.4,MacIntel,60.0024001,Chrome,1440,900,,,,,10,887,,,,,,,,,,,,,,,,,B,125,triangle,1,0,,,,,,,,,,,,,,,,switch,letter,lettSwt,d,Lo,,,,,,0.6219,2,,,,,,,,high,5,0,5,0,1,,,,,,,,,
295765,2022-11-15_11h31.44.005,vts_reward_expectancy_bt,2022.2.4,MacIntel,60.0024001,Chrome,1440,900,,,,,1,888,,,,,,,,,,,,,,,,,U,167,hexagon,1,0,,,,,,,,,,,,,,,,switch,number,numSwt,k,Lo,,,,,,0.9523,2,,,,,,,,high,6,0,6,0,1,,,,,,,,,
295765,2022-11-15_11h31.44.005,vts_reward_expectancy_bt,2022.2.4,MacIntel,60.0024001,Chrome,1440,900,,,,,0,888,,,,,,,,,,,,,,,,,W,146,circle,0,0,,,,,,,,,,,,,,,,switch,letter,NA,d,Lo,,,,,,0.9481,2,,,,,,,,high,7,0,7,0,1,,,,,,,,,
295765,2022-11-15_11h31.44.005,vts_reward_expectancy_bt,2022.2.4,MacIntel,60.0024001,Chrome,1440,900,,,,,0,888,,,,,,,,,,,,,,,,,S,132,triangle,0,1,,,,,,,,,,,,,,,,repeat,letter,NA,d,Lo,,,,,,0.8301,2,,,,,,,,high,8,0,8,0,1,,,,,,,,,
295765,2022-11-15_11h31.44.005,vts_reward_expectancy_bt,2022.2.4,MacIntel,60.0024001,Chrome,1440,900,,,,,1,889,,,,,,,,,,,,,,,,,D,174,hexagon,1,1,,,,,,,,,,,,,,,,repeat,letter,lettRpt,d,Lo,,,,,,0.5473,2,,,,,,,,high,9,0,9,0,1,,,,,,,,,
295765,2022-11-15_11h31.44.005,vts_reward_expectancy_bt,2022.2.4,MacIntel,60.0024001,Chrome,1440,900,,,,,1,890,,,,,,,,,,,,,,,,,F,160,circle,1,0,,,,,,,,,,,,,,,,repeat,letter,lettRpt,d,Hi,,,,,,0.697,2,,,,,,,,high,10,0,10,0,1,,,,,,,,,
295765,2022-11-15_11h31.44.005,vts_reward_expectancy_bt,2022.2.4,MacIntel,60.0024001,Chrome,1440,900,,,,,10,900,,,,,,,,,,,,,,,,,H,139,star,1,0,,,,,,,,,,,,,,,,switch,number,numSwt,j,Hi,,,,,,0.9868,2,,,,,,,,high,11,0,11,0,1,,,,,,,,,
295765,2022-11-15_11h31.44.005,vts_reward_expectancy_bt,2022.2.4,MacIntel,60.0024001,Chrome,1440,900,,,,,0,900,,,,,,,,,,,,,,,,,Y,181,circle,1,0,,,,,,,,,,,,,,,,repeat,number,numRpt,k,Hi,,,,,,0.8146,2,,,,,,,,high,12,0,12,0,1,,,,,,,,,
295765,2022-11-15_11h31.44.005,vts_reward_expectancy_bt,2022.2.4,MacIntel,60.0024001,Chrome,1440,900,,,,,10,910,,,,,,,,,,,,,,,,,B,125,star,1,0,,,,,,,,,,,,,,,,repeat,number,numRpt,j,Hi,,,,,,0.6945,2,,,,,,,,high,13,0,13,0,1,,,,,,,,,
295765,2022-11-15_11h31.44.005,vts_reward_expectancy_bt,2022.2.4,MacIntel,60.0024001,Chrome,1440,900,,,,,1,911,,,,,,,,,,,,,,,,,U,167,hexagon,1,0,,,,,,,,,,,,,,,,repeat,number,numRpt,k,Lo,,,,,,0.6812,2,,,,,,,,high,14,0,14,0,1,,,,,,,,,
295765,2022-11-15_11h31.44.005,vts_reward_expectancy_bt,2022.2.4,MacIntel,60.0024001,Chrome,1440,900,,,,,1,912,,,,,,,,,,,,,,,,,W,146,triangle,1,0,,,,,,,,,,,,,,,,repeat,number,numRpt,j,Lo,,,,,,0.7806,2,,,,,,,,high,15,0,15,0,1,,,,,,,,,
295765,2022-11-15_11h31.44.005,vts_reward_expectancy_bt,2022.2.4,MacIntel,60.0024001,Chrome,1440,900,,,,,10,922,,,,,,,,,,,,,,,,,B,125,hexagon,1,0,,,,,,,,,,,,,,,,switch,letter,lettSwt,d,Lo,,,,,,0.5208,2,,,,,,,,high,16,0,16,0,1,,,,,,,,,
295765,2022-11-15_11h31.44.005,vts_reward_expectancy_bt,2022.2.4,MacIntel,60.0024001,Chrome,1440,900,,,,,1,923,,,,,,,,,,,,,,,,,F,174,triangle,1,0,,,,,,,,,,,,,,,,repeat,letter,lettRpt,d,Lo,,,,,,0.7663,2,,,,,,,,high,17,0,17,0,1,,,,,,,,,
295765,2022-11-15_11h31.44.005,vts_reward_expectancy_bt,2022.2.4,MacIntel,60.0024001,Chrome,1440,900,,,,,10,933,,,,,,,,,,,,,,,,,W,132,star,1,0,,,,,,,,,,,,,,,,repeat,letter,lettRpt,f,Hi,,,,,,0.6133,2,,,,,,,,high,18,0,18,0,1,,,,,,,,,
295765,2022-11-15_11h31.44.005,vts_reward_expectancy_bt,2022.2.4,MacIntel,60.0024001,Chrome,1440,900,,,,,10,943,,,,,,,,,,,,,,,,,Y,139,circle,1,0,,,,,,,,,,,,,,,,repeat,letter,lettRpt,f,Hi,,,,,,0.7136,2,,,,,,,,high,19,0,19,0,1,,,,,,,,,
295765,2022-11-15_11h31.44.005,vts_reward_expectancy_bt,2022.2.4,MacIntel,60.0024001,Chrome,1440,900,,,,,0,943,,,,,,,,,,,,,,,,,D,146,circle,1,0,,,,,,,,,,,,,,,,repeat,letter,lettRpt,d,Hi,,,,,,0.8154,2,,,,,,,,high,20,0,20,0,1,,,,,,,,,
295765,2022-11-15_11h31.44.005,vts_reward_expectancy_bt,2022.2.4,MacIntel,60.0024001,Chrome,1440,900,,,,,0,943,,,,,,,,,,,,,,,,,H,160,star,1,0,,,,,,,,,,,,,,,,repeat,letter,lettRpt,d,Hi,,,,,,0.984,2,,,,,,,,high,21,0,21,0,1,,,,,,,,,
295765,2022-11-15_11h31.44.005,vts_reward_expectancy_bt,2022.2.4,MacIntel,60.0024001,Chrome,1440,900,,,,,1,944,,,,,,,,,,,,,,,,,U,167,triangle,1,0,,,,,,,,,,,,,,,,repeat,letter,lettRpt,f,Lo,,,,,,0.6642,2,,,,,,,,high,22,0,22,0,1,,,,,,,,,
295765,2022-11-15_11h31.44.005,vts_reward_expectancy_bt,2022.2.4,MacIntel,60.0024001,Chrome,1440,900,,,,,10,954,,,,,,,,,,,,,,,,,S,181,hexagon,1,0,,,,,,,,,,,,,,,,switch,number,numSwt,k,Lo,,,,,,0.7142,2,,,,,,,,high,23,0,23,0,1,,,,,,,,,
295765,2022-11-15_11h31.44.005,vts_reward_expectancy_bt,2022.2.4,MacIntel,60.0024001,Chrome,1440,900,,,,,1,955,,,,,,,,,,,,,,,,,B,181,hexagon,1,0,,,,,,,,,,,,,,,,repeat,number,numRpt,k,Lo,,,,,,0.6315,2,,,,,,,,high,24,0,24,0,1,,,,,,,,,
295765,2022-11-15_11h31.44.005,vts_reward_expectancy_bt,2022.2.4,MacIntel,60.0024001,Chrome,1440,900,,,,,10,965,,,,,,,,,,,,,,,,,Y,146,circle,1,0,,,,,,,,,,,,,,,,repeat,number,numRpt,j,Hi,,,,,,0.6468,2,,,,,,,,high,25,0,25,0,1,,,,,,,,,
295765,2022-11-15_11h31.44.005,vts_reward_expectancy_bt,2022.2.4,MacIntel,60.0024001,Chrome,1440,900,,,,,10,975,,,,,,,,,,,,,,,,,U,174,star,1,0,,,,,,,,,,,,,,,,switch,letter,lettSwt,f,Hi,,,,,,0.618,2,,,,,,,,high,26,0,26,0,1,,,,,,,,,
295765,2022-11-15_11h31.44.005,vts_reward_expectancy_bt,2022.2.4,MacIntel,60.0024001,Chrome,1440,900,,,,,0,975,,,,,,,,,,,,,,,,,S,125,triangle,0,0,,,,,,,,,,,,,,,,repeat,letter,NA,d,Hi,,,,,,0.8973,2,,,,,,,,high,27,0,27,0,1,,,,,,,,,
295765,2022-11-15_11h31.44.005,vts_reward_expectancy_bt,2022.2.4,MacIntel,60.0024001,Chrome,1440,900,,,,,1,976,,,,,,,,,,,,,,,,,F,139,circle,1,1,,,,,,,,,,,,,,,,repeat,letter,lettRpt,d,Hi,,,,,,0.781,2,,,,,,,,high,28,0,28,0,1,,,,,,,,,
295765,2022-11-15_11h31.44.005,vts_reward_expectancy_bt,2022.2.4,MacIntel,60.0024001,Chrome,1440,900,,,,,1,977,,,,,,,,,,,,,,,,,W,167,triangle,1,0,,,,,,,,,,,,,,,,repeat,letter,lettRpt,f,Lo,,,,,,0.6486,2,,,,,,,,high,29,0,29,0,1,,,,,,,,,
295765,2022-11-15_11h31.44.005,vts_reward_expectancy_bt,2022.2.4,MacIntel,60.0024001,Chrome,1440,900,,,,,10,987,,,,,,,,,,,,,,,,,D,132,star,1,0,,,,,,,,,,,,,,,,repeat,letter,lettRpt,d,Hi,,,,,,0.647,2,,,,,,,,high,30,0,30,0,1,,,,,,,,,
295765,2022-11-15_11h31.44.005,vts_reward_expectancy_bt,2022.2.4,MacIntel,60.0024001,Chrome,1440,900,,,,,1,988,,,,,,,,,,,,,,,,,H,160,hexagon,1,0,,,,,,,,,,,,,,,,switch,number,numSwt,k,Lo,,,,,,0.5657,2,,,,,,,,high,31,0,31,0,1,,,,,,,,,
295765,2022-11-15_11h31.44.005,vts_reward_expectancy_bt,2022.2.4,MacIntel,60.0024001,Chrome,1440,900,,,,,0,988,,,,,,,,,,,,,,,,,B,139,star,1,0,,,,,,,,,,,,,,,,switch,letter,lettSwt,d,Hi,,,,,,0.6841,3,,,,,,space,0.9908,high,0,0,0,0,1,,,,,,,,,
295765,2022-11-15_11h31.44.005,vts_reward_expectancy_bt,2022.2.4,MacIntel,60.0024001,Chrome,1440,900,,,,,1,989,,,,,,,,,,,,,,,,,U,167,triangle,1,0,,,,,,,,,,,,,,,,repeat,letter,lettRpt,f,Lo,,,,,,0.5705,3,,,,,,,,high,1,0,1,0,1,,,,,,,,,
295765,2022-11-15_11h31.44.005,vts_reward_expectancy_bt,2022.2.4,MacIntel,60.0024001,Chrome,1440,900,,,,,10,999,,,,,,,,,,,,,,,,,Y,132,circle,1,0,,,,,,,,,,,,,,,,switch,number,numSwt,j,Hi,,,,,,0.5656,3,,,,,,,,high,2,0,2,0,1,,,,,,,,,
295765,2022-11-15_11h31.44.005,vts_reward_expectancy_bt,2022.2.4,MacIntel,60.0024001,Chrome,1440,900,,,,,1,1000,,,,,,,,,,,,,,,,,F,181,hexagon,1,0,,,,,,,,,,,,,,,,repeat,number,numRpt,k,Lo,,,,,,1.0134,3,,,,,,,,high,3,0,3,0,1,,,,,,,,,
295765,2022-11-15_11h31.44.005,vts_reward_expectancy_bt,2022.2.4,MacIntel,60.0024001,Chrome,1440,900,,,,,0,1000,,,,,,,,,,,,,,,,,S,146,star,1,0,,,,,,,,,,,,,,,,switch,letter,lettSwt,f,Hi,,,,,,0.7847,3,,,,,,,,high,4,0,4,0,1,,,,,,,,,
295765,2022-11-15_11h31.44.005,vts_reward_expectancy_bt,2022.2.4,MacIntel,60.0024001,Chrome,1440,900,,,,,1,1001,,,,,,,,,,,,,,,,,H,160,triangle,1,0,,,,,,,,,,,,,,,,repeat,letter,lettRpt,d,Lo,,,,,,0.6972,3,,,,,,,,high,5,0,5,0,1,,,,,,,,,
295765,2022-11-15_11h31.44.005,vts_reward_expectancy_bt,2022.2.4,MacIntel,60.0024001,Chrome,1440,900,,,,,0,1001,,,,,,,,,,,,,,,,,W,174,circle,1,0,,,,,,,,,,,,,,,,switch,number,numSwt,k,Hi,,,,,,1.0633,3,,,,,,,,high,6,0,6,0,1,,,,,,,,,
295765,2022-11-15_11h31.44.005,vts_reward_expectancy_bt,2022.2.4,MacIntel,60.0024001,Chrome,1440,900,,,,,1,1002,,,,,,,,,,,,,,,,,D,125,hexagon,1,0,,,,,,,,,,,,,,,,repeat,number,numRpt,j,Lo,,,,,,1.1809,3,,,,,,,,high,7,0,7,0,1,,,,,,,,,
295765,2022-11-15_11h31.44.005,vts_reward_expectancy_bt,2022.2.4,MacIntel,60.0024001,Chrome,1440,900,,,,,10,1012,,,,,,,,,,,,,,,,,B,139,hexagon,1,0,,,,,,,,,,,,,,,,switch,letter,lettSwt,d,Lo,,,,,,0.8645,3,,,,,,,,high,8,0,8,0,1,,,,,,,,,
295765,2022-11-15_11h31.44.005,vts_reward_expectancy_bt,2022.2.4,MacIntel,60.0024001,Chrome,1440,900,,,,,1,1013,,,,,,,,,,,,,,,,,U,167,triangle,1,0,,,,,,,,,,,,,,,,switch,number,numSwt,k,Lo,,,,,,0.748,3,,,,,,,,high,9,0,9,0,1,,,,,,,,,
295765,2022-11-15_11h31.44.005,vts_reward_expectancy_bt,2022.2.4,MacIntel,60.0024001,Chrome,1440,900,,,,,0,1013,,,,,,,,,,,,,,,,,Y,132,circle,1,0,,,,,,,,,,,,,,,,switch,letter,lettSwt,f,Hi,,,,,,0.9312,3,,,,,,,,high,10,0,10,0,1,,,,,,,,,
295765,2022-11-15_11h31.44.005,vts_reward_expectancy_bt,2022.2.4,MacIntel,60.0024001,Chrome,1440,900,,,,,10,1023,,,,,,,,,,,,,,,,,F,181,star,1,0,,,,,,,,,,,,,,,,repeat,letter,lettRpt,d,Hi,,,,,,0.6172,3,,,,,,,,high,11,0,11,0,1,,,,,,,,,
295765,2022-11-15_11h31.44.005,vts_reward_expectancy_bt,2022.2.4,MacIntel,60.0024001,Chrome,1440,900,,,,,0,1023,,,,,,,,,,,,,,,,,S,146,star,0,0,,,,,,,,,,,,,,,,switch,number,NA,k,Hi,,,,,,1.002,3,,,,,,,,high,12,0,12,0,1,,,,,,,,,
295765,2022-11-15_11h31.44.005,vts_reward_expectancy_bt,2022.2.4,MacIntel,60.0024001,Chrome,1440,900,,,,,1,1024,,,,,,,,,,,,,,,,,H,160,triangle,1,1,,,,,,,,,,,,,,,,switch,letter,lettSwt,d,Lo,,,,,,0.6643,3,,,,,,,,high,13,0,13,0,1,,,,,,,,,
295765,2022-11-15_11h31.44.005,vts_reward_expectancy_bt,2022.2.4,MacIntel,60.0024001,Chrome,1440,900,,,,,1,1025,,,,,,,,,,,,,,,,,W,174,hexagon,1,0,,,,,,,,,,,,,,,,switch,number,numSwt,k,Lo,,,,,,0.9974,3,,,,,,,,high,14,0,14,0,1,,,,,,,,,
295765,2022-11-15_11h31.44.005,vts_reward_expectancy_bt,2022.2.4,MacIntel,60.0024001,Chrome,1440,900,,,,,0,1025,,,,,,,,,,,,,,,,,D,125,circle,1,0,,,,,,,,,,,,,,,,switch,letter,lettSwt,d,Hi,,,,,,0.8974,3,,,,,,,,high,15,0,15,0,1,,,,,,,,,
295765,2022-11-15_11h31.44.005,vts_reward_expectancy_bt,2022.2.4,MacIntel,60.0024001,Chrome,1440,900,,,,,1,1026,,,,,,,,,,,,,,,,,U,181,triangle,1,0,,,,,,,,,,,,,,,,repeat,letter,lettRpt,f,Lo,,,,,,0.6808,3,,,,,,,,high,16,0,16,0,1,,,,,,,,,
295765,2022-11-15_11h31.44.005,vts_reward_expectancy_bt,2022.2.4,MacIntel,60.0024001,Chrome,1440,900,,,,,10,1036,,,,,,,,,,,,,,,,,F,139,circle,1,0,,,,,,,,,,,,,,,,switch,number,numSwt,j,Hi,,,,,,0.5641,3,,,,,,,,high,17,0,17,0,1,,,,,,,,,
295765,2022-11-15_11h31.44.005,vts_reward_expectancy_bt,2022.2.4,MacIntel,60.0024001,Chrome,1440,900,,,,,0,1036,,,,,,,,,,,,,,,,,H,125,star,0,0,,,,,,,,,,,,,,,,repeat,number,NA,k,Hi,,,,,,0.98,3,,,,,,,,high,18,0,18,0,1,,,,,,,,,
295765,2022-11-15_11h31.44.005,vts_reward_expectancy_bt,2022.2.4,MacIntel,60.0024001,Chrome,1440,900,,,,,10,1046,,,,,,,,,,,,,,,,,S,132,hexagon,1,1,,,,,,,,,,,,,,,,repeat,number,numRpt,j,Lo,,,,,,0.764,3,,,,,,,,high,19,0,19,0,1,,,,,,,,,
295765,2022-11-15_11h31.44.005,vts_reward_expectancy_bt,2022.2.4,MacIntel,60.0024001,Chrome,1440,900,,,,,0,1046,,,,,,,,,,,,,,,,,D,160,circle,0,0,,,,,,,,,,,,,,,,repeat,number,NA,j,Lo,,,,,,1.0146,3,,,,,,,,high,20,0,20,0,1,,,,,,,,,
295765,2022-11-15_11h31.44.005,vts_reward_expectancy_bt,2022.2.4,MacIntel,60.0024001,Chrome,1440,900,,,,,0,1046,,,,,,,,,,,,,,,,,B,174,hexagon,0,1,,,,,,,,,,,,,,,,repeat,number,NA,j,Lo,,,,,,0.9483,3,,,,,,,,high,21,0,21,0,1,,,,,,,,,
295765,2022-11-15_11h31.44.005,vts_reward_expectancy_bt,2022.2.4,MacIntel,60.0024001,Chrome,1440,900,,,,,10,1056,,,,,,,,,,,,,,,,,W,167,triangle,1,1,,,,,,,,,,,,,,,,switch,letter,lettSwt,f,Lo,,,,,,0.9856,3,,,,,,,,high,22,0,22,0,1,,,,,,,,,
295765,2022-11-15_11h31.44.005,vts_reward_expectancy_bt,2022.2.4,MacIntel,60.0024001,Chrome,1440,900,,,,,10,1066,,,,,,,,,,,,,,,,,Y,146,star,1,0,,,,,,,,,,,,,,,,repeat,letter,lettRpt,f,Hi,,,,,,0.581,3,,,,,,,,high,23,0,23,0,1,,,,,,,,,
295765,2022-11-15_11h31.44.005,vts_reward_expectancy_bt,2022.2.4,MacIntel,60.0024001,Chrome,1440,900,,,,,0,1066,,,,,,,,,,,,,,,,,D,125,circle,1,0,,,,,,,,,,,,,,,,repeat,letter,lettRpt,d,Hi,,,,,,0.6807,3,,,,,,,,high,24,0,24,0,1,,,,,,,,,
295765,2022-11-15_11h31.44.005,vts_reward_expectancy_bt,2022.2.4,MacIntel,60.0024001,Chrome,1440,900,,,,,0,1066,,,,,,,,,,,,,,,,,W,132,star,1,0,,,,,,,,,,,,,,,,repeat,letter,lettRpt,f,Hi,,,,,,0.7527,3,,,,,,,,high,25,0,25,0,1,,,,,,,,,
295765,2022-11-15_11h31.44.005,vts_reward_expectancy_bt,2022.2.4,MacIntel,60.0024001,Chrome,1440,900,,,,,1,1067,,,,,,,,,,,,,,,,,U,174,triangle,1,0,,,,,,,,,,,,,,,,repeat,letter,lettRpt,f,Lo,,,,,,0.6297,3,,,,,,,,high,26,0,26,0,1,,,,,,,,,
295765,2022-11-15_11h31.44.005,vts_reward_expectancy_bt,2022.2.4,MacIntel,60.0024001,Chrome,1440,900,,,,,1,1068,,,,,,,,,,,,,,,,,F,167,hexagon,1,0,,,,,,,,,,,,,,,,repeat,letter,lettRpt,d,Lo,,,,,,0.4646,3,,,,,,,,high,27,0,27,0,1,,,,,,,,,
295765,2022-11-15_11h31.44.005,vts_reward_expectancy_bt,2022.2.4,MacIntel,60.0024001,Chrome,1440,900,,,,,1,1069,,,,,,,,,,,,,,,,,S,181,hexagon,1,0,,,,,,,,,,,,,,,,repeat,letter,lettRpt,f,Lo,,,,,,0.7309,3,,,,,,,,high,28,0,28,0,1,,,,,,,,,
295765,2022-11-15_11h31.44.005,vts_reward_expectancy_bt,2022.2.4,MacIntel,60.0024001,Chrome,1440,900,,,,,1,1070,,,,,,,,,,,,,,,,,H,160,triangle,1,0,,,,,,,,,,,,,,,,switch,number,numSwt,k,Lo,,,,,,0.63,3,,,,,,,,high,29,0,29,0,1,,,,,,,,,
295765,2022-11-15_11h31.44.005,vts_reward_expectancy_bt,2022.2.4,MacIntel,60.0024001,Chrome,1440,900,,,,,0,1070,,,,,,,,,,,,,,,,,Y,146,circle,1,0,,,,,,,,,,,,,,,,repeat,number,numRpt,j,Hi,,,,,,0.766,3,,,,,,,,high,30,0,30,0,1,,,,,,,,,
295765,2022-11-15_11h31.44.005,vts_reward_expectancy_bt,2022.2.4,MacIntel,60.0024001,Chrome,1440,900,,,,,10,1080,,,,,,,,,,,,,,,,,B,139,star,1,0,,,,,,,,,,,,,,,,repeat,number,numRpt,j,Hi,,,,,,0.6531,3,,,,,,,,high,31,0,31,0,1,,,,,,,,,
295765,2022-11-15_11h31.44.005,vts_reward_expectancy_bt,2022.2.4,MacIntel,60.0024001,Chrome,1440,900,,,,,0,1080,,,,,,,,,,,,,,,,,F,132,triangle,0,0,,,,,,,,,,,,,,,,switch,letter,NA,f,Hi,,,,,,0.6149,4,,,,,,space,1.5554,high,0,0,0,0,1,,,,,,,,,
295765,2022-11-15_11h31.44.005,vts_reward_expectancy_bt,2022.2.4,MacIntel,60.0024001,Chrome,1440,900,,,,,10,1090,,,,,,,,,,,,,,,,,B,160,star,1,1,,,,,,,,,,,,,,,,repeat,letter,lettRpt,d,Hi,,,,,,0.5841,4,,,,,,,,high,1,0,1,0,1,,,,,,,,,
295765,2022-11-15_11h31.44.005,vts_reward_expectancy_bt,2022.2.4,MacIntel,60.0024001,Chrome,1440,900,,,,,1,1091,,,,,,,,,,,,,,,,,H,167,hexagon,1,0,,,,,,,,,,,,,,,,repeat,letter,lettRpt,d,Lo,,,,,,0.6168,4,,,,,,,,high,2,0,2,0,1,,,,,,,,,
295765,2022-11-15_11h31.44.005,vts_reward_expectancy_bt,2022.2.4,MacIntel,60.0024001,Chrome,1440,900,,,,,10,1101,,,,,,,,,,,,,,,,,U,125,circle,1,0,,,,,,,,,,,,,,,,switch,number,numSwt,j,Hi,,,,,,0.5885,4,,,,,,,,high,3,0,3,0,1,,,,,,,,,
295765,2022-11-15_11h31.44.005,vts_reward_expectancy_bt,2022.2.4,MacIntel,60.0024001,Chrome,1440,900,,,,,1,1102,,,,,,,,,,,,,,,,,S,146,triangle,1,0,,,,,,,,,,,,,,,,repeat,number,numRpt,j,Lo,,,,,,0.569,4,,,,,,,,high,4,0,4,0,1,,,,,,,,,
295765,2022-11-15_11h31.44.005,vts_reward_expectancy_bt,2022.2.4,MacIntel,60.0024001,Chrome,1440,900,,,,,10,1112,,,,,,,,,,,,,,,,,W,174,star,1,0,,,,,,,,,,,,,,,,switch,letter,lettSwt,f,Hi,,,,,,0.6319,4,,,,,,,,high,5,0,5,0,1,,,,,,,,,
295765,2022-11-15_11h31.44.005,vts_reward_expectancy_bt,2022.2.4,MacIntel,60.0024001,Chrome,1440,900,,,,,10,1122,,,,,,,,,,,,,,,,,D,181,hexagon,1,0,,,,,,,,,,,,,,,,repeat,letter,lettRpt,d,Lo,,,,,,0.6336,4,,,,,,,,high,6,0,6,0,1,,,,,,,,,
295765,2022-11-15_11h31.44.005,vts_reward_expectancy_bt,2022.2.4,MacIntel,60.0024001,Chrome,1440,900,,,,,0,1122,,,,,,,,,,,,,,,,,Y,139,circle,1,0,,,,,,,,,,,,,,,,repeat,letter,lettRpt,f,Hi,,,,,,0.7641,4,,,,,,,,high,7,0,7,0,1,,,,,,,,,
295765,2022-11-15_11h31.44.005,vts_reward_expectancy_bt,2022.2.4,MacIntel,60.0024001,Chrome,1440,900,,,,,0,1122,,,,,,,,,,,,,,,,,F,132,star,1,0,,,,,,,,,,,,,,,,repeat,letter,lettRpt,d,Hi,,,,,,0.7139,4,,,,,,,,high,8,0,8,0,1,,,,,,,,,
295765,2022-11-15_11h31.44.005,vts_reward_expectancy_bt,2022.2.4,MacIntel,60.0024001,Chrome,1440,900,,,,,10,1132,,,,,,,,,,,,,,,,,B,160,triangle,1,0,,,,,,,,,,,,,,,,switch,number,numSwt,k,Lo,,,,,,0.6473,4,,,,,,,,high,9,0,9,0,1,,,,,,,,,
295765,2022-11-15_11h31.44.005,vts_reward_expectancy_bt,2022.2.4,MacIntel,60.0024001,Chrome,1440,900,,,,,0,1132,,,,,,,,,,,,,,,,,H,167,circle,1,0,,,,,,,,,,,,,,,,repeat,number,numRpt,k,Hi,,,,,,0.8808,4,,,,,,,,high,10,0,10,0,1,,,,,,,,,
295765,2022-11-15_11h31.44.005,vts_reward_expectancy_bt,2022.2.4,MacIntel,60.0024001,Chrome,1440,900,,,,,1,1133,,,,,,,,,,,,,,,,,U,125,hexagon,1,0,,,,,,,,,,,,,,,,repeat,number,numRpt,j,Lo,,,,,,0.5967,4,,,,,,,,high,11,0,11,0,1,,,,,,,,,
295765,2022-11-15_11h31.44.005,vts_reward_expectancy_bt,2022.2.4,MacIntel,60.0024001,Chrome,1440,900,,,,,1,1134,,,,,,,,,,,,,,,,,S,146,hexagon,1,0,,,,,,,,,,,,,,,,repeat,number,numRpt,j,Lo,,,,,,0.9219,4,,,,,,,,high,12,0,12,0,1,,,,,,,,,
295765,2022-11-15_11h31.44.005,vts_reward_expectancy_bt,2022.2.4,MacIntel,60.0024001,Chrome,1440,900,,,,,0,1134,,,,,,,,,,,,,,,,,W,174,circle,1,0,,,,,,,,,,,,,,,,repeat,number,numRpt,k,Hi,,,,,,0.7808,4,,,,,,,,high,13,0,13,0,1,,,,,,,,,
295765,2022-11-15_11h31.44.005,vts_reward_expectancy_bt,2022.2.4,MacIntel,60.0024001,Chrome,1440,900,,,,,10,1144,,,,,,,,,,,,,,,,,D,181,star,1,0,,,,,,,,,,,,,,,,repeat,number,numRpt,k,Hi,,,,,,0.6629,4,,,,,,,,high,14,0,14,0,1,,,,,,,,,
295765,2022-11-15_11h31.44.005,vts_reward_expectancy_bt,2022.2.4,MacIntel,60.0024001,Chrome,1440,900,,,,,10,1154,,,,,,,,,,,,,,,,,Y,139,triangle,1,0,,,,,,,,,,,,,,,,repeat,number,numRpt,j,Lo,,,,,,0.7469,4,,,,,,,,high,15,0,15,0,1,,,,,,,,,
295765,2022-11-15_11h31.44.005,vts_reward_expectancy_bt,2022.2.4,MacIntel,60.0024001,Chrome,1440,900,,,,,1,1155,,,,,,,,,,,,,,,,,F,125,triangle,1,0,,,,,,,,,,,,,,,,switch,letter,lettSwt,d,Lo,,,,,,0.6535,4,,,,,,,,high,16,0,16,0,1,,,,,,,,,
295765,2022-11-15_11h31.44.005,vts_reward_expectancy_bt,2022.2.4,MacIntel,60.0024001,Chrome,1440,900,,,,,1,1156,,,,,,,,,,,,,,,,,W,146,star,1,0,,,,,,,,,,,,,,,,repeat,letter,lettRpt,f,Hi,,,,,,0.4347,4,,,,,,,,high,17,0,17,0,1,,,,,,,,,
295765,2022-11-15_11h31.44.005,vts_reward_expectancy_bt,2022.2.4,MacIntel,60.0024001,Chrome,1440,900,,,,,1,1157,,,,,,,,,,,,,,,,,U,167,hexagon,1,0,,,,,,,,,,,,,,,,repeat,letter,lettRpt,f,Lo,,,,,,0.7046,4,,,,,,,,high,18,0,18,0,1,,,,,,,,,
295765,2022-11-15_11h31.44.005,vts_reward_expectancy_bt,2022.2.4,MacIntel,60.0024001,Chrome,1440,900,,,,,0,1157,,,,,,,,,,,,,,,,,S,160,circle,1,0,,,,,,,,,,,,,,,,switch,number,numSwt,k,Hi,,,,,,0.735,4,,,,,,,,high,19,0,19,0,1,,,,,,,,,
295765,2022-11-15_11h31.44.005,vts_reward_expectancy_bt,2022.2.4,MacIntel,60.0024001,Chrome,1440,900,,,,,0,1157,,,,,,,,,,,,,,,,,Y,132,circle,0,0,,,,,,,,,,,,,,,,repeat,number,NA,k,Hi,,,,,,0.8475,4,,,,,,,,high,20,0,20,0,1,,,,,,,,,
295765,2022-11-15_11h31.44.005,vts_reward_expectancy_bt,2022.2.4,MacIntel,60.0024001,Chrome,1440,900,,,,,1,1158,,,,,,,,,,,,,,,,,B,181,hexagon,1,1,,,,,,,,,,,,,,,,repeat,number,numRpt,k,Lo,,,,,,0.6979,4,,,,,,,,high,21,0,21,0,1,,,,,,,,,
295765,2022-11-15_11h31.44.005,vts_reward_expectancy_bt,2022.2.4,MacIntel,60.0024001,Chrome,1440,900,,,,,10,1168,,,,,,,,,,,,,,,,,H,174,star,1,0,,,,,,,,,,,,,,,,repeat,number,numRpt,k,Hi,,,,,,0.7309,4,,,,,,,,high,22,0,22,0,1,,,,,,,,,
295765,2022-11-15_11h31.44.005,vts_reward_expectancy_bt,2022.2.4,MacIntel,60.0024001,Chrome,1440,900,,,,,1,1169,,,,,,,,,,,,,,,,,D,139,triangle,1,0,,,,,,,,,,,,,,,,repeat,number,numRpt,j,Lo,,,,,,0.6525,4,,,,,,,,high,23,0,23,0,1,,,,,,,,,
295765,2022-11-15_11h31.44.005,vts_reward_expectancy_bt,2022.2.4,MacIntel,60.0024001,Chrome,1440,900,,,,,10,1179,,,,,,,,,,,,,,,,,D,125,star,1,0,,,,,,,,,,,,,,,,repeat,number,numRpt,j,Hi,,,,,,0.7151,4,,,,,,,,high,24,0,24,0,1,,,,,,,,,
295765,2022-11-15_11h31.44.005,vts_reward_expectancy_bt,2022.2.4,MacIntel,60.0024001,Chrome,1440,900,,,,,10,1189,,,,,,,,,,,,,,,,,F,174,triangle,1,0,,,,,,,,,,,,,,,,switch,letter,lettSwt,d,Lo,,,,,,0.5046,4,,,,,,,,high,25,0,25,0,1,,,,,,,,,
295765,2022-11-15_11h31.44.005,vts_reward_expectancy_bt,2022.2.4,MacIntel,60.0024001,Chrome,1440,900,,,,,0,1189,,,,,,,,,,,,,,,,,U,132,hexagon,0,0,,,,,,,,,,,,,,,,repeat,letter,NA,d,Lo,,,,,,0.615,4,,,,,,,,high,26,0,26,0,1,,,,,,,,,
295765,2022-11-15_11h31.44.005,vts_reward_expectancy_bt,2022.2.4,MacIntel,60.0024001,Chrome,1440,900,,,,,0,1189,,,,,,,,,,,,,,,,,H,167,circle,1,1,,,,,,,,,,,,,,,,repeat,letter,lettRpt,d,Hi,,,,,,0.6978,4,,,,,,,,high,27,0,27,0,1,,,,,,,,,
295765,2022-11-15_11h31.44.005,vts_reward_expectancy_bt,2022.2.4,MacIntel,60.0024001,Chrome,1440,900,,,,,1,1190,,,,,,,,,,,,,,,,,B,160,hexagon,1,0,,,,,,,,,,,,,,,,repeat,letter,lettRpt,d,Lo,,,,,,0.6805,4,,,,,,,,high,28,0,28,0,1,,,,,,,,,
295765,2022-11-15_11h31.44.005,vts_reward_expectancy_bt,2022.2.4,MacIntel,60.0024001,Chrome,1440,900,,,,,1,1191,,,,,,,,,,,,,,,,,Y,181,triangle,1,0,,,,,,,,,,,,,,,,repeat,letter,lettRpt,f,Lo,,,,,,0.5795,4,,,,,,,,high,29,0,29,0,1,,,,,,,,,
295765,2022-11-15_11h31.44.005,vts_reward_expectancy_bt,2022.2.4,MacIntel,60.0024001,Chrome,1440,900,,,,,0,1191,,,,,,,,,,,,,,,,,S,146,star,1,0,,,,,,,,,,,,,,,,switch,number,numSwt,j,Hi,,,,,,0.7995,4,,,,,,,,high,30,0,30,0,1,,,,,,,,,
295765,2022-11-15_11h31.44.005,vts_reward_expectancy_bt,2022.2.4,MacIntel,60.0024001,Chrome,1440,900,,,,,10,1201,,,,,,,,,,,,,,,,,W,139,circle,1,0,,,,,,,,,,,,,,,,repeat,number,numRpt,j,Hi,,,,,,0.6149,4,,,,,,,,high,31,0,31,0,1,,,,,,,,,
295765,2022-11-15_11h31.44.005,vts_reward_expectancy_bt,2022.2.4,MacIntel,60.0024001,Chrome,1440,900,,,,,10,1211,,,,,,,,,,,,,,,,,F,132,hexagon,1,0,,,,,,,,,,,,,,,,repeat,number,numRpt,j,Lo,,,,,,0.7513,5,,,,,,space,0.5287,high,0,0,0,0,1,,,,,,,,,
295765,2022-11-15_11h31.44.005,vts_reward_expectancy_bt,2022.2.4,MacIntel,60.0024001,Chrome,1440,900,,,,,1,1212,,,,,,,,,,,,,,,,,Y,181,triangle,1,0,,,,,,,,,,,,,,,,repeat,number,numRpt,k,Lo,,,,,,0.7888,5,,,,,,,,high,1,0,1,0,1,,,,,,,,,
295765,2022-11-15_11h31.44.005,vts_reward_expectancy_bt,2022.2.4,MacIntel,60.0024001,Chrome,1440,900,,,,,10,1222,,,,,,,,,,,,,,,,,D,146,star,1,0,,,,,,,,,,,,,,,,repeat,number,numRpt,j,Hi,,,,,,0.5973,5,,,,,,,,high,2,0,2,0,1,,,,,,,,,
295765,2022-11-15_11h31.44.005,vts_reward_expectancy_bt,2022.2.4,MacIntel,60.0024001,Chrome,1440,900,,,,,10,1232,,,,,,,,,,,,,,,,,W,125,circle,1,0,,,,,,,,,,,,,,,,repeat,number,numRpt,j,Hi,,,,,,0.6136,5,,,,,,,,high,3,0,3,0,1,,,,,,,,,
295765,2022-11-15_11h31.44.005,vts_reward_expectancy_bt,2022.2.4,MacIntel,60.0024001,Chrome,1440,900,,,,,0,1232,,,,,,,,,,,,,,,,,S,160,hexagon,0,0,,,,,,,,,,,,,,,,repeat,number,NA,j,Hi,,,,,,0.5149,5,,,,,,,,high,4,0,4,0,1,,,,,,,,,
295765,2022-11-15_11h31.44.005,vts_reward_expectancy_bt,2022.2.4,MacIntel,60.0024001,Chrome,1440,900,,,,,1,1233,,,,,,,,,,,,,,,,,B,139,triangle,1,1,,,,,,,,,,,,,,,,switch,letter,lettSwt,d,Lo,,,,,,0.8308,5,,,,,,,,high,5,0,5,0,1,,,,,,,,,
295765,2022-11-15_11h31.44.005,vts_reward_expectancy_bt,2022.2.4,MacIntel,60.0024001,Chrome,1440,900,,,,,0,1233,,,,,,,,,,,,,,,,,H,167,star,1,0,,,,,,,,,,,,,,,,repeat,letter,lettRpt,d,Hi,,,,,,0.6475,5,,,,,,,,high,6,0,6,0,1,,,,,,,,,
295765,2022-11-15_11h31.44.005,vts_reward_expectancy_bt,2022.2.4,MacIntel,60.0024001,Chrome,1440,900,,,,,0,1233,,,,,,,,,,,,,,,,,U,174,circle,1,0,,,,,,,,,,,,,,,,repeat,letter,lettRpt,f,Hi,,,,,,0.7169,5,,,,,,,,high,7,0,7,0,1,,,,,,,,,
295765,2022-11-15_11h31.44.005,vts_reward_expectancy_bt,2022.2.4,MacIntel,60.0024001,Chrome,1440,900,,,,,1,1234,,,,,,,,,,,,,,,,,F,132,hexagon,1,0,,,,,,,,,,,,,,,,repeat,letter,lettRpt,d,Lo,,,,,,0.6315,5,,,,,,,,high,8,0,8,0,1,,,,,,,,,
295765,2022-11-15_11h31.44.005,vts_reward_expectancy_bt,2022.2.4,MacIntel,60.0024001,Chrome,1440,900,,,,,1,1235,,,,,,,,,,,,,,,,,Y,181,triangle,1,0,,,,,,,,,,,,,,,,repeat,letter,lettRpt,f,Lo,,,,,,0.5637,5,,,,,,,,high,9,0,9,0,1,,,,,,,,,
295765,2022-11-15_11h31.44.005,vts_reward_expectancy_bt,2022.2.4,MacIntel,60.0024001,Chrome,1440,900,,,,,0,1235,,,,,,,,,,,,,,,,,D,146,star,1,0,,,,,,,,,,,,,,,,switch,number,numSwt,j,Hi,,,,,,0.7986,5,,,,,,,,high,10,0,10,0,1,,,,,,,,,
295765,2022-11-15_11h31.44.005,vts_reward_expectancy_bt,2022.2.4,MacIntel,60.0024001,Chrome,1440,900,,,,,0,1235,,,,,,,,,,,,,,,,,W,125,circle,1,0,,,,,,,,,,,,,,,,repeat,number,numRpt,j,Hi,,,,,,0.7157,5,,,,,,,,high,11,0,11,0,1,,,,,,,,,
295765,2022-11-15_11h31.44.005,vts_reward_expectancy_bt,2022.2.4,MacIntel,60.0024001,Chrome,1440,900,,,,,1,1236,,,,,,,,,,,,,,,,,S,160,hexagon,1,0,,,,,,,,,,,,,,,,repeat,number,numRpt,k,Lo,,,,,,0.5813,5,,,,,,,,high,12,0,12,0,1,,,,,,,,,
295765,2022-11-15_11h31.44.005,vts_reward_expectancy_bt,2022.2.4,MacIntel,60.0024001,Chrome,1440,900,,,,,10,1246,,,,,,,,,,,,,,,,,B,139,triangle,1,0,,,,,,,,,,,,,,,,repeat,number,numRpt,j,Lo,,,,,,0.6314,5,,,,,,,,high,13,0,13,0,1,,,,,,,,,
295765,2022-11-15_11h31.44.005,vts_reward_expectancy_bt,2022.2.4,MacIntel,60.0024001,Chrome,1440,900,,,,,0,1246,,,,,,,,,,,,,,,,,H,167,star,0,0,,,,,,,,,,,,,,,,repeat,number,NA,j,Lo,,,,,,0.7392,5,,,,,,,,high,14,0,14,0,1,,,,,,,,,
295765,2022-11-15_11h31.44.005,vts_reward_expectancy_bt,2022.2.4,MacIntel,60.0024001,Chrome,1440,900,,,,,0,1246,,,,,,,,,,,,,,,,,U,174,circle,1,1,,,,,,,,,,,,,,,,repeat,number,numRpt,k,Hi,,,,,,0.714,5,,,,,,,,high,15,0,15,0,1,,,,,,,,,
295765,2022-11-15_11h31.44.005,vts_reward_expectancy_bt,2022.2.4,MacIntel,60.0024001,Chrome,1440,900,,,,,0,1246,,,,,,,,,,,,,,,,,W,167,triangle,-1,0,,,,,,,,,,,,,,,,switch,no_choice,NA,,Hi,,,,,,,5,,,,,,,,high,16,0,16,0,1,,,,,,,,,
295765,2022-11-15_11h31.44.005,vts_reward_expectancy_bt,2022.2.4,MacIntel,60.0024001,Chrome,1440,900,,,,,1,1247,,,,,,,,,,,,,,,,,S,160,hexagon,1,0,,,,,,,,,,,,,,,,switch,letter,lettSwt,f,Lo,,,,,,0.6455,5,,,,,,,,high,17,0,17,0,1,,,,,,,,,
295765,2022-11-15_11h31.44.005,vts_reward_expectancy_bt,2022.2.4,MacIntel,60.0024001,Chrome,1440,900,,,,,0,1247,,,,,,,,,,,,,,,,,U,125,circle,1,0,,,,,,,,,,,,,,,,repeat,letter,lettRpt,f,Hi,,,,,,0.7156,5,,,,,,,,high,18,0,18,0,1,,,,,,,,,
295765,2022-11-15_11h31.44.005,vts_reward_expectancy_bt,2022.2.4,MacIntel,60.0024001,Chrome,1440,900,,,,,0,1247,,,,,,,,,,,,,,,,,H,146,star,1,0,,,,,,,,,,,,,,,,repeat,letter,lettRpt,d,Hi,,,,,,0.6464,5,,,,,,,,high,19,0,19,0,1,,,,,,,,,
295765,2022-11-15_11h31.44.005,vts_reward_expectancy_bt,2022.2.4,MacIntel,60.0024001,Chrome,1440,900,,,,,1,1248,,,,,,,,,,,,,,,,,Y,132,star,1,0,,,,,,,,,,,,,,,,repeat,letter,lettRpt,f,Hi,,,,,,0.5977,5,,,,,,,,high,20,0,20,0,1,,,,,,,,,
295765,2022-11-15_11h31.44.005,vts_reward_expectancy_bt,2022.2.4,MacIntel,60.0024001,Chrome,1440,900,,,,,10,1258,,,,,,,,,,,,,,,,,D,174,hexagon,1,0,,,,,,,,,,,,,,,,repeat,letter,lettRpt,d,Lo,,,,,,0.4976,5,,,,,,,,high,21,0,21,0,1,,,,,,,,,
295765,2022-11-15_11h31.44.005,vts_reward_expectancy_bt,2022.2.4,MacIntel,60.0024001,Chrome,1440,900,,,,,0,1258,,,,,,,,,,,,,,,,,F,181,circle,1,0,,,,,,,,,,,,,,,,repeat,letter,lettRpt,d,Hi,,,,,,0.7644,5,,,,,,,,high,22,0,22,0,1,,,,,,,,,
295765,2022-11-15_11h31.44.005,vts_reward_expectancy_bt,2022.2.4,MacIntel,60.0024001,Chrome,1440,900,,,,,1,1259,,,,,,,,,,,,,,,,,B,139,triangle,1,0,,,,,,,,,,,,,,,,switch,number,numSwt,j,Lo,,,,,,0.5981,5,,,,,,,,high,23,0,23,0,1,,,,,,,,,
295765,2022-11-15_11h31.44.005,vts_reward_expectancy_bt,2022.2.4,MacIntel,60.0024001,Chrome,1440,900,,,,,1,1260,,,,,,,,,,,,,,,,,B,146,circle,1,0,,,,,,,,,,,,,,,,repeat,number,numRpt,j,Hi,,,,,,0.5661,5,,,,,,,,high,24,0,24,0,1,,,,,,,,,
295765,2022-11-15_11h31.44.005,vts_reward_expectancy_bt,2022.2.4,MacIntel,60.0024001,Chrome,1440,900,,,,,0,1260,,,,,,,,,,,,,,,,,W,139,star,1,0,,,,,,,,,,,,,,,,repeat,number,numRpt,j,Hi,,,,,,0.6864,5,,,,,,,,high,25,0,25,0,1,,,,,,,,,
295765,2022-11-15_11h31.44.005,vts_reward_expectancy_bt,2022.2.4,MacIntel,60.0024001,Chrome,1440,900,,,,,0,1260,,,,,,,,,,,,,,,,,D,167,hexagon,0,0,,,,,,,,,,,,,,,,repeat,number,NA,j,Hi,,,,,,0.6488,5,,,,,,,,high,26,0,26,0,1,,,,,,,,,
295765,2022-11-15_11h31.44.005,vts_reward_expectancy_bt,2022.2.4,MacIntel,60.0024001,Chrome,1440,900,,,,,1,1261,,,,,,,,,,,,,,,,,U,132,triangle,1,1,,,,,,,,,,,,,,,,switch,letter,lettSwt,f,Lo,,,,,,0.6309,5,,,,,,,,high,27,0,27,0,1,,,,,,,,,
295765,2022-11-15_11h31.44.005,vts_reward_expectancy_bt,2022.2.4,MacIntel,60.0024001,Chrome,1440,900,,,,,0,1261,,,,,,,,,,,,,,,,,Y,160,star,1,0,,,,,,,,,,,,,,,,repeat,letter,lettRpt,f,Hi,,,,,,0.9338,5,,,,,,,,high,28,0,28,0,1,,,,,,,,,
295765,2022-11-15_11h31.44.005,vts_reward_expectancy_bt,2022.2.4,MacIntel,60.0024001,Chrome,1440,900,,,,,0,1261,,,,,,,,,,,,,,,,,H,125,circle,1,0,,,,,,,,,,,,,,,,repeat,letter,lettRpt,d,Hi,,,,,,0.6307,5,,,,,,,,high,29,0,29,0,1,,,,,,,,,
295765,2022-11-15_11h31.44.005,vts_reward_expectancy_bt,2022.2.4,MacIntel,60.0024001,Chrome,1440,900,,,,,1,1262,,,,,,,,,,,,,,,,,S,174,hexagon,1,0,,,,,,,,,,,,,,,,repeat,letter,lettRpt,f,Lo,,,,,,0.5809,5,,,,,,,,high,30,0,30,0,1,,,,,,,,,
295765,2022-11-15_11h31.44.005,vts_reward_expectancy_bt,2022.2.4,MacIntel,60.0024001,Chrome,1440,900,,,,,10,1272,,,,,,,,,,,,,,,,,F,181,triangle,1,0,,,,,,,,,,,,,,,,repeat,letter,lettRpt,d,Lo,,,,,,0.6462,5,,,,,,,,high,31,0,31,0,1,,,,,,,,,
295765,2022-11-15_11h31.44.005,vts_reward_expectancy_bt,2022.2.4,MacIntel,60.0024001,Chrome,1440,900,,,,,0,1272,,,,,,,,,,,,,,,,,F,132,triangle,0,0,,,,,,,,,,,,,,,,switch,number,NA,k,Lo,,,,,,0.9546,6,,,,,,space,1.028,high,0,0,0,0,1,,,,,,,,,
295765,2022-11-15_11h31.44.005,vts_reward_expectancy_bt,2022.2.4,MacIntel,60.0024001,Chrome,1440,900,,,,,0,1272,,,,,,,,,,,,,,,,,B,174,circle,1,1,,,,,,,,,,,,,,,,repeat,number,numRpt,k,Hi,,,,,,1.7097,6,,,,,,,,high,1,0,1,0,1,,,,,,,,,
295765,2022-11-15_11h31.44.005,vts_reward_expectancy_bt,2022.2.4,MacIntel,60.0024001,Chrome,1440,900,,,,,0,1272,,,,,,,,,,,,,,,,,W,160,star,1,0,,,,,,,,,,,,,,,,repeat,number,numRpt,k,Hi,,,,,,0.781,6,,,,,,,,high,2,0,2,0,1,,,,,,,,,
295765,2022-11-15_11h31.44.005,vts_reward_expectancy_bt,2022.2.4,MacIntel,60.0024001,Chrome,1440,900,,,,,1,1273,,,,,,,,,,,,,,,,,U,181,hexagon,1,0,,,,,,,,,,,,,,,,repeat,number,numRpt,k,Lo,,,,,,1.0468,6,,,,,,,,high,3,0,3,0,1,,,,,,,,,
