participant,date,expName,psychopyVersion,OS,frameRate,browser,xResolution,yResolution,key_resp.keys,key_resp.rt,training_resp.keys,training_resp.rt,points_trial,points_cumul,trainBlock,training.thisRepN,training.thisTrialN,training.thisN,training.thisIndex,training.ran,LTriangleOpac,LCircleOpac,LHexagonOpac,LStarOpac,RTriangleOpac,RCircleOpac,RHexagonOpac,RStarOpac,LShape_ID,RShape_ID,curr_topStim,curr_bottStim,curr_shape,acc,E1,target_resp_prac1.keys,target_resp_prac1.rt,pracBlock,task1_prac_trials.thisRepN,task1_prac_trials.thisTrialN,task1_prac_trials.thisN,task1_prac_trials.thisIndex,task1_prac_trials.ran,target_resp_prac2.keys,task2_praac_trials.thisRepN,task2_praac_trials.thisTrialN,task2_praac_trials.thisN,task2_praac_trials.thisIndex,task2_praac_trials.ran,target_resp_prac2.rt,alt,task,condition,target_resp.keys,rewCond,vts_practice_trials.thisRepN,vts_practice_trials.thisTrialN,vts_practice_trials.thisN,vts_practice_trials.thisIndex,vts_practice_trials.ran,target_resp.rt,blockNum,trials_norew.thisRepN,trials_norew.thisTrialN,trials_norew.thisN,trials_norew.thisIndex,trials_norew.ran,key_resp_2.keys,key_resp_2.rt,rewExpectancy,trials_rew.thisRepN,trials_rew.thisTrialN,trials_rew.thisN,trials_rew.thisIndex,trials_rew.ran,Q1,Q2,Q2_text,Q3,Q4,Q5_text,Q5,xRes,yRes
295822,2022-11-29_23h05.32.415,vts_reward_expectancy_bt,2022.2.4,MacIntel,59.99880002,Chrome,1440,900,,,,,,,,,,,,,,,,,,,,,,,,,,,,,,,,,,,,,,,,,,,,,,,,,,,,,,,,,,,,,,,,,,,,,,,,,,,,
295822,2022-11-29_23h05.32.415,vts_reward_expectancy_bt,2022.2.4,MacIntel,59.99880002,Chrome,1440,900,space,2.0011,,,,,,,,,,,,,,,,,,,,,,,,,,,,,,,,,,,,,,,,,,,,,,,,,,,,,,,,,,,,,,,,,,,,,,,,,,
295822,2022-11-29_23h05.32.415,vts_reward_expectancy_bt,2022.2.4,MacIntel,59.99880002,Chrome,1440,900,,,,,,,,,,,,,,,,,,,,,,,,,,,,,,,,,,,,,,,,,,,,,,,,,,,,,,,,,,,,,,,,,,,,,,,,,,,,
295822,2022-11-29_23h05.32.415,vts_reward_expectancy_bt,2022.2.4,MacIntel,59.99880002,Chrome,1440,900,,,l,2.5256,10,10,0,0,0,0,9,1,0,0,0,1,1,0,0,0,star,triangle,,,,,,,,,,,,,,,,,,,,,,,,,,,,,,,,,,,,,,,,,,,,,,,,,,,,,,
295822,2022-11-29_23h05.32.415,vts_reward_expectancy_bt,2022.2.4,MacIntel,59.99880002,Chrome,1440,900,,,a,1.3995,1,11,0,0,1,1,4,1,0,1,0,0,0,0,1,0,circle,hexagon,,,,,,,,,,,,,,,,,,,,,,,,,,,,,,,,,,,,,,,,,,,,,,,,,,,,,,
295822,2022-11-29_23h05.32.415,vts_reward_expectancy_bt,2022.2.4,MacIntel,59.99880002,Chrome,1440,900,,,l,5.636,1,12,0,0,2,2,8,1,0,0,1,0,0,0,0,1,hexagon,star,,,,,,,,,,,,,,,,,,,,,,,,,,,,,,,,,,,,,,,,,,,,,,,,,,,,,,
295822,2022-11-29_23h05.32.415,vts_reward_expectancy_bt,2022.2.4,MacIntel,59.99880002,Chrome,1440,900,,,l,0.6407,1,13,0,0,3,3,11,1,0,0,0,1,0,0,1,0,star,hexagon,,,,,,,,,,,,,,,,,,,,,,,,,,,,,,,,,,,,,,,,,,,,,,,,,,,,,,
295822,2022-11-29_23h05.32.415,vts_reward_expectancy_bt,2022.2.4,MacIntel,59.99880002,Chrome,1440,900,,,l,0.5519,1,14,0,0,4,4,7,1,0,0,1,0,0,1,0,0,hexagon,circle,,,,,,,,,,,,,,,,,,,,,,,,,,,,,,,,,,,,,,,,,,,,,,,,,,,,,,
295822,2022-11-29_23h05.32.415,vts_reward_expectancy_bt,2022.2.4,MacIntel,59.99880002,Chrome,1440,900,,,l,0.4411,1,15,0,0,5,5,10,1,0,0,0,1,0,1,0,0,star ,circle,,,,,,,,,,,,,,,,,,,,,,,,,,,,,,,,,,,,,,,,,,,,,,,,,,,,,,
295822,2022-11-29_23h05.32.415,vts_reward_expectancy_bt,2022.2.4,MacIntel,59.99880002,Chrome,1440,900,,,l,0.3031,1,16,0,0,6,6,0,1,1,0,0,0,0,1,0,0,triangle,circle,,,,,,,,,,,,,,,,,,,,,,,,,,,,,,,,,,,,,,,,,,,,,,,,,,,,,,
295822,2022-11-29_23h05.32.415,vts_reward_expectancy_bt,2022.2.4,MacIntel,59.99880002,Chrome,1440,900,,,l,0.7338,1,17,0,0,7,7,5,1,0,1,0,0,0,0,0,1,circle,star,,,,,,,,,,,,,,,,,,,,,,,,,,,,,,,,,,,,,,,,,,,,,,,,,,,,,,
295822,2022-11-29_23h05.32.415,vts_reward_expectancy_bt,2022.2.4,MacIntel,59.99880002,Chrome,1440,900,,,a,9.901,10,27,0,0,8,8,2,1,1,0,0,0,0,0,0,1,triangle,star,,,,,,,,,,,,,,,,,,,,,,,,,,,,,,,,,,,,,,,,,,,,,,,,,,,,,,
295822,2022-11-29_23h05.32.415,vts_reward_expectancy_bt,2022.2.4,MacIntel,59.99880002,Chrome,1440,900,,,a,0.5989,10,37,0,0,9,9,3,1,0,1,0,0,1,0,0,0,circle,triangle,,,,,,,,,,,,,,,,,,,,,,,,,,,,,,,,,,,,,,,,,,,,,,,,,,,,,,
295822,2022-11-29_23h05.32.415,vts_reward_expectancy_bt,2022.2.4,MacIntel,59.99880002,Chrome,1440,900,,,a,0.816,10,47,0,0,10,10,6,1,0,0,1,0,1,0,0,0,hexagon,triangle,,,,,,,,,,,,,,,,,,,,,,,,,,,,,,,,,,,,,,,,,,,,,,,,,,,,,,
295822,2022-11-29_23h05.32.415,vts_reward_expectancy_bt,2022.2.4,MacIntel,59.99880002,Chrome,1440,900,,,a,0.836,10,57,0,0,11,11,1,1,1,0,0,0,0,0,1,0,triangle,hexagon,,,,,,,,,,,,,,,,,,,,,,,,,,,,,,,,,,,,,,,,,,,,,,,,,,,,,,
295822,2022-11-29_23h05.32.415,vts_reward_expectancy_bt,2022.2.4,MacIntel,59.99880002,Chrome,1440,900,,,a,0.8991,10,67,0,1,0,12,2,1,1,0,0,0,0,0,0,1,triangle,star,,,,,,,,,,,,,,,,,,,,,,,,,,,,,,,,,,,,,,,,,,,,,,,,,,,,,,
295822,2022-11-29_23h05.32.415,vts_reward_expectancy_bt,2022.2.4,MacIntel,59.99880002,Chrome,1440,900,,,a,3.885,10,77,0,1,1,13,10,1,0,0,0,1,0,1,0,0,star ,circle,,,,,,,,,,,,,,,,,,,,,,,,,,,,,,,,,,,,,,,,,,,,,,,,,,,,,,
295822,2022-11-29_23h05.32.415,vts_reward_expectancy_bt,2022.2.4,MacIntel,59.99880002,Chrome,1440,900,,,a,1.2721,1,78,0,1,2,14,5,1,0,1,0,0,0,0,0,1,circle,star,,,,,,,,,,,,,,,,,,,,,,,,,,,,,,,,,,,,,,,,,,,,,,,,,,,,,,
295822,2022-11-29_23h05.32.415,vts_reward_expectancy_bt,2022.2.4,MacIntel,59.99880002,Chrome,1440,900,,,a,0.855,1,79,0,1,3,15,9,1,0,0,0,1,1,0,0,0,star,triangle,,,,,,,,,,,,,,,,,,,,,,,,,,,,,,,,,,,,,,,,,,,,,,,,,,,,,,
295822,2022-11-29_23h05.32.415,vts_reward_expectancy_bt,2022.2.4,MacIntel,59.99880002,Chrome,1440,900,,,l,2.1686,10,89,0,1,4,16,7,1,0,0,1,0,0,1,0,0,hexagon,circle,,,,,,,,,,,,,,,,,,,,,,,,,,,,,,,,,,,,,,,,,,,,,,,,,,,,,,
295822,2022-11-29_23h05.32.415,vts_reward_expectancy_bt,2022.2.4,MacIntel,59.99880002,Chrome,1440,900,,,a,0.8438,10,99,0,1,5,17,6,1,0,0,1,0,1,0,0,0,hexagon,triangle,,,,,,,,,,,,,,,,,,,,,,,,,,,,,,,,,,,,,,,,,,,,,,,,,,,,,,
295822,2022-11-29_23h05.32.415,vts_reward_expectancy_bt,2022.2.4,MacIntel,59.99880002,Chrome,1440,900,,,a,4.0724,1,100,0,1,6,18,4,1,0,1,0,0,0,0,1,0,circle,hexagon,,,,,,,,,,,,,,,,,,,,,,,,,,,,,,,,,,,,,,,,,,,,,,,,,,,,,,
295822,2022-11-29_23h05.32.415,vts_reward_expectancy_bt,2022.2.4,MacIntel,59.99880002,Chrome,1440,900,,,a,0.6584,1,101,0,1,7,19,3,1,0,1,0,0,1,0,0,0,circle,triangle,,,,,,,,,,,,,,,,,,,,,,,,,,,,,,,,,,,,,,,,,,,,,,,,,,,,,,
295822,2022-11-29_23h05.32.415,vts_reward_expectancy_bt,2022.2.4,MacIntel,59.99880002,Chrome,1440,900,,,l,0.8971,1,102,0,1,8,20,8,1,0,0,1,0,0,0,0,1,hexagon,star,,,,,,,,,,,,,,,,,,,,,,,,,,,,,,,,,,,,,,,,,,,,,,,,,,,,,,
295822,2022-11-29_23h05.32.415,vts_reward_expectancy_bt,2022.2.4,MacIntel,59.99880002,Chrome,1440,900,,,a,0.3996,10,112,0,1,9,21,0,1,1,0,0,0,0,1,0,0,triangle,circle,,,,,,,,,,,,,,,,,,,,,,,,,,,,,,,,,,,,,,,,,,,,,,,,,,,,,,
295822,2022-11-29_23h05.32.415,vts_reward_expectancy_bt,2022.2.4,MacIntel,59.99880002,Chrome,1440,900,,,a,0.784,1,113,0,1,10,22,11,1,0,0,0,1,0,0,1,0,star,hexagon,,,,,,,,,,,,,,,,,,,,,,,,,,,,,,,,,,,,,,,,,,,,,,,,,,,,,,
295822,2022-11-29_23h05.32.415,vts_reward_expectancy_bt,2022.2.4,MacIntel,59.99880002,Chrome,1440,900,,,a,0.5703,1,114,0,1,11,23,1,1,1,0,0,0,0,0,1,0,triangle,hexagon,,,,,,,,,,,,,,,,,,,,,,,,,,,,,,,,,,,,,,,,,,,,,,,,,,,,,,
295822,2022-11-29_23h05.32.415,vts_reward_expectancy_bt,2022.2.4,MacIntel,59.99880002,Chrome,1440,900,,,l,0.6338,1,115,0,2,0,24,0,1,1,0,0,0,0,1,0,0,triangle,circle,,,,,,,,,,,,,,,,,,,,,,,,,,,,,,,,,,,,,,,,,,,,,,,,,,,,,,
295822,2022-11-29_23h05.32.415,vts_reward_expectancy_bt,2022.2.4,MacIntel,59.99880002,Chrome,1440,900,,,l,0.6029,10,125,0,2,1,25,9,1,0,0,0,1,1,0,0,0,star,triangle,,,,,,,,,,,,,,,,,,,,,,,,,,,,,,,,,,,,,,,,,,,,,,,,,,,,,,
295822,2022-11-29_23h05.32.415,vts_reward_expectancy_bt,2022.2.4,MacIntel,59.99880002,Chrome,1440,900,,,l,0.8305,10,135,0,2,2,26,6,1,0,0,1,0,1,0,0,0,hexagon,triangle,,,,,,,,,,,,,,,,,,,,,,,,,,,,,,,,,,,,,,,,,,,,,,,,,,,,,,
295822,2022-11-29_23h05.32.415,vts_reward_expectancy_bt,2022.2.4,MacIntel,59.99880002,Chrome,1440,900,,,l,3.3358,10,145,0,2,3,27,7,1,0,0,1,0,0,1,0,0,hexagon,circle,,,,,,,,,,,,,,,,,,,,,,,,,,,,,,,,,,,,,,,,,,,,,,,,,,,,,,
295822,2022-11-29_23h05.32.415,vts_reward_expectancy_bt,2022.2.4,MacIntel,59.99880002,Chrome,1440,900,,,a,2.3768,10,155,0,2,4,28,3,1,0,1,0,0,1,0,0,0,circle,triangle,,,,,,,,,,,,,,,,,,,,,,,,,,,,,,,,,,,,,,,,,,,,,,,,,,,,,,
295822,2022-11-29_23h05.32.415,vts_reward_expectancy_bt,2022.2.4,MacIntel,59.99880002,Chrome,1440,900,,,a,1.6903,10,165,0,2,5,29,1,1,1,0,0,0,0,0,1,0,triangle,hexagon,,,,,,,,,,,,,,,,,,,,,,,,,,,,,,,,,,,,,,,,,,,,,,,,,,,,,,
295822,2022-11-29_23h05.32.415,vts_reward_expectancy_bt,2022.2.4,MacIntel,59.99880002,Chrome,1440,900,,,l,1.3094,10,175,0,2,6,30,11,1,0,0,0,1,0,0,1,0,star,hexagon,,,,,,,,,,,,,,,,,,,,,,,,,,,,,,,,,,,,,,,,,,,,,,,,,,,,,,
295822,2022-11-29_23h05.32.415,vts_reward_expectancy_bt,2022.2.4,MacIntel,59.99880002,Chrome,1440,900,,,a,1.0466,1,176,0,2,7,31,5,1,0,1,0,0,0,0,0,1,circle,star,,,,,,,,,,,,,,,,,,,,,,,,,,,,,,,,,,,,,,,,,,,,,,,,,,,,,,
295822,2022-11-29_23h05.32.415,vts_reward_expectancy_bt,2022.2.4,MacIntel,59.99880002,Chrome,1440,900,,,a,1.5044,1,177,0,2,8,32,4,1,0,1,0,0,0,0,1,0,circle,hexagon,,,,,,,,,,,,,,,,,,,,,,,,,,,,,,,,,,,,,,,,,,,,,,,,,,,,,,
295822,2022-11-29_23h05.32.415,vts_reward_expectancy_bt,2022.2.4,MacIntel,59.99880002,Chrome,1440,900,,,l,34.6774,10,187,0,2,9,33,10,1,0,0,0,1,0,1,0,0,star ,circle,,,,,,,,,,,,,,,,,,,,,,,,,,,,,,,,,,,,,,,,,,,,,,,,,,,,,,
295822,2022-11-29_23h05.32.415,vts_reward_expectancy_bt,2022.2.4,MacIntel,59.99880002,Chrome,1440,900,,,a,0.955,1,188,0,2,10,34,8,1,0,0,1,0,0,0,0,1,hexagon,star,,,,,,,,,,,,,,,,,,,,,,,,,,,,,,,,,,,,,,,,,,,,,,,,,,,,,,
295822,2022-11-29_23h05.32.415,vts_reward_expectancy_bt,2022.2.4,MacIntel,59.99880002,Chrome,1440,900,,,a,0.7012,10,198,0,2,11,35,2,1,1,0,0,0,0,0,0,1,triangle,star,,,,,,,,,,,,,,,,,,,,,,,,,,,,,,,,,,,,,,,,,,,,,,,,,,,,,,
295822,2022-11-29_23h05.32.415,vts_reward_expectancy_bt,2022.2.4,MacIntel,59.99880002,Chrome,1440,900,,,a,1.3433,10,208,1,0,0,0,4,1,0,1,0,0,0,0,1,0,circle,hexagon,,,,,,,,,,,,,,,,,,,,,,,,,,,,,,,,,,,,,,,,,,,,,,,,,,,,,,
295822,2022-11-29_23h05.32.415,vts_reward_expectancy_bt,2022.2.4,MacIntel,59.99880002,Chrome,1440,900,,,l,1.702,1,209,1,0,1,1,7,1,0,0,1,0,0,1,0,0,hexagon,circle,,,,,,,,,,,,,,,,,,,,,,,,,,,,,,,,,,,,,,,,,,,,,,,,,,,,,,
295822,2022-11-29_23h05.32.415,vts_reward_expectancy_bt,2022.2.4,MacIntel,59.99880002,Chrome,1440,900,,,a,8.8844,1,210,1,0,2,2,10,1,0,0,0,1,0,1,0,0,star ,circle,,,,,,,,,,,,,,,,,,,,,,,,,,,,,,,,,,,,,,,,,,,,,,,,,,,,,,
295822,2022-11-29_23h05.32.415,vts_reward_expectancy_bt,2022.2.4,MacIntel,59.99880002,Chrome,1440,900,,,l,0.5957,10,220,1,0,3,3,0,1,1,0,0,0,0,1,0,0,triangle,circle,,,,,,,,,,,,,,,,,,,,,,,,,,,,,,,,,,,,,,,,,,,,,,,,,,,,,,
295822,2022-11-29_23h05.32.415,vts_reward_expectancy_bt,2022.2.4,MacIntel,59.99880002,Chrome,1440,900,,,l,5.3171,10,230,1,0,4,4,6,1,0,0,1,0,1,0,0,0,hexagon,triangle,,,,,,,,,,,,,,,,,,,,,,,,,,,,,,,,,,,,,,,,,,,,,,,,,,,,,,
295822,2022-11-29_23h05.32.415,vts_reward_expectancy_bt,2022.2.4,MacIntel,59.99880002,Chrome,1440,900,,,l,0.5539,1,231,1,0,5,5,11,1,0,0,0,1,0,0,1,0,star,hexagon,,,,,,,,,,,,,,,,,,,,,,,,,,,,,,,,,,,,,,,,,,,,,,,,,,,,,,
295822,2022-11-29_23h05.32.415,vts_reward_expectancy_bt,2022.2.4,MacIntel,59.99880002,Chrome,1440,900,,,a,0.8627,10,241,1,0,6,6,3,1,0,1,0,0,1,0,0,0,circle,triangle,,,,,,,,,,,,,,,,,,,,,,,,,,,,,,,,,,,,,,,,,,,,,,,,,,,,,,
295822,2022-11-29_23h05.32.415,vts_reward_expectancy_bt,2022.2.4,MacIntel,59.99880002,Chrome,1440,900,,,a,1.4737,10,251,1,0,7,7,8,1,0,0,1,0,0,0,0,1,hexagon,star,,,,,,,,,,,,,,,,,,,,,,,,,,,,,,,,,,,,,,,,,,,,,,,,,,,,,,
295822,2022-11-29_23h05.32.415,vts_reward_expectancy_bt,2022.2.4,MacIntel,59.99880002,Chrome,1440,900,,,l,1.4257,1,252,1,0,8,8,2,1,1,0,0,0,0,0,0,1,triangle,star,,,,,,,,,,,,,,,,,,,,,,,,,,,,,,,,,,,,,,,,,,,,,,,,,,,,,,
295822,2022-11-29_23h05.32.415,vts_reward_expectancy_bt,2022.2.4,MacIntel,59.99880002,Chrome,1440,900,,,l,0.5875,10,262,1,0,9,9,9,1,0,0,0,1,1,0,0,0,star,triangle,,,,,,,,,,,,,,,,,,,,,,,,,,,,,,,,,,,,,,,,,,,,,,,,,,,,,,
295822,2022-11-29_23h05.32.415,vts_reward_expectancy_bt,2022.2.4,MacIntel,59.99880002,Chrome,1440,900,,,a,1.449,1,263,1,0,10,10,5,1,0,1,0,0,0,0,0,1,circle,star,,,,,,,,,,,,,,,,,,,,,,,,,,,,,,,,,,,,,,,,,,,,,,,,,,,,,,
295822,2022-11-29_23h05.32.415,vts_reward_expectancy_bt,2022.2.4,MacIntel,59.99880002,Chrome,1440,900,,,l,0.3472,10,273,1,0,11,11,1,1,1,0,0,0,0,0,1,0,triangle,hexagon,,,,,,,,,,,,,,,,,,,,,,,,,,,,,,,,,,,,,,,,,,,,,,,,,,,,,,
295822,2022-11-29_23h05.32.415,vts_reward_expectancy_bt,2022.2.4,MacIntel,59.99880002,Chrome,1440,900,,,l,0.5323,10,283,1,1,0,12,4,1,0,1,0,0,0,0,1,0,circle,hexagon,,,,,,,,,,,,,,,,,,,,,,,,,,,,,,,,,,,,,,,,,,,,,,,,,,,,,,
295822,2022-11-29_23h05.32.415,vts_reward_expectancy_bt,2022.2.4,MacIntel,59.99880002,Chrome,1440,900,,,l,0.42,10,293,1,1,1,13,3,1,0,1,0,0,1,0,0,0,circle,triangle,,,,,,,,,,,,,,,,,,,,,,,,,,,,,,,,,,,,,,,,,,,,,,,,,,,,,,
295822,2022-11-29_23h05.32.415,vts_reward_expectancy_bt,2022.2.4,MacIntel,59.99880002,Chrome,1440,900,,,l,3.7514,10,303,1,1,2,14,8,1,0,0,1,0,0,0,0,1,hexagon,star,,,,,,,,,,,,,,,,,,,,,,,,,,,,,,,,,,,,,,,,,,,,,,,,,,,,,,
295822,2022-11-29_23h05.32.415,vts_reward_expectancy_bt,2022.2.4,MacIntel,59.99880002,Chrome,1440,900,,,l,4.5305,10,313,1,1,3,15,2,1,1,0,0,0,0,0,0,1,triangle,star,,,,,,,,,,,,,,,,,,,,,,,,,,,,,,,,,,,,,,,,,,,,,,,,,,,,,,
295822,2022-11-29_23h05.32.415,vts_reward_expectancy_bt,2022.2.4,MacIntel,59.99880002,Chrome,1440,900,,,l,1.7792,1,314,1,1,4,16,11,1,0,0,0,1,0,0,1,0,star,hexagon,,,,,,,,,,,,,,,,,,,,,,,,,,,,,,,,,,,,,,,,,,,,,,,,,,,,,,
295822,2022-11-29_23h05.32.415,vts_reward_expectancy_bt,2022.2.4,MacIntel,59.99880002,Chrome,1440,900,,,a,14.7838,10,324,1,1,5,17,5,1,0,1,0,0,0,0,0,1,circle,star,,,,,,,,,,,,,,,,,,,,,,,,,,,,,,,,,,,,,,,,,,,,,,,,,,,,,,
295822,2022-11-29_23h05.32.415,vts_reward_expectancy_bt,2022.2.4,MacIntel,59.99880002,Chrome,1440,900,,,l,61.6471,10,334,1,1,6,18,6,1,0,0,1,0,1,0,0,0,hexagon,triangle,,,,,,,,,,,,,,,,,,,,,,,,,,,,,,,,,,,,,,,,,,,,,,,,,,,,,,
295822,2022-11-29_23h05.32.415,vts_reward_expectancy_bt,2022.2.4,MacIntel,59.99880002,Chrome,1440,900,,,l,0.5051,10,344,1,1,7,19,9,1,0,0,0,1,1,0,0,0,star,triangle,,,,,,,,,,,,,,,,,,,,,,,,,,,,,,,,,,,,,,,,,,,,,,,,,,,,,,
295822,2022-11-29_23h05.32.415,vts_reward_expectancy_bt,2022.2.4,MacIntel,59.99880002,Chrome,1440,900,,,l,1.6361,1,345,1,1,8,20,1,1,1,0,0,0,0,0,1,0,triangle,hexagon,,,,,,,,,,,,,,,,,,,,,,,,,,,,,,,,,,,,,,,,,,,,,,,,,,,,,,
295822,2022-11-29_23h05.32.415,vts_reward_expectancy_bt,2022.2.4,MacIntel,59.99880002,Chrome,1440,900,,,l,1.3918,1,346,1,1,9,21,0,1,1,0,0,0,0,1,0,0,triangle,circle,,,,,,,,,,,,,,,,,,,,,,,,,,,,,,,,,,,,,,,,,,,,,,,,,,,,,,
295822,2022-11-29_23h05.32.415,vts_reward_expectancy_bt,2022.2.4,MacIntel,59.99880002,Chrome,1440,900,,,l,2.7424,10,356,1,1,10,22,10,1,0,0,0,1,0,1,0,0,star ,circle,,,,,,,,,,,,,,,,,,,,,,,,,,,,,,,,,,,,,,,,,,,,,,,,,,,,,,
295822,2022-11-29_23h05.32.415,vts_reward_expectancy_bt,2022.2.4,MacIntel,59.99880002,Chrome,1440,900,,,a,66.9445,10,366,1,1,11,23,7,1,0,0,1,0,0,1,0,0,hexagon,circle,,,,,,,,,,,,,,,,,,,,,,,,,,,,,,,,,,,,,,,,,,,,,,,,,,,,,,
295822,2022-11-29_23h05.32.415,vts_reward_expectancy_bt,2022.2.4,MacIntel,59.99880002,Chrome,1440,900,,,a,1.1617,10,376,1,2,0,24,2,1,1,0,0,0,0,0,0,1,triangle,star,,,,,,,,,,,,,,,,,,,,,,,,,,,,,,,,,,,,,,,,,,,,,,,,,,,,,,
295822,2022-11-29_23h05.32.415,vts_reward_expectancy_bt,2022.2.4,MacIntel,59.99880002,Chrome,1440,900,,,l,1.2361,10,386,1,2,1,25,3,1,0,1,0,0,1,0,0,0,circle,triangle,,,,,,,,,,,,,,,,,,,,,,,,,,,,,,,,,,,,,,,,,,,,,,,,,,,,,,
295822,2022-11-29_23h05.32.415,vts_reward_expectancy_bt,2022.2.4,MacIntel,59.99880002,Chrome,1440,900,,,a,17.563,10,396,1,2,2,26,7,1,0,0,1,0,0,1,0,0,hexagon,circle,,,,,,,,,,,,,,,,,,,,,,,,,,,,,,,,,,,,,,,,,,,,,,,,,,,,,,
295822,2022-11-29_23h05.32.415,vts_reward_expectancy_bt,2022.2.4,MacIntel,59.99880002,Chrome,1440,900,,,l,1.1044,1,397,1,2,3,27,6,1,0,0,1,0,1,0,0,0,hexagon,triangle,,,,,,,,,,,,,,,,,,,,,,,,,,,,,,,,,,,,,,,,,,,,,,,,,,,,,,
295822,2022-11-29_23h05.32.415,vts_reward_expectancy_bt,2022.2.4,MacIntel,59.99880002,Chrome,1440,900,,,a,2.0484,1,398,1,2,4,28,4,1,0,1,0,0,0,0,1,0,circle,hexagon,,,,,,,,,,,,,,,,,,,,,,,,,,,,,,,,,,,,,,,,,,,,,,,,,,,,,,
295822,2022-11-29_23h05.32.415,vts_reward_expectancy_bt,2022.2.4,MacIntel,59.99880002,Chrome,1440,900,,,a,2.9717,1,399,1,2,5,29,1,1,1,0,0,0,0,0,1,0,triangle,hexagon,,,,,,,,,,,,,,,,,,,,,,,,,,,,,,,,,,,,,,,,,,,,,,,,,,,,,,
295822,2022-11-29_23h05.32.415,vts_reward_expectancy_bt,2022.2.4,MacIntel,59.99880002,Chrome,1440,900,,,l,1.1098,10,409,1,2,6,30,9,1,0,0,0,1,1,0,0,0,star,triangle,,,,,,,,,,,,,,,,,,,,,,,,,,,,,,,,,,,,,,,,,,,,,,,,,,,,,,
295822,2022-11-29_23h05.32.415,vts_reward_expectancy_bt,2022.2.4,MacIntel,59.99880002,Chrome,1440,900,,,l,0.584,10,419,1,2,7,31,11,1,0,0,0,1,0,0,1,0,star,hexagon,,,,,,,,,,,,,,,,,,,,,,,,,,,,,,,,,,,,,,,,,,,,,,,,,,,,,,
295822,2022-11-29_23h05.32.415,vts_reward_expectancy_bt,2022.2.4,MacIntel,59.99880002,Chrome,1440,900,,,a,1.0671,10,429,1,2,8,32,8,1,0,0,1,0,0,0,0,1,hexagon,star,,,,,,,,,,,,,,,,,,,,,,,,,,,,,,,,,,,,,,,,,,,,,,,,,,,,,,
295822,2022-11-29_23h05.32.415,vts_reward_expectancy_bt,2022.2.4,MacIntel,59.99880002,Chrome,1440,900,,,l,3.6479,10,439,1,2,9,33,5,1,0,1,0,0,0,0,0,1,circle,star,,,,,,,,,,,,,,,,,,,,,,,,,,,,,,,,,,,,,,,,,,,,,,,,,,,,,,
295822,2022-11-29_23h05.32.415,vts_reward_expectancy_bt,2022.2.4,MacIntel,59.99880002,Chrome,1440,900,,,a,1.3539,10,449,1,2,10,34,0,1,1,0,0,0,0,1,0,0,triangle,circle,,,,,,,,,,,,,,,,,,,,,,,,,,,,,,,,,,,,,,,,,,,,,,,,,,,,,,
295822,2022-11-29_23h05.32.415,vts_reward_expectancy_bt,2022.2.4,MacIntel,59.99880002,Chrome,1440,900,,,a,2.5918,10,459,1,2,11,35,10,1,0,0,0,1,0,1,0,0,star ,circle,,,,,,,,,,,,,,,,,,,,,,,,,,,,,,,,,,,,,,,,,,,,,,,,,,,,,,
295822,2022-11-29_23h05.32.415,vts_reward_expectancy_bt,2022.2.4,MacIntel,59.99880002,Chrome,1440,900,,,l,8.6657,1,460,2,0,0,0,10,1,0,0,0,1,0,1,0,0,star ,circle,,,,,,,,,,,,,,,,,,,,,,,,,,,,,,,,,,,,,,,,,,,,,,,,,,,,,,
295822,2022-11-29_23h05.32.415,vts_reward_expectancy_bt,2022.2.4,MacIntel,59.99880002,Chrome,1440,900,,,a,1.548,10,470,2,0,1,1,9,1,0,0,0,1,1,0,0,0,star,triangle,,,,,,,,,,,,,,,,,,,,,,,,,,,,,,,,,,,,,,,,,,,,,,,,,,,,,,
295822,2022-11-29_23h05.32.415,vts_reward_expectancy_bt,2022.2.4,MacIntel,59.99880002,Chrome,1440,900,,,a,0.4169,10,480,2,0,2,2,11,1,0,0,0,1,0,0,1,0,star,hexagon,,,,,,,,,,,,,,,,,,,,,,,,,,,,,,,,,,,,,,,,,,,,,,,,,,,,,,
295822,2022-11-29_23h05.32.415,vts_reward_expectancy_bt,2022.2.4,MacIntel,59.99880002,Chrome,1440,900,,,l,0.5529,1,481,2,0,3,3,5,1,0,1,0,0,0,0,0,1,circle,star,,,,,,,,,,,,,,,,,,,,,,,,,,,,,,,,,,,,,,,,,,,,,,,,,,,,,,
295822,2022-11-29_23h05.32.415,vts_reward_expectancy_bt,2022.2.4,MacIntel,59.99880002,Chrome,1440,900,,,l,1.7421,10,491,2,0,4,4,3,1,0,1,0,0,1,0,0,0,circle,triangle,,,,,,,,,,,,,,,,,,,,,,,,,,,,,,,,,,,,,,,,,,,,,,,,,,,,,,
295822,2022-11-29_23h05.32.415,vts_reward_expectancy_bt,2022.2.4,MacIntel,59.99880002,Chrome,1440,900,,,l,2.1757,10,501,2,0,5,5,0,1,1,0,0,0,0,1,0,0,triangle,circle,,,,,,,,,,,,,,,,,,,,,,,,,,,,,,,,,,,,,,,,,,,,,,,,,,,,,,
295822,2022-11-29_23h05.32.415,vts_reward_expectancy_bt,2022.2.4,MacIntel,59.99880002,Chrome,1440,900,,,l,2.7091,10,511,2,0,6,6,4,1,0,1,0,0,0,0,1,0,circle,hexagon,,,,,,,,,,,,,,,,,,,,,,,,,,,,,,,,,,,,,,,,,,,,,,,,,,,,,,
295822,2022-11-29_23h05.32.415,vts_reward_expectancy_bt,2022.2.4,MacIntel,59.99880002,Chrome,1440,900,,,a,4.0468,10,521,2,0,7,7,6,1,0,0,1,0,1,0,0,0,hexagon,triangle,,,,,,,,,,,,,,,,,,,,,,,,,,,,,,,,,,,,,,,,,,,,,,,,,,,,,,
295822,2022-11-29_23h05.32.415,vts_reward_expectancy_bt,2022.2.4,MacIntel,59.99880002,Chrome,1440,900,,,l,0.6933,1,522,2,0,8,8,8,1,0,0,1,0,0,0,0,1,hexagon,star,,,,,,,,,,,,,,,,,,,,,,,,,,,,,,,,,,,,,,,,,,,,,,,,,,,,,,
295822,2022-11-29_23h05.32.415,vts_reward_expectancy_bt,2022.2.4,MacIntel,59.99880002,Chrome,1440,900,,,l,0.6099,10,532,2,0,9,9,2,1,1,0,0,0,0,0,0,1,triangle,star,,,,,,,,,,,,,,,,,,,,,,,,,,,,,,,,,,,,,,,,,,,,,,,,,,,,,,
295822,2022-11-29_23h05.32.415,vts_reward_expectancy_bt,2022.2.4,MacIntel,59.99880002,Chrome,1440,900,,,a,0.5865,10,542,2,0,10,10,1,1,1,0,0,0,0,0,1,0,triangle,hexagon,,,,,,,,,,,,,,,,,,,,,,,,,,,,,,,,,,,,,,,,,,,,,,,,,,,,,,
295822,2022-11-29_23h05.32.415,vts_reward_expectancy_bt,2022.2.4,MacIntel,59.99880002,Chrome,1440,900,,,a,1.2465,1,543,2,0,11,11,7,1,0,0,1,0,0,1,0,0,hexagon,circle,,,,,,,,,,,,,,,,,,,,,,,,,,,,,,,,,,,,,,,,,,,,,,,,,,,,,,
295822,2022-11-29_23h05.32.415,vts_reward_expectancy_bt,2022.2.4,MacIntel,59.99880002,Chrome,1440,900,,,l,17.6813,10,553,2,1,0,12,8,1,0,0,1,0,0,0,0,1,hexagon,star,,,,,,,,,,,,,,,,,,,,,,,,,,,,,,,,,,,,,,,,,,,,,,,,,,,,,,
295822,2022-11-29_23h05.32.415,vts_reward_expectancy_bt,2022.2.4,MacIntel,59.99880002,Chrome,1440,900,,,a,16.2977,1,554,2,1,1,13,7,1,0,0,1,0,0,1,0,0,hexagon,circle,,,,,,,,,,,,,,,,,,,,,,,,,,,,,,,,,,,,,,,,,,,,,,,,,,,,,,
295822,2022-11-29_23h05.32.415,vts_reward_expectancy_bt,2022.2.4,MacIntel,59.99880002,Chrome,1440,900,,,l,1.8913,10,564,2,1,2,14,1,1,1,0,0,0,0,0,1,0,triangle,hexagon,,,,,,,,,,,,,,,,,,,,,,,,,,,,,,,,,,,,,,,,,,,,,,,,,,,,,,
295822,2022-11-29_23h05.32.415,vts_reward_expectancy_bt,2022.2.4,MacIntel,59.99880002,Chrome,1440,900,,,l,7.8729,10,574,2,1,3,15,11,1,0,0,0,1,0,0,1,0,star,hexagon,,,,,,,,,,,,,,,,,,,,,,,,,,,,,,,,,,,,,,,,,,,,,,,,,,,,,,
295822,2022-11-29_23h05.32.415,vts_reward_expectancy_bt,2022.2.4,MacIntel,59.99880002,Chrome,1440,900,,,l,17.6461,10,584,2,1,4,16,9,1,0,0,0,1,1,0,0,0,star,triangle,,,,,,,,,,,,,,,,,,,,,,,,,,,,,,,,,,,,,,,,,,,,,,,,,,,,,,
295822,2022-11-29_23h05.32.415,vts_reward_expectancy_bt,2022.2.4,MacIntel,59.99880002,Chrome,1440,900,,,a,1.0763,10,594,2,1,5,17,0,1,1,0,0,0,0,1,0,0,triangle,circle,,,,,,,,,,,,,,,,,,,,,,,,,,,,,,,,,,,,,,,,,,,,,,,,,,,,,,
295822,2022-11-29_23h05.32.415,vts_reward_expectancy_bt,2022.2.4,MacIntel,59.99880002,Chrome,1440,900,,,l,1.8238,1,595,2,1,6,18,2,1,1,0,0,0,0,0,0,1,triangle,star,,,,,,,,,,,,,,,,,,,,,,,,,,,,,,,,,,,,,,,,,,,,,,,,,,,,,,
295822,2022-11-29_23h05.32.415,vts_reward_expectancy_bt,2022.2.4,MacIntel,59.99880002,Chrome,1440,900,,,a,1.174,10,605,2,1,7,19,3,1,0,1,0,0,1,0,0,0,circle,triangle,,,,,,,,,,,,,,,,,,,,,,,,,,,,,,,,,,,,,,,,,,,,,,,,,,,,,,
295822,2022-11-29_23h05.32.415,vts_reward_expectancy_bt,2022.2.4,MacIntel,59.99880002,Chrome,1440,900,,,a,0.489,10,615,2,1,8,20,10,1,0,0,0,1,0,1,0,0,star ,circle,,,,,,,,,,,,,,,,,,,,,,,,,,,,,,,,,,,,,,,,,,,,,,,,,,,,,,
295822,2022-11-29_23h05.32.415,vts_reward_expectancy_bt,2022.2.4,MacIntel,59.99880002,Chrome,1440,900,,,a,3.9482,10,625,2,1,9,21,6,1,0,0,1,0,1,0,0,0,hexagon,triangle,,,,,,,,,,,,,,,,,,,,,,,,,,,,,,,,,,,,,,,,,,,,,,,,,,,,,,
295822,2022-11-29_23h05.32.415,vts_reward_expectancy_bt,2022.2.4,MacIntel,59.99880002,Chrome,1440,900,,,a,0.64,1,626,2,1,10,22,5,1,0,1,0,0,0,0,0,1,circle,star,,,,,,,,,,,,,,,,,,,,,,,,,,,,,,,,,,,,,,,,,,,,,,,,,,,,,,
295822,2022-11-29_23h05.32.415,vts_reward_expectancy_bt,2022.2.4,MacIntel,59.99880002,Chrome,1440,900,,,l,0.3838,10,636,2,1,11,23,4,1,0,1,0,0,0,0,1,0,circle,hexagon,,,,,,,,,,,,,,,,,,,,,,,,,,,,,,,,,,,,,,,,,,,,,,,,,,,,,,
295822,2022-11-29_23h05.32.415,vts_reward_expectancy_bt,2022.2.4,MacIntel,59.99880002,Chrome,1440,900,,,a,1.8659,1,637,2,2,0,24,11,1,0,0,0,1,0,0,1,0,star,hexagon,,,,,,,,,,,,,,,,,,,,,,,,,,,,,,,,,,,,,,,,,,,,,,,,,,,,,,
295822,2022-11-29_23h05.32.415,vts_reward_expectancy_bt,2022.2.4,MacIntel,59.99880002,Chrome,1440,900,,,l,0.3933,10,647,2,2,1,25,1,1,1,0,0,0,0,0,1,0,triangle,hexagon,,,,,,,,,,,,,,,,,,,,,,,,,,,,,,,,,,,,,,,,,,,,,,,,,,,,,,
295822,2022-11-29_23h05.32.415,vts_reward_expectancy_bt,2022.2.4,MacIntel,59.99880002,Chrome,1440,900,,,l,0.584,1,648,2,2,2,26,9,1,0,0,0,1,1,0,0,0,star,triangle,,,,,,,,,,,,,,,,,,,,,,,,,,,,,,,,,,,,,,,,,,,,,,,,,,,,,,
295822,2022-11-29_23h05.32.415,vts_reward_expectancy_bt,2022.2.4,MacIntel,59.99880002,Chrome,1440,900,,,a,0.5415,1,649,2,2,3,27,3,1,0,1,0,0,1,0,0,0,circle,triangle,,,,,,,,,,,,,,,,,,,,,,,,,,,,,,,,,,,,,,,,,,,,,,,,,,,,,,
295822,2022-11-29_23h05.32.415,vts_reward_expectancy_bt,2022.2.4,MacIntel,59.99880002,Chrome,1440,900,,,l,0.3155,1,650,2,2,4,28,5,1,0,1,0,0,0,0,0,1,circle,star,,,,,,,,,,,,,,,,,,,,,,,,,,,,,,,,,,,,,,,,,,,,,,,,,,,,,,
295822,2022-11-29_23h05.32.415,vts_reward_expectancy_bt,2022.2.4,MacIntel,59.99880002,Chrome,1440,900,,,a,0.5837,1,651,2,2,5,29,7,1,0,0,1,0,0,1,0,0,hexagon,circle,,,,,,,,,,,,,,,,,,,,,,,,,,,,,,,,,,,,,,,,,,,,,,,,,,,,,,
295822,2022-11-29_23h05.32.415,vts_reward_expectancy_bt,2022.2.4,MacIntel,59.99880002,Chrome,1440,900,,,l,0.3093,10,661,2,2,6,30,4,1,0,1,0,0,0,0,1,0,circle,hexagon,,,,,,,,,,,,,,,,,,,,,,,,,,,,,,,,,,,,,,,,,,,,,,,,,,,,,,
295822,2022-11-29_23h05.32.415,vts_reward_expectancy_bt,2022.2.4,MacIntel,59.99880002,Chrome,1440,900,,,l,0.617,10,671,2,2,7,31,0,1,1,0,0,0,0,1,0,0,triangle,circle,,,,,,,,,,,,,,,,,,,,,,,,,,,,,,,,,,,,,,,,,,,,,,,,,,,,,,
295822,2022-11-29_23h05.32.415,vts_reward_expectancy_bt,2022.2.4,MacIntel,59.99880002,Chrome,1440,900,,,l,0.5397,1,672,2,2,8,32,2,1,1,0,0,0,0,0,0,1,triangle,star,,,,,,,,,,,,,,,,,,,,,,,,,,,,,,,,,,,,,,,,,,,,,,,,,,,,,,
295822,2022-11-29_23h05.32.415,vts_reward_expectancy_bt,2022.2.4,MacIntel,59.99880002,Chrome,1440,900,,,a,0.3501,10,682,2,2,9,33,6,1,0,0,1,0,1,0,0,0,hexagon,triangle,,,,,,,,,,,,,,,,,,,,,,,,,,,,,,,,,,,,,,,,,,,,,,,,,,,,,,
295822,2022-11-29_23h05.32.415,vts_reward_expectancy_bt,2022.2.4,MacIntel,59.99880002,Chrome,1440,900,,,a,0.5342,10,692,2,2,10,34,8,1,0,0,1,0,0,0,0,1,hexagon,star,,,,,,,,,,,,,,,,,,,,,,,,,,,,,,,,,,,,,,,,,,,,,,,,,,,,,,
295822,2022-11-29_23h05.32.415,vts_reward_expectancy_bt,2022.2.4,MacIntel,59.99880002,Chrome,1440,900,,,l,0.5597,1,693,2,2,11,35,10,1,0,0,0,1,0,1,0,0,star ,circle,,,,,,,,,,,,,,,,,,,,,,,,,,,,,,,,,,,,,,,,,,,,,,,,,,,,,,
295822,2022-11-29_23h05.32.415,vts_reward_expectancy_bt,2022.2.4,MacIntel,59.99880002,Chrome,1440,900,,,,,,,,,,,,,,,,,,,,,,,139,B,star,1,0,d,1.031,0,0,0,0,0,1,,,,,,,,,,,,,,,,,,,,,,,,,,,,,,,,,,,,,,,,,
295822,2022-11-29_23h05.32.415,vts_reward_expectancy_bt,2022.2.4,MacIntel,59.99880002,Chrome,1440,900,,,,,,,,,,,,,,,,,,,,,,,146,D,hexagon,1,0,d,1.0282,0,1,0,1,0,1,,,,,,,,,,,,,,,,,,,,,,,,,,,,,,,,,,,,,,,,,
295822,2022-11-29_23h05.32.415,vts_reward_expectancy_bt,2022.2.4,MacIntel,59.99880002,Chrome,1440,900,,,,,,,,,,,,,,,,,,,,,,,132,H,triangle,1,0,d,0.8119,0,2,0,2,0,1,,,,,,,,,,,,,,,,,,,,,,,,,,,,,,,,,,,,,,,,,
295822,2022-11-29_23h05.32.415,vts_reward_expectancy_bt,2022.2.4,MacIntel,59.99880002,Chrome,1440,900,,,,,,,,,,,,,,,,,,,,,,,160,S,circle,1,0,f,1.5529,0,3,0,3,0,1,,,,,,,,,,,,,,,,,,,,,,,,,,,,,,,,,,,,,,,,,
295822,2022-11-29_23h05.32.415,vts_reward_expectancy_bt,2022.2.4,MacIntel,59.99880002,Chrome,1440,900,,,,,,,,,,,,,,,,,,,,,,,167,F,star,1,0,f,0.8059,0,4,0,4,0,1,,,,,,,,,,,,,,,,,,,,,,,,,,,,,,,,,,,,,,,,,
295822,2022-11-29_23h05.32.415,vts_reward_expectancy_bt,2022.2.4,MacIntel,59.99880002,Chrome,1440,900,,,,,,,,,,,,,,,,,,,,,,,125,Y,hexagon,1,0,d,0.6486,0,5,0,5,0,1,,,,,,,,,,,,,,,,,,,,,,,,,,,,,,,,,,,,,,,,,
295822,2022-11-29_23h05.32.415,vts_reward_expectancy_bt,2022.2.4,MacIntel,59.99880002,Chrome,1440,900,,,,,,,,,,,,,,,,,,,,,,,181,W,triangle,1,0,f,0.7285,0,6,0,6,0,1,,,,,,,,,,,,,,,,,,,,,,,,,,,,,,,,,,,,,,,,,
295822,2022-11-29_23h05.32.415,vts_reward_expectancy_bt,2022.2.4,MacIntel,59.99880002,Chrome,1440,900,,,,,,,,,,,,,,,,,,,,,,,174,U,circle,1,0,f,1.8109,0,7,0,7,0,1,,,,,,,,,,,,,,,,,,,,,,,,,,,,,,,,,,,,,,,,,
295822,2022-11-29_23h05.32.415,vts_reward_expectancy_bt,2022.2.4,MacIntel,59.99880002,Chrome,1440,900,,,,,,,,,,,,,,,,,,,,,,,139,B,circle,0,0,,,0,8,0,8,0,1,,,,,,,,,,,,,,,,,,,,,,,,,,,,,,,,,,,,,,,,,
295822,2022-11-29_23h05.32.415,vts_reward_expectancy_bt,2022.2.4,MacIntel,59.99880002,Chrome,1440,900,,,,,,,,,,,,,,,,,,,,,,,146,D,hexagon,1,1,d,0.8947,0,9,0,9,0,1,,,,,,,,,,,,,,,,,,,,,,,,,,,,,,,,,,,,,,,,,
295822,2022-11-29_23h05.32.415,vts_reward_expectancy_bt,2022.2.4,MacIntel,59.99880002,Chrome,1440,900,,,,,,,,,,,,,,,,,,,,,,,125,W,triangle,0,0,,,1,,,,,,,0,0,0,0,1,,,,,,,,,,,,,,,,,,,,,,,,,,,,,,,,,,,
295822,2022-11-29_23h05.32.415,vts_reward_expectancy_bt,2022.2.4,MacIntel,59.99880002,Chrome,1440,900,,,,,,,,,,,,,,,,,,,,,,,146,B,hexagon,1,1,,,1,,,,,,j,1,0,1,0,1,1.3634,,,,,,,,,,,,,,,,,,,,,,,,,,,,,,,,,,
295822,2022-11-29_23h05.32.415,vts_reward_expectancy_bt,2022.2.4,MacIntel,59.99880002,Chrome,1440,900,,,,,,,,,,,,,,,,,,,,,,,132,S,circle,1,0,,,1,,,,,,k,2,0,2,0,1,1.279,,,,,,,,,,,,,,,,,,,,,,,,,,,,,,,,,,
295822,2022-11-29_23h05.32.415,vts_reward_expectancy_bt,2022.2.4,MacIntel,59.99880002,Chrome,1440,900,,,,,,,,,,,,,,,,,,,,,,,167,U,star,1,0,,,1,,,,,,k,3,0,3,0,1,1.0006,,,,,,,,,,,,,,,,,,,,,,,,,,,,,,,,,,
295822,2022-11-29_23h05.32.415,vts_reward_expectancy_bt,2022.2.4,MacIntel,59.99880002,Chrome,1440,900,,,,,,,,,,,,,,,,,,,,,,,181,F,triangle,1,0,,,1,,,,,,j,4,0,4,0,1,1.1125,,,,,,,,,,,,,,,,,,,,,,,,,,,,,,,,,,
295822,2022-11-29_23h05.32.415,vts_reward_expectancy_bt,2022.2.4,MacIntel,59.99880002,Chrome,1440,900,,,,,,,,,,,,,,,,,,,,,,,174,Y,hexagon,1,0,,,1,,,,,,k,5,0,5,0,1,1.4209,,,,,,,,,,,,,,,,,,,,,,,,,,,,,,,,,,
295822,2022-11-29_23h05.32.415,vts_reward_expectancy_bt,2022.2.4,MacIntel,59.99880002,Chrome,1440,900,,,,,,,,,,,,,,,,,,,,,,,139,D,circle,1,0,,,1,,,,,,j,6,0,6,0,1,0.9656,,,,,,,,,,,,,,,,,,,,,,,,,,,,,,,,,,
295822,2022-11-29_23h05.32.415,vts_reward_expectancy_bt,2022.2.4,MacIntel,59.99880002,Chrome,1440,900,,,,,,,,,,,,,,,,,,,,,,,160,H,star,1,0,,,1,,,,,,j,7,0,7,0,1,1.4838,,,,,,,,,,,,,,,,,,,,,,,,,,,,,,,,,,
295822,2022-11-29_23h05.32.415,vts_reward_expectancy_bt,2022.2.4,MacIntel,59.99880002,Chrome,1440,900,,,,,,,,,,,,,,,,,,,,,,,125,W,hexagon,1,0,,,1,,,,,,k,8,0,8,0,1,1.0994,,,,,,,,,,,,,,,,,,,,,,,,,,,,,,,,,,
295822,2022-11-29_23h05.32.415,vts_reward_expectancy_bt,2022.2.4,MacIntel,59.99880002,Chrome,1440,900,,,,,,,,,,,,,,,,,,,,,,,146,B,triangle,1,0,,,1,,,,,,j,9,0,9,0,1,1.1489,,,,,,,,,,,,,,,,,,,,,,,,,,,,,,,,,,
295822,2022-11-29_23h05.32.415,vts_reward_expectancy_bt,2022.2.4,MacIntel,59.99880002,Chrome,1440,900,,,,,0,693,,,,,,,,,,,,,,,,,174,W,circle,-1,0,,,2,,,,,,,,,,,,,-1,no_choice,NA,,vtsPrac,0,0,0,0,1,,,,,,,,,,,,,,,,,,,,,,,,
295822,2022-11-29_23h05.32.415,vts_reward_expectancy_bt,2022.2.4,MacIntel,59.99880002,Chrome,1440,900,,,,,0,693,,,,,,,,,,,,,,,,,146,D,triangle,1,0,,,2,,,,,,,,,,,,,switch,number,numSwt,d,vtsPrac,1,0,1,0,1,1.769,,,,,,,,,,,,,,,,,,,,,,,
295822,2022-11-29_23h05.32.415,vts_reward_expectancy_bt,2022.2.4,MacIntel,59.99880002,Chrome,1440,900,,,,,0,693,,,,,,,,,,,,,,,,,125,U,circle,-1,0,,,2,,,,,,,,,,,,,switch,no_choice,NA,,vtsPrac,2,0,2,0,1,,,,,,,,,,,,,,,,,,,,,,,,
295822,2022-11-29_23h05.32.415,vts_reward_expectancy_bt,2022.2.4,MacIntel,59.99880002,Chrome,1440,900,,,,,0,693,,,,,,,,,,,,,,,,,132,Y,triangle,-1,0,,,2,,,,,,,,,,,,,repeat,no_choice,NA,,vtsPrac,3,0,3,0,1,,,,,,,,,,,,,,,,,,,,,,,,
295822,2022-11-29_23h05.32.415,vts_reward_expectancy_bt,2022.2.4,MacIntel,59.99880002,Chrome,1440,900,,,,,0,693,,,,,,,,,,,,,,,,,174,W,triangle,-1,0,,,2,,,,,,,,,,,,,repeat,no_choice,NA,,vtsPrac,4,0,4,0,1,,,,,,,,,,,,,,,,,,,,,,,,
295822,2022-11-29_23h05.32.415,vts_reward_expectancy_bt,2022.2.4,MacIntel,59.99880002,Chrome,1440,900,,,,,0,693,,,,,,,,,,,,,,,,,146,D,circle,-1,0,,,2,,,,,,,,,,,,,repeat,no_choice,NA,,vtsPrac,5,0,5,0,1,,,,,,,,,,,,,,,,,,,,,,,,
295822,2022-11-29_23h05.32.415,vts_reward_expectancy_bt,2022.2.4,MacIntel,59.99880002,Chrome,1440,900,,,,,0,693,,,,,,,,,,,,,,,,,125,U,hexagon,-1,0,,,2,,,,,,,,,,,,,repeat,no_choice,NA,,vtsPrac,6,0,6,0,1,,,,,,,,,,,,,,,,,,,,,,,,
295822,2022-11-29_23h05.32.415,vts_reward_expectancy_bt,2022.2.4,MacIntel,59.99880002,Chrome,1440,900,,,,,0,693,,,,,,,,,,,,,,,,,132,Y,circle,-1,0,,,2,,,,,,,,,,,,,repeat,no_choice,NA,,vtsPrac,7,0,7,0,1,,,,,,,,,,,,,,,,,,,,,,,,
295822,2022-11-29_23h05.32.415,vts_reward_expectancy_bt,2022.2.4,MacIntel,59.99880002,Chrome,1440,900,,,,,0,693,,,,,,,,,,,,,,,,,139,S,triangle,1,0,,,2,,,,,,,,,,,,,switch,number,numSwt,d,vtsPrac,8,0,8,0,1,0.7489,,,,,,,,,,,,,,,,,,,,,,,
295822,2022-11-29_23h05.32.415,vts_reward_expectancy_bt,2022.2.4,MacIntel,59.99880002,Chrome,1440,900,,,,,0,693,,,,,,,,,,,,,,,,,146,F,circle,1,0,,,2,,,,,,,,,,,,,switch,letter,lettSwt,j,vtsPrac,9,0,9,0,1,1.0477,,,,,,,,,,,,,,,,,,,,,,,
295822,2022-11-29_23h05.32.415,vts_reward_expectancy_bt,2022.2.4,MacIntel,59.99880002,Chrome,1440,900,,,,,0,693,,,,,,,,,,,,,,,,,167,H,triangle,1,0,,,2,,,,,,,,,,,,,switch,number,numSwt,f,vtsPrac,10,0,10,0,1,0.5819,,,,,,,,,,,,,,,,,,,,,,,
295822,2022-11-29_23h05.32.415,vts_reward_expectancy_bt,2022.2.4,MacIntel,59.99880002,Chrome,1440,900,,,,,0,693,,,,,,,,,,,,,,,,,132,B,hexagon,1,0,,,2,,,,,,,,,,,,,switch,letter,lettSwt,j,vtsPrac,11,0,11,0,1,0.6169,,,,,,,,,,,,,,,,,,,,,,,
295822,2022-11-29_23h05.32.415,vts_reward_expectancy_bt,2022.2.4,MacIntel,59.99880002,Chrome,1440,900,,,,,0,693,,,,,,,,,,,,,,,,,139,H,triangle,1,0,,,2,,,,,,,,,,,,,repeat,letter,lettRpt,j,vtsPrac,12,0,12,0,1,1.0283,,,,,,,,,,,,,,,,,,,,,,,
295822,2022-11-29_23h05.32.415,vts_reward_expectancy_bt,2022.2.4,MacIntel,59.99880002,Chrome,1440,900,,,,,0,693,,,,,,,,,,,,,,,,,146,W,circle,1,0,,,2,,,,,,,,,,,,,switch,number,numSwt,d,vtsPrac,13,0,13,0,1,0.9298,,,,,,,,,,,,,,,,,,,,,,,
295822,2022-11-29_23h05.32.415,vts_reward_expectancy_bt,2022.2.4,MacIntel,59.99880002,Chrome,1440,900,,,,,0,693,,,,,,,,,,,,,,,,,132,B,triangle,1,0,,,2,,,,,,,,,,,,,switch,letter,lettSwt,j,vtsPrac,14,0,14,0,1,0.533,,,,,,,,,,,,,,,,,,,,,,,
295822,2022-11-29_23h05.32.415,vts_reward_expectancy_bt,2022.2.4,MacIntel,59.99880002,Chrome,1440,900,,,,,0,693,,,,,,,,,,,,,,,,,181,U,hexagon,1,0,,,2,,,,,,,,,,,,,switch,number,numSwt,f,vtsPrac,15,0,15,0,1,0.6303,,,,,,,,,,,,,,,,,,,,,,,
295822,2022-11-29_23h05.32.415,vts_reward_expectancy_bt,2022.2.4,MacIntel,59.99880002,Chrome,1440,900,,,,,0,693,,,,,,,,,,,,,,,,,146,B,triangle,1,0,,,2,,,,,,,,,,,,,repeat,number,numRpt,d,vtsPrac,16,0,16,0,1,0.8824,,,,,,,,,,,,,,,,,,,,,,,
295822,2022-11-29_23h05.32.415,vts_reward_expectancy_bt,2022.2.4,MacIntel,59.99880002,Chrome,1440,900,,,,,0,693,,,,,,,,,,,,,,,,,181,U,circle,1,0,,,2,,,,,,,,,,,,,switch,letter,lettSwt,k,vtsPrac,17,0,17,0,1,1.6664,,,,,,,,,,,,,,,,,,,,,,,
295822,2022-11-29_23h05.32.415,vts_reward_expectancy_bt,2022.2.4,MacIntel,59.99880002,Chrome,1440,900,,,,,0,693,,,,,,,,,,,,,,,,,174,F,hexagon,1,0,,,2,,,,,,,,,,,,,repeat,letter,lettRpt,j,vtsPrac,18,0,18,0,1,1.4304,,,,,,,,,,,,,,,,,,,,,,,
295822,2022-11-29_23h05.32.415,vts_reward_expectancy_bt,2022.2.4,MacIntel,59.99880002,Chrome,1440,900,,,,,0,693,,,,,,,,,,,,,,,,,167,S,star,1,0,,,2,,,,,,,,,,,,,repeat,letter,lettRpt,k,vtsPrac,19,0,19,0,1,1.3333,,,,,,,,,,,,,,,,,,,,,,,
295822,2022-11-29_23h05.32.415,vts_reward_expectancy_bt,2022.2.4,MacIntel,59.99880002,Chrome,1440,900,,,,,0,693,,,,,,,,,,,,,,,,,132,Y,hexagon,1,0,,,2,,,,,,,,,,,,,switch,number,numSwt,d,vtsPrac,20,0,20,0,1,1.1469,,,,,,,,,,,,,,,,,,,,,,,
295822,2022-11-29_23h05.32.415,vts_reward_expectancy_bt,2022.2.4,MacIntel,59.99880002,Chrome,1440,900,,,,,0,693,,,,,,,,,,,,,,,,,160,F,star,1,0,,,2,,,,,,,,,,,,,repeat,number,numRpt,f,vtsPrac,21,0,21,0,1,1.0992,,,,,,,,,,,,,,,,,,,,,,,
295822,2022-11-29_23h05.32.415,vts_reward_expectancy_bt,2022.2.4,MacIntel,59.99880002,Chrome,1440,900,,,,,0,693,,,,,,,,,,,,,,,,,167,D,circle,1,0,,,2,,,,,,,,,,,,,repeat,number,numRpt,f,vtsPrac,22,0,22,0,1,2.724,,,,,,,,,,,,,,,,,,,,,,,
295822,2022-11-29_23h05.32.415,vts_reward_expectancy_bt,2022.2.4,MacIntel,59.99880002,Chrome,1440,900,,,,,0,693,,,,,,,,,,,,,,,,,146,W,triangle,1,0,,,2,,,,,,,,,,,,,switch,letter,lettSwt,k,vtsPrac,23,0,23,0,1,0.5676,,,,,,,,,,,,,,,,,,,,,,,
295822,2022-11-29_23h05.32.415,vts_reward_expectancy_bt,2022.2.4,MacIntel,59.99880002,Chrome,1440,900,,,,,0,693,,,,,,,,,,,,,,,,,132,W,hexagon,1,0,,,2,,,,,,,,,,,,,switch,number,numSwt,d,vtsPrac,24,0,24,0,1,0.7695,,,,,,,,,,,,,,,,,,,,,,,
295822,2022-11-29_23h05.32.415,vts_reward_expectancy_bt,2022.2.4,MacIntel,59.99880002,Chrome,1440,900,,,,,0,693,,,,,,,,,,,,,,,,,160,S,circle,1,0,,,2,,,,,,,,,,,,,repeat,number,numRpt,f,vtsPrac,25,0,25,0,1,1.0805,,,,,,,,,,,,,,,,,,,,,,,
295822,2022-11-29_23h05.32.415,vts_reward_expectancy_bt,2022.2.4,MacIntel,59.99880002,Chrome,1440,900,,,,,0,693,,,,,,,,,,,,,,,,,181,Y,triangle,1,0,,,2,,,,,,,,,,,,,switch,letter,lettSwt,k,vtsPrac,26,0,26,0,1,0.7656,,,,,,,,,,,,,,,,,,,,,,,
295822,2022-11-29_23h05.32.415,vts_reward_expectancy_bt,2022.2.4,MacIntel,59.99880002,Chrome,1440,900,,,,,0,693,,,,,,,,,,,,,,,,,167,B,star,1,0,,,2,,,,,,,,,,,,,repeat,letter,lettRpt,j,vtsPrac,27,0,27,0,1,1.0611,,,,,,,,,,,,,,,,,,,,,,,
295822,2022-11-29_23h05.32.415,vts_reward_expectancy_bt,2022.2.4,MacIntel,59.99880002,Chrome,1440,900,,,,,0,693,,,,,,,,,,,,,,,,,139,W,triangle,1,0,,,2,,,,,,,,,,,,,repeat,letter,lettRpt,k,vtsPrac,28,0,28,0,1,0.9623,,,,,,,,,,,,,,,,,,,,,,,
295822,2022-11-29_23h05.32.415,vts_reward_expectancy_bt,2022.2.4,MacIntel,59.99880002,Chrome,1440,900,,,,,0,693,,,,,,,,,,,,,,,,,167,U,star,1,0,,,2,,,,,,,,,,,,,switch,number,numSwt,f,vtsPrac,29,0,29,0,1,1.3317,,,,,,,,,,,,,,,,,,,,,,,
295822,2022-11-29_23h05.32.415,vts_reward_expectancy_bt,2022.2.4,MacIntel,59.99880002,Chrome,1440,900,,,,,0,693,,,,,,,,,,,,,,,,,181,B,star,1,0,,,2,,,,,,,,,,,,,repeat,number,numRpt,f,vtsPrac,30,0,30,0,1,1.8034,,,,,,,,,,,,,,,,,,,,,,,
295822,2022-11-29_23h05.32.415,vts_reward_expectancy_bt,2022.2.4,MacIntel,59.99880002,Chrome,1440,900,,,,,0,693,,,,,,,,,,,,,,,,,160,F,triangle,1,0,,,2,,,,,,,,,,,,,switch,letter,lettSwt,j,vtsPrac,31,0,31,0,1,1.4484,,,,,,,,,,,,,,,,,,,,,,,
295822,2022-11-29_23h05.32.415,vts_reward_expectancy_bt,2022.2.4,MacIntel,59.99880002,Chrome,1440,900,,,,,0,693,,,,,,,,,,,,,,,,,139,F,triangle,1,0,,,3,,,,,,,,,,,,,switch,number,numSwt,d,vtsPrac,0,0,0,0,1,1.4854,,,,,,,,,,,,,,,,,,,,,,,
295822,2022-11-29_23h05.32.415,vts_reward_expectancy_bt,2022.2.4,MacIntel,59.99880002,Chrome,1440,900,,,,,0,693,,,,,,,,,,,,,,,,,167,S,circle,1,0,,,3,,,,,,,,,,,,,switch,letter,lettSwt,k,vtsPrac,1,0,1,0,1,0.7791,,,,,,,,,,,,,,,,,,,,,,,
295822,2022-11-29_23h05.32.415,vts_reward_expectancy_bt,2022.2.4,MacIntel,59.99880002,Chrome,1440,900,,,,,0,693,,,,,,,,,,,,,,,,,174,W,triangle,1,0,,,3,,,,,,,,,,,,,switch,number,numSwt,f,vtsPrac,2,0,2,0,1,0.7622,,,,,,,,,,,,,,,,,,,,,,,
295822,2022-11-29_23h05.32.415,vts_reward_expectancy_bt,2022.2.4,MacIntel,59.99880002,Chrome,1440,900,,,,,0,693,,,,,,,,,,,,,,,,,160,U,circle,1,0,,,3,,,,,,,,,,,,,switch,letter,lettSwt,k,vtsPrac,3,0,3,0,1,0.5809,,,,,,,,,,,,,,,,,,,,,,,
295822,2022-11-29_23h05.32.415,vts_reward_expectancy_bt,2022.2.4,MacIntel,59.99880002,Chrome,1440,900,,,,,0,693,,,,,,,,,,,,,,,,,139,F,star,1,0,,,3,,,,,,,,,,,,,switch,number,numSwt,d,vtsPrac,4,0,4,0,1,0.6357,,,,,,,,,,,,,,,,,,,,,,,
295822,2022-11-29_23h05.32.415,vts_reward_expectancy_bt,2022.2.4,MacIntel,59.99880002,Chrome,1440,900,,,,,0,693,,,,,,,,,,,,,,,,,167,S,triangle,1,0,,,3,,,,,,,,,,,,,switch,letter,lettSwt,k,vtsPrac,5,0,5,0,1,1.1541,,,,,,,,,,,,,,,,,,,,,,,
295822,2022-11-29_23h05.32.415,vts_reward_expectancy_bt,2022.2.4,MacIntel,59.99880002,Chrome,1440,900,,,,,0,693,,,,,,,,,,,,,,,,,174,W,hexagon,1,0,,,3,,,,,,,,,,,,,switch,number,numSwt,f,vtsPrac,6,0,6,0,1,1.1155,,,,,,,,,,,,,,,,,,,,,,,
295822,2022-11-29_23h05.32.415,vts_reward_expectancy_bt,2022.2.4,MacIntel,59.99880002,Chrome,1440,900,,,,,0,693,,,,,,,,,,,,,,,,,160,U,circle,1,0,,,3,,,,,,,,,,,,,switch,letter,lettSwt,k,vtsPrac,7,0,7,0,1,1.0645,,,,,,,,,,,,,,,,,,,,,,,
295822,2022-11-29_23h05.32.415,vts_reward_expectancy_bt,2022.2.4,MacIntel,59.99880002,Chrome,1440,900,,,,,0,693,,,,,,,,,,,,,,,,,139,S,star,1,0,,,3,,,,,,,,,,,,,switch,number,numSwt,d,vtsPrac,8,0,8,0,1,1.8397,,,,,,,,,,,,,,,,,,,,,,,
295822,2022-11-29_23h05.32.415,vts_reward_expectancy_bt,2022.2.4,MacIntel,59.99880002,Chrome,1440,900,,,,,0,693,,,,,,,,,,,,,,,,,125,F,triangle,1,0,,,3,,,,,,,,,,,,,repeat,number,numRpt,d,vtsPrac,9,0,9,0,1,0.9353,,,,,,,,,,,,,,,,,,,,,,,
295822,2022-11-29_23h05.32.415,vts_reward_expectancy_bt,2022.2.4,MacIntel,59.99880002,Chrome,1440,900,,,,,0,693,,,,,,,,,,,,,,,,,167,H,hexagon,0,0,,,3,,,,,,,,,,,,,switch,letter,NA,k,vtsPrac,10,0,10,0,1,2.7565,,,,,,,,,,,,,,,,,,,,,,,
295822,2022-11-29_23h05.32.415,vts_reward_expectancy_bt,2022.2.4,MacIntel,59.99880002,Chrome,1440,900,,,,,0,693,,,,,,,,,,,,,,,,,174,W,circle,1,1,,,3,,,,,,,,,,,,,repeat,letter,lettRpt,k,vtsPrac,11,0,11,0,1,1.479,,,,,,,,,,,,,,,,,,,,,,,
295822,2022-11-29_23h05.32.415,vts_reward_expectancy_bt,2022.2.4,MacIntel,59.99880002,Chrome,1440,900,,,,,0,693,,,,,,,,,,,,,,,,,146,Y,hexagon,1,0,,,3,,,,,,,,,,,,,switch,number,numSwt,d,vtsPrac,12,0,12,0,1,1.1186,,,,,,,,,,,,,,,,,,,,,,,
295822,2022-11-29_23h05.32.415,vts_reward_expectancy_bt,2022.2.4,MacIntel,59.99880002,Chrome,1440,900,,,,,0,693,,,,,,,,,,,,,,,,,160,B,circle,1,0,,,3,,,,,,,,,,,,,repeat,number,numRpt,f,vtsPrac,13,0,13,0,1,1.8949,,,,,,,,,,,,,,,,,,,,,,,
295822,2022-11-29_23h05.32.415,vts_reward_expectancy_bt,2022.2.4,MacIntel,59.99880002,Chrome,1440,900,,,,,0,693,,,,,,,,,,,,,,,,,167,H,hexagon,1,0,,,3,,,,,,,,,,,,,switch,letter,lettSwt,j,vtsPrac,14,0,14,0,1,1.6501,,,,,,,,,,,,,,,,,,,,,,,
295822,2022-11-29_23h05.32.415,vts_reward_expectancy_bt,2022.2.4,MacIntel,59.99880002,Chrome,1440,900,,,,,0,693,,,,,,,,,,,,,,,,,132,U,star,1,0,,,3,,,,,,,,,,,,,repeat,letter,lettRpt,k,vtsPrac,15,0,15,0,1,0.9369,,,,,,,,,,,,,,,,,,,,,,,
295822,2022-11-29_23h05.32.415,vts_reward_expectancy_bt,2022.2.4,MacIntel,59.99880002,Chrome,1440,900,,,,,0,693,,,,,,,,,,,,,,,,,125,W,triangle,1,0,,,3,,,,,,,,,,,,,switch,number,numSwt,d,vtsPrac,16,0,16,0,1,1.1711,,,,,,,,,,,,,,,,,,,,,,,
295822,2022-11-29_23h05.32.415,vts_reward_expectancy_bt,2022.2.4,MacIntel,59.99880002,Chrome,1440,900,,,,,0,693,,,,,,,,,,,,,,,,,139,S,star,1,0,,,3,,,,,,,,,,,,,repeat,number,numRpt,d,vtsPrac,17,0,17,0,1,0.829,,,,,,,,,,,,,,,,,,,,,,,
295822,2022-11-29_23h05.32.415,vts_reward_expectancy_bt,2022.2.4,MacIntel,59.99880002,Chrome,1440,900,,,,,0,693,,,,,,,,,,,,,,,,,146,H,triangle,1,0,,,3,,,,,,,,,,,,,switch,letter,lettSwt,j,vtsPrac,18,0,18,0,1,0.9831,,,,,,,,,,,,,,,,,,,,,,,
295822,2022-11-29_23h05.32.415,vts_reward_expectancy_bt,2022.2.4,MacIntel,59.99880002,Chrome,1440,900,,,,,0,693,,,,,,,,,,,,,,,,,181,F,circle,1,0,,,3,,,,,,,,,,,,,switch,number,numSwt,f,vtsPrac,19,0,19,0,1,1.3949,,,,,,,,,,,,,,,,,,,,,,,
295822,2022-11-29_23h05.32.415,vts_reward_expectancy_bt,2022.2.4,MacIntel,59.99880002,Chrome,1440,900,,,,,0,693,,,,,,,,,,,,,,,,,174,B,circle,1,0,,,3,,,,,,,,,,,,,switch,letter,lettSwt,j,vtsPrac,20,0,20,0,1,0.9231,,,,,,,,,,,,,,,,,,,,,,,
295822,2022-11-29_23h05.32.415,vts_reward_expectancy_bt,2022.2.4,MacIntel,59.99880002,Chrome,1440,900,,,,,0,693,,,,,,,,,,,,,,,,,167,H,triangle,0,0,,,3,,,,,,,,,,,,,switch,number,NA,d,vtsPrac,21,0,21,0,1,1.0783,,,,,,,,,,,,,,,,,,,,,,,
295822,2022-11-29_23h05.32.415,vts_reward_expectancy_bt,2022.2.4,MacIntel,59.99880002,Chrome,1440,900,,,,,0,693,,,,,,,,,,,,,,,,,125,Y,star,1,1,,,3,,,,,,,,,,,,,switch,letter,lettSwt,k,vtsPrac,22,0,22,0,1,0.8643,,,,,,,,,,,,,,,,,,,,,,,
295822,2022-11-29_23h05.32.415,vts_reward_expectancy_bt,2022.2.4,MacIntel,59.99880002,Chrome,1440,900,,,,,0,693,,,,,,,,,,,,,,,,,160,S,triangle,0,0,,,3,,,,,,,,,,,,,switch,number,NA,d,vtsPrac,23,0,23,0,1,1.4199,,,,,,,,,,,,,,,,,,,,,,,
295822,2022-11-29_23h05.32.415,vts_reward_expectancy_bt,2022.2.4,MacIntel,59.99880002,Chrome,1440,900,,,,,0,693,,,,,,,,,,,,,,,,,167,F,triangle,1,1,,,3,,,,,,,,,,,,,switch,letter,lettSwt,j,vtsPrac,24,0,24,0,1,1.9619,,,,,,,,,,,,,,,,,,,,,,,
295822,2022-11-29_23h05.32.415,vts_reward_expectancy_bt,2022.2.4,MacIntel,59.99880002,Chrome,1440,900,,,,,0,693,,,,,,,,,,,,,,,,,160,B,hexagon,1,0,,,3,,,,,,,,,,,,,switch,number,numSwt,f,vtsPrac,25,0,25,0,1,2.183,,,,,,,,,,,,,,,,,,,,,,,
295822,2022-11-29_23h05.32.415,vts_reward_expectancy_bt,2022.2.4,MacIntel,59.99880002,Chrome,1440,900,,,,,0,693,,,,,,,,,,,,,,,,,146,S,triangle,1,0,,,3,,,,,,,,,,,,,repeat,number,numRpt,d,vtsPrac,26,0,26,0,1,1.378,,,,,,,,,,,,,,,,,,,,,,,
295822,2022-11-29_23h05.32.415,vts_reward_expectancy_bt,2022.2.4,MacIntel,59.99880002,Chrome,1440,900,,,,,0,693,,,,,,,,,,,,,,,,,181,D,star,1,0,,,3,,,,,,,,,,,,,switch,letter,lettSwt,j,vtsPrac,27,0,27,0,1,1.4536,,,,,,,,,,,,,,,,,,,,,,,
295822,2022-11-29_23h05.32.415,vts_reward_expectancy_bt,2022.2.4,MacIntel,59.99880002,Chrome,1440,900,,,,,0,693,,,,,,,,,,,,,,,,,174,W,circle,1,0,,,3,,,,,,,,,,,,,repeat,letter,lettRpt,k,vtsPrac,28,0,28,0,1,0.7132,,,,,,,,,,,,,,,,,,,,,,,
295822,2022-11-29_23h05.32.415,vts_reward_expectancy_bt,2022.2.4,MacIntel,59.99880002,Chrome,1440,900,,,,,0,693,,,,,,,,,,,,,,,,,167,Y,star,1,0,,,3,,,,,,,,,,,,,switch,number,numSwt,f,vtsPrac,29,0,29,0,1,0.8968,,,,,,,,,,,,,,,,,,,,,,,
295822,2022-11-29_23h05.32.415,vts_reward_expectancy_bt,2022.2.4,MacIntel,59.99880002,Chrome,1440,900,,,,,0,693,,,,,,,,,,,,,,,,,181,H,triangle,1,0,,,3,,,,,,,,,,,,,switch,letter,lettSwt,j,vtsPrac,30,0,30,0,1,2.6829,,,,,,,,,,,,,,,,,,,,,,,
295822,2022-11-29_23h05.32.415,vts_reward_expectancy_bt,2022.2.4,MacIntel,59.99880002,Chrome,1440,900,,,,,0,693,,,,,,,,,,,,,,,,,139,B,hexagon,1,0,,,3,,,,,,,,,,,,,switch,number,numSwt,d,vtsPrac,31,0,31,0,1,0.8991,,,,,,,,,,,,,,,,,,,,,,,
295822,2022-11-29_23h05.32.415,vts_reward_expectancy_bt,2022.2.4,MacIntel,59.99880002,Chrome,1440,900,,,,,,,,,,,,,,,,,,,,,,,,,,,,,,,,,,,,,,,,,,,,,,,,,,,,,,,,,,,,,,,,,,,,,,,,,,,,
295822,2022-11-29_23h05.32.415,vts_reward_expectancy_bt,2022.2.4,MacIntel,59.99880002,Chrome,1440,900,,,,,,,,,,,,,,,,,,,,,,,,,,,,,,,,,,,,,,,,,,,,,,,,,,,,,,,,,,,,,,,,,,,,,,,,,,,,
295822,2022-11-29_23h05.32.415,vts_reward_expectancy_bt,2022.2.4,MacIntel,59.99880002,Chrome,1440,900,,,,,0,693,,,,,,,,,,,,,,,,,139,W,hexagon,1,0,,,,,,,,,,,,,,,,repeat,number,numRpt,d,noRew,,,,,,2.6674,0,0,0,0,0,1,,,,,,,,,,,,,,,,,
295822,2022-11-29_23h05.32.415,vts_reward_expectancy_bt,2022.2.4,MacIntel,59.99880002,Chrome,1440,900,,,,,0,693,,,,,,,,,,,,,,,,,174,S,star,1,0,,,,,,,,,,,,,,,,repeat,number,numRpt,f,noRew,,,,,,2.2477,0,1,0,1,0,1,,,,,,,,,,,,,,,,,
295822,2022-11-29_23h05.32.415,vts_reward_expectancy_bt,2022.2.4,MacIntel,59.99880002,Chrome,1440,900,,,,,0,693,,,,,,,,,,,,,,,,,125,Y,hexagon,1,0,,,,,,,,,,,,,,,,repeat,number,numRpt,d,noRew,,,,,,1.5802,0,2,0,2,0,1,,,,,,,,,,,,,,,,,
295822,2022-11-29_23h05.32.415,vts_reward_expectancy_bt,2022.2.4,MacIntel,59.99880002,Chrome,1440,900,,,,,0,693,,,,,,,,,,,,,,,,,181,H,star,1,0,,,,,,,,,,,,,,,,switch,letter,lettSwt,j,noRew,,,,,,0.9316,0,3,0,3,0,1,,,,,,,,,,,,,,,,,
295822,2022-11-29_23h05.32.415,vts_reward_expectancy_bt,2022.2.4,MacIntel,59.99880002,Chrome,1440,900,,,,,0,693,,,,,,,,,,,,,,,,,139,W,star,1,0,,,,,,,,,,,,,,,,repeat,letter,lettRpt,k,noRew,,,,,,0.8338,0,4,0,4,0,1,,,,,,,,,,,,,,,,,
295822,2022-11-29_23h05.32.415,vts_reward_expectancy_bt,2022.2.4,MacIntel,59.99880002,Chrome,1440,900,,,,,0,693,,,,,,,,,,,,,,,,,174,S,circle,1,0,,,,,,,,,,,,,,,,repeat,letter,lettRpt,k,noRew,,,,,,2.516,0,5,0,5,0,1,,,,,,,,,,,,,,,,,
295822,2022-11-29_23h05.32.415,vts_reward_expectancy_bt,2022.2.4,MacIntel,59.99880002,Chrome,1440,900,,,,,0,693,,,,,,,,,,,,,,,,,125,Y,triangle,1,0,,,,,,,,,,,,,,,,switch,number,numSwt,d,noRew,,,,,,0.6665,0,6,0,6,0,1,,,,,,,,,,,,,,,,,
295822,2022-11-29_23h05.32.415,vts_reward_expectancy_bt,2022.2.4,MacIntel,59.99880002,Chrome,1440,900,,,,,0,693,,,,,,,,,,,,,,,,,181,H,circle,1,0,,,,,,,,,,,,,,,,switch,letter,lettSwt,j,noRew,,,,,,1.382,0,7,0,7,0,1,,,,,,,,,,,,,,,,,
295822,2022-11-29_23h05.32.415,vts_reward_expectancy_bt,2022.2.4,MacIntel,59.99880002,Chrome,1440,900,,,,,0,693,,,,,,,,,,,,,,,,,125,D,star,1,0,,,,,,,,,,,,,,,,switch,number,numSwt,d,noRew,,,,,,1.75,0,8,0,8,0,1,,,,,,,,,,,,,,,,,
295822,2022-11-29_23h05.32.415,vts_reward_expectancy_bt,2022.2.4,MacIntel,59.99880002,Chrome,1440,900,,,,,0,693,,,,,,,,,,,,,,,,,132,F,triangle,1,0,,,,,,,,,,,,,,,,repeat,number,numRpt,d,noRew,,,,,,1.187,0,9,0,9,0,1,,,,,,,,,,,,,,,,,
295822,2022-11-29_23h05.32.415,vts_reward_expectancy_bt,2022.2.4,MacIntel,59.99880002,Chrome,1440,900,,,,,0,693,,,,,,,,,,,,,,,,,146,W,hexagon,1,0,,,,,,,,,,,,,,,,switch,letter,lettSwt,k,noRew,,,,,,2.899,0,10,0,10,0,1,,,,,,,,,,,,,,,,,
295822,2022-11-29_23h05.32.415,vts_reward_expectancy_bt,2022.2.4,MacIntel,59.99880002,Chrome,1440,900,,,,,0,693,,,,,,,,,,,,,,,,,174,S,star,1,0,,,,,,,,,,,,,,,,repeat,letter,lettRpt,k,noRew,,,,,,1.5644,0,11,0,11,0,1,,,,,,,,,,,,,,,,,
295822,2022-11-29_23h05.32.415,vts_reward_expectancy_bt,2022.2.4,MacIntel,59.99880002,Chrome,1440,900,,,,,0,693,,,,,,,,,,,,,,,,,146,D,triangle,1,0,,,,,,,,,,,,,,,,switch,number,numSwt,d,noRew,,,,,,2.4978,0,12,0,12,0,1,,,,,,,,,,,,,,,,,
295822,2022-11-29_23h05.32.415,vts_reward_expectancy_bt,2022.2.4,MacIntel,59.99880002,Chrome,1440,900,,,,,0,693,,,,,,,,,,,,,,,,,132,H,star,1,0,,,,,,,,,,,,,,,,repeat,number,numRpt,d,noRew,,,,,,0.7557,0,13,0,13,0,1,,,,,,,,,,,,,,,,,
295822,2022-11-29_23h05.32.415,vts_reward_expectancy_bt,2022.2.4,MacIntel,59.99880002,Chrome,1440,900,,,,,0,693,,,,,,,,,,,,,,,,,139,F,hexagon,1,0,,,,,,,,,,,,,,,,repeat,number,numRpt,d,noRew,,,,,,1.9831,0,14,0,14,0,1,,,,,,,,,,,,,,,,,
295822,2022-11-29_23h05.32.415,vts_reward_expectancy_bt,2022.2.4,MacIntel,59.99880002,Chrome,1440,900,,,,,0,693,,,,,,,,,,,,,,,,,181,B,star,1,0,,,,,,,,,,,,,,,,switch,letter,lettSwt,j,noRew,,,,,,2.1718,0,15,0,15,0,1,,,,,,,,,,,,,,,,,
295822,2022-11-29_23h05.32.415,vts_reward_expectancy_bt,2022.2.4,MacIntel,59.99880002,Chrome,1440,900,,,,,0,693,,,,,,,,,,,,,,,,,174,B,triangle,1,0,,,,,,,,,,,,,,,,repeat,letter,lettRpt,j,noRew,,,,,,1.833,0,16,0,16,0,1,,,,,,,,,,,,,,,,,
295822,2022-11-29_23h05.32.415,vts_reward_expectancy_bt,2022.2.4,MacIntel,59.99880002,Chrome,1440,900,,,,,0,693,,,,,,,,,,,,,,,,,125,W,star,1,0,,,,,,,,,,,,,,,,repeat,letter,lettRpt,k,noRew,,,,,,1.4522,0,17,0,17,0,1,,,,,,,,,,,,,,,,,
295822,2022-11-29_23h05.32.415,vts_reward_expectancy_bt,2022.2.4,MacIntel,59.99880002,Chrome,1440,900,,,,,0,693,,,,,,,,,,,,,,,,,181,Y,star,1,0,,,,,,,,,,,,,,,,repeat,letter,lettRpt,k,noRew,,,,,,0.7325,0,18,0,18,0,1,,,,,,,,,,,,,,,,,
295822,2022-11-29_23h05.32.415,vts_reward_expectancy_bt,2022.2.4,MacIntel,59.99880002,Chrome,1440,900,,,,,0,693,,,,,,,,,,,,,,,,,139,S,hexagon,1,0,,,,,,,,,,,,,,,,switch,number,numSwt,d,noRew,,,,,,0.9486,0,19,0,19,0,1,,,,,,,,,,,,,,,,,
295822,2022-11-29_23h05.32.415,vts_reward_expectancy_bt,2022.2.4,MacIntel,59.99880002,Chrome,1440,900,,,,,0,693,,,,,,,,,,,,,,,,,146,Y,hexagon,1,0,,,,,,,,,,,,,,,,repeat,number,numRpt,d,noRew,,,,,,1.2288,0,20,0,20,0,1,,,,,,,,,,,,,,,,,
295822,2022-11-29_23h05.32.415,vts_reward_expectancy_bt,2022.2.4,MacIntel,59.99880002,Chrome,1440,900,,,,,0,693,,,,,,,,,,,,,,,,,139,H,star,1,0,,,,,,,,,,,,,,,,repeat,number,numRpt,d,noRew,,,,,,2.1195,0,21,0,21,0,1,,,,,,,,,,,,,,,,,
295822,2022-11-29_23h05.32.415,vts_reward_expectancy_bt,2022.2.4,MacIntel,59.99880002,Chrome,1440,900,,,,,0,693,,,,,,,,,,,,,,,,,125,D,star,1,0,,,,,,,,,,,,,,,,switch,letter,lettSwt,j,noRew,,,,,,0.8133,0,22,0,22,0,1,,,,,,,,,,,,,,,,,
295822,2022-11-29_23h05.32.415,vts_reward_expectancy_bt,2022.2.4,MacIntel,59.99880002,Chrome,1440,900,,,,,0,693,,,,,,,,,,,,,,,,,132,F,hexagon,1,0,,,,,,,,,,,,,,,,repeat,letter,lettRpt,j,noRew,,,,,,0.7791,0,23,0,23,0,1,,,,,,,,,,,,,,,,,
295822,2022-11-29_23h05.32.415,vts_reward_expectancy_bt,2022.2.4,MacIntel,59.99880002,Chrome,1440,900,,,,,0,693,,,,,,,,,,,,,,,,,167,U,circle,1,0,,,,,,,,,,,,,,,,repeat,letter,lettRpt,k,noRew,,,,,,1.5333,0,24,0,24,0,1,,,,,,,,,,,,,,,,,
295822,2022-11-29_23h05.32.415,vts_reward_expectancy_bt,2022.2.4,MacIntel,59.99880002,Chrome,1440,900,,,,,0,693,,,,,,,,,,,,,,,,,160,D,hexagon,1,0,,,,,,,,,,,,,,,,switch,number,numSwt,f,noRew,,,,,,1.2482,0,25,0,25,0,1,,,,,,,,,,,,,,,,,
295822,2022-11-29_23h05.32.415,vts_reward_expectancy_bt,2022.2.4,MacIntel,59.99880002,Chrome,1440,900,,,,,0,693,,,,,,,,,,,,,,,,,132,F,hexagon,-1,0,,,,,,,,,,,,,,,,switch,no_choice,NA,,noRew,,,,,,,0,26,0,26,0,1,,,,,,,,,,,,,,,,,
295822,2022-11-29_23h05.32.415,vts_reward_expectancy_bt,2022.2.4,MacIntel,59.99880002,Chrome,1440,900,,,,,0,693,,,,,,,,,,,,,,,,,174,B,circle,1,0,,,,,,,,,,,,,,,,switch,number,numSwt,f,noRew,,,,,,1.1824,0,27,0,27,0,1,,,,,,,,,,,,,,,,,
295822,2022-11-29_23h05.32.415,vts_reward_expectancy_bt,2022.2.4,MacIntel,59.99880002,Chrome,1440,900,,,,,0,693,,,,,,,,,,,,,,,,,132,U,triangle,1,0,,,,,,,,,,,,,,,,switch,letter,lettSwt,k,noRew,,,,,,2.4149,0,28,0,28,0,1,,,,,,,,,,,,,,,,,
295822,2022-11-29_23h05.32.415,vts_reward_expectancy_bt,2022.2.4,MacIntel,59.99880002,Chrome,1440,900,,,,,0,693,,,,,,,,,,,,,,,,,160,Y,hexagon,1,0,,,,,,,,,,,,,,,,switch,number,numSwt,f,noRew,,,,,,1.9677,0,29,0,29,0,1,,,,,,,,,,,,,,,,,
295822,2022-11-29_23h05.32.415,vts_reward_expectancy_bt,2022.2.4,MacIntel,59.99880002,Chrome,1440,900,,,,,0,693,,,,,,,,,,,,,,,,,167,H,hexagon,1,0,,,,,,,,,,,,,,,,switch,letter,lettSwt,j,noRew,,,,,,1.7461,0,30,0,30,0,1,,,,,,,,,,,,,,,,,
295822,2022-11-29_23h05.32.415,vts_reward_expectancy_bt,2022.2.4,MacIntel,59.99880002,Chrome,1440,900,,,,,0,693,,,,,,,,,,,,,,,,,181,D,circle,-1,0,,,,,,,,,,,,,,,,switch,no_choice,NA,,noRew,,,,,,,0,31,0,31,0,1,,,,,,,,,,,,,,,,,
295822,2022-11-29_23h05.32.415,vts_reward_expectancy_bt,2022.2.4,MacIntel,59.99880002,Chrome,1440,900,,,,,0,693,,,,,,,,,,,,,,,,,160,W,triangle,1,0,,,,,,,,,,,,,,,,switch,letter,lettSwt,k,noRew,,,,,,1.3957,0,32,0,32,0,1,,,,,,,,,,,,,,,,,
295822,2022-11-29_23h05.32.415,vts_reward_expectancy_bt,2022.2.4,MacIntel,59.99880002,Chrome,1440,900,,,,,0,693,,,,,,,,,,,,,,,,,125,Y,circle,1,0,,,,,,,,,,,,,,,,switch,number,numSwt,d,noRew,,,,,,1.3621,0,33,0,33,0,1,,,,,,,,,,,,,,,,,
295822,2022-11-29_23h05.32.415,vts_reward_expectancy_bt,2022.2.4,MacIntel,59.99880002,Chrome,1440,900,,,,,0,693,,,,,,,,,,,,,,,,,174,U,hexagon,1,0,,,,,,,,,,,,,,,,switch,letter,lettSwt,k,noRew,,,,,,1.0891,0,34,0,34,0,1,,,,,,,,,,,,,,,,,
295822,2022-11-29_23h05.32.415,vts_reward_expectancy_bt,2022.2.4,MacIntel,59.99880002,Chrome,1440,900,,,,,0,693,,,,,,,,,,,,,,,,,139,B,star,-1,0,,,,,,,,,,,,,,,,switch,no_choice,NA,,noRew,,,,,,,0,35,0,35,0,1,,,,,,,,,,,,,,,,,
295822,2022-11-29_23h05.32.415,vts_reward_expectancy_bt,2022.2.4,MacIntel,59.99880002,Chrome,1440,900,,,,,0,693,,,,,,,,,,,,,,,,,160,Y,star,1,0,,,,,,,,,,,,,,,,switch,letter,lettSwt,k,noRew,,,,,,0.6132,0,36,0,36,0,1,,,,,,,,,,,,,,,,,
295822,2022-11-29_23h05.32.415,vts_reward_expectancy_bt,2022.2.4,MacIntel,59.99880002,Chrome,1440,900,,,,,0,693,,,,,,,,,,,,,,,,,125,B,circle,1,0,,,,,,,,,,,,,,,,repeat,letter,lettRpt,j,noRew,,,,,,1.2546,0,37,0,37,0,1,,,,,,,,,,,,,,,,,
295822,2022-11-29_23h05.32.415,vts_reward_expectancy_bt,2022.2.4,MacIntel,59.99880002,Chrome,1440,900,,,,,0,693,,,,,,,,,,,,,,,,,139,H,star,1,0,,,,,,,,,,,,,,,,switch,number,numSwt,d,noRew,,,,,,1.611,0,38,0,38,0,1,,,,,,,,,,,,,,,,,
295822,2022-11-29_23h05.32.415,vts_reward_expectancy_bt,2022.2.4,MacIntel,59.99880002,Chrome,1440,900,,,,,0,693,,,,,,,,,,,,,,,,,181,F,triangle,1,0,,,,,,,,,,,,,,,,repeat,number,numRpt,f,noRew,,,,,,1.3478,0,39,0,39,0,1,,,,,,,,,,,,,,,,,
295822,2022-11-29_23h05.32.415,vts_reward_expectancy_bt,2022.2.4,MacIntel,59.99880002,Chrome,1440,900,,,,,0,693,,,,,,,,,,,,,,,,,160,U,hexagon,1,0,,,,,,,,,,,,,,,,switch,letter,lettSwt,k,noRew,,,,,,1.4866,0,40,0,40,0,1,,,,,,,,,,,,,,,,,
295822,2022-11-29_23h05.32.415,vts_reward_expectancy_bt,2022.2.4,MacIntel,59.99880002,Chrome,1440,900,,,,,0,693,,,,,,,,,,,,,,,,,125,Y,triangle,1,0,,,,,,,,,,,,,,,,switch,number,numSwt,d,noRew,,,,,,0.8494,0,41,0,41,0,1,,,,,,,,,,,,,,,,,
295822,2022-11-29_23h05.32.415,vts_reward_expectancy_bt,2022.2.4,MacIntel,59.99880002,Chrome,1440,900,,,,,0,693,,,,,,,,,,,,,,,,,167,W,star,1,0,,,,,,,,,,,,,,,,repeat,number,numRpt,f,noRew,,,,,,1.5554,0,42,0,42,0,1,,,,,,,,,,,,,,,,,
295822,2022-11-29_23h05.32.415,vts_reward_expectancy_bt,2022.2.4,MacIntel,59.99880002,Chrome,1440,900,,,,,0,693,,,,,,,,,,,,,,,,,139,S,hexagon,1,0,,,,,,,,,,,,,,,,switch,letter,lettSwt,k,noRew,,,,,,1.2486,0,43,0,43,0,1,,,,,,,,,,,,,,,,,
295822,2022-11-29_23h05.32.415,vts_reward_expectancy_bt,2022.2.4,MacIntel,59.99880002,Chrome,1440,900,,,,,0,693,,,,,,,,,,,,,,,,,160,F,triangle,1,0,,,,,,,,,,,,,,,,repeat,letter,lettRpt,j,noRew,,,,,,1.5718,0,44,0,44,0,1,,,,,,,,,,,,,,,,,
295822,2022-11-29_23h05.32.415,vts_reward_expectancy_bt,2022.2.4,MacIntel,59.99880002,Chrome,1440,900,,,,,0,693,,,,,,,,,,,,,,,,,139,W,hexagon,1,0,,,,,,,,,,,,,,,,repeat,letter,lettRpt,k,noRew,,,,,,2.9125,0,45,0,45,0,1,,,,,,,,,,,,,,,,,
295822,2022-11-29_23h05.32.415,vts_reward_expectancy_bt,2022.2.4,MacIntel,59.99880002,Chrome,1440,900,,,,,0,693,,,,,,,,,,,,,,,,,132,U,hexagon,1,0,,,,,,,,,,,,,,,,switch,number,numSwt,d,noRew,,,,,,2.8319,0,46,0,46,0,1,,,,,,,,,,,,,,,,,
295822,2022-11-29_23h05.32.415,vts_reward_expectancy_bt,2022.2.4,MacIntel,59.99880002,Chrome,1440,900,,,,,0,693,,,,,,,,,,,,,,,,,125,B,star,-1,0,,,,,,,,,,,,,,,,switch,no_choice,NA,,noRew,,,,,,,0,47,0,47,0,1,,,,,,,,,,,,,,,,,
295822,2022-11-29_23h05.32.415,vts_reward_expectancy_bt,2022.2.4,MacIntel,59.99880002,Chrome,1440,900,,,,,0,693,,,,,,,,,,,,,,,,,160,H,star,0,0,,,,,,,,,,,,,,,,switch,letter,NA,k,noRew,,,,,,0.7501,0,48,0,48,0,1,,,,,,,,,,,,,,,,,
295822,2022-11-29_23h05.32.415,vts_reward_expectancy_bt,2022.2.4,MacIntel,59.99880002,Chrome,1440,900,,,,,0,693,,,,,,,,,,,,,,,,,125,U,triangle,1,1,,,,,,,,,,,,,,,,repeat,letter,lettRpt,k,noRew,,,,,,0.5993,0,49,0,49,0,1,,,,,,,,,,,,,,,,,
295822,2022-11-29_23h05.32.415,vts_reward_expectancy_bt,2022.2.4,MacIntel,59.99880002,Chrome,1440,900,,,,,0,693,,,,,,,,,,,,,,,,,167,Y,star,1,0,,,,,,,,,,,,,,,,switch,number,numSwt,f,noRew,,,,,,2.4646,0,50,0,50,0,1,,,,,,,,,,,,,,,,,
295822,2022-11-29_23h05.32.415,vts_reward_expectancy_bt,2022.2.4,MacIntel,59.99880002,Chrome,1440,900,,,,,0,693,,,,,,,,,,,,,,,,,181,W,triangle,1,0,,,,,,,,,,,,,,,,repeat,number,numRpt,f,noRew,,,,,,1.0307,0,51,0,51,0,1,,,,,,,,,,,,,,,,,
295822,2022-11-29_23h05.32.415,vts_reward_expectancy_bt,2022.2.4,MacIntel,59.99880002,Chrome,1440,900,,,,,0,693,,,,,,,,,,,,,,,,,160,D,triangle,1,0,,,,,,,,,,,,,,,,switch,letter,lettSwt,j,noRew,,,,,,1.8163,0,52,0,52,0,1,,,,,,,,,,,,,,,,,
295822,2022-11-29_23h05.32.415,vts_reward_expectancy_bt,2022.2.4,MacIntel,59.99880002,Chrome,1440,900,,,,,0,693,,,,,,,,,,,,,,,,,181,S,hexagon,1,0,,,,,,,,,,,,,,,,switch,number,numSwt,f,noRew,,,,,,0.979,0,53,0,53,0,1,,,,,,,,,,,,,,,,,
295822,2022-11-29_23h05.32.415,vts_reward_expectancy_bt,2022.2.4,MacIntel,59.99880002,Chrome,1440,900,,,,,0,693,,,,,,,,,,,,,,,,,146,H,hexagon,1,0,,,,,,,,,,,,,,,,repeat,number,numRpt,d,noRew,,,,,,1.231,0,54,0,54,0,1,,,,,,,,,,,,,,,,,
295822,2022-11-29_23h05.32.415,vts_reward_expectancy_bt,2022.2.4,MacIntel,59.99880002,Chrome,1440,900,,,,,0,693,,,,,,,,,,,,,,,,,174,F,triangle,1,0,,,,,,,,,,,,,,,,switch,letter,lettSwt,j,noRew,,,,,,1.6647,0,55,0,55,0,1,,,,,,,,,,,,,,,,,
295822,2022-11-29_23h05.32.415,vts_reward_expectancy_bt,2022.2.4,MacIntel,59.99880002,Chrome,1440,900,,,,,0,693,,,,,,,,,,,,,,,,,139,S,triangle,1,0,,,,,,,,,,,,,,,,switch,number,numSwt,d,noRew,,,,,,1.0972,0,56,0,56,0,1,,,,,,,,,,,,,,,,,
295822,2022-11-29_23h05.32.415,vts_reward_expectancy_bt,2022.2.4,MacIntel,59.99880002,Chrome,1440,900,,,,,0,693,,,,,,,,,,,,,,,,,174,W,star,0,0,,,,,,,,,,,,,,,,repeat,number,NA,d,noRew,,,,,,2.2494,0,57,0,57,0,1,,,,,,,,,,,,,,,,,
295822,2022-11-29_23h05.32.415,vts_reward_expectancy_bt,2022.2.4,MacIntel,59.99880002,Chrome,1440,900,,,,,0,693,,,,,,,,,,,,,,,,,167,Y,star,1,1,,,,,,,,,,,,,,,,switch,letter,lettSwt,k,noRew,,,,,,1.3342,0,58,0,58,0,1,,,,,,,,,,,,,,,,,
295822,2022-11-29_23h05.32.415,vts_reward_expectancy_bt,2022.2.4,MacIntel,59.99880002,Chrome,1440,900,,,,,0,693,,,,,,,,,,,,,,,,,132,B,hexagon,-1,0,,,,,,,,,,,,,,,,switch,no_choice,NA,,noRew,,,,,,,0,59,0,59,0,1,,,,,,,,,,,,,,,,,
295822,2022-11-29_23h05.32.415,vts_reward_expectancy_bt,2022.2.4,MacIntel,59.99880002,Chrome,1440,900,,,,,0,693,,,,,,,,,,,,,,,,,132,S,triangle,0,0,,,,,,,,,,,,,,,,switch,letter,NA,j,noRew,,,,,,1.3297,0,60,0,60,0,1,,,,,,,,,,,,,,,,,
295822,2022-11-29_23h05.32.415,vts_reward_expectancy_bt,2022.2.4,MacIntel,59.99880002,Chrome,1440,900,,,,,0,693,,,,,,,,,,,,,,,,,139,W,circle,1,1,,,,,,,,,,,,,,,,repeat,letter,lettRpt,k,noRew,,,,,,2.0013,0,61,0,61,0,1,,,,,,,,,,,,,,,,,
295822,2022-11-29_23h05.32.415,vts_reward_expectancy_bt,2022.2.4,MacIntel,59.99880002,Chrome,1440,900,,,,,0,693,,,,,,,,,,,,,,,,,125,D,star,1,0,,,,,,,,,,,,,,,,switch,number,numSwt,d,noRew,,,,,,0.7486,0,62,0,62,0,1,,,,,,,,,,,,,,,,,
295822,2022-11-29_23h05.32.415,vts_reward_expectancy_bt,2022.2.4,MacIntel,59.99880002,Chrome,1440,900,,,,,0,693,,,,,,,,,,,,,,,,,160,B,hexagon,1,0,,,,,,,,,,,,,,,,repeat,number,numRpt,f,noRew,,,,,,0.7527,0,63,0,63,0,1,,,,,,,,,,,,,,,,,
295822,2022-11-29_23h05.32.415,vts_reward_expectancy_bt,2022.2.4,MacIntel,59.99880002,Chrome,1440,900,,,,,,,,,,,,,,,,,,,,,,,,,,,,,,,,,,,,,,,,,,,,,,,,,,,,,,,,,,,,,,,,,,,,,,,,,,,,
295822,2022-11-29_23h05.32.415,vts_reward_expectancy_bt,2022.2.4,MacIntel,59.99880002,Chrome,1440,900,,,,,1,694,,,,,,,,,,,,,,,,,139,S,star,1,0,,,,,,,,,,,,,,,,switch,letter,lettSwt,k,Lo,,,,,,2.3653,0,,,,,,space,14.3123,low,0,0,0,0,1,,,,,,,,,
295822,2022-11-29_23h05.32.415,vts_reward_expectancy_bt,2022.2.4,MacIntel,59.99880002,Chrome,1440,900,,,,,0,694,,,,,,,,,,,,,,,,,167,U,hexagon,1,0,,,,,,,,,,,,,,,,repeat,letter,lettRpt,k,Hi,,,,,,1.2629,0,,,,,,,,low,1,0,1,0,1,,,,,,,,,
295822,2022-11-29_23h05.32.415,vts_reward_expectancy_bt,2022.2.4,MacIntel,59.99880002,Chrome,1440,900,,,,,10,704,,,,,,,,,,,,,,,,,146,H,circle,1,0,,,,,,,,,,,,,,,,switch,number,numSwt,d,Lo,,,,,,0.9643,0,,,,,,,,low,2,0,2,0,1,,,,,,,,,
295822,2022-11-29_23h05.32.415,vts_reward_expectancy_bt,2022.2.4,MacIntel,59.99880002,Chrome,1440,900,,,,,10,714,,,,,,,,,,,,,,,,,132,Y,triangle,1,0,,,,,,,,,,,,,,,,repeat,number,numRpt,d,Hi,,,,,,0.833,0,,,,,,,,low,3,0,3,0,1,,,,,,,,,
295822,2022-11-29_23h05.32.415,vts_reward_expectancy_bt,2022.2.4,MacIntel,59.99880002,Chrome,1440,900,,,,,1,715,,,,,,,,,,,,,,,,,174,D,star,1,0,,,,,,,,,,,,,,,,switch,letter,lettSwt,j,Lo,,,,,,1.6709,0,,,,,,,,low,4,0,4,0,1,,,,,,,,,
295822,2022-11-29_23h05.32.415,vts_reward_expectancy_bt,2022.2.4,MacIntel,59.99880002,Chrome,1440,900,,,,,1,716,,,,,,,,,,,,,,,,,181,B,hexagon,1,0,,,,,,,,,,,,,,,,switch,number,numSwt,f,Hi,,,,,,0.7952,0,,,,,,,,low,5,0,5,0,1,,,,,,,,,
295822,2022-11-29_23h05.32.415,vts_reward_expectancy_bt,2022.2.4,MacIntel,59.99880002,Chrome,1440,900,,,,,10,726,,,,,,,,,,,,,,,,,125,W,circle,1,0,,,,,,,,,,,,,,,,switch,letter,lettSwt,k,Lo,,,,,,0.9383,0,,,,,,,,low,6,0,6,0,1,,,,,,,,,
295822,2022-11-29_23h05.32.415,vts_reward_expectancy_bt,2022.2.4,MacIntel,59.99880002,Chrome,1440,900,,,,,0,726,,,,,,,,,,,,,,,,,160,F,triangle,0,0,,,,,,,,,,,,,,,,switch,number,NA,d,Lo,,,,,,0.1617,0,,,,,,,,low,7,0,7,0,1,,,,,,,,,
295822,2022-11-29_23h05.32.415,vts_reward_expectancy_bt,2022.2.4,MacIntel,59.99880002,Chrome,1440,900,,,,,1,727,,,,,,,,,,,,,,,,,139,S,star,1,1,,,,,,,,,,,,,,,,switch,letter,lettSwt,k,Lo,,,,,,0.931,0,,,,,,,,low,8,0,8,0,1,,,,,,,,,
295822,2022-11-29_23h05.32.415,vts_reward_expectancy_bt,2022.2.4,MacIntel,59.99880002,Chrome,1440,900,,,,,10,737,,,,,,,,,,,,,,,,,167,U,circle,1,0,,,,,,,,,,,,,,,,repeat,letter,lettRpt,k,Lo,,,,,,1.3946,0,,,,,,,,low,9,0,9,0,1,,,,,,,,,
295822,2022-11-29_23h05.32.415,vts_reward_expectancy_bt,2022.2.4,MacIntel,59.99880002,Chrome,1440,900,,,,,1,738,,,,,,,,,,,,,,,,,146,H,triangle,1,0,,,,,,,,,,,,,,,,switch,number,numSwt,d,Hi,,,,,,0.8155,0,,,,,,,,low,10,0,10,0,1,,,,,,,,,
295822,2022-11-29_23h05.32.415,vts_reward_expectancy_bt,2022.2.4,MacIntel,59.99880002,Chrome,1440,900,,,,,10,748,,,,,,,,,,,,,,,,,132,Y,hexagon,1,0,,,,,,,,,,,,,,,,repeat,number,numRpt,d,Hi,,,,,,1.1486,0,,,,,,,,low,11,0,11,0,1,,,,,,,,,
295822,2022-11-29_23h05.32.415,vts_reward_expectancy_bt,2022.2.4,MacIntel,59.99880002,Chrome,1440,900,,,,,10,758,,,,,,,,,,,,,,,,,174,D,star,1,0,,,,,,,,,,,,,,,,switch,letter,lettSwt,j,Lo,,,,,,0.9471,0,,,,,,,,low,12,0,12,0,1,,,,,,,,,
295822,2022-11-29_23h05.32.415,vts_reward_expectancy_bt,2022.2.4,MacIntel,59.99880002,Chrome,1440,900,,,,,0,758,,,,,,,,,,,,,,,,,181,B,hexagon,1,0,,,,,,,,,,,,,,,,switch,number,numSwt,f,Hi,,,,,,2.7664,0,,,,,,,,low,13,0,13,0,1,,,,,,,,,
295822,2022-11-29_23h05.32.415,vts_reward_expectancy_bt,2022.2.4,MacIntel,59.99880002,Chrome,1440,900,,,,,0,758,,,,,,,,,,,,,,,,,125,W,circle,0,0,,,,,,,,,,,,,,,,repeat,number,NA,f,Hi,,,,,,1.4371,0,,,,,,,,low,14,0,14,0,1,,,,,,,,,
295822,2022-11-29_23h05.32.415,vts_reward_expectancy_bt,2022.2.4,MacIntel,59.99880002,Chrome,1440,900,,,,,0,758,,,,,,,,,,,,,,,,,160,F,triangle,1,1,,,,,,,,,,,,,,,,repeat,number,numRpt,f,Hi,,,,,,1.2819,0,,,,,,,,low,15,0,15,0,1,,,,,,,,,
295822,2022-11-29_23h05.32.415,vts_reward_expectancy_bt,2022.2.4,MacIntel,59.99880002,Chrome,1440,900,,,,,1,759,,,,,,,,,,,,,,,,,160,F,star,1,0,,,,,,,,,,,,,,,,repeat,number,numRpt,f,Lo,,,,,,1.0224,0,,,,,,,,low,16,0,16,0,1,,,,,,,,,
295822,2022-11-29_23h05.32.415,vts_reward_expectancy_bt,2022.2.4,MacIntel,59.99880002,Chrome,1440,900,,,,,10,769,,,,,,,,,,,,,,,,,167,H,triangle,1,0,,,,,,,,,,,,,,,,switch,letter,lettSwt,j,Hi,,,,,,0.8316,0,,,,,,,,low,17,0,17,0,1,,,,,,,,,
295822,2022-11-29_23h05.32.415,vts_reward_expectancy_bt,2022.2.4,MacIntel,59.99880002,Chrome,1440,900,,,,,1,770,,,,,,,,,,,,,,,,,125,U,circle,1,0,,,,,,,,,,,,,,,,switch,number,numSwt,d,Lo,,,,,,0.9814,0,,,,,,,,low,18,0,18,0,1,,,,,,,,,
295822,2022-11-29_23h05.32.415,vts_reward_expectancy_bt,2022.2.4,MacIntel,59.99880002,Chrome,1440,900,,,,,0,770,,,,,,,,,,,,,,,,,132,W,hexagon,1,0,,,,,,,,,,,,,,,,switch,letter,lettSwt,k,Hi,,,,,,1.4621,0,,,,,,,,low,19,0,19,0,1,,,,,,,,,
295822,2022-11-29_23h05.32.415,vts_reward_expectancy_bt,2022.2.4,MacIntel,59.99880002,Chrome,1440,900,,,,,1,771,,,,,,,,,,,,,,,,,146,Y,star,1,0,,,,,,,,,,,,,,,,repeat,letter,lettRpt,k,Lo,,,,,,0.7672,0,,,,,,,,low,20,0,20,0,1,,,,,,,,,
295822,2022-11-29_23h05.32.415,vts_reward_expectancy_bt,2022.2.4,MacIntel,59.99880002,Chrome,1440,900,,,,,1,772,,,,,,,,,,,,,,,,,139,S,circle,1,0,,,,,,,,,,,,,,,,switch,number,numSwt,d,Lo,,,,,,0.768,0,,,,,,,,low,21,0,21,0,1,,,,,,,,,
295822,2022-11-29_23h05.32.415,vts_reward_expectancy_bt,2022.2.4,MacIntel,59.99880002,Chrome,1440,900,,,,,10,782,,,,,,,,,,,,,,,,,174,B,hexagon,1,0,,,,,,,,,,,,,,,,switch,letter,lettSwt,j,Hi,,,,,,0.8671,0,,,,,,,,low,22,0,22,0,1,,,,,,,,,
295822,2022-11-29_23h05.32.415,vts_reward_expectancy_bt,2022.2.4,MacIntel,59.99880002,Chrome,1440,900,,,,,0,782,,,,,,,,,,,,,,,,,181,D,triangle,1,0,,,,,,,,,,,,,,,,switch,number,numSwt,f,Hi,,,,,,1.0784,0,,,,,,,,low,23,0,23,0,1,,,,,,,,,
295822,2022-11-29_23h05.32.415,vts_reward_expectancy_bt,2022.2.4,MacIntel,59.99880002,Chrome,1440,900,,,,,1,783,,,,,,,,,,,,,,,,,160,S,triangle,1,0,,,,,,,,,,,,,,,,switch,letter,lettSwt,k,Hi,,,,,,0.6951,0,,,,,,,,low,24,0,24,0,1,,,,,,,,,
295822,2022-11-29_23h05.32.415,vts_reward_expectancy_bt,2022.2.4,MacIntel,59.99880002,Chrome,1440,900,,,,,1,784,,,,,,,,,,,,,,,,,174,B,star,1,0,,,,,,,,,,,,,,,,switch,number,numSwt,f,Lo,,,,,,1.4008,0,,,,,,,,low,25,0,25,0,1,,,,,,,,,
295822,2022-11-29_23h05.32.415,vts_reward_expectancy_bt,2022.2.4,MacIntel,59.99880002,Chrome,1440,900,,,,,0,784,,,,,,,,,,,,,,,,,181,H,hexagon,0,0,,,,,,,,,,,,,,,,switch,letter,NA,k,Lo,,,,,,2.085,0,,,,,,,,low,26,0,26,0,1,,,,,,,,,
295822,2022-11-29_23h05.32.415,vts_reward_expectancy_bt,2022.2.4,MacIntel,59.99880002,Chrome,1440,900,,,,,0,784,,,,,,,,,,,,,,,,,167,W,circle,0,1,,,,,,,,,,,,,,,,repeat,letter,NA,j,Lo,,,,,,0.6499,0,,,,,,,,low,27,0,27,0,1,,,,,,,,,
295822,2022-11-29_23h05.32.415,vts_reward_expectancy_bt,2022.2.4,MacIntel,59.99880002,Chrome,1440,900,,,,,1,785,,,,,,,,,,,,,,,,,146,F,circle,1,1,,,,,,,,,,,,,,,,repeat,letter,lettRpt,j,Lo,,,,,,0.7978,0,,,,,,,,low,28,0,28,0,1,,,,,,,,,
295822,2022-11-29_23h05.32.415,vts_reward_expectancy_bt,2022.2.4,MacIntel,59.99880002,Chrome,1440,900,,,,,1,786,,,,,,,,,,,,,,,,,132,Y,hexagon,1,0,,,,,,,,,,,,,,,,switch,number,numSwt,d,Hi,,,,,,0.6064,0,,,,,,,,low,29,0,29,0,1,,,,,,,,,
295822,2022-11-29_23h05.32.415,vts_reward_expectancy_bt,2022.2.4,MacIntel,59.99880002,Chrome,1440,900,,,,,1,787,,,,,,,,,,,,,,,,,139,D,star,1,0,,,,,,,,,,,,,,,,switch,letter,lettSwt,j,Lo,,,,,,0.801,0,,,,,,,,low,30,0,30,0,1,,,,,,,,,
295822,2022-11-29_23h05.32.415,vts_reward_expectancy_bt,2022.2.4,MacIntel,59.99880002,Chrome,1440,900,,,,,1,788,,,,,,,,,,,,,,,,,125,U,triangle,1,0,,,,,,,,,,,,,,,,switch,number,numSwt,d,Hi,,,,,,0.9038,0,,,,,,,,low,31,0,31,0,1,,,,,,,,,
295822,2022-11-29_23h05.32.415,vts_reward_expectancy_bt,2022.2.4,MacIntel,59.99880002,Chrome,1440,900,,,,,0,788,,,,,,,,,,,,,,,,,167,W,triangle,1,0,,,,,,,,,,,,,,,,switch,letter,lettSwt,k,Hi,,,,,,1.3467,1,,,,,,space,8.8746,low,0,0,0,0,1,,,,,,,,,
295822,2022-11-29_23h05.32.415,vts_reward_expectancy_bt,2022.2.4,MacIntel,59.99880002,Chrome,1440,900,,,,,1,789,,,,,,,,,,,,,,,,,160,H,circle,1,0,,,,,,,,,,,,,,,,switch,number,numSwt,f,Lo,,,,,,1.1329,1,,,,,,,,low,1,0,1,0,1,,,,,,,,,
295822,2022-11-29_23h05.32.415,vts_reward_expectancy_bt,2022.2.4,MacIntel,59.99880002,Chrome,1440,900,,,,,0,789,,,,,,,,,,,,,,,,,125,B,hexagon,1,0,,,,,,,,,,,,,,,,repeat,number,numRpt,d,Hi,,,,,,1.4301,1,,,,,,,,low,2,0,2,0,1,,,,,,,,,
295822,2022-11-29_23h05.32.415,vts_reward_expectancy_bt,2022.2.4,MacIntel,59.99880002,Chrome,1440,900,,,,,10,799,,,,,,,,,,,,,,,,,146,Y,star,1,0,,,,,,,,,,,,,,,,repeat,number,numRpt,d,Lo,,,,,,1.7333,1,,,,,,,,low,3,0,3,0,1,,,,,,,,,
295822,2022-11-29_23h05.32.415,vts_reward_expectancy_bt,2022.2.4,MacIntel,59.99880002,Chrome,1440,900,,,,,0,799,,,,,,,,,,,,,,,,,174,U,triangle,1,0,,,,,,,,,,,,,,,,repeat,number,numRpt,f,Hi,,,,,,1.4826,1,,,,,,,,low,4,0,4,0,1,,,,,,,,,
295822,2022-11-29_23h05.32.415,vts_reward_expectancy_bt,2022.2.4,MacIntel,59.99880002,Chrome,1440,900,,,,,0,799,,,,,,,,,,,,,,,,,139,S,circle,-1,0,,,,,,,,,,,,,,,,switch,no_choice,NA,,Hi,,,,,,,1,,,,,,,,low,5,0,5,0,1,,,,,,,,,
295822,2022-11-29_23h05.32.415,vts_reward_expectancy_bt,2022.2.4,MacIntel,59.99880002,Chrome,1440,900,,,,,0,799,,,,,,,,,,,,,,,,,181,D,hexagon,1,0,,,,,,,,,,,,,,,,switch,number,numSwt,f,Hi,,,,,,2.5892,1,,,,,,,,low,6,0,6,0,1,,,,,,,,,
295822,2022-11-29_23h05.32.415,vts_reward_expectancy_bt,2022.2.4,MacIntel,59.99880002,Chrome,1440,900,,,,,10,809,,,,,,,,,,,,,,,,,132,F,star,1,0,,,,,,,,,,,,,,,,repeat,number,numRpt,d,Lo,,,,,,2.2385,1,,,,,,,,low,7,0,7,0,1,,,,,,,,,
295822,2022-11-29_23h05.32.415,vts_reward_expectancy_bt,2022.2.4,MacIntel,59.99880002,Chrome,1440,900,,,,,0,809,,,,,,,,,,,,,,,,,167,W,triangle,1,0,,,,,,,,,,,,,,,,repeat,number,numRpt,f,Hi,,,,,,1.4867,1,,,,,,,,low,8,0,8,0,1,,,,,,,,,
295822,2022-11-29_23h05.32.415,vts_reward_expectancy_bt,2022.2.4,MacIntel,59.99880002,Chrome,1440,900,,,,,0,809,,,,,,,,,,,,,,,,,160,H,hexagon,1,0,,,,,,,,,,,,,,,,repeat,number,numRpt,f,Hi,,,,,,2.232,1,,,,,,,,low,9,0,9,0,1,,,,,,,,,
295822,2022-11-29_23h05.32.415,vts_reward_expectancy_bt,2022.2.4,MacIntel,59.99880002,Chrome,1440,900,,,,,1,810,,,,,,,,,,,,,,,,,125,B,star,1,0,,,,,,,,,,,,,,,,switch,letter,lettSwt,j,Lo,,,,,,1.0491,1,,,,,,,,low,10,0,10,0,1,,,,,,,,,
295822,2022-11-29_23h05.32.415,vts_reward_expectancy_bt,2022.2.4,MacIntel,59.99880002,Chrome,1440,900,,,,,0,810,,,,,,,,,,,,,,,,,146,Y,circle,0,0,,,,,,,,,,,,,,,,repeat,letter,NA,j,Lo,,,,,,1.0562,1,,,,,,,,low,11,0,11,0,1,,,,,,,,,
295822,2022-11-29_23h05.32.415,vts_reward_expectancy_bt,2022.2.4,MacIntel,59.99880002,Chrome,1440,900,,,,,0,810,,,,,,,,,,,,,,,,,174,U,triangle,1,1,,,,,,,,,,,,,,,,repeat,letter,lettRpt,k,Hi,,,,,,2.6053,1,,,,,,,,low,12,0,12,0,1,,,,,,,,,
295822,2022-11-29_23h05.32.415,vts_reward_expectancy_bt,2022.2.4,MacIntel,59.99880002,Chrome,1440,900,,,,,0,810,,,,,,,,,,,,,,,,,139,S,hexagon,1,0,,,,,,,,,,,,,,,,repeat,letter,lettRpt,k,Hi,,,,,,1.0511,1,,,,,,,,low,13,0,13,0,1,,,,,,,,,
295822,2022-11-29_23h05.32.415,vts_reward_expectancy_bt,2022.2.4,MacIntel,59.99880002,Chrome,1440,900,,,,,1,811,,,,,,,,,,,,,,,,,181,D,circle,1,0,,,,,,,,,,,,,,,,repeat,letter,lettRpt,j,Lo,,,,,,0.683,1,,,,,,,,low,14,0,14,0,1,,,,,,,,,
295822,2022-11-29_23h05.32.415,vts_reward_expectancy_bt,2022.2.4,MacIntel,59.99880002,Chrome,1440,900,,,,,1,812,,,,,,,,,,,,,,,,,132,F,star,1,0,,,,,,,,,,,,,,,,repeat,letter,lettRpt,j,Lo,,,,,,0.9045,1,,,,,,,,low,15,0,15,0,1,,,,,,,,,
295822,2022-11-29_23h05.32.415,vts_reward_expectancy_bt,2022.2.4,MacIntel,59.99880002,Chrome,1440,900,,,,,0,812,,,,,,,,,,,,,,,,,174,Y,triangle,1,0,,,,,,,,,,,,,,,,switch,number,numSwt,f,Hi,,,,,,2.9293,1,,,,,,,,low,16,0,16,0,1,,,,,,,,,
295822,2022-11-29_23h05.32.415,vts_reward_expectancy_bt,2022.2.4,MacIntel,59.99880002,Chrome,1440,900,,,,,1,813,,,,,,,,,,,,,,,,,160,U,star,1,0,,,,,,,,,,,,,,,,repeat,number,numRpt,f,Lo,,,,,,1.8284,1,,,,,,,,low,17,0,17,0,1,,,,,,,,,
295822,2022-11-29_23h05.32.415,vts_reward_expectancy_bt,2022.2.4,MacIntel,59.99880002,Chrome,1440,900,,,,,10,823,,,,,,,,,,,,,,,,,167,F,circle,1,0,,,,,,,,,,,,,,,,repeat,number,numRpt,f,Lo,,,,,,1.7168,1,,,,,,,,low,18,0,18,0,1,,,,,,,,,
295822,2022-11-29_23h05.32.415,vts_reward_expectancy_bt,2022.2.4,MacIntel,59.99880002,Chrome,1440,900,,,,,0,823,,,,,,,,,,,,,,,,,125,S,hexagon,0,0,,,,,,,,,,,,,,,,switch,letter,NA,j,Lo,,,,,,2.0045,1,,,,,,,,low,19,0,19,0,1,,,,,,,,,
295822,2022-11-29_23h05.32.415,vts_reward_expectancy_bt,2022.2.4,MacIntel,59.99880002,Chrome,1440,900,,,,,10,833,,,,,,,,,,,,,,,,,132,W,star,1,1,,,,,,,,,,,,,,,,repeat,letter,lettRpt,k,Lo,,,,,,0.5206,1,,,,,,,,low,20,0,20,0,1,,,,,,,,,
295822,2022-11-29_23h05.32.415,vts_reward_expectancy_bt,2022.2.4,MacIntel,59.99880002,Chrome,1440,900,,,,,1,834,,,,,,,,,,,,,,,,,146,D,circle,1,0,,,,,,,,,,,,,,,,repeat,letter,lettRpt,j,Lo,,,,,,1.2983,1,,,,,,,,low,21,0,21,0,1,,,,,,,,,
295822,2022-11-29_23h05.32.415,vts_reward_expectancy_bt,2022.2.4,MacIntel,59.99880002,Chrome,1440,900,,,,,0,834,,,,,,,,,,,,,,,,,139,B,hexagon,1,0,,,,,,,,,,,,,,,,switch,number,numSwt,d,Hi,,,,,,0.9338,1,,,,,,,,low,22,0,22,0,1,,,,,,,,,
295822,2022-11-29_23h05.32.415,vts_reward_expectancy_bt,2022.2.4,MacIntel,59.99880002,Chrome,1440,900,,,,,0,834,,,,,,,,,,,,,,,,,181,H,triangle,1,0,,,,,,,,,,,,,,,,repeat,number,numRpt,f,Hi,,,,,,2.517,1,,,,,,,,low,23,0,23,0,1,,,,,,,,,
295822,2022-11-29_23h05.32.415,vts_reward_expectancy_bt,2022.2.4,MacIntel,59.99880002,Chrome,1440,900,,,,,10,844,,,,,,,,,,,,,,,,,167,U,triangle,1,0,,,,,,,,,,,,,,,,repeat,number,numRpt,f,Hi,,,,,,0.8167,1,,,,,,,,low,24,0,24,0,1,,,,,,,,,
295822,2022-11-29_23h05.32.415,vts_reward_expectancy_bt,2022.2.4,MacIntel,59.99880002,Chrome,1440,900,,,,,0,844,,,,,,,,,,,,,,,,,125,D,hexagon,-1,0,,,,,,,,,,,,,,,,switch,no_choice,NA,,Hi,,,,,,,1,,,,,,,,low,25,0,25,0,1,,,,,,,,,
295822,2022-11-29_23h05.32.415,vts_reward_expectancy_bt,2022.2.4,MacIntel,59.99880002,Chrome,1440,900,,,,,1,845,,,,,,,,,,,,,,,,,146,W,circle,1,0,,,,,,,,,,,,,,,,switch,letter,lettSwt,k,Lo,,,,,,0.9484,1,,,,,,,,low,26,0,26,0,1,,,,,,,,,
295822,2022-11-29_23h05.32.415,vts_reward_expectancy_bt,2022.2.4,MacIntel,59.99880002,Chrome,1440,900,,,,,1,846,,,,,,,,,,,,,,,,,139,B,star,1,0,,,,,,,,,,,,,,,,repeat,letter,lettRpt,j,Lo,,,,,,1.1177,1,,,,,,,,low,27,0,27,0,1,,,,,,,,,
295822,2022-11-29_23h05.32.415,vts_reward_expectancy_bt,2022.2.4,MacIntel,59.99880002,Chrome,1440,900,,,,,0,846,,,,,,,,,,,,,,,,,174,H,triangle,1,0,,,,,,,,,,,,,,,,switch,number,numSwt,f,Hi,,,,,,0.9541,1,,,,,,,,low,28,0,28,0,1,,,,,,,,,
295822,2022-11-29_23h05.32.415,vts_reward_expectancy_bt,2022.2.4,MacIntel,59.99880002,Chrome,1440,900,,,,,10,856,,,,,,,,,,,,,,,,,160,Y,star,1,0,,,,,,,,,,,,,,,,repeat,number,numRpt,f,Lo,,,,,,1.0662,1,,,,,,,,low,29,0,29,0,1,,,,,,,,,
295822,2022-11-29_23h05.32.415,vts_reward_expectancy_bt,2022.2.4,MacIntel,59.99880002,Chrome,1440,900,,,,,0,856,,,,,,,,,,,,,,,,,132,F,hexagon,1,0,,,,,,,,,,,,,,,,repeat,number,numRpt,d,Hi,,,,,,1.3823,1,,,,,,,,low,30,0,30,0,1,,,,,,,,,
295822,2022-11-29_23h05.32.415,vts_reward_expectancy_bt,2022.2.4,MacIntel,59.99880002,Chrome,1440,900,,,,,1,857,,,,,,,,,,,,,,,,,181,S,circle,1,0,,,,,,,,,,,,,,,,repeat,number,numRpt,f,Lo,,,,,,1.0493,1,,,,,,,,low,31,0,31,0,1,,,,,,,,,
295822,2022-11-29_23h05.32.415,vts_reward_expectancy_bt,2022.2.4,MacIntel,59.99880002,Chrome,1440,900,,,,,10,867,,,,,,,,,,,,,,,,,160,Y,circle,1,0,,,,,,,,,,,,,,,,switch,letter,lettSwt,k,Lo,,,,,,1.2851,2,,,,,,space,3.4091,low,0,0,0,0,1,,,,,,,,,
295822,2022-11-29_23h05.32.415,vts_reward_expectancy_bt,2022.2.4,MacIntel,59.99880002,Chrome,1440,900,,,,,10,877,,,,,,,,,,,,,,,,,125,D,star,1,0,,,,,,,,,,,,,,,,switch,number,numSwt,d,Lo,,,,,,1.2065,2,,,,,,,,low,1,0,1,0,1,,,,,,,,,
295822,2022-11-29_23h05.32.415,vts_reward_expectancy_bt,2022.2.4,MacIntel,59.99880002,Chrome,1440,900,,,,,10,887,,,,,,,,,,,,,,,,,167,W,triangle,1,0,,,,,,,,,,,,,,,,switch,letter,lettSwt,k,Hi,,,,,,0.6816,2,,,,,,,,low,2,0,2,0,1,,,,,,,,,
295822,2022-11-29_23h05.32.415,vts_reward_expectancy_bt,2022.2.4,MacIntel,59.99880002,Chrome,1440,900,,,,,0,887,,,,,,,,,,,,,,,,,146,U,hexagon,1,0,,,,,,,,,,,,,,,,switch,number,numSwt,d,Hi,,,,,,2.2049,2,,,,,,,,low,3,0,3,0,1,,,,,,,,,
295822,2022-11-29_23h05.32.415,vts_reward_expectancy_bt,2022.2.4,MacIntel,59.99880002,Chrome,1440,900,,,,,0,887,,,,,,,,,,,,,,,,,139,H,circle,0,0,,,,,,,,,,,,,,,,switch,letter,NA,k,Hi,,,,,,2.4818,2,,,,,,,,low,4,0,4,0,1,,,,,,,,,
295822,2022-11-29_23h05.32.415,vts_reward_expectancy_bt,2022.2.4,MacIntel,59.99880002,Chrome,1440,900,,,,,10,897,,,,,,,,,,,,,,,,,174,B,star,1,1,,,,,,,,,,,,,,,,repeat,letter,lettRpt,j,Lo,,,,,,0.8676,2,,,,,,,,low,5,0,5,0,1,,,,,,,,,
295822,2022-11-29_23h05.32.415,vts_reward_expectancy_bt,2022.2.4,MacIntel,59.99880002,Chrome,1440,900,,,,,0,897,,,,,,,,,,,,,,,,,132,S,triangle,0,0,,,,,,,,,,,,,,,,repeat,letter,NA,j,Lo,,,,,,2.2294,2,,,,,,,,low,6,0,6,0,1,,,,,,,,,
295822,2022-11-29_23h05.32.415,vts_reward_expectancy_bt,2022.2.4,MacIntel,59.99880002,Chrome,1440,900,,,,,0,897,,,,,,,,,,,,,,,,,181,F,hexagon,-1,1,,,,,,,,,,,,,,,,switch,no_choice,NA,,Lo,,,,,,,2,,,,,,,,low,7,0,7,0,1,,,,,,,,,
295822,2022-11-29_23h05.32.415,vts_reward_expectancy_bt,2022.2.4,MacIntel,59.99880002,Chrome,1440,900,,,,,0,897,,,,,,,,,,,,,,,,,160,Y,triangle,-1,0,,,,,,,,,,,,,,,,repeat,no_choice,NA,,Lo,,,,,,,2,,,,,,,,low,8,0,8,0,1,,,,,,,,,
295822,2022-11-29_23h05.32.415,vts_reward_expectancy_bt,2022.2.4,MacIntel,59.99880002,Chrome,1440,900,,,,,0,897,,,,,,,,,,,,,,,,,125,D,hexagon,-1,0,,,,,,,,,,,,,,,,repeat,no_choice,NA,,Lo,,,,,,,2,,,,,,,,low,9,0,9,0,1,,,,,,,,,
295822,2022-11-29_23h05.32.415,vts_reward_expectancy_bt,2022.2.4,MacIntel,59.99880002,Chrome,1440,900,,,,,0,897,,,,,,,,,,,,,,,,,167,W,star,-1,0,,,,,,,,,,,,,,,,repeat,no_choice,NA,,Lo,,,,,,,2,,,,,,,,low,10,0,10,0,1,,,,,,,,,
295822,2022-11-29_23h05.32.415,vts_reward_expectancy_bt,2022.2.4,MacIntel,59.99880002,Chrome,1440,900,,,,,0,897,,,,,,,,,,,,,,,,,146,U,circle,-1,0,,,,,,,,,,,,,,,,repeat,no_choice,NA,,Lo,,,,,,,2,,,,,,,,low,11,0,11,0,1,,,,,,,,,
295822,2022-11-29_23h05.32.415,vts_reward_expectancy_bt,2022.2.4,MacIntel,59.99880002,Chrome,1440,900,,,,,0,897,,,,,,,,,,,,,,,,,139,H,hexagon,-1,0,,,,,,,,,,,,,,,,repeat,no_choice,NA,,Lo,,,,,,,2,,,,,,,,low,12,0,12,0,1,,,,,,,,,
295822,2022-11-29_23h05.32.415,vts_reward_expectancy_bt,2022.2.4,MacIntel,59.99880002,Chrome,1440,900,,,,,0,897,,,,,,,,,,,,,,,,,174,B,circle,-1,0,,,,,,,,,,,,,,,,repeat,no_choice,NA,,Lo,,,,,,,2,,,,,,,,low,13,0,13,0,1,,,,,,,,,
295822,2022-11-29_23h05.32.415,vts_reward_expectancy_bt,2022.2.4,MacIntel,59.99880002,Chrome,1440,900,,,,,10,907,,,,,,,,,,,,,,,,,132,S,star,1,0,,,,,,,,,,,,,,,,switch,letter,lettSwt,k,Lo,,,,,,1.1982,2,,,,,,,,low,14,0,14,0,1,,,,,,,,,
295822,2022-11-29_23h05.32.415,vts_reward_expectancy_bt,2022.2.4,MacIntel,59.99880002,Chrome,1440,900,,,,,0,907,,,,,,,,,,,,,,,,,181,F,triangle,1,0,,,,,,,,,,,,,,,,repeat,letter,lettRpt,j,Hi,,,,,,1.2062,2,,,,,,,,low,15,0,15,0,1,,,,,,,,,
295822,2022-11-29_23h05.32.415,vts_reward_expectancy_bt,2022.2.4,MacIntel,59.99880002,Chrome,1440,900,,,,,1,908,,,,,,,,,,,,,,,,,174,B,circle,1,0,,,,,,,,,,,,,,,,repeat,letter,lettRpt,j,Lo,,,,,,1.839,2,,,,,,,,low,16,0,16,0,1,,,,,,,,,
295822,2022-11-29_23h05.32.415,vts_reward_expectancy_bt,2022.2.4,MacIntel,59.99880002,Chrome,1440,900,,,,,0,908,,,,,,,,,,,,,,,,,181,S,triangle,0,0,,,,,,,,,,,,,,,,repeat,letter,NA,j,Lo,,,,,,1.3784,2,,,,,,,,low,17,0,17,0,1,,,,,,,,,
295822,2022-11-29_23h05.32.415,vts_reward_expectancy_bt,2022.2.4,MacIntel,59.99880002,Chrome,1440,900,,,,,0,908,,,,,,,,,,,,,,,,,160,H,hexagon,-1,1,,,,,,,,,,,,,,,,switch,no_choice,NA,,Lo,,,,,,,2,,,,,,,,low,18,0,18,0,1,,,,,,,,,
295822,2022-11-29_23h05.32.415,vts_reward_expectancy_bt,2022.2.4,MacIntel,59.99880002,Chrome,1440,900,,,,,1,909,,,,,,,,,,,,,,,,,132,Y,star,1,0,,,,,,,,,,,,,,,,switch,letter,lettSwt,k,Lo,,,,,,1.5496,2,,,,,,,,low,19,0,19,0,1,,,,,,,,,
295822,2022-11-29_23h05.32.415,vts_reward_expectancy_bt,2022.2.4,MacIntel,59.99880002,Chrome,1440,900,,,,,0,909,,,,,,,,,,,,,,,,,146,F,hexagon,1,0,,,,,,,,,,,,,,,,repeat,letter,lettRpt,j,Hi,,,,,,1.968,2,,,,,,,,low,20,0,20,0,1,,,,,,,,,
295822,2022-11-29_23h05.32.415,vts_reward_expectancy_bt,2022.2.4,MacIntel,59.99880002,Chrome,1440,900,,,,,10,919,,,,,,,,,,,,,,,,,167,D,star,1,0,,,,,,,,,,,,,,,,repeat,letter,lettRpt,j,Lo,,,,,,0.8135,2,,,,,,,,low,21,0,21,0,1,,,,,,,,,
295822,2022-11-29_23h05.32.415,vts_reward_expectancy_bt,2022.2.4,MacIntel,59.99880002,Chrome,1440,900,,,,,1,920,,,,,,,,,,,,,,,,,139,W,circle,1,0,,,,,,,,,,,,,,,,repeat,letter,lettRpt,k,Lo,,,,,,0.9516,2,,,,,,,,low,22,0,22,0,1,,,,,,,,,
295822,2022-11-29_23h05.32.415,vts_reward_expectancy_bt,2022.2.4,MacIntel,59.99880002,Chrome,1440,900,,,,,0,920,,,,,,,,,,,,,,,,,125,U,triangle,1,0,,,,,,,,,,,,,,,,repeat,letter,lettRpt,k,Hi,,,,,,2.1376,2,,,,,,,,low,23,0,23,0,1,,,,,,,,,
295822,2022-11-29_23h05.32.415,vts_reward_expectancy_bt,2022.2.4,MacIntel,59.99880002,Chrome,1440,900,,,,,0,920,,,,,,,,,,,,,,,,,146,D,circle,0,0,,,,,,,,,,,,,,,,repeat,letter,NA,k,Hi,,,,,,1.6649,2,,,,,,,,low,24,0,24,0,1,,,,,,,,,
295822,2022-11-29_23h05.32.415,vts_reward_expectancy_bt,2022.2.4,MacIntel,59.99880002,Chrome,1440,900,,,,,0,920,,,,,,,,,,,,,,,,,160,H,triangle,1,1,,,,,,,,,,,,,,,,switch,number,numSwt,f,Hi,,,,,,1.2513,2,,,,,,,,low,25,0,25,0,1,,,,,,,,,
295822,2022-11-29_23h05.32.415,vts_reward_expectancy_bt,2022.2.4,MacIntel,59.99880002,Chrome,1440,900,,,,,1,921,,,,,,,,,,,,,,,,,174,F,star,1,0,,,,,,,,,,,,,,,,repeat,number,numRpt,f,Lo,,,,,,1.1792,2,,,,,,,,low,26,0,26,0,1,,,,,,,,,
295822,2022-11-29_23h05.32.415,vts_reward_expectancy_bt,2022.2.4,MacIntel,59.99880002,Chrome,1440,900,,,,,0,921,,,,,,,,,,,,,,,,,132,Y,hexagon,1,0,,,,,,,,,,,,,,,,repeat,number,numRpt,d,Hi,,,,,,1.7482,2,,,,,,,,low,27,0,27,0,1,,,,,,,,,
295822,2022-11-29_23h05.32.415,vts_reward_expectancy_bt,2022.2.4,MacIntel,59.99880002,Chrome,1440,900,,,,,0,921,,,,,,,,,,,,,,,,,125,S,hexagon,1,0,,,,,,,,,,,,,,,,repeat,number,numRpt,d,Hi,,,,,,1.5974,2,,,,,,,,low,28,0,28,0,1,,,,,,,,,
295822,2022-11-29_23h05.32.415,vts_reward_expectancy_bt,2022.2.4,MacIntel,59.99880002,Chrome,1440,900,,,,,1,922,,,,,,,,,,,,,,,,,139,U,circle,1,0,,,,,,,,,,,,,,,,switch,letter,lettSwt,k,Lo,,,,,,0.9548,2,,,,,,,,low,29,0,29,0,1,,,,,,,,,
295822,2022-11-29_23h05.32.415,vts_reward_expectancy_bt,2022.2.4,MacIntel,59.99880002,Chrome,1440,900,,,,,10,932,,,,,,,,,,,,,,,,,167,W,triangle,1,0,,,,,,,,,,,,,,,,repeat,letter,lettRpt,k,Hi,,,,,,0.8479,2,,,,,,,,low,30,0,30,0,1,,,,,,,,,
295822,2022-11-29_23h05.32.415,vts_reward_expectancy_bt,2022.2.4,MacIntel,59.99880002,Chrome,1440,900,,,,,1,933,,,,,,,,,,,,,,,,,181,B,star,1,0,,,,,,,,,,,,,,,,repeat,letter,lettRpt,j,Lo,,,,,,0.7871,2,,,,,,,,low,31,0,31,0,1,,,,,,,,,
295822,2022-11-29_23h05.32.415,vts_reward_expectancy_bt,2022.2.4,MacIntel,59.99880002,Chrome,1440,900,,,,,0,933,,,,,,,,,,,,,,,,,174,H,triangle,1,0,,,,,,,,,,,,,,,,switch,number,numSwt,f,Hi,,,,,,1.3046,3,,,,,,space,0.8597,low,0,0,0,0,1,,,,,,,,,
295822,2022-11-29_23h05.32.415,vts_reward_expectancy_bt,2022.2.4,MacIntel,59.99880002,Chrome,1440,900,,,,,1,934,,,,,,,,,,,,,,,,,139,U,star,1,0,,,,,,,,,,,,,,,,repeat,number,numRpt,d,Lo,,,,,,1.5018,3,,,,,,,,low,1,0,1,0,1,,,,,,,,,
295822,2022-11-29_23h05.32.415,vts_reward_expectancy_bt,2022.2.4,MacIntel,59.99880002,Chrome,1440,900,,,,,10,944,,,,,,,,,,,,,,,,,181,D,circle,1,0,,,,,,,,,,,,,,,,switch,letter,lettSwt,j,Lo,,,,,,0.903,3,,,,,,,,low,2,0,2,0,1,,,,,,,,,
295822,2022-11-29_23h05.32.415,vts_reward_expectancy_bt,2022.2.4,MacIntel,59.99880002,Chrome,1440,900,,,,,1,945,,,,,,,,,,,,,,,,,132,Y,hexagon,1,0,,,,,,,,,,,,,,,,switch,number,numSwt,d,Hi,,,,,,1.0397,3,,,,,,,,low,3,0,3,0,1,,,,,,,,,
295822,2022-11-29_23h05.32.415,vts_reward_expectancy_bt,2022.2.4,MacIntel,59.99880002,Chrome,1440,900,,,,,1,946,,,,,,,,,,,,,,,,,146,B,triangle,1,0,,,,,,,,,,,,,,,,repeat,number,numRpt,d,Hi,,,,,,1.3834,3,,,,,,,,low,4,0,4,0,1,,,,,,,,,
295822,2022-11-29_23h05.32.415,vts_reward_expectancy_bt,2022.2.4,MacIntel,59.99880002,Chrome,1440,900,,,,,0,946,,,,,,,,,,,,,,,,,125,S,star,0,0,,,,,,,,,,,,,,,,switch,letter,NA,j,Hi,,,,,,0.7794,3,,,,,,,,low,5,0,5,0,1,,,,,,,,,
295822,2022-11-29_23h05.32.415,vts_reward_expectancy_bt,2022.2.4,MacIntel,59.99880002,Chrome,1440,900,,,,,0,946,,,,,,,,,,,,,,,,,167,W,circle,-1,1,,,,,,,,,,,,,,,,switch,no_choice,NA,,Hi,,,,,,,3,,,,,,,,low,6,0,6,0,1,,,,,,,,,
295822,2022-11-29_23h05.32.415,vts_reward_expectancy_bt,2022.2.4,MacIntel,59.99880002,Chrome,1440,900,,,,,0,946,,,,,,,,,,,,,,,,,160,F,hexagon,-1,0,,,,,,,,,,,,,,,,repeat,no_choice,NA,,Hi,,,,,,,3,,,,,,,,low,7,0,7,0,1,,,,,,,,,
295822,2022-11-29_23h05.32.415,vts_reward_expectancy_bt,2022.2.4,MacIntel,59.99880002,Chrome,1440,900,,,,,0,946,,,,,,,,,,,,,,,,,174,H,circle,-1,0,,,,,,,,,,,,,,,,repeat,no_choice,NA,,Hi,,,,,,,3,,,,,,,,low,8,0,8,0,1,,,,,,,,,
295822,2022-11-29_23h05.32.415,vts_reward_expectancy_bt,2022.2.4,MacIntel,59.99880002,Chrome,1440,900,,,,,0,946,,,,,,,,,,,,,,,,,139,U,star,-1,0,,,,,,,,,,,,,,,,repeat,no_choice,NA,,Hi,,,,,,,3,,,,,,,,low,9,0,9,0,1,,,,,,,,,
295822,2022-11-29_23h05.32.415,vts_reward_expectancy_bt,2022.2.4,MacIntel,59.99880002,Chrome,1440,900,,,,,0,946,,,,,,,,,,,,,,,,,181,D,hexagon,-1,0,,,,,,,,,,,,,,,,repeat,no_choice,NA,,Hi,,,,,,,3,,,,,,,,low,10,0,10,0,1,,,,,,,,,
295822,2022-11-29_23h05.32.415,vts_reward_expectancy_bt,2022.2.4,MacIntel,59.99880002,Chrome,1440,900,,,,,0,946,,,,,,,,,,,,,,,,,132,Y,triangle,-1,0,,,,,,,,,,,,,,,,repeat,no_choice,NA,,Hi,,,,,,,3,,,,,,,,low,11,0,11,0,1,,,,,,,,,
295822,2022-11-29_23h05.32.415,vts_reward_expectancy_bt,2022.2.4,MacIntel,59.99880002,Chrome,1440,900,,,,,10,956,,,,,,,,,,,,,,,,,146,B,star,1,0,,,,,,,,,,,,,,,,switch,letter,lettSwt,j,Lo,,,,,,0.9771,3,,,,,,,,low,12,0,12,0,1,,,,,,,,,
295822,2022-11-29_23h05.32.415,vts_reward_expectancy_bt,2022.2.4,MacIntel,59.99880002,Chrome,1440,900,,,,,0,956,,,,,,,,,,,,,,,,,125,S,triangle,0,0,,,,,,,,,,,,,,,,repeat,letter,NA,j,Lo,,,,,,1.0333,3,,,,,,,,low,13,0,13,0,1,,,,,,,,,
295822,2022-11-29_23h05.32.415,vts_reward_expectancy_bt,2022.2.4,MacIntel,59.99880002,Chrome,1440,900,,,,,0,956,,,,,,,,,,,,,,,,,167,W,hexagon,1,1,,,,,,,,,,,,,,,,repeat,letter,lettRpt,k,Hi,,,,,,2.2206,3,,,,,,,,low,14,0,14,0,1,,,,,,,,,
295822,2022-11-29_23h05.32.415,vts_reward_expectancy_bt,2022.2.4,MacIntel,59.99880002,Chrome,1440,900,,,,,0,956,,,,,,,,,,,,,,,,,160,F,circle,0,0,,,,,,,,,,,,,,,,switch,number,NA,d,Hi,,,,,,0.1147,3,,,,,,,,low,15,0,15,0,1,,,,,,,,,
295822,2022-11-29_23h05.32.415,vts_reward_expectancy_bt,2022.2.4,MacIntel,59.99880002,Chrome,1440,900,,,,,1,957,,,,,,,,,,,,,,,,,167,Y,hexagon,1,1,,,,,,,,,,,,,,,,repeat,number,numRpt,f,Hi,,,,,,1.0851,3,,,,,,,,low,16,0,16,0,1,,,,,,,,,
295822,2022-11-29_23h05.32.415,vts_reward_expectancy_bt,2022.2.4,MacIntel,59.99880002,Chrome,1440,900,,,,,10,967,,,,,,,,,,,,,,,,,132,S,triangle,1,0,,,,,,,,,,,,,,,,switch,letter,lettSwt,k,Hi,,,,,,0.7391,3,,,,,,,,low,17,0,17,0,1,,,,,,,,,
295822,2022-11-29_23h05.32.415,vts_reward_expectancy_bt,2022.2.4,MacIntel,59.99880002,Chrome,1440,900,,,,,10,977,,,,,,,,,,,,,,,,,125,W,circle,1,0,,,,,,,,,,,,,,,,switch,number,numSwt,d,Lo,,,,,,0.5583,3,,,,,,,,low,18,0,18,0,1,,,,,,,,,
295822,2022-11-29_23h05.32.415,vts_reward_expectancy_bt,2022.2.4,MacIntel,59.99880002,Chrome,1440,900,,,,,1,978,,,,,,,,,,,,,,,,,139,F,star,1,0,,,,,,,,,,,,,,,,switch,letter,lettSwt,j,Lo,,,,,,0.8213,3,,,,,,,,low,19,0,19,0,1,,,,,,,,,
295822,2022-11-29_23h05.32.415,vts_reward_expectancy_bt,2022.2.4,MacIntel,59.99880002,Chrome,1440,900,,,,,0,978,,,,,,,,,,,,,,,,,181,H,hexagon,0,0,,,,,,,,,,,,,,,,switch,number,NA,d,Lo,,,,,,1.0487,3,,,,,,,,low,20,0,20,0,1,,,,,,,,,
295822,2022-11-29_23h05.32.415,vts_reward_expectancy_bt,2022.2.4,MacIntel,59.99880002,Chrome,1440,900,,,,,0,978,,,,,,,,,,,,,,,,,160,D,circle,0,1,,,,,,,,,,,,,,,,switch,letter,NA,k,Lo,,,,,,1.5979,3,,,,,,,,low,21,0,21,0,1,,,,,,,,,
295822,2022-11-29_23h05.32.415,vts_reward_expectancy_bt,2022.2.4,MacIntel,59.99880002,Chrome,1440,900,,,,,1,979,,,,,,,,,,,,,,,,,146,U,star,1,1,,,,,,,,,,,,,,,,repeat,letter,lettRpt,k,Lo,,,,,,1.0482,3,,,,,,,,low,22,0,22,0,1,,,,,,,,,
295822,2022-11-29_23h05.32.415,vts_reward_expectancy_bt,2022.2.4,MacIntel,59.99880002,Chrome,1440,900,,,,,0,979,,,,,,,,,,,,,,,,,174,B,triangle,0,0,,,,,,,,,,,,,,,,repeat,letter,NA,k,Lo,,,,,,0.5778,3,,,,,,,,low,23,0,23,0,1,,,,,,,,,
295822,2022-11-29_23h05.32.415,vts_reward_expectancy_bt,2022.2.4,MacIntel,59.99880002,Chrome,1440,900,,,,,0,979,,,,,,,,,,,,,,,,,125,B,hexagon,1,1,,,,,,,,,,,,,,,,switch,number,numSwt,d,Hi,,,,,,1.8319,3,,,,,,,,low,24,0,24,0,1,,,,,,,,,
295822,2022-11-29_23h05.32.415,vts_reward_expectancy_bt,2022.2.4,MacIntel,59.99880002,Chrome,1440,900,,,,,10,989,,,,,,,,,,,,,,,,,146,S,triangle,1,0,,,,,,,,,,,,,,,,switch,letter,lettSwt,k,Hi,,,,,,0.9101,3,,,,,,,,low,25,0,25,0,1,,,,,,,,,
295822,2022-11-29_23h05.32.415,vts_reward_expectancy_bt,2022.2.4,MacIntel,59.99880002,Chrome,1440,900,,,,,1,990,,,,,,,,,,,,,,,,,132,F,circle,1,0,,,,,,,,,,,,,,,,repeat,letter,lettRpt,j,Lo,,,,,,0.6289,3,,,,,,,,low,26,0,26,0,1,,,,,,,,,
295822,2022-11-29_23h05.32.415,vts_reward_expectancy_bt,2022.2.4,MacIntel,59.99880002,Chrome,1440,900,,,,,1,991,,,,,,,,,,,,,,,,,139,Y,star,1,0,,,,,,,,,,,,,,,,switch,number,numSwt,d,Lo,,,,,,0.6494,3,,,,,,,,low,27,0,27,0,1,,,,,,,,,
295822,2022-11-29_23h05.32.415,vts_reward_expectancy_bt,2022.2.4,MacIntel,59.99880002,Chrome,1440,900,,,,,10,1001,,,,,,,,,,,,,,,,,160,D,circle,1,0,,,,,,,,,,,,,,,,repeat,number,numRpt,f,Lo,,,,,,1.836,3,,,,,,,,low,28,0,28,0,1,,,,,,,,,
295822,2022-11-29_23h05.32.415,vts_reward_expectancy_bt,2022.2.4,MacIntel,59.99880002,Chrome,1440,900,,,,,0,1001,,,,,,,,,,,,,,,,,181,H,hexagon,1,0,,,,,,,,,,,,,,,,repeat,number,numRpt,f,Hi,,,,,,2.0692,3,,,,,,,,low,29,0,29,0,1,,,,,,,,,
295822,2022-11-29_23h05.32.415,vts_reward_expectancy_bt,2022.2.4,MacIntel,59.99880002,Chrome,1440,900,,,,,0,1001,,,,,,,,,,,,,,,,,167,W,triangle,1,0,,,,,,,,,,,,,,,,switch,letter,lettSwt,k,Hi,,,,,,2.4283,3,,,,,,,,low,30,0,30,0,1,,,,,,,,,
295822,2022-11-29_23h05.32.415,vts_reward_expectancy_bt,2022.2.4,MacIntel,59.99880002,Chrome,1440,900,,,,,10,1011,,,,,,,,,,,,,,,,,174,U,star,1,0,,,,,,,,,,,,,,,,repeat,letter,lettRpt,k,Lo,,,,,,0.7163,3,,,,,,,,low,31,0,31,0,1,,,,,,,,,
295822,2022-11-29_23h05.32.415,vts_reward_expectancy_bt,2022.2.4,MacIntel,59.99880002,Chrome,1440,900,,,,,10,1021,,,,,,,,,,,,,,,,,174,S,star,1,0,,,,,,,,,,,,,,,,switch,number,numSwt,f,Lo,,,,,,1.0835,4,,,,,,space,2.4619,low,0,0,0,0,1,,,,,,,,,
295822,2022-11-29_23h05.32.415,vts_reward_expectancy_bt,2022.2.4,MacIntel,59.99880002,Chrome,1440,900,,,,,1,1022,,,,,,,,,,,,,,,,,132,F,triangle,1,0,,,,,,,,,,,,,,,,switch,letter,lettSwt,j,Hi,,,,,,0.8176,4,,,,,,,,low,1,0,1,0,1,,,,,,,,,
295822,2022-11-29_23h05.32.415,vts_reward_expectancy_bt,2022.2.4,MacIntel,59.99880002,Chrome,1440,900,,,,,0,1022,,,,,,,,,,,,,,,,,139,H,hexagon,1,0,,,,,,,,,,,,,,,,switch,number,numSwt,d,Hi,,,,,,1.3016,4,,,,,,,,low,2,0,2,0,1,,,,,,,,,
295822,2022-11-29_23h05.32.415,vts_reward_expectancy_bt,2022.2.4,MacIntel,59.99880002,Chrome,1440,900,,,,,0,1022,,,,,,,,,,,,,,,,,181,D,circle,0,0,,,,,,,,,,,,,,,,switch,letter,NA,k,Hi,,,,,,1.0178,4,,,,,,,,low,3,0,3,0,1,,,,,,,,,
295822,2022-11-29_23h05.32.415,vts_reward_expectancy_bt,2022.2.4,MacIntel,59.99880002,Chrome,1440,900,,,,,1,1023,,,,,,,,,,,,,,,,,160,U,star,1,1,,,,,,,,,,,,,,,,repeat,letter,lettRpt,k,Lo,,,,,,1.3503,4,,,,,,,,low,4,0,4,0,1,,,,,,,,,
295822,2022-11-29_23h05.32.415,vts_reward_expectancy_bt,2022.2.4,MacIntel,59.99880002,Chrome,1440,900,,,,,0,1023,,,,,,,,,,,,,,,,,146,W,triangle,1,0,,,,,,,,,,,,,,,,repeat,letter,lettRpt,k,Hi,,,,,,1.2819,4,,,,,,,,low,5,0,5,0,1,,,,,,,,,
295822,2022-11-29_23h05.32.415,vts_reward_expectancy_bt,2022.2.4,MacIntel,59.99880002,Chrome,1440,900,,,,,0,1023,,,,,,,,,,,,,,,,,167,B,hexagon,1,0,,,,,,,,,,,,,,,,repeat,letter,lettRpt,j,Hi,,,,,,1.5144,4,,,,,,,,low,6,0,6,0,1,,,,,,,,,
295822,2022-11-29_23h05.32.415,vts_reward_expectancy_bt,2022.2.4,MacIntel,59.99880002,Chrome,1440,900,,,,,1,1024,,,,,,,,,,,,,,,,,125,Y,circle,1,0,,,,,,,,,,,,,,,,repeat,letter,lettRpt,k,Lo,,,,,,2.1995,4,,,,,,,,low,7,0,7,0,1,,,,,,,,,
295822,2022-11-29_23h05.32.415,vts_reward_expectancy_bt,2022.2.4,MacIntel,59.99880002,Chrome,1440,900,,,,,0,1024,,,,,,,,,,,,,,,,,174,S,hexagon,0,0,,,,,,,,,,,,,,,,repeat,letter,NA,j,Lo,,,,,,1.2454,4,,,,,,,,low,8,0,8,0,1,,,,,,,,,
295822,2022-11-29_23h05.32.415,vts_reward_expectancy_bt,2022.2.4,MacIntel,59.99880002,Chrome,1440,900,,,,,10,1034,,,,,,,,,,,,,,,,,132,F,star,1,1,,,,,,,,,,,,,,,,repeat,letter,lettRpt,j,Lo,,,,,,2.6212,4,,,,,,,,low,9,0,9,0,1,,,,,,,,,
295822,2022-11-29_23h05.32.415,vts_reward_expectancy_bt,2022.2.4,MacIntel,59.99880002,Chrome,1440,900,,,,,0,1034,,,,,,,,,,,,,,,,,139,H,triangle,1,0,,,,,,,,,,,,,,,,switch,number,numSwt,d,Hi,,,,,,2.2161,4,,,,,,,,low,10,0,10,0,1,,,,,,,,,
295822,2022-11-29_23h05.32.415,vts_reward_expectancy_bt,2022.2.4,MacIntel,59.99880002,Chrome,1440,900,,,,,1,1035,,,,,,,,,,,,,,,,,181,D,circle,1,0,,,,,,,,,,,,,,,,repeat,number,numRpt,f,Lo,,,,,,0.8995,4,,,,,,,,low,11,0,11,0,1,,,,,,,,,
295822,2022-11-29_23h05.32.415,vts_reward_expectancy_bt,2022.2.4,MacIntel,59.99880002,Chrome,1440,900,,,,,0,1035,,,,,,,,,,,,,,,,,160,U,hexagon,-1,0,,,,,,,,,,,,,,,,switch,no_choice,NA,,Lo,,,,,,,4,,,,,,,,low,12,0,12,0,1,,,,,,,,,
295822,2022-11-29_23h05.32.415,vts_reward_expectancy_bt,2022.2.4,MacIntel,59.99880002,Chrome,1440,900,,,,,1,1036,,,,,,,,,,,,,,,,,146,W,circle,1,0,,,,,,,,,,,,,,,,switch,letter,lettSwt,k,Lo,,,,,,1.3663,4,,,,,,,,low,13,0,13,0,1,,,,,,,,,
295822,2022-11-29_23h05.32.415,vts_reward_expectancy_bt,2022.2.4,MacIntel,59.99880002,Chrome,1440,900,,,,,10,1046,,,,,,,,,,,,,,,,,167,B,star,1,0,,,,,,,,,,,,,,,,repeat,letter,lettRpt,j,Lo,,,,,,1.6031,4,,,,,,,,low,14,0,14,0,1,,,,,,,,,
295822,2022-11-29_23h05.32.415,vts_reward_expectancy_bt,2022.2.4,MacIntel,59.99880002,Chrome,1440,900,,,,,0,1046,,,,,,,,,,,,,,,,,125,Y,triangle,1,0,,,,,,,,,,,,,,,,repeat,letter,lettRpt,k,Hi,,,,,,2.4208,4,,,,,,,,low,15,0,15,0,1,,,,,,,,,
295822,2022-11-29_23h05.32.415,vts_reward_expectancy_bt,2022.2.4,MacIntel,59.99880002,Chrome,1440,900,,,,,0,1046,,,,,,,,,,,,,,,,,146,S,triangle,0,0,,,,,,,,,,,,,,,,repeat,letter,NA,j,Hi,,,,,,2.499,4,,,,,,,,low,16,0,16,0,1,,,,,,,,,
295822,2022-11-29_23h05.32.415,vts_reward_expectancy_bt,2022.2.4,MacIntel,59.99880002,Chrome,1440,900,,,,,0,1046,,,,,,,,,,,,,,,,,125,D,hexagon,0,1,,,,,,,,,,,,,,,,repeat,letter,NA,k,Hi,,,,,,2.3823,4,,,,,,,,low,17,0,17,0,1,,,,,,,,,
295822,2022-11-29_23h05.32.415,vts_reward_expectancy_bt,2022.2.4,MacIntel,59.99880002,Chrome,1440,900,,,,,10,1056,,,,,,,,,,,,,,,,,139,F,circle,1,1,,,,,,,,,,,,,,,,switch,number,numSwt,d,Lo,,,,,,1.7989,4,,,,,,,,low,18,0,18,0,1,,,,,,,,,
295822,2022-11-29_23h05.32.415,vts_reward_expectancy_bt,2022.2.4,MacIntel,59.99880002,Chrome,1440,900,,,,,10,1066,,,,,,,,,,,,,,,,,174,U,star,1,0,,,,,,,,,,,,,,,,switch,letter,lettSwt,k,Lo,,,,,,1.0529,4,,,,,,,,low,19,0,19,0,1,,,,,,,,,
295822,2022-11-29_23h05.32.415,vts_reward_expectancy_bt,2022.2.4,MacIntel,59.99880002,Chrome,1440,900,,,,,0,1066,,,,,,,,,,,,,,,,,132,Y,triangle,1,0,,,,,,,,,,,,,,,,repeat,letter,lettRpt,k,Hi,,,,,,2.1829,4,,,,,,,,low,20,0,20,0,1,,,,,,,,,
295822,2022-11-29_23h05.32.415,vts_reward_expectancy_bt,2022.2.4,MacIntel,59.99880002,Chrome,1440,900,,,,,0,1066,,,,,,,,,,,,,,,,,181,W,circle,-1,0,,,,,,,,,,,,,,,,switch,no_choice,NA,,Hi,,,,,,,4,,,,,,,,low,21,0,21,0,1,,,,,,,,,
295822,2022-11-29_23h05.32.415,vts_reward_expectancy_bt,2022.2.4,MacIntel,59.99880002,Chrome,1440,900,,,,,10,1076,,,,,,,,,,,,,,,,,160,H,star,1,0,,,,,,,,,,,,,,,,switch,letter,lettSwt,j,Lo,,,,,,0.0618,4,,,,,,,,low,22,0,22,0,1,,,,,,,,,
295822,2022-11-29_23h05.32.415,vts_reward_expectancy_bt,2022.2.4,MacIntel,59.99880002,Chrome,1440,900,,,,,0,1076,,,,,,,,,,,,,,,,,167,B,hexagon,0,0,,,,,,,,,,,,,,,,switch,number,NA,d,Lo,,,,,,0.1004,4,,,,,,,,low,23,0,23,0,1,,,,,,,,,
295822,2022-11-29_23h05.32.415,vts_reward_expectancy_bt,2022.2.4,MacIntel,59.99880002,Chrome,1440,900,,,,,0,1076,,,,,,,,,,,,,,,,,160,W,triangle,-1,1,,,,,,,,,,,,,,,,switch,no_choice,NA,,Lo,,,,,,,4,,,,,,,,low,24,0,24,0,1,,,,,,,,,
295822,2022-11-29_23h05.32.415,vts_reward_expectancy_bt,2022.2.4,MacIntel,59.99880002,Chrome,1440,900,,,,,1,1077,,,,,,,,,,,,,,,,,139,B,circle,1,0,,,,,,,,,,,,,,,,switch,letter,lettSwt,j,Lo,,,,,,0.6339,4,,,,,,,,low,25,0,25,0,1,,,,,,,,,
295822,2022-11-29_23h05.32.415,vts_reward_expectancy_bt,2022.2.4,MacIntel,59.99880002,Chrome,1440,900,,,,,0,1077,,,,,,,,,,,,,,,,,181,D,hexagon,0,0,,,,,,,,,,,,,,,,repeat,letter,NA,k,Lo,,,,,,0.9166,4,,,,,,,,low,26,0,26,0,1,,,,,,,,,
295822,2022-11-29_23h05.32.415,vts_reward_expectancy_bt,2022.2.4,MacIntel,59.99880002,Chrome,1440,900,,,,,0,1077,,,,,,,,,,,,,,,,,132,F,star,0,1,,,,,,,,,,,,,,,,repeat,letter,NA,k,Lo,,,,,,0.8515,4,,,,,,,,low,27,0,27,0,1,,,,,,,,,
295822,2022-11-29_23h05.32.415,vts_reward_expectancy_bt,2022.2.4,MacIntel,59.99880002,Chrome,1440,900,,,,,1,1078,,,,,,,,,,,,,,,,,125,H,star,1,1,,,,,,,,,,,,,,,,repeat,letter,lettRpt,j,Lo,,,,,,1.1806,4,,,,,,,,low,28,0,28,0,1,,,,,,,,,
295822,2022-11-29_23h05.32.415,vts_reward_expectancy_bt,2022.2.4,MacIntel,59.99880002,Chrome,1440,900,,,,,0,1078,,,,,,,,,,,,,,,,,167,S,hexagon,0,0,,,,,,,,,,,,,,,,switch,number,NA,d,Lo,,,,,,2.2296,4,,,,,,,,low,29,0,29,0,1,,,,,,,,,
295822,2022-11-29_23h05.32.415,vts_reward_expectancy_bt,2022.2.4,MacIntel,59.99880002,Chrome,1440,900,,,,,1,1079,,,,,,,,,,,,,,,,,146,Y,circle,1,1,,,,,,,,,,,,,,,,switch,letter,lettSwt,k,Lo,,,,,,1.1651,4,,,,,,,,low,30,0,30,0,1,,,,,,,,,
295822,2022-11-29_23h05.32.415,vts_reward_expectancy_bt,2022.2.4,MacIntel,59.99880002,Chrome,1440,900,,,,,0,1079,,,,,,,,,,,,,,,,,174,U,triangle,1,0,,,,,,,,,,,,,,,,switch,number,numSwt,f,Hi,,,,,,2.1632,4,,,,,,,,low,31,0,31,0,1,,,,,,,,,
295822,2022-11-29_23h05.32.415,vts_reward_expectancy_bt,2022.2.4,MacIntel,59.99880002,Chrome,1440,900,,,,,0,1079,,,,,,,,,,,,,,,,,132,Y,hexagon,-1,0,,,,,,,,,,,,,,,,switch,no_choice,NA,,Hi,,,,,,,5,,,,,,space,6.8921,low,0,0,0,0,1,,,,,,,,,
295822,2022-11-29_23h05.32.415,vts_reward_expectancy_bt,2022.2.4,MacIntel,59.99880002,Chrome,1440,900,,,,,1,1080,,,,,,,,,,,,,,,,,181,F,circle,1,0,,,,,,,,,,,,,,,,switch,letter,lettSwt,j,Lo,,,,,,1.9378,5,,,,,,,,low,1,0,1,0,1,,,,,,,,,
295822,2022-11-29_23h05.32.415,vts_reward_expectancy_bt,2022.2.4,MacIntel,59.99880002,Chrome,1440,900,,,,,0,1080,,,,,,,,,,,,,,,,,167,S,triangle,1,0,,,,,,,,,,,,,,,,repeat,letter,lettRpt,k,Hi,,,,,,1.9652,5,,,,,,,,low,2,0,2,0,1,,,,,,,,,
295822,2022-11-29_23h05.32.415,vts_reward_expectancy_bt,2022.2.4,MacIntel,59.99880002,Chrome,1440,900,,,,,0,1080,,,,,,,,,,,,,,,,,125,B,star,-1,0,,,,,,,,,,,,,,,,switch,no_choice,NA,,Hi,,,,,,,5,,,,,,,,low,3,0,3,0,1,,,,,,,,,
295822,2022-11-29_23h05.32.415,vts_reward_expectancy_bt,2022.2.4,MacIntel,59.99880002,Chrome,1440,900,,,,,1,1081,,,,,,,,,,,,,,,,,146,U,hexagon,1,0,,,,,,,,,,,,,,,,switch,number,numSwt,d,Hi,,,,,,1.2661,5,,,,,,,,low,4,0,4,0,1,,,,,,,,,
295822,2022-11-29_23h05.32.415,vts_reward_expectancy_bt,2022.2.4,MacIntel,59.99880002,Chrome,1440,900,,,,,10,1091,,,,,,,,,,,,,,,,,139,W,circle,1,0,,,,,,,,,,,,,,,,switch,letter,lettSwt,k,Lo,,,,,,1.8661,5,,,,,,,,low,5,0,5,0,1,,,,,,,,,
295822,2022-11-29_23h05.32.415,vts_reward_expectancy_bt,2022.2.4,MacIntel,59.99880002,Chrome,1440,900,,,,,10,1101,,,,,,,,,,,,,,,,,174,D,triangle,1,0,,,,,,,,,,,,,,,,switch,number,numSwt,f,Hi,,,,,,0.9453,5,,,,,,,,low,6,0,6,0,1,,,,,,,,,
295822,2022-11-29_23h05.32.415,vts_reward_expectancy_bt,2022.2.4,MacIntel,59.99880002,Chrome,1440,900,,,,,1,1102,,,,,,,,,,,,,,,,,160,H,star,1,0,,,,,,,,,,,,,,,,repeat,number,numRpt,f,Lo,,,,,,1.8481,5,,,,,,,,low,7,0,7,0,1,,,,,,,,,
295822,2022-11-29_23h05.32.415,vts_reward_expectancy_bt,2022.2.4,MacIntel,59.99880002,Chrome,1440,900,,,,,10,1112,,,,,,,,,,,,,,,,,132,Y,star,1,0,,,,,,,,,,,,,,,,switch,letter,lettSwt,k,Lo,,,,,,2.3154,5,,,,,,,,low,8,0,8,0,1,,,,,,,,,
295822,2022-11-29_23h05.32.415,vts_reward_expectancy_bt,2022.2.4,MacIntel,59.99880002,Chrome,1440,900,,,,,0,1112,,,,,,,,,,,,,,,,,181,F,triangle,-1,0,,,,,,,,,,,,,,,,switch,no_choice,NA,,Lo,,,,,,,5,,,,,,,,low,9,0,9,0,1,,,,,,,,,
295822,2022-11-29_23h05.32.415,vts_reward_expectancy_bt,2022.2.4,MacIntel,59.99880002,Chrome,1440,900,,,,,0,1112,,,,,,,,,,,,,,,,,167,S,hexagon,-1,0,,,,,,,,,,,,,,,,repeat,no_choice,NA,,Lo,,,,,,,5,,,,,,,,low,10,0,10,0,1,,,,,,,,,
295822,2022-11-29_23h05.32.415,vts_reward_expectancy_bt,2022.2.4,MacIntel,59.99880002,Chrome,1440,900,,,,,10,1122,,,,,,,,,,,,,,,,,125,B,circle,1,0,,,,,,,,,,,,,,,,switch,number,numSwt,d,Lo,,,,,,2.5163,5,,,,,,,,low,11,0,11,0,1,,,,,,,,,
