participant,date,expName,psychopyVersion,OS,frameRate,browser,xResolution,yResolution,key_resp.keys,key_resp.rt,training_resp.keys,training_resp.rt,points_trial,points_cumul,trainBlock,training.thisRepN,training.thisTrialN,training.thisN,training.thisIndex,training.ran,LTriangleOpac,LCircleOpac,LHexagonOpac,LStarOpac,RTriangleOpac,RCircleOpac,RHexagonOpac,RStarOpac,LShape_ID,RShape_ID,curr_topStim,curr_bottStim,curr_shape,acc,E1,target_resp_prac1.keys,target_resp_prac1.rt,pracBlock,task1_prac_trials.thisRepN,task1_prac_trials.thisTrialN,task1_prac_trials.thisN,task1_prac_trials.thisIndex,task1_prac_trials.ran,target_resp_prac2.keys,task2_praac_trials.thisRepN,task2_praac_trials.thisTrialN,task2_praac_trials.thisN,task2_praac_trials.thisIndex,task2_praac_trials.ran,target_resp_prac2.rt,alt,task,condition,target_resp.keys,target_resp.rt,rewCond,vts_practice_trials.thisRepN,vts_practice_trials.thisTrialN,vts_practice_trials.thisN,vts_practice_trials.thisIndex,vts_practice_trials.ran,blockNum,trials_norew.thisRepN,trials_norew.thisTrialN,trials_norew.thisN,trials_norew.thisIndex,trials_norew.ran,key_resp_2.keys,key_resp_2.rt,rewExpectancy,trials_rew.thisRepN,trials_rew.thisTrialN,trials_rew.thisN,trials_rew.thisIndex,trials_rew.ran,Q1,Q2,Q2_text,Q3,Q4,Q5_text,Q5,xRes,yRes
295852,2022-12-02_12h01.31.068,vts_reward_expectancy_bt,2022.2.4,MacIntel,120.0048002,Chrome,1728,1117,,,,,,,,,,,,,,,,,,,,,,,,,,,,,,,,,,,,,,,,,,,,,,,,,,,,,,,,,,,,,,,,,,,,,,,,,,,,
295852,2022-12-02_12h01.31.068,vts_reward_expectancy_bt,2022.2.4,MacIntel,120.0048002,Chrome,1728,1117,space,4.696,,,,,,,,,,,,,,,,,,,,,,,,,,,,,,,,,,,,,,,,,,,,,,,,,,,,,,,,,,,,,,,,,,,,,,,,,,
295852,2022-12-02_12h01.31.068,vts_reward_expectancy_bt,2022.2.4,MacIntel,120.0048002,Chrome,1728,1117,,,,,,,,,,,,,,,,,,,,,,,,,,,,,,,,,,,,,,,,,,,,,,,,,,,,,,,,,,,,,,,,,,,,,,,,,,,,
295852,2022-12-02_12h01.31.068,vts_reward_expectancy_bt,2022.2.4,MacIntel,120.0048002,Chrome,1728,1117,,,a,31.8638,10,10,0,0,0,0,11,1,0,0,0,1,0,0,1,0,star,hexagon,,,,,,,,,,,,,,,,,,,,,,,,,,,,,,,,,,,,,,,,,,,,,,,,,,,,,,
295852,2022-12-02_12h01.31.068,vts_reward_expectancy_bt,2022.2.4,MacIntel,120.0048002,Chrome,1728,1117,,,l,3.0389,10,20,0,0,1,1,2,1,1,0,0,0,0,0,0,1,triangle,star,,,,,,,,,,,,,,,,,,,,,,,,,,,,,,,,,,,,,,,,,,,,,,,,,,,,,,
295852,2022-12-02_12h01.31.068,vts_reward_expectancy_bt,2022.2.4,MacIntel,120.0048002,Chrome,1728,1117,,,a,3.0831,10,30,0,0,2,2,6,1,0,0,1,0,1,0,0,0,hexagon,triangle,,,,,,,,,,,,,,,,,,,,,,,,,,,,,,,,,,,,,,,,,,,,,,,,,,,,,,
295852,2022-12-02_12h01.31.068,vts_reward_expectancy_bt,2022.2.4,MacIntel,120.0048002,Chrome,1728,1117,,,a,1.9227,1,31,0,0,3,3,9,1,0,0,0,1,1,0,0,0,star,triangle,,,,,,,,,,,,,,,,,,,,,,,,,,,,,,,,,,,,,,,,,,,,,,,,,,,,,,
295852,2022-12-02_12h01.31.068,vts_reward_expectancy_bt,2022.2.4,MacIntel,120.0048002,Chrome,1728,1117,,,a,1.6874,1,32,0,0,4,4,0,1,1,0,0,0,0,1,0,0,triangle,circle,,,,,,,,,,,,,,,,,,,,,,,,,,,,,,,,,,,,,,,,,,,,,,,,,,,,,,
295852,2022-12-02_12h01.31.068,vts_reward_expectancy_bt,2022.2.4,MacIntel,120.0048002,Chrome,1728,1117,,,a,0.9267,1,33,0,0,5,5,10,1,0,0,0,1,0,1,0,0,star ,circle,,,,,,,,,,,,,,,,,,,,,,,,,,,,,,,,,,,,,,,,,,,,,,,,,,,,,,
295852,2022-12-02_12h01.31.068,vts_reward_expectancy_bt,2022.2.4,MacIntel,120.0048002,Chrome,1728,1117,,,a,0.8797,10,43,0,0,6,6,5,1,0,1,0,0,0,0,0,1,circle,star,,,,,,,,,,,,,,,,,,,,,,,,,,,,,,,,,,,,,,,,,,,,,,,,,,,,,,
295852,2022-12-02_12h01.31.068,vts_reward_expectancy_bt,2022.2.4,MacIntel,120.0048002,Chrome,1728,1117,,,a,4.2401,1,44,0,0,7,7,4,1,0,1,0,0,0,0,1,0,circle,hexagon,,,,,,,,,,,,,,,,,,,,,,,,,,,,,,,,,,,,,,,,,,,,,,,,,,,,,,
295852,2022-12-02_12h01.31.068,vts_reward_expectancy_bt,2022.2.4,MacIntel,120.0048002,Chrome,1728,1117,,,l,1.5208,1,45,0,0,8,8,1,1,1,0,0,0,0,0,1,0,triangle,hexagon,,,,,,,,,,,,,,,,,,,,,,,,,,,,,,,,,,,,,,,,,,,,,,,,,,,,,,
295852,2022-12-02_12h01.31.068,vts_reward_expectancy_bt,2022.2.4,MacIntel,120.0048002,Chrome,1728,1117,,,l,1.4032,1,46,0,0,9,9,3,1,0,1,0,0,1,0,0,0,circle,triangle,,,,,,,,,,,,,,,,,,,,,,,,,,,,,,,,,,,,,,,,,,,,,,,,,,,,,,
295852,2022-12-02_12h01.31.068,vts_reward_expectancy_bt,2022.2.4,MacIntel,120.0048002,Chrome,1728,1117,,,l,1.0163,10,56,0,0,10,10,8,1,0,0,1,0,0,0,0,1,hexagon,star,,,,,,,,,,,,,,,,,,,,,,,,,,,,,,,,,,,,,,,,,,,,,,,,,,,,,,
295852,2022-12-02_12h01.31.068,vts_reward_expectancy_bt,2022.2.4,MacIntel,120.0048002,Chrome,1728,1117,,,l,0.5031,1,57,0,0,11,11,7,1,0,0,1,0,0,1,0,0,hexagon,circle,,,,,,,,,,,,,,,,,,,,,,,,,,,,,,,,,,,,,,,,,,,,,,,,,,,,,,
295852,2022-12-02_12h01.31.068,vts_reward_expectancy_bt,2022.2.4,MacIntel,120.0048002,Chrome,1728,1117,,,l,0.2417,1,58,0,1,0,12,6,1,0,0,1,0,1,0,0,0,hexagon,triangle,,,,,,,,,,,,,,,,,,,,,,,,,,,,,,,,,,,,,,,,,,,,,,,,,,,,,,
295852,2022-12-02_12h01.31.068,vts_reward_expectancy_bt,2022.2.4,MacIntel,120.0048002,Chrome,1728,1117,,,l,0.2232,10,68,0,1,1,13,0,1,1,0,0,0,0,1,0,0,triangle,circle,,,,,,,,,,,,,,,,,,,,,,,,,,,,,,,,,,,,,,,,,,,,,,,,,,,,,,
295852,2022-12-02_12h01.31.068,vts_reward_expectancy_bt,2022.2.4,MacIntel,120.0048002,Chrome,1728,1117,,,a,0.1775,1,69,0,1,2,14,11,1,0,0,0,1,0,0,1,0,star,hexagon,,,,,,,,,,,,,,,,,,,,,,,,,,,,,,,,,,,,,,,,,,,,,,,,,,,,,,
295852,2022-12-02_12h01.31.068,vts_reward_expectancy_bt,2022.2.4,MacIntel,120.0048002,Chrome,1728,1117,,,a,0.3272,10,79,0,1,3,15,4,1,0,1,0,0,0,0,1,0,circle,hexagon,,,,,,,,,,,,,,,,,,,,,,,,,,,,,,,,,,,,,,,,,,,,,,,,,,,,,,
295852,2022-12-02_12h01.31.068,vts_reward_expectancy_bt,2022.2.4,MacIntel,120.0048002,Chrome,1728,1117,,,l,0.3095,1,80,0,1,4,16,9,1,0,0,0,1,1,0,0,0,star,triangle,,,,,,,,,,,,,,,,,,,,,,,,,,,,,,,,,,,,,,,,,,,,,,,,,,,,,,
295852,2022-12-02_12h01.31.068,vts_reward_expectancy_bt,2022.2.4,MacIntel,120.0048002,Chrome,1728,1117,,,l,0.7555,10,90,0,1,5,17,1,1,1,0,0,0,0,0,1,0,triangle,hexagon,,,,,,,,,,,,,,,,,,,,,,,,,,,,,,,,,,,,,,,,,,,,,,,,,,,,,,
295852,2022-12-02_12h01.31.068,vts_reward_expectancy_bt,2022.2.4,MacIntel,120.0048002,Chrome,1728,1117,,,l,0.7861,1,91,0,1,6,18,8,1,0,0,1,0,0,0,0,1,hexagon,star,,,,,,,,,,,,,,,,,,,,,,,,,,,,,,,,,,,,,,,,,,,,,,,,,,,,,,
295852,2022-12-02_12h01.31.068,vts_reward_expectancy_bt,2022.2.4,MacIntel,120.0048002,Chrome,1728,1117,,,a,0.5134,10,101,0,1,7,19,3,1,0,1,0,0,1,0,0,0,circle,triangle,,,,,,,,,,,,,,,,,,,,,,,,,,,,,,,,,,,,,,,,,,,,,,,,,,,,,,
295852,2022-12-02_12h01.31.068,vts_reward_expectancy_bt,2022.2.4,MacIntel,120.0048002,Chrome,1728,1117,,,a,0.8655,10,111,0,1,8,20,10,1,0,0,0,1,0,1,0,0,star ,circle,,,,,,,,,,,,,,,,,,,,,,,,,,,,,,,,,,,,,,,,,,,,,,,,,,,,,,
295852,2022-12-02_12h01.31.068,vts_reward_expectancy_bt,2022.2.4,MacIntel,120.0048002,Chrome,1728,1117,,,l,0.4735,10,121,0,1,9,21,5,1,0,1,0,0,0,0,0,1,circle,star,,,,,,,,,,,,,,,,,,,,,,,,,,,,,,,,,,,,,,,,,,,,,,,,,,,,,,
295852,2022-12-02_12h01.31.068,vts_reward_expectancy_bt,2022.2.4,MacIntel,120.0048002,Chrome,1728,1117,,,l,0.4316,1,122,0,1,10,22,7,1,0,0,1,0,0,1,0,0,hexagon,circle,,,,,,,,,,,,,,,,,,,,,,,,,,,,,,,,,,,,,,,,,,,,,,,,,,,,,,
295852,2022-12-02_12h01.31.068,vts_reward_expectancy_bt,2022.2.4,MacIntel,120.0048002,Chrome,1728,1117,,,a,0.3585,10,132,0,1,11,23,2,1,1,0,0,0,0,0,0,1,triangle,star,,,,,,,,,,,,,,,,,,,,,,,,,,,,,,,,,,,,,,,,,,,,,,,,,,,,,,
295852,2022-12-02_12h01.31.068,vts_reward_expectancy_bt,2022.2.4,MacIntel,120.0048002,Chrome,1728,1117,,,l,0.2505,1,133,0,2,0,24,10,1,0,0,0,1,0,1,0,0,star ,circle,,,,,,,,,,,,,,,,,,,,,,,,,,,,,,,,,,,,,,,,,,,,,,,,,,,,,,
295852,2022-12-02_12h01.31.068,vts_reward_expectancy_bt,2022.2.4,MacIntel,120.0048002,Chrome,1728,1117,,,l,0.3403,1,134,0,2,1,25,2,1,1,0,0,0,0,0,0,1,triangle,star,,,,,,,,,,,,,,,,,,,,,,,,,,,,,,,,,,,,,,,,,,,,,,,,,,,,,,
295852,2022-12-02_12h01.31.068,vts_reward_expectancy_bt,2022.2.4,MacIntel,120.0048002,Chrome,1728,1117,,,l,0.28,10,144,0,2,2,26,5,1,0,1,0,0,0,0,0,1,circle,star,,,,,,,,,,,,,,,,,,,,,,,,,,,,,,,,,,,,,,,,,,,,,,,,,,,,,,
295852,2022-12-02_12h01.31.068,vts_reward_expectancy_bt,2022.2.4,MacIntel,120.0048002,Chrome,1728,1117,,,l,0.4812,1,145,0,2,3,27,8,1,0,0,1,0,0,0,0,1,hexagon,star,,,,,,,,,,,,,,,,,,,,,,,,,,,,,,,,,,,,,,,,,,,,,,,,,,,,,,
295852,2022-12-02_12h01.31.068,vts_reward_expectancy_bt,2022.2.4,MacIntel,120.0048002,Chrome,1728,1117,,,l,0.281,10,155,0,2,4,28,11,1,0,0,0,1,0,0,1,0,star,hexagon,,,,,,,,,,,,,,,,,,,,,,,,,,,,,,,,,,,,,,,,,,,,,,,,,,,,,,
295852,2022-12-02_12h01.31.068,vts_reward_expectancy_bt,2022.2.4,MacIntel,120.0048002,Chrome,1728,1117,,,a,0.3696,10,165,0,2,5,29,3,1,0,1,0,0,1,0,0,0,circle,triangle,,,,,,,,,,,,,,,,,,,,,,,,,,,,,,,,,,,,,,,,,,,,,,,,,,,,,,
295852,2022-12-02_12h01.31.068,vts_reward_expectancy_bt,2022.2.4,MacIntel,120.0048002,Chrome,1728,1117,,,l,0.4101,1,166,0,2,6,30,6,1,0,0,1,0,1,0,0,0,hexagon,triangle,,,,,,,,,,,,,,,,,,,,,,,,,,,,,,,,,,,,,,,,,,,,,,,,,,,,,,
295852,2022-12-02_12h01.31.068,vts_reward_expectancy_bt,2022.2.4,MacIntel,120.0048002,Chrome,1728,1117,,,l,0.2401,1,167,0,2,7,31,7,1,0,0,1,0,0,1,0,0,hexagon,circle,,,,,,,,,,,,,,,,,,,,,,,,,,,,,,,,,,,,,,,,,,,,,,,,,,,,,,
295852,2022-12-02_12h01.31.068,vts_reward_expectancy_bt,2022.2.4,MacIntel,120.0048002,Chrome,1728,1117,,,l,0.343,10,177,0,2,8,32,1,1,1,0,0,0,0,0,1,0,triangle,hexagon,,,,,,,,,,,,,,,,,,,,,,,,,,,,,,,,,,,,,,,,,,,,,,,,,,,,,,
295852,2022-12-02_12h01.31.068,vts_reward_expectancy_bt,2022.2.4,MacIntel,120.0048002,Chrome,1728,1117,,,a,0.3409,1,178,0,2,9,33,9,1,0,0,0,1,1,0,0,0,star,triangle,,,,,,,,,,,,,,,,,,,,,,,,,,,,,,,,,,,,,,,,,,,,,,,,,,,,,,
295852,2022-12-02_12h01.31.068,vts_reward_expectancy_bt,2022.2.4,MacIntel,120.0048002,Chrome,1728,1117,,,l,0.2893,10,188,0,2,10,34,4,1,0,1,0,0,0,0,1,0,circle,hexagon,,,,,,,,,,,,,,,,,,,,,,,,,,,,,,,,,,,,,,,,,,,,,,,,,,,,,,
295852,2022-12-02_12h01.31.068,vts_reward_expectancy_bt,2022.2.4,MacIntel,120.0048002,Chrome,1728,1117,,,l,1.1377,10,198,0,2,11,35,0,1,1,0,0,0,0,1,0,0,triangle,circle,,,,,,,,,,,,,,,,,,,,,,,,,,,,,,,,,,,,,,,,,,,,,,,,,,,,,,
295852,2022-12-02_12h01.31.068,vts_reward_expectancy_bt,2022.2.4,MacIntel,120.0048002,Chrome,1728,1117,,,a,8.0384,10,208,1,0,0,0,11,1,0,0,0,1,0,0,1,0,star,hexagon,,,,,,,,,,,,,,,,,,,,,,,,,,,,,,,,,,,,,,,,,,,,,,,,,,,,,,
295852,2022-12-02_12h01.31.068,vts_reward_expectancy_bt,2022.2.4,MacIntel,120.0048002,Chrome,1728,1117,,,l,0.5648,1,209,1,0,1,1,8,1,0,0,1,0,0,0,0,1,hexagon,star,,,,,,,,,,,,,,,,,,,,,,,,,,,,,,,,,,,,,,,,,,,,,,,,,,,,,,
295852,2022-12-02_12h01.31.068,vts_reward_expectancy_bt,2022.2.4,MacIntel,120.0048002,Chrome,1728,1117,,,a,0.5939,10,219,1,0,2,2,4,1,0,1,0,0,0,0,1,0,circle,hexagon,,,,,,,,,,,,,,,,,,,,,,,,,,,,,,,,,,,,,,,,,,,,,,,,,,,,,,
295852,2022-12-02_12h01.31.068,vts_reward_expectancy_bt,2022.2.4,MacIntel,120.0048002,Chrome,1728,1117,,,l,0.7165,1,220,1,0,3,3,3,1,0,1,0,0,1,0,0,0,circle,triangle,,,,,,,,,,,,,,,,,,,,,,,,,,,,,,,,,,,,,,,,,,,,,,,,,,,,,,
295852,2022-12-02_12h01.31.068,vts_reward_expectancy_bt,2022.2.4,MacIntel,120.0048002,Chrome,1728,1117,,,l,0.9895,10,230,1,0,4,4,7,1,0,0,1,0,0,1,0,0,hexagon,circle,,,,,,,,,,,,,,,,,,,,,,,,,,,,,,,,,,,,,,,,,,,,,,,,,,,,,,
295852,2022-12-02_12h01.31.068,vts_reward_expectancy_bt,2022.2.4,MacIntel,120.0048002,Chrome,1728,1117,,,a,0.8998,1,231,1,0,5,5,9,1,0,0,0,1,1,0,0,0,star,triangle,,,,,,,,,,,,,,,,,,,,,,,,,,,,,,,,,,,,,,,,,,,,,,,,,,,,,,
295852,2022-12-02_12h01.31.068,vts_reward_expectancy_bt,2022.2.4,MacIntel,120.0048002,Chrome,1728,1117,,,a,2.232,1,232,1,0,6,6,1,1,1,0,0,0,0,0,1,0,triangle,hexagon,,,,,,,,,,,,,,,,,,,,,,,,,,,,,,,,,,,,,,,,,,,,,,,,,,,,,,
295852,2022-12-02_12h01.31.068,vts_reward_expectancy_bt,2022.2.4,MacIntel,120.0048002,Chrome,1728,1117,,,a,0.2464,1,233,1,0,7,7,10,1,0,0,0,1,0,1,0,0,star ,circle,,,,,,,,,,,,,,,,,,,,,,,,,,,,,,,,,,,,,,,,,,,,,,,,,,,,,,
295852,2022-12-02_12h01.31.068,vts_reward_expectancy_bt,2022.2.4,MacIntel,120.0048002,Chrome,1728,1117,,,a,0.265,10,243,1,0,8,8,6,1,0,0,1,0,1,0,0,0,hexagon,triangle,,,,,,,,,,,,,,,,,,,,,,,,,,,,,,,,,,,,,,,,,,,,,,,,,,,,,,
295852,2022-12-02_12h01.31.068,vts_reward_expectancy_bt,2022.2.4,MacIntel,120.0048002,Chrome,1728,1117,,,l,0.3104,1,244,1,0,9,9,0,1,1,0,0,0,0,1,0,0,triangle,circle,,,,,,,,,,,,,,,,,,,,,,,,,,,,,,,,,,,,,,,,,,,,,,,,,,,,,,
295852,2022-12-02_12h01.31.068,vts_reward_expectancy_bt,2022.2.4,MacIntel,120.0048002,Chrome,1728,1117,,,l,0.3008,1,245,1,0,10,10,2,1,1,0,0,0,0,0,0,1,triangle,star,,,,,,,,,,,,,,,,,,,,,,,,,,,,,,,,,,,,,,,,,,,,,,,,,,,,,,
295852,2022-12-02_12h01.31.068,vts_reward_expectancy_bt,2022.2.4,MacIntel,120.0048002,Chrome,1728,1117,,,l,0.1211,1,246,1,0,11,11,5,1,0,1,0,0,0,0,0,1,circle,star,,,,,,,,,,,,,,,,,,,,,,,,,,,,,,,,,,,,,,,,,,,,,,,,,,,,,,
295852,2022-12-02_12h01.31.068,vts_reward_expectancy_bt,2022.2.4,MacIntel,120.0048002,Chrome,1728,1117,,,l,0.2402,1,247,1,1,0,12,3,1,0,1,0,0,1,0,0,0,circle,triangle,,,,,,,,,,,,,,,,,,,,,,,,,,,,,,,,,,,,,,,,,,,,,,,,,,,,,,
295852,2022-12-02_12h01.31.068,vts_reward_expectancy_bt,2022.2.4,MacIntel,120.0048002,Chrome,1728,1117,,,l,0.2632,10,257,1,1,1,13,11,1,0,0,0,1,0,0,1,0,star,hexagon,,,,,,,,,,,,,,,,,,,,,,,,,,,,,,,,,,,,,,,,,,,,,,,,,,,,,,
295852,2022-12-02_12h01.31.068,vts_reward_expectancy_bt,2022.2.4,MacIntel,120.0048002,Chrome,1728,1117,,,l,0.3096,10,267,1,1,2,14,10,1,0,0,0,1,0,1,0,0,star ,circle,,,,,,,,,,,,,,,,,,,,,,,,,,,,,,,,,,,,,,,,,,,,,,,,,,,,,,
295852,2022-12-02_12h01.31.068,vts_reward_expectancy_bt,2022.2.4,MacIntel,120.0048002,Chrome,1728,1117,,,a,0.2297,10,277,1,1,3,15,7,1,0,0,1,0,0,1,0,0,hexagon,circle,,,,,,,,,,,,,,,,,,,,,,,,,,,,,,,,,,,,,,,,,,,,,,,,,,,,,,
295852,2022-12-02_12h01.31.068,vts_reward_expectancy_bt,2022.2.4,MacIntel,120.0048002,Chrome,1728,1117,,,a,0.3603,10,287,1,1,4,16,0,1,1,0,0,0,0,1,0,0,triangle,circle,,,,,,,,,,,,,,,,,,,,,,,,,,,,,,,,,,,,,,,,,,,,,,,,,,,,,,
295852,2022-12-02_12h01.31.068,vts_reward_expectancy_bt,2022.2.4,MacIntel,120.0048002,Chrome,1728,1117,,,l,0.3484,1,288,1,1,5,17,1,1,1,0,0,0,0,0,1,0,triangle,hexagon,,,,,,,,,,,,,,,,,,,,,,,,,,,,,,,,,,,,,,,,,,,,,,,,,,,,,,
295852,2022-12-02_12h01.31.068,vts_reward_expectancy_bt,2022.2.4,MacIntel,120.0048002,Chrome,1728,1117,,,l,0.1988,10,298,1,1,6,18,4,1,0,1,0,0,0,0,1,0,circle,hexagon,,,,,,,,,,,,,,,,,,,,,,,,,,,,,,,,,,,,,,,,,,,,,,,,,,,,,,
295852,2022-12-02_12h01.31.068,vts_reward_expectancy_bt,2022.2.4,MacIntel,120.0048002,Chrome,1728,1117,,,l,0.8412,1,299,1,1,7,19,8,1,0,0,1,0,0,0,0,1,hexagon,star,,,,,,,,,,,,,,,,,,,,,,,,,,,,,,,,,,,,,,,,,,,,,,,,,,,,,,
295852,2022-12-02_12h01.31.068,vts_reward_expectancy_bt,2022.2.4,MacIntel,120.0048002,Chrome,1728,1117,,,a,0.8636,10,309,1,1,8,20,6,1,0,0,1,0,1,0,0,0,hexagon,triangle,,,,,,,,,,,,,,,,,,,,,,,,,,,,,,,,,,,,,,,,,,,,,,,,,,,,,,
295852,2022-12-02_12h01.31.068,vts_reward_expectancy_bt,2022.2.4,MacIntel,120.0048002,Chrome,1728,1117,,,a,0.2489,1,310,1,1,9,21,2,1,1,0,0,0,0,0,0,1,triangle,star,,,,,,,,,,,,,,,,,,,,,,,,,,,,,,,,,,,,,,,,,,,,,,,,,,,,,,
295852,2022-12-02_12h01.31.068,vts_reward_expectancy_bt,2022.2.4,MacIntel,120.0048002,Chrome,1728,1117,,,l,0.3112,1,311,1,1,10,22,5,1,0,1,0,0,0,0,0,1,circle,star,,,,,,,,,,,,,,,,,,,,,,,,,,,,,,,,,,,,,,,,,,,,,,,,,,,,,,
295852,2022-12-02_12h01.31.068,vts_reward_expectancy_bt,2022.2.4,MacIntel,120.0048002,Chrome,1728,1117,,,l,0.2337,1,312,1,1,11,23,9,1,0,0,0,1,1,0,0,0,star,triangle,,,,,,,,,,,,,,,,,,,,,,,,,,,,,,,,,,,,,,,,,,,,,,,,,,,,,,
295852,2022-12-02_12h01.31.068,vts_reward_expectancy_bt,2022.2.4,MacIntel,120.0048002,Chrome,1728,1117,,,l,0.3245,1,313,1,2,0,24,6,1,0,0,1,0,1,0,0,0,hexagon,triangle,,,,,,,,,,,,,,,,,,,,,,,,,,,,,,,,,,,,,,,,,,,,,,,,,,,,,,
295852,2022-12-02_12h01.31.068,vts_reward_expectancy_bt,2022.2.4,MacIntel,120.0048002,Chrome,1728,1117,,,l,0.2556,10,323,1,2,1,25,10,1,0,0,0,1,0,1,0,0,star ,circle,,,,,,,,,,,,,,,,,,,,,,,,,,,,,,,,,,,,,,,,,,,,,,,,,,,,,,
295852,2022-12-02_12h01.31.068,vts_reward_expectancy_bt,2022.2.4,MacIntel,120.0048002,Chrome,1728,1117,,,a,0.374,10,333,1,2,2,26,5,1,0,1,0,0,0,0,0,1,circle,star,,,,,,,,,,,,,,,,,,,,,,,,,,,,,,,,,,,,,,,,,,,,,,,,,,,,,,
295852,2022-12-02_12h01.31.068,vts_reward_expectancy_bt,2022.2.4,MacIntel,120.0048002,Chrome,1728,1117,,,a,0.4317,10,343,1,2,3,27,0,1,1,0,0,0,0,1,0,0,triangle,circle,,,,,,,,,,,,,,,,,,,,,,,,,,,,,,,,,,,,,,,,,,,,,,,,,,,,,,
295852,2022-12-02_12h01.31.068,vts_reward_expectancy_bt,2022.2.4,MacIntel,120.0048002,Chrome,1728,1117,,,l,0.8409,10,353,1,2,4,28,1,1,1,0,0,0,0,0,1,0,triangle,hexagon,,,,,,,,,,,,,,,,,,,,,,,,,,,,,,,,,,,,,,,,,,,,,,,,,,,,,,
295852,2022-12-02_12h01.31.068,vts_reward_expectancy_bt,2022.2.4,MacIntel,120.0048002,Chrome,1728,1117,,,a,0.5546,1,354,1,2,5,29,11,1,0,0,0,1,0,0,1,0,star,hexagon,,,,,,,,,,,,,,,,,,,,,,,,,,,,,,,,,,,,,,,,,,,,,,,,,,,,,,
295852,2022-12-02_12h01.31.068,vts_reward_expectancy_bt,2022.2.4,MacIntel,120.0048002,Chrome,1728,1117,,,a,0.3169,10,364,1,2,6,30,3,1,0,1,0,0,1,0,0,0,circle,triangle,,,,,,,,,,,,,,,,,,,,,,,,,,,,,,,,,,,,,,,,,,,,,,,,,,,,,,
295852,2022-12-02_12h01.31.068,vts_reward_expectancy_bt,2022.2.4,MacIntel,120.0048002,Chrome,1728,1117,,,a,0.4275,1,365,1,2,7,31,8,1,0,0,1,0,0,0,0,1,hexagon,star,,,,,,,,,,,,,,,,,,,,,,,,,,,,,,,,,,,,,,,,,,,,,,,,,,,,,,
295852,2022-12-02_12h01.31.068,vts_reward_expectancy_bt,2022.2.4,MacIntel,120.0048002,Chrome,1728,1117,,,l,0.4225,10,375,1,2,8,32,2,1,1,0,0,0,0,0,0,1,triangle,star,,,,,,,,,,,,,,,,,,,,,,,,,,,,,,,,,,,,,,,,,,,,,,,,,,,,,,
295852,2022-12-02_12h01.31.068,vts_reward_expectancy_bt,2022.2.4,MacIntel,120.0048002,Chrome,1728,1117,,,l,0.5041,10,385,1,2,9,33,9,1,0,0,0,1,1,0,0,0,star,triangle,,,,,,,,,,,,,,,,,,,,,,,,,,,,,,,,,,,,,,,,,,,,,,,,,,,,,,
295852,2022-12-02_12h01.31.068,vts_reward_expectancy_bt,2022.2.4,MacIntel,120.0048002,Chrome,1728,1117,,,a,0.3216,10,395,1,2,10,34,7,1,0,0,1,0,0,1,0,0,hexagon,circle,,,,,,,,,,,,,,,,,,,,,,,,,,,,,,,,,,,,,,,,,,,,,,,,,,,,,,
295852,2022-12-02_12h01.31.068,vts_reward_expectancy_bt,2022.2.4,MacIntel,120.0048002,Chrome,1728,1117,,,a,0.4014,1,396,1,2,11,35,4,1,0,1,0,0,0,0,1,0,circle,hexagon,,,,,,,,,,,,,,,,,,,,,,,,,,,,,,,,,,,,,,,,,,,,,,,,,,,,,,
295852,2022-12-02_12h01.31.068,vts_reward_expectancy_bt,2022.2.4,MacIntel,120.0048002,Chrome,1728,1117,,,l,0.8738,10,406,2,0,0,0,2,1,1,0,0,0,0,0,0,1,triangle,star,,,,,,,,,,,,,,,,,,,,,,,,,,,,,,,,,,,,,,,,,,,,,,,,,,,,,,
295852,2022-12-02_12h01.31.068,vts_reward_expectancy_bt,2022.2.4,MacIntel,120.0048002,Chrome,1728,1117,,,l,0.6885,10,416,2,0,1,1,0,1,1,0,0,0,0,1,0,0,triangle,circle,,,,,,,,,,,,,,,,,,,,,,,,,,,,,,,,,,,,,,,,,,,,,,,,,,,,,,
295852,2022-12-02_12h01.31.068,vts_reward_expectancy_bt,2022.2.4,MacIntel,120.0048002,Chrome,1728,1117,,,a,0.3907,10,426,2,0,2,2,7,1,0,0,1,0,0,1,0,0,hexagon,circle,,,,,,,,,,,,,,,,,,,,,,,,,,,,,,,,,,,,,,,,,,,,,,,,,,,,,,
295852,2022-12-02_12h01.31.068,vts_reward_expectancy_bt,2022.2.4,MacIntel,120.0048002,Chrome,1728,1117,,,l,0.3568,10,436,2,0,3,3,4,1,0,1,0,0,0,0,1,0,circle,hexagon,,,,,,,,,,,,,,,,,,,,,,,,,,,,,,,,,,,,,,,,,,,,,,,,,,,,,,
295852,2022-12-02_12h01.31.068,vts_reward_expectancy_bt,2022.2.4,MacIntel,120.0048002,Chrome,1728,1117,,,a,0.4989,10,446,2,0,4,4,10,1,0,0,0,1,0,1,0,0,star ,circle,,,,,,,,,,,,,,,,,,,,,,,,,,,,,,,,,,,,,,,,,,,,,,,,,,,,,,
295852,2022-12-02_12h01.31.068,vts_reward_expectancy_bt,2022.2.4,MacIntel,120.0048002,Chrome,1728,1117,,,a,0.4208,1,447,2,0,5,5,9,1,0,0,0,1,1,0,0,0,star,triangle,,,,,,,,,,,,,,,,,,,,,,,,,,,,,,,,,,,,,,,,,,,,,,,,,,,,,,
295852,2022-12-02_12h01.31.068,vts_reward_expectancy_bt,2022.2.4,MacIntel,120.0048002,Chrome,1728,1117,,,l,4.6456,1,448,2,0,6,6,11,1,0,0,0,1,0,0,1,0,star,hexagon,,,,,,,,,,,,,,,,,,,,,,,,,,,,,,,,,,,,,,,,,,,,,,,,,,,,,,
295852,2022-12-02_12h01.31.068,vts_reward_expectancy_bt,2022.2.4,MacIntel,120.0048002,Chrome,1728,1117,,,l,1.7101,10,458,2,0,7,7,1,1,1,0,0,0,0,0,1,0,triangle,hexagon,,,,,,,,,,,,,,,,,,,,,,,,,,,,,,,,,,,,,,,,,,,,,,,,,,,,,,
295852,2022-12-02_12h01.31.068,vts_reward_expectancy_bt,2022.2.4,MacIntel,120.0048002,Chrome,1728,1117,,,a,2.0485,1,459,2,0,8,8,8,1,0,0,1,0,0,0,0,1,hexagon,star,,,,,,,,,,,,,,,,,,,,,,,,,,,,,,,,,,,,,,,,,,,,,,,,,,,,,,
295852,2022-12-02_12h01.31.068,vts_reward_expectancy_bt,2022.2.4,MacIntel,120.0048002,Chrome,1728,1117,,,a,2.9727,10,469,2,0,9,9,6,1,0,0,1,0,1,0,0,0,hexagon,triangle,,,,,,,,,,,,,,,,,,,,,,,,,,,,,,,,,,,,,,,,,,,,,,,,,,,,,,
295852,2022-12-02_12h01.31.068,vts_reward_expectancy_bt,2022.2.4,MacIntel,120.0048002,Chrome,1728,1117,,,a,2.8045,10,479,2,0,10,10,5,1,0,1,0,0,0,0,0,1,circle,star,,,,,,,,,,,,,,,,,,,,,,,,,,,,,,,,,,,,,,,,,,,,,,,,,,,,,,
295852,2022-12-02_12h01.31.068,vts_reward_expectancy_bt,2022.2.4,MacIntel,120.0048002,Chrome,1728,1117,,,l,1.5213,10,489,2,0,11,11,3,1,0,1,0,0,1,0,0,0,circle,triangle,,,,,,,,,,,,,,,,,,,,,,,,,,,,,,,,,,,,,,,,,,,,,,,,,,,,,,
295852,2022-12-02_12h01.31.068,vts_reward_expectancy_bt,2022.2.4,MacIntel,120.0048002,Chrome,1728,1117,,,a,6.0467,1,490,2,1,0,12,6,1,0,0,1,0,1,0,0,0,hexagon,triangle,,,,,,,,,,,,,,,,,,,,,,,,,,,,,,,,,,,,,,,,,,,,,,,,,,,,,,
295852,2022-12-02_12h01.31.068,vts_reward_expectancy_bt,2022.2.4,MacIntel,120.0048002,Chrome,1728,1117,,,a,1.5406,1,491,2,1,1,13,11,1,0,0,0,1,0,0,1,0,star,hexagon,,,,,,,,,,,,,,,,,,,,,,,,,,,,,,,,,,,,,,,,,,,,,,,,,,,,,,
295852,2022-12-02_12h01.31.068,vts_reward_expectancy_bt,2022.2.4,MacIntel,120.0048002,Chrome,1728,1117,,,l,2.8624,10,501,2,1,2,14,2,1,1,0,0,0,0,0,0,1,triangle,star,,,,,,,,,,,,,,,,,,,,,,,,,,,,,,,,,,,,,,,,,,,,,,,,,,,,,,
295852,2022-12-02_12h01.31.068,vts_reward_expectancy_bt,2022.2.4,MacIntel,120.0048002,Chrome,1728,1117,,,l,1.6182,1,502,2,1,3,15,5,1,0,1,0,0,0,0,0,1,circle,star,,,,,,,,,,,,,,,,,,,,,,,,,,,,,,,,,,,,,,,,,,,,,,,,,,,,,,
295852,2022-12-02_12h01.31.068,vts_reward_expectancy_bt,2022.2.4,MacIntel,120.0048002,Chrome,1728,1117,,,l,1.5143,10,512,2,1,4,16,7,1,0,0,1,0,0,1,0,0,hexagon,circle,,,,,,,,,,,,,,,,,,,,,,,,,,,,,,,,,,,,,,,,,,,,,,,,,,,,,,
295852,2022-12-02_12h01.31.068,vts_reward_expectancy_bt,2022.2.4,MacIntel,120.0048002,Chrome,1728,1117,,,a,0.7494,10,522,2,1,5,17,3,1,0,1,0,0,1,0,0,0,circle,triangle,,,,,,,,,,,,,,,,,,,,,,,,,,,,,,,,,,,,,,,,,,,,,,,,,,,,,,
295852,2022-12-02_12h01.31.068,vts_reward_expectancy_bt,2022.2.4,MacIntel,120.0048002,Chrome,1728,1117,,,a,0.7074,1,523,2,1,6,18,4,1,0,1,0,0,0,0,1,0,circle,hexagon,,,,,,,,,,,,,,,,,,,,,,,,,,,,,,,,,,,,,,,,,,,,,,,,,,,,,,
295852,2022-12-02_12h01.31.068,vts_reward_expectancy_bt,2022.2.4,MacIntel,120.0048002,Chrome,1728,1117,,,l,3.7644,1,524,2,1,7,19,8,1,0,0,1,0,0,0,0,1,hexagon,star,,,,,,,,,,,,,,,,,,,,,,,,,,,,,,,,,,,,,,,,,,,,,,,,,,,,,,
295852,2022-12-02_12h01.31.068,vts_reward_expectancy_bt,2022.2.4,MacIntel,120.0048002,Chrome,1728,1117,,,l,1.0695,1,525,2,1,8,20,10,1,0,0,0,1,0,1,0,0,star ,circle,,,,,,,,,,,,,,,,,,,,,,,,,,,,,,,,,,,,,,,,,,,,,,,,,,,,,,
295852,2022-12-02_12h01.31.068,vts_reward_expectancy_bt,2022.2.4,MacIntel,120.0048002,Chrome,1728,1117,,,a,1.5752,10,535,2,1,9,21,1,1,1,0,0,0,0,0,1,0,triangle,hexagon,,,,,,,,,,,,,,,,,,,,,,,,,,,,,,,,,,,,,,,,,,,,,,,,,,,,,,
295852,2022-12-02_12h01.31.068,vts_reward_expectancy_bt,2022.2.4,MacIntel,120.0048002,Chrome,1728,1117,,,l,0.6548,10,545,2,1,10,22,9,1,0,0,0,1,1,0,0,0,star,triangle,,,,,,,,,,,,,,,,,,,,,,,,,,,,,,,,,,,,,,,,,,,,,,,,,,,,,,
295852,2022-12-02_12h01.31.068,vts_reward_expectancy_bt,2022.2.4,MacIntel,120.0048002,Chrome,1728,1117,,,l,0.9563,10,555,2,1,11,23,0,1,1,0,0,0,0,1,0,0,triangle,circle,,,,,,,,,,,,,,,,,,,,,,,,,,,,,,,,,,,,,,,,,,,,,,,,,,,,,,
295852,2022-12-02_12h01.31.068,vts_reward_expectancy_bt,2022.2.4,MacIntel,120.0048002,Chrome,1728,1117,,,l,1.614,10,565,2,2,0,24,11,1,0,0,0,1,0,0,1,0,star,hexagon,,,,,,,,,,,,,,,,,,,,,,,,,,,,,,,,,,,,,,,,,,,,,,,,,,,,,,
295852,2022-12-02_12h01.31.068,vts_reward_expectancy_bt,2022.2.4,MacIntel,120.0048002,Chrome,1728,1117,,,a,0.9609,1,566,2,2,1,25,6,1,0,0,1,0,1,0,0,0,hexagon,triangle,,,,,,,,,,,,,,,,,,,,,,,,,,,,,,,,,,,,,,,,,,,,,,,,,,,,,,
295852,2022-12-02_12h01.31.068,vts_reward_expectancy_bt,2022.2.4,MacIntel,120.0048002,Chrome,1728,1117,,,a,0.9949,10,576,2,2,2,26,3,1,0,1,0,0,1,0,0,0,circle,triangle,,,,,,,,,,,,,,,,,,,,,,,,,,,,,,,,,,,,,,,,,,,,,,,,,,,,,,
295852,2022-12-02_12h01.31.068,vts_reward_expectancy_bt,2022.2.4,MacIntel,120.0048002,Chrome,1728,1117,,,a,0.5461,1,577,2,2,3,27,4,1,0,1,0,0,0,0,1,0,circle,hexagon,,,,,,,,,,,,,,,,,,,,,,,,,,,,,,,,,,,,,,,,,,,,,,,,,,,,,,
295852,2022-12-02_12h01.31.068,vts_reward_expectancy_bt,2022.2.4,MacIntel,120.0048002,Chrome,1728,1117,,,a,2.4812,1,578,2,2,4,28,9,1,0,0,0,1,1,0,0,0,star,triangle,,,,,,,,,,,,,,,,,,,,,,,,,,,,,,,,,,,,,,,,,,,,,,,,,,,,,,
295852,2022-12-02_12h01.31.068,vts_reward_expectancy_bt,2022.2.4,MacIntel,120.0048002,Chrome,1728,1117,,,l,0.6738,1,579,2,2,5,29,10,1,0,0,0,1,0,1,0,0,star ,circle,,,,,,,,,,,,,,,,,,,,,,,,,,,,,,,,,,,,,,,,,,,,,,,,,,,,,,
295852,2022-12-02_12h01.31.068,vts_reward_expectancy_bt,2022.2.4,MacIntel,120.0048002,Chrome,1728,1117,,,l,0.9933,10,589,2,2,6,30,2,1,1,0,0,0,0,0,0,1,triangle,star,,,,,,,,,,,,,,,,,,,,,,,,,,,,,,,,,,,,,,,,,,,,,,,,,,,,,,
295852,2022-12-02_12h01.31.068,vts_reward_expectancy_bt,2022.2.4,MacIntel,120.0048002,Chrome,1728,1117,,,a,1.7083,10,599,2,2,7,31,7,1,0,0,1,0,0,1,0,0,hexagon,circle,,,,,,,,,,,,,,,,,,,,,,,,,,,,,,,,,,,,,,,,,,,,,,,,,,,,,,
295852,2022-12-02_12h01.31.068,vts_reward_expectancy_bt,2022.2.4,MacIntel,120.0048002,Chrome,1728,1117,,,a,0.6298,1,600,2,2,8,32,0,1,1,0,0,0,0,1,0,0,triangle,circle,,,,,,,,,,,,,,,,,,,,,,,,,,,,,,,,,,,,,,,,,,,,,,,,,,,,,,
295852,2022-12-02_12h01.31.068,vts_reward_expectancy_bt,2022.2.4,MacIntel,120.0048002,Chrome,1728,1117,,,a,1.1511,10,610,2,2,9,33,1,1,1,0,0,0,0,0,1,0,triangle,hexagon,,,,,,,,,,,,,,,,,,,,,,,,,,,,,,,,,,,,,,,,,,,,,,,,,,,,,,
295852,2022-12-02_12h01.31.068,vts_reward_expectancy_bt,2022.2.4,MacIntel,120.0048002,Chrome,1728,1117,,,l,0.9892,1,611,2,2,10,34,8,1,0,0,1,0,0,0,0,1,hexagon,star,,,,,,,,,,,,,,,,,,,,,,,,,,,,,,,,,,,,,,,,,,,,,,,,,,,,,,
295852,2022-12-02_12h01.31.068,vts_reward_expectancy_bt,2022.2.4,MacIntel,120.0048002,Chrome,1728,1117,,,a,0.646,10,621,2,2,11,35,5,1,0,1,0,0,0,0,0,1,circle,star,,,,,,,,,,,,,,,,,,,,,,,,,,,,,,,,,,,,,,,,,,,,,,,,,,,,,,
295852,2022-12-02_12h01.31.068,vts_reward_expectancy_bt,2022.2.4,MacIntel,120.0048002,Chrome,1728,1117,,,,,,,,,,,,,,,,,,,,,,,167,B,triangle,0,0,d,2.4388,0,0,0,0,0,1,,,,,,,,,,,,,,,,,,,,,,,,,,,,,,,,,,,,,,,,,
295852,2022-12-02_12h01.31.068,vts_reward_expectancy_bt,2022.2.4,MacIntel,120.0048002,Chrome,1728,1117,,,,,,,,,,,,,,,,,,,,,,,132,W,hexagon,1,1,d,0.8766,0,1,0,1,0,1,,,,,,,,,,,,,,,,,,,,,,,,,,,,,,,,,,,,,,,,,
295852,2022-12-02_12h01.31.068,vts_reward_expectancy_bt,2022.2.4,MacIntel,120.0048002,Chrome,1728,1117,,,,,,,,,,,,,,,,,,,,,,,174,S,star,1,0,f,0.5549,0,2,0,2,0,1,,,,,,,,,,,,,,,,,,,,,,,,,,,,,,,,,,,,,,,,,
295852,2022-12-02_12h01.31.068,vts_reward_expectancy_bt,2022.2.4,MacIntel,120.0048002,Chrome,1728,1117,,,,,,,,,,,,,,,,,,,,,,,146,D,circle,1,0,d,0.9165,0,3,0,3,0,1,,,,,,,,,,,,,,,,,,,,,,,,,,,,,,,,,,,,,,,,,
295852,2022-12-02_12h01.31.068,vts_reward_expectancy_bt,2022.2.4,MacIntel,120.0048002,Chrome,1728,1117,,,,,,,,,,,,,,,,,,,,,,,125,F,triangle,1,0,d,0.6073,0,4,0,4,0,1,,,,,,,,,,,,,,,,,,,,,,,,,,,,,,,,,,,,,,,,,
295852,2022-12-02_12h01.31.068,vts_reward_expectancy_bt,2022.2.4,MacIntel,120.0048002,Chrome,1728,1117,,,,,,,,,,,,,,,,,,,,,,,139,H,hexagon,1,0,d,1.0677,0,5,0,5,0,1,,,,,,,,,,,,,,,,,,,,,,,,,,,,,,,,,,,,,,,,,
295852,2022-12-02_12h01.31.068,vts_reward_expectancy_bt,2022.2.4,MacIntel,120.0048002,Chrome,1728,1117,,,,,,,,,,,,,,,,,,,,,,,160,U,star,1,0,f,0.9633,0,6,0,6,0,1,,,,,,,,,,,,,,,,,,,,,,,,,,,,,,,,,,,,,,,,,
295852,2022-12-02_12h01.31.068,vts_reward_expectancy_bt,2022.2.4,MacIntel,120.0048002,Chrome,1728,1117,,,,,,,,,,,,,,,,,,,,,,,181,Y,circle,1,0,f,0.5905,0,7,0,7,0,1,,,,,,,,,,,,,,,,,,,,,,,,,,,,,,,,,,,,,,,,,
295852,2022-12-02_12h01.31.068,vts_reward_expectancy_bt,2022.2.4,MacIntel,120.0048002,Chrome,1728,1117,,,,,,,,,,,,,,,,,,,,,,,167,B,circle,1,0,f,0.7209,0,8,0,8,0,1,,,,,,,,,,,,,,,,,,,,,,,,,,,,,,,,,,,,,,,,,
295852,2022-12-02_12h01.31.068,vts_reward_expectancy_bt,2022.2.4,MacIntel,120.0048002,Chrome,1728,1117,,,,,,,,,,,,,,,,,,,,,,,132,W,hexagon,1,0,d,0.6301,0,9,0,9,0,1,,,,,,,,,,,,,,,,,,,,,,,,,,,,,,,,,,,,,,,,,
295852,2022-12-02_12h01.31.068,vts_reward_expectancy_bt,2022.2.4,MacIntel,120.0048002,Chrome,1728,1117,,,,,,,,,,,,,,,,,,,,,,,174,H,triangle,0,0,,,1,,,,,,,0,0,0,0,1,,,,,,,,,,,,,,,,,,,,,,,,,,,,,,,,,,,
295852,2022-12-02_12h01.31.068,vts_reward_expectancy_bt,2022.2.4,MacIntel,120.0048002,Chrome,1728,1117,,,,,,,,,,,,,,,,,,,,,,,139,U,hexagon,1,1,,,1,,,,,,k,1,0,1,0,1,0.6804,,,,,,,,,,,,,,,,,,,,,,,,,,,,,,,,,,
295852,2022-12-02_12h01.31.068,vts_reward_expectancy_bt,2022.2.4,MacIntel,120.0048002,Chrome,1728,1117,,,,,,,,,,,,,,,,,,,,,,,160,B,star,1,0,,,1,,,,,,j,2,0,2,0,1,0.9687,,,,,,,,,,,,,,,,,,,,,,,,,,,,,,,,,,
295852,2022-12-02_12h01.31.068,vts_reward_expectancy_bt,2022.2.4,MacIntel,120.0048002,Chrome,1728,1117,,,,,,,,,,,,,,,,,,,,,,,167,D,circle,0,0,,,1,,,,,,k,3,0,3,0,1,0.8048,,,,,,,,,,,,,,,,,,,,,,,,,,,,,,,,,,
295852,2022-12-02_12h01.31.068,vts_reward_expectancy_bt,2022.2.4,MacIntel,120.0048002,Chrome,1728,1117,,,,,,,,,,,,,,,,,,,,,,,132,W,triangle,1,1,,,1,,,,,,k,4,0,4,0,1,1.1308,,,,,,,,,,,,,,,,,,,,,,,,,,,,,,,,,,
295852,2022-12-02_12h01.31.068,vts_reward_expectancy_bt,2022.2.4,MacIntel,120.0048002,Chrome,1728,1117,,,,,,,,,,,,,,,,,,,,,,,125,F,hexagon,1,0,,,1,,,,,,j,5,0,5,0,1,1.4025,,,,,,,,,,,,,,,,,,,,,,,,,,,,,,,,,,
295852,2022-12-02_12h01.31.068,vts_reward_expectancy_bt,2022.2.4,MacIntel,120.0048002,Chrome,1728,1117,,,,,,,,,,,,,,,,,,,,,,,181,S,star,1,0,,,1,,,,,,k,6,0,6,0,1,0.8933,,,,,,,,,,,,,,,,,,,,,,,,,,,,,,,,,,
295852,2022-12-02_12h01.31.068,vts_reward_expectancy_bt,2022.2.4,MacIntel,120.0048002,Chrome,1728,1117,,,,,,,,,,,,,,,,,,,,,,,146,Y,circle,1,0,,,1,,,,,,k,7,0,7,0,1,0.8389,,,,,,,,,,,,,,,,,,,,,,,,,,,,,,,,,,
295852,2022-12-02_12h01.31.068,vts_reward_expectancy_bt,2022.2.4,MacIntel,120.0048002,Chrome,1728,1117,,,,,,,,,,,,,,,,,,,,,,,174,H,hexagon,1,0,,,1,,,,,,j,8,0,8,0,1,0.8716,,,,,,,,,,,,,,,,,,,,,,,,,,,,,,,,,,
295852,2022-12-02_12h01.31.068,vts_reward_expectancy_bt,2022.2.4,MacIntel,120.0048002,Chrome,1728,1117,,,,,,,,,,,,,,,,,,,,,,,139,U,circle,1,0,,,1,,,,,,k,9,0,9,0,1,0.7459,,,,,,,,,,,,,,,,,,,,,,,,,,,,,,,,,,
295852,2022-12-02_12h01.31.068,vts_reward_expectancy_bt,2022.2.4,MacIntel,120.0048002,Chrome,1728,1117,,,,,,,,,,,,,,,,,,,,,,,174,H,circle,1,0,,,2,,,,,,j,0,0,0,0,1,1.5217,,,,,,,,,,,,,,,,,,,,,,,,,,,,,,,,,,
295852,2022-12-02_12h01.31.068,vts_reward_expectancy_bt,2022.2.4,MacIntel,120.0048002,Chrome,1728,1117,,,,,,,,,,,,,,,,,,,,,,,139,U,triangle,1,0,,,2,,,,,,k,1,0,1,0,1,1.0918,,,,,,,,,,,,,,,,,,,,,,,,,,,,,,,,,,
295852,2022-12-02_12h01.31.068,vts_reward_expectancy_bt,2022.2.4,MacIntel,120.0048002,Chrome,1728,1117,,,,,,,,,,,,,,,,,,,,,,,160,W,star,1,0,,,2,,,,,,k,2,0,2,0,1,2.0825,,,,,,,,,,,,,,,,,,,,,,,,,,,,,,,,,,
295852,2022-12-02_12h01.31.068,vts_reward_expectancy_bt,2022.2.4,MacIntel,120.0048002,Chrome,1728,1117,,,,,,,,,,,,,,,,,,,,,,,167,S,hexagon,1,0,,,2,,,,,,k,3,0,3,0,1,0.5336,,,,,,,,,,,,,,,,,,,,,,,,,,,,,,,,,,
295852,2022-12-02_12h01.31.068,vts_reward_expectancy_bt,2022.2.4,MacIntel,120.0048002,Chrome,1728,1117,,,,,,,,,,,,,,,,,,,,,,,146,Y,circle,1,0,,,2,,,,,,k,4,0,4,0,1,0.7041,,,,,,,,,,,,,,,,,,,,,,,,,,,,,,,,,,
295852,2022-12-02_12h01.31.068,vts_reward_expectancy_bt,2022.2.4,MacIntel,120.0048002,Chrome,1728,1117,,,,,,,,,,,,,,,,,,,,,,,181,B,triangle,1,0,,,2,,,,,,j,5,0,5,0,1,0.5225,,,,,,,,,,,,,,,,,,,,,,,,,,,,,,,,,,
295852,2022-12-02_12h01.31.068,vts_reward_expectancy_bt,2022.2.4,MacIntel,120.0048002,Chrome,1728,1117,,,,,,,,,,,,,,,,,,,,,,,132,D,star,1,0,,,2,,,,,,j,6,0,6,0,1,0.6352,,,,,,,,,,,,,,,,,,,,,,,,,,,,,,,,,,
295852,2022-12-02_12h01.31.068,vts_reward_expectancy_bt,2022.2.4,MacIntel,120.0048002,Chrome,1728,1117,,,,,,,,,,,,,,,,,,,,,,,125,F,hexagon,1,0,,,2,,,,,,j,7,0,7,0,1,0.6549,,,,,,,,,,,,,,,,,,,,,,,,,,,,,,,,,,
295852,2022-12-02_12h01.31.068,vts_reward_expectancy_bt,2022.2.4,MacIntel,120.0048002,Chrome,1728,1117,,,,,,,,,,,,,,,,,,,,,,,174,H,triangle,1,0,,,2,,,,,,j,8,0,8,0,1,0.9543,,,,,,,,,,,,,,,,,,,,,,,,,,,,,,,,,,
295852,2022-12-02_12h01.31.068,vts_reward_expectancy_bt,2022.2.4,MacIntel,120.0048002,Chrome,1728,1117,,,,,,,,,,,,,,,,,,,,,,,139,U,circle,1,0,,,2,,,,,,k,9,0,9,0,1,0.5387,,,,,,,,,,,,,,,,,,,,,,,,,,,,,,,,,,
295852,2022-12-02_12h01.31.068,vts_reward_expectancy_bt,2022.2.4,MacIntel,120.0048002,Chrome,1728,1117,,,,,0,621,,,,,,,,,,,,,,,,,167,U,hexagon,1,0,,,3,,,,,,,,,,,,,-1,number,NA,f,0.0002,vtsPrac,0,0,0,0,1,,,,,,,,,,,,,,,,,,,,,,,
295852,2022-12-02_12h01.31.068,vts_reward_expectancy_bt,2022.2.4,MacIntel,120.0048002,Chrome,1728,1117,,,,,0,621,,,,,,,,,,,,,,,,,160,F,circle,0,0,,,3,,,,,,,,,,,,,switch,letter,NA,k,1.3849,vtsPrac,1,0,1,0,1,,,,,,,,,,,,,,,,,,,,,,,
295852,2022-12-02_12h01.31.068,vts_reward_expectancy_bt,2022.2.4,MacIntel,120.0048002,Chrome,1728,1117,,,,,0,621,,,,,,,,,,,,,,,,,181,Y,hexagon,1,1,,,3,,,,,,,,,,,,,switch,number,numSwt,f,0.1784,vtsPrac,2,0,2,0,1,,,,,,,,,,,,,,,,,,,,,,,
295852,2022-12-02_12h01.31.068,vts_reward_expectancy_bt,2022.2.4,MacIntel,120.0048002,Chrome,1728,1117,,,,,0,621,,,,,,,,,,,,,,,,,174,B,circle,1,0,,,3,,,,,,,,,,,,,switch,letter,lettSwt,j,0.5219,vtsPrac,3,0,3,0,1,,,,,,,,,,,,,,,,,,,,,,,
295852,2022-12-02_12h01.31.068,vts_reward_expectancy_bt,2022.2.4,MacIntel,120.0048002,Chrome,1728,1117,,,,,0,621,,,,,,,,,,,,,,,,,167,U,hexagon,1,0,,,3,,,,,,,,,,,,,repeat,letter,lettRpt,k,0.4662,vtsPrac,4,0,4,0,1,,,,,,,,,,,,,,,,,,,,,,,
295852,2022-12-02_12h01.31.068,vts_reward_expectancy_bt,2022.2.4,MacIntel,120.0048002,Chrome,1728,1117,,,,,0,621,,,,,,,,,,,,,,,,,160,F,triangle,1,0,,,3,,,,,,,,,,,,,switch,number,numSwt,f,0.6561,vtsPrac,5,0,5,0,1,,,,,,,,,,,,,,,,,,,,,,,
295852,2022-12-02_12h01.31.068,vts_reward_expectancy_bt,2022.2.4,MacIntel,120.0048002,Chrome,1728,1117,,,,,0,621,,,,,,,,,,,,,,,,,181,Y,hexagon,1,0,,,3,,,,,,,,,,,,,repeat,number,numRpt,f,0.4812,vtsPrac,6,0,6,0,1,,,,,,,,,,,,,,,,,,,,,,,
295852,2022-12-02_12h01.31.068,vts_reward_expectancy_bt,2022.2.4,MacIntel,120.0048002,Chrome,1728,1117,,,,,0,621,,,,,,,,,,,,,,,,,174,B,star,1,0,,,3,,,,,,,,,,,,,repeat,number,numRpt,f,0.6379,vtsPrac,7,0,7,0,1,,,,,,,,,,,,,,,,,,,,,,,
295852,2022-12-02_12h01.31.068,vts_reward_expectancy_bt,2022.2.4,MacIntel,120.0048002,Chrome,1728,1117,,,,,0,621,,,,,,,,,,,,,,,,,139,W,hexagon,1,0,,,3,,,,,,,,,,,,,switch,letter,lettSwt,k,0.6222,vtsPrac,8,0,8,0,1,,,,,,,,,,,,,,,,,,,,,,,
295852,2022-12-02_12h01.31.068,vts_reward_expectancy_bt,2022.2.4,MacIntel,120.0048002,Chrome,1728,1117,,,,,0,621,,,,,,,,,,,,,,,,,174,S,circle,1,0,,,3,,,,,,,,,,,,,switch,number,numSwt,f,0.6886,vtsPrac,9,0,9,0,1,,,,,,,,,,,,,,,,,,,,,,,
295852,2022-12-02_12h01.31.068,vts_reward_expectancy_bt,2022.2.4,MacIntel,120.0048002,Chrome,1728,1117,,,,,0,621,,,,,,,,,,,,,,,,,132,B,hexagon,1,0,,,3,,,,,,,,,,,,,switch,letter,lettSwt,j,0.8228,vtsPrac,10,0,10,0,1,,,,,,,,,,,,,,,,,,,,,,,
295852,2022-12-02_12h01.31.068,vts_reward_expectancy_bt,2022.2.4,MacIntel,120.0048002,Chrome,1728,1117,,,,,0,621,,,,,,,,,,,,,,,,,181,F,triangle,1,0,,,3,,,,,,,,,,,,,switch,number,numSwt,f,0.7008,vtsPrac,11,0,11,0,1,,,,,,,,,,,,,,,,,,,,,,,
295852,2022-12-02_12h01.31.068,vts_reward_expectancy_bt,2022.2.4,MacIntel,120.0048002,Chrome,1728,1117,,,,,0,621,,,,,,,,,,,,,,,,,181,F,triangle,1,0,,,3,,,,,,,,,,,,,switch,letter,lettSwt,j,0.8461,vtsPrac,12,0,12,0,1,,,,,,,,,,,,,,,,,,,,,,,
295852,2022-12-02_12h01.31.068,vts_reward_expectancy_bt,2022.2.4,MacIntel,120.0048002,Chrome,1728,1117,,,,,0,621,,,,,,,,,,,,,,,,,132,U,hexagon,1,0,,,3,,,,,,,,,,,,,switch,number,numSwt,d,0.5439,vtsPrac,13,0,13,0,1,,,,,,,,,,,,,,,,,,,,,,,
295852,2022-12-02_12h01.31.068,vts_reward_expectancy_bt,2022.2.4,MacIntel,120.0048002,Chrome,1728,1117,,,,,0,621,,,,,,,,,,,,,,,,,125,B,triangle,1,0,,,3,,,,,,,,,,,,,repeat,number,numRpt,d,0.9444,vtsPrac,14,0,14,0,1,,,,,,,,,,,,,,,,,,,,,,,
295852,2022-12-02_12h01.31.068,vts_reward_expectancy_bt,2022.2.4,MacIntel,120.0048002,Chrome,1728,1117,,,,,0,621,,,,,,,,,,,,,,,,,146,Y,circle,1,0,,,3,,,,,,,,,,,,,switch,letter,lettSwt,k,0.5093,vtsPrac,15,0,15,0,1,,,,,,,,,,,,,,,,,,,,,,,
295852,2022-12-02_12h01.31.068,vts_reward_expectancy_bt,2022.2.4,MacIntel,120.0048002,Chrome,1728,1117,,,,,0,621,,,,,,,,,,,,,,,,,181,D,hexagon,1,0,,,3,,,,,,,,,,,,,repeat,letter,lettRpt,j,0.8548,vtsPrac,16,0,16,0,1,,,,,,,,,,,,,,,,,,,,,,,
295852,2022-12-02_12h01.31.068,vts_reward_expectancy_bt,2022.2.4,MacIntel,120.0048002,Chrome,1728,1117,,,,,0,621,,,,,,,,,,,,,,,,,167,U,triangle,1,0,,,3,,,,,,,,,,,,,repeat,letter,lettRpt,k,0.6766,vtsPrac,17,0,17,0,1,,,,,,,,,,,,,,,,,,,,,,,
295852,2022-12-02_12h01.31.068,vts_reward_expectancy_bt,2022.2.4,MacIntel,120.0048002,Chrome,1728,1117,,,,,0,621,,,,,,,,,,,,,,,,,146,F,hexagon,0,0,,,3,,,,,,,,,,,,,repeat,letter,NA,k,0.7968,vtsPrac,18,0,18,0,1,,,,,,,,,,,,,,,,,,,,,,,
295852,2022-12-02_12h01.31.068,vts_reward_expectancy_bt,2022.2.4,MacIntel,120.0048002,Chrome,1728,1117,,,,,0,621,,,,,,,,,,,,,,,,,160,H,star,1,1,,,3,,,,,,,,,,,,,switch,number,numSwt,f,0.7628,vtsPrac,19,0,19,0,1,,,,,,,,,,,,,,,,,,,,,,,
295852,2022-12-02_12h01.31.068,vts_reward_expectancy_bt,2022.2.4,MacIntel,120.0048002,Chrome,1728,1117,,,,,0,621,,,,,,,,,,,,,,,,,181,Y,triangle,1,0,,,3,,,,,,,,,,,,,switch,letter,lettSwt,k,0.5861,vtsPrac,20,0,20,0,1,,,,,,,,,,,,,,,,,,,,,,,
295852,2022-12-02_12h01.31.068,vts_reward_expectancy_bt,2022.2.4,MacIntel,120.0048002,Chrome,1728,1117,,,,,0,621,,,,,,,,,,,,,,,,,146,D,star,1,0,,,3,,,,,,,,,,,,,repeat,letter,lettRpt,j,0.7387,vtsPrac,21,0,21,0,1,,,,,,,,,,,,,,,,,,,,,,,
295852,2022-12-02_12h01.31.068,vts_reward_expectancy_bt,2022.2.4,MacIntel,120.0048002,Chrome,1728,1117,,,,,0,621,,,,,,,,,,,,,,,,,132,S,triangle,1,0,,,3,,,,,,,,,,,,,switch,number,numSwt,d,0.9197,vtsPrac,22,0,22,0,1,,,,,,,,,,,,,,,,,,,,,,,
295852,2022-12-02_12h01.31.068,vts_reward_expectancy_bt,2022.2.4,MacIntel,120.0048002,Chrome,1728,1117,,,,,0,621,,,,,,,,,,,,,,,,,174,W,circle,1,0,,,3,,,,,,,,,,,,,repeat,number,numRpt,f,0.4702,vtsPrac,23,0,23,0,1,,,,,,,,,,,,,,,,,,,,,,,
295852,2022-12-02_12h01.31.068,vts_reward_expectancy_bt,2022.2.4,MacIntel,120.0048002,Chrome,1728,1117,,,,,0,621,,,,,,,,,,,,,,,,,160,F,hexagon,1,0,,,3,,,,,,,,,,,,,switch,letter,lettSwt,j,0.7716,vtsPrac,24,0,24,0,1,,,,,,,,,,,,,,,,,,,,,,,
295852,2022-12-02_12h01.31.068,vts_reward_expectancy_bt,2022.2.4,MacIntel,120.0048002,Chrome,1728,1117,,,,,0,621,,,,,,,,,,,,,,,,,132,Y,star,1,0,,,3,,,,,,,,,,,,,repeat,letter,lettRpt,k,0.4961,vtsPrac,25,0,25,0,1,,,,,,,,,,,,,,,,,,,,,,,
295852,2022-12-02_12h01.31.068,vts_reward_expectancy_bt,2022.2.4,MacIntel,120.0048002,Chrome,1728,1117,,,,,0,621,,,,,,,,,,,,,,,,,146,W,circle,1,0,,,3,,,,,,,,,,,,,switch,number,numSwt,d,0.5782,vtsPrac,26,0,26,0,1,,,,,,,,,,,,,,,,,,,,,,,
295852,2022-12-02_12h01.31.068,vts_reward_expectancy_bt,2022.2.4,MacIntel,120.0048002,Chrome,1728,1117,,,,,0,621,,,,,,,,,,,,,,,,,139,U,triangle,1,0,,,3,,,,,,,,,,,,,repeat,number,numRpt,d,0.8453,vtsPrac,27,0,27,0,1,,,,,,,,,,,,,,,,,,,,,,,
295852,2022-12-02_12h01.31.068,vts_reward_expectancy_bt,2022.2.4,MacIntel,120.0048002,Chrome,1728,1117,,,,,0,621,,,,,,,,,,,,,,,,,167,U,triangle,1,0,,,3,,,,,,,,,,,,,switch,letter,lettSwt,k,0.4499,vtsPrac,28,0,28,0,1,,,,,,,,,,,,,,,,,,,,,,,
295852,2022-12-02_12h01.31.068,vts_reward_expectancy_bt,2022.2.4,MacIntel,120.0048002,Chrome,1728,1117,,,,,0,621,,,,,,,,,,,,,,,,,125,W,star,1,0,,,3,,,,,,,,,,,,,switch,number,numSwt,d,0.6432,vtsPrac,29,0,29,0,1,,,,,,,,,,,,,,,,,,,,,,,
295852,2022-12-02_12h01.31.068,vts_reward_expectancy_bt,2022.2.4,MacIntel,120.0048002,Chrome,1728,1117,,,,,0,621,,,,,,,,,,,,,,,,,139,D,hexagon,0,0,,,3,,,,,,,,,,,,,switch,letter,NA,k,0.639,vtsPrac,30,0,30,0,1,,,,,,,,,,,,,,,,,,,,,,,
295852,2022-12-02_12h01.31.068,vts_reward_expectancy_bt,2022.2.4,MacIntel,120.0048002,Chrome,1728,1117,,,,,0,621,,,,,,,,,,,,,,,,,132,S,triangle,1,1,,,3,,,,,,,,,,,,,repeat,letter,lettRpt,k,0.7241,vtsPrac,31,0,31,0,1,,,,,,,,,,,,,,,,,,,,,,,
295852,2022-12-02_12h01.31.068,vts_reward_expectancy_bt,2022.2.4,MacIntel,120.0048002,Chrome,1728,1117,,,,,,,,,,,,,,,,,,,,,,,,,,,,,,,,,,,,,,,,,,,,,,,,,,,,,,,,,,,,,,,,,,,,,,,,,,,,
295852,2022-12-02_12h01.31.068,vts_reward_expectancy_bt,2022.2.4,MacIntel,120.0048002,Chrome,1728,1117,,,,,,,,,,,,,,,,,,,,,,,,,,,,,,,,,,,,,,,,,,,,,,,,,,,,,,,,,,,,,,,,,,,,,,,,,,,,
295852,2022-12-02_12h01.31.068,vts_reward_expectancy_bt,2022.2.4,MacIntel,120.0048002,Chrome,1728,1117,,,,,0,621,,,,,,,,,,,,,,,,,139,B,circle,1,0,,,,,,,,,,,,,,,,switch,number,numSwt,d,0.9052,noRew,,,,,,0,0,0,0,0,1,,,,,,,,,,,,,,,,,
295852,2022-12-02_12h01.31.068,vts_reward_expectancy_bt,2022.2.4,MacIntel,120.0048002,Chrome,1728,1117,,,,,0,621,,,,,,,,,,,,,,,,,125,S,triangle,0,0,,,,,,,,,,,,,,,,repeat,number,NA,f,0.872,noRew,,,,,,0,1,0,1,0,1,,,,,,,,,,,,,,,,,
295852,2022-12-02_12h01.31.068,vts_reward_expectancy_bt,2022.2.4,MacIntel,120.0048002,Chrome,1728,1117,,,,,0,621,,,,,,,,,,,,,,,,,146,U,circle,1,1,,,,,,,,,,,,,,,,switch,letter,lettSwt,k,0.7459,noRew,,,,,,0,2,0,2,0,1,,,,,,,,,,,,,,,,,
295852,2022-12-02_12h01.31.068,vts_reward_expectancy_bt,2022.2.4,MacIntel,120.0048002,Chrome,1728,1117,,,,,0,621,,,,,,,,,,,,,,,,,167,F,triangle,1,0,,,,,,,,,,,,,,,,repeat,letter,lettRpt,j,1.1984,noRew,,,,,,0,3,0,3,0,1,,,,,,,,,,,,,,,,,
295852,2022-12-02_12h01.31.068,vts_reward_expectancy_bt,2022.2.4,MacIntel,120.0048002,Chrome,1728,1117,,,,,0,621,,,,,,,,,,,,,,,,,139,B,circle,1,0,,,,,,,,,,,,,,,,switch,number,numSwt,d,0.6038,noRew,,,,,,0,4,0,4,0,1,,,,,,,,,,,,,,,,,
295852,2022-12-02_12h01.31.068,vts_reward_expectancy_bt,2022.2.4,MacIntel,120.0048002,Chrome,1728,1117,,,,,0,621,,,,,,,,,,,,,,,,,125,S,hexagon,1,0,,,,,,,,,,,,,,,,switch,letter,lettSwt,k,0.4841,noRew,,,,,,0,5,0,5,0,1,,,,,,,,,,,,,,,,,
295852,2022-12-02_12h01.31.068,vts_reward_expectancy_bt,2022.2.4,MacIntel,120.0048002,Chrome,1728,1117,,,,,0,621,,,,,,,,,,,,,,,,,146,U,circle,1,0,,,,,,,,,,,,,,,,switch,number,numSwt,d,0.572,noRew,,,,,,0,6,0,6,0,1,,,,,,,,,,,,,,,,,
295852,2022-12-02_12h01.31.068,vts_reward_expectancy_bt,2022.2.4,MacIntel,120.0048002,Chrome,1728,1117,,,,,0,621,,,,,,,,,,,,,,,,,167,F,hexagon,1,0,,,,,,,,,,,,,,,,repeat,number,numRpt,f,0.8126,noRew,,,,,,0,7,0,7,0,1,,,,,,,,,,,,,,,,,
295852,2022-12-02_12h01.31.068,vts_reward_expectancy_bt,2022.2.4,MacIntel,120.0048002,Chrome,1728,1117,,,,,0,621,,,,,,,,,,,,,,,,,174,Y,triangle,1,0,,,,,,,,,,,,,,,,switch,letter,lettSwt,k,0.5163,noRew,,,,,,0,8,0,8,0,1,,,,,,,,,,,,,,,,,
295852,2022-12-02_12h01.31.068,vts_reward_expectancy_bt,2022.2.4,MacIntel,120.0048002,Chrome,1728,1117,,,,,0,621,,,,,,,,,,,,,,,,,125,H,circle,1,0,,,,,,,,,,,,,,,,repeat,letter,lettRpt,j,0.88,noRew,,,,,,0,9,0,9,0,1,,,,,,,,,,,,,,,,,
295852,2022-12-02_12h01.31.068,vts_reward_expectancy_bt,2022.2.4,MacIntel,120.0048002,Chrome,1728,1117,,,,,0,621,,,,,,,,,,,,,,,,,160,S,hexagon,1,0,,,,,,,,,,,,,,,,switch,number,numSwt,f,0.3995,noRew,,,,,,0,10,0,10,0,1,,,,,,,,,,,,,,,,,
295852,2022-12-02_12h01.31.068,vts_reward_expectancy_bt,2022.2.4,MacIntel,120.0048002,Chrome,1728,1117,,,,,0,621,,,,,,,,,,,,,,,,,132,F,triangle,1,0,,,,,,,,,,,,,,,,repeat,number,numRpt,d,0.6306,noRew,,,,,,0,11,0,11,0,1,,,,,,,,,,,,,,,,,
295852,2022-12-02_12h01.31.068,vts_reward_expectancy_bt,2022.2.4,MacIntel,120.0048002,Chrome,1728,1117,,,,,0,621,,,,,,,,,,,,,,,,,132,U,circle,1,0,,,,,,,,,,,,,,,,switch,letter,lettSwt,k,0.7474,noRew,,,,,,0,12,0,12,0,1,,,,,,,,,,,,,,,,,
295852,2022-12-02_12h01.31.068,vts_reward_expectancy_bt,2022.2.4,MacIntel,120.0048002,Chrome,1728,1117,,,,,0,621,,,,,,,,,,,,,,,,,167,F,triangle,1,0,,,,,,,,,,,,,,,,repeat,letter,lettRpt,j,1.2033,noRew,,,,,,0,13,0,13,0,1,,,,,,,,,,,,,,,,,
295852,2022-12-02_12h01.31.068,vts_reward_expectancy_bt,2022.2.4,MacIntel,120.0048002,Chrome,1728,1117,,,,,0,621,,,,,,,,,,,,,,,,,139,S,hexagon,1,0,,,,,,,,,,,,,,,,repeat,letter,lettRpt,k,0.7882,noRew,,,,,,0,14,0,14,0,1,,,,,,,,,,,,,,,,,
295852,2022-12-02_12h01.31.068,vts_reward_expectancy_bt,2022.2.4,MacIntel,120.0048002,Chrome,1728,1117,,,,,0,621,,,,,,,,,,,,,,,,,181,Y,circle,1,0,,,,,,,,,,,,,,,,switch,number,numSwt,f,0.5903,noRew,,,,,,0,15,0,15,0,1,,,,,,,,,,,,,,,,,
295852,2022-12-02_12h01.31.068,vts_reward_expectancy_bt,2022.2.4,MacIntel,120.0048002,Chrome,1728,1117,,,,,0,621,,,,,,,,,,,,,,,,,125,Y,hexagon,1,0,,,,,,,,,,,,,,,,switch,letter,lettSwt,k,1.3973,noRew,,,,,,0,16,0,16,0,1,,,,,,,,,,,,,,,,,
295852,2022-12-02_12h01.31.068,vts_reward_expectancy_bt,2022.2.4,MacIntel,120.0048002,Chrome,1728,1117,,,,,0,621,,,,,,,,,,,,,,,,,174,B,circle,1,0,,,,,,,,,,,,,,,,repeat,letter,lettRpt,j,1.1993,noRew,,,,,,0,17,0,17,0,1,,,,,,,,,,,,,,,,,
295852,2022-12-02_12h01.31.068,vts_reward_expectancy_bt,2022.2.4,MacIntel,120.0048002,Chrome,1728,1117,,,,,0,621,,,,,,,,,,,,,,,,,181,H,circle,1,0,,,,,,,,,,,,,,,,repeat,letter,lettRpt,j,0.8679,noRew,,,,,,0,18,0,18,0,1,,,,,,,,,,,,,,,,,
295852,2022-12-02_12h01.31.068,vts_reward_expectancy_bt,2022.2.4,MacIntel,120.0048002,Chrome,1728,1117,,,,,0,621,,,,,,,,,,,,,,,,,139,S,triangle,1,0,,,,,,,,,,,,,,,,repeat,letter,lettRpt,k,0.7348,noRew,,,,,,0,19,0,19,0,1,,,,,,,,,,,,,,,,,
295852,2022-12-02_12h01.31.068,vts_reward_expectancy_bt,2022.2.4,MacIntel,120.0048002,Chrome,1728,1117,,,,,0,621,,,,,,,,,,,,,,,,,167,Y,circle,0,0,,,,,,,,,,,,,,,,switch,number,NA,d,0.8308,noRew,,,,,,0,20,0,20,0,1,,,,,,,,,,,,,,,,,
295852,2022-12-02_12h01.31.068,vts_reward_expectancy_bt,2022.2.4,MacIntel,120.0048002,Chrome,1728,1117,,,,,0,621,,,,,,,,,,,,,,,,,125,F,star,0,1,,,,,,,,,,,,,,,,switch,letter,NA,k,2.1212,noRew,,,,,,0,21,0,21,0,1,,,,,,,,,,,,,,,,,
295852,2022-12-02_12h01.31.068,vts_reward_expectancy_bt,2022.2.4,MacIntel,120.0048002,Chrome,1728,1117,,,,,0,621,,,,,,,,,,,,,,,,,174,B,circle,1,1,,,,,,,,,,,,,,,,repeat,letter,lettRpt,j,0.644,noRew,,,,,,0,22,0,22,0,1,,,,,,,,,,,,,,,,,
295852,2022-12-02_12h01.31.068,vts_reward_expectancy_bt,2022.2.4,MacIntel,120.0048002,Chrome,1728,1117,,,,,0,621,,,,,,,,,,,,,,,,,132,D,triangle,1,0,,,,,,,,,,,,,,,,repeat,letter,lettRpt,j,0.8082,noRew,,,,,,0,23,0,23,0,1,,,,,,,,,,,,,,,,,
295852,2022-12-02_12h01.31.068,vts_reward_expectancy_bt,2022.2.4,MacIntel,120.0048002,Chrome,1728,1117,,,,,0,621,,,,,,,,,,,,,,,,,139,F,hexagon,1,0,,,,,,,,,,,,,,,,switch,number,numSwt,d,2.0593,noRew,,,,,,0,24,0,24,0,1,,,,,,,,,,,,,,,,,
295852,2022-12-02_12h01.31.068,vts_reward_expectancy_bt,2022.2.4,MacIntel,120.0048002,Chrome,1728,1117,,,,,0,621,,,,,,,,,,,,,,,,,146,S,star,1,0,,,,,,,,,,,,,,,,repeat,number,numRpt,d,1.3822,noRew,,,,,,0,25,0,25,0,1,,,,,,,,,,,,,,,,,
295852,2022-12-02_12h01.31.068,vts_reward_expectancy_bt,2022.2.4,MacIntel,120.0048002,Chrome,1728,1117,,,,,0,621,,,,,,,,,,,,,,,,,132,D,star,1,0,,,,,,,,,,,,,,,,repeat,number,numRpt,d,1.2287,noRew,,,,,,0,26,0,26,0,1,,,,,,,,,,,,,,,,,
295852,2022-12-02_12h01.31.068,vts_reward_expectancy_bt,2022.2.4,MacIntel,120.0048002,Chrome,1728,1117,,,,,0,621,,,,,,,,,,,,,,,,,125,H,hexagon,1,0,,,,,,,,,,,,,,,,repeat,number,numRpt,d,1.0644,noRew,,,,,,0,27,0,27,0,1,,,,,,,,,,,,,,,,,
295852,2022-12-02_12h01.31.068,vts_reward_expectancy_bt,2022.2.4,MacIntel,120.0048002,Chrome,1728,1117,,,,,0,621,,,,,,,,,,,,,,,,,160,H,star,1,0,,,,,,,,,,,,,,,,repeat,number,numRpt,f,1.6328,noRew,,,,,,0,28,0,28,0,1,,,,,,,,,,,,,,,,,
295852,2022-12-02_12h01.31.068,vts_reward_expectancy_bt,2022.2.4,MacIntel,120.0048002,Chrome,1728,1117,,,,,0,621,,,,,,,,,,,,,,,,,167,B,triangle,1,0,,,,,,,,,,,,,,,,repeat,number,numRpt,f,1.7526,noRew,,,,,,0,29,0,29,0,1,,,,,,,,,,,,,,,,,
295852,2022-12-02_12h01.31.068,vts_reward_expectancy_bt,2022.2.4,MacIntel,120.0048002,Chrome,1728,1117,,,,,0,621,,,,,,,,,,,,,,,,,125,U,hexagon,1,0,,,,,,,,,,,,,,,,repeat,number,numRpt,d,1.6964,noRew,,,,,,0,30,0,30,0,1,,,,,,,,,,,,,,,,,
295852,2022-12-02_12h01.31.068,vts_reward_expectancy_bt,2022.2.4,MacIntel,120.0048002,Chrome,1728,1117,,,,,0,621,,,,,,,,,,,,,,,,,174,D,triangle,1,0,,,,,,,,,,,,,,,,switch,letter,lettSwt,j,1.4252,noRew,,,,,,0,31,0,31,0,1,,,,,,,,,,,,,,,,,
295852,2022-12-02_12h01.31.068,vts_reward_expectancy_bt,2022.2.4,MacIntel,120.0048002,Chrome,1728,1117,,,,,0,621,,,,,,,,,,,,,,,,,167,D,triangle,1,0,,,,,,,,,,,,,,,,repeat,letter,lettRpt,j,1.0867,noRew,,,,,,0,32,0,32,0,1,,,,,,,,,,,,,,,,,
295852,2022-12-02_12h01.31.068,vts_reward_expectancy_bt,2022.2.4,MacIntel,120.0048002,Chrome,1728,1117,,,,,0,621,,,,,,,,,,,,,,,,,125,W,hexagon,1,0,,,,,,,,,,,,,,,,repeat,letter,lettRpt,k,1.1884,noRew,,,,,,0,33,0,33,0,1,,,,,,,,,,,,,,,,,
295852,2022-12-02_12h01.31.068,vts_reward_expectancy_bt,2022.2.4,MacIntel,120.0048002,Chrome,1728,1117,,,,,0,621,,,,,,,,,,,,,,,,,146,U,star,1,0,,,,,,,,,,,,,,,,repeat,letter,lettRpt,k,0.9617,noRew,,,,,,0,34,0,34,0,1,,,,,,,,,,,,,,,,,
295852,2022-12-02_12h01.31.068,vts_reward_expectancy_bt,2022.2.4,MacIntel,120.0048002,Chrome,1728,1117,,,,,0,621,,,,,,,,,,,,,,,,,139,F,circle,1,0,,,,,,,,,,,,,,,,repeat,letter,lettRpt,j,0.7824,noRew,,,,,,0,35,0,35,0,1,,,,,,,,,,,,,,,,,
295852,2022-12-02_12h01.31.068,vts_reward_expectancy_bt,2022.2.4,MacIntel,120.0048002,Chrome,1728,1117,,,,,0,621,,,,,,,,,,,,,,,,,132,D,star,1,0,,,,,,,,,,,,,,,,repeat,letter,lettRpt,j,1.9991,noRew,,,,,,0,36,0,36,0,1,,,,,,,,,,,,,,,,,
295852,2022-12-02_12h01.31.068,vts_reward_expectancy_bt,2022.2.4,MacIntel,120.0048002,Chrome,1728,1117,,,,,0,621,,,,,,,,,,,,,,,,,139,H,circle,1,0,,,,,,,,,,,,,,,,repeat,letter,lettRpt,j,1.3037,noRew,,,,,,0,37,0,37,0,1,,,,,,,,,,,,,,,,,
295852,2022-12-02_12h01.31.068,vts_reward_expectancy_bt,2022.2.4,MacIntel,120.0048002,Chrome,1728,1117,,,,,0,621,,,,,,,,,,,,,,,,,181,Y,circle,1,0,,,,,,,,,,,,,,,,repeat,letter,lettRpt,k,0.9178,noRew,,,,,,0,38,0,38,0,1,,,,,,,,,,,,,,,,,
295852,2022-12-02_12h01.31.068,vts_reward_expectancy_bt,2022.2.4,MacIntel,120.0048002,Chrome,1728,1117,,,,,0,621,,,,,,,,,,,,,,,,,174,F,star,1,0,,,,,,,,,,,,,,,,repeat,letter,lettRpt,j,1.8122,noRew,,,,,,0,39,0,39,0,1,,,,,,,,,,,,,,,,,
295852,2022-12-02_12h01.31.068,vts_reward_expectancy_bt,2022.2.4,MacIntel,120.0048002,Chrome,1728,1117,,,,,0,621,,,,,,,,,,,,,,,,,167,H,circle,1,0,,,,,,,,,,,,,,,,repeat,letter,lettRpt,j,2.0183,noRew,,,,,,0,40,0,40,0,1,,,,,,,,,,,,,,,,,
295852,2022-12-02_12h01.31.068,vts_reward_expectancy_bt,2022.2.4,MacIntel,120.0048002,Chrome,1728,1117,,,,,0,621,,,,,,,,,,,,,,,,,146,U,star,1,0,,,,,,,,,,,,,,,,repeat,letter,lettRpt,k,1.8798,noRew,,,,,,0,41,0,41,0,1,,,,,,,,,,,,,,,,,
295852,2022-12-02_12h01.31.068,vts_reward_expectancy_bt,2022.2.4,MacIntel,120.0048002,Chrome,1728,1117,,,,,0,621,,,,,,,,,,,,,,,,,160,Y,circle,-1,0,,,,,,,,,,,,,,,,switch,no_choice,NA,,,noRew,,,,,,0,42,0,42,0,1,,,,,,,,,,,,,,,,,
295852,2022-12-02_12h01.31.068,vts_reward_expectancy_bt,2022.2.4,MacIntel,120.0048002,Chrome,1728,1117,,,,,0,621,,,,,,,,,,,,,,,,,139,D,star,-1,0,,,,,,,,,,,,,,,,repeat,no_choice,NA,,,noRew,,,,,,0,43,0,43,0,1,,,,,,,,,,,,,,,,,
295852,2022-12-02_12h01.31.068,vts_reward_expectancy_bt,2022.2.4,MacIntel,120.0048002,Chrome,1728,1117,,,,,0,621,,,,,,,,,,,,,,,,,139,D,circle,1,0,,,,,,,,,,,,,,,,switch,letter,lettSwt,j,0.8929,noRew,,,,,,0,44,0,44,0,1,,,,,,,,,,,,,,,,,
295852,2022-12-02_12h01.31.068,vts_reward_expectancy_bt,2022.2.4,MacIntel,120.0048002,Chrome,1728,1117,,,,,0,621,,,,,,,,,,,,,,,,,146,F,hexagon,1,0,,,,,,,,,,,,,,,,repeat,letter,lettRpt,j,0.9704,noRew,,,,,,0,45,0,45,0,1,,,,,,,,,,,,,,,,,
295852,2022-12-02_12h01.31.068,vts_reward_expectancy_bt,2022.2.4,MacIntel,120.0048002,Chrome,1728,1117,,,,,0,621,,,,,,,,,,,,,,,,,160,U,star,1,0,,,,,,,,,,,,,,,,switch,number,numSwt,f,0.6512,noRew,,,,,,0,46,0,46,0,1,,,,,,,,,,,,,,,,,
295852,2022-12-02_12h01.31.068,vts_reward_expectancy_bt,2022.2.4,MacIntel,120.0048002,Chrome,1728,1117,,,,,0,621,,,,,,,,,,,,,,,,,167,W,hexagon,1,0,,,,,,,,,,,,,,,,repeat,number,numRpt,f,1.2207,noRew,,,,,,0,47,0,47,0,1,,,,,,,,,,,,,,,,,
295852,2022-12-02_12h01.31.068,vts_reward_expectancy_bt,2022.2.4,MacIntel,120.0048002,Chrome,1728,1117,,,,,0,621,,,,,,,,,,,,,,,,,146,H,triangle,1,0,,,,,,,,,,,,,,,,repeat,number,numRpt,d,1.126,noRew,,,,,,0,48,0,48,0,1,,,,,,,,,,,,,,,,,
295852,2022-12-02_12h01.31.068,vts_reward_expectancy_bt,2022.2.4,MacIntel,120.0048002,Chrome,1728,1117,,,,,0,621,,,,,,,,,,,,,,,,,132,F,star,1,0,,,,,,,,,,,,,,,,repeat,number,numRpt,d,0.871,noRew,,,,,,0,49,0,49,0,1,,,,,,,,,,,,,,,,,
295852,2022-12-02_12h01.31.068,vts_reward_expectancy_bt,2022.2.4,MacIntel,120.0048002,Chrome,1728,1117,,,,,0,621,,,,,,,,,,,,,,,,,139,Y,circle,1,0,,,,,,,,,,,,,,,,repeat,number,numRpt,d,0.7707,noRew,,,,,,0,50,0,50,0,1,,,,,,,,,,,,,,,,,
295852,2022-12-02_12h01.31.068,vts_reward_expectancy_bt,2022.2.4,MacIntel,120.0048002,Chrome,1728,1117,,,,,0,621,,,,,,,,,,,,,,,,,160,W,triangle,1,0,,,,,,,,,,,,,,,,repeat,number,numRpt,f,0.8402,noRew,,,,,,0,51,0,51,0,1,,,,,,,,,,,,,,,,,
295852,2022-12-02_12h01.31.068,vts_reward_expectancy_bt,2022.2.4,MacIntel,120.0048002,Chrome,1728,1117,,,,,0,621,,,,,,,,,,,,,,,,,146,W,hexagon,1,0,,,,,,,,,,,,,,,,repeat,number,numRpt,d,0.7767,noRew,,,,,,0,52,0,52,0,1,,,,,,,,,,,,,,,,,
295852,2022-12-02_12h01.31.068,vts_reward_expectancy_bt,2022.2.4,MacIntel,120.0048002,Chrome,1728,1117,,,,,0,621,,,,,,,,,,,,,,,,,160,U,triangle,0,0,,,,,,,,,,,,,,,,repeat,number,NA,d,0.6595,noRew,,,,,,0,53,0,53,0,1,,,,,,,,,,,,,,,,,
295852,2022-12-02_12h01.31.068,vts_reward_expectancy_bt,2022.2.4,MacIntel,120.0048002,Chrome,1728,1117,,,,,0,621,,,,,,,,,,,,,,,,,132,S,star,1,1,,,,,,,,,,,,,,,,repeat,number,numRpt,d,0.8745,noRew,,,,,,0,54,0,54,0,1,,,,,,,,,,,,,,,,,
295852,2022-12-02_12h01.31.068,vts_reward_expectancy_bt,2022.2.4,MacIntel,120.0048002,Chrome,1728,1117,,,,,0,621,,,,,,,,,,,,,,,,,181,B,hexagon,1,0,,,,,,,,,,,,,,,,repeat,number,numRpt,f,0.8945,noRew,,,,,,0,55,0,55,0,1,,,,,,,,,,,,,,,,,
295852,2022-12-02_12h01.31.068,vts_reward_expectancy_bt,2022.2.4,MacIntel,120.0048002,Chrome,1728,1117,,,,,0,621,,,,,,,,,,,,,,,,,146,F,triangle,1,0,,,,,,,,,,,,,,,,repeat,number,numRpt,d,0.712,noRew,,,,,,0,56,0,56,0,1,,,,,,,,,,,,,,,,,
295852,2022-12-02_12h01.31.068,vts_reward_expectancy_bt,2022.2.4,MacIntel,120.0048002,Chrome,1728,1117,,,,,0,621,,,,,,,,,,,,,,,,,174,W,circle,1,0,,,,,,,,,,,,,,,,repeat,number,numRpt,f,0.4785,noRew,,,,,,0,57,0,57,0,1,,,,,,,,,,,,,,,,,
295852,2022-12-02_12h01.31.068,vts_reward_expectancy_bt,2022.2.4,MacIntel,120.0048002,Chrome,1728,1117,,,,,0,621,,,,,,,,,,,,,,,,,160,Y,star,1,0,,,,,,,,,,,,,,,,repeat,number,numRpt,f,0.9286,noRew,,,,,,0,58,0,58,0,1,,,,,,,,,,,,,,,,,
295852,2022-12-02_12h01.31.068,vts_reward_expectancy_bt,2022.2.4,MacIntel,120.0048002,Chrome,1728,1117,,,,,0,621,,,,,,,,,,,,,,,,,167,B,hexagon,1,0,,,,,,,,,,,,,,,,switch,letter,lettSwt,j,0.5241,noRew,,,,,,0,59,0,59,0,1,,,,,,,,,,,,,,,,,
295852,2022-12-02_12h01.31.068,vts_reward_expectancy_bt,2022.2.4,MacIntel,120.0048002,Chrome,1728,1117,,,,,0,621,,,,,,,,,,,,,,,,,181,S,circle,1,0,,,,,,,,,,,,,,,,repeat,letter,lettRpt,k,0.6416,noRew,,,,,,0,60,0,60,0,1,,,,,,,,,,,,,,,,,
295852,2022-12-02_12h01.31.068,vts_reward_expectancy_bt,2022.2.4,MacIntel,120.0048002,Chrome,1728,1117,,,,,0,621,,,,,,,,,,,,,,,,,139,H,star,1,0,,,,,,,,,,,,,,,,repeat,letter,lettRpt,j,0.7206,noRew,,,,,,0,61,0,61,0,1,,,,,,,,,,,,,,,,,
295852,2022-12-02_12h01.31.068,vts_reward_expectancy_bt,2022.2.4,MacIntel,120.0048002,Chrome,1728,1117,,,,,0,621,,,,,,,,,,,,,,,,,174,Y,triangle,1,0,,,,,,,,,,,,,,,,repeat,letter,lettRpt,k,0.6243,noRew,,,,,,0,62,0,62,0,1,,,,,,,,,,,,,,,,,
295852,2022-12-02_12h01.31.068,vts_reward_expectancy_bt,2022.2.4,MacIntel,120.0048002,Chrome,1728,1117,,,,,0,621,,,,,,,,,,,,,,,,,167,B,star,1,0,,,,,,,,,,,,,,,,repeat,letter,lettRpt,j,0.5941,noRew,,,,,,0,63,0,63,0,1,,,,,,,,,,,,,,,,,
295852,2022-12-02_12h01.31.068,vts_reward_expectancy_bt,2022.2.4,MacIntel,120.0048002,Chrome,1728,1117,,,,,,,,,,,,,,,,,,,,,,,,,,,,,,,,,,,,,,,,,,,,,,,,,,,,,,,,,,,,,,,,,,,,,,,,,,,,
295852,2022-12-02_12h01.31.068,vts_reward_expectancy_bt,2022.2.4,MacIntel,120.0048002,Chrome,1728,1117,,,,,0,621,,,,,,,,,,,,,,,,,132,S,hexagon,1,0,,,,,,,,,,,,,,,,switch,number,numSwt,d,0.8948,Hi,,,,,,0,,,,,,space,10.0818,low,0,0,0,0,1,,,,,,,,,
295852,2022-12-02_12h01.31.068,vts_reward_expectancy_bt,2022.2.4,MacIntel,120.0048002,Chrome,1728,1117,,,,,1,622,,,,,,,,,,,,,,,,,160,B,triangle,1,0,,,,,,,,,,,,,,,,switch,letter,lettSwt,j,0.3287,Lo,,,,,,0,,,,,,,,low,1,0,1,0,1,,,,,,,,,
295852,2022-12-02_12h01.31.068,vts_reward_expectancy_bt,2022.2.4,MacIntel,120.0048002,Chrome,1728,1117,,,,,10,632,,,,,,,,,,,,,,,,,125,Y,circle,1,0,,,,,,,,,,,,,,,,repeat,letter,lettRpt,k,0.453,Hi,,,,,,0,,,,,,,,low,2,0,2,0,1,,,,,,,,,
295852,2022-12-02_12h01.31.068,vts_reward_expectancy_bt,2022.2.4,MacIntel,120.0048002,Chrome,1728,1117,,,,,0,632,,,,,,,,,,,,,,,,,181,H,star,0,0,,,,,,,,,,,,,,,,switch,number,NA,d,0.3063,Hi,,,,,,0,,,,,,,,low,3,0,3,0,1,,,,,,,,,
295852,2022-12-02_12h01.31.068,vts_reward_expectancy_bt,2022.2.4,MacIntel,120.0048002,Chrome,1728,1117,,,,,0,632,,,,,,,,,,,,,,,,,146,D,hexagon,0,1,,,,,,,,,,,,,,,,switch,letter,NA,k,0.4558,Hi,,,,,,0,,,,,,,,low,4,0,4,0,1,,,,,,,,,
295852,2022-12-02_12h01.31.068,vts_reward_expectancy_bt,2022.2.4,MacIntel,120.0048002,Chrome,1728,1117,,,,,10,642,,,,,,,,,,,,,,,,,174,W,triangle,1,1,,,,,,,,,,,,,,,,repeat,letter,lettRpt,k,0.4903,Lo,,,,,,0,,,,,,,,low,5,0,5,0,1,,,,,,,,,
295852,2022-12-02_12h01.31.068,vts_reward_expectancy_bt,2022.2.4,MacIntel,120.0048002,Chrome,1728,1117,,,,,1,643,,,,,,,,,,,,,,,,,139,U,circle,1,0,,,,,,,,,,,,,,,,repeat,letter,lettRpt,k,0.5789,Hi,,,,,,0,,,,,,,,low,6,0,6,0,1,,,,,,,,,
295852,2022-12-02_12h01.31.068,vts_reward_expectancy_bt,2022.2.4,MacIntel,120.0048002,Chrome,1728,1117,,,,,1,644,,,,,,,,,,,,,,,,,167,F,star,1,0,,,,,,,,,,,,,,,,repeat,letter,lettRpt,j,0.5963,Lo,,,,,,0,,,,,,,,low,7,0,7,0,1,,,,,,,,,
295852,2022-12-02_12h01.31.068,vts_reward_expectancy_bt,2022.2.4,MacIntel,120.0048002,Chrome,1728,1117,,,,,1,645,,,,,,,,,,,,,,,,,132,S,triangle,1,0,,,,,,,,,,,,,,,,repeat,letter,lettRpt,k,0.4259,Lo,,,,,,0,,,,,,,,low,8,0,8,0,1,,,,,,,,,
295852,2022-12-02_12h01.31.068,vts_reward_expectancy_bt,2022.2.4,MacIntel,120.0048002,Chrome,1728,1117,,,,,10,655,,,,,,,,,,,,,,,,,160,B,hexagon,1,0,,,,,,,,,,,,,,,,repeat,letter,lettRpt,j,0.5793,Hi,,,,,,0,,,,,,,,low,9,0,9,0,1,,,,,,,,,
295852,2022-12-02_12h01.31.068,vts_reward_expectancy_bt,2022.2.4,MacIntel,120.0048002,Chrome,1728,1117,,,,,1,656,,,,,,,,,,,,,,,,,125,Y,circle,1,0,,,,,,,,,,,,,,,,repeat,letter,lettRpt,k,0.4446,Hi,,,,,,0,,,,,,,,low,10,0,10,0,1,,,,,,,,,
295852,2022-12-02_12h01.31.068,vts_reward_expectancy_bt,2022.2.4,MacIntel,120.0048002,Chrome,1728,1117,,,,,0,656,,,,,,,,,,,,,,,,,181,H,star,0,0,,,,,,,,,,,,,,,,repeat,letter,NA,k,0.4324,Hi,,,,,,0,,,,,,,,low,11,0,11,0,1,,,,,,,,,
295852,2022-12-02_12h01.31.068,vts_reward_expectancy_bt,2022.2.4,MacIntel,120.0048002,Chrome,1728,1117,,,,,1,657,,,,,,,,,,,,,,,,,146,D,star,1,1,,,,,,,,,,,,,,,,repeat,letter,lettRpt,j,0.6959,Lo,,,,,,0,,,,,,,,low,12,0,12,0,1,,,,,,,,,
295852,2022-12-02_12h01.31.068,vts_reward_expectancy_bt,2022.2.4,MacIntel,120.0048002,Chrome,1728,1117,,,,,1,658,,,,,,,,,,,,,,,,,174,W,hexagon,1,0,,,,,,,,,,,,,,,,repeat,letter,lettRpt,k,0.5914,Hi,,,,,,0,,,,,,,,low,13,0,13,0,1,,,,,,,,,
295852,2022-12-02_12h01.31.068,vts_reward_expectancy_bt,2022.2.4,MacIntel,120.0048002,Chrome,1728,1117,,,,,10,668,,,,,,,,,,,,,,,,,139,U,circle,1,0,,,,,,,,,,,,,,,,repeat,letter,lettRpt,k,0.4448,Hi,,,,,,0,,,,,,,,low,14,0,14,0,1,,,,,,,,,
295852,2022-12-02_12h01.31.068,vts_reward_expectancy_bt,2022.2.4,MacIntel,120.0048002,Chrome,1728,1117,,,,,1,669,,,,,,,,,,,,,,,,,167,F,triangle,1,0,,,,,,,,,,,,,,,,repeat,letter,lettRpt,j,0.4131,Lo,,,,,,0,,,,,,,,low,15,0,15,0,1,,,,,,,,,
295852,2022-12-02_12h01.31.068,vts_reward_expectancy_bt,2022.2.4,MacIntel,120.0048002,Chrome,1728,1117,,,,,1,670,,,,,,,,,,,,,,,,,174,H,triangle,1,0,,,,,,,,,,,,,,,,repeat,letter,lettRpt,j,0.7443,Lo,,,,,,0,,,,,,,,low,16,0,16,0,1,,,,,,,,,
295852,2022-12-02_12h01.31.068,vts_reward_expectancy_bt,2022.2.4,MacIntel,120.0048002,Chrome,1728,1117,,,,,10,680,,,,,,,,,,,,,,,,,146,F,circle,1,0,,,,,,,,,,,,,,,,repeat,letter,lettRpt,j,0.512,Hi,,,,,,0,,,,,,,,low,17,0,17,0,1,,,,,,,,,
295852,2022-12-02_12h01.31.068,vts_reward_expectancy_bt,2022.2.4,MacIntel,120.0048002,Chrome,1728,1117,,,,,0,680,,,,,,,,,,,,,,,,,167,B,star,0,0,,,,,,,,,,,,,,,,repeat,letter,NA,k,0.4212,Hi,,,,,,0,,,,,,,,low,18,0,18,0,1,,,,,,,,,
295852,2022-12-02_12h01.31.068,vts_reward_expectancy_bt,2022.2.4,MacIntel,120.0048002,Chrome,1728,1117,,,,,0,680,,,,,,,,,,,,,,,,,181,S,hexagon,0,1,,,,,,,,,,,,,,,,repeat,letter,NA,j,0.6632,Hi,,,,,,0,,,,,,,,low,19,0,19,0,1,,,,,,,,,
295852,2022-12-02_12h01.31.068,vts_reward_expectancy_bt,2022.2.4,MacIntel,120.0048002,Chrome,1728,1117,,,,,10,690,,,,,,,,,,,,,,,,,132,Y,circle,1,1,,,,,,,,,,,,,,,,repeat,letter,lettRpt,k,0.5264,Hi,,,,,,0,,,,,,,,low,20,0,20,0,1,,,,,,,,,
295852,2022-12-02_12h01.31.068,vts_reward_expectancy_bt,2022.2.4,MacIntel,120.0048002,Chrome,1728,1117,,,,,1,691,,,,,,,,,,,,,,,,,160,U,star,1,0,,,,,,,,,,,,,,,,repeat,letter,lettRpt,k,0.5968,Lo,,,,,,0,,,,,,,,low,21,0,21,0,1,,,,,,,,,
295852,2022-12-02_12h01.31.068,vts_reward_expectancy_bt,2022.2.4,MacIntel,120.0048002,Chrome,1728,1117,,,,,0,691,,,,,,,,,,,,,,,,,139,D,hexagon,0,0,,,,,,,,,,,,,,,,repeat,letter,NA,k,0.4132,Lo,,,,,,0,,,,,,,,low,22,0,22,0,1,,,,,,,,,
295852,2022-12-02_12h01.31.068,vts_reward_expectancy_bt,2022.2.4,MacIntel,120.0048002,Chrome,1728,1117,,,,,1,692,,,,,,,,,,,,,,,,,125,W,triangle,1,1,,,,,,,,,,,,,,,,repeat,letter,lettRpt,k,0.7769,Lo,,,,,,0,,,,,,,,low,23,0,23,0,1,,,,,,,,,
295852,2022-12-02_12h01.31.068,vts_reward_expectancy_bt,2022.2.4,MacIntel,120.0048002,Chrome,1728,1117,,,,,1,693,,,,,,,,,,,,,,,,,160,F,triangle,1,0,,,,,,,,,,,,,,,,repeat,letter,lettRpt,j,0.6657,Lo,,,,,,0,,,,,,,,low,24,0,24,0,1,,,,,,,,,
295852,2022-12-02_12h01.31.068,vts_reward_expectancy_bt,2022.2.4,MacIntel,120.0048002,Chrome,1728,1117,,,,,10,703,,,,,,,,,,,,,,,,,132,Y,hexagon,1,0,,,,,,,,,,,,,,,,repeat,letter,lettRpt,k,0.4362,Hi,,,,,,0,,,,,,,,low,25,0,25,0,1,,,,,,,,,
295852,2022-12-02_12h01.31.068,vts_reward_expectancy_bt,2022.2.4,MacIntel,120.0048002,Chrome,1728,1117,,,,,10,713,,,,,,,,,,,,,,,,,125,B,circle,1,0,,,,,,,,,,,,,,,,repeat,letter,lettRpt,j,0.4749,Hi,,,,,,0,,,,,,,,low,26,0,26,0,1,,,,,,,,,
295852,2022-12-02_12h01.31.068,vts_reward_expectancy_bt,2022.2.4,MacIntel,120.0048002,Chrome,1728,1117,,,,,1,714,,,,,,,,,,,,,,,,,174,W,star,1,0,,,,,,,,,,,,,,,,repeat,letter,lettRpt,k,0.5217,Lo,,,,,,0,,,,,,,,low,27,0,27,0,1,,,,,,,,,
295852,2022-12-02_12h01.31.068,vts_reward_expectancy_bt,2022.2.4,MacIntel,120.0048002,Chrome,1728,1117,,,,,10,724,,,,,,,,,,,,,,,,,167,S,star,1,0,,,,,,,,,,,,,,,,repeat,letter,lettRpt,k,0.5583,Lo,,,,,,0,,,,,,,,low,28,0,28,0,1,,,,,,,,,
295852,2022-12-02_12h01.31.068,vts_reward_expectancy_bt,2022.2.4,MacIntel,120.0048002,Chrome,1728,1117,,,,,10,734,,,,,,,,,,,,,,,,,139,D,hexagon,1,0,,,,,,,,,,,,,,,,repeat,letter,lettRpt,j,0.5269,Hi,,,,,,0,,,,,,,,low,29,0,29,0,1,,,,,,,,,
295852,2022-12-02_12h01.31.068,vts_reward_expectancy_bt,2022.2.4,MacIntel,120.0048002,Chrome,1728,1117,,,,,1,735,,,,,,,,,,,,,,,,,146,U,triangle,1,0,,,,,,,,,,,,,,,,repeat,letter,lettRpt,k,0.6879,Lo,,,,,,0,,,,,,,,low,30,0,30,0,1,,,,,,,,,
295852,2022-12-02_12h01.31.068,vts_reward_expectancy_bt,2022.2.4,MacIntel,120.0048002,Chrome,1728,1117,,,,,10,745,,,,,,,,,,,,,,,,,181,H,circle,1,0,,,,,,,,,,,,,,,,repeat,letter,lettRpt,j,0.5472,Hi,,,,,,0,,,,,,,,low,31,0,31,0,1,,,,,,,,,
295852,2022-12-02_12h01.31.068,vts_reward_expectancy_bt,2022.2.4,MacIntel,120.0048002,Chrome,1728,1117,,,,,0,745,,,,,,,,,,,,,,,,,125,W,triangle,0,0,,,,,,,,,,,,,,,,repeat,letter,NA,j,0.6934,Hi,,,,,,1,,,,,,space,1.631,low,0,0,0,0,1,,,,,,,,,
295852,2022-12-02_12h01.31.068,vts_reward_expectancy_bt,2022.2.4,MacIntel,120.0048002,Chrome,1728,1117,,,,,0,745,,,,,,,,,,,,,,,,,132,D,hexagon,0,1,,,,,,,,,,,,,,,,repeat,letter,NA,k,0.0287,Hi,,,,,,1,,,,,,,,low,1,0,1,0,1,,,,,,,,,
295852,2022-12-02_12h01.31.068,vts_reward_expectancy_bt,2022.2.4,MacIntel,120.0048002,Chrome,1728,1117,,,,,10,755,,,,,,,,,,,,,,,,,139,F,circle,1,1,,,,,,,,,,,,,,,,repeat,letter,lettRpt,j,0.0473,Hi,,,,,,1,,,,,,,,low,2,0,2,0,1,,,,,,,,,
295852,2022-12-02_12h01.31.068,vts_reward_expectancy_bt,2022.2.4,MacIntel,120.0048002,Chrome,1728,1117,,,,,1,756,,,,,,,,,,,,,,,,,146,B,star,1,0,,,,,,,,,,,,,,,,switch,number,numSwt,d,0.1137,Lo,,,,,,1,,,,,,,,low,3,0,3,0,1,,,,,,,,,
295852,2022-12-02_12h01.31.068,vts_reward_expectancy_bt,2022.2.4,MacIntel,120.0048002,Chrome,1728,1117,,,,,0,756,,,,,,,,,,,,,,,,,160,U,triangle,0,0,,,,,,,,,,,,,,,,switch,letter,NA,j,0.0757,Lo,,,,,,1,,,,,,,,low,4,0,4,0,1,,,,,,,,,
295852,2022-12-02_12h01.31.068,vts_reward_expectancy_bt,2022.2.4,MacIntel,120.0048002,Chrome,1728,1117,,,,,0,756,,,,,,,,,,,,,,,,,181,Y,hexagon,0,1,,,,,,,,,,,,,,,,switch,number,NA,d,0.0616,Lo,,,,,,1,,,,,,,,low,5,0,5,0,1,,,,,,,,,
295852,2022-12-02_12h01.31.068,vts_reward_expectancy_bt,2022.2.4,MacIntel,120.0048002,Chrome,1728,1117,,,,,0,756,,,,,,,,,,,,,,,,,174,S,circle,0,1,,,,,,,,,,,,,,,,switch,letter,NA,j,0.0963,Lo,,,,,,1,,,,,,,,low,6,0,6,0,1,,,,,,,,,
295852,2022-12-02_12h01.31.068,vts_reward_expectancy_bt,2022.2.4,MacIntel,120.0048002,Chrome,1728,1117,,,,,1,757,,,,,,,,,,,,,,,,,167,H,star,1,1,,,,,,,,,,,,,,,,repeat,letter,lettRpt,j,0.0161,Lo,,,,,,1,,,,,,,,low,7,0,7,0,1,,,,,,,,,
295852,2022-12-02_12h01.31.068,vts_reward_expectancy_bt,2022.2.4,MacIntel,120.0048002,Chrome,1728,1117,,,,,10,767,,,,,,,,,,,,,,,,,125,W,star,1,0,,,,,,,,,,,,,,,,switch,number,numSwt,d,0.051,Lo,,,,,,1,,,,,,,,low,8,0,8,0,1,,,,,,,,,
295852,2022-12-02_12h01.31.068,vts_reward_expectancy_bt,2022.2.4,MacIntel,120.0048002,Chrome,1728,1117,,,,,10,777,,,,,,,,,,,,,,,,,132,D,triangle,1,0,,,,,,,,,,,,,,,,repeat,number,numRpt,d,0.0743,Lo,,,,,,1,,,,,,,,low,9,0,9,0,1,,,,,,,,,
295852,2022-12-02_12h01.31.068,vts_reward_expectancy_bt,2022.2.4,MacIntel,120.0048002,Chrome,1728,1117,,,,,1,778,,,,,,,,,,,,,,,,,139,F,circle,1,0,,,,,,,,,,,,,,,,switch,letter,lettSwt,j,0.118,Hi,,,,,,1,,,,,,,,low,10,0,10,0,1,,,,,,,,,
295852,2022-12-02_12h01.31.068,vts_reward_expectancy_bt,2022.2.4,MacIntel,120.0048002,Chrome,1728,1117,,,,,1,779,,,,,,,,,,,,,,,,,146,B,hexagon,1,0,,,,,,,,,,,,,,,,repeat,letter,lettRpt,j,0.0532,Hi,,,,,,1,,,,,,,,low,11,0,11,0,1,,,,,,,,,
295852,2022-12-02_12h01.31.068,vts_reward_expectancy_bt,2022.2.4,MacIntel,120.0048002,Chrome,1728,1117,,,,,0,779,,,,,,,,,,,,,,,,,160,U,star,0,0,,,,,,,,,,,,,,,,switch,number,NA,d,0.0091,Hi,,,,,,1,,,,,,,,low,12,0,12,0,1,,,,,,,,,
295852,2022-12-02_12h01.31.068,vts_reward_expectancy_bt,2022.2.4,MacIntel,120.0048002,Chrome,1728,1117,,,,,0,779,,,,,,,,,,,,,,,,,181,Y,circle,0,1,,,,,,,,,,,,,,,,switch,letter,NA,j,0.0019,Hi,,,,,,1,,,,,,,,low,13,0,13,0,1,,,,,,,,,
295852,2022-12-02_12h01.31.068,vts_reward_expectancy_bt,2022.2.4,MacIntel,120.0048002,Chrome,1728,1117,,,,,0,779,,,,,,,,,,,,,,,,,174,S,hexagon,0,1,,,,,,,,,,,,,,,,switch,number,NA,d,0.0548,Hi,,,,,,1,,,,,,,,low,14,0,14,0,1,,,,,,,,,
295852,2022-12-02_12h01.31.068,vts_reward_expectancy_bt,2022.2.4,MacIntel,120.0048002,Chrome,1728,1117,,,,,0,779,,,,,,,,,,,,,,,,,167,H,triangle,0,1,,,,,,,,,,,,,,,,switch,letter,NA,k,0.0536,Hi,,,,,,1,,,,,,,,low,15,0,15,0,1,,,,,,,,,
295852,2022-12-02_12h01.31.068,vts_reward_expectancy_bt,2022.2.4,MacIntel,120.0048002,Chrome,1728,1117,,,,,1,780,,,,,,,,,,,,,,,,,146,H,hexagon,1,1,,,,,,,,,,,,,,,,repeat,letter,lettRpt,j,0.083,Hi,,,,,,1,,,,,,,,low,16,0,16,0,1,,,,,,,,,
295852,2022-12-02_12h01.31.068,vts_reward_expectancy_bt,2022.2.4,MacIntel,120.0048002,Chrome,1728,1117,,,,,1,781,,,,,,,,,,,,,,,,,181,U,triangle,1,0,,,,,,,,,,,,,,,,repeat,letter,lettRpt,k,0.0554,Lo,,,,,,1,,,,,,,,low,17,0,17,0,1,,,,,,,,,
295852,2022-12-02_12h01.31.068,vts_reward_expectancy_bt,2022.2.4,MacIntel,120.0048002,Chrome,1728,1117,,,,,1,782,,,,,,,,,,,,,,,,,139,S,star,1,0,,,,,,,,,,,,,,,,switch,number,numSwt,d,0.0099,Lo,,,,,,1,,,,,,,,low,18,0,18,0,1,,,,,,,,,
295852,2022-12-02_12h01.31.068,vts_reward_expectancy_bt,2022.2.4,MacIntel,120.0048002,Chrome,1728,1117,,,,,0,782,,,,,,,,,,,,,,,,,125,D,circle,0,0,,,,,,,,,,,,,,,,switch,letter,NA,k,0.0894,Lo,,,,,,1,,,,,,,,low,19,0,19,0,1,,,,,,,,,
295852,2022-12-02_12h01.31.068,vts_reward_expectancy_bt,2022.2.4,MacIntel,120.0048002,Chrome,1728,1117,,,,,1,783,,,,,,,,,,,,,,,,,174,Y,star,1,1,,,,,,,,,,,,,,,,repeat,letter,lettRpt,k,0.0428,Lo,,,,,,1,,,,,,,,low,20,0,20,0,1,,,,,,,,,
295852,2022-12-02_12h01.31.068,vts_reward_expectancy_bt,2022.2.4,MacIntel,120.0048002,Chrome,1728,1117,,,,,0,783,,,,,,,,,,,,,,,,,167,F,triangle,0,0,,,,,,,,,,,,,,,,repeat,letter,NA,k,0.0036,Lo,,,,,,1,,,,,,,,low,21,0,21,0,1,,,,,,,,,
295852,2022-12-02_12h01.31.068,vts_reward_expectancy_bt,2022.2.4,MacIntel,120.0048002,Chrome,1728,1117,,,,,0,783,,,,,,,,,,,,,,,,,160,B,hexagon,0,1,,,,,,,,,,,,,,,,repeat,letter,NA,k,0.6709,Lo,,,,,,1,,,,,,,,low,22,0,22,0,1,,,,,,,,,
295852,2022-12-02_12h01.31.068,vts_reward_expectancy_bt,2022.2.4,MacIntel,120.0048002,Chrome,1728,1117,,,,,10,793,,,,,,,,,,,,,,,,,132,W,circle,1,1,,,,,,,,,,,,,,,,switch,number,numSwt,d,0.0787,Hi,,,,,,1,,,,,,,,low,23,0,23,0,1,,,,,,,,,
295852,2022-12-02_12h01.31.068,vts_reward_expectancy_bt,2022.2.4,MacIntel,120.0048002,Chrome,1728,1117,,,,,1,794,,,,,,,,,,,,,,,,,167,S,star,1,0,,,,,,,,,,,,,,,,switch,letter,lettSwt,k,0.0023,Lo,,,,,,1,,,,,,,,low,24,0,24,0,1,,,,,,,,,
295852,2022-12-02_12h01.31.068,vts_reward_expectancy_bt,2022.2.4,MacIntel,120.0048002,Chrome,1728,1117,,,,,1,795,,,,,,,,,,,,,,,,,160,H,triangle,1,0,,,,,,,,,,,,,,,,repeat,letter,lettRpt,j,0.1042,Lo,,,,,,1,,,,,,,,low,25,0,25,0,1,,,,,,,,,
295852,2022-12-02_12h01.31.068,vts_reward_expectancy_bt,2022.2.4,MacIntel,120.0048002,Chrome,1728,1117,,,,,10,805,,,,,,,,,,,,,,,,,139,W,hexagon,1,0,,,,,,,,,,,,,,,,switch,number,numSwt,d,0.0204,Hi,,,,,,1,,,,,,,,low,26,0,26,0,1,,,,,,,,,
295852,2022-12-02_12h01.31.068,vts_reward_expectancy_bt,2022.2.4,MacIntel,120.0048002,Chrome,1728,1117,,,,,10,815,,,,,,,,,,,,,,,,,181,D,circle,1,0,,,,,,,,,,,,,,,,switch,letter,lettSwt,j,0.083,Hi,,,,,,1,,,,,,,,low,27,0,27,0,1,,,,,,,,,
295852,2022-12-02_12h01.31.068,vts_reward_expectancy_bt,2022.2.4,MacIntel,120.0048002,Chrome,1728,1117,,,,,0,815,,,,,,,,,,,,,,,,,174,B,triangle,0,0,,,,,,,,,,,,,,,,repeat,letter,NA,k,0.0153,Hi,,,,,,1,,,,,,,,low,28,0,28,0,1,,,,,,,,,
295852,2022-12-02_12h01.31.068,vts_reward_expectancy_bt,2022.2.4,MacIntel,120.0048002,Chrome,1728,1117,,,,,1,816,,,,,,,,,,,,,,,,,125,F,hexagon,1,1,,,,,,,,,,,,,,,,repeat,letter,lettRpt,j,0.0781,Hi,,,,,,1,,,,,,,,low,29,0,29,0,1,,,,,,,,,
295852,2022-12-02_12h01.31.068,vts_reward_expectancy_bt,2022.2.4,MacIntel,120.0048002,Chrome,1728,1117,,,,,10,826,,,,,,,,,,,,,,,,,146,Y,circle,1,0,,,,,,,,,,,,,,,,repeat,letter,lettRpt,k,0.0635,Hi,,,,,,1,,,,,,,,low,30,0,30,0,1,,,,,,,,,
295852,2022-12-02_12h01.31.068,vts_reward_expectancy_bt,2022.2.4,MacIntel,120.0048002,Chrome,1728,1117,,,,,0,826,,,,,,,,,,,,,,,,,132,U,star,0,0,,,,,,,,,,,,,,,,repeat,letter,NA,j,0.0845,Hi,,,,,,1,,,,,,,,low,31,0,31,0,1,,,,,,,,,
295852,2022-12-02_12h01.31.068,vts_reward_expectancy_bt,2022.2.4,MacIntel,120.0048002,Chrome,1728,1117,,,,,1,827,,,,,,,,,,,,,,,,,139,S,triangle,1,1,,,,,,,,,,,,,,,,repeat,letter,lettRpt,k,0.0004,Lo,,,,,,2,,,,,,space,0.467,low,0,0,0,0,1,,,,,,,,,
295852,2022-12-02_12h01.31.068,vts_reward_expectancy_bt,2022.2.4,MacIntel,120.0048002,Chrome,1728,1117,,,,,0,827,,,,,,,,,,,,,,,,,181,U,star,0,0,,,,,,,,,,,,,,,,repeat,letter,NA,j,0.0767,Lo,,,,,,2,,,,,,,,low,1,0,1,0,1,,,,,,,,,
295852,2022-12-02_12h01.31.068,vts_reward_expectancy_bt,2022.2.4,MacIntel,120.0048002,Chrome,1728,1117,,,,,0,827,,,,,,,,,,,,,,,,,174,W,circle,0,1,,,,,,,,,,,,,,,,repeat,letter,NA,j,0.0633,Lo,,,,,,2,,,,,,,,low,2,0,2,0,1,,,,,,,,,
295852,2022-12-02_12h01.31.068,vts_reward_expectancy_bt,2022.2.4,MacIntel,120.0048002,Chrome,1728,1117,,,,,0,827,,,,,,,,,,,,,,,,,146,B,hexagon,0,1,,,,,,,,,,,,,,,,repeat,letter,NA,k,0.1023,Lo,,,,,,2,,,,,,,,low,3,0,3,0,1,,,,,,,,,
295852,2022-12-02_12h01.31.068,vts_reward_expectancy_bt,2022.2.4,MacIntel,120.0048002,Chrome,1728,1117,,,,,1,828,,,,,,,,,,,,,,,,,132,H,triangle,1,1,,,,,,,,,,,,,,,,repeat,letter,lettRpt,j,0.0964,Lo,,,,,,2,,,,,,,,low,4,0,4,0,1,,,,,,,,,
295852,2022-12-02_12h01.31.068,vts_reward_expectancy_bt,2022.2.4,MacIntel,120.0048002,Chrome,1728,1117,,,,,10,838,,,,,,,,,,,,,,,,,125,F,star,1,0,,,,,,,,,,,,,,,,repeat,letter,lettRpt,j,0.0921,Lo,,,,,,2,,,,,,,,low,5,0,5,0,1,,,,,,,,,
295852,2022-12-02_12h01.31.068,vts_reward_expectancy_bt,2022.2.4,MacIntel,120.0048002,Chrome,1728,1117,,,,,10,848,,,,,,,,,,,,,,,,,167,D,circle,1,0,,,,,,,,,,,,,,,,repeat,letter,lettRpt,j,0.0365,Hi,,,,,,2,,,,,,,,low,6,0,6,0,1,,,,,,,,,
295852,2022-12-02_12h01.31.068,vts_reward_expectancy_bt,2022.2.4,MacIntel,120.0048002,Chrome,1728,1117,,,,,0,848,,,,,,,,,,,,,,,,,160,Y,hexagon,0,0,,,,,,,,,,,,,,,,repeat,letter,NA,j,0.0923,Hi,,,,,,2,,,,,,,,low,7,0,7,0,1,,,,,,,,,
295852,2022-12-02_12h01.31.068,vts_reward_expectancy_bt,2022.2.4,MacIntel,120.0048002,Chrome,1728,1117,,,,,1,849,,,,,,,,,,,,,,,,,139,S,triangle,1,1,,,,,,,,,,,,,,,,repeat,letter,lettRpt,k,0.0933,Lo,,,,,,2,,,,,,,,low,8,0,8,0,1,,,,,,,,,
295852,2022-12-02_12h01.31.068,vts_reward_expectancy_bt,2022.2.4,MacIntel,120.0048002,Chrome,1728,1117,,,,,0,849,,,,,,,,,,,,,,,,,181,U,circle,0,0,,,,,,,,,,,,,,,,repeat,letter,NA,j,0.2157,Lo,,,,,,2,,,,,,,,low,9,0,9,0,1,,,,,,,,,
295852,2022-12-02_12h01.31.068,vts_reward_expectancy_bt,2022.2.4,MacIntel,120.0048002,Chrome,1728,1117,,,,,0,849,,,,,,,,,,,,,,,,,174,W,hexagon,1,1,,,,,,,,,,,,,,,,repeat,letter,lettRpt,k,0.0748,Hi,,,,,,2,,,,,,,,low,10,0,10,0,1,,,,,,,,,
295852,2022-12-02_12h01.31.068,vts_reward_expectancy_bt,2022.2.4,MacIntel,120.0048002,Chrome,1728,1117,,,,,0,849,,,,,,,,,,,,,,,,,146,B,star,0,0,,,,,,,,,,,,,,,,repeat,letter,NA,k,0.2469,Hi,,,,,,2,,,,,,,,low,11,0,11,0,1,,,,,,,,,
295852,2022-12-02_12h01.31.068,vts_reward_expectancy_bt,2022.2.4,MacIntel,120.0048002,Chrome,1728,1117,,,,,1,850,,,,,,,,,,,,,,,,,132,H,star,1,1,,,,,,,,,,,,,,,,repeat,letter,lettRpt,j,0.0003,Lo,,,,,,2,,,,,,,,low,12,0,12,0,1,,,,,,,,,
295852,2022-12-02_12h01.31.068,vts_reward_expectancy_bt,2022.2.4,MacIntel,120.0048002,Chrome,1728,1117,,,,,10,860,,,,,,,,,,,,,,,,,125,F,triangle,1,0,,,,,,,,,,,,,,,,repeat,letter,lettRpt,j,0.1156,Lo,,,,,,2,,,,,,,,low,13,0,13,0,1,,,,,,,,,
295852,2022-12-02_12h01.31.068,vts_reward_expectancy_bt,2022.2.4,MacIntel,120.0048002,Chrome,1728,1117,,,,,0,860,,,,,,,,,,,,,,,,,167,D,hexagon,1,0,,,,,,,,,,,,,,,,repeat,letter,lettRpt,j,0.2323,Hi,,,,,,2,,,,,,,,low,14,0,14,0,1,,,,,,,,,
295852,2022-12-02_12h01.31.068,vts_reward_expectancy_bt,2022.2.4,MacIntel,120.0048002,Chrome,1728,1117,,,,,0,860,,,,,,,,,,,,,,,,,160,Y,circle,0,0,,,,,,,,,,,,,,,,repeat,letter,NA,j,0.0776,Hi,,,,,,2,,,,,,,,low,15,0,15,0,1,,,,,,,,,
295852,2022-12-02_12h01.31.068,vts_reward_expectancy_bt,2022.2.4,MacIntel,120.0048002,Chrome,1728,1117,,,,,0,860,,,,,,,,,,,,,,,,,167,F,hexagon,0,1,,,,,,,,,,,,,,,,repeat,letter,NA,k,0.0979,Hi,,,,,,2,,,,,,,,low,16,0,16,0,1,,,,,,,,,
295852,2022-12-02_12h01.31.068,vts_reward_expectancy_bt,2022.2.4,MacIntel,120.0048002,Chrome,1728,1117,,,,,0,860,,,,,,,,,,,,,,,,,181,U,circle,1,1,,,,,,,,,,,,,,,,repeat,letter,lettRpt,k,0.1137,Hi,,,,,,2,,,,,,,,low,17,0,17,0,1,,,,,,,,,
295852,2022-12-02_12h01.31.068,vts_reward_expectancy_bt,2022.2.4,MacIntel,120.0048002,Chrome,1728,1117,,,,,1,861,,,,,,,,,,,,,,,,,146,H,star,1,0,,,,,,,,,,,,,,,,repeat,letter,lettRpt,j,0.2457,Lo,,,,,,2,,,,,,,,low,18,0,18,0,1,,,,,,,,,
295852,2022-12-02_12h01.31.068,vts_reward_expectancy_bt,2022.2.4,MacIntel,120.0048002,Chrome,1728,1117,,,,,1,862,,,,,,,,,,,,,,,,,174,B,triangle,1,0,,,,,,,,,,,,,,,,repeat,letter,lettRpt,j,0.02,Lo,,,,,,2,,,,,,,,low,19,0,19,0,1,,,,,,,,,
295852,2022-12-02_12h01.31.068,vts_reward_expectancy_bt,2022.2.4,MacIntel,120.0048002,Chrome,1728,1117,,,,,0,862,,,,,,,,,,,,,,,,,132,D,triangle,0,0,,,,,,,,,,,,,,,,repeat,letter,NA,k,0.0094,Lo,,,,,,2,,,,,,,,low,20,0,20,0,1,,,,,,,,,
295852,2022-12-02_12h01.31.068,vts_reward_expectancy_bt,2022.2.4,MacIntel,120.0048002,Chrome,1728,1117,,,,,0,862,,,,,,,,,,,,,,,,,160,S,circle,0,1,,,,,,,,,,,,,,,,repeat,letter,NA,j,0.3617,Lo,,,,,,2,,,,,,,,low,21,0,21,0,1,,,,,,,,,
295852,2022-12-02_12h01.31.068,vts_reward_expectancy_bt,2022.2.4,MacIntel,120.0048002,Chrome,1728,1117,,,,,0,862,,,,,,,,,,,,,,,,,125,W,hexagon,1,1,,,,,,,,,,,,,,,,repeat,letter,lettRpt,k,2.3989,Hi,,,,,,2,,,,,,,,low,22,0,22,0,1,,,,,,,,,
295852,2022-12-02_12h01.31.068,vts_reward_expectancy_bt,2022.2.4,MacIntel,120.0048002,Chrome,1728,1117,,,,,1,863,,,,,,,,,,,,,,,,,139,Y,star,1,0,,,,,,,,,,,,,,,,repeat,letter,lettRpt,k,0.7391,Lo,,,,,,2,,,,,,,,low,23,0,23,0,1,,,,,,,,,
295852,2022-12-02_12h01.31.068,vts_reward_expectancy_bt,2022.2.4,MacIntel,120.0048002,Chrome,1728,1117,,,,,0,863,,,,,,,,,,,,,,,,,146,W,circle,1,0,,,,,,,,,,,,,,,,repeat,letter,lettRpt,k,0.0733,Hi,,,,,,2,,,,,,,,low,24,0,24,0,1,,,,,,,,,
295852,2022-12-02_12h01.31.068,vts_reward_expectancy_bt,2022.2.4,MacIntel,120.0048002,Chrome,1728,1117,,,,,0,863,,,,,,,,,,,,,,,,,174,D,triangle,0,0,,,,,,,,,,,,,,,,repeat,letter,NA,k,0.0455,Hi,,,,,,2,,,,,,,,low,25,0,25,0,1,,,,,,,,,
295852,2022-12-02_12h01.31.068,vts_reward_expectancy_bt,2022.2.4,MacIntel,120.0048002,Chrome,1728,1117,,,,,0,863,,,,,,,,,,,,,,,,,125,H,star,0,1,,,,,,,,,,,,,,,,repeat,letter,NA,k,0.6901,Hi,,,,,,2,,,,,,,,low,26,0,26,0,1,,,,,,,,,
295852,2022-12-02_12h01.31.068,vts_reward_expectancy_bt,2022.2.4,MacIntel,120.0048002,Chrome,1728,1117,,,,,1,864,,,,,,,,,,,,,,,,,167,B,hexagon,1,1,,,,,,,,,,,,,,,,repeat,letter,lettRpt,j,0.0003,Hi,,,,,,2,,,,,,,,low,27,0,27,0,1,,,,,,,,,
295852,2022-12-02_12h01.31.068,vts_reward_expectancy_bt,2022.2.4,MacIntel,120.0048002,Chrome,1728,1117,,,,,10,874,,,,,,,,,,,,,,,,,160,Y,star,1,0,,,,,,,,,,,,,,,,repeat,letter,lettRpt,k,0.1764,Lo,,,,,,2,,,,,,,,low,28,0,28,0,1,,,,,,,,,
295852,2022-12-02_12h01.31.068,vts_reward_expectancy_bt,2022.2.4,MacIntel,120.0048002,Chrome,1728,1117,,,,,10,884,,,,,,,,,,,,,,,,,181,S,triangle,1,0,,,,,,,,,,,,,,,,repeat,letter,lettRpt,k,0.0627,Lo,,,,,,2,,,,,,,,low,29,0,29,0,1,,,,,,,,,
295852,2022-12-02_12h01.31.068,vts_reward_expectancy_bt,2022.2.4,MacIntel,120.0048002,Chrome,1728,1117,,,,,1,885,,,,,,,,,,,,,,,,,132,F,circle,1,0,,,,,,,,,,,,,,,,repeat,letter,lettRpt,j,0.0004,Hi,,,,,,2,,,,,,,,low,30,0,30,0,1,,,,,,,,,
295852,2022-12-02_12h01.31.068,vts_reward_expectancy_bt,2022.2.4,MacIntel,120.0048002,Chrome,1728,1117,,,,,0,885,,,,,,,,,,,,,,,,,139,U,hexagon,1,0,,,,,,,,,,,,,,,,repeat,letter,lettRpt,k,0.0808,Hi,,,,,,2,,,,,,,,low,31,0,31,0,1,,,,,,,,,
295852,2022-12-02_12h01.31.068,vts_reward_expectancy_bt,2022.2.4,MacIntel,120.0048002,Chrome,1728,1117,,,,,1,886,,,,,,,,,,,,,,,,,146,S,star,1,0,,,,,,,,,,,,,,,,repeat,letter,lettRpt,k,1.332,Lo,,,,,,3,,,,,,space,0.5051,low,0,0,0,0,1,,,,,,,,,
295852,2022-12-02_12h01.31.068,vts_reward_expectancy_bt,2022.2.4,MacIntel,120.0048002,Chrome,1728,1117,,,,,0,886,,,,,,,,,,,,,,,,,139,U,circle,0,0,,,,,,,,,,,,,,,,repeat,letter,NA,j,0.2041,Lo,,,,,,3,,,,,,,,low,1,0,1,0,1,,,,,,,,,
295852,2022-12-02_12h01.31.068,vts_reward_expectancy_bt,2022.2.4,MacIntel,120.0048002,Chrome,1728,1117,,,,,1,887,,,,,,,,,,,,,,,,,174,D,triangle,1,1,,,,,,,,,,,,,,,,repeat,letter,lettRpt,j,0.1544,Lo,,,,,,3,,,,,,,,low,2,0,2,0,1,,,,,,,,,
295852,2022-12-02_12h01.31.068,vts_reward_expectancy_bt,2022.2.4,MacIntel,120.0048002,Chrome,1728,1117,,,,,0,887,,,,,,,,,,,,,,,,,167,F,hexagon,0,0,,,,,,,,,,,,,,,,repeat,letter,NA,k,0.2266,Lo,,,,,,3,,,,,,,,low,3,0,3,0,1,,,,,,,,,
295852,2022-12-02_12h01.31.068,vts_reward_expectancy_bt,2022.2.4,MacIntel,120.0048002,Chrome,1728,1117,,,,,10,897,,,,,,,,,,,,,,,,,125,B,star,1,1,,,,,,,,,,,,,,,,repeat,letter,lettRpt,j,0.0512,Lo,,,,,,3,,,,,,,,low,4,0,4,0,1,,,,,,,,,
295852,2022-12-02_12h01.31.068,vts_reward_expectancy_bt,2022.2.4,MacIntel,120.0048002,Chrome,1728,1117,,,,,0,897,,,,,,,,,,,,,,,,,132,Y,circle,0,0,,,,,,,,,,,,,,,,repeat,letter,NA,j,0.1695,Lo,,,,,,3,,,,,,,,low,5,0,5,0,1,,,,,,,,,
295852,2022-12-02_12h01.31.068,vts_reward_expectancy_bt,2022.2.4,MacIntel,120.0048002,Chrome,1728,1117,,,,,0,897,,,,,,,,,,,,,,,,,160,H,triangle,0,1,,,,,,,,,,,,,,,,repeat,letter,NA,k,0.1213,Lo,,,,,,3,,,,,,,,low,6,0,6,0,1,,,,,,,,,
295852,2022-12-02_12h01.31.068,vts_reward_expectancy_bt,2022.2.4,MacIntel,120.0048002,Chrome,1728,1117,,,,,10,907,,,,,,,,,,,,,,,,,181,W,hexagon,1,1,,,,,,,,,,,,,,,,repeat,letter,lettRpt,k,0.0003,Hi,,,,,,3,,,,,,,,low,7,0,7,0,1,,,,,,,,,
295852,2022-12-02_12h01.31.068,vts_reward_expectancy_bt,2022.2.4,MacIntel,120.0048002,Chrome,1728,1117,,,,,0,907,,,,,,,,,,,,,,,,,146,S,hexagon,0,0,,,,,,,,,,,,,,,,repeat,letter,NA,j,0.184,Hi,,,,,,3,,,,,,,,low,8,0,8,0,1,,,,,,,,,
295852,2022-12-02_12h01.31.068,vts_reward_expectancy_bt,2022.2.4,MacIntel,120.0048002,Chrome,1728,1117,,,,,1,908,,,,,,,,,,,,,,,,,139,U,star,1,1,,,,,,,,,,,,,,,,repeat,letter,lettRpt,k,0.1713,Lo,,,,,,3,,,,,,,,low,9,0,9,0,1,,,,,,,,,
295852,2022-12-02_12h01.31.068,vts_reward_expectancy_bt,2022.2.4,MacIntel,120.0048002,Chrome,1728,1117,,,,,0,908,,,,,,,,,,,,,,,,,174,D,circle,1,0,,,,,,,,,,,,,,,,repeat,letter,lettRpt,j,0.0979,Hi,,,,,,3,,,,,,,,low,10,0,10,0,1,,,,,,,,,
295852,2022-12-02_12h01.31.068,vts_reward_expectancy_bt,2022.2.4,MacIntel,120.0048002,Chrome,1728,1117,,,,,0,908,,,,,,,,,,,,,,,,,167,F,triangle,0,0,,,,,,,,,,,,,,,,repeat,letter,NA,k,0.2392,Hi,,,,,,3,,,,,,,,low,11,0,11,0,1,,,,,,,,,
295852,2022-12-02_12h01.31.068,vts_reward_expectancy_bt,2022.2.4,MacIntel,120.0048002,Chrome,1728,1117,,,,,1,909,,,,,,,,,,,,,,,,,125,B,star,1,1,,,,,,,,,,,,,,,,repeat,letter,lettRpt,j,0.1387,Lo,,,,,,3,,,,,,,,low,12,0,12,0,1,,,,,,,,,
295852,2022-12-02_12h01.31.068,vts_reward_expectancy_bt,2022.2.4,MacIntel,120.0048002,Chrome,1728,1117,,,,,0,909,,,,,,,,,,,,,,,,,132,Y,circle,1,0,,,,,,,,,,,,,,,,repeat,letter,lettRpt,k,0.2209,Hi,,,,,,3,,,,,,,,low,13,0,13,0,1,,,,,,,,,
295852,2022-12-02_12h01.31.068,vts_reward_expectancy_bt,2022.2.4,MacIntel,120.0048002,Chrome,1728,1117,,,,,0,909,,,,,,,,,,,,,,,,,160,H,triangle,0,0,,,,,,,,,,,,,,,,repeat,letter,NA,k,0.069,Hi,,,,,,3,,,,,,,,low,14,0,14,0,1,,,,,,,,,
295852,2022-12-02_12h01.31.068,vts_reward_expectancy_bt,2022.2.4,MacIntel,120.0048002,Chrome,1728,1117,,,,,0,909,,,,,,,,,,,,,,,,,181,W,hexagon,1,1,,,,,,,,,,,,,,,,repeat,letter,lettRpt,k,0.4524,Hi,,,,,,3,,,,,,,,low,15,0,15,0,1,,,,,,,,,
295852,2022-12-02_12h01.31.068,vts_reward_expectancy_bt,2022.2.4,MacIntel,120.0048002,Chrome,1728,1117,,,,,0,909,,,,,,,,,,,,,,,,,174,W,triangle,0,0,,,,,,,,,,,,,,,,repeat,letter,NA,j,0.1699,Hi,,,,,,3,,,,,,,,low,16,0,16,0,1,,,,,,,,,
295852,2022-12-02_12h01.31.068,vts_reward_expectancy_bt,2022.2.4,MacIntel,120.0048002,Chrome,1728,1117,,,,,0,909,,,,,,,,,,,,,,,,,146,D,star,0,1,,,,,,,,,,,,,,,,repeat,letter,NA,k,0.3572,Hi,,,,,,3,,,,,,,,low,17,0,17,0,1,,,,,,,,,
295852,2022-12-02_12h01.31.068,vts_reward_expectancy_bt,2022.2.4,MacIntel,120.0048002,Chrome,1728,1117,,,,,0,909,,,,,,,,,,,,,,,,,167,F,hexagon,0,1,,,,,,,,,,,,,,,,repeat,letter,NA,k,0.2819,Hi,,,,,,3,,,,,,,,low,18,0,18,0,1,,,,,,,,,
295852,2022-12-02_12h01.31.068,vts_reward_expectancy_bt,2022.2.4,MacIntel,120.0048002,Chrome,1728,1117,,,,,0,909,,,,,,,,,,,,,,,,,132,U,circle,0,1,,,,,,,,,,,,,,,,repeat,letter,NA,j,0.1362,Hi,,,,,,3,,,,,,,,low,19,0,19,0,1,,,,,,,,,
295852,2022-12-02_12h01.31.068,vts_reward_expectancy_bt,2022.2.4,MacIntel,120.0048002,Chrome,1728,1117,,,,,1,910,,,,,,,,,,,,,,,,,139,H,triangle,1,1,,,,,,,,,,,,,,,,repeat,letter,lettRpt,j,0.0402,Lo,,,,,,3,,,,,,,,low,20,0,20,0,1,,,,,,,,,
295852,2022-12-02_12h01.31.068,vts_reward_expectancy_bt,2022.2.4,MacIntel,120.0048002,Chrome,1728,1117,,,,,0,910,,,,,,,,,,,,,,,,,160,S,hexagon,1,0,,,,,,,,,,,,,,,,repeat,letter,lettRpt,k,0.0907,Hi,,,,,,3,,,,,,,,low,21,0,21,0,1,,,,,,,,,
295852,2022-12-02_12h01.31.068,vts_reward_expectancy_bt,2022.2.4,MacIntel,120.0048002,Chrome,1728,1117,,,,,0,910,,,,,,,,,,,,,,,,,125,Y,star,0,0,,,,,,,,,,,,,,,,repeat,letter,NA,j,0.1384,Hi,,,,,,3,,,,,,,,low,22,0,22,0,1,,,,,,,,,
295852,2022-12-02_12h01.31.068,vts_reward_expectancy_bt,2022.2.4,MacIntel,120.0048002,Chrome,1728,1117,,,,,0,910,,,,,,,,,,,,,,,,,181,B,circle,0,1,,,,,,,,,,,,,,,,repeat,letter,NA,k,0.3724,Hi,,,,,,3,,,,,,,,low,23,0,23,0,1,,,,,,,,,
295852,2022-12-02_12h01.31.068,vts_reward_expectancy_bt,2022.2.4,MacIntel,120.0048002,Chrome,1728,1117,,,,,10,920,,,,,,,,,,,,,,,,,146,H,circle,1,1,,,,,,,,,,,,,,,,repeat,letter,lettRpt,j,0.0004,Hi,,,,,,3,,,,,,,,low,24,0,24,0,1,,,,,,,,,
295852,2022-12-02_12h01.31.068,vts_reward_expectancy_bt,2022.2.4,MacIntel,120.0048002,Chrome,1728,1117,,,,,10,930,,,,,,,,,,,,,,,,,160,D,star,1,0,,,,,,,,,,,,,,,,repeat,letter,lettRpt,j,0.1356,Lo,,,,,,3,,,,,,,,low,25,0,25,0,1,,,,,,,,,
295852,2022-12-02_12h01.31.068,vts_reward_expectancy_bt,2022.2.4,MacIntel,120.0048002,Chrome,1728,1117,,,,,1,931,,,,,,,,,,,,,,,,,139,W,triangle,1,0,,,,,,,,,,,,,,,,repeat,letter,lettRpt,k,0.1976,Lo,,,,,,3,,,,,,,,low,26,0,26,0,1,,,,,,,,,
295852,2022-12-02_12h01.31.068,vts_reward_expectancy_bt,2022.2.4,MacIntel,120.0048002,Chrome,1728,1117,,,,,0,931,,,,,,,,,,,,,,,,,132,B,hexagon,1,0,,,,,,,,,,,,,,,,repeat,letter,lettRpt,j,0.6826,Hi,,,,,,3,,,,,,,,low,27,0,27,0,1,,,,,,,,,
295852,2022-12-02_12h01.31.068,vts_reward_expectancy_bt,2022.2.4,MacIntel,120.0048002,Chrome,1728,1117,,,,,10,941,,,,,,,,,,,,,,,,,174,Y,circle,1,0,,,,,,,,,,,,,,,,repeat,letter,lettRpt,k,0.0231,Hi,,,,,,3,,,,,,,,low,28,0,28,0,1,,,,,,,,,
295852,2022-12-02_12h01.31.068,vts_reward_expectancy_bt,2022.2.4,MacIntel,120.0048002,Chrome,1728,1117,,,,,0,941,,,,,,,,,,,,,,,,,167,S,star,0,0,,,,,,,,,,,,,,,,repeat,letter,NA,j,0.0004,Hi,,,,,,3,,,,,,,,low,29,0,29,0,1,,,,,,,,,
295852,2022-12-02_12h01.31.068,vts_reward_expectancy_bt,2022.2.4,MacIntel,120.0048002,Chrome,1728,1117,,,,,0,941,,,,,,,,,,,,,,,,,181,U,hexagon,0,1,,,,,,,,,,,,,,,,repeat,letter,NA,j,0.056,Hi,,,,,,3,,,,,,,,low,30,0,30,0,1,,,,,,,,,
295852,2022-12-02_12h01.31.068,vts_reward_expectancy_bt,2022.2.4,MacIntel,120.0048002,Chrome,1728,1117,,,,,0,941,,,,,,,,,,,,,,,,,125,F,triangle,0,1,,,,,,,,,,,,,,,,repeat,letter,NA,k,0.0595,Hi,,,,,,3,,,,,,,,low,31,0,31,0,1,,,,,,,,,
295852,2022-12-02_12h01.31.068,vts_reward_expectancy_bt,2022.2.4,MacIntel,120.0048002,Chrome,1728,1117,,,,,1,942,,,,,,,,,,,,,,,,,132,Y,triangle,1,1,,,,,,,,,,,,,,,,repeat,letter,lettRpt,k,0.0297,Lo,,,,,,4,,,,,,space,0.4656,low,0,0,0,0,1,,,,,,,,,
295852,2022-12-02_12h01.31.068,vts_reward_expectancy_bt,2022.2.4,MacIntel,120.0048002,Chrome,1728,1117,,,,,1,943,,,,,,,,,,,,,,,,,125,D,star,1,0,,,,,,,,,,,,,,,,repeat,letter,lettRpt,j,0.0241,Lo,,,,,,4,,,,,,,,low,1,0,1,0,1,,,,,,,,,
295852,2022-12-02_12h01.31.068,vts_reward_expectancy_bt,2022.2.4,MacIntel,120.0048002,Chrome,1728,1117,,,,,0,943,,,,,,,,,,,,,,,,,174,S,circle,0,0,,,,,,,,,,,,,,,,repeat,letter,NA,j,0.0957,Lo,,,,,,4,,,,,,,,low,2,0,2,0,1,,,,,,,,,
295852,2022-12-02_12h01.31.068,vts_reward_expectancy_bt,2022.2.4,MacIntel,120.0048002,Chrome,1728,1117,,,,,0,943,,,,,,,,,,,,,,,,,146,U,hexagon,1,1,,,,,,,,,,,,,,,,repeat,letter,lettRpt,k,0.0932,Hi,,,,,,4,,,,,,,,low,3,0,3,0,1,,,,,,,,,
295852,2022-12-02_12h01.31.068,vts_reward_expectancy_bt,2022.2.4,MacIntel,120.0048002,Chrome,1728,1117,,,,,1,944,,,,,,,,,,,,,,,,,167,H,triangle,1,0,,,,,,,,,,,,,,,,repeat,letter,lettRpt,j,0.2175,Lo,,,,,,4,,,,,,,,low,4,0,4,0,1,,,,,,,,,
295852,2022-12-02_12h01.31.068,vts_reward_expectancy_bt,2022.2.4,MacIntel,120.0048002,Chrome,1728,1117,,,,,0,944,,,,,,,,,,,,,,,,,139,F,star,0,0,,,,,,,,,,,,,,,,repeat,letter,NA,k,0.0056,Lo,,,,,,4,,,,,,,,low,5,0,5,0,1,,,,,,,,,
295852,2022-12-02_12h01.31.068,vts_reward_expectancy_bt,2022.2.4,MacIntel,120.0048002,Chrome,1728,1117,,,,,0,944,,,,,,,,,,,,,,,,,160,W,circle,0,1,,,,,,,,,,,,,,,,repeat,letter,NA,j,0.0605,Lo,,,,,,4,,,,,,,,low,6,0,6,0,1,,,,,,,,,
295852,2022-12-02_12h01.31.068,vts_reward_expectancy_bt,2022.2.4,MacIntel,120.0048002,Chrome,1728,1117,,,,,0,944,,,,,,,,,,,,,,,,,181,B,hexagon,1,1,,,,,,,,,,,,,,,,repeat,letter,lettRpt,j,0.1145,Hi,,,,,,4,,,,,,,,low,7,0,7,0,1,,,,,,,,,
295852,2022-12-02_12h01.31.068,vts_reward_expectancy_bt,2022.2.4,MacIntel,120.0048002,Chrome,1728,1117,,,,,1,945,,,,,,,,,,,,,,,,,132,Y,triangle,1,0,,,,,,,,,,,,,,,,repeat,letter,lettRpt,k,0.157,Lo,,,,,,4,,,,,,,,low,8,0,8,0,1,,,,,,,,,
295852,2022-12-02_12h01.31.068,vts_reward_expectancy_bt,2022.2.4,MacIntel,120.0048002,Chrome,1728,1117,,,,,10,955,,,,,,,,,,,,,,,,,125,D,hexagon,1,0,,,,,,,,,,,,,,,,repeat,letter,lettRpt,j,0.0219,Hi,,,,,,4,,,,,,,,low,9,0,9,0,1,,,,,,,,,
295852,2022-12-02_12h01.31.068,vts_reward_expectancy_bt,2022.2.4,MacIntel,120.0048002,Chrome,1728,1117,,,,,1,956,,,,,,,,,,,,,,,,,174,S,star,1,0,,,,,,,,,,,,,,,,repeat,letter,lettRpt,k,0.0057,Lo,,,,,,4,,,,,,,,low,10,0,10,0,1,,,,,,,,,
295852,2022-12-02_12h01.31.068,vts_reward_expectancy_bt,2022.2.4,MacIntel,120.0048002,Chrome,1728,1117,,,,,10,966,,,,,,,,,,,,,,,,,146,U,circle,1,0,,,,,,,,,,,,,,,,repeat,letter,lettRpt,k,0.0211,Hi,,,,,,4,,,,,,,,low,11,0,11,0,1,,,,,,,,,
295852,2022-12-02_12h01.31.068,vts_reward_expectancy_bt,2022.2.4,MacIntel,120.0048002,Chrome,1728,1117,,,,,10,976,,,,,,,,,,,,,,,,,167,H,hexagon,1,0,,,,,,,,,,,,,,,,repeat,letter,lettRpt,j,0.0224,Hi,,,,,,4,,,,,,,,low,12,0,12,0,1,,,,,,,,,
295852,2022-12-02_12h01.31.068,vts_reward_expectancy_bt,2022.2.4,MacIntel,120.0048002,Chrome,1728,1117,,,,,0,976,,,,,,,,,,,,,,,,,139,F,star,0,0,,,,,,,,,,,,,,,,repeat,letter,NA,k,0.0955,Hi,,,,,,4,,,,,,,,low,13,0,13,0,1,,,,,,,,,
295852,2022-12-02_12h01.31.068,vts_reward_expectancy_bt,2022.2.4,MacIntel,120.0048002,Chrome,1728,1117,,,,,10,986,,,,,,,,,,,,,,,,,160,W,triangle,1,1,,,,,,,,,,,,,,,,repeat,letter,lettRpt,k,0.0034,Lo,,,,,,4,,,,,,,,low,14,0,14,0,1,,,,,,,,,
295852,2022-12-02_12h01.31.068,vts_reward_expectancy_bt,2022.2.4,MacIntel,120.0048002,Chrome,1728,1117,,,,,0,986,,,,,,,,,,,,,,,,,181,B,circle,0,0,,,,,,,,,,,,,,,,repeat,letter,NA,k,0.0137,Lo,,,,,,4,,,,,,,,low,15,0,15,0,1,,,,,,,,,
295852,2022-12-02_12h01.31.068,vts_reward_expectancy_bt,2022.2.4,MacIntel,120.0048002,Chrome,1728,1117,,,,,10,996,,,,,,,,,,,,,,,,,167,D,triangle,1,1,,,,,,,,,,,,,,,,repeat,letter,lettRpt,j,0.0314,Lo,,,,,,4,,,,,,,,low,16,0,16,0,1,,,,,,,,,
295852,2022-12-02_12h01.31.068,vts_reward_expectancy_bt,2022.2.4,MacIntel,120.0048002,Chrome,1728,1117,,,,,0,996,,,,,,,,,,,,,,,,,146,B,circle,0,0,,,,,,,,,,,,,,,,repeat,letter,NA,k,0.0903,Lo,,,,,,4,,,,,,,,low,17,0,17,0,1,,,,,,,,,
295852,2022-12-02_12h01.31.068,vts_reward_expectancy_bt,2022.2.4,MacIntel,120.0048002,Chrome,1728,1117,,,,,10,1006,,,,,,,,,,,,,,,,,160,U,star,1,1,,,,,,,,,,,,,,,,repeat,letter,lettRpt,k,0.1207,Lo,,,,,,4,,,,,,,,low,18,0,18,0,1,,,,,,,,,
295852,2022-12-02_12h01.31.068,vts_reward_expectancy_bt,2022.2.4,MacIntel,120.0048002,Chrome,1728,1117,,,,,0,1006,,,,,,,,,,,,,,,,,132,H,hexagon,0,0,,,,,,,,,,,,,,,,repeat,letter,NA,k,0.0366,Lo,,,,,,4,,,,,,,,low,19,0,19,0,1,,,,,,,,,
295852,2022-12-02_12h01.31.068,vts_reward_expectancy_bt,2022.2.4,MacIntel,120.0048002,Chrome,1728,1117,,,,,0,1006,,,,,,,,,,,,,,,,,139,W,hexagon,0,1,,,,,,,,,,,,,,,,repeat,letter,NA,j,0.0671,Lo,,,,,,4,,,,,,,,low,20,0,20,0,1,,,,,,,,,
295852,2022-12-02_12h01.31.068,vts_reward_expectancy_bt,2022.2.4,MacIntel,120.0048002,Chrome,1728,1117,,,,,10,1016,,,,,,,,,,,,,,,,,125,Y,triangle,1,1,,,,,,,,,,,,,,,,repeat,letter,lettRpt,k,0.142,Lo,,,,,,4,,,,,,,,low,21,0,21,0,1,,,,,,,,,
295852,2022-12-02_12h01.31.068,vts_reward_expectancy_bt,2022.2.4,MacIntel,120.0048002,Chrome,1728,1117,,,,,0,1016,,,,,,,,,,,,,,,,,174,F,star,0,0,,,,,,,,,,,,,,,,repeat,letter,NA,k,0.0986,Lo,,,,,,4,,,,,,,,low,22,0,22,0,1,,,,,,,,,
295852,2022-12-02_12h01.31.068,vts_reward_expectancy_bt,2022.2.4,MacIntel,120.0048002,Chrome,1728,1117,,,,,0,1016,,,,,,,,,,,,,,,,,181,S,circle,1,1,,,,,,,,,,,,,,,,repeat,letter,lettRpt,k,0.2787,Hi,,,,,,4,,,,,,,,low,23,0,23,0,1,,,,,,,,,
295852,2022-12-02_12h01.31.068,vts_reward_expectancy_bt,2022.2.4,MacIntel,120.0048002,Chrome,1728,1117,,,,,10,1026,,,,,,,,,,,,,,,,,132,U,hexagon,1,0,,,,,,,,,,,,,,,,repeat,letter,lettRpt,k,0.0004,Hi,,,,,,4,,,,,,,,low,24,0,24,0,1,,,,,,,,,
295852,2022-12-02_12h01.31.068,vts_reward_expectancy_bt,2022.2.4,MacIntel,120.0048002,Chrome,1728,1117,,,,,0,1026,,,,,,,,,,,,,,,,,125,F,triangle,0,0,,,,,,,,,,,,,,,,repeat,letter,NA,k,0.0005,Hi,,,,,,4,,,,,,,,low,25,0,25,0,1,,,,,,,,,
295852,2022-12-02_12h01.31.068,vts_reward_expectancy_bt,2022.2.4,MacIntel,120.0048002,Chrome,1728,1117,,,,,0,1026,,,,,,,,,,,,,,,,,146,W,circle,1,1,,,,,,,,,,,,,,,,repeat,letter,lettRpt,k,0.3124,Hi,,,,,,4,,,,,,,,low,26,0,26,0,1,,,,,,,,,
295852,2022-12-02_12h01.31.068,vts_reward_expectancy_bt,2022.2.4,MacIntel,120.0048002,Chrome,1728,1117,,,,,10,1036,,,,,,,,,,,,,,,,,181,B,star,1,0,,,,,,,,,,,,,,,,repeat,letter,lettRpt,j,0.0002,Lo,,,,,,4,,,,,,,,low,27,0,27,0,1,,,,,,,,,
295852,2022-12-02_12h01.31.068,vts_reward_expectancy_bt,2022.2.4,MacIntel,120.0048002,Chrome,1728,1117,,,,,1,1037,,,,,,,,,,,,,,,,,167,Y,star,1,0,,,,,,,,,,,,,,,,repeat,letter,lettRpt,k,0.0003,Lo,,,,,,4,,,,,,,,low,28,0,28,0,1,,,,,,,,,
295852,2022-12-02_12h01.31.068,vts_reward_expectancy_bt,2022.2.4,MacIntel,120.0048002,Chrome,1728,1117,,,,,0,1037,,,,,,,,,,,,,,,,,174,H,hexagon,0,0,,,,,,,,,,,,,,,,repeat,letter,NA,k,0.0632,Lo,,,,,,4,,,,,,,,low,29,0,29,0,1,,,,,,,,,
295852,2022-12-02_12h01.31.068,vts_reward_expectancy_bt,2022.2.4,MacIntel,120.0048002,Chrome,1728,1117,,,,,0,1037,,,,,,,,,,,,,,,,,160,S,circle,0,1,,,,,,,,,,,,,,,,repeat,letter,NA,j,0.1065,Lo,,,,,,4,,,,,,,,low,30,0,30,0,1,,,,,,,,,
295852,2022-12-02_12h01.31.068,vts_reward_expectancy_bt,2022.2.4,MacIntel,120.0048002,Chrome,1728,1117,,,,,1,1038,,,,,,,,,,,,,,,,,139,D,triangle,1,1,,,,,,,,,,,,,,,,repeat,letter,lettRpt,j,0.019,Lo,,,,,,4,,,,,,,,low,31,0,31,0,1,,,,,,,,,
295852,2022-12-02_12h01.31.068,vts_reward_expectancy_bt,2022.2.4,MacIntel,120.0048002,Chrome,1728,1117,,,,,0,1038,,,,,,,,,,,,,,,,,167,Y,circle,1,0,,,,,,,,,,,,,,,,repeat,letter,lettRpt,k,0.0323,Hi,,,,,,5,,,,,,space,0.4702,low,0,0,0,0,1,,,,,,,,,
295852,2022-12-02_12h01.31.068,vts_reward_expectancy_bt,2022.2.4,MacIntel,120.0048002,Chrome,1728,1117,,,,,0,1038,,,,,,,,,,,,,,,,,132,W,star,0,0,,,,,,,,,,,,,,,,repeat,letter,NA,j,0.1058,Hi,,,,,,5,,,,,,,,low,1,0,1,0,1,,,,,,,,,
295852,2022-12-02_12h01.31.068,vts_reward_expectancy_bt,2022.2.4,MacIntel,120.0048002,Chrome,1728,1117,,,,,1,1039,,,,,,,,,,,,,,,,,146,B,triangle,1,1,,,,,,,,,,,,,,,,repeat,letter,lettRpt,j,0.0258,Lo,,,,,,5,,,,,,,,low,2,0,2,0,1,,,,,,,,,
295852,2022-12-02_12h01.31.068,vts_reward_expectancy_bt,2022.2.4,MacIntel,120.0048002,Chrome,1728,1117,,,,,0,1039,,,,,,,,,,,,,,,,,139,S,hexagon,0,0,,,,,,,,,,,,,,,,repeat,letter,NA,j,0.1369,Lo,,,,,,5,,,,,,,,low,3,0,3,0,1,,,,,,,,,
295852,2022-12-02_12h01.31.068,vts_reward_expectancy_bt,2022.2.4,MacIntel,120.0048002,Chrome,1728,1117,,,,,0,1039,,,,,,,,,,,,,,,,,160,U,circle,0,1,,,,,,,,,,,,,,,,repeat,letter,NA,j,0.0004,Lo,,,,,,5,,,,,,,,low,4,0,4,0,1,,,,,,,,,
295852,2022-12-02_12h01.31.068,vts_reward_expectancy_bt,2022.2.4,MacIntel,120.0048002,Chrome,1728,1117,,,,,0,1039,,,,,,,,,,,,,,,,,125,D,star,0,1,,,,,,,,,,,,,,,,repeat,letter,NA,k,0.2611,Lo,,,,,,5,,,,,,,,low,5,0,5,0,1,,,,,,,,,
295852,2022-12-02_12h01.31.068,vts_reward_expectancy_bt,2022.2.4,MacIntel,120.0048002,Chrome,1728,1117,,,,,10,1049,,,,,,,,,,,,,,,,,181,F,triangle,1,1,,,,,,,,,,,,,,,,repeat,letter,lettRpt,j,0.0749,Lo,,,,,,5,,,,,,,,low,6,0,6,0,1,,,,,,,,,
295852,2022-12-02_12h01.31.068,vts_reward_expectancy_bt,2022.2.4,MacIntel,120.0048002,Chrome,1728,1117,,,,,0,1049,,,,,,,,,,,,,,,,,174,H,hexagon,0,0,,,,,,,,,,,,,,,,repeat,letter,NA,k,0.0761,Lo,,,,,,5,,,,,,,,low,7,0,7,0,1,,,,,,,,,
295852,2022-12-02_12h01.31.068,vts_reward_expectancy_bt,2022.2.4,MacIntel,120.0048002,Chrome,1728,1117,,,,,0,1049,,,,,,,,,,,,,,,,,167,Y,hexagon,0,1,,,,,,,,,,,,,,,,repeat,letter,NA,j,0.199,Lo,,,,,,5,,,,,,,,low,8,0,8,0,1,,,,,,,,,
295852,2022-12-02_12h01.31.068,vts_reward_expectancy_bt,2022.2.4,MacIntel,120.0048002,Chrome,1728,1117,,,,,0,1049,,,,,,,,,,,,,,,,,132,W,star,0,1,,,,,,,,,,,,,,,,repeat,letter,NA,j,0.0895,Lo,,,,,,5,,,,,,,,low,9,0,9,0,1,,,,,,,,,
295852,2022-12-02_12h01.31.068,vts_reward_expectancy_bt,2022.2.4,MacIntel,120.0048002,Chrome,1728,1117,,,,,0,1049,,,,,,,,,,,,,,,,,146,B,circle,0,1,,,,,,,,,,,,,,,,repeat,letter,NA,k,0.0003,Lo,,,,,,5,,,,,,,,low,10,0,10,0,1,,,,,,,,,
295852,2022-12-02_12h01.31.068,vts_reward_expectancy_bt,2022.2.4,MacIntel,120.0048002,Chrome,1728,1117,,,,,10,1059,,,,,,,,,,,,,,,,,139,S,triangle,1,1,,,,,,,,,,,,,,,,repeat,letter,lettRpt,k,0.1095,Lo,,,,,,5,,,,,,,,low,11,0,11,0,1,,,,,,,,,
295852,2022-12-02_12h01.31.068,vts_reward_expectancy_bt,2022.2.4,MacIntel,120.0048002,Chrome,1728,1117,,,,,0,1059,,,,,,,,,,,,,,,,,160,U,star,0,0,,,,,,,,,,,,,,,,repeat,letter,NA,j,0.2122,Lo,,,,,,5,,,,,,,,low,12,0,12,0,1,,,,,,,,,
295852,2022-12-02_12h01.31.068,vts_reward_expectancy_bt,2022.2.4,MacIntel,120.0048002,Chrome,1728,1117,,,,,0,1059,,,,,,,,,,,,,,,,,125,D,hexagon,1,1,,,,,,,,,,,,,,,,repeat,letter,lettRpt,j,0.0311,Hi,,,,,,5,,,,,,,,low,13,0,13,0,1,,,,,,,,,
295852,2022-12-02_12h01.31.068,vts_reward_expectancy_bt,2022.2.4,MacIntel,120.0048002,Chrome,1728,1117,,,,,10,1069,,,,,,,,,,,,,,,,,181,F,triangle,1,0,,,,,,,,,,,,,,,,repeat,letter,lettRpt,j,0.7808,Lo,,,,,,5,,,,,,,,low,14,0,14,0,1,,,,,,,,,
295852,2022-12-02_12h01.31.068,vts_reward_expectancy_bt,2022.2.4,MacIntel,120.0048002,Chrome,1728,1117,,,,,0,1069,,,,,,,,,,,,,,,,,174,H,circle,1,0,,,,,,,,,,,,,,,,repeat,letter,lettRpt,j,0.4723,Hi,,,,,,5,,,,,,,,low,15,0,15,0,1,,,,,,,,,
295852,2022-12-02_12h01.31.068,vts_reward_expectancy_bt,2022.2.4,MacIntel,120.0048002,Chrome,1728,1117,,,,,0,1069,,,,,,,,,,,,,,,,,160,H,hexagon,1,0,,,,,,,,,,,,,,,,repeat,letter,lettRpt,j,0.1632,Hi,,,,,,5,,,,,,,,low,16,0,16,0,1,,,,,,,,,
295852,2022-12-02_12h01.31.068,vts_reward_expectancy_bt,2022.2.4,MacIntel,120.0048002,Chrome,1728,1117,,,,,0,1069,,,,,,,,,,,,,,,,,174,U,triangle,0,0,,,,,,,,,,,,,,,,repeat,letter,NA,j,0.0651,Hi,,,,,,5,,,,,,,,low,17,0,17,0,1,,,,,,,,,
295852,2022-12-02_12h01.31.068,vts_reward_expectancy_bt,2022.2.4,MacIntel,120.0048002,Chrome,1728,1117,,,,,0,1069,,,,,,,,,,,,,,,,,125,W,circle,1,1,,,,,,,,,,,,,,,,repeat,letter,lettRpt,k,1.6205,Hi,,,,,,5,,,,,,,,low,18,0,18,0,1,,,,,,,,,
295852,2022-12-02_12h01.31.068,vts_reward_expectancy_bt,2022.2.4,MacIntel,120.0048002,Chrome,1728,1117,,,,,1,1070,,,,,,,,,,,,,,,,,139,Y,star,1,0,,,,,,,,,,,,,,,,repeat,letter,lettRpt,k,0.0661,Lo,,,,,,5,,,,,,,,low,19,0,19,0,1,,,,,,,,,
295852,2022-12-02_12h01.31.068,vts_reward_expectancy_bt,2022.2.4,MacIntel,120.0048002,Chrome,1728,1117,,,,,0,1070,,,,,,,,,,,,,,,,,132,S,circle,1,0,,,,,,,,,,,,,,,,repeat,letter,lettRpt,k,0.0464,Hi,,,,,,5,,,,,,,,low,20,0,20,0,1,,,,,,,,,
295852,2022-12-02_12h01.31.068,vts_reward_expectancy_bt,2022.2.4,MacIntel,120.0048002,Chrome,1728,1117,,,,,0,1070,,,,,,,,,,,,,,,,,181,B,triangle,0,0,,,,,,,,,,,,,,,,repeat,letter,NA,k,1.9688,Hi,,,,,,5,,,,,,,,low,21,0,21,0,1,,,,,,,,,
295852,2022-12-02_12h01.31.068,vts_reward_expectancy_bt,2022.2.4,MacIntel,120.0048002,Chrome,1728,1117,,,,,10,1080,,,,,,,,,,,,,,,,,167,D,star,1,1,,,,,,,,,,,,,,,,repeat,letter,lettRpt,j,1.1292,Lo,,,,,,5,,,,,,,,low,22,0,22,0,1,,,,,,,,,
295852,2022-12-02_12h01.31.068,vts_reward_expectancy_bt,2022.2.4,MacIntel,120.0048002,Chrome,1728,1117,,,,,0,1080,,,,,,,,,,,,,,,,,146,F,hexagon,1,0,,,,,,,,,,,,,,,,repeat,letter,lettRpt,j,0.0734,Hi,,,,,,5,,,,,,,,low,23,0,23,0,1,,,,,,,,,
295852,2022-12-02_12h01.31.068,vts_reward_expectancy_bt,2022.2.4,MacIntel,120.0048002,Chrome,1728,1117,,,,,0,1080,,,,,,,,,,,,,,,,,160,F,circle,0,0,,,,,,,,,,,,,,,,repeat,letter,NA,k,0.3335,Hi,,,,,,5,,,,,,,,low,24,0,24,0,1,,,,,,,,,
295852,2022-12-02_12h01.31.068,vts_reward_expectancy_bt,2022.2.4,MacIntel,120.0048002,Chrome,1728,1117,,,,,1,1081,,,,,,,,,,,,,,,,,125,Y,triangle,1,1,,,,,,,,,,,,,,,,repeat,letter,lettRpt,k,0.0892,Lo,,,,,,5,,,,,,,,low,25,0,25,0,1,,,,,,,,,
295852,2022-12-02_12h01.31.068,vts_reward_expectancy_bt,2022.2.4,MacIntel,120.0048002,Chrome,1728,1117,,,,,0,1081,,,,,,,,,,,,,,,,,139,D,hexagon,1,0,,,,,,,,,,,,,,,,repeat,letter,lettRpt,j,0.0368,Hi,,,,,,5,,,,,,,,low,26,0,26,0,1,,,,,,,,,
295852,2022-12-02_12h01.31.068,vts_reward_expectancy_bt,2022.2.4,MacIntel,120.0048002,Chrome,1728,1117,,,,,0,1081,,,,,,,,,,,,,,,,,174,B,star,0,0,,,,,,,,,,,,,,,,repeat,letter,NA,k,0.159,Hi,,,,,,5,,,,,,,,low,27,0,27,0,1,,,,,,,,,
295852,2022-12-02_12h01.31.068,vts_reward_expectancy_bt,2022.2.4,MacIntel,120.0048002,Chrome,1728,1117,,,,,0,1081,,,,,,,,,,,,,,,,,167,H,hexagon,1,1,,,,,,,,,,,,,,,,repeat,letter,lettRpt,j,0.1707,Hi,,,,,,5,,,,,,,,low,28,0,28,0,1,,,,,,,,,
295852,2022-12-02_12h01.31.068,vts_reward_expectancy_bt,2022.2.4,MacIntel,120.0048002,Chrome,1728,1117,,,,,0,1081,,,,,,,,,,,,,,,,,146,S,triangle,0,0,,,,,,,,,,,,,,,,repeat,letter,NA,j,0.081,Hi,,,,,,5,,,,,,,,low,29,0,29,0,1,,,,,,,,,
295852,2022-12-02_12h01.31.068,vts_reward_expectancy_bt,2022.2.4,MacIntel,120.0048002,Chrome,1728,1117,,,,,0,1081,,,,,,,,,,,,,,,,,132,W,circle,1,1,,,,,,,,,,,,,,,,repeat,letter,lettRpt,k,0.3516,Hi,,,,,,5,,,,,,,,low,30,0,30,0,1,,,,,,,,,
295852,2022-12-02_12h01.31.068,vts_reward_expectancy_bt,2022.2.4,MacIntel,120.0048002,Chrome,1728,1117,,,,,1,1082,,,,,,,,,,,,,,,,,181,U,star,1,0,,,,,,,,,,,,,,,,repeat,letter,lettRpt,k,0.0071,Lo,,,,,,5,,,,,,,,low,31,0,31,0,1,,,,,,,,,
295852,2022-12-02_12h01.31.068,vts_reward_expectancy_bt,2022.2.4,MacIntel,120.0048002,Chrome,1728,1117,,,,,0,1082,,,,,,,,,,,,,,,,,146,U,star,0,0,,,,,,,,,,,,,,,,repeat,letter,NA,j,0.0003,Lo,,,,,,6,,,,,,space,0.9583,low,0,0,0,0,1,,,,,,,,,
295852,2022-12-02_12h01.31.068,vts_reward_expectancy_bt,2022.2.4,MacIntel,120.0048002,Chrome,1728,1117,,,,,0,1082,,,,,,,,,,,,,,,,,139,S,circle,1,1,,,,,,,,,,,,,,,,repeat,letter,lettRpt,k,0.0645,Hi,,,,,,6,,,,,,,,low,1,0,1,0,1,,,,,,,,,
